IPosition2,IPosition3,IPosition1,IPosition6,IPosition4,IPosition5,TrialsF1.thisRepN,TrialsF1.thisTrialN,TrialsF1.thisN,TrialsF1.thisIndex,TrialsM1.thisRepN,TrialsM1.thisTrialN,TrialsM1.thisN,TrialsM1.thisIndex,TrialsF2.thisRepN,TrialsF2.thisTrialN,TrialsF2.thisN,TrialsF2.thisIndex,TrialsM2.thisRepN,TrialsM2.thisTrialN,TrialsM2.thisN,TrialsM2.thisIndex,TrialsF3.thisRepN,TrialsF3.thisTrialN,TrialsF3.thisN,TrialsF3.thisIndex,TrialsM3.thisRepN,TrialsM3.thisTrialN,TrialsM3.thisN,TrialsM3.thisIndex,InstrKey_resp.keys,InstrKey_resp.rt,Image0 _Position,Image1 _Position,Image2 _Position,Image3 _Position,Center_image,condition,code,correct_answer,accuracy,Key_Resp.keys,Key_Resp.rt,BreakKey_resp.keys,BreakKey_resp.rt,date,frameRate,expName,session,participant,
,,,,,,,,,,,,,,,,,,,,,,,,,,,,,,space,25.5319283647,,,,,,,,,,,,,,2017_Feb_07_1410,59.9945735997,FEMA4ImagesEEG,001,00003,
AMSA21.JPG,AMNE23.JPG,AMNE21.JPG,AMSA25.JPG,AMNE25.JPG,AMSA23.JPG,0,0,0,5,,,,,,,,,,,,,,,,,,,,,,,AFNE18.jpg,AFSA02.jpg,AFNE04.jpg,AFSA04.jpg,AFSA04.jpg,FS,4,num_4,48,None,,,,2017_Feb_07_1410,59.9945735997,FEMA4ImagesEEG,001,00003,
AMNE23.JPG,AMNE24.JPG,AMNE22.JPG,AMSA24.JPG,AMSA22.JPG,AMSA23.JPG,0,1,1,9,,,,,,,,,,,,,,,,,,,,,,,AFNE02.jpg,AFSA15.jpg,AFSA13.jpg,AFNE15.jpg,AFSA15.jpg,FS,4,num_6,32,num_4,1.33344430919,,,2017_Feb_07_1410,59.9945735997,FEMA4ImagesEEG,001,00003,
AMSA25.JPG,AMNE24.JPG,AMSA24.JPG,AMNE26.JPG,AMSA21.JPG,AMNE25.JPG,0,2,2,3,,,,,,,,,,,,,,,,,,,,,,,AFSA18.jpg,AFNE02.jpg,AFSA10.jpg,AFNE20.jpg,AFNE20.jpg,FN,3,num_4,48,None,,,,2017_Feb_07_1410,59.9945735997,FEMA4ImagesEEG,001,00003,
AFSA21.JPG,AFNE22.JPG,AFNE21.JPG,AFSA23.JPG,AFSA22.JPG,AFNE23.JPG,0,3,3,0,,,,,,,,,,,,,,,,,,,,,,,AFNE20.jpg,AFSA08.jpg,AFNE11.jpg,AFSA02.jpg,AFSA02.jpg,FS,4,num_4,16,num_4,1.9833606605,,,2017_Feb_07_1410,59.9945735997,FEMA4ImagesEEG,001,00003,
AMSA21.JPG,AMNE22.JPG,AMNE21.JPG,AMSA23.JPG,AMSA22.JPG,AMNE23.JPG,0,4,4,1,,,,,,,,,,,,,,,,,,,,,,,AFNE09.jpg,AFSA13.jpg,AFNE08.jpg,AFSA01.jpg,AFSA01.jpg,FS,4,num_4,32,num_2,1.61671817745,,,2017_Feb_07_1410,59.9945735997,FEMA4ImagesEEG,001,00003,
AFSA21.JPG,AFNE23.JPG,AFNE21.JPG,AFSA25.JPG,AFNE25.JPG,AFSA23.JPG,0,5,5,4,,,,,,,,,,,,,,,,,,,,,,,AFSA09.jpg,AFNE07.jpg,AFSA20.jpg,AFNE09.jpg,AFNE07.jpg,FN,3,num_6,32,num_8,2.93327874341,,,2017_Feb_07_1410,59.9945735997,FEMA4ImagesEEG,001,00003,
AMNE22.JPG,AMSA24.JPG,AMSA22.JPG,AMNE25.JPG,AMNE24.JPG,AMSA25.JPG,0,6,6,7,,,,,,,,,,,,,,,,,,,,,,,AFSA14.jpg,AFNE14.jpg,AFSA01.jpg,AFNE19.jpg,AFNE14.jpg,FN,3,num_6,16,num_6,2.25005805399,,,2017_Feb_07_1410,59.9945735997,FEMA4ImagesEEG,001,00003,
AFNE22.JPG,AFSA24.JPG,AFSA22.JPG,AFNE25.JPG,AFNE24.JPG,AFSA25.JPG,0,7,7,6,,,,,,,,,,,,,,,,,,,,,,,AFSA13.jpg,AFNE17.jpg,AFSA17.jpg,AFNE15.jpg,AFSA13.jpg,FS,4,num_8,16,num_8,1.21673318814,,,2017_Feb_07_1410,59.9945735997,FEMA4ImagesEEG,001,00003,
AFNE23.JPG,AFNE24.JPG,AFNE22.JPG,AFSA24.JPG,AFSA22.JPG,AFSA23.JPG,0,8,8,8,,,,,,,,,,,,,,,,,,,,,,,AFNE18.jpg,AFSA17.jpg,AFSA12.jpg,AFNE17.jpg,AFNE18.jpg,FN,3,num_8,32,num_6,1.71667705872,,,2017_Feb_07_1410,59.9945735997,FEMA4ImagesEEG,001,00003,
AFSA25.JPG,AFNE24.JPG,AFSA24.JPG,AFNE21.JPG,AFSA21.JPG,AFNE25.JPG,0,9,9,2,,,,,,,,,,,,,,,,,,,,,,,AFNE18.jpg,AFNE06.jpg,AFSA01.jpg,AFSA13.jpg,AFNE06.jpg,FN,3,num_6,32,num_8,1.10008525266,,,2017_Feb_07_1410,59.9945735997,FEMA4ImagesEEG,001,00003,
AFSA21.JPG,AFNE23.JPG,AFNE21.JPG,AFSA25.JPG,AFNE25.JPG,AFSA23.JPG,,,,,0,0,0,4,,,,,,,,,,,,,,,,,,,AMNE17.jpg,AMSA13.jpg,AMSA15.jpg,AMNE18.jpg,AMSA15.jpg,MS,2,num_2,16,num_2,1.50006575161,,,2017_Feb_07_1410,59.9945735997,FEMA4ImagesEEG,001,00003,
AFNE23.JPG,AFNE24.JPG,AFNE22.JPG,AFSA24.JPG,AFSA22.JPG,AFSA23.JPG,,,,,0,1,1,8,,,,,,,,,,,,,,,,,,,AMSA12.jpg,AMNE15.jpg,AMSA08.jpg,AMNE09.jpg,AMNE09.jpg,MN,1,num_4,48,None,,,,2017_Feb_07_1410,59.9945735997,FEMA4ImagesEEG,001,00003,
AMSA21.JPG,AMNE23.JPG,AMNE21.JPG,AMSA25.JPG,AMNE25.JPG,AMSA23.JPG,,,,,0,2,2,5,,,,,,,,,,,,,,,,,,,AMNE01.jpg,AMSA15.jpg,AMNE14.jpg,AMSA16.jpg,AMNE01.jpg,MN,1,num_8,16,num_8,3.69993444066,,,2017_Feb_07_1410,59.9945735997,FEMA4ImagesEEG,001,00003,
AMSA25.JPG,AMNE24.JPG,AMSA24.JPG,AMNE26.JPG,AMSA21.JPG,AMNE25.JPG,,,,,0,3,3,3,,,,,,,,,,,,,,,,,,,AMNE03.jpg,AMNE14.jpg,AMSA18.jpg,AMSA06.jpg,AMNE14.jpg,MN,1,num_6,16,num_6,3.6334704177,,,2017_Feb_07_1410,59.9945735997,FEMA4ImagesEEG,001,00003,
AFSA21.JPG,AFNE22.JPG,AFNE21.JPG,AFSA23.JPG,AFSA22.JPG,AFNE23.JPG,,,,,0,4,4,0,,,,,,,,,,,,,,,,,,,AMSA18.jpg,AMNE01.jpg,AMSA01.jpg,AMNE19.jpg,AMSA01.jpg,MS,2,num_2,32,num_6,0.966757243499,,,2017_Feb_07_1410,59.9945735997,FEMA4ImagesEEG,001,00003,
AFNE22.JPG,AFSA24.JPG,AFSA22.JPG,AFNE25.JPG,AFNE24.JPG,AFSA25.JPG,,,,,0,5,5,6,,,,,,,,,,,,,,,,,,,AMSA16.jpg,AMNE17.jpg,AMNE19.jpg,AMSA12.jpg,AMSA12.jpg,MS,2,num_4,16,num_4,1.90001770505,,,2017_Feb_07_1410,59.9945735997,FEMA4ImagesEEG,001,00003,
AMSA21.JPG,AMNE22.JPG,AMNE21.JPG,AMSA23.JPG,AMSA22.JPG,AMNE23.JPG,,,,,0,6,6,1,,,,,,,,,,,,,,,,,,,AMSA09.jpg,AMNE15.jpg,AMSA01.jpg,AMNE03.jpg,AMSA01.jpg,MS,2,num_2,16,num_2,1.3334561768,,,2017_Feb_07_1410,59.9945735997,FEMA4ImagesEEG,001,00003,
AMNE22.JPG,AMSA24.JPG,AMSA22.JPG,AMNE25.JPG,AMNE24.JPG,AMSA25.JPG,,,,,0,7,7,7,,,,,,,,,,,,,,,,,,,AMNE19.jpg,AMSA08.jpg,AMSA19.jpg,AMNE17.jpg,AMNE19.jpg,MN,1,num_8,32,num_4,1.18346862146,,,2017_Feb_07_1410,59.9945735997,FEMA4ImagesEEG,001,00003,
AFSA25.JPG,AFNE24.JPG,AFSA24.JPG,AFNE21.JPG,AFSA21.JPG,AFNE25.JPG,,,,,0,8,8,2,,,,,,,,,,,,,,,,,,,AMNE05.jpg,AMSA12.jpg,AMNE06.jpg,AMSA11.jpg,AMSA12.jpg,MS,2,num_6,32,num_2,1.40008313581,,,2017_Feb_07_1410,59.9945735997,FEMA4ImagesEEG,001,00003,
AMNE23.JPG,AMNE24.JPG,AMNE22.JPG,AMSA24.JPG,AMSA22.JPG,AMSA23.JPG,,,,,0,9,9,9,,,,,,,,,,,,,,,,,,,AMNE06.jpg,AMSA09.jpg,AMSA07.jpg,AMNE20.jpg,AMNE20.jpg,MN,1,num_4,16,num_4,1.78341242764,,,2017_Feb_07_1410,59.9945735997,FEMA4ImagesEEG,001,00003,
AMSA21.JPG,AMNE23.JPG,AMNE21.JPG,AMSA25.JPG,AMNE25.JPG,AMSA23.JPG,,,,,,,,,0,0,0,5,,,,,,,,,,,,,,,AFNE03.jpg,AFSA12.jpg,AFNE09.jpg,AFSA13.jpg,AFSA13.jpg,FS,4,num_4,16,num_4,1.00012829597,,,2017_Feb_07_1410,59.9945735997,FEMA4ImagesEEG,001,00003,
AFSA21.JPG,AFNE22.JPG,AFNE21.JPG,AFSA23.JPG,AFSA22.JPG,AFNE23.JPG,,,,,,,,,0,1,1,0,,,,,,,,,,,,,,,AFNE14.jpg,AFSA14.jpg,AFNE09.jpg,AFSA10.jpg,AFSA14.jpg,FS,4,num_6,16,num_6,1.95002905908,,,2017_Feb_07_1410,59.9945735997,FEMA4ImagesEEG,001,00003,
AFSA21.JPG,AFNE23.JPG,AFNE21.JPG,AFSA25.JPG,AFNE25.JPG,AFSA23.JPG,,,,,,,,,0,2,2,4,,,,,,,,,,,,,,,AFNE09.jpg,AFSA08.jpg,AFNE06.jpg,AFSA06.jpg,AFSA08.jpg,FS,4,num_6,32,num_8,2.05010116147,,,2017_Feb_07_1410,59.9945735997,FEMA4ImagesEEG,001,00003,
AMNE22.JPG,AMSA24.JPG,AMSA22.JPG,AMNE25.JPG,AMNE24.JPG,AMSA25.JPG,,,,,,,,,0,3,3,7,,,,,,,,,,,,,,,AFSA05.jpg,AFNE01.jpg,AFSA20.jpg,AFNE16.jpg,AFSA20.jpg,FS,4,num_2,16,num_2,2.86657865555,,,2017_Feb_07_1410,59.9945735997,FEMA4ImagesEEG,001,00003,
AMNE23.JPG,AMNE24.JPG,AMNE22.JPG,AMSA24.JPG,AMSA22.JPG,AMSA23.JPG,,,,,,,,,0,4,4,9,,,,,,,,,,,,,,,AFNE19.jpg,AFNE14.jpg,AFSA06.jpg,AFSA10.jpg,AFSA10.jpg,FS,4,num_4,16,num_4,1.23343154369,,,2017_Feb_07_1410,59.9945735997,FEMA4ImagesEEG,001,00003,
AFNE23.JPG,AFNE24.JPG,AFNE22.JPG,AFSA24.JPG,AFSA22.JPG,AFSA23.JPG,,,,,,,,,0,5,5,8,,,,,,,,,,,,,,,AFNE06.jpg,AFSA01.jpg,AFSA14.jpg,AFNE19.jpg,AFSA14.jpg,FS,4,num_2,32,num_6,2.21665717266,,,2017_Feb_07_1410,59.9945735997,FEMA4ImagesEEG,001,00003,
AFNE22.JPG,AFSA24.JPG,AFSA22.JPG,AFNE25.JPG,AFNE24.JPG,AFSA25.JPG,,,,,,,,,0,6,6,6,,,,,,,,,,,,,,,AFSA18.jpg,AFSA10.jpg,AFNE08.jpg,AFNE01.jpg,AFSA10.jpg,FS,4,num_6,32,num_2,2.2000098147,,,2017_Feb_07_1410,59.9945735997,FEMA4ImagesEEG,001,00003,
AFSA25.JPG,AFNE24.JPG,AFSA24.JPG,AFNE21.JPG,AFSA21.JPG,AFNE25.JPG,,,,,,,,,0,7,7,2,,,,,,,,,,,,,,,AFSA04.jpg,AFNE15.jpg,AFNE08.jpg,AFSA16.jpg,AFSA16.jpg,FS,4,num_4,32,num_6,1.98334526503,,,2017_Feb_07_1410,59.9945735997,FEMA4ImagesEEG,001,00003,
AMSA21.JPG,AMNE22.JPG,AMNE21.JPG,AMSA23.JPG,AMSA22.JPG,AMNE23.JPG,,,,,,,,,0,8,8,1,,,,,,,,,,,,,,,AFNE13.jpg,AFSA19.jpg,AFSA13.jpg,AFNE07.jpg,AFSA13.jpg,FS,4,num_2,32,num_6,1.25005933689,,,2017_Feb_07_1410,59.9945735997,FEMA4ImagesEEG,001,00003,
AMSA25.JPG,AMNE24.JPG,AMSA24.JPG,AMNE26.JPG,AMSA21.JPG,AMNE25.JPG,,,,,,,,,0,9,9,3,,,,,,,,,,,,,,,AFSA02.jpg,AFNE03.jpg,AFSA06.jpg,AFNE06.jpg,AFNE03.jpg,FN,3,num_6,32,num_2,2.73336450919,,,2017_Feb_07_1410,59.9945735997,FEMA4ImagesEEG,001,00003,
AFNE23.JPG,AFNE24.JPG,AFNE22.JPG,AFSA24.JPG,AFSA22.JPG,AFSA23.JPG,,,,,,,,,,,,,0,0,0,8,,,,,,,,,,,AMSA10.jpg,AMNE14.jpg,AMNE20.jpg,AMSA06.jpg,AMSA06.jpg,MS,2,num_4,16,num_4,0.833454252221,,,2017_Feb_07_1410,59.9945735997,FEMA4ImagesEEG,001,00003,
AMSA21.JPG,AMNE22.JPG,AMNE21.JPG,AMSA23.JPG,AMSA22.JPG,AMNE23.JPG,,,,,,,,,,,,,0,1,1,1,,,,,,,,,,,AMSA18.jpg,AMNE19.jpg,AMSA09.jpg,AMNE18.jpg,AMSA09.jpg,MS,2,num_2,16,num_2,1.10008846014,,,2017_Feb_07_1410,59.9945735997,FEMA4ImagesEEG,001,00003,
AFSA21.JPG,AFNE22.JPG,AFNE21.JPG,AFSA23.JPG,AFSA22.JPG,AFNE23.JPG,,,,,,,,,,,,,0,2,2,0,,,,,,,,,,,AMSA03.jpg,AMSA05.jpg,AMNE16.jpg,AMNE14.jpg,AMSA05.jpg,MS,2,num_6,16,num_6,3.01685263147,,,2017_Feb_07_1410,59.9945735997,FEMA4ImagesEEG,001,00003,
AMNE22.JPG,AMSA24.JPG,AMSA22.JPG,AMNE25.JPG,AMNE24.JPG,AMSA25.JPG,,,,,,,,,,,,,0,3,3,7,,,,,,,,,,,AMNE11.jpg,AMSA07.jpg,AMNE13.jpg,AMSA04.jpg,AMSA07.jpg,MS,2,num_6,32,num_2,2.16674717236,,,2017_Feb_07_1410,59.9945735997,FEMA4ImagesEEG,001,00003,
AMNE23.JPG,AMNE24.JPG,AMNE22.JPG,AMSA24.JPG,AMSA22.JPG,AMSA23.JPG,,,,,,,,,,,,,0,4,4,9,,,,,,,,,,,AMSA20.jpg,AMNE19.jpg,AMSA09.jpg,AMNE05.jpg,AMSA20.jpg,MS,2,num_8,16,num_8,1.43343558512,,,2017_Feb_07_1410,59.9945735997,FEMA4ImagesEEG,001,00003,
AFSA21.JPG,AFNE23.JPG,AFNE21.JPG,AFSA25.JPG,AFNE25.JPG,AFSA23.JPG,,,,,,,,,,,,,0,5,5,4,,,,,,,,,,,AMNE08.jpg,AMNE12.jpg,AMSA13.jpg,AMSA08.jpg,AMSA13.jpg,MS,2,num_2,32,num_4,1.31669912557,,,2017_Feb_07_1410,59.9945735997,FEMA4ImagesEEG,001,00003,
AFSA25.JPG,AFNE24.JPG,AFSA24.JPG,AFNE21.JPG,AFSA21.JPG,AFNE25.JPG,,,,,,,,,,,,,0,6,6,2,,,,,,,,,,,AMNE11.jpg,AMSA19.jpg,AMNE18.jpg,AMSA12.jpg,AMNE18.jpg,MN,1,num_2,16,num_2,1.5999656166,,,2017_Feb_07_1410,59.9945735997,FEMA4ImagesEEG,001,00003,
AMSA25.JPG,AMNE24.JPG,AMSA24.JPG,AMNE26.JPG,AMSA21.JPG,AMNE25.JPG,,,,,,,,,,,,,0,7,7,3,,,,,,,,,,,AMSA06.jpg,AMSA09.jpg,AMNE04.jpg,AMNE03.jpg,AMSA09.jpg,MS,2,num_6,48,None,,,,2017_Feb_07_1410,59.9945735997,FEMA4ImagesEEG,001,00003,
AMSA21.JPG,AMNE23.JPG,AMNE21.JPG,AMSA25.JPG,AMNE25.JPG,AMSA23.JPG,,,,,,,,,,,,,0,8,8,5,,,,,,,,,,,AMNE02.jpg,AMNE10.jpg,AMSA13.jpg,AMSA01.jpg,AMSA01.jpg,MS,2,num_4,16,num_4,0.650128680747,,,2017_Feb_07_1410,59.9945735997,FEMA4ImagesEEG,001,00003,
AFNE22.JPG,AFSA24.JPG,AFSA22.JPG,AFNE25.JPG,AFNE24.JPG,AFSA25.JPG,,,,,,,,,,,,,0,9,9,6,,,,,,,,,,,AMNE12.jpg,AMSA01.jpg,AMNE20.jpg,AMSA18.jpg,AMNE12.jpg,MN,1,num_8,16,num_8,2.89993623691,,,2017_Feb_07_1410,59.9945735997,FEMA4ImagesEEG,001,00003,
AFNE22.JPG,AFSA24.JPG,AFSA22.JPG,AFNE25.JPG,AFNE24.JPG,AFSA25.JPG,,,,,,,,,,,,,,,,,0,0,0,6,,,,,,,AFNE06.jpg,AFSA17.jpg,AFSA14.jpg,AFNE01.jpg,AFNE01.jpg,FN,3,num_4,32,num_2,1.66666313866,,,2017_Feb_07_1410,59.9945735997,FEMA4ImagesEEG,001,00003,
AFSA21.JPG,AFNE23.JPG,AFNE21.JPG,AFSA25.JPG,AFNE25.JPG,AFSA23.JPG,,,,,,,,,,,,,,,,,0,1,1,4,,,,,,,AFNE15.jpg,AFSA12.jpg,AFSA10.jpg,AFNE01.jpg,AFSA12.jpg,FS,4,num_6,16,num_6,1.03351249872,,,2017_Feb_07_1410,59.9945735997,FEMA4ImagesEEG,001,00003,
AFSA21.JPG,AFNE22.JPG,AFNE21.JPG,AFSA23.JPG,AFSA22.JPG,AFNE23.JPG,,,,,,,,,,,,,,,,,0,2,2,0,,,,,,,AFNE15.jpg,AFSA03.jpg,AFSA19.jpg,AFNE16.jpg,AFNE15.jpg,FN,3,num_8,16,num_8,1.00012188125,,,2017_Feb_07_1410,59.9945735997,FEMA4ImagesEEG,001,00003,
AFNE23.JPG,AFNE24.JPG,AFNE22.JPG,AFSA24.JPG,AFSA22.JPG,AFSA23.JPG,,,,,,,,,,,,,,,,,0,3,3,8,,,,,,,AFSA12.jpg,AFNE16.jpg,AFSA02.jpg,AFNE11.jpg,AFSA02.jpg,FS,4,num_2,32,num_6,0.933862489881,,,2017_Feb_07_1410,59.9945735997,FEMA4ImagesEEG,001,00003,
AMSA21.JPG,AMNE23.JPG,AMNE21.JPG,AMSA25.JPG,AMNE25.JPG,AMSA23.JPG,,,,,,,,,,,,,,,,,0,4,4,5,,,,,,,AFNE19.jpg,AFSA20.jpg,AFNE12.jpg,AFSA15.jpg,AFNE12.jpg,FN,3,num_2,16,num_2,1.60007370589,,,2017_Feb_07_1410,59.9945735997,FEMA4ImagesEEG,001,00003,
AFSA25.JPG,AFNE24.JPG,AFSA24.JPG,AFNE21.JPG,AFSA21.JPG,AFNE25.JPG,,,,,,,,,,,,,,,,,0,5,5,2,,,,,,,AFSA09.jpg,AFSA10.jpg,AFNE17.jpg,AFNE06.jpg,AFSA09.jpg,FS,4,num_8,16,num_8,0.9167587189,,,2017_Feb_07_1410,59.9945735997,FEMA4ImagesEEG,001,00003,
AMSA25.JPG,AMNE24.JPG,AMSA24.JPG,AMNE26.JPG,AMSA21.JPG,AMNE25.JPG,,,,,,,,,,,,,,,,,0,6,6,3,,,,,,,AFNE01.jpg,AFSA14.jpg,AFNE11.jpg,AFSA15.jpg,AFNE11.jpg,FN,3,num_2,16,num_2,2.31671259645,,,2017_Feb_07_1410,59.9945735997,FEMA4ImagesEEG,001,00003,
AMSA21.JPG,AMNE22.JPG,AMNE21.JPG,AMSA23.JPG,AMSA22.JPG,AMNE23.JPG,,,,,,,,,,,,,,,,,0,7,7,1,,,,,,,AFNE02.jpg,AFSA15.jpg,AFSA01.jpg,AFNE12.jpg,AFSA15.jpg,FS,4,num_6,16,num_6,0.666815489996,,,2017_Feb_07_1410,59.9945735997,FEMA4ImagesEEG,001,00003,
AMNE22.JPG,AMSA24.JPG,AMSA22.JPG,AMNE25.JPG,AMNE24.JPG,AMSA25.JPG,,,,,,,,,,,,,,,,,0,8,8,7,,,,,,,AFSA04.jpg,AFNE08.jpg,AFSA05.jpg,AFNE09.jpg,AFNE08.jpg,FN,3,num_6,32,num_8,1.58337759553,,,2017_Feb_07_1410,59.9945735997,FEMA4ImagesEEG,001,00003,
AMNE23.JPG,AMNE24.JPG,AMNE22.JPG,AMSA24.JPG,AMSA22.JPG,AMSA23.JPG,,,,,,,,,,,,,,,,,0,9,9,9,,,,,,,AFNE10.jpg,AFNE09.jpg,AFSA13.jpg,AFSA02.jpg,AFSA02.jpg,FS,4,num_4,32,num_2,1.51672786381,,,2017_Feb_07_1410,59.9945735997,FEMA4ImagesEEG,001,00003,
AMSA21.JPG,AMNE22.JPG,AMNE21.JPG,AMSA23.JPG,AMSA22.JPG,AMNE23.JPG,,,,,,,,,,,,,,,,,,,,,0,0,0,1,,,AMNE09.jpg,AMNE13.jpg,AMSA07.jpg,AMSA19.jpg,AMNE13.jpg,MN,1,num_6,16,num_6,1.96669117128,,,2017_Feb_07_1410,59.9945735997,FEMA4ImagesEEG,001,00003,
AMNE22.JPG,AMSA24.JPG,AMSA22.JPG,AMNE25.JPG,AMNE24.JPG,AMSA25.JPG,,,,,,,,,,,,,,,,,,,,,0,1,1,7,,,AMNE13.jpg,AMSA09.jpg,AMSA11.jpg,AMNE03.jpg,AMNE13.jpg,MN,1,num_8,16,num_8,1.68364631128,,,2017_Feb_07_1410,59.9945735997,FEMA4ImagesEEG,001,00003,
AMSA25.JPG,AMNE24.JPG,AMSA24.JPG,AMNE26.JPG,AMSA21.JPG,AMNE25.JPG,,,,,,,,,,,,,,,,,,,,,0,2,2,3,,,AMSA04.jpg,AMSA11.jpg,AMNE01.jpg,AMNE09.jpg,AMSA04.jpg,MS,2,num_8,16,num_8,2.10004419787,,,2017_Feb_07_1410,59.9945735997,FEMA4ImagesEEG,001,00003,
AFSA21.JPG,AFNE23.JPG,AFNE21.JPG,AFSA25.JPG,AFNE25.JPG,AFSA23.JPG,,,,,,,,,,,,,,,,,,,,,0,3,3,4,,,AMSA14.jpg,AMSA15.jpg,AMNE18.jpg,AMNE11.jpg,AMSA15.jpg,MS,2,num_6,16,num_6,0.916761605768,,,2017_Feb_07_1410,59.9945735997,FEMA4ImagesEEG,001,00003,
AFNE22.JPG,AFSA24.JPG,AFSA22.JPG,AFNE25.JPG,AFNE24.JPG,AFSA25.JPG,,,,,,,,,,,,,,,,,,,,,0,4,4,6,,,AMNE13.jpg,AMSA13.jpg,AMSA14.jpg,AMNE03.jpg,AMNE03.jpg,MN,1,num_4,32,num_2,1.40006741951,,,2017_Feb_07_1410,59.9945735997,FEMA4ImagesEEG,001,00003,
AMNE23.JPG,AMNE24.JPG,AMNE22.JPG,AMSA24.JPG,AMSA22.JPG,AMSA23.JPG,,,,,,,,,,,,,,,,,,,,,0,5,5,9,,,AMNE17.jpg,AMSA04.jpg,AMSA02.jpg,AMNE11.jpg,AMNE11.jpg,MN,1,num_4,16,num_4,1.10013689171,,,2017_Feb_07_1410,59.9945735997,FEMA4ImagesEEG,001,00003,
AFSA25.JPG,AFNE24.JPG,AFSA24.JPG,AFNE21.JPG,AFSA21.JPG,AFNE25.JPG,,,,,,,,,,,,,,,,,,,,,0,6,6,2,,,AMSA01.jpg,AMSA08.jpg,AMNE15.jpg,AMNE11.jpg,AMNE15.jpg,MN,1,num_2,16,num_2,1.23343571345,,,2017_Feb_07_1410,59.9945735997,FEMA4ImagesEEG,001,00003,
AFNE23.JPG,AFNE24.JPG,AFNE22.JPG,AFSA24.JPG,AFSA22.JPG,AFSA23.JPG,,,,,,,,,,,,,,,,,,,,,0,7,7,8,,,AMSA04.jpg,AMNE02.jpg,AMNE15.jpg,AMSA11.jpg,AMNE02.jpg,MN,1,num_6,32,num_8,1.60011476069,,,2017_Feb_07_1410,59.9945735997,FEMA4ImagesEEG,001,00003,
AFSA21.JPG,AFNE22.JPG,AFNE21.JPG,AFSA23.JPG,AFSA22.JPG,AFNE23.JPG,,,,,,,,,,,,,,,,,,,,,0,8,8,0,,,AMNE03.jpg,AMNE04.jpg,AMSA03.jpg,AMSA20.jpg,AMNE04.jpg,MN,1,num_6,32,num_2,1.83339299099,,,2017_Feb_07_1410,59.9945735997,FEMA4ImagesEEG,001,00003,
AMSA21.JPG,AMNE23.JPG,AMNE21.JPG,AMSA25.JPG,AMNE25.JPG,AMSA23.JPG,,,,,,,,,,,,,,,,,,,,,0,9,9,5,,,AMNE17.jpg,AMSA20.jpg,AMSA13.jpg,AMNE19.jpg,AMNE17.jpg,MN,1,num_8,16,num_8,1.05009282217,,,2017_Feb_07_1410,59.9945735997,FEMA4ImagesEEG,001,00003,
,,,,,,,,,,,,,,,,,,,,,,,,,,,,,,,,,,,,,,,,,,,space,10.9162660628,2017_Feb_07_1410,59.9945735997,FEMA4ImagesEEG,001,00003,
AFNE01.JPG,AFNE01.JPG,AFNE01.JPG,AFNE01.JPG,AFNE01.JPG,AFNE01.JPG,0,0,0,2,,,,,,,,,,,,,,,,,,,,,,,AFSA11.jpg,AFNE16.jpg,AFNE02.jpg,AFSA10.jpg,AFNE02.jpg,FN,3,num_2,32,num_4,0.983437958639,,,2017_Feb_07_1410,59.9945735997,FEMA4ImagesEEG,001,00003,
AFNE01.JPG,AFNE01.JPG,AFNE01.JPG,AFNE01.JPG,AFNE01.JPG,AFNE01.JPG,0,1,1,7,,,,,,,,,,,,,,,,,,,,,,,AFNE15.jpg,AFSA03.jpg,AFNE05.jpg,AFSA01.jpg,AFSA01.jpg,FS,4,num_4,32,num_8,1.68341634073,,,2017_Feb_07_1410,59.9945735997,FEMA4ImagesEEG,001,00003,
AFNE01.JPG,AFNE01.JPG,AFNE01.JPG,AFNE01.JPG,AFNE01.JPG,AFNE01.JPG,0,2,2,3,,,,,,,,,,,,,,,,,,,,,,,AFSA12.jpg,AFNE19.jpg,AFSA14.jpg,AFNE16.jpg,AFSA14.jpg,FS,4,num_2,32,num_4,2.78331428138,,,2017_Feb_07_1410,59.9945735997,FEMA4ImagesEEG,001,00003,
AFNE01.JPG,AFNE01.JPG,AFNE01.JPG,AFNE01.JPG,AFNE01.JPG,AFNE01.JPG,0,3,3,6,,,,,,,,,,,,,,,,,,,,,,,AFNE15.jpg,AFSA20.jpg,AFSA03.jpg,AFNE03.jpg,AFSA20.jpg,FS,4,num_6,16,num_6,0.666762888664,,,2017_Feb_07_1410,59.9945735997,FEMA4ImagesEEG,001,00003,
AFNE01.JPG,AFNE01.JPG,AFNE01.JPG,AFNE01.JPG,AFNE01.JPG,AFNE01.JPG,0,4,4,9,,,,,,,,,,,,,,,,,,,,,,,AFSA08.jpg,AFSA06.jpg,AFNE01.jpg,AFNE13.jpg,AFSA06.jpg,FS,4,num_6,32,num_8,1.35003553797,,,2017_Feb_07_1410,59.9945735997,FEMA4ImagesEEG,001,00003,
AFNE01.JPG,AFNE01.JPG,AFNE01.JPG,AFNE01.JPG,AFNE01.JPG,AFNE01.JPG,0,5,5,5,,,,,,,,,,,,,,,,,,,,,,,AFNE17.jpg,AFSA16.jpg,AFNE13.jpg,AFSA14.jpg,AFSA16.jpg,FS,4,num_6,16,num_6,1.00008756202,,,2017_Feb_07_1410,59.9945735997,FEMA4ImagesEEG,001,00003,
AFNE01.JPG,AFNE01.JPG,AFNE01.JPG,AFNE01.JPG,AFNE01.JPG,AFNE01.JPG,0,6,6,8,,,,,,,,,,,,,,,,,,,,,,,AFNE03.jpg,AFSA13.jpg,AFNE19.jpg,AFSA04.jpg,AFNE19.jpg,FN,3,num_2,16,num_2,2.16638698149,,,2017_Feb_07_1410,59.9945735997,FEMA4ImagesEEG,001,00003,
AFNE01.JPG,AFNE01.JPG,AFNE01.JPG,AFNE01.JPG,AFNE01.JPG,AFNE01.JPG,0,7,7,0,,,,,,,,,,,,,,,,,,,,,,,AFSA19.jpg,AFNE20.jpg,AFSA01.jpg,AFNE13.jpg,AFSA19.jpg,FS,4,num_8,16,num_8,0.850062480196,,,2017_Feb_07_1410,59.9945735997,FEMA4ImagesEEG,001,00003,
AFNE01.JPG,AFNE01.JPG,AFNE01.JPG,AFNE01.JPG,AFNE01.JPG,AFNE01.JPG,0,8,8,4,,,,,,,,,,,,,,,,,,,,,,,AFNE13.jpg,AFNE10.jpg,AFSA05.jpg,AFSA16.jpg,AFSA16.jpg,FS,4,num_4,16,num_4,1.10011860961,,,2017_Feb_07_1410,59.9945735997,FEMA4ImagesEEG,001,00003,
AFNE01.JPG,AFNE01.JPG,AFNE01.JPG,AFNE01.JPG,AFNE01.JPG,AFNE01.JPG,0,9,9,1,,,,,,,,,,,,,,,,,,,,,,,AFNE12.jpg,AFNE13.jpg,AFSA18.jpg,AFSA05.jpg,AFSA05.jpg,FS,4,num_4,32,num_6,1.15039521549,,,2017_Feb_07_1410,59.9945735997,FEMA4ImagesEEG,001,00003,
AFNE01.JPG,AFNE01.JPG,AFNE01.JPG,AFNE01.JPG,AFNE01.JPG,AFNE01.JPG,1,0,10,5,,,,,,,,,,,,,,,,,,,,,,,AFSA18.jpg,AFNE04.jpg,AFSA08.jpg,AFNE14.jpg,AFSA08.jpg,FS,4,num_2,32,num_4,1.66669296729,,,2017_Feb_07_1410,59.9945735997,FEMA4ImagesEEG,001,00003,
AFNE01.JPG,AFNE01.JPG,AFNE01.JPG,AFNE01.JPG,AFNE01.JPG,AFNE01.JPG,1,1,11,2,,,,,,,,,,,,,,,,,,,,,,,AFSA09.jpg,AFSA01.jpg,AFNE17.jpg,AFNE18.jpg,AFSA01.jpg,FS,4,num_6,16,num_6,1.23344661854,,,2017_Feb_07_1410,59.9945735997,FEMA4ImagesEEG,001,00003,
AFNE01.JPG,AFNE01.JPG,AFNE01.JPG,AFNE01.JPG,AFNE01.JPG,AFNE01.JPG,1,2,12,8,,,,,,,,,,,,,,,,,,,,,,,AFNE17.jpg,AFSA17.jpg,AFSA06.jpg,AFNE01.jpg,AFNE01.jpg,FN,3,num_4,16,num_4,1.45011213073,,,2017_Feb_07_1410,59.9945735997,FEMA4ImagesEEG,001,00003,
AFNE01.JPG,AFNE01.JPG,AFNE01.JPG,AFNE01.JPG,AFNE01.JPG,AFNE01.JPG,1,3,13,4,,,,,,,,,,,,,,,,,,,,,,,AFNE11.jpg,AFSA11.jpg,AFNE10.jpg,AFSA13.jpg,AFNE11.jpg,FN,3,num_8,16,num_8,1.33344463003,,,2017_Feb_07_1410,59.9945735997,FEMA4ImagesEEG,001,00003,
AFNE01.JPG,AFNE01.JPG,AFNE01.JPG,AFNE01.JPG,AFNE01.JPG,AFNE01.JPG,1,4,14,9,,,,,,,,,,,,,,,,,,,,,,,AFSA02.jpg,AFNE20.jpg,AFSA13.jpg,AFNE12.jpg,AFNE20.jpg,FN,3,num_6,16,num_6,1.01677180524,,,2017_Feb_07_1410,59.9945735997,FEMA4ImagesEEG,001,00003,
AFNE01.JPG,AFNE01.JPG,AFNE01.JPG,AFNE01.JPG,AFNE01.JPG,AFNE01.JPG,1,5,15,7,,,,,,,,,,,,,,,,,,,,,,,AFNE13.jpg,AFSA17.jpg,AFNE15.jpg,AFSA02.jpg,AFSA17.jpg,FS,4,num_6,32,num_8,1.3501112326,,,2017_Feb_07_1410,59.9945735997,FEMA4ImagesEEG,001,00003,
AFNE01.JPG,AFNE01.JPG,AFNE01.JPG,AFNE01.JPG,AFNE01.JPG,AFNE01.JPG,1,6,16,6,,,,,,,,,,,,,,,,,,,,,,,AFSA15.jpg,AFNE16.jpg,AFNE09.jpg,AFSA07.jpg,AFSA15.jpg,FS,4,num_8,16,num_8,1.41668559029,,,2017_Feb_07_1410,59.9945735997,FEMA4ImagesEEG,001,00003,
AFNE01.JPG,AFNE01.JPG,AFNE01.JPG,AFNE01.JPG,AFNE01.JPG,AFNE01.JPG,1,7,17,3,,,,,,,,,,,,,,,,,,,,,,,AFNE06.jpg,AFNE07.jpg,AFSA14.jpg,AFSA04.jpg,AFNE07.jpg,FN,3,num_6,16,num_6,1.23349633324,,,2017_Feb_07_1410,59.9945735997,FEMA4ImagesEEG,001,00003,
AFNE01.JPG,AFNE01.JPG,AFNE01.JPG,AFNE01.JPG,AFNE01.JPG,AFNE01.JPG,1,8,18,1,,,,,,,,,,,,,,,,,,,,,,,AFNE07.jpg,AFSA18.jpg,AFNE13.jpg,AFSA05.jpg,AFSA18.jpg,FS,4,num_6,32,num_2,2.23335969797,,,2017_Feb_07_1410,59.9945735997,FEMA4ImagesEEG,001,00003,
AFNE01.JPG,AFNE01.JPG,AFNE01.JPG,AFNE01.JPG,AFNE01.JPG,AFNE01.JPG,1,9,19,0,,,,,,,,,,,,,,,,,,,,,,,AFSA07.jpg,AFNE10.jpg,AFSA18.jpg,AFNE14.jpg,AFSA18.jpg,FS,4,num_2,16,num_2,1.88363495702,,,2017_Feb_07_1410,59.9945735997,FEMA4ImagesEEG,001,00003,
AFNE01.JPG,AFNE01.JPG,AFNE01.JPG,AFNE01.JPG,AFNE01.JPG,AFNE01.JPG,2,0,20,0,,,,,,,,,,,,,,,,,,,,,,,AFSA17.jpg,AFNE03.jpg,AFSA14.jpg,AFNE20.jpg,AFNE03.jpg,FN,3,num_6,16,num_6,0.950105715776,,,2017_Feb_07_1410,59.9945735997,FEMA4ImagesEEG,001,00003,
AFNE01.JPG,AFNE01.JPG,AFNE01.JPG,AFNE01.JPG,AFNE01.JPG,AFNE01.JPG,2,1,21,8,,,,,,,,,,,,,,,,,,,,,,,AFSA09.jpg,AFSA06.jpg,AFNE16.jpg,AFNE08.jpg,AFNE08.jpg,FN,3,num_4,16,num_4,1.50008531683,,,2017_Feb_07_1410,59.9945735997,FEMA4ImagesEEG,001,00003,
AFNE01.JPG,AFNE01.JPG,AFNE01.JPG,AFNE01.JPG,AFNE01.JPG,AFNE01.JPG,2,2,22,2,,,,,,,,,,,,,,,,,,,,,,,AFSA13.jpg,AFNE07.jpg,AFNE06.jpg,AFSA03.jpg,AFNE06.jpg,FN,3,num_2,32,num_8,2.20002488932,,,2017_Feb_07_1410,59.9945735997,FEMA4ImagesEEG,001,00003,
AFNE01.JPG,AFNE01.JPG,AFNE01.JPG,AFNE01.JPG,AFNE01.JPG,AFNE01.JPG,2,3,23,7,,,,,,,,,,,,,,,,,,,,,,,AFNE08.jpg,AFSA19.jpg,AFNE20.jpg,AFSA05.jpg,AFNE08.jpg,FN,3,num_8,16,num_8,1.09997042781,,,2017_Feb_07_1410,59.9945735997,FEMA4ImagesEEG,001,00003,
AFNE01.JPG,AFNE01.JPG,AFNE01.JPG,AFNE01.JPG,AFNE01.JPG,AFNE01.JPG,2,4,24,4,,,,,,,,,,,,,,,,,,,,,,,AFNE17.jpg,AFSA02.jpg,AFSA12.jpg,AFNE11.jpg,AFNE11.jpg,FN,3,num_4,32,num_8,1.15016011335,,,2017_Feb_07_1410,59.9945735997,FEMA4ImagesEEG,001,00003,
AFNE01.JPG,AFNE01.JPG,AFNE01.JPG,AFNE01.JPG,AFNE01.JPG,AFNE01.JPG,2,5,25,3,,,,,,,,,,,,,,,,,,,,,,,AFNE05.jpg,AFNE08.jpg,AFSA13.jpg,AFSA01.jpg,AFNE05.jpg,FN,3,num_8,16,num_8,1.40007255133,,,2017_Feb_07_1410,59.9945735997,FEMA4ImagesEEG,001,00003,
AFNE01.JPG,AFNE01.JPG,AFNE01.JPG,AFNE01.JPG,AFNE01.JPG,AFNE01.JPG,2,6,26,9,,,,,,,,,,,,,,,,,,,,,,,AFSA08.jpg,AFSA07.jpg,AFNE19.jpg,AFNE13.jpg,AFSA07.jpg,FS,4,num_6,16,num_6,1.33344847895,,,2017_Feb_07_1410,59.9945735997,FEMA4ImagesEEG,001,00003,
AFNE01.JPG,AFNE01.JPG,AFNE01.JPG,AFNE01.JPG,AFNE01.JPG,AFNE01.JPG,2,7,27,5,,,,,,,,,,,,,,,,,,,,,,,AFSA04.jpg,AFNE12.jpg,AFNE20.jpg,AFSA07.jpg,AFNE20.jpg,FN,3,num_2,32,num_8,1.28343231371,,,2017_Feb_07_1410,59.9945735997,FEMA4ImagesEEG,001,00003,
AFNE01.JPG,AFNE01.JPG,AFNE01.JPG,AFNE01.JPG,AFNE01.JPG,AFNE01.JPG,2,8,28,1,,,,,,,,,,,,,,,,,,,,,,,AFNE18.jpg,AFSA02.jpg,AFSA09.jpg,AFNE20.jpg,AFSA02.jpg,FS,4,num_6,32,num_8,1.70008422644,,,2017_Feb_07_1410,59.9945735997,FEMA4ImagesEEG,001,00003,
AFNE01.JPG,AFNE01.JPG,AFNE01.JPG,AFNE01.JPG,AFNE01.JPG,AFNE01.JPG,2,9,29,6,,,,,,,,,,,,,,,,,,,,,,,AFNE20.jpg,AFSA01.jpg,AFSA19.jpg,AFNE14.jpg,AFNE20.jpg,FN,3,num_8,32,num_4,1.25007184595,,,2017_Feb_07_1410,59.9945735997,FEMA4ImagesEEG,001,00003,
AFNE01.JPG,AFNE01.JPG,AFNE01.JPG,AFNE01.JPG,AFNE01.JPG,AFNE01.JPG,3,0,30,8,,,,,,,,,,,,,,,,,,,,,,,AFNE20.jpg,AFSA16.jpg,AFNE09.jpg,AFSA15.jpg,AFSA15.jpg,FS,4,num_4,16,num_4,1.08349338267,,,2017_Feb_07_1410,59.9945735997,FEMA4ImagesEEG,001,00003,
AFNE01.JPG,AFNE01.JPG,AFNE01.JPG,AFNE01.JPG,AFNE01.JPG,AFNE01.JPG,3,1,31,9,,,,,,,,,,,,,,,,,,,,,,,AFSA02.jpg,AFSA05.jpg,AFNE09.jpg,AFNE15.jpg,AFSA02.jpg,FS,4,num_8,16,num_8,0.950117583154,,,2017_Feb_07_1410,59.9945735997,FEMA4ImagesEEG,001,00003,
AFNE01.JPG,AFNE01.JPG,AFNE01.JPG,AFNE01.JPG,AFNE01.JPG,AFNE01.JPG,3,2,32,3,,,,,,,,,,,,,,,,,,,,,,,AFSA07.jpg,AFNE16.jpg,AFNE02.jpg,AFSA05.jpg,AFNE16.jpg,FN,3,num_6,32,num_2,2.50000705617,,,2017_Feb_07_1410,59.9945735997,FEMA4ImagesEEG,001,00003,
AFNE01.JPG,AFNE01.JPG,AFNE01.JPG,AFNE01.JPG,AFNE01.JPG,AFNE01.JPG,3,3,33,4,,,,,,,,,,,,,,,,,,,,,,,AFSA08.jpg,AFNE01.jpg,AFNE03.jpg,AFSA15.jpg,AFNE01.jpg,FN,3,num_6,16,num_6,1.6667016272,,,2017_Feb_07_1410,59.9945735997,FEMA4ImagesEEG,001,00003,
AFNE01.JPG,AFNE01.JPG,AFNE01.JPG,AFNE01.JPG,AFNE01.JPG,AFNE01.JPG,3,4,34,6,,,,,,,,,,,,,,,,,,,,,,,AFNE15.jpg,AFSA18.jpg,AFNE12.jpg,AFSA03.jpg,AFSA18.jpg,FS,4,num_6,32,num_4,3.34989762004,,,2017_Feb_07_1410,59.9945735997,FEMA4ImagesEEG,001,00003,
AFNE01.JPG,AFNE01.JPG,AFNE01.JPG,AFNE01.JPG,AFNE01.JPG,AFNE01.JPG,3,5,35,2,,,,,,,,,,,,,,,,,,,,,,,AFSA15.jpg,AFNE10.jpg,AFSA03.jpg,AFNE05.jpg,AFSA03.jpg,FS,4,num_2,32,num_8,1.01674357988,,,2017_Feb_07_1410,59.9945735997,FEMA4ImagesEEG,001,00003,
AFNE01.JPG,AFNE01.JPG,AFNE01.JPG,AFNE01.JPG,AFNE01.JPG,AFNE01.JPG,3,6,36,7,,,,,,,,,,,,,,,,,,,,,,,AFNE17.jpg,AFSA09.jpg,AFSA15.jpg,AFNE18.jpg,AFSA15.jpg,FS,4,num_2,16,num_2,3.26633752347,,,2017_Feb_07_1410,59.9945735997,FEMA4ImagesEEG,001,00003,
AFNE01.JPG,AFNE01.JPG,AFNE01.JPG,AFNE01.JPG,AFNE01.JPG,AFNE01.JPG,3,7,37,1,,,,,,,,,,,,,,,,,,,,,,,AFNE01.jpg,AFSA20.jpg,AFNE12.jpg,AFSA07.jpg,AFSA20.jpg,FS,4,num_6,32,num_8,1.43338202173,,,2017_Feb_07_1410,59.9945735997,FEMA4ImagesEEG,001,00003,
AFNE01.JPG,AFNE01.JPG,AFNE01.JPG,AFNE01.JPG,AFNE01.JPG,AFNE01.JPG,3,8,38,0,,,,,,,,,,,,,,,,,,,,,,,AFSA03.jpg,AFNE19.jpg,AFSA13.jpg,AFNE05.jpg,AFNE19.jpg,FN,3,num_6,32,num_2,1.26711692102,,,2017_Feb_07_1410,59.9945735997,FEMA4ImagesEEG,001,00003,
AFNE01.JPG,AFNE01.JPG,AFNE01.JPG,AFNE01.JPG,AFNE01.JPG,AFNE01.JPG,3,9,39,5,,,,,,,,,,,,,,,,,,,,,,,AFSA17.jpg,AFNE14.jpg,AFNE13.jpg,AFSA04.jpg,AFNE14.jpg,FN,3,num_6,32,num_2,1.00008692057,,,2017_Feb_07_1410,59.9945735997,FEMA4ImagesEEG,001,00003,
AFNE01.JPG,AFNE01.JPG,AFNE01.JPG,AFNE01.JPG,AFNE01.JPG,AFNE01.JPG,4,0,40,3,,,,,,,,,,,,,,,,,,,,,,,AFNE02.jpg,AFNE01.jpg,AFSA02.jpg,AFSA04.jpg,AFNE02.jpg,FN,3,num_8,16,num_8,0.833511343924,,,2017_Feb_07_1410,59.9945735997,FEMA4ImagesEEG,001,00003,
AFNE01.JPG,AFNE01.JPG,AFNE01.JPG,AFNE01.JPG,AFNE01.JPG,AFNE01.JPG,4,1,41,2,,,,,,,,,,,,,,,,,,,,,,,AFSA04.jpg,AFNE19.jpg,AFSA12.jpg,AFNE06.jpg,AFSA12.jpg,FS,4,num_2,32,num_4,1.61669219751,,,2017_Feb_07_1410,59.9945735997,FEMA4ImagesEEG,001,00003,
AFNE01.JPG,AFNE01.JPG,AFNE01.JPG,AFNE01.JPG,AFNE01.JPG,AFNE01.JPG,4,2,42,0,,,,,,,,,,,,,,,,,,,,,,,AFNE16.jpg,AFNE20.jpg,AFSA19.jpg,AFSA07.jpg,AFSA07.jpg,FS,4,num_4,16,num_4,0.916757436236,,,2017_Feb_07_1410,59.9945735997,FEMA4ImagesEEG,001,00003,
AFNE01.JPG,AFNE01.JPG,AFNE01.JPG,AFNE01.JPG,AFNE01.JPG,AFNE01.JPG,4,3,43,5,,,,,,,,,,,,,,,,,,,,,,,AFSA02.jpg,AFNE05.jpg,AFNE20.jpg,AFSA17.jpg,AFSA17.jpg,FS,4,num_4,32,num_8,1.30010853847,,,2017_Feb_07_1410,59.9945735997,FEMA4ImagesEEG,001,00003,
AFNE01.JPG,AFNE01.JPG,AFNE01.JPG,AFNE01.JPG,AFNE01.JPG,AFNE01.JPG,4,4,44,6,,,,,,,,,,,,,,,,,,,,,,,AFNE13.jpg,AFNE07.jpg,AFSA16.jpg,AFSA11.jpg,AFSA16.jpg,FS,4,num_2,16,num_2,1.23340331879,,,2017_Feb_07_1410,59.9945735997,FEMA4ImagesEEG,001,00003,
AFNE01.JPG,AFNE01.JPG,AFNE01.JPG,AFNE01.JPG,AFNE01.JPG,AFNE01.JPG,4,5,45,8,,,,,,,,,,,,,,,,,,,,,,,AFSA14.jpg,AFNE13.jpg,AFSA16.jpg,AFNE04.jpg,AFNE04.jpg,FN,3,num_4,32,num_8,1.08344463003,,,2017_Feb_07_1410,59.9945735997,FEMA4ImagesEEG,001,00003,
AFNE01.JPG,AFNE01.JPG,AFNE01.JPG,AFNE01.JPG,AFNE01.JPG,AFNE01.JPG,4,6,46,7,,,,,,,,,,,,,,,,,,,,,,,AFSA10.jpg,AFNE01.jpg,AFSA12.jpg,AFNE15.jpg,AFNE01.jpg,FN,3,num_6,32,num_8,1.08341865032,,,2017_Feb_07_1410,59.9945735997,FEMA4ImagesEEG,001,00003,
AFNE01.JPG,AFNE01.JPG,AFNE01.JPG,AFNE01.JPG,AFNE01.JPG,AFNE01.JPG,4,7,47,4,,,,,,,,,,,,,,,,,,,,,,,AFNE17.jpg,AFSA10.jpg,AFSA11.jpg,AFNE18.jpg,AFSA11.jpg,FS,4,num_2,16,num_2,1.18345547095,,,2017_Feb_07_1410,59.9945735997,FEMA4ImagesEEG,001,00003,
AFNE01.JPG,AFNE01.JPG,AFNE01.JPG,AFNE01.JPG,AFNE01.JPG,AFNE01.JPG,4,8,48,1,,,,,,,,,,,,,,,,,,,,,,,AFNE12.jpg,AFSA19.jpg,AFNE19.jpg,AFSA18.jpg,AFSA19.jpg,FS,4,num_6,16,num_6,0.783447067486,,,2017_Feb_07_1410,59.9945735997,FEMA4ImagesEEG,001,00003,
AFNE01.JPG,AFNE01.JPG,AFNE01.JPG,AFNE01.JPG,AFNE01.JPG,AFNE01.JPG,4,9,49,9,,,,,,,,,,,,,,,,,,,,,,,AFSA05.jpg,AFSA12.jpg,AFNE01.jpg,AFNE20.jpg,AFSA12.jpg,FS,4,num_6,32,num_8,3.28358049551,,,2017_Feb_07_1410,59.9945735997,FEMA4ImagesEEG,001,00003,
AFNE01.JPG,AFNE01.JPG,AFNE01.JPG,AFNE01.JPG,AFNE01.JPG,AFNE01.JPG,5,0,50,7,,,,,,,,,,,,,,,,,,,,,,,AFSA19.jpg,AFSA03.jpg,AFNE15.jpg,AFNE01.jpg,AFNE15.jpg,FN,3,num_2,32,num_6,2.68328868644,,,2017_Feb_07_1410,59.9945735997,FEMA4ImagesEEG,001,00003,
AFNE01.JPG,AFNE01.JPG,AFNE01.JPG,AFNE01.JPG,AFNE01.JPG,AFNE01.JPG,5,1,51,5,,,,,,,,,,,,,,,,,,,,,,,AFSA18.jpg,AFNE02.jpg,AFNE19.jpg,AFSA20.jpg,AFSA18.jpg,FS,4,num_8,32,num_4,1.36680958816,,,2017_Feb_07_1410,59.9945735997,FEMA4ImagesEEG,001,00003,
AFNE01.JPG,AFNE01.JPG,AFNE01.JPG,AFNE01.JPG,AFNE01.JPG,AFNE01.JPG,5,2,52,8,,,,,,,,,,,,,,,,,,,,,,,AFNE07.jpg,AFNE11.jpg,AFSA07.jpg,AFSA01.jpg,AFSA01.jpg,FS,4,num_4,16,num_4,1.23349152226,,,2017_Feb_07_1410,59.9945735997,FEMA4ImagesEEG,001,00003,
AFNE01.JPG,AFNE01.JPG,AFNE01.JPG,AFNE01.JPG,AFNE01.JPG,AFNE01.JPG,5,3,53,1,,,,,,,,,,,,,,,,,,,,,,,AFNE10.jpg,AFSA12.jpg,AFNE07.jpg,AFSA11.jpg,AFNE07.jpg,FN,3,num_2,32,num_6,1.25011418341,,,2017_Feb_07_1410,59.9945735997,FEMA4ImagesEEG,001,00003,
AFNE01.JPG,AFNE01.JPG,AFNE01.JPG,AFNE01.JPG,AFNE01.JPG,AFNE01.JPG,5,4,54,9,,,,,,,,,,,,,,,,,,,,,,,AFNE14.jpg,AFSA11.jpg,AFNE10.jpg,AFSA13.jpg,AFSA13.jpg,FS,4,num_4,32,num_8,1.05009314278,,,2017_Feb_07_1410,59.9945735997,FEMA4ImagesEEG,001,00003,
AFNE01.JPG,AFNE01.JPG,AFNE01.JPG,AFNE01.JPG,AFNE01.JPG,AFNE01.JPG,5,5,55,3,,,,,,,,,,,,,,,,,,,,,,,AFNE09.jpg,AFSA03.jpg,AFSA16.jpg,AFNE08.jpg,AFSA03.jpg,FS,4,num_6,32,num_2,1.01668584696,,,2017_Feb_07_1410,59.9945735997,FEMA4ImagesEEG,001,00003,
AFNE01.JPG,AFNE01.JPG,AFNE01.JPG,AFNE01.JPG,AFNE01.JPG,AFNE01.JPG,5,6,56,4,,,,,,,,,,,,,,,,,,,,,,,AFSA14.jpg,AFNE04.jpg,AFSA01.jpg,AFNE07.jpg,AFSA14.jpg,FS,4,num_8,16,num_8,0.98355085915,,,2017_Feb_07_1410,59.9945735997,FEMA4ImagesEEG,001,00003,
AFNE01.JPG,AFNE01.JPG,AFNE01.JPG,AFNE01.JPG,AFNE01.JPG,AFNE01.JPG,5,7,57,6,,,,,,,,,,,,,,,,,,,,,,,AFNE09.jpg,AFSA04.jpg,AFSA02.jpg,AFNE05.jpg,AFNE05.jpg,FN,3,num_4,32,num_6,2.13333634823,,,2017_Feb_07_1410,59.9945735997,FEMA4ImagesEEG,001,00003,
AFNE01.JPG,AFNE01.JPG,AFNE01.JPG,AFNE01.JPG,AFNE01.JPG,AFNE01.JPG,5,8,58,0,,,,,,,,,,,,,,,,,,,,,,,AFNE13.jpg,AFSA02.jpg,AFSA09.jpg,AFNE06.jpg,AFNE13.jpg,FN,3,num_8,32,num_6,1.18345579179,,,2017_Feb_07_1410,59.9945735997,FEMA4ImagesEEG,001,00003,
AFNE01.JPG,AFNE01.JPG,AFNE01.JPG,AFNE01.JPG,AFNE01.JPG,AFNE01.JPG,5,9,59,2,,,,,,,,,,,,,,,,,,,,,,,AFSA13.jpg,AFNE14.jpg,AFSA20.jpg,AFNE19.jpg,AFSA20.jpg,FS,4,num_2,32,num_8,1.45035845879,,,2017_Feb_07_1410,59.9945735997,FEMA4ImagesEEG,001,00003,
,,,,,,,,,,,,,,,,,,,,,,,,,,,,,,,,,,,,,,,,,,,space,53.9626838481,2017_Feb_07_1410,59.9945735997,FEMA4ImagesEEG,001,00003,
AFNE01.JPG,AFNE01.JPG,AFNE01.JPG,AFNE01.JPG,AFNE01.JPG,AFNE01.JPG,,,,,0,0,0,2,,,,,,,,,,,,,,,,,,,AMSA05.jpg,AMNE13.jpg,AMSA02.jpg,AMNE18.jpg,AMNE13.jpg,MN,1,num_6,32,num_8,0.983441166114,,,2017_Feb_07_1410,59.9945735997,FEMA4ImagesEEG,001,00003,
AFNE01.JPG,AFNE01.JPG,AFNE01.JPG,AFNE01.JPG,AFNE01.JPG,AFNE01.JPG,,,,,0,1,1,5,,,,,,,,,,,,,,,,,,,AMNE20.jpg,AMSA03.jpg,AMSA06.jpg,AMNE09.jpg,AMNE09.jpg,MN,1,num_4,32,num_6,1.71658628923,,,2017_Feb_07_1410,59.9945735997,FEMA4ImagesEEG,001,00003,
AFNE01.JPG,AFNE01.JPG,AFNE01.JPG,AFNE01.JPG,AFNE01.JPG,AFNE01.JPG,,,,,0,2,2,4,,,,,,,,,,,,,,,,,,,AMNE08.jpg,AMSA09.jpg,AMSA06.jpg,AMNE19.jpg,AMSA09.jpg,MS,2,num_6,32,num_8,1.3834136466,,,2017_Feb_07_1410,59.9945735997,FEMA4ImagesEEG,001,00003,
AFNE01.JPG,AFNE01.JPG,AFNE01.JPG,AFNE01.JPG,AFNE01.JPG,AFNE01.JPG,,,,,0,3,3,8,,,,,,,,,,,,,,,,,,,AMNE17.jpg,AMSA12.jpg,AMSA16.jpg,AMNE14.jpg,AMNE14.jpg,MN,1,num_4,16,num_4,1.34975713585,,,2017_Feb_07_1410,59.9945735997,FEMA4ImagesEEG,001,00003,
AFNE01.JPG,AFNE01.JPG,AFNE01.JPG,AFNE01.JPG,AFNE01.JPG,AFNE01.JPG,,,,,0,4,4,9,,,,,,,,,,,,,,,,,,,AMNE20.jpg,AMSA15.jpg,AMNE09.jpg,AMSA17.jpg,AMNE09.jpg,MN,1,num_2,32,num_6,1.35007691337,,,2017_Feb_07_1410,59.9945735997,FEMA4ImagesEEG,001,00003,
AFNE01.JPG,AFNE01.JPG,AFNE01.JPG,AFNE01.JPG,AFNE01.JPG,AFNE01.JPG,,,,,0,5,5,7,,,,,,,,,,,,,,,,,,,AMNE10.jpg,AMSA20.jpg,AMNE20.jpg,AMSA06.jpg,AMNE10.jpg,MN,1,num_8,16,num_8,1.05016755452,,,2017_Feb_07_1410,59.9945735997,FEMA4ImagesEEG,001,00003,
AFNE01.JPG,AFNE01.JPG,AFNE01.JPG,AFNE01.JPG,AFNE01.JPG,AFNE01.JPG,,,,,0,6,6,6,,,,,,,,,,,,,,,,,,,AMNE16.jpg,AMSA16.jpg,AMNE13.jpg,AMSA13.jpg,AMSA13.jpg,MS,2,num_4,32,num_2,1.55027756817,,,2017_Feb_07_1410,59.9945735997,FEMA4ImagesEEG,001,00003,
AFNE01.JPG,AFNE01.JPG,AFNE01.JPG,AFNE01.JPG,AFNE01.JPG,AFNE01.JPG,,,,,0,7,7,1,,,,,,,,,,,,,,,,,,,AMSA11.jpg,AMNE14.jpg,AMSA13.jpg,AMNE05.jpg,AMNE05.jpg,MN,1,num_4,16,num_4,0.900143114151,,,2017_Feb_07_1410,59.9945735997,FEMA4ImagesEEG,001,00003,
AFNE01.JPG,AFNE01.JPG,AFNE01.JPG,AFNE01.JPG,AFNE01.JPG,AFNE01.JPG,,,,,0,8,8,3,,,,,,,,,,,,,,,,,,,AMSA06.jpg,AMNE08.jpg,AMSA12.jpg,AMNE20.jpg,AMNE20.jpg,MN,1,num_4,16,num_4,1.23354925541,,,2017_Feb_07_1410,59.9945735997,FEMA4ImagesEEG,001,00003,
AFNE01.JPG,AFNE01.JPG,AFNE01.JPG,AFNE01.JPG,AFNE01.JPG,AFNE01.JPG,,,,,0,9,9,0,,,,,,,,,,,,,,,,,,,AMSA14.jpg,AMNE14.jpg,AMSA16.jpg,AMNE06.jpg,AMSA16.jpg,MS,2,num_2,16,num_2,1.53335309098,,,2017_Feb_07_1410,59.9945735997,FEMA4ImagesEEG,001,00003,
AFNE01.JPG,AFNE01.JPG,AFNE01.JPG,AFNE01.JPG,AFNE01.JPG,AFNE01.JPG,,,,,1,0,10,5,,,,,,,,,,,,,,,,,,,AMNE12.jpg,AMSA13.jpg,AMSA06.jpg,AMNE15.jpg,AMNE12.jpg,MN,1,num_8,16,num_8,1.23344982602,,,2017_Feb_07_1410,59.9945735997,FEMA4ImagesEEG,001,00003,
AFNE01.JPG,AFNE01.JPG,AFNE01.JPG,AFNE01.JPG,AFNE01.JPG,AFNE01.JPG,,,,,1,1,11,0,,,,,,,,,,,,,,,,,,,AMNE17.jpg,AMSA11.jpg,AMNE02.jpg,AMSA03.jpg,AMNE02.jpg,MN,1,num_2,16,num_2,1.23344822228,,,2017_Feb_07_1410,59.9945735997,FEMA4ImagesEEG,001,00003,
AFNE01.JPG,AFNE01.JPG,AFNE01.JPG,AFNE01.JPG,AFNE01.JPG,AFNE01.JPG,,,,,1,2,12,3,,,,,,,,,,,,,,,,,,,AMNE19.jpg,AMNE09.jpg,AMSA02.jpg,AMSA11.jpg,AMSA02.jpg,MS,2,num_2,16,num_2,1.06676551863,,,2017_Feb_07_1410,59.9945735997,FEMA4ImagesEEG,001,00003,
AFNE01.JPG,AFNE01.JPG,AFNE01.JPG,AFNE01.JPG,AFNE01.JPG,AFNE01.JPG,,,,,1,3,13,1,,,,,,,,,,,,,,,,,,,AMNE10.jpg,AMSA08.jpg,AMNE13.jpg,AMSA13.jpg,AMNE10.jpg,MN,1,num_8,16,num_8,1.21671137796,,,2017_Feb_07_1410,59.9945735997,FEMA4ImagesEEG,001,00003,
AFNE01.JPG,AFNE01.JPG,AFNE01.JPG,AFNE01.JPG,AFNE01.JPG,AFNE01.JPG,,,,,1,4,14,6,,,,,,,,,,,,,,,,,,,AMSA17.jpg,AMSA05.jpg,AMNE05.jpg,AMNE10.jpg,AMNE05.jpg,MN,1,num_2,16,num_2,1.05023106094,,,2017_Feb_07_1410,59.9945735997,FEMA4ImagesEEG,001,00003,
AFNE01.JPG,AFNE01.JPG,AFNE01.JPG,AFNE01.JPG,AFNE01.JPG,AFNE01.JPG,,,,,1,5,15,7,,,,,,,,,,,,,,,,,,,AMSA08.jpg,AMSA07.jpg,AMNE09.jpg,AMNE08.jpg,AMNE08.jpg,MN,1,num_4,32,num_6,0.850098402938,,,2017_Feb_07_1410,59.9945735997,FEMA4ImagesEEG,001,00003,
AFNE01.JPG,AFNE01.JPG,AFNE01.JPG,AFNE01.JPG,AFNE01.JPG,AFNE01.JPG,,,,,1,6,16,2,,,,,,,,,,,,,,,,,,,AMSA05.jpg,AMSA07.jpg,AMNE10.jpg,AMNE15.jpg,AMSA05.jpg,MS,2,num_8,32,num_4,1.10008396953,,,2017_Feb_07_1410,59.9945735997,FEMA4ImagesEEG,001,00003,
AFNE01.JPG,AFNE01.JPG,AFNE01.JPG,AFNE01.JPG,AFNE01.JPG,AFNE01.JPG,,,,,1,7,17,9,,,,,,,,,,,,,,,,,,,AMNE05.jpg,AMNE07.jpg,AMSA03.jpg,AMSA06.jpg,AMSA03.jpg,MS,2,num_2,16,num_2,1.41673787078,,,2017_Feb_07_1410,59.9945735997,FEMA4ImagesEEG,001,00003,
AFNE01.JPG,AFNE01.JPG,AFNE01.JPG,AFNE01.JPG,AFNE01.JPG,AFNE01.JPG,,,,,1,8,18,8,,,,,,,,,,,,,,,,,,,AMNE19.jpg,AMSA11.jpg,AMSA16.jpg,AMNE11.jpg,AMNE19.jpg,MN,1,num_8,16,num_8,0.800100840395,,,2017_Feb_07_1410,59.9945735997,FEMA4ImagesEEG,001,00003,
AFNE01.JPG,AFNE01.JPG,AFNE01.JPG,AFNE01.JPG,AFNE01.JPG,AFNE01.JPG,,,,,1,9,19,4,,,,,,,,,,,,,,,,,,,AMSA02.jpg,AMNE20.jpg,AMSA18.jpg,AMNE03.jpg,AMNE20.jpg,MN,1,num_6,16,num_6,1.01682793465,,,2017_Feb_07_1410,59.9945735997,FEMA4ImagesEEG,001,00003,
AFNE01.JPG,AFNE01.JPG,AFNE01.JPG,AFNE01.JPG,AFNE01.JPG,AFNE01.JPG,,,,,2,0,20,6,,,,,,,,,,,,,,,,,,,AMNE18.jpg,AMSA11.jpg,AMNE13.jpg,AMSA18.jpg,AMSA18.jpg,MS,2,num_4,32,num_8,2.31676648092,,,2017_Feb_07_1410,59.9945735997,FEMA4ImagesEEG,001,00003,
AFNE01.JPG,AFNE01.JPG,AFNE01.JPG,AFNE01.JPG,AFNE01.JPG,AFNE01.JPG,,,,,2,1,21,4,,,,,,,,,,,,,,,,,,,AMNE08.jpg,AMSA06.jpg,AMNE11.jpg,AMSA09.jpg,AMSA09.jpg,MS,2,num_4,16,num_4,0.866776231444,,,2017_Feb_07_1410,59.9945735997,FEMA4ImagesEEG,001,00003,
AFNE01.JPG,AFNE01.JPG,AFNE01.JPG,AFNE01.JPG,AFNE01.JPG,AFNE01.JPG,,,,,2,2,22,1,,,,,,,,,,,,,,,,,,,AMSA16.jpg,AMSA05.jpg,AMNE16.jpg,AMNE02.jpg,AMNE16.jpg,MN,1,num_2,16,num_2,1.41671092878,,,2017_Feb_07_1410,59.9945735997,FEMA4ImagesEEG,001,00003,
AFNE01.JPG,AFNE01.JPG,AFNE01.JPG,AFNE01.JPG,AFNE01.JPG,AFNE01.JPG,,,,,2,3,23,0,,,,,,,,,,,,,,,,,,,AMSA11.jpg,AMSA08.jpg,AMNE16.jpg,AMNE10.jpg,AMSA11.jpg,MS,2,num_8,32,num_4,1.13345181453,,,2017_Feb_07_1410,59.9945735997,FEMA4ImagesEEG,001,00003,
AFNE01.JPG,AFNE01.JPG,AFNE01.JPG,AFNE01.JPG,AFNE01.JPG,AFNE01.JPG,,,,,2,4,24,3,,,,,,,,,,,,,,,,,,,AMNE01.jpg,AMNE06.jpg,AMSA12.jpg,AMSA18.jpg,AMNE01.jpg,MN,1,num_8,32,num_6,1.2167402443,,,2017_Feb_07_1410,59.9945735997,FEMA4ImagesEEG,001,00003,
AFNE01.JPG,AFNE01.JPG,AFNE01.JPG,AFNE01.JPG,AFNE01.JPG,AFNE01.JPG,,,,,2,5,25,9,,,,,,,,,,,,,,,,,,,AMSA08.jpg,AMNE11.jpg,AMSA05.jpg,AMNE08.jpg,AMNE08.jpg,MN,1,num_4,32,num_8,1.21673575393,,,2017_Feb_07_1410,59.9945735997,FEMA4ImagesEEG,001,00003,
AFNE01.JPG,AFNE01.JPG,AFNE01.JPG,AFNE01.JPG,AFNE01.JPG,AFNE01.JPG,,,,,2,6,26,7,,,,,,,,,,,,,,,,,,,AMSA10.jpg,AMSA04.jpg,AMNE15.jpg,AMNE09.jpg,AMNE09.jpg,MN,1,num_4,32,num_8,1.15006485372,,,2017_Feb_07_1410,59.9945735997,FEMA4ImagesEEG,001,00003,
AFNE01.JPG,AFNE01.JPG,AFNE01.JPG,AFNE01.JPG,AFNE01.JPG,AFNE01.JPG,,,,,2,7,27,5,,,,,,,,,,,,,,,,,,,AMNE17.jpg,AMNE07.jpg,AMSA12.jpg,AMSA07.jpg,AMSA07.jpg,MS,2,num_4,16,num_4,1.3334221784,,,2017_Feb_07_1410,59.9945735997,FEMA4ImagesEEG,001,00003,
AFNE01.JPG,AFNE01.JPG,AFNE01.JPG,AFNE01.JPG,AFNE01.JPG,AFNE01.JPG,,,,,2,8,28,2,,,,,,,,,,,,,,,,,,,AMSA03.jpg,AMNE10.jpg,AMNE07.jpg,AMSA13.jpg,AMSA13.jpg,MS,2,num_4,32,num_2,2.38337419578,,,2017_Feb_07_1410,59.9945735997,FEMA4ImagesEEG,001,00003,
AFNE01.JPG,AFNE01.JPG,AFNE01.JPG,AFNE01.JPG,AFNE01.JPG,AFNE01.JPG,,,,,2,9,29,8,,,,,,,,,,,,,,,,,,,AMSA02.jpg,AMNE16.jpg,AMNE17.jpg,AMSA18.jpg,AMNE16.jpg,MN,1,num_6,16,num_6,1.46682973066,,,2017_Feb_07_1410,59.9945735997,FEMA4ImagesEEG,001,00003,
AFNE01.JPG,AFNE01.JPG,AFNE01.JPG,AFNE01.JPG,AFNE01.JPG,AFNE01.JPG,,,,,3,0,30,5,,,,,,,,,,,,,,,,,,,AMNE18.jpg,AMSA05.jpg,AMNE12.jpg,AMSA03.jpg,AMSA05.jpg,MS,2,num_6,16,num_6,1.10015741922,,,2017_Feb_07_1410,59.9945735997,FEMA4ImagesEEG,001,00003,
AFNE01.JPG,AFNE01.JPG,AFNE01.JPG,AFNE01.JPG,AFNE01.JPG,AFNE01.JPG,,,,,3,1,31,6,,,,,,,,,,,,,,,,,,,AMNE10.jpg,AMSA19.jpg,AMNE19.jpg,AMSA15.jpg,AMNE19.jpg,MN,1,num_2,16,num_2,3.18328419584,,,2017_Feb_07_1410,59.9945735997,FEMA4ImagesEEG,001,00003,
AFNE01.JPG,AFNE01.JPG,AFNE01.JPG,AFNE01.JPG,AFNE01.JPG,AFNE01.JPG,,,,,3,2,32,3,,,,,,,,,,,,,,,,,,,AMNE02.jpg,AMSA16.jpg,AMNE05.jpg,AMSA18.jpg,AMSA16.jpg,MS,2,num_6,32,num_2,1.15010173852,,,2017_Feb_07_1410,59.9945735997,FEMA4ImagesEEG,001,00003,
AFNE01.JPG,AFNE01.JPG,AFNE01.JPG,AFNE01.JPG,AFNE01.JPG,AFNE01.JPG,,,,,3,3,33,8,,,,,,,,,,,,,,,,,,,AMNE15.jpg,AMNE14.jpg,AMSA08.jpg,AMSA02.jpg,AMNE15.jpg,MN,1,num_8,16,num_8,0.833446554607,,,2017_Feb_07_1410,59.9945735997,FEMA4ImagesEEG,001,00003,
AFNE01.JPG,AFNE01.JPG,AFNE01.JPG,AFNE01.JPG,AFNE01.JPG,AFNE01.JPG,,,,,3,4,34,2,,,,,,,,,,,,,,,,,,,AMNE08.jpg,AMNE12.jpg,AMSA18.jpg,AMSA07.jpg,AMSA07.jpg,MS,2,num_4,32,num_8,1.35004131147,,,2017_Feb_07_1410,59.9945735997,FEMA4ImagesEEG,001,00003,
AFNE01.JPG,AFNE01.JPG,AFNE01.JPG,AFNE01.JPG,AFNE01.JPG,AFNE01.JPG,,,,,3,5,35,1,,,,,,,,,,,,,,,,,,,AMNE20.jpg,AMSA18.jpg,AMSA13.jpg,AMNE07.jpg,AMNE20.jpg,MN,1,num_8,16,num_8,1.61674704403,,,2017_Feb_07_1410,59.9945735997,FEMA4ImagesEEG,001,00003,
AFNE01.JPG,AFNE01.JPG,AFNE01.JPG,AFNE01.JPG,AFNE01.JPG,AFNE01.JPG,,,,,3,6,36,9,,,,,,,,,,,,,,,,,,,AMNE11.jpg,AMSA05.jpg,AMNE09.jpg,AMSA20.jpg,AMSA20.jpg,MS,2,num_4,32,num_2,1.31673953892,,,2017_Feb_07_1410,59.9945735997,FEMA4ImagesEEG,001,00003,
AFNE01.JPG,AFNE01.JPG,AFNE01.JPG,AFNE01.JPG,AFNE01.JPG,AFNE01.JPG,,,,,3,7,37,4,,,,,,,,,,,,,,,,,,,AMNE11.jpg,AMSA03.jpg,AMNE16.jpg,AMSA12.jpg,AMSA12.jpg,MS,2,num_4,32,num_8,1.1667587189,,,2017_Feb_07_1410,59.9945735997,FEMA4ImagesEEG,001,00003,
AFNE01.JPG,AFNE01.JPG,AFNE01.JPG,AFNE01.JPG,AFNE01.JPG,AFNE01.JPG,,,,,3,8,38,0,,,,,,,,,,,,,,,,,,,AMNE04.jpg,AMSA15.jpg,AMNE08.jpg,AMSA12.jpg,AMNE04.jpg,MN,1,num_8,32,num_2,1.91671638144,,,2017_Feb_07_1410,59.9945735997,FEMA4ImagesEEG,001,00003,
AFNE01.JPG,AFNE01.JPG,AFNE01.JPG,AFNE01.JPG,AFNE01.JPG,AFNE01.JPG,,,,,3,9,39,7,,,,,,,,,,,,,,,,,,,AMSA06.jpg,AMNE18.jpg,AMNE03.jpg,AMSA08.jpg,AMSA06.jpg,MS,2,num_8,16,num_8,1.21705392795,,,2017_Feb_07_1410,59.9945735997,FEMA4ImagesEEG,001,00003,
AFNE01.JPG,AFNE01.JPG,AFNE01.JPG,AFNE01.JPG,AFNE01.JPG,AFNE01.JPG,,,,,4,0,40,7,,,,,,,,,,,,,,,,,,,AMNE11.jpg,AMNE20.jpg,AMSA13.jpg,AMSA12.jpg,AMNE20.jpg,MN,1,num_6,32,num_8,1.21676173387,,,2017_Feb_07_1410,59.9945735997,FEMA4ImagesEEG,001,00003,
AFNE01.JPG,AFNE01.JPG,AFNE01.JPG,AFNE01.JPG,AFNE01.JPG,AFNE01.JPG,,,,,4,1,41,2,,,,,,,,,,,,,,,,,,,AMSA15.jpg,AMNE02.jpg,AMSA13.jpg,AMNE15.jpg,AMNE02.jpg,MN,1,num_6,16,num_6,1.05010148208,,,2017_Feb_07_1410,59.9945735997,FEMA4ImagesEEG,001,00003,
AFNE01.JPG,AFNE01.JPG,AFNE01.JPG,AFNE01.JPG,AFNE01.JPG,AFNE01.JPG,,,,,4,2,42,9,,,,,,,,,,,,,,,,,,,AMNE03.jpg,AMSA05.jpg,AMNE04.jpg,AMSA02.jpg,AMSA02.jpg,MS,2,num_4,16,num_4,0.916840507649,,,2017_Feb_07_1410,59.9945735997,FEMA4ImagesEEG,001,00003,
AFNE01.JPG,AFNE01.JPG,AFNE01.JPG,AFNE01.JPG,AFNE01.JPG,AFNE01.JPG,,,,,4,3,43,0,,,,,,,,,,,,,,,,,,,AMSA03.jpg,AMSA04.jpg,AMNE06.jpg,AMNE08.jpg,AMNE06.jpg,MN,1,num_2,32,num_6,3.81654581171,,,2017_Feb_07_1410,59.9945735997,FEMA4ImagesEEG,001,00003,
AFNE01.JPG,AFNE01.JPG,AFNE01.JPG,AFNE01.JPG,AFNE01.JPG,AFNE01.JPG,,,,,4,4,44,5,,,,,,,,,,,,,,,,,,,AMNE02.jpg,AMNE20.jpg,AMSA10.jpg,AMSA09.jpg,AMNE20.jpg,MN,1,num_6,16,num_6,0.633560224669,,,2017_Feb_07_1410,59.9945735997,FEMA4ImagesEEG,001,00003,
AFNE01.JPG,AFNE01.JPG,AFNE01.JPG,AFNE01.JPG,AFNE01.JPG,AFNE01.JPG,,,,,4,5,45,8,,,,,,,,,,,,,,,,,,,AMSA04.jpg,AMNE14.jpg,AMSA09.jpg,AMNE12.jpg,AMNE14.jpg,MN,1,num_6,32,num_8,1.51672337367,,,2017_Feb_07_1410,59.9945735997,FEMA4ImagesEEG,001,00003,
AFNE01.JPG,AFNE01.JPG,AFNE01.JPG,AFNE01.JPG,AFNE01.JPG,AFNE01.JPG,,,,,4,6,46,3,,,,,,,,,,,,,,,,,,,AMSA02.jpg,AMSA19.jpg,AMNE10.jpg,AMNE20.jpg,AMSA19.jpg,MS,2,num_6,32,num_4,0.950168580748,,,2017_Feb_07_1410,59.9945735997,FEMA4ImagesEEG,001,00003,
AFNE01.JPG,AFNE01.JPG,AFNE01.JPG,AFNE01.JPG,AFNE01.JPG,AFNE01.JPG,,,,,4,7,47,4,,,,,,,,,,,,,,,,,,,AMNE13.jpg,AMSA09.jpg,AMSA19.jpg,AMNE03.jpg,AMNE13.jpg,MN,1,num_8,16,num_8,0.899968952406,,,2017_Feb_07_1410,59.9945735997,FEMA4ImagesEEG,001,00003,
AFNE01.JPG,AFNE01.JPG,AFNE01.JPG,AFNE01.JPG,AFNE01.JPG,AFNE01.JPG,,,,,4,8,48,6,,,,,,,,,,,,,,,,,,,AMNE03.jpg,AMSA06.jpg,AMNE14.jpg,AMSA13.jpg,AMSA13.jpg,MS,2,num_4,16,num_4,1.2500827508,,,2017_Feb_07_1410,59.9945735997,FEMA4ImagesEEG,001,00003,
AFNE01.JPG,AFNE01.JPG,AFNE01.JPG,AFNE01.JPG,AFNE01.JPG,AFNE01.JPG,,,,,4,9,49,1,,,,,,,,,,,,,,,,,,,AMSA13.jpg,AMNE02.jpg,AMNE12.jpg,AMSA08.jpg,AMSA08.jpg,MS,2,num_4,16,num_4,1.40006774012,,,2017_Feb_07_1410,59.9945735997,FEMA4ImagesEEG,001,00003,
AFNE01.JPG,AFNE01.JPG,AFNE01.JPG,AFNE01.JPG,AFNE01.JPG,AFNE01.JPG,,,,,5,0,50,4,,,,,,,,,,,,,,,,,,,AMSA15.jpg,AMNE15.jpg,AMNE01.jpg,AMSA05.jpg,AMNE01.jpg,MN,1,num_2,16,num_2,1.70005022781,,,2017_Feb_07_1410,59.9945735997,FEMA4ImagesEEG,001,00003,
AFNE01.JPG,AFNE01.JPG,AFNE01.JPG,AFNE01.JPG,AFNE01.JPG,AFNE01.JPG,,,,,5,1,51,5,,,,,,,,,,,,,,,,,,,AMSA19.jpg,AMNE19.jpg,AMNE09.jpg,AMSA09.jpg,AMNE09.jpg,MN,1,num_2,32,num_4,1.98335841531,,,2017_Feb_07_1410,59.9945735997,FEMA4ImagesEEG,001,00003,
AFNE01.JPG,AFNE01.JPG,AFNE01.JPG,AFNE01.JPG,AFNE01.JPG,AFNE01.JPG,,,,,5,2,52,0,,,,,,,,,,,,,,,,,,,AMNE16.jpg,AMSA15.jpg,AMNE20.jpg,AMSA08.jpg,AMSA08.jpg,MS,2,num_4,32,num_6,0.85014491016,,,2017_Feb_07_1410,59.9945735997,FEMA4ImagesEEG,001,00003,
AFNE01.JPG,AFNE01.JPG,AFNE01.JPG,AFNE01.JPG,AFNE01.JPG,AFNE01.JPG,,,,,5,3,53,3,,,,,,,,,,,,,,,,,,,AMSA13.jpg,AMNE09.jpg,AMNE03.jpg,AMSA09.jpg,AMNE09.jpg,MN,1,num_6,32,num_4,1.28340633377,,,2017_Feb_07_1410,59.9945735997,FEMA4ImagesEEG,001,00003,
AFNE01.JPG,AFNE01.JPG,AFNE01.JPG,AFNE01.JPG,AFNE01.JPG,AFNE01.JPG,,,,,5,4,54,6,,,,,,,,,,,,,,,,,,,AMSA03.jpg,AMNE01.jpg,AMNE11.jpg,AMSA13.jpg,AMSA03.jpg,MS,2,num_8,32,num_2,1.76670637424,,,2017_Feb_07_1410,59.9945735997,FEMA4ImagesEEG,001,00003,
AFNE01.JPG,AFNE01.JPG,AFNE01.JPG,AFNE01.JPG,AFNE01.JPG,AFNE01.JPG,,,,,5,5,55,1,,,,,,,,,,,,,,,,,,,AMSA11.jpg,AMNE13.jpg,AMNE17.jpg,AMSA15.jpg,AMSA15.jpg,MS,2,num_4,32,num_8,0.933438792592,,,2017_Feb_07_1410,59.9945735997,FEMA4ImagesEEG,001,00003,
AFNE01.JPG,AFNE01.JPG,AFNE01.JPG,AFNE01.JPG,AFNE01.JPG,AFNE01.JPG,,,,,5,6,56,9,,,,,,,,,,,,,,,,,,,AMSA02.jpg,AMNE12.jpg,AMSA05.jpg,AMNE16.jpg,AMNE16.jpg,MN,1,num_4,32,num_6,1.58340934874,,,2017_Feb_07_1410,59.9945735997,FEMA4ImagesEEG,001,00003,
AFNE01.JPG,AFNE01.JPG,AFNE01.JPG,AFNE01.JPG,AFNE01.JPG,AFNE01.JPG,,,,,5,7,57,8,,,,,,,,,,,,,,,,,,,AMNE10.jpg,AMSA01.jpg,AMNE18.jpg,AMSA07.jpg,AMSA01.jpg,MS,2,num_6,16,num_6,0.88349479367,,,2017_Feb_07_1410,59.9945735997,FEMA4ImagesEEG,001,00003,
AFNE01.JPG,AFNE01.JPG,AFNE01.JPG,AFNE01.JPG,AFNE01.JPG,AFNE01.JPG,,,,,5,8,58,7,,,,,,,,,,,,,,,,,,,AMNE10.jpg,AMNE07.jpg,AMSA19.jpg,AMSA15.jpg,AMNE10.jpg,MN,1,num_8,32,num_6,1.39990063477,,,2017_Feb_07_1410,59.9945735997,FEMA4ImagesEEG,001,00003,
AFNE01.JPG,AFNE01.JPG,AFNE01.JPG,AFNE01.JPG,AFNE01.JPG,AFNE01.JPG,,,,,5,9,59,2,,,,,,,,,,,,,,,,,,,AMSA03.jpg,AMNE05.jpg,AMNE04.jpg,AMSA04.jpg,AMNE05.jpg,MN,1,num_6,16,num_6,0.516821840545,,,2017_Feb_07_1410,59.9945735997,FEMA4ImagesEEG,001,00003,
,,,,,,,,,,,,,,,,,,,,,,,,,,,,,,,,,,,,,,,,,,,space,24.6485576972,2017_Feb_07_1410,59.9945735997,FEMA4ImagesEEG,001,00003,
AFNE01.JPG,AFNE01.JPG,AFNE01.JPG,AFNE01.JPG,AFNE01.JPG,AFNE01.JPG,,,,,,,,,0,0,0,5,,,,,,,,,,,,,,,AFSA04.jpg,AFSA10.jpg,AFNE17.jpg,AFNE07.jpg,AFSA10.jpg,FS,4,num_6,32,num_8,1.18345258432,,,2017_Feb_07_1410,59.9945735997,FEMA4ImagesEEG,001,00003,
AFNE01.JPG,AFNE01.JPG,AFNE01.JPG,AFNE01.JPG,AFNE01.JPG,AFNE01.JPG,,,,,,,,,0,1,1,8,,,,,,,,,,,,,,,AFNE02.jpg,AFSA13.jpg,AFSA16.jpg,AFNE01.jpg,AFSA13.jpg,FS,4,num_6,32,num_4,1.36670791381,,,2017_Feb_07_1410,59.9945735997,FEMA4ImagesEEG,001,00003,
AFNE01.JPG,AFNE01.JPG,AFNE01.JPG,AFNE01.JPG,AFNE01.JPG,AFNE01.JPG,,,,,,,,,0,2,2,3,,,,,,,,,,,,,,,AFNE02.jpg,AFNE07.jpg,AFSA05.jpg,AFSA17.jpg,AFNE02.jpg,FN,3,num_8,32,num_4,2.28304582206,,,2017_Feb_07_1410,59.9945735997,FEMA4ImagesEEG,001,00003,
AFNE01.JPG,AFNE01.JPG,AFNE01.JPG,AFNE01.JPG,AFNE01.JPG,AFNE01.JPG,,,,,,,,,0,3,3,2,,,,,,,,,,,,,,,AFSA17.jpg,AFNE05.jpg,AFSA15.jpg,AFNE16.jpg,AFNE16.jpg,FN,3,num_4,32,num_6,1.86668546195,,,2017_Feb_07_1410,59.9945735997,FEMA4ImagesEEG,001,00003,
AFNE01.JPG,AFNE01.JPG,AFNE01.JPG,AFNE01.JPG,AFNE01.JPG,AFNE01.JPG,,,,,,,,,0,4,4,7,,,,,,,,,,,,,,,AFNE09.jpg,AFNE06.jpg,AFSA18.jpg,AFSA07.jpg,AFNE06.jpg,FN,3,num_6,32,num_4,1.9500341909,,,2017_Feb_07_1410,59.9945735997,FEMA4ImagesEEG,001,00003,
AFNE01.JPG,AFNE01.JPG,AFNE01.JPG,AFNE01.JPG,AFNE01.JPG,AFNE01.JPG,,,,,,,,,0,5,5,4,,,,,,,,,,,,,,,AFNE09.jpg,AFSA09.jpg,AFSA17.jpg,AFNE05.jpg,AFSA17.jpg,FS,4,num_2,16,num_2,1.16674556863,,,2017_Feb_07_1410,59.9945735997,FEMA4ImagesEEG,001,00003,
AFNE01.JPG,AFNE01.JPG,AFNE01.JPG,AFNE01.JPG,AFNE01.JPG,AFNE01.JPG,,,,,,,,,0,6,6,0,,,,,,,,,,,,,,,AFSA04.jpg,AFNE14.jpg,AFSA05.jpg,AFNE03.jpg,AFSA05.jpg,FS,4,num_2,32,num_8,1.86669027316,,,2017_Feb_07_1410,59.9945735997,FEMA4ImagesEEG,001,00003,
AFNE01.JPG,AFNE01.JPG,AFNE01.JPG,AFNE01.JPG,AFNE01.JPG,AFNE01.JPG,,,,,,,,,0,7,7,1,,,,,,,,,,,,,,,AFNE05.jpg,AFSA15.jpg,AFNE02.jpg,AFSA07.jpg,AFSA15.jpg,FS,4,num_6,32,num_2,1.56667988119,,,2017_Feb_07_1410,59.9945735997,FEMA4ImagesEEG,001,00003,
AFNE01.JPG,AFNE01.JPG,AFNE01.JPG,AFNE01.JPG,AFNE01.JPG,AFNE01.JPG,,,,,,,,,0,8,8,6,,,,,,,,,,,,,,,AFSA20.jpg,AFNE05.jpg,AFSA09.jpg,AFNE03.jpg,AFSA20.jpg,FS,4,num_8,32,num_6,1.20011116844,,,2017_Feb_07_1410,59.9945735997,FEMA4ImagesEEG,001,00003,
AFNE01.JPG,AFNE01.JPG,AFNE01.JPG,AFNE01.JPG,AFNE01.JPG,AFNE01.JPG,,,,,,,,,0,9,9,9,,,,,,,,,,,,,,,AFNE14.jpg,AFNE02.jpg,AFSA10.jpg,AFSA19.jpg,AFNE14.jpg,FN,3,num_8,32,num_2,1.90004336392,,,2017_Feb_07_1410,59.9945735997,FEMA4ImagesEEG,001,00003,
AFNE01.JPG,AFNE01.JPG,AFNE01.JPG,AFNE01.JPG,AFNE01.JPG,AFNE01.JPG,,,,,,,,,1,0,10,4,,,,,,,,,,,,,,,AFSA11.jpg,AFNE15.jpg,AFSA18.jpg,AFNE11.jpg,AFSA18.jpg,FS,4,num_2,32,num_4,1.30010565161,,,2017_Feb_07_1410,59.9945735997,FEMA4ImagesEEG,001,00003,
AFNE01.JPG,AFNE01.JPG,AFNE01.JPG,AFNE01.JPG,AFNE01.JPG,AFNE01.JPG,,,,,,,,,1,1,11,1,,,,,,,,,,,,,,,AFNE11.jpg,AFNE14.jpg,AFSA06.jpg,AFSA13.jpg,AFSA13.jpg,FS,4,num_4,16,num_4,0.883547395235,,,2017_Feb_07_1410,59.9945735997,FEMA4ImagesEEG,001,00003,
AFNE01.JPG,AFNE01.JPG,AFNE01.JPG,AFNE01.JPG,AFNE01.JPG,AFNE01.JPG,,,,,,,,,1,2,12,3,,,,,,,,,,,,,,,AFNE10.jpg,AFSA13.jpg,AFNE02.jpg,AFSA18.jpg,AFNE02.jpg,FN,3,num_2,16,num_2,1.03314172337,,,2017_Feb_07_1410,59.9945735997,FEMA4ImagesEEG,001,00003,
AFNE01.JPG,AFNE01.JPG,AFNE01.JPG,AFNE01.JPG,AFNE01.JPG,AFNE01.JPG,,,,,,,,,1,3,13,5,,,,,,,,,,,,,,,AFNE09.jpg,AFNE04.jpg,AFSA06.jpg,AFSA15.jpg,AFNE04.jpg,FN,3,num_6,32,num_2,1.08347189287,,,2017_Feb_07_1410,59.9945735997,FEMA4ImagesEEG,001,00003,
AFNE01.JPG,AFNE01.JPG,AFNE01.JPG,AFNE01.JPG,AFNE01.JPG,AFNE01.JPG,,,,,,,,,1,4,14,8,,,,,,,,,,,,,,,AFSA17.jpg,AFNE18.jpg,AFNE11.jpg,AFSA08.jpg,AFNE18.jpg,FN,3,num_6,32,num_4,1.35010770429,,,2017_Feb_07_1410,59.9945735997,FEMA4ImagesEEG,001,00003,
AFNE01.JPG,AFNE01.JPG,AFNE01.JPG,AFNE01.JPG,AFNE01.JPG,AFNE01.JPG,,,,,,,,,1,5,15,9,,,,,,,,,,,,,,,AFNE03.jpg,AFSA12.jpg,AFSA20.jpg,AFNE18.jpg,AFSA12.jpg,FS,4,num_6,16,num_6,0.833471572027,,,2017_Feb_07_1410,59.9945735997,FEMA4ImagesEEG,001,00003,
AFNE01.JPG,AFNE01.JPG,AFNE01.JPG,AFNE01.JPG,AFNE01.JPG,AFNE01.JPG,,,,,,,,,1,6,16,0,,,,,,,,,,,,,,,AFSA01.jpg,AFNE13.jpg,AFSA03.jpg,AFNE15.jpg,AFNE15.jpg,FN,3,num_4,16,num_4,2.6666005943,,,2017_Feb_07_1410,59.9945735997,FEMA4ImagesEEG,001,00003,
AFNE01.JPG,AFNE01.JPG,AFNE01.JPG,AFNE01.JPG,AFNE01.JPG,AFNE01.JPG,,,,,,,,,1,7,17,6,,,,,,,,,,,,,,,AFNE15.jpg,AFSA07.jpg,AFSA01.jpg,AFNE01.jpg,AFSA01.jpg,FS,4,num_2,32,num_6,2.56661829911,,,2017_Feb_07_1410,59.9945735997,FEMA4ImagesEEG,001,00003,
AFNE01.JPG,AFNE01.JPG,AFNE01.JPG,AFNE01.JPG,AFNE01.JPG,AFNE01.JPG,,,,,,,,,1,8,18,2,,,,,,,,,,,,,,,AFSA01.jpg,AFNE02.jpg,AFSA17.jpg,AFNE10.jpg,AFNE10.jpg,FN,3,num_4,16,num_4,0.56677482021,,,2017_Feb_07_1410,59.9945735997,FEMA4ImagesEEG,001,00003,
AFNE01.JPG,AFNE01.JPG,AFNE01.JPG,AFNE01.JPG,AFNE01.JPG,AFNE01.JPG,,,,,,,,,1,9,19,7,,,,,,,,,,,,,,,AFSA19.jpg,AFNE07.jpg,AFSA09.jpg,AFNE15.jpg,AFSA19.jpg,FS,4,num_8,32,num_2,1.81685596728,,,2017_Feb_07_1410,59.9945735997,FEMA4ImagesEEG,001,00003,
AFNE01.JPG,AFNE01.JPG,AFNE01.JPG,AFNE01.JPG,AFNE01.JPG,AFNE01.JPG,,,,,,,,,2,0,20,4,,,,,,,,,,,,,,,AFNE01.jpg,AFSA20.jpg,AFNE03.jpg,AFSA10.jpg,AFSA10.jpg,FS,4,num_4,16,num_4,0.966740565142,,,2017_Feb_07_1410,59.9945735997,FEMA4ImagesEEG,001,00003,
AFNE01.JPG,AFNE01.JPG,AFNE01.JPG,AFNE01.JPG,AFNE01.JPG,AFNE01.JPG,,,,,,,,,2,1,21,9,,,,,,,,,,,,,,,AFNE18.jpg,AFNE01.jpg,AFSA19.jpg,AFSA14.jpg,AFSA14.jpg,FS,4,num_4,32,num_6,1.50018250104,,,2017_Feb_07_1410,59.9945735997,FEMA4ImagesEEG,001,00003,
AFNE01.JPG,AFNE01.JPG,AFNE01.JPG,AFNE01.JPG,AFNE01.JPG,AFNE01.JPG,,,,,,,,,2,2,22,2,,,,,,,,,,,,,,,AFNE06.jpg,AFSA17.jpg,AFNE09.jpg,AFSA09.jpg,AFNE06.jpg,FN,3,num_8,16,num_8,1.09982160456,,,2017_Feb_07_1410,59.9945735997,FEMA4ImagesEEG,001,00003,
AFNE01.JPG,AFNE01.JPG,AFNE01.JPG,AFNE01.JPG,AFNE01.JPG,AFNE01.JPG,,,,,,,,,2,3,23,1,,,,,,,,,,,,,,,AFSA05.jpg,AFSA18.jpg,AFNE17.jpg,AFNE05.jpg,AFSA05.jpg,FS,4,num_8,32,num_2,1.06677449937,,,2017_Feb_07_1410,59.9945735997,FEMA4ImagesEEG,001,00003,
AFNE01.JPG,AFNE01.JPG,AFNE01.JPG,AFNE01.JPG,AFNE01.JPG,AFNE01.JPG,,,,,,,,,2,4,24,3,,,,,,,,,,,,,,,AFSA15.jpg,AFSA09.jpg,AFNE19.jpg,AFNE10.jpg,AFNE10.jpg,FN,3,num_4,32,num_8,1.21678546863,,,2017_Feb_07_1410,59.9945735997,FEMA4ImagesEEG,001,00003,
AFNE01.JPG,AFNE01.JPG,AFNE01.JPG,AFNE01.JPG,AFNE01.JPG,AFNE01.JPG,,,,,,,,,2,5,25,6,,,,,,,,,,,,,,,AFSA11.jpg,AFNE15.jpg,AFNE01.jpg,AFSA18.jpg,AFNE01.jpg,FN,3,num_2,16,num_2,2.05025062594,,,2017_Feb_07_1410,59.9945735997,FEMA4ImagesEEG,001,00003,
AFNE01.JPG,AFNE01.JPG,AFNE01.JPG,AFNE01.JPG,AFNE01.JPG,AFNE01.JPG,,,,,,,,,2,6,26,7,,,,,,,,,,,,,,,AFSA13.jpg,AFSA19.jpg,AFNE12.jpg,AFNE03.jpg,AFNE12.jpg,FN,3,num_2,16,num_2,0.766776295612,,,2017_Feb_07_1410,59.9945735997,FEMA4ImagesEEG,001,00003,
AFNE01.JPG,AFNE01.JPG,AFNE01.JPG,AFNE01.JPG,AFNE01.JPG,AFNE01.JPG,,,,,,,,,2,7,27,5,,,,,,,,,,,,,,,AFSA14.jpg,AFNE09.jpg,AFNE14.jpg,AFSA20.jpg,AFSA14.jpg,FS,4,num_8,32,num_6,1.28338997602,,,2017_Feb_07_1410,59.9945735997,FEMA4ImagesEEG,001,00003,
AFNE01.JPG,AFNE01.JPG,AFNE01.JPG,AFNE01.JPG,AFNE01.JPG,AFNE01.JPG,,,,,,,,,2,8,28,0,,,,,,,,,,,,,,,AFSA03.jpg,AFSA13.jpg,AFNE06.jpg,AFNE02.jpg,AFNE06.jpg,FN,3,num_2,32,num_8,1.28339222097,,,2017_Feb_07_1410,59.9945735997,FEMA4ImagesEEG,001,00003,
AFNE01.JPG,AFNE01.JPG,AFNE01.JPG,AFNE01.JPG,AFNE01.JPG,AFNE01.JPG,,,,,,,,,2,9,29,8,,,,,,,,,,,,,,,AFSA02.jpg,AFSA17.jpg,AFNE10.jpg,AFNE01.jpg,AFNE10.jpg,FN,3,num_2,16,num_2,1.03348587709,,,2017_Feb_07_1410,59.9945735997,FEMA4ImagesEEG,001,00003,
AFNE01.JPG,AFNE01.JPG,AFNE01.JPG,AFNE01.JPG,AFNE01.JPG,AFNE01.JPG,,,,,,,,,3,0,30,4,,,,,,,,,,,,,,,AFNE18.jpg,AFNE10.jpg,AFSA10.jpg,AFSA17.jpg,AFSA10.jpg,FS,4,num_2,16,num_2,0.866761798039,,,2017_Feb_07_1410,59.9945735997,FEMA4ImagesEEG,001,00003,
AFNE01.JPG,AFNE01.JPG,AFNE01.JPG,AFNE01.JPG,AFNE01.JPG,AFNE01.JPG,,,,,,,,,3,1,31,1,,,,,,,,,,,,,,,AFNE11.jpg,AFSA08.jpg,AFNE13.jpg,AFSA18.jpg,AFSA18.jpg,FS,4,num_4,32,num_6,1.10009744088,,,2017_Feb_07_1410,59.9945735997,FEMA4ImagesEEG,001,00003,
AFNE01.JPG,AFNE01.JPG,AFNE01.JPG,AFNE01.JPG,AFNE01.JPG,AFNE01.JPG,,,,,,,,,3,2,32,9,,,,,,,,,,,,,,,AFSA02.jpg,AFSA20.jpg,AFNE01.jpg,AFNE16.jpg,AFNE16.jpg,FN,3,num_4,32,num_8,0.966743772617,,,2017_Feb_07_1410,59.9945735997,FEMA4ImagesEEG,001,00003,
AFNE01.JPG,AFNE01.JPG,AFNE01.JPG,AFNE01.JPG,AFNE01.JPG,AFNE01.JPG,,,,,,,,,3,3,33,7,,,,,,,,,,,,,,,AFSA02.jpg,AFNE13.jpg,AFNE01.jpg,AFSA14.jpg,AFSA02.jpg,FS,4,num_8,32,num_6,1.71678386489,,,2017_Feb_07_1410,59.9945735997,FEMA4ImagesEEG,001,00003,
AFNE01.JPG,AFNE01.JPG,AFNE01.JPG,AFNE01.JPG,AFNE01.JPG,AFNE01.JPG,,,,,,,,,3,4,34,6,,,,,,,,,,,,,,,AFNE17.jpg,AFSA14.jpg,AFNE02.jpg,AFSA15.jpg,AFSA14.jpg,FS,4,num_6,16,num_6,1.15010141791,,,2017_Feb_07_1410,59.9945735997,FEMA4ImagesEEG,001,00003,
AFNE01.JPG,AFNE01.JPG,AFNE01.JPG,AFNE01.JPG,AFNE01.JPG,AFNE01.JPG,,,,,,,,,3,5,35,3,,,,,,,,,,,,,,,AFSA02.jpg,AFNE07.jpg,AFSA10.jpg,AFNE19.jpg,AFNE07.jpg,FN,3,num_6,32,num_2,1.88364490005,,,2017_Feb_07_1410,59.9945735997,FEMA4ImagesEEG,001,00003,
AFNE01.JPG,AFNE01.JPG,AFNE01.JPG,AFNE01.JPG,AFNE01.JPG,AFNE01.JPG,,,,,,,,,3,6,36,8,,,,,,,,,,,,,,,AFNE15.jpg,AFSA01.jpg,AFSA11.jpg,AFNE08.jpg,AFNE08.jpg,FN,3,num_4,32,num_8,0.933493959717,,,2017_Feb_07_1410,59.9945735997,FEMA4ImagesEEG,001,00003,
AFNE01.JPG,AFNE01.JPG,AFNE01.JPG,AFNE01.JPG,AFNE01.JPG,AFNE01.JPG,,,,,,,,,3,7,37,2,,,,,,,,,,,,,,,AFSA03.jpg,AFNE07.jpg,AFNE18.jpg,AFSA15.jpg,AFNE07.jpg,FN,3,num_6,16,num_6,1.33339010435,,,2017_Feb_07_1410,59.9945735997,FEMA4ImagesEEG,001,00003,
AFNE01.JPG,AFNE01.JPG,AFNE01.JPG,AFNE01.JPG,AFNE01.JPG,AFNE01.JPG,,,,,,,,,3,8,38,0,,,,,,,,,,,,,,,AFNE16.jpg,AFSA05.jpg,AFSA18.jpg,AFNE19.jpg,AFNE16.jpg,FN,3,num_8,16,num_8,1.15011713421,,,2017_Feb_07_1410,59.9945735997,FEMA4ImagesEEG,001,00003,
AFNE01.JPG,AFNE01.JPG,AFNE01.JPG,AFNE01.JPG,AFNE01.JPG,AFNE01.JPG,,,,,,,,,3,9,39,5,,,,,,,,,,,,,,,AFNE05.jpg,AFSA09.jpg,AFNE13.jpg,AFSA11.jpg,AFSA09.jpg,FS,4,num_6,16,num_6,1.26675705123,,,2017_Feb_07_1410,59.9945735997,FEMA4ImagesEEG,001,00003,
AFNE01.JPG,AFNE01.JPG,AFNE01.JPG,AFNE01.JPG,AFNE01.JPG,AFNE01.JPG,,,,,,,,,4,0,40,3,,,,,,,,,,,,,,,AFNE17.jpg,AFNE05.jpg,AFSA03.jpg,AFSA17.jpg,AFNE05.jpg,FN,3,num_6,32,num_8,1.31670682319,,,2017_Feb_07_1410,59.9945735997,FEMA4ImagesEEG,001,00003,
AFNE01.JPG,AFNE01.JPG,AFNE01.JPG,AFNE01.JPG,AFNE01.JPG,AFNE01.JPG,,,,,,,,,4,1,41,5,,,,,,,,,,,,,,,AFNE20.jpg,AFSA09.jpg,AFNE11.jpg,AFSA15.jpg,AFNE11.jpg,FN,3,num_2,16,num_2,0.983514615567,,,2017_Feb_07_1410,59.9945735997,FEMA4ImagesEEG,001,00003,
AFNE01.JPG,AFNE01.JPG,AFNE01.JPG,AFNE01.JPG,AFNE01.JPG,AFNE01.JPG,,,,,,,,,4,2,42,2,,,,,,,,,,,,,,,AFNE13.jpg,AFSA09.jpg,AFNE12.jpg,AFSA11.jpg,AFNE12.jpg,FN,3,num_2,16,num_2,1.26679746434,,,2017_Feb_07_1410,59.9945735997,FEMA4ImagesEEG,001,00003,
AFNE01.JPG,AFNE01.JPG,AFNE01.JPG,AFNE01.JPG,AFNE01.JPG,AFNE01.JPG,,,,,,,,,4,3,43,7,,,,,,,,,,,,,,,AFSA03.jpg,AFSA06.jpg,AFNE16.jpg,AFNE17.jpg,AFSA03.jpg,FS,4,num_8,16,num_8,1.36642405903,,,2017_Feb_07_1410,59.9945735997,FEMA4ImagesEEG,001,00003,
AFNE01.JPG,AFNE01.JPG,AFNE01.JPG,AFNE01.JPG,AFNE01.JPG,AFNE01.JPG,,,,,,,,,4,4,44,6,,,,,,,,,,,,,,,AFSA18.jpg,AFSA08.jpg,AFNE12.jpg,AFNE04.jpg,AFNE04.jpg,FN,3,num_4,32,num_2,2.5666449205,,,2017_Feb_07_1410,59.9945735997,FEMA4ImagesEEG,001,00003,
AFNE01.JPG,AFNE01.JPG,AFNE01.JPG,AFNE01.JPG,AFNE01.JPG,AFNE01.JPG,,,,,,,,,4,5,45,9,,,,,,,,,,,,,,,AFSA04.jpg,AFSA10.jpg,AFNE05.jpg,AFNE01.jpg,AFSA10.jpg,FS,4,num_6,16,num_6,1.01681863307,,,2017_Feb_07_1410,59.9945735997,FEMA4ImagesEEG,001,00003,
AFNE01.JPG,AFNE01.JPG,AFNE01.JPG,AFNE01.JPG,AFNE01.JPG,AFNE01.JPG,,,,,,,,,4,6,46,8,,,,,,,,,,,,,,,AFSA07.jpg,AFSA05.jpg,AFNE04.jpg,AFNE19.jpg,AFNE19.jpg,FN,3,num_4,32,num_6,2.05029488821,,,2017_Feb_07_1410,59.9945735997,FEMA4ImagesEEG,001,00003,
AFNE01.JPG,AFNE01.JPG,AFNE01.JPG,AFNE01.JPG,AFNE01.JPG,AFNE01.JPG,,,,,,,,,4,7,47,1,,,,,,,,,,,,,,,AFSA15.jpg,AFSA18.jpg,AFNE09.jpg,AFNE15.jpg,AFSA18.jpg,FS,4,num_6,32,num_2,1.63343353244,,,2017_Feb_07_1410,59.9945735997,FEMA4ImagesEEG,001,00003,
AFNE01.JPG,AFNE01.JPG,AFNE01.JPG,AFNE01.JPG,AFNE01.JPG,AFNE01.JPG,,,,,,,,,4,8,48,0,,,,,,,,,,,,,,,AFNE18.jpg,AFNE13.jpg,AFSA02.jpg,AFSA01.jpg,AFSA01.jpg,FS,4,num_4,32,num_2,0.966743130935,,,2017_Feb_07_1410,59.9945735997,FEMA4ImagesEEG,001,00003,
AFNE01.JPG,AFNE01.JPG,AFNE01.JPG,AFNE01.JPG,AFNE01.JPG,AFNE01.JPG,,,,,,,,,4,9,49,4,,,,,,,,,,,,,,,AFSA10.jpg,AFNE04.jpg,AFSA19.jpg,AFNE11.jpg,AFNE11.jpg,FN,3,num_4,16,num_4,1.15013926523,,,2017_Feb_07_1410,59.9945735997,FEMA4ImagesEEG,001,00003,
AFNE01.JPG,AFNE01.JPG,AFNE01.JPG,AFNE01.JPG,AFNE01.JPG,AFNE01.JPG,,,,,,,,,5,0,50,8,,,,,,,,,,,,,,,AFSA20.jpg,AFNE14.jpg,AFNE11.jpg,AFSA13.jpg,AFSA20.jpg,FS,4,num_8,16,num_8,0.950102829142,,,2017_Feb_07_1410,59.9945735997,FEMA4ImagesEEG,001,00003,
AFNE01.JPG,AFNE01.JPG,AFNE01.JPG,AFNE01.JPG,AFNE01.JPG,AFNE01.JPG,,,,,,,,,5,1,51,4,,,,,,,,,,,,,,,AFNE04.jpg,AFSA11.jpg,AFSA01.jpg,AFNE18.jpg,AFNE18.jpg,FN,3,num_4,32,num_2,1.36674800632,,,2017_Feb_07_1410,59.9945735997,FEMA4ImagesEEG,001,00003,
AFNE01.JPG,AFNE01.JPG,AFNE01.JPG,AFNE01.JPG,AFNE01.JPG,AFNE01.JPG,,,,,,,,,5,2,52,5,,,,,,,,,,,,,,,AFSA03.jpg,AFNE01.jpg,AFSA06.jpg,AFNE09.jpg,AFSA06.jpg,FS,4,num_2,32,num_8,1.29994688532,,,2017_Feb_07_1410,59.9945735997,FEMA4ImagesEEG,001,00003,
AFNE01.JPG,AFNE01.JPG,AFNE01.JPG,AFNE01.JPG,AFNE01.JPG,AFNE01.JPG,,,,,,,,,5,3,53,3,,,,,,,,,,,,,,,AFNE03.jpg,AFSA09.jpg,AFSA08.jpg,AFNE05.jpg,AFSA09.jpg,FS,4,num_6,32,num_2,2.21628511464,,,2017_Feb_07_1410,59.9945735997,FEMA4ImagesEEG,001,00003,
AFNE01.JPG,AFNE01.JPG,AFNE01.JPG,AFNE01.JPG,AFNE01.JPG,AFNE01.JPG,,,,,,,,,5,4,54,0,,,,,,,,,,,,,,,AFSA05.jpg,AFSA02.jpg,AFNE09.jpg,AFNE06.jpg,AFSA05.jpg,FS,4,num_8,16,num_8,1.500065431,,,2017_Feb_07_1410,59.9945735997,FEMA4ImagesEEG,001,00003,
AFNE01.JPG,AFNE01.JPG,AFNE01.JPG,AFNE01.JPG,AFNE01.JPG,AFNE01.JPG,,,,,,,,,5,5,55,6,,,,,,,,,,,,,,,AFSA16.jpg,AFSA17.jpg,AFNE19.jpg,AFNE08.jpg,AFNE08.jpg,FN,3,num_4,16,num_4,1.06672670925,,,2017_Feb_07_1410,59.9945735997,FEMA4ImagesEEG,001,00003,
AFNE01.JPG,AFNE01.JPG,AFNE01.JPG,AFNE01.JPG,AFNE01.JPG,AFNE01.JPG,,,,,,,,,5,6,56,9,,,,,,,,,,,,,,,AFNE08.jpg,AFSA12.jpg,AFSA17.jpg,AFNE20.jpg,AFSA17.jpg,FS,4,num_2,32,num_8,1.13345053163,,,2017_Feb_07_1410,59.9945735997,FEMA4ImagesEEG,001,00003,
AFNE01.JPG,AFNE01.JPG,AFNE01.JPG,AFNE01.JPG,AFNE01.JPG,AFNE01.JPG,,,,,,,,,5,7,57,2,,,,,,,,,,,,,,,AFNE10.jpg,AFNE12.jpg,AFSA03.jpg,AFSA08.jpg,AFSA08.jpg,FS,4,num_4,32,num_8,1.80007421924,,,2017_Feb_07_1410,59.9945735997,FEMA4ImagesEEG,001,00003,
AFNE01.JPG,AFNE01.JPG,AFNE01.JPG,AFNE01.JPG,AFNE01.JPG,AFNE01.JPG,,,,,,,,,5,8,58,1,,,,,,,,,,,,,,,AFNE12.jpg,AFSA17.jpg,AFSA08.jpg,AFNE16.jpg,AFSA17.jpg,FS,4,num_6,32,num_2,2.28336271318,,,2017_Feb_07_1410,59.9945735997,FEMA4ImagesEEG,001,00003,
AFNE01.JPG,AFNE01.JPG,AFNE01.JPG,AFNE01.JPG,AFNE01.JPG,AFNE01.JPG,,,,,,,,,5,9,59,7,,,,,,,,,,,,,,,AFSA16.jpg,AFSA11.jpg,AFNE01.jpg,AFNE11.jpg,AFNE11.jpg,FN,3,num_4,16,num_4,0.766783351777,,,2017_Feb_07_1410,59.9945735997,FEMA4ImagesEEG,001,00003,
,,,,,,,,,,,,,,,,,,,,,,,,,,,,,,,,,,,,,,,,,,,space,2.59999448317,2017_Feb_07_1410,59.9945735997,FEMA4ImagesEEG,001,00003,
AFNE01.JPG,AFNE01.JPG,AFNE01.JPG,AFNE01.JPG,AFNE01.JPG,AFNE01.JPG,,,,,,,,,,,,,0,0,0,4,,,,,,,,,,,AMSA12.jpg,AMNE03.jpg,AMNE16.jpg,AMSA10.jpg,AMSA10.jpg,MS,2,num_4,16,num_4,0.700128809083,,,2017_Feb_07_1410,59.9945735997,FEMA4ImagesEEG,001,00003,
AFNE01.JPG,AFNE01.JPG,AFNE01.JPG,AFNE01.JPG,AFNE01.JPG,AFNE01.JPG,,,,,,,,,,,,,0,1,1,8,,,,,,,,,,,AMSA05.jpg,AMNE18.jpg,AMNE08.jpg,AMSA01.jpg,AMNE08.jpg,MN,1,num_2,16,num_2,1.74998941552,,,2017_Feb_07_1410,59.9945735997,FEMA4ImagesEEG,001,00003,
AFNE01.JPG,AFNE01.JPG,AFNE01.JPG,AFNE01.JPG,AFNE01.JPG,AFNE01.JPG,,,,,,,,,,,,,0,2,2,0,,,,,,,,,,,AMNE08.jpg,AMSA20.jpg,AMSA16.jpg,AMNE17.jpg,AMSA16.jpg,MS,2,num_2,32,num_8,0.933461244218,,,2017_Feb_07_1410,59.9945735997,FEMA4ImagesEEG,001,00003,
AFNE01.JPG,AFNE01.JPG,AFNE01.JPG,AFNE01.JPG,AFNE01.JPG,AFNE01.JPG,,,,,,,,,,,,,0,3,3,7,,,,,,,,,,,AMSA03.jpg,AMSA04.jpg,AMNE16.jpg,AMNE06.jpg,AMSA04.jpg,MS,2,num_6,16,num_6,1.13323563593,,,2017_Feb_07_1410,59.9945735997,FEMA4ImagesEEG,001,00003,
AFNE01.JPG,AFNE01.JPG,AFNE01.JPG,AFNE01.JPG,AFNE01.JPG,AFNE01.JPG,,,,,,,,,,,,,0,4,4,9,,,,,,,,,,,AMSA04.jpg,AMSA03.jpg,AMNE12.jpg,AMNE05.jpg,AMNE12.jpg,MN,1,num_2,32,num_4,0.916755511658,,,2017_Feb_07_1410,59.9945735997,FEMA4ImagesEEG,001,00003,
AFNE01.JPG,AFNE01.JPG,AFNE01.JPG,AFNE01.JPG,AFNE01.JPG,AFNE01.JPG,,,,,,,,,,,,,0,5,5,3,,,,,,,,,,,AMSA04.jpg,AMNE03.jpg,AMNE05.jpg,AMSA08.jpg,AMSA08.jpg,MS,2,num_4,32,num_8,1.23340139422,,,2017_Feb_07_1410,59.9945735997,FEMA4ImagesEEG,001,00003,
AFNE01.JPG,AFNE01.JPG,AFNE01.JPG,AFNE01.JPG,AFNE01.JPG,AFNE01.JPG,,,,,,,,,,,,,0,6,6,6,,,,,,,,,,,AMSA11.jpg,AMNE12.jpg,AMNE05.jpg,AMSA02.jpg,AMSA11.jpg,MS,2,num_8,32,num_2,0.850409199717,,,2017_Feb_07_1410,59.9945735997,FEMA4ImagesEEG,001,00003,
AFNE01.JPG,AFNE01.JPG,AFNE01.JPG,AFNE01.JPG,AFNE01.JPG,AFNE01.JPG,,,,,,,,,,,,,0,7,7,2,,,,,,,,,,,AMSA11.jpg,AMNE16.jpg,AMNE06.jpg,AMSA05.jpg,AMNE06.jpg,MN,1,num_2,16,num_2,1.13346079527,,,2017_Feb_07_1410,59.9945735997,FEMA4ImagesEEG,001,00003,
AFNE01.JPG,AFNE01.JPG,AFNE01.JPG,AFNE01.JPG,AFNE01.JPG,AFNE01.JPG,,,,,,,,,,,,,0,8,8,5,,,,,,,,,,,AMSA12.jpg,AMNE06.jpg,AMNE17.jpg,AMSA09.jpg,AMNE06.jpg,MN,1,num_6,16,num_6,0.950101225404,,,2017_Feb_07_1410,59.9945735997,FEMA4ImagesEEG,001,00003,
AFNE01.JPG,AFNE01.JPG,AFNE01.JPG,AFNE01.JPG,AFNE01.JPG,AFNE01.JPG,,,,,,,,,,,,,0,9,9,1,,,,,,,,,,,AMSA20.jpg,AMSA17.jpg,AMNE13.jpg,AMNE10.jpg,AMNE13.jpg,MN,1,num_2,16,num_2,1.05008865241,,,2017_Feb_07_1410,59.9945735997,FEMA4ImagesEEG,001,00003,
AFNE01.JPG,AFNE01.JPG,AFNE01.JPG,AFNE01.JPG,AFNE01.JPG,AFNE01.JPG,,,,,,,,,,,,,1,0,10,2,,,,,,,,,,,AMNE12.jpg,AMSA19.jpg,AMSA15.jpg,AMNE11.jpg,AMNE11.jpg,MN,1,num_4,32,num_8,1.33343500784,,,2017_Feb_07_1410,59.9945735997,FEMA4ImagesEEG,001,00003,
AFNE01.JPG,AFNE01.JPG,AFNE01.JPG,AFNE01.JPG,AFNE01.JPG,AFNE01.JPG,,,,,,,,,,,,,1,1,11,7,,,,,,,,,,,AMNE15.jpg,AMSA18.jpg,AMSA04.jpg,AMNE06.jpg,AMNE15.jpg,MN,1,num_8,32,num_4,1.48339241347,,,2017_Feb_07_1410,59.9945735997,FEMA4ImagesEEG,001,00003,
AFNE01.JPG,AFNE01.JPG,AFNE01.JPG,AFNE01.JPG,AFNE01.JPG,AFNE01.JPG,,,,,,,,,,,,,1,2,12,4,,,,,,,,,,,AMSA04.jpg,AMNE14.jpg,AMSA17.jpg,AMNE04.jpg,AMNE04.jpg,MN,1,num_4,16,num_4,1.30562109337,,,2017_Feb_07_1410,59.9945735997,FEMA4ImagesEEG,001,00003,
AFNE01.JPG,AFNE01.JPG,AFNE01.JPG,AFNE01.JPG,AFNE01.JPG,AFNE01.JPG,,,,,,,,,,,,,1,3,13,0,,,,,,,,,,,AMSA03.jpg,AMSA07.jpg,AMNE19.jpg,AMNE15.jpg,AMNE19.jpg,MN,1,num_2,16,num_2,1.1666519125,,,2017_Feb_07_1410,59.9945735997,FEMA4ImagesEEG,001,00003,
AFNE01.JPG,AFNE01.JPG,AFNE01.JPG,AFNE01.JPG,AFNE01.JPG,AFNE01.JPG,,,,,,,,,,,,,1,4,14,3,,,,,,,,,,,AMNE07.jpg,AMNE08.jpg,AMSA15.jpg,AMSA06.jpg,AMNE08.jpg,MN,1,num_6,32,num_8,1.30009378446,,,2017_Feb_07_1410,59.9945735997,FEMA4ImagesEEG,001,00003,
AFNE01.JPG,AFNE01.JPG,AFNE01.JPG,AFNE01.JPG,AFNE01.JPG,AFNE01.JPG,,,,,,,,,,,,,1,5,15,8,,,,,,,,,,,AMNE07.jpg,AMSA15.jpg,AMSA07.jpg,AMNE09.jpg,AMNE07.jpg,MN,1,num_8,16,num_8,1.25002501765,,,2017_Feb_07_1410,59.9945735997,FEMA4ImagesEEG,001,00003,
AFNE01.JPG,AFNE01.JPG,AFNE01.JPG,AFNE01.JPG,AFNE01.JPG,AFNE01.JPG,,,,,,,,,,,,,1,6,16,1,,,,,,,,,,,AMSA20.jpg,AMNE08.jpg,AMNE05.jpg,AMSA17.jpg,AMNE08.jpg,MN,1,num_6,16,num_6,1.06681779935,,,2017_Feb_07_1410,59.9945735997,FEMA4ImagesEEG,001,00003,
AFNE01.JPG,AFNE01.JPG,AFNE01.JPG,AFNE01.JPG,AFNE01.JPG,AFNE01.JPG,,,,,,,,,,,,,1,7,17,5,,,,,,,,,,,AMSA12.jpg,AMSA10.jpg,AMNE04.jpg,AMNE09.jpg,AMNE04.jpg,MN,1,num_2,32,num_8,1.08344687521,,,2017_Feb_07_1410,59.9945735997,FEMA4ImagesEEG,001,00003,
AFNE01.JPG,AFNE01.JPG,AFNE01.JPG,AFNE01.JPG,AFNE01.JPG,AFNE01.JPG,,,,,,,,,,,,,1,8,18,9,,,,,,,,,,,AMNE15.jpg,AMNE17.jpg,AMSA10.jpg,AMSA20.jpg,AMNE15.jpg,MN,1,num_8,32,num_4,0.783497423865,,,2017_Feb_07_1410,59.9945735997,FEMA4ImagesEEG,001,00003,
AFNE01.JPG,AFNE01.JPG,AFNE01.JPG,AFNE01.JPG,AFNE01.JPG,AFNE01.JPG,,,,,,,,,,,,,1,9,19,6,,,,,,,,,,,AMSA13.jpg,AMNE04.jpg,AMNE02.jpg,AMSA03.jpg,AMSA03.jpg,MS,2,num_4,32,num_2,1.28341531451,,,2017_Feb_07_1410,59.9945735997,FEMA4ImagesEEG,001,00003,
AFNE01.JPG,AFNE01.JPG,AFNE01.JPG,AFNE01.JPG,AFNE01.JPG,AFNE01.JPG,,,,,,,,,,,,,2,0,20,0,,,,,,,,,,,AMNE08.jpg,AMSA20.jpg,AMNE03.jpg,AMSA16.jpg,AMSA16.jpg,MS,2,num_4,32,num_6,1.51670797798,,,2017_Feb_07_1410,59.9945735997,FEMA4ImagesEEG,001,00003,
AFNE01.JPG,AFNE01.JPG,AFNE01.JPG,AFNE01.JPG,AFNE01.JPG,AFNE01.JPG,,,,,,,,,,,,,2,1,21,2,,,,,,,,,,,AMNE18.jpg,AMSA15.jpg,AMSA13.jpg,AMNE14.jpg,AMSA13.jpg,MS,2,num_2,32,num_8,1.06677321624,,,2017_Feb_07_1410,59.9945735997,FEMA4ImagesEEG,001,00003,
AFNE01.JPG,AFNE01.JPG,AFNE01.JPG,AFNE01.JPG,AFNE01.JPG,AFNE01.JPG,,,,,,,,,,,,,2,2,22,1,,,,,,,,,,,AMSA16.jpg,AMNE12.jpg,AMSA13.jpg,AMNE05.jpg,AMSA13.jpg,MS,2,num_2,32,num_4,1.36671561142,,,2017_Feb_07_1410,59.9945735997,FEMA4ImagesEEG,001,00003,
AFNE01.JPG,AFNE01.JPG,AFNE01.JPG,AFNE01.JPG,AFNE01.JPG,AFNE01.JPG,,,,,,,,,,,,,2,3,23,5,,,,,,,,,,,AMSA18.jpg,AMNE14.jpg,AMNE15.jpg,AMSA07.jpg,AMNE14.jpg,MN,1,num_6,32,num_8,1.31673119939,,,2017_Feb_07_1410,59.9945735997,FEMA4ImagesEEG,001,00003,
AFNE01.JPG,AFNE01.JPG,AFNE01.JPG,AFNE01.JPG,AFNE01.JPG,AFNE01.JPG,,,,,,,,,,,,,2,4,24,7,,,,,,,,,,,AMSA11.jpg,AMSA17.jpg,AMNE12.jpg,AMNE16.jpg,AMNE12.jpg,MN,1,num_2,32,num_4,1.23316051881,,,2017_Feb_07_1410,59.9945735997,FEMA4ImagesEEG,001,00003,
AFNE01.JPG,AFNE01.JPG,AFNE01.JPG,AFNE01.JPG,AFNE01.JPG,AFNE01.JPG,,,,,,,,,,,,,2,5,25,8,,,,,,,,,,,AMSA09.jpg,AMNE12.jpg,AMSA08.jpg,AMNE05.jpg,AMNE12.jpg,MN,1,num_6,16,num_6,1.13349319017,,,2017_Feb_07_1410,59.9945735997,FEMA4ImagesEEG,001,00003,
AFNE01.JPG,AFNE01.JPG,AFNE01.JPG,AFNE01.JPG,AFNE01.JPG,AFNE01.JPG,,,,,,,,,,,,,2,6,26,4,,,,,,,,,,,AMNE11.jpg,AMNE12.jpg,AMSA03.jpg,AMSA15.jpg,AMNE12.jpg,MN,1,num_6,32,num_8,1.56684185495,,,2017_Feb_07_1410,59.9945735997,FEMA4ImagesEEG,001,00003,
AFNE01.JPG,AFNE01.JPG,AFNE01.JPG,AFNE01.JPG,AFNE01.JPG,AFNE01.JPG,,,,,,,,,,,,,2,7,27,9,,,,,,,,,,,AMSA14.jpg,AMNE02.jpg,AMSA01.jpg,AMNE13.jpg,AMSA14.jpg,MS,2,num_8,32,num_6,1.48370994581,,,2017_Feb_07_1410,59.9945735997,FEMA4ImagesEEG,001,00003,
AFNE01.JPG,AFNE01.JPG,AFNE01.JPG,AFNE01.JPG,AFNE01.JPG,AFNE01.JPG,,,,,,,,,,,,,2,8,28,6,,,,,,,,,,,AMSA11.jpg,AMNE12.jpg,AMSA20.jpg,AMNE17.jpg,AMSA11.jpg,MS,2,num_8,32,num_4,0.883511151653,,,2017_Feb_07_1410,59.9945735997,FEMA4ImagesEEG,001,00003,
AFNE01.JPG,AFNE01.JPG,AFNE01.JPG,AFNE01.JPG,AFNE01.JPG,AFNE01.JPG,,,,,,,,,,,,,2,9,29,3,,,,,,,,,,,AMNE15.jpg,AMNE14.jpg,AMSA15.jpg,AMSA03.jpg,AMNE14.jpg,MN,1,num_6,32,num_8,1.20008615055,,,2017_Feb_07_1410,59.9945735997,FEMA4ImagesEEG,001,00003,
AFNE01.JPG,AFNE01.JPG,AFNE01.JPG,AFNE01.JPG,AFNE01.JPG,AFNE01.JPG,,,,,,,,,,,,,3,0,30,9,,,,,,,,,,,AMNE07.jpg,AMSA12.jpg,AMNE06.jpg,AMSA06.jpg,AMNE07.jpg,MN,1,num_8,16,num_8,2.16665287502,,,2017_Feb_07_1410,59.9945735997,FEMA4ImagesEEG,001,00003,
AFNE01.JPG,AFNE01.JPG,AFNE01.JPG,AFNE01.JPG,AFNE01.JPG,AFNE01.JPG,,,,,,,,,,,,,3,1,31,6,,,,,,,,,,,AMSA10.jpg,AMSA18.jpg,AMNE05.jpg,AMNE09.jpg,AMSA18.jpg,MS,2,num_6,16,num_6,0.783502876526,,,2017_Feb_07_1410,59.9945735997,FEMA4ImagesEEG,001,00003,
AFNE01.JPG,AFNE01.JPG,AFNE01.JPG,AFNE01.JPG,AFNE01.JPG,AFNE01.JPG,,,,,,,,,,,,,3,2,32,5,,,,,,,,,,,AMSA07.jpg,AMNE05.jpg,AMNE19.jpg,AMSA16.jpg,AMSA07.jpg,MS,2,num_8,16,num_8,1.05013291445,,,2017_Feb_07_1410,59.9945735997,FEMA4ImagesEEG,001,00003,
AFNE01.JPG,AFNE01.JPG,AFNE01.JPG,AFNE01.JPG,AFNE01.JPG,AFNE01.JPG,,,,,,,,,,,,,3,3,33,4,,,,,,,,,,,AMSA16.jpg,AMNE03.jpg,AMSA04.jpg,AMNE02.jpg,AMSA16.jpg,MS,2,num_8,16,num_8,0.916779567022,,,2017_Feb_07_1410,59.9945735997,FEMA4ImagesEEG,001,00003,
AFNE01.JPG,AFNE01.JPG,AFNE01.JPG,AFNE01.JPG,AFNE01.JPG,AFNE01.JPG,,,,,,,,,,,,,3,4,34,0,,,,,,,,,,,AMSA09.jpg,AMNE15.jpg,AMNE12.jpg,AMSA02.jpg,AMSA02.jpg,MS,2,num_4,32,num_2,1.48347291932,,,2017_Feb_07_1410,59.9945735997,FEMA4ImagesEEG,001,00003,
AFNE01.JPG,AFNE01.JPG,AFNE01.JPG,AFNE01.JPG,AFNE01.JPG,AFNE01.JPG,,,,,,,,,,,,,3,5,35,7,,,,,,,,,,,AMNE05.jpg,AMSA15.jpg,AMSA16.jpg,AMNE18.jpg,AMNE18.jpg,MN,1,num_4,32,num_8,1.51670637424,,,2017_Feb_07_1410,59.9945735997,FEMA4ImagesEEG,001,00003,
AFNE01.JPG,AFNE01.JPG,AFNE01.JPG,AFNE01.JPG,AFNE01.JPG,AFNE01.JPG,,,,,,,,,,,,,3,6,36,1,,,,,,,,,,,AMNE16.jpg,AMSA04.jpg,AMSA10.jpg,AMNE15.jpg,AMSA04.jpg,MS,2,num_6,32,num_8,2.03336559981,,,2017_Feb_07_1410,59.9945735997,FEMA4ImagesEEG,001,00003,
AFNE01.JPG,AFNE01.JPG,AFNE01.JPG,AFNE01.JPG,AFNE01.JPG,AFNE01.JPG,,,,,,,,,,,,,3,7,37,3,,,,,,,,,,,AMNE05.jpg,AMNE11.jpg,AMSA08.jpg,AMSA10.jpg,AMNE11.jpg,MN,1,num_6,32,num_2,1.31674819882,,,2017_Feb_07_1410,59.9945735997,FEMA4ImagesEEG,001,00003,
AFNE01.JPG,AFNE01.JPG,AFNE01.JPG,AFNE01.JPG,AFNE01.JPG,AFNE01.JPG,,,,,,,,,,,,,3,8,38,2,,,,,,,,,,,AMNE18.jpg,AMSA15.jpg,AMNE13.jpg,AMSA14.jpg,AMNE13.jpg,MN,1,num_2,32,num_8,1.38340402441,,,2017_Feb_07_1410,59.9945735997,FEMA4ImagesEEG,001,00003,
AFNE01.JPG,AFNE01.JPG,AFNE01.JPG,AFNE01.JPG,AFNE01.JPG,AFNE01.JPG,,,,,,,,,,,,,3,9,39,8,,,,,,,,,,,AMNE08.jpg,AMNE14.jpg,AMSA06.jpg,AMSA08.jpg,AMNE08.jpg,MN,1,num_8,32,num_2,2.3832083731,,,2017_Feb_07_1410,59.9945735997,FEMA4ImagesEEG,001,00003,
AFNE01.JPG,AFNE01.JPG,AFNE01.JPG,AFNE01.JPG,AFNE01.JPG,AFNE01.JPG,,,,,,,,,,,,,4,0,40,3,,,,,,,,,,,AMSA06.jpg,AMNE04.jpg,AMSA11.jpg,AMNE11.jpg,AMSA11.jpg,MS,2,num_2,32,num_8,1.2000938484,,,2017_Feb_07_1410,59.9945735997,FEMA4ImagesEEG,001,00003,
AFNE01.JPG,AFNE01.JPG,AFNE01.JPG,AFNE01.JPG,AFNE01.JPG,AFNE01.JPG,,,,,,,,,,,,,4,1,41,0,,,,,,,,,,,AMNE07.jpg,AMNE01.jpg,AMSA13.jpg,AMSA17.jpg,AMNE07.jpg,MN,1,num_8,32,num_4,2.14986214601,,,2017_Feb_07_1410,59.9945735997,FEMA4ImagesEEG,001,00003,
AFNE01.JPG,AFNE01.JPG,AFNE01.JPG,AFNE01.JPG,AFNE01.JPG,AFNE01.JPG,,,,,,,,,,,,,4,2,42,8,,,,,,,,,,,AMSA15.jpg,AMNE13.jpg,AMNE09.jpg,AMSA18.jpg,AMSA18.jpg,MS,2,num_4,32,num_2,2.03335565678,,,2017_Feb_07_1410,59.9945735997,FEMA4ImagesEEG,001,00003,
AFNE01.JPG,AFNE01.JPG,AFNE01.JPG,AFNE01.JPG,AFNE01.JPG,AFNE01.JPG,,,,,,,,,,,,,4,3,43,6,,,,,,,,,,,AMSA16.jpg,AMNE09.jpg,AMNE06.jpg,AMSA13.jpg,AMNE09.jpg,MN,1,num_6,32,num_8,1.41672824882,,,2017_Feb_07_1410,59.9945735997,FEMA4ImagesEEG,001,00003,
AFNE01.JPG,AFNE01.JPG,AFNE01.JPG,AFNE01.JPG,AFNE01.JPG,AFNE01.JPG,,,,,,,,,,,,,4,4,44,9,,,,,,,,,,,AMNE14.jpg,AMSA19.jpg,AMSA07.jpg,AMNE06.jpg,AMSA19.jpg,MS,2,num_6,32,num_8,0.883149998495,,,2017_Feb_07_1410,59.9945735997,FEMA4ImagesEEG,001,00003,
AFNE01.JPG,AFNE01.JPG,AFNE01.JPG,AFNE01.JPG,AFNE01.JPG,AFNE01.JPG,,,,,,,,,,,,,4,5,45,1,,,,,,,,,,,AMNE01.jpg,AMSA10.jpg,AMNE14.jpg,AMSA11.jpg,AMSA10.jpg,MS,2,num_6,16,num_6,0.900110398652,,,2017_Feb_07_1410,59.9945735997,FEMA4ImagesEEG,001,00003,
AFNE01.JPG,AFNE01.JPG,AFNE01.JPG,AFNE01.JPG,AFNE01.JPG,AFNE01.JPG,,,,,,,,,,,,,4,6,46,7,,,,,,,,,,,AMSA14.jpg,AMNE08.jpg,AMSA10.jpg,AMNE01.jpg,AMNE01.jpg,MN,1,num_4,32,num_8,0.76678687986,,,2017_Feb_07_1410,59.9945735997,FEMA4ImagesEEG,001,00003,
AFNE01.JPG,AFNE01.JPG,AFNE01.JPG,AFNE01.JPG,AFNE01.JPG,AFNE01.JPG,,,,,,,,,,,,,4,7,47,2,,,,,,,,,,,AMNE20.jpg,AMSA08.jpg,AMSA02.jpg,AMNE07.jpg,AMNE07.jpg,MN,1,num_4,32,num_8,1.70006722701,,,2017_Feb_07_1410,59.9945735997,FEMA4ImagesEEG,001,00003,
AFNE01.JPG,AFNE01.JPG,AFNE01.JPG,AFNE01.JPG,AFNE01.JPG,AFNE01.JPG,,,,,,,,,,,,,4,8,48,4,,,,,,,,,,,AMNE14.jpg,AMNE18.jpg,AMSA08.jpg,AMSA20.jpg,AMNE18.jpg,MN,1,num_6,16,num_6,1.48339305515,,,2017_Feb_07_1410,59.9945735997,FEMA4ImagesEEG,001,00003,
AFNE01.JPG,AFNE01.JPG,AFNE01.JPG,AFNE01.JPG,AFNE01.JPG,AFNE01.JPG,,,,,,,,,,,,,4,9,49,5,,,,,,,,,,,AMSA16.jpg,AMSA01.jpg,AMNE04.jpg,AMNE20.jpg,AMNE20.jpg,MN,1,num_4,16,num_4,2.05001456151,,,2017_Feb_07_1410,59.9945735997,FEMA4ImagesEEG,001,00003,
AFNE01.JPG,AFNE01.JPG,AFNE01.JPG,AFNE01.JPG,AFNE01.JPG,AFNE01.JPG,,,,,,,,,,,,,5,0,50,0,,,,,,,,,,,AMNE09.jpg,AMSA17.jpg,AMNE02.jpg,AMSA13.jpg,AMNE02.jpg,MN,1,num_2,16,num_2,1.05022111814,,,2017_Feb_07_1410,59.9945735997,FEMA4ImagesEEG,001,00003,
AFNE01.JPG,AFNE01.JPG,AFNE01.JPG,AFNE01.JPG,AFNE01.JPG,AFNE01.JPG,,,,,,,,,,,,,5,1,51,3,,,,,,,,,,,AMSA09.jpg,AMNE19.jpg,AMNE06.jpg,AMSA12.jpg,AMNE06.jpg,MN,1,num_2,32,num_4,1.23341967654,,,2017_Feb_07_1410,59.9945735997,FEMA4ImagesEEG,001,00003,
AFNE01.JPG,AFNE01.JPG,AFNE01.JPG,AFNE01.JPG,AFNE01.JPG,AFNE01.JPG,,,,,,,,,,,,,5,2,52,9,,,,,,,,,,,AMNE13.jpg,AMSA20.jpg,AMSA05.jpg,AMNE02.jpg,AMSA05.jpg,MS,2,num_2,48,None,,,,2017_Feb_07_1410,59.9945735997,FEMA4ImagesEEG,001,00003,
AFNE01.JPG,AFNE01.JPG,AFNE01.JPG,AFNE01.JPG,AFNE01.JPG,AFNE01.JPG,,,,,,,,,,,,,5,3,53,7,,,,,,,,,,,AMSA07.jpg,AMNE01.jpg,AMNE12.jpg,AMSA06.jpg,AMNE01.jpg,MN,1,num_6,16,num_6,0.90013252967,,,2017_Feb_07_1410,59.9945735997,FEMA4ImagesEEG,001,00003,
AFNE01.JPG,AFNE01.JPG,AFNE01.JPG,AFNE01.JPG,AFNE01.JPG,AFNE01.JPG,,,,,,,,,,,,,5,4,54,8,,,,,,,,,,,AMSA20.jpg,AMNE07.jpg,AMNE16.jpg,AMSA03.jpg,AMNE16.jpg,MN,1,num_2,32,num_6,0.883442833787,,,2017_Feb_07_1410,59.9945735997,FEMA4ImagesEEG,001,00003,
AFNE01.JPG,AFNE01.JPG,AFNE01.JPG,AFNE01.JPG,AFNE01.JPG,AFNE01.JPG,,,,,,,,,,,,,5,5,55,6,,,,,,,,,,,AMSA03.jpg,AMNE07.jpg,AMNE02.jpg,AMSA10.jpg,AMNE07.jpg,MN,1,num_6,32,num_4,1.06680079992,,,2017_Feb_07_1410,59.9945735997,FEMA4ImagesEEG,001,00003,
AFNE01.JPG,AFNE01.JPG,AFNE01.JPG,AFNE01.JPG,AFNE01.JPG,AFNE01.JPG,,,,,,,,,,,,,5,6,56,5,,,,,,,,,,,AMNE07.jpg,AMSA05.jpg,AMNE14.jpg,AMSA18.jpg,AMNE07.jpg,MN,1,num_8,16,num_8,1.18345322576,,,2017_Feb_07_1410,59.9945735997,FEMA4ImagesEEG,001,00003,
AFNE01.JPG,AFNE01.JPG,AFNE01.JPG,AFNE01.JPG,AFNE01.JPG,AFNE01.JPG,,,,,,,,,,,,,5,7,57,1,,,,,,,,,,,AMNE20.jpg,AMSA16.jpg,AMSA04.jpg,AMNE06.jpg,AMSA16.jpg,MS,2,num_6,16,num_6,1.08358415193,,,2017_Feb_07_1410,59.9945735997,FEMA4ImagesEEG,001,00003,
AFNE01.JPG,AFNE01.JPG,AFNE01.JPG,AFNE01.JPG,AFNE01.JPG,AFNE01.JPG,,,,,,,,,,,,,5,8,58,4,,,,,,,,,,,AMNE07.jpg,AMSA19.jpg,AMNE12.jpg,AMSA08.jpg,AMNE07.jpg,MN,1,num_8,16,num_8,0.866795154987,,,2017_Feb_07_1410,59.9945735997,FEMA4ImagesEEG,001,00003,
AFNE01.JPG,AFNE01.JPG,AFNE01.JPG,AFNE01.JPG,AFNE01.JPG,AFNE01.JPG,,,,,,,,,,,,,5,9,59,2,,,,,,,,,,,AMSA13.jpg,AMNE11.jpg,AMSA14.jpg,AMNE14.jpg,AMNE14.jpg,MN,1,num_4,32,num_2,1.15008730534,,,2017_Feb_07_1410,59.9945735997,FEMA4ImagesEEG,001,00003,
,,,,,,,,,,,,,,,,,,,,,,,,,,,,,,,,,,,,,,,,,,,space,10.1660280738,2017_Feb_07_1410,59.9945735997,FEMA4ImagesEEG,001,00003,
AFNE01.JPG,AFNE01.JPG,AFNE01.JPG,AFNE01.JPG,AFNE01.JPG,AFNE01.JPG,,,,,,,,,,,,,,,,,0,0,0,2,,,,,,,AFSA01.jpg,AFSA05.jpg,AFNE15.jpg,AFNE14.jpg,AFNE15.jpg,FN,3,num_2,16,num_2,1.05008608662,,,2017_Feb_07_1410,59.9945735997,FEMA4ImagesEEG,001,00003,
AFNE01.JPG,AFNE01.JPG,AFNE01.JPG,AFNE01.JPG,AFNE01.JPG,AFNE01.JPG,,,,,,,,,,,,,,,,,0,1,1,7,,,,,,,AFSA12.jpg,AFNE14.jpg,AFSA14.jpg,AFNE09.jpg,AFNE14.jpg,FN,3,num_6,32,num_4,1.35008236603,,,2017_Feb_07_1410,59.9945735997,FEMA4ImagesEEG,001,00003,
AFNE01.JPG,AFNE01.JPG,AFNE01.JPG,AFNE01.JPG,AFNE01.JPG,AFNE01.JPG,,,,,,,,,,,,,,,,,0,2,2,8,,,,,,,AFSA15.jpg,AFSA05.jpg,AFNE20.jpg,AFNE05.jpg,AFNE05.jpg,FN,3,num_4,32,num_2,1.01678174827,,,2017_Feb_07_1410,59.9945735997,FEMA4ImagesEEG,001,00003,
AFNE01.JPG,AFNE01.JPG,AFNE01.JPG,AFNE01.JPG,AFNE01.JPG,AFNE01.JPG,,,,,,,,,,,,,,,,,0,3,3,9,,,,,,,AFNE17.jpg,AFSA06.jpg,AFNE13.jpg,AFSA15.jpg,AFSA06.jpg,FS,4,num_6,16,num_6,0.950104432879,,,2017_Feb_07_1410,59.9945735997,FEMA4ImagesEEG,001,00003,
AFNE01.JPG,AFNE01.JPG,AFNE01.JPG,AFNE01.JPG,AFNE01.JPG,AFNE01.JPG,,,,,,,,,,,,,,,,,0,4,4,0,,,,,,,AFNE04.jpg,AFSA14.jpg,AFNE19.jpg,AFSA03.jpg,AFSA03.jpg,FS,4,num_4,16,num_4,0.900069664698,,,2017_Feb_07_1410,59.9945735997,FEMA4ImagesEEG,001,00003,
AFNE01.JPG,AFNE01.JPG,AFNE01.JPG,AFNE01.JPG,AFNE01.JPG,AFNE01.JPG,,,,,,,,,,,,,,,,,0,5,5,4,,,,,,,AFSA01.jpg,AFSA16.jpg,AFNE06.jpg,AFNE17.jpg,AFNE06.jpg,FN,3,num_2,32,num_8,0.983765754616,,,2017_Feb_07_1410,59.9945735997,FEMA4ImagesEEG,001,00003,
AFNE01.JPG,AFNE01.JPG,AFNE01.JPG,AFNE01.JPG,AFNE01.JPG,AFNE01.JPG,,,,,,,,,,,,,,,,,0,6,6,5,,,,,,,AFSA10.jpg,AFSA15.jpg,AFNE10.jpg,AFNE07.jpg,AFSA10.jpg,FS,4,num_8,16,num_8,0.850147155346,,,2017_Feb_07_1410,59.9945735997,FEMA4ImagesEEG,001,00003,
AFNE01.JPG,AFNE01.JPG,AFNE01.JPG,AFNE01.JPG,AFNE01.JPG,AFNE01.JPG,,,,,,,,,,,,,,,,,0,7,7,3,,,,,,,AFNE13.jpg,AFNE15.jpg,AFSA17.jpg,AFSA15.jpg,AFSA17.jpg,FS,4,num_2,32,num_8,1.25009622192,,,2017_Feb_07_1410,59.9945735997,FEMA4ImagesEEG,001,00003,
AFNE01.JPG,AFNE01.JPG,AFNE01.JPG,AFNE01.JPG,AFNE01.JPG,AFNE01.JPG,,,,,,,,,,,,,,,,,0,8,8,6,,,,,,,AFSA20.jpg,AFSA08.jpg,AFNE11.jpg,AFNE14.jpg,AFSA20.jpg,FS,4,num_8,16,num_8,4.11657480686,,,2017_Feb_07_1410,59.9945735997,FEMA4ImagesEEG,001,00003,
AFNE01.JPG,AFNE01.JPG,AFNE01.JPG,AFNE01.JPG,AFNE01.JPG,AFNE01.JPG,,,,,,,,,,,,,,,,,0,9,9,1,,,,,,,AFSA19.jpg,AFSA10.jpg,AFNE08.jpg,AFNE20.jpg,AFSA19.jpg,FS,4,num_8,32,num_2,1.26672658068,,,2017_Feb_07_1410,59.9945735997,FEMA4ImagesEEG,001,00003,
AFNE01.JPG,AFNE01.JPG,AFNE01.JPG,AFNE01.JPG,AFNE01.JPG,AFNE01.JPG,,,,,,,,,,,,,,,,,1,0,10,2,,,,,,,AFSA09.jpg,AFNE05.jpg,AFSA07.jpg,AFNE11.jpg,AFNE05.jpg,FN,3,num_6,16,num_6,1.2501023158,,,2017_Feb_07_1410,59.9945735997,FEMA4ImagesEEG,001,00003,
AFNE01.JPG,AFNE01.JPG,AFNE01.JPG,AFNE01.JPG,AFNE01.JPG,AFNE01.JPG,,,,,,,,,,,,,,,,,1,1,11,6,,,,,,,AFSA13.jpg,AFSA17.jpg,AFNE04.jpg,AFNE19.jpg,AFNE04.jpg,FN,3,num_2,32,num_8,1.38344411692,,,2017_Feb_07_1410,59.9945735997,FEMA4ImagesEEG,001,00003,
AFNE01.JPG,AFNE01.JPG,AFNE01.JPG,AFNE01.JPG,AFNE01.JPG,AFNE01.JPG,,,,,,,,,,,,,,,,,1,2,12,0,,,,,,,AFSA04.jpg,AFNE04.jpg,AFNE02.jpg,AFSA02.jpg,AFSA04.jpg,FS,4,num_8,16,num_8,1.68339517177,,,2017_Feb_07_1410,59.9945735997,FEMA4ImagesEEG,001,00003,
AFNE01.JPG,AFNE01.JPG,AFNE01.JPG,AFNE01.JPG,AFNE01.JPG,AFNE01.JPG,,,,,,,,,,,,,,,,,1,3,13,4,,,,,,,AFSA08.jpg,AFNE16.jpg,AFNE09.jpg,AFSA15.jpg,AFNE09.jpg,FN,3,num_2,16,num_2,1.43340062443,,,2017_Feb_07_1410,59.9945735997,FEMA4ImagesEEG,001,00003,
AFNE01.JPG,AFNE01.JPG,AFNE01.JPG,AFNE01.JPG,AFNE01.JPG,AFNE01.JPG,,,,,,,,,,,,,,,,,1,4,14,3,,,,,,,AFNE18.jpg,AFSA08.jpg,AFSA11.jpg,AFNE02.jpg,AFSA11.jpg,FS,4,num_2,16,num_2,0.933469583746,,,2017_Feb_07_1410,59.9945735997,FEMA4ImagesEEG,001,00003,
AFNE01.JPG,AFNE01.JPG,AFNE01.JPG,AFNE01.JPG,AFNE01.JPG,AFNE01.JPG,,,,,,,,,,,,,,,,,1,5,15,1,,,,,,,AFSA12.jpg,AFNE04.jpg,AFSA02.jpg,AFNE16.jpg,AFSA12.jpg,FS,4,num_8,16,num_8,1.18332909956,,,2017_Feb_07_1410,59.9945735997,FEMA4ImagesEEG,001,00003,
AFNE01.JPG,AFNE01.JPG,AFNE01.JPG,AFNE01.JPG,AFNE01.JPG,AFNE01.JPG,,,,,,,,,,,,,,,,,1,6,16,8,,,,,,,AFSA20.jpg,AFNE14.jpg,AFNE01.jpg,AFSA01.jpg,AFNE01.jpg,FN,3,num_2,16,num_2,1.36666076514,,,2017_Feb_07_1410,59.9945735997,FEMA4ImagesEEG,001,00003,
AFNE01.JPG,AFNE01.JPG,AFNE01.JPG,AFNE01.JPG,AFNE01.JPG,AFNE01.JPG,,,,,,,,,,,,,,,,,1,7,17,7,,,,,,,AFNE01.jpg,AFSA10.jpg,AFNE10.jpg,AFSA18.jpg,AFSA10.jpg,FS,4,num_6,16,num_6,1.94999185321,,,2017_Feb_07_1410,59.9945735997,FEMA4ImagesEEG,001,00003,
AFNE01.JPG,AFNE01.JPG,AFNE01.JPG,AFNE01.JPG,AFNE01.JPG,AFNE01.JPG,,,,,,,,,,,,,,,,,1,8,18,5,,,,,,,AFSA19.jpg,AFNE19.jpg,AFNE06.jpg,AFSA03.jpg,AFNE19.jpg,FN,3,num_6,16,num_6,1.81670169136,,,2017_Feb_07_1410,59.9945735997,FEMA4ImagesEEG,001,00003,
AFNE01.JPG,AFNE01.JPG,AFNE01.JPG,AFNE01.JPG,AFNE01.JPG,AFNE01.JPG,,,,,,,,,,,,,,,,,1,9,19,9,,,,,,,AFSA03.jpg,AFNE08.jpg,AFNE04.jpg,AFSA04.jpg,AFNE08.jpg,FN,3,num_6,16,num_6,1.35006504622,,,2017_Feb_07_1410,59.9945735997,FEMA4ImagesEEG,001,00003,
AFNE01.JPG,AFNE01.JPG,AFNE01.JPG,AFNE01.JPG,AFNE01.JPG,AFNE01.JPG,,,,,,,,,,,,,,,,,2,0,20,3,,,,,,,AFSA01.jpg,AFNE14.jpg,AFSA15.jpg,AFNE13.jpg,AFSA15.jpg,FS,4,num_2,32,num_4,1.56670746463,,,2017_Feb_07_1410,59.9945735997,FEMA4ImagesEEG,001,00003,
AFNE01.JPG,AFNE01.JPG,AFNE01.JPG,AFNE01.JPG,AFNE01.JPG,AFNE01.JPG,,,,,,,,,,,,,,,,,2,1,21,6,,,,,,,AFSA10.jpg,AFSA16.jpg,AFNE01.jpg,AFNE02.jpg,AFNE01.jpg,FN,3,num_2,16,num_2,1.400058439,,,2017_Feb_07_1410,59.9945735997,FEMA4ImagesEEG,001,00003,
AFNE01.JPG,AFNE01.JPG,AFNE01.JPG,AFNE01.JPG,AFNE01.JPG,AFNE01.JPG,,,,,,,,,,,,,,,,,2,2,22,1,,,,,,,AFSA19.jpg,AFSA15.jpg,AFNE06.jpg,AFNE11.jpg,AFSA15.jpg,FS,4,num_6,32,num_8,1.33343244204,,,2017_Feb_07_1410,59.9945735997,FEMA4ImagesEEG,001,00003,
AFNE01.JPG,AFNE01.JPG,AFNE01.JPG,AFNE01.JPG,AFNE01.JPG,AFNE01.JPG,,,,,,,,,,,,,,,,,2,3,23,8,,,,,,,AFSA14.jpg,AFNE08.jpg,AFSA15.jpg,AFNE02.jpg,AFNE02.jpg,FN,3,num_4,32,num_8,1.2166318344,,,2017_Feb_07_1410,59.9945735997,FEMA4ImagesEEG,001,00003,
AFNE01.JPG,AFNE01.JPG,AFNE01.JPG,AFNE01.JPG,AFNE01.JPG,AFNE01.JPG,,,,,,,,,,,,,,,,,2,4,24,7,,,,,,,AFNE02.jpg,AFSA05.jpg,AFNE08.jpg,AFSA13.jpg,AFNE08.jpg,FN,3,num_2,16,num_2,0.866655633319,,,2017_Feb_07_1410,59.9945735997,FEMA4ImagesEEG,001,00003,
AFNE01.JPG,AFNE01.JPG,AFNE01.JPG,AFNE01.JPG,AFNE01.JPG,AFNE01.JPG,,,,,,,,,,,,,,,,,2,5,25,2,,,,,,,AFNE03.jpg,AFSA15.jpg,AFSA16.jpg,AFNE05.jpg,AFSA16.jpg,FS,4,num_2,32,num_8,1.18370436528,,,2017_Feb_07_1410,59.9945735997,FEMA4ImagesEEG,001,00003,
AFNE01.JPG,AFNE01.JPG,AFNE01.JPG,AFNE01.JPG,AFNE01.JPG,AFNE01.JPG,,,,,,,,,,,,,,,,,2,6,26,9,,,,,,,AFNE08.jpg,AFSA19.jpg,AFSA13.jpg,AFNE16.jpg,AFNE16.jpg,FN,3,num_4,16,num_4,1.45008230186,,,2017_Feb_07_1410,59.9945735997,FEMA4ImagesEEG,001,00003,
AFNE01.JPG,AFNE01.JPG,AFNE01.JPG,AFNE01.JPG,AFNE01.JPG,AFNE01.JPG,,,,,,,,,,,,,,,,,2,7,27,4,,,,,,,AFNE15.jpg,AFSA01.jpg,AFNE09.jpg,AFSA16.jpg,AFSA01.jpg,FS,4,num_6,16,num_6,1.21672741487,,,2017_Feb_07_1410,59.9945735997,FEMA4ImagesEEG,001,00003,
AFNE01.JPG,AFNE01.JPG,AFNE01.JPG,AFNE01.JPG,AFNE01.JPG,AFNE01.JPG,,,,,,,,,,,,,,,,,2,8,28,0,,,,,,,AFNE14.jpg,AFSA03.jpg,AFNE04.jpg,AFSA07.jpg,AFSA07.jpg,FS,4,num_4,32,num_2,2.66663587559,,,2017_Feb_07_1410,59.9945735997,FEMA4ImagesEEG,001,00003,
AFNE01.JPG,AFNE01.JPG,AFNE01.JPG,AFNE01.JPG,AFNE01.JPG,AFNE01.JPG,,,,,,,,,,,,,,,,,2,9,29,5,,,,,,,AFSA03.jpg,AFSA19.jpg,AFNE05.jpg,AFNE01.jpg,AFNE05.jpg,FN,3,num_2,16,num_2,1.00010391977,,,2017_Feb_07_1410,59.9945735997,FEMA4ImagesEEG,001,00003,
AFNE01.JPG,AFNE01.JPG,AFNE01.JPG,AFNE01.JPG,AFNE01.JPG,AFNE01.JPG,,,,,,,,,,,,,,,,,3,0,30,0,,,,,,,AFSA17.jpg,AFNE06.jpg,AFNE13.jpg,AFSA08.jpg,AFSA08.jpg,FS,4,num_4,32,num_6,0.716771676904,,,2017_Feb_07_1410,59.9945735997,FEMA4ImagesEEG,001,00003,
AFNE01.JPG,AFNE01.JPG,AFNE01.JPG,AFNE01.JPG,AFNE01.JPG,AFNE01.JPG,,,,,,,,,,,,,,,,,3,1,31,1,,,,,,,AFSA10.jpg,AFNE02.jpg,AFNE03.jpg,AFSA06.jpg,AFSA06.jpg,FS,4,num_4,32,num_8,1.96665941807,,,2017_Feb_07_1410,59.9945735997,FEMA4ImagesEEG,001,00003,
AFNE01.JPG,AFNE01.JPG,AFNE01.JPG,AFNE01.JPG,AFNE01.JPG,AFNE01.JPG,,,,,,,,,,,,,,,,,3,2,32,4,,,,,,,AFNE08.jpg,AFSA07.jpg,AFNE06.jpg,AFSA04.jpg,AFSA04.jpg,FS,4,num_4,16,num_4,1.51669097855,,,2017_Feb_07_1410,59.9945735997,FEMA4ImagesEEG,001,00003,
AFNE01.JPG,AFNE01.JPG,AFNE01.JPG,AFNE01.JPG,AFNE01.JPG,AFNE01.JPG,,,,,,,,,,,,,,,,,3,3,33,6,,,,,,,AFSA08.jpg,AFNE10.jpg,AFSA19.jpg,AFNE08.jpg,AFSA08.jpg,FS,4,num_8,32,num_4,0.950110847596,,,2017_Feb_07_1410,59.9945735997,FEMA4ImagesEEG,001,00003,
AFNE01.JPG,AFNE01.JPG,AFNE01.JPG,AFNE01.JPG,AFNE01.JPG,AFNE01.JPG,,,,,,,,,,,,,,,,,3,4,34,2,,,,,,,AFSA14.jpg,AFSA08.jpg,AFNE05.jpg,AFNE09.jpg,AFNE05.jpg,FN,3,num_2,32,num_8,1.06675717956,,,2017_Feb_07_1410,59.9945735997,FEMA4ImagesEEG,001,00003,
AFNE01.JPG,AFNE01.JPG,AFNE01.JPG,AFNE01.JPG,AFNE01.JPG,AFNE01.JPG,,,,,,,,,,,,,,,,,3,5,35,3,,,,,,,AFNE06.jpg,AFSA12.jpg,AFSA03.jpg,AFNE04.jpg,AFNE04.jpg,FN,3,num_4,16,num_4,1.1166434451,,,2017_Feb_07_1410,59.9945735997,FEMA4ImagesEEG,001,00003,
AFNE01.JPG,AFNE01.JPG,AFNE01.JPG,AFNE01.JPG,AFNE01.JPG,AFNE01.JPG,,,,,,,,,,,,,,,,,3,6,36,9,,,,,,,AFSA12.jpg,AFNE04.jpg,AFNE13.jpg,AFSA07.jpg,AFNE04.jpg,FN,3,num_6,16,num_6,1.05030226521,,,2017_Feb_07_1410,59.9945735997,FEMA4ImagesEEG,001,00003,
AFNE01.JPG,AFNE01.JPG,AFNE01.JPG,AFNE01.JPG,AFNE01.JPG,AFNE01.JPG,,,,,,,,,,,,,,,,,3,7,37,5,,,,,,,AFSA04.jpg,AFNE16.jpg,AFSA03.jpg,AFNE09.jpg,AFSA03.jpg,FS,4,num_2,16,num_2,1.10011925106,,,2017_Feb_07_1410,59.9945735997,FEMA4ImagesEEG,001,00003,
AFNE01.JPG,AFNE01.JPG,AFNE01.JPG,AFNE01.JPG,AFNE01.JPG,AFNE01.JPG,,,,,,,,,,,,,,,,,3,8,38,8,,,,,,,AFSA18.jpg,AFNE10.jpg,AFNE07.jpg,AFSA09.jpg,AFSA09.jpg,FS,4,num_4,32,num_2,1.0501467064,,,2017_Feb_07_1410,59.9945735997,FEMA4ImagesEEG,001,00003,
AFNE01.JPG,AFNE01.JPG,AFNE01.JPG,AFNE01.JPG,AFNE01.JPG,AFNE01.JPG,,,,,,,,,,,,,,,,,3,9,39,7,,,,,,,AFSA15.jpg,AFNE19.jpg,AFSA01.jpg,AFNE02.jpg,AFSA15.jpg,FS,4,num_8,16,num_8,1.1334377022,,,2017_Feb_07_1410,59.9945735997,FEMA4ImagesEEG,001,00003,
AFNE01.JPG,AFNE01.JPG,AFNE01.JPG,AFNE01.JPG,AFNE01.JPG,AFNE01.JPG,,,,,,,,,,,,,,,,,4,0,40,4,,,,,,,AFNE14.jpg,AFSA02.jpg,AFSA11.jpg,AFNE07.jpg,AFNE14.jpg,FN,3,num_8,16,num_8,1.16671477747,,,2017_Feb_07_1410,59.9945735997,FEMA4ImagesEEG,001,00003,
AFNE01.JPG,AFNE01.JPG,AFNE01.JPG,AFNE01.JPG,AFNE01.JPG,AFNE01.JPG,,,,,,,,,,,,,,,,,4,1,41,2,,,,,,,AFNE19.jpg,AFNE09.jpg,AFSA06.jpg,AFSA14.jpg,AFSA14.jpg,FS,4,num_4,16,num_4,1.10019109678,,,2017_Feb_07_1410,59.9945735997,FEMA4ImagesEEG,001,00003,
AFNE01.JPG,AFNE01.JPG,AFNE01.JPG,AFNE01.JPG,AFNE01.JPG,AFNE01.JPG,,,,,,,,,,,,,,,,,4,2,42,9,,,,,,,AFSA11.jpg,AFNE16.jpg,AFSA20.jpg,AFNE02.jpg,AFSA11.jpg,FS,4,num_8,16,num_8,1.15007415507,,,2017_Feb_07_1410,59.9945735997,FEMA4ImagesEEG,001,00003,
AFNE01.JPG,AFNE01.JPG,AFNE01.JPG,AFNE01.JPG,AFNE01.JPG,AFNE01.JPG,,,,,,,,,,,,,,,,,4,3,43,8,,,,,,,AFNE13.jpg,AFNE14.jpg,AFSA06.jpg,AFSA19.jpg,AFSA06.jpg,FS,4,num_2,32,num_8,1.41671189107,,,2017_Feb_07_1410,59.9945735997,FEMA4ImagesEEG,001,00003,
AFNE01.JPG,AFNE01.JPG,AFNE01.JPG,AFNE01.JPG,AFNE01.JPG,AFNE01.JPG,,,,,,,,,,,,,,,,,4,4,44,0,,,,,,,AFNE17.jpg,AFSA09.jpg,AFSA08.jpg,AFNE12.jpg,AFSA08.jpg,FS,4,num_2,32,num_6,1.71675114962,,,2017_Feb_07_1410,59.9945735997,FEMA4ImagesEEG,001,00003,
AFNE01.JPG,AFNE01.JPG,AFNE01.JPG,AFNE01.JPG,AFNE01.JPG,AFNE01.JPG,,,,,,,,,,,,,,,,,4,5,45,1,,,,,,,AFNE14.jpg,AFNE03.jpg,AFSA14.jpg,AFSA05.jpg,AFSA05.jpg,FS,4,num_4,32,num_2,1.04999948689,,,2017_Feb_07_1410,59.9945735997,FEMA4ImagesEEG,001,00003,
AFNE01.JPG,AFNE01.JPG,AFNE01.JPG,AFNE01.JPG,AFNE01.JPG,AFNE01.JPG,,,,,,,,,,,,,,,,,4,6,46,5,,,,,,,AFSA07.jpg,AFSA14.jpg,AFNE20.jpg,AFNE18.jpg,AFSA07.jpg,FS,4,num_8,32,num_6,0.950085829943,,,2017_Feb_07_1410,59.9945735997,FEMA4ImagesEEG,001,00003,
AFNE01.JPG,AFNE01.JPG,AFNE01.JPG,AFNE01.JPG,AFNE01.JPG,AFNE01.JPG,,,,,,,,,,,,,,,,,4,7,47,7,,,,,,,AFSA11.jpg,AFNE02.jpg,AFSA06.jpg,AFNE01.jpg,AFSA06.jpg,FS,4,num_2,32,num_8,3.51654985314,,,2017_Feb_07_1410,59.9945735997,FEMA4ImagesEEG,001,00003,
AFNE01.JPG,AFNE01.JPG,AFNE01.JPG,AFNE01.JPG,AFNE01.JPG,AFNE01.JPG,,,,,,,,,,,,,,,,,4,8,48,3,,,,,,,AFNE15.jpg,AFSA02.jpg,AFNE08.jpg,AFSA19.jpg,AFNE08.jpg,FN,3,num_2,16,num_2,1.58342987602,,,2017_Feb_07_1410,59.9945735997,FEMA4ImagesEEG,001,00003,
AFNE01.JPG,AFNE01.JPG,AFNE01.JPG,AFNE01.JPG,AFNE01.JPG,AFNE01.JPG,,,,,,,,,,,,,,,,,4,9,49,6,,,,,,,AFSA07.jpg,AFNE13.jpg,AFNE04.jpg,AFSA11.jpg,AFNE04.jpg,FN,3,num_2,32,num_8,1.26670894027,,,2017_Feb_07_1410,59.9945735997,FEMA4ImagesEEG,001,00003,
AFNE01.JPG,AFNE01.JPG,AFNE01.JPG,AFNE01.JPG,AFNE01.JPG,AFNE01.JPG,,,,,,,,,,,,,,,,,5,0,50,6,,,,,,,AFNE10.jpg,AFNE19.jpg,AFSA01.jpg,AFSA16.jpg,AFSA01.jpg,FS,4,num_2,32,num_8,1.65005170321,,,2017_Feb_07_1410,59.9945735997,FEMA4ImagesEEG,001,00003,
AFNE01.JPG,AFNE01.JPG,AFNE01.JPG,AFNE01.JPG,AFNE01.JPG,AFNE01.JPG,,,,,,,,,,,,,,,,,5,1,51,9,,,,,,,AFNE12.jpg,AFSA05.jpg,AFNE02.jpg,AFSA04.jpg,AFNE12.jpg,FN,3,num_8,16,num_8,1.60006472538,,,2017_Feb_07_1410,59.9945735997,FEMA4ImagesEEG,001,00003,
AFNE01.JPG,AFNE01.JPG,AFNE01.JPG,AFNE01.JPG,AFNE01.JPG,AFNE01.JPG,,,,,,,,,,,,,,,,,5,2,52,8,,,,,,,AFNE16.jpg,AFNE10.jpg,AFSA09.jpg,AFSA15.jpg,AFSA15.jpg,FS,4,num_4,32,num_6,2.46667770017,,,2017_Feb_07_1410,59.9945735997,FEMA4ImagesEEG,001,00003,
AFNE01.JPG,AFNE01.JPG,AFNE01.JPG,AFNE01.JPG,AFNE01.JPG,AFNE01.JPG,,,,,,,,,,,,,,,,,5,3,53,0,,,,,,,AFSA03.jpg,AFNE03.jpg,AFNE11.jpg,AFSA04.jpg,AFNE11.jpg,FN,3,num_2,16,num_2,1.28312664875,,,2017_Feb_07_1410,59.9945735997,FEMA4ImagesEEG,001,00003,
AFNE01.JPG,AFNE01.JPG,AFNE01.JPG,AFNE01.JPG,AFNE01.JPG,AFNE01.JPG,,,,,,,,,,,,,,,,,5,4,54,4,,,,,,,AFNE20.jpg,AFSA13.jpg,AFNE02.jpg,AFSA05.jpg,AFSA13.jpg,FS,4,num_6,16,num_6,1.51672658091,,,2017_Feb_07_1410,59.9945735997,FEMA4ImagesEEG,001,00003,
AFNE01.JPG,AFNE01.JPG,AFNE01.JPG,AFNE01.JPG,AFNE01.JPG,AFNE01.JPG,,,,,,,,,,,,,,,,,5,5,55,2,,,,,,,AFSA13.jpg,AFNE08.jpg,AFSA12.jpg,AFNE06.jpg,AFSA13.jpg,FS,4,num_8,16,num_8,0.783486197703,,,2017_Feb_07_1410,59.9945735997,FEMA4ImagesEEG,001,00003,
AFNE01.JPG,AFNE01.JPG,AFNE01.JPG,AFNE01.JPG,AFNE01.JPG,AFNE01.JPG,,,,,,,,,,,,,,,,,5,6,56,7,,,,,,,AFSA01.jpg,AFSA08.jpg,AFNE07.jpg,AFNE06.jpg,AFNE07.jpg,FN,3,num_2,16,num_2,1.05044146627,,,2017_Feb_07_1410,59.9945735997,FEMA4ImagesEEG,001,00003,
AFNE01.JPG,AFNE01.JPG,AFNE01.JPG,AFNE01.JPG,AFNE01.JPG,AFNE01.JPG,,,,,,,,,,,,,,,,,5,7,57,3,,,,,,,AFSA05.jpg,AFNE16.jpg,AFNE07.jpg,AFSA14.jpg,AFSA05.jpg,FS,4,num_8,16,num_8,1.25008692034,,,2017_Feb_07_1410,59.9945735997,FEMA4ImagesEEG,001,00003,
AFNE01.JPG,AFNE01.JPG,AFNE01.JPG,AFNE01.JPG,AFNE01.JPG,AFNE01.JPG,,,,,,,,,,,,,,,,,5,8,58,1,,,,,,,AFNE18.jpg,AFSA06.jpg,AFSA20.jpg,AFNE02.jpg,AFNE18.jpg,FN,3,num_8,32,num_6,2.08336059609,,,2017_Feb_07_1410,59.9945735997,FEMA4ImagesEEG,001,00003,
AFNE01.JPG,AFNE01.JPG,AFNE01.JPG,AFNE01.JPG,AFNE01.JPG,AFNE01.JPG,,,,,,,,,,,,,,,,,5,9,59,5,,,,,,,AFNE06.jpg,AFNE11.jpg,AFSA20.jpg,AFSA02.jpg,AFNE11.jpg,FN,3,num_6,32,num_2,2.80000814679,,,2017_Feb_07_1410,59.9945735997,FEMA4ImagesEEG,001,00003,
,,,,,,,,,,,,,,,,,,,,,,,,,,,,,,,,,,,,,,,,,,,space,2.59995791898,2017_Feb_07_1410,59.9945735997,FEMA4ImagesEEG,001,00003,
AFNE01.JPG,AFNE01.JPG,AFNE01.JPG,AFNE01.JPG,AFNE01.JPG,AFNE01.JPG,,,,,,,,,,,,,,,,,,,,,0,0,0,2,,,AMSA08.jpg,AMSA05.jpg,AMNE09.jpg,AMNE01.jpg,AMNE01.jpg,MN,1,num_4,16,num_4,1.01679072878,,,2017_Feb_07_1410,59.9945735997,FEMA4ImagesEEG,001,00003,
AFNE01.JPG,AFNE01.JPG,AFNE01.JPG,AFNE01.JPG,AFNE01.JPG,AFNE01.JPG,,,,,,,,,,,,,,,,,,,,,0,1,1,7,,,AMSA06.jpg,AMNE01.jpg,AMSA14.jpg,AMNE15.jpg,AMSA06.jpg,MS,2,num_8,32,num_2,0.916757436236,,,2017_Feb_07_1410,59.9945735997,FEMA4ImagesEEG,001,00003,
AFNE01.JPG,AFNE01.JPG,AFNE01.JPG,AFNE01.JPG,AFNE01.JPG,AFNE01.JPG,,,,,,,,,,,,,,,,,,,,,0,2,2,4,,,AMNE08.jpg,AMSA10.jpg,AMSA03.jpg,AMNE13.jpg,AMSA03.jpg,MS,2,num_2,32,num_8,0.716770073166,,,2017_Feb_07_1410,59.9945735997,FEMA4ImagesEEG,001,00003,
AFNE01.JPG,AFNE01.JPG,AFNE01.JPG,AFNE01.JPG,AFNE01.JPG,AFNE01.JPG,,,,,,,,,,,,,,,,,,,,,0,3,3,1,,,AMSA08.jpg,AMSA13.jpg,AMNE09.jpg,AMNE08.jpg,AMNE08.jpg,MN,1,num_4,32,num_8,1.56671869056,,,2017_Feb_07_1410,59.9945735997,FEMA4ImagesEEG,001,00003,
AFNE01.JPG,AFNE01.JPG,AFNE01.JPG,AFNE01.JPG,AFNE01.JPG,AFNE01.JPG,,,,,,,,,,,,,,,,,,,,,0,4,4,6,,,AMSA11.jpg,AMSA15.jpg,AMNE15.jpg,AMNE10.jpg,AMNE10.jpg,MN,1,num_4,32,num_2,1.26675705099,,,2017_Feb_07_1410,59.9945735997,FEMA4ImagesEEG,001,00003,
AFNE01.JPG,AFNE01.JPG,AFNE01.JPG,AFNE01.JPG,AFNE01.JPG,AFNE01.JPG,,,,,,,,,,,,,,,,,,,,,0,5,5,8,,,AMNE12.jpg,AMSA16.jpg,AMNE03.jpg,AMSA19.jpg,AMSA16.jpg,MS,2,num_6,16,num_6,0.800437296741,,,2017_Feb_07_1410,59.9945735997,FEMA4ImagesEEG,001,00003,
AFNE01.JPG,AFNE01.JPG,AFNE01.JPG,AFNE01.JPG,AFNE01.JPG,AFNE01.JPG,,,,,,,,,,,,,,,,,,,,,0,6,6,5,,,AMSA15.jpg,AMNE14.jpg,AMNE01.jpg,AMSA02.jpg,AMNE14.jpg,MN,1,num_6,32,num_8,1.03342237067,,,2017_Feb_07_1410,59.9945735997,FEMA4ImagesEEG,001,00003,
AFNE01.JPG,AFNE01.JPG,AFNE01.JPG,AFNE01.JPG,AFNE01.JPG,AFNE01.JPG,,,,,,,,,,,,,,,,,,,,,0,7,7,0,,,AMSA19.jpg,AMSA02.jpg,AMNE18.jpg,AMNE17.jpg,AMNE17.jpg,MN,1,num_4,32,num_8,0.666775397491,,,2017_Feb_07_1410,59.9945735997,FEMA4ImagesEEG,001,00003,
AFNE01.JPG,AFNE01.JPG,AFNE01.JPG,AFNE01.JPG,AFNE01.JPG,AFNE01.JPG,,,,,,,,,,,,,,,,,,,,,0,8,8,3,,,AMNE07.jpg,AMSA18.jpg,AMNE10.jpg,AMSA08.jpg,AMNE10.jpg,MN,1,num_2,16,num_2,1.41672696569,,,2017_Feb_07_1410,59.9945735997,FEMA4ImagesEEG,001,00003,
AFNE01.JPG,AFNE01.JPG,AFNE01.JPG,AFNE01.JPG,AFNE01.JPG,AFNE01.JPG,,,,,,,,,,,,,,,,,,,,,0,9,9,9,,,AMSA03.jpg,AMNE19.jpg,AMNE11.jpg,AMSA01.jpg,AMSA03.jpg,MS,2,num_8,16,num_8,0.8334818359,,,2017_Feb_07_1410,59.9945735997,FEMA4ImagesEEG,001,00003,
AFNE01.JPG,AFNE01.JPG,AFNE01.JPG,AFNE01.JPG,AFNE01.JPG,AFNE01.JPG,,,,,,,,,,,,,,,,,,,,,1,0,10,6,,,AMNE03.jpg,AMSA08.jpg,AMSA14.jpg,AMNE19.jpg,AMNE19.jpg,MN,1,num_4,16,num_4,1.06657788577,,,2017_Feb_07_1410,59.9945735997,FEMA4ImagesEEG,001,00003,
AFNE01.JPG,AFNE01.JPG,AFNE01.JPG,AFNE01.JPG,AFNE01.JPG,AFNE01.JPG,,,,,,,,,,,,,,,,,,,,,1,1,11,9,,,AMNE03.jpg,AMNE15.jpg,AMSA13.jpg,AMSA15.jpg,AMNE15.jpg,MN,1,num_6,32,num_4,0.783523403807,,,2017_Feb_07_1410,59.9945735997,FEMA4ImagesEEG,001,00003,
AFNE01.JPG,AFNE01.JPG,AFNE01.JPG,AFNE01.JPG,AFNE01.JPG,AFNE01.JPG,,,,,,,,,,,,,,,,,,,,,1,2,12,3,,,AMNE01.jpg,AMNE14.jpg,AMSA18.jpg,AMSA15.jpg,AMSA15.jpg,MS,2,num_4,16,num_4,0.800142216031,,,2017_Feb_07_1410,59.9945735997,FEMA4ImagesEEG,001,00003,
AFNE01.JPG,AFNE01.JPG,AFNE01.JPG,AFNE01.JPG,AFNE01.JPG,AFNE01.JPG,,,,,,,,,,,,,,,,,,,,,1,3,13,1,,,AMNE07.jpg,AMSA19.jpg,AMNE01.jpg,AMSA03.jpg,AMNE01.jpg,MN,1,num_2,16,num_2,1.4166916844,,,2017_Feb_07_1410,59.9945735997,FEMA4ImagesEEG,001,00003,
AFNE01.JPG,AFNE01.JPG,AFNE01.JPG,AFNE01.JPG,AFNE01.JPG,AFNE01.JPG,,,,,,,,,,,,,,,,,,,,,1,4,14,8,,,AMNE17.jpg,AMSA12.jpg,AMSA01.jpg,AMNE18.jpg,AMNE18.jpg,MN,1,num_4,32,num_8,1.58335289825,,,2017_Feb_07_1410,59.9945735997,FEMA4ImagesEEG,001,00003,
AFNE01.JPG,AFNE01.JPG,AFNE01.JPG,AFNE01.JPG,AFNE01.JPG,AFNE01.JPG,,,,,,,,,,,,,,,,,,,,,1,5,15,0,,,AMSA08.jpg,AMNE16.jpg,AMSA18.jpg,AMNE19.jpg,AMNE19.jpg,MN,1,num_4,32,num_2,1.88342102361,,,2017_Feb_07_1410,59.9945735997,FEMA4ImagesEEG,001,00003,
AFNE01.JPG,AFNE01.JPG,AFNE01.JPG,AFNE01.JPG,AFNE01.JPG,AFNE01.JPG,,,,,,,,,,,,,,,,,,,,,1,6,16,7,,,AMNE17.jpg,AMNE06.jpg,AMSA16.jpg,AMSA15.jpg,AMSA15.jpg,MS,2,num_4,16,num_4,0.633466889383,,,2017_Feb_07_1410,59.9945735997,FEMA4ImagesEEG,001,00003,
AFNE01.JPG,AFNE01.JPG,AFNE01.JPG,AFNE01.JPG,AFNE01.JPG,AFNE01.JPG,,,,,,,,,,,,,,,,,,,,,1,7,17,4,,,AMSA08.jpg,AMNE18.jpg,AMNE17.jpg,AMSA13.jpg,AMSA08.jpg,MS,2,num_8,32,num_2,0.950102829142,,,2017_Feb_07_1410,59.9945735997,FEMA4ImagesEEG,001,00003,
AFNE01.JPG,AFNE01.JPG,AFNE01.JPG,AFNE01.JPG,AFNE01.JPG,AFNE01.JPG,,,,,,,,,,,,,,,,,,,,,1,8,18,5,,,AMSA07.jpg,AMNE09.jpg,AMSA12.jpg,AMNE10.jpg,AMSA07.jpg,MS,2,num_8,16,num_8,0.766765711131,,,2017_Feb_07_1410,59.9945735997,FEMA4ImagesEEG,001,00003,
AFNE01.JPG,AFNE01.JPG,AFNE01.JPG,AFNE01.JPG,AFNE01.JPG,AFNE01.JPG,,,,,,,,,,,,,,,,,,,,,1,9,19,2,,,AMNE19.jpg,AMSA13.jpg,AMSA06.jpg,AMNE20.jpg,AMNE19.jpg,MN,1,num_8,32,num_6,1.63337612012,,,2017_Feb_07_1410,59.9945735997,FEMA4ImagesEEG,001,00003,
AFNE01.JPG,AFNE01.JPG,AFNE01.JPG,AFNE01.JPG,AFNE01.JPG,AFNE01.JPG,,,,,,,,,,,,,,,,,,,,,2,0,20,0,,,AMNE18.jpg,AMSA02.jpg,AMNE12.jpg,AMSA11.jpg,AMNE12.jpg,MN,1,num_2,16,num_2,1.36675185524,,,2017_Feb_07_1410,59.9945735997,FEMA4ImagesEEG,001,00003,
AFNE01.JPG,AFNE01.JPG,AFNE01.JPG,AFNE01.JPG,AFNE01.JPG,AFNE01.JPG,,,,,,,,,,,,,,,,,,,,,2,1,21,7,,,AMSA19.jpg,AMSA10.jpg,AMNE09.jpg,AMNE08.jpg,AMNE09.jpg,MN,1,num_2,16,num_2,1.03357183561,,,2017_Feb_07_1410,59.9945735997,FEMA4ImagesEEG,001,00003,
AFNE01.JPG,AFNE01.JPG,AFNE01.JPG,AFNE01.JPG,AFNE01.JPG,AFNE01.JPG,,,,,,,,,,,,,,,,,,,,,2,2,22,9,,,AMNE12.jpg,AMNE05.jpg,AMSA09.jpg,AMSA13.jpg,AMSA09.jpg,MS,2,num_2,32,num_6,1.11675634538,,,2017_Feb_07_1410,59.9945735997,FEMA4ImagesEEG,001,00003,
AFNE01.JPG,AFNE01.JPG,AFNE01.JPG,AFNE01.JPG,AFNE01.JPG,AFNE01.JPG,,,,,,,,,,,,,,,,,,,,,2,3,23,3,,,AMSA09.jpg,AMNE15.jpg,AMNE10.jpg,AMSA01.jpg,AMNE10.jpg,MN,1,num_2,16,num_2,1.06673825579,,,2017_Feb_07_1410,59.9945735997,FEMA4ImagesEEG,001,00003,
AFNE01.JPG,AFNE01.JPG,AFNE01.JPG,AFNE01.JPG,AFNE01.JPG,AFNE01.JPG,,,,,,,,,,,,,,,,,,,,,2,4,24,6,,,AMSA18.jpg,AMSA17.jpg,AMNE19.jpg,AMNE07.jpg,AMSA17.jpg,MS,2,num_6,16,num_6,1.28315423219,,,2017_Feb_07_1410,59.9945735997,FEMA4ImagesEEG,001,00003,
AFNE01.JPG,AFNE01.JPG,AFNE01.JPG,AFNE01.JPG,AFNE01.JPG,AFNE01.JPG,,,,,,,,,,,,,,,,,,,,,2,5,25,2,,,AMSA19.jpg,AMSA13.jpg,AMNE19.jpg,AMNE10.jpg,AMSA19.jpg,MS,2,num_8,32,num_2,1.01679650205,,,2017_Feb_07_1410,59.9945735997,FEMA4ImagesEEG,001,00003,
AFNE01.JPG,AFNE01.JPG,AFNE01.JPG,AFNE01.JPG,AFNE01.JPG,AFNE01.JPG,,,,,,,,,,,,,,,,,,,,,2,6,26,8,,,AMNE17.jpg,AMSA17.jpg,AMNE06.jpg,AMSA03.jpg,AMSA17.jpg,MS,2,num_6,32,num_8,2.0833567474,,,2017_Feb_07_1410,59.9945735997,FEMA4ImagesEEG,001,00003,
AFNE01.JPG,AFNE01.JPG,AFNE01.JPG,AFNE01.JPG,AFNE01.JPG,AFNE01.JPG,,,,,,,,,,,,,,,,,,,,,2,7,27,4,,,AMNE06.jpg,AMSA16.jpg,AMSA04.jpg,AMNE18.jpg,AMSA16.jpg,MS,2,num_6,32,num_8,1.58341319743,,,2017_Feb_07_1410,59.9945735997,FEMA4ImagesEEG,001,00003,
AFNE01.JPG,AFNE01.JPG,AFNE01.JPG,AFNE01.JPG,AFNE01.JPG,AFNE01.JPG,,,,,,,,,,,,,,,,,,,,,2,8,28,5,,,AMNE05.jpg,AMSA14.jpg,AMNE09.jpg,AMSA07.jpg,AMNE05.jpg,MN,1,num_8,16,num_8,1.00010520266,,,2017_Feb_07_1410,59.9945735997,FEMA4ImagesEEG,001,00003,
AFNE01.JPG,AFNE01.JPG,AFNE01.JPG,AFNE01.JPG,AFNE01.JPG,AFNE01.JPG,,,,,,,,,,,,,,,,,,,,,2,9,29,1,,,AMSA19.jpg,AMNE03.jpg,AMNE09.jpg,AMSA03.jpg,AMNE09.jpg,MN,1,num_2,16,num_2,2.03342493647,,,2017_Feb_07_1410,59.9945735997,FEMA4ImagesEEG,001,00003,
AFNE01.JPG,AFNE01.JPG,AFNE01.JPG,AFNE01.JPG,AFNE01.JPG,AFNE01.JPG,,,,,,,,,,,,,,,,,,,,,3,0,30,6,,,AMNE04.jpg,AMSA04.jpg,AMSA14.jpg,AMNE07.jpg,AMNE04.jpg,MN,1,num_8,32,num_2,1.13351339661,,,2017_Feb_07_1410,59.9945735997,FEMA4ImagesEEG,001,00003,
AFNE01.JPG,AFNE01.JPG,AFNE01.JPG,AFNE01.JPG,AFNE01.JPG,AFNE01.JPG,,,,,,,,,,,,,,,,,,,,,3,1,31,5,,,AMSA19.jpg,AMNE14.jpg,AMNE19.jpg,AMSA03.jpg,AMNE19.jpg,MN,1,num_2,16,num_2,1.11680221139,,,2017_Feb_07_1410,59.9945735997,FEMA4ImagesEEG,001,00003,
AFNE01.JPG,AFNE01.JPG,AFNE01.JPG,AFNE01.JPG,AFNE01.JPG,AFNE01.JPG,,,,,,,,,,,,,,,,,,,,,3,2,32,1,,,AMSA14.jpg,AMSA06.jpg,AMNE16.jpg,AMNE18.jpg,AMSA14.jpg,MS,2,num_8,16,num_8,1.15012451122,,,2017_Feb_07_1410,59.9945735997,FEMA4ImagesEEG,001,00003,
AFNE01.JPG,AFNE01.JPG,AFNE01.JPG,AFNE01.JPG,AFNE01.JPG,AFNE01.JPG,,,,,,,,,,,,,,,,,,,,,3,3,33,4,,,AMSA19.jpg,AMSA18.jpg,AMNE16.jpg,AMNE08.jpg,AMNE08.jpg,MN,1,num_4,32,num_8,1.3166962387,,,2017_Feb_07_1410,59.9945735997,FEMA4ImagesEEG,001,00003,
AFNE01.JPG,AFNE01.JPG,AFNE01.JPG,AFNE01.JPG,AFNE01.JPG,AFNE01.JPG,,,,,,,,,,,,,,,,,,,,,3,4,34,0,,,AMNE03.jpg,AMNE15.jpg,AMSA07.jpg,AMSA17.jpg,AMSA07.jpg,MS,2,num_2,16,num_2,1.31674884027,,,2017_Feb_07_1410,59.9945735997,FEMA4ImagesEEG,001,00003,
AFNE01.JPG,AFNE01.JPG,AFNE01.JPG,AFNE01.JPG,AFNE01.JPG,AFNE01.JPG,,,,,,,,,,,,,,,,,,,,,3,5,35,2,,,AMSA12.jpg,AMSA16.jpg,AMNE12.jpg,AMNE19.jpg,AMSA16.jpg,MS,2,num_6,16,num_6,0.850136250257,,,2017_Feb_07_1410,59.9945735997,FEMA4ImagesEEG,001,00003,
AFNE01.JPG,AFNE01.JPG,AFNE01.JPG,AFNE01.JPG,AFNE01.JPG,AFNE01.JPG,,,,,,,,,,,,,,,,,,,,,3,6,36,9,,,AMNE07.jpg,AMSA20.jpg,AMNE06.jpg,AMSA16.jpg,AMNE07.jpg,MN,1,num_8,32,num_2,1.20008743345,,,2017_Feb_07_1410,59.9945735997,FEMA4ImagesEEG,001,00003,
AFNE01.JPG,AFNE01.JPG,AFNE01.JPG,AFNE01.JPG,AFNE01.JPG,AFNE01.JPG,,,,,,,,,,,,,,,,,,,,,3,7,37,7,,,AMSA03.jpg,AMSA06.jpg,AMNE03.jpg,AMNE09.jpg,AMNE09.jpg,MN,1,num_4,16,num_4,1.13345887093,,,2017_Feb_07_1410,59.9945735997,FEMA4ImagesEEG,001,00003,
AFNE01.JPG,AFNE01.JPG,AFNE01.JPG,AFNE01.JPG,AFNE01.JPG,AFNE01.JPG,,,,,,,,,,,,,,,,,,,,,3,8,38,8,,,AMSA20.jpg,AMSA06.jpg,AMNE11.jpg,AMNE08.jpg,AMNE11.jpg,MN,1,num_2,16,num_2,1.28340184339,,,2017_Feb_07_1410,59.9945735997,FEMA4ImagesEEG,001,00003,
AFNE01.JPG,AFNE01.JPG,AFNE01.JPG,AFNE01.JPG,AFNE01.JPG,AFNE01.JPG,,,,,,,,,,,,,,,,,,,,,3,9,39,3,,,AMSA08.jpg,AMSA02.jpg,AMNE11.jpg,AMNE05.jpg,AMSA08.jpg,MS,2,num_8,32,num_2,0.933489469346,,,2017_Feb_07_1410,59.9945735997,FEMA4ImagesEEG,001,00003,
AFNE01.JPG,AFNE01.JPG,AFNE01.JPG,AFNE01.JPG,AFNE01.JPG,AFNE01.JPG,,,,,,,,,,,,,,,,,,,,,4,0,40,7,,,AMNE09.jpg,AMNE16.jpg,AMSA11.jpg,AMSA02.jpg,AMSA02.jpg,MS,2,num_4,32,num_2,1.18342692521,,,2017_Feb_07_1410,59.9945735997,FEMA4ImagesEEG,001,00003,
AFNE01.JPG,AFNE01.JPG,AFNE01.JPG,AFNE01.JPG,AFNE01.JPG,AFNE01.JPG,,,,,,,,,,,,,,,,,,,,,4,1,41,6,,,AMSA01.jpg,AMNE12.jpg,AMNE16.jpg,AMSA03.jpg,AMNE12.jpg,MN,1,num_6,32,num_2,1.35011027032,,,2017_Feb_07_1410,59.9945735997,FEMA4ImagesEEG,001,00003,
