IPosition2,IPosition3,IPosition1,IPosition6,IPosition4,IPosition5,TrialsF1.thisRepN,TrialsF1.thisTrialN,TrialsF1.thisN,TrialsF1.thisIndex,TrialsM1.thisRepN,TrialsM1.thisTrialN,TrialsM1.thisN,TrialsM1.thisIndex,TrialsF2.thisRepN,TrialsF2.thisTrialN,TrialsF2.thisN,TrialsF2.thisIndex,TrialsM2.thisRepN,TrialsM2.thisTrialN,TrialsM2.thisN,TrialsM2.thisIndex,TrialsF3.thisRepN,TrialsF3.thisTrialN,TrialsF3.thisN,TrialsF3.thisIndex,TrialsM3.thisRepN,TrialsM3.thisTrialN,TrialsM3.thisN,TrialsM3.thisIndex,InstrKey_resp.keys,InstrKey_resp.rt,Image0 _Position,Image1 _Position,Image2 _Position,Image3 _Position,Center_image,condition,code,correct_answer,accuracy,Key_Resp.keys,Key_Resp.rt,BreakKey_resp.keys,BreakKey_resp.rt,date,frameRate,expName,session,participant,
,,,,,,,,,,,,,,,,,,,,,,,,,,,,,,space,22.2821987483,,,,,,,,,,,,,,2017_Feb_09_1140,60.0028868384,FEMA4ImagesEEG,001,000004,
AFSA21.JPG,AFNE22.JPG,AFNE21.JPG,AFSA23.JPG,AFSA22.JPG,AFNE23.JPG,0,0,0,0,,,,,,,,,,,,,,,,,,,,,,,AFSA20.jpg,AFNE08.jpg,AFSA09.jpg,AFNE17.jpg,AFNE17.jpg,FN,3,num_4,48,None,,,,2017_Feb_09_1140,60.0028868384,FEMA4ImagesEEG,001,000004,
AMSA21.JPG,AMNE22.JPG,AMNE21.JPG,AMSA23.JPG,AMSA22.JPG,AMNE23.JPG,0,1,1,1,,,,,,,,,,,,,,,,,,,,,,,AFSA18.jpg,AFNE04.jpg,AFSA20.jpg,AFNE14.jpg,AFSA20.jpg,FS,4,num_2,16,num_2,1.36679964536,,,2017_Feb_09_1140,60.0028868384,FEMA4ImagesEEG,001,000004,
AFNE22.JPG,AFSA24.JPG,AFSA22.JPG,AFNE25.JPG,AFNE24.JPG,AFSA25.JPG,0,2,2,6,,,,,,,,,,,,,,,,,,,,,,,AFNE08.jpg,AFSA06.jpg,AFSA20.jpg,AFNE13.jpg,AFNE08.jpg,FN,3,num_8,48,None,,,,2017_Feb_09_1140,60.0028868384,FEMA4ImagesEEG,001,000004,
AMSA21.JPG,AMNE23.JPG,AMNE21.JPG,AMSA25.JPG,AMNE25.JPG,AMSA23.JPG,0,3,3,5,,,,,,,,,,,,,,,,,,,,,,,AFSA16.jpg,AFSA05.jpg,AFNE06.jpg,AFNE20.jpg,AFSA16.jpg,FS,4,num_8,48,None,,,,2017_Feb_09_1140,60.0028868384,FEMA4ImagesEEG,001,000004,
AMNE22.JPG,AMSA24.JPG,AMSA22.JPG,AMNE25.JPG,AMNE24.JPG,AMSA25.JPG,0,4,4,7,,,,,,,,,,,,,,,,,,,,,,,AFSA13.jpg,AFNE05.jpg,AFSA20.jpg,AFNE07.jpg,AFSA20.jpg,FS,4,num_2,48,None,,,,2017_Feb_09_1140,60.0028868384,FEMA4ImagesEEG,001,000004,
AFSA21.JPG,AFNE23.JPG,AFNE21.JPG,AFSA25.JPG,AFNE25.JPG,AFSA23.JPG,0,5,5,4,,,,,,,,,,,,,,,,,,,,,,,AFSA04.jpg,AFNE12.jpg,AFSA11.jpg,AFNE16.jpg,AFNE16.jpg,FN,3,num_4,16,num_4,2.25000256579,,,2017_Feb_09_1140,60.0028868384,FEMA4ImagesEEG,001,000004,
AFNE23.JPG,AFNE24.JPG,AFNE22.JPG,AFSA24.JPG,AFSA22.JPG,AFSA23.JPG,0,6,6,8,,,,,,,,,,,,,,,,,,,,,,,AFSA04.jpg,AFNE16.jpg,AFNE18.jpg,AFSA06.jpg,AFSA04.jpg,FS,4,num_8,48,None,,,,2017_Feb_09_1140,60.0028868384,FEMA4ImagesEEG,001,000004,
AMNE23.JPG,AMNE24.JPG,AMNE22.JPG,AMSA24.JPG,AMSA22.JPG,AMSA23.JPG,0,7,7,9,,,,,,,,,,,,,,,,,,,,,,,AFNE08.jpg,AFNE20.jpg,AFSA15.jpg,AFSA16.jpg,AFNE08.jpg,FN,3,num_8,48,None,,,,2017_Feb_09_1140,60.0028868384,FEMA4ImagesEEG,001,000004,
AMSA25.JPG,AMNE24.JPG,AMSA24.JPG,AMNE26.JPG,AMSA21.JPG,AMNE25.JPG,0,8,8,3,,,,,,,,,,,,,,,,,,,,,,,AFNE15.jpg,AFNE03.jpg,AFSA16.jpg,AFSA10.jpg,AFSA16.jpg,FS,4,num_2,32,num_8,1.8500881393,,,2017_Feb_09_1140,60.0028868384,FEMA4ImagesEEG,001,000004,
AFSA25.JPG,AFNE24.JPG,AFSA24.JPG,AFNE21.JPG,AFSA21.JPG,AFNE25.JPG,0,9,9,2,,,,,,,,,,,,,,,,,,,,,,,AFNE14.jpg,AFNE11.jpg,AFSA20.jpg,AFSA04.jpg,AFSA20.jpg,FS,4,num_2,48,None,,,,2017_Feb_09_1140,60.0028868384,FEMA4ImagesEEG,001,000004,
AFSA21.JPG,AFNE22.JPG,AFNE21.JPG,AFSA23.JPG,AFSA22.JPG,AFNE23.JPG,,,,,0,0,0,0,,,,,,,,,,,,,,,,,,,AMSA06.jpg,AMSA20.jpg,AMNE18.jpg,AMNE17.jpg,AMSA06.jpg,MS,2,num_8,32,num_2,1.3834136466,,,2017_Feb_09_1140,60.0028868384,FEMA4ImagesEEG,001,000004,
AMSA21.JPG,AMNE22.JPG,AMNE21.JPG,AMSA23.JPG,AMSA22.JPG,AMNE23.JPG,,,,,0,1,1,1,,,,,,,,,,,,,,,,,,,AMSA17.jpg,AMSA11.jpg,AMNE17.jpg,AMNE07.jpg,AMSA17.jpg,MS,2,num_8,32,num_6,1.15009211656,,,2017_Feb_09_1140,60.0028868384,FEMA4ImagesEEG,001,000004,
AMSA21.JPG,AMNE23.JPG,AMNE21.JPG,AMSA25.JPG,AMNE25.JPG,AMSA23.JPG,,,,,0,2,2,5,,,,,,,,,,,,,,,,,,,AMNE12.jpg,AMSA20.jpg,AMNE13.jpg,AMSA05.jpg,AMNE13.jpg,MN,1,num_2,32,num_8,1.33342538564,,,2017_Feb_09_1140,60.0028868384,FEMA4ImagesEEG,001,000004,
AFNE22.JPG,AFSA24.JPG,AFSA22.JPG,AFNE25.JPG,AFNE24.JPG,AFSA25.JPG,,,,,0,3,3,6,,,,,,,,,,,,,,,,,,,AMNE05.jpg,AMSA17.jpg,AMSA10.jpg,AMNE12.jpg,AMSA10.jpg,MS,2,num_2,16,num_2,1.60007338529,,,2017_Feb_09_1140,60.0028868384,FEMA4ImagesEEG,001,000004,
AMNE22.JPG,AMSA24.JPG,AMSA22.JPG,AMNE25.JPG,AMNE24.JPG,AMSA25.JPG,,,,,0,4,4,7,,,,,,,,,,,,,,,,,,,AMNE01.jpg,AMNE15.jpg,AMSA14.jpg,AMSA19.jpg,AMSA19.jpg,MS,2,num_4,32,num_8,0.91680169804,,,2017_Feb_09_1140,60.0028868384,FEMA4ImagesEEG,001,000004,
AFNE23.JPG,AFNE24.JPG,AFNE22.JPG,AFSA24.JPG,AFSA22.JPG,AFSA23.JPG,,,,,0,5,5,8,,,,,,,,,,,,,,,,,,,AMSA03.jpg,AMSA18.jpg,AMNE09.jpg,AMNE10.jpg,AMNE10.jpg,MN,1,num_4,32,num_8,0.883447324159,,,2017_Feb_09_1140,60.0028868384,FEMA4ImagesEEG,001,000004,
AMNE23.JPG,AMNE24.JPG,AMNE22.JPG,AMSA24.JPG,AMSA22.JPG,AMSA23.JPG,,,,,0,6,6,9,,,,,,,,,,,,,,,,,,,AMSA07.jpg,AMNE19.jpg,AMSA04.jpg,AMNE06.jpg,AMSA07.jpg,MS,2,num_8,32,num_4,1.0167727673,,,2017_Feb_09_1140,60.0028868384,FEMA4ImagesEEG,001,000004,
AMSA25.JPG,AMNE24.JPG,AMSA24.JPG,AMNE26.JPG,AMSA21.JPG,AMNE25.JPG,,,,,0,7,7,3,,,,,,,,,,,,,,,,,,,AMNE10.jpg,AMSA20.jpg,AMSA07.jpg,AMNE03.jpg,AMSA07.jpg,MS,2,num_2,16,num_2,1.11679258919,,,2017_Feb_09_1140,60.0028868384,FEMA4ImagesEEG,001,000004,
AFSA21.JPG,AFNE23.JPG,AFNE21.JPG,AFSA25.JPG,AFNE25.JPG,AFSA23.JPG,,,,,0,8,8,4,,,,,,,,,,,,,,,,,,,AMSA08.jpg,AMNE20.jpg,AMNE08.jpg,AMSA09.jpg,AMSA09.jpg,MS,2,num_4,16,num_4,1.53344578459,,,2017_Feb_09_1140,60.0028868384,FEMA4ImagesEEG,001,000004,
AFSA25.JPG,AFNE24.JPG,AFSA24.JPG,AFNE21.JPG,AFSA21.JPG,AFNE25.JPG,,,,,0,9,9,2,,,,,,,,,,,,,,,,,,,AMNE19.jpg,AMSA18.jpg,AMSA20.jpg,AMNE07.jpg,AMNE19.jpg,MN,1,num_8,32,num_4,1.19993379922,,,2017_Feb_09_1140,60.0028868384,FEMA4ImagesEEG,001,000004,
AMNE22.JPG,AMSA24.JPG,AMSA22.JPG,AMNE25.JPG,AMNE24.JPG,AMSA25.JPG,,,,,,,,,0,0,0,7,,,,,,,,,,,,,,,AFNE06.jpg,AFSA17.jpg,AFNE03.jpg,AFSA16.jpg,AFSA17.jpg,FS,4,num_6,32,num_8,1.38345149392,,,2017_Feb_09_1140,60.0028868384,FEMA4ImagesEEG,001,000004,
AFNE23.JPG,AFNE24.JPG,AFNE22.JPG,AFSA24.JPG,AFSA22.JPG,AFSA23.JPG,,,,,,,,,0,1,1,8,,,,,,,,,,,,,,,AFNE17.jpg,AFSA14.jpg,AFSA09.jpg,AFNE16.jpg,AFNE17.jpg,FN,3,num_8,32,num_2,1.36675313814,,,2017_Feb_09_1140,60.0028868384,FEMA4ImagesEEG,001,000004,
AFSA21.JPG,AFNE23.JPG,AFNE21.JPG,AFSA25.JPG,AFNE25.JPG,AFSA23.JPG,,,,,,,,,0,2,2,4,,,,,,,,,,,,,,,AFNE13.jpg,AFSA11.jpg,AFSA03.jpg,AFNE12.jpg,AFNE12.jpg,FN,3,num_4,16,num_4,1.13348677522,,,2017_Feb_09_1140,60.0028868384,FEMA4ImagesEEG,001,000004,
AFSA21.JPG,AFNE22.JPG,AFNE21.JPG,AFSA23.JPG,AFSA22.JPG,AFNE23.JPG,,,,,,,,,0,3,3,0,,,,,,,,,,,,,,,AFSA10.jpg,AFSA18.jpg,AFNE09.jpg,AFNE13.jpg,AFSA10.jpg,FS,4,num_8,16,num_8,1.43340286985,,,2017_Feb_09_1140,60.0028868384,FEMA4ImagesEEG,001,000004,
AMSA21.JPG,AMNE22.JPG,AMNE21.JPG,AMSA23.JPG,AMSA22.JPG,AMNE23.JPG,,,,,,,,,0,4,4,1,,,,,,,,,,,,,,,AFNE20.jpg,AFSA20.jpg,AFNE09.jpg,AFSA10.jpg,AFNE09.jpg,FN,3,num_2,16,num_2,1.4167003443,,,2017_Feb_09_1140,60.0028868384,FEMA4ImagesEEG,001,000004,
AMSA21.JPG,AMNE23.JPG,AMNE21.JPG,AMSA25.JPG,AMNE25.JPG,AMSA23.JPG,,,,,,,,,0,5,5,5,,,,,,,,,,,,,,,AFSA08.jpg,AFNE19.jpg,AFNE11.jpg,AFSA05.jpg,AFNE11.jpg,FN,3,num_2,16,num_2,1.16672215471,,,2017_Feb_09_1140,60.0028868384,FEMA4ImagesEEG,001,000004,
AMNE23.JPG,AMNE24.JPG,AMNE22.JPG,AMSA24.JPG,AMSA22.JPG,AMSA23.JPG,,,,,,,,,0,6,6,9,,,,,,,,,,,,,,,AFSA20.jpg,AFSA16.jpg,AFNE17.jpg,AFNE10.jpg,AFNE17.jpg,FN,3,num_2,32,num_8,1.83331697574,,,2017_Feb_09_1140,60.0028868384,FEMA4ImagesEEG,001,000004,
AFSA25.JPG,AFNE24.JPG,AFSA24.JPG,AFNE21.JPG,AFSA21.JPG,AFNE25.JPG,,,,,,,,,0,7,7,2,,,,,,,,,,,,,,,AFNE03.jpg,AFSA20.jpg,AFSA06.jpg,AFNE08.jpg,AFSA06.jpg,FS,4,num_2,16,num_2,1.10013721255,,,2017_Feb_09_1140,60.0028868384,FEMA4ImagesEEG,001,000004,
AMSA25.JPG,AMNE24.JPG,AMSA24.JPG,AMNE26.JPG,AMSA21.JPG,AMNE25.JPG,,,,,,,,,0,8,8,3,,,,,,,,,,,,,,,AFNE17.jpg,AFSA19.jpg,AFSA20.jpg,AFNE19.jpg,AFSA19.jpg,FS,4,num_6,32,num_2,0.933426283766,,,2017_Feb_09_1140,60.0028868384,FEMA4ImagesEEG,001,000004,
AFNE22.JPG,AFSA24.JPG,AFSA22.JPG,AFNE25.JPG,AFNE24.JPG,AFSA25.JPG,,,,,,,,,0,9,9,6,,,,,,,,,,,,,,,AFNE13.jpg,AFSA05.jpg,AFNE11.jpg,AFSA15.jpg,AFNE13.jpg,FN,3,num_8,16,num_8,1.18345001852,,,2017_Feb_09_1140,60.0028868384,FEMA4ImagesEEG,001,000004,
AMNE22.JPG,AMSA24.JPG,AMSA22.JPG,AMNE25.JPG,AMNE24.JPG,AMSA25.JPG,,,,,,,,,,,,,0,0,0,7,,,,,,,,,,,AMSA09.jpg,AMNE02.jpg,AMSA06.jpg,AMNE03.jpg,AMSA06.jpg,MS,2,num_2,32,num_8,1.2998250043,,,2017_Feb_09_1140,60.0028868384,FEMA4ImagesEEG,001,000004,
AFSA21.JPG,AFNE23.JPG,AFNE21.JPG,AFSA25.JPG,AFNE25.JPG,AFSA23.JPG,,,,,,,,,,,,,0,1,1,4,,,,,,,,,,,AMNE13.jpg,AMNE01.jpg,AMSA01.jpg,AMSA02.jpg,AMNE01.jpg,MN,1,num_6,32,num_4,1.20009513129,,,2017_Feb_09_1140,60.0028868384,FEMA4ImagesEEG,001,000004,
AFNE22.JPG,AFSA24.JPG,AFSA22.JPG,AFNE25.JPG,AFNE24.JPG,AFSA25.JPG,,,,,,,,,,,,,0,2,2,6,,,,,,,,,,,AMSA20.jpg,AMSA14.jpg,AMNE11.jpg,AMNE14.jpg,AMNE14.jpg,MN,1,num_4,32,num_8,1.3667585908,,,2017_Feb_09_1140,60.0028868384,FEMA4ImagesEEG,001,000004,
AFSA25.JPG,AFNE24.JPG,AFSA24.JPG,AFNE21.JPG,AFSA21.JPG,AFNE25.JPG,,,,,,,,,,,,,0,3,3,2,,,,,,,,,,,AMSA04.jpg,AMNE05.jpg,AMSA05.jpg,AMNE19.jpg,AMSA04.jpg,MS,2,num_8,16,num_8,1.15008089063,,,2017_Feb_09_1140,60.0028868384,FEMA4ImagesEEG,001,000004,
AMSA21.JPG,AMNE23.JPG,AMNE21.JPG,AMSA25.JPG,AMNE25.JPG,AMSA23.JPG,,,,,,,,,,,,,0,4,4,5,,,,,,,,,,,AMSA06.jpg,AMNE07.jpg,AMNE05.jpg,AMSA17.jpg,AMSA06.jpg,MS,2,num_8,16,num_8,1.48339048913,,,2017_Feb_09_1140,60.0028868384,FEMA4ImagesEEG,001,000004,
AMNE23.JPG,AMNE24.JPG,AMNE22.JPG,AMSA24.JPG,AMSA22.JPG,AMSA23.JPG,,,,,,,,,,,,,0,5,5,9,,,,,,,,,,,AMNE06.jpg,AMNE03.jpg,AMSA02.jpg,AMSA16.jpg,AMNE06.jpg,MN,1,num_8,16,num_8,1.00010616495,,,2017_Feb_09_1140,60.0028868384,FEMA4ImagesEEG,001,000004,
AMSA21.JPG,AMNE22.JPG,AMNE21.JPG,AMSA23.JPG,AMSA22.JPG,AMNE23.JPG,,,,,,,,,,,,,0,6,6,1,,,,,,,,,,,AMSA16.jpg,AMSA07.jpg,AMNE02.jpg,AMNE09.jpg,AMNE02.jpg,MN,1,num_2,16,num_2,1.4000683818,,,2017_Feb_09_1140,60.0028868384,FEMA4ImagesEEG,001,000004,
AFSA21.JPG,AFNE22.JPG,AFNE21.JPG,AFSA23.JPG,AFSA22.JPG,AFNE23.JPG,,,,,,,,,,,,,0,7,7,0,,,,,,,,,,,AMSA05.jpg,AMSA01.jpg,AMNE03.jpg,AMNE15.jpg,AMNE15.jpg,MN,1,num_4,32,num_8,1.21675018733,,,2017_Feb_09_1140,60.0028868384,FEMA4ImagesEEG,001,000004,
AMSA25.JPG,AMNE24.JPG,AMSA24.JPG,AMNE26.JPG,AMSA21.JPG,AMNE25.JPG,,,,,,,,,,,,,0,8,8,3,,,,,,,,,,,AMSA16.jpg,AMNE20.jpg,AMSA17.jpg,AMNE13.jpg,AMSA16.jpg,MS,2,num_8,32,num_2,1.28348042467,,,2017_Feb_09_1140,60.0028868384,FEMA4ImagesEEG,001,000004,
AFNE23.JPG,AFNE24.JPG,AFNE22.JPG,AFSA24.JPG,AFSA22.JPG,AFSA23.JPG,,,,,,,,,,,,,0,9,9,8,,,,,,,,,,,AMNE15.jpg,AMSA07.jpg,AMSA17.jpg,AMNE18.jpg,AMNE18.jpg,MN,1,num_4,32,num_8,1.1832627065,,,2017_Feb_09_1140,60.0028868384,FEMA4ImagesEEG,001,000004,
AMSA21.JPG,AMNE23.JPG,AMNE21.JPG,AMSA25.JPG,AMNE25.JPG,AMSA23.JPG,,,,,,,,,,,,,,,,,0,0,0,5,,,,,,,AFNE04.jpg,AFSA10.jpg,AFNE15.jpg,AFSA16.jpg,AFNE04.jpg,FN,3,num_8,32,num_6,1.00012220186,,,2017_Feb_09_1140,60.0028868384,FEMA4ImagesEEG,001,000004,
AMNE22.JPG,AMSA24.JPG,AMSA22.JPG,AMNE25.JPG,AMNE24.JPG,AMSA25.JPG,,,,,,,,,,,,,,,,,0,1,1,7,,,,,,,AFNE15.jpg,AFSA14.jpg,AFNE07.jpg,AFSA10.jpg,AFNE07.jpg,FN,3,num_2,32,num_8,1.68341056746,,,2017_Feb_09_1140,60.0028868384,FEMA4ImagesEEG,001,000004,
AFNE22.JPG,AFSA24.JPG,AFSA22.JPG,AFNE25.JPG,AFNE24.JPG,AFSA25.JPG,,,,,,,,,,,,,,,,,0,2,2,6,,,,,,,AFSA03.jpg,AFNE01.jpg,AFNE19.jpg,AFSA06.jpg,AFNE19.jpg,FN,3,num_2,32,num_8,0.966740244301,,,2017_Feb_09_1140,60.0028868384,FEMA4ImagesEEG,001,000004,
AMSA25.JPG,AMNE24.JPG,AMSA24.JPG,AMNE26.JPG,AMSA21.JPG,AMNE25.JPG,,,,,,,,,,,,,,,,,0,3,3,3,,,,,,,AFSA04.jpg,AFNE10.jpg,AFSA11.jpg,AFNE14.jpg,AFSA04.jpg,FS,4,num_8,32,num_2,1.60011059092,,,2017_Feb_09_1140,60.0028868384,FEMA4ImagesEEG,001,000004,
AFSA25.JPG,AFNE24.JPG,AFSA24.JPG,AFNE21.JPG,AFSA21.JPG,AFNE25.JPG,,,,,,,,,,,,,,,,,0,4,4,2,,,,,,,AFNE07.jpg,AFSA07.jpg,AFNE13.jpg,AFSA19.jpg,AFNE13.jpg,FN,3,num_2,32,num_6,0.666769303381,,,2017_Feb_09_1140,60.0028868384,FEMA4ImagesEEG,001,000004,
AFSA21.JPG,AFNE22.JPG,AFNE21.JPG,AFSA23.JPG,AFSA22.JPG,AFNE23.JPG,,,,,,,,,,,,,,,,,0,5,5,0,,,,,,,AFSA11.jpg,AFSA12.jpg,AFNE17.jpg,AFNE16.jpg,AFNE16.jpg,FN,3,num_4,16,num_4,1.00011642859,,,2017_Feb_09_1140,60.0028868384,FEMA4ImagesEEG,001,000004,
AFNE23.JPG,AFNE24.JPG,AFNE22.JPG,AFSA24.JPG,AFSA22.JPG,AFSA23.JPG,,,,,,,,,,,,,,,,,0,6,6,8,,,,,,,AFNE14.jpg,AFSA18.jpg,AFSA02.jpg,AFNE13.jpg,AFSA02.jpg,FS,4,num_2,16,num_2,1.13343770197,,,2017_Feb_09_1140,60.0028868384,FEMA4ImagesEEG,001,000004,
AMSA21.JPG,AMNE22.JPG,AMNE21.JPG,AMSA23.JPG,AMSA22.JPG,AMNE23.JPG,,,,,,,,,,,,,,,,,0,7,7,1,,,,,,,AFNE13.jpg,AFSA18.jpg,AFSA17.jpg,AFNE06.jpg,AFNE13.jpg,FN,3,num_8,16,num_8,1.40005908022,,,2017_Feb_09_1140,60.0028868384,FEMA4ImagesEEG,001,000004,
AMNE23.JPG,AMNE24.JPG,AMNE22.JPG,AMSA24.JPG,AMSA22.JPG,AMSA23.JPG,,,,,,,,,,,,,,,,,0,8,8,9,,,,,,,AFNE04.jpg,AFSA08.jpg,AFSA12.jpg,AFNE14.jpg,AFNE04.jpg,FN,3,num_8,16,num_8,1.16678886861,,,2017_Feb_09_1140,60.0028868384,FEMA4ImagesEEG,001,000004,
AFSA21.JPG,AFNE23.JPG,AFNE21.JPG,AFSA25.JPG,AFNE25.JPG,AFSA23.JPG,,,,,,,,,,,,,,,,,0,9,9,4,,,,,,,AFSA01.jpg,AFSA05.jpg,AFNE04.jpg,AFNE07.jpg,AFNE07.jpg,FN,3,num_4,32,num_2,1.01674550446,,,2017_Feb_09_1140,60.0028868384,FEMA4ImagesEEG,001,000004,
AFNE23.JPG,AFNE24.JPG,AFNE22.JPG,AFSA24.JPG,AFSA22.JPG,AFSA23.JPG,,,,,,,,,,,,,,,,,,,,,0,0,0,8,,,AMNE12.jpg,AMSA11.jpg,AMNE02.jpg,AMSA07.jpg,AMSA11.jpg,MS,2,num_6,32,num_4,1.20016280748,,,2017_Feb_09_1140,60.0028868384,FEMA4ImagesEEG,001,000004,
AMNE22.JPG,AMSA24.JPG,AMSA22.JPG,AMNE25.JPG,AMNE24.JPG,AMSA25.JPG,,,,,,,,,,,,,,,,,,,,,0,1,1,7,,,AMSA07.jpg,AMSA02.jpg,AMNE05.jpg,AMNE06.jpg,AMSA07.jpg,MS,2,num_8,16,num_8,2.28305512364,,,2017_Feb_09_1140,60.0028868384,FEMA4ImagesEEG,001,000004,
AMSA25.JPG,AMNE24.JPG,AMSA24.JPG,AMNE26.JPG,AMSA21.JPG,AMNE25.JPG,,,,,,,,,,,,,,,,,,,,,0,2,2,3,,,AMNE19.jpg,AMSA18.jpg,AMSA19.jpg,AMNE18.jpg,AMNE18.jpg,MN,1,num_4,32,num_8,1.41674075741,,,2017_Feb_09_1140,60.0028868384,FEMA4ImagesEEG,001,000004,
AFSA25.JPG,AFNE24.JPG,AFSA24.JPG,AFNE21.JPG,AFSA21.JPG,AFNE25.JPG,,,,,,,,,,,,,,,,,,,,,0,3,3,2,,,AMSA14.jpg,AMNE07.jpg,AMSA09.jpg,AMNE14.jpg,AMNE07.jpg,MN,1,num_6,16,num_6,0.966761413263,,,2017_Feb_09_1140,60.0028868384,FEMA4ImagesEEG,001,000004,
AFNE22.JPG,AFSA24.JPG,AFSA22.JPG,AFNE25.JPG,AFNE24.JPG,AFSA25.JPG,,,,,,,,,,,,,,,,,,,,,0,4,4,6,,,AMSA17.jpg,AMNE10.jpg,AMSA18.jpg,AMNE08.jpg,AMNE10.jpg,MN,1,num_6,16,num_6,1.01665698015,,,2017_Feb_09_1140,60.0028868384,FEMA4ImagesEEG,001,000004,
AFSA21.JPG,AFNE22.JPG,AFNE21.JPG,AFSA23.JPG,AFSA22.JPG,AFNE23.JPG,,,,,,,,,,,,,,,,,,,,,0,5,5,0,,,AMSA12.jpg,AMNE01.jpg,AMNE12.jpg,AMSA18.jpg,AMNE01.jpg,MN,1,num_6,16,num_6,0.900177753996,,,2017_Feb_09_1140,60.0028868384,FEMA4ImagesEEG,001,000004,
AMSA21.JPG,AMNE23.JPG,AMNE21.JPG,AMSA25.JPG,AMNE25.JPG,AMSA23.JPG,,,,,,,,,,,,,,,,,,,,,0,6,6,5,,,AMSA20.jpg,AMSA19.jpg,AMNE11.jpg,AMNE14.jpg,AMSA20.jpg,MS,2,num_8,16,num_8,1.44991968665,,,2017_Feb_09_1140,60.0028868384,FEMA4ImagesEEG,001,000004,
AMNE23.JPG,AMNE24.JPG,AMNE22.JPG,AMSA24.JPG,AMSA22.JPG,AMSA23.JPG,,,,,,,,,,,,,,,,,,,,,0,7,7,9,,,AMNE01.jpg,AMNE07.jpg,AMSA01.jpg,AMSA12.jpg,AMSA01.jpg,MS,2,num_2,16,num_2,0.833541493397,,,2017_Feb_09_1140,60.0028868384,FEMA4ImagesEEG,001,000004,
AMSA21.JPG,AMNE22.JPG,AMNE21.JPG,AMSA23.JPG,AMSA22.JPG,AMNE23.JPG,,,,,,,,,,,,,,,,,,,,,0,8,8,1,,,AMNE14.jpg,AMSA15.jpg,AMSA09.jpg,AMNE08.jpg,AMNE08.jpg,MN,1,num_4,16,num_4,1.01675769268,,,2017_Feb_09_1140,60.0028868384,FEMA4ImagesEEG,001,000004,
AFSA21.JPG,AFNE23.JPG,AFNE21.JPG,AFSA25.JPG,AFNE25.JPG,AFSA23.JPG,,,,,,,,,,,,,,,,,,,,,0,9,9,4,,,AMNE09.jpg,AMSA06.jpg,AMNE14.jpg,AMSA01.jpg,AMSA06.jpg,MS,2,num_6,32,num_8,0.983434430556,,,2017_Feb_09_1140,60.0028868384,FEMA4ImagesEEG,001,000004,
,,,,,,,,,,,,,,,,,,,,,,,,,,,,,,,,,,,,,,,,,,,space,22.3314740048,2017_Feb_09_1140,60.0028868384,FEMA4ImagesEEG,001,000004,
AFNE01.JPG,AFNE01.JPG,AFNE01.JPG,AFNE01.JPG,AFNE01.JPG,AFNE01.JPG,0,0,0,8,,,,,,,,,,,,,,,,,,,,,,,AFSA02.jpg,AFNE19.jpg,AFSA13.jpg,AFNE12.jpg,AFNE19.jpg,FN,3,num_6,32,num_8,1.20032862993,,,2017_Feb_09_1140,60.0028868384,FEMA4ImagesEEG,001,000004,
AFNE01.JPG,AFNE01.JPG,AFNE01.JPG,AFNE01.JPG,AFNE01.JPG,AFNE01.JPG,0,1,1,2,,,,,,,,,,,,,,,,,,,,,,,AFSA02.jpg,AFNE10.jpg,AFSA01.jpg,AFNE13.jpg,AFSA01.jpg,FS,4,num_2,16,num_2,1.00011803233,,,2017_Feb_09_1140,60.0028868384,FEMA4ImagesEEG,001,000004,
AFNE01.JPG,AFNE01.JPG,AFNE01.JPG,AFNE01.JPG,AFNE01.JPG,AFNE01.JPG,0,2,2,1,,,,,,,,,,,,,,,,,,,,,,,AFSA17.jpg,AFNE01.jpg,AFSA18.jpg,AFNE02.jpg,AFNE02.jpg,FN,3,num_4,16,num_4,0.850163513096,,,2017_Feb_09_1140,60.0028868384,FEMA4ImagesEEG,001,000004,
AFNE01.JPG,AFNE01.JPG,AFNE01.JPG,AFNE01.JPG,AFNE01.JPG,AFNE01.JPG,0,3,3,5,,,,,,,,,,,,,,,,,,,,,,,AFSA02.jpg,AFNE03.jpg,AFSA17.jpg,AFNE01.jpg,AFSA17.jpg,FS,4,num_2,16,num_2,0.933458036976,,,2017_Feb_09_1140,60.0028868384,FEMA4ImagesEEG,001,000004,
AFNE01.JPG,AFNE01.JPG,AFNE01.JPG,AFNE01.JPG,AFNE01.JPG,AFNE01.JPG,0,4,4,0,,,,,,,,,,,,,,,,,,,,,,,AFNE07.jpg,AFSA10.jpg,AFNE15.jpg,AFSA12.jpg,AFNE15.jpg,FN,3,num_2,16,num_2,1.05008576578,,,2017_Feb_09_1140,60.0028868384,FEMA4ImagesEEG,001,000004,
AFNE01.JPG,AFNE01.JPG,AFNE01.JPG,AFNE01.JPG,AFNE01.JPG,AFNE01.JPG,0,5,5,3,,,,,,,,,,,,,,,,,,,,,,,AFSA12.jpg,AFNE09.jpg,AFNE13.jpg,AFSA07.jpg,AFNE09.jpg,FN,3,num_6,16,num_6,0.733519105706,,,2017_Feb_09_1140,60.0028868384,FEMA4ImagesEEG,001,000004,
AFNE01.JPG,AFNE01.JPG,AFNE01.JPG,AFNE01.JPG,AFNE01.JPG,AFNE01.JPG,0,6,6,9,,,,,,,,,,,,,,,,,,,,,,,AFNE03.jpg,AFSA10.jpg,AFNE09.jpg,AFSA13.jpg,AFNE03.jpg,FN,3,num_8,16,num_8,1.11676147743,,,2017_Feb_09_1140,60.0028868384,FEMA4ImagesEEG,001,000004,
AFNE01.JPG,AFNE01.JPG,AFNE01.JPG,AFNE01.JPG,AFNE01.JPG,AFNE01.JPG,0,7,7,7,,,,,,,,,,,,,,,,,,,,,,,AFSA19.jpg,AFNE08.jpg,AFSA13.jpg,AFNE03.jpg,AFSA19.jpg,FS,4,num_8,16,num_8,0.933474394493,,,2017_Feb_09_1140,60.0028868384,FEMA4ImagesEEG,001,000004,
AFNE01.JPG,AFNE01.JPG,AFNE01.JPG,AFNE01.JPG,AFNE01.JPG,AFNE01.JPG,0,8,8,4,,,,,,,,,,,,,,,,,,,,,,,AFNE05.jpg,AFNE07.jpg,AFSA07.jpg,AFSA19.jpg,AFNE07.jpg,FN,3,num_6,16,num_6,0.749834818998,,,2017_Feb_09_1140,60.0028868384,FEMA4ImagesEEG,001,000004,
AFNE01.JPG,AFNE01.JPG,AFNE01.JPG,AFNE01.JPG,AFNE01.JPG,AFNE01.JPG,0,9,9,6,,,,,,,,,,,,,,,,,,,,,,,AFSA16.jpg,AFNE06.jpg,AFSA19.jpg,AFNE10.jpg,AFNE10.jpg,FN,3,num_4,16,num_4,0.916744285729,,,2017_Feb_09_1140,60.0028868384,FEMA4ImagesEEG,001,000004,
AFNE01.JPG,AFNE01.JPG,AFNE01.JPG,AFNE01.JPG,AFNE01.JPG,AFNE01.JPG,1,0,10,6,,,,,,,,,,,,,,,,,,,,,,,AFNE02.jpg,AFSA04.jpg,AFSA12.jpg,AFNE13.jpg,AFSA04.jpg,FS,4,num_6,16,num_6,1.16678822716,,,2017_Feb_09_1140,60.0028868384,FEMA4ImagesEEG,001,000004,
AFNE01.JPG,AFNE01.JPG,AFNE01.JPG,AFNE01.JPG,AFNE01.JPG,AFNE01.JPG,1,1,11,7,,,,,,,,,,,,,,,,,,,,,,,AFNE10.jpg,AFSA08.jpg,AFSA04.jpg,AFNE02.jpg,AFNE02.jpg,FN,3,num_4,16,num_4,1.00011322112,,,2017_Feb_09_1140,60.0028868384,FEMA4ImagesEEG,001,000004,
AFNE01.JPG,AFNE01.JPG,AFNE01.JPG,AFNE01.JPG,AFNE01.JPG,AFNE01.JPG,1,2,12,9,,,,,,,,,,,,,,,,,,,,,,,AFSA07.jpg,AFNE07.jpg,AFSA12.jpg,AFNE16.jpg,AFSA12.jpg,FS,4,num_2,16,num_2,0.900111681549,,,2017_Feb_09_1140,60.0028868384,FEMA4ImagesEEG,001,000004,
AFNE01.JPG,AFNE01.JPG,AFNE01.JPG,AFNE01.JPG,AFNE01.JPG,AFNE01.JPG,1,3,13,3,,,,,,,,,,,,,,,,,,,,,,,AFSA05.jpg,AFNE04.jpg,AFNE10.jpg,AFSA20.jpg,AFNE10.jpg,FN,3,num_2,32,num_8,1.28345091664,,,2017_Feb_09_1140,60.0028868384,FEMA4ImagesEEG,001,000004,
AFNE01.JPG,AFNE01.JPG,AFNE01.JPG,AFNE01.JPG,AFNE01.JPG,AFNE01.JPG,1,4,14,2,,,,,,,,,,,,,,,,,,,,,,,AFNE08.jpg,AFSA18.jpg,AFNE06.jpg,AFSA05.jpg,AFSA05.jpg,FS,4,num_4,16,num_4,1.06673344458,,,2017_Feb_09_1140,60.0028868384,FEMA4ImagesEEG,001,000004,
AFNE01.JPG,AFNE01.JPG,AFNE01.JPG,AFNE01.JPG,AFNE01.JPG,AFNE01.JPG,1,5,15,1,,,,,,,,,,,,,,,,,,,,,,,AFNE09.jpg,AFSA10.jpg,AFNE16.jpg,AFSA18.jpg,AFNE09.jpg,FN,3,num_8,16,num_8,1.0834504033,,,2017_Feb_09_1140,60.0028868384,FEMA4ImagesEEG,001,000004,
AFNE01.JPG,AFNE01.JPG,AFNE01.JPG,AFNE01.JPG,AFNE01.JPG,AFNE01.JPG,1,6,16,5,,,,,,,,,,,,,,,,,,,,,,,AFNE18.jpg,AFSA15.jpg,AFSA07.jpg,AFNE14.jpg,AFSA07.jpg,FS,4,num_2,16,num_2,0.950087754289,,,2017_Feb_09_1140,60.0028868384,FEMA4ImagesEEG,001,000004,
AFNE01.JPG,AFNE01.JPG,AFNE01.JPG,AFNE01.JPG,AFNE01.JPG,AFNE01.JPG,1,7,17,4,,,,,,,,,,,,,,,,,,,,,,,AFNE15.jpg,AFSA07.jpg,AFNE19.jpg,AFSA09.jpg,AFNE15.jpg,FN,3,num_8,16,num_8,1.05009538797,,,2017_Feb_09_1140,60.0028868384,FEMA4ImagesEEG,001,000004,
AFNE01.JPG,AFNE01.JPG,AFNE01.JPG,AFNE01.JPG,AFNE01.JPG,AFNE01.JPG,1,8,18,0,,,,,,,,,,,,,,,,,,,,,,,AFSA07.jpg,AFSA10.jpg,AFNE04.jpg,AFNE07.jpg,AFSA07.jpg,FS,4,num_8,16,num_8,0.983467466896,,,2017_Feb_09_1140,60.0028868384,FEMA4ImagesEEG,001,000004,
AFNE01.JPG,AFNE01.JPG,AFNE01.JPG,AFNE01.JPG,AFNE01.JPG,AFNE01.JPG,1,9,19,8,,,,,,,,,,,,,,,,,,,,,,,AFNE14.jpg,AFSA06.jpg,AFSA04.jpg,AFNE11.jpg,AFNE14.jpg,FN,3,num_8,16,num_8,0.883173091803,,,2017_Feb_09_1140,60.0028868384,FEMA4ImagesEEG,001,000004,
AFNE01.JPG,AFNE01.JPG,AFNE01.JPG,AFNE01.JPG,AFNE01.JPG,AFNE01.JPG,2,0,20,0,,,,,,,,,,,,,,,,,,,,,,,AFNE14.jpg,AFSA09.jpg,AFNE02.jpg,AFSA05.jpg,AFSA05.jpg,FS,4,num_4,32,num_8,1.31673023733,,,2017_Feb_09_1140,60.0028868384,FEMA4ImagesEEG,001,000004,
AFNE01.JPG,AFNE01.JPG,AFNE01.JPG,AFNE01.JPG,AFNE01.JPG,AFNE01.JPG,2,1,21,8,,,,,,,,,,,,,,,,,,,,,,,AFSA18.jpg,AFNE02.jpg,AFSA16.jpg,AFNE01.jpg,AFNE02.jpg,FN,3,num_6,16,num_6,1.30032215104,,,2017_Feb_09_1140,60.0028868384,FEMA4ImagesEEG,001,000004,
AFNE01.JPG,AFNE01.JPG,AFNE01.JPG,AFNE01.JPG,AFNE01.JPG,AFNE01.JPG,2,2,22,5,,,,,,,,,,,,,,,,,,,,,,,AFSA02.jpg,AFNE11.jpg,AFNE05.jpg,AFSA01.jpg,AFSA02.jpg,FS,4,num_8,32,num_2,1.10031778901,,,2017_Feb_09_1140,60.0028868384,FEMA4ImagesEEG,001,000004,
AFNE01.JPG,AFNE01.JPG,AFNE01.JPG,AFNE01.JPG,AFNE01.JPG,AFNE01.JPG,2,3,23,6,,,,,,,,,,,,,,,,,,,,,,,AFSA10.jpg,AFNE19.jpg,AFNE07.jpg,AFSA19.jpg,AFSA10.jpg,FS,4,num_8,16,num_8,1.36673774244,,,2017_Feb_09_1140,60.0028868384,FEMA4ImagesEEG,001,000004,
AFNE01.JPG,AFNE01.JPG,AFNE01.JPG,AFNE01.JPG,AFNE01.JPG,AFNE01.JPG,2,4,24,7,,,,,,,,,,,,,,,,,,,,,,,AFSA17.jpg,AFSA05.jpg,AFNE02.jpg,AFNE15.jpg,AFNE02.jpg,FN,3,num_2,32,num_6,1.80007165344,,,2017_Feb_09_1140,60.0028868384,FEMA4ImagesEEG,001,000004,
AFNE01.JPG,AFNE01.JPG,AFNE01.JPG,AFNE01.JPG,AFNE01.JPG,AFNE01.JPG,2,5,25,2,,,,,,,,,,,,,,,,,,,,,,,AFNE17.jpg,AFNE01.jpg,AFSA05.jpg,AFSA20.jpg,AFSA20.jpg,FS,4,num_4,32,num_8,1.60014940053,,,2017_Feb_09_1140,60.0028868384,FEMA4ImagesEEG,001,000004,
AFNE01.JPG,AFNE01.JPG,AFNE01.JPG,AFNE01.JPG,AFNE01.JPG,AFNE01.JPG,2,6,26,3,,,,,,,,,,,,,,,,,,,,,,,AFSA15.jpg,AFNE14.jpg,AFSA06.jpg,AFNE16.jpg,AFNE14.jpg,FN,3,num_6,16,num_6,0.883447324159,,,2017_Feb_09_1140,60.0028868384,FEMA4ImagesEEG,001,000004,
AFNE01.JPG,AFNE01.JPG,AFNE01.JPG,AFNE01.JPG,AFNE01.JPG,AFNE01.JPG,2,7,27,4,,,,,,,,,,,,,,,,,,,,,,,AFSA16.jpg,AFSA15.jpg,AFNE10.jpg,AFNE19.jpg,AFNE10.jpg,FN,3,num_2,32,num_6,1.63332865061,,,2017_Feb_09_1140,60.0028868384,FEMA4ImagesEEG,001,000004,
AFNE01.JPG,AFNE01.JPG,AFNE01.JPG,AFNE01.JPG,AFNE01.JPG,AFNE01.JPG,2,8,28,9,,,,,,,,,,,,,,,,,,,,,,,AFNE11.jpg,AFSA10.jpg,AFSA18.jpg,AFNE15.jpg,AFSA10.jpg,FS,4,num_6,16,num_6,1.13351435889,,,2017_Feb_09_1140,60.0028868384,FEMA4ImagesEEG,001,000004,
AFNE01.JPG,AFNE01.JPG,AFNE01.JPG,AFNE01.JPG,AFNE01.JPG,AFNE01.JPG,2,9,29,1,,,,,,,,,,,,,,,,,,,,,,,AFSA16.jpg,AFNE01.jpg,AFSA10.jpg,AFNE14.jpg,AFNE14.jpg,FN,3,num_4,32,num_2,0.93346701772,,,2017_Feb_09_1140,60.0028868384,FEMA4ImagesEEG,001,000004,
AFNE01.JPG,AFNE01.JPG,AFNE01.JPG,AFNE01.JPG,AFNE01.JPG,AFNE01.JPG,3,0,30,3,,,,,,,,,,,,,,,,,,,,,,,AFNE05.jpg,AFNE18.jpg,AFSA19.jpg,AFSA08.jpg,AFNE18.jpg,FN,3,num_6,32,num_8,0.883410439128,,,2017_Feb_09_1140,60.0028868384,FEMA4ImagesEEG,001,000004,
AFNE01.JPG,AFNE01.JPG,AFNE01.JPG,AFNE01.JPG,AFNE01.JPG,AFNE01.JPG,3,1,31,2,,,,,,,,,,,,,,,,,,,,,,,AFSA05.jpg,AFSA14.jpg,AFNE14.jpg,AFNE11.jpg,AFSA14.jpg,FS,4,num_6,16,num_6,0.950094169239,,,2017_Feb_09_1140,60.0028868384,FEMA4ImagesEEG,001,000004,
AFNE01.JPG,AFNE01.JPG,AFNE01.JPG,AFNE01.JPG,AFNE01.JPG,AFNE01.JPG,3,2,32,8,,,,,,,,,,,,,,,,,,,,,,,AFSA03.jpg,AFNE08.jpg,AFSA13.jpg,AFNE17.jpg,AFSA03.jpg,FS,4,num_8,32,num_4,1.00017512403,,,2017_Feb_09_1140,60.0028868384,FEMA4ImagesEEG,001,000004,
AFNE01.JPG,AFNE01.JPG,AFNE01.JPG,AFNE01.JPG,AFNE01.JPG,AFNE01.JPG,3,3,33,0,,,,,,,,,,,,,,,,,,,,,,,AFSA07.jpg,AFNE18.jpg,AFNE17.jpg,AFSA05.jpg,AFNE18.jpg,FN,3,num_6,32,num_8,0.766768597765,,,2017_Feb_09_1140,60.0028868384,FEMA4ImagesEEG,001,000004,
AFNE01.JPG,AFNE01.JPG,AFNE01.JPG,AFNE01.JPG,AFNE01.JPG,AFNE01.JPG,3,4,34,5,,,,,,,,,,,,,,,,,,,,,,,AFNE08.jpg,AFSA06.jpg,AFNE07.jpg,AFSA20.jpg,AFSA20.jpg,FS,4,num_4,32,num_2,0.783437124686,,,2017_Feb_09_1140,60.0028868384,FEMA4ImagesEEG,001,000004,
AFNE01.JPG,AFNE01.JPG,AFNE01.JPG,AFNE01.JPG,AFNE01.JPG,AFNE01.JPG,3,5,35,9,,,,,,,,,,,,,,,,,,,,,,,AFNE19.jpg,AFSA02.jpg,AFSA15.jpg,AFNE12.jpg,AFNE12.jpg,FN,3,num_4,16,num_4,0.900150490925,,,2017_Feb_09_1140,60.0028868384,FEMA4ImagesEEG,001,000004,
AFNE01.JPG,AFNE01.JPG,AFNE01.JPG,AFNE01.JPG,AFNE01.JPG,AFNE01.JPG,3,6,36,1,,,,,,,,,,,,,,,,,,,,,,,AFNE17.jpg,AFNE20.jpg,AFSA18.jpg,AFSA01.jpg,AFNE17.jpg,FN,3,num_8,16,num_8,0.816761669936,,,2017_Feb_09_1140,60.0028868384,FEMA4ImagesEEG,001,000004,
AFNE01.JPG,AFNE01.JPG,AFNE01.JPG,AFNE01.JPG,AFNE01.JPG,AFNE01.JPG,3,7,37,4,,,,,,,,,,,,,,,,,,,,,,,AFSA14.jpg,AFNE14.jpg,AFSA10.jpg,AFNE08.jpg,AFSA10.jpg,FS,4,num_2,32,num_6,0.866757307667,,,2017_Feb_09_1140,60.0028868384,FEMA4ImagesEEG,001,000004,
AFNE01.JPG,AFNE01.JPG,AFNE01.JPG,AFNE01.JPG,AFNE01.JPG,AFNE01.JPG,3,8,38,6,,,,,,,,,,,,,,,,,,,,,,,AFNE11.jpg,AFSA16.jpg,AFSA01.jpg,AFNE18.jpg,AFNE11.jpg,FN,3,num_8,16,num_8,1.58344430942,,,2017_Feb_09_1140,60.0028868384,FEMA4ImagesEEG,001,000004,
AFNE01.JPG,AFNE01.JPG,AFNE01.JPG,AFNE01.JPG,AFNE01.JPG,AFNE01.JPG,3,9,39,7,,,,,,,,,,,,,,,,,,,,,,,AFNE01.jpg,AFSA05.jpg,AFSA07.jpg,AFNE04.jpg,AFSA07.jpg,FS,4,num_2,32,num_8,0.816641392419,,,2017_Feb_09_1140,60.0028868384,FEMA4ImagesEEG,001,000004,
AFNE01.JPG,AFNE01.JPG,AFNE01.JPG,AFNE01.JPG,AFNE01.JPG,AFNE01.JPG,4,0,40,6,,,,,,,,,,,,,,,,,,,,,,,AFNE18.jpg,AFSA06.jpg,AFNE17.jpg,AFSA17.jpg,AFSA17.jpg,FS,4,num_4,32,num_8,0.950114375912,,,2017_Feb_09_1140,60.0028868384,FEMA4ImagesEEG,001,000004,
AFNE01.JPG,AFNE01.JPG,AFNE01.JPG,AFNE01.JPG,AFNE01.JPG,AFNE01.JPG,4,1,41,4,,,,,,,,,,,,,,,,,,,,,,,AFNE18.jpg,AFNE02.jpg,AFSA20.jpg,AFSA07.jpg,AFNE18.jpg,FN,3,num_8,32,num_4,0.816629525041,,,2017_Feb_09_1140,60.0028868384,FEMA4ImagesEEG,001,000004,
AFNE01.JPG,AFNE01.JPG,AFNE01.JPG,AFNE01.JPG,AFNE01.JPG,AFNE01.JPG,4,2,42,2,,,,,,,,,,,,,,,,,,,,,,,AFSA14.jpg,AFSA06.jpg,AFNE02.jpg,AFNE15.jpg,AFNE02.jpg,FN,3,num_2,16,num_2,0.850116685266,,,2017_Feb_09_1140,60.0028868384,FEMA4ImagesEEG,001,000004,
AFNE01.JPG,AFNE01.JPG,AFNE01.JPG,AFNE01.JPG,AFNE01.JPG,AFNE01.JPG,4,3,43,8,,,,,,,,,,,,,,,,,,,,,,,AFNE17.jpg,AFSA04.jpg,AFSA01.jpg,AFNE08.jpg,AFSA04.jpg,FS,4,num_6,16,num_6,0.900084739318,,,2017_Feb_09_1140,60.0028868384,FEMA4ImagesEEG,001,000004,
AFNE01.JPG,AFNE01.JPG,AFNE01.JPG,AFNE01.JPG,AFNE01.JPG,AFNE01.JPG,4,4,44,1,,,,,,,,,,,,,,,,,,,,,,,AFNE15.jpg,AFSA06.jpg,AFSA12.jpg,AFNE18.jpg,AFNE15.jpg,FN,3,num_8,16,num_8,1.16673626704,,,2017_Feb_09_1140,60.0028868384,FEMA4ImagesEEG,001,000004,
AFNE01.JPG,AFNE01.JPG,AFNE01.JPG,AFNE01.JPG,AFNE01.JPG,AFNE01.JPG,4,5,45,7,,,,,,,,,,,,,,,,,,,,,,,AFSA12.jpg,AFNE17.jpg,AFNE19.jpg,AFSA10.jpg,AFNE19.jpg,FN,3,num_2,16,num_2,1.16660604696,,,2017_Feb_09_1140,60.0028868384,FEMA4ImagesEEG,001,000004,
AFNE01.JPG,AFNE01.JPG,AFNE01.JPG,AFNE01.JPG,AFNE01.JPG,AFNE01.JPG,4,6,46,9,,,,,,,,,,,,,,,,,,,,,,,AFNE08.jpg,AFSA07.jpg,AFNE01.jpg,AFSA01.jpg,AFNE08.jpg,FN,3,num_8,16,num_8,0.833483439637,,,2017_Feb_09_1140,60.0028868384,FEMA4ImagesEEG,001,000004,
AFNE01.JPG,AFNE01.JPG,AFNE01.JPG,AFNE01.JPG,AFNE01.JPG,AFNE01.JPG,4,7,47,5,,,,,,,,,,,,,,,,,,,,,,,AFSA07.jpg,AFSA16.jpg,AFNE19.jpg,AFNE06.jpg,AFNE06.jpg,FN,3,num_4,32,num_8,0.816754934378,,,2017_Feb_09_1140,60.0028868384,FEMA4ImagesEEG,001,000004,
AFNE01.JPG,AFNE01.JPG,AFNE01.JPG,AFNE01.JPG,AFNE01.JPG,AFNE01.JPG,4,8,48,0,,,,,,,,,,,,,,,,,,,,,,,AFSA11.jpg,AFSA13.jpg,AFNE20.jpg,AFNE13.jpg,AFSA13.jpg,FS,4,num_6,16,num_6,0.916823829291,,,2017_Feb_09_1140,60.0028868384,FEMA4ImagesEEG,001,000004,
AFNE01.JPG,AFNE01.JPG,AFNE01.JPG,AFNE01.JPG,AFNE01.JPG,AFNE01.JPG,4,9,49,3,,,,,,,,,,,,,,,,,,,,,,,AFSA09.jpg,AFSA14.jpg,AFNE06.jpg,AFNE15.jpg,AFNE15.jpg,FN,3,num_4,16,num_4,1.30011046282,,,2017_Feb_09_1140,60.0028868384,FEMA4ImagesEEG,001,000004,
AFNE01.JPG,AFNE01.JPG,AFNE01.JPG,AFNE01.JPG,AFNE01.JPG,AFNE01.JPG,5,0,50,5,,,,,,,,,,,,,,,,,,,,,,,AFSA01.jpg,AFNE12.jpg,AFNE07.jpg,AFSA16.jpg,AFSA16.jpg,FS,4,num_4,16,num_4,0.933406718541,,,2017_Feb_09_1140,60.0028868384,FEMA4ImagesEEG,001,000004,
AFNE01.JPG,AFNE01.JPG,AFNE01.JPG,AFNE01.JPG,AFNE01.JPG,AFNE01.JPG,5,1,51,4,,,,,,,,,,,,,,,,,,,,,,,AFSA06.jpg,AFNE10.jpg,AFNE17.jpg,AFSA03.jpg,AFSA03.jpg,FS,4,num_4,32,num_2,1.00012829597,,,2017_Feb_09_1140,60.0028868384,FEMA4ImagesEEG,001,000004,
AFNE01.JPG,AFNE01.JPG,AFNE01.JPG,AFNE01.JPG,AFNE01.JPG,AFNE01.JPG,5,2,52,7,,,,,,,,,,,,,,,,,,,,,,,AFSA05.jpg,AFNE20.jpg,AFSA20.jpg,AFNE16.jpg,AFSA20.jpg,FS,4,num_2,32,num_8,0.883473624941,,,2017_Feb_09_1140,60.0028868384,FEMA4ImagesEEG,001,000004,
AFNE01.JPG,AFNE01.JPG,AFNE01.JPG,AFNE01.JPG,AFNE01.JPG,AFNE01.JPG,5,3,53,6,,,,,,,,,,,,,,,,,,,,,,,AFNE13.jpg,AFSA15.jpg,AFNE20.jpg,AFSA03.jpg,AFNE13.jpg,FN,3,num_8,16,num_8,0.916778604966,,,2017_Feb_09_1140,60.0028868384,FEMA4ImagesEEG,001,000004,
AFNE01.JPG,AFNE01.JPG,AFNE01.JPG,AFNE01.JPG,AFNE01.JPG,AFNE01.JPG,5,4,54,0,,,,,,,,,,,,,,,,,,,,,,,AFNE05.jpg,AFSA02.jpg,AFSA04.jpg,AFNE14.jpg,AFNE14.jpg,FN,3,num_4,32,num_6,0.883485812927,,,2017_Feb_09_1140,60.0028868384,FEMA4ImagesEEG,001,000004,
AFNE01.JPG,AFNE01.JPG,AFNE01.JPG,AFNE01.JPG,AFNE01.JPG,AFNE01.JPG,5,5,55,8,,,,,,,,,,,,,,,,,,,,,,,AFSA18.jpg,AFNE17.jpg,AFSA20.jpg,AFNE15.jpg,AFNE15.jpg,FN,3,num_4,32,num_2,1.03348042443,,,2017_Feb_09_1140,60.0028868384,FEMA4ImagesEEG,001,000004,
AFNE01.JPG,AFNE01.JPG,AFNE01.JPG,AFNE01.JPG,AFNE01.JPG,AFNE01.JPG,5,6,56,2,,,,,,,,,,,,,,,,,,,,,,,AFSA11.jpg,AFSA14.jpg,AFNE19.jpg,AFNE04.jpg,AFSA11.jpg,FS,4,num_8,16,num_8,1.01670829882,,,2017_Feb_09_1140,60.0028868384,FEMA4ImagesEEG,001,000004,
AFNE01.JPG,AFNE01.JPG,AFNE01.JPG,AFNE01.JPG,AFNE01.JPG,AFNE01.JPG,5,7,57,3,,,,,,,,,,,,,,,,,,,,,,,AFSA17.jpg,AFNE07.jpg,AFSA08.jpg,AFNE05.jpg,AFNE07.jpg,FN,3,num_6,16,num_6,1.18341281265,,,2017_Feb_09_1140,60.0028868384,FEMA4ImagesEEG,001,000004,
AFNE01.JPG,AFNE01.JPG,AFNE01.JPG,AFNE01.JPG,AFNE01.JPG,AFNE01.JPG,5,8,58,1,,,,,,,,,,,,,,,,,,,,,,,AFNE19.jpg,AFSA17.jpg,AFSA13.jpg,AFNE05.jpg,AFNE19.jpg,FN,3,num_8,32,num_6,1.08351936238,,,2017_Feb_09_1140,60.0028868384,FEMA4ImagesEEG,001,000004,
AFNE01.JPG,AFNE01.JPG,AFNE01.JPG,AFNE01.JPG,AFNE01.JPG,AFNE01.JPG,5,9,59,9,,,,,,,,,,,,,,,,,,,,,,,AFNE02.jpg,AFSA18.jpg,AFSA02.jpg,AFNE10.jpg,AFNE02.jpg,FN,3,num_8,16,num_8,0.93346701772,,,2017_Feb_09_1140,60.0028868384,FEMA4ImagesEEG,001,000004,
,,,,,,,,,,,,,,,,,,,,,,,,,,,,,,,,,,,,,,,,,,,space,35.7806008225,2017_Feb_09_1140,60.0028868384,FEMA4ImagesEEG,001,000004,
AFNE01.JPG,AFNE01.JPG,AFNE01.JPG,AFNE01.JPG,AFNE01.JPG,AFNE01.JPG,,,,,0,0,0,9,,,,,,,,,,,,,,,,,,,AMNE08.jpg,AMNE16.jpg,AMSA05.jpg,AMSA15.jpg,AMSA15.jpg,MS,2,num_4,16,num_4,0.833569077076,,,2017_Feb_09_1140,60.0028868384,FEMA4ImagesEEG,001,000004,
AFNE01.JPG,AFNE01.JPG,AFNE01.JPG,AFNE01.JPG,AFNE01.JPG,AFNE01.JPG,,,,,0,1,1,7,,,,,,,,,,,,,,,,,,,AMSA08.jpg,AMSA16.jpg,AMNE05.jpg,AMNE06.jpg,AMNE06.jpg,MN,1,num_4,16,num_4,0.883438985096,,,2017_Feb_09_1140,60.0028868384,FEMA4ImagesEEG,001,000004,
AFNE01.JPG,AFNE01.JPG,AFNE01.JPG,AFNE01.JPG,AFNE01.JPG,AFNE01.JPG,,,,,0,2,2,8,,,,,,,,,,,,,,,,,,,AMNE02.jpg,AMSA06.jpg,AMSA12.jpg,AMNE03.jpg,AMSA06.jpg,MS,2,num_6,16,num_6,0.883426155429,,,2017_Feb_09_1140,60.0028868384,FEMA4ImagesEEG,001,000004,
AFNE01.JPG,AFNE01.JPG,AFNE01.JPG,AFNE01.JPG,AFNE01.JPG,AFNE01.JPG,,,,,0,3,3,0,,,,,,,,,,,,,,,,,,,AMNE14.jpg,AMNE02.jpg,AMSA15.jpg,AMSA19.jpg,AMSA19.jpg,MS,2,num_4,16,num_4,1.21675114962,,,2017_Feb_09_1140,60.0028868384,FEMA4ImagesEEG,001,000004,
AFNE01.JPG,AFNE01.JPG,AFNE01.JPG,AFNE01.JPG,AFNE01.JPG,AFNE01.JPG,,,,,0,4,4,5,,,,,,,,,,,,,,,,,,,AMSA02.jpg,AMSA06.jpg,AMNE10.jpg,AMNE01.jpg,AMSA02.jpg,MS,2,num_8,16,num_8,1.00013118261,,,2017_Feb_09_1140,60.0028868384,FEMA4ImagesEEG,001,000004,
AFNE01.JPG,AFNE01.JPG,AFNE01.JPG,AFNE01.JPG,AFNE01.JPG,AFNE01.JPG,,,,,0,5,5,2,,,,,,,,,,,,,,,,,,,AMNE12.jpg,AMNE13.jpg,AMSA09.jpg,AMSA05.jpg,AMNE13.jpg,MN,1,num_6,32,num_8,1.15011456842,,,2017_Feb_09_1140,60.0028868384,FEMA4ImagesEEG,001,000004,
AFNE01.JPG,AFNE01.JPG,AFNE01.JPG,AFNE01.JPG,AFNE01.JPG,AFNE01.JPG,,,,,0,6,6,1,,,,,,,,,,,,,,,,,,,AMSA11.jpg,AMSA18.jpg,AMNE08.jpg,AMNE10.jpg,AMSA18.jpg,MS,2,num_6,32,num_8,1.05016755452,,,2017_Feb_09_1140,60.0028868384,FEMA4ImagesEEG,001,000004,
AFNE01.JPG,AFNE01.JPG,AFNE01.JPG,AFNE01.JPG,AFNE01.JPG,AFNE01.JPG,,,,,0,7,7,6,,,,,,,,,,,,,,,,,,,AMSA08.jpg,AMNE09.jpg,AMNE05.jpg,AMSA12.jpg,AMSA08.jpg,MS,2,num_8,32,num_4,1.00013086176,,,2017_Feb_09_1140,60.0028868384,FEMA4ImagesEEG,001,000004,
AFNE01.JPG,AFNE01.JPG,AFNE01.JPG,AFNE01.JPG,AFNE01.JPG,AFNE01.JPG,,,,,0,8,8,4,,,,,,,,,,,,,,,,,,,AMNE11.jpg,AMSA18.jpg,AMSA03.jpg,AMNE13.jpg,AMNE13.jpg,MN,1,num_4,16,num_4,0.76681510522,,,2017_Feb_09_1140,60.0028868384,FEMA4ImagesEEG,001,000004,
AFNE01.JPG,AFNE01.JPG,AFNE01.JPG,AFNE01.JPG,AFNE01.JPG,AFNE01.JPG,,,,,0,9,9,3,,,,,,,,,,,,,,,,,,,AMSA19.jpg,AMNE18.jpg,AMSA06.jpg,AMNE03.jpg,AMSA06.jpg,MS,2,num_2,32,num_4,1.55035005533,,,2017_Feb_09_1140,60.0028868384,FEMA4ImagesEEG,001,000004,
AFNE01.JPG,AFNE01.JPG,AFNE01.JPG,AFNE01.JPG,AFNE01.JPG,AFNE01.JPG,,,,,1,0,10,0,,,,,,,,,,,,,,,,,,,AMNE18.jpg,AMSA17.jpg,AMNE03.jpg,AMSA19.jpg,AMSA19.jpg,MS,2,num_4,32,num_8,1.78338580625,,,2017_Feb_09_1140,60.0028868384,FEMA4ImagesEEG,001,000004,
AFNE01.JPG,AFNE01.JPG,AFNE01.JPG,AFNE01.JPG,AFNE01.JPG,AFNE01.JPG,,,,,1,1,11,9,,,,,,,,,,,,,,,,,,,AMNE12.jpg,AMSA17.jpg,AMNE06.jpg,AMSA02.jpg,AMSA17.jpg,MS,2,num_6,32,num_8,1.11673966702,,,2017_Feb_09_1140,60.0028868384,FEMA4ImagesEEG,001,000004,
AFNE01.JPG,AFNE01.JPG,AFNE01.JPG,AFNE01.JPG,AFNE01.JPG,AFNE01.JPG,,,,,1,2,12,4,,,,,,,,,,,,,,,,,,,AMSA06.jpg,AMSA09.jpg,AMNE02.jpg,AMNE11.jpg,AMSA06.jpg,MS,2,num_8,32,num_6,1.06676199054,,,2017_Feb_09_1140,60.0028868384,FEMA4ImagesEEG,001,000004,
AFNE01.JPG,AFNE01.JPG,AFNE01.JPG,AFNE01.JPG,AFNE01.JPG,AFNE01.JPG,,,,,1,3,13,5,,,,,,,,,,,,,,,,,,,AMNE14.jpg,AMNE19.jpg,AMSA01.jpg,AMSA12.jpg,AMNE14.jpg,MN,1,num_8,16,num_8,1.216797336,,,2017_Feb_09_1140,60.0028868384,FEMA4ImagesEEG,001,000004,
AFNE01.JPG,AFNE01.JPG,AFNE01.JPG,AFNE01.JPG,AFNE01.JPG,AFNE01.JPG,,,,,1,4,14,7,,,,,,,,,,,,,,,,,,,AMNE09.jpg,AMNE18.jpg,AMSA05.jpg,AMSA16.jpg,AMNE09.jpg,MN,1,num_8,32,num_6,0.80000269413,,,2017_Feb_09_1140,60.0028868384,FEMA4ImagesEEG,001,000004,
AFNE01.JPG,AFNE01.JPG,AFNE01.JPG,AFNE01.JPG,AFNE01.JPG,AFNE01.JPG,,,,,1,5,15,6,,,,,,,,,,,,,,,,,,,AMSA13.jpg,AMSA15.jpg,AMNE11.jpg,AMNE17.jpg,AMNE17.jpg,MN,1,num_4,32,num_8,1.20012014918,,,2017_Feb_09_1140,60.0028868384,FEMA4ImagesEEG,001,000004,
AFNE01.JPG,AFNE01.JPG,AFNE01.JPG,AFNE01.JPG,AFNE01.JPG,AFNE01.JPG,,,,,1,6,16,1,,,,,,,,,,,,,,,,,,,AMNE09.jpg,AMSA12.jpg,AMNE07.jpg,AMSA16.jpg,AMNE09.jpg,MN,1,num_8,32,num_6,0.800162422704,,,2017_Feb_09_1140,60.0028868384,FEMA4ImagesEEG,001,000004,
AFNE01.JPG,AFNE01.JPG,AFNE01.JPG,AFNE01.JPG,AFNE01.JPG,AFNE01.JPG,,,,,1,7,17,8,,,,,,,,,,,,,,,,,,,AMNE05.jpg,AMSA09.jpg,AMSA11.jpg,AMNE02.jpg,AMSA11.jpg,MS,2,num_2,32,num_8,0.866792268353,,,2017_Feb_09_1140,60.0028868384,FEMA4ImagesEEG,001,000004,
AFNE01.JPG,AFNE01.JPG,AFNE01.JPG,AFNE01.JPG,AFNE01.JPG,AFNE01.JPG,,,,,1,8,18,3,,,,,,,,,,,,,,,,,,,AMSA08.jpg,AMNE04.jpg,AMNE07.jpg,AMSA04.jpg,AMNE04.jpg,MN,1,num_6,32,num_4,1.00012188102,,,2017_Feb_09_1140,60.0028868384,FEMA4ImagesEEG,001,000004,
AFNE01.JPG,AFNE01.JPG,AFNE01.JPG,AFNE01.JPG,AFNE01.JPG,AFNE01.JPG,,,,,1,9,19,2,,,,,,,,,,,,,,,,,,,AMSA11.jpg,AMSA18.jpg,AMNE08.jpg,AMNE13.jpg,AMNE13.jpg,MN,1,num_4,16,num_4,0.900101417908,,,2017_Feb_09_1140,60.0028868384,FEMA4ImagesEEG,001,000004,
AFNE01.JPG,AFNE01.JPG,AFNE01.JPG,AFNE01.JPG,AFNE01.JPG,AFNE01.JPG,,,,,2,0,20,2,,,,,,,,,,,,,,,,,,,AMSA15.jpg,AMNE01.jpg,AMNE05.jpg,AMSA04.jpg,AMSA04.jpg,MS,2,num_4,32,num_8,0.850140099181,,,2017_Feb_09_1140,60.0028868384,FEMA4ImagesEEG,001,000004,
AFNE01.JPG,AFNE01.JPG,AFNE01.JPG,AFNE01.JPG,AFNE01.JPG,AFNE01.JPG,,,,,2,1,21,1,,,,,,,,,,,,,,,,,,,AMNE14.jpg,AMSA08.jpg,AMNE17.jpg,AMSA14.jpg,AMSA08.jpg,MS,2,num_6,16,num_6,1.66667436459,,,2017_Feb_09_1140,60.0028868384,FEMA4ImagesEEG,001,000004,
AFNE01.JPG,AFNE01.JPG,AFNE01.JPG,AFNE01.JPG,AFNE01.JPG,AFNE01.JPG,,,,,2,2,22,4,,,,,,,,,,,,,,,,,,,AMNE03.jpg,AMSA15.jpg,AMSA08.jpg,AMNE06.jpg,AMSA15.jpg,MS,2,num_6,16,num_6,1.01673876913,,,2017_Feb_09_1140,60.0028868384,FEMA4ImagesEEG,001,000004,
AFNE01.JPG,AFNE01.JPG,AFNE01.JPG,AFNE01.JPG,AFNE01.JPG,AFNE01.JPG,,,,,2,3,23,7,,,,,,,,,,,,,,,,,,,AMSA19.jpg,AMNE17.jpg,AMSA17.jpg,AMNE07.jpg,AMNE07.jpg,MN,1,num_4,32,num_8,1.03341274848,,,2017_Feb_09_1140,60.0028868384,FEMA4ImagesEEG,001,000004,
AFNE01.JPG,AFNE01.JPG,AFNE01.JPG,AFNE01.JPG,AFNE01.JPG,AFNE01.JPG,,,,,2,4,24,0,,,,,,,,,,,,,,,,,,,AMSA17.jpg,AMSA18.jpg,AMNE13.jpg,AMNE04.jpg,AMSA18.jpg,MS,2,num_6,32,num_4,0.900108794915,,,2017_Feb_09_1140,60.0028868384,FEMA4ImagesEEG,001,000004,
AFNE01.JPG,AFNE01.JPG,AFNE01.JPG,AFNE01.JPG,AFNE01.JPG,AFNE01.JPG,,,,,2,5,25,6,,,,,,,,,,,,,,,,,,,AMNE02.jpg,AMSA07.jpg,AMSA04.jpg,AMNE01.jpg,AMNE02.jpg,MN,1,num_8,32,num_2,0.849991917377,,,2017_Feb_09_1140,60.0028868384,FEMA4ImagesEEG,001,000004,
AFNE01.JPG,AFNE01.JPG,AFNE01.JPG,AFNE01.JPG,AFNE01.JPG,AFNE01.JPG,,,,,2,6,26,8,,,,,,,,,,,,,,,,,,,AMNE03.jpg,AMNE09.jpg,AMSA16.jpg,AMSA07.jpg,AMNE03.jpg,MN,1,num_8,16,num_8,1.46670079348,,,2017_Feb_09_1140,60.0028868384,FEMA4ImagesEEG,001,000004,
AFNE01.JPG,AFNE01.JPG,AFNE01.JPG,AFNE01.JPG,AFNE01.JPG,AFNE01.JPG,,,,,2,7,27,3,,,,,,,,,,,,,,,,,,,AMNE11.jpg,AMSA07.jpg,AMNE04.jpg,AMSA10.jpg,AMSA10.jpg,MS,2,num_4,16,num_4,0.900091475109,,,2017_Feb_09_1140,60.0028868384,FEMA4ImagesEEG,001,000004,
AFNE01.JPG,AFNE01.JPG,AFNE01.JPG,AFNE01.JPG,AFNE01.JPG,AFNE01.JPG,,,,,2,8,28,9,,,,,,,,,,,,,,,,,,,AMNE15.jpg,AMSA13.jpg,AMNE03.jpg,AMSA07.jpg,AMNE03.jpg,MN,1,num_2,16,num_2,1.66674460657,,,2017_Feb_09_1140,60.0028868384,FEMA4ImagesEEG,001,000004,
AFNE01.JPG,AFNE01.JPG,AFNE01.JPG,AFNE01.JPG,AFNE01.JPG,AFNE01.JPG,,,,,2,9,29,5,,,,,,,,,,,,,,,,,,,AMNE20.jpg,AMSA18.jpg,AMSA13.jpg,AMNE06.jpg,AMSA13.jpg,MS,2,num_2,32,num_8,1.53339831531,,,2017_Feb_09_1140,60.0028868384,FEMA4ImagesEEG,001,000004,
AFNE01.JPG,AFNE01.JPG,AFNE01.JPG,AFNE01.JPG,AFNE01.JPG,AFNE01.JPG,,,,,3,0,30,9,,,,,,,,,,,,,,,,,,,AMSA16.jpg,AMNE12.jpg,AMNE02.jpg,AMSA08.jpg,AMSA16.jpg,MS,2,num_8,16,num_8,0.96680695843,,,2017_Feb_09_1140,60.0028868384,FEMA4ImagesEEG,001,000004,
AFNE01.JPG,AFNE01.JPG,AFNE01.JPG,AFNE01.JPG,AFNE01.JPG,AFNE01.JPG,,,,,3,1,31,6,,,,,,,,,,,,,,,,,,,AMNE19.jpg,AMSA16.jpg,AMSA13.jpg,AMNE11.jpg,AMNE11.jpg,MN,1,num_4,32,num_8,1.40010526683,,,2017_Feb_09_1140,60.0028868384,FEMA4ImagesEEG,001,000004,
AFNE01.JPG,AFNE01.JPG,AFNE01.JPG,AFNE01.JPG,AFNE01.JPG,AFNE01.JPG,,,,,3,2,32,7,,,,,,,,,,,,,,,,,,,AMSA17.jpg,AMSA03.jpg,AMNE13.jpg,AMNE14.jpg,AMNE13.jpg,MN,1,num_2,16,num_2,1.2334421284,,,2017_Feb_09_1140,60.0028868384,FEMA4ImagesEEG,001,000004,
AFNE01.JPG,AFNE01.JPG,AFNE01.JPG,AFNE01.JPG,AFNE01.JPG,AFNE01.JPG,,,,,3,3,33,8,,,,,,,,,,,,,,,,,,,AMSA14.jpg,AMNE04.jpg,AMNE13.jpg,AMSA19.jpg,AMNE04.jpg,MN,1,num_6,32,num_2,1.75006895908,,,2017_Feb_09_1140,60.0028868384,FEMA4ImagesEEG,001,000004,
AFNE01.JPG,AFNE01.JPG,AFNE01.JPG,AFNE01.JPG,AFNE01.JPG,AFNE01.JPG,,,,,3,4,34,5,,,,,,,,,,,,,,,,,,,AMSA16.jpg,AMNE15.jpg,AMSA02.jpg,AMNE05.jpg,AMSA02.jpg,MS,2,num_2,16,num_2,1.28342140862,,,2017_Feb_09_1140,60.0028868384,FEMA4ImagesEEG,001,000004,
AFNE01.JPG,AFNE01.JPG,AFNE01.JPG,AFNE01.JPG,AFNE01.JPG,AFNE01.JPG,,,,,3,5,35,0,,,,,,,,,,,,,,,,,,,AMSA13.jpg,AMNE03.jpg,AMNE08.jpg,AMSA18.jpg,AMSA18.jpg,MS,2,num_4,32,num_8,1.20018044813,,,2017_Feb_09_1140,60.0028868384,FEMA4ImagesEEG,001,000004,
AFNE01.JPG,AFNE01.JPG,AFNE01.JPG,AFNE01.JPG,AFNE01.JPG,AFNE01.JPG,,,,,3,6,36,3,,,,,,,,,,,,,,,,,,,AMNE18.jpg,AMNE11.jpg,AMSA09.jpg,AMSA17.jpg,AMSA17.jpg,MS,2,num_4,32,num_6,1.08345938427,,,2017_Feb_09_1140,60.0028868384,FEMA4ImagesEEG,001,000004,
AFNE01.JPG,AFNE01.JPG,AFNE01.JPG,AFNE01.JPG,AFNE01.JPG,AFNE01.JPG,,,,,3,7,37,2,,,,,,,,,,,,,,,,,,,AMNE11.jpg,AMSA10.jpg,AMNE07.jpg,AMSA02.jpg,AMSA10.jpg,MS,2,num_6,16,num_6,1.01674454217,,,2017_Feb_09_1140,60.0028868384,FEMA4ImagesEEG,001,000004,
AFNE01.JPG,AFNE01.JPG,AFNE01.JPG,AFNE01.JPG,AFNE01.JPG,AFNE01.JPG,,,,,3,8,38,1,,,,,,,,,,,,,,,,,,,AMSA20.jpg,AMSA10.jpg,AMNE10.jpg,AMNE04.jpg,AMSA10.jpg,MS,2,num_6,16,num_6,1.03341082414,,,2017_Feb_09_1140,60.0028868384,FEMA4ImagesEEG,001,000004,
AFNE01.JPG,AFNE01.JPG,AFNE01.JPG,AFNE01.JPG,AFNE01.JPG,AFNE01.JPG,,,,,3,9,39,4,,,,,,,,,,,,,,,,,,,AMSA01.jpg,AMNE09.jpg,AMSA14.jpg,AMNE06.jpg,AMSA14.jpg,MS,2,num_2,16,num_2,0.76678174804,,,2017_Feb_09_1140,60.0028868384,FEMA4ImagesEEG,001,000004,
AFNE01.JPG,AFNE01.JPG,AFNE01.JPG,AFNE01.JPG,AFNE01.JPG,AFNE01.JPG,,,,,4,0,40,6,,,,,,,,,,,,,,,,,,,AMSA10.jpg,AMSA14.jpg,AMNE15.jpg,AMNE12.jpg,AMSA14.jpg,MS,2,num_6,16,num_6,0.933528599795,,,2017_Feb_09_1140,60.0028868384,FEMA4ImagesEEG,001,000004,
AFNE01.JPG,AFNE01.JPG,AFNE01.JPG,AFNE01.JPG,AFNE01.JPG,AFNE01.JPG,,,,,4,1,41,4,,,,,,,,,,,,,,,,,,,AMSA02.jpg,AMNE08.jpg,AMSA10.jpg,AMNE19.jpg,AMSA02.jpg,MS,2,num_8,16,num_8,1.13350024633,,,2017_Feb_09_1140,60.0028868384,FEMA4ImagesEEG,001,000004,
AFNE01.JPG,AFNE01.JPG,AFNE01.JPG,AFNE01.JPG,AFNE01.JPG,AFNE01.JPG,,,,,4,2,42,9,,,,,,,,,,,,,,,,,,,AMSA20.jpg,AMSA18.jpg,AMNE06.jpg,AMNE10.jpg,AMSA18.jpg,MS,2,num_6,16,num_6,0.916724399896,,,2017_Feb_09_1140,60.0028868384,FEMA4ImagesEEG,001,000004,
AFNE01.JPG,AFNE01.JPG,AFNE01.JPG,AFNE01.JPG,AFNE01.JPG,AFNE01.JPG,,,,,4,3,43,5,,,,,,,,,,,,,,,,,,,AMNE09.jpg,AMNE05.jpg,AMSA14.jpg,AMSA10.jpg,AMSA14.jpg,MS,2,num_2,16,num_2,0.966417900752,,,2017_Feb_09_1140,60.0028868384,FEMA4ImagesEEG,001,000004,
AFNE01.JPG,AFNE01.JPG,AFNE01.JPG,AFNE01.JPG,AFNE01.JPG,AFNE01.JPG,,,,,4,4,44,3,,,,,,,,,,,,,,,,,,,AMSA07.jpg,AMSA01.jpg,AMNE02.jpg,AMNE09.jpg,AMSA01.jpg,MS,2,num_6,32,num_2,1.0000994294,,,2017_Feb_09_1140,60.0028868384,FEMA4ImagesEEG,001,000004,
AFNE01.JPG,AFNE01.JPG,AFNE01.JPG,AFNE01.JPG,AFNE01.JPG,AFNE01.JPG,,,,,4,5,45,8,,,,,,,,,,,,,,,,,,,AMNE03.jpg,AMSA01.jpg,AMNE09.jpg,AMSA11.jpg,AMNE03.jpg,MN,1,num_8,16,num_8,3.19995945832,,,2017_Feb_09_1140,60.0028868384,FEMA4ImagesEEG,001,000004,
AFNE01.JPG,AFNE01.JPG,AFNE01.JPG,AFNE01.JPG,AFNE01.JPG,AFNE01.JPG,,,,,4,6,46,7,,,,,,,,,,,,,,,,,,,AMNE18.jpg,AMNE13.jpg,AMSA01.jpg,AMSA15.jpg,AMNE13.jpg,MN,1,num_6,16,num_6,0.916730814613,,,2017_Feb_09_1140,60.0028868384,FEMA4ImagesEEG,001,000004,
AFNE01.JPG,AFNE01.JPG,AFNE01.JPG,AFNE01.JPG,AFNE01.JPG,AFNE01.JPG,,,,,4,7,47,0,,,,,,,,,,,,,,,,,,,AMNE11.jpg,AMNE10.jpg,AMSA15.jpg,AMSA20.jpg,AMNE10.jpg,MN,1,num_6,16,num_6,0.833447837504,,,2017_Feb_09_1140,60.0028868384,FEMA4ImagesEEG,001,000004,
AFNE01.JPG,AFNE01.JPG,AFNE01.JPG,AFNE01.JPG,AFNE01.JPG,AFNE01.JPG,,,,,4,8,48,2,,,,,,,,,,,,,,,,,,,AMNE01.jpg,AMSA06.jpg,AMSA03.jpg,AMNE04.jpg,AMNE01.jpg,MN,1,num_8,32,num_6,1.16672151326,,,2017_Feb_09_1140,60.0028868384,FEMA4ImagesEEG,001,000004,
AFNE01.JPG,AFNE01.JPG,AFNE01.JPG,AFNE01.JPG,AFNE01.JPG,AFNE01.JPG,,,,,4,9,49,1,,,,,,,,,,,,,,,,,,,AMNE16.jpg,AMSA01.jpg,AMSA08.jpg,AMNE06.jpg,AMSA08.jpg,MS,2,num_2,32,num_8,1.16673402209,,,2017_Feb_09_1140,60.0028868384,FEMA4ImagesEEG,001,000004,
AFNE01.JPG,AFNE01.JPG,AFNE01.JPG,AFNE01.JPG,AFNE01.JPG,AFNE01.JPG,,,,,5,0,50,3,,,,,,,,,,,,,,,,,,,AMSA06.jpg,AMSA20.jpg,AMNE07.jpg,AMNE01.jpg,AMNE01.jpg,MN,1,num_4,16,num_4,0.750192764681,,,2017_Feb_09_1140,60.0028868384,FEMA4ImagesEEG,001,000004,
AFNE01.JPG,AFNE01.JPG,AFNE01.JPG,AFNE01.JPG,AFNE01.JPG,AFNE01.JPG,,,,,5,1,51,2,,,,,,,,,,,,,,,,,,,AMSA17.jpg,AMNE06.jpg,AMNE05.jpg,AMSA11.jpg,AMNE06.jpg,MN,1,num_6,32,num_8,0.833404537523,,,2017_Feb_09_1140,60.0028868384,FEMA4ImagesEEG,001,000004,
AFNE01.JPG,AFNE01.JPG,AFNE01.JPG,AFNE01.JPG,AFNE01.JPG,AFNE01.JPG,,,,,5,2,52,7,,,,,,,,,,,,,,,,,,,AMNE14.jpg,AMSA12.jpg,AMSA06.jpg,AMNE07.jpg,AMNE07.jpg,MN,1,num_4,32,num_6,0.733473881613,,,2017_Feb_09_1140,60.0028868384,FEMA4ImagesEEG,001,000004,
AFNE01.JPG,AFNE01.JPG,AFNE01.JPG,AFNE01.JPG,AFNE01.JPG,AFNE01.JPG,,,,,5,3,53,9,,,,,,,,,,,,,,,,,,,AMSA02.jpg,AMNE01.jpg,AMSA04.jpg,AMNE08.jpg,AMSA02.jpg,MS,2,num_8,16,num_8,1.26681638788,,,2017_Feb_09_1140,60.0028868384,FEMA4ImagesEEG,001,000004,
AFNE01.JPG,AFNE01.JPG,AFNE01.JPG,AFNE01.JPG,AFNE01.JPG,AFNE01.JPG,,,,,5,4,54,6,,,,,,,,,,,,,,,,,,,AMSA07.jpg,AMNE15.jpg,AMSA05.jpg,AMNE17.jpg,AMNE17.jpg,MN,1,num_4,32,num_6,1.50014144625,,,2017_Feb_09_1140,60.0028868384,FEMA4ImagesEEG,001,000004,
AFNE01.JPG,AFNE01.JPG,AFNE01.JPG,AFNE01.JPG,AFNE01.JPG,AFNE01.JPG,,,,,5,5,55,5,,,,,,,,,,,,,,,,,,,AMSA02.jpg,AMNE16.jpg,AMNE13.jpg,AMSA08.jpg,AMNE16.jpg,MN,1,num_6,32,num_2,1.05015536631,,,2017_Feb_09_1140,60.0028868384,FEMA4ImagesEEG,001,000004,
AFNE01.JPG,AFNE01.JPG,AFNE01.JPG,AFNE01.JPG,AFNE01.JPG,AFNE01.JPG,,,,,5,6,56,1,,,,,,,,,,,,,,,,,,,AMSA15.jpg,AMSA09.jpg,AMNE19.jpg,AMNE10.jpg,AMSA15.jpg,MS,2,num_8,32,num_2,1.60006119707,,,2017_Feb_09_1140,60.0028868384,FEMA4ImagesEEG,001,000004,
AFNE01.JPG,AFNE01.JPG,AFNE01.JPG,AFNE01.JPG,AFNE01.JPG,AFNE01.JPG,,,,,5,7,57,4,,,,,,,,,,,,,,,,,,,AMNE20.jpg,AMNE16.jpg,AMSA14.jpg,AMSA07.jpg,AMSA14.jpg,MS,2,num_2,32,num_8,1.50008852407,,,2017_Feb_09_1140,60.0028868384,FEMA4ImagesEEG,001,000004,
AFNE01.JPG,AFNE01.JPG,AFNE01.JPG,AFNE01.JPG,AFNE01.JPG,AFNE01.JPG,,,,,5,8,58,0,,,,,,,,,,,,,,,,,,,AMSA10.jpg,AMNE05.jpg,AMSA01.jpg,AMNE11.jpg,AMSA10.jpg,MS,2,num_8,32,num_6,0.75014433288,,,2017_Feb_09_1140,60.0028868384,FEMA4ImagesEEG,001,000004,
AFNE01.JPG,AFNE01.JPG,AFNE01.JPG,AFNE01.JPG,AFNE01.JPG,AFNE01.JPG,,,,,5,9,59,8,,,,,,,,,,,,,,,,,,,AMSA09.jpg,AMNE15.jpg,AMNE19.jpg,AMSA01.jpg,AMSA01.jpg,MS,2,num_4,16,num_4,1.46657217667,,,2017_Feb_09_1140,60.0028868384,FEMA4ImagesEEG,001,000004,
,,,,,,,,,,,,,,,,,,,,,,,,,,,,,,,,,,,,,,,,,,,space,1.81667859829,2017_Feb_09_1140,60.0028868384,FEMA4ImagesEEG,001,000004,
AFNE01.JPG,AFNE01.JPG,AFNE01.JPG,AFNE01.JPG,AFNE01.JPG,AFNE01.JPG,,,,,,,,,0,0,0,3,,,,,,,,,,,,,,,AFNE12.jpg,AFNE13.jpg,AFSA09.jpg,AFSA07.jpg,AFNE13.jpg,FN,3,num_6,16,num_6,0.666899523698,,,2017_Feb_09_1140,60.0028868384,FEMA4ImagesEEG,001,000004,
AFNE01.JPG,AFNE01.JPG,AFNE01.JPG,AFNE01.JPG,AFNE01.JPG,AFNE01.JPG,,,,,,,,,0,1,1,8,,,,,,,,,,,,,,,AFNE14.jpg,AFSA14.jpg,AFSA07.jpg,AFNE02.jpg,AFSA14.jpg,FS,4,num_6,32,num_8,0.883462399244,,,2017_Feb_09_1140,60.0028868384,FEMA4ImagesEEG,001,000004,
AFNE01.JPG,AFNE01.JPG,AFNE01.JPG,AFNE01.JPG,AFNE01.JPG,AFNE01.JPG,,,,,,,,,0,2,2,0,,,,,,,,,,,,,,,AFNE08.jpg,AFSA17.jpg,AFNE17.jpg,AFSA14.jpg,AFNE17.jpg,FN,3,num_2,32,num_6,0.96660713735,,,2017_Feb_09_1140,60.0028868384,FEMA4ImagesEEG,001,000004,
AFNE01.JPG,AFNE01.JPG,AFNE01.JPG,AFNE01.JPG,AFNE01.JPG,AFNE01.JPG,,,,,,,,,0,3,3,6,,,,,,,,,,,,,,,AFNE05.jpg,AFSA18.jpg,AFSA14.jpg,AFNE14.jpg,AFSA18.jpg,FS,4,num_6,16,num_6,0.716770394007,,,2017_Feb_09_1140,60.0028868384,FEMA4ImagesEEG,001,000004,
AFNE01.JPG,AFNE01.JPG,AFNE01.JPG,AFNE01.JPG,AFNE01.JPG,AFNE01.JPG,,,,,,,,,0,4,4,4,,,,,,,,,,,,,,,AFSA20.jpg,AFSA03.jpg,AFNE18.jpg,AFNE12.jpg,AFNE18.jpg,FN,3,num_2,32,num_4,0.916793358745,,,2017_Feb_09_1140,60.0028868384,FEMA4ImagesEEG,001,000004,
AFNE01.JPG,AFNE01.JPG,AFNE01.JPG,AFNE01.JPG,AFNE01.JPG,AFNE01.JPG,,,,,,,,,0,5,5,9,,,,,,,,,,,,,,,AFNE17.jpg,AFSA14.jpg,AFNE07.jpg,AFSA16.jpg,AFSA14.jpg,FS,4,num_6,16,num_6,0.916731456062,,,2017_Feb_09_1140,60.0028868384,FEMA4ImagesEEG,001,000004,
AFNE01.JPG,AFNE01.JPG,AFNE01.JPG,AFNE01.JPG,AFNE01.JPG,AFNE01.JPG,,,,,,,,,0,6,6,2,,,,,,,,,,,,,,,AFSA14.jpg,AFSA20.jpg,AFNE17.jpg,AFNE05.jpg,AFSA14.jpg,FS,4,num_8,16,num_8,1.4667713563,,,2017_Feb_09_1140,60.0028868384,FEMA4ImagesEEG,001,000004,
AFNE01.JPG,AFNE01.JPG,AFNE01.JPG,AFNE01.JPG,AFNE01.JPG,AFNE01.JPG,,,,,,,,,0,7,7,1,,,,,,,,,,,,,,,AFSA17.jpg,AFNE20.jpg,AFSA19.jpg,AFNE05.jpg,AFSA17.jpg,FS,4,num_8,16,num_8,1.51674325927,,,2017_Feb_09_1140,60.0028868384,FEMA4ImagesEEG,001,000004,
AFNE01.JPG,AFNE01.JPG,AFNE01.JPG,AFNE01.JPG,AFNE01.JPG,AFNE01.JPG,,,,,,,,,0,8,8,7,,,,,,,,,,,,,,,AFSA20.jpg,AFNE15.jpg,AFSA08.jpg,AFNE08.jpg,AFNE15.jpg,FN,3,num_6,16,num_6,0.76677212608,,,2017_Feb_09_1140,60.0028868384,FEMA4ImagesEEG,001,000004,
AFNE01.JPG,AFNE01.JPG,AFNE01.JPG,AFNE01.JPG,AFNE01.JPG,AFNE01.JPG,,,,,,,,,0,9,9,5,,,,,,,,,,,,,,,AFSA02.jpg,AFNE15.jpg,AFNE17.jpg,AFSA18.jpg,AFSA02.jpg,FS,4,num_8,32,num_2,0.966780978255,,,2017_Feb_09_1140,60.0028868384,FEMA4ImagesEEG,001,000004,
AFNE01.JPG,AFNE01.JPG,AFNE01.JPG,AFNE01.JPG,AFNE01.JPG,AFNE01.JPG,,,,,,,,,1,0,10,0,,,,,,,,,,,,,,,AFSA16.jpg,AFNE18.jpg,AFSA08.jpg,AFNE14.jpg,AFSA16.jpg,FS,4,num_8,16,num_8,1.11676628841,,,2017_Feb_09_1140,60.0028868384,FEMA4ImagesEEG,001,000004,
AFNE01.JPG,AFNE01.JPG,AFNE01.JPG,AFNE01.JPG,AFNE01.JPG,AFNE01.JPG,,,,,,,,,1,1,11,6,,,,,,,,,,,,,,,AFNE03.jpg,AFSA16.jpg,AFNE11.jpg,AFSA20.jpg,AFSA20.jpg,FS,4,num_4,32,num_6,1.03345989739,,,2017_Feb_09_1140,60.0028868384,FEMA4ImagesEEG,001,000004,
AFNE01.JPG,AFNE01.JPG,AFNE01.JPG,AFNE01.JPG,AFNE01.JPG,AFNE01.JPG,,,,,,,,,1,2,12,7,,,,,,,,,,,,,,,AFNE11.jpg,AFNE08.jpg,AFSA13.jpg,AFSA15.jpg,AFSA15.jpg,FS,4,num_4,32,num_6,1.10013945773,,,2017_Feb_09_1140,60.0028868384,FEMA4ImagesEEG,001,000004,
AFNE01.JPG,AFNE01.JPG,AFNE01.JPG,AFNE01.JPG,AFNE01.JPG,AFNE01.JPG,,,,,,,,,1,3,13,1,,,,,,,,,,,,,,,AFNE09.jpg,AFNE11.jpg,AFSA12.jpg,AFSA10.jpg,AFNE11.jpg,FN,3,num_6,32,num_8,1.01704571699,,,2017_Feb_09_1140,60.0028868384,FEMA4ImagesEEG,001,000004,
AFNE01.JPG,AFNE01.JPG,AFNE01.JPG,AFNE01.JPG,AFNE01.JPG,AFNE01.JPG,,,,,,,,,1,4,14,2,,,,,,,,,,,,,,,AFSA20.jpg,AFNE07.jpg,AFNE15.jpg,AFSA01.jpg,AFSA20.jpg,FS,4,num_8,32,num_4,1.00009269384,,,2017_Feb_09_1140,60.0028868384,FEMA4ImagesEEG,001,000004,
AFNE01.JPG,AFNE01.JPG,AFNE01.JPG,AFNE01.JPG,AFNE01.JPG,AFNE01.JPG,,,,,,,,,1,5,15,8,,,,,,,,,,,,,,,AFNE17.jpg,AFSA07.jpg,AFSA15.jpg,AFNE11.jpg,AFSA15.jpg,FS,4,num_2,32,num_8,1.26676891861,,,2017_Feb_09_1140,60.0028868384,FEMA4ImagesEEG,001,000004,
AFNE01.JPG,AFNE01.JPG,AFNE01.JPG,AFNE01.JPG,AFNE01.JPG,AFNE01.JPG,,,,,,,,,1,6,16,5,,,,,,,,,,,,,,,AFSA02.jpg,AFNE18.jpg,AFNE04.jpg,AFSA12.jpg,AFNE18.jpg,FN,3,num_6,16,num_6,0.833469647681,,,2017_Feb_09_1140,60.0028868384,FEMA4ImagesEEG,001,000004,
AFNE01.JPG,AFNE01.JPG,AFNE01.JPG,AFNE01.JPG,AFNE01.JPG,AFNE01.JPG,,,,,,,,,1,7,17,4,,,,,,,,,,,,,,,AFNE06.jpg,AFNE03.jpg,AFSA04.jpg,AFSA18.jpg,AFSA18.jpg,FS,4,num_4,16,num_4,0.783453161595,,,2017_Feb_09_1140,60.0028868384,FEMA4ImagesEEG,001,000004,
AFNE01.JPG,AFNE01.JPG,AFNE01.JPG,AFNE01.JPG,AFNE01.JPG,AFNE01.JPG,,,,,,,,,1,8,18,3,,,,,,,,,,,,,,,AFNE19.jpg,AFSA18.jpg,AFNE09.jpg,AFSA14.jpg,AFNE19.jpg,FN,3,num_8,16,num_8,1.41679464187,,,2017_Feb_09_1140,60.0028868384,FEMA4ImagesEEG,001,000004,
AFNE01.JPG,AFNE01.JPG,AFNE01.JPG,AFNE01.JPG,AFNE01.JPG,AFNE01.JPG,,,,,,,,,1,9,19,9,,,,,,,,,,,,,,,AFNE10.jpg,AFSA10.jpg,AFSA18.jpg,AFNE06.jpg,AFSA10.jpg,FS,4,num_6,16,num_6,0.800150875933,,,2017_Feb_09_1140,60.0028868384,FEMA4ImagesEEG,001,000004,
AFNE01.JPG,AFNE01.JPG,AFNE01.JPG,AFNE01.JPG,AFNE01.JPG,AFNE01.JPG,,,,,,,,,2,0,20,9,,,,,,,,,,,,,,,AFSA05.jpg,AFNE07.jpg,AFNE14.jpg,AFSA02.jpg,AFSA05.jpg,FS,4,num_8,32,num_4,0.783454444725,,,2017_Feb_09_1140,60.0028868384,FEMA4ImagesEEG,001,000004,
AFNE01.JPG,AFNE01.JPG,AFNE01.JPG,AFNE01.JPG,AFNE01.JPG,AFNE01.JPG,,,,,,,,,2,1,21,1,,,,,,,,,,,,,,,AFSA09.jpg,AFSA12.jpg,AFNE03.jpg,AFNE15.jpg,AFSA09.jpg,FS,4,num_8,32,num_6,0.766774691874,,,2017_Feb_09_1140,60.0028868384,FEMA4ImagesEEG,001,000004,
AFNE01.JPG,AFNE01.JPG,AFNE01.JPG,AFNE01.JPG,AFNE01.JPG,AFNE01.JPG,,,,,,,,,2,2,22,8,,,,,,,,,,,,,,,AFSA01.jpg,AFNE16.jpg,AFSA16.jpg,AFNE17.jpg,AFSA01.jpg,FS,4,num_8,16,num_8,1.01679137023,,,2017_Feb_09_1140,60.0028868384,FEMA4ImagesEEG,001,000004,
AFNE01.JPG,AFNE01.JPG,AFNE01.JPG,AFNE01.JPG,AFNE01.JPG,AFNE01.JPG,,,,,,,,,2,3,23,0,,,,,,,,,,,,,,,AFSA07.jpg,AFSA14.jpg,AFNE02.jpg,AFNE07.jpg,AFSA07.jpg,FS,4,num_8,32,num_2,0.866812795633,,,2017_Feb_09_1140,60.0028868384,FEMA4ImagesEEG,001,000004,
AFNE01.JPG,AFNE01.JPG,AFNE01.JPG,AFNE01.JPG,AFNE01.JPG,AFNE01.JPG,,,,,,,,,2,4,24,4,,,,,,,,,,,,,,,AFSA09.jpg,AFNE14.jpg,AFSA04.jpg,AFNE08.jpg,AFSA04.jpg,FS,4,num_2,16,num_2,0.733481900068,,,2017_Feb_09_1140,60.0028868384,FEMA4ImagesEEG,001,000004,
AFNE01.JPG,AFNE01.JPG,AFNE01.JPG,AFNE01.JPG,AFNE01.JPG,AFNE01.JPG,,,,,,,,,2,5,25,5,,,,,,,,,,,,,,,AFSA09.jpg,AFNE19.jpg,AFSA03.jpg,AFNE06.jpg,AFSA03.jpg,FS,4,num_2,32,num_8,1.91669553332,,,2017_Feb_09_1140,60.0028868384,FEMA4ImagesEEG,001,000004,
AFNE01.JPG,AFNE01.JPG,AFNE01.JPG,AFNE01.JPG,AFNE01.JPG,AFNE01.JPG,,,,,,,,,2,6,26,3,,,,,,,,,,,,,,,AFSA11.jpg,AFNE11.jpg,AFSA13.jpg,AFNE10.jpg,AFNE10.jpg,FN,3,num_4,32,num_6,1.06673889724,,,2017_Feb_09_1140,60.0028868384,FEMA4ImagesEEG,001,000004,
AFNE01.JPG,AFNE01.JPG,AFNE01.JPG,AFNE01.JPG,AFNE01.JPG,AFNE01.JPG,,,,,,,,,2,7,27,6,,,,,,,,,,,,,,,AFNE15.jpg,AFSA16.jpg,AFNE03.jpg,AFSA15.jpg,AFNE15.jpg,FN,3,num_8,16,num_8,0.916783736553,,,2017_Feb_09_1140,60.0028868384,FEMA4ImagesEEG,001,000004,
AFNE01.JPG,AFNE01.JPG,AFNE01.JPG,AFNE01.JPG,AFNE01.JPG,AFNE01.JPG,,,,,,,,,2,8,28,7,,,,,,,,,,,,,,,AFNE02.jpg,AFSA11.jpg,AFSA10.jpg,AFNE08.jpg,AFSA11.jpg,FS,4,num_6,16,num_6,1.01674871193,,,2017_Feb_09_1140,60.0028868384,FEMA4ImagesEEG,001,000004,
AFNE01.JPG,AFNE01.JPG,AFNE01.JPG,AFNE01.JPG,AFNE01.JPG,AFNE01.JPG,,,,,,,,,2,9,29,2,,,,,,,,,,,,,,,AFNE01.jpg,AFSA11.jpg,AFNE14.jpg,AFSA02.jpg,AFNE01.jpg,FN,3,num_8,16,num_8,0.933437509695,,,2017_Feb_09_1140,60.0028868384,FEMA4ImagesEEG,001,000004,
AFNE01.JPG,AFNE01.JPG,AFNE01.JPG,AFNE01.JPG,AFNE01.JPG,AFNE01.JPG,,,,,,,,,3,0,30,3,,,,,,,,,,,,,,,AFSA17.jpg,AFSA01.jpg,AFNE13.jpg,AFNE14.jpg,AFSA17.jpg,FS,4,num_8,16,num_8,1.30007614358,,,2017_Feb_09_1140,60.0028868384,FEMA4ImagesEEG,001,000004,
AFNE01.JPG,AFNE01.JPG,AFNE01.JPG,AFNE01.JPG,AFNE01.JPG,AFNE01.JPG,,,,,,,,,3,1,31,9,,,,,,,,,,,,,,,AFSA01.jpg,AFSA20.jpg,AFNE06.jpg,AFNE10.jpg,AFSA20.jpg,FS,4,num_6,16,num_6,0.700136827538,,,2017_Feb_09_1140,60.0028868384,FEMA4ImagesEEG,001,000004,
AFNE01.JPG,AFNE01.JPG,AFNE01.JPG,AFNE01.JPG,AFNE01.JPG,AFNE01.JPG,,,,,,,,,3,2,32,5,,,,,,,,,,,,,,,AFNE14.jpg,AFNE02.jpg,AFSA14.jpg,AFSA05.jpg,AFNE14.jpg,FN,3,num_8,16,num_8,0.85015100427,,,2017_Feb_09_1140,60.0028868384,FEMA4ImagesEEG,001,000004,
AFNE01.JPG,AFNE01.JPG,AFNE01.JPG,AFNE01.JPG,AFNE01.JPG,AFNE01.JPG,,,,,,,,,3,3,33,1,,,,,,,,,,,,,,,AFNE20.jpg,AFNE11.jpg,AFSA13.jpg,AFSA07.jpg,AFNE11.jpg,FN,3,num_6,16,num_6,0.666786302812,,,2017_Feb_09_1140,60.0028868384,FEMA4ImagesEEG,001,000004,
AFNE01.JPG,AFNE01.JPG,AFNE01.JPG,AFNE01.JPG,AFNE01.JPG,AFNE01.JPG,,,,,,,,,3,4,34,4,,,,,,,,,,,,,,,AFSA19.jpg,AFNE11.jpg,AFNE01.jpg,AFSA05.jpg,AFSA19.jpg,FS,4,num_8,32,num_4,0.850147475954,,,2017_Feb_09_1140,60.0028868384,FEMA4ImagesEEG,001,000004,
AFNE01.JPG,AFNE01.JPG,AFNE01.JPG,AFNE01.JPG,AFNE01.JPG,AFNE01.JPG,,,,,,,,,3,5,35,2,,,,,,,,,,,,,,,AFSA19.jpg,AFNE08.jpg,AFNE04.jpg,AFSA07.jpg,AFSA19.jpg,FS,4,num_8,32,num_4,1.20006049168,,,2017_Feb_09_1140,60.0028868384,FEMA4ImagesEEG,001,000004,
AFNE01.JPG,AFNE01.JPG,AFNE01.JPG,AFNE01.JPG,AFNE01.JPG,AFNE01.JPG,,,,,,,,,3,6,36,6,,,,,,,,,,,,,,,AFSA01.jpg,AFSA05.jpg,AFNE17.jpg,AFNE13.jpg,AFSA05.jpg,FS,4,num_6,16,num_6,0.800118481275,,,2017_Feb_09_1140,60.0028868384,FEMA4ImagesEEG,001,000004,
AFNE01.JPG,AFNE01.JPG,AFNE01.JPG,AFNE01.JPG,AFNE01.JPG,AFNE01.JPG,,,,,,,,,3,7,37,8,,,,,,,,,,,,,,,AFSA04.jpg,AFNE18.jpg,AFSA16.jpg,AFNE10.jpg,AFNE10.jpg,FN,3,num_4,32,num_6,1.1331814311,,,2017_Feb_09_1140,60.0028868384,FEMA4ImagesEEG,001,000004,
AFNE01.JPG,AFNE01.JPG,AFNE01.JPG,AFNE01.JPG,AFNE01.JPG,AFNE01.JPG,,,,,,,,,3,8,38,7,,,,,,,,,,,,,,,AFSA06.jpg,AFNE05.jpg,AFNE13.jpg,AFSA03.jpg,AFNE13.jpg,FN,3,num_2,32,num_8,1.0667443499,,,2017_Feb_09_1140,60.0028868384,FEMA4ImagesEEG,001,000004,
AFNE01.JPG,AFNE01.JPG,AFNE01.JPG,AFNE01.JPG,AFNE01.JPG,AFNE01.JPG,,,,,,,,,3,9,39,0,,,,,,,,,,,,,,,AFSA12.jpg,AFSA19.jpg,AFNE03.jpg,AFNE15.jpg,AFSA19.jpg,FS,4,num_6,16,num_6,1.16677411459,,,2017_Feb_09_1140,60.0028868384,FEMA4ImagesEEG,001,000004,
AFNE01.JPG,AFNE01.JPG,AFNE01.JPG,AFNE01.JPG,AFNE01.JPG,AFNE01.JPG,,,,,,,,,4,0,40,5,,,,,,,,,,,,,,,AFNE16.jpg,AFSA16.jpg,AFSA01.jpg,AFNE03.jpg,AFSA01.jpg,FS,4,num_2,32,num_8,1.08329099556,,,2017_Feb_09_1140,60.0028868384,FEMA4ImagesEEG,001,000004,
AFNE01.JPG,AFNE01.JPG,AFNE01.JPG,AFNE01.JPG,AFNE01.JPG,AFNE01.JPG,,,,,,,,,4,1,41,0,,,,,,,,,,,,,,,AFNE15.jpg,AFNE01.jpg,AFSA01.jpg,AFSA20.jpg,AFSA01.jpg,FS,4,num_2,32,num_6,0.950081339804,,,2017_Feb_09_1140,60.0028868384,FEMA4ImagesEEG,001,000004,
AFNE01.JPG,AFNE01.JPG,AFNE01.JPG,AFNE01.JPG,AFNE01.JPG,AFNE01.JPG,,,,,,,,,4,2,42,3,,,,,,,,,,,,,,,AFSA19.jpg,AFNE15.jpg,AFNE13.jpg,AFSA08.jpg,AFSA19.jpg,FS,4,num_8,32,num_4,0.75010744785,,,2017_Feb_09_1140,60.0028868384,FEMA4ImagesEEG,001,000004,
AFNE01.JPG,AFNE01.JPG,AFNE01.JPG,AFNE01.JPG,AFNE01.JPG,AFNE01.JPG,,,,,,,,,4,3,43,1,,,,,,,,,,,,,,,AFSA01.jpg,AFNE08.jpg,AFSA10.jpg,AFNE09.jpg,AFNE08.jpg,FN,3,num_6,16,num_6,1.10010674223,,,2017_Feb_09_1140,60.0028868384,FEMA4ImagesEEG,001,000004,
AFNE01.JPG,AFNE01.JPG,AFNE01.JPG,AFNE01.JPG,AFNE01.JPG,AFNE01.JPG,,,,,,,,,4,4,44,2,,,,,,,,,,,,,,,AFSA06.jpg,AFSA10.jpg,AFNE17.jpg,AFNE01.jpg,AFNE17.jpg,FN,3,num_2,32,num_8,0.983448863728,,,2017_Feb_09_1140,60.0028868384,FEMA4ImagesEEG,001,000004,
AFNE01.JPG,AFNE01.JPG,AFNE01.JPG,AFNE01.JPG,AFNE01.JPG,AFNE01.JPG,,,,,,,,,4,5,45,7,,,,,,,,,,,,,,,AFSA01.jpg,AFSA02.jpg,AFNE19.jpg,AFNE14.jpg,AFSA01.jpg,FS,4,num_8,32,num_6,1.11675185524,,,2017_Feb_09_1140,60.0028868384,FEMA4ImagesEEG,001,000004,
AFNE01.JPG,AFNE01.JPG,AFNE01.JPG,AFNE01.JPG,AFNE01.JPG,AFNE01.JPG,,,,,,,,,4,6,46,8,,,,,,,,,,,,,,,AFSA16.jpg,AFSA04.jpg,AFNE07.jpg,AFNE20.jpg,AFNE07.jpg,FN,3,num_2,16,num_2,1.50004586577,,,2017_Feb_09_1140,60.0028868384,FEMA4ImagesEEG,001,000004,
AFNE01.JPG,AFNE01.JPG,AFNE01.JPG,AFNE01.JPG,AFNE01.JPG,AFNE01.JPG,,,,,,,,,4,7,47,6,,,,,,,,,,,,,,,AFNE20.jpg,AFSA11.jpg,AFSA06.jpg,AFNE04.jpg,AFSA11.jpg,FS,4,num_6,16,num_6,0.933334231377,,,2017_Feb_09_1140,60.0028868384,FEMA4ImagesEEG,001,000004,
AFNE01.JPG,AFNE01.JPG,AFNE01.JPG,AFNE01.JPG,AFNE01.JPG,AFNE01.JPG,,,,,,,,,4,8,48,9,,,,,,,,,,,,,,,AFSA02.jpg,AFNE16.jpg,AFSA07.jpg,AFNE17.jpg,AFNE17.jpg,FN,3,num_4,32,num_6,1.3834393057,,,2017_Feb_09_1140,60.0028868384,FEMA4ImagesEEG,001,000004,
AFNE01.JPG,AFNE01.JPG,AFNE01.JPG,AFNE01.JPG,AFNE01.JPG,AFNE01.JPG,,,,,,,,,4,9,49,4,,,,,,,,,,,,,,,AFSA07.jpg,AFSA17.jpg,AFNE05.jpg,AFNE06.jpg,AFNE05.jpg,FN,3,num_2,16,num_2,1.4166676288,,,2017_Feb_09_1140,60.0028868384,FEMA4ImagesEEG,001,000004,
AFNE01.JPG,AFNE01.JPG,AFNE01.JPG,AFNE01.JPG,AFNE01.JPG,AFNE01.JPG,,,,,,,,,5,0,50,6,,,,,,,,,,,,,,,AFSA17.jpg,AFNE10.jpg,AFNE13.jpg,AFSA12.jpg,AFSA12.jpg,FS,4,num_4,16,num_4,1.78340376774,,,2017_Feb_09_1140,60.0028868384,FEMA4ImagesEEG,001,000004,
AFNE01.JPG,AFNE01.JPG,AFNE01.JPG,AFNE01.JPG,AFNE01.JPG,AFNE01.JPG,,,,,,,,,5,1,51,0,,,,,,,,,,,,,,,AFSA19.jpg,AFNE14.jpg,AFSA05.jpg,AFNE08.jpg,AFSA05.jpg,FS,4,num_2,16,num_2,1.1500638912,,,2017_Feb_09_1140,60.0028868384,FEMA4ImagesEEG,001,000004,
AFNE01.JPG,AFNE01.JPG,AFNE01.JPG,AFNE01.JPG,AFNE01.JPG,AFNE01.JPG,,,,,,,,,5,2,52,9,,,,,,,,,,,,,,,AFSA08.jpg,AFSA15.jpg,AFNE18.jpg,AFNE19.jpg,AFSA08.jpg,FS,4,num_8,32,num_6,1.08345361077,,,2017_Feb_09_1140,60.0028868384,FEMA4ImagesEEG,001,000004,
AFNE01.JPG,AFNE01.JPG,AFNE01.JPG,AFNE01.JPG,AFNE01.JPG,AFNE01.JPG,,,,,,,,,5,3,53,4,,,,,,,,,,,,,,,AFSA15.jpg,AFNE08.jpg,AFSA20.jpg,AFNE05.jpg,AFNE08.jpg,FN,3,num_6,16,num_6,1.03333160118,,,2017_Feb_09_1140,60.0028868384,FEMA4ImagesEEG,001,000004,
AFNE01.JPG,AFNE01.JPG,AFNE01.JPG,AFNE01.JPG,AFNE01.JPG,AFNE01.JPG,,,,,,,,,5,4,54,7,,,,,,,,,,,,,,,AFSA10.jpg,AFSA16.jpg,AFNE16.jpg,AFNE19.jpg,AFNE16.jpg,FN,3,num_2,16,num_2,1.25008371309,,,2017_Feb_09_1140,60.0028868384,FEMA4ImagesEEG,001,000004,
AFNE01.JPG,AFNE01.JPG,AFNE01.JPG,AFNE01.JPG,AFNE01.JPG,AFNE01.JPG,,,,,,,,,5,5,55,1,,,,,,,,,,,,,,,AFNE11.jpg,AFSA20.jpg,AFSA08.jpg,AFNE07.jpg,AFSA20.jpg,FS,4,num_6,32,num_2,0.550180704799,,,2017_Feb_09_1140,60.0028868384,FEMA4ImagesEEG,001,000004,
AFNE01.JPG,AFNE01.JPG,AFNE01.JPG,AFNE01.JPG,AFNE01.JPG,AFNE01.JPG,,,,,,,,,5,6,56,2,,,,,,,,,,,,,,,AFNE01.jpg,AFSA08.jpg,AFNE09.jpg,AFSA07.jpg,AFNE09.jpg,FN,3,num_2,32,num_6,1.48347740946,,,2017_Feb_09_1140,60.0028868384,FEMA4ImagesEEG,001,000004,
AFNE01.JPG,AFNE01.JPG,AFNE01.JPG,AFNE01.JPG,AFNE01.JPG,AFNE01.JPG,,,,,,,,,5,7,57,5,,,,,,,,,,,,,,,AFNE11.jpg,AFNE15.jpg,AFSA14.jpg,AFSA15.jpg,AFSA15.jpg,FS,4,num_4,32,num_6,0.916805226356,,,2017_Feb_09_1140,60.0028868384,FEMA4ImagesEEG,001,000004,
AFNE01.JPG,AFNE01.JPG,AFNE01.JPG,AFNE01.JPG,AFNE01.JPG,AFNE01.JPG,,,,,,,,,5,8,58,8,,,,,,,,,,,,,,,AFSA14.jpg,AFNE05.jpg,AFSA10.jpg,AFNE14.jpg,AFSA14.jpg,FS,4,num_8,32,num_2,1.16679881164,,,2017_Feb_09_1140,60.0028868384,FEMA4ImagesEEG,001,000004,
AFNE01.JPG,AFNE01.JPG,AFNE01.JPG,AFNE01.JPG,AFNE01.JPG,AFNE01.JPG,,,,,,,,,5,9,59,3,,,,,,,,,,,,,,,AFNE15.jpg,AFSA07.jpg,AFSA20.jpg,AFNE01.jpg,AFNE01.jpg,FN,3,num_4,32,num_8,0.900111360941,,,2017_Feb_09_1140,60.0028868384,FEMA4ImagesEEG,001,000004,
,,,,,,,,,,,,,,,,,,,,,,,,,,,,,,,,,,,,,,,,,,,space,11.7659276179,2017_Feb_09_1140,60.0028868384,FEMA4ImagesEEG,001,000004,
AFNE01.JPG,AFNE01.JPG,AFNE01.JPG,AFNE01.JPG,AFNE01.JPG,AFNE01.JPG,,,,,,,,,,,,,0,0,0,1,,,,,,,,,,,AMNE07.jpg,AMSA13.jpg,AMSA17.jpg,AMNE01.jpg,AMSA13.jpg,MS,2,num_6,16,num_6,0.750233178027,,,2017_Feb_09_1140,60.0028868384,FEMA4ImagesEEG,001,000004,
AFNE01.JPG,AFNE01.JPG,AFNE01.JPG,AFNE01.JPG,AFNE01.JPG,AFNE01.JPG,,,,,,,,,,,,,0,1,1,3,,,,,,,,,,,AMNE17.jpg,AMSA17.jpg,AMNE08.jpg,AMSA06.jpg,AMNE17.jpg,MN,1,num_8,32,num_6,1.40008955053,,,2017_Feb_09_1140,60.0028868384,FEMA4ImagesEEG,001,000004,
AFNE01.JPG,AFNE01.JPG,AFNE01.JPG,AFNE01.JPG,AFNE01.JPG,AFNE01.JPG,,,,,,,,,,,,,0,2,2,9,,,,,,,,,,,AMNE09.jpg,AMSA15.jpg,AMSA04.jpg,AMNE01.jpg,AMSA15.jpg,MS,2,num_6,16,num_6,1.49996022834,,,2017_Feb_09_1140,60.0028868384,FEMA4ImagesEEG,001,000004,
AFNE01.JPG,AFNE01.JPG,AFNE01.JPG,AFNE01.JPG,AFNE01.JPG,AFNE01.JPG,,,,,,,,,,,,,0,3,3,7,,,,,,,,,,,AMSA05.jpg,AMSA01.jpg,AMNE17.jpg,AMNE10.jpg,AMSA01.jpg,MS,2,num_6,16,num_6,0.716849295888,,,2017_Feb_09_1140,60.0028868384,FEMA4ImagesEEG,001,000004,
AFNE01.JPG,AFNE01.JPG,AFNE01.JPG,AFNE01.JPG,AFNE01.JPG,AFNE01.JPG,,,,,,,,,,,,,0,4,4,8,,,,,,,,,,,AMNE19.jpg,AMSA03.jpg,AMSA04.jpg,AMNE18.jpg,AMSA04.jpg,MS,2,num_2,16,num_2,0.883459191537,,,2017_Feb_09_1140,60.0028868384,FEMA4ImagesEEG,001,000004,
AFNE01.JPG,AFNE01.JPG,AFNE01.JPG,AFNE01.JPG,AFNE01.JPG,AFNE01.JPG,,,,,,,,,,,,,0,5,5,0,,,,,,,,,,,AMNE01.jpg,AMSA13.jpg,AMSA01.jpg,AMNE04.jpg,AMSA13.jpg,MS,2,num_6,16,num_6,1.35011540214,,,2017_Feb_09_1140,60.0028868384,FEMA4ImagesEEG,001,000004,
AFNE01.JPG,AFNE01.JPG,AFNE01.JPG,AFNE01.JPG,AFNE01.JPG,AFNE01.JPG,,,,,,,,,,,,,0,6,6,5,,,,,,,,,,,AMSA10.jpg,AMSA01.jpg,AMNE07.jpg,AMNE02.jpg,AMSA01.jpg,MS,2,num_6,16,num_6,1.51676057931,,,2017_Feb_09_1140,60.0028868384,FEMA4ImagesEEG,001,000004,
AFNE01.JPG,AFNE01.JPG,AFNE01.JPG,AFNE01.JPG,AFNE01.JPG,AFNE01.JPG,,,,,,,,,,,,,0,7,7,6,,,,,,,,,,,AMSA16.jpg,AMNE07.jpg,AMSA05.jpg,AMNE13.jpg,AMNE13.jpg,MN,1,num_4,16,num_4,0.93358472921,,,2017_Feb_09_1140,60.0028868384,FEMA4ImagesEEG,001,000004,
AFNE01.JPG,AFNE01.JPG,AFNE01.JPG,AFNE01.JPG,AFNE01.JPG,AFNE01.JPG,,,,,,,,,,,,,0,8,8,4,,,,,,,,,,,AMSA10.jpg,AMNE20.jpg,AMSA09.jpg,AMNE05.jpg,AMSA10.jpg,MS,2,num_8,32,num_4,1.41672087158,,,2017_Feb_09_1140,60.0028868384,FEMA4ImagesEEG,001,000004,
AFNE01.JPG,AFNE01.JPG,AFNE01.JPG,AFNE01.JPG,AFNE01.JPG,AFNE01.JPG,,,,,,,,,,,,,0,9,9,2,,,,,,,,,,,AMNE14.jpg,AMSA11.jpg,AMSA15.jpg,AMNE17.jpg,AMNE14.jpg,MN,1,num_8,16,num_8,0.933456433238,,,2017_Feb_09_1140,60.0028868384,FEMA4ImagesEEG,001,000004,
AFNE01.JPG,AFNE01.JPG,AFNE01.JPG,AFNE01.JPG,AFNE01.JPG,AFNE01.JPG,,,,,,,,,,,,,1,0,10,4,,,,,,,,,,,AMSA03.jpg,AMSA04.jpg,AMNE12.jpg,AMNE14.jpg,AMSA03.jpg,MS,2,num_8,32,num_6,0.916706117801,,,2017_Feb_09_1140,60.0028868384,FEMA4ImagesEEG,001,000004,
AFNE01.JPG,AFNE01.JPG,AFNE01.JPG,AFNE01.JPG,AFNE01.JPG,AFNE01.JPG,,,,,,,,,,,,,1,1,11,8,,,,,,,,,,,AMNE19.jpg,AMSA09.jpg,AMSA08.jpg,AMNE13.jpg,AMNE13.jpg,MN,1,num_4,32,num_8,1.4165906515,,,2017_Feb_09_1140,60.0028868384,FEMA4ImagesEEG,001,000004,
AFNE01.JPG,AFNE01.JPG,AFNE01.JPG,AFNE01.JPG,AFNE01.JPG,AFNE01.JPG,,,,,,,,,,,,,1,2,12,0,,,,,,,,,,,AMNE11.jpg,AMSA04.jpg,AMSA12.jpg,AMNE03.jpg,AMSA12.jpg,MS,2,num_2,32,num_6,0.833471892867,,,2017_Feb_09_1140,60.0028868384,FEMA4ImagesEEG,001,000004,
AFNE01.JPG,AFNE01.JPG,AFNE01.JPG,AFNE01.JPG,AFNE01.JPG,AFNE01.JPG,,,,,,,,,,,,,1,3,13,7,,,,,,,,,,,AMSA18.jpg,AMSA14.jpg,AMNE14.jpg,AMNE06.jpg,AMNE06.jpg,MN,1,num_4,32,num_8,1.03345701052,,,2017_Feb_09_1140,60.0028868384,FEMA4ImagesEEG,001,000004,
AFNE01.JPG,AFNE01.JPG,AFNE01.JPG,AFNE01.JPG,AFNE01.JPG,AFNE01.JPG,,,,,,,,,,,,,1,4,14,3,,,,,,,,,,,AMNE18.jpg,AMNE05.jpg,AMSA18.jpg,AMSA14.jpg,AMNE18.jpg,MN,1,num_8,32,num_6,0.883477153024,,,2017_Feb_09_1140,60.0028868384,FEMA4ImagesEEG,001,000004,
AFNE01.JPG,AFNE01.JPG,AFNE01.JPG,AFNE01.JPG,AFNE01.JPG,AFNE01.JPG,,,,,,,,,,,,,1,5,15,1,,,,,,,,,,,AMNE07.jpg,AMSA08.jpg,AMSA17.jpg,AMNE12.jpg,AMSA17.jpg,MS,2,num_2,32,num_8,1.30013804627,,,2017_Feb_09_1140,60.0028868384,FEMA4ImagesEEG,001,000004,
AFNE01.JPG,AFNE01.JPG,AFNE01.JPG,AFNE01.JPG,AFNE01.JPG,AFNE01.JPG,,,,,,,,,,,,,1,6,16,5,,,,,,,,,,,AMNE01.jpg,AMSA12.jpg,AMNE03.jpg,AMSA11.jpg,AMNE01.jpg,MN,1,num_8,16,num_8,0.766758654965,,,2017_Feb_09_1140,60.0028868384,FEMA4ImagesEEG,001,000004,
AFNE01.JPG,AFNE01.JPG,AFNE01.JPG,AFNE01.JPG,AFNE01.JPG,AFNE01.JPG,,,,,,,,,,,,,1,7,17,2,,,,,,,,,,,AMNE06.jpg,AMSA09.jpg,AMNE08.jpg,AMSA17.jpg,AMNE08.jpg,MN,1,num_2,32,num_8,1.25006927969,,,2017_Feb_09_1140,60.0028868384,FEMA4ImagesEEG,001,000004,
AFNE01.JPG,AFNE01.JPG,AFNE01.JPG,AFNE01.JPG,AFNE01.JPG,AFNE01.JPG,,,,,,,,,,,,,1,8,18,9,,,,,,,,,,,AMSA01.jpg,AMNE02.jpg,AMNE16.jpg,AMSA19.jpg,AMNE16.jpg,MN,1,num_2,16,num_2,1.50007793983,,,2017_Feb_09_1140,60.0028868384,FEMA4ImagesEEG,001,000004,
AFNE01.JPG,AFNE01.JPG,AFNE01.JPG,AFNE01.JPG,AFNE01.JPG,AFNE01.JPG,,,,,,,,,,,,,1,9,19,6,,,,,,,,,,,AMNE02.jpg,AMSA01.jpg,AMNE16.jpg,AMSA16.jpg,AMNE02.jpg,MN,1,num_8,16,num_8,0.850118930452,,,2017_Feb_09_1140,60.0028868384,FEMA4ImagesEEG,001,000004,
AFNE01.JPG,AFNE01.JPG,AFNE01.JPG,AFNE01.JPG,AFNE01.JPG,AFNE01.JPG,,,,,,,,,,,,,2,0,20,6,,,,,,,,,,,AMSA04.jpg,AMNE09.jpg,AMNE08.jpg,AMSA16.jpg,AMSA04.jpg,MS,2,num_8,16,num_8,0.733482541516,,,2017_Feb_09_1140,60.0028868384,FEMA4ImagesEEG,001,000004,
AFNE01.JPG,AFNE01.JPG,AFNE01.JPG,AFNE01.JPG,AFNE01.JPG,AFNE01.JPG,,,,,,,,,,,,,2,1,21,8,,,,,,,,,,,AMSA17.jpg,AMNE02.jpg,AMNE20.jpg,AMSA08.jpg,AMNE02.jpg,MN,1,num_6,16,num_6,0.850102251628,,,2017_Feb_09_1140,60.0028868384,FEMA4ImagesEEG,001,000004,
AFNE01.JPG,AFNE01.JPG,AFNE01.JPG,AFNE01.JPG,AFNE01.JPG,AFNE01.JPG,,,,,,,,,,,,,2,2,22,9,,,,,,,,,,,AMSA02.jpg,AMSA07.jpg,AMNE16.jpg,AMNE15.jpg,AMSA07.jpg,MS,2,num_6,32,num_8,0.800148951588,,,2017_Feb_09_1140,60.0028868384,FEMA4ImagesEEG,001,000004,
AFNE01.JPG,AFNE01.JPG,AFNE01.JPG,AFNE01.JPG,AFNE01.JPG,AFNE01.JPG,,,,,,,,,,,,,2,3,23,3,,,,,,,,,,,AMNE05.jpg,AMNE14.jpg,AMSA06.jpg,AMSA11.jpg,AMNE05.jpg,MN,1,num_8,32,num_4,0.950081339572,,,2017_Feb_09_1140,60.0028868384,FEMA4ImagesEEG,001,000004,
AFNE01.JPG,AFNE01.JPG,AFNE01.JPG,AFNE01.JPG,AFNE01.JPG,AFNE01.JPG,,,,,,,,,,,,,2,4,24,2,,,,,,,,,,,AMNE20.jpg,AMSA18.jpg,AMSA08.jpg,AMNE06.jpg,AMSA08.jpg,MS,2,num_2,32,num_6,0.883505698992,,,2017_Feb_09_1140,60.0028868384,FEMA4ImagesEEG,001,000004,
AFNE01.JPG,AFNE01.JPG,AFNE01.JPG,AFNE01.JPG,AFNE01.JPG,AFNE01.JPG,,,,,,,,,,,,,2,5,25,1,,,,,,,,,,,AMNE18.jpg,AMSA15.jpg,AMNE14.jpg,AMSA08.jpg,AMNE18.jpg,MN,1,num_8,16,num_8,1.01676827716,,,2017_Feb_09_1140,60.0028868384,FEMA4ImagesEEG,001,000004,
AFNE01.JPG,AFNE01.JPG,AFNE01.JPG,AFNE01.JPG,AFNE01.JPG,AFNE01.JPG,,,,,,,,,,,,,2,6,26,5,,,,,,,,,,,AMSA06.jpg,AMSA13.jpg,AMNE12.jpg,AMNE08.jpg,AMSA06.jpg,MS,2,num_8,16,num_8,0.950115658576,,,2017_Feb_09_1140,60.0028868384,FEMA4ImagesEEG,001,000004,
AFNE01.JPG,AFNE01.JPG,AFNE01.JPG,AFNE01.JPG,AFNE01.JPG,AFNE01.JPG,,,,,,,,,,,,,2,7,27,0,,,,,,,,,,,AMSA06.jpg,AMNE15.jpg,AMNE06.jpg,AMSA02.jpg,AMNE06.jpg,MN,1,num_2,32,num_6,0.933552334318,,,2017_Feb_09_1140,60.0028868384,FEMA4ImagesEEG,001,000004,
AFNE01.JPG,AFNE01.JPG,AFNE01.JPG,AFNE01.JPG,AFNE01.JPG,AFNE01.JPG,,,,,,,,,,,,,2,8,28,7,,,,,,,,,,,AMSA09.jpg,AMSA11.jpg,AMNE01.jpg,AMNE13.jpg,AMSA09.jpg,MS,2,num_8,16,num_8,0.866764684906,,,2017_Feb_09_1140,60.0028868384,FEMA4ImagesEEG,001,000004,
AFNE01.JPG,AFNE01.JPG,AFNE01.JPG,AFNE01.JPG,AFNE01.JPG,AFNE01.JPG,,,,,,,,,,,,,2,9,29,4,,,,,,,,,,,AMNE14.jpg,AMSA04.jpg,AMSA06.jpg,AMNE13.jpg,AMNE14.jpg,MN,1,num_8,16,num_8,0.933483375469,,,2017_Feb_09_1140,60.0028868384,FEMA4ImagesEEG,001,000004,
AFNE01.JPG,AFNE01.JPG,AFNE01.JPG,AFNE01.JPG,AFNE01.JPG,AFNE01.JPG,,,,,,,,,,,,,3,0,30,0,,,,,,,,,,,AMSA14.jpg,AMSA16.jpg,AMNE13.jpg,AMNE01.jpg,AMSA16.jpg,MS,2,num_6,16,num_6,0.933427887503,,,2017_Feb_09_1140,60.0028868384,FEMA4ImagesEEG,001,000004,
AFNE01.JPG,AFNE01.JPG,AFNE01.JPG,AFNE01.JPG,AFNE01.JPG,AFNE01.JPG,,,,,,,,,,,,,3,1,31,7,,,,,,,,,,,AMSA13.jpg,AMNE09.jpg,AMNE07.jpg,AMSA15.jpg,AMNE07.jpg,MN,1,num_2,32,num_8,0.800124254543,,,2017_Feb_09_1140,60.0028868384,FEMA4ImagesEEG,001,000004,
AFNE01.JPG,AFNE01.JPG,AFNE01.JPG,AFNE01.JPG,AFNE01.JPG,AFNE01.JPG,,,,,,,,,,,,,3,2,32,3,,,,,,,,,,,AMSA08.jpg,AMNE14.jpg,AMSA04.jpg,AMNE05.jpg,AMSA08.jpg,MS,2,num_8,16,num_8,1.06672799215,,,2017_Feb_09_1140,60.0028868384,FEMA4ImagesEEG,001,000004,
AFNE01.JPG,AFNE01.JPG,AFNE01.JPG,AFNE01.JPG,AFNE01.JPG,AFNE01.JPG,,,,,,,,,,,,,3,3,33,8,,,,,,,,,,,AMNE09.jpg,AMNE07.jpg,AMSA08.jpg,AMSA01.jpg,AMNE07.jpg,MN,1,num_6,16,num_6,0.816765839234,,,2017_Feb_09_1140,60.0028868384,FEMA4ImagesEEG,001,000004,
AFNE01.JPG,AFNE01.JPG,AFNE01.JPG,AFNE01.JPG,AFNE01.JPG,AFNE01.JPG,,,,,,,,,,,,,3,4,34,4,,,,,,,,,,,AMSA07.jpg,AMSA05.jpg,AMNE07.jpg,AMNE03.jpg,AMNE03.jpg,MN,1,num_4,32,num_8,1.06674884027,,,2017_Feb_09_1140,60.0028868384,FEMA4ImagesEEG,001,000004,
AFNE01.JPG,AFNE01.JPG,AFNE01.JPG,AFNE01.JPG,AFNE01.JPG,AFNE01.JPG,,,,,,,,,,,,,3,5,35,5,,,,,,,,,,,AMSA16.jpg,AMNE15.jpg,AMSA15.jpg,AMNE19.jpg,AMSA15.jpg,MS,2,num_2,16,num_2,0.900096606929,,,2017_Feb_09_1140,60.0028868384,FEMA4ImagesEEG,001,000004,
AFNE01.JPG,AFNE01.JPG,AFNE01.JPG,AFNE01.JPG,AFNE01.JPG,AFNE01.JPG,,,,,,,,,,,,,3,6,36,1,,,,,,,,,,,AMNE19.jpg,AMSA20.jpg,AMSA17.jpg,AMNE16.jpg,AMNE16.jpg,MN,1,num_4,16,num_4,1.71672420739,,,2017_Feb_09_1140,60.0028868384,FEMA4ImagesEEG,001,000004,
AFNE01.JPG,AFNE01.JPG,AFNE01.JPG,AFNE01.JPG,AFNE01.JPG,AFNE01.JPG,,,,,,,,,,,,,3,7,37,2,,,,,,,,,,,AMNE08.jpg,AMNE15.jpg,AMSA10.jpg,AMSA02.jpg,AMNE15.jpg,MN,1,num_6,16,num_6,0.800142536638,,,2017_Feb_09_1140,60.0028868384,FEMA4ImagesEEG,001,000004,
AFNE01.JPG,AFNE01.JPG,AFNE01.JPG,AFNE01.JPG,AFNE01.JPG,AFNE01.JPG,,,,,,,,,,,,,3,8,38,9,,,,,,,,,,,AMSA08.jpg,AMSA11.jpg,AMNE19.jpg,AMNE08.jpg,AMSA11.jpg,MS,2,num_6,32,num_8,0.88349479367,,,2017_Feb_09_1140,60.0028868384,FEMA4ImagesEEG,001,000004,
AFNE01.JPG,AFNE01.JPG,AFNE01.JPG,AFNE01.JPG,AFNE01.JPG,AFNE01.JPG,,,,,,,,,,,,,3,9,39,6,,,,,,,,,,,AMSA17.jpg,AMNE03.jpg,AMNE15.jpg,AMSA10.jpg,AMSA10.jpg,MS,2,num_4,32,num_6,0.716915368335,,,2017_Feb_09_1140,60.0028868384,FEMA4ImagesEEG,001,000004,
AFNE01.JPG,AFNE01.JPG,AFNE01.JPG,AFNE01.JPG,AFNE01.JPG,AFNE01.JPG,,,,,,,,,,,,,4,0,40,1,,,,,,,,,,,AMSA05.jpg,AMSA16.jpg,AMNE05.jpg,AMNE09.jpg,AMSA16.jpg,MS,2,num_6,16,num_6,0.833437573863,,,2017_Feb_09_1140,60.0028868384,FEMA4ImagesEEG,001,000004,
AFNE01.JPG,AFNE01.JPG,AFNE01.JPG,AFNE01.JPG,AFNE01.JPG,AFNE01.JPG,,,,,,,,,,,,,4,1,41,6,,,,,,,,,,,AMNE15.jpg,AMNE03.jpg,AMSA19.jpg,AMSA02.jpg,AMNE15.jpg,MN,1,num_8,32,num_6,0.916756153107,,,2017_Feb_09_1140,60.0028868384,FEMA4ImagesEEG,001,000004,
AFNE01.JPG,AFNE01.JPG,AFNE01.JPG,AFNE01.JPG,AFNE01.JPG,AFNE01.JPG,,,,,,,,,,,,,4,2,42,9,,,,,,,,,,,AMSA08.jpg,AMNE15.jpg,AMNE03.jpg,AMSA04.jpg,AMNE03.jpg,MN,1,num_2,32,num_8,0.966792845633,,,2017_Feb_09_1140,60.0028868384,FEMA4ImagesEEG,001,000004,
AFNE01.JPG,AFNE01.JPG,AFNE01.JPG,AFNE01.JPG,AFNE01.JPG,AFNE01.JPG,,,,,,,,,,,,,4,3,43,4,,,,,,,,,,,AMNE20.jpg,AMNE12.jpg,AMSA19.jpg,AMSA20.jpg,AMNE20.jpg,MN,1,num_8,32,num_6,0.983501785668,,,2017_Feb_09_1140,60.0028868384,FEMA4ImagesEEG,001,000004,
AFNE01.JPG,AFNE01.JPG,AFNE01.JPG,AFNE01.JPG,AFNE01.JPG,AFNE01.JPG,,,,,,,,,,,,,4,4,44,7,,,,,,,,,,,AMNE08.jpg,AMSA12.jpg,AMNE01.jpg,AMSA07.jpg,AMSA07.jpg,MS,2,num_4,32,num_8,1.46670560446,,,2017_Feb_09_1140,60.0028868384,FEMA4ImagesEEG,001,000004,
AFNE01.JPG,AFNE01.JPG,AFNE01.JPG,AFNE01.JPG,AFNE01.JPG,AFNE01.JPG,,,,,,,,,,,,,4,5,45,3,,,,,,,,,,,AMSA12.jpg,AMSA02.jpg,AMNE01.jpg,AMNE16.jpg,AMNE01.jpg,MN,1,num_2,16,num_2,1.28347368911,,,2017_Feb_09_1140,60.0028868384,FEMA4ImagesEEG,001,000004,
AFNE01.JPG,AFNE01.JPG,AFNE01.JPG,AFNE01.JPG,AFNE01.JPG,AFNE01.JPG,,,,,,,,,,,,,4,6,46,2,,,,,,,,,,,AMSA07.jpg,AMNE12.jpg,AMSA18.jpg,AMNE02.jpg,AMNE02.jpg,MN,1,num_4,32,num_8,1.03343680408,,,2017_Feb_09_1140,60.0028868384,FEMA4ImagesEEG,001,000004,
AFNE01.JPG,AFNE01.JPG,AFNE01.JPG,AFNE01.JPG,AFNE01.JPG,AFNE01.JPG,,,,,,,,,,,,,4,7,47,5,,,,,,,,,,,AMSA05.jpg,AMSA10.jpg,AMNE08.jpg,AMNE04.jpg,AMNE04.jpg,MN,1,num_4,16,num_4,0.750129578868,,,2017_Feb_09_1140,60.0028868384,FEMA4ImagesEEG,001,000004,
AFNE01.JPG,AFNE01.JPG,AFNE01.JPG,AFNE01.JPG,AFNE01.JPG,AFNE01.JPG,,,,,,,,,,,,,4,8,48,0,,,,,,,,,,,AMSA15.jpg,AMNE05.jpg,AMNE03.jpg,AMSA11.jpg,AMNE03.jpg,MN,1,num_2,32,num_6,0.833455535118,,,2017_Feb_09_1140,60.0028868384,FEMA4ImagesEEG,001,000004,
AFNE01.JPG,AFNE01.JPG,AFNE01.JPG,AFNE01.JPG,AFNE01.JPG,AFNE01.JPG,,,,,,,,,,,,,4,9,49,8,,,,,,,,,,,AMSA18.jpg,AMNE10.jpg,AMSA03.jpg,AMNE06.jpg,AMNE06.jpg,MN,1,num_4,32,num_6,0.866762118647,,,2017_Feb_09_1140,60.0028868384,FEMA4ImagesEEG,001,000004,
AFNE01.JPG,AFNE01.JPG,AFNE01.JPG,AFNE01.JPG,AFNE01.JPG,AFNE01.JPG,,,,,,,,,,,,,5,0,50,2,,,,,,,,,,,AMSA19.jpg,AMNE19.jpg,AMSA16.jpg,AMNE05.jpg,AMSA19.jpg,MS,2,num_8,32,num_6,0.750147219514,,,2017_Feb_09_1140,60.0028868384,FEMA4ImagesEEG,001,000004,
AFNE01.JPG,AFNE01.JPG,AFNE01.JPG,AFNE01.JPG,AFNE01.JPG,AFNE01.JPG,,,,,,,,,,,,,5,1,51,0,,,,,,,,,,,AMNE19.jpg,AMNE08.jpg,AMSA03.jpg,AMSA14.jpg,AMSA14.jpg,MS,2,num_4,16,num_4,0.600205209339,,,2017_Feb_09_1140,60.0028868384,FEMA4ImagesEEG,001,000004,
AFNE01.JPG,AFNE01.JPG,AFNE01.JPG,AFNE01.JPG,AFNE01.JPG,AFNE01.JPG,,,,,,,,,,,,,5,2,52,9,,,,,,,,,,,AMSA02.jpg,AMSA20.jpg,AMNE07.jpg,AMNE02.jpg,AMSA20.jpg,MS,2,num_6,16,num_6,1.25005901605,,,2017_Feb_09_1140,60.0028868384,FEMA4ImagesEEG,001,000004,
AFNE01.JPG,AFNE01.JPG,AFNE01.JPG,AFNE01.JPG,AFNE01.JPG,AFNE01.JPG,,,,,,,,,,,,,5,3,53,4,,,,,,,,,,,AMSA11.jpg,AMNE08.jpg,AMNE11.jpg,AMSA06.jpg,AMNE11.jpg,MN,1,num_2,16,num_2,1.30008384143,,,2017_Feb_09_1140,60.0028868384,FEMA4ImagesEEG,001,000004,
AFNE01.JPG,AFNE01.JPG,AFNE01.JPG,AFNE01.JPG,AFNE01.JPG,AFNE01.JPG,,,,,,,,,,,,,5,4,54,6,,,,,,,,,,,AMSA18.jpg,AMSA17.jpg,AMNE16.jpg,AMNE05.jpg,AMSA17.jpg,MS,2,num_6,16,num_6,0.816790857119,,,2017_Feb_09_1140,60.0028868384,FEMA4ImagesEEG,001,000004,
AFNE01.JPG,AFNE01.JPG,AFNE01.JPG,AFNE01.JPG,AFNE01.JPG,AFNE01.JPG,,,,,,,,,,,,,5,5,55,1,,,,,,,,,,,AMNE18.jpg,AMSA18.jpg,AMSA05.jpg,AMNE08.jpg,AMSA18.jpg,MS,2,num_6,16,num_6,0.783484594198,,,2017_Feb_09_1140,60.0028868384,FEMA4ImagesEEG,001,000004,
AFNE01.JPG,AFNE01.JPG,AFNE01.JPG,AFNE01.JPG,AFNE01.JPG,AFNE01.JPG,,,,,,,,,,,,,5,6,56,7,,,,,,,,,,,AMNE17.jpg,AMNE06.jpg,AMSA17.jpg,AMSA06.jpg,AMSA06.jpg,MS,2,num_4,32,num_2,1.200098339,,,2017_Feb_09_1140,60.0028868384,FEMA4ImagesEEG,001,000004,
AFNE01.JPG,AFNE01.JPG,AFNE01.JPG,AFNE01.JPG,AFNE01.JPG,AFNE01.JPG,,,,,,,,,,,,,5,7,57,5,,,,,,,,,,,AMSA08.jpg,AMNE07.jpg,AMNE12.jpg,AMSA16.jpg,AMSA08.jpg,MS,2,num_8,16,num_8,1.33340485836,,,2017_Feb_09_1140,60.0028868384,FEMA4ImagesEEG,001,000004,
AFNE01.JPG,AFNE01.JPG,AFNE01.JPG,AFNE01.JPG,AFNE01.JPG,AFNE01.JPG,,,,,,,,,,,,,5,8,58,8,,,,,,,,,,,AMSA14.jpg,AMNE09.jpg,AMNE19.jpg,AMSA12.jpg,AMNE09.jpg,MN,1,num_6,32,num_2,1.76672593923,,,2017_Feb_09_1140,60.0028868384,FEMA4ImagesEEG,001,000004,
AFNE01.JPG,AFNE01.JPG,AFNE01.JPG,AFNE01.JPG,AFNE01.JPG,AFNE01.JPG,,,,,,,,,,,,,5,9,59,3,,,,,,,,,,,AMNE06.jpg,AMNE15.jpg,AMSA13.jpg,AMSA12.jpg,AMSA13.jpg,MS,2,num_2,32,num_6,1.03353462974,,,2017_Feb_09_1140,60.0028868384,FEMA4ImagesEEG,001,000004,
,,,,,,,,,,,,,,,,,,,,,,,,,,,,,,,,,,,,,,,,,,,space,8.41647294001,2017_Feb_09_1140,60.0028868384,FEMA4ImagesEEG,001,000004,
AFNE01.JPG,AFNE01.JPG,AFNE01.JPG,AFNE01.JPG,AFNE01.JPG,AFNE01.JPG,,,,,,,,,,,,,,,,,0,0,0,8,,,,,,,AFNE04.jpg,AFSA17.jpg,AFNE06.jpg,AFSA01.jpg,AFSA01.jpg,FS,4,num_4,16,num_4,0.866770458175,,,2017_Feb_09_1140,60.0028868384,FEMA4ImagesEEG,001,000004,
AFNE01.JPG,AFNE01.JPG,AFNE01.JPG,AFNE01.JPG,AFNE01.JPG,AFNE01.JPG,,,,,,,,,,,,,,,,,0,1,1,4,,,,,,,AFNE10.jpg,AFSA18.jpg,AFSA06.jpg,AFNE15.jpg,AFSA18.jpg,FS,4,num_6,16,num_6,0.750126050785,,,2017_Feb_09_1140,60.0028868384,FEMA4ImagesEEG,001,000004,
AFNE01.JPG,AFNE01.JPG,AFNE01.JPG,AFNE01.JPG,AFNE01.JPG,AFNE01.JPG,,,,,,,,,,,,,,,,,0,2,2,9,,,,,,,AFSA18.jpg,AFSA04.jpg,AFNE03.jpg,AFNE18.jpg,AFNE18.jpg,FN,3,num_4,16,num_4,0.650121945189,,,2017_Feb_09_1140,60.0028868384,FEMA4ImagesEEG,001,000004,
AFNE01.JPG,AFNE01.JPG,AFNE01.JPG,AFNE01.JPG,AFNE01.JPG,AFNE01.JPG,,,,,,,,,,,,,,,,,0,3,3,7,,,,,,,AFNE16.jpg,AFSA08.jpg,AFSA12.jpg,AFNE06.jpg,AFSA12.jpg,FS,4,num_2,16,num_2,1.19997934438,,,2017_Feb_09_1140,60.0028868384,FEMA4ImagesEEG,001,000004,
AFNE01.JPG,AFNE01.JPG,AFNE01.JPG,AFNE01.JPG,AFNE01.JPG,AFNE01.JPG,,,,,,,,,,,,,,,,,0,4,4,1,,,,,,,AFNE04.jpg,AFNE10.jpg,AFSA11.jpg,AFSA14.jpg,AFSA11.jpg,FS,4,num_2,16,num_2,1.30010982137,,,2017_Feb_09_1140,60.0028868384,FEMA4ImagesEEG,001,000004,
AFNE01.JPG,AFNE01.JPG,AFNE01.JPG,AFNE01.JPG,AFNE01.JPG,AFNE01.JPG,,,,,,,,,,,,,,,,,0,5,5,6,,,,,,,AFSA05.jpg,AFNE13.jpg,AFSA18.jpg,AFNE06.jpg,AFSA18.jpg,FS,4,num_2,16,num_2,0.76678174804,,,2017_Feb_09_1140,60.0028868384,FEMA4ImagesEEG,001,000004,
AFNE01.JPG,AFNE01.JPG,AFNE01.JPG,AFNE01.JPG,AFNE01.JPG,AFNE01.JPG,,,,,,,,,,,,,,,,,0,6,6,0,,,,,,,AFSA19.jpg,AFNE20.jpg,AFNE04.jpg,AFSA20.jpg,AFNE04.jpg,FN,3,num_2,16,num_2,2.283402164,,,2017_Feb_09_1140,60.0028868384,FEMA4ImagesEEG,001,000004,
AFNE01.JPG,AFNE01.JPG,AFNE01.JPG,AFNE01.JPG,AFNE01.JPG,AFNE01.JPG,,,,,,,,,,,,,,,,,0,7,7,3,,,,,,,AFSA02.jpg,AFNE06.jpg,AFNE12.jpg,AFSA18.jpg,AFSA18.jpg,FS,4,num_4,16,num_4,1.10009230883,,,2017_Feb_09_1140,60.0028868384,FEMA4ImagesEEG,001,000004,
AFNE01.JPG,AFNE01.JPG,AFNE01.JPG,AFNE01.JPG,AFNE01.JPG,AFNE01.JPG,,,,,,,,,,,,,,,,,0,8,8,5,,,,,,,AFSA03.jpg,AFNE03.jpg,AFNE14.jpg,AFSA18.jpg,AFSA18.jpg,FS,4,num_4,16,num_4,0.866816965165,,,2017_Feb_09_1140,60.0028868384,FEMA4ImagesEEG,001,000004,
AFNE01.JPG,AFNE01.JPG,AFNE01.JPG,AFNE01.JPG,AFNE01.JPG,AFNE01.JPG,,,,,,,,,,,,,,,,,0,9,9,2,,,,,,,AFSA06.jpg,AFSA08.jpg,AFNE02.jpg,AFNE19.jpg,AFSA08.jpg,FS,4,num_6,32,num_8,1.61669091461,,,2017_Feb_09_1140,60.0028868384,FEMA4ImagesEEG,001,000004,
AFNE01.JPG,AFNE01.JPG,AFNE01.JPG,AFNE01.JPG,AFNE01.JPG,AFNE01.JPG,,,,,,,,,,,,,,,,,1,0,10,7,,,,,,,AFSA19.jpg,AFNE09.jpg,AFNE11.jpg,AFSA07.jpg,AFSA07.jpg,FS,4,num_4,32,num_6,0.816775782499,,,2017_Feb_09_1140,60.0028868384,FEMA4ImagesEEG,001,000004,
AFNE01.JPG,AFNE01.JPG,AFNE01.JPG,AFNE01.JPG,AFNE01.JPG,AFNE01.JPG,,,,,,,,,,,,,,,,,1,1,11,1,,,,,,,AFSA15.jpg,AFSA13.jpg,AFNE20.jpg,AFNE08.jpg,AFSA13.jpg,FS,4,num_6,16,num_6,0.866750251502,,,2017_Feb_09_1140,60.0028868384,FEMA4ImagesEEG,001,000004,
AFNE01.JPG,AFNE01.JPG,AFNE01.JPG,AFNE01.JPG,AFNE01.JPG,AFNE01.JPG,,,,,,,,,,,,,,,,,1,2,12,8,,,,,,,AFNE12.jpg,AFSA17.jpg,AFNE15.jpg,AFSA09.jpg,AFSA17.jpg,FS,4,num_6,32,num_2,2.00004041311,,,2017_Feb_09_1140,60.0028868384,FEMA4ImagesEEG,001,000004,
AFNE01.JPG,AFNE01.JPG,AFNE01.JPG,AFNE01.JPG,AFNE01.JPG,AFNE01.JPG,,,,,,,,,,,,,,,,,1,3,13,9,,,,,,,AFSA10.jpg,AFNE03.jpg,AFNE14.jpg,AFSA13.jpg,AFNE14.jpg,FN,3,num_2,32,num_8,1.91668975982,,,2017_Feb_09_1140,60.0028868384,FEMA4ImagesEEG,001,000004,
AFNE01.JPG,AFNE01.JPG,AFNE01.JPG,AFNE01.JPG,AFNE01.JPG,AFNE01.JPG,,,,,,,,,,,,,,,,,1,4,14,3,,,,,,,AFNE13.jpg,AFNE17.jpg,AFSA18.jpg,AFSA16.jpg,AFNE17.jpg,FN,3,num_6,16,num_6,0.933469262905,,,2017_Feb_09_1140,60.0028868384,FEMA4ImagesEEG,001,000004,
AFNE01.JPG,AFNE01.JPG,AFNE01.JPG,AFNE01.JPG,AFNE01.JPG,AFNE01.JPG,,,,,,,,,,,,,,,,,1,5,15,0,,,,,,,AFNE13.jpg,AFNE11.jpg,AFSA03.jpg,AFSA02.jpg,AFSA03.jpg,FS,4,num_2,32,num_8,1.03343391744,,,2017_Feb_09_1140,60.0028868384,FEMA4ImagesEEG,001,000004,
AFNE01.JPG,AFNE01.JPG,AFNE01.JPG,AFNE01.JPG,AFNE01.JPG,AFNE01.JPG,,,,,,,,,,,,,,,,,1,6,16,5,,,,,,,AFSA09.jpg,AFNE08.jpg,AFSA08.jpg,AFNE13.jpg,AFNE08.jpg,FN,3,num_6,16,num_6,0.983452071203,,,2017_Feb_09_1140,60.0028868384,FEMA4ImagesEEG,001,000004,
AFNE01.JPG,AFNE01.JPG,AFNE01.JPG,AFNE01.JPG,AFNE01.JPG,AFNE01.JPG,,,,,,,,,,,,,,,,,1,7,17,2,,,,,,,AFNE19.jpg,AFSA10.jpg,AFSA11.jpg,AFNE06.jpg,AFSA11.jpg,FS,4,num_2,16,num_2,1.26674133493,,,2017_Feb_09_1140,60.0028868384,FEMA4ImagesEEG,001,000004,
AFNE01.JPG,AFNE01.JPG,AFNE01.JPG,AFNE01.JPG,AFNE01.JPG,AFNE01.JPG,,,,,,,,,,,,,,,,,1,8,18,6,,,,,,,AFSA17.jpg,AFSA08.jpg,AFNE03.jpg,AFNE01.jpg,AFSA08.jpg,FS,4,num_6,16,num_6,1.16673338041,,,2017_Feb_09_1140,60.0028868384,FEMA4ImagesEEG,001,000004,
AFNE01.JPG,AFNE01.JPG,AFNE01.JPG,AFNE01.JPG,AFNE01.JPG,AFNE01.JPG,,,,,,,,,,,,,,,,,1,9,19,4,,,,,,,AFSA10.jpg,AFSA14.jpg,AFNE14.jpg,AFNE19.jpg,AFNE19.jpg,FN,3,num_4,16,num_4,0.816795668099,,,2017_Feb_09_1140,60.0028868384,FEMA4ImagesEEG,001,000004,
AFNE01.JPG,AFNE01.JPG,AFNE01.JPG,AFNE01.JPG,AFNE01.JPG,AFNE01.JPG,,,,,,,,,,,,,,,,,2,0,20,2,,,,,,,AFNE05.jpg,AFSA17.jpg,AFSA04.jpg,AFNE13.jpg,AFSA04.jpg,FS,4,num_2,32,num_8,1.56657435792,,,2017_Feb_09_1140,60.0028868384,FEMA4ImagesEEG,001,000004,
AFNE01.JPG,AFNE01.JPG,AFNE01.JPG,AFNE01.JPG,AFNE01.JPG,AFNE01.JPG,,,,,,,,,,,,,,,,,2,1,21,9,,,,,,,AFSA20.jpg,AFSA13.jpg,AFNE17.jpg,AFNE20.jpg,AFNE20.jpg,FN,3,num_4,16,num_4,1.28351570596,,,2017_Feb_09_1140,60.0028868384,FEMA4ImagesEEG,001,000004,
AFNE01.JPG,AFNE01.JPG,AFNE01.JPG,AFNE01.JPG,AFNE01.JPG,AFNE01.JPG,,,,,,,,,,,,,,,,,2,2,22,0,,,,,,,AFSA02.jpg,AFNE16.jpg,AFNE17.jpg,AFSA18.jpg,AFSA18.jpg,FS,4,num_4,16,num_4,0.816756538115,,,2017_Feb_09_1140,60.0028868384,FEMA4ImagesEEG,001,000004,
AFNE01.JPG,AFNE01.JPG,AFNE01.JPG,AFNE01.JPG,AFNE01.JPG,AFNE01.JPG,,,,,,,,,,,,,,,,,2,3,23,8,,,,,,,AFSA07.jpg,AFNE08.jpg,AFNE06.jpg,AFSA17.jpg,AFSA17.jpg,FS,4,num_4,16,num_4,1.33340934874,,,2017_Feb_09_1140,60.0028868384,FEMA4ImagesEEG,001,000004,
AFNE01.JPG,AFNE01.JPG,AFNE01.JPG,AFNE01.JPG,AFNE01.JPG,AFNE01.JPG,,,,,,,,,,,,,,,,,2,4,24,1,,,,,,,AFSA10.jpg,AFNE07.jpg,AFSA16.jpg,AFNE17.jpg,AFSA16.jpg,FS,4,num_2,16,num_2,1.85007851711,,,2017_Feb_09_1140,60.0028868384,FEMA4ImagesEEG,001,000004,
AFNE01.JPG,AFNE01.JPG,AFNE01.JPG,AFNE01.JPG,AFNE01.JPG,AFNE01.JPG,,,,,,,,,,,,,,,,,2,5,25,5,,,,,,,AFSA06.jpg,AFNE01.jpg,AFNE14.jpg,AFSA03.jpg,AFSA03.jpg,FS,4,num_4,32,num_8,1.66672921088,,,2017_Feb_09_1140,60.0028868384,FEMA4ImagesEEG,001,000004,
AFNE01.JPG,AFNE01.JPG,AFNE01.JPG,AFNE01.JPG,AFNE01.JPG,AFNE01.JPG,,,,,,,,,,,,,,,,,2,6,26,6,,,,,,,AFNE04.jpg,AFSA15.jpg,AFNE03.jpg,AFSA08.jpg,AFSA15.jpg,FS,4,num_6,16,num_6,0.800159215461,,,2017_Feb_09_1140,60.0028868384,FEMA4ImagesEEG,001,000004,
AFNE01.JPG,AFNE01.JPG,AFNE01.JPG,AFNE01.JPG,AFNE01.JPG,AFNE01.JPG,,,,,,,,,,,,,,,,,2,7,27,7,,,,,,,AFNE05.jpg,AFSA18.jpg,AFNE04.jpg,AFSA02.jpg,AFSA18.jpg,FS,4,num_6,32,num_4,0.850139136892,,,2017_Feb_09_1140,60.0028868384,FEMA4ImagesEEG,001,000004,
AFNE01.JPG,AFNE01.JPG,AFNE01.JPG,AFNE01.JPG,AFNE01.JPG,AFNE01.JPG,,,,,,,,,,,,,,,,,2,8,28,3,,,,,,,AFSA05.jpg,AFNE17.jpg,AFSA16.jpg,AFNE04.jpg,AFNE17.jpg,FN,3,num_6,16,num_6,0.916743965121,,,2017_Feb_09_1140,60.0028868384,FEMA4ImagesEEG,001,000004,
AFNE01.JPG,AFNE01.JPG,AFNE01.JPG,AFNE01.JPG,AFNE01.JPG,AFNE01.JPG,,,,,,,,,,,,,,,,,2,9,29,4,,,,,,,AFSA01.jpg,AFSA18.jpg,AFNE03.jpg,AFNE12.jpg,AFNE03.jpg,FN,3,num_2,32,num_4,1.0501409329,,,2017_Feb_09_1140,60.0028868384,FEMA4ImagesEEG,001,000004,
AFNE01.JPG,AFNE01.JPG,AFNE01.JPG,AFNE01.JPG,AFNE01.JPG,AFNE01.JPG,,,,,,,,,,,,,,,,,3,0,30,7,,,,,,,AFNE03.jpg,AFSA05.jpg,AFNE14.jpg,AFSA01.jpg,AFSA01.jpg,FS,4,num_4,16,num_4,1.05016466766,,,2017_Feb_09_1140,60.0028868384,FEMA4ImagesEEG,001,000004,
AFNE01.JPG,AFNE01.JPG,AFNE01.JPG,AFNE01.JPG,AFNE01.JPG,AFNE01.JPG,,,,,,,,,,,,,,,,,3,1,31,6,,,,,,,AFNE18.jpg,AFNE06.jpg,AFSA02.jpg,AFSA06.jpg,AFNE18.jpg,FN,3,num_8,32,num_2,1.28345797281,,,2017_Feb_09_1140,60.0028868384,FEMA4ImagesEEG,001,000004,
AFNE01.JPG,AFNE01.JPG,AFNE01.JPG,AFNE01.JPG,AFNE01.JPG,AFNE01.JPG,,,,,,,,,,,,,,,,,3,2,32,4,,,,,,,AFNE05.jpg,AFNE19.jpg,AFSA02.jpg,AFSA18.jpg,AFSA02.jpg,FS,4,num_2,32,num_6,0.799998203991,,,2017_Feb_09_1140,60.0028868384,FEMA4ImagesEEG,001,000004,
AFNE01.JPG,AFNE01.JPG,AFNE01.JPG,AFNE01.JPG,AFNE01.JPG,AFNE01.JPG,,,,,,,,,,,,,,,,,3,3,33,3,,,,,,,AFSA13.jpg,AFNE06.jpg,AFSA04.jpg,AFNE05.jpg,AFNE06.jpg,FN,3,num_6,16,num_6,1.0167432595,,,2017_Feb_09_1140,60.0028868384,FEMA4ImagesEEG,001,000004,
AFNE01.JPG,AFNE01.JPG,AFNE01.JPG,AFNE01.JPG,AFNE01.JPG,AFNE01.JPG,,,,,,,,,,,,,,,,,3,4,34,0,,,,,,,AFSA14.jpg,AFNE16.jpg,AFSA10.jpg,AFNE05.jpg,AFSA14.jpg,FS,4,num_8,16,num_8,1.03346695355,,,2017_Feb_09_1140,60.0028868384,FEMA4ImagesEEG,001,000004,
AFNE01.JPG,AFNE01.JPG,AFNE01.JPG,AFNE01.JPG,AFNE01.JPG,AFNE01.JPG,,,,,,,,,,,,,,,,,3,5,35,8,,,,,,,AFNE07.jpg,AFNE20.jpg,AFSA08.jpg,AFSA14.jpg,AFSA14.jpg,FS,4,num_4,32,num_8,0.9334291704,,,2017_Feb_09_1140,60.0028868384,FEMA4ImagesEEG,001,000004,
AFNE01.JPG,AFNE01.JPG,AFNE01.JPG,AFNE01.JPG,AFNE01.JPG,AFNE01.JPG,,,,,,,,,,,,,,,,,3,6,36,9,,,,,,,AFSA14.jpg,AFNE08.jpg,AFSA04.jpg,AFNE16.jpg,AFNE16.jpg,FN,3,num_4,16,num_4,1.03346695355,,,2017_Feb_09_1140,60.0028868384,FEMA4ImagesEEG,001,000004,
AFNE01.JPG,AFNE01.JPG,AFNE01.JPG,AFNE01.JPG,AFNE01.JPG,AFNE01.JPG,,,,,,,,,,,,,,,,,3,7,37,2,,,,,,,AFNE20.jpg,AFSA06.jpg,AFNE08.jpg,AFSA01.jpg,AFNE08.jpg,FN,3,num_2,32,num_6,0.816756538115,,,2017_Feb_09_1140,60.0028868384,FEMA4ImagesEEG,001,000004,
AFNE01.JPG,AFNE01.JPG,AFNE01.JPG,AFNE01.JPG,AFNE01.JPG,AFNE01.JPG,,,,,,,,,,,,,,,,,3,8,38,1,,,,,,,AFSA17.jpg,AFNE04.jpg,AFSA04.jpg,AFNE19.jpg,AFNE19.jpg,FN,3,num_4,32,num_6,0.916774114594,,,2017_Feb_09_1140,60.0028868384,FEMA4ImagesEEG,001,000004,
AFNE01.JPG,AFNE01.JPG,AFNE01.JPG,AFNE01.JPG,AFNE01.JPG,AFNE01.JPG,,,,,,,,,,,,,,,,,3,9,39,5,,,,,,,AFNE10.jpg,AFSA07.jpg,AFNE15.jpg,AFSA19.jpg,AFNE10.jpg,FN,3,num_8,16,num_8,1.00013503153,,,2017_Feb_09_1140,60.0028868384,FEMA4ImagesEEG,001,000004,
AFNE01.JPG,AFNE01.JPG,AFNE01.JPG,AFNE01.JPG,AFNE01.JPG,AFNE01.JPG,,,,,,,,,,,,,,,,,4,0,40,7,,,,,,,AFNE06.jpg,AFSA01.jpg,AFNE04.jpg,AFSA03.jpg,AFNE04.jpg,FN,3,num_2,16,num_2,1.66657301062,,,2017_Feb_09_1140,60.0028868384,FEMA4ImagesEEG,001,000004,
AFNE01.JPG,AFNE01.JPG,AFNE01.JPG,AFNE01.JPG,AFNE01.JPG,AFNE01.JPG,,,,,,,,,,,,,,,,,4,1,41,6,,,,,,,AFSA02.jpg,AFNE06.jpg,AFNE13.jpg,AFSA07.jpg,AFSA02.jpg,FS,4,num_8,16,num_8,1.0501210473,,,2017_Feb_09_1140,60.0028868384,FEMA4ImagesEEG,001,000004,
AFNE01.JPG,AFNE01.JPG,AFNE01.JPG,AFNE01.JPG,AFNE01.JPG,AFNE01.JPG,,,,,,,,,,,,,,,,,4,2,42,9,,,,,,,AFNE16.jpg,AFSA02.jpg,AFNE07.jpg,AFSA06.jpg,AFNE16.jpg,FN,3,num_8,16,num_8,1.00015267218,,,2017_Feb_09_1140,60.0028868384,FEMA4ImagesEEG,001,000004,
AFNE01.JPG,AFNE01.JPG,AFNE01.JPG,AFNE01.JPG,AFNE01.JPG,AFNE01.JPG,,,,,,,,,,,,,,,,,4,3,43,4,,,,,,,AFNE11.jpg,AFNE06.jpg,AFSA13.jpg,AFSA01.jpg,AFNE06.jpg,FN,3,num_6,16,num_6,0.816799837863,,,2017_Feb_09_1140,60.0028868384,FEMA4ImagesEEG,001,000004,
AFNE01.JPG,AFNE01.JPG,AFNE01.JPG,AFNE01.JPG,AFNE01.JPG,AFNE01.JPG,,,,,,,,,,,,,,,,,4,4,44,0,,,,,,,AFSA17.jpg,AFSA14.jpg,AFNE16.jpg,AFNE02.jpg,AFNE16.jpg,FN,3,num_2,16,num_2,1.56669784267,,,2017_Feb_09_1140,60.0028868384,FEMA4ImagesEEG,001,000004,
AFNE01.JPG,AFNE01.JPG,AFNE01.JPG,AFNE01.JPG,AFNE01.JPG,AFNE01.JPG,,,,,,,,,,,,,,,,,4,5,45,1,,,,,,,AFNE07.jpg,AFSA02.jpg,AFSA14.jpg,AFNE13.jpg,AFSA02.jpg,FS,4,num_6,16,num_6,1.08345521451,,,2017_Feb_09_1140,60.0028868384,FEMA4ImagesEEG,001,000004,
AFNE01.JPG,AFNE01.JPG,AFNE01.JPG,AFNE01.JPG,AFNE01.JPG,AFNE01.JPG,,,,,,,,,,,,,,,,,4,6,46,2,,,,,,,AFSA02.jpg,AFSA08.jpg,AFNE08.jpg,AFNE07.jpg,AFSA02.jpg,FS,4,num_8,32,num_6,0.816771933343,,,2017_Feb_09_1140,60.0028868384,FEMA4ImagesEEG,001,000004,
AFNE01.JPG,AFNE01.JPG,AFNE01.JPG,AFNE01.JPG,AFNE01.JPG,AFNE01.JPG,,,,,,,,,,,,,,,,,4,7,47,8,,,,,,,AFSA15.jpg,AFSA17.jpg,AFNE09.jpg,AFNE08.jpg,AFSA17.jpg,FS,4,num_6,16,num_6,0.866720743245,,,2017_Feb_09_1140,60.0028868384,FEMA4ImagesEEG,001,000004,
AFNE01.JPG,AFNE01.JPG,AFNE01.JPG,AFNE01.JPG,AFNE01.JPG,AFNE01.JPG,,,,,,,,,,,,,,,,,4,8,48,5,,,,,,,AFSA12.jpg,AFNE16.jpg,AFNE08.jpg,AFSA05.jpg,AFNE16.jpg,FN,3,num_6,32,num_2,1.21677520499,,,2017_Feb_09_1140,60.0028868384,FEMA4ImagesEEG,001,000004,
AFNE01.JPG,AFNE01.JPG,AFNE01.JPG,AFNE01.JPG,AFNE01.JPG,AFNE01.JPG,,,,,,,,,,,,,,,,,4,9,49,3,,,,,,,AFSA01.jpg,AFNE15.jpg,AFSA11.jpg,AFNE02.jpg,AFSA11.jpg,FS,4,num_2,16,num_2,0.866790985456,,,2017_Feb_09_1140,60.0028868384,FEMA4ImagesEEG,001,000004,
AFNE01.JPG,AFNE01.JPG,AFNE01.JPG,AFNE01.JPG,AFNE01.JPG,AFNE01.JPG,,,,,,,,,,,,,,,,,5,0,50,8,,,,,,,AFSA05.jpg,AFNE14.jpg,AFSA15.jpg,AFNE01.jpg,AFSA15.jpg,FS,4,num_2,16,num_2,0.833467081888,,,2017_Feb_09_1140,60.0028868384,FEMA4ImagesEEG,001,000004,
AFNE01.JPG,AFNE01.JPG,AFNE01.JPG,AFNE01.JPG,AFNE01.JPG,AFNE01.JPG,,,,,,,,,,,,,,,,,5,1,51,5,,,,,,,AFSA02.jpg,AFNE13.jpg,AFSA16.jpg,AFNE06.jpg,AFSA02.jpg,FS,4,num_8,16,num_8,1.65009853127,,,2017_Feb_09_1140,60.0028868384,FEMA4ImagesEEG,001,000004,
AFNE01.JPG,AFNE01.JPG,AFNE01.JPG,AFNE01.JPG,AFNE01.JPG,AFNE01.JPG,,,,,,,,,,,,,,,,,5,2,52,7,,,,,,,AFNE12.jpg,AFNE14.jpg,AFSA10.jpg,AFSA12.jpg,AFNE14.jpg,FN,3,num_6,16,num_6,2.83331986237,,,2017_Feb_09_1140,60.0028868384,FEMA4ImagesEEG,001,000004,
AFNE01.JPG,AFNE01.JPG,AFNE01.JPG,AFNE01.JPG,AFNE01.JPG,AFNE01.JPG,,,,,,,,,,,,,,,,,5,3,53,1,,,,,,,AFNE08.jpg,AFSA14.jpg,AFNE14.jpg,AFSA07.jpg,AFNE14.jpg,FN,3,num_2,16,num_2,1.36683781352,,,2017_Feb_09_1140,60.0028868384,FEMA4ImagesEEG,001,000004,
AFNE01.JPG,AFNE01.JPG,AFNE01.JPG,AFNE01.JPG,AFNE01.JPG,AFNE01.JPG,,,,,,,,,,,,,,,,,5,4,54,6,,,,,,,AFNE11.jpg,AFSA10.jpg,AFNE07.jpg,AFSA20.jpg,AFNE11.jpg,FN,3,num_8,16,num_8,1.48341550678,,,2017_Feb_09_1140,60.0028868384,FEMA4ImagesEEG,001,000004,
AFNE01.JPG,AFNE01.JPG,AFNE01.JPG,AFNE01.JPG,AFNE01.JPG,AFNE01.JPG,,,,,,,,,,,,,,,,,5,5,55,0,,,,,,,AFSA15.jpg,AFNE20.jpg,AFNE11.jpg,AFSA01.jpg,AFSA15.jpg,FS,4,num_8,32,num_6,0.783461500891,,,2017_Feb_09_1140,60.0028868384,FEMA4ImagesEEG,001,000004,
AFNE01.JPG,AFNE01.JPG,AFNE01.JPG,AFNE01.JPG,AFNE01.JPG,AFNE01.JPG,,,,,,,,,,,,,,,,,5,6,56,4,,,,,,,AFNE19.jpg,AFNE08.jpg,AFSA19.jpg,AFSA02.jpg,AFNE08.jpg,FN,3,num_6,16,num_6,0.800187119516,,,2017_Feb_09_1140,60.0028868384,FEMA4ImagesEEG,001,000004,
AFNE01.JPG,AFNE01.JPG,AFNE01.JPG,AFNE01.JPG,AFNE01.JPG,AFNE01.JPG,,,,,,,,,,,,,,,,,5,7,57,2,,,,,,,AFNE13.jpg,AFSA11.jpg,AFSA16.jpg,AFNE01.jpg,AFSA16.jpg,FS,4,num_2,32,num_8,0.983455278678,,,2017_Feb_09_1140,60.0028868384,FEMA4ImagesEEG,001,000004,
AFNE01.JPG,AFNE01.JPG,AFNE01.JPG,AFNE01.JPG,AFNE01.JPG,AFNE01.JPG,,,,,,,,,,,,,,,,,5,8,58,3,,,,,,,AFNE08.jpg,AFSA07.jpg,AFNE10.jpg,AFSA03.jpg,AFSA03.jpg,FS,4,num_4,32,num_6,0.800105972448,,,2017_Feb_09_1140,60.0028868384,FEMA4ImagesEEG,001,000004,
AFNE01.JPG,AFNE01.JPG,AFNE01.JPG,AFNE01.JPG,AFNE01.JPG,AFNE01.JPG,,,,,,,,,,,,,,,,,5,9,59,9,,,,,,,AFSA14.jpg,AFNE15.jpg,AFSA10.jpg,AFNE13.jpg,AFNE13.jpg,FN,3,num_4,32,num_8,0.933166805422,,,2017_Feb_09_1140,60.0028868384,FEMA4ImagesEEG,001,000004,
,,,,,,,,,,,,,,,,,,,,,,,,,,,,,,,,,,,,,,,,,,,space,3.98319483781,2017_Feb_09_1140,60.0028868384,FEMA4ImagesEEG,001,000004,
AFNE01.JPG,AFNE01.JPG,AFNE01.JPG,AFNE01.JPG,AFNE01.JPG,AFNE01.JPG,,,,,,,,,,,,,,,,,,,,,0,0,0,5,,,AMSA04.jpg,AMNE17.jpg,AMNE20.jpg,AMSA13.jpg,AMNE20.jpg,MN,1,num_2,32,num_4,0.850189172197,,,2017_Feb_09_1140,60.0028868384,FEMA4ImagesEEG,001,000004,
AFNE01.JPG,AFNE01.JPG,AFNE01.JPG,AFNE01.JPG,AFNE01.JPG,AFNE01.JPG,,,,,,,,,,,,,,,,,,,,,0,1,1,7,,,AMSA17.jpg,AMSA13.jpg,AMNE09.jpg,AMNE12.jpg,AMNE12.jpg,MN,1,num_4,32,num_6,0.983465542318,,,2017_Feb_09_1140,60.0028868384,FEMA4ImagesEEG,001,000004,
AFNE01.JPG,AFNE01.JPG,AFNE01.JPG,AFNE01.JPG,AFNE01.JPG,AFNE01.JPG,,,,,,,,,,,,,,,,,,,,,0,2,2,0,,,AMNE17.jpg,AMSA11.jpg,AMSA18.jpg,AMNE02.jpg,AMNE02.jpg,MN,1,num_4,16,num_4,0.733568178955,,,2017_Feb_09_1140,60.0028868384,FEMA4ImagesEEG,001,000004,
AFNE01.JPG,AFNE01.JPG,AFNE01.JPG,AFNE01.JPG,AFNE01.JPG,AFNE01.JPG,,,,,,,,,,,,,,,,,,,,,0,3,3,9,,,AMNE12.jpg,AMSA18.jpg,AMSA13.jpg,AMNE10.jpg,AMNE12.jpg,MN,1,num_8,32,num_6,0.599987427006,,,2017_Feb_09_1140,60.0028868384,FEMA4ImagesEEG,001,000004,
AFNE01.JPG,AFNE01.JPG,AFNE01.JPG,AFNE01.JPG,AFNE01.JPG,AFNE01.JPG,,,,,,,,,,,,,,,,,,,,,0,4,4,2,,,AMSA20.jpg,AMSA13.jpg,AMNE06.jpg,AMNE05.jpg,AMSA13.jpg,MS,2,num_6,16,num_6,0.883329612669,,,2017_Feb_09_1140,60.0028868384,FEMA4ImagesEEG,001,000004,
AFNE01.JPG,AFNE01.JPG,AFNE01.JPG,AFNE01.JPG,AFNE01.JPG,AFNE01.JPG,,,,,,,,,,,,,,,,,,,,,0,5,5,6,,,AMNE16.jpg,AMSA17.jpg,AMNE05.jpg,AMSA20.jpg,AMNE16.jpg,MN,1,num_8,16,num_8,1.08346547815,,,2017_Feb_09_1140,60.0028868384,FEMA4ImagesEEG,001,000004,
AFNE01.JPG,AFNE01.JPG,AFNE01.JPG,AFNE01.JPG,AFNE01.JPG,AFNE01.JPG,,,,,,,,,,,,,,,,,,,,,0,6,6,8,,,AMSA20.jpg,AMNE12.jpg,AMSA08.jpg,AMNE11.jpg,AMSA20.jpg,MS,2,num_8,32,num_6,1.25006254436,,,2017_Feb_09_1140,60.0028868384,FEMA4ImagesEEG,001,000004,
AFNE01.JPG,AFNE01.JPG,AFNE01.JPG,AFNE01.JPG,AFNE01.JPG,AFNE01.JPG,,,,,,,,,,,,,,,,,,,,,0,7,7,4,,,AMNE15.jpg,AMSA08.jpg,AMNE05.jpg,AMSA01.jpg,AMSA01.jpg,MS,2,num_4,16,num_4,0.900018346263,,,2017_Feb_09_1140,60.0028868384,FEMA4ImagesEEG,001,000004,
AFNE01.JPG,AFNE01.JPG,AFNE01.JPG,AFNE01.JPG,AFNE01.JPG,AFNE01.JPG,,,,,,,,,,,,,,,,,,,,,0,8,8,3,,,AMNE20.jpg,AMSA06.jpg,AMSA04.jpg,AMNE02.jpg,AMSA04.jpg,MS,2,num_2,16,num_2,1.03342589876,,,2017_Feb_09_1140,60.0028868384,FEMA4ImagesEEG,001,000004,
AFNE01.JPG,AFNE01.JPG,AFNE01.JPG,AFNE01.JPG,AFNE01.JPG,AFNE01.JPG,,,,,,,,,,,,,,,,,,,,,0,9,9,1,,,AMNE15.jpg,AMSA05.jpg,AMSA02.jpg,AMNE03.jpg,AMSA02.jpg,MS,2,num_2,16,num_2,0.850127269514,,,2017_Feb_09_1140,60.0028868384,FEMA4ImagesEEG,001,000004,
AFNE01.JPG,AFNE01.JPG,AFNE01.JPG,AFNE01.JPG,AFNE01.JPG,AFNE01.JPG,,,,,,,,,,,,,,,,,,,,,1,0,10,1,,,AMNE12.jpg,AMNE06.jpg,AMSA01.jpg,AMSA02.jpg,AMNE12.jpg,MN,1,num_8,16,num_8,1.13341589179,,,2017_Feb_09_1140,60.0028868384,FEMA4ImagesEEG,001,000004,
AFNE01.JPG,AFNE01.JPG,AFNE01.JPG,AFNE01.JPG,AFNE01.JPG,AFNE01.JPG,,,,,,,,,,,,,,,,,,,,,1,1,11,9,,,AMNE13.jpg,AMNE17.jpg,AMSA13.jpg,AMSA06.jpg,AMNE17.jpg,MN,1,num_6,16,num_6,1.15009596525,,,2017_Feb_09_1140,60.0028868384,FEMA4ImagesEEG,001,000004,
AFNE01.JPG,AFNE01.JPG,AFNE01.JPG,AFNE01.JPG,AFNE01.JPG,AFNE01.JPG,,,,,,,,,,,,,,,,,,,,,1,2,12,8,,,AMSA06.jpg,AMNE13.jpg,AMNE16.jpg,AMSA09.jpg,AMSA09.jpg,MS,2,num_4,32,num_6,1.06677321647,,,2017_Feb_09_1140,60.0028868384,FEMA4ImagesEEG,001,000004,
AFNE01.JPG,AFNE01.JPG,AFNE01.JPG,AFNE01.JPG,AFNE01.JPG,AFNE01.JPG,,,,,,,,,,,,,,,,,,,,,1,3,13,5,,,AMSA12.jpg,AMNE14.jpg,AMSA17.jpg,AMNE15.jpg,AMSA12.jpg,MS,2,num_8,32,num_2,1.21672196221,,,2017_Feb_09_1140,60.0028868384,FEMA4ImagesEEG,001,000004,
AFNE01.JPG,AFNE01.JPG,AFNE01.JPG,AFNE01.JPG,AFNE01.JPG,AFNE01.JPG,,,,,,,,,,,,,,,,,,,,,1,4,14,4,,,AMNE16.jpg,AMSA18.jpg,AMSA07.jpg,AMNE02.jpg,AMSA07.jpg,MS,2,num_2,16,num_2,1.00024536601,,,2017_Feb_09_1140,60.0028868384,FEMA4ImagesEEG,001,000004,
AFNE01.JPG,AFNE01.JPG,AFNE01.JPG,AFNE01.JPG,AFNE01.JPG,AFNE01.JPG,,,,,,,,,,,,,,,,,,,,,1,5,15,6,,,AMSA06.jpg,AMNE19.jpg,AMSA07.jpg,AMNE05.jpg,AMSA06.jpg,MS,2,num_8,32,num_6,0.883541301126,,,2017_Feb_09_1140,60.0028868384,FEMA4ImagesEEG,001,000004,
AFNE01.JPG,AFNE01.JPG,AFNE01.JPG,AFNE01.JPG,AFNE01.JPG,AFNE01.JPG,,,,,,,,,,,,,,,,,,,,,1,6,16,2,,,AMNE10.jpg,AMSA07.jpg,AMNE02.jpg,AMSA20.jpg,AMSA07.jpg,MS,2,num_6,16,num_6,0.766723694047,,,2017_Feb_09_1140,60.0028868384,FEMA4ImagesEEG,001,000004,
AFNE01.JPG,AFNE01.JPG,AFNE01.JPG,AFNE01.JPG,AFNE01.JPG,AFNE01.JPG,,,,,,,,,,,,,,,,,,,,,1,7,17,7,,,AMNE04.jpg,AMSA06.jpg,AMNE17.jpg,AMSA13.jpg,AMNE04.jpg,MN,1,num_8,32,num_6,0.833462591516,,,2017_Feb_09_1140,60.0028868384,FEMA4ImagesEEG,001,000004,
AFNE01.JPG,AFNE01.JPG,AFNE01.JPG,AFNE01.JPG,AFNE01.JPG,AFNE01.JPG,,,,,,,,,,,,,,,,,,,,,1,8,18,0,,,AMSA13.jpg,AMNE05.jpg,AMNE17.jpg,AMSA01.jpg,AMSA01.jpg,MS,2,num_4,16,num_4,1.21676558279,,,2017_Feb_09_1140,60.0028868384,FEMA4ImagesEEG,001,000004,
AFNE01.JPG,AFNE01.JPG,AFNE01.JPG,AFNE01.JPG,AFNE01.JPG,AFNE01.JPG,,,,,,,,,,,,,,,,,,,,,1,9,19,3,,,AMNE02.jpg,AMSA11.jpg,AMSA03.jpg,AMNE06.jpg,AMSA11.jpg,MS,2,num_6,16,num_6,0.750115145696,,,2017_Feb_09_1140,60.0028868384,FEMA4ImagesEEG,001,000004,
AFNE01.JPG,AFNE01.JPG,AFNE01.JPG,AFNE01.JPG,AFNE01.JPG,AFNE01.JPG,,,,,,,,,,,,,,,,,,,,,2,0,20,5,,,AMNE18.jpg,AMNE10.jpg,AMSA03.jpg,AMSA15.jpg,AMNE10.jpg,MN,1,num_6,32,num_2,1.11676179827,,,2017_Feb_09_1140,60.0028868384,FEMA4ImagesEEG,001,000004,
AFNE01.JPG,AFNE01.JPG,AFNE01.JPG,AFNE01.JPG,AFNE01.JPG,AFNE01.JPG,,,,,,,,,,,,,,,,,,,,,2,1,21,7,,,AMNE11.jpg,AMNE07.jpg,AMSA19.jpg,AMSA02.jpg,AMNE07.jpg,MN,1,num_6,16,num_6,0.700286292238,,,2017_Feb_09_1140,60.0028868384,FEMA4ImagesEEG,001,000004,
AFNE01.JPG,AFNE01.JPG,AFNE01.JPG,AFNE01.JPG,AFNE01.JPG,AFNE01.JPG,,,,,,,,,,,,,,,,,,,,,2,2,22,8,,,AMSA08.jpg,AMSA10.jpg,AMNE09.jpg,AMNE06.jpg,AMNE06.jpg,MN,1,num_4,16,num_4,0.900174225913,,,2017_Feb_09_1140,60.0028868384,FEMA4ImagesEEG,001,000004,
AFNE01.JPG,AFNE01.JPG,AFNE01.JPG,AFNE01.JPG,AFNE01.JPG,AFNE01.JPG,,,,,,,,,,,,,,,,,,,,,2,3,23,0,,,AMNE02.jpg,AMSA20.jpg,AMNE16.jpg,AMSA03.jpg,AMSA20.jpg,MS,2,num_6,16,num_6,1.1670659876,,,2017_Feb_09_1140,60.0028868384,FEMA4ImagesEEG,001,000004,
AFNE01.JPG,AFNE01.JPG,AFNE01.JPG,AFNE01.JPG,AFNE01.JPG,AFNE01.JPG,,,,,,,,,,,,,,,,,,,,,2,4,24,6,,,AMNE16.jpg,AMNE17.jpg,AMSA13.jpg,AMSA01.jpg,AMNE17.jpg,MN,1,num_6,16,num_6,1.08347766614,,,2017_Feb_09_1140,60.0028868384,FEMA4ImagesEEG,001,000004,
AFNE01.JPG,AFNE01.JPG,AFNE01.JPG,AFNE01.JPG,AFNE01.JPG,AFNE01.JPG,,,,,,,,,,,,,,,,,,,,,2,5,25,2,,,AMNE05.jpg,AMNE14.jpg,AMSA09.jpg,AMSA05.jpg,AMSA05.jpg,MS,2,num_4,32,num_8,0.916760643478,,,2017_Feb_09_1140,60.0028868384,FEMA4ImagesEEG,001,000004,
AFNE01.JPG,AFNE01.JPG,AFNE01.JPG,AFNE01.JPG,AFNE01.JPG,AFNE01.JPG,,,,,,,,,,,,,,,,,,,,,2,6,26,9,,,AMNE12.jpg,AMNE02.jpg,AMSA13.jpg,AMSA11.jpg,AMSA13.jpg,MS,2,num_2,16,num_2,1.03341018246,,,2017_Feb_09_1140,60.0028868384,FEMA4ImagesEEG,001,000004,
AFNE01.JPG,AFNE01.JPG,AFNE01.JPG,AFNE01.JPG,AFNE01.JPG,AFNE01.JPG,,,,,,,,,,,,,,,,,,,,,2,7,27,4,,,AMNE19.jpg,AMSA04.jpg,AMSA15.jpg,AMNE01.jpg,AMNE19.jpg,MN,1,num_8,16,num_8,0.866744798841,,,2017_Feb_09_1140,60.0028868384,FEMA4ImagesEEG,001,000004,
AFNE01.JPG,AFNE01.JPG,AFNE01.JPG,AFNE01.JPG,AFNE01.JPG,AFNE01.JPG,,,,,,,,,,,,,,,,,,,,,2,8,28,1,,,AMNE02.jpg,AMNE12.jpg,AMSA20.jpg,AMSA18.jpg,AMNE12.jpg,MN,1,num_6,16,num_6,0.78346278402,,,2017_Feb_09_1140,60.0028868384,FEMA4ImagesEEG,001,000004,
AFNE01.JPG,AFNE01.JPG,AFNE01.JPG,AFNE01.JPG,AFNE01.JPG,AFNE01.JPG,,,,,,,,,,,,,,,,,,,,,2,9,29,3,,,AMNE03.jpg,AMNE09.jpg,AMSA02.jpg,AMSA15.jpg,AMSA15.jpg,MS,2,num_4,16,num_4,0.733447580831,,,2017_Feb_09_1140,60.0028868384,FEMA4ImagesEEG,001,000004,
AFNE01.JPG,AFNE01.JPG,AFNE01.JPG,AFNE01.JPG,AFNE01.JPG,AFNE01.JPG,,,,,,,,,,,,,,,,,,,,,3,0,30,1,,,AMNE14.jpg,AMNE20.jpg,AMSA19.jpg,AMSA20.jpg,AMNE14.jpg,MN,1,num_8,16,num_8,0.983417751966,,,2017_Feb_09_1140,60.0028868384,FEMA4ImagesEEG,001,000004,
AFNE01.JPG,AFNE01.JPG,AFNE01.JPG,AFNE01.JPG,AFNE01.JPG,AFNE01.JPG,,,,,,,,,,,,,,,,,,,,,3,1,31,6,,,AMSA04.jpg,AMSA17.jpg,AMNE11.jpg,AMNE06.jpg,AMNE06.jpg,MN,1,num_4,32,num_6,1.233427695,,,2017_Feb_09_1140,60.0028868384,FEMA4ImagesEEG,001,000004,
AFNE01.JPG,AFNE01.JPG,AFNE01.JPG,AFNE01.JPG,AFNE01.JPG,AFNE01.JPG,,,,,,,,,,,,,,,,,,,,,3,2,32,7,,,AMNE05.jpg,AMSA07.jpg,AMSA01.jpg,AMNE01.jpg,AMNE05.jpg,MN,1,num_8,32,num_6,1.38340530731,,,2017_Feb_09_1140,60.0028868384,FEMA4ImagesEEG,001,000004,
AFNE01.JPG,AFNE01.JPG,AFNE01.JPG,AFNE01.JPG,AFNE01.JPG,AFNE01.JPG,,,,,,,,,,,,,,,,,,,,,3,3,33,8,,,AMNE08.jpg,AMSA03.jpg,AMNE20.jpg,AMSA20.jpg,AMSA20.jpg,MS,2,num_4,32,num_2,1.066770009,,,2017_Feb_09_1140,60.0028868384,FEMA4ImagesEEG,001,000004,
AFNE01.JPG,AFNE01.JPG,AFNE01.JPG,AFNE01.JPG,AFNE01.JPG,AFNE01.JPG,,,,,,,,,,,,,,,,,,,,,3,4,34,0,,,AMNE12.jpg,AMNE05.jpg,AMSA20.jpg,AMSA07.jpg,AMSA07.jpg,MS,2,num_4,32,num_6,0.966825240292,,,2017_Feb_09_1140,60.0028868384,FEMA4ImagesEEG,001,000004,
AFNE01.JPG,AFNE01.JPG,AFNE01.JPG,AFNE01.JPG,AFNE01.JPG,AFNE01.JPG,,,,,,,,,,,,,,,,,,,,,3,5,35,9,,,AMNE05.jpg,AMNE11.jpg,AMSA08.jpg,AMSA11.jpg,AMSA08.jpg,MS,2,num_2,32,num_6,0.98348510731,,,2017_Feb_09_1140,60.0028868384,FEMA4ImagesEEG,001,000004,
AFNE01.JPG,AFNE01.JPG,AFNE01.JPG,AFNE01.JPG,AFNE01.JPG,AFNE01.JPG,,,,,,,,,,,,,,,,,,,,,3,6,36,4,,,AMNE10.jpg,AMSA15.jpg,AMNE09.jpg,AMSA12.jpg,AMSA12.jpg,MS,2,num_4,32,num_8,0.949947270332,,,2017_Feb_09_1140,60.0028868384,FEMA4ImagesEEG,001,000004,
AFNE01.JPG,AFNE01.JPG,AFNE01.JPG,AFNE01.JPG,AFNE01.JPG,AFNE01.JPG,,,,,,,,,,,,,,,,,,,,,3,7,37,2,,,AMSA15.jpg,AMNE14.jpg,AMSA13.jpg,AMNE09.jpg,AMNE09.jpg,MN,1,num_4,32,num_2,1.08344655437,,,2017_Feb_09_1140,60.0028868384,FEMA4ImagesEEG,001,000004,
AFNE01.JPG,AFNE01.JPG,AFNE01.JPG,AFNE01.JPG,AFNE01.JPG,AFNE01.JPG,,,,,,,,,,,,,,,,,,,,,3,8,38,3,,,AMSA02.jpg,AMNE09.jpg,AMSA07.jpg,AMNE08.jpg,AMSA07.jpg,MS,2,num_2,16,num_2,0.850121496245,,,2017_Feb_09_1140,60.0028868384,FEMA4ImagesEEG,001,000004,
AFNE01.JPG,AFNE01.JPG,AFNE01.JPG,AFNE01.JPG,AFNE01.JPG,AFNE01.JPG,,,,,,,,,,,,,,,,,,,,,3,9,39,5,,,AMNE06.jpg,AMSA11.jpg,AMSA04.jpg,AMNE14.jpg,AMNE06.jpg,MN,1,num_8,16,num_8,1.10012277937,,,2017_Feb_09_1140,60.0028868384,FEMA4ImagesEEG,001,000004,
