IPosition2,IPosition3,IPosition1,IPosition6,IPosition4,IPosition5,TrialsM1.thisRepN,TrialsM1.thisTrialN,TrialsM1.thisN,TrialsM1.thisIndex,TrialsF1.thisRepN,TrialsF1.thisTrialN,TrialsF1.thisN,TrialsF1.thisIndex,TrialsM2.thisRepN,TrialsM2.thisTrialN,TrialsM2.thisN,TrialsM2.thisIndex,TrialsF2.thisRepN,TrialsF2.thisTrialN,TrialsF2.thisN,TrialsF2.thisIndex,TrialsM3.thisRepN,TrialsM3.thisTrialN,TrialsM3.thisN,TrialsM3.thisIndex,TrialsF3.thisRepN,TrialsF3.thisTrialN,TrialsF3.thisN,TrialsF3.thisIndex,InstrKey_resp.keys,InstrKey_resp.rt,Image0 _Position,Image1 _Position,Image2 _Position,Image3 _Position,Center_image,condition,code,correct_answer,accuracy,Key_Resp.keys,Key_Resp.rt,BreakKey_resp.keys,BreakKey_resp.rt,date,frameRate,expName,session,participant,
,,,,,,,,,,,,,,,,,,,,,,,,,,,,,,space,42.4473473537,,,,,,,,,,,,,,2017_Feb_14_1928,60.0065824159,MAFE4ImagesEEG,001,000005,
AMSA21.JPG,AMNE22.JPG,AMNE21.JPG,AMSA23.JPG,AMSA22.JPG,AMNE23.JPG,0,0,0,1,,,,,,,,,,,,,,,,,,,,,,,AMNE20.jpg,AMSA19.jpg,AMNE12.jpg,AMSA06.jpg,AMNE12.jpg,MN,1,num_2,32,num_6,2.93329221476,,,2017_Feb_14_1928,60.0065824159,MAFE4ImagesEEG,001,000005,
AFNE22.JPG,AFSA24.JPG,AFSA22.JPG,AFNE25.JPG,AFNE24.JPG,AFSA25.JPG,0,1,1,6,,,,,,,,,,,,,,,,,,,,,,,AMNE01.jpg,AMSA05.jpg,AMSA19.jpg,AMNE06.jpg,AMSA05.jpg,MS,2,num_6,16,num_6,1.46672196221,,,2017_Feb_14_1928,60.0065824159,MAFE4ImagesEEG,001,000005,
AFSA21.JPG,AFNE22.JPG,AFNE21.JPG,AFSA23.JPG,AFSA22.JPG,AFNE23.JPG,0,2,2,0,,,,,,,,,,,,,,,,,,,,,,,AMNE06.jpg,AMSA18.jpg,AMNE13.jpg,AMSA05.jpg,AMNE13.jpg,MN,1,num_2,16,num_2,0.866784570739,,,2017_Feb_14_1928,60.0065824159,MAFE4ImagesEEG,001,000005,
AMNE23.JPG,AMNE24.JPG,AMNE22.JPG,AMSA24.JPG,AMSA22.JPG,AMSA23.JPG,0,3,3,9,,,,,,,,,,,,,,,,,,,,,,,AMSA02.jpg,AMNE01.jpg,AMSA04.jpg,AMNE20.jpg,AMSA04.jpg,MS,2,num_2,32,num_4,1.85017538071,,,2017_Feb_14_1928,60.0065824159,MAFE4ImagesEEG,001,000005,
AMSA25.JPG,AMNE24.JPG,AMSA24.JPG,AMNE26.JPG,AMSA21.JPG,AMNE25.JPG,0,4,4,3,,,,,,,,,,,,,,,,,,,,,,,AMNE18.jpg,AMSA13.jpg,AMNE01.jpg,AMSA09.jpg,AMNE01.jpg,MN,1,num_2,16,num_2,0.63348292606,,,2017_Feb_14_1928,60.0065824159,MAFE4ImagesEEG,001,000005,
AMSA21.JPG,AMNE23.JPG,AMNE21.JPG,AMSA25.JPG,AMNE25.JPG,AMSA23.JPG,0,5,5,5,,,,,,,,,,,,,,,,,,,,,,,AMSA20.jpg,AMSA18.jpg,AMNE08.jpg,AMNE14.jpg,AMSA20.jpg,MS,2,num_8,32,num_6,2.30022368394,,,2017_Feb_14_1928,60.0065824159,MAFE4ImagesEEG,001,000005,
AMNE22.JPG,AMSA24.JPG,AMSA22.JPG,AMNE25.JPG,AMNE24.JPG,AMSA25.JPG,0,6,6,7,,,,,,,,,,,,,,,,,,,,,,,AMNE08.jpg,AMSA17.jpg,AMSA19.jpg,AMNE15.jpg,AMSA17.jpg,MS,2,num_6,32,num_8,2.06683736481,,,2017_Feb_14_1928,60.0065824159,MAFE4ImagesEEG,001,000005,
AFSA21.JPG,AFNE23.JPG,AFNE21.JPG,AFSA25.JPG,AFNE25.JPG,AFSA23.JPG,0,7,7,4,,,,,,,,,,,,,,,,,,,,,,,AMNE01.jpg,AMNE18.jpg,AMSA07.jpg,AMSA19.jpg,AMSA19.jpg,MS,2,num_4,16,num_4,0.850088459905,,,2017_Feb_14_1928,60.0065824159,MAFE4ImagesEEG,001,000005,
AFNE23.JPG,AFNE24.JPG,AFNE22.JPG,AFSA24.JPG,AFSA22.JPG,AFSA23.JPG,0,8,8,8,,,,,,,,,,,,,,,,,,,,,,,AMSA10.jpg,AMSA11.jpg,AMNE12.jpg,AMNE04.jpg,AMSA11.jpg,MS,2,num_6,16,num_6,0.633475549519,,,2017_Feb_14_1928,60.0065824159,MAFE4ImagesEEG,001,000005,
AFSA25.JPG,AFNE24.JPG,AFSA24.JPG,AFNE21.JPG,AFSA21.JPG,AFNE25.JPG,0,9,9,2,,,,,,,,,,,,,,,,,,,,,,,AMNE15.jpg,AMSA16.jpg,AMNE09.jpg,AMSA04.jpg,AMNE09.jpg,MN,1,num_2,32,num_8,0.900104304776,,,2017_Feb_14_1928,60.0065824159,MAFE4ImagesEEG,001,000005,
AFSA21.JPG,AFNE22.JPG,AFNE21.JPG,AFSA23.JPG,AFSA22.JPG,AFNE23.JPG,,,,,0,0,0,0,,,,,,,,,,,,,,,,,,,AFSA08.jpg,AFNE08.jpg,AFSA09.jpg,AFNE15.jpg,AFSA08.jpg,FS,4,num_8,32,num_2,0.683540788013,,,2017_Feb_14_1928,60.0065824159,MAFE4ImagesEEG,001,000005,
AMNE22.JPG,AMSA24.JPG,AMSA22.JPG,AMNE25.JPG,AMNE24.JPG,AMSA25.JPG,,,,,0,1,1,7,,,,,,,,,,,,,,,,,,,AFSA10.jpg,AFNE12.jpg,AFNE16.jpg,AFSA12.jpg,AFNE12.jpg,FN,3,num_6,32,num_2,2.13337483723,,,2017_Feb_14_1928,60.0065824159,MAFE4ImagesEEG,001,000005,
AMNE23.JPG,AMNE24.JPG,AMNE22.JPG,AMSA24.JPG,AMSA22.JPG,AMSA23.JPG,,,,,0,2,2,9,,,,,,,,,,,,,,,,,,,AFSA16.jpg,AFNE05.jpg,AFSA09.jpg,AFNE20.jpg,AFSA09.jpg,FS,4,num_2,16,num_2,0.816806894261,,,2017_Feb_14_1928,60.0065824159,MAFE4ImagesEEG,001,000005,
AFNE22.JPG,AFSA24.JPG,AFSA22.JPG,AFNE25.JPG,AFNE24.JPG,AFSA25.JPG,,,,,0,3,3,6,,,,,,,,,,,,,,,,,,,AFNE18.jpg,AFSA05.jpg,AFNE02.jpg,AFSA12.jpg,AFSA05.jpg,FS,4,num_6,16,num_6,1.00008724118,,,2017_Feb_14_1928,60.0065824159,MAFE4ImagesEEG,001,000005,
AFSA21.JPG,AFNE23.JPG,AFNE21.JPG,AFSA25.JPG,AFNE25.JPG,AFSA23.JPG,,,,,0,4,4,4,,,,,,,,,,,,,,,,,,,AFNE05.jpg,AFNE16.jpg,AFSA10.jpg,AFSA07.jpg,AFSA10.jpg,FS,4,num_2,16,num_2,2.06678797072,,,2017_Feb_14_1928,60.0065824159,MAFE4ImagesEEG,001,000005,
AMSA21.JPG,AMNE22.JPG,AMNE21.JPG,AMSA23.JPG,AMSA22.JPG,AMNE23.JPG,,,,,0,5,5,1,,,,,,,,,,,,,,,,,,,AFNE15.jpg,AFSA14.jpg,AFSA17.jpg,AFNE17.jpg,AFSA17.jpg,FS,4,num_2,16,num_2,2.61680285307,,,2017_Feb_14_1928,60.0065824159,MAFE4ImagesEEG,001,000005,
AMSA25.JPG,AMNE24.JPG,AMSA24.JPG,AMNE26.JPG,AMSA21.JPG,AMNE25.JPG,,,,,0,6,6,3,,,,,,,,,,,,,,,,,,,AFNE16.jpg,AFSA17.jpg,AFSA19.jpg,AFNE01.jpg,AFNE16.jpg,FN,3,num_8,32,num_4,1.71680952422,,,2017_Feb_14_1928,60.0065824159,MAFE4ImagesEEG,001,000005,
AFSA25.JPG,AFNE24.JPG,AFSA24.JPG,AFNE21.JPG,AFSA21.JPG,AFNE25.JPG,,,,,0,7,7,2,,,,,,,,,,,,,,,,,,,AFSA20.jpg,AFNE08.jpg,AFNE19.jpg,AFSA19.jpg,AFNE08.jpg,FN,3,num_6,16,num_6,1.29976021498,,,2017_Feb_14_1928,60.0065824159,MAFE4ImagesEEG,001,000005,
AFNE23.JPG,AFNE24.JPG,AFNE22.JPG,AFSA24.JPG,AFSA22.JPG,AFSA23.JPG,,,,,0,8,8,8,,,,,,,,,,,,,,,,,,,AFSA11.jpg,AFNE02.jpg,AFSA10.jpg,AFNE13.jpg,AFNE13.jpg,FN,3,num_4,16,num_4,1.13360288274,,,2017_Feb_14_1928,60.0065824159,MAFE4ImagesEEG,001,000005,
AMSA21.JPG,AMNE23.JPG,AMNE21.JPG,AMSA25.JPG,AMNE25.JPG,AMSA23.JPG,,,,,0,9,9,5,,,,,,,,,,,,,,,,,,,AFSA14.jpg,AFNE02.jpg,AFSA13.jpg,AFNE06.jpg,AFSA13.jpg,FS,4,num_2,16,num_2,0.650160755031,,,2017_Feb_14_1928,60.0065824159,MAFE4ImagesEEG,001,000005,
AMNE22.JPG,AMSA24.JPG,AMSA22.JPG,AMNE25.JPG,AMNE24.JPG,AMSA25.JPG,,,,,,,,,0,0,0,7,,,,,,,,,,,,,,,AMSA04.jpg,AMNE20.jpg,AMNE07.jpg,AMSA03.jpg,AMSA03.jpg,MS,2,num_4,16,num_4,0.69980838988,,,2017_Feb_14_1928,60.0065824159,MAFE4ImagesEEG,001,000005,
AFSA25.JPG,AFNE24.JPG,AFSA24.JPG,AFNE21.JPG,AFSA21.JPG,AFNE25.JPG,,,,,,,,,0,1,1,2,,,,,,,,,,,,,,,AMNE05.jpg,AMSA04.jpg,AMSA05.jpg,AMNE14.jpg,AMSA05.jpg,MS,2,num_2,16,num_2,0.633475549519,,,2017_Feb_14_1928,60.0065824159,MAFE4ImagesEEG,001,000005,
AMSA21.JPG,AMNE22.JPG,AMNE21.JPG,AMSA23.JPG,AMSA22.JPG,AMNE23.JPG,,,,,,,,,0,2,2,1,,,,,,,,,,,,,,,AMNE13.jpg,AMNE15.jpg,AMSA09.jpg,AMSA14.jpg,AMNE15.jpg,MN,1,num_6,16,num_6,1.68336021155,,,2017_Feb_14_1928,60.0065824159,MAFE4ImagesEEG,001,000005,
AMSA25.JPG,AMNE24.JPG,AMSA24.JPG,AMNE26.JPG,AMSA21.JPG,AMNE25.JPG,,,,,,,,,0,3,3,3,,,,,,,,,,,,,,,AMNE07.jpg,AMNE06.jpg,AMSA04.jpg,AMSA08.jpg,AMSA08.jpg,MS,2,num_4,16,num_4,1.41695437022,,,2017_Feb_14_1928,60.0065824159,MAFE4ImagesEEG,001,000005,
AMNE23.JPG,AMNE24.JPG,AMNE22.JPG,AMSA24.JPG,AMSA22.JPG,AMSA23.JPG,,,,,,,,,0,4,4,9,,,,,,,,,,,,,,,AMSA16.jpg,AMSA20.jpg,AMNE01.jpg,AMNE07.jpg,AMNE07.jpg,MN,1,num_4,32,num_8,2.13335944153,,,2017_Feb_14_1928,60.0065824159,MAFE4ImagesEEG,001,000005,
AFSA21.JPG,AFNE22.JPG,AFNE21.JPG,AFSA23.JPG,AFSA22.JPG,AFNE23.JPG,,,,,,,,,0,5,5,0,,,,,,,,,,,,,,,AMSA03.jpg,AMNE15.jpg,AMSA06.jpg,AMNE04.jpg,AMSA06.jpg,MS,2,num_2,32,num_8,1.9166759681,,,2017_Feb_14_1928,60.0065824159,MAFE4ImagesEEG,001,000005,
AMSA21.JPG,AMNE23.JPG,AMNE21.JPG,AMSA25.JPG,AMNE25.JPG,AMSA23.JPG,,,,,,,,,0,6,6,5,,,,,,,,,,,,,,,AMNE17.jpg,AMSA18.jpg,AMSA09.jpg,AMNE19.jpg,AMNE17.jpg,MN,1,num_8,16,num_8,1.38356760191,,,2017_Feb_14_1928,60.0065824159,MAFE4ImagesEEG,001,000005,
AFSA21.JPG,AFNE23.JPG,AFNE21.JPG,AFSA25.JPG,AFNE25.JPG,AFSA23.JPG,,,,,,,,,0,7,7,4,,,,,,,,,,,,,,,AMSA03.jpg,AMSA14.jpg,AMNE13.jpg,AMNE06.jpg,AMNE06.jpg,MN,1,num_4,32,num_2,2.58329580678,,,2017_Feb_14_1928,60.0065824159,MAFE4ImagesEEG,001,000005,
AFNE22.JPG,AFSA24.JPG,AFSA22.JPG,AFNE25.JPG,AFNE24.JPG,AFSA25.JPG,,,,,,,,,0,8,8,6,,,,,,,,,,,,,,,AMSA12.jpg,AMSA04.jpg,AMNE19.jpg,AMNE05.jpg,AMSA12.jpg,MS,2,num_8,32,num_2,2.33331152285,,,2017_Feb_14_1928,60.0065824159,MAFE4ImagesEEG,001,000005,
AFNE23.JPG,AFNE24.JPG,AFNE22.JPG,AFSA24.JPG,AFSA22.JPG,AFSA23.JPG,,,,,,,,,0,9,9,8,,,,,,,,,,,,,,,AMSA20.jpg,AMSA14.jpg,AMNE05.jpg,AMNE15.jpg,AMNE05.jpg,MN,1,num_2,16,num_2,1.68340351107,,,2017_Feb_14_1928,60.0065824159,MAFE4ImagesEEG,001,000005,
AFNE23.JPG,AFNE24.JPG,AFNE22.JPG,AFSA24.JPG,AFSA22.JPG,AFSA23.JPG,,,,,,,,,,,,,0,0,0,8,,,,,,,,,,,AFSA02.jpg,AFSA05.jpg,AFNE05.jpg,AFNE20.jpg,AFSA05.jpg,FS,4,num_6,16,num_6,0.75011290051,,,2017_Feb_14_1928,60.0065824159,MAFE4ImagesEEG,001,000005,
AMNE22.JPG,AMSA24.JPG,AMSA22.JPG,AMNE25.JPG,AMNE24.JPG,AMSA25.JPG,,,,,,,,,,,,,0,1,1,7,,,,,,,,,,,AFSA13.jpg,AFSA03.jpg,AFNE14.jpg,AFNE06.jpg,AFNE06.jpg,FN,3,num_4,16,num_4,2.31669174833,,,2017_Feb_14_1928,60.0065824159,MAFE4ImagesEEG,001,000005,
AFSA21.JPG,AFNE23.JPG,AFNE21.JPG,AFSA25.JPG,AFNE25.JPG,AFSA23.JPG,,,,,,,,,,,,,0,2,2,4,,,,,,,,,,,AFNE03.jpg,AFNE12.jpg,AFSA12.jpg,AFSA15.jpg,AFNE03.jpg,FN,3,num_8,32,num_6,1.85003650002,,,2017_Feb_14_1928,60.0065824159,MAFE4ImagesEEG,001,000005,
AFSA21.JPG,AFNE22.JPG,AFNE21.JPG,AFSA23.JPG,AFSA22.JPG,AFNE23.JPG,,,,,,,,,,,,,0,3,3,0,,,,,,,,,,,AFNE11.jpg,AFNE18.jpg,AFSA20.jpg,AFSA10.jpg,AFNE18.jpg,FN,3,num_6,16,num_6,2.54997158237,,,2017_Feb_14_1928,60.0065824159,MAFE4ImagesEEG,001,000005,
AMSA21.JPG,AMNE23.JPG,AMNE21.JPG,AMSA25.JPG,AMNE25.JPG,AMSA23.JPG,,,,,,,,,,,,,0,4,4,5,,,,,,,,,,,AFNE13.jpg,AFSA11.jpg,AFNE10.jpg,AFSA10.jpg,AFNE13.jpg,FN,3,num_8,16,num_8,0.983513011597,,,2017_Feb_14_1928,60.0065824159,MAFE4ImagesEEG,001,000005,
AFSA25.JPG,AFNE24.JPG,AFSA24.JPG,AFNE21.JPG,AFSA21.JPG,AFNE25.JPG,,,,,,,,,,,,,0,5,5,2,,,,,,,,,,,AFNE07.jpg,AFSA07.jpg,AFSA14.jpg,AFNE17.jpg,AFSA07.jpg,FS,4,num_6,32,num_2,2.21675307397,,,2017_Feb_14_1928,60.0065824159,MAFE4ImagesEEG,001,000005,
AFNE22.JPG,AFSA24.JPG,AFSA22.JPG,AFNE25.JPG,AFNE24.JPG,AFSA25.JPG,,,,,,,,,,,,,0,6,6,6,,,,,,,,,,,AFNE05.jpg,AFNE07.jpg,AFSA05.jpg,AFSA09.jpg,AFNE07.jpg,FN,3,num_6,16,num_6,1.25025402615,,,2017_Feb_14_1928,60.0065824159,MAFE4ImagesEEG,001,000005,
AMSA21.JPG,AMNE22.JPG,AMNE21.JPG,AMSA23.JPG,AMSA22.JPG,AMNE23.JPG,,,,,,,,,,,,,0,7,7,1,,,,,,,,,,,AFSA18.jpg,AFNE19.jpg,AFNE03.jpg,AFSA06.jpg,AFSA06.jpg,FS,4,num_4,16,num_4,0.733471957501,,,2017_Feb_14_1928,60.0065824159,MAFE4ImagesEEG,001,000005,
AMNE23.JPG,AMNE24.JPG,AMNE22.JPG,AMSA24.JPG,AMSA22.JPG,AMSA23.JPG,,,,,,,,,,,,,0,8,8,9,,,,,,,,,,,AFNE05.jpg,AFSA04.jpg,AFNE06.jpg,AFSA16.jpg,AFSA04.jpg,FS,4,num_6,16,num_6,0.66676128516,,,2017_Feb_14_1928,60.0065824159,MAFE4ImagesEEG,001,000005,
AMSA25.JPG,AMNE24.JPG,AMSA24.JPG,AMNE26.JPG,AMSA21.JPG,AMNE25.JPG,,,,,,,,,,,,,0,9,9,3,,,,,,,,,,,AFNE08.jpg,AFSA07.jpg,AFSA15.jpg,AFNE09.jpg,AFSA15.jpg,FS,4,num_2,16,num_2,0.683484978974,,,2017_Feb_14_1928,60.0065824159,MAFE4ImagesEEG,001,000005,
AMSA25.JPG,AMNE24.JPG,AMSA24.JPG,AMNE26.JPG,AMSA21.JPG,AMNE25.JPG,,,,,,,,,,,,,,,,,0,0,0,3,,,,,,,AMSA15.jpg,AMNE12.jpg,AMSA04.jpg,AMNE05.jpg,AMNE05.jpg,MN,1,num_4,32,num_6,1.01675384352,,,2017_Feb_14_1928,60.0065824159,MAFE4ImagesEEG,001,000005,
AFSA21.JPG,AFNE22.JPG,AFNE21.JPG,AFSA23.JPG,AFSA22.JPG,AFNE23.JPG,,,,,,,,,,,,,,,,,0,1,1,0,,,,,,,AMSA20.jpg,AMSA01.jpg,AMNE11.jpg,AMNE04.jpg,AMSA20.jpg,MS,2,num_8,32,num_6,0.650125152897,,,2017_Feb_14_1928,60.0065824159,MAFE4ImagesEEG,001,000005,
AFNE22.JPG,AFSA24.JPG,AFSA22.JPG,AFNE25.JPG,AFNE24.JPG,AFSA25.JPG,,,,,,,,,,,,,,,,,0,2,2,6,,,,,,,AMSA17.jpg,AMSA13.jpg,AMNE14.jpg,AMNE11.jpg,AMNE14.jpg,MN,1,num_2,16,num_2,0.55015215883,,,2017_Feb_14_1928,60.0065824159,MAFE4ImagesEEG,001,000005,
AMNE23.JPG,AMNE24.JPG,AMNE22.JPG,AMSA24.JPG,AMSA22.JPG,AMSA23.JPG,,,,,,,,,,,,,,,,,0,3,3,9,,,,,,,AMSA17.jpg,AMNE14.jpg,AMNE07.jpg,AMSA11.jpg,AMSA11.jpg,MS,2,num_4,16,num_4,0.950373854488,,,2017_Feb_14_1928,60.0065824159,MAFE4ImagesEEG,001,000005,
AFSA25.JPG,AFNE24.JPG,AFSA24.JPG,AFNE21.JPG,AFSA21.JPG,AFNE25.JPG,,,,,,,,,,,,,,,,,0,4,4,2,,,,,,,AMNE11.jpg,AMSA19.jpg,AMSA18.jpg,AMNE01.jpg,AMSA19.jpg,MS,2,num_6,16,num_6,1.76666531991,,,2017_Feb_14_1928,60.0065824159,MAFE4ImagesEEG,001,000005,
AMSA21.JPG,AMNE23.JPG,AMNE21.JPG,AMSA25.JPG,AMNE25.JPG,AMSA23.JPG,,,,,,,,,,,,,,,,,0,5,5,5,,,,,,,AMNE13.jpg,AMSA16.jpg,AMSA13.jpg,AMNE08.jpg,AMNE08.jpg,MN,1,num_4,16,num_4,0.883440588601,,,2017_Feb_14_1928,60.0065824159,MAFE4ImagesEEG,001,000005,
AFSA21.JPG,AFNE23.JPG,AFNE21.JPG,AFSA25.JPG,AFNE25.JPG,AFSA23.JPG,,,,,,,,,,,,,,,,,0,6,6,4,,,,,,,AMNE02.jpg,AMNE01.jpg,AMSA17.jpg,AMSA06.jpg,AMNE01.jpg,MN,1,num_6,16,num_6,1.08346708165,,,2017_Feb_14_1928,60.0065824159,MAFE4ImagesEEG,001,000005,
AMNE22.JPG,AMSA24.JPG,AMSA22.JPG,AMNE25.JPG,AMNE24.JPG,AMSA25.JPG,,,,,,,,,,,,,,,,,0,7,7,7,,,,,,,AMSA03.jpg,AMSA02.jpg,AMNE18.jpg,AMNE15.jpg,AMSA02.jpg,MS,2,num_6,16,num_6,1.51688342262,,,2017_Feb_14_1928,60.0065824159,MAFE4ImagesEEG,001,000005,
AFNE23.JPG,AFNE24.JPG,AFNE22.JPG,AFSA24.JPG,AFSA22.JPG,AFSA23.JPG,,,,,,,,,,,,,,,,,0,8,8,8,,,,,,,AMNE07.jpg,AMNE17.jpg,AMSA05.jpg,AMSA14.jpg,AMNE17.jpg,MN,1,num_6,16,num_6,0.700114696287,,,2017_Feb_14_1928,60.0065824159,MAFE4ImagesEEG,001,000005,
AMSA21.JPG,AMNE22.JPG,AMNE21.JPG,AMSA23.JPG,AMSA22.JPG,AMNE23.JPG,,,,,,,,,,,,,,,,,0,9,9,1,,,,,,,AMSA11.jpg,AMSA12.jpg,AMNE11.jpg,AMNE02.jpg,AMNE11.jpg,MN,1,num_2,16,num_2,2.20007460378,,,2017_Feb_14_1928,60.0065824159,MAFE4ImagesEEG,001,000005,
AMNE22.JPG,AMSA24.JPG,AMSA22.JPG,AMNE25.JPG,AMNE24.JPG,AMSA25.JPG,,,,,,,,,,,,,,,,,,,,,0,0,0,7,,,AFSA03.jpg,AFSA18.jpg,AFNE16.jpg,AFNE07.jpg,AFNE07.jpg,FN,3,num_4,16,num_4,0.783422691282,,,2017_Feb_14_1928,60.0065824159,MAFE4ImagesEEG,001,000005,
AFSA25.JPG,AFNE24.JPG,AFSA24.JPG,AFNE21.JPG,AFSA21.JPG,AFNE25.JPG,,,,,,,,,,,,,,,,,,,,,0,1,1,2,,,AFNE18.jpg,AFSA17.jpg,AFNE04.jpg,AFSA10.jpg,AFSA17.jpg,FS,4,num_6,16,num_6,1.0000882037,,,2017_Feb_14_1928,60.0065824159,MAFE4ImagesEEG,001,000005,
AFSA21.JPG,AFNE23.JPG,AFNE21.JPG,AFSA25.JPG,AFNE25.JPG,AFSA23.JPG,,,,,,,,,,,,,,,,,,,,,0,2,2,4,,,AFSA02.jpg,AFNE08.jpg,AFSA17.jpg,AFNE18.jpg,AFSA02.jpg,FS,4,num_8,32,num_4,0.950098018162,,,2017_Feb_14_1928,60.0065824159,MAFE4ImagesEEG,001,000005,
AFNE23.JPG,AFNE24.JPG,AFNE22.JPG,AFSA24.JPG,AFSA22.JPG,AFSA23.JPG,,,,,,,,,,,,,,,,,,,,,0,3,3,8,,,AFSA07.jpg,AFNE15.jpg,AFSA20.jpg,AFNE18.jpg,AFSA20.jpg,FS,4,num_2,16,num_2,0.666845318861,,,2017_Feb_14_1928,60.0065824159,MAFE4ImagesEEG,001,000005,
AMSA25.JPG,AMNE24.JPG,AMSA24.JPG,AMNE26.JPG,AMSA21.JPG,AMNE25.JPG,,,,,,,,,,,,,,,,,,,,,0,4,4,3,,,AFNE13.jpg,AFNE06.jpg,AFSA12.jpg,AFSA17.jpg,AFSA12.jpg,FS,4,num_2,16,num_2,0.61680894671,,,2017_Feb_14_1928,60.0065824159,MAFE4ImagesEEG,001,000005,
AMSA21.JPG,AMNE23.JPG,AMNE21.JPG,AMSA25.JPG,AMNE25.JPG,AMSA23.JPG,,,,,,,,,,,,,,,,,,,,,0,5,5,5,,,AFSA04.jpg,AFSA15.jpg,AFNE20.jpg,AFNE11.jpg,AFSA04.jpg,FS,4,num_8,32,num_6,0.500134069473,,,2017_Feb_14_1928,60.0065824159,MAFE4ImagesEEG,001,000005,
AFSA21.JPG,AFNE22.JPG,AFNE21.JPG,AFSA23.JPG,AFSA22.JPG,AFNE23.JPG,,,,,,,,,,,,,,,,,,,,,0,6,6,0,,,AFSA05.jpg,AFNE20.jpg,AFSA17.jpg,AFNE02.jpg,AFSA05.jpg,FS,4,num_8,16,num_8,2.41662978148,,,2017_Feb_14_1928,60.0065824159,MAFE4ImagesEEG,001,000005,
AMSA21.JPG,AMNE22.JPG,AMNE21.JPG,AMSA23.JPG,AMSA22.JPG,AMNE23.JPG,,,,,,,,,,,,,,,,,,,,,0,7,7,1,,,AFNE08.jpg,AFSA19.jpg,AFNE07.jpg,AFSA08.jpg,AFNE08.jpg,FN,3,num_8,16,num_8,0.783454765566,,,2017_Feb_14_1928,60.0065824159,MAFE4ImagesEEG,001,000005,
AMNE23.JPG,AMNE24.JPG,AMNE22.JPG,AMSA24.JPG,AMSA22.JPG,AMSA23.JPG,,,,,,,,,,,,,,,,,,,,,0,8,8,9,,,AFNE04.jpg,AFNE12.jpg,AFSA08.jpg,AFSA18.jpg,AFNE04.jpg,FN,3,num_8,32,num_6,0.783453482669,,,2017_Feb_14_1928,60.0065824159,MAFE4ImagesEEG,001,000005,
AFNE22.JPG,AFSA24.JPG,AFSA22.JPG,AFNE25.JPG,AFNE24.JPG,AFSA25.JPG,,,,,,,,,,,,,,,,,,,,,0,9,9,6,,,AFSA19.jpg,AFNE19.jpg,AFSA06.jpg,AFNE06.jpg,AFNE06.jpg,FN,3,num_4,16,num_4,1.13342294795,,,2017_Feb_14_1928,60.0065824159,MAFE4ImagesEEG,001,000005,
,,,,,,,,,,,,,,,,,,,,,,,,,,,,,,,,,,,,,,,,,,,space,6.5830350453,2017_Feb_14_1928,60.0065824159,MAFE4ImagesEEG,001,000005,
AFNE01.JPG,AFNE01.JPG,AFNE01.JPG,AFNE01.JPG,AFNE01.JPG,AFNE01.JPG,0,0,0,2,,,,,,,,,,,,,,,,,,,,,,,AMSA19.jpg,AMSA01.jpg,AMNE20.jpg,AMNE09.jpg,AMNE20.jpg,MN,1,num_2,16,num_2,1.23309893673,,,2017_Feb_14_1928,60.0065824159,MAFE4ImagesEEG,001,000005,
AFNE01.JPG,AFNE01.JPG,AFNE01.JPG,AFNE01.JPG,AFNE01.JPG,AFNE01.JPG,0,1,1,6,,,,,,,,,,,,,,,,,,,,,,,AMSA14.jpg,AMNE15.jpg,AMNE20.jpg,AMSA17.jpg,AMNE15.jpg,MN,1,num_6,16,num_6,0.766805483028,,,2017_Feb_14_1928,60.0065824159,MAFE4ImagesEEG,001,000005,
AFNE01.JPG,AFNE01.JPG,AFNE01.JPG,AFNE01.JPG,AFNE01.JPG,AFNE01.JPG,0,2,2,8,,,,,,,,,,,,,,,,,,,,,,,AMNE19.jpg,AMSA15.jpg,AMSA08.jpg,AMNE17.jpg,AMNE19.jpg,MN,1,num_8,32,num_2,1.36672908254,,,2017_Feb_14_1928,60.0065824159,MAFE4ImagesEEG,001,000005,
AFNE01.JPG,AFNE01.JPG,AFNE01.JPG,AFNE01.JPG,AFNE01.JPG,AFNE01.JPG,0,3,3,7,,,,,,,,,,,,,,,,,,,,,,,AMSA18.jpg,AMNE07.jpg,AMSA11.jpg,AMNE09.jpg,AMNE09.jpg,MN,1,num_4,16,num_4,0.633358158637,,,2017_Feb_14_1928,60.0065824159,MAFE4ImagesEEG,001,000005,
AFNE01.JPG,AFNE01.JPG,AFNE01.JPG,AFNE01.JPG,AFNE01.JPG,AFNE01.JPG,0,4,4,5,,,,,,,,,,,,,,,,,,,,,,,AMSA02.jpg,AMNE09.jpg,AMSA18.jpg,AMNE17.jpg,AMSA02.jpg,MS,2,num_8,32,num_2,1.11673325254,,,2017_Feb_14_1928,60.0065824159,MAFE4ImagesEEG,001,000005,
AFNE01.JPG,AFNE01.JPG,AFNE01.JPG,AFNE01.JPG,AFNE01.JPG,AFNE01.JPG,0,5,5,1,,,,,,,,,,,,,,,,,,,,,,,AMSA15.jpg,AMNE17.jpg,AMSA20.jpg,AMNE13.jpg,AMNE17.jpg,MN,1,num_6,16,num_6,1.10007530963,,,2017_Feb_14_1928,60.0065824159,MAFE4ImagesEEG,001,000005,
AFNE01.JPG,AFNE01.JPG,AFNE01.JPG,AFNE01.JPG,AFNE01.JPG,AFNE01.JPG,0,6,6,3,,,,,,,,,,,,,,,,,,,,,,,AMSA01.jpg,AMNE12.jpg,AMSA10.jpg,AMNE15.jpg,AMSA10.jpg,MS,2,num_2,16,num_2,2.68330183672,,,2017_Feb_14_1928,60.0065824159,MAFE4ImagesEEG,001,000005,
AFNE01.JPG,AFNE01.JPG,AFNE01.JPG,AFNE01.JPG,AFNE01.JPG,AFNE01.JPG,0,7,7,9,,,,,,,,,,,,,,,,,,,,,,,AMSA20.jpg,AMNE06.jpg,AMNE20.jpg,AMSA17.jpg,AMNE20.jpg,MN,1,num_2,16,num_2,0.733458806761,,,2017_Feb_14_1928,60.0065824159,MAFE4ImagesEEG,001,000005,
AFNE01.JPG,AFNE01.JPG,AFNE01.JPG,AFNE01.JPG,AFNE01.JPG,AFNE01.JPG,0,8,8,0,,,,,,,,,,,,,,,,,,,,,,,AMSA14.jpg,AMNE06.jpg,AMNE14.jpg,AMSA10.jpg,AMNE06.jpg,MN,1,num_6,16,num_6,0.783460538834,,,2017_Feb_14_1928,60.0065824159,MAFE4ImagesEEG,001,000005,
AFNE01.JPG,AFNE01.JPG,AFNE01.JPG,AFNE01.JPG,AFNE01.JPG,AFNE01.JPG,0,9,9,4,,,,,,,,,,,,,,,,,,,,,,,AMNE04.jpg,AMNE16.jpg,AMSA07.jpg,AMSA06.jpg,AMSA06.jpg,MS,2,num_4,16,num_4,1.26669963868,,,2017_Feb_14_1928,60.0065824159,MAFE4ImagesEEG,001,000005,
AFNE01.JPG,AFNE01.JPG,AFNE01.JPG,AFNE01.JPG,AFNE01.JPG,AFNE01.JPG,1,0,10,4,,,,,,,,,,,,,,,,,,,,,,,AMNE14.jpg,AMNE09.jpg,AMSA09.jpg,AMSA08.jpg,AMSA09.jpg,MS,2,num_2,16,num_2,1.216728698,,,2017_Feb_14_1928,60.0065824159,MAFE4ImagesEEG,001,000005,
AFNE01.JPG,AFNE01.JPG,AFNE01.JPG,AFNE01.JPG,AFNE01.JPG,AFNE01.JPG,1,1,11,3,,,,,,,,,,,,,,,,,,,,,,,AMNE10.jpg,AMNE19.jpg,AMSA17.jpg,AMSA11.jpg,AMNE10.jpg,MN,1,num_8,16,num_8,2.8333468046,,,2017_Feb_14_1928,60.0065824159,MAFE4ImagesEEG,001,000005,
AFNE01.JPG,AFNE01.JPG,AFNE01.JPG,AFNE01.JPG,AFNE01.JPG,AFNE01.JPG,1,2,12,6,,,,,,,,,,,,,,,,,,,,,,,AMSA08.jpg,AMNE19.jpg,AMSA09.jpg,AMNE07.jpg,AMNE07.jpg,MN,1,num_4,16,num_4,1.03342557792,,,2017_Feb_14_1928,60.0065824159,MAFE4ImagesEEG,001,000005,
AFNE01.JPG,AFNE01.JPG,AFNE01.JPG,AFNE01.JPG,AFNE01.JPG,AFNE01.JPG,1,3,13,2,,,,,,,,,,,,,,,,,,,,,,,AMNE09.jpg,AMSA02.jpg,AMNE03.jpg,AMSA13.jpg,AMSA13.jpg,MS,2,num_4,16,num_4,1.10013336362,,,2017_Feb_14_1928,60.0065824159,MAFE4ImagesEEG,001,000005,
AFNE01.JPG,AFNE01.JPG,AFNE01.JPG,AFNE01.JPG,AFNE01.JPG,AFNE01.JPG,1,4,14,9,,,,,,,,,,,,,,,,,,,,,,,AMNE12.jpg,AMSA12.jpg,AMNE02.jpg,AMSA02.jpg,AMSA12.jpg,MS,2,num_6,32,num_4,2.25000224495,,,2017_Feb_14_1928,60.0065824159,MAFE4ImagesEEG,001,000005,
AFNE01.JPG,AFNE01.JPG,AFNE01.JPG,AFNE01.JPG,AFNE01.JPG,AFNE01.JPG,1,5,15,1,,,,,,,,,,,,,,,,,,,,,,,AMNE11.jpg,AMNE15.jpg,AMSA12.jpg,AMSA07.jpg,AMNE11.jpg,MN,1,num_8,16,num_8,1.3167344071,,,2017_Feb_14_1928,60.0065824159,MAFE4ImagesEEG,001,000005,
AFNE01.JPG,AFNE01.JPG,AFNE01.JPG,AFNE01.JPG,AFNE01.JPG,AFNE01.JPG,1,6,16,0,,,,,,,,,,,,,,,,,,,,,,,AMSA08.jpg,AMNE02.jpg,AMSA03.jpg,AMNE07.jpg,AMNE07.jpg,MN,1,num_4,16,num_4,1.01674005203,,,2017_Feb_14_1928,60.0065824159,MAFE4ImagesEEG,001,000005,
AFNE01.JPG,AFNE01.JPG,AFNE01.JPG,AFNE01.JPG,AFNE01.JPG,AFNE01.JPG,1,7,17,5,,,,,,,,,,,,,,,,,,,,,,,AMNE06.jpg,AMSA13.jpg,AMSA05.jpg,AMNE05.jpg,AMSA13.jpg,MS,2,num_6,16,num_6,0.666729210876,,,2017_Feb_14_1928,60.0065824159,MAFE4ImagesEEG,001,000005,
AFNE01.JPG,AFNE01.JPG,AFNE01.JPG,AFNE01.JPG,AFNE01.JPG,AFNE01.JPG,1,8,18,7,,,,,,,,,,,,,,,,,,,,,,,AMSA11.jpg,AMNE11.jpg,AMNE07.jpg,AMSA08.jpg,AMSA11.jpg,MS,2,num_8,16,num_8,0.716770714615,,,2017_Feb_14_1928,60.0065824159,MAFE4ImagesEEG,001,000005,
AFNE01.JPG,AFNE01.JPG,AFNE01.JPG,AFNE01.JPG,AFNE01.JPG,AFNE01.JPG,1,9,19,8,,,,,,,,,,,,,,,,,,,,,,,AMNE10.jpg,AMSA17.jpg,AMSA07.jpg,AMNE20.jpg,AMSA07.jpg,MS,2,num_2,16,num_2,2.43329959176,,,2017_Feb_14_1928,60.0065824159,MAFE4ImagesEEG,001,000005,
AFNE01.JPG,AFNE01.JPG,AFNE01.JPG,AFNE01.JPG,AFNE01.JPG,AFNE01.JPG,2,0,20,0,,,,,,,,,,,,,,,,,,,,,,,AMNE17.jpg,AMSA20.jpg,AMSA09.jpg,AMNE05.jpg,AMSA20.jpg,MS,2,num_6,32,num_8,1.36671400815,,,2017_Feb_14_1928,60.0065824159,MAFE4ImagesEEG,001,000005,
AFNE01.JPG,AFNE01.JPG,AFNE01.JPG,AFNE01.JPG,AFNE01.JPG,AFNE01.JPG,2,1,21,2,,,,,,,,,,,,,,,,,,,,,,,AMSA18.jpg,AMNE15.jpg,AMNE16.jpg,AMSA02.jpg,AMSA18.jpg,MS,2,num_8,16,num_8,0.633462078404,,,2017_Feb_14_1928,60.0065824159,MAFE4ImagesEEG,001,000005,
AFNE01.JPG,AFNE01.JPG,AFNE01.JPG,AFNE01.JPG,AFNE01.JPG,AFNE01.JPG,2,2,22,6,,,,,,,,,,,,,,,,,,,,,,,AMSA01.jpg,AMNE06.jpg,AMSA09.jpg,AMNE13.jpg,AMSA01.jpg,MS,2,num_8,16,num_8,1.1003075256,,,2017_Feb_14_1928,60.0065824159,MAFE4ImagesEEG,001,000005,
AFNE01.JPG,AFNE01.JPG,AFNE01.JPG,AFNE01.JPG,AFNE01.JPG,AFNE01.JPG,2,3,23,1,,,,,,,,,,,,,,,,,,,,,,,AMSA20.jpg,AMNE08.jpg,AMNE17.jpg,AMSA18.jpg,AMNE17.jpg,MN,1,num_2,16,num_2,0.633459191304,,,2017_Feb_14_1928,60.0065824159,MAFE4ImagesEEG,001,000005,
AFNE01.JPG,AFNE01.JPG,AFNE01.JPG,AFNE01.JPG,AFNE01.JPG,AFNE01.JPG,2,4,24,8,,,,,,,,,,,,,,,,,,,,,,,AMSA07.jpg,AMNE18.jpg,AMNE20.jpg,AMSA08.jpg,AMNE18.jpg,MN,1,num_6,16,num_6,0.966729980893,,,2017_Feb_14_1928,60.0065824159,MAFE4ImagesEEG,001,000005,
AFNE01.JPG,AFNE01.JPG,AFNE01.JPG,AFNE01.JPG,AFNE01.JPG,AFNE01.JPG,2,5,25,3,,,,,,,,,,,,,,,,,,,,,,,AMNE13.jpg,AMSA03.jpg,AMNE18.jpg,AMSA07.jpg,AMNE18.jpg,MN,1,num_2,32,num_8,1.91666827025,,,2017_Feb_14_1928,60.0065824159,MAFE4ImagesEEG,001,000005,
AFNE01.JPG,AFNE01.JPG,AFNE01.JPG,AFNE01.JPG,AFNE01.JPG,AFNE01.JPG,2,6,26,4,,,,,,,,,,,,,,,,,,,,,,,AMSA19.jpg,AMNE10.jpg,AMSA07.jpg,AMNE19.jpg,AMNE10.jpg,MN,1,num_6,16,num_6,0.666994783562,,,2017_Feb_14_1928,60.0065824159,MAFE4ImagesEEG,001,000005,
AFNE01.JPG,AFNE01.JPG,AFNE01.JPG,AFNE01.JPG,AFNE01.JPG,AFNE01.JPG,2,7,27,9,,,,,,,,,,,,,,,,,,,,,,,AMNE15.jpg,AMNE03.jpg,AMSA17.jpg,AMSA12.jpg,AMNE03.jpg,MN,1,num_6,16,num_6,0.750144333113,,,2017_Feb_14_1928,60.0065824159,MAFE4ImagesEEG,001,000005,
AFNE01.JPG,AFNE01.JPG,AFNE01.JPG,AFNE01.JPG,AFNE01.JPG,AFNE01.JPG,2,8,28,5,,,,,,,,,,,,,,,,,,,,,,,AMNE09.jpg,AMSA06.jpg,AMSA16.jpg,AMNE10.jpg,AMNE09.jpg,MN,1,num_8,32,num_4,0.916759360582,,,2017_Feb_14_1928,60.0065824159,MAFE4ImagesEEG,001,000005,
AFNE01.JPG,AFNE01.JPG,AFNE01.JPG,AFNE01.JPG,AFNE01.JPG,AFNE01.JPG,2,9,29,7,,,,,,,,,,,,,,,,,,,,,,,AMSA03.jpg,AMNE20.jpg,AMNE14.jpg,AMSA14.jpg,AMSA14.jpg,MS,2,num_4,16,num_4,0.783435842022,,,2017_Feb_14_1928,60.0065824159,MAFE4ImagesEEG,001,000005,
AFNE01.JPG,AFNE01.JPG,AFNE01.JPG,AFNE01.JPG,AFNE01.JPG,AFNE01.JPG,3,0,30,4,,,,,,,,,,,,,,,,,,,,,,,AMSA04.jpg,AMSA03.jpg,AMNE08.jpg,AMNE19.jpg,AMSA04.jpg,MS,2,num_8,32,num_6,1.05011783959,,,2017_Feb_14_1928,60.0065824159,MAFE4ImagesEEG,001,000005,
AFNE01.JPG,AFNE01.JPG,AFNE01.JPG,AFNE01.JPG,AFNE01.JPG,AFNE01.JPG,3,1,31,6,,,,,,,,,,,,,,,,,,,,,,,AMNE08.jpg,AMSA08.jpg,AMNE18.jpg,AMSA11.jpg,AMNE08.jpg,MN,1,num_8,32,num_6,0.950129129924,,,2017_Feb_14_1928,60.0065824159,MAFE4ImagesEEG,001,000005,
AFNE01.JPG,AFNE01.JPG,AFNE01.JPG,AFNE01.JPG,AFNE01.JPG,AFNE01.JPG,3,2,32,2,,,,,,,,,,,,,,,,,,,,,,,AMSA08.jpg,AMNE18.jpg,AMNE02.jpg,AMSA11.jpg,AMNE02.jpg,MN,1,num_2,16,num_2,2.29971210379,,,2017_Feb_14_1928,60.0065824159,MAFE4ImagesEEG,001,000005,
AFNE01.JPG,AFNE01.JPG,AFNE01.JPG,AFNE01.JPG,AFNE01.JPG,AFNE01.JPG,3,3,33,8,,,,,,,,,,,,,,,,,,,,,,,AMNE08.jpg,AMNE16.jpg,AMSA01.jpg,AMSA13.jpg,AMSA13.jpg,MS,2,num_4,16,num_4,1.08345200727,,,2017_Feb_14_1928,60.0065824159,MAFE4ImagesEEG,001,000005,
AFNE01.JPG,AFNE01.JPG,AFNE01.JPG,AFNE01.JPG,AFNE01.JPG,AFNE01.JPG,3,4,34,1,,,,,,,,,,,,,,,,,,,,,,,AMSA10.jpg,AMNE15.jpg,AMNE20.jpg,AMSA11.jpg,AMSA11.jpg,MS,2,num_4,16,num_4,0.633437381126,,,2017_Feb_14_1928,60.0065824159,MAFE4ImagesEEG,001,000005,
AFNE01.JPG,AFNE01.JPG,AFNE01.JPG,AFNE01.JPG,AFNE01.JPG,AFNE01.JPG,3,5,35,7,,,,,,,,,,,,,,,,,,,,,,,AMSA12.jpg,AMSA07.jpg,AMNE06.jpg,AMNE03.jpg,AMNE06.jpg,MN,1,num_2,16,num_2,1.28346983995,,,2017_Feb_14_1928,60.0065824159,MAFE4ImagesEEG,001,000005,
AFNE01.JPG,AFNE01.JPG,AFNE01.JPG,AFNE01.JPG,AFNE01.JPG,AFNE01.JPG,3,6,36,0,,,,,,,,,,,,,,,,,,,,,,,AMNE11.jpg,AMNE17.jpg,AMSA20.jpg,AMSA09.jpg,AMSA09.jpg,MS,2,num_4,16,num_4,0.683470224962,,,2017_Feb_14_1928,60.0065824159,MAFE4ImagesEEG,001,000005,
AFNE01.JPG,AFNE01.JPG,AFNE01.JPG,AFNE01.JPG,AFNE01.JPG,AFNE01.JPG,3,7,37,3,,,,,,,,,,,,,,,,,,,,,,,AMSA06.jpg,AMSA01.jpg,AMNE07.jpg,AMNE17.jpg,AMSA06.jpg,MS,2,num_8,16,num_8,2.29998312937,,,2017_Feb_14_1928,60.0065824159,MAFE4ImagesEEG,001,000005,
AFNE01.JPG,AFNE01.JPG,AFNE01.JPG,AFNE01.JPG,AFNE01.JPG,AFNE01.JPG,3,8,38,9,,,,,,,,,,,,,,,,,,,,,,,AMSA04.jpg,AMNE07.jpg,AMNE17.jpg,AMSA07.jpg,AMNE17.jpg,MN,1,num_2,32,num_4,1.06667090021,,,2017_Feb_14_1928,60.0065824159,MAFE4ImagesEEG,001,000005,
AFNE01.JPG,AFNE01.JPG,AFNE01.JPG,AFNE01.JPG,AFNE01.JPG,AFNE01.JPG,3,9,39,5,,,,,,,,,,,,,,,,,,,,,,,AMSA15.jpg,AMNE10.jpg,AMNE18.jpg,AMSA08.jpg,AMNE10.jpg,MN,1,num_6,16,num_6,0.600142344367,,,2017_Feb_14_1928,60.0065824159,MAFE4ImagesEEG,001,000005,
AFNE01.JPG,AFNE01.JPG,AFNE01.JPG,AFNE01.JPG,AFNE01.JPG,AFNE01.JPG,4,0,40,5,,,,,,,,,,,,,,,,,,,,,,,AMNE13.jpg,AMSA20.jpg,AMSA16.jpg,AMNE03.jpg,AMNE03.jpg,MN,1,num_4,16,num_4,1.21675211191,,,2017_Feb_14_1928,60.0065824159,MAFE4ImagesEEG,001,000005,
AFNE01.JPG,AFNE01.JPG,AFNE01.JPG,AFNE01.JPG,AFNE01.JPG,AFNE01.JPG,4,1,41,7,,,,,,,,,,,,,,,,,,,,,,,AMSA13.jpg,AMSA08.jpg,AMNE20.jpg,AMNE10.jpg,AMSA08.jpg,MS,2,num_6,32,num_8,2.01680772798,,,2017_Feb_14_1928,60.0065824159,MAFE4ImagesEEG,001,000005,
AFNE01.JPG,AFNE01.JPG,AFNE01.JPG,AFNE01.JPG,AFNE01.JPG,AFNE01.JPG,4,2,42,9,,,,,,,,,,,,,,,,,,,,,,,AMNE11.jpg,AMNE18.jpg,AMSA03.jpg,AMSA10.jpg,AMSA10.jpg,MS,2,num_4,32,num_2,0.916747172363,,,2017_Feb_14_1928,60.0065824159,MAFE4ImagesEEG,001,000005,
AFNE01.JPG,AFNE01.JPG,AFNE01.JPG,AFNE01.JPG,AFNE01.JPG,AFNE01.JPG,4,3,43,8,,,,,,,,,,,,,,,,,,,,,,,AMSA05.jpg,AMSA09.jpg,AMNE06.jpg,AMNE16.jpg,AMSA09.jpg,MS,2,num_6,16,num_6,0.566807535477,,,2017_Feb_14_1928,60.0065824159,MAFE4ImagesEEG,001,000005,
AFNE01.JPG,AFNE01.JPG,AFNE01.JPG,AFNE01.JPG,AFNE01.JPG,AFNE01.JPG,4,4,44,4,,,,,,,,,,,,,,,,,,,,,,,AMSA02.jpg,AMSA09.jpg,AMNE12.jpg,AMNE15.jpg,AMNE15.jpg,MN,1,num_4,16,num_4,1.03340761689,,,2017_Feb_14_1928,60.0065824159,MAFE4ImagesEEG,001,000005,
AFNE01.JPG,AFNE01.JPG,AFNE01.JPG,AFNE01.JPG,AFNE01.JPG,AFNE01.JPG,4,5,45,6,,,,,,,,,,,,,,,,,,,,,,,AMSA12.jpg,AMSA02.jpg,AMNE18.jpg,AMNE06.jpg,AMSA02.jpg,MS,2,num_6,16,num_6,2.15001193155,,,2017_Feb_14_1928,60.0065824159,MAFE4ImagesEEG,001,000005,
AFNE01.JPG,AFNE01.JPG,AFNE01.JPG,AFNE01.JPG,AFNE01.JPG,AFNE01.JPG,4,6,46,1,,,,,,,,,,,,,,,,,,,,,,,AMSA12.jpg,AMNE20.jpg,AMSA18.jpg,AMNE06.jpg,AMSA12.jpg,MS,2,num_8,16,num_8,2.56657820661,,,2017_Feb_14_1928,60.0065824159,MAFE4ImagesEEG,001,000005,
AFNE01.JPG,AFNE01.JPG,AFNE01.JPG,AFNE01.JPG,AFNE01.JPG,AFNE01.JPG,4,7,47,2,,,,,,,,,,,,,,,,,,,,,,,AMSA13.jpg,AMNE20.jpg,AMNE11.jpg,AMSA05.jpg,AMSA13.jpg,MS,2,num_8,16,num_8,0.650140868966,,,2017_Feb_14_1928,60.0065824159,MAFE4ImagesEEG,001,000005,
AFNE01.JPG,AFNE01.JPG,AFNE01.JPG,AFNE01.JPG,AFNE01.JPG,AFNE01.JPG,4,8,48,3,,,,,,,,,,,,,,,,,,,,,,,AMNE18.jpg,AMSA13.jpg,AMNE20.jpg,AMSA09.jpg,AMNE20.jpg,MN,1,num_2,16,num_2,0.933473111596,,,2017_Feb_14_1928,60.0065824159,MAFE4ImagesEEG,001,000005,
AFNE01.JPG,AFNE01.JPG,AFNE01.JPG,AFNE01.JPG,AFNE01.JPG,AFNE01.JPG,4,9,49,0,,,,,,,,,,,,,,,,,,,,,,,AMNE12.jpg,AMSA03.jpg,AMNE16.jpg,AMSA08.jpg,AMSA08.jpg,MS,2,num_4,32,num_8,1.23337060306,,,2017_Feb_14_1928,60.0065824159,MAFE4ImagesEEG,001,000005,
AFNE01.JPG,AFNE01.JPG,AFNE01.JPG,AFNE01.JPG,AFNE01.JPG,AFNE01.JPG,5,0,50,0,,,,,,,,,,,,,,,,,,,,,,,AMSA01.jpg,AMNE12.jpg,AMNE07.jpg,AMSA05.jpg,AMSA05.jpg,MS,2,num_4,16,num_4,0.51679361565,,,2017_Feb_14_1928,60.0065824159,MAFE4ImagesEEG,001,000005,
AFNE01.JPG,AFNE01.JPG,AFNE01.JPG,AFNE01.JPG,AFNE01.JPG,AFNE01.JPG,5,1,51,6,,,,,,,,,,,,,,,,,,,,,,,AMSA20.jpg,AMNE10.jpg,AMSA02.jpg,AMNE17.jpg,AMNE17.jpg,MN,1,num_4,32,num_8,1.43339837948,,,2017_Feb_14_1928,60.0065824159,MAFE4ImagesEEG,001,000005,
AFNE01.JPG,AFNE01.JPG,AFNE01.JPG,AFNE01.JPG,AFNE01.JPG,AFNE01.JPG,5,2,52,2,,,,,,,,,,,,,,,,,,,,,,,AMNE05.jpg,AMSA05.jpg,AMSA03.jpg,AMNE14.jpg,AMSA03.jpg,MS,2,num_2,16,num_2,1.8168556462,,,2017_Feb_14_1928,60.0065824159,MAFE4ImagesEEG,001,000005,
AFNE01.JPG,AFNE01.JPG,AFNE01.JPG,AFNE01.JPG,AFNE01.JPG,AFNE01.JPG,5,3,53,8,,,,,,,,,,,,,,,,,,,,,,,AMSA16.jpg,AMNE13.jpg,AMNE02.jpg,AMSA19.jpg,AMNE13.jpg,MN,1,num_6,16,num_6,0.750212971121,,,2017_Feb_14_1928,60.0065824159,MAFE4ImagesEEG,001,000005,
AFNE01.JPG,AFNE01.JPG,AFNE01.JPG,AFNE01.JPG,AFNE01.JPG,AFNE01.JPG,5,4,54,5,,,,,,,,,,,,,,,,,,,,,,,AMNE14.jpg,AMNE12.jpg,AMSA01.jpg,AMSA05.jpg,AMSA05.jpg,MS,2,num_4,16,num_4,0.483477088623,,,2017_Feb_14_1928,60.0065824159,MAFE4ImagesEEG,001,000005,
AFNE01.JPG,AFNE01.JPG,AFNE01.JPG,AFNE01.JPG,AFNE01.JPG,AFNE01.JPG,5,5,55,1,,,,,,,,,,,,,,,,,,,,,,,AMSA07.jpg,AMNE05.jpg,AMSA15.jpg,AMNE12.jpg,AMNE05.jpg,MN,1,num_6,16,num_6,1.58337631216,,,2017_Feb_14_1928,60.0065824159,MAFE4ImagesEEG,001,000005,
AFNE01.JPG,AFNE01.JPG,AFNE01.JPG,AFNE01.JPG,AFNE01.JPG,AFNE01.JPG,5,6,56,9,,,,,,,,,,,,,,,,,,,,,,,AMSA14.jpg,AMSA06.jpg,AMNE09.jpg,AMNE11.jpg,AMSA14.jpg,MS,2,num_8,16,num_8,0.733459448442,,,2017_Feb_14_1928,60.0065824159,MAFE4ImagesEEG,001,000005,
AFNE01.JPG,AFNE01.JPG,AFNE01.JPG,AFNE01.JPG,AFNE01.JPG,AFNE01.JPG,5,7,57,7,,,,,,,,,,,,,,,,,,,,,,,AMSA10.jpg,AMSA19.jpg,AMNE15.jpg,AMNE18.jpg,AMSA19.jpg,MS,2,num_6,16,num_6,0.533452520147,,,2017_Feb_14_1928,60.0065824159,MAFE4ImagesEEG,001,000005,
AFNE01.JPG,AFNE01.JPG,AFNE01.JPG,AFNE01.JPG,AFNE01.JPG,AFNE01.JPG,5,8,58,3,,,,,,,,,,,,,,,,,,,,,,,AMNE15.jpg,AMSA13.jpg,AMNE11.jpg,AMSA19.jpg,AMNE15.jpg,MN,1,num_8,16,num_8,0.883548677899,,,2017_Feb_14_1928,60.0065824159,MAFE4ImagesEEG,001,000005,
AFNE01.JPG,AFNE01.JPG,AFNE01.JPG,AFNE01.JPG,AFNE01.JPG,AFNE01.JPG,5,9,59,4,,,,,,,,,,,,,,,,,,,,,,,AMNE20.jpg,AMSA05.jpg,AMNE02.jpg,AMSA08.jpg,AMSA05.jpg,MS,2,num_6,16,num_6,0.983437958639,,,2017_Feb_14_1928,60.0065824159,MAFE4ImagesEEG,001,000005,
,,,,,,,,,,,,,,,,,,,,,,,,,,,,,,,,,,,,,,,,,,,space,8.86627748096,2017_Feb_14_1928,60.0065824159,MAFE4ImagesEEG,001,000005,
AFNE01.JPG,AFNE01.JPG,AFNE01.JPG,AFNE01.JPG,AFNE01.JPG,AFNE01.JPG,,,,,0,0,0,6,,,,,,,,,,,,,,,,,,,AFSA16.jpg,AFNE15.jpg,AFNE12.jpg,AFSA06.jpg,AFSA16.jpg,FS,4,num_8,32,num_4,1.11674672319,,,2017_Feb_14_1928,60.0065824159,MAFE4ImagesEEG,001,000005,
AFNE01.JPG,AFNE01.JPG,AFNE01.JPG,AFNE01.JPG,AFNE01.JPG,AFNE01.JPG,,,,,0,1,1,9,,,,,,,,,,,,,,,,,,,AFNE08.jpg,AFSA01.jpg,AFNE16.jpg,AFSA20.jpg,AFNE08.jpg,FN,3,num_8,16,num_8,1.70011309301,,,2017_Feb_14_1928,60.0065824159,MAFE4ImagesEEG,001,000005,
AFNE01.JPG,AFNE01.JPG,AFNE01.JPG,AFNE01.JPG,AFNE01.JPG,AFNE01.JPG,,,,,0,2,2,0,,,,,,,,,,,,,,,,,,,AFSA01.jpg,AFNE10.jpg,AFSA05.jpg,AFNE09.jpg,AFNE10.jpg,FN,3,num_6,16,num_6,2.99995124759,,,2017_Feb_14_1928,60.0065824159,MAFE4ImagesEEG,001,000005,
AFNE01.JPG,AFNE01.JPG,AFNE01.JPG,AFNE01.JPG,AFNE01.JPG,AFNE01.JPG,,,,,0,3,3,1,,,,,,,,,,,,,,,,,,,AFSA18.jpg,AFNE05.jpg,AFSA04.jpg,AFNE18.jpg,AFNE05.jpg,FN,3,num_6,16,num_6,1.20016569411,,,2017_Feb_14_1928,60.0065824159,MAFE4ImagesEEG,001,000005,
AFNE01.JPG,AFNE01.JPG,AFNE01.JPG,AFNE01.JPG,AFNE01.JPG,AFNE01.JPG,,,,,0,4,4,2,,,,,,,,,,,,,,,,,,,AFSA18.jpg,AFNE18.jpg,AFSA16.jpg,AFNE02.jpg,AFSA18.jpg,FS,4,num_8,32,num_2,0.716770073399,,,2017_Feb_14_1928,60.0065824159,MAFE4ImagesEEG,001,000005,
AFNE01.JPG,AFNE01.JPG,AFNE01.JPG,AFNE01.JPG,AFNE01.JPG,AFNE01.JPG,,,,,0,5,5,4,,,,,,,,,,,,,,,,,,,AFNE08.jpg,AFSA03.jpg,AFSA16.jpg,AFNE19.jpg,AFNE08.jpg,FN,3,num_8,16,num_8,0.800129065756,,,2017_Feb_14_1928,60.0065824159,MAFE4ImagesEEG,001,000005,
AFNE01.JPG,AFNE01.JPG,AFNE01.JPG,AFNE01.JPG,AFNE01.JPG,AFNE01.JPG,,,,,0,6,6,3,,,,,,,,,,,,,,,,,,,AFNE03.jpg,AFSA02.jpg,AFNE02.jpg,AFSA11.jpg,AFSA11.jpg,FS,4,num_4,32,num_6,1.50007569464,,,2017_Feb_14_1928,60.0065824159,MAFE4ImagesEEG,001,000005,
AFNE01.JPG,AFNE01.JPG,AFNE01.JPG,AFNE01.JPG,AFNE01.JPG,AFNE01.JPG,,,,,0,7,7,7,,,,,,,,,,,,,,,,,,,AFNE08.jpg,AFSA05.jpg,AFNE03.jpg,AFSA07.jpg,AFSA07.jpg,FS,4,num_4,16,num_4,2.54999820376,,,2017_Feb_14_1928,60.0065824159,MAFE4ImagesEEG,001,000005,
AFNE01.JPG,AFNE01.JPG,AFNE01.JPG,AFNE01.JPG,AFNE01.JPG,AFNE01.JPG,,,,,0,8,8,5,,,,,,,,,,,,,,,,,,,AFSA06.jpg,AFSA07.jpg,AFNE13.jpg,AFNE20.jpg,AFNE13.jpg,FN,3,num_2,16,num_2,2.06668148516,,,2017_Feb_14_1928,60.0065824159,MAFE4ImagesEEG,001,000005,
AFNE01.JPG,AFNE01.JPG,AFNE01.JPG,AFNE01.JPG,AFNE01.JPG,AFNE01.JPG,,,,,0,9,9,8,,,,,,,,,,,,,,,,,,,AFSA04.jpg,AFNE10.jpg,AFSA11.jpg,AFNE05.jpg,AFSA04.jpg,FS,4,num_8,32,num_2,1.28345412388,,,2017_Feb_14_1928,60.0065824159,MAFE4ImagesEEG,001,000005,
AFNE01.JPG,AFNE01.JPG,AFNE01.JPG,AFNE01.JPG,AFNE01.JPG,AFNE01.JPG,,,,,1,0,10,1,,,,,,,,,,,,,,,,,,,AFSA04.jpg,AFSA16.jpg,AFNE08.jpg,AFNE17.jpg,AFNE08.jpg,FN,3,num_2,32,num_8,0.89995516045,,,2017_Feb_14_1928,60.0065824159,MAFE4ImagesEEG,001,000005,
AFNE01.JPG,AFNE01.JPG,AFNE01.JPG,AFNE01.JPG,AFNE01.JPG,AFNE01.JPG,,,,,1,1,11,4,,,,,,,,,,,,,,,,,,,AFNE10.jpg,AFSA08.jpg,AFNE02.jpg,AFSA19.jpg,AFSA19.jpg,FS,4,num_4,16,num_4,0.816763273906,,,2017_Feb_14_1928,60.0065824159,MAFE4ImagesEEG,001,000005,
AFNE01.JPG,AFNE01.JPG,AFNE01.JPG,AFNE01.JPG,AFNE01.JPG,AFNE01.JPG,,,,,1,2,12,3,,,,,,,,,,,,,,,,,,,AFSA19.jpg,AFSA11.jpg,AFNE17.jpg,AFNE18.jpg,AFSA11.jpg,FS,4,num_6,16,num_6,0.516924798023,,,2017_Feb_14_1928,60.0065824159,MAFE4ImagesEEG,001,000005,
AFNE01.JPG,AFNE01.JPG,AFNE01.JPG,AFNE01.JPG,AFNE01.JPG,AFNE01.JPG,,,,,1,3,13,5,,,,,,,,,,,,,,,,,,,AFSA07.jpg,AFNE10.jpg,AFSA02.jpg,AFNE02.jpg,AFNE02.jpg,FN,3,num_4,32,num_6,2.26663067937,,,2017_Feb_14_1928,60.0065824159,MAFE4ImagesEEG,001,000005,
AFNE01.JPG,AFNE01.JPG,AFNE01.JPG,AFNE01.JPG,AFNE01.JPG,AFNE01.JPG,,,,,1,4,14,7,,,,,,,,,,,,,,,,,,,AFSA08.jpg,AFNE09.jpg,AFNE17.jpg,AFSA19.jpg,AFSA08.jpg,FS,4,num_8,32,num_2,1.18344552815,,,2017_Feb_14_1928,60.0065824159,MAFE4ImagesEEG,001,000005,
AFNE01.JPG,AFNE01.JPG,AFNE01.JPG,AFNE01.JPG,AFNE01.JPG,AFNE01.JPG,,,,,1,5,15,2,,,,,,,,,,,,,,,,,,,AFSA17.jpg,AFNE10.jpg,AFSA06.jpg,AFNE19.jpg,AFNE10.jpg,FN,3,num_6,16,num_6,0.60013817437,,,2017_Feb_14_1928,60.0065824159,MAFE4ImagesEEG,001,000005,
AFNE01.JPG,AFNE01.JPG,AFNE01.JPG,AFNE01.JPG,AFNE01.JPG,AFNE01.JPG,,,,,1,6,16,8,,,,,,,,,,,,,,,,,,,AFNE13.jpg,AFSA19.jpg,AFSA17.jpg,AFNE14.jpg,AFSA17.jpg,FS,4,num_2,16,num_2,0.600120534189,,,2017_Feb_14_1928,60.0065824159,MAFE4ImagesEEG,001,000005,
AFNE01.JPG,AFNE01.JPG,AFNE01.JPG,AFNE01.JPG,AFNE01.JPG,AFNE01.JPG,,,,,1,7,17,6,,,,,,,,,,,,,,,,,,,AFSA08.jpg,AFNE08.jpg,AFNE10.jpg,AFSA03.jpg,AFSA08.jpg,FS,4,num_8,32,num_4,0.516771163791,,,2017_Feb_14_1928,60.0065824159,MAFE4ImagesEEG,001,000005,
AFNE01.JPG,AFNE01.JPG,AFNE01.JPG,AFNE01.JPG,AFNE01.JPG,AFNE01.JPG,,,,,1,8,18,0,,,,,,,,,,,,,,,,,,,AFSA19.jpg,AFNE09.jpg,AFSA06.jpg,AFNE12.jpg,AFSA19.jpg,FS,4,num_8,32,num_2,1.11669957498,,,2017_Feb_14_1928,60.0065824159,MAFE4ImagesEEG,001,000005,
AFNE01.JPG,AFNE01.JPG,AFNE01.JPG,AFNE01.JPG,AFNE01.JPG,AFNE01.JPG,,,,,1,9,19,9,,,,,,,,,,,,,,,,,,,AFSA07.jpg,AFNE20.jpg,AFNE10.jpg,AFSA04.jpg,AFNE20.jpg,FN,3,num_6,32,num_8,1.266834029,,,2017_Feb_14_1928,60.0065824159,MAFE4ImagesEEG,001,000005,
AFNE01.JPG,AFNE01.JPG,AFNE01.JPG,AFNE01.JPG,AFNE01.JPG,AFNE01.JPG,,,,,2,0,20,6,,,,,,,,,,,,,,,,,,,AFNE06.jpg,AFNE01.jpg,AFSA05.jpg,AFSA09.jpg,AFSA05.jpg,FS,4,num_2,16,num_2,2.44999602297,,,2017_Feb_14_1928,60.0065824159,MAFE4ImagesEEG,001,000005,
AFNE01.JPG,AFNE01.JPG,AFNE01.JPG,AFNE01.JPG,AFNE01.JPG,AFNE01.JPG,,,,,2,1,21,5,,,,,,,,,,,,,,,,,,,AFSA04.jpg,AFNE15.jpg,AFNE13.jpg,AFSA15.jpg,AFNE15.jpg,FN,3,num_6,16,num_6,0.850080762058,,,2017_Feb_14_1928,60.0065824159,MAFE4ImagesEEG,001,000005,
AFNE01.JPG,AFNE01.JPG,AFNE01.JPG,AFNE01.JPG,AFNE01.JPG,AFNE01.JPG,,,,,2,2,22,7,,,,,,,,,,,,,,,,,,,AFSA05.jpg,AFNE18.jpg,AFNE09.jpg,AFSA01.jpg,AFSA05.jpg,FS,4,num_8,16,num_8,2.23335167998,,,2017_Feb_14_1928,60.0065824159,MAFE4ImagesEEG,001,000005,
AFNE01.JPG,AFNE01.JPG,AFNE01.JPG,AFNE01.JPG,AFNE01.JPG,AFNE01.JPG,,,,,2,3,23,4,,,,,,,,,,,,,,,,,,,AFNE17.jpg,AFNE13.jpg,AFSA08.jpg,AFSA16.jpg,AFSA16.jpg,FS,4,num_4,16,num_4,0.850118609611,,,2017_Feb_14_1928,60.0065824159,MAFE4ImagesEEG,001,000005,
AFNE01.JPG,AFNE01.JPG,AFNE01.JPG,AFNE01.JPG,AFNE01.JPG,AFNE01.JPG,,,,,2,4,24,0,,,,,,,,,,,,,,,,,,,AFSA07.jpg,AFNE05.jpg,AFSA03.jpg,AFNE14.jpg,AFNE05.jpg,FN,3,num_6,16,num_6,2.74994611554,,,2017_Feb_14_1928,60.0065824159,MAFE4ImagesEEG,001,000005,
AFNE01.JPG,AFNE01.JPG,AFNE01.JPG,AFNE01.JPG,AFNE01.JPG,AFNE01.JPG,,,,,2,5,25,9,,,,,,,,,,,,,,,,,,,AFNE18.jpg,AFNE03.jpg,AFSA11.jpg,AFSA04.jpg,AFNE18.jpg,FN,3,num_8,16,num_8,1.36668834882,,,2017_Feb_14_1928,60.0065824159,MAFE4ImagesEEG,001,000005,
AFNE01.JPG,AFNE01.JPG,AFNE01.JPG,AFNE01.JPG,AFNE01.JPG,AFNE01.JPG,,,,,2,6,26,8,,,,,,,,,,,,,,,,,,,AFNE11.jpg,AFSA20.jpg,AFSA06.jpg,AFNE02.jpg,AFSA20.jpg,FS,4,num_6,32,num_2,0.75008595828,,,2017_Feb_14_1928,60.0065824159,MAFE4ImagesEEG,001,000005,
AFNE01.JPG,AFNE01.JPG,AFNE01.JPG,AFNE01.JPG,AFNE01.JPG,AFNE01.JPG,,,,,2,7,27,1,,,,,,,,,,,,,,,,,,,AFNE05.jpg,AFSA20.jpg,AFSA08.jpg,AFNE02.jpg,AFNE05.jpg,FN,3,num_8,16,num_8,1.06674627401,,,2017_Feb_14_1928,60.0065824159,MAFE4ImagesEEG,001,000005,
AFNE01.JPG,AFNE01.JPG,AFNE01.JPG,AFNE01.JPG,AFNE01.JPG,AFNE01.JPG,,,,,2,8,28,3,,,,,,,,,,,,,,,,,,,AFSA20.jpg,AFSA12.jpg,AFNE03.jpg,AFNE11.jpg,AFSA20.jpg,FS,4,num_8,32,num_4,2.08336989768,,,2017_Feb_14_1928,60.0065824159,MAFE4ImagesEEG,001,000005,
AFNE01.JPG,AFNE01.JPG,AFNE01.JPG,AFNE01.JPG,AFNE01.JPG,AFNE01.JPG,,,,,2,9,29,2,,,,,,,,,,,,,,,,,,,AFNE09.jpg,AFNE08.jpg,AFSA02.jpg,AFSA12.jpg,AFNE08.jpg,FN,3,num_6,16,num_6,1.85002880218,,,2017_Feb_14_1928,60.0065824159,MAFE4ImagesEEG,001,000005,
AFNE01.JPG,AFNE01.JPG,AFNE01.JPG,AFNE01.JPG,AFNE01.JPG,AFNE01.JPG,,,,,3,0,30,9,,,,,,,,,,,,,,,,,,,AFSA07.jpg,AFNE08.jpg,AFSA17.jpg,AFNE16.jpg,AFNE08.jpg,FN,3,num_6,16,num_6,1.25008627865,,,2017_Feb_14_1928,60.0065824159,MAFE4ImagesEEG,001,000005,
AFNE01.JPG,AFNE01.JPG,AFNE01.JPG,AFNE01.JPG,AFNE01.JPG,AFNE01.JPG,,,,,3,1,31,8,,,,,,,,,,,,,,,,,,,AFNE14.jpg,AFSA05.jpg,AFSA13.jpg,AFNE12.jpg,AFSA13.jpg,FS,4,num_2,16,num_2,0.533467595,,,2017_Feb_14_1928,60.0065824159,MAFE4ImagesEEG,001,000005,
AFNE01.JPG,AFNE01.JPG,AFNE01.JPG,AFNE01.JPG,AFNE01.JPG,AFNE01.JPG,,,,,3,2,32,4,,,,,,,,,,,,,,,,,,,AFNE20.jpg,AFSA02.jpg,AFSA01.jpg,AFNE06.jpg,AFNE06.jpg,FN,3,num_4,32,num_8,1.43340062443,,,2017_Feb_14_1928,60.0065824159,MAFE4ImagesEEG,001,000005,
AFNE01.JPG,AFNE01.JPG,AFNE01.JPG,AFNE01.JPG,AFNE01.JPG,AFNE01.JPG,,,,,3,3,33,5,,,,,,,,,,,,,,,,,,,AFNE01.jpg,AFSA13.jpg,AFSA11.jpg,AFNE03.jpg,AFSA13.jpg,FS,4,num_6,16,num_6,0.500140163116,,,2017_Feb_14_1928,60.0065824159,MAFE4ImagesEEG,001,000005,
AFNE01.JPG,AFNE01.JPG,AFNE01.JPG,AFNE01.JPG,AFNE01.JPG,AFNE01.JPG,,,,,3,4,34,3,,,,,,,,,,,,,,,,,,,AFNE06.jpg,AFSA14.jpg,AFNE04.jpg,AFSA13.jpg,AFSA13.jpg,FS,4,num_4,16,num_4,0.516806445085,,,2017_Feb_14_1928,60.0065824159,MAFE4ImagesEEG,001,000005,
AFNE01.JPG,AFNE01.JPG,AFNE01.JPG,AFNE01.JPG,AFNE01.JPG,AFNE01.JPG,,,,,3,5,35,7,,,,,,,,,,,,,,,,,,,AFNE20.jpg,AFSA10.jpg,AFSA13.jpg,AFNE05.jpg,AFNE20.jpg,FN,3,num_8,16,num_8,1.01683723601,,,2017_Feb_14_1928,60.0065824159,MAFE4ImagesEEG,001,000005,
AFNE01.JPG,AFNE01.JPG,AFNE01.JPG,AFNE01.JPG,AFNE01.JPG,AFNE01.JPG,,,,,3,6,36,6,,,,,,,,,,,,,,,,,,,AFSA09.jpg,AFNE06.jpg,AFNE09.jpg,AFSA03.jpg,AFSA09.jpg,FS,4,num_8,16,num_8,1.18351127952,,,2017_Feb_14_1928,60.0065824159,MAFE4ImagesEEG,001,000005,
AFNE01.JPG,AFNE01.JPG,AFNE01.JPG,AFNE01.JPG,AFNE01.JPG,AFNE01.JPG,,,,,3,7,37,0,,,,,,,,,,,,,,,,,,,AFNE08.jpg,AFNE07.jpg,AFSA07.jpg,AFSA16.jpg,AFSA07.jpg,FS,4,num_2,32,num_8,2.34998069145,,,2017_Feb_14_1928,60.0065824159,MAFE4ImagesEEG,001,000005,
AFNE01.JPG,AFNE01.JPG,AFNE01.JPG,AFNE01.JPG,AFNE01.JPG,AFNE01.JPG,,,,,3,8,38,2,,,,,,,,,,,,,,,,,,,AFSA04.jpg,AFNE20.jpg,AFSA08.jpg,AFNE08.jpg,AFSA04.jpg,FS,4,num_8,32,num_2,0.600000898354,,,2017_Feb_14_1928,60.0065824159,MAFE4ImagesEEG,001,000005,
AFNE01.JPG,AFNE01.JPG,AFNE01.JPG,AFNE01.JPG,AFNE01.JPG,AFNE01.JPG,,,,,3,9,39,1,,,,,,,,,,,,,,,,,,,AFNE06.jpg,AFSA02.jpg,AFNE01.jpg,AFSA12.jpg,AFNE06.jpg,FN,3,num_8,16,num_8,1.28342750249,,,2017_Feb_14_1928,60.0065824159,MAFE4ImagesEEG,001,000005,
AFNE01.JPG,AFNE01.JPG,AFNE01.JPG,AFNE01.JPG,AFNE01.JPG,AFNE01.JPG,,,,,4,0,40,9,,,,,,,,,,,,,,,,,,,AFNE08.jpg,AFNE06.jpg,AFSA07.jpg,AFSA01.jpg,AFNE08.jpg,FN,3,num_8,16,num_8,1.15008024918,,,2017_Feb_14_1928,60.0065824159,MAFE4ImagesEEG,001,000005,
AFNE01.JPG,AFNE01.JPG,AFNE01.JPG,AFNE01.JPG,AFNE01.JPG,AFNE01.JPG,,,,,4,1,41,7,,,,,,,,,,,,,,,,,,,AFSA03.jpg,AFNE13.jpg,AFNE02.jpg,AFSA08.jpg,AFSA03.jpg,FS,4,num_8,16,num_8,0.750129578635,,,2017_Feb_14_1928,60.0065824159,MAFE4ImagesEEG,001,000005,
AFNE01.JPG,AFNE01.JPG,AFNE01.JPG,AFNE01.JPG,AFNE01.JPG,AFNE01.JPG,,,,,4,2,42,0,,,,,,,,,,,,,,,,,,,AFSA10.jpg,AFSA18.jpg,AFNE13.jpg,AFNE07.jpg,AFNE07.jpg,FN,3,num_4,16,num_4,0.78345123725,,,2017_Feb_14_1928,60.0065824159,MAFE4ImagesEEG,001,000005,
AFNE01.JPG,AFNE01.JPG,AFNE01.JPG,AFNE01.JPG,AFNE01.JPG,AFNE01.JPG,,,,,4,3,43,6,,,,,,,,,,,,,,,,,,,AFNE11.jpg,AFSA13.jpg,AFSA17.jpg,AFNE08.jpg,AFNE08.jpg,FN,3,num_4,32,num_8,2.999669638,,,2017_Feb_14_1928,60.0065824159,MAFE4ImagesEEG,001,000005,
AFNE01.JPG,AFNE01.JPG,AFNE01.JPG,AFNE01.JPG,AFNE01.JPG,AFNE01.JPG,,,,,4,4,44,3,,,,,,,,,,,,,,,,,,,AFSA11.jpg,AFSA01.jpg,AFNE08.jpg,AFNE12.jpg,AFNE08.jpg,FN,3,num_2,16,num_2,0.783434238285,,,2017_Feb_14_1928,60.0065824159,MAFE4ImagesEEG,001,000005,
AFNE01.JPG,AFNE01.JPG,AFNE01.JPG,AFNE01.JPG,AFNE01.JPG,AFNE01.JPG,,,,,4,5,45,8,,,,,,,,,,,,,,,,,,,AFNE08.jpg,AFSA02.jpg,AFSA12.jpg,AFNE20.jpg,AFNE20.jpg,FN,3,num_4,32,num_8,1.01671727933,,,2017_Feb_14_1928,60.0065824159,MAFE4ImagesEEG,001,000005,
AFNE01.JPG,AFNE01.JPG,AFNE01.JPG,AFNE01.JPG,AFNE01.JPG,AFNE01.JPG,,,,,4,6,46,1,,,,,,,,,,,,,,,,,,,AFSA12.jpg,AFNE04.jpg,AFSA18.jpg,AFNE02.jpg,AFSA18.jpg,FS,4,num_2,32,num_4,0.76672754297,,,2017_Feb_14_1928,60.0065824159,MAFE4ImagesEEG,001,000005,
AFNE01.JPG,AFNE01.JPG,AFNE01.JPG,AFNE01.JPG,AFNE01.JPG,AFNE01.JPG,,,,,4,7,47,5,,,,,,,,,,,,,,,,,,,AFSA12.jpg,AFNE19.jpg,AFSA07.jpg,AFNE11.jpg,AFNE11.jpg,FN,3,num_4,16,num_4,2.05001905188,,,2017_Feb_14_1928,60.0065824159,MAFE4ImagesEEG,001,000005,
AFNE01.JPG,AFNE01.JPG,AFNE01.JPG,AFNE01.JPG,AFNE01.JPG,AFNE01.JPG,,,,,4,8,48,4,,,,,,,,,,,,,,,,,,,AFNE02.jpg,AFNE03.jpg,AFSA04.jpg,AFSA02.jpg,AFSA02.jpg,FS,4,num_4,16,num_4,0.666754549369,,,2017_Feb_14_1928,60.0065824159,MAFE4ImagesEEG,001,000005,
AFNE01.JPG,AFNE01.JPG,AFNE01.JPG,AFNE01.JPG,AFNE01.JPG,AFNE01.JPG,,,,,4,9,49,2,,,,,,,,,,,,,,,,,,,AFSA14.jpg,AFSA15.jpg,AFNE02.jpg,AFNE19.jpg,AFSA14.jpg,FS,4,num_8,32,num_6,1.1500484962,,,2017_Feb_14_1928,60.0065824159,MAFE4ImagesEEG,001,000005,
AFNE01.JPG,AFNE01.JPG,AFNE01.JPG,AFNE01.JPG,AFNE01.JPG,AFNE01.JPG,,,,,5,0,50,3,,,,,,,,,,,,,,,,,,,AFSA07.jpg,AFSA08.jpg,AFNE06.jpg,AFNE03.jpg,AFNE06.jpg,FN,3,num_2,32,num_8,0.85026390478,,,2017_Feb_14_1928,60.0065824159,MAFE4ImagesEEG,001,000005,
AFNE01.JPG,AFNE01.JPG,AFNE01.JPG,AFNE01.JPG,AFNE01.JPG,AFNE01.JPG,,,,,5,1,51,9,,,,,,,,,,,,,,,,,,,AFSA02.jpg,AFNE13.jpg,AFNE17.jpg,AFSA05.jpg,AFSA05.jpg,FS,4,num_4,16,num_4,0.500261082314,,,2017_Feb_14_1928,60.0065824159,MAFE4ImagesEEG,001,000005,
AFNE01.JPG,AFNE01.JPG,AFNE01.JPG,AFNE01.JPG,AFNE01.JPG,AFNE01.JPG,,,,,5,2,52,0,,,,,,,,,,,,,,,,,,,AFSA09.jpg,AFNE13.jpg,AFSA16.jpg,AFNE11.jpg,AFNE11.jpg,FN,3,num_4,32,num_6,1.05012104707,,,2017_Feb_14_1928,60.0065824159,MAFE4ImagesEEG,001,000005,
AFNE01.JPG,AFNE01.JPG,AFNE01.JPG,AFNE01.JPG,AFNE01.JPG,AFNE01.JPG,,,,,5,3,53,2,,,,,,,,,,,,,,,,,,,AFNE10.jpg,AFNE02.jpg,AFSA03.jpg,AFSA20.jpg,AFNE02.jpg,FN,3,num_6,16,num_6,1.43336694688,,,2017_Feb_14_1928,60.0065824159,MAFE4ImagesEEG,001,000005,
AFNE01.JPG,AFNE01.JPG,AFNE01.JPG,AFNE01.JPG,AFNE01.JPG,AFNE01.JPG,,,,,5,4,54,8,,,,,,,,,,,,,,,,,,,AFNE02.jpg,AFNE11.jpg,AFSA15.jpg,AFSA19.jpg,AFSA15.jpg,FS,4,num_2,16,num_2,0.63319842983,,,2017_Feb_14_1928,60.0065824159,MAFE4ImagesEEG,001,000005,
AFNE01.JPG,AFNE01.JPG,AFNE01.JPG,AFNE01.JPG,AFNE01.JPG,AFNE01.JPG,,,,,5,5,55,4,,,,,,,,,,,,,,,,,,,AFNE06.jpg,AFNE10.jpg,AFSA05.jpg,AFSA07.jpg,AFNE10.jpg,FN,3,num_6,16,num_6,0.916785340756,,,2017_Feb_14_1928,60.0065824159,MAFE4ImagesEEG,001,000005,
AFNE01.JPG,AFNE01.JPG,AFNE01.JPG,AFNE01.JPG,AFNE01.JPG,AFNE01.JPG,,,,,5,6,56,6,,,,,,,,,,,,,,,,,,,AFNE04.jpg,AFSA20.jpg,AFNE17.jpg,AFSA06.jpg,AFNE17.jpg,FN,3,num_2,32,num_8,2.10004483955,,,2017_Feb_14_1928,60.0065824159,MAFE4ImagesEEG,001,000005,
AFNE01.JPG,AFNE01.JPG,AFNE01.JPG,AFNE01.JPG,AFNE01.JPG,AFNE01.JPG,,,,,5,7,57,7,,,,,,,,,,,,,,,,,,,AFNE16.jpg,AFNE13.jpg,AFSA05.jpg,AFSA13.jpg,AFNE13.jpg,FN,3,num_6,16,num_6,0.766631962266,,,2017_Feb_14_1928,60.0065824159,MAFE4ImagesEEG,001,000005,
AFNE01.JPG,AFNE01.JPG,AFNE01.JPG,AFNE01.JPG,AFNE01.JPG,AFNE01.JPG,,,,,5,8,58,1,,,,,,,,,,,,,,,,,,,AFNE03.jpg,AFNE17.jpg,AFSA20.jpg,AFSA10.jpg,AFNE17.jpg,FN,3,num_6,16,num_6,0.7834448223,,,2017_Feb_14_1928,60.0065824159,MAFE4ImagesEEG,001,000005,
AFNE01.JPG,AFNE01.JPG,AFNE01.JPG,AFNE01.JPG,AFNE01.JPG,AFNE01.JPG,,,,,5,9,59,5,,,,,,,,,,,,,,,,,,,AFSA03.jpg,AFNE04.jpg,AFNE16.jpg,AFSA15.jpg,AFSA15.jpg,FS,4,num_4,32,num_8,2.18326142337,,,2017_Feb_14_1928,60.0065824159,MAFE4ImagesEEG,001,000005,
,,,,,,,,,,,,,,,,,,,,,,,,,,,,,,,,,,,,,,,,,,,space,10.7825624673,2017_Feb_14_1928,60.0065824159,MAFE4ImagesEEG,001,000005,
AFNE01.JPG,AFNE01.JPG,AFNE01.JPG,AFNE01.JPG,AFNE01.JPG,AFNE01.JPG,,,,,,,,,0,0,0,0,,,,,,,,,,,,,,,AMSA03.jpg,AMSA19.jpg,AMNE06.jpg,AMNE09.jpg,AMSA03.jpg,MS,2,num_8,16,num_8,0.733446618542,,,2017_Feb_14_1928,60.0065824159,MAFE4ImagesEEG,001,000005,
AFNE01.JPG,AFNE01.JPG,AFNE01.JPG,AFNE01.JPG,AFNE01.JPG,AFNE01.JPG,,,,,,,,,0,1,1,5,,,,,,,,,,,,,,,AMNE04.jpg,AMSA08.jpg,AMNE16.jpg,AMSA02.jpg,AMSA08.jpg,MS,2,num_6,32,num_2,1.85004387703,,,2017_Feb_14_1928,60.0065824159,MAFE4ImagesEEG,001,000005,
AFNE01.JPG,AFNE01.JPG,AFNE01.JPG,AFNE01.JPG,AFNE01.JPG,AFNE01.JPG,,,,,,,,,0,2,2,2,,,,,,,,,,,,,,,AMNE10.jpg,AMSA14.jpg,AMSA04.jpg,AMNE14.jpg,AMNE14.jpg,MN,1,num_4,16,num_4,0.833426027093,,,2017_Feb_14_1928,60.0065824159,MAFE4ImagesEEG,001,000005,
AFNE01.JPG,AFNE01.JPG,AFNE01.JPG,AFNE01.JPG,AFNE01.JPG,AFNE01.JPG,,,,,,,,,0,3,3,6,,,,,,,,,,,,,,,AMNE12.jpg,AMNE04.jpg,AMSA06.jpg,AMSA16.jpg,AMNE12.jpg,MN,1,num_8,16,num_8,0.800155687146,,,2017_Feb_14_1928,60.0065824159,MAFE4ImagesEEG,001,000005,
AFNE01.JPG,AFNE01.JPG,AFNE01.JPG,AFNE01.JPG,AFNE01.JPG,AFNE01.JPG,,,,,,,,,0,4,4,3,,,,,,,,,,,,,,,AMNE07.jpg,AMSA09.jpg,AMNE11.jpg,AMSA06.jpg,AMSA09.jpg,MS,2,num_6,16,num_6,0.583452648483,,,2017_Feb_14_1928,60.0065824159,MAFE4ImagesEEG,001,000005,
AFNE01.JPG,AFNE01.JPG,AFNE01.JPG,AFNE01.JPG,AFNE01.JPG,AFNE01.JPG,,,,,,,,,0,5,5,4,,,,,,,,,,,,,,,AMSA04.jpg,AMSA03.jpg,AMNE08.jpg,AMNE16.jpg,AMNE08.jpg,MN,1,num_2,16,num_2,0.633515642025,,,2017_Feb_14_1928,60.0065824159,MAFE4ImagesEEG,001,000005,
AFNE01.JPG,AFNE01.JPG,AFNE01.JPG,AFNE01.JPG,AFNE01.JPG,AFNE01.JPG,,,,,,,,,0,6,6,1,,,,,,,,,,,,,,,AMSA12.jpg,AMNE05.jpg,AMSA16.jpg,AMNE11.jpg,AMSA16.jpg,MS,2,num_2,16,num_2,0.633434815332,,,2017_Feb_14_1928,60.0065824159,MAFE4ImagesEEG,001,000005,
AFNE01.JPG,AFNE01.JPG,AFNE01.JPG,AFNE01.JPG,AFNE01.JPG,AFNE01.JPG,,,,,,,,,0,7,7,9,,,,,,,,,,,,,,,AMSA15.jpg,AMNE18.jpg,AMNE06.jpg,AMSA20.jpg,AMNE06.jpg,MN,1,num_2,16,num_2,1.16673787078,,,2017_Feb_14_1928,60.0065824159,MAFE4ImagesEEG,001,000005,
AFNE01.JPG,AFNE01.JPG,AFNE01.JPG,AFNE01.JPG,AFNE01.JPG,AFNE01.JPG,,,,,,,,,0,8,8,8,,,,,,,,,,,,,,,AMSA07.jpg,AMNE10.jpg,AMNE16.jpg,AMSA18.jpg,AMNE10.jpg,MN,1,num_6,16,num_6,1.18342660461,,,2017_Feb_14_1928,60.0065824159,MAFE4ImagesEEG,001,000005,
AFNE01.JPG,AFNE01.JPG,AFNE01.JPG,AFNE01.JPG,AFNE01.JPG,AFNE01.JPG,,,,,,,,,0,9,9,7,,,,,,,,,,,,,,,AMSA03.jpg,AMNE19.jpg,AMNE13.jpg,AMSA01.jpg,AMNE13.jpg,MN,1,num_2,32,num_6,1.05013451818,,,2017_Feb_14_1928,60.0065824159,MAFE4ImagesEEG,001,000005,
AFNE01.JPG,AFNE01.JPG,AFNE01.JPG,AFNE01.JPG,AFNE01.JPG,AFNE01.JPG,,,,,,,,,1,0,10,0,,,,,,,,,,,,,,,AMSA05.jpg,AMSA16.jpg,AMNE04.jpg,AMNE20.jpg,AMNE20.jpg,MN,1,num_4,32,num_8,2.84995054174,,,2017_Feb_14_1928,60.0065824159,MAFE4ImagesEEG,001,000005,
AFNE01.JPG,AFNE01.JPG,AFNE01.JPG,AFNE01.JPG,AFNE01.JPG,AFNE01.JPG,,,,,,,,,1,1,11,4,,,,,,,,,,,,,,,AMSA01.jpg,AMNE15.jpg,AMNE19.jpg,AMSA17.jpg,AMNE19.jpg,MN,1,num_2,16,num_2,2.29997543152,,,2017_Feb_14_1928,60.0065824159,MAFE4ImagesEEG,001,000005,
AFNE01.JPG,AFNE01.JPG,AFNE01.JPG,AFNE01.JPG,AFNE01.JPG,AFNE01.JPG,,,,,,,,,1,2,12,5,,,,,,,,,,,,,,,AMNE19.jpg,AMSA11.jpg,AMSA12.jpg,AMNE02.jpg,AMNE02.jpg,MN,1,num_4,16,num_4,1.21673511248,,,2017_Feb_14_1928,60.0065824159,MAFE4ImagesEEG,001,000005,
AFNE01.JPG,AFNE01.JPG,AFNE01.JPG,AFNE01.JPG,AFNE01.JPG,AFNE01.JPG,,,,,,,,,1,3,13,8,,,,,,,,,,,,,,,AMNE19.jpg,AMSA07.jpg,AMNE15.jpg,AMSA20.jpg,AMSA20.jpg,MS,2,num_4,16,num_4,0.566767442971,,,2017_Feb_14_1928,60.0065824159,MAFE4ImagesEEG,001,000005,
AFNE01.JPG,AFNE01.JPG,AFNE01.JPG,AFNE01.JPG,AFNE01.JPG,AFNE01.JPG,,,,,,,,,1,4,14,6,,,,,,,,,,,,,,,AMSA17.jpg,AMNE11.jpg,AMNE08.jpg,AMSA19.jpg,AMNE08.jpg,MN,1,num_2,16,num_2,1.21674890444,,,2017_Feb_14_1928,60.0065824159,MAFE4ImagesEEG,001,000005,
AFNE01.JPG,AFNE01.JPG,AFNE01.JPG,AFNE01.JPG,AFNE01.JPG,AFNE01.JPG,,,,,,,,,1,5,15,7,,,,,,,,,,,,,,,AMSA12.jpg,AMNE01.jpg,AMSA17.jpg,AMNE15.jpg,AMNE01.jpg,MN,1,num_6,16,num_6,1.01675159857,,,2017_Feb_14_1928,60.0065824159,MAFE4ImagesEEG,001,000005,
AFNE01.JPG,AFNE01.JPG,AFNE01.JPG,AFNE01.JPG,AFNE01.JPG,AFNE01.JPG,,,,,,,,,1,6,16,1,,,,,,,,,,,,,,,AMSA06.jpg,AMNE14.jpg,AMNE10.jpg,AMSA18.jpg,AMSA06.jpg,MS,2,num_8,16,num_8,1.68340992602,,,2017_Feb_14_1928,60.0065824159,MAFE4ImagesEEG,001,000005,
AFNE01.JPG,AFNE01.JPG,AFNE01.JPG,AFNE01.JPG,AFNE01.JPG,AFNE01.JPG,,,,,,,,,1,7,17,3,,,,,,,,,,,,,,,AMNE13.jpg,AMSA12.jpg,AMNE04.jpg,AMSA20.jpg,AMSA20.jpg,MS,2,num_4,16,num_4,1.91682126326,,,2017_Feb_14_1928,60.0065824159,MAFE4ImagesEEG,001,000005,
AFNE01.JPG,AFNE01.JPG,AFNE01.JPG,AFNE01.JPG,AFNE01.JPG,AFNE01.JPG,,,,,,,,,1,8,18,2,,,,,,,,,,,,,,,AMSA07.jpg,AMNE20.jpg,AMNE07.jpg,AMSA01.jpg,AMSA01.jpg,MS,2,num_4,16,num_4,0.900121624582,,,2017_Feb_14_1928,60.0065824159,MAFE4ImagesEEG,001,000005,
AFNE01.JPG,AFNE01.JPG,AFNE01.JPG,AFNE01.JPG,AFNE01.JPG,AFNE01.JPG,,,,,,,,,1,9,19,9,,,,,,,,,,,,,,,AMNE18.jpg,AMNE16.jpg,AMSA20.jpg,AMSA03.jpg,AMSA20.jpg,MS,2,num_2,16,num_2,0.750137597322,,,2017_Feb_14_1928,60.0065824159,MAFE4ImagesEEG,001,000005,
AFNE01.JPG,AFNE01.JPG,AFNE01.JPG,AFNE01.JPG,AFNE01.JPG,AFNE01.JPG,,,,,,,,,2,0,20,8,,,,,,,,,,,,,,,AMNE17.jpg,AMNE12.jpg,AMSA16.jpg,AMSA06.jpg,AMSA06.jpg,MS,2,num_4,32,num_2,2.09989088448,,,2017_Feb_14_1928,60.0065824159,MAFE4ImagesEEG,001,000005,
AFNE01.JPG,AFNE01.JPG,AFNE01.JPG,AFNE01.JPG,AFNE01.JPG,AFNE01.JPG,,,,,,,,,2,1,21,3,,,,,,,,,,,,,,,AMNE01.jpg,AMSA10.jpg,AMSA08.jpg,AMNE10.jpg,AMSA08.jpg,MS,2,num_2,32,num_8,2.26682761405,,,2017_Feb_14_1928,60.0065824159,MAFE4ImagesEEG,001,000005,
AFNE01.JPG,AFNE01.JPG,AFNE01.JPG,AFNE01.JPG,AFNE01.JPG,AFNE01.JPG,,,,,,,,,2,2,22,1,,,,,,,,,,,,,,,AMSA10.jpg,AMSA14.jpg,AMNE14.jpg,AMNE04.jpg,AMSA10.jpg,MS,2,num_8,16,num_8,2.8831416592,,,2017_Feb_14_1928,60.0065824159,MAFE4ImagesEEG,001,000005,
AFNE01.JPG,AFNE01.JPG,AFNE01.JPG,AFNE01.JPG,AFNE01.JPG,AFNE01.JPG,,,,,,,,,2,3,23,9,,,,,,,,,,,,,,,AMSA10.jpg,AMNE10.jpg,AMNE07.jpg,AMSA20.jpg,AMNE10.jpg,MN,1,num_6,16,num_6,1.3000925011,,,2017_Feb_14_1928,60.0065824159,MAFE4ImagesEEG,001,000005,
AFNE01.JPG,AFNE01.JPG,AFNE01.JPG,AFNE01.JPG,AFNE01.JPG,AFNE01.JPG,,,,,,,,,2,4,24,4,,,,,,,,,,,,,,,AMNE12.jpg,AMSA02.jpg,AMSA14.jpg,AMNE15.jpg,AMSA14.jpg,MS,2,num_2,16,num_2,0.516804841347,,,2017_Feb_14_1928,60.0065824159,MAFE4ImagesEEG,001,000005,
AFNE01.JPG,AFNE01.JPG,AFNE01.JPG,AFNE01.JPG,AFNE01.JPG,AFNE01.JPG,,,,,,,,,2,5,25,7,,,,,,,,,,,,,,,AMSA13.jpg,AMNE04.jpg,AMSA04.jpg,AMNE20.jpg,AMSA13.jpg,MS,2,num_8,16,num_8,2.80000301497,,,2017_Feb_14_1928,60.0065824159,MAFE4ImagesEEG,001,000005,
AFNE01.JPG,AFNE01.JPG,AFNE01.JPG,AFNE01.JPG,AFNE01.JPG,AFNE01.JPG,,,,,,,,,2,6,26,2,,,,,,,,,,,,,,,AMNE09.jpg,AMSA16.jpg,AMSA05.jpg,AMNE08.jpg,AMSA16.jpg,MS,2,num_6,16,num_6,0.783498385921,,,2017_Feb_14_1928,60.0065824159,MAFE4ImagesEEG,001,000005,
AFNE01.JPG,AFNE01.JPG,AFNE01.JPG,AFNE01.JPG,AFNE01.JPG,AFNE01.JPG,,,,,,,,,2,7,27,0,,,,,,,,,,,,,,,AMSA13.jpg,AMNE01.jpg,AMNE14.jpg,AMSA05.jpg,AMNE14.jpg,MN,1,num_2,16,num_2,0.566774178296,,,2017_Feb_14_1928,60.0065824159,MAFE4ImagesEEG,001,000005,
AFNE01.JPG,AFNE01.JPG,AFNE01.JPG,AFNE01.JPG,AFNE01.JPG,AFNE01.JPG,,,,,,,,,2,8,28,6,,,,,,,,,,,,,,,AMSA17.jpg,AMSA11.jpg,AMNE02.jpg,AMNE15.jpg,AMSA17.jpg,MS,2,num_8,16,num_8,0.783456689678,,,2017_Feb_14_1928,60.0065824159,MAFE4ImagesEEG,001,000005,
AFNE01.JPG,AFNE01.JPG,AFNE01.JPG,AFNE01.JPG,AFNE01.JPG,AFNE01.JPG,,,,,,,,,2,9,29,5,,,,,,,,,,,,,,,AMNE16.jpg,AMSA15.jpg,AMNE01.jpg,AMSA08.jpg,AMSA08.jpg,MS,2,num_4,32,num_2,0.983311907854,,,2017_Feb_14_1928,60.0065824159,MAFE4ImagesEEG,001,000005,
AFNE01.JPG,AFNE01.JPG,AFNE01.JPG,AFNE01.JPG,AFNE01.JPG,AFNE01.JPG,,,,,,,,,3,0,30,3,,,,,,,,,,,,,,,AMSA03.jpg,AMNE20.jpg,AMSA05.jpg,AMNE18.jpg,AMSA05.jpg,MS,2,num_2,16,num_2,0.833509098738,,,2017_Feb_14_1928,60.0065824159,MAFE4ImagesEEG,001,000005,
AFNE01.JPG,AFNE01.JPG,AFNE01.JPG,AFNE01.JPG,AFNE01.JPG,AFNE01.JPG,,,,,,,,,3,1,31,1,,,,,,,,,,,,,,,AMNE02.jpg,AMSA07.jpg,AMSA20.jpg,AMNE12.jpg,AMNE02.jpg,MN,1,num_8,16,num_8,1.03352019656,,,2017_Feb_14_1928,60.0065824159,MAFE4ImagesEEG,001,000005,
AFNE01.JPG,AFNE01.JPG,AFNE01.JPG,AFNE01.JPG,AFNE01.JPG,AFNE01.JPG,,,,,,,,,3,2,32,0,,,,,,,,,,,,,,,AMSA18.jpg,AMNE04.jpg,AMSA17.jpg,AMNE08.jpg,AMNE04.jpg,MN,1,num_6,32,num_8,1.76666884776,,,2017_Feb_14_1928,60.0065824159,MAFE4ImagesEEG,001,000005,
AFNE01.JPG,AFNE01.JPG,AFNE01.JPG,AFNE01.JPG,AFNE01.JPG,AFNE01.JPG,,,,,,,,,3,3,33,7,,,,,,,,,,,,,,,AMNE16.jpg,AMSA20.jpg,AMSA16.jpg,AMNE05.jpg,AMSA20.jpg,MS,2,num_6,16,num_6,0.866607842967,,,2017_Feb_14_1928,60.0065824159,MAFE4ImagesEEG,001,000005,
AFNE01.JPG,AFNE01.JPG,AFNE01.JPG,AFNE01.JPG,AFNE01.JPG,AFNE01.JPG,,,,,,,,,3,4,34,8,,,,,,,,,,,,,,,AMSA14.jpg,AMNE14.jpg,AMSA12.jpg,AMNE17.jpg,AMSA14.jpg,MS,2,num_8,16,num_8,0.566796630155,,,2017_Feb_14_1928,60.0065824159,MAFE4ImagesEEG,001,000005,
AFNE01.JPG,AFNE01.JPG,AFNE01.JPG,AFNE01.JPG,AFNE01.JPG,AFNE01.JPG,,,,,,,,,3,5,35,4,,,,,,,,,,,,,,,AMNE19.jpg,AMSA16.jpg,AMSA15.jpg,AMNE07.jpg,AMSA16.jpg,MS,2,num_6,32,num_2,0.550097312313,,,2017_Feb_14_1928,60.0065824159,MAFE4ImagesEEG,001,000005,
AFNE01.JPG,AFNE01.JPG,AFNE01.JPG,AFNE01.JPG,AFNE01.JPG,AFNE01.JPG,,,,,,,,,3,6,36,5,,,,,,,,,,,,,,,AMSA19.jpg,AMNE09.jpg,AMSA15.jpg,AMNE07.jpg,AMNE07.jpg,MN,1,num_4,16,num_4,1.46678675152,,,2017_Feb_14_1928,60.0065824159,MAFE4ImagesEEG,001,000005,
AFNE01.JPG,AFNE01.JPG,AFNE01.JPG,AFNE01.JPG,AFNE01.JPG,AFNE01.JPG,,,,,,,,,3,7,37,6,,,,,,,,,,,,,,,AMNE15.jpg,AMNE12.jpg,AMSA17.jpg,AMSA15.jpg,AMNE15.jpg,MN,1,num_8,16,num_8,1.31673152046,,,2017_Feb_14_1928,60.0065824159,MAFE4ImagesEEG,001,000005,
AFNE01.JPG,AFNE01.JPG,AFNE01.JPG,AFNE01.JPG,AFNE01.JPG,AFNE01.JPG,,,,,,,,,3,8,38,9,,,,,,,,,,,,,,,AMSA11.jpg,AMNE14.jpg,AMSA16.jpg,AMNE02.jpg,AMSA16.jpg,MS,2,num_2,32,num_8,1.16672023013,,,2017_Feb_14_1928,60.0065824159,MAFE4ImagesEEG,001,000005,
AFNE01.JPG,AFNE01.JPG,AFNE01.JPG,AFNE01.JPG,AFNE01.JPG,AFNE01.JPG,,,,,,,,,3,9,39,2,,,,,,,,,,,,,,,AMNE20.jpg,AMSA15.jpg,AMNE14.jpg,AMSA10.jpg,AMSA15.jpg,MS,2,num_6,16,num_6,0.683438151143,,,2017_Feb_14_1928,60.0065824159,MAFE4ImagesEEG,001,000005,
AFNE01.JPG,AFNE01.JPG,AFNE01.JPG,AFNE01.JPG,AFNE01.JPG,AFNE01.JPG,,,,,,,,,4,0,40,5,,,,,,,,,,,,,,,AMNE07.jpg,AMNE12.jpg,AMSA20.jpg,AMSA14.jpg,AMSA14.jpg,MS,2,num_4,16,num_4,0.616750892717,,,2017_Feb_14_1928,60.0065824159,MAFE4ImagesEEG,001,000005,
AFNE01.JPG,AFNE01.JPG,AFNE01.JPG,AFNE01.JPG,AFNE01.JPG,AFNE01.JPG,,,,,,,,,4,1,41,7,,,,,,,,,,,,,,,AMSA11.jpg,AMSA12.jpg,AMNE09.jpg,AMNE12.jpg,AMSA12.jpg,MS,2,num_6,32,num_8,0.900121624582,,,2017_Feb_14_1928,60.0065824159,MAFE4ImagesEEG,001,000005,
AFNE01.JPG,AFNE01.JPG,AFNE01.JPG,AFNE01.JPG,AFNE01.JPG,AFNE01.JPG,,,,,,,,,4,2,42,2,,,,,,,,,,,,,,,AMNE11.jpg,AMSA17.jpg,AMSA16.jpg,AMNE04.jpg,AMNE04.jpg,MN,1,num_4,16,num_4,1.06670297449,,,2017_Feb_14_1928,60.0065824159,MAFE4ImagesEEG,001,000005,
AFNE01.JPG,AFNE01.JPG,AFNE01.JPG,AFNE01.JPG,AFNE01.JPG,AFNE01.JPG,,,,,,,,,4,3,43,6,,,,,,,,,,,,,,,AMNE16.jpg,AMSA20.jpg,AMSA07.jpg,AMNE08.jpg,AMNE08.jpg,MN,1,num_4,16,num_4,0.95023272885,,,2017_Feb_14_1928,60.0065824159,MAFE4ImagesEEG,001,000005,
AFNE01.JPG,AFNE01.JPG,AFNE01.JPG,AFNE01.JPG,AFNE01.JPG,AFNE01.JPG,,,,,,,,,4,4,44,0,,,,,,,,,,,,,,,AMNE05.jpg,AMSA09.jpg,AMNE10.jpg,AMSA02.jpg,AMNE05.jpg,MN,1,num_8,16,num_8,0.600129835308,,,2017_Feb_14_1928,60.0065824159,MAFE4ImagesEEG,001,000005,
AFNE01.JPG,AFNE01.JPG,AFNE01.JPG,AFNE01.JPG,AFNE01.JPG,AFNE01.JPG,,,,,,,,,4,5,45,8,,,,,,,,,,,,,,,AMSA08.jpg,AMNE10.jpg,AMSA03.jpg,AMNE02.jpg,AMNE10.jpg,MN,1,num_6,16,num_6,0.566774178762,,,2017_Feb_14_1928,60.0065824159,MAFE4ImagesEEG,001,000005,
AFNE01.JPG,AFNE01.JPG,AFNE01.JPG,AFNE01.JPG,AFNE01.JPG,AFNE01.JPG,,,,,,,,,4,6,46,9,,,,,,,,,,,,,,,AMNE10.jpg,AMSA11.jpg,AMSA01.jpg,AMNE12.jpg,AMSA01.jpg,MS,2,num_2,16,num_2,0.616798041854,,,2017_Feb_14_1928,60.0065824159,MAFE4ImagesEEG,001,000005,
AFNE01.JPG,AFNE01.JPG,AFNE01.JPG,AFNE01.JPG,AFNE01.JPG,AFNE01.JPG,,,,,,,,,4,7,47,3,,,,,,,,,,,,,,,AMNE12.jpg,AMNE07.jpg,AMSA05.jpg,AMSA15.jpg,AMSA15.jpg,MS,2,num_4,16,num_4,0.500125729945,,,2017_Feb_14_1928,60.0065824159,MAFE4ImagesEEG,001,000005,
AFNE01.JPG,AFNE01.JPG,AFNE01.JPG,AFNE01.JPG,AFNE01.JPG,AFNE01.JPG,,,,,,,,,4,8,48,4,,,,,,,,,,,,,,,AMSA11.jpg,AMSA07.jpg,AMNE07.jpg,AMNE09.jpg,AMSA11.jpg,MS,2,num_8,16,num_8,0.716760450974,,,2017_Feb_14_1928,60.0065824159,MAFE4ImagesEEG,001,000005,
AFNE01.JPG,AFNE01.JPG,AFNE01.JPG,AFNE01.JPG,AFNE01.JPG,AFNE01.JPG,,,,,,,,,4,9,49,1,,,,,,,,,,,,,,,AMSA17.jpg,AMSA12.jpg,AMNE15.jpg,AMNE19.jpg,AMNE19.jpg,MN,1,num_4,16,num_4,1.46670817025,,,2017_Feb_14_1928,60.0065824159,MAFE4ImagesEEG,001,000005,
AFNE01.JPG,AFNE01.JPG,AFNE01.JPG,AFNE01.JPG,AFNE01.JPG,AFNE01.JPG,,,,,,,,,5,0,50,2,,,,,,,,,,,,,,,AMNE16.jpg,AMSA07.jpg,AMSA17.jpg,AMNE12.jpg,AMNE12.jpg,MN,1,num_4,16,num_4,1.28341082437,,,2017_Feb_14_1928,60.0065824159,MAFE4ImagesEEG,001,000005,
AFNE01.JPG,AFNE01.JPG,AFNE01.JPG,AFNE01.JPG,AFNE01.JPG,AFNE01.JPG,,,,,,,,,5,1,51,9,,,,,,,,,,,,,,,AMSA06.jpg,AMNE09.jpg,AMNE14.jpg,AMSA16.jpg,AMSA06.jpg,MS,2,num_8,32,num_4,1.00011033472,,,2017_Feb_14_1928,60.0065824159,MAFE4ImagesEEG,001,000005,
AFNE01.JPG,AFNE01.JPG,AFNE01.JPG,AFNE01.JPG,AFNE01.JPG,AFNE01.JPG,,,,,,,,,5,2,52,5,,,,,,,,,,,,,,,AMNE14.jpg,AMSA20.jpg,AMNE10.jpg,AMSA13.jpg,AMSA13.jpg,MS,2,num_4,32,num_2,0.750135672744,,,2017_Feb_14_1928,60.0065824159,MAFE4ImagesEEG,001,000005,
AFNE01.JPG,AFNE01.JPG,AFNE01.JPG,AFNE01.JPG,AFNE01.JPG,AFNE01.JPG,,,,,,,,,5,3,53,4,,,,,,,,,,,,,,,AMNE16.jpg,AMSA15.jpg,AMSA09.jpg,AMNE11.jpg,AMSA09.jpg,MS,2,num_2,32,num_6,0.700277311727,,,2017_Feb_14_1928,60.0065824159,MAFE4ImagesEEG,001,000005,
AFNE01.JPG,AFNE01.JPG,AFNE01.JPG,AFNE01.JPG,AFNE01.JPG,AFNE01.JPG,,,,,,,,,5,4,54,0,,,,,,,,,,,,,,,AMNE09.jpg,AMSA17.jpg,AMSA19.jpg,AMNE07.jpg,AMNE07.jpg,MN,1,num_4,16,num_4,0.933405756019,,,2017_Feb_14_1928,60.0065824159,MAFE4ImagesEEG,001,000005,
AFNE01.JPG,AFNE01.JPG,AFNE01.JPG,AFNE01.JPG,AFNE01.JPG,AFNE01.JPG,,,,,,,,,5,5,55,3,,,,,,,,,,,,,,,AMNE07.jpg,AMSA02.jpg,AMSA04.jpg,AMNE15.jpg,AMSA04.jpg,MS,2,num_2,16,num_2,0.650146321859,,,2017_Feb_14_1928,60.0065824159,MAFE4ImagesEEG,001,000005,
AFNE01.JPG,AFNE01.JPG,AFNE01.JPG,AFNE01.JPG,AFNE01.JPG,AFNE01.JPG,,,,,,,,,5,6,56,8,,,,,,,,,,,,,,,AMSA07.jpg,AMNE15.jpg,AMSA18.jpg,AMNE08.jpg,AMNE08.jpg,MN,1,num_4,16,num_4,0.616485320497,,,2017_Feb_14_1928,60.0065824159,MAFE4ImagesEEG,001,000005,
AFNE01.JPG,AFNE01.JPG,AFNE01.JPG,AFNE01.JPG,AFNE01.JPG,AFNE01.JPG,,,,,,,,,5,7,57,7,,,,,,,,,,,,,,,AMSA05.jpg,AMSA03.jpg,AMNE03.jpg,AMNE15.jpg,AMSA03.jpg,MS,2,num_6,16,num_6,1.16676577507,,,2017_Feb_14_1928,60.0065824159,MAFE4ImagesEEG,001,000005,
AFNE01.JPG,AFNE01.JPG,AFNE01.JPG,AFNE01.JPG,AFNE01.JPG,AFNE01.JPG,,,,,,,,,5,8,58,1,,,,,,,,,,,,,,,AMNE04.jpg,AMNE19.jpg,AMSA17.jpg,AMSA03.jpg,AMNE19.jpg,MN,1,num_6,32,num_8,1.01663196273,,,2017_Feb_14_1928,60.0065824159,MAFE4ImagesEEG,001,000005,
AFNE01.JPG,AFNE01.JPG,AFNE01.JPG,AFNE01.JPG,AFNE01.JPG,AFNE01.JPG,,,,,,,,,5,9,59,6,,,,,,,,,,,,,,,AMNE01.jpg,AMNE17.jpg,AMSA05.jpg,AMSA15.jpg,AMSA15.jpg,MS,2,num_4,16,num_4,0.583461629227,,,2017_Feb_14_1928,60.0065824159,MAFE4ImagesEEG,001,000005,
,,,,,,,,,,,,,,,,,,,,,,,,,,,,,,,,,,,,,,,,,,,space,12.81612885,2017_Feb_14_1928,60.0065824159,MAFE4ImagesEEG,001,000005,
AFNE01.JPG,AFNE01.JPG,AFNE01.JPG,AFNE01.JPG,AFNE01.JPG,AFNE01.JPG,,,,,,,,,,,,,0,0,0,7,,,,,,,,,,,AFNE16.jpg,AFSA13.jpg,AFSA10.jpg,AFNE18.jpg,AFSA10.jpg,FS,4,num_2,32,num_4,0.90012707701,,,2017_Feb_14_1928,60.0065824159,MAFE4ImagesEEG,001,000005,
AFNE01.JPG,AFNE01.JPG,AFNE01.JPG,AFNE01.JPG,AFNE01.JPG,AFNE01.JPG,,,,,,,,,,,,,0,1,1,2,,,,,,,,,,,AFNE12.jpg,AFNE16.jpg,AFSA03.jpg,AFSA12.jpg,AFSA03.jpg,FS,4,num_2,16,num_2,1.01674614567,,,2017_Feb_14_1928,60.0065824159,MAFE4ImagesEEG,001,000005,
AFNE01.JPG,AFNE01.JPG,AFNE01.JPG,AFNE01.JPG,AFNE01.JPG,AFNE01.JPG,,,,,,,,,,,,,0,2,2,5,,,,,,,,,,,AFNE20.jpg,AFSA02.jpg,AFSA13.jpg,AFNE05.jpg,AFNE20.jpg,FN,3,num_8,16,num_8,0.86674576113,,,2017_Feb_14_1928,60.0065824159,MAFE4ImagesEEG,001,000005,
AFNE01.JPG,AFNE01.JPG,AFNE01.JPG,AFNE01.JPG,AFNE01.JPG,AFNE01.JPG,,,,,,,,,,,,,0,3,3,1,,,,,,,,,,,AFNE20.jpg,AFSA09.jpg,AFNE03.jpg,AFSA05.jpg,AFNE03.jpg,FN,3,num_2,16,num_2,2.58329644799,,,2017_Feb_14_1928,60.0065824159,MAFE4ImagesEEG,001,000005,
AFNE01.JPG,AFNE01.JPG,AFNE01.JPG,AFNE01.JPG,AFNE01.JPG,AFNE01.JPG,,,,,,,,,,,,,0,4,4,4,,,,,,,,,,,AFSA05.jpg,AFNE06.jpg,AFNE08.jpg,AFSA14.jpg,AFSA14.jpg,FS,4,num_4,32,num_2,1.31665133499,,,2017_Feb_14_1928,60.0065824159,MAFE4ImagesEEG,001,000005,
AFNE01.JPG,AFNE01.JPG,AFNE01.JPG,AFNE01.JPG,AFNE01.JPG,AFNE01.JPG,,,,,,,,,,,,,0,5,5,9,,,,,,,,,,,AFSA08.jpg,AFSA10.jpg,AFNE01.jpg,AFNE08.jpg,AFNE08.jpg,FN,3,num_4,32,num_8,0.966915047728,,,2017_Feb_14_1928,60.0065824159,MAFE4ImagesEEG,001,000005,
AFNE01.JPG,AFNE01.JPG,AFNE01.JPG,AFNE01.JPG,AFNE01.JPG,AFNE01.JPG,,,,,,,,,,,,,0,6,6,3,,,,,,,,,,,AFNE02.jpg,AFSA04.jpg,AFSA20.jpg,AFNE20.jpg,AFNE20.jpg,FN,3,num_4,16,num_4,1.38338221377,,,2017_Feb_14_1928,60.0065824159,MAFE4ImagesEEG,001,000005,
AFNE01.JPG,AFNE01.JPG,AFNE01.JPG,AFNE01.JPG,AFNE01.JPG,AFNE01.JPG,,,,,,,,,,,,,0,7,7,8,,,,,,,,,,,AFSA20.jpg,AFNE17.jpg,AFSA01.jpg,AFNE05.jpg,AFSA01.jpg,FS,4,num_2,16,num_2,2.6335701677,,,2017_Feb_14_1928,60.0065824159,MAFE4ImagesEEG,001,000005,
AFNE01.JPG,AFNE01.JPG,AFNE01.JPG,AFNE01.JPG,AFNE01.JPG,AFNE01.JPG,,,,,,,,,,,,,0,8,8,6,,,,,,,,,,,AFNE10.jpg,AFNE02.jpg,AFSA18.jpg,AFSA06.jpg,AFNE02.jpg,FN,3,num_6,32,num_2,0.733599931933,,,2017_Feb_14_1928,60.0065824159,MAFE4ImagesEEG,001,000005,
AFNE01.JPG,AFNE01.JPG,AFNE01.JPG,AFNE01.JPG,AFNE01.JPG,AFNE01.JPG,,,,,,,,,,,,,0,9,9,0,,,,,,,,,,,AFNE15.jpg,AFNE13.jpg,AFSA04.jpg,AFSA16.jpg,AFSA04.jpg,FS,4,num_2,16,num_2,1.76669611083,,,2017_Feb_14_1928,60.0065824159,MAFE4ImagesEEG,001,000005,
AFNE01.JPG,AFNE01.JPG,AFNE01.JPG,AFNE01.JPG,AFNE01.JPG,AFNE01.JPG,,,,,,,,,,,,,1,0,10,5,,,,,,,,,,,AFNE04.jpg,AFNE13.jpg,AFSA07.jpg,AFSA01.jpg,AFNE13.jpg,FN,3,num_6,16,num_6,0.73344212817,,,2017_Feb_14_1928,60.0065824159,MAFE4ImagesEEG,001,000005,
AFNE01.JPG,AFNE01.JPG,AFNE01.JPG,AFNE01.JPG,AFNE01.JPG,AFNE01.JPG,,,,,,,,,,,,,1,1,11,0,,,,,,,,,,,AFNE06.jpg,AFSA14.jpg,AFSA02.jpg,AFNE12.jpg,AFSA14.jpg,FS,4,num_6,16,num_6,1.31672606757,,,2017_Feb_14_1928,60.0065824159,MAFE4ImagesEEG,001,000005,
AFNE01.JPG,AFNE01.JPG,AFNE01.JPG,AFNE01.JPG,AFNE01.JPG,AFNE01.JPG,,,,,,,,,,,,,1,2,12,1,,,,,,,,,,,AFNE17.jpg,AFSA16.jpg,AFSA08.jpg,AFNE12.jpg,AFNE12.jpg,FN,3,num_4,16,num_4,0.583467723336,,,2017_Feb_14_1928,60.0065824159,MAFE4ImagesEEG,001,000005,
AFNE01.JPG,AFNE01.JPG,AFNE01.JPG,AFNE01.JPG,AFNE01.JPG,AFNE01.JPG,,,,,,,,,,,,,1,3,13,2,,,,,,,,,,,AFNE20.jpg,AFSA05.jpg,AFSA19.jpg,AFNE16.jpg,AFSA05.jpg,FS,4,num_6,16,num_6,1.00013695611,,,2017_Feb_14_1928,60.0065824159,MAFE4ImagesEEG,001,000005,
AFNE01.JPG,AFNE01.JPG,AFNE01.JPG,AFNE01.JPG,AFNE01.JPG,AFNE01.JPG,,,,,,,,,,,,,1,4,14,4,,,,,,,,,,,AFSA05.jpg,AFSA06.jpg,AFNE16.jpg,AFNE15.jpg,AFSA06.jpg,FS,4,num_6,16,num_6,2.3166362606,,,2017_Feb_14_1928,60.0065824159,MAFE4ImagesEEG,001,000005,
AFNE01.JPG,AFNE01.JPG,AFNE01.JPG,AFNE01.JPG,AFNE01.JPG,AFNE01.JPG,,,,,,,,,,,,,1,5,15,7,,,,,,,,,,,AFSA10.jpg,AFNE15.jpg,AFSA04.jpg,AFNE20.jpg,AFSA04.jpg,FS,4,num_2,16,num_2,0.566791819409,,,2017_Feb_14_1928,60.0065824159,MAFE4ImagesEEG,001,000005,
AFNE01.JPG,AFNE01.JPG,AFNE01.JPG,AFNE01.JPG,AFNE01.JPG,AFNE01.JPG,,,,,,,,,,,,,1,6,16,8,,,,,,,,,,,AFNE15.jpg,AFSA18.jpg,AFSA20.jpg,AFNE03.jpg,AFNE03.jpg,FN,3,num_4,32,num_6,1.78335244954,,,2017_Feb_14_1928,60.0065824159,MAFE4ImagesEEG,001,000005,
AFNE01.JPG,AFNE01.JPG,AFNE01.JPG,AFNE01.JPG,AFNE01.JPG,AFNE01.JPG,,,,,,,,,,,,,1,7,17,6,,,,,,,,,,,AFNE15.jpg,AFSA12.jpg,AFNE05.jpg,AFSA08.jpg,AFNE05.jpg,FN,3,num_2,16,num_2,0.683138580061,,,2017_Feb_14_1928,60.0065824159,MAFE4ImagesEEG,001,000005,
AFNE01.JPG,AFNE01.JPG,AFNE01.JPG,AFNE01.JPG,AFNE01.JPG,AFNE01.JPG,,,,,,,,,,,,,1,8,18,9,,,,,,,,,,,AFNE06.jpg,AFNE14.jpg,AFSA20.jpg,AFSA01.jpg,AFSA20.jpg,FS,4,num_2,16,num_2,0.95025935024,,,2017_Feb_14_1928,60.0065824159,MAFE4ImagesEEG,001,000005,
AFNE01.JPG,AFNE01.JPG,AFNE01.JPG,AFNE01.JPG,AFNE01.JPG,AFNE01.JPG,,,,,,,,,,,,,1,9,19,3,,,,,,,,,,,AFSA07.jpg,AFNE09.jpg,AFSA11.jpg,AFNE04.jpg,AFSA11.jpg,FS,4,num_2,16,num_2,0.566780272871,,,2017_Feb_14_1928,60.0065824159,MAFE4ImagesEEG,001,000005,
AFNE01.JPG,AFNE01.JPG,AFNE01.JPG,AFNE01.JPG,AFNE01.JPG,AFNE01.JPG,,,,,,,,,,,,,2,0,20,9,,,,,,,,,,,AFSA18.jpg,AFNE14.jpg,AFNE08.jpg,AFSA03.jpg,AFNE14.jpg,FN,3,num_6,16,num_6,0.800097312778,,,2017_Feb_14_1928,60.0065824159,MAFE4ImagesEEG,001,000005,
AFNE01.JPG,AFNE01.JPG,AFNE01.JPG,AFNE01.JPG,AFNE01.JPG,AFNE01.JPG,,,,,,,,,,,,,2,1,21,0,,,,,,,,,,,AFSA01.jpg,AFNE03.jpg,AFSA08.jpg,AFNE13.jpg,AFNE13.jpg,FN,3,num_4,32,num_2,2.59996818239,,,2017_Feb_14_1928,60.0065824159,MAFE4ImagesEEG,001,000005,
AFNE01.JPG,AFNE01.JPG,AFNE01.JPG,AFNE01.JPG,AFNE01.JPG,AFNE01.JPG,,,,,,,,,,,,,2,2,22,8,,,,,,,,,,,AFNE08.jpg,AFSA14.jpg,AFNE02.jpg,AFSA13.jpg,AFSA14.jpg,FS,4,num_6,16,num_6,0.750008980744,,,2017_Feb_14_1928,60.0065824159,MAFE4ImagesEEG,001,000005,
AFNE01.JPG,AFNE01.JPG,AFNE01.JPG,AFNE01.JPG,AFNE01.JPG,AFNE01.JPG,,,,,,,,,,,,,2,3,23,7,,,,,,,,,,,AFNE14.jpg,AFSA20.jpg,AFSA14.jpg,AFNE08.jpg,AFSA20.jpg,FS,4,num_6,16,num_6,1.53340184316,,,2017_Feb_14_1928,60.0065824159,MAFE4ImagesEEG,001,000005,
AFNE01.JPG,AFNE01.JPG,AFNE01.JPG,AFNE01.JPG,AFNE01.JPG,AFNE01.JPG,,,,,,,,,,,,,2,4,24,1,,,,,,,,,,,AFSA02.jpg,AFNE08.jpg,AFSA06.jpg,AFNE01.jpg,AFNE01.jpg,FN,3,num_4,32,num_8,2.61677238252,,,2017_Feb_14_1928,60.0065824159,MAFE4ImagesEEG,001,000005,
AFNE01.JPG,AFNE01.JPG,AFNE01.JPG,AFNE01.JPG,AFNE01.JPG,AFNE01.JPG,,,,,,,,,,,,,2,5,25,5,,,,,,,,,,,AFNE02.jpg,AFNE06.jpg,AFSA18.jpg,AFSA17.jpg,AFNE06.jpg,FN,3,num_6,32,num_8,2.61661329586,,,2017_Feb_14_1928,60.0065824159,MAFE4ImagesEEG,001,000005,
AFNE01.JPG,AFNE01.JPG,AFNE01.JPG,AFNE01.JPG,AFNE01.JPG,AFNE01.JPG,,,,,,,,,,,,,2,6,26,2,,,,,,,,,,,AFSA20.jpg,AFNE06.jpg,AFNE03.jpg,AFSA10.jpg,AFSA10.jpg,FS,4,num_4,32,num_6,2.16665672371,,,2017_Feb_14_1928,60.0065824159,MAFE4ImagesEEG,001,000005,
AFNE01.JPG,AFNE01.JPG,AFNE01.JPG,AFNE01.JPG,AFNE01.JPG,AFNE01.JPG,,,,,,,,,,,,,2,7,27,6,,,,,,,,,,,AFSA10.jpg,AFSA12.jpg,AFNE11.jpg,AFNE12.jpg,AFSA12.jpg,FS,4,num_6,16,num_6,0.63344026776,,,2017_Feb_14_1928,60.0065824159,MAFE4ImagesEEG,001,000005,
AFNE01.JPG,AFNE01.JPG,AFNE01.JPG,AFNE01.JPG,AFNE01.JPG,AFNE01.JPG,,,,,,,,,,,,,2,8,28,4,,,,,,,,,,,AFNE13.jpg,AFSA03.jpg,AFNE08.jpg,AFSA12.jpg,AFNE08.jpg,FN,3,num_2,32,num_8,1.31670329487,,,2017_Feb_14_1928,60.0065824159,MAFE4ImagesEEG,001,000005,
AFNE01.JPG,AFNE01.JPG,AFNE01.JPG,AFNE01.JPG,AFNE01.JPG,AFNE01.JPG,,,,,,,,,,,,,2,9,29,3,,,,,,,,,,,AFSA15.jpg,AFSA11.jpg,AFNE10.jpg,AFNE16.jpg,AFSA15.jpg,FS,4,num_8,16,num_8,1.13341653347,,,2017_Feb_14_1928,60.0065824159,MAFE4ImagesEEG,001,000005,
AFNE01.JPG,AFNE01.JPG,AFNE01.JPG,AFNE01.JPG,AFNE01.JPG,AFNE01.JPG,,,,,,,,,,,,,3,0,30,1,,,,,,,,,,,AFNE19.jpg,AFSA15.jpg,AFSA20.jpg,AFNE10.jpg,AFSA15.jpg,FS,4,num_6,16,num_6,1.5999130155,,,2017_Feb_14_1928,60.0065824159,MAFE4ImagesEEG,001,000005,
AFNE01.JPG,AFNE01.JPG,AFNE01.JPG,AFNE01.JPG,AFNE01.JPG,AFNE01.JPG,,,,,,,,,,,,,3,1,31,8,,,,,,,,,,,AFNE12.jpg,AFSA08.jpg,AFNE18.jpg,AFSA16.jpg,AFNE12.jpg,FN,3,num_8,16,num_8,0.800109821372,,,2017_Feb_14_1928,60.0065824159,MAFE4ImagesEEG,001,000005,
AFNE01.JPG,AFNE01.JPG,AFNE01.JPG,AFNE01.JPG,AFNE01.JPG,AFNE01.JPG,,,,,,,,,,,,,3,2,32,7,,,,,,,,,,,AFSA05.jpg,AFNE10.jpg,AFSA17.jpg,AFNE16.jpg,AFNE16.jpg,FN,3,num_4,16,num_4,0.850098723546,,,2017_Feb_14_1928,60.0065824159,MAFE4ImagesEEG,001,000005,
AFNE01.JPG,AFNE01.JPG,AFNE01.JPG,AFNE01.JPG,AFNE01.JPG,AFNE01.JPG,,,,,,,,,,,,,3,3,33,0,,,,,,,,,,,AFNE07.jpg,AFSA06.jpg,AFNE08.jpg,AFSA03.jpg,AFNE08.jpg,FN,3,num_2,32,num_6,1.16672696546,,,2017_Feb_14_1928,60.0065824159,MAFE4ImagesEEG,001,000005,
AFNE01.JPG,AFNE01.JPG,AFNE01.JPG,AFNE01.JPG,AFNE01.JPG,AFNE01.JPG,,,,,,,,,,,,,3,4,34,6,,,,,,,,,,,AFSA05.jpg,AFNE16.jpg,AFNE20.jpg,AFSA03.jpg,AFSA03.jpg,FS,4,num_4,32,num_8,2.5333322431,,,2017_Feb_14_1928,60.0065824159,MAFE4ImagesEEG,001,000005,
AFNE01.JPG,AFNE01.JPG,AFNE01.JPG,AFNE01.JPG,AFNE01.JPG,AFNE01.JPG,,,,,,,,,,,,,3,5,35,5,,,,,,,,,,,AFSA11.jpg,AFSA19.jpg,AFNE11.jpg,AFNE16.jpg,AFNE11.jpg,FN,3,num_2,32,num_8,1.10010449681,,,2017_Feb_14_1928,60.0065824159,MAFE4ImagesEEG,001,000005,
AFNE01.JPG,AFNE01.JPG,AFNE01.JPG,AFNE01.JPG,AFNE01.JPG,AFNE01.JPG,,,,,,,,,,,,,3,6,36,4,,,,,,,,,,,AFSA07.jpg,AFSA19.jpg,AFNE08.jpg,AFNE11.jpg,AFSA07.jpg,FS,4,num_8,32,num_2,1.14991346421,,,2017_Feb_14_1928,60.0065824159,MAFE4ImagesEEG,001,000005,
AFNE01.JPG,AFNE01.JPG,AFNE01.JPG,AFNE01.JPG,AFNE01.JPG,AFNE01.JPG,,,,,,,,,,,,,3,7,37,9,,,,,,,,,,,AFSA04.jpg,AFNE09.jpg,AFSA10.jpg,AFNE07.jpg,AFNE07.jpg,FN,3,num_4,16,num_4,0.817101654131,,,2017_Feb_14_1928,60.0065824159,MAFE4ImagesEEG,001,000005,
AFNE01.JPG,AFNE01.JPG,AFNE01.JPG,AFNE01.JPG,AFNE01.JPG,AFNE01.JPG,,,,,,,,,,,,,3,8,38,3,,,,,,,,,,,AFNE17.jpg,AFSA08.jpg,AFSA02.jpg,AFNE05.jpg,AFNE17.jpg,FN,3,num_8,16,num_8,0.933521222323,,,2017_Feb_14_1928,60.0065824159,MAFE4ImagesEEG,001,000005,
AFNE01.JPG,AFNE01.JPG,AFNE01.JPG,AFNE01.JPG,AFNE01.JPG,AFNE01.JPG,,,,,,,,,,,,,3,9,39,2,,,,,,,,,,,AFSA01.jpg,AFNE08.jpg,AFSA04.jpg,AFNE13.jpg,AFSA04.jpg,FS,4,num_2,16,num_2,0.633439626545,,,2017_Feb_14_1928,60.0065824159,MAFE4ImagesEEG,001,000005,
AFNE01.JPG,AFNE01.JPG,AFNE01.JPG,AFNE01.JPG,AFNE01.JPG,AFNE01.JPG,,,,,,,,,,,,,4,0,40,8,,,,,,,,,,,AFSA13.jpg,AFNE12.jpg,AFNE11.jpg,AFSA16.jpg,AFSA13.jpg,FS,4,num_8,16,num_8,0.733447901439,,,2017_Feb_14_1928,60.0065824159,MAFE4ImagesEEG,001,000005,
AFNE01.JPG,AFNE01.JPG,AFNE01.JPG,AFNE01.JPG,AFNE01.JPG,AFNE01.JPG,,,,,,,,,,,,,4,1,41,7,,,,,,,,,,,AFSA08.jpg,AFNE03.jpg,AFNE10.jpg,AFSA03.jpg,AFNE03.jpg,FN,3,num_6,32,num_8,1.10005638609,,,2017_Feb_14_1928,60.0065824159,MAFE4ImagesEEG,001,000005,
AFNE01.JPG,AFNE01.JPG,AFNE01.JPG,AFNE01.JPG,AFNE01.JPG,AFNE01.JPG,,,,,,,,,,,,,4,2,42,4,,,,,,,,,,,AFNE01.jpg,AFSA01.jpg,AFNE07.jpg,AFSA12.jpg,AFNE07.jpg,FN,3,num_2,16,num_2,1.25009975024,,,2017_Feb_14_1928,60.0065824159,MAFE4ImagesEEG,001,000005,
AFNE01.JPG,AFNE01.JPG,AFNE01.JPG,AFNE01.JPG,AFNE01.JPG,AFNE01.JPG,,,,,,,,,,,,,4,3,43,0,,,,,,,,,,,AFSA04.jpg,AFNE14.jpg,AFNE07.jpg,AFSA02.jpg,AFNE14.jpg,FN,3,num_6,16,num_6,0.766787842382,,,2017_Feb_14_1928,60.0065824159,MAFE4ImagesEEG,001,000005,
AFNE01.JPG,AFNE01.JPG,AFNE01.JPG,AFNE01.JPG,AFNE01.JPG,AFNE01.JPG,,,,,,,,,,,,,4,4,44,1,,,,,,,,,,,AFNE04.jpg,AFSA12.jpg,AFNE19.jpg,AFSA13.jpg,AFNE19.jpg,FN,3,num_2,16,num_2,0.80006587971,,,2017_Feb_14_1928,60.0065824159,MAFE4ImagesEEG,001,000005,
AFNE01.JPG,AFNE01.JPG,AFNE01.JPG,AFNE01.JPG,AFNE01.JPG,AFNE01.JPG,,,,,,,,,,,,,4,5,45,5,,,,,,,,,,,AFNE15.jpg,AFSA19.jpg,AFSA12.jpg,AFNE16.jpg,AFNE15.jpg,FN,3,num_8,16,num_8,0.833448158111,,,2017_Feb_14_1928,60.0065824159,MAFE4ImagesEEG,001,000005,
AFNE01.JPG,AFNE01.JPG,AFNE01.JPG,AFNE01.JPG,AFNE01.JPG,AFNE01.JPG,,,,,,,,,,,,,4,6,46,9,,,,,,,,,,,AFSA13.jpg,AFNE16.jpg,AFSA10.jpg,AFNE12.jpg,AFNE16.jpg,FN,3,num_6,16,num_6,0.883457588032,,,2017_Feb_14_1928,60.0065824159,MAFE4ImagesEEG,001,000005,
AFNE01.JPG,AFNE01.JPG,AFNE01.JPG,AFNE01.JPG,AFNE01.JPG,AFNE01.JPG,,,,,,,,,,,,,4,7,47,3,,,,,,,,,,,AFNE15.jpg,AFNE17.jpg,AFSA09.jpg,AFSA15.jpg,AFNE17.jpg,FN,3,num_6,32,num_8,0.983553104103,,,2017_Feb_14_1928,60.0065824159,MAFE4ImagesEEG,001,000005,
AFNE01.JPG,AFNE01.JPG,AFNE01.JPG,AFNE01.JPG,AFNE01.JPG,AFNE01.JPG,,,,,,,,,,,,,4,8,48,6,,,,,,,,,,,AFNE15.jpg,AFNE20.jpg,AFSA20.jpg,AFSA19.jpg,AFSA20.jpg,FS,4,num_2,32,num_6,1.15007383469,,,2017_Feb_14_1928,60.0065824159,MAFE4ImagesEEG,001,000005,
AFNE01.JPG,AFNE01.JPG,AFNE01.JPG,AFNE01.JPG,AFNE01.JPG,AFNE01.JPG,,,,,,,,,,,,,4,9,49,2,,,,,,,,,,,AFSA08.jpg,AFNE06.jpg,AFNE09.jpg,AFSA15.jpg,AFNE09.jpg,FN,3,num_2,32,num_6,1.06701505417,,,2017_Feb_14_1928,60.0065824159,MAFE4ImagesEEG,001,000005,
AFNE01.JPG,AFNE01.JPG,AFNE01.JPG,AFNE01.JPG,AFNE01.JPG,AFNE01.JPG,,,,,,,,,,,,,5,0,50,8,,,,,,,,,,,AFSA18.jpg,AFNE10.jpg,AFNE06.jpg,AFSA13.jpg,AFSA13.jpg,FS,4,num_4,16,num_4,0.616780401208,,,2017_Feb_14_1928,60.0065824159,MAFE4ImagesEEG,001,000005,
AFNE01.JPG,AFNE01.JPG,AFNE01.JPG,AFNE01.JPG,AFNE01.JPG,AFNE01.JPG,,,,,,,,,,,,,5,1,51,9,,,,,,,,,,,AFSA02.jpg,AFNE13.jpg,AFSA11.jpg,AFNE05.jpg,AFNE13.jpg,FN,3,num_6,32,num_4,1.75006350689,,,2017_Feb_14_1928,60.0065824159,MAFE4ImagesEEG,001,000005,
AFNE01.JPG,AFNE01.JPG,AFNE01.JPG,AFNE01.JPG,AFNE01.JPG,AFNE01.JPG,,,,,,,,,,,,,5,2,52,5,,,,,,,,,,,AFNE10.jpg,AFNE07.jpg,AFSA08.jpg,AFSA18.jpg,AFNE10.jpg,FN,3,num_8,16,num_8,1.6334293629,,,2017_Feb_14_1928,60.0065824159,MAFE4ImagesEEG,001,000005,
AFNE01.JPG,AFNE01.JPG,AFNE01.JPG,AFNE01.JPG,AFNE01.JPG,AFNE01.JPG,,,,,,,,,,,,,5,3,53,2,,,,,,,,,,,AFSA20.jpg,AFNE04.jpg,AFNE09.jpg,AFSA07.jpg,AFSA20.jpg,FS,4,num_8,32,num_4,0.916748134419,,,2017_Feb_14_1928,60.0065824159,MAFE4ImagesEEG,001,000005,
AFNE01.JPG,AFNE01.JPG,AFNE01.JPG,AFNE01.JPG,AFNE01.JPG,AFNE01.JPG,,,,,,,,,,,,,5,4,54,3,,,,,,,,,,,AFSA02.jpg,AFNE20.jpg,AFNE01.jpg,AFSA09.jpg,AFSA02.jpg,FS,4,num_8,32,num_4,0.733547009993,,,2017_Feb_14_1928,60.0065824159,MAFE4ImagesEEG,001,000005,
AFNE01.JPG,AFNE01.JPG,AFNE01.JPG,AFNE01.JPG,AFNE01.JPG,AFNE01.JPG,,,,,,,,,,,,,5,5,55,7,,,,,,,,,,,AFNE18.jpg,AFNE20.jpg,AFSA16.jpg,AFSA11.jpg,AFSA11.jpg,FS,4,num_4,16,num_4,0.683472469915,,,2017_Feb_14_1928,60.0065824159,MAFE4ImagesEEG,001,000005,
AFNE01.JPG,AFNE01.JPG,AFNE01.JPG,AFNE01.JPG,AFNE01.JPG,AFNE01.JPG,,,,,,,,,,,,,5,6,56,4,,,,,,,,,,,AFNE11.jpg,AFSA19.jpg,AFSA09.jpg,AFNE19.jpg,AFSA09.jpg,FS,4,num_2,32,num_4,0.616787136532,,,2017_Feb_14_1928,60.0065824159,MAFE4ImagesEEG,001,000005,
AFNE01.JPG,AFNE01.JPG,AFNE01.JPG,AFNE01.JPG,AFNE01.JPG,AFNE01.JPG,,,,,,,,,,,,,5,7,57,6,,,,,,,,,,,AFNE14.jpg,AFSA05.jpg,AFNE19.jpg,AFSA01.jpg,AFSA01.jpg,FS,4,num_4,32,num_2,0.683474715333,,,2017_Feb_14_1928,60.0065824159,MAFE4ImagesEEG,001,000005,
AFNE01.JPG,AFNE01.JPG,AFNE01.JPG,AFNE01.JPG,AFNE01.JPG,AFNE01.JPG,,,,,,,,,,,,,5,8,58,1,,,,,,,,,,,AFSA14.jpg,AFNE14.jpg,AFSA15.jpg,AFNE17.jpg,AFSA15.jpg,FS,4,num_2,16,num_2,0.550169799477,,,2017_Feb_14_1928,60.0065824159,MAFE4ImagesEEG,001,000005,
AFNE01.JPG,AFNE01.JPG,AFNE01.JPG,AFNE01.JPG,AFNE01.JPG,AFNE01.JPG,,,,,,,,,,,,,5,9,59,0,,,,,,,,,,,AFSA09.jpg,AFSA17.jpg,AFNE16.jpg,AFNE04.jpg,AFSA17.jpg,FS,4,num_6,16,num_6,0.683451622259,,,2017_Feb_14_1928,60.0065824159,MAFE4ImagesEEG,001,000005,
,,,,,,,,,,,,,,,,,,,,,,,,,,,,,,,,,,,,,,,,,,,space,19.965574997,2017_Feb_14_1928,60.0065824159,MAFE4ImagesEEG,001,000005,
AFNE01.JPG,AFNE01.JPG,AFNE01.JPG,AFNE01.JPG,AFNE01.JPG,AFNE01.JPG,,,,,,,,,,,,,,,,,0,0,0,0,,,,,,,AMSA17.jpg,AMSA03.jpg,AMNE19.jpg,AMNE17.jpg,AMSA17.jpg,MS,2,num_8,32,num_6,0.700232408009,,,2017_Feb_14_1928,60.0065824159,MAFE4ImagesEEG,001,000005,
AFNE01.JPG,AFNE01.JPG,AFNE01.JPG,AFNE01.JPG,AFNE01.JPG,AFNE01.JPG,,,,,,,,,,,,,,,,,0,1,1,3,,,,,,,AMNE14.jpg,AMSA12.jpg,AMNE16.jpg,AMSA10.jpg,AMSA10.jpg,MS,2,num_4,16,num_4,1.50007858127,,,2017_Feb_14_1928,60.0065824159,MAFE4ImagesEEG,001,000005,
AFNE01.JPG,AFNE01.JPG,AFNE01.JPG,AFNE01.JPG,AFNE01.JPG,AFNE01.JPG,,,,,,,,,,,,,,,,,0,2,2,6,,,,,,,AMNE03.jpg,AMSA11.jpg,AMSA18.jpg,AMNE06.jpg,AMNE06.jpg,MN,1,num_4,16,num_4,0.633460795507,,,2017_Feb_14_1928,60.0065824159,MAFE4ImagesEEG,001,000005,
AFNE01.JPG,AFNE01.JPG,AFNE01.JPG,AFNE01.JPG,AFNE01.JPG,AFNE01.JPG,,,,,,,,,,,,,,,,,0,3,3,1,,,,,,,AMSA15.jpg,AMSA11.jpg,AMNE14.jpg,AMNE05.jpg,AMSA15.jpg,MS,2,num_8,16,num_8,0.600126306992,,,2017_Feb_14_1928,60.0065824159,MAFE4ImagesEEG,001,000005,
AFNE01.JPG,AFNE01.JPG,AFNE01.JPG,AFNE01.JPG,AFNE01.JPG,AFNE01.JPG,,,,,,,,,,,,,,,,,0,4,4,4,,,,,,,AMNE05.jpg,AMSA11.jpg,AMNE15.jpg,AMSA17.jpg,AMNE15.jpg,MN,1,num_2,16,num_2,1.25006831763,,,2017_Feb_14_1928,60.0065824159,MAFE4ImagesEEG,001,000005,
AFNE01.JPG,AFNE01.JPG,AFNE01.JPG,AFNE01.JPG,AFNE01.JPG,AFNE01.JPG,,,,,,,,,,,,,,,,,0,5,5,8,,,,,,,AMNE10.jpg,AMSA15.jpg,AMNE02.jpg,AMSA02.jpg,AMSA15.jpg,MS,2,num_6,16,num_6,0.600000256673,,,2017_Feb_14_1928,60.0065824159,MAFE4ImagesEEG,001,000005,
AFNE01.JPG,AFNE01.JPG,AFNE01.JPG,AFNE01.JPG,AFNE01.JPG,AFNE01.JPG,,,,,,,,,,,,,,,,,0,6,6,9,,,,,,,AMSA18.jpg,AMSA19.jpg,AMNE03.jpg,AMNE15.jpg,AMSA18.jpg,MS,2,num_8,16,num_8,1.2667329954,,,2017_Feb_14_1928,60.0065824159,MAFE4ImagesEEG,001,000005,
AFNE01.JPG,AFNE01.JPG,AFNE01.JPG,AFNE01.JPG,AFNE01.JPG,AFNE01.JPG,,,,,,,,,,,,,,,,,0,7,7,5,,,,,,,AMNE03.jpg,AMSA04.jpg,AMSA16.jpg,AMNE17.jpg,AMNE17.jpg,MN,1,num_4,32,num_8,2.01693377877,,,2017_Feb_14_1928,60.0065824159,MAFE4ImagesEEG,001,000005,
AFNE01.JPG,AFNE01.JPG,AFNE01.JPG,AFNE01.JPG,AFNE01.JPG,AFNE01.JPG,,,,,,,,,,,,,,,,,0,8,8,2,,,,,,,AMSA03.jpg,AMSA08.jpg,AMNE20.jpg,AMNE09.jpg,AMSA08.jpg,MS,2,num_6,16,num_6,0.850097761489,,,2017_Feb_14_1928,60.0065824159,MAFE4ImagesEEG,001,000005,
AFNE01.JPG,AFNE01.JPG,AFNE01.JPG,AFNE01.JPG,AFNE01.JPG,AFNE01.JPG,,,,,,,,,,,,,,,,,0,9,9,7,,,,,,,AMSA05.jpg,AMNE10.jpg,AMNE20.jpg,AMSA03.jpg,AMSA03.jpg,MS,2,num_4,16,num_4,0.616784249898,,,2017_Feb_14_1928,60.0065824159,MAFE4ImagesEEG,001,000005,
AFNE01.JPG,AFNE01.JPG,AFNE01.JPG,AFNE01.JPG,AFNE01.JPG,AFNE01.JPG,,,,,,,,,,,,,,,,,1,0,10,5,,,,,,,AMSA02.jpg,AMNE08.jpg,AMSA19.jpg,AMNE17.jpg,AMNE17.jpg,MN,1,num_4,16,num_4,0.766857763752,,,2017_Feb_14_1928,60.0065824159,MAFE4ImagesEEG,001,000005,
AFNE01.JPG,AFNE01.JPG,AFNE01.JPG,AFNE01.JPG,AFNE01.JPG,AFNE01.JPG,,,,,,,,,,,,,,,,,1,1,11,7,,,,,,,AMSA14.jpg,AMNE07.jpg,AMNE20.jpg,AMSA06.jpg,AMNE20.jpg,MN,1,num_2,32,num_8,3.0166091905,,,2017_Feb_14_1928,60.0065824159,MAFE4ImagesEEG,001,000005,
AFNE01.JPG,AFNE01.JPG,AFNE01.JPG,AFNE01.JPG,AFNE01.JPG,AFNE01.JPG,,,,,,,,,,,,,,,,,1,2,12,2,,,,,,,AMNE12.jpg,AMNE14.jpg,AMSA05.jpg,AMSA16.jpg,AMNE12.jpg,MN,1,num_8,16,num_8,0.783450596035,,,2017_Feb_14_1928,60.0065824159,MAFE4ImagesEEG,001,000005,
AFNE01.JPG,AFNE01.JPG,AFNE01.JPG,AFNE01.JPG,AFNE01.JPG,AFNE01.JPG,,,,,,,,,,,,,,,,,1,3,13,1,,,,,,,AMSA09.jpg,AMNE19.jpg,AMSA04.jpg,AMNE09.jpg,AMSA09.jpg,MS,2,num_8,16,num_8,0.916753266472,,,2017_Feb_14_1928,60.0065824159,MAFE4ImagesEEG,001,000005,
AFNE01.JPG,AFNE01.JPG,AFNE01.JPG,AFNE01.JPG,AFNE01.JPG,AFNE01.JPG,,,,,,,,,,,,,,,,,1,4,14,0,,,,,,,AMNE05.jpg,AMSA02.jpg,AMNE10.jpg,AMSA06.jpg,AMNE05.jpg,MN,1,num_8,16,num_8,3.0162621499,,,2017_Feb_14_1928,60.0065824159,MAFE4ImagesEEG,001,000005,
AFNE01.JPG,AFNE01.JPG,AFNE01.JPG,AFNE01.JPG,AFNE01.JPG,AFNE01.JPG,,,,,,,,,,,,,,,,,1,5,15,4,,,,,,,AMNE05.jpg,AMNE07.jpg,AMSA06.jpg,AMSA20.jpg,AMSA20.jpg,MS,2,num_4,16,num_4,0.583479270339,,,2017_Feb_14_1928,60.0065824159,MAFE4ImagesEEG,001,000005,
AFNE01.JPG,AFNE01.JPG,AFNE01.JPG,AFNE01.JPG,AFNE01.JPG,AFNE01.JPG,,,,,,,,,,,,,,,,,1,6,16,8,,,,,,,AMNE18.jpg,AMNE04.jpg,AMSA03.jpg,AMSA08.jpg,AMSA03.jpg,MS,2,num_2,16,num_2,1.1500924374,,,2017_Feb_14_1928,60.0065824159,MAFE4ImagesEEG,001,000005,
AFNE01.JPG,AFNE01.JPG,AFNE01.JPG,AFNE01.JPG,AFNE01.JPG,AFNE01.JPG,,,,,,,,,,,,,,,,,1,7,17,3,,,,,,,AMNE11.jpg,AMSA09.jpg,AMSA12.jpg,AMNE09.jpg,AMNE09.jpg,MN,1,num_4,16,num_4,2.16664581886,,,2017_Feb_14_1928,60.0065824159,MAFE4ImagesEEG,001,000005,
AFNE01.JPG,AFNE01.JPG,AFNE01.JPG,AFNE01.JPG,AFNE01.JPG,AFNE01.JPG,,,,,,,,,,,,,,,,,1,8,18,6,,,,,,,AMNE15.jpg,AMSA13.jpg,AMNE16.jpg,AMSA09.jpg,AMNE16.jpg,MN,1,num_2,16,num_2,0.650131567381,,,2017_Feb_14_1928,60.0065824159,MAFE4ImagesEEG,001,000005,
AFNE01.JPG,AFNE01.JPG,AFNE01.JPG,AFNE01.JPG,AFNE01.JPG,AFNE01.JPG,,,,,,,,,,,,,,,,,1,9,19,9,,,,,,,AMNE18.jpg,AMSA15.jpg,AMSA17.jpg,AMNE12.jpg,AMNE12.jpg,MN,1,num_4,16,num_4,0.700112771709,,,2017_Feb_14_1928,60.0065824159,MAFE4ImagesEEG,001,000005,
AFNE01.JPG,AFNE01.JPG,AFNE01.JPG,AFNE01.JPG,AFNE01.JPG,AFNE01.JPG,,,,,,,,,,,,,,,,,2,0,20,7,,,,,,,AMSA08.jpg,AMNE12.jpg,AMSA06.jpg,AMNE14.jpg,AMSA06.jpg,MS,2,num_2,32,num_8,2.33334006881,,,2017_Feb_14_1928,60.0065824159,MAFE4ImagesEEG,001,000005,
AFNE01.JPG,AFNE01.JPG,AFNE01.JPG,AFNE01.JPG,AFNE01.JPG,AFNE01.JPG,,,,,,,,,,,,,,,,,2,1,21,1,,,,,,,AMSA19.jpg,AMSA01.jpg,AMNE12.jpg,AMNE02.jpg,AMSA19.jpg,MS,2,num_8,32,num_6,1.48336579185,,,2017_Feb_14_1928,60.0065824159,MAFE4ImagesEEG,001,000005,
AFNE01.JPG,AFNE01.JPG,AFNE01.JPG,AFNE01.JPG,AFNE01.JPG,AFNE01.JPG,,,,,,,,,,,,,,,,,2,2,22,8,,,,,,,AMSA02.jpg,AMNE11.jpg,AMNE13.jpg,AMSA04.jpg,AMNE13.jpg,MN,1,num_2,16,num_2,0.816755576059,,,2017_Feb_14_1928,60.0065824159,MAFE4ImagesEEG,001,000005,
AFNE01.JPG,AFNE01.JPG,AFNE01.JPG,AFNE01.JPG,AFNE01.JPG,AFNE01.JPG,,,,,,,,,,,,,,,,,2,3,23,6,,,,,,,AMNE11.jpg,AMSA03.jpg,AMSA05.jpg,AMNE15.jpg,AMNE15.jpg,MN,1,num_4,16,num_4,0.683453546837,,,2017_Feb_14_1928,60.0065824159,MAFE4ImagesEEG,001,000005,
AFNE01.JPG,AFNE01.JPG,AFNE01.JPG,AFNE01.JPG,AFNE01.JPG,AFNE01.JPG,,,,,,,,,,,,,,,,,2,4,24,0,,,,,,,AMSA19.jpg,AMNE20.jpg,AMSA12.jpg,AMNE03.jpg,AMSA12.jpg,MS,2,num_2,16,num_2,1.60004067002,,,2017_Feb_14_1928,60.0065824159,MAFE4ImagesEEG,001,000005,
AFNE01.JPG,AFNE01.JPG,AFNE01.JPG,AFNE01.JPG,AFNE01.JPG,AFNE01.JPG,,,,,,,,,,,,,,,,,2,5,25,5,,,,,,,AMNE09.jpg,AMSA12.jpg,AMNE12.jpg,AMSA02.jpg,AMSA12.jpg,MS,2,num_6,16,num_6,2.40000808286,,,2017_Feb_14_1928,60.0065824159,MAFE4ImagesEEG,001,000005,
AFNE01.JPG,AFNE01.JPG,AFNE01.JPG,AFNE01.JPG,AFNE01.JPG,AFNE01.JPG,,,,,,,,,,,,,,,,,2,6,26,9,,,,,,,AMNE13.jpg,AMSA17.jpg,AMSA19.jpg,AMNE17.jpg,AMNE13.jpg,MN,1,num_8,16,num_8,2.56666224077,,,2017_Feb_14_1928,60.0065824159,MAFE4ImagesEEG,001,000005,
AFNE01.JPG,AFNE01.JPG,AFNE01.JPG,AFNE01.JPG,AFNE01.JPG,AFNE01.JPG,,,,,,,,,,,,,,,,,2,7,27,4,,,,,,,AMSA13.jpg,AMNE17.jpg,AMSA19.jpg,AMNE19.jpg,AMNE17.jpg,MN,1,num_6,16,num_6,0.85015774006,,,2017_Feb_14_1928,60.0065824159,MAFE4ImagesEEG,001,000005,
AFNE01.JPG,AFNE01.JPG,AFNE01.JPG,AFNE01.JPG,AFNE01.JPG,AFNE01.JPG,,,,,,,,,,,,,,,,,2,8,28,2,,,,,,,AMNE08.jpg,AMSA02.jpg,AMSA19.jpg,AMNE16.jpg,AMSA02.jpg,MS,2,num_6,32,num_2,0.683495563455,,,2017_Feb_14_1928,60.0065824159,MAFE4ImagesEEG,001,000005,
AFNE01.JPG,AFNE01.JPG,AFNE01.JPG,AFNE01.JPG,AFNE01.JPG,AFNE01.JPG,,,,,,,,,,,,,,,,,2,9,29,3,,,,,,,AMNE18.jpg,AMSA13.jpg,AMSA06.jpg,AMNE04.jpg,AMSA06.jpg,MS,2,num_2,16,num_2,1.75007633585,,,2017_Feb_14_1928,60.0065824159,MAFE4ImagesEEG,001,000005,
AFNE01.JPG,AFNE01.JPG,AFNE01.JPG,AFNE01.JPG,AFNE01.JPG,AFNE01.JPG,,,,,,,,,,,,,,,,,3,0,30,3,,,,,,,AMSA02.jpg,AMNE13.jpg,AMNE04.jpg,AMSA17.jpg,AMSA17.jpg,MS,2,num_4,16,num_4,0.88353264099,,,2017_Feb_14_1928,60.0065824159,MAFE4ImagesEEG,001,000005,
AFNE01.JPG,AFNE01.JPG,AFNE01.JPG,AFNE01.JPG,AFNE01.JPG,AFNE01.JPG,,,,,,,,,,,,,,,,,3,1,31,0,,,,,,,AMSA12.jpg,AMNE10.jpg,AMSA10.jpg,AMNE01.jpg,AMNE01.jpg,MN,1,num_4,16,num_4,1.15031086095,,,2017_Feb_14_1928,60.0065824159,MAFE4ImagesEEG,001,000005,
AFNE01.JPG,AFNE01.JPG,AFNE01.JPG,AFNE01.JPG,AFNE01.JPG,AFNE01.JPG,,,,,,,,,,,,,,,,,3,2,32,4,,,,,,,AMNE12.jpg,AMSA17.jpg,AMSA03.jpg,AMNE15.jpg,AMSA03.jpg,MS,2,num_2,32,num_6,0.866782967001,,,2017_Feb_14_1928,60.0065824159,MAFE4ImagesEEG,001,000005,
AFNE01.JPG,AFNE01.JPG,AFNE01.JPG,AFNE01.JPG,AFNE01.JPG,AFNE01.JPG,,,,,,,,,,,,,,,,,3,3,33,2,,,,,,,AMSA11.jpg,AMNE12.jpg,AMSA19.jpg,AMNE14.jpg,AMSA11.jpg,MS,2,num_8,32,num_2,1.21671971725,,,2017_Feb_14_1928,60.0065824159,MAFE4ImagesEEG,001,000005,
AFNE01.JPG,AFNE01.JPG,AFNE01.JPG,AFNE01.JPG,AFNE01.JPG,AFNE01.JPG,,,,,,,,,,,,,,,,,3,4,34,9,,,,,,,AMNE09.jpg,AMSA09.jpg,AMSA19.jpg,AMNE07.jpg,AMSA19.jpg,MS,2,num_2,32,num_6,1.60029565776,,,2017_Feb_14_1928,60.0065824159,MAFE4ImagesEEG,001,000005,
AFNE01.JPG,AFNE01.JPG,AFNE01.JPG,AFNE01.JPG,AFNE01.JPG,AFNE01.JPG,,,,,,,,,,,,,,,,,3,5,35,6,,,,,,,AMSA11.jpg,AMNE04.jpg,AMSA17.jpg,AMNE20.jpg,AMNE20.jpg,MN,1,num_4,32,num_2,0.783574081026,,,2017_Feb_14_1928,60.0065824159,MAFE4ImagesEEG,001,000005,
AFNE01.JPG,AFNE01.JPG,AFNE01.JPG,AFNE01.JPG,AFNE01.JPG,AFNE01.JPG,,,,,,,,,,,,,,,,,3,6,36,5,,,,,,,AMSA13.jpg,AMNE12.jpg,AMNE07.jpg,AMSA04.jpg,AMSA13.jpg,MS,2,num_8,16,num_8,1.45006241603,,,2017_Feb_14_1928,60.0065824159,MAFE4ImagesEEG,001,000005,
AFNE01.JPG,AFNE01.JPG,AFNE01.JPG,AFNE01.JPG,AFNE01.JPG,AFNE01.JPG,,,,,,,,,,,,,,,,,3,7,37,8,,,,,,,AMNE01.jpg,AMNE07.jpg,AMSA01.jpg,AMSA08.jpg,AMSA08.jpg,MS,2,num_4,16,num_4,1.38341941964,,,2017_Feb_14_1928,60.0065824159,MAFE4ImagesEEG,001,000005,
AFNE01.JPG,AFNE01.JPG,AFNE01.JPG,AFNE01.JPG,AFNE01.JPG,AFNE01.JPG,,,,,,,,,,,,,,,,,3,8,38,1,,,,,,,AMSA08.jpg,AMNE13.jpg,AMSA05.jpg,AMNE06.jpg,AMSA08.jpg,MS,2,num_8,16,num_8,1.23344276985,,,2017_Feb_14_1928,60.0065824159,MAFE4ImagesEEG,001,000005,
AFNE01.JPG,AFNE01.JPG,AFNE01.JPG,AFNE01.JPG,AFNE01.JPG,AFNE01.JPG,,,,,,,,,,,,,,,,,3,9,39,7,,,,,,,AMSA07.jpg,AMSA09.jpg,AMNE02.jpg,AMNE20.jpg,AMNE02.jpg,MN,1,num_2,16,num_2,2.61679932429,,,2017_Feb_14_1928,60.0065824159,MAFE4ImagesEEG,001,000005,
AFNE01.JPG,AFNE01.JPG,AFNE01.JPG,AFNE01.JPG,AFNE01.JPG,AFNE01.JPG,,,,,,,,,,,,,,,,,4,0,40,7,,,,,,,AMNE06.jpg,AMSA16.jpg,AMSA13.jpg,AMNE07.jpg,AMSA13.jpg,MS,2,num_2,16,num_2,0.766735882498,,,2017_Feb_14_1928,60.0065824159,MAFE4ImagesEEG,001,000005,
AFNE01.JPG,AFNE01.JPG,AFNE01.JPG,AFNE01.JPG,AFNE01.JPG,AFNE01.JPG,,,,,,,,,,,,,,,,,4,1,41,0,,,,,,,AMSA19.jpg,AMNE14.jpg,AMNE18.jpg,AMSA07.jpg,AMSA19.jpg,MS,2,num_8,32,num_4,0.933425962925,,,2017_Feb_14_1928,60.0065824159,MAFE4ImagesEEG,001,000005,
AFNE01.JPG,AFNE01.JPG,AFNE01.JPG,AFNE01.JPG,AFNE01.JPG,AFNE01.JPG,,,,,,,,,,,,,,,,,4,2,42,3,,,,,,,AMSA03.jpg,AMSA13.jpg,AMNE18.jpg,AMNE14.jpg,AMNE14.jpg,MN,1,num_4,16,num_4,0.683488827664,,,2017_Feb_14_1928,60.0065824159,MAFE4ImagesEEG,001,000005,
AFNE01.JPG,AFNE01.JPG,AFNE01.JPG,AFNE01.JPG,AFNE01.JPG,AFNE01.JPG,,,,,,,,,,,,,,,,,4,3,43,6,,,,,,,AMSA18.jpg,AMNE03.jpg,AMSA05.jpg,AMNE17.jpg,AMNE03.jpg,MN,1,num_6,32,num_4,0.933474074118,,,2017_Feb_14_1928,60.0065824159,MAFE4ImagesEEG,001,000005,
AFNE01.JPG,AFNE01.JPG,AFNE01.JPG,AFNE01.JPG,AFNE01.JPG,AFNE01.JPG,,,,,,,,,,,,,,,,,4,4,44,1,,,,,,,AMNE13.jpg,AMSA17.jpg,AMNE01.jpg,AMSA07.jpg,AMSA17.jpg,MS,2,num_6,16,num_6,0.6834391132,,,2017_Feb_14_1928,60.0065824159,MAFE4ImagesEEG,001,000005,
AFNE01.JPG,AFNE01.JPG,AFNE01.JPG,AFNE01.JPG,AFNE01.JPG,AFNE01.JPG,,,,,,,,,,,,,,,,,4,5,45,8,,,,,,,AMNE10.jpg,AMSA01.jpg,AMNE18.jpg,AMSA10.jpg,AMNE18.jpg,MN,1,num_2,16,num_2,1.0334162768,,,2017_Feb_14_1928,60.0065824159,MAFE4ImagesEEG,001,000005,
AFNE01.JPG,AFNE01.JPG,AFNE01.JPG,AFNE01.JPG,AFNE01.JPG,AFNE01.JPG,,,,,,,,,,,,,,,,,4,6,46,2,,,,,,,AMNE01.jpg,AMNE16.jpg,AMSA06.jpg,AMSA15.jpg,AMNE16.jpg,MN,1,num_6,32,num_8,1.86668931134,,,2017_Feb_14_1928,60.0065824159,MAFE4ImagesEEG,001,000005,
AFNE01.JPG,AFNE01.JPG,AFNE01.JPG,AFNE01.JPG,AFNE01.JPG,AFNE01.JPG,,,,,,,,,,,,,,,,,4,7,47,9,,,,,,,AMSA02.jpg,AMNE16.jpg,AMSA09.jpg,AMNE01.jpg,AMNE01.jpg,MN,1,num_4,16,num_4,0.766808369663,,,2017_Feb_14_1928,60.0065824159,MAFE4ImagesEEG,001,000005,
AFNE01.JPG,AFNE01.JPG,AFNE01.JPG,AFNE01.JPG,AFNE01.JPG,AFNE01.JPG,,,,,,,,,,,,,,,,,4,8,48,5,,,,,,,AMSA18.jpg,AMNE19.jpg,AMSA14.jpg,AMNE18.jpg,AMNE19.jpg,MN,1,num_6,32,num_4,0.783463746309,,,2017_Feb_14_1928,60.0065824159,MAFE4ImagesEEG,001,000005,
AFNE01.JPG,AFNE01.JPG,AFNE01.JPG,AFNE01.JPG,AFNE01.JPG,AFNE01.JPG,,,,,,,,,,,,,,,,,4,9,49,4,,,,,,,AMSA16.jpg,AMNE19.jpg,AMNE02.jpg,AMSA11.jpg,AMNE19.jpg,MN,1,num_6,16,num_6,0.783491008915,,,2017_Feb_14_1928,60.0065824159,MAFE4ImagesEEG,001,000005,
AFNE01.JPG,AFNE01.JPG,AFNE01.JPG,AFNE01.JPG,AFNE01.JPG,AFNE01.JPG,,,,,,,,,,,,,,,,,5,0,50,1,,,,,,,AMNE19.jpg,AMSA19.jpg,AMNE08.jpg,AMSA11.jpg,AMNE08.jpg,MN,1,num_2,16,num_2,1.86674447823,,,2017_Feb_14_1928,60.0065824159,MAFE4ImagesEEG,001,000005,
AFNE01.JPG,AFNE01.JPG,AFNE01.JPG,AFNE01.JPG,AFNE01.JPG,AFNE01.JPG,,,,,,,,,,,,,,,,,5,1,51,0,,,,,,,AMNE08.jpg,AMNE15.jpg,AMSA20.jpg,AMSA11.jpg,AMNE15.jpg,MN,1,num_6,16,num_6,0.783429427072,,,2017_Feb_14_1928,60.0065824159,MAFE4ImagesEEG,001,000005,
AFNE01.JPG,AFNE01.JPG,AFNE01.JPG,AFNE01.JPG,AFNE01.JPG,AFNE01.JPG,,,,,,,,,,,,,,,,,5,2,52,8,,,,,,,AMNE10.jpg,AMSA14.jpg,AMNE09.jpg,AMSA12.jpg,AMSA12.jpg,MS,2,num_4,16,num_4,0.916727607604,,,2017_Feb_14_1928,60.0065824159,MAFE4ImagesEEG,001,000005,
AFNE01.JPG,AFNE01.JPG,AFNE01.JPG,AFNE01.JPG,AFNE01.JPG,AFNE01.JPG,,,,,,,,,,,,,,,,,5,3,53,3,,,,,,,AMNE16.jpg,AMNE10.jpg,AMSA05.jpg,AMSA10.jpg,AMNE16.jpg,MN,1,num_8,16,num_8,0.616781684104,,,2017_Feb_14_1928,60.0065824159,MAFE4ImagesEEG,001,000005,
AFNE01.JPG,AFNE01.JPG,AFNE01.JPG,AFNE01.JPG,AFNE01.JPG,AFNE01.JPG,,,,,,,,,,,,,,,,,5,4,54,4,,,,,,,AMSA15.jpg,AMNE02.jpg,AMSA19.jpg,AMNE03.jpg,AMSA19.jpg,MS,2,num_2,32,num_6,1.93342403835,,,2017_Feb_14_1928,60.0065824159,MAFE4ImagesEEG,001,000005,
AFNE01.JPG,AFNE01.JPG,AFNE01.JPG,AFNE01.JPG,AFNE01.JPG,AFNE01.JPG,,,,,,,,,,,,,,,,,5,5,55,6,,,,,,,AMSA16.jpg,AMNE08.jpg,AMSA19.jpg,AMNE11.jpg,AMSA16.jpg,MS,2,num_8,32,num_2,3.01662169863,,,2017_Feb_14_1928,60.0065824159,MAFE4ImagesEEG,001,000005,
AFNE01.JPG,AFNE01.JPG,AFNE01.JPG,AFNE01.JPG,AFNE01.JPG,AFNE01.JPG,,,,,,,,,,,,,,,,,5,6,56,7,,,,,,,AMSA05.jpg,AMNE11.jpg,AMSA11.jpg,AMNE01.jpg,AMNE11.jpg,MN,1,num_6,32,num_2,1.83338272711,,,2017_Feb_14_1928,60.0065824159,MAFE4ImagesEEG,001,000005,
AFNE01.JPG,AFNE01.JPG,AFNE01.JPG,AFNE01.JPG,AFNE01.JPG,AFNE01.JPG,,,,,,,,,,,,,,,,,5,7,57,5,,,,,,,AMNE05.jpg,AMNE04.jpg,AMSA01.jpg,AMSA13.jpg,AMSA13.jpg,MS,2,num_4,16,num_4,0.733281758148,,,2017_Feb_14_1928,60.0065824159,MAFE4ImagesEEG,001,000005,
AFNE01.JPG,AFNE01.JPG,AFNE01.JPG,AFNE01.JPG,AFNE01.JPG,AFNE01.JPG,,,,,,,,,,,,,,,,,5,8,58,2,,,,,,,AMNE12.jpg,AMSA03.jpg,AMNE07.jpg,AMSA01.jpg,AMSA01.jpg,MS,2,num_4,16,num_4,1.53369339556,,,2017_Feb_14_1928,60.0065824159,MAFE4ImagesEEG,001,000005,
AFNE01.JPG,AFNE01.JPG,AFNE01.JPG,AFNE01.JPG,AFNE01.JPG,AFNE01.JPG,,,,,,,,,,,,,,,,,5,9,59,9,,,,,,,AMSA05.jpg,AMSA20.jpg,AMNE04.jpg,AMNE08.jpg,AMNE08.jpg,MN,1,num_4,16,num_4,0.600146834739,,,2017_Feb_14_1928,60.0065824159,MAFE4ImagesEEG,001,000005,
,,,,,,,,,,,,,,,,,,,,,,,,,,,,,,,,,,,,,,,,,,,space,30.9145244453,2017_Feb_14_1928,60.0065824159,MAFE4ImagesEEG,001,000005,
AFNE01.JPG,AFNE01.JPG,AFNE01.JPG,AFNE01.JPG,AFNE01.JPG,AFNE01.JPG,,,,,,,,,,,,,,,,,,,,,0,0,0,8,,,AFSA15.jpg,AFSA10.jpg,AFNE09.jpg,AFNE05.jpg,AFSA10.jpg,FS,4,num_6,16,num_6,1.76657326752,,,2017_Feb_14_1928,60.0065824159,MAFE4ImagesEEG,001,000005,
AFNE01.JPG,AFNE01.JPG,AFNE01.JPG,AFNE01.JPG,AFNE01.JPG,AFNE01.JPG,,,,,,,,,,,,,,,,,,,,,0,1,1,2,,,AFSA14.jpg,AFSA19.jpg,AFNE16.jpg,AFNE05.jpg,AFNE16.jpg,FN,3,num_2,16,num_2,0.666793038137,,,2017_Feb_14_1928,60.0065824159,MAFE4ImagesEEG,001,000005,
AFNE01.JPG,AFNE01.JPG,AFNE01.JPG,AFNE01.JPG,AFNE01.JPG,AFNE01.JPG,,,,,,,,,,,,,,,,,,,,,0,2,2,0,,,AFSA10.jpg,AFSA18.jpg,AFNE07.jpg,AFNE17.jpg,AFSA18.jpg,FS,4,num_6,16,num_6,0.716773601249,,,2017_Feb_14_1928,60.0065824159,MAFE4ImagesEEG,001,000005,
AFNE01.JPG,AFNE01.JPG,AFNE01.JPG,AFNE01.JPG,AFNE01.JPG,AFNE01.JPG,,,,,,,,,,,,,,,,,,,,,0,3,3,3,,,AFSA14.jpg,AFSA16.jpg,AFNE04.jpg,AFNE08.jpg,AFNE04.jpg,FN,3,num_2,16,num_2,0.950385401025,,,2017_Feb_14_1928,60.0065824159,MAFE4ImagesEEG,001,000005,
AFNE01.JPG,AFNE01.JPG,AFNE01.JPG,AFNE01.JPG,AFNE01.JPG,AFNE01.JPG,,,,,,,,,,,,,,,,,,,,,0,4,4,7,,,AFNE14.jpg,AFNE11.jpg,AFSA02.jpg,AFSA20.jpg,AFNE11.jpg,FN,3,num_6,16,num_6,0.650129322428,,,2017_Feb_14_1928,60.0065824159,MAFE4ImagesEEG,001,000005,
AFNE01.JPG,AFNE01.JPG,AFNE01.JPG,AFNE01.JPG,AFNE01.JPG,AFNE01.JPG,,,,,,,,,,,,,,,,,,,,,0,5,5,6,,,AFSA10.jpg,AFNE20.jpg,AFNE10.jpg,AFSA17.jpg,AFSA10.jpg,FS,4,num_8,16,num_8,1.61669348041,,,2017_Feb_14_1928,60.0065824159,MAFE4ImagesEEG,001,000005,
AFNE01.JPG,AFNE01.JPG,AFNE01.JPG,AFNE01.JPG,AFNE01.JPG,AFNE01.JPG,,,,,,,,,,,,,,,,,,,,,0,6,6,9,,,AFSA16.jpg,AFSA14.jpg,AFNE08.jpg,AFNE01.jpg,AFNE01.jpg,FN,3,num_4,32,num_6,1.25009814603,,,2017_Feb_14_1928,60.0065824159,MAFE4ImagesEEG,001,000005,
AFNE01.JPG,AFNE01.JPG,AFNE01.JPG,AFNE01.JPG,AFNE01.JPG,AFNE01.JPG,,,,,,,,,,,,,,,,,,,,,0,7,7,5,,,AFSA08.jpg,AFNE06.jpg,AFNE03.jpg,AFSA04.jpg,AFNE03.jpg,FN,3,num_2,32,num_8,1.80011270801,,,2017_Feb_14_1928,60.0065824159,MAFE4ImagesEEG,001,000005,
AFNE01.JPG,AFNE01.JPG,AFNE01.JPG,AFNE01.JPG,AFNE01.JPG,AFNE01.JPG,,,,,,,,,,,,,,,,,,,,,0,8,8,1,,,AFNE09.jpg,AFSA19.jpg,AFNE10.jpg,AFSA14.jpg,AFNE09.jpg,FN,3,num_8,32,num_2,1.01674229698,,,2017_Feb_14_1928,60.0065824159,MAFE4ImagesEEG,001,000005,
AFNE01.JPG,AFNE01.JPG,AFNE01.JPG,AFNE01.JPG,AFNE01.JPG,AFNE01.JPG,,,,,,,,,,,,,,,,,,,,,0,9,9,4,,,AFNE15.jpg,AFSA15.jpg,AFSA11.jpg,AFNE12.jpg,AFSA15.jpg,FS,4,num_6,16,num_6,0.75011899462,,,2017_Feb_14_1928,60.0065824159,MAFE4ImagesEEG,001,000005,
AFNE01.JPG,AFNE01.JPG,AFNE01.JPG,AFNE01.JPG,AFNE01.JPG,AFNE01.JPG,,,,,,,,,,,,,,,,,,,,,1,0,10,4,,,AFSA03.jpg,AFNE15.jpg,AFSA17.jpg,AFNE20.jpg,AFSA17.jpg,FS,4,num_2,16,num_2,0.916616310831,,,2017_Feb_14_1928,60.0065824159,MAFE4ImagesEEG,001,000005,
AFNE01.JPG,AFNE01.JPG,AFNE01.JPG,AFNE01.JPG,AFNE01.JPG,AFNE01.JPG,,,,,,,,,,,,,,,,,,,,,1,1,11,8,,,AFSA20.jpg,AFSA19.jpg,AFNE12.jpg,AFNE14.jpg,AFNE14.jpg,FN,3,num_4,32,num_8,1.71673382958,,,2017_Feb_14_1928,60.0065824159,MAFE4ImagesEEG,001,000005,
AFNE01.JPG,AFNE01.JPG,AFNE01.JPG,AFNE01.JPG,AFNE01.JPG,AFNE01.JPG,,,,,,,,,,,,,,,,,,,,,1,2,12,6,,,AFSA19.jpg,AFNE17.jpg,AFNE19.jpg,AFSA14.jpg,AFNE19.jpg,FN,3,num_2,32,num_8,1.53340120194,,,2017_Feb_14_1928,60.0065824159,MAFE4ImagesEEG,001,000005,
AFNE01.JPG,AFNE01.JPG,AFNE01.JPG,AFNE01.JPG,AFNE01.JPG,AFNE01.JPG,,,,,,,,,,,,,,,,,,,,,1,3,13,0,,,AFNE01.jpg,AFSA04.jpg,AFSA11.jpg,AFNE11.jpg,AFSA04.jpg,FS,4,num_6,32,num_2,0.950396305881,,,2017_Feb_14_1928,60.0065824159,MAFE4ImagesEEG,001,000005,
AFNE01.JPG,AFNE01.JPG,AFNE01.JPG,AFNE01.JPG,AFNE01.JPG,AFNE01.JPG,,,,,,,,,,,,,,,,,,,,,1,4,14,7,,,AFSA05.jpg,AFNE19.jpg,AFNE11.jpg,AFSA19.jpg,AFNE11.jpg,FN,3,num_2,16,num_2,2.10000218078,,,2017_Feb_14_1928,60.0065824159,MAFE4ImagesEEG,001,000005,
AFNE01.JPG,AFNE01.JPG,AFNE01.JPG,AFNE01.JPG,AFNE01.JPG,AFNE01.JPG,,,,,,,,,,,,,,,,,,,,,1,5,15,3,,,AFSA17.jpg,AFSA12.jpg,AFNE13.jpg,AFNE18.jpg,AFNE18.jpg,FN,3,num_4,16,num_4,0.700102187693,,,2017_Feb_14_1928,60.0065824159,MAFE4ImagesEEG,001,000005,
AFNE01.JPG,AFNE01.JPG,AFNE01.JPG,AFNE01.JPG,AFNE01.JPG,AFNE01.JPG,,,,,,,,,,,,,,,,,,,,,1,6,16,5,,,AFNE12.jpg,AFSA11.jpg,AFNE17.jpg,AFSA09.jpg,AFNE12.jpg,FN,3,num_8,16,num_8,1.71669854829,,,2017_Feb_14_1928,60.0065824159,MAFE4ImagesEEG,001,000005,
AFNE01.JPG,AFNE01.JPG,AFNE01.JPG,AFNE01.JPG,AFNE01.JPG,AFNE01.JPG,,,,,,,,,,,,,,,,,,,,,1,7,17,2,,,AFSA19.jpg,AFNE01.jpg,AFNE05.jpg,AFSA12.jpg,AFNE01.jpg,FN,3,num_6,16,num_6,0.866787136532,,,2017_Feb_14_1928,60.0065824159,MAFE4ImagesEEG,001,000005,
AFNE01.JPG,AFNE01.JPG,AFNE01.JPG,AFNE01.JPG,AFNE01.JPG,AFNE01.JPG,,,,,,,,,,,,,,,,,,,,,1,8,18,9,,,AFNE19.jpg,AFNE06.jpg,AFSA09.jpg,AFSA02.jpg,AFSA02.jpg,FS,4,num_4,16,num_4,0.700136827305,,,2017_Feb_14_1928,60.0065824159,MAFE4ImagesEEG,001,000005,
AFNE01.JPG,AFNE01.JPG,AFNE01.JPG,AFNE01.JPG,AFNE01.JPG,AFNE01.JPG,,,,,,,,,,,,,,,,,,,,,1,9,19,1,,,AFSA13.jpg,AFNE13.jpg,AFNE15.jpg,AFSA06.jpg,AFSA06.jpg,FS,4,num_4,32,num_8,0.666961747222,,,2017_Feb_14_1928,60.0065824159,MAFE4ImagesEEG,001,000005,
AFNE01.JPG,AFNE01.JPG,AFNE01.JPG,AFNE01.JPG,AFNE01.JPG,AFNE01.JPG,,,,,,,,,,,,,,,,,,,,,2,0,20,9,,,AFNE16.jpg,AFNE07.jpg,AFSA06.jpg,AFSA02.jpg,AFSA06.jpg,FS,4,num_2,32,num_4,1.10008076252,,,2017_Feb_14_1928,60.0065824159,MAFE4ImagesEEG,001,000005,
AFNE01.JPG,AFNE01.JPG,AFNE01.JPG,AFNE01.JPG,AFNE01.JPG,AFNE01.JPG,,,,,,,,,,,,,,,,,,,,,2,1,21,3,,,AFSA08.jpg,AFNE11.jpg,AFNE12.jpg,AFSA09.jpg,AFSA09.jpg,FS,4,num_4,32,num_6,0.667071119882,,,2017_Feb_14_1928,60.0065824159,MAFE4ImagesEEG,001,000005,
AFNE01.JPG,AFNE01.JPG,AFNE01.JPG,AFNE01.JPG,AFNE01.JPG,AFNE01.JPG,,,,,,,,,,,,,,,,,,,,,2,2,22,1,,,AFNE05.jpg,AFSA08.jpg,AFSA04.jpg,AFNE06.jpg,AFSA08.jpg,FS,4,num_6,16,num_6,0.516762503423,,,2017_Feb_14_1928,60.0065824159,MAFE4ImagesEEG,001,000005,
AFNE01.JPG,AFNE01.JPG,AFNE01.JPG,AFNE01.JPG,AFNE01.JPG,AFNE01.JPG,,,,,,,,,,,,,,,,,,,,,2,3,23,5,,,AFSA11.jpg,AFNE01.jpg,AFNE06.jpg,AFSA01.jpg,AFSA01.jpg,FS,4,num_4,16,num_4,0.483472277876,,,2017_Feb_14_1928,60.0065824159,MAFE4ImagesEEG,001,000005,
AFNE01.JPG,AFNE01.JPG,AFNE01.JPG,AFNE01.JPG,AFNE01.JPG,AFNE01.JPG,,,,,,,,,,,,,,,,,,,,,2,4,24,8,,,AFSA15.jpg,AFSA18.jpg,AFNE02.jpg,AFNE12.jpg,AFNE12.jpg,FN,3,num_4,16,num_4,0.600132401567,,,2017_Feb_14_1928,60.0065824159,MAFE4ImagesEEG,001,000005,
AFNE01.JPG,AFNE01.JPG,AFNE01.JPG,AFNE01.JPG,AFNE01.JPG,AFNE01.JPG,,,,,,,,,,,,,,,,,,,,,2,5,25,6,,,AFSA17.jpg,AFNE12.jpg,AFSA09.jpg,AFNE11.jpg,AFSA17.jpg,FS,4,num_8,32,num_4,1.7000553594,,,2017_Feb_14_1928,60.0065824159,MAFE4ImagesEEG,001,000005,
AFNE01.JPG,AFNE01.JPG,AFNE01.JPG,AFNE01.JPG,AFNE01.JPG,AFNE01.JPG,,,,,,,,,,,,,,,,,,,,,2,6,26,2,,,AFSA15.jpg,AFNE02.jpg,AFSA05.jpg,AFNE17.jpg,AFSA05.jpg,FS,4,num_2,16,num_2,1.13348645484,,,2017_Feb_14_1928,60.0065824159,MAFE4ImagesEEG,001,000005,
AFNE01.JPG,AFNE01.JPG,AFNE01.JPG,AFNE01.JPG,AFNE01.JPG,AFNE01.JPG,,,,,,,,,,,,,,,,,,,,,2,7,27,7,,,AFNE04.jpg,AFSA16.jpg,AFSA01.jpg,AFNE01.jpg,AFSA01.jpg,FS,4,num_2,32,num_6,0.866752817295,,,2017_Feb_14_1928,60.0065824159,MAFE4ImagesEEG,001,000005,
AFNE01.JPG,AFNE01.JPG,AFNE01.JPG,AFNE01.JPG,AFNE01.JPG,AFNE01.JPG,,,,,,,,,,,,,,,,,,,,,2,8,28,4,,,AFSA05.jpg,AFSA07.jpg,AFNE06.jpg,AFNE20.jpg,AFNE06.jpg,FN,3,num_2,32,num_4,0.950133620296,,,2017_Feb_14_1928,60.0065824159,MAFE4ImagesEEG,001,000005,
AFNE01.JPG,AFNE01.JPG,AFNE01.JPG,AFNE01.JPG,AFNE01.JPG,AFNE01.JPG,,,,,,,,,,,,,,,,,,,,,2,9,29,0,,,AFSA16.jpg,AFNE06.jpg,AFSA13.jpg,AFNE18.jpg,AFNE06.jpg,FN,3,num_6,16,num_6,2.98326989077,,,2017_Feb_14_1928,60.0065824159,MAFE4ImagesEEG,001,000005,
AFNE01.JPG,AFNE01.JPG,AFNE01.JPG,AFNE01.JPG,AFNE01.JPG,AFNE01.JPG,,,,,,,,,,,,,,,,,,,,,3,0,30,8,,,AFNE04.jpg,AFSA13.jpg,AFNE06.jpg,AFSA11.jpg,AFSA11.jpg,FS,4,num_4,16,num_4,0.700270896778,,,2017_Feb_14_1928,60.0065824159,MAFE4ImagesEEG,001,000005,
AFNE01.JPG,AFNE01.JPG,AFNE01.JPG,AFNE01.JPG,AFNE01.JPG,AFNE01.JPG,,,,,,,,,,,,,,,,,,,,,3,1,31,3,,,AFSA17.jpg,AFNE17.jpg,AFSA03.jpg,AFNE09.jpg,AFNE09.jpg,FN,3,num_4,16,num_4,0.566774819978,,,2017_Feb_14_1928,60.0065824159,MAFE4ImagesEEG,001,000005,
AFNE01.JPG,AFNE01.JPG,AFNE01.JPG,AFNE01.JPG,AFNE01.JPG,AFNE01.JPG,,,,,,,,,,,,,,,,,,,,,3,2,32,2,,,AFNE08.jpg,AFNE11.jpg,AFSA04.jpg,AFSA18.jpg,AFNE08.jpg,FN,3,num_8,16,num_8,0.833448478952,,,2017_Feb_14_1928,60.0065824159,MAFE4ImagesEEG,001,000005,
AFNE01.JPG,AFNE01.JPG,AFNE01.JPG,AFNE01.JPG,AFNE01.JPG,AFNE01.JPG,,,,,,,,,,,,,,,,,,,,,3,3,33,4,,,AFSA03.jpg,AFSA16.jpg,AFNE14.jpg,AFNE03.jpg,AFSA03.jpg,FS,4,num_8,32,num_6,1.15009179572,,,2017_Feb_14_1928,60.0065824159,MAFE4ImagesEEG,001,000005,
AFNE01.JPG,AFNE01.JPG,AFNE01.JPG,AFNE01.JPG,AFNE01.JPG,AFNE01.JPG,,,,,,,,,,,,,,,,,,,,,3,4,34,1,,,AFNE19.jpg,AFNE13.jpg,AFSA11.jpg,AFSA03.jpg,AFSA11.jpg,FS,4,num_2,16,num_2,0.583469006233,,,2017_Feb_14_1928,60.0065824159,MAFE4ImagesEEG,001,000005,
AFNE01.JPG,AFNE01.JPG,AFNE01.JPG,AFNE01.JPG,AFNE01.JPG,AFNE01.JPG,,,,,,,,,,,,,,,,,,,,,3,5,35,0,,,AFNE04.jpg,AFSA06.jpg,AFSA16.jpg,AFNE13.jpg,AFSA06.jpg,FS,4,num_6,32,num_2,0.800110783428,,,2017_Feb_14_1928,60.0065824159,MAFE4ImagesEEG,001,000005,
AFNE01.JPG,AFNE01.JPG,AFNE01.JPG,AFNE01.JPG,AFNE01.JPG,AFNE01.JPG,,,,,,,,,,,,,,,,,,,,,3,6,36,5,,,AFSA17.jpg,AFSA10.jpg,AFNE10.jpg,AFNE13.jpg,AFNE10.jpg,FN,3,num_2,16,num_2,0.850119251292,,,2017_Feb_14_1928,60.0065824159,MAFE4ImagesEEG,001,000005,
AFNE01.JPG,AFNE01.JPG,AFNE01.JPG,AFNE01.JPG,AFNE01.JPG,AFNE01.JPG,,,,,,,,,,,,,,,,,,,,,3,7,37,6,,,AFSA11.jpg,AFSA16.jpg,AFNE06.jpg,AFNE08.jpg,AFSA16.jpg,FS,4,num_6,16,num_6,0.733459448442,,,2017_Feb_14_1928,60.0065824159,MAFE4ImagesEEG,001,000005,
AFNE01.JPG,AFNE01.JPG,AFNE01.JPG,AFNE01.JPG,AFNE01.JPG,AFNE01.JPG,,,,,,,,,,,,,,,,,,,,,3,8,38,9,,,AFNE17.jpg,AFSA11.jpg,AFNE01.jpg,AFSA14.jpg,AFSA14.jpg,FS,4,num_4,16,num_4,1.58335514367,,,2017_Feb_14_1928,60.0065824159,MAFE4ImagesEEG,001,000005,
