IPosition2,IPosition3,IPosition1,IPosition6,IPosition4,IPosition5,TrialsF1.thisRepN,TrialsF1.thisTrialN,TrialsF1.thisN,TrialsF1.thisIndex,TrialsM1.thisRepN,TrialsM1.thisTrialN,TrialsM1.thisN,TrialsM1.thisIndex,TrialsF2.thisRepN,TrialsF2.thisTrialN,TrialsF2.thisN,TrialsF2.thisIndex,TrialsM2.thisRepN,TrialsM2.thisTrialN,TrialsM2.thisN,TrialsM2.thisIndex,TrialsF3.thisRepN,TrialsF3.thisTrialN,TrialsF3.thisN,TrialsF3.thisIndex,TrialsM3.thisRepN,TrialsM3.thisTrialN,TrialsM3.thisN,TrialsM3.thisIndex,InstrKey_resp.keys,InstrKey_resp.rt,Image0 _Position,Image1 _Position,Image2 _Position,Image3 _Position,Center_image,condition,code,correct_answer,accuracy,Key_Resp.keys,Key_Resp.rt,BreakKey_resp.keys,BreakKey_resp.rt,date,frameRate,expName,session,participant,
,,,,,,,,,,,,,,,,,,,,,,,,,,,,,,space,81.7943073176,,,,,,,,,,,,,,2017_Feb_17_1426,60.0058894238,FEMA4ImagesEEG,001,000006,
AMSA21.JPG,AMNE23.JPG,AMNE21.JPG,AMSA25.JPG,AMNE25.JPG,AMSA23.JPG,0,0,0,5,,,,,,,,,,,,,,,,,,,,,,,AFNE16.jpg,AFNE03.jpg,AFSA10.jpg,AFSA11.jpg,AFSA11.jpg,FS,4,num_4,32,num_8,1.70004477538,,,2017_Feb_17_1426,60.0058894238,FEMA4ImagesEEG,001,000006,
AMNE23.JPG,AMNE24.JPG,AMNE22.JPG,AMSA24.JPG,AMSA22.JPG,AMSA23.JPG,0,1,1,9,,,,,,,,,,,,,,,,,,,,,,,AFNE13.jpg,AFNE17.jpg,AFSA02.jpg,AFSA19.jpg,AFNE17.jpg,FN,3,num_6,32,num_4,1.60014074063,,,2017_Feb_17_1426,60.0058894238,FEMA4ImagesEEG,001,000006,
AFSA21.JPG,AFNE23.JPG,AFNE21.JPG,AFSA25.JPG,AFNE25.JPG,AFSA23.JPG,0,2,2,4,,,,,,,,,,,,,,,,,,,,,,,AFNE12.jpg,AFNE15.jpg,AFSA04.jpg,AFSA20.jpg,AFNE15.jpg,FN,3,num_6,16,num_6,1.7497450118,,,2017_Feb_17_1426,60.0058894238,FEMA4ImagesEEG,001,000006,
AFNE22.JPG,AFSA24.JPG,AFSA22.JPG,AFNE25.JPG,AFNE24.JPG,AFSA25.JPG,0,3,3,6,,,,,,,,,,,,,,,,,,,,,,,AFSA20.jpg,AFNE08.jpg,AFSA19.jpg,AFNE17.jpg,AFNE08.jpg,FN,3,num_6,32,num_2,2.00005901605,,,2017_Feb_17_1426,60.0058894238,FEMA4ImagesEEG,001,000006,
AMSA25.JPG,AMNE24.JPG,AMSA24.JPG,AMNE26.JPG,AMSA21.JPG,AMNE25.JPG,0,4,4,3,,,,,,,,,,,,,,,,,,,,,,,AFNE13.jpg,AFNE12.jpg,AFSA18.jpg,AFSA04.jpg,AFNE13.jpg,FN,3,num_8,16,num_8,2.40035031177,,,2017_Feb_17_1426,60.0058894238,FEMA4ImagesEEG,001,000006,
AMSA21.JPG,AMNE22.JPG,AMNE21.JPG,AMSA23.JPG,AMSA22.JPG,AMNE23.JPG,0,5,5,1,,,,,,,,,,,,,,,,,,,,,,,AFNE15.jpg,AFSA11.jpg,AFSA09.jpg,AFNE06.jpg,AFNE15.jpg,FN,3,num_8,16,num_8,1.14996478288,,,2017_Feb_17_1426,60.0058894238,FEMA4ImagesEEG,001,000006,
AFSA25.JPG,AFNE24.JPG,AFSA24.JPG,AFNE21.JPG,AFSA21.JPG,AFNE25.JPG,0,6,6,2,,,,,,,,,,,,,,,,,,,,,,,AFNE14.jpg,AFSA09.jpg,AFNE15.jpg,AFSA16.jpg,AFNE14.jpg,FN,3,num_8,32,num_2,1.06678508362,,,2017_Feb_17_1426,60.0058894238,FEMA4ImagesEEG,001,000006,
AFNE23.JPG,AFNE24.JPG,AFNE22.JPG,AFSA24.JPG,AFSA22.JPG,AFSA23.JPG,0,7,7,8,,,,,,,,,,,,,,,,,,,,,,,AFNE05.jpg,AFSA13.jpg,AFNE14.jpg,AFSA07.jpg,AFNE05.jpg,FN,3,num_8,32,num_4,1.23347099498,,,2017_Feb_17_1426,60.0058894238,FEMA4ImagesEEG,001,000006,
AFSA21.JPG,AFNE22.JPG,AFNE21.JPG,AFSA23.JPG,AFSA22.JPG,AFNE23.JPG,0,8,8,0,,,,,,,,,,,,,,,,,,,,,,,AFSA08.jpg,AFNE03.jpg,AFSA09.jpg,AFNE04.jpg,AFSA08.jpg,FS,4,num_8,32,num_6,1.11675923225,,,2017_Feb_17_1426,60.0058894238,FEMA4ImagesEEG,001,000006,
AMNE22.JPG,AMSA24.JPG,AMSA22.JPG,AMNE25.JPG,AMNE24.JPG,AMSA25.JPG,0,9,9,7,,,,,,,,,,,,,,,,,,,,,,,AFSA16.jpg,AFNE01.jpg,AFSA01.jpg,AFNE06.jpg,AFSA16.jpg,FS,4,num_8,32,num_6,1.80007550213,,,2017_Feb_17_1426,60.0058894238,FEMA4ImagesEEG,001,000006,
AFSA25.JPG,AFNE24.JPG,AFSA24.JPG,AFNE21.JPG,AFSA21.JPG,AFNE25.JPG,,,,,0,0,0,2,,,,,,,,,,,,,,,,,,,AMSA10.jpg,AMNE06.jpg,AMNE13.jpg,AMSA19.jpg,AMNE06.jpg,MN,1,num_6,32,num_2,1.5167304296,,,2017_Feb_17_1426,60.0058894238,FEMA4ImagesEEG,001,000006,
AMSA21.JPG,AMNE22.JPG,AMNE21.JPG,AMSA23.JPG,AMSA22.JPG,AMNE23.JPG,,,,,0,1,1,1,,,,,,,,,,,,,,,,,,,AMSA01.jpg,AMNE10.jpg,AMNE16.jpg,AMSA10.jpg,AMSA10.jpg,MS,2,num_4,16,num_4,2.11667167023,,,2017_Feb_17_1426,60.0058894238,FEMA4ImagesEEG,001,000006,
AFNE22.JPG,AFSA24.JPG,AFSA22.JPG,AFNE25.JPG,AFNE24.JPG,AFSA25.JPG,,,,,0,2,2,6,,,,,,,,,,,,,,,,,,,AMNE03.jpg,AMSA03.jpg,AMNE01.jpg,AMSA12.jpg,AMNE03.jpg,MN,1,num_8,16,num_8,1.58309117472,,,2017_Feb_17_1426,60.0058894238,FEMA4ImagesEEG,001,000006,
AFSA21.JPG,AFNE22.JPG,AFNE21.JPG,AFSA23.JPG,AFSA22.JPG,AFNE23.JPG,,,,,0,3,3,0,,,,,,,,,,,,,,,,,,,AMSA04.jpg,AMNE10.jpg,AMSA07.jpg,AMNE08.jpg,AMSA04.jpg,MS,2,num_8,16,num_8,1.98336867895,,,2017_Feb_17_1426,60.0058894238,FEMA4ImagesEEG,001,000006,
AFNE23.JPG,AFNE24.JPG,AFNE22.JPG,AFSA24.JPG,AFSA22.JPG,AFSA23.JPG,,,,,0,4,4,8,,,,,,,,,,,,,,,,,,,AMNE04.jpg,AMSA11.jpg,AMNE10.jpg,AMSA17.jpg,AMSA17.jpg,MS,2,num_4,16,num_4,1.06682485528,,,2017_Feb_17_1426,60.0058894238,FEMA4ImagesEEG,001,000006,
AFSA21.JPG,AFNE23.JPG,AFNE21.JPG,AFSA25.JPG,AFNE25.JPG,AFSA23.JPG,,,,,0,5,5,4,,,,,,,,,,,,,,,,,,,AMNE02.jpg,AMSA02.jpg,AMNE16.jpg,AMSA04.jpg,AMNE16.jpg,MN,1,num_2,16,num_2,1.90008634329,,,2017_Feb_17_1426,60.0058894238,FEMA4ImagesEEG,001,000006,
AMNE23.JPG,AMNE24.JPG,AMNE22.JPG,AMSA24.JPG,AMSA22.JPG,AMSA23.JPG,,,,,0,6,6,9,,,,,,,,,,,,,,,,,,,AMSA12.jpg,AMNE07.jpg,AMSA07.jpg,AMNE09.jpg,AMNE07.jpg,MN,1,num_6,32,num_4,1.10015453259,,,2017_Feb_17_1426,60.0058894238,FEMA4ImagesEEG,001,000006,
AMNE22.JPG,AMSA24.JPG,AMSA22.JPG,AMNE25.JPG,AMNE24.JPG,AMSA25.JPG,,,,,0,7,7,7,,,,,,,,,,,,,,,,,,,AMNE06.jpg,AMSA05.jpg,AMNE15.jpg,AMSA08.jpg,AMNE06.jpg,MN,1,num_8,16,num_8,1.26676667295,,,2017_Feb_17_1426,60.0058894238,FEMA4ImagesEEG,001,000006,
AMSA21.JPG,AMNE23.JPG,AMNE21.JPG,AMSA25.JPG,AMNE25.JPG,AMSA23.JPG,,,,,0,8,8,5,,,,,,,,,,,,,,,,,,,AMSA08.jpg,AMNE07.jpg,AMNE12.jpg,AMSA05.jpg,AMSA05.jpg,MS,2,num_4,16,num_4,1.75006703474,,,2017_Feb_17_1426,60.0058894238,FEMA4ImagesEEG,001,000006,
AMSA25.JPG,AMNE24.JPG,AMSA24.JPG,AMNE26.JPG,AMSA21.JPG,AMNE25.JPG,,,,,0,9,9,3,,,,,,,,,,,,,,,,,,,AMNE05.jpg,AMNE09.jpg,AMSA05.jpg,AMSA20.jpg,AMNE05.jpg,MN,1,num_8,32,num_2,1.48346522124,,,2017_Feb_17_1426,60.0058894238,FEMA4ImagesEEG,001,000006,
AMNE23.JPG,AMNE24.JPG,AMNE22.JPG,AMSA24.JPG,AMSA22.JPG,AMSA23.JPG,,,,,,,,,0,0,0,9,,,,,,,,,,,,,,,AFSA06.jpg,AFNE01.jpg,AFSA18.jpg,AFNE10.jpg,AFNE10.jpg,FN,3,num_4,32,num_8,1.01676956005,,,2017_Feb_17_1426,60.0058894238,FEMA4ImagesEEG,001,000006,
AFSA21.JPG,AFNE23.JPG,AFNE21.JPG,AFSA25.JPG,AFNE25.JPG,AFSA23.JPG,,,,,,,,,0,1,1,4,,,,,,,,,,,,,,,AFSA02.jpg,AFSA20.jpg,AFNE05.jpg,AFNE20.jpg,AFSA20.jpg,FS,4,num_6,32,num_2,1.51667782851,,,2017_Feb_17_1426,60.0058894238,FEMA4ImagesEEG,001,000006,
AFSA21.JPG,AFNE22.JPG,AFNE21.JPG,AFSA23.JPG,AFSA22.JPG,AFNE23.JPG,,,,,,,,,0,2,2,0,,,,,,,,,,,,,,,AFNE02.jpg,AFSA13.jpg,AFSA15.jpg,AFNE20.jpg,AFNE20.jpg,FN,3,num_4,16,num_4,0.966314943507,,,2017_Feb_17_1426,60.0058894238,FEMA4ImagesEEG,001,000006,
AFSA25.JPG,AFNE24.JPG,AFSA24.JPG,AFNE21.JPG,AFSA21.JPG,AFNE25.JPG,,,,,,,,,0,3,3,2,,,,,,,,,,,,,,,AFNE01.jpg,AFSA08.jpg,AFSA02.jpg,AFNE11.jpg,AFNE11.jpg,FN,3,num_4,32,num_2,0.983481899835,,,2017_Feb_17_1426,60.0058894238,FEMA4ImagesEEG,001,000006,
AMNE22.JPG,AMSA24.JPG,AMSA22.JPG,AMNE25.JPG,AMNE24.JPG,AMSA25.JPG,,,,,,,,,0,4,4,7,,,,,,,,,,,,,,,AFSA03.jpg,AFNE10.jpg,AFSA12.jpg,AFNE14.jpg,AFNE14.jpg,FN,3,num_4,16,num_4,0.93347214954,,,2017_Feb_17_1426,60.0058894238,FEMA4ImagesEEG,001,000006,
AFNE23.JPG,AFNE24.JPG,AFNE22.JPG,AFSA24.JPG,AFSA22.JPG,AFSA23.JPG,,,,,,,,,0,5,5,8,,,,,,,,,,,,,,,AFSA07.jpg,AFNE15.jpg,AFSA03.jpg,AFNE04.jpg,AFNE15.jpg,FN,3,num_6,32,num_4,1.06676487764,,,2017_Feb_17_1426,60.0058894238,FEMA4ImagesEEG,001,000006,
AMSA25.JPG,AMNE24.JPG,AMSA24.JPG,AMNE26.JPG,AMSA21.JPG,AMNE25.JPG,,,,,,,,,0,6,6,3,,,,,,,,,,,,,,,AFSA14.jpg,AFSA08.jpg,AFNE11.jpg,AFNE12.jpg,AFNE12.jpg,FN,3,num_4,16,num_4,0.833505891729,,,2017_Feb_17_1426,60.0058894238,FEMA4ImagesEEG,001,000006,
AFNE22.JPG,AFSA24.JPG,AFSA22.JPG,AFNE25.JPG,AFNE24.JPG,AFSA25.JPG,,,,,,,,,0,7,7,6,,,,,,,,,,,,,,,AFNE12.jpg,AFNE08.jpg,AFSA17.jpg,AFSA10.jpg,AFNE08.jpg,FN,3,num_6,16,num_6,1.91669553332,,,2017_Feb_17_1426,60.0058894238,FEMA4ImagesEEG,001,000006,
AMSA21.JPG,AMNE23.JPG,AMNE21.JPG,AMSA25.JPG,AMNE25.JPG,AMSA23.JPG,,,,,,,,,0,8,8,5,,,,,,,,,,,,,,,AFSA10.jpg,AFNE07.jpg,AFSA01.jpg,AFNE12.jpg,AFNE12.jpg,FN,3,num_4,16,num_4,1.23344886396,,,2017_Feb_17_1426,60.0058894238,FEMA4ImagesEEG,001,000006,
AMSA21.JPG,AMNE22.JPG,AMNE21.JPG,AMSA23.JPG,AMSA22.JPG,AMNE23.JPG,,,,,,,,,0,9,9,1,,,,,,,,,,,,,,,AFNE14.jpg,AFSA15.jpg,AFNE05.jpg,AFSA13.jpg,AFSA13.jpg,FS,4,num_4,32,num_2,1.25013022032,,,2017_Feb_17_1426,60.0058894238,FEMA4ImagesEEG,001,000006,
AFNE23.JPG,AFNE24.JPG,AFNE22.JPG,AFSA24.JPG,AFSA22.JPG,AFSA23.JPG,,,,,,,,,,,,,0,0,0,8,,,,,,,,,,,AMNE12.jpg,AMSA13.jpg,AMNE01.jpg,AMSA12.jpg,AMSA13.jpg,MS,2,num_6,16,num_6,1.40009917272,,,2017_Feb_17_1426,60.0058894238,FEMA4ImagesEEG,001,000006,
AMSA21.JPG,AMNE22.JPG,AMNE21.JPG,AMSA23.JPG,AMSA22.JPG,AMNE23.JPG,,,,,,,,,,,,,0,1,1,1,,,,,,,,,,,AMNE10.jpg,AMNE06.jpg,AMSA11.jpg,AMSA04.jpg,AMNE06.jpg,MN,1,num_6,16,num_6,1.80008833203,,,2017_Feb_17_1426,60.0058894238,FEMA4ImagesEEG,001,000006,
AFSA25.JPG,AFNE24.JPG,AFSA24.JPG,AFNE21.JPG,AFSA21.JPG,AFNE25.JPG,,,,,,,,,,,,,0,2,2,2,,,,,,,,,,,AMNE18.jpg,AMSA05.jpg,AMNE13.jpg,AMSA20.jpg,AMNE18.jpg,MN,1,num_8,32,num_4,1.41673626704,,,2017_Feb_17_1426,60.0058894238,FEMA4ImagesEEG,001,000006,
AFNE22.JPG,AFSA24.JPG,AFSA22.JPG,AFNE25.JPG,AFNE24.JPG,AFSA25.JPG,,,,,,,,,,,,,0,3,3,6,,,,,,,,,,,AMSA17.jpg,AMSA13.jpg,AMNE09.jpg,AMNE14.jpg,AMSA13.jpg,MS,2,num_6,16,num_6,2.06669206917,,,2017_Feb_17_1426,60.0058894238,FEMA4ImagesEEG,001,000006,
AMSA21.JPG,AMNE23.JPG,AMNE21.JPG,AMSA25.JPG,AMNE25.JPG,AMSA23.JPG,,,,,,,,,,,,,0,4,4,5,,,,,,,,,,,AMSA14.jpg,AMNE19.jpg,AMSA18.jpg,AMNE18.jpg,AMNE18.jpg,MN,1,num_4,16,num_4,0.616883358452,,,2017_Feb_17_1426,60.0058894238,FEMA4ImagesEEG,001,000006,
AMNE22.JPG,AMSA24.JPG,AMSA22.JPG,AMNE25.JPG,AMNE24.JPG,AMSA25.JPG,,,,,,,,,,,,,0,5,5,7,,,,,,,,,,,AMSA08.jpg,AMNE18.jpg,AMNE19.jpg,AMSA18.jpg,AMNE18.jpg,MN,1,num_6,16,num_6,0.750155237969,,,2017_Feb_17_1426,60.0058894238,FEMA4ImagesEEG,001,000006,
AMNE23.JPG,AMNE24.JPG,AMNE22.JPG,AMSA24.JPG,AMSA22.JPG,AMSA23.JPG,,,,,,,,,,,,,0,6,6,9,,,,,,,,,,,AMNE08.jpg,AMNE09.jpg,AMSA01.jpg,AMSA05.jpg,AMNE08.jpg,MN,1,num_8,16,num_8,1.36673453497,,,2017_Feb_17_1426,60.0058894238,FEMA4ImagesEEG,001,000006,
AMSA25.JPG,AMNE24.JPG,AMSA24.JPG,AMNE26.JPG,AMSA21.JPG,AMNE25.JPG,,,,,,,,,,,,,0,7,7,3,,,,,,,,,,,AMNE03.jpg,AMNE17.jpg,AMSA05.jpg,AMSA08.jpg,AMNE17.jpg,MN,1,num_6,16,num_6,1.20012399787,,,2017_Feb_17_1426,60.0058894238,FEMA4ImagesEEG,001,000006,
AFSA21.JPG,AFNE23.JPG,AFNE21.JPG,AFSA25.JPG,AFNE25.JPG,AFSA23.JPG,,,,,,,,,,,,,0,8,8,4,,,,,,,,,,,AMSA10.jpg,AMNE08.jpg,AMNE12.jpg,AMSA15.jpg,AMNE08.jpg,MN,1,num_6,32,num_8,0.833543097135,,,2017_Feb_17_1426,60.0058894238,FEMA4ImagesEEG,001,000006,
AFSA21.JPG,AFNE22.JPG,AFNE21.JPG,AFSA23.JPG,AFSA22.JPG,AFNE23.JPG,,,,,,,,,,,,,0,9,9,0,,,,,,,,,,,AMSA20.jpg,AMNE19.jpg,AMSA09.jpg,AMNE01.jpg,AMNE19.jpg,MN,1,num_6,32,num_8,1.55009442568,,,2017_Feb_17_1426,60.0058894238,FEMA4ImagesEEG,001,000006,
AFNE23.JPG,AFNE24.JPG,AFNE22.JPG,AFSA24.JPG,AFSA22.JPG,AFSA23.JPG,,,,,,,,,,,,,,,,,0,0,0,8,,,,,,,AFNE03.jpg,AFSA19.jpg,AFSA07.jpg,AFNE02.jpg,AFSA19.jpg,FS,4,num_6,32,num_8,0.966760130599,,,2017_Feb_17_1426,60.0058894238,FEMA4ImagesEEG,001,000006,
AFSA25.JPG,AFNE24.JPG,AFSA24.JPG,AFNE21.JPG,AFSA21.JPG,AFNE25.JPG,,,,,,,,,,,,,,,,,0,1,1,2,,,,,,,AFNE15.jpg,AFNE16.jpg,AFSA09.jpg,AFSA19.jpg,AFSA19.jpg,FS,4,num_4,16,num_4,0.766795219388,,,2017_Feb_17_1426,60.0058894238,FEMA4ImagesEEG,001,000006,
AMSA21.JPG,AMNE22.JPG,AMNE21.JPG,AMSA23.JPG,AMSA22.JPG,AMNE23.JPG,,,,,,,,,,,,,,,,,0,2,2,1,,,,,,,AFNE04.jpg,AFNE07.jpg,AFSA02.jpg,AFSA17.jpg,AFSA17.jpg,FS,4,num_4,32,num_2,1.21676205471,,,2017_Feb_17_1426,60.0058894238,FEMA4ImagesEEG,001,000006,
AMSA25.JPG,AMNE24.JPG,AMSA24.JPG,AMNE26.JPG,AMSA21.JPG,AMNE25.JPG,,,,,,,,,,,,,,,,,0,3,3,3,,,,,,,AFSA16.jpg,AFNE05.jpg,AFNE08.jpg,AFSA11.jpg,AFNE08.jpg,FN,3,num_2,16,num_2,1.26645523496,,,2017_Feb_17_1426,60.0058894238,FEMA4ImagesEEG,001,000006,
AMSA21.JPG,AMNE23.JPG,AMNE21.JPG,AMSA25.JPG,AMNE25.JPG,AMSA23.JPG,,,,,,,,,,,,,,,,,0,4,4,5,,,,,,,AFNE09.jpg,AFSA11.jpg,AFNE19.jpg,AFSA06.jpg,AFSA06.jpg,FS,4,num_4,16,num_4,2.11673966702,,,2017_Feb_17_1426,60.0058894238,FEMA4ImagesEEG,001,000006,
AFSA21.JPG,AFNE22.JPG,AFNE21.JPG,AFSA23.JPG,AFSA22.JPG,AFNE23.JPG,,,,,,,,,,,,,,,,,0,5,5,0,,,,,,,AFNE03.jpg,AFNE16.jpg,AFSA11.jpg,AFSA02.jpg,AFNE16.jpg,FN,3,num_6,32,num_8,1.08345072391,,,2017_Feb_17_1426,60.0058894238,FEMA4ImagesEEG,001,000006,
AMNE22.JPG,AMSA24.JPG,AMSA22.JPG,AMNE25.JPG,AMNE24.JPG,AMSA25.JPG,,,,,,,,,,,,,,,,,0,6,6,7,,,,,,,AFSA10.jpg,AFSA16.jpg,AFNE07.jpg,AFNE17.jpg,AFSA16.jpg,FS,4,num_6,16,num_6,1.80000814702,,,2017_Feb_17_1426,60.0058894238,FEMA4ImagesEEG,001,000006,
AMNE23.JPG,AMNE24.JPG,AMNE22.JPG,AMSA24.JPG,AMSA22.JPG,AMSA23.JPG,,,,,,,,,,,,,,,,,0,7,7,9,,,,,,,AFNE10.jpg,AFSA15.jpg,AFSA20.jpg,AFNE11.jpg,AFSA15.jpg,FS,4,num_6,16,num_6,1.46675435686,,,2017_Feb_17_1426,60.0058894238,FEMA4ImagesEEG,001,000006,
AFNE22.JPG,AFSA24.JPG,AFSA22.JPG,AFNE25.JPG,AFNE24.JPG,AFSA25.JPG,,,,,,,,,,,,,,,,,0,8,8,6,,,,,,,AFSA15.jpg,AFNE05.jpg,AFNE06.jpg,AFSA13.jpg,AFSA13.jpg,FS,4,num_4,16,num_4,1.45009384817,,,2017_Feb_17_1426,60.0058894238,FEMA4ImagesEEG,001,000006,
AFSA21.JPG,AFNE23.JPG,AFNE21.JPG,AFSA25.JPG,AFNE25.JPG,AFSA23.JPG,,,,,,,,,,,,,,,,,0,9,9,4,,,,,,,AFNE08.jpg,AFSA10.jpg,AFSA05.jpg,AFNE20.jpg,AFNE08.jpg,FN,3,num_8,32,num_2,1.1667600018,,,2017_Feb_17_1426,60.0058894238,FEMA4ImagesEEG,001,000006,
AMSA25.JPG,AMNE24.JPG,AMSA24.JPG,AMNE26.JPG,AMSA21.JPG,AMNE25.JPG,,,,,,,,,,,,,,,,,,,,,0,0,0,3,,,AMNE11.jpg,AMSA05.jpg,AMNE13.jpg,AMSA01.jpg,AMNE11.jpg,MN,1,num_8,32,num_6,0.883506339975,,,2017_Feb_17_1426,60.0058894238,FEMA4ImagesEEG,001,000006,
AMNE23.JPG,AMNE24.JPG,AMNE22.JPG,AMSA24.JPG,AMSA22.JPG,AMSA23.JPG,,,,,,,,,,,,,,,,,,,,,0,1,1,9,,,AMNE17.jpg,AMSA10.jpg,AMNE01.jpg,AMSA20.jpg,AMNE17.jpg,MN,1,num_8,16,num_8,1.56672061514,,,2017_Feb_17_1426,60.0058894238,FEMA4ImagesEEG,001,000006,
AMSA21.JPG,AMNE22.JPG,AMNE21.JPG,AMSA23.JPG,AMSA22.JPG,AMNE23.JPG,,,,,,,,,,,,,,,,,,,,,0,2,2,1,,,AMSA01.jpg,AMNE13.jpg,AMNE18.jpg,AMSA15.jpg,AMNE13.jpg,MN,1,num_6,32,num_8,1.08347285492,,,2017_Feb_17_1426,60.0058894238,FEMA4ImagesEEG,001,000006,
AMNE22.JPG,AMSA24.JPG,AMSA22.JPG,AMNE25.JPG,AMNE24.JPG,AMSA25.JPG,,,,,,,,,,,,,,,,,,,,,0,3,3,7,,,AMSA12.jpg,AMNE06.jpg,AMNE01.jpg,AMSA02.jpg,AMSA02.jpg,MS,2,num_4,16,num_4,1.05013034865,,,2017_Feb_17_1426,60.0058894238,FEMA4ImagesEEG,001,000006,
AFNE23.JPG,AFNE24.JPG,AFNE22.JPG,AFSA24.JPG,AFSA22.JPG,AFSA23.JPG,,,,,,,,,,,,,,,,,,,,,0,4,4,8,,,AMNE14.jpg,AMSA14.jpg,AMNE06.jpg,AMSA02.jpg,AMSA02.jpg,MS,2,num_4,16,num_4,0.783460538834,,,2017_Feb_17_1426,60.0058894238,FEMA4ImagesEEG,001,000006,
AFNE22.JPG,AFSA24.JPG,AFSA22.JPG,AFNE25.JPG,AFNE24.JPG,AFSA25.JPG,,,,,,,,,,,,,,,,,,,,,0,5,5,6,,,AMSA14.jpg,AMSA02.jpg,AMNE01.jpg,AMNE15.jpg,AMNE01.jpg,MN,1,num_2,16,num_2,1.18344103778,,,2017_Feb_17_1426,60.0058894238,FEMA4ImagesEEG,001,000006,
AMSA21.JPG,AMNE23.JPG,AMNE21.JPG,AMSA25.JPG,AMNE25.JPG,AMSA23.JPG,,,,,,,,,,,,,,,,,,,,,0,6,6,5,,,AMSA20.jpg,AMNE13.jpg,AMSA08.jpg,AMNE04.jpg,AMNE13.jpg,MN,1,num_6,32,num_8,1.60012598662,,,2017_Feb_17_1426,60.0058894238,FEMA4ImagesEEG,001,000006,
AFSA25.JPG,AFNE24.JPG,AFSA24.JPG,AFNE21.JPG,AFSA21.JPG,AFNE25.JPG,,,,,,,,,,,,,,,,,,,,,0,7,7,2,,,AMNE14.jpg,AMNE12.jpg,AMSA19.jpg,AMSA17.jpg,AMNE12.jpg,MN,1,num_6,32,num_2,1.28347240621,,,2017_Feb_17_1426,60.0058894238,FEMA4ImagesEEG,001,000006,
AFSA21.JPG,AFNE22.JPG,AFNE21.JPG,AFSA23.JPG,AFSA22.JPG,AFNE23.JPG,,,,,,,,,,,,,,,,,,,,,0,8,8,0,,,AMNE03.jpg,AMSA08.jpg,AMNE19.jpg,AMSA06.jpg,AMSA06.jpg,MS,2,num_4,32,num_2,1.41678534029,,,2017_Feb_17_1426,60.0058894238,FEMA4ImagesEEG,001,000006,
AFSA21.JPG,AFNE23.JPG,AFNE21.JPG,AFSA25.JPG,AFNE25.JPG,AFSA23.JPG,,,,,,,,,,,,,,,,,,,,,0,9,9,4,,,AMNE19.jpg,AMSA07.jpg,AMSA12.jpg,AMNE14.jpg,AMNE14.jpg,MN,1,num_4,16,num_4,1.11680349428,,,2017_Feb_17_1426,60.0058894238,FEMA4ImagesEEG,001,000006,
,,,,,,,,,,,,,,,,,,,,,,,,,,,,,,,,,,,,,,,,,,,space,8.04956905404,2017_Feb_17_1426,60.0058894238,FEMA4ImagesEEG,001,000006,
AFNE01.JPG,AFNE01.JPG,AFNE01.JPG,AFNE01.JPG,AFNE01.JPG,AFNE01.JPG,0,0,0,2,,,,,,,,,,,,,,,,,,,,,,,AFSA14.jpg,AFNE06.jpg,AFNE03.jpg,AFSA05.jpg,AFSA05.jpg,FS,4,num_4,32,num_2,0.900124190375,,,2017_Feb_17_1426,60.0058894238,FEMA4ImagesEEG,001,000006,
AFNE01.JPG,AFNE01.JPG,AFNE01.JPG,AFNE01.JPG,AFNE01.JPG,AFNE01.JPG,0,1,1,9,,,,,,,,,,,,,,,,,,,,,,,AFNE09.jpg,AFSA20.jpg,AFSA05.jpg,AFNE18.jpg,AFSA20.jpg,FS,4,num_6,32,num_2,0.733510766644,,,2017_Feb_17_1426,60.0058894238,FEMA4ImagesEEG,001,000006,
AFNE01.JPG,AFNE01.JPG,AFNE01.JPG,AFNE01.JPG,AFNE01.JPG,AFNE01.JPG,0,2,2,6,,,,,,,,,,,,,,,,,,,,,,,AFNE01.jpg,AFSA11.jpg,AFNE18.jpg,AFSA17.jpg,AFSA11.jpg,FS,4,num_6,32,num_4,1.64991827542,,,2017_Feb_17_1426,60.0058894238,FEMA4ImagesEEG,001,000006,
AFNE01.JPG,AFNE01.JPG,AFNE01.JPG,AFNE01.JPG,AFNE01.JPG,AFNE01.JPG,0,3,3,0,,,,,,,,,,,,,,,,,,,,,,,AFNE16.jpg,AFSA07.jpg,AFNE06.jpg,AFSA17.jpg,AFSA17.jpg,FS,4,num_4,32,num_6,1.29996741284,,,2017_Feb_17_1426,60.0058894238,FEMA4ImagesEEG,001,000006,
AFNE01.JPG,AFNE01.JPG,AFNE01.JPG,AFNE01.JPG,AFNE01.JPG,AFNE01.JPG,0,4,4,3,,,,,,,,,,,,,,,,,,,,,,,AFNE05.jpg,AFSA08.jpg,AFSA18.jpg,AFNE06.jpg,AFNE05.jpg,FN,3,num_8,16,num_8,1.56673825579,,,2017_Feb_17_1426,60.0058894238,FEMA4ImagesEEG,001,000006,
AFNE01.JPG,AFNE01.JPG,AFNE01.JPG,AFNE01.JPG,AFNE01.JPG,AFNE01.JPG,0,5,5,5,,,,,,,,,,,,,,,,,,,,,,,AFNE09.jpg,AFSA11.jpg,AFSA20.jpg,AFNE19.jpg,AFNE09.jpg,FN,3,num_8,32,num_4,1.15008153208,,,2017_Feb_17_1426,60.0058894238,FEMA4ImagesEEG,001,000006,
AFNE01.JPG,AFNE01.JPG,AFNE01.JPG,AFNE01.JPG,AFNE01.JPG,AFNE01.JPG,0,6,6,4,,,,,,,,,,,,,,,,,,,,,,,AFSA01.jpg,AFSA19.jpg,AFNE09.jpg,AFNE11.jpg,AFNE09.jpg,FN,3,num_2,32,num_8,1.71671811352,,,2017_Feb_17_1426,60.0058894238,FEMA4ImagesEEG,001,000006,
AFNE01.JPG,AFNE01.JPG,AFNE01.JPG,AFNE01.JPG,AFNE01.JPG,AFNE01.JPG,0,7,7,8,,,,,,,,,,,,,,,,,,,,,,,AFNE14.jpg,AFSA16.jpg,AFSA11.jpg,AFNE09.jpg,AFSA11.jpg,FS,4,num_2,32,num_4,1.23344533565,,,2017_Feb_17_1426,60.0058894238,FEMA4ImagesEEG,001,000006,
AFNE01.JPG,AFNE01.JPG,AFNE01.JPG,AFNE01.JPG,AFNE01.JPG,AFNE01.JPG,0,8,8,7,,,,,,,,,,,,,,,,,,,,,,,AFSA20.jpg,AFNE14.jpg,AFSA17.jpg,AFNE18.jpg,AFNE18.jpg,FN,3,num_4,32,num_2,1.50005516736,,,2017_Feb_17_1426,60.0058894238,FEMA4ImagesEEG,001,000006,
AFNE01.JPG,AFNE01.JPG,AFNE01.JPG,AFNE01.JPG,AFNE01.JPG,AFNE01.JPG,0,9,9,1,,,,,,,,,,,,,,,,,,,,,,,AFNE05.jpg,AFSA02.jpg,AFSA15.jpg,AFNE18.jpg,AFNE18.jpg,FN,3,num_4,16,num_4,0.766783672851,,,2017_Feb_17_1426,60.0058894238,FEMA4ImagesEEG,001,000006,
AFNE01.JPG,AFNE01.JPG,AFNE01.JPG,AFNE01.JPG,AFNE01.JPG,AFNE01.JPG,1,0,10,7,,,,,,,,,,,,,,,,,,,,,,,AFNE10.jpg,AFSA20.jpg,AFNE13.jpg,AFSA01.jpg,AFSA20.jpg,FS,4,num_6,32,num_4,1.48342480836,,,2017_Feb_17_1426,60.0058894238,FEMA4ImagesEEG,001,000006,
AFNE01.JPG,AFNE01.JPG,AFNE01.JPG,AFNE01.JPG,AFNE01.JPG,AFNE01.JPG,1,1,11,0,,,,,,,,,,,,,,,,,,,,,,,AFNE13.jpg,AFNE14.jpg,AFSA07.jpg,AFSA09.jpg,AFSA09.jpg,FS,4,num_4,16,num_4,0.533522441518,,,2017_Feb_17_1426,60.0058894238,FEMA4ImagesEEG,001,000006,
AFNE01.JPG,AFNE01.JPG,AFNE01.JPG,AFNE01.JPG,AFNE01.JPG,AFNE01.JPG,1,2,12,6,,,,,,,,,,,,,,,,,,,,,,,AFSA07.jpg,AFSA20.jpg,AFNE16.jpg,AFNE08.jpg,AFSA20.jpg,FS,4,num_6,16,num_6,1.28344578436,,,2017_Feb_17_1426,60.0058894238,FEMA4ImagesEEG,001,000006,
AFNE01.JPG,AFNE01.JPG,AFNE01.JPG,AFNE01.JPG,AFNE01.JPG,AFNE01.JPG,1,3,13,4,,,,,,,,,,,,,,,,,,,,,,,AFSA19.jpg,AFNE01.jpg,AFSA05.jpg,AFNE11.jpg,AFSA05.jpg,FS,4,num_2,16,num_2,0.600162230432,,,2017_Feb_17_1426,60.0058894238,FEMA4ImagesEEG,001,000006,
AFNE01.JPG,AFNE01.JPG,AFNE01.JPG,AFNE01.JPG,AFNE01.JPG,AFNE01.JPG,1,4,14,9,,,,,,,,,,,,,,,,,,,,,,,AFNE06.jpg,AFSA17.jpg,AFNE07.jpg,AFSA04.jpg,AFSA17.jpg,FS,4,num_6,32,num_2,0.983324096072,,,2017_Feb_17_1426,60.0058894238,FEMA4ImagesEEG,001,000006,
AFNE01.JPG,AFNE01.JPG,AFNE01.JPG,AFNE01.JPG,AFNE01.JPG,AFNE01.JPG,1,5,15,1,,,,,,,,,,,,,,,,,,,,,,,AFNE12.jpg,AFSA15.jpg,AFNE02.jpg,AFSA11.jpg,AFNE02.jpg,FN,3,num_2,32,num_6,1.11675634561,,,2017_Feb_17_1426,60.0058894238,FEMA4ImagesEEG,001,000006,
AFNE01.JPG,AFNE01.JPG,AFNE01.JPG,AFNE01.JPG,AFNE01.JPG,AFNE01.JPG,1,6,16,3,,,,,,,,,,,,,,,,,,,,,,,AFNE08.jpg,AFSA08.jpg,AFNE15.jpg,AFSA04.jpg,AFNE08.jpg,FN,3,num_8,32,num_2,1.23333339719,,,2017_Feb_17_1426,60.0058894238,FEMA4ImagesEEG,001,000006,
AFNE01.JPG,AFNE01.JPG,AFNE01.JPG,AFNE01.JPG,AFNE01.JPG,AFNE01.JPG,1,7,17,5,,,,,,,,,,,,,,,,,,,,,,,AFSA08.jpg,AFNE14.jpg,AFNE15.jpg,AFSA04.jpg,AFSA08.jpg,FS,4,num_8,32,num_2,0.833481193986,,,2017_Feb_17_1426,60.0058894238,FEMA4ImagesEEG,001,000006,
AFNE01.JPG,AFNE01.JPG,AFNE01.JPG,AFNE01.JPG,AFNE01.JPG,AFNE01.JPG,1,8,18,2,,,,,,,,,,,,,,,,,,,,,,,AFNE02.jpg,AFSA16.jpg,AFSA19.jpg,AFNE13.jpg,AFSA19.jpg,FS,4,num_2,32,num_4,2.1333565549,,,2017_Feb_17_1426,60.0058894238,FEMA4ImagesEEG,001,000006,
AFNE01.JPG,AFNE01.JPG,AFNE01.JPG,AFNE01.JPG,AFNE01.JPG,AFNE01.JPG,1,9,19,8,,,,,,,,,,,,,,,,,,,,,,,AFSA19.jpg,AFSA04.jpg,AFNE11.jpg,AFNE13.jpg,AFNE11.jpg,FN,3,num_2,32,num_4,0.950081981253,,,2017_Feb_17_1426,60.0058894238,FEMA4ImagesEEG,001,000006,
AFNE01.JPG,AFNE01.JPG,AFNE01.JPG,AFNE01.JPG,AFNE01.JPG,AFNE01.JPG,2,0,20,2,,,,,,,,,,,,,,,,,,,,,,,AFNE19.jpg,AFSA01.jpg,AFNE14.jpg,AFSA15.jpg,AFSA01.jpg,FS,4,num_6,16,num_6,0.666822867002,,,2017_Feb_17_1426,60.0058894238,FEMA4ImagesEEG,001,000006,
AFNE01.JPG,AFNE01.JPG,AFNE01.JPG,AFNE01.JPG,AFNE01.JPG,AFNE01.JPG,2,1,21,4,,,,,,,,,,,,,,,,,,,,,,,AFNE01.jpg,AFSA07.jpg,AFSA04.jpg,AFNE04.jpg,AFSA07.jpg,FS,4,num_6,32,num_2,2.45001398446,,,2017_Feb_17_1426,60.0058894238,FEMA4ImagesEEG,001,000006,
AFNE01.JPG,AFNE01.JPG,AFNE01.JPG,AFNE01.JPG,AFNE01.JPG,AFNE01.JPG,2,2,22,5,,,,,,,,,,,,,,,,,,,,,,,AFNE15.jpg,AFNE17.jpg,AFSA15.jpg,AFSA08.jpg,AFSA08.jpg,FS,4,num_4,16,num_4,1.13347073831,,,2017_Feb_17_1426,60.0058894238,FEMA4ImagesEEG,001,000006,
AFNE01.JPG,AFNE01.JPG,AFNE01.JPG,AFNE01.JPG,AFNE01.JPG,AFNE01.JPG,2,3,23,3,,,,,,,,,,,,,,,,,,,,,,,AFNE20.jpg,AFSA13.jpg,AFNE15.jpg,AFSA10.jpg,AFNE15.jpg,FN,3,num_2,16,num_2,1.1001891722,,,2017_Feb_17_1426,60.0058894238,FEMA4ImagesEEG,001,000006,
AFNE01.JPG,AFNE01.JPG,AFNE01.JPG,AFNE01.JPG,AFNE01.JPG,AFNE01.JPG,2,4,24,9,,,,,,,,,,,,,,,,,,,,,,,AFNE09.jpg,AFSA06.jpg,AFNE04.jpg,AFSA10.jpg,AFNE09.jpg,FN,3,num_8,32,num_4,1.08346868586,,,2017_Feb_17_1426,60.0058894238,FEMA4ImagesEEG,001,000006,
AFNE01.JPG,AFNE01.JPG,AFNE01.JPG,AFNE01.JPG,AFNE01.JPG,AFNE01.JPG,2,5,25,7,,,,,,,,,,,,,,,,,,,,,,,AFSA18.jpg,AFSA06.jpg,AFNE17.jpg,AFNE12.jpg,AFSA18.jpg,FS,4,num_8,32,num_6,1.19990268769,,,2017_Feb_17_1426,60.0058894238,FEMA4ImagesEEG,001,000006,
AFNE01.JPG,AFNE01.JPG,AFNE01.JPG,AFNE01.JPG,AFNE01.JPG,AFNE01.JPG,2,6,26,1,,,,,,,,,,,,,,,,,,,,,,,AFSA15.jpg,AFSA10.jpg,AFNE09.jpg,AFNE11.jpg,AFSA15.jpg,FS,4,num_8,16,num_8,1.11678713653,,,2017_Feb_17_1426,60.0058894238,FEMA4ImagesEEG,001,000006,
AFNE01.JPG,AFNE01.JPG,AFNE01.JPG,AFNE01.JPG,AFNE01.JPG,AFNE01.JPG,2,7,27,6,,,,,,,,,,,,,,,,,,,,,,,AFNE15.jpg,AFNE07.jpg,AFSA06.jpg,AFSA16.jpg,AFSA16.jpg,FS,4,num_4,16,num_4,0.933472790755,,,2017_Feb_17_1426,60.0058894238,FEMA4ImagesEEG,001,000006,
AFNE01.JPG,AFNE01.JPG,AFNE01.JPG,AFNE01.JPG,AFNE01.JPG,AFNE01.JPG,2,8,28,8,,,,,,,,,,,,,,,,,,,,,,,AFNE15.jpg,AFSA17.jpg,AFNE11.jpg,AFSA15.jpg,AFSA15.jpg,FS,4,num_4,16,num_4,0.499987170566,,,2017_Feb_17_1426,60.0058894238,FEMA4ImagesEEG,001,000006,
AFNE01.JPG,AFNE01.JPG,AFNE01.JPG,AFNE01.JPG,AFNE01.JPG,AFNE01.JPG,2,9,29,0,,,,,,,,,,,,,,,,,,,,,,,AFSA20.jpg,AFNE20.jpg,AFSA04.jpg,AFNE13.jpg,AFNE13.jpg,FN,3,num_4,32,num_6,0.883318707347,,,2017_Feb_17_1426,60.0058894238,FEMA4ImagesEEG,001,000006,
AFNE01.JPG,AFNE01.JPG,AFNE01.JPG,AFNE01.JPG,AFNE01.JPG,AFNE01.JPG,3,0,30,1,,,,,,,,,,,,,,,,,,,,,,,AFNE05.jpg,AFSA16.jpg,AFSA17.jpg,AFNE14.jpg,AFNE05.jpg,FN,3,num_8,16,num_8,0.833461308852,,,2017_Feb_17_1426,60.0058894238,FEMA4ImagesEEG,001,000006,
AFNE01.JPG,AFNE01.JPG,AFNE01.JPG,AFNE01.JPG,AFNE01.JPG,AFNE01.JPG,3,1,31,8,,,,,,,,,,,,,,,,,,,,,,,AFSA10.jpg,AFNE17.jpg,AFNE09.jpg,AFSA19.jpg,AFNE09.jpg,FN,3,num_2,16,num_2,1.00010391977,,,2017_Feb_17_1426,60.0058894238,FEMA4ImagesEEG,001,000006,
AFNE01.JPG,AFNE01.JPG,AFNE01.JPG,AFNE01.JPG,AFNE01.JPG,AFNE01.JPG,3,2,32,3,,,,,,,,,,,,,,,,,,,,,,,AFSA18.jpg,AFNE04.jpg,AFNE03.jpg,AFSA03.jpg,AFNE04.jpg,FN,3,num_6,32,num_8,2.21669501998,,,2017_Feb_17_1426,60.0058894238,FEMA4ImagesEEG,001,000006,
AFNE01.JPG,AFNE01.JPG,AFNE01.JPG,AFNE01.JPG,AFNE01.JPG,AFNE01.JPG,3,3,33,6,,,,,,,,,,,,,,,,,,,,,,,AFNE15.jpg,AFSA17.jpg,AFSA20.jpg,AFNE07.jpg,AFNE07.jpg,FN,3,num_4,32,num_2,0.900136378594,,,2017_Feb_17_1426,60.0058894238,FEMA4ImagesEEG,001,000006,
AFNE01.JPG,AFNE01.JPG,AFNE01.JPG,AFNE01.JPG,AFNE01.JPG,AFNE01.JPG,3,4,34,4,,,,,,,,,,,,,,,,,,,,,,,AFNE17.jpg,AFSA01.jpg,AFSA20.jpg,AFNE14.jpg,AFNE14.jpg,FN,3,num_4,32,num_6,1.49980146205,,,2017_Feb_17_1426,60.0058894238,FEMA4ImagesEEG,001,000006,
AFNE01.JPG,AFNE01.JPG,AFNE01.JPG,AFNE01.JPG,AFNE01.JPG,AFNE01.JPG,3,5,35,2,,,,,,,,,,,,,,,,,,,,,,,AFNE13.jpg,AFSA04.jpg,AFSA16.jpg,AFNE05.jpg,AFSA04.jpg,FS,4,num_6,32,num_8,1.11678938195,,,2017_Feb_17_1426,60.0058894238,FEMA4ImagesEEG,001,000006,
AFNE01.JPG,AFNE01.JPG,AFNE01.JPG,AFNE01.JPG,AFNE01.JPG,AFNE01.JPG,3,6,36,0,,,,,,,,,,,,,,,,,,,,,,,AFSA02.jpg,AFNE02.jpg,AFNE16.jpg,AFSA13.jpg,AFSA02.jpg,FS,4,num_8,32,num_6,0.600171852391,,,2017_Feb_17_1426,60.0058894238,FEMA4ImagesEEG,001,000006,
AFNE01.JPG,AFNE01.JPG,AFNE01.JPG,AFNE01.JPG,AFNE01.JPG,AFNE01.JPG,3,7,37,7,,,,,,,,,,,,,,,,,,,,,,,AFNE12.jpg,AFNE13.jpg,AFSA12.jpg,AFSA04.jpg,AFSA04.jpg,FS,4,num_4,32,num_2,1.40034325561,,,2017_Feb_17_1426,60.0058894238,FEMA4ImagesEEG,001,000006,
AFNE01.JPG,AFNE01.JPG,AFNE01.JPG,AFNE01.JPG,AFNE01.JPG,AFNE01.JPG,3,8,38,9,,,,,,,,,,,,,,,,,,,,,,,AFSA20.jpg,AFNE18.jpg,AFNE17.jpg,AFSA10.jpg,AFNE18.jpg,FN,3,num_6,32,num_2,1.60004131123,,,2017_Feb_17_1426,60.0058894238,FEMA4ImagesEEG,001,000006,
AFNE01.JPG,AFNE01.JPG,AFNE01.JPG,AFNE01.JPG,AFNE01.JPG,AFNE01.JPG,3,9,39,5,,,,,,,,,,,,,,,,,,,,,,,AFNE19.jpg,AFNE15.jpg,AFSA01.jpg,AFSA12.jpg,AFNE15.jpg,FN,3,num_6,16,num_6,0.566798554733,,,2017_Feb_17_1426,60.0058894238,FEMA4ImagesEEG,001,000006,
AFNE01.JPG,AFNE01.JPG,AFNE01.JPG,AFNE01.JPG,AFNE01.JPG,AFNE01.JPG,4,0,40,0,,,,,,,,,,,,,,,,,,,,,,,AFSA14.jpg,AFNE13.jpg,AFSA04.jpg,AFNE12.jpg,AFSA14.jpg,FS,4,num_8,32,num_2,1.25008178875,,,2017_Feb_17_1426,60.0058894238,FEMA4ImagesEEG,001,000006,
AFNE01.JPG,AFNE01.JPG,AFNE01.JPG,AFNE01.JPG,AFNE01.JPG,AFNE01.JPG,4,1,41,9,,,,,,,,,,,,,,,,,,,,,,,AFSA05.jpg,AFSA04.jpg,AFNE12.jpg,AFNE09.jpg,AFNE12.jpg,FN,3,num_2,32,num_8,2.09994412726,,,2017_Feb_17_1426,60.0058894238,FEMA4ImagesEEG,001,000006,
AFNE01.JPG,AFNE01.JPG,AFNE01.JPG,AFNE01.JPG,AFNE01.JPG,AFNE01.JPG,4,2,42,5,,,,,,,,,,,,,,,,,,,,,,,AFNE15.jpg,AFSA07.jpg,AFNE19.jpg,AFSA18.jpg,AFSA07.jpg,FS,4,num_6,32,num_2,1.05012682034,,,2017_Feb_17_1426,60.0058894238,FEMA4ImagesEEG,001,000006,
AFNE01.JPG,AFNE01.JPG,AFNE01.JPG,AFNE01.JPG,AFNE01.JPG,AFNE01.JPG,4,3,43,6,,,,,,,,,,,,,,,,,,,,,,,AFNE10.jpg,AFNE14.jpg,AFSA06.jpg,AFSA09.jpg,AFNE10.jpg,FN,3,num_8,16,num_8,0.916765454691,,,2017_Feb_17_1426,60.0058894238,FEMA4ImagesEEG,001,000006,
AFNE01.JPG,AFNE01.JPG,AFNE01.JPG,AFNE01.JPG,AFNE01.JPG,AFNE01.JPG,4,4,44,1,,,,,,,,,,,,,,,,,,,,,,,AFNE14.jpg,AFNE07.jpg,AFSA04.jpg,AFSA17.jpg,AFSA04.jpg,FS,4,num_2,16,num_2,0.800144460984,,,2017_Feb_17_1426,60.0058894238,FEMA4ImagesEEG,001,000006,
AFNE01.JPG,AFNE01.JPG,AFNE01.JPG,AFNE01.JPG,AFNE01.JPG,AFNE01.JPG,4,5,45,8,,,,,,,,,,,,,,,,,,,,,,,AFSA12.jpg,AFNE15.jpg,AFSA13.jpg,AFNE06.jpg,AFNE15.jpg,FN,3,num_6,32,num_8,1.13344026823,,,2017_Feb_17_1426,60.0058894238,FEMA4ImagesEEG,001,000006,
AFNE01.JPG,AFNE01.JPG,AFNE01.JPG,AFNE01.JPG,AFNE01.JPG,AFNE01.JPG,4,6,46,7,,,,,,,,,,,,,,,,,,,,,,,AFNE18.jpg,AFSA05.jpg,AFNE01.jpg,AFSA06.jpg,AFNE01.jpg,FN,3,num_2,32,num_8,0.783543930855,,,2017_Feb_17_1426,60.0058894238,FEMA4ImagesEEG,001,000006,
AFNE01.JPG,AFNE01.JPG,AFNE01.JPG,AFNE01.JPG,AFNE01.JPG,AFNE01.JPG,4,7,47,2,,,,,,,,,,,,,,,,,,,,,,,AFSA08.jpg,AFSA15.jpg,AFNE05.jpg,AFNE13.jpg,AFSA15.jpg,FS,4,num_6,32,num_8,0.666798811872,,,2017_Feb_17_1426,60.0058894238,FEMA4ImagesEEG,001,000006,
AFNE01.JPG,AFNE01.JPG,AFNE01.JPG,AFNE01.JPG,AFNE01.JPG,AFNE01.JPG,4,8,48,3,,,,,,,,,,,,,,,,,,,,,,,AFNE06.jpg,AFSA04.jpg,AFSA01.jpg,AFNE10.jpg,AFNE06.jpg,FN,3,num_8,32,num_2,1.81670297449,,,2017_Feb_17_1426,60.0058894238,FEMA4ImagesEEG,001,000006,
AFNE01.JPG,AFNE01.JPG,AFNE01.JPG,AFNE01.JPG,AFNE01.JPG,AFNE01.JPG,4,9,49,4,,,,,,,,,,,,,,,,,,,,,,,AFSA05.jpg,AFNE11.jpg,AFSA06.jpg,AFNE07.jpg,AFNE07.jpg,FN,3,num_4,16,num_4,0.833498193882,,,2017_Feb_17_1426,60.0058894238,FEMA4ImagesEEG,001,000006,
AFNE01.JPG,AFNE01.JPG,AFNE01.JPG,AFNE01.JPG,AFNE01.JPG,AFNE01.JPG,5,0,50,8,,,,,,,,,,,,,,,,,,,,,,,AFSA16.jpg,AFSA20.jpg,AFNE16.jpg,AFNE17.jpg,AFSA20.jpg,FS,4,num_6,32,num_8,1.09998101182,,,2017_Feb_17_1426,60.0058894238,FEMA4ImagesEEG,001,000006,
AFNE01.JPG,AFNE01.JPG,AFNE01.JPG,AFNE01.JPG,AFNE01.JPG,AFNE01.JPG,5,1,51,5,,,,,,,,,,,,,,,,,,,,,,,AFNE02.jpg,AFNE14.jpg,AFSA06.jpg,AFSA14.jpg,AFNE14.jpg,FN,3,num_6,32,num_2,1.58339812281,,,2017_Feb_17_1426,60.0058894238,FEMA4ImagesEEG,001,000006,
AFNE01.JPG,AFNE01.JPG,AFNE01.JPG,AFNE01.JPG,AFNE01.JPG,AFNE01.JPG,5,2,52,2,,,,,,,,,,,,,,,,,,,,,,,AFNE13.jpg,AFNE11.jpg,AFSA13.jpg,AFSA16.jpg,AFNE11.jpg,FN,3,num_6,16,num_6,0.916787264869,,,2017_Feb_17_1426,60.0058894238,FEMA4ImagesEEG,001,000006,
AFNE01.JPG,AFNE01.JPG,AFNE01.JPG,AFNE01.JPG,AFNE01.JPG,AFNE01.JPG,5,3,53,4,,,,,,,,,,,,,,,,,,,,,,,AFNE18.jpg,AFSA17.jpg,AFNE20.jpg,AFSA20.jpg,AFNE20.jpg,FN,3,num_2,16,num_2,1.76670958148,,,2017_Feb_17_1426,60.0058894238,FEMA4ImagesEEG,001,000006,
AFNE01.JPG,AFNE01.JPG,AFNE01.JPG,AFNE01.JPG,AFNE01.JPG,AFNE01.JPG,5,4,54,7,,,,,,,,,,,,,,,,,,,,,,,AFSA20.jpg,AFNE13.jpg,AFSA02.jpg,AFNE11.jpg,AFSA02.jpg,FS,4,num_2,16,num_2,0.716770393774,,,2017_Feb_17_1426,60.0058894238,FEMA4ImagesEEG,001,000006,
AFNE01.JPG,AFNE01.JPG,AFNE01.JPG,AFNE01.JPG,AFNE01.JPG,AFNE01.JPG,5,5,55,9,,,,,,,,,,,,,,,,,,,,,,,AFNE13.jpg,AFSA04.jpg,AFNE05.jpg,AFSA16.jpg,AFNE05.jpg,FN,3,num_2,32,num_6,1.21678161994,,,2017_Feb_17_1426,60.0058894238,FEMA4ImagesEEG,001,000006,
AFNE01.JPG,AFNE01.JPG,AFNE01.JPG,AFNE01.JPG,AFNE01.JPG,AFNE01.JPG,5,6,56,0,,,,,,,,,,,,,,,,,,,,,,,AFNE07.jpg,AFNE13.jpg,AFSA01.jpg,AFSA07.jpg,AFNE13.jpg,FN,3,num_6,32,num_8,1.13343962654,,,2017_Feb_17_1426,60.0058894238,FEMA4ImagesEEG,001,000006,
AFNE01.JPG,AFNE01.JPG,AFNE01.JPG,AFNE01.JPG,AFNE01.JPG,AFNE01.JPG,5,7,57,3,,,,,,,,,,,,,,,,,,,,,,,AFSA14.jpg,AFNE18.jpg,AFNE19.jpg,AFSA17.jpg,AFSA14.jpg,FS,4,num_8,32,num_2,1.30007454008,,,2017_Feb_17_1426,60.0058894238,FEMA4ImagesEEG,001,000006,
AFNE01.JPG,AFNE01.JPG,AFNE01.JPG,AFNE01.JPG,AFNE01.JPG,AFNE01.JPG,5,8,58,6,,,,,,,,,,,,,,,,,,,,,,,AFSA10.jpg,AFNE18.jpg,AFSA19.jpg,AFNE10.jpg,AFNE18.jpg,FN,3,num_6,16,num_6,1.26674903231,,,2017_Feb_17_1426,60.0058894238,FEMA4ImagesEEG,001,000006,
AFNE01.JPG,AFNE01.JPG,AFNE01.JPG,AFNE01.JPG,AFNE01.JPG,AFNE01.JPG,5,9,59,1,,,,,,,,,,,,,,,,,,,,,,,AFNE10.jpg,AFSA13.jpg,AFSA16.jpg,AFNE16.jpg,AFNE16.jpg,FN,3,num_4,32,num_8,2.55005240906,,,2017_Feb_17_1426,60.0058894238,FEMA4ImagesEEG,001,000006,
,,,,,,,,,,,,,,,,,,,,,,,,,,,,,,,,,,,,,,,,,,,space,11.3826451539,2017_Feb_17_1426,60.0058894238,FEMA4ImagesEEG,001,000006,
AFNE01.JPG,AFNE01.JPG,AFNE01.JPG,AFNE01.JPG,AFNE01.JPG,AFNE01.JPG,,,,,0,0,0,2,,,,,,,,,,,,,,,,,,,AMSA04.jpg,AMSA15.jpg,AMNE14.jpg,AMNE19.jpg,AMNE14.jpg,MN,1,num_2,32,num_8,1.0335218003,,,2017_Feb_17_1426,60.0058894238,FEMA4ImagesEEG,001,000006,
AFNE01.JPG,AFNE01.JPG,AFNE01.JPG,AFNE01.JPG,AFNE01.JPG,AFNE01.JPG,,,,,0,1,1,3,,,,,,,,,,,,,,,,,,,AMNE10.jpg,AMSA20.jpg,AMNE14.jpg,AMSA11.jpg,AMNE10.jpg,MN,1,num_8,16,num_8,1.21674409322,,,2017_Feb_17_1426,60.0058894238,FEMA4ImagesEEG,001,000006,
AFNE01.JPG,AFNE01.JPG,AFNE01.JPG,AFNE01.JPG,AFNE01.JPG,AFNE01.JPG,,,,,0,2,2,9,,,,,,,,,,,,,,,,,,,AMSA17.jpg,AMSA09.jpg,AMNE08.jpg,AMNE11.jpg,AMSA09.jpg,MS,2,num_6,16,num_6,2.15002604434,,,2017_Feb_17_1426,60.0058894238,FEMA4ImagesEEG,001,000006,
AFNE01.JPG,AFNE01.JPG,AFNE01.JPG,AFNE01.JPG,AFNE01.JPG,AFNE01.JPG,,,,,0,3,3,5,,,,,,,,,,,,,,,,,,,AMNE14.jpg,AMSA18.jpg,AMNE17.jpg,AMSA19.jpg,AMSA19.jpg,MS,2,num_4,16,num_4,0.733432827052,,,2017_Feb_17_1426,60.0058894238,FEMA4ImagesEEG,001,000006,
AFNE01.JPG,AFNE01.JPG,AFNE01.JPG,AFNE01.JPG,AFNE01.JPG,AFNE01.JPG,,,,,0,4,4,6,,,,,,,,,,,,,,,,,,,AMSA09.jpg,AMNE13.jpg,AMNE20.jpg,AMSA02.jpg,AMSA09.jpg,MS,2,num_8,32,num_6,0.616836209781,,,2017_Feb_17_1426,60.0058894238,FEMA4ImagesEEG,001,000006,
AFNE01.JPG,AFNE01.JPG,AFNE01.JPG,AFNE01.JPG,AFNE01.JPG,AFNE01.JPG,,,,,0,5,5,8,,,,,,,,,,,,,,,,,,,AMNE09.jpg,AMSA10.jpg,AMNE05.jpg,AMSA20.jpg,AMSA20.jpg,MS,2,num_4,16,num_4,0.666844356339,,,2017_Feb_17_1426,60.0058894238,FEMA4ImagesEEG,001,000006,
AFNE01.JPG,AFNE01.JPG,AFNE01.JPG,AFNE01.JPG,AFNE01.JPG,AFNE01.JPG,,,,,0,6,6,4,,,,,,,,,,,,,,,,,,,AMSA14.jpg,AMSA05.jpg,AMNE02.jpg,AMNE19.jpg,AMSA14.jpg,MS,2,num_8,16,num_8,0.966759168077,,,2017_Feb_17_1426,60.0058894238,FEMA4ImagesEEG,001,000006,
AFNE01.JPG,AFNE01.JPG,AFNE01.JPG,AFNE01.JPG,AFNE01.JPG,AFNE01.JPG,,,,,0,7,7,0,,,,,,,,,,,,,,,,,,,AMNE15.jpg,AMSA16.jpg,AMNE01.jpg,AMSA17.jpg,AMSA16.jpg,MS,2,num_6,16,num_6,0.566798233893,,,2017_Feb_17_1426,60.0058894238,FEMA4ImagesEEG,001,000006,
AFNE01.JPG,AFNE01.JPG,AFNE01.JPG,AFNE01.JPG,AFNE01.JPG,AFNE01.JPG,,,,,0,8,8,7,,,,,,,,,,,,,,,,,,,AMNE03.jpg,AMSA12.jpg,AMNE12.jpg,AMSA16.jpg,AMSA12.jpg,MS,2,num_6,32,num_2,1.65008890908,,,2017_Feb_17_1426,60.0058894238,FEMA4ImagesEEG,001,000006,
AFNE01.JPG,AFNE01.JPG,AFNE01.JPG,AFNE01.JPG,AFNE01.JPG,AFNE01.JPG,,,,,0,9,9,1,,,,,,,,,,,,,,,,,,,AMNE20.jpg,AMSA08.jpg,AMNE16.jpg,AMSA06.jpg,AMSA08.jpg,MS,2,num_6,16,num_6,1.78339703241,,,2017_Feb_17_1426,60.0058894238,FEMA4ImagesEEG,001,000006,
AFNE01.JPG,AFNE01.JPG,AFNE01.JPG,AFNE01.JPG,AFNE01.JPG,AFNE01.JPG,,,,,1,0,10,5,,,,,,,,,,,,,,,,,,,AMSA02.jpg,AMSA17.jpg,AMNE05.jpg,AMNE08.jpg,AMSA17.jpg,MS,2,num_6,16,num_6,0.533491329756,,,2017_Feb_17_1426,60.0058894238,FEMA4ImagesEEG,001,000006,
AFNE01.JPG,AFNE01.JPG,AFNE01.JPG,AFNE01.JPG,AFNE01.JPG,AFNE01.JPG,,,,,1,1,11,7,,,,,,,,,,,,,,,,,,,AMNE19.jpg,AMSA16.jpg,AMNE15.jpg,AMSA06.jpg,AMNE15.jpg,MN,1,num_2,32,num_8,0.966755319387,,,2017_Feb_17_1426,60.0058894238,FEMA4ImagesEEG,001,000006,
AFNE01.JPG,AFNE01.JPG,AFNE01.JPG,AFNE01.JPG,AFNE01.JPG,AFNE01.JPG,,,,,1,2,12,2,,,,,,,,,,,,,,,,,,,AMSA09.jpg,AMSA10.jpg,AMNE15.jpg,AMNE13.jpg,AMSA10.jpg,MS,2,num_6,32,num_4,1.25008692034,,,2017_Feb_17_1426,60.0058894238,FEMA4ImagesEEG,001,000006,
AFNE01.JPG,AFNE01.JPG,AFNE01.JPG,AFNE01.JPG,AFNE01.JPG,AFNE01.JPG,,,,,1,3,13,9,,,,,,,,,,,,,,,,,,,AMSA09.jpg,AMSA06.jpg,AMNE16.jpg,AMNE04.jpg,AMSA09.jpg,MS,2,num_8,32,num_6,0.966764620505,,,2017_Feb_17_1426,60.0058894238,FEMA4ImagesEEG,001,000006,
AFNE01.JPG,AFNE01.JPG,AFNE01.JPG,AFNE01.JPG,AFNE01.JPG,AFNE01.JPG,,,,,1,4,14,6,,,,,,,,,,,,,,,,,,,AMSA09.jpg,AMNE11.jpg,AMNE01.jpg,AMSA15.jpg,AMNE11.jpg,MN,1,num_6,32,num_2,1.53311895067,,,2017_Feb_17_1426,60.0058894238,FEMA4ImagesEEG,001,000006,
AFNE01.JPG,AFNE01.JPG,AFNE01.JPG,AFNE01.JPG,AFNE01.JPG,AFNE01.JPG,,,,,1,5,15,0,,,,,,,,,,,,,,,,,,,AMSA01.jpg,AMSA19.jpg,AMNE02.jpg,AMNE07.jpg,AMSA01.jpg,MS,2,num_8,16,num_8,0.983483503573,,,2017_Feb_17_1426,60.0058894238,FEMA4ImagesEEG,001,000006,
AFNE01.JPG,AFNE01.JPG,AFNE01.JPG,AFNE01.JPG,AFNE01.JPG,AFNE01.JPG,,,,,1,6,16,4,,,,,,,,,,,,,,,,,,,AMSA20.jpg,AMNE08.jpg,AMSA15.jpg,AMNE15.jpg,AMNE08.jpg,MN,1,num_6,16,num_6,1.03345797304,,,2017_Feb_17_1426,60.0058894238,FEMA4ImagesEEG,001,000006,
AFNE01.JPG,AFNE01.JPG,AFNE01.JPG,AFNE01.JPG,AFNE01.JPG,AFNE01.JPG,,,,,1,7,17,3,,,,,,,,,,,,,,,,,,,AMNE13.jpg,AMSA18.jpg,AMSA20.jpg,AMNE02.jpg,AMSA20.jpg,MS,2,num_2,32,num_6,1.95004477538,,,2017_Feb_17_1426,60.0058894238,FEMA4ImagesEEG,001,000006,
AFNE01.JPG,AFNE01.JPG,AFNE01.JPG,AFNE01.JPG,AFNE01.JPG,AFNE01.JPG,,,,,1,8,18,8,,,,,,,,,,,,,,,,,,,AMNE12.jpg,AMNE19.jpg,AMSA04.jpg,AMSA11.jpg,AMSA11.jpg,MS,2,num_4,32,num_2,1.80006972887,,,2017_Feb_17_1426,60.0058894238,FEMA4ImagesEEG,001,000006,
AFNE01.JPG,AFNE01.JPG,AFNE01.JPG,AFNE01.JPG,AFNE01.JPG,AFNE01.JPG,,,,,1,9,19,1,,,,,,,,,,,,,,,,,,,AMNE16.jpg,AMNE02.jpg,AMSA20.jpg,AMSA17.jpg,AMNE02.jpg,MN,1,num_6,32,num_8,0.883474587463,,,2017_Feb_17_1426,60.0058894238,FEMA4ImagesEEG,001,000006,
AFNE01.JPG,AFNE01.JPG,AFNE01.JPG,AFNE01.JPG,AFNE01.JPG,AFNE01.JPG,,,,,2,0,20,7,,,,,,,,,,,,,,,,,,,AMSA11.jpg,AMNE01.jpg,AMNE15.jpg,AMSA12.jpg,AMNE15.jpg,MN,1,num_2,16,num_2,0.800181346014,,,2017_Feb_17_1426,60.0058894238,FEMA4ImagesEEG,001,000006,
AFNE01.JPG,AFNE01.JPG,AFNE01.JPG,AFNE01.JPG,AFNE01.JPG,AFNE01.JPG,,,,,2,1,21,0,,,,,,,,,,,,,,,,,,,AMNE20.jpg,AMSA05.jpg,AMSA15.jpg,AMNE11.jpg,AMSA15.jpg,MS,2,num_2,32,num_6,0.733495370951,,,2017_Feb_17_1426,60.0058894238,FEMA4ImagesEEG,001,000006,
AFNE01.JPG,AFNE01.JPG,AFNE01.JPG,AFNE01.JPG,AFNE01.JPG,AFNE01.JPG,,,,,2,2,22,2,,,,,,,,,,,,,,,,,,,AMSA07.jpg,AMSA19.jpg,AMNE03.jpg,AMNE04.jpg,AMSA19.jpg,MS,2,num_6,32,num_2,2.69999602251,,,2017_Feb_17_1426,60.0058894238,FEMA4ImagesEEG,001,000006,
AFNE01.JPG,AFNE01.JPG,AFNE01.JPG,AFNE01.JPG,AFNE01.JPG,AFNE01.JPG,,,,,2,3,23,9,,,,,,,,,,,,,,,,,,,AMNE18.jpg,AMSA15.jpg,AMSA11.jpg,AMNE01.jpg,AMSA11.jpg,MS,2,num_2,32,num_8,1.13310637791,,,2017_Feb_17_1426,60.0058894238,FEMA4ImagesEEG,001,000006,
AFNE01.JPG,AFNE01.JPG,AFNE01.JPG,AFNE01.JPG,AFNE01.JPG,AFNE01.JPG,,,,,2,4,24,3,,,,,,,,,,,,,,,,,,,AMSA07.jpg,AMSA01.jpg,AMNE05.jpg,AMNE07.jpg,AMSA01.jpg,MS,2,num_6,16,num_6,0.733492805157,,,2017_Feb_17_1426,60.0058894238,FEMA4ImagesEEG,001,000006,
AFNE01.JPG,AFNE01.JPG,AFNE01.JPG,AFNE01.JPG,AFNE01.JPG,AFNE01.JPG,,,,,2,5,25,6,,,,,,,,,,,,,,,,,,,AMSA04.jpg,AMSA03.jpg,AMNE05.jpg,AMNE15.jpg,AMSA03.jpg,MS,2,num_6,32,num_8,0.433366626035,,,2017_Feb_17_1426,60.0058894238,FEMA4ImagesEEG,001,000006,
AFNE01.JPG,AFNE01.JPG,AFNE01.JPG,AFNE01.JPG,AFNE01.JPG,AFNE01.JPG,,,,,2,6,26,5,,,,,,,,,,,,,,,,,,,AMNE11.jpg,AMSA15.jpg,AMSA16.jpg,AMNE08.jpg,AMSA15.jpg,MS,2,num_6,16,num_6,1.23344244901,,,2017_Feb_17_1426,60.0058894238,FEMA4ImagesEEG,001,000006,
AFNE01.JPG,AFNE01.JPG,AFNE01.JPG,AFNE01.JPG,AFNE01.JPG,AFNE01.JPG,,,,,2,7,27,8,,,,,,,,,,,,,,,,,,,AMNE12.jpg,AMNE06.jpg,AMSA19.jpg,AMSA15.jpg,AMSA15.jpg,MS,2,num_4,16,num_4,0.83355271956,,,2017_Feb_17_1426,60.0058894238,FEMA4ImagesEEG,001,000006,
AFNE01.JPG,AFNE01.JPG,AFNE01.JPG,AFNE01.JPG,AFNE01.JPG,AFNE01.JPG,,,,,2,8,28,1,,,,,,,,,,,,,,,,,,,AMSA15.jpg,AMNE20.jpg,AMSA20.jpg,AMNE11.jpg,AMSA15.jpg,MS,2,num_8,32,num_2,1.01680259639,,,2017_Feb_17_1426,60.0058894238,FEMA4ImagesEEG,001,000006,
AFNE01.JPG,AFNE01.JPG,AFNE01.JPG,AFNE01.JPG,AFNE01.JPG,AFNE01.JPG,,,,,2,9,29,4,,,,,,,,,,,,,,,,,,,AMNE12.jpg,AMNE10.jpg,AMSA12.jpg,AMSA05.jpg,AMSA12.jpg,MS,2,num_2,16,num_2,0.833446875215,,,2017_Feb_17_1426,60.0058894238,FEMA4ImagesEEG,001,000006,
AFNE01.JPG,AFNE01.JPG,AFNE01.JPG,AFNE01.JPG,AFNE01.JPG,AFNE01.JPG,,,,,3,0,30,3,,,,,,,,,,,,,,,,,,,AMSA12.jpg,AMNE06.jpg,AMSA08.jpg,AMNE08.jpg,AMSA12.jpg,MS,2,num_8,16,num_8,1.38344315486,,,2017_Feb_17_1426,60.0058894238,FEMA4ImagesEEG,001,000006,
AFNE01.JPG,AFNE01.JPG,AFNE01.JPG,AFNE01.JPG,AFNE01.JPG,AFNE01.JPG,,,,,3,1,31,5,,,,,,,,,,,,,,,,,,,AMSA01.jpg,AMNE11.jpg,AMNE07.jpg,AMSA06.jpg,AMSA01.jpg,MS,2,num_8,32,num_2,1.05015183846,,,2017_Feb_17_1426,60.0058894238,FEMA4ImagesEEG,001,000006,
AFNE01.JPG,AFNE01.JPG,AFNE01.JPG,AFNE01.JPG,AFNE01.JPG,AFNE01.JPG,,,,,3,2,32,9,,,,,,,,,,,,,,,,,,,AMNE11.jpg,AMNE19.jpg,AMSA06.jpg,AMSA19.jpg,AMSA06.jpg,MS,2,num_2,16,num_2,0.883509547915,,,2017_Feb_17_1426,60.0058894238,FEMA4ImagesEEG,001,000006,
AFNE01.JPG,AFNE01.JPG,AFNE01.JPG,AFNE01.JPG,AFNE01.JPG,AFNE01.JPG,,,,,3,3,33,4,,,,,,,,,,,,,,,,,,,AMNE04.jpg,AMSA02.jpg,AMNE15.jpg,AMSA08.jpg,AMSA02.jpg,MS,2,num_6,16,num_6,0.750088203233,,,2017_Feb_17_1426,60.0058894238,FEMA4ImagesEEG,001,000006,
AFNE01.JPG,AFNE01.JPG,AFNE01.JPG,AFNE01.JPG,AFNE01.JPG,AFNE01.JPG,,,,,3,4,34,8,,,,,,,,,,,,,,,,,,,AMNE06.jpg,AMSA01.jpg,AMSA07.jpg,AMNE17.jpg,AMSA07.jpg,MS,2,num_2,32,num_6,0.583506212104,,,2017_Feb_17_1426,60.0058894238,FEMA4ImagesEEG,001,000006,
AFNE01.JPG,AFNE01.JPG,AFNE01.JPG,AFNE01.JPG,AFNE01.JPG,AFNE01.JPG,,,,,3,5,35,2,,,,,,,,,,,,,,,,,,,AMNE08.jpg,AMSA04.jpg,AMNE14.jpg,AMSA08.jpg,AMNE14.jpg,MN,1,num_2,16,num_2,0.816777385771,,,2017_Feb_17_1426,60.0058894238,FEMA4ImagesEEG,001,000006,
AFNE01.JPG,AFNE01.JPG,AFNE01.JPG,AFNE01.JPG,AFNE01.JPG,AFNE01.JPG,,,,,3,6,36,0,,,,,,,,,,,,,,,,,,,AMSA17.jpg,AMNE20.jpg,AMSA03.jpg,AMNE06.jpg,AMSA03.jpg,MS,2,num_2,16,num_2,1.2001509401,,,2017_Feb_17_1426,60.0058894238,FEMA4ImagesEEG,001,000006,
AFNE01.JPG,AFNE01.JPG,AFNE01.JPG,AFNE01.JPG,AFNE01.JPG,AFNE01.JPG,,,,,3,7,37,1,,,,,,,,,,,,,,,,,,,AMNE10.jpg,AMSA16.jpg,AMNE08.jpg,AMSA08.jpg,AMNE10.jpg,MN,1,num_8,16,num_8,1.03343295539,,,2017_Feb_17_1426,60.0058894238,FEMA4ImagesEEG,001,000006,
AFNE01.JPG,AFNE01.JPG,AFNE01.JPG,AFNE01.JPG,AFNE01.JPG,AFNE01.JPG,,,,,3,8,38,6,,,,,,,,,,,,,,,,,,,AMSA15.jpg,AMSA01.jpg,AMNE02.jpg,AMNE20.jpg,AMNE02.jpg,MN,1,num_2,32,num_6,0.800142536405,,,2017_Feb_17_1426,60.0058894238,FEMA4ImagesEEG,001,000006,
AFNE01.JPG,AFNE01.JPG,AFNE01.JPG,AFNE01.JPG,AFNE01.JPG,AFNE01.JPG,,,,,3,9,39,7,,,,,,,,,,,,,,,,,,,AMSA18.jpg,AMNE06.jpg,AMSA09.jpg,AMNE04.jpg,AMNE04.jpg,MN,1,num_4,16,num_4,0.816668334417,,,2017_Feb_17_1426,60.0058894238,FEMA4ImagesEEG,001,000006,
AFNE01.JPG,AFNE01.JPG,AFNE01.JPG,AFNE01.JPG,AFNE01.JPG,AFNE01.JPG,,,,,4,0,40,6,,,,,,,,,,,,,,,,,,,AMNE07.jpg,AMSA08.jpg,AMSA14.jpg,AMNE01.jpg,AMNE07.jpg,MN,1,num_8,32,num_6,1.21678033704,,,2017_Feb_17_1426,60.0058894238,FEMA4ImagesEEG,001,000006,
AFNE01.JPG,AFNE01.JPG,AFNE01.JPG,AFNE01.JPG,AFNE01.JPG,AFNE01.JPG,,,,,4,1,41,0,,,,,,,,,,,,,,,,,,,AMSA19.jpg,AMSA09.jpg,AMNE05.jpg,AMNE09.jpg,AMNE05.jpg,MN,1,num_2,16,num_2,1.28346599126,,,2017_Feb_17_1426,60.0058894238,FEMA4ImagesEEG,001,000006,
AFNE01.JPG,AFNE01.JPG,AFNE01.JPG,AFNE01.JPG,AFNE01.JPG,AFNE01.JPG,,,,,4,2,42,9,,,,,,,,,,,,,,,,,,,AMNE20.jpg,AMSA05.jpg,AMSA06.jpg,AMNE14.jpg,AMSA05.jpg,MS,2,num_6,32,num_2,1.20014003478,,,2017_Feb_17_1426,60.0058894238,FEMA4ImagesEEG,001,000006,
AFNE01.JPG,AFNE01.JPG,AFNE01.JPG,AFNE01.JPG,AFNE01.JPG,AFNE01.JPG,,,,,4,3,43,5,,,,,,,,,,,,,,,,,,,AMNE19.jpg,AMSA01.jpg,AMSA06.jpg,AMNE07.jpg,AMNE19.jpg,MN,1,num_8,32,num_2,1.21675307397,,,2017_Feb_17_1426,60.0058894238,FEMA4ImagesEEG,001,000006,
AFNE01.JPG,AFNE01.JPG,AFNE01.JPG,AFNE01.JPG,AFNE01.JPG,AFNE01.JPG,,,,,4,4,44,4,,,,,,,,,,,,,,,,,,,AMNE17.jpg,AMSA14.jpg,AMNE03.jpg,AMSA16.jpg,AMSA14.jpg,MS,2,num_6,16,num_6,0.683461885899,,,2017_Feb_17_1426,60.0058894238,FEMA4ImagesEEG,001,000006,
AFNE01.JPG,AFNE01.JPG,AFNE01.JPG,AFNE01.JPG,AFNE01.JPG,AFNE01.JPG,,,,,4,5,45,8,,,,,,,,,,,,,,,,,,,AMNE08.jpg,AMSA03.jpg,AMSA02.jpg,AMNE12.jpg,AMSA02.jpg,MS,2,num_2,16,num_2,0.566803686786,,,2017_Feb_17_1426,60.0058894238,FEMA4ImagesEEG,001,000006,
AFNE01.JPG,AFNE01.JPG,AFNE01.JPG,AFNE01.JPG,AFNE01.JPG,AFNE01.JPG,,,,,4,6,46,2,,,,,,,,,,,,,,,,,,,AMSA20.jpg,AMNE06.jpg,AMNE13.jpg,AMSA01.jpg,AMNE06.jpg,MN,1,num_6,32,num_2,0.800062993076,,,2017_Feb_17_1426,60.0058894238,FEMA4ImagesEEG,001,000006,
AFNE01.JPG,AFNE01.JPG,AFNE01.JPG,AFNE01.JPG,AFNE01.JPG,AFNE01.JPG,,,,,4,7,47,7,,,,,,,,,,,,,,,,,,,AMNE05.jpg,AMSA02.jpg,AMNE04.jpg,AMSA05.jpg,AMSA02.jpg,MS,2,num_6,16,num_6,1.16695212526,,,2017_Feb_17_1426,60.0058894238,FEMA4ImagesEEG,001,000006,
AFNE01.JPG,AFNE01.JPG,AFNE01.JPG,AFNE01.JPG,AFNE01.JPG,AFNE01.JPG,,,,,4,8,48,1,,,,,,,,,,,,,,,,,,,AMSA10.jpg,AMSA05.jpg,AMNE10.jpg,AMNE06.jpg,AMNE06.jpg,MN,1,num_4,32,num_2,0.750030790921,,,2017_Feb_17_1426,60.0058894238,FEMA4ImagesEEG,001,000006,
AFNE01.JPG,AFNE01.JPG,AFNE01.JPG,AFNE01.JPG,AFNE01.JPG,AFNE01.JPG,,,,,4,9,49,3,,,,,,,,,,,,,,,,,,,AMSA15.jpg,AMNE02.jpg,AMNE17.jpg,AMSA11.jpg,AMSA15.jpg,MS,2,num_8,32,num_6,1.61676853336,,,2017_Feb_17_1426,60.0058894238,FEMA4ImagesEEG,001,000006,
AFNE01.JPG,AFNE01.JPG,AFNE01.JPG,AFNE01.JPG,AFNE01.JPG,AFNE01.JPG,,,,,5,0,50,5,,,,,,,,,,,,,,,,,,,AMSA02.jpg,AMSA17.jpg,AMNE10.jpg,AMNE07.jpg,AMSA02.jpg,MS,2,num_8,16,num_8,0.666872581467,,,2017_Feb_17_1426,60.0058894238,FEMA4ImagesEEG,001,000006,
AFNE01.JPG,AFNE01.JPG,AFNE01.JPG,AFNE01.JPG,AFNE01.JPG,AFNE01.JPG,,,,,5,1,51,1,,,,,,,,,,,,,,,,,,,AMSA11.jpg,AMSA17.jpg,AMNE16.jpg,AMNE04.jpg,AMNE04.jpg,MN,1,num_4,16,num_4,0.450161524583,,,2017_Feb_17_1426,60.0058894238,FEMA4ImagesEEG,001,000006,
AFNE01.JPG,AFNE01.JPG,AFNE01.JPG,AFNE01.JPG,AFNE01.JPG,AFNE01.JPG,,,,,5,2,52,9,,,,,,,,,,,,,,,,,,,AMNE13.jpg,AMSA09.jpg,AMNE05.jpg,AMSA17.jpg,AMNE05.jpg,MN,1,num_2,32,num_6,0.650134774856,,,2017_Feb_17_1426,60.0058894238,FEMA4ImagesEEG,001,000006,
AFNE01.JPG,AFNE01.JPG,AFNE01.JPG,AFNE01.JPG,AFNE01.JPG,AFNE01.JPG,,,,,5,3,53,4,,,,,,,,,,,,,,,,,,,AMSA12.jpg,AMNE19.jpg,AMNE02.jpg,AMSA09.jpg,AMNE02.jpg,MN,1,num_2,16,num_2,0.533522441518,,,2017_Feb_17_1426,60.0058894238,FEMA4ImagesEEG,001,000006,
AFNE01.JPG,AFNE01.JPG,AFNE01.JPG,AFNE01.JPG,AFNE01.JPG,AFNE01.JPG,,,,,5,4,54,7,,,,,,,,,,,,,,,,,,,AMSA19.jpg,AMNE08.jpg,AMNE18.jpg,AMSA11.jpg,AMNE18.jpg,MN,1,num_2,16,num_2,0.850114119239,,,2017_Feb_17_1426,60.0058894238,FEMA4ImagesEEG,001,000006,
AFNE01.JPG,AFNE01.JPG,AFNE01.JPG,AFNE01.JPG,AFNE01.JPG,AFNE01.JPG,,,,,5,5,55,8,,,,,,,,,,,,,,,,,,,AMNE18.jpg,AMNE11.jpg,AMSA05.jpg,AMSA01.jpg,AMSA01.jpg,MS,2,num_4,16,num_4,0.983491842635,,,2017_Feb_17_1426,60.0058894238,FEMA4ImagesEEG,001,000006,
AFNE01.JPG,AFNE01.JPG,AFNE01.JPG,AFNE01.JPG,AFNE01.JPG,AFNE01.JPG,,,,,5,6,56,3,,,,,,,,,,,,,,,,,,,AMSA16.jpg,AMNE20.jpg,AMNE09.jpg,AMSA11.jpg,AMSA11.jpg,MS,2,num_4,16,num_4,0.500180897303,,,2017_Feb_17_1426,60.0058894238,FEMA4ImagesEEG,001,000006,
AFNE01.JPG,AFNE01.JPG,AFNE01.JPG,AFNE01.JPG,AFNE01.JPG,AFNE01.JPG,,,,,5,7,57,6,,,,,,,,,,,,,,,,,,,AMSA12.jpg,AMNE20.jpg,AMSA15.jpg,AMNE07.jpg,AMNE07.jpg,MN,1,num_4,32,num_2,0.966792524792,,,2017_Feb_17_1426,60.0058894238,FEMA4ImagesEEG,001,000006,
AFNE01.JPG,AFNE01.JPG,AFNE01.JPG,AFNE01.JPG,AFNE01.JPG,AFNE01.JPG,,,,,5,8,58,0,,,,,,,,,,,,,,,,,,,AMSA16.jpg,AMSA06.jpg,AMNE16.jpg,AMNE12.jpg,AMNE16.jpg,MN,1,num_2,16,num_2,0.816778668668,,,2017_Feb_17_1426,60.0058894238,FEMA4ImagesEEG,001,000006,
AFNE01.JPG,AFNE01.JPG,AFNE01.JPG,AFNE01.JPG,AFNE01.JPG,AFNE01.JPG,,,,,5,9,59,2,,,,,,,,,,,,,,,,,,,AMNE05.jpg,AMSA11.jpg,AMSA02.jpg,AMNE07.jpg,AMNE05.jpg,MN,1,num_8,16,num_8,0.73346201377,,,2017_Feb_17_1426,60.0058894238,FEMA4ImagesEEG,001,000006,
,,,,,,,,,,,,,,,,,,,,,,,,,,,,,,,,,,,,,,,,,,,space,3.73322498752,2017_Feb_17_1426,60.0058894238,FEMA4ImagesEEG,001,000006,
AFNE01.JPG,AFNE01.JPG,AFNE01.JPG,AFNE01.JPG,AFNE01.JPG,AFNE01.JPG,,,,,,,,,0,0,0,2,,,,,,,,,,,,,,,AFNE16.jpg,AFSA15.jpg,AFSA09.jpg,AFNE01.jpg,AFNE16.jpg,FN,3,num_8,32,num_2,0.833757671993,,,2017_Feb_17_1426,60.0058894238,FEMA4ImagesEEG,001,000006,
AFNE01.JPG,AFNE01.JPG,AFNE01.JPG,AFNE01.JPG,AFNE01.JPG,AFNE01.JPG,,,,,,,,,0,1,1,5,,,,,,,,,,,,,,,AFNE06.jpg,AFSA10.jpg,AFNE17.jpg,AFSA15.jpg,AFNE17.jpg,FN,3,num_2,16,num_2,0.716785148252,,,2017_Feb_17_1426,60.0058894238,FEMA4ImagesEEG,001,000006,
AFNE01.JPG,AFNE01.JPG,AFNE01.JPG,AFNE01.JPG,AFNE01.JPG,AFNE01.JPG,,,,,,,,,0,2,2,8,,,,,,,,,,,,,,,AFSA02.jpg,AFNE11.jpg,AFNE15.jpg,AFSA19.jpg,AFNE15.jpg,FN,3,num_2,16,num_2,0.516792653129,,,2017_Feb_17_1426,60.0058894238,FEMA4ImagesEEG,001,000006,
AFNE01.JPG,AFNE01.JPG,AFNE01.JPG,AFNE01.JPG,AFNE01.JPG,AFNE01.JPG,,,,,,,,,0,3,3,3,,,,,,,,,,,,,,,AFNE04.jpg,AFNE19.jpg,AFSA02.jpg,AFSA11.jpg,AFNE19.jpg,FN,3,num_6,16,num_6,0.900154660922,,,2017_Feb_17_1426,60.0058894238,FEMA4ImagesEEG,001,000006,
AFNE01.JPG,AFNE01.JPG,AFNE01.JPG,AFNE01.JPG,AFNE01.JPG,AFNE01.JPG,,,,,,,,,0,4,4,4,,,,,,,,,,,,,,,AFNE03.jpg,AFNE19.jpg,AFSA04.jpg,AFSA11.jpg,AFNE03.jpg,FN,3,num_8,16,num_8,0.76684012264,,,2017_Feb_17_1426,60.0058894238,FEMA4ImagesEEG,001,000006,
AFNE01.JPG,AFNE01.JPG,AFNE01.JPG,AFNE01.JPG,AFNE01.JPG,AFNE01.JPG,,,,,,,,,0,5,5,1,,,,,,,,,,,,,,,AFSA08.jpg,AFNE12.jpg,AFSA16.jpg,AFNE03.jpg,AFNE03.jpg,FN,3,num_4,16,num_4,1.2001124518,,,2017_Feb_17_1426,60.0058894238,FEMA4ImagesEEG,001,000006,
AFNE01.JPG,AFNE01.JPG,AFNE01.JPG,AFNE01.JPG,AFNE01.JPG,AFNE01.JPG,,,,,,,,,0,6,6,7,,,,,,,,,,,,,,,AFSA08.jpg,AFNE16.jpg,AFSA10.jpg,AFNE18.jpg,AFSA08.jpg,FS,4,num_8,16,num_8,0.71682459861,,,2017_Feb_17_1426,60.0058894238,FEMA4ImagesEEG,001,000006,
AFNE01.JPG,AFNE01.JPG,AFNE01.JPG,AFNE01.JPG,AFNE01.JPG,AFNE01.JPG,,,,,,,,,0,7,7,0,,,,,,,,,,,,,,,AFNE02.jpg,AFSA05.jpg,AFNE04.jpg,AFSA10.jpg,AFNE04.jpg,FN,3,num_2,16,num_2,0.733464259189,,,2017_Feb_17_1426,60.0058894238,FEMA4ImagesEEG,001,000006,
AFNE01.JPG,AFNE01.JPG,AFNE01.JPG,AFNE01.JPG,AFNE01.JPG,AFNE01.JPG,,,,,,,,,0,8,8,9,,,,,,,,,,,,,,,AFSA10.jpg,AFNE19.jpg,AFNE07.jpg,AFSA20.jpg,AFNE07.jpg,FN,3,num_2,32,num_8,0.733470353298,,,2017_Feb_17_1426,60.0058894238,FEMA4ImagesEEG,001,000006,
AFNE01.JPG,AFNE01.JPG,AFNE01.JPG,AFNE01.JPG,AFNE01.JPG,AFNE01.JPG,,,,,,,,,0,9,9,6,,,,,,,,,,,,,,,AFSA06.jpg,AFNE12.jpg,AFSA03.jpg,AFNE16.jpg,AFNE12.jpg,FN,3,num_6,16,num_6,0.666562105529,,,2017_Feb_17_1426,60.0058894238,FEMA4ImagesEEG,001,000006,
AFNE01.JPG,AFNE01.JPG,AFNE01.JPG,AFNE01.JPG,AFNE01.JPG,AFNE01.JPG,,,,,,,,,1,0,10,8,,,,,,,,,,,,,,,AFNE12.jpg,AFSA19.jpg,AFNE16.jpg,AFSA08.jpg,AFSA19.jpg,FS,4,num_6,32,num_2,0.600148117635,,,2017_Feb_17_1426,60.0058894238,FEMA4ImagesEEG,001,000006,
AFNE01.JPG,AFNE01.JPG,AFNE01.JPG,AFNE01.JPG,AFNE01.JPG,AFNE01.JPG,,,,,,,,,1,1,11,9,,,,,,,,,,,,,,,AFNE03.jpg,AFNE14.jpg,AFSA04.jpg,AFSA02.jpg,AFNE03.jpg,FN,3,num_8,16,num_8,0.783509612083,,,2017_Feb_17_1426,60.0058894238,FEMA4ImagesEEG,001,000006,
AFNE01.JPG,AFNE01.JPG,AFNE01.JPG,AFNE01.JPG,AFNE01.JPG,AFNE01.JPG,,,,,,,,,1,2,12,5,,,,,,,,,,,,,,,AFNE16.jpg,AFSA03.jpg,AFSA08.jpg,AFNE03.jpg,AFSA08.jpg,FS,4,num_2,32,num_8,0.816814912949,,,2017_Feb_17_1426,60.0058894238,FEMA4ImagesEEG,001,000006,
AFNE01.JPG,AFNE01.JPG,AFNE01.JPG,AFNE01.JPG,AFNE01.JPG,AFNE01.JPG,,,,,,,,,1,3,13,0,,,,,,,,,,,,,,,AFNE05.jpg,AFSA01.jpg,AFNE16.jpg,AFSA14.jpg,AFSA14.jpg,FS,4,num_4,16,num_4,1.41673466377,,,2017_Feb_17_1426,60.0058894238,FEMA4ImagesEEG,001,000006,
AFNE01.JPG,AFNE01.JPG,AFNE01.JPG,AFNE01.JPG,AFNE01.JPG,AFNE01.JPG,,,,,,,,,1,4,14,7,,,,,,,,,,,,,,,AFSA17.jpg,AFNE08.jpg,AFNE20.jpg,AFSA09.jpg,AFNE20.jpg,FN,3,num_2,32,num_8,0.900141510181,,,2017_Feb_17_1426,60.0058894238,FEMA4ImagesEEG,001,000006,
AFNE01.JPG,AFNE01.JPG,AFNE01.JPG,AFNE01.JPG,AFNE01.JPG,AFNE01.JPG,,,,,,,,,1,5,15,3,,,,,,,,,,,,,,,AFSA15.jpg,AFNE15.jpg,AFNE02.jpg,AFSA08.jpg,AFSA15.jpg,FS,4,num_8,32,num_6,0.683470866643,,,2017_Feb_17_1426,60.0058894238,FEMA4ImagesEEG,001,000006,
AFNE01.JPG,AFNE01.JPG,AFNE01.JPG,AFNE01.JPG,AFNE01.JPG,AFNE01.JPG,,,,,,,,,1,6,16,1,,,,,,,,,,,,,,,AFNE06.jpg,AFSA10.jpg,AFNE19.jpg,AFSA05.jpg,AFNE06.jpg,FN,3,num_8,32,num_6,1.01666115038,,,2017_Feb_17_1426,60.0058894238,FEMA4ImagesEEG,001,000006,
AFNE01.JPG,AFNE01.JPG,AFNE01.JPG,AFNE01.JPG,AFNE01.JPG,AFNE01.JPG,,,,,,,,,1,7,17,2,,,,,,,,,,,,,,,AFSA08.jpg,AFSA06.jpg,AFNE03.jpg,AFNE20.jpg,AFSA08.jpg,FS,4,num_8,32,num_6,0.816777064931,,,2017_Feb_17_1426,60.0058894238,FEMA4ImagesEEG,001,000006,
AFNE01.JPG,AFNE01.JPG,AFNE01.JPG,AFNE01.JPG,AFNE01.JPG,AFNE01.JPG,,,,,,,,,1,8,18,4,,,,,,,,,,,,,,,AFNE19.jpg,AFSA09.jpg,AFNE08.jpg,AFSA16.jpg,AFSA09.jpg,FS,4,num_6,32,num_4,0.816770971287,,,2017_Feb_17_1426,60.0058894238,FEMA4ImagesEEG,001,000006,
AFNE01.JPG,AFNE01.JPG,AFNE01.JPG,AFNE01.JPG,AFNE01.JPG,AFNE01.JPG,,,,,,,,,1,9,19,6,,,,,,,,,,,,,,,AFNE13.jpg,AFSA18.jpg,AFSA09.jpg,AFNE05.jpg,AFSA09.jpg,FS,4,num_2,32,num_4,0.71680086432,,,2017_Feb_17_1426,60.0058894238,FEMA4ImagesEEG,001,000006,
AFNE01.JPG,AFNE01.JPG,AFNE01.JPG,AFNE01.JPG,AFNE01.JPG,AFNE01.JPG,,,,,,,,,2,0,20,8,,,,,,,,,,,,,,,AFNE17.jpg,AFSA01.jpg,AFSA02.jpg,AFNE19.jpg,AFNE19.jpg,FN,3,num_4,32,num_6,0.750153955072,,,2017_Feb_17_1426,60.0058894238,FEMA4ImagesEEG,001,000006,
AFNE01.JPG,AFNE01.JPG,AFNE01.JPG,AFNE01.JPG,AFNE01.JPG,AFNE01.JPG,,,,,,,,,2,1,21,7,,,,,,,,,,,,,,,AFNE13.jpg,AFSA11.jpg,AFNE14.jpg,AFSA18.jpg,AFNE14.jpg,FN,3,num_2,16,num_2,1.0501678749,,,2017_Feb_17_1426,60.0058894238,FEMA4ImagesEEG,001,000006,
AFNE01.JPG,AFNE01.JPG,AFNE01.JPG,AFNE01.JPG,AFNE01.JPG,AFNE01.JPG,,,,,,,,,2,2,22,3,,,,,,,,,,,,,,,AFNE06.jpg,AFSA10.jpg,AFSA12.jpg,AFNE04.jpg,AFNE04.jpg,FN,3,num_4,16,num_4,0.933473111596,,,2017_Feb_17_1426,60.0058894238,FEMA4ImagesEEG,001,000006,
AFNE01.JPG,AFNE01.JPG,AFNE01.JPG,AFNE01.JPG,AFNE01.JPG,AFNE01.JPG,,,,,,,,,2,3,23,9,,,,,,,,,,,,,,,AFNE04.jpg,AFSA15.jpg,AFSA05.jpg,AFNE03.jpg,AFNE03.jpg,FN,3,num_4,16,num_4,0.950138751883,,,2017_Feb_17_1426,60.0058894238,FEMA4ImagesEEG,001,000006,
AFNE01.JPG,AFNE01.JPG,AFNE01.JPG,AFNE01.JPG,AFNE01.JPG,AFNE01.JPG,,,,,,,,,2,4,24,6,,,,,,,,,,,,,,,AFNE08.jpg,AFSA10.jpg,AFSA06.jpg,AFNE11.jpg,AFNE11.jpg,FN,3,num_4,16,num_4,1.03344642604,,,2017_Feb_17_1426,60.0058894238,FEMA4ImagesEEG,001,000006,
AFNE01.JPG,AFNE01.JPG,AFNE01.JPG,AFNE01.JPG,AFNE01.JPG,AFNE01.JPG,,,,,,,,,2,5,25,2,,,,,,,,,,,,,,,AFSA18.jpg,AFNE15.jpg,AFSA05.jpg,AFNE03.jpg,AFSA05.jpg,FS,4,num_2,16,num_2,0.466785468627,,,2017_Feb_17_1426,60.0058894238,FEMA4ImagesEEG,001,000006,
AFNE01.JPG,AFNE01.JPG,AFNE01.JPG,AFNE01.JPG,AFNE01.JPG,AFNE01.JPG,,,,,,,,,2,6,26,1,,,,,,,,,,,,,,,AFSA04.jpg,AFNE04.jpg,AFNE05.jpg,AFSA09.jpg,AFSA04.jpg,FS,4,num_8,16,num_8,1.15010141768,,,2017_Feb_17_1426,60.0058894238,FEMA4ImagesEEG,001,000006,
AFNE01.JPG,AFNE01.JPG,AFNE01.JPG,AFNE01.JPG,AFNE01.JPG,AFNE01.JPG,,,,,,,,,2,7,27,0,,,,,,,,,,,,,,,AFNE13.jpg,AFNE09.jpg,AFSA02.jpg,AFSA14.jpg,AFNE09.jpg,FN,3,num_6,32,num_8,0.80018134648,,,2017_Feb_17_1426,60.0058894238,FEMA4ImagesEEG,001,000006,
AFNE01.JPG,AFNE01.JPG,AFNE01.JPG,AFNE01.JPG,AFNE01.JPG,AFNE01.JPG,,,,,,,,,2,8,28,4,,,,,,,,,,,,,,,AFSA08.jpg,AFNE13.jpg,AFNE03.jpg,AFSA20.jpg,AFSA20.jpg,FS,4,num_4,16,num_4,0.683503902983,,,2017_Feb_17_1426,60.0058894238,FEMA4ImagesEEG,001,000006,
AFNE01.JPG,AFNE01.JPG,AFNE01.JPG,AFNE01.JPG,AFNE01.JPG,AFNE01.JPG,,,,,,,,,2,9,29,5,,,,,,,,,,,,,,,AFSA04.jpg,AFNE17.jpg,AFSA05.jpg,AFNE01.jpg,AFNE17.jpg,FN,3,num_6,32,num_4,0.666748776101,,,2017_Feb_17_1426,60.0058894238,FEMA4ImagesEEG,001,000006,
AFNE01.JPG,AFNE01.JPG,AFNE01.JPG,AFNE01.JPG,AFNE01.JPG,AFNE01.JPG,,,,,,,,,3,0,30,2,,,,,,,,,,,,,,,AFNE08.jpg,AFSA01.jpg,AFSA10.jpg,AFNE09.jpg,AFSA10.jpg,FS,4,num_2,16,num_2,1.36672138469,,,2017_Feb_17_1426,60.0058894238,FEMA4ImagesEEG,001,000006,
AFNE01.JPG,AFNE01.JPG,AFNE01.JPG,AFNE01.JPG,AFNE01.JPG,AFNE01.JPG,,,,,,,,,3,1,31,9,,,,,,,,,,,,,,,AFSA08.jpg,AFNE14.jpg,AFSA09.jpg,AFNE03.jpg,AFSA08.jpg,FS,4,num_8,16,num_8,1.06675525475,,,2017_Feb_17_1426,60.0058894238,FEMA4ImagesEEG,001,000006,
AFNE01.JPG,AFNE01.JPG,AFNE01.JPG,AFNE01.JPG,AFNE01.JPG,AFNE01.JPG,,,,,,,,,3,2,32,4,,,,,,,,,,,,,,,AFSA08.jpg,AFSA09.jpg,AFNE18.jpg,AFNE05.jpg,AFSA08.jpg,FS,4,num_8,16,num_8,0.750128295738,,,2017_Feb_17_1426,60.0058894238,FEMA4ImagesEEG,001,000006,
AFNE01.JPG,AFNE01.JPG,AFNE01.JPG,AFNE01.JPG,AFNE01.JPG,AFNE01.JPG,,,,,,,,,3,3,33,0,,,,,,,,,,,,,,,AFSA14.jpg,AFNE03.jpg,AFNE13.jpg,AFSA05.jpg,AFSA14.jpg,FS,4,num_8,16,num_8,0.666801698506,,,2017_Feb_17_1426,60.0058894238,FEMA4ImagesEEG,001,000006,
AFNE01.JPG,AFNE01.JPG,AFNE01.JPG,AFNE01.JPG,AFNE01.JPG,AFNE01.JPG,,,,,,,,,3,4,34,6,,,,,,,,,,,,,,,AFNE07.jpg,AFSA12.jpg,AFSA04.jpg,AFNE05.jpg,AFNE05.jpg,FN,3,num_4,32,num_2,1.01678623864,,,2017_Feb_17_1426,60.0058894238,FEMA4ImagesEEG,001,000006,
AFNE01.JPG,AFNE01.JPG,AFNE01.JPG,AFNE01.JPG,AFNE01.JPG,AFNE01.JPG,,,,,,,,,3,5,35,7,,,,,,,,,,,,,,,AFNE16.jpg,AFNE02.jpg,AFSA10.jpg,AFSA05.jpg,AFSA10.jpg,FS,4,num_2,16,num_2,0.883477473632,,,2017_Feb_17_1426,60.0058894238,FEMA4ImagesEEG,001,000006,
AFNE01.JPG,AFNE01.JPG,AFNE01.JPG,AFNE01.JPG,AFNE01.JPG,AFNE01.JPG,,,,,,,,,3,6,36,8,,,,,,,,,,,,,,,AFSA01.jpg,AFNE13.jpg,AFSA11.jpg,AFNE08.jpg,AFSA01.jpg,FS,4,num_8,32,num_4,0.883478115313,,,2017_Feb_17_1426,60.0058894238,FEMA4ImagesEEG,001,000006,
AFNE01.JPG,AFNE01.JPG,AFNE01.JPG,AFNE01.JPG,AFNE01.JPG,AFNE01.JPG,,,,,,,,,3,7,37,3,,,,,,,,,,,,,,,AFNE06.jpg,AFNE07.jpg,AFSA12.jpg,AFSA06.jpg,AFSA06.jpg,FS,4,num_4,16,num_4,0.68350165803,,,2017_Feb_17_1426,60.0058894238,FEMA4ImagesEEG,001,000006,
AFNE01.JPG,AFNE01.JPG,AFNE01.JPG,AFNE01.JPG,AFNE01.JPG,AFNE01.JPG,,,,,,,,,3,8,38,5,,,,,,,,,,,,,,,AFNE12.jpg,AFSA16.jpg,AFNE18.jpg,AFSA09.jpg,AFSA09.jpg,FS,4,num_4,32,num_2,0.816795347724,,,2017_Feb_17_1426,60.0058894238,FEMA4ImagesEEG,001,000006,
AFNE01.JPG,AFNE01.JPG,AFNE01.JPG,AFNE01.JPG,AFNE01.JPG,AFNE01.JPG,,,,,,,,,3,9,39,1,,,,,,,,,,,,,,,AFNE09.jpg,AFNE02.jpg,AFSA03.jpg,AFSA08.jpg,AFNE02.jpg,FN,3,num_6,16,num_6,0.950107640121,,,2017_Feb_17_1426,60.0058894238,FEMA4ImagesEEG,001,000006,
AFNE01.JPG,AFNE01.JPG,AFNE01.JPG,AFNE01.JPG,AFNE01.JPG,AFNE01.JPG,,,,,,,,,4,0,40,3,,,,,,,,,,,,,,,AFNE01.jpg,AFSA12.jpg,AFNE07.jpg,AFSA10.jpg,AFSA12.jpg,FS,4,num_6,32,num_4,0.816800800152,,,2017_Feb_17_1426,60.0058894238,FEMA4ImagesEEG,001,000006,
AFNE01.JPG,AFNE01.JPG,AFNE01.JPG,AFNE01.JPG,AFNE01.JPG,AFNE01.JPG,,,,,,,,,4,1,41,0,,,,,,,,,,,,,,,AFSA13.jpg,AFNE05.jpg,AFNE18.jpg,AFSA04.jpg,AFSA04.jpg,FS,4,num_4,16,num_4,0.516802275088,,,2017_Feb_17_1426,60.0058894238,FEMA4ImagesEEG,001,000006,
AFNE01.JPG,AFNE01.JPG,AFNE01.JPG,AFNE01.JPG,AFNE01.JPG,AFNE01.JPG,,,,,,,,,4,2,42,2,,,,,,,,,,,,,,,AFNE11.jpg,AFSA16.jpg,AFSA14.jpg,AFNE16.jpg,AFNE16.jpg,FN,3,num_4,32,num_2,0.983474201988,,,2017_Feb_17_1426,60.0058894238,FEMA4ImagesEEG,001,000006,
AFNE01.JPG,AFNE01.JPG,AFNE01.JPG,AFNE01.JPG,AFNE01.JPG,AFNE01.JPG,,,,,,,,,4,3,43,7,,,,,,,,,,,,,,,AFSA01.jpg,AFNE02.jpg,AFNE10.jpg,AFSA20.jpg,AFNE02.jpg,FN,3,num_6,16,num_6,1.30009987857,,,2017_Feb_17_1426,60.0058894238,FEMA4ImagesEEG,001,000006,
AFNE01.JPG,AFNE01.JPG,AFNE01.JPG,AFNE01.JPG,AFNE01.JPG,AFNE01.JPG,,,,,,,,,4,4,44,1,,,,,,,,,,,,,,,AFSA03.jpg,AFNE06.jpg,AFNE07.jpg,AFSA11.jpg,AFSA11.jpg,FS,4,num_4,32,num_8,0.766811256297,,,2017_Feb_17_1426,60.0058894238,FEMA4ImagesEEG,001,000006,
AFNE01.JPG,AFNE01.JPG,AFNE01.JPG,AFNE01.JPG,AFNE01.JPG,AFNE01.JPG,,,,,,,,,4,5,45,5,,,,,,,,,,,,,,,AFNE04.jpg,AFSA12.jpg,AFSA09.jpg,AFNE06.jpg,AFNE04.jpg,FN,3,num_8,16,num_8,1.18346477253,,,2017_Feb_17_1426,60.0058894238,FEMA4ImagesEEG,001,000006,
AFNE01.JPG,AFNE01.JPG,AFNE01.JPG,AFNE01.JPG,AFNE01.JPG,AFNE01.JPG,,,,,,,,,4,6,46,6,,,,,,,,,,,,,,,AFSA20.jpg,AFNE16.jpg,AFNE15.jpg,AFSA18.jpg,AFSA20.jpg,FS,4,num_8,32,num_4,1.45008615032,,,2017_Feb_17_1426,60.0058894238,FEMA4ImagesEEG,001,000006,
AFNE01.JPG,AFNE01.JPG,AFNE01.JPG,AFNE01.JPG,AFNE01.JPG,AFNE01.JPG,,,,,,,,,4,7,47,8,,,,,,,,,,,,,,,AFSA13.jpg,AFNE12.jpg,AFNE16.jpg,AFSA14.jpg,AFSA14.jpg,FS,4,num_4,32,num_2,1.01678752154,,,2017_Feb_17_1426,60.0058894238,FEMA4ImagesEEG,001,000006,
AFNE01.JPG,AFNE01.JPG,AFNE01.JPG,AFNE01.JPG,AFNE01.JPG,AFNE01.JPG,,,,,,,,,4,8,48,4,,,,,,,,,,,,,,,AFSA07.jpg,AFNE17.jpg,AFNE16.jpg,AFSA03.jpg,AFSA03.jpg,FS,4,num_4,32,num_8,0.800160498358,,,2017_Feb_17_1426,60.0058894238,FEMA4ImagesEEG,001,000006,
AFNE01.JPG,AFNE01.JPG,AFNE01.JPG,AFNE01.JPG,AFNE01.JPG,AFNE01.JPG,,,,,,,,,4,9,49,9,,,,,,,,,,,,,,,AFNE17.jpg,AFSA01.jpg,AFNE07.jpg,AFSA10.jpg,AFSA10.jpg,FS,4,num_4,32,num_2,0.800142536871,,,2017_Feb_17_1426,60.0058894238,FEMA4ImagesEEG,001,000006,
AFNE01.JPG,AFNE01.JPG,AFNE01.JPG,AFNE01.JPG,AFNE01.JPG,AFNE01.JPG,,,,,,,,,5,0,50,5,,,,,,,,,,,,,,,AFNE15.jpg,AFNE20.jpg,AFSA04.jpg,AFSA14.jpg,AFSA14.jpg,FS,4,num_4,32,num_6,0.883523660246,,,2017_Feb_17_1426,60.0058894238,FEMA4ImagesEEG,001,000006,
AFNE01.JPG,AFNE01.JPG,AFNE01.JPG,AFNE01.JPG,AFNE01.JPG,AFNE01.JPG,,,,,,,,,5,1,51,0,,,,,,,,,,,,,,,AFNE02.jpg,AFSA10.jpg,AFNE03.jpg,AFSA07.jpg,AFSA07.jpg,FS,4,num_4,16,num_4,0.766813180875,,,2017_Feb_17_1426,60.0058894238,FEMA4ImagesEEG,001,000006,
AFNE01.JPG,AFNE01.JPG,AFNE01.JPG,AFNE01.JPG,AFNE01.JPG,AFNE01.JPG,,,,,,,,,5,2,52,3,,,,,,,,,,,,,,,AFNE13.jpg,AFSA03.jpg,AFNE09.jpg,AFSA17.jpg,AFNE09.jpg,FN,3,num_2,16,num_2,1.13345438056,,,2017_Feb_17_1426,60.0058894238,FEMA4ImagesEEG,001,000006,
AFNE01.JPG,AFNE01.JPG,AFNE01.JPG,AFNE01.JPG,AFNE01.JPG,AFNE01.JPG,,,,,,,,,5,3,53,1,,,,,,,,,,,,,,,AFNE01.jpg,AFSA02.jpg,AFNE06.jpg,AFSA15.jpg,AFNE06.jpg,FN,3,num_2,16,num_2,0.783469519112,,,2017_Feb_17_1426,60.0058894238,FEMA4ImagesEEG,001,000006,
AFNE01.JPG,AFNE01.JPG,AFNE01.JPG,AFNE01.JPG,AFNE01.JPG,AFNE01.JPG,,,,,,,,,5,4,54,9,,,,,,,,,,,,,,,AFNE20.jpg,AFSA14.jpg,AFSA18.jpg,AFNE11.jpg,AFSA14.jpg,FS,4,num_6,32,num_2,0.950171146542,,,2017_Feb_17_1426,60.0058894238,FEMA4ImagesEEG,001,000006,
AFNE01.JPG,AFNE01.JPG,AFNE01.JPG,AFNE01.JPG,AFNE01.JPG,AFNE01.JPG,,,,,,,,,5,5,55,6,,,,,,,,,,,,,,,AFNE17.jpg,AFNE14.jpg,AFSA16.jpg,AFSA03.jpg,AFSA16.jpg,FS,4,num_2,16,num_2,0.750113542192,,,2017_Feb_17_1426,60.0058894238,FEMA4ImagesEEG,001,000006,
AFNE01.JPG,AFNE01.JPG,AFNE01.JPG,AFNE01.JPG,AFNE01.JPG,AFNE01.JPG,,,,,,,,,5,6,56,4,,,,,,,,,,,,,,,AFNE18.jpg,AFSA06.jpg,AFNE15.jpg,AFSA12.jpg,AFNE18.jpg,FN,3,num_8,32,num_4,0.816774499603,,,2017_Feb_17_1426,60.0058894238,FEMA4ImagesEEG,001,000006,
AFNE01.JPG,AFNE01.JPG,AFNE01.JPG,AFNE01.JPG,AFNE01.JPG,AFNE01.JPG,,,,,,,,,5,7,57,8,,,,,,,,,,,,,,,AFSA06.jpg,AFSA16.jpg,AFNE13.jpg,AFNE11.jpg,AFSA16.jpg,FS,4,num_6,32,num_4,0.716890350915,,,2017_Feb_17_1426,60.0058894238,FEMA4ImagesEEG,001,000006,
AFNE01.JPG,AFNE01.JPG,AFNE01.JPG,AFNE01.JPG,AFNE01.JPG,AFNE01.JPG,,,,,,,,,5,8,58,2,,,,,,,,,,,,,,,AFNE01.jpg,AFSA03.jpg,AFNE17.jpg,AFSA20.jpg,AFSA03.jpg,FS,4,num_6,32,num_2,1.06674948195,,,2017_Feb_17_1426,60.0058894238,FEMA4ImagesEEG,001,000006,
AFNE01.JPG,AFNE01.JPG,AFNE01.JPG,AFNE01.JPG,AFNE01.JPG,AFNE01.JPG,,,,,,,,,5,9,59,7,,,,,,,,,,,,,,,AFNE03.jpg,AFSA12.jpg,AFSA01.jpg,AFNE17.jpg,AFSA12.jpg,FS,4,num_6,16,num_6,0.450207390357,,,2017_Feb_17_1426,60.0058894238,FEMA4ImagesEEG,001,000006,
,,,,,,,,,,,,,,,,,,,,,,,,,,,,,,,,,,,,,,,,,,,space,5.08312838059,2017_Feb_17_1426,60.0058894238,FEMA4ImagesEEG,001,000006,
AFNE01.JPG,AFNE01.JPG,AFNE01.JPG,AFNE01.JPG,AFNE01.JPG,AFNE01.JPG,,,,,,,,,,,,,0,0,0,0,,,,,,,,,,,AMNE06.jpg,AMNE19.jpg,AMSA12.jpg,AMSA10.jpg,AMNE19.jpg,MN,1,num_6,16,num_6,0.633530395571,,,2017_Feb_17_1426,60.0058894238,FEMA4ImagesEEG,001,000006,
AFNE01.JPG,AFNE01.JPG,AFNE01.JPG,AFNE01.JPG,AFNE01.JPG,AFNE01.JPG,,,,,,,,,,,,,0,1,1,3,,,,,,,,,,,AMSA17.jpg,AMNE11.jpg,AMSA08.jpg,AMNE10.jpg,AMNE11.jpg,MN,1,num_6,32,num_8,0.666804584675,,,2017_Feb_17_1426,60.0058894238,FEMA4ImagesEEG,001,000006,
AFNE01.JPG,AFNE01.JPG,AFNE01.JPG,AFNE01.JPG,AFNE01.JPG,AFNE01.JPG,,,,,,,,,,,,,0,2,2,5,,,,,,,,,,,AMNE04.jpg,AMSA09.jpg,AMSA10.jpg,AMNE19.jpg,AMSA09.jpg,MS,2,num_6,32,num_4,0.800152479671,,,2017_Feb_17_1426,60.0058894238,FEMA4ImagesEEG,001,000006,
AFNE01.JPG,AFNE01.JPG,AFNE01.JPG,AFNE01.JPG,AFNE01.JPG,AFNE01.JPG,,,,,,,,,,,,,0,3,3,2,,,,,,,,,,,AMSA10.jpg,AMNE07.jpg,AMSA03.jpg,AMNE05.jpg,AMNE07.jpg,MN,1,num_6,16,num_6,0.766790729016,,,2017_Feb_17_1426,60.0058894238,FEMA4ImagesEEG,001,000006,
AFNE01.JPG,AFNE01.JPG,AFNE01.JPG,AFNE01.JPG,AFNE01.JPG,AFNE01.JPG,,,,,,,,,,,,,0,4,4,9,,,,,,,,,,,AMSA11.jpg,AMSA12.jpg,AMNE03.jpg,AMNE10.jpg,AMSA11.jpg,MS,2,num_8,32,num_2,0.750117390882,,,2017_Feb_17_1426,60.0058894238,FEMA4ImagesEEG,001,000006,
AFNE01.JPG,AFNE01.JPG,AFNE01.JPG,AFNE01.JPG,AFNE01.JPG,AFNE01.JPG,,,,,,,,,,,,,0,5,5,6,,,,,,,,,,,AMSA07.jpg,AMNE10.jpg,AMNE07.jpg,AMSA03.jpg,AMSA03.jpg,MS,2,num_4,16,num_4,0.63347683195,,,2017_Feb_17_1426,60.0058894238,FEMA4ImagesEEG,001,000006,
AFNE01.JPG,AFNE01.JPG,AFNE01.JPG,AFNE01.JPG,AFNE01.JPG,AFNE01.JPG,,,,,,,,,,,,,0,6,6,1,,,,,,,,,,,AMNE08.jpg,AMNE06.jpg,AMSA01.jpg,AMSA18.jpg,AMNE06.jpg,MN,1,num_6,16,num_6,0.750125729945,,,2017_Feb_17_1426,60.0058894238,FEMA4ImagesEEG,001,000006,
AFNE01.JPG,AFNE01.JPG,AFNE01.JPG,AFNE01.JPG,AFNE01.JPG,AFNE01.JPG,,,,,,,,,,,,,0,7,7,7,,,,,,,,,,,AMSA07.jpg,AMNE09.jpg,AMSA03.jpg,AMNE15.jpg,AMSA03.jpg,MS,2,num_2,32,num_8,0.666847243439,,,2017_Feb_17_1426,60.0058894238,FEMA4ImagesEEG,001,000006,
AFNE01.JPG,AFNE01.JPG,AFNE01.JPG,AFNE01.JPG,AFNE01.JPG,AFNE01.JPG,,,,,,,,,,,,,0,8,8,4,,,,,,,,,,,AMSA17.jpg,AMSA11.jpg,AMNE03.jpg,AMNE06.jpg,AMSA11.jpg,MS,2,num_6,16,num_6,0.933409284335,,,2017_Feb_17_1426,60.0058894238,FEMA4ImagesEEG,001,000006,
AFNE01.JPG,AFNE01.JPG,AFNE01.JPG,AFNE01.JPG,AFNE01.JPG,AFNE01.JPG,,,,,,,,,,,,,0,9,9,8,,,,,,,,,,,AMSA19.jpg,AMNE04.jpg,AMSA17.jpg,AMNE15.jpg,AMSA19.jpg,MS,2,num_8,16,num_8,0.650127718691,,,2017_Feb_17_1426,60.0058894238,FEMA4ImagesEEG,001,000006,
AFNE01.JPG,AFNE01.JPG,AFNE01.JPG,AFNE01.JPG,AFNE01.JPG,AFNE01.JPG,,,,,,,,,,,,,1,0,10,9,,,,,,,,,,,AMSA17.jpg,AMNE19.jpg,AMSA20.jpg,AMNE17.jpg,AMNE19.jpg,MN,1,num_6,32,num_8,0.583535720129,,,2017_Feb_17_1426,60.0058894238,FEMA4ImagesEEG,001,000006,
AFNE01.JPG,AFNE01.JPG,AFNE01.JPG,AFNE01.JPG,AFNE01.JPG,AFNE01.JPG,,,,,,,,,,,,,1,1,11,6,,,,,,,,,,,AMNE08.jpg,AMNE05.jpg,AMSA04.jpg,AMSA05.jpg,AMSA05.jpg,MS,2,num_4,16,num_4,0.633480681106,,,2017_Feb_17_1426,60.0058894238,FEMA4ImagesEEG,001,000006,
AFNE01.JPG,AFNE01.JPG,AFNE01.JPG,AFNE01.JPG,AFNE01.JPG,AFNE01.JPG,,,,,,,,,,,,,1,2,12,7,,,,,,,,,,,AMSA10.jpg,AMNE06.jpg,AMSA09.jpg,AMNE05.jpg,AMNE06.jpg,MN,1,num_6,16,num_6,0.483507238328,,,2017_Feb_17_1426,60.0058894238,FEMA4ImagesEEG,001,000006,
AFNE01.JPG,AFNE01.JPG,AFNE01.JPG,AFNE01.JPG,AFNE01.JPG,AFNE01.JPG,,,,,,,,,,,,,1,3,13,1,,,,,,,,,,,AMNE17.jpg,AMSA09.jpg,AMSA08.jpg,AMNE02.jpg,AMSA09.jpg,MS,2,num_6,16,num_6,0.800149913877,,,2017_Feb_17_1426,60.0058894238,FEMA4ImagesEEG,001,000006,
AFNE01.JPG,AFNE01.JPG,AFNE01.JPG,AFNE01.JPG,AFNE01.JPG,AFNE01.JPG,,,,,,,,,,,,,1,4,14,3,,,,,,,,,,,AMSA19.jpg,AMNE01.jpg,AMSA08.jpg,AMNE15.jpg,AMSA08.jpg,MS,2,num_2,32,num_8,1.24989543902,,,2017_Feb_17_1426,60.0058894238,FEMA4ImagesEEG,001,000006,
AFNE01.JPG,AFNE01.JPG,AFNE01.JPG,AFNE01.JPG,AFNE01.JPG,AFNE01.JPG,,,,,,,,,,,,,1,5,15,8,,,,,,,,,,,AMNE02.jpg,AMSA14.jpg,AMSA16.jpg,AMNE04.jpg,AMSA14.jpg,MS,2,num_6,32,num_8,0.533513460774,,,2017_Feb_17_1426,60.0058894238,FEMA4ImagesEEG,001,000006,
AFNE01.JPG,AFNE01.JPG,AFNE01.JPG,AFNE01.JPG,AFNE01.JPG,AFNE01.JPG,,,,,,,,,,,,,1,6,16,5,,,,,,,,,,,AMNE10.jpg,AMSA15.jpg,AMSA16.jpg,AMNE08.jpg,AMSA15.jpg,MS,2,num_6,32,num_8,0.733486069832,,,2017_Feb_17_1426,60.0058894238,FEMA4ImagesEEG,001,000006,
AFNE01.JPG,AFNE01.JPG,AFNE01.JPG,AFNE01.JPG,AFNE01.JPG,AFNE01.JPG,,,,,,,,,,,,,1,7,17,4,,,,,,,,,,,AMNE06.jpg,AMSA02.jpg,AMNE15.jpg,AMSA09.jpg,AMSA09.jpg,MS,2,num_4,32,num_8,0.633496397641,,,2017_Feb_17_1426,60.0058894238,FEMA4ImagesEEG,001,000006,
AFNE01.JPG,AFNE01.JPG,AFNE01.JPG,AFNE01.JPG,AFNE01.JPG,AFNE01.JPG,,,,,,,,,,,,,1,8,18,2,,,,,,,,,,,AMSA05.jpg,AMSA01.jpg,AMNE20.jpg,AMNE19.jpg,AMNE19.jpg,MN,1,num_4,32,num_2,0.950114055071,,,2017_Feb_17_1426,60.0058894238,FEMA4ImagesEEG,001,000006,
AFNE01.JPG,AFNE01.JPG,AFNE01.JPG,AFNE01.JPG,AFNE01.JPG,AFNE01.JPG,,,,,,,,,,,,,1,9,19,0,,,,,,,,,,,AMSA15.jpg,AMNE05.jpg,AMNE16.jpg,AMSA03.jpg,AMNE16.jpg,MN,1,num_2,16,num_2,1.13348068157,,,2017_Feb_17_1426,60.0058894238,FEMA4ImagesEEG,001,000006,
AFNE01.JPG,AFNE01.JPG,AFNE01.JPG,AFNE01.JPG,AFNE01.JPG,AFNE01.JPG,,,,,,,,,,,,,2,0,20,2,,,,,,,,,,,AMSA16.jpg,AMSA01.jpg,AMNE19.jpg,AMNE03.jpg,AMNE03.jpg,MN,1,num_4,32,num_6,0.73347484367,,,2017_Feb_17_1426,60.0058894238,FEMA4ImagesEEG,001,000006,
AFNE01.JPG,AFNE01.JPG,AFNE01.JPG,AFNE01.JPG,AFNE01.JPG,AFNE01.JPG,,,,,,,,,,,,,2,1,21,8,,,,,,,,,,,AMNE07.jpg,AMNE10.jpg,AMSA13.jpg,AMSA11.jpg,AMSA13.jpg,MS,2,num_2,16,num_2,0.783466953319,,,2017_Feb_17_1426,60.0058894238,FEMA4ImagesEEG,001,000006,
AFNE01.JPG,AFNE01.JPG,AFNE01.JPG,AFNE01.JPG,AFNE01.JPG,AFNE01.JPG,,,,,,,,,,,,,2,2,22,9,,,,,,,,,,,AMNE04.jpg,AMSA20.jpg,AMNE03.jpg,AMSA01.jpg,AMSA01.jpg,MS,2,num_4,16,num_4,0.633490945213,,,2017_Feb_17_1426,60.0058894238,FEMA4ImagesEEG,001,000006,
AFNE01.JPG,AFNE01.JPG,AFNE01.JPG,AFNE01.JPG,AFNE01.JPG,AFNE01.JPG,,,,,,,,,,,,,2,3,23,5,,,,,,,,,,,AMSA09.jpg,AMNE02.jpg,AMSA08.jpg,AMNE08.jpg,AMSA09.jpg,MS,2,num_8,32,num_2,1.0001379177,,,2017_Feb_17_1426,60.0058894238,FEMA4ImagesEEG,001,000006,
AFNE01.JPG,AFNE01.JPG,AFNE01.JPG,AFNE01.JPG,AFNE01.JPG,AFNE01.JPG,,,,,,,,,,,,,2,4,24,4,,,,,,,,,,,AMNE10.jpg,AMNE14.jpg,AMSA16.jpg,AMSA20.jpg,AMSA16.jpg,MS,2,num_2,16,num_2,0.666844998021,,,2017_Feb_17_1426,60.0058894238,FEMA4ImagesEEG,001,000006,
AFNE01.JPG,AFNE01.JPG,AFNE01.JPG,AFNE01.JPG,AFNE01.JPG,AFNE01.JPG,,,,,,,,,,,,,2,5,25,1,,,,,,,,,,,AMNE20.jpg,AMNE12.jpg,AMSA16.jpg,AMSA18.jpg,AMSA16.jpg,MS,2,num_2,32,num_4,0.683481771499,,,2017_Feb_17_1426,60.0058894238,FEMA4ImagesEEG,001,000006,
AFNE01.JPG,AFNE01.JPG,AFNE01.JPG,AFNE01.JPG,AFNE01.JPG,AFNE01.JPG,,,,,,,,,,,,,2,6,26,3,,,,,,,,,,,AMNE10.jpg,AMNE09.jpg,AMSA03.jpg,AMSA08.jpg,AMSA08.jpg,MS,2,num_4,16,num_4,0.850153570063,,,2017_Feb_17_1426,60.0058894238,FEMA4ImagesEEG,001,000006,
AFNE01.JPG,AFNE01.JPG,AFNE01.JPG,AFNE01.JPG,AFNE01.JPG,AFNE01.JPG,,,,,,,,,,,,,2,7,27,6,,,,,,,,,,,AMSA18.jpg,AMNE12.jpg,AMSA13.jpg,AMNE07.jpg,AMSA13.jpg,MS,2,num_2,32,num_6,0.666849809233,,,2017_Feb_17_1426,60.0058894238,FEMA4ImagesEEG,001,000006,
AFNE01.JPG,AFNE01.JPG,AFNE01.JPG,AFNE01.JPG,AFNE01.JPG,AFNE01.JPG,,,,,,,,,,,,,2,8,28,7,,,,,,,,,,,AMNE05.jpg,AMNE11.jpg,AMSA14.jpg,AMSA18.jpg,AMNE11.jpg,MN,1,num_6,16,num_6,0.633492228109,,,2017_Feb_17_1426,60.0058894238,FEMA4ImagesEEG,001,000006,
AFNE01.JPG,AFNE01.JPG,AFNE01.JPG,AFNE01.JPG,AFNE01.JPG,AFNE01.JPG,,,,,,,,,,,,,2,9,29,0,,,,,,,,,,,AMNE03.jpg,AMNE01.jpg,AMSA03.jpg,AMSA13.jpg,AMSA03.jpg,MS,2,num_2,16,num_2,0.483498257585,,,2017_Feb_17_1426,60.0058894238,FEMA4ImagesEEG,001,000006,
AFNE01.JPG,AFNE01.JPG,AFNE01.JPG,AFNE01.JPG,AFNE01.JPG,AFNE01.JPG,,,,,,,,,,,,,3,0,30,6,,,,,,,,,,,AMNE19.jpg,AMSA05.jpg,AMSA16.jpg,AMNE01.jpg,AMSA16.jpg,MS,2,num_2,16,num_2,0.766809972934,,,2017_Feb_17_1426,60.0058894238,FEMA4ImagesEEG,001,000006,
AFNE01.JPG,AFNE01.JPG,AFNE01.JPG,AFNE01.JPG,AFNE01.JPG,AFNE01.JPG,,,,,,,,,,,,,3,1,31,7,,,,,,,,,,,AMSA12.jpg,AMNE09.jpg,AMNE15.jpg,AMSA20.jpg,AMSA12.jpg,MS,2,num_8,16,num_8,0.917081704363,,,2017_Feb_17_1426,60.0058894238,FEMA4ImagesEEG,001,000006,
AFNE01.JPG,AFNE01.JPG,AFNE01.JPG,AFNE01.JPG,AFNE01.JPG,AFNE01.JPG,,,,,,,,,,,,,3,2,32,1,,,,,,,,,,,AMSA05.jpg,AMNE16.jpg,AMNE02.jpg,AMSA07.jpg,AMNE16.jpg,MN,1,num_6,16,num_6,0.700169542804,,,2017_Feb_17_1426,60.0058894238,FEMA4ImagesEEG,001,000006,
AFNE01.JPG,AFNE01.JPG,AFNE01.JPG,AFNE01.JPG,AFNE01.JPG,AFNE01.JPG,,,,,,,,,,,,,3,3,33,9,,,,,,,,,,,AMNE18.jpg,AMSA14.jpg,AMSA02.jpg,AMNE14.jpg,AMSA02.jpg,MS,2,num_2,16,num_2,0.716785148252,,,2017_Feb_17_1426,60.0058894238,FEMA4ImagesEEG,001,000006,
AFNE01.JPG,AFNE01.JPG,AFNE01.JPG,AFNE01.JPG,AFNE01.JPG,AFNE01.JPG,,,,,,,,,,,,,3,4,34,0,,,,,,,,,,,AMNE08.jpg,AMSA09.jpg,AMSA18.jpg,AMNE07.jpg,AMNE07.jpg,MN,1,num_4,32,num_8,0.700183655601,,,2017_Feb_17_1426,60.0058894238,FEMA4ImagesEEG,001,000006,
AFNE01.JPG,AFNE01.JPG,AFNE01.JPG,AFNE01.JPG,AFNE01.JPG,AFNE01.JPG,,,,,,,,,,,,,3,5,35,8,,,,,,,,,,,AMNE04.jpg,AMSA02.jpg,AMSA03.jpg,AMNE15.jpg,AMSA02.jpg,MS,2,num_6,16,num_6,0.883482284844,,,2017_Feb_17_1426,60.0058894238,FEMA4ImagesEEG,001,000006,
AFNE01.JPG,AFNE01.JPG,AFNE01.JPG,AFNE01.JPG,AFNE01.JPG,AFNE01.JPG,,,,,,,,,,,,,3,6,36,5,,,,,,,,,,,AMSA17.jpg,AMSA14.jpg,AMNE15.jpg,AMNE16.jpg,AMNE16.jpg,MN,1,num_4,16,num_4,0.750104881823,,,2017_Feb_17_1426,60.0058894238,FEMA4ImagesEEG,001,000006,
AFNE01.JPG,AFNE01.JPG,AFNE01.JPG,AFNE01.JPG,AFNE01.JPG,AFNE01.JPG,,,,,,,,,,,,,3,7,37,3,,,,,,,,,,,AMNE09.jpg,AMSA18.jpg,AMSA13.jpg,AMNE01.jpg,AMSA13.jpg,MS,2,num_2,16,num_2,1.23343956238,,,2017_Feb_17_1426,60.0058894238,FEMA4ImagesEEG,001,000006,
AFNE01.JPG,AFNE01.JPG,AFNE01.JPG,AFNE01.JPG,AFNE01.JPG,AFNE01.JPG,,,,,,,,,,,,,3,8,38,2,,,,,,,,,,,AMSA05.jpg,AMNE13.jpg,AMSA14.jpg,AMNE06.jpg,AMNE13.jpg,MN,1,num_6,32,num_8,0.83347060997,,,2017_Feb_17_1426,60.0058894238,FEMA4ImagesEEG,001,000006,
AFNE01.JPG,AFNE01.JPG,AFNE01.JPG,AFNE01.JPG,AFNE01.JPG,AFNE01.JPG,,,,,,,,,,,,,3,9,39,4,,,,,,,,,,,AMNE07.jpg,AMSA14.jpg,AMNE18.jpg,AMSA12.jpg,AMNE18.jpg,MN,1,num_2,32,num_8,0.650163320825,,,2017_Feb_17_1426,60.0058894238,FEMA4ImagesEEG,001,000006,
AFNE01.JPG,AFNE01.JPG,AFNE01.JPG,AFNE01.JPG,AFNE01.JPG,AFNE01.JPG,,,,,,,,,,,,,4,0,40,4,,,,,,,,,,,AMSA06.jpg,AMSA10.jpg,AMNE13.jpg,AMNE10.jpg,AMNE13.jpg,MN,1,num_2,16,num_2,0.816794706043,,,2017_Feb_17_1426,60.0058894238,FEMA4ImagesEEG,001,000006,
AFNE01.JPG,AFNE01.JPG,AFNE01.JPG,AFNE01.JPG,AFNE01.JPG,AFNE01.JPG,,,,,,,,,,,,,4,1,41,7,,,,,,,,,,,AMSA15.jpg,AMNE13.jpg,AMSA14.jpg,AMNE02.jpg,AMSA14.jpg,MS,2,num_2,16,num_2,0.533495820127,,,2017_Feb_17_1426,60.0058894238,FEMA4ImagesEEG,001,000006,
AFNE01.JPG,AFNE01.JPG,AFNE01.JPG,AFNE01.JPG,AFNE01.JPG,AFNE01.JPG,,,,,,,,,,,,,4,2,42,9,,,,,,,,,,,AMNE18.jpg,AMSA09.jpg,AMNE15.jpg,AMSA14.jpg,AMNE18.jpg,MN,1,num_8,16,num_8,0.90014022775,,,2017_Feb_17_1426,60.0058894238,FEMA4ImagesEEG,001,000006,
AFNE01.JPG,AFNE01.JPG,AFNE01.JPG,AFNE01.JPG,AFNE01.JPG,AFNE01.JPG,,,,,,,,,,,,,4,3,43,8,,,,,,,,,,,AMNE03.jpg,AMNE20.jpg,AMSA07.jpg,AMSA01.jpg,AMNE03.jpg,MN,1,num_8,16,num_8,0.61682209745,,,2017_Feb_17_1426,60.0058894238,FEMA4ImagesEEG,001,000006,
AFNE01.JPG,AFNE01.JPG,AFNE01.JPG,AFNE01.JPG,AFNE01.JPG,AFNE01.JPG,,,,,,,,,,,,,4,4,44,6,,,,,,,,,,,AMSA02.jpg,AMNE17.jpg,AMSA20.jpg,AMNE10.jpg,AMSA20.jpg,MS,2,num_2,32,num_6,1.01681253919,,,2017_Feb_17_1426,60.0058894238,FEMA4ImagesEEG,001,000006,
AFNE01.JPG,AFNE01.JPG,AFNE01.JPG,AFNE01.JPG,AFNE01.JPG,AFNE01.JPG,,,,,,,,,,,,,4,5,45,1,,,,,,,,,,,AMNE18.jpg,AMSA14.jpg,AMNE03.jpg,AMSA16.jpg,AMSA14.jpg,MS,2,num_6,16,num_6,0.683495242614,,,2017_Feb_17_1426,60.0058894238,FEMA4ImagesEEG,001,000006,
AFNE01.JPG,AFNE01.JPG,AFNE01.JPG,AFNE01.JPG,AFNE01.JPG,AFNE01.JPG,,,,,,,,,,,,,4,6,46,3,,,,,,,,,,,AMNE09.jpg,AMSA06.jpg,AMNE14.jpg,AMSA14.jpg,AMNE14.jpg,MN,1,num_2,16,num_2,1.05011238717,,,2017_Feb_17_1426,60.0058894238,FEMA4ImagesEEG,001,000006,
AFNE01.JPG,AFNE01.JPG,AFNE01.JPG,AFNE01.JPG,AFNE01.JPG,AFNE01.JPG,,,,,,,,,,,,,4,7,47,0,,,,,,,,,,,AMSA08.jpg,AMSA18.jpg,AMNE16.jpg,AMNE08.jpg,AMNE08.jpg,MN,1,num_4,16,num_4,0.866769495886,,,2017_Feb_17_1426,60.0058894238,FEMA4ImagesEEG,001,000006,
AFNE01.JPG,AFNE01.JPG,AFNE01.JPG,AFNE01.JPG,AFNE01.JPG,AFNE01.JPG,,,,,,,,,,,,,4,8,48,2,,,,,,,,,,,AMNE20.jpg,AMSA14.jpg,AMSA10.jpg,AMNE08.jpg,AMNE20.jpg,MN,1,num_8,32,num_6,0.800107576419,,,2017_Feb_17_1426,60.0058894238,FEMA4ImagesEEG,001,000006,
AFNE01.JPG,AFNE01.JPG,AFNE01.JPG,AFNE01.JPG,AFNE01.JPG,AFNE01.JPG,,,,,,,,,,,,,4,9,49,5,,,,,,,,,,,AMSA19.jpg,AMSA15.jpg,AMNE09.jpg,AMNE15.jpg,AMNE09.jpg,MN,1,num_2,32,num_4,0.750121239573,,,2017_Feb_17_1426,60.0058894238,FEMA4ImagesEEG,001,000006,
AFNE01.JPG,AFNE01.JPG,AFNE01.JPG,AFNE01.JPG,AFNE01.JPG,AFNE01.JPG,,,,,,,,,,,,,5,0,50,5,,,,,,,,,,,AMNE06.jpg,AMSA12.jpg,AMSA16.jpg,AMNE17.jpg,AMSA12.jpg,MS,2,num_6,32,num_2,0.750131824054,,,2017_Feb_17_1426,60.0058894238,FEMA4ImagesEEG,001,000006,
AFNE01.JPG,AFNE01.JPG,AFNE01.JPG,AFNE01.JPG,AFNE01.JPG,AFNE01.JPG,,,,,,,,,,,,,5,1,51,6,,,,,,,,,,,AMNE07.jpg,AMNE10.jpg,AMSA02.jpg,AMSA16.jpg,AMSA02.jpg,MS,2,num_2,16,num_2,1.58306134585,,,2017_Feb_17_1426,60.0058894238,FEMA4ImagesEEG,001,000006,
AFNE01.JPG,AFNE01.JPG,AFNE01.JPG,AFNE01.JPG,AFNE01.JPG,AFNE01.JPG,,,,,,,,,,,,,5,2,52,1,,,,,,,,,,,AMSA09.jpg,AMNE06.jpg,AMNE05.jpg,AMSA08.jpg,AMNE05.jpg,MN,1,num_2,32,num_6,0.78334860038,,,2017_Feb_17_1426,60.0058894238,FEMA4ImagesEEG,001,000006,
AFNE01.JPG,AFNE01.JPG,AFNE01.JPG,AFNE01.JPG,AFNE01.JPG,AFNE01.JPG,,,,,,,,,,,,,5,3,53,9,,,,,,,,,,,AMNE20.jpg,AMSA10.jpg,AMNE13.jpg,AMSA05.jpg,AMNE20.jpg,MN,1,num_8,32,num_2,0.633445399813,,,2017_Feb_17_1426,60.0058894238,FEMA4ImagesEEG,001,000006,
AFNE01.JPG,AFNE01.JPG,AFNE01.JPG,AFNE01.JPG,AFNE01.JPG,AFNE01.JPG,,,,,,,,,,,,,5,4,54,2,,,,,,,,,,,AMSA06.jpg,AMSA04.jpg,AMNE05.jpg,AMNE18.jpg,AMSA04.jpg,MS,2,num_6,16,num_6,0.650131888222,,,2017_Feb_17_1426,60.0058894238,FEMA4ImagesEEG,001,000006,
AFNE01.JPG,AFNE01.JPG,AFNE01.JPG,AFNE01.JPG,AFNE01.JPG,AFNE01.JPG,,,,,,,,,,,,,5,5,55,8,,,,,,,,,,,AMNE02.jpg,AMSA13.jpg,AMNE14.jpg,AMSA17.jpg,AMNE14.jpg,MN,1,num_2,16,num_2,1.48337669717,,,2017_Feb_17_1426,60.0058894238,FEMA4ImagesEEG,001,000006,
AFNE01.JPG,AFNE01.JPG,AFNE01.JPG,AFNE01.JPG,AFNE01.JPG,AFNE01.JPG,,,,,,,,,,,,,5,6,56,3,,,,,,,,,,,AMNE15.jpg,AMSA13.jpg,AMSA07.jpg,AMNE01.jpg,AMSA13.jpg,MS,2,num_6,16,num_6,0.883518528659,,,2017_Feb_17_1426,60.0058894238,FEMA4ImagesEEG,001,000006,
AFNE01.JPG,AFNE01.JPG,AFNE01.JPG,AFNE01.JPG,AFNE01.JPG,AFNE01.JPG,,,,,,,,,,,,,5,7,57,4,,,,,,,,,,,AMSA16.jpg,AMSA05.jpg,AMNE04.jpg,AMNE16.jpg,AMSA16.jpg,MS,2,num_8,32,num_6,0.93345931964,,,2017_Feb_17_1426,60.0058894238,FEMA4ImagesEEG,001,000006,
AFNE01.JPG,AFNE01.JPG,AFNE01.JPG,AFNE01.JPG,AFNE01.JPG,AFNE01.JPG,,,,,,,,,,,,,5,8,58,0,,,,,,,,,,,AMNE02.jpg,AMSA10.jpg,AMSA07.jpg,AMNE07.jpg,AMNE02.jpg,MN,1,num_8,32,num_2,0.816889003385,,,2017_Feb_17_1426,60.0058894238,FEMA4ImagesEEG,001,000006,
AFNE01.JPG,AFNE01.JPG,AFNE01.JPG,AFNE01.JPG,AFNE01.JPG,AFNE01.JPG,,,,,,,,,,,,,5,9,59,7,,,,,,,,,,,AMNE03.jpg,AMSA16.jpg,AMNE14.jpg,AMSA05.jpg,AMSA16.jpg,MS,2,num_6,16,num_6,0.950155751314,,,2017_Feb_17_1426,60.0058894238,FEMA4ImagesEEG,001,000006,
,,,,,,,,,,,,,,,,,,,,,,,,,,,,,,,,,,,,,,,,,,,space,10.9326982046,2017_Feb_17_1426,60.0058894238,FEMA4ImagesEEG,001,000006,
AFNE01.JPG,AFNE01.JPG,AFNE01.JPG,AFNE01.JPG,AFNE01.JPG,AFNE01.JPG,,,,,,,,,,,,,,,,,0,0,0,2,,,,,,,AFNE08.jpg,AFNE01.jpg,AFSA17.jpg,AFSA04.jpg,AFNE01.jpg,FN,3,num_6,16,num_6,0.633453418501,,,2017_Feb_17_1426,60.0058894238,FEMA4ImagesEEG,001,000006,
AFNE01.JPG,AFNE01.JPG,AFNE01.JPG,AFNE01.JPG,AFNE01.JPG,AFNE01.JPG,,,,,,,,,,,,,,,,,0,1,1,7,,,,,,,AFNE11.jpg,AFNE09.jpg,AFSA17.jpg,AFSA10.jpg,AFNE11.jpg,FN,3,num_8,16,num_8,0.716799260117,,,2017_Feb_17_1426,60.0058894238,FEMA4ImagesEEG,001,000006,
AFNE01.JPG,AFNE01.JPG,AFNE01.JPG,AFNE01.JPG,AFNE01.JPG,AFNE01.JPG,,,,,,,,,,,,,,,,,0,2,2,1,,,,,,,AFSA17.jpg,AFNE07.jpg,AFSA03.jpg,AFNE11.jpg,AFSA17.jpg,FS,4,num_8,32,num_2,0.766838518903,,,2017_Feb_17_1426,60.0058894238,FEMA4ImagesEEG,001,000006,
AFNE01.JPG,AFNE01.JPG,AFNE01.JPG,AFNE01.JPG,AFNE01.JPG,AFNE01.JPG,,,,,,,,,,,,,,,,,0,3,3,0,,,,,,,AFSA05.jpg,AFNE10.jpg,AFNE02.jpg,AFSA08.jpg,AFSA05.jpg,FS,4,num_8,32,num_4,0.983539632987,,,2017_Feb_17_1426,60.0058894238,FEMA4ImagesEEG,001,000006,
AFNE01.JPG,AFNE01.JPG,AFNE01.JPG,AFNE01.JPG,AFNE01.JPG,AFNE01.JPG,,,,,,,,,,,,,,,,,0,4,4,3,,,,,,,AFSA18.jpg,AFNE04.jpg,AFSA11.jpg,AFNE11.jpg,AFNE04.jpg,FN,3,num_6,32,num_2,0.966839032248,,,2017_Feb_17_1426,60.0058894238,FEMA4ImagesEEG,001,000006,
AFNE01.JPG,AFNE01.JPG,AFNE01.JPG,AFNE01.JPG,AFNE01.JPG,AFNE01.JPG,,,,,,,,,,,,,,,,,0,5,5,6,,,,,,,AFSA19.jpg,AFSA02.jpg,AFNE04.jpg,AFNE11.jpg,AFNE04.jpg,FN,3,num_2,16,num_2,0.700128809083,,,2017_Feb_17_1426,60.0058894238,FEMA4ImagesEEG,001,000006,
AFNE01.JPG,AFNE01.JPG,AFNE01.JPG,AFNE01.JPG,AFNE01.JPG,AFNE01.JPG,,,,,,,,,,,,,,,,,0,6,6,4,,,,,,,AFSA03.jpg,AFNE09.jpg,AFNE04.jpg,AFSA09.jpg,AFSA03.jpg,FS,4,num_8,16,num_8,0.566836081445,,,2017_Feb_17_1426,60.0058894238,FEMA4ImagesEEG,001,000006,
AFNE01.JPG,AFNE01.JPG,AFNE01.JPG,AFNE01.JPG,AFNE01.JPG,AFNE01.JPG,,,,,,,,,,,,,,,,,0,7,7,8,,,,,,,AFNE02.jpg,AFSA17.jpg,AFNE20.jpg,AFSA18.jpg,AFSA17.jpg,FS,4,num_6,32,num_4,1.08347959071,,,2017_Feb_17_1426,60.0058894238,FEMA4ImagesEEG,001,000006,
AFNE01.JPG,AFNE01.JPG,AFNE01.JPG,AFNE01.JPG,AFNE01.JPG,AFNE01.JPG,,,,,,,,,,,,,,,,,0,8,8,9,,,,,,,AFNE14.jpg,AFSA11.jpg,AFSA17.jpg,AFNE16.jpg,AFSA17.jpg,FS,4,num_2,32,num_4,0.883480681106,,,2017_Feb_17_1426,60.0058894238,FEMA4ImagesEEG,001,000006,
AFNE01.JPG,AFNE01.JPG,AFNE01.JPG,AFNE01.JPG,AFNE01.JPG,AFNE01.JPG,,,,,,,,,,,,,,,,,0,9,9,5,,,,,,,AFSA03.jpg,AFNE14.jpg,AFNE03.jpg,AFSA13.jpg,AFSA03.jpg,FS,4,num_8,32,num_2,1.15013220906,,,2017_Feb_17_1426,60.0058894238,FEMA4ImagesEEG,001,000006,
AFNE01.JPG,AFNE01.JPG,AFNE01.JPG,AFNE01.JPG,AFNE01.JPG,AFNE01.JPG,,,,,,,,,,,,,,,,,1,0,10,7,,,,,,,AFSA19.jpg,AFSA17.jpg,AFNE15.jpg,AFNE03.jpg,AFSA17.jpg,FS,4,num_6,32,num_4,0.616796117276,,,2017_Feb_17_1426,60.0058894238,FEMA4ImagesEEG,001,000006,
AFNE01.JPG,AFNE01.JPG,AFNE01.JPG,AFNE01.JPG,AFNE01.JPG,AFNE01.JPG,,,,,,,,,,,,,,,,,1,1,11,2,,,,,,,AFSA11.jpg,AFNE16.jpg,AFNE13.jpg,AFSA09.jpg,AFSA11.jpg,FS,4,num_8,32,num_4,0.716803109273,,,2017_Feb_17_1426,60.0058894238,FEMA4ImagesEEG,001,000006,
AFNE01.JPG,AFNE01.JPG,AFNE01.JPG,AFNE01.JPG,AFNE01.JPG,AFNE01.JPG,,,,,,,,,,,,,,,,,1,2,12,3,,,,,,,AFNE01.jpg,AFSA12.jpg,AFNE10.jpg,AFSA10.jpg,AFSA10.jpg,FS,4,num_4,32,num_8,0.833445592318,,,2017_Feb_17_1426,60.0058894238,FEMA4ImagesEEG,001,000006,
AFNE01.JPG,AFNE01.JPG,AFNE01.JPG,AFNE01.JPG,AFNE01.JPG,AFNE01.JPG,,,,,,,,,,,,,,,,,1,3,13,4,,,,,,,AFNE04.jpg,AFSA05.jpg,AFNE10.jpg,AFSA17.jpg,AFSA17.jpg,FS,4,num_4,16,num_4,0.616781683639,,,2017_Feb_17_1426,60.0058894238,FEMA4ImagesEEG,001,000006,
AFNE01.JPG,AFNE01.JPG,AFNE01.JPG,AFNE01.JPG,AFNE01.JPG,AFNE01.JPG,,,,,,,,,,,,,,,,,1,4,14,9,,,,,,,AFNE10.jpg,AFSA04.jpg,AFSA02.jpg,AFNE03.jpg,AFNE03.jpg,FN,3,num_4,16,num_4,0.600159985013,,,2017_Feb_17_1426,60.0058894238,FEMA4ImagesEEG,001,000006,
AFNE01.JPG,AFNE01.JPG,AFNE01.JPG,AFNE01.JPG,AFNE01.JPG,AFNE01.JPG,,,,,,,,,,,,,,,,,1,5,15,0,,,,,,,AFNE16.jpg,AFSA04.jpg,AFNE03.jpg,AFSA09.jpg,AFNE16.jpg,FN,3,num_8,32,num_6,0.950087754522,,,2017_Feb_17_1426,60.0058894238,FEMA4ImagesEEG,001,000006,
AFNE01.JPG,AFNE01.JPG,AFNE01.JPG,AFNE01.JPG,AFNE01.JPG,AFNE01.JPG,,,,,,,,,,,,,,,,,1,6,16,8,,,,,,,AFSA02.jpg,AFSA05.jpg,AFNE01.jpg,AFNE05.jpg,AFSA02.jpg,FS,4,num_8,32,num_4,1.03338548541,,,2017_Feb_17_1426,60.0058894238,FEMA4ImagesEEG,001,000006,
AFNE01.JPG,AFNE01.JPG,AFNE01.JPG,AFNE01.JPG,AFNE01.JPG,AFNE01.JPG,,,,,,,,,,,,,,,,,1,7,17,6,,,,,,,AFNE08.jpg,AFNE07.jpg,AFSA16.jpg,AFSA18.jpg,AFSA18.jpg,FS,4,num_4,32,num_2,0.750110334717,,,2017_Feb_17_1426,60.0058894238,FEMA4ImagesEEG,001,000006,
AFNE01.JPG,AFNE01.JPG,AFNE01.JPG,AFNE01.JPG,AFNE01.JPG,AFNE01.JPG,,,,,,,,,,,,,,,,,1,8,18,1,,,,,,,AFNE04.jpg,AFSA06.jpg,AFSA09.jpg,AFNE13.jpg,AFSA06.jpg,FS,4,num_6,32,num_4,0.716832617763,,,2017_Feb_17_1426,60.0058894238,FEMA4ImagesEEG,001,000006,
AFNE01.JPG,AFNE01.JPG,AFNE01.JPG,AFNE01.JPG,AFNE01.JPG,AFNE01.JPG,,,,,,,,,,,,,,,,,1,9,19,5,,,,,,,AFNE16.jpg,AFSA02.jpg,AFSA12.jpg,AFNE08.jpg,AFNE08.jpg,FN,3,num_4,32,num_2,0.566784121562,,,2017_Feb_17_1426,60.0058894238,FEMA4ImagesEEG,001,000006,
AFNE01.JPG,AFNE01.JPG,AFNE01.JPG,AFNE01.JPG,AFNE01.JPG,AFNE01.JPG,,,,,,,,,,,,,,,,,2,0,20,4,,,,,,,AFNE03.jpg,AFNE08.jpg,AFSA18.jpg,AFSA15.jpg,AFSA18.jpg,FS,4,num_2,16,num_2,1.20011052722,,,2017_Feb_17_1426,60.0058894238,FEMA4ImagesEEG,001,000006,
AFNE01.JPG,AFNE01.JPG,AFNE01.JPG,AFNE01.JPG,AFNE01.JPG,AFNE01.JPG,,,,,,,,,,,,,,,,,2,1,21,6,,,,,,,AFSA08.jpg,AFSA15.jpg,AFNE18.jpg,AFNE12.jpg,AFSA08.jpg,FS,4,num_8,16,num_8,0.883454380557,,,2017_Feb_17_1426,60.0058894238,FEMA4ImagesEEG,001,000006,
AFNE01.JPG,AFNE01.JPG,AFNE01.JPG,AFNE01.JPG,AFNE01.JPG,AFNE01.JPG,,,,,,,,,,,,,,,,,2,2,22,5,,,,,,,AFNE12.jpg,AFNE02.jpg,AFSA01.jpg,AFSA13.jpg,AFNE02.jpg,FN,3,num_6,16,num_6,0.566794385202,,,2017_Feb_17_1426,60.0058894238,FEMA4ImagesEEG,001,000006,
AFNE01.JPG,AFNE01.JPG,AFNE01.JPG,AFNE01.JPG,AFNE01.JPG,AFNE01.JPG,,,,,,,,,,,,,,,,,2,3,23,7,,,,,,,AFSA15.jpg,AFNE10.jpg,AFNE07.jpg,AFSA09.jpg,AFSA09.jpg,FS,4,num_4,32,num_2,0.699860349763,,,2017_Feb_17_1426,60.0058894238,FEMA4ImagesEEG,001,000006,
AFNE01.JPG,AFNE01.JPG,AFNE01.JPG,AFNE01.JPG,AFNE01.JPG,AFNE01.JPG,,,,,,,,,,,,,,,,,2,4,24,0,,,,,,,AFSA11.jpg,AFNE05.jpg,AFNE18.jpg,AFSA09.jpg,AFNE18.jpg,FN,3,num_2,16,num_2,0.616841341369,,,2017_Feb_17_1426,60.0058894238,FEMA4ImagesEEG,001,000006,
AFNE01.JPG,AFNE01.JPG,AFNE01.JPG,AFNE01.JPG,AFNE01.JPG,AFNE01.JPG,,,,,,,,,,,,,,,,,2,5,25,9,,,,,,,AFNE12.jpg,AFSA01.jpg,AFNE17.jpg,AFSA14.jpg,AFSA01.jpg,FS,4,num_6,16,num_6,0.683480167761,,,2017_Feb_17_1426,60.0058894238,FEMA4ImagesEEG,001,000006,
AFNE01.JPG,AFNE01.JPG,AFNE01.JPG,AFNE01.JPG,AFNE01.JPG,AFNE01.JPG,,,,,,,,,,,,,,,,,2,6,26,3,,,,,,,AFNE02.jpg,AFSA20.jpg,AFNE12.jpg,AFSA01.jpg,AFSA20.jpg,FS,4,num_6,16,num_6,0.76677020127,,,2017_Feb_17_1426,60.0058894238,FEMA4ImagesEEG,001,000006,
AFNE01.JPG,AFNE01.JPG,AFNE01.JPG,AFNE01.JPG,AFNE01.JPG,AFNE01.JPG,,,,,,,,,,,,,,,,,2,7,27,1,,,,,,,AFNE03.jpg,AFSA20.jpg,AFSA11.jpg,AFNE07.jpg,AFSA20.jpg,FS,4,num_6,32,num_8,1.06676904671,,,2017_Feb_17_1426,60.0058894238,FEMA4ImagesEEG,001,000006,
AFNE01.JPG,AFNE01.JPG,AFNE01.JPG,AFNE01.JPG,AFNE01.JPG,AFNE01.JPG,,,,,,,,,,,,,,,,,2,8,28,2,,,,,,,AFNE20.jpg,AFSA16.jpg,AFSA11.jpg,AFNE15.jpg,AFSA11.jpg,FS,4,num_2,32,num_8,1.31673921831,,,2017_Feb_17_1426,60.0058894238,FEMA4ImagesEEG,001,000006,
AFNE01.JPG,AFNE01.JPG,AFNE01.JPG,AFNE01.JPG,AFNE01.JPG,AFNE01.JPG,,,,,,,,,,,,,,,,,2,9,29,8,,,,,,,AFNE05.jpg,AFNE04.jpg,AFSA06.jpg,AFSA08.jpg,AFNE04.jpg,FN,3,num_6,16,num_6,0.583492740989,,,2017_Feb_17_1426,60.0058894238,FEMA4ImagesEEG,001,000006,
AFNE01.JPG,AFNE01.JPG,AFNE01.JPG,AFNE01.JPG,AFNE01.JPG,AFNE01.JPG,,,,,,,,,,,,,,,,,3,0,30,8,,,,,,,AFNE06.jpg,AFSA11.jpg,AFNE04.jpg,AFSA12.jpg,AFSA11.jpg,FS,4,num_6,16,num_6,0.483496653847,,,2017_Feb_17_1426,60.0058894238,FEMA4ImagesEEG,001,000006,
AFNE01.JPG,AFNE01.JPG,AFNE01.JPG,AFNE01.JPG,AFNE01.JPG,AFNE01.JPG,,,,,,,,,,,,,,,,,3,1,31,7,,,,,,,AFNE12.jpg,AFSA09.jpg,AFNE13.jpg,AFSA04.jpg,AFSA04.jpg,FS,4,num_4,32,num_6,0.81679598894,,,2017_Feb_17_1426,60.0058894238,FEMA4ImagesEEG,001,000006,
AFNE01.JPG,AFNE01.JPG,AFNE01.JPG,AFNE01.JPG,AFNE01.JPG,AFNE01.JPG,,,,,,,,,,,,,,,,,3,2,32,0,,,,,,,AFNE19.jpg,AFSA05.jpg,AFNE03.jpg,AFSA06.jpg,AFSA06.jpg,FS,4,num_4,32,num_8,0.783456048463,,,2017_Feb_17_1426,60.0058894238,FEMA4ImagesEEG,001,000006,
AFNE01.JPG,AFNE01.JPG,AFNE01.JPG,AFNE01.JPG,AFNE01.JPG,AFNE01.JPG,,,,,,,,,,,,,,,,,3,3,33,3,,,,,,,AFSA11.jpg,AFNE09.jpg,AFSA16.jpg,AFNE08.jpg,AFNE08.jpg,FN,3,num_4,32,num_6,1.01679008733,,,2017_Feb_17_1426,60.0058894238,FEMA4ImagesEEG,001,000006,
AFNE01.JPG,AFNE01.JPG,AFNE01.JPG,AFNE01.JPG,AFNE01.JPG,AFNE01.JPG,,,,,,,,,,,,,,,,,3,4,34,2,,,,,,,AFNE18.jpg,AFSA11.jpg,AFNE17.jpg,AFSA13.jpg,AFNE18.jpg,FN,3,num_8,16,num_8,1.2001422802,,,2017_Feb_17_1426,60.0058894238,FEMA4ImagesEEG,001,000006,
AFNE01.JPG,AFNE01.JPG,AFNE01.JPG,AFNE01.JPG,AFNE01.JPG,AFNE01.JPG,,,,,,,,,,,,,,,,,3,5,35,6,,,,,,,AFSA19.jpg,AFSA06.jpg,AFNE07.jpg,AFNE02.jpg,AFNE02.jpg,FN,3,num_4,16,num_4,0.633439626545,,,2017_Feb_17_1426,60.0058894238,FEMA4ImagesEEG,001,000006,
AFNE01.JPG,AFNE01.JPG,AFNE01.JPG,AFNE01.JPG,AFNE01.JPG,AFNE01.JPG,,,,,,,,,,,,,,,,,3,6,36,9,,,,,,,AFSA08.jpg,AFNE01.jpg,AFNE10.jpg,AFSA11.jpg,AFNE10.jpg,FN,3,num_2,16,num_2,0.933460923377,,,2017_Feb_17_1426,60.0058894238,FEMA4ImagesEEG,001,000006,
AFNE01.JPG,AFNE01.JPG,AFNE01.JPG,AFNE01.JPG,AFNE01.JPG,AFNE01.JPG,,,,,,,,,,,,,,,,,3,7,37,4,,,,,,,AFSA19.jpg,AFNE14.jpg,AFNE04.jpg,AFSA14.jpg,AFSA19.jpg,FS,4,num_8,16,num_8,0.800118481275,,,2017_Feb_17_1426,60.0058894238,FEMA4ImagesEEG,001,000006,
AFNE01.JPG,AFNE01.JPG,AFNE01.JPG,AFNE01.JPG,AFNE01.JPG,AFNE01.JPG,,,,,,,,,,,,,,,,,3,8,38,1,,,,,,,AFNE10.jpg,AFSA04.jpg,AFSA07.jpg,AFNE12.jpg,AFSA07.jpg,FS,4,num_2,32,num_8,0.766841085162,,,2017_Feb_17_1426,60.0058894238,FEMA4ImagesEEG,001,000006,
AFNE01.JPG,AFNE01.JPG,AFNE01.JPG,AFNE01.JPG,AFNE01.JPG,AFNE01.JPG,,,,,,,,,,,,,,,,,3,9,39,5,,,,,,,AFNE12.jpg,AFNE05.jpg,AFSA01.jpg,AFSA08.jpg,AFNE05.jpg,FN,3,num_6,16,num_6,0.733480937779,,,2017_Feb_17_1426,60.0058894238,FEMA4ImagesEEG,001,000006,
AFNE01.JPG,AFNE01.JPG,AFNE01.JPG,AFNE01.JPG,AFNE01.JPG,AFNE01.JPG,,,,,,,,,,,,,,,,,4,0,40,5,,,,,,,AFSA08.jpg,AFNE04.jpg,AFNE20.jpg,AFSA13.jpg,AFSA13.jpg,FS,4,num_4,32,num_8,0.950159920845,,,2017_Feb_17_1426,60.0058894238,FEMA4ImagesEEG,001,000006,
AFNE01.JPG,AFNE01.JPG,AFNE01.JPG,AFNE01.JPG,AFNE01.JPG,AFNE01.JPG,,,,,,,,,,,,,,,,,4,1,41,2,,,,,,,AFSA20.jpg,AFSA01.jpg,AFNE01.jpg,AFNE20.jpg,AFSA01.jpg,FS,4,num_6,32,num_2,1.01662458573,,,2017_Feb_17_1426,60.0058894238,FEMA4ImagesEEG,001,000006,
AFNE01.JPG,AFNE01.JPG,AFNE01.JPG,AFNE01.JPG,AFNE01.JPG,AFNE01.JPG,,,,,,,,,,,,,,,,,4,2,42,6,,,,,,,AFNE10.jpg,AFNE02.jpg,AFSA20.jpg,AFSA13.jpg,AFNE10.jpg,FN,3,num_8,16,num_8,0.616783608217,,,2017_Feb_17_1426,60.0058894238,FEMA4ImagesEEG,001,000006,
AFNE01.JPG,AFNE01.JPG,AFNE01.JPG,AFNE01.JPG,AFNE01.JPG,AFNE01.JPG,,,,,,,,,,,,,,,,,4,3,43,9,,,,,,,AFNE20.jpg,AFNE14.jpg,AFSA10.jpg,AFSA05.jpg,AFNE20.jpg,FN,3,num_8,32,num_6,1.00014048396,,,2017_Feb_17_1426,60.0058894238,FEMA4ImagesEEG,001,000006,
AFNE01.JPG,AFNE01.JPG,AFNE01.JPG,AFNE01.JPG,AFNE01.JPG,AFNE01.JPG,,,,,,,,,,,,,,,,,4,4,44,1,,,,,,,AFSA01.jpg,AFSA07.jpg,AFNE10.jpg,AFNE08.jpg,AFSA07.jpg,FS,4,num_6,16,num_6,0.666785340291,,,2017_Feb_17_1426,60.0058894238,FEMA4ImagesEEG,001,000006,
AFNE01.JPG,AFNE01.JPG,AFNE01.JPG,AFNE01.JPG,AFNE01.JPG,AFNE01.JPG,,,,,,,,,,,,,,,,,4,5,45,8,,,,,,,AFNE11.jpg,AFNE09.jpg,AFSA02.jpg,AFSA13.jpg,AFNE11.jpg,FN,3,num_8,32,num_2,1.35014298605,,,2017_Feb_17_1426,60.0058894238,FEMA4ImagesEEG,001,000006,
AFNE01.JPG,AFNE01.JPG,AFNE01.JPG,AFNE01.JPG,AFNE01.JPG,AFNE01.JPG,,,,,,,,,,,,,,,,,4,6,46,3,,,,,,,AFSA20.jpg,AFNE03.jpg,AFNE09.jpg,AFSA11.jpg,AFSA20.jpg,FS,4,num_8,16,num_8,0.750144653488,,,2017_Feb_17_1426,60.0058894238,FEMA4ImagesEEG,001,000006,
AFNE01.JPG,AFNE01.JPG,AFNE01.JPG,AFNE01.JPG,AFNE01.JPG,AFNE01.JPG,,,,,,,,,,,,,,,,,4,7,47,0,,,,,,,AFNE11.jpg,AFNE13.jpg,AFSA02.jpg,AFSA01.jpg,AFSA01.jpg,FS,4,num_4,32,num_2,1.38342487253,,,2017_Feb_17_1426,60.0058894238,FEMA4ImagesEEG,001,000006,
AFNE01.JPG,AFNE01.JPG,AFNE01.JPG,AFNE01.JPG,AFNE01.JPG,AFNE01.JPG,,,,,,,,,,,,,,,,,4,8,48,7,,,,,,,AFSA01.jpg,AFNE02.jpg,AFNE14.jpg,AFSA02.jpg,AFSA02.jpg,FS,4,num_4,16,num_4,0.600132080726,,,2017_Feb_17_1426,60.0058894238,FEMA4ImagesEEG,001,000006,
AFNE01.JPG,AFNE01.JPG,AFNE01.JPG,AFNE01.JPG,AFNE01.JPG,AFNE01.JPG,,,,,,,,,,,,,,,,,4,9,49,4,,,,,,,AFNE02.jpg,AFSA03.jpg,AFNE10.jpg,AFSA14.jpg,AFNE10.jpg,FN,3,num_2,16,num_2,0.816819723696,,,2017_Feb_17_1426,60.0058894238,FEMA4ImagesEEG,001,000006,
AFNE01.JPG,AFNE01.JPG,AFNE01.JPG,AFNE01.JPG,AFNE01.JPG,AFNE01.JPG,,,,,,,,,,,,,,,,,5,0,50,5,,,,,,,AFSA10.jpg,AFNE04.jpg,AFSA07.jpg,AFNE15.jpg,AFNE04.jpg,FN,3,num_6,16,num_6,0.533491008915,,,2017_Feb_17_1426,60.0058894238,FEMA4ImagesEEG,001,000006,
AFNE01.JPG,AFNE01.JPG,AFNE01.JPG,AFNE01.JPG,AFNE01.JPG,AFNE01.JPG,,,,,,,,,,,,,,,,,5,1,51,4,,,,,,,AFNE16.jpg,AFSA06.jpg,AFNE09.jpg,AFSA02.jpg,AFNE16.jpg,FN,3,num_8,16,num_8,0.716773601249,,,2017_Feb_17_1426,60.0058894238,FEMA4ImagesEEG,001,000006,
AFNE01.JPG,AFNE01.JPG,AFNE01.JPG,AFNE01.JPG,AFNE01.JPG,AFNE01.JPG,,,,,,,,,,,,,,,,,5,2,52,1,,,,,,,AFSA14.jpg,AFNE04.jpg,AFNE09.jpg,AFSA06.jpg,AFSA06.jpg,FS,4,num_4,32,num_8,0.766789445654,,,2017_Feb_17_1426,60.0058894238,FEMA4ImagesEEG,001,000006,
AFNE01.JPG,AFNE01.JPG,AFNE01.JPG,AFNE01.JPG,AFNE01.JPG,AFNE01.JPG,,,,,,,,,,,,,,,,,5,3,53,3,,,,,,,AFNE15.jpg,AFSA03.jpg,AFSA16.jpg,AFNE10.jpg,AFNE10.jpg,FN,3,num_4,32,num_2,1.03344193613,,,2017_Feb_17_1426,60.0058894238,FEMA4ImagesEEG,001,000006,
AFNE01.JPG,AFNE01.JPG,AFNE01.JPG,AFNE01.JPG,AFNE01.JPG,AFNE01.JPG,,,,,,,,,,,,,,,,,5,4,54,9,,,,,,,AFNE01.jpg,AFSA18.jpg,AFNE05.jpg,AFSA01.jpg,AFNE05.jpg,FN,3,num_2,32,num_8,0.650156905875,,,2017_Feb_17_1426,60.0058894238,FEMA4ImagesEEG,001,000006,
AFNE01.JPG,AFNE01.JPG,AFNE01.JPG,AFNE01.JPG,AFNE01.JPG,AFNE01.JPG,,,,,,,,,,,,,,,,,5,5,55,7,,,,,,,AFSA20.jpg,AFNE02.jpg,AFSA10.jpg,AFNE17.jpg,AFSA20.jpg,FS,4,num_8,16,num_8,0.833464836236,,,2017_Feb_17_1426,60.0058894238,FEMA4ImagesEEG,001,000006,
AFNE01.JPG,AFNE01.JPG,AFNE01.JPG,AFNE01.JPG,AFNE01.JPG,AFNE01.JPG,,,,,,,,,,,,,,,,,5,6,56,6,,,,,,,AFNE05.jpg,AFNE06.jpg,AFSA06.jpg,AFSA17.jpg,AFSA17.jpg,FS,4,num_4,32,num_8,1.40008794656,,,2017_Feb_17_1426,60.0058894238,FEMA4ImagesEEG,001,000006,
AFNE01.JPG,AFNE01.JPG,AFNE01.JPG,AFNE01.JPG,AFNE01.JPG,AFNE01.JPG,,,,,,,,,,,,,,,,,5,7,57,2,,,,,,,AFSA09.jpg,AFNE19.jpg,AFNE04.jpg,AFSA18.jpg,AFSA18.jpg,FS,4,num_4,32,num_8,1.43318701163,,,2017_Feb_17_1426,60.0058894238,FEMA4ImagesEEG,001,000006,
AFNE01.JPG,AFNE01.JPG,AFNE01.JPG,AFNE01.JPG,AFNE01.JPG,AFNE01.JPG,,,,,,,,,,,,,,,,,5,8,58,0,,,,,,,AFSA07.jpg,AFSA05.jpg,AFNE04.jpg,AFNE06.jpg,AFSA07.jpg,FS,4,num_8,32,num_6,1.00010456145,,,2017_Feb_17_1426,60.0058894238,FEMA4ImagesEEG,001,000006,
AFNE01.JPG,AFNE01.JPG,AFNE01.JPG,AFNE01.JPG,AFNE01.JPG,AFNE01.JPG,,,,,,,,,,,,,,,,,5,9,59,8,,,,,,,AFSA06.jpg,AFNE12.jpg,AFNE05.jpg,AFSA05.jpg,AFSA05.jpg,FS,4,num_4,16,num_4,0.450147732627,,,2017_Feb_17_1426,60.0058894238,FEMA4ImagesEEG,001,000006,
,,,,,,,,,,,,,,,,,,,,,,,,,,,,,,,,,,,,,,,,,,,space,9.36627587723,2017_Feb_17_1426,60.0058894238,FEMA4ImagesEEG,001,000006,
AFNE01.JPG,AFNE01.JPG,AFNE01.JPG,AFNE01.JPG,AFNE01.JPG,AFNE01.JPG,,,,,,,,,,,,,,,,,,,,,0,0,0,1,,,AMNE06.jpg,AMNE17.jpg,AMSA10.jpg,AMSA18.jpg,AMNE17.jpg,MN,1,num_6,32,num_8,0.800164667889,,,2017_Feb_17_1426,60.0058894238,FEMA4ImagesEEG,001,000006,
AFNE01.JPG,AFNE01.JPG,AFNE01.JPG,AFNE01.JPG,AFNE01.JPG,AFNE01.JPG,,,,,,,,,,,,,,,,,,,,,0,1,1,7,,,AMSA17.jpg,AMNE11.jpg,AMSA18.jpg,AMNE10.jpg,AMNE10.jpg,MN,1,num_4,32,num_8,0.949996022973,,,2017_Feb_17_1426,60.0058894238,FEMA4ImagesEEG,001,000006,
AFNE01.JPG,AFNE01.JPG,AFNE01.JPG,AFNE01.JPG,AFNE01.JPG,AFNE01.JPG,,,,,,,,,,,,,,,,,,,,,0,2,2,2,,,AMNE08.jpg,AMSA07.jpg,AMSA19.jpg,AMNE14.jpg,AMNE14.jpg,MN,1,num_4,16,num_4,0.733465221711,,,2017_Feb_17_1426,60.0058894238,FEMA4ImagesEEG,001,000006,
AFNE01.JPG,AFNE01.JPG,AFNE01.JPG,AFNE01.JPG,AFNE01.JPG,AFNE01.JPG,,,,,,,,,,,,,,,,,,,,,0,3,3,3,,,AMNE12.jpg,AMSA16.jpg,AMSA03.jpg,AMNE16.jpg,AMSA16.jpg,MS,2,num_6,32,num_2,0.566796630155,,,2017_Feb_17_1426,60.0058894238,FEMA4ImagesEEG,001,000006,
AFNE01.JPG,AFNE01.JPG,AFNE01.JPG,AFNE01.JPG,AFNE01.JPG,AFNE01.JPG,,,,,,,,,,,,,,,,,,,,,0,4,4,0,,,AMSA15.jpg,AMNE01.jpg,AMSA05.jpg,AMNE20.jpg,AMNE20.jpg,MN,1,num_4,32,num_6,0.883473624941,,,2017_Feb_17_1426,60.0058894238,FEMA4ImagesEEG,001,000006,
AFNE01.JPG,AFNE01.JPG,AFNE01.JPG,AFNE01.JPG,AFNE01.JPG,AFNE01.JPG,,,,,,,,,,,,,,,,,,,,,0,5,5,8,,,AMNE12.jpg,AMNE03.jpg,AMSA16.jpg,AMSA18.jpg,AMSA16.jpg,MS,2,num_2,32,num_4,1.03343872866,,,2017_Feb_17_1426,60.0058894238,FEMA4ImagesEEG,001,000006,
AFNE01.JPG,AFNE01.JPG,AFNE01.JPG,AFNE01.JPG,AFNE01.JPG,AFNE01.JPG,,,,,,,,,,,,,,,,,,,,,0,6,6,4,,,AMNE12.jpg,AMSA15.jpg,AMNE07.jpg,AMSA11.jpg,AMNE07.jpg,MN,1,num_2,16,num_2,1.30011046305,,,2017_Feb_17_1426,60.0058894238,FEMA4ImagesEEG,001,000006,
AFNE01.JPG,AFNE01.JPG,AFNE01.JPG,AFNE01.JPG,AFNE01.JPG,AFNE01.JPG,,,,,,,,,,,,,,,,,,,,,0,7,7,9,,,AMNE20.jpg,AMSA17.jpg,AMNE19.jpg,AMSA05.jpg,AMSA05.jpg,MS,2,num_4,16,num_4,0.616803494282,,,2017_Feb_17_1426,60.0058894238,FEMA4ImagesEEG,001,000006,
AFNE01.JPG,AFNE01.JPG,AFNE01.JPG,AFNE01.JPG,AFNE01.JPG,AFNE01.JPG,,,,,,,,,,,,,,,,,,,,,0,8,8,5,,,AMSA18.jpg,AMNE16.jpg,AMNE02.jpg,AMSA08.jpg,AMNE16.jpg,MN,1,num_6,16,num_6,0.883487096056,,,2017_Feb_17_1426,60.0058894238,FEMA4ImagesEEG,001,000006,
AFNE01.JPG,AFNE01.JPG,AFNE01.JPG,AFNE01.JPG,AFNE01.JPG,AFNE01.JPG,,,,,,,,,,,,,,,,,,,,,0,9,9,6,,,AMSA15.jpg,AMNE13.jpg,AMNE18.jpg,AMSA17.jpg,AMNE18.jpg,MN,1,num_2,16,num_2,0.583487609401,,,2017_Feb_17_1426,60.0058894238,FEMA4ImagesEEG,001,000006,
AFNE01.JPG,AFNE01.JPG,AFNE01.JPG,AFNE01.JPG,AFNE01.JPG,AFNE01.JPG,,,,,,,,,,,,,,,,,,,,,1,0,10,3,,,AMSA11.jpg,AMNE01.jpg,AMNE19.jpg,AMSA08.jpg,AMSA08.jpg,MS,2,num_4,16,num_4,0.816786366515,,,2017_Feb_17_1426,60.0058894238,FEMA4ImagesEEG,001,000006,
AFNE01.JPG,AFNE01.JPG,AFNE01.JPG,AFNE01.JPG,AFNE01.JPG,AFNE01.JPG,,,,,,,,,,,,,,,,,,,,,1,1,11,9,,,AMSA06.jpg,AMSA04.jpg,AMNE15.jpg,AMNE06.jpg,AMSA06.jpg,MS,2,num_8,16,num_8,0.750141446013,,,2017_Feb_17_1426,60.0058894238,FEMA4ImagesEEG,001,000006,
AFNE01.JPG,AFNE01.JPG,AFNE01.JPG,AFNE01.JPG,AFNE01.JPG,AFNE01.JPG,,,,,,,,,,,,,,,,,,,,,1,2,12,4,,,AMNE04.jpg,AMSA19.jpg,AMSA02.jpg,AMNE09.jpg,AMNE04.jpg,MN,1,num_8,32,num_2,0.58348696772,,,2017_Feb_17_1426,60.0058894238,FEMA4ImagesEEG,001,000006,
AFNE01.JPG,AFNE01.JPG,AFNE01.JPG,AFNE01.JPG,AFNE01.JPG,AFNE01.JPG,,,,,,,,,,,,,,,,,,,,,1,3,13,0,,,AMNE12.jpg,AMSA20.jpg,AMNE01.jpg,AMSA09.jpg,AMSA09.jpg,MS,2,num_4,32,num_8,1.03344193613,,,2017_Feb_17_1426,60.0058894238,FEMA4ImagesEEG,001,000006,
AFNE01.JPG,AFNE01.JPG,AFNE01.JPG,AFNE01.JPG,AFNE01.JPG,AFNE01.JPG,,,,,,,,,,,,,,,,,,,,,1,4,14,7,,,AMSA17.jpg,AMNE14.jpg,AMNE06.jpg,AMSA19.jpg,AMSA19.jpg,MS,2,num_4,32,num_2,0.583366690204,,,2017_Feb_17_1426,60.0058894238,FEMA4ImagesEEG,001,000006,
AFNE01.JPG,AFNE01.JPG,AFNE01.JPG,AFNE01.JPG,AFNE01.JPG,AFNE01.JPG,,,,,,,,,,,,,,,,,,,,,1,5,15,8,,,AMNE08.jpg,AMSA06.jpg,AMSA02.jpg,AMNE15.jpg,AMSA06.jpg,MS,2,num_6,16,num_6,1.38343770197,,,2017_Feb_17_1426,60.0058894238,FEMA4ImagesEEG,001,000006,
AFNE01.JPG,AFNE01.JPG,AFNE01.JPG,AFNE01.JPG,AFNE01.JPG,AFNE01.JPG,,,,,,,,,,,,,,,,,,,,,1,6,16,2,,,AMNE06.jpg,AMSA13.jpg,AMSA01.jpg,AMNE08.jpg,AMSA13.jpg,MS,2,num_6,16,num_6,0.950040605385,,,2017_Feb_17_1426,60.0058894238,FEMA4ImagesEEG,001,000006,
AFNE01.JPG,AFNE01.JPG,AFNE01.JPG,AFNE01.JPG,AFNE01.JPG,AFNE01.JPG,,,,,,,,,,,,,,,,,,,,,1,7,17,6,,,AMNE08.jpg,AMSA16.jpg,AMSA17.jpg,AMNE17.jpg,AMSA16.jpg,MS,2,num_6,16,num_6,0.716806957964,,,2017_Feb_17_1426,60.0058894238,FEMA4ImagesEEG,001,000006,
AFNE01.JPG,AFNE01.JPG,AFNE01.JPG,AFNE01.JPG,AFNE01.JPG,AFNE01.JPG,,,,,,,,,,,,,,,,,,,,,1,8,18,5,,,AMNE14.jpg,AMNE05.jpg,AMSA11.jpg,AMSA03.jpg,AMNE14.jpg,MN,1,num_8,16,num_8,0.566852118354,,,2017_Feb_17_1426,60.0058894238,FEMA4ImagesEEG,001,000006,
AFNE01.JPG,AFNE01.JPG,AFNE01.JPG,AFNE01.JPG,AFNE01.JPG,AFNE01.JPG,,,,,,,,,,,,,,,,,,,,,1,9,19,1,,,AMSA20.jpg,AMSA01.jpg,AMNE13.jpg,AMNE07.jpg,AMNE07.jpg,MN,1,num_4,32,num_8,1.10007017804,,,2017_Feb_17_1426,60.0058894238,FEMA4ImagesEEG,001,000006,
AFNE01.JPG,AFNE01.JPG,AFNE01.JPG,AFNE01.JPG,AFNE01.JPG,AFNE01.JPG,,,,,,,,,,,,,,,,,,,,,2,0,20,2,,,AMSA18.jpg,AMNE06.jpg,AMNE08.jpg,AMSA07.jpg,AMSA18.jpg,MS,2,num_8,32,num_4,0.749944833107,,,2017_Feb_17_1426,60.0058894238,FEMA4ImagesEEG,001,000006,
AFNE01.JPG,AFNE01.JPG,AFNE01.JPG,AFNE01.JPG,AFNE01.JPG,AFNE01.JPG,,,,,,,,,,,,,,,,,,,,,2,1,21,5,,,AMNE13.jpg,AMSA01.jpg,AMSA11.jpg,AMNE02.jpg,AMSA01.jpg,MS,2,num_6,16,num_6,0.733515257016,,,2017_Feb_17_1426,60.0058894238,FEMA4ImagesEEG,001,000006,
AFNE01.JPG,AFNE01.JPG,AFNE01.JPG,AFNE01.JPG,AFNE01.JPG,AFNE01.JPG,,,,,,,,,,,,,,,,,,,,,2,2,22,7,,,AMSA01.jpg,AMSA03.jpg,AMNE06.jpg,AMNE17.jpg,AMNE06.jpg,MN,1,num_2,16,num_2,0.833443026058,,,2017_Feb_17_1426,60.0058894238,FEMA4ImagesEEG,001,000006,
AFNE01.JPG,AFNE01.JPG,AFNE01.JPG,AFNE01.JPG,AFNE01.JPG,AFNE01.JPG,,,,,,,,,,,,,,,,,,,,,2,3,23,4,,,AMNE18.jpg,AMSA17.jpg,AMNE05.jpg,AMSA14.jpg,AMSA17.jpg,MS,2,num_6,16,num_6,0.666805868037,,,2017_Feb_17_1426,60.0058894238,FEMA4ImagesEEG,001,000006,
AFNE01.JPG,AFNE01.JPG,AFNE01.JPG,AFNE01.JPG,AFNE01.JPG,AFNE01.JPG,,,,,,,,,,,,,,,,,,,,,2,4,24,6,,,AMSA14.jpg,AMSA17.jpg,AMNE05.jpg,AMNE17.jpg,AMSA17.jpg,MS,2,num_6,16,num_6,0.466805354692,,,2017_Feb_17_1426,60.0058894238,FEMA4ImagesEEG,001,000006,
AFNE01.JPG,AFNE01.JPG,AFNE01.JPG,AFNE01.JPG,AFNE01.JPG,AFNE01.JPG,,,,,,,,,,,,,,,,,,,,,2,5,25,8,,,AMSA08.jpg,AMNE11.jpg,AMNE16.jpg,AMSA04.jpg,AMNE11.jpg,MN,1,num_6,32,num_8,0.766826330684,,,2017_Feb_17_1426,60.0058894238,FEMA4ImagesEEG,001,000006,
AFNE01.JPG,AFNE01.JPG,AFNE01.JPG,AFNE01.JPG,AFNE01.JPG,AFNE01.JPG,,,,,,,,,,,,,,,,,,,,,2,6,26,1,,,AMSA16.jpg,AMNE19.jpg,AMNE20.jpg,AMSA19.jpg,AMSA19.jpg,MS,2,num_4,32,num_6,0.766747429036,,,2017_Feb_17_1426,60.0058894238,FEMA4ImagesEEG,001,000006,
AFNE01.JPG,AFNE01.JPG,AFNE01.JPG,AFNE01.JPG,AFNE01.JPG,AFNE01.JPG,,,,,,,,,,,,,,,,,,,,,2,7,27,9,,,AMNE02.jpg,AMSA19.jpg,AMNE03.jpg,AMSA02.jpg,AMNE03.jpg,MN,1,num_2,32,num_4,0.750143370591,,,2017_Feb_17_1426,60.0058894238,FEMA4ImagesEEG,001,000006,
AFNE01.JPG,AFNE01.JPG,AFNE01.JPG,AFNE01.JPG,AFNE01.JPG,AFNE01.JPG,,,,,,,,,,,,,,,,,,,,,2,8,28,0,,,AMSA11.jpg,AMNE13.jpg,AMNE17.jpg,AMSA15.jpg,AMSA11.jpg,MS,2,num_8,16,num_8,0.666776680388,,,2017_Feb_17_1426,60.0058894238,FEMA4ImagesEEG,001,000006,
AFNE01.JPG,AFNE01.JPG,AFNE01.JPG,AFNE01.JPG,AFNE01.JPG,AFNE01.JPG,,,,,,,,,,,,,,,,,,,,,2,9,29,3,,,AMNE06.jpg,AMSA17.jpg,AMSA03.jpg,AMNE02.jpg,AMSA03.jpg,MS,2,num_2,32,num_6,0.55017878022,,,2017_Feb_17_1426,60.0058894238,FEMA4ImagesEEG,001,000006,
AFNE01.JPG,AFNE01.JPG,AFNE01.JPG,AFNE01.JPG,AFNE01.JPG,AFNE01.JPG,,,,,,,,,,,,,,,,,,,,,3,0,30,7,,,AMSA02.jpg,AMNE06.jpg,AMSA04.jpg,AMNE04.jpg,AMNE04.jpg,MN,1,num_4,32,num_2,0.81679598894,,,2017_Feb_17_1426,60.0058894238,FEMA4ImagesEEG,001,000006,
AFNE01.JPG,AFNE01.JPG,AFNE01.JPG,AFNE01.JPG,AFNE01.JPG,AFNE01.JPG,,,,,,,,,,,,,,,,,,,,,3,1,31,4,,,AMNE12.jpg,AMNE15.jpg,AMSA15.jpg,AMSA20.jpg,AMSA15.jpg,MS,2,num_2,32,num_8,0.883475869894,,,2017_Feb_17_1426,60.0058894238,FEMA4ImagesEEG,001,000006,
AFNE01.JPG,AFNE01.JPG,AFNE01.JPG,AFNE01.JPG,AFNE01.JPG,AFNE01.JPG,,,,,,,,,,,,,,,,,,,,,3,2,32,8,,,AMSA14.jpg,AMNE11.jpg,AMNE02.jpg,AMSA11.jpg,AMSA11.jpg,MS,2,num_4,32,num_6,0.700136186089,,,2017_Feb_17_1426,60.0058894238,FEMA4ImagesEEG,001,000006,
AFNE01.JPG,AFNE01.JPG,AFNE01.JPG,AFNE01.JPG,AFNE01.JPG,AFNE01.JPG,,,,,,,,,,,,,,,,,,,,,3,3,33,0,,,AMSA19.jpg,AMNE05.jpg,AMNE14.jpg,AMSA06.jpg,AMSA06.jpg,MS,2,num_4,32,num_8,0.816780593246,,,2017_Feb_17_1426,60.0058894238,FEMA4ImagesEEG,001,000006,
AFNE01.JPG,AFNE01.JPG,AFNE01.JPG,AFNE01.JPG,AFNE01.JPG,AFNE01.JPG,,,,,,,,,,,,,,,,,,,,,3,4,34,6,,,AMNE11.jpg,AMSA15.jpg,AMNE19.jpg,AMSA06.jpg,AMSA15.jpg,MS,2,num_6,32,num_8,0.983469711617,,,2017_Feb_17_1426,60.0058894238,FEMA4ImagesEEG,001,000006,
AFNE01.JPG,AFNE01.JPG,AFNE01.JPG,AFNE01.JPG,AFNE01.JPG,AFNE01.JPG,,,,,,,,,,,,,,,,,,,,,3,5,35,2,,,AMSA04.jpg,AMNE11.jpg,AMNE16.jpg,AMSA09.jpg,AMNE16.jpg,MN,1,num_2,32,num_8,1.16679207562,,,2017_Feb_17_1426,60.0058894238,FEMA4ImagesEEG,001,000006,
AFNE01.JPG,AFNE01.JPG,AFNE01.JPG,AFNE01.JPG,AFNE01.JPG,AFNE01.JPG,,,,,,,,,,,,,,,,,,,,,3,6,36,3,,,AMNE18.jpg,AMSA10.jpg,AMNE15.jpg,AMSA20.jpg,AMSA10.jpg,MS,2,num_6,16,num_6,1.01676186267,,,2017_Feb_17_1426,60.0058894238,FEMA4ImagesEEG,001,000006,
AFNE01.JPG,AFNE01.JPG,AFNE01.JPG,AFNE01.JPG,AFNE01.JPG,AFNE01.JPG,,,,,,,,,,,,,,,,,,,,,3,7,37,5,,,AMNE08.jpg,AMSA16.jpg,AMSA07.jpg,AMNE04.jpg,AMSA16.jpg,MS,2,num_6,16,num_6,0.616800928488,,,2017_Feb_17_1426,60.0058894238,FEMA4ImagesEEG,001,000006,
AFNE01.JPG,AFNE01.JPG,AFNE01.JPG,AFNE01.JPG,AFNE01.JPG,AFNE01.JPG,,,,,,,,,,,,,,,,,,,,,3,8,38,1,,,AMSA12.jpg,AMNE10.jpg,AMSA18.jpg,AMNE17.jpg,AMSA12.jpg,MS,2,num_8,16,num_8,1.13345630467,,,2017_Feb_17_1426,60.0058894238,FEMA4ImagesEEG,001,000006,
