IPosition2,IPosition3,IPosition1,IPosition6,IPosition4,IPosition5,TrialsM1.thisRepN,TrialsM1.thisTrialN,TrialsM1.thisN,TrialsM1.thisIndex,TrialsF1.thisRepN,TrialsF1.thisTrialN,TrialsF1.thisN,TrialsF1.thisIndex,TrialsM2.thisRepN,TrialsM2.thisTrialN,TrialsM2.thisN,TrialsM2.thisIndex,TrialsF2.thisRepN,TrialsF2.thisTrialN,TrialsF2.thisN,TrialsF2.thisIndex,TrialsM3.thisRepN,TrialsM3.thisTrialN,TrialsM3.thisN,TrialsM3.thisIndex,TrialsF3.thisRepN,TrialsF3.thisTrialN,TrialsF3.thisN,TrialsF3.thisIndex,InstrKey_resp.keys,InstrKey_resp.rt,Image0 _Position,Image1 _Position,Image2 _Position,Image3 _Position,Center_image,condition,code,correct_answer,accuracy,Key_Resp.keys,Key_Resp.rt,BreakKey_resp.keys,BreakKey_resp.rt,date,frameRate,expName,session,participant,
,,,,,,,,,,,,,,,,,,,,,,,,,,,,,,space,15.9993472947,,,,,,,,,,,,,,2017_Feb_20_1035,60.0051964477,MAFE4ImagesEEG,001,000007,
AMSA25.JPG,AMNE24.JPG,AMSA24.JPG,AMNE26.JPG,AMSA21.JPG,AMNE25.JPG,0,0,0,3,,,,,,,,,,,,,,,,,,,,,,,AMSA18.jpg,AMNE03.jpg,AMNE02.jpg,AMSA16.jpg,AMNE02.jpg,MN,1,num_2,32,num_6,1.33345393138,,,2017_Feb_20_1035,60.0051964477,MAFE4ImagesEEG,001,000007,
AFNE23.JPG,AFNE24.JPG,AFNE22.JPG,AFSA24.JPG,AFSA22.JPG,AFSA23.JPG,0,1,1,8,,,,,,,,,,,,,,,,,,,,,,,AMSA02.jpg,AMNE08.jpg,AMNE18.jpg,AMSA12.jpg,AMSA12.jpg,MS,2,num_4,16,num_4,0.800134518649,,,2017_Feb_20_1035,60.0051964477,MAFE4ImagesEEG,001,000007,
AMSA21.JPG,AMNE23.JPG,AMNE21.JPG,AMSA25.JPG,AMNE25.JPG,AMSA23.JPG,0,2,2,5,,,,,,,,,,,,,,,,,,,,,,,AMSA09.jpg,AMSA19.jpg,AMNE17.jpg,AMNE18.jpg,AMNE17.jpg,MN,1,num_2,16,num_2,1.26673556119,,,2017_Feb_20_1035,60.0051964477,MAFE4ImagesEEG,001,000007,
AMNE23.JPG,AMNE24.JPG,AMNE22.JPG,AMSA24.JPG,AMSA22.JPG,AMSA23.JPG,0,3,3,9,,,,,,,,,,,,,,,,,,,,,,,AMSA17.jpg,AMNE02.jpg,AMSA01.jpg,AMNE04.jpg,AMSA01.jpg,MS,2,num_2,32,num_6,1.033467595,,,2017_Feb_20_1035,60.0051964477,MAFE4ImagesEEG,001,000007,
AFNE22.JPG,AFSA24.JPG,AFSA22.JPG,AFNE25.JPG,AFNE24.JPG,AFSA25.JPG,0,4,4,6,,,,,,,,,,,,,,,,,,,,,,,AMSA05.jpg,AMSA17.jpg,AMNE06.jpg,AMNE19.jpg,AMNE06.jpg,MN,1,num_2,32,num_4,1.81671836972,,,2017_Feb_20_1035,60.0051964477,MAFE4ImagesEEG,001,000007,
AFSA21.JPG,AFNE23.JPG,AFNE21.JPG,AFSA25.JPG,AFNE25.JPG,AFSA23.JPG,0,5,5,4,,,,,,,,,,,,,,,,,,,,,,,AMSA17.jpg,AMSA09.jpg,AMNE04.jpg,AMNE15.jpg,AMSA09.jpg,MS,2,num_6,32,num_8,1.08341319766,,,2017_Feb_20_1035,60.0051964477,MAFE4ImagesEEG,001,000007,
AFSA21.JPG,AFNE22.JPG,AFNE21.JPG,AFSA23.JPG,AFSA22.JPG,AFNE23.JPG,0,6,6,0,,,,,,,,,,,,,,,,,,,,,,,AMNE05.jpg,AMSA02.jpg,AMSA16.jpg,AMNE13.jpg,AMNE05.jpg,MN,1,num_8,32,num_2,1.75009429734,,,2017_Feb_20_1035,60.0051964477,MAFE4ImagesEEG,001,000007,
AMSA21.JPG,AMNE22.JPG,AMNE21.JPG,AMSA23.JPG,AMSA22.JPG,AMNE23.JPG,0,7,7,1,,,,,,,,,,,,,,,,,,,,,,,AMSA08.jpg,AMNE19.jpg,AMSA18.jpg,AMNE12.jpg,AMSA08.jpg,MS,2,num_8,16,num_8,1.28342589876,,,2017_Feb_20_1035,60.0051964477,MAFE4ImagesEEG,001,000007,
AMNE22.JPG,AMSA24.JPG,AMSA22.JPG,AMNE25.JPG,AMNE24.JPG,AMSA25.JPG,0,8,8,7,,,,,,,,,,,,,,,,,,,,,,,AMNE06.jpg,AMSA06.jpg,AMNE17.jpg,AMSA17.jpg,AMSA17.jpg,MS,2,num_4,16,num_4,1.26680227555,,,2017_Feb_20_1035,60.0051964477,MAFE4ImagesEEG,001,000007,
AFSA25.JPG,AFNE24.JPG,AFSA24.JPG,AFNE21.JPG,AFSA21.JPG,AFNE25.JPG,0,9,9,2,,,,,,,,,,,,,,,,,,,,,,,AMSA19.jpg,AMNE16.jpg,AMSA09.jpg,AMNE01.jpg,AMNE01.jpg,MN,1,num_4,16,num_4,0.616789381485,,,2017_Feb_20_1035,60.0051964477,MAFE4ImagesEEG,001,000007,
AFNE23.JPG,AFNE24.JPG,AFNE22.JPG,AFSA24.JPG,AFSA22.JPG,AFSA23.JPG,,,,,0,0,0,8,,,,,,,,,,,,,,,,,,,AFNE16.jpg,AFNE11.jpg,AFSA16.jpg,AFSA02.jpg,AFNE16.jpg,FN,3,num_8,16,num_8,0.816769046709,,,2017_Feb_20_1035,60.0051964477,MAFE4ImagesEEG,001,000007,
AMSA21.JPG,AMNE22.JPG,AMNE21.JPG,AMSA23.JPG,AMSA22.JPG,AMNE23.JPG,,,,,0,1,1,1,,,,,,,,,,,,,,,,,,,AFNE01.jpg,AFNE09.jpg,AFSA15.jpg,AFSA11.jpg,AFNE01.jpg,FN,3,num_8,32,num_6,1.46673222585,,,2017_Feb_20_1035,60.0051964477,MAFE4ImagesEEG,001,000007,
AFSA25.JPG,AFNE24.JPG,AFSA24.JPG,AFNE21.JPG,AFSA21.JPG,AFNE25.JPG,,,,,0,2,2,2,,,,,,,,,,,,,,,,,,,AFSA01.jpg,AFNE17.jpg,AFNE19.jpg,AFSA16.jpg,AFNE19.jpg,FN,3,num_2,16,num_2,1.51671375148,,,2017_Feb_20_1035,60.0051964477,MAFE4ImagesEEG,001,000007,
AMNE23.JPG,AMNE24.JPG,AMNE22.JPG,AMSA24.JPG,AMSA22.JPG,AMSA23.JPG,,,,,0,3,3,9,,,,,,,,,,,,,,,,,,,AFSA16.jpg,AFNE13.jpg,AFNE03.jpg,AFSA08.jpg,AFSA16.jpg,FS,4,num_8,16,num_8,1.05014093313,,,2017_Feb_20_1035,60.0051964477,MAFE4ImagesEEG,001,000007,
AFNE22.JPG,AFSA24.JPG,AFSA22.JPG,AFNE25.JPG,AFNE24.JPG,AFSA25.JPG,,,,,0,4,4,6,,,,,,,,,,,,,,,,,,,AFNE08.jpg,AFNE01.jpg,AFSA16.jpg,AFSA13.jpg,AFSA13.jpg,FS,4,num_4,16,num_4,1.30007101176,,,2017_Feb_20_1035,60.0051964477,MAFE4ImagesEEG,001,000007,
AFSA21.JPG,AFNE23.JPG,AFNE21.JPG,AFSA25.JPG,AFNE25.JPG,AFSA23.JPG,,,,,0,5,5,4,,,,,,,,,,,,,,,,,,,AFSA18.jpg,AFSA03.jpg,AFNE17.jpg,AFNE08.jpg,AFNE17.jpg,FN,3,num_2,32,num_8,0.866732290015,,,2017_Feb_20_1035,60.0051964477,MAFE4ImagesEEG,001,000007,
AMNE22.JPG,AMSA24.JPG,AMSA22.JPG,AMNE25.JPG,AMNE24.JPG,AMSA25.JPG,,,,,0,6,6,7,,,,,,,,,,,,,,,,,,,AFNE20.jpg,AFSA02.jpg,AFNE08.jpg,AFSA07.jpg,AFSA02.jpg,FS,4,num_6,16,num_6,1.03313627094,,,2017_Feb_20_1035,60.0051964477,MAFE4ImagesEEG,001,000007,
AFSA21.JPG,AFNE22.JPG,AFNE21.JPG,AFSA23.JPG,AFSA22.JPG,AFNE23.JPG,,,,,0,7,7,0,,,,,,,,,,,,,,,,,,,AFNE17.jpg,AFSA06.jpg,AFSA17.jpg,AFNE03.jpg,AFSA06.jpg,FS,4,num_6,32,num_2,1.00015491713,,,2017_Feb_20_1035,60.0051964477,MAFE4ImagesEEG,001,000007,
AMSA21.JPG,AMNE23.JPG,AMNE21.JPG,AMSA25.JPG,AMNE25.JPG,AMSA23.JPG,,,,,0,8,8,5,,,,,,,,,,,,,,,,,,,AFSA08.jpg,AFNE05.jpg,AFNE17.jpg,AFSA19.jpg,AFNE17.jpg,FN,3,num_2,32,num_8,1.55004567327,,,2017_Feb_20_1035,60.0051964477,MAFE4ImagesEEG,001,000007,
AMSA25.JPG,AMNE24.JPG,AMSA24.JPG,AMNE26.JPG,AMSA21.JPG,AMNE25.JPG,,,,,0,9,9,3,,,,,,,,,,,,,,,,,,,AFSA19.jpg,AFNE07.jpg,AFSA03.jpg,AFNE15.jpg,AFNE15.jpg,FN,3,num_4,16,num_4,1.68344103778,,,2017_Feb_20_1035,60.0051964477,MAFE4ImagesEEG,001,000007,
AMSA21.JPG,AMNE22.JPG,AMNE21.JPG,AMSA23.JPG,AMSA22.JPG,AMNE23.JPG,,,,,,,,,0,0,0,1,,,,,,,,,,,,,,,AMNE07.jpg,AMSA12.jpg,AMNE19.jpg,AMSA06.jpg,AMSA06.jpg,MS,2,num_4,32,num_6,0.900105266832,,,2017_Feb_20_1035,60.0051964477,MAFE4ImagesEEG,001,000007,
AFNE22.JPG,AFSA24.JPG,AFSA22.JPG,AFNE25.JPG,AFNE24.JPG,AFSA25.JPG,,,,,,,,,0,1,1,6,,,,,,,,,,,,,,,AMNE03.jpg,AMSA08.jpg,AMNE02.jpg,AMSA03.jpg,AMSA08.jpg,MS,2,num_6,16,num_6,1.71669758577,,,2017_Feb_20_1035,60.0051964477,MAFE4ImagesEEG,001,000007,
AMNE23.JPG,AMNE24.JPG,AMNE22.JPG,AMSA24.JPG,AMSA22.JPG,AMSA23.JPG,,,,,,,,,0,2,2,9,,,,,,,,,,,,,,,AMSA18.jpg,AMNE13.jpg,AMNE14.jpg,AMSA08.jpg,AMSA08.jpg,MS,2,num_4,32,num_6,1.00011322089,,,2017_Feb_20_1035,60.0051964477,MAFE4ImagesEEG,001,000007,
AMSA21.JPG,AMNE23.JPG,AMNE21.JPG,AMSA25.JPG,AMNE25.JPG,AMSA23.JPG,,,,,,,,,0,3,3,5,,,,,,,,,,,,,,,AMSA17.jpg,AMNE20.jpg,AMNE16.jpg,AMSA05.jpg,AMSA05.jpg,MS,2,num_4,16,num_4,1.61731379153,,,2017_Feb_20_1035,60.0051964477,MAFE4ImagesEEG,001,000007,
AMSA25.JPG,AMNE24.JPG,AMSA24.JPG,AMNE26.JPG,AMSA21.JPG,AMNE25.JPG,,,,,,,,,0,4,4,3,,,,,,,,,,,,,,,AMSA05.jpg,AMSA07.jpg,AMNE07.jpg,AMNE03.jpg,AMNE03.jpg,MN,1,num_4,16,num_4,1.099953108,,,2017_Feb_20_1035,60.0051964477,MAFE4ImagesEEG,001,000007,
AFSA21.JPG,AFNE23.JPG,AFNE21.JPG,AFSA25.JPG,AFNE25.JPG,AFSA23.JPG,,,,,,,,,0,5,5,4,,,,,,,,,,,,,,,AMNE05.jpg,AMSA16.jpg,AMNE01.jpg,AMSA02.jpg,AMNE01.jpg,MN,1,num_2,32,num_4,0.883519169874,,,2017_Feb_20_1035,60.0051964477,MAFE4ImagesEEG,001,000007,
AFNE23.JPG,AFNE24.JPG,AFNE22.JPG,AFSA24.JPG,AFSA22.JPG,AFSA23.JPG,,,,,,,,,0,6,6,8,,,,,,,,,,,,,,,AMSA03.jpg,AMSA16.jpg,AMNE04.jpg,AMNE01.jpg,AMNE01.jpg,MN,1,num_4,16,num_4,1.00012701331,,,2017_Feb_20_1035,60.0051964477,MAFE4ImagesEEG,001,000007,
AMNE22.JPG,AMSA24.JPG,AMSA22.JPG,AMNE25.JPG,AMNE24.JPG,AMSA25.JPG,,,,,,,,,0,7,7,7,,,,,,,,,,,,,,,AMNE06.jpg,AMSA17.jpg,AMSA19.jpg,AMNE20.jpg,AMSA17.jpg,MS,2,num_6,16,num_6,2.06675685896,,,2017_Feb_20_1035,60.0051964477,MAFE4ImagesEEG,001,000007,
AFSA25.JPG,AFNE24.JPG,AFSA24.JPG,AFNE21.JPG,AFSA21.JPG,AFNE25.JPG,,,,,,,,,0,8,8,2,,,,,,,,,,,,,,,AMNE18.jpg,AMSA10.jpg,AMSA17.jpg,AMNE08.jpg,AMSA17.jpg,MS,2,num_2,32,num_8,1.03341018269,,,2017_Feb_20_1035,60.0051964477,MAFE4ImagesEEG,001,000007,
AFSA21.JPG,AFNE22.JPG,AFNE21.JPG,AFSA23.JPG,AFSA22.JPG,AFNE23.JPG,,,,,,,,,0,9,9,0,,,,,,,,,,,,,,,AMNE15.jpg,AMSA18.jpg,AMSA16.jpg,AMNE03.jpg,AMNE15.jpg,MN,1,num_8,32,num_4,0.900121624582,,,2017_Feb_20_1035,60.0051964477,MAFE4ImagesEEG,001,000007,
AFNE23.JPG,AFNE24.JPG,AFNE22.JPG,AFSA24.JPG,AFSA22.JPG,AFSA23.JPG,,,,,,,,,,,,,0,0,0,8,,,,,,,,,,,AFSA15.jpg,AFSA20.jpg,AFNE07.jpg,AFNE18.jpg,AFSA15.jpg,FS,4,num_8,16,num_8,0.937028512359,,,2017_Feb_20_1035,60.0051964477,MAFE4ImagesEEG,001,000007,
AFSA21.JPG,AFNE23.JPG,AFNE21.JPG,AFSA25.JPG,AFNE25.JPG,AFSA23.JPG,,,,,,,,,,,,,0,1,1,4,,,,,,,,,,,AFNE17.jpg,AFNE08.jpg,AFSA18.jpg,AFSA08.jpg,AFNE08.jpg,FN,3,num_6,32,num_8,1.36682819109,,,2017_Feb_20_1035,60.0051964477,MAFE4ImagesEEG,001,000007,
AMSA21.JPG,AMNE22.JPG,AMNE21.JPG,AMSA23.JPG,AMSA22.JPG,AMNE23.JPG,,,,,,,,,,,,,0,2,2,1,,,,,,,,,,,AFSA16.jpg,AFSA20.jpg,AFNE10.jpg,AFNE08.jpg,AFSA16.jpg,FS,4,num_8,32,num_6,1.66668815631,,,2017_Feb_20_1035,60.0051964477,MAFE4ImagesEEG,001,000007,
AMSA25.JPG,AMNE24.JPG,AMSA24.JPG,AMNE26.JPG,AMSA21.JPG,AMNE25.JPG,,,,,,,,,,,,,0,3,3,3,,,,,,,,,,,AFNE18.jpg,AFSA10.jpg,AFSA09.jpg,AFNE15.jpg,AFSA09.jpg,FS,4,num_2,32,num_8,0.850134967361,,,2017_Feb_20_1035,60.0051964477,MAFE4ImagesEEG,001,000007,
AMNE23.JPG,AMNE24.JPG,AMNE22.JPG,AMSA24.JPG,AMSA22.JPG,AMSA23.JPG,,,,,,,,,,,,,0,4,4,9,,,,,,,,,,,AFSA15.jpg,AFNE20.jpg,AFNE11.jpg,AFSA08.jpg,AFNE20.jpg,FN,3,num_6,32,num_4,2.24991179677,,,2017_Feb_20_1035,60.0051964477,MAFE4ImagesEEG,001,000007,
AMSA21.JPG,AMNE23.JPG,AMNE21.JPG,AMSA25.JPG,AMNE25.JPG,AMSA23.JPG,,,,,,,,,,,,,0,5,5,5,,,,,,,,,,,AFNE04.jpg,AFSA08.jpg,AFSA12.jpg,AFNE20.jpg,AFSA12.jpg,FS,4,num_2,32,num_4,2.38337996928,,,2017_Feb_20_1035,60.0051964477,MAFE4ImagesEEG,001,000007,
AFSA21.JPG,AFNE22.JPG,AFNE21.JPG,AFSA23.JPG,AFSA22.JPG,AFNE23.JPG,,,,,,,,,,,,,0,6,6,0,,,,,,,,,,,AFNE16.jpg,AFSA13.jpg,AFSA14.jpg,AFNE15.jpg,AFNE15.jpg,FN,3,num_4,16,num_4,0.683454188053,,,2017_Feb_20_1035,60.0051964477,MAFE4ImagesEEG,001,000007,
AFNE22.JPG,AFSA24.JPG,AFSA22.JPG,AFNE25.JPG,AFNE24.JPG,AFSA25.JPG,,,,,,,,,,,,,0,7,7,6,,,,,,,,,,,AFSA16.jpg,AFNE05.jpg,AFSA07.jpg,AFNE17.jpg,AFSA07.jpg,FS,4,num_2,32,num_6,1.51672497718,,,2017_Feb_20_1035,60.0051964477,MAFE4ImagesEEG,001,000007,
AFSA25.JPG,AFNE24.JPG,AFSA24.JPG,AFNE21.JPG,AFSA21.JPG,AFNE25.JPG,,,,,,,,,,,,,0,8,8,2,,,,,,,,,,,AFSA02.jpg,AFSA05.jpg,AFNE17.jpg,AFNE09.jpg,AFSA02.jpg,FS,4,num_8,16,num_8,1.8000511257,,,2017_Feb_20_1035,60.0051964477,MAFE4ImagesEEG,001,000007,
AMNE22.JPG,AMSA24.JPG,AMSA22.JPG,AMNE25.JPG,AMNE24.JPG,AMSA25.JPG,,,,,,,,,,,,,0,9,9,7,,,,,,,,,,,AFSA19.jpg,AFNE15.jpg,AFSA09.jpg,AFNE09.jpg,AFNE15.jpg,FN,3,num_6,16,num_6,0.783790900838,,,2017_Feb_20_1035,60.0051964477,MAFE4ImagesEEG,001,000007,
AFNE22.JPG,AFSA24.JPG,AFSA22.JPG,AFNE25.JPG,AFNE24.JPG,AFSA25.JPG,,,,,,,,,,,,,,,,,0,0,0,6,,,,,,,AMNE13.jpg,AMSA05.jpg,AMSA10.jpg,AMNE02.jpg,AMSA10.jpg,MS,2,num_2,32,num_8,3.46656191302,,,2017_Feb_20_1035,60.0051964477,MAFE4ImagesEEG,001,000007,
AFNE23.JPG,AFNE24.JPG,AFNE22.JPG,AFSA24.JPG,AFSA22.JPG,AFSA23.JPG,,,,,,,,,,,,,,,,,0,1,1,8,,,,,,,AMNE19.jpg,AMSA15.jpg,AMSA04.jpg,AMNE03.jpg,AMNE19.jpg,MN,1,num_8,16,num_8,1.71668026596,,,2017_Feb_20_1035,60.0051964477,MAFE4ImagesEEG,001,000007,
AFSA21.JPG,AFNE22.JPG,AFNE21.JPG,AFSA23.JPG,AFSA22.JPG,AFNE23.JPG,,,,,,,,,,,,,,,,,0,2,2,0,,,,,,,AMNE13.jpg,AMSA03.jpg,AMSA17.jpg,AMNE16.jpg,AMNE13.jpg,MN,1,num_8,32,num_4,0.783473368734,,,2017_Feb_20_1035,60.0051964477,MAFE4ImagesEEG,001,000007,
AMNE23.JPG,AMNE24.JPG,AMNE22.JPG,AMSA24.JPG,AMSA22.JPG,AMSA23.JPG,,,,,,,,,,,,,,,,,0,3,3,9,,,,,,,AMNE03.jpg,AMSA03.jpg,AMNE11.jpg,AMSA05.jpg,AMSA03.jpg,MS,2,num_6,16,num_6,0.633439305704,,,2017_Feb_20_1035,60.0051964477,MAFE4ImagesEEG,001,000007,
AFSA25.JPG,AFNE24.JPG,AFSA24.JPG,AFNE21.JPG,AFSA21.JPG,AFNE25.JPG,,,,,,,,,,,,,,,,,0,4,4,2,,,,,,,AMNE05.jpg,AMNE15.jpg,AMSA03.jpg,AMSA08.jpg,AMSA03.jpg,MS,2,num_2,32,num_8,0.733767678961,,,2017_Feb_20_1035,60.0051964477,MAFE4ImagesEEG,001,000007,
AMSA21.JPG,AMNE23.JPG,AMNE21.JPG,AMSA25.JPG,AMNE25.JPG,AMSA23.JPG,,,,,,,,,,,,,,,,,0,5,5,5,,,,,,,AMSA15.jpg,AMSA16.jpg,AMNE03.jpg,AMNE09.jpg,AMNE03.jpg,MN,1,num_2,32,num_8,0.950131695718,,,2017_Feb_20_1035,60.0051964477,MAFE4ImagesEEG,001,000007,
AMNE22.JPG,AMSA24.JPG,AMSA22.JPG,AMNE25.JPG,AMNE24.JPG,AMSA25.JPG,,,,,,,,,,,,,,,,,0,6,6,7,,,,,,,AMNE08.jpg,AMSA16.jpg,AMSA08.jpg,AMNE05.jpg,AMNE08.jpg,MN,1,num_8,16,num_8,1.56667603226,,,2017_Feb_20_1035,60.0051964477,MAFE4ImagesEEG,001,000007,
AMSA21.JPG,AMNE22.JPG,AMNE21.JPG,AMSA23.JPG,AMSA22.JPG,AMNE23.JPG,,,,,,,,,,,,,,,,,0,7,7,1,,,,,,,AMSA16.jpg,AMSA09.jpg,AMNE14.jpg,AMNE18.jpg,AMNE14.jpg,MN,1,num_2,32,num_8,1.05015953584,,,2017_Feb_20_1035,60.0051964477,MAFE4ImagesEEG,001,000007,
AFSA21.JPG,AFNE23.JPG,AFNE21.JPG,AFSA25.JPG,AFNE25.JPG,AFSA23.JPG,,,,,,,,,,,,,,,,,0,8,8,4,,,,,,,AMNE11.jpg,AMSA19.jpg,AMSA02.jpg,AMNE07.jpg,AMNE11.jpg,MN,1,num_8,32,num_4,1.53341852175,,,2017_Feb_20_1035,60.0051964477,MAFE4ImagesEEG,001,000007,
AMSA25.JPG,AMNE24.JPG,AMSA24.JPG,AMNE26.JPG,AMSA21.JPG,AMNE25.JPG,,,,,,,,,,,,,,,,,0,9,9,3,,,,,,,AMSA09.jpg,AMSA11.jpg,AMNE13.jpg,AMNE02.jpg,AMNE13.jpg,MN,1,num_2,32,num_6,1.2833935041,,,2017_Feb_20_1035,60.0051964477,MAFE4ImagesEEG,001,000007,
AFNE22.JPG,AFSA24.JPG,AFSA22.JPG,AFNE25.JPG,AFNE24.JPG,AFSA25.JPG,,,,,,,,,,,,,,,,,,,,,0,0,0,6,,,AFNE03.jpg,AFSA15.jpg,AFNE02.jpg,AFSA07.jpg,AFSA07.jpg,FS,4,num_4,32,num_6,0.866751855239,,,2017_Feb_20_1035,60.0051964477,MAFE4ImagesEEG,001,000007,
AMNE23.JPG,AMNE24.JPG,AMNE22.JPG,AMSA24.JPG,AMSA22.JPG,AMSA23.JPG,,,,,,,,,,,,,,,,,,,,,0,1,1,9,,,AFSA03.jpg,AFSA04.jpg,AFNE14.jpg,AFNE15.jpg,AFNE14.jpg,FN,3,num_2,16,num_2,0.716808241326,,,2017_Feb_20_1035,60.0051964477,MAFE4ImagesEEG,001,000007,
AFSA21.JPG,AFNE22.JPG,AFNE21.JPG,AFSA23.JPG,AFSA22.JPG,AFNE23.JPG,,,,,,,,,,,,,,,,,,,,,0,2,2,0,,,AFSA15.jpg,AFSA12.jpg,AFNE06.jpg,AFNE11.jpg,AFNE06.jpg,FN,3,num_2,32,num_6,0.883480360266,,,2017_Feb_20_1035,60.0051964477,MAFE4ImagesEEG,001,000007,
AMNE22.JPG,AMSA24.JPG,AMSA22.JPG,AMNE25.JPG,AMNE24.JPG,AMSA25.JPG,,,,,,,,,,,,,,,,,,,,,0,3,3,7,,,AFSA03.jpg,AFNE17.jpg,AFNE08.jpg,AFSA15.jpg,AFSA03.jpg,FS,4,num_8,16,num_8,0.850098723546,,,2017_Feb_20_1035,60.0051964477,MAFE4ImagesEEG,001,000007,
AMSA21.JPG,AMNE22.JPG,AMNE21.JPG,AMSA23.JPG,AMSA22.JPG,AMNE23.JPG,,,,,,,,,,,,,,,,,,,,,0,4,4,1,,,AFNE15.jpg,AFSA12.jpg,AFSA16.jpg,AFNE12.jpg,AFSA16.jpg,FS,4,num_2,16,num_2,0.883486133534,,,2017_Feb_20_1035,60.0051964477,MAFE4ImagesEEG,001,000007,
AMSA25.JPG,AMNE24.JPG,AMSA24.JPG,AMNE26.JPG,AMSA21.JPG,AMNE25.JPG,,,,,,,,,,,,,,,,,,,,,0,5,5,3,,,AFNE11.jpg,AFSA14.jpg,AFNE02.jpg,AFSA02.jpg,AFSA14.jpg,FS,4,num_6,16,num_6,0.916595783085,,,2017_Feb_20_1035,60.0051964477,MAFE4ImagesEEG,001,000007,
AFNE23.JPG,AFNE24.JPG,AFNE22.JPG,AFSA24.JPG,AFSA22.JPG,AFSA23.JPG,,,,,,,,,,,,,,,,,,,,,0,6,6,8,,,AFSA12.jpg,AFNE19.jpg,AFSA06.jpg,AFNE20.jpg,AFSA12.jpg,FS,4,num_8,16,num_8,0.850166399963,,,2017_Feb_20_1035,60.0051964477,MAFE4ImagesEEG,001,000007,
AMSA21.JPG,AMNE23.JPG,AMNE21.JPG,AMSA25.JPG,AMNE25.JPG,AMSA23.JPG,,,,,,,,,,,,,,,,,,,,,0,7,7,5,,,AFSA14.jpg,AFNE20.jpg,AFNE05.jpg,AFSA10.jpg,AFSA14.jpg,FS,4,num_8,16,num_8,1.26670348784,,,2017_Feb_20_1035,60.0051964477,MAFE4ImagesEEG,001,000007,
AFSA25.JPG,AFNE24.JPG,AFSA24.JPG,AFNE21.JPG,AFSA21.JPG,AFNE25.JPG,,,,,,,,,,,,,,,,,,,,,0,8,8,2,,,AFSA06.jpg,AFNE14.jpg,AFSA02.jpg,AFNE05.jpg,AFNE14.jpg,FN,3,num_6,16,num_6,0.500018923543,,,2017_Feb_20_1035,60.0051964477,MAFE4ImagesEEG,001,000007,
AFSA21.JPG,AFNE23.JPG,AFNE21.JPG,AFSA25.JPG,AFNE25.JPG,AFSA23.JPG,,,,,,,,,,,,,,,,,,,,,0,9,9,4,,,AFNE17.jpg,AFSA06.jpg,AFNE16.jpg,AFSA05.jpg,AFSA05.jpg,FS,4,num_4,16,num_4,0.450147732627,,,2017_Feb_20_1035,60.0051964477,MAFE4ImagesEEG,001,000007,
,,,,,,,,,,,,,,,,,,,,,,,,,,,,,,,,,,,,,,,,,,,space,9.04980287328,2017_Feb_20_1035,60.0051964477,MAFE4ImagesEEG,001,000007,
AFNE01.JPG,AFNE01.JPG,AFNE01.JPG,AFNE01.JPG,AFNE01.JPG,AFNE01.JPG,0,0,0,9,,,,,,,,,,,,,,,,,,,,,,,AMNE06.jpg,AMSA18.jpg,AMSA03.jpg,AMNE18.jpg,AMNE06.jpg,MN,1,num_8,16,num_8,2.48332505813,,,2017_Feb_20_1035,60.0051964477,MAFE4ImagesEEG,001,000007,
AFNE01.JPG,AFNE01.JPG,AFNE01.JPG,AFNE01.JPG,AFNE01.JPG,AFNE01.JPG,0,1,1,7,,,,,,,,,,,,,,,,,,,,,,,AMSA08.jpg,AMNE03.jpg,AMSA17.jpg,AMNE16.jpg,AMSA17.jpg,MS,2,num_2,32,num_6,0.816784121562,,,2017_Feb_20_1035,60.0051964477,MAFE4ImagesEEG,001,000007,
AFNE01.JPG,AFNE01.JPG,AFNE01.JPG,AFNE01.JPG,AFNE01.JPG,AFNE01.JPG,0,2,2,0,,,,,,,,,,,,,,,,,,,,,,,AMSA03.jpg,AMNE14.jpg,AMSA04.jpg,AMNE12.jpg,AMSA04.jpg,MS,2,num_2,16,num_2,1.10006440477,,,2017_Feb_20_1035,60.0051964477,MAFE4ImagesEEG,001,000007,
AFNE01.JPG,AFNE01.JPG,AFNE01.JPG,AFNE01.JPG,AFNE01.JPG,AFNE01.JPG,0,3,3,2,,,,,,,,,,,,,,,,,,,,,,,AMNE07.jpg,AMNE06.jpg,AMSA20.jpg,AMSA03.jpg,AMSA20.jpg,MS,2,num_2,32,num_6,0.983461051714,,,2017_Feb_20_1035,60.0051964477,MAFE4ImagesEEG,001,000007,
AFNE01.JPG,AFNE01.JPG,AFNE01.JPG,AFNE01.JPG,AFNE01.JPG,AFNE01.JPG,0,4,4,6,,,,,,,,,,,,,,,,,,,,,,,AMSA18.jpg,AMSA20.jpg,AMNE12.jpg,AMNE20.jpg,AMNE20.jpg,MN,1,num_4,16,num_4,0.616761156823,,,2017_Feb_20_1035,60.0051964477,MAFE4ImagesEEG,001,000007,
AFNE01.JPG,AFNE01.JPG,AFNE01.JPG,AFNE01.JPG,AFNE01.JPG,AFNE01.JPG,0,5,5,8,,,,,,,,,,,,,,,,,,,,,,,AMSA13.jpg,AMNE18.jpg,AMNE14.jpg,AMSA16.jpg,AMSA13.jpg,MS,2,num_8,16,num_8,1.21669726493,,,2017_Feb_20_1035,60.0051964477,MAFE4ImagesEEG,001,000007,
AFNE01.JPG,AFNE01.JPG,AFNE01.JPG,AFNE01.JPG,AFNE01.JPG,AFNE01.JPG,0,6,6,1,,,,,,,,,,,,,,,,,,,,,,,AMSA14.jpg,AMNE03.jpg,AMSA08.jpg,AMNE14.jpg,AMNE14.jpg,MN,1,num_4,16,num_4,1.0500966711,,,2017_Feb_20_1035,60.0051964477,MAFE4ImagesEEG,001,000007,
AFNE01.JPG,AFNE01.JPG,AFNE01.JPG,AFNE01.JPG,AFNE01.JPG,AFNE01.JPG,0,7,7,4,,,,,,,,,,,,,,,,,,,,,,,AMNE08.jpg,AMSA05.jpg,AMNE17.jpg,AMSA03.jpg,AMNE17.jpg,MN,1,num_2,16,num_2,1.05008801073,,,2017_Feb_20_1035,60.0051964477,MAFE4ImagesEEG,001,000007,
AFNE01.JPG,AFNE01.JPG,AFNE01.JPG,AFNE01.JPG,AFNE01.JPG,AFNE01.JPG,0,8,8,5,,,,,,,,,,,,,,,,,,,,,,,AMSA01.jpg,AMSA16.jpg,AMNE08.jpg,AMNE04.jpg,AMNE04.jpg,MN,1,num_4,32,num_8,0.700139393564,,,2017_Feb_20_1035,60.0051964477,MAFE4ImagesEEG,001,000007,
AFNE01.JPG,AFNE01.JPG,AFNE01.JPG,AFNE01.JPG,AFNE01.JPG,AFNE01.JPG,0,9,9,3,,,,,,,,,,,,,,,,,,,,,,,AMNE20.jpg,AMSA14.jpg,AMNE16.jpg,AMSA13.jpg,AMSA13.jpg,MS,2,num_4,16,num_4,0.716814014595,,,2017_Feb_20_1035,60.0051964477,MAFE4ImagesEEG,001,000007,
AFNE01.JPG,AFNE01.JPG,AFNE01.JPG,AFNE01.JPG,AFNE01.JPG,AFNE01.JPG,1,0,10,5,,,,,,,,,,,,,,,,,,,,,,,AMNE19.jpg,AMSA16.jpg,AMSA19.jpg,AMNE06.jpg,AMSA16.jpg,MS,2,num_6,16,num_6,0.4837166816,,,2017_Feb_20_1035,60.0051964477,MAFE4ImagesEEG,001,000007,
AFNE01.JPG,AFNE01.JPG,AFNE01.JPG,AFNE01.JPG,AFNE01.JPG,AFNE01.JPG,1,1,11,4,,,,,,,,,,,,,,,,,,,,,,,AMSA12.jpg,AMSA05.jpg,AMNE04.jpg,AMNE05.jpg,AMNE05.jpg,MN,1,num_4,32,num_8,0.700106678065,,,2017_Feb_20_1035,60.0051964477,MAFE4ImagesEEG,001,000007,
AFNE01.JPG,AFNE01.JPG,AFNE01.JPG,AFNE01.JPG,AFNE01.JPG,AFNE01.JPG,1,2,12,3,,,,,,,,,,,,,,,,,,,,,,,AMSA14.jpg,AMSA03.jpg,AMNE08.jpg,AMNE19.jpg,AMNE19.jpg,MN,1,num_4,32,num_2,0.700138110667,,,2017_Feb_20_1035,60.0051964477,MAFE4ImagesEEG,001,000007,
AFNE01.JPG,AFNE01.JPG,AFNE01.JPG,AFNE01.JPG,AFNE01.JPG,AFNE01.JPG,1,3,13,8,,,,,,,,,,,,,,,,,,,,,,,AMSA16.jpg,AMNE05.jpg,AMNE03.jpg,AMSA19.jpg,AMNE03.jpg,MN,1,num_2,32,num_6,0.966774563305,,,2017_Feb_20_1035,60.0051964477,MAFE4ImagesEEG,001,000007,
AFNE01.JPG,AFNE01.JPG,AFNE01.JPG,AFNE01.JPG,AFNE01.JPG,AFNE01.JPG,1,4,14,2,,,,,,,,,,,,,,,,,,,,,,,AMSA13.jpg,AMSA11.jpg,AMNE08.jpg,AMNE07.jpg,AMNE08.jpg,MN,1,num_2,32,num_4,1.35011187382,,,2017_Feb_20_1035,60.0051964477,MAFE4ImagesEEG,001,000007,
AFNE01.JPG,AFNE01.JPG,AFNE01.JPG,AFNE01.JPG,AFNE01.JPG,AFNE01.JPG,1,5,15,0,,,,,,,,,,,,,,,,,,,,,,,AMNE17.jpg,AMNE06.jpg,AMSA08.jpg,AMSA03.jpg,AMNE17.jpg,MN,1,num_8,16,num_8,0.9334420003,,,2017_Feb_20_1035,60.0051964477,MAFE4ImagesEEG,001,000007,
AFNE01.JPG,AFNE01.JPG,AFNE01.JPG,AFNE01.JPG,AFNE01.JPG,AFNE01.JPG,1,6,16,7,,,,,,,,,,,,,,,,,,,,,,,AMSA13.jpg,AMSA05.jpg,AMNE17.jpg,AMNE07.jpg,AMNE07.jpg,MN,1,num_4,32,num_6,0.716771035455,,,2017_Feb_20_1035,60.0051964477,MAFE4ImagesEEG,001,000007,
AFNE01.JPG,AFNE01.JPG,AFNE01.JPG,AFNE01.JPG,AFNE01.JPG,AFNE01.JPG,1,7,17,1,,,,,,,,,,,,,,,,,,,,,,,AMSA17.jpg,AMNE14.jpg,AMNE03.jpg,AMSA16.jpg,AMNE14.jpg,MN,1,num_6,16,num_6,0.616791306064,,,2017_Feb_20_1035,60.0051964477,MAFE4ImagesEEG,001,000007,
AFNE01.JPG,AFNE01.JPG,AFNE01.JPG,AFNE01.JPG,AFNE01.JPG,AFNE01.JPG,1,8,18,9,,,,,,,,,,,,,,,,,,,,,,,AMNE13.jpg,AMSA17.jpg,AMSA05.jpg,AMNE10.jpg,AMNE10.jpg,MN,1,num_4,32,num_8,0.733536746353,,,2017_Feb_20_1035,60.0051964477,MAFE4ImagesEEG,001,000007,
AFNE01.JPG,AFNE01.JPG,AFNE01.JPG,AFNE01.JPG,AFNE01.JPG,AFNE01.JPG,1,9,19,6,,,,,,,,,,,,,,,,,,,,,,,AMNE13.jpg,AMNE10.jpg,AMSA20.jpg,AMSA14.jpg,AMNE13.jpg,MN,1,num_8,32,num_2,1.11677719373,,,2017_Feb_20_1035,60.0051964477,MAFE4ImagesEEG,001,000007,
AFNE01.JPG,AFNE01.JPG,AFNE01.JPG,AFNE01.JPG,AFNE01.JPG,AFNE01.JPG,2,0,20,0,,,,,,,,,,,,,,,,,,,,,,,AMSA11.jpg,AMNE13.jpg,AMSA19.jpg,AMNE03.jpg,AMSA19.jpg,MS,2,num_2,32,num_8,0.966745055746,,,2017_Feb_20_1035,60.0051964477,MAFE4ImagesEEG,001,000007,
AFNE01.JPG,AFNE01.JPG,AFNE01.JPG,AFNE01.JPG,AFNE01.JPG,AFNE01.JPG,2,1,21,8,,,,,,,,,,,,,,,,,,,,,,,AMNE18.jpg,AMSA17.jpg,AMNE19.jpg,AMSA19.jpg,AMNE19.jpg,MN,1,num_2,32,num_8,0.74998973636,,,2017_Feb_20_1035,60.0051964477,MAFE4ImagesEEG,001,000007,
AFNE01.JPG,AFNE01.JPG,AFNE01.JPG,AFNE01.JPG,AFNE01.JPG,AFNE01.JPG,2,2,22,1,,,,,,,,,,,,,,,,,,,,,,,AMSA19.jpg,AMNE13.jpg,AMNE03.jpg,AMSA04.jpg,AMNE13.jpg,MN,1,num_6,32,num_2,0.850180512294,,,2017_Feb_20_1035,60.0051964477,MAFE4ImagesEEG,001,000007,
AFNE01.JPG,AFNE01.JPG,AFNE01.JPG,AFNE01.JPG,AFNE01.JPG,AFNE01.JPG,2,3,23,3,,,,,,,,,,,,,,,,,,,,,,,AMSA13.jpg,AMNE01.jpg,AMSA11.jpg,AMNE15.jpg,AMNE01.jpg,MN,1,num_6,32,num_8,0.783498385921,,,2017_Feb_20_1035,60.0051964477,MAFE4ImagesEEG,001,000007,
AFNE01.JPG,AFNE01.JPG,AFNE01.JPG,AFNE01.JPG,AFNE01.JPG,AFNE01.JPG,2,4,24,5,,,,,,,,,,,,,,,,,,,,,,,AMNE14.jpg,AMSA07.jpg,AMSA20.jpg,AMNE03.jpg,AMSA07.jpg,MS,2,num_6,16,num_6,1.05012297165,,,2017_Feb_20_1035,60.0051964477,MAFE4ImagesEEG,001,000007,
AFNE01.JPG,AFNE01.JPG,AFNE01.JPG,AFNE01.JPG,AFNE01.JPG,AFNE01.JPG,2,5,25,2,,,,,,,,,,,,,,,,,,,,,,,AMNE10.jpg,AMNE15.jpg,AMSA16.jpg,AMSA13.jpg,AMSA13.jpg,MS,2,num_4,32,num_6,0.750140163582,,,2017_Feb_20_1035,60.0051964477,MAFE4ImagesEEG,001,000007,
AFNE01.JPG,AFNE01.JPG,AFNE01.JPG,AFNE01.JPG,AFNE01.JPG,AFNE01.JPG,2,6,26,6,,,,,,,,,,,,,,,,,,,,,,,AMNE16.jpg,AMSA11.jpg,AMNE07.jpg,AMSA08.jpg,AMSA11.jpg,MS,2,num_6,16,num_6,1.36673774244,,,2017_Feb_20_1035,60.0051964477,MAFE4ImagesEEG,001,000007,
AFNE01.JPG,AFNE01.JPG,AFNE01.JPG,AFNE01.JPG,AFNE01.JPG,AFNE01.JPG,2,7,27,9,,,,,,,,,,,,,,,,,,,,,,,AMNE17.jpg,AMSA03.jpg,AMNE12.jpg,AMSA06.jpg,AMSA03.jpg,MS,2,num_6,16,num_6,0.449992173817,,,2017_Feb_20_1035,60.0051964477,MAFE4ImagesEEG,001,000007,
AFNE01.JPG,AFNE01.JPG,AFNE01.JPG,AFNE01.JPG,AFNE01.JPG,AFNE01.JPG,2,8,28,7,,,,,,,,,,,,,,,,,,,,,,,AMSA18.jpg,AMSA07.jpg,AMNE14.jpg,AMNE07.jpg,AMSA07.jpg,MS,2,num_6,32,num_2,1.73342416668,,,2017_Feb_20_1035,60.0051964477,MAFE4ImagesEEG,001,000007,
AFNE01.JPG,AFNE01.JPG,AFNE01.JPG,AFNE01.JPG,AFNE01.JPG,AFNE01.JPG,2,9,29,4,,,,,,,,,,,,,,,,,,,,,,,AMNE10.jpg,AMSA05.jpg,AMNE14.jpg,AMSA12.jpg,AMNE14.jpg,MN,1,num_2,32,num_8,0.733459127601,,,2017_Feb_20_1035,60.0051964477,MAFE4ImagesEEG,001,000007,
AFNE01.JPG,AFNE01.JPG,AFNE01.JPG,AFNE01.JPG,AFNE01.JPG,AFNE01.JPG,3,0,30,5,,,,,,,,,,,,,,,,,,,,,,,AMNE13.jpg,AMSA15.jpg,AMNE18.jpg,AMSA01.jpg,AMNE18.jpg,MN,1,num_2,32,num_8,1.75006735558,,,2017_Feb_20_1035,60.0051964477,MAFE4ImagesEEG,001,000007,
AFNE01.JPG,AFNE01.JPG,AFNE01.JPG,AFNE01.JPG,AFNE01.JPG,AFNE01.JPG,3,1,31,4,,,,,,,,,,,,,,,,,,,,,,,AMNE14.jpg,AMSA04.jpg,AMSA20.jpg,AMNE17.jpg,AMSA20.jpg,MS,2,num_2,32,num_4,0.700127525721,,,2017_Feb_20_1035,60.0051964477,MAFE4ImagesEEG,001,000007,
AFNE01.JPG,AFNE01.JPG,AFNE01.JPG,AFNE01.JPG,AFNE01.JPG,AFNE01.JPG,3,2,32,2,,,,,,,,,,,,,,,,,,,,,,,AMSA20.jpg,AMNE06.jpg,AMNE10.jpg,AMSA15.jpg,AMSA15.jpg,MS,2,num_4,32,num_6,1.00015748339,,,2017_Feb_20_1035,60.0051964477,MAFE4ImagesEEG,001,000007,
AFNE01.JPG,AFNE01.JPG,AFNE01.JPG,AFNE01.JPG,AFNE01.JPG,AFNE01.JPG,3,3,33,7,,,,,,,,,,,,,,,,,,,,,,,AMSA20.jpg,AMSA08.jpg,AMNE09.jpg,AMNE19.jpg,AMSA20.jpg,MS,2,num_8,32,num_4,0.816747878212,,,2017_Feb_20_1035,60.0051964477,MAFE4ImagesEEG,001,000007,
AFNE01.JPG,AFNE01.JPG,AFNE01.JPG,AFNE01.JPG,AFNE01.JPG,AFNE01.JPG,3,4,34,1,,,,,,,,,,,,,,,,,,,,,,,AMSA13.jpg,AMNE03.jpg,AMNE09.jpg,AMSA17.jpg,AMNE03.jpg,MN,1,num_6,32,num_8,1.28342205007,,,2017_Feb_20_1035,60.0051964477,MAFE4ImagesEEG,001,000007,
AFNE01.JPG,AFNE01.JPG,AFNE01.JPG,AFNE01.JPG,AFNE01.JPG,AFNE01.JPG,3,5,35,8,,,,,,,,,,,,,,,,,,,,,,,AMNE04.jpg,AMSA07.jpg,AMNE20.jpg,AMSA20.jpg,AMSA20.jpg,MS,2,num_4,32,num_6,1.050105331,,,2017_Feb_20_1035,60.0051964477,MAFE4ImagesEEG,001,000007,
AFNE01.JPG,AFNE01.JPG,AFNE01.JPG,AFNE01.JPG,AFNE01.JPG,AFNE01.JPG,3,6,36,0,,,,,,,,,,,,,,,,,,,,,,,AMSA01.jpg,AMSA10.jpg,AMNE02.jpg,AMNE10.jpg,AMSA10.jpg,MS,2,num_6,16,num_6,0.516817991622,,,2017_Feb_20_1035,60.0051964477,MAFE4ImagesEEG,001,000007,
AFNE01.JPG,AFNE01.JPG,AFNE01.JPG,AFNE01.JPG,AFNE01.JPG,AFNE01.JPG,3,7,37,9,,,,,,,,,,,,,,,,,,,,,,,AMSA08.jpg,AMNE08.jpg,AMSA05.jpg,AMNE12.jpg,AMSA05.jpg,MS,2,num_2,32,num_4,1.16674396489,,,2017_Feb_20_1035,60.0051964477,MAFE4ImagesEEG,001,000007,
AFNE01.JPG,AFNE01.JPG,AFNE01.JPG,AFNE01.JPG,AFNE01.JPG,AFNE01.JPG,3,8,38,6,,,,,,,,,,,,,,,,,,,,,,,AMSA12.jpg,AMSA02.jpg,AMNE03.jpg,AMNE18.jpg,AMNE03.jpg,MN,1,num_2,32,num_8,1.53342044633,,,2017_Feb_20_1035,60.0051964477,MAFE4ImagesEEG,001,000007,
AFNE01.JPG,AFNE01.JPG,AFNE01.JPG,AFNE01.JPG,AFNE01.JPG,AFNE01.JPG,3,9,39,3,,,,,,,,,,,,,,,,,,,,,,,AMNE10.jpg,AMSA07.jpg,AMNE11.jpg,AMSA03.jpg,AMSA03.jpg,MS,2,num_4,32,num_8,0.900121624582,,,2017_Feb_20_1035,60.0051964477,MAFE4ImagesEEG,001,000007,
AFNE01.JPG,AFNE01.JPG,AFNE01.JPG,AFNE01.JPG,AFNE01.JPG,AFNE01.JPG,4,0,40,3,,,,,,,,,,,,,,,,,,,,,,,AMNE06.jpg,AMSA16.jpg,AMSA20.jpg,AMNE14.jpg,AMNE06.jpg,MN,1,num_8,32,num_2,0.533485876862,,,2017_Feb_20_1035,60.0051964477,MAFE4ImagesEEG,001,000007,
AFNE01.JPG,AFNE01.JPG,AFNE01.JPG,AFNE01.JPG,AFNE01.JPG,AFNE01.JPG,4,1,41,4,,,,,,,,,,,,,,,,,,,,,,,AMNE12.jpg,AMNE19.jpg,AMSA16.jpg,AMSA04.jpg,AMSA16.jpg,MS,2,num_2,32,num_8,1.58341415972,,,2017_Feb_20_1035,60.0051964477,MAFE4ImagesEEG,001,000007,
AFNE01.JPG,AFNE01.JPG,AFNE01.JPG,AFNE01.JPG,AFNE01.JPG,AFNE01.JPG,4,2,42,2,,,,,,,,,,,,,,,,,,,,,,,AMNE19.jpg,AMSA17.jpg,AMSA14.jpg,AMNE08.jpg,AMSA17.jpg,MS,2,num_6,16,num_6,0.483495691791,,,2017_Feb_20_1035,60.0051964477,MAFE4ImagesEEG,001,000007,
AFNE01.JPG,AFNE01.JPG,AFNE01.JPG,AFNE01.JPG,AFNE01.JPG,AFNE01.JPG,4,3,43,9,,,,,,,,,,,,,,,,,,,,,,,AMNE09.jpg,AMSA08.jpg,AMSA12.jpg,AMNE16.jpg,AMNE16.jpg,MN,1,num_4,32,num_2,1.13371546287,,,2017_Feb_20_1035,60.0051964477,MAFE4ImagesEEG,001,000007,
AFNE01.JPG,AFNE01.JPG,AFNE01.JPG,AFNE01.JPG,AFNE01.JPG,AFNE01.JPG,4,4,44,7,,,,,,,,,,,,,,,,,,,,,,,AMNE10.jpg,AMSA11.jpg,AMNE16.jpg,AMSA13.jpg,AMSA11.jpg,MS,2,num_6,16,num_6,0.683443924412,,,2017_Feb_20_1035,60.0051964477,MAFE4ImagesEEG,001,000007,
AFNE01.JPG,AFNE01.JPG,AFNE01.JPG,AFNE01.JPG,AFNE01.JPG,AFNE01.JPG,4,5,45,6,,,,,,,,,,,,,,,,,,,,,,,AMNE01.jpg,AMNE09.jpg,AMSA02.jpg,AMSA05.jpg,AMNE09.jpg,MN,1,num_6,16,num_6,0.400160754565,,,2017_Feb_20_1035,60.0051964477,MAFE4ImagesEEG,001,000007,
AFNE01.JPG,AFNE01.JPG,AFNE01.JPG,AFNE01.JPG,AFNE01.JPG,AFNE01.JPG,4,6,46,0,,,,,,,,,,,,,,,,,,,,,,,AMSA03.jpg,AMNE10.jpg,AMSA18.jpg,AMNE05.jpg,AMSA03.jpg,MS,2,num_8,16,num_8,0.466789958999,,,2017_Feb_20_1035,60.0051964477,MAFE4ImagesEEG,001,000007,
AFNE01.JPG,AFNE01.JPG,AFNE01.JPG,AFNE01.JPG,AFNE01.JPG,AFNE01.JPG,4,7,47,5,,,,,,,,,,,,,,,,,,,,,,,AMNE15.jpg,AMSA08.jpg,AMSA01.jpg,AMNE17.jpg,AMSA08.jpg,MS,2,num_6,32,num_2,0.800129065756,,,2017_Feb_20_1035,60.0051964477,MAFE4ImagesEEG,001,000007,
AFNE01.JPG,AFNE01.JPG,AFNE01.JPG,AFNE01.JPG,AFNE01.JPG,AFNE01.JPG,4,8,48,8,,,,,,,,,,,,,,,,,,,,,,,AMSA05.jpg,AMSA18.jpg,AMNE15.jpg,AMNE02.jpg,AMSA18.jpg,MS,2,num_6,32,num_2,0.700134261511,,,2017_Feb_20_1035,60.0051964477,MAFE4ImagesEEG,001,000007,
AFNE01.JPG,AFNE01.JPG,AFNE01.JPG,AFNE01.JPG,AFNE01.JPG,AFNE01.JPG,4,9,49,1,,,,,,,,,,,,,,,,,,,,,,,AMSA15.jpg,AMNE17.jpg,AMSA07.jpg,AMNE04.jpg,AMSA07.jpg,MS,2,num_2,32,num_8,0.983448863495,,,2017_Feb_20_1035,60.0051964477,MAFE4ImagesEEG,001,000007,
AFNE01.JPG,AFNE01.JPG,AFNE01.JPG,AFNE01.JPG,AFNE01.JPG,AFNE01.JPG,5,0,50,1,,,,,,,,,,,,,,,,,,,,,,,AMNE03.jpg,AMNE04.jpg,AMSA14.jpg,AMSA09.jpg,AMSA14.jpg,MS,2,num_2,16,num_2,0.466803430114,,,2017_Feb_20_1035,60.0051964477,MAFE4ImagesEEG,001,000007,
AFNE01.JPG,AFNE01.JPG,AFNE01.JPG,AFNE01.JPG,AFNE01.JPG,AFNE01.JPG,5,1,51,5,,,,,,,,,,,,,,,,,,,,,,,AMNE19.jpg,AMSA17.jpg,AMSA08.jpg,AMNE14.jpg,AMNE14.jpg,MN,1,num_4,32,num_2,1.15018320689,,,2017_Feb_20_1035,60.0051964477,MAFE4ImagesEEG,001,000007,
AFNE01.JPG,AFNE01.JPG,AFNE01.JPG,AFNE01.JPG,AFNE01.JPG,AFNE01.JPG,5,2,52,4,,,,,,,,,,,,,,,,,,,,,,,AMNE13.jpg,AMSA08.jpg,AMNE16.jpg,AMSA11.jpg,AMNE16.jpg,MN,1,num_2,32,num_8,0.94984174706,,,2017_Feb_20_1035,60.0051964477,MAFE4ImagesEEG,001,000007,
AFNE01.JPG,AFNE01.JPG,AFNE01.JPG,AFNE01.JPG,AFNE01.JPG,AFNE01.JPG,5,3,53,2,,,,,,,,,,,,,,,,,,,,,,,AMNE01.jpg,AMNE15.jpg,AMSA20.jpg,AMSA02.jpg,AMNE15.jpg,MN,1,num_6,16,num_6,1.24989383528,,,2017_Feb_20_1035,60.0051964477,MAFE4ImagesEEG,001,000007,
AFNE01.JPG,AFNE01.JPG,AFNE01.JPG,AFNE01.JPG,AFNE01.JPG,AFNE01.JPG,5,4,54,6,,,,,,,,,,,,,,,,,,,,,,,AMSA15.jpg,AMSA07.jpg,AMNE15.jpg,AMNE17.jpg,AMSA07.jpg,MS,2,num_6,32,num_2,1.15007415507,,,2017_Feb_20_1035,60.0051964477,MAFE4ImagesEEG,001,000007,
AFNE01.JPG,AFNE01.JPG,AFNE01.JPG,AFNE01.JPG,AFNE01.JPG,AFNE01.JPG,5,5,55,3,,,,,,,,,,,,,,,,,,,,,,,AMNE17.jpg,AMNE04.jpg,AMSA07.jpg,AMSA02.jpg,AMSA07.jpg,MS,2,num_2,32,num_8,1.03377935383,,,2017_Feb_20_1035,60.0051964477,MAFE4ImagesEEG,001,000007,
AFNE01.JPG,AFNE01.JPG,AFNE01.JPG,AFNE01.JPG,AFNE01.JPG,AFNE01.JPG,5,6,56,0,,,,,,,,,,,,,,,,,,,,,,,AMNE03.jpg,AMSA17.jpg,AMNE01.jpg,AMSA15.jpg,AMNE03.jpg,MN,1,num_8,16,num_8,1.11676821299,,,2017_Feb_20_1035,60.0051964477,MAFE4ImagesEEG,001,000007,
AFNE01.JPG,AFNE01.JPG,AFNE01.JPG,AFNE01.JPG,AFNE01.JPG,AFNE01.JPG,5,7,57,9,,,,,,,,,,,,,,,,,,,,,,,AMNE08.jpg,AMSA16.jpg,AMNE06.jpg,AMSA10.jpg,AMSA10.jpg,MS,2,num_4,32,num_8,1.5000439412,,,2017_Feb_20_1035,60.0051964477,MAFE4ImagesEEG,001,000007,
AFNE01.JPG,AFNE01.JPG,AFNE01.JPG,AFNE01.JPG,AFNE01.JPG,AFNE01.JPG,5,8,58,7,,,,,,,,,,,,,,,,,,,,,,,AMNE02.jpg,AMSA04.jpg,AMNE03.jpg,AMSA18.jpg,AMSA04.jpg,MS,2,num_6,32,num_4,0.500167426188,,,2017_Feb_20_1035,60.0051964477,MAFE4ImagesEEG,001,000007,
AFNE01.JPG,AFNE01.JPG,AFNE01.JPG,AFNE01.JPG,AFNE01.JPG,AFNE01.JPG,5,9,59,8,,,,,,,,,,,,,,,,,,,,,,,AMSA16.jpg,AMNE20.jpg,AMNE18.jpg,AMSA06.jpg,AMSA06.jpg,MS,2,num_4,32,num_6,1.10007338505,,,2017_Feb_20_1035,60.0051964477,MAFE4ImagesEEG,001,000007,
,,,,,,,,,,,,,,,,,,,,,,,,,,,,,,,,,,,,,,,,,,,space,7.83294171002,2017_Feb_20_1035,60.0051964477,MAFE4ImagesEEG,001,000007,
AFNE01.JPG,AFNE01.JPG,AFNE01.JPG,AFNE01.JPG,AFNE01.JPG,AFNE01.JPG,,,,,0,0,0,3,,,,,,,,,,,,,,,,,,,AFSA05.jpg,AFNE01.jpg,AFSA18.jpg,AFNE19.jpg,AFNE19.jpg,FN,3,num_4,32,num_6,1.03342237091,,,2017_Feb_20_1035,60.0051964477,MAFE4ImagesEEG,001,000007,
AFNE01.JPG,AFNE01.JPG,AFNE01.JPG,AFNE01.JPG,AFNE01.JPG,AFNE01.JPG,,,,,0,1,1,5,,,,,,,,,,,,,,,,,,,AFNE15.jpg,AFSA15.jpg,AFNE05.jpg,AFSA12.jpg,AFSA12.jpg,FS,4,num_4,16,num_4,1.09982064227,,,2017_Feb_20_1035,60.0051964477,MAFE4ImagesEEG,001,000007,
AFNE01.JPG,AFNE01.JPG,AFNE01.JPG,AFNE01.JPG,AFNE01.JPG,AFNE01.JPG,,,,,0,2,2,1,,,,,,,,,,,,,,,,,,,AFNE10.jpg,AFSA15.jpg,AFNE08.jpg,AFSA18.jpg,AFSA18.jpg,FS,4,num_4,16,num_4,0.633523018565,,,2017_Feb_20_1035,60.0051964477,MAFE4ImagesEEG,001,000007,
AFNE01.JPG,AFNE01.JPG,AFNE01.JPG,AFNE01.JPG,AFNE01.JPG,AFNE01.JPG,,,,,0,3,3,2,,,,,,,,,,,,,,,,,,,AFNE19.jpg,AFSA14.jpg,AFSA04.jpg,AFNE05.jpg,AFNE05.jpg,FN,3,num_4,32,num_2,1.3000354101,,,2017_Feb_20_1035,60.0051964477,MAFE4ImagesEEG,001,000007,
AFNE01.JPG,AFNE01.JPG,AFNE01.JPG,AFNE01.JPG,AFNE01.JPG,AFNE01.JPG,,,,,0,4,4,8,,,,,,,,,,,,,,,,,,,AFSA05.jpg,AFNE03.jpg,AFNE15.jpg,AFSA20.jpg,AFSA05.jpg,FS,4,num_8,16,num_8,0.550122009125,,,2017_Feb_20_1035,60.0051964477,MAFE4ImagesEEG,001,000007,
AFNE01.JPG,AFNE01.JPG,AFNE01.JPG,AFNE01.JPG,AFNE01.JPG,AFNE01.JPG,,,,,0,5,5,4,,,,,,,,,,,,,,,,,,,AFSA01.jpg,AFSA08.jpg,AFNE02.jpg,AFNE11.jpg,AFSA01.jpg,FS,4,num_8,16,num_8,0.683447452262,,,2017_Feb_20_1035,60.0051964477,MAFE4ImagesEEG,001,000007,
AFNE01.JPG,AFNE01.JPG,AFNE01.JPG,AFNE01.JPG,AFNE01.JPG,AFNE01.JPG,,,,,0,6,6,6,,,,,,,,,,,,,,,,,,,AFNE15.jpg,AFSA19.jpg,AFNE06.jpg,AFSA10.jpg,AFNE06.jpg,FN,3,num_2,32,num_4,0.750117711257,,,2017_Feb_20_1035,60.0051964477,MAFE4ImagesEEG,001,000007,
AFNE01.JPG,AFNE01.JPG,AFNE01.JPG,AFNE01.JPG,AFNE01.JPG,AFNE01.JPG,,,,,0,7,7,9,,,,,,,,,,,,,,,,,,,AFNE03.jpg,AFSA20.jpg,AFSA08.jpg,AFNE11.jpg,AFSA08.jpg,FS,4,num_2,16,num_2,1.70005151071,,,2017_Feb_20_1035,60.0051964477,MAFE4ImagesEEG,001,000007,
AFNE01.JPG,AFNE01.JPG,AFNE01.JPG,AFNE01.JPG,AFNE01.JPG,AFNE01.JPG,,,,,0,8,8,0,,,,,,,,,,,,,,,,,,,AFSA03.jpg,AFNE15.jpg,AFNE20.jpg,AFSA18.jpg,AFNE20.jpg,FN,3,num_2,32,num_6,0.733488635626,,,2017_Feb_20_1035,60.0051964477,MAFE4ImagesEEG,001,000007,
AFNE01.JPG,AFNE01.JPG,AFNE01.JPG,AFNE01.JPG,AFNE01.JPG,AFNE01.JPG,,,,,0,9,9,7,,,,,,,,,,,,,,,,,,,AFSA08.jpg,AFNE09.jpg,AFSA05.jpg,AFNE20.jpg,AFSA05.jpg,FS,4,num_2,32,num_8,0.883463681675,,,2017_Feb_20_1035,60.0051964477,MAFE4ImagesEEG,001,000007,
AFNE01.JPG,AFNE01.JPG,AFNE01.JPG,AFNE01.JPG,AFNE01.JPG,AFNE01.JPG,,,,,1,0,10,8,,,,,,,,,,,,,,,,,,,AFNE04.jpg,AFSA18.jpg,AFSA19.jpg,AFNE17.jpg,AFSA19.jpg,FS,4,num_2,16,num_2,1.23342737462,,,2017_Feb_20_1035,60.0051964477,MAFE4ImagesEEG,001,000007,
AFNE01.JPG,AFNE01.JPG,AFNE01.JPG,AFNE01.JPG,AFNE01.JPG,AFNE01.JPG,,,,,1,1,11,6,,,,,,,,,,,,,,,,,,,AFNE13.jpg,AFNE14.jpg,AFSA03.jpg,AFSA09.jpg,AFSA09.jpg,FS,4,num_4,32,num_6,0.783459897153,,,2017_Feb_20_1035,60.0051964477,MAFE4ImagesEEG,001,000007,
AFNE01.JPG,AFNE01.JPG,AFNE01.JPG,AFNE01.JPG,AFNE01.JPG,AFNE01.JPG,,,,,1,2,12,3,,,,,,,,,,,,,,,,,,,AFNE13.jpg,AFSA16.jpg,AFSA14.jpg,AFNE10.jpg,AFNE10.jpg,FN,3,num_4,16,num_4,0.416810037568,,,2017_Feb_20_1035,60.0051964477,MAFE4ImagesEEG,001,000007,
AFNE01.JPG,AFNE01.JPG,AFNE01.JPG,AFNE01.JPG,AFNE01.JPG,AFNE01.JPG,,,,,1,3,13,4,,,,,,,,,,,,,,,,,,,AFSA03.jpg,AFNE07.jpg,AFSA06.jpg,AFNE04.jpg,AFSA03.jpg,FS,4,num_8,32,num_6,1.75005452614,,,2017_Feb_20_1035,60.0051964477,MAFE4ImagesEEG,001,000007,
AFNE01.JPG,AFNE01.JPG,AFNE01.JPG,AFNE01.JPG,AFNE01.JPG,AFNE01.JPG,,,,,1,4,14,1,,,,,,,,,,,,,,,,,,,AFNE04.jpg,AFSA07.jpg,AFSA20.jpg,AFNE02.jpg,AFSA07.jpg,FS,4,num_6,16,num_6,0.816773857921,,,2017_Feb_20_1035,60.0051964477,MAFE4ImagesEEG,001,000007,
AFNE01.JPG,AFNE01.JPG,AFNE01.JPG,AFNE01.JPG,AFNE01.JPG,AFNE01.JPG,,,,,1,5,15,0,,,,,,,,,,,,,,,,,,,AFSA11.jpg,AFNE02.jpg,AFSA04.jpg,AFNE17.jpg,AFNE02.jpg,FN,3,num_6,16,num_6,0.666525540873,,,2017_Feb_20_1035,60.0051964477,MAFE4ImagesEEG,001,000007,
AFNE01.JPG,AFNE01.JPG,AFNE01.JPG,AFNE01.JPG,AFNE01.JPG,AFNE01.JPG,,,,,1,6,16,7,,,,,,,,,,,,,,,,,,,AFNE15.jpg,AFSA14.jpg,AFSA01.jpg,AFNE16.jpg,AFSA14.jpg,FS,4,num_6,32,num_4,0.833466440439,,,2017_Feb_20_1035,60.0051964477,MAFE4ImagesEEG,001,000007,
AFNE01.JPG,AFNE01.JPG,AFNE01.JPG,AFNE01.JPG,AFNE01.JPG,AFNE01.JPG,,,,,1,7,17,9,,,,,,,,,,,,,,,,,,,AFSA03.jpg,AFSA15.jpg,AFNE05.jpg,AFNE14.jpg,AFSA15.jpg,FS,4,num_6,32,num_4,0.700090961531,,,2017_Feb_20_1035,60.0051964477,MAFE4ImagesEEG,001,000007,
AFNE01.JPG,AFNE01.JPG,AFNE01.JPG,AFNE01.JPG,AFNE01.JPG,AFNE01.JPG,,,,,1,8,18,5,,,,,,,,,,,,,,,,,,,AFSA17.jpg,AFNE18.jpg,AFNE16.jpg,AFSA15.jpg,AFSA15.jpg,FS,4,num_4,16,num_4,0.666793038137,,,2017_Feb_20_1035,60.0051964477,MAFE4ImagesEEG,001,000007,
AFNE01.JPG,AFNE01.JPG,AFNE01.JPG,AFNE01.JPG,AFNE01.JPG,AFNE01.JPG,,,,,1,9,19,2,,,,,,,,,,,,,,,,,,,AFSA15.jpg,AFNE11.jpg,AFNE18.jpg,AFSA18.jpg,AFNE11.jpg,FN,3,num_6,32,num_2,1.05010693474,,,2017_Feb_20_1035,60.0051964477,MAFE4ImagesEEG,001,000007,
AFNE01.JPG,AFNE01.JPG,AFNE01.JPG,AFNE01.JPG,AFNE01.JPG,AFNE01.JPG,,,,,2,0,20,8,,,,,,,,,,,,,,,,,,,AFNE13.jpg,AFSA06.jpg,AFSA08.jpg,AFNE09.jpg,AFSA08.jpg,FS,4,num_2,32,num_6,1.4334291704,,,2017_Feb_20_1035,60.0051964477,MAFE4ImagesEEG,001,000007,
AFNE01.JPG,AFNE01.JPG,AFNE01.JPG,AFNE01.JPG,AFNE01.JPG,AFNE01.JPG,,,,,2,1,21,4,,,,,,,,,,,,,,,,,,,AFSA19.jpg,AFNE11.jpg,AFSA12.jpg,AFNE15.jpg,AFSA19.jpg,FS,4,num_8,32,num_6,0.78348395275,,,2017_Feb_20_1035,60.0051964477,MAFE4ImagesEEG,001,000007,
AFNE01.JPG,AFNE01.JPG,AFNE01.JPG,AFNE01.JPG,AFNE01.JPG,AFNE01.JPG,,,,,2,2,22,2,,,,,,,,,,,,,,,,,,,AFNE09.jpg,AFSA15.jpg,AFNE15.jpg,AFSA12.jpg,AFSA15.jpg,FS,4,num_6,32,num_8,1.75005420484,,,2017_Feb_20_1035,60.0051964477,MAFE4ImagesEEG,001,000007,
AFNE01.JPG,AFNE01.JPG,AFNE01.JPG,AFNE01.JPG,AFNE01.JPG,AFNE01.JPG,,,,,2,3,23,7,,,,,,,,,,,,,,,,,,,AFNE13.jpg,AFNE18.jpg,AFSA16.jpg,AFSA07.jpg,AFNE18.jpg,FN,3,num_6,32,num_8,1.70002104063,,,2017_Feb_20_1035,60.0051964477,MAFE4ImagesEEG,001,000007,
AFNE01.JPG,AFNE01.JPG,AFNE01.JPG,AFNE01.JPG,AFNE01.JPG,AFNE01.JPG,,,,,2,4,24,0,,,,,,,,,,,,,,,,,,,AFSA07.jpg,AFNE11.jpg,AFNE10.jpg,AFSA17.jpg,AFSA17.jpg,FS,4,num_4,16,num_4,1.3834874169,,,2017_Feb_20_1035,60.0051964477,MAFE4ImagesEEG,001,000007,
AFNE01.JPG,AFNE01.JPG,AFNE01.JPG,AFNE01.JPG,AFNE01.JPG,AFNE01.JPG,,,,,2,5,25,9,,,,,,,,,,,,,,,,,,,AFNE01.jpg,AFNE11.jpg,AFSA15.jpg,AFSA01.jpg,AFSA01.jpg,FS,4,num_4,16,num_4,0.816771292128,,,2017_Feb_20_1035,60.0051964477,MAFE4ImagesEEG,001,000007,
AFNE01.JPG,AFNE01.JPG,AFNE01.JPG,AFNE01.JPG,AFNE01.JPG,AFNE01.JPG,,,,,2,6,26,1,,,,,,,,,,,,,,,,,,,AFNE12.jpg,AFSA10.jpg,AFSA02.jpg,AFNE18.jpg,AFNE12.jpg,FN,3,num_8,32,num_6,1.91664389428,,,2017_Feb_20_1035,60.0051964477,MAFE4ImagesEEG,001,000007,
AFNE01.JPG,AFNE01.JPG,AFNE01.JPG,AFNE01.JPG,AFNE01.JPG,AFNE01.JPG,,,,,2,7,27,6,,,,,,,,,,,,,,,,,,,AFSA04.jpg,AFSA01.jpg,AFNE13.jpg,AFNE02.jpg,AFSA04.jpg,FS,4,num_8,32,num_4,1.23342384631,,,2017_Feb_20_1035,60.0051964477,MAFE4ImagesEEG,001,000007,
AFNE01.JPG,AFNE01.JPG,AFNE01.JPG,AFNE01.JPG,AFNE01.JPG,AFNE01.JPG,,,,,2,8,28,5,,,,,,,,,,,,,,,,,,,AFSA19.jpg,AFNE07.jpg,AFNE08.jpg,AFSA10.jpg,AFNE07.jpg,FN,3,num_6,16,num_6,0.600163512863,,,2017_Feb_20_1035,60.0051964477,MAFE4ImagesEEG,001,000007,
AFNE01.JPG,AFNE01.JPG,AFNE01.JPG,AFNE01.JPG,AFNE01.JPG,AFNE01.JPG,,,,,2,9,29,3,,,,,,,,,,,,,,,,,,,AFSA14.jpg,AFNE07.jpg,AFNE01.jpg,AFSA15.jpg,AFNE01.jpg,FN,3,num_2,32,num_6,0.783471444156,,,2017_Feb_20_1035,60.0051964477,MAFE4ImagesEEG,001,000007,
AFNE01.JPG,AFNE01.JPG,AFNE01.JPG,AFNE01.JPG,AFNE01.JPG,AFNE01.JPG,,,,,3,0,30,0,,,,,,,,,,,,,,,,,,,AFNE19.jpg,AFNE10.jpg,AFSA20.jpg,AFSA01.jpg,AFNE10.jpg,FN,3,num_6,32,num_8,1.31672606757,,,2017_Feb_20_1035,60.0051964477,MAFE4ImagesEEG,001,000007,
AFNE01.JPG,AFNE01.JPG,AFNE01.JPG,AFNE01.JPG,AFNE01.JPG,AFNE01.JPG,,,,,3,1,31,1,,,,,,,,,,,,,,,,,,,AFSA06.jpg,AFNE05.jpg,AFNE12.jpg,AFSA03.jpg,AFNE05.jpg,FN,3,num_6,16,num_6,0.800173648633,,,2017_Feb_20_1035,60.0051964477,MAFE4ImagesEEG,001,000007,
AFNE01.JPG,AFNE01.JPG,AFNE01.JPG,AFNE01.JPG,AFNE01.JPG,AFNE01.JPG,,,,,3,2,32,3,,,,,,,,,,,,,,,,,,,AFSA02.jpg,AFSA01.jpg,AFNE18.jpg,AFNE17.jpg,AFNE18.jpg,FN,3,num_2,16,num_2,0.966761733871,,,2017_Feb_20_1035,60.0051964477,MAFE4ImagesEEG,001,000007,
AFNE01.JPG,AFNE01.JPG,AFNE01.JPG,AFNE01.JPG,AFNE01.JPG,AFNE01.JPG,,,,,3,3,33,5,,,,,,,,,,,,,,,,,,,AFNE11.jpg,AFSA10.jpg,AFNE01.jpg,AFSA15.jpg,AFNE11.jpg,FN,3,num_8,16,num_8,0.916741078254,,,2017_Feb_20_1035,60.0051964477,MAFE4ImagesEEG,001,000007,
AFNE01.JPG,AFNE01.JPG,AFNE01.JPG,AFNE01.JPG,AFNE01.JPG,AFNE01.JPG,,,,,3,4,34,2,,,,,,,,,,,,,,,,,,,AFNE02.jpg,AFNE14.jpg,AFSA14.jpg,AFSA17.jpg,AFNE14.jpg,FN,3,num_6,32,num_8,0.849802039564,,,2017_Feb_20_1035,60.0051964477,MAFE4ImagesEEG,001,000007,
AFNE01.JPG,AFNE01.JPG,AFNE01.JPG,AFNE01.JPG,AFNE01.JPG,AFNE01.JPG,,,,,3,5,35,6,,,,,,,,,,,,,,,,,,,AFNE19.jpg,AFNE01.jpg,AFSA05.jpg,AFSA09.jpg,AFSA09.jpg,FS,4,num_4,32,num_8,0.900083456188,,,2017_Feb_20_1035,60.0051964477,MAFE4ImagesEEG,001,000007,
AFNE01.JPG,AFNE01.JPG,AFNE01.JPG,AFNE01.JPG,AFNE01.JPG,AFNE01.JPG,,,,,3,6,36,8,,,,,,,,,,,,,,,,,,,AFNE13.jpg,AFSA18.jpg,AFNE05.jpg,AFSA05.jpg,AFSA05.jpg,FS,4,num_4,32,num_6,1.80005754065,,,2017_Feb_20_1035,60.0051964477,MAFE4ImagesEEG,001,000007,
AFNE01.JPG,AFNE01.JPG,AFNE01.JPG,AFNE01.JPG,AFNE01.JPG,AFNE01.JPG,,,,,3,7,37,4,,,,,,,,,,,,,,,,,,,AFSA08.jpg,AFNE07.jpg,AFSA07.jpg,AFNE05.jpg,AFNE07.jpg,FN,3,num_6,32,num_4,0.700157996733,,,2017_Feb_20_1035,60.0051964477,MAFE4ImagesEEG,001,000007,
AFNE01.JPG,AFNE01.JPG,AFNE01.JPG,AFNE01.JPG,AFNE01.JPG,AFNE01.JPG,,,,,3,8,38,9,,,,,,,,,,,,,,,,,,,AFNE19.jpg,AFSA01.jpg,AFSA04.jpg,AFNE13.jpg,AFNE19.jpg,FN,3,num_8,16,num_8,0.716782261152,,,2017_Feb_20_1035,60.0051964477,MAFE4ImagesEEG,001,000007,
AFNE01.JPG,AFNE01.JPG,AFNE01.JPG,AFNE01.JPG,AFNE01.JPG,AFNE01.JPG,,,,,3,9,39,7,,,,,,,,,,,,,,,,,,,AFSA16.jpg,AFNE07.jpg,AFSA15.jpg,AFNE12.jpg,AFSA16.jpg,FS,4,num_8,16,num_8,1.6334848511,,,2017_Feb_20_1035,60.0051964477,MAFE4ImagesEEG,001,000007,
AFNE01.JPG,AFNE01.JPG,AFNE01.JPG,AFNE01.JPG,AFNE01.JPG,AFNE01.JPG,,,,,4,0,40,4,,,,,,,,,,,,,,,,,,,AFNE03.jpg,AFSA01.jpg,AFSA12.jpg,AFNE19.jpg,AFSA01.jpg,FS,4,num_6,16,num_6,0.583473175764,,,2017_Feb_20_1035,60.0051964477,MAFE4ImagesEEG,001,000007,
AFNE01.JPG,AFNE01.JPG,AFNE01.JPG,AFNE01.JPG,AFNE01.JPG,AFNE01.JPG,,,,,4,1,41,7,,,,,,,,,,,,,,,,,,,AFNE10.jpg,AFNE04.jpg,AFSA09.jpg,AFSA05.jpg,AFNE04.jpg,FN,3,num_6,32,num_8,0.649983386043,,,2017_Feb_20_1035,60.0051964477,MAFE4ImagesEEG,001,000007,
AFNE01.JPG,AFNE01.JPG,AFNE01.JPG,AFNE01.JPG,AFNE01.JPG,AFNE01.JPG,,,,,4,2,42,3,,,,,,,,,,,,,,,,,,,AFSA13.jpg,AFNE13.jpg,AFSA18.jpg,AFNE06.jpg,AFNE13.jpg,FN,3,num_6,16,num_6,1.0500825583,,,2017_Feb_20_1035,60.0051964477,MAFE4ImagesEEG,001,000007,
AFNE01.JPG,AFNE01.JPG,AFNE01.JPG,AFNE01.JPG,AFNE01.JPG,AFNE01.JPG,,,,,4,3,43,8,,,,,,,,,,,,,,,,,,,AFNE08.jpg,AFSA10.jpg,AFNE19.jpg,AFSA06.jpg,AFNE19.jpg,FN,3,num_2,32,num_6,0.933570937719,,,2017_Feb_20_1035,60.0051964477,MAFE4ImagesEEG,001,000007,
AFNE01.JPG,AFNE01.JPG,AFNE01.JPG,AFNE01.JPG,AFNE01.JPG,AFNE01.JPG,,,,,4,4,44,1,,,,,,,,,,,,,,,,,,,AFSA01.jpg,AFSA13.jpg,AFNE06.jpg,AFNE15.jpg,AFNE06.jpg,FN,3,num_2,32,num_4,0.550129065756,,,2017_Feb_20_1035,60.0051964477,MAFE4ImagesEEG,001,000007,
AFNE01.JPG,AFNE01.JPG,AFNE01.JPG,AFNE01.JPG,AFNE01.JPG,AFNE01.JPG,,,,,4,5,45,6,,,,,,,,,,,,,,,,,,,AFSA07.jpg,AFNE06.jpg,AFNE14.jpg,AFSA08.jpg,AFNE14.jpg,FN,3,num_2,32,num_4,0.616999145597,,,2017_Feb_20_1035,60.0051964477,MAFE4ImagesEEG,001,000007,
AFNE01.JPG,AFNE01.JPG,AFNE01.JPG,AFNE01.JPG,AFNE01.JPG,AFNE01.JPG,,,,,4,6,46,9,,,,,,,,,,,,,,,,,,,AFNE06.jpg,AFSA08.jpg,AFNE05.jpg,AFSA01.jpg,AFNE06.jpg,FN,3,num_8,32,num_6,0.46680054348,,,2017_Feb_20_1035,60.0051964477,MAFE4ImagesEEG,001,000007,
AFNE01.JPG,AFNE01.JPG,AFNE01.JPG,AFNE01.JPG,AFNE01.JPG,AFNE01.JPG,,,,,4,7,47,5,,,,,,,,,,,,,,,,,,,AFSA19.jpg,AFNE15.jpg,AFSA13.jpg,AFNE20.jpg,AFNE15.jpg,FN,3,num_6,32,num_8,1.11673710076,,,2017_Feb_20_1035,60.0051964477,MAFE4ImagesEEG,001,000007,
AFNE01.JPG,AFNE01.JPG,AFNE01.JPG,AFNE01.JPG,AFNE01.JPG,AFNE01.JPG,,,,,4,8,48,0,,,,,,,,,,,,,,,,,,,AFNE12.jpg,AFNE11.jpg,AFSA01.jpg,AFSA13.jpg,AFNE12.jpg,FN,3,num_8,32,num_6,0.716831976082,,,2017_Feb_20_1035,60.0051964477,MAFE4ImagesEEG,001,000007,
AFNE01.JPG,AFNE01.JPG,AFNE01.JPG,AFNE01.JPG,AFNE01.JPG,AFNE01.JPG,,,,,4,9,49,2,,,,,,,,,,,,,,,,,,,AFSA06.jpg,AFNE13.jpg,AFSA10.jpg,AFNE16.jpg,AFSA10.jpg,FS,4,num_2,32,num_8,1.70004060585,,,2017_Feb_20_1035,60.0051964477,MAFE4ImagesEEG,001,000007,
AFNE01.JPG,AFNE01.JPG,AFNE01.JPG,AFNE01.JPG,AFNE01.JPG,AFNE01.JPG,,,,,5,0,50,0,,,,,,,,,,,,,,,,,,,AFNE13.jpg,AFNE07.jpg,AFSA12.jpg,AFSA08.jpg,AFNE13.jpg,FN,3,num_8,16,num_8,1.51670894027,,,2017_Feb_20_1035,60.0051964477,MAFE4ImagesEEG,001,000007,
AFNE01.JPG,AFNE01.JPG,AFNE01.JPG,AFNE01.JPG,AFNE01.JPG,AFNE01.JPG,,,,,5,1,51,9,,,,,,,,,,,,,,,,,,,AFSA07.jpg,AFNE16.jpg,AFNE13.jpg,AFSA05.jpg,AFNE13.jpg,FN,3,num_2,32,num_6,0.68351897737,,,2017_Feb_20_1035,60.0051964477,MAFE4ImagesEEG,001,000007,
AFNE01.JPG,AFNE01.JPG,AFNE01.JPG,AFNE01.JPG,AFNE01.JPG,AFNE01.JPG,,,,,5,2,52,7,,,,,,,,,,,,,,,,,,,AFSA11.jpg,AFNE11.jpg,AFSA04.jpg,AFNE16.jpg,AFNE11.jpg,FN,3,num_6,16,num_6,0.683338080533,,,2017_Feb_20_1035,60.0051964477,MAFE4ImagesEEG,001,000007,
AFNE01.JPG,AFNE01.JPG,AFNE01.JPG,AFNE01.JPG,AFNE01.JPG,AFNE01.JPG,,,,,5,3,53,4,,,,,,,,,,,,,,,,,,,AFNE20.jpg,AFNE09.jpg,AFSA10.jpg,AFSA20.jpg,AFNE09.jpg,FN,3,num_6,16,num_6,0.6667786045,,,2017_Feb_20_1035,60.0051964477,MAFE4ImagesEEG,001,000007,
AFNE01.JPG,AFNE01.JPG,AFNE01.JPG,AFNE01.JPG,AFNE01.JPG,AFNE01.JPG,,,,,5,4,54,6,,,,,,,,,,,,,,,,,,,AFNE08.jpg,AFSA09.jpg,AFSA05.jpg,AFNE07.jpg,AFNE07.jpg,FN,3,num_4,16,num_4,0.600116043817,,,2017_Feb_20_1035,60.0051964477,MAFE4ImagesEEG,001,000007,
AFNE01.JPG,AFNE01.JPG,AFNE01.JPG,AFNE01.JPG,AFNE01.JPG,AFNE01.JPG,,,,,5,5,55,8,,,,,,,,,,,,,,,,,,,AFNE03.jpg,AFNE14.jpg,AFSA17.jpg,AFSA08.jpg,AFNE14.jpg,FN,3,num_6,16,num_6,0.783462462947,,,2017_Feb_20_1035,60.0051964477,MAFE4ImagesEEG,001,000007,
AFNE01.JPG,AFNE01.JPG,AFNE01.JPG,AFNE01.JPG,AFNE01.JPG,AFNE01.JPG,,,,,5,6,56,1,,,,,,,,,,,,,,,,,,,AFNE06.jpg,AFSA04.jpg,AFSA15.jpg,AFNE18.jpg,AFNE18.jpg,FN,3,num_4,16,num_4,0.600137853995,,,2017_Feb_20_1035,60.0051964477,MAFE4ImagesEEG,001,000007,
AFNE01.JPG,AFNE01.JPG,AFNE01.JPG,AFNE01.JPG,AFNE01.JPG,AFNE01.JPG,,,,,5,7,57,5,,,,,,,,,,,,,,,,,,,AFNE02.jpg,AFNE17.jpg,AFSA03.jpg,AFSA12.jpg,AFSA12.jpg,FS,4,num_4,16,num_4,0.516671413556,,,2017_Feb_20_1035,60.0051964477,MAFE4ImagesEEG,001,000007,
AFNE01.JPG,AFNE01.JPG,AFNE01.JPG,AFNE01.JPG,AFNE01.JPG,AFNE01.JPG,,,,,5,8,58,2,,,,,,,,,,,,,,,,,,,AFNE03.jpg,AFNE14.jpg,AFSA14.jpg,AFSA03.jpg,AFSA14.jpg,FS,4,num_2,16,num_2,0.866928261705,,,2017_Feb_20_1035,60.0051964477,MAFE4ImagesEEG,001,000007,
AFNE01.JPG,AFNE01.JPG,AFNE01.JPG,AFNE01.JPG,AFNE01.JPG,AFNE01.JPG,,,,,5,9,59,3,,,,,,,,,,,,,,,,,,,AFNE02.jpg,AFSA03.jpg,AFSA17.jpg,AFNE08.jpg,AFSA17.jpg,FS,4,num_2,32,num_6,0.683526996057,,,2017_Feb_20_1035,60.0051964477,MAFE4ImagesEEG,001,000007,
,,,,,,,,,,,,,,,,,,,,,,,,,,,,,,,,,,,,,,,,,,,space,8.41645882744,2017_Feb_20_1035,60.0051964477,MAFE4ImagesEEG,001,000007,
AFNE01.JPG,AFNE01.JPG,AFNE01.JPG,AFNE01.JPG,AFNE01.JPG,AFNE01.JPG,,,,,,,,,0,0,0,2,,,,,,,,,,,,,,,AMSA09.jpg,AMNE07.jpg,AMSA08.jpg,AMNE19.jpg,AMSA08.jpg,MS,2,num_2,32,num_8,1.08344270568,,,2017_Feb_20_1035,60.0051964477,MAFE4ImagesEEG,001,000007,
AFNE01.JPG,AFNE01.JPG,AFNE01.JPG,AFNE01.JPG,AFNE01.JPG,AFNE01.JPG,,,,,,,,,0,1,1,1,,,,,,,,,,,,,,,AMNE06.jpg,AMSA06.jpg,AMNE08.jpg,AMSA10.jpg,AMNE06.jpg,MN,1,num_8,16,num_8,1.10011572298,,,2017_Feb_20_1035,60.0051964477,MAFE4ImagesEEG,001,000007,
AFNE01.JPG,AFNE01.JPG,AFNE01.JPG,AFNE01.JPG,AFNE01.JPG,AFNE01.JPG,,,,,,,,,0,2,2,7,,,,,,,,,,,,,,,AMSA20.jpg,AMNE02.jpg,AMSA18.jpg,AMNE06.jpg,AMSA20.jpg,MS,2,num_8,16,num_8,1.1834420003,,,2017_Feb_20_1035,60.0051964477,MAFE4ImagesEEG,001,000007,
AFNE01.JPG,AFNE01.JPG,AFNE01.JPG,AFNE01.JPG,AFNE01.JPG,AFNE01.JPG,,,,,,,,,0,3,3,3,,,,,,,,,,,,,,,AMNE16.jpg,AMSA10.jpg,AMNE09.jpg,AMSA02.jpg,AMSA02.jpg,MS,2,num_4,16,num_4,0.600129194092,,,2017_Feb_20_1035,60.0051964477,MAFE4ImagesEEG,001,000007,
AFNE01.JPG,AFNE01.JPG,AFNE01.JPG,AFNE01.JPG,AFNE01.JPG,AFNE01.JPG,,,,,,,,,0,4,4,5,,,,,,,,,,,,,,,AMNE09.jpg,AMNE19.jpg,AMSA04.jpg,AMSA10.jpg,AMSA04.jpg,MS,2,num_2,16,num_2,0.583482156508,,,2017_Feb_20_1035,60.0051964477,MAFE4ImagesEEG,001,000007,
AFNE01.JPG,AFNE01.JPG,AFNE01.JPG,AFNE01.JPG,AFNE01.JPG,AFNE01.JPG,,,,,,,,,0,5,5,6,,,,,,,,,,,,,,,AMSA11.jpg,AMSA01.jpg,AMNE07.jpg,AMNE08.jpg,AMNE07.jpg,MN,1,num_2,16,num_2,0.766802275553,,,2017_Feb_20_1035,60.0051964477,MAFE4ImagesEEG,001,000007,
AFNE01.JPG,AFNE01.JPG,AFNE01.JPG,AFNE01.JPG,AFNE01.JPG,AFNE01.JPG,,,,,,,,,0,6,6,9,,,,,,,,,,,,,,,AMSA08.jpg,AMSA05.jpg,AMNE19.jpg,AMNE04.jpg,AMNE19.jpg,MN,1,num_2,16,num_2,1.21672292473,,,2017_Feb_20_1035,60.0051964477,MAFE4ImagesEEG,001,000007,
AFNE01.JPG,AFNE01.JPG,AFNE01.JPG,AFNE01.JPG,AFNE01.JPG,AFNE01.JPG,,,,,,,,,0,7,7,4,,,,,,,,,,,,,,,AMNE12.jpg,AMNE07.jpg,AMSA15.jpg,AMSA08.jpg,AMSA08.jpg,MS,2,num_4,32,num_8,1.15021528071,,,2017_Feb_20_1035,60.0051964477,MAFE4ImagesEEG,001,000007,
AFNE01.JPG,AFNE01.JPG,AFNE01.JPG,AFNE01.JPG,AFNE01.JPG,AFNE01.JPG,,,,,,,,,0,8,8,8,,,,,,,,,,,,,,,AMNE04.jpg,AMSA02.jpg,AMNE13.jpg,AMSA14.jpg,AMSA02.jpg,MS,2,num_6,16,num_6,0.80009891605,,,2017_Feb_20_1035,60.0051964477,MAFE4ImagesEEG,001,000007,
AFNE01.JPG,AFNE01.JPG,AFNE01.JPG,AFNE01.JPG,AFNE01.JPG,AFNE01.JPG,,,,,,,,,0,9,9,0,,,,,,,,,,,,,,,AMNE16.jpg,AMNE10.jpg,AMSA08.jpg,AMSA14.jpg,AMSA14.jpg,MS,2,num_4,16,num_4,0.450170505326,,,2017_Feb_20_1035,60.0051964477,MAFE4ImagesEEG,001,000007,
AFNE01.JPG,AFNE01.JPG,AFNE01.JPG,AFNE01.JPG,AFNE01.JPG,AFNE01.JPG,,,,,,,,,1,0,10,8,,,,,,,,,,,,,,,AMSA05.jpg,AMNE20.jpg,AMNE13.jpg,AMSA08.jpg,AMSA05.jpg,MS,2,num_8,16,num_8,0.800126820337,,,2017_Feb_20_1035,60.0051964477,MAFE4ImagesEEG,001,000007,
AFNE01.JPG,AFNE01.JPG,AFNE01.JPG,AFNE01.JPG,AFNE01.JPG,AFNE01.JPG,,,,,,,,,1,1,11,6,,,,,,,,,,,,,,,AMSA17.jpg,AMNE09.jpg,AMNE14.jpg,AMSA05.jpg,AMNE09.jpg,MN,1,num_6,16,num_6,0.500163897872,,,2017_Feb_20_1035,60.0051964477,MAFE4ImagesEEG,001,000007,
AFNE01.JPG,AFNE01.JPG,AFNE01.JPG,AFNE01.JPG,AFNE01.JPG,AFNE01.JPG,,,,,,,,,1,2,12,7,,,,,,,,,,,,,,,AMSA20.jpg,AMSA10.jpg,AMNE09.jpg,AMNE03.jpg,AMNE03.jpg,MN,1,num_4,32,num_8,0.800097633153,,,2017_Feb_20_1035,60.0051964477,MAFE4ImagesEEG,001,000007,
AFNE01.JPG,AFNE01.JPG,AFNE01.JPG,AFNE01.JPG,AFNE01.JPG,AFNE01.JPG,,,,,,,,,1,3,13,2,,,,,,,,,,,,,,,AMNE14.jpg,AMSA15.jpg,AMSA13.jpg,AMNE12.jpg,AMSA13.jpg,MS,2,num_2,16,num_2,1.00014240853,,,2017_Feb_20_1035,60.0051964477,MAFE4ImagesEEG,001,000007,
AFNE01.JPG,AFNE01.JPG,AFNE01.JPG,AFNE01.JPG,AFNE01.JPG,AFNE01.JPG,,,,,,,,,1,4,14,5,,,,,,,,,,,,,,,AMSA08.jpg,AMNE05.jpg,AMNE01.jpg,AMSA20.jpg,AMSA08.jpg,MS,2,num_8,16,num_8,0.816794064362,,,2017_Feb_20_1035,60.0051964477,MAFE4ImagesEEG,001,000007,
AFNE01.JPG,AFNE01.JPG,AFNE01.JPG,AFNE01.JPG,AFNE01.JPG,AFNE01.JPG,,,,,,,,,1,5,15,1,,,,,,,,,,,,,,,AMNE18.jpg,AMSA03.jpg,AMSA18.jpg,AMNE15.jpg,AMSA03.jpg,MS,2,num_6,32,num_2,1.03344129445,,,2017_Feb_20_1035,60.0051964477,MAFE4ImagesEEG,001,000007,
AFNE01.JPG,AFNE01.JPG,AFNE01.JPG,AFNE01.JPG,AFNE01.JPG,AFNE01.JPG,,,,,,,,,1,6,16,4,,,,,,,,,,,,,,,AMSA08.jpg,AMNE04.jpg,AMSA16.jpg,AMNE16.jpg,AMNE04.jpg,MN,1,num_6,16,num_6,0.700121111237,,,2017_Feb_20_1035,60.0051964477,MAFE4ImagesEEG,001,000007,
AFNE01.JPG,AFNE01.JPG,AFNE01.JPG,AFNE01.JPG,AFNE01.JPG,AFNE01.JPG,,,,,,,,,1,7,17,9,,,,,,,,,,,,,,,AMSA02.jpg,AMNE16.jpg,AMSA05.jpg,AMNE07.jpg,AMSA02.jpg,MS,2,num_8,32,num_6,0.700172750279,,,2017_Feb_20_1035,60.0051964477,MAFE4ImagesEEG,001,000007,
AFNE01.JPG,AFNE01.JPG,AFNE01.JPG,AFNE01.JPG,AFNE01.JPG,AFNE01.JPG,,,,,,,,,1,8,18,0,,,,,,,,,,,,,,,AMNE19.jpg,AMSA10.jpg,AMSA15.jpg,AMNE03.jpg,AMNE19.jpg,MN,1,num_8,16,num_8,0.6501338128,,,2017_Feb_20_1035,60.0051964477,MAFE4ImagesEEG,001,000007,
AFNE01.JPG,AFNE01.JPG,AFNE01.JPG,AFNE01.JPG,AFNE01.JPG,AFNE01.JPG,,,,,,,,,1,9,19,3,,,,,,,,,,,,,,,AMNE06.jpg,AMSA13.jpg,AMNE11.jpg,AMSA15.jpg,AMSA13.jpg,MS,2,num_6,32,num_4,1.03344001155,,,2017_Feb_20_1035,60.0051964477,MAFE4ImagesEEG,001,000007,
AFNE01.JPG,AFNE01.JPG,AFNE01.JPG,AFNE01.JPG,AFNE01.JPG,AFNE01.JPG,,,,,,,,,2,0,20,4,,,,,,,,,,,,,,,AMNE02.jpg,AMSA10.jpg,AMSA07.jpg,AMNE20.jpg,AMNE20.jpg,MN,1,num_4,32,num_8,0.950102508534,,,2017_Feb_20_1035,60.0051964477,MAFE4ImagesEEG,001,000007,
AFNE01.JPG,AFNE01.JPG,AFNE01.JPG,AFNE01.JPG,AFNE01.JPG,AFNE01.JPG,,,,,,,,,2,1,21,8,,,,,,,,,,,,,,,AMNE17.jpg,AMNE14.jpg,AMSA15.jpg,AMSA18.jpg,AMSA18.jpg,MS,2,num_4,16,num_4,0.733416148461,,,2017_Feb_20_1035,60.0051964477,MAFE4ImagesEEG,001,000007,
AFNE01.JPG,AFNE01.JPG,AFNE01.JPG,AFNE01.JPG,AFNE01.JPG,AFNE01.JPG,,,,,,,,,2,2,22,9,,,,,,,,,,,,,,,AMSA12.jpg,AMSA17.jpg,AMNE05.jpg,AMNE10.jpg,AMSA17.jpg,MS,2,num_6,16,num_6,0.500136956107,,,2017_Feb_20_1035,60.0051964477,MAFE4ImagesEEG,001,000007,
AFNE01.JPG,AFNE01.JPG,AFNE01.JPG,AFNE01.JPG,AFNE01.JPG,AFNE01.JPG,,,,,,,,,2,3,23,7,,,,,,,,,,,,,,,AMNE15.jpg,AMSA19.jpg,AMSA09.jpg,AMNE02.jpg,AMSA19.jpg,MS,2,num_6,32,num_8,0.950111809652,,,2017_Feb_20_1035,60.0051964477,MAFE4ImagesEEG,001,000007,
AFNE01.JPG,AFNE01.JPG,AFNE01.JPG,AFNE01.JPG,AFNE01.JPG,AFNE01.JPG,,,,,,,,,2,4,24,2,,,,,,,,,,,,,,,AMSA12.jpg,AMSA10.jpg,AMNE15.jpg,AMNE08.jpg,AMNE15.jpg,MN,1,num_2,32,num_8,0.966801826842,,,2017_Feb_20_1035,60.0051964477,MAFE4ImagesEEG,001,000007,
AFNE01.JPG,AFNE01.JPG,AFNE01.JPG,AFNE01.JPG,AFNE01.JPG,AFNE01.JPG,,,,,,,,,2,5,25,0,,,,,,,,,,,,,,,AMNE16.jpg,AMSA14.jpg,AMNE09.jpg,AMSA06.jpg,AMNE09.jpg,MN,1,num_2,32,num_6,0.933493639342,,,2017_Feb_20_1035,60.0051964477,MAFE4ImagesEEG,001,000007,
AFNE01.JPG,AFNE01.JPG,AFNE01.JPG,AFNE01.JPG,AFNE01.JPG,AFNE01.JPG,,,,,,,,,2,6,26,6,,,,,,,,,,,,,,,AMNE10.jpg,AMSA19.jpg,AMSA10.jpg,AMNE12.jpg,AMNE12.jpg,MN,1,num_4,32,num_8,0.61679547606,,,2017_Feb_20_1035,60.0051964477,MAFE4ImagesEEG,001,000007,
AFNE01.JPG,AFNE01.JPG,AFNE01.JPG,AFNE01.JPG,AFNE01.JPG,AFNE01.JPG,,,,,,,,,2,7,27,1,,,,,,,,,,,,,,,AMNE07.jpg,AMNE20.jpg,AMSA11.jpg,AMSA12.jpg,AMSA12.jpg,MS,2,num_4,16,num_4,0.783468557056,,,2017_Feb_20_1035,60.0051964477,MAFE4ImagesEEG,001,000007,
AFNE01.JPG,AFNE01.JPG,AFNE01.JPG,AFNE01.JPG,AFNE01.JPG,AFNE01.JPG,,,,,,,,,2,8,28,5,,,,,,,,,,,,,,,AMNE18.jpg,AMSA04.jpg,AMNE02.jpg,AMSA12.jpg,AMNE02.jpg,MN,1,num_2,32,num_8,0.80011559464,,,2017_Feb_20_1035,60.0051964477,MAFE4ImagesEEG,001,000007,
AFNE01.JPG,AFNE01.JPG,AFNE01.JPG,AFNE01.JPG,AFNE01.JPG,AFNE01.JPG,,,,,,,,,2,9,29,3,,,,,,,,,,,,,,,AMSA12.jpg,AMSA08.jpg,AMNE05.jpg,AMNE04.jpg,AMSA12.jpg,MS,2,num_8,32,num_4,0.716476275586,,,2017_Feb_20_1035,60.0051964477,MAFE4ImagesEEG,001,000007,
AFNE01.JPG,AFNE01.JPG,AFNE01.JPG,AFNE01.JPG,AFNE01.JPG,AFNE01.JPG,,,,,,,,,3,0,30,0,,,,,,,,,,,,,,,AMNE01.jpg,AMSA15.jpg,AMNE10.jpg,AMSA09.jpg,AMSA09.jpg,MS,2,num_4,16,num_4,0.550159856677,,,2017_Feb_20_1035,60.0051964477,MAFE4ImagesEEG,001,000007,
AFNE01.JPG,AFNE01.JPG,AFNE01.JPG,AFNE01.JPG,AFNE01.JPG,AFNE01.JPG,,,,,,,,,3,1,31,6,,,,,,,,,,,,,,,AMNE18.jpg,AMSA08.jpg,AMNE11.jpg,AMSA01.jpg,AMNE11.jpg,MN,1,num_2,32,num_6,0.73345848592,,,2017_Feb_20_1035,60.0051964477,MAFE4ImagesEEG,001,000007,
AFNE01.JPG,AFNE01.JPG,AFNE01.JPG,AFNE01.JPG,AFNE01.JPG,AFNE01.JPG,,,,,,,,,3,2,32,2,,,,,,,,,,,,,,,AMSA07.jpg,AMNE20.jpg,AMSA09.jpg,AMNE04.jpg,AMNE20.jpg,MN,1,num_6,16,num_6,0.466844163835,,,2017_Feb_20_1035,60.0051964477,MAFE4ImagesEEG,001,000007,
AFNE01.JPG,AFNE01.JPG,AFNE01.JPG,AFNE01.JPG,AFNE01.JPG,AFNE01.JPG,,,,,,,,,3,3,33,9,,,,,,,,,,,,,,,AMNE10.jpg,AMNE19.jpg,AMSA10.jpg,AMSA09.jpg,AMNE10.jpg,MN,1,num_8,16,num_8,3.16657910496,,,2017_Feb_20_1035,60.0051964477,MAFE4ImagesEEG,001,000007,
AFNE01.JPG,AFNE01.JPG,AFNE01.JPG,AFNE01.JPG,AFNE01.JPG,AFNE01.JPG,,,,,,,,,3,4,34,4,,,,,,,,,,,,,,,AMNE04.jpg,AMSA19.jpg,AMNE10.jpg,AMSA17.jpg,AMSA19.jpg,MS,2,num_6,16,num_6,0.566821648274,,,2017_Feb_20_1035,60.0051964477,MAFE4ImagesEEG,001,000007,
AFNE01.JPG,AFNE01.JPG,AFNE01.JPG,AFNE01.JPG,AFNE01.JPG,AFNE01.JPG,,,,,,,,,3,5,35,5,,,,,,,,,,,,,,,AMNE12.jpg,AMSA11.jpg,AMSA08.jpg,AMNE04.jpg,AMSA08.jpg,MS,2,num_2,32,num_8,1.51669001672,,,2017_Feb_20_1035,60.0051964477,MAFE4ImagesEEG,001,000007,
AFNE01.JPG,AFNE01.JPG,AFNE01.JPG,AFNE01.JPG,AFNE01.JPG,AFNE01.JPG,,,,,,,,,3,6,36,3,,,,,,,,,,,,,,,AMSA04.jpg,AMNE06.jpg,AMNE04.jpg,AMSA12.jpg,AMSA04.jpg,MS,2,num_8,32,num_4,0.983454636764,,,2017_Feb_20_1035,60.0051964477,MAFE4ImagesEEG,001,000007,
AFNE01.JPG,AFNE01.JPG,AFNE01.JPG,AFNE01.JPG,AFNE01.JPG,AFNE01.JPG,,,,,,,,,3,7,37,1,,,,,,,,,,,,,,,AMNE18.jpg,AMSA06.jpg,AMNE15.jpg,AMSA16.jpg,AMNE15.jpg,MN,1,num_2,32,num_6,0.666780208703,,,2017_Feb_20_1035,60.0051964477,MAFE4ImagesEEG,001,000007,
AFNE01.JPG,AFNE01.JPG,AFNE01.JPG,AFNE01.JPG,AFNE01.JPG,AFNE01.JPG,,,,,,,,,3,8,38,8,,,,,,,,,,,,,,,AMSA15.jpg,AMNE09.jpg,AMSA16.jpg,AMNE01.jpg,AMSA16.jpg,MS,2,num_2,32,num_6,0.900087947026,,,2017_Feb_20_1035,60.0051964477,MAFE4ImagesEEG,001,000007,
AFNE01.JPG,AFNE01.JPG,AFNE01.JPG,AFNE01.JPG,AFNE01.JPG,AFNE01.JPG,,,,,,,,,3,9,39,7,,,,,,,,,,,,,,,AMNE15.jpg,AMSA03.jpg,AMNE01.jpg,AMSA08.jpg,AMSA08.jpg,MS,2,num_4,16,num_4,0.766739089508,,,2017_Feb_20_1035,60.0051964477,MAFE4ImagesEEG,001,000007,
AFNE01.JPG,AFNE01.JPG,AFNE01.JPG,AFNE01.JPG,AFNE01.JPG,AFNE01.JPG,,,,,,,,,4,0,40,1,,,,,,,,,,,,,,,AMNE05.jpg,AMSA18.jpg,AMSA04.jpg,AMNE11.jpg,AMSA04.jpg,MS,2,num_2,32,num_6,0.716758526396,,,2017_Feb_20_1035,60.0051964477,MAFE4ImagesEEG,001,000007,
AFNE01.JPG,AFNE01.JPG,AFNE01.JPG,AFNE01.JPG,AFNE01.JPG,AFNE01.JPG,,,,,,,,,4,1,41,6,,,,,,,,,,,,,,,AMSA03.jpg,AMSA05.jpg,AMNE19.jpg,AMNE17.jpg,AMSA05.jpg,MS,2,num_6,32,num_2,1.08353411639,,,2017_Feb_20_1035,60.0051964477,MAFE4ImagesEEG,001,000007,
AFNE01.JPG,AFNE01.JPG,AFNE01.JPG,AFNE01.JPG,AFNE01.JPG,AFNE01.JPG,,,,,,,,,4,2,42,7,,,,,,,,,,,,,,,AMNE15.jpg,AMNE06.jpg,AMSA16.jpg,AMSA03.jpg,AMNE15.jpg,MN,1,num_8,32,num_6,2.90000166744,,,2017_Feb_20_1035,60.0051964477,MAFE4ImagesEEG,001,000007,
AFNE01.JPG,AFNE01.JPG,AFNE01.JPG,AFNE01.JPG,AFNE01.JPG,AFNE01.JPG,,,,,,,,,4,3,43,4,,,,,,,,,,,,,,,AMSA18.jpg,AMNE12.jpg,AMSA06.jpg,AMNE09.jpg,AMSA18.jpg,MS,2,num_8,16,num_8,1.06672863336,,,2017_Feb_20_1035,60.0051964477,MAFE4ImagesEEG,001,000007,
AFNE01.JPG,AFNE01.JPG,AFNE01.JPG,AFNE01.JPG,AFNE01.JPG,AFNE01.JPG,,,,,,,,,4,4,44,3,,,,,,,,,,,,,,,AMNE15.jpg,AMSA09.jpg,AMSA19.jpg,AMNE05.jpg,AMSA09.jpg,MS,2,num_6,16,num_6,0.649793828372,,,2017_Feb_20_1035,60.0051964477,MAFE4ImagesEEG,001,000007,
AFNE01.JPG,AFNE01.JPG,AFNE01.JPG,AFNE01.JPG,AFNE01.JPG,AFNE01.JPG,,,,,,,,,4,5,45,8,,,,,,,,,,,,,,,AMSA20.jpg,AMNE08.jpg,AMSA03.jpg,AMNE20.jpg,AMNE20.jpg,MN,1,num_4,32,num_8,1.03345444473,,,2017_Feb_20_1035,60.0051964477,MAFE4ImagesEEG,001,000007,
AFNE01.JPG,AFNE01.JPG,AFNE01.JPG,AFNE01.JPG,AFNE01.JPG,AFNE01.JPG,,,,,,,,,4,6,46,2,,,,,,,,,,,,,,,AMNE07.jpg,AMSA20.jpg,AMNE05.jpg,AMSA09.jpg,AMNE07.jpg,MN,1,num_8,32,num_4,0.966798618902,,,2017_Feb_20_1035,60.0051964477,MAFE4ImagesEEG,001,000007,
AFNE01.JPG,AFNE01.JPG,AFNE01.JPG,AFNE01.JPG,AFNE01.JPG,AFNE01.JPG,,,,,,,,,4,7,47,9,,,,,,,,,,,,,,,AMSA04.jpg,AMSA07.jpg,AMNE09.jpg,AMNE07.jpg,AMNE09.jpg,MN,1,num_2,16,num_2,0.85014106147,,,2017_Feb_20_1035,60.0051964477,MAFE4ImagesEEG,001,000007,
AFNE01.JPG,AFNE01.JPG,AFNE01.JPG,AFNE01.JPG,AFNE01.JPG,AFNE01.JPG,,,,,,,,,4,8,48,0,,,,,,,,,,,,,,,AMNE15.jpg,AMSA07.jpg,AMNE19.jpg,AMSA13.jpg,AMSA13.jpg,MS,2,num_4,32,num_8,0.650148245972,,,2017_Feb_20_1035,60.0051964477,MAFE4ImagesEEG,001,000007,
AFNE01.JPG,AFNE01.JPG,AFNE01.JPG,AFNE01.JPG,AFNE01.JPG,AFNE01.JPG,,,,,,,,,4,9,49,5,,,,,,,,,,,,,,,AMNE03.jpg,AMSA12.jpg,AMNE02.jpg,AMSA11.jpg,AMNE02.jpg,MN,1,num_2,32,num_8,0.900124831591,,,2017_Feb_20_1035,60.0051964477,MAFE4ImagesEEG,001,000007,
AFNE01.JPG,AFNE01.JPG,AFNE01.JPG,AFNE01.JPG,AFNE01.JPG,AFNE01.JPG,,,,,,,,,5,0,50,5,,,,,,,,,,,,,,,AMNE08.jpg,AMSA14.jpg,AMSA18.jpg,AMNE20.jpg,AMNE08.jpg,MN,1,num_8,32,num_4,0.733485748991,,,2017_Feb_20_1035,60.0051964477,MAFE4ImagesEEG,001,000007,
AFNE01.JPG,AFNE01.JPG,AFNE01.JPG,AFNE01.JPG,AFNE01.JPG,AFNE01.JPG,,,,,,,,,5,1,51,8,,,,,,,,,,,,,,,AMNE20.jpg,AMSA05.jpg,AMNE13.jpg,AMSA20.jpg,AMNE13.jpg,MN,1,num_2,32,num_6,0.566771612503,,,2017_Feb_20_1035,60.0051964477,MAFE4ImagesEEG,001,000007,
AFNE01.JPG,AFNE01.JPG,AFNE01.JPG,AFNE01.JPG,AFNE01.JPG,AFNE01.JPG,,,,,,,,,5,2,52,9,,,,,,,,,,,,,,,AMNE05.jpg,AMSA06.jpg,AMSA19.jpg,AMNE01.jpg,AMNE01.jpg,MN,1,num_4,32,num_2,1.35011604382,,,2017_Feb_20_1035,60.0051964477,MAFE4ImagesEEG,001,000007,
AFNE01.JPG,AFNE01.JPG,AFNE01.JPG,AFNE01.JPG,AFNE01.JPG,AFNE01.JPG,,,,,,,,,5,3,53,0,,,,,,,,,,,,,,,AMNE13.jpg,AMNE20.jpg,AMSA08.jpg,AMSA02.jpg,AMSA02.jpg,MS,2,num_4,16,num_4,0.900090833195,,,2017_Feb_20_1035,60.0051964477,MAFE4ImagesEEG,001,000007,
AFNE01.JPG,AFNE01.JPG,AFNE01.JPG,AFNE01.JPG,AFNE01.JPG,AFNE01.JPG,,,,,,,,,5,4,54,6,,,,,,,,,,,,,,,AMNE09.jpg,AMSA12.jpg,AMSA16.jpg,AMNE07.jpg,AMSA16.jpg,MS,2,num_2,16,num_2,0.633689161856,,,2017_Feb_20_1035,60.0051964477,MAFE4ImagesEEG,001,000007,
AFNE01.JPG,AFNE01.JPG,AFNE01.JPG,AFNE01.JPG,AFNE01.JPG,AFNE01.JPG,,,,,,,,,5,5,55,7,,,,,,,,,,,,,,,AMSA04.jpg,AMSA14.jpg,AMNE04.jpg,AMNE09.jpg,AMSA04.jpg,MS,2,num_8,32,num_6,1.53339767363,,,2017_Feb_20_1035,60.0051964477,MAFE4ImagesEEG,001,000007,
AFNE01.JPG,AFNE01.JPG,AFNE01.JPG,AFNE01.JPG,AFNE01.JPG,AFNE01.JPG,,,,,,,,,5,6,56,3,,,,,,,,,,,,,,,AMNE03.jpg,AMSA20.jpg,AMSA12.jpg,AMNE13.jpg,AMSA20.jpg,MS,2,num_6,32,num_2,1.41672343761,,,2017_Feb_20_1035,60.0051964477,MAFE4ImagesEEG,001,000007,
AFNE01.JPG,AFNE01.JPG,AFNE01.JPG,AFNE01.JPG,AFNE01.JPG,AFNE01.JPG,,,,,,,,,5,7,57,1,,,,,,,,,,,,,,,AMSA02.jpg,AMSA18.jpg,AMNE15.jpg,AMNE05.jpg,AMNE15.jpg,MN,1,num_2,16,num_2,2.58337021852,,,2017_Feb_20_1035,60.0051964477,MAFE4ImagesEEG,001,000007,
AFNE01.JPG,AFNE01.JPG,AFNE01.JPG,AFNE01.JPG,AFNE01.JPG,AFNE01.JPG,,,,,,,,,5,8,58,2,,,,,,,,,,,,,,,AMSA17.jpg,AMNE19.jpg,AMNE09.jpg,AMSA20.jpg,AMNE09.jpg,MN,1,num_2,16,num_2,0.90014407644,,,2017_Feb_20_1035,60.0051964477,MAFE4ImagesEEG,001,000007,
AFNE01.JPG,AFNE01.JPG,AFNE01.JPG,AFNE01.JPG,AFNE01.JPG,AFNE01.JPG,,,,,,,,,5,9,59,4,,,,,,,,,,,,,,,AMNE11.jpg,AMSA15.jpg,AMSA07.jpg,AMNE18.jpg,AMNE18.jpg,MN,1,num_4,32,num_2,1.05010116147,,,2017_Feb_20_1035,60.0051964477,MAFE4ImagesEEG,001,000007,
,,,,,,,,,,,,,,,,,,,,,,,,,,,,,,,,,,,,,,,,,,,space,7.96627036063,2017_Feb_20_1035,60.0051964477,MAFE4ImagesEEG,001,000007,
AFNE01.JPG,AFNE01.JPG,AFNE01.JPG,AFNE01.JPG,AFNE01.JPG,AFNE01.JPG,,,,,,,,,,,,,0,0,0,8,,,,,,,,,,,AFNE08.jpg,AFSA18.jpg,AFSA09.jpg,AFNE07.jpg,AFNE08.jpg,FN,3,num_8,32,num_4,0.74984796904,,,2017_Feb_20_1035,60.0051964477,MAFE4ImagesEEG,001,000007,
AFNE01.JPG,AFNE01.JPG,AFNE01.JPG,AFNE01.JPG,AFNE01.JPG,AFNE01.JPG,,,,,,,,,,,,,0,1,1,0,,,,,,,,,,,AFSA10.jpg,AFNE14.jpg,AFSA14.jpg,AFNE19.jpg,AFNE14.jpg,FN,3,num_6,16,num_6,0.75012925826,,,2017_Feb_20_1035,60.0051964477,MAFE4ImagesEEG,001,000007,
AFNE01.JPG,AFNE01.JPG,AFNE01.JPG,AFNE01.JPG,AFNE01.JPG,AFNE01.JPG,,,,,,,,,,,,,0,2,2,3,,,,,,,,,,,AFSA19.jpg,AFNE02.jpg,AFNE01.jpg,AFSA11.jpg,AFNE01.jpg,FN,3,num_2,32,num_8,1.16673338041,,,2017_Feb_20_1035,60.0051964477,MAFE4ImagesEEG,001,000007,
AFNE01.JPG,AFNE01.JPG,AFNE01.JPG,AFNE01.JPG,AFNE01.JPG,AFNE01.JPG,,,,,,,,,,,,,0,3,3,4,,,,,,,,,,,AFSA17.jpg,AFNE11.jpg,AFNE20.jpg,AFSA09.jpg,AFNE11.jpg,FN,3,num_6,32,num_2,1.01658000238,,,2017_Feb_20_1035,60.0051964477,MAFE4ImagesEEG,001,000007,
AFNE01.JPG,AFNE01.JPG,AFNE01.JPG,AFNE01.JPG,AFNE01.JPG,AFNE01.JPG,,,,,,,,,,,,,0,4,4,5,,,,,,,,,,,AFNE17.jpg,AFSA03.jpg,AFNE20.jpg,AFSA12.jpg,AFNE20.jpg,FN,3,num_2,32,num_6,1.2167344708,,,2017_Feb_20_1035,60.0051964477,MAFE4ImagesEEG,001,000007,
AFNE01.JPG,AFNE01.JPG,AFNE01.JPG,AFNE01.JPG,AFNE01.JPG,AFNE01.JPG,,,,,,,,,,,,,0,5,5,1,,,,,,,,,,,AFNE02.jpg,AFSA17.jpg,AFSA12.jpg,AFNE19.jpg,AFSA17.jpg,FS,4,num_6,16,num_6,0.8834761912,,,2017_Feb_20_1035,60.0051964477,MAFE4ImagesEEG,001,000007,
AFNE01.JPG,AFNE01.JPG,AFNE01.JPG,AFNE01.JPG,AFNE01.JPG,AFNE01.JPG,,,,,,,,,,,,,0,6,6,2,,,,,,,,,,,AFSA04.jpg,AFNE07.jpg,AFNE19.jpg,AFSA10.jpg,AFSA04.jpg,FS,4,num_8,16,num_8,1.93334192922,,,2017_Feb_20_1035,60.0051964477,MAFE4ImagesEEG,001,000007,
AFNE01.JPG,AFNE01.JPG,AFNE01.JPG,AFNE01.JPG,AFNE01.JPG,AFNE01.JPG,,,,,,,,,,,,,0,7,7,6,,,,,,,,,,,AFSA13.jpg,AFNE18.jpg,AFSA16.jpg,AFNE04.jpg,AFSA13.jpg,FS,4,num_8,32,num_2,0.85010802513,,,2017_Feb_20_1035,60.0051964477,MAFE4ImagesEEG,001,000007,
AFNE01.JPG,AFNE01.JPG,AFNE01.JPG,AFNE01.JPG,AFNE01.JPG,AFNE01.JPG,,,,,,,,,,,,,0,8,8,9,,,,,,,,,,,AFSA02.jpg,AFNE19.jpg,AFNE03.jpg,AFSA12.jpg,AFSA02.jpg,FS,4,num_8,16,num_8,2.96659206226,,,2017_Feb_20_1035,60.0051964477,MAFE4ImagesEEG,001,000007,
AFNE01.JPG,AFNE01.JPG,AFNE01.JPG,AFNE01.JPG,AFNE01.JPG,AFNE01.JPG,,,,,,,,,,,,,0,9,9,7,,,,,,,,,,,AFSA04.jpg,AFSA19.jpg,AFNE16.jpg,AFNE07.jpg,AFSA19.jpg,FS,4,num_6,16,num_6,3.23314768914,,,2017_Feb_20_1035,60.0051964477,MAFE4ImagesEEG,001,000007,
AFNE01.JPG,AFNE01.JPG,AFNE01.JPG,AFNE01.JPG,AFNE01.JPG,AFNE01.JPG,,,,,,,,,,,,,1,0,10,0,,,,,,,,,,,AFNE12.jpg,AFNE11.jpg,AFSA15.jpg,AFSA05.jpg,AFSA05.jpg,FS,4,num_4,16,num_4,0.566562811378,,,2017_Feb_20_1035,60.0051964477,MAFE4ImagesEEG,001,000007,
AFNE01.JPG,AFNE01.JPG,AFNE01.JPG,AFNE01.JPG,AFNE01.JPG,AFNE01.JPG,,,,,,,,,,,,,1,1,11,5,,,,,,,,,,,AFNE10.jpg,AFNE17.jpg,AFSA06.jpg,AFSA19.jpg,AFNE17.jpg,FN,3,num_6,32,num_4,0.600152928848,,,2017_Feb_20_1035,60.0051964477,MAFE4ImagesEEG,001,000007,
AFNE01.JPG,AFNE01.JPG,AFNE01.JPG,AFNE01.JPG,AFNE01.JPG,AFNE01.JPG,,,,,,,,,,,,,1,2,12,9,,,,,,,,,,,AFSA14.jpg,AFNE10.jpg,AFNE03.jpg,AFSA13.jpg,AFSA14.jpg,FS,4,num_8,32,num_6,0.866673594341,,,2017_Feb_20_1035,60.0051964477,MAFE4ImagesEEG,001,000007,
AFNE01.JPG,AFNE01.JPG,AFNE01.JPG,AFNE01.JPG,AFNE01.JPG,AFNE01.JPG,,,,,,,,,,,,,1,3,13,7,,,,,,,,,,,AFNE08.jpg,AFSA07.jpg,AFNE18.jpg,AFSA12.jpg,AFNE08.jpg,FN,3,num_8,32,num_2,0.683462206274,,,2017_Feb_20_1035,60.0051964477,MAFE4ImagesEEG,001,000007,
AFNE01.JPG,AFNE01.JPG,AFNE01.JPG,AFNE01.JPG,AFNE01.JPG,AFNE01.JPG,,,,,,,,,,,,,1,4,14,6,,,,,,,,,,,AFSA05.jpg,AFSA16.jpg,AFNE18.jpg,AFNE19.jpg,AFSA05.jpg,FS,4,num_8,32,num_4,0.566741463263,,,2017_Feb_20_1035,60.0051964477,MAFE4ImagesEEG,001,000007,
AFNE01.JPG,AFNE01.JPG,AFNE01.JPG,AFNE01.JPG,AFNE01.JPG,AFNE01.JPG,,,,,,,,,,,,,1,5,15,2,,,,,,,,,,,AFSA03.jpg,AFSA08.jpg,AFNE10.jpg,AFNE02.jpg,AFNE02.jpg,FN,3,num_4,16,num_4,0.700128488243,,,2017_Feb_20_1035,60.0051964477,MAFE4ImagesEEG,001,000007,
AFNE01.JPG,AFNE01.JPG,AFNE01.JPG,AFNE01.JPG,AFNE01.JPG,AFNE01.JPG,,,,,,,,,,,,,1,6,16,1,,,,,,,,,,,AFSA03.jpg,AFNE01.jpg,AFSA01.jpg,AFNE06.jpg,AFNE06.jpg,FN,3,num_4,32,num_6,0.566760386806,,,2017_Feb_20_1035,60.0051964477,MAFE4ImagesEEG,001,000007,
AFNE01.JPG,AFNE01.JPG,AFNE01.JPG,AFNE01.JPG,AFNE01.JPG,AFNE01.JPG,,,,,,,,,,,,,1,7,17,8,,,,,,,,,,,AFSA05.jpg,AFNE16.jpg,AFNE12.jpg,AFSA20.jpg,AFSA20.jpg,FS,4,num_4,32,num_6,0.566806572955,,,2017_Feb_20_1035,60.0051964477,MAFE4ImagesEEG,001,000007,
AFNE01.JPG,AFNE01.JPG,AFNE01.JPG,AFNE01.JPG,AFNE01.JPG,AFNE01.JPG,,,,,,,,,,,,,1,8,18,3,,,,,,,,,,,AFSA11.jpg,AFSA14.jpg,AFNE12.jpg,AFNE13.jpg,AFNE12.jpg,FN,3,num_2,16,num_2,1.01673010923,,,2017_Feb_20_1035,60.0051964477,MAFE4ImagesEEG,001,000007,
AFNE01.JPG,AFNE01.JPG,AFNE01.JPG,AFNE01.JPG,AFNE01.JPG,AFNE01.JPG,,,,,,,,,,,,,1,9,19,4,,,,,,,,,,,AFNE20.jpg,AFNE13.jpg,AFSA16.jpg,AFSA05.jpg,AFSA16.jpg,FS,4,num_2,32,num_8,1.2667243355,,,2017_Feb_20_1035,60.0051964477,MAFE4ImagesEEG,001,000007,
AFNE01.JPG,AFNE01.JPG,AFNE01.JPG,AFNE01.JPG,AFNE01.JPG,AFNE01.JPG,,,,,,,,,,,,,2,0,20,0,,,,,,,,,,,AFSA19.jpg,AFNE15.jpg,AFSA02.jpg,AFNE04.jpg,AFSA19.jpg,FS,4,num_8,32,num_2,1.56669784244,,,2017_Feb_20_1035,60.0051964477,MAFE4ImagesEEG,001,000007,
AFNE01.JPG,AFNE01.JPG,AFNE01.JPG,AFNE01.JPG,AFNE01.JPG,AFNE01.JPG,,,,,,,,,,,,,2,1,21,1,,,,,,,,,,,AFSA20.jpg,AFNE16.jpg,AFNE04.jpg,AFSA10.jpg,AFSA20.jpg,FS,4,num_8,32,num_6,0.600121817086,,,2017_Feb_20_1035,60.0051964477,MAFE4ImagesEEG,001,000007,
AFNE01.JPG,AFNE01.JPG,AFNE01.JPG,AFNE01.JPG,AFNE01.JPG,AFNE01.JPG,,,,,,,,,,,,,2,2,22,8,,,,,,,,,,,AFSA15.jpg,AFSA07.jpg,AFNE08.jpg,AFNE05.jpg,AFNE08.jpg,FN,3,num_2,32,num_8,0.616823380347,,,2017_Feb_20_1035,60.0051964477,MAFE4ImagesEEG,001,000007,
AFNE01.JPG,AFNE01.JPG,AFNE01.JPG,AFNE01.JPG,AFNE01.JPG,AFNE01.JPG,,,,,,,,,,,,,2,3,23,2,,,,,,,,,,,AFSA13.jpg,AFNE11.jpg,AFSA02.jpg,AFNE04.jpg,AFNE04.jpg,FN,3,num_4,16,num_4,0.433477601968,,,2017_Feb_20_1035,60.0051964477,MAFE4ImagesEEG,001,000007,
AFNE01.JPG,AFNE01.JPG,AFNE01.JPG,AFNE01.JPG,AFNE01.JPG,AFNE01.JPG,,,,,,,,,,,,,2,4,24,6,,,,,,,,,,,AFSA13.jpg,AFSA05.jpg,AFNE05.jpg,AFNE07.jpg,AFNE05.jpg,FN,3,num_2,32,num_6,0.516810614616,,,2017_Feb_20_1035,60.0051964477,MAFE4ImagesEEG,001,000007,
AFNE01.JPG,AFNE01.JPG,AFNE01.JPG,AFNE01.JPG,AFNE01.JPG,AFNE01.JPG,,,,,,,,,,,,,2,5,25,4,,,,,,,,,,,AFSA02.jpg,AFNE15.jpg,AFSA18.jpg,AFNE05.jpg,AFNE05.jpg,FN,3,num_4,32,num_2,0.500120277517,,,2017_Feb_20_1035,60.0051964477,MAFE4ImagesEEG,001,000007,
AFNE01.JPG,AFNE01.JPG,AFNE01.JPG,AFNE01.JPG,AFNE01.JPG,AFNE01.JPG,,,,,,,,,,,,,2,6,26,9,,,,,,,,,,,AFSA19.jpg,AFNE17.jpg,AFNE13.jpg,AFSA11.jpg,AFSA19.jpg,FS,4,num_8,32,num_4,0.600159343332,,,2017_Feb_20_1035,60.0051964477,MAFE4ImagesEEG,001,000007,
AFNE01.JPG,AFNE01.JPG,AFNE01.JPG,AFNE01.JPG,AFNE01.JPG,AFNE01.JPG,,,,,,,,,,,,,2,7,27,3,,,,,,,,,,,AFSA07.jpg,AFNE12.jpg,AFNE07.jpg,AFSA09.jpg,AFSA07.jpg,FS,4,num_8,32,num_4,2.16668847715,,,2017_Feb_20_1035,60.0051964477,MAFE4ImagesEEG,001,000007,
AFNE01.JPG,AFNE01.JPG,AFNE01.JPG,AFNE01.JPG,AFNE01.JPG,AFNE01.JPG,,,,,,,,,,,,,2,8,28,5,,,,,,,,,,,AFSA11.jpg,AFNE19.jpg,AFNE01.jpg,AFSA12.jpg,AFSA11.jpg,FS,4,num_8,16,num_8,1.39992725616,,,2017_Feb_20_1035,60.0051964477,MAFE4ImagesEEG,001,000007,
AFNE01.JPG,AFNE01.JPG,AFNE01.JPG,AFNE01.JPG,AFNE01.JPG,AFNE01.JPG,,,,,,,,,,,,,2,9,29,7,,,,,,,,,,,AFNE03.jpg,AFSA06.jpg,AFNE19.jpg,AFSA03.jpg,AFNE19.jpg,FN,3,num_2,32,num_6,0.733455278445,,,2017_Feb_20_1035,60.0051964477,MAFE4ImagesEEG,001,000007,
AFNE01.JPG,AFNE01.JPG,AFNE01.JPG,AFNE01.JPG,AFNE01.JPG,AFNE01.JPG,,,,,,,,,,,,,3,0,30,7,,,,,,,,,,,AFNE02.jpg,AFSA16.jpg,AFSA19.jpg,AFNE10.jpg,AFNE02.jpg,FN,3,num_8,16,num_8,1.78337714635,,,2017_Feb_20_1035,60.0051964477,MAFE4ImagesEEG,001,000007,
AFNE01.JPG,AFNE01.JPG,AFNE01.JPG,AFNE01.JPG,AFNE01.JPG,AFNE01.JPG,,,,,,,,,,,,,3,1,31,1,,,,,,,,,,,AFSA19.jpg,AFSA17.jpg,AFNE05.jpg,AFNE13.jpg,AFNE05.jpg,FN,3,num_2,16,num_2,1.03348748107,,,2017_Feb_20_1035,60.0051964477,MAFE4ImagesEEG,001,000007,
AFNE01.JPG,AFNE01.JPG,AFNE01.JPG,AFNE01.JPG,AFNE01.JPG,AFNE01.JPG,,,,,,,,,,,,,3,2,32,4,,,,,,,,,,,AFSA20.jpg,AFNE09.jpg,AFNE08.jpg,AFSA11.jpg,AFSA20.jpg,FS,4,num_8,32,num_6,0.733489276841,,,2017_Feb_20_1035,60.0051964477,MAFE4ImagesEEG,001,000007,
AFNE01.JPG,AFNE01.JPG,AFNE01.JPG,AFNE01.JPG,AFNE01.JPG,AFNE01.JPG,,,,,,,,,,,,,3,3,33,6,,,,,,,,,,,AFSA15.jpg,AFNE14.jpg,AFSA18.jpg,AFNE01.jpg,AFNE14.jpg,FN,3,num_6,32,num_8,1.20008743368,,,2017_Feb_20_1035,60.0051964477,MAFE4ImagesEEG,001,000007,
AFNE01.JPG,AFNE01.JPG,AFNE01.JPG,AFNE01.JPG,AFNE01.JPG,AFNE01.JPG,,,,,,,,,,,,,3,4,34,2,,,,,,,,,,,AFNE08.jpg,AFSA15.jpg,AFSA08.jpg,AFNE01.jpg,AFNE08.jpg,FN,3,num_8,32,num_2,0.833447516896,,,2017_Feb_20_1035,60.0051964477,MAFE4ImagesEEG,001,000007,
AFNE01.JPG,AFNE01.JPG,AFNE01.JPG,AFNE01.JPG,AFNE01.JPG,AFNE01.JPG,,,,,,,,,,,,,3,5,35,8,,,,,,,,,,,AFNE16.jpg,AFSA04.jpg,AFSA10.jpg,AFNE06.jpg,AFNE16.jpg,FN,3,num_8,16,num_8,1.68344488647,,,2017_Feb_20_1035,60.0051964477,MAFE4ImagesEEG,001,000007,
AFNE01.JPG,AFNE01.JPG,AFNE01.JPG,AFNE01.JPG,AFNE01.JPG,AFNE01.JPG,,,,,,,,,,,,,3,6,36,3,,,,,,,,,,,AFNE12.jpg,AFSA17.jpg,AFSA11.jpg,AFNE11.jpg,AFSA17.jpg,FS,4,num_6,32,num_2,1.06677353755,,,2017_Feb_20_1035,60.0051964477,MAFE4ImagesEEG,001,000007,
AFNE01.JPG,AFNE01.JPG,AFNE01.JPG,AFNE01.JPG,AFNE01.JPG,AFNE01.JPG,,,,,,,,,,,,,3,7,37,9,,,,,,,,,,,AFNE01.jpg,AFNE19.jpg,AFSA14.jpg,AFSA13.jpg,AFNE01.jpg,FN,3,num_8,32,num_6,0.816628241912,,,2017_Feb_20_1035,60.0051964477,MAFE4ImagesEEG,001,000007,
AFNE01.JPG,AFNE01.JPG,AFNE01.JPG,AFNE01.JPG,AFNE01.JPG,AFNE01.JPG,,,,,,,,,,,,,3,8,38,0,,,,,,,,,,,AFSA11.jpg,AFNE18.jpg,AFSA08.jpg,AFNE16.jpg,AFNE16.jpg,FN,3,num_4,16,num_4,1.6166960462,,,2017_Feb_20_1035,60.0051964477,MAFE4ImagesEEG,001,000007,
AFNE01.JPG,AFNE01.JPG,AFNE01.JPG,AFNE01.JPG,AFNE01.JPG,AFNE01.JPG,,,,,,,,,,,,,3,9,39,5,,,,,,,,,,,AFSA02.jpg,AFSA17.jpg,AFNE04.jpg,AFNE17.jpg,AFNE04.jpg,FN,3,num_2,32,num_6,1.16681901785,,,2017_Feb_20_1035,60.0051964477,MAFE4ImagesEEG,001,000007,
AFNE01.JPG,AFNE01.JPG,AFNE01.JPG,AFNE01.JPG,AFNE01.JPG,AFNE01.JPG,,,,,,,,,,,,,4,0,40,2,,,,,,,,,,,AFNE15.jpg,AFNE16.jpg,AFSA11.jpg,AFSA01.jpg,AFSA11.jpg,FS,4,num_2,16,num_2,1.18342179339,,,2017_Feb_20_1035,60.0051964477,MAFE4ImagesEEG,001,000007,
AFNE01.JPG,AFNE01.JPG,AFNE01.JPG,AFNE01.JPG,AFNE01.JPG,AFNE01.JPG,,,,,,,,,,,,,4,1,41,3,,,,,,,,,,,AFNE18.jpg,AFSA14.jpg,AFSA07.jpg,AFNE05.jpg,AFNE05.jpg,FN,3,num_4,32,num_6,0.750166784972,,,2017_Feb_20_1035,60.0051964477,MAFE4ImagesEEG,001,000007,
AFNE01.JPG,AFNE01.JPG,AFNE01.JPG,AFNE01.JPG,AFNE01.JPG,AFNE01.JPG,,,,,,,,,,,,,4,2,42,1,,,,,,,,,,,AFSA06.jpg,AFNE13.jpg,AFSA20.jpg,AFNE07.jpg,AFNE07.jpg,FN,3,num_4,16,num_4,0.633433532435,,,2017_Feb_20_1035,60.0051964477,MAFE4ImagesEEG,001,000007,
AFNE01.JPG,AFNE01.JPG,AFNE01.JPG,AFNE01.JPG,AFNE01.JPG,AFNE01.JPG,,,,,,,,,,,,,4,3,43,0,,,,,,,,,,,AFSA19.jpg,AFNE15.jpg,AFNE20.jpg,AFSA04.jpg,AFSA04.jpg,FS,4,num_4,16,num_4,1.50025723362,,,2017_Feb_20_1035,60.0051964477,MAFE4ImagesEEG,001,000007,
AFNE01.JPG,AFNE01.JPG,AFNE01.JPG,AFNE01.JPG,AFNE01.JPG,AFNE01.JPG,,,,,,,,,,,,,4,4,44,9,,,,,,,,,,,AFNE05.jpg,AFSA20.jpg,AFSA10.jpg,AFNE03.jpg,AFNE03.jpg,FN,3,num_4,32,num_8,1.10010225186,,,2017_Feb_20_1035,60.0051964477,MAFE4ImagesEEG,001,000007,
AFNE01.JPG,AFNE01.JPG,AFNE01.JPG,AFNE01.JPG,AFNE01.JPG,AFNE01.JPG,,,,,,,,,,,,,4,5,45,8,,,,,,,,,,,AFSA10.jpg,AFNE19.jpg,AFNE15.jpg,AFSA19.jpg,AFSA19.jpg,FS,4,num_4,32,num_6,0.933449697681,,,2017_Feb_20_1035,60.0051964477,MAFE4ImagesEEG,001,000007,
AFNE01.JPG,AFNE01.JPG,AFNE01.JPG,AFNE01.JPG,AFNE01.JPG,AFNE01.JPG,,,,,,,,,,,,,4,6,46,5,,,,,,,,,,,AFSA15.jpg,AFNE18.jpg,AFSA14.jpg,AFNE17.jpg,AFNE18.jpg,FN,3,num_6,32,num_4,0.666720871814,,,2017_Feb_20_1035,60.0051964477,MAFE4ImagesEEG,001,000007,
AFNE01.JPG,AFNE01.JPG,AFNE01.JPG,AFNE01.JPG,AFNE01.JPG,AFNE01.JPG,,,,,,,,,,,,,4,7,47,4,,,,,,,,,,,AFNE01.jpg,AFNE03.jpg,AFSA10.jpg,AFSA20.jpg,AFNE03.jpg,FN,3,num_6,16,num_6,0.416808754206,,,2017_Feb_20_1035,60.0051964477,MAFE4ImagesEEG,001,000007,
AFNE01.JPG,AFNE01.JPG,AFNE01.JPG,AFNE01.JPG,AFNE01.JPG,AFNE01.JPG,,,,,,,,,,,,,4,8,48,6,,,,,,,,,,,AFNE11.jpg,AFNE05.jpg,AFSA01.jpg,AFSA15.jpg,AFNE05.jpg,FN,3,num_6,16,num_6,0.450212201569,,,2017_Feb_20_1035,60.0051964477,MAFE4ImagesEEG,001,000007,
AFNE01.JPG,AFNE01.JPG,AFNE01.JPG,AFNE01.JPG,AFNE01.JPG,AFNE01.JPG,,,,,,,,,,,,,4,9,49,7,,,,,,,,,,,AFNE08.jpg,AFNE19.jpg,AFSA17.jpg,AFSA13.jpg,AFSA17.jpg,FS,4,num_2,32,num_8,0.950169221964,,,2017_Feb_20_1035,60.0051964477,MAFE4ImagesEEG,001,000007,
AFNE01.JPG,AFNE01.JPG,AFNE01.JPG,AFNE01.JPG,AFNE01.JPG,AFNE01.JPG,,,,,,,,,,,,,5,0,50,3,,,,,,,,,,,AFNE05.jpg,AFNE03.jpg,AFSA18.jpg,AFSA11.jpg,AFSA18.jpg,FS,4,num_2,16,num_2,0.983449505176,,,2017_Feb_20_1035,60.0051964477,MAFE4ImagesEEG,001,000007,
AFNE01.JPG,AFNE01.JPG,AFNE01.JPG,AFNE01.JPG,AFNE01.JPG,AFNE01.JPG,,,,,,,,,,,,,5,1,51,7,,,,,,,,,,,AFSA07.jpg,AFNE13.jpg,AFNE03.jpg,AFSA02.jpg,AFSA07.jpg,FS,4,num_8,32,num_6,0.583474779502,,,2017_Feb_20_1035,60.0051964477,MAFE4ImagesEEG,001,000007,
AFNE01.JPG,AFNE01.JPG,AFNE01.JPG,AFNE01.JPG,AFNE01.JPG,AFNE01.JPG,,,,,,,,,,,,,5,2,52,0,,,,,,,,,,,AFSA03.jpg,AFNE01.jpg,AFNE20.jpg,AFSA05.jpg,AFNE01.jpg,FN,3,num_6,16,num_6,0.666766416747,,,2017_Feb_20_1035,60.0051964477,MAFE4ImagesEEG,001,000007,
AFNE01.JPG,AFNE01.JPG,AFNE01.JPG,AFNE01.JPG,AFNE01.JPG,AFNE01.JPG,,,,,,,,,,,,,5,3,53,9,,,,,,,,,,,AFSA11.jpg,AFSA07.jpg,AFNE14.jpg,AFNE10.jpg,AFSA07.jpg,FS,4,num_6,16,num_6,0.450163449161,,,2017_Feb_20_1035,60.0051964477,MAFE4ImagesEEG,001,000007,
AFNE01.JPG,AFNE01.JPG,AFNE01.JPG,AFNE01.JPG,AFNE01.JPG,AFNE01.JPG,,,,,,,,,,,,,5,4,54,8,,,,,,,,,,,AFNE07.jpg,AFNE05.jpg,AFSA18.jpg,AFSA12.jpg,AFSA12.jpg,FS,4,num_4,32,num_8,0.866752175614,,,2017_Feb_20_1035,60.0051964477,MAFE4ImagesEEG,001,000007,
AFNE01.JPG,AFNE01.JPG,AFNE01.JPG,AFNE01.JPG,AFNE01.JPG,AFNE01.JPG,,,,,,,,,,,,,5,5,55,1,,,,,,,,,,,AFSA10.jpg,AFSA05.jpg,AFNE03.jpg,AFNE04.jpg,AFSA10.jpg,FS,4,num_8,32,num_4,0.983174310531,,,2017_Feb_20_1035,60.0051964477,MAFE4ImagesEEG,001,000007,
AFNE01.JPG,AFNE01.JPG,AFNE01.JPG,AFNE01.JPG,AFNE01.JPG,AFNE01.JPG,,,,,,,,,,,,,5,6,56,6,,,,,,,,,,,AFNE01.jpg,AFSA03.jpg,AFSA11.jpg,AFNE05.jpg,AFSA03.jpg,FS,4,num_6,16,num_6,1.40009307861,,,2017_Feb_20_1035,60.0051964477,MAFE4ImagesEEG,001,000007,
AFNE01.JPG,AFNE01.JPG,AFNE01.JPG,AFNE01.JPG,AFNE01.JPG,AFNE01.JPG,,,,,,,,,,,,,5,7,57,4,,,,,,,,,,,AFNE17.jpg,AFSA05.jpg,AFNE08.jpg,AFSA17.jpg,AFNE08.jpg,FN,3,num_2,32,num_8,1.26672337344,,,2017_Feb_20_1035,60.0051964477,MAFE4ImagesEEG,001,000007,
AFNE01.JPG,AFNE01.JPG,AFNE01.JPG,AFNE01.JPG,AFNE01.JPG,AFNE01.JPG,,,,,,,,,,,,,5,8,58,5,,,,,,,,,,,AFNE20.jpg,AFSA17.jpg,AFSA07.jpg,AFNE04.jpg,AFSA17.jpg,FS,4,num_6,32,num_4,2.5835870388,,,2017_Feb_20_1035,60.0051964477,MAFE4ImagesEEG,001,000007,
AFNE01.JPG,AFNE01.JPG,AFNE01.JPG,AFNE01.JPG,AFNE01.JPG,AFNE01.JPG,,,,,,,,,,,,,5,9,59,2,,,,,,,,,,,AFNE04.jpg,AFSA04.jpg,AFSA07.jpg,AFNE05.jpg,AFNE04.jpg,FN,3,num_8,16,num_8,0.766810293775,,,2017_Feb_20_1035,60.0051964477,MAFE4ImagesEEG,001,000007,
,,,,,,,,,,,,,,,,,,,,,,,,,,,,,,,,,,,,,,,,,,,space,13.7324908138,2017_Feb_20_1035,60.0051964477,MAFE4ImagesEEG,001,000007,
AFNE01.JPG,AFNE01.JPG,AFNE01.JPG,AFNE01.JPG,AFNE01.JPG,AFNE01.JPG,,,,,,,,,,,,,,,,,0,0,0,0,,,,,,,AMNE16.jpg,AMSA17.jpg,AMSA18.jpg,AMNE03.jpg,AMNE03.jpg,MN,1,num_4,32,num_6,1.29994784808,,,2017_Feb_20_1035,60.0051964477,MAFE4ImagesEEG,001,000007,
AFNE01.JPG,AFNE01.JPG,AFNE01.JPG,AFNE01.JPG,AFNE01.JPG,AFNE01.JPG,,,,,,,,,,,,,,,,,0,1,1,3,,,,,,,AMNE01.jpg,AMSA19.jpg,AMNE06.jpg,AMSA13.jpg,AMNE01.jpg,MN,1,num_8,16,num_8,0.66677796375,,,2017_Feb_20_1035,60.0051964477,MAFE4ImagesEEG,001,000007,
AFNE01.JPG,AFNE01.JPG,AFNE01.JPG,AFNE01.JPG,AFNE01.JPG,AFNE01.JPG,,,,,,,,,,,,,,,,,0,2,2,2,,,,,,,AMNE12.jpg,AMSA12.jpg,AMSA14.jpg,AMNE16.jpg,AMNE16.jpg,MN,1,num_4,32,num_8,0.883433211595,,,2017_Feb_20_1035,60.0051964477,MAFE4ImagesEEG,001,000007,
AFNE01.JPG,AFNE01.JPG,AFNE01.JPG,AFNE01.JPG,AFNE01.JPG,AFNE01.JPG,,,,,,,,,,,,,,,,,0,3,3,6,,,,,,,AMNE03.jpg,AMSA09.jpg,AMSA06.jpg,AMNE08.jpg,AMSA09.jpg,MS,2,num_6,16,num_6,0.550160177518,,,2017_Feb_20_1035,60.0051964477,MAFE4ImagesEEG,001,000007,
AFNE01.JPG,AFNE01.JPG,AFNE01.JPG,AFNE01.JPG,AFNE01.JPG,AFNE01.JPG,,,,,,,,,,,,,,,,,0,4,4,8,,,,,,,AMNE07.jpg,AMNE09.jpg,AMSA08.jpg,AMSA10.jpg,AMSA08.jpg,MS,2,num_2,32,num_4,0.800170761999,,,2017_Feb_20_1035,60.0051964477,MAFE4ImagesEEG,001,000007,
AFNE01.JPG,AFNE01.JPG,AFNE01.JPG,AFNE01.JPG,AFNE01.JPG,AFNE01.JPG,,,,,,,,,,,,,,,,,0,5,5,9,,,,,,,AMNE10.jpg,AMNE08.jpg,AMSA11.jpg,AMSA16.jpg,AMNE10.jpg,MN,1,num_8,32,num_2,0.633486133534,,,2017_Feb_20_1035,60.0051964477,MAFE4ImagesEEG,001,000007,
AFNE01.JPG,AFNE01.JPG,AFNE01.JPG,AFNE01.JPG,AFNE01.JPG,AFNE01.JPG,,,,,,,,,,,,,,,,,0,6,6,1,,,,,,,AMNE07.jpg,AMSA06.jpg,AMSA20.jpg,AMNE19.jpg,AMNE19.jpg,MN,1,num_4,16,num_4,0.650112002622,,,2017_Feb_20_1035,60.0051964477,MAFE4ImagesEEG,001,000007,
AFNE01.JPG,AFNE01.JPG,AFNE01.JPG,AFNE01.JPG,AFNE01.JPG,AFNE01.JPG,,,,,,,,,,,,,,,,,0,7,7,4,,,,,,,AMNE17.jpg,AMNE08.jpg,AMSA04.jpg,AMSA12.jpg,AMNE17.jpg,MN,1,num_8,32,num_6,0.616796117276,,,2017_Feb_20_1035,60.0051964477,MAFE4ImagesEEG,001,000007,
AFNE01.JPG,AFNE01.JPG,AFNE01.JPG,AFNE01.JPG,AFNE01.JPG,AFNE01.JPG,,,,,,,,,,,,,,,,,0,8,8,7,,,,,,,AMSA02.jpg,AMNE01.jpg,AMSA17.jpg,AMNE12.jpg,AMNE01.jpg,MN,1,num_6,32,num_8,1.1334547014,,,2017_Feb_20_1035,60.0051964477,MAFE4ImagesEEG,001,000007,
AFNE01.JPG,AFNE01.JPG,AFNE01.JPG,AFNE01.JPG,AFNE01.JPG,AFNE01.JPG,,,,,,,,,,,,,,,,,0,9,9,5,,,,,,,AMSA16.jpg,AMSA15.jpg,AMNE18.jpg,AMNE20.jpg,AMSA15.jpg,MS,2,num_6,16,num_6,0.783443219028,,,2017_Feb_20_1035,60.0051964477,MAFE4ImagesEEG,001,000007,
AFNE01.JPG,AFNE01.JPG,AFNE01.JPG,AFNE01.JPG,AFNE01.JPG,AFNE01.JPG,,,,,,,,,,,,,,,,,1,0,10,1,,,,,,,AMSA07.jpg,AMNE10.jpg,AMNE17.jpg,AMSA20.jpg,AMSA20.jpg,MS,2,num_4,32,num_6,0.833439177833,,,2017_Feb_20_1035,60.0051964477,MAFE4ImagesEEG,001,000007,
AFNE01.JPG,AFNE01.JPG,AFNE01.JPG,AFNE01.JPG,AFNE01.JPG,AFNE01.JPG,,,,,,,,,,,,,,,,,1,1,11,4,,,,,,,AMNE05.jpg,AMSA16.jpg,AMSA12.jpg,AMNE14.jpg,AMNE14.jpg,MN,1,num_4,16,num_4,1.35008717701,,,2017_Feb_20_1035,60.0051964477,MAFE4ImagesEEG,001,000007,
AFNE01.JPG,AFNE01.JPG,AFNE01.JPG,AFNE01.JPG,AFNE01.JPG,AFNE01.JPG,,,,,,,,,,,,,,,,,1,2,12,9,,,,,,,AMSA05.jpg,AMNE05.jpg,AMNE08.jpg,AMSA01.jpg,AMSA01.jpg,MS,2,num_4,16,num_4,0.466830051504,,,2017_Feb_20_1035,60.0051964477,MAFE4ImagesEEG,001,000007,
AFNE01.JPG,AFNE01.JPG,AFNE01.JPG,AFNE01.JPG,AFNE01.JPG,AFNE01.JPG,,,,,,,,,,,,,,,,,1,3,13,0,,,,,,,AMSA20.jpg,AMNE01.jpg,AMNE17.jpg,AMSA18.jpg,AMNE17.jpg,MN,1,num_2,32,num_8,1.50007473212,,,2017_Feb_20_1035,60.0051964477,MAFE4ImagesEEG,001,000007,
AFNE01.JPG,AFNE01.JPG,AFNE01.JPG,AFNE01.JPG,AFNE01.JPG,AFNE01.JPG,,,,,,,,,,,,,,,,,1,4,14,6,,,,,,,AMSA14.jpg,AMSA07.jpg,AMNE18.jpg,AMNE07.jpg,AMNE18.jpg,MN,1,num_2,32,num_4,0.533474651165,,,2017_Feb_20_1035,60.0051964477,MAFE4ImagesEEG,001,000007,
AFNE01.JPG,AFNE01.JPG,AFNE01.JPG,AFNE01.JPG,AFNE01.JPG,AFNE01.JPG,,,,,,,,,,,,,,,,,1,5,15,5,,,,,,,AMNE04.jpg,AMNE07.jpg,AMSA03.jpg,AMSA17.jpg,AMNE07.jpg,MN,1,num_6,32,num_8,1.2667416553,,,2017_Feb_20_1035,60.0051964477,MAFE4ImagesEEG,001,000007,
AFNE01.JPG,AFNE01.JPG,AFNE01.JPG,AFNE01.JPG,AFNE01.JPG,AFNE01.JPG,,,,,,,,,,,,,,,,,1,6,16,7,,,,,,,AMSA17.jpg,AMNE02.jpg,AMNE20.jpg,AMSA18.jpg,AMNE20.jpg,MN,1,num_2,16,num_2,1.2667958606,,,2017_Feb_20_1035,60.0051964477,MAFE4ImagesEEG,001,000007,
AFNE01.JPG,AFNE01.JPG,AFNE01.JPG,AFNE01.JPG,AFNE01.JPG,AFNE01.JPG,,,,,,,,,,,,,,,,,1,7,17,3,,,,,,,AMSA04.jpg,AMNE08.jpg,AMSA03.jpg,AMNE12.jpg,AMNE08.jpg,MN,1,num_6,32,num_4,1.13327412494,,,2017_Feb_20_1035,60.0051964477,MAFE4ImagesEEG,001,000007,
AFNE01.JPG,AFNE01.JPG,AFNE01.JPG,AFNE01.JPG,AFNE01.JPG,AFNE01.JPG,,,,,,,,,,,,,,,,,1,8,18,2,,,,,,,AMNE07.jpg,AMNE14.jpg,AMSA03.jpg,AMSA19.jpg,AMSA03.jpg,MS,2,num_2,32,num_6,0.78343103081,,,2017_Feb_20_1035,60.0051964477,MAFE4ImagesEEG,001,000007,
AFNE01.JPG,AFNE01.JPG,AFNE01.JPG,AFNE01.JPG,AFNE01.JPG,AFNE01.JPG,,,,,,,,,,,,,,,,,1,9,19,8,,,,,,,AMSA17.jpg,AMSA20.jpg,AMNE14.jpg,AMNE04.jpg,AMNE14.jpg,MN,1,num_2,32,num_8,1.38339568488,,,2017_Feb_20_1035,60.0051964477,MAFE4ImagesEEG,001,000007,
AFNE01.JPG,AFNE01.JPG,AFNE01.JPG,AFNE01.JPG,AFNE01.JPG,AFNE01.JPG,,,,,,,,,,,,,,,,,2,0,20,4,,,,,,,AMSA13.jpg,AMNE17.jpg,AMNE08.jpg,AMSA04.jpg,AMNE08.jpg,MN,1,num_2,16,num_2,1.06673761457,,,2017_Feb_20_1035,60.0051964477,MAFE4ImagesEEG,001,000007,
AFNE01.JPG,AFNE01.JPG,AFNE01.JPG,AFNE01.JPG,AFNE01.JPG,AFNE01.JPG,,,,,,,,,,,,,,,,,2,1,21,5,,,,,,,AMNE15.jpg,AMSA09.jpg,AMSA19.jpg,AMNE03.jpg,AMSA19.jpg,MS,2,num_2,16,num_2,0.916736588348,,,2017_Feb_20_1035,60.0051964477,MAFE4ImagesEEG,001,000007,
AFNE01.JPG,AFNE01.JPG,AFNE01.JPG,AFNE01.JPG,AFNE01.JPG,AFNE01.JPG,,,,,,,,,,,,,,,,,2,2,22,3,,,,,,,AMNE01.jpg,AMSA09.jpg,AMSA14.jpg,AMNE04.jpg,AMSA14.jpg,MS,2,num_2,16,num_2,1.18346605543,,,2017_Feb_20_1035,60.0051964477,MAFE4ImagesEEG,001,000007,
AFNE01.JPG,AFNE01.JPG,AFNE01.JPG,AFNE01.JPG,AFNE01.JPG,AFNE01.JPG,,,,,,,,,,,,,,,,,2,3,23,2,,,,,,,AMNE08.jpg,AMSA20.jpg,AMSA03.jpg,AMNE15.jpg,AMSA20.jpg,MS,2,num_6,16,num_6,1.88338413835,,,2017_Feb_20_1035,60.0051964477,MAFE4ImagesEEG,001,000007,
AFNE01.JPG,AFNE01.JPG,AFNE01.JPG,AFNE01.JPG,AFNE01.JPG,AFNE01.JPG,,,,,,,,,,,,,,,,,2,4,24,0,,,,,,,AMSA17.jpg,AMSA09.jpg,AMNE11.jpg,AMNE10.jpg,AMSA17.jpg,MS,2,num_8,16,num_8,1.90005330695,,,2017_Feb_20_1035,60.0051964477,MAFE4ImagesEEG,001,000007,
AFNE01.JPG,AFNE01.JPG,AFNE01.JPG,AFNE01.JPG,AFNE01.JPG,AFNE01.JPG,,,,,,,,,,,,,,,,,2,5,25,7,,,,,,,AMNE10.jpg,AMSA14.jpg,AMSA13.jpg,AMNE20.jpg,AMSA14.jpg,MS,2,num_6,16,num_6,0.616807022598,,,2017_Feb_20_1035,60.0051964477,MAFE4ImagesEEG,001,000007,
AFNE01.JPG,AFNE01.JPG,AFNE01.JPG,AFNE01.JPG,AFNE01.JPG,AFNE01.JPG,,,,,,,,,,,,,,,,,2,6,26,9,,,,,,,AMNE06.jpg,AMNE09.jpg,AMSA03.jpg,AMSA05.jpg,AMNE09.jpg,MN,1,num_6,32,num_8,0.783451878931,,,2017_Feb_20_1035,60.0051964477,MAFE4ImagesEEG,001,000007,
AFNE01.JPG,AFNE01.JPG,AFNE01.JPG,AFNE01.JPG,AFNE01.JPG,AFNE01.JPG,,,,,,,,,,,,,,,,,2,7,27,1,,,,,,,AMSA12.jpg,AMSA13.jpg,AMNE20.jpg,AMNE16.jpg,AMNE20.jpg,MN,1,num_2,32,num_8,1.41672407882,,,2017_Feb_20_1035,60.0051964477,MAFE4ImagesEEG,001,000007,
AFNE01.JPG,AFNE01.JPG,AFNE01.JPG,AFNE01.JPG,AFNE01.JPG,AFNE01.JPG,,,,,,,,,,,,,,,,,2,8,28,6,,,,,,,AMNE01.jpg,AMSA06.jpg,AMNE14.jpg,AMSA12.jpg,AMSA06.jpg,MS,2,num_6,32,num_4,2.31665197667,,,2017_Feb_20_1035,60.0051964477,MAFE4ImagesEEG,001,000007,
AFNE01.JPG,AFNE01.JPG,AFNE01.JPG,AFNE01.JPG,AFNE01.JPG,AFNE01.JPG,,,,,,,,,,,,,,,,,2,9,29,8,,,,,,,AMSA07.jpg,AMNE09.jpg,AMNE11.jpg,AMSA15.jpg,AMNE11.jpg,MN,1,num_2,32,num_6,1.56672735093,,,2017_Feb_20_1035,60.0051964477,MAFE4ImagesEEG,001,000007,
AFNE01.JPG,AFNE01.JPG,AFNE01.JPG,AFNE01.JPG,AFNE01.JPG,AFNE01.JPG,,,,,,,,,,,,,,,,,3,0,30,4,,,,,,,AMNE03.jpg,AMSA07.jpg,AMSA06.jpg,AMNE20.jpg,AMNE20.jpg,MN,1,num_4,16,num_4,0.933452905156,,,2017_Feb_20_1035,60.0051964477,MAFE4ImagesEEG,001,000007,
AFNE01.JPG,AFNE01.JPG,AFNE01.JPG,AFNE01.JPG,AFNE01.JPG,AFNE01.JPG,,,,,,,,,,,,,,,,,3,1,31,5,,,,,,,AMNE17.jpg,AMNE07.jpg,AMSA02.jpg,AMSA03.jpg,AMSA02.jpg,MS,2,num_2,16,num_2,1.45041202242,,,2017_Feb_20_1035,60.0051964477,MAFE4ImagesEEG,001,000007,
AFNE01.JPG,AFNE01.JPG,AFNE01.JPG,AFNE01.JPG,AFNE01.JPG,AFNE01.JPG,,,,,,,,,,,,,,,,,3,2,32,8,,,,,,,AMSA17.jpg,AMSA10.jpg,AMNE08.jpg,AMNE18.jpg,AMSA17.jpg,MS,2,num_8,16,num_8,2.35004515992,,,2017_Feb_20_1035,60.0051964477,MAFE4ImagesEEG,001,000007,
AFNE01.JPG,AFNE01.JPG,AFNE01.JPG,AFNE01.JPG,AFNE01.JPG,AFNE01.JPG,,,,,,,,,,,,,,,,,3,3,33,0,,,,,,,AMSA07.jpg,AMSA08.jpg,AMNE19.jpg,AMNE03.jpg,AMSA07.jpg,MS,2,num_8,32,num_4,1.03344867146,,,2017_Feb_20_1035,60.0051964477,MAFE4ImagesEEG,001,000007,
AFNE01.JPG,AFNE01.JPG,AFNE01.JPG,AFNE01.JPG,AFNE01.JPG,AFNE01.JPG,,,,,,,,,,,,,,,,,3,4,34,6,,,,,,,AMNE13.jpg,AMSA03.jpg,AMNE17.jpg,AMSA05.jpg,AMNE17.jpg,MN,1,num_2,32,num_6,0.900115209632,,,2017_Feb_20_1035,60.0051964477,MAFE4ImagesEEG,001,000007,
AFNE01.JPG,AFNE01.JPG,AFNE01.JPG,AFNE01.JPG,AFNE01.JPG,AFNE01.JPG,,,,,,,,,,,,,,,,,3,5,35,2,,,,,,,AMNE01.jpg,AMSA19.jpg,AMSA03.jpg,AMNE15.jpg,AMNE01.jpg,MN,1,num_8,32,num_2,1.03348042443,,,2017_Feb_20_1035,60.0051964477,MAFE4ImagesEEG,001,000007,
AFNE01.JPG,AFNE01.JPG,AFNE01.JPG,AFNE01.JPG,AFNE01.JPG,AFNE01.JPG,,,,,,,,,,,,,,,,,3,6,36,9,,,,,,,AMSA09.jpg,AMNE02.jpg,AMSA13.jpg,AMNE01.jpg,AMSA09.jpg,MS,2,num_8,16,num_8,0.950111168437,,,2017_Feb_20_1035,60.0051964477,MAFE4ImagesEEG,001,000007,
AFNE01.JPG,AFNE01.JPG,AFNE01.JPG,AFNE01.JPG,AFNE01.JPG,AFNE01.JPG,,,,,,,,,,,,,,,,,3,7,37,7,,,,,,,AMSA20.jpg,AMNE12.jpg,AMNE10.jpg,AMSA11.jpg,AMNE10.jpg,MN,1,num_2,32,num_8,1.03341178643,,,2017_Feb_20_1035,60.0051964477,MAFE4ImagesEEG,001,000007,
AFNE01.JPG,AFNE01.JPG,AFNE01.JPG,AFNE01.JPG,AFNE01.JPG,AFNE01.JPG,,,,,,,,,,,,,,,,,3,8,38,3,,,,,,,AMNE15.jpg,AMNE17.jpg,AMSA06.jpg,AMSA09.jpg,AMSA09.jpg,MS,2,num_4,32,num_8,0.783758505713,,,2017_Feb_20_1035,60.0051964477,MAFE4ImagesEEG,001,000007,
AFNE01.JPG,AFNE01.JPG,AFNE01.JPG,AFNE01.JPG,AFNE01.JPG,AFNE01.JPG,,,,,,,,,,,,,,,,,3,9,39,1,,,,,,,AMNE07.jpg,AMSA04.jpg,AMSA17.jpg,AMNE14.jpg,AMSA17.jpg,MS,2,num_2,16,num_2,1.18340736022,,,2017_Feb_20_1035,60.0051964477,MAFE4ImagesEEG,001,000007,
AFNE01.JPG,AFNE01.JPG,AFNE01.JPG,AFNE01.JPG,AFNE01.JPG,AFNE01.JPG,,,,,,,,,,,,,,,,,4,0,40,6,,,,,,,AMNE13.jpg,AMSA17.jpg,AMNE04.jpg,AMSA06.jpg,AMSA06.jpg,MS,2,num_4,16,num_4,0.450164090376,,,2017_Feb_20_1035,60.0051964477,MAFE4ImagesEEG,001,000007,
AFNE01.JPG,AFNE01.JPG,AFNE01.JPG,AFNE01.JPG,AFNE01.JPG,AFNE01.JPG,,,,,,,,,,,,,,,,,4,1,41,4,,,,,,,AMSA07.jpg,AMSA05.jpg,AMNE15.jpg,AMNE19.jpg,AMNE19.jpg,MN,1,num_4,32,num_2,0.899976650253,,,2017_Feb_20_1035,60.0051964477,MAFE4ImagesEEG,001,000007,
AFNE01.JPG,AFNE01.JPG,AFNE01.JPG,AFNE01.JPG,AFNE01.JPG,AFNE01.JPG,,,,,,,,,,,,,,,,,4,2,42,2,,,,,,,AMSA04.jpg,AMSA01.jpg,AMNE15.jpg,AMNE07.jpg,AMSA01.jpg,MS,2,num_6,32,num_8,0.80014831014,,,2017_Feb_20_1035,60.0051964477,MAFE4ImagesEEG,001,000007,
AFNE01.JPG,AFNE01.JPG,AFNE01.JPG,AFNE01.JPG,AFNE01.JPG,AFNE01.JPG,,,,,,,,,,,,,,,,,4,3,43,7,,,,,,,AMSA10.jpg,AMSA05.jpg,AMNE01.jpg,AMNE05.jpg,AMNE01.jpg,MN,1,num_2,32,num_6,0.633449569345,,,2017_Feb_20_1035,60.0051964477,MAFE4ImagesEEG,001,000007,
AFNE01.JPG,AFNE01.JPG,AFNE01.JPG,AFNE01.JPG,AFNE01.JPG,AFNE01.JPG,,,,,,,,,,,,,,,,,4,4,44,1,,,,,,,AMNE20.jpg,AMSA12.jpg,AMNE06.jpg,AMSA05.jpg,AMNE20.jpg,MN,1,num_8,32,num_2,0.866768533364,,,2017_Feb_20_1035,60.0051964477,MAFE4ImagesEEG,001,000007,
AFNE01.JPG,AFNE01.JPG,AFNE01.JPG,AFNE01.JPG,AFNE01.JPG,AFNE01.JPG,,,,,,,,,,,,,,,,,4,5,45,3,,,,,,,AMNE03.jpg,AMSA10.jpg,AMNE20.jpg,AMSA20.jpg,AMSA10.jpg,MS,2,num_6,32,num_8,0.750176727772,,,2017_Feb_20_1035,60.0051964477,MAFE4ImagesEEG,001,000007,
AFNE01.JPG,AFNE01.JPG,AFNE01.JPG,AFNE01.JPG,AFNE01.JPG,AFNE01.JPG,,,,,,,,,,,,,,,,,4,6,46,8,,,,,,,AMSA02.jpg,AMNE17.jpg,AMNE09.jpg,AMSA04.jpg,AMSA04.jpg,MS,2,num_4,16,num_4,0.500131503213,,,2017_Feb_20_1035,60.0051964477,MAFE4ImagesEEG,001,000007,
AFNE01.JPG,AFNE01.JPG,AFNE01.JPG,AFNE01.JPG,AFNE01.JPG,AFNE01.JPG,,,,,,,,,,,,,,,,,4,7,47,0,,,,,,,AMNE15.jpg,AMSA10.jpg,AMSA17.jpg,AMNE09.jpg,AMSA17.jpg,MS,2,num_2,32,num_6,0.766769560054,,,2017_Feb_20_1035,60.0051964477,MAFE4ImagesEEG,001,000007,
AFNE01.JPG,AFNE01.JPG,AFNE01.JPG,AFNE01.JPG,AFNE01.JPG,AFNE01.JPG,,,,,,,,,,,,,,,,,4,8,48,5,,,,,,,AMNE08.jpg,AMSA12.jpg,AMNE16.jpg,AMSA18.jpg,AMNE16.jpg,MN,1,num_2,32,num_6,3.51654889109,,,2017_Feb_20_1035,60.0051964477,MAFE4ImagesEEG,001,000007,
AFNE01.JPG,AFNE01.JPG,AFNE01.JPG,AFNE01.JPG,AFNE01.JPG,AFNE01.JPG,,,,,,,,,,,,,,,,,4,9,49,9,,,,,,,AMSA03.jpg,AMNE14.jpg,AMNE07.jpg,AMSA06.jpg,AMSA03.jpg,MS,2,num_8,16,num_8,1.46701800497,,,2017_Feb_20_1035,60.0051964477,MAFE4ImagesEEG,001,000007,
AFNE01.JPG,AFNE01.JPG,AFNE01.JPG,AFNE01.JPG,AFNE01.JPG,AFNE01.JPG,,,,,,,,,,,,,,,,,5,0,50,9,,,,,,,AMSA17.jpg,AMNE01.jpg,AMNE05.jpg,AMSA09.jpg,AMSA09.jpg,MS,2,num_4,16,num_4,1.21673960285,,,2017_Feb_20_1035,60.0051964477,MAFE4ImagesEEG,001,000007,
AFNE01.JPG,AFNE01.JPG,AFNE01.JPG,AFNE01.JPG,AFNE01.JPG,AFNE01.JPG,,,,,,,,,,,,,,,,,5,1,51,7,,,,,,,AMNE12.jpg,AMNE04.jpg,AMSA07.jpg,AMSA17.jpg,AMSA07.jpg,MS,2,num_2,16,num_2,0.96679060068,,,2017_Feb_20_1035,60.0051964477,MAFE4ImagesEEG,001,000007,
AFNE01.JPG,AFNE01.JPG,AFNE01.JPG,AFNE01.JPG,AFNE01.JPG,AFNE01.JPG,,,,,,,,,,,,,,,,,5,2,52,8,,,,,,,AMSA05.jpg,AMNE06.jpg,AMSA15.jpg,AMNE20.jpg,AMSA05.jpg,MS,2,num_8,32,num_6,1.55005016364,,,2017_Feb_20_1035,60.0051964477,MAFE4ImagesEEG,001,000007,
AFNE01.JPG,AFNE01.JPG,AFNE01.JPG,AFNE01.JPG,AFNE01.JPG,AFNE01.JPG,,,,,,,,,,,,,,,,,5,3,53,3,,,,,,,AMSA10.jpg,AMSA17.jpg,AMNE05.jpg,AMNE07.jpg,AMNE05.jpg,MN,1,num_2,32,num_4,0.666628819425,,,2017_Feb_20_1035,60.0051964477,MAFE4ImagesEEG,001,000007,
AFNE01.JPG,AFNE01.JPG,AFNE01.JPG,AFNE01.JPG,AFNE01.JPG,AFNE01.JPG,,,,,,,,,,,,,,,,,5,4,54,0,,,,,,,AMNE13.jpg,AMSA19.jpg,AMSA09.jpg,AMNE01.jpg,AMSA09.jpg,MS,2,num_2,16,num_2,1.26658737985,,,2017_Feb_20_1035,60.0051964477,MAFE4ImagesEEG,001,000007,
AFNE01.JPG,AFNE01.JPG,AFNE01.JPG,AFNE01.JPG,AFNE01.JPG,AFNE01.JPG,,,,,,,,,,,,,,,,,5,5,55,5,,,,,,,AMNE02.jpg,AMSA09.jpg,AMSA07.jpg,AMNE07.jpg,AMNE07.jpg,MN,1,num_4,16,num_4,0.600163192488,,,2017_Feb_20_1035,60.0051964477,MAFE4ImagesEEG,001,000007,
AFNE01.JPG,AFNE01.JPG,AFNE01.JPG,AFNE01.JPG,AFNE01.JPG,AFNE01.JPG,,,,,,,,,,,,,,,,,5,6,56,6,,,,,,,AMNE12.jpg,AMSA14.jpg,AMNE19.jpg,AMSA01.jpg,AMNE19.jpg,MN,1,num_2,16,num_2,0.666768341325,,,2017_Feb_20_1035,60.0051964477,MAFE4ImagesEEG,001,000007,
AFNE01.JPG,AFNE01.JPG,AFNE01.JPG,AFNE01.JPG,AFNE01.JPG,AFNE01.JPG,,,,,,,,,,,,,,,,,5,7,57,1,,,,,,,AMSA06.jpg,AMNE07.jpg,AMNE12.jpg,AMSA11.jpg,AMNE07.jpg,MN,1,num_6,32,num_4,0.783400239889,,,2017_Feb_20_1035,60.0051964477,MAFE4ImagesEEG,001,000007,
AFNE01.JPG,AFNE01.JPG,AFNE01.JPG,AFNE01.JPG,AFNE01.JPG,AFNE01.JPG,,,,,,,,,,,,,,,,,5,8,58,2,,,,,,,AMNE13.jpg,AMSA11.jpg,AMNE04.jpg,AMSA17.jpg,AMNE13.jpg,MN,1,num_8,32,num_6,1.2001223946,,,2017_Feb_20_1035,60.0051964477,MAFE4ImagesEEG,001,000007,
AFNE01.JPG,AFNE01.JPG,AFNE01.JPG,AFNE01.JPG,AFNE01.JPG,AFNE01.JPG,,,,,,,,,,,,,,,,,5,9,59,4,,,,,,,AMNE06.jpg,AMSA06.jpg,AMSA02.jpg,AMNE12.jpg,AMNE06.jpg,MN,1,num_8,16,num_8,1.13343545701,,,2017_Feb_20_1035,60.0051964477,MAFE4ImagesEEG,001,000007,
,,,,,,,,,,,,,,,,,,,,,,,,,,,,,,,,,,,,,,,,,,,space,9.8163774237,2017_Feb_20_1035,60.0051964477,MAFE4ImagesEEG,001,000007,
AFNE01.JPG,AFNE01.JPG,AFNE01.JPG,AFNE01.JPG,AFNE01.JPG,AFNE01.JPG,,,,,,,,,,,,,,,,,,,,,0,0,0,0,,,AFNE05.jpg,AFSA20.jpg,AFSA17.jpg,AFNE17.jpg,AFSA17.jpg,FS,4,num_2,32,num_8,0.56676936755,,,2017_Feb_20_1035,60.0051964477,MAFE4ImagesEEG,001,000007,
AFNE01.JPG,AFNE01.JPG,AFNE01.JPG,AFNE01.JPG,AFNE01.JPG,AFNE01.JPG,,,,,,,,,,,,,,,,,,,,,0,1,1,3,,,AFNE18.jpg,AFNE16.jpg,AFSA02.jpg,AFSA01.jpg,AFSA02.jpg,FS,4,num_2,32,num_4,0.700132337399,,,2017_Feb_20_1035,60.0051964477,MAFE4ImagesEEG,001,000007,
AFNE01.JPG,AFNE01.JPG,AFNE01.JPG,AFNE01.JPG,AFNE01.JPG,AFNE01.JPG,,,,,,,,,,,,,,,,,,,,,0,2,2,4,,,AFSA15.jpg,AFNE07.jpg,AFSA10.jpg,AFNE17.jpg,AFNE07.jpg,FN,3,num_6,16,num_6,1.13343353244,,,2017_Feb_20_1035,60.0051964477,MAFE4ImagesEEG,001,000007,
AFNE01.JPG,AFNE01.JPG,AFNE01.JPG,AFNE01.JPG,AFNE01.JPG,AFNE01.JPG,,,,,,,,,,,,,,,,,,,,,0,3,3,9,,,AFSA16.jpg,AFNE06.jpg,AFNE04.jpg,AFSA07.jpg,AFSA07.jpg,FS,4,num_4,32,num_8,0.516774050426,,,2017_Feb_20_1035,60.0051964477,MAFE4ImagesEEG,001,000007,
AFNE01.JPG,AFNE01.JPG,AFNE01.JPG,AFNE01.JPG,AFNE01.JPG,AFNE01.JPG,,,,,,,,,,,,,,,,,,,,,0,4,4,1,,,AFSA16.jpg,AFSA09.jpg,AFNE20.jpg,AFNE08.jpg,AFSA09.jpg,FS,4,num_6,32,num_2,0.816803365946,,,2017_Feb_20_1035,60.0051964477,MAFE4ImagesEEG,001,000007,
AFNE01.JPG,AFNE01.JPG,AFNE01.JPG,AFNE01.JPG,AFNE01.JPG,AFNE01.JPG,,,,,,,,,,,,,,,,,,,,,0,5,5,2,,,AFNE10.jpg,AFNE09.jpg,AFSA18.jpg,AFSA12.jpg,AFNE10.jpg,FN,3,num_8,32,num_6,0.666783416178,,,2017_Feb_20_1035,60.0051964477,MAFE4ImagesEEG,001,000007,
AFNE01.JPG,AFNE01.JPG,AFNE01.JPG,AFNE01.JPG,AFNE01.JPG,AFNE01.JPG,,,,,,,,,,,,,,,,,,,,,0,6,6,7,,,AFNE18.jpg,AFSA07.jpg,AFNE16.jpg,AFSA14.jpg,AFSA14.jpg,FS,4,num_4,16,num_4,0.699832124636,,,2017_Feb_20_1035,60.0051964477,MAFE4ImagesEEG,001,000007,
AFNE01.JPG,AFNE01.JPG,AFNE01.JPG,AFNE01.JPG,AFNE01.JPG,AFNE01.JPG,,,,,,,,,,,,,,,,,,,,,0,7,7,8,,,AFSA04.jpg,AFSA08.jpg,AFNE12.jpg,AFNE05.jpg,AFSA04.jpg,FS,4,num_8,16,num_8,1.16679239692,,,2017_Feb_20_1035,60.0051964477,MAFE4ImagesEEG,001,000007,
AFNE01.JPG,AFNE01.JPG,AFNE01.JPG,AFNE01.JPG,AFNE01.JPG,AFNE01.JPG,,,,,,,,,,,,,,,,,,,,,0,8,8,6,,,AFSA07.jpg,AFNE19.jpg,AFSA01.jpg,AFNE07.jpg,AFNE19.jpg,FN,3,num_6,32,num_8,0.70010347059,,,2017_Feb_20_1035,60.0051964477,MAFE4ImagesEEG,001,000007,
AFNE01.JPG,AFNE01.JPG,AFNE01.JPG,AFNE01.JPG,AFNE01.JPG,AFNE01.JPG,,,,,,,,,,,,,,,,,,,,,0,9,9,5,,,AFSA09.jpg,AFNE19.jpg,AFNE10.jpg,AFSA16.jpg,AFSA16.jpg,FS,4,num_4,32,num_6,1.26678046538,,,2017_Feb_20_1035,60.0051964477,MAFE4ImagesEEG,001,000007,
AFNE01.JPG,AFNE01.JPG,AFNE01.JPG,AFNE01.JPG,AFNE01.JPG,AFNE01.JPG,,,,,,,,,,,,,,,,,,,,,1,0,10,9,,,AFNE05.jpg,AFSA12.jpg,AFNE01.jpg,AFSA16.jpg,AFSA16.jpg,FS,4,num_4,16,num_4,0.566642995924,,,2017_Feb_20_1035,60.0051964477,MAFE4ImagesEEG,001,000007,
AFNE01.JPG,AFNE01.JPG,AFNE01.JPG,AFNE01.JPG,AFNE01.JPG,AFNE01.JPG,,,,,,,,,,,,,,,,,,,,,1,1,11,0,,,AFSA16.jpg,AFNE08.jpg,AFNE01.jpg,AFSA13.jpg,AFNE01.jpg,FN,3,num_2,32,num_4,0.816761028022,,,2017_Feb_20_1035,60.0051964477,MAFE4ImagesEEG,001,000007,
AFNE01.JPG,AFNE01.JPG,AFNE01.JPG,AFNE01.JPG,AFNE01.JPG,AFNE01.JPG,,,,,,,,,,,,,,,,,,,,,1,2,12,8,,,AFNE15.jpg,AFSA19.jpg,AFSA02.jpg,AFNE14.jpg,AFSA02.jpg,FS,4,num_2,32,num_6,1.15008409787,,,2017_Feb_20_1035,60.0051964477,MAFE4ImagesEEG,001,000007,
AFNE01.JPG,AFNE01.JPG,AFNE01.JPG,AFNE01.JPG,AFNE01.JPG,AFNE01.JPG,,,,,,,,,,,,,,,,,,,,,1,3,13,4,,,AFSA14.jpg,AFNE19.jpg,AFSA08.jpg,AFNE15.jpg,AFNE19.jpg,FN,3,num_6,16,num_6,0.566787329037,,,2017_Feb_20_1035,60.0051964477,MAFE4ImagesEEG,001,000007,
AFNE01.JPG,AFNE01.JPG,AFNE01.JPG,AFNE01.JPG,AFNE01.JPG,AFNE01.JPG,,,,,,,,,,,,,,,,,,,,,1,4,14,3,,,AFNE08.jpg,AFNE01.jpg,AFSA08.jpg,AFSA13.jpg,AFNE08.jpg,FN,3,num_8,32,num_4,0.916900806595,,,2017_Feb_20_1035,60.0051964477,MAFE4ImagesEEG,001,000007,
AFNE01.JPG,AFNE01.JPG,AFNE01.JPG,AFNE01.JPG,AFNE01.JPG,AFNE01.JPG,,,,,,,,,,,,,,,,,,,,,1,5,15,2,,,AFNE13.jpg,AFSA07.jpg,AFSA12.jpg,AFNE12.jpg,AFNE12.jpg,FN,3,num_4,16,num_4,0.950103791431,,,2017_Feb_20_1035,60.0051964477,MAFE4ImagesEEG,001,000007,
AFNE01.JPG,AFNE01.JPG,AFNE01.JPG,AFNE01.JPG,AFNE01.JPG,AFNE01.JPG,,,,,,,,,,,,,,,,,,,,,1,6,16,6,,,AFSA19.jpg,AFNE07.jpg,AFSA02.jpg,AFNE06.jpg,AFNE07.jpg,FN,3,num_6,16,num_6,0.533448029775,,,2017_Feb_20_1035,60.0051964477,MAFE4ImagesEEG,001,000007,
AFNE01.JPG,AFNE01.JPG,AFNE01.JPG,AFNE01.JPG,AFNE01.JPG,AFNE01.JPG,,,,,,,,,,,,,,,,,,,,,1,7,17,7,,,AFSA14.jpg,AFNE07.jpg,AFSA15.jpg,AFNE11.jpg,AFNE07.jpg,FN,3,num_6,16,num_6,0.633515000343,,,2017_Feb_20_1035,60.0051964477,MAFE4ImagesEEG,001,000007,
AFNE01.JPG,AFNE01.JPG,AFNE01.JPG,AFNE01.JPG,AFNE01.JPG,AFNE01.JPG,,,,,,,,,,,,,,,,,,,,,1,8,18,5,,,AFNE03.jpg,AFSA03.jpg,AFSA14.jpg,AFNE04.jpg,AFNE04.jpg,FN,3,num_4,32,num_8,0.983482861891,,,2017_Feb_20_1035,60.0051964477,MAFE4ImagesEEG,001,000007,
AFNE01.JPG,AFNE01.JPG,AFNE01.JPG,AFNE01.JPG,AFNE01.JPG,AFNE01.JPG,,,,,,,,,,,,,,,,,,,,,1,9,19,1,,,AFSA07.jpg,AFNE11.jpg,AFNE20.jpg,AFSA16.jpg,AFSA16.jpg,FS,4,num_4,32,num_6,1.0166364531,,,2017_Feb_20_1035,60.0051964477,MAFE4ImagesEEG,001,000007,
AFNE01.JPG,AFNE01.JPG,AFNE01.JPG,AFNE01.JPG,AFNE01.JPG,AFNE01.JPG,,,,,,,,,,,,,,,,,,,,,2,0,20,3,,,AFSA17.jpg,AFNE15.jpg,AFNE17.jpg,AFSA13.jpg,AFSA17.jpg,FS,4,num_8,16,num_8,0.65019347053,,,2017_Feb_20_1035,60.0051964477,MAFE4ImagesEEG,001,000007,
AFNE01.JPG,AFNE01.JPG,AFNE01.JPG,AFNE01.JPG,AFNE01.JPG,AFNE01.JPG,,,,,,,,,,,,,,,,,,,,,2,1,21,9,,,AFNE01.jpg,AFSA10.jpg,AFSA02.jpg,AFNE19.jpg,AFSA02.jpg,FS,4,num_2,32,num_4,0.850164796226,,,2017_Feb_20_1035,60.0051964477,MAFE4ImagesEEG,001,000007,
AFNE01.JPG,AFNE01.JPG,AFNE01.JPG,AFNE01.JPG,AFNE01.JPG,AFNE01.JPG,,,,,,,,,,,,,,,,,,,,,2,2,22,4,,,AFNE04.jpg,AFSA18.jpg,AFNE13.jpg,AFSA05.jpg,AFNE13.jpg,FN,3,num_2,32,num_6,0.583596660756,,,2017_Feb_20_1035,60.0051964477,MAFE4ImagesEEG,001,000007,
AFNE01.JPG,AFNE01.JPG,AFNE01.JPG,AFNE01.JPG,AFNE01.JPG,AFNE01.JPG,,,,,,,,,,,,,,,,,,,,,2,3,23,0,,,AFSA01.jpg,AFNE14.jpg,AFNE02.jpg,AFSA13.jpg,AFSA01.jpg,FS,4,num_8,32,num_4,0.800139970612,,,2017_Feb_20_1035,60.0051964477,MAFE4ImagesEEG,001,000007,
AFNE01.JPG,AFNE01.JPG,AFNE01.JPG,AFNE01.JPG,AFNE01.JPG,AFNE01.JPG,,,,,,,,,,,,,,,,,,,,,2,4,24,7,,,AFSA09.jpg,AFNE04.jpg,AFNE09.jpg,AFSA04.jpg,AFNE04.jpg,FN,3,num_6,32,num_8,0.75011257967,,,2017_Feb_20_1035,60.0051964477,MAFE4ImagesEEG,001,000007,
AFNE01.JPG,AFNE01.JPG,AFNE01.JPG,AFNE01.JPG,AFNE01.JPG,AFNE01.JPG,,,,,,,,,,,,,,,,,,,,,2,5,25,1,,,AFNE03.jpg,AFSA15.jpg,AFNE17.jpg,AFSA20.jpg,AFNE03.jpg,FN,3,num_8,32,num_4,0.633476832416,,,2017_Feb_20_1035,60.0051964477,MAFE4ImagesEEG,001,000007,
AFNE01.JPG,AFNE01.JPG,AFNE01.JPG,AFNE01.JPG,AFNE01.JPG,AFNE01.JPG,,,,,,,,,,,,,,,,,,,,,2,6,26,2,,,AFNE12.jpg,AFNE01.jpg,AFSA20.jpg,AFSA06.jpg,AFSA20.jpg,FS,4,num_2,32,num_6,1.26672914671,,,2017_Feb_20_1035,60.0051964477,MAFE4ImagesEEG,001,000007,
AFNE01.JPG,AFNE01.JPG,AFNE01.JPG,AFNE01.JPG,AFNE01.JPG,AFNE01.JPG,,,,,,,,,,,,,,,,,,,,,2,7,27,6,,,AFSA08.jpg,AFSA20.jpg,AFNE05.jpg,AFNE15.jpg,AFNE05.jpg,FN,3,num_2,32,num_6,0.633460795507,,,2017_Feb_20_1035,60.0051964477,MAFE4ImagesEEG,001,000007,
AFNE01.JPG,AFNE01.JPG,AFNE01.JPG,AFNE01.JPG,AFNE01.JPG,AFNE01.JPG,,,,,,,,,,,,,,,,,,,,,2,8,28,8,,,AFNE02.jpg,AFSA02.jpg,AFNE04.jpg,AFSA19.jpg,AFSA19.jpg,FS,4,num_4,16,num_4,0.816609318368,,,2017_Feb_20_1035,60.0051964477,MAFE4ImagesEEG,001,000007,
AFNE01.JPG,AFNE01.JPG,AFNE01.JPG,AFNE01.JPG,AFNE01.JPG,AFNE01.JPG,,,,,,,,,,,,,,,,,,,,,2,9,29,5,,,AFNE16.jpg,AFSA14.jpg,AFSA05.jpg,AFNE09.jpg,AFNE09.jpg,FN,3,num_4,16,num_4,1.46641469374,,,2017_Feb_20_1035,60.0051964477,MAFE4ImagesEEG,001,000007,
AFNE01.JPG,AFNE01.JPG,AFNE01.JPG,AFNE01.JPG,AFNE01.JPG,AFNE01.JPG,,,,,,,,,,,,,,,,,,,,,3,0,30,5,,,AFNE16.jpg,AFSA07.jpg,AFSA15.jpg,AFNE09.jpg,AFNE16.jpg,FN,3,num_8,16,num_8,0.8167629526,,,2017_Feb_20_1035,60.0051964477,MAFE4ImagesEEG,001,000007,
AFNE01.JPG,AFNE01.JPG,AFNE01.JPG,AFNE01.JPG,AFNE01.JPG,AFNE01.JPG,,,,,,,,,,,,,,,,,,,,,3,1,31,9,,,AFSA02.jpg,AFNE17.jpg,AFNE13.jpg,AFSA13.jpg,AFSA02.jpg,FS,4,num_8,32,num_6,0.600130476989,,,2017_Feb_20_1035,60.0051964477,MAFE4ImagesEEG,001,000007,
AFNE01.JPG,AFNE01.JPG,AFNE01.JPG,AFNE01.JPG,AFNE01.JPG,AFNE01.JPG,,,,,,,,,,,,,,,,,,,,,3,2,32,1,,,AFNE04.jpg,AFNE07.jpg,AFSA18.jpg,AFSA14.jpg,AFSA14.jpg,FS,4,num_4,16,num_4,0.900400347542,,,2017_Feb_20_1035,60.0051964477,MAFE4ImagesEEG,001,000007,
AFNE01.JPG,AFNE01.JPG,AFNE01.JPG,AFNE01.JPG,AFNE01.JPG,AFNE01.JPG,,,,,,,,,,,,,,,,,,,,,3,3,33,7,,,AFNE19.jpg,AFSA13.jpg,AFSA04.jpg,AFNE09.jpg,AFSA04.jpg,FS,4,num_2,32,num_4,0.500159407966,,,2017_Feb_20_1035,60.0051964477,MAFE4ImagesEEG,001,000007,
AFNE01.JPG,AFNE01.JPG,AFNE01.JPG,AFNE01.JPG,AFNE01.JPG,AFNE01.JPG,,,,,,,,,,,,,,,,,,,,,3,4,34,3,,,AFNE08.jpg,AFSA01.jpg,AFNE10.jpg,AFSA06.jpg,AFSA01.jpg,FS,4,num_6,16,num_6,1.13345566345,,,2017_Feb_20_1035,60.0051964477,MAFE4ImagesEEG,001,000007,
AFNE01.JPG,AFNE01.JPG,AFNE01.JPG,AFNE01.JPG,AFNE01.JPG,AFNE01.JPG,,,,,,,,,,,,,,,,,,,,,3,5,35,4,,,AFNE07.jpg,AFSA13.jpg,AFSA05.jpg,AFNE12.jpg,AFSA13.jpg,FS,4,num_6,16,num_6,0.58345393138,,,2017_Feb_20_1035,60.0051964477,MAFE4ImagesEEG,001,000007,
AFNE01.JPG,AFNE01.JPG,AFNE01.JPG,AFNE01.JPG,AFNE01.JPG,AFNE01.JPG,,,,,,,,,,,,,,,,,,,,,3,6,36,2,,,AFNE14.jpg,AFSA01.jpg,AFSA13.jpg,AFNE12.jpg,AFNE12.jpg,FN,3,num_4,16,num_4,0.566788932309,,,2017_Feb_20_1035,60.0051964477,MAFE4ImagesEEG,001,000007,
AFNE01.JPG,AFNE01.JPG,AFNE01.JPG,AFNE01.JPG,AFNE01.JPG,AFNE01.JPG,,,,,,,,,,,,,,,,,,,,,3,7,37,0,,,AFSA16.jpg,AFNE08.jpg,AFSA05.jpg,AFNE16.jpg,AFSA05.jpg,FS,4,num_2,16,num_2,0.499998075422,,,2017_Feb_20_1035,60.0051964477,MAFE4ImagesEEG,001,000007,
AFNE01.JPG,AFNE01.JPG,AFNE01.JPG,AFNE01.JPG,AFNE01.JPG,AFNE01.JPG,,,,,,,,,,,,,,,,,,,,,3,8,38,6,,,AFSA16.jpg,AFNE12.jpg,AFSA09.jpg,AFNE20.jpg,AFNE12.jpg,FN,3,num_6,16,num_6,0.566807535943,,,2017_Feb_20_1035,60.0051964477,MAFE4ImagesEEG,001,000007,
