IPosition2,IPosition3,IPosition1,IPosition6,IPosition4,IPosition5,TrialsM1.thisRepN,TrialsM1.thisTrialN,TrialsM1.thisN,TrialsM1.thisIndex,TrialsF1.thisRepN,TrialsF1.thisTrialN,TrialsF1.thisN,TrialsF1.thisIndex,TrialsM2.thisRepN,TrialsM2.thisTrialN,TrialsM2.thisN,TrialsM2.thisIndex,TrialsF2.thisRepN,TrialsF2.thisTrialN,TrialsF2.thisN,TrialsF2.thisIndex,TrialsM3.thisRepN,TrialsM3.thisTrialN,TrialsM3.thisN,TrialsM3.thisIndex,TrialsF3.thisRepN,TrialsF3.thisTrialN,TrialsF3.thisN,TrialsF3.thisIndex,InstrKey_resp.keys,InstrKey_resp.rt,Image0 _Position,Image1 _Position,Image2 _Position,Image3 _Position,Center_image,condition,code,correct_answer,accuracy,Key_Resp.keys,Key_Resp.rt,BreakKey_resp.keys,BreakKey_resp.rt,date,frameRate,expName,session,participant,
,,,,,,,,,,,,,,,,,,,,,,,,,,,,,,space,17.7823417983,,,,,,,,,,,,,,2017_Feb_24_1438,60.006235834,MAFE4ImagesEEG,001,000009,
AMSA25.JPG,AMNE24.JPG,AMSA24.JPG,AMNE26.JPG,AMSA21.JPG,AMNE25.JPG,0,0,0,3,,,,,,,,,,,,,,,,,,,,,,,AMNE15.jpg,AMSA17.jpg,AMSA07.jpg,AMNE04.jpg,AMSA17.jpg,MS,2,num_6,32,num_4,1.06675236858,,,2017_Feb_24_1438,60.006235834,MAFE4ImagesEEG,001,000009,
AMNE22.JPG,AMSA24.JPG,AMSA22.JPG,AMNE25.JPG,AMNE24.JPG,AMSA25.JPG,0,1,1,7,,,,,,,,,,,,,,,,,,,,,,,AMSA18.jpg,AMNE16.jpg,AMSA13.jpg,AMNE08.jpg,AMSA13.jpg,MS,2,num_2,16,num_2,0.999965680763,,,2017_Feb_24_1438,60.006235834,MAFE4ImagesEEG,001,000009,
AMNE23.JPG,AMNE24.JPG,AMNE22.JPG,AMSA24.JPG,AMSA22.JPG,AMSA23.JPG,0,2,2,9,,,,,,,,,,,,,,,,,,,,,,,AMSA05.jpg,AMNE18.jpg,AMSA06.jpg,AMNE01.jpg,AMSA06.jpg,MS,2,num_2,16,num_2,0.633491586428,,,2017_Feb_24_1438,60.006235834,MAFE4ImagesEEG,001,000009,
AFSA25.JPG,AFNE24.JPG,AFSA24.JPG,AFNE21.JPG,AFSA21.JPG,AFNE25.JPG,0,3,3,2,,,,,,,,,,,,,,,,,,,,,,,AMSA16.jpg,AMSA02.jpg,AMNE01.jpg,AMNE19.jpg,AMNE19.jpg,MN,1,num_4,16,num_4,0.683433019556,,,2017_Feb_24_1438,60.006235834,MAFE4ImagesEEG,001,000009,
AMSA21.JPG,AMNE22.JPG,AMNE21.JPG,AMSA23.JPG,AMSA22.JPG,AMNE23.JPG,0,4,4,1,,,,,,,,,,,,,,,,,,,,,,,AMNE11.jpg,AMSA10.jpg,AMSA04.jpg,AMNE19.jpg,AMNE11.jpg,MN,1,num_8,32,num_6,0.916759360582,,,2017_Feb_24_1438,60.006235834,MAFE4ImagesEEG,001,000009,
AFSA21.JPG,AFNE22.JPG,AFNE21.JPG,AFSA23.JPG,AFSA22.JPG,AFNE23.JPG,0,5,5,0,,,,,,,,,,,,,,,,,,,,,,,AMSA19.jpg,AMNE16.jpg,AMNE06.jpg,AMSA06.jpg,AMNE16.jpg,MN,1,num_6,16,num_6,0.866775589995,,,2017_Feb_24_1438,60.006235834,MAFE4ImagesEEG,001,000009,
AMSA21.JPG,AMNE23.JPG,AMNE21.JPG,AMSA25.JPG,AMNE25.JPG,AMSA23.JPG,0,6,6,5,,,,,,,,,,,,,,,,,,,,,,,AMSA09.jpg,AMSA01.jpg,AMNE07.jpg,AMNE03.jpg,AMNE07.jpg,MN,1,num_2,32,num_4,0.833481514826,,,2017_Feb_24_1438,60.006235834,MAFE4ImagesEEG,001,000009,
AFSA21.JPG,AFNE23.JPG,AFNE21.JPG,AFSA25.JPG,AFNE25.JPG,AFSA23.JPG,0,7,7,4,,,,,,,,,,,,,,,,,,,,,,,AMSA17.jpg,AMSA06.jpg,AMNE02.jpg,AMNE11.jpg,AMNE11.jpg,MN,1,num_4,32,num_2,0.83346708212,,,2017_Feb_24_1438,60.006235834,MAFE4ImagesEEG,001,000009,
AFNE22.JPG,AFSA24.JPG,AFSA22.JPG,AFNE25.JPG,AFNE24.JPG,AFSA25.JPG,0,8,8,6,,,,,,,,,,,,,,,,,,,,,,,AMNE07.jpg,AMNE20.jpg,AMSA10.jpg,AMSA15.jpg,AMSA15.jpg,MS,2,num_4,16,num_4,0.666837300174,,,2017_Feb_24_1438,60.006235834,MAFE4ImagesEEG,001,000009,
AFNE23.JPG,AFNE24.JPG,AFNE22.JPG,AFSA24.JPG,AFSA22.JPG,AFSA23.JPG,0,9,9,8,,,,,,,,,,,,,,,,,,,,,,,AMSA04.jpg,AMNE01.jpg,AMNE11.jpg,AMSA08.jpg,AMNE01.jpg,MN,1,num_6,32,num_8,0.566791177727,,,2017_Feb_24_1438,60.006235834,MAFE4ImagesEEG,001,000009,
AMSA25.JPG,AMNE24.JPG,AMSA24.JPG,AMNE26.JPG,AMSA21.JPG,AMNE25.JPG,,,,,0,0,0,3,,,,,,,,,,,,,,,,,,,AFNE11.jpg,AFSA04.jpg,AFNE18.jpg,AFSA13.jpg,AFSA13.jpg,FS,4,num_4,16,num_4,0.600137212779,,,2017_Feb_24_1438,60.006235834,MAFE4ImagesEEG,001,000009,
AFSA21.JPG,AFNE22.JPG,AFNE21.JPG,AFSA23.JPG,AFSA22.JPG,AFNE23.JPG,,,,,0,1,1,0,,,,,,,,,,,,,,,,,,,AFSA06.jpg,AFNE19.jpg,AFNE13.jpg,AFSA04.jpg,AFSA06.jpg,FS,4,num_8,32,num_6,0.716792204417,,,2017_Feb_24_1438,60.006235834,MAFE4ImagesEEG,001,000009,
AMSA21.JPG,AMNE22.JPG,AMNE21.JPG,AMSA23.JPG,AMSA22.JPG,AMNE23.JPG,,,,,0,2,2,1,,,,,,,,,,,,,,,,,,,AFNE05.jpg,AFSA19.jpg,AFNE08.jpg,AFSA05.jpg,AFSA19.jpg,FS,4,num_6,16,num_6,1.28343103081,,,2017_Feb_24_1438,60.006235834,MAFE4ImagesEEG,001,000009,
AMNE22.JPG,AMSA24.JPG,AMSA22.JPG,AMNE25.JPG,AMNE24.JPG,AMSA25.JPG,,,,,0,3,3,7,,,,,,,,,,,,,,,,,,,AFNE19.jpg,AFNE09.jpg,AFSA03.jpg,AFSA10.jpg,AFNE19.jpg,FN,3,num_8,16,num_8,0.866806380916,,,2017_Feb_24_1438,60.006235834,MAFE4ImagesEEG,001,000009,
AFSA21.JPG,AFNE23.JPG,AFNE21.JPG,AFSA25.JPG,AFNE25.JPG,AFSA23.JPG,,,,,0,4,4,4,,,,,,,,,,,,,,,,,,,AFSA02.jpg,AFSA12.jpg,AFNE09.jpg,AFNE15.jpg,AFNE15.jpg,FN,3,num_4,16,num_4,1.11675602477,,,2017_Feb_24_1438,60.006235834,MAFE4ImagesEEG,001,000009,
AMNE23.JPG,AMNE24.JPG,AMNE22.JPG,AMSA24.JPG,AMSA22.JPG,AMSA23.JPG,,,,,0,5,5,9,,,,,,,,,,,,,,,,,,,AFSA12.jpg,AFSA15.jpg,AFNE03.jpg,AFNE20.jpg,AFSA15.jpg,FS,4,num_6,16,num_6,0.933483696077,,,2017_Feb_24_1438,60.006235834,MAFE4ImagesEEG,001,000009,
AFNE23.JPG,AFNE24.JPG,AFNE22.JPG,AFSA24.JPG,AFSA22.JPG,AFSA23.JPG,,,,,0,6,6,8,,,,,,,,,,,,,,,,,,,AFNE14.jpg,AFSA20.jpg,AFSA13.jpg,AFNE09.jpg,AFNE09.jpg,FN,3,num_4,16,num_4,0.616915753111,,,2017_Feb_24_1438,60.006235834,MAFE4ImagesEEG,001,000009,
AFNE22.JPG,AFSA24.JPG,AFSA22.JPG,AFNE25.JPG,AFNE24.JPG,AFSA25.JPG,,,,,0,7,7,6,,,,,,,,,,,,,,,,,,,AFNE20.jpg,AFNE11.jpg,AFSA19.jpg,AFSA08.jpg,AFNE11.jpg,FN,3,num_6,32,num_8,0.73346490087,,,2017_Feb_24_1438,60.006235834,MAFE4ImagesEEG,001,000009,
AFSA25.JPG,AFNE24.JPG,AFSA24.JPG,AFNE21.JPG,AFSA21.JPG,AFNE25.JPG,,,,,0,8,8,2,,,,,,,,,,,,,,,,,,,AFNE11.jpg,AFSA03.jpg,AFNE04.jpg,AFSA18.jpg,AFNE04.jpg,FN,3,num_2,16,num_2,1.40013413318,,,2017_Feb_24_1438,60.006235834,MAFE4ImagesEEG,001,000009,
AMSA21.JPG,AMNE23.JPG,AMNE21.JPG,AMSA25.JPG,AMNE25.JPG,AMSA23.JPG,,,,,0,9,9,5,,,,,,,,,,,,,,,,,,,AFSA16.jpg,AFSA17.jpg,AFNE13.jpg,AFNE18.jpg,AFNE13.jpg,FN,3,num_2,32,num_8,1.30011848127,,,2017_Feb_24_1438,60.006235834,MAFE4ImagesEEG,001,000009,
AFNE23.JPG,AFNE24.JPG,AFNE22.JPG,AFSA24.JPG,AFSA22.JPG,AFSA23.JPG,,,,,,,,,0,0,0,8,,,,,,,,,,,,,,,AMNE17.jpg,AMNE04.jpg,AMSA01.jpg,AMSA02.jpg,AMSA01.jpg,MS,2,num_2,16,num_2,1.40008730534,,,2017_Feb_24_1438,60.006235834,MAFE4ImagesEEG,001,000009,
AFSA21.JPG,AFNE22.JPG,AFNE21.JPG,AFSA23.JPG,AFSA22.JPG,AFNE23.JPG,,,,,,,,,0,1,1,0,,,,,,,,,,,,,,,AMNE12.jpg,AMSA03.jpg,AMNE09.jpg,AMSA07.jpg,AMSA03.jpg,MS,2,num_6,16,num_6,0.616834285203,,,2017_Feb_24_1438,60.006235834,MAFE4ImagesEEG,001,000009,
AFSA21.JPG,AFNE23.JPG,AFNE21.JPG,AFSA25.JPG,AFNE25.JPG,AFSA23.JPG,,,,,,,,,0,2,2,4,,,,,,,,,,,,,,,AMNE19.jpg,AMNE15.jpg,AMSA04.jpg,AMSA03.jpg,AMNE19.jpg,MN,1,num_8,16,num_8,0.78347785864,,,2017_Feb_24_1438,60.006235834,MAFE4ImagesEEG,001,000009,
AMSA25.JPG,AMNE24.JPG,AMSA24.JPG,AMNE26.JPG,AMSA21.JPG,AMNE25.JPG,,,,,,,,,0,3,3,3,,,,,,,,,,,,,,,AMSA03.jpg,AMNE02.jpg,AMNE10.jpg,AMSA13.jpg,AMNE10.jpg,MN,1,num_2,16,num_2,0.916780208703,,,2017_Feb_24_1438,60.006235834,MAFE4ImagesEEG,001,000009,
AMSA21.JPG,AMNE23.JPG,AMNE21.JPG,AMSA25.JPG,AMNE25.JPG,AMSA23.JPG,,,,,,,,,0,4,4,5,,,,,,,,,,,,,,,AMSA07.jpg,AMSA10.jpg,AMNE04.jpg,AMNE09.jpg,AMSA10.jpg,MS,2,num_6,32,num_8,0.916771869641,,,2017_Feb_24_1438,60.006235834,MAFE4ImagesEEG,001,000009,
AMNE23.JPG,AMNE24.JPG,AMNE22.JPG,AMSA24.JPG,AMSA22.JPG,AMSA23.JPG,,,,,,,,,0,5,5,9,,,,,,,,,,,,,,,AMNE18.jpg,AMSA07.jpg,AMSA20.jpg,AMNE06.jpg,AMNE18.jpg,MN,1,num_8,16,num_8,0.766764428001,,,2017_Feb_24_1438,60.006235834,MAFE4ImagesEEG,001,000009,
AMSA21.JPG,AMNE22.JPG,AMNE21.JPG,AMSA23.JPG,AMSA22.JPG,AMNE23.JPG,,,,,,,,,0,6,6,1,,,,,,,,,,,,,,,AMNE12.jpg,AMSA15.jpg,AMSA01.jpg,AMNE17.jpg,AMNE17.jpg,MN,1,num_4,16,num_4,0.866745440289,,,2017_Feb_24_1438,60.006235834,MAFE4ImagesEEG,001,000009,
AFSA25.JPG,AFNE24.JPG,AFSA24.JPG,AFNE21.JPG,AFSA21.JPG,AFNE25.JPG,,,,,,,,,0,7,7,2,,,,,,,,,,,,,,,AMSA12.jpg,AMSA02.jpg,AMNE03.jpg,AMNE04.jpg,AMSA02.jpg,MS,2,num_6,16,num_6,0.866852567531,,,2017_Feb_24_1438,60.006235834,MAFE4ImagesEEG,001,000009,
AFNE22.JPG,AFSA24.JPG,AFSA22.JPG,AFNE25.JPG,AFNE24.JPG,AFSA25.JPG,,,,,,,,,0,8,8,6,,,,,,,,,,,,,,,AMNE20.jpg,AMNE08.jpg,AMSA06.jpg,AMSA14.jpg,AMSA14.jpg,MS,2,num_4,16,num_4,0.883457267191,,,2017_Feb_24_1438,60.006235834,MAFE4ImagesEEG,001,000009,
AMNE22.JPG,AMSA24.JPG,AMSA22.JPG,AMNE25.JPG,AMNE24.JPG,AMSA25.JPG,,,,,,,,,0,9,9,7,,,,,,,,,,,,,,,AMSA10.jpg,AMNE20.jpg,AMSA01.jpg,AMNE06.jpg,AMNE06.jpg,MN,1,num_4,16,num_4,0.700223427266,,,2017_Feb_24_1438,60.006235834,MAFE4ImagesEEG,001,000009,
AFSA25.JPG,AFNE24.JPG,AFSA24.JPG,AFNE21.JPG,AFSA21.JPG,AFNE25.JPG,,,,,,,,,,,,,0,0,0,2,,,,,,,,,,,AFNE06.jpg,AFSA08.jpg,AFNE16.jpg,AFSA20.jpg,AFNE16.jpg,FN,3,num_2,16,num_2,1.88337996928,,,2017_Feb_24_1438,60.006235834,MAFE4ImagesEEG,001,000009,
AMSA25.JPG,AMNE24.JPG,AMSA24.JPG,AMNE26.JPG,AMSA21.JPG,AMNE25.JPG,,,,,,,,,,,,,0,1,1,3,,,,,,,,,,,AFSA02.jpg,AFSA08.jpg,AFNE06.jpg,AFNE08.jpg,AFSA02.jpg,FS,4,num_8,16,num_8,0.483370923903,,,2017_Feb_24_1438,60.006235834,MAFE4ImagesEEG,001,000009,
AFSA21.JPG,AFNE23.JPG,AFNE21.JPG,AFSA25.JPG,AFNE25.JPG,AFSA23.JPG,,,,,,,,,,,,,0,2,2,4,,,,,,,,,,,AFSA19.jpg,AFNE17.jpg,AFSA20.jpg,AFNE06.jpg,AFSA20.jpg,FS,4,num_2,16,num_2,0.600159985013,,,2017_Feb_24_1438,60.006235834,MAFE4ImagesEEG,001,000009,
AMSA21.JPG,AMNE23.JPG,AMNE21.JPG,AMSA25.JPG,AMNE25.JPG,AMSA23.JPG,,,,,,,,,,,,,0,3,3,5,,,,,,,,,,,AFSA13.jpg,AFNE01.jpg,AFSA15.jpg,AFNE07.jpg,AFNE01.jpg,FN,3,num_6,32,num_4,0.983459448442,,,2017_Feb_24_1438,60.006235834,MAFE4ImagesEEG,001,000009,
AMSA21.JPG,AMNE22.JPG,AMNE21.JPG,AMSA23.JPG,AMSA22.JPG,AMNE23.JPG,,,,,,,,,,,,,0,4,4,1,,,,,,,,,,,AFNE15.jpg,AFSA10.jpg,AFSA19.jpg,AFNE09.jpg,AFNE09.jpg,FN,3,num_4,16,num_4,1.18344328273,,,2017_Feb_24_1438,60.006235834,MAFE4ImagesEEG,001,000009,
AMNE23.JPG,AMNE24.JPG,AMNE22.JPG,AMSA24.JPG,AMSA22.JPG,AMSA23.JPG,,,,,,,,,,,,,0,5,5,9,,,,,,,,,,,AFSA18.jpg,AFNE08.jpg,AFNE18.jpg,AFSA19.jpg,AFSA18.jpg,FS,4,num_8,16,num_8,0.850133042783,,,2017_Feb_24_1438,60.006235834,MAFE4ImagesEEG,001,000009,
AFSA21.JPG,AFNE22.JPG,AFNE21.JPG,AFSA23.JPG,AFSA22.JPG,AFNE23.JPG,,,,,,,,,,,,,0,6,6,0,,,,,,,,,,,AFSA01.jpg,AFSA14.jpg,AFNE15.jpg,AFNE04.jpg,AFSA01.jpg,FS,4,num_8,16,num_8,0.433532127645,,,2017_Feb_24_1438,60.006235834,MAFE4ImagesEEG,001,000009,
AFNE22.JPG,AFSA24.JPG,AFSA22.JPG,AFNE25.JPG,AFNE24.JPG,AFSA25.JPG,,,,,,,,,,,,,0,7,7,6,,,,,,,,,,,AFSA07.jpg,AFSA17.jpg,AFNE20.jpg,AFNE13.jpg,AFSA07.jpg,FS,4,num_8,32,num_4,0.650304125156,,,2017_Feb_24_1438,60.006235834,MAFE4ImagesEEG,001,000009,
AFNE23.JPG,AFNE24.JPG,AFNE22.JPG,AFSA24.JPG,AFSA22.JPG,AFSA23.JPG,,,,,,,,,,,,,0,8,8,8,,,,,,,,,,,AFSA17.jpg,AFNE10.jpg,AFNE06.jpg,AFSA03.jpg,AFNE10.jpg,FN,3,num_6,16,num_6,0.816798234358,,,2017_Feb_24_1438,60.006235834,MAFE4ImagesEEG,001,000009,
AMNE22.JPG,AMSA24.JPG,AMSA22.JPG,AMNE25.JPG,AMNE24.JPG,AMSA25.JPG,,,,,,,,,,,,,0,9,9,7,,,,,,,,,,,AFSA16.jpg,AFSA06.jpg,AFNE12.jpg,AFNE20.jpg,AFSA06.jpg,FS,4,num_6,32,num_8,0.783489405643,,,2017_Feb_24_1438,60.006235834,MAFE4ImagesEEG,001,000009,
AMSA25.JPG,AMNE24.JPG,AMSA24.JPG,AMNE26.JPG,AMSA21.JPG,AMNE25.JPG,,,,,,,,,,,,,,,,,0,0,0,3,,,,,,,AMSA07.jpg,AMSA20.jpg,AMNE10.jpg,AMNE06.jpg,AMNE10.jpg,MN,1,num_2,16,num_2,0.550079671666,,,2017_Feb_24_1438,60.006235834,MAFE4ImagesEEG,001,000009,
AMSA21.JPG,AMNE22.JPG,AMNE21.JPG,AMSA23.JPG,AMSA22.JPG,AMNE23.JPG,,,,,,,,,,,,,,,,,0,1,1,1,,,,,,,AMNE09.jpg,AMNE03.jpg,AMSA09.jpg,AMSA05.jpg,AMNE09.jpg,MN,1,num_8,16,num_8,0.616820814088,,,2017_Feb_24_1438,60.006235834,MAFE4ImagesEEG,001,000009,
AMNE23.JPG,AMNE24.JPG,AMNE22.JPG,AMSA24.JPG,AMSA22.JPG,AMSA23.JPG,,,,,,,,,,,,,,,,,0,2,2,9,,,,,,,AMSA04.jpg,AMSA09.jpg,AMNE08.jpg,AMNE17.jpg,AMNE17.jpg,MN,1,num_4,32,num_2,1.40007864544,,,2017_Feb_24_1438,60.006235834,MAFE4ImagesEEG,001,000009,
AMNE22.JPG,AMSA24.JPG,AMSA22.JPG,AMNE25.JPG,AMNE24.JPG,AMSA25.JPG,,,,,,,,,,,,,,,,,0,3,3,7,,,,,,,AMSA09.jpg,AMNE11.jpg,AMSA18.jpg,AMNE10.jpg,AMNE10.jpg,MN,1,num_4,16,num_4,0.866790664382,,,2017_Feb_24_1438,60.006235834,MAFE4ImagesEEG,001,000009,
AFNE23.JPG,AFNE24.JPG,AFNE22.JPG,AFSA24.JPG,AFSA22.JPG,AFSA23.JPG,,,,,,,,,,,,,,,,,0,4,4,8,,,,,,,AMSA01.jpg,AMNE07.jpg,AMSA11.jpg,AMNE08.jpg,AMNE08.jpg,MN,1,num_4,32,num_6,0.666815169156,,,2017_Feb_24_1438,60.006235834,MAFE4ImagesEEG,001,000009,
AFNE22.JPG,AFSA24.JPG,AFSA22.JPG,AFNE25.JPG,AFNE24.JPG,AFSA25.JPG,,,,,,,,,,,,,,,,,0,5,5,6,,,,,,,AMSA07.jpg,AMNE06.jpg,AMSA18.jpg,AMNE02.jpg,AMSA18.jpg,MS,2,num_2,16,num_2,0.433362135664,,,2017_Feb_24_1438,60.006235834,MAFE4ImagesEEG,001,000009,
AFSA21.JPG,AFNE22.JPG,AFNE21.JPG,AFSA23.JPG,AFSA22.JPG,AFNE23.JPG,,,,,,,,,,,,,,,,,0,6,6,0,,,,,,,AMNE10.jpg,AMSA14.jpg,AMNE04.jpg,AMSA10.jpg,AMSA10.jpg,MS,2,num_4,16,num_4,0.683470866643,,,2017_Feb_24_1438,60.006235834,MAFE4ImagesEEG,001,000009,
AFSA21.JPG,AFNE23.JPG,AFNE21.JPG,AFSA25.JPG,AFNE25.JPG,AFSA23.JPG,,,,,,,,,,,,,,,,,0,7,7,4,,,,,,,AMSA20.jpg,AMSA06.jpg,AMNE17.jpg,AMNE09.jpg,AMSA06.jpg,MS,2,num_6,16,num_6,0.516804520506,,,2017_Feb_24_1438,60.006235834,MAFE4ImagesEEG,001,000009,
AMSA21.JPG,AMNE23.JPG,AMNE21.JPG,AMSA25.JPG,AMNE25.JPG,AMSA23.JPG,,,,,,,,,,,,,,,,,0,8,8,5,,,,,,,AMNE17.jpg,AMSA16.jpg,AMSA07.jpg,AMNE07.jpg,AMNE17.jpg,MN,1,num_8,32,num_4,1.03344578436,,,2017_Feb_24_1438,60.006235834,MAFE4ImagesEEG,001,000009,
AFSA25.JPG,AFNE24.JPG,AFSA24.JPG,AFNE21.JPG,AFSA21.JPG,AFNE25.JPG,,,,,,,,,,,,,,,,,0,9,9,2,,,,,,,AMNE02.jpg,AMSA17.jpg,AMSA11.jpg,AMNE01.jpg,AMNE01.jpg,MN,1,num_4,32,num_2,1.31673889747,,,2017_Feb_24_1438,60.006235834,MAFE4ImagesEEG,001,000009,
AFNE23.JPG,AFNE24.JPG,AFNE22.JPG,AFSA24.JPG,AFSA22.JPG,AFSA23.JPG,,,,,,,,,,,,,,,,,,,,,0,0,0,8,,,AFSA06.jpg,AFSA12.jpg,AFNE10.jpg,AFNE16.jpg,AFNE10.jpg,FN,3,num_2,32,num_6,0.95015639253,,,2017_Feb_24_1438,60.006235834,MAFE4ImagesEEG,001,000009,
AFSA25.JPG,AFNE24.JPG,AFSA24.JPG,AFNE21.JPG,AFSA21.JPG,AFNE25.JPG,,,,,,,,,,,,,,,,,,,,,0,1,1,2,,,AFSA10.jpg,AFNE18.jpg,AFSA06.jpg,AFNE19.jpg,AFNE19.jpg,FN,3,num_4,16,num_4,0.550150234252,,,2017_Feb_24_1438,60.006235834,MAFE4ImagesEEG,001,000009,
AMSA21.JPG,AMNE23.JPG,AMNE21.JPG,AMSA25.JPG,AMNE25.JPG,AMSA23.JPG,,,,,,,,,,,,,,,,,,,,,0,2,2,5,,,AFNE10.jpg,AFSA03.jpg,AFSA14.jpg,AFNE15.jpg,AFSA03.jpg,FS,4,num_6,16,num_6,0.666786302347,,,2017_Feb_24_1438,60.006235834,MAFE4ImagesEEG,001,000009,
AFSA21.JPG,AFNE23.JPG,AFNE21.JPG,AFSA25.JPG,AFNE25.JPG,AFSA23.JPG,,,,,,,,,,,,,,,,,,,,,0,3,3,4,,,AFNE14.jpg,AFSA09.jpg,AFSA18.jpg,AFNE12.jpg,AFSA18.jpg,FS,4,num_2,16,num_2,0.51689336542,,,2017_Feb_24_1438,60.006235834,MAFE4ImagesEEG,001,000009,
AFNE22.JPG,AFSA24.JPG,AFSA22.JPG,AFNE25.JPG,AFNE24.JPG,AFSA25.JPG,,,,,,,,,,,,,,,,,,,,,0,4,4,6,,,AFNE07.jpg,AFNE10.jpg,AFSA16.jpg,AFSA06.jpg,AFSA16.jpg,FS,4,num_2,16,num_2,0.416857186239,,,2017_Feb_24_1438,60.006235834,MAFE4ImagesEEG,001,000009,
AMNE22.JPG,AMSA24.JPG,AMSA22.JPG,AMNE25.JPG,AMNE24.JPG,AMSA25.JPG,,,,,,,,,,,,,,,,,,,,,0,5,5,7,,,AFSA19.jpg,AFNE18.jpg,AFSA11.jpg,AFNE20.jpg,AFSA11.jpg,FS,4,num_2,16,num_2,0.700161524583,,,2017_Feb_24_1438,60.006235834,MAFE4ImagesEEG,001,000009,
AMSA21.JPG,AMNE22.JPG,AMNE21.JPG,AMSA23.JPG,AMSA22.JPG,AMNE23.JPG,,,,,,,,,,,,,,,,,,,,,0,6,6,1,,,AFSA20.jpg,AFNE05.jpg,AFNE20.jpg,AFSA01.jpg,AFSA20.jpg,FS,4,num_8,16,num_8,0.700154147577,,,2017_Feb_24_1438,60.006235834,MAFE4ImagesEEG,001,000009,
AMNE23.JPG,AMNE24.JPG,AMNE22.JPG,AMSA24.JPG,AMSA22.JPG,AMSA23.JPG,,,,,,,,,,,,,,,,,,,,,0,7,7,9,,,AFSA07.jpg,AFNE17.jpg,AFNE14.jpg,AFSA13.jpg,AFNE17.jpg,FN,3,num_6,16,num_6,0.883462398779,,,2017_Feb_24_1438,60.006235834,MAFE4ImagesEEG,001,000009,
AFSA21.JPG,AFNE22.JPG,AFNE21.JPG,AFSA23.JPG,AFSA22.JPG,AFNE23.JPG,,,,,,,,,,,,,,,,,,,,,0,8,8,0,,,AFSA16.jpg,AFNE06.jpg,AFSA01.jpg,AFNE11.jpg,AFSA16.jpg,FS,4,num_8,32,num_2,0.466785789467,,,2017_Feb_24_1438,60.006235834,MAFE4ImagesEEG,001,000009,
AMSA25.JPG,AMNE24.JPG,AMSA24.JPG,AMNE26.JPG,AMSA21.JPG,AMNE25.JPG,,,,,,,,,,,,,,,,,,,,,0,9,9,3,,,AFNE03.jpg,AFSA09.jpg,AFNE17.jpg,AFSA07.jpg,AFNE03.jpg,FN,3,num_8,16,num_8,0.966769752558,,,2017_Feb_24_1438,60.006235834,MAFE4ImagesEEG,001,000009,
,,,,,,,,,,,,,,,,,,,,,,,,,,,,,,,,,,,,,,,,,,,space,4.04986028606,2017_Feb_24_1438,60.006235834,MAFE4ImagesEEG,001,000009,
AFNE01.JPG,AFNE01.JPG,AFNE01.JPG,AFNE01.JPG,AFNE01.JPG,AFNE01.JPG,0,0,0,7,,,,,,,,,,,,,,,,,,,,,,,AMNE08.jpg,AMSA12.jpg,AMSA10.jpg,AMNE05.jpg,AMNE05.jpg,MN,1,num_4,32,num_6,0.866773344576,,,2017_Feb_24_1438,60.006235834,MAFE4ImagesEEG,001,000009,
AFNE01.JPG,AFNE01.JPG,AFNE01.JPG,AFNE01.JPG,AFNE01.JPG,AFNE01.JPG,0,1,1,8,,,,,,,,,,,,,,,,,,,,,,,AMSA15.jpg,AMNE20.jpg,AMSA05.jpg,AMNE04.jpg,AMNE20.jpg,MN,1,num_6,32,num_8,0.80014189519,,,2017_Feb_24_1438,60.006235834,MAFE4ImagesEEG,001,000009,
AFNE01.JPG,AFNE01.JPG,AFNE01.JPG,AFNE01.JPG,AFNE01.JPG,AFNE01.JPG,0,2,2,6,,,,,,,,,,,,,,,,,,,,,,,AMNE17.jpg,AMSA05.jpg,AMNE16.jpg,AMSA01.jpg,AMSA01.jpg,MS,2,num_4,32,num_2,1.1834618859,,,2017_Feb_24_1438,60.006235834,MAFE4ImagesEEG,001,000009,
AFNE01.JPG,AFNE01.JPG,AFNE01.JPG,AFNE01.JPG,AFNE01.JPG,AFNE01.JPG,0,3,3,5,,,,,,,,,,,,,,,,,,,,,,,AMNE01.jpg,AMNE12.jpg,AMSA06.jpg,AMSA12.jpg,AMSA12.jpg,MS,2,num_4,16,num_4,0.600186606403,,,2017_Feb_24_1438,60.006235834,MAFE4ImagesEEG,001,000009,
AFNE01.JPG,AFNE01.JPG,AFNE01.JPG,AFNE01.JPG,AFNE01.JPG,AFNE01.JPG,0,4,4,0,,,,,,,,,,,,,,,,,,,,,,,AMNE11.jpg,AMNE14.jpg,AMSA12.jpg,AMSA04.jpg,AMSA04.jpg,MS,2,num_4,32,num_2,0.933425000869,,,2017_Feb_24_1438,60.006235834,MAFE4ImagesEEG,001,000009,
AFNE01.JPG,AFNE01.JPG,AFNE01.JPG,AFNE01.JPG,AFNE01.JPG,AFNE01.JPG,0,5,5,3,,,,,,,,,,,,,,,,,,,,,,,AMSA06.jpg,AMNE06.jpg,AMNE02.jpg,AMSA11.jpg,AMSA06.jpg,MS,2,num_8,32,num_6,1.3501792294,,,2017_Feb_24_1438,60.006235834,MAFE4ImagesEEG,001,000009,
AFNE01.JPG,AFNE01.JPG,AFNE01.JPG,AFNE01.JPG,AFNE01.JPG,AFNE01.JPG,0,6,6,4,,,,,,,,,,,,,,,,,,,,,,,AMNE17.jpg,AMNE12.jpg,AMSA04.jpg,AMSA13.jpg,AMNE12.jpg,MN,1,num_6,16,num_6,0.816770971287,,,2017_Feb_24_1438,60.006235834,MAFE4ImagesEEG,001,000009,
AFNE01.JPG,AFNE01.JPG,AFNE01.JPG,AFNE01.JPG,AFNE01.JPG,AFNE01.JPG,0,7,7,9,,,,,,,,,,,,,,,,,,,,,,,AMSA03.jpg,AMNE09.jpg,AMNE15.jpg,AMSA11.jpg,AMNE09.jpg,MN,1,num_6,16,num_6,1.23341999715,,,2017_Feb_24_1438,60.006235834,MAFE4ImagesEEG,001,000009,
AFNE01.JPG,AFNE01.JPG,AFNE01.JPG,AFNE01.JPG,AFNE01.JPG,AFNE01.JPG,0,8,8,2,,,,,,,,,,,,,,,,,,,,,,,AMSA20.jpg,AMSA15.jpg,AMNE19.jpg,AMNE02.jpg,AMNE02.jpg,MN,1,num_4,32,num_8,0.800159214996,,,2017_Feb_24_1438,60.006235834,MAFE4ImagesEEG,001,000009,
AFNE01.JPG,AFNE01.JPG,AFNE01.JPG,AFNE01.JPG,AFNE01.JPG,AFNE01.JPG,0,9,9,1,,,,,,,,,,,,,,,,,,,,,,,AMNE19.jpg,AMSA07.jpg,AMSA08.jpg,AMNE02.jpg,AMNE02.jpg,MN,1,num_4,16,num_4,0.516780144535,,,2017_Feb_24_1438,60.006235834,MAFE4ImagesEEG,001,000009,
AFNE01.JPG,AFNE01.JPG,AFNE01.JPG,AFNE01.JPG,AFNE01.JPG,AFNE01.JPG,1,0,10,8,,,,,,,,,,,,,,,,,,,,,,,AMNE17.jpg,AMNE14.jpg,AMSA17.jpg,AMSA07.jpg,AMNE17.jpg,MN,1,num_8,32,num_2,2.74983257381,,,2017_Feb_24_1438,60.006235834,MAFE4ImagesEEG,001,000009,
AFNE01.JPG,AFNE01.JPG,AFNE01.JPG,AFNE01.JPG,AFNE01.JPG,AFNE01.JPG,1,1,11,1,,,,,,,,,,,,,,,,,,,,,,,AMNE01.jpg,AMSA16.jpg,AMSA08.jpg,AMNE05.jpg,AMSA16.jpg,MS,2,num_6,16,num_6,1.25009910855,,,2017_Feb_24_1438,60.006235834,MAFE4ImagesEEG,001,000009,
AFNE01.JPG,AFNE01.JPG,AFNE01.JPG,AFNE01.JPG,AFNE01.JPG,AFNE01.JPG,1,2,12,3,,,,,,,,,,,,,,,,,,,,,,,AMSA05.jpg,AMSA19.jpg,AMNE05.jpg,AMNE09.jpg,AMSA19.jpg,MS,2,num_6,16,num_6,0.533399277367,,,2017_Feb_24_1438,60.006235834,MAFE4ImagesEEG,001,000009,
AFNE01.JPG,AFNE01.JPG,AFNE01.JPG,AFNE01.JPG,AFNE01.JPG,AFNE01.JPG,1,3,13,7,,,,,,,,,,,,,,,,,,,,,,,AMSA11.jpg,AMSA16.jpg,AMNE15.jpg,AMNE19.jpg,AMNE19.jpg,MN,1,num_4,32,num_2,1.03316353355,,,2017_Feb_24_1438,60.006235834,MAFE4ImagesEEG,001,000009,
AFNE01.JPG,AFNE01.JPG,AFNE01.JPG,AFNE01.JPG,AFNE01.JPG,AFNE01.JPG,1,4,14,4,,,,,,,,,,,,,,,,,,,,,,,AMSA07.jpg,AMNE01.jpg,AMSA08.jpg,AMNE19.jpg,AMNE01.jpg,MN,1,num_6,32,num_2,0.68348594103,,,2017_Feb_24_1438,60.006235834,MAFE4ImagesEEG,001,000009,
AFNE01.JPG,AFNE01.JPG,AFNE01.JPG,AFNE01.JPG,AFNE01.JPG,AFNE01.JPG,1,5,15,5,,,,,,,,,,,,,,,,,,,,,,,AMNE03.jpg,AMSA09.jpg,AMNE13.jpg,AMSA11.jpg,AMNE13.jpg,MN,1,num_2,32,num_8,0.716865653638,,,2017_Feb_24_1438,60.006235834,MAFE4ImagesEEG,001,000009,
AFNE01.JPG,AFNE01.JPG,AFNE01.JPG,AFNE01.JPG,AFNE01.JPG,AFNE01.JPG,1,6,16,6,,,,,,,,,,,,,,,,,,,,,,,AMSA08.jpg,AMNE16.jpg,AMNE07.jpg,AMSA11.jpg,AMSA08.jpg,MS,2,num_8,16,num_8,1.1834291704,,,2017_Feb_24_1438,60.006235834,MAFE4ImagesEEG,001,000009,
AFNE01.JPG,AFNE01.JPG,AFNE01.JPG,AFNE01.JPG,AFNE01.JPG,AFNE01.JPG,1,7,17,2,,,,,,,,,,,,,,,,,,,,,,,AMNE19.jpg,AMSA06.jpg,AMSA10.jpg,AMNE08.jpg,AMSA06.jpg,MS,2,num_6,32,num_8,0.583497231361,,,2017_Feb_24_1438,60.006235834,MAFE4ImagesEEG,001,000009,
AFNE01.JPG,AFNE01.JPG,AFNE01.JPG,AFNE01.JPG,AFNE01.JPG,AFNE01.JPG,1,8,18,0,,,,,,,,,,,,,,,,,,,,,,,AMNE09.jpg,AMSA10.jpg,AMSA03.jpg,AMNE06.jpg,AMNE06.jpg,MN,1,num_4,16,num_4,1.4500781321,,,2017_Feb_24_1438,60.006235834,MAFE4ImagesEEG,001,000009,
AFNE01.JPG,AFNE01.JPG,AFNE01.JPG,AFNE01.JPG,AFNE01.JPG,AFNE01.JPG,1,9,19,9,,,,,,,,,,,,,,,,,,,,,,,AMNE14.jpg,AMSA10.jpg,AMNE12.jpg,AMSA19.jpg,AMNE12.jpg,MN,1,num_2,32,num_6,0.633563432377,,,2017_Feb_24_1438,60.006235834,MAFE4ImagesEEG,001,000009,
AFNE01.JPG,AFNE01.JPG,AFNE01.JPG,AFNE01.JPG,AFNE01.JPG,AFNE01.JPG,2,0,20,1,,,,,,,,,,,,,,,,,,,,,,,AMSA20.jpg,AMSA10.jpg,AMNE02.jpg,AMNE03.jpg,AMNE02.jpg,MN,1,num_2,16,num_2,0.850162871648,,,2017_Feb_24_1438,60.006235834,MAFE4ImagesEEG,001,000009,
AFNE01.JPG,AFNE01.JPG,AFNE01.JPG,AFNE01.JPG,AFNE01.JPG,AFNE01.JPG,2,1,21,0,,,,,,,,,,,,,,,,,,,,,,,AMSA14.jpg,AMSA03.jpg,AMNE06.jpg,AMNE17.jpg,AMNE06.jpg,MN,1,num_2,16,num_2,0.633491907269,,,2017_Feb_24_1438,60.006235834,MAFE4ImagesEEG,001,000009,
AFNE01.JPG,AFNE01.JPG,AFNE01.JPG,AFNE01.JPG,AFNE01.JPG,AFNE01.JPG,2,2,22,9,,,,,,,,,,,,,,,,,,,,,,,AMSA15.jpg,AMSA05.jpg,AMNE03.jpg,AMNE18.jpg,AMSA05.jpg,MS,2,num_6,16,num_6,0.750155237969,,,2017_Feb_24_1438,60.006235834,MAFE4ImagesEEG,001,000009,
AFNE01.JPG,AFNE01.JPG,AFNE01.JPG,AFNE01.JPG,AFNE01.JPG,AFNE01.JPG,2,3,23,4,,,,,,,,,,,,,,,,,,,,,,,AMNE03.jpg,AMNE08.jpg,AMSA16.jpg,AMSA14.jpg,AMSA14.jpg,MS,2,num_4,16,num_4,0.433517373633,,,2017_Feb_24_1438,60.006235834,MAFE4ImagesEEG,001,000009,
AFNE01.JPG,AFNE01.JPG,AFNE01.JPG,AFNE01.JPG,AFNE01.JPG,AFNE01.JPG,2,4,24,6,,,,,,,,,,,,,,,,,,,,,,,AMSA13.jpg,AMNE02.jpg,AMSA02.jpg,AMNE15.jpg,AMNE02.jpg,MN,1,num_6,32,num_2,0.500128296204,,,2017_Feb_24_1438,60.006235834,MAFE4ImagesEEG,001,000009,
AFNE01.JPG,AFNE01.JPG,AFNE01.JPG,AFNE01.JPG,AFNE01.JPG,AFNE01.JPG,2,5,25,5,,,,,,,,,,,,,,,,,,,,,,,AMNE13.jpg,AMSA06.jpg,AMSA11.jpg,AMNE15.jpg,AMNE13.jpg,MN,1,num_8,32,num_6,0.916718626395,,,2017_Feb_24_1438,60.006235834,MAFE4ImagesEEG,001,000009,
AFNE01.JPG,AFNE01.JPG,AFNE01.JPG,AFNE01.JPG,AFNE01.JPG,AFNE01.JPG,2,6,26,7,,,,,,,,,,,,,,,,,,,,,,,AMSA05.jpg,AMNE07.jpg,AMSA13.jpg,AMNE01.jpg,AMNE07.jpg,MN,1,num_6,16,num_6,1.28345989715,,,2017_Feb_24_1438,60.006235834,MAFE4ImagesEEG,001,000009,
AFNE01.JPG,AFNE01.JPG,AFNE01.JPG,AFNE01.JPG,AFNE01.JPG,AFNE01.JPG,2,7,27,3,,,,,,,,,,,,,,,,,,,,,,,AMSA10.jpg,AMSA17.jpg,AMNE15.jpg,AMNE02.jpg,AMNE02.jpg,MN,1,num_4,16,num_4,0.650166207459,,,2017_Feb_24_1438,60.006235834,MAFE4ImagesEEG,001,000009,
AFNE01.JPG,AFNE01.JPG,AFNE01.JPG,AFNE01.JPG,AFNE01.JPG,AFNE01.JPG,2,8,28,8,,,,,,,,,,,,,,,,,,,,,,,AMNE19.jpg,AMNE20.jpg,AMSA12.jpg,AMSA03.jpg,AMNE20.jpg,MN,1,num_6,16,num_6,0.800147668924,,,2017_Feb_24_1438,60.006235834,MAFE4ImagesEEG,001,000009,
AFNE01.JPG,AFNE01.JPG,AFNE01.JPG,AFNE01.JPG,AFNE01.JPG,AFNE01.JPG,2,9,29,2,,,,,,,,,,,,,,,,,,,,,,,AMSA06.jpg,AMSA19.jpg,AMNE09.jpg,AMNE19.jpg,AMSA06.jpg,MS,2,num_8,32,num_6,0.583542776294,,,2017_Feb_24_1438,60.006235834,MAFE4ImagesEEG,001,000009,
AFNE01.JPG,AFNE01.JPG,AFNE01.JPG,AFNE01.JPG,AFNE01.JPG,AFNE01.JPG,3,0,30,2,,,,,,,,,,,,,,,,,,,,,,,AMSA13.jpg,AMNE04.jpg,AMSA06.jpg,AMNE06.jpg,AMSA13.jpg,MS,2,num_8,16,num_8,0.466810165904,,,2017_Feb_24_1438,60.006235834,MAFE4ImagesEEG,001,000009,
AFNE01.JPG,AFNE01.JPG,AFNE01.JPG,AFNE01.JPG,AFNE01.JPG,AFNE01.JPG,3,1,31,5,,,,,,,,,,,,,,,,,,,,,,,AMNE07.jpg,AMNE03.jpg,AMSA13.jpg,AMSA02.jpg,AMNE07.jpg,MN,1,num_8,32,num_6,0.750154596753,,,2017_Feb_24_1438,60.006235834,MAFE4ImagesEEG,001,000009,
AFNE01.JPG,AFNE01.JPG,AFNE01.JPG,AFNE01.JPG,AFNE01.JPG,AFNE01.JPG,3,2,32,1,,,,,,,,,,,,,,,,,,,,,,,AMSA15.jpg,AMNE01.jpg,AMNE03.jpg,AMSA16.jpg,AMNE01.jpg,MN,1,num_6,32,num_2,0.816727992147,,,2017_Feb_24_1438,60.006235834,MAFE4ImagesEEG,001,000009,
AFNE01.JPG,AFNE01.JPG,AFNE01.JPG,AFNE01.JPG,AFNE01.JPG,AFNE01.JPG,3,3,33,9,,,,,,,,,,,,,,,,,,,,,,,AMSA07.jpg,AMSA15.jpg,AMNE11.jpg,AMNE15.jpg,AMNE11.jpg,MN,1,num_2,16,num_2,1.06675012317,,,2017_Feb_24_1438,60.006235834,MAFE4ImagesEEG,001,000009,
AFNE01.JPG,AFNE01.JPG,AFNE01.JPG,AFNE01.JPG,AFNE01.JPG,AFNE01.JPG,3,4,34,8,,,,,,,,,,,,,,,,,,,,,,,AMNE01.jpg,AMSA12.jpg,AMSA03.jpg,AMNE16.jpg,AMSA03.jpg,MS,2,num_2,32,num_6,0.766789446119,,,2017_Feb_24_1438,60.006235834,MAFE4ImagesEEG,001,000009,
AFNE01.JPG,AFNE01.JPG,AFNE01.JPG,AFNE01.JPG,AFNE01.JPG,AFNE01.JPG,3,5,35,6,,,,,,,,,,,,,,,,,,,,,,,AMNE08.jpg,AMNE15.jpg,AMSA07.jpg,AMSA08.jpg,AMSA07.jpg,MS,2,num_2,16,num_2,1.38337162975,,,2017_Feb_24_1438,60.006235834,MAFE4ImagesEEG,001,000009,
AFNE01.JPG,AFNE01.JPG,AFNE01.JPG,AFNE01.JPG,AFNE01.JPG,AFNE01.JPG,3,6,36,3,,,,,,,,,,,,,,,,,,,,,,,AMSA18.jpg,AMSA07.jpg,AMNE17.jpg,AMNE12.jpg,AMNE12.jpg,MN,1,num_4,32,num_2,1.03312536562,,,2017_Feb_24_1438,60.006235834,MAFE4ImagesEEG,001,000009,
AFNE01.JPG,AFNE01.JPG,AFNE01.JPG,AFNE01.JPG,AFNE01.JPG,AFNE01.JPG,3,7,37,4,,,,,,,,,,,,,,,,,,,,,,,AMNE04.jpg,AMNE12.jpg,AMSA13.jpg,AMSA01.jpg,AMNE12.jpg,MN,1,num_6,16,num_6,0.883467530832,,,2017_Feb_24_1438,60.006235834,MAFE4ImagesEEG,001,000009,
AFNE01.JPG,AFNE01.JPG,AFNE01.JPG,AFNE01.JPG,AFNE01.JPG,AFNE01.JPG,3,8,38,7,,,,,,,,,,,,,,,,,,,,,,,AMSA11.jpg,AMSA12.jpg,AMNE20.jpg,AMNE11.jpg,AMNE20.jpg,MN,1,num_2,32,num_8,0.800194817595,,,2017_Feb_24_1438,60.006235834,MAFE4ImagesEEG,001,000009,
AFNE01.JPG,AFNE01.JPG,AFNE01.JPG,AFNE01.JPG,AFNE01.JPG,AFNE01.JPG,3,9,39,0,,,,,,,,,,,,,,,,,,,,,,,AMSA17.jpg,AMNE03.jpg,AMSA15.jpg,AMNE09.jpg,AMNE09.jpg,MN,1,num_4,32,num_6,0.933405114803,,,2017_Feb_24_1438,60.006235834,MAFE4ImagesEEG,001,000009,
AFNE01.JPG,AFNE01.JPG,AFNE01.JPG,AFNE01.JPG,AFNE01.JPG,AFNE01.JPG,4,0,40,8,,,,,,,,,,,,,,,,,,,,,,,AMNE20.jpg,AMSA07.jpg,AMSA12.jpg,AMNE09.jpg,AMSA12.jpg,MS,2,num_2,16,num_2,0.933540146332,,,2017_Feb_24_1438,60.006235834,MAFE4ImagesEEG,001,000009,
AFNE01.JPG,AFNE01.JPG,AFNE01.JPG,AFNE01.JPG,AFNE01.JPG,AFNE01.JPG,4,1,41,2,,,,,,,,,,,,,,,,,,,,,,,AMNE10.jpg,AMNE19.jpg,AMSA19.jpg,AMSA11.jpg,AMNE10.jpg,MN,1,num_8,16,num_8,0.766780465376,,,2017_Feb_24_1438,60.006235834,MAFE4ImagesEEG,001,000009,
AFNE01.JPG,AFNE01.JPG,AFNE01.JPG,AFNE01.JPG,AFNE01.JPG,AFNE01.JPG,4,2,42,3,,,,,,,,,,,,,,,,,,,,,,,AMNE05.jpg,AMSA16.jpg,AMNE09.jpg,AMSA14.jpg,AMSA16.jpg,MS,2,num_6,32,num_2,0.966741848271,,,2017_Feb_24_1438,60.006235834,MAFE4ImagesEEG,001,000009,
AFNE01.JPG,AFNE01.JPG,AFNE01.JPG,AFNE01.JPG,AFNE01.JPG,AFNE01.JPG,4,3,43,4,,,,,,,,,,,,,,,,,,,,,,,AMNE09.jpg,AMSA20.jpg,AMSA10.jpg,AMNE19.jpg,AMNE19.jpg,MN,1,num_4,32,num_8,0.900131246541,,,2017_Feb_24_1438,60.006235834,MAFE4ImagesEEG,001,000009,
AFNE01.JPG,AFNE01.JPG,AFNE01.JPG,AFNE01.JPG,AFNE01.JPG,AFNE01.JPG,4,4,44,5,,,,,,,,,,,,,,,,,,,,,,,AMSA02.jpg,AMSA05.jpg,AMNE14.jpg,AMNE07.jpg,AMSA02.jpg,MS,2,num_8,16,num_8,0.850100968964,,,2017_Feb_24_1438,60.006235834,MAFE4ImagesEEG,001,000009,
AFNE01.JPG,AFNE01.JPG,AFNE01.JPG,AFNE01.JPG,AFNE01.JPG,AFNE01.JPG,4,5,45,9,,,,,,,,,,,,,,,,,,,,,,,AMNE08.jpg,AMSA13.jpg,AMNE19.jpg,AMSA05.jpg,AMSA05.jpg,MS,2,num_4,16,num_4,0.816784121562,,,2017_Feb_24_1438,60.006235834,MAFE4ImagesEEG,001,000009,
AFNE01.JPG,AFNE01.JPG,AFNE01.JPG,AFNE01.JPG,AFNE01.JPG,AFNE01.JPG,4,6,46,1,,,,,,,,,,,,,,,,,,,,,,,AMSA11.jpg,AMSA06.jpg,AMNE16.jpg,AMNE11.jpg,AMSA11.jpg,MS,2,num_8,16,num_8,0.883464002982,,,2017_Feb_24_1438,60.006235834,MAFE4ImagesEEG,001,000009,
AFNE01.JPG,AFNE01.JPG,AFNE01.JPG,AFNE01.JPG,AFNE01.JPG,AFNE01.JPG,4,7,47,7,,,,,,,,,,,,,,,,,,,,,,,AMSA05.jpg,AMSA02.jpg,AMNE10.jpg,AMNE14.jpg,AMSA05.jpg,MS,2,num_8,16,num_8,0.516804199666,,,2017_Feb_24_1438,60.006235834,MAFE4ImagesEEG,001,000009,
AFNE01.JPG,AFNE01.JPG,AFNE01.JPG,AFNE01.JPG,AFNE01.JPG,AFNE01.JPG,4,8,48,0,,,,,,,,,,,,,,,,,,,,,,,AMSA08.jpg,AMSA18.jpg,AMNE11.jpg,AMNE02.jpg,AMSA08.jpg,MS,2,num_8,16,num_8,0.75012540957,,,2017_Feb_24_1438,60.006235834,MAFE4ImagesEEG,001,000009,
AFNE01.JPG,AFNE01.JPG,AFNE01.JPG,AFNE01.JPG,AFNE01.JPG,AFNE01.JPG,4,9,49,6,,,,,,,,,,,,,,,,,,,,,,,AMSA13.jpg,AMSA01.jpg,AMNE01.jpg,AMNE12.jpg,AMSA01.jpg,MS,2,num_6,32,num_2,0.650153378025,,,2017_Feb_24_1438,60.006235834,MAFE4ImagesEEG,001,000009,
AFNE01.JPG,AFNE01.JPG,AFNE01.JPG,AFNE01.JPG,AFNE01.JPG,AFNE01.JPG,5,0,50,5,,,,,,,,,,,,,,,,,,,,,,,AMNE18.jpg,AMNE09.jpg,AMSA03.jpg,AMSA07.jpg,AMNE18.jpg,MN,1,num_8,16,num_8,1.5501819877,,,2017_Feb_24_1438,60.006235834,MAFE4ImagesEEG,001,000009,
AFNE01.JPG,AFNE01.JPG,AFNE01.JPG,AFNE01.JPG,AFNE01.JPG,AFNE01.JPG,5,1,51,2,,,,,,,,,,,,,,,,,,,,,,,AMSA14.jpg,AMNE18.jpg,AMSA10.jpg,AMNE09.jpg,AMSA10.jpg,MS,2,num_2,32,num_4,0.850135929417,,,2017_Feb_24_1438,60.006235834,MAFE4ImagesEEG,001,000009,
AFNE01.JPG,AFNE01.JPG,AFNE01.JPG,AFNE01.JPG,AFNE01.JPG,AFNE01.JPG,5,2,52,3,,,,,,,,,,,,,,,,,,,,,,,AMSA03.jpg,AMNE17.jpg,AMNE16.jpg,AMSA17.jpg,AMSA17.jpg,MS,2,num_4,16,num_4,0.633475869894,,,2017_Feb_24_1438,60.006235834,MAFE4ImagesEEG,001,000009,
AFNE01.JPG,AFNE01.JPG,AFNE01.JPG,AFNE01.JPG,AFNE01.JPG,AFNE01.JPG,5,3,53,8,,,,,,,,,,,,,,,,,,,,,,,AMSA16.jpg,AMNE15.jpg,AMNE07.jpg,AMSA13.jpg,AMSA13.jpg,MS,2,num_4,16,num_4,0.683451622259,,,2017_Feb_24_1438,60.006235834,MAFE4ImagesEEG,001,000009,
AFNE01.JPG,AFNE01.JPG,AFNE01.JPG,AFNE01.JPG,AFNE01.JPG,AFNE01.JPG,5,4,54,0,,,,,,,,,,,,,,,,,,,,,,,AMNE10.jpg,AMSA17.jpg,AMNE15.jpg,AMSA06.jpg,AMSA06.jpg,MS,2,num_4,32,num_8,0.71678771358,,,2017_Feb_24_1438,60.006235834,MAFE4ImagesEEG,001,000009,
AFNE01.JPG,AFNE01.JPG,AFNE01.JPG,AFNE01.JPG,AFNE01.JPG,AFNE01.JPG,5,5,55,6,,,,,,,,,,,,,,,,,,,,,,,AMNE05.jpg,AMSA04.jpg,AMSA06.jpg,AMNE10.jpg,AMSA04.jpg,MS,2,num_6,16,num_6,2.78331524367,,,2017_Feb_24_1438,60.006235834,MAFE4ImagesEEG,001,000009,
AFNE01.JPG,AFNE01.JPG,AFNE01.JPG,AFNE01.JPG,AFNE01.JPG,AFNE01.JPG,5,6,56,7,,,,,,,,,,,,,,,,,,,,,,,AMSA19.jpg,AMNE01.jpg,AMSA11.jpg,AMNE15.jpg,AMNE01.jpg,MN,1,num_6,16,num_6,0.650179357734,,,2017_Feb_24_1438,60.006235834,MAFE4ImagesEEG,001,000009,
AFNE01.JPG,AFNE01.JPG,AFNE01.JPG,AFNE01.JPG,AFNE01.JPG,AFNE01.JPG,5,7,57,1,,,,,,,,,,,,,,,,,,,,,,,AMNE15.jpg,AMSA12.jpg,AMNE04.jpg,AMSA01.jpg,AMSA01.jpg,MS,2,num_4,16,num_4,0.750087882858,,,2017_Feb_24_1438,60.006235834,MAFE4ImagesEEG,001,000009,
AFNE01.JPG,AFNE01.JPG,AFNE01.JPG,AFNE01.JPG,AFNE01.JPG,AFNE01.JPG,5,8,58,4,,,,,,,,,,,,,,,,,,,,,,,AMSA18.jpg,AMNE14.jpg,AMNE02.jpg,AMSA08.jpg,AMSA18.jpg,MS,2,num_8,32,num_2,0.650163320825,,,2017_Feb_24_1438,60.006235834,MAFE4ImagesEEG,001,000009,
AFNE01.JPG,AFNE01.JPG,AFNE01.JPG,AFNE01.JPG,AFNE01.JPG,AFNE01.JPG,5,9,59,9,,,,,,,,,,,,,,,,,,,,,,,AMSA04.jpg,AMSA01.jpg,AMNE10.jpg,AMNE18.jpg,AMSA01.jpg,MS,2,num_6,16,num_6,0.833469006233,,,2017_Feb_24_1438,60.006235834,MAFE4ImagesEEG,001,000009,
,,,,,,,,,,,,,,,,,,,,,,,,,,,,,,,,,,,,,,,,,,,space,4.49988998612,2017_Feb_24_1438,60.006235834,MAFE4ImagesEEG,001,000009,
AFNE01.JPG,AFNE01.JPG,AFNE01.JPG,AFNE01.JPG,AFNE01.JPG,AFNE01.JPG,,,,,0,0,0,4,,,,,,,,,,,,,,,,,,,AFSA06.jpg,AFNE13.jpg,AFSA20.jpg,AFNE10.jpg,AFNE10.jpg,FN,3,num_4,16,num_4,0.383501208387,,,2017_Feb_24_1438,60.006235834,MAFE4ImagesEEG,001,000009,
AFNE01.JPG,AFNE01.JPG,AFNE01.JPG,AFNE01.JPG,AFNE01.JPG,AFNE01.JPG,,,,,0,1,1,0,,,,,,,,,,,,,,,,,,,AFNE19.jpg,AFNE06.jpg,AFSA11.jpg,AFSA18.jpg,AFNE19.jpg,FN,3,num_8,32,num_2,0.900129001588,,,2017_Feb_24_1438,60.006235834,MAFE4ImagesEEG,001,000009,
AFNE01.JPG,AFNE01.JPG,AFNE01.JPG,AFNE01.JPG,AFNE01.JPG,AFNE01.JPG,,,,,0,2,2,7,,,,,,,,,,,,,,,,,,,AFSA16.jpg,AFNE05.jpg,AFNE17.jpg,AFSA01.jpg,AFSA01.jpg,FS,4,num_4,16,num_4,0.450146129355,,,2017_Feb_24_1438,60.006235834,MAFE4ImagesEEG,001,000009,
AFNE01.JPG,AFNE01.JPG,AFNE01.JPG,AFNE01.JPG,AFNE01.JPG,AFNE01.JPG,,,,,0,3,3,1,,,,,,,,,,,,,,,,,,,AFSA13.jpg,AFNE12.jpg,AFSA12.jpg,AFNE16.jpg,AFNE12.jpg,FN,3,num_6,16,num_6,0.666797207668,,,2017_Feb_24_1438,60.006235834,MAFE4ImagesEEG,001,000009,
AFNE01.JPG,AFNE01.JPG,AFNE01.JPG,AFNE01.JPG,AFNE01.JPG,AFNE01.JPG,,,,,0,4,4,5,,,,,,,,,,,,,,,,,,,AFSA08.jpg,AFNE12.jpg,AFNE11.jpg,AFSA17.jpg,AFSA17.jpg,FS,4,num_4,16,num_4,0.866721705534,,,2017_Feb_24_1438,60.006235834,MAFE4ImagesEEG,001,000009,
AFNE01.JPG,AFNE01.JPG,AFNE01.JPG,AFNE01.JPG,AFNE01.JPG,AFNE01.JPG,,,,,0,5,5,6,,,,,,,,,,,,,,,,,,,AFSA20.jpg,AFNE08.jpg,AFNE03.jpg,AFSA19.jpg,AFSA19.jpg,FS,4,num_4,16,num_4,0.533492933493,,,2017_Feb_24_1438,60.006235834,MAFE4ImagesEEG,001,000009,
AFNE01.JPG,AFNE01.JPG,AFNE01.JPG,AFNE01.JPG,AFNE01.JPG,AFNE01.JPG,,,,,0,6,6,3,,,,,,,,,,,,,,,,,,,AFSA13.jpg,AFNE07.jpg,AFSA15.jpg,AFNE08.jpg,AFNE07.jpg,FN,3,num_6,16,num_6,0.733255137224,,,2017_Feb_24_1438,60.006235834,MAFE4ImagesEEG,001,000009,
AFNE01.JPG,AFNE01.JPG,AFNE01.JPG,AFNE01.JPG,AFNE01.JPG,AFNE01.JPG,,,,,0,7,7,8,,,,,,,,,,,,,,,,,,,AFNE13.jpg,AFSA13.jpg,AFNE11.jpg,AFSA08.jpg,AFNE13.jpg,FN,3,num_8,32,num_2,1.00010873098,,,2017_Feb_24_1438,60.006235834,MAFE4ImagesEEG,001,000009,
AFNE01.JPG,AFNE01.JPG,AFNE01.JPG,AFNE01.JPG,AFNE01.JPG,AFNE01.JPG,,,,,0,8,8,2,,,,,,,,,,,,,,,,,,,AFNE10.jpg,AFSA10.jpg,AFSA19.jpg,AFNE19.jpg,AFSA19.jpg,FS,4,num_2,16,num_2,1.05012072669,,,2017_Feb_24_1438,60.006235834,MAFE4ImagesEEG,001,000009,
AFNE01.JPG,AFNE01.JPG,AFNE01.JPG,AFNE01.JPG,AFNE01.JPG,AFNE01.JPG,,,,,0,9,9,9,,,,,,,,,,,,,,,,,,,AFNE15.jpg,AFSA05.jpg,AFSA06.jpg,AFNE13.jpg,AFSA06.jpg,FS,4,num_2,32,num_6,0.7501821802,,,2017_Feb_24_1438,60.006235834,MAFE4ImagesEEG,001,000009,
AFNE01.JPG,AFNE01.JPG,AFNE01.JPG,AFNE01.JPG,AFNE01.JPG,AFNE01.JPG,,,,,1,0,10,2,,,,,,,,,,,,,,,,,,,AFSA17.jpg,AFNE15.jpg,AFSA08.jpg,AFNE13.jpg,AFSA17.jpg,FS,4,num_8,32,num_4,1.18346894206,,,2017_Feb_24_1438,60.006235834,MAFE4ImagesEEG,001,000009,
AFNE01.JPG,AFNE01.JPG,AFNE01.JPG,AFNE01.JPG,AFNE01.JPG,AFNE01.JPG,,,,,1,1,11,6,,,,,,,,,,,,,,,,,,,AFSA06.jpg,AFNE08.jpg,AFNE03.jpg,AFSA03.jpg,AFSA06.jpg,FS,4,num_8,32,num_4,0.766779182479,,,2017_Feb_24_1438,60.006235834,MAFE4ImagesEEG,001,000009,
AFNE01.JPG,AFNE01.JPG,AFNE01.JPG,AFNE01.JPG,AFNE01.JPG,AFNE01.JPG,,,,,1,2,12,1,,,,,,,,,,,,,,,,,,,AFSA08.jpg,AFSA01.jpg,AFNE09.jpg,AFNE17.jpg,AFSA08.jpg,FS,4,num_8,16,num_8,1.40011745505,,,2017_Feb_24_1438,60.006235834,MAFE4ImagesEEG,001,000009,
AFNE01.JPG,AFNE01.JPG,AFNE01.JPG,AFNE01.JPG,AFNE01.JPG,AFNE01.JPG,,,,,1,3,13,9,,,,,,,,,,,,,,,,,,,AFSA03.jpg,AFSA14.jpg,AFNE03.jpg,AFNE04.jpg,AFSA14.jpg,FS,4,num_6,32,num_4,0.733470994979,,,2017_Feb_24_1438,60.006235834,MAFE4ImagesEEG,001,000009,
AFNE01.JPG,AFNE01.JPG,AFNE01.JPG,AFNE01.JPG,AFNE01.JPG,AFNE01.JPG,,,,,1,4,14,3,,,,,,,,,,,,,,,,,,,AFNE05.jpg,AFSA03.jpg,AFNE04.jpg,AFSA15.jpg,AFNE04.jpg,FN,3,num_2,32,num_8,0.583525135648,,,2017_Feb_24_1438,60.006235834,MAFE4ImagesEEG,001,000009,
AFNE01.JPG,AFNE01.JPG,AFNE01.JPG,AFNE01.JPG,AFNE01.JPG,AFNE01.JPG,,,,,1,5,15,4,,,,,,,,,,,,,,,,,,,AFSA18.jpg,AFSA07.jpg,AFNE13.jpg,AFNE01.jpg,AFNE01.jpg,FN,3,num_4,32,num_8,1.51674197661,,,2017_Feb_24_1438,60.006235834,MAFE4ImagesEEG,001,000009,
AFNE01.JPG,AFNE01.JPG,AFNE01.JPG,AFNE01.JPG,AFNE01.JPG,AFNE01.JPG,,,,,1,6,16,8,,,,,,,,,,,,,,,,,,,AFNE17.jpg,AFSA12.jpg,AFNE01.jpg,AFSA05.jpg,AFSA05.jpg,FS,4,num_4,16,num_4,1.26674646698,,,2017_Feb_24_1438,60.006235834,MAFE4ImagesEEG,001,000009,
AFNE01.JPG,AFNE01.JPG,AFNE01.JPG,AFNE01.JPG,AFNE01.JPG,AFNE01.JPG,,,,,1,7,17,5,,,,,,,,,,,,,,,,,,,AFNE11.jpg,AFSA09.jpg,AFNE06.jpg,AFSA19.jpg,AFSA19.jpg,FS,4,num_4,16,num_4,0.833349691238,,,2017_Feb_24_1438,60.006235834,MAFE4ImagesEEG,001,000009,
AFNE01.JPG,AFNE01.JPG,AFNE01.JPG,AFNE01.JPG,AFNE01.JPG,AFNE01.JPG,,,,,1,8,18,0,,,,,,,,,,,,,,,,,,,AFNE02.jpg,AFSA19.jpg,AFSA11.jpg,AFNE06.jpg,AFSA11.jpg,FS,4,num_2,32,num_8,0.783454123884,,,2017_Feb_24_1438,60.006235834,MAFE4ImagesEEG,001,000009,
AFNE01.JPG,AFNE01.JPG,AFNE01.JPG,AFNE01.JPG,AFNE01.JPG,AFNE01.JPG,,,,,1,9,19,7,,,,,,,,,,,,,,,,,,,AFSA14.jpg,AFNE03.jpg,AFSA07.jpg,AFNE09.jpg,AFNE09.jpg,FN,3,num_4,32,num_2,1.13343770197,,,2017_Feb_24_1438,60.006235834,MAFE4ImagesEEG,001,000009,
AFNE01.JPG,AFNE01.JPG,AFNE01.JPG,AFNE01.JPG,AFNE01.JPG,AFNE01.JPG,,,,,2,0,20,8,,,,,,,,,,,,,,,,,,,AFSA04.jpg,AFNE02.jpg,AFNE17.jpg,AFSA06.jpg,AFSA06.jpg,FS,4,num_4,16,num_4,0.699965231586,,,2017_Feb_24_1438,60.006235834,MAFE4ImagesEEG,001,000009,
AFNE01.JPG,AFNE01.JPG,AFNE01.JPG,AFNE01.JPG,AFNE01.JPG,AFNE01.JPG,,,,,2,1,21,5,,,,,,,,,,,,,,,,,,,AFNE02.jpg,AFSA17.jpg,AFSA11.jpg,AFNE06.jpg,AFNE02.jpg,FN,3,num_8,32,num_6,1.25012925779,,,2017_Feb_24_1438,60.006235834,MAFE4ImagesEEG,001,000009,
AFNE01.JPG,AFNE01.JPG,AFNE01.JPG,AFNE01.JPG,AFNE01.JPG,AFNE01.JPG,,,,,2,2,22,7,,,,,,,,,,,,,,,,,,,AFNE04.jpg,AFSA06.jpg,AFNE16.jpg,AFSA08.jpg,AFNE04.jpg,FN,3,num_8,16,num_8,1.11675217608,,,2017_Feb_24_1438,60.006235834,MAFE4ImagesEEG,001,000009,
AFNE01.JPG,AFNE01.JPG,AFNE01.JPG,AFNE01.JPG,AFNE01.JPG,AFNE01.JPG,,,,,2,3,23,9,,,,,,,,,,,,,,,,,,,AFNE09.jpg,AFSA11.jpg,AFNE06.jpg,AFSA09.jpg,AFSA11.jpg,FS,4,num_6,16,num_6,0.433556824923,,,2017_Feb_24_1438,60.006235834,MAFE4ImagesEEG,001,000009,
AFNE01.JPG,AFNE01.JPG,AFNE01.JPG,AFNE01.JPG,AFNE01.JPG,AFNE01.JPG,,,,,2,4,24,1,,,,,,,,,,,,,,,,,,,AFNE10.jpg,AFNE09.jpg,AFSA08.jpg,AFSA01.jpg,AFNE10.jpg,FN,3,num_8,32,num_6,0.716794770211,,,2017_Feb_24_1438,60.006235834,MAFE4ImagesEEG,001,000009,
AFNE01.JPG,AFNE01.JPG,AFNE01.JPG,AFNE01.JPG,AFNE01.JPG,AFNE01.JPG,,,,,2,5,25,3,,,,,,,,,,,,,,,,,,,AFSA20.jpg,AFSA15.jpg,AFNE14.jpg,AFNE12.jpg,AFNE12.jpg,FN,3,num_4,32,num_8,0.850087177008,,,2017_Feb_24_1438,60.006235834,MAFE4ImagesEEG,001,000009,
AFNE01.JPG,AFNE01.JPG,AFNE01.JPG,AFNE01.JPG,AFNE01.JPG,AFNE01.JPG,,,,,2,6,26,4,,,,,,,,,,,,,,,,,,,AFSA01.jpg,AFSA13.jpg,AFNE06.jpg,AFNE10.jpg,AFNE10.jpg,FN,3,num_4,32,num_2,0.916800415143,,,2017_Feb_24_1438,60.006235834,MAFE4ImagesEEG,001,000009,
AFNE01.JPG,AFNE01.JPG,AFNE01.JPG,AFNE01.JPG,AFNE01.JPG,AFNE01.JPG,,,,,2,7,27,6,,,,,,,,,,,,,,,,,,,AFSA13.jpg,AFNE05.jpg,AFNE11.jpg,AFSA14.jpg,AFSA14.jpg,FS,4,num_4,32,num_8,1.08344046026,,,2017_Feb_24_1438,60.006235834,MAFE4ImagesEEG,001,000009,
AFNE01.JPG,AFNE01.JPG,AFNE01.JPG,AFNE01.JPG,AFNE01.JPG,AFNE01.JPG,,,,,2,8,28,2,,,,,,,,,,,,,,,,,,,AFNE04.jpg,AFSA20.jpg,AFNE08.jpg,AFSA09.jpg,AFSA09.jpg,FS,4,num_4,32,num_6,0.733459127601,,,2017_Feb_24_1438,60.006235834,MAFE4ImagesEEG,001,000009,
AFNE01.JPG,AFNE01.JPG,AFNE01.JPG,AFNE01.JPG,AFNE01.JPG,AFNE01.JPG,,,,,2,9,29,0,,,,,,,,,,,,,,,,,,,AFSA02.jpg,AFNE04.jpg,AFNE12.jpg,AFSA16.jpg,AFSA02.jpg,FS,4,num_8,16,num_8,0.783473368268,,,2017_Feb_24_1438,60.006235834,MAFE4ImagesEEG,001,000009,
AFNE01.JPG,AFNE01.JPG,AFNE01.JPG,AFNE01.JPG,AFNE01.JPG,AFNE01.JPG,,,,,3,0,30,2,,,,,,,,,,,,,,,,,,,AFNE11.jpg,AFSA10.jpg,AFSA03.jpg,AFNE08.jpg,AFNE08.jpg,FN,3,num_4,16,num_4,0.716787714045,,,2017_Feb_24_1438,60.006235834,MAFE4ImagesEEG,001,000009,
AFNE01.JPG,AFNE01.JPG,AFNE01.JPG,AFNE01.JPG,AFNE01.JPG,AFNE01.JPG,,,,,3,1,31,3,,,,,,,,,,,,,,,,,,,AFSA19.jpg,AFNE15.jpg,AFNE01.jpg,AFSA16.jpg,AFNE15.jpg,FN,3,num_6,16,num_6,0.766802275553,,,2017_Feb_24_1438,60.006235834,MAFE4ImagesEEG,001,000009,
AFNE01.JPG,AFNE01.JPG,AFNE01.JPG,AFNE01.JPG,AFNE01.JPG,AFNE01.JPG,,,,,3,2,32,7,,,,,,,,,,,,,,,,,,,AFSA01.jpg,AFSA12.jpg,AFNE14.jpg,AFNE03.jpg,AFNE14.jpg,FN,3,num_2,32,num_4,0.966753715184,,,2017_Feb_24_1438,60.006235834,MAFE4ImagesEEG,001,000009,
AFNE01.JPG,AFNE01.JPG,AFNE01.JPG,AFNE01.JPG,AFNE01.JPG,AFNE01.JPG,,,,,3,3,33,8,,,,,,,,,,,,,,,,,,,AFSA09.jpg,AFSA13.jpg,AFNE04.jpg,AFNE06.jpg,AFNE04.jpg,FN,3,num_2,16,num_2,0.750133107416,,,2017_Feb_24_1438,60.006235834,MAFE4ImagesEEG,001,000009,
AFNE01.JPG,AFNE01.JPG,AFNE01.JPG,AFNE01.JPG,AFNE01.JPG,AFNE01.JPG,,,,,3,4,34,4,,,,,,,,,,,,,,,,,,,AFSA06.jpg,AFNE10.jpg,AFNE04.jpg,AFSA19.jpg,AFSA06.jpg,FS,4,num_8,32,num_4,1.60036237212,,,2017_Feb_24_1438,60.006235834,MAFE4ImagesEEG,001,000009,
AFNE01.JPG,AFNE01.JPG,AFNE01.JPG,AFNE01.JPG,AFNE01.JPG,AFNE01.JPG,,,,,3,5,35,6,,,,,,,,,,,,,,,,,,,AFNE13.jpg,AFNE19.jpg,AFSA17.jpg,AFSA04.jpg,AFSA04.jpg,FS,4,num_4,16,num_4,0.583490175195,,,2017_Feb_24_1438,60.006235834,MAFE4ImagesEEG,001,000009,
AFNE01.JPG,AFNE01.JPG,AFNE01.JPG,AFNE01.JPG,AFNE01.JPG,AFNE01.JPG,,,,,3,6,36,9,,,,,,,,,,,,,,,,,,,AFSA17.jpg,AFNE10.jpg,AFNE08.jpg,AFSA16.jpg,AFNE10.jpg,FN,3,num_6,16,num_6,0.733311266638,,,2017_Feb_24_1438,60.006235834,MAFE4ImagesEEG,001,000009,
AFNE01.JPG,AFNE01.JPG,AFNE01.JPG,AFNE01.JPG,AFNE01.JPG,AFNE01.JPG,,,,,3,7,37,1,,,,,,,,,,,,,,,,,,,AFNE05.jpg,AFSA05.jpg,AFNE07.jpg,AFSA04.jpg,AFSA05.jpg,FS,4,num_6,16,num_6,0.500174161978,,,2017_Feb_24_1438,60.006235834,MAFE4ImagesEEG,001,000009,
AFNE01.JPG,AFNE01.JPG,AFNE01.JPG,AFNE01.JPG,AFNE01.JPG,AFNE01.JPG,,,,,3,8,38,5,,,,,,,,,,,,,,,,,,,AFNE08.jpg,AFSA05.jpg,AFNE01.jpg,AFSA01.jpg,AFSA05.jpg,FS,4,num_6,16,num_6,1.13344796561,,,2017_Feb_24_1438,60.006235834,MAFE4ImagesEEG,001,000009,
AFNE01.JPG,AFNE01.JPG,AFNE01.JPG,AFNE01.JPG,AFNE01.JPG,AFNE01.JPG,,,,,3,9,39,0,,,,,,,,,,,,,,,,,,,AFNE14.jpg,AFSA13.jpg,AFSA01.jpg,AFNE12.jpg,AFSA13.jpg,FS,4,num_6,32,num_2,1.30009699194,,,2017_Feb_24_1438,60.006235834,MAFE4ImagesEEG,001,000009,
AFNE01.JPG,AFNE01.JPG,AFNE01.JPG,AFNE01.JPG,AFNE01.JPG,AFNE01.JPG,,,,,4,0,40,9,,,,,,,,,,,,,,,,,,,AFSA16.jpg,AFSA14.jpg,AFNE19.jpg,AFNE08.jpg,AFNE08.jpg,FN,3,num_4,16,num_4,1.20009577321,,,2017_Feb_24_1438,60.006235834,MAFE4ImagesEEG,001,000009,
AFNE01.JPG,AFNE01.JPG,AFNE01.JPG,AFNE01.JPG,AFNE01.JPG,AFNE01.JPG,,,,,4,1,41,4,,,,,,,,,,,,,,,,,,,AFNE06.jpg,AFSA07.jpg,AFSA18.jpg,AFNE09.jpg,AFSA07.jpg,FS,4,num_6,32,num_2,0.516794898082,,,2017_Feb_24_1438,60.006235834,MAFE4ImagesEEG,001,000009,
AFNE01.JPG,AFNE01.JPG,AFNE01.JPG,AFNE01.JPG,AFNE01.JPG,AFNE01.JPG,,,,,4,2,42,7,,,,,,,,,,,,,,,,,,,AFSA18.jpg,AFNE20.jpg,AFSA13.jpg,AFNE08.jpg,AFNE08.jpg,FN,3,num_4,32,num_6,0.600144268479,,,2017_Feb_24_1438,60.006235834,MAFE4ImagesEEG,001,000009,
AFNE01.JPG,AFNE01.JPG,AFNE01.JPG,AFNE01.JPG,AFNE01.JPG,AFNE01.JPG,,,,,4,3,43,2,,,,,,,,,,,,,,,,,,,AFSA09.jpg,AFSA06.jpg,AFNE20.jpg,AFNE03.jpg,AFSA06.jpg,FS,4,num_6,32,num_8,0.516530608758,,,2017_Feb_24_1438,60.006235834,MAFE4ImagesEEG,001,000009,
AFNE01.JPG,AFNE01.JPG,AFNE01.JPG,AFNE01.JPG,AFNE01.JPG,AFNE01.JPG,,,,,4,4,44,3,,,,,,,,,,,,,,,,,,,AFSA19.jpg,AFNE10.jpg,AFSA08.jpg,AFNE08.jpg,AFNE08.jpg,FN,3,num_4,32,num_6,0.73347869236,,,2017_Feb_24_1438,60.006235834,MAFE4ImagesEEG,001,000009,
AFNE01.JPG,AFNE01.JPG,AFNE01.JPG,AFNE01.JPG,AFNE01.JPG,AFNE01.JPG,,,,,4,5,45,5,,,,,,,,,,,,,,,,,,,AFSA09.jpg,AFNE11.jpg,AFSA15.jpg,AFNE03.jpg,AFNE11.jpg,FN,3,num_6,16,num_6,0.533482028637,,,2017_Feb_24_1438,60.006235834,MAFE4ImagesEEG,001,000009,
AFNE01.JPG,AFNE01.JPG,AFNE01.JPG,AFNE01.JPG,AFNE01.JPG,AFNE01.JPG,,,,,4,6,46,6,,,,,,,,,,,,,,,,,,,AFSA14.jpg,AFNE04.jpg,AFNE11.jpg,AFSA02.jpg,AFSA02.jpg,FS,4,num_4,16,num_4,0.433509354945,,,2017_Feb_24_1438,60.006235834,MAFE4ImagesEEG,001,000009,
AFNE01.JPG,AFNE01.JPG,AFNE01.JPG,AFNE01.JPG,AFNE01.JPG,AFNE01.JPG,,,,,4,7,47,1,,,,,,,,,,,,,,,,,,,AFNE05.jpg,AFSA17.jpg,AFNE18.jpg,AFSA03.jpg,AFNE05.jpg,FN,3,num_8,32,num_6,0.566820044536,,,2017_Feb_24_1438,60.006235834,MAFE4ImagesEEG,001,000009,
AFNE01.JPG,AFNE01.JPG,AFNE01.JPG,AFNE01.JPG,AFNE01.JPG,AFNE01.JPG,,,,,4,8,48,0,,,,,,,,,,,,,,,,,,,AFSA18.jpg,AFNE11.jpg,AFSA01.jpg,AFNE06.jpg,AFSA18.jpg,FS,4,num_8,32,num_6,0.750139842741,,,2017_Feb_24_1438,60.006235834,MAFE4ImagesEEG,001,000009,
AFNE01.JPG,AFNE01.JPG,AFNE01.JPG,AFNE01.JPG,AFNE01.JPG,AFNE01.JPG,,,,,4,9,49,8,,,,,,,,,,,,,,,,,,,AFSA04.jpg,AFNE01.jpg,AFSA13.jpg,AFNE14.jpg,AFSA13.jpg,FS,4,num_2,16,num_2,1.26671567559,,,2017_Feb_24_1438,60.006235834,MAFE4ImagesEEG,001,000009,
AFNE01.JPG,AFNE01.JPG,AFNE01.JPG,AFNE01.JPG,AFNE01.JPG,AFNE01.JPG,,,,,5,0,50,0,,,,,,,,,,,,,,,,,,,AFSA07.jpg,AFNE17.jpg,AFSA18.jpg,AFNE13.jpg,AFNE17.jpg,FN,3,num_6,16,num_6,0.916748776101,,,2017_Feb_24_1438,60.006235834,MAFE4ImagesEEG,001,000009,
AFNE01.JPG,AFNE01.JPG,AFNE01.JPG,AFNE01.JPG,AFNE01.JPG,AFNE01.JPG,,,,,5,1,51,5,,,,,,,,,,,,,,,,,,,AFSA14.jpg,AFSA07.jpg,AFNE10.jpg,AFNE07.jpg,AFNE07.jpg,FN,3,num_4,32,num_8,0.783517630305,,,2017_Feb_24_1438,60.006235834,MAFE4ImagesEEG,001,000009,
AFNE01.JPG,AFNE01.JPG,AFNE01.JPG,AFNE01.JPG,AFNE01.JPG,AFNE01.JPG,,,,,5,2,52,4,,,,,,,,,,,,,,,,,,,AFNE02.jpg,AFSA04.jpg,AFSA09.jpg,AFNE05.jpg,AFNE05.jpg,FN,3,num_4,32,num_8,1.36671849852,,,2017_Feb_24_1438,60.006235834,MAFE4ImagesEEG,001,000009,
AFNE01.JPG,AFNE01.JPG,AFNE01.JPG,AFNE01.JPG,AFNE01.JPG,AFNE01.JPG,,,,,5,3,53,2,,,,,,,,,,,,,,,,,,,AFNE13.jpg,AFNE09.jpg,AFSA08.jpg,AFSA12.jpg,AFNE09.jpg,FN,3,num_6,16,num_6,0.783461500891,,,2017_Feb_24_1438,60.006235834,MAFE4ImagesEEG,001,000009,
AFNE01.JPG,AFNE01.JPG,AFNE01.JPG,AFNE01.JPG,AFNE01.JPG,AFNE01.JPG,,,,,5,4,54,8,,,,,,,,,,,,,,,,,,,AFNE14.jpg,AFSA14.jpg,AFSA05.jpg,AFNE07.jpg,AFSA14.jpg,FS,4,num_6,32,num_2,1.11672619591,,,2017_Feb_24_1438,60.006235834,MAFE4ImagesEEG,001,000009,
AFNE01.JPG,AFNE01.JPG,AFNE01.JPG,AFNE01.JPG,AFNE01.JPG,AFNE01.JPG,,,,,5,5,55,6,,,,,,,,,,,,,,,,,,,AFNE18.jpg,AFSA18.jpg,AFNE10.jpg,AFSA05.jpg,AFSA05.jpg,FS,4,num_4,16,num_4,0.75011899462,,,2017_Feb_24_1438,60.006235834,MAFE4ImagesEEG,001,000009,
AFNE01.JPG,AFNE01.JPG,AFNE01.JPG,AFNE01.JPG,AFNE01.JPG,AFNE01.JPG,,,,,5,6,56,9,,,,,,,,,,,,,,,,,,,AFSA15.jpg,AFNE18.jpg,AFNE08.jpg,AFSA14.jpg,AFNE08.jpg,FN,3,num_2,32,num_6,0.833435328212,,,2017_Feb_24_1438,60.006235834,MAFE4ImagesEEG,001,000009,
AFNE01.JPG,AFNE01.JPG,AFNE01.JPG,AFNE01.JPG,AFNE01.JPG,AFNE01.JPG,,,,,5,7,57,3,,,,,,,,,,,,,,,,,,,AFNE12.jpg,AFSA18.jpg,AFNE20.jpg,AFSA16.jpg,AFSA18.jpg,FS,4,num_6,32,num_4,0.733496012632,,,2017_Feb_24_1438,60.006235834,MAFE4ImagesEEG,001,000009,
AFNE01.JPG,AFNE01.JPG,AFNE01.JPG,AFNE01.JPG,AFNE01.JPG,AFNE01.JPG,,,,,5,8,58,1,,,,,,,,,,,,,,,,,,,AFNE13.jpg,AFNE15.jpg,AFSA10.jpg,AFSA01.jpg,AFSA01.jpg,FS,4,num_4,16,num_4,0.366787457373,,,2017_Feb_24_1438,60.006235834,MAFE4ImagesEEG,001,000009,
AFNE01.JPG,AFNE01.JPG,AFNE01.JPG,AFNE01.JPG,AFNE01.JPG,AFNE01.JPG,,,,,5,9,59,7,,,,,,,,,,,,,,,,,,,AFNE16.jpg,AFSA17.jpg,AFNE06.jpg,AFSA01.jpg,AFNE16.jpg,FN,3,num_8,32,num_2,1.35007563047,,,2017_Feb_24_1438,60.006235834,MAFE4ImagesEEG,001,000009,
,,,,,,,,,,,,,,,,,,,,,,,,,,,,,,,,,,,,,,,,,,,space,2.74998043478,2017_Feb_24_1438,60.006235834,MAFE4ImagesEEG,001,000009,
AFNE01.JPG,AFNE01.JPG,AFNE01.JPG,AFNE01.JPG,AFNE01.JPG,AFNE01.JPG,,,,,,,,,0,0,0,0,,,,,,,,,,,,,,,AMNE08.jpg,AMSA04.jpg,AMNE10.jpg,AMSA14.jpg,AMNE10.jpg,MN,1,num_2,16,num_2,0.683460282162,,,2017_Feb_24_1438,60.006235834,MAFE4ImagesEEG,001,000009,
AFNE01.JPG,AFNE01.JPG,AFNE01.JPG,AFNE01.JPG,AFNE01.JPG,AFNE01.JPG,,,,,,,,,0,1,1,3,,,,,,,,,,,,,,,AMNE01.jpg,AMNE17.jpg,AMSA01.jpg,AMSA16.jpg,AMNE01.jpg,MN,1,num_8,32,num_2,0.450197126716,,,2017_Feb_24_1438,60.006235834,MAFE4ImagesEEG,001,000009,
AFNE01.JPG,AFNE01.JPG,AFNE01.JPG,AFNE01.JPG,AFNE01.JPG,AFNE01.JPG,,,,,,,,,0,2,2,6,,,,,,,,,,,,,,,AMNE20.jpg,AMSA05.jpg,AMNE11.jpg,AMSA15.jpg,AMNE20.jpg,MN,1,num_8,16,num_8,1.40007351339,,,2017_Feb_24_1438,60.006235834,MAFE4ImagesEEG,001,000009,
AFNE01.JPG,AFNE01.JPG,AFNE01.JPG,AFNE01.JPG,AFNE01.JPG,AFNE01.JPG,,,,,,,,,0,3,3,7,,,,,,,,,,,,,,,AMNE02.jpg,AMNE01.jpg,AMSA19.jpg,AMSA18.jpg,AMNE01.jpg,MN,1,num_6,16,num_6,0.716762054712,,,2017_Feb_24_1438,60.006235834,MAFE4ImagesEEG,001,000009,
AFNE01.JPG,AFNE01.JPG,AFNE01.JPG,AFNE01.JPG,AFNE01.JPG,AFNE01.JPG,,,,,,,,,0,4,4,2,,,,,,,,,,,,,,,AMSA02.jpg,AMNE05.jpg,AMSA12.jpg,AMNE13.jpg,AMNE13.jpg,MN,1,num_4,32,num_6,0.61665948201,,,2017_Feb_24_1438,60.006235834,MAFE4ImagesEEG,001,000009,
AFNE01.JPG,AFNE01.JPG,AFNE01.JPG,AFNE01.JPG,AFNE01.JPG,AFNE01.JPG,,,,,,,,,0,5,5,9,,,,,,,,,,,,,,,AMNE04.jpg,AMNE18.jpg,AMSA17.jpg,AMSA18.jpg,AMSA17.jpg,MS,2,num_2,32,num_4,0.883429042064,,,2017_Feb_24_1438,60.006235834,MAFE4ImagesEEG,001,000009,
AFNE01.JPG,AFNE01.JPG,AFNE01.JPG,AFNE01.JPG,AFNE01.JPG,AFNE01.JPG,,,,,,,,,0,6,6,5,,,,,,,,,,,,,,,AMSA05.jpg,AMNE15.jpg,AMNE17.jpg,AMSA02.jpg,AMNE15.jpg,MN,1,num_6,32,num_8,0.683469262905,,,2017_Feb_24_1438,60.006235834,MAFE4ImagesEEG,001,000009,
AFNE01.JPG,AFNE01.JPG,AFNE01.JPG,AFNE01.JPG,AFNE01.JPG,AFNE01.JPG,,,,,,,,,0,7,7,4,,,,,,,,,,,,,,,AMNE04.jpg,AMSA14.jpg,AMSA02.jpg,AMNE07.jpg,AMSA14.jpg,MS,2,num_6,32,num_2,2.3499871064,,,2017_Feb_24_1438,60.006235834,MAFE4ImagesEEG,001,000009,
AFNE01.JPG,AFNE01.JPG,AFNE01.JPG,AFNE01.JPG,AFNE01.JPG,AFNE01.JPG,,,,,,,,,0,8,8,8,,,,,,,,,,,,,,,AMNE12.jpg,AMSA11.jpg,AMNE10.jpg,AMSA20.jpg,AMSA20.jpg,MS,2,num_4,16,num_4,0.450170505326,,,2017_Feb_24_1438,60.006235834,MAFE4ImagesEEG,001,000009,
AFNE01.JPG,AFNE01.JPG,AFNE01.JPG,AFNE01.JPG,AFNE01.JPG,AFNE01.JPG,,,,,,,,,0,9,9,1,,,,,,,,,,,,,,,AMSA07.jpg,AMNE05.jpg,AMNE09.jpg,AMSA16.jpg,AMNE09.jpg,MN,1,num_2,16,num_2,0.600155494642,,,2017_Feb_24_1438,60.006235834,MAFE4ImagesEEG,001,000009,
AFNE01.JPG,AFNE01.JPG,AFNE01.JPG,AFNE01.JPG,AFNE01.JPG,AFNE01.JPG,,,,,,,,,1,0,10,6,,,,,,,,,,,,,,,AMSA02.jpg,AMNE07.jpg,AMSA10.jpg,AMNE02.jpg,AMNE02.jpg,MN,1,num_4,16,num_4,0.866711441893,,,2017_Feb_24_1438,60.006235834,MAFE4ImagesEEG,001,000009,
AFNE01.JPG,AFNE01.JPG,AFNE01.JPG,AFNE01.JPG,AFNE01.JPG,AFNE01.JPG,,,,,,,,,1,1,11,7,,,,,,,,,,,,,,,AMSA16.jpg,AMNE16.jpg,AMSA11.jpg,AMNE09.jpg,AMNE16.jpg,MN,1,num_6,32,num_8,0.766752560623,,,2017_Feb_24_1438,60.006235834,MAFE4ImagesEEG,001,000009,
AFNE01.JPG,AFNE01.JPG,AFNE01.JPG,AFNE01.JPG,AFNE01.JPG,AFNE01.JPG,,,,,,,,,1,2,12,5,,,,,,,,,,,,,,,AMNE06.jpg,AMSA07.jpg,AMNE07.jpg,AMSA12.jpg,AMSA12.jpg,MS,2,num_4,16,num_4,0.600037782919,,,2017_Feb_24_1438,60.006235834,MAFE4ImagesEEG,001,000009,
AFNE01.JPG,AFNE01.JPG,AFNE01.JPG,AFNE01.JPG,AFNE01.JPG,AFNE01.JPG,,,,,,,,,1,3,13,1,,,,,,,,,,,,,,,AMSA15.jpg,AMNE01.jpg,AMNE08.jpg,AMSA17.jpg,AMSA17.jpg,MS,2,num_4,32,num_8,0.833470930345,,,2017_Feb_24_1438,60.006235834,MAFE4ImagesEEG,001,000009,
AFNE01.JPG,AFNE01.JPG,AFNE01.JPG,AFNE01.JPG,AFNE01.JPG,AFNE01.JPG,,,,,,,,,1,4,14,9,,,,,,,,,,,,,,,AMNE11.jpg,AMNE17.jpg,AMSA10.jpg,AMSA08.jpg,AMSA10.jpg,MS,2,num_2,32,num_4,0.550181987695,,,2017_Feb_24_1438,60.006235834,MAFE4ImagesEEG,001,000009,
AFNE01.JPG,AFNE01.JPG,AFNE01.JPG,AFNE01.JPG,AFNE01.JPG,AFNE01.JPG,,,,,,,,,1,5,15,4,,,,,,,,,,,,,,,AMNE02.jpg,AMSA19.jpg,AMNE18.jpg,AMSA07.jpg,AMSA07.jpg,MS,2,num_4,32,num_2,0.800122971646,,,2017_Feb_24_1438,60.006235834,MAFE4ImagesEEG,001,000009,
AFNE01.JPG,AFNE01.JPG,AFNE01.JPG,AFNE01.JPG,AFNE01.JPG,AFNE01.JPG,,,,,,,,,1,6,16,2,,,,,,,,,,,,,,,AMSA18.jpg,AMSA03.jpg,AMNE11.jpg,AMNE04.jpg,AMNE11.jpg,MN,1,num_2,32,num_8,0.666822867002,,,2017_Feb_24_1438,60.006235834,MAFE4ImagesEEG,001,000009,
AFNE01.JPG,AFNE01.JPG,AFNE01.JPG,AFNE01.JPG,AFNE01.JPG,AFNE01.JPG,,,,,,,,,1,7,17,8,,,,,,,,,,,,,,,AMNE04.jpg,AMNE01.jpg,AMSA17.jpg,AMSA14.jpg,AMSA17.jpg,MS,2,num_2,16,num_2,1.23349440843,,,2017_Feb_24_1438,60.006235834,MAFE4ImagesEEG,001,000009,
AFNE01.JPG,AFNE01.JPG,AFNE01.JPG,AFNE01.JPG,AFNE01.JPG,AFNE01.JPG,,,,,,,,,1,8,18,3,,,,,,,,,,,,,,,AMNE07.jpg,AMSA18.jpg,AMSA16.jpg,AMNE03.jpg,AMSA18.jpg,MS,2,num_6,16,num_6,0.683508072048,,,2017_Feb_24_1438,60.006235834,MAFE4ImagesEEG,001,000009,
AFNE01.JPG,AFNE01.JPG,AFNE01.JPG,AFNE01.JPG,AFNE01.JPG,AFNE01.JPG,,,,,,,,,1,9,19,0,,,,,,,,,,,,,,,AMNE13.jpg,AMSA17.jpg,AMNE09.jpg,AMSA05.jpg,AMNE13.jpg,MN,1,num_8,16,num_8,0.683489469346,,,2017_Feb_24_1438,60.006235834,MAFE4ImagesEEG,001,000009,
AFNE01.JPG,AFNE01.JPG,AFNE01.JPG,AFNE01.JPG,AFNE01.JPG,AFNE01.JPG,,,,,,,,,2,0,20,1,,,,,,,,,,,,,,,AMSA17.jpg,AMNE09.jpg,AMNE18.jpg,AMSA16.jpg,AMSA16.jpg,MS,2,num_4,16,num_4,0.617037955206,,,2017_Feb_24_1438,60.006235834,MAFE4ImagesEEG,001,000009,
AFNE01.JPG,AFNE01.JPG,AFNE01.JPG,AFNE01.JPG,AFNE01.JPG,AFNE01.JPG,,,,,,,,,2,1,21,8,,,,,,,,,,,,,,,AMSA13.jpg,AMNE14.jpg,AMSA11.jpg,AMNE08.jpg,AMNE08.jpg,MN,1,num_4,32,num_2,1.03355676075,,,2017_Feb_24_1438,60.006235834,MAFE4ImagesEEG,001,000009,
AFNE01.JPG,AFNE01.JPG,AFNE01.JPG,AFNE01.JPG,AFNE01.JPG,AFNE01.JPG,,,,,,,,,2,2,22,7,,,,,,,,,,,,,,,AMSA18.jpg,AMSA05.jpg,AMNE12.jpg,AMNE18.jpg,AMSA18.jpg,MS,2,num_8,16,num_8,0.666807150468,,,2017_Feb_24_1438,60.006235834,MAFE4ImagesEEG,001,000009,
AFNE01.JPG,AFNE01.JPG,AFNE01.JPG,AFNE01.JPG,AFNE01.JPG,AFNE01.JPG,,,,,,,,,2,3,23,3,,,,,,,,,,,,,,,AMSA09.jpg,AMNE02.jpg,AMSA20.jpg,AMNE08.jpg,AMSA09.jpg,MS,2,num_8,32,num_6,0.733492805157,,,2017_Feb_24_1438,60.006235834,MAFE4ImagesEEG,001,000009,
AFNE01.JPG,AFNE01.JPG,AFNE01.JPG,AFNE01.JPG,AFNE01.JPG,AFNE01.JPG,,,,,,,,,2,4,24,0,,,,,,,,,,,,,,,AMNE04.jpg,AMSA14.jpg,AMSA05.jpg,AMNE01.jpg,AMNE04.jpg,MN,1,num_8,16,num_8,0.98349505011,,,2017_Feb_24_1438,60.006235834,MAFE4ImagesEEG,001,000009,
AFNE01.JPG,AFNE01.JPG,AFNE01.JPG,AFNE01.JPG,AFNE01.JPG,AFNE01.JPG,,,,,,,,,2,5,25,9,,,,,,,,,,,,,,,AMNE08.jpg,AMNE16.jpg,AMSA11.jpg,AMSA09.jpg,AMNE16.jpg,MN,1,num_6,32,num_8,1.13346528541,,,2017_Feb_24_1438,60.006235834,MAFE4ImagesEEG,001,000009,
AFNE01.JPG,AFNE01.JPG,AFNE01.JPG,AFNE01.JPG,AFNE01.JPG,AFNE01.JPG,,,,,,,,,2,6,26,5,,,,,,,,,,,,,,,AMSA16.jpg,AMSA17.jpg,AMNE12.jpg,AMNE05.jpg,AMNE12.jpg,MN,1,num_2,32,num_8,0.966762375087,,,2017_Feb_24_1438,60.006235834,MAFE4ImagesEEG,001,000009,
AFNE01.JPG,AFNE01.JPG,AFNE01.JPG,AFNE01.JPG,AFNE01.JPG,AFNE01.JPG,,,,,,,,,2,7,27,6,,,,,,,,,,,,,,,AMNE18.jpg,AMNE09.jpg,AMSA01.jpg,AMSA13.jpg,AMSA13.jpg,MS,2,num_4,16,num_4,0.666760322638,,,2017_Feb_24_1438,60.006235834,MAFE4ImagesEEG,001,000009,
AFNE01.JPG,AFNE01.JPG,AFNE01.JPG,AFNE01.JPG,AFNE01.JPG,AFNE01.JPG,,,,,,,,,2,8,28,4,,,,,,,,,,,,,,,AMSA17.jpg,AMNE13.jpg,AMSA10.jpg,AMNE07.jpg,AMNE07.jpg,MN,1,num_4,32,num_6,0.883422627114,,,2017_Feb_24_1438,60.006235834,MAFE4ImagesEEG,001,000009,
AFNE01.JPG,AFNE01.JPG,AFNE01.JPG,AFNE01.JPG,AFNE01.JPG,AFNE01.JPG,,,,,,,,,2,9,29,2,,,,,,,,,,,,,,,AMNE08.jpg,AMNE12.jpg,AMSA04.jpg,AMSA03.jpg,AMSA04.jpg,MS,2,num_2,32,num_8,0.400172621943,,,2017_Feb_24_1438,60.006235834,MAFE4ImagesEEG,001,000009,
AFNE01.JPG,AFNE01.JPG,AFNE01.JPG,AFNE01.JPG,AFNE01.JPG,AFNE01.JPG,,,,,,,,,3,0,30,1,,,,,,,,,,,,,,,AMSA06.jpg,AMNE02.jpg,AMNE19.jpg,AMSA14.jpg,AMSA14.jpg,MS,2,num_4,16,num_4,0.416816452052,,,2017_Feb_24_1438,60.006235834,MAFE4ImagesEEG,001,000009,
AFNE01.JPG,AFNE01.JPG,AFNE01.JPG,AFNE01.JPG,AFNE01.JPG,AFNE01.JPG,,,,,,,,,3,1,31,3,,,,,,,,,,,,,,,AMNE16.jpg,AMSA16.jpg,AMSA05.jpg,AMNE07.jpg,AMSA16.jpg,MS,2,num_6,16,num_6,0.683659461793,,,2017_Feb_24_1438,60.006235834,MAFE4ImagesEEG,001,000009,
AFNE01.JPG,AFNE01.JPG,AFNE01.JPG,AFNE01.JPG,AFNE01.JPG,AFNE01.JPG,,,,,,,,,3,2,32,7,,,,,,,,,,,,,,,AMNE10.jpg,AMSA14.jpg,AMNE01.jpg,AMSA10.jpg,AMNE01.jpg,MN,1,num_2,16,num_2,0.633495755959,,,2017_Feb_24_1438,60.006235834,MAFE4ImagesEEG,001,000009,
AFNE01.JPG,AFNE01.JPG,AFNE01.JPG,AFNE01.JPG,AFNE01.JPG,AFNE01.JPG,,,,,,,,,3,3,33,8,,,,,,,,,,,,,,,AMSA09.jpg,AMSA02.jpg,AMNE04.jpg,AMNE13.jpg,AMNE13.jpg,MN,1,num_4,32,num_8,0.600162230432,,,2017_Feb_24_1438,60.006235834,MAFE4ImagesEEG,001,000009,
AFNE01.JPG,AFNE01.JPG,AFNE01.JPG,AFNE01.JPG,AFNE01.JPG,AFNE01.JPG,,,,,,,,,3,4,34,5,,,,,,,,,,,,,,,AMSA07.jpg,AMNE17.jpg,AMSA15.jpg,AMNE19.jpg,AMNE19.jpg,MN,1,num_4,32,num_6,1.20010379143,,,2017_Feb_24_1438,60.006235834,MAFE4ImagesEEG,001,000009,
AFNE01.JPG,AFNE01.JPG,AFNE01.JPG,AFNE01.JPG,AFNE01.JPG,AFNE01.JPG,,,,,,,,,3,5,35,4,,,,,,,,,,,,,,,AMSA19.jpg,AMNE17.jpg,AMNE20.jpg,AMSA06.jpg,AMSA06.jpg,MS,2,num_4,16,num_4,0.550121367909,,,2017_Feb_24_1438,60.006235834,MAFE4ImagesEEG,001,000009,
AFNE01.JPG,AFNE01.JPG,AFNE01.JPG,AFNE01.JPG,AFNE01.JPG,AFNE01.JPG,,,,,,,,,3,6,36,0,,,,,,,,,,,,,,,AMNE11.jpg,AMSA11.jpg,AMSA08.jpg,AMNE04.jpg,AMNE04.jpg,MN,1,num_4,32,num_6,0.433495563921,,,2017_Feb_24_1438,60.006235834,MAFE4ImagesEEG,001,000009,
AFNE01.JPG,AFNE01.JPG,AFNE01.JPG,AFNE01.JPG,AFNE01.JPG,AFNE01.JPG,,,,,,,,,3,7,37,2,,,,,,,,,,,,,,,AMNE19.jpg,AMSA11.jpg,AMNE10.jpg,AMSA01.jpg,AMSA01.jpg,MS,2,num_4,32,num_6,0.500160690863,,,2017_Feb_24_1438,60.006235834,MAFE4ImagesEEG,001,000009,
AFNE01.JPG,AFNE01.JPG,AFNE01.JPG,AFNE01.JPG,AFNE01.JPG,AFNE01.JPG,,,,,,,,,3,8,38,9,,,,,,,,,,,,,,,AMNE12.jpg,AMNE08.jpg,AMSA08.jpg,AMSA11.jpg,AMNE12.jpg,MN,1,num_8,32,num_6,0.733473881613,,,2017_Feb_24_1438,60.006235834,MAFE4ImagesEEG,001,000009,
AFNE01.JPG,AFNE01.JPG,AFNE01.JPG,AFNE01.JPG,AFNE01.JPG,AFNE01.JPG,,,,,,,,,3,9,39,6,,,,,,,,,,,,,,,AMSA04.jpg,AMSA06.jpg,AMNE09.jpg,AMNE10.jpg,AMSA04.jpg,MS,2,num_8,16,num_8,0.633519811556,,,2017_Feb_24_1438,60.006235834,MAFE4ImagesEEG,001,000009,
AFNE01.JPG,AFNE01.JPG,AFNE01.JPG,AFNE01.JPG,AFNE01.JPG,AFNE01.JPG,,,,,,,,,4,0,40,5,,,,,,,,,,,,,,,AMSA04.jpg,AMNE03.jpg,AMNE01.jpg,AMSA15.jpg,AMSA04.jpg,MS,2,num_8,32,num_4,0.666821263265,,,2017_Feb_24_1438,60.006235834,MAFE4ImagesEEG,001,000009,
AFNE01.JPG,AFNE01.JPG,AFNE01.JPG,AFNE01.JPG,AFNE01.JPG,AFNE01.JPG,,,,,,,,,4,1,41,9,,,,,,,,,,,,,,,AMNE20.jpg,AMSA09.jpg,AMSA18.jpg,AMNE16.jpg,AMNE20.jpg,MN,1,num_8,32,num_6,0.550154083408,,,2017_Feb_24_1438,60.006235834,MAFE4ImagesEEG,001,000009,
AFNE01.JPG,AFNE01.JPG,AFNE01.JPG,AFNE01.JPG,AFNE01.JPG,AFNE01.JPG,,,,,,,,,4,2,42,6,,,,,,,,,,,,,,,AMNE03.jpg,AMSA03.jpg,AMSA12.jpg,AMNE11.jpg,AMSA03.jpg,MS,2,num_6,16,num_6,0.433502940461,,,2017_Feb_24_1438,60.006235834,MAFE4ImagesEEG,001,000009,
AFNE01.JPG,AFNE01.JPG,AFNE01.JPG,AFNE01.JPG,AFNE01.JPG,AFNE01.JPG,,,,,,,,,4,3,43,3,,,,,,,,,,,,,,,AMSA14.jpg,AMNE10.jpg,AMSA08.jpg,AMNE17.jpg,AMSA14.jpg,MS,2,num_8,16,num_8,0.400242543314,,,2017_Feb_24_1438,60.006235834,MAFE4ImagesEEG,001,000009,
AFNE01.JPG,AFNE01.JPG,AFNE01.JPG,AFNE01.JPG,AFNE01.JPG,AFNE01.JPG,,,,,,,,,4,4,44,4,,,,,,,,,,,,,,,AMNE18.jpg,AMSA20.jpg,AMSA12.jpg,AMNE19.jpg,AMSA20.jpg,MS,2,num_6,32,num_4,0.283481386956,,,2017_Feb_24_1438,60.006235834,MAFE4ImagesEEG,001,000009,
AFNE01.JPG,AFNE01.JPG,AFNE01.JPG,AFNE01.JPG,AFNE01.JPG,AFNE01.JPG,,,,,,,,,4,5,45,0,,,,,,,,,,,,,,,AMSA03.jpg,AMNE13.jpg,AMSA09.jpg,AMNE12.jpg,AMNE12.jpg,MN,1,num_4,32,num_6,0.783481386956,,,2017_Feb_24_1438,60.006235834,MAFE4ImagesEEG,001,000009,
AFNE01.JPG,AFNE01.JPG,AFNE01.JPG,AFNE01.JPG,AFNE01.JPG,AFNE01.JPG,,,,,,,,,4,6,46,7,,,,,,,,,,,,,,,AMSA03.jpg,AMSA11.jpg,AMNE15.jpg,AMNE03.jpg,AMNE15.jpg,MN,1,num_2,16,num_2,0.916634913534,,,2017_Feb_24_1438,60.006235834,MAFE4ImagesEEG,001,000009,
AFNE01.JPG,AFNE01.JPG,AFNE01.JPG,AFNE01.JPG,AFNE01.JPG,AFNE01.JPG,,,,,,,,,4,7,47,1,,,,,,,,,,,,,,,AMNE01.jpg,AMSA14.jpg,AMSA15.jpg,AMNE15.jpg,AMSA15.jpg,MS,2,num_2,16,num_2,0.516811256297,,,2017_Feb_24_1438,60.006235834,MAFE4ImagesEEG,001,000009,
AFNE01.JPG,AFNE01.JPG,AFNE01.JPG,AFNE01.JPG,AFNE01.JPG,AFNE01.JPG,,,,,,,,,4,8,48,2,,,,,,,,,,,,,,,AMNE05.jpg,AMSA01.jpg,AMNE14.jpg,AMSA17.jpg,AMNE05.jpg,MN,1,num_8,16,num_8,0.700128809083,,,2017_Feb_24_1438,60.006235834,MAFE4ImagesEEG,001,000009,
AFNE01.JPG,AFNE01.JPG,AFNE01.JPG,AFNE01.JPG,AFNE01.JPG,AFNE01.JPG,,,,,,,,,4,9,49,8,,,,,,,,,,,,,,,AMNE06.jpg,AMNE01.jpg,AMSA15.jpg,AMSA03.jpg,AMNE01.jpg,MN,1,num_6,16,num_6,0.583507495001,,,2017_Feb_24_1438,60.006235834,MAFE4ImagesEEG,001,000009,
AFNE01.JPG,AFNE01.JPG,AFNE01.JPG,AFNE01.JPG,AFNE01.JPG,AFNE01.JPG,,,,,,,,,5,0,50,4,,,,,,,,,,,,,,,AMSA04.jpg,AMNE09.jpg,AMSA17.jpg,AMNE14.jpg,AMNE14.jpg,MN,1,num_4,16,num_4,0.650177112315,,,2017_Feb_24_1438,60.006235834,MAFE4ImagesEEG,001,000009,
AFNE01.JPG,AFNE01.JPG,AFNE01.JPG,AFNE01.JPG,AFNE01.JPG,AFNE01.JPG,,,,,,,,,5,1,51,8,,,,,,,,,,,,,,,AMSA13.jpg,AMNE04.jpg,AMNE18.jpg,AMSA10.jpg,AMSA13.jpg,MS,2,num_8,16,num_8,1.16676385049,,,2017_Feb_24_1438,60.006235834,MAFE4ImagesEEG,001,000009,
AFNE01.JPG,AFNE01.JPG,AFNE01.JPG,AFNE01.JPG,AFNE01.JPG,AFNE01.JPG,,,,,,,,,5,2,52,6,,,,,,,,,,,,,,,AMSA07.jpg,AMSA10.jpg,AMNE05.jpg,AMNE08.jpg,AMSA07.jpg,MS,2,num_8,32,num_6,0.633428080007,,,2017_Feb_24_1438,60.006235834,MAFE4ImagesEEG,001,000009,
AFNE01.JPG,AFNE01.JPG,AFNE01.JPG,AFNE01.JPG,AFNE01.JPG,AFNE01.JPG,,,,,,,,,5,3,53,1,,,,,,,,,,,,,,,AMNE09.jpg,AMSA13.jpg,AMNE12.jpg,AMSA10.jpg,AMNE12.jpg,MN,1,num_2,32,num_8,0.650123227853,,,2017_Feb_24_1438,60.006235834,MAFE4ImagesEEG,001,000009,
AFNE01.JPG,AFNE01.JPG,AFNE01.JPG,AFNE01.JPG,AFNE01.JPG,AFNE01.JPG,,,,,,,,,5,4,54,2,,,,,,,,,,,,,,,AMSA08.jpg,AMNE11.jpg,AMSA06.jpg,AMNE02.jpg,AMSA06.jpg,MS,2,num_2,16,num_2,1.11675538355,,,2017_Feb_24_1438,60.006235834,MAFE4ImagesEEG,001,000009,
AFNE01.JPG,AFNE01.JPG,AFNE01.JPG,AFNE01.JPG,AFNE01.JPG,AFNE01.JPG,,,,,,,,,5,5,55,0,,,,,,,,,,,,,,,AMNE11.jpg,AMNE15.jpg,AMSA20.jpg,AMSA18.jpg,AMSA20.jpg,MS,2,num_2,32,num_8,1.05014830967,,,2017_Feb_24_1438,60.006235834,MAFE4ImagesEEG,001,000009,
AFNE01.JPG,AFNE01.JPG,AFNE01.JPG,AFNE01.JPG,AFNE01.JPG,AFNE01.JPG,,,,,,,,,5,6,56,5,,,,,,,,,,,,,,,AMNE10.jpg,AMSA01.jpg,AMSA02.jpg,AMNE18.jpg,AMSA02.jpg,MS,2,num_2,32,num_6,0.550192892551,,,2017_Feb_24_1438,60.006235834,MAFE4ImagesEEG,001,000009,
AFNE01.JPG,AFNE01.JPG,AFNE01.JPG,AFNE01.JPG,AFNE01.JPG,AFNE01.JPG,,,,,,,,,5,7,57,3,,,,,,,,,,,,,,,AMSA09.jpg,AMSA04.jpg,AMNE05.jpg,AMNE18.jpg,AMSA04.jpg,MS,2,num_6,16,num_6,0.366861869115,,,2017_Feb_24_1438,60.006235834,MAFE4ImagesEEG,001,000009,
AFNE01.JPG,AFNE01.JPG,AFNE01.JPG,AFNE01.JPG,AFNE01.JPG,AFNE01.JPG,,,,,,,,,5,8,58,7,,,,,,,,,,,,,,,AMNE15.jpg,AMSA02.jpg,AMSA17.jpg,AMNE19.jpg,AMNE15.jpg,MN,1,num_8,16,num_8,0.550177497789,,,2017_Feb_24_1438,60.006235834,MAFE4ImagesEEG,001,000009,
AFNE01.JPG,AFNE01.JPG,AFNE01.JPG,AFNE01.JPG,AFNE01.JPG,AFNE01.JPG,,,,,,,,,5,9,59,9,,,,,,,,,,,,,,,AMSA19.jpg,AMNE02.jpg,AMSA05.jpg,AMNE19.jpg,AMNE02.jpg,MN,1,num_6,16,num_6,0.90015722625,,,2017_Feb_24_1438,60.006235834,MAFE4ImagesEEG,001,000009,
,,,,,,,,,,,,,,,,,,,,,,,,,,,,,,,,,,,,,,,,,,,space,6.9329948891,2017_Feb_24_1438,60.006235834,MAFE4ImagesEEG,001,000009,
AFNE01.JPG,AFNE01.JPG,AFNE01.JPG,AFNE01.JPG,AFNE01.JPG,AFNE01.JPG,,,,,,,,,,,,,0,0,0,5,,,,,,,,,,,AFNE02.jpg,AFSA13.jpg,AFNE08.jpg,AFSA18.jpg,AFSA13.jpg,FS,4,num_6,16,num_6,0.433514807839,,,2017_Feb_24_1438,60.006235834,MAFE4ImagesEEG,001,000009,
AFNE01.JPG,AFNE01.JPG,AFNE01.JPG,AFNE01.JPG,AFNE01.JPG,AFNE01.JPG,,,,,,,,,,,,,0,1,1,0,,,,,,,,,,,AFNE08.jpg,AFSA15.jpg,AFNE04.jpg,AFSA19.jpg,AFSA19.jpg,FS,4,num_4,16,num_4,0.566820685752,,,2017_Feb_24_1438,60.006235834,MAFE4ImagesEEG,001,000009,
AFNE01.JPG,AFNE01.JPG,AFNE01.JPG,AFNE01.JPG,AFNE01.JPG,AFNE01.JPG,,,,,,,,,,,,,0,2,2,1,,,,,,,,,,,AFNE15.jpg,AFNE17.jpg,AFSA10.jpg,AFSA18.jpg,AFNE15.jpg,FN,3,num_8,16,num_8,0.900130284484,,,2017_Feb_24_1438,60.006235834,MAFE4ImagesEEG,001,000009,
AFNE01.JPG,AFNE01.JPG,AFNE01.JPG,AFNE01.JPG,AFNE01.JPG,AFNE01.JPG,,,,,,,,,,,,,0,3,3,9,,,,,,,,,,,AFNE06.jpg,AFNE19.jpg,AFSA07.jpg,AFSA09.jpg,AFSA07.jpg,FS,4,num_2,16,num_2,0.550176214427,,,2017_Feb_24_1438,60.006235834,MAFE4ImagesEEG,001,000009,
AFNE01.JPG,AFNE01.JPG,AFNE01.JPG,AFNE01.JPG,AFNE01.JPG,AFNE01.JPG,,,,,,,,,,,,,0,4,4,6,,,,,,,,,,,AFNE15.jpg,AFSA10.jpg,AFSA09.jpg,AFNE14.jpg,AFSA09.jpg,FS,4,num_2,32,num_6,0.733359377366,,,2017_Feb_24_1438,60.006235834,MAFE4ImagesEEG,001,000009,
AFNE01.JPG,AFNE01.JPG,AFNE01.JPG,AFNE01.JPG,AFNE01.JPG,AFNE01.JPG,,,,,,,,,,,,,0,5,5,2,,,,,,,,,,,AFNE15.jpg,AFSA14.jpg,AFNE03.jpg,AFSA02.jpg,AFSA14.jpg,FS,4,num_6,32,num_8,0.966804392636,,,2017_Feb_24_1438,60.006235834,MAFE4ImagesEEG,001,000009,
AFNE01.JPG,AFNE01.JPG,AFNE01.JPG,AFNE01.JPG,AFNE01.JPG,AFNE01.JPG,,,,,,,,,,,,,0,6,6,4,,,,,,,,,,,AFNE09.jpg,AFSA13.jpg,AFNE17.jpg,AFSA19.jpg,AFNE17.jpg,FN,3,num_2,32,num_8,0.800132272765,,,2017_Feb_24_1438,60.006235834,MAFE4ImagesEEG,001,000009,
AFNE01.JPG,AFNE01.JPG,AFNE01.JPG,AFNE01.JPG,AFNE01.JPG,AFNE01.JPG,,,,,,,,,,,,,0,7,7,7,,,,,,,,,,,AFSA04.jpg,AFNE08.jpg,AFSA19.jpg,AFNE10.jpg,AFSA19.jpg,FS,4,num_2,16,num_2,1.75005580857,,,2017_Feb_24_1438,60.006235834,MAFE4ImagesEEG,001,000009,
AFNE01.JPG,AFNE01.JPG,AFNE01.JPG,AFNE01.JPG,AFNE01.JPG,AFNE01.JPG,,,,,,,,,,,,,0,8,8,3,,,,,,,,,,,AFSA09.jpg,AFNE16.jpg,AFSA17.jpg,AFNE13.jpg,AFSA09.jpg,FS,4,num_8,16,num_8,0.683504223824,,,2017_Feb_24_1438,60.006235834,MAFE4ImagesEEG,001,000009,
AFNE01.JPG,AFNE01.JPG,AFNE01.JPG,AFNE01.JPG,AFNE01.JPG,AFNE01.JPG,,,,,,,,,,,,,0,9,9,8,,,,,,,,,,,AFSA09.jpg,AFNE11.jpg,AFNE15.jpg,AFSA01.jpg,AFSA01.jpg,FS,4,num_4,16,num_4,0.883449890185,,,2017_Feb_24_1438,60.006235834,MAFE4ImagesEEG,001,000009,
AFNE01.JPG,AFNE01.JPG,AFNE01.JPG,AFNE01.JPG,AFNE01.JPG,AFNE01.JPG,,,,,,,,,,,,,1,0,10,5,,,,,,,,,,,AFNE17.jpg,AFNE12.jpg,AFSA05.jpg,AFSA08.jpg,AFSA08.jpg,FS,4,num_4,16,num_4,0.83341095224,,,2017_Feb_24_1438,60.006235834,MAFE4ImagesEEG,001,000009,
AFNE01.JPG,AFNE01.JPG,AFNE01.JPG,AFNE01.JPG,AFNE01.JPG,AFNE01.JPG,,,,,,,,,,,,,1,1,11,6,,,,,,,,,,,AFSA20.jpg,AFNE20.jpg,AFNE07.jpg,AFSA03.jpg,AFSA20.jpg,FS,4,num_8,16,num_8,0.733530652244,,,2017_Feb_24_1438,60.006235834,MAFE4ImagesEEG,001,000009,
AFNE01.JPG,AFNE01.JPG,AFNE01.JPG,AFNE01.JPG,AFNE01.JPG,AFNE01.JPG,,,,,,,,,,,,,1,2,12,3,,,,,,,,,,,AFNE08.jpg,AFSA05.jpg,AFSA06.jpg,AFNE09.jpg,AFNE08.jpg,FN,3,num_8,32,num_4,0.683498129249,,,2017_Feb_24_1438,60.006235834,MAFE4ImagesEEG,001,000009,
AFNE01.JPG,AFNE01.JPG,AFNE01.JPG,AFNE01.JPG,AFNE01.JPG,AFNE01.JPG,,,,,,,,,,,,,1,3,13,8,,,,,,,,,,,AFSA18.jpg,AFNE16.jpg,AFNE19.jpg,AFSA13.jpg,AFNE16.jpg,FN,3,num_6,16,num_6,0.850179870613,,,2017_Feb_24_1438,60.006235834,MAFE4ImagesEEG,001,000009,
AFNE01.JPG,AFNE01.JPG,AFNE01.JPG,AFNE01.JPG,AFNE01.JPG,AFNE01.JPG,,,,,,,,,,,,,1,4,14,2,,,,,,,,,,,AFNE18.jpg,AFNE10.jpg,AFSA05.jpg,AFSA19.jpg,AFSA19.jpg,FS,4,num_4,16,num_4,0.583453290164,,,2017_Feb_24_1438,60.006235834,MAFE4ImagesEEG,001,000009,
AFNE01.JPG,AFNE01.JPG,AFNE01.JPG,AFNE01.JPG,AFNE01.JPG,AFNE01.JPG,,,,,,,,,,,,,1,5,15,4,,,,,,,,,,,AFSA11.jpg,AFNE09.jpg,AFNE16.jpg,AFSA10.jpg,AFNE16.jpg,FN,3,num_2,16,num_2,1.0501351594,,,2017_Feb_24_1438,60.006235834,MAFE4ImagesEEG,001,000009,
AFNE01.JPG,AFNE01.JPG,AFNE01.JPG,AFNE01.JPG,AFNE01.JPG,AFNE01.JPG,,,,,,,,,,,,,1,6,16,1,,,,,,,,,,,AFNE12.jpg,AFNE13.jpg,AFSA16.jpg,AFSA17.jpg,AFNE13.jpg,FN,3,num_6,16,num_6,0.716840635985,,,2017_Feb_24_1438,60.006235834,MAFE4ImagesEEG,001,000009,
AFNE01.JPG,AFNE01.JPG,AFNE01.JPG,AFNE01.JPG,AFNE01.JPG,AFNE01.JPG,,,,,,,,,,,,,1,7,17,9,,,,,,,,,,,AFNE16.jpg,AFSA05.jpg,AFNE08.jpg,AFSA17.jpg,AFSA05.jpg,FS,4,num_6,16,num_6,1.00014112564,,,2017_Feb_24_1438,60.006235834,MAFE4ImagesEEG,001,000009,
AFNE01.JPG,AFNE01.JPG,AFNE01.JPG,AFNE01.JPG,AFNE01.JPG,AFNE01.JPG,,,,,,,,,,,,,1,8,18,7,,,,,,,,,,,AFNE07.jpg,AFNE09.jpg,AFSA07.jpg,AFSA16.jpg,AFNE09.jpg,FN,3,num_6,16,num_6,0.533493254334,,,2017_Feb_24_1438,60.006235834,MAFE4ImagesEEG,001,000009,
AFNE01.JPG,AFNE01.JPG,AFNE01.JPG,AFNE01.JPG,AFNE01.JPG,AFNE01.JPG,,,,,,,,,,,,,1,9,19,0,,,,,,,,,,,AFNE12.jpg,AFSA15.jpg,AFSA16.jpg,AFNE05.jpg,AFSA16.jpg,FS,4,num_2,16,num_2,0.383497359697,,,2017_Feb_24_1438,60.006235834,MAFE4ImagesEEG,001,000009,
AFNE01.JPG,AFNE01.JPG,AFNE01.JPG,AFNE01.JPG,AFNE01.JPG,AFNE01.JPG,,,,,,,,,,,,,2,0,20,7,,,,,,,,,,,AFNE10.jpg,AFSA08.jpg,AFNE14.jpg,AFSA12.jpg,AFNE14.jpg,FN,3,num_2,32,num_8,0.95014292188,,,2017_Feb_24_1438,60.006235834,MAFE4ImagesEEG,001,000009,
AFNE01.JPG,AFNE01.JPG,AFNE01.JPG,AFNE01.JPG,AFNE01.JPG,AFNE01.JPG,,,,,,,,,,,,,2,1,21,9,,,,,,,,,,,AFSA14.jpg,AFNE19.jpg,AFSA01.jpg,AFNE13.jpg,AFSA14.jpg,FS,4,num_8,32,num_6,0.566797271837,,,2017_Feb_24_1438,60.006235834,MAFE4ImagesEEG,001,000009,
AFNE01.JPG,AFNE01.JPG,AFNE01.JPG,AFNE01.JPG,AFNE01.JPG,AFNE01.JPG,,,,,,,,,,,,,2,2,22,2,,,,,,,,,,,AFSA04.jpg,AFNE17.jpg,AFNE11.jpg,AFSA12.jpg,AFNE11.jpg,FN,3,num_2,32,num_6,0.650181602687,,,2017_Feb_24_1438,60.006235834,MAFE4ImagesEEG,001,000009,
AFNE01.JPG,AFNE01.JPG,AFNE01.JPG,AFNE01.JPG,AFNE01.JPG,AFNE01.JPG,,,,,,,,,,,,,2,3,23,5,,,,,,,,,,,AFSA18.jpg,AFNE11.jpg,AFSA14.jpg,AFNE13.jpg,AFNE11.jpg,FN,3,num_6,32,num_8,0.800186157227,,,2017_Feb_24_1438,60.006235834,MAFE4ImagesEEG,001,000009,
AFNE01.JPG,AFNE01.JPG,AFNE01.JPG,AFNE01.JPG,AFNE01.JPG,AFNE01.JPG,,,,,,,,,,,,,2,4,24,3,,,,,,,,,,,AFNE19.jpg,AFSA19.jpg,AFNE03.jpg,AFSA17.jpg,AFNE19.jpg,FN,3,num_8,32,num_6,0.650011289865,,,2017_Feb_24_1438,60.006235834,MAFE4ImagesEEG,001,000009,
AFNE01.JPG,AFNE01.JPG,AFNE01.JPG,AFNE01.JPG,AFNE01.JPG,AFNE01.JPG,,,,,,,,,,,,,2,5,25,4,,,,,,,,,,,AFSA05.jpg,AFNE04.jpg,AFNE05.jpg,AFSA03.jpg,AFSA05.jpg,FS,4,num_8,16,num_8,1.18345226394,,,2017_Feb_24_1438,60.006235834,MAFE4ImagesEEG,001,000009,
AFNE01.JPG,AFNE01.JPG,AFNE01.JPG,AFNE01.JPG,AFNE01.JPG,AFNE01.JPG,,,,,,,,,,,,,2,6,26,6,,,,,,,,,,,AFSA12.jpg,AFSA10.jpg,AFNE09.jpg,AFNE15.jpg,AFSA10.jpg,FS,4,num_6,32,num_8,1.11680894671,,,2017_Feb_24_1438,60.006235834,MAFE4ImagesEEG,001,000009,
AFNE01.JPG,AFNE01.JPG,AFNE01.JPG,AFNE01.JPG,AFNE01.JPG,AFNE01.JPG,,,,,,,,,,,,,2,7,27,8,,,,,,,,,,,AFNE08.jpg,AFSA06.jpg,AFSA12.jpg,AFNE11.jpg,AFNE11.jpg,FN,3,num_4,32,num_8,0.766810935456,,,2017_Feb_24_1438,60.006235834,MAFE4ImagesEEG,001,000009,
AFNE01.JPG,AFNE01.JPG,AFNE01.JPG,AFNE01.JPG,AFNE01.JPG,AFNE01.JPG,,,,,,,,,,,,,2,8,28,0,,,,,,,,,,,AFNE16.jpg,AFSA13.jpg,AFNE03.jpg,AFSA02.jpg,AFSA02.jpg,FS,4,num_4,16,num_4,1.01683338732,,,2017_Feb_24_1438,60.006235834,MAFE4ImagesEEG,001,000009,
AFNE01.JPG,AFNE01.JPG,AFNE01.JPG,AFNE01.JPG,AFNE01.JPG,AFNE01.JPG,,,,,,,,,,,,,2,9,29,1,,,,,,,,,,,AFSA06.jpg,AFNE05.jpg,AFSA17.jpg,AFNE18.jpg,AFSA06.jpg,FS,4,num_8,32,num_2,1.11676179804,,,2017_Feb_24_1438,60.006235834,MAFE4ImagesEEG,001,000009,
AFNE01.JPG,AFNE01.JPG,AFNE01.JPG,AFNE01.JPG,AFNE01.JPG,AFNE01.JPG,,,,,,,,,,,,,3,0,30,1,,,,,,,,,,,AFSA12.jpg,AFNE20.jpg,AFNE16.jpg,AFSA13.jpg,AFSA12.jpg,FS,4,num_8,16,num_8,0.766815425828,,,2017_Feb_24_1438,60.006235834,MAFE4ImagesEEG,001,000009,
AFNE01.JPG,AFNE01.JPG,AFNE01.JPG,AFNE01.JPG,AFNE01.JPG,AFNE01.JPG,,,,,,,,,,,,,3,1,31,5,,,,,,,,,,,AFSA17.jpg,AFNE08.jpg,AFNE06.jpg,AFSA16.jpg,AFNE08.jpg,FN,3,num_6,16,num_6,0.600155495107,,,2017_Feb_24_1438,60.006235834,MAFE4ImagesEEG,001,000009,
AFNE01.JPG,AFNE01.JPG,AFNE01.JPG,AFNE01.JPG,AFNE01.JPG,AFNE01.JPG,,,,,,,,,,,,,3,2,32,4,,,,,,,,,,,AFNE05.jpg,AFSA13.jpg,AFNE13.jpg,AFSA07.jpg,AFSA13.jpg,FS,4,num_6,32,num_8,0.983453995548,,,2017_Feb_24_1438,60.006235834,MAFE4ImagesEEG,001,000009,
AFNE01.JPG,AFNE01.JPG,AFNE01.JPG,AFNE01.JPG,AFNE01.JPG,AFNE01.JPG,,,,,,,,,,,,,3,3,33,6,,,,,,,,,,,AFNE02.jpg,AFSA10.jpg,AFNE18.jpg,AFSA07.jpg,AFSA07.jpg,FS,4,num_4,16,num_4,0.616812154651,,,2017_Feb_24_1438,60.006235834,MAFE4ImagesEEG,001,000009,
AFNE01.JPG,AFNE01.JPG,AFNE01.JPG,AFNE01.JPG,AFNE01.JPG,AFNE01.JPG,,,,,,,,,,,,,3,4,34,0,,,,,,,,,,,AFNE12.jpg,AFSA18.jpg,AFSA10.jpg,AFNE05.jpg,AFNE12.jpg,FN,3,num_8,32,num_4,0.866795796435,,,2017_Feb_24_1438,60.006235834,MAFE4ImagesEEG,001,000009,
AFNE01.JPG,AFNE01.JPG,AFNE01.JPG,AFNE01.JPG,AFNE01.JPG,AFNE01.JPG,,,,,,,,,,,,,3,5,35,9,,,,,,,,,,,AFNE17.jpg,AFSA01.jpg,AFNE11.jpg,AFSA08.jpg,AFNE11.jpg,FN,3,num_2,16,num_2,0.800155687146,,,2017_Feb_24_1438,60.006235834,MAFE4ImagesEEG,001,000009,
AFNE01.JPG,AFNE01.JPG,AFNE01.JPG,AFNE01.JPG,AFNE01.JPG,AFNE01.JPG,,,,,,,,,,,,,3,6,36,3,,,,,,,,,,,AFSA10.jpg,AFNE05.jpg,AFSA16.jpg,AFNE12.jpg,AFSA16.jpg,FS,4,num_2,16,num_2,0.450190391392,,,2017_Feb_24_1438,60.006235834,MAFE4ImagesEEG,001,000009,
AFNE01.JPG,AFNE01.JPG,AFNE01.JPG,AFNE01.JPG,AFNE01.JPG,AFNE01.JPG,,,,,,,,,,,,,3,7,37,2,,,,,,,,,,,AFSA15.jpg,AFSA09.jpg,AFNE10.jpg,AFNE14.jpg,AFSA09.jpg,FS,4,num_6,16,num_6,0.58348696772,,,2017_Feb_24_1438,60.006235834,MAFE4ImagesEEG,001,000009,
AFNE01.JPG,AFNE01.JPG,AFNE01.JPG,AFNE01.JPG,AFNE01.JPG,AFNE01.JPG,,,,,,,,,,,,,3,8,38,8,,,,,,,,,,,AFSA16.jpg,AFNE18.jpg,AFSA08.jpg,AFNE03.jpg,AFNE18.jpg,FN,3,num_6,32,num_4,0.616790664848,,,2017_Feb_24_1438,60.006235834,MAFE4ImagesEEG,001,000009,
AFNE01.JPG,AFNE01.JPG,AFNE01.JPG,AFNE01.JPG,AFNE01.JPG,AFNE01.JPG,,,,,,,,,,,,,3,9,39,7,,,,,,,,,,,AFSA07.jpg,AFSA17.jpg,AFNE05.jpg,AFNE04.jpg,AFSA17.jpg,FS,4,num_6,16,num_6,0.483491843101,,,2017_Feb_24_1438,60.006235834,MAFE4ImagesEEG,001,000009,
AFNE01.JPG,AFNE01.JPG,AFNE01.JPG,AFNE01.JPG,AFNE01.JPG,AFNE01.JPG,,,,,,,,,,,,,4,0,40,5,,,,,,,,,,,AFNE16.jpg,AFNE14.jpg,AFSA17.jpg,AFSA14.jpg,AFNE14.jpg,FN,3,num_6,32,num_8,1.13344475813,,,2017_Feb_24_1438,60.006235834,MAFE4ImagesEEG,001,000009,
AFNE01.JPG,AFNE01.JPG,AFNE01.JPG,AFNE01.JPG,AFNE01.JPG,AFNE01.JPG,,,,,,,,,,,,,4,1,41,1,,,,,,,,,,,AFNE12.jpg,AFNE17.jpg,AFSA01.jpg,AFSA13.jpg,AFNE17.jpg,FN,3,num_6,16,num_6,0.800127782859,,,2017_Feb_24_1438,60.006235834,MAFE4ImagesEEG,001,000009,
AFNE01.JPG,AFNE01.JPG,AFNE01.JPG,AFNE01.JPG,AFNE01.JPG,AFNE01.JPG,,,,,,,,,,,,,4,2,42,8,,,,,,,,,,,AFNE12.jpg,AFSA03.jpg,AFNE09.jpg,AFSA11.jpg,AFNE09.jpg,FN,3,num_2,32,num_8,0.933475036174,,,2017_Feb_24_1438,60.006235834,MAFE4ImagesEEG,001,000009,
AFNE01.JPG,AFNE01.JPG,AFNE01.JPG,AFNE01.JPG,AFNE01.JPG,AFNE01.JPG,,,,,,,,,,,,,4,3,43,3,,,,,,,,,,,AFSA20.jpg,AFSA09.jpg,AFNE09.jpg,AFNE20.jpg,AFSA20.jpg,FS,4,num_8,32,num_6,0.599988389295,,,2017_Feb_24_1438,60.006235834,MAFE4ImagesEEG,001,000009,
AFNE01.JPG,AFNE01.JPG,AFNE01.JPG,AFNE01.JPG,AFNE01.JPG,AFNE01.JPG,,,,,,,,,,,,,4,4,44,7,,,,,,,,,,,AFNE03.jpg,AFSA03.jpg,AFNE05.jpg,AFSA02.jpg,AFSA02.jpg,FS,4,num_4,16,num_4,0.500182500575,,,2017_Feb_24_1438,60.006235834,MAFE4ImagesEEG,001,000009,
AFNE01.JPG,AFNE01.JPG,AFNE01.JPG,AFNE01.JPG,AFNE01.JPG,AFNE01.JPG,,,,,,,,,,,,,4,5,45,9,,,,,,,,,,,AFSA20.jpg,AFNE20.jpg,AFSA10.jpg,AFNE03.jpg,AFSA10.jpg,FS,4,num_2,32,num_8,0.700144525152,,,2017_Feb_24_1438,60.006235834,MAFE4ImagesEEG,001,000009,
AFNE01.JPG,AFNE01.JPG,AFNE01.JPG,AFNE01.JPG,AFNE01.JPG,AFNE01.JPG,,,,,,,,,,,,,4,6,46,2,,,,,,,,,,,AFSA19.jpg,AFNE08.jpg,AFSA02.jpg,AFNE01.jpg,AFNE01.jpg,FN,3,num_4,16,num_4,0.600137853995,,,2017_Feb_24_1438,60.006235834,MAFE4ImagesEEG,001,000009,
AFNE01.JPG,AFNE01.JPG,AFNE01.JPG,AFNE01.JPG,AFNE01.JPG,AFNE01.JPG,,,,,,,,,,,,,4,7,47,4,,,,,,,,,,,AFSA18.jpg,AFNE03.jpg,AFSA04.jpg,AFNE01.jpg,AFSA18.jpg,FS,4,num_8,16,num_8,0.766767956316,,,2017_Feb_24_1438,60.006235834,MAFE4ImagesEEG,001,000009,
AFNE01.JPG,AFNE01.JPG,AFNE01.JPG,AFNE01.JPG,AFNE01.JPG,AFNE01.JPG,,,,,,,,,,,,,4,8,48,0,,,,,,,,,,,AFSA12.jpg,AFNE20.jpg,AFNE19.jpg,AFSA19.jpg,AFNE20.jpg,FN,3,num_6,32,num_8,0.76678046491,,,2017_Feb_24_1438,60.006235834,MAFE4ImagesEEG,001,000009,
AFNE01.JPG,AFNE01.JPG,AFNE01.JPG,AFNE01.JPG,AFNE01.JPG,AFNE01.JPG,,,,,,,,,,,,,4,9,49,6,,,,,,,,,,,AFNE20.jpg,AFNE14.jpg,AFSA10.jpg,AFSA14.jpg,AFSA10.jpg,FS,4,num_2,16,num_2,1.18344969768,,,2017_Feb_24_1438,60.006235834,MAFE4ImagesEEG,001,000009,
AFNE01.JPG,AFNE01.JPG,AFNE01.JPG,AFNE01.JPG,AFNE01.JPG,AFNE01.JPG,,,,,,,,,,,,,5,0,50,0,,,,,,,,,,,AFNE17.jpg,AFSA03.jpg,AFSA05.jpg,AFNE09.jpg,AFSA03.jpg,FS,4,num_6,16,num_6,2.56665614666,,,2017_Feb_24_1438,60.006235834,MAFE4ImagesEEG,001,000009,
AFNE01.JPG,AFNE01.JPG,AFNE01.JPG,AFNE01.JPG,AFNE01.JPG,AFNE01.JPG,,,,,,,,,,,,,5,1,51,2,,,,,,,,,,,AFNE09.jpg,AFSA03.jpg,AFNE01.jpg,AFSA06.jpg,AFNE01.jpg,FN,3,num_2,32,num_8,0.900164924562,,,2017_Feb_24_1438,60.006235834,MAFE4ImagesEEG,001,000009,
AFNE01.JPG,AFNE01.JPG,AFNE01.JPG,AFNE01.JPG,AFNE01.JPG,AFNE01.JPG,,,,,,,,,,,,,5,2,52,9,,,,,,,,,,,AFSA17.jpg,AFSA11.jpg,AFNE08.jpg,AFNE17.jpg,AFNE08.jpg,FN,3,num_2,32,num_8,0.300043748692,,,2017_Feb_24_1438,60.006235834,MAFE4ImagesEEG,001,000009,
AFNE01.JPG,AFNE01.JPG,AFNE01.JPG,AFNE01.JPG,AFNE01.JPG,AFNE01.JPG,,,,,,,,,,,,,5,3,53,3,,,,,,,,,,,AFNE17.jpg,AFSA14.jpg,AFSA20.jpg,AFNE20.jpg,AFSA14.jpg,FS,4,num_6,16,num_6,0.900161717087,,,2017_Feb_24_1438,60.006235834,MAFE4ImagesEEG,001,000009,
AFNE01.JPG,AFNE01.JPG,AFNE01.JPG,AFNE01.JPG,AFNE01.JPG,AFNE01.JPG,,,,,,,,,,,,,5,4,54,1,,,,,,,,,,,AFSA15.jpg,AFSA12.jpg,AFNE19.jpg,AFNE11.jpg,AFNE11.jpg,FN,3,num_4,16,num_4,0.850170248654,,,2017_Feb_24_1438,60.006235834,MAFE4ImagesEEG,001,000009,
AFNE01.JPG,AFNE01.JPG,AFNE01.JPG,AFNE01.JPG,AFNE01.JPG,AFNE01.JPG,,,,,,,,,,,,,5,5,55,4,,,,,,,,,,,AFNE10.jpg,AFSA19.jpg,AFNE04.jpg,AFSA07.jpg,AFSA07.jpg,FS,4,num_4,16,num_4,0.550173969474,,,2017_Feb_24_1438,60.006235834,MAFE4ImagesEEG,001,000009,
AFNE01.JPG,AFNE01.JPG,AFNE01.JPG,AFNE01.JPG,AFNE01.JPG,AFNE01.JPG,,,,,,,,,,,,,5,6,56,5,,,,,,,,,,,AFNE16.jpg,AFSA03.jpg,AFSA09.jpg,AFNE04.jpg,AFNE04.jpg,FN,3,num_4,16,num_4,0.883406269364,,,2017_Feb_24_1438,60.006235834,MAFE4ImagesEEG,001,000009,
AFNE01.JPG,AFNE01.JPG,AFNE01.JPG,AFNE01.JPG,AFNE01.JPG,AFNE01.JPG,,,,,,,,,,,,,5,7,57,6,,,,,,,,,,,AFSA01.jpg,AFNE07.jpg,AFSA17.jpg,AFNE09.jpg,AFSA01.jpg,FS,4,num_8,32,num_2,0.583498193417,,,2017_Feb_24_1438,60.006235834,MAFE4ImagesEEG,001,000009,
AFNE01.JPG,AFNE01.JPG,AFNE01.JPG,AFNE01.JPG,AFNE01.JPG,AFNE01.JPG,,,,,,,,,,,,,5,8,58,7,,,,,,,,,,,AFSA02.jpg,AFNE14.jpg,AFNE12.jpg,AFSA10.jpg,AFNE14.jpg,FN,3,num_6,16,num_6,0.566830629017,,,2017_Feb_24_1438,60.006235834,MAFE4ImagesEEG,001,000009,
AFNE01.JPG,AFNE01.JPG,AFNE01.JPG,AFNE01.JPG,AFNE01.JPG,AFNE01.JPG,,,,,,,,,,,,,5,9,59,8,,,,,,,,,,,AFNE16.jpg,AFNE08.jpg,AFSA16.jpg,AFSA01.jpg,AFSA16.jpg,FS,4,num_2,32,num_4,0.91673466377,,,2017_Feb_24_1438,60.006235834,MAFE4ImagesEEG,001,000009,
,,,,,,,,,,,,,,,,,,,,,,,,,,,,,,,,,,,,,,,,,,,space,9.61581529491,2017_Feb_24_1438,60.006235834,MAFE4ImagesEEG,001,000009,
AFNE01.JPG,AFNE01.JPG,AFNE01.JPG,AFNE01.JPG,AFNE01.JPG,AFNE01.JPG,,,,,,,,,,,,,,,,,0,0,0,9,,,,,,,AMSA11.jpg,AMSA09.jpg,AMNE10.jpg,AMNE01.jpg,AMSA11.jpg,MS,2,num_8,16,num_8,2.31666256115,,,2017_Feb_24_1438,60.006235834,MAFE4ImagesEEG,001,000009,
AFNE01.JPG,AFNE01.JPG,AFNE01.JPG,AFNE01.JPG,AFNE01.JPG,AFNE01.JPG,,,,,,,,,,,,,,,,,0,1,1,2,,,,,,,AMSA07.jpg,AMNE10.jpg,AMNE19.jpg,AMSA20.jpg,AMSA07.jpg,MS,2,num_8,32,num_2,1.06679085735,,,2017_Feb_24_1438,60.006235834,MAFE4ImagesEEG,001,000009,
AFNE01.JPG,AFNE01.JPG,AFNE01.JPG,AFNE01.JPG,AFNE01.JPG,AFNE01.JPG,,,,,,,,,,,,,,,,,0,2,2,7,,,,,,,AMNE13.jpg,AMSA10.jpg,AMSA09.jpg,AMNE04.jpg,AMNE04.jpg,MN,1,num_4,16,num_4,0.600221567322,,,2017_Feb_24_1438,60.006235834,MAFE4ImagesEEG,001,000009,
AFNE01.JPG,AFNE01.JPG,AFNE01.JPG,AFNE01.JPG,AFNE01.JPG,AFNE01.JPG,,,,,,,,,,,,,,,,,0,3,3,1,,,,,,,AMSA20.jpg,AMSA12.jpg,AMNE19.jpg,AMNE16.jpg,AMNE16.jpg,MN,1,num_4,16,num_4,0.650195074268,,,2017_Feb_24_1438,60.006235834,MAFE4ImagesEEG,001,000009,
AFNE01.JPG,AFNE01.JPG,AFNE01.JPG,AFNE01.JPG,AFNE01.JPG,AFNE01.JPG,,,,,,,,,,,,,,,,,0,4,4,4,,,,,,,AMNE13.jpg,AMSA03.jpg,AMSA13.jpg,AMNE20.jpg,AMSA03.jpg,MS,2,num_6,16,num_6,0.650165886618,,,2017_Feb_24_1438,60.006235834,MAFE4ImagesEEG,001,000009,
AFNE01.JPG,AFNE01.JPG,AFNE01.JPG,AFNE01.JPG,AFNE01.JPG,AFNE01.JPG,,,,,,,,,,,,,,,,,0,5,5,0,,,,,,,AMSA08.jpg,AMSA11.jpg,AMNE11.jpg,AMNE08.jpg,AMSA08.jpg,MS,2,num_8,16,num_8,0.783448671456,,,2017_Feb_24_1438,60.006235834,MAFE4ImagesEEG,001,000009,
AFNE01.JPG,AFNE01.JPG,AFNE01.JPG,AFNE01.JPG,AFNE01.JPG,AFNE01.JPG,,,,,,,,,,,,,,,,,0,6,6,6,,,,,,,AMNE07.jpg,AMSA13.jpg,AMSA07.jpg,AMNE12.jpg,AMSA13.jpg,MS,2,num_6,32,num_8,0.75021553738,,,2017_Feb_24_1438,60.006235834,MAFE4ImagesEEG,001,000009,
AFNE01.JPG,AFNE01.JPG,AFNE01.JPG,AFNE01.JPG,AFNE01.JPG,AFNE01.JPG,,,,,,,,,,,,,,,,,0,7,7,8,,,,,,,AMSA04.jpg,AMNE13.jpg,AMSA11.jpg,AMNE01.jpg,AMSA11.jpg,MS,2,num_2,16,num_2,0.900121945422,,,2017_Feb_24_1438,60.006235834,MAFE4ImagesEEG,001,000009,
AFNE01.JPG,AFNE01.JPG,AFNE01.JPG,AFNE01.JPG,AFNE01.JPG,AFNE01.JPG,,,,,,,,,,,,,,,,,0,8,8,5,,,,,,,AMSA01.jpg,AMNE20.jpg,AMNE04.jpg,AMSA06.jpg,AMSA06.jpg,MS,2,num_4,16,num_4,0.666806830093,,,2017_Feb_24_1438,60.006235834,MAFE4ImagesEEG,001,000009,
AFNE01.JPG,AFNE01.JPG,AFNE01.JPG,AFNE01.JPG,AFNE01.JPG,AFNE01.JPG,,,,,,,,,,,,,,,,,0,9,9,3,,,,,,,AMNE18.jpg,AMSA18.jpg,AMSA11.jpg,AMNE09.jpg,AMSA18.jpg,MS,2,num_6,32,num_2,1.11650841357,,,2017_Feb_24_1438,60.006235834,MAFE4ImagesEEG,001,000009,
AFNE01.JPG,AFNE01.JPG,AFNE01.JPG,AFNE01.JPG,AFNE01.JPG,AFNE01.JPG,,,,,,,,,,,,,,,,,1,0,10,2,,,,,,,AMNE19.jpg,AMNE16.jpg,AMSA15.jpg,AMSA13.jpg,AMSA15.jpg,MS,2,num_2,16,num_2,0.400100135244,,,2017_Feb_24_1438,60.006235834,MAFE4ImagesEEG,001,000009,
AFNE01.JPG,AFNE01.JPG,AFNE01.JPG,AFNE01.JPG,AFNE01.JPG,AFNE01.JPG,,,,,,,,,,,,,,,,,1,1,11,8,,,,,,,AMSA20.jpg,AMNE10.jpg,AMSA07.jpg,AMNE07.jpg,AMNE10.jpg,MN,1,num_6,16,num_6,0.516880535986,,,2017_Feb_24_1438,60.006235834,MAFE4ImagesEEG,001,000009,
AFNE01.JPG,AFNE01.JPG,AFNE01.JPG,AFNE01.JPG,AFNE01.JPG,AFNE01.JPG,,,,,,,,,,,,,,,,,1,2,12,3,,,,,,,AMNE16.jpg,AMSA05.jpg,AMSA06.jpg,AMNE15.jpg,AMSA05.jpg,MS,2,num_6,16,num_6,0.550170120317,,,2017_Feb_24_1438,60.006235834,MAFE4ImagesEEG,001,000009,
AFNE01.JPG,AFNE01.JPG,AFNE01.JPG,AFNE01.JPG,AFNE01.JPG,AFNE01.JPG,,,,,,,,,,,,,,,,,1,3,13,0,,,,,,,AMSA09.jpg,AMNE16.jpg,AMNE05.jpg,AMSA03.jpg,AMSA03.jpg,MS,2,num_4,16,num_4,0.566786687821,,,2017_Feb_24_1438,60.006235834,MAFE4ImagesEEG,001,000009,
AFNE01.JPG,AFNE01.JPG,AFNE01.JPG,AFNE01.JPG,AFNE01.JPG,AFNE01.JPG,,,,,,,,,,,,,,,,,1,4,14,6,,,,,,,AMNE03.jpg,AMSA12.jpg,AMNE18.jpg,AMSA07.jpg,AMSA07.jpg,MS,2,num_4,16,num_4,0.483519426547,,,2017_Feb_24_1438,60.006235834,MAFE4ImagesEEG,001,000009,
AFNE01.JPG,AFNE01.JPG,AFNE01.JPG,AFNE01.JPG,AFNE01.JPG,AFNE01.JPG,,,,,,,,,,,,,,,,,1,5,15,4,,,,,,,AMSA06.jpg,AMNE14.jpg,AMNE04.jpg,AMSA07.jpg,AMSA07.jpg,MS,2,num_4,16,num_4,0.816782517824,,,2017_Feb_24_1438,60.006235834,MAFE4ImagesEEG,001,000009,
AFNE01.JPG,AFNE01.JPG,AFNE01.JPG,AFNE01.JPG,AFNE01.JPG,AFNE01.JPG,,,,,,,,,,,,,,,,,1,6,16,7,,,,,,,AMSA11.jpg,AMNE04.jpg,AMNE15.jpg,AMSA05.jpg,AMNE04.jpg,MN,1,num_6,16,num_6,0.583501401357,,,2017_Feb_24_1438,60.006235834,MAFE4ImagesEEG,001,000009,
AFNE01.JPG,AFNE01.JPG,AFNE01.JPG,AFNE01.JPG,AFNE01.JPG,AFNE01.JPG,,,,,,,,,,,,,,,,,1,7,17,1,,,,,,,AMSA02.jpg,AMNE06.jpg,AMSA16.jpg,AMNE10.jpg,AMNE10.jpg,MN,1,num_4,16,num_4,0.950177561492,,,2017_Feb_24_1438,60.006235834,MAFE4ImagesEEG,001,000009,
AFNE01.JPG,AFNE01.JPG,AFNE01.JPG,AFNE01.JPG,AFNE01.JPG,AFNE01.JPG,,,,,,,,,,,,,,,,,1,8,18,5,,,,,,,AMSA14.jpg,AMSA01.jpg,AMNE10.jpg,AMNE18.jpg,AMSA01.jpg,MS,2,num_6,16,num_6,0.983442449011,,,2017_Feb_24_1438,60.006235834,MAFE4ImagesEEG,001,000009,
AFNE01.JPG,AFNE01.JPG,AFNE01.JPG,AFNE01.JPG,AFNE01.JPG,AFNE01.JPG,,,,,,,,,,,,,,,,,1,9,19,9,,,,,,,AMNE15.jpg,AMNE13.jpg,AMSA07.jpg,AMSA15.jpg,AMSA07.jpg,MS,2,num_2,32,num_4,1.25010937266,,,2017_Feb_24_1438,60.006235834,MAFE4ImagesEEG,001,000009,
AFNE01.JPG,AFNE01.JPG,AFNE01.JPG,AFNE01.JPG,AFNE01.JPG,AFNE01.JPG,,,,,,,,,,,,,,,,,2,0,20,8,,,,,,,AMNE01.jpg,AMSA03.jpg,AMNE05.jpg,AMSA02.jpg,AMNE01.jpg,MN,1,num_8,16,num_8,1.05013259361,,,2017_Feb_24_1438,60.006235834,MAFE4ImagesEEG,001,000009,
AFNE01.JPG,AFNE01.JPG,AFNE01.JPG,AFNE01.JPG,AFNE01.JPG,AFNE01.JPG,,,,,,,,,,,,,,,,,2,1,21,9,,,,,,,AMSA10.jpg,AMNE15.jpg,AMSA15.jpg,AMNE09.jpg,AMNE09.jpg,MN,1,num_4,32,num_6,0.849999935832,,,2017_Feb_24_1438,60.006235834,MAFE4ImagesEEG,001,000009,
AFNE01.JPG,AFNE01.JPG,AFNE01.JPG,AFNE01.JPG,AFNE01.JPG,AFNE01.JPG,,,,,,,,,,,,,,,,,2,2,22,5,,,,,,,AMNE05.jpg,AMSA13.jpg,AMNE19.jpg,AMSA08.jpg,AMSA08.jpg,MS,2,num_4,16,num_4,0.666606688406,,,2017_Feb_24_1438,60.006235834,MAFE4ImagesEEG,001,000009,
AFNE01.JPG,AFNE01.JPG,AFNE01.JPG,AFNE01.JPG,AFNE01.JPG,AFNE01.JPG,,,,,,,,,,,,,,,,,2,3,23,6,,,,,,,AMNE17.jpg,AMSA10.jpg,AMNE05.jpg,AMSA17.jpg,AMNE05.jpg,MN,1,num_2,32,num_6,0.783442256507,,,2017_Feb_24_1438,60.006235834,MAFE4ImagesEEG,001,000009,
AFNE01.JPG,AFNE01.JPG,AFNE01.JPG,AFNE01.JPG,AFNE01.JPG,AFNE01.JPG,,,,,,,,,,,,,,,,,2,4,24,1,,,,,,,AMNE20.jpg,AMSA01.jpg,AMSA05.jpg,AMNE11.jpg,AMSA01.jpg,MS,2,num_6,16,num_6,0.400128039531,,,2017_Feb_24_1438,60.006235834,MAFE4ImagesEEG,001,000009,
AFNE01.JPG,AFNE01.JPG,AFNE01.JPG,AFNE01.JPG,AFNE01.JPG,AFNE01.JPG,,,,,,,,,,,,,,,,,2,5,25,4,,,,,,,AMSA16.jpg,AMSA06.jpg,AMNE19.jpg,AMNE07.jpg,AMSA06.jpg,MS,2,num_6,16,num_6,0.583508136682,,,2017_Feb_24_1438,60.006235834,MAFE4ImagesEEG,001,000009,
AFNE01.JPG,AFNE01.JPG,AFNE01.JPG,AFNE01.JPG,AFNE01.JPG,AFNE01.JPG,,,,,,,,,,,,,,,,,2,6,26,3,,,,,,,AMNE05.jpg,AMSA15.jpg,AMNE09.jpg,AMSA08.jpg,AMSA08.jpg,MS,2,num_4,16,num_4,0.650177433155,,,2017_Feb_24_1438,60.006235834,MAFE4ImagesEEG,001,000009,
AFNE01.JPG,AFNE01.JPG,AFNE01.JPG,AFNE01.JPG,AFNE01.JPG,AFNE01.JPG,,,,,,,,,,,,,,,,,2,7,27,0,,,,,,,AMSA20.jpg,AMNE14.jpg,AMNE07.jpg,AMSA08.jpg,AMNE07.jpg,MN,1,num_2,32,num_8,0.850139136892,,,2017_Feb_24_1438,60.006235834,MAFE4ImagesEEG,001,000009,
AFNE01.JPG,AFNE01.JPG,AFNE01.JPG,AFNE01.JPG,AFNE01.JPG,AFNE01.JPG,,,,,,,,,,,,,,,,,2,8,28,7,,,,,,,AMNE13.jpg,AMSA03.jpg,AMSA15.jpg,AMNE04.jpg,AMSA15.jpg,MS,2,num_2,16,num_2,1.48346073134,,,2017_Feb_24_1438,60.006235834,MAFE4ImagesEEG,001,000009,
AFNE01.JPG,AFNE01.JPG,AFNE01.JPG,AFNE01.JPG,AFNE01.JPG,AFNE01.JPG,,,,,,,,,,,,,,,,,2,9,29,2,,,,,,,AMSA06.jpg,AMNE09.jpg,AMSA13.jpg,AMNE10.jpg,AMSA13.jpg,MS,2,num_2,16,num_2,0.500286741182,,,2017_Feb_24_1438,60.006235834,MAFE4ImagesEEG,001,000009,
AFNE01.JPG,AFNE01.JPG,AFNE01.JPG,AFNE01.JPG,AFNE01.JPG,AFNE01.JPG,,,,,,,,,,,,,,,,,3,0,30,7,,,,,,,AMSA07.jpg,AMSA03.jpg,AMNE05.jpg,AMNE10.jpg,AMSA03.jpg,MS,2,num_6,16,num_6,0.400192508008,,,2017_Feb_24_1438,60.006235834,MAFE4ImagesEEG,001,000009,
AFNE01.JPG,AFNE01.JPG,AFNE01.JPG,AFNE01.JPG,AFNE01.JPG,AFNE01.JPG,,,,,,,,,,,,,,,,,3,1,31,6,,,,,,,AMSA10.jpg,AMNE14.jpg,AMSA15.jpg,AMNE03.jpg,AMNE14.jpg,MN,1,num_6,16,num_6,0.533562213182,,,2017_Feb_24_1438,60.006235834,MAFE4ImagesEEG,001,000009,
AFNE01.JPG,AFNE01.JPG,AFNE01.JPG,AFNE01.JPG,AFNE01.JPG,AFNE01.JPG,,,,,,,,,,,,,,,,,3,2,32,2,,,,,,,AMSA09.jpg,AMNE05.jpg,AMSA03.jpg,AMNE02.jpg,AMNE02.jpg,MN,1,num_4,32,num_2,0.966635683086,,,2017_Feb_24_1438,60.006235834,MAFE4ImagesEEG,001,000009,
AFNE01.JPG,AFNE01.JPG,AFNE01.JPG,AFNE01.JPG,AFNE01.JPG,AFNE01.JPG,,,,,,,,,,,,,,,,,3,3,33,4,,,,,,,AMSA05.jpg,AMNE20.jpg,AMSA04.jpg,AMNE07.jpg,AMNE07.jpg,MN,1,num_4,32,num_8,1.28343135118,,,2017_Feb_24_1438,60.006235834,MAFE4ImagesEEG,001,000009,
AFNE01.JPG,AFNE01.JPG,AFNE01.JPG,AFNE01.JPG,AFNE01.JPG,AFNE01.JPG,,,,,,,,,,,,,,,,,3,4,34,1,,,,,,,AMSA17.jpg,AMNE16.jpg,AMSA02.jpg,AMNE17.jpg,AMNE17.jpg,MN,1,num_4,16,num_4,0.950096093584,,,2017_Feb_24_1438,60.006235834,MAFE4ImagesEEG,001,000009,
AFNE01.JPG,AFNE01.JPG,AFNE01.JPG,AFNE01.JPG,AFNE01.JPG,AFNE01.JPG,,,,,,,,,,,,,,,,,3,5,35,0,,,,,,,AMSA03.jpg,AMNE20.jpg,AMNE05.jpg,AMSA11.jpg,AMSA11.jpg,MS,2,num_4,16,num_4,0.766820557415,,,2017_Feb_24_1438,60.006235834,MAFE4ImagesEEG,001,000009,
AFNE01.JPG,AFNE01.JPG,AFNE01.JPG,AFNE01.JPG,AFNE01.JPG,AFNE01.JPG,,,,,,,,,,,,,,,,,3,6,36,9,,,,,,,AMNE02.jpg,AMSA09.jpg,AMSA19.jpg,AMNE16.jpg,AMSA19.jpg,MS,2,num_2,32,num_6,0.666783095337,,,2017_Feb_24_1438,60.006235834,MAFE4ImagesEEG,001,000009,
AFNE01.JPG,AFNE01.JPG,AFNE01.JPG,AFNE01.JPG,AFNE01.JPG,AFNE01.JPG,,,,,,,,,,,,,,,,,3,7,37,3,,,,,,,AMSA15.jpg,AMNE11.jpg,AMSA01.jpg,AMNE07.jpg,AMSA01.jpg,MS,2,num_2,32,num_6,0.766804520972,,,2017_Feb_24_1438,60.006235834,MAFE4ImagesEEG,001,000009,
AFNE01.JPG,AFNE01.JPG,AFNE01.JPG,AFNE01.JPG,AFNE01.JPG,AFNE01.JPG,,,,,,,,,,,,,,,,,3,8,38,8,,,,,,,AMSA02.jpg,AMNE15.jpg,AMSA16.jpg,AMNE13.jpg,AMSA02.jpg,MS,2,num_8,32,num_2,0.916797207668,,,2017_Feb_24_1438,60.006235834,MAFE4ImagesEEG,001,000009,
AFNE01.JPG,AFNE01.JPG,AFNE01.JPG,AFNE01.JPG,AFNE01.JPG,AFNE01.JPG,,,,,,,,,,,,,,,,,3,9,39,5,,,,,,,AMSA15.jpg,AMNE04.jpg,AMSA09.jpg,AMNE11.jpg,AMSA09.jpg,MS,2,num_2,32,num_4,0.750130541157,,,2017_Feb_24_1438,60.006235834,MAFE4ImagesEEG,001,000009,
AFNE01.JPG,AFNE01.JPG,AFNE01.JPG,AFNE01.JPG,AFNE01.JPG,AFNE01.JPG,,,,,,,,,,,,,,,,,4,0,40,8,,,,,,,AMSA07.jpg,AMSA05.jpg,AMNE15.jpg,AMNE01.jpg,AMNE15.jpg,MN,1,num_2,32,num_8,1.30009442568,,,2017_Feb_24_1438,60.006235834,MAFE4ImagesEEG,001,000009,
AFNE01.JPG,AFNE01.JPG,AFNE01.JPG,AFNE01.JPG,AFNE01.JPG,AFNE01.JPG,,,,,,,,,,,,,,,,,4,1,41,4,,,,,,,AMNE19.jpg,AMSA12.jpg,AMNE13.jpg,AMSA10.jpg,AMNE19.jpg,MN,1,num_8,16,num_8,0.56675685849,,,2017_Feb_24_1438,60.006235834,MAFE4ImagesEEG,001,000009,
AFNE01.JPG,AFNE01.JPG,AFNE01.JPG,AFNE01.JPG,AFNE01.JPG,AFNE01.JPG,,,,,,,,,,,,,,,,,4,2,42,1,,,,,,,AMSA13.jpg,AMSA09.jpg,AMNE10.jpg,AMNE11.jpg,AMNE10.jpg,MN,1,num_2,16,num_2,0.616794513538,,,2017_Feb_24_1438,60.006235834,MAFE4ImagesEEG,001,000009,
AFNE01.JPG,AFNE01.JPG,AFNE01.JPG,AFNE01.JPG,AFNE01.JPG,AFNE01.JPG,,,,,,,,,,,,,,,,,4,3,43,2,,,,,,,AMSA18.jpg,AMNE05.jpg,AMNE08.jpg,AMSA14.jpg,AMNE05.jpg,MN,1,num_6,32,num_8,0.783431351185,,,2017_Feb_24_1438,60.006235834,MAFE4ImagesEEG,001,000009,
AFNE01.JPG,AFNE01.JPG,AFNE01.JPG,AFNE01.JPG,AFNE01.JPG,AFNE01.JPG,,,,,,,,,,,,,,,,,4,4,44,0,,,,,,,AMSA01.jpg,AMSA05.jpg,AMNE20.jpg,AMNE18.jpg,AMSA01.jpg,MS,2,num_8,16,num_8,0.650149849709,,,2017_Feb_24_1438,60.006235834,MAFE4ImagesEEG,001,000009,
AFNE01.JPG,AFNE01.JPG,AFNE01.JPG,AFNE01.JPG,AFNE01.JPG,AFNE01.JPG,,,,,,,,,,,,,,,,,4,5,45,9,,,,,,,AMNE18.jpg,AMSA16.jpg,AMSA02.jpg,AMNE11.jpg,AMNE11.jpg,MN,1,num_4,32,num_8,0.833497872576,,,2017_Feb_24_1438,60.006235834,MAFE4ImagesEEG,001,000009,
AFNE01.JPG,AFNE01.JPG,AFNE01.JPG,AFNE01.JPG,AFNE01.JPG,AFNE01.JPG,,,,,,,,,,,,,,,,,4,6,46,7,,,,,,,AMNE11.jpg,AMSA10.jpg,AMSA17.jpg,AMNE19.jpg,AMNE19.jpg,MN,1,num_4,16,num_4,0.600222528912,,,2017_Feb_24_1438,60.006235834,MAFE4ImagesEEG,001,000009,
AFNE01.JPG,AFNE01.JPG,AFNE01.JPG,AFNE01.JPG,AFNE01.JPG,AFNE01.JPG,,,,,,,,,,,,,,,,,4,7,47,6,,,,,,,AMNE04.jpg,AMNE20.jpg,AMSA05.jpg,AMSA15.jpg,AMSA05.jpg,MS,2,num_2,16,num_2,0.733473881613,,,2017_Feb_24_1438,60.006235834,MAFE4ImagesEEG,001,000009,
AFNE01.JPG,AFNE01.JPG,AFNE01.JPG,AFNE01.JPG,AFNE01.JPG,AFNE01.JPG,,,,,,,,,,,,,,,,,4,8,48,5,,,,,,,AMSA02.jpg,AMNE15.jpg,AMNE13.jpg,AMSA12.jpg,AMNE13.jpg,MN,1,num_2,32,num_6,0.916768982541,,,2017_Feb_24_1438,60.006235834,MAFE4ImagesEEG,001,000009,
AFNE01.JPG,AFNE01.JPG,AFNE01.JPG,AFNE01.JPG,AFNE01.JPG,AFNE01.JPG,,,,,,,,,,,,,,,,,4,9,49,3,,,,,,,AMSA05.jpg,AMNE13.jpg,AMSA18.jpg,AMNE11.jpg,AMSA18.jpg,MS,2,num_2,16,num_2,0.766718562692,,,2017_Feb_24_1438,60.006235834,MAFE4ImagesEEG,001,000009,
AFNE01.JPG,AFNE01.JPG,AFNE01.JPG,AFNE01.JPG,AFNE01.JPG,AFNE01.JPG,,,,,,,,,,,,,,,,,5,0,50,5,,,,,,,AMNE17.jpg,AMSA04.jpg,AMSA16.jpg,AMNE19.jpg,AMNE19.jpg,MN,1,num_4,32,num_8,0.716805354692,,,2017_Feb_24_1438,60.006235834,MAFE4ImagesEEG,001,000009,
AFNE01.JPG,AFNE01.JPG,AFNE01.JPG,AFNE01.JPG,AFNE01.JPG,AFNE01.JPG,,,,,,,,,,,,,,,,,5,1,51,4,,,,,,,AMSA06.jpg,AMSA03.jpg,AMNE19.jpg,AMNE20.jpg,AMSA03.jpg,MS,2,num_6,16,num_6,0.700147091411,,,2017_Feb_24_1438,60.006235834,MAFE4ImagesEEG,001,000009,
AFNE01.JPG,AFNE01.JPG,AFNE01.JPG,AFNE01.JPG,AFNE01.JPG,AFNE01.JPG,,,,,,,,,,,,,,,,,5,2,52,0,,,,,,,AMSA06.jpg,AMNE19.jpg,AMSA09.jpg,AMNE06.jpg,AMNE19.jpg,MN,1,num_6,16,num_6,0.616801890545,,,2017_Feb_24_1438,60.006235834,MAFE4ImagesEEG,001,000009,
AFNE01.JPG,AFNE01.JPG,AFNE01.JPG,AFNE01.JPG,AFNE01.JPG,AFNE01.JPG,,,,,,,,,,,,,,,,,5,3,53,8,,,,,,,AMSA16.jpg,AMNE17.jpg,AMSA08.jpg,AMNE14.jpg,AMNE14.jpg,MN,1,num_4,16,num_4,0.600140098948,,,2017_Feb_24_1438,60.006235834,MAFE4ImagesEEG,001,000009,
AFNE01.JPG,AFNE01.JPG,AFNE01.JPG,AFNE01.JPG,AFNE01.JPG,AFNE01.JPG,,,,,,,,,,,,,,,,,5,4,54,6,,,,,,,AMNE19.jpg,AMSA10.jpg,AMSA14.jpg,AMNE07.jpg,AMSA10.jpg,MS,2,num_6,32,num_8,0.65019411128,,,2017_Feb_24_1438,60.006235834,MAFE4ImagesEEG,001,000009,
AFNE01.JPG,AFNE01.JPG,AFNE01.JPG,AFNE01.JPG,AFNE01.JPG,AFNE01.JPG,,,,,,,,,,,,,,,,,5,5,55,7,,,,,,,AMSA02.jpg,AMSA15.jpg,AMNE14.jpg,AMNE02.jpg,AMNE02.jpg,MN,1,num_4,32,num_6,1.10012630746,,,2017_Feb_24_1438,60.006235834,MAFE4ImagesEEG,001,000009,
AFNE01.JPG,AFNE01.JPG,AFNE01.JPG,AFNE01.JPG,AFNE01.JPG,AFNE01.JPG,,,,,,,,,,,,,,,,,5,6,56,9,,,,,,,AMNE17.jpg,AMSA14.jpg,AMNE10.jpg,AMSA15.jpg,AMNE10.jpg,MN,1,num_2,32,num_8,0.766923515126,,,2017_Feb_24_1438,60.006235834,MAFE4ImagesEEG,001,000009,
AFNE01.JPG,AFNE01.JPG,AFNE01.JPG,AFNE01.JPG,AFNE01.JPG,AFNE01.JPG,,,,,,,,,,,,,,,,,5,7,57,1,,,,,,,AMNE01.jpg,AMSA17.jpg,AMNE16.jpg,AMSA04.jpg,AMNE16.jpg,MN,1,num_2,16,num_2,0.883566639386,,,2017_Feb_24_1438,60.006235834,MAFE4ImagesEEG,001,000009,
AFNE01.JPG,AFNE01.JPG,AFNE01.JPG,AFNE01.JPG,AFNE01.JPG,AFNE01.JPG,,,,,,,,,,,,,,,,,5,8,58,3,,,,,,,AMSA07.jpg,AMNE07.jpg,AMNE06.jpg,AMSA02.jpg,AMSA07.jpg,MS,2,num_8,16,num_8,0.966824919917,,,2017_Feb_24_1438,60.006235834,MAFE4ImagesEEG,001,000009,
AFNE01.JPG,AFNE01.JPG,AFNE01.JPG,AFNE01.JPG,AFNE01.JPG,AFNE01.JPG,,,,,,,,,,,,,,,,,5,9,59,2,,,,,,,AMNE20.jpg,AMNE05.jpg,AMSA11.jpg,AMSA02.jpg,AMNE05.jpg,MN,1,num_6,16,num_6,0.550004297867,,,2017_Feb_24_1438,60.006235834,MAFE4ImagesEEG,001,000009,
,,,,,,,,,,,,,,,,,,,,,,,,,,,,,,,,,,,,,,,,,,,space,7.44962524762,2017_Feb_24_1438,60.006235834,MAFE4ImagesEEG,001,000009,
AFNE01.JPG,AFNE01.JPG,AFNE01.JPG,AFNE01.JPG,AFNE01.JPG,AFNE01.JPG,,,,,,,,,,,,,,,,,,,,,0,0,0,6,,,AFSA14.jpg,AFNE02.jpg,AFSA05.jpg,AFNE08.jpg,AFSA14.jpg,FS,4,num_8,16,num_8,1.75004586577,,,2017_Feb_24_1438,60.006235834,MAFE4ImagesEEG,001,000009,
AFNE01.JPG,AFNE01.JPG,AFNE01.JPG,AFNE01.JPG,AFNE01.JPG,AFNE01.JPG,,,,,,,,,,,,,,,,,,,,,0,1,1,7,,,AFNE18.jpg,AFSA17.jpg,AFSA03.jpg,AFNE03.jpg,AFNE03.jpg,FN,3,num_4,16,num_4,0.450237860437,,,2017_Feb_24_1438,60.006235834,MAFE4ImagesEEG,001,000009,
AFNE01.JPG,AFNE01.JPG,AFNE01.JPG,AFNE01.JPG,AFNE01.JPG,AFNE01.JPG,,,,,,,,,,,,,,,,,,,,,0,2,2,1,,,AFSA12.jpg,AFNE07.jpg,AFSA07.jpg,AFNE04.jpg,AFSA12.jpg,FS,4,num_8,16,num_8,0.683484658133,,,2017_Feb_24_1438,60.006235834,MAFE4ImagesEEG,001,000009,
AFNE01.JPG,AFNE01.JPG,AFNE01.JPG,AFNE01.JPG,AFNE01.JPG,AFNE01.JPG,,,,,,,,,,,,,,,,,,,,,0,3,3,0,,,AFSA15.jpg,AFNE03.jpg,AFNE06.jpg,AFSA04.jpg,AFNE06.jpg,FN,3,num_2,32,num_8,1.20011694171,,,2017_Feb_24_1438,60.006235834,MAFE4ImagesEEG,001,000009,
AFNE01.JPG,AFNE01.JPG,AFNE01.JPG,AFNE01.JPG,AFNE01.JPG,AFNE01.JPG,,,,,,,,,,,,,,,,,,,,,0,4,4,8,,,AFSA17.jpg,AFNE17.jpg,AFSA06.jpg,AFNE01.jpg,AFNE17.jpg,FN,3,num_6,16,num_6,0.666781170759,,,2017_Feb_24_1438,60.006235834,MAFE4ImagesEEG,001,000009,
AFNE01.JPG,AFNE01.JPG,AFNE01.JPG,AFNE01.JPG,AFNE01.JPG,AFNE01.JPG,,,,,,,,,,,,,,,,,,,,,0,5,5,5,,,AFSA06.jpg,AFNE12.jpg,AFSA01.jpg,AFNE13.jpg,AFSA01.jpg,FS,4,num_2,16,num_2,1.08314505918,,,2017_Feb_24_1438,60.006235834,MAFE4ImagesEEG,001,000009,
AFNE01.JPG,AFNE01.JPG,AFNE01.JPG,AFNE01.JPG,AFNE01.JPG,AFNE01.JPG,,,,,,,,,,,,,,,,,,,,,0,6,6,3,,,AFNE06.jpg,AFSA07.jpg,AFSA16.jpg,AFNE05.jpg,AFNE06.jpg,FN,3,num_8,32,num_6,0.616849039216,,,2017_Feb_24_1438,60.006235834,MAFE4ImagesEEG,001,000009,
AFNE01.JPG,AFNE01.JPG,AFNE01.JPG,AFNE01.JPG,AFNE01.JPG,AFNE01.JPG,,,,,,,,,,,,,,,,,,,,,0,7,7,2,,,AFSA19.jpg,AFNE18.jpg,AFSA06.jpg,AFNE05.jpg,AFSA06.jpg,FS,4,num_2,16,num_2,0.583429234568,,,2017_Feb_24_1438,60.006235834,MAFE4ImagesEEG,001,000009,
AFNE01.JPG,AFNE01.JPG,AFNE01.JPG,AFNE01.JPG,AFNE01.JPG,AFNE01.JPG,,,,,,,,,,,,,,,,,,,,,0,8,8,9,,,AFNE03.jpg,AFSA15.jpg,AFSA09.jpg,AFNE17.jpg,AFNE17.jpg,FN,3,num_4,32,num_2,0.650183848105,,,2017_Feb_24_1438,60.006235834,MAFE4ImagesEEG,001,000009,
AFNE01.JPG,AFNE01.JPG,AFNE01.JPG,AFNE01.JPG,AFNE01.JPG,AFNE01.JPG,,,,,,,,,,,,,,,,,,,,,0,9,9,4,,,AFNE06.jpg,AFNE10.jpg,AFSA04.jpg,AFSA11.jpg,AFNE06.jpg,FN,3,num_8,32,num_4,0.300215024035,,,2017_Feb_24_1438,60.006235834,MAFE4ImagesEEG,001,000009,
AFNE01.JPG,AFNE01.JPG,AFNE01.JPG,AFNE01.JPG,AFNE01.JPG,AFNE01.JPG,,,,,,,,,,,,,,,,,,,,,1,0,10,9,,,AFSA10.jpg,AFNE05.jpg,AFSA07.jpg,AFNE20.jpg,AFSA07.jpg,FS,4,num_2,32,num_8,0.616804777179,,,2017_Feb_24_1438,60.006235834,MAFE4ImagesEEG,001,000009,
AFNE01.JPG,AFNE01.JPG,AFNE01.JPG,AFNE01.JPG,AFNE01.JPG,AFNE01.JPG,,,,,,,,,,,,,,,,,,,,,1,1,11,6,,,AFNE03.jpg,AFSA03.jpg,AFSA16.jpg,AFNE07.jpg,AFNE03.jpg,FN,3,num_8,32,num_6,0.750149785541,,,2017_Feb_24_1438,60.006235834,MAFE4ImagesEEG,001,000009,
AFNE01.JPG,AFNE01.JPG,AFNE01.JPG,AFNE01.JPG,AFNE01.JPG,AFNE01.JPG,,,,,,,,,,,,,,,,,,,,,1,2,12,8,,,AFNE14.jpg,AFNE11.jpg,AFSA05.jpg,AFSA03.jpg,AFNE11.jpg,FN,3,num_6,16,num_6,0.733507559169,,,2017_Feb_24_1438,60.006235834,MAFE4ImagesEEG,001,000009,
AFNE01.JPG,AFNE01.JPG,AFNE01.JPG,AFNE01.JPG,AFNE01.JPG,AFNE01.JPG,,,,,,,,,,,,,,,,,,,,,1,3,13,0,,,AFNE18.jpg,AFSA01.jpg,AFSA19.jpg,AFNE07.jpg,AFNE07.jpg,FN,3,num_4,16,num_4,0.750161332078,,,2017_Feb_24_1438,60.006235834,MAFE4ImagesEEG,001,000009,
AFNE01.JPG,AFNE01.JPG,AFNE01.JPG,AFNE01.JPG,AFNE01.JPG,AFNE01.JPG,,,,,,,,,,,,,,,,,,,,,1,4,14,4,,,AFNE10.jpg,AFSA17.jpg,AFSA19.jpg,AFNE04.jpg,AFNE10.jpg,FN,3,num_8,16,num_8,0.766778219957,,,2017_Feb_24_1438,60.006235834,MAFE4ImagesEEG,001,000009,
AFNE01.JPG,AFNE01.JPG,AFNE01.JPG,AFNE01.JPG,AFNE01.JPG,AFNE01.JPG,,,,,,,,,,,,,,,,,,,,,1,5,15,5,,,AFSA18.jpg,AFNE13.jpg,AFSA05.jpg,AFNE19.jpg,AFSA05.jpg,FS,4,num_2,32,num_8,0.666805546731,,,2017_Feb_24_1438,60.006235834,MAFE4ImagesEEG,001,000009,
AFNE01.JPG,AFNE01.JPG,AFNE01.JPG,AFNE01.JPG,AFNE01.JPG,AFNE01.JPG,,,,,,,,,,,,,,,,,,,,,1,6,16,2,,,AFSA12.jpg,AFNE12.jpg,AFSA01.jpg,AFNE02.jpg,AFSA01.jpg,FS,4,num_2,16,num_2,0.583516475745,,,2017_Feb_24_1438,60.006235834,MAFE4ImagesEEG,001,000009,
AFNE01.JPG,AFNE01.JPG,AFNE01.JPG,AFNE01.JPG,AFNE01.JPG,AFNE01.JPG,,,,,,,,,,,,,,,,,,,,,1,7,17,7,,,AFNE11.jpg,AFSA05.jpg,AFSA13.jpg,AFNE01.jpg,AFNE01.jpg,FN,3,num_4,32,num_8,0.499862081837,,,2017_Feb_24_1438,60.006235834,MAFE4ImagesEEG,001,000009,
AFNE01.JPG,AFNE01.JPG,AFNE01.JPG,AFNE01.JPG,AFNE01.JPG,AFNE01.JPG,,,,,,,,,,,,,,,,,,,,,1,8,18,1,,,AFNE19.jpg,AFSA20.jpg,AFSA13.jpg,AFNE18.jpg,AFNE19.jpg,FN,3,num_8,32,num_4,1.05009763315,,,2017_Feb_24_1438,60.006235834,MAFE4ImagesEEG,001,000009,
AFNE01.JPG,AFNE01.JPG,AFNE01.JPG,AFNE01.JPG,AFNE01.JPG,AFNE01.JPG,,,,,,,,,,,,,,,,,,,,,1,9,19,3,,,AFNE14.jpg,AFNE17.jpg,AFSA05.jpg,AFSA13.jpg,AFNE14.jpg,FN,3,num_8,16,num_8,0.800133556128,,,2017_Feb_24_1438,60.006235834,MAFE4ImagesEEG,001,000009,
AFNE01.JPG,AFNE01.JPG,AFNE01.JPG,AFNE01.JPG,AFNE01.JPG,AFNE01.JPG,,,,,,,,,,,,,,,,,,,,,2,0,20,9,,,AFNE12.jpg,AFNE13.jpg,AFSA01.jpg,AFSA06.jpg,AFSA06.jpg,FS,4,num_4,32,num_2,1.13342840038,,,2017_Feb_24_1438,60.006235834,MAFE4ImagesEEG,001,000009,
AFNE01.JPG,AFNE01.JPG,AFNE01.JPG,AFNE01.JPG,AFNE01.JPG,AFNE01.JPG,,,,,,,,,,,,,,,,,,,,,2,1,21,4,,,AFSA01.jpg,AFNE17.jpg,AFSA05.jpg,AFNE10.jpg,AFNE10.jpg,FN,3,num_4,16,num_4,0.366799965966,,,2017_Feb_24_1438,60.006235834,MAFE4ImagesEEG,001,000009,
AFNE01.JPG,AFNE01.JPG,AFNE01.JPG,AFNE01.JPG,AFNE01.JPG,AFNE01.JPG,,,,,,,,,,,,,,,,,,,,,2,2,22,8,,,AFNE13.jpg,AFNE12.jpg,AFSA13.jpg,AFSA11.jpg,AFNE12.jpg,FN,3,num_6,16,num_6,0.750164860394,,,2017_Feb_24_1438,60.006235834,MAFE4ImagesEEG,001,000009,
AFNE01.JPG,AFNE01.JPG,AFNE01.JPG,AFNE01.JPG,AFNE01.JPG,AFNE01.JPG,,,,,,,,,,,,,,,,,,,,,2,3,23,3,,,AFSA14.jpg,AFNE04.jpg,AFNE02.jpg,AFSA02.jpg,AFNE04.jpg,FN,3,num_6,32,num_8,0.633497038856,,,2017_Feb_24_1438,60.006235834,MAFE4ImagesEEG,001,000009,
AFNE01.JPG,AFNE01.JPG,AFNE01.JPG,AFNE01.JPG,AFNE01.JPG,AFNE01.JPG,,,,,,,,,,,,,,,,,,,,,2,4,24,6,,,AFSA18.jpg,AFNE17.jpg,AFSA09.jpg,AFNE06.jpg,AFNE06.jpg,FN,3,num_4,16,num_4,0.716790921055,,,2017_Feb_24_1438,60.006235834,MAFE4ImagesEEG,001,000009,
AFNE01.JPG,AFNE01.JPG,AFNE01.JPG,AFNE01.JPG,AFNE01.JPG,AFNE01.JPG,,,,,,,,,,,,,,,,,,,,,2,5,25,7,,,AFNE08.jpg,AFNE17.jpg,AFSA14.jpg,AFSA15.jpg,AFNE08.jpg,FN,3,num_8,16,num_8,0.700142280199,,,2017_Feb_24_1438,60.006235834,MAFE4ImagesEEG,001,000009,
AFNE01.JPG,AFNE01.JPG,AFNE01.JPG,AFNE01.JPG,AFNE01.JPG,AFNE01.JPG,,,,,,,,,,,,,,,,,,,,,2,6,26,0,,,AFSA13.jpg,AFSA03.jpg,AFNE16.jpg,AFNE03.jpg,AFSA13.jpg,FS,4,num_8,32,num_4,0.600151966326,,,2017_Feb_24_1438,60.006235834,MAFE4ImagesEEG,001,000009,
AFNE01.JPG,AFNE01.JPG,AFNE01.JPG,AFNE01.JPG,AFNE01.JPG,AFNE01.JPG,,,,,,,,,,,,,,,,,,,,,2,7,27,5,,,AFSA05.jpg,AFNE19.jpg,AFSA08.jpg,AFNE10.jpg,AFNE10.jpg,FN,3,num_4,16,num_4,0.716797336005,,,2017_Feb_24_1438,60.006235834,MAFE4ImagesEEG,001,000009,
AFNE01.JPG,AFNE01.JPG,AFNE01.JPG,AFNE01.JPG,AFNE01.JPG,AFNE01.JPG,,,,,,,,,,,,,,,,,,,,,2,8,28,2,,,AFNE14.jpg,AFSA17.jpg,AFNE02.jpg,AFSA18.jpg,AFSA18.jpg,FS,4,num_4,16,num_4,1.03345829342,,,2017_Feb_24_1438,60.006235834,MAFE4ImagesEEG,001,000009,
AFNE01.JPG,AFNE01.JPG,AFNE01.JPG,AFNE01.JPG,AFNE01.JPG,AFNE01.JPG,,,,,,,,,,,,,,,,,,,,,2,9,29,1,,,AFNE09.jpg,AFSA17.jpg,AFSA08.jpg,AFNE10.jpg,AFSA17.jpg,FS,4,num_6,16,num_6,0.866774948779,,,2017_Feb_24_1438,60.006235834,MAFE4ImagesEEG,001,000009,
AFNE01.JPG,AFNE01.JPG,AFNE01.JPG,AFNE01.JPG,AFNE01.JPG,AFNE01.JPG,,,,,,,,,,,,,,,,,,,,,3,0,30,0,,,AFSA11.jpg,AFSA03.jpg,AFNE17.jpg,AFNE05.jpg,AFSA03.jpg,FS,4,num_6,32,num_2,1.34995888127,,,2017_Feb_24_1438,60.006235834,MAFE4ImagesEEG,001,000009,
AFNE01.JPG,AFNE01.JPG,AFNE01.JPG,AFNE01.JPG,AFNE01.JPG,AFNE01.JPG,,,,,,,,,,,,,,,,,,,,,3,1,31,1,,,AFSA13.jpg,AFNE08.jpg,AFNE04.jpg,AFSA15.jpg,AFNE04.jpg,FN,3,num_2,16,num_2,0.566839609761,,,2017_Feb_24_1438,60.006235834,MAFE4ImagesEEG,001,000009,
AFNE01.JPG,AFNE01.JPG,AFNE01.JPG,AFNE01.JPG,AFNE01.JPG,AFNE01.JPG,,,,,,,,,,,,,,,,,,,,,3,2,32,2,,,AFSA10.jpg,AFNE15.jpg,AFSA05.jpg,AFNE04.jpg,AFNE15.jpg,FN,3,num_6,32,num_8,0.733448863495,,,2017_Feb_24_1438,60.006235834,MAFE4ImagesEEG,001,000009,
AFNE01.JPG,AFNE01.JPG,AFNE01.JPG,AFNE01.JPG,AFNE01.JPG,AFNE01.JPG,,,,,,,,,,,,,,,,,,,,,3,3,33,7,,,AFNE20.jpg,AFSA03.jpg,AFSA05.jpg,AFNE14.jpg,AFNE20.jpg,FN,3,num_8,32,num_4,0.566788611934,,,2017_Feb_24_1438,60.006235834,MAFE4ImagesEEG,001,000009,
AFNE01.JPG,AFNE01.JPG,AFNE01.JPG,AFNE01.JPG,AFNE01.JPG,AFNE01.JPG,,,,,,,,,,,,,,,,,,,,,3,4,34,5,,,AFSA03.jpg,AFNE10.jpg,AFNE08.jpg,AFSA04.jpg,AFNE08.jpg,FN,3,num_2,32,num_8,0.766837556846,,,2017_Feb_24_1438,60.006235834,MAFE4ImagesEEG,001,000009,
AFNE01.JPG,AFNE01.JPG,AFNE01.JPG,AFNE01.JPG,AFNE01.JPG,AFNE01.JPG,,,,,,,,,,,,,,,,,,,,,3,5,35,4,,,AFSA19.jpg,AFNE13.jpg,AFSA15.jpg,AFNE07.jpg,AFSA15.jpg,FS,4,num_2,32,num_8,0.433502940461,,,2017_Feb_24_1438,60.006235834,MAFE4ImagesEEG,001,000009,
AFNE01.JPG,AFNE01.JPG,AFNE01.JPG,AFNE01.JPG,AFNE01.JPG,AFNE01.JPG,,,,,,,,,,,,,,,,,,,,,3,6,36,3,,,AFSA14.jpg,AFNE18.jpg,AFNE14.jpg,AFSA19.jpg,AFSA14.jpg,FS,4,num_8,16,num_8,0.650149528868,,,2017_Feb_24_1438,60.006235834,MAFE4ImagesEEG,001,000009,
AFNE01.JPG,AFNE01.JPG,AFNE01.JPG,AFNE01.JPG,AFNE01.JPG,AFNE01.JPG,,,,,,,,,,,,,,,,,,,,,3,7,37,8,,,AFSA16.jpg,AFNE03.jpg,AFSA11.jpg,AFNE01.jpg,AFNE01.jpg,FN,3,num_4,16,num_4,0.800157932099,,,2017_Feb_24_1438,60.006235834,MAFE4ImagesEEG,001,000009,
AFNE01.JPG,AFNE01.JPG,AFNE01.JPG,AFNE01.JPG,AFNE01.JPG,AFNE01.JPG,,,,,,,,,,,,,,,,,,,,,3,8,38,9,,,AFNE18.jpg,AFSA11.jpg,AFNE19.jpg,AFSA09.jpg,AFSA09.jpg,FS,4,num_4,16,num_4,0.58347413782,,,2017_Feb_24_1438,60.006235834,MAFE4ImagesEEG,001,000009,
AFNE01.JPG,AFNE01.JPG,AFNE01.JPG,AFNE01.JPG,AFNE01.JPG,AFNE01.JPG,,,,,,,,,,,,,,,,,,,,,3,9,39,6,,,AFNE02.jpg,AFSA06.jpg,AFSA16.jpg,AFNE07.jpg,AFSA06.jpg,FS,4,num_6,32,num_2,0.583547908347,,,2017_Feb_24_1438,60.006235834,MAFE4ImagesEEG,001,000009,
