IPosition2,IPosition3,IPosition1,IPosition6,IPosition4,IPosition5,TrialsF1.thisRepN,TrialsF1.thisTrialN,TrialsF1.thisN,TrialsF1.thisIndex,TrialsM1.thisRepN,TrialsM1.thisTrialN,TrialsM1.thisN,TrialsM1.thisIndex,TrialsF2.thisRepN,TrialsF2.thisTrialN,TrialsF2.thisN,TrialsF2.thisIndex,TrialsM2.thisRepN,TrialsM2.thisTrialN,TrialsM2.thisN,TrialsM2.thisIndex,TrialsF3.thisRepN,TrialsF3.thisTrialN,TrialsF3.thisN,TrialsF3.thisIndex,TrialsM3.thisRepN,TrialsM3.thisTrialN,TrialsM3.thisN,TrialsM3.thisIndex,InstrKey_resp.keys,InstrKey_resp.rt,Image0 _Position,Image1 _Position,Image2 _Position,Image3 _Position,Center_image,condition,code,correct_answer,accuracy,Key_Resp.keys,Key_Resp.rt,BreakKey_resp.keys,BreakKey_resp.rt,date,frameRate,expName,session,participant,
,,,,,,,,,,,,,,,,,,,,,,,,,,,,,,space,6.88314647041,,,,,,,,,,,,,,2017_Mar_08_1748,59.9987298892,FEMA4ImagesEEG,001,100029,
AMNE22.JPG,AMSA24.JPG,AMSA22.JPG,AMNE25.JPG,AMNE24.JPG,AMSA25.JPG,0,0,0,7,,,,,,,,,,,,,,,,,,,,,,,AFSA06.jpg,AFSA20.jpg,AFNE12.jpg,AFNE11.jpg,AFSA20.jpg,FS,4,num_6,32,num_2,3.15026916517,,,2017_Mar_08_1748,59.9987298892,FEMA4ImagesEEG,001,100029,
AMSA25.JPG,AMNE24.JPG,AMSA24.JPG,AMNE26.JPG,AMSA21.JPG,AMNE25.JPG,0,1,1,3,,,,,,,,,,,,,,,,,,,,,,,AFSA17.jpg,AFNE02.jpg,AFNE04.jpg,AFSA01.jpg,AFNE02.jpg,FN,3,num_6,32,num_2,2.91658968898,,,2017_Mar_08_1748,59.9987298892,FEMA4ImagesEEG,001,100029,
AFNE22.JPG,AFSA24.JPG,AFSA22.JPG,AFNE25.JPG,AFNE24.JPG,AFSA25.JPG,0,2,2,6,,,,,,,,,,,,,,,,,,,,,,,AFNE07.jpg,AFNE09.jpg,AFSA13.jpg,AFSA18.jpg,AFSA13.jpg,FS,4,num_2,32,num_4,1.7834008811,,,2017_Mar_08_1748,59.9987298892,FEMA4ImagesEEG,001,100029,
AFSA21.JPG,AFNE23.JPG,AFNE21.JPG,AFSA25.JPG,AFNE25.JPG,AFSA23.JPG,0,3,3,4,,,,,,,,,,,,,,,,,,,,,,,AFSA09.jpg,AFNE18.jpg,AFSA12.jpg,AFNE13.jpg,AFNE13.jpg,FN,3,num_4,32,num_6,2.79998537432,,,2017_Mar_08_1748,59.9987298892,FEMA4ImagesEEG,001,100029,
AFSA21.JPG,AFNE22.JPG,AFNE21.JPG,AFSA23.JPG,AFSA22.JPG,AFNE23.JPG,0,4,4,0,,,,,,,,,,,,,,,,,,,,,,,AFSA01.jpg,AFNE11.jpg,AFNE18.jpg,AFSA10.jpg,AFNE18.jpg,FN,3,num_2,32,num_4,1.41673626751,,,2017_Mar_08_1748,59.9987298892,FEMA4ImagesEEG,001,100029,
AFNE23.JPG,AFNE24.JPG,AFNE22.JPG,AFSA24.JPG,AFSA22.JPG,AFSA23.JPG,0,5,5,8,,,,,,,,,,,,,,,,,,,,,,,AFNE18.jpg,AFNE15.jpg,AFSA03.jpg,AFSA02.jpg,AFNE18.jpg,FN,3,num_8,32,num_6,1.05008704867,,,2017_Mar_08_1748,59.9987298892,FEMA4ImagesEEG,001,100029,
AFSA25.JPG,AFNE24.JPG,AFSA24.JPG,AFNE21.JPG,AFSA21.JPG,AFNE25.JPG,0,6,6,2,,,,,,,,,,,,,,,,,,,,,,,AFSA04.jpg,AFSA19.jpg,AFNE08.jpg,AFNE17.jpg,AFSA19.jpg,FS,4,num_6,32,num_4,1.85002655722,,,2017_Mar_08_1748,59.9987298892,FEMA4ImagesEEG,001,100029,
AMSA21.JPG,AMNE22.JPG,AMNE21.JPG,AMSA23.JPG,AMSA22.JPG,AMNE23.JPG,0,7,7,1,,,,,,,,,,,,,,,,,,,,,,,AFNE03.jpg,AFSA08.jpg,AFNE20.jpg,AFSA16.jpg,AFSA16.jpg,FS,4,num_4,32,num_6,1.13346592709,,,2017_Mar_08_1748,59.9987298892,FEMA4ImagesEEG,001,100029,
AMNE23.JPG,AMNE24.JPG,AMNE22.JPG,AMSA24.JPG,AMSA22.JPG,AMSA23.JPG,0,8,8,9,,,,,,,,,,,,,,,,,,,,,,,AFSA10.jpg,AFNE04.jpg,AFNE01.jpg,AFSA08.jpg,AFSA08.jpg,FS,4,num_4,32,num_2,2.99998588767,,,2017_Mar_08_1748,59.9987298892,FEMA4ImagesEEG,001,100029,
AMSA21.JPG,AMNE23.JPG,AMNE21.JPG,AMSA25.JPG,AMNE25.JPG,AMSA23.JPG,0,9,9,5,,,,,,,,,,,,,,,,,,,,,,,AFNE12.jpg,AFSA17.jpg,AFNE19.jpg,AFSA04.jpg,AFSA04.jpg,FS,4,num_4,32,num_6,2.95026672725,,,2017_Mar_08_1748,59.9987298892,FEMA4ImagesEEG,001,100029,
AMSA21.JPG,AMNE22.JPG,AMNE21.JPG,AMSA23.JPG,AMSA22.JPG,AMNE23.JPG,,,,,0,0,0,1,,,,,,,,,,,,,,,,,,,AMSA09.jpg,AMNE01.jpg,AMSA18.jpg,AMNE07.jpg,AMNE01.jpg,MN,1,num_6,32,num_8,2.41667981725,,,2017_Mar_08_1748,59.9987298892,FEMA4ImagesEEG,001,100029,
AMNE23.JPG,AMNE24.JPG,AMNE22.JPG,AMSA24.JPG,AMSA22.JPG,AMSA23.JPG,,,,,0,1,1,9,,,,,,,,,,,,,,,,,,,AMSA05.jpg,AMSA18.jpg,AMNE15.jpg,AMNE01.jpg,AMSA18.jpg,MS,2,num_6,16,num_6,3.1166020697,,,2017_Mar_08_1748,59.9987298892,FEMA4ImagesEEG,001,100029,
AMNE22.JPG,AMSA24.JPG,AMSA22.JPG,AMNE25.JPG,AMNE24.JPG,AMSA25.JPG,,,,,0,2,2,7,,,,,,,,,,,,,,,,,,,AMNE03.jpg,AMSA18.jpg,AMNE19.jpg,AMSA19.jpg,AMNE03.jpg,MN,1,num_8,32,num_2,2.68332909932,,,2017_Mar_08_1748,59.9987298892,FEMA4ImagesEEG,001,100029,
AFSA21.JPG,AFNE23.JPG,AFNE21.JPG,AFSA25.JPG,AFNE25.JPG,AFSA23.JPG,,,,,0,3,3,4,,,,,,,,,,,,,,,,,,,AMSA17.jpg,AMNE04.jpg,AMNE03.jpg,AMSA15.jpg,AMSA17.jpg,MS,2,num_8,16,num_8,0.933479526546,,,2017_Mar_08_1748,59.9987298892,FEMA4ImagesEEG,001,100029,
AFNE22.JPG,AFSA24.JPG,AFSA22.JPG,AFNE25.JPG,AFNE24.JPG,AFSA25.JPG,,,,,0,4,4,6,,,,,,,,,,,,,,,,,,,AMSA11.jpg,AMNE18.jpg,AMNE13.jpg,AMSA04.jpg,AMSA11.jpg,MS,2,num_8,32,num_6,2.16669874033,,,2017_Mar_08_1748,59.9987298892,FEMA4ImagesEEG,001,100029,
AFSA25.JPG,AFNE24.JPG,AFSA24.JPG,AFNE21.JPG,AFSA21.JPG,AFNE25.JPG,,,,,0,5,5,2,,,,,,,,,,,,,,,,,,,AMNE16.jpg,AMSA02.jpg,AMSA15.jpg,AMNE17.jpg,AMNE16.jpg,MN,1,num_8,16,num_8,1.76641899114,,,2017_Mar_08_1748,59.9987298892,FEMA4ImagesEEG,001,100029,
AMSA21.JPG,AMNE23.JPG,AMNE21.JPG,AMSA25.JPG,AMNE25.JPG,AMSA23.JPG,,,,,0,6,6,5,,,,,,,,,,,,,,,,,,,AMSA04.jpg,AMNE11.jpg,AMSA14.jpg,AMNE13.jpg,AMNE11.jpg,MN,1,num_6,32,num_4,1.40013156785,,,2017_Mar_08_1748,59.9987298892,FEMA4ImagesEEG,001,100029,
AFNE23.JPG,AFNE24.JPG,AFNE22.JPG,AFSA24.JPG,AFSA22.JPG,AFSA23.JPG,,,,,0,7,7,8,,,,,,,,,,,,,,,,,,,AMNE09.jpg,AMNE14.jpg,AMSA12.jpg,AMSA10.jpg,AMSA10.jpg,MS,2,num_4,32,num_8,2.01670284616,,,2017_Mar_08_1748,59.9987298892,FEMA4ImagesEEG,001,100029,
AMSA25.JPG,AMNE24.JPG,AMSA24.JPG,AMNE26.JPG,AMSA21.JPG,AMNE25.JPG,,,,,0,8,8,3,,,,,,,,,,,,,,,,,,,AMSA01.jpg,AMNE10.jpg,AMNE15.jpg,AMSA13.jpg,AMSA13.jpg,MS,2,num_4,32,num_2,2.0833580303,,,2017_Mar_08_1748,59.9987298892,FEMA4ImagesEEG,001,100029,
AFSA21.JPG,AFNE22.JPG,AFNE21.JPG,AFSA23.JPG,AFSA22.JPG,AFNE23.JPG,,,,,0,9,9,0,,,,,,,,,,,,,,,,,,,AMNE11.jpg,AMSA08.jpg,AMNE09.jpg,AMSA09.jpg,AMSA09.jpg,MS,2,num_4,16,num_4,2.43342596292,,,2017_Mar_08_1748,59.9987298892,FEMA4ImagesEEG,001,100029,
AMNE22.JPG,AMSA24.JPG,AMSA22.JPG,AMNE25.JPG,AMNE24.JPG,AMSA25.JPG,,,,,,,,,0,0,0,7,,,,,,,,,,,,,,,AFNE08.jpg,AFSA06.jpg,AFSA08.jpg,AFNE04.jpg,AFNE04.jpg,FN,3,num_4,16,num_4,1.1334733041,,,2017_Mar_08_1748,59.9987298892,FEMA4ImagesEEG,001,100029,
AMSA25.JPG,AMNE24.JPG,AMSA24.JPG,AMNE26.JPG,AMSA21.JPG,AMNE25.JPG,,,,,,,,,0,1,1,3,,,,,,,,,,,,,,,AFNE03.jpg,AFSA02.jpg,AFSA10.jpg,AFNE19.jpg,AFNE03.jpg,FN,3,num_8,16,num_8,1.26672946755,,,2017_Mar_08_1748,59.9987298892,FEMA4ImagesEEG,001,100029,
AMSA21.JPG,AMNE23.JPG,AMNE21.JPG,AMSA25.JPG,AMNE25.JPG,AMSA23.JPG,,,,,,,,,0,2,2,5,,,,,,,,,,,,,,,AFNE11.jpg,AFSA17.jpg,AFSA11.jpg,AFNE20.jpg,AFSA11.jpg,FS,4,num_2,16,num_2,3.49993039947,,,2017_Mar_08_1748,59.9987298892,FEMA4ImagesEEG,001,100029,
AMSA21.JPG,AMNE22.JPG,AMNE21.JPG,AMSA23.JPG,AMSA22.JPG,AMNE23.JPG,,,,,,,,,0,3,3,1,,,,,,,,,,,,,,,AFNE20.jpg,AFNE14.jpg,AFSA18.jpg,AFSA01.jpg,AFNE14.jpg,FN,3,num_6,16,num_6,1.01677308837,,,2017_Mar_08_1748,59.9987298892,FEMA4ImagesEEG,001,100029,
AMNE23.JPG,AMNE24.JPG,AMNE22.JPG,AMSA24.JPG,AMSA22.JPG,AMSA23.JPG,,,,,,,,,0,4,4,9,,,,,,,,,,,,,,,AFSA19.jpg,AFNE08.jpg,AFSA02.jpg,AFNE03.jpg,AFNE03.jpg,FN,3,num_4,16,num_4,1.43355490034,,,2017_Mar_08_1748,59.9987298892,FEMA4ImagesEEG,001,100029,
AFNE23.JPG,AFNE24.JPG,AFNE22.JPG,AFSA24.JPG,AFSA22.JPG,AFSA23.JPG,,,,,,,,,0,5,5,8,,,,,,,,,,,,,,,AFNE16.jpg,AFSA13.jpg,AFNE05.jpg,AFSA16.jpg,AFSA13.jpg,FS,4,num_6,32,num_4,1.08341159392,,,2017_Mar_08_1748,59.9987298892,FEMA4ImagesEEG,001,100029,
AFSA21.JPG,AFNE22.JPG,AFNE21.JPG,AFSA23.JPG,AFSA22.JPG,AFNE23.JPG,,,,,,,,,0,6,6,0,,,,,,,,,,,,,,,AFSA13.jpg,AFNE12.jpg,AFNE06.jpg,AFSA07.jpg,AFNE06.jpg,FN,3,num_2,16,num_2,2.85006953636,,,2017_Mar_08_1748,59.9987298892,FEMA4ImagesEEG,001,100029,
AFSA25.JPG,AFNE24.JPG,AFSA24.JPG,AFNE21.JPG,AFSA21.JPG,AFNE25.JPG,,,,,,,,,0,7,7,2,,,,,,,,,,,,,,,AFNE16.jpg,AFNE06.jpg,AFSA05.jpg,AFSA10.jpg,AFNE06.jpg,FN,3,num_6,16,num_6,1.28341242764,,,2017_Mar_08_1748,59.9987298892,FEMA4ImagesEEG,001,100029,
AFNE22.JPG,AFSA24.JPG,AFSA22.JPG,AFNE25.JPG,AFNE24.JPG,AFSA25.JPG,,,,,,,,,0,8,8,6,,,,,,,,,,,,,,,AFSA11.jpg,AFNE02.jpg,AFNE04.jpg,AFSA13.jpg,AFNE04.jpg,FN,3,num_2,32,num_6,1.58335835114,,,2017_Mar_08_1748,59.9987298892,FEMA4ImagesEEG,001,100029,
AFSA21.JPG,AFNE23.JPG,AFNE21.JPG,AFSA25.JPG,AFNE25.JPG,AFSA23.JPG,,,,,,,,,0,9,9,4,,,,,,,,,,,,,,,AFNE09.jpg,AFNE05.jpg,AFSA19.jpg,AFSA05.jpg,AFNE05.jpg,FN,3,num_6,32,num_8,1.08347702445,,,2017_Mar_08_1748,59.9987298892,FEMA4ImagesEEG,001,100029,
AFSA21.JPG,AFNE23.JPG,AFNE21.JPG,AFSA25.JPG,AFNE25.JPG,AFSA23.JPG,,,,,,,,,,,,,0,0,0,4,,,,,,,,,,,AMNE09.jpg,AMSA13.jpg,AMNE18.jpg,AMSA14.jpg,AMNE09.jpg,MN,1,num_8,32,num_6,1.55009763315,,,2017_Mar_08_1748,59.9987298892,FEMA4ImagesEEG,001,100029,
AFSA25.JPG,AFNE24.JPG,AFSA24.JPG,AFNE21.JPG,AFSA21.JPG,AFNE25.JPG,,,,,,,,,,,,,0,1,1,2,,,,,,,,,,,AMSA07.jpg,AMSA15.jpg,AMNE13.jpg,AMNE05.jpg,AMNE13.jpg,MN,1,num_2,32,num_4,0.766779182013,,,2017_Mar_08_1748,59.9987298892,FEMA4ImagesEEG,001,100029,
AMSA25.JPG,AMNE24.JPG,AMSA24.JPG,AMNE26.JPG,AMSA21.JPG,AMNE25.JPG,,,,,,,,,,,,,0,2,2,3,,,,,,,,,,,AMNE14.jpg,AMSA08.jpg,AMNE12.jpg,AMSA14.jpg,AMSA14.jpg,MS,2,num_4,16,num_4,0.866821134929,,,2017_Mar_08_1748,59.9987298892,FEMA4ImagesEEG,001,100029,
AMNE22.JPG,AMSA24.JPG,AMSA22.JPG,AMNE25.JPG,AMNE24.JPG,AMSA25.JPG,,,,,,,,,,,,,0,3,3,7,,,,,,,,,,,AMNE12.jpg,AMNE19.jpg,AMSA17.jpg,AMSA20.jpg,AMNE19.jpg,MN,1,num_6,16,num_6,0.950153827202,,,2017_Mar_08_1748,59.9987298892,FEMA4ImagesEEG,001,100029,
AFNE23.JPG,AFNE24.JPG,AFNE22.JPG,AFSA24.JPG,AFSA22.JPG,AFSA23.JPG,,,,,,,,,,,,,0,4,4,8,,,,,,,,,,,AMSA20.jpg,AMSA17.jpg,AMNE20.jpg,AMNE10.jpg,AMNE20.jpg,MN,1,num_2,32,num_6,1.01673556166,,,2017_Mar_08_1748,59.9987298892,FEMA4ImagesEEG,001,100029,
AMSA21.JPG,AMNE23.JPG,AMNE21.JPG,AMSA25.JPG,AMNE25.JPG,AMSA23.JPG,,,,,,,,,,,,,0,5,5,5,,,,,,,,,,,AMNE12.jpg,AMSA07.jpg,AMNE07.jpg,AMSA12.jpg,AMSA07.jpg,MS,2,num_6,32,num_2,1.48341005435,,,2017_Mar_08_1748,59.9987298892,FEMA4ImagesEEG,001,100029,
AFNE22.JPG,AFSA24.JPG,AFSA22.JPG,AFNE25.JPG,AFNE24.JPG,AFSA25.JPG,,,,,,,,,,,,,0,6,6,6,,,,,,,,,,,AMSA02.jpg,AMNE14.jpg,AMSA11.jpg,AMNE13.jpg,AMSA02.jpg,MS,2,num_8,16,num_8,0.816792781465,,,2017_Mar_08_1748,59.9987298892,FEMA4ImagesEEG,001,100029,
AFSA21.JPG,AFNE22.JPG,AFNE21.JPG,AFSA23.JPG,AFSA22.JPG,AFNE23.JPG,,,,,,,,,,,,,0,7,7,0,,,,,,,,,,,AMSA13.jpg,AMNE06.jpg,AMNE01.jpg,AMSA04.jpg,AMNE01.jpg,MN,1,num_2,32,num_6,1.5834093485,,,2017_Mar_08_1748,59.9987298892,FEMA4ImagesEEG,001,100029,
AMNE23.JPG,AMNE24.JPG,AMNE22.JPG,AMSA24.JPG,AMSA22.JPG,AMSA23.JPG,,,,,,,,,,,,,0,8,8,9,,,,,,,,,,,AMNE12.jpg,AMSA20.jpg,AMSA13.jpg,AMNE13.jpg,AMSA13.jpg,MS,2,num_2,16,num_2,1.51670990232,,,2017_Mar_08_1748,59.9987298892,FEMA4ImagesEEG,001,100029,
AMSA21.JPG,AMNE22.JPG,AMNE21.JPG,AMSA23.JPG,AMSA22.JPG,AMNE23.JPG,,,,,,,,,,,,,0,9,9,1,,,,,,,,,,,AMNE05.jpg,AMSA02.jpg,AMNE02.jpg,AMSA13.jpg,AMSA02.jpg,MS,2,num_6,32,num_2,1.38340851478,,,2017_Mar_08_1748,59.9987298892,FEMA4ImagesEEG,001,100029,
AFNE22.JPG,AFSA24.JPG,AFSA22.JPG,AFNE25.JPG,AFNE24.JPG,AFSA25.JPG,,,,,,,,,,,,,,,,,0,0,0,6,,,,,,,AFSA05.jpg,AFNE06.jpg,AFSA16.jpg,AFNE05.jpg,AFSA05.jpg,FS,4,num_8,16,num_8,0.800208929926,,,2017_Mar_08_1748,59.9987298892,FEMA4ImagesEEG,001,100029,
AMSA25.JPG,AMNE24.JPG,AMSA24.JPG,AMNE26.JPG,AMSA21.JPG,AMNE25.JPG,,,,,,,,,,,,,,,,,0,1,1,3,,,,,,,AFSA08.jpg,AFNE18.jpg,AFSA13.jpg,AFNE10.jpg,AFSA13.jpg,FS,4,num_2,16,num_2,1.65003053471,,,2017_Mar_08_1748,59.9987298892,FEMA4ImagesEEG,001,100029,
AMNE23.JPG,AMNE24.JPG,AMNE22.JPG,AMSA24.JPG,AMSA22.JPG,AMSA23.JPG,,,,,,,,,,,,,,,,,0,2,2,9,,,,,,,AFNE14.jpg,AFSA09.jpg,AFSA14.jpg,AFNE06.jpg,AFSA09.jpg,FS,4,num_6,16,num_6,0.816773857921,,,2017_Mar_08_1748,59.9987298892,FEMA4ImagesEEG,001,100029,
AFSA21.JPG,AFNE22.JPG,AFNE21.JPG,AFSA23.JPG,AFSA22.JPG,AFNE23.JPG,,,,,,,,,,,,,,,,,0,3,3,0,,,,,,,AFNE10.jpg,AFSA13.jpg,AFSA11.jpg,AFNE18.jpg,AFNE10.jpg,FN,3,num_8,16,num_8,0.850158381276,,,2017_Mar_08_1748,59.9987298892,FEMA4ImagesEEG,001,100029,
AFNE23.JPG,AFNE24.JPG,AFNE22.JPG,AFSA24.JPG,AFSA22.JPG,AFSA23.JPG,,,,,,,,,,,,,,,,,0,4,4,8,,,,,,,AFSA18.jpg,AFSA11.jpg,AFNE03.jpg,AFNE06.jpg,AFNE03.jpg,FN,3,num_2,32,num_6,1.68338426668,,,2017_Mar_08_1748,59.9987298892,FEMA4ImagesEEG,001,100029,
AMNE22.JPG,AMSA24.JPG,AMSA22.JPG,AMNE25.JPG,AMNE24.JPG,AMSA25.JPG,,,,,,,,,,,,,,,,,0,5,5,7,,,,,,,AFNE01.jpg,AFNE18.jpg,AFSA13.jpg,AFSA07.jpg,AFNE18.jpg,FN,3,num_6,16,num_6,1.06678251782,,,2017_Mar_08_1748,59.9987298892,FEMA4ImagesEEG,001,100029,
AMSA21.JPG,AMNE23.JPG,AMNE21.JPG,AMSA25.JPG,AMNE25.JPG,AMSA23.JPG,,,,,,,,,,,,,,,,,0,6,6,5,,,,,,,AFNE04.jpg,AFNE16.jpg,AFSA01.jpg,AFSA18.jpg,AFNE04.jpg,FN,3,num_8,32,num_6,1.38339600572,,,2017_Mar_08_1748,59.9987298892,FEMA4ImagesEEG,001,100029,
AFSA21.JPG,AFNE23.JPG,AFNE21.JPG,AFSA25.JPG,AFNE25.JPG,AFSA23.JPG,,,,,,,,,,,,,,,,,0,7,7,4,,,,,,,AFNE07.jpg,AFNE09.jpg,AFSA14.jpg,AFSA20.jpg,AFSA20.jpg,FS,4,num_4,16,num_4,1.01678623818,,,2017_Mar_08_1748,59.9987298892,FEMA4ImagesEEG,001,100029,
AMSA21.JPG,AMNE22.JPG,AMNE21.JPG,AMSA23.JPG,AMSA22.JPG,AMNE23.JPG,,,,,,,,,,,,,,,,,0,8,8,1,,,,,,,AFSA10.jpg,AFNE01.jpg,AFNE12.jpg,AFSA11.jpg,AFNE01.jpg,FN,3,num_6,32,num_8,1.48342737416,,,2017_Mar_08_1748,59.9987298892,FEMA4ImagesEEG,001,100029,
AFSA25.JPG,AFNE24.JPG,AFSA24.JPG,AFNE21.JPG,AFSA21.JPG,AFNE25.JPG,,,,,,,,,,,,,,,,,0,9,9,2,,,,,,,AFSA10.jpg,AFNE02.jpg,AFSA19.jpg,AFNE12.jpg,AFSA19.jpg,FS,4,num_2,32,num_8,1.18344841478,,,2017_Mar_08_1748,59.9987298892,FEMA4ImagesEEG,001,100029,
AMSA21.JPG,AMNE23.JPG,AMNE21.JPG,AMSA25.JPG,AMNE25.JPG,AMSA23.JPG,,,,,,,,,,,,,,,,,,,,,0,0,0,5,,,AMNE03.jpg,AMSA10.jpg,AMSA02.jpg,AMNE16.jpg,AMSA10.jpg,MS,2,num_6,32,num_4,1.23340845061,,,2017_Mar_08_1748,59.9987298892,FEMA4ImagesEEG,001,100029,
AFSA25.JPG,AFNE24.JPG,AFSA24.JPG,AFNE21.JPG,AFSA21.JPG,AFNE25.JPG,,,,,,,,,,,,,,,,,,,,,0,1,1,2,,,AMNE11.jpg,AMNE04.jpg,AMSA18.jpg,AMSA20.jpg,AMSA18.jpg,MS,2,num_2,32,num_4,1.65004464705,,,2017_Mar_08_1748,59.9987298892,FEMA4ImagesEEG,001,100029,
AMSA21.JPG,AMNE22.JPG,AMNE21.JPG,AMSA23.JPG,AMSA22.JPG,AMNE23.JPG,,,,,,,,,,,,,,,,,,,,,0,2,2,1,,,AMSA18.jpg,AMSA01.jpg,AMNE01.jpg,AMNE03.jpg,AMNE03.jpg,MN,1,num_4,16,num_4,1.16679528309,,,2017_Mar_08_1748,59.9987298892,FEMA4ImagesEEG,001,100029,
AFSA21.JPG,AFNE23.JPG,AFNE21.JPG,AFSA25.JPG,AFNE25.JPG,AFSA23.JPG,,,,,,,,,,,,,,,,,,,,,0,3,3,4,,,AMNE06.jpg,AMNE08.jpg,AMSA12.jpg,AMSA15.jpg,AMNE08.jpg,MN,1,num_6,32,num_8,0.966733187903,,,2017_Mar_08_1748,59.9987298892,FEMA4ImagesEEG,001,100029,
AMSA25.JPG,AMNE24.JPG,AMSA24.JPG,AMNE26.JPG,AMSA21.JPG,AMNE25.JPG,,,,,,,,,,,,,,,,,,,,,0,4,4,3,,,AMNE16.jpg,AMSA14.jpg,AMNE08.jpg,AMSA05.jpg,AMNE08.jpg,MN,1,num_2,32,num_8,0.91677507665,,,2017_Mar_08_1748,59.9987298892,FEMA4ImagesEEG,001,100029,
AMNE23.JPG,AMNE24.JPG,AMNE22.JPG,AMSA24.JPG,AMSA22.JPG,AMSA23.JPG,,,,,,,,,,,,,,,,,,,,,0,5,5,9,,,AMSA18.jpg,AMNE06.jpg,AMNE09.jpg,AMSA10.jpg,AMNE06.jpg,MN,1,num_6,16,num_6,0.916422904469,,,2017_Mar_08_1748,59.9987298892,FEMA4ImagesEEG,001,100029,
AFNE23.JPG,AFNE24.JPG,AFNE22.JPG,AFSA24.JPG,AFSA22.JPG,AFSA23.JPG,,,,,,,,,,,,,,,,,,,,,0,6,6,8,,,AMNE09.jpg,AMSA14.jpg,AMSA06.jpg,AMNE11.jpg,AMNE11.jpg,MN,1,num_4,16,num_4,1.94972788449,,,2017_Mar_08_1748,59.9987298892,FEMA4ImagesEEG,001,100029,
AFSA21.JPG,AFNE22.JPG,AFNE21.JPG,AFSA23.JPG,AFSA22.JPG,AFNE23.JPG,,,,,,,,,,,,,,,,,,,,,0,7,7,0,,,AMSA11.jpg,AMSA17.jpg,AMNE10.jpg,AMNE05.jpg,AMSA17.jpg,MS,2,num_6,16,num_6,0.750101995189,,,2017_Mar_08_1748,59.9987298892,FEMA4ImagesEEG,001,100029,
AFNE22.JPG,AFSA24.JPG,AFSA22.JPG,AFNE25.JPG,AFNE24.JPG,AFSA25.JPG,,,,,,,,,,,,,,,,,,,,,0,8,8,6,,,AMNE19.jpg,AMSA10.jpg,AMNE04.jpg,AMSA06.jpg,AMNE04.jpg,MN,1,num_2,16,num_2,0.916811961681,,,2017_Mar_08_1748,59.9987298892,FEMA4ImagesEEG,001,100029,
AMNE22.JPG,AMSA24.JPG,AMSA22.JPG,AMNE25.JPG,AMNE24.JPG,AMSA25.JPG,,,,,,,,,,,,,,,,,,,,,0,9,9,7,,,AMSA14.jpg,AMNE01.jpg,AMNE03.jpg,AMSA17.jpg,AMSA17.jpg,MS,2,num_4,16,num_4,1.033467595,,,2017_Mar_08_1748,59.9987298892,FEMA4ImagesEEG,001,100029,
,,,,,,,,,,,,,,,,,,,,,,,,,,,,,,,,,,,,,,,,,,,space,6.44968554704,2017_Mar_08_1748,59.9987298892,FEMA4ImagesEEG,001,100029,
AFNE01.JPG,AFNE01.JPG,AFNE01.JPG,AFNE01.JPG,AFNE01.JPG,AFNE01.JPG,0,0,0,4,,,,,,,,,,,,,,,,,,,,,,,AFNE04.jpg,AFSA12.jpg,AFNE02.jpg,AFSA05.jpg,AFSA05.jpg,FS,4,num_4,32,num_2,1.18345290516,,,2017_Mar_08_1748,59.9987298892,FEMA4ImagesEEG,001,100029,
AFNE01.JPG,AFNE01.JPG,AFNE01.JPG,AFNE01.JPG,AFNE01.JPG,AFNE01.JPG,0,1,1,7,,,,,,,,,,,,,,,,,,,,,,,AFSA11.jpg,AFNE17.jpg,AFSA16.jpg,AFNE03.jpg,AFSA11.jpg,FS,4,num_8,32,num_2,1.11672812002,,,2017_Mar_08_1748,59.9987298892,FEMA4ImagesEEG,001,100029,
AFNE01.JPG,AFNE01.JPG,AFNE01.JPG,AFNE01.JPG,AFNE01.JPG,AFNE01.JPG,0,2,2,8,,,,,,,,,,,,,,,,,,,,,,,AFSA14.jpg,AFNE12.jpg,AFNE16.jpg,AFSA07.jpg,AFNE12.jpg,FN,3,num_6,16,num_6,0.550232985523,,,2017_Mar_08_1748,59.9987298892,FEMA4ImagesEEG,001,100029,
AFNE01.JPG,AFNE01.JPG,AFNE01.JPG,AFNE01.JPG,AFNE01.JPG,AFNE01.JPG,0,3,3,6,,,,,,,,,,,,,,,,,,,,,,,AFNE09.jpg,AFSA07.jpg,AFSA11.jpg,AFNE13.jpg,AFSA07.jpg,FS,4,num_6,32,num_8,1.51673524082,,,2017_Mar_08_1748,59.9987298892,FEMA4ImagesEEG,001,100029,
AFNE01.JPG,AFNE01.JPG,AFNE01.JPG,AFNE01.JPG,AFNE01.JPG,AFNE01.JPG,0,4,4,5,,,,,,,,,,,,,,,,,,,,,,,AFNE16.jpg,AFSA09.jpg,AFSA03.jpg,AFNE07.jpg,AFSA09.jpg,FS,4,num_6,16,num_6,1.50006029941,,,2017_Mar_08_1748,59.9987298892,FEMA4ImagesEEG,001,100029,
AFNE01.JPG,AFNE01.JPG,AFNE01.JPG,AFNE01.JPG,AFNE01.JPG,AFNE01.JPG,0,5,5,1,,,,,,,,,,,,,,,,,,,,,,,AFNE01.jpg,AFSA18.jpg,AFSA15.jpg,AFNE07.jpg,AFNE07.jpg,FN,3,num_4,16,num_4,1.00011290051,,,2017_Mar_08_1748,59.9987298892,FEMA4ImagesEEG,001,100029,
AFNE01.JPG,AFNE01.JPG,AFNE01.JPG,AFNE01.JPG,AFNE01.JPG,AFNE01.JPG,0,6,6,0,,,,,,,,,,,,,,,,,,,,,,,AFSA18.jpg,AFSA13.jpg,AFNE05.jpg,AFNE10.jpg,AFSA13.jpg,FS,4,num_6,16,num_6,1.16675326647,,,2017_Mar_08_1748,59.9987298892,FEMA4ImagesEEG,001,100029,
AFNE01.JPG,AFNE01.JPG,AFNE01.JPG,AFNE01.JPG,AFNE01.JPG,AFNE01.JPG,0,7,7,3,,,,,,,,,,,,,,,,,,,,,,,AFNE13.jpg,AFNE20.jpg,AFSA09.jpg,AFSA10.jpg,AFSA10.jpg,FS,4,num_4,16,num_4,2.2500740909,,,2017_Mar_08_1748,59.9987298892,FEMA4ImagesEEG,001,100029,
AFNE01.JPG,AFNE01.JPG,AFNE01.JPG,AFNE01.JPG,AFNE01.JPG,AFNE01.JPG,0,8,8,9,,,,,,,,,,,,,,,,,,,,,,,AFSA16.jpg,AFNE02.jpg,AFSA04.jpg,AFNE20.jpg,AFSA16.jpg,FS,4,num_8,16,num_8,0.766888233833,,,2017_Mar_08_1748,59.9987298892,FEMA4ImagesEEG,001,100029,
AFNE01.JPG,AFNE01.JPG,AFNE01.JPG,AFNE01.JPG,AFNE01.JPG,AFNE01.JPG,0,9,9,2,,,,,,,,,,,,,,,,,,,,,,,AFNE15.jpg,AFNE05.jpg,AFSA04.jpg,AFSA06.jpg,AFNE05.jpg,FN,3,num_6,16,num_6,2.20001045614,,,2017_Mar_08_1748,59.9987298892,FEMA4ImagesEEG,001,100029,
AFNE01.JPG,AFNE01.JPG,AFNE01.JPG,AFNE01.JPG,AFNE01.JPG,AFNE01.JPG,1,0,10,9,,,,,,,,,,,,,,,,,,,,,,,AFNE10.jpg,AFSA12.jpg,AFNE15.jpg,AFSA17.jpg,AFSA17.jpg,FS,4,num_4,32,num_6,0.883441551123,,,2017_Mar_08_1748,59.9987298892,FEMA4ImagesEEG,001,100029,
AFNE01.JPG,AFNE01.JPG,AFNE01.JPG,AFNE01.JPG,AFNE01.JPG,AFNE01.JPG,1,1,11,6,,,,,,,,,,,,,,,,,,,,,,,AFNE01.jpg,AFSA18.jpg,AFSA11.jpg,AFNE20.jpg,AFSA18.jpg,FS,4,num_6,16,num_6,0.916748776101,,,2017_Mar_08_1748,59.9987298892,FEMA4ImagesEEG,001,100029,
AFNE01.JPG,AFNE01.JPG,AFNE01.JPG,AFNE01.JPG,AFNE01.JPG,AFNE01.JPG,1,2,12,7,,,,,,,,,,,,,,,,,,,,,,,AFNE12.jpg,AFSA15.jpg,AFSA03.jpg,AFNE19.jpg,AFSA15.jpg,FS,4,num_6,32,num_2,2.89985573106,,,2017_Mar_08_1748,59.9987298892,FEMA4ImagesEEG,001,100029,
AFNE01.JPG,AFNE01.JPG,AFNE01.JPG,AFNE01.JPG,AFNE01.JPG,AFNE01.JPG,1,3,13,5,,,,,,,,,,,,,,,,,,,,,,,AFNE14.jpg,AFSA08.jpg,AFSA15.jpg,AFNE03.jpg,AFNE14.jpg,FN,3,num_8,32,num_2,1.10007210216,,,2017_Mar_08_1748,59.9987298892,FEMA4ImagesEEG,001,100029,
AFNE01.JPG,AFNE01.JPG,AFNE01.JPG,AFNE01.JPG,AFNE01.JPG,AFNE01.JPG,1,4,14,1,,,,,,,,,,,,,,,,,,,,,,,AFNE11.jpg,AFSA01.jpg,AFSA15.jpg,AFNE01.jpg,AFSA01.jpg,FS,4,num_6,16,num_6,2.10005702777,,,2017_Mar_08_1748,59.9987298892,FEMA4ImagesEEG,001,100029,
AFNE01.JPG,AFNE01.JPG,AFNE01.JPG,AFNE01.JPG,AFNE01.JPG,AFNE01.JPG,1,5,15,0,,,,,,,,,,,,,,,,,,,,,,,AFSA05.jpg,AFNE04.jpg,AFNE08.jpg,AFSA16.jpg,AFNE08.jpg,FN,3,num_2,32,num_6,0.816763594281,,,2017_Mar_08_1748,59.9987298892,FEMA4ImagesEEG,001,100029,
AFNE01.JPG,AFNE01.JPG,AFNE01.JPG,AFNE01.JPG,AFNE01.JPG,AFNE01.JPG,1,6,16,8,,,,,,,,,,,,,,,,,,,,,,,AFSA02.jpg,AFNE12.jpg,AFNE01.jpg,AFSA10.jpg,AFNE01.jpg,FN,3,num_2,32,num_6,1.01676282473,,,2017_Mar_08_1748,59.9987298892,FEMA4ImagesEEG,001,100029,
AFNE01.JPG,AFNE01.JPG,AFNE01.JPG,AFNE01.JPG,AFNE01.JPG,AFNE01.JPG,1,7,17,2,,,,,,,,,,,,,,,,,,,,,,,AFNE01.jpg,AFNE10.jpg,AFSA15.jpg,AFSA09.jpg,AFNE10.jpg,FN,3,num_6,16,num_6,1.28343744529,,,2017_Mar_08_1748,59.9987298892,FEMA4ImagesEEG,001,100029,
AFNE01.JPG,AFNE01.JPG,AFNE01.JPG,AFNE01.JPG,AFNE01.JPG,AFNE01.JPG,1,8,18,4,,,,,,,,,,,,,,,,,,,,,,,AFSA15.jpg,AFNE11.jpg,AFNE05.jpg,AFSA10.jpg,AFNE11.jpg,FN,3,num_6,32,num_2,1.20039341925,,,2017_Mar_08_1748,59.9987298892,FEMA4ImagesEEG,001,100029,
AFNE01.JPG,AFNE01.JPG,AFNE01.JPG,AFNE01.JPG,AFNE01.JPG,AFNE01.JPG,1,9,19,3,,,,,,,,,,,,,,,,,,,,,,,AFSA20.jpg,AFNE12.jpg,AFSA17.jpg,AFNE09.jpg,AFNE09.jpg,FN,3,num_4,32,num_6,1.61670727236,,,2017_Mar_08_1748,59.9987298892,FEMA4ImagesEEG,001,100029,
AFNE01.JPG,AFNE01.JPG,AFNE01.JPG,AFNE01.JPG,AFNE01.JPG,AFNE01.JPG,2,0,20,9,,,,,,,,,,,,,,,,,,,,,,,AFSA18.jpg,AFNE20.jpg,AFNE16.jpg,AFSA03.jpg,AFSA18.jpg,FS,4,num_8,32,num_4,1.45011854544,,,2017_Mar_08_1748,59.9987298892,FEMA4ImagesEEG,001,100029,
AFNE01.JPG,AFNE01.JPG,AFNE01.JPG,AFNE01.JPG,AFNE01.JPG,AFNE01.JPG,2,1,21,5,,,,,,,,,,,,,,,,,,,,,,,AFSA15.jpg,AFNE01.jpg,AFSA19.jpg,AFNE17.jpg,AFNE17.jpg,FN,3,num_4,32,num_6,3.79988434119,,,2017_Mar_08_1748,59.9987298892,FEMA4ImagesEEG,001,100029,
AFNE01.JPG,AFNE01.JPG,AFNE01.JPG,AFNE01.JPG,AFNE01.JPG,AFNE01.JPG,2,2,22,4,,,,,,,,,,,,,,,,,,,,,,,AFNE12.jpg,AFSA15.jpg,AFSA11.jpg,AFNE03.jpg,AFSA11.jpg,FS,4,num_2,32,num_6,1.36658731569,,,2017_Mar_08_1748,59.9987298892,FEMA4ImagesEEG,001,100029,
AFNE01.JPG,AFNE01.JPG,AFNE01.JPG,AFNE01.JPG,AFNE01.JPG,AFNE01.JPG,2,3,23,7,,,,,,,,,,,,,,,,,,,,,,,AFNE20.jpg,AFSA19.jpg,AFNE10.jpg,AFSA11.jpg,AFSA19.jpg,FS,4,num_6,16,num_6,0.933445848525,,,2017_Mar_08_1748,59.9987298892,FEMA4ImagesEEG,001,100029,
AFNE01.JPG,AFNE01.JPG,AFNE01.JPG,AFNE01.JPG,AFNE01.JPG,AFNE01.JPG,2,4,24,3,,,,,,,,,,,,,,,,,,,,,,,AFSA01.jpg,AFNE17.jpg,AFNE04.jpg,AFSA09.jpg,AFSA09.jpg,FS,4,num_4,16,num_4,0.98344854312,,,2017_Mar_08_1748,59.9987298892,FEMA4ImagesEEG,001,100029,
AFNE01.JPG,AFNE01.JPG,AFNE01.JPG,AFNE01.JPG,AFNE01.JPG,AFNE01.JPG,2,5,25,2,,,,,,,,,,,,,,,,,,,,,,,AFSA15.jpg,AFNE11.jpg,AFSA14.jpg,AFNE02.jpg,AFNE02.jpg,FN,3,num_4,16,num_4,1.08317360468,,,2017_Mar_08_1748,59.9987298892,FEMA4ImagesEEG,001,100029,
AFNE01.JPG,AFNE01.JPG,AFNE01.JPG,AFNE01.JPG,AFNE01.JPG,AFNE01.JPG,2,6,26,1,,,,,,,,,,,,,,,,,,,,,,,AFNE14.jpg,AFSA19.jpg,AFSA07.jpg,AFNE05.jpg,AFNE05.jpg,FN,3,num_4,16,num_4,0.883408835623,,,2017_Mar_08_1748,59.9987298892,FEMA4ImagesEEG,001,100029,
AFNE01.JPG,AFNE01.JPG,AFNE01.JPG,AFNE01.JPG,AFNE01.JPG,AFNE01.JPG,2,7,27,8,,,,,,,,,,,,,,,,,,,,,,,AFNE19.jpg,AFSA19.jpg,AFSA05.jpg,AFNE12.jpg,AFNE19.jpg,FN,3,num_8,32,num_6,1.45008454705,,,2017_Mar_08_1748,59.9987298892,FEMA4ImagesEEG,001,100029,
AFNE01.JPG,AFNE01.JPG,AFNE01.JPG,AFNE01.JPG,AFNE01.JPG,AFNE01.JPG,2,8,28,0,,,,,,,,,,,,,,,,,,,,,,,AFSA06.jpg,AFSA14.jpg,AFNE04.jpg,AFNE10.jpg,AFSA06.jpg,FS,4,num_8,16,num_8,0.766746146139,,,2017_Mar_08_1748,59.9987298892,FEMA4ImagesEEG,001,100029,
AFNE01.JPG,AFNE01.JPG,AFNE01.JPG,AFNE01.JPG,AFNE01.JPG,AFNE01.JPG,2,9,29,6,,,,,,,,,,,,,,,,,,,,,,,AFSA08.jpg,AFNE04.jpg,AFSA05.jpg,AFNE12.jpg,AFNE04.jpg,FN,3,num_6,32,num_4,0.933490431868,,,2017_Mar_08_1748,59.9987298892,FEMA4ImagesEEG,001,100029,
AFNE01.JPG,AFNE01.JPG,AFNE01.JPG,AFNE01.JPG,AFNE01.JPG,AFNE01.JPG,3,0,30,0,,,,,,,,,,,,,,,,,,,,,,,AFSA06.jpg,AFNE03.jpg,AFSA04.jpg,AFNE02.jpg,AFSA06.jpg,FS,4,num_8,16,num_8,0.783455406781,,,2017_Mar_08_1748,59.9987298892,FEMA4ImagesEEG,001,100029,
AFNE01.JPG,AFNE01.JPG,AFNE01.JPG,AFNE01.JPG,AFNE01.JPG,AFNE01.JPG,3,1,31,7,,,,,,,,,,,,,,,,,,,,,,,AFSA02.jpg,AFNE09.jpg,AFSA12.jpg,AFNE11.jpg,AFSA12.jpg,FS,4,num_2,16,num_2,0.966720358469,,,2017_Mar_08_1748,59.9987298892,FEMA4ImagesEEG,001,100029,
AFNE01.JPG,AFNE01.JPG,AFNE01.JPG,AFNE01.JPG,AFNE01.JPG,AFNE01.JPG,3,2,32,4,,,,,,,,,,,,,,,,,,,,,,,AFNE12.jpg,AFSA05.jpg,AFNE11.jpg,AFSA18.jpg,AFSA05.jpg,FS,4,num_6,32,num_2,2.36664665211,,,2017_Mar_08_1748,59.9987298892,FEMA4ImagesEEG,001,100029,
AFNE01.JPG,AFNE01.JPG,AFNE01.JPG,AFNE01.JPG,AFNE01.JPG,AFNE01.JPG,3,3,33,8,,,,,,,,,,,,,,,,,,,,,,,AFSA03.jpg,AFNE15.jpg,AFNE10.jpg,AFSA04.jpg,AFNE10.jpg,FN,3,num_2,32,num_6,0.816776744556,,,2017_Mar_08_1748,59.9987298892,FEMA4ImagesEEG,001,100029,
AFNE01.JPG,AFNE01.JPG,AFNE01.JPG,AFNE01.JPG,AFNE01.JPG,AFNE01.JPG,3,4,34,2,,,,,,,,,,,,,,,,,,,,,,,AFSA02.jpg,AFSA06.jpg,AFNE16.jpg,AFNE01.jpg,AFSA02.jpg,FS,4,num_8,32,num_6,0.683452263474,,,2017_Mar_08_1748,59.9987298892,FEMA4ImagesEEG,001,100029,
AFNE01.JPG,AFNE01.JPG,AFNE01.JPG,AFNE01.JPG,AFNE01.JPG,AFNE01.JPG,3,5,35,1,,,,,,,,,,,,,,,,,,,,,,,AFSA19.jpg,AFNE02.jpg,AFSA04.jpg,AFNE11.jpg,AFSA19.jpg,FS,4,num_8,32,num_2,0.966794770211,,,2017_Mar_08_1748,59.9987298892,FEMA4ImagesEEG,001,100029,
AFNE01.JPG,AFNE01.JPG,AFNE01.JPG,AFNE01.JPG,AFNE01.JPG,AFNE01.JPG,3,6,36,3,,,,,,,,,,,,,,,,,,,,,,,AFNE11.jpg,AFNE01.jpg,AFSA06.jpg,AFSA07.jpg,AFSA07.jpg,FS,4,num_4,16,num_4,1.46647306811,,,2017_Mar_08_1748,59.9987298892,FEMA4ImagesEEG,001,100029,
AFNE01.JPG,AFNE01.JPG,AFNE01.JPG,AFNE01.JPG,AFNE01.JPG,AFNE01.JPG,3,7,37,6,,,,,,,,,,,,,,,,,,,,,,,AFNE06.jpg,AFSA15.jpg,AFSA17.jpg,AFNE16.jpg,AFSA15.jpg,FS,4,num_6,16,num_6,1.66670579696,,,2017_Mar_08_1748,59.9987298892,FEMA4ImagesEEG,001,100029,
AFNE01.JPG,AFNE01.JPG,AFNE01.JPG,AFNE01.JPG,AFNE01.JPG,AFNE01.JPG,3,8,38,9,,,,,,,,,,,,,,,,,,,,,,,AFSA10.jpg,AFNE17.jpg,AFNE14.jpg,AFSA20.jpg,AFSA10.jpg,FS,4,num_8,16,num_8,1.78341306932,,,2017_Mar_08_1748,59.9987298892,FEMA4ImagesEEG,001,100029,
AFNE01.JPG,AFNE01.JPG,AFNE01.JPG,AFNE01.JPG,AFNE01.JPG,AFNE01.JPG,3,9,39,5,,,,,,,,,,,,,,,,,,,,,,,AFNE04.jpg,AFSA10.jpg,AFNE07.jpg,AFSA11.jpg,AFNE04.jpg,FN,3,num_8,16,num_8,0.683458999265,,,2017_Mar_08_1748,59.9987298892,FEMA4ImagesEEG,001,100029,
AFNE01.JPG,AFNE01.JPG,AFNE01.JPG,AFNE01.JPG,AFNE01.JPG,AFNE01.JPG,4,0,40,7,,,,,,,,,,,,,,,,,,,,,,,AFSA04.jpg,AFNE11.jpg,AFSA10.jpg,AFNE03.jpg,AFSA04.jpg,FS,4,num_8,32,num_2,1.86673196917,,,2017_Mar_08_1748,59.9987298892,FEMA4ImagesEEG,001,100029,
AFNE01.JPG,AFNE01.JPG,AFNE01.JPG,AFNE01.JPG,AFNE01.JPG,AFNE01.JPG,4,1,41,2,,,,,,,,,,,,,,,,,,,,,,,AFSA05.jpg,AFNE06.jpg,AFNE19.jpg,AFSA14.jpg,AFSA14.jpg,FS,4,num_4,32,num_6,0.966781299096,,,2017_Mar_08_1748,59.9987298892,FEMA4ImagesEEG,001,100029,
AFNE01.JPG,AFNE01.JPG,AFNE01.JPG,AFNE01.JPG,AFNE01.JPG,AFNE01.JPG,4,2,42,6,,,,,,,,,,,,,,,,,,,,,,,AFSA09.jpg,AFNE16.jpg,AFSA18.jpg,AFNE19.jpg,AFSA18.jpg,FS,4,num_2,32,num_6,0.983414223883,,,2017_Mar_08_1748,59.9987298892,FEMA4ImagesEEG,001,100029,
AFNE01.JPG,AFNE01.JPG,AFNE01.JPG,AFNE01.JPG,AFNE01.JPG,AFNE01.JPG,4,3,43,8,,,,,,,,,,,,,,,,,,,,,,,AFSA18.jpg,AFSA02.jpg,AFNE16.jpg,AFNE06.jpg,AFNE06.jpg,FN,3,num_4,16,num_4,0.766764748842,,,2017_Mar_08_1748,59.9987298892,FEMA4ImagesEEG,001,100029,
AFNE01.JPG,AFNE01.JPG,AFNE01.JPG,AFNE01.JPG,AFNE01.JPG,AFNE01.JPG,4,4,44,9,,,,,,,,,,,,,,,,,,,,,,,AFSA15.jpg,AFNE17.jpg,AFSA12.jpg,AFNE06.jpg,AFNE17.jpg,FN,3,num_6,16,num_6,1.35010610055,,,2017_Mar_08_1748,59.9987298892,FEMA4ImagesEEG,001,100029,
AFNE01.JPG,AFNE01.JPG,AFNE01.JPG,AFNE01.JPG,AFNE01.JPG,AFNE01.JPG,4,5,45,3,,,,,,,,,,,,,,,,,,,,,,,AFSA02.jpg,AFSA19.jpg,AFNE09.jpg,AFNE07.jpg,AFSA02.jpg,FS,4,num_8,32,num_4,1.08346130885,,,2017_Mar_08_1748,59.9987298892,FEMA4ImagesEEG,001,100029,
AFNE01.JPG,AFNE01.JPG,AFNE01.JPG,AFNE01.JPG,AFNE01.JPG,AFNE01.JPG,4,6,46,1,,,,,,,,,,,,,,,,,,,,,,,AFSA09.jpg,AFNE19.jpg,AFNE03.jpg,AFSA01.jpg,AFNE19.jpg,FN,3,num_6,16,num_6,0.800110462587,,,2017_Mar_08_1748,59.9987298892,FEMA4ImagesEEG,001,100029,
AFNE01.JPG,AFNE01.JPG,AFNE01.JPG,AFNE01.JPG,AFNE01.JPG,AFNE01.JPG,4,7,47,5,,,,,,,,,,,,,,,,,,,,,,,AFNE19.jpg,AFSA02.jpg,AFNE14.jpg,AFSA06.jpg,AFSA02.jpg,FS,4,num_6,32,num_4,1.13340113778,,,2017_Mar_08_1748,59.9987298892,FEMA4ImagesEEG,001,100029,
AFNE01.JPG,AFNE01.JPG,AFNE01.JPG,AFNE01.JPG,AFNE01.JPG,AFNE01.JPG,4,8,48,4,,,,,,,,,,,,,,,,,,,,,,,AFSA06.jpg,AFNE04.jpg,AFSA02.jpg,AFNE06.jpg,AFSA06.jpg,FS,4,num_8,16,num_8,1.06676102802,,,2017_Mar_08_1748,59.9987298892,FEMA4ImagesEEG,001,100029,
AFNE01.JPG,AFNE01.JPG,AFNE01.JPG,AFNE01.JPG,AFNE01.JPG,AFNE01.JPG,4,9,49,0,,,,,,,,,,,,,,,,,,,,,,,AFNE04.jpg,AFSA20.jpg,AFSA02.jpg,AFNE11.jpg,AFSA02.jpg,FS,4,num_2,32,num_4,1.31702916697,,,2017_Mar_08_1748,59.9987298892,FEMA4ImagesEEG,001,100029,
AFNE01.JPG,AFNE01.JPG,AFNE01.JPG,AFNE01.JPG,AFNE01.JPG,AFNE01.JPG,5,0,50,5,,,,,,,,,,,,,,,,,,,,,,,AFSA13.jpg,AFNE01.jpg,AFSA01.jpg,AFNE18.jpg,AFSA01.jpg,FS,4,num_2,16,num_2,1.35009936523,,,2017_Mar_08_1748,59.9987298892,FEMA4ImagesEEG,001,100029,
AFNE01.JPG,AFNE01.JPG,AFNE01.JPG,AFNE01.JPG,AFNE01.JPG,AFNE01.JPG,5,1,51,6,,,,,,,,,,,,,,,,,,,,,,,AFNE16.jpg,AFNE03.jpg,AFSA14.jpg,AFSA04.jpg,AFNE16.jpg,FN,3,num_8,32,num_2,2.34997427696,,,2017_Mar_08_1748,59.9987298892,FEMA4ImagesEEG,001,100029,
AFNE01.JPG,AFNE01.JPG,AFNE01.JPG,AFNE01.JPG,AFNE01.JPG,AFNE01.JPG,5,2,52,0,,,,,,,,,,,,,,,,,,,,,,,AFSA20.jpg,AFNE10.jpg,AFSA12.jpg,AFNE09.jpg,AFSA20.jpg,FS,4,num_8,32,num_4,1.10013336362,,,2017_Mar_08_1748,59.9987298892,FEMA4ImagesEEG,001,100029,
AFNE01.JPG,AFNE01.JPG,AFNE01.JPG,AFNE01.JPG,AFNE01.JPG,AFNE01.JPG,5,3,53,8,,,,,,,,,,,,,,,,,,,,,,,AFSA20.jpg,AFSA11.jpg,AFNE20.jpg,AFNE16.jpg,AFNE16.jpg,FN,3,num_4,16,num_4,0.866758270189,,,2017_Mar_08_1748,59.9987298892,FEMA4ImagesEEG,001,100029,
AFNE01.JPG,AFNE01.JPG,AFNE01.JPG,AFNE01.JPG,AFNE01.JPG,AFNE01.JPG,5,4,54,1,,,,,,,,,,,,,,,,,,,,,,,AFNE06.jpg,AFSA14.jpg,AFNE05.jpg,AFSA16.jpg,AFNE05.jpg,FN,3,num_2,32,num_6,1.21672837716,,,2017_Mar_08_1748,59.9987298892,FEMA4ImagesEEG,001,100029,
AFNE01.JPG,AFNE01.JPG,AFNE01.JPG,AFNE01.JPG,AFNE01.JPG,AFNE01.JPG,5,5,55,3,,,,,,,,,,,,,,,,,,,,,,,AFNE13.jpg,AFSA03.jpg,AFNE18.jpg,AFSA10.jpg,AFNE13.jpg,FN,3,num_8,32,num_2,1.41672247555,,,2017_Mar_08_1748,59.9987298892,FEMA4ImagesEEG,001,100029,
AFNE01.JPG,AFNE01.JPG,AFNE01.JPG,AFNE01.JPG,AFNE01.JPG,AFNE01.JPG,5,6,56,7,,,,,,,,,,,,,,,,,,,,,,,AFNE04.jpg,AFSA07.jpg,AFSA12.jpg,AFNE13.jpg,AFSA12.jpg,FS,4,num_2,16,num_2,1.08340999018,,,2017_Mar_08_1748,59.9987298892,FEMA4ImagesEEG,001,100029,
AFNE01.JPG,AFNE01.JPG,AFNE01.JPG,AFNE01.JPG,AFNE01.JPG,AFNE01.JPG,5,7,57,9,,,,,,,,,,,,,,,,,,,,,,,AFSA06.jpg,AFNE01.jpg,AFSA20.jpg,AFNE08.jpg,AFNE08.jpg,FN,3,num_4,16,num_4,0.883145828731,,,2017_Mar_08_1748,59.9987298892,FEMA4ImagesEEG,001,100029,
AFNE01.JPG,AFNE01.JPG,AFNE01.JPG,AFNE01.JPG,AFNE01.JPG,AFNE01.JPG,5,8,58,4,,,,,,,,,,,,,,,,,,,,,,,AFNE14.jpg,AFNE01.jpg,AFSA11.jpg,AFSA03.jpg,AFNE01.jpg,FN,3,num_6,32,num_8,0.91680811299,,,2017_Mar_08_1748,59.9987298892,FEMA4ImagesEEG,001,100029,
AFNE01.JPG,AFNE01.JPG,AFNE01.JPG,AFNE01.JPG,AFNE01.JPG,AFNE01.JPG,5,9,59,2,,,,,,,,,,,,,,,,,,,,,,,AFNE01.jpg,AFSA07.jpg,AFSA03.jpg,AFNE13.jpg,AFNE01.jpg,FN,3,num_8,32,num_4,0.88347298326,,,2017_Mar_08_1748,59.9987298892,FEMA4ImagesEEG,001,100029,
,,,,,,,,,,,,,,,,,,,,,,,,,,,,,,,,,,,,,,,,,,,space,6.23331447411,2017_Mar_08_1748,59.9987298892,FEMA4ImagesEEG,001,100029,
AFNE01.JPG,AFNE01.JPG,AFNE01.JPG,AFNE01.JPG,AFNE01.JPG,AFNE01.JPG,,,,,0,0,0,6,,,,,,,,,,,,,,,,,,,AMNE10.jpg,AMSA09.jpg,AMNE12.jpg,AMSA11.jpg,AMNE12.jpg,MN,1,num_2,16,num_2,0.966754036024,,,2017_Mar_08_1748,59.9987298892,FEMA4ImagesEEG,001,100029,
AFNE01.JPG,AFNE01.JPG,AFNE01.JPG,AFNE01.JPG,AFNE01.JPG,AFNE01.JPG,,,,,0,1,1,0,,,,,,,,,,,,,,,,,,,AMSA04.jpg,AMSA16.jpg,AMNE14.jpg,AMNE10.jpg,AMNE14.jpg,MN,1,num_2,32,num_4,0.933359249029,,,2017_Mar_08_1748,59.9987298892,FEMA4ImagesEEG,001,100029,
AFNE01.JPG,AFNE01.JPG,AFNE01.JPG,AFNE01.JPG,AFNE01.JPG,AFNE01.JPG,,,,,0,2,2,4,,,,,,,,,,,,,,,,,,,AMNE07.jpg,AMSA08.jpg,AMNE06.jpg,AMSA09.jpg,AMNE07.jpg,MN,1,num_8,16,num_8,1.25019180262,,,2017_Mar_08_1748,59.9987298892,FEMA4ImagesEEG,001,100029,
AFNE01.JPG,AFNE01.JPG,AFNE01.JPG,AFNE01.JPG,AFNE01.JPG,AFNE01.JPG,,,,,0,3,3,3,,,,,,,,,,,,,,,,,,,AMNE02.jpg,AMSA03.jpg,AMSA09.jpg,AMNE11.jpg,AMNE02.jpg,MN,1,num_8,32,num_2,1.55010821763,,,2017_Mar_08_1748,59.9987298892,FEMA4ImagesEEG,001,100029,
AFNE01.JPG,AFNE01.JPG,AFNE01.JPG,AFNE01.JPG,AFNE01.JPG,AFNE01.JPG,,,,,0,4,4,5,,,,,,,,,,,,,,,,,,,AMNE15.jpg,AMNE07.jpg,AMSA11.jpg,AMSA03.jpg,AMNE07.jpg,MN,1,num_6,16,num_6,1.08343115868,,,2017_Mar_08_1748,59.9987298892,FEMA4ImagesEEG,001,100029,
AFNE01.JPG,AFNE01.JPG,AFNE01.JPG,AFNE01.JPG,AFNE01.JPG,AFNE01.JPG,,,,,0,5,5,2,,,,,,,,,,,,,,,,,,,AMNE16.jpg,AMSA17.jpg,AMNE19.jpg,AMSA03.jpg,AMNE19.jpg,MN,1,num_2,16,num_2,0.966796373948,,,2017_Mar_08_1748,59.9987298892,FEMA4ImagesEEG,001,100029,
AFNE01.JPG,AFNE01.JPG,AFNE01.JPG,AFNE01.JPG,AFNE01.JPG,AFNE01.JPG,,,,,0,6,6,9,,,,,,,,,,,,,,,,,,,AMNE09.jpg,AMNE05.jpg,AMSA17.jpg,AMSA18.jpg,AMSA18.jpg,MS,2,num_4,16,num_4,1.06676487718,,,2017_Mar_08_1748,59.9987298892,FEMA4ImagesEEG,001,100029,
AFNE01.JPG,AFNE01.JPG,AFNE01.JPG,AFNE01.JPG,AFNE01.JPG,AFNE01.JPG,,,,,0,7,7,7,,,,,,,,,,,,,,,,,,,AMSA03.jpg,AMNE14.jpg,AMNE05.jpg,AMSA02.jpg,AMNE14.jpg,MN,1,num_6,32,num_8,1.20008999947,,,2017_Mar_08_1748,59.9987298892,FEMA4ImagesEEG,001,100029,
AFNE01.JPG,AFNE01.JPG,AFNE01.JPG,AFNE01.JPG,AFNE01.JPG,AFNE01.JPG,,,,,0,8,8,8,,,,,,,,,,,,,,,,,,,AMSA08.jpg,AMSA20.jpg,AMNE14.jpg,AMNE09.jpg,AMNE09.jpg,MN,1,num_4,16,num_4,0.633492869325,,,2017_Mar_08_1748,59.9987298892,FEMA4ImagesEEG,001,100029,
AFNE01.JPG,AFNE01.JPG,AFNE01.JPG,AFNE01.JPG,AFNE01.JPG,AFNE01.JPG,,,,,0,9,9,1,,,,,,,,,,,,,,,,,,,AMSA12.jpg,AMNE10.jpg,AMSA07.jpg,AMNE01.jpg,AMSA12.jpg,MS,2,num_8,32,num_6,1.05038245022,,,2017_Mar_08_1748,59.9987298892,FEMA4ImagesEEG,001,100029,
AFNE01.JPG,AFNE01.JPG,AFNE01.JPG,AFNE01.JPG,AFNE01.JPG,AFNE01.JPG,,,,,1,0,10,5,,,,,,,,,,,,,,,,,,,AMSA18.jpg,AMNE17.jpg,AMSA10.jpg,AMNE16.jpg,AMSA18.jpg,MS,2,num_8,32,num_2,1.30005657859,,,2017_Mar_08_1748,59.9987298892,FEMA4ImagesEEG,001,100029,
AFNE01.JPG,AFNE01.JPG,AFNE01.JPG,AFNE01.JPG,AFNE01.JPG,AFNE01.JPG,,,,,1,1,11,0,,,,,,,,,,,,,,,,,,,AMNE05.jpg,AMSA08.jpg,AMNE01.jpg,AMSA15.jpg,AMNE05.jpg,MN,1,num_8,32,num_6,0.850140098948,,,2017_Mar_08_1748,59.9987298892,FEMA4ImagesEEG,001,100029,
AFNE01.JPG,AFNE01.JPG,AFNE01.JPG,AFNE01.JPG,AFNE01.JPG,AFNE01.JPG,,,,,1,2,12,7,,,,,,,,,,,,,,,,,,,AMSA20.jpg,AMSA02.jpg,AMNE16.jpg,AMNE20.jpg,AMNE20.jpg,MN,1,num_4,16,num_4,0.733416789677,,,2017_Mar_08_1748,59.9987298892,FEMA4ImagesEEG,001,100029,
AFNE01.JPG,AFNE01.JPG,AFNE01.JPG,AFNE01.JPG,AFNE01.JPG,AFNE01.JPG,,,,,1,3,13,8,,,,,,,,,,,,,,,,,,,AMSA09.jpg,AMNE05.jpg,AMNE10.jpg,AMSA16.jpg,AMNE05.jpg,MN,1,num_6,16,num_6,1.65009019198,,,2017_Mar_08_1748,59.9987298892,FEMA4ImagesEEG,001,100029,
AFNE01.JPG,AFNE01.JPG,AFNE01.JPG,AFNE01.JPG,AFNE01.JPG,AFNE01.JPG,,,,,1,4,14,6,,,,,,,,,,,,,,,,,,,AMSA19.jpg,AMNE13.jpg,AMSA12.jpg,AMNE17.jpg,AMNE17.jpg,MN,1,num_4,16,num_4,0.800107576419,,,2017_Mar_08_1748,59.9987298892,FEMA4ImagesEEG,001,100029,
AFNE01.JPG,AFNE01.JPG,AFNE01.JPG,AFNE01.JPG,AFNE01.JPG,AFNE01.JPG,,,,,1,5,15,9,,,,,,,,,,,,,,,,,,,AMNE05.jpg,AMSA16.jpg,AMSA08.jpg,AMNE11.jpg,AMNE11.jpg,MN,1,num_4,32,num_8,1.13344989019,,,2017_Mar_08_1748,59.9987298892,FEMA4ImagesEEG,001,100029,
AFNE01.JPG,AFNE01.JPG,AFNE01.JPG,AFNE01.JPG,AFNE01.JPG,AFNE01.JPG,,,,,1,6,16,3,,,,,,,,,,,,,,,,,,,AMNE09.jpg,AMSA17.jpg,AMSA10.jpg,AMNE01.jpg,AMNE09.jpg,MN,1,num_8,32,num_2,1.01710729906,,,2017_Mar_08_1748,59.9987298892,FEMA4ImagesEEG,001,100029,
AFNE01.JPG,AFNE01.JPG,AFNE01.JPG,AFNE01.JPG,AFNE01.JPG,AFNE01.JPG,,,,,1,7,17,1,,,,,,,,,,,,,,,,,,,AMSA09.jpg,AMNE16.jpg,AMNE14.jpg,AMSA12.jpg,AMSA12.jpg,MS,2,num_4,16,num_4,0.566802083049,,,2017_Mar_08_1748,59.9987298892,FEMA4ImagesEEG,001,100029,
AFNE01.JPG,AFNE01.JPG,AFNE01.JPG,AFNE01.JPG,AFNE01.JPG,AFNE01.JPG,,,,,1,8,18,4,,,,,,,,,,,,,,,,,,,AMNE09.jpg,AMNE15.jpg,AMSA19.jpg,AMSA08.jpg,AMNE15.jpg,MN,1,num_6,16,num_6,0.950124639552,,,2017_Mar_08_1748,59.9987298892,FEMA4ImagesEEG,001,100029,
AFNE01.JPG,AFNE01.JPG,AFNE01.JPG,AFNE01.JPG,AFNE01.JPG,AFNE01.JPG,,,,,1,9,19,2,,,,,,,,,,,,,,,,,,,AMSA01.jpg,AMSA06.jpg,AMNE01.jpg,AMNE05.jpg,AMSA01.jpg,MS,2,num_8,32,num_2,1.46674120659,,,2017_Mar_08_1748,59.9987298892,FEMA4ImagesEEG,001,100029,
AFNE01.JPG,AFNE01.JPG,AFNE01.JPG,AFNE01.JPG,AFNE01.JPG,AFNE01.JPG,,,,,2,0,20,8,,,,,,,,,,,,,,,,,,,AMSA18.jpg,AMNE13.jpg,AMNE03.jpg,AMSA11.jpg,AMNE03.jpg,MN,1,num_2,32,num_6,1.38340723142,,,2017_Mar_08_1748,59.9987298892,FEMA4ImagesEEG,001,100029,
AFNE01.JPG,AFNE01.JPG,AFNE01.JPG,AFNE01.JPG,AFNE01.JPG,AFNE01.JPG,,,,,2,1,21,2,,,,,,,,,,,,,,,,,,,AMSA15.jpg,AMSA07.jpg,AMNE11.jpg,AMNE17.jpg,AMSA15.jpg,MS,2,num_8,16,num_8,0.666790151503,,,2017_Mar_08_1748,59.9987298892,FEMA4ImagesEEG,001,100029,
AFNE01.JPG,AFNE01.JPG,AFNE01.JPG,AFNE01.JPG,AFNE01.JPG,AFNE01.JPG,,,,,2,2,22,0,,,,,,,,,,,,,,,,,,,AMSA01.jpg,AMNE18.jpg,AMNE08.jpg,AMSA16.jpg,AMNE08.jpg,MN,1,num_2,32,num_6,0.666797207668,,,2017_Mar_08_1748,59.9987298892,FEMA4ImagesEEG,001,100029,
AFNE01.JPG,AFNE01.JPG,AFNE01.JPG,AFNE01.JPG,AFNE01.JPG,AFNE01.JPG,,,,,2,3,23,5,,,,,,,,,,,,,,,,,,,AMNE06.jpg,AMSA09.jpg,AMNE12.jpg,AMSA18.jpg,AMSA09.jpg,MS,2,num_6,16,num_6,0.800143178552,,,2017_Mar_08_1748,59.9987298892,FEMA4ImagesEEG,001,100029,
AFNE01.JPG,AFNE01.JPG,AFNE01.JPG,AFNE01.JPG,AFNE01.JPG,AFNE01.JPG,,,,,2,4,24,6,,,,,,,,,,,,,,,,,,,AMNE19.jpg,AMSA18.jpg,AMSA03.jpg,AMNE08.jpg,AMSA03.jpg,MS,2,num_2,16,num_2,0.933455150574,,,2017_Mar_08_1748,59.9987298892,FEMA4ImagesEEG,001,100029,
AFNE01.JPG,AFNE01.JPG,AFNE01.JPG,AFNE01.JPG,AFNE01.JPG,AFNE01.JPG,,,,,2,5,25,4,,,,,,,,,,,,,,,,,,,AMSA09.jpg,AMNE09.jpg,AMNE11.jpg,AMSA19.jpg,AMSA19.jpg,MS,2,num_4,32,num_6,2.35000635078,,,2017_Mar_08_1748,59.9987298892,FEMA4ImagesEEG,001,100029,
AFNE01.JPG,AFNE01.JPG,AFNE01.JPG,AFNE01.JPG,AFNE01.JPG,AFNE01.JPG,,,,,2,6,26,9,,,,,,,,,,,,,,,,,,,AMSA01.jpg,AMSA12.jpg,AMNE16.jpg,AMNE09.jpg,AMNE09.jpg,MN,1,num_4,16,num_4,1.35004163207,,,2017_Mar_08_1748,59.9987298892,FEMA4ImagesEEG,001,100029,
AFNE01.JPG,AFNE01.JPG,AFNE01.JPG,AFNE01.JPG,AFNE01.JPG,AFNE01.JPG,,,,,2,7,27,7,,,,,,,,,,,,,,,,,,,AMNE20.jpg,AMSA10.jpg,AMSA12.jpg,AMNE17.jpg,AMSA10.jpg,MS,2,num_6,32,num_8,1.81672061514,,,2017_Mar_08_1748,59.9987298892,FEMA4ImagesEEG,001,100029,
AFNE01.JPG,AFNE01.JPG,AFNE01.JPG,AFNE01.JPG,AFNE01.JPG,AFNE01.JPG,,,,,2,8,28,1,,,,,,,,,,,,,,,,,,,AMNE04.jpg,AMSA17.jpg,AMNE15.jpg,AMSA04.jpg,AMNE04.jpg,MN,1,num_8,32,num_4,1.43312542979,,,2017_Mar_08_1748,59.9987298892,FEMA4ImagesEEG,001,100029,
AFNE01.JPG,AFNE01.JPG,AFNE01.JPG,AFNE01.JPG,AFNE01.JPG,AFNE01.JPG,,,,,2,9,29,3,,,,,,,,,,,,,,,,,,,AMSA06.jpg,AMNE09.jpg,AMNE12.jpg,AMSA19.jpg,AMSA06.jpg,MS,2,num_8,32,num_4,1.68339324743,,,2017_Mar_08_1748,59.9987298892,FEMA4ImagesEEG,001,100029,
AFNE01.JPG,AFNE01.JPG,AFNE01.JPG,AFNE01.JPG,AFNE01.JPG,AFNE01.JPG,,,,,3,0,30,4,,,,,,,,,,,,,,,,,,,AMNE07.jpg,AMSA16.jpg,AMSA03.jpg,AMNE11.jpg,AMSA16.jpg,MS,2,num_6,32,num_2,1.0667744996,,,2017_Mar_08_1748,59.9987298892,FEMA4ImagesEEG,001,100029,
AFNE01.JPG,AFNE01.JPG,AFNE01.JPG,AFNE01.JPG,AFNE01.JPG,AFNE01.JPG,,,,,3,1,31,2,,,,,,,,,,,,,,,,,,,AMSA20.jpg,AMSA13.jpg,AMNE09.jpg,AMNE16.jpg,AMNE09.jpg,MN,1,num_2,32,num_4,1.45007075509,,,2017_Mar_08_1748,59.9987298892,FEMA4ImagesEEG,001,100029,
AFNE01.JPG,AFNE01.JPG,AFNE01.JPG,AFNE01.JPG,AFNE01.JPG,AFNE01.JPG,,,,,3,2,32,0,,,,,,,,,,,,,,,,,,,AMSA15.jpg,AMSA05.jpg,AMNE19.jpg,AMNE09.jpg,AMSA05.jpg,MS,2,num_6,16,num_6,1.10013368446,,,2017_Mar_08_1748,59.9987298892,FEMA4ImagesEEG,001,100029,
AFNE01.JPG,AFNE01.JPG,AFNE01.JPG,AFNE01.JPG,AFNE01.JPG,AFNE01.JPG,,,,,3,3,33,7,,,,,,,,,,,,,,,,,,,AMNE13.jpg,AMNE04.jpg,AMSA04.jpg,AMSA10.jpg,AMNE13.jpg,MN,1,num_8,16,num_8,0.950112772174,,,2017_Mar_08_1748,59.9987298892,FEMA4ImagesEEG,001,100029,
AFNE01.JPG,AFNE01.JPG,AFNE01.JPG,AFNE01.JPG,AFNE01.JPG,AFNE01.JPG,,,,,3,4,34,5,,,,,,,,,,,,,,,,,,,AMSA18.jpg,AMNE04.jpg,AMSA13.jpg,AMNE11.jpg,AMSA13.jpg,MS,2,num_2,16,num_2,1.08343083784,,,2017_Mar_08_1748,59.9987298892,FEMA4ImagesEEG,001,100029,
AFNE01.JPG,AFNE01.JPG,AFNE01.JPG,AFNE01.JPG,AFNE01.JPG,AFNE01.JPG,,,,,3,5,35,8,,,,,,,,,,,,,,,,,,,AMNE04.jpg,AMNE17.jpg,AMSA06.jpg,AMSA03.jpg,AMSA03.jpg,MS,2,num_4,16,num_4,1.63338413835,,,2017_Mar_08_1748,59.9987298892,FEMA4ImagesEEG,001,100029,
AFNE01.JPG,AFNE01.JPG,AFNE01.JPG,AFNE01.JPG,AFNE01.JPG,AFNE01.JPG,,,,,3,6,36,3,,,,,,,,,,,,,,,,,,,AMNE09.jpg,AMSA06.jpg,AMSA20.jpg,AMNE13.jpg,AMNE09.jpg,MN,1,num_8,16,num_8,1.20015607215,,,2017_Mar_08_1748,59.9987298892,FEMA4ImagesEEG,001,100029,
AFNE01.JPG,AFNE01.JPG,AFNE01.JPG,AFNE01.JPG,AFNE01.JPG,AFNE01.JPG,,,,,3,7,37,6,,,,,,,,,,,,,,,,,,,AMSA18.jpg,AMSA13.jpg,AMNE08.jpg,AMNE09.jpg,AMSA18.jpg,MS,2,num_8,32,num_4,1.58344815811,,,2017_Mar_08_1748,59.9987298892,FEMA4ImagesEEG,001,100029,
AFNE01.JPG,AFNE01.JPG,AFNE01.JPG,AFNE01.JPG,AFNE01.JPG,AFNE01.JPG,,,,,3,8,38,9,,,,,,,,,,,,,,,,,,,AMSA12.jpg,AMSA16.jpg,AMNE01.jpg,AMNE03.jpg,AMNE03.jpg,MN,1,num_4,32,num_8,1.45009064116,,,2017_Mar_08_1748,59.9987298892,FEMA4ImagesEEG,001,100029,
AFNE01.JPG,AFNE01.JPG,AFNE01.JPG,AFNE01.JPG,AFNE01.JPG,AFNE01.JPG,,,,,3,9,39,1,,,,,,,,,,,,,,,,,,,AMNE11.jpg,AMSA15.jpg,AMSA06.jpg,AMNE14.jpg,AMNE11.jpg,MN,1,num_8,16,num_8,1.61673325207,,,2017_Mar_08_1748,59.9987298892,FEMA4ImagesEEG,001,100029,
AFNE01.JPG,AFNE01.JPG,AFNE01.JPG,AFNE01.JPG,AFNE01.JPG,AFNE01.JPG,,,,,4,0,40,0,,,,,,,,,,,,,,,,,,,AMSA06.jpg,AMNE09.jpg,AMNE07.jpg,AMSA11.jpg,AMNE09.jpg,MN,1,num_6,16,num_6,1.18344809394,,,2017_Mar_08_1748,59.9987298892,FEMA4ImagesEEG,001,100029,
AFNE01.JPG,AFNE01.JPG,AFNE01.JPG,AFNE01.JPG,AFNE01.JPG,AFNE01.JPG,,,,,4,1,41,9,,,,,,,,,,,,,,,,,,,AMSA17.jpg,AMNE10.jpg,AMNE15.jpg,AMSA04.jpg,AMNE10.jpg,MN,1,num_6,16,num_6,1.06703109108,,,2017_Mar_08_1748,59.9987298892,FEMA4ImagesEEG,001,100029,
AFNE01.JPG,AFNE01.JPG,AFNE01.JPG,AFNE01.JPG,AFNE01.JPG,AFNE01.JPG,,,,,4,2,42,8,,,,,,,,,,,,,,,,,,,AMSA17.jpg,AMSA08.jpg,AMNE16.jpg,AMNE08.jpg,AMNE16.jpg,MN,1,num_2,32,num_4,1.61675570393,,,2017_Mar_08_1748,59.9987298892,FEMA4ImagesEEG,001,100029,
AFNE01.JPG,AFNE01.JPG,AFNE01.JPG,AFNE01.JPG,AFNE01.JPG,AFNE01.JPG,,,,,4,3,43,7,,,,,,,,,,,,,,,,,,,AMNE03.jpg,AMSA11.jpg,AMSA14.jpg,AMNE05.jpg,AMSA11.jpg,MS,2,num_6,32,num_2,1.90011328552,,,2017_Mar_08_1748,59.9987298892,FEMA4ImagesEEG,001,100029,
AFNE01.JPG,AFNE01.JPG,AFNE01.JPG,AFNE01.JPG,AFNE01.JPG,AFNE01.JPG,,,,,4,4,44,4,,,,,,,,,,,,,,,,,,,AMSA07.jpg,AMSA12.jpg,AMNE11.jpg,AMNE02.jpg,AMSA07.jpg,MS,2,num_8,32,num_4,1.73337445222,,,2017_Mar_08_1748,59.9987298892,FEMA4ImagesEEG,001,100029,
AFNE01.JPG,AFNE01.JPG,AFNE01.JPG,AFNE01.JPG,AFNE01.JPG,AFNE01.JPG,,,,,4,5,45,2,,,,,,,,,,,,,,,,,,,AMSA14.jpg,AMSA07.jpg,AMNE18.jpg,AMNE20.jpg,AMNE18.jpg,MN,1,num_2,32,num_6,1.2334876731,,,2017_Mar_08_1748,59.9987298892,FEMA4ImagesEEG,001,100029,
AFNE01.JPG,AFNE01.JPG,AFNE01.JPG,AFNE01.JPG,AFNE01.JPG,AFNE01.JPG,,,,,4,6,46,1,,,,,,,,,,,,,,,,,,,AMSA18.jpg,AMNE19.jpg,AMSA08.jpg,AMNE13.jpg,AMNE13.jpg,MN,1,num_4,16,num_4,1.05011944333,,,2017_Mar_08_1748,59.9987298892,FEMA4ImagesEEG,001,100029,
AFNE01.JPG,AFNE01.JPG,AFNE01.JPG,AFNE01.JPG,AFNE01.JPG,AFNE01.JPG,,,,,4,7,47,6,,,,,,,,,,,,,,,,,,,AMSA20.jpg,AMNE11.jpg,AMSA02.jpg,AMNE09.jpg,AMNE11.jpg,MN,1,num_6,32,num_4,1.73335584952,,,2017_Mar_08_1748,59.9987298892,FEMA4ImagesEEG,001,100029,
AFNE01.JPG,AFNE01.JPG,AFNE01.JPG,AFNE01.JPG,AFNE01.JPG,AFNE01.JPG,,,,,4,8,48,3,,,,,,,,,,,,,,,,,,,AMNE03.jpg,AMSA04.jpg,AMSA11.jpg,AMNE05.jpg,AMSA04.jpg,MS,2,num_6,32,num_2,3.29962774972,,,2017_Mar_08_1748,59.9987298892,FEMA4ImagesEEG,001,100029,
AFNE01.JPG,AFNE01.JPG,AFNE01.JPG,AFNE01.JPG,AFNE01.JPG,AFNE01.JPG,,,,,4,9,49,5,,,,,,,,,,,,,,,,,,,AMSA14.jpg,AMNE12.jpg,AMSA09.jpg,AMNE13.jpg,AMNE12.jpg,MN,1,num_6,32,num_4,1.60006151814,,,2017_Mar_08_1748,59.9987298892,FEMA4ImagesEEG,001,100029,
AFNE01.JPG,AFNE01.JPG,AFNE01.JPG,AFNE01.JPG,AFNE01.JPG,AFNE01.JPG,,,,,5,0,50,0,,,,,,,,,,,,,,,,,,,AMNE05.jpg,AMSA18.jpg,AMSA06.jpg,AMNE01.jpg,AMNE05.jpg,MN,1,num_8,16,num_8,1.90038495185,,,2017_Mar_08_1748,59.9987298892,FEMA4ImagesEEG,001,100029,
AFNE01.JPG,AFNE01.JPG,AFNE01.JPG,AFNE01.JPG,AFNE01.JPG,AFNE01.JPG,,,,,5,1,51,5,,,,,,,,,,,,,,,,,,,AMNE09.jpg,AMSA16.jpg,AMNE13.jpg,AMSA12.jpg,AMNE09.jpg,MN,1,num_8,16,num_8,1.00011450378,,,2017_Mar_08_1748,59.9987298892,FEMA4ImagesEEG,001,100029,
AFNE01.JPG,AFNE01.JPG,AFNE01.JPG,AFNE01.JPG,AFNE01.JPG,AFNE01.JPG,,,,,5,2,52,8,,,,,,,,,,,,,,,,,,,AMSA18.jpg,AMNE13.jpg,AMSA02.jpg,AMNE05.jpg,AMNE13.jpg,MN,1,num_6,32,num_4,1.13349960465,,,2017_Mar_08_1748,59.9987298892,FEMA4ImagesEEG,001,100029,
AFNE01.JPG,AFNE01.JPG,AFNE01.JPG,AFNE01.JPG,AFNE01.JPG,AFNE01.JPG,,,,,5,3,53,3,,,,,,,,,,,,,,,,,,,AMNE20.jpg,AMNE09.jpg,AMSA20.jpg,AMSA11.jpg,AMSA20.jpg,MS,2,num_2,16,num_2,1.91667436436,,,2017_Mar_08_1748,59.9987298892,FEMA4ImagesEEG,001,100029,
AFNE01.JPG,AFNE01.JPG,AFNE01.JPG,AFNE01.JPG,AFNE01.JPG,AFNE01.JPG,,,,,5,4,54,6,,,,,,,,,,,,,,,,,,,AMSA04.jpg,AMNE15.jpg,AMSA17.jpg,AMNE20.jpg,AMNE20.jpg,MN,1,num_4,16,num_4,0.816811384633,,,2017_Mar_08_1748,59.9987298892,FEMA4ImagesEEG,001,100029,
AFNE01.JPG,AFNE01.JPG,AFNE01.JPG,AFNE01.JPG,AFNE01.JPG,AFNE01.JPG,,,,,5,5,55,2,,,,,,,,,,,,,,,,,,,AMSA16.jpg,AMNE08.jpg,AMSA05.jpg,AMNE10.jpg,AMSA05.jpg,MS,2,num_2,16,num_2,1.10007883795,,,2017_Mar_08_1748,59.9987298892,FEMA4ImagesEEG,001,100029,
AFNE01.JPG,AFNE01.JPG,AFNE01.JPG,AFNE01.JPG,AFNE01.JPG,AFNE01.JPG,,,,,5,6,56,9,,,,,,,,,,,,,,,,,,,AMNE10.jpg,AMSA12.jpg,AMSA05.jpg,AMNE13.jpg,AMSA12.jpg,MS,2,num_6,16,num_6,0.983473560773,,,2017_Mar_08_1748,59.9987298892,FEMA4ImagesEEG,001,100029,
AFNE01.JPG,AFNE01.JPG,AFNE01.JPG,AFNE01.JPG,AFNE01.JPG,AFNE01.JPG,,,,,5,7,57,7,,,,,,,,,,,,,,,,,,,AMNE12.jpg,AMSA20.jpg,AMNE08.jpg,AMSA02.jpg,AMNE12.jpg,MN,1,num_8,16,num_8,1.48339818651,,,2017_Mar_08_1748,59.9987298892,FEMA4ImagesEEG,001,100029,
AFNE01.JPG,AFNE01.JPG,AFNE01.JPG,AFNE01.JPG,AFNE01.JPG,AFNE01.JPG,,,,,5,8,58,4,,,,,,,,,,,,,,,,,,,AMSA12.jpg,AMSA10.jpg,AMNE01.jpg,AMNE09.jpg,AMSA12.jpg,MS,2,num_8,32,num_6,1.28325911425,,,2017_Mar_08_1748,59.9987298892,FEMA4ImagesEEG,001,100029,
AFNE01.JPG,AFNE01.JPG,AFNE01.JPG,AFNE01.JPG,AFNE01.JPG,AFNE01.JPG,,,,,5,9,59,1,,,,,,,,,,,,,,,,,,,AMNE12.jpg,AMSA07.jpg,AMNE09.jpg,AMSA04.jpg,AMSA07.jpg,MS,2,num_6,32,num_8,2.40004047751,,,2017_Mar_08_1748,59.9987298892,FEMA4ImagesEEG,001,100029,
,,,,,,,,,,,,,,,,,,,,,,,,,,,,,,,,,,,,,,,,,,,space,10.2496805433,2017_Mar_08_1748,59.9987298892,FEMA4ImagesEEG,001,100029,
AFNE01.JPG,AFNE01.JPG,AFNE01.JPG,AFNE01.JPG,AFNE01.JPG,AFNE01.JPG,,,,,,,,,0,0,0,6,,,,,,,,,,,,,,,AFSA10.jpg,AFNE18.jpg,AFSA18.jpg,AFNE20.jpg,AFSA10.jpg,FS,4,num_8,16,num_8,0.900122265797,,,2017_Mar_08_1748,59.9987298892,FEMA4ImagesEEG,001,100029,
AFNE01.JPG,AFNE01.JPG,AFNE01.JPG,AFNE01.JPG,AFNE01.JPG,AFNE01.JPG,,,,,,,,,0,1,1,5,,,,,,,,,,,,,,,AFSA16.jpg,AFNE11.jpg,AFNE04.jpg,AFSA11.jpg,AFSA11.jpg,FS,4,num_4,32,num_6,1.38337387517,,,2017_Mar_08_1748,59.9987298892,FEMA4ImagesEEG,001,100029,
AFNE01.JPG,AFNE01.JPG,AFNE01.JPG,AFNE01.JPG,AFNE01.JPG,AFNE01.JPG,,,,,,,,,0,2,2,0,,,,,,,,,,,,,,,AFSA02.jpg,AFNE12.jpg,AFNE07.jpg,AFSA15.jpg,AFSA15.jpg,FS,4,num_4,16,num_4,1.66674492694,,,2017_Mar_08_1748,59.9987298892,FEMA4ImagesEEG,001,100029,
AFNE01.JPG,AFNE01.JPG,AFNE01.JPG,AFNE01.JPG,AFNE01.JPG,AFNE01.JPG,,,,,,,,,0,3,3,7,,,,,,,,,,,,,,,AFSA18.jpg,AFSA02.jpg,AFNE10.jpg,AFNE02.jpg,AFNE02.jpg,FN,3,num_4,16,num_4,1.23339946987,,,2017_Mar_08_1748,59.9987298892,FEMA4ImagesEEG,001,100029,
AFNE01.JPG,AFNE01.JPG,AFNE01.JPG,AFNE01.JPG,AFNE01.JPG,AFNE01.JPG,,,,,,,,,0,4,4,2,,,,,,,,,,,,,,,AFSA19.jpg,AFNE07.jpg,AFNE18.jpg,AFSA10.jpg,AFNE18.jpg,FN,3,num_2,32,num_8,1.10014747595,,,2017_Mar_08_1748,59.9987298892,FEMA4ImagesEEG,001,100029,
AFNE01.JPG,AFNE01.JPG,AFNE01.JPG,AFNE01.JPG,AFNE01.JPG,AFNE01.JPG,,,,,,,,,0,5,5,9,,,,,,,,,,,,,,,AFSA06.jpg,AFNE09.jpg,AFNE12.jpg,AFSA01.jpg,AFSA06.jpg,FS,4,num_8,32,num_4,1.26671278896,,,2017_Mar_08_1748,59.9987298892,FEMA4ImagesEEG,001,100029,
AFNE01.JPG,AFNE01.JPG,AFNE01.JPG,AFNE01.JPG,AFNE01.JPG,AFNE01.JPG,,,,,,,,,0,6,6,8,,,,,,,,,,,,,,,AFNE01.jpg,AFSA11.jpg,AFSA15.jpg,AFNE14.jpg,AFNE14.jpg,FN,3,num_4,32,num_8,1.35011315718,,,2017_Mar_08_1748,59.9987298892,FEMA4ImagesEEG,001,100029,
AFNE01.JPG,AFNE01.JPG,AFNE01.JPG,AFNE01.JPG,AFNE01.JPG,AFNE01.JPG,,,,,,,,,0,7,7,3,,,,,,,,,,,,,,,AFSA03.jpg,AFSA10.jpg,AFNE05.jpg,AFNE04.jpg,AFNE04.jpg,FN,3,num_4,32,num_8,1.63341460889,,,2017_Mar_08_1748,59.9987298892,FEMA4ImagesEEG,001,100029,
AFNE01.JPG,AFNE01.JPG,AFNE01.JPG,AFNE01.JPG,AFNE01.JPG,AFNE01.JPG,,,,,,,,,0,8,8,4,,,,,,,,,,,,,,,AFNE10.jpg,AFNE05.jpg,AFSA07.jpg,AFSA17.jpg,AFNE10.jpg,FN,3,num_8,32,num_4,1.98335905652,,,2017_Mar_08_1748,59.9987298892,FEMA4ImagesEEG,001,100029,
AFNE01.JPG,AFNE01.JPG,AFNE01.JPG,AFNE01.JPG,AFNE01.JPG,AFNE01.JPG,,,,,,,,,0,9,9,1,,,,,,,,,,,,,,,AFNE01.jpg,AFSA10.jpg,AFNE03.jpg,AFSA06.jpg,AFSA10.jpg,FS,4,num_6,32,num_8,1.45007332135,,,2017_Mar_08_1748,59.9987298892,FEMA4ImagesEEG,001,100029,
AFNE01.JPG,AFNE01.JPG,AFNE01.JPG,AFNE01.JPG,AFNE01.JPG,AFNE01.JPG,,,,,,,,,1,0,10,3,,,,,,,,,,,,,,,AFNE05.jpg,AFSA18.jpg,AFSA16.jpg,AFNE07.jpg,AFNE05.jpg,FN,3,num_8,32,num_4,1.00015748292,,,2017_Mar_08_1748,59.9987298892,FEMA4ImagesEEG,001,100029,
AFNE01.JPG,AFNE01.JPG,AFNE01.JPG,AFNE01.JPG,AFNE01.JPG,AFNE01.JPG,,,,,,,,,1,1,11,4,,,,,,,,,,,,,,,AFSA17.jpg,AFNE17.jpg,AFNE18.jpg,AFSA04.jpg,AFSA04.jpg,FS,4,num_4,32,num_6,1.466670644,,,2017_Mar_08_1748,59.9987298892,FEMA4ImagesEEG,001,100029,
AFNE01.JPG,AFNE01.JPG,AFNE01.JPG,AFNE01.JPG,AFNE01.JPG,AFNE01.JPG,,,,,,,,,1,2,12,6,,,,,,,,,,,,,,,AFNE16.jpg,AFNE10.jpg,AFSA19.jpg,AFSA13.jpg,AFNE16.jpg,FN,3,num_8,16,num_8,3.49994194647,,,2017_Mar_08_1748,59.9987298892,FEMA4ImagesEEG,001,100029,
AFNE01.JPG,AFNE01.JPG,AFNE01.JPG,AFNE01.JPG,AFNE01.JPG,AFNE01.JPG,,,,,,,,,1,3,13,9,,,,,,,,,,,,,,,AFSA12.jpg,AFNE01.jpg,AFNE13.jpg,AFSA15.jpg,AFNE01.jpg,FN,3,num_6,32,num_2,1.28345252015,,,2017_Mar_08_1748,59.9987298892,FEMA4ImagesEEG,001,100029,
AFNE01.JPG,AFNE01.JPG,AFNE01.JPG,AFNE01.JPG,AFNE01.JPG,AFNE01.JPG,,,,,,,,,1,4,14,7,,,,,,,,,,,,,,,AFSA18.jpg,AFSA20.jpg,AFNE14.jpg,AFNE08.jpg,AFNE08.jpg,FN,3,num_4,16,num_4,0.916741399094,,,2017_Mar_08_1748,59.9987298892,FEMA4ImagesEEG,001,100029,
AFNE01.JPG,AFNE01.JPG,AFNE01.JPG,AFNE01.JPG,AFNE01.JPG,AFNE01.JPG,,,,,,,,,1,5,15,8,,,,,,,,,,,,,,,AFSA04.jpg,AFSA01.jpg,AFNE03.jpg,AFNE16.jpg,AFSA01.jpg,FS,4,num_6,16,num_6,0.850179870613,,,2017_Mar_08_1748,59.9987298892,FEMA4ImagesEEG,001,100029,
AFNE01.JPG,AFNE01.JPG,AFNE01.JPG,AFNE01.JPG,AFNE01.JPG,AFNE01.JPG,,,,,,,,,1,6,16,1,,,,,,,,,,,,,,,AFSA15.jpg,AFNE19.jpg,AFNE13.jpg,AFSA01.jpg,AFSA01.jpg,FS,4,num_4,16,num_4,0.866777514573,,,2017_Mar_08_1748,59.9987298892,FEMA4ImagesEEG,001,100029,
AFNE01.JPG,AFNE01.JPG,AFNE01.JPG,AFNE01.JPG,AFNE01.JPG,AFNE01.JPG,,,,,,,,,1,7,17,2,,,,,,,,,,,,,,,AFNE08.jpg,AFNE03.jpg,AFSA19.jpg,AFSA06.jpg,AFSA19.jpg,FS,4,num_2,16,num_2,1.33346387465,,,2017_Mar_08_1748,59.9987298892,FEMA4ImagesEEG,001,100029,
AFNE01.JPG,AFNE01.JPG,AFNE01.JPG,AFNE01.JPG,AFNE01.JPG,AFNE01.JPG,,,,,,,,,1,8,18,0,,,,,,,,,,,,,,,AFSA11.jpg,AFNE18.jpg,AFSA20.jpg,AFNE02.jpg,AFNE02.jpg,FN,3,num_4,16,num_4,1.48346073134,,,2017_Mar_08_1748,59.9987298892,FEMA4ImagesEEG,001,100029,
AFNE01.JPG,AFNE01.JPG,AFNE01.JPG,AFNE01.JPG,AFNE01.JPG,AFNE01.JPG,,,,,,,,,1,9,19,5,,,,,,,,,,,,,,,AFNE11.jpg,AFSA12.jpg,AFSA13.jpg,AFNE17.jpg,AFSA12.jpg,FS,4,num_6,16,num_6,0.850379050244,,,2017_Mar_08_1748,59.9987298892,FEMA4ImagesEEG,001,100029,
AFNE01.JPG,AFNE01.JPG,AFNE01.JPG,AFNE01.JPG,AFNE01.JPG,AFNE01.JPG,,,,,,,,,2,0,20,5,,,,,,,,,,,,,,,AFNE14.jpg,AFSA10.jpg,AFSA20.jpg,AFNE20.jpg,AFNE20.jpg,FN,3,num_4,16,num_4,0.900100135244,,,2017_Mar_08_1748,59.9987298892,FEMA4ImagesEEG,001,100029,
AFNE01.JPG,AFNE01.JPG,AFNE01.JPG,AFNE01.JPG,AFNE01.JPG,AFNE01.JPG,,,,,,,,,2,1,21,6,,,,,,,,,,,,,,,AFSA13.jpg,AFNE17.jpg,AFNE09.jpg,AFSA16.jpg,AFSA13.jpg,FS,4,num_8,32,num_4,0.783489084803,,,2017_Mar_08_1748,59.9987298892,FEMA4ImagesEEG,001,100029,
AFNE01.JPG,AFNE01.JPG,AFNE01.JPG,AFNE01.JPG,AFNE01.JPG,AFNE01.JPG,,,,,,,,,2,2,22,7,,,,,,,,,,,,,,,AFNE08.jpg,AFSA07.jpg,AFNE09.jpg,AFSA14.jpg,AFSA14.jpg,FS,4,num_4,32,num_2,0.966750507709,,,2017_Mar_08_1748,59.9987298892,FEMA4ImagesEEG,001,100029,
AFNE01.JPG,AFNE01.JPG,AFNE01.JPG,AFNE01.JPG,AFNE01.JPG,AFNE01.JPG,,,,,,,,,2,3,23,2,,,,,,,,,,,,,,,AFNE20.jpg,AFNE10.jpg,AFSA08.jpg,AFSA13.jpg,AFNE10.jpg,FN,3,num_6,16,num_6,0.766776295379,,,2017_Mar_08_1748,59.9987298892,FEMA4ImagesEEG,001,100029,
AFNE01.JPG,AFNE01.JPG,AFNE01.JPG,AFNE01.JPG,AFNE01.JPG,AFNE01.JPG,,,,,,,,,2,4,24,3,,,,,,,,,,,,,,,AFSA04.jpg,AFSA09.jpg,AFNE02.jpg,AFNE09.jpg,AFSA04.jpg,FS,4,num_8,16,num_8,1.8500271989,,,2017_Mar_08_1748,59.9987298892,FEMA4ImagesEEG,001,100029,
AFNE01.JPG,AFNE01.JPG,AFNE01.JPG,AFNE01.JPG,AFNE01.JPG,AFNE01.JPG,,,,,,,,,2,5,25,4,,,,,,,,,,,,,,,AFNE15.jpg,AFNE20.jpg,AFSA08.jpg,AFSA19.jpg,AFSA19.jpg,FS,4,num_4,32,num_8,2.4500114182,,,2017_Mar_08_1748,59.9987298892,FEMA4ImagesEEG,001,100029,
AFNE01.JPG,AFNE01.JPG,AFNE01.JPG,AFNE01.JPG,AFNE01.JPG,AFNE01.JPG,,,,,,,,,2,6,26,0,,,,,,,,,,,,,,,AFSA20.jpg,AFNE07.jpg,AFNE15.jpg,AFSA08.jpg,AFNE15.jpg,FN,3,num_2,32,num_8,1.60004195292,,,2017_Mar_08_1748,59.9987298892,FEMA4ImagesEEG,001,100029,
AFNE01.JPG,AFNE01.JPG,AFNE01.JPG,AFNE01.JPG,AFNE01.JPG,AFNE01.JPG,,,,,,,,,2,7,27,8,,,,,,,,,,,,,,,AFSA04.jpg,AFNE10.jpg,AFNE06.jpg,AFSA10.jpg,AFSA10.jpg,FS,4,num_4,32,num_2,2.11671978096,,,2017_Mar_08_1748,59.9987298892,FEMA4ImagesEEG,001,100029,
AFNE01.JPG,AFNE01.JPG,AFNE01.JPG,AFNE01.JPG,AFNE01.JPG,AFNE01.JPG,,,,,,,,,2,8,28,1,,,,,,,,,,,,,,,AFSA06.jpg,AFNE20.jpg,AFNE10.jpg,AFSA17.jpg,AFNE20.jpg,FN,3,num_6,16,num_6,1.51672754297,,,2017_Mar_08_1748,59.9987298892,FEMA4ImagesEEG,001,100029,
AFNE01.JPG,AFNE01.JPG,AFNE01.JPG,AFNE01.JPG,AFNE01.JPG,AFNE01.JPG,,,,,,,,,2,9,29,9,,,,,,,,,,,,,,,AFNE18.jpg,AFSA03.jpg,AFNE06.jpg,AFSA14.jpg,AFNE06.jpg,FN,3,num_2,32,num_4,1.3500284818,,,2017_Mar_08_1748,59.9987298892,FEMA4ImagesEEG,001,100029,
AFNE01.JPG,AFNE01.JPG,AFNE01.JPG,AFNE01.JPG,AFNE01.JPG,AFNE01.JPG,,,,,,,,,3,0,30,3,,,,,,,,,,,,,,,AFSA17.jpg,AFNE07.jpg,AFNE20.jpg,AFSA06.jpg,AFNE20.jpg,FN,3,num_2,32,num_4,1.78342429502,,,2017_Mar_08_1748,59.9987298892,FEMA4ImagesEEG,001,100029,
AFNE01.JPG,AFNE01.JPG,AFNE01.JPG,AFNE01.JPG,AFNE01.JPG,AFNE01.JPG,,,,,,,,,3,1,31,4,,,,,,,,,,,,,,,AFSA18.jpg,AFNE05.jpg,AFNE16.jpg,AFSA11.jpg,AFNE05.jpg,FN,3,num_6,16,num_6,1.9500101353,,,2017_Mar_08_1748,59.9987298892,FEMA4ImagesEEG,001,100029,
AFNE01.JPG,AFNE01.JPG,AFNE01.JPG,AFNE01.JPG,AFNE01.JPG,AFNE01.JPG,,,,,,,,,3,2,32,5,,,,,,,,,,,,,,,AFSA20.jpg,AFSA17.jpg,AFNE16.jpg,AFNE03.jpg,AFNE03.jpg,FN,3,num_4,32,num_8,2.78332197899,,,2017_Mar_08_1748,59.9987298892,FEMA4ImagesEEG,001,100029,
AFNE01.JPG,AFNE01.JPG,AFNE01.JPG,AFNE01.JPG,AFNE01.JPG,AFNE01.JPG,,,,,,,,,3,3,33,8,,,,,,,,,,,,,,,AFSA17.jpg,AFSA15.jpg,AFNE06.jpg,AFNE09.jpg,AFNE06.jpg,FN,3,num_2,32,num_4,2.16664004512,,,2017_Mar_08_1748,59.9987298892,FEMA4ImagesEEG,001,100029,
AFNE01.JPG,AFNE01.JPG,AFNE01.JPG,AFNE01.JPG,AFNE01.JPG,AFNE01.JPG,,,,,,,,,3,4,34,1,,,,,,,,,,,,,,,AFSA08.jpg,AFNE06.jpg,AFSA12.jpg,AFNE03.jpg,AFNE03.jpg,FN,3,num_4,32,num_8,1.26671022316,,,2017_Mar_08_1748,59.9987298892,FEMA4ImagesEEG,001,100029,
AFNE01.JPG,AFNE01.JPG,AFNE01.JPG,AFNE01.JPG,AFNE01.JPG,AFNE01.JPG,,,,,,,,,3,5,35,0,,,,,,,,,,,,,,,AFNE10.jpg,AFSA04.jpg,AFSA18.jpg,AFNE09.jpg,AFNE10.jpg,FN,3,num_8,16,num_8,1.35009038448,,,2017_Mar_08_1748,59.9987298892,FEMA4ImagesEEG,001,100029,
AFNE01.JPG,AFNE01.JPG,AFNE01.JPG,AFNE01.JPG,AFNE01.JPG,AFNE01.JPG,,,,,,,,,3,6,36,7,,,,,,,,,,,,,,,AFSA19.jpg,AFSA14.jpg,AFNE09.jpg,AFNE13.jpg,AFNE09.jpg,FN,3,num_2,32,num_4,2.43299136078,,,2017_Mar_08_1748,59.9987298892,FEMA4ImagesEEG,001,100029,
AFNE01.JPG,AFNE01.JPG,AFNE01.JPG,AFNE01.JPG,AFNE01.JPG,AFNE01.JPG,,,,,,,,,3,7,37,6,,,,,,,,,,,,,,,AFNE14.jpg,AFSA16.jpg,AFNE09.jpg,AFSA11.jpg,AFSA11.jpg,FS,4,num_4,16,num_4,0.783452840988,,,2017_Mar_08_1748,59.9987298892,FEMA4ImagesEEG,001,100029,
AFNE01.JPG,AFNE01.JPG,AFNE01.JPG,AFNE01.JPG,AFNE01.JPG,AFNE01.JPG,,,,,,,,,3,8,38,2,,,,,,,,,,,,,,,AFSA05.jpg,AFNE10.jpg,AFNE13.jpg,AFSA12.jpg,AFNE10.jpg,FN,3,num_6,16,num_6,1.26679650228,,,2017_Mar_08_1748,59.9987298892,FEMA4ImagesEEG,001,100029,
AFNE01.JPG,AFNE01.JPG,AFNE01.JPG,AFNE01.JPG,AFNE01.JPG,AFNE01.JPG,,,,,,,,,3,9,39,9,,,,,,,,,,,,,,,AFSA11.jpg,AFNE03.jpg,AFNE06.jpg,AFSA09.jpg,AFNE03.jpg,FN,3,num_6,32,num_4,1.40011328505,,,2017_Mar_08_1748,59.9987298892,FEMA4ImagesEEG,001,100029,
AFNE01.JPG,AFNE01.JPG,AFNE01.JPG,AFNE01.JPG,AFNE01.JPG,AFNE01.JPG,,,,,,,,,4,0,40,4,,,,,,,,,,,,,,,AFSA08.jpg,AFNE05.jpg,AFSA18.jpg,AFNE17.jpg,AFNE05.jpg,FN,3,num_6,32,num_8,1.3667316488,,,2017_Mar_08_1748,59.9987298892,FEMA4ImagesEEG,001,100029,
AFNE01.JPG,AFNE01.JPG,AFNE01.JPG,AFNE01.JPG,AFNE01.JPG,AFNE01.JPG,,,,,,,,,4,1,41,0,,,,,,,,,,,,,,,AFNE13.jpg,AFSA14.jpg,AFSA16.jpg,AFNE07.jpg,AFNE13.jpg,FN,3,num_8,32,num_6,1.48349120142,,,2017_Mar_08_1748,59.9987298892,FEMA4ImagesEEG,001,100029,
AFNE01.JPG,AFNE01.JPG,AFNE01.JPG,AFNE01.JPG,AFNE01.JPG,AFNE01.JPG,,,,,,,,,4,2,42,8,,,,,,,,,,,,,,,AFSA09.jpg,AFNE12.jpg,AFSA11.jpg,AFNE15.jpg,AFSA09.jpg,FS,4,num_8,16,num_8,0.950111488812,,,2017_Mar_08_1748,59.9987298892,FEMA4ImagesEEG,001,100029,
AFNE01.JPG,AFNE01.JPG,AFNE01.JPG,AFNE01.JPG,AFNE01.JPG,AFNE01.JPG,,,,,,,,,4,3,43,3,,,,,,,,,,,,,,,AFNE09.jpg,AFSA10.jpg,AFSA11.jpg,AFNE07.jpg,AFNE09.jpg,FN,3,num_8,32,num_4,2.23342224257,,,2017_Mar_08_1748,59.9987298892,FEMA4ImagesEEG,001,100029,
AFNE01.JPG,AFNE01.JPG,AFNE01.JPG,AFNE01.JPG,AFNE01.JPG,AFNE01.JPG,,,,,,,,,4,4,44,9,,,,,,,,,,,,,,,AFNE14.jpg,AFSA12.jpg,AFSA18.jpg,AFNE18.jpg,AFSA18.jpg,FS,4,num_2,16,num_2,0.61678874027,,,2017_Mar_08_1748,59.9987298892,FEMA4ImagesEEG,001,100029,
AFNE01.JPG,AFNE01.JPG,AFNE01.JPG,AFNE01.JPG,AFNE01.JPG,AFNE01.JPG,,,,,,,,,4,5,45,5,,,,,,,,,,,,,,,AFNE10.jpg,AFNE12.jpg,AFSA19.jpg,AFSA17.jpg,AFSA17.jpg,FS,4,num_4,32,num_8,1.93341473723,,,2017_Mar_08_1748,59.9987298892,FEMA4ImagesEEG,001,100029,
AFNE01.JPG,AFNE01.JPG,AFNE01.JPG,AFNE01.JPG,AFNE01.JPG,AFNE01.JPG,,,,,,,,,4,6,46,6,,,,,,,,,,,,,,,AFNE10.jpg,AFNE13.jpg,AFSA09.jpg,AFSA01.jpg,AFNE13.jpg,FN,3,num_6,16,num_6,1.08317360468,,,2017_Mar_08_1748,59.9987298892,FEMA4ImagesEEG,001,100029,
AFNE01.JPG,AFNE01.JPG,AFNE01.JPG,AFNE01.JPG,AFNE01.JPG,AFNE01.JPG,,,,,,,,,4,7,47,7,,,,,,,,,,,,,,,AFNE09.jpg,AFNE17.jpg,AFSA11.jpg,AFSA18.jpg,AFSA11.jpg,FS,4,num_2,16,num_2,0.633462078404,,,2017_Mar_08_1748,59.9987298892,FEMA4ImagesEEG,001,100029,
AFNE01.JPG,AFNE01.JPG,AFNE01.JPG,AFNE01.JPG,AFNE01.JPG,AFNE01.JPG,,,,,,,,,4,8,48,1,,,,,,,,,,,,,,,AFNE02.jpg,AFSA11.jpg,AFNE13.jpg,AFSA17.jpg,AFSA11.jpg,FS,4,num_6,32,num_4,1.38345373888,,,2017_Mar_08_1748,59.9987298892,FEMA4ImagesEEG,001,100029,
AFNE01.JPG,AFNE01.JPG,AFNE01.JPG,AFNE01.JPG,AFNE01.JPG,AFNE01.JPG,,,,,,,,,4,9,49,2,,,,,,,,,,,,,,,AFSA05.jpg,AFSA17.jpg,AFNE07.jpg,AFNE08.jpg,AFSA17.jpg,FS,4,num_6,32,num_8,0.950254859868,,,2017_Mar_08_1748,59.9987298892,FEMA4ImagesEEG,001,100029,
AFNE01.JPG,AFNE01.JPG,AFNE01.JPG,AFNE01.JPG,AFNE01.JPG,AFNE01.JPG,,,,,,,,,5,0,50,9,,,,,,,,,,,,,,,AFSA15.jpg,AFSA09.jpg,AFNE17.jpg,AFNE10.jpg,AFNE10.jpg,FN,3,num_4,16,num_4,0.850155494642,,,2017_Mar_08_1748,59.9987298892,FEMA4ImagesEEG,001,100029,
AFNE01.JPG,AFNE01.JPG,AFNE01.JPG,AFNE01.JPG,AFNE01.JPG,AFNE01.JPG,,,,,,,,,5,1,51,8,,,,,,,,,,,,,,,AFNE09.jpg,AFNE19.jpg,AFSA14.jpg,AFSA03.jpg,AFSA03.jpg,FS,4,num_4,16,num_4,0.850149400532,,,2017_Mar_08_1748,59.9987298892,FEMA4ImagesEEG,001,100029,
AFNE01.JPG,AFNE01.JPG,AFNE01.JPG,AFNE01.JPG,AFNE01.JPG,AFNE01.JPG,,,,,,,,,5,2,52,5,,,,,,,,,,,,,,,AFSA03.jpg,AFSA05.jpg,AFNE06.jpg,AFNE19.jpg,AFNE19.jpg,FN,3,num_4,32,num_2,0.866782967001,,,2017_Mar_08_1748,59.9987298892,FEMA4ImagesEEG,001,100029,
AFNE01.JPG,AFNE01.JPG,AFNE01.JPG,AFNE01.JPG,AFNE01.JPG,AFNE01.JPG,,,,,,,,,5,3,53,1,,,,,,,,,,,,,,,AFNE06.jpg,AFSA11.jpg,AFNE08.jpg,AFSA06.jpg,AFSA11.jpg,FS,4,num_6,32,num_8,1.35013304278,,,2017_Mar_08_1748,59.9987298892,FEMA4ImagesEEG,001,100029,
AFNE01.JPG,AFNE01.JPG,AFNE01.JPG,AFNE01.JPG,AFNE01.JPG,AFNE01.JPG,,,,,,,,,5,4,54,3,,,,,,,,,,,,,,,AFNE19.jpg,AFNE09.jpg,AFSA18.jpg,AFSA07.jpg,AFNE19.jpg,FN,3,num_8,16,num_8,0.733480296098,,,2017_Mar_08_1748,59.9987298892,FEMA4ImagesEEG,001,100029,
AFNE01.JPG,AFNE01.JPG,AFNE01.JPG,AFNE01.JPG,AFNE01.JPG,AFNE01.JPG,,,,,,,,,5,5,55,4,,,,,,,,,,,,,,,AFNE05.jpg,AFSA04.jpg,AFNE09.jpg,AFSA18.jpg,AFNE09.jpg,FN,3,num_2,16,num_2,2.06670586066,,,2017_Mar_08_1748,59.9987298892,FEMA4ImagesEEG,001,100029,
AFNE01.JPG,AFNE01.JPG,AFNE01.JPG,AFNE01.JPG,AFNE01.JPG,AFNE01.JPG,,,,,,,,,5,6,56,2,,,,,,,,,,,,,,,AFSA02.jpg,AFSA09.jpg,AFNE09.jpg,AFNE13.jpg,AFNE09.jpg,FN,3,num_2,16,num_2,1.03351474414,,,2017_Mar_08_1748,59.9987298892,FEMA4ImagesEEG,001,100029,
AFNE01.JPG,AFNE01.JPG,AFNE01.JPG,AFNE01.JPG,AFNE01.JPG,AFNE01.JPG,,,,,,,,,5,7,57,0,,,,,,,,,,,,,,,AFNE01.jpg,AFSA09.jpg,AFNE08.jpg,AFSA15.jpg,AFSA09.jpg,FS,4,num_6,16,num_6,1.36674928898,,,2017_Mar_08_1748,59.9987298892,FEMA4ImagesEEG,001,100029,
AFNE01.JPG,AFNE01.JPG,AFNE01.JPG,AFNE01.JPG,AFNE01.JPG,AFNE01.JPG,,,,,,,,,5,8,58,7,,,,,,,,,,,,,,,AFSA12.jpg,AFNE15.jpg,AFSA10.jpg,AFNE03.jpg,AFNE15.jpg,FN,3,num_6,16,num_6,0.983421601355,,,2017_Mar_08_1748,59.9987298892,FEMA4ImagesEEG,001,100029,
AFNE01.JPG,AFNE01.JPG,AFNE01.JPG,AFNE01.JPG,AFNE01.JPG,AFNE01.JPG,,,,,,,,,5,9,59,6,,,,,,,,,,,,,,,AFSA16.jpg,AFNE15.jpg,AFNE01.jpg,AFSA18.jpg,AFSA16.jpg,FS,4,num_8,16,num_8,1.50005933689,,,2017_Mar_08_1748,59.9987298892,FEMA4ImagesEEG,001,100029,
,,,,,,,,,,,,,,,,,,,,,,,,,,,,,,,,,,,,,,,,,,,space,8.6164926975,2017_Mar_08_1748,59.9987298892,FEMA4ImagesEEG,001,100029,
AFNE01.JPG,AFNE01.JPG,AFNE01.JPG,AFNE01.JPG,AFNE01.JPG,AFNE01.JPG,,,,,,,,,,,,,0,0,0,0,,,,,,,,,,,AMNE04.jpg,AMNE13.jpg,AMSA11.jpg,AMSA01.jpg,AMSA01.jpg,MS,2,num_4,16,num_4,1.15012643579,,,2017_Mar_08_1748,59.9987298892,FEMA4ImagesEEG,001,100029,
AFNE01.JPG,AFNE01.JPG,AFNE01.JPG,AFNE01.JPG,AFNE01.JPG,AFNE01.JPG,,,,,,,,,,,,,0,1,1,7,,,,,,,,,,,AMSA20.jpg,AMNE11.jpg,AMNE12.jpg,AMSA10.jpg,AMNE12.jpg,MN,1,num_2,32,num_8,1.96666422905,,,2017_Mar_08_1748,59.9987298892,FEMA4ImagesEEG,001,100029,
AFNE01.JPG,AFNE01.JPG,AFNE01.JPG,AFNE01.JPG,AFNE01.JPG,AFNE01.JPG,,,,,,,,,,,,,0,2,2,2,,,,,,,,,,,AMSA13.jpg,AMNE08.jpg,AMNE05.jpg,AMSA19.jpg,AMSA13.jpg,MS,2,num_8,32,num_4,1.25009750482,,,2017_Mar_08_1748,59.9987298892,FEMA4ImagesEEG,001,100029,
AFNE01.JPG,AFNE01.JPG,AFNE01.JPG,AFNE01.JPG,AFNE01.JPG,AFNE01.JPG,,,,,,,,,,,,,0,3,3,8,,,,,,,,,,,AMNE17.jpg,AMNE04.jpg,AMSA04.jpg,AMSA09.jpg,AMSA09.jpg,MS,2,num_4,32,num_8,1.88336040406,,,2017_Mar_08_1748,59.9987298892,FEMA4ImagesEEG,001,100029,
AFNE01.JPG,AFNE01.JPG,AFNE01.JPG,AFNE01.JPG,AFNE01.JPG,AFNE01.JPG,,,,,,,,,,,,,0,4,4,4,,,,,,,,,,,AMSA07.jpg,AMNE15.jpg,AMNE07.jpg,AMSA12.jpg,AMNE07.jpg,MN,1,num_2,32,num_4,1.00015844544,,,2017_Mar_08_1748,59.9987298892,FEMA4ImagesEEG,001,100029,
AFNE01.JPG,AFNE01.JPG,AFNE01.JPG,AFNE01.JPG,AFNE01.JPG,AFNE01.JPG,,,,,,,,,,,,,0,5,5,9,,,,,,,,,,,AMNE15.jpg,AMNE17.jpg,AMSA14.jpg,AMSA05.jpg,AMNE17.jpg,MN,1,num_6,16,num_6,0.950104111806,,,2017_Mar_08_1748,59.9987298892,FEMA4ImagesEEG,001,100029,
AFNE01.JPG,AFNE01.JPG,AFNE01.JPG,AFNE01.JPG,AFNE01.JPG,AFNE01.JPG,,,,,,,,,,,,,0,6,6,1,,,,,,,,,,,AMSA18.jpg,AMNE20.jpg,AMNE10.jpg,AMSA15.jpg,AMNE10.jpg,MN,1,num_2,16,num_2,1.28342525754,,,2017_Mar_08_1748,59.9987298892,FEMA4ImagesEEG,001,100029,
AFNE01.JPG,AFNE01.JPG,AFNE01.JPG,AFNE01.JPG,AFNE01.JPG,AFNE01.JPG,,,,,,,,,,,,,0,7,7,5,,,,,,,,,,,AMNE08.jpg,AMSA18.jpg,AMNE20.jpg,AMSA08.jpg,AMSA08.jpg,MS,2,num_4,32,num_8,4.53319304157,,,2017_Mar_08_1748,59.9987298892,FEMA4ImagesEEG,001,100029,
AFNE01.JPG,AFNE01.JPG,AFNE01.JPG,AFNE01.JPG,AFNE01.JPG,AFNE01.JPG,,,,,,,,,,,,,0,8,8,3,,,,,,,,,,,AMSA03.jpg,AMNE08.jpg,AMSA11.jpg,AMNE13.jpg,AMSA11.jpg,MS,2,num_2,16,num_2,0.750131182838,,,2017_Mar_08_1748,59.9987298892,FEMA4ImagesEEG,001,100029,
AFNE01.JPG,AFNE01.JPG,AFNE01.JPG,AFNE01.JPG,AFNE01.JPG,AFNE01.JPG,,,,,,,,,,,,,0,9,9,6,,,,,,,,,,,AMNE16.jpg,AMNE05.jpg,AMSA13.jpg,AMSA05.jpg,AMNE05.jpg,MN,1,num_6,32,num_8,1.30010244437,,,2017_Mar_08_1748,59.9987298892,FEMA4ImagesEEG,001,100029,
AFNE01.JPG,AFNE01.JPG,AFNE01.JPG,AFNE01.JPG,AFNE01.JPG,AFNE01.JPG,,,,,,,,,,,,,1,0,10,3,,,,,,,,,,,AMSA16.jpg,AMNE18.jpg,AMNE19.jpg,AMSA03.jpg,AMSA03.jpg,MS,2,num_4,32,num_2,1.86683973763,,,2017_Mar_08_1748,59.9987298892,FEMA4ImagesEEG,001,100029,
AFNE01.JPG,AFNE01.JPG,AFNE01.JPG,AFNE01.JPG,AFNE01.JPG,AFNE01.JPG,,,,,,,,,,,,,1,1,11,2,,,,,,,,,,,AMNE08.jpg,AMSA08.jpg,AMSA14.jpg,AMNE07.jpg,AMNE08.jpg,MN,1,num_8,16,num_8,1.03342237044,,,2017_Mar_08_1748,59.9987298892,FEMA4ImagesEEG,001,100029,
AFNE01.JPG,AFNE01.JPG,AFNE01.JPG,AFNE01.JPG,AFNE01.JPG,AFNE01.JPG,,,,,,,,,,,,,1,2,12,7,,,,,,,,,,,AMNE19.jpg,AMNE14.jpg,AMSA17.jpg,AMSA13.jpg,AMNE19.jpg,MN,1,num_8,32,num_2,1.78338708915,,,2017_Mar_08_1748,59.9987298892,FEMA4ImagesEEG,001,100029,
AFNE01.JPG,AFNE01.JPG,AFNE01.JPG,AFNE01.JPG,AFNE01.JPG,AFNE01.JPG,,,,,,,,,,,,,1,3,13,4,,,,,,,,,,,AMSA20.jpg,AMNE16.jpg,AMSA04.jpg,AMNE19.jpg,AMSA20.jpg,MS,2,num_8,16,num_8,1.80011719791,,,2017_Mar_08_1748,59.9987298892,FEMA4ImagesEEG,001,100029,
AFNE01.JPG,AFNE01.JPG,AFNE01.JPG,AFNE01.JPG,AFNE01.JPG,AFNE01.JPG,,,,,,,,,,,,,1,4,14,5,,,,,,,,,,,AMNE19.jpg,AMSA04.jpg,AMSA15.jpg,AMNE09.jpg,AMNE09.jpg,MN,1,num_4,32,num_8,1.83337246394,,,2017_Mar_08_1748,59.9987298892,FEMA4ImagesEEG,001,100029,
AFNE01.JPG,AFNE01.JPG,AFNE01.JPG,AFNE01.JPG,AFNE01.JPG,AFNE01.JPG,,,,,,,,,,,,,1,5,15,9,,,,,,,,,,,AMNE16.jpg,AMNE01.jpg,AMSA07.jpg,AMSA15.jpg,AMSA07.jpg,MS,2,num_2,16,num_2,0.933464130852,,,2017_Mar_08_1748,59.9987298892,FEMA4ImagesEEG,001,100029,
AFNE01.JPG,AFNE01.JPG,AFNE01.JPG,AFNE01.JPG,AFNE01.JPG,AFNE01.JPG,,,,,,,,,,,,,1,6,16,0,,,,,,,,,,,AMNE09.jpg,AMSA15.jpg,AMNE20.jpg,AMSA16.jpg,AMNE20.jpg,MN,1,num_2,16,num_2,0.766993115656,,,2017_Mar_08_1748,59.9987298892,FEMA4ImagesEEG,001,100029,
AFNE01.JPG,AFNE01.JPG,AFNE01.JPG,AFNE01.JPG,AFNE01.JPG,AFNE01.JPG,,,,,,,,,,,,,1,7,17,6,,,,,,,,,,,AMSA05.jpg,AMNE02.jpg,AMNE10.jpg,AMSA14.jpg,AMSA05.jpg,MS,2,num_8,16,num_8,1.3001264995,,,2017_Mar_08_1748,59.9987298892,FEMA4ImagesEEG,001,100029,
AFNE01.JPG,AFNE01.JPG,AFNE01.JPG,AFNE01.JPG,AFNE01.JPG,AFNE01.JPG,,,,,,,,,,,,,1,8,18,1,,,,,,,,,,,AMSA15.jpg,AMNE04.jpg,AMNE16.jpg,AMSA12.jpg,AMSA15.jpg,MS,2,num_8,16,num_8,1.85002687806,,,2017_Mar_08_1748,59.9987298892,FEMA4ImagesEEG,001,100029,
AFNE01.JPG,AFNE01.JPG,AFNE01.JPG,AFNE01.JPG,AFNE01.JPG,AFNE01.JPG,,,,,,,,,,,,,1,9,19,8,,,,,,,,,,,AMSA04.jpg,AMNE18.jpg,AMNE09.jpg,AMSA20.jpg,AMSA20.jpg,MS,2,num_4,16,num_4,0.783458293416,,,2017_Mar_08_1748,59.9987298892,FEMA4ImagesEEG,001,100029,
AFNE01.JPG,AFNE01.JPG,AFNE01.JPG,AFNE01.JPG,AFNE01.JPG,AFNE01.JPG,,,,,,,,,,,,,2,0,20,0,,,,,,,,,,,AMSA14.jpg,AMNE19.jpg,AMSA01.jpg,AMNE03.jpg,AMSA01.jpg,MS,2,num_2,32,num_6,1.15010558767,,,2017_Mar_08_1748,59.9987298892,FEMA4ImagesEEG,001,100029,
AFNE01.JPG,AFNE01.JPG,AFNE01.JPG,AFNE01.JPG,AFNE01.JPG,AFNE01.JPG,,,,,,,,,,,,,2,1,21,5,,,,,,,,,,,AMSA11.jpg,AMNE06.jpg,AMSA12.jpg,AMNE04.jpg,AMNE06.jpg,MN,1,num_6,32,num_8,1.26673748624,,,2017_Mar_08_1748,59.9987298892,FEMA4ImagesEEG,001,100029,
AFNE01.JPG,AFNE01.JPG,AFNE01.JPG,AFNE01.JPG,AFNE01.JPG,AFNE01.JPG,,,,,,,,,,,,,2,2,22,1,,,,,,,,,,,AMSA03.jpg,AMSA01.jpg,AMNE13.jpg,AMNE01.jpg,AMNE13.jpg,MN,1,num_2,16,num_2,1.35012470372,,,2017_Mar_08_1748,59.9987298892,FEMA4ImagesEEG,001,100029,
AFNE01.JPG,AFNE01.JPG,AFNE01.JPG,AFNE01.JPG,AFNE01.JPG,AFNE01.JPG,,,,,,,,,,,,,2,3,23,6,,,,,,,,,,,AMSA09.jpg,AMNE06.jpg,AMSA14.jpg,AMNE18.jpg,AMSA09.jpg,MS,2,num_8,16,num_8,1.43340703938,,,2017_Mar_08_1748,59.9987298892,FEMA4ImagesEEG,001,100029,
AFNE01.JPG,AFNE01.JPG,AFNE01.JPG,AFNE01.JPG,AFNE01.JPG,AFNE01.JPG,,,,,,,,,,,,,2,4,24,8,,,,,,,,,,,AMNE04.jpg,AMSA06.jpg,AMNE09.jpg,AMSA15.jpg,AMNE04.jpg,MN,1,num_8,16,num_8,2.81658237614,,,2017_Mar_08_1748,59.9987298892,FEMA4ImagesEEG,001,100029,
AFNE01.JPG,AFNE01.JPG,AFNE01.JPG,AFNE01.JPG,AFNE01.JPG,AFNE01.JPG,,,,,,,,,,,,,2,5,25,4,,,,,,,,,,,AMSA06.jpg,AMNE16.jpg,AMSA08.jpg,AMNE12.jpg,AMNE12.jpg,MN,1,num_4,16,num_4,0.949829879217,,,2017_Mar_08_1748,59.9987298892,FEMA4ImagesEEG,001,100029,
AFNE01.JPG,AFNE01.JPG,AFNE01.JPG,AFNE01.JPG,AFNE01.JPG,AFNE01.JPG,,,,,,,,,,,,,2,6,26,9,,,,,,,,,,,AMNE05.jpg,AMSA17.jpg,AMSA04.jpg,AMNE13.jpg,AMNE05.jpg,MN,1,num_8,32,num_4,1.00006350642,,,2017_Mar_08_1748,59.9987298892,FEMA4ImagesEEG,001,100029,
AFNE01.JPG,AFNE01.JPG,AFNE01.JPG,AFNE01.JPG,AFNE01.JPG,AFNE01.JPG,,,,,,,,,,,,,2,7,27,3,,,,,,,,,,,AMNE02.jpg,AMSA03.jpg,AMSA13.jpg,AMNE06.jpg,AMSA13.jpg,MS,2,num_2,16,num_2,0.966768148821,,,2017_Mar_08_1748,59.9987298892,FEMA4ImagesEEG,001,100029,
AFNE01.JPG,AFNE01.JPG,AFNE01.JPG,AFNE01.JPG,AFNE01.JPG,AFNE01.JPG,,,,,,,,,,,,,2,8,28,2,,,,,,,,,,,AMNE07.jpg,AMSA06.jpg,AMNE10.jpg,AMSA20.jpg,AMSA06.jpg,MS,2,num_6,32,num_2,2.51690940233,,,2017_Mar_08_1748,59.9987298892,FEMA4ImagesEEG,001,100029,
AFNE01.JPG,AFNE01.JPG,AFNE01.JPG,AFNE01.JPG,AFNE01.JPG,AFNE01.JPG,,,,,,,,,,,,,2,9,29,7,,,,,,,,,,,AMSA07.jpg,AMNE15.jpg,AMNE16.jpg,AMSA15.jpg,AMNE16.jpg,MN,1,num_2,32,num_8,1.18344296189,,,2017_Mar_08_1748,59.9987298892,FEMA4ImagesEEG,001,100029,
AFNE01.JPG,AFNE01.JPG,AFNE01.JPG,AFNE01.JPG,AFNE01.JPG,AFNE01.JPG,,,,,,,,,,,,,3,0,30,7,,,,,,,,,,,AMSA14.jpg,AMNE03.jpg,AMSA18.jpg,AMNE10.jpg,AMSA18.jpg,MS,2,num_2,32,num_8,3.33325475221,,,2017_Mar_08_1748,59.9987298892,FEMA4ImagesEEG,001,100029,
AFNE01.JPG,AFNE01.JPG,AFNE01.JPG,AFNE01.JPG,AFNE01.JPG,AFNE01.JPG,,,,,,,,,,,,,3,1,31,2,,,,,,,,,,,AMNE16.jpg,AMNE06.jpg,AMSA20.jpg,AMSA11.jpg,AMNE06.jpg,MN,1,num_6,32,num_8,1.10014426894,,,2017_Mar_08_1748,59.9987298892,FEMA4ImagesEEG,001,100029,
AFNE01.JPG,AFNE01.JPG,AFNE01.JPG,AFNE01.JPG,AFNE01.JPG,AFNE01.JPG,,,,,,,,,,,,,3,2,32,5,,,,,,,,,,,AMSA01.jpg,AMSA04.jpg,AMNE05.jpg,AMNE01.jpg,AMSA04.jpg,MS,2,num_6,16,num_6,0.750206235796,,,2017_Mar_08_1748,59.9987298892,FEMA4ImagesEEG,001,100029,
AFNE01.JPG,AFNE01.JPG,AFNE01.JPG,AFNE01.JPG,AFNE01.JPG,AFNE01.JPG,,,,,,,,,,,,,3,3,33,3,,,,,,,,,,,AMSA02.jpg,AMNE09.jpg,AMNE03.jpg,AMSA11.jpg,AMNE03.jpg,MN,1,num_2,32,num_8,1.18349492177,,,2017_Mar_08_1748,59.9987298892,FEMA4ImagesEEG,001,100029,
AFNE01.JPG,AFNE01.JPG,AFNE01.JPG,AFNE01.JPG,AFNE01.JPG,AFNE01.JPG,,,,,,,,,,,,,3,4,34,1,,,,,,,,,,,AMNE05.jpg,AMSA12.jpg,AMSA15.jpg,AMNE01.jpg,AMNE05.jpg,MN,1,num_8,16,num_8,1.3500996856,,,2017_Mar_08_1748,59.9987298892,FEMA4ImagesEEG,001,100029,
AFNE01.JPG,AFNE01.JPG,AFNE01.JPG,AFNE01.JPG,AFNE01.JPG,AFNE01.JPG,,,,,,,,,,,,,3,5,35,8,,,,,,,,,,,AMNE11.jpg,AMNE18.jpg,AMSA04.jpg,AMSA03.jpg,AMNE18.jpg,MN,1,num_6,16,num_6,3.38295595115,,,2017_Mar_08_1748,59.9987298892,FEMA4ImagesEEG,001,100029,
AFNE01.JPG,AFNE01.JPG,AFNE01.JPG,AFNE01.JPG,AFNE01.JPG,AFNE01.JPG,,,,,,,,,,,,,3,6,36,0,,,,,,,,,,,AMNE10.jpg,AMNE06.jpg,AMSA05.jpg,AMSA07.jpg,AMSA05.jpg,MS,2,num_2,16,num_2,1.03347144369,,,2017_Mar_08_1748,59.9987298892,FEMA4ImagesEEG,001,100029,
AFNE01.JPG,AFNE01.JPG,AFNE01.JPG,AFNE01.JPG,AFNE01.JPG,AFNE01.JPG,,,,,,,,,,,,,3,7,37,4,,,,,,,,,,,AMSA10.jpg,AMSA02.jpg,AMNE14.jpg,AMNE13.jpg,AMSA10.jpg,MS,2,num_8,16,num_8,1.35010674223,,,2017_Mar_08_1748,59.9987298892,FEMA4ImagesEEG,001,100029,
AFNE01.JPG,AFNE01.JPG,AFNE01.JPG,AFNE01.JPG,AFNE01.JPG,AFNE01.JPG,,,,,,,,,,,,,3,8,38,6,,,,,,,,,,,AMSA18.jpg,AMNE13.jpg,AMNE15.jpg,AMSA09.jpg,AMSA18.jpg,MS,2,num_8,16,num_8,1.0834221784,,,2017_Mar_08_1748,59.9987298892,FEMA4ImagesEEG,001,100029,
AFNE01.JPG,AFNE01.JPG,AFNE01.JPG,AFNE01.JPG,AFNE01.JPG,AFNE01.JPG,,,,,,,,,,,,,3,9,39,9,,,,,,,,,,,AMSA12.jpg,AMNE11.jpg,AMSA08.jpg,AMNE12.jpg,AMSA12.jpg,MS,2,num_8,16,num_8,2.00004586624,,,2017_Mar_08_1748,59.9987298892,FEMA4ImagesEEG,001,100029,
AFNE01.JPG,AFNE01.JPG,AFNE01.JPG,AFNE01.JPG,AFNE01.JPG,AFNE01.JPG,,,,,,,,,,,,,4,0,40,1,,,,,,,,,,,AMSA19.jpg,AMSA13.jpg,AMNE11.jpg,AMNE09.jpg,AMSA13.jpg,MS,2,num_6,32,num_2,1.06676006597,,,2017_Mar_08_1748,59.9987298892,FEMA4ImagesEEG,001,100029,
AFNE01.JPG,AFNE01.JPG,AFNE01.JPG,AFNE01.JPG,AFNE01.JPG,AFNE01.JPG,,,,,,,,,,,,,4,1,41,8,,,,,,,,,,,AMNE18.jpg,AMSA17.jpg,AMSA06.jpg,AMNE01.jpg,AMNE01.jpg,MN,1,num_4,16,num_4,1.58338080253,,,2017_Mar_08_1748,59.9987298892,FEMA4ImagesEEG,001,100029,
AFNE01.JPG,AFNE01.JPG,AFNE01.JPG,AFNE01.JPG,AFNE01.JPG,AFNE01.JPG,,,,,,,,,,,,,4,2,42,0,,,,,,,,,,,AMNE12.jpg,AMSA02.jpg,AMNE02.jpg,AMSA07.jpg,AMNE02.jpg,MN,1,num_2,16,num_2,2.76661175629,,,2017_Mar_08_1748,59.9987298892,FEMA4ImagesEEG,001,100029,
AFNE01.JPG,AFNE01.JPG,AFNE01.JPG,AFNE01.JPG,AFNE01.JPG,AFNE01.JPG,,,,,,,,,,,,,4,3,43,6,,,,,,,,,,,AMSA13.jpg,AMSA15.jpg,AMNE14.jpg,AMNE02.jpg,AMSA15.jpg,MS,2,num_6,16,num_6,0.850172494072,,,2017_Mar_08_1748,59.9987298892,FEMA4ImagesEEG,001,100029,
AFNE01.JPG,AFNE01.JPG,AFNE01.JPG,AFNE01.JPG,AFNE01.JPG,AFNE01.JPG,,,,,,,,,,,,,4,4,44,5,,,,,,,,,,,AMSA05.jpg,AMSA02.jpg,AMNE07.jpg,AMNE19.jpg,AMNE07.jpg,MN,1,num_2,32,num_8,1.26674133493,,,2017_Mar_08_1748,59.9987298892,FEMA4ImagesEEG,001,100029,
AFNE01.JPG,AFNE01.JPG,AFNE01.JPG,AFNE01.JPG,AFNE01.JPG,AFNE01.JPG,,,,,,,,,,,,,4,5,45,2,,,,,,,,,,,AMSA11.jpg,AMSA15.jpg,AMNE13.jpg,AMNE12.jpg,AMSA11.jpg,MS,2,num_8,32,num_4,2.06668148469,,,2017_Mar_08_1748,59.9987298892,FEMA4ImagesEEG,001,100029,
AFNE01.JPG,AFNE01.JPG,AFNE01.JPG,AFNE01.JPG,AFNE01.JPG,AFNE01.JPG,,,,,,,,,,,,,4,6,46,9,,,,,,,,,,,AMSA15.jpg,AMNE08.jpg,AMNE04.jpg,AMSA14.jpg,AMNE08.jpg,MN,1,num_6,32,num_2,1.75005003531,,,2017_Mar_08_1748,59.9987298892,FEMA4ImagesEEG,001,100029,
AFNE01.JPG,AFNE01.JPG,AFNE01.JPG,AFNE01.JPG,AFNE01.JPG,AFNE01.JPG,,,,,,,,,,,,,4,7,47,3,,,,,,,,,,,AMNE04.jpg,AMNE08.jpg,AMSA07.jpg,AMSA05.jpg,AMNE04.jpg,MN,1,num_8,16,num_8,0.816968867555,,,2017_Mar_08_1748,59.9987298892,FEMA4ImagesEEG,001,100029,
AFNE01.JPG,AFNE01.JPG,AFNE01.JPG,AFNE01.JPG,AFNE01.JPG,AFNE01.JPG,,,,,,,,,,,,,4,8,48,4,,,,,,,,,,,AMSA14.jpg,AMSA08.jpg,AMNE11.jpg,AMNE19.jpg,AMNE11.jpg,MN,1,num_2,32,num_6,2.79993020743,,,2017_Mar_08_1748,59.9987298892,FEMA4ImagesEEG,001,100029,
AFNE01.JPG,AFNE01.JPG,AFNE01.JPG,AFNE01.JPG,AFNE01.JPG,AFNE01.JPG,,,,,,,,,,,,,4,9,49,7,,,,,,,,,,,AMNE10.jpg,AMNE02.jpg,AMSA01.jpg,AMSA08.jpg,AMSA01.jpg,MS,2,num_2,16,num_2,0.716779695358,,,2017_Mar_08_1748,59.9987298892,FEMA4ImagesEEG,001,100029,
AFNE01.JPG,AFNE01.JPG,AFNE01.JPG,AFNE01.JPG,AFNE01.JPG,AFNE01.JPG,,,,,,,,,,,,,5,0,50,0,,,,,,,,,,,AMSA12.jpg,AMNE06.jpg,AMNE16.jpg,AMSA13.jpg,AMNE06.jpg,MN,1,num_6,16,num_6,1.00013439031,,,2017_Mar_08_1748,59.9987298892,FEMA4ImagesEEG,001,100029,
AFNE01.JPG,AFNE01.JPG,AFNE01.JPG,AFNE01.JPG,AFNE01.JPG,AFNE01.JPG,,,,,,,,,,,,,5,1,51,3,,,,,,,,,,,AMNE14.jpg,AMSA19.jpg,AMNE12.jpg,AMSA09.jpg,AMNE14.jpg,MN,1,num_8,16,num_8,0.883457588032,,,2017_Mar_08_1748,59.9987298892,FEMA4ImagesEEG,001,100029,
AFNE01.JPG,AFNE01.JPG,AFNE01.JPG,AFNE01.JPG,AFNE01.JPG,AFNE01.JPG,,,,,,,,,,,,,5,2,52,5,,,,,,,,,,,AMNE17.jpg,AMSA16.jpg,AMSA03.jpg,AMNE15.jpg,AMNE15.jpg,MN,1,num_4,16,num_4,1.06677353708,,,2017_Mar_08_1748,59.9987298892,FEMA4ImagesEEG,001,100029,
AFNE01.JPG,AFNE01.JPG,AFNE01.JPG,AFNE01.JPG,AFNE01.JPG,AFNE01.JPG,,,,,,,,,,,,,5,3,53,7,,,,,,,,,,,AMNE16.jpg,AMSA03.jpg,AMSA19.jpg,AMNE17.jpg,AMNE17.jpg,MN,1,num_4,16,num_4,0.683452263474,,,2017_Mar_08_1748,59.9987298892,FEMA4ImagesEEG,001,100029,
AFNE01.JPG,AFNE01.JPG,AFNE01.JPG,AFNE01.JPG,AFNE01.JPG,AFNE01.JPG,,,,,,,,,,,,,5,4,54,2,,,,,,,,,,,AMNE05.jpg,AMSA13.jpg,AMNE09.jpg,AMSA20.jpg,AMNE05.jpg,MN,1,num_8,32,num_2,1.13341268431,,,2017_Mar_08_1748,59.9987298892,FEMA4ImagesEEG,001,100029,
AFNE01.JPG,AFNE01.JPG,AFNE01.JPG,AFNE01.JPG,AFNE01.JPG,AFNE01.JPG,,,,,,,,,,,,,5,5,55,9,,,,,,,,,,,AMSA04.jpg,AMNE07.jpg,AMSA06.jpg,AMNE11.jpg,AMSA04.jpg,MS,2,num_8,16,num_8,1.1163118002,,,2017_Mar_08_1748,59.9987298892,FEMA4ImagesEEG,001,100029,
AFNE01.JPG,AFNE01.JPG,AFNE01.JPG,AFNE01.JPG,AFNE01.JPG,AFNE01.JPG,,,,,,,,,,,,,5,6,56,6,,,,,,,,,,,AMNE15.jpg,AMNE20.jpg,AMSA03.jpg,AMSA18.jpg,AMSA18.jpg,MS,2,num_4,16,num_4,0.850106100552,,,2017_Mar_08_1748,59.9987298892,FEMA4ImagesEEG,001,100029,
AFNE01.JPG,AFNE01.JPG,AFNE01.JPG,AFNE01.JPG,AFNE01.JPG,AFNE01.JPG,,,,,,,,,,,,,5,7,57,4,,,,,,,,,,,AMSA09.jpg,AMNE17.jpg,AMNE02.jpg,AMSA13.jpg,AMSA13.jpg,MS,2,num_4,32,num_8,1.41677347291,,,2017_Mar_08_1748,59.9987298892,FEMA4ImagesEEG,001,100029,
AFNE01.JPG,AFNE01.JPG,AFNE01.JPG,AFNE01.JPG,AFNE01.JPG,AFNE01.JPG,,,,,,,,,,,,,5,8,58,1,,,,,,,,,,,AMNE16.jpg,AMNE12.jpg,AMSA17.jpg,AMSA10.jpg,AMSA17.jpg,MS,2,num_2,16,num_2,0.96657538414,,,2017_Mar_08_1748,59.9987298892,FEMA4ImagesEEG,001,100029,
AFNE01.JPG,AFNE01.JPG,AFNE01.JPG,AFNE01.JPG,AFNE01.JPG,AFNE01.JPG,,,,,,,,,,,,,5,9,59,8,,,,,,,,,,,AMNE10.jpg,AMSA02.jpg,AMSA08.jpg,AMNE08.jpg,AMNE08.jpg,MN,1,num_4,32,num_2,0.983436034061,,,2017_Mar_08_1748,59.9987298892,FEMA4ImagesEEG,001,100029,
,,,,,,,,,,,,,,,,,,,,,,,,,,,,,,,,,,,,,,,,,,,space,12.182551947,2017_Mar_08_1748,59.9987298892,FEMA4ImagesEEG,001,100029,
AFNE01.JPG,AFNE01.JPG,AFNE01.JPG,AFNE01.JPG,AFNE01.JPG,AFNE01.JPG,,,,,,,,,,,,,,,,,0,0,0,3,,,,,,,AFNE03.jpg,AFSA11.jpg,AFSA03.jpg,AFNE02.jpg,AFSA11.jpg,FS,4,num_6,32,num_2,0.950112130959,,,2017_Mar_08_1748,59.9987298892,FEMA4ImagesEEG,001,100029,
AFNE01.JPG,AFNE01.JPG,AFNE01.JPG,AFNE01.JPG,AFNE01.JPG,AFNE01.JPG,,,,,,,,,,,,,,,,,0,1,1,7,,,,,,,AFSA03.jpg,AFNE15.jpg,AFSA01.jpg,AFNE09.jpg,AFNE09.jpg,FN,3,num_4,32,num_6,1.51663805684,,,2017_Mar_08_1748,59.9987298892,FEMA4ImagesEEG,001,100029,
AFNE01.JPG,AFNE01.JPG,AFNE01.JPG,AFNE01.JPG,AFNE01.JPG,AFNE01.JPG,,,,,,,,,,,,,,,,,0,2,2,4,,,,,,,AFNE15.jpg,AFSA01.jpg,AFNE16.jpg,AFSA14.jpg,AFSA14.jpg,FS,4,num_4,32,num_6,1.88336585648,,,2017_Mar_08_1748,59.9987298892,FEMA4ImagesEEG,001,100029,
AFNE01.JPG,AFNE01.JPG,AFNE01.JPG,AFNE01.JPG,AFNE01.JPG,AFNE01.JPG,,,,,,,,,,,,,,,,,0,3,3,9,,,,,,,AFNE07.jpg,AFSA13.jpg,AFNE05.jpg,AFSA20.jpg,AFSA13.jpg,FS,4,num_6,16,num_6,0.600131439511,,,2017_Mar_08_1748,59.9987298892,FEMA4ImagesEEG,001,100029,
AFNE01.JPG,AFNE01.JPG,AFNE01.JPG,AFNE01.JPG,AFNE01.JPG,AFNE01.JPG,,,,,,,,,,,,,,,,,0,4,4,1,,,,,,,AFSA05.jpg,AFNE16.jpg,AFSA16.jpg,AFNE01.jpg,AFSA05.jpg,FS,4,num_8,16,num_8,1.1334620784,,,2017_Mar_08_1748,59.9987298892,FEMA4ImagesEEG,001,100029,
AFNE01.JPG,AFNE01.JPG,AFNE01.JPG,AFNE01.JPG,AFNE01.JPG,AFNE01.JPG,,,,,,,,,,,,,,,,,0,5,5,6,,,,,,,AFSA09.jpg,AFSA14.jpg,AFNE07.jpg,AFNE12.jpg,AFSA09.jpg,FS,4,num_8,16,num_8,1.16673979536,,,2017_Mar_08_1748,59.9987298892,FEMA4ImagesEEG,001,100029,
AFNE01.JPG,AFNE01.JPG,AFNE01.JPG,AFNE01.JPG,AFNE01.JPG,AFNE01.JPG,,,,,,,,,,,,,,,,,0,6,6,2,,,,,,,AFNE08.jpg,AFNE13.jpg,AFSA07.jpg,AFSA19.jpg,AFNE08.jpg,FN,3,num_8,32,num_6,0.850136570632,,,2017_Mar_08_1748,59.9987298892,FEMA4ImagesEEG,001,100029,
AFNE01.JPG,AFNE01.JPG,AFNE01.JPG,AFNE01.JPG,AFNE01.JPG,AFNE01.JPG,,,,,,,,,,,,,,,,,0,7,7,5,,,,,,,AFNE06.jpg,AFSA01.jpg,AFSA20.jpg,AFNE09.jpg,AFNE06.jpg,FN,3,num_8,32,num_4,1.66668142052,,,2017_Mar_08_1748,59.9987298892,FEMA4ImagesEEG,001,100029,
AFNE01.JPG,AFNE01.JPG,AFNE01.JPG,AFNE01.JPG,AFNE01.JPG,AFNE01.JPG,,,,,,,,,,,,,,,,,0,8,8,0,,,,,,,AFNE18.jpg,AFSA17.jpg,AFSA16.jpg,AFNE17.jpg,AFNE18.jpg,FN,3,num_8,16,num_8,1.30009763315,,,2017_Mar_08_1748,59.9987298892,FEMA4ImagesEEG,001,100029,
AFNE01.JPG,AFNE01.JPG,AFNE01.JPG,AFNE01.JPG,AFNE01.JPG,AFNE01.JPG,,,,,,,,,,,,,,,,,0,9,9,8,,,,,,,AFSA19.jpg,AFNE16.jpg,AFSA14.jpg,AFNE20.jpg,AFSA19.jpg,FS,4,num_8,16,num_8,1.50009846734,,,2017_Mar_08_1748,59.9987298892,FEMA4ImagesEEG,001,100029,
AFNE01.JPG,AFNE01.JPG,AFNE01.JPG,AFNE01.JPG,AFNE01.JPG,AFNE01.JPG,,,,,,,,,,,,,,,,,1,0,10,0,,,,,,,AFNE13.jpg,AFSA06.jpg,AFNE05.jpg,AFSA01.jpg,AFSA06.jpg,FS,4,num_6,32,num_2,1.21673607454,,,2017_Mar_08_1748,59.9987298892,FEMA4ImagesEEG,001,100029,
AFNE01.JPG,AFNE01.JPG,AFNE01.JPG,AFNE01.JPG,AFNE01.JPG,AFNE01.JPG,,,,,,,,,,,,,,,,,1,1,11,9,,,,,,,AFNE07.jpg,AFSA12.jpg,AFNE14.jpg,AFSA14.jpg,AFNE14.jpg,FN,3,num_2,16,num_2,0.800145102665,,,2017_Mar_08_1748,59.9987298892,FEMA4ImagesEEG,001,100029,
AFNE01.JPG,AFNE01.JPG,AFNE01.JPG,AFNE01.JPG,AFNE01.JPG,AFNE01.JPG,,,,,,,,,,,,,,,,,1,2,12,5,,,,,,,AFNE04.jpg,AFNE07.jpg,AFSA16.jpg,AFSA02.jpg,AFNE04.jpg,FN,3,num_8,32,num_6,0.666803622618,,,2017_Mar_08_1748,59.9987298892,FEMA4ImagesEEG,001,100029,
AFNE01.JPG,AFNE01.JPG,AFNE01.JPG,AFNE01.JPG,AFNE01.JPG,AFNE01.JPG,,,,,,,,,,,,,,,,,1,3,13,1,,,,,,,AFSA12.jpg,AFSA19.jpg,AFNE18.jpg,AFNE03.jpg,AFNE03.jpg,FN,3,num_4,32,num_2,1.60007434711,,,2017_Mar_08_1748,59.9987298892,FEMA4ImagesEEG,001,100029,
AFNE01.JPG,AFNE01.JPG,AFNE01.JPG,AFNE01.JPG,AFNE01.JPG,AFNE01.JPG,,,,,,,,,,,,,,,,,1,4,14,4,,,,,,,AFSA05.jpg,AFSA19.jpg,AFNE09.jpg,AFNE04.jpg,AFSA05.jpg,FS,4,num_8,16,num_8,0.950123356655,,,2017_Mar_08_1748,59.9987298892,FEMA4ImagesEEG,001,100029,
AFNE01.JPG,AFNE01.JPG,AFNE01.JPG,AFNE01.JPG,AFNE01.JPG,AFNE01.JPG,,,,,,,,,,,,,,,,,1,5,15,8,,,,,,,AFNE19.jpg,AFSA10.jpg,AFNE20.jpg,AFSA20.jpg,AFSA10.jpg,FS,4,num_6,16,num_6,0.983512049541,,,2017_Mar_08_1748,59.9987298892,FEMA4ImagesEEG,001,100029,
AFNE01.JPG,AFNE01.JPG,AFNE01.JPG,AFNE01.JPG,AFNE01.JPG,AFNE01.JPG,,,,,,,,,,,,,,,,,1,6,16,3,,,,,,,AFNE16.jpg,AFSA09.jpg,AFNE17.jpg,AFSA01.jpg,AFNE17.jpg,FN,3,num_2,16,num_2,0.883476511575,,,2017_Mar_08_1748,59.9987298892,FEMA4ImagesEEG,001,100029,
AFNE01.JPG,AFNE01.JPG,AFNE01.JPG,AFNE01.JPG,AFNE01.JPG,AFNE01.JPG,,,,,,,,,,,,,,,,,1,7,17,7,,,,,,,AFNE06.jpg,AFNE02.jpg,AFSA20.jpg,AFSA18.jpg,AFSA20.jpg,FS,4,num_2,32,num_8,1.31671291729,,,2017_Mar_08_1748,59.9987298892,FEMA4ImagesEEG,001,100029,
AFNE01.JPG,AFNE01.JPG,AFNE01.JPG,AFNE01.JPG,AFNE01.JPG,AFNE01.JPG,,,,,,,,,,,,,,,,,1,8,18,2,,,,,,,AFSA12.jpg,AFNE04.jpg,AFSA07.jpg,AFNE19.jpg,AFSA12.jpg,FS,4,num_8,16,num_8,0.916755511425,,,2017_Mar_08_1748,59.9987298892,FEMA4ImagesEEG,001,100029,
AFNE01.JPG,AFNE01.JPG,AFNE01.JPG,AFNE01.JPG,AFNE01.JPG,AFNE01.JPG,,,,,,,,,,,,,,,,,1,9,19,6,,,,,,,AFSA03.jpg,AFNE18.jpg,AFNE11.jpg,AFSA14.jpg,AFSA14.jpg,FS,4,num_4,16,num_4,1.81670008786,,,2017_Mar_08_1748,59.9987298892,FEMA4ImagesEEG,001,100029,
AFNE01.JPG,AFNE01.JPG,AFNE01.JPG,AFNE01.JPG,AFNE01.JPG,AFNE01.JPG,,,,,,,,,,,,,,,,,2,0,20,1,,,,,,,AFNE13.jpg,AFSA09.jpg,AFNE06.jpg,AFSA02.jpg,AFSA09.jpg,FS,4,num_6,32,num_2,1.51673780661,,,2017_Mar_08_1748,59.9987298892,FEMA4ImagesEEG,001,100029,
AFNE01.JPG,AFNE01.JPG,AFNE01.JPG,AFNE01.JPG,AFNE01.JPG,AFNE01.JPG,,,,,,,,,,,,,,,,,2,1,21,4,,,,,,,AFSA12.jpg,AFSA01.jpg,AFNE11.jpg,AFNE15.jpg,AFSA01.jpg,FS,4,num_6,16,num_6,1.83335835068,,,2017_Mar_08_1748,59.9987298892,FEMA4ImagesEEG,001,100029,
AFNE01.JPG,AFNE01.JPG,AFNE01.JPG,AFNE01.JPG,AFNE01.JPG,AFNE01.JPG,,,,,,,,,,,,,,,,,2,2,22,3,,,,,,,AFNE10.jpg,AFSA01.jpg,AFSA13.jpg,AFNE05.jpg,AFSA01.jpg,FS,4,num_6,32,num_2,0.899765924085,,,2017_Mar_08_1748,59.9987298892,FEMA4ImagesEEG,001,100029,
AFNE01.JPG,AFNE01.JPG,AFNE01.JPG,AFNE01.JPG,AFNE01.JPG,AFNE01.JPG,,,,,,,,,,,,,,,,,2,3,23,9,,,,,,,AFSA06.jpg,AFSA17.jpg,AFNE09.jpg,AFNE10.jpg,AFSA06.jpg,FS,4,num_8,16,num_8,1.26671278942,,,2017_Mar_08_1748,59.9987298892,FEMA4ImagesEEG,001,100029,
AFNE01.JPG,AFNE01.JPG,AFNE01.JPG,AFNE01.JPG,AFNE01.JPG,AFNE01.JPG,,,,,,,,,,,,,,,,,2,4,24,7,,,,,,,AFSA12.jpg,AFNE13.jpg,AFNE04.jpg,AFSA03.jpg,AFSA03.jpg,FS,4,num_4,16,num_4,1.16674043657,,,2017_Mar_08_1748,59.9987298892,FEMA4ImagesEEG,001,100029,
AFNE01.JPG,AFNE01.JPG,AFNE01.JPG,AFNE01.JPG,AFNE01.JPG,AFNE01.JPG,,,,,,,,,,,,,,,,,2,5,25,2,,,,,,,AFNE16.jpg,AFSA20.jpg,AFSA07.jpg,AFNE05.jpg,AFNE05.jpg,FN,3,num_4,32,num_6,1.23345752386,,,2017_Mar_08_1748,59.9987298892,FEMA4ImagesEEG,001,100029,
AFNE01.JPG,AFNE01.JPG,AFNE01.JPG,AFNE01.JPG,AFNE01.JPG,AFNE01.JPG,,,,,,,,,,,,,,,,,2,6,26,5,,,,,,,AFNE09.jpg,AFSA13.jpg,AFSA14.jpg,AFNE16.jpg,AFSA13.jpg,FS,4,num_6,16,num_6,0.883444758132,,,2017_Mar_08_1748,59.9987298892,FEMA4ImagesEEG,001,100029,
AFNE01.JPG,AFNE01.JPG,AFNE01.JPG,AFNE01.JPG,AFNE01.JPG,AFNE01.JPG,,,,,,,,,,,,,,,,,2,7,27,8,,,,,,,AFNE06.jpg,AFSA06.jpg,AFNE11.jpg,AFSA16.jpg,AFSA06.jpg,FS,4,num_6,32,num_2,1.58339972654,,,2017_Mar_08_1748,59.9987298892,FEMA4ImagesEEG,001,100029,
AFNE01.JPG,AFNE01.JPG,AFNE01.JPG,AFNE01.JPG,AFNE01.JPG,AFNE01.JPG,,,,,,,,,,,,,,,,,2,8,28,6,,,,,,,AFNE14.jpg,AFNE08.jpg,AFSA11.jpg,AFSA20.jpg,AFSA11.jpg,FS,4,num_2,16,num_2,0.633495114744,,,2017_Mar_08_1748,59.9987298892,FEMA4ImagesEEG,001,100029,
AFNE01.JPG,AFNE01.JPG,AFNE01.JPG,AFNE01.JPG,AFNE01.JPG,AFNE01.JPG,,,,,,,,,,,,,,,,,2,9,29,0,,,,,,,AFNE01.jpg,AFSA06.jpg,AFSA08.jpg,AFNE14.jpg,AFNE14.jpg,FN,3,num_4,16,num_4,0.916760322638,,,2017_Mar_08_1748,59.9987298892,FEMA4ImagesEEG,001,100029,
AFNE01.JPG,AFNE01.JPG,AFNE01.JPG,AFNE01.JPG,AFNE01.JPG,AFNE01.JPG,,,,,,,,,,,,,,,,,3,0,30,3,,,,,,,AFNE18.jpg,AFSA02.jpg,AFNE03.jpg,AFSA09.jpg,AFSA02.jpg,FS,4,num_6,16,num_6,1.01676378679,,,2017_Mar_08_1748,59.9987298892,FEMA4ImagesEEG,001,100029,
AFNE01.JPG,AFNE01.JPG,AFNE01.JPG,AFNE01.JPG,AFNE01.JPG,AFNE01.JPG,,,,,,,,,,,,,,,,,3,1,31,1,,,,,,,AFNE19.jpg,AFNE01.jpg,AFSA11.jpg,AFSA16.jpg,AFNE19.jpg,FN,3,num_8,32,num_6,0.900086022448,,,2017_Mar_08_1748,59.9987298892,FEMA4ImagesEEG,001,100029,
AFNE01.JPG,AFNE01.JPG,AFNE01.JPG,AFNE01.JPG,AFNE01.JPG,AFNE01.JPG,,,,,,,,,,,,,,,,,3,2,32,9,,,,,,,AFSA09.jpg,AFNE01.jpg,AFSA11.jpg,AFNE09.jpg,AFNE09.jpg,FN,3,num_4,16,num_4,0.916753266472,,,2017_Mar_08_1748,59.9987298892,FEMA4ImagesEEG,001,100029,
AFNE01.JPG,AFNE01.JPG,AFNE01.JPG,AFNE01.JPG,AFNE01.JPG,AFNE01.JPG,,,,,,,,,,,,,,,,,3,3,33,4,,,,,,,AFSA05.jpg,AFNE04.jpg,AFNE14.jpg,AFSA07.jpg,AFNE04.jpg,FN,3,num_6,16,num_6,0.58358318964,,,2017_Mar_08_1748,59.9987298892,FEMA4ImagesEEG,001,100029,
AFNE01.JPG,AFNE01.JPG,AFNE01.JPG,AFNE01.JPG,AFNE01.JPG,AFNE01.JPG,,,,,,,,,,,,,,,,,3,4,34,0,,,,,,,AFNE01.jpg,AFSA18.jpg,AFNE16.jpg,AFSA20.jpg,AFNE01.jpg,FN,3,num_8,16,num_8,1.43346445169,,,2017_Mar_08_1748,59.9987298892,FEMA4ImagesEEG,001,100029,
AFNE01.JPG,AFNE01.JPG,AFNE01.JPG,AFNE01.JPG,AFNE01.JPG,AFNE01.JPG,,,,,,,,,,,,,,,,,3,5,35,7,,,,,,,AFNE05.jpg,AFSA09.jpg,AFNE11.jpg,AFSA14.jpg,AFNE05.jpg,FN,3,num_8,32,num_4,1.10012213746,,,2017_Mar_08_1748,59.9987298892,FEMA4ImagesEEG,001,100029,
AFNE01.JPG,AFNE01.JPG,AFNE01.JPG,AFNE01.JPG,AFNE01.JPG,AFNE01.JPG,,,,,,,,,,,,,,,,,3,6,36,8,,,,,,,AFSA17.jpg,AFNE12.jpg,AFNE11.jpg,AFSA12.jpg,AFNE12.jpg,FN,3,num_6,16,num_6,1.26672144886,,,2017_Mar_08_1748,59.9987298892,FEMA4ImagesEEG,001,100029,
AFNE01.JPG,AFNE01.JPG,AFNE01.JPG,AFNE01.JPG,AFNE01.JPG,AFNE01.JPG,,,,,,,,,,,,,,,,,3,7,37,5,,,,,,,AFNE13.jpg,AFSA14.jpg,AFNE05.jpg,AFSA06.jpg,AFNE05.jpg,FN,3,num_2,32,num_4,1.68341024639,,,2017_Mar_08_1748,59.9987298892,FEMA4ImagesEEG,001,100029,
AFNE01.JPG,AFNE01.JPG,AFNE01.JPG,AFNE01.JPG,AFNE01.JPG,AFNE01.JPG,,,,,,,,,,,,,,,,,3,8,38,6,,,,,,,AFSA05.jpg,AFNE17.jpg,AFSA13.jpg,AFNE10.jpg,AFSA13.jpg,FS,4,num_2,16,num_2,0.650124511216,,,2017_Mar_08_1748,59.9987298892,FEMA4ImagesEEG,001,100029,
AFNE01.JPG,AFNE01.JPG,AFNE01.JPG,AFNE01.JPG,AFNE01.JPG,AFNE01.JPG,,,,,,,,,,,,,,,,,3,9,39,2,,,,,,,AFSA06.jpg,AFNE10.jpg,AFNE18.jpg,AFSA14.jpg,AFSA14.jpg,FS,4,num_4,32,num_6,1.80005016364,,,2017_Mar_08_1748,59.9987298892,FEMA4ImagesEEG,001,100029,
AFNE01.JPG,AFNE01.JPG,AFNE01.JPG,AFNE01.JPG,AFNE01.JPG,AFNE01.JPG,,,,,,,,,,,,,,,,,4,0,40,6,,,,,,,AFSA13.jpg,AFSA04.jpg,AFNE19.jpg,AFNE20.jpg,AFNE20.jpg,FN,3,num_4,16,num_4,1.86671080068,,,2017_Mar_08_1748,59.9987298892,FEMA4ImagesEEG,001,100029,
AFNE01.JPG,AFNE01.JPG,AFNE01.JPG,AFNE01.JPG,AFNE01.JPG,AFNE01.JPG,,,,,,,,,,,,,,,,,4,1,41,0,,,,,,,AFNE16.jpg,AFSA14.jpg,AFNE06.jpg,AFSA06.jpg,AFNE16.jpg,FN,3,num_8,16,num_8,0.983492163941,,,2017_Mar_08_1748,59.9987298892,FEMA4ImagesEEG,001,100029,
AFNE01.JPG,AFNE01.JPG,AFNE01.JPG,AFNE01.JPG,AFNE01.JPG,AFNE01.JPG,,,,,,,,,,,,,,,,,4,2,42,1,,,,,,,AFNE04.jpg,AFSA07.jpg,AFSA10.jpg,AFNE01.jpg,AFSA10.jpg,FS,4,num_2,32,num_6,2.60000763368,,,2017_Mar_08_1748,59.9987298892,FEMA4ImagesEEG,001,100029,
AFNE01.JPG,AFNE01.JPG,AFNE01.JPG,AFNE01.JPG,AFNE01.JPG,AFNE01.JPG,,,,,,,,,,,,,,,,,4,3,43,5,,,,,,,AFSA19.jpg,AFNE05.jpg,AFSA13.jpg,AFNE15.jpg,AFSA13.jpg,FS,4,num_2,16,num_2,1.9000369492,,,2017_Mar_08_1748,59.9987298892,FEMA4ImagesEEG,001,100029,
AFNE01.JPG,AFNE01.JPG,AFNE01.JPG,AFNE01.JPG,AFNE01.JPG,AFNE01.JPG,,,,,,,,,,,,,,,,,4,4,44,3,,,,,,,AFSA01.jpg,AFSA08.jpg,AFNE18.jpg,AFNE14.jpg,AFSA01.jpg,FS,4,num_8,32,num_4,2.28337265598,,,2017_Mar_08_1748,59.9987298892,FEMA4ImagesEEG,001,100029,
AFNE01.JPG,AFNE01.JPG,AFNE01.JPG,AFNE01.JPG,AFNE01.JPG,AFNE01.JPG,,,,,,,,,,,,,,,,,4,5,45,7,,,,,,,AFNE07.jpg,AFSA10.jpg,AFNE06.jpg,AFSA02.jpg,AFNE06.jpg,FN,3,num_2,32,num_8,1.23311304906,,,2017_Mar_08_1748,59.9987298892,FEMA4ImagesEEG,001,100029,
AFNE01.JPG,AFNE01.JPG,AFNE01.JPG,AFNE01.JPG,AFNE01.JPG,AFNE01.JPG,,,,,,,,,,,,,,,,,4,6,46,9,,,,,,,AFSA06.jpg,AFNE07.jpg,AFSA07.jpg,AFNE15.jpg,AFSA06.jpg,FS,4,num_8,32,num_6,1.50006350642,,,2017_Mar_08_1748,59.9987298892,FEMA4ImagesEEG,001,100029,
AFNE01.JPG,AFNE01.JPG,AFNE01.JPG,AFNE01.JPG,AFNE01.JPG,AFNE01.JPG,,,,,,,,,,,,,,,,,4,7,47,2,,,,,,,AFNE07.jpg,AFNE18.jpg,AFSA15.jpg,AFSA13.jpg,AFSA13.jpg,FS,4,num_4,32,num_2,1.20011694171,,,2017_Mar_08_1748,59.9987298892,FEMA4ImagesEEG,001,100029,
AFNE01.JPG,AFNE01.JPG,AFNE01.JPG,AFNE01.JPG,AFNE01.JPG,AFNE01.JPG,,,,,,,,,,,,,,,,,4,8,48,4,,,,,,,AFNE07.jpg,AFNE06.jpg,AFSA02.jpg,AFSA17.jpg,AFSA02.jpg,FS,4,num_2,32,num_4,0.900382065214,,,2017_Mar_08_1748,59.9987298892,FEMA4ImagesEEG,001,100029,
AFNE01.JPG,AFNE01.JPG,AFNE01.JPG,AFNE01.JPG,AFNE01.JPG,AFNE01.JPG,,,,,,,,,,,,,,,,,4,9,49,8,,,,,,,AFNE19.jpg,AFNE07.jpg,AFSA06.jpg,AFSA01.jpg,AFNE07.jpg,FN,3,num_6,16,num_6,0.733476768248,,,2017_Mar_08_1748,59.9987298892,FEMA4ImagesEEG,001,100029,
AFNE01.JPG,AFNE01.JPG,AFNE01.JPG,AFNE01.JPG,AFNE01.JPG,AFNE01.JPG,,,,,,,,,,,,,,,,,5,0,50,4,,,,,,,AFSA20.jpg,AFNE07.jpg,AFSA01.jpg,AFNE15.jpg,AFNE07.jpg,FN,3,num_6,32,num_8,2.16649442911,,,2017_Mar_08_1748,59.9987298892,FEMA4ImagesEEG,001,100029,
AFNE01.JPG,AFNE01.JPG,AFNE01.JPG,AFNE01.JPG,AFNE01.JPG,AFNE01.JPG,,,,,,,,,,,,,,,,,5,1,51,0,,,,,,,AFSA08.jpg,AFSA18.jpg,AFNE17.jpg,AFNE02.jpg,AFNE17.jpg,FN,3,num_2,32,num_8,2.58330607042,,,2017_Mar_08_1748,59.9987298892,FEMA4ImagesEEG,001,100029,
AFNE01.JPG,AFNE01.JPG,AFNE01.JPG,AFNE01.JPG,AFNE01.JPG,AFNE01.JPG,,,,,,,,,,,,,,,,,5,2,52,6,,,,,,,AFSA20.jpg,AFSA14.jpg,AFNE05.jpg,AFNE06.jpg,AFNE06.jpg,FN,3,num_4,32,num_2,1.66669617454,,,2017_Mar_08_1748,59.9987298892,FEMA4ImagesEEG,001,100029,
AFNE01.JPG,AFNE01.JPG,AFNE01.JPG,AFNE01.JPG,AFNE01.JPG,AFNE01.JPG,,,,,,,,,,,,,,,,,5,3,53,7,,,,,,,AFSA15.jpg,AFNE08.jpg,AFSA18.jpg,AFNE15.jpg,AFSA18.jpg,FS,4,num_2,16,num_2,0.91675198311,,,2017_Mar_08_1748,59.9987298892,FEMA4ImagesEEG,001,100029,
AFNE01.JPG,AFNE01.JPG,AFNE01.JPG,AFNE01.JPG,AFNE01.JPG,AFNE01.JPG,,,,,,,,,,,,,,,,,5,4,54,8,,,,,,,AFSA03.jpg,AFSA12.jpg,AFNE03.jpg,AFNE19.jpg,AFNE03.jpg,FN,3,num_2,16,num_2,0.883473304566,,,2017_Mar_08_1748,59.9987298892,FEMA4ImagesEEG,001,100029,
AFNE01.JPG,AFNE01.JPG,AFNE01.JPG,AFNE01.JPG,AFNE01.JPG,AFNE01.JPG,,,,,,,,,,,,,,,,,5,5,55,1,,,,,,,AFSA06.jpg,AFNE01.jpg,AFSA03.jpg,AFNE12.jpg,AFSA06.jpg,FS,4,num_8,16,num_8,1.64974443475,,,2017_Mar_08_1748,59.9987298892,FEMA4ImagesEEG,001,100029,
AFNE01.JPG,AFNE01.JPG,AFNE01.JPG,AFNE01.JPG,AFNE01.JPG,AFNE01.JPG,,,,,,,,,,,,,,,,,5,6,56,3,,,,,,,AFNE03.jpg,AFSA18.jpg,AFSA15.jpg,AFNE11.jpg,AFSA15.jpg,FS,4,num_2,16,num_2,1.01679938892,,,2017_Mar_08_1748,59.9987298892,FEMA4ImagesEEG,001,100029,
AFNE01.JPG,AFNE01.JPG,AFNE01.JPG,AFNE01.JPG,AFNE01.JPG,AFNE01.JPG,,,,,,,,,,,,,,,,,5,7,57,2,,,,,,,AFNE08.jpg,AFSA15.jpg,AFSA04.jpg,AFNE19.jpg,AFSA04.jpg,FS,4,num_2,16,num_2,1.41678694403,,,2017_Mar_08_1748,59.9987298892,FEMA4ImagesEEG,001,100029,
AFNE01.JPG,AFNE01.JPG,AFNE01.JPG,AFNE01.JPG,AFNE01.JPG,AFNE01.JPG,,,,,,,,,,,,,,,,,5,8,58,9,,,,,,,AFSA02.jpg,AFSA03.jpg,AFNE20.jpg,AFNE05.jpg,AFSA03.jpg,FS,4,num_6,16,num_6,1.08343853569,,,2017_Mar_08_1748,59.9987298892,FEMA4ImagesEEG,001,100029,
AFNE01.JPG,AFNE01.JPG,AFNE01.JPG,AFNE01.JPG,AFNE01.JPG,AFNE01.JPG,,,,,,,,,,,,,,,,,5,9,59,5,,,,,,,AFSA03.jpg,AFNE13.jpg,AFNE10.jpg,AFSA18.jpg,AFNE13.jpg,FN,3,num_6,16,num_6,1.20014516683,,,2017_Mar_08_1748,59.9987298892,FEMA4ImagesEEG,001,100029,
,,,,,,,,,,,,,,,,,,,,,,,,,,,,,,,,,,,,,,,,,,,space,25.9648010517,2017_Mar_08_1748,59.9987298892,FEMA4ImagesEEG,001,100029,
AFNE01.JPG,AFNE01.JPG,AFNE01.JPG,AFNE01.JPG,AFNE01.JPG,AFNE01.JPG,,,,,,,,,,,,,,,,,,,,,0,0,0,4,,,AMNE04.jpg,AMSA04.jpg,AMNE19.jpg,AMSA19.jpg,AMNE19.jpg,MN,1,num_2,16,num_2,0.950142280199,,,2017_Mar_08_1748,59.9987298892,FEMA4ImagesEEG,001,100029,
AFNE01.JPG,AFNE01.JPG,AFNE01.JPG,AFNE01.JPG,AFNE01.JPG,AFNE01.JPG,,,,,,,,,,,,,,,,,,,,,0,1,1,5,,,AMSA14.jpg,AMNE14.jpg,AMSA02.jpg,AMNE08.jpg,AMSA14.jpg,MS,2,num_8,16,num_8,1.13343321159,,,2017_Mar_08_1748,59.9987298892,FEMA4ImagesEEG,001,100029,
AFNE01.JPG,AFNE01.JPG,AFNE01.JPG,AFNE01.JPG,AFNE01.JPG,AFNE01.JPG,,,,,,,,,,,,,,,,,,,,,0,2,2,0,,,AMSA14.jpg,AMNE01.jpg,AMSA13.jpg,AMNE10.jpg,AMNE10.jpg,MN,1,num_4,32,num_8,1.05007742625,,,2017_Mar_08_1748,59.9987298892,FEMA4ImagesEEG,001,100029,
AFNE01.JPG,AFNE01.JPG,AFNE01.JPG,AFNE01.JPG,AFNE01.JPG,AFNE01.JPG,,,,,,,,,,,,,,,,,,,,,0,3,3,3,,,AMNE19.jpg,AMSA10.jpg,AMSA07.jpg,AMNE16.jpg,AMNE16.jpg,MN,1,num_4,16,num_4,1.38343706075,,,2017_Mar_08_1748,59.9987298892,FEMA4ImagesEEG,001,100029,
AFNE01.JPG,AFNE01.JPG,AFNE01.JPG,AFNE01.JPG,AFNE01.JPG,AFNE01.JPG,,,,,,,,,,,,,,,,,,,,,0,4,4,2,,,AMSA16.jpg,AMNE13.jpg,AMNE17.jpg,AMSA19.jpg,AMNE17.jpg,MN,1,num_2,16,num_2,0.999991660938,,,2017_Mar_08_1748,59.9987298892,FEMA4ImagesEEG,001,100029,
AFNE01.JPG,AFNE01.JPG,AFNE01.JPG,AFNE01.JPG,AFNE01.JPG,AFNE01.JPG,,,,,,,,,,,,,,,,,,,,,0,5,5,1,,,AMSA16.jpg,AMNE10.jpg,AMNE08.jpg,AMSA19.jpg,AMNE10.jpg,MN,1,num_6,32,num_8,1.13346688962,,,2017_Mar_08_1748,59.9987298892,FEMA4ImagesEEG,001,100029,
AFNE01.JPG,AFNE01.JPG,AFNE01.JPG,AFNE01.JPG,AFNE01.JPG,AFNE01.JPG,,,,,,,,,,,,,,,,,,,,,0,6,6,8,,,AMNE03.jpg,AMNE01.jpg,AMSA06.jpg,AMSA19.jpg,AMSA06.jpg,MS,2,num_2,32,num_4,4.06651053065,,,2017_Mar_08_1748,59.9987298892,FEMA4ImagesEEG,001,100029,
AFNE01.JPG,AFNE01.JPG,AFNE01.JPG,AFNE01.JPG,AFNE01.JPG,AFNE01.JPG,,,,,,,,,,,,,,,,,,,,,0,7,7,9,,,AMSA16.jpg,AMSA07.jpg,AMNE17.jpg,AMNE13.jpg,AMNE13.jpg,MN,1,num_4,16,num_4,0.733432826586,,,2017_Mar_08_1748,59.9987298892,FEMA4ImagesEEG,001,100029,
AFNE01.JPG,AFNE01.JPG,AFNE01.JPG,AFNE01.JPG,AFNE01.JPG,AFNE01.JPG,,,,,,,,,,,,,,,,,,,,,0,8,8,6,,,AMNE15.jpg,AMNE04.jpg,AMSA02.jpg,AMSA10.jpg,AMNE15.jpg,MN,1,num_8,16,num_8,1.16663106484,,,2017_Mar_08_1748,59.9987298892,FEMA4ImagesEEG,001,100029,
AFNE01.JPG,AFNE01.JPG,AFNE01.JPG,AFNE01.JPG,AFNE01.JPG,AFNE01.JPG,,,,,,,,,,,,,,,,,,,,,0,9,9,7,,,AMSA04.jpg,AMNE03.jpg,AMNE02.jpg,AMSA02.jpg,AMSA04.jpg,MS,2,num_8,32,num_4,2.41663427185,,,2017_Mar_08_1748,59.9987298892,FEMA4ImagesEEG,001,100029,
AFNE01.JPG,AFNE01.JPG,AFNE01.JPG,AFNE01.JPG,AFNE01.JPG,AFNE01.JPG,,,,,,,,,,,,,,,,,,,,,1,0,10,5,,,AMSA20.jpg,AMNE09.jpg,AMSA16.jpg,AMNE20.jpg,AMSA16.jpg,MS,2,num_2,16,num_2,2.51643566974,,,2017_Mar_08_1748,59.9987298892,FEMA4ImagesEEG,001,100029,
AFNE01.JPG,AFNE01.JPG,AFNE01.JPG,AFNE01.JPG,AFNE01.JPG,AFNE01.JPG,,,,,,,,,,,,,,,,,,,,,1,1,11,4,,,AMSA07.jpg,AMNE15.jpg,AMNE16.jpg,AMSA14.jpg,AMNE16.jpg,MN,1,num_2,16,num_2,0.916799453087,,,2017_Mar_08_1748,59.9987298892,FEMA4ImagesEEG,001,100029,
AFNE01.JPG,AFNE01.JPG,AFNE01.JPG,AFNE01.JPG,AFNE01.JPG,AFNE01.JPG,,,,,,,,,,,,,,,,,,,,,1,2,12,7,,,AMNE17.jpg,AMSA20.jpg,AMNE18.jpg,AMSA06.jpg,AMSA20.jpg,MS,2,num_6,16,num_6,0.700157355051,,,2017_Mar_08_1748,59.9987298892,FEMA4ImagesEEG,001,100029,
AFNE01.JPG,AFNE01.JPG,AFNE01.JPG,AFNE01.JPG,AFNE01.JPG,AFNE01.JPG,,,,,,,,,,,,,,,,,,,,,1,3,13,0,,,AMSA15.jpg,AMNE14.jpg,AMSA10.jpg,AMNE01.jpg,AMSA15.jpg,MS,2,num_8,16,num_8,1.08344078111,,,2017_Mar_08_1748,59.9987298892,FEMA4ImagesEEG,001,100029,
AFNE01.JPG,AFNE01.JPG,AFNE01.JPG,AFNE01.JPG,AFNE01.JPG,AFNE01.JPG,,,,,,,,,,,,,,,,,,,,,1,4,14,6,,,AMNE12.jpg,AMSA08.jpg,AMSA17.jpg,AMNE06.jpg,AMSA08.jpg,MS,2,num_6,16,num_6,1.60006183898,,,2017_Mar_08_1748,59.9987298892,FEMA4ImagesEEG,001,100029,
AFNE01.JPG,AFNE01.JPG,AFNE01.JPG,AFNE01.JPG,AFNE01.JPG,AFNE01.JPG,,,,,,,,,,,,,,,,,,,,,1,5,15,3,,,AMNE13.jpg,AMSA08.jpg,AMSA16.jpg,AMNE07.jpg,AMSA08.jpg,MS,2,num_6,16,num_6,0.800156007521,,,2017_Mar_08_1748,59.9987298892,FEMA4ImagesEEG,001,100029,
AFNE01.JPG,AFNE01.JPG,AFNE01.JPG,AFNE01.JPG,AFNE01.JPG,AFNE01.JPG,,,,,,,,,,,,,,,,,,,,,1,6,16,1,,,AMSA12.jpg,AMSA11.jpg,AMNE12.jpg,AMNE11.jpg,AMSA11.jpg,MS,2,num_6,32,num_4,1.68339966191,,,2017_Mar_08_1748,59.9987298892,FEMA4ImagesEEG,001,100029,
AFNE01.JPG,AFNE01.JPG,AFNE01.JPG,AFNE01.JPG,AFNE01.JPG,AFNE01.JPG,,,,,,,,,,,,,,,,,,,,,1,7,17,2,,,AMNE09.jpg,AMSA02.jpg,AMNE01.jpg,AMSA12.jpg,AMNE09.jpg,MN,1,num_8,16,num_8,1.10014619306,,,2017_Mar_08_1748,59.9987298892,FEMA4ImagesEEG,001,100029,
AFNE01.JPG,AFNE01.JPG,AFNE01.JPG,AFNE01.JPG,AFNE01.JPG,AFNE01.JPG,,,,,,,,,,,,,,,,,,,,,1,8,18,8,,,AMSA11.jpg,AMNE03.jpg,AMNE01.jpg,AMSA09.jpg,AMSA11.jpg,MS,2,num_8,32,num_2,1.43341281265,,,2017_Mar_08_1748,59.9987298892,FEMA4ImagesEEG,001,100029,
AFNE01.JPG,AFNE01.JPG,AFNE01.JPG,AFNE01.JPG,AFNE01.JPG,AFNE01.JPG,,,,,,,,,,,,,,,,,,,,,1,9,19,9,,,AMSA03.jpg,AMNE03.jpg,AMSA15.jpg,AMNE02.jpg,AMNE03.jpg,MN,1,num_6,32,num_4,2.98325577844,,,2017_Mar_08_1748,59.9987298892,FEMA4ImagesEEG,001,100029,
AFNE01.JPG,AFNE01.JPG,AFNE01.JPG,AFNE01.JPG,AFNE01.JPG,AFNE01.JPG,,,,,,,,,,,,,,,,,,,,,2,0,20,0,,,AMSA09.jpg,AMSA19.jpg,AMNE16.jpg,AMNE09.jpg,AMNE16.jpg,MN,1,num_2,32,num_8,1.91638698149,,,2017_Mar_08_1748,59.9987298892,FEMA4ImagesEEG,001,100029,
AFNE01.JPG,AFNE01.JPG,AFNE01.JPG,AFNE01.JPG,AFNE01.JPG,AFNE01.JPG,,,,,,,,,,,,,,,,,,,,,2,1,21,4,,,AMNE06.jpg,AMSA07.jpg,AMSA03.jpg,AMNE19.jpg,AMNE19.jpg,MN,1,num_4,16,num_4,1.64993110485,,,2017_Mar_08_1748,59.9987298892,FEMA4ImagesEEG,001,100029,
AFNE01.JPG,AFNE01.JPG,AFNE01.JPG,AFNE01.JPG,AFNE01.JPG,AFNE01.JPG,,,,,,,,,,,,,,,,,,,,,2,2,22,6,,,AMSA01.jpg,AMNE09.jpg,AMSA08.jpg,AMNE13.jpg,AMNE09.jpg,MN,1,num_6,32,num_8,1.06661926163,,,2017_Mar_08_1748,59.9987298892,FEMA4ImagesEEG,001,100029,
AFNE01.JPG,AFNE01.JPG,AFNE01.JPG,AFNE01.JPG,AFNE01.JPG,AFNE01.JPG,,,,,,,,,,,,,,,,,,,,,2,3,23,2,,,AMNE03.jpg,AMSA18.jpg,AMNE06.jpg,AMSA17.jpg,AMNE06.jpg,MN,1,num_2,32,num_8,1.33370731631,,,2017_Mar_08_1748,59.9987298892,FEMA4ImagesEEG,001,100029,
AFNE01.JPG,AFNE01.JPG,AFNE01.JPG,AFNE01.JPG,AFNE01.JPG,AFNE01.JPG,,,,,,,,,,,,,,,,,,,,,2,4,24,3,,,AMNE12.jpg,AMSA01.jpg,AMSA18.jpg,AMNE11.jpg,AMSA01.jpg,MS,2,num_6,16,num_6,2.41664934671,,,2017_Mar_08_1748,59.9987298892,FEMA4ImagesEEG,001,100029,
AFNE01.JPG,AFNE01.JPG,AFNE01.JPG,AFNE01.JPG,AFNE01.JPG,AFNE01.JPG,,,,,,,,,,,,,,,,,,,,,2,5,25,7,,,AMNE12.jpg,AMSA10.jpg,AMSA03.jpg,AMNE07.jpg,AMNE12.jpg,MN,1,num_8,32,num_4,1.20010250853,,,2017_Mar_08_1748,59.9987298892,FEMA4ImagesEEG,001,100029,
AFNE01.JPG,AFNE01.JPG,AFNE01.JPG,AFNE01.JPG,AFNE01.JPG,AFNE01.JPG,,,,,,,,,,,,,,,,,,,,,2,6,26,1,,,AMNE12.jpg,AMNE17.jpg,AMSA14.jpg,AMSA19.jpg,AMSA14.jpg,MS,2,num_2,16,num_2,0.700190391392,,,2017_Mar_08_1748,59.9987298892,FEMA4ImagesEEG,001,100029,
AFNE01.JPG,AFNE01.JPG,AFNE01.JPG,AFNE01.JPG,AFNE01.JPG,AFNE01.JPG,,,,,,,,,,,,,,,,,,,,,2,7,27,5,,,AMNE17.jpg,AMNE20.jpg,AMSA06.jpg,AMSA07.jpg,AMSA07.jpg,MS,2,num_4,32,num_8,1.83336957684,,,2017_Mar_08_1748,59.9987298892,FEMA4ImagesEEG,001,100029,
AFNE01.JPG,AFNE01.JPG,AFNE01.JPG,AFNE01.JPG,AFNE01.JPG,AFNE01.JPG,,,,,,,,,,,,,,,,,,,,,2,8,28,9,,,AMNE04.jpg,AMNE03.jpg,AMSA06.jpg,AMSA03.jpg,AMSA03.jpg,MS,2,num_4,16,num_4,1.66670707986,,,2017_Mar_08_1748,59.9987298892,FEMA4ImagesEEG,001,100029,
AFNE01.JPG,AFNE01.JPG,AFNE01.JPG,AFNE01.JPG,AFNE01.JPG,AFNE01.JPG,,,,,,,,,,,,,,,,,,,,,2,9,29,8,,,AMSA05.jpg,AMSA11.jpg,AMNE17.jpg,AMNE04.jpg,AMNE04.jpg,MN,1,num_4,32,num_8,1.58325988427,,,2017_Mar_08_1748,59.9987298892,FEMA4ImagesEEG,001,100029,
AFNE01.JPG,AFNE01.JPG,AFNE01.JPG,AFNE01.JPG,AFNE01.JPG,AFNE01.JPG,,,,,,,,,,,,,,,,,,,,,3,0,30,4,,,AMNE03.jpg,AMSA05.jpg,AMSA04.jpg,AMNE07.jpg,AMNE03.jpg,MN,1,num_8,32,num_4,1.08330318378,,,2017_Mar_08_1748,59.9987298892,FEMA4ImagesEEG,001,100029,
AFNE01.JPG,AFNE01.JPG,AFNE01.JPG,AFNE01.JPG,AFNE01.JPG,AFNE01.JPG,,,,,,,,,,,,,,,,,,,,,3,1,31,6,,,AMNE06.jpg,AMSA18.jpg,AMSA13.jpg,AMNE12.jpg,AMNE06.jpg,MN,1,num_8,32,num_4,1.25009205239,,,2017_Mar_08_1748,59.9987298892,FEMA4ImagesEEG,001,100029,
AFNE01.JPG,AFNE01.JPG,AFNE01.JPG,AFNE01.JPG,AFNE01.JPG,AFNE01.JPG,,,,,,,,,,,,,,,,,,,,,3,2,32,3,,,AMNE08.jpg,AMSA03.jpg,AMNE07.jpg,AMSA16.jpg,AMNE08.jpg,MN,1,num_8,16,num_8,0.833502684254,,,2017_Mar_08_1748,59.9987298892,FEMA4ImagesEEG,001,100029,
AFNE01.JPG,AFNE01.JPG,AFNE01.JPG,AFNE01.JPG,AFNE01.JPG,AFNE01.JPG,,,,,,,,,,,,,,,,,,,,,3,3,33,8,,,AMNE11.jpg,AMNE02.jpg,AMSA01.jpg,AMSA05.jpg,AMNE11.jpg,MN,1,num_8,16,num_8,2.14994778391,,,2017_Mar_08_1748,59.9987298892,FEMA4ImagesEEG,001,100029,
AFNE01.JPG,AFNE01.JPG,AFNE01.JPG,AFNE01.JPG,AFNE01.JPG,AFNE01.JPG,,,,,,,,,,,,,,,,,,,,,3,4,34,2,,,AMSA10.jpg,AMNE03.jpg,AMSA20.jpg,AMNE12.jpg,AMNE03.jpg,MN,1,num_6,16,num_6,0.966742489487,,,2017_Mar_08_1748,59.9987298892,FEMA4ImagesEEG,001,100029,
AFNE01.JPG,AFNE01.JPG,AFNE01.JPG,AFNE01.JPG,AFNE01.JPG,AFNE01.JPG,,,,,,,,,,,,,,,,,,,,,3,5,35,0,,,AMNE18.jpg,AMNE02.jpg,AMSA06.jpg,AMSA12.jpg,AMNE18.jpg,MN,1,num_8,32,num_4,2.63334500836,,,2017_Mar_08_1748,59.9987298892,FEMA4ImagesEEG,001,100029,
AFNE01.JPG,AFNE01.JPG,AFNE01.JPG,AFNE01.JPG,AFNE01.JPG,AFNE01.JPG,,,,,,,,,,,,,,,,,,,,,3,6,36,9,,,AMSA11.jpg,AMSA20.jpg,AMNE18.jpg,AMNE11.jpg,AMNE11.jpg,MN,1,num_4,16,num_4,1.08350300463,,,2017_Mar_08_1748,59.9987298892,FEMA4ImagesEEG,001,100029,
AFNE01.JPG,AFNE01.JPG,AFNE01.JPG,AFNE01.JPG,AFNE01.JPG,AFNE01.JPG,,,,,,,,,,,,,,,,,,,,,3,7,37,5,,,AMSA13.jpg,AMNE02.jpg,AMNE09.jpg,AMSA04.jpg,AMSA13.jpg,MS,2,num_8,16,num_8,1.55009057699,,,2017_Mar_08_1748,59.9987298892,FEMA4ImagesEEG,001,100029,
AFNE01.JPG,AFNE01.JPG,AFNE01.JPG,AFNE01.JPG,AFNE01.JPG,AFNE01.JPG,,,,,,,,,,,,,,,,,,,,,3,8,38,1,,,AMNE13.jpg,AMSA11.jpg,AMNE07.jpg,AMSA04.jpg,AMNE13.jpg,MN,1,num_8,16,num_8,1.30008833157,,,2017_Mar_08_1748,59.9987298892,FEMA4ImagesEEG,001,100029,
AFNE01.JPG,AFNE01.JPG,AFNE01.JPG,AFNE01.JPG,AFNE01.JPG,AFNE01.JPG,,,,,,,,,,,,,,,,,,,,,3,9,39,7,,,AMNE16.jpg,AMNE03.jpg,AMSA05.jpg,AMSA11.jpg,AMSA05.jpg,MS,2,num_2,32,num_4,1.43340671854,,,2017_Mar_08_1748,59.9987298892,FEMA4ImagesEEG,001,100029,
