IPosition2,IPosition3,IPosition1,IPosition6,IPosition4,IPosition5,TrialsM1.thisRepN,TrialsM1.thisTrialN,TrialsM1.thisN,TrialsM1.thisIndex,TrialsF1.thisRepN,TrialsF1.thisTrialN,TrialsF1.thisN,TrialsF1.thisIndex,TrialsM2.thisRepN,TrialsM2.thisTrialN,TrialsM2.thisN,TrialsM2.thisIndex,TrialsF2.thisRepN,TrialsF2.thisTrialN,TrialsF2.thisN,TrialsF2.thisIndex,TrialsM3.thisRepN,TrialsM3.thisTrialN,TrialsM3.thisN,TrialsM3.thisIndex,TrialsF3.thisRepN,TrialsF3.thisTrialN,TrialsF3.thisN,TrialsF3.thisIndex,InstrKey_resp.keys,InstrKey_resp.rt,Image0 _Position,Image1 _Position,Image2 _Position,Image3 _Position,Center_image,condition,code,correct_answer,accuracy,Key_Resp.keys,Key_Resp.rt,BreakKey_resp.keys,BreakKey_resp.rt,date,frameRate,expName,session,participant,
,,,,,,,,,,,,,,,,,,,,,,,,,,,,,,space,128.774062862,,,,,,,,,,,,,,2017_Mar_06_1936,59.9967671624,MAFE4ImagesEEG,001,100048,
AFSA21.JPG,AFNE23.JPG,AFNE21.JPG,AFSA25.JPG,AFNE25.JPG,AFSA23.JPG,0,0,0,4,,,,,,,,,,,,,,,,,,,,,,,AMSA17.jpg,AMNE17.jpg,AMNE08.jpg,AMSA06.jpg,AMNE08.jpg,MN,1,num_2,48,None,,,,2017_Mar_06_1936,59.9967671624,MAFE4ImagesEEG,001,100048,
AMSA21.JPG,AMNE23.JPG,AMNE21.JPG,AMSA25.JPG,AMNE25.JPG,AMSA23.JPG,0,1,1,5,,,,,,,,,,,,,,,,,,,,,,,AMNE17.jpg,AMSA03.jpg,AMNE15.jpg,AMSA05.jpg,AMNE17.jpg,MN,1,num_8,16,num_8,2.29601814365,,,2017_Mar_06_1936,59.9967671624,MAFE4ImagesEEG,001,100048,
AFSA21.JPG,AFNE22.JPG,AFNE21.JPG,AFSA23.JPG,AFSA22.JPG,AFNE23.JPG,0,2,2,0,,,,,,,,,,,,,,,,,,,,,,,AMSA19.jpg,AMNE19.jpg,AMNE17.jpg,AMSA17.jpg,AMSA17.jpg,MS,2,num_4,32,num_2,1.5664226478,,,2017_Mar_06_1936,59.9967671624,MAFE4ImagesEEG,001,100048,
AFSA25.JPG,AFNE24.JPG,AFSA24.JPG,AFNE21.JPG,AFSA21.JPG,AFNE25.JPG,0,3,3,2,,,,,,,,,,,,,,,,,,,,,,,AMSA02.jpg,AMNE11.jpg,AMSA19.jpg,AMNE20.jpg,AMNE20.jpg,MN,1,num_4,16,num_4,2.38334276341,,,2017_Mar_06_1936,59.9967671624,MAFE4ImagesEEG,001,100048,
AMSA25.JPG,AMNE24.JPG,AMSA24.JPG,AMNE26.JPG,AMSA21.JPG,AMNE25.JPG,0,4,4,3,,,,,,,,,,,,,,,,,,,,,,,AMNE12.jpg,AMSA20.jpg,AMNE17.jpg,AMSA08.jpg,AMNE17.jpg,MN,1,num_2,32,num_6,2.73368396563,,,2017_Mar_06_1936,59.9967671624,MAFE4ImagesEEG,001,100048,
AMNE23.JPG,AMNE24.JPG,AMNE22.JPG,AMSA24.JPG,AMSA22.JPG,AMSA23.JPG,0,5,5,9,,,,,,,,,,,,,,,,,,,,,,,AMSA18.jpg,AMSA12.jpg,AMNE04.jpg,AMNE19.jpg,AMSA18.jpg,MS,2,num_8,16,num_8,2.13345662598,,,2017_Mar_06_1936,59.9967671624,MAFE4ImagesEEG,001,100048,
AFNE23.JPG,AFNE24.JPG,AFNE22.JPG,AFSA24.JPG,AFSA22.JPG,AFSA23.JPG,0,6,6,8,,,,,,,,,,,,,,,,,,,,,,,AMNE03.jpg,AMNE05.jpg,AMSA09.jpg,AMSA02.jpg,AMSA02.jpg,MS,2,num_4,16,num_4,2.31661412911,,,2017_Mar_06_1936,59.9967671624,MAFE4ImagesEEG,001,100048,
AFNE22.JPG,AFSA24.JPG,AFSA22.JPG,AFNE25.JPG,AFNE24.JPG,AFSA25.JPG,0,7,7,6,,,,,,,,,,,,,,,,,,,,,,,AMNE19.jpg,AMSA01.jpg,AMSA17.jpg,AMNE14.jpg,AMSA17.jpg,MS,2,num_2,16,num_2,1.04996965779,,,2017_Mar_06_1936,59.9967671624,MAFE4ImagesEEG,001,100048,
AMSA21.JPG,AMNE22.JPG,AMNE21.JPG,AMSA23.JPG,AMSA22.JPG,AMNE23.JPG,0,8,8,1,,,,,,,,,,,,,,,,,,,,,,,AMSA04.jpg,AMNE03.jpg,AMNE20.jpg,AMSA16.jpg,AMSA16.jpg,MS,2,num_4,16,num_4,1.48327085283,,,2017_Mar_06_1936,59.9967671624,MAFE4ImagesEEG,001,100048,
AMNE22.JPG,AMSA24.JPG,AMSA22.JPG,AMNE25.JPG,AMNE24.JPG,AMSA25.JPG,0,9,9,7,,,,,,,,,,,,,,,,,,,,,,,AMNE09.jpg,AMSA04.jpg,AMSA18.jpg,AMNE13.jpg,AMNE09.jpg,MN,1,num_8,32,num_4,1.9833821496,,,2017_Mar_06_1936,59.9967671624,MAFE4ImagesEEG,001,100048,
AMSA21.JPG,AMNE23.JPG,AMNE21.JPG,AMSA25.JPG,AMNE25.JPG,AMSA23.JPG,,,,,0,0,0,5,,,,,,,,,,,,,,,,,,,AFSA15.jpg,AFNE02.jpg,AFNE11.jpg,AFSA10.jpg,AFNE11.jpg,FN,3,num_2,16,num_2,1.30017396947,,,2017_Mar_06_1936,59.9967671624,MAFE4ImagesEEG,001,100048,
AMSA25.JPG,AMNE24.JPG,AMSA24.JPG,AMNE26.JPG,AMSA21.JPG,AMNE25.JPG,,,,,0,1,1,3,,,,,,,,,,,,,,,,,,,AFSA20.jpg,AFSA15.jpg,AFNE18.jpg,AFNE10.jpg,AFSA20.jpg,FS,4,num_8,16,num_8,2.39971204009,,,2017_Mar_06_1936,59.9967671624,MAFE4ImagesEEG,001,100048,
AMNE22.JPG,AMSA24.JPG,AMSA22.JPG,AMNE25.JPG,AMNE24.JPG,AMSA25.JPG,,,,,0,2,2,7,,,,,,,,,,,,,,,,,,,AFNE19.jpg,AFSA17.jpg,AFSA06.jpg,AFNE20.jpg,AFSA17.jpg,FS,4,num_6,16,num_6,2.50001699897,,,2017_Mar_06_1936,59.9967671624,MAFE4ImagesEEG,001,100048,
AFNE23.JPG,AFNE24.JPG,AFNE22.JPG,AFSA24.JPG,AFSA22.JPG,AFSA23.JPG,,,,,0,3,3,8,,,,,,,,,,,,,,,,,,,AFSA16.jpg,AFSA15.jpg,AFNE05.jpg,AFNE19.jpg,AFSA16.jpg,FS,4,num_8,32,num_4,1.28347689658,,,2017_Mar_06_1936,59.9967671624,MAFE4ImagesEEG,001,100048,
AFNE22.JPG,AFSA24.JPG,AFSA22.JPG,AFNE25.JPG,AFNE24.JPG,AFSA25.JPG,,,,,0,4,4,6,,,,,,,,,,,,,,,,,,,AFSA05.jpg,AFNE11.jpg,AFNE18.jpg,AFSA11.jpg,AFNE11.jpg,FN,3,num_6,32,num_8,1.15012868075,,,2017_Mar_06_1936,59.9967671624,MAFE4ImagesEEG,001,100048,
AMSA21.JPG,AMNE22.JPG,AMNE21.JPG,AMSA23.JPG,AMSA22.JPG,AMNE23.JPG,,,,,0,5,5,1,,,,,,,,,,,,,,,,,,,AFSA01.jpg,AFNE14.jpg,AFNE01.jpg,AFSA18.jpg,AFNE01.jpg,FN,3,num_2,32,num_4,1.50003303587,,,2017_Mar_06_1936,59.9967671624,MAFE4ImagesEEG,001,100048,
AFSA25.JPG,AFNE24.JPG,AFSA24.JPG,AFNE21.JPG,AFSA21.JPG,AFNE25.JPG,,,,,0,6,6,2,,,,,,,,,,,,,,,,,,,AFSA17.jpg,AFNE14.jpg,AFSA11.jpg,AFNE13.jpg,AFSA11.jpg,FS,4,num_2,16,num_2,0.966809203848,,,2017_Mar_06_1936,59.9967671624,MAFE4ImagesEEG,001,100048,
AMNE23.JPG,AMNE24.JPG,AMNE22.JPG,AMSA24.JPG,AMSA22.JPG,AMSA23.JPG,,,,,0,7,7,9,,,,,,,,,,,,,,,,,,,AFSA16.jpg,AFSA19.jpg,AFNE19.jpg,AFNE01.jpg,AFSA19.jpg,FS,4,num_6,16,num_6,1.90004849574,,,2017_Mar_06_1936,59.9967671624,MAFE4ImagesEEG,001,100048,
AFSA21.JPG,AFNE23.JPG,AFNE21.JPG,AFSA25.JPG,AFNE25.JPG,AFSA23.JPG,,,,,0,8,8,4,,,,,,,,,,,,,,,,,,,AFSA10.jpg,AFNE13.jpg,AFSA13.jpg,AFNE01.jpg,AFNE13.jpg,FN,3,num_6,32,num_2,1.16667981679,,,2017_Mar_06_1936,59.9967671624,MAFE4ImagesEEG,001,100048,
AFSA21.JPG,AFNE22.JPG,AFNE21.JPG,AFSA23.JPG,AFSA22.JPG,AFNE23.JPG,,,,,0,9,9,0,,,,,,,,,,,,,,,,,,,AFNE08.jpg,AFSA20.jpg,AFSA10.jpg,AFNE09.jpg,AFNE09.jpg,FN,3,num_4,16,num_4,0.900153057184,,,2017_Mar_06_1936,59.9967671624,MAFE4ImagesEEG,001,100048,
AMSA21.JPG,AMNE22.JPG,AMNE21.JPG,AMSA23.JPG,AMSA22.JPG,AMNE23.JPG,,,,,,,,,0,0,0,1,,,,,,,,,,,,,,,AMSA12.jpg,AMNE12.jpg,AMSA16.jpg,AMNE17.jpg,AMNE12.jpg,MN,1,num_6,16,num_6,1.08340806561,,,2017_Mar_06_1936,59.9967671624,MAFE4ImagesEEG,001,100048,
AFSA25.JPG,AFNE24.JPG,AFSA24.JPG,AFNE21.JPG,AFSA21.JPG,AFNE25.JPG,,,,,,,,,0,1,1,2,,,,,,,,,,,,,,,AMSA16.jpg,AMNE09.jpg,AMSA15.jpg,AMNE11.jpg,AMNE11.jpg,MN,1,num_4,32,num_6,2.05005529569,,,2017_Mar_06_1936,59.9967671624,MAFE4ImagesEEG,001,100048,
AFNE23.JPG,AFNE24.JPG,AFNE22.JPG,AFSA24.JPG,AFSA22.JPG,AFSA23.JPG,,,,,,,,,0,2,2,8,,,,,,,,,,,,,,,AMSA04.jpg,AMNE11.jpg,AMNE06.jpg,AMSA07.jpg,AMSA04.jpg,MS,2,num_8,16,num_8,1.66669906164,,,2017_Mar_06_1936,59.9967671624,MAFE4ImagesEEG,001,100048,
AMSA25.JPG,AMNE24.JPG,AMSA24.JPG,AMNE26.JPG,AMSA21.JPG,AMNE25.JPG,,,,,,,,,0,3,3,3,,,,,,,,,,,,,,,AMNE04.jpg,AMSA13.jpg,AMNE14.jpg,AMSA20.jpg,AMSA13.jpg,MS,2,num_6,16,num_6,1.31682325201,,,2017_Mar_06_1936,59.9967671624,MAFE4ImagesEEG,001,100048,
AMNE23.JPG,AMNE24.JPG,AMNE22.JPG,AMSA24.JPG,AMSA22.JPG,AMSA23.JPG,,,,,,,,,0,4,4,9,,,,,,,,,,,,,,,AMNE12.jpg,AMNE15.jpg,AMSA05.jpg,AMSA12.jpg,AMNE12.jpg,MN,1,num_8,32,num_2,1.36673710123,,,2017_Mar_06_1936,59.9967671624,MAFE4ImagesEEG,001,100048,
AFSA21.JPG,AFNE22.JPG,AFNE21.JPG,AFSA23.JPG,AFSA22.JPG,AFNE23.JPG,,,,,,,,,0,5,5,0,,,,,,,,,,,,,,,AMSA04.jpg,AMNE10.jpg,AMNE04.jpg,AMSA06.jpg,AMNE10.jpg,MN,1,num_6,32,num_8,1.66671894724,,,2017_Mar_06_1936,59.9967671624,MAFE4ImagesEEG,001,100048,
AMSA21.JPG,AMNE23.JPG,AMNE21.JPG,AMSA25.JPG,AMNE25.JPG,AMSA23.JPG,,,,,,,,,0,6,6,5,,,,,,,,,,,,,,,AMNE07.jpg,AMNE09.jpg,AMSA04.jpg,AMSA11.jpg,AMSA11.jpg,MS,2,num_4,32,num_2,1.08346900623,,,2017_Mar_06_1936,59.9967671624,MAFE4ImagesEEG,001,100048,
AMNE22.JPG,AMSA24.JPG,AMSA22.JPG,AMNE25.JPG,AMNE24.JPG,AMSA25.JPG,,,,,,,,,0,7,7,7,,,,,,,,,,,,,,,AMNE06.jpg,AMSA03.jpg,AMNE04.jpg,AMSA15.jpg,AMNE04.jpg,MN,1,num_2,16,num_2,1.28343103081,,,2017_Mar_06_1936,59.9967671624,MAFE4ImagesEEG,001,100048,
AFNE22.JPG,AFSA24.JPG,AFSA22.JPG,AFNE25.JPG,AFNE24.JPG,AFSA25.JPG,,,,,,,,,0,8,8,6,,,,,,,,,,,,,,,AMSA12.jpg,AMNE02.jpg,AMSA18.jpg,AMNE18.jpg,AMNE02.jpg,MN,1,num_6,32,num_8,1.36674159113,,,2017_Mar_06_1936,59.9967671624,MAFE4ImagesEEG,001,100048,
AFSA21.JPG,AFNE23.JPG,AFNE21.JPG,AFSA25.JPG,AFNE25.JPG,AFSA23.JPG,,,,,,,,,0,9,9,4,,,,,,,,,,,,,,,AMNE07.jpg,AMSA13.jpg,AMNE04.jpg,AMSA08.jpg,AMNE07.jpg,MN,1,num_8,16,num_8,0.866767571308,,,2017_Mar_06_1936,59.9967671624,MAFE4ImagesEEG,001,100048,
AFNE23.JPG,AFNE24.JPG,AFNE22.JPG,AFSA24.JPG,AFSA22.JPG,AFSA23.JPG,,,,,,,,,,,,,0,0,0,8,,,,,,,,,,,AFSA15.jpg,AFSA11.jpg,AFNE13.jpg,AFNE09.jpg,AFSA15.jpg,FS,4,num_8,32,num_2,1.06674787775,,,2017_Mar_06_1936,59.9967671624,MAFE4ImagesEEG,001,100048,
AMSA21.JPG,AMNE22.JPG,AMNE21.JPG,AMSA23.JPG,AMSA22.JPG,AMNE23.JPG,,,,,,,,,,,,,0,1,1,1,,,,,,,,,,,AFNE06.jpg,AFSA07.jpg,AFNE01.jpg,AFSA14.jpg,AFNE06.jpg,FN,3,num_8,32,num_2,1.86671817768,,,2017_Mar_06_1936,59.9967671624,MAFE4ImagesEEG,001,100048,
AFNE22.JPG,AFSA24.JPG,AFSA22.JPG,AFNE25.JPG,AFNE24.JPG,AFSA25.JPG,,,,,,,,,,,,,0,2,2,6,,,,,,,,,,,AFSA02.jpg,AFSA14.jpg,AFNE14.jpg,AFNE12.jpg,AFNE14.jpg,FN,3,num_2,32,num_4,0.966811127961,,,2017_Mar_06_1936,59.9967671624,MAFE4ImagesEEG,001,100048,
AFSA21.JPG,AFNE23.JPG,AFNE21.JPG,AFSA25.JPG,AFNE25.JPG,AFSA23.JPG,,,,,,,,,,,,,0,3,3,4,,,,,,,,,,,AFSA10.jpg,AFNE03.jpg,AFSA02.jpg,AFNE09.jpg,AFSA10.jpg,FS,4,num_8,32,num_2,2.01669546915,,,2017_Mar_06_1936,59.9967671624,MAFE4ImagesEEG,001,100048,
AFSA25.JPG,AFNE24.JPG,AFSA24.JPG,AFNE21.JPG,AFSA21.JPG,AFNE25.JPG,,,,,,,,,,,,,0,4,4,2,,,,,,,,,,,AFNE06.jpg,AFNE11.jpg,AFSA02.jpg,AFSA17.jpg,AFNE11.jpg,FN,3,num_6,32,num_8,1.18347214954,,,2017_Mar_06_1936,59.9967671624,MAFE4ImagesEEG,001,100048,
AFSA21.JPG,AFNE22.JPG,AFNE21.JPG,AFSA23.JPG,AFSA22.JPG,AFNE23.JPG,,,,,,,,,,,,,0,5,5,0,,,,,,,,,,,AFNE11.jpg,AFSA06.jpg,AFNE04.jpg,AFSA12.jpg,AFSA06.jpg,FS,4,num_6,16,num_6,1.51679329481,,,2017_Mar_06_1936,59.9967671624,MAFE4ImagesEEG,001,100048,
AMNE22.JPG,AMSA24.JPG,AMSA22.JPG,AMNE25.JPG,AMNE24.JPG,AMSA25.JPG,,,,,,,,,,,,,0,6,6,7,,,,,,,,,,,AFNE07.jpg,AFNE17.jpg,AFSA04.jpg,AFSA20.jpg,AFNE17.jpg,FN,3,num_6,32,num_4,1.66675102105,,,2017_Mar_06_1936,59.9967671624,MAFE4ImagesEEG,001,100048,
AMNE23.JPG,AMNE24.JPG,AMNE22.JPG,AMSA24.JPG,AMSA22.JPG,AMSA23.JPG,,,,,,,,,,,,,0,7,7,9,,,,,,,,,,,AFSA10.jpg,AFNE18.jpg,AFSA17.jpg,AFNE02.jpg,AFNE02.jpg,FN,3,num_4,32,num_2,0.983482862357,,,2017_Mar_06_1936,59.9967671624,MAFE4ImagesEEG,001,100048,
AMSA21.JPG,AMNE23.JPG,AMNE21.JPG,AMSA25.JPG,AMNE25.JPG,AMSA23.JPG,,,,,,,,,,,,,0,8,8,5,,,,,,,,,,,AFSA12.jpg,AFNE10.jpg,AFNE12.jpg,AFSA01.jpg,AFNE12.jpg,FN,3,num_2,32,num_6,0.866760835517,,,2017_Mar_06_1936,59.9967671624,MAFE4ImagesEEG,001,100048,
AMSA25.JPG,AMNE24.JPG,AMSA24.JPG,AMNE26.JPG,AMSA21.JPG,AMNE25.JPG,,,,,,,,,,,,,0,9,9,3,,,,,,,,,,,AFSA19.jpg,AFNE03.jpg,AFSA14.jpg,AFNE18.jpg,AFNE03.jpg,FN,3,num_6,16,num_6,0.866779438686,,,2017_Mar_06_1936,59.9967671624,MAFE4ImagesEEG,001,100048,
AMSA21.JPG,AMNE22.JPG,AMNE21.JPG,AMSA23.JPG,AMSA22.JPG,AMNE23.JPG,,,,,,,,,,,,,,,,,0,0,0,1,,,,,,,AMSA03.jpg,AMSA12.jpg,AMNE11.jpg,AMNE09.jpg,AMNE11.jpg,MN,1,num_2,16,num_2,1.30009731231,,,2017_Mar_06_1936,59.9967671624,MAFE4ImagesEEG,001,100048,
AFNE23.JPG,AFNE24.JPG,AFNE22.JPG,AFSA24.JPG,AFSA22.JPG,AFSA23.JPG,,,,,,,,,,,,,,,,,0,1,1,8,,,,,,,AMNE13.jpg,AMSA03.jpg,AMNE10.jpg,AMSA18.jpg,AMSA18.jpg,MS,2,num_4,32,num_6,2.06668148469,,,2017_Mar_06_1936,59.9967671624,MAFE4ImagesEEG,001,100048,
AMNE23.JPG,AMNE24.JPG,AMNE22.JPG,AMSA24.JPG,AMSA22.JPG,AMSA23.JPG,,,,,,,,,,,,,,,,,0,2,2,9,,,,,,,AMSA16.jpg,AMSA13.jpg,AMNE14.jpg,AMNE06.jpg,AMSA16.jpg,MS,2,num_8,16,num_8,0.616870849393,,,2017_Mar_06_1936,59.9967671624,MAFE4ImagesEEG,001,100048,
AMSA25.JPG,AMNE24.JPG,AMSA24.JPG,AMNE26.JPG,AMSA21.JPG,AMNE25.JPG,,,,,,,,,,,,,,,,,0,3,3,3,,,,,,,AMSA19.jpg,AMNE16.jpg,AMNE18.jpg,AMSA03.jpg,AMNE18.jpg,MN,1,num_2,16,num_2,0.583473175764,,,2017_Mar_06_1936,59.9967671624,MAFE4ImagesEEG,001,100048,
AFNE22.JPG,AFSA24.JPG,AFSA22.JPG,AFNE25.JPG,AFNE24.JPG,AFSA25.JPG,,,,,,,,,,,,,,,,,0,4,4,6,,,,,,,AMSA03.jpg,AMNE02.jpg,AMNE09.jpg,AMSA08.jpg,AMNE02.jpg,MN,1,num_6,16,num_6,0.916762567591,,,2017_Mar_06_1936,59.9967671624,MAFE4ImagesEEG,001,100048,
AMSA21.JPG,AMNE23.JPG,AMNE21.JPG,AMSA25.JPG,AMNE25.JPG,AMSA23.JPG,,,,,,,,,,,,,,,,,0,5,5,5,,,,,,,AMNE19.jpg,AMSA04.jpg,AMNE16.jpg,AMSA05.jpg,AMSA04.jpg,MS,2,num_6,16,num_6,0.916751341894,,,2017_Mar_06_1936,59.9967671624,MAFE4ImagesEEG,001,100048,
AFSA25.JPG,AFNE24.JPG,AFSA24.JPG,AFNE21.JPG,AFSA21.JPG,AFNE25.JPG,,,,,,,,,,,,,,,,,0,6,6,2,,,,,,,AMSA15.jpg,AMNE12.jpg,AMSA10.jpg,AMNE19.jpg,AMNE19.jpg,MN,1,num_4,32,num_8,2.18334257044,,,2017_Mar_06_1936,59.9967671624,MAFE4ImagesEEG,001,100048,
AFSA21.JPG,AFNE22.JPG,AFNE21.JPG,AFSA23.JPG,AFSA22.JPG,AFNE23.JPG,,,,,,,,,,,,,,,,,0,7,7,0,,,,,,,AMSA01.jpg,AMNE04.jpg,AMSA11.jpg,AMNE01.jpg,AMNE04.jpg,MN,1,num_6,16,num_6,0.883481964469,,,2017_Mar_06_1936,59.9967671624,MAFE4ImagesEEG,001,100048,
AFSA21.JPG,AFNE23.JPG,AFNE21.JPG,AFSA25.JPG,AFNE25.JPG,AFSA23.JPG,,,,,,,,,,,,,,,,,0,8,8,4,,,,,,,AMNE01.jpg,AMNE02.jpg,AMSA14.jpg,AMSA09.jpg,AMNE01.jpg,MN,1,num_8,16,num_8,1.31674146326,,,2017_Mar_06_1936,59.9967671624,MAFE4ImagesEEG,001,100048,
AMNE22.JPG,AMSA24.JPG,AMSA22.JPG,AMNE25.JPG,AMNE24.JPG,AMSA25.JPG,,,,,,,,,,,,,,,,,0,9,9,7,,,,,,,AMNE02.jpg,AMNE01.jpg,AMSA10.jpg,AMSA06.jpg,AMNE01.jpg,MN,1,num_6,16,num_6,0.750129899476,,,2017_Mar_06_1936,59.9967671624,MAFE4ImagesEEG,001,100048,
AMSA21.JPG,AMNE23.JPG,AMNE21.JPG,AMSA25.JPG,AMNE25.JPG,AMSA23.JPG,,,,,,,,,,,,,,,,,,,,,0,0,0,5,,,AFNE04.jpg,AFSA10.jpg,AFNE12.jpg,AFSA02.jpg,AFNE04.jpg,FN,3,num_8,16,num_8,1.13346368168,,,2017_Mar_06_1936,59.9967671624,MAFE4ImagesEEG,001,100048,
AMNE23.JPG,AMNE24.JPG,AMNE22.JPG,AMSA24.JPG,AMSA22.JPG,AMSA23.JPG,,,,,,,,,,,,,,,,,,,,,0,1,1,9,,,AFNE20.jpg,AFNE09.jpg,AFSA14.jpg,AFSA11.jpg,AFSA11.jpg,FS,4,num_4,32,num_2,0.700147411786,,,2017_Mar_06_1936,59.9967671624,MAFE4ImagesEEG,001,100048,
AFNE22.JPG,AFSA24.JPG,AFSA22.JPG,AFNE25.JPG,AFNE24.JPG,AFSA25.JPG,,,,,,,,,,,,,,,,,,,,,0,2,2,6,,,AFNE20.jpg,AFSA08.jpg,AFNE11.jpg,AFSA04.jpg,AFNE11.jpg,FN,3,num_2,32,num_8,1.10013079783,,,2017_Mar_06_1936,59.9967671624,MAFE4ImagesEEG,001,100048,
AMSA25.JPG,AMNE24.JPG,AMSA24.JPG,AMNE26.JPG,AMSA21.JPG,AMNE25.JPG,,,,,,,,,,,,,,,,,,,,,0,3,3,3,,,AFNE12.jpg,AFSA13.jpg,AFSA03.jpg,AFNE17.jpg,AFNE17.jpg,FN,3,num_4,32,num_2,0.716807600111,,,2017_Mar_06_1936,59.9967671624,MAFE4ImagesEEG,001,100048,
AFSA21.JPG,AFNE23.JPG,AFNE21.JPG,AFSA25.JPG,AFNE25.JPG,AFSA23.JPG,,,,,,,,,,,,,,,,,,,,,0,4,4,4,,,AFNE17.jpg,AFSA06.jpg,AFNE04.jpg,AFSA05.jpg,AFNE04.jpg,FN,3,num_2,32,num_8,0.95010699844,,,2017_Mar_06_1936,59.9967671624,MAFE4ImagesEEG,001,100048,
AFSA21.JPG,AFNE22.JPG,AFNE21.JPG,AFSA23.JPG,AFSA22.JPG,AFNE23.JPG,,,,,,,,,,,,,,,,,,,,,0,5,5,0,,,AFSA13.jpg,AFSA08.jpg,AFNE04.jpg,AFNE03.jpg,AFSA13.jpg,FS,4,num_8,32,num_6,0.783442898188,,,2017_Mar_06_1936,59.9967671624,MAFE4ImagesEEG,001,100048,
AMSA21.JPG,AMNE22.JPG,AMNE21.JPG,AMSA23.JPG,AMSA22.JPG,AMNE23.JPG,,,,,,,,,,,,,,,,,,,,,0,6,6,1,,,AFNE18.jpg,AFSA11.jpg,AFNE16.jpg,AFSA18.jpg,AFSA18.jpg,FS,4,num_4,32,num_6,1.08351743827,,,2017_Mar_06_1936,59.9967671624,MAFE4ImagesEEG,001,100048,
AMNE22.JPG,AMSA24.JPG,AMSA22.JPG,AMNE25.JPG,AMNE24.JPG,AMSA25.JPG,,,,,,,,,,,,,,,,,,,,,0,7,7,7,,,AFSA10.jpg,AFNE08.jpg,AFSA09.jpg,AFNE13.jpg,AFSA09.jpg,FS,4,num_2,16,num_2,0.633510509972,,,2017_Mar_06_1936,59.9967671624,MAFE4ImagesEEG,001,100048,
AFSA25.JPG,AFNE24.JPG,AFSA24.JPG,AFNE21.JPG,AFSA21.JPG,AFNE25.JPG,,,,,,,,,,,,,,,,,,,,,0,8,8,2,,,AFNE20.jpg,AFSA02.jpg,AFNE13.jpg,AFSA14.jpg,AFNE13.jpg,FN,3,num_2,32,num_8,0.833461949602,,,2017_Mar_06_1936,59.9967671624,MAFE4ImagesEEG,001,100048,
AFNE23.JPG,AFNE24.JPG,AFNE22.JPG,AFSA24.JPG,AFSA22.JPG,AFSA23.JPG,,,,,,,,,,,,,,,,,,,,,0,9,9,8,,,AFNE10.jpg,AFSA20.jpg,AFSA10.jpg,AFNE20.jpg,AFSA10.jpg,FS,4,num_2,32,num_6,0.53347144369,,,2017_Mar_06_1936,59.9967671624,MAFE4ImagesEEG,001,100048,
,,,,,,,,,,,,,,,,,,,,,,,,,,,,,,,,,,,,,,,,,,,space,4.93311773241,2017_Mar_06_1936,59.9967671624,MAFE4ImagesEEG,001,100048,
AFNE01.JPG,AFNE01.JPG,AFNE01.JPG,AFNE01.JPG,AFNE01.JPG,AFNE01.JPG,0,0,0,4,,,,,,,,,,,,,,,,,,,,,,,AMNE17.jpg,AMSA10.jpg,AMSA14.jpg,AMNE14.jpg,AMNE14.jpg,MN,1,num_4,32,num_2,0.85012470372,,,2017_Mar_06_1936,59.9967671624,MAFE4ImagesEEG,001,100048,
AFNE01.JPG,AFNE01.JPG,AFNE01.JPG,AFNE01.JPG,AFNE01.JPG,AFNE01.JPG,0,1,1,6,,,,,,,,,,,,,,,,,,,,,,,AMSA18.jpg,AMNE13.jpg,AMSA06.jpg,AMNE18.jpg,AMNE18.jpg,MN,1,num_4,16,num_4,2.06667507021,,,2017_Mar_06_1936,59.9967671624,MAFE4ImagesEEG,001,100048,
AFNE01.JPG,AFNE01.JPG,AFNE01.JPG,AFNE01.JPG,AFNE01.JPG,AFNE01.JPG,0,2,2,7,,,,,,,,,,,,,,,,,,,,,,,AMSA10.jpg,AMNE19.jpg,AMNE04.jpg,AMSA08.jpg,AMNE19.jpg,MN,1,num_6,16,num_6,0.583469647449,,,2017_Mar_06_1936,59.9967671624,MAFE4ImagesEEG,001,100048,
AFNE01.JPG,AFNE01.JPG,AFNE01.JPG,AFNE01.JPG,AFNE01.JPG,AFNE01.JPG,0,3,3,5,,,,,,,,,,,,,,,,,,,,,,,AMNE09.jpg,AMSA10.jpg,AMSA12.jpg,AMNE19.jpg,AMNE19.jpg,MN,1,num_4,16,num_4,1.23342833668,,,2017_Mar_06_1936,59.9967671624,MAFE4ImagesEEG,001,100048,
AFNE01.JPG,AFNE01.JPG,AFNE01.JPG,AFNE01.JPG,AFNE01.JPG,AFNE01.JPG,0,4,4,8,,,,,,,,,,,,,,,,,,,,,,,AMSA02.jpg,AMSA05.jpg,AMNE09.jpg,AMNE07.jpg,AMNE07.jpg,MN,1,num_4,32,num_2,2.083380803,,,2017_Mar_06_1936,59.9967671624,MAFE4ImagesEEG,001,100048,
AFNE01.JPG,AFNE01.JPG,AFNE01.JPG,AFNE01.JPG,AFNE01.JPG,AFNE01.JPG,0,5,5,3,,,,,,,,,,,,,,,,,,,,,,,AMSA08.jpg,AMNE07.jpg,AMSA18.jpg,AMNE14.jpg,AMSA08.jpg,MS,2,num_8,32,num_6,1.01700594556,,,2017_Mar_06_1936,59.9967671624,MAFE4ImagesEEG,001,100048,
AFNE01.JPG,AFNE01.JPG,AFNE01.JPG,AFNE01.JPG,AFNE01.JPG,AFNE01.JPG,0,6,6,0,,,,,,,,,,,,,,,,,,,,,,,AMSA14.jpg,AMNE14.jpg,AMSA11.jpg,AMNE09.jpg,AMSA14.jpg,MS,2,num_8,16,num_8,0.750131182838,,,2017_Mar_06_1936,59.9967671624,MAFE4ImagesEEG,001,100048,
AFNE01.JPG,AFNE01.JPG,AFNE01.JPG,AFNE01.JPG,AFNE01.JPG,AFNE01.JPG,0,7,7,2,,,,,,,,,,,,,,,,,,,,,,,AMNE13.jpg,AMSA01.jpg,AMNE05.jpg,AMSA15.jpg,AMSA01.jpg,MS,2,num_6,32,num_4,0.583499797154,,,2017_Mar_06_1936,59.9967671624,MAFE4ImagesEEG,001,100048,
AFNE01.JPG,AFNE01.JPG,AFNE01.JPG,AFNE01.JPG,AFNE01.JPG,AFNE01.JPG,0,8,8,9,,,,,,,,,,,,,,,,,,,,,,,AMNE16.jpg,AMNE07.jpg,AMSA13.jpg,AMSA02.jpg,AMSA13.jpg,MS,2,num_2,16,num_2,0.666811320465,,,2017_Mar_06_1936,59.9967671624,MAFE4ImagesEEG,001,100048,
AFNE01.JPG,AFNE01.JPG,AFNE01.JPG,AFNE01.JPG,AFNE01.JPG,AFNE01.JPG,0,9,9,1,,,,,,,,,,,,,,,,,,,,,,,AMSA15.jpg,AMSA03.jpg,AMNE20.jpg,AMNE19.jpg,AMSA03.jpg,MS,2,num_6,32,num_8,1.83340004738,,,2017_Mar_06_1936,59.9967671624,MAFE4ImagesEEG,001,100048,
AFNE01.JPG,AFNE01.JPG,AFNE01.JPG,AFNE01.JPG,AFNE01.JPG,AFNE01.JPG,1,0,10,5,,,,,,,,,,,,,,,,,,,,,,,AMNE04.jpg,AMSA10.jpg,AMNE15.jpg,AMSA14.jpg,AMSA10.jpg,MS,2,num_6,32,num_2,0.533469198737,,,2017_Mar_06_1936,59.9967671624,MAFE4ImagesEEG,001,100048,
AFNE01.JPG,AFNE01.JPG,AFNE01.JPG,AFNE01.JPG,AFNE01.JPG,AFNE01.JPG,1,1,11,0,,,,,,,,,,,,,,,,,,,,,,,AMSA02.jpg,AMNE05.jpg,AMSA05.jpg,AMNE20.jpg,AMNE20.jpg,MN,1,num_4,16,num_4,0.550139971077,,,2017_Mar_06_1936,59.9967671624,MAFE4ImagesEEG,001,100048,
AFNE01.JPG,AFNE01.JPG,AFNE01.JPG,AFNE01.JPG,AFNE01.JPG,AFNE01.JPG,1,2,12,3,,,,,,,,,,,,,,,,,,,,,,,AMNE02.jpg,AMSA16.jpg,AMSA07.jpg,AMNE06.jpg,AMNE06.jpg,MN,1,num_4,32,num_8,1.89987786207,,,2017_Mar_06_1936,59.9967671624,MAFE4ImagesEEG,001,100048,
AFNE01.JPG,AFNE01.JPG,AFNE01.JPG,AFNE01.JPG,AFNE01.JPG,AFNE01.JPG,1,3,13,9,,,,,,,,,,,,,,,,,,,,,,,AMSA11.jpg,AMNE20.jpg,AMSA16.jpg,AMNE17.jpg,AMNE17.jpg,MN,1,num_4,32,num_6,1.03346214257,,,2017_Mar_06_1936,59.9967671624,MAFE4ImagesEEG,001,100048,
AFNE01.JPG,AFNE01.JPG,AFNE01.JPG,AFNE01.JPG,AFNE01.JPG,AFNE01.JPG,1,4,14,4,,,,,,,,,,,,,,,,,,,,,,,AMNE19.jpg,AMSA16.jpg,AMSA18.jpg,AMNE10.jpg,AMNE19.jpg,MN,1,num_8,16,num_8,0.666807150934,,,2017_Mar_06_1936,59.9967671624,MAFE4ImagesEEG,001,100048,
AFNE01.JPG,AFNE01.JPG,AFNE01.JPG,AFNE01.JPG,AFNE01.JPG,AFNE01.JPG,1,5,15,7,,,,,,,,,,,,,,,,,,,,,,,AMSA03.jpg,AMNE04.jpg,AMSA14.jpg,AMNE20.jpg,AMSA03.jpg,MS,2,num_8,32,num_2,0.950202579144,,,2017_Mar_06_1936,59.9967671624,MAFE4ImagesEEG,001,100048,
AFNE01.JPG,AFNE01.JPG,AFNE01.JPG,AFNE01.JPG,AFNE01.JPG,AFNE01.JPG,1,6,16,8,,,,,,,,,,,,,,,,,,,,,,,AMNE18.jpg,AMSA15.jpg,AMSA12.jpg,AMNE06.jpg,AMSA12.jpg,MS,2,num_2,16,num_2,1.03347561369,,,2017_Mar_06_1936,59.9967671624,MAFE4ImagesEEG,001,100048,
AFNE01.JPG,AFNE01.JPG,AFNE01.JPG,AFNE01.JPG,AFNE01.JPG,AFNE01.JPG,1,7,17,2,,,,,,,,,,,,,,,,,,,,,,,AMSA02.jpg,AMNE19.jpg,AMNE07.jpg,AMSA13.jpg,AMNE19.jpg,MN,1,num_6,32,num_8,0.800125858281,,,2017_Mar_06_1936,59.9967671624,MAFE4ImagesEEG,001,100048,
AFNE01.JPG,AFNE01.JPG,AFNE01.JPG,AFNE01.JPG,AFNE01.JPG,AFNE01.JPG,1,8,18,1,,,,,,,,,,,,,,,,,,,,,,,AMSA03.jpg,AMNE04.jpg,AMNE09.jpg,AMSA15.jpg,AMNE09.jpg,MN,1,num_2,16,num_2,1.06674948148,,,2017_Mar_06_1936,59.9967671624,MAFE4ImagesEEG,001,100048,
AFNE01.JPG,AFNE01.JPG,AFNE01.JPG,AFNE01.JPG,AFNE01.JPG,AFNE01.JPG,1,9,19,6,,,,,,,,,,,,,,,,,,,,,,,AMSA11.jpg,AMNE02.jpg,AMSA04.jpg,AMNE18.jpg,AMSA04.jpg,MS,2,num_2,16,num_2,0.866760515142,,,2017_Mar_06_1936,59.9967671624,MAFE4ImagesEEG,001,100048,
AFNE01.JPG,AFNE01.JPG,AFNE01.JPG,AFNE01.JPG,AFNE01.JPG,AFNE01.JPG,2,0,20,5,,,,,,,,,,,,,,,,,,,,,,,AMNE07.jpg,AMSA02.jpg,AMSA03.jpg,AMNE01.jpg,AMSA03.jpg,MS,2,num_2,16,num_2,0.800138688181,,,2017_Mar_06_1936,59.9967671624,MAFE4ImagesEEG,001,100048,
AFNE01.JPG,AFNE01.JPG,AFNE01.JPG,AFNE01.JPG,AFNE01.JPG,AFNE01.JPG,2,1,21,0,,,,,,,,,,,,,,,,,,,,,,,AMSA10.jpg,AMSA08.jpg,AMNE08.jpg,AMNE06.jpg,AMSA08.jpg,MS,2,num_6,16,num_6,1.03348074527,,,2017_Mar_06_1936,59.9967671624,MAFE4ImagesEEG,001,100048,
AFNE01.JPG,AFNE01.JPG,AFNE01.JPG,AFNE01.JPG,AFNE01.JPG,AFNE01.JPG,2,2,22,8,,,,,,,,,,,,,,,,,,,,,,,AMSA18.jpg,AMNE16.jpg,AMSA01.jpg,AMNE20.jpg,AMNE16.jpg,MN,1,num_6,16,num_6,1.03343006829,,,2017_Mar_06_1936,59.9967671624,MAFE4ImagesEEG,001,100048,
AFNE01.JPG,AFNE01.JPG,AFNE01.JPG,AFNE01.JPG,AFNE01.JPG,AFNE01.JPG,2,3,23,6,,,,,,,,,,,,,,,,,,,,,,,AMNE14.jpg,AMNE01.jpg,AMSA19.jpg,AMSA04.jpg,AMNE14.jpg,MN,1,num_8,32,num_6,0.950117262546,,,2017_Mar_06_1936,59.9967671624,MAFE4ImagesEEG,001,100048,
AFNE01.JPG,AFNE01.JPG,AFNE01.JPG,AFNE01.JPG,AFNE01.JPG,AFNE01.JPG,2,4,24,2,,,,,,,,,,,,,,,,,,,,,,,AMNE08.jpg,AMNE01.jpg,AMSA11.jpg,AMSA06.jpg,AMNE08.jpg,MN,1,num_8,32,num_6,1.28344706772,,,2017_Mar_06_1936,59.9967671624,MAFE4ImagesEEG,001,100048,
AFNE01.JPG,AFNE01.JPG,AFNE01.JPG,AFNE01.JPG,AFNE01.JPG,AFNE01.JPG,2,5,25,3,,,,,,,,,,,,,,,,,,,,,,,AMNE14.jpg,AMSA19.jpg,AMSA06.jpg,AMNE12.jpg,AMNE12.jpg,MN,1,num_4,32,num_8,0.733455920126,,,2017_Mar_06_1936,59.9967671624,MAFE4ImagesEEG,001,100048,
AFNE01.JPG,AFNE01.JPG,AFNE01.JPG,AFNE01.JPG,AFNE01.JPG,AFNE01.JPG,2,6,26,7,,,,,,,,,,,,,,,,,,,,,,,AMSA13.jpg,AMNE07.jpg,AMSA16.jpg,AMNE12.jpg,AMNE07.jpg,MN,1,num_6,32,num_8,0.950109244324,,,2017_Mar_06_1936,59.9967671624,MAFE4ImagesEEG,001,100048,
AFNE01.JPG,AFNE01.JPG,AFNE01.JPG,AFNE01.JPG,AFNE01.JPG,AFNE01.JPG,2,7,27,4,,,,,,,,,,,,,,,,,,,,,,,AMNE17.jpg,AMSA07.jpg,AMSA18.jpg,AMNE18.jpg,AMSA07.jpg,MS,2,num_6,32,num_2,0.816810422111,,,2017_Mar_06_1936,59.9967671624,MAFE4ImagesEEG,001,100048,
AFNE01.JPG,AFNE01.JPG,AFNE01.JPG,AFNE01.JPG,AFNE01.JPG,AFNE01.JPG,2,8,28,1,,,,,,,,,,,,,,,,,,,,,,,AMSA20.jpg,AMNE07.jpg,AMNE09.jpg,AMSA18.jpg,AMSA18.jpg,MS,2,num_4,16,num_4,1.55036224332,,,2017_Mar_06_1936,59.9967671624,MAFE4ImagesEEG,001,100048,
AFNE01.JPG,AFNE01.JPG,AFNE01.JPG,AFNE01.JPG,AFNE01.JPG,AFNE01.JPG,2,9,29,9,,,,,,,,,,,,,,,,,,,,,,,AMNE05.jpg,AMSA05.jpg,AMSA13.jpg,AMNE14.jpg,AMNE05.jpg,MN,1,num_8,16,num_8,1.06673152046,,,2017_Mar_06_1936,59.9967671624,MAFE4ImagesEEG,001,100048,
AFNE01.JPG,AFNE01.JPG,AFNE01.JPG,AFNE01.JPG,AFNE01.JPG,AFNE01.JPG,3,0,30,9,,,,,,,,,,,,,,,,,,,,,,,AMSA10.jpg,AMNE05.jpg,AMNE12.jpg,AMSA13.jpg,AMNE12.jpg,MN,1,num_2,16,num_2,0.616760515142,,,2017_Mar_06_1936,59.9967671624,MAFE4ImagesEEG,001,100048,
AFNE01.JPG,AFNE01.JPG,AFNE01.JPG,AFNE01.JPG,AFNE01.JPG,AFNE01.JPG,3,1,31,5,,,,,,,,,,,,,,,,,,,,,,,AMSA14.jpg,AMNE17.jpg,AMNE12.jpg,AMSA04.jpg,AMSA14.jpg,MS,2,num_8,16,num_8,0.783564779442,,,2017_Mar_06_1936,59.9967671624,MAFE4ImagesEEG,001,100048,
AFNE01.JPG,AFNE01.JPG,AFNE01.JPG,AFNE01.JPG,AFNE01.JPG,AFNE01.JPG,3,2,32,7,,,,,,,,,,,,,,,,,,,,,,,AMSA15.jpg,AMNE13.jpg,AMSA02.jpg,AMNE01.jpg,AMNE13.jpg,MN,1,num_6,16,num_6,1.28349517845,,,2017_Mar_06_1936,59.9967671624,MAFE4ImagesEEG,001,100048,
AFNE01.JPG,AFNE01.JPG,AFNE01.JPG,AFNE01.JPG,AFNE01.JPG,AFNE01.JPG,3,3,33,3,,,,,,,,,,,,,,,,,,,,,,,AMSA07.jpg,AMNE13.jpg,AMNE08.jpg,AMSA16.jpg,AMNE08.jpg,MN,1,num_2,16,num_2,0.866759873927,,,2017_Mar_06_1936,59.9967671624,MAFE4ImagesEEG,001,100048,
AFNE01.JPG,AFNE01.JPG,AFNE01.JPG,AFNE01.JPG,AFNE01.JPG,AFNE01.JPG,3,4,34,4,,,,,,,,,,,,,,,,,,,,,,,AMNE19.jpg,AMSA16.jpg,AMSA09.jpg,AMNE04.jpg,AMNE04.jpg,MN,1,num_4,32,num_2,1.28340922017,,,2017_Mar_06_1936,59.9967671624,MAFE4ImagesEEG,001,100048,
AFNE01.JPG,AFNE01.JPG,AFNE01.JPG,AFNE01.JPG,AFNE01.JPG,AFNE01.JPG,3,5,35,6,,,,,,,,,,,,,,,,,,,,,,,AMNE09.jpg,AMNE07.jpg,AMSA19.jpg,AMSA07.jpg,AMNE07.jpg,MN,1,num_6,32,num_8,0.733442769386,,,2017_Mar_06_1936,59.9967671624,MAFE4ImagesEEG,001,100048,
AFNE01.JPG,AFNE01.JPG,AFNE01.JPG,AFNE01.JPG,AFNE01.JPG,AFNE01.JPG,3,6,36,8,,,,,,,,,,,,,,,,,,,,,,,AMNE16.jpg,AMNE05.jpg,AMSA09.jpg,AMSA02.jpg,AMSA02.jpg,MS,2,num_4,16,num_4,0.750104881823,,,2017_Mar_06_1936,59.9967671624,MAFE4ImagesEEG,001,100048,
AFNE01.JPG,AFNE01.JPG,AFNE01.JPG,AFNE01.JPG,AFNE01.JPG,AFNE01.JPG,3,7,37,1,,,,,,,,,,,,,,,,,,,,,,,AMSA04.jpg,AMNE02.jpg,AMSA09.jpg,AMNE06.jpg,AMNE06.jpg,MN,1,num_4,32,num_8,0.733484145254,,,2017_Mar_06_1936,59.9967671624,MAFE4ImagesEEG,001,100048,
AFNE01.JPG,AFNE01.JPG,AFNE01.JPG,AFNE01.JPG,AFNE01.JPG,AFNE01.JPG,3,8,38,2,,,,,,,,,,,,,,,,,,,,,,,AMSA09.jpg,AMNE13.jpg,AMNE16.jpg,AMSA20.jpg,AMNE16.jpg,MN,1,num_2,32,num_8,0.833472213708,,,2017_Mar_06_1936,59.9967671624,MAFE4ImagesEEG,001,100048,
AFNE01.JPG,AFNE01.JPG,AFNE01.JPG,AFNE01.JPG,AFNE01.JPG,AFNE01.JPG,3,9,39,0,,,,,,,,,,,,,,,,,,,,,,,AMNE15.jpg,AMSA07.jpg,AMNE18.jpg,AMSA14.jpg,AMNE18.jpg,MN,1,num_2,32,num_6,0.550173969008,,,2017_Mar_06_1936,59.9967671624,MAFE4ImagesEEG,001,100048,
AFNE01.JPG,AFNE01.JPG,AFNE01.JPG,AFNE01.JPG,AFNE01.JPG,AFNE01.JPG,4,0,40,4,,,,,,,,,,,,,,,,,,,,,,,AMNE04.jpg,AMSA15.jpg,AMSA13.jpg,AMNE17.jpg,AMNE04.jpg,MN,1,num_8,16,num_8,0.733485748526,,,2017_Mar_06_1936,59.9967671624,MAFE4ImagesEEG,001,100048,
AFNE01.JPG,AFNE01.JPG,AFNE01.JPG,AFNE01.JPG,AFNE01.JPG,AFNE01.JPG,4,1,41,6,,,,,,,,,,,,,,,,,,,,,,,AMSA15.jpg,AMNE19.jpg,AMNE01.jpg,AMSA10.jpg,AMNE19.jpg,MN,1,num_6,32,num_2,0.700166977476,,,2017_Mar_06_1936,59.9967671624,MAFE4ImagesEEG,001,100048,
AFNE01.JPG,AFNE01.JPG,AFNE01.JPG,AFNE01.JPG,AFNE01.JPG,AFNE01.JPG,4,2,42,7,,,,,,,,,,,,,,,,,,,,,,,AMNE12.jpg,AMSA01.jpg,AMSA08.jpg,AMNE16.jpg,AMNE16.jpg,MN,1,num_4,16,num_4,0.833455214277,,,2017_Mar_06_1936,59.9967671624,MAFE4ImagesEEG,001,100048,
AFNE01.JPG,AFNE01.JPG,AFNE01.JPG,AFNE01.JPG,AFNE01.JPG,AFNE01.JPG,4,3,43,3,,,,,,,,,,,,,,,,,,,,,,,AMSA01.jpg,AMNE07.jpg,AMSA07.jpg,AMNE11.jpg,AMNE07.jpg,MN,1,num_6,32,num_4,0.616822417825,,,2017_Mar_06_1936,59.9967671624,MAFE4ImagesEEG,001,100048,
AFNE01.JPG,AFNE01.JPG,AFNE01.JPG,AFNE01.JPG,AFNE01.JPG,AFNE01.JPG,4,4,44,2,,,,,,,,,,,,,,,,,,,,,,,AMNE02.jpg,AMNE03.jpg,AMSA12.jpg,AMSA03.jpg,AMSA12.jpg,MS,2,num_2,32,num_6,1.26671663811,,,2017_Mar_06_1936,59.9967671624,MAFE4ImagesEEG,001,100048,
AFNE01.JPG,AFNE01.JPG,AFNE01.JPG,AFNE01.JPG,AFNE01.JPG,AFNE01.JPG,4,5,45,0,,,,,,,,,,,,,,,,,,,,,,,AMNE16.jpg,AMNE15.jpg,AMSA10.jpg,AMSA05.jpg,AMSA05.jpg,MS,2,num_4,16,num_4,0.600135929417,,,2017_Mar_06_1936,59.9967671624,MAFE4ImagesEEG,001,100048,
AFNE01.JPG,AFNE01.JPG,AFNE01.JPG,AFNE01.JPG,AFNE01.JPG,AFNE01.JPG,4,6,46,1,,,,,,,,,,,,,,,,,,,,,,,AMNE15.jpg,AMSA01.jpg,AMNE11.jpg,AMSA17.jpg,AMNE11.jpg,MN,1,num_2,32,num_6,0.600102893542,,,2017_Mar_06_1936,59.9967671624,MAFE4ImagesEEG,001,100048,
AFNE01.JPG,AFNE01.JPG,AFNE01.JPG,AFNE01.JPG,AFNE01.JPG,AFNE01.JPG,4,7,47,8,,,,,,,,,,,,,,,,,,,,,,,AMSA17.jpg,AMNE19.jpg,AMSA12.jpg,AMNE05.jpg,AMNE05.jpg,MN,1,num_4,32,num_6,0.883457908873,,,2017_Mar_06_1936,59.9967671624,MAFE4ImagesEEG,001,100048,
AFNE01.JPG,AFNE01.JPG,AFNE01.JPG,AFNE01.JPG,AFNE01.JPG,AFNE01.JPG,4,8,48,5,,,,,,,,,,,,,,,,,,,,,,,AMSA11.jpg,AMSA08.jpg,AMNE12.jpg,AMNE19.jpg,AMSA11.jpg,MS,2,num_8,16,num_8,0.566807535477,,,2017_Mar_06_1936,59.9967671624,MAFE4ImagesEEG,001,100048,
AFNE01.JPG,AFNE01.JPG,AFNE01.JPG,AFNE01.JPG,AFNE01.JPG,AFNE01.JPG,4,9,49,9,,,,,,,,,,,,,,,,,,,,,,,AMSA02.jpg,AMNE17.jpg,AMNE13.jpg,AMSA05.jpg,AMNE13.jpg,MN,1,num_2,16,num_2,1.2001108476,,,2017_Mar_06_1936,59.9967671624,MAFE4ImagesEEG,001,100048,
AFNE01.JPG,AFNE01.JPG,AFNE01.JPG,AFNE01.JPG,AFNE01.JPG,AFNE01.JPG,5,0,50,5,,,,,,,,,,,,,,,,,,,,,,,AMSA20.jpg,AMNE04.jpg,AMNE19.jpg,AMSA03.jpg,AMNE04.jpg,MN,1,num_6,16,num_6,0.78349421639,,,2017_Mar_06_1936,59.9967671624,MAFE4ImagesEEG,001,100048,
AFNE01.JPG,AFNE01.JPG,AFNE01.JPG,AFNE01.JPG,AFNE01.JPG,AFNE01.JPG,5,1,51,9,,,,,,,,,,,,,,,,,,,,,,,AMSA15.jpg,AMNE19.jpg,AMNE04.jpg,AMSA02.jpg,AMSA15.jpg,MS,2,num_8,16,num_8,0.766757371835,,,2017_Mar_06_1936,59.9967671624,MAFE4ImagesEEG,001,100048,
AFNE01.JPG,AFNE01.JPG,AFNE01.JPG,AFNE01.JPG,AFNE01.JPG,AFNE01.JPG,5,2,52,6,,,,,,,,,,,,,,,,,,,,,,,AMSA17.jpg,AMNE02.jpg,AMSA12.jpg,AMNE05.jpg,AMNE05.jpg,MN,1,num_4,16,num_4,1.40012162458,,,2017_Mar_06_1936,59.9967671624,MAFE4ImagesEEG,001,100048,
AFNE01.JPG,AFNE01.JPG,AFNE01.JPG,AFNE01.JPG,AFNE01.JPG,AFNE01.JPG,5,3,53,7,,,,,,,,,,,,,,,,,,,,,,,AMSA01.jpg,AMNE11.jpg,AMSA11.jpg,AMNE02.jpg,AMSA11.jpg,MS,2,num_2,32,num_8,0.850138174836,,,2017_Mar_06_1936,59.9967671624,MAFE4ImagesEEG,001,100048,
AFNE01.JPG,AFNE01.JPG,AFNE01.JPG,AFNE01.JPG,AFNE01.JPG,AFNE01.JPG,5,4,54,1,,,,,,,,,,,,,,,,,,,,,,,AMNE05.jpg,AMSA15.jpg,AMSA10.jpg,AMNE17.jpg,AMSA10.jpg,MS,2,num_2,32,num_6,0.750126692001,,,2017_Mar_06_1936,59.9967671624,MAFE4ImagesEEG,001,100048,
AFNE01.JPG,AFNE01.JPG,AFNE01.JPG,AFNE01.JPG,AFNE01.JPG,AFNE01.JPG,5,5,55,4,,,,,,,,,,,,,,,,,,,,,,,AMSA01.jpg,AMNE14.jpg,AMNE12.jpg,AMSA04.jpg,AMNE12.jpg,MN,1,num_2,32,num_6,0.666772190016,,,2017_Mar_06_1936,59.9967671624,MAFE4ImagesEEG,001,100048,
AFNE01.JPG,AFNE01.JPG,AFNE01.JPG,AFNE01.JPG,AFNE01.JPG,AFNE01.JPG,5,6,56,2,,,,,,,,,,,,,,,,,,,,,,,AMNE08.jpg,AMNE11.jpg,AMSA12.jpg,AMSA01.jpg,AMNE08.jpg,MN,1,num_8,16,num_8,0.666789830662,,,2017_Mar_06_1936,59.9967671624,MAFE4ImagesEEG,001,100048,
AFNE01.JPG,AFNE01.JPG,AFNE01.JPG,AFNE01.JPG,AFNE01.JPG,AFNE01.JPG,5,7,57,3,,,,,,,,,,,,,,,,,,,,,,,AMSA10.jpg,AMNE05.jpg,AMSA03.jpg,AMNE17.jpg,AMNE17.jpg,MN,1,num_4,32,num_6,0.800150234718,,,2017_Mar_06_1936,59.9967671624,MAFE4ImagesEEG,001,100048,
AFNE01.JPG,AFNE01.JPG,AFNE01.JPG,AFNE01.JPG,AFNE01.JPG,AFNE01.JPG,5,8,58,0,,,,,,,,,,,,,,,,,,,,,,,AMNE02.jpg,AMSA16.jpg,AMSA09.jpg,AMNE18.jpg,AMSA16.jpg,MS,2,num_6,16,num_6,0.71682748571,,,2017_Mar_06_1936,59.9967671624,MAFE4ImagesEEG,001,100048,
AFNE01.JPG,AFNE01.JPG,AFNE01.JPG,AFNE01.JPG,AFNE01.JPG,AFNE01.JPG,5,9,59,8,,,,,,,,,,,,,,,,,,,,,,,AMNE16.jpg,AMNE13.jpg,AMSA09.jpg,AMSA14.jpg,AMSA14.jpg,MS,2,num_4,16,num_4,0.91640686756,,,2017_Mar_06_1936,59.9967671624,MAFE4ImagesEEG,001,100048,
,,,,,,,,,,,,,,,,,,,,,,,,,,,,,,,,,,,,,,,,,,,space,3.44990942301,2017_Mar_06_1936,59.9967671624,MAFE4ImagesEEG,001,100048,
AFNE01.JPG,AFNE01.JPG,AFNE01.JPG,AFNE01.JPG,AFNE01.JPG,AFNE01.JPG,,,,,0,0,0,0,,,,,,,,,,,,,,,,,,,AFNE13.jpg,AFNE02.jpg,AFSA09.jpg,AFSA07.jpg,AFNE13.jpg,FN,3,num_8,32,num_6,0.683464131318,,,2017_Mar_06_1936,59.9967671624,MAFE4ImagesEEG,001,100048,
AFNE01.JPG,AFNE01.JPG,AFNE01.JPG,AFNE01.JPG,AFNE01.JPG,AFNE01.JPG,,,,,0,1,1,6,,,,,,,,,,,,,,,,,,,AFNE05.jpg,AFNE17.jpg,AFSA08.jpg,AFSA02.jpg,AFSA08.jpg,FS,4,num_2,16,num_2,1.53325013351,,,2017_Mar_06_1936,59.9967671624,MAFE4ImagesEEG,001,100048,
AFNE01.JPG,AFNE01.JPG,AFNE01.JPG,AFNE01.JPG,AFNE01.JPG,AFNE01.JPG,,,,,0,2,2,2,,,,,,,,,,,,,,,,,,,AFSA01.jpg,AFNE12.jpg,AFSA12.jpg,AFNE05.jpg,AFSA12.jpg,FS,4,num_2,32,num_8,1.00025466736,,,2017_Mar_06_1936,59.9967671624,MAFE4ImagesEEG,001,100048,
AFNE01.JPG,AFNE01.JPG,AFNE01.JPG,AFNE01.JPG,AFNE01.JPG,AFNE01.JPG,,,,,0,3,3,8,,,,,,,,,,,,,,,,,,,AFNE04.jpg,AFSA14.jpg,AFSA02.jpg,AFNE10.jpg,AFSA02.jpg,FS,4,num_2,16,num_2,0.933438151143,,,2017_Mar_06_1936,59.9967671624,MAFE4ImagesEEG,001,100048,
AFNE01.JPG,AFNE01.JPG,AFNE01.JPG,AFNE01.JPG,AFNE01.JPG,AFNE01.JPG,,,,,0,4,4,4,,,,,,,,,,,,,,,,,,,AFSA17.jpg,AFNE04.jpg,AFNE20.jpg,AFSA01.jpg,AFNE20.jpg,FN,3,num_2,32,num_8,0.533481386956,,,2017_Mar_06_1936,59.9967671624,MAFE4ImagesEEG,001,100048,
AFNE01.JPG,AFNE01.JPG,AFNE01.JPG,AFNE01.JPG,AFNE01.JPG,AFNE01.JPG,,,,,0,5,5,5,,,,,,,,,,,,,,,,,,,AFSA20.jpg,AFSA16.jpg,AFNE02.jpg,AFNE07.jpg,AFNE07.jpg,FN,3,num_4,16,num_4,1.0333267902,,,2017_Mar_06_1936,59.9967671624,MAFE4ImagesEEG,001,100048,
AFNE01.JPG,AFNE01.JPG,AFNE01.JPG,AFNE01.JPG,AFNE01.JPG,AFNE01.JPG,,,,,0,6,6,1,,,,,,,,,,,,,,,,,,,AFSA07.jpg,AFNE20.jpg,AFNE15.jpg,AFSA02.jpg,AFSA07.jpg,FS,4,num_8,16,num_8,0.650085059926,,,2017_Mar_06_1936,59.9967671624,MAFE4ImagesEEG,001,100048,
AFNE01.JPG,AFNE01.JPG,AFNE01.JPG,AFNE01.JPG,AFNE01.JPG,AFNE01.JPG,,,,,0,7,7,3,,,,,,,,,,,,,,,,,,,AFNE20.jpg,AFSA14.jpg,AFNE14.jpg,AFSA02.jpg,AFNE14.jpg,FN,3,num_2,32,num_8,0.616793871857,,,2017_Mar_06_1936,59.9967671624,MAFE4ImagesEEG,001,100048,
AFNE01.JPG,AFNE01.JPG,AFNE01.JPG,AFNE01.JPG,AFNE01.JPG,AFNE01.JPG,,,,,0,8,8,7,,,,,,,,,,,,,,,,,,,AFSA18.jpg,AFNE02.jpg,AFSA14.jpg,AFNE13.jpg,AFSA14.jpg,FS,4,num_2,32,num_8,0.633470738307,,,2017_Mar_06_1936,59.9967671624,MAFE4ImagesEEG,001,100048,
AFNE01.JPG,AFNE01.JPG,AFNE01.JPG,AFNE01.JPG,AFNE01.JPG,AFNE01.JPG,,,,,0,9,9,9,,,,,,,,,,,,,,,,,,,AFNE15.jpg,AFSA17.jpg,AFNE05.jpg,AFSA05.jpg,AFSA17.jpg,FS,4,num_6,16,num_6,1.03347080247,,,2017_Mar_06_1936,59.9967671624,MAFE4ImagesEEG,001,100048,
AFNE01.JPG,AFNE01.JPG,AFNE01.JPG,AFNE01.JPG,AFNE01.JPG,AFNE01.JPG,,,,,1,0,10,9,,,,,,,,,,,,,,,,,,,AFSA03.jpg,AFNE11.jpg,AFSA11.jpg,AFNE03.jpg,AFSA03.jpg,FS,4,num_8,16,num_8,1.1834830544,,,2017_Mar_06_1936,59.9967671624,MAFE4ImagesEEG,001,100048,
AFNE01.JPG,AFNE01.JPG,AFNE01.JPG,AFNE01.JPG,AFNE01.JPG,AFNE01.JPG,,,,,1,1,11,3,,,,,,,,,,,,,,,,,,,AFNE17.jpg,AFSA06.jpg,AFSA10.jpg,AFNE10.jpg,AFSA06.jpg,FS,4,num_6,32,num_2,0.88343321206,,,2017_Mar_06_1936,59.9967671624,MAFE4ImagesEEG,001,100048,
AFNE01.JPG,AFNE01.JPG,AFNE01.JPG,AFNE01.JPG,AFNE01.JPG,AFNE01.JPG,,,,,1,2,12,5,,,,,,,,,,,,,,,,,,,AFNE07.jpg,AFSA18.jpg,AFSA07.jpg,AFNE13.jpg,AFNE13.jpg,FN,3,num_4,16,num_4,0.683477281127,,,2017_Mar_06_1936,59.9967671624,MAFE4ImagesEEG,001,100048,
AFNE01.JPG,AFNE01.JPG,AFNE01.JPG,AFNE01.JPG,AFNE01.JPG,AFNE01.JPG,,,,,1,3,13,1,,,,,,,,,,,,,,,,,,,AFNE16.jpg,AFNE14.jpg,AFSA11.jpg,AFSA20.jpg,AFNE16.jpg,FN,3,num_8,32,num_4,0.633554130793,,,2017_Mar_06_1936,59.9967671624,MAFE4ImagesEEG,001,100048,
AFNE01.JPG,AFNE01.JPG,AFNE01.JPG,AFNE01.JPG,AFNE01.JPG,AFNE01.JPG,,,,,1,4,14,0,,,,,,,,,,,,,,,,,,,AFNE02.jpg,AFSA05.jpg,AFNE07.jpg,AFSA14.jpg,AFNE07.jpg,FN,3,num_2,16,num_2,0.700159920845,,,2017_Mar_06_1936,59.9967671624,MAFE4ImagesEEG,001,100048,
AFNE01.JPG,AFNE01.JPG,AFNE01.JPG,AFNE01.JPG,AFNE01.JPG,AFNE01.JPG,,,,,1,5,15,6,,,,,,,,,,,,,,,,,,,AFNE10.jpg,AFSA06.jpg,AFNE20.jpg,AFSA17.jpg,AFNE20.jpg,FN,3,num_2,32,num_8,0.650132850278,,,2017_Mar_06_1936,59.9967671624,MAFE4ImagesEEG,001,100048,
AFNE01.JPG,AFNE01.JPG,AFNE01.JPG,AFNE01.JPG,AFNE01.JPG,AFNE01.JPG,,,,,1,6,16,4,,,,,,,,,,,,,,,,,,,AFSA12.jpg,AFSA11.jpg,AFNE08.jpg,AFNE05.jpg,AFNE05.jpg,FN,3,num_4,32,num_2,0.566744991113,,,2017_Mar_06_1936,59.9967671624,MAFE4ImagesEEG,001,100048,
AFNE01.JPG,AFNE01.JPG,AFNE01.JPG,AFNE01.JPG,AFNE01.JPG,AFNE01.JPG,,,,,1,7,17,2,,,,,,,,,,,,,,,,,,,AFSA16.jpg,AFSA18.jpg,AFNE15.jpg,AFNE17.jpg,AFSA18.jpg,FS,4,num_6,32,num_4,0.766766352579,,,2017_Mar_06_1936,59.9967671624,MAFE4ImagesEEG,001,100048,
AFNE01.JPG,AFNE01.JPG,AFNE01.JPG,AFNE01.JPG,AFNE01.JPG,AFNE01.JPG,,,,,1,8,18,7,,,,,,,,,,,,,,,,,,,AFSA19.jpg,AFNE20.jpg,AFNE01.jpg,AFSA03.jpg,AFSA19.jpg,FS,4,num_8,16,num_8,1.08341736719,,,2017_Mar_06_1936,59.9967671624,MAFE4ImagesEEG,001,100048,
AFNE01.JPG,AFNE01.JPG,AFNE01.JPG,AFNE01.JPG,AFNE01.JPG,AFNE01.JPG,,,,,1,9,19,8,,,,,,,,,,,,,,,,,,,AFSA20.jpg,AFNE14.jpg,AFSA03.jpg,AFNE15.jpg,AFSA20.jpg,FS,4,num_8,32,num_4,0.683452584315,,,2017_Mar_06_1936,59.9967671624,MAFE4ImagesEEG,001,100048,
AFNE01.JPG,AFNE01.JPG,AFNE01.JPG,AFNE01.JPG,AFNE01.JPG,AFNE01.JPG,,,,,2,0,20,7,,,,,,,,,,,,,,,,,,,AFNE01.jpg,AFSA17.jpg,AFNE07.jpg,AFSA11.jpg,AFSA11.jpg,FS,4,num_4,16,num_4,0.483486069832,,,2017_Mar_06_1936,59.9967671624,MAFE4ImagesEEG,001,100048,
AFNE01.JPG,AFNE01.JPG,AFNE01.JPG,AFNE01.JPG,AFNE01.JPG,AFNE01.JPG,,,,,2,1,21,8,,,,,,,,,,,,,,,,,,,AFNE07.jpg,AFSA02.jpg,AFNE08.jpg,AFSA06.jpg,AFNE07.jpg,FN,3,num_8,16,num_8,0.733553424943,,,2017_Mar_06_1936,59.9967671624,MAFE4ImagesEEG,001,100048,
AFNE01.JPG,AFNE01.JPG,AFNE01.JPG,AFNE01.JPG,AFNE01.JPG,AFNE01.JPG,,,,,2,2,22,9,,,,,,,,,,,,,,,,,,,AFSA08.jpg,AFNE15.jpg,AFNE03.jpg,AFSA04.jpg,AFSA08.jpg,FS,4,num_8,32,num_2,0.7834775378,,,2017_Mar_06_1936,59.9967671624,MAFE4ImagesEEG,001,100048,
AFNE01.JPG,AFNE01.JPG,AFNE01.JPG,AFNE01.JPG,AFNE01.JPG,AFNE01.JPG,,,,,2,3,23,6,,,,,,,,,,,,,,,,,,,AFSA12.jpg,AFNE05.jpg,AFNE04.jpg,AFSA18.jpg,AFNE04.jpg,FN,3,num_2,16,num_2,0.583604358137,,,2017_Mar_06_1936,59.9967671624,MAFE4ImagesEEG,001,100048,
AFNE01.JPG,AFNE01.JPG,AFNE01.JPG,AFNE01.JPG,AFNE01.JPG,AFNE01.JPG,,,,,2,4,24,1,,,,,,,,,,,,,,,,,,,AFNE16.jpg,AFSA02.jpg,AFSA19.jpg,AFNE19.jpg,AFSA02.jpg,FS,4,num_6,32,num_8,0.783483311068,,,2017_Mar_06_1936,59.9967671624,MAFE4ImagesEEG,001,100048,
AFNE01.JPG,AFNE01.JPG,AFNE01.JPG,AFNE01.JPG,AFNE01.JPG,AFNE01.JPG,,,,,2,5,25,2,,,,,,,,,,,,,,,,,,,AFNE08.jpg,AFSA13.jpg,AFNE16.jpg,AFSA10.jpg,AFSA10.jpg,FS,4,num_4,32,num_8,0.633473945782,,,2017_Mar_06_1936,59.9967671624,MAFE4ImagesEEG,001,100048,
AFNE01.JPG,AFNE01.JPG,AFNE01.JPG,AFNE01.JPG,AFNE01.JPG,AFNE01.JPG,,,,,2,6,26,4,,,,,,,,,,,,,,,,,,,AFNE01.jpg,AFSA20.jpg,AFNE13.jpg,AFSA08.jpg,AFNE01.jpg,FN,3,num_8,16,num_8,0.599999614991,,,2017_Mar_06_1936,59.9967671624,MAFE4ImagesEEG,001,100048,
AFNE01.JPG,AFNE01.JPG,AFNE01.JPG,AFNE01.JPG,AFNE01.JPG,AFNE01.JPG,,,,,2,7,27,5,,,,,,,,,,,,,,,,,,,AFSA08.jpg,AFSA03.jpg,AFNE20.jpg,AFNE13.jpg,AFNE13.jpg,FN,3,num_4,32,num_2,0.600177304819,,,2017_Mar_06_1936,59.9967671624,MAFE4ImagesEEG,001,100048,
AFNE01.JPG,AFNE01.JPG,AFNE01.JPG,AFNE01.JPG,AFNE01.JPG,AFNE01.JPG,,,,,2,8,28,0,,,,,,,,,,,,,,,,,,,AFSA06.jpg,AFNE03.jpg,AFNE05.jpg,AFSA18.jpg,AFSA06.jpg,FS,4,num_8,32,num_4,0.700098338537,,,2017_Mar_06_1936,59.9967671624,MAFE4ImagesEEG,001,100048,
AFNE01.JPG,AFNE01.JPG,AFNE01.JPG,AFNE01.JPG,AFNE01.JPG,AFNE01.JPG,,,,,2,9,29,3,,,,,,,,,,,,,,,,,,,AFNE13.jpg,AFSA08.jpg,AFSA12.jpg,AFNE07.jpg,AFSA12.jpg,FS,4,num_2,32,num_6,0.766760899685,,,2017_Mar_06_1936,59.9967671624,MAFE4ImagesEEG,001,100048,
AFNE01.JPG,AFNE01.JPG,AFNE01.JPG,AFNE01.JPG,AFNE01.JPG,AFNE01.JPG,,,,,3,0,30,8,,,,,,,,,,,,,,,,,,,AFSA19.jpg,AFSA12.jpg,AFNE19.jpg,AFNE14.jpg,AFSA19.jpg,FS,4,num_8,16,num_8,0.600139778107,,,2017_Mar_06_1936,59.9967671624,MAFE4ImagesEEG,001,100048,
AFNE01.JPG,AFNE01.JPG,AFNE01.JPG,AFNE01.JPG,AFNE01.JPG,AFNE01.JPG,,,,,3,1,31,3,,,,,,,,,,,,,,,,,,,AFNE04.jpg,AFNE12.jpg,AFSA09.jpg,AFSA05.jpg,AFNE04.jpg,FN,3,num_8,16,num_8,0.716771997511,,,2017_Mar_06_1936,59.9967671624,MAFE4ImagesEEG,001,100048,
AFNE01.JPG,AFNE01.JPG,AFNE01.JPG,AFNE01.JPG,AFNE01.JPG,AFNE01.JPG,,,,,3,2,32,7,,,,,,,,,,,,,,,,,,,AFSA14.jpg,AFNE03.jpg,AFSA09.jpg,AFNE19.jpg,AFSA09.jpg,FS,4,num_2,32,num_8,0.833541814238,,,2017_Mar_06_1936,59.9967671624,MAFE4ImagesEEG,001,100048,
AFNE01.JPG,AFNE01.JPG,AFNE01.JPG,AFNE01.JPG,AFNE01.JPG,AFNE01.JPG,,,,,3,3,33,5,,,,,,,,,,,,,,,,,,,AFNE19.jpg,AFNE10.jpg,AFSA13.jpg,AFSA10.jpg,AFNE10.jpg,FN,3,num_6,32,num_2,0.933177710511,,,2017_Mar_06_1936,59.9967671624,MAFE4ImagesEEG,001,100048,
AFNE01.JPG,AFNE01.JPG,AFNE01.JPG,AFNE01.JPG,AFNE01.JPG,AFNE01.JPG,,,,,3,4,34,4,,,,,,,,,,,,,,,,,,,AFNE12.jpg,AFNE07.jpg,AFSA11.jpg,AFSA20.jpg,AFSA20.jpg,FS,4,num_4,32,num_2,0.450180768967,,,2017_Mar_06_1936,59.9967671624,MAFE4ImagesEEG,001,100048,
AFNE01.JPG,AFNE01.JPG,AFNE01.JPG,AFNE01.JPG,AFNE01.JPG,AFNE01.JPG,,,,,3,5,35,9,,,,,,,,,,,,,,,,,,,AFSA02.jpg,AFSA08.jpg,AFNE09.jpg,AFNE18.jpg,AFSA02.jpg,FS,4,num_8,16,num_8,0.566868476104,,,2017_Mar_06_1936,59.9967671624,MAFE4ImagesEEG,001,100048,
AFNE01.JPG,AFNE01.JPG,AFNE01.JPG,AFNE01.JPG,AFNE01.JPG,AFNE01.JPG,,,,,3,6,36,2,,,,,,,,,,,,,,,,,,,AFNE17.jpg,AFNE19.jpg,AFSA04.jpg,AFSA14.jpg,AFSA14.jpg,FS,4,num_4,32,num_6,0.650155302137,,,2017_Mar_06_1936,59.9967671624,MAFE4ImagesEEG,001,100048,
AFNE01.JPG,AFNE01.JPG,AFNE01.JPG,AFNE01.JPG,AFNE01.JPG,AFNE01.JPG,,,,,3,7,37,1,,,,,,,,,,,,,,,,,,,AFNE05.jpg,AFSA06.jpg,AFNE12.jpg,AFSA07.jpg,AFNE05.jpg,FN,3,num_8,16,num_8,0.833427951671,,,2017_Mar_06_1936,59.9967671624,MAFE4ImagesEEG,001,100048,
AFNE01.JPG,AFNE01.JPG,AFNE01.JPG,AFNE01.JPG,AFNE01.JPG,AFNE01.JPG,,,,,3,8,38,0,,,,,,,,,,,,,,,,,,,AFNE19.jpg,AFSA13.jpg,AFNE03.jpg,AFSA11.jpg,AFNE19.jpg,FN,3,num_8,16,num_8,0.650159471668,,,2017_Mar_06_1936,59.9967671624,MAFE4ImagesEEG,001,100048,
AFNE01.JPG,AFNE01.JPG,AFNE01.JPG,AFNE01.JPG,AFNE01.JPG,AFNE01.JPG,,,,,3,9,39,6,,,,,,,,,,,,,,,,,,,AFNE16.jpg,AFNE12.jpg,AFSA15.jpg,AFSA14.jpg,AFNE16.jpg,FN,3,num_8,32,num_4,0.63351243455,,,2017_Mar_06_1936,59.9967671624,MAFE4ImagesEEG,001,100048,
AFNE01.JPG,AFNE01.JPG,AFNE01.JPG,AFNE01.JPG,AFNE01.JPG,AFNE01.JPG,,,,,4,0,40,6,,,,,,,,,,,,,,,,,,,AFNE15.jpg,AFSA11.jpg,AFSA02.jpg,AFNE06.jpg,AFNE15.jpg,FN,3,num_8,16,num_8,0.800127141178,,,2017_Mar_06_1936,59.9967671624,MAFE4ImagesEEG,001,100048,
AFNE01.JPG,AFNE01.JPG,AFNE01.JPG,AFNE01.JPG,AFNE01.JPG,AFNE01.JPG,,,,,4,1,41,1,,,,,,,,,,,,,,,,,,,AFNE06.jpg,AFSA02.jpg,AFNE09.jpg,AFSA03.jpg,AFSA03.jpg,FS,4,num_4,16,num_4,0.766787521541,,,2017_Mar_06_1936,59.9967671624,MAFE4ImagesEEG,001,100048,
AFNE01.JPG,AFNE01.JPG,AFNE01.JPG,AFNE01.JPG,AFNE01.JPG,AFNE01.JPG,,,,,4,2,42,3,,,,,,,,,,,,,,,,,,,AFNE08.jpg,AFNE07.jpg,AFSA10.jpg,AFSA17.jpg,AFNE07.jpg,FN,3,num_6,32,num_8,0.600128873251,,,2017_Mar_06_1936,59.9967671624,MAFE4ImagesEEG,001,100048,
AFNE01.JPG,AFNE01.JPG,AFNE01.JPG,AFNE01.JPG,AFNE01.JPG,AFNE01.JPG,,,,,4,3,43,0,,,,,,,,,,,,,,,,,,,AFSA14.jpg,AFNE05.jpg,AFNE02.jpg,AFSA18.jpg,AFSA18.jpg,FS,4,num_4,16,num_4,0.96673094295,,,2017_Mar_06_1936,59.9967671624,MAFE4ImagesEEG,001,100048,
AFNE01.JPG,AFNE01.JPG,AFNE01.JPG,AFNE01.JPG,AFNE01.JPG,AFNE01.JPG,,,,,4,4,44,8,,,,,,,,,,,,,,,,,,,AFSA16.jpg,AFNE15.jpg,AFSA12.jpg,AFNE05.jpg,AFNE05.jpg,FN,3,num_4,32,num_8,0.466665832791,,,2017_Mar_06_1936,59.9967671624,MAFE4ImagesEEG,001,100048,
AFNE01.JPG,AFNE01.JPG,AFNE01.JPG,AFNE01.JPG,AFNE01.JPG,AFNE01.JPG,,,,,4,5,45,9,,,,,,,,,,,,,,,,,,,AFNE05.jpg,AFSA06.jpg,AFNE11.jpg,AFSA13.jpg,AFNE11.jpg,FN,3,num_2,16,num_2,0.883441551123,,,2017_Mar_06_1936,59.9967671624,MAFE4ImagesEEG,001,100048,
AFNE01.JPG,AFNE01.JPG,AFNE01.JPG,AFNE01.JPG,AFNE01.JPG,AFNE01.JPG,,,,,4,6,46,2,,,,,,,,,,,,,,,,,,,AFSA18.jpg,AFNE01.jpg,AFNE14.jpg,AFSA02.jpg,AFSA02.jpg,FS,4,num_4,16,num_4,0.933449697681,,,2017_Mar_06_1936,59.9967671624,MAFE4ImagesEEG,001,100048,
AFNE01.JPG,AFNE01.JPG,AFNE01.JPG,AFNE01.JPG,AFNE01.JPG,AFNE01.JPG,,,,,4,7,47,4,,,,,,,,,,,,,,,,,,,AFSA05.jpg,AFSA09.jpg,AFNE19.jpg,AFNE05.jpg,AFNE19.jpg,FN,3,num_2,32,num_4,0.733500503004,,,2017_Mar_06_1936,59.9967671624,MAFE4ImagesEEG,001,100048,
AFNE01.JPG,AFNE01.JPG,AFNE01.JPG,AFNE01.JPG,AFNE01.JPG,AFNE01.JPG,,,,,4,8,48,7,,,,,,,,,,,,,,,,,,,AFSA11.jpg,AFNE09.jpg,AFSA10.jpg,AFNE17.jpg,AFNE09.jpg,FN,3,num_6,16,num_6,0.766601171345,,,2017_Mar_06_1936,59.9967671624,MAFE4ImagesEEG,001,100048,
AFNE01.JPG,AFNE01.JPG,AFNE01.JPG,AFNE01.JPG,AFNE01.JPG,AFNE01.JPG,,,,,4,9,49,5,,,,,,,,,,,,,,,,,,,AFSA08.jpg,AFSA15.jpg,AFNE01.jpg,AFNE18.jpg,AFNE01.jpg,FN,3,num_2,32,num_4,0.683500054292,,,2017_Mar_06_1936,59.9967671624,MAFE4ImagesEEG,001,100048,
AFNE01.JPG,AFNE01.JPG,AFNE01.JPG,AFNE01.JPG,AFNE01.JPG,AFNE01.JPG,,,,,5,0,50,8,,,,,,,,,,,,,,,,,,,AFNE17.jpg,AFSA07.jpg,AFNE13.jpg,AFSA03.jpg,AFSA03.jpg,FS,4,num_4,16,num_4,0.800165309571,,,2017_Mar_06_1936,59.9967671624,MAFE4ImagesEEG,001,100048,
AFNE01.JPG,AFNE01.JPG,AFNE01.JPG,AFNE01.JPG,AFNE01.JPG,AFNE01.JPG,,,,,5,1,51,2,,,,,,,,,,,,,,,,,,,AFNE10.jpg,AFSA20.jpg,AFNE19.jpg,AFSA01.jpg,AFSA01.jpg,FS,4,num_4,32,num_6,0.866850963794,,,2017_Mar_06_1936,59.9967671624,MAFE4ImagesEEG,001,100048,
AFNE01.JPG,AFNE01.JPG,AFNE01.JPG,AFNE01.JPG,AFNE01.JPG,AFNE01.JPG,,,,,5,2,52,0,,,,,,,,,,,,,,,,,,,AFSA09.jpg,AFNE05.jpg,AFSA02.jpg,AFNE11.jpg,AFSA09.jpg,FS,4,num_8,32,num_2,0.566810422111,,,2017_Mar_06_1936,59.9967671624,MAFE4ImagesEEG,001,100048,
AFNE01.JPG,AFNE01.JPG,AFNE01.JPG,AFNE01.JPG,AFNE01.JPG,AFNE01.JPG,,,,,5,3,53,7,,,,,,,,,,,,,,,,,,,AFSA12.jpg,AFNE17.jpg,AFNE12.jpg,AFSA11.jpg,AFSA12.jpg,FS,4,num_8,32,num_4,0.683470225427,,,2017_Mar_06_1936,59.9967671624,MAFE4ImagesEEG,001,100048,
AFNE01.JPG,AFNE01.JPG,AFNE01.JPG,AFNE01.JPG,AFNE01.JPG,AFNE01.JPG,,,,,5,4,54,1,,,,,,,,,,,,,,,,,,,AFSA14.jpg,AFNE09.jpg,AFNE13.jpg,AFSA20.jpg,AFSA14.jpg,FS,4,num_8,32,num_2,0.916734984145,,,2017_Mar_06_1936,59.9967671624,MAFE4ImagesEEG,001,100048,
AFNE01.JPG,AFNE01.JPG,AFNE01.JPG,AFNE01.JPG,AFNE01.JPG,AFNE01.JPG,,,,,5,5,55,5,,,,,,,,,,,,,,,,,,,AFNE16.jpg,AFSA18.jpg,AFSA17.jpg,AFNE13.jpg,AFSA17.jpg,FS,4,num_2,32,num_8,0.816720935982,,,2017_Mar_06_1936,59.9967671624,MAFE4ImagesEEG,001,100048,
AFNE01.JPG,AFNE01.JPG,AFNE01.JPG,AFNE01.JPG,AFNE01.JPG,AFNE01.JPG,,,,,5,6,56,3,,,,,,,,,,,,,,,,,,,AFNE13.jpg,AFNE01.jpg,AFSA01.jpg,AFSA03.jpg,AFNE01.jpg,FN,3,num_6,32,num_2,0.450020398945,,,2017_Mar_06_1936,59.9967671624,MAFE4ImagesEEG,001,100048,
AFNE01.JPG,AFNE01.JPG,AFNE01.JPG,AFNE01.JPG,AFNE01.JPG,AFNE01.JPG,,,,,5,7,57,6,,,,,,,,,,,,,,,,,,,AFNE10.jpg,AFSA13.jpg,AFSA05.jpg,AFNE14.jpg,AFNE14.jpg,FN,3,num_4,32,num_8,0.566915303934,,,2017_Mar_06_1936,59.9967671624,MAFE4ImagesEEG,001,100048,
AFNE01.JPG,AFNE01.JPG,AFNE01.JPG,AFNE01.JPG,AFNE01.JPG,AFNE01.JPG,,,,,5,8,58,9,,,,,,,,,,,,,,,,,,,AFNE02.jpg,AFSA19.jpg,AFNE03.jpg,AFSA13.jpg,AFSA19.jpg,FS,4,num_6,16,num_6,0.700127526186,,,2017_Mar_06_1936,59.9967671624,MAFE4ImagesEEG,001,100048,
AFNE01.JPG,AFNE01.JPG,AFNE01.JPG,AFNE01.JPG,AFNE01.JPG,AFNE01.JPG,,,,,5,9,59,4,,,,,,,,,,,,,,,,,,,AFNE09.jpg,AFSA18.jpg,AFNE04.jpg,AFSA10.jpg,AFNE09.jpg,FN,3,num_8,16,num_8,0.600185965188,,,2017_Mar_06_1936,59.9967671624,MAFE4ImagesEEG,001,100048,
,,,,,,,,,,,,,,,,,,,,,,,,,,,,,,,,,,,,,,,,,,,space,2.41666538408,2017_Mar_06_1936,59.9967671624,MAFE4ImagesEEG,001,100048,
AFNE01.JPG,AFNE01.JPG,AFNE01.JPG,AFNE01.JPG,AFNE01.JPG,AFNE01.JPG,,,,,,,,,0,0,0,4,,,,,,,,,,,,,,,AMSA07.jpg,AMSA18.jpg,AMNE02.jpg,AMNE12.jpg,AMNE12.jpg,MN,1,num_4,32,num_8,0.833449761849,,,2017_Mar_06_1936,59.9967671624,MAFE4ImagesEEG,001,100048,
AFNE01.JPG,AFNE01.JPG,AFNE01.JPG,AFNE01.JPG,AFNE01.JPG,AFNE01.JPG,,,,,,,,,0,1,1,2,,,,,,,,,,,,,,,AMNE13.jpg,AMNE14.jpg,AMSA16.jpg,AMSA09.jpg,AMSA09.jpg,MS,2,num_4,16,num_4,0.850108345971,,,2017_Mar_06_1936,59.9967671624,MAFE4ImagesEEG,001,100048,
AFNE01.JPG,AFNE01.JPG,AFNE01.JPG,AFNE01.JPG,AFNE01.JPG,AFNE01.JPG,,,,,,,,,0,2,2,3,,,,,,,,,,,,,,,AMSA13.jpg,AMSA05.jpg,AMNE15.jpg,AMNE11.jpg,AMSA05.jpg,MS,2,num_6,16,num_6,0.483453033026,,,2017_Mar_06_1936,59.9967671624,MAFE4ImagesEEG,001,100048,
AFNE01.JPG,AFNE01.JPG,AFNE01.JPG,AFNE01.JPG,AFNE01.JPG,AFNE01.JPG,,,,,,,,,0,3,3,6,,,,,,,,,,,,,,,AMNE13.jpg,AMSA15.jpg,AMSA12.jpg,AMNE07.jpg,AMSA15.jpg,MS,2,num_6,32,num_4,0.900149208028,,,2017_Mar_06_1936,59.9967671624,MAFE4ImagesEEG,001,100048,
AFNE01.JPG,AFNE01.JPG,AFNE01.JPG,AFNE01.JPG,AFNE01.JPG,AFNE01.JPG,,,,,,,,,0,4,4,9,,,,,,,,,,,,,,,AMSA18.jpg,AMNE09.jpg,AMNE17.jpg,AMSA12.jpg,AMSA12.jpg,MS,2,num_4,32,num_8,0.566770329606,,,2017_Mar_06_1936,59.9967671624,MAFE4ImagesEEG,001,100048,
AFNE01.JPG,AFNE01.JPG,AFNE01.JPG,AFNE01.JPG,AFNE01.JPG,AFNE01.JPG,,,,,,,,,0,5,5,1,,,,,,,,,,,,,,,AMSA10.jpg,AMNE02.jpg,AMNE10.jpg,AMSA09.jpg,AMSA10.jpg,MS,2,num_8,32,num_4,0.583511022851,,,2017_Mar_06_1936,59.9967671624,MAFE4ImagesEEG,001,100048,
AFNE01.JPG,AFNE01.JPG,AFNE01.JPG,AFNE01.JPG,AFNE01.JPG,AFNE01.JPG,,,,,,,,,0,6,6,8,,,,,,,,,,,,,,,AMSA20.jpg,AMNE12.jpg,AMNE18.jpg,AMSA18.jpg,AMNE12.jpg,MN,1,num_6,16,num_6,0.61675570393,,,2017_Mar_06_1936,59.9967671624,MAFE4ImagesEEG,001,100048,
AFNE01.JPG,AFNE01.JPG,AFNE01.JPG,AFNE01.JPG,AFNE01.JPG,AFNE01.JPG,,,,,,,,,0,7,7,7,,,,,,,,,,,,,,,AMSA08.jpg,AMSA04.jpg,AMNE11.jpg,AMNE14.jpg,AMNE11.jpg,MN,1,num_2,16,num_2,0.700142601039,,,2017_Mar_06_1936,59.9967671624,MAFE4ImagesEEG,001,100048,
AFNE01.JPG,AFNE01.JPG,AFNE01.JPG,AFNE01.JPG,AFNE01.JPG,AFNE01.JPG,,,,,,,,,0,8,8,0,,,,,,,,,,,,,,,AMSA16.jpg,AMSA05.jpg,AMNE10.jpg,AMNE17.jpg,AMNE10.jpg,MN,1,num_2,32,num_4,0.750170633197,,,2017_Mar_06_1936,59.9967671624,MAFE4ImagesEEG,001,100048,
AFNE01.JPG,AFNE01.JPG,AFNE01.JPG,AFNE01.JPG,AFNE01.JPG,AFNE01.JPG,,,,,,,,,0,9,9,5,,,,,,,,,,,,,,,AMSA17.jpg,AMSA15.jpg,AMNE10.jpg,AMNE04.jpg,AMSA17.jpg,MS,2,num_8,16,num_8,1.38344251318,,,2017_Mar_06_1936,59.9967671624,MAFE4ImagesEEG,001,100048,
AFNE01.JPG,AFNE01.JPG,AFNE01.JPG,AFNE01.JPG,AFNE01.JPG,AFNE01.JPG,,,,,,,,,1,0,10,4,,,,,,,,,,,,,,,AMSA19.jpg,AMNE16.jpg,AMSA08.jpg,AMNE17.jpg,AMNE16.jpg,MN,1,num_6,16,num_6,1.30008352082,,,2017_Mar_06_1936,59.9967671624,MAFE4ImagesEEG,001,100048,
AFNE01.JPG,AFNE01.JPG,AFNE01.JPG,AFNE01.JPG,AFNE01.JPG,AFNE01.JPG,,,,,,,,,1,1,11,2,,,,,,,,,,,,,,,AMNE08.jpg,AMNE06.jpg,AMSA03.jpg,AMSA04.jpg,AMNE06.jpg,MN,1,num_6,32,num_8,0.866800286807,,,2017_Mar_06_1936,59.9967671624,MAFE4ImagesEEG,001,100048,
AFNE01.JPG,AFNE01.JPG,AFNE01.JPG,AFNE01.JPG,AFNE01.JPG,AFNE01.JPG,,,,,,,,,1,2,12,6,,,,,,,,,,,,,,,AMNE05.jpg,AMNE11.jpg,AMSA05.jpg,AMSA07.jpg,AMSA05.jpg,MS,2,num_2,16,num_2,1.05009731278,,,2017_Mar_06_1936,59.9967671624,MAFE4ImagesEEG,001,100048,
AFNE01.JPG,AFNE01.JPG,AFNE01.JPG,AFNE01.JPG,AFNE01.JPG,AFNE01.JPG,,,,,,,,,1,3,13,5,,,,,,,,,,,,,,,AMNE11.jpg,AMSA16.jpg,AMNE14.jpg,AMSA08.jpg,AMNE11.jpg,MN,1,num_8,32,num_4,0.900175509043,,,2017_Mar_06_1936,59.9967671624,MAFE4ImagesEEG,001,100048,
AFNE01.JPG,AFNE01.JPG,AFNE01.JPG,AFNE01.JPG,AFNE01.JPG,AFNE01.JPG,,,,,,,,,1,4,14,8,,,,,,,,,,,,,,,AMNE11.jpg,AMSA18.jpg,AMNE10.jpg,AMSA15.jpg,AMSA18.jpg,MS,2,num_6,16,num_6,0.750108730979,,,2017_Mar_06_1936,59.9967671624,MAFE4ImagesEEG,001,100048,
AFNE01.JPG,AFNE01.JPG,AFNE01.JPG,AFNE01.JPG,AFNE01.JPG,AFNE01.JPG,,,,,,,,,1,5,15,0,,,,,,,,,,,,,,,AMSA11.jpg,AMSA04.jpg,AMNE05.jpg,AMNE09.jpg,AMSA11.jpg,MS,2,num_8,32,num_6,0.500178331509,,,2017_Mar_06_1936,59.9967671624,MAFE4ImagesEEG,001,100048,
AFNE01.JPG,AFNE01.JPG,AFNE01.JPG,AFNE01.JPG,AFNE01.JPG,AFNE01.JPG,,,,,,,,,1,6,16,7,,,,,,,,,,,,,,,AMSA06.jpg,AMSA13.jpg,AMNE09.jpg,AMNE19.jpg,AMSA06.jpg,MS,2,num_8,16,num_8,0.50012284331,,,2017_Mar_06_1936,59.9967671624,MAFE4ImagesEEG,001,100048,
AFNE01.JPG,AFNE01.JPG,AFNE01.JPG,AFNE01.JPG,AFNE01.JPG,AFNE01.JPG,,,,,,,,,1,7,17,1,,,,,,,,,,,,,,,AMSA15.jpg,AMNE03.jpg,AMNE18.jpg,AMSA11.jpg,AMSA11.jpg,MS,2,num_4,32,num_8,0.833475421183,,,2017_Mar_06_1936,59.9967671624,MAFE4ImagesEEG,001,100048,
AFNE01.JPG,AFNE01.JPG,AFNE01.JPG,AFNE01.JPG,AFNE01.JPG,AFNE01.JPG,,,,,,,,,1,8,18,9,,,,,,,,,,,,,,,AMNE14.jpg,AMSA03.jpg,AMNE01.jpg,AMSA05.jpg,AMSA05.jpg,MS,2,num_4,32,num_6,0.750177048147,,,2017_Mar_06_1936,59.9967671624,MAFE4ImagesEEG,001,100048,
AFNE01.JPG,AFNE01.JPG,AFNE01.JPG,AFNE01.JPG,AFNE01.JPG,AFNE01.JPG,,,,,,,,,1,9,19,3,,,,,,,,,,,,,,,AMNE12.jpg,AMSA19.jpg,AMNE02.jpg,AMSA10.jpg,AMSA19.jpg,MS,2,num_6,32,num_4,0.766787841916,,,2017_Mar_06_1936,59.9967671624,MAFE4ImagesEEG,001,100048,
AFNE01.JPG,AFNE01.JPG,AFNE01.JPG,AFNE01.JPG,AFNE01.JPG,AFNE01.JPG,,,,,,,,,2,0,20,8,,,,,,,,,,,,,,,AMSA03.jpg,AMNE06.jpg,AMSA12.jpg,AMNE03.jpg,AMNE06.jpg,MN,1,num_6,16,num_6,0.78346502874,,,2017_Mar_06_1936,59.9967671624,MAFE4ImagesEEG,001,100048,
AFNE01.JPG,AFNE01.JPG,AFNE01.JPG,AFNE01.JPG,AFNE01.JPG,AFNE01.JPG,,,,,,,,,2,1,21,5,,,,,,,,,,,,,,,AMNE16.jpg,AMSA04.jpg,AMSA06.jpg,AMNE08.jpg,AMNE08.jpg,MN,1,num_4,16,num_4,0.70015639253,,,2017_Mar_06_1936,59.9967671624,MAFE4ImagesEEG,001,100048,
AFNE01.JPG,AFNE01.JPG,AFNE01.JPG,AFNE01.JPG,AFNE01.JPG,AFNE01.JPG,,,,,,,,,2,2,22,9,,,,,,,,,,,,,,,AMSA03.jpg,AMNE04.jpg,AMSA09.jpg,AMNE18.jpg,AMNE04.jpg,MN,1,num_6,16,num_6,0.816748198587,,,2017_Mar_06_1936,59.9967671624,MAFE4ImagesEEG,001,100048,
AFNE01.JPG,AFNE01.JPG,AFNE01.JPG,AFNE01.JPG,AFNE01.JPG,AFNE01.JPG,,,,,,,,,2,3,23,0,,,,,,,,,,,,,,,AMNE10.jpg,AMNE20.jpg,AMSA16.jpg,AMSA14.jpg,AMNE20.jpg,MN,1,num_6,32,num_8,1.15012387,,,2017_Mar_06_1936,59.9967671624,MAFE4ImagesEEG,001,100048,
AFNE01.JPG,AFNE01.JPG,AFNE01.JPG,AFNE01.JPG,AFNE01.JPG,AFNE01.JPG,,,,,,,,,2,4,24,2,,,,,,,,,,,,,,,AMNE04.jpg,AMSA07.jpg,AMNE18.jpg,AMSA20.jpg,AMNE04.jpg,MN,1,num_8,16,num_8,0.916737549938,,,2017_Mar_06_1936,59.9967671624,MAFE4ImagesEEG,001,100048,
AFNE01.JPG,AFNE01.JPG,AFNE01.JPG,AFNE01.JPG,AFNE01.JPG,AFNE01.JPG,,,,,,,,,2,5,25,6,,,,,,,,,,,,,,,AMNE01.jpg,AMNE18.jpg,AMSA12.jpg,AMSA05.jpg,AMNE18.jpg,MN,1,num_6,32,num_8,0.700123356655,,,2017_Mar_06_1936,59.9967671624,MAFE4ImagesEEG,001,100048,
AFNE01.JPG,AFNE01.JPG,AFNE01.JPG,AFNE01.JPG,AFNE01.JPG,AFNE01.JPG,,,,,,,,,2,6,26,1,,,,,,,,,,,,,,,AMSA20.jpg,AMSA17.jpg,AMNE02.jpg,AMNE06.jpg,AMNE06.jpg,MN,1,num_4,16,num_4,0.78350736713,,,2017_Mar_06_1936,59.9967671624,MAFE4ImagesEEG,001,100048,
AFNE01.JPG,AFNE01.JPG,AFNE01.JPG,AFNE01.JPG,AFNE01.JPG,AFNE01.JPG,,,,,,,,,2,7,27,7,,,,,,,,,,,,,,,AMNE12.jpg,AMNE08.jpg,AMSA11.jpg,AMSA02.jpg,AMSA02.jpg,MS,2,num_4,32,num_2,1.10026101815,,,2017_Mar_06_1936,59.9967671624,MAFE4ImagesEEG,001,100048,
AFNE01.JPG,AFNE01.JPG,AFNE01.JPG,AFNE01.JPG,AFNE01.JPG,AFNE01.JPG,,,,,,,,,2,8,28,4,,,,,,,,,,,,,,,AMSA12.jpg,AMNE02.jpg,AMSA06.jpg,AMNE15.jpg,AMNE15.jpg,MN,1,num_4,32,num_6,0.883482284844,,,2017_Mar_06_1936,59.9967671624,MAFE4ImagesEEG,001,100048,
AFNE01.JPG,AFNE01.JPG,AFNE01.JPG,AFNE01.JPG,AFNE01.JPG,AFNE01.JPG,,,,,,,,,2,9,29,3,,,,,,,,,,,,,,,AMSA05.jpg,AMNE10.jpg,AMSA16.jpg,AMNE07.jpg,AMSA16.jpg,MS,2,num_2,16,num_2,1.10006857431,,,2017_Mar_06_1936,59.9967671624,MAFE4ImagesEEG,001,100048,
AFNE01.JPG,AFNE01.JPG,AFNE01.JPG,AFNE01.JPG,AFNE01.JPG,AFNE01.JPG,,,,,,,,,3,0,30,7,,,,,,,,,,,,,,,AMNE04.jpg,AMSA15.jpg,AMSA17.jpg,AMNE10.jpg,AMSA17.jpg,MS,2,num_2,32,num_8,0.833485684358,,,2017_Mar_06_1936,59.9967671624,MAFE4ImagesEEG,001,100048,
AFNE01.JPG,AFNE01.JPG,AFNE01.JPG,AFNE01.JPG,AFNE01.JPG,AFNE01.JPG,,,,,,,,,3,1,31,0,,,,,,,,,,,,,,,AMNE14.jpg,AMNE18.jpg,AMSA15.jpg,AMSA07.jpg,AMNE18.jpg,MN,1,num_6,32,num_8,0.666803622618,,,2017_Mar_06_1936,59.9967671624,MAFE4ImagesEEG,001,100048,
AFNE01.JPG,AFNE01.JPG,AFNE01.JPG,AFNE01.JPG,AFNE01.JPG,AFNE01.JPG,,,,,,,,,3,2,32,2,,,,,,,,,,,,,,,AMNE05.jpg,AMSA04.jpg,AMNE12.jpg,AMSA09.jpg,AMNE12.jpg,MN,1,num_2,32,num_4,0.76679329481,,,2017_Mar_06_1936,59.9967671624,MAFE4ImagesEEG,001,100048,
AFNE01.JPG,AFNE01.JPG,AFNE01.JPG,AFNE01.JPG,AFNE01.JPG,AFNE01.JPG,,,,,,,,,3,3,33,3,,,,,,,,,,,,,,,AMNE01.jpg,AMSA14.jpg,AMSA17.jpg,AMNE09.jpg,AMNE01.jpg,MN,1,num_8,32,num_2,0.800042786635,,,2017_Mar_06_1936,59.9967671624,MAFE4ImagesEEG,001,100048,
AFNE01.JPG,AFNE01.JPG,AFNE01.JPG,AFNE01.JPG,AFNE01.JPG,AFNE01.JPG,,,,,,,,,3,4,34,6,,,,,,,,,,,,,,,AMSA03.jpg,AMSA19.jpg,AMNE07.jpg,AMNE16.jpg,AMNE16.jpg,MN,1,num_4,32,num_2,0.66665864829,,,2017_Mar_06_1936,59.9967671624,MAFE4ImagesEEG,001,100048,
AFNE01.JPG,AFNE01.JPG,AFNE01.JPG,AFNE01.JPG,AFNE01.JPG,AFNE01.JPG,,,,,,,,,3,5,35,5,,,,,,,,,,,,,,,AMNE06.jpg,AMSA07.jpg,AMSA20.jpg,AMNE09.jpg,AMNE06.jpg,MN,1,num_8,32,num_2,1.13344411692,,,2017_Mar_06_1936,59.9967671624,MAFE4ImagesEEG,001,100048,
AFNE01.JPG,AFNE01.JPG,AFNE01.JPG,AFNE01.JPG,AFNE01.JPG,AFNE01.JPG,,,,,,,,,3,6,36,1,,,,,,,,,,,,,,,AMSA15.jpg,AMSA03.jpg,AMNE07.jpg,AMNE11.jpg,AMNE11.jpg,MN,1,num_4,16,num_4,0.533114460763,,,2017_Mar_06_1936,59.9967671624,MAFE4ImagesEEG,001,100048,
AFNE01.JPG,AFNE01.JPG,AFNE01.JPG,AFNE01.JPG,AFNE01.JPG,AFNE01.JPG,,,,,,,,,3,7,37,8,,,,,,,,,,,,,,,AMSA16.jpg,AMSA04.jpg,AMNE14.jpg,AMNE13.jpg,AMNE14.jpg,MN,1,num_2,16,num_2,0.650122907478,,,2017_Mar_06_1936,59.9967671624,MAFE4ImagesEEG,001,100048,
AFNE01.JPG,AFNE01.JPG,AFNE01.JPG,AFNE01.JPG,AFNE01.JPG,AFNE01.JPG,,,,,,,,,3,8,38,9,,,,,,,,,,,,,,,AMNE05.jpg,AMSA02.jpg,AMNE09.jpg,AMSA10.jpg,AMSA02.jpg,MS,2,num_6,16,num_6,0.600079158787,,,2017_Mar_06_1936,59.9967671624,MAFE4ImagesEEG,001,100048,
AFNE01.JPG,AFNE01.JPG,AFNE01.JPG,AFNE01.JPG,AFNE01.JPG,AFNE01.JPG,,,,,,,,,3,9,39,4,,,,,,,,,,,,,,,AMNE03.jpg,AMSA02.jpg,AMSA06.jpg,AMNE01.jpg,AMNE01.jpg,MN,1,num_4,32,num_2,0.650142472703,,,2017_Mar_06_1936,59.9967671624,MAFE4ImagesEEG,001,100048,
AFNE01.JPG,AFNE01.JPG,AFNE01.JPG,AFNE01.JPG,AFNE01.JPG,AFNE01.JPG,,,,,,,,,4,0,40,9,,,,,,,,,,,,,,,AMNE15.jpg,AMSA02.jpg,AMSA07.jpg,AMNE14.jpg,AMNE15.jpg,MN,1,num_8,16,num_8,0.500126371626,,,2017_Mar_06_1936,59.9967671624,MAFE4ImagesEEG,001,100048,
AFNE01.JPG,AFNE01.JPG,AFNE01.JPG,AFNE01.JPG,AFNE01.JPG,AFNE01.JPG,,,,,,,,,4,1,41,3,,,,,,,,,,,,,,,AMNE16.jpg,AMSA15.jpg,AMNE10.jpg,AMSA17.jpg,AMNE10.jpg,MN,1,num_2,16,num_2,0.716796053108,,,2017_Mar_06_1936,59.9967671624,MAFE4ImagesEEG,001,100048,
AFNE01.JPG,AFNE01.JPG,AFNE01.JPG,AFNE01.JPG,AFNE01.JPG,AFNE01.JPG,,,,,,,,,4,2,42,4,,,,,,,,,,,,,,,AMNE19.jpg,AMSA17.jpg,AMSA08.jpg,AMNE06.jpg,AMSA17.jpg,MS,2,num_6,32,num_8,0.616806060076,,,2017_Mar_06_1936,59.9967671624,MAFE4ImagesEEG,001,100048,
AFNE01.JPG,AFNE01.JPG,AFNE01.JPG,AFNE01.JPG,AFNE01.JPG,AFNE01.JPG,,,,,,,,,4,3,43,6,,,,,,,,,,,,,,,AMNE02.jpg,AMNE08.jpg,AMSA01.jpg,AMSA20.jpg,AMSA01.jpg,MS,2,num_2,32,num_4,0.916761926375,,,2017_Mar_06_1936,59.9967671624,MAFE4ImagesEEG,001,100048,
AFNE01.JPG,AFNE01.JPG,AFNE01.JPG,AFNE01.JPG,AFNE01.JPG,AFNE01.JPG,,,,,,,,,4,4,44,5,,,,,,,,,,,,,,,AMNE08.jpg,AMSA02.jpg,AMNE05.jpg,AMSA15.jpg,AMSA15.jpg,MS,2,num_4,16,num_4,1.00023895083,,,2017_Mar_06_1936,59.9967671624,MAFE4ImagesEEG,001,100048,
AFNE01.JPG,AFNE01.JPG,AFNE01.JPG,AFNE01.JPG,AFNE01.JPG,AFNE01.JPG,,,,,,,,,4,5,45,0,,,,,,,,,,,,,,,AMSA08.jpg,AMSA11.jpg,AMNE12.jpg,AMNE20.jpg,AMSA11.jpg,MS,2,num_6,32,num_8,0.866782004479,,,2017_Mar_06_1936,59.9967671624,MAFE4ImagesEEG,001,100048,
AFNE01.JPG,AFNE01.JPG,AFNE01.JPG,AFNE01.JPG,AFNE01.JPG,AFNE01.JPG,,,,,,,,,4,6,46,8,,,,,,,,,,,,,,,AMNE04.jpg,AMSA15.jpg,AMSA18.jpg,AMNE05.jpg,AMNE05.jpg,MN,1,num_4,32,num_8,0.81683287397,,,2017_Mar_06_1936,59.9967671624,MAFE4ImagesEEG,001,100048,
AFNE01.JPG,AFNE01.JPG,AFNE01.JPG,AFNE01.JPG,AFNE01.JPG,AFNE01.JPG,,,,,,,,,4,7,47,1,,,,,,,,,,,,,,,AMSA14.jpg,AMSA06.jpg,AMNE05.jpg,AMNE04.jpg,AMSA14.jpg,MS,2,num_8,32,num_4,0.966768469661,,,2017_Mar_06_1936,59.9967671624,MAFE4ImagesEEG,001,100048,
AFNE01.JPG,AFNE01.JPG,AFNE01.JPG,AFNE01.JPG,AFNE01.JPG,AFNE01.JPG,,,,,,,,,4,8,48,2,,,,,,,,,,,,,,,AMNE09.jpg,AMSA12.jpg,AMNE15.jpg,AMSA17.jpg,AMSA12.jpg,MS,2,num_6,16,num_6,0.616765647195,,,2017_Mar_06_1936,59.9967671624,MAFE4ImagesEEG,001,100048,
AFNE01.JPG,AFNE01.JPG,AFNE01.JPG,AFNE01.JPG,AFNE01.JPG,AFNE01.JPG,,,,,,,,,4,9,49,7,,,,,,,,,,,,,,,AMSA16.jpg,AMNE19.jpg,AMNE14.jpg,AMSA05.jpg,AMSA16.jpg,MS,2,num_8,16,num_8,0.5667629526,,,2017_Mar_06_1936,59.9967671624,MAFE4ImagesEEG,001,100048,
AFNE01.JPG,AFNE01.JPG,AFNE01.JPG,AFNE01.JPG,AFNE01.JPG,AFNE01.JPG,,,,,,,,,5,0,50,6,,,,,,,,,,,,,,,AMSA08.jpg,AMNE17.jpg,AMSA18.jpg,AMNE11.jpg,AMSA18.jpg,MS,2,num_2,16,num_2,0.900154981297,,,2017_Mar_06_1936,59.9967671624,MAFE4ImagesEEG,001,100048,
AFNE01.JPG,AFNE01.JPG,AFNE01.JPG,AFNE01.JPG,AFNE01.JPG,AFNE01.JPG,,,,,,,,,5,1,51,5,,,,,,,,,,,,,,,AMNE07.jpg,AMSA20.jpg,AMNE05.jpg,AMSA02.jpg,AMNE05.jpg,MN,1,num_2,32,num_8,0.716782581992,,,2017_Mar_06_1936,59.9967671624,MAFE4ImagesEEG,001,100048,
AFNE01.JPG,AFNE01.JPG,AFNE01.JPG,AFNE01.JPG,AFNE01.JPG,AFNE01.JPG,,,,,,,,,5,2,52,0,,,,,,,,,,,,,,,AMSA07.jpg,AMSA05.jpg,AMNE16.jpg,AMNE02.jpg,AMSA07.jpg,MS,2,num_8,16,num_8,0.516796823125,,,2017_Mar_06_1936,59.9967671624,MAFE4ImagesEEG,001,100048,
AFNE01.JPG,AFNE01.JPG,AFNE01.JPG,AFNE01.JPG,AFNE01.JPG,AFNE01.JPG,,,,,,,,,5,3,53,7,,,,,,,,,,,,,,,AMSA06.jpg,AMNE15.jpg,AMNE19.jpg,AMSA18.jpg,AMNE15.jpg,MN,1,num_6,16,num_6,0.40021335613,,,2017_Mar_06_1936,59.9967671624,MAFE4ImagesEEG,001,100048,
AFNE01.JPG,AFNE01.JPG,AFNE01.JPG,AFNE01.JPG,AFNE01.JPG,AFNE01.JPG,,,,,,,,,5,4,54,4,,,,,,,,,,,,,,,AMSA07.jpg,AMNE02.jpg,AMNE16.jpg,AMSA03.jpg,AMNE16.jpg,MN,1,num_2,16,num_2,0.499851818196,,,2017_Mar_06_1936,59.9967671624,MAFE4ImagesEEG,001,100048,
AFNE01.JPG,AFNE01.JPG,AFNE01.JPG,AFNE01.JPG,AFNE01.JPG,AFNE01.JPG,,,,,,,,,5,5,55,3,,,,,,,,,,,,,,,AMNE14.jpg,AMNE08.jpg,AMSA10.jpg,AMSA11.jpg,AMNE08.jpg,MN,1,num_6,32,num_2,0.683519619051,,,2017_Mar_06_1936,59.9967671624,MAFE4ImagesEEG,001,100048,
AFNE01.JPG,AFNE01.JPG,AFNE01.JPG,AFNE01.JPG,AFNE01.JPG,AFNE01.JPG,,,,,,,,,5,6,56,9,,,,,,,,,,,,,,,AMSA12.jpg,AMNE10.jpg,AMNE09.jpg,AMSA03.jpg,AMNE10.jpg,MN,1,num_6,16,num_6,0.766823123675,,,2017_Mar_06_1936,59.9967671624,MAFE4ImagesEEG,001,100048,
AFNE01.JPG,AFNE01.JPG,AFNE01.JPG,AFNE01.JPG,AFNE01.JPG,AFNE01.JPG,,,,,,,,,5,7,57,1,,,,,,,,,,,,,,,AMSA11.jpg,AMNE17.jpg,AMSA02.jpg,AMNE05.jpg,AMNE17.jpg,MN,1,num_6,16,num_6,0.500162614975,,,2017_Mar_06_1936,59.9967671624,MAFE4ImagesEEG,001,100048,
AFNE01.JPG,AFNE01.JPG,AFNE01.JPG,AFNE01.JPG,AFNE01.JPG,AFNE01.JPG,,,,,,,,,5,8,58,8,,,,,,,,,,,,,,,AMNE07.jpg,AMSA08.jpg,AMSA16.jpg,AMNE09.jpg,AMSA16.jpg,MS,2,num_2,32,num_6,1.21675018733,,,2017_Mar_06_1936,59.9967671624,MAFE4ImagesEEG,001,100048,
AFNE01.JPG,AFNE01.JPG,AFNE01.JPG,AFNE01.JPG,AFNE01.JPG,AFNE01.JPG,,,,,,,,,5,9,59,2,,,,,,,,,,,,,,,AMNE14.jpg,AMSA10.jpg,AMNE15.jpg,AMSA11.jpg,AMSA11.jpg,MS,2,num_4,16,num_4,0.666776680388,,,2017_Mar_06_1936,59.9967671624,MAFE4ImagesEEG,001,100048,
,,,,,,,,,,,,,,,,,,,,,,,,,,,,,,,,,,,,,,,,,,,space,3.54991192464,2017_Mar_06_1936,59.9967671624,MAFE4ImagesEEG,001,100048,
AFNE01.JPG,AFNE01.JPG,AFNE01.JPG,AFNE01.JPG,AFNE01.JPG,AFNE01.JPG,,,,,,,,,,,,,0,0,0,5,,,,,,,,,,,AFNE10.jpg,AFSA01.jpg,AFNE01.jpg,AFSA02.jpg,AFNE01.jpg,FN,3,num_2,32,num_8,1.11671785684,,,2017_Mar_06_1936,59.9967671624,MAFE4ImagesEEG,001,100048,
AFNE01.JPG,AFNE01.JPG,AFNE01.JPG,AFNE01.JPG,AFNE01.JPG,AFNE01.JPG,,,,,,,,,,,,,0,1,1,2,,,,,,,,,,,AFSA06.jpg,AFNE09.jpg,AFSA17.jpg,AFNE06.jpg,AFNE09.jpg,FN,3,num_6,16,num_6,0.78341820091,,,2017_Mar_06_1936,59.9967671624,MAFE4ImagesEEG,001,100048,
AFNE01.JPG,AFNE01.JPG,AFNE01.JPG,AFNE01.JPG,AFNE01.JPG,AFNE01.JPG,,,,,,,,,,,,,0,2,2,7,,,,,,,,,,,AFNE07.jpg,AFNE08.jpg,AFSA11.jpg,AFSA18.jpg,AFNE07.jpg,FN,3,num_8,32,num_6,0.783443218563,,,2017_Mar_06_1936,59.9967671624,MAFE4ImagesEEG,001,100048,
AFNE01.JPG,AFNE01.JPG,AFNE01.JPG,AFNE01.JPG,AFNE01.JPG,AFNE01.JPG,,,,,,,,,,,,,0,3,3,9,,,,,,,,,,,AFNE14.jpg,AFSA10.jpg,AFNE15.jpg,AFSA20.jpg,AFSA10.jpg,FS,4,num_6,16,num_6,0.866776872892,,,2017_Mar_06_1936,59.9967671624,MAFE4ImagesEEG,001,100048,
AFNE01.JPG,AFNE01.JPG,AFNE01.JPG,AFNE01.JPG,AFNE01.JPG,AFNE01.JPG,,,,,,,,,,,,,0,4,4,0,,,,,,,,,,,AFNE19.jpg,AFSA07.jpg,AFNE14.jpg,AFSA11.jpg,AFSA07.jpg,FS,4,num_6,16,num_6,1.03345123725,,,2017_Mar_06_1936,59.9967671624,MAFE4ImagesEEG,001,100048,
AFNE01.JPG,AFNE01.JPG,AFNE01.JPG,AFNE01.JPG,AFNE01.JPG,AFNE01.JPG,,,,,,,,,,,,,0,5,5,1,,,,,,,,,,,AFNE02.jpg,AFNE12.jpg,AFSA16.jpg,AFSA14.jpg,AFNE02.jpg,FN,3,num_8,32,num_6,0.650112002157,,,2017_Mar_06_1936,59.9967671624,MAFE4ImagesEEG,001,100048,
AFNE01.JPG,AFNE01.JPG,AFNE01.JPG,AFNE01.JPG,AFNE01.JPG,AFNE01.JPG,,,,,,,,,,,,,0,6,6,3,,,,,,,,,,,AFSA09.jpg,AFNE17.jpg,AFNE15.jpg,AFSA19.jpg,AFSA19.jpg,FS,4,num_4,16,num_4,0.533474009484,,,2017_Mar_06_1936,59.9967671624,MAFE4ImagesEEG,001,100048,
AFNE01.JPG,AFNE01.JPG,AFNE01.JPG,AFNE01.JPG,AFNE01.JPG,AFNE01.JPG,,,,,,,,,,,,,0,7,7,6,,,,,,,,,,,AFSA20.jpg,AFSA16.jpg,AFNE01.jpg,AFNE20.jpg,AFSA16.jpg,FS,4,num_6,32,num_8,0.766769239213,,,2017_Mar_06_1936,59.9967671624,MAFE4ImagesEEG,001,100048,
AFNE01.JPG,AFNE01.JPG,AFNE01.JPG,AFNE01.JPG,AFNE01.JPG,AFNE01.JPG,,,,,,,,,,,,,0,8,8,4,,,,,,,,,,,AFSA16.jpg,AFSA10.jpg,AFNE12.jpg,AFNE02.jpg,AFSA16.jpg,FS,4,num_8,16,num_8,0.933471828699,,,2017_Mar_06_1936,59.9967671624,MAFE4ImagesEEG,001,100048,
AFNE01.JPG,AFNE01.JPG,AFNE01.JPG,AFNE01.JPG,AFNE01.JPG,AFNE01.JPG,,,,,,,,,,,,,0,9,9,8,,,,,,,,,,,AFSA08.jpg,AFNE16.jpg,AFNE04.jpg,AFSA17.jpg,AFNE16.jpg,FN,3,num_6,16,num_6,1.06680304511,,,2017_Mar_06_1936,59.9967671624,MAFE4ImagesEEG,001,100048,
AFNE01.JPG,AFNE01.JPG,AFNE01.JPG,AFNE01.JPG,AFNE01.JPG,AFNE01.JPG,,,,,,,,,,,,,1,0,10,9,,,,,,,,,,,AFNE02.jpg,AFSA19.jpg,AFSA20.jpg,AFNE06.jpg,AFNE06.jpg,FN,3,num_4,32,num_8,1.13342679664,,,2017_Mar_06_1936,59.9967671624,MAFE4ImagesEEG,001,100048,
AFNE01.JPG,AFNE01.JPG,AFNE01.JPG,AFNE01.JPG,AFNE01.JPG,AFNE01.JPG,,,,,,,,,,,,,1,1,11,5,,,,,,,,,,,AFNE15.jpg,AFNE09.jpg,AFSA15.jpg,AFSA01.jpg,AFNE15.jpg,FN,3,num_8,32,num_6,1.05009506736,,,2017_Mar_06_1936,59.9967671624,MAFE4ImagesEEG,001,100048,
AFNE01.JPG,AFNE01.JPG,AFNE01.JPG,AFNE01.JPG,AFNE01.JPG,AFNE01.JPG,,,,,,,,,,,,,1,2,12,6,,,,,,,,,,,AFSA01.jpg,AFSA03.jpg,AFNE19.jpg,AFNE20.jpg,AFSA03.jpg,FS,4,num_6,16,num_6,0.716767186765,,,2017_Mar_06_1936,59.9967671624,MAFE4ImagesEEG,001,100048,
AFNE01.JPG,AFNE01.JPG,AFNE01.JPG,AFNE01.JPG,AFNE01.JPG,AFNE01.JPG,,,,,,,,,,,,,1,3,13,0,,,,,,,,,,,AFNE01.jpg,AFNE17.jpg,AFSA01.jpg,AFSA09.jpg,AFSA01.jpg,FS,4,num_2,16,num_2,0.983492484316,,,2017_Mar_06_1936,59.9967671624,MAFE4ImagesEEG,001,100048,
AFNE01.JPG,AFNE01.JPG,AFNE01.JPG,AFNE01.JPG,AFNE01.JPG,AFNE01.JPG,,,,,,,,,,,,,1,4,14,1,,,,,,,,,,,AFNE06.jpg,AFSA16.jpg,AFNE20.jpg,AFSA05.jpg,AFNE20.jpg,FN,3,num_2,32,num_8,0.633516603615,,,2017_Mar_06_1936,59.9967671624,MAFE4ImagesEEG,001,100048,
AFNE01.JPG,AFNE01.JPG,AFNE01.JPG,AFNE01.JPG,AFNE01.JPG,AFNE01.JPG,,,,,,,,,,,,,1,5,15,4,,,,,,,,,,,AFNE03.jpg,AFSA04.jpg,AFSA12.jpg,AFNE08.jpg,AFSA12.jpg,FS,4,num_2,16,num_2,0.800155687146,,,2017_Mar_06_1936,59.9967671624,MAFE4ImagesEEG,001,100048,
AFNE01.JPG,AFNE01.JPG,AFNE01.JPG,AFNE01.JPG,AFNE01.JPG,AFNE01.JPG,,,,,,,,,,,,,1,6,16,8,,,,,,,,,,,AFSA10.jpg,AFSA01.jpg,AFNE03.jpg,AFNE08.jpg,AFSA10.jpg,FS,4,num_8,32,num_2,0.800147027243,,,2017_Mar_06_1936,59.9967671624,MAFE4ImagesEEG,001,100048,
AFNE01.JPG,AFNE01.JPG,AFNE01.JPG,AFNE01.JPG,AFNE01.JPG,AFNE01.JPG,,,,,,,,,,,,,1,7,17,7,,,,,,,,,,,AFSA14.jpg,AFSA02.jpg,AFNE14.jpg,AFNE20.jpg,AFSA14.jpg,FS,4,num_8,16,num_8,0.566815554164,,,2017_Mar_06_1936,59.9967671624,MAFE4ImagesEEG,001,100048,
AFNE01.JPG,AFNE01.JPG,AFNE01.JPG,AFNE01.JPG,AFNE01.JPG,AFNE01.JPG,,,,,,,,,,,,,1,8,18,3,,,,,,,,,,,AFNE04.jpg,AFSA14.jpg,AFNE20.jpg,AFSA13.jpg,AFSA13.jpg,FS,4,num_4,16,num_4,0.516783031169,,,2017_Mar_06_1936,59.9967671624,MAFE4ImagesEEG,001,100048,
AFNE01.JPG,AFNE01.JPG,AFNE01.JPG,AFNE01.JPG,AFNE01.JPG,AFNE01.JPG,,,,,,,,,,,,,1,9,19,2,,,,,,,,,,,AFNE02.jpg,AFSA06.jpg,AFNE17.jpg,AFSA09.jpg,AFNE02.jpg,FN,3,num_8,16,num_8,0.516821840312,,,2017_Mar_06_1936,59.9967671624,MAFE4ImagesEEG,001,100048,
AFNE01.JPG,AFNE01.JPG,AFNE01.JPG,AFNE01.JPG,AFNE01.JPG,AFNE01.JPG,,,,,,,,,,,,,2,0,20,5,,,,,,,,,,,AFSA19.jpg,AFSA14.jpg,AFNE20.jpg,AFNE03.jpg,AFNE20.jpg,FN,3,num_2,32,num_4,1.08344944147,,,2017_Mar_06_1936,59.9967671624,MAFE4ImagesEEG,001,100048,
AFNE01.JPG,AFNE01.JPG,AFNE01.JPG,AFNE01.JPG,AFNE01.JPG,AFNE01.JPG,,,,,,,,,,,,,2,1,21,9,,,,,,,,,,,AFSA03.jpg,AFNE11.jpg,AFSA01.jpg,AFNE13.jpg,AFSA01.jpg,FS,4,num_2,16,num_2,0.800003014971,,,2017_Mar_06_1936,59.9967671624,MAFE4ImagesEEG,001,100048,
AFNE01.JPG,AFNE01.JPG,AFNE01.JPG,AFNE01.JPG,AFNE01.JPG,AFNE01.JPG,,,,,,,,,,,,,2,2,22,3,,,,,,,,,,,AFSA17.jpg,AFNE05.jpg,AFSA10.jpg,AFNE07.jpg,AFNE07.jpg,FN,3,num_4,16,num_4,0.700143242255,,,2017_Mar_06_1936,59.9967671624,MAFE4ImagesEEG,001,100048,
AFNE01.JPG,AFNE01.JPG,AFNE01.JPG,AFNE01.JPG,AFNE01.JPG,AFNE01.JPG,,,,,,,,,,,,,2,3,23,8,,,,,,,,,,,AFNE13.jpg,AFSA16.jpg,AFSA08.jpg,AFNE04.jpg,AFSA08.jpg,FS,4,num_2,16,num_2,1.06674691569,,,2017_Mar_06_1936,59.9967671624,MAFE4ImagesEEG,001,100048,
AFNE01.JPG,AFNE01.JPG,AFNE01.JPG,AFNE01.JPG,AFNE01.JPG,AFNE01.JPG,,,,,,,,,,,,,2,4,24,0,,,,,,,,,,,AFSA10.jpg,AFNE01.jpg,AFSA11.jpg,AFNE07.jpg,AFSA10.jpg,FS,4,num_8,32,num_6,0.650034383405,,,2017_Mar_06_1936,59.9967671624,MAFE4ImagesEEG,001,100048,
AFNE01.JPG,AFNE01.JPG,AFNE01.JPG,AFNE01.JPG,AFNE01.JPG,AFNE01.JPG,,,,,,,,,,,,,2,5,25,7,,,,,,,,,,,AFNE03.jpg,AFNE14.jpg,AFSA02.jpg,AFSA20.jpg,AFNE03.jpg,FN,3,num_8,16,num_8,1.01674774941,,,2017_Mar_06_1936,59.9967671624,MAFE4ImagesEEG,001,100048,
AFNE01.JPG,AFNE01.JPG,AFNE01.JPG,AFNE01.JPG,AFNE01.JPG,AFNE01.JPG,,,,,,,,,,,,,2,6,26,2,,,,,,,,,,,AFNE13.jpg,AFSA19.jpg,AFNE09.jpg,AFSA17.jpg,AFNE13.jpg,FN,3,num_8,16,num_8,1.36669636704,,,2017_Mar_06_1936,59.9967671624,MAFE4ImagesEEG,001,100048,
AFNE01.JPG,AFNE01.JPG,AFNE01.JPG,AFNE01.JPG,AFNE01.JPG,AFNE01.JPG,,,,,,,,,,,,,2,7,27,4,,,,,,,,,,,AFSA13.jpg,AFNE12.jpg,AFNE13.jpg,AFSA18.jpg,AFNE12.jpg,FN,3,num_6,16,num_6,0.566796309315,,,2017_Mar_06_1936,59.9967671624,MAFE4ImagesEEG,001,100048,
AFNE01.JPG,AFNE01.JPG,AFNE01.JPG,AFNE01.JPG,AFNE01.JPG,AFNE01.JPG,,,,,,,,,,,,,2,8,28,1,,,,,,,,,,,AFSA16.jpg,AFNE13.jpg,AFSA12.jpg,AFNE02.jpg,AFNE02.jpg,FN,3,num_4,16,num_4,0.866783608217,,,2017_Mar_06_1936,59.9967671624,MAFE4ImagesEEG,001,100048,
AFNE01.JPG,AFNE01.JPG,AFNE01.JPG,AFNE01.JPG,AFNE01.JPG,AFNE01.JPG,,,,,,,,,,,,,2,9,29,6,,,,,,,,,,,AFNE16.jpg,AFSA07.jpg,AFSA17.jpg,AFNE14.jpg,AFNE16.jpg,FN,3,num_8,16,num_8,0.766688412521,,,2017_Mar_06_1936,59.9967671624,MAFE4ImagesEEG,001,100048,
AFNE01.JPG,AFNE01.JPG,AFNE01.JPG,AFNE01.JPG,AFNE01.JPG,AFNE01.JPG,,,,,,,,,,,,,3,0,30,3,,,,,,,,,,,AFSA10.jpg,AFSA06.jpg,AFNE17.jpg,AFNE04.jpg,AFNE17.jpg,FN,3,num_2,16,num_2,1.1168028526,,,2017_Mar_06_1936,59.9967671624,MAFE4ImagesEEG,001,100048,
AFNE01.JPG,AFNE01.JPG,AFNE01.JPG,AFNE01.JPG,AFNE01.JPG,AFNE01.JPG,,,,,,,,,,,,,3,1,31,6,,,,,,,,,,,AFSA11.jpg,AFNE17.jpg,AFSA04.jpg,AFNE01.jpg,AFSA04.jpg,FS,4,num_2,16,num_2,0.767017491627,,,2017_Mar_06_1936,59.9967671624,MAFE4ImagesEEG,001,100048,
AFNE01.JPG,AFNE01.JPG,AFNE01.JPG,AFNE01.JPG,AFNE01.JPG,AFNE01.JPG,,,,,,,,,,,,,3,2,32,2,,,,,,,,,,,AFNE19.jpg,AFNE09.jpg,AFSA15.jpg,AFSA12.jpg,AFSA12.jpg,FS,4,num_4,16,num_4,0.683474394958,,,2017_Mar_06_1936,59.9967671624,MAFE4ImagesEEG,001,100048,
AFNE01.JPG,AFNE01.JPG,AFNE01.JPG,AFNE01.JPG,AFNE01.JPG,AFNE01.JPG,,,,,,,,,,,,,3,3,33,4,,,,,,,,,,,AFSA04.jpg,AFSA19.jpg,AFNE19.jpg,AFNE11.jpg,AFSA04.jpg,FS,4,num_8,32,num_2,0.833459063433,,,2017_Mar_06_1936,59.9967671624,MAFE4ImagesEEG,001,100048,
AFNE01.JPG,AFNE01.JPG,AFNE01.JPG,AFNE01.JPG,AFNE01.JPG,AFNE01.JPG,,,,,,,,,,,,,3,4,34,9,,,,,,,,,,,AFSA16.jpg,AFNE10.jpg,AFNE16.jpg,AFSA08.jpg,AFNE10.jpg,FN,3,num_6,16,num_6,0.68346573459,,,2017_Mar_06_1936,59.9967671624,MAFE4ImagesEEG,001,100048,
AFNE01.JPG,AFNE01.JPG,AFNE01.JPG,AFNE01.JPG,AFNE01.JPG,AFNE01.JPG,,,,,,,,,,,,,3,5,35,0,,,,,,,,,,,AFSA12.jpg,AFSA03.jpg,AFNE12.jpg,AFNE05.jpg,AFNE12.jpg,FN,3,num_2,16,num_2,1.21672420716,,,2017_Mar_06_1936,59.9967671624,MAFE4ImagesEEG,001,100048,
AFNE01.JPG,AFNE01.JPG,AFNE01.JPG,AFNE01.JPG,AFNE01.JPG,AFNE01.JPG,,,,,,,,,,,,,3,6,36,5,,,,,,,,,,,AFSA17.jpg,AFNE07.jpg,AFNE16.jpg,AFSA05.jpg,AFNE16.jpg,FN,3,num_2,16,num_2,1.05012361286,,,2017_Mar_06_1936,59.9967671624,MAFE4ImagesEEG,001,100048,
AFNE01.JPG,AFNE01.JPG,AFNE01.JPG,AFNE01.JPG,AFNE01.JPG,AFNE01.JPG,,,,,,,,,,,,,3,7,37,7,,,,,,,,,,,AFSA18.jpg,AFNE07.jpg,AFNE16.jpg,AFSA10.jpg,AFSA10.jpg,FS,4,num_4,16,num_4,0.850003142841,,,2017_Mar_06_1936,59.9967671624,MAFE4ImagesEEG,001,100048,
AFNE01.JPG,AFNE01.JPG,AFNE01.JPG,AFNE01.JPG,AFNE01.JPG,AFNE01.JPG,,,,,,,,,,,,,3,8,38,1,,,,,,,,,,,AFNE08.jpg,AFNE18.jpg,AFSA19.jpg,AFSA14.jpg,AFNE08.jpg,FN,3,num_8,16,num_8,0.616759873461,,,2017_Mar_06_1936,59.9967671624,MAFE4ImagesEEG,001,100048,
AFNE01.JPG,AFNE01.JPG,AFNE01.JPG,AFNE01.JPG,AFNE01.JPG,AFNE01.JPG,,,,,,,,,,,,,3,9,39,8,,,,,,,,,,,AFSA04.jpg,AFNE06.jpg,AFNE01.jpg,AFSA08.jpg,AFNE01.jpg,FN,3,num_2,16,num_2,0.500260119792,,,2017_Mar_06_1936,59.9967671624,MAFE4ImagesEEG,001,100048,
AFNE01.JPG,AFNE01.JPG,AFNE01.JPG,AFNE01.JPG,AFNE01.JPG,AFNE01.JPG,,,,,,,,,,,,,4,0,40,1,,,,,,,,,,,AFSA04.jpg,AFNE10.jpg,AFSA10.jpg,AFNE07.jpg,AFNE07.jpg,FN,3,num_4,32,num_6,0.833446875215,,,2017_Mar_06_1936,59.9967671624,MAFE4ImagesEEG,001,100048,
AFNE01.JPG,AFNE01.JPG,AFNE01.JPG,AFNE01.JPG,AFNE01.JPG,AFNE01.JPG,,,,,,,,,,,,,4,1,41,5,,,,,,,,,,,AFSA10.jpg,AFNE11.jpg,AFNE14.jpg,AFSA06.jpg,AFNE14.jpg,FN,3,num_2,16,num_2,0.400189942215,,,2017_Mar_06_1936,59.9967671624,MAFE4ImagesEEG,001,100048,
AFNE01.JPG,AFNE01.JPG,AFNE01.JPG,AFNE01.JPG,AFNE01.JPG,AFNE01.JPG,,,,,,,,,,,,,4,2,42,2,,,,,,,,,,,AFNE11.jpg,AFNE13.jpg,AFSA07.jpg,AFSA06.jpg,AFSA07.jpg,FS,4,num_2,32,num_4,0.80023458926,,,2017_Mar_06_1936,59.9967671624,MAFE4ImagesEEG,001,100048,
AFNE01.JPG,AFNE01.JPG,AFNE01.JPG,AFNE01.JPG,AFNE01.JPG,AFNE01.JPG,,,,,,,,,,,,,4,3,43,7,,,,,,,,,,,AFNE07.jpg,AFSA09.jpg,AFSA13.jpg,AFNE08.jpg,AFNE08.jpg,FN,3,num_4,32,num_8,0.666811320465,,,2017_Mar_06_1936,59.9967671624,MAFE4ImagesEEG,001,100048,
AFNE01.JPG,AFNE01.JPG,AFNE01.JPG,AFNE01.JPG,AFNE01.JPG,AFNE01.JPG,,,,,,,,,,,,,4,4,44,9,,,,,,,,,,,AFNE06.jpg,AFSA09.jpg,AFSA02.jpg,AFNE13.jpg,AFSA02.jpg,FS,4,num_2,32,num_4,0.716436503921,,,2017_Mar_06_1936,59.9967671624,MAFE4ImagesEEG,001,100048,
AFNE01.JPG,AFNE01.JPG,AFNE01.JPG,AFNE01.JPG,AFNE01.JPG,AFNE01.JPG,,,,,,,,,,,,,4,5,45,0,,,,,,,,,,,AFNE04.jpg,AFNE01.jpg,AFSA12.jpg,AFSA05.jpg,AFSA05.jpg,FS,4,num_4,32,num_2,0.600132401101,,,2017_Mar_06_1936,59.9967671624,MAFE4ImagesEEG,001,100048,
AFNE01.JPG,AFNE01.JPG,AFNE01.JPG,AFNE01.JPG,AFNE01.JPG,AFNE01.JPG,,,,,,,,,,,,,4,6,46,8,,,,,,,,,,,AFSA18.jpg,AFNE06.jpg,AFNE01.jpg,AFSA03.jpg,AFSA18.jpg,FS,4,num_8,32,num_4,0.583452648483,,,2017_Mar_06_1936,59.9967671624,MAFE4ImagesEEG,001,100048,
AFNE01.JPG,AFNE01.JPG,AFNE01.JPG,AFNE01.JPG,AFNE01.JPG,AFNE01.JPG,,,,,,,,,,,,,4,7,47,6,,,,,,,,,,,AFSA11.jpg,AFSA02.jpg,AFNE07.jpg,AFNE16.jpg,AFSA02.jpg,FS,4,num_6,32,num_8,0.583464836702,,,2017_Mar_06_1936,59.9967671624,MAFE4ImagesEEG,001,100048,
AFNE01.JPG,AFNE01.JPG,AFNE01.JPG,AFNE01.JPG,AFNE01.JPG,AFNE01.JPG,,,,,,,,,,,,,4,8,48,3,,,,,,,,,,,AFNE14.jpg,AFNE03.jpg,AFSA11.jpg,AFSA16.jpg,AFNE14.jpg,FN,3,num_8,16,num_8,1.18344616937,,,2017_Mar_06_1936,59.9967671624,MAFE4ImagesEEG,001,100048,
AFNE01.JPG,AFNE01.JPG,AFNE01.JPG,AFNE01.JPG,AFNE01.JPG,AFNE01.JPG,,,,,,,,,,,,,4,9,49,4,,,,,,,,,,,AFNE01.jpg,AFSA13.jpg,AFNE03.jpg,AFSA16.jpg,AFSA16.jpg,FS,4,num_4,16,num_4,0.716848975047,,,2017_Mar_06_1936,59.9967671624,MAFE4ImagesEEG,001,100048,
AFNE01.JPG,AFNE01.JPG,AFNE01.JPG,AFNE01.JPG,AFNE01.JPG,AFNE01.JPG,,,,,,,,,,,,,5,0,50,4,,,,,,,,,,,AFSA19.jpg,AFNE07.jpg,AFSA04.jpg,AFNE20.jpg,AFSA19.jpg,FS,4,num_8,32,num_2,0.983438920695,,,2017_Mar_06_1936,59.9967671624,MAFE4ImagesEEG,001,100048,
AFNE01.JPG,AFNE01.JPG,AFNE01.JPG,AFNE01.JPG,AFNE01.JPG,AFNE01.JPG,,,,,,,,,,,,,5,1,51,9,,,,,,,,,,,AFSA13.jpg,AFNE04.jpg,AFSA03.jpg,AFNE16.jpg,AFSA03.jpg,FS,4,num_2,16,num_2,0.666812603362,,,2017_Mar_06_1936,59.9967671624,MAFE4ImagesEEG,001,100048,
AFNE01.JPG,AFNE01.JPG,AFNE01.JPG,AFNE01.JPG,AFNE01.JPG,AFNE01.JPG,,,,,,,,,,,,,5,2,52,1,,,,,,,,,,,AFNE13.jpg,AFSA10.jpg,AFNE04.jpg,AFSA08.jpg,AFNE13.jpg,FN,3,num_8,16,num_8,0.733504672535,,,2017_Mar_06_1936,59.9967671624,MAFE4ImagesEEG,001,100048,
AFNE01.JPG,AFNE01.JPG,AFNE01.JPG,AFNE01.JPG,AFNE01.JPG,AFNE01.JPG,,,,,,,,,,,,,5,3,53,5,,,,,,,,,,,AFSA10.jpg,AFSA18.jpg,AFNE15.jpg,AFNE13.jpg,AFNE13.jpg,FN,3,num_4,32,num_8,0.600152287167,,,2017_Mar_06_1936,59.9967671624,MAFE4ImagesEEG,001,100048,
AFNE01.JPG,AFNE01.JPG,AFNE01.JPG,AFNE01.JPG,AFNE01.JPG,AFNE01.JPG,,,,,,,,,,,,,5,4,54,0,,,,,,,,,,,AFNE20.jpg,AFSA13.jpg,AFSA12.jpg,AFNE15.jpg,AFNE15.jpg,FN,3,num_4,16,num_4,0.40019699838,,,2017_Mar_06_1936,59.9967671624,MAFE4ImagesEEG,001,100048,
AFNE01.JPG,AFNE01.JPG,AFNE01.JPG,AFNE01.JPG,AFNE01.JPG,AFNE01.JPG,,,,,,,,,,,,,5,5,55,6,,,,,,,,,,,AFNE07.jpg,AFSA02.jpg,AFSA09.jpg,AFNE19.jpg,AFNE07.jpg,FN,3,num_8,16,num_8,0.433507751673,,,2017_Mar_06_1936,59.9967671624,MAFE4ImagesEEG,001,100048,
AFNE01.JPG,AFNE01.JPG,AFNE01.JPG,AFNE01.JPG,AFNE01.JPG,AFNE01.JPG,,,,,,,,,,,,,5,6,56,7,,,,,,,,,,,AFSA17.jpg,AFSA05.jpg,AFNE17.jpg,AFNE19.jpg,AFNE19.jpg,FN,3,num_4,32,num_8,0.933479526546,,,2017_Mar_06_1936,59.9967671624,MAFE4ImagesEEG,001,100048,
AFNE01.JPG,AFNE01.JPG,AFNE01.JPG,AFNE01.JPG,AFNE01.JPG,AFNE01.JPG,,,,,,,,,,,,,5,7,57,8,,,,,,,,,,,AFNE15.jpg,AFSA17.jpg,AFNE20.jpg,AFSA07.jpg,AFNE20.jpg,FN,3,num_2,32,num_8,0.700116941705,,,2017_Mar_06_1936,59.9967671624,MAFE4ImagesEEG,001,100048,
AFNE01.JPG,AFNE01.JPG,AFNE01.JPG,AFNE01.JPG,AFNE01.JPG,AFNE01.JPG,,,,,,,,,,,,,5,8,58,2,,,,,,,,,,,AFSA18.jpg,AFNE15.jpg,AFNE18.jpg,AFSA10.jpg,AFSA18.jpg,FS,4,num_8,32,num_4,0.750151710119,,,2017_Mar_06_1936,59.9967671624,MAFE4ImagesEEG,001,100048,
AFNE01.JPG,AFNE01.JPG,AFNE01.JPG,AFNE01.JPG,AFNE01.JPG,AFNE01.JPG,,,,,,,,,,,,,5,9,59,3,,,,,,,,,,,AFNE18.jpg,AFSA09.jpg,AFSA07.jpg,AFNE05.jpg,AFSA07.jpg,FS,4,num_2,16,num_2,1.28341723932,,,2017_Mar_06_1936,59.9967671624,MAFE4ImagesEEG,001,100048,
,,,,,,,,,,,,,,,,,,,,,,,,,,,,,,,,,,,,,,,,,,,space,1.38344860729,2017_Mar_06_1936,59.9967671624,MAFE4ImagesEEG,001,100048,
AFNE01.JPG,AFNE01.JPG,AFNE01.JPG,AFNE01.JPG,AFNE01.JPG,AFNE01.JPG,,,,,,,,,,,,,,,,,0,0,0,0,,,,,,,AMSA01.jpg,AMNE03.jpg,AMSA10.jpg,AMNE02.jpg,AMSA10.jpg,MS,2,num_2,16,num_2,0.633332820144,,,2017_Mar_06_1936,59.9967671624,MAFE4ImagesEEG,001,100048,
AFNE01.JPG,AFNE01.JPG,AFNE01.JPG,AFNE01.JPG,AFNE01.JPG,AFNE01.JPG,,,,,,,,,,,,,,,,,0,1,1,6,,,,,,,AMNE07.jpg,AMSA08.jpg,AMSA17.jpg,AMNE09.jpg,AMSA17.jpg,MS,2,num_2,16,num_2,0.433494280558,,,2017_Mar_06_1936,59.9967671624,MAFE4ImagesEEG,001,100048,
AFNE01.JPG,AFNE01.JPG,AFNE01.JPG,AFNE01.JPG,AFNE01.JPG,AFNE01.JPG,,,,,,,,,,,,,,,,,0,2,2,8,,,,,,,AMNE09.jpg,AMSA03.jpg,AMSA15.jpg,AMNE04.jpg,AMSA15.jpg,MS,2,num_2,32,num_4,0.683456433471,,,2017_Mar_06_1936,59.9967671624,MAFE4ImagesEEG,001,100048,
AFNE01.JPG,AFNE01.JPG,AFNE01.JPG,AFNE01.JPG,AFNE01.JPG,AFNE01.JPG,,,,,,,,,,,,,,,,,0,3,3,2,,,,,,,AMNE18.jpg,AMNE13.jpg,AMSA19.jpg,AMSA15.jpg,AMSA19.jpg,MS,2,num_2,32,num_8,0.633531678934,,,2017_Mar_06_1936,59.9967671624,MAFE4ImagesEEG,001,100048,
AFNE01.JPG,AFNE01.JPG,AFNE01.JPG,AFNE01.JPG,AFNE01.JPG,AFNE01.JPG,,,,,,,,,,,,,,,,,0,4,4,3,,,,,,,AMNE06.jpg,AMSA10.jpg,AMSA16.jpg,AMNE07.jpg,AMNE06.jpg,MN,1,num_8,16,num_8,0.566890607122,,,2017_Mar_06_1936,59.9967671624,MAFE4ImagesEEG,001,100048,
AFNE01.JPG,AFNE01.JPG,AFNE01.JPG,AFNE01.JPG,AFNE01.JPG,AFNE01.JPG,,,,,,,,,,,,,,,,,0,5,5,9,,,,,,,AMNE18.jpg,AMNE15.jpg,AMSA17.jpg,AMSA15.jpg,AMSA15.jpg,MS,2,num_4,16,num_4,0.916786302347,,,2017_Mar_06_1936,59.9967671624,MAFE4ImagesEEG,001,100048,
AFNE01.JPG,AFNE01.JPG,AFNE01.JPG,AFNE01.JPG,AFNE01.JPG,AFNE01.JPG,,,,,,,,,,,,,,,,,0,6,6,7,,,,,,,AMNE17.jpg,AMNE13.jpg,AMSA04.jpg,AMSA17.jpg,AMNE17.jpg,MN,1,num_8,32,num_6,0.500188274309,,,2017_Mar_06_1936,59.9967671624,MAFE4ImagesEEG,001,100048,
AFNE01.JPG,AFNE01.JPG,AFNE01.JPG,AFNE01.JPG,AFNE01.JPG,AFNE01.JPG,,,,,,,,,,,,,,,,,0,7,7,1,,,,,,,AMNE01.jpg,AMNE03.jpg,AMSA01.jpg,AMSA08.jpg,AMNE03.jpg,MN,1,num_6,16,num_6,0.78348427359,,,2017_Mar_06_1936,59.9967671624,MAFE4ImagesEEG,001,100048,
AFNE01.JPG,AFNE01.JPG,AFNE01.JPG,AFNE01.JPG,AFNE01.JPG,AFNE01.JPG,,,,,,,,,,,,,,,,,0,8,8,5,,,,,,,AMNE19.jpg,AMSA13.jpg,AMSA01.jpg,AMNE15.jpg,AMSA13.jpg,MS,2,num_6,16,num_6,0.900115209632,,,2017_Mar_06_1936,59.9967671624,MAFE4ImagesEEG,001,100048,
AFNE01.JPG,AFNE01.JPG,AFNE01.JPG,AFNE01.JPG,AFNE01.JPG,AFNE01.JPG,,,,,,,,,,,,,,,,,0,9,9,4,,,,,,,AMSA18.jpg,AMNE12.jpg,AMSA12.jpg,AMNE13.jpg,AMNE12.jpg,MN,1,num_6,16,num_6,0.55018776143,,,2017_Mar_06_1936,59.9967671624,MAFE4ImagesEEG,001,100048,
AFNE01.JPG,AFNE01.JPG,AFNE01.JPG,AFNE01.JPG,AFNE01.JPG,AFNE01.JPG,,,,,,,,,,,,,,,,,1,0,10,4,,,,,,,AMSA19.jpg,AMNE15.jpg,AMNE19.jpg,AMSA17.jpg,AMSA17.jpg,MS,2,num_4,32,num_6,0.750470525119,,,2017_Mar_06_1936,59.9967671624,MAFE4ImagesEEG,001,100048,
AFNE01.JPG,AFNE01.JPG,AFNE01.JPG,AFNE01.JPG,AFNE01.JPG,AFNE01.JPG,,,,,,,,,,,,,,,,,1,1,11,8,,,,,,,AMNE15.jpg,AMSA08.jpg,AMNE13.jpg,AMSA10.jpg,AMNE15.jpg,MN,1,num_8,16,num_8,0.516651848797,,,2017_Mar_06_1936,59.9967671624,MAFE4ImagesEEG,001,100048,
AFNE01.JPG,AFNE01.JPG,AFNE01.JPG,AFNE01.JPG,AFNE01.JPG,AFNE01.JPG,,,,,,,,,,,,,,,,,1,2,12,1,,,,,,,AMSA07.jpg,AMNE17.jpg,AMNE02.jpg,AMSA18.jpg,AMSA18.jpg,MS,2,num_4,32,num_2,0.71680054348,,,2017_Mar_06_1936,59.9967671624,MAFE4ImagesEEG,001,100048,
AFNE01.JPG,AFNE01.JPG,AFNE01.JPG,AFNE01.JPG,AFNE01.JPG,AFNE01.JPG,,,,,,,,,,,,,,,,,1,3,13,7,,,,,,,AMSA03.jpg,AMSA11.jpg,AMNE01.jpg,AMNE04.jpg,AMSA03.jpg,MS,2,num_8,16,num_8,0.550160497893,,,2017_Mar_06_1936,59.9967671624,MAFE4ImagesEEG,001,100048,
AFNE01.JPG,AFNE01.JPG,AFNE01.JPG,AFNE01.JPG,AFNE01.JPG,AFNE01.JPG,,,,,,,,,,,,,,,,,1,4,14,5,,,,,,,AMSA19.jpg,AMNE18.jpg,AMSA16.jpg,AMNE04.jpg,AMSA19.jpg,MS,2,num_8,32,num_2,0.833449761849,,,2017_Mar_06_1936,59.9967671624,MAFE4ImagesEEG,001,100048,
AFNE01.JPG,AFNE01.JPG,AFNE01.JPG,AFNE01.JPG,AFNE01.JPG,AFNE01.JPG,,,,,,,,,,,,,,,,,1,5,15,6,,,,,,,AMNE20.jpg,AMSA06.jpg,AMSA17.jpg,AMNE05.jpg,AMNE05.jpg,MN,1,num_4,32,num_6,0.533549062908,,,2017_Mar_06_1936,59.9967671624,MAFE4ImagesEEG,001,100048,
AFNE01.JPG,AFNE01.JPG,AFNE01.JPG,AFNE01.JPG,AFNE01.JPG,AFNE01.JPG,,,,,,,,,,,,,,,,,1,6,16,0,,,,,,,AMNE13.jpg,AMNE09.jpg,AMSA01.jpg,AMSA19.jpg,AMSA19.jpg,MS,2,num_4,32,num_8,0.900178395677,,,2017_Mar_06_1936,59.9967671624,MAFE4ImagesEEG,001,100048,
AFNE01.JPG,AFNE01.JPG,AFNE01.JPG,AFNE01.JPG,AFNE01.JPG,AFNE01.JPG,,,,,,,,,,,,,,,,,1,7,17,9,,,,,,,AMSA02.jpg,AMNE09.jpg,AMSA08.jpg,AMNE16.jpg,AMSA08.jpg,MS,2,num_2,16,num_2,1.18372906232,,,2017_Mar_06_1936,59.9967671624,MAFE4ImagesEEG,001,100048,
AFNE01.JPG,AFNE01.JPG,AFNE01.JPG,AFNE01.JPG,AFNE01.JPG,AFNE01.JPG,,,,,,,,,,,,,,,,,1,8,18,3,,,,,,,AMNE11.jpg,AMSA02.jpg,AMSA13.jpg,AMNE09.jpg,AMNE09.jpg,MN,1,num_4,16,num_4,0.600194625091,,,2017_Mar_06_1936,59.9967671624,MAFE4ImagesEEG,001,100048,
AFNE01.JPG,AFNE01.JPG,AFNE01.JPG,AFNE01.JPG,AFNE01.JPG,AFNE01.JPG,,,,,,,,,,,,,,,,,1,9,19,2,,,,,,,AMSA15.jpg,AMNE05.jpg,AMSA01.jpg,AMNE09.jpg,AMNE05.jpg,MN,1,num_6,32,num_4,0.666683665477,,,2017_Mar_06_1936,59.9967671624,MAFE4ImagesEEG,001,100048,
AFNE01.JPG,AFNE01.JPG,AFNE01.JPG,AFNE01.JPG,AFNE01.JPG,AFNE01.JPG,,,,,,,,,,,,,,,,,2,0,20,6,,,,,,,AMNE16.jpg,AMSA15.jpg,AMNE13.jpg,AMSA20.jpg,AMSA20.jpg,MS,2,num_4,32,num_6,0.650204696227,,,2017_Mar_06_1936,59.9967671624,MAFE4ImagesEEG,001,100048,
AFNE01.JPG,AFNE01.JPG,AFNE01.JPG,AFNE01.JPG,AFNE01.JPG,AFNE01.JPG,,,,,,,,,,,,,,,,,2,1,21,9,,,,,,,AMSA17.jpg,AMSA02.jpg,AMNE19.jpg,AMNE01.jpg,AMNE19.jpg,MN,1,num_2,16,num_2,0.833539569285,,,2017_Mar_06_1936,59.9967671624,MAFE4ImagesEEG,001,100048,
AFNE01.JPG,AFNE01.JPG,AFNE01.JPG,AFNE01.JPG,AFNE01.JPG,AFNE01.JPG,,,,,,,,,,,,,,,,,2,2,22,1,,,,,,,AMNE13.jpg,AMSA13.jpg,AMNE01.jpg,AMSA18.jpg,AMNE13.jpg,MN,1,num_8,16,num_8,0.650165245403,,,2017_Mar_06_1936,59.9967671624,MAFE4ImagesEEG,001,100048,
AFNE01.JPG,AFNE01.JPG,AFNE01.JPG,AFNE01.JPG,AFNE01.JPG,AFNE01.JPG,,,,,,,,,,,,,,,,,2,3,23,3,,,,,,,AMSA11.jpg,AMNE12.jpg,AMNE13.jpg,AMSA10.jpg,AMNE12.jpg,MN,1,num_6,32,num_2,0.533609682694,,,2017_Mar_06_1936,59.9967671624,MAFE4ImagesEEG,001,100048,
AFNE01.JPG,AFNE01.JPG,AFNE01.JPG,AFNE01.JPG,AFNE01.JPG,AFNE01.JPG,,,,,,,,,,,,,,,,,2,4,24,4,,,,,,,AMSA12.jpg,AMNE19.jpg,AMNE06.jpg,AMSA20.jpg,AMNE06.jpg,MN,1,num_2,32,num_4,0.683471187484,,,2017_Mar_06_1936,59.9967671624,MAFE4ImagesEEG,001,100048,
AFNE01.JPG,AFNE01.JPG,AFNE01.JPG,AFNE01.JPG,AFNE01.JPG,AFNE01.JPG,,,,,,,,,,,,,,,,,2,5,25,2,,,,,,,AMNE17.jpg,AMSA06.jpg,AMNE15.jpg,AMSA07.jpg,AMNE15.jpg,MN,1,num_2,32,num_8,0.533467595,,,2017_Mar_06_1936,59.9967671624,MAFE4ImagesEEG,001,100048,
AFNE01.JPG,AFNE01.JPG,AFNE01.JPG,AFNE01.JPG,AFNE01.JPG,AFNE01.JPG,,,,,,,,,,,,,,,,,2,6,26,5,,,,,,,AMNE17.jpg,AMNE10.jpg,AMSA03.jpg,AMSA17.jpg,AMSA03.jpg,MS,2,num_2,16,num_2,0.41649282584,,,2017_Mar_06_1936,59.9967671624,MAFE4ImagesEEG,001,100048,
AFNE01.JPG,AFNE01.JPG,AFNE01.JPG,AFNE01.JPG,AFNE01.JPG,AFNE01.JPG,,,,,,,,,,,,,,,,,2,7,27,0,,,,,,,AMSA02.jpg,AMNE17.jpg,AMNE15.jpg,AMSA19.jpg,AMNE15.jpg,MN,1,num_2,32,num_8,0.550170761999,,,2017_Mar_06_1936,59.9967671624,MAFE4ImagesEEG,001,100048,
AFNE01.JPG,AFNE01.JPG,AFNE01.JPG,AFNE01.JPG,AFNE01.JPG,AFNE01.JPG,,,,,,,,,,,,,,,,,2,8,28,7,,,,,,,AMSA04.jpg,AMNE07.jpg,AMNE14.jpg,AMSA03.jpg,AMNE07.jpg,MN,1,num_6,32,num_8,0.483496012166,,,2017_Mar_06_1936,59.9967671624,MAFE4ImagesEEG,001,100048,
AFNE01.JPG,AFNE01.JPG,AFNE01.JPG,AFNE01.JPG,AFNE01.JPG,AFNE01.JPG,,,,,,,,,,,,,,,,,2,9,29,8,,,,,,,AMNE12.jpg,AMSA02.jpg,AMSA13.jpg,AMNE15.jpg,AMNE12.jpg,MN,1,num_8,16,num_8,0.516842047218,,,2017_Mar_06_1936,59.9967671624,MAFE4ImagesEEG,001,100048,
AFNE01.JPG,AFNE01.JPG,AFNE01.JPG,AFNE01.JPG,AFNE01.JPG,AFNE01.JPG,,,,,,,,,,,,,,,,,3,0,30,1,,,,,,,AMNE04.jpg,AMNE03.jpg,AMSA20.jpg,AMSA12.jpg,AMNE04.jpg,MN,1,num_8,16,num_8,0.700172109064,,,2017_Mar_06_1936,59.9967671624,MAFE4ImagesEEG,001,100048,
AFNE01.JPG,AFNE01.JPG,AFNE01.JPG,AFNE01.JPG,AFNE01.JPG,AFNE01.JPG,,,,,,,,,,,,,,,,,3,1,31,6,,,,,,,AMSA10.jpg,AMNE17.jpg,AMSA20.jpg,AMNE19.jpg,AMSA10.jpg,MS,2,num_8,16,num_8,0.633472342044,,,2017_Mar_06_1936,59.9967671624,MAFE4ImagesEEG,001,100048,
AFNE01.JPG,AFNE01.JPG,AFNE01.JPG,AFNE01.JPG,AFNE01.JPG,AFNE01.JPG,,,,,,,,,,,,,,,,,3,2,32,9,,,,,,,AMSA20.jpg,AMSA04.jpg,AMNE09.jpg,AMNE02.jpg,AMSA04.jpg,MS,2,num_6,32,num_4,0.616774306633,,,2017_Mar_06_1936,59.9967671624,MAFE4ImagesEEG,001,100048,
AFNE01.JPG,AFNE01.JPG,AFNE01.JPG,AFNE01.JPG,AFNE01.JPG,AFNE01.JPG,,,,,,,,,,,,,,,,,3,3,33,7,,,,,,,AMNE18.jpg,AMNE03.jpg,AMSA12.jpg,AMSA14.jpg,AMNE03.jpg,MN,1,num_6,32,num_2,0.699937648606,,,2017_Mar_06_1936,59.9967671624,MAFE4ImagesEEG,001,100048,
AFNE01.JPG,AFNE01.JPG,AFNE01.JPG,AFNE01.JPG,AFNE01.JPG,AFNE01.JPG,,,,,,,,,,,,,,,,,3,4,34,4,,,,,,,AMNE14.jpg,AMSA13.jpg,AMNE06.jpg,AMSA18.jpg,AMNE06.jpg,MN,1,num_2,32,num_8,0.616775589995,,,2017_Mar_06_1936,59.9967671624,MAFE4ImagesEEG,001,100048,
AFNE01.JPG,AFNE01.JPG,AFNE01.JPG,AFNE01.JPG,AFNE01.JPG,AFNE01.JPG,,,,,,,,,,,,,,,,,3,5,35,5,,,,,,,AMNE07.jpg,AMSA19.jpg,AMNE01.jpg,AMSA20.jpg,AMSA19.jpg,MS,2,num_6,16,num_6,0.616736460011,,,2017_Mar_06_1936,59.9967671624,MAFE4ImagesEEG,001,100048,
AFNE01.JPG,AFNE01.JPG,AFNE01.JPG,AFNE01.JPG,AFNE01.JPG,AFNE01.JPG,,,,,,,,,,,,,,,,,3,6,36,3,,,,,,,AMNE17.jpg,AMSA09.jpg,AMSA06.jpg,AMNE12.jpg,AMNE17.jpg,MN,1,num_8,16,num_8,0.633571450599,,,2017_Mar_06_1936,59.9967671624,MAFE4ImagesEEG,001,100048,
AFNE01.JPG,AFNE01.JPG,AFNE01.JPG,AFNE01.JPG,AFNE01.JPG,AFNE01.JPG,,,,,,,,,,,,,,,,,3,7,37,8,,,,,,,AMNE05.jpg,AMNE10.jpg,AMSA02.jpg,AMSA03.jpg,AMNE05.jpg,MN,1,num_8,16,num_8,0.6171999285,,,2017_Mar_06_1936,59.9967671624,MAFE4ImagesEEG,001,100048,
AFNE01.JPG,AFNE01.JPG,AFNE01.JPG,AFNE01.JPG,AFNE01.JPG,AFNE01.JPG,,,,,,,,,,,,,,,,,3,8,38,2,,,,,,,AMNE16.jpg,AMSA09.jpg,AMNE18.jpg,AMSA01.jpg,AMSA09.jpg,MS,2,num_6,32,num_8,0.633458870463,,,2017_Mar_06_1936,59.9967671624,MAFE4ImagesEEG,001,100048,
AFNE01.JPG,AFNE01.JPG,AFNE01.JPG,AFNE01.JPG,AFNE01.JPG,AFNE01.JPG,,,,,,,,,,,,,,,,,3,9,39,0,,,,,,,AMNE03.jpg,AMSA12.jpg,AMSA06.jpg,AMNE13.jpg,AMSA12.jpg,MS,2,num_6,32,num_8,0.550141253509,,,2017_Mar_06_1936,59.9967671624,MAFE4ImagesEEG,001,100048,
AFNE01.JPG,AFNE01.JPG,AFNE01.JPG,AFNE01.JPG,AFNE01.JPG,AFNE01.JPG,,,,,,,,,,,,,,,,,4,0,40,5,,,,,,,AMSA18.jpg,AMSA08.jpg,AMNE07.jpg,AMNE09.jpg,AMNE07.jpg,MN,1,num_2,16,num_2,0.683447131421,,,2017_Mar_06_1936,59.9967671624,MAFE4ImagesEEG,001,100048,
AFNE01.JPG,AFNE01.JPG,AFNE01.JPG,AFNE01.JPG,AFNE01.JPG,AFNE01.JPG,,,,,,,,,,,,,,,,,4,1,41,8,,,,,,,AMSA11.jpg,AMNE20.jpg,AMNE07.jpg,AMSA04.jpg,AMSA04.jpg,MS,2,num_4,16,num_4,0.617097292095,,,2017_Mar_06_1936,59.9967671624,MAFE4ImagesEEG,001,100048,
AFNE01.JPG,AFNE01.JPG,AFNE01.JPG,AFNE01.JPG,AFNE01.JPG,AFNE01.JPG,,,,,,,,,,,,,,,,,4,2,42,0,,,,,,,AMSA18.jpg,AMNE12.jpg,AMSA15.jpg,AMNE11.jpg,AMNE12.jpg,MN,1,num_6,16,num_6,0.500133427791,,,2017_Mar_06_1936,59.9967671624,MAFE4ImagesEEG,001,100048,
AFNE01.JPG,AFNE01.JPG,AFNE01.JPG,AFNE01.JPG,AFNE01.JPG,AFNE01.JPG,,,,,,,,,,,,,,,,,4,3,43,3,,,,,,,AMSA03.jpg,AMNE08.jpg,AMSA20.jpg,AMNE16.jpg,AMSA03.jpg,MS,2,num_8,16,num_8,0.833487288561,,,2017_Mar_06_1936,59.9967671624,MAFE4ImagesEEG,001,100048,
AFNE01.JPG,AFNE01.JPG,AFNE01.JPG,AFNE01.JPG,AFNE01.JPG,AFNE01.JPG,,,,,,,,,,,,,,,,,4,4,44,6,,,,,,,AMNE13.jpg,AMSA04.jpg,AMNE08.jpg,AMSA19.jpg,AMNE13.jpg,MN,1,num_8,16,num_8,0.500199820846,,,2017_Mar_06_1936,59.9967671624,MAFE4ImagesEEG,001,100048,
AFNE01.JPG,AFNE01.JPG,AFNE01.JPG,AFNE01.JPG,AFNE01.JPG,AFNE01.JPG,,,,,,,,,,,,,,,,,4,5,45,7,,,,,,,AMNE13.jpg,AMSA02.jpg,AMNE18.jpg,AMSA15.jpg,AMNE18.jpg,MN,1,num_2,16,num_2,1.55003669253,,,2017_Mar_06_1936,59.9967671624,MAFE4ImagesEEG,001,100048,
AFNE01.JPG,AFNE01.JPG,AFNE01.JPG,AFNE01.JPG,AFNE01.JPG,AFNE01.JPG,,,,,,,,,,,,,,,,,4,6,46,4,,,,,,,AMSA20.jpg,AMNE08.jpg,AMSA10.jpg,AMNE01.jpg,AMNE08.jpg,MN,1,num_6,16,num_6,0.733488635626,,,2017_Mar_06_1936,59.9967671624,MAFE4ImagesEEG,001,100048,
AFNE01.JPG,AFNE01.JPG,AFNE01.JPG,AFNE01.JPG,AFNE01.JPG,AFNE01.JPG,,,,,,,,,,,,,,,,,4,7,47,2,,,,,,,AMNE05.jpg,AMSA14.jpg,AMSA01.jpg,AMNE03.jpg,AMNE03.jpg,MN,1,num_4,32,num_8,0.933450018521,,,2017_Mar_06_1936,59.9967671624,MAFE4ImagesEEG,001,100048,
AFNE01.JPG,AFNE01.JPG,AFNE01.JPG,AFNE01.JPG,AFNE01.JPG,AFNE01.JPG,,,,,,,,,,,,,,,,,4,8,48,9,,,,,,,AMNE02.jpg,AMNE05.jpg,AMSA05.jpg,AMSA11.jpg,AMNE05.jpg,MN,1,num_6,32,num_2,0.900107832626,,,2017_Mar_06_1936,59.9967671624,MAFE4ImagesEEG,001,100048,
AFNE01.JPG,AFNE01.JPG,AFNE01.JPG,AFNE01.JPG,AFNE01.JPG,AFNE01.JPG,,,,,,,,,,,,,,,,,4,9,49,1,,,,,,,AMNE05.jpg,AMNE11.jpg,AMSA17.jpg,AMSA19.jpg,AMNE11.jpg,MN,1,num_6,32,num_8,0.533470160794,,,2017_Mar_06_1936,59.9967671624,MAFE4ImagesEEG,001,100048,
AFNE01.JPG,AFNE01.JPG,AFNE01.JPG,AFNE01.JPG,AFNE01.JPG,AFNE01.JPG,,,,,,,,,,,,,,,,,5,0,50,1,,,,,,,AMNE05.jpg,AMSA01.jpg,AMSA04.jpg,AMNE18.jpg,AMSA04.jpg,MS,2,num_2,32,num_6,0.750096542761,,,2017_Mar_06_1936,59.9967671624,MAFE4ImagesEEG,001,100048,
AFNE01.JPG,AFNE01.JPG,AFNE01.JPG,AFNE01.JPG,AFNE01.JPG,AFNE01.JPG,,,,,,,,,,,,,,,,,5,1,51,2,,,,,,,AMSA18.jpg,AMSA12.jpg,AMNE08.jpg,AMNE02.jpg,AMNE08.jpg,MN,1,num_2,32,num_4,0.850269998889,,,2017_Mar_06_1936,59.9967671624,MAFE4ImagesEEG,001,100048,
AFNE01.JPG,AFNE01.JPG,AFNE01.JPG,AFNE01.JPG,AFNE01.JPG,AFNE01.JPG,,,,,,,,,,,,,,,,,5,2,52,8,,,,,,,AMSA01.jpg,AMNE11.jpg,AMSA11.jpg,AMNE04.jpg,AMNE04.jpg,MN,1,num_4,16,num_4,0.816783479881,,,2017_Mar_06_1936,59.9967671624,MAFE4ImagesEEG,001,100048,
AFNE01.JPG,AFNE01.JPG,AFNE01.JPG,AFNE01.JPG,AFNE01.JPG,AFNE01.JPG,,,,,,,,,,,,,,,,,5,3,53,9,,,,,,,AMSA01.jpg,AMNE11.jpg,AMNE17.jpg,AMSA20.jpg,AMNE17.jpg,MN,1,num_2,16,num_2,0.616841020994,,,2017_Mar_06_1936,59.9967671624,MAFE4ImagesEEG,001,100048,
AFNE01.JPG,AFNE01.JPG,AFNE01.JPG,AFNE01.JPG,AFNE01.JPG,AFNE01.JPG,,,,,,,,,,,,,,,,,5,4,54,5,,,,,,,AMSA11.jpg,AMNE08.jpg,AMNE19.jpg,AMSA09.jpg,AMNE19.jpg,MN,1,num_2,16,num_2,1.53339574905,,,2017_Mar_06_1936,59.9967671624,MAFE4ImagesEEG,001,100048,
AFNE01.JPG,AFNE01.JPG,AFNE01.JPG,AFNE01.JPG,AFNE01.JPG,AFNE01.JPG,,,,,,,,,,,,,,,,,5,5,55,4,,,,,,,AMNE19.jpg,AMNE15.jpg,AMSA14.jpg,AMSA12.jpg,AMSA12.jpg,MS,2,num_4,16,num_4,0.983483182732,,,2017_Mar_06_1936,59.9967671624,MAFE4ImagesEEG,001,100048,
AFNE01.JPG,AFNE01.JPG,AFNE01.JPG,AFNE01.JPG,AFNE01.JPG,AFNE01.JPG,,,,,,,,,,,,,,,,,5,6,56,7,,,,,,,AMSA10.jpg,AMNE18.jpg,AMSA09.jpg,AMNE11.jpg,AMSA10.jpg,MS,2,num_8,32,num_4,0.61692441348,,,2017_Mar_06_1936,59.9967671624,MAFE4ImagesEEG,001,100048,
AFNE01.JPG,AFNE01.JPG,AFNE01.JPG,AFNE01.JPG,AFNE01.JPG,AFNE01.JPG,,,,,,,,,,,,,,,,,5,7,57,3,,,,,,,AMNE16.jpg,AMSA16.jpg,AMSA05.jpg,AMNE15.jpg,AMNE15.jpg,MN,1,num_4,16,num_4,0.700082943309,,,2017_Mar_06_1936,59.9967671624,MAFE4ImagesEEG,001,100048,
AFNE01.JPG,AFNE01.JPG,AFNE01.JPG,AFNE01.JPG,AFNE01.JPG,AFNE01.JPG,,,,,,,,,,,,,,,,,5,8,58,0,,,,,,,AMNE06.jpg,AMSA14.jpg,AMNE12.jpg,AMSA15.jpg,AMNE06.jpg,MN,1,num_8,16,num_8,0.933509355411,,,2017_Mar_06_1936,59.9967671624,MAFE4ImagesEEG,001,100048,
AFNE01.JPG,AFNE01.JPG,AFNE01.JPG,AFNE01.JPG,AFNE01.JPG,AFNE01.JPG,,,,,,,,,,,,,,,,,5,9,59,6,,,,,,,AMNE19.jpg,AMNE15.jpg,AMSA15.jpg,AMSA03.jpg,AMSA03.jpg,MS,2,num_4,16,num_4,0.666798811872,,,2017_Mar_06_1936,59.9967671624,MAFE4ImagesEEG,001,100048,
,,,,,,,,,,,,,,,,,,,,,,,,,,,,,,,,,,,,,,,,,,,space,12.3822509646,2017_Mar_06_1936,59.9967671624,MAFE4ImagesEEG,001,100048,
AFNE01.JPG,AFNE01.JPG,AFNE01.JPG,AFNE01.JPG,AFNE01.JPG,AFNE01.JPG,,,,,,,,,,,,,,,,,,,,,0,0,0,7,,,AFSA12.jpg,AFNE16.jpg,AFNE19.jpg,AFSA16.jpg,AFSA12.jpg,FS,4,num_8,32,num_4,1.03349261265,,,2017_Mar_06_1936,59.9967671624,MAFE4ImagesEEG,001,100048,
AFNE01.JPG,AFNE01.JPG,AFNE01.JPG,AFNE01.JPG,AFNE01.JPG,AFNE01.JPG,,,,,,,,,,,,,,,,,,,,,0,1,1,0,,,AFNE18.jpg,AFSA01.jpg,AFNE04.jpg,AFSA04.jpg,AFNE18.jpg,FN,3,num_8,16,num_8,0.600110270083,,,2017_Mar_06_1936,59.9967671624,MAFE4ImagesEEG,001,100048,
AFNE01.JPG,AFNE01.JPG,AFNE01.JPG,AFNE01.JPG,AFNE01.JPG,AFNE01.JPG,,,,,,,,,,,,,,,,,,,,,0,2,2,5,,,AFSA10.jpg,AFNE19.jpg,AFNE09.jpg,AFSA03.jpg,AFSA10.jpg,FS,4,num_8,32,num_4,0.98343218537,,,2017_Mar_06_1936,59.9967671624,MAFE4ImagesEEG,001,100048,
AFNE01.JPG,AFNE01.JPG,AFNE01.JPG,AFNE01.JPG,AFNE01.JPG,AFNE01.JPG,,,,,,,,,,,,,,,,,,,,,0,3,3,4,,,AFNE13.jpg,AFSA09.jpg,AFNE14.jpg,AFSA13.jpg,AFSA13.jpg,FS,4,num_4,16,num_4,0.566818440799,,,2017_Mar_06_1936,59.9967671624,MAFE4ImagesEEG,001,100048,
AFNE01.JPG,AFNE01.JPG,AFNE01.JPG,AFNE01.JPG,AFNE01.JPG,AFNE01.JPG,,,,,,,,,,,,,,,,,,,,,0,4,4,9,,,AFSA09.jpg,AFSA19.jpg,AFNE14.jpg,AFNE03.jpg,AFSA19.jpg,FS,4,num_6,16,num_6,1.76669707242,,,2017_Mar_06_1936,59.9967671624,MAFE4ImagesEEG,001,100048,
AFNE01.JPG,AFNE01.JPG,AFNE01.JPG,AFNE01.JPG,AFNE01.JPG,AFNE01.JPG,,,,,,,,,,,,,,,,,,,,,0,5,5,8,,,AFSA09.jpg,AFNE16.jpg,AFSA17.jpg,AFNE13.jpg,AFSA17.jpg,FS,4,num_2,32,num_8,0.733480937779,,,2017_Mar_06_1936,59.9967671624,MAFE4ImagesEEG,001,100048,
AFNE01.JPG,AFNE01.JPG,AFNE01.JPG,AFNE01.JPG,AFNE01.JPG,AFNE01.JPG,,,,,,,,,,,,,,,,,,,,,0,6,6,2,,,AFNE09.jpg,AFNE06.jpg,AFSA19.jpg,AFSA10.jpg,AFNE06.jpg,FN,3,num_6,16,num_6,0.633360083215,,,2017_Mar_06_1936,59.9967671624,MAFE4ImagesEEG,001,100048,
AFNE01.JPG,AFNE01.JPG,AFNE01.JPG,AFNE01.JPG,AFNE01.JPG,AFNE01.JPG,,,,,,,,,,,,,,,,,,,,,0,7,7,1,,,AFSA12.jpg,AFNE18.jpg,AFSA03.jpg,AFNE14.jpg,AFSA12.jpg,FS,4,num_8,16,num_8,0.883503774181,,,2017_Mar_06_1936,59.9967671624,MAFE4ImagesEEG,001,100048,
AFNE01.JPG,AFNE01.JPG,AFNE01.JPG,AFNE01.JPG,AFNE01.JPG,AFNE01.JPG,,,,,,,,,,,,,,,,,,,,,0,8,8,6,,,AFNE07.jpg,AFSA02.jpg,AFSA13.jpg,AFNE11.jpg,AFNE11.jpg,FN,3,num_4,16,num_4,0.783446746878,,,2017_Mar_06_1936,59.9967671624,MAFE4ImagesEEG,001,100048,
AFNE01.JPG,AFNE01.JPG,AFNE01.JPG,AFNE01.JPG,AFNE01.JPG,AFNE01.JPG,,,,,,,,,,,,,,,,,,,,,0,9,9,3,,,AFNE10.jpg,AFSA09.jpg,AFNE02.jpg,AFSA12.jpg,AFSA09.jpg,FS,4,num_6,32,num_4,0.650115851313,,,2017_Mar_06_1936,59.9967671624,MAFE4ImagesEEG,001,100048,
AFNE01.JPG,AFNE01.JPG,AFNE01.JPG,AFNE01.JPG,AFNE01.JPG,AFNE01.JPG,,,,,,,,,,,,,,,,,,,,,1,0,10,1,,,AFSA20.jpg,AFNE14.jpg,AFSA13.jpg,AFNE18.jpg,AFSA20.jpg,FS,4,num_8,16,num_8,1.35013240157,,,2017_Mar_06_1936,59.9967671624,MAFE4ImagesEEG,001,100048,
AFNE01.JPG,AFNE01.JPG,AFNE01.JPG,AFNE01.JPG,AFNE01.JPG,AFNE01.JPG,,,,,,,,,,,,,,,,,,,,,1,1,11,7,,,AFNE07.jpg,AFNE01.jpg,AFSA15.jpg,AFSA17.jpg,AFNE01.jpg,FN,3,num_6,32,num_8,0.600155494642,,,2017_Mar_06_1936,59.9967671624,MAFE4ImagesEEG,001,100048,
AFNE01.JPG,AFNE01.JPG,AFNE01.JPG,AFNE01.JPG,AFNE01.JPG,AFNE01.JPG,,,,,,,,,,,,,,,,,,,,,1,2,12,2,,,AFNE03.jpg,AFSA19.jpg,AFNE18.jpg,AFSA12.jpg,AFNE18.jpg,FN,3,num_2,16,num_2,0.516811576672,,,2017_Mar_06_1936,59.9967671624,MAFE4ImagesEEG,001,100048,
AFNE01.JPG,AFNE01.JPG,AFNE01.JPG,AFNE01.JPG,AFNE01.JPG,AFNE01.JPG,,,,,,,,,,,,,,,,,,,,,1,3,13,4,,,AFSA20.jpg,AFNE19.jpg,AFNE20.jpg,AFSA02.jpg,AFSA02.jpg,FS,4,num_4,16,num_4,1.2503428706,,,2017_Mar_06_1936,59.9967671624,MAFE4ImagesEEG,001,100048,
AFNE01.JPG,AFNE01.JPG,AFNE01.JPG,AFNE01.JPG,AFNE01.JPG,AFNE01.JPG,,,,,,,,,,,,,,,,,,,,,1,4,14,6,,,AFNE12.jpg,AFSA12.jpg,AFNE15.jpg,AFSA02.jpg,AFSA02.jpg,FS,4,num_4,16,num_4,0.633486775216,,,2017_Mar_06_1936,59.9967671624,MAFE4ImagesEEG,001,100048,
AFNE01.JPG,AFNE01.JPG,AFNE01.JPG,AFNE01.JPG,AFNE01.JPG,AFNE01.JPG,,,,,,,,,,,,,,,,,,,,,1,5,15,9,,,AFNE20.jpg,AFSA02.jpg,AFNE09.jpg,AFSA13.jpg,AFNE20.jpg,FN,3,num_8,16,num_8,0.533560930286,,,2017_Mar_06_1936,59.9967671624,MAFE4ImagesEEG,001,100048,
AFNE01.JPG,AFNE01.JPG,AFNE01.JPG,AFNE01.JPG,AFNE01.JPG,AFNE01.JPG,,,,,,,,,,,,,,,,,,,,,1,6,16,5,,,AFNE12.jpg,AFSA12.jpg,AFNE11.jpg,AFSA06.jpg,AFSA06.jpg,FS,4,num_4,16,num_4,0.683492676821,,,2017_Mar_06_1936,59.9967671624,MAFE4ImagesEEG,001,100048,
AFNE01.JPG,AFNE01.JPG,AFNE01.JPG,AFNE01.JPG,AFNE01.JPG,AFNE01.JPG,,,,,,,,,,,,,,,,,,,,,1,7,17,8,,,AFNE09.jpg,AFNE06.jpg,AFSA14.jpg,AFSA18.jpg,AFNE06.jpg,FN,3,num_6,16,num_6,0.51678976696,,,2017_Mar_06_1936,59.9967671624,MAFE4ImagesEEG,001,100048,
AFNE01.JPG,AFNE01.JPG,AFNE01.JPG,AFNE01.JPG,AFNE01.JPG,AFNE01.JPG,,,,,,,,,,,,,,,,,,,,,1,8,18,0,,,AFNE01.jpg,AFNE09.jpg,AFSA18.jpg,AFSA10.jpg,AFSA10.jpg,FS,4,num_4,16,num_4,0.866763722152,,,2017_Mar_06_1936,59.9967671624,MAFE4ImagesEEG,001,100048,
AFNE01.JPG,AFNE01.JPG,AFNE01.JPG,AFNE01.JPG,AFNE01.JPG,AFNE01.JPG,,,,,,,,,,,,,,,,,,,,,1,9,19,3,,,AFNE17.jpg,AFSA08.jpg,AFNE05.jpg,AFSA13.jpg,AFSA13.jpg,FS,4,num_4,16,num_4,0.533445463981,,,2017_Mar_06_1936,59.9967671624,MAFE4ImagesEEG,001,100048,
AFNE01.JPG,AFNE01.JPG,AFNE01.JPG,AFNE01.JPG,AFNE01.JPG,AFNE01.JPG,,,,,,,,,,,,,,,,,,,,,2,0,20,9,,,AFNE01.jpg,AFSA17.jpg,AFSA05.jpg,AFNE08.jpg,AFSA17.jpg,FS,4,num_6,16,num_6,0.666744926944,,,2017_Mar_06_1936,59.9967671624,MAFE4ImagesEEG,001,100048,
AFNE01.JPG,AFNE01.JPG,AFNE01.JPG,AFNE01.JPG,AFNE01.JPG,AFNE01.JPG,,,,,,,,,,,,,,,,,,,,,2,1,21,1,,,AFNE02.jpg,AFSA14.jpg,AFNE16.jpg,AFSA12.jpg,AFSA14.jpg,FS,4,num_6,16,num_6,0.55017493153,,,2017_Mar_06_1936,59.9967671624,MAFE4ImagesEEG,001,100048,
AFNE01.JPG,AFNE01.JPG,AFNE01.JPG,AFNE01.JPG,AFNE01.JPG,AFNE01.JPG,,,,,,,,,,,,,,,,,,,,,2,2,22,6,,,AFNE16.jpg,AFNE20.jpg,AFSA01.jpg,AFSA19.jpg,AFNE20.jpg,FN,3,num_6,32,num_8,0.650173263624,,,2017_Mar_06_1936,59.9967671624,MAFE4ImagesEEG,001,100048,
AFNE01.JPG,AFNE01.JPG,AFNE01.JPG,AFNE01.JPG,AFNE01.JPG,AFNE01.JPG,,,,,,,,,,,,,,,,,,,,,2,3,23,5,,,AFNE17.jpg,AFSA07.jpg,AFSA18.jpg,AFNE14.jpg,AFNE17.jpg,FN,3,num_8,16,num_8,0.516819595359,,,2017_Mar_06_1936,59.9967671624,MAFE4ImagesEEG,001,100048,
AFNE01.JPG,AFNE01.JPG,AFNE01.JPG,AFNE01.JPG,AFNE01.JPG,AFNE01.JPG,,,,,,,,,,,,,,,,,,,,,2,4,24,3,,,AFNE02.jpg,AFSA16.jpg,AFNE08.jpg,AFSA06.jpg,AFNE02.jpg,FN,3,num_8,16,num_8,0.583531230222,,,2017_Mar_06_1936,59.9967671624,MAFE4ImagesEEG,001,100048,
AFNE01.JPG,AFNE01.JPG,AFNE01.JPG,AFNE01.JPG,AFNE01.JPG,AFNE01.JPG,,,,,,,,,,,,,,,,,,,,,2,5,25,2,,,AFNE06.jpg,AFSA18.jpg,AFSA08.jpg,AFNE04.jpg,AFSA08.jpg,FS,4,num_2,32,num_8,0.566771933343,,,2017_Mar_06_1936,59.9967671624,MAFE4ImagesEEG,001,100048,
AFNE01.JPG,AFNE01.JPG,AFNE01.JPG,AFNE01.JPG,AFNE01.JPG,AFNE01.JPG,,,,,,,,,,,,,,,,,,,,,2,6,26,8,,,AFNE01.jpg,AFNE04.jpg,AFSA20.jpg,AFSA11.jpg,AFSA20.jpg,FS,4,num_2,32,num_8,0.766742938664,,,2017_Mar_06_1936,59.9967671624,MAFE4ImagesEEG,001,100048,
AFNE01.JPG,AFNE01.JPG,AFNE01.JPG,AFNE01.JPG,AFNE01.JPG,AFNE01.JPG,,,,,,,,,,,,,,,,,,,,,2,7,27,7,,,AFNE16.jpg,AFSA07.jpg,AFNE05.jpg,AFSA02.jpg,AFSA07.jpg,FS,4,num_6,32,num_4,0.666774114594,,,2017_Mar_06_1936,59.9967671624,MAFE4ImagesEEG,001,100048,
AFNE01.JPG,AFNE01.JPG,AFNE01.JPG,AFNE01.JPG,AFNE01.JPG,AFNE01.JPG,,,,,,,,,,,,,,,,,,,,,2,8,28,4,,,AFNE13.jpg,AFNE05.jpg,AFSA10.jpg,AFSA07.jpg,AFNE13.jpg,FN,3,num_8,16,num_8,0.583530267701,,,2017_Mar_06_1936,59.9967671624,MAFE4ImagesEEG,001,100048,
AFNE01.JPG,AFNE01.JPG,AFNE01.JPG,AFNE01.JPG,AFNE01.JPG,AFNE01.JPG,,,,,,,,,,,,,,,,,,,,,2,9,29,0,,,AFNE08.jpg,AFNE04.jpg,AFSA08.jpg,AFSA19.jpg,AFNE08.jpg,FN,3,num_8,32,num_6,0.5334775378,,,2017_Mar_06_1936,59.9967671624,MAFE4ImagesEEG,001,100048,
AFNE01.JPG,AFNE01.JPG,AFNE01.JPG,AFNE01.JPG,AFNE01.JPG,AFNE01.JPG,,,,,,,,,,,,,,,,,,,,,3,0,30,4,,,AFSA13.jpg,AFNE19.jpg,AFSA11.jpg,AFNE02.jpg,AFNE19.jpg,FN,3,num_6,32,num_4,0.683502299245,,,2017_Mar_06_1936,59.9967671624,MAFE4ImagesEEG,001,100048,
AFNE01.JPG,AFNE01.JPG,AFNE01.JPG,AFNE01.JPG,AFNE01.JPG,AFNE01.JPG,,,,,,,,,,,,,,,,,,,,,3,1,31,1,,,AFSA18.jpg,AFNE01.jpg,AFNE06.jpg,AFSA11.jpg,AFNE06.jpg,FN,3,num_2,16,num_2,0.46678803442,,,2017_Mar_06_1936,59.9967671624,MAFE4ImagesEEG,001,100048,
AFNE01.JPG,AFNE01.JPG,AFNE01.JPG,AFNE01.JPG,AFNE01.JPG,AFNE01.JPG,,,,,,,,,,,,,,,,,,,,,3,2,32,5,,,AFNE06.jpg,AFSA14.jpg,AFSA06.jpg,AFNE20.jpg,AFNE06.jpg,FN,3,num_8,16,num_8,0.383502170909,,,2017_Mar_06_1936,59.9967671624,MAFE4ImagesEEG,001,100048,
AFNE01.JPG,AFNE01.JPG,AFNE01.JPG,AFNE01.JPG,AFNE01.JPG,AFNE01.JPG,,,,,,,,,,,,,,,,,,,,,3,3,33,8,,,AFSA04.jpg,AFSA03.jpg,AFNE14.jpg,AFNE15.jpg,AFNE15.jpg,FN,3,num_4,16,num_4,0.366824342404,,,2017_Mar_06_1936,59.9967671624,MAFE4ImagesEEG,001,100048,
AFNE01.JPG,AFNE01.JPG,AFNE01.JPG,AFNE01.JPG,AFNE01.JPG,AFNE01.JPG,,,,,,,,,,,,,,,,,,,,,3,4,34,2,,,AFSA07.jpg,AFSA15.jpg,AFNE08.jpg,AFNE02.jpg,AFSA15.jpg,FS,4,num_6,16,num_6,0.850152928848,,,2017_Mar_06_1936,59.9967671624,MAFE4ImagesEEG,001,100048,
AFNE01.JPG,AFNE01.JPG,AFNE01.JPG,AFNE01.JPG,AFNE01.JPG,AFNE01.JPG,,,,,,,,,,,,,,,,,,,,,3,5,35,0,,,AFSA16.jpg,AFSA03.jpg,AFNE07.jpg,AFNE11.jpg,AFSA03.jpg,FS,4,num_6,16,num_6,0.583446875215,,,2017_Mar_06_1936,59.9967671624,MAFE4ImagesEEG,001,100048,
AFNE01.JPG,AFNE01.JPG,AFNE01.JPG,AFNE01.JPG,AFNE01.JPG,AFNE01.JPG,,,,,,,,,,,,,,,,,,,,,3,6,36,3,,,AFSA05.jpg,AFSA09.jpg,AFNE07.jpg,AFNE18.jpg,AFNE07.jpg,FN,3,num_2,16,num_2,0.633457587566,,,2017_Mar_06_1936,59.9967671624,MAFE4ImagesEEG,001,100048,
AFNE01.JPG,AFNE01.JPG,AFNE01.JPG,AFNE01.JPG,AFNE01.JPG,AFNE01.JPG,,,,,,,,,,,,,,,,,,,,,3,7,37,7,,,AFSA15.jpg,AFNE13.jpg,AFNE19.jpg,AFSA20.jpg,AFNE19.jpg,FN,3,num_2,32,num_4,0.650140227284,,,2017_Mar_06_1936,59.9967671624,MAFE4ImagesEEG,001,100048,
AFNE01.JPG,AFNE01.JPG,AFNE01.JPG,AFNE01.JPG,AFNE01.JPG,AFNE01.JPG,,,,,,,,,,,,,,,,,,,,,3,8,38,6,,,AFSA16.jpg,AFNE06.jpg,AFSA05.jpg,AFNE04.jpg,AFSA16.jpg,FS,4,num_8,32,num_2,0.783457651734,,,2017_Mar_06_1936,59.9967671624,MAFE4ImagesEEG,001,100048,
