IPosition2,IPosition3,IPosition1,IPosition6,IPosition4,IPosition5,TrialsF1.thisRepN,TrialsF1.thisTrialN,TrialsF1.thisN,TrialsF1.thisIndex,TrialsM1.thisRepN,TrialsM1.thisTrialN,TrialsM1.thisN,TrialsM1.thisIndex,TrialsF2.thisRepN,TrialsF2.thisTrialN,TrialsF2.thisN,TrialsF2.thisIndex,TrialsM2.thisRepN,TrialsM2.thisTrialN,TrialsM2.thisN,TrialsM2.thisIndex,TrialsF3.thisRepN,TrialsF3.thisTrialN,TrialsF3.thisN,TrialsF3.thisIndex,TrialsM3.thisRepN,TrialsM3.thisTrialN,TrialsM3.thisN,TrialsM3.thisIndex,InstrKey_resp.keys,InstrKey_resp.rt,Image0 _Position,Image1 _Position,Image2 _Position,Image3 _Position,Center_image,condition,code,correct_answer,accuracy,Key_Resp.keys,Key_Resp.rt,BreakKey_resp.keys,BreakKey_resp.rt,date,frameRate,expName,session,participant,
,,,,,,,,,,,,,,,,,,,,,,,,,,,,,,space,27.9817633644,,,,,,,,,,,,,,2017_Mar_10_1241,60.0072367673,FEMA4ImagesEEG,001,100032,
AMNE23.JPG,AMNE24.JPG,AMNE22.JPG,AMSA24.JPG,AMSA22.JPG,AMSA23.JPG,0,0,0,9,,,,,,,,,,,,,,,,,,,,,,,AFSA13.jpg,AFNE05.jpg,AFSA11.jpg,AFNE10.jpg,AFSA13.jpg,FS,4,num_8,16,num_8,2.03346569204,,,2017_Mar_10_1241,60.0072367673,FEMA4ImagesEEG,001,100032,
AMSA21.JPG,AMNE22.JPG,AMNE21.JPG,AMSA23.JPG,AMSA22.JPG,AMNE23.JPG,0,1,1,1,,,,,,,,,,,,,,,,,,,,,,,AFNE13.jpg,AFSA15.jpg,AFNE03.jpg,AFSA12.jpg,AFNE03.jpg,FN,3,num_2,16,num_2,2.7666356618,,,2017_Mar_10_1241,60.0072367673,FEMA4ImagesEEG,001,100032,
AFSA21.JPG,AFNE22.JPG,AFNE21.JPG,AFSA23.JPG,AFSA22.JPG,AFNE23.JPG,0,2,2,0,,,,,,,,,,,,,,,,,,,,,,,AFNE11.jpg,AFSA04.jpg,AFSA19.jpg,AFNE18.jpg,AFSA19.jpg,FS,4,num_2,32,num_8,2.44998412337,,,2017_Mar_10_1241,60.0072367673,FEMA4ImagesEEG,001,100032,
AFSA25.JPG,AFNE24.JPG,AFSA24.JPG,AFNE21.JPG,AFSA21.JPG,AFNE25.JPG,0,3,3,2,,,,,,,,,,,,,,,,,,,,,,,AFNE15.jpg,AFSA01.jpg,AFNE06.jpg,AFSA08.jpg,AFNE15.jpg,FN,3,num_8,32,num_6,3.34981188598,,,2017_Mar_10_1241,60.0072367673,FEMA4ImagesEEG,001,100032,
AFNE23.JPG,AFNE24.JPG,AFNE22.JPG,AFSA24.JPG,AFSA22.JPG,AFSA23.JPG,0,4,4,8,,,,,,,,,,,,,,,,,,,,,,,AFSA05.jpg,AFNE04.jpg,AFNE16.jpg,AFSA04.jpg,AFNE04.jpg,FN,3,num_6,32,num_2,1.65005019581,,,2017_Mar_10_1241,60.0072367673,FEMA4ImagesEEG,001,100032,
AFSA21.JPG,AFNE23.JPG,AFNE21.JPG,AFSA25.JPG,AFNE25.JPG,AFSA23.JPG,0,5,5,4,,,,,,,,,,,,,,,,,,,,,,,AFNE13.jpg,AFNE07.jpg,AFSA14.jpg,AFSA10.jpg,AFSA14.jpg,FS,4,num_2,32,num_8,1.716970354,,,2017_Mar_10_1241,60.0072367673,FEMA4ImagesEEG,001,100032,
AMSA21.JPG,AMNE23.JPG,AMNE21.JPG,AMSA25.JPG,AMNE25.JPG,AMSA23.JPG,0,6,6,5,,,,,,,,,,,,,,,,,,,,,,,AFSA15.jpg,AFSA04.jpg,AFNE15.jpg,AFNE08.jpg,AFNE08.jpg,FN,3,num_4,16,num_4,1.9666597173,,,2017_Mar_10_1241,60.0072367673,FEMA4ImagesEEG,001,100032,
AMNE22.JPG,AMSA24.JPG,AMSA22.JPG,AMNE25.JPG,AMNE24.JPG,AMSA25.JPG,0,7,7,7,,,,,,,,,,,,,,,,,,,,,,,AFSA04.jpg,AFSA05.jpg,AFNE15.jpg,AFNE07.jpg,AFNE07.jpg,FN,3,num_4,16,num_4,2.78334268825,,,2017_Mar_10_1241,60.0072367673,FEMA4ImagesEEG,001,100032,
AFNE22.JPG,AFSA24.JPG,AFSA22.JPG,AFNE25.JPG,AFNE24.JPG,AFSA25.JPG,0,8,8,6,,,,,,,,,,,,,,,,,,,,,,,AFNE10.jpg,AFSA13.jpg,AFNE05.jpg,AFSA03.jpg,AFNE05.jpg,FN,3,num_2,32,num_8,2.11666917913,,,2017_Mar_10_1241,60.0072367673,FEMA4ImagesEEG,001,100032,
AMSA25.JPG,AMNE24.JPG,AMSA24.JPG,AMNE26.JPG,AMSA21.JPG,AMNE25.JPG,0,9,9,3,,,,,,,,,,,,,,,,,,,,,,,AFSA08.jpg,AFNE13.jpg,AFNE11.jpg,AFSA04.jpg,AFSA04.jpg,FS,4,num_4,16,num_4,2.05005981801,,,2017_Mar_10_1241,60.0072367673,FEMA4ImagesEEG,001,100032,
AFSA21.JPG,AFNE23.JPG,AFNE21.JPG,AFSA25.JPG,AFNE25.JPG,AFSA23.JPG,,,,,0,0,0,4,,,,,,,,,,,,,,,,,,,AMSA20.jpg,AMSA09.jpg,AMNE06.jpg,AMNE10.jpg,AMSA20.jpg,MS,2,num_8,16,num_8,1.38340234589,,,2017_Mar_10_1241,60.0072367673,FEMA4ImagesEEG,001,100032,
AMSA21.JPG,AMNE23.JPG,AMNE21.JPG,AMSA25.JPG,AMNE25.JPG,AMSA23.JPG,,,,,0,1,1,5,,,,,,,,,,,,,,,,,,,AMNE09.jpg,AMSA07.jpg,AMSA08.jpg,AMNE10.jpg,AMSA07.jpg,MS,2,num_6,32,num_8,1.11685103872,,,2017_Mar_10_1241,60.0072367673,FEMA4ImagesEEG,001,100032,
AMNE22.JPG,AMSA24.JPG,AMSA22.JPG,AMNE25.JPG,AMNE24.JPG,AMSA25.JPG,,,,,0,2,2,7,,,,,,,,,,,,,,,,,,,AMSA19.jpg,AMNE11.jpg,AMNE17.jpg,AMSA15.jpg,AMNE11.jpg,MN,1,num_6,32,num_2,1.61669580055,,,2017_Mar_10_1241,60.0072367673,FEMA4ImagesEEG,001,100032,
AFNE22.JPG,AFSA24.JPG,AFSA22.JPG,AFNE25.JPG,AFNE24.JPG,AFSA25.JPG,,,,,0,3,3,6,,,,,,,,,,,,,,,,,,,AMSA11.jpg,AMNE05.jpg,AMNE17.jpg,AMSA09.jpg,AMNE17.jpg,MN,1,num_2,32,num_8,1.53345927724,,,2017_Mar_10_1241,60.0072367673,FEMA4ImagesEEG,001,100032,
AFSA21.JPG,AFNE22.JPG,AFNE21.JPG,AFSA23.JPG,AFSA22.JPG,AFNE23.JPG,,,,,0,4,4,0,,,,,,,,,,,,,,,,,,,AMSA09.jpg,AMNE12.jpg,AMSA17.jpg,AMNE08.jpg,AMNE12.jpg,MN,1,num_6,32,num_8,1.80002854586,,,2017_Mar_10_1241,60.0072367673,FEMA4ImagesEEG,001,100032,
AFSA25.JPG,AFNE24.JPG,AFSA24.JPG,AFNE21.JPG,AFSA21.JPG,AFNE25.JPG,,,,,0,5,5,2,,,,,,,,,,,,,,,,,,,AMSA19.jpg,AMNE20.jpg,AMNE04.jpg,AMSA20.jpg,AMNE04.jpg,MN,1,num_2,32,num_6,4.83316130977,,,2017_Mar_10_1241,60.0072367673,FEMA4ImagesEEG,001,100032,
AFNE23.JPG,AFNE24.JPG,AFNE22.JPG,AFSA24.JPG,AFSA22.JPG,AFSA23.JPG,,,,,0,6,6,8,,,,,,,,,,,,,,,,,,,AMNE18.jpg,AMNE12.jpg,AMSA12.jpg,AMSA08.jpg,AMNE12.jpg,MN,1,num_6,32,num_2,1.91673108195,,,2017_Mar_10_1241,60.0072367673,FEMA4ImagesEEG,001,100032,
AMNE23.JPG,AMNE24.JPG,AMNE22.JPG,AMSA24.JPG,AMSA22.JPG,AMSA23.JPG,,,,,0,7,7,9,,,,,,,,,,,,,,,,,,,AMSA14.jpg,AMNE12.jpg,AMSA06.jpg,AMNE14.jpg,AMNE14.jpg,MN,1,num_4,16,num_4,2.43330307686,,,2017_Mar_10_1241,60.0072367673,FEMA4ImagesEEG,001,100032,
AMSA25.JPG,AMNE24.JPG,AMSA24.JPG,AMNE26.JPG,AMSA21.JPG,AMNE25.JPG,,,,,0,8,8,3,,,,,,,,,,,,,,,,,,,AMNE14.jpg,AMSA13.jpg,AMNE11.jpg,AMSA17.jpg,AMNE11.jpg,MN,1,num_2,32,num_8,3.23332520792,,,2017_Mar_10_1241,60.0072367673,FEMA4ImagesEEG,001,100032,
AMSA21.JPG,AMNE22.JPG,AMNE21.JPG,AMSA23.JPG,AMSA22.JPG,AMNE23.JPG,,,,,0,9,9,1,,,,,,,,,,,,,,,,,,,AMSA02.jpg,AMNE19.jpg,AMNE08.jpg,AMSA20.jpg,AMNE19.jpg,MN,1,num_6,32,num_2,2.49997081266,,,2017_Mar_10_1241,60.0072367673,FEMA4ImagesEEG,001,100032,
AMNE23.JPG,AMNE24.JPG,AMNE22.JPG,AMSA24.JPG,AMSA22.JPG,AMSA23.JPG,,,,,,,,,0,0,0,9,,,,,,,,,,,,,,,AFNE10.jpg,AFSA08.jpg,AFSA17.jpg,AFNE20.jpg,AFNE10.jpg,FN,3,num_8,16,num_8,1.04997738783,,,2017_Mar_10_1241,60.0072367673,FEMA4ImagesEEG,001,100032,
AMSA25.JPG,AMNE24.JPG,AMSA24.JPG,AMNE26.JPG,AMSA21.JPG,AMNE25.JPG,,,,,,,,,0,1,1,3,,,,,,,,,,,,,,,AFSA13.jpg,AFNE18.jpg,AFNE16.jpg,AFSA20.jpg,AFNE18.jpg,FN,3,num_6,32,num_2,2.18332472681,,,2017_Mar_10_1241,60.0072367673,FEMA4ImagesEEG,001,100032,
AMNE22.JPG,AMSA24.JPG,AMSA22.JPG,AMNE25.JPG,AMNE24.JPG,AMSA25.JPG,,,,,,,,,0,2,2,7,,,,,,,,,,,,,,,AFSA15.jpg,AFNE20.jpg,AFSA04.jpg,AFNE16.jpg,AFNE16.jpg,FN,3,num_4,16,num_4,1.36675305264,,,2017_Mar_10_1241,60.0072367673,FEMA4ImagesEEG,001,100032,
AFNE23.JPG,AFNE24.JPG,AFNE22.JPG,AFSA24.JPG,AFSA22.JPG,AFSA23.JPG,,,,,,,,,0,3,3,8,,,,,,,,,,,,,,,AFSA16.jpg,AFNE14.jpg,AFSA03.jpg,AFNE06.jpg,AFSA03.jpg,FS,4,num_2,16,num_2,0.683506265656,,,2017_Mar_10_1241,60.0072367673,FEMA4ImagesEEG,001,100032,
AFSA21.JPG,AFNE22.JPG,AFNE21.JPG,AFSA23.JPG,AFSA22.JPG,AFNE23.JPG,,,,,,,,,0,4,4,0,,,,,,,,,,,,,,,AFNE12.jpg,AFSA01.jpg,AFSA18.jpg,AFNE15.jpg,AFSA01.jpg,FS,4,num_6,16,num_6,1.33346505056,,,2017_Mar_10_1241,60.0072367673,FEMA4ImagesEEG,001,100032,
AFSA25.JPG,AFNE24.JPG,AFSA24.JPG,AFNE21.JPG,AFSA21.JPG,AFNE25.JPG,,,,,,,,,0,5,5,2,,,,,,,,,,,,,,,AFSA04.jpg,AFNE10.jpg,AFNE13.jpg,AFSA05.jpg,AFNE13.jpg,FN,3,num_2,16,num_2,1.28341357179,,,2017_Mar_10_1241,60.0072367673,FEMA4ImagesEEG,001,100032,
AMSA21.JPG,AMNE22.JPG,AMNE21.JPG,AMSA23.JPG,AMSA22.JPG,AMNE23.JPG,,,,,,,,,0,6,6,1,,,,,,,,,,,,,,,AFNE09.jpg,AFSA12.jpg,AFSA06.jpg,AFNE03.jpg,AFNE03.jpg,FN,3,num_4,32,num_8,1.55010375939,,,2017_Mar_10_1241,60.0072367673,FEMA4ImagesEEG,001,100032,
AFSA21.JPG,AFNE23.JPG,AFNE21.JPG,AFSA25.JPG,AFNE25.JPG,AFSA23.JPG,,,,,,,,,0,7,7,4,,,,,,,,,,,,,,,AFSA19.jpg,AFNE19.jpg,AFSA11.jpg,AFNE06.jpg,AFNE19.jpg,FN,3,num_6,32,num_2,1.55008291129,,,2017_Mar_10_1241,60.0072367673,FEMA4ImagesEEG,001,100032,
AFNE22.JPG,AFSA24.JPG,AFSA22.JPG,AFNE25.JPG,AFNE24.JPG,AFSA25.JPG,,,,,,,,,0,8,8,6,,,,,,,,,,,,,,,AFNE07.jpg,AFSA17.jpg,AFNE15.jpg,AFSA01.jpg,AFSA17.jpg,FS,4,num_6,16,num_6,1.78337700743,,,2017_Mar_10_1241,60.0072367673,FEMA4ImagesEEG,001,100032,
AMSA21.JPG,AMNE23.JPG,AMNE21.JPG,AMSA25.JPG,AMNE25.JPG,AMSA23.JPG,,,,,,,,,0,9,9,5,,,,,,,,,,,,,,,AFSA04.jpg,AFNE04.jpg,AFSA01.jpg,AFNE13.jpg,AFSA04.jpg,FS,4,num_8,32,num_4,0.783462965755,,,2017_Mar_10_1241,60.0072367673,FEMA4ImagesEEG,001,100032,
AMNE23.JPG,AMNE24.JPG,AMNE22.JPG,AMSA24.JPG,AMSA22.JPG,AMSA23.JPG,,,,,,,,,,,,,0,0,0,9,,,,,,,,,,,AMNE20.jpg,AMNE04.jpg,AMSA17.jpg,AMSA03.jpg,AMNE20.jpg,MN,1,num_8,32,num_2,1.93318632749,,,2017_Mar_10_1241,60.0072367673,FEMA4ImagesEEG,001,100032,
AFNE23.JPG,AFNE24.JPG,AFNE22.JPG,AFSA24.JPG,AFSA22.JPG,AFSA23.JPG,,,,,,,,,,,,,0,1,1,8,,,,,,,,,,,AMNE07.jpg,AMSA10.jpg,AMNE17.jpg,AMSA01.jpg,AMNE17.jpg,MN,1,num_2,16,num_2,0.733509312686,,,2017_Mar_10_1241,60.0072367673,FEMA4ImagesEEG,001,100032,
AFSA21.JPG,AFNE23.JPG,AFNE21.JPG,AFSA25.JPG,AFNE25.JPG,AFSA23.JPG,,,,,,,,,,,,,0,2,2,4,,,,,,,,,,,AMNE04.jpg,AMNE19.jpg,AMSA16.jpg,AMSA08.jpg,AMNE19.jpg,MN,1,num_6,16,num_6,0.266851199086,,,2017_Mar_10_1241,60.0072367673,FEMA4ImagesEEG,001,100032,
AFSA25.JPG,AFNE24.JPG,AFSA24.JPG,AFNE21.JPG,AFSA21.JPG,AFNE25.JPG,,,,,,,,,,,,,0,3,3,2,,,,,,,,,,,AMNE20.jpg,AMSA19.jpg,AMSA10.jpg,AMNE15.jpg,AMNE15.jpg,MN,1,num_4,32,num_2,1.76669692314,,,2017_Mar_10_1241,60.0072367673,FEMA4ImagesEEG,001,100032,
AFNE22.JPG,AFSA24.JPG,AFSA22.JPG,AFNE25.JPG,AFNE24.JPG,AFSA25.JPG,,,,,,,,,,,,,0,4,4,6,,,,,,,,,,,AMSA08.jpg,AMSA18.jpg,AMNE13.jpg,AMNE01.jpg,AMSA18.jpg,MS,2,num_6,16,num_6,1.55005564839,,,2017_Mar_10_1241,60.0072367673,FEMA4ImagesEEG,001,100032,
AMSA21.JPG,AMNE23.JPG,AMNE21.JPG,AMSA25.JPG,AMNE25.JPG,AMSA23.JPG,,,,,,,,,,,,,0,5,5,5,,,,,,,,,,,AMNE09.jpg,AMSA07.jpg,AMNE05.jpg,AMSA12.jpg,AMNE09.jpg,MN,1,num_8,16,num_8,1.46678897552,,,2017_Mar_10_1241,60.0072367673,FEMA4ImagesEEG,001,100032,
AMNE22.JPG,AMSA24.JPG,AMSA22.JPG,AMNE25.JPG,AMNE24.JPG,AMSA25.JPG,,,,,,,,,,,,,0,6,6,7,,,,,,,,,,,AMSA16.jpg,AMNE15.jpg,AMNE08.jpg,AMSA09.jpg,AMSA16.jpg,MS,2,num_8,32,num_2,2.93328126654,,,2017_Mar_10_1241,60.0072367673,FEMA4ImagesEEG,001,100032,
AMSA21.JPG,AMNE22.JPG,AMNE21.JPG,AMSA23.JPG,AMSA22.JPG,AMNE23.JPG,,,,,,,,,,,,,0,7,7,1,,,,,,,,,,,AMNE05.jpg,AMSA14.jpg,AMSA13.jpg,AMNE14.jpg,AMSA13.jpg,MS,2,num_2,32,num_4,0.783545075198,,,2017_Mar_10_1241,60.0072367673,FEMA4ImagesEEG,001,100032,
AFSA21.JPG,AFNE22.JPG,AFNE21.JPG,AFSA23.JPG,AFSA22.JPG,AFNE23.JPG,,,,,,,,,,,,,0,8,8,0,,,,,,,,,,,AMSA17.jpg,AMNE04.jpg,AMNE08.jpg,AMSA03.jpg,AMNE04.jpg,MN,1,num_6,32,num_2,1.46674760006,,,2017_Mar_10_1241,60.0072367673,FEMA4ImagesEEG,001,100032,
AMSA25.JPG,AMNE24.JPG,AMSA24.JPG,AMNE26.JPG,AMSA21.JPG,AMNE25.JPG,,,,,,,,,,,,,0,9,9,3,,,,,,,,,,,AMNE20.jpg,AMSA12.jpg,AMNE11.jpg,AMSA18.jpg,AMNE20.jpg,MN,1,num_8,32,num_4,0.933520538586,,,2017_Mar_10_1241,60.0072367673,FEMA4ImagesEEG,001,100032,
AMSA21.JPG,AMNE22.JPG,AMNE21.JPG,AMSA23.JPG,AMSA22.JPG,AMNE23.JPG,,,,,,,,,,,,,,,,,0,0,0,1,,,,,,,AFNE10.jpg,AFSA04.jpg,AFSA14.jpg,AFNE13.jpg,AFSA14.jpg,FS,4,num_2,32,num_4,1.05009509941,,,2017_Mar_10_1241,60.0072367673,FEMA4ImagesEEG,001,100032,
AFNE22.JPG,AFSA24.JPG,AFSA22.JPG,AFNE25.JPG,AFNE24.JPG,AFSA25.JPG,,,,,,,,,,,,,,,,,0,1,1,6,,,,,,,AFSA15.jpg,AFNE17.jpg,AFSA17.jpg,AFNE12.jpg,AFNE12.jpg,FN,3,num_4,32,num_2,1.55006430837,,,2017_Mar_10_1241,60.0072367673,FEMA4ImagesEEG,001,100032,
AMNE23.JPG,AMNE24.JPG,AMNE22.JPG,AMSA24.JPG,AMSA22.JPG,AMSA23.JPG,,,,,,,,,,,,,,,,,0,2,2,9,,,,,,,AFSA15.jpg,AFSA19.jpg,AFNE04.jpg,AFNE11.jpg,AFSA19.jpg,FS,4,num_6,32,num_8,1.38340330811,,,2017_Mar_10_1241,60.0072367673,FEMA4ImagesEEG,001,100032,
AFSA21.JPG,AFNE22.JPG,AFNE21.JPG,AFSA23.JPG,AFSA22.JPG,AFNE23.JPG,,,,,,,,,,,,,,,,,0,3,3,0,,,,,,,AFNE14.jpg,AFSA01.jpg,AFSA04.jpg,AFNE01.jpg,AFSA04.jpg,FS,4,num_2,16,num_2,1.81683436024,,,2017_Mar_10_1241,60.0072367673,FEMA4ImagesEEG,001,100032,
AMNE22.JPG,AMSA24.JPG,AMSA22.JPG,AMNE25.JPG,AMNE24.JPG,AMSA25.JPG,,,,,,,,,,,,,,,,,0,4,4,7,,,,,,,AFSA15.jpg,AFNE13.jpg,AFSA03.jpg,AFNE09.jpg,AFNE13.jpg,FN,3,num_6,32,num_8,1.01676155225,,,2017_Mar_10_1241,60.0072367673,FEMA4ImagesEEG,001,100032,
AFNE23.JPG,AFNE24.JPG,AFNE22.JPG,AFSA24.JPG,AFSA22.JPG,AFSA23.JPG,,,,,,,,,,,,,,,,,0,5,5,8,,,,,,,AFNE07.jpg,AFSA02.jpg,AFNE09.jpg,AFSA10.jpg,AFNE07.jpg,FN,3,num_8,32,num_4,3.81652452538,,,2017_Mar_10_1241,60.0072367673,FEMA4ImagesEEG,001,100032,
AFSA25.JPG,AFNE24.JPG,AFSA24.JPG,AFNE21.JPG,AFSA21.JPG,AFNE25.JPG,,,,,,,,,,,,,,,,,0,6,6,2,,,,,,,AFSA13.jpg,AFNE11.jpg,AFNE19.jpg,AFSA06.jpg,AFSA13.jpg,FS,4,num_8,16,num_8,1.65009317497,,,2017_Mar_10_1241,60.0072367673,FEMA4ImagesEEG,001,100032,
AFSA21.JPG,AFNE23.JPG,AFNE21.JPG,AFSA25.JPG,AFNE25.JPG,AFSA23.JPG,,,,,,,,,,,,,,,,,0,7,7,4,,,,,,,AFSA11.jpg,AFNE13.jpg,AFNE05.jpg,AFSA09.jpg,AFNE13.jpg,FN,3,num_6,32,num_4,1.4667158468,,,2017_Mar_10_1241,60.0072367673,FEMA4ImagesEEG,001,100032,
AMSA21.JPG,AMNE23.JPG,AMNE21.JPG,AMSA25.JPG,AMNE25.JPG,AMSA23.JPG,,,,,,,,,,,,,,,,,0,8,8,5,,,,,,,AFSA14.jpg,AFNE04.jpg,AFSA16.jpg,AFNE18.jpg,AFNE18.jpg,FN,3,num_4,32,num_2,3.18322144853,,,2017_Mar_10_1241,60.0072367673,FEMA4ImagesEEG,001,100032,
AMSA25.JPG,AMNE24.JPG,AMSA24.JPG,AMNE26.JPG,AMSA21.JPG,AMNE25.JPG,,,,,,,,,,,,,,,,,0,9,9,3,,,,,,,AFNE12.jpg,AFNE16.jpg,AFSA20.jpg,AFSA13.jpg,AFSA20.jpg,FS,4,num_2,32,num_8,1.51669387611,,,2017_Mar_10_1241,60.0072367673,FEMA4ImagesEEG,001,100032,
AFSA21.JPG,AFNE23.JPG,AFNE21.JPG,AFSA25.JPG,AFNE25.JPG,AFSA23.JPG,,,,,,,,,,,,,,,,,,,,,0,0,0,4,,,AMSA01.jpg,AMSA11.jpg,AMNE20.jpg,AMNE16.jpg,AMNE16.jpg,MN,1,num_4,16,num_4,2.55002870623,,,2017_Mar_10_1241,60.0072367673,FEMA4ImagesEEG,001,100032,
AMNE22.JPG,AMSA24.JPG,AMSA22.JPG,AMNE25.JPG,AMNE24.JPG,AMSA25.JPG,,,,,,,,,,,,,,,,,,,,,0,1,1,7,,,AMSA12.jpg,AMNE02.jpg,AMSA08.jpg,AMNE01.jpg,AMNE02.jpg,MN,1,num_6,32,num_4,1.9000705628,,,2017_Mar_10_1241,60.0072367673,FEMA4ImagesEEG,001,100032,
AMSA21.JPG,AMNE22.JPG,AMNE21.JPG,AMSA23.JPG,AMSA22.JPG,AMNE23.JPG,,,,,,,,,,,,,,,,,,,,,0,2,2,1,,,AMNE20.jpg,AMSA11.jpg,AMSA09.jpg,AMNE08.jpg,AMNE20.jpg,MN,1,num_8,16,num_8,1.23340795884,,,2017_Mar_10_1241,60.0072367673,FEMA4ImagesEEG,001,100032,
AMSA21.JPG,AMNE23.JPG,AMNE21.JPG,AMSA25.JPG,AMNE25.JPG,AMSA23.JPG,,,,,,,,,,,,,,,,,,,,,0,3,3,5,,,AMNE06.jpg,AMNE04.jpg,AMSA10.jpg,AMSA16.jpg,AMNE06.jpg,MN,1,num_8,32,num_4,0.966858896847,,,2017_Mar_10_1241,60.0072367673,FEMA4ImagesEEG,001,100032,
AFSA25.JPG,AFNE24.JPG,AFSA24.JPG,AFNE21.JPG,AFSA21.JPG,AFNE25.JPG,,,,,,,,,,,,,,,,,,,,,0,4,4,2,,,AMSA04.jpg,AMNE16.jpg,AMNE06.jpg,AMSA16.jpg,AMSA16.jpg,MS,2,num_4,32,num_8,3.06657023084,,,2017_Mar_10_1241,60.0072367673,FEMA4ImagesEEG,001,100032,
AMNE23.JPG,AMNE24.JPG,AMNE22.JPG,AMSA24.JPG,AMSA22.JPG,AMSA23.JPG,,,,,,,,,,,,,,,,,,,,,0,5,5,9,,,AMSA13.jpg,AMNE16.jpg,AMNE07.jpg,AMSA01.jpg,AMSA01.jpg,MS,2,num_4,16,num_4,0.450150266695,,,2017_Mar_10_1241,60.0072367673,FEMA4ImagesEEG,001,100032,
AMSA25.JPG,AMNE24.JPG,AMSA24.JPG,AMNE26.JPG,AMSA21.JPG,AMNE25.JPG,,,,,,,,,,,,,,,,,,,,,0,6,6,3,,,AMSA08.jpg,AMSA18.jpg,AMNE01.jpg,AMNE17.jpg,AMSA08.jpg,MS,2,num_8,16,num_8,0.716795871434,,,2017_Mar_10_1241,60.0072367673,FEMA4ImagesEEG,001,100032,
AFNE23.JPG,AFNE24.JPG,AFNE22.JPG,AFSA24.JPG,AFSA22.JPG,AFSA23.JPG,,,,,,,,,,,,,,,,,,,,,0,7,7,8,,,AMNE17.jpg,AMSA01.jpg,AMNE19.jpg,AMSA15.jpg,AMNE17.jpg,MN,1,num_8,32,num_4,0.733486540145,,,2017_Mar_10_1241,60.0072367673,FEMA4ImagesEEG,001,100032,
AFSA21.JPG,AFNE22.JPG,AFNE21.JPG,AFSA23.JPG,AFSA22.JPG,AFNE23.JPG,,,,,,,,,,,,,,,,,,,,,0,8,8,0,,,AMSA20.jpg,AMSA11.jpg,AMNE11.jpg,AMNE10.jpg,AMSA11.jpg,MS,2,num_6,16,num_6,1.60004201694,,,2017_Mar_10_1241,60.0072367673,FEMA4ImagesEEG,001,100032,
AFNE22.JPG,AFSA24.JPG,AFSA22.JPG,AFNE25.JPG,AFNE24.JPG,AFSA25.JPG,,,,,,,,,,,,,,,,,,,,,0,9,9,6,,,AMSA01.jpg,AMNE19.jpg,AMSA11.jpg,AMNE15.jpg,AMNE15.jpg,MN,1,num_4,16,num_4,0.550187472536,,,2017_Mar_10_1241,60.0072367673,FEMA4ImagesEEG,001,100032,
,,,,,,,,,,,,,,,,,,,,,,,,,,,,,,,,,,,,,,,,,,,space,40.6470455034,2017_Mar_10_1241,60.0072367673,FEMA4ImagesEEG,001,100032,
AFNE01.JPG,AFNE01.JPG,AFNE01.JPG,AFNE01.JPG,AFNE01.JPG,AFNE01.JPG,0,0,0,4,,,,,,,,,,,,,,,,,,,,,,,AFNE10.jpg,AFSA06.jpg,AFSA18.jpg,AFNE05.jpg,AFSA18.jpg,FS,4,num_2,32,num_4,1.4334060344,,,2017_Mar_10_1241,60.0072367673,FEMA4ImagesEEG,001,100032,
AFNE01.JPG,AFNE01.JPG,AFNE01.JPG,AFNE01.JPG,AFNE01.JPG,AFNE01.JPG,0,1,1,3,,,,,,,,,,,,,,,,,,,,,,,AFNE20.jpg,AFSA16.jpg,AFSA03.jpg,AFNE14.jpg,AFNE14.jpg,FN,3,num_4,32,num_2,1.18341293031,,,2017_Mar_10_1241,60.0072367673,FEMA4ImagesEEG,001,100032,
AFNE01.JPG,AFNE01.JPG,AFNE01.JPG,AFNE01.JPG,AFNE01.JPG,AFNE01.JPG,0,2,2,7,,,,,,,,,,,,,,,,,,,,,,,AFNE14.jpg,AFNE08.jpg,AFSA19.jpg,AFSA13.jpg,AFSA13.jpg,FS,4,num_4,32,num_8,1.03341854326,,,2017_Mar_10_1241,60.0072367673,FEMA4ImagesEEG,001,100032,
AFNE01.JPG,AFNE01.JPG,AFNE01.JPG,AFNE01.JPG,AFNE01.JPG,AFNE01.JPG,0,3,3,9,,,,,,,,,,,,,,,,,,,,,,,AFNE04.jpg,AFSA17.jpg,AFNE05.jpg,AFSA11.jpg,AFSA11.jpg,FS,4,num_4,32,num_6,1.21674583599,,,2017_Mar_10_1241,60.0072367673,FEMA4ImagesEEG,001,100032,
AFNE01.JPG,AFNE01.JPG,AFNE01.JPG,AFNE01.JPG,AFNE01.JPG,AFNE01.JPG,0,4,4,6,,,,,,,,,,,,,,,,,,,,,,,AFNE09.jpg,AFSA15.jpg,AFNE11.jpg,AFSA10.jpg,AFNE09.jpg,FN,3,num_8,32,num_4,1.81692128078,,,2017_Mar_10_1241,60.0072367673,FEMA4ImagesEEG,001,100032,
AFNE01.JPG,AFNE01.JPG,AFNE01.JPG,AFNE01.JPG,AFNE01.JPG,AFNE01.JPG,0,5,5,2,,,,,,,,,,,,,,,,,,,,,,,AFSA12.jpg,AFSA08.jpg,AFNE06.jpg,AFNE20.jpg,AFNE06.jpg,FN,3,num_2,32,num_6,2.40002597994,,,2017_Mar_10_1241,60.0072367673,FEMA4ImagesEEG,001,100032,
AFNE01.JPG,AFNE01.JPG,AFNE01.JPG,AFNE01.JPG,AFNE01.JPG,AFNE01.JPG,0,6,6,0,,,,,,,,,,,,,,,,,,,,,,,AFNE19.jpg,AFSA07.jpg,AFSA08.jpg,AFNE09.jpg,AFSA08.jpg,FS,4,num_2,32,num_4,1.03347980461,,,2017_Mar_10_1241,60.0072367673,FEMA4ImagesEEG,001,100032,
AFNE01.JPG,AFNE01.JPG,AFNE01.JPG,AFNE01.JPG,AFNE01.JPG,AFNE01.JPG,0,7,7,1,,,,,,,,,,,,,,,,,,,,,,,AFSA09.jpg,AFSA06.jpg,AFNE01.jpg,AFNE08.jpg,AFNE08.jpg,FN,3,num_4,32,num_6,1.31670381905,,,2017_Mar_10_1241,60.0072367673,FEMA4ImagesEEG,001,100032,
AFNE01.JPG,AFNE01.JPG,AFNE01.JPG,AFNE01.JPG,AFNE01.JPG,AFNE01.JPG,0,8,8,5,,,,,,,,,,,,,,,,,,,,,,,AFNE08.jpg,AFSA05.jpg,AFNE12.jpg,AFSA17.jpg,AFNE12.jpg,FN,3,num_2,32,num_6,1.5667527319,,,2017_Mar_10_1241,60.0072367673,FEMA4ImagesEEG,001,100032,
AFNE01.JPG,AFNE01.JPG,AFNE01.JPG,AFNE01.JPG,AFNE01.JPG,AFNE01.JPG,0,9,9,8,,,,,,,,,,,,,,,,,,,,,,,AFSA09.jpg,AFNE12.jpg,AFNE18.jpg,AFSA19.jpg,AFNE12.jpg,FN,3,num_6,16,num_6,1.68338598815,,,2017_Mar_10_1241,60.0072367673,FEMA4ImagesEEG,001,100032,
AFNE01.JPG,AFNE01.JPG,AFNE01.JPG,AFNE01.JPG,AFNE01.JPG,AFNE01.JPG,1,0,10,6,,,,,,,,,,,,,,,,,,,,,,,AFNE17.jpg,AFSA01.jpg,AFSA12.jpg,AFNE04.jpg,AFNE17.jpg,FN,3,num_8,32,num_4,1.21676989149,,,2017_Mar_10_1241,60.0072367673,FEMA4ImagesEEG,001,100032,
AFNE01.JPG,AFNE01.JPG,AFNE01.JPG,AFNE01.JPG,AFNE01.JPG,AFNE01.JPG,1,1,11,3,,,,,,,,,,,,,,,,,,,,,,,AFSA14.jpg,AFNE08.jpg,AFNE17.jpg,AFSA08.jpg,AFNE08.jpg,FN,3,num_6,32,num_4,2.25001202775,,,2017_Mar_10_1241,60.0072367673,FEMA4ImagesEEG,001,100032,
AFNE01.JPG,AFNE01.JPG,AFNE01.JPG,AFNE01.JPG,AFNE01.JPG,AFNE01.JPG,1,2,12,4,,,,,,,,,,,,,,,,,,,,,,,AFNE06.jpg,AFSA03.jpg,AFNE17.jpg,AFSA18.jpg,AFSA18.jpg,FS,4,num_4,32,num_8,0.833428806944,,,2017_Mar_10_1241,60.0072367673,FEMA4ImagesEEG,001,100032,
AFNE01.JPG,AFNE01.JPG,AFNE01.JPG,AFNE01.JPG,AFNE01.JPG,AFNE01.JPG,1,3,13,5,,,,,,,,,,,,,,,,,,,,,,,AFNE20.jpg,AFSA14.jpg,AFNE10.jpg,AFSA17.jpg,AFNE20.jpg,FN,3,num_8,32,num_4,1.33340346848,,,2017_Mar_10_1241,60.0072367673,FEMA4ImagesEEG,001,100032,
AFNE01.JPG,AFNE01.JPG,AFNE01.JPG,AFNE01.JPG,AFNE01.JPG,AFNE01.JPG,1,4,14,9,,,,,,,,,,,,,,,,,,,,,,,AFNE02.jpg,AFSA08.jpg,AFSA11.jpg,AFNE12.jpg,AFSA08.jpg,FS,4,num_6,32,num_2,2.15002966845,,,2017_Mar_10_1241,60.0072367673,FEMA4ImagesEEG,001,100032,
AFNE01.JPG,AFNE01.JPG,AFNE01.JPG,AFNE01.JPG,AFNE01.JPG,AFNE01.JPG,1,5,15,7,,,,,,,,,,,,,,,,,,,,,,,AFSA15.jpg,AFSA19.jpg,AFNE08.jpg,AFNE15.jpg,AFNE08.jpg,FN,3,num_2,16,num_2,1.40010359902,,,2017_Mar_10_1241,60.0072367673,FEMA4ImagesEEG,001,100032,
AFNE01.JPG,AFNE01.JPG,AFNE01.JPG,AFNE01.JPG,AFNE01.JPG,AFNE01.JPG,1,6,16,2,,,,,,,,,,,,,,,,,,,,,,,AFSA18.jpg,AFNE08.jpg,AFSA12.jpg,AFNE06.jpg,AFNE06.jpg,FN,3,num_4,16,num_4,1.10012316416,,,2017_Mar_10_1241,60.0072367673,FEMA4ImagesEEG,001,100032,
AFNE01.JPG,AFNE01.JPG,AFNE01.JPG,AFNE01.JPG,AFNE01.JPG,AFNE01.JPG,1,7,17,0,,,,,,,,,,,,,,,,,,,,,,,AFNE06.jpg,AFNE07.jpg,AFSA06.jpg,AFSA10.jpg,AFNE06.jpg,FN,3,num_8,32,num_4,0.800084675363,,,2017_Mar_10_1241,60.0072367673,FEMA4ImagesEEG,001,100032,
AFNE01.JPG,AFNE01.JPG,AFNE01.JPG,AFNE01.JPG,AFNE01.JPG,AFNE01.JPG,1,8,18,8,,,,,,,,,,,,,,,,,,,,,,,AFSA19.jpg,AFNE03.jpg,AFSA13.jpg,AFNE09.jpg,AFSA13.jpg,FS,4,num_2,32,num_8,1.95002774401,,,2017_Mar_10_1241,60.0072367673,FEMA4ImagesEEG,001,100032,
AFNE01.JPG,AFNE01.JPG,AFNE01.JPG,AFNE01.JPG,AFNE01.JPG,AFNE01.JPG,1,9,19,1,,,,,,,,,,,,,,,,,,,,,,,AFNE13.jpg,AFNE08.jpg,AFSA20.jpg,AFSA13.jpg,AFNE13.jpg,FN,3,num_8,32,num_2,0.616764759653,,,2017_Mar_10_1241,60.0072367673,FEMA4ImagesEEG,001,100032,
AFNE01.JPG,AFNE01.JPG,AFNE01.JPG,AFNE01.JPG,AFNE01.JPG,AFNE01.JPG,2,0,20,7,,,,,,,,,,,,,,,,,,,,,,,AFSA12.jpg,AFNE17.jpg,AFNE07.jpg,AFSA19.jpg,AFSA12.jpg,FS,4,num_8,16,num_8,0.950094137193,,,2017_Mar_10_1241,60.0072367673,FEMA4ImagesEEG,001,100032,
AFNE01.JPG,AFNE01.JPG,AFNE01.JPG,AFNE01.JPG,AFNE01.JPG,AFNE01.JPG,2,1,21,9,,,,,,,,,,,,,,,,,,,,,,,AFNE09.jpg,AFSA15.jpg,AFNE06.jpg,AFSA17.jpg,AFNE06.jpg,FN,3,num_2,16,num_2,1.53343201434,,,2017_Mar_10_1241,60.0072367673,FEMA4ImagesEEG,001,100032,
AFNE01.JPG,AFNE01.JPG,AFNE01.JPG,AFNE01.JPG,AFNE01.JPG,AFNE01.JPG,2,2,22,1,,,,,,,,,,,,,,,,,,,,,,,AFSA02.jpg,AFNE20.jpg,AFSA06.jpg,AFNE19.jpg,AFNE20.jpg,FN,3,num_6,16,num_6,1.13346569204,,,2017_Mar_10_1241,60.0072367673,FEMA4ImagesEEG,001,100032,
AFNE01.JPG,AFNE01.JPG,AFNE01.JPG,AFNE01.JPG,AFNE01.JPG,AFNE01.JPG,2,3,23,2,,,,,,,,,,,,,,,,,,,,,,,AFSA18.jpg,AFSA02.jpg,AFNE12.jpg,AFNE14.jpg,AFNE12.jpg,FN,3,num_2,32,num_8,0.883474512395,,,2017_Mar_10_1241,60.0072367673,FEMA4ImagesEEG,001,100032,
AFNE01.JPG,AFNE01.JPG,AFNE01.JPG,AFNE01.JPG,AFNE01.JPG,AFNE01.JPG,2,4,24,0,,,,,,,,,,,,,,,,,,,,,,,AFSA11.jpg,AFNE09.jpg,AFSA14.jpg,AFNE07.jpg,AFSA14.jpg,FS,4,num_2,32,num_4,0.616852321677,,,2017_Mar_10_1241,60.0072367673,FEMA4ImagesEEG,001,100032,
AFNE01.JPG,AFNE01.JPG,AFNE01.JPG,AFNE01.JPG,AFNE01.JPG,AFNE01.JPG,2,5,25,6,,,,,,,,,,,,,,,,,,,,,,,AFSA17.jpg,AFNE12.jpg,AFNE14.jpg,AFSA03.jpg,AFSA17.jpg,FS,4,num_8,32,num_6,2.29999326446,,,2017_Mar_10_1241,60.0072367673,FEMA4ImagesEEG,001,100032,
AFNE01.JPG,AFNE01.JPG,AFNE01.JPG,AFNE01.JPG,AFNE01.JPG,AFNE01.JPG,2,6,26,3,,,,,,,,,,,,,,,,,,,,,,,AFSA15.jpg,AFNE02.jpg,AFSA09.jpg,AFNE20.jpg,AFNE02.jpg,FN,3,num_6,16,num_6,0.833436504704,,,2017_Mar_10_1241,60.0072367673,FEMA4ImagesEEG,001,100032,
AFNE01.JPG,AFNE01.JPG,AFNE01.JPG,AFNE01.JPG,AFNE01.JPG,AFNE01.JPG,2,7,27,5,,,,,,,,,,,,,,,,,,,,,,,AFNE14.jpg,AFNE09.jpg,AFSA12.jpg,AFSA02.jpg,AFSA02.jpg,FS,4,num_4,32,num_8,1.28346553167,,,2017_Mar_10_1241,60.0072367673,FEMA4ImagesEEG,001,100032,
AFNE01.JPG,AFNE01.JPG,AFNE01.JPG,AFNE01.JPG,AFNE01.JPG,AFNE01.JPG,2,8,28,8,,,,,,,,,,,,,,,,,,,,,,,AFNE02.jpg,AFSA14.jpg,AFNE17.jpg,AFSA03.jpg,AFSA14.jpg,FS,4,num_6,32,num_4,0.866791541445,,,2017_Mar_10_1241,60.0072367673,FEMA4ImagesEEG,001,100032,
AFNE01.JPG,AFNE01.JPG,AFNE01.JPG,AFNE01.JPG,AFNE01.JPG,AFNE01.JPG,2,9,29,4,,,,,,,,,,,,,,,,,,,,,,,AFNE16.jpg,AFNE09.jpg,AFSA04.jpg,AFSA19.jpg,AFSA19.jpg,FS,4,num_4,32,num_8,1.65002164995,,,2017_Mar_10_1241,60.0072367673,FEMA4ImagesEEG,001,100032,
AFNE01.JPG,AFNE01.JPG,AFNE01.JPG,AFNE01.JPG,AFNE01.JPG,AFNE01.JPG,3,0,30,0,,,,,,,,,,,,,,,,,,,,,,,AFSA05.jpg,AFNE08.jpg,AFNE06.jpg,AFSA18.jpg,AFNE06.jpg,FN,3,num_2,32,num_6,2.03334862194,,,2017_Mar_10_1241,60.0072367673,FEMA4ImagesEEG,001,100032,
AFNE01.JPG,AFNE01.JPG,AFNE01.JPG,AFNE01.JPG,AFNE01.JPG,AFNE01.JPG,3,1,31,6,,,,,,,,,,,,,,,,,,,,,,,AFNE03.jpg,AFNE16.jpg,AFSA02.jpg,AFSA12.jpg,AFNE03.jpg,FN,3,num_8,16,num_8,1.08348060646,,,2017_Mar_10_1241,60.0072367673,FEMA4ImagesEEG,001,100032,
AFNE01.JPG,AFNE01.JPG,AFNE01.JPG,AFNE01.JPG,AFNE01.JPG,AFNE01.JPG,3,2,32,5,,,,,,,,,,,,,,,,,,,,,,,AFSA01.jpg,AFNE02.jpg,AFSA09.jpg,AFNE06.jpg,AFNE02.jpg,FN,3,num_6,32,num_4,1.79974950205,,,2017_Mar_10_1241,60.0072367673,FEMA4ImagesEEG,001,100032,
AFNE01.JPG,AFNE01.JPG,AFNE01.JPG,AFNE01.JPG,AFNE01.JPG,AFNE01.JPG,3,3,33,1,,,,,,,,,,,,,,,,,,,,,,,AFNE03.jpg,AFNE16.jpg,AFSA18.jpg,AFSA04.jpg,AFSA04.jpg,FS,4,num_4,16,num_4,0.683435382114,,,2017_Mar_10_1241,60.0072367673,FEMA4ImagesEEG,001,100032,
AFNE01.JPG,AFNE01.JPG,AFNE01.JPG,AFNE01.JPG,AFNE01.JPG,AFNE01.JPG,3,4,34,7,,,,,,,,,,,,,,,,,,,,,,,AFSA11.jpg,AFNE10.jpg,AFSA13.jpg,AFNE16.jpg,AFNE10.jpg,FN,3,num_6,32,num_8,0.950167907396,,,2017_Mar_10_1241,60.0072367673,FEMA4ImagesEEG,001,100032,
AFNE01.JPG,AFNE01.JPG,AFNE01.JPG,AFNE01.JPG,AFNE01.JPG,AFNE01.JPG,3,5,35,4,,,,,,,,,,,,,,,,,,,,,,,AFNE19.jpg,AFNE05.jpg,AFSA09.jpg,AFSA20.jpg,AFSA09.jpg,FS,4,num_2,32,num_4,1.35008611869,,,2017_Mar_10_1241,60.0072367673,FEMA4ImagesEEG,001,100032,
AFNE01.JPG,AFNE01.JPG,AFNE01.JPG,AFNE01.JPG,AFNE01.JPG,AFNE01.JPG,3,6,36,3,,,,,,,,,,,,,,,,,,,,,,,AFSA09.jpg,AFNE09.jpg,AFSA20.jpg,AFNE02.jpg,AFSA20.jpg,FS,4,num_2,32,num_4,1.23342912768,,,2017_Mar_10_1241,60.0072367673,FEMA4ImagesEEG,001,100032,
AFNE01.JPG,AFNE01.JPG,AFNE01.JPG,AFNE01.JPG,AFNE01.JPG,AFNE01.JPG,3,7,37,8,,,,,,,,,,,,,,,,,,,,,,,AFSA03.jpg,AFNE08.jpg,AFNE04.jpg,AFSA06.jpg,AFSA06.jpg,FS,4,num_4,32,num_8,0.800155879645,,,2017_Mar_10_1241,60.0072367673,FEMA4ImagesEEG,001,100032,
AFNE01.JPG,AFNE01.JPG,AFNE01.JPG,AFNE01.JPG,AFNE01.JPG,AFNE01.JPG,3,8,38,9,,,,,,,,,,,,,,,,,,,,,,,AFSA18.jpg,AFNE08.jpg,AFSA11.jpg,AFNE15.jpg,AFSA11.jpg,FS,4,num_2,32,num_6,0.766869802007,,,2017_Mar_10_1241,60.0072367673,FEMA4ImagesEEG,001,100032,
AFNE01.JPG,AFNE01.JPG,AFNE01.JPG,AFNE01.JPG,AFNE01.JPG,AFNE01.JPG,3,9,39,2,,,,,,,,,,,,,,,,,,,,,,,AFNE08.jpg,AFSA03.jpg,AFSA18.jpg,AFNE05.jpg,AFSA03.jpg,FS,4,num_6,32,num_4,1.0334284862,,,2017_Mar_10_1241,60.0072367673,FEMA4ImagesEEG,001,100032,
AFNE01.JPG,AFNE01.JPG,AFNE01.JPG,AFNE01.JPG,AFNE01.JPG,AFNE01.JPG,4,0,40,9,,,,,,,,,,,,,,,,,,,,,,,AFSA01.jpg,AFNE09.jpg,AFNE01.jpg,AFSA18.jpg,AFNE01.jpg,FN,3,num_2,32,num_4,0.750120758614,,,2017_Mar_10_1241,60.0072367673,FEMA4ImagesEEG,001,100032,
AFNE01.JPG,AFNE01.JPG,AFNE01.JPG,AFNE01.JPG,AFNE01.JPG,AFNE01.JPG,4,1,41,1,,,,,,,,,,,,,,,,,,,,,,,AFSA09.jpg,AFNE15.jpg,AFSA16.jpg,AFNE14.jpg,AFSA09.jpg,FS,4,num_8,32,num_4,1.88345815465,,,2017_Mar_10_1241,60.0072367673,FEMA4ImagesEEG,001,100032,
AFNE01.JPG,AFNE01.JPG,AFNE01.JPG,AFNE01.JPG,AFNE01.JPG,AFNE01.JPG,4,2,42,2,,,,,,,,,,,,,,,,,,,,,,,AFSA01.jpg,AFSA02.jpg,AFNE19.jpg,AFNE06.jpg,AFSA01.jpg,FS,4,num_8,32,num_4,0.900119636025,,,2017_Mar_10_1241,60.0072367673,FEMA4ImagesEEG,001,100032,
AFNE01.JPG,AFNE01.JPG,AFNE01.JPG,AFNE01.JPG,AFNE01.JPG,AFNE01.JPG,4,3,43,0,,,,,,,,,,,,,,,,,,,,,,,AFSA11.jpg,AFSA14.jpg,AFNE09.jpg,AFNE19.jpg,AFSA14.jpg,FS,4,num_6,32,num_4,1.26647240513,,,2017_Mar_10_1241,60.0072367673,FEMA4ImagesEEG,001,100032,
AFNE01.JPG,AFNE01.JPG,AFNE01.JPG,AFNE01.JPG,AFNE01.JPG,AFNE01.JPG,4,4,44,5,,,,,,,,,,,,,,,,,,,,,,,AFSA20.jpg,AFNE04.jpg,AFSA03.jpg,AFNE15.jpg,AFNE15.jpg,FN,3,num_4,32,num_8,1.08339849701,,,2017_Mar_10_1241,60.0072367673,FEMA4ImagesEEG,001,100032,
AFNE01.JPG,AFNE01.JPG,AFNE01.JPG,AFNE01.JPG,AFNE01.JPG,AFNE01.JPG,4,5,45,7,,,,,,,,,,,,,,,,,,,,,,,AFNE18.jpg,AFSA17.jpg,AFNE03.jpg,AFSA04.jpg,AFSA04.jpg,FS,4,num_4,32,num_8,0.816843340956,,,2017_Mar_10_1241,60.0072367673,FEMA4ImagesEEG,001,100032,
AFNE01.JPG,AFNE01.JPG,AFNE01.JPG,AFNE01.JPG,AFNE01.JPG,AFNE01.JPG,4,6,46,3,,,,,,,,,,,,,,,,,,,,,,,AFNE17.jpg,AFSA04.jpg,AFSA16.jpg,AFNE03.jpg,AFSA16.jpg,FS,4,num_2,32,num_4,2.0333851863,,,2017_Mar_10_1241,60.0072367673,FEMA4ImagesEEG,001,100032,
AFNE01.JPG,AFNE01.JPG,AFNE01.JPG,AFNE01.JPG,AFNE01.JPG,AFNE01.JPG,4,7,47,4,,,,,,,,,,,,,,,,,,,,,,,AFNE12.jpg,AFSA13.jpg,AFNE15.jpg,AFSA06.jpg,AFNE12.jpg,FN,3,num_8,16,num_8,0.500122522684,,,2017_Mar_10_1241,60.0072367673,FEMA4ImagesEEG,001,100032,
AFNE01.JPG,AFNE01.JPG,AFNE01.JPG,AFNE01.JPG,AFNE01.JPG,AFNE01.JPG,4,8,48,6,,,,,,,,,,,,,,,,,,,,,,,AFNE16.jpg,AFNE06.jpg,AFSA12.jpg,AFSA01.jpg,AFSA12.jpg,FS,4,num_2,32,num_6,0.61694180814,,,2017_Mar_10_1241,60.0072367673,FEMA4ImagesEEG,001,100032,
AFNE01.JPG,AFNE01.JPG,AFNE01.JPG,AFNE01.JPG,AFNE01.JPG,AFNE01.JPG,4,9,49,8,,,,,,,,,,,,,,,,,,,,,,,AFSA18.jpg,AFNE06.jpg,AFSA16.jpg,AFNE15.jpg,AFSA16.jpg,FS,4,num_2,32,num_4,0.716879263838,,,2017_Mar_10_1241,60.0072367673,FEMA4ImagesEEG,001,100032,
AFNE01.JPG,AFNE01.JPG,AFNE01.JPG,AFNE01.JPG,AFNE01.JPG,AFNE01.JPG,5,0,50,7,,,,,,,,,,,,,,,,,,,,,,,AFNE19.jpg,AFSA08.jpg,AFNE14.jpg,AFSA17.jpg,AFNE19.jpg,FN,3,num_8,32,num_4,1.38332985865,,,2017_Mar_10_1241,60.0072367673,FEMA4ImagesEEG,001,100032,
AFNE01.JPG,AFNE01.JPG,AFNE01.JPG,AFNE01.JPG,AFNE01.JPG,AFNE01.JPG,5,1,51,1,,,,,,,,,,,,,,,,,,,,,,,AFNE16.jpg,AFSA10.jpg,AFNE03.jpg,AFSA07.jpg,AFNE03.jpg,FN,3,num_2,32,num_4,1.83335664044,,,2017_Mar_10_1241,60.0072367673,FEMA4ImagesEEG,001,100032,
AFNE01.JPG,AFNE01.JPG,AFNE01.JPG,AFNE01.JPG,AFNE01.JPG,AFNE01.JPG,5,2,52,6,,,,,,,,,,,,,,,,,,,,,,,AFNE03.jpg,AFSA06.jpg,AFNE07.jpg,AFSA18.jpg,AFSA06.jpg,FS,4,num_6,32,num_4,0.966780315544,,,2017_Mar_10_1241,60.0072367673,FEMA4ImagesEEG,001,100032,
AFNE01.JPG,AFNE01.JPG,AFNE01.JPG,AFNE01.JPG,AFNE01.JPG,AFNE01.JPG,5,3,53,9,,,,,,,,,,,,,,,,,,,,,,,AFSA07.jpg,AFSA01.jpg,AFNE08.jpg,AFNE10.jpg,AFNE08.jpg,FN,3,num_2,32,num_4,1.43357891327,,,2017_Mar_10_1241,60.0072367673,FEMA4ImagesEEG,001,100032,
AFNE01.JPG,AFNE01.JPG,AFNE01.JPG,AFNE01.JPG,AFNE01.JPG,AFNE01.JPG,5,4,54,0,,,,,,,,,,,,,,,,,,,,,,,AFSA17.jpg,AFSA07.jpg,AFNE19.jpg,AFNE13.jpg,AFSA17.jpg,FS,4,num_8,32,num_6,0.550139040795,,,2017_Mar_10_1241,60.0072367673,FEMA4ImagesEEG,001,100032,
AFNE01.JPG,AFNE01.JPG,AFNE01.JPG,AFNE01.JPG,AFNE01.JPG,AFNE01.JPG,5,5,55,8,,,,,,,,,,,,,,,,,,,,,,,AFSA18.jpg,AFNE09.jpg,AFSA15.jpg,AFNE10.jpg,AFSA15.jpg,FS,4,num_2,32,num_8,0.966788654785,,,2017_Mar_10_1241,60.0072367673,FEMA4ImagesEEG,001,100032,
AFNE01.JPG,AFNE01.JPG,AFNE01.JPG,AFNE01.JPG,AFNE01.JPG,AFNE01.JPG,5,6,56,3,,,,,,,,,,,,,,,,,,,,,,,AFNE14.jpg,AFSA04.jpg,AFSA18.jpg,AFNE20.jpg,AFSA04.jpg,FS,4,num_6,16,num_6,1.23342014696,,,2017_Mar_10_1241,60.0072367673,FEMA4ImagesEEG,001,100032,
AFNE01.JPG,AFNE01.JPG,AFNE01.JPG,AFNE01.JPG,AFNE01.JPG,AFNE01.JPG,5,7,57,5,,,,,,,,,,,,,,,,,,,,,,,AFSA05.jpg,AFNE03.jpg,AFNE14.jpg,AFSA06.jpg,AFNE14.jpg,FN,3,num_2,32,num_4,1.83367513527,,,2017_Mar_10_1241,60.0072367673,FEMA4ImagesEEG,001,100032,
AFNE01.JPG,AFNE01.JPG,AFNE01.JPG,AFNE01.JPG,AFNE01.JPG,AFNE01.JPG,5,8,58,4,,,,,,,,,,,,,,,,,,,,,,,AFNE11.jpg,AFSA08.jpg,AFSA15.jpg,AFNE17.jpg,AFSA08.jpg,FS,4,num_6,32,num_4,0.850170152576,,,2017_Mar_10_1241,60.0072367673,FEMA4ImagesEEG,001,100032,
AFNE01.JPG,AFNE01.JPG,AFNE01.JPG,AFNE01.JPG,AFNE01.JPG,AFNE01.JPG,5,9,59,2,,,,,,,,,,,,,,,,,,,,,,,AFSA04.jpg,AFNE16.jpg,AFSA14.jpg,AFNE10.jpg,AFSA14.jpg,FS,4,num_2,32,num_8,0.883472587955,,,2017_Mar_10_1241,60.0072367673,FEMA4ImagesEEG,001,100032,
,,,,,,,,,,,,,,,,,,,,,,,,,,,,,,,,,,,,,,,,,,,space,38.8303336658,2017_Mar_10_1241,60.0072367673,FEMA4ImagesEEG,001,100032,
AFNE01.JPG,AFNE01.JPG,AFNE01.JPG,AFNE01.JPG,AFNE01.JPG,AFNE01.JPG,,,,,0,0,0,6,,,,,,,,,,,,,,,,,,,AMNE06.jpg,AMSA05.jpg,AMNE16.jpg,AMSA13.jpg,AMNE16.jpg,MN,1,num_2,16,num_2,1.21662812441,,,2017_Mar_10_1241,60.0072367673,FEMA4ImagesEEG,001,100032,
AFNE01.JPG,AFNE01.JPG,AFNE01.JPG,AFNE01.JPG,AFNE01.JPG,AFNE01.JPG,,,,,0,1,1,2,,,,,,,,,,,,,,,,,,,AMSA16.jpg,AMNE09.jpg,AMNE04.jpg,AMSA17.jpg,AMSA16.jpg,MS,2,num_8,16,num_8,0.883510756016,,,2017_Mar_10_1241,60.0072367673,FEMA4ImagesEEG,001,100032,
AFNE01.JPG,AFNE01.JPG,AFNE01.JPG,AFNE01.JPG,AFNE01.JPG,AFNE01.JPG,,,,,0,2,2,1,,,,,,,,,,,,,,,,,,,AMSA15.jpg,AMNE05.jpg,AMSA03.jpg,AMNE15.jpg,AMNE05.jpg,MN,1,num_6,32,num_2,1.05011755121,,,2017_Mar_10_1241,60.0072367673,FEMA4ImagesEEG,001,100032,
AFNE01.JPG,AFNE01.JPG,AFNE01.JPG,AFNE01.JPG,AFNE01.JPG,AFNE01.JPG,,,,,0,3,3,9,,,,,,,,,,,,,,,,,,,AMSA18.jpg,AMSA09.jpg,AMNE20.jpg,AMNE11.jpg,AMSA18.jpg,MS,2,num_8,32,num_6,0.950103117914,,,2017_Mar_10_1241,60.0072367673,FEMA4ImagesEEG,001,100032,
AFNE01.JPG,AFNE01.JPG,AFNE01.JPG,AFNE01.JPG,AFNE01.JPG,AFNE01.JPG,,,,,0,4,4,7,,,,,,,,,,,,,,,,,,,AMNE03.jpg,AMSA20.jpg,AMNE19.jpg,AMSA15.jpg,AMNE19.jpg,MN,1,num_2,32,num_4,2.58330035057,,,2017_Mar_10_1241,60.0072367673,FEMA4ImagesEEG,001,100032,
AFNE01.JPG,AFNE01.JPG,AFNE01.JPG,AFNE01.JPG,AFNE01.JPG,AFNE01.JPG,,,,,0,5,5,5,,,,,,,,,,,,,,,,,,,AMSA13.jpg,AMNE03.jpg,AMNE04.jpg,AMSA08.jpg,AMNE03.jpg,MN,1,num_6,32,num_4,0.950195170297,,,2017_Mar_10_1241,60.0072367673,FEMA4ImagesEEG,001,100032,
AFNE01.JPG,AFNE01.JPG,AFNE01.JPG,AFNE01.JPG,AFNE01.JPG,AFNE01.JPG,,,,,0,6,6,8,,,,,,,,,,,,,,,,,,,AMSA14.jpg,AMSA04.jpg,AMNE05.jpg,AMNE11.jpg,AMNE11.jpg,MN,1,num_4,32,num_8,1.06673444972,,,2017_Mar_10_1241,60.0072367673,FEMA4ImagesEEG,001,100032,
AFNE01.JPG,AFNE01.JPG,AFNE01.JPG,AFNE01.JPG,AFNE01.JPG,AFNE01.JPG,,,,,0,7,7,3,,,,,,,,,,,,,,,,,,,AMSA13.jpg,AMNE12.jpg,AMNE02.jpg,AMSA18.jpg,AMSA13.jpg,MS,2,num_8,32,num_4,0.733463446865,,,2017_Mar_10_1241,60.0072367673,FEMA4ImagesEEG,001,100032,
AFNE01.JPG,AFNE01.JPG,AFNE01.JPG,AFNE01.JPG,AFNE01.JPG,AFNE01.JPG,,,,,0,8,8,0,,,,,,,,,,,,,,,,,,,AMSA14.jpg,AMNE17.jpg,AMNE02.jpg,AMSA08.jpg,AMNE17.jpg,MN,1,num_6,16,num_6,0.883465852415,,,2017_Mar_10_1241,60.0072367673,FEMA4ImagesEEG,001,100032,
AFNE01.JPG,AFNE01.JPG,AFNE01.JPG,AFNE01.JPG,AFNE01.JPG,AFNE01.JPG,,,,,0,9,9,4,,,,,,,,,,,,,,,,,,,AMSA18.jpg,AMSA16.jpg,AMNE09.jpg,AMNE20.jpg,AMSA16.jpg,MS,2,num_6,32,num_4,1.76668665946,,,2017_Mar_10_1241,60.0072367673,FEMA4ImagesEEG,001,100032,
AFNE01.JPG,AFNE01.JPG,AFNE01.JPG,AFNE01.JPG,AFNE01.JPG,AFNE01.JPG,,,,,1,0,10,5,,,,,,,,,,,,,,,,,,,AMSA09.jpg,AMSA13.jpg,AMNE11.jpg,AMNE06.jpg,AMSA09.jpg,MS,2,num_8,16,num_8,1.09996022824,,,2017_Mar_10_1241,60.0072367673,FEMA4ImagesEEG,001,100032,
AFNE01.JPG,AFNE01.JPG,AFNE01.JPG,AFNE01.JPG,AFNE01.JPG,AFNE01.JPG,,,,,1,1,11,7,,,,,,,,,,,,,,,,,,,AMSA12.jpg,AMSA08.jpg,AMNE05.jpg,AMNE06.jpg,AMSA12.jpg,MS,2,num_8,16,num_8,0.933510916387,,,2017_Mar_10_1241,60.0072367673,FEMA4ImagesEEG,001,100032,
AFNE01.JPG,AFNE01.JPG,AFNE01.JPG,AFNE01.JPG,AFNE01.JPG,AFNE01.JPG,,,,,1,2,12,1,,,,,,,,,,,,,,,,,,,AMSA15.jpg,AMSA20.jpg,AMNE09.jpg,AMNE08.jpg,AMNE09.jpg,MN,1,num_2,32,num_4,0.916751609313,,,2017_Mar_10_1241,60.0072367673,FEMA4ImagesEEG,001,100032,
AFNE01.JPG,AFNE01.JPG,AFNE01.JPG,AFNE01.JPG,AFNE01.JPG,AFNE01.JPG,,,,,1,3,13,8,,,,,,,,,,,,,,,,,,,AMSA18.jpg,AMSA09.jpg,AMNE10.jpg,AMNE01.jpg,AMNE10.jpg,MN,1,num_2,32,num_6,1.58338149779,,,2017_Mar_10_1241,60.0072367673,FEMA4ImagesEEG,001,100032,
AFNE01.JPG,AFNE01.JPG,AFNE01.JPG,AFNE01.JPG,AFNE01.JPG,AFNE01.JPG,,,,,1,4,14,4,,,,,,,,,,,,,,,,,,,AMSA12.jpg,AMNE10.jpg,AMSA02.jpg,AMNE01.jpg,AMNE10.jpg,MN,1,num_6,32,num_4,0.850170794056,,,2017_Mar_10_1241,60.0072367673,FEMA4ImagesEEG,001,100032,
AFNE01.JPG,AFNE01.JPG,AFNE01.JPG,AFNE01.JPG,AFNE01.JPG,AFNE01.JPG,,,,,1,5,15,9,,,,,,,,,,,,,,,,,,,AMSA14.jpg,AMNE20.jpg,AMNE11.jpg,AMSA03.jpg,AMNE20.jpg,MN,1,num_6,32,num_8,0.900128616744,,,2017_Mar_10_1241,60.0072367673,FEMA4ImagesEEG,001,100032,
AFNE01.JPG,AFNE01.JPG,AFNE01.JPG,AFNE01.JPG,AFNE01.JPG,AFNE01.JPG,,,,,1,6,16,6,,,,,,,,,,,,,,,,,,,AMNE06.jpg,AMNE01.jpg,AMSA13.jpg,AMSA11.jpg,AMNE06.jpg,MN,1,num_8,32,num_4,1.83335247082,,,2017_Mar_10_1241,60.0072367673,FEMA4ImagesEEG,001,100032,
AFNE01.JPG,AFNE01.JPG,AFNE01.JPG,AFNE01.JPG,AFNE01.JPG,AFNE01.JPG,,,,,1,7,17,0,,,,,,,,,,,,,,,,,,,AMSA09.jpg,AMNE04.jpg,AMSA18.jpg,AMNE11.jpg,AMSA09.jpg,MS,2,num_8,16,num_8,0.899966322298,,,2017_Mar_10_1241,60.0072367673,FEMA4ImagesEEG,001,100032,
AFNE01.JPG,AFNE01.JPG,AFNE01.JPG,AFNE01.JPG,AFNE01.JPG,AFNE01.JPG,,,,,1,8,18,3,,,,,,,,,,,,,,,,,,,AMNE12.jpg,AMSA07.jpg,AMNE10.jpg,AMSA06.jpg,AMNE12.jpg,MN,1,num_8,16,num_8,0.650167907395,,,2017_Mar_10_1241,60.0072367673,FEMA4ImagesEEG,001,100032,
AFNE01.JPG,AFNE01.JPG,AFNE01.JPG,AFNE01.JPG,AFNE01.JPG,AFNE01.JPG,,,,,1,9,19,2,,,,,,,,,,,,,,,,,,,AMNE20.jpg,AMSA17.jpg,AMSA07.jpg,AMNE01.jpg,AMNE01.jpg,MN,1,num_4,16,num_4,1.6000497147,,,2017_Mar_10_1241,60.0072367673,FEMA4ImagesEEG,001,100032,
AFNE01.JPG,AFNE01.JPG,AFNE01.JPG,AFNE01.JPG,AFNE01.JPG,AFNE01.JPG,,,,,2,0,20,2,,,,,,,,,,,,,,,,,,,AMSA10.jpg,AMNE14.jpg,AMSA06.jpg,AMNE08.jpg,AMSA06.jpg,MS,2,num_2,32,num_4,1.25012492823,,,2017_Mar_10_1241,60.0072367673,FEMA4ImagesEEG,001,100032,
AFNE01.JPG,AFNE01.JPG,AFNE01.JPG,AFNE01.JPG,AFNE01.JPG,AFNE01.JPG,,,,,2,1,21,6,,,,,,,,,,,,,,,,,,,AMNE18.jpg,AMSA06.jpg,AMSA16.jpg,AMNE15.jpg,AMNE18.jpg,MN,1,num_8,16,num_8,1.05011530603,,,2017_Mar_10_1241,60.0072367673,FEMA4ImagesEEG,001,100032,
AFNE01.JPG,AFNE01.JPG,AFNE01.JPG,AFNE01.JPG,AFNE01.JPG,AFNE01.JPG,,,,,2,2,22,4,,,,,,,,,,,,,,,,,,,AMSA06.jpg,AMSA19.jpg,AMNE06.jpg,AMNE11.jpg,AMSA06.jpg,MS,2,num_8,16,num_8,0.566814955465,,,2017_Mar_10_1241,60.0072367673,FEMA4ImagesEEG,001,100032,
AFNE01.JPG,AFNE01.JPG,AFNE01.JPG,AFNE01.JPG,AFNE01.JPG,AFNE01.JPG,,,,,2,3,23,5,,,,,,,,,,,,,,,,,,,AMNE01.jpg,AMNE14.jpg,AMSA09.jpg,AMSA19.jpg,AMSA19.jpg,MS,2,num_4,16,num_4,0.850175925896,,,2017_Mar_10_1241,60.0072367673,FEMA4ImagesEEG,001,100032,
AFNE01.JPG,AFNE01.JPG,AFNE01.JPG,AFNE01.JPG,AFNE01.JPG,AFNE01.JPG,,,,,2,4,24,1,,,,,,,,,,,,,,,,,,,AMNE05.jpg,AMSA11.jpg,AMNE19.jpg,AMSA15.jpg,AMSA15.jpg,MS,2,num_4,32,num_6,0.600205915088,,,2017_Mar_10_1241,60.0072367673,FEMA4ImagesEEG,001,100032,
AFNE01.JPG,AFNE01.JPG,AFNE01.JPG,AFNE01.JPG,AFNE01.JPG,AFNE01.JPG,,,,,2,5,25,0,,,,,,,,,,,,,,,,,,,AMSA20.jpg,AMSA12.jpg,AMNE05.jpg,AMNE13.jpg,AMNE13.jpg,MN,1,num_4,16,num_4,2.01662267183,,,2017_Mar_10_1241,60.0072367673,FEMA4ImagesEEG,001,100032,
AFNE01.JPG,AFNE01.JPG,AFNE01.JPG,AFNE01.JPG,AFNE01.JPG,AFNE01.JPG,,,,,2,6,26,8,,,,,,,,,,,,,,,,,,,AMNE03.jpg,AMSA07.jpg,AMSA10.jpg,AMNE12.jpg,AMSA07.jpg,MS,2,num_6,32,num_4,0.783467776855,,,2017_Mar_10_1241,60.0072367673,FEMA4ImagesEEG,001,100032,
AFNE01.JPG,AFNE01.JPG,AFNE01.JPG,AFNE01.JPG,AFNE01.JPG,AFNE01.JPG,,,,,2,7,27,7,,,,,,,,,,,,,,,,,,,AMNE09.jpg,AMNE06.jpg,AMSA06.jpg,AMSA16.jpg,AMSA06.jpg,MS,2,num_2,32,num_6,0.650136154135,,,2017_Mar_10_1241,60.0072367673,FEMA4ImagesEEG,001,100032,
AFNE01.JPG,AFNE01.JPG,AFNE01.JPG,AFNE01.JPG,AFNE01.JPG,AFNE01.JPG,,,,,2,8,28,3,,,,,,,,,,,,,,,,,,,AMSA17.jpg,AMNE04.jpg,AMSA18.jpg,AMNE16.jpg,AMNE16.jpg,MN,1,num_4,16,num_4,0.266839331706,,,2017_Mar_10_1241,60.0072367673,FEMA4ImagesEEG,001,100032,
AFNE01.JPG,AFNE01.JPG,AFNE01.JPG,AFNE01.JPG,AFNE01.JPG,AFNE01.JPG,,,,,2,9,29,9,,,,,,,,,,,,,,,,,,,AMSA04.jpg,AMNE14.jpg,AMSA14.jpg,AMNE13.jpg,AMSA04.jpg,MS,2,num_8,32,num_4,0.766848312426,,,2017_Mar_10_1241,60.0072367673,FEMA4ImagesEEG,001,100032,
AFNE01.JPG,AFNE01.JPG,AFNE01.JPG,AFNE01.JPG,AFNE01.JPG,AFNE01.JPG,,,,,3,0,30,9,,,,,,,,,,,,,,,,,,,AMNE11.jpg,AMSA06.jpg,AMNE15.jpg,AMSA04.jpg,AMNE15.jpg,MN,1,num_2,32,num_6,0.550148342255,,,2017_Mar_10_1241,60.0072367673,FEMA4ImagesEEG,001,100032,
AFNE01.JPG,AFNE01.JPG,AFNE01.JPG,AFNE01.JPG,AFNE01.JPG,AFNE01.JPG,,,,,3,1,31,0,,,,,,,,,,,,,,,,,,,AMSA01.jpg,AMSA14.jpg,AMNE04.jpg,AMNE16.jpg,AMNE16.jpg,MN,1,num_4,16,num_4,2.90007152502,,,2017_Mar_10_1241,60.0072367673,FEMA4ImagesEEG,001,100032,
AFNE01.JPG,AFNE01.JPG,AFNE01.JPG,AFNE01.JPG,AFNE01.JPG,AFNE01.JPG,,,,,3,2,32,6,,,,,,,,,,,,,,,,,,,AMNE09.jpg,AMSA15.jpg,AMSA03.jpg,AMNE01.jpg,AMSA15.jpg,MS,2,num_6,32,num_4,0.800103599024,,,2017_Mar_10_1241,60.0072367673,FEMA4ImagesEEG,001,100032,
AFNE01.JPG,AFNE01.JPG,AFNE01.JPG,AFNE01.JPG,AFNE01.JPG,AFNE01.JPG,,,,,3,3,33,4,,,,,,,,,,,,,,,,,,,AMSA19.jpg,AMNE12.jpg,AMNE16.jpg,AMSA06.jpg,AMSA06.jpg,MS,2,num_4,32,num_8,1.05007553427,,,2017_Mar_10_1241,60.0072367673,FEMA4ImagesEEG,001,100032,
AFNE01.JPG,AFNE01.JPG,AFNE01.JPG,AFNE01.JPG,AFNE01.JPG,AFNE01.JPG,,,,,3,4,34,5,,,,,,,,,,,,,,,,,,,AMSA14.jpg,AMNE05.jpg,AMSA15.jpg,AMNE12.jpg,AMNE05.jpg,MN,1,num_6,16,num_6,0.900110976044,,,2017_Mar_10_1241,60.0072367673,FEMA4ImagesEEG,001,100032,
AFNE01.JPG,AFNE01.JPG,AFNE01.JPG,AFNE01.JPG,AFNE01.JPG,AFNE01.JPG,,,,,3,5,35,3,,,,,,,,,,,,,,,,,,,AMNE08.jpg,AMSA19.jpg,AMSA08.jpg,AMNE20.jpg,AMNE08.jpg,MN,1,num_8,16,num_8,1.46673926082,,,2017_Mar_10_1241,60.0072367673,FEMA4ImagesEEG,001,100032,
AFNE01.JPG,AFNE01.JPG,AFNE01.JPG,AFNE01.JPG,AFNE01.JPG,AFNE01.JPG,,,,,3,6,36,1,,,,,,,,,,,,,,,,,,,AMSA05.jpg,AMNE07.jpg,AMNE01.jpg,AMSA17.jpg,AMSA17.jpg,MS,2,num_4,16,num_4,0.833450938005,,,2017_Mar_10_1241,60.0072367673,FEMA4ImagesEEG,001,100032,
AFNE01.JPG,AFNE01.JPG,AFNE01.JPG,AFNE01.JPG,AFNE01.JPG,AFNE01.JPG,,,,,3,7,37,8,,,,,,,,,,,,,,,,,,,AMSA02.jpg,AMNE19.jpg,AMSA01.jpg,AMNE10.jpg,AMSA01.jpg,MS,2,num_2,32,num_4,0.683486059035,,,2017_Mar_10_1241,60.0072367673,FEMA4ImagesEEG,001,100032,
AFNE01.JPG,AFNE01.JPG,AFNE01.JPG,AFNE01.JPG,AFNE01.JPG,AFNE01.JPG,,,,,3,8,38,2,,,,,,,,,,,,,,,,,,,AMNE04.jpg,AMSA11.jpg,AMSA20.jpg,AMNE16.jpg,AMNE04.jpg,MN,1,num_8,32,num_6,0.533490068286,,,2017_Mar_10_1241,60.0072367673,FEMA4ImagesEEG,001,100032,
AFNE01.JPG,AFNE01.JPG,AFNE01.JPG,AFNE01.JPG,AFNE01.JPG,AFNE01.JPG,,,,,3,9,39,7,,,,,,,,,,,,,,,,,,,AMSA17.jpg,AMNE06.jpg,AMNE11.jpg,AMSA07.jpg,AMNE06.jpg,MN,1,num_6,32,num_8,0.666475612533,,,2017_Mar_10_1241,60.0072367673,FEMA4ImagesEEG,001,100032,
AFNE01.JPG,AFNE01.JPG,AFNE01.JPG,AFNE01.JPG,AFNE01.JPG,AFNE01.JPG,,,,,4,0,40,0,,,,,,,,,,,,,,,,,,,AMSA01.jpg,AMNE04.jpg,AMNE10.jpg,AMSA20.jpg,AMNE10.jpg,MN,1,num_2,32,num_4,1.20010295754,,,2017_Mar_10_1241,60.0072367673,FEMA4ImagesEEG,001,100032,
AFNE01.JPG,AFNE01.JPG,AFNE01.JPG,AFNE01.JPG,AFNE01.JPG,AFNE01.JPG,,,,,4,1,41,1,,,,,,,,,,,,,,,,,,,AMNE07.jpg,AMSA19.jpg,AMNE02.jpg,AMSA11.jpg,AMSA11.jpg,MS,2,num_4,16,num_4,1.01689081048,,,2017_Mar_10_1241,60.0072367673,FEMA4ImagesEEG,001,100032,
AFNE01.JPG,AFNE01.JPG,AFNE01.JPG,AFNE01.JPG,AFNE01.JPG,AFNE01.JPG,,,,,4,2,42,6,,,,,,,,,,,,,,,,,,,AMNE16.jpg,AMNE10.jpg,AMSA13.jpg,AMSA19.jpg,AMSA19.jpg,MS,2,num_4,32,num_6,0.683467776855,,,2017_Mar_10_1241,60.0072367673,FEMA4ImagesEEG,001,100032,
AFNE01.JPG,AFNE01.JPG,AFNE01.JPG,AFNE01.JPG,AFNE01.JPG,AFNE01.JPG,,,,,4,3,43,8,,,,,,,,,,,,,,,,,,,AMSA11.jpg,AMNE03.jpg,AMNE16.jpg,AMSA17.jpg,AMNE03.jpg,MN,1,num_6,32,num_8,0.866779674064,,,2017_Mar_10_1241,60.0072367673,FEMA4ImagesEEG,001,100032,
AFNE01.JPG,AFNE01.JPG,AFNE01.JPG,AFNE01.JPG,AFNE01.JPG,AFNE01.JPG,,,,,4,4,44,5,,,,,,,,,,,,,,,,,,,AMSA13.jpg,AMNE19.jpg,AMSA17.jpg,AMNE05.jpg,AMNE05.jpg,MN,1,num_4,16,num_4,1.50008884498,,,2017_Mar_10_1241,60.0072367673,FEMA4ImagesEEG,001,100032,
AFNE01.JPG,AFNE01.JPG,AFNE01.JPG,AFNE01.JPG,AFNE01.JPG,AFNE01.JPG,,,,,4,5,45,4,,,,,,,,,,,,,,,,,,,AMNE16.jpg,AMSA20.jpg,AMSA03.jpg,AMNE02.jpg,AMNE02.jpg,MN,1,num_4,32,num_8,1.11680100328,,,2017_Mar_10_1241,60.0072367673,FEMA4ImagesEEG,001,100032,
AFNE01.JPG,AFNE01.JPG,AFNE01.JPG,AFNE01.JPG,AFNE01.JPG,AFNE01.JPG,,,,,4,6,46,2,,,,,,,,,,,,,,,,,,,AMSA08.jpg,AMSA17.jpg,AMNE02.jpg,AMNE10.jpg,AMNE10.jpg,MN,1,num_4,32,num_6,0.650143531156,,,2017_Mar_10_1241,60.0072367673,FEMA4ImagesEEG,001,100032,
AFNE01.JPG,AFNE01.JPG,AFNE01.JPG,AFNE01.JPG,AFNE01.JPG,AFNE01.JPG,,,,,4,7,47,3,,,,,,,,,,,,,,,,,,,AMNE18.jpg,AMSA11.jpg,AMSA17.jpg,AMNE17.jpg,AMSA11.jpg,MS,2,num_6,32,num_4,0.600047148782,,,2017_Mar_10_1241,60.0072367673,FEMA4ImagesEEG,001,100032,
AFNE01.JPG,AFNE01.JPG,AFNE01.JPG,AFNE01.JPG,AFNE01.JPG,AFNE01.JPG,,,,,4,8,48,9,,,,,,,,,,,,,,,,,,,AMSA20.jpg,AMNE20.jpg,AMNE01.jpg,AMSA05.jpg,AMSA20.jpg,MS,2,num_8,16,num_8,0.716781117394,,,2017_Mar_10_1241,60.0072367673,FEMA4ImagesEEG,001,100032,
AFNE01.JPG,AFNE01.JPG,AFNE01.JPG,AFNE01.JPG,AFNE01.JPG,AFNE01.JPG,,,,,4,9,49,7,,,,,,,,,,,,,,,,,,,AMSA01.jpg,AMNE07.jpg,AMSA04.jpg,AMNE20.jpg,AMNE07.jpg,MN,1,num_6,32,num_4,2.23339865738,,,2017_Mar_10_1241,60.0072367673,FEMA4ImagesEEG,001,100032,
AFNE01.JPG,AFNE01.JPG,AFNE01.JPG,AFNE01.JPG,AFNE01.JPG,AFNE01.JPG,,,,,5,0,50,1,,,,,,,,,,,,,,,,,,,AMSA15.jpg,AMNE20.jpg,AMNE15.jpg,AMSA12.jpg,AMNE20.jpg,MN,1,num_6,32,num_4,0.866767806684,,,2017_Mar_10_1241,60.0072367673,FEMA4ImagesEEG,001,100032,
AFNE01.JPG,AFNE01.JPG,AFNE01.JPG,AFNE01.JPG,AFNE01.JPG,AFNE01.JPG,,,,,5,1,51,5,,,,,,,,,,,,,,,,,,,AMNE02.jpg,AMSA20.jpg,AMNE12.jpg,AMSA17.jpg,AMSA20.jpg,MS,2,num_6,32,num_4,0.850098627554,,,2017_Mar_10_1241,60.0072367673,FEMA4ImagesEEG,001,100032,
AFNE01.JPG,AFNE01.JPG,AFNE01.JPG,AFNE01.JPG,AFNE01.JPG,AFNE01.JPG,,,,,5,2,52,7,,,,,,,,,,,,,,,,,,,AMNE08.jpg,AMSA15.jpg,AMNE06.jpg,AMSA19.jpg,AMSA15.jpg,MS,2,num_6,16,num_6,0.816756741153,,,2017_Mar_10_1241,60.0072367673,FEMA4ImagesEEG,001,100032,
AFNE01.JPG,AFNE01.JPG,AFNE01.JPG,AFNE01.JPG,AFNE01.JPG,AFNE01.JPG,,,,,5,3,53,9,,,,,,,,,,,,,,,,,,,AMNE12.jpg,AMSA20.jpg,AMSA13.jpg,AMNE17.jpg,AMSA13.jpg,MS,2,num_2,16,num_2,1.63368828561,,,2017_Mar_10_1241,60.0072367673,FEMA4ImagesEEG,001,100032,
AFNE01.JPG,AFNE01.JPG,AFNE01.JPG,AFNE01.JPG,AFNE01.JPG,AFNE01.JPG,,,,,5,4,54,4,,,,,,,,,,,,,,,,,,,AMNE16.jpg,AMSA05.jpg,AMNE12.jpg,AMSA17.jpg,AMNE12.jpg,MN,1,num_2,32,num_4,1.71668361243,,,2017_Mar_10_1241,60.0072367673,FEMA4ImagesEEG,001,100032,
AFNE01.JPG,AFNE01.JPG,AFNE01.JPG,AFNE01.JPG,AFNE01.JPG,AFNE01.JPG,,,,,5,5,55,8,,,,,,,,,,,,,,,,,,,AMNE01.jpg,AMSA01.jpg,AMNE09.jpg,AMSA03.jpg,AMNE01.jpg,MN,1,num_8,32,num_6,1.30009012794,,,2017_Mar_10_1241,60.0072367673,FEMA4ImagesEEG,001,100032,
AFNE01.JPG,AFNE01.JPG,AFNE01.JPG,AFNE01.JPG,AFNE01.JPG,AFNE01.JPG,,,,,5,6,56,3,,,,,,,,,,,,,,,,,,,AMSA20.jpg,AMNE20.jpg,AMNE06.jpg,AMSA02.jpg,AMSA20.jpg,MS,2,num_8,32,num_2,1.36669788536,,,2017_Mar_10_1241,60.0072367673,FEMA4ImagesEEG,001,100032,
AFNE01.JPG,AFNE01.JPG,AFNE01.JPG,AFNE01.JPG,AFNE01.JPG,AFNE01.JPG,,,,,5,7,57,2,,,,,,,,,,,,,,,,,,,AMSA07.jpg,AMNE13.jpg,AMSA14.jpg,AMNE02.jpg,AMNE02.jpg,MN,1,num_4,16,num_4,0.783443079874,,,2017_Mar_10_1241,60.0072367673,FEMA4ImagesEEG,001,100032,
AFNE01.JPG,AFNE01.JPG,AFNE01.JPG,AFNE01.JPG,AFNE01.JPG,AFNE01.JPG,,,,,5,8,58,0,,,,,,,,,,,,,,,,,,,AMSA02.jpg,AMSA06.jpg,AMNE12.jpg,AMNE10.jpg,AMNE10.jpg,MN,1,num_4,16,num_4,1.71671793161,,,2017_Mar_10_1241,60.0072367673,FEMA4ImagesEEG,001,100032,
AFNE01.JPG,AFNE01.JPG,AFNE01.JPG,AFNE01.JPG,AFNE01.JPG,AFNE01.JPG,,,,,5,9,59,6,,,,,,,,,,,,,,,,,,,AMNE13.jpg,AMNE10.jpg,AMSA12.jpg,AMSA04.jpg,AMSA12.jpg,MS,2,num_2,32,num_8,1.25011081567,,,2017_Mar_10_1241,60.0072367673,FEMA4ImagesEEG,001,100032,
,,,,,,,,,,,,,,,,,,,,,,,,,,,,,,,,,,,,,,,,,,,space,67.8613620545,2017_Mar_10_1241,60.0072367673,FEMA4ImagesEEG,001,100032,
AFNE01.JPG,AFNE01.JPG,AFNE01.JPG,AFNE01.JPG,AFNE01.JPG,AFNE01.JPG,,,,,,,,,0,0,0,8,,,,,,,,,,,,,,,AFNE10.jpg,AFSA15.jpg,AFNE08.jpg,AFSA20.jpg,AFNE10.jpg,FN,3,num_8,16,num_8,1.1334749935,,,2017_Mar_10_1241,60.0072367673,FEMA4ImagesEEG,001,100032,
AFNE01.JPG,AFNE01.JPG,AFNE01.JPG,AFNE01.JPG,AFNE01.JPG,AFNE01.JPG,,,,,,,,,0,1,1,2,,,,,,,,,,,,,,,AFSA17.jpg,AFSA06.jpg,AFNE18.jpg,AFNE05.jpg,AFNE18.jpg,FN,3,num_2,16,num_2,2.93332167978,,,2017_Mar_10_1241,60.0072367673,FEMA4ImagesEEG,001,100032,
AFNE01.JPG,AFNE01.JPG,AFNE01.JPG,AFNE01.JPG,AFNE01.JPG,AFNE01.JPG,,,,,,,,,0,2,2,7,,,,,,,,,,,,,,,AFSA04.jpg,AFNE06.jpg,AFNE03.jpg,AFSA19.jpg,AFSA19.jpg,FS,4,num_4,32,num_6,1.53336369672,,,2017_Mar_10_1241,60.0072367673,FEMA4ImagesEEG,001,100032,
AFNE01.JPG,AFNE01.JPG,AFNE01.JPG,AFNE01.JPG,AFNE01.JPG,AFNE01.JPG,,,,,,,,,0,3,3,5,,,,,,,,,,,,,,,AFSA10.jpg,AFNE07.jpg,AFSA20.jpg,AFNE14.jpg,AFSA10.jpg,FS,4,num_8,32,num_4,1.13342559954,,,2017_Mar_10_1241,60.0072367673,FEMA4ImagesEEG,001,100032,
AFNE01.JPG,AFNE01.JPG,AFNE01.JPG,AFNE01.JPG,AFNE01.JPG,AFNE01.JPG,,,,,,,,,0,4,4,9,,,,,,,,,,,,,,,AFSA01.jpg,AFNE07.jpg,AFNE16.jpg,AFSA17.jpg,AFNE16.jpg,FN,3,num_2,32,num_4,1.25008708091,,,2017_Mar_10_1241,60.0072367673,FEMA4ImagesEEG,001,100032,
AFNE01.JPG,AFNE01.JPG,AFNE01.JPG,AFNE01.JPG,AFNE01.JPG,AFNE01.JPG,,,,,,,,,0,5,5,3,,,,,,,,,,,,,,,AFNE11.jpg,AFSA06.jpg,AFSA03.jpg,AFNE03.jpg,AFSA03.jpg,FS,4,num_2,16,num_2,1.73339095962,,,2017_Mar_10_1241,60.0072367673,FEMA4ImagesEEG,001,100032,
AFNE01.JPG,AFNE01.JPG,AFNE01.JPG,AFNE01.JPG,AFNE01.JPG,AFNE01.JPG,,,,,,,,,0,6,6,4,,,,,,,,,,,,,,,AFNE01.jpg,AFNE19.jpg,AFSA09.jpg,AFSA16.jpg,AFSA09.jpg,FS,4,num_2,16,num_2,1.46674567562,,,2017_Mar_10_1241,60.0072367673,FEMA4ImagesEEG,001,100032,
AFNE01.JPG,AFNE01.JPG,AFNE01.JPG,AFNE01.JPG,AFNE01.JPG,AFNE01.JPG,,,,,,,,,0,7,7,1,,,,,,,,,,,,,,,AFSA18.jpg,AFNE13.jpg,AFSA17.jpg,AFNE02.jpg,AFSA18.jpg,FS,4,num_8,32,num_2,3.39960548979,,,2017_Mar_10_1241,60.0072367673,FEMA4ImagesEEG,001,100032,
AFNE01.JPG,AFNE01.JPG,AFNE01.JPG,AFNE01.JPG,AFNE01.JPG,AFNE01.JPG,,,,,,,,,0,8,8,0,,,,,,,,,,,,,,,AFNE10.jpg,AFNE15.jpg,AFSA05.jpg,AFSA03.jpg,AFNE10.jpg,FN,3,num_8,16,num_8,1.01681768176,,,2017_Mar_10_1241,60.0072367673,FEMA4ImagesEEG,001,100032,
AFNE01.JPG,AFNE01.JPG,AFNE01.JPG,AFNE01.JPG,AFNE01.JPG,AFNE01.JPG,,,,,,,,,0,9,9,6,,,,,,,,,,,,,,,AFSA15.jpg,AFSA19.jpg,AFNE08.jpg,AFNE18.jpg,AFSA19.jpg,FS,4,num_6,32,num_4,0.700105202724,,,2017_Mar_10_1241,60.0072367673,FEMA4ImagesEEG,001,100032,
AFNE01.JPG,AFNE01.JPG,AFNE01.JPG,AFNE01.JPG,AFNE01.JPG,AFNE01.JPG,,,,,,,,,1,0,10,8,,,,,,,,,,,,,,,AFNE15.jpg,AFSA11.jpg,AFNE02.jpg,AFSA04.jpg,AFNE15.jpg,FN,3,num_8,16,num_8,1.08369518152,,,2017_Mar_10_1241,60.0072367673,FEMA4ImagesEEG,001,100032,
AFNE01.JPG,AFNE01.JPG,AFNE01.JPG,AFNE01.JPG,AFNE01.JPG,AFNE01.JPG,,,,,,,,,1,1,11,6,,,,,,,,,,,,,,,AFSA01.jpg,AFNE01.jpg,AFNE11.jpg,AFSA11.jpg,AFSA11.jpg,FS,4,num_4,32,num_8,0.766801484385,,,2017_Mar_10_1241,60.0072367673,FEMA4ImagesEEG,001,100032,
AFNE01.JPG,AFNE01.JPG,AFNE01.JPG,AFNE01.JPG,AFNE01.JPG,AFNE01.JPG,,,,,,,,,1,2,12,2,,,,,,,,,,,,,,,AFNE10.jpg,AFSA15.jpg,AFSA17.jpg,AFNE04.jpg,AFNE10.jpg,FN,3,num_8,32,num_4,0.783492153096,,,2017_Mar_10_1241,60.0072367673,FEMA4ImagesEEG,001,100032,
AFNE01.JPG,AFNE01.JPG,AFNE01.JPG,AFNE01.JPG,AFNE01.JPG,AFNE01.JPG,,,,,,,,,1,3,13,4,,,,,,,,,,,,,,,AFNE04.jpg,AFNE17.jpg,AFSA03.jpg,AFSA05.jpg,AFSA05.jpg,FS,4,num_4,16,num_4,1.91669580055,,,2017_Mar_10_1241,60.0072367673,FEMA4ImagesEEG,001,100032,
AFNE01.JPG,AFNE01.JPG,AFNE01.JPG,AFNE01.JPG,AFNE01.JPG,AFNE01.JPG,,,,,,,,,1,4,14,5,,,,,,,,,,,,,,,AFNE11.jpg,AFSA14.jpg,AFSA08.jpg,AFNE20.jpg,AFNE11.jpg,FN,3,num_8,32,num_4,0.783326971989,,,2017_Mar_10_1241,60.0072367673,FEMA4ImagesEEG,001,100032,
AFNE01.JPG,AFNE01.JPG,AFNE01.JPG,AFNE01.JPG,AFNE01.JPG,AFNE01.JPG,,,,,,,,,1,5,15,9,,,,,,,,,,,,,,,AFNE09.jpg,AFNE08.jpg,AFSA07.jpg,AFSA10.jpg,AFNE08.jpg,FN,3,num_6,32,num_8,0.683477078315,,,2017_Mar_10_1241,60.0072367673,FEMA4ImagesEEG,001,100032,
AFNE01.JPG,AFNE01.JPG,AFNE01.JPG,AFNE01.JPG,AFNE01.JPG,AFNE01.JPG,,,,,,,,,1,6,16,3,,,,,,,,,,,,,,,AFSA13.jpg,AFNE09.jpg,AFNE06.jpg,AFSA20.jpg,AFSA13.jpg,FS,4,num_8,32,num_4,1.46673220454,,,2017_Mar_10_1241,60.0072367673,FEMA4ImagesEEG,001,100032,
AFNE01.JPG,AFNE01.JPG,AFNE01.JPG,AFNE01.JPG,AFNE01.JPG,AFNE01.JPG,,,,,,,,,1,7,17,7,,,,,,,,,,,,,,,AFSA17.jpg,AFNE05.jpg,AFSA05.jpg,AFNE18.jpg,AFNE18.jpg,FN,3,num_4,16,num_4,0.783426401394,,,2017_Mar_10_1241,60.0072367673,FEMA4ImagesEEG,001,100032,
AFNE01.JPG,AFNE01.JPG,AFNE01.JPG,AFNE01.JPG,AFNE01.JPG,AFNE01.JPG,,,,,,,,,1,8,18,1,,,,,,,,,,,,,,,AFSA16.jpg,AFSA17.jpg,AFNE19.jpg,AFNE15.jpg,AFNE19.jpg,FN,3,num_2,32,num_8,0.750099589774,,,2017_Mar_10_1241,60.0072367673,FEMA4ImagesEEG,001,100032,
AFNE01.JPG,AFNE01.JPG,AFNE01.JPG,AFNE01.JPG,AFNE01.JPG,AFNE01.JPG,,,,,,,,,1,9,19,0,,,,,,,,,,,,,,,AFNE04.jpg,AFSA17.jpg,AFNE15.jpg,AFSA10.jpg,AFNE04.jpg,FN,3,num_8,32,num_6,0.899980434859,,,2017_Mar_10_1241,60.0072367673,FEMA4ImagesEEG,001,100032,
AFNE01.JPG,AFNE01.JPG,AFNE01.JPG,AFNE01.JPG,AFNE01.JPG,AFNE01.JPG,,,,,,,,,2,0,20,2,,,,,,,,,,,,,,,AFNE17.jpg,AFNE14.jpg,AFSA07.jpg,AFSA18.jpg,AFSA07.jpg,FS,4,num_2,32,num_4,1.65001908403,,,2017_Mar_10_1241,60.0072367673,FEMA4ImagesEEG,001,100032,
AFNE01.JPG,AFNE01.JPG,AFNE01.JPG,AFNE01.JPG,AFNE01.JPG,AFNE01.JPG,,,,,,,,,2,1,21,3,,,,,,,,,,,,,,,AFNE15.jpg,AFSA02.jpg,AFSA13.jpg,AFNE01.jpg,AFSA02.jpg,FS,4,num_6,32,num_4,0.566788654784,,,2017_Mar_10_1241,60.0072367673,FEMA4ImagesEEG,001,100032,
AFNE01.JPG,AFNE01.JPG,AFNE01.JPG,AFNE01.JPG,AFNE01.JPG,AFNE01.JPG,,,,,,,,,2,2,22,7,,,,,,,,,,,,,,,AFSA01.jpg,AFNE11.jpg,AFSA20.jpg,AFNE01.jpg,AFSA01.jpg,FS,4,num_8,32,num_4,0.666797314765,,,2017_Mar_10_1241,60.0072367673,FEMA4ImagesEEG,001,100032,
AFNE01.JPG,AFNE01.JPG,AFNE01.JPG,AFNE01.JPG,AFNE01.JPG,AFNE01.JPG,,,,,,,,,2,3,23,1,,,,,,,,,,,,,,,AFSA11.jpg,AFSA09.jpg,AFNE20.jpg,AFNE08.jpg,AFNE08.jpg,FN,3,num_4,16,num_4,0.600126050825,,,2017_Mar_10_1241,60.0072367673,FEMA4ImagesEEG,001,100032,
AFNE01.JPG,AFNE01.JPG,AFNE01.JPG,AFNE01.JPG,AFNE01.JPG,AFNE01.JPG,,,,,,,,,2,4,24,4,,,,,,,,,,,,,,,AFNE08.jpg,AFSA02.jpg,AFSA03.jpg,AFNE17.jpg,AFSA02.jpg,FS,4,num_6,32,num_4,0.0168112669553,,,2017_Mar_10_1241,60.0072367673,FEMA4ImagesEEG,001,100032,
AFNE01.JPG,AFNE01.JPG,AFNE01.JPG,AFNE01.JPG,AFNE01.JPG,AFNE01.JPG,,,,,,,,,2,5,25,8,,,,,,,,,,,,,,,AFSA03.jpg,AFNE02.jpg,AFNE16.jpg,AFSA07.jpg,AFSA03.jpg,FS,4,num_8,32,num_6,1.08343153323,,,2017_Mar_10_1241,60.0072367673,FEMA4ImagesEEG,001,100032,
AFNE01.JPG,AFNE01.JPG,AFNE01.JPG,AFNE01.JPG,AFNE01.JPG,AFNE01.JPG,,,,,,,,,2,6,26,5,,,,,,,,,,,,,,,AFNE05.jpg,AFSA03.jpg,AFNE11.jpg,AFSA05.jpg,AFNE11.jpg,FN,3,num_2,32,num_4,1.33339929886,,,2017_Mar_10_1241,60.0072367673,FEMA4ImagesEEG,001,100032,
AFNE01.JPG,AFNE01.JPG,AFNE01.JPG,AFNE01.JPG,AFNE01.JPG,AFNE01.JPG,,,,,,,,,2,7,27,6,,,,,,,,,,,,,,,AFNE06.jpg,AFSA20.jpg,AFSA02.jpg,AFNE18.jpg,AFNE06.jpg,FN,3,num_8,16,num_8,0.833439712103,,,2017_Mar_10_1241,60.0072367673,FEMA4ImagesEEG,001,100032,
AFNE01.JPG,AFNE01.JPG,AFNE01.JPG,AFNE01.JPG,AFNE01.JPG,AFNE01.JPG,,,,,,,,,2,8,28,9,,,,,,,,,,,,,,,AFNE18.jpg,AFSA03.jpg,AFNE09.jpg,AFSA12.jpg,AFNE18.jpg,FN,3,num_8,32,num_4,0.866775504443,,,2017_Mar_10_1241,60.0072367673,FEMA4ImagesEEG,001,100032,
AFNE01.JPG,AFNE01.JPG,AFNE01.JPG,AFNE01.JPG,AFNE01.JPG,AFNE01.JPG,,,,,,,,,2,9,29,0,,,,,,,,,,,,,,,AFSA09.jpg,AFNE10.jpg,AFNE04.jpg,AFSA03.jpg,AFSA09.jpg,FS,4,num_8,32,num_4,0.750118513434,,,2017_Mar_10_1241,60.0072367673,FEMA4ImagesEEG,001,100032,
AFNE01.JPG,AFNE01.JPG,AFNE01.JPG,AFNE01.JPG,AFNE01.JPG,AFNE01.JPG,,,,,,,,,3,0,30,1,,,,,,,,,,,,,,,AFSA15.jpg,AFNE10.jpg,AFSA12.jpg,AFNE16.jpg,AFNE10.jpg,FN,3,num_6,32,num_8,0.583446928754,,,2017_Mar_10_1241,60.0072367673,FEMA4ImagesEEG,001,100032,
AFNE01.JPG,AFNE01.JPG,AFNE01.JPG,AFNE01.JPG,AFNE01.JPG,AFNE01.JPG,,,,,,,,,3,1,31,7,,,,,,,,,,,,,,,AFNE06.jpg,AFSA09.jpg,AFSA04.jpg,AFNE16.jpg,AFSA09.jpg,FS,4,num_6,32,num_4,1.46674984524,,,2017_Mar_10_1241,60.0072367673,FEMA4ImagesEEG,001,100032,
AFNE01.JPG,AFNE01.JPG,AFNE01.JPG,AFNE01.JPG,AFNE01.JPG,AFNE01.JPG,,,,,,,,,3,2,32,6,,,,,,,,,,,,,,,AFNE15.jpg,AFSA15.jpg,AFNE01.jpg,AFSA05.jpg,AFSA05.jpg,FS,4,num_4,16,num_4,1.41673461009,,,2017_Mar_10_1241,60.0072367673,FEMA4ImagesEEG,001,100032,
AFNE01.JPG,AFNE01.JPG,AFNE01.JPG,AFNE01.JPG,AFNE01.JPG,AFNE01.JPG,,,,,,,,,3,3,33,2,,,,,,,,,,,,,,,AFNE09.jpg,AFSA03.jpg,AFNE17.jpg,AFSA10.jpg,AFNE09.jpg,FN,3,num_8,16,num_8,0.666814955465,,,2017_Mar_10_1241,60.0072367673,FEMA4ImagesEEG,001,100032,
AFNE01.JPG,AFNE01.JPG,AFNE01.JPG,AFNE01.JPG,AFNE01.JPG,AFNE01.JPG,,,,,,,,,3,4,34,5,,,,,,,,,,,,,,,AFNE11.jpg,AFSA11.jpg,AFNE13.jpg,AFSA14.jpg,AFNE11.jpg,FN,3,num_8,32,num_4,0.516766042613,,,2017_Mar_10_1241,60.0072367673,FEMA4ImagesEEG,001,100032,
AFNE01.JPG,AFNE01.JPG,AFNE01.JPG,AFNE01.JPG,AFNE01.JPG,AFNE01.JPG,,,,,,,,,3,5,35,3,,,,,,,,,,,,,,,AFNE05.jpg,AFSA10.jpg,AFSA09.jpg,AFNE17.jpg,AFSA10.jpg,FS,4,num_6,32,num_2,2.48333755641,,,2017_Mar_10_1241,60.0072367673,FEMA4ImagesEEG,001,100032,
AFNE01.JPG,AFNE01.JPG,AFNE01.JPG,AFNE01.JPG,AFNE01.JPG,AFNE01.JPG,,,,,,,,,3,6,36,8,,,,,,,,,,,,,,,AFSA09.jpg,AFNE10.jpg,AFSA06.jpg,AFNE01.jpg,AFNE01.jpg,FN,3,num_4,32,num_2,1.30007248724,,,2017_Mar_10_1241,60.0072367673,FEMA4ImagesEEG,001,100032,
AFNE01.JPG,AFNE01.JPG,AFNE01.JPG,AFNE01.JPG,AFNE01.JPG,AFNE01.JPG,,,,,,,,,3,7,37,0,,,,,,,,,,,,,,,AFSA04.jpg,AFNE15.jpg,AFSA11.jpg,AFNE07.jpg,AFSA04.jpg,FS,4,num_8,32,num_4,0.733428486204,,,2017_Mar_10_1241,60.0072367673,FEMA4ImagesEEG,001,100032,
AFNE01.JPG,AFNE01.JPG,AFNE01.JPG,AFNE01.JPG,AFNE01.JPG,AFNE01.JPG,,,,,,,,,3,8,38,4,,,,,,,,,,,,,,,AFNE16.jpg,AFSA08.jpg,AFNE19.jpg,AFSA17.jpg,AFSA08.jpg,FS,4,num_6,32,num_8,0.950106646053,,,2017_Mar_10_1241,60.0072367673,FEMA4ImagesEEG,001,100032,
AFNE01.JPG,AFNE01.JPG,AFNE01.JPG,AFNE01.JPG,AFNE01.JPG,AFNE01.JPG,,,,,,,,,3,9,39,9,,,,,,,,,,,,,,,AFNE20.jpg,AFSA13.jpg,AFSA19.jpg,AFNE10.jpg,AFSA13.jpg,FS,4,num_6,32,num_4,1.25009542015,,,2017_Mar_10_1241,60.0072367673,FEMA4ImagesEEG,001,100032,
AFNE01.JPG,AFNE01.JPG,AFNE01.JPG,AFNE01.JPG,AFNE01.JPG,AFNE01.JPG,,,,,,,,,4,0,40,0,,,,,,,,,,,,,,,AFNE16.jpg,AFSA12.jpg,AFSA13.jpg,AFNE04.jpg,AFNE04.jpg,FN,3,num_4,16,num_4,1.18314864054,,,2017_Mar_10_1241,60.0072367673,FEMA4ImagesEEG,001,100032,
AFNE01.JPG,AFNE01.JPG,AFNE01.JPG,AFNE01.JPG,AFNE01.JPG,AFNE01.JPG,,,,,,,,,4,1,41,6,,,,,,,,,,,,,,,AFNE12.jpg,AFSA08.jpg,AFNE06.jpg,AFSA16.jpg,AFSA16.jpg,FS,4,num_4,32,num_8,0.716842378736,,,2017_Mar_10_1241,60.0072367673,FEMA4ImagesEEG,001,100032,
AFNE01.JPG,AFNE01.JPG,AFNE01.JPG,AFNE01.JPG,AFNE01.JPG,AFNE01.JPG,,,,,,,,,4,2,42,3,,,,,,,,,,,,,,,AFSA02.jpg,AFSA10.jpg,AFNE10.jpg,AFNE13.jpg,AFSA10.jpg,FS,4,num_6,32,num_4,1.73340667588,,,2017_Mar_10_1241,60.0072367673,FEMA4ImagesEEG,001,100032,
AFNE01.JPG,AFNE01.JPG,AFNE01.JPG,AFNE01.JPG,AFNE01.JPG,AFNE01.JPG,,,,,,,,,4,3,43,7,,,,,,,,,,,,,,,AFSA05.jpg,AFNE06.jpg,AFSA16.jpg,AFNE04.jpg,AFSA05.jpg,FS,4,num_8,32,num_4,1.05011402307,,,2017_Mar_10_1241,60.0072367673,FEMA4ImagesEEG,001,100032,
AFNE01.JPG,AFNE01.JPG,AFNE01.JPG,AFNE01.JPG,AFNE01.JPG,AFNE01.JPG,,,,,,,,,4,4,44,5,,,,,,,,,,,,,,,AFSA04.jpg,AFSA10.jpg,AFNE05.jpg,AFNE16.jpg,AFSA04.jpg,FS,4,num_8,32,num_4,1.75008002463,,,2017_Mar_10_1241,60.0072367673,FEMA4ImagesEEG,001,100032,
AFNE01.JPG,AFNE01.JPG,AFNE01.JPG,AFNE01.JPG,AFNE01.JPG,AFNE01.JPG,,,,,,,,,4,5,45,4,,,,,,,,,,,,,,,AFSA16.jpg,AFSA12.jpg,AFNE07.jpg,AFNE09.jpg,AFNE09.jpg,FN,3,num_4,48,None,,,,2017_Mar_10_1241,60.0072367673,FEMA4ImagesEEG,001,100032,
AFNE01.JPG,AFNE01.JPG,AFNE01.JPG,AFNE01.JPG,AFNE01.JPG,AFNE01.JPG,,,,,,,,,4,6,46,1,,,,,,,,,,,,,,,AFNE14.jpg,AFSA13.jpg,AFNE15.jpg,AFSA12.jpg,AFSA13.jpg,FS,4,num_6,48,None,,,,2017_Mar_10_1241,60.0072367673,FEMA4ImagesEEG,001,100032,
AFNE01.JPG,AFNE01.JPG,AFNE01.JPG,AFNE01.JPG,AFNE01.JPG,AFNE01.JPG,,,,,,,,,4,7,47,9,,,,,,,,,,,,,,,AFSA11.jpg,AFNE13.jpg,AFNE12.jpg,AFSA18.jpg,AFNE12.jpg,FN,3,num_2,48,None,,,,2017_Mar_10_1241,60.0072367673,FEMA4ImagesEEG,001,100032,
AFNE01.JPG,AFNE01.JPG,AFNE01.JPG,AFNE01.JPG,AFNE01.JPG,AFNE01.JPG,,,,,,,,,4,8,48,2,,,,,,,,,,,,,,,AFNE14.jpg,AFSA18.jpg,AFSA17.jpg,AFNE17.jpg,AFSA18.jpg,FS,4,num_6,48,None,,,,2017_Mar_10_1241,60.0072367673,FEMA4ImagesEEG,001,100032,
AFNE01.JPG,AFNE01.JPG,AFNE01.JPG,AFNE01.JPG,AFNE01.JPG,AFNE01.JPG,,,,,,,,,4,9,49,8,,,,,,,,,,,,,,,AFNE10.jpg,AFSA14.jpg,AFNE17.jpg,AFSA06.jpg,AFSA14.jpg,FS,4,num_6,48,None,,,,2017_Mar_10_1241,60.0072367673,FEMA4ImagesEEG,001,100032,
AFNE01.JPG,AFNE01.JPG,AFNE01.JPG,AFNE01.JPG,AFNE01.JPG,AFNE01.JPG,,,,,,,,,5,0,50,8,,,,,,,,,,,,,,,AFSA05.jpg,AFNE16.jpg,AFNE17.jpg,AFSA11.jpg,AFNE16.jpg,FN,3,num_6,48,None,,,,2017_Mar_10_1241,60.0072367673,FEMA4ImagesEEG,001,100032,
AFNE01.JPG,AFNE01.JPG,AFNE01.JPG,AFNE01.JPG,AFNE01.JPG,AFNE01.JPG,,,,,,,,,5,1,51,7,,,,,,,,,,,,,,,AFSA13.jpg,AFNE15.jpg,AFNE06.jpg,AFSA03.jpg,AFSA03.jpg,FS,4,num_4,48,None,,,,2017_Mar_10_1241,60.0072367673,FEMA4ImagesEEG,001,100032,
AFNE01.JPG,AFNE01.JPG,AFNE01.JPG,AFNE01.JPG,AFNE01.JPG,AFNE01.JPG,,,,,,,,,5,2,52,2,,,,,,,,,,,,,,,AFSA08.jpg,AFNE12.jpg,AFSA11.jpg,AFNE20.jpg,AFNE20.jpg,FN,3,num_4,48,None,,,,2017_Mar_10_1241,60.0072367673,FEMA4ImagesEEG,001,100032,
AFNE01.JPG,AFNE01.JPG,AFNE01.JPG,AFNE01.JPG,AFNE01.JPG,AFNE01.JPG,,,,,,,,,5,3,53,3,,,,,,,,,,,,,,,AFSA17.jpg,AFNE12.jpg,AFSA08.jpg,AFNE17.jpg,AFSA08.jpg,FS,4,num_2,48,None,,,,2017_Mar_10_1241,60.0072367673,FEMA4ImagesEEG,001,100032,
AFNE01.JPG,AFNE01.JPG,AFNE01.JPG,AFNE01.JPG,AFNE01.JPG,AFNE01.JPG,,,,,,,,,5,4,54,9,,,,,,,,,,,,,,,AFSA18.jpg,AFNE06.jpg,AFNE13.jpg,AFSA08.jpg,AFNE13.jpg,FN,3,num_2,48,None,,,,2017_Mar_10_1241,60.0072367673,FEMA4ImagesEEG,001,100032,
AFNE01.JPG,AFNE01.JPG,AFNE01.JPG,AFNE01.JPG,AFNE01.JPG,AFNE01.JPG,,,,,,,,,5,5,55,6,,,,,,,,,,,,,,,AFSA11.jpg,AFSA14.jpg,AFNE20.jpg,AFNE12.jpg,AFNE12.jpg,FN,3,num_4,48,None,,,,2017_Mar_10_1241,60.0072367673,FEMA4ImagesEEG,001,100032,
AFNE01.JPG,AFNE01.JPG,AFNE01.JPG,AFNE01.JPG,AFNE01.JPG,AFNE01.JPG,,,,,,,,,5,6,56,0,,,,,,,,,,,,,,,AFNE09.jpg,AFNE19.jpg,AFSA14.jpg,AFSA08.jpg,AFNE09.jpg,FN,3,num_8,48,None,,,,2017_Mar_10_1241,60.0072367673,FEMA4ImagesEEG,001,100032,
AFNE01.JPG,AFNE01.JPG,AFNE01.JPG,AFNE01.JPG,AFNE01.JPG,AFNE01.JPG,,,,,,,,,5,7,57,5,,,,,,,,,,,,,,,AFNE09.jpg,AFSA06.jpg,AFNE04.jpg,AFSA13.jpg,AFSA13.jpg,FS,4,num_4,48,None,,,,2017_Mar_10_1241,60.0072367673,FEMA4ImagesEEG,001,100032,
AFNE01.JPG,AFNE01.JPG,AFNE01.JPG,AFNE01.JPG,AFNE01.JPG,AFNE01.JPG,,,,,,,,,5,8,58,1,,,,,,,,,,,,,,,AFNE11.jpg,AFSA19.jpg,AFNE17.jpg,AFSA02.jpg,AFNE11.jpg,FN,3,num_8,48,None,,,,2017_Mar_10_1241,60.0072367673,FEMA4ImagesEEG,001,100032,
AFNE01.JPG,AFNE01.JPG,AFNE01.JPG,AFNE01.JPG,AFNE01.JPG,AFNE01.JPG,,,,,,,,,5,9,59,4,,,,,,,,,,,,,,,AFNE08.jpg,AFSA01.jpg,AFSA06.jpg,AFNE05.jpg,AFSA06.jpg,FS,4,num_2,48,None,,,,2017_Mar_10_1241,60.0072367673,FEMA4ImagesEEG,001,100032,
,,,,,,,,,,,,,,,,,,,,,,,,,,,,,,,,,,,,,,,,,,,space,54.0790983357,2017_Mar_10_1241,60.0072367673,FEMA4ImagesEEG,001,100032,
AFNE01.JPG,AFNE01.JPG,AFNE01.JPG,AFNE01.JPG,AFNE01.JPG,AFNE01.JPG,,,,,,,,,,,,,0,0,0,1,,,,,,,,,,,AMNE18.jpg,AMSA20.jpg,AMSA03.jpg,AMNE08.jpg,AMSA20.jpg,MS,2,num_6,48,None,,,,2017_Mar_10_1241,60.0072367673,FEMA4ImagesEEG,001,100032,
AFNE01.JPG,AFNE01.JPG,AFNE01.JPG,AFNE01.JPG,AFNE01.JPG,AFNE01.JPG,,,,,,,,,,,,,0,1,1,0,,,,,,,,,,,AMSA06.jpg,AMSA11.jpg,AMNE14.jpg,AMNE06.jpg,AMSA06.jpg,MS,2,num_8,48,None,,,,2017_Mar_10_1241,60.0072367673,FEMA4ImagesEEG,001,100032,
AFNE01.JPG,AFNE01.JPG,AFNE01.JPG,AFNE01.JPG,AFNE01.JPG,AFNE01.JPG,,,,,,,,,,,,,0,2,2,8,,,,,,,,,,,AMNE16.jpg,AMSA06.jpg,AMNE01.jpg,AMSA07.jpg,AMNE01.jpg,MN,1,num_2,48,None,,,,2017_Mar_10_1241,60.0072367673,FEMA4ImagesEEG,001,100032,
AFNE01.JPG,AFNE01.JPG,AFNE01.JPG,AFNE01.JPG,AFNE01.JPG,AFNE01.JPG,,,,,,,,,,,,,0,3,3,9,,,,,,,,,,,AMNE13.jpg,AMNE14.jpg,AMSA14.jpg,AMSA05.jpg,AMNE14.jpg,MN,1,num_6,48,None,,,,2017_Mar_10_1241,60.0072367673,FEMA4ImagesEEG,001,100032,
AFNE01.JPG,AFNE01.JPG,AFNE01.JPG,AFNE01.JPG,AFNE01.JPG,AFNE01.JPG,,,,,,,,,,,,,0,4,4,5,,,,,,,,,,,AMNE04.jpg,AMSA20.jpg,AMNE20.jpg,AMSA16.jpg,AMNE04.jpg,MN,1,num_8,48,None,,,,2017_Mar_10_1241,60.0072367673,FEMA4ImagesEEG,001,100032,
AFNE01.JPG,AFNE01.JPG,AFNE01.JPG,AFNE01.JPG,AFNE01.JPG,AFNE01.JPG,,,,,,,,,,,,,0,5,5,2,,,,,,,,,,,AMNE09.jpg,AMNE02.jpg,AMSA04.jpg,AMSA08.jpg,AMNE09.jpg,MN,1,num_8,48,None,,,,2017_Mar_10_1241,60.0072367673,FEMA4ImagesEEG,001,100032,
AFNE01.JPG,AFNE01.JPG,AFNE01.JPG,AFNE01.JPG,AFNE01.JPG,AFNE01.JPG,,,,,,,,,,,,,0,6,6,3,,,,,,,,,,,AMSA17.jpg,AMNE12.jpg,AMNE03.jpg,AMSA11.jpg,AMNE12.jpg,MN,1,num_6,48,None,,,,2017_Mar_10_1241,60.0072367673,FEMA4ImagesEEG,001,100032,
AFNE01.JPG,AFNE01.JPG,AFNE01.JPG,AFNE01.JPG,AFNE01.JPG,AFNE01.JPG,,,,,,,,,,,,,0,7,7,6,,,,,,,,,,,AMNE16.jpg,AMSA06.jpg,AMSA18.jpg,AMNE09.jpg,AMNE09.jpg,MN,1,num_4,48,None,,,,2017_Mar_10_1241,60.0072367673,FEMA4ImagesEEG,001,100032,
AFNE01.JPG,AFNE01.JPG,AFNE01.JPG,AFNE01.JPG,AFNE01.JPG,AFNE01.JPG,,,,,,,,,,,,,0,8,8,7,,,,,,,,,,,AMNE06.jpg,AMSA10.jpg,AMNE08.jpg,AMSA20.jpg,AMNE06.jpg,MN,1,num_8,48,None,,,,2017_Mar_10_1241,60.0072367673,FEMA4ImagesEEG,001,100032,
AFNE01.JPG,AFNE01.JPG,AFNE01.JPG,AFNE01.JPG,AFNE01.JPG,AFNE01.JPG,,,,,,,,,,,,,0,9,9,4,,,,,,,,,,,AMNE06.jpg,AMNE04.jpg,AMSA16.jpg,AMSA19.jpg,AMNE06.jpg,MN,1,num_8,48,None,,,,2017_Mar_10_1241,60.0072367673,FEMA4ImagesEEG,001,100032,
AFNE01.JPG,AFNE01.JPG,AFNE01.JPG,AFNE01.JPG,AFNE01.JPG,AFNE01.JPG,,,,,,,,,,,,,1,0,10,0,,,,,,,,,,,AMNE03.jpg,AMSA04.jpg,AMSA19.jpg,AMNE14.jpg,AMSA04.jpg,MS,2,num_6,48,None,,,,2017_Mar_10_1241,60.0072367673,FEMA4ImagesEEG,001,100032,
AFNE01.JPG,AFNE01.JPG,AFNE01.JPG,AFNE01.JPG,AFNE01.JPG,AFNE01.JPG,,,,,,,,,,,,,1,1,11,1,,,,,,,,,,,AMSA12.jpg,AMNE18.jpg,AMNE16.jpg,AMSA03.jpg,AMNE16.jpg,MN,1,num_2,48,None,,,,2017_Mar_10_1241,60.0072367673,FEMA4ImagesEEG,001,100032,
AFNE01.JPG,AFNE01.JPG,AFNE01.JPG,AFNE01.JPG,AFNE01.JPG,AFNE01.JPG,,,,,,,,,,,,,1,2,12,2,,,,,,,,,,,AMNE09.jpg,AMNE17.jpg,AMSA18.jpg,AMSA14.jpg,AMSA18.jpg,MS,2,num_2,48,None,,,,2017_Mar_10_1241,60.0072367673,FEMA4ImagesEEG,001,100032,
AFNE01.JPG,AFNE01.JPG,AFNE01.JPG,AFNE01.JPG,AFNE01.JPG,AFNE01.JPG,,,,,,,,,,,,,1,3,13,7,,,,,,,,,,,AMSA06.jpg,AMNE19.jpg,AMNE09.jpg,AMSA05.jpg,AMNE19.jpg,MN,1,num_6,48,None,,,,2017_Mar_10_1241,60.0072367673,FEMA4ImagesEEG,001,100032,
AFNE01.JPG,AFNE01.JPG,AFNE01.JPG,AFNE01.JPG,AFNE01.JPG,AFNE01.JPG,,,,,,,,,,,,,1,4,14,5,,,,,,,,,,,AMSA14.jpg,AMNE04.jpg,AMNE14.jpg,AMSA04.jpg,AMNE04.jpg,MN,1,num_6,48,None,,,,2017_Mar_10_1241,60.0072367673,FEMA4ImagesEEG,001,100032,
AFNE01.JPG,AFNE01.JPG,AFNE01.JPG,AFNE01.JPG,AFNE01.JPG,AFNE01.JPG,,,,,,,,,,,,,1,5,15,6,,,,,,,,,,,AMNE05.jpg,AMSA19.jpg,AMNE07.jpg,AMSA08.jpg,AMNE05.jpg,MN,1,num_8,48,None,,,,2017_Mar_10_1241,60.0072367673,FEMA4ImagesEEG,001,100032,
AFNE01.JPG,AFNE01.JPG,AFNE01.JPG,AFNE01.JPG,AFNE01.JPG,AFNE01.JPG,,,,,,,,,,,,,1,6,16,3,,,,,,,,,,,AMNE04.jpg,AMSA07.jpg,AMSA15.jpg,AMNE05.jpg,AMNE05.jpg,MN,1,num_4,48,None,,,,2017_Mar_10_1241,60.0072367673,FEMA4ImagesEEG,001,100032,
AFNE01.JPG,AFNE01.JPG,AFNE01.JPG,AFNE01.JPG,AFNE01.JPG,AFNE01.JPG,,,,,,,,,,,,,1,7,17,9,,,,,,,,,,,AMNE01.jpg,AMSA15.jpg,AMSA09.jpg,AMNE20.jpg,AMSA09.jpg,MS,2,num_2,48,None,,,,2017_Mar_10_1241,60.0072367673,FEMA4ImagesEEG,001,100032,
AFNE01.JPG,AFNE01.JPG,AFNE01.JPG,AFNE01.JPG,AFNE01.JPG,AFNE01.JPG,,,,,,,,,,,,,1,8,18,8,,,,,,,,,,,AMSA10.jpg,AMNE14.jpg,AMNE07.jpg,AMSA12.jpg,AMNE14.jpg,MN,1,num_6,48,None,,,,2017_Mar_10_1241,60.0072367673,FEMA4ImagesEEG,001,100032,
AFNE01.JPG,AFNE01.JPG,AFNE01.JPG,AFNE01.JPG,AFNE01.JPG,AFNE01.JPG,,,,,,,,,,,,,1,9,19,4,,,,,,,,,,,AMSA13.jpg,AMNE05.jpg,AMSA17.jpg,AMNE16.jpg,AMNE16.jpg,MN,1,num_4,48,None,,,,2017_Mar_10_1241,60.0072367673,FEMA4ImagesEEG,001,100032,
AFNE01.JPG,AFNE01.JPG,AFNE01.JPG,AFNE01.JPG,AFNE01.JPG,AFNE01.JPG,,,,,,,,,,,,,2,0,20,5,,,,,,,,,,,AMSA20.jpg,AMNE12.jpg,AMNE17.jpg,AMSA12.jpg,AMNE12.jpg,MN,1,num_6,48,None,,,,2017_Mar_10_1241,60.0072367673,FEMA4ImagesEEG,001,100032,
AFNE01.JPG,AFNE01.JPG,AFNE01.JPG,AFNE01.JPG,AFNE01.JPG,AFNE01.JPG,,,,,,,,,,,,,2,1,21,6,,,,,,,,,,,AMSA04.jpg,AMNE05.jpg,AMSA05.jpg,AMNE19.jpg,AMSA04.jpg,MS,2,num_8,48,None,,,,2017_Mar_10_1241,60.0072367673,FEMA4ImagesEEG,001,100032,
AFNE01.JPG,AFNE01.JPG,AFNE01.JPG,AFNE01.JPG,AFNE01.JPG,AFNE01.JPG,,,,,,,,,,,,,2,2,22,1,,,,,,,,,,,AMNE12.jpg,AMNE17.jpg,AMSA07.jpg,AMSA20.jpg,AMNE12.jpg,MN,1,num_8,48,None,,,,2017_Mar_10_1241,60.0072367673,FEMA4ImagesEEG,001,100032,
AFNE01.JPG,AFNE01.JPG,AFNE01.JPG,AFNE01.JPG,AFNE01.JPG,AFNE01.JPG,,,,,,,,,,,,,2,3,23,7,,,,,,,,,,,AMNE09.jpg,AMSA07.jpg,AMSA18.jpg,AMNE12.jpg,AMSA18.jpg,MS,2,num_2,48,None,,,,2017_Mar_10_1241,60.0072367673,FEMA4ImagesEEG,001,100032,
AFNE01.JPG,AFNE01.JPG,AFNE01.JPG,AFNE01.JPG,AFNE01.JPG,AFNE01.JPG,,,,,,,,,,,,,2,4,24,0,,,,,,,,,,,AMNE05.jpg,AMSA19.jpg,AMSA18.jpg,AMNE04.jpg,AMNE05.jpg,MN,1,num_8,48,None,,,,2017_Mar_10_1241,60.0072367673,FEMA4ImagesEEG,001,100032,
AFNE01.JPG,AFNE01.JPG,AFNE01.JPG,AFNE01.JPG,AFNE01.JPG,AFNE01.JPG,,,,,,,,,,,,,2,5,25,3,,,,,,,,,,,AMSA05.jpg,AMSA14.jpg,AMNE09.jpg,AMNE18.jpg,AMNE09.jpg,MN,1,num_2,48,None,,,,2017_Mar_10_1241,60.0072367673,FEMA4ImagesEEG,001,100032,
AFNE01.JPG,AFNE01.JPG,AFNE01.JPG,AFNE01.JPG,AFNE01.JPG,AFNE01.JPG,,,,,,,,,,,,,2,6,26,8,,,,,,,,,,,AMNE19.jpg,AMSA03.jpg,AMSA18.jpg,AMNE11.jpg,AMNE19.jpg,MN,1,num_8,48,None,,,,2017_Mar_10_1241,60.0072367673,FEMA4ImagesEEG,001,100032,
AFNE01.JPG,AFNE01.JPG,AFNE01.JPG,AFNE01.JPG,AFNE01.JPG,AFNE01.JPG,,,,,,,,,,,,,2,7,27,2,,,,,,,,,,,AMNE09.jpg,AMNE02.jpg,AMSA02.jpg,AMSA16.jpg,AMSA02.jpg,MS,2,num_2,48,None,,,,2017_Mar_10_1241,60.0072367673,FEMA4ImagesEEG,001,100032,
AFNE01.JPG,AFNE01.JPG,AFNE01.JPG,AFNE01.JPG,AFNE01.JPG,AFNE01.JPG,,,,,,,,,,,,,2,8,28,4,,,,,,,,,,,AMNE05.jpg,AMSA07.jpg,AMSA10.jpg,AMNE09.jpg,AMNE05.jpg,MN,1,num_8,48,None,,,,2017_Mar_10_1241,60.0072367673,FEMA4ImagesEEG,001,100032,
AFNE01.JPG,AFNE01.JPG,AFNE01.JPG,AFNE01.JPG,AFNE01.JPG,AFNE01.JPG,,,,,,,,,,,,,2,9,29,9,,,,,,,,,,,AMSA09.jpg,AMNE09.jpg,AMSA03.jpg,AMNE15.jpg,AMNE15.jpg,MN,1,num_4,48,None,,,,2017_Mar_10_1241,60.0072367673,FEMA4ImagesEEG,001,100032,
AFNE01.JPG,AFNE01.JPG,AFNE01.JPG,AFNE01.JPG,AFNE01.JPG,AFNE01.JPG,,,,,,,,,,,,,3,0,30,6,,,,,,,,,,,AMNE03.jpg,AMNE05.jpg,AMSA11.jpg,AMSA13.jpg,AMSA11.jpg,MS,2,num_2,48,None,,,,2017_Mar_10_1241,60.0072367673,FEMA4ImagesEEG,001,100032,
AFNE01.JPG,AFNE01.JPG,AFNE01.JPG,AFNE01.JPG,AFNE01.JPG,AFNE01.JPG,,,,,,,,,,,,,3,1,31,7,,,,,,,,,,,AMNE14.jpg,AMSA13.jpg,AMNE11.jpg,AMSA20.jpg,AMSA20.jpg,MS,2,num_4,48,None,,,,2017_Mar_10_1241,60.0072367673,FEMA4ImagesEEG,001,100032,
AFNE01.JPG,AFNE01.JPG,AFNE01.JPG,AFNE01.JPG,AFNE01.JPG,AFNE01.JPG,,,,,,,,,,,,,3,2,32,3,,,,,,,,,,,AMSA09.jpg,AMNE13.jpg,AMNE19.jpg,AMSA01.jpg,AMSA09.jpg,MS,2,num_8,48,None,,,,2017_Mar_10_1241,60.0072367673,FEMA4ImagesEEG,001,100032,
AFNE01.JPG,AFNE01.JPG,AFNE01.JPG,AFNE01.JPG,AFNE01.JPG,AFNE01.JPG,,,,,,,,,,,,,3,3,33,9,,,,,,,,,,,AMSA17.jpg,AMNE10.jpg,AMNE03.jpg,AMSA02.jpg,AMNE03.jpg,MN,1,num_2,48,None,,,,2017_Mar_10_1241,60.0072367673,FEMA4ImagesEEG,001,100032,
AFNE01.JPG,AFNE01.JPG,AFNE01.JPG,AFNE01.JPG,AFNE01.JPG,AFNE01.JPG,,,,,,,,,,,,,3,4,34,1,,,,,,,,,,,AMNE06.jpg,AMNE13.jpg,AMSA19.jpg,AMSA02.jpg,AMSA02.jpg,MS,2,num_4,48,None,,,,2017_Mar_10_1241,60.0072367673,FEMA4ImagesEEG,001,100032,
AFNE01.JPG,AFNE01.JPG,AFNE01.JPG,AFNE01.JPG,AFNE01.JPG,AFNE01.JPG,,,,,,,,,,,,,3,5,35,2,,,,,,,,,,,AMSA11.jpg,AMNE12.jpg,AMNE03.jpg,AMSA19.jpg,AMSA19.jpg,MS,2,num_4,48,None,,,,2017_Mar_10_1241,60.0072367673,FEMA4ImagesEEG,001,100032,
AFNE01.JPG,AFNE01.JPG,AFNE01.JPG,AFNE01.JPG,AFNE01.JPG,AFNE01.JPG,,,,,,,,,,,,,3,6,36,0,,,,,,,,,,,AMNE02.jpg,AMSA09.jpg,AMNE01.jpg,AMSA08.jpg,AMNE01.jpg,MN,1,num_2,48,None,,,,2017_Mar_10_1241,60.0072367673,FEMA4ImagesEEG,001,100032,
AFNE01.JPG,AFNE01.JPG,AFNE01.JPG,AFNE01.JPG,AFNE01.JPG,AFNE01.JPG,,,,,,,,,,,,,3,7,37,5,,,,,,,,,,,AMSA06.jpg,AMNE07.jpg,AMNE06.jpg,AMSA19.jpg,AMSA19.jpg,MS,2,num_4,48,None,,,,2017_Mar_10_1241,60.0072367673,FEMA4ImagesEEG,001,100032,
AFNE01.JPG,AFNE01.JPG,AFNE01.JPG,AFNE01.JPG,AFNE01.JPG,AFNE01.JPG,,,,,,,,,,,,,3,8,38,8,,,,,,,,,,,AMNE02.jpg,AMSA08.jpg,AMSA02.jpg,AMNE08.jpg,AMSA02.jpg,MS,2,num_2,48,None,,,,2017_Mar_10_1241,60.0072367673,FEMA4ImagesEEG,001,100032,
AFNE01.JPG,AFNE01.JPG,AFNE01.JPG,AFNE01.JPG,AFNE01.JPG,AFNE01.JPG,,,,,,,,,,,,,3,9,39,4,,,,,,,,,,,AMSA11.jpg,AMSA12.jpg,AMNE11.jpg,AMNE01.jpg,AMNE01.jpg,MN,1,num_4,48,None,,,,2017_Mar_10_1241,60.0072367673,FEMA4ImagesEEG,001,100032,
AFNE01.JPG,AFNE01.JPG,AFNE01.JPG,AFNE01.JPG,AFNE01.JPG,AFNE01.JPG,,,,,,,,,,,,,4,0,40,3,,,,,,,,,,,AMNE09.jpg,AMSA10.jpg,AMNE17.jpg,AMSA19.jpg,AMNE17.jpg,MN,1,num_2,48,None,,,,2017_Mar_10_1241,60.0072367673,FEMA4ImagesEEG,001,100032,
AFNE01.JPG,AFNE01.JPG,AFNE01.JPG,AFNE01.JPG,AFNE01.JPG,AFNE01.JPG,,,,,,,,,,,,,4,1,41,5,,,,,,,,,,,AMNE10.jpg,AMNE19.jpg,AMSA02.jpg,AMSA18.jpg,AMNE10.jpg,MN,1,num_8,48,None,,,,2017_Mar_10_1241,60.0072367673,FEMA4ImagesEEG,001,100032,
AFNE01.JPG,AFNE01.JPG,AFNE01.JPG,AFNE01.JPG,AFNE01.JPG,AFNE01.JPG,,,,,,,,,,,,,4,2,42,2,,,,,,,,,,,AMNE05.jpg,AMSA02.jpg,AMNE04.jpg,AMSA12.jpg,AMSA12.jpg,MS,2,num_4,48,None,,,,2017_Mar_10_1241,60.0072367673,FEMA4ImagesEEG,001,100032,
AFNE01.JPG,AFNE01.JPG,AFNE01.JPG,AFNE01.JPG,AFNE01.JPG,AFNE01.JPG,,,,,,,,,,,,,4,3,43,6,,,,,,,,,,,AMNE09.jpg,AMSA10.jpg,AMNE06.jpg,AMSA02.jpg,AMSA02.jpg,MS,2,num_4,48,None,,,,2017_Mar_10_1241,60.0072367673,FEMA4ImagesEEG,001,100032,
AFNE01.JPG,AFNE01.JPG,AFNE01.JPG,AFNE01.JPG,AFNE01.JPG,AFNE01.JPG,,,,,,,,,,,,,4,4,44,4,,,,,,,,,,,AMNE01.jpg,AMSA01.jpg,AMSA17.jpg,AMNE15.jpg,AMNE15.jpg,MN,1,num_4,48,None,,,,2017_Mar_10_1241,60.0072367673,FEMA4ImagesEEG,001,100032,
AFNE01.JPG,AFNE01.JPG,AFNE01.JPG,AFNE01.JPG,AFNE01.JPG,AFNE01.JPG,,,,,,,,,,,,,4,5,45,9,,,,,,,,,,,AMNE17.jpg,AMSA08.jpg,AMSA02.jpg,AMNE19.jpg,AMNE17.jpg,MN,1,num_8,48,None,,,,2017_Mar_10_1241,60.0072367673,FEMA4ImagesEEG,001,100032,
AFNE01.JPG,AFNE01.JPG,AFNE01.JPG,AFNE01.JPG,AFNE01.JPG,AFNE01.JPG,,,,,,,,,,,,,4,6,46,8,,,,,,,,,,,AMSA18.jpg,AMSA06.jpg,AMNE01.jpg,AMNE20.jpg,AMNE01.jpg,MN,1,num_2,48,None,,,,2017_Mar_10_1241,60.0072367673,FEMA4ImagesEEG,001,100032,
AFNE01.JPG,AFNE01.JPG,AFNE01.JPG,AFNE01.JPG,AFNE01.JPG,AFNE01.JPG,,,,,,,,,,,,,4,7,47,1,,,,,,,,,,,AMNE12.jpg,AMNE14.jpg,AMSA03.jpg,AMSA01.jpg,AMSA03.jpg,MS,2,num_2,48,None,,,,2017_Mar_10_1241,60.0072367673,FEMA4ImagesEEG,001,100032,
AFNE01.JPG,AFNE01.JPG,AFNE01.JPG,AFNE01.JPG,AFNE01.JPG,AFNE01.JPG,,,,,,,,,,,,,4,8,48,7,,,,,,,,,,,AMSA02.jpg,AMNE18.jpg,AMSA17.jpg,AMNE12.jpg,AMNE18.jpg,MN,1,num_6,48,None,,,,2017_Mar_10_1241,60.0072367673,FEMA4ImagesEEG,001,100032,
AFNE01.JPG,AFNE01.JPG,AFNE01.JPG,AFNE01.JPG,AFNE01.JPG,AFNE01.JPG,,,,,,,,,,,,,4,9,49,0,,,,,,,,,,,AMSA07.jpg,AMSA10.jpg,AMNE02.jpg,AMNE04.jpg,AMSA07.jpg,MS,2,num_8,48,None,,,,2017_Mar_10_1241,60.0072367673,FEMA4ImagesEEG,001,100032,
AFNE01.JPG,AFNE01.JPG,AFNE01.JPG,AFNE01.JPG,AFNE01.JPG,AFNE01.JPG,,,,,,,,,,,,,5,0,50,6,,,,,,,,,,,AMNE09.jpg,AMNE12.jpg,AMSA13.jpg,AMSA07.jpg,AMSA07.jpg,MS,2,num_4,48,None,,,,2017_Mar_10_1241,60.0072367673,FEMA4ImagesEEG,001,100032,
AFNE01.JPG,AFNE01.JPG,AFNE01.JPG,AFNE01.JPG,AFNE01.JPG,AFNE01.JPG,,,,,,,,,,,,,5,1,51,7,,,,,,,,,,,AMSA12.jpg,AMSA19.jpg,AMNE19.jpg,AMNE09.jpg,AMNE19.jpg,MN,1,num_2,48,None,,,,2017_Mar_10_1241,60.0072367673,FEMA4ImagesEEG,001,100032,
AFNE01.JPG,AFNE01.JPG,AFNE01.JPG,AFNE01.JPG,AFNE01.JPG,AFNE01.JPG,,,,,,,,,,,,,5,2,52,5,,,,,,,,,,,AMNE06.jpg,AMNE14.jpg,AMSA02.jpg,AMSA17.jpg,AMSA02.jpg,MS,2,num_2,48,None,,,,2017_Mar_10_1241,60.0072367673,FEMA4ImagesEEG,001,100032,
AFNE01.JPG,AFNE01.JPG,AFNE01.JPG,AFNE01.JPG,AFNE01.JPG,AFNE01.JPG,,,,,,,,,,,,,5,3,53,1,,,,,,,,,,,AMNE14.jpg,AMNE20.jpg,AMSA01.jpg,AMSA14.jpg,AMSA01.jpg,MS,2,num_2,48,None,,,,2017_Mar_10_1241,60.0072367673,FEMA4ImagesEEG,001,100032,
AFNE01.JPG,AFNE01.JPG,AFNE01.JPG,AFNE01.JPG,AFNE01.JPG,AFNE01.JPG,,,,,,,,,,,,,5,4,54,4,,,,,,,,,,,AMSA01.jpg,AMNE15.jpg,AMNE04.jpg,AMSA18.jpg,AMNE04.jpg,MN,1,num_2,48,None,,,,2017_Mar_10_1241,60.0072367673,FEMA4ImagesEEG,001,100032,
AFNE01.JPG,AFNE01.JPG,AFNE01.JPG,AFNE01.JPG,AFNE01.JPG,AFNE01.JPG,,,,,,,,,,,,,5,5,55,2,,,,,,,,,,,AMSA10.jpg,AMNE13.jpg,AMNE09.jpg,AMSA14.jpg,AMSA14.jpg,MS,2,num_4,48,None,,,,2017_Mar_10_1241,60.0072367673,FEMA4ImagesEEG,001,100032,
AFNE01.JPG,AFNE01.JPG,AFNE01.JPG,AFNE01.JPG,AFNE01.JPG,AFNE01.JPG,,,,,,,,,,,,,5,6,56,9,,,,,,,,,,,AMNE12.jpg,AMSA12.jpg,AMSA09.jpg,AMNE14.jpg,AMSA09.jpg,MS,2,num_2,48,None,,,,2017_Mar_10_1241,60.0072367673,FEMA4ImagesEEG,001,100032,
AFNE01.JPG,AFNE01.JPG,AFNE01.JPG,AFNE01.JPG,AFNE01.JPG,AFNE01.JPG,,,,,,,,,,,,,5,7,57,8,,,,,,,,,,,AMSA05.jpg,AMNE12.jpg,AMNE04.jpg,AMSA18.jpg,AMSA18.jpg,MS,2,num_4,48,None,,,,2017_Mar_10_1241,60.0072367673,FEMA4ImagesEEG,001,100032,
AFNE01.JPG,AFNE01.JPG,AFNE01.JPG,AFNE01.JPG,AFNE01.JPG,AFNE01.JPG,,,,,,,,,,,,,5,8,58,3,,,,,,,,,,,AMNE05.jpg,AMSA04.jpg,AMNE12.jpg,AMSA02.jpg,AMSA02.jpg,MS,2,num_4,48,None,,,,2017_Mar_10_1241,60.0072367673,FEMA4ImagesEEG,001,100032,
AFNE01.JPG,AFNE01.JPG,AFNE01.JPG,AFNE01.JPG,AFNE01.JPG,AFNE01.JPG,,,,,,,,,,,,,5,9,59,0,,,,,,,,,,,AMNE05.jpg,AMNE20.jpg,AMSA12.jpg,AMSA14.jpg,AMSA12.jpg,MS,2,num_2,48,None,,,,2017_Mar_10_1241,60.0072367673,FEMA4ImagesEEG,001,100032,
,,,,,,,,,,,,,,,,,,,,,,,,,,,,,,,,,,,,,,,,,,,space,42.3301835595,2017_Mar_10_1241,60.0072367673,FEMA4ImagesEEG,001,100032,
AFNE01.JPG,AFNE01.JPG,AFNE01.JPG,AFNE01.JPG,AFNE01.JPG,AFNE01.JPG,,,,,,,,,,,,,,,,,0,0,0,8,,,,,,,AFSA04.jpg,AFNE08.jpg,AFNE10.jpg,AFSA17.jpg,AFNE10.jpg,FN,3,num_2,48,None,,,,2017_Mar_10_1241,60.0072367673,FEMA4ImagesEEG,001,100032,
AFNE01.JPG,AFNE01.JPG,AFNE01.JPG,AFNE01.JPG,AFNE01.JPG,AFNE01.JPG,,,,,,,,,,,,,,,,,0,1,1,5,,,,,,,AFSA20.jpg,AFNE16.jpg,AFSA09.jpg,AFNE09.jpg,AFSA09.jpg,FS,4,num_2,48,None,,,,2017_Mar_10_1241,60.0072367673,FEMA4ImagesEEG,001,100032,
AFNE01.JPG,AFNE01.JPG,AFNE01.JPG,AFNE01.JPG,AFNE01.JPG,AFNE01.JPG,,,,,,,,,,,,,,,,,0,2,2,4,,,,,,,AFNE11.jpg,AFSA13.jpg,AFNE12.jpg,AFSA09.jpg,AFSA13.jpg,FS,4,num_6,48,None,,,,2017_Mar_10_1241,60.0072367673,FEMA4ImagesEEG,001,100032,
AFNE01.JPG,AFNE01.JPG,AFNE01.JPG,AFNE01.JPG,AFNE01.JPG,AFNE01.JPG,,,,,,,,,,,,,,,,,0,3,3,1,,,,,,,AFSA09.jpg,AFNE16.jpg,AFSA07.jpg,AFNE10.jpg,AFNE16.jpg,FN,3,num_6,48,None,,,,2017_Mar_10_1241,60.0072367673,FEMA4ImagesEEG,001,100032,
AFNE01.JPG,AFNE01.JPG,AFNE01.JPG,AFNE01.JPG,AFNE01.JPG,AFNE01.JPG,,,,,,,,,,,,,,,,,0,4,4,6,,,,,,,AFNE10.jpg,AFNE05.jpg,AFSA09.jpg,AFSA05.jpg,AFNE10.jpg,FN,3,num_8,48,None,,,,2017_Mar_10_1241,60.0072367673,FEMA4ImagesEEG,001,100032,
AFNE01.JPG,AFNE01.JPG,AFNE01.JPG,AFNE01.JPG,AFNE01.JPG,AFNE01.JPG,,,,,,,,,,,,,,,,,0,5,5,0,,,,,,,AFSA16.jpg,AFNE05.jpg,AFSA11.jpg,AFNE12.jpg,AFSA11.jpg,FS,4,num_2,48,None,,,,2017_Mar_10_1241,60.0072367673,FEMA4ImagesEEG,001,100032,
AFNE01.JPG,AFNE01.JPG,AFNE01.JPG,AFNE01.JPG,AFNE01.JPG,AFNE01.JPG,,,,,,,,,,,,,,,,,0,6,6,3,,,,,,,AFNE01.jpg,AFSA07.jpg,AFNE11.jpg,AFSA11.jpg,AFNE11.jpg,FN,3,num_2,48,None,,,,2017_Mar_10_1241,60.0072367673,FEMA4ImagesEEG,001,100032,
AFNE01.JPG,AFNE01.JPG,AFNE01.JPG,AFNE01.JPG,AFNE01.JPG,AFNE01.JPG,,,,,,,,,,,,,,,,,0,7,7,7,,,,,,,AFSA20.jpg,AFSA19.jpg,AFNE17.jpg,AFNE20.jpg,AFSA20.jpg,FS,4,num_8,48,None,,,,2017_Mar_10_1241,60.0072367673,FEMA4ImagesEEG,001,100032,
AFNE01.JPG,AFNE01.JPG,AFNE01.JPG,AFNE01.JPG,AFNE01.JPG,AFNE01.JPG,,,,,,,,,,,,,,,,,0,8,8,9,,,,,,,AFNE12.jpg,AFSA05.jpg,AFSA12.jpg,AFNE06.jpg,AFSA05.jpg,FS,4,num_6,48,None,,,,2017_Mar_10_1241,60.0072367673,FEMA4ImagesEEG,001,100032,
AFNE01.JPG,AFNE01.JPG,AFNE01.JPG,AFNE01.JPG,AFNE01.JPG,AFNE01.JPG,,,,,,,,,,,,,,,,,0,9,9,2,,,,,,,AFSA12.jpg,AFSA03.jpg,AFNE07.jpg,AFNE16.jpg,AFNE16.jpg,FN,3,num_4,48,None,,,,2017_Mar_10_1241,60.0072367673,FEMA4ImagesEEG,001,100032,
AFNE01.JPG,AFNE01.JPG,AFNE01.JPG,AFNE01.JPG,AFNE01.JPG,AFNE01.JPG,,,,,,,,,,,,,,,,,1,0,10,3,,,,,,,AFSA18.jpg,AFNE02.jpg,AFNE18.jpg,AFSA04.jpg,AFSA04.jpg,FS,4,num_4,48,None,,,,2017_Mar_10_1241,60.0072367673,FEMA4ImagesEEG,001,100032,
AFNE01.JPG,AFNE01.JPG,AFNE01.JPG,AFNE01.JPG,AFNE01.JPG,AFNE01.JPG,,,,,,,,,,,,,,,,,1,1,11,2,,,,,,,AFSA18.jpg,AFNE13.jpg,AFNE11.jpg,AFSA01.jpg,AFSA18.jpg,FS,4,num_8,48,None,,,,2017_Mar_10_1241,60.0072367673,FEMA4ImagesEEG,001,100032,
AFNE01.JPG,AFNE01.JPG,AFNE01.JPG,AFNE01.JPG,AFNE01.JPG,AFNE01.JPG,,,,,,,,,,,,,,,,,1,2,12,0,,,,,,,AFNE04.jpg,AFNE05.jpg,AFSA03.jpg,AFSA12.jpg,AFNE05.jpg,FN,3,num_6,48,None,,,,2017_Mar_10_1241,60.0072367673,FEMA4ImagesEEG,001,100032,
AFNE01.JPG,AFNE01.JPG,AFNE01.JPG,AFNE01.JPG,AFNE01.JPG,AFNE01.JPG,,,,,,,,,,,,,,,,,1,3,13,7,,,,,,,AFNE11.jpg,AFSA20.jpg,AFSA14.jpg,AFNE05.jpg,AFSA14.jpg,FS,4,num_2,48,None,,,,2017_Mar_10_1241,60.0072367673,FEMA4ImagesEEG,001,100032,
AFNE01.JPG,AFNE01.JPG,AFNE01.JPG,AFNE01.JPG,AFNE01.JPG,AFNE01.JPG,,,,,,,,,,,,,,,,,1,4,14,6,,,,,,,AFSA17.jpg,AFSA16.jpg,AFNE05.jpg,AFNE03.jpg,AFNE03.jpg,FN,3,num_4,48,None,,,,2017_Mar_10_1241,60.0072367673,FEMA4ImagesEEG,001,100032,
AFNE01.JPG,AFNE01.JPG,AFNE01.JPG,AFNE01.JPG,AFNE01.JPG,AFNE01.JPG,,,,,,,,,,,,,,,,,1,5,15,5,,,,,,,AFSA19.jpg,AFNE13.jpg,AFSA05.jpg,AFNE19.jpg,AFNE13.jpg,FN,3,num_6,48,None,,,,2017_Mar_10_1241,60.0072367673,FEMA4ImagesEEG,001,100032,
AFNE01.JPG,AFNE01.JPG,AFNE01.JPG,AFNE01.JPG,AFNE01.JPG,AFNE01.JPG,,,,,,,,,,,,,,,,,1,6,16,4,,,,,,,AFSA18.jpg,AFNE19.jpg,AFNE12.jpg,AFSA13.jpg,AFNE19.jpg,FN,3,num_6,48,None,,,,2017_Mar_10_1241,60.0072367673,FEMA4ImagesEEG,001,100032,
AFNE01.JPG,AFNE01.JPG,AFNE01.JPG,AFNE01.JPG,AFNE01.JPG,AFNE01.JPG,,,,,,,,,,,,,,,,,1,7,17,9,,,,,,,AFNE06.jpg,AFSA16.jpg,AFSA18.jpg,AFNE05.jpg,AFNE05.jpg,FN,3,num_4,48,None,,,,2017_Mar_10_1241,60.0072367673,FEMA4ImagesEEG,001,100032,
AFNE01.JPG,AFNE01.JPG,AFNE01.JPG,AFNE01.JPG,AFNE01.JPG,AFNE01.JPG,,,,,,,,,,,,,,,,,1,8,18,1,,,,,,,AFNE16.jpg,AFSA09.jpg,AFNE04.jpg,AFSA18.jpg,AFSA09.jpg,FS,4,num_6,48,None,,,,2017_Mar_10_1241,60.0072367673,FEMA4ImagesEEG,001,100032,
AFNE01.JPG,AFNE01.JPG,AFNE01.JPG,AFNE01.JPG,AFNE01.JPG,AFNE01.JPG,,,,,,,,,,,,,,,,,1,9,19,8,,,,,,,AFNE18.jpg,AFSA18.jpg,AFSA09.jpg,AFNE03.jpg,AFNE18.jpg,FN,3,num_8,48,None,,,,2017_Mar_10_1241,60.0072367673,FEMA4ImagesEEG,001,100032,
AFNE01.JPG,AFNE01.JPG,AFNE01.JPG,AFNE01.JPG,AFNE01.JPG,AFNE01.JPG,,,,,,,,,,,,,,,,,2,0,20,9,,,,,,,AFNE01.jpg,AFSA01.jpg,AFSA11.jpg,AFNE11.jpg,AFSA01.jpg,FS,4,num_6,48,None,,,,2017_Mar_10_1241,60.0072367673,FEMA4ImagesEEG,001,100032,
AFNE01.JPG,AFNE01.JPG,AFNE01.JPG,AFNE01.JPG,AFNE01.JPG,AFNE01.JPG,,,,,,,,,,,,,,,,,2,1,21,5,,,,,,,AFNE13.jpg,AFSA14.jpg,AFNE11.jpg,AFSA06.jpg,AFSA06.jpg,FS,4,num_4,48,None,,,,2017_Mar_10_1241,60.0072367673,FEMA4ImagesEEG,001,100032,
AFNE01.JPG,AFNE01.JPG,AFNE01.JPG,AFNE01.JPG,AFNE01.JPG,AFNE01.JPG,,,,,,,,,,,,,,,,,2,2,22,1,,,,,,,AFSA05.jpg,AFSA09.jpg,AFNE04.jpg,AFNE16.jpg,AFNE16.jpg,FN,3,num_4,48,None,,,,2017_Mar_10_1241,60.0072367673,FEMA4ImagesEEG,001,100032,
AFNE01.JPG,AFNE01.JPG,AFNE01.JPG,AFNE01.JPG,AFNE01.JPG,AFNE01.JPG,,,,,,,,,,,,,,,,,2,3,23,3,,,,,,,AFNE16.jpg,AFSA09.jpg,AFSA18.jpg,AFNE12.jpg,AFSA09.jpg,FS,4,num_6,48,None,,,,2017_Mar_10_1241,60.0072367673,FEMA4ImagesEEG,001,100032,
AFNE01.JPG,AFNE01.JPG,AFNE01.JPG,AFNE01.JPG,AFNE01.JPG,AFNE01.JPG,,,,,,,,,,,,,,,,,2,4,24,8,,,,,,,AFSA06.jpg,AFNE12.jpg,AFSA03.jpg,AFNE10.jpg,AFSA06.jpg,FS,4,num_8,48,None,,,,2017_Mar_10_1241,60.0072367673,FEMA4ImagesEEG,001,100032,
AFNE01.JPG,AFNE01.JPG,AFNE01.JPG,AFNE01.JPG,AFNE01.JPG,AFNE01.JPG,,,,,,,,,,,,,,,,,2,5,25,7,,,,,,,AFSA09.jpg,AFNE06.jpg,AFNE03.jpg,AFSA10.jpg,AFSA10.jpg,FS,4,num_4,48,None,,,,2017_Mar_10_1241,60.0072367673,FEMA4ImagesEEG,001,100032,
AFNE01.JPG,AFNE01.JPG,AFNE01.JPG,AFNE01.JPG,AFNE01.JPG,AFNE01.JPG,,,,,,,,,,,,,,,,,2,6,26,2,,,,,,,AFSA02.jpg,AFNE09.jpg,AFNE12.jpg,AFSA08.jpg,AFSA08.jpg,FS,4,num_4,48,None,,,,2017_Mar_10_1241,60.0072367673,FEMA4ImagesEEG,001,100032,
AFNE01.JPG,AFNE01.JPG,AFNE01.JPG,AFNE01.JPG,AFNE01.JPG,AFNE01.JPG,,,,,,,,,,,,,,,,,2,7,27,0,,,,,,,AFNE13.jpg,AFNE10.jpg,AFSA19.jpg,AFSA18.jpg,AFNE13.jpg,FN,3,num_8,48,None,,,,2017_Mar_10_1241,60.0072367673,FEMA4ImagesEEG,001,100032,
AFNE01.JPG,AFNE01.JPG,AFNE01.JPG,AFNE01.JPG,AFNE01.JPG,AFNE01.JPG,,,,,,,,,,,,,,,,,2,8,28,6,,,,,,,AFSA19.jpg,AFNE11.jpg,AFNE10.jpg,AFSA04.jpg,AFNE11.jpg,FN,3,num_6,48,None,,,,2017_Mar_10_1241,60.0072367673,FEMA4ImagesEEG,001,100032,
AFNE01.JPG,AFNE01.JPG,AFNE01.JPG,AFNE01.JPG,AFNE01.JPG,AFNE01.JPG,,,,,,,,,,,,,,,,,2,9,29,4,,,,,,,AFNE17.jpg,AFSA01.jpg,AFSA10.jpg,AFNE10.jpg,AFSA10.jpg,FS,4,num_2,48,None,,,,2017_Mar_10_1241,60.0072367673,FEMA4ImagesEEG,001,100032,
AFNE01.JPG,AFNE01.JPG,AFNE01.JPG,AFNE01.JPG,AFNE01.JPG,AFNE01.JPG,,,,,,,,,,,,,,,,,3,0,30,9,,,,,,,AFNE06.jpg,AFSA18.jpg,AFNE01.jpg,AFSA13.jpg,AFNE06.jpg,FN,3,num_8,48,None,,,,2017_Mar_10_1241,60.0072367673,FEMA4ImagesEEG,001,100032,
AFNE01.JPG,AFNE01.JPG,AFNE01.JPG,AFNE01.JPG,AFNE01.JPG,AFNE01.JPG,,,,,,,,,,,,,,,,,3,1,31,6,,,,,,,AFNE08.jpg,AFSA04.jpg,AFNE09.jpg,AFSA14.jpg,AFNE09.jpg,FN,3,num_2,48,None,,,,2017_Mar_10_1241,60.0072367673,FEMA4ImagesEEG,001,100032,
AFNE01.JPG,AFNE01.JPG,AFNE01.JPG,AFNE01.JPG,AFNE01.JPG,AFNE01.JPG,,,,,,,,,,,,,,,,,3,2,32,2,,,,,,,AFNE02.jpg,AFNE15.jpg,AFSA12.jpg,AFSA18.jpg,AFNE15.jpg,FN,3,num_6,48,None,,,,2017_Mar_10_1241,60.0072367673,FEMA4ImagesEEG,001,100032,
AFNE01.JPG,AFNE01.JPG,AFNE01.JPG,AFNE01.JPG,AFNE01.JPG,AFNE01.JPG,,,,,,,,,,,,,,,,,3,3,33,3,,,,,,,AFSA10.jpg,AFNE05.jpg,AFNE17.jpg,AFSA07.jpg,AFNE17.jpg,FN,3,num_2,48,None,,,,2017_Mar_10_1241,60.0072367673,FEMA4ImagesEEG,001,100032,
AFNE01.JPG,AFNE01.JPG,AFNE01.JPG,AFNE01.JPG,AFNE01.JPG,AFNE01.JPG,,,,,,,,,,,,,,,,,3,4,34,7,,,,,,,AFNE01.jpg,AFSA11.jpg,AFSA07.jpg,AFNE03.jpg,AFNE01.jpg,FN,3,num_8,48,None,,,,2017_Mar_10_1241,60.0072367673,FEMA4ImagesEEG,001,100032,
AFNE01.JPG,AFNE01.JPG,AFNE01.JPG,AFNE01.JPG,AFNE01.JPG,AFNE01.JPG,,,,,,,,,,,,,,,,,3,5,35,1,,,,,,,AFSA08.jpg,AFSA13.jpg,AFNE20.jpg,AFNE18.jpg,AFNE20.jpg,FN,3,num_2,48,None,,,,2017_Mar_10_1241,60.0072367673,FEMA4ImagesEEG,001,100032,
AFNE01.JPG,AFNE01.JPG,AFNE01.JPG,AFNE01.JPG,AFNE01.JPG,AFNE01.JPG,,,,,,,,,,,,,,,,,3,6,36,8,,,,,,,AFNE08.jpg,AFNE04.jpg,AFSA08.jpg,AFSA03.jpg,AFNE08.jpg,FN,3,num_8,48,None,,,,2017_Mar_10_1241,60.0072367673,FEMA4ImagesEEG,001,100032,
AFNE01.JPG,AFNE01.JPG,AFNE01.JPG,AFNE01.JPG,AFNE01.JPG,AFNE01.JPG,,,,,,,,,,,,,,,,,3,7,37,5,,,,,,,AFNE10.jpg,AFNE03.jpg,AFSA15.jpg,AFSA09.jpg,AFNE03.jpg,FN,3,num_6,48,None,,,,2017_Mar_10_1241,60.0072367673,FEMA4ImagesEEG,001,100032,
AFNE01.JPG,AFNE01.JPG,AFNE01.JPG,AFNE01.JPG,AFNE01.JPG,AFNE01.JPG,,,,,,,,,,,,,,,,,3,8,38,4,,,,,,,AFSA07.jpg,AFNE05.jpg,AFNE12.jpg,AFSA12.jpg,AFNE05.jpg,FN,3,num_6,48,None,,,,2017_Mar_10_1241,60.0072367673,FEMA4ImagesEEG,001,100032,
AFNE01.JPG,AFNE01.JPG,AFNE01.JPG,AFNE01.JPG,AFNE01.JPG,AFNE01.JPG,,,,,,,,,,,,,,,,,3,9,39,0,,,,,,,AFNE15.jpg,AFNE19.jpg,AFSA04.jpg,AFSA03.jpg,AFNE19.jpg,FN,3,num_6,48,None,,,,2017_Mar_10_1241,60.0072367673,FEMA4ImagesEEG,001,100032,
AFNE01.JPG,AFNE01.JPG,AFNE01.JPG,AFNE01.JPG,AFNE01.JPG,AFNE01.JPG,,,,,,,,,,,,,,,,,4,0,40,0,,,,,,,AFSA10.jpg,AFNE15.jpg,AFSA18.jpg,AFNE02.jpg,AFNE15.jpg,FN,3,num_6,48,None,,,,2017_Mar_10_1241,60.0072367673,FEMA4ImagesEEG,001,100032,
AFNE01.JPG,AFNE01.JPG,AFNE01.JPG,AFNE01.JPG,AFNE01.JPG,AFNE01.JPG,,,,,,,,,,,,,,,,,4,1,41,7,,,,,,,AFNE18.jpg,AFSA03.jpg,AFNE02.jpg,AFSA17.jpg,AFSA17.jpg,FS,4,num_4,48,None,,,,2017_Mar_10_1241,60.0072367673,FEMA4ImagesEEG,001,100032,
AFNE01.JPG,AFNE01.JPG,AFNE01.JPG,AFNE01.JPG,AFNE01.JPG,AFNE01.JPG,,,,,,,,,,,,,,,,,4,2,42,2,,,,,,,AFNE01.jpg,AFSA19.jpg,AFNE15.jpg,AFSA05.jpg,AFNE01.jpg,FN,3,num_8,48,None,,,,2017_Mar_10_1241,60.0072367673,FEMA4ImagesEEG,001,100032,
AFNE01.JPG,AFNE01.JPG,AFNE01.JPG,AFNE01.JPG,AFNE01.JPG,AFNE01.JPG,,,,,,,,,,,,,,,,,4,3,43,3,,,,,,,AFSA18.jpg,AFNE11.jpg,AFSA17.jpg,AFNE01.jpg,AFNE11.jpg,FN,3,num_6,48,None,,,,2017_Mar_10_1241,60.0072367673,FEMA4ImagesEEG,001,100032,
AFNE01.JPG,AFNE01.JPG,AFNE01.JPG,AFNE01.JPG,AFNE01.JPG,AFNE01.JPG,,,,,,,,,,,,,,,,,4,4,44,6,,,,,,,AFNE18.jpg,AFNE11.jpg,AFSA11.jpg,AFSA19.jpg,AFSA11.jpg,FS,4,num_2,48,None,,,,2017_Mar_10_1241,60.0072367673,FEMA4ImagesEEG,001,100032,
AFNE01.JPG,AFNE01.JPG,AFNE01.JPG,AFNE01.JPG,AFNE01.JPG,AFNE01.JPG,,,,,,,,,,,,,,,,,4,5,45,4,,,,,,,AFNE01.jpg,AFNE18.jpg,AFSA07.jpg,AFSA19.jpg,AFSA07.jpg,FS,4,num_2,48,None,,,,2017_Mar_10_1241,60.0072367673,FEMA4ImagesEEG,001,100032,
AFNE01.JPG,AFNE01.JPG,AFNE01.JPG,AFNE01.JPG,AFNE01.JPG,AFNE01.JPG,,,,,,,,,,,,,,,,,4,6,46,9,,,,,,,AFNE12.jpg,AFSA18.jpg,AFNE11.jpg,AFSA07.jpg,AFSA18.jpg,FS,4,num_6,48,None,,,,2017_Mar_10_1241,60.0072367673,FEMA4ImagesEEG,001,100032,
AFNE01.JPG,AFNE01.JPG,AFNE01.JPG,AFNE01.JPG,AFNE01.JPG,AFNE01.JPG,,,,,,,,,,,,,,,,,4,7,47,8,,,,,,,AFSA07.jpg,AFNE06.jpg,AFNE18.jpg,AFSA03.jpg,AFSA07.jpg,FS,4,num_8,48,None,,,,2017_Mar_10_1241,60.0072367673,FEMA4ImagesEEG,001,100032,
AFNE01.JPG,AFNE01.JPG,AFNE01.JPG,AFNE01.JPG,AFNE01.JPG,AFNE01.JPG,,,,,,,,,,,,,,,,,4,8,48,1,,,,,,,AFSA01.jpg,AFNE11.jpg,AFNE13.jpg,AFSA04.jpg,AFNE13.jpg,FN,3,num_2,48,None,,,,2017_Mar_10_1241,60.0072367673,FEMA4ImagesEEG,001,100032,
AFNE01.JPG,AFNE01.JPG,AFNE01.JPG,AFNE01.JPG,AFNE01.JPG,AFNE01.JPG,,,,,,,,,,,,,,,,,4,9,49,5,,,,,,,AFNE04.jpg,AFSA01.jpg,AFNE15.jpg,AFSA12.jpg,AFNE15.jpg,FN,3,num_2,48,None,,,,2017_Mar_10_1241,60.0072367673,FEMA4ImagesEEG,001,100032,
AFNE01.JPG,AFNE01.JPG,AFNE01.JPG,AFNE01.JPG,AFNE01.JPG,AFNE01.JPG,,,,,,,,,,,,,,,,,5,0,50,8,,,,,,,AFNE08.jpg,AFSA09.jpg,AFNE13.jpg,AFSA07.jpg,AFSA07.jpg,FS,4,num_4,48,None,,,,2017_Mar_10_1241,60.0072367673,FEMA4ImagesEEG,001,100032,
AFNE01.JPG,AFNE01.JPG,AFNE01.JPG,AFNE01.JPG,AFNE01.JPG,AFNE01.JPG,,,,,,,,,,,,,,,,,5,1,51,2,,,,,,,AFSA08.jpg,AFSA17.jpg,AFNE17.jpg,AFNE02.jpg,AFNE02.jpg,FN,3,num_4,48,None,,,,2017_Mar_10_1241,60.0072367673,FEMA4ImagesEEG,001,100032,
AFNE01.JPG,AFNE01.JPG,AFNE01.JPG,AFNE01.JPG,AFNE01.JPG,AFNE01.JPG,,,,,,,,,,,,,,,,,5,2,52,0,,,,,,,AFSA09.jpg,AFNE07.jpg,AFNE19.jpg,AFSA10.jpg,AFSA10.jpg,FS,4,num_4,48,None,,,,2017_Mar_10_1241,60.0072367673,FEMA4ImagesEEG,001,100032,
AFNE01.JPG,AFNE01.JPG,AFNE01.JPG,AFNE01.JPG,AFNE01.JPG,AFNE01.JPG,,,,,,,,,,,,,,,,,5,3,53,7,,,,,,,AFSA03.jpg,AFSA18.jpg,AFNE20.jpg,AFNE11.jpg,AFNE11.jpg,FN,3,num_4,48,None,,,,2017_Mar_10_1241,60.0072367673,FEMA4ImagesEEG,001,100032,
AFNE01.JPG,AFNE01.JPG,AFNE01.JPG,AFNE01.JPG,AFNE01.JPG,AFNE01.JPG,,,,,,,,,,,,,,,,,5,4,54,6,,,,,,,AFSA14.jpg,AFNE20.jpg,AFSA17.jpg,AFNE10.jpg,AFNE10.jpg,FN,3,num_4,48,None,,,,2017_Mar_10_1241,60.0072367673,FEMA4ImagesEEG,001,100032,
AFNE01.JPG,AFNE01.JPG,AFNE01.JPG,AFNE01.JPG,AFNE01.JPG,AFNE01.JPG,,,,,,,,,,,,,,,,,5,5,55,1,,,,,,,AFSA01.jpg,AFSA14.jpg,AFNE03.jpg,AFNE02.jpg,AFNE02.jpg,FN,3,num_4,48,None,,,,2017_Mar_10_1241,60.0072367673,FEMA4ImagesEEG,001,100032,
AFNE01.JPG,AFNE01.JPG,AFNE01.JPG,AFNE01.JPG,AFNE01.JPG,AFNE01.JPG,,,,,,,,,,,,,,,,,5,6,56,3,,,,,,,AFNE20.jpg,AFSA16.jpg,AFNE07.jpg,AFSA18.jpg,AFNE20.jpg,FN,3,num_8,48,None,,,,2017_Mar_10_1241,60.0072367673,FEMA4ImagesEEG,001,100032,
AFNE01.JPG,AFNE01.JPG,AFNE01.JPG,AFNE01.JPG,AFNE01.JPG,AFNE01.JPG,,,,,,,,,,,,,,,,,5,7,57,5,,,,,,,AFSA14.jpg,AFNE05.jpg,AFSA17.jpg,AFNE08.jpg,AFNE05.jpg,FN,3,num_6,48,None,,,,2017_Mar_10_1241,60.0072367673,FEMA4ImagesEEG,001,100032,
AFNE01.JPG,AFNE01.JPG,AFNE01.JPG,AFNE01.JPG,AFNE01.JPG,AFNE01.JPG,,,,,,,,,,,,,,,,,5,8,58,4,,,,,,,AFNE08.jpg,AFSA14.jpg,AFNE01.jpg,AFSA10.jpg,AFNE01.jpg,FN,3,num_2,48,None,,,,2017_Mar_10_1241,60.0072367673,FEMA4ImagesEEG,001,100032,
AFNE01.JPG,AFNE01.JPG,AFNE01.JPG,AFNE01.JPG,AFNE01.JPG,AFNE01.JPG,,,,,,,,,,,,,,,,,5,9,59,9,,,,,,,AFNE06.jpg,AFNE08.jpg,AFSA09.jpg,AFSA15.jpg,AFSA15.jpg,FS,4,num_4,48,None,,,,2017_Mar_10_1241,60.0072367673,FEMA4ImagesEEG,001,100032,
,,,,,,,,,,,,,,,,,,,,,,,,,,,,,,,,,,,,,,,,,,,space,81.7606750294,2017_Mar_10_1241,60.0072367673,FEMA4ImagesEEG,001,100032,
AFNE01.JPG,AFNE01.JPG,AFNE01.JPG,AFNE01.JPG,AFNE01.JPG,AFNE01.JPG,,,,,,,,,,,,,,,,,,,,,0,0,0,3,,,AMNE07.jpg,AMNE06.jpg,AMSA18.jpg,AMSA10.jpg,AMNE07.jpg,MN,1,num_8,48,None,,,,2017_Mar_10_1241,60.0072367673,FEMA4ImagesEEG,001,100032,
AFNE01.JPG,AFNE01.JPG,AFNE01.JPG,AFNE01.JPG,AFNE01.JPG,AFNE01.JPG,,,,,,,,,,,,,,,,,,,,,0,1,1,9,,,AMSA18.jpg,AMNE01.jpg,AMSA09.jpg,AMNE14.jpg,AMSA09.jpg,MS,2,num_2,48,None,,,,2017_Mar_10_1241,60.0072367673,FEMA4ImagesEEG,001,100032,
AFNE01.JPG,AFNE01.JPG,AFNE01.JPG,AFNE01.JPG,AFNE01.JPG,AFNE01.JPG,,,,,,,,,,,,,,,,,,,,,0,2,2,0,,,AMNE17.jpg,AMSA20.jpg,AMNE14.jpg,AMSA13.jpg,AMSA13.jpg,MS,2,num_4,48,None,,,,2017_Mar_10_1241,60.0072367673,FEMA4ImagesEEG,001,100032,
AFNE01.JPG,AFNE01.JPG,AFNE01.JPG,AFNE01.JPG,AFNE01.JPG,AFNE01.JPG,,,,,,,,,,,,,,,,,,,,,0,3,3,4,,,AMSA02.jpg,AMNE12.jpg,AMNE01.jpg,AMSA08.jpg,AMNE01.jpg,MN,1,num_2,48,None,,,,2017_Mar_10_1241,60.0072367673,FEMA4ImagesEEG,001,100032,
AFNE01.JPG,AFNE01.JPG,AFNE01.JPG,AFNE01.JPG,AFNE01.JPG,AFNE01.JPG,,,,,,,,,,,,,,,,,,,,,0,4,4,8,,,AMSA20.jpg,AMNE01.jpg,AMNE02.jpg,AMSA09.jpg,AMNE01.jpg,MN,1,num_6,48,None,,,,2017_Mar_10_1241,60.0072367673,FEMA4ImagesEEG,001,100032,
AFNE01.JPG,AFNE01.JPG,AFNE01.JPG,AFNE01.JPG,AFNE01.JPG,AFNE01.JPG,,,,,,,,,,,,,,,,,,,,,0,5,5,2,,,AMNE07.jpg,AMSA10.jpg,AMSA18.jpg,AMNE11.jpg,AMSA18.jpg,MS,2,num_2,48,None,,,,2017_Mar_10_1241,60.0072367673,FEMA4ImagesEEG,001,100032,
AFNE01.JPG,AFNE01.JPG,AFNE01.JPG,AFNE01.JPG,AFNE01.JPG,AFNE01.JPG,,,,,,,,,,,,,,,,,,,,,0,6,6,1,,,AMNE17.jpg,AMNE16.jpg,AMSA15.jpg,AMSA14.jpg,AMSA15.jpg,MS,2,num_2,48,None,,,,2017_Mar_10_1241,60.0072367673,FEMA4ImagesEEG,001,100032,
AFNE01.JPG,AFNE01.JPG,AFNE01.JPG,AFNE01.JPG,AFNE01.JPG,AFNE01.JPG,,,,,,,,,,,,,,,,,,,,,0,7,7,5,,,AMSA13.jpg,AMNE08.jpg,AMSA18.jpg,AMNE18.jpg,AMSA18.jpg,MS,2,num_2,48,None,,,,2017_Mar_10_1241,60.0072367673,FEMA4ImagesEEG,001,100032,
AFNE01.JPG,AFNE01.JPG,AFNE01.JPG,AFNE01.JPG,AFNE01.JPG,AFNE01.JPG,,,,,,,,,,,,,,,,,,,,,0,8,8,7,,,AMNE18.jpg,AMSA02.jpg,AMSA03.jpg,AMNE01.jpg,AMSA02.jpg,MS,2,num_6,48,None,,,,2017_Mar_10_1241,60.0072367673,FEMA4ImagesEEG,001,100032,
AFNE01.JPG,AFNE01.JPG,AFNE01.JPG,AFNE01.JPG,AFNE01.JPG,AFNE01.JPG,,,,,,,,,,,,,,,,,,,,,0,9,9,6,,,AMNE12.jpg,AMSA08.jpg,AMSA11.jpg,AMNE04.jpg,AMNE04.jpg,MN,1,num_4,48,None,,,,2017_Mar_10_1241,60.0072367673,FEMA4ImagesEEG,001,100032,
AFNE01.JPG,AFNE01.JPG,AFNE01.JPG,AFNE01.JPG,AFNE01.JPG,AFNE01.JPG,,,,,,,,,,,,,,,,,,,,,1,0,10,7,,,AMSA10.jpg,AMNE06.jpg,AMSA05.jpg,AMNE14.jpg,AMNE06.jpg,MN,1,num_6,48,None,,,,2017_Mar_10_1241,60.0072367673,FEMA4ImagesEEG,001,100032,
AFNE01.JPG,AFNE01.JPG,AFNE01.JPG,AFNE01.JPG,AFNE01.JPG,AFNE01.JPG,,,,,,,,,,,,,,,,,,,,,1,1,11,1,,,AMNE11.jpg,AMNE16.jpg,AMSA14.jpg,AMSA01.jpg,AMNE11.jpg,MN,1,num_8,48,None,,,,2017_Mar_10_1241,60.0072367673,FEMA4ImagesEEG,001,100032,
AFNE01.JPG,AFNE01.JPG,AFNE01.JPG,AFNE01.JPG,AFNE01.JPG,AFNE01.JPG,,,,,,,,,,,,,,,,,,,,,1,2,12,9,,,AMSA02.jpg,AMSA04.jpg,AMNE18.jpg,AMNE14.jpg,AMSA04.jpg,MS,2,num_6,48,None,,,,2017_Mar_10_1241,60.0072367673,FEMA4ImagesEEG,001,100032,
AFNE01.JPG,AFNE01.JPG,AFNE01.JPG,AFNE01.JPG,AFNE01.JPG,AFNE01.JPG,,,,,,,,,,,,,,,,,,,,,1,3,13,5,,,AMNE17.jpg,AMSA15.jpg,AMSA10.jpg,AMNE03.jpg,AMNE03.jpg,MN,1,num_4,48,None,,,,2017_Mar_10_1241,60.0072367673,FEMA4ImagesEEG,001,100032,
AFNE01.JPG,AFNE01.JPG,AFNE01.JPG,AFNE01.JPG,AFNE01.JPG,AFNE01.JPG,,,,,,,,,,,,,,,,,,,,,1,4,14,2,,,AMSA05.jpg,AMNE07.jpg,AMSA02.jpg,AMNE08.jpg,AMSA05.jpg,MS,2,num_8,48,None,,,,2017_Mar_10_1241,60.0072367673,FEMA4ImagesEEG,001,100032,
AFNE01.JPG,AFNE01.JPG,AFNE01.JPG,AFNE01.JPG,AFNE01.JPG,AFNE01.JPG,,,,,,,,,,,,,,,,,,,,,1,5,15,3,,,AMNE13.jpg,AMSA13.jpg,AMNE14.jpg,AMSA16.jpg,AMNE13.jpg,MN,1,num_8,48,None,,,,2017_Mar_10_1241,60.0072367673,FEMA4ImagesEEG,001,100032,
AFNE01.JPG,AFNE01.JPG,AFNE01.JPG,AFNE01.JPG,AFNE01.JPG,AFNE01.JPG,,,,,,,,,,,,,,,,,,,,,1,6,16,8,,,AMSA17.jpg,AMNE14.jpg,AMNE04.jpg,AMSA01.jpg,AMNE14.jpg,MN,1,num_6,48,None,,,,2017_Mar_10_1241,60.0072367673,FEMA4ImagesEEG,001,100032,
AFNE01.JPG,AFNE01.JPG,AFNE01.JPG,AFNE01.JPG,AFNE01.JPG,AFNE01.JPG,,,,,,,,,,,,,,,,,,,,,1,7,17,6,,,AMSA15.jpg,AMNE07.jpg,AMSA18.jpg,AMNE19.jpg,AMSA15.jpg,MS,2,num_8,48,None,,,,2017_Mar_10_1241,60.0072367673,FEMA4ImagesEEG,001,100032,
AFNE01.JPG,AFNE01.JPG,AFNE01.JPG,AFNE01.JPG,AFNE01.JPG,AFNE01.JPG,,,,,,,,,,,,,,,,,,,,,1,8,18,4,,,AMSA19.jpg,AMNE07.jpg,AMSA08.jpg,AMNE04.jpg,AMNE07.jpg,MN,1,num_6,48,None,,,,2017_Mar_10_1241,60.0072367673,FEMA4ImagesEEG,001,100032,
AFNE01.JPG,AFNE01.JPG,AFNE01.JPG,AFNE01.JPG,AFNE01.JPG,AFNE01.JPG,,,,,,,,,,,,,,,,,,,,,1,9,19,0,,,AMSA04.jpg,AMNE04.jpg,AMNE06.jpg,AMSA05.jpg,AMSA04.jpg,MS,2,num_8,48,None,,,,2017_Mar_10_1241,60.0072367673,FEMA4ImagesEEG,001,100032,
AFNE01.JPG,AFNE01.JPG,AFNE01.JPG,AFNE01.JPG,AFNE01.JPG,AFNE01.JPG,,,,,,,,,,,,,,,,,,,,,2,0,20,4,,,AMSA08.jpg,AMNE13.jpg,AMSA07.jpg,AMNE04.jpg,AMNE04.jpg,MN,1,num_4,48,None,,,,2017_Mar_10_1241,60.0072367673,FEMA4ImagesEEG,001,100032,
AFNE01.JPG,AFNE01.JPG,AFNE01.JPG,AFNE01.JPG,AFNE01.JPG,AFNE01.JPG,,,,,,,,,,,,,,,,,,,,,2,1,21,5,,,AMNE13.jpg,AMSA16.jpg,AMSA09.jpg,AMNE17.jpg,AMNE13.jpg,MN,1,num_8,48,None,,,,2017_Mar_10_1241,60.0072367673,FEMA4ImagesEEG,001,100032,
AFNE01.JPG,AFNE01.JPG,AFNE01.JPG,AFNE01.JPG,AFNE01.JPG,AFNE01.JPG,,,,,,,,,,,,,,,,,,,,,2,2,22,1,,,AMSA06.jpg,AMNE01.jpg,AMSA07.jpg,AMNE16.jpg,AMNE16.jpg,MN,1,num_4,48,None,,,,2017_Mar_10_1241,60.0072367673,FEMA4ImagesEEG,001,100032,
AFNE01.JPG,AFNE01.JPG,AFNE01.JPG,AFNE01.JPG,AFNE01.JPG,AFNE01.JPG,,,,,,,,,,,,,,,,,,,,,2,3,23,8,,,AMNE03.jpg,AMNE09.jpg,AMSA02.jpg,AMSA05.jpg,AMNE03.jpg,MN,1,num_8,48,None,,,,2017_Mar_10_1241,60.0072367673,FEMA4ImagesEEG,001,100032,
AFNE01.JPG,AFNE01.JPG,AFNE01.JPG,AFNE01.JPG,AFNE01.JPG,AFNE01.JPG,,,,,,,,,,,,,,,,,,,,,2,4,24,0,,,AMSA08.jpg,AMSA14.jpg,AMNE07.jpg,AMNE08.jpg,AMSA14.jpg,MS,2,num_6,48,None,,,,2017_Mar_10_1241,60.0072367673,FEMA4ImagesEEG,001,100032,
AFNE01.JPG,AFNE01.JPG,AFNE01.JPG,AFNE01.JPG,AFNE01.JPG,AFNE01.JPG,,,,,,,,,,,,,,,,,,,,,2,5,25,6,,,AMSA10.jpg,AMSA13.jpg,AMNE06.jpg,AMNE18.jpg,AMNE18.jpg,MN,1,num_4,48,None,,,,2017_Mar_10_1241,60.0072367673,FEMA4ImagesEEG,001,100032,
AFNE01.JPG,AFNE01.JPG,AFNE01.JPG,AFNE01.JPG,AFNE01.JPG,AFNE01.JPG,,,,,,,,,,,,,,,,,,,,,2,6,26,2,,,AMSA07.jpg,AMNE14.jpg,AMSA18.jpg,AMNE09.jpg,AMNE09.jpg,MN,1,num_4,48,None,,,,2017_Mar_10_1241,60.0072367673,FEMA4ImagesEEG,001,100032,
AFNE01.JPG,AFNE01.JPG,AFNE01.JPG,AFNE01.JPG,AFNE01.JPG,AFNE01.JPG,,,,,,,,,,,,,,,,,,,,,2,7,27,9,,,AMSA17.jpg,AMNE04.jpg,AMSA08.jpg,AMNE10.jpg,AMNE10.jpg,MN,1,num_4,48,None,,,,2017_Mar_10_1241,60.0072367673,FEMA4ImagesEEG,001,100032,
AFNE01.JPG,AFNE01.JPG,AFNE01.JPG,AFNE01.JPG,AFNE01.JPG,AFNE01.JPG,,,,,,,,,,,,,,,,,,,,,2,8,28,7,,,AMSA10.jpg,AMNE17.jpg,AMNE20.jpg,AMSA04.jpg,AMNE17.jpg,MN,1,num_6,48,None,,,,2017_Mar_10_1241,60.0072367673,FEMA4ImagesEEG,001,100032,
AFNE01.JPG,AFNE01.JPG,AFNE01.JPG,AFNE01.JPG,AFNE01.JPG,AFNE01.JPG,,,,,,,,,,,,,,,,,,,,,2,9,29,3,,,AMNE19.jpg,AMSA05.jpg,AMSA01.jpg,AMNE02.jpg,AMNE19.jpg,MN,1,num_8,48,None,,,,2017_Mar_10_1241,60.0072367673,FEMA4ImagesEEG,001,100032,
AFNE01.JPG,AFNE01.JPG,AFNE01.JPG,AFNE01.JPG,AFNE01.JPG,AFNE01.JPG,,,,,,,,,,,,,,,,,,,,,3,0,30,3,,,AMNE02.jpg,AMNE10.jpg,AMSA16.jpg,AMSA11.jpg,AMSA16.jpg,MS,2,num_2,48,None,,,,2017_Mar_10_1241,60.0072367673,FEMA4ImagesEEG,001,100032,
AFNE01.JPG,AFNE01.JPG,AFNE01.JPG,AFNE01.JPG,AFNE01.JPG,AFNE01.JPG,,,,,,,,,,,,,,,,,,,,,3,1,31,0,,,AMNE18.jpg,AMSA06.jpg,AMNE09.jpg,AMSA16.jpg,AMNE18.jpg,MN,1,num_8,48,None,,,,2017_Mar_10_1241,60.0072367673,FEMA4ImagesEEG,001,100032,
AFNE01.JPG,AFNE01.JPG,AFNE01.JPG,AFNE01.JPG,AFNE01.JPG,AFNE01.JPG,,,,,,,,,,,,,,,,,,,,,3,2,32,7,,,AMSA07.jpg,AMNE12.jpg,AMNE19.jpg,AMSA19.jpg,AMNE12.jpg,MN,1,num_6,48,None,,,,2017_Mar_10_1241,60.0072367673,FEMA4ImagesEEG,001,100032,
AFNE01.JPG,AFNE01.JPG,AFNE01.JPG,AFNE01.JPG,AFNE01.JPG,AFNE01.JPG,,,,,,,,,,,,,,,,,,,,,3,3,33,9,,,AMNE18.jpg,AMNE04.jpg,AMSA20.jpg,AMSA18.jpg,AMSA20.jpg,MS,2,num_2,48,None,,,,2017_Mar_10_1241,60.0072367673,FEMA4ImagesEEG,001,100032,
AFNE01.JPG,AFNE01.JPG,AFNE01.JPG,AFNE01.JPG,AFNE01.JPG,AFNE01.JPG,,,,,,,,,,,,,,,,,,,,,3,4,34,8,,,AMNE03.jpg,AMSA02.jpg,AMSA06.jpg,AMNE16.jpg,AMNE16.jpg,MN,1,num_4,48,None,,,,2017_Mar_10_1241,60.0072367673,FEMA4ImagesEEG,001,100032,
AFNE01.JPG,AFNE01.JPG,AFNE01.JPG,AFNE01.JPG,AFNE01.JPG,AFNE01.JPG,,,,,,,,,,,,,,,,,,,,,3,5,35,4,,,AMSA19.jpg,AMSA16.jpg,AMNE05.jpg,AMNE10.jpg,AMNE10.jpg,MN,1,num_4,48,None,,,,2017_Mar_10_1241,60.0072367673,FEMA4ImagesEEG,001,100032,
AFNE01.JPG,AFNE01.JPG,AFNE01.JPG,AFNE01.JPG,AFNE01.JPG,AFNE01.JPG,,,,,,,,,,,,,,,,,,,,,3,6,36,5,,,AMSA05.jpg,AMNE07.jpg,AMNE20.jpg,AMSA20.jpg,AMSA20.jpg,MS,2,num_4,48,None,,,,2017_Mar_10_1241,60.0072367673,FEMA4ImagesEEG,001,100032,
AFNE01.JPG,AFNE01.JPG,AFNE01.JPG,AFNE01.JPG,AFNE01.JPG,AFNE01.JPG,,,,,,,,,,,,,,,,,,,,,3,7,37,2,,,AMNE10.jpg,AMSA15.jpg,AMSA06.jpg,AMNE09.jpg,AMNE09.jpg,MN,1,num_4,48,None,,,,2017_Mar_10_1241,60.0072367673,FEMA4ImagesEEG,001,100032,
AFNE01.JPG,AFNE01.JPG,AFNE01.JPG,AFNE01.JPG,AFNE01.JPG,AFNE01.JPG,,,,,,,,,,,,,,,,,,,,,3,8,38,1,,,AMSA18.jpg,AMSA05.jpg,AMNE20.jpg,AMNE03.jpg,AMNE03.jpg,MN,1,num_4,48,None,,,,2017_Mar_10_1241,60.0072367673,FEMA4ImagesEEG,001,100032,
AFNE01.JPG,AFNE01.JPG,AFNE01.JPG,AFNE01.JPG,AFNE01.JPG,AFNE01.JPG,,,,,,,,,,,,,,,,,,,,,3,9,39,6,,,AMNE17.jpg,AMSA14.jpg,AMSA19.jpg,AMNE09.jpg,AMNE17.jpg,MN,1,num_8,48,None,,,,2017_Mar_10_1241,60.0072367673,FEMA4ImagesEEG,001,100032,
AFNE01.JPG,AFNE01.JPG,AFNE01.JPG,AFNE01.JPG,AFNE01.JPG,AFNE01.JPG,,,,,,,,,,,,,,,,,,,,,4,0,40,6,,,AMSA07.jpg,AMNE04.jpg,AMNE05.jpg,AMSA15.jpg,AMSA07.jpg,MS,2,num_8,48,None,,,,2017_Mar_10_1241,60.0072367673,FEMA4ImagesEEG,001,100032,
AFNE01.JPG,AFNE01.JPG,AFNE01.JPG,AFNE01.JPG,AFNE01.JPG,AFNE01.JPG,,,,,,,,,,,,,,,,,,,,,4,1,41,9,,,AMNE11.jpg,AMSA06.jpg,AMNE03.jpg,AMSA07.jpg,AMNE11.jpg,MN,1,num_8,48,None,,,,2017_Mar_10_1241,60.0072367673,FEMA4ImagesEEG,001,100032,
AFNE01.JPG,AFNE01.JPG,AFNE01.JPG,AFNE01.JPG,AFNE01.JPG,AFNE01.JPG,,,,,,,,,,,,,,,,,,,,,4,2,42,3,,,AMNE01.jpg,AMSA17.jpg,AMNE03.jpg,AMSA10.jpg,AMNE01.jpg,MN,1,num_8,48,None,,,,2017_Mar_10_1241,60.0072367673,FEMA4ImagesEEG,001,100032,
AFNE01.JPG,AFNE01.JPG,AFNE01.JPG,AFNE01.JPG,AFNE01.JPG,AFNE01.JPG,,,,,,,,,,,,,,,,,,,,,4,3,43,1,,,AMSA08.jpg,AMNE16.jpg,AMNE19.jpg,AMSA18.jpg,AMNE19.jpg,MN,1,num_2,48,None,,,,2017_Mar_10_1241,60.0072367673,FEMA4ImagesEEG,001,100032,
AFNE01.JPG,AFNE01.JPG,AFNE01.JPG,AFNE01.JPG,AFNE01.JPG,AFNE01.JPG,,,,,,,,,,,,,,,,,,,,,4,4,44,2,,,AMNE11.jpg,AMNE16.jpg,AMSA10.jpg,AMSA01.jpg,AMNE11.jpg,MN,1,num_8,48,None,,,,2017_Mar_10_1241,60.0072367673,FEMA4ImagesEEG,001,100032,
AFNE01.JPG,AFNE01.JPG,AFNE01.JPG,AFNE01.JPG,AFNE01.JPG,AFNE01.JPG,,,,,,,,,,,,,,,,,,,,,4,5,45,7,,,AMNE16.jpg,AMNE07.jpg,AMSA02.jpg,AMSA16.jpg,AMSA02.jpg,MS,2,num_2,48,None,,,,2017_Mar_10_1241,60.0072367673,FEMA4ImagesEEG,001,100032,
AFNE01.JPG,AFNE01.JPG,AFNE01.JPG,AFNE01.JPG,AFNE01.JPG,AFNE01.JPG,,,,,,,,,,,,,,,,,,,,,4,6,46,8,,,AMSA06.jpg,AMNE12.jpg,AMSA04.jpg,AMNE11.jpg,AMSA04.jpg,MS,2,num_2,48,None,,,,2017_Mar_10_1241,60.0072367673,FEMA4ImagesEEG,001,100032,
AFNE01.JPG,AFNE01.JPG,AFNE01.JPG,AFNE01.JPG,AFNE01.JPG,AFNE01.JPG,,,,,,,,,,,,,,,,,,,,,4,7,47,5,,,AMNE13.jpg,AMSA20.jpg,AMSA05.jpg,AMNE19.jpg,AMSA20.jpg,MS,2,num_6,48,None,,,,2017_Mar_10_1241,60.0072367673,FEMA4ImagesEEG,001,100032,
AFNE01.JPG,AFNE01.JPG,AFNE01.JPG,AFNE01.JPG,AFNE01.JPG,AFNE01.JPG,,,,,,,,,,,,,,,,,,,,,4,8,48,0,,,AMNE04.jpg,AMNE14.jpg,AMSA15.jpg,AMSA10.jpg,AMNE04.jpg,MN,1,num_8,48,None,,,,2017_Mar_10_1241,60.0072367673,FEMA4ImagesEEG,001,100032,
AFNE01.JPG,AFNE01.JPG,AFNE01.JPG,AFNE01.JPG,AFNE01.JPG,AFNE01.JPG,,,,,,,,,,,,,,,,,,,,,4,9,49,4,,,AMSA20.jpg,AMNE03.jpg,AMSA03.jpg,AMNE18.jpg,AMNE03.jpg,MN,1,num_6,48,None,,,,2017_Mar_10_1241,60.0072367673,FEMA4ImagesEEG,001,100032,
