IPosition2,IPosition3,IPosition1,IPosition6,IPosition4,IPosition5,TrialsM1.thisRepN,TrialsM1.thisTrialN,TrialsM1.thisN,TrialsM1.thisIndex,TrialsF1.thisRepN,TrialsF1.thisTrialN,TrialsF1.thisN,TrialsF1.thisIndex,TrialsM2.thisRepN,TrialsM2.thisTrialN,TrialsM2.thisN,TrialsM2.thisIndex,TrialsF2.thisRepN,TrialsF2.thisTrialN,TrialsF2.thisN,TrialsF2.thisIndex,TrialsM3.thisRepN,TrialsM3.thisTrialN,TrialsM3.thisN,TrialsM3.thisIndex,TrialsF3.thisRepN,TrialsF3.thisTrialN,TrialsF3.thisN,TrialsF3.thisIndex,InstrKey_resp.keys,InstrKey_resp.rt,Image0 _Position,Image1 _Position,Image2 _Position,Image3 _Position,Center_image,condition,code,correct_answer,accuracy,Key_Resp.keys,Key_Resp.rt,BreakKey_resp.keys,BreakKey_resp.rt,date,frameRate,expName,session,participant,
,,,,,,,,,,,,,,,,,,,,,,,,,,,,,,space,12.5662485286,,,,,,,,,,,,,,2017_Mar_13_1519,60.0053889092,MAFE4ImagesEEG,001,100065,
AMSA21.JPG,AMNE23.JPG,AMNE21.JPG,AMSA25.JPG,AMNE25.JPG,AMSA23.JPG,0,0,0,5,,,,,,,,,,,,,,,,,,,,,,,AMSA17.jpg,AMNE13.jpg,AMNE18.jpg,AMSA14.jpg,AMNE18.jpg,MN,1,num_2,48,None,,,,2017_Mar_13_1519,60.0053889092,MAFE4ImagesEEG,001,100065,
AMNE23.JPG,AMNE24.JPG,AMNE22.JPG,AMSA24.JPG,AMSA22.JPG,AMSA23.JPG,0,1,1,9,,,,,,,,,,,,,,,,,,,,,,,AMNE13.jpg,AMSA12.jpg,AMNE02.jpg,AMSA13.jpg,AMSA12.jpg,MS,2,num_6,48,None,,,,2017_Mar_13_1519,60.0053889092,MAFE4ImagesEEG,001,100065,
AMSA25.JPG,AMNE24.JPG,AMSA24.JPG,AMNE26.JPG,AMSA21.JPG,AMNE25.JPG,0,2,2,3,,,,,,,,,,,,,,,,,,,,,,,AMNE19.jpg,AMSA02.jpg,AMSA03.jpg,AMNE14.jpg,AMSA02.jpg,MS,2,num_6,32,num_4,2.98333370755,,,2017_Mar_13_1519,60.0053889092,MAFE4ImagesEEG,001,100065,
AMSA21.JPG,AMNE22.JPG,AMNE21.JPG,AMSA23.JPG,AMSA22.JPG,AMNE23.JPG,0,3,3,1,,,,,,,,,,,,,,,,,,,,,,,AMSA04.jpg,AMNE03.jpg,AMNE17.jpg,AMSA02.jpg,AMSA02.jpg,MS,2,num_4,32,num_8,1.45007553429,,,2017_Mar_13_1519,60.0053889092,MAFE4ImagesEEG,001,100065,
AFSA21.JPG,AFNE23.JPG,AFNE21.JPG,AFSA25.JPG,AFNE25.JPG,AFSA23.JPG,0,4,4,4,,,,,,,,,,,,,,,,,,,,,,,AMNE16.jpg,AMSA01.jpg,AMSA13.jpg,AMNE08.jpg,AMSA01.jpg,MS,2,num_6,32,num_4,1.18341228884,,,2017_Mar_13_1519,60.0053889092,MAFE4ImagesEEG,001,100065,
AFSA25.JPG,AFNE24.JPG,AFSA24.JPG,AFNE21.JPG,AFSA21.JPG,AFNE25.JPG,0,5,5,2,,,,,,,,,,,,,,,,,,,,,,,AMSA12.jpg,AMSA05.jpg,AMNE15.jpg,AMNE03.jpg,AMNE03.jpg,MN,1,num_4,32,num_8,1.1667533734,,,2017_Mar_13_1519,60.0053889092,MAFE4ImagesEEG,001,100065,
AFSA21.JPG,AFNE22.JPG,AFNE21.JPG,AFSA23.JPG,AFSA22.JPG,AFNE23.JPG,0,6,6,0,,,,,,,,,,,,,,,,,,,,,,,AMSA10.jpg,AMSA11.jpg,AMNE14.jpg,AMNE17.jpg,AMSA11.jpg,MS,2,num_6,16,num_6,1.38341357181,,,2017_Mar_13_1519,60.0053889092,MAFE4ImagesEEG,001,100065,
AFNE23.JPG,AFNE24.JPG,AFNE22.JPG,AFSA24.JPG,AFSA22.JPG,AFSA23.JPG,0,7,7,8,,,,,,,,,,,,,,,,,,,,,,,AMSA10.jpg,AMNE19.jpg,AMNE09.jpg,AMSA15.jpg,AMNE19.jpg,MN,1,num_6,32,num_2,3.23336016858,,,2017_Mar_13_1519,60.0053889092,MAFE4ImagesEEG,001,100065,
AMNE22.JPG,AMSA24.JPG,AMSA22.JPG,AMNE25.JPG,AMNE24.JPG,AMSA25.JPG,0,8,8,7,,,,,,,,,,,,,,,,,,,,,,,AMSA10.jpg,AMSA18.jpg,AMNE08.jpg,AMNE15.jpg,AMSA18.jpg,MS,2,num_6,32,num_8,1.23340635514,,,2017_Mar_13_1519,60.0053889092,MAFE4ImagesEEG,001,100065,
AFNE22.JPG,AFSA24.JPG,AFSA22.JPG,AFNE25.JPG,AFNE24.JPG,AFSA25.JPG,0,9,9,6,,,,,,,,,,,,,,,,,,,,,,,AMNE05.jpg,AMNE19.jpg,AMSA05.jpg,AMSA19.jpg,AMNE05.jpg,MN,1,num_8,16,num_8,1.31673942122,,,2017_Mar_13_1519,60.0053889092,MAFE4ImagesEEG,001,100065,
AMSA21.JPG,AMNE22.JPG,AMNE21.JPG,AMSA23.JPG,AMSA22.JPG,AMNE23.JPG,,,,,0,0,0,1,,,,,,,,,,,,,,,,,,,AFNE12.jpg,AFSA19.jpg,AFNE17.jpg,AFSA20.jpg,AFSA20.jpg,FS,4,num_4,16,num_4,0.566788333992,,,2017_Mar_13_1519,60.0053889092,MAFE4ImagesEEG,001,100065,
AMNE22.JPG,AMSA24.JPG,AMSA22.JPG,AMNE25.JPG,AMNE24.JPG,AMSA25.JPG,,,,,0,1,1,7,,,,,,,,,,,,,,,,,,,AFSA17.jpg,AFNE15.jpg,AFNE20.jpg,AFSA09.jpg,AFNE20.jpg,FN,3,num_2,32,num_8,1.21672434645,,,2017_Mar_13_1519,60.0053889092,MAFE4ImagesEEG,001,100065,
AFSA25.JPG,AFNE24.JPG,AFSA24.JPG,AFNE21.JPG,AFSA21.JPG,AFNE25.JPG,,,,,0,2,2,2,,,,,,,,,,,,,,,,,,,AFSA07.jpg,AFSA04.jpg,AFNE05.jpg,AFNE06.jpg,AFNE05.jpg,FN,3,num_2,16,num_2,1.55008226976,,,2017_Mar_13_1519,60.0053889092,MAFE4ImagesEEG,001,100065,
AFNE23.JPG,AFNE24.JPG,AFNE22.JPG,AFSA24.JPG,AFSA22.JPG,AFSA23.JPG,,,,,0,3,3,8,,,,,,,,,,,,,,,,,,,AFNE08.jpg,AFNE10.jpg,AFSA01.jpg,AFSA05.jpg,AFNE10.jpg,FN,3,num_6,32,num_8,1.00011482497,,,2017_Mar_13_1519,60.0053889092,MAFE4ImagesEEG,001,100065,
AMNE23.JPG,AMNE24.JPG,AMNE22.JPG,AMSA24.JPG,AMSA22.JPG,AMSA23.JPG,,,,,0,4,4,9,,,,,,,,,,,,,,,,,,,AFNE12.jpg,AFNE09.jpg,AFSA19.jpg,AFSA17.jpg,AFNE09.jpg,FN,3,num_6,16,num_6,1.2334477306,,,2017_Mar_13_1519,60.0053889092,MAFE4ImagesEEG,001,100065,
AMSA25.JPG,AMNE24.JPG,AMSA24.JPG,AMNE26.JPG,AMSA21.JPG,AMNE25.JPG,,,,,0,5,5,3,,,,,,,,,,,,,,,,,,,AFSA03.jpg,AFNE13.jpg,AFSA20.jpg,AFNE18.jpg,AFSA03.jpg,FS,4,num_8,16,num_8,0.800122522691,,,2017_Mar_13_1519,60.0053889092,MAFE4ImagesEEG,001,100065,
AFSA21.JPG,AFNE23.JPG,AFNE21.JPG,AFSA25.JPG,AFNE25.JPG,AFSA23.JPG,,,,,0,6,6,4,,,,,,,,,,,,,,,,,,,AFNE03.jpg,AFSA09.jpg,AFSA15.jpg,AFNE02.jpg,AFNE02.jpg,FN,3,num_4,32,num_6,1.16676684446,,,2017_Mar_13_1519,60.0053889092,MAFE4ImagesEEG,001,100065,
AMSA21.JPG,AMNE23.JPG,AMNE21.JPG,AMSA25.JPG,AMNE25.JPG,AMSA23.JPG,,,,,0,7,7,5,,,,,,,,,,,,,,,,,,,AFSA10.jpg,AFNE06.jpg,AFSA19.jpg,AFNE18.jpg,AFNE18.jpg,FN,3,num_4,16,num_4,0.63350674673,,,2017_Mar_13_1519,60.0053889092,MAFE4ImagesEEG,001,100065,
AFNE22.JPG,AFSA24.JPG,AFSA22.JPG,AFNE25.JPG,AFNE24.JPG,AFSA25.JPG,,,,,0,8,8,6,,,,,,,,,,,,,,,,,,,AFSA17.jpg,AFNE14.jpg,AFNE02.jpg,AFSA10.jpg,AFNE02.jpg,FN,3,num_2,32,num_6,0.816753213003,,,2017_Mar_13_1519,60.0053889092,MAFE4ImagesEEG,001,100065,
AFSA21.JPG,AFNE22.JPG,AFNE21.JPG,AFSA23.JPG,AFSA22.JPG,AFNE23.JPG,,,,,0,9,9,0,,,,,,,,,,,,,,,,,,,AFSA02.jpg,AFSA10.jpg,AFNE03.jpg,AFNE07.jpg,AFSA02.jpg,FS,4,num_8,16,num_8,0.950116268243,,,2017_Mar_13_1519,60.0053889092,MAFE4ImagesEEG,001,100065,
AMSA25.JPG,AMNE24.JPG,AMSA24.JPG,AMNE26.JPG,AMSA21.JPG,AMNE25.JPG,,,,,,,,,0,0,0,3,,,,,,,,,,,,,,,AMNE08.jpg,AMNE05.jpg,AMSA12.jpg,AMSA14.jpg,AMNE05.jpg,MN,1,num_6,16,num_6,1.0167506471,,,2017_Mar_13_1519,60.0053889092,MAFE4ImagesEEG,001,100065,
AMNE22.JPG,AMSA24.JPG,AMSA22.JPG,AMNE25.JPG,AMNE24.JPG,AMSA25.JPG,,,,,,,,,0,1,1,7,,,,,,,,,,,,,,,AMNE07.jpg,AMNE03.jpg,AMSA17.jpg,AMSA20.jpg,AMSA17.jpg,MS,2,num_2,32,num_4,1.51664768957,,,2017_Mar_13_1519,60.0053889092,MAFE4ImagesEEG,001,100065,
AFNE22.JPG,AFSA24.JPG,AFSA22.JPG,AFNE25.JPG,AFNE24.JPG,AFSA25.JPG,,,,,,,,,0,2,2,6,,,,,,,,,,,,,,,AMNE18.jpg,AMSA16.jpg,AMNE04.jpg,AMSA09.jpg,AMNE18.jpg,MN,1,num_8,16,num_8,0.699954454903,,,2017_Mar_13_1519,60.0053889092,MAFE4ImagesEEG,001,100065,
AFSA21.JPG,AFNE23.JPG,AFNE21.JPG,AFSA25.JPG,AFNE25.JPG,AFSA23.JPG,,,,,,,,,0,3,3,4,,,,,,,,,,,,,,,AMNE09.jpg,AMNE02.jpg,AMSA03.jpg,AMSA18.jpg,AMNE02.jpg,MN,1,num_6,16,num_6,0.583558546263,,,2017_Mar_13_1519,60.0053889092,MAFE4ImagesEEG,001,100065,
AMSA21.JPG,AMNE22.JPG,AMNE21.JPG,AMSA23.JPG,AMSA22.JPG,AMNE23.JPG,,,,,,,,,0,4,4,1,,,,,,,,,,,,,,,AMSA10.jpg,AMNE07.jpg,AMSA20.jpg,AMNE18.jpg,AMSA20.jpg,MS,2,num_2,32,num_4,1.00018570846,,,2017_Mar_13_1519,60.0053889092,MAFE4ImagesEEG,001,100065,
AFNE23.JPG,AFNE24.JPG,AFNE22.JPG,AFSA24.JPG,AFSA22.JPG,AFSA23.JPG,,,,,,,,,0,5,5,8,,,,,,,,,,,,,,,AMNE10.jpg,AMSA15.jpg,AMSA07.jpg,AMNE20.jpg,AMNE10.jpg,MN,1,num_8,16,num_8,0.750132305257,,,2017_Mar_13_1519,60.0053889092,MAFE4ImagesEEG,001,100065,
AMSA21.JPG,AMNE23.JPG,AMNE21.JPG,AMSA25.JPG,AMNE25.JPG,AMSA23.JPG,,,,,,,,,0,6,6,5,,,,,,,,,,,,,,,AMNE07.jpg,AMSA03.jpg,AMSA14.jpg,AMNE05.jpg,AMNE05.jpg,MN,1,num_4,32,num_2,1.49984091293,,,2017_Mar_13_1519,60.0053889092,MAFE4ImagesEEG,001,100065,
AFSA21.JPG,AFNE22.JPG,AFNE21.JPG,AFSA23.JPG,AFSA22.JPG,AFNE23.JPG,,,,,,,,,0,7,7,0,,,,,,,,,,,,,,,AMNE19.jpg,AMNE12.jpg,AMSA06.jpg,AMSA19.jpg,AMNE19.jpg,MN,1,num_8,16,num_8,0.933649476094,,,2017_Mar_13_1519,60.0053889092,MAFE4ImagesEEG,001,100065,
AMNE23.JPG,AMNE24.JPG,AMNE22.JPG,AMSA24.JPG,AMSA22.JPG,AMSA23.JPG,,,,,,,,,0,8,8,9,,,,,,,,,,,,,,,AMSA12.jpg,AMNE07.jpg,AMNE04.jpg,AMSA16.jpg,AMSA16.jpg,MS,2,num_4,16,num_4,0.983417741372,,,2017_Mar_13_1519,60.0053889092,MAFE4ImagesEEG,001,100065,
AFSA25.JPG,AFNE24.JPG,AFSA24.JPG,AFNE21.JPG,AFSA21.JPG,AFNE25.JPG,,,,,,,,,0,9,9,2,,,,,,,,,,,,,,,AMNE18.jpg,AMSA06.jpg,AMNE04.jpg,AMSA18.jpg,AMSA06.jpg,MS,2,num_6,32,num_8,1.05039787793,,,2017_Mar_13_1519,60.0053889092,MAFE4ImagesEEG,001,100065,
AFNE23.JPG,AFNE24.JPG,AFNE22.JPG,AFSA24.JPG,AFSA22.JPG,AFSA23.JPG,,,,,,,,,,,,,0,0,0,8,,,,,,,,,,,AFSA13.jpg,AFNE14.jpg,AFSA01.jpg,AFNE04.jpg,AFSA13.jpg,FS,4,num_8,16,num_8,0.866776466661,,,2017_Mar_13_1519,60.0053889092,MAFE4ImagesEEG,001,100065,
AFNE22.JPG,AFSA24.JPG,AFSA22.JPG,AFNE25.JPG,AFNE24.JPG,AFSA25.JPG,,,,,,,,,,,,,0,1,1,6,,,,,,,,,,,AFSA14.jpg,AFNE01.jpg,AFSA03.jpg,AFNE12.jpg,AFNE01.jpg,FN,3,num_6,16,num_6,1.19991372089,,,2017_Mar_13_1519,60.0053889092,MAFE4ImagesEEG,001,100065,
AMSA25.JPG,AMNE24.JPG,AMSA24.JPG,AMNE26.JPG,AMSA21.JPG,AMNE25.JPG,,,,,,,,,,,,,0,2,2,3,,,,,,,,,,,AFSA11.jpg,AFNE18.jpg,AFSA14.jpg,AFNE15.jpg,AFSA14.jpg,FS,4,num_2,32,num_8,0.733478521637,,,2017_Mar_13_1519,60.0053889092,MAFE4ImagesEEG,001,100065,
AMNE22.JPG,AMSA24.JPG,AMSA22.JPG,AMNE25.JPG,AMNE24.JPG,AMSA25.JPG,,,,,,,,,,,,,0,3,3,7,,,,,,,,,,,AFNE20.jpg,AFSA04.jpg,AFNE05.jpg,AFSA03.jpg,AFSA03.jpg,FS,4,num_4,32,num_2,1.16683804878,,,2017_Mar_13_1519,60.0053889092,MAFE4ImagesEEG,001,100065,
AMNE23.JPG,AMNE24.JPG,AMNE22.JPG,AMSA24.JPG,AMSA22.JPG,AMSA23.JPG,,,,,,,,,,,,,0,4,4,9,,,,,,,,,,,AFSA17.jpg,AFNE03.jpg,AFSA13.jpg,AFNE06.jpg,AFSA17.jpg,FS,4,num_8,32,num_2,1.08349247382,,,2017_Mar_13_1519,60.0053889092,MAFE4ImagesEEG,001,100065,
AFSA21.JPG,AFNE23.JPG,AFNE21.JPG,AFSA25.JPG,AFNE25.JPG,AFSA23.JPG,,,,,,,,,,,,,0,5,5,4,,,,,,,,,,,AFNE20.jpg,AFSA11.jpg,AFSA19.jpg,AFNE08.jpg,AFNE20.jpg,FN,3,num_8,16,num_8,1.1334785216,,,2017_Mar_13_1519,60.0053889092,MAFE4ImagesEEG,001,100065,
AMSA21.JPG,AMNE22.JPG,AMNE21.JPG,AMSA23.JPG,AMSA22.JPG,AMNE23.JPG,,,,,,,,,,,,,0,6,6,1,,,,,,,,,,,AFNE09.jpg,AFSA10.jpg,AFNE12.jpg,AFSA14.jpg,AFSA10.jpg,FS,4,num_6,32,num_4,1.2500588558,,,2017_Mar_13_1519,60.0053889092,MAFE4ImagesEEG,001,100065,
AFSA21.JPG,AFNE22.JPG,AFNE21.JPG,AFSA23.JPG,AFSA22.JPG,AFNE23.JPG,,,,,,,,,,,,,0,7,7,0,,,,,,,,,,,AFSA08.jpg,AFNE13.jpg,AFSA19.jpg,AFNE05.jpg,AFSA19.jpg,FS,4,num_2,32,num_8,0.816807418072,,,2017_Mar_13_1519,60.0053889092,MAFE4ImagesEEG,001,100065,
AFSA25.JPG,AFNE24.JPG,AFSA24.JPG,AFNE21.JPG,AFSA21.JPG,AFNE25.JPG,,,,,,,,,,,,,0,8,8,2,,,,,,,,,,,AFNE03.jpg,AFSA16.jpg,AFSA05.jpg,AFNE08.jpg,AFSA16.jpg,FS,4,num_6,32,num_8,0.966627322545,,,2017_Mar_13_1519,60.0053889092,MAFE4ImagesEEG,001,100065,
AMSA21.JPG,AMNE23.JPG,AMNE21.JPG,AMSA25.JPG,AMNE25.JPG,AMSA23.JPG,,,,,,,,,,,,,0,9,9,5,,,,,,,,,,,AFNE09.jpg,AFSA01.jpg,AFNE02.jpg,AFSA09.jpg,AFSA01.jpg,FS,4,num_6,32,num_8,1.18350434123,,,2017_Mar_13_1519,60.0053889092,MAFE4ImagesEEG,001,100065,
AMSA25.JPG,AMNE24.JPG,AMSA24.JPG,AMNE26.JPG,AMSA21.JPG,AMNE25.JPG,,,,,,,,,,,,,,,,,0,0,0,3,,,,,,,AMSA12.jpg,AMNE16.jpg,AMNE07.jpg,AMSA11.jpg,AMNE07.jpg,MN,1,num_2,16,num_2,1.46677069331,,,2017_Mar_13_1519,60.0053889092,MAFE4ImagesEEG,001,100065,
AMNE23.JPG,AMNE24.JPG,AMNE22.JPG,AMSA24.JPG,AMSA22.JPG,AMSA23.JPG,,,,,,,,,,,,,,,,,0,1,1,9,,,,,,,AMSA19.jpg,AMNE03.jpg,AMSA15.jpg,AMNE17.jpg,AMNE03.jpg,MN,1,num_6,32,num_2,0.850144493394,,,2017_Mar_13_1519,60.0053889092,MAFE4ImagesEEG,001,100065,
AFNE22.JPG,AFSA24.JPG,AFSA22.JPG,AFNE25.JPG,AFNE24.JPG,AFSA25.JPG,,,,,,,,,,,,,,,,,0,2,2,6,,,,,,,AMSA01.jpg,AMNE06.jpg,AMSA18.jpg,AMNE15.jpg,AMSA01.jpg,MS,2,num_8,32,num_2,0.950102797186,,,2017_Mar_13_1519,60.0053889092,MAFE4ImagesEEG,001,100065,
AFSA21.JPG,AFNE22.JPG,AFNE21.JPG,AFSA23.JPG,AFSA22.JPG,AFNE23.JPG,,,,,,,,,,,,,,,,,0,3,3,0,,,,,,,AMNE01.jpg,AMNE02.jpg,AMSA01.jpg,AMSA17.jpg,AMSA17.jpg,MS,2,num_4,16,num_4,0.916814795055,,,2017_Mar_13_1519,60.0053889092,MAFE4ImagesEEG,001,100065,
AMSA21.JPG,AMNE22.JPG,AMNE21.JPG,AMSA23.JPG,AMSA22.JPG,AMNE23.JPG,,,,,,,,,,,,,,,,,0,4,4,1,,,,,,,AMSA02.jpg,AMNE15.jpg,AMSA17.jpg,AMNE01.jpg,AMSA17.jpg,MS,2,num_2,16,num_2,0.733538179309,,,2017_Mar_13_1519,60.0053889092,MAFE4ImagesEEG,001,100065,
AMSA21.JPG,AMNE23.JPG,AMNE21.JPG,AMSA25.JPG,AMNE25.JPG,AMSA23.JPG,,,,,,,,,,,,,,,,,0,5,5,5,,,,,,,AMNE07.jpg,AMSA20.jpg,AMNE16.jpg,AMSA15.jpg,AMSA15.jpg,MS,2,num_4,16,num_4,0.50014818192,,,2017_Mar_13_1519,60.0053889092,MAFE4ImagesEEG,001,100065,
AFSA25.JPG,AFNE24.JPG,AFSA24.JPG,AFNE21.JPG,AFSA21.JPG,AFNE25.JPG,,,,,,,,,,,,,,,,,0,6,6,2,,,,,,,AMSA07.jpg,AMSA17.jpg,AMNE04.jpg,AMNE01.jpg,AMNE01.jpg,MN,1,num_4,16,num_4,0.533464729786,,,2017_Mar_13_1519,60.0053889092,MAFE4ImagesEEG,001,100065,
AFSA21.JPG,AFNE23.JPG,AFNE21.JPG,AFSA25.JPG,AFNE25.JPG,AFSA23.JPG,,,,,,,,,,,,,,,,,0,7,7,4,,,,,,,AMSA02.jpg,AMSA05.jpg,AMNE20.jpg,AMNE07.jpg,AMNE07.jpg,MN,1,num_4,16,num_4,0.483497284935,,,2017_Mar_13_1519,60.0053889092,MAFE4ImagesEEG,001,100065,
AFNE23.JPG,AFNE24.JPG,AFNE22.JPG,AFSA24.JPG,AFSA22.JPG,AFSA23.JPG,,,,,,,,,,,,,,,,,0,8,8,8,,,,,,,AMSA15.jpg,AMNE10.jpg,AMNE03.jpg,AMSA10.jpg,AMNE10.jpg,MN,1,num_6,32,num_8,0.883469701279,,,2017_Mar_13_1519,60.0053889092,MAFE4ImagesEEG,001,100065,
AMNE22.JPG,AMSA24.JPG,AMSA22.JPG,AMNE25.JPG,AMNE24.JPG,AMSA25.JPG,,,,,,,,,,,,,,,,,0,9,9,7,,,,,,,AMSA14.jpg,AMNE19.jpg,AMSA11.jpg,AMNE12.jpg,AMNE12.jpg,MN,1,num_4,16,num_4,0.566806936986,,,2017_Mar_13_1519,60.0053889092,MAFE4ImagesEEG,001,100065,
AFSA25.JPG,AFNE24.JPG,AFSA24.JPG,AFNE21.JPG,AFSA21.JPG,AFNE25.JPG,,,,,,,,,,,,,,,,,,,,,0,0,0,2,,,AFSA18.jpg,AFNE18.jpg,AFNE16.jpg,AFSA01.jpg,AFNE16.jpg,FN,3,num_2,16,num_2,0.733503860072,,,2017_Mar_13_1519,60.0053889092,MAFE4ImagesEEG,001,100065,
AFSA21.JPG,AFNE23.JPG,AFNE21.JPG,AFSA25.JPG,AFNE25.JPG,AFSA23.JPG,,,,,,,,,,,,,,,,,,,,,0,1,1,4,,,AFNE16.jpg,AFNE13.jpg,AFSA10.jpg,AFSA20.jpg,AFNE13.jpg,FN,3,num_6,32,num_2,1.16676171264,,,2017_Mar_13_1519,60.0053889092,MAFE4ImagesEEG,001,100065,
AMSA25.JPG,AMNE24.JPG,AMSA24.JPG,AMNE26.JPG,AMSA21.JPG,AMNE25.JPG,,,,,,,,,,,,,,,,,,,,,0,2,2,3,,,AFSA15.jpg,AFSA04.jpg,AFNE07.jpg,AFNE08.jpg,AFSA04.jpg,FS,4,num_6,16,num_6,0.666807899193,,,2017_Mar_13_1519,60.0053889092,MAFE4ImagesEEG,001,100065,
AFNE23.JPG,AFNE24.JPG,AFNE22.JPG,AFSA24.JPG,AFSA22.JPG,AFSA23.JPG,,,,,,,,,,,,,,,,,,,,,0,3,3,8,,,AFSA05.jpg,AFNE09.jpg,AFNE03.jpg,AFSA11.jpg,AFNE09.jpg,FN,3,num_6,16,num_6,0.916778551473,,,2017_Mar_13_1519,60.0053889092,MAFE4ImagesEEG,001,100065,
AFSA21.JPG,AFNE22.JPG,AFNE21.JPG,AFSA23.JPG,AFSA22.JPG,AFNE23.JPG,,,,,,,,,,,,,,,,,,,,,0,4,4,0,,,AFSA02.jpg,AFNE15.jpg,AFNE01.jpg,AFSA13.jpg,AFNE15.jpg,FN,3,num_6,16,num_6,0.766804691753,,,2017_Mar_13_1519,60.0053889092,MAFE4ImagesEEG,001,100065,
AMNE22.JPG,AMSA24.JPG,AMSA22.JPG,AMNE25.JPG,AMNE24.JPG,AMSA25.JPG,,,,,,,,,,,,,,,,,,,,,0,5,5,7,,,AFNE13.jpg,AFSA09.jpg,AFNE12.jpg,AFSA08.jpg,AFNE12.jpg,FN,3,num_2,16,num_2,0.483563998889,,,2017_Mar_13_1519,60.0053889092,MAFE4ImagesEEG,001,100065,
AMSA21.JPG,AMNE23.JPG,AMNE21.JPG,AMSA25.JPG,AMNE25.JPG,AMSA23.JPG,,,,,,,,,,,,,,,,,,,,,0,6,6,5,,,AFSA01.jpg,AFNE11.jpg,AFNE20.jpg,AFSA04.jpg,AFSA01.jpg,FS,4,num_8,16,num_8,0.733396732947,,,2017_Mar_13_1519,60.0053889092,MAFE4ImagesEEG,001,100065,
AMSA21.JPG,AMNE22.JPG,AMNE21.JPG,AMSA23.JPG,AMSA22.JPG,AMNE23.JPG,,,,,,,,,,,,,,,,,,,,,0,7,7,1,,,AFSA14.jpg,AFNE16.jpg,AFNE17.jpg,AFSA13.jpg,AFSA14.jpg,FS,4,num_8,32,num_2,0.850164379284,,,2017_Mar_13_1519,60.0053889092,MAFE4ImagesEEG,001,100065,
AMNE23.JPG,AMNE24.JPG,AMNE22.JPG,AMSA24.JPG,AMSA22.JPG,AMSA23.JPG,,,,,,,,,,,,,,,,,,,,,0,8,8,9,,,AFSA04.jpg,AFSA05.jpg,AFNE13.jpg,AFNE18.jpg,AFSA05.jpg,FS,4,num_6,16,num_6,0.416822813568,,,2017_Mar_13_1519,60.0053889092,MAFE4ImagesEEG,001,100065,
AFNE22.JPG,AFSA24.JPG,AFSA22.JPG,AFNE25.JPG,AFNE24.JPG,AFSA25.JPG,,,,,,,,,,,,,,,,,,,,,0,9,9,6,,,AFNE08.jpg,AFNE04.jpg,AFSA12.jpg,AFSA10.jpg,AFSA10.jpg,FS,4,num_4,32,num_8,0.81681928545,,,2017_Mar_13_1519,60.0053889092,MAFE4ImagesEEG,001,100065,
,,,,,,,,,,,,,,,,,,,,,,,,,,,,,,,,,,,,,,,,,,,space,4.21620603057,2017_Mar_13_1519,60.0053889092,MAFE4ImagesEEG,001,100065,
AFNE01.JPG,AFNE01.JPG,AFNE01.JPG,AFNE01.JPG,AFNE01.JPG,AFNE01.JPG,0,0,0,2,,,,,,,,,,,,,,,,,,,,,,,AMSA12.jpg,AMNE04.jpg,AMNE12.jpg,AMSA04.jpg,AMSA12.jpg,MS,2,num_8,32,num_4,1.51675385452,,,2017_Mar_13_1519,60.0053889092,MAFE4ImagesEEG,001,100065,
AFNE01.JPG,AFNE01.JPG,AFNE01.JPG,AFNE01.JPG,AFNE01.JPG,AFNE01.JPG,0,1,1,7,,,,,,,,,,,,,,,,,,,,,,,AMNE20.jpg,AMSA19.jpg,AMSA02.jpg,AMNE11.jpg,AMSA02.jpg,MS,2,num_2,32,num_8,0.783499850833,,,2017_Mar_13_1519,60.0053889092,MAFE4ImagesEEG,001,100065,
AFNE01.JPG,AFNE01.JPG,AFNE01.JPG,AFNE01.JPG,AFNE01.JPG,AFNE01.JPG,0,2,2,9,,,,,,,,,,,,,,,,,,,,,,,AMNE14.jpg,AMNE16.jpg,AMSA06.jpg,AMSA05.jpg,AMNE16.jpg,MN,1,num_6,32,num_8,1.03343233513,,,2017_Mar_13_1519,60.0053889092,MAFE4ImagesEEG,001,100065,
AFNE01.JPG,AFNE01.JPG,AFNE01.JPG,AFNE01.JPG,AFNE01.JPG,AFNE01.JPG,0,3,3,8,,,,,,,,,,,,,,,,,,,,,,,AMNE11.jpg,AMSA06.jpg,AMSA09.jpg,AMNE02.jpg,AMSA06.jpg,MS,2,num_6,32,num_4,0.90004875249,,,2017_Mar_13_1519,60.0053889092,MAFE4ImagesEEG,001,100065,
AFNE01.JPG,AFNE01.JPG,AFNE01.JPG,AFNE01.JPG,AFNE01.JPG,AFNE01.JPG,0,4,4,0,,,,,,,,,,,,,,,,,,,,,,,AMSA04.jpg,AMSA09.jpg,AMNE10.jpg,AMNE14.jpg,AMSA04.jpg,MS,2,num_8,32,num_6,0.783491832321,,,2017_Mar_13_1519,60.0053889092,MAFE4ImagesEEG,001,100065,
AFNE01.JPG,AFNE01.JPG,AFNE01.JPG,AFNE01.JPG,AFNE01.JPG,AFNE01.JPG,0,5,5,6,,,,,,,,,,,,,,,,,,,,,,,AMNE03.jpg,AMSA17.jpg,AMNE20.jpg,AMSA04.jpg,AMNE03.jpg,MN,1,num_8,32,num_2,0.850149625214,,,2017_Mar_13_1519,60.0053889092,MAFE4ImagesEEG,001,100065,
AFNE01.JPG,AFNE01.JPG,AFNE01.JPG,AFNE01.JPG,AFNE01.JPG,AFNE01.JPG,0,6,6,1,,,,,,,,,,,,,,,,,,,,,,,AMSA12.jpg,AMNE20.jpg,AMNE13.jpg,AMSA03.jpg,AMSA12.jpg,MS,2,num_8,32,num_4,0.816806135117,,,2017_Mar_13_1519,60.0053889092,MAFE4ImagesEEG,001,100065,
AFNE01.JPG,AFNE01.JPG,AFNE01.JPG,AFNE01.JPG,AFNE01.JPG,AFNE01.JPG,0,7,7,3,,,,,,,,,,,,,,,,,,,,,,,AMSA06.jpg,AMSA11.jpg,AMNE06.jpg,AMNE18.jpg,AMNE18.jpg,MN,1,num_4,32,num_2,1.46672290307,,,2017_Mar_13_1519,60.0053889092,MAFE4ImagesEEG,001,100065,
AFNE01.JPG,AFNE01.JPG,AFNE01.JPG,AFNE01.JPG,AFNE01.JPG,AFNE01.JPG,0,8,8,4,,,,,,,,,,,,,,,,,,,,,,,AMSA07.jpg,AMSA11.jpg,AMNE18.jpg,AMNE20.jpg,AMNE18.jpg,MN,1,num_2,32,num_8,0.916768608498,,,2017_Mar_13_1519,60.0053889092,MAFE4ImagesEEG,001,100065,
AFNE01.JPG,AFNE01.JPG,AFNE01.JPG,AFNE01.JPG,AFNE01.JPG,AFNE01.JPG,0,9,9,5,,,,,,,,,,,,,,,,,,,,,,,AMSA10.jpg,AMNE03.jpg,AMSA15.jpg,AMNE15.jpg,AMNE03.jpg,MN,1,num_6,32,num_8,1.05009381642,,,2017_Mar_13_1519,60.0053889092,MAFE4ImagesEEG,001,100065,
AFNE01.JPG,AFNE01.JPG,AFNE01.JPG,AFNE01.JPG,AFNE01.JPG,AFNE01.JPG,1,0,10,6,,,,,,,,,,,,,,,,,,,,,,,AMSA05.jpg,AMNE01.jpg,AMSA15.jpg,AMNE06.jpg,AMSA05.jpg,MS,2,num_8,32,num_2,0.683170771576,,,2017_Mar_13_1519,60.0053889092,MAFE4ImagesEEG,001,100065,
AFNE01.JPG,AFNE01.JPG,AFNE01.JPG,AFNE01.JPG,AFNE01.JPG,AFNE01.JPG,1,1,11,0,,,,,,,,,,,,,,,,,,,,,,,AMSA14.jpg,AMNE13.jpg,AMNE19.jpg,AMSA17.jpg,AMNE19.jpg,MN,1,num_2,32,num_8,1.03348525718,,,2017_Mar_13_1519,60.0053889092,MAFE4ImagesEEG,001,100065,
AFNE01.JPG,AFNE01.JPG,AFNE01.JPG,AFNE01.JPG,AFNE01.JPG,AFNE01.JPG,1,2,12,4,,,,,,,,,,,,,,,,,,,,,,,AMSA03.jpg,AMNE18.jpg,AMSA11.jpg,AMNE04.jpg,AMNE18.jpg,MN,1,num_6,16,num_6,0.483479964954,,,2017_Mar_13_1519,60.0053889092,MAFE4ImagesEEG,001,100065,
AFNE01.JPG,AFNE01.JPG,AFNE01.JPG,AFNE01.JPG,AFNE01.JPG,AFNE01.JPG,1,3,13,9,,,,,,,,,,,,,,,,,,,,,,,AMSA17.jpg,AMNE11.jpg,AMSA01.jpg,AMNE07.jpg,AMSA17.jpg,MS,2,num_8,32,num_6,1.10005580873,,,2017_Mar_13_1519,60.0053889092,MAFE4ImagesEEG,001,100065,
AFNE01.JPG,AFNE01.JPG,AFNE01.JPG,AFNE01.JPG,AFNE01.JPG,AFNE01.JPG,1,4,14,7,,,,,,,,,,,,,,,,,,,,,,,AMSA09.jpg,AMNE10.jpg,AMNE18.jpg,AMSA02.jpg,AMNE10.jpg,MN,1,num_6,32,num_8,0.883479002747,,,2017_Mar_13_1519,60.0053889092,MAFE4ImagesEEG,001,100065,
AFNE01.JPG,AFNE01.JPG,AFNE01.JPG,AFNE01.JPG,AFNE01.JPG,AFNE01.JPG,1,5,15,1,,,,,,,,,,,,,,,,,,,,,,,AMSA02.jpg,AMNE07.jpg,AMNE01.jpg,AMSA20.jpg,AMNE01.jpg,MN,1,num_2,16,num_2,0.666800842911,,,2017_Mar_13_1519,60.0053889092,MAFE4ImagesEEG,001,100065,
AFNE01.JPG,AFNE01.JPG,AFNE01.JPG,AFNE01.JPG,AFNE01.JPG,AFNE01.JPG,1,6,16,5,,,,,,,,,,,,,,,,,,,,,,,AMSA07.jpg,AMNE10.jpg,AMSA14.jpg,AMNE12.jpg,AMSA07.jpg,MS,2,num_8,32,num_4,0.816760590009,,,2017_Mar_13_1519,60.0053889092,MAFE4ImagesEEG,001,100065,
AFNE01.JPG,AFNE01.JPG,AFNE01.JPG,AFNE01.JPG,AFNE01.JPG,AFNE01.JPG,1,7,17,8,,,,,,,,,,,,,,,,,,,,,,,AMNE11.jpg,AMSA07.jpg,AMSA12.jpg,AMNE05.jpg,AMNE11.jpg,MN,1,num_8,32,num_2,0.666787371796,,,2017_Mar_13_1519,60.0053889092,MAFE4ImagesEEG,001,100065,
AFNE01.JPG,AFNE01.JPG,AFNE01.JPG,AFNE01.JPG,AFNE01.JPG,AFNE01.JPG,1,8,18,3,,,,,,,,,,,,,,,,,,,,,,,AMSA20.jpg,AMNE19.jpg,AMNE03.jpg,AMSA08.jpg,AMNE19.jpg,MN,1,num_6,32,num_8,0.73352438747,,,2017_Mar_13_1519,60.0053889092,MAFE4ImagesEEG,001,100065,
AFNE01.JPG,AFNE01.JPG,AFNE01.JPG,AFNE01.JPG,AFNE01.JPG,AFNE01.JPG,1,9,19,2,,,,,,,,,,,,,,,,,,,,,,,AMNE13.jpg,AMSA17.jpg,AMSA15.jpg,AMNE09.jpg,AMNE13.jpg,MN,1,num_8,32,num_6,0.700137918175,,,2017_Mar_13_1519,60.0053889092,MAFE4ImagesEEG,001,100065,
AFNE01.JPG,AFNE01.JPG,AFNE01.JPG,AFNE01.JPG,AFNE01.JPG,AFNE01.JPG,2,0,20,3,,,,,,,,,,,,,,,,,,,,,,,AMSA02.jpg,AMSA03.jpg,AMNE12.jpg,AMNE03.jpg,AMNE12.jpg,MN,1,num_2,32,num_8,0.78345302277,,,2017_Mar_13_1519,60.0053889092,MAFE4ImagesEEG,001,100065,
AFNE01.JPG,AFNE01.JPG,AFNE01.JPG,AFNE01.JPG,AFNE01.JPG,AFNE01.JPG,2,1,21,9,,,,,,,,,,,,,,,,,,,,,,,AMSA20.jpg,AMSA03.jpg,AMNE01.jpg,AMNE03.jpg,AMNE03.jpg,MN,1,num_4,16,num_4,0.666779353283,,,2017_Mar_13_1519,60.0053889092,MAFE4ImagesEEG,001,100065,
AFNE01.JPG,AFNE01.JPG,AFNE01.JPG,AFNE01.JPG,AFNE01.JPG,AFNE01.JPG,2,2,22,6,,,,,,,,,,,,,,,,,,,,,,,AMNE16.jpg,AMSA16.jpg,AMNE02.jpg,AMSA20.jpg,AMSA16.jpg,MS,2,num_6,32,num_8,1.00015652116,,,2017_Mar_13_1519,60.0053889092,MAFE4ImagesEEG,001,100065,
AFNE01.JPG,AFNE01.JPG,AFNE01.JPG,AFNE01.JPG,AFNE01.JPG,AFNE01.JPG,2,3,23,0,,,,,,,,,,,,,,,,,,,,,,,AMNE02.jpg,AMSA13.jpg,AMNE12.jpg,AMSA10.jpg,AMSA13.jpg,MS,2,num_6,16,num_6,0.416848152061,,,2017_Mar_13_1519,60.0053889092,MAFE4ImagesEEG,001,100065,
AFNE01.JPG,AFNE01.JPG,AFNE01.JPG,AFNE01.JPG,AFNE01.JPG,AFNE01.JPG,2,4,24,8,,,,,,,,,,,,,,,,,,,,,,,AMSA15.jpg,AMSA03.jpg,AMNE19.jpg,AMNE17.jpg,AMSA03.jpg,MS,2,num_6,16,num_6,0.700150747783,,,2017_Mar_13_1519,60.0053889092,MAFE4ImagesEEG,001,100065,
AFNE01.JPG,AFNE01.JPG,AFNE01.JPG,AFNE01.JPG,AFNE01.JPG,AFNE01.JPG,2,5,25,1,,,,,,,,,,,,,,,,,,,,,,,AMSA12.jpg,AMNE02.jpg,AMSA02.jpg,AMNE16.jpg,AMNE16.jpg,MN,1,num_4,16,num_4,0.867001305392,,,2017_Mar_13_1519,60.0053889092,MAFE4ImagesEEG,001,100065,
AFNE01.JPG,AFNE01.JPG,AFNE01.JPG,AFNE01.JPG,AFNE01.JPG,AFNE01.JPG,2,6,26,7,,,,,,,,,,,,,,,,,,,,,,,AMNE13.jpg,AMSA08.jpg,AMSA04.jpg,AMNE19.jpg,AMSA04.jpg,MS,2,num_2,16,num_2,1.68350145459,,,2017_Mar_13_1519,60.0053889092,MAFE4ImagesEEG,001,100065,
AFNE01.JPG,AFNE01.JPG,AFNE01.JPG,AFNE01.JPG,AFNE01.JPG,AFNE01.JPG,2,7,27,5,,,,,,,,,,,,,,,,,,,,,,,AMNE18.jpg,AMNE08.jpg,AMSA02.jpg,AMSA07.jpg,AMNE08.jpg,MN,1,num_6,32,num_4,0.766818483593,,,2017_Mar_13_1519,60.0053889092,MAFE4ImagesEEG,001,100065,
AFNE01.JPG,AFNE01.JPG,AFNE01.JPG,AFNE01.JPG,AFNE01.JPG,AFNE01.JPG,2,8,28,2,,,,,,,,,,,,,,,,,,,,,,,AMNE20.jpg,AMSA17.jpg,AMSA16.jpg,AMNE17.jpg,AMSA16.jpg,MS,2,num_2,16,num_2,1.00017865218,,,2017_Mar_13_1519,60.0053889092,MAFE4ImagesEEG,001,100065,
AFNE01.JPG,AFNE01.JPG,AFNE01.JPG,AFNE01.JPG,AFNE01.JPG,AFNE01.JPG,2,9,29,4,,,,,,,,,,,,,,,,,,,,,,,AMNE19.jpg,AMNE15.jpg,AMSA01.jpg,AMSA11.jpg,AMNE19.jpg,MN,1,num_8,16,num_8,0.800125730049,,,2017_Mar_13_1519,60.0053889092,MAFE4ImagesEEG,001,100065,
AFNE01.JPG,AFNE01.JPG,AFNE01.JPG,AFNE01.JPG,AFNE01.JPG,AFNE01.JPG,3,0,30,5,,,,,,,,,,,,,,,,,,,,,,,AMSA14.jpg,AMNE11.jpg,AMNE05.jpg,AMSA05.jpg,AMNE11.jpg,MN,1,num_6,32,num_8,0.783502096019,,,2017_Mar_13_1519,60.0053889092,MAFE4ImagesEEG,001,100065,
AFNE01.JPG,AFNE01.JPG,AFNE01.JPG,AFNE01.JPG,AFNE01.JPG,AFNE01.JPG,3,1,31,1,,,,,,,,,,,,,,,,,,,,,,,AMSA14.jpg,AMSA16.jpg,AMNE05.jpg,AMNE08.jpg,AMNE08.jpg,MN,1,num_4,32,num_6,0.800202386919,,,2017_Mar_13_1519,60.0053889092,MAFE4ImagesEEG,001,100065,
AFNE01.JPG,AFNE01.JPG,AFNE01.JPG,AFNE01.JPG,AFNE01.JPG,AFNE01.JPG,3,2,32,8,,,,,,,,,,,,,,,,,,,,,,,AMSA01.jpg,AMNE19.jpg,AMNE01.jpg,AMSA03.jpg,AMSA03.jpg,MS,2,num_4,16,num_4,0.500164860394,,,2017_Mar_13_1519,60.0053889092,MAFE4ImagesEEG,001,100065,
AFNE01.JPG,AFNE01.JPG,AFNE01.JPG,AFNE01.JPG,AFNE01.JPG,AFNE01.JPG,3,3,33,9,,,,,,,,,,,,,,,,,,,,,,,AMNE13.jpg,AMSA06.jpg,AMSA20.jpg,AMNE01.jpg,AMSA20.jpg,MS,2,num_2,32,num_4,0.800117070146,,,2017_Mar_13_1519,60.0053889092,MAFE4ImagesEEG,001,100065,
AFNE01.JPG,AFNE01.JPG,AFNE01.JPG,AFNE01.JPG,AFNE01.JPG,AFNE01.JPG,3,4,34,2,,,,,,,,,,,,,,,,,,,,,,,AMSA10.jpg,AMNE09.jpg,AMNE17.jpg,AMSA20.jpg,AMSA10.jpg,MS,2,num_8,32,num_2,1.25011498528,,,2017_Mar_13_1519,60.0053889092,MAFE4ImagesEEG,001,100065,
AFNE01.JPG,AFNE01.JPG,AFNE01.JPG,AFNE01.JPG,AFNE01.JPG,AFNE01.JPG,3,5,35,6,,,,,,,,,,,,,,,,,,,,,,,AMSA18.jpg,AMSA13.jpg,AMNE07.jpg,AMNE12.jpg,AMSA18.jpg,MS,2,num_8,16,num_8,0.716779192968,,,2017_Mar_13_1519,60.0053889092,MAFE4ImagesEEG,001,100065,
AFNE01.JPG,AFNE01.JPG,AFNE01.JPG,AFNE01.JPG,AFNE01.JPG,AFNE01.JPG,3,6,36,0,,,,,,,,,,,,,,,,,,,,,,,AMSA07.jpg,AMNE08.jpg,AMSA11.jpg,AMNE20.jpg,AMSA11.jpg,MS,2,num_2,16,num_2,0.600108410115,,,2017_Mar_13_1519,60.0053889092,MAFE4ImagesEEG,001,100065,
AFNE01.JPG,AFNE01.JPG,AFNE01.JPG,AFNE01.JPG,AFNE01.JPG,AFNE01.JPG,3,7,37,3,,,,,,,,,,,,,,,,,,,,,,,AMSA06.jpg,AMNE04.jpg,AMNE07.jpg,AMSA02.jpg,AMSA02.jpg,MS,2,num_4,16,num_4,0.53355549922,,,2017_Mar_13_1519,60.0053889092,MAFE4ImagesEEG,001,100065,
AFNE01.JPG,AFNE01.JPG,AFNE01.JPG,AFNE01.JPG,AFNE01.JPG,AFNE01.JPG,3,8,38,7,,,,,,,,,,,,,,,,,,,,,,,AMSA08.jpg,AMSA03.jpg,AMNE13.jpg,AMNE06.jpg,AMSA08.jpg,MS,2,num_8,16,num_8,0.966761391901,,,2017_Mar_13_1519,60.0053889092,MAFE4ImagesEEG,001,100065,
AFNE01.JPG,AFNE01.JPG,AFNE01.JPG,AFNE01.JPG,AFNE01.JPG,AFNE01.JPG,3,9,39,4,,,,,,,,,,,,,,,,,,,,,,,AMNE20.jpg,AMSA17.jpg,AMNE07.jpg,AMSA18.jpg,AMNE20.jpg,MN,1,num_8,32,num_4,1.19995573786,,,2017_Mar_13_1519,60.0053889092,MAFE4ImagesEEG,001,100065,
AFNE01.JPG,AFNE01.JPG,AFNE01.JPG,AFNE01.JPG,AFNE01.JPG,AFNE01.JPG,4,0,40,5,,,,,,,,,,,,,,,,,,,,,,,AMNE11.jpg,AMSA01.jpg,AMSA10.jpg,AMNE13.jpg,AMSA10.jpg,MS,2,num_2,32,num_6,0.750121400109,,,2017_Mar_13_1519,60.0053889092,MAFE4ImagesEEG,001,100065,
AFNE01.JPG,AFNE01.JPG,AFNE01.JPG,AFNE01.JPG,AFNE01.JPG,AFNE01.JPG,4,1,41,8,,,,,,,,,,,,,,,,,,,,,,,AMNE20.jpg,AMSA19.jpg,AMNE11.jpg,AMSA02.jpg,AMNE20.jpg,MN,1,num_8,16,num_8,0.833486860851,,,2017_Mar_13_1519,60.0053889092,MAFE4ImagesEEG,001,100065,
AFNE01.JPG,AFNE01.JPG,AFNE01.JPG,AFNE01.JPG,AFNE01.JPG,AFNE01.JPG,4,2,42,3,,,,,,,,,,,,,,,,,,,,,,,AMNE03.jpg,AMNE01.jpg,AMSA16.jpg,AMSA01.jpg,AMNE01.jpg,MN,1,num_6,32,num_2,1.25005244097,,,2017_Mar_13_1519,60.0053889092,MAFE4ImagesEEG,001,100065,
AFNE01.JPG,AFNE01.JPG,AFNE01.JPG,AFNE01.JPG,AFNE01.JPG,AFNE01.JPG,4,3,43,7,,,,,,,,,,,,,,,,,,,,,,,AMSA09.jpg,AMNE09.jpg,AMNE16.jpg,AMSA18.jpg,AMSA09.jpg,MS,2,num_8,32,num_4,0.883442438382,,,2017_Mar_13_1519,60.0053889092,MAFE4ImagesEEG,001,100065,
AFNE01.JPG,AFNE01.JPG,AFNE01.JPG,AFNE01.JPG,AFNE01.JPG,AFNE01.JPG,4,4,44,1,,,,,,,,,,,,,,,,,,,,,,,AMSA02.jpg,AMSA08.jpg,AMNE16.jpg,AMNE11.jpg,AMNE11.jpg,MN,1,num_4,32,num_2,1.06673380826,,,2017_Mar_13_1519,60.0053889092,MAFE4ImagesEEG,001,100065,
AFNE01.JPG,AFNE01.JPG,AFNE01.JPG,AFNE01.JPG,AFNE01.JPG,AFNE01.JPG,4,5,45,4,,,,,,,,,,,,,,,,,,,,,,,AMSA05.jpg,AMNE02.jpg,AMSA14.jpg,AMNE18.jpg,AMNE02.jpg,MN,1,num_6,32,num_2,0.85016662447,,,2017_Mar_13_1519,60.0053889092,MAFE4ImagesEEG,001,100065,
AFNE01.JPG,AFNE01.JPG,AFNE01.JPG,AFNE01.JPG,AFNE01.JPG,AFNE01.JPG,4,6,46,0,,,,,,,,,,,,,,,,,,,,,,,AMNE13.jpg,AMNE11.jpg,AMSA02.jpg,AMSA14.jpg,AMSA02.jpg,MS,2,num_2,16,num_2,1.05013615411,,,2017_Mar_13_1519,60.0053889092,MAFE4ImagesEEG,001,100065,
AFNE01.JPG,AFNE01.JPG,AFNE01.JPG,AFNE01.JPG,AFNE01.JPG,AFNE01.JPG,4,7,47,2,,,,,,,,,,,,,,,,,,,,,,,AMNE09.jpg,AMSA10.jpg,AMSA13.jpg,AMNE03.jpg,AMNE03.jpg,MN,1,num_4,16,num_4,0.6669547981,,,2017_Mar_13_1519,60.0053889092,MAFE4ImagesEEG,001,100065,
AFNE01.JPG,AFNE01.JPG,AFNE01.JPG,AFNE01.JPG,AFNE01.JPG,AFNE01.JPG,4,8,48,9,,,,,,,,,,,,,,,,,,,,,,,AMSA09.jpg,AMNE19.jpg,AMNE16.jpg,AMSA01.jpg,AMNE19.jpg,MN,1,num_6,16,num_6,0.583483172406,,,2017_Mar_13_1519,60.0053889092,MAFE4ImagesEEG,001,100065,
AFNE01.JPG,AFNE01.JPG,AFNE01.JPG,AFNE01.JPG,AFNE01.JPG,AFNE01.JPG,4,9,49,6,,,,,,,,,,,,,,,,,,,,,,,AMSA18.jpg,AMNE12.jpg,AMSA10.jpg,AMNE09.jpg,AMSA18.jpg,MS,2,num_8,16,num_8,0.916795229947,,,2017_Mar_13_1519,60.0053889092,MAFE4ImagesEEG,001,100065,
AFNE01.JPG,AFNE01.JPG,AFNE01.JPG,AFNE01.JPG,AFNE01.JPG,AFNE01.JPG,5,0,50,5,,,,,,,,,,,,,,,,,,,,,,,AMNE16.jpg,AMSA01.jpg,AMSA04.jpg,AMNE08.jpg,AMNE16.jpg,MN,1,num_8,32,num_6,0.86677293852,,,2017_Mar_13_1519,60.0053889092,MAFE4ImagesEEG,001,100065,
AFNE01.JPG,AFNE01.JPG,AFNE01.JPG,AFNE01.JPG,AFNE01.JPG,AFNE01.JPG,5,1,51,4,,,,,,,,,,,,,,,,,,,,,,,AMNE08.jpg,AMSA19.jpg,AMSA08.jpg,AMNE12.jpg,AMNE12.jpg,MN,1,num_4,32,num_6,0.733493596432,,,2017_Mar_13_1519,60.0053889092,MAFE4ImagesEEG,001,100065,
AFNE01.JPG,AFNE01.JPG,AFNE01.JPG,AFNE01.JPG,AFNE01.JPG,AFNE01.JPG,5,2,52,1,,,,,,,,,,,,,,,,,,,,,,,AMSA16.jpg,AMNE15.jpg,AMNE13.jpg,AMSA17.jpg,AMSA16.jpg,MS,2,num_8,16,num_8,0.900165501866,,,2017_Mar_13_1519,60.0053889092,MAFE4ImagesEEG,001,100065,
AFNE01.JPG,AFNE01.JPG,AFNE01.JPG,AFNE01.JPG,AFNE01.JPG,AFNE01.JPG,5,3,53,3,,,,,,,,,,,,,,,,,,,,,,,AMSA19.jpg,AMNE05.jpg,AMSA01.jpg,AMNE16.jpg,AMNE05.jpg,MN,1,num_6,16,num_6,0.700142729271,,,2017_Mar_13_1519,60.0053889092,MAFE4ImagesEEG,001,100065,
AFNE01.JPG,AFNE01.JPG,AFNE01.JPG,AFNE01.JPG,AFNE01.JPG,AFNE01.JPG,5,4,54,0,,,,,,,,,,,,,,,,,,,,,,,AMNE06.jpg,AMSA09.jpg,AMNE03.jpg,AMSA01.jpg,AMSA09.jpg,MS,2,num_6,32,num_2,0.683350065257,,,2017_Mar_13_1519,60.0053889092,MAFE4ImagesEEG,001,100065,
AFNE01.JPG,AFNE01.JPG,AFNE01.JPG,AFNE01.JPG,AFNE01.JPG,AFNE01.JPG,5,5,55,9,,,,,,,,,,,,,,,,,,,,,,,AMSA02.jpg,AMNE10.jpg,AMSA15.jpg,AMNE15.jpg,AMSA02.jpg,MS,2,num_8,32,num_2,1.0667739007,,,2017_Mar_13_1519,60.0053889092,MAFE4ImagesEEG,001,100065,
AFNE01.JPG,AFNE01.JPG,AFNE01.JPG,AFNE01.JPG,AFNE01.JPG,AFNE01.JPG,5,6,56,7,,,,,,,,,,,,,,,,,,,,,,,AMSA12.jpg,AMNE10.jpg,AMSA20.jpg,AMNE02.jpg,AMSA20.jpg,MS,2,num_2,32,num_6,0.950106646051,,,2017_Mar_13_1519,60.0053889092,MAFE4ImagesEEG,001,100065,
AFNE01.JPG,AFNE01.JPG,AFNE01.JPG,AFNE01.JPG,AFNE01.JPG,AFNE01.JPG,5,7,57,2,,,,,,,,,,,,,,,,,,,,,,,AMSA06.jpg,AMSA17.jpg,AMNE18.jpg,AMNE14.jpg,AMSA17.jpg,MS,2,num_6,16,num_6,0.700140163361,,,2017_Mar_13_1519,60.0053889092,MAFE4ImagesEEG,001,100065,
AFNE01.JPG,AFNE01.JPG,AFNE01.JPG,AFNE01.JPG,AFNE01.JPG,AFNE01.JPG,5,8,58,8,,,,,,,,,,,,,,,,,,,,,,,AMSA20.jpg,AMNE15.jpg,AMSA18.jpg,AMNE07.jpg,AMNE07.jpg,MN,1,num_4,32,num_8,0.783331783081,,,2017_Mar_13_1519,60.0053889092,MAFE4ImagesEEG,001,100065,
AFNE01.JPG,AFNE01.JPG,AFNE01.JPG,AFNE01.JPG,AFNE01.JPG,AFNE01.JPG,5,9,59,6,,,,,,,,,,,,,,,,,,,,,,,AMNE06.jpg,AMSA03.jpg,AMNE13.jpg,AMSA14.jpg,AMNE06.jpg,MN,1,num_8,16,num_8,0.616811587708,,,2017_Mar_13_1519,60.0053889092,MAFE4ImagesEEG,001,100065,
,,,,,,,,,,,,,,,,,,,,,,,,,,,,,,,,,,,,,,,,,,,space,3.39989062765,2017_Mar_13_1519,60.0053889092,MAFE4ImagesEEG,001,100065,
AFNE01.JPG,AFNE01.JPG,AFNE01.JPG,AFNE01.JPG,AFNE01.JPG,AFNE01.JPG,,,,,0,0,0,8,,,,,,,,,,,,,,,,,,,AFNE14.jpg,AFSA16.jpg,AFSA15.jpg,AFNE17.jpg,AFSA16.jpg,FS,4,num_6,32,num_4,1.08341838291,,,2017_Mar_13_1519,60.0053889092,MAFE4ImagesEEG,001,100065,
AFNE01.JPG,AFNE01.JPG,AFNE01.JPG,AFNE01.JPG,AFNE01.JPG,AFNE01.JPG,,,,,0,1,1,4,,,,,,,,,,,,,,,,,,,AFSA03.jpg,AFSA18.jpg,AFNE02.jpg,AFNE14.jpg,AFSA03.jpg,FS,4,num_8,16,num_8,1.08345109835,,,2017_Mar_13_1519,60.0053889092,MAFE4ImagesEEG,001,100065,
AFNE01.JPG,AFNE01.JPG,AFNE01.JPG,AFNE01.JPG,AFNE01.JPG,AFNE01.JPG,,,,,0,2,2,3,,,,,,,,,,,,,,,,,,,AFNE06.jpg,AFSA15.jpg,AFNE13.jpg,AFSA10.jpg,AFNE13.jpg,FN,3,num_2,32,num_6,0.683599280252,,,2017_Mar_13_1519,60.0053889092,MAFE4ImagesEEG,001,100065,
AFNE01.JPG,AFNE01.JPG,AFNE01.JPG,AFNE01.JPG,AFNE01.JPG,AFNE01.JPG,,,,,0,3,3,5,,,,,,,,,,,,,,,,,,,AFSA19.jpg,AFNE14.jpg,AFSA01.jpg,AFNE19.jpg,AFSA19.jpg,FS,4,num_8,32,num_4,0.983447249513,,,2017_Mar_13_1519,60.0053889092,MAFE4ImagesEEG,001,100065,
AFNE01.JPG,AFNE01.JPG,AFNE01.JPG,AFNE01.JPG,AFNE01.JPG,AFNE01.JPG,,,,,0,4,4,0,,,,,,,,,,,,,,,,,,,AFSA14.jpg,AFSA20.jpg,AFNE19.jpg,AFNE09.jpg,AFNE19.jpg,FN,3,num_2,32,num_8,1.31672466715,,,2017_Mar_13_1519,60.0053889092,MAFE4ImagesEEG,001,100065,
AFNE01.JPG,AFNE01.JPG,AFNE01.JPG,AFNE01.JPG,AFNE01.JPG,AFNE01.JPG,,,,,0,5,5,9,,,,,,,,,,,,,,,,,,,AFSA09.jpg,AFNE19.jpg,AFNE18.jpg,AFSA10.jpg,AFSA10.jpg,FS,4,num_4,32,num_6,0.833459598012,,,2017_Mar_13_1519,60.0053889092,MAFE4ImagesEEG,001,100065,
AFNE01.JPG,AFNE01.JPG,AFNE01.JPG,AFNE01.JPG,AFNE01.JPG,AFNE01.JPG,,,,,0,6,6,6,,,,,,,,,,,,,,,,,,,AFNE14.jpg,AFSA15.jpg,AFSA16.jpg,AFNE07.jpg,AFSA15.jpg,FS,4,num_6,16,num_6,0.766687300929,,,2017_Mar_13_1519,60.0053889092,MAFE4ImagesEEG,001,100065,
AFNE01.JPG,AFNE01.JPG,AFNE01.JPG,AFNE01.JPG,AFNE01.JPG,AFNE01.JPG,,,,,0,7,7,7,,,,,,,,,,,,,,,,,,,AFSA17.jpg,AFNE05.jpg,AFSA05.jpg,AFNE02.jpg,AFNE05.jpg,FN,3,num_6,32,num_8,1.38343377842,,,2017_Mar_13_1519,60.0053889092,MAFE4ImagesEEG,001,100065,
AFNE01.JPG,AFNE01.JPG,AFNE01.JPG,AFNE01.JPG,AFNE01.JPG,AFNE01.JPG,,,,,0,8,8,1,,,,,,,,,,,,,,,,,,,AFNE08.jpg,AFSA10.jpg,AFNE02.jpg,AFSA08.jpg,AFSA10.jpg,FS,4,num_6,16,num_6,0.550147059257,,,2017_Mar_13_1519,60.0053889092,MAFE4ImagesEEG,001,100065,
AFNE01.JPG,AFNE01.JPG,AFNE01.JPG,AFNE01.JPG,AFNE01.JPG,AFNE01.JPG,,,,,0,9,9,2,,,,,,,,,,,,,,,,,,,AFNE14.jpg,AFSA01.jpg,AFNE17.jpg,AFSA11.jpg,AFNE17.jpg,FN,3,num_2,32,num_8,1.26680757845,,,2017_Mar_13_1519,60.0053889092,MAFE4ImagesEEG,001,100065,
AFNE01.JPG,AFNE01.JPG,AFNE01.JPG,AFNE01.JPG,AFNE01.JPG,AFNE01.JPG,,,,,1,0,10,8,,,,,,,,,,,,,,,,,,,AFNE09.jpg,AFNE04.jpg,AFSA02.jpg,AFSA18.jpg,AFSA18.jpg,FS,4,num_4,16,num_4,0.483507227909,,,2017_Mar_13_1519,60.0053889092,MAFE4ImagesEEG,001,100065,
AFNE01.JPG,AFNE01.JPG,AFNE01.JPG,AFNE01.JPG,AFNE01.JPG,AFNE01.JPG,,,,,1,1,11,7,,,,,,,,,,,,,,,,,,,AFSA06.jpg,AFSA10.jpg,AFNE11.jpg,AFNE03.jpg,AFNE03.jpg,FN,3,num_4,32,num_8,0.533503539395,,,2017_Mar_13_1519,60.0053889092,MAFE4ImagesEEG,001,100065,
AFNE01.JPG,AFNE01.JPG,AFNE01.JPG,AFNE01.JPG,AFNE01.JPG,AFNE01.JPG,,,,,1,2,12,9,,,,,,,,,,,,,,,,,,,AFNE06.jpg,AFSA18.jpg,AFNE12.jpg,AFSA19.jpg,AFNE06.jpg,FN,3,num_8,16,num_8,0.916792984819,,,2017_Mar_13_1519,60.0053889092,MAFE4ImagesEEG,001,100065,
AFNE01.JPG,AFNE01.JPG,AFNE01.JPG,AFNE01.JPG,AFNE01.JPG,AFNE01.JPG,,,,,1,3,13,0,,,,,,,,,,,,,,,,,,,AFSA04.jpg,AFSA16.jpg,AFNE14.jpg,AFNE17.jpg,AFSA16.jpg,FS,4,num_6,32,num_8,0.950116909749,,,2017_Mar_13_1519,60.0053889092,MAFE4ImagesEEG,001,100065,
AFNE01.JPG,AFNE01.JPG,AFNE01.JPG,AFNE01.JPG,AFNE01.JPG,AFNE01.JPG,,,,,1,4,14,2,,,,,,,,,,,,,,,,,,,AFNE18.jpg,AFSA02.jpg,AFSA13.jpg,AFNE02.jpg,AFNE02.jpg,FN,3,num_4,32,num_6,1.03342688252,,,2017_Mar_13_1519,60.0053889092,MAFE4ImagesEEG,001,100065,
AFNE01.JPG,AFNE01.JPG,AFNE01.JPG,AFNE01.JPG,AFNE01.JPG,AFNE01.JPG,,,,,1,5,15,1,,,,,,,,,,,,,,,,,,,AFNE17.jpg,AFSA20.jpg,AFNE09.jpg,AFSA09.jpg,AFNE09.jpg,FN,3,num_2,32,num_8,0.900075373938,,,2017_Mar_13_1519,60.0053889092,MAFE4ImagesEEG,001,100065,
AFNE01.JPG,AFNE01.JPG,AFNE01.JPG,AFNE01.JPG,AFNE01.JPG,AFNE01.JPG,,,,,1,6,16,4,,,,,,,,,,,,,,,,,,,AFNE19.jpg,AFSA14.jpg,AFSA10.jpg,AFNE16.jpg,AFNE19.jpg,FN,3,num_8,32,num_4,0.933427203214,,,2017_Mar_13_1519,60.0053889092,MAFE4ImagesEEG,001,100065,
AFNE01.JPG,AFNE01.JPG,AFNE01.JPG,AFNE01.JPG,AFNE01.JPG,AFNE01.JPG,,,,,1,7,17,3,,,,,,,,,,,,,,,,,,,AFNE02.jpg,AFNE13.jpg,AFSA15.jpg,AFSA10.jpg,AFNE02.jpg,FN,3,num_8,32,num_6,0.683503378998,,,2017_Mar_13_1519,60.0053889092,MAFE4ImagesEEG,001,100065,
AFNE01.JPG,AFNE01.JPG,AFNE01.JPG,AFNE01.JPG,AFNE01.JPG,AFNE01.JPG,,,,,1,8,18,6,,,,,,,,,,,,,,,,,,,AFSA11.jpg,AFSA08.jpg,AFNE07.jpg,AFNE19.jpg,AFSA11.jpg,FS,4,num_8,16,num_8,1.10013503156,,,2017_Mar_13_1519,60.0053889092,MAFE4ImagesEEG,001,100065,
AFNE01.JPG,AFNE01.JPG,AFNE01.JPG,AFNE01.JPG,AFNE01.JPG,AFNE01.JPG,,,,,1,9,19,5,,,,,,,,,,,,,,,,,,,AFSA12.jpg,AFNE12.jpg,AFSA14.jpg,AFNE03.jpg,AFSA12.jpg,FS,4,num_8,16,num_8,0.80016197369,,,2017_Mar_13_1519,60.0053889092,MAFE4ImagesEEG,001,100065,
AFNE01.JPG,AFNE01.JPG,AFNE01.JPG,AFNE01.JPG,AFNE01.JPG,AFNE01.JPG,,,,,2,0,20,6,,,,,,,,,,,,,,,,,,,AFSA01.jpg,AFSA14.jpg,AFNE10.jpg,AFNE15.jpg,AFSA01.jpg,FS,4,num_8,16,num_8,1.15014577634,,,2017_Mar_13_1519,60.0053889092,MAFE4ImagesEEG,001,100065,
AFNE01.JPG,AFNE01.JPG,AFNE01.JPG,AFNE01.JPG,AFNE01.JPG,AFNE01.JPG,,,,,2,1,21,7,,,,,,,,,,,,,,,,,,,AFSA11.jpg,AFSA03.jpg,AFNE03.jpg,AFNE11.jpg,AFNE03.jpg,FN,3,num_2,32,num_6,0.800146578229,,,2017_Mar_13_1519,60.0053889092,MAFE4ImagesEEG,001,100065,
AFNE01.JPG,AFNE01.JPG,AFNE01.JPG,AFNE01.JPG,AFNE01.JPG,AFNE01.JPG,,,,,2,2,22,2,,,,,,,,,,,,,,,,,,,AFSA03.jpg,AFSA08.jpg,AFNE03.jpg,AFNE10.jpg,AFSA08.jpg,FS,4,num_6,32,num_2,1.11662363407,,,2017_Mar_13_1519,60.0053889092,MAFE4ImagesEEG,001,100065,
AFNE01.JPG,AFNE01.JPG,AFNE01.JPG,AFNE01.JPG,AFNE01.JPG,AFNE01.JPG,,,,,2,3,23,3,,,,,,,,,,,,,,,,,,,AFSA19.jpg,AFNE07.jpg,AFNE02.jpg,AFSA04.jpg,AFNE07.jpg,FN,3,num_6,16,num_6,0.68348734203,,,2017_Mar_13_1519,60.0053889092,MAFE4ImagesEEG,001,100065,
AFNE01.JPG,AFNE01.JPG,AFNE01.JPG,AFNE01.JPG,AFNE01.JPG,AFNE01.JPG,,,,,2,4,24,4,,,,,,,,,,,,,,,,,,,AFNE13.jpg,AFSA14.jpg,AFSA04.jpg,AFNE14.jpg,AFSA04.jpg,FS,4,num_2,16,num_2,1.10011482489,,,2017_Mar_13_1519,60.0053889092,MAFE4ImagesEEG,001,100065,
AFNE01.JPG,AFNE01.JPG,AFNE01.JPG,AFNE01.JPG,AFNE01.JPG,AFNE01.JPG,,,,,2,5,25,9,,,,,,,,,,,,,,,,,,,AFNE17.jpg,AFSA17.jpg,AFNE20.jpg,AFSA14.jpg,AFNE20.jpg,FN,3,num_2,32,num_6,1.1001433708,,,2017_Mar_13_1519,60.0053889092,MAFE4ImagesEEG,001,100065,
AFNE01.JPG,AFNE01.JPG,AFNE01.JPG,AFNE01.JPG,AFNE01.JPG,AFNE01.JPG,,,,,2,6,26,0,,,,,,,,,,,,,,,,,,,AFSA14.jpg,AFSA07.jpg,AFNE18.jpg,AFNE09.jpg,AFSA14.jpg,FS,4,num_8,16,num_8,0.93344676838,,,2017_Mar_13_1519,60.0053889092,MAFE4ImagesEEG,001,100065,
AFNE01.JPG,AFNE01.JPG,AFNE01.JPG,AFNE01.JPG,AFNE01.JPG,AFNE01.JPG,,,,,2,7,27,5,,,,,,,,,,,,,,,,,,,AFNE03.jpg,AFSA13.jpg,AFSA10.jpg,AFNE07.jpg,AFSA13.jpg,FS,4,num_6,16,num_6,0.616762835183,,,2017_Mar_13_1519,60.0053889092,MAFE4ImagesEEG,001,100065,
AFNE01.JPG,AFNE01.JPG,AFNE01.JPG,AFNE01.JPG,AFNE01.JPG,AFNE01.JPG,,,,,2,8,28,1,,,,,,,,,,,,,,,,,,,AFNE15.jpg,AFSA20.jpg,AFNE04.jpg,AFSA03.jpg,AFSA03.jpg,FS,4,num_4,32,num_6,0.816871566058,,,2017_Mar_13_1519,60.0053889092,MAFE4ImagesEEG,001,100065,
AFNE01.JPG,AFNE01.JPG,AFNE01.JPG,AFNE01.JPG,AFNE01.JPG,AFNE01.JPG,,,,,2,9,29,8,,,,,,,,,,,,,,,,,,,AFNE18.jpg,AFSA12.jpg,AFNE13.jpg,AFSA16.jpg,AFNE13.jpg,FN,3,num_2,16,num_2,1.0497878305,,,2017_Mar_13_1519,60.0053889092,MAFE4ImagesEEG,001,100065,
AFNE01.JPG,AFNE01.JPG,AFNE01.JPG,AFNE01.JPG,AFNE01.JPG,AFNE01.JPG,,,,,3,0,30,8,,,,,,,,,,,,,,,,,,,AFSA20.jpg,AFNE18.jpg,AFNE20.jpg,AFSA18.jpg,AFSA20.jpg,FS,4,num_8,32,num_2,1.0167949092,,,2017_Mar_13_1519,60.0053889092,MAFE4ImagesEEG,001,100065,
AFNE01.JPG,AFNE01.JPG,AFNE01.JPG,AFNE01.JPG,AFNE01.JPG,AFNE01.JPG,,,,,3,1,31,5,,,,,,,,,,,,,,,,,,,AFSA15.jpg,AFNE16.jpg,AFSA08.jpg,AFNE10.jpg,AFNE16.jpg,FN,3,num_6,16,num_6,0.516840454307,,,2017_Mar_13_1519,60.0053889092,MAFE4ImagesEEG,001,100065,
AFNE01.JPG,AFNE01.JPG,AFNE01.JPG,AFNE01.JPG,AFNE01.JPG,AFNE01.JPG,,,,,3,2,32,6,,,,,,,,,,,,,,,,,,,AFNE13.jpg,AFSA02.jpg,AFNE09.jpg,AFSA05.jpg,AFSA02.jpg,FS,4,num_6,32,num_8,1.11700820131,,,2017_Mar_13_1519,60.0053889092,MAFE4ImagesEEG,001,100065,
AFNE01.JPG,AFNE01.JPG,AFNE01.JPG,AFNE01.JPG,AFNE01.JPG,AFNE01.JPG,,,,,3,3,33,3,,,,,,,,,,,,,,,,,,,AFNE18.jpg,AFSA20.jpg,AFNE13.jpg,AFSA12.jpg,AFNE13.jpg,FN,3,num_2,32,num_8,0.683481889428,,,2017_Mar_13_1519,60.0053889092,MAFE4ImagesEEG,001,100065,
AFNE01.JPG,AFNE01.JPG,AFNE01.JPG,AFNE01.JPG,AFNE01.JPG,AFNE01.JPG,,,,,3,4,34,0,,,,,,,,,,,,,,,,,,,AFSA14.jpg,AFNE03.jpg,AFSA02.jpg,AFNE19.jpg,AFSA14.jpg,FS,4,num_8,32,num_6,0.816774061124,,,2017_Mar_13_1519,60.0053889092,MAFE4ImagesEEG,001,100065,
AFNE01.JPG,AFNE01.JPG,AFNE01.JPG,AFNE01.JPG,AFNE01.JPG,AFNE01.JPG,,,,,3,5,35,7,,,,,,,,,,,,,,,,,,,AFSA06.jpg,AFNE06.jpg,AFSA16.jpg,AFNE08.jpg,AFSA06.jpg,FS,4,num_8,32,num_4,0.733437146177,,,2017_Mar_13_1519,60.0053889092,MAFE4ImagesEEG,001,100065,
AFNE01.JPG,AFNE01.JPG,AFNE01.JPG,AFNE01.JPG,AFNE01.JPG,AFNE01.JPG,,,,,3,6,36,2,,,,,,,,,,,,,,,,,,,AFNE06.jpg,AFSA03.jpg,AFSA19.jpg,AFNE09.jpg,AFNE09.jpg,FN,3,num_4,32,num_8,0.983465531666,,,2017_Mar_13_1519,60.0053889092,MAFE4ImagesEEG,001,100065,
AFNE01.JPG,AFNE01.JPG,AFNE01.JPG,AFNE01.JPG,AFNE01.JPG,AFNE01.JPG,,,,,3,7,37,4,,,,,,,,,,,,,,,,,,,AFNE12.jpg,AFSA17.jpg,AFSA01.jpg,AFNE18.jpg,AFNE18.jpg,FN,3,num_4,16,num_4,0.816757382592,,,2017_Mar_13_1519,60.0053889092,MAFE4ImagesEEG,001,100065,
AFNE01.JPG,AFNE01.JPG,AFNE01.JPG,AFNE01.JPG,AFNE01.JPG,AFNE01.JPG,,,,,3,8,38,9,,,,,,,,,,,,,,,,,,,AFNE06.jpg,AFSA04.jpg,AFNE19.jpg,AFSA14.jpg,AFNE19.jpg,FN,3,num_2,32,num_8,1.13347852166,,,2017_Mar_13_1519,60.0053889092,MAFE4ImagesEEG,001,100065,
AFNE01.JPG,AFNE01.JPG,AFNE01.JPG,AFNE01.JPG,AFNE01.JPG,AFNE01.JPG,,,,,3,9,39,1,,,,,,,,,,,,,,,,,,,AFNE16.jpg,AFSA16.jpg,AFSA03.jpg,AFNE04.jpg,AFSA16.jpg,FS,4,num_6,16,num_6,0.516764118162,,,2017_Mar_13_1519,60.0053889092,MAFE4ImagesEEG,001,100065,
AFNE01.JPG,AFNE01.JPG,AFNE01.JPG,AFNE01.JPG,AFNE01.JPG,AFNE01.JPG,,,,,4,0,40,4,,,,,,,,,,,,,,,,,,,AFNE15.jpg,AFSA09.jpg,AFNE17.jpg,AFSA12.jpg,AFSA09.jpg,FS,4,num_6,16,num_6,0.950172397716,,,2017_Mar_13_1519,60.0053889092,MAFE4ImagesEEG,001,100065,
AFNE01.JPG,AFNE01.JPG,AFNE01.JPG,AFNE01.JPG,AFNE01.JPG,AFNE01.JPG,,,,,4,1,41,6,,,,,,,,,,,,,,,,,,,AFNE07.jpg,AFNE17.jpg,AFSA09.jpg,AFSA17.jpg,AFSA17.jpg,FS,4,num_4,32,num_2,0.666826502129,,,2017_Mar_13_1519,60.0053889092,MAFE4ImagesEEG,001,100065,
AFNE01.JPG,AFNE01.JPG,AFNE01.JPG,AFNE01.JPG,AFNE01.JPG,AFNE01.JPG,,,,,4,2,42,3,,,,,,,,,,,,,,,,,,,AFSA07.jpg,AFSA04.jpg,AFNE09.jpg,AFNE07.jpg,AFNE07.jpg,FN,3,num_4,16,num_4,0.616866113502,,,2017_Mar_13_1519,60.0053889092,MAFE4ImagesEEG,001,100065,
AFNE01.JPG,AFNE01.JPG,AFNE01.JPG,AFNE01.JPG,AFNE01.JPG,AFNE01.JPG,,,,,4,3,43,7,,,,,,,,,,,,,,,,,,,AFNE08.jpg,AFNE16.jpg,AFSA15.jpg,AFSA08.jpg,AFSA08.jpg,FS,4,num_4,32,num_8,0.900410547212,,,2017_Mar_13_1519,60.0053889092,MAFE4ImagesEEG,001,100065,
AFNE01.JPG,AFNE01.JPG,AFNE01.JPG,AFNE01.JPG,AFNE01.JPG,AFNE01.JPG,,,,,4,4,44,5,,,,,,,,,,,,,,,,,,,AFSA15.jpg,AFSA16.jpg,AFNE04.jpg,AFNE17.jpg,AFSA16.jpg,FS,4,num_6,16,num_6,0.516764118162,,,2017_Mar_13_1519,60.0053889092,MAFE4ImagesEEG,001,100065,
AFNE01.JPG,AFNE01.JPG,AFNE01.JPG,AFNE01.JPG,AFNE01.JPG,AFNE01.JPG,,,,,4,5,45,8,,,,,,,,,,,,,,,,,,,AFNE16.jpg,AFSA04.jpg,AFSA06.jpg,AFNE08.jpg,AFNE16.jpg,FN,3,num_8,16,num_8,1.08343634434,,,2017_Mar_13_1519,60.0053889092,MAFE4ImagesEEG,001,100065,
AFNE01.JPG,AFNE01.JPG,AFNE01.JPG,AFNE01.JPG,AFNE01.JPG,AFNE01.JPG,,,,,4,6,46,9,,,,,,,,,,,,,,,,,,,AFSA19.jpg,AFNE07.jpg,AFNE08.jpg,AFSA02.jpg,AFNE08.jpg,FN,3,num_2,16,num_2,1.03346922022,,,2017_Mar_13_1519,60.0053889092,MAFE4ImagesEEG,001,100065,
AFNE01.JPG,AFNE01.JPG,AFNE01.JPG,AFNE01.JPG,AFNE01.JPG,AFNE01.JPG,,,,,4,7,47,1,,,,,,,,,,,,,,,,,,,AFSA18.jpg,AFNE07.jpg,AFSA10.jpg,AFNE15.jpg,AFSA18.jpg,FS,4,num_8,32,num_4,1.01678207965,,,2017_Mar_13_1519,60.0053889092,MAFE4ImagesEEG,001,100065,
AFNE01.JPG,AFNE01.JPG,AFNE01.JPG,AFNE01.JPG,AFNE01.JPG,AFNE01.JPG,,,,,4,8,48,2,,,,,,,,,,,,,,,,,,,AFNE08.jpg,AFSA19.jpg,AFNE01.jpg,AFSA03.jpg,AFNE08.jpg,FN,3,num_8,16,num_8,0.716766042635,,,2017_Mar_13_1519,60.0053889092,MAFE4ImagesEEG,001,100065,
AFNE01.JPG,AFNE01.JPG,AFNE01.JPG,AFNE01.JPG,AFNE01.JPG,AFNE01.JPG,,,,,4,9,49,0,,,,,,,,,,,,,,,,,,,AFNE10.jpg,AFNE09.jpg,AFSA09.jpg,AFSA05.jpg,AFNE09.jpg,FN,3,num_6,16,num_6,0.850134229695,,,2017_Mar_13_1519,60.0053889092,MAFE4ImagesEEG,001,100065,
AFNE01.JPG,AFNE01.JPG,AFNE01.JPG,AFNE01.JPG,AFNE01.JPG,AFNE01.JPG,,,,,5,0,50,0,,,,,,,,,,,,,,,,,,,AFSA18.jpg,AFSA03.jpg,AFNE06.jpg,AFNE11.jpg,AFSA03.jpg,FS,4,num_6,16,num_6,0.883459116914,,,2017_Mar_13_1519,60.0053889092,MAFE4ImagesEEG,001,100065,
AFNE01.JPG,AFNE01.JPG,AFNE01.JPG,AFNE01.JPG,AFNE01.JPG,AFNE01.JPG,,,,,5,1,51,4,,,,,,,,,,,,,,,,,,,AFSA13.jpg,AFNE17.jpg,AFNE14.jpg,AFSA15.jpg,AFSA13.jpg,FS,4,num_8,32,num_6,0.766762995569,,,2017_Mar_13_1519,60.0053889092,MAFE4ImagesEEG,001,100065,
AFNE01.JPG,AFNE01.JPG,AFNE01.JPG,AFNE01.JPG,AFNE01.JPG,AFNE01.JPG,,,,,5,2,52,7,,,,,,,,,,,,,,,,,,,AFNE07.jpg,AFNE16.jpg,AFSA16.jpg,AFSA12.jpg,AFSA12.jpg,FS,4,num_4,32,num_8,0.866793145193,,,2017_Mar_13_1519,60.0053889092,MAFE4ImagesEEG,001,100065,
AFNE01.JPG,AFNE01.JPG,AFNE01.JPG,AFNE01.JPG,AFNE01.JPG,AFNE01.JPG,,,,,5,3,53,9,,,,,,,,,,,,,,,,,,,AFNE08.jpg,AFSA10.jpg,AFSA15.jpg,AFNE09.jpg,AFSA15.jpg,FS,4,num_2,16,num_2,0.950079703878,,,2017_Mar_13_1519,60.0053889092,MAFE4ImagesEEG,001,100065,
AFNE01.JPG,AFNE01.JPG,AFNE01.JPG,AFNE01.JPG,AFNE01.JPG,AFNE01.JPG,,,,,5,4,54,2,,,,,,,,,,,,,,,,,,,AFSA15.jpg,AFNE15.jpg,AFSA20.jpg,AFNE02.jpg,AFSA20.jpg,FS,4,num_2,32,num_4,1.06677325926,,,2017_Mar_13_1519,60.0053889092,MAFE4ImagesEEG,001,100065,
AFNE01.JPG,AFNE01.JPG,AFNE01.JPG,AFNE01.JPG,AFNE01.JPG,AFNE01.JPG,,,,,5,5,55,1,,,,,,,,,,,,,,,,,,,AFNE07.jpg,AFNE13.jpg,AFSA14.jpg,AFSA16.jpg,AFSA16.jpg,FS,4,num_4,16,num_4,0.517098970769,,,2017_Mar_13_1519,60.0053889092,MAFE4ImagesEEG,001,100065,
AFNE01.JPG,AFNE01.JPG,AFNE01.JPG,AFNE01.JPG,AFNE01.JPG,AFNE01.JPG,,,,,5,6,56,8,,,,,,,,,,,,,,,,,,,AFSA15.jpg,AFNE12.jpg,AFSA19.jpg,AFNE09.jpg,AFNE09.jpg,FN,3,num_4,32,num_6,0.733463446843,,,2017_Mar_13_1519,60.0053889092,MAFE4ImagesEEG,001,100065,
AFNE01.JPG,AFNE01.JPG,AFNE01.JPG,AFNE01.JPG,AFNE01.JPG,AFNE01.JPG,,,,,5,7,57,3,,,,,,,,,,,,,,,,,,,AFNE03.jpg,AFSA02.jpg,AFSA06.jpg,AFNE17.jpg,AFSA02.jpg,FS,4,num_6,16,num_6,0.733509954181,,,2017_Mar_13_1519,60.0053889092,MAFE4ImagesEEG,001,100065,
AFNE01.JPG,AFNE01.JPG,AFNE01.JPG,AFNE01.JPG,AFNE01.JPG,AFNE01.JPG,,,,,5,8,58,6,,,,,,,,,,,,,,,,,,,AFSA20.jpg,AFNE08.jpg,AFSA18.jpg,AFNE12.jpg,AFNE08.jpg,FN,3,num_6,32,num_2,0.600198858767,,,2017_Mar_13_1519,60.0053889092,MAFE4ImagesEEG,001,100065,
AFNE01.JPG,AFNE01.JPG,AFNE01.JPG,AFNE01.JPG,AFNE01.JPG,AFNE01.JPG,,,,,5,9,59,5,,,,,,,,,,,,,,,,,,,AFNE05.jpg,AFNE08.jpg,AFSA18.jpg,AFSA03.jpg,AFNE08.jpg,FN,3,num_6,16,num_6,0.633430410642,,,2017_Mar_13_1519,60.0053889092,MAFE4ImagesEEG,001,100065,
,,,,,,,,,,,,,,,,,,,,,,,,,,,,,,,,,,,,,,,,,,,space,2.46667190542,2017_Mar_13_1519,60.0053889092,MAFE4ImagesEEG,001,100065,
AFNE01.JPG,AFNE01.JPG,AFNE01.JPG,AFNE01.JPG,AFNE01.JPG,AFNE01.JPG,,,,,,,,,0,0,0,2,,,,,,,,,,,,,,,AMNE06.jpg,AMSA20.jpg,AMSA01.jpg,AMNE17.jpg,AMNE06.jpg,MN,1,num_8,16,num_8,0.816793305508,,,2017_Mar_13_1519,60.0053889092,MAFE4ImagesEEG,001,100065,
AFNE01.JPG,AFNE01.JPG,AFNE01.JPG,AFNE01.JPG,AFNE01.JPG,AFNE01.JPG,,,,,,,,,0,1,1,6,,,,,,,,,,,,,,,AMSA02.jpg,AMNE15.jpg,AMNE08.jpg,AMSA19.jpg,AMNE15.jpg,MN,1,num_6,16,num_6,0.933456069848,,,2017_Mar_13_1519,60.0053889092,MAFE4ImagesEEG,001,100065,
AFNE01.JPG,AFNE01.JPG,AFNE01.JPG,AFNE01.JPG,AFNE01.JPG,AFNE01.JPG,,,,,,,,,0,2,2,9,,,,,,,,,,,,,,,AMNE04.jpg,AMSA10.jpg,AMNE07.jpg,AMSA13.jpg,AMNE04.jpg,MN,1,num_8,16,num_8,0.950130060082,,,2017_Mar_13_1519,60.0053889092,MAFE4ImagesEEG,001,100065,
AFNE01.JPG,AFNE01.JPG,AFNE01.JPG,AFNE01.JPG,AFNE01.JPG,AFNE01.JPG,,,,,,,,,0,3,3,3,,,,,,,,,,,,,,,AMSA09.jpg,AMNE11.jpg,AMNE19.jpg,AMSA20.jpg,AMSA20.jpg,MS,2,num_4,32,num_2,0.833484615665,,,2017_Mar_13_1519,60.0053889092,MAFE4ImagesEEG,001,100065,
AFNE01.JPG,AFNE01.JPG,AFNE01.JPG,AFNE01.JPG,AFNE01.JPG,AFNE01.JPG,,,,,,,,,0,4,4,4,,,,,,,,,,,,,,,AMSA12.jpg,AMNE12.jpg,AMNE19.jpg,AMSA07.jpg,AMSA12.jpg,MS,2,num_8,32,num_4,1.40009205235,,,2017_Mar_13_1519,60.0053889092,MAFE4ImagesEEG,001,100065,
AFNE01.JPG,AFNE01.JPG,AFNE01.JPG,AFNE01.JPG,AFNE01.JPG,AFNE01.JPG,,,,,,,,,0,5,5,0,,,,,,,,,,,,,,,AMSA08.jpg,AMSA16.jpg,AMNE02.jpg,AMNE13.jpg,AMNE13.jpg,MN,1,num_4,32,num_8,0.78346264502,,,2017_Mar_13_1519,60.0053889092,MAFE4ImagesEEG,001,100065,
AFNE01.JPG,AFNE01.JPG,AFNE01.JPG,AFNE01.JPG,AFNE01.JPG,AFNE01.JPG,,,,,,,,,0,6,6,1,,,,,,,,,,,,,,,AMNE08.jpg,AMNE17.jpg,AMSA06.jpg,AMSA15.jpg,AMNE08.jpg,MN,1,num_8,16,num_8,0.70013246563,,,2017_Mar_13_1519,60.0053889092,MAFE4ImagesEEG,001,100065,
AFNE01.JPG,AFNE01.JPG,AFNE01.JPG,AFNE01.JPG,AFNE01.JPG,AFNE01.JPG,,,,,,,,,0,7,7,5,,,,,,,,,,,,,,,AMNE15.jpg,AMNE12.jpg,AMSA17.jpg,AMSA18.jpg,AMNE15.jpg,MN,1,num_8,32,num_6,0.43356640439,,,2017_Mar_13_1519,60.0053889092,MAFE4ImagesEEG,001,100065,
AFNE01.JPG,AFNE01.JPG,AFNE01.JPG,AFNE01.JPG,AFNE01.JPG,AFNE01.JPG,,,,,,,,,0,8,8,8,,,,,,,,,,,,,,,AMNE17.jpg,AMSA10.jpg,AMSA18.jpg,AMNE01.jpg,AMSA18.jpg,MS,2,num_2,16,num_2,0.533486219414,,,2017_Mar_13_1519,60.0053889092,MAFE4ImagesEEG,001,100065,
AFNE01.JPG,AFNE01.JPG,AFNE01.JPG,AFNE01.JPG,AFNE01.JPG,AFNE01.JPG,,,,,,,,,0,9,9,7,,,,,,,,,,,,,,,AMSA18.jpg,AMNE09.jpg,AMNE12.jpg,AMSA20.jpg,AMSA18.jpg,MS,2,num_8,16,num_8,0.533355998923,,,2017_Mar_13_1519,60.0053889092,MAFE4ImagesEEG,001,100065,
AFNE01.JPG,AFNE01.JPG,AFNE01.JPG,AFNE01.JPG,AFNE01.JPG,AFNE01.JPG,,,,,,,,,1,0,10,1,,,,,,,,,,,,,,,AMNE04.jpg,AMSA11.jpg,AMNE07.jpg,AMSA03.jpg,AMSA03.jpg,MS,2,num_4,16,num_4,0.65018041624,,,2017_Mar_13_1519,60.0053889092,MAFE4ImagesEEG,001,100065,
AFNE01.JPG,AFNE01.JPG,AFNE01.JPG,AFNE01.JPG,AFNE01.JPG,AFNE01.JPG,,,,,,,,,1,1,11,8,,,,,,,,,,,,,,,AMNE19.jpg,AMSA01.jpg,AMNE16.jpg,AMSA17.jpg,AMNE16.jpg,MN,1,num_2,32,num_8,0.9167843248,,,2017_Mar_13_1519,60.0053889092,MAFE4ImagesEEG,001,100065,
AFNE01.JPG,AFNE01.JPG,AFNE01.JPG,AFNE01.JPG,AFNE01.JPG,AFNE01.JPG,,,,,,,,,1,2,12,7,,,,,,,,,,,,,,,AMSA16.jpg,AMNE20.jpg,AMNE10.jpg,AMSA12.jpg,AMNE10.jpg,MN,1,num_2,32,num_8,0.833520859363,,,2017_Mar_13_1519,60.0053889092,MAFE4ImagesEEG,001,100065,
AFNE01.JPG,AFNE01.JPG,AFNE01.JPG,AFNE01.JPG,AFNE01.JPG,AFNE01.JPG,,,,,,,,,1,3,13,6,,,,,,,,,,,,,,,AMSA20.jpg,AMSA04.jpg,AMNE07.jpg,AMNE09.jpg,AMNE09.jpg,MN,1,num_4,32,num_8,0.733458956471,,,2017_Mar_13_1519,60.0053889092,MAFE4ImagesEEG,001,100065,
AFNE01.JPG,AFNE01.JPG,AFNE01.JPG,AFNE01.JPG,AFNE01.JPG,AFNE01.JPG,,,,,,,,,1,4,14,2,,,,,,,,,,,,,,,AMSA13.jpg,AMNE13.jpg,AMNE05.jpg,AMSA08.jpg,AMSA13.jpg,MS,2,num_8,32,num_6,0.550141606713,,,2017_Mar_13_1519,60.0053889092,MAFE4ImagesEEG,001,100065,
AFNE01.JPG,AFNE01.JPG,AFNE01.JPG,AFNE01.JPG,AFNE01.JPG,AFNE01.JPG,,,,,,,,,1,5,15,4,,,,,,,,,,,,,,,AMNE02.jpg,AMNE01.jpg,AMSA19.jpg,AMSA14.jpg,AMSA19.jpg,MS,2,num_2,16,num_2,0.766921761853,,,2017_Mar_13_1519,60.0053889092,MAFE4ImagesEEG,001,100065,
AFNE01.JPG,AFNE01.JPG,AFNE01.JPG,AFNE01.JPG,AFNE01.JPG,AFNE01.JPG,,,,,,,,,1,6,16,5,,,,,,,,,,,,,,,AMNE08.jpg,AMSA10.jpg,AMSA15.jpg,AMNE11.jpg,AMNE11.jpg,MN,1,num_4,32,num_2,0.833486860909,,,2017_Mar_13_1519,60.0053889092,MAFE4ImagesEEG,001,100065,
AFNE01.JPG,AFNE01.JPG,AFNE01.JPG,AFNE01.JPG,AFNE01.JPG,AFNE01.JPG,,,,,,,,,1,7,17,0,,,,,,,,,,,,,,,AMNE06.jpg,AMSA17.jpg,AMSA07.jpg,AMNE18.jpg,AMSA07.jpg,MS,2,num_2,16,num_2,0.40014433302,,,2017_Mar_13_1519,60.0053889092,MAFE4ImagesEEG,001,100065,
AFNE01.JPG,AFNE01.JPG,AFNE01.JPG,AFNE01.JPG,AFNE01.JPG,AFNE01.JPG,,,,,,,,,1,8,18,3,,,,,,,,,,,,,,,AMNE02.jpg,AMSA02.jpg,AMSA18.jpg,AMNE11.jpg,AMSA18.jpg,MS,2,num_2,32,num_6,0.566835482838,,,2017_Mar_13_1519,60.0053889092,MAFE4ImagesEEG,001,100065,
AFNE01.JPG,AFNE01.JPG,AFNE01.JPG,AFNE01.JPG,AFNE01.JPG,AFNE01.JPG,,,,,,,,,1,9,19,9,,,,,,,,,,,,,,,AMSA15.jpg,AMSA02.jpg,AMNE13.jpg,AMNE04.jpg,AMNE04.jpg,MN,1,num_4,16,num_4,0.516816719552,,,2017_Mar_13_1519,60.0053889092,MAFE4ImagesEEG,001,100065,
AFNE01.JPG,AFNE01.JPG,AFNE01.JPG,AFNE01.JPG,AFNE01.JPG,AFNE01.JPG,,,,,,,,,2,0,20,5,,,,,,,,,,,,,,,AMNE09.jpg,AMNE15.jpg,AMSA20.jpg,AMSA16.jpg,AMSA16.jpg,MS,2,num_4,32,num_2,0.883470022061,,,2017_Mar_13_1519,60.0053889092,MAFE4ImagesEEG,001,100065,
AFNE01.JPG,AFNE01.JPG,AFNE01.JPG,AFNE01.JPG,AFNE01.JPG,AFNE01.JPG,,,,,,,,,2,1,21,4,,,,,,,,,,,,,,,AMSA16.jpg,AMNE09.jpg,AMNE20.jpg,AMSA17.jpg,AMNE09.jpg,MN,1,num_6,16,num_6,0.550158285187,,,2017_Mar_13_1519,60.0053889092,MAFE4ImagesEEG,001,100065,
AFNE01.JPG,AFNE01.JPG,AFNE01.JPG,AFNE01.JPG,AFNE01.JPG,AFNE01.JPG,,,,,,,,,2,2,22,7,,,,,,,,,,,,,,,AMNE13.jpg,AMNE15.jpg,AMSA02.jpg,AMSA06.jpg,AMNE13.jpg,MN,1,num_8,16,num_8,0.900105202745,,,2017_Mar_13_1519,60.0053889092,MAFE4ImagesEEG,001,100065,
AFNE01.JPG,AFNE01.JPG,AFNE01.JPG,AFNE01.JPG,AFNE01.JPG,AFNE01.JPG,,,,,,,,,2,3,23,1,,,,,,,,,,,,,,,AMNE19.jpg,AMSA04.jpg,AMNE20.jpg,AMSA08.jpg,AMNE20.jpg,MN,1,num_2,32,num_8,1.03343586321,,,2017_Mar_13_1519,60.0053889092,MAFE4ImagesEEG,001,100065,
AFNE01.JPG,AFNE01.JPG,AFNE01.JPG,AFNE01.JPG,AFNE01.JPG,AFNE01.JPG,,,,,,,,,2,4,24,0,,,,,,,,,,,,,,,AMNE13.jpg,AMSA12.jpg,AMNE16.jpg,AMSA19.jpg,AMSA12.jpg,MS,2,num_6,16,num_6,0.583372196299,,,2017_Mar_13_1519,60.0053889092,MAFE4ImagesEEG,001,100065,
AFNE01.JPG,AFNE01.JPG,AFNE01.JPG,AFNE01.JPG,AFNE01.JPG,AFNE01.JPG,,,,,,,,,2,5,25,3,,,,,,,,,,,,,,,AMNE14.jpg,AMNE17.jpg,AMSA03.jpg,AMSA06.jpg,AMSA06.jpg,MS,2,num_4,32,num_8,0.866645925445,,,2017_Mar_13_1519,60.0053889092,MAFE4ImagesEEG,001,100065,
AFNE01.JPG,AFNE01.JPG,AFNE01.JPG,AFNE01.JPG,AFNE01.JPG,AFNE01.JPG,,,,,,,,,2,6,26,8,,,,,,,,,,,,,,,AMNE16.jpg,AMSA08.jpg,AMSA01.jpg,AMNE07.jpg,AMSA08.jpg,MS,2,num_6,16,num_6,0.783479323494,,,2017_Mar_13_1519,60.0053889092,MAFE4ImagesEEG,001,100065,
AFNE01.JPG,AFNE01.JPG,AFNE01.JPG,AFNE01.JPG,AFNE01.JPG,AFNE01.JPG,,,,,,,,,2,7,27,9,,,,,,,,,,,,,,,AMNE03.jpg,AMNE16.jpg,AMSA02.jpg,AMSA09.jpg,AMNE03.jpg,MN,1,num_8,32,num_4,0.783535773691,,,2017_Mar_13_1519,60.0053889092,MAFE4ImagesEEG,001,100065,
AFNE01.JPG,AFNE01.JPG,AFNE01.JPG,AFNE01.JPG,AFNE01.JPG,AFNE01.JPG,,,,,,,,,2,8,28,6,,,,,,,,,,,,,,,AMSA16.jpg,AMNE05.jpg,AMNE12.jpg,AMSA08.jpg,AMSA08.jpg,MS,2,num_4,16,num_4,0.433704001829,,,2017_Mar_13_1519,60.0053889092,MAFE4ImagesEEG,001,100065,
AFNE01.JPG,AFNE01.JPG,AFNE01.JPG,AFNE01.JPG,AFNE01.JPG,AFNE01.JPG,,,,,,,,,2,9,29,2,,,,,,,,,,,,,,,AMNE07.jpg,AMSA17.jpg,AMNE18.jpg,AMSA01.jpg,AMNE07.jpg,MN,1,num_8,16,num_8,0.650199660682,,,2017_Mar_13_1519,60.0053889092,MAFE4ImagesEEG,001,100065,
AFNE01.JPG,AFNE01.JPG,AFNE01.JPG,AFNE01.JPG,AFNE01.JPG,AFNE01.JPG,,,,,,,,,3,0,30,1,,,,,,,,,,,,,,,AMNE05.jpg,AMSA18.jpg,AMNE13.jpg,AMSA07.jpg,AMSA07.jpg,MS,2,num_4,32,num_8,0.866784485173,,,2017_Mar_13_1519,60.0053889092,MAFE4ImagesEEG,001,100065,
AFNE01.JPG,AFNE01.JPG,AFNE01.JPG,AFNE01.JPG,AFNE01.JPG,AFNE01.JPG,,,,,,,,,3,1,31,2,,,,,,,,,,,,,,,AMSA15.jpg,AMSA07.jpg,AMNE14.jpg,AMNE05.jpg,AMNE05.jpg,MN,1,num_4,32,num_8,0.733326170128,,,2017_Mar_13_1519,60.0053889092,MAFE4ImagesEEG,001,100065,
AFNE01.JPG,AFNE01.JPG,AFNE01.JPG,AFNE01.JPG,AFNE01.JPG,AFNE01.JPG,,,,,,,,,3,2,32,4,,,,,,,,,,,,,,,AMSA13.jpg,AMSA08.jpg,AMNE10.jpg,AMNE14.jpg,AMNE10.jpg,MN,1,num_2,16,num_2,0.900171916641,,,2017_Mar_13_1519,60.0053889092,MAFE4ImagesEEG,001,100065,
AFNE01.JPG,AFNE01.JPG,AFNE01.JPG,AFNE01.JPG,AFNE01.JPG,AFNE01.JPG,,,,,,,,,3,3,33,5,,,,,,,,,,,,,,,AMSA19.jpg,AMSA15.jpg,AMNE09.jpg,AMNE06.jpg,AMSA15.jpg,MS,2,num_6,16,num_6,0.783518133045,,,2017_Mar_13_1519,60.0053889092,MAFE4ImagesEEG,001,100065,
AFNE01.JPG,AFNE01.JPG,AFNE01.JPG,AFNE01.JPG,AFNE01.JPG,AFNE01.JPG,,,,,,,,,3,4,34,0,,,,,,,,,,,,,,,AMSA06.jpg,AMNE02.jpg,AMSA02.jpg,AMNE10.jpg,AMSA06.jpg,MS,2,num_8,32,num_6,0.766780636273,,,2017_Mar_13_1519,60.0053889092,MAFE4ImagesEEG,001,100065,
AFNE01.JPG,AFNE01.JPG,AFNE01.JPG,AFNE01.JPG,AFNE01.JPG,AFNE01.JPG,,,,,,,,,3,5,35,8,,,,,,,,,,,,,,,AMNE16.jpg,AMNE02.jpg,AMSA05.jpg,AMSA19.jpg,AMSA19.jpg,MS,2,num_4,32,num_2,0.666758825944,,,2017_Mar_13_1519,60.0053889092,MAFE4ImagesEEG,001,100065,
AFNE01.JPG,AFNE01.JPG,AFNE01.JPG,AFNE01.JPG,AFNE01.JPG,AFNE01.JPG,,,,,,,,,3,6,36,3,,,,,,,,,,,,,,,AMNE11.jpg,AMSA07.jpg,AMSA16.jpg,AMNE09.jpg,AMNE11.jpg,MN,1,num_8,16,num_8,1.2167419871,,,2017_Mar_13_1519,60.0053889092,MAFE4ImagesEEG,001,100065,
AFNE01.JPG,AFNE01.JPG,AFNE01.JPG,AFNE01.JPG,AFNE01.JPG,AFNE01.JPG,,,,,,,,,3,7,37,6,,,,,,,,,,,,,,,AMSA01.jpg,AMNE14.jpg,AMSA14.jpg,AMNE19.jpg,AMNE19.jpg,MN,1,num_4,16,num_4,0.416797795915,,,2017_Mar_13_1519,60.0053889092,MAFE4ImagesEEG,001,100065,
AFNE01.JPG,AFNE01.JPG,AFNE01.JPG,AFNE01.JPG,AFNE01.JPG,AFNE01.JPG,,,,,,,,,3,8,38,7,,,,,,,,,,,,,,,AMNE09.jpg,AMNE04.jpg,AMSA06.jpg,AMSA01.jpg,AMSA06.jpg,MS,2,num_2,32,num_4,0.600194368453,,,2017_Mar_13_1519,60.0053889092,MAFE4ImagesEEG,001,100065,
AFNE01.JPG,AFNE01.JPG,AFNE01.JPG,AFNE01.JPG,AFNE01.JPG,AFNE01.JPG,,,,,,,,,3,9,39,9,,,,,,,,,,,,,,,AMSA10.jpg,AMNE13.jpg,AMSA15.jpg,AMNE11.jpg,AMSA15.jpg,MS,2,num_2,32,num_6,0.933435863233,,,2017_Mar_13_1519,60.0053889092,MAFE4ImagesEEG,001,100065,
AFNE01.JPG,AFNE01.JPG,AFNE01.JPG,AFNE01.JPG,AFNE01.JPG,AFNE01.JPG,,,,,,,,,4,0,40,7,,,,,,,,,,,,,,,AMSA15.jpg,AMSA01.jpg,AMNE11.jpg,AMNE04.jpg,AMNE04.jpg,MN,1,num_4,32,num_2,0.933438749867,,,2017_Mar_13_1519,60.0053889092,MAFE4ImagesEEG,001,100065,
AFNE01.JPG,AFNE01.JPG,AFNE01.JPG,AFNE01.JPG,AFNE01.JPG,AFNE01.JPG,,,,,,,,,4,1,41,3,,,,,,,,,,,,,,,AMNE05.jpg,AMSA13.jpg,AMNE16.jpg,AMSA18.jpg,AMNE05.jpg,MN,1,num_8,16,num_8,1.26703273796,,,2017_Mar_13_1519,60.0053889092,MAFE4ImagesEEG,001,100065,
AFNE01.JPG,AFNE01.JPG,AFNE01.JPG,AFNE01.JPG,AFNE01.JPG,AFNE01.JPG,,,,,,,,,4,2,42,0,,,,,,,,,,,,,,,AMSA19.jpg,AMNE14.jpg,AMSA20.jpg,AMNE06.jpg,AMSA19.jpg,MS,2,num_8,16,num_8,0.616818323266,,,2017_Mar_13_1519,60.0053889092,MAFE4ImagesEEG,001,100065,
AFNE01.JPG,AFNE01.JPG,AFNE01.JPG,AFNE01.JPG,AFNE01.JPG,AFNE01.JPG,,,,,,,,,4,3,43,2,,,,,,,,,,,,,,,AMNE15.jpg,AMSA11.jpg,AMSA17.jpg,AMNE19.jpg,AMNE19.jpg,MN,1,num_4,32,num_8,1.00006286503,,,2017_Mar_13_1519,60.0053889092,MAFE4ImagesEEG,001,100065,
AFNE01.JPG,AFNE01.JPG,AFNE01.JPG,AFNE01.JPG,AFNE01.JPG,AFNE01.JPG,,,,,,,,,4,4,44,4,,,,,,,,,,,,,,,AMSA02.jpg,AMSA06.jpg,AMNE14.jpg,AMNE15.jpg,AMNE14.jpg,MN,1,num_2,16,num_2,0.86674631713,,,2017_Mar_13_1519,60.0053889092,MAFE4ImagesEEG,001,100065,
AFNE01.JPG,AFNE01.JPG,AFNE01.JPG,AFNE01.JPG,AFNE01.JPG,AFNE01.JPG,,,,,,,,,4,5,45,5,,,,,,,,,,,,,,,AMNE02.jpg,AMSA05.jpg,AMSA11.jpg,AMNE08.jpg,AMSA11.jpg,MS,2,num_2,32,num_6,0.683512038959,,,2017_Mar_13_1519,60.0053889092,MAFE4ImagesEEG,001,100065,
AFNE01.JPG,AFNE01.JPG,AFNE01.JPG,AFNE01.JPG,AFNE01.JPG,AFNE01.JPG,,,,,,,,,4,6,46,1,,,,,,,,,,,,,,,AMNE03.jpg,AMSA18.jpg,AMSA10.jpg,AMNE01.jpg,AMNE01.jpg,MN,1,num_4,32,num_8,0.916818964703,,,2017_Mar_13_1519,60.0053889092,MAFE4ImagesEEG,001,100065,
AFNE01.JPG,AFNE01.JPG,AFNE01.JPG,AFNE01.JPG,AFNE01.JPG,AFNE01.JPG,,,,,,,,,4,7,47,8,,,,,,,,,,,,,,,AMNE15.jpg,AMSA17.jpg,AMNE13.jpg,AMSA10.jpg,AMNE13.jpg,MN,1,num_2,32,num_4,0.950169190357,,,2017_Mar_13_1519,60.0053889092,MAFE4ImagesEEG,001,100065,
AFNE01.JPG,AFNE01.JPG,AFNE01.JPG,AFNE01.JPG,AFNE01.JPG,AFNE01.JPG,,,,,,,,,4,8,48,6,,,,,,,,,,,,,,,AMNE06.jpg,AMSA18.jpg,AMNE03.jpg,AMSA13.jpg,AMNE03.jpg,MN,1,num_2,16,num_2,0.46682489838,,,2017_Mar_13_1519,60.0053889092,MAFE4ImagesEEG,001,100065,
AFNE01.JPG,AFNE01.JPG,AFNE01.JPG,AFNE01.JPG,AFNE01.JPG,AFNE01.JPG,,,,,,,,,4,9,49,9,,,,,,,,,,,,,,,AMNE05.jpg,AMSA11.jpg,AMSA18.jpg,AMNE20.jpg,AMSA11.jpg,MS,2,num_6,32,num_2,0.68346296571,,,2017_Mar_13_1519,60.0053889092,MAFE4ImagesEEG,001,100065,
AFNE01.JPG,AFNE01.JPG,AFNE01.JPG,AFNE01.JPG,AFNE01.JPG,AFNE01.JPG,,,,,,,,,5,0,50,4,,,,,,,,,,,,,,,AMNE16.jpg,AMSA01.jpg,AMSA03.jpg,AMNE05.jpg,AMNE05.jpg,MN,1,num_4,32,num_8,0.866832596192,,,2017_Mar_13_1519,60.0053889092,MAFE4ImagesEEG,001,100065,
AFNE01.JPG,AFNE01.JPG,AFNE01.JPG,AFNE01.JPG,AFNE01.JPG,AFNE01.JPG,,,,,,,,,5,1,51,7,,,,,,,,,,,,,,,AMSA09.jpg,AMNE08.jpg,AMSA19.jpg,AMNE09.jpg,AMNE09.jpg,MN,1,num_4,16,num_4,0.666797314771,,,2017_Mar_13_1519,60.0053889092,MAFE4ImagesEEG,001,100065,
AFNE01.JPG,AFNE01.JPG,AFNE01.JPG,AFNE01.JPG,AFNE01.JPG,AFNE01.JPG,,,,,,,,,5,2,52,1,,,,,,,,,,,,,,,AMSA08.jpg,AMNE18.jpg,AMNE01.jpg,AMSA19.jpg,AMNE01.jpg,MN,1,num_2,32,num_8,0.483510755992,,,2017_Mar_13_1519,60.0053889092,MAFE4ImagesEEG,001,100065,
AFNE01.JPG,AFNE01.JPG,AFNE01.JPG,AFNE01.JPG,AFNE01.JPG,AFNE01.JPG,,,,,,,,,5,3,53,8,,,,,,,,,,,,,,,AMSA20.jpg,AMNE02.jpg,AMSA02.jpg,AMNE11.jpg,AMNE02.jpg,MN,1,num_6,32,num_2,0.500256271276,,,2017_Mar_13_1519,60.0053889092,MAFE4ImagesEEG,001,100065,
AFNE01.JPG,AFNE01.JPG,AFNE01.JPG,AFNE01.JPG,AFNE01.JPG,AFNE01.JPG,,,,,,,,,5,4,54,2,,,,,,,,,,,,,,,AMNE12.jpg,AMNE15.jpg,AMSA16.jpg,AMSA04.jpg,AMSA16.jpg,MS,2,num_2,16,num_2,0.45018234069,,,2017_Mar_13_1519,60.0053889092,MAFE4ImagesEEG,001,100065,
AFNE01.JPG,AFNE01.JPG,AFNE01.JPG,AFNE01.JPG,AFNE01.JPG,AFNE01.JPG,,,,,,,,,5,5,55,0,,,,,,,,,,,,,,,AMSA03.jpg,AMSA11.jpg,AMNE04.jpg,AMNE16.jpg,AMNE04.jpg,MN,1,num_2,32,num_8,1.21678496624,,,2017_Mar_13_1519,60.0053889092,MAFE4ImagesEEG,001,100065,
AFNE01.JPG,AFNE01.JPG,AFNE01.JPG,AFNE01.JPG,AFNE01.JPG,AFNE01.JPG,,,,,,,,,5,6,56,6,,,,,,,,,,,,,,,AMNE06.jpg,AMNE18.jpg,AMSA13.jpg,AMSA12.jpg,AMNE18.jpg,MN,1,num_6,32,num_4,1.18344949471,,,2017_Mar_13_1519,60.0053889092,MAFE4ImagesEEG,001,100065,
AFNE01.JPG,AFNE01.JPG,AFNE01.JPG,AFNE01.JPG,AFNE01.JPG,AFNE01.JPG,,,,,,,,,5,7,57,5,,,,,,,,,,,,,,,AMNE09.jpg,AMNE18.jpg,AMSA04.jpg,AMSA10.jpg,AMSA04.jpg,MS,2,num_2,16,num_2,0.800160690735,,,2017_Mar_13_1519,60.0053889092,MAFE4ImagesEEG,001,100065,
AFNE01.JPG,AFNE01.JPG,AFNE01.JPG,AFNE01.JPG,AFNE01.JPG,AFNE01.JPG,,,,,,,,,5,8,58,3,,,,,,,,,,,,,,,AMSA11.jpg,AMNE03.jpg,AMNE15.jpg,AMSA18.jpg,AMNE03.jpg,MN,1,num_6,32,num_8,0.96678191924,,,2017_Mar_13_1519,60.0053889092,MAFE4ImagesEEG,001,100065,
AFNE01.JPG,AFNE01.JPG,AFNE01.JPG,AFNE01.JPG,AFNE01.JPG,AFNE01.JPG,,,,,,,,,5,9,59,9,,,,,,,,,,,,,,,AMSA16.jpg,AMNE06.jpg,AMSA13.jpg,AMNE17.jpg,AMSA16.jpg,MS,2,num_8,16,num_8,0.450157002255,,,2017_Mar_13_1519,60.0053889092,MAFE4ImagesEEG,001,100065,
,,,,,,,,,,,,,,,,,,,,,,,,,,,,,,,,,,,,,,,,,,,space,6.44975062466,2017_Mar_13_1519,60.0053889092,MAFE4ImagesEEG,001,100065,
AFNE01.JPG,AFNE01.JPG,AFNE01.JPG,AFNE01.JPG,AFNE01.JPG,AFNE01.JPG,,,,,,,,,,,,,0,0,0,0,,,,,,,,,,,AFSA16.jpg,AFSA10.jpg,AFNE16.jpg,AFNE09.jpg,AFNE16.jpg,FN,3,num_2,32,num_4,1.08347964421,,,2017_Mar_13_1519,60.0053889092,MAFE4ImagesEEG,001,100065,
AFNE01.JPG,AFNE01.JPG,AFNE01.JPG,AFNE01.JPG,AFNE01.JPG,AFNE01.JPG,,,,,,,,,,,,,0,1,1,5,,,,,,,,,,,AFSA13.jpg,AFNE10.jpg,AFNE01.jpg,AFSA10.jpg,AFSA13.jpg,FS,4,num_8,16,num_8,0.783473870892,,,2017_Mar_13_1519,60.0053889092,MAFE4ImagesEEG,001,100065,
AFNE01.JPG,AFNE01.JPG,AFNE01.JPG,AFNE01.JPG,AFNE01.JPG,AFNE01.JPG,,,,,,,,,,,,,0,2,2,8,,,,,,,,,,,AFNE06.jpg,AFNE09.jpg,AFSA08.jpg,AFSA04.jpg,AFNE06.jpg,FN,3,num_8,32,num_6,1.10016806773,,,2017_Mar_13_1519,60.0053889092,MAFE4ImagesEEG,001,100065,
AFNE01.JPG,AFNE01.JPG,AFNE01.JPG,AFNE01.JPG,AFNE01.JPG,AFNE01.JPG,,,,,,,,,,,,,0,3,3,4,,,,,,,,,,,AFSA07.jpg,AFNE12.jpg,AFNE04.jpg,AFSA20.jpg,AFSA07.jpg,FS,4,num_8,16,num_8,0.966785126657,,,2017_Mar_13_1519,60.0053889092,MAFE4ImagesEEG,001,100065,
AFNE01.JPG,AFNE01.JPG,AFNE01.JPG,AFNE01.JPG,AFNE01.JPG,AFNE01.JPG,,,,,,,,,,,,,0,4,4,1,,,,,,,,,,,AFSA20.jpg,AFNE09.jpg,AFNE05.jpg,AFSA01.jpg,AFNE09.jpg,FN,3,num_6,16,num_6,2.00002533849,,,2017_Mar_13_1519,60.0053889092,MAFE4ImagesEEG,001,100065,
AFNE01.JPG,AFNE01.JPG,AFNE01.JPG,AFNE01.JPG,AFNE01.JPG,AFNE01.JPG,,,,,,,,,,,,,0,5,5,9,,,,,,,,,,,AFNE14.jpg,AFSA19.jpg,AFSA11.jpg,AFNE07.jpg,AFSA11.jpg,FS,4,num_2,16,num_2,0.91682313435,,,2017_Mar_13_1519,60.0053889092,MAFE4ImagesEEG,001,100065,
AFNE01.JPG,AFNE01.JPG,AFNE01.JPG,AFNE01.JPG,AFNE01.JPG,AFNE01.JPG,,,,,,,,,,,,,0,6,6,3,,,,,,,,,,,AFNE19.jpg,AFSA04.jpg,AFSA08.jpg,AFNE16.jpg,AFNE19.jpg,FN,3,num_8,32,num_2,0.716763476667,,,2017_Mar_13_1519,60.0053889092,MAFE4ImagesEEG,001,100065,
AFNE01.JPG,AFNE01.JPG,AFNE01.JPG,AFNE01.JPG,AFNE01.JPG,AFNE01.JPG,,,,,,,,,,,,,0,7,7,2,,,,,,,,,,,AFNE14.jpg,AFNE16.jpg,AFSA04.jpg,AFSA15.jpg,AFSA04.jpg,FS,4,num_2,16,num_2,0.666802446591,,,2017_Mar_13_1519,60.0053889092,MAFE4ImagesEEG,001,100065,
AFNE01.JPG,AFNE01.JPG,AFNE01.JPG,AFNE01.JPG,AFNE01.JPG,AFNE01.JPG,,,,,,,,,,,,,0,8,8,6,,,,,,,,,,,AFSA04.jpg,AFNE06.jpg,AFSA20.jpg,AFNE09.jpg,AFSA20.jpg,FS,4,num_2,16,num_2,0.950148021569,,,2017_Mar_13_1519,60.0053889092,MAFE4ImagesEEG,001,100065,
AFNE01.JPG,AFNE01.JPG,AFNE01.JPG,AFNE01.JPG,AFNE01.JPG,AFNE01.JPG,,,,,,,,,,,,,0,9,9,7,,,,,,,,,,,AFNE18.jpg,AFSA19.jpg,AFNE02.jpg,AFSA11.jpg,AFSA11.jpg,FS,4,num_4,16,num_4,1.18338727113,,,2017_Mar_13_1519,60.0053889092,MAFE4ImagesEEG,001,100065,
AFNE01.JPG,AFNE01.JPG,AFNE01.JPG,AFNE01.JPG,AFNE01.JPG,AFNE01.JPG,,,,,,,,,,,,,1,0,10,5,,,,,,,,,,,AFNE18.jpg,AFSA09.jpg,AFNE10.jpg,AFSA13.jpg,AFNE18.jpg,FN,3,num_8,32,num_2,0.883505303413,,,2017_Mar_13_1519,60.0053889092,MAFE4ImagesEEG,001,100065,
AFNE01.JPG,AFNE01.JPG,AFNE01.JPG,AFNE01.JPG,AFNE01.JPG,AFNE01.JPG,,,,,,,,,,,,,1,1,11,2,,,,,,,,,,,AFNE12.jpg,AFNE20.jpg,AFSA11.jpg,AFSA20.jpg,AFNE12.jpg,FN,3,num_8,32,num_6,0.733487502323,,,2017_Mar_13_1519,60.0053889092,MAFE4ImagesEEG,001,100065,
AFNE01.JPG,AFNE01.JPG,AFNE01.JPG,AFNE01.JPG,AFNE01.JPG,AFNE01.JPG,,,,,,,,,,,,,1,2,12,8,,,,,,,,,,,AFSA11.jpg,AFNE19.jpg,AFNE14.jpg,AFSA18.jpg,AFSA11.jpg,FS,4,num_8,16,num_8,0.716805493634,,,2017_Mar_13_1519,60.0053889092,MAFE4ImagesEEG,001,100065,
AFNE01.JPG,AFNE01.JPG,AFNE01.JPG,AFNE01.JPG,AFNE01.JPG,AFNE01.JPG,,,,,,,,,,,,,1,3,13,1,,,,,,,,,,,AFSA09.jpg,AFNE06.jpg,AFSA16.jpg,AFNE17.jpg,AFSA09.jpg,FS,4,num_8,32,num_6,0.766788975568,,,2017_Mar_13_1519,60.0053889092,MAFE4ImagesEEG,001,100065,
AFNE01.JPG,AFNE01.JPG,AFNE01.JPG,AFNE01.JPG,AFNE01.JPG,AFNE01.JPG,,,,,,,,,,,,,1,4,14,4,,,,,,,,,,,AFSA13.jpg,AFNE06.jpg,AFSA14.jpg,AFNE04.jpg,AFSA14.jpg,FS,4,num_2,32,num_8,0.466816559143,,,2017_Mar_13_1519,60.0053889092,MAFE4ImagesEEG,001,100065,
AFNE01.JPG,AFNE01.JPG,AFNE01.JPG,AFNE01.JPG,AFNE01.JPG,AFNE01.JPG,,,,,,,,,,,,,1,5,15,6,,,,,,,,,,,AFNE07.jpg,AFNE05.jpg,AFSA07.jpg,AFSA20.jpg,AFNE07.jpg,FN,3,num_8,32,num_4,1.31676604261,,,2017_Mar_13_1519,60.0053889092,MAFE4ImagesEEG,001,100065,
AFNE01.JPG,AFNE01.JPG,AFNE01.JPG,AFNE01.JPG,AFNE01.JPG,AFNE01.JPG,,,,,,,,,,,,,1,6,16,9,,,,,,,,,,,AFNE14.jpg,AFNE19.jpg,AFSA16.jpg,AFSA13.jpg,AFNE19.jpg,FN,3,num_6,32,num_2,1.23328736058,,,2017_Mar_13_1519,60.0053889092,MAFE4ImagesEEG,001,100065,
AFNE01.JPG,AFNE01.JPG,AFNE01.JPG,AFNE01.JPG,AFNE01.JPG,AFNE01.JPG,,,,,,,,,,,,,1,7,17,7,,,,,,,,,,,AFNE11.jpg,AFSA04.jpg,AFNE03.jpg,AFSA11.jpg,AFNE03.jpg,FN,3,num_2,32,num_6,0.733459277195,,,2017_Mar_13_1519,60.0053889092,MAFE4ImagesEEG,001,100065,
AFNE01.JPG,AFNE01.JPG,AFNE01.JPG,AFNE01.JPG,AFNE01.JPG,AFNE01.JPG,,,,,,,,,,,,,1,8,18,3,,,,,,,,,,,AFNE05.jpg,AFSA16.jpg,AFNE14.jpg,AFSA14.jpg,AFSA14.jpg,FS,4,num_4,32,num_2,0.600159407768,,,2017_Mar_13_1519,60.0053889092,MAFE4ImagesEEG,001,100065,
AFNE01.JPG,AFNE01.JPG,AFNE01.JPG,AFNE01.JPG,AFNE01.JPG,AFNE01.JPG,,,,,,,,,,,,,1,9,19,0,,,,,,,,,,,AFNE19.jpg,AFSA11.jpg,AFSA15.jpg,AFNE20.jpg,AFNE19.jpg,FN,3,num_8,16,num_8,0.416807097325,,,2017_Mar_13_1519,60.0053889092,MAFE4ImagesEEG,001,100065,
AFNE01.JPG,AFNE01.JPG,AFNE01.JPG,AFNE01.JPG,AFNE01.JPG,AFNE01.JPG,,,,,,,,,,,,,2,0,20,1,,,,,,,,,,,AFNE09.jpg,AFNE18.jpg,AFSA12.jpg,AFSA01.jpg,AFSA12.jpg,FS,4,num_2,16,num_2,0.400174161827,,,2017_Mar_13_1519,60.0053889092,MAFE4ImagesEEG,001,100065,
AFNE01.JPG,AFNE01.JPG,AFNE01.JPG,AFNE01.JPG,AFNE01.JPG,AFNE01.JPG,,,,,,,,,,,,,2,1,21,8,,,,,,,,,,,AFNE19.jpg,AFNE10.jpg,AFSA17.jpg,AFSA18.jpg,AFNE10.jpg,FN,3,num_6,16,num_6,1.0834674561,,,2017_Mar_13_1519,60.0053889092,MAFE4ImagesEEG,001,100065,
AFNE01.JPG,AFNE01.JPG,AFNE01.JPG,AFNE01.JPG,AFNE01.JPG,AFNE01.JPG,,,,,,,,,,,,,2,2,22,6,,,,,,,,,,,AFNE10.jpg,AFSA12.jpg,AFNE06.jpg,AFSA02.jpg,AFNE06.jpg,FN,3,num_2,16,num_2,1.03315200831,,,2017_Mar_13_1519,60.0053889092,MAFE4ImagesEEG,001,100065,
AFNE01.JPG,AFNE01.JPG,AFNE01.JPG,AFNE01.JPG,AFNE01.JPG,AFNE01.JPG,,,,,,,,,,,,,2,3,23,4,,,,,,,,,,,AFNE08.jpg,AFNE19.jpg,AFSA18.jpg,AFSA03.jpg,AFSA03.jpg,FS,4,num_4,16,num_4,0.400145936699,,,2017_Mar_13_1519,60.0053889092,MAFE4ImagesEEG,001,100065,
AFNE01.JPG,AFNE01.JPG,AFNE01.JPG,AFNE01.JPG,AFNE01.JPG,AFNE01.JPG,,,,,,,,,,,,,2,4,24,2,,,,,,,,,,,AFSA16.jpg,AFNE19.jpg,AFNE04.jpg,AFSA09.jpg,AFNE19.jpg,FN,3,num_6,16,num_6,0.833462163922,,,2017_Mar_13_1519,60.0053889092,MAFE4ImagesEEG,001,100065,
AFNE01.JPG,AFNE01.JPG,AFNE01.JPG,AFNE01.JPG,AFNE01.JPG,AFNE01.JPG,,,,,,,,,,,,,2,5,25,9,,,,,,,,,,,AFNE10.jpg,AFSA03.jpg,AFSA20.jpg,AFNE19.jpg,AFSA03.jpg,FS,4,num_6,32,num_8,1.26674310968,,,2017_Mar_13_1519,60.0053889092,MAFE4ImagesEEG,001,100065,
AFNE01.JPG,AFNE01.JPG,AFNE01.JPG,AFNE01.JPG,AFNE01.JPG,AFNE01.JPG,,,,,,,,,,,,,2,6,26,5,,,,,,,,,,,AFSA10.jpg,AFSA13.jpg,AFNE10.jpg,AFNE05.jpg,AFSA10.jpg,FS,4,num_8,32,num_2,1.1167593071,,,2017_Mar_13_1519,60.0053889092,MAFE4ImagesEEG,001,100065,
AFNE01.JPG,AFNE01.JPG,AFNE01.JPG,AFNE01.JPG,AFNE01.JPG,AFNE01.JPG,,,,,,,,,,,,,2,7,27,7,,,,,,,,,,,AFSA05.jpg,AFSA13.jpg,AFNE19.jpg,AFNE03.jpg,AFNE19.jpg,FN,3,num_2,32,num_8,0.900142729282,,,2017_Mar_13_1519,60.0053889092,MAFE4ImagesEEG,001,100065,
AFNE01.JPG,AFNE01.JPG,AFNE01.JPG,AFNE01.JPG,AFNE01.JPG,AFNE01.JPG,,,,,,,,,,,,,2,8,28,0,,,,,,,,,,,AFNE12.jpg,AFSA07.jpg,AFNE05.jpg,AFSA05.jpg,AFSA05.jpg,FS,4,num_4,32,num_2,1.75009991054,,,2017_Mar_13_1519,60.0053889092,MAFE4ImagesEEG,001,100065,
AFNE01.JPG,AFNE01.JPG,AFNE01.JPG,AFNE01.JPG,AFNE01.JPG,AFNE01.JPG,,,,,,,,,,,,,2,9,29,3,,,,,,,,,,,AFSA07.jpg,AFSA08.jpg,AFNE15.jpg,AFNE19.jpg,AFSA08.jpg,FS,4,num_6,16,num_6,0.733488143829,,,2017_Mar_13_1519,60.0053889092,MAFE4ImagesEEG,001,100065,
AFNE01.JPG,AFNE01.JPG,AFNE01.JPG,AFNE01.JPG,AFNE01.JPG,AFNE01.JPG,,,,,,,,,,,,,3,0,30,6,,,,,,,,,,,AFSA17.jpg,AFNE10.jpg,AFSA01.jpg,AFNE11.jpg,AFNE10.jpg,FN,3,num_6,16,num_6,0.900134069321,,,2017_Mar_13_1519,60.0053889092,MAFE4ImagesEEG,001,100065,
AFNE01.JPG,AFNE01.JPG,AFNE01.JPG,AFNE01.JPG,AFNE01.JPG,AFNE01.JPG,,,,,,,,,,,,,3,1,31,1,,,,,,,,,,,AFNE11.jpg,AFNE15.jpg,AFSA12.jpg,AFSA05.jpg,AFSA05.jpg,FS,4,num_4,32,num_8,0.600153634499,,,2017_Mar_13_1519,60.0053889092,MAFE4ImagesEEG,001,100065,
AFNE01.JPG,AFNE01.JPG,AFNE01.JPG,AFNE01.JPG,AFNE01.JPG,AFNE01.JPG,,,,,,,,,,,,,3,2,32,7,,,,,,,,,,,AFSA08.jpg,AFSA18.jpg,AFNE02.jpg,AFNE07.jpg,AFNE02.jpg,FN,3,num_2,16,num_2,0.76686723606,,,2017_Mar_13_1519,60.0053889092,MAFE4ImagesEEG,001,100065,
AFNE01.JPG,AFNE01.JPG,AFNE01.JPG,AFNE01.JPG,AFNE01.JPG,AFNE01.JPG,,,,,,,,,,,,,3,3,33,3,,,,,,,,,,,AFNE14.jpg,AFSA20.jpg,AFSA11.jpg,AFNE01.jpg,AFNE01.jpg,FN,3,num_4,32,num_2,1.01674359082,,,2017_Mar_13_1519,60.0053889092,MAFE4ImagesEEG,001,100065,
AFNE01.JPG,AFNE01.JPG,AFNE01.JPG,AFNE01.JPG,AFNE01.JPG,AFNE01.JPG,,,,,,,,,,,,,3,4,34,5,,,,,,,,,,,AFSA05.jpg,AFNE05.jpg,AFNE17.jpg,AFSA14.jpg,AFNE05.jpg,FN,3,num_6,32,num_2,0.416793946992,,,2017_Mar_13_1519,60.0053889092,MAFE4ImagesEEG,001,100065,
AFNE01.JPG,AFNE01.JPG,AFNE01.JPG,AFNE01.JPG,AFNE01.JPG,AFNE01.JPG,,,,,,,,,,,,,3,5,35,8,,,,,,,,,,,AFSA10.jpg,AFSA20.jpg,AFNE19.jpg,AFNE12.jpg,AFSA10.jpg,FS,4,num_8,16,num_8,1.16681142733,,,2017_Mar_13_1519,60.0053889092,MAFE4ImagesEEG,001,100065,
AFNE01.JPG,AFNE01.JPG,AFNE01.JPG,AFNE01.JPG,AFNE01.JPG,AFNE01.JPG,,,,,,,,,,,,,3,6,36,0,,,,,,,,,,,AFSA13.jpg,AFNE16.jpg,AFSA01.jpg,AFNE11.jpg,AFNE16.jpg,FN,3,num_6,16,num_6,0.51685103873,,,2017_Mar_13_1519,60.0053889092,MAFE4ImagesEEG,001,100065,
AFNE01.JPG,AFNE01.JPG,AFNE01.JPG,AFNE01.JPG,AFNE01.JPG,AFNE01.JPG,,,,,,,,,,,,,3,7,37,2,,,,,,,,,,,AFNE11.jpg,AFSA06.jpg,AFSA20.jpg,AFNE14.jpg,AFSA20.jpg,FS,4,num_2,32,num_8,0.516802286205,,,2017_Mar_13_1519,60.0053889092,MAFE4ImagesEEG,001,100065,
AFNE01.JPG,AFNE01.JPG,AFNE01.JPG,AFNE01.JPG,AFNE01.JPG,AFNE01.JPG,,,,,,,,,,,,,3,8,38,4,,,,,,,,,,,AFSA09.jpg,AFNE06.jpg,AFNE11.jpg,AFSA17.jpg,AFNE06.jpg,FN,3,num_6,16,num_6,0.866783522943,,,2017_Mar_13_1519,60.0053889092,MAFE4ImagesEEG,001,100065,
AFNE01.JPG,AFNE01.JPG,AFNE01.JPG,AFNE01.JPG,AFNE01.JPG,AFNE01.JPG,,,,,,,,,,,,,3,9,39,9,,,,,,,,,,,AFNE18.jpg,AFSA01.jpg,AFSA16.jpg,AFNE03.jpg,AFNE03.jpg,FN,3,num_4,16,num_4,0.483505624172,,,2017_Mar_13_1519,60.0053889092,MAFE4ImagesEEG,001,100065,
AFNE01.JPG,AFNE01.JPG,AFNE01.JPG,AFNE01.JPG,AFNE01.JPG,AFNE01.JPG,,,,,,,,,,,,,4,0,40,5,,,,,,,,,,,AFSA20.jpg,AFNE19.jpg,AFNE16.jpg,AFSA01.jpg,AFNE16.jpg,FN,3,num_2,16,num_2,0.63349487941,,,2017_Mar_13_1519,60.0053889092,MAFE4ImagesEEG,001,100065,
AFNE01.JPG,AFNE01.JPG,AFNE01.JPG,AFNE01.JPG,AFNE01.JPG,AFNE01.JPG,,,,,,,,,,,,,4,1,41,6,,,,,,,,,,,AFNE02.jpg,AFNE15.jpg,AFSA05.jpg,AFSA13.jpg,AFNE15.jpg,FN,3,num_6,16,num_6,0.516691310157,,,2017_Mar_13_1519,60.0053889092,MAFE4ImagesEEG,001,100065,
AFNE01.JPG,AFNE01.JPG,AFNE01.JPG,AFNE01.JPG,AFNE01.JPG,AFNE01.JPG,,,,,,,,,,,,,4,2,42,1,,,,,,,,,,,AFSA03.jpg,AFNE03.jpg,AFSA16.jpg,AFNE18.jpg,AFSA03.jpg,FS,4,num_8,16,num_8,0.933468578733,,,2017_Mar_13_1519,60.0053889092,MAFE4ImagesEEG,001,100065,
AFNE01.JPG,AFNE01.JPG,AFNE01.JPG,AFNE01.JPG,AFNE01.JPG,AFNE01.JPG,,,,,,,,,,,,,4,3,43,8,,,,,,,,,,,AFSA05.jpg,AFNE06.jpg,AFSA01.jpg,AFNE19.jpg,AFNE19.jpg,FN,3,num_4,32,num_6,0.950130380807,,,2017_Mar_13_1519,60.0053889092,MAFE4ImagesEEG,001,100065,
AFNE01.JPG,AFNE01.JPG,AFNE01.JPG,AFNE01.JPG,AFNE01.JPG,AFNE01.JPG,,,,,,,,,,,,,4,4,44,9,,,,,,,,,,,AFSA07.jpg,AFSA02.jpg,AFNE03.jpg,AFNE18.jpg,AFNE03.jpg,FN,3,num_2,16,num_2,1.00013695599,,,2017_Mar_13_1519,60.0053889092,MAFE4ImagesEEG,001,100065,
AFNE01.JPG,AFNE01.JPG,AFNE01.JPG,AFNE01.JPG,AFNE01.JPG,AFNE01.JPG,,,,,,,,,,,,,4,5,45,3,,,,,,,,,,,AFNE15.jpg,AFSA03.jpg,AFNE08.jpg,AFSA10.jpg,AFNE08.jpg,FN,3,num_2,32,num_8,0.766509610927,,,2017_Mar_13_1519,60.0053889092,MAFE4ImagesEEG,001,100065,
AFNE01.JPG,AFNE01.JPG,AFNE01.JPG,AFNE01.JPG,AFNE01.JPG,AFNE01.JPG,,,,,,,,,,,,,4,6,46,4,,,,,,,,,,,AFNE05.jpg,AFSA11.jpg,AFNE15.jpg,AFSA03.jpg,AFSA03.jpg,FS,4,num_4,16,num_4,0.516827303974,,,2017_Mar_13_1519,60.0053889092,MAFE4ImagesEEG,001,100065,
AFNE01.JPG,AFNE01.JPG,AFNE01.JPG,AFNE01.JPG,AFNE01.JPG,AFNE01.JPG,,,,,,,,,,,,,4,7,47,7,,,,,,,,,,,AFNE13.jpg,AFNE08.jpg,AFSA12.jpg,AFSA02.jpg,AFNE08.jpg,FN,3,num_6,32,num_8,0.800144974492,,,2017_Mar_13_1519,60.0053889092,MAFE4ImagesEEG,001,100065,
AFNE01.JPG,AFNE01.JPG,AFNE01.JPG,AFNE01.JPG,AFNE01.JPG,AFNE01.JPG,,,,,,,,,,,,,4,8,48,0,,,,,,,,,,,AFNE16.jpg,AFNE15.jpg,AFSA03.jpg,AFSA17.jpg,AFNE15.jpg,FN,3,num_6,16,num_6,0.616800682503,,,2017_Mar_13_1519,60.0053889092,MAFE4ImagesEEG,001,100065,
AFNE01.JPG,AFNE01.JPG,AFNE01.JPG,AFNE01.JPG,AFNE01.JPG,AFNE01.JPG,,,,,,,,,,,,,4,9,49,2,,,,,,,,,,,AFSA09.jpg,AFSA07.jpg,AFNE05.jpg,AFNE02.jpg,AFSA07.jpg,FS,4,num_6,32,num_8,0.633468257962,,,2017_Mar_13_1519,60.0053889092,MAFE4ImagesEEG,001,100065,
AFNE01.JPG,AFNE01.JPG,AFNE01.JPG,AFNE01.JPG,AFNE01.JPG,AFNE01.JPG,,,,,,,,,,,,,5,0,50,8,,,,,,,,,,,AFNE20.jpg,AFSA12.jpg,AFNE18.jpg,AFSA17.jpg,AFNE18.jpg,FN,3,num_2,16,num_2,0.800179614394,,,2017_Mar_13_1519,60.0053889092,MAFE4ImagesEEG,001,100065,
AFNE01.JPG,AFNE01.JPG,AFNE01.JPG,AFNE01.JPG,AFNE01.JPG,AFNE01.JPG,,,,,,,,,,,,,5,1,51,6,,,,,,,,,,,AFSA07.jpg,AFNE07.jpg,AFSA02.jpg,AFNE12.jpg,AFSA07.jpg,FS,4,num_8,32,num_4,0.916870283079,,,2017_Mar_13_1519,60.0053889092,MAFE4ImagesEEG,001,100065,
AFNE01.JPG,AFNE01.JPG,AFNE01.JPG,AFNE01.JPG,AFNE01.JPG,AFNE01.JPG,,,,,,,,,,,,,5,2,52,4,,,,,,,,,,,AFSA10.jpg,AFNE13.jpg,AFSA03.jpg,AFNE07.jpg,AFSA10.jpg,FS,4,num_8,16,num_8,0.533499369747,,,2017_Mar_13_1519,60.0053889092,MAFE4ImagesEEG,001,100065,
AFNE01.JPG,AFNE01.JPG,AFNE01.JPG,AFNE01.JPG,AFNE01.JPG,AFNE01.JPG,,,,,,,,,,,,,5,3,53,9,,,,,,,,,,,AFNE12.jpg,AFNE05.jpg,AFSA18.jpg,AFSA12.jpg,AFNE05.jpg,FN,3,num_6,32,num_8,0.883466173138,,,2017_Mar_13_1519,60.0053889092,MAFE4ImagesEEG,001,100065,
AFNE01.JPG,AFNE01.JPG,AFNE01.JPG,AFNE01.JPG,AFNE01.JPG,AFNE01.JPG,,,,,,,,,,,,,5,4,54,3,,,,,,,,,,,AFNE14.jpg,AFNE08.jpg,AFSA15.jpg,AFSA19.jpg,AFSA15.jpg,FS,4,num_2,16,num_2,0.533483653504,,,2017_Mar_13_1519,60.0053889092,MAFE4ImagesEEG,001,100065,
AFNE01.JPG,AFNE01.JPG,AFNE01.JPG,AFNE01.JPG,AFNE01.JPG,AFNE01.JPG,,,,,,,,,,,,,5,5,55,5,,,,,,,,,,,AFSA08.jpg,AFNE03.jpg,AFNE20.jpg,AFSA16.jpg,AFSA16.jpg,FS,4,num_4,16,num_4,0.783470984257,,,2017_Mar_13_1519,60.0053889092,MAFE4ImagesEEG,001,100065,
AFNE01.JPG,AFNE01.JPG,AFNE01.JPG,AFNE01.JPG,AFNE01.JPG,AFNE01.JPG,,,,,,,,,,,,,5,6,56,1,,,,,,,,,,,AFSA08.jpg,AFSA09.jpg,AFNE17.jpg,AFNE19.jpg,AFSA08.jpg,FS,4,num_8,16,num_8,0.766813993221,,,2017_Mar_13_1519,60.0053889092,MAFE4ImagesEEG,001,100065,
AFNE01.JPG,AFNE01.JPG,AFNE01.JPG,AFNE01.JPG,AFNE01.JPG,AFNE01.JPG,,,,,,,,,,,,,5,7,57,2,,,,,,,,,,,AFSA16.jpg,AFSA01.jpg,AFNE19.jpg,AFNE07.jpg,AFNE07.jpg,FN,3,num_4,16,num_4,0.466836124309,,,2017_Mar_13_1519,60.0053889092,MAFE4ImagesEEG,001,100065,
AFNE01.JPG,AFNE01.JPG,AFNE01.JPG,AFNE01.JPG,AFNE01.JPG,AFNE01.JPG,,,,,,,,,,,,,5,8,58,7,,,,,,,,,,,AFNE04.jpg,AFSA06.jpg,AFSA04.jpg,AFNE07.jpg,AFNE04.jpg,FN,3,num_8,16,num_8,1.15020030213,,,2017_Mar_13_1519,60.0053889092,MAFE4ImagesEEG,001,100065,
AFNE01.JPG,AFNE01.JPG,AFNE01.JPG,AFNE01.JPG,AFNE01.JPG,AFNE01.JPG,,,,,,,,,,,,,5,9,59,0,,,,,,,,,,,AFNE10.jpg,AFSA07.jpg,AFSA08.jpg,AFNE12.jpg,AFSA08.jpg,FS,4,num_2,16,num_2,1.1501271734,,,2017_Mar_13_1519,60.0053889092,MAFE4ImagesEEG,001,100065,
,,,,,,,,,,,,,,,,,,,,,,,,,,,,,,,,,,,,,,,,,,,space,66.1954701888,2017_Mar_13_1519,60.0053889092,MAFE4ImagesEEG,001,100065,
AFNE01.JPG,AFNE01.JPG,AFNE01.JPG,AFNE01.JPG,AFNE01.JPG,AFNE01.JPG,,,,,,,,,,,,,,,,,0,0,0,7,,,,,,,AMNE05.jpg,AMSA09.jpg,AMNE15.jpg,AMSA15.jpg,AMSA15.jpg,MS,2,num_4,32,num_8,0.666755297803,,,2017_Mar_13_1519,60.0053889092,MAFE4ImagesEEG,001,100065,
AFNE01.JPG,AFNE01.JPG,AFNE01.JPG,AFNE01.JPG,AFNE01.JPG,AFNE01.JPG,,,,,,,,,,,,,,,,,0,1,1,4,,,,,,,AMSA18.jpg,AMNE20.jpg,AMNE18.jpg,AMSA06.jpg,AMNE18.jpg,MN,1,num_2,16,num_2,0.850159247406,,,2017_Mar_13_1519,60.0053889092,MAFE4ImagesEEG,001,100065,
AFNE01.JPG,AFNE01.JPG,AFNE01.JPG,AFNE01.JPG,AFNE01.JPG,AFNE01.JPG,,,,,,,,,,,,,,,,,0,2,2,3,,,,,,,AMSA18.jpg,AMNE19.jpg,AMNE10.jpg,AMSA19.jpg,AMNE19.jpg,MN,1,num_6,32,num_8,0.86679539032,,,2017_Mar_13_1519,60.0053889092,MAFE4ImagesEEG,001,100065,
AFNE01.JPG,AFNE01.JPG,AFNE01.JPG,AFNE01.JPG,AFNE01.JPG,AFNE01.JPG,,,,,,,,,,,,,,,,,0,3,3,1,,,,,,,AMSA16.jpg,AMSA13.jpg,AMNE18.jpg,AMNE11.jpg,AMNE11.jpg,MN,1,num_4,16,num_4,1.21669708355,,,2017_Mar_13_1519,60.0053889092,MAFE4ImagesEEG,001,100065,
AFNE01.JPG,AFNE01.JPG,AFNE01.JPG,AFNE01.JPG,AFNE01.JPG,AFNE01.JPG,,,,,,,,,,,,,,,,,0,4,4,9,,,,,,,AMNE10.jpg,AMSA04.jpg,AMSA18.jpg,AMNE05.jpg,AMNE05.jpg,MN,1,num_4,32,num_8,0.983454947243,,,2017_Mar_13_1519,60.0053889092,MAFE4ImagesEEG,001,100065,
AFNE01.JPG,AFNE01.JPG,AFNE01.JPG,AFNE01.JPG,AFNE01.JPG,AFNE01.JPG,,,,,,,,,,,,,,,,,0,5,5,2,,,,,,,AMSA01.jpg,AMNE15.jpg,AMNE06.jpg,AMSA17.jpg,AMSA17.jpg,MS,2,num_4,32,num_8,0.700232857256,,,2017_Mar_13_1519,60.0053889092,MAFE4ImagesEEG,001,100065,
AFNE01.JPG,AFNE01.JPG,AFNE01.JPG,AFNE01.JPG,AFNE01.JPG,AFNE01.JPG,,,,,,,,,,,,,,,,,0,6,6,8,,,,,,,AMSA10.jpg,AMNE08.jpg,AMSA17.jpg,AMNE14.jpg,AMSA17.jpg,MS,2,num_2,16,num_2,0.400139842648,,,2017_Mar_13_1519,60.0053889092,MAFE4ImagesEEG,001,100065,
AFNE01.JPG,AFNE01.JPG,AFNE01.JPG,AFNE01.JPG,AFNE01.JPG,AFNE01.JPG,,,,,,,,,,,,,,,,,0,7,7,0,,,,,,,AMSA11.jpg,AMSA16.jpg,AMNE02.jpg,AMNE17.jpg,AMNE17.jpg,MN,1,num_4,32,num_8,0.633505463833,,,2017_Mar_13_1519,60.0053889092,MAFE4ImagesEEG,001,100065,
AFNE01.JPG,AFNE01.JPG,AFNE01.JPG,AFNE01.JPG,AFNE01.JPG,AFNE01.JPG,,,,,,,,,,,,,,,,,0,8,8,6,,,,,,,AMNE01.jpg,AMNE07.jpg,AMSA13.jpg,AMSA12.jpg,AMSA12.jpg,MS,2,num_4,32,num_6,1.79991243797,,,2017_Mar_13_1519,60.0053889092,MAFE4ImagesEEG,001,100065,
AFNE01.JPG,AFNE01.JPG,AFNE01.JPG,AFNE01.JPG,AFNE01.JPG,AFNE01.JPG,,,,,,,,,,,,,,,,,0,9,9,5,,,,,,,AMSA08.jpg,AMSA04.jpg,AMNE04.jpg,AMNE13.jpg,AMSA08.jpg,MS,2,num_8,16,num_8,0.733441315824,,,2017_Mar_13_1519,60.0053889092,MAFE4ImagesEEG,001,100065,
AFNE01.JPG,AFNE01.JPG,AFNE01.JPG,AFNE01.JPG,AFNE01.JPG,AFNE01.JPG,,,,,,,,,,,,,,,,,1,0,10,8,,,,,,,AMNE17.jpg,AMNE05.jpg,AMSA19.jpg,AMSA13.jpg,AMNE17.jpg,MN,1,num_8,32,num_2,0.450210886542,,,2017_Mar_13_1519,60.0053889092,MAFE4ImagesEEG,001,100065,
AFNE01.JPG,AFNE01.JPG,AFNE01.JPG,AFNE01.JPG,AFNE01.JPG,AFNE01.JPG,,,,,,,,,,,,,,,,,1,1,11,3,,,,,,,AMNE18.jpg,AMSA13.jpg,AMNE02.jpg,AMSA14.jpg,AMSA14.jpg,MS,2,num_4,16,num_4,0.450133908947,,,2017_Mar_13_1519,60.0053889092,MAFE4ImagesEEG,001,100065,
AFNE01.JPG,AFNE01.JPG,AFNE01.JPG,AFNE01.JPG,AFNE01.JPG,AFNE01.JPG,,,,,,,,,,,,,,,,,1,2,12,0,,,,,,,AMSA04.jpg,AMNE10.jpg,AMNE01.jpg,AMSA09.jpg,AMNE01.jpg,MN,1,num_2,32,num_8,0.750109853398,,,2017_Mar_13_1519,60.0053889092,MAFE4ImagesEEG,001,100065,
AFNE01.JPG,AFNE01.JPG,AFNE01.JPG,AFNE01.JPG,AFNE01.JPG,AFNE01.JPG,,,,,,,,,,,,,,,,,1,3,13,5,,,,,,,AMSA15.jpg,AMSA04.jpg,AMNE04.jpg,AMNE19.jpg,AMNE04.jpg,MN,1,num_2,32,num_6,0.550168228161,,,2017_Mar_13_1519,60.0053889092,MAFE4ImagesEEG,001,100065,
AFNE01.JPG,AFNE01.JPG,AFNE01.JPG,AFNE01.JPG,AFNE01.JPG,AFNE01.JPG,,,,,,,,,,,,,,,,,1,4,14,6,,,,,,,AMNE18.jpg,AMNE02.jpg,AMSA16.jpg,AMSA14.jpg,AMNE02.jpg,MN,1,num_6,16,num_6,0.716677197663,,,2017_Mar_13_1519,60.0053889092,MAFE4ImagesEEG,001,100065,
AFNE01.JPG,AFNE01.JPG,AFNE01.JPG,AFNE01.JPG,AFNE01.JPG,AFNE01.JPG,,,,,,,,,,,,,,,,,1,5,15,2,,,,,,,AMNE04.jpg,AMSA09.jpg,AMSA12.jpg,AMNE09.jpg,AMSA09.jpg,MS,2,num_6,32,num_8,1.03347788018,,,2017_Mar_13_1519,60.0053889092,MAFE4ImagesEEG,001,100065,
AFNE01.JPG,AFNE01.JPG,AFNE01.JPG,AFNE01.JPG,AFNE01.JPG,AFNE01.JPG,,,,,,,,,,,,,,,,,1,6,16,7,,,,,,,AMSA15.jpg,AMNE01.jpg,AMSA19.jpg,AMNE15.jpg,AMSA19.jpg,MS,2,num_2,16,num_2,0.849836582958,,,2017_Mar_13_1519,60.0053889092,MAFE4ImagesEEG,001,100065,
AFNE01.JPG,AFNE01.JPG,AFNE01.JPG,AFNE01.JPG,AFNE01.JPG,AFNE01.JPG,,,,,,,,,,,,,,,,,1,7,17,4,,,,,,,AMSA19.jpg,AMNE12.jpg,AMNE05.jpg,AMSA20.jpg,AMSA19.jpg,MS,2,num_8,32,num_4,0.616801644792,,,2017_Mar_13_1519,60.0053889092,MAFE4ImagesEEG,001,100065,
AFNE01.JPG,AFNE01.JPG,AFNE01.JPG,AFNE01.JPG,AFNE01.JPG,AFNE01.JPG,,,,,,,,,,,,,,,,,1,8,18,1,,,,,,,AMNE01.jpg,AMSA18.jpg,AMNE05.jpg,AMSA17.jpg,AMSA17.jpg,MS,2,num_4,16,num_4,0.433497445309,,,2017_Mar_13_1519,60.0053889092,MAFE4ImagesEEG,001,100065,
AFNE01.JPG,AFNE01.JPG,AFNE01.JPG,AFNE01.JPG,AFNE01.JPG,AFNE01.JPG,,,,,,,,,,,,,,,,,1,9,19,9,,,,,,,AMSA04.jpg,AMNE19.jpg,AMNE14.jpg,AMSA15.jpg,AMSA04.jpg,MS,2,num_8,16,num_8,1.01688247122,,,2017_Mar_13_1519,60.0053889092,MAFE4ImagesEEG,001,100065,
AFNE01.JPG,AFNE01.JPG,AFNE01.JPG,AFNE01.JPG,AFNE01.JPG,AFNE01.JPG,,,,,,,,,,,,,,,,,2,0,20,0,,,,,,,AMSA10.jpg,AMNE06.jpg,AMNE19.jpg,AMSA15.jpg,AMNE19.jpg,MN,1,num_2,32,num_8,0.950136154133,,,2017_Mar_13_1519,60.0053889092,MAFE4ImagesEEG,001,100065,
AFNE01.JPG,AFNE01.JPG,AFNE01.JPG,AFNE01.JPG,AFNE01.JPG,AFNE01.JPG,,,,,,,,,,,,,,,,,2,1,21,4,,,,,,,AMSA18.jpg,AMNE15.jpg,AMSA04.jpg,AMNE17.jpg,AMSA04.jpg,MS,2,num_2,16,num_2,0.383476436837,,,2017_Mar_13_1519,60.0053889092,MAFE4ImagesEEG,001,100065,
AFNE01.JPG,AFNE01.JPG,AFNE01.JPG,AFNE01.JPG,AFNE01.JPG,AFNE01.JPG,,,,,,,,,,,,,,,,,2,2,22,9,,,,,,,AMNE09.jpg,AMSA05.jpg,AMSA08.jpg,AMNE14.jpg,AMNE14.jpg,MN,1,num_4,16,num_4,0.916681367205,,,2017_Mar_13_1519,60.0053889092,MAFE4ImagesEEG,001,100065,
AFNE01.JPG,AFNE01.JPG,AFNE01.JPG,AFNE01.JPG,AFNE01.JPG,AFNE01.JPG,,,,,,,,,,,,,,,,,2,3,23,1,,,,,,,AMNE20.jpg,AMSA19.jpg,AMSA04.jpg,AMNE16.jpg,AMSA19.jpg,MS,2,num_6,16,num_6,0.400256591965,,,2017_Mar_13_1519,60.0053889092,MAFE4ImagesEEG,001,100065,
AFNE01.JPG,AFNE01.JPG,AFNE01.JPG,AFNE01.JPG,AFNE01.JPG,AFNE01.JPG,,,,,,,,,,,,,,,,,2,4,24,3,,,,,,,AMNE15.jpg,AMSA10.jpg,AMSA06.jpg,AMNE08.jpg,AMNE15.jpg,MN,1,num_8,32,num_4,0.367032737879,,,2017_Mar_13_1519,60.0053889092,MAFE4ImagesEEG,001,100065,
AFNE01.JPG,AFNE01.JPG,AFNE01.JPG,AFNE01.JPG,AFNE01.JPG,AFNE01.JPG,,,,,,,,,,,,,,,,,2,5,25,5,,,,,,,AMNE15.jpg,AMSA19.jpg,AMSA13.jpg,AMNE03.jpg,AMSA19.jpg,MS,2,num_6,32,num_4,0.883469059772,,,2017_Mar_13_1519,60.0053889092,MAFE4ImagesEEG,001,100065,
AFNE01.JPG,AFNE01.JPG,AFNE01.JPG,AFNE01.JPG,AFNE01.JPG,AFNE01.JPG,,,,,,,,,,,,,,,,,2,6,26,2,,,,,,,AMNE16.jpg,AMSA06.jpg,AMSA09.jpg,AMNE19.jpg,AMNE19.jpg,MN,1,num_4,32,num_8,0.650159888901,,,2017_Mar_13_1519,60.0053889092,MAFE4ImagesEEG,001,100065,
AFNE01.JPG,AFNE01.JPG,AFNE01.JPG,AFNE01.JPG,AFNE01.JPG,AFNE01.JPG,,,,,,,,,,,,,,,,,2,7,27,7,,,,,,,AMSA02.jpg,AMSA06.jpg,AMNE13.jpg,AMNE10.jpg,AMSA02.jpg,MS,2,num_8,16,num_8,0.516814153641,,,2017_Mar_13_1519,60.0053889092,MAFE4ImagesEEG,001,100065,
AFNE01.JPG,AFNE01.JPG,AFNE01.JPG,AFNE01.JPG,AFNE01.JPG,AFNE01.JPG,,,,,,,,,,,,,,,,,2,8,28,8,,,,,,,AMNE11.jpg,AMSA19.jpg,AMSA14.jpg,AMNE12.jpg,AMNE11.jpg,MN,1,num_8,16,num_8,0.799842516659,,,2017_Mar_13_1519,60.0053889092,MAFE4ImagesEEG,001,100065,
AFNE01.JPG,AFNE01.JPG,AFNE01.JPG,AFNE01.JPG,AFNE01.JPG,AFNE01.JPG,,,,,,,,,,,,,,,,,2,9,29,6,,,,,,,AMNE03.jpg,AMSA16.jpg,AMNE07.jpg,AMSA04.jpg,AMNE07.jpg,MN,1,num_2,16,num_2,0.433485577931,,,2017_Mar_13_1519,60.0053889092,MAFE4ImagesEEG,001,100065,
AFNE01.JPG,AFNE01.JPG,AFNE01.JPG,AFNE01.JPG,AFNE01.JPG,AFNE01.JPG,,,,,,,,,,,,,,,,,3,0,30,9,,,,,,,AMNE17.jpg,AMSA17.jpg,AMSA20.jpg,AMNE20.jpg,AMNE20.jpg,MN,1,num_4,16,num_4,0.467027285369,,,2017_Mar_13_1519,60.0053889092,MAFE4ImagesEEG,001,100065,
AFNE01.JPG,AFNE01.JPG,AFNE01.JPG,AFNE01.JPG,AFNE01.JPG,AFNE01.JPG,,,,,,,,,,,,,,,,,3,1,31,7,,,,,,,AMNE17.jpg,AMNE02.jpg,AMSA16.jpg,AMSA04.jpg,AMSA04.jpg,MS,2,num_4,16,num_4,0.600360832526,,,2017_Mar_13_1519,60.0053889092,MAFE4ImagesEEG,001,100065,
AFNE01.JPG,AFNE01.JPG,AFNE01.JPG,AFNE01.JPG,AFNE01.JPG,AFNE01.JPG,,,,,,,,,,,,,,,,,3,2,32,3,,,,,,,AMSA01.jpg,AMSA02.jpg,AMNE04.jpg,AMNE02.jpg,AMNE04.jpg,MN,1,num_2,16,num_2,1.10011418344,,,2017_Mar_13_1519,60.0053889092,MAFE4ImagesEEG,001,100065,
AFNE01.JPG,AFNE01.JPG,AFNE01.JPG,AFNE01.JPG,AFNE01.JPG,AFNE01.JPG,,,,,,,,,,,,,,,,,3,3,33,0,,,,,,,AMSA18.jpg,AMNE07.jpg,AMSA09.jpg,AMNE12.jpg,AMNE12.jpg,MN,1,num_4,32,num_6,0.866744392668,,,2017_Mar_13_1519,60.0053889092,MAFE4ImagesEEG,001,100065,
AFNE01.JPG,AFNE01.JPG,AFNE01.JPG,AFNE01.JPG,AFNE01.JPG,AFNE01.JPG,,,,,,,,,,,,,,,,,3,4,34,4,,,,,,,AMSA08.jpg,AMSA09.jpg,AMNE19.jpg,AMNE06.jpg,AMSA09.jpg,MS,2,num_6,16,num_6,0.783472587937,,,2017_Mar_13_1519,60.0053889092,MAFE4ImagesEEG,001,100065,
AFNE01.JPG,AFNE01.JPG,AFNE01.JPG,AFNE01.JPG,AFNE01.JPG,AFNE01.JPG,,,,,,,,,,,,,,,,,3,5,35,6,,,,,,,AMSA20.jpg,AMNE16.jpg,AMSA16.jpg,AMNE20.jpg,AMNE20.jpg,MN,1,num_4,16,num_4,0.716819606198,,,2017_Mar_13_1519,60.0053889092,MAFE4ImagesEEG,001,100065,
AFNE01.JPG,AFNE01.JPG,AFNE01.JPG,AFNE01.JPG,AFNE01.JPG,AFNE01.JPG,,,,,,,,,,,,,,,,,3,6,36,1,,,,,,,AMNE08.jpg,AMSA12.jpg,AMNE17.jpg,AMSA07.jpg,AMSA12.jpg,MS,2,num_6,16,num_6,0.866758505232,,,2017_Mar_13_1519,60.0053889092,MAFE4ImagesEEG,001,100065,
AFNE01.JPG,AFNE01.JPG,AFNE01.JPG,AFNE01.JPG,AFNE01.JPG,AFNE01.JPG,,,,,,,,,,,,,,,,,3,7,37,2,,,,,,,AMSA15.jpg,AMNE07.jpg,AMNE13.jpg,AMSA03.jpg,AMSA15.jpg,MS,2,num_8,32,num_4,0.650102155691,,,2017_Mar_13_1519,60.0053889092,MAFE4ImagesEEG,001,100065,
AFNE01.JPG,AFNE01.JPG,AFNE01.JPG,AFNE01.JPG,AFNE01.JPG,AFNE01.JPG,,,,,,,,,,,,,,,,,3,8,38,5,,,,,,,AMSA11.jpg,AMNE17.jpg,AMNE04.jpg,AMSA05.jpg,AMSA11.jpg,MS,2,num_8,32,num_2,0.466815276246,,,2017_Mar_13_1519,60.0053889092,MAFE4ImagesEEG,001,100065,
AFNE01.JPG,AFNE01.JPG,AFNE01.JPG,AFNE01.JPG,AFNE01.JPG,AFNE01.JPG,,,,,,,,,,,,,,,,,3,9,39,8,,,,,,,AMNE13.jpg,AMNE20.jpg,AMSA08.jpg,AMSA04.jpg,AMNE20.jpg,MN,1,num_6,16,num_6,0.683527113753,,,2017_Mar_13_1519,60.0053889092,MAFE4ImagesEEG,001,100065,
AFNE01.JPG,AFNE01.JPG,AFNE01.JPG,AFNE01.JPG,AFNE01.JPG,AFNE01.JPG,,,,,,,,,,,,,,,,,4,0,40,6,,,,,,,AMNE03.jpg,AMSA17.jpg,AMSA01.jpg,AMNE02.jpg,AMNE03.jpg,MN,1,num_8,32,num_6,1.06671392237,,,2017_Mar_13_1519,60.0053889092,MAFE4ImagesEEG,001,100065,
AFNE01.JPG,AFNE01.JPG,AFNE01.JPG,AFNE01.JPG,AFNE01.JPG,AFNE01.JPG,,,,,,,,,,,,,,,,,4,1,41,5,,,,,,,AMNE10.jpg,AMNE08.jpg,AMSA17.jpg,AMSA13.jpg,AMNE10.jpg,MN,1,num_8,16,num_8,0.783471946488,,,2017_Mar_13_1519,60.0053889092,MAFE4ImagesEEG,001,100065,
AFNE01.JPG,AFNE01.JPG,AFNE01.JPG,AFNE01.JPG,AFNE01.JPG,AFNE01.JPG,,,,,,,,,,,,,,,,,4,2,42,0,,,,,,,AMNE04.jpg,AMSA01.jpg,AMNE09.jpg,AMSA18.jpg,AMNE04.jpg,MN,1,num_8,32,num_4,1.33346537128,,,2017_Mar_13_1519,60.0053889092,MAFE4ImagesEEG,001,100065,
AFNE01.JPG,AFNE01.JPG,AFNE01.JPG,AFNE01.JPG,AFNE01.JPG,AFNE01.JPG,,,,,,,,,,,,,,,,,4,3,43,4,,,,,,,AMSA06.jpg,AMNE16.jpg,AMNE13.jpg,AMSA16.jpg,AMNE16.jpg,MN,1,num_6,32,num_2,0.833496483101,,,2017_Mar_13_1519,60.0053889092,MAFE4ImagesEEG,001,100065,
AFNE01.JPG,AFNE01.JPG,AFNE01.JPG,AFNE01.JPG,AFNE01.JPG,AFNE01.JPG,,,,,,,,,,,,,,,,,4,4,44,3,,,,,,,AMNE01.jpg,AMSA09.jpg,AMNE11.jpg,AMSA19.jpg,AMNE01.jpg,MN,1,num_8,16,num_8,0.700204632129,,,2017_Mar_13_1519,60.0053889092,MAFE4ImagesEEG,001,100065,
AFNE01.JPG,AFNE01.JPG,AFNE01.JPG,AFNE01.JPG,AFNE01.JPG,AFNE01.JPG,,,,,,,,,,,,,,,,,4,5,45,9,,,,,,,AMSA05.jpg,AMSA20.jpg,AMNE08.jpg,AMNE11.jpg,AMNE08.jpg,MN,1,num_2,16,num_2,0.966769089631,,,2017_Mar_13_1519,60.0053889092,MAFE4ImagesEEG,001,100065,
AFNE01.JPG,AFNE01.JPG,AFNE01.JPG,AFNE01.JPG,AFNE01.JPG,AFNE01.JPG,,,,,,,,,,,,,,,,,4,6,46,1,,,,,,,AMNE11.jpg,AMSA20.jpg,AMSA11.jpg,AMNE01.jpg,AMNE11.jpg,MN,1,num_8,32,num_6,0.650157964439,,,2017_Mar_13_1519,60.0053889092,MAFE4ImagesEEG,001,100065,
AFNE01.JPG,AFNE01.JPG,AFNE01.JPG,AFNE01.JPG,AFNE01.JPG,AFNE01.JPG,,,,,,,,,,,,,,,,,4,7,47,8,,,,,,,AMSA04.jpg,AMNE10.jpg,AMSA03.jpg,AMNE08.jpg,AMNE08.jpg,MN,1,num_4,32,num_8,0.600159087044,,,2017_Mar_13_1519,60.0053889092,MAFE4ImagesEEG,001,100065,
AFNE01.JPG,AFNE01.JPG,AFNE01.JPG,AFNE01.JPG,AFNE01.JPG,AFNE01.JPG,,,,,,,,,,,,,,,,,4,8,48,7,,,,,,,AMSA16.jpg,AMNE03.jpg,AMNE08.jpg,AMSA02.jpg,AMNE08.jpg,MN,1,num_2,16,num_2,0.533469220216,,,2017_Mar_13_1519,60.0053889092,MAFE4ImagesEEG,001,100065,
AFNE01.JPG,AFNE01.JPG,AFNE01.JPG,AFNE01.JPG,AFNE01.JPG,AFNE01.JPG,,,,,,,,,,,,,,,,,4,9,49,2,,,,,,,AMNE06.jpg,AMSA19.jpg,AMSA06.jpg,AMNE09.jpg,AMNE09.jpg,MN,1,num_4,16,num_4,0.400197896583,,,2017_Mar_13_1519,60.0053889092,MAFE4ImagesEEG,001,100065,
AFNE01.JPG,AFNE01.JPG,AFNE01.JPG,AFNE01.JPG,AFNE01.JPG,AFNE01.JPG,,,,,,,,,,,,,,,,,5,0,50,2,,,,,,,AMNE09.jpg,AMNE20.jpg,AMSA14.jpg,AMSA06.jpg,AMNE09.jpg,MN,1,num_8,16,num_8,0.850114343804,,,2017_Mar_13_1519,60.0053889092,MAFE4ImagesEEG,001,100065,
AFNE01.JPG,AFNE01.JPG,AFNE01.JPG,AFNE01.JPG,AFNE01.JPG,AFNE01.JPG,,,,,,,,,,,,,,,,,5,1,51,5,,,,,,,AMNE13.jpg,AMNE15.jpg,AMSA03.jpg,AMSA14.jpg,AMSA14.jpg,MS,2,num_4,16,num_4,0.650135833421,,,2017_Mar_13_1519,60.0053889092,MAFE4ImagesEEG,001,100065,
AFNE01.JPG,AFNE01.JPG,AFNE01.JPG,AFNE01.JPG,AFNE01.JPG,AFNE01.JPG,,,,,,,,,,,,,,,,,5,2,52,1,,,,,,,AMNE01.jpg,AMNE13.jpg,AMSA12.jpg,AMSA15.jpg,AMSA15.jpg,MS,2,num_4,16,num_4,0.683445325063,,,2017_Mar_13_1519,60.0053889092,MAFE4ImagesEEG,001,100065,
AFNE01.JPG,AFNE01.JPG,AFNE01.JPG,AFNE01.JPG,AFNE01.JPG,AFNE01.JPG,,,,,,,,,,,,,,,,,5,3,53,7,,,,,,,AMNE01.jpg,AMSA12.jpg,AMSA10.jpg,AMNE19.jpg,AMNE19.jpg,MN,1,num_4,32,num_8,0.850216018443,,,2017_Mar_13_1519,60.0053889092,MAFE4ImagesEEG,001,100065,
AFNE01.JPG,AFNE01.JPG,AFNE01.JPG,AFNE01.JPG,AFNE01.JPG,AFNE01.JPG,,,,,,,,,,,,,,,,,5,4,54,9,,,,,,,AMNE02.jpg,AMNE14.jpg,AMSA11.jpg,AMSA19.jpg,AMSA11.jpg,MS,2,num_2,32,num_8,0.900147540437,,,2017_Mar_13_1519,60.0053889092,MAFE4ImagesEEG,001,100065,
AFNE01.JPG,AFNE01.JPG,AFNE01.JPG,AFNE01.JPG,AFNE01.JPG,AFNE01.JPG,,,,,,,,,,,,,,,,,5,5,55,3,,,,,,,AMNE06.jpg,AMNE04.jpg,AMSA13.jpg,AMSA15.jpg,AMNE04.jpg,MN,1,num_6,16,num_6,0.600135993795,,,2017_Mar_13_1519,60.0053889092,MAFE4ImagesEEG,001,100065,
AFNE01.JPG,AFNE01.JPG,AFNE01.JPG,AFNE01.JPG,AFNE01.JPG,AFNE01.JPG,,,,,,,,,,,,,,,,,5,6,56,4,,,,,,,AMNE04.jpg,AMSA06.jpg,AMNE13.jpg,AMSA20.jpg,AMSA20.jpg,MS,2,num_4,32,num_2,1.1834603998,,,2017_Mar_13_1519,60.0053889092,MAFE4ImagesEEG,001,100065,
AFNE01.JPG,AFNE01.JPG,AFNE01.JPG,AFNE01.JPG,AFNE01.JPG,AFNE01.JPG,,,,,,,,,,,,,,,,,5,7,57,6,,,,,,,AMNE09.jpg,AMNE15.jpg,AMSA20.jpg,AMSA15.jpg,AMSA20.jpg,MS,2,num_2,16,num_2,0.550150266674,,,2017_Mar_13_1519,60.0053889092,MAFE4ImagesEEG,001,100065,
AFNE01.JPG,AFNE01.JPG,AFNE01.JPG,AFNE01.JPG,AFNE01.JPG,AFNE01.JPG,,,,,,,,,,,,,,,,,5,8,58,8,,,,,,,AMSA08.jpg,AMNE03.jpg,AMNE01.jpg,AMSA17.jpg,AMSA08.jpg,MS,2,num_8,16,num_8,1.0167676463,,,2017_Mar_13_1519,60.0053889092,MAFE4ImagesEEG,001,100065,
AFNE01.JPG,AFNE01.JPG,AFNE01.JPG,AFNE01.JPG,AFNE01.JPG,AFNE01.JPG,,,,,,,,,,,,,,,,,5,9,59,0,,,,,,,AMNE17.jpg,AMSA17.jpg,AMNE13.jpg,AMSA11.jpg,AMNE13.jpg,MN,1,num_2,32,num_6,0.616822813579,,,2017_Mar_13_1519,60.0053889092,MAFE4ImagesEEG,001,100065,
,,,,,,,,,,,,,,,,,,,,,,,,,,,,,,,,,,,,,,,,,,,space,1.75002197071,2017_Mar_13_1519,60.0053889092,MAFE4ImagesEEG,001,100065,
AFNE01.JPG,AFNE01.JPG,AFNE01.JPG,AFNE01.JPG,AFNE01.JPG,AFNE01.JPG,,,,,,,,,,,,,,,,,,,,,0,0,0,4,,,AFSA06.jpg,AFNE10.jpg,AFSA12.jpg,AFNE05.jpg,AFSA06.jpg,FS,4,num_8,32,num_4,0.866777749616,,,2017_Mar_13_1519,60.0053889092,MAFE4ImagesEEG,001,100065,
AFNE01.JPG,AFNE01.JPG,AFNE01.JPG,AFNE01.JPG,AFNE01.JPG,AFNE01.JPG,,,,,,,,,,,,,,,,,,,,,0,1,1,9,,,AFNE13.jpg,AFSA13.jpg,AFNE01.jpg,AFSA14.jpg,AFSA13.jpg,FS,4,num_6,16,num_6,1.41671985603,,,2017_Mar_13_1519,60.0053889092,MAFE4ImagesEEG,001,100065,
AFNE01.JPG,AFNE01.JPG,AFNE01.JPG,AFNE01.JPG,AFNE01.JPG,AFNE01.JPG,,,,,,,,,,,,,,,,,,,,,0,2,2,6,,,AFNE06.jpg,AFNE16.jpg,AFSA18.jpg,AFSA13.jpg,AFNE16.jpg,FN,3,num_6,32,num_8,0.883454947267,,,2017_Mar_13_1519,60.0053889092,MAFE4ImagesEEG,001,100065,
AFNE01.JPG,AFNE01.JPG,AFNE01.JPG,AFNE01.JPG,AFNE01.JPG,AFNE01.JPG,,,,,,,,,,,,,,,,,,,,,0,3,3,7,,,AFNE10.jpg,AFNE02.jpg,AFSA18.jpg,AFSA19.jpg,AFSA19.jpg,FS,4,num_4,16,num_4,0.500156521157,,,2017_Mar_13_1519,60.0053889092,MAFE4ImagesEEG,001,100065,
AFNE01.JPG,AFNE01.JPG,AFNE01.JPG,AFNE01.JPG,AFNE01.JPG,AFNE01.JPG,,,,,,,,,,,,,,,,,,,,,0,4,4,5,,,AFNE11.jpg,AFSA15.jpg,AFSA10.jpg,AFNE02.jpg,AFNE02.jpg,FN,3,num_4,32,num_8,1.90005195985,,,2017_Mar_13_1519,60.0053889092,MAFE4ImagesEEG,001,100065,
AFNE01.JPG,AFNE01.JPG,AFNE01.JPG,AFNE01.JPG,AFNE01.JPG,AFNE01.JPG,,,,,,,,,,,,,,,,,,,,,0,5,5,2,,,AFSA02.jpg,AFNE03.jpg,AFNE02.jpg,AFSA06.jpg,AFSA02.jpg,FS,4,num_8,16,num_8,0.433531764487,,,2017_Mar_13_1519,60.0053889092,MAFE4ImagesEEG,001,100065,
AFNE01.JPG,AFNE01.JPG,AFNE01.JPG,AFNE01.JPG,AFNE01.JPG,AFNE01.JPG,,,,,,,,,,,,,,,,,,,,,0,6,6,8,,,AFNE07.jpg,AFSA09.jpg,AFNE01.jpg,AFSA18.jpg,AFNE07.jpg,FN,3,num_8,32,num_2,1.06675690151,,,2017_Mar_13_1519,60.0053889092,MAFE4ImagesEEG,001,100065,
AFNE01.JPG,AFNE01.JPG,AFNE01.JPG,AFNE01.JPG,AFNE01.JPG,AFNE01.JPG,,,,,,,,,,,,,,,,,,,,,0,7,7,3,,,AFSA06.jpg,AFNE12.jpg,AFNE04.jpg,AFSA15.jpg,AFNE12.jpg,FN,3,num_6,16,num_6,0.516680725792,,,2017_Mar_13_1519,60.0053889092,MAFE4ImagesEEG,001,100065,
AFNE01.JPG,AFNE01.JPG,AFNE01.JPG,AFNE01.JPG,AFNE01.JPG,AFNE01.JPG,,,,,,,,,,,,,,,,,,,,,0,8,8,0,,,AFNE12.jpg,AFSA13.jpg,AFNE10.jpg,AFSA19.jpg,AFSA19.jpg,FS,4,num_4,16,num_4,0.666706545337,,,2017_Mar_13_1519,60.0053889092,MAFE4ImagesEEG,001,100065,
AFNE01.JPG,AFNE01.JPG,AFNE01.JPG,AFNE01.JPG,AFNE01.JPG,AFNE01.JPG,,,,,,,,,,,,,,,,,,,,,0,9,9,1,,,AFSA11.jpg,AFNE04.jpg,AFSA03.jpg,AFNE06.jpg,AFNE06.jpg,FN,3,num_4,16,num_4,0.90014689893,,,2017_Mar_13_1519,60.0053889092,MAFE4ImagesEEG,001,100065,
AFNE01.JPG,AFNE01.JPG,AFNE01.JPG,AFNE01.JPG,AFNE01.JPG,AFNE01.JPG,,,,,,,,,,,,,,,,,,,,,1,0,10,3,,,AFSA18.jpg,AFSA11.jpg,AFNE12.jpg,AFNE06.jpg,AFNE12.jpg,FN,3,num_2,16,num_2,1.06674695859,,,2017_Mar_13_1519,60.0053889092,MAFE4ImagesEEG,001,100065,
AFNE01.JPG,AFNE01.JPG,AFNE01.JPG,AFNE01.JPG,AFNE01.JPG,AFNE01.JPG,,,,,,,,,,,,,,,,,,,,,1,1,11,4,,,AFNE04.jpg,AFNE08.jpg,AFSA18.jpg,AFSA07.jpg,AFNE08.jpg,FN,3,num_6,32,num_8,0.916743270063,,,2017_Mar_13_1519,60.0053889092,MAFE4ImagesEEG,001,100065,
AFNE01.JPG,AFNE01.JPG,AFNE01.JPG,AFNE01.JPG,AFNE01.JPG,AFNE01.JPG,,,,,,,,,,,,,,,,,,,,,1,2,12,2,,,AFSA15.jpg,AFNE05.jpg,AFSA17.jpg,AFNE20.jpg,AFNE05.jpg,FN,3,num_6,16,num_6,1.23341116623,,,2017_Mar_13_1519,60.0053889092,MAFE4ImagesEEG,001,100065,
AFNE01.JPG,AFNE01.JPG,AFNE01.JPG,AFNE01.JPG,AFNE01.JPG,AFNE01.JPG,,,,,,,,,,,,,,,,,,,,,1,3,13,1,,,AFSA15.jpg,AFNE14.jpg,AFNE10.jpg,AFSA11.jpg,AFNE14.jpg,FN,3,num_6,16,num_6,0.666813993244,,,2017_Mar_13_1519,60.0053889092,MAFE4ImagesEEG,001,100065,
AFNE01.JPG,AFNE01.JPG,AFNE01.JPG,AFNE01.JPG,AFNE01.JPG,AFNE01.JPG,,,,,,,,,,,,,,,,,,,,,1,4,14,9,,,AFSA11.jpg,AFNE01.jpg,AFSA10.jpg,AFNE20.jpg,AFSA10.jpg,FS,4,num_2,32,num_8,0.850110494939,,,2017_Mar_13_1519,60.0053889092,MAFE4ImagesEEG,001,100065,
AFNE01.JPG,AFNE01.JPG,AFNE01.JPG,AFNE01.JPG,AFNE01.JPG,AFNE01.JPG,,,,,,,,,,,,,,,,,,,,,1,5,15,5,,,AFSA13.jpg,AFNE12.jpg,AFSA16.jpg,AFNE17.jpg,AFNE17.jpg,FN,3,num_4,32,num_8,0.566807578434,,,2017_Mar_13_1519,60.0053889092,MAFE4ImagesEEG,001,100065,
AFNE01.JPG,AFNE01.JPG,AFNE01.JPG,AFNE01.JPG,AFNE01.JPG,AFNE01.JPG,,,,,,,,,,,,,,,,,,,,,1,6,16,0,,,AFNE15.jpg,AFSA07.jpg,AFSA09.jpg,AFNE10.jpg,AFNE15.jpg,FN,3,num_8,32,num_2,0.766822011792,,,2017_Mar_13_1519,60.0053889092,MAFE4ImagesEEG,001,100065,
AFNE01.JPG,AFNE01.JPG,AFNE01.JPG,AFNE01.JPG,AFNE01.JPG,AFNE01.JPG,,,,,,,,,,,,,,,,,,,,,1,7,17,8,,,AFNE08.jpg,AFSA03.jpg,AFSA08.jpg,AFNE09.jpg,AFNE09.jpg,FN,3,num_4,32,num_8,0.950118834153,,,2017_Mar_13_1519,60.0053889092,MAFE4ImagesEEG,001,100065,
AFNE01.JPG,AFNE01.JPG,AFNE01.JPG,AFNE01.JPG,AFNE01.JPG,AFNE01.JPG,,,,,,,,,,,,,,,,,,,,,1,8,18,6,,,AFSA08.jpg,AFNE13.jpg,AFSA07.jpg,AFNE15.jpg,AFSA08.jpg,FS,4,num_8,32,num_2,0.600134710839,,,2017_Mar_13_1519,60.0053889092,MAFE4ImagesEEG,001,100065,
AFNE01.JPG,AFNE01.JPG,AFNE01.JPG,AFNE01.JPG,AFNE01.JPG,AFNE01.JPG,,,,,,,,,,,,,,,,,,,,,1,9,19,7,,,AFSA16.jpg,AFNE15.jpg,AFNE02.jpg,AFSA20.jpg,AFNE15.jpg,FN,3,num_6,32,num_8,0.816796512925,,,2017_Mar_13_1519,60.0053889092,MAFE4ImagesEEG,001,100065,
AFNE01.JPG,AFNE01.JPG,AFNE01.JPG,AFNE01.JPG,AFNE01.JPG,AFNE01.JPG,,,,,,,,,,,,,,,,,,,,,2,0,20,9,,,AFSA03.jpg,AFNE07.jpg,AFSA11.jpg,AFNE03.jpg,AFSA11.jpg,FS,4,num_2,16,num_2,0.416881829733,,,2017_Mar_13_1519,60.0053889092,MAFE4ImagesEEG,001,100065,
AFNE01.JPG,AFNE01.JPG,AFNE01.JPG,AFNE01.JPG,AFNE01.JPG,AFNE01.JPG,,,,,,,,,,,,,,,,,,,,,2,1,21,1,,,AFSA10.jpg,AFNE10.jpg,AFSA09.jpg,AFNE01.jpg,AFNE10.jpg,FN,3,num_6,16,num_6,1.0166140119,,,2017_Mar_13_1519,60.0053889092,MAFE4ImagesEEG,001,100065,
AFNE01.JPG,AFNE01.JPG,AFNE01.JPG,AFNE01.JPG,AFNE01.JPG,AFNE01.JPG,,,,,,,,,,,,,,,,,,,,,2,2,22,8,,,AFNE09.jpg,AFSA03.jpg,AFNE01.jpg,AFSA11.jpg,AFSA11.jpg,FS,4,num_4,16,num_4,0.516816719552,,,2017_Mar_13_1519,60.0053889092,MAFE4ImagesEEG,001,100065,
AFNE01.JPG,AFNE01.JPG,AFNE01.JPG,AFNE01.JPG,AFNE01.JPG,AFNE01.JPG,,,,,,,,,,,,,,,,,,,,,2,3,23,2,,,AFNE05.jpg,AFSA11.jpg,AFNE12.jpg,AFSA08.jpg,AFSA11.jpg,FS,4,num_6,16,num_6,0.550147379981,,,2017_Mar_13_1519,60.0053889092,MAFE4ImagesEEG,001,100065,
AFNE01.JPG,AFNE01.JPG,AFNE01.JPG,AFNE01.JPG,AFNE01.JPG,AFNE01.JPG,,,,,,,,,,,,,,,,,,,,,2,4,24,3,,,AFSA16.jpg,AFNE11.jpg,AFSA01.jpg,AFNE18.jpg,AFNE11.jpg,FN,3,num_6,32,num_2,0.500128295971,,,2017_Mar_13_1519,60.0053889092,MAFE4ImagesEEG,001,100065,
AFNE01.JPG,AFNE01.JPG,AFNE01.JPG,AFNE01.JPG,AFNE01.JPG,AFNE01.JPG,,,,,,,,,,,,,,,,,,,,,2,5,25,6,,,AFNE14.jpg,AFNE11.jpg,AFSA10.jpg,AFSA03.jpg,AFNE11.jpg,FN,3,num_6,16,num_6,1.2334130907,,,2017_Mar_13_1519,60.0053889092,MAFE4ImagesEEG,001,100065,
AFNE01.JPG,AFNE01.JPG,AFNE01.JPG,AFNE01.JPG,AFNE01.JPG,AFNE01.JPG,,,,,,,,,,,,,,,,,,,,,2,6,26,7,,,AFNE17.jpg,AFSA15.jpg,AFNE06.jpg,AFSA14.jpg,AFNE17.jpg,FN,3,num_8,32,num_2,0.650186510291,,,2017_Mar_13_1519,60.0053889092,MAFE4ImagesEEG,001,100065,
AFNE01.JPG,AFNE01.JPG,AFNE01.JPG,AFNE01.JPG,AFNE01.JPG,AFNE01.JPG,,,,,,,,,,,,,,,,,,,,,2,7,27,0,,,AFSA13.jpg,AFNE03.jpg,AFNE14.jpg,AFSA15.jpg,AFNE14.jpg,FN,3,num_2,16,num_2,1.06685312348,,,2017_Mar_13_1519,60.0053889092,MAFE4ImagesEEG,001,100065,
AFNE01.JPG,AFNE01.JPG,AFNE01.JPG,AFNE01.JPG,AFNE01.JPG,AFNE01.JPG,,,,,,,,,,,,,,,,,,,,,2,8,28,5,,,AFNE02.jpg,AFSA07.jpg,AFSA16.jpg,AFNE16.jpg,AFNE16.jpg,FN,3,num_4,16,num_4,0.516806776577,,,2017_Mar_13_1519,60.0053889092,MAFE4ImagesEEG,001,100065,
AFNE01.JPG,AFNE01.JPG,AFNE01.JPG,AFNE01.JPG,AFNE01.JPG,AFNE01.JPG,,,,,,,,,,,,,,,,,,,,,2,9,29,4,,,AFSA16.jpg,AFNE05.jpg,AFSA15.jpg,AFNE14.jpg,AFNE05.jpg,FN,3,num_6,16,num_6,0.60017352039,,,2017_Mar_13_1519,60.0053889092,MAFE4ImagesEEG,001,100065,
AFNE01.JPG,AFNE01.JPG,AFNE01.JPG,AFNE01.JPG,AFNE01.JPG,AFNE01.JPG,,,,,,,,,,,,,,,,,,,,,3,0,30,9,,,AFSA07.jpg,AFNE01.jpg,AFSA14.jpg,AFNE09.jpg,AFNE09.jpg,FN,3,num_4,16,num_4,0.583482210117,,,2017_Mar_13_1519,60.0053889092,MAFE4ImagesEEG,001,100065,
AFNE01.JPG,AFNE01.JPG,AFNE01.JPG,AFNE01.JPG,AFNE01.JPG,AFNE01.JPG,,,,,,,,,,,,,,,,,,,,,3,1,31,3,,,AFNE16.jpg,AFSA03.jpg,AFNE07.jpg,AFSA16.jpg,AFNE16.jpg,FN,3,num_8,32,num_6,0.733528236335,,,2017_Mar_13_1519,60.0053889092,MAFE4ImagesEEG,001,100065,
AFNE01.JPG,AFNE01.JPG,AFNE01.JPG,AFNE01.JPG,AFNE01.JPG,AFNE01.JPG,,,,,,,,,,,,,,,,,,,,,3,2,32,4,,,AFNE18.jpg,AFNE16.jpg,AFSA16.jpg,AFSA04.jpg,AFNE18.jpg,FN,3,num_8,16,num_8,0.81679266406,,,2017_Mar_13_1519,60.0053889092,MAFE4ImagesEEG,001,100065,
AFNE01.JPG,AFNE01.JPG,AFNE01.JPG,AFNE01.JPG,AFNE01.JPG,AFNE01.JPG,,,,,,,,,,,,,,,,,,,,,3,3,33,8,,,AFNE02.jpg,AFSA11.jpg,AFNE16.jpg,AFSA04.jpg,AFNE02.jpg,FN,3,num_8,32,num_2,0.816779834451,,,2017_Mar_13_1519,60.0053889092,MAFE4ImagesEEG,001,100065,
AFNE01.JPG,AFNE01.JPG,AFNE01.JPG,AFNE01.JPG,AFNE01.JPG,AFNE01.JPG,,,,,,,,,,,,,,,,,,,,,3,4,34,0,,,AFSA10.jpg,AFNE18.jpg,AFSA15.jpg,AFNE11.jpg,AFSA10.jpg,FS,4,num_8,16,num_8,0.966757542978,,,2017_Mar_13_1519,60.0053889092,MAFE4ImagesEEG,001,100065,
AFNE01.JPG,AFNE01.JPG,AFNE01.JPG,AFNE01.JPG,AFNE01.JPG,AFNE01.JPG,,,,,,,,,,,,,,,,,,,,,3,5,35,5,,,AFSA20.jpg,AFNE11.jpg,AFNE15.jpg,AFSA04.jpg,AFNE11.jpg,FN,3,num_6,32,num_4,1.0001327864,,,2017_Mar_13_1519,60.0053889092,MAFE4ImagesEEG,001,100065,
AFNE01.JPG,AFNE01.JPG,AFNE01.JPG,AFNE01.JPG,AFNE01.JPG,AFNE01.JPG,,,,,,,,,,,,,,,,,,,,,3,6,36,6,,,AFSA16.jpg,AFNE04.jpg,AFNE07.jpg,AFSA14.jpg,AFNE04.jpg,FN,3,num_6,16,num_6,0.566783202172,,,2017_Mar_13_1519,60.0053889092,MAFE4ImagesEEG,001,100065,
AFNE01.JPG,AFNE01.JPG,AFNE01.JPG,AFNE01.JPG,AFNE01.JPG,AFNE01.JPG,,,,,,,,,,,,,,,,,,,,,3,7,37,1,,,AFSA08.jpg,AFNE16.jpg,AFSA16.jpg,AFNE14.jpg,AFSA08.jpg,FS,4,num_8,16,num_8,0.833180554211,,,2017_Mar_13_1519,60.0053889092,MAFE4ImagesEEG,001,100065,
AFNE01.JPG,AFNE01.JPG,AFNE01.JPG,AFNE01.JPG,AFNE01.JPG,AFNE01.JPG,,,,,,,,,,,,,,,,,,,,,3,8,38,7,,,AFSA06.jpg,AFNE06.jpg,AFNE04.jpg,AFSA05.jpg,AFSA05.jpg,FS,4,num_4,32,num_2,1.45009413717,,,2017_Mar_13_1519,60.0053889092,MAFE4ImagesEEG,001,100065,
