IPosition2,IPosition3,IPosition1,IPosition6,IPosition4,IPosition5,TrialsM1.thisRepN,TrialsM1.thisTrialN,TrialsM1.thisN,TrialsM1.thisIndex,TrialsF1.thisRepN,TrialsF1.thisTrialN,TrialsF1.thisN,TrialsF1.thisIndex,TrialsM2.thisRepN,TrialsM2.thisTrialN,TrialsM2.thisN,TrialsM2.thisIndex,TrialsF2.thisRepN,TrialsF2.thisTrialN,TrialsF2.thisN,TrialsF2.thisIndex,TrialsM3.thisRepN,TrialsM3.thisTrialN,TrialsM3.thisN,TrialsM3.thisIndex,TrialsF3.thisRepN,TrialsF3.thisTrialN,TrialsF3.thisN,TrialsF3.thisIndex,InstrKey_resp.keys,InstrKey_resp.rt,Image0 _Position,Image1 _Position,Image2 _Position,Image3 _Position,Center_image,condition,code,correct_answer,accuracy,Key_Resp.keys,Key_Resp.rt,BreakKey_resp.keys,BreakKey_resp.rt,date,frameRate,expName,session,participant,
,,,,,,,,,,,,,,,,,,,,,,,,,,,,,,space,17.2990631184,,,,,,,,,,,,,,2017_Mar_16_1707,60.0137051666,MAFE4ImagesEEG,001,100072,
AMSA25.JPG,AMNE24.JPG,AMSA24.JPG,AMNE26.JPG,AMSA21.JPG,AMNE25.JPG,0,0,0,3,,,,,,,,,,,,,,,,,,,,,,,AMNE17.jpg,AMSA17.jpg,AMNE08.jpg,AMSA05.jpg,AMSA05.jpg,MS,2,num_4,32,num_2,2.83330756729,,,2017_Mar_16_1707,60.0137051666,MAFE4ImagesEEG,001,100072,
AMNE23.JPG,AMNE24.JPG,AMNE22.JPG,AMSA24.JPG,AMSA22.JPG,AMSA23.JPG,0,1,1,9,,,,,,,,,,,,,,,,,,,,,,,AMSA05.jpg,AMNE02.jpg,AMSA11.jpg,AMNE16.jpg,AMNE02.jpg,MN,1,num_6,48,None,,,,2017_Mar_16_1707,60.0137051666,MAFE4ImagesEEG,001,100072,
AMSA21.JPG,AMNE22.JPG,AMNE21.JPG,AMSA23.JPG,AMSA22.JPG,AMNE23.JPG,0,2,2,1,,,,,,,,,,,,,,,,,,,,,,,AMNE05.jpg,AMNE14.jpg,AMSA12.jpg,AMSA08.jpg,AMSA12.jpg,MS,2,num_2,32,num_8,1.46669756458,,,2017_Mar_16_1707,60.0137051666,MAFE4ImagesEEG,001,100072,
AMSA21.JPG,AMNE23.JPG,AMNE21.JPG,AMSA25.JPG,AMNE25.JPG,AMSA23.JPG,0,3,3,5,,,,,,,,,,,,,,,,,,,,,,,AMSA13.jpg,AMNE05.jpg,AMSA03.jpg,AMNE15.jpg,AMSA03.jpg,MS,2,num_2,16,num_2,1.38337347924,,,2017_Mar_16_1707,60.0137051666,MAFE4ImagesEEG,001,100072,
AFNE22.JPG,AFSA24.JPG,AFSA22.JPG,AFNE25.JPG,AFNE24.JPG,AFSA25.JPG,0,4,4,6,,,,,,,,,,,,,,,,,,,,,,,AMSA19.jpg,AMSA15.jpg,AMNE01.jpg,AMNE09.jpg,AMSA15.jpg,MS,2,num_6,32,num_4,2.36639318243,,,2017_Mar_16_1707,60.0137051666,MAFE4ImagesEEG,001,100072,
AFSA25.JPG,AFNE24.JPG,AFSA24.JPG,AFNE21.JPG,AFSA21.JPG,AFNE25.JPG,0,5,5,2,,,,,,,,,,,,,,,,,,,,,,,AMSA02.jpg,AMSA12.jpg,AMNE02.jpg,AMNE14.jpg,AMSA02.jpg,MS,2,num_8,32,num_6,2.59997979342,,,2017_Mar_16_1707,60.0137051666,MAFE4ImagesEEG,001,100072,
AMNE22.JPG,AMSA24.JPG,AMSA22.JPG,AMNE25.JPG,AMNE24.JPG,AMSA25.JPG,0,6,6,7,,,,,,,,,,,,,,,,,,,,,,,AMSA09.jpg,AMSA14.jpg,AMNE09.jpg,AMNE17.jpg,AMNE17.jpg,MN,1,num_4,48,None,,,,2017_Mar_16_1707,60.0137051666,MAFE4ImagesEEG,001,100072,
AFSA21.JPG,AFNE22.JPG,AFNE21.JPG,AFSA23.JPG,AFSA22.JPG,AFNE23.JPG,0,7,7,0,,,,,,,,,,,,,,,,,,,,,,,AMSA16.jpg,AMSA08.jpg,AMNE12.jpg,AMNE01.jpg,AMNE01.jpg,MN,1,num_4,48,None,,,,2017_Mar_16_1707,60.0137051666,MAFE4ImagesEEG,001,100072,
AFSA21.JPG,AFNE23.JPG,AFNE21.JPG,AFSA25.JPG,AFNE25.JPG,AFSA23.JPG,0,8,8,4,,,,,,,,,,,,,,,,,,,,,,,AMNE19.jpg,AMSA10.jpg,AMNE20.jpg,AMSA11.jpg,AMSA10.jpg,MS,2,num_6,48,None,,,,2017_Mar_16_1707,60.0137051666,MAFE4ImagesEEG,001,100072,
AFNE23.JPG,AFNE24.JPG,AFNE22.JPG,AFSA24.JPG,AFSA22.JPG,AFSA23.JPG,0,9,9,8,,,,,,,,,,,,,,,,,,,,,,,AMSA05.jpg,AMNE07.jpg,AMNE14.jpg,AMSA07.jpg,AMSA07.jpg,MS,2,num_4,48,None,,,,2017_Mar_16_1707,60.0137051666,MAFE4ImagesEEG,001,100072,
AFNE22.JPG,AFSA24.JPG,AFSA22.JPG,AFNE25.JPG,AFNE24.JPG,AFSA25.JPG,,,,,0,0,0,6,,,,,,,,,,,,,,,,,,,AFSA05.jpg,AFNE18.jpg,AFNE05.jpg,AFSA11.jpg,AFSA11.jpg,FS,4,num_4,16,num_4,1.41677662707,,,2017_Mar_16_1707,60.0137051666,MAFE4ImagesEEG,001,100072,
AMSA21.JPG,AMNE23.JPG,AMNE21.JPG,AMSA25.JPG,AMNE25.JPG,AMSA23.JPG,,,,,0,1,1,5,,,,,,,,,,,,,,,,,,,AFSA04.jpg,AFNE19.jpg,AFNE16.jpg,AFSA08.jpg,AFSA08.jpg,FS,4,num_4,32,num_8,1.41644947219,,,2017_Mar_16_1707,60.0137051666,MAFE4ImagesEEG,001,100072,
AFSA21.JPG,AFNE22.JPG,AFNE21.JPG,AFSA23.JPG,AFSA22.JPG,AFNE23.JPG,,,,,0,2,2,0,,,,,,,,,,,,,,,,,,,AFNE13.jpg,AFSA04.jpg,AFNE14.jpg,AFSA17.jpg,AFSA04.jpg,FS,4,num_6,32,num_4,0.966796352528,,,2017_Mar_16_1707,60.0137051666,MAFE4ImagesEEG,001,100072,
AMNE23.JPG,AMNE24.JPG,AMNE22.JPG,AMSA24.JPG,AMSA22.JPG,AMSA23.JPG,,,,,0,3,3,9,,,,,,,,,,,,,,,,,,,AFNE05.jpg,AFSA02.jpg,AFNE07.jpg,AFSA07.jpg,AFNE07.jpg,FN,3,num_2,16,num_2,1.61672178051,,,2017_Mar_16_1707,60.0137051666,MAFE4ImagesEEG,001,100072,
AFSA25.JPG,AFNE24.JPG,AFSA24.JPG,AFNE21.JPG,AFSA21.JPG,AFNE25.JPG,,,,,0,4,4,2,,,,,,,,,,,,,,,,,,,AFSA06.jpg,AFSA01.jpg,AFNE15.jpg,AFNE09.jpg,AFNE15.jpg,FN,3,num_2,32,num_4,1.21704252041,,,2017_Mar_16_1707,60.0137051666,MAFE4ImagesEEG,001,100072,
AFSA21.JPG,AFNE23.JPG,AFNE21.JPG,AFSA25.JPG,AFNE25.JPG,AFSA23.JPG,,,,,0,5,5,4,,,,,,,,,,,,,,,,,,,AFNE05.jpg,AFNE07.jpg,AFSA13.jpg,AFSA12.jpg,AFNE05.jpg,FN,3,num_8,32,num_6,2.1833638571,,,2017_Mar_16_1707,60.0137051666,MAFE4ImagesEEG,001,100072,
AMSA25.JPG,AMNE24.JPG,AMSA24.JPG,AMNE26.JPG,AMSA21.JPG,AMNE25.JPG,,,,,0,6,6,3,,,,,,,,,,,,,,,,,,,AFSA18.jpg,AFNE20.jpg,AFNE09.jpg,AFSA05.jpg,AFNE09.jpg,FN,3,num_2,32,num_8,1.36671199801,,,2017_Mar_16_1707,60.0137051666,MAFE4ImagesEEG,001,100072,
AFNE23.JPG,AFNE24.JPG,AFNE22.JPG,AFSA24.JPG,AFSA22.JPG,AFSA23.JPG,,,,,0,7,7,8,,,,,,,,,,,,,,,,,,,AFSA06.jpg,AFNE16.jpg,AFNE14.jpg,AFSA15.jpg,AFNE14.jpg,FN,3,num_2,16,num_2,0.850190359168,,,2017_Mar_16_1707,60.0137051666,MAFE4ImagesEEG,001,100072,
AMNE22.JPG,AMSA24.JPG,AMSA22.JPG,AMNE25.JPG,AMNE24.JPG,AMSA25.JPG,,,,,0,8,8,7,,,,,,,,,,,,,,,,,,,AFSA03.jpg,AFNE03.jpg,AFSA17.jpg,AFNE10.jpg,AFNE03.jpg,FN,3,num_6,16,num_6,1.03347114462,,,2017_Mar_16_1707,60.0137051666,MAFE4ImagesEEG,001,100072,
AMSA21.JPG,AMNE22.JPG,AMNE21.JPG,AMSA23.JPG,AMSA22.JPG,AMNE23.JPG,,,,,0,9,9,1,,,,,,,,,,,,,,,,,,,AFNE12.jpg,AFSA18.jpg,AFSA20.jpg,AFNE17.jpg,AFSA18.jpg,FS,4,num_6,32,num_4,1.88341164729,,,2017_Mar_16_1707,60.0137051666,MAFE4ImagesEEG,001,100072,
AMNE23.JPG,AMNE24.JPG,AMNE22.JPG,AMSA24.JPG,AMSA22.JPG,AMSA23.JPG,,,,,,,,,0,0,0,9,,,,,,,,,,,,,,,AMSA07.jpg,AMSA20.jpg,AMNE03.jpg,AMNE15.jpg,AMSA07.jpg,MS,2,num_8,16,num_8,1.86672386539,,,2017_Mar_16_1707,60.0137051666,MAFE4ImagesEEG,001,100072,
AMSA21.JPG,AMNE22.JPG,AMNE21.JPG,AMSA23.JPG,AMSA22.JPG,AMNE23.JPG,,,,,,,,,0,1,1,1,,,,,,,,,,,,,,,AMSA07.jpg,AMNE14.jpg,AMSA16.jpg,AMNE09.jpg,AMNE14.jpg,MN,1,num_6,32,num_2,1.3997911982,,,2017_Mar_16_1707,60.0137051666,MAFE4ImagesEEG,001,100072,
AMSA25.JPG,AMNE24.JPG,AMSA24.JPG,AMNE26.JPG,AMSA21.JPG,AMNE25.JPG,,,,,,,,,0,2,2,3,,,,,,,,,,,,,,,AMSA13.jpg,AMNE04.jpg,AMNE11.jpg,AMSA08.jpg,AMNE11.jpg,MN,1,num_2,32,num_6,1.79992687132,,,2017_Mar_16_1707,60.0137051666,MAFE4ImagesEEG,001,100072,
AFNE22.JPG,AFSA24.JPG,AFSA22.JPG,AFNE25.JPG,AFNE24.JPG,AFSA25.JPG,,,,,,,,,0,3,3,6,,,,,,,,,,,,,,,AMSA11.jpg,AMSA04.jpg,AMNE16.jpg,AMNE19.jpg,AMNE19.jpg,MN,1,num_4,16,num_4,1.08359831804,,,2017_Mar_16_1707,60.0137051666,MAFE4ImagesEEG,001,100072,
AMNE22.JPG,AMSA24.JPG,AMSA22.JPG,AMNE25.JPG,AMNE24.JPG,AMSA25.JPG,,,,,,,,,0,4,4,7,,,,,,,,,,,,,,,AMSA07.jpg,AMNE20.jpg,AMSA11.jpg,AMNE08.jpg,AMSA11.jpg,MS,2,num_2,16,num_2,1.40005933691,,,2017_Mar_16_1707,60.0137051666,MAFE4ImagesEEG,001,100072,
AMSA21.JPG,AMNE23.JPG,AMNE21.JPG,AMSA25.JPG,AMNE25.JPG,AMSA23.JPG,,,,,,,,,0,5,5,5,,,,,,,,,,,,,,,AMNE01.jpg,AMSA07.jpg,AMNE16.jpg,AMSA05.jpg,AMNE16.jpg,MN,1,num_2,32,num_8,1.550090609,,,2017_Mar_16_1707,60.0137051666,MAFE4ImagesEEG,001,100072,
AFSA21.JPG,AFNE23.JPG,AFNE21.JPG,AFSA25.JPG,AFNE25.JPG,AFSA23.JPG,,,,,,,,,0,6,6,4,,,,,,,,,,,,,,,AMSA11.jpg,AMNE10.jpg,AMSA18.jpg,AMNE14.jpg,AMSA11.jpg,MS,2,num_8,32,num_2,2.3000384887,,,2017_Mar_16_1707,60.0137051666,MAFE4ImagesEEG,001,100072,
AFSA21.JPG,AFNE22.JPG,AFNE21.JPG,AFSA23.JPG,AFSA22.JPG,AFNE23.JPG,,,,,,,,,0,7,7,0,,,,,,,,,,,,,,,AMNE03.jpg,AMSA06.jpg,AMSA01.jpg,AMNE15.jpg,AMSA06.jpg,MS,2,num_6,32,num_4,0.683466814691,,,2017_Mar_16_1707,60.0137051666,MAFE4ImagesEEG,001,100072,
AFNE23.JPG,AFNE24.JPG,AFNE22.JPG,AFSA24.JPG,AFSA22.JPG,AFSA23.JPG,,,,,,,,,0,8,8,8,,,,,,,,,,,,,,,AMNE10.jpg,AMSA20.jpg,AMSA01.jpg,AMNE14.jpg,AMNE14.jpg,MN,1,num_4,32,num_2,2.21668200882,,,2017_Mar_16_1707,60.0137051666,MAFE4ImagesEEG,001,100072,
AFSA25.JPG,AFNE24.JPG,AFSA24.JPG,AFNE21.JPG,AFSA21.JPG,AFNE25.JPG,,,,,,,,,0,9,9,2,,,,,,,,,,,,,,,AMSA05.jpg,AMNE19.jpg,AMSA07.jpg,AMNE16.jpg,AMSA05.jpg,MS,2,num_8,16,num_8,1.81667944277,,,2017_Mar_16_1707,60.0137051666,MAFE4ImagesEEG,001,100072,
AMSA25.JPG,AMNE24.JPG,AMSA24.JPG,AMNE26.JPG,AMSA21.JPG,AMNE25.JPG,,,,,,,,,,,,,0,0,0,3,,,,,,,,,,,AFSA15.jpg,AFNE17.jpg,AFNE05.jpg,AFSA19.jpg,AFNE05.jpg,FN,3,num_2,16,num_2,1.58341036434,,,2017_Mar_16_1707,60.0137051666,MAFE4ImagesEEG,001,100072,
AMNE22.JPG,AMSA24.JPG,AMSA22.JPG,AMNE25.JPG,AMNE24.JPG,AMSA25.JPG,,,,,,,,,,,,,0,1,1,7,,,,,,,,,,,AFNE10.jpg,AFSA17.jpg,AFSA08.jpg,AFNE02.jpg,AFNE10.jpg,FN,3,num_8,16,num_8,0.766652019462,,,2017_Mar_16_1707,60.0137051666,MAFE4ImagesEEG,001,100072,
AFNE23.JPG,AFNE24.JPG,AFNE22.JPG,AFSA24.JPG,AFSA22.JPG,AFSA23.JPG,,,,,,,,,,,,,0,2,2,8,,,,,,,,,,,AFNE05.jpg,AFSA04.jpg,AFNE06.jpg,AFSA11.jpg,AFNE05.jpg,FN,3,num_8,32,num_4,1.95001972548,,,2017_Mar_16_1707,60.0137051666,MAFE4ImagesEEG,001,100072,
AMSA21.JPG,AMNE22.JPG,AMNE21.JPG,AMSA23.JPG,AMSA22.JPG,AMNE23.JPG,,,,,,,,,,,,,0,3,3,1,,,,,,,,,,,AFSA01.jpg,AFSA16.jpg,AFNE19.jpg,AFNE16.jpg,AFSA16.jpg,FS,4,num_6,32,num_2,2.18342319399,,,2017_Mar_16_1707,60.0137051666,MAFE4ImagesEEG,001,100072,
AFSA21.JPG,AFNE22.JPG,AFNE21.JPG,AFSA23.JPG,AFSA22.JPG,AFNE23.JPG,,,,,,,,,,,,,0,4,4,0,,,,,,,,,,,AFNE12.jpg,AFSA01.jpg,AFSA04.jpg,AFNE17.jpg,AFSA04.jpg,FS,4,num_2,32,num_8,2.56668633863,,,2017_Mar_16_1707,60.0137051666,MAFE4ImagesEEG,001,100072,
AMSA21.JPG,AMNE23.JPG,AMNE21.JPG,AMSA25.JPG,AMNE25.JPG,AMSA23.JPG,,,,,,,,,,,,,0,5,5,5,,,,,,,,,,,AFSA20.jpg,AFNE20.jpg,AFNE07.jpg,AFSA10.jpg,AFSA10.jpg,FS,4,num_4,32,num_8,1.96667286765,,,2017_Mar_16_1707,60.0137051666,MAFE4ImagesEEG,001,100072,
AFNE22.JPG,AFSA24.JPG,AFSA22.JPG,AFNE25.JPG,AFNE24.JPG,AFSA25.JPG,,,,,,,,,,,,,0,6,6,6,,,,,,,,,,,AFSA06.jpg,AFNE06.jpg,AFSA09.jpg,AFNE13.jpg,AFNE06.jpg,FN,3,num_6,32,num_4,1.03343490104,,,2017_Mar_16_1707,60.0137051666,MAFE4ImagesEEG,001,100072,
AFSA21.JPG,AFNE23.JPG,AFNE21.JPG,AFSA25.JPG,AFNE25.JPG,AFSA23.JPG,,,,,,,,,,,,,0,7,7,4,,,,,,,,,,,AFNE05.jpg,AFSA03.jpg,AFNE18.jpg,AFSA14.jpg,AFSA03.jpg,FS,4,num_6,32,num_2,1.6667322045,,,2017_Mar_16_1707,60.0137051666,MAFE4ImagesEEG,001,100072,
AFSA25.JPG,AFNE24.JPG,AFSA24.JPG,AFNE21.JPG,AFSA21.JPG,AFNE25.JPG,,,,,,,,,,,,,0,8,8,2,,,,,,,,,,,AFSA14.jpg,AFSA02.jpg,AFNE13.jpg,AFNE01.jpg,AFSA02.jpg,FS,4,num_6,16,num_6,1.46659749374,,,2017_Mar_16_1707,60.0137051666,MAFE4ImagesEEG,001,100072,
AMNE23.JPG,AMNE24.JPG,AMNE22.JPG,AMSA24.JPG,AMSA22.JPG,AMSA23.JPG,,,,,,,,,,,,,0,9,9,9,,,,,,,,,,,AFNE10.jpg,AFSA08.jpg,AFSA14.jpg,AFNE19.jpg,AFSA08.jpg,FS,4,num_6,32,num_4,0.683485738235,,,2017_Mar_16_1707,60.0137051666,MAFE4ImagesEEG,001,100072,
AMNE23.JPG,AMNE24.JPG,AMNE22.JPG,AMSA24.JPG,AMSA22.JPG,AMSA23.JPG,,,,,,,,,,,,,,,,,0,0,0,9,,,,,,,AMSA14.jpg,AMNE12.jpg,AMSA15.jpg,AMNE15.jpg,AMNE15.jpg,MN,1,num_4,32,num_8,0.783498247154,,,2017_Mar_16_1707,60.0137051666,MAFE4ImagesEEG,001,100072,
AFSA21.JPG,AFNE23.JPG,AFNE21.JPG,AFSA25.JPG,AFNE25.JPG,AFSA23.JPG,,,,,,,,,,,,,,,,,0,1,1,4,,,,,,,AMSA10.jpg,AMNE15.jpg,AMNE09.jpg,AMSA18.jpg,AMSA10.jpg,MS,2,num_8,32,num_2,1.75011434383,,,2017_Mar_16_1707,60.0137051666,MAFE4ImagesEEG,001,100072,
AMSA21.JPG,AMNE22.JPG,AMNE21.JPG,AMSA23.JPG,AMSA22.JPG,AMNE23.JPG,,,,,,,,,,,,,,,,,0,2,2,1,,,,,,,AMSA07.jpg,AMSA02.jpg,AMNE11.jpg,AMNE02.jpg,AMSA02.jpg,MS,2,num_6,16,num_6,1.83341116633,,,2017_Mar_16_1707,60.0137051666,MAFE4ImagesEEG,001,100072,
AMSA21.JPG,AMNE23.JPG,AMNE21.JPG,AMSA25.JPG,AMNE25.JPG,AMSA23.JPG,,,,,,,,,,,,,,,,,0,3,3,5,,,,,,,AMSA08.jpg,AMNE11.jpg,AMNE06.jpg,AMSA17.jpg,AMSA08.jpg,MS,2,num_8,16,num_8,1.48370769038,,,2017_Mar_16_1707,60.0137051666,MAFE4ImagesEEG,001,100072,
AMNE22.JPG,AMSA24.JPG,AMSA22.JPG,AMNE25.JPG,AMNE24.JPG,AMSA25.JPG,,,,,,,,,,,,,,,,,0,4,4,7,,,,,,,AMSA16.jpg,AMNE09.jpg,AMSA09.jpg,AMNE10.jpg,AMSA16.jpg,MS,2,num_8,16,num_8,1.15011370229,,,2017_Mar_16_1707,60.0137051666,MAFE4ImagesEEG,001,100072,
AFSA21.JPG,AFNE22.JPG,AFNE21.JPG,AFSA23.JPG,AFSA22.JPG,AFNE23.JPG,,,,,,,,,,,,,,,,,0,5,5,0,,,,,,,AMSA13.jpg,AMNE19.jpg,AMNE10.jpg,AMSA11.jpg,AMNE10.jpg,MN,1,num_2,16,num_2,1.7334326558,,,2017_Mar_16_1707,60.0137051666,MAFE4ImagesEEG,001,100072,
AMSA25.JPG,AMNE24.JPG,AMSA24.JPG,AMNE26.JPG,AMSA21.JPG,AMNE25.JPG,,,,,,,,,,,,,,,,,0,6,6,3,,,,,,,AMSA19.jpg,AMNE16.jpg,AMNE10.jpg,AMSA17.jpg,AMSA19.jpg,MS,2,num_8,16,num_8,1.71670061164,,,2017_Mar_16_1707,60.0137051666,MAFE4ImagesEEG,001,100072,
AFSA25.JPG,AFNE24.JPG,AFSA24.JPG,AFNE21.JPG,AFSA21.JPG,AFNE25.JPG,,,,,,,,,,,,,,,,,0,7,7,2,,,,,,,AMNE04.jpg,AMSA09.jpg,AMNE03.jpg,AMSA07.jpg,AMSA09.jpg,MS,2,num_6,32,num_8,2.64996070939,,,2017_Mar_16_1707,60.0137051666,MAFE4ImagesEEG,001,100072,
AFNE23.JPG,AFNE24.JPG,AFNE22.JPG,AFSA24.JPG,AFSA22.JPG,AFSA23.JPG,,,,,,,,,,,,,,,,,0,8,8,8,,,,,,,AMSA14.jpg,AMNE04.jpg,AMNE05.jpg,AMSA01.jpg,AMNE04.jpg,MN,1,num_6,32,num_4,1.16663020919,,,2017_Mar_16_1707,60.0137051666,MAFE4ImagesEEG,001,100072,
AFNE22.JPG,AFSA24.JPG,AFSA22.JPG,AFNE25.JPG,AFNE24.JPG,AFSA25.JPG,,,,,,,,,,,,,,,,,0,9,9,6,,,,,,,AMSA15.jpg,AMNE06.jpg,AMSA07.jpg,AMNE20.jpg,AMSA15.jpg,MS,2,num_8,16,num_8,0.633496483089,,,2017_Mar_16_1707,60.0137051666,MAFE4ImagesEEG,001,100072,
AFSA25.JPG,AFNE24.JPG,AFSA24.JPG,AFNE21.JPG,AFSA21.JPG,AFNE25.JPG,,,,,,,,,,,,,,,,,,,,,0,0,0,2,,,AFNE19.jpg,AFSA02.jpg,AFNE05.jpg,AFSA07.jpg,AFNE05.jpg,FN,3,num_2,32,num_8,0.733473069035,,,2017_Mar_16_1707,60.0137051666,MAFE4ImagesEEG,001,100072,
AMSA21.JPG,AMNE23.JPG,AMNE21.JPG,AMSA25.JPG,AMNE25.JPG,AMSA23.JPG,,,,,,,,,,,,,,,,,,,,,0,1,1,5,,,AFNE01.jpg,AFNE13.jpg,AFSA02.jpg,AFSA20.jpg,AFNE13.jpg,FN,3,num_6,32,num_4,1.30008595833,,,2017_Mar_16_1707,60.0137051666,MAFE4ImagesEEG,001,100072,
AFSA21.JPG,AFNE22.JPG,AFNE21.JPG,AFSA23.JPG,AFSA22.JPG,AFNE23.JPG,,,,,,,,,,,,,,,,,,,,,0,2,2,0,,,AFSA17.jpg,AFNE09.jpg,AFNE13.jpg,AFSA12.jpg,AFNE09.jpg,FN,3,num_6,16,num_6,2.50006061979,,,2017_Mar_16_1707,60.0137051666,MAFE4ImagesEEG,001,100072,
AFNE22.JPG,AFSA24.JPG,AFSA22.JPG,AFNE25.JPG,AFNE24.JPG,AFSA25.JPG,,,,,,,,,,,,,,,,,,,,,0,3,3,6,,,AFNE19.jpg,AFSA10.jpg,AFSA18.jpg,AFNE01.jpg,AFSA18.jpg,FS,4,num_2,16,num_2,0.850155398599,,,2017_Mar_16_1707,60.0137051666,MAFE4ImagesEEG,001,100072,
AMSA21.JPG,AMNE22.JPG,AMNE21.JPG,AMSA23.JPG,AMSA22.JPG,AMNE23.JPG,,,,,,,,,,,,,,,,,,,,,0,4,4,1,,,AFSA12.jpg,AFSA11.jpg,AFNE12.jpg,AFNE17.jpg,AFNE17.jpg,FN,3,num_4,16,num_4,1.03346248472,,,2017_Mar_16_1707,60.0137051666,MAFE4ImagesEEG,001,100072,
AMNE23.JPG,AMNE24.JPG,AMNE22.JPG,AMSA24.JPG,AMSA22.JPG,AMSA23.JPG,,,,,,,,,,,,,,,,,,,,,0,5,5,9,,,AFSA16.jpg,AFNE17.jpg,AFNE14.jpg,AFSA18.jpg,AFSA18.jpg,FS,4,num_4,32,num_8,1.43342816539,,,2017_Mar_16_1707,60.0137051666,MAFE4ImagesEEG,001,100072,
AMSA25.JPG,AMNE24.JPG,AMSA24.JPG,AMNE26.JPG,AMSA21.JPG,AMNE25.JPG,,,,,,,,,,,,,,,,,,,,,0,6,6,3,,,AFSA17.jpg,AFSA16.jpg,AFNE13.jpg,AFNE18.jpg,AFSA16.jpg,FS,4,num_6,16,num_6,0.650116268196,,,2017_Mar_16_1707,60.0137051666,MAFE4ImagesEEG,001,100072,
AFSA21.JPG,AFNE23.JPG,AFNE21.JPG,AFSA25.JPG,AFNE25.JPG,AFSA23.JPG,,,,,,,,,,,,,,,,,,,,,0,7,7,4,,,AFNE16.jpg,AFSA15.jpg,AFSA05.jpg,AFNE15.jpg,AFNE15.jpg,FN,3,num_4,16,num_4,1.20014946489,,,2017_Mar_16_1707,60.0137051666,MAFE4ImagesEEG,001,100072,
AFNE23.JPG,AFNE24.JPG,AFNE22.JPG,AFSA24.JPG,AFSA22.JPG,AFSA23.JPG,,,,,,,,,,,,,,,,,,,,,0,8,8,8,,,AFSA11.jpg,AFNE10.jpg,AFNE20.jpg,AFSA04.jpg,AFNE20.jpg,FN,3,num_2,32,num_6,1.40007601539,,,2017_Mar_16_1707,60.0137051666,MAFE4ImagesEEG,001,100072,
AMNE22.JPG,AMSA24.JPG,AMSA22.JPG,AMNE25.JPG,AMNE24.JPG,AMSA25.JPG,,,,,,,,,,,,,,,,,,,,,0,9,9,7,,,AFSA18.jpg,AFNE12.jpg,AFNE06.jpg,AFSA19.jpg,AFNE12.jpg,FN,3,num_6,16,num_6,1.20014112559,,,2017_Mar_16_1707,60.0137051666,MAFE4ImagesEEG,001,100072,
,,,,,,,,,,,,,,,,,,,,,,,,,,,,,,,,,,,,,,,,,,,space,7.11626536748,2017_Mar_16_1707,60.0137051666,MAFE4ImagesEEG,001,100072,
AFNE01.JPG,AFNE01.JPG,AFNE01.JPG,AFNE01.JPG,AFNE01.JPG,AFNE01.JPG,0,0,0,6,,,,,,,,,,,,,,,,,,,,,,,AMSA15.jpg,AMSA01.jpg,AMNE16.jpg,AMNE05.jpg,AMNE16.jpg,MN,1,num_2,32,num_8,1.35011306091,,,2017_Mar_16_1707,60.0137051666,MAFE4ImagesEEG,001,100072,
AFNE01.JPG,AFNE01.JPG,AFNE01.JPG,AFNE01.JPG,AFNE01.JPG,AFNE01.JPG,0,1,1,7,,,,,,,,,,,,,,,,,,,,,,,AMNE02.jpg,AMSA02.jpg,AMNE05.jpg,AMSA14.jpg,AMNE02.jpg,MN,1,num_8,32,num_4,2.10003945103,,,2017_Mar_16_1707,60.0137051666,MAFE4ImagesEEG,001,100072,
AFNE01.JPG,AFNE01.JPG,AFNE01.JPG,AFNE01.JPG,AFNE01.JPG,AFNE01.JPG,0,2,2,8,,,,,,,,,,,,,,,,,,,,,,,AMSA12.jpg,AMNE18.jpg,AMNE20.jpg,AMSA01.jpg,AMSA01.jpg,MS,2,num_4,16,num_4,0.900150427129,,,2017_Mar_16_1707,60.0137051666,MAFE4ImagesEEG,001,100072,
AFNE01.JPG,AFNE01.JPG,AFNE01.JPG,AFNE01.JPG,AFNE01.JPG,AFNE01.JPG,0,3,3,0,,,,,,,,,,,,,,,,,,,,,,,AMNE18.jpg,AMSA04.jpg,AMNE17.jpg,AMSA17.jpg,AMNE17.jpg,MN,1,num_2,32,num_8,1.81669772498,,,2017_Mar_16_1707,60.0137051666,MAFE4ImagesEEG,001,100072,
AFNE01.JPG,AFNE01.JPG,AFNE01.JPG,AFNE01.JPG,AFNE01.JPG,AFNE01.JPG,0,4,4,4,,,,,,,,,,,,,,,,,,,,,,,AMNE16.jpg,AMNE09.jpg,AMSA03.jpg,AMSA20.jpg,AMNE09.jpg,MN,1,num_6,32,num_8,1.03346056014,,,2017_Mar_16_1707,60.0137051666,MAFE4ImagesEEG,001,100072,
AFNE01.JPG,AFNE01.JPG,AFNE01.JPG,AFNE01.JPG,AFNE01.JPG,AFNE01.JPG,0,5,5,9,,,,,,,,,,,,,,,,,,,,,,,AMSA10.jpg,AMNE05.jpg,AMNE17.jpg,AMSA15.jpg,AMNE17.jpg,MN,1,num_2,32,num_6,1.48341132666,,,2017_Mar_16_1707,60.0137051666,MAFE4ImagesEEG,001,100072,
AFNE01.JPG,AFNE01.JPG,AFNE01.JPG,AFNE01.JPG,AFNE01.JPG,AFNE01.JPG,0,6,6,2,,,,,,,,,,,,,,,,,,,,,,,AMSA06.jpg,AMSA11.jpg,AMNE20.jpg,AMNE17.jpg,AMSA06.jpg,MS,2,num_8,16,num_8,2.06669050839,,,2017_Mar_16_1707,60.0137051666,MAFE4ImagesEEG,001,100072,
AFNE01.JPG,AFNE01.JPG,AFNE01.JPG,AFNE01.JPG,AFNE01.JPG,AFNE01.JPG,0,7,7,1,,,,,,,,,,,,,,,,,,,,,,,AMSA08.jpg,AMSA01.jpg,AMNE09.jpg,AMNE02.jpg,AMNE09.jpg,MN,1,num_2,16,num_2,0.633467616513,,,2017_Mar_16_1707,60.0137051666,MAFE4ImagesEEG,001,100072,
AFNE01.JPG,AFNE01.JPG,AFNE01.JPG,AFNE01.JPG,AFNE01.JPG,AFNE01.JPG,0,8,8,5,,,,,,,,,,,,,,,,,,,,,,,AMSA14.jpg,AMNE02.jpg,AMNE14.jpg,AMSA16.jpg,AMNE02.jpg,MN,1,num_6,16,num_6,1.05010664603,,,2017_Mar_16_1707,60.0137051666,MAFE4ImagesEEG,001,100072,
AFNE01.JPG,AFNE01.JPG,AFNE01.JPG,AFNE01.JPG,AFNE01.JPG,AFNE01.JPG,0,9,9,3,,,,,,,,,,,,,,,,,,,,,,,AMSA12.jpg,AMSA02.jpg,AMNE03.jpg,AMNE11.jpg,AMNE11.jpg,MN,1,num_4,32,num_8,1.35009798605,,,2017_Mar_16_1707,60.0137051666,MAFE4ImagesEEG,001,100072,
AFNE01.JPG,AFNE01.JPG,AFNE01.JPG,AFNE01.JPG,AFNE01.JPG,AFNE01.JPG,1,0,10,7,,,,,,,,,,,,,,,,,,,,,,,AMSA01.jpg,AMNE05.jpg,AMSA14.jpg,AMNE02.jpg,AMNE05.jpg,MN,1,num_6,16,num_6,1.61676860845,,,2017_Mar_16_1707,60.0137051666,MAFE4ImagesEEG,001,100072,
AFNE01.JPG,AFNE01.JPG,AFNE01.JPG,AFNE01.JPG,AFNE01.JPG,AFNE01.JPG,1,1,11,6,,,,,,,,,,,,,,,,,,,,,,,AMNE13.jpg,AMSA19.jpg,AMNE06.jpg,AMSA17.jpg,AMNE13.jpg,MN,1,num_8,16,num_8,1.76675465633,,,2017_Mar_16_1707,60.0137051666,MAFE4ImagesEEG,001,100072,
AFNE01.JPG,AFNE01.JPG,AFNE01.JPG,AFNE01.JPG,AFNE01.JPG,AFNE01.JPG,1,2,12,8,,,,,,,,,,,,,,,,,,,,,,,AMSA11.jpg,AMNE09.jpg,AMNE08.jpg,AMSA10.jpg,AMNE09.jpg,MN,1,num_6,16,num_6,1.20014112571,,,2017_Mar_16_1707,60.0137051666,MAFE4ImagesEEG,001,100072,
AFNE01.JPG,AFNE01.JPG,AFNE01.JPG,AFNE01.JPG,AFNE01.JPG,AFNE01.JPG,1,3,13,1,,,,,,,,,,,,,,,,,,,,,,,AMSA02.jpg,AMSA08.jpg,AMNE15.jpg,AMNE17.jpg,AMNE17.jpg,MN,1,num_4,32,num_8,1.18341132661,,,2017_Mar_16_1707,60.0137051666,MAFE4ImagesEEG,001,100072,
AFNE01.JPG,AFNE01.JPG,AFNE01.JPG,AFNE01.JPG,AFNE01.JPG,AFNE01.JPG,1,4,14,2,,,,,,,,,,,,,,,,,,,,,,,AMNE17.jpg,AMSA13.jpg,AMSA02.jpg,AMNE03.jpg,AMSA02.jpg,MS,2,num_2,32,num_4,1.20018442546,,,2017_Mar_16_1707,60.0137051666,MAFE4ImagesEEG,001,100072,
AFNE01.JPG,AFNE01.JPG,AFNE01.JPG,AFNE01.JPG,AFNE01.JPG,AFNE01.JPG,1,5,15,5,,,,,,,,,,,,,,,,,,,,,,,AMNE13.jpg,AMSA08.jpg,AMSA13.jpg,AMNE03.jpg,AMSA08.jpg,MS,2,num_6,32,num_4,1.31681768165,,,2017_Mar_16_1707,60.0137051666,MAFE4ImagesEEG,001,100072,
AFNE01.JPG,AFNE01.JPG,AFNE01.JPG,AFNE01.JPG,AFNE01.JPG,AFNE01.JPG,1,6,16,3,,,,,,,,,,,,,,,,,,,,,,,AMNE13.jpg,AMNE10.jpg,AMSA09.jpg,AMSA13.jpg,AMNE13.jpg,MN,1,num_8,32,num_4,1.35007649648,,,2017_Mar_16_1707,60.0137051666,MAFE4ImagesEEG,001,100072,
AFNE01.JPG,AFNE01.JPG,AFNE01.JPG,AFNE01.JPG,AFNE01.JPG,AFNE01.JPG,1,7,17,9,,,,,,,,,,,,,,,,,,,,,,,AMSA18.jpg,AMSA15.jpg,AMNE16.jpg,AMNE20.jpg,AMSA15.jpg,MS,2,num_6,16,num_6,0.966771334875,,,2017_Mar_16_1707,60.0137051666,MAFE4ImagesEEG,001,100072,
AFNE01.JPG,AFNE01.JPG,AFNE01.JPG,AFNE01.JPG,AFNE01.JPG,AFNE01.JPG,1,8,18,0,,,,,,,,,,,,,,,,,,,,,,,AMNE08.jpg,AMSA13.jpg,AMSA17.jpg,AMNE13.jpg,AMSA13.jpg,MS,2,num_6,16,num_6,1.16675048671,,,2017_Mar_16_1707,60.0137051666,MAFE4ImagesEEG,001,100072,
AFNE01.JPG,AFNE01.JPG,AFNE01.JPG,AFNE01.JPG,AFNE01.JPG,AFNE01.JPG,1,9,19,4,,,,,,,,,,,,,,,,,,,,,,,AMNE09.jpg,AMSA01.jpg,AMNE16.jpg,AMSA05.jpg,AMNE16.jpg,MN,1,num_2,32,num_8,1.15011209866,,,2017_Mar_16_1707,60.0137051666,MAFE4ImagesEEG,001,100072,
AFNE01.JPG,AFNE01.JPG,AFNE01.JPG,AFNE01.JPG,AFNE01.JPG,AFNE01.JPG,2,0,20,4,,,,,,,,,,,,,,,,,,,,,,,AMNE06.jpg,AMSA09.jpg,AMNE10.jpg,AMSA18.jpg,AMSA09.jpg,MS,2,num_6,32,num_4,2.09969786298,,,2017_Mar_16_1707,60.0137051666,MAFE4ImagesEEG,001,100072,
AFNE01.JPG,AFNE01.JPG,AFNE01.JPG,AFNE01.JPG,AFNE01.JPG,AFNE01.JPG,2,1,21,9,,,,,,,,,,,,,,,,,,,,,,,AMNE11.jpg,AMSA06.jpg,AMSA20.jpg,AMNE08.jpg,AMNE08.jpg,MN,1,num_4,32,num_8,1.71673108195,,,2017_Mar_16_1707,60.0137051666,MAFE4ImagesEEG,001,100072,
AFNE01.JPG,AFNE01.JPG,AFNE01.JPG,AFNE01.JPG,AFNE01.JPG,AFNE01.JPG,2,2,22,6,,,,,,,,,,,,,,,,,,,,,,,AMNE02.jpg,AMSA19.jpg,AMSA18.jpg,AMNE17.jpg,AMSA18.jpg,MS,2,num_2,16,num_2,2.3336414576,,,2017_Mar_16_1707,60.0137051666,MAFE4ImagesEEG,001,100072,
AFNE01.JPG,AFNE01.JPG,AFNE01.JPG,AFNE01.JPG,AFNE01.JPG,AFNE01.JPG,2,3,23,5,,,,,,,,,,,,,,,,,,,,,,,AMSA11.jpg,AMSA16.jpg,AMNE07.jpg,AMNE20.jpg,AMSA16.jpg,MS,2,num_6,16,num_6,0.750030951458,,,2017_Mar_16_1707,60.0137051666,MAFE4ImagesEEG,001,100072,
AFNE01.JPG,AFNE01.JPG,AFNE01.JPG,AFNE01.JPG,AFNE01.JPG,AFNE01.JPG,2,4,24,0,,,,,,,,,,,,,,,,,,,,,,,AMSA06.jpg,AMNE07.jpg,AMNE11.jpg,AMSA01.jpg,AMNE07.jpg,MN,1,num_6,32,num_8,1.88345302281,,,2017_Mar_16_1707,60.0137051666,MAFE4ImagesEEG,001,100072,
AFNE01.JPG,AFNE01.JPG,AFNE01.JPG,AFNE01.JPG,AFNE01.JPG,AFNE01.JPG,2,5,25,3,,,,,,,,,,,,,,,,,,,,,,,AMNE13.jpg,AMNE09.jpg,AMSA03.jpg,AMSA10.jpg,AMNE09.jpg,MN,1,num_6,16,num_6,2.08337155485,,,2017_Mar_16_1707,60.0137051666,MAFE4ImagesEEG,001,100072,
AFNE01.JPG,AFNE01.JPG,AFNE01.JPG,AFNE01.JPG,AFNE01.JPG,AFNE01.JPG,2,6,26,7,,,,,,,,,,,,,,,,,,,,,,,AMNE07.jpg,AMNE10.jpg,AMSA04.jpg,AMSA02.jpg,AMNE07.jpg,MN,1,num_8,32,num_6,1.650178171,,,2017_Mar_16_1707,60.0137051666,MAFE4ImagesEEG,001,100072,
AFNE01.JPG,AFNE01.JPG,AFNE01.JPG,AFNE01.JPG,AFNE01.JPG,AFNE01.JPG,2,7,27,2,,,,,,,,,,,,,,,,,,,,,,,AMSA04.jpg,AMSA19.jpg,AMNE18.jpg,AMNE10.jpg,AMNE18.jpg,MN,1,num_2,32,num_4,0.916793305427,,,2017_Mar_16_1707,60.0137051666,MAFE4ImagesEEG,001,100072,
AFNE01.JPG,AFNE01.JPG,AFNE01.JPG,AFNE01.JPG,AFNE01.JPG,AFNE01.JPG,2,8,28,1,,,,,,,,,,,,,,,,,,,,,,,AMSA17.jpg,AMSA18.jpg,AMNE08.jpg,AMNE13.jpg,AMSA18.jpg,MS,2,num_6,16,num_6,1.00016229448,,,2017_Mar_16_1707,60.0137051666,MAFE4ImagesEEG,001,100072,
AFNE01.JPG,AFNE01.JPG,AFNE01.JPG,AFNE01.JPG,AFNE01.JPG,AFNE01.JPG,2,9,29,8,,,,,,,,,,,,,,,,,,,,,,,AMNE07.jpg,AMNE05.jpg,AMSA09.jpg,AMSA11.jpg,AMSA11.jpg,MS,2,num_4,32,num_2,0.666831954732,,,2017_Mar_16_1707,60.0137051666,MAFE4ImagesEEG,001,100072,
AFNE01.JPG,AFNE01.JPG,AFNE01.JPG,AFNE01.JPG,AFNE01.JPG,AFNE01.JPG,3,0,30,8,,,,,,,,,,,,,,,,,,,,,,,AMSA19.jpg,AMSA03.jpg,AMNE12.jpg,AMNE08.jpg,AMNE12.jpg,MN,1,num_2,16,num_2,1.66642910521,,,2017_Mar_16_1707,60.0137051666,MAFE4ImagesEEG,001,100072,
AFNE01.JPG,AFNE01.JPG,AFNE01.JPG,AFNE01.JPG,AFNE01.JPG,AFNE01.JPG,3,1,31,0,,,,,,,,,,,,,,,,,,,,,,,AMSA14.jpg,AMNE07.jpg,AMNE02.jpg,AMSA12.jpg,AMSA14.jpg,MS,2,num_8,16,num_8,1.13345254166,,,2017_Mar_16_1707,60.0137051666,MAFE4ImagesEEG,001,100072,
AFNE01.JPG,AFNE01.JPG,AFNE01.JPG,AFNE01.JPG,AFNE01.JPG,AFNE01.JPG,3,2,32,2,,,,,,,,,,,,,,,,,,,,,,,AMNE08.jpg,AMNE13.jpg,AMSA05.jpg,AMSA12.jpg,AMSA05.jpg,MS,2,num_2,16,num_2,1.06686851906,,,2017_Mar_16_1707,60.0137051666,MAFE4ImagesEEG,001,100072,
AFNE01.JPG,AFNE01.JPG,AFNE01.JPG,AFNE01.JPG,AFNE01.JPG,AFNE01.JPG,3,3,33,9,,,,,,,,,,,,,,,,,,,,,,,AMSA10.jpg,AMNE11.jpg,AMNE13.jpg,AMSA15.jpg,AMNE11.jpg,MN,1,num_6,16,num_6,1.06707635859,,,2017_Mar_16_1707,60.0137051666,MAFE4ImagesEEG,001,100072,
AFNE01.JPG,AFNE01.JPG,AFNE01.JPG,AFNE01.JPG,AFNE01.JPG,AFNE01.JPG,3,4,34,4,,,,,,,,,,,,,,,,,,,,,,,AMSA20.jpg,AMNE08.jpg,AMSA05.jpg,AMNE04.jpg,AMNE04.jpg,MN,1,num_4,16,num_4,1.48343441996,,,2017_Mar_16_1707,60.0137051666,MAFE4ImagesEEG,001,100072,
AFNE01.JPG,AFNE01.JPG,AFNE01.JPG,AFNE01.JPG,AFNE01.JPG,AFNE01.JPG,3,5,35,6,,,,,,,,,,,,,,,,,,,,,,,AMSA04.jpg,AMSA17.jpg,AMNE17.jpg,AMNE13.jpg,AMSA04.jpg,MS,2,num_8,16,num_8,1.08349311526,,,2017_Mar_16_1707,60.0137051666,MAFE4ImagesEEG,001,100072,
AFNE01.JPG,AFNE01.JPG,AFNE01.JPG,AFNE01.JPG,AFNE01.JPG,AFNE01.JPG,3,6,36,7,,,,,,,,,,,,,,,,,,,,,,,AMSA17.jpg,AMNE17.jpg,AMNE12.jpg,AMSA03.jpg,AMNE17.jpg,MN,1,num_6,32,num_8,0.883526793099,,,2017_Mar_16_1707,60.0137051666,MAFE4ImagesEEG,001,100072,
AFNE01.JPG,AFNE01.JPG,AFNE01.JPG,AFNE01.JPG,AFNE01.JPG,AFNE01.JPG,3,7,37,5,,,,,,,,,,,,,,,,,,,,,,,AMSA19.jpg,AMSA13.jpg,AMNE17.jpg,AMNE04.jpg,AMSA19.jpg,MS,2,num_8,32,num_4,1.48327052174,,,2017_Mar_16_1707,60.0137051666,MAFE4ImagesEEG,001,100072,
AFNE01.JPG,AFNE01.JPG,AFNE01.JPG,AFNE01.JPG,AFNE01.JPG,AFNE01.JPG,3,8,38,1,,,,,,,,,,,,,,,,,,,,,,,AMNE15.jpg,AMSA01.jpg,AMNE02.jpg,AMSA13.jpg,AMSA01.jpg,MS,2,num_6,16,num_6,1.18344949477,,,2017_Mar_16_1707,60.0137051666,MAFE4ImagesEEG,001,100072,
AFNE01.JPG,AFNE01.JPG,AFNE01.JPG,AFNE01.JPG,AFNE01.JPG,AFNE01.JPG,3,9,39,3,,,,,,,,,,,,,,,,,,,,,,,AMNE09.jpg,AMSA01.jpg,AMSA15.jpg,AMNE19.jpg,AMSA15.jpg,MS,2,num_2,16,num_2,0.966786409612,,,2017_Mar_16_1707,60.0137051666,MAFE4ImagesEEG,001,100072,
AFNE01.JPG,AFNE01.JPG,AFNE01.JPG,AFNE01.JPG,AFNE01.JPG,AFNE01.JPG,4,0,40,8,,,,,,,,,,,,,,,,,,,,,,,AMNE02.jpg,AMNE17.jpg,AMSA09.jpg,AMSA05.jpg,AMNE02.jpg,MN,1,num_8,16,num_8,1.01674134564,,,2017_Mar_16_1707,60.0137051666,MAFE4ImagesEEG,001,100072,
AFNE01.JPG,AFNE01.JPG,AFNE01.JPG,AFNE01.JPG,AFNE01.JPG,AFNE01.JPG,4,1,41,3,,,,,,,,,,,,,,,,,,,,,,,AMSA05.jpg,AMNE03.jpg,AMSA02.jpg,AMNE01.jpg,AMSA02.jpg,MS,2,num_2,16,num_2,0.650190359214,,,2017_Mar_16_1707,60.0137051666,MAFE4ImagesEEG,001,100072,
AFNE01.JPG,AFNE01.JPG,AFNE01.JPG,AFNE01.JPG,AFNE01.JPG,AFNE01.JPG,4,2,42,1,,,,,,,,,,,,,,,,,,,,,,,AMSA19.jpg,AMSA03.jpg,AMNE14.jpg,AMNE16.jpg,AMNE16.jpg,MN,1,num_4,16,num_4,1.41673076118,,,2017_Mar_16_1707,60.0137051666,MAFE4ImagesEEG,001,100072,
AFNE01.JPG,AFNE01.JPG,AFNE01.JPG,AFNE01.JPG,AFNE01.JPG,AFNE01.JPG,4,3,43,0,,,,,,,,,,,,,,,,,,,,,,,AMSA05.jpg,AMSA18.jpg,AMNE06.jpg,AMNE08.jpg,AMSA18.jpg,MS,2,num_6,16,num_6,1.40023317805,,,2017_Mar_16_1707,60.0137051666,MAFE4ImagesEEG,001,100072,
AFNE01.JPG,AFNE01.JPG,AFNE01.JPG,AFNE01.JPG,AFNE01.JPG,AFNE01.JPG,4,4,44,6,,,,,,,,,,,,,,,,,,,,,,,AMNE04.jpg,AMNE11.jpg,AMSA06.jpg,AMSA15.jpg,AMSA15.jpg,MS,2,num_4,32,num_2,1.98338470527,,,2017_Mar_16_1707,60.0137051666,MAFE4ImagesEEG,001,100072,
AFNE01.JPG,AFNE01.JPG,AFNE01.JPG,AFNE01.JPG,AFNE01.JPG,AFNE01.JPG,4,5,45,2,,,,,,,,,,,,,,,,,,,,,,,AMNE12.jpg,AMSA05.jpg,AMSA07.jpg,AMNE16.jpg,AMNE12.jpg,MN,1,num_8,32,num_4,1.3334012233,,,2017_Mar_16_1707,60.0137051666,MAFE4ImagesEEG,001,100072,
AFNE01.JPG,AFNE01.JPG,AFNE01.JPG,AFNE01.JPG,AFNE01.JPG,AFNE01.JPG,4,6,46,9,,,,,,,,,,,,,,,,,,,,,,,AMNE10.jpg,AMNE14.jpg,AMSA19.jpg,AMSA01.jpg,AMSA01.jpg,MS,2,num_4,16,num_4,1.35010375944,,,2017_Mar_16_1707,60.0137051666,MAFE4ImagesEEG,001,100072,
AFNE01.JPG,AFNE01.JPG,AFNE01.JPG,AFNE01.JPG,AFNE01.JPG,AFNE01.JPG,4,7,47,4,,,,,,,,,,,,,,,,,,,,,,,AMSA02.jpg,AMNE20.jpg,AMSA17.jpg,AMNE07.jpg,AMSA17.jpg,MS,2,num_2,32,num_6,1.03343393875,,,2017_Mar_16_1707,60.0137051666,MAFE4ImagesEEG,001,100072,
AFNE01.JPG,AFNE01.JPG,AFNE01.JPG,AFNE01.JPG,AFNE01.JPG,AFNE01.JPG,4,8,48,7,,,,,,,,,,,,,,,,,,,,,,,AMNE04.jpg,AMSA12.jpg,AMNE02.jpg,AMSA13.jpg,AMSA13.jpg,MS,2,num_4,16,num_4,0.666853123577,,,2017_Mar_16_1707,60.0137051666,MAFE4ImagesEEG,001,100072,
AFNE01.JPG,AFNE01.JPG,AFNE01.JPG,AFNE01.JPG,AFNE01.JPG,AFNE01.JPG,4,9,49,5,,,,,,,,,,,,,,,,,,,,,,,AMSA12.jpg,AMNE11.jpg,AMNE15.jpg,AMSA16.jpg,AMSA16.jpg,MS,2,num_4,16,num_4,1.25012556976,,,2017_Mar_16_1707,60.0137051666,MAFE4ImagesEEG,001,100072,
AFNE01.JPG,AFNE01.JPG,AFNE01.JPG,AFNE01.JPG,AFNE01.JPG,AFNE01.JPG,5,0,50,4,,,,,,,,,,,,,,,,,,,,,,,AMSA15.jpg,AMNE19.jpg,AMNE06.jpg,AMSA05.jpg,AMSA15.jpg,MS,2,num_8,32,num_4,1.40022964985,,,2017_Mar_16_1707,60.0137051666,MAFE4ImagesEEG,001,100072,
AFNE01.JPG,AFNE01.JPG,AFNE01.JPG,AFNE01.JPG,AFNE01.JPG,AFNE01.JPG,5,1,51,0,,,,,,,,,,,,,,,,,,,,,,,AMNE20.jpg,AMNE18.jpg,AMSA20.jpg,AMSA17.jpg,AMNE18.jpg,MN,1,num_6,16,num_6,0.966784805874,,,2017_Mar_16_1707,60.0137051666,MAFE4ImagesEEG,001,100072,
AFNE01.JPG,AFNE01.JPG,AFNE01.JPG,AFNE01.JPG,AFNE01.JPG,AFNE01.JPG,5,2,52,3,,,,,,,,,,,,,,,,,,,,,,,AMNE11.jpg,AMSA03.jpg,AMSA09.jpg,AMNE16.jpg,AMNE16.jpg,MN,1,num_4,16,num_4,1.15010440082,,,2017_Mar_16_1707,60.0137051666,MAFE4ImagesEEG,001,100072,
AFNE01.JPG,AFNE01.JPG,AFNE01.JPG,AFNE01.JPG,AFNE01.JPG,AFNE01.JPG,5,3,53,5,,,,,,,,,,,,,,,,,,,,,,,AMSA17.jpg,AMNE08.jpg,AMSA11.jpg,AMNE19.jpg,AMSA11.jpg,MS,2,num_2,16,num_2,2.63329024729,,,2017_Mar_16_1707,60.0137051666,MAFE4ImagesEEG,001,100072,
AFNE01.JPG,AFNE01.JPG,AFNE01.JPG,AFNE01.JPG,AFNE01.JPG,AFNE01.JPG,5,4,54,6,,,,,,,,,,,,,,,,,,,,,,,AMNE04.jpg,AMSA20.jpg,AMNE09.jpg,AMSA09.jpg,AMSA09.jpg,MS,2,num_4,16,num_4,1.34998219891,,,2017_Mar_16_1707,60.0137051666,MAFE4ImagesEEG,001,100072,
AFNE01.JPG,AFNE01.JPG,AFNE01.JPG,AFNE01.JPG,AFNE01.JPG,AFNE01.JPG,5,5,55,7,,,,,,,,,,,,,,,,,,,,,,,AMSA04.jpg,AMSA15.jpg,AMNE15.jpg,AMNE04.jpg,AMNE15.jpg,MN,1,num_2,16,num_2,2.20007120422,,,2017_Mar_16_1707,60.0137051666,MAFE4ImagesEEG,001,100072,
AFNE01.JPG,AFNE01.JPG,AFNE01.JPG,AFNE01.JPG,AFNE01.JPG,AFNE01.JPG,5,6,56,2,,,,,,,,,,,,,,,,,,,,,,,AMSA10.jpg,AMNE03.jpg,AMNE12.jpg,AMSA09.jpg,AMNE03.jpg,MN,1,num_6,16,num_6,2.36665907584,,,2017_Mar_16_1707,60.0137051666,MAFE4ImagesEEG,001,100072,
AFNE01.JPG,AFNE01.JPG,AFNE01.JPG,AFNE01.JPG,AFNE01.JPG,AFNE01.JPG,5,7,57,9,,,,,,,,,,,,,,,,,,,,,,,AMSA18.jpg,AMNE16.jpg,AMNE11.jpg,AMSA20.jpg,AMSA20.jpg,MS,2,num_4,16,num_4,1.03350514302,,,2017_Mar_16_1707,60.0137051666,MAFE4ImagesEEG,001,100072,
AFNE01.JPG,AFNE01.JPG,AFNE01.JPG,AFNE01.JPG,AFNE01.JPG,AFNE01.JPG,5,8,58,1,,,,,,,,,,,,,,,,,,,,,,,AMNE12.jpg,AMSA06.jpg,AMNE07.jpg,AMSA18.jpg,AMNE07.jpg,MN,1,num_2,32,num_8,1.40018378396,,,2017_Mar_16_1707,60.0137051666,MAFE4ImagesEEG,001,100072,
AFNE01.JPG,AFNE01.JPG,AFNE01.JPG,AFNE01.JPG,AFNE01.JPG,AFNE01.JPG,5,9,59,8,,,,,,,,,,,,,,,,,,,,,,,AMSA14.jpg,AMNE03.jpg,AMSA08.jpg,AMNE08.jpg,AMSA14.jpg,MS,2,num_8,16,num_8,0.700175765553,,,2017_Mar_16_1707,60.0137051666,MAFE4ImagesEEG,001,100072,
,,,,,,,,,,,,,,,,,,,,,,,,,,,,,,,,,,,,,,,,,,,space,5.14965953445,2017_Mar_16_1707,60.0137051666,MAFE4ImagesEEG,001,100072,
AFNE01.JPG,AFNE01.JPG,AFNE01.JPG,AFNE01.JPG,AFNE01.JPG,AFNE01.JPG,,,,,0,0,0,7,,,,,,,,,,,,,,,,,,,AFNE13.jpg,AFSA08.jpg,AFNE02.jpg,AFSA09.jpg,AFSA09.jpg,FS,4,num_4,16,num_4,2.03318536526,,,2017_Mar_16_1707,60.0137051666,MAFE4ImagesEEG,001,100072,
AFNE01.JPG,AFNE01.JPG,AFNE01.JPG,AFNE01.JPG,AFNE01.JPG,AFNE01.JPG,,,,,0,1,1,3,,,,,,,,,,,,,,,,,,,AFNE07.jpg,AFSA08.jpg,AFNE01.jpg,AFSA18.jpg,AFNE01.jpg,FN,3,num_2,32,num_6,1.7167730988,,,2017_Mar_16_1707,60.0137051666,MAFE4ImagesEEG,001,100072,
AFNE01.JPG,AFNE01.JPG,AFNE01.JPG,AFNE01.JPG,AFNE01.JPG,AFNE01.JPG,,,,,0,2,2,2,,,,,,,,,,,,,,,,,,,AFNE01.jpg,AFSA02.jpg,AFNE08.jpg,AFSA14.jpg,AFNE01.jpg,FN,3,num_8,32,num_2,2.76690668706,,,2017_Mar_16_1707,60.0137051666,MAFE4ImagesEEG,001,100072,
AFNE01.JPG,AFNE01.JPG,AFNE01.JPG,AFNE01.JPG,AFNE01.JPG,AFNE01.JPG,,,,,0,3,3,6,,,,,,,,,,,,,,,,,,,AFNE17.jpg,AFSA09.jpg,AFNE01.jpg,AFSA20.jpg,AFNE01.jpg,FN,3,num_2,32,num_8,1.78342992952,,,2017_Mar_16_1707,60.0137051666,MAFE4ImagesEEG,001,100072,
AFNE01.JPG,AFNE01.JPG,AFNE01.JPG,AFNE01.JPG,AFNE01.JPG,AFNE01.JPG,,,,,0,4,4,0,,,,,,,,,,,,,,,,,,,AFNE18.jpg,AFSA12.jpg,AFSA01.jpg,AFNE02.jpg,AFSA01.jpg,FS,4,num_2,32,num_8,1.40016902995,,,2017_Mar_16_1707,60.0137051666,MAFE4ImagesEEG,001,100072,
AFNE01.JPG,AFNE01.JPG,AFNE01.JPG,AFNE01.JPG,AFNE01.JPG,AFNE01.JPG,,,,,0,5,5,5,,,,,,,,,,,,,,,,,,,AFSA05.jpg,AFSA16.jpg,AFNE20.jpg,AFNE06.jpg,AFSA16.jpg,FS,4,num_6,32,num_2,1.80006318574,,,2017_Mar_16_1707,60.0137051666,MAFE4ImagesEEG,001,100072,
AFNE01.JPG,AFNE01.JPG,AFNE01.JPG,AFNE01.JPG,AFNE01.JPG,AFNE01.JPG,,,,,0,6,6,8,,,,,,,,,,,,,,,,,,,AFSA07.jpg,AFNE01.jpg,AFNE07.jpg,AFSA01.jpg,AFSA07.jpg,FS,4,num_8,32,num_2,2.51662203029,,,2017_Mar_16_1707,60.0137051666,MAFE4ImagesEEG,001,100072,
AFNE01.JPG,AFNE01.JPG,AFNE01.JPG,AFNE01.JPG,AFNE01.JPG,AFNE01.JPG,,,,,0,7,7,1,,,,,,,,,,,,,,,,,,,AFSA19.jpg,AFNE12.jpg,AFNE07.jpg,AFSA20.jpg,AFNE12.jpg,FN,3,num_6,32,num_2,1.45011274004,,,2017_Mar_16_1707,60.0137051666,MAFE4ImagesEEG,001,100072,
AFNE01.JPG,AFNE01.JPG,AFNE01.JPG,AFNE01.JPG,AFNE01.JPG,AFNE01.JPG,,,,,0,8,8,9,,,,,,,,,,,,,,,,,,,AFNE11.jpg,AFSA20.jpg,AFSA13.jpg,AFNE04.jpg,AFNE04.jpg,FN,3,num_4,16,num_4,0.766760108992,,,2017_Mar_16_1707,60.0137051666,MAFE4ImagesEEG,001,100072,
AFNE01.JPG,AFNE01.JPG,AFNE01.JPG,AFNE01.JPG,AFNE01.JPG,AFNE01.JPG,,,,,0,9,9,4,,,,,,,,,,,,,,,,,,,AFNE13.jpg,AFSA17.jpg,AFNE09.jpg,AFSA10.jpg,AFNE13.jpg,FN,3,num_8,16,num_8,2.40001218813,,,2017_Mar_16_1707,60.0137051666,MAFE4ImagesEEG,001,100072,
AFNE01.JPG,AFNE01.JPG,AFNE01.JPG,AFNE01.JPG,AFNE01.JPG,AFNE01.JPG,,,,,1,0,10,4,,,,,,,,,,,,,,,,,,,AFSA06.jpg,AFNE05.jpg,AFSA01.jpg,AFNE19.jpg,AFSA01.jpg,FS,4,num_2,32,num_8,1.76674760005,,,2017_Mar_16_1707,60.0137051666,MAFE4ImagesEEG,001,100072,
AFNE01.JPG,AFNE01.JPG,AFNE01.JPG,AFNE01.JPG,AFNE01.JPG,AFNE01.JPG,,,,,1,1,11,7,,,,,,,,,,,,,,,,,,,AFSA09.jpg,AFNE15.jpg,AFSA17.jpg,AFNE11.jpg,AFSA09.jpg,FS,4,num_8,32,num_4,1.33342495805,,,2017_Mar_16_1707,60.0137051666,MAFE4ImagesEEG,001,100072,
AFNE01.JPG,AFNE01.JPG,AFNE01.JPG,AFNE01.JPG,AFNE01.JPG,AFNE01.JPG,,,,,1,2,12,8,,,,,,,,,,,,,,,,,,,AFSA14.jpg,AFNE07.jpg,AFSA18.jpg,AFNE03.jpg,AFNE07.jpg,FN,3,num_6,32,num_4,1.88369486073,,,2017_Mar_16_1707,60.0137051666,MAFE4ImagesEEG,001,100072,
AFNE01.JPG,AFNE01.JPG,AFNE01.JPG,AFNE01.JPG,AFNE01.JPG,AFNE01.JPG,,,,,1,3,13,0,,,,,,,,,,,,,,,,,,,AFNE11.jpg,AFNE04.jpg,AFSA13.jpg,AFSA18.jpg,AFSA18.jpg,FS,4,num_4,16,num_4,1.44995718123,,,2017_Mar_16_1707,60.0137051666,MAFE4ImagesEEG,001,100072,
AFNE01.JPG,AFNE01.JPG,AFNE01.JPG,AFNE01.JPG,AFNE01.JPG,AFNE01.JPG,,,,,1,4,14,3,,,,,,,,,,,,,,,,,,,AFSA03.jpg,AFNE05.jpg,AFNE10.jpg,AFSA14.jpg,AFNE10.jpg,FN,3,num_2,32,num_6,1.86673861928,,,2017_Mar_16_1707,60.0137051666,MAFE4ImagesEEG,001,100072,
AFNE01.JPG,AFNE01.JPG,AFNE01.JPG,AFNE01.JPG,AFNE01.JPG,AFNE01.JPG,,,,,1,5,15,6,,,,,,,,,,,,,,,,,,,AFSA17.jpg,AFNE15.jpg,AFNE04.jpg,AFSA01.jpg,AFNE15.jpg,FN,3,num_6,32,num_2,1.25017175626,,,2017_Mar_16_1707,60.0137051666,MAFE4ImagesEEG,001,100072,
AFNE01.JPG,AFNE01.JPG,AFNE01.JPG,AFNE01.JPG,AFNE01.JPG,AFNE01.JPG,,,,,1,6,16,2,,,,,,,,,,,,,,,,,,,AFSA10.jpg,AFNE08.jpg,AFSA20.jpg,AFNE04.jpg,AFSA20.jpg,FS,4,num_2,16,num_2,2.98333595274,,,2017_Mar_16_1707,60.0137051666,MAFE4ImagesEEG,001,100072,
AFNE01.JPG,AFNE01.JPG,AFNE01.JPG,AFNE01.JPG,AFNE01.JPG,AFNE01.JPG,,,,,1,7,17,9,,,,,,,,,,,,,,,,,,,AFNE19.jpg,AFSA01.jpg,AFNE13.jpg,AFSA12.jpg,AFSA12.jpg,FS,4,num_4,16,num_4,1.18348798354,,,2017_Mar_16_1707,60.0137051666,MAFE4ImagesEEG,001,100072,
AFNE01.JPG,AFNE01.JPG,AFNE01.JPG,AFNE01.JPG,AFNE01.JPG,AFNE01.JPG,,,,,1,8,18,5,,,,,,,,,,,,,,,,,,,AFSA06.jpg,AFNE13.jpg,AFNE04.jpg,AFSA04.jpg,AFNE04.jpg,FN,3,num_2,16,num_2,2.16666132095,,,2017_Mar_16_1707,60.0137051666,MAFE4ImagesEEG,001,100072,
AFNE01.JPG,AFNE01.JPG,AFNE01.JPG,AFNE01.JPG,AFNE01.JPG,AFNE01.JPG,,,,,1,9,19,1,,,,,,,,,,,,,,,,,,,AFSA15.jpg,AFNE01.jpg,AFNE04.jpg,AFSA18.jpg,AFSA18.jpg,FS,4,num_4,16,num_4,0.616839492111,,,2017_Mar_16_1707,60.0137051666,MAFE4ImagesEEG,001,100072,
AFNE01.JPG,AFNE01.JPG,AFNE01.JPG,AFNE01.JPG,AFNE01.JPG,AFNE01.JPG,,,,,2,0,20,0,,,,,,,,,,,,,,,,,,,AFSA18.jpg,AFNE13.jpg,AFNE20.jpg,AFSA09.jpg,AFNE20.jpg,FN,3,num_2,32,num_6,1.25012396602,,,2017_Mar_16_1707,60.0137051666,MAFE4ImagesEEG,001,100072,
AFNE01.JPG,AFNE01.JPG,AFNE01.JPG,AFNE01.JPG,AFNE01.JPG,AFNE01.JPG,,,,,2,1,21,2,,,,,,,,,,,,,,,,,,,AFSA02.jpg,AFSA07.jpg,AFNE16.jpg,AFNE10.jpg,AFSA07.jpg,FS,4,num_6,16,num_6,0.666833879077,,,2017_Mar_16_1707,60.0137051666,MAFE4ImagesEEG,001,100072,
AFNE01.JPG,AFNE01.JPG,AFNE01.JPG,AFNE01.JPG,AFNE01.JPG,AFNE01.JPG,,,,,2,2,22,8,,,,,,,,,,,,,,,,,,,AFNE19.jpg,AFNE03.jpg,AFSA18.jpg,AFSA03.jpg,AFNE19.jpg,FN,3,num_8,16,num_8,0.933762055822,,,2017_Mar_16_1707,60.0137051666,MAFE4ImagesEEG,001,100072,
AFNE01.JPG,AFNE01.JPG,AFNE01.JPG,AFNE01.JPG,AFNE01.JPG,AFNE01.JPG,,,,,2,3,23,7,,,,,,,,,,,,,,,,,,,AFSA12.jpg,AFSA11.jpg,AFNE05.jpg,AFNE06.jpg,AFNE06.jpg,FN,3,num_4,16,num_4,0.849997594487,,,2017_Mar_16_1707,60.0137051666,MAFE4ImagesEEG,001,100072,
AFNE01.JPG,AFNE01.JPG,AFNE01.JPG,AFNE01.JPG,AFNE01.JPG,AFNE01.JPG,,,,,2,4,24,3,,,,,,,,,,,,,,,,,,,AFSA17.jpg,AFSA13.jpg,AFNE06.jpg,AFNE03.jpg,AFNE06.jpg,FN,3,num_2,32,num_4,0.950131022255,,,2017_Mar_16_1707,60.0137051666,MAFE4ImagesEEG,001,100072,
AFNE01.JPG,AFNE01.JPG,AFNE01.JPG,AFNE01.JPG,AFNE01.JPG,AFNE01.JPG,,,,,2,5,25,1,,,,,,,,,,,,,,,,,,,AFNE06.jpg,AFSA12.jpg,AFNE16.jpg,AFSA08.jpg,AFNE06.jpg,FN,3,num_8,16,num_8,1.23341854324,,,2017_Mar_16_1707,60.0137051666,MAFE4ImagesEEG,001,100072,
AFNE01.JPG,AFNE01.JPG,AFNE01.JPG,AFNE01.JPG,AFNE01.JPG,AFNE01.JPG,,,,,2,6,26,5,,,,,,,,,,,,,,,,,,,AFSA12.jpg,AFSA09.jpg,AFNE15.jpg,AFNE03.jpg,AFSA12.jpg,FS,4,num_8,16,num_8,1.65007457207,,,2017_Mar_16_1707,60.0137051666,MAFE4ImagesEEG,001,100072,
AFNE01.JPG,AFNE01.JPG,AFNE01.JPG,AFNE01.JPG,AFNE01.JPG,AFNE01.JPG,,,,,2,7,27,6,,,,,,,,,,,,,,,,,,,AFSA04.jpg,AFNE01.jpg,AFSA11.jpg,AFNE12.jpg,AFNE12.jpg,FN,3,num_4,32,num_8,0.816801324021,,,2017_Mar_16_1707,60.0137051666,MAFE4ImagesEEG,001,100072,
AFNE01.JPG,AFNE01.JPG,AFNE01.JPG,AFNE01.JPG,AFNE01.JPG,AFNE01.JPG,,,,,2,8,28,4,,,,,,,,,,,,,,,,,,,AFSA17.jpg,AFSA11.jpg,AFNE06.jpg,AFNE12.jpg,AFSA17.jpg,FS,4,num_8,16,num_8,1.08343249548,,,2017_Mar_16_1707,60.0137051666,MAFE4ImagesEEG,001,100072,
AFNE01.JPG,AFNE01.JPG,AFNE01.JPG,AFNE01.JPG,AFNE01.JPG,AFNE01.JPG,,,,,2,9,29,9,,,,,,,,,,,,,,,,,,,AFSA12.jpg,AFNE11.jpg,AFNE20.jpg,AFSA15.jpg,AFNE11.jpg,FN,3,num_6,32,num_8,1.56674310961,,,2017_Mar_16_1707,60.0137051666,MAFE4ImagesEEG,001,100072,
AFNE01.JPG,AFNE01.JPG,AFNE01.JPG,AFNE01.JPG,AFNE01.JPG,AFNE01.JPG,,,,,3,0,30,2,,,,,,,,,,,,,,,,,,,AFSA10.jpg,AFNE04.jpg,AFNE18.jpg,AFSA01.jpg,AFSA01.jpg,FS,4,num_4,32,num_8,1.55006944016,,,2017_Mar_16_1707,60.0137051666,MAFE4ImagesEEG,001,100072,
AFNE01.JPG,AFNE01.JPG,AFNE01.JPG,AFNE01.JPG,AFNE01.JPG,AFNE01.JPG,,,,,3,1,31,5,,,,,,,,,,,,,,,,,,,AFSA06.jpg,AFNE12.jpg,AFNE18.jpg,AFSA03.jpg,AFSA03.jpg,FS,4,num_4,32,num_8,1.40005933691,,,2017_Mar_16_1707,60.0137051666,MAFE4ImagesEEG,001,100072,
AFNE01.JPG,AFNE01.JPG,AFNE01.JPG,AFNE01.JPG,AFNE01.JPG,AFNE01.JPG,,,,,3,2,32,9,,,,,,,,,,,,,,,,,,,AFNE02.jpg,AFSA14.jpg,AFSA11.jpg,AFNE03.jpg,AFSA14.jpg,FS,4,num_6,32,num_4,1.50002854597,,,2017_Mar_16_1707,60.0137051666,MAFE4ImagesEEG,001,100072,
AFNE01.JPG,AFNE01.JPG,AFNE01.JPG,AFNE01.JPG,AFNE01.JPG,AFNE01.JPG,,,,,3,3,33,8,,,,,,,,,,,,,,,,,,,AFSA02.jpg,AFSA18.jpg,AFNE10.jpg,AFNE05.jpg,AFSA18.jpg,FS,4,num_6,16,num_6,0.65015828528,,,2017_Mar_16_1707,60.0137051666,MAFE4ImagesEEG,001,100072,
AFNE01.JPG,AFNE01.JPG,AFNE01.JPG,AFNE01.JPG,AFNE01.JPG,AFNE01.JPG,,,,,3,4,34,3,,,,,,,,,,,,,,,,,,,AFSA13.jpg,AFSA01.jpg,AFNE05.jpg,AFNE11.jpg,AFSA01.jpg,FS,4,num_6,32,num_8,2.23337652639,,,2017_Mar_16_1707,60.0137051666,MAFE4ImagesEEG,001,100072,
AFNE01.JPG,AFNE01.JPG,AFNE01.JPG,AFNE01.JPG,AFNE01.JPG,AFNE01.JPG,,,,,3,5,35,4,,,,,,,,,,,,,,,,,,,AFNE09.jpg,AFSA14.jpg,AFNE02.jpg,AFSA17.jpg,AFSA17.jpg,FS,4,num_4,32,num_8,1.25011209853,,,2017_Mar_16_1707,60.0137051666,MAFE4ImagesEEG,001,100072,
AFNE01.JPG,AFNE01.JPG,AFNE01.JPG,AFNE01.JPG,AFNE01.JPG,AFNE01.JPG,,,,,3,6,36,0,,,,,,,,,,,,,,,,,,,AFSA11.jpg,AFNE03.jpg,AFSA20.jpg,AFNE15.jpg,AFSA11.jpg,FS,4,num_8,16,num_8,1.11681094614,,,2017_Mar_16_1707,60.0137051666,MAFE4ImagesEEG,001,100072,
AFNE01.JPG,AFNE01.JPG,AFNE01.JPG,AFNE01.JPG,AFNE01.JPG,AFNE01.JPG,,,,,3,7,37,1,,,,,,,,,,,,,,,,,,,AFNE02.jpg,AFNE04.jpg,AFSA10.jpg,AFSA20.jpg,AFNE04.jpg,FN,3,num_6,32,num_8,1.70005580888,,,2017_Mar_16_1707,60.0137051666,MAFE4ImagesEEG,001,100072,
AFNE01.JPG,AFNE01.JPG,AFNE01.JPG,AFNE01.JPG,AFNE01.JPG,AFNE01.JPG,,,,,3,8,38,7,,,,,,,,,,,,,,,,,,,AFNE17.jpg,AFNE08.jpg,AFSA08.jpg,AFSA18.jpg,AFNE17.jpg,FN,3,num_8,32,num_6,1.63339288405,,,2017_Mar_16_1707,60.0137051666,MAFE4ImagesEEG,001,100072,
AFNE01.JPG,AFNE01.JPG,AFNE01.JPG,AFNE01.JPG,AFNE01.JPG,AFNE01.JPG,,,,,3,9,39,6,,,,,,,,,,,,,,,,,,,AFNE04.jpg,AFSA03.jpg,AFSA19.jpg,AFNE15.jpg,AFNE15.jpg,FN,3,num_4,16,num_4,1.48339400673,,,2017_Mar_16_1707,60.0137051666,MAFE4ImagesEEG,001,100072,
AFNE01.JPG,AFNE01.JPG,AFNE01.JPG,AFNE01.JPG,AFNE01.JPG,AFNE01.JPG,,,,,4,0,40,1,,,,,,,,,,,,,,,,,,,AFSA10.jpg,AFNE17.jpg,AFSA08.jpg,AFNE07.jpg,AFNE07.jpg,FN,3,num_4,16,num_4,0.966758505325,,,2017_Mar_16_1707,60.0137051666,MAFE4ImagesEEG,001,100072,
AFNE01.JPG,AFNE01.JPG,AFNE01.JPG,AFNE01.JPG,AFNE01.JPG,AFNE01.JPG,,,,,4,1,41,2,,,,,,,,,,,,,,,,,,,AFSA01.jpg,AFSA13.jpg,AFNE13.jpg,AFNE17.jpg,AFSA01.jpg,FS,4,num_8,16,num_8,1.90006767609,,,2017_Mar_16_1707,60.0137051666,MAFE4ImagesEEG,001,100072,
AFNE01.JPG,AFNE01.JPG,AFNE01.JPG,AFNE01.JPG,AFNE01.JPG,AFNE01.JPG,,,,,4,2,42,4,,,,,,,,,,,,,,,,,,,AFSA11.jpg,AFNE20.jpg,AFSA13.jpg,AFNE12.jpg,AFSA13.jpg,FS,4,num_2,32,num_8,0.950009461842,,,2017_Mar_16_1707,60.0137051666,MAFE4ImagesEEG,001,100072,
AFNE01.JPG,AFNE01.JPG,AFNE01.JPG,AFNE01.JPG,AFNE01.JPG,AFNE01.JPG,,,,,4,3,43,9,,,,,,,,,,,,,,,,,,,AFNE01.jpg,AFSA18.jpg,AFSA03.jpg,AFNE08.jpg,AFSA18.jpg,FS,4,num_6,16,num_6,0.966743430472,,,2017_Mar_16_1707,60.0137051666,MAFE4ImagesEEG,001,100072,
AFNE01.JPG,AFNE01.JPG,AFNE01.JPG,AFNE01.JPG,AFNE01.JPG,AFNE01.JPG,,,,,4,4,44,3,,,,,,,,,,,,,,,,,,,AFSA09.jpg,AFNE01.jpg,AFSA19.jpg,AFNE14.jpg,AFSA09.jpg,FS,4,num_8,16,num_8,1.58347130497,,,2017_Mar_16_1707,60.0137051666,MAFE4ImagesEEG,001,100072,
AFNE01.JPG,AFNE01.JPG,AFNE01.JPG,AFNE01.JPG,AFNE01.JPG,AFNE01.JPG,,,,,4,5,45,6,,,,,,,,,,,,,,,,,,,AFNE19.jpg,AFNE18.jpg,AFSA10.jpg,AFSA11.jpg,AFSA10.jpg,FS,4,num_2,32,num_6,1.85006302537,,,2017_Mar_16_1707,60.0137051666,MAFE4ImagesEEG,001,100072,
AFNE01.JPG,AFNE01.JPG,AFNE01.JPG,AFNE01.JPG,AFNE01.JPG,AFNE01.JPG,,,,,4,6,46,5,,,,,,,,,,,,,,,,,,,AFSA07.jpg,AFSA02.jpg,AFNE20.jpg,AFNE04.jpg,AFNE20.jpg,FN,3,num_2,32,num_8,1.60009205237,,,2017_Mar_16_1707,60.0137051666,MAFE4ImagesEEG,001,100072,
AFNE01.JPG,AFNE01.JPG,AFNE01.JPG,AFNE01.JPG,AFNE01.JPG,AFNE01.JPG,,,,,4,7,47,7,,,,,,,,,,,,,,,,,,,AFSA15.jpg,AFNE10.jpg,AFSA04.jpg,AFNE20.jpg,AFSA04.jpg,FS,4,num_2,16,num_2,0.666803088156,,,2017_Mar_16_1707,60.0137051666,MAFE4ImagesEEG,001,100072,
AFNE01.JPG,AFNE01.JPG,AFNE01.JPG,AFNE01.JPG,AFNE01.JPG,AFNE01.JPG,,,,,4,8,48,0,,,,,,,,,,,,,,,,,,,AFNE01.jpg,AFSA01.jpg,AFSA17.jpg,AFNE17.jpg,AFSA01.jpg,FS,4,num_6,32,num_8,1.31674070412,,,2017_Mar_16_1707,60.0137051666,MAFE4ImagesEEG,001,100072,
AFNE01.JPG,AFNE01.JPG,AFNE01.JPG,AFNE01.JPG,AFNE01.JPG,AFNE01.JPG,,,,,4,9,49,8,,,,,,,,,,,,,,,,,,,AFNE17.jpg,AFNE07.jpg,AFSA03.jpg,AFSA20.jpg,AFNE17.jpg,FN,3,num_8,16,num_8,1.48351300124,,,2017_Mar_16_1707,60.0137051666,MAFE4ImagesEEG,001,100072,
AFNE01.JPG,AFNE01.JPG,AFNE01.JPG,AFNE01.JPG,AFNE01.JPG,AFNE01.JPG,,,,,5,0,50,0,,,,,,,,,,,,,,,,,,,AFNE17.jpg,AFSA05.jpg,AFSA20.jpg,AFNE05.jpg,AFSA05.jpg,FS,4,num_6,16,num_6,2.21636960795,,,2017_Mar_16_1707,60.0137051666,MAFE4ImagesEEG,001,100072,
AFNE01.JPG,AFNE01.JPG,AFNE01.JPG,AFNE01.JPG,AFNE01.JPG,AFNE01.JPG,,,,,5,1,51,4,,,,,,,,,,,,,,,,,,,AFSA04.jpg,AFNE12.jpg,AFNE11.jpg,AFSA18.jpg,AFNE12.jpg,FN,3,num_6,16,num_6,0.766770051792,,,2017_Mar_16_1707,60.0137051666,MAFE4ImagesEEG,001,100072,
AFNE01.JPG,AFNE01.JPG,AFNE01.JPG,AFNE01.JPG,AFNE01.JPG,AFNE01.JPG,,,,,5,2,52,6,,,,,,,,,,,,,,,,,,,AFSA13.jpg,AFSA17.jpg,AFNE15.jpg,AFNE03.jpg,AFNE15.jpg,FN,3,num_2,16,num_2,0.68350690708,,,2017_Mar_16_1707,60.0137051666,MAFE4ImagesEEG,001,100072,
AFNE01.JPG,AFNE01.JPG,AFNE01.JPG,AFNE01.JPG,AFNE01.JPG,AFNE01.JPG,,,,,5,3,53,8,,,,,,,,,,,,,,,,,,,AFSA19.jpg,AFNE04.jpg,AFNE15.jpg,AFSA14.jpg,AFSA14.jpg,FS,4,num_4,16,num_4,1.16675946745,,,2017_Mar_16_1707,60.0137051666,MAFE4ImagesEEG,001,100072,
AFNE01.JPG,AFNE01.JPG,AFNE01.JPG,AFNE01.JPG,AFNE01.JPG,AFNE01.JPG,,,,,5,4,54,5,,,,,,,,,,,,,,,,,,,AFNE13.jpg,AFNE18.jpg,AFSA12.jpg,AFSA13.jpg,AFSA12.jpg,FS,4,num_2,16,num_2,0.616795550683,,,2017_Mar_16_1707,60.0137051666,MAFE4ImagesEEG,001,100072,
AFNE01.JPG,AFNE01.JPG,AFNE01.JPG,AFNE01.JPG,AFNE01.JPG,AFNE01.JPG,,,,,5,5,55,1,,,,,,,,,,,,,,,,,,,AFNE15.jpg,AFSA19.jpg,AFNE09.jpg,AFSA11.jpg,AFSA19.jpg,FS,4,num_6,16,num_6,1.13346954098,,,2017_Mar_16_1707,60.0137051666,MAFE4ImagesEEG,001,100072,
AFNE01.JPG,AFNE01.JPG,AFNE01.JPG,AFNE01.JPG,AFNE01.JPG,AFNE01.JPG,,,,,5,6,56,2,,,,,,,,,,,,,,,,,,,AFSA06.jpg,AFNE15.jpg,AFSA14.jpg,AFNE20.jpg,AFNE20.jpg,FN,3,num_4,16,num_4,1.13346120168,,,2017_Mar_16_1707,60.0137051666,MAFE4ImagesEEG,001,100072,
AFNE01.JPG,AFNE01.JPG,AFNE01.JPG,AFNE01.JPG,AFNE01.JPG,AFNE01.JPG,,,,,5,7,57,9,,,,,,,,,,,,,,,,,,,AFNE18.jpg,AFNE20.jpg,AFSA02.jpg,AFSA06.jpg,AFSA02.jpg,FS,4,num_2,16,num_2,1.18343025027,,,2017_Mar_16_1707,60.0137051666,MAFE4ImagesEEG,001,100072,
AFNE01.JPG,AFNE01.JPG,AFNE01.JPG,AFNE01.JPG,AFNE01.JPG,AFNE01.JPG,,,,,5,8,58,7,,,,,,,,,,,,,,,,,,,AFNE10.jpg,AFSA05.jpg,AFSA17.jpg,AFNE11.jpg,AFNE10.jpg,FN,3,num_8,16,num_8,0.900104882079,,,2017_Mar_16_1707,60.0137051666,MAFE4ImagesEEG,001,100072,
AFNE01.JPG,AFNE01.JPG,AFNE01.JPG,AFNE01.JPG,AFNE01.JPG,AFNE01.JPG,,,,,5,9,59,3,,,,,,,,,,,,,,,,,,,AFNE08.jpg,AFSA06.jpg,AFSA02.jpg,AFNE07.jpg,AFNE08.jpg,FN,3,num_8,16,num_8,0.783474833122,,,2017_Mar_16_1707,60.0137051666,MAFE4ImagesEEG,001,100072,
,,,,,,,,,,,,,,,,,,,,,,,,,,,,,,,,,,,,,,,,,,,space,5.78322241083,2017_Mar_16_1707,60.0137051666,MAFE4ImagesEEG,001,100072,
AFNE01.JPG,AFNE01.JPG,AFNE01.JPG,AFNE01.JPG,AFNE01.JPG,AFNE01.JPG,,,,,,,,,0,0,0,8,,,,,,,,,,,,,,,AMNE01.jpg,AMSA12.jpg,AMNE17.jpg,AMSA02.jpg,AMNE17.jpg,MN,1,num_2,16,num_2,0.900100391591,,,2017_Mar_16_1707,60.0137051666,MAFE4ImagesEEG,001,100072,
AFNE01.JPG,AFNE01.JPG,AFNE01.JPG,AFNE01.JPG,AFNE01.JPG,AFNE01.JPG,,,,,,,,,0,1,1,4,,,,,,,,,,,,,,,AMSA02.jpg,AMSA20.jpg,AMNE16.jpg,AMNE04.jpg,AMSA02.jpg,MS,2,num_8,32,num_4,2.31669612124,,,2017_Mar_16_1707,60.0137051666,MAFE4ImagesEEG,001,100072,
AFNE01.JPG,AFNE01.JPG,AFNE01.JPG,AFNE01.JPG,AFNE01.JPG,AFNE01.JPG,,,,,,,,,0,2,2,0,,,,,,,,,,,,,,,AMSA12.jpg,AMNE16.jpg,AMNE05.jpg,AMSA10.jpg,AMSA10.jpg,MS,2,num_4,32,num_8,1.18343057099,,,2017_Mar_16_1707,60.0137051666,MAFE4ImagesEEG,001,100072,
AFNE01.JPG,AFNE01.JPG,AFNE01.JPG,AFNE01.JPG,AFNE01.JPG,AFNE01.JPG,,,,,,,,,0,3,3,5,,,,,,,,,,,,,,,AMSA04.jpg,AMSA15.jpg,AMNE10.jpg,AMNE12.jpg,AMSA04.jpg,MS,2,num_8,32,num_6,1.38342575985,,,2017_Mar_16_1707,60.0137051666,MAFE4ImagesEEG,001,100072,
AFNE01.JPG,AFNE01.JPG,AFNE01.JPG,AFNE01.JPG,AFNE01.JPG,AFNE01.JPG,,,,,,,,,0,4,4,2,,,,,,,,,,,,,,,AMNE19.jpg,AMSA01.jpg,AMNE13.jpg,AMSA14.jpg,AMSA01.jpg,MS,2,num_6,32,num_4,1.80003303615,,,2017_Mar_16_1707,60.0137051666,MAFE4ImagesEEG,001,100072,
AFNE01.JPG,AFNE01.JPG,AFNE01.JPG,AFNE01.JPG,AFNE01.JPG,AFNE01.JPG,,,,,,,,,0,5,5,1,,,,,,,,,,,,,,,AMNE02.jpg,AMNE14.jpg,AMSA10.jpg,AMSA09.jpg,AMNE02.jpg,MN,1,num_8,32,num_2,1.95008515648,,,2017_Mar_16_1707,60.0137051666,MAFE4ImagesEEG,001,100072,
AFNE01.JPG,AFNE01.JPG,AFNE01.JPG,AFNE01.JPG,AFNE01.JPG,AFNE01.JPG,,,,,,,,,0,6,6,6,,,,,,,,,,,,,,,AMSA11.jpg,AMSA18.jpg,AMNE19.jpg,AMNE13.jpg,AMSA11.jpg,MS,2,num_8,16,num_8,1.56673926092,,,2017_Mar_16_1707,60.0137051666,MAFE4ImagesEEG,001,100072,
AFNE01.JPG,AFNE01.JPG,AFNE01.JPG,AFNE01.JPG,AFNE01.JPG,AFNE01.JPG,,,,,,,,,0,7,7,9,,,,,,,,,,,,,,,AMNE16.jpg,AMSA02.jpg,AMNE19.jpg,AMSA14.jpg,AMNE19.jpg,MN,1,num_2,32,num_4,2.06675337336,,,2017_Mar_16_1707,60.0137051666,MAFE4ImagesEEG,001,100072,
AFNE01.JPG,AFNE01.JPG,AFNE01.JPG,AFNE01.JPG,AFNE01.JPG,AFNE01.JPG,,,,,,,,,0,8,8,3,,,,,,,,,,,,,,,AMSA14.jpg,AMNE19.jpg,AMSA02.jpg,AMNE11.jpg,AMSA14.jpg,MS,2,num_8,16,num_8,1.70008531678,,,2017_Mar_16_1707,60.0137051666,MAFE4ImagesEEG,001,100072,
AFNE01.JPG,AFNE01.JPG,AFNE01.JPG,AFNE01.JPG,AFNE01.JPG,AFNE01.JPG,,,,,,,,,0,9,9,7,,,,,,,,,,,,,,,AMSA06.jpg,AMNE06.jpg,AMSA16.jpg,AMNE12.jpg,AMSA16.jpg,MS,2,num_2,32,num_6,1.91631893103,,,2017_Mar_16_1707,60.0137051666,MAFE4ImagesEEG,001,100072,
AFNE01.JPG,AFNE01.JPG,AFNE01.JPG,AFNE01.JPG,AFNE01.JPG,AFNE01.JPG,,,,,,,,,1,0,10,9,,,,,,,,,,,,,,,AMNE13.jpg,AMNE10.jpg,AMSA10.jpg,AMSA15.jpg,AMSA10.jpg,MS,2,num_2,16,num_2,1.51662106812,,,2017_Mar_16_1707,60.0137051666,MAFE4ImagesEEG,001,100072,
AFNE01.JPG,AFNE01.JPG,AFNE01.JPG,AFNE01.JPG,AFNE01.JPG,AFNE01.JPG,,,,,,,,,1,1,11,6,,,,,,,,,,,,,,,AMNE10.jpg,AMNE19.jpg,AMSA19.jpg,AMSA10.jpg,AMNE19.jpg,MN,1,num_6,32,num_8,2.33343265578,,,2017_Mar_16_1707,60.0137051666,MAFE4ImagesEEG,001,100072,
AFNE01.JPG,AFNE01.JPG,AFNE01.JPG,AFNE01.JPG,AFNE01.JPG,AFNE01.JPG,,,,,,,,,1,2,12,8,,,,,,,,,,,,,,,AMSA11.jpg,AMSA16.jpg,AMNE02.jpg,AMNE08.jpg,AMSA11.jpg,MS,2,num_8,16,num_8,0.93343458022,,,2017_Mar_16_1707,60.0137051666,MAFE4ImagesEEG,001,100072,
AFNE01.JPG,AFNE01.JPG,AFNE01.JPG,AFNE01.JPG,AFNE01.JPG,AFNE01.JPG,,,,,,,,,1,3,13,1,,,,,,,,,,,,,,,AMSA08.jpg,AMNE19.jpg,AMSA10.jpg,AMNE20.jpg,AMSA08.jpg,MS,2,num_8,32,num_4,1.45005500689,,,2017_Mar_16_1707,60.0137051666,MAFE4ImagesEEG,001,100072,
AFNE01.JPG,AFNE01.JPG,AFNE01.JPG,AFNE01.JPG,AFNE01.JPG,AFNE01.JPG,,,,,,,,,1,4,14,5,,,,,,,,,,,,,,,AMNE05.jpg,AMNE18.jpg,AMSA09.jpg,AMSA04.jpg,AMSA04.jpg,MS,2,num_4,16,num_4,1.38345623028,,,2017_Mar_16_1707,60.0137051666,MAFE4ImagesEEG,001,100072,
AFNE01.JPG,AFNE01.JPG,AFNE01.JPG,AFNE01.JPG,AFNE01.JPG,AFNE01.JPG,,,,,,,,,1,5,15,2,,,,,,,,,,,,,,,AMSA12.jpg,AMNE16.jpg,AMSA19.jpg,AMNE09.jpg,AMNE16.jpg,MN,1,num_6,16,num_6,1.00013182417,,,2017_Mar_16_1707,60.0137051666,MAFE4ImagesEEG,001,100072,
AFNE01.JPG,AFNE01.JPG,AFNE01.JPG,AFNE01.JPG,AFNE01.JPG,AFNE01.JPG,,,,,,,,,1,6,16,0,,,,,,,,,,,,,,,AMSA09.jpg,AMSA05.jpg,AMNE08.jpg,AMNE19.jpg,AMNE08.jpg,MN,1,num_2,32,num_8,1.28339496884,,,2017_Mar_16_1707,60.0137051666,MAFE4ImagesEEG,001,100072,
AFNE01.JPG,AFNE01.JPG,AFNE01.JPG,AFNE01.JPG,AFNE01.JPG,AFNE01.JPG,,,,,,,,,1,7,17,7,,,,,,,,,,,,,,,AMNE12.jpg,AMNE19.jpg,AMSA15.jpg,AMSA17.jpg,AMNE12.jpg,MN,1,num_8,32,num_4,1.98337572441,,,2017_Mar_16_1707,60.0137051666,MAFE4ImagesEEG,001,100072,
AFNE01.JPG,AFNE01.JPG,AFNE01.JPG,AFNE01.JPG,AFNE01.JPG,AFNE01.JPG,,,,,,,,,1,8,18,3,,,,,,,,,,,,,,,AMNE02.jpg,AMSA01.jpg,AMNE10.jpg,AMSA06.jpg,AMSA06.jpg,MS,2,num_4,32,num_2,1.20011386275,,,2017_Mar_16_1707,60.0137051666,MAFE4ImagesEEG,001,100072,
AFNE01.JPG,AFNE01.JPG,AFNE01.JPG,AFNE01.JPG,AFNE01.JPG,AFNE01.JPG,,,,,,,,,1,9,19,4,,,,,,,,,,,,,,,AMSA07.jpg,AMSA20.jpg,AMNE12.jpg,AMNE09.jpg,AMSA20.jpg,MS,2,num_6,16,num_6,0.816793626291,,,2017_Mar_16_1707,60.0137051666,MAFE4ImagesEEG,001,100072,
AFNE01.JPG,AFNE01.JPG,AFNE01.JPG,AFNE01.JPG,AFNE01.JPG,AFNE01.JPG,,,,,,,,,2,0,20,0,,,,,,,,,,,,,,,AMSA16.jpg,AMNE01.jpg,AMSA19.jpg,AMNE13.jpg,AMNE01.jpg,MN,1,num_6,16,num_6,0.900124447071,,,2017_Mar_16_1707,60.0137051666,MAFE4ImagesEEG,001,100072,
AFNE01.JPG,AFNE01.JPG,AFNE01.JPG,AFNE01.JPG,AFNE01.JPG,AFNE01.JPG,,,,,,,,,2,1,21,9,,,,,,,,,,,,,,,AMNE07.jpg,AMNE15.jpg,AMSA13.jpg,AMSA02.jpg,AMNE07.jpg,MN,1,num_8,16,num_8,1.11677887221,,,2017_Mar_16_1707,60.0137051666,MAFE4ImagesEEG,001,100072,
AFNE01.JPG,AFNE01.JPG,AFNE01.JPG,AFNE01.JPG,AFNE01.JPG,AFNE01.JPG,,,,,,,,,2,2,22,7,,,,,,,,,,,,,,,AMNE01.jpg,AMNE08.jpg,AMSA18.jpg,AMSA06.jpg,AMNE01.jpg,MN,1,num_8,16,num_8,1.70008146798,,,2017_Mar_16_1707,60.0137051666,MAFE4ImagesEEG,001,100072,
AFNE01.JPG,AFNE01.JPG,AFNE01.JPG,AFNE01.JPG,AFNE01.JPG,AFNE01.JPG,,,,,,,,,2,3,23,6,,,,,,,,,,,,,,,AMNE04.jpg,AMNE10.jpg,AMSA18.jpg,AMSA19.jpg,AMNE04.jpg,MN,1,num_8,16,num_8,1.61671825231,,,2017_Mar_16_1707,60.0137051666,MAFE4ImagesEEG,001,100072,
AFNE01.JPG,AFNE01.JPG,AFNE01.JPG,AFNE01.JPG,AFNE01.JPG,AFNE01.JPG,,,,,,,,,2,4,24,3,,,,,,,,,,,,,,,AMNE01.jpg,AMSA18.jpg,AMSA20.jpg,AMNE06.jpg,AMNE01.jpg,MN,1,num_8,16,num_8,0.683491832344,,,2017_Mar_16_1707,60.0137051666,MAFE4ImagesEEG,001,100072,
AFNE01.JPG,AFNE01.JPG,AFNE01.JPG,AFNE01.JPG,AFNE01.JPG,AFNE01.JPG,,,,,,,,,2,5,25,1,,,,,,,,,,,,,,,AMSA09.jpg,AMNE20.jpg,AMNE13.jpg,AMSA06.jpg,AMSA09.jpg,MS,2,num_8,16,num_8,1.61670991313,,,2017_Mar_16_1707,60.0137051666,MAFE4ImagesEEG,001,100072,
AFNE01.JPG,AFNE01.JPG,AFNE01.JPG,AFNE01.JPG,AFNE01.JPG,AFNE01.JPG,,,,,,,,,2,6,26,5,,,,,,,,,,,,,,,AMSA07.jpg,AMNE18.jpg,AMSA18.jpg,AMNE08.jpg,AMSA07.jpg,MS,2,num_8,32,num_6,1.85005693138,,,2017_Mar_16_1707,60.0137051666,MAFE4ImagesEEG,001,100072,
AFNE01.JPG,AFNE01.JPG,AFNE01.JPG,AFNE01.JPG,AFNE01.JPG,AFNE01.JPG,,,,,,,,,2,7,27,2,,,,,,,,,,,,,,,AMSA18.jpg,AMNE06.jpg,AMSA03.jpg,AMNE03.jpg,AMNE06.jpg,MN,1,num_6,16,num_6,0.600127333775,,,2017_Mar_16_1707,60.0137051666,MAFE4ImagesEEG,001,100072,
AFNE01.JPG,AFNE01.JPG,AFNE01.JPG,AFNE01.JPG,AFNE01.JPG,AFNE01.JPG,,,,,,,,,2,8,28,8,,,,,,,,,,,,,,,AMNE04.jpg,AMSA02.jpg,AMNE20.jpg,AMSA14.jpg,AMSA02.jpg,MS,2,num_6,32,num_8,1.48343121249,,,2017_Mar_16_1707,60.0137051666,MAFE4ImagesEEG,001,100072,
AFNE01.JPG,AFNE01.JPG,AFNE01.JPG,AFNE01.JPG,AFNE01.JPG,AFNE01.JPG,,,,,,,,,2,9,29,4,,,,,,,,,,,,,,,AMNE14.jpg,AMNE13.jpg,AMSA11.jpg,AMSA03.jpg,AMNE14.jpg,MN,1,num_8,16,num_8,0.683478040621,,,2017_Mar_16_1707,60.0137051666,MAFE4ImagesEEG,001,100072,
AFNE01.JPG,AFNE01.JPG,AFNE01.JPG,AFNE01.JPG,AFNE01.JPG,AFNE01.JPG,,,,,,,,,3,0,30,6,,,,,,,,,,,,,,,AMSA07.jpg,AMSA04.jpg,AMNE09.jpg,AMNE10.jpg,AMNE09.jpg,MN,1,num_2,32,num_4,1.05010087264,,,2017_Mar_16_1707,60.0137051666,MAFE4ImagesEEG,001,100072,
AFNE01.JPG,AFNE01.JPG,AFNE01.JPG,AFNE01.JPG,AFNE01.JPG,AFNE01.JPG,,,,,,,,,3,1,31,7,,,,,,,,,,,,,,,AMNE02.jpg,AMSA01.jpg,AMSA10.jpg,AMNE06.jpg,AMSA10.jpg,MS,2,num_2,32,num_4,1.38333274529,,,2017_Mar_16_1707,60.0137051666,MAFE4ImagesEEG,001,100072,
AFNE01.JPG,AFNE01.JPG,AFNE01.JPG,AFNE01.JPG,AFNE01.JPG,AFNE01.JPG,,,,,,,,,3,2,32,4,,,,,,,,,,,,,,,AMSA14.jpg,AMNE17.jpg,AMSA05.jpg,AMNE10.jpg,AMSA05.jpg,MS,2,num_2,32,num_4,1.20039547246,,,2017_Mar_16_1707,60.0137051666,MAFE4ImagesEEG,001,100072,
AFNE01.JPG,AFNE01.JPG,AFNE01.JPG,AFNE01.JPG,AFNE01.JPG,AFNE01.JPG,,,,,,,,,3,3,33,2,,,,,,,,,,,,,,,AMNE15.jpg,AMNE11.jpg,AMSA09.jpg,AMSA16.jpg,AMSA09.jpg,MS,2,num_2,32,num_4,1.0666132099,,,2017_Mar_16_1707,60.0137051666,MAFE4ImagesEEG,001,100072,
AFNE01.JPG,AFNE01.JPG,AFNE01.JPG,AFNE01.JPG,AFNE01.JPG,AFNE01.JPG,,,,,,,,,3,4,34,5,,,,,,,,,,,,,,,AMSA04.jpg,AMNE01.jpg,AMNE05.jpg,AMSA06.jpg,AMNE01.jpg,MN,1,num_6,16,num_6,1.10017608618,,,2017_Mar_16_1707,60.0137051666,MAFE4ImagesEEG,001,100072,
AFNE01.JPG,AFNE01.JPG,AFNE01.JPG,AFNE01.JPG,AFNE01.JPG,AFNE01.JPG,,,,,,,,,3,5,35,8,,,,,,,,,,,,,,,AMSA14.jpg,AMNE19.jpg,AMSA10.jpg,AMNE15.jpg,AMNE15.jpg,MN,1,num_4,32,num_2,2.20004939404,,,2017_Mar_16_1707,60.0137051666,MAFE4ImagesEEG,001,100072,
AFNE01.JPG,AFNE01.JPG,AFNE01.JPG,AFNE01.JPG,AFNE01.JPG,AFNE01.JPG,,,,,,,,,3,6,36,0,,,,,,,,,,,,,,,AMSA05.jpg,AMNE20.jpg,AMNE04.jpg,AMSA10.jpg,AMNE20.jpg,MN,1,num_6,16,num_6,1.16677967412,,,2017_Mar_16_1707,60.0137051666,MAFE4ImagesEEG,001,100072,
AFNE01.JPG,AFNE01.JPG,AFNE01.JPG,AFNE01.JPG,AFNE01.JPG,AFNE01.JPG,,,,,,,,,3,7,37,9,,,,,,,,,,,,,,,AMNE01.jpg,AMNE04.jpg,AMSA08.jpg,AMSA19.jpg,AMSA08.jpg,MS,2,num_2,16,num_2,1.03330564278,,,2017_Mar_16_1707,60.0137051666,MAFE4ImagesEEG,001,100072,
AFNE01.JPG,AFNE01.JPG,AFNE01.JPG,AFNE01.JPG,AFNE01.JPG,AFNE01.JPG,,,,,,,,,3,8,38,1,,,,,,,,,,,,,,,AMNE20.jpg,AMNE17.jpg,AMSA10.jpg,AMSA16.jpg,AMSA16.jpg,MS,2,num_4,32,num_2,1.9334246373,,,2017_Mar_16_1707,60.0137051666,MAFE4ImagesEEG,001,100072,
AFNE01.JPG,AFNE01.JPG,AFNE01.JPG,AFNE01.JPG,AFNE01.JPG,AFNE01.JPG,,,,,,,,,3,9,39,3,,,,,,,,,,,,,,,AMSA10.jpg,AMNE18.jpg,AMSA06.jpg,AMNE07.jpg,AMNE18.jpg,MN,1,num_6,32,num_8,1.63341918483,,,2017_Mar_16_1707,60.0137051666,MAFE4ImagesEEG,001,100072,
AFNE01.JPG,AFNE01.JPG,AFNE01.JPG,AFNE01.JPG,AFNE01.JPG,AFNE01.JPG,,,,,,,,,4,0,40,1,,,,,,,,,,,,,,,AMNE19.jpg,AMNE11.jpg,AMSA10.jpg,AMSA12.jpg,AMSA10.jpg,MS,2,num_2,16,num_2,2.26641787926,,,2017_Mar_16_1707,60.0137051666,MAFE4ImagesEEG,001,100072,
AFNE01.JPG,AFNE01.JPG,AFNE01.JPG,AFNE01.JPG,AFNE01.JPG,AFNE01.JPG,,,,,,,,,4,1,41,9,,,,,,,,,,,,,,,AMNE18.jpg,AMNE12.jpg,AMSA10.jpg,AMSA13.jpg,AMNE12.jpg,MN,1,num_6,32,num_8,1.23348525725,,,2017_Mar_16_1707,60.0137051666,MAFE4ImagesEEG,001,100072,
AFNE01.JPG,AFNE01.JPG,AFNE01.JPG,AFNE01.JPG,AFNE01.JPG,AFNE01.JPG,,,,,,,,,4,2,42,7,,,,,,,,,,,,,,,AMNE12.jpg,AMNE07.jpg,AMSA03.jpg,AMSA06.jpg,AMSA06.jpg,MS,2,num_4,32,num_6,1.56675337336,,,2017_Mar_16_1707,60.0137051666,MAFE4ImagesEEG,001,100072,
AFNE01.JPG,AFNE01.JPG,AFNE01.JPG,AFNE01.JPG,AFNE01.JPG,AFNE01.JPG,,,,,,,,,4,3,43,0,,,,,,,,,,,,,,,AMSA04.jpg,AMSA10.jpg,AMNE02.jpg,AMNE07.jpg,AMNE02.jpg,MN,1,num_2,16,num_2,1.26674182678,,,2017_Mar_16_1707,60.0137051666,MAFE4ImagesEEG,001,100072,
AFNE01.JPG,AFNE01.JPG,AFNE01.JPG,AFNE01.JPG,AFNE01.JPG,AFNE01.JPG,,,,,,,,,4,4,44,2,,,,,,,,,,,,,,,AMSA18.jpg,AMNE13.jpg,AMNE07.jpg,AMSA07.jpg,AMNE07.jpg,MN,1,num_2,32,num_4,1.73339929886,,,2017_Mar_16_1707,60.0137051666,MAFE4ImagesEEG,001,100072,
AFNE01.JPG,AFNE01.JPG,AFNE01.JPG,AFNE01.JPG,AFNE01.JPG,AFNE01.JPG,,,,,,,,,4,5,45,5,,,,,,,,,,,,,,,AMNE11.jpg,AMSA16.jpg,AMNE12.jpg,AMSA20.jpg,AMNE12.jpg,MN,1,num_2,32,num_6,1.50008627912,,,2017_Mar_16_1707,60.0137051666,MAFE4ImagesEEG,001,100072,
AFNE01.JPG,AFNE01.JPG,AFNE01.JPG,AFNE01.JPG,AFNE01.JPG,AFNE01.JPG,,,,,,,,,4,6,46,8,,,,,,,,,,,,,,,AMSA02.jpg,AMNE04.jpg,AMSA13.jpg,AMNE18.jpg,AMSA02.jpg,MS,2,num_8,32,num_6,1.95005885581,,,2017_Mar_16_1707,60.0137051666,MAFE4ImagesEEG,001,100072,
AFNE01.JPG,AFNE01.JPG,AFNE01.JPG,AFNE01.JPG,AFNE01.JPG,AFNE01.JPG,,,,,,,,,4,7,47,3,,,,,,,,,,,,,,,AMNE20.jpg,AMSA20.jpg,AMNE15.jpg,AMSA07.jpg,AMSA07.jpg,MS,2,num_4,16,num_4,1.23346472986,,,2017_Mar_16_1707,60.0137051666,MAFE4ImagesEEG,001,100072,
AFNE01.JPG,AFNE01.JPG,AFNE01.JPG,AFNE01.JPG,AFNE01.JPG,AFNE01.JPG,,,,,,,,,4,8,48,4,,,,,,,,,,,,,,,AMSA16.jpg,AMNE08.jpg,AMNE12.jpg,AMSA10.jpg,AMNE08.jpg,MN,1,num_6,16,num_6,0.550152191194,,,2017_Mar_16_1707,60.0137051666,MAFE4ImagesEEG,001,100072,
AFNE01.JPG,AFNE01.JPG,AFNE01.JPG,AFNE01.JPG,AFNE01.JPG,AFNE01.JPG,,,,,,,,,4,9,49,6,,,,,,,,,,,,,,,AMSA06.jpg,AMNE16.jpg,AMNE12.jpg,AMSA12.jpg,AMNE12.jpg,MN,1,num_2,32,num_8,1.51676283521,,,2017_Mar_16_1707,60.0137051666,MAFE4ImagesEEG,001,100072,
AFNE01.JPG,AFNE01.JPG,AFNE01.JPG,AFNE01.JPG,AFNE01.JPG,AFNE01.JPG,,,,,,,,,5,0,50,7,,,,,,,,,,,,,,,AMNE03.jpg,AMSA12.jpg,AMNE13.jpg,AMSA15.jpg,AMSA15.jpg,MS,2,num_4,16,num_4,0.683167243493,,,2017_Mar_16_1707,60.0137051666,MAFE4ImagesEEG,001,100072,
AFNE01.JPG,AFNE01.JPG,AFNE01.JPG,AFNE01.JPG,AFNE01.JPG,AFNE01.JPG,,,,,,,,,5,1,51,0,,,,,,,,,,,,,,,AMSA05.jpg,AMSA16.jpg,AMNE10.jpg,AMNE13.jpg,AMNE13.jpg,MN,1,num_4,32,num_2,1.18341453397,,,2017_Mar_16_1707,60.0137051666,MAFE4ImagesEEG,001,100072,
AFNE01.JPG,AFNE01.JPG,AFNE01.JPG,AFNE01.JPG,AFNE01.JPG,AFNE01.JPG,,,,,,,,,5,2,52,4,,,,,,,,,,,,,,,AMSA06.jpg,AMSA12.jpg,AMNE14.jpg,AMNE16.jpg,AMSA06.jpg,MS,2,num_8,16,num_8,1.13348589861,,,2017_Mar_16_1707,60.0137051666,MAFE4ImagesEEG,001,100072,
AFNE01.JPG,AFNE01.JPG,AFNE01.JPG,AFNE01.JPG,AFNE01.JPG,AFNE01.JPG,,,,,,,,,5,3,53,6,,,,,,,,,,,,,,,AMNE12.jpg,AMSA02.jpg,AMSA03.jpg,AMNE07.jpg,AMNE12.jpg,MN,1,num_8,32,num_4,1.28348221013,,,2017_Mar_16_1707,60.0137051666,MAFE4ImagesEEG,001,100072,
AFNE01.JPG,AFNE01.JPG,AFNE01.JPG,AFNE01.JPG,AFNE01.JPG,AFNE01.JPG,,,,,,,,,5,4,54,2,,,,,,,,,,,,,,,AMNE10.jpg,AMSA07.jpg,AMSA03.jpg,AMNE19.jpg,AMSA03.jpg,MS,2,num_2,16,num_2,1.60009397683,,,2017_Mar_16_1707,60.0137051666,MAFE4ImagesEEG,001,100072,
AFNE01.JPG,AFNE01.JPG,AFNE01.JPG,AFNE01.JPG,AFNE01.JPG,AFNE01.JPG,,,,,,,,,5,5,55,8,,,,,,,,,,,,,,,AMNE02.jpg,AMSA02.jpg,AMSA17.jpg,AMNE20.jpg,AMSA17.jpg,MS,2,num_2,32,num_4,1.21675353369,,,2017_Mar_16_1707,60.0137051666,MAFE4ImagesEEG,001,100072,
AFNE01.JPG,AFNE01.JPG,AFNE01.JPG,AFNE01.JPG,AFNE01.JPG,AFNE01.JPG,,,,,,,,,5,6,56,5,,,,,,,,,,,,,,,AMSA09.jpg,AMSA08.jpg,AMNE02.jpg,AMNE08.jpg,AMSA09.jpg,MS,2,num_8,16,num_8,0.900148823392,,,2017_Mar_16_1707,60.0137051666,MAFE4ImagesEEG,001,100072,
AFNE01.JPG,AFNE01.JPG,AFNE01.JPG,AFNE01.JPG,AFNE01.JPG,AFNE01.JPG,,,,,,,,,5,7,57,9,,,,,,,,,,,,,,,AMNE03.jpg,AMSA18.jpg,AMSA03.jpg,AMNE13.jpg,AMNE03.jpg,MN,1,num_8,16,num_8,0.983422231744,,,2017_Mar_16_1707,60.0137051666,MAFE4ImagesEEG,001,100072,
AFNE01.JPG,AFNE01.JPG,AFNE01.JPG,AFNE01.JPG,AFNE01.JPG,AFNE01.JPG,,,,,,,,,5,8,58,1,,,,,,,,,,,,,,,AMNE17.jpg,AMSA04.jpg,AMNE10.jpg,AMSA10.jpg,AMSA10.jpg,MS,2,num_4,16,num_4,1.90007665684,,,2017_Mar_16_1707,60.0137051666,MAFE4ImagesEEG,001,100072,
AFNE01.JPG,AFNE01.JPG,AFNE01.JPG,AFNE01.JPG,AFNE01.JPG,AFNE01.JPG,,,,,,,,,5,9,59,3,,,,,,,,,,,,,,,AMNE15.jpg,AMNE12.jpg,AMSA02.jpg,AMSA13.jpg,AMNE15.jpg,MN,1,num_8,16,num_8,1.86670141341,,,2017_Mar_16_1707,60.0137051666,MAFE4ImagesEEG,001,100072,
,,,,,,,,,,,,,,,,,,,,,,,,,,,,,,,,,,,,,,,,,,,space,5.36641146452,2017_Mar_16_1707,60.0137051666,MAFE4ImagesEEG,001,100072,
AFNE01.JPG,AFNE01.JPG,AFNE01.JPG,AFNE01.JPG,AFNE01.JPG,AFNE01.JPG,,,,,,,,,,,,,0,0,0,1,,,,,,,,,,,AFSA13.jpg,AFNE16.jpg,AFNE08.jpg,AFSA03.jpg,AFSA03.jpg,FS,4,num_4,32,num_8,1.00007088354,,,2017_Mar_16_1707,60.0137051666,MAFE4ImagesEEG,001,100072,
AFNE01.JPG,AFNE01.JPG,AFNE01.JPG,AFNE01.JPG,AFNE01.JPG,AFNE01.JPG,,,,,,,,,,,,,0,1,1,2,,,,,,,,,,,AFSA07.jpg,AFNE09.jpg,AFSA08.jpg,AFNE04.jpg,AFNE09.jpg,FN,3,num_6,32,num_4,1.29994611559,,,2017_Mar_16_1707,60.0137051666,MAFE4ImagesEEG,001,100072,
AFNE01.JPG,AFNE01.JPG,AFNE01.JPG,AFNE01.JPG,AFNE01.JPG,AFNE01.JPG,,,,,,,,,,,,,0,2,2,5,,,,,,,,,,,AFSA11.jpg,AFNE16.jpg,AFNE19.jpg,AFSA04.jpg,AFSA11.jpg,FS,4,num_8,16,num_8,0.633482049801,,,2017_Mar_16_1707,60.0137051666,MAFE4ImagesEEG,001,100072,
AFNE01.JPG,AFNE01.JPG,AFNE01.JPG,AFNE01.JPG,AFNE01.JPG,AFNE01.JPG,,,,,,,,,,,,,0,3,3,3,,,,,,,,,,,AFNE03.jpg,AFSA16.jpg,AFNE06.jpg,AFSA01.jpg,AFNE03.jpg,FN,3,num_8,32,num_2,1.9666722262,,,2017_Mar_16_1707,60.0137051666,MAFE4ImagesEEG,001,100072,
AFNE01.JPG,AFNE01.JPG,AFNE01.JPG,AFNE01.JPG,AFNE01.JPG,AFNE01.JPG,,,,,,,,,,,,,0,4,4,6,,,,,,,,,,,AFNE12.jpg,AFSA19.jpg,AFSA20.jpg,AFNE14.jpg,AFNE14.jpg,FN,3,num_4,16,num_4,2.36666260404,,,2017_Mar_16_1707,60.0137051666,MAFE4ImagesEEG,001,100072,
AFNE01.JPG,AFNE01.JPG,AFNE01.JPG,AFNE01.JPG,AFNE01.JPG,AFNE01.JPG,,,,,,,,,,,,,0,5,5,4,,,,,,,,,,,AFNE02.jpg,AFNE07.jpg,AFSA07.jpg,AFSA05.jpg,AFSA05.jpg,FS,4,num_4,32,num_2,0.933431052021,,,2017_Mar_16_1707,60.0137051666,MAFE4ImagesEEG,001,100072,
AFNE01.JPG,AFNE01.JPG,AFNE01.JPG,AFNE01.JPG,AFNE01.JPG,AFNE01.JPG,,,,,,,,,,,,,0,6,6,9,,,,,,,,,,,AFNE18.jpg,AFSA12.jpg,AFNE11.jpg,AFSA05.jpg,AFSA12.jpg,FS,4,num_6,32,num_2,1.85007617576,,,2017_Mar_16_1707,60.0137051666,MAFE4ImagesEEG,001,100072,
AFNE01.JPG,AFNE01.JPG,AFNE01.JPG,AFNE01.JPG,AFNE01.JPG,AFNE01.JPG,,,,,,,,,,,,,0,7,7,0,,,,,,,,,,,AFNE08.jpg,AFNE11.jpg,AFSA09.jpg,AFSA18.jpg,AFNE08.jpg,FN,3,num_8,16,num_8,1.36668569723,,,2017_Mar_16_1707,60.0137051666,MAFE4ImagesEEG,001,100072,
AFNE01.JPG,AFNE01.JPG,AFNE01.JPG,AFNE01.JPG,AFNE01.JPG,AFNE01.JPG,,,,,,,,,,,,,0,8,8,8,,,,,,,,,,,AFSA07.jpg,AFSA08.jpg,AFNE17.jpg,AFNE11.jpg,AFNE17.jpg,FN,3,num_2,32,num_8,1.23341405287,,,2017_Mar_16_1707,60.0137051666,MAFE4ImagesEEG,001,100072,
AFNE01.JPG,AFNE01.JPG,AFNE01.JPG,AFNE01.JPG,AFNE01.JPG,AFNE01.JPG,,,,,,,,,,,,,0,9,9,7,,,,,,,,,,,AFNE17.jpg,AFSA09.jpg,AFNE14.jpg,AFSA14.jpg,AFNE14.jpg,FN,3,num_2,32,num_8,1.5000898072,,,2017_Mar_16_1707,60.0137051666,MAFE4ImagesEEG,001,100072,
AFNE01.JPG,AFNE01.JPG,AFNE01.JPG,AFNE01.JPG,AFNE01.JPG,AFNE01.JPG,,,,,,,,,,,,,1,0,10,3,,,,,,,,,,,AFNE12.jpg,AFSA01.jpg,AFSA04.jpg,AFNE16.jpg,AFSA04.jpg,FS,4,num_2,32,num_8,1.55010985339,,,2017_Mar_16_1707,60.0137051666,MAFE4ImagesEEG,001,100072,
AFNE01.JPG,AFNE01.JPG,AFNE01.JPG,AFNE01.JPG,AFNE01.JPG,AFNE01.JPG,,,,,,,,,,,,,1,1,11,6,,,,,,,,,,,AFNE08.jpg,AFSA16.jpg,AFSA19.jpg,AFNE04.jpg,AFNE08.jpg,FN,3,num_8,16,num_8,0.750121400109,,,2017_Mar_16_1707,60.0137051666,MAFE4ImagesEEG,001,100072,
AFNE01.JPG,AFNE01.JPG,AFNE01.JPG,AFNE01.JPG,AFNE01.JPG,AFNE01.JPG,,,,,,,,,,,,,1,2,12,5,,,,,,,,,,,AFNE19.jpg,AFSA03.jpg,AFNE07.jpg,AFSA15.jpg,AFSA03.jpg,FS,4,num_6,32,num_2,2.21662620001,,,2017_Mar_16_1707,60.0137051666,MAFE4ImagesEEG,001,100072,
AFNE01.JPG,AFNE01.JPG,AFNE01.JPG,AFNE01.JPG,AFNE01.JPG,AFNE01.JPG,,,,,,,,,,,,,1,3,13,2,,,,,,,,,,,AFNE05.jpg,AFSA01.jpg,AFNE15.jpg,AFSA02.jpg,AFSA01.jpg,FS,4,num_6,16,num_6,1.45010087267,,,2017_Mar_16_1707,60.0137051666,MAFE4ImagesEEG,001,100072,
AFNE01.JPG,AFNE01.JPG,AFNE01.JPG,AFNE01.JPG,AFNE01.JPG,AFNE01.JPG,,,,,,,,,,,,,1,4,14,7,,,,,,,,,,,AFSA11.jpg,AFNE11.jpg,AFNE09.jpg,AFSA18.jpg,AFSA18.jpg,FS,4,num_4,16,num_4,1.80004779028,,,2017_Mar_16_1707,60.0137051666,MAFE4ImagesEEG,001,100072,
AFNE01.JPG,AFNE01.JPG,AFNE01.JPG,AFNE01.JPG,AFNE01.JPG,AFNE01.JPG,,,,,,,,,,,,,1,5,15,1,,,,,,,,,,,AFSA16.jpg,AFSA08.jpg,AFNE13.jpg,AFNE16.jpg,AFSA08.jpg,FS,4,num_6,16,num_6,0.516818643897,,,2017_Mar_16_1707,60.0137051666,MAFE4ImagesEEG,001,100072,
AFNE01.JPG,AFNE01.JPG,AFNE01.JPG,AFNE01.JPG,AFNE01.JPG,AFNE01.JPG,,,,,,,,,,,,,1,6,16,8,,,,,,,,,,,AFSA08.jpg,AFSA13.jpg,AFNE09.jpg,AFNE01.jpg,AFSA13.jpg,FS,4,num_6,16,num_6,2.08322882559,,,2017_Mar_16_1707,60.0137051666,MAFE4ImagesEEG,001,100072,
AFNE01.JPG,AFNE01.JPG,AFNE01.JPG,AFNE01.JPG,AFNE01.JPG,AFNE01.JPG,,,,,,,,,,,,,1,7,17,9,,,,,,,,,,,AFSA07.jpg,AFSA11.jpg,AFNE09.jpg,AFNE13.jpg,AFSA07.jpg,FS,4,num_8,16,num_8,0.666783522931,,,2017_Mar_16_1707,60.0137051666,MAFE4ImagesEEG,001,100072,
AFNE01.JPG,AFNE01.JPG,AFNE01.JPG,AFNE01.JPG,AFNE01.JPG,AFNE01.JPG,,,,,,,,,,,,,1,8,18,4,,,,,,,,,,,AFNE02.jpg,AFNE10.jpg,AFSA15.jpg,AFSA14.jpg,AFNE02.jpg,FN,3,num_8,16,num_8,0.733451900189,,,2017_Mar_16_1707,60.0137051666,MAFE4ImagesEEG,001,100072,
AFNE01.JPG,AFNE01.JPG,AFNE01.JPG,AFNE01.JPG,AFNE01.JPG,AFNE01.JPG,,,,,,,,,,,,,1,9,19,0,,,,,,,,,,,AFSA18.jpg,AFSA17.jpg,AFNE03.jpg,AFNE01.jpg,AFSA18.jpg,FS,4,num_8,16,num_8,0.983495360473,,,2017_Mar_16_1707,60.0137051666,MAFE4ImagesEEG,001,100072,
AFNE01.JPG,AFNE01.JPG,AFNE01.JPG,AFNE01.JPG,AFNE01.JPG,AFNE01.JPG,,,,,,,,,,,,,2,0,20,8,,,,,,,,,,,AFSA15.jpg,AFNE01.jpg,AFNE06.jpg,AFSA08.jpg,AFSA15.jpg,FS,4,num_8,16,num_8,1.84990265546,,,2017_Mar_16_1707,60.0137051666,MAFE4ImagesEEG,001,100072,
AFNE01.JPG,AFNE01.JPG,AFNE01.JPG,AFNE01.JPG,AFNE01.JPG,AFNE01.JPG,,,,,,,,,,,,,2,1,21,9,,,,,,,,,,,AFSA11.jpg,AFNE07.jpg,AFNE06.jpg,AFSA04.jpg,AFSA04.jpg,FS,4,num_4,32,num_8,1.11677534413,,,2017_Mar_16_1707,60.0137051666,MAFE4ImagesEEG,001,100072,
AFNE01.JPG,AFNE01.JPG,AFNE01.JPG,AFNE01.JPG,AFNE01.JPG,AFNE01.JPG,,,,,,,,,,,,,2,2,22,1,,,,,,,,,,,AFSA04.jpg,AFSA17.jpg,AFNE11.jpg,AFNE07.jpg,AFSA04.jpg,FS,4,num_8,16,num_8,0.633576988825,,,2017_Mar_16_1707,60.0137051666,MAFE4ImagesEEG,001,100072,
AFNE01.JPG,AFNE01.JPG,AFNE01.JPG,AFNE01.JPG,AFNE01.JPG,AFNE01.JPG,,,,,,,,,,,,,2,3,23,3,,,,,,,,,,,AFSA04.jpg,AFSA13.jpg,AFNE06.jpg,AFNE01.jpg,AFSA04.jpg,FS,4,num_8,16,num_8,0.683452060563,,,2017_Mar_16_1707,60.0137051666,MAFE4ImagesEEG,001,100072,
AFNE01.JPG,AFNE01.JPG,AFNE01.JPG,AFNE01.JPG,AFNE01.JPG,AFNE01.JPG,,,,,,,,,,,,,2,4,24,6,,,,,,,,,,,AFNE16.jpg,AFNE18.jpg,AFSA05.jpg,AFSA11.jpg,AFNE16.jpg,FN,3,num_8,32,num_6,1.21674166631,,,2017_Mar_16_1707,60.0137051666,MAFE4ImagesEEG,001,100072,
AFNE01.JPG,AFNE01.JPG,AFNE01.JPG,AFNE01.JPG,AFNE01.JPG,AFNE01.JPG,,,,,,,,,,,,,2,5,25,2,,,,,,,,,,,AFSA13.jpg,AFSA01.jpg,AFNE19.jpg,AFNE09.jpg,AFNE19.jpg,FN,3,num_2,16,num_2,0.63349038898,,,2017_Mar_16_1707,60.0137051666,MAFE4ImagesEEG,001,100072,
AFNE01.JPG,AFNE01.JPG,AFNE01.JPG,AFNE01.JPG,AFNE01.JPG,AFNE01.JPG,,,,,,,,,,,,,2,6,26,0,,,,,,,,,,,AFSA06.jpg,AFSA14.jpg,AFNE08.jpg,AFNE03.jpg,AFSA14.jpg,FS,4,num_6,16,num_6,2.11671761086,,,2017_Mar_16_1707,60.0137051666,MAFE4ImagesEEG,001,100072,
AFNE01.JPG,AFNE01.JPG,AFNE01.JPG,AFNE01.JPG,AFNE01.JPG,AFNE01.JPG,,,,,,,,,,,,,2,7,27,5,,,,,,,,,,,AFSA18.jpg,AFNE15.jpg,AFNE12.jpg,AFSA15.jpg,AFNE15.jpg,FN,3,num_6,16,num_6,1.70016774698,,,2017_Mar_16_1707,60.0137051666,MAFE4ImagesEEG,001,100072,
AFNE01.JPG,AFNE01.JPG,AFNE01.JPG,AFNE01.JPG,AFNE01.JPG,AFNE01.JPG,,,,,,,,,,,,,2,8,28,7,,,,,,,,,,,AFNE01.jpg,AFSA14.jpg,AFSA17.jpg,AFNE09.jpg,AFSA14.jpg,FS,4,num_6,32,num_2,1.09987010027,,,2017_Mar_16_1707,60.0137051666,MAFE4ImagesEEG,001,100072,
AFNE01.JPG,AFNE01.JPG,AFNE01.JPG,AFNE01.JPG,AFNE01.JPG,AFNE01.JPG,,,,,,,,,,,,,2,9,29,4,,,,,,,,,,,AFNE05.jpg,AFSA14.jpg,AFSA05.jpg,AFNE18.jpg,AFSA05.jpg,FS,4,num_2,16,num_2,0.666777428938,,,2017_Mar_16_1707,60.0137051666,MAFE4ImagesEEG,001,100072,
AFNE01.JPG,AFNE01.JPG,AFNE01.JPG,AFNE01.JPG,AFNE01.JPG,AFNE01.JPG,,,,,,,,,,,,,3,0,30,6,,,,,,,,,,,AFSA07.jpg,AFNE11.jpg,AFNE06.jpg,AFSA06.jpg,AFSA06.jpg,FS,4,num_4,16,num_4,1.18338502594,,,2017_Mar_16_1707,60.0137051666,MAFE4ImagesEEG,001,100072,
AFNE01.JPG,AFNE01.JPG,AFNE01.JPG,AFNE01.JPG,AFNE01.JPG,AFNE01.JPG,,,,,,,,,,,,,3,1,31,1,,,,,,,,,,,AFNE11.jpg,AFNE01.jpg,AFSA12.jpg,AFSA10.jpg,AFNE11.jpg,FN,3,num_8,32,num_4,1.38343794807,,,2017_Mar_16_1707,60.0137051666,MAFE4ImagesEEG,001,100072,
AFNE01.JPG,AFNE01.JPG,AFNE01.JPG,AFNE01.JPG,AFNE01.JPG,AFNE01.JPG,,,,,,,,,,,,,3,2,32,7,,,,,,,,,,,AFSA13.jpg,AFNE01.jpg,AFSA06.jpg,AFNE09.jpg,AFSA13.jpg,FS,4,num_8,32,num_6,1.95006366679,,,2017_Mar_16_1707,60.0137051666,MAFE4ImagesEEG,001,100072,
AFNE01.JPG,AFNE01.JPG,AFNE01.JPG,AFNE01.JPG,AFNE01.JPG,AFNE01.JPG,,,,,,,,,,,,,3,3,33,8,,,,,,,,,,,AFNE17.jpg,AFSA01.jpg,AFSA16.jpg,AFNE07.jpg,AFSA01.jpg,FS,4,num_6,32,num_8,1.03345414542,,,2017_Mar_16_1707,60.0137051666,MAFE4ImagesEEG,001,100072,
AFNE01.JPG,AFNE01.JPG,AFNE01.JPG,AFNE01.JPG,AFNE01.JPG,AFNE01.JPG,,,,,,,,,,,,,3,4,34,4,,,,,,,,,,,AFNE12.jpg,AFNE06.jpg,AFSA01.jpg,AFSA11.jpg,AFNE12.jpg,FN,3,num_8,16,num_8,0.883511397406,,,2017_Mar_16_1707,60.0137051666,MAFE4ImagesEEG,001,100072,
AFNE01.JPG,AFNE01.JPG,AFNE01.JPG,AFNE01.JPG,AFNE01.JPG,AFNE01.JPG,,,,,,,,,,,,,3,5,35,3,,,,,,,,,,,AFNE11.jpg,AFSA10.jpg,AFSA02.jpg,AFNE19.jpg,AFNE11.jpg,FN,3,num_8,16,num_8,1.33340924175,,,2017_Mar_16_1707,60.0137051666,MAFE4ImagesEEG,001,100072,
AFNE01.JPG,AFNE01.JPG,AFNE01.JPG,AFNE01.JPG,AFNE01.JPG,AFNE01.JPG,,,,,,,,,,,,,3,6,36,5,,,,,,,,,,,AFSA06.jpg,AFSA09.jpg,AFNE13.jpg,AFNE20.jpg,AFNE13.jpg,FN,3,num_2,32,num_8,1.18331093504,,,2017_Mar_16_1707,60.0137051666,MAFE4ImagesEEG,001,100072,
AFNE01.JPG,AFNE01.JPG,AFNE01.JPG,AFNE01.JPG,AFNE01.JPG,AFNE01.JPG,,,,,,,,,,,,,3,7,37,2,,,,,,,,,,,AFSA10.jpg,AFNE20.jpg,AFSA02.jpg,AFNE02.jpg,AFSA10.jpg,FS,4,num_8,16,num_8,1.10012059822,,,2017_Mar_16_1707,60.0137051666,MAFE4ImagesEEG,001,100072,
AFNE01.JPG,AFNE01.JPG,AFNE01.JPG,AFNE01.JPG,AFNE01.JPG,AFNE01.JPG,,,,,,,,,,,,,3,8,38,0,,,,,,,,,,,AFSA05.jpg,AFSA01.jpg,AFNE17.jpg,AFNE05.jpg,AFSA01.jpg,FS,4,num_6,16,num_6,2.20005677093,,,2017_Mar_16_1707,60.0137051666,MAFE4ImagesEEG,001,100072,
AFNE01.JPG,AFNE01.JPG,AFNE01.JPG,AFNE01.JPG,AFNE01.JPG,AFNE01.JPG,,,,,,,,,,,,,3,9,39,9,,,,,,,,,,,AFSA19.jpg,AFSA14.jpg,AFNE10.jpg,AFNE07.jpg,AFNE10.jpg,FN,3,num_2,32,num_4,2.03339641215,,,2017_Mar_16_1707,60.0137051666,MAFE4ImagesEEG,001,100072,
AFNE01.JPG,AFNE01.JPG,AFNE01.JPG,AFNE01.JPG,AFNE01.JPG,AFNE01.JPG,,,,,,,,,,,,,4,0,40,2,,,,,,,,,,,AFSA07.jpg,AFSA20.jpg,AFNE19.jpg,AFNE01.jpg,AFSA07.jpg,FS,4,num_8,16,num_8,1.56660519156,,,2017_Mar_16_1707,60.0137051666,MAFE4ImagesEEG,001,100072,
AFNE01.JPG,AFNE01.JPG,AFNE01.JPG,AFNE01.JPG,AFNE01.JPG,AFNE01.JPG,,,,,,,,,,,,,4,1,41,0,,,,,,,,,,,AFSA13.jpg,AFSA17.jpg,AFNE15.jpg,AFNE11.jpg,AFNE11.jpg,FN,3,num_4,32,num_8,1.00014176709,,,2017_Mar_16_1707,60.0137051666,MAFE4ImagesEEG,001,100072,
AFNE01.JPG,AFNE01.JPG,AFNE01.JPG,AFNE01.JPG,AFNE01.JPG,AFNE01.JPG,,,,,,,,,,,,,4,2,42,9,,,,,,,,,,,AFSA16.jpg,AFNE02.jpg,AFNE16.jpg,AFSA12.jpg,AFSA12.jpg,FS,4,num_4,16,num_4,1.93337428116,,,2017_Mar_16_1707,60.0137051666,MAFE4ImagesEEG,001,100072,
AFNE01.JPG,AFNE01.JPG,AFNE01.JPG,AFNE01.JPG,AFNE01.JPG,AFNE01.JPG,,,,,,,,,,,,,4,3,43,1,,,,,,,,,,,AFNE14.jpg,AFSA03.jpg,AFSA08.jpg,AFNE17.jpg,AFSA03.jpg,FS,4,num_6,32,num_8,1.11680453143,,,2017_Mar_16_1707,60.0137051666,MAFE4ImagesEEG,001,100072,
AFNE01.JPG,AFNE01.JPG,AFNE01.JPG,AFNE01.JPG,AFNE01.JPG,AFNE01.JPG,,,,,,,,,,,,,4,4,44,3,,,,,,,,,,,AFNE19.jpg,AFNE04.jpg,AFSA03.jpg,AFSA13.jpg,AFNE04.jpg,FN,3,num_6,32,num_8,1.48338727106,,,2017_Mar_16_1707,60.0137051666,MAFE4ImagesEEG,001,100072,
AFNE01.JPG,AFNE01.JPG,AFNE01.JPG,AFNE01.JPG,AFNE01.JPG,AFNE01.JPG,,,,,,,,,,,,,4,5,45,4,,,,,,,,,,,AFNE05.jpg,AFNE13.jpg,AFSA09.jpg,AFSA04.jpg,AFNE05.jpg,FN,3,num_8,16,num_8,1.73341533577,,,2017_Mar_16_1707,60.0137051666,MAFE4ImagesEEG,001,100072,
AFNE01.JPG,AFNE01.JPG,AFNE01.JPG,AFNE01.JPG,AFNE01.JPG,AFNE01.JPG,,,,,,,,,,,,,4,6,46,5,,,,,,,,,,,AFNE03.jpg,AFSA05.jpg,AFSA09.jpg,AFNE20.jpg,AFSA09.jpg,FS,4,num_2,16,num_2,0.800159407896,,,2017_Mar_16_1707,60.0137051666,MAFE4ImagesEEG,001,100072,
AFNE01.JPG,AFNE01.JPG,AFNE01.JPG,AFNE01.JPG,AFNE01.JPG,AFNE01.JPG,,,,,,,,,,,,,4,7,47,6,,,,,,,,,,,AFSA03.jpg,AFNE03.jpg,AFNE13.jpg,AFSA07.jpg,AFNE03.jpg,FN,3,num_6,32,num_4,0.983458154718,,,2017_Mar_16_1707,60.0137051666,MAFE4ImagesEEG,001,100072,
AFNE01.JPG,AFNE01.JPG,AFNE01.JPG,AFNE01.JPG,AFNE01.JPG,AFNE01.JPG,,,,,,,,,,,,,4,8,48,7,,,,,,,,,,,AFSA11.jpg,AFNE18.jpg,AFSA12.jpg,AFNE06.jpg,AFNE06.jpg,FN,3,num_4,16,num_4,1.18345398502,,,2017_Mar_16_1707,60.0137051666,MAFE4ImagesEEG,001,100072,
AFNE01.JPG,AFNE01.JPG,AFNE01.JPG,AFNE01.JPG,AFNE01.JPG,AFNE01.JPG,,,,,,,,,,,,,4,9,49,8,,,,,,,,,,,AFSA10.jpg,AFNE01.jpg,AFSA11.jpg,AFNE19.jpg,AFNE19.jpg,FN,3,num_4,16,num_4,1.78340427042,,,2017_Mar_16_1707,60.0137051666,MAFE4ImagesEEG,001,100072,
AFNE01.JPG,AFNE01.JPG,AFNE01.JPG,AFNE01.JPG,AFNE01.JPG,AFNE01.JPG,,,,,,,,,,,,,5,0,50,5,,,,,,,,,,,AFNE01.jpg,AFSA17.jpg,AFNE10.jpg,AFSA13.jpg,AFSA13.jpg,FS,4,num_4,32,num_6,0.66673509113,,,2017_Mar_16_1707,60.0137051666,MAFE4ImagesEEG,001,100072,
AFNE01.JPG,AFNE01.JPG,AFNE01.JPG,AFNE01.JPG,AFNE01.JPG,AFNE01.JPG,,,,,,,,,,,,,5,1,51,1,,,,,,,,,,,AFNE09.jpg,AFSA13.jpg,AFSA01.jpg,AFNE02.jpg,AFNE09.jpg,FN,3,num_8,16,num_8,0.700116107939,,,2017_Mar_16_1707,60.0137051666,MAFE4ImagesEEG,001,100072,
AFNE01.JPG,AFNE01.JPG,AFNE01.JPG,AFNE01.JPG,AFNE01.JPG,AFNE01.JPG,,,,,,,,,,,,,5,2,52,8,,,,,,,,,,,AFNE04.jpg,AFSA16.jpg,AFNE20.jpg,AFSA07.jpg,AFNE20.jpg,FN,3,num_2,16,num_2,0.716802606941,,,2017_Mar_16_1707,60.0137051666,MAFE4ImagesEEG,001,100072,
AFNE01.JPG,AFNE01.JPG,AFNE01.JPG,AFNE01.JPG,AFNE01.JPG,AFNE01.JPG,,,,,,,,,,,,,5,3,53,7,,,,,,,,,,,AFNE13.jpg,AFSA15.jpg,AFNE14.jpg,AFSA04.jpg,AFSA04.jpg,FS,4,num_4,16,num_4,2.06673765706,,,2017_Mar_16_1707,60.0137051666,MAFE4ImagesEEG,001,100072,
AFNE01.JPG,AFNE01.JPG,AFNE01.JPG,AFNE01.JPG,AFNE01.JPG,AFNE01.JPG,,,,,,,,,,,,,5,4,54,6,,,,,,,,,,,AFNE06.jpg,AFSA08.jpg,AFNE14.jpg,AFSA20.jpg,AFSA20.jpg,FS,4,num_4,32,num_8,0.933480766835,,,2017_Mar_16_1707,60.0137051666,MAFE4ImagesEEG,001,100072,
AFNE01.JPG,AFNE01.JPG,AFNE01.JPG,AFNE01.JPG,AFNE01.JPG,AFNE01.JPG,,,,,,,,,,,,,5,5,55,0,,,,,,,,,,,AFSA11.jpg,AFNE13.jpg,AFNE19.jpg,AFSA08.jpg,AFSA11.jpg,FS,4,num_8,16,num_8,0.616852963227,,,2017_Mar_16_1707,60.0137051666,MAFE4ImagesEEG,001,100072,
AFNE01.JPG,AFNE01.JPG,AFNE01.JPG,AFNE01.JPG,AFNE01.JPG,AFNE01.JPG,,,,,,,,,,,,,5,6,56,3,,,,,,,,,,,AFNE02.jpg,AFNE08.jpg,AFSA01.jpg,AFSA19.jpg,AFSA19.jpg,FS,4,num_4,16,num_4,1.36679442809,,,2017_Mar_16_1707,60.0137051666,MAFE4ImagesEEG,001,100072,
AFNE01.JPG,AFNE01.JPG,AFNE01.JPG,AFNE01.JPG,AFNE01.JPG,AFNE01.JPG,,,,,,,,,,,,,5,7,57,2,,,,,,,,,,,AFNE11.jpg,AFSA12.jpg,AFNE01.jpg,AFSA11.jpg,AFSA12.jpg,FS,4,num_6,16,num_6,2.1500736099,,,2017_Mar_16_1707,60.0137051666,MAFE4ImagesEEG,001,100072,
AFNE01.JPG,AFNE01.JPG,AFNE01.JPG,AFNE01.JPG,AFNE01.JPG,AFNE01.JPG,,,,,,,,,,,,,5,8,58,4,,,,,,,,,,,AFNE16.jpg,AFSA05.jpg,AFNE12.jpg,AFSA20.jpg,AFNE16.jpg,FN,3,num_8,16,num_8,0.700162615161,,,2017_Mar_16_1707,60.0137051666,MAFE4ImagesEEG,001,100072,
AFNE01.JPG,AFNE01.JPG,AFNE01.JPG,AFNE01.JPG,AFNE01.JPG,AFNE01.JPG,,,,,,,,,,,,,5,9,59,9,,,,,,,,,,,AFNE16.jpg,AFSA09.jpg,AFNE20.jpg,AFSA17.jpg,AFNE16.jpg,FN,3,num_8,16,num_8,0.750156681519,,,2017_Mar_16_1707,60.0137051666,MAFE4ImagesEEG,001,100072,
,,,,,,,,,,,,,,,,,,,,,,,,,,,,,,,,,,,,,,,,,,,space,5.56640023855,2017_Mar_16_1707,60.0137051666,MAFE4ImagesEEG,001,100072,
AFNE01.JPG,AFNE01.JPG,AFNE01.JPG,AFNE01.JPG,AFNE01.JPG,AFNE01.JPG,,,,,,,,,,,,,,,,,0,0,0,6,,,,,,,AMNE03.jpg,AMSA17.jpg,AMSA19.jpg,AMNE02.jpg,AMNE02.jpg,MN,1,num_4,16,num_4,0.733437146177,,,2017_Mar_16_1707,60.0137051666,MAFE4ImagesEEG,001,100072,
AFNE01.JPG,AFNE01.JPG,AFNE01.JPG,AFNE01.JPG,AFNE01.JPG,AFNE01.JPG,,,,,,,,,,,,,,,,,0,1,1,7,,,,,,,AMSA06.jpg,AMNE16.jpg,AMNE20.jpg,AMSA20.jpg,AMSA06.jpg,MS,2,num_8,16,num_8,0.650178170996,,,2017_Mar_16_1707,60.0137051666,MAFE4ImagesEEG,001,100072,
AFNE01.JPG,AFNE01.JPG,AFNE01.JPG,AFNE01.JPG,AFNE01.JPG,AFNE01.JPG,,,,,,,,,,,,,,,,,0,2,2,9,,,,,,,AMNE17.jpg,AMSA04.jpg,AMNE13.jpg,AMSA15.jpg,AMNE17.jpg,MN,1,num_8,16,num_8,1.61675321311,,,2017_Mar_16_1707,60.0137051666,MAFE4ImagesEEG,001,100072,
AFNE01.JPG,AFNE01.JPG,AFNE01.JPG,AFNE01.JPG,AFNE01.JPG,AFNE01.JPG,,,,,,,,,,,,,,,,,0,3,3,3,,,,,,,AMNE08.jpg,AMSA13.jpg,AMNE20.jpg,AMSA05.jpg,AMSA05.jpg,MS,2,num_4,32,num_6,1.50007505319,,,2017_Mar_16_1707,60.0137051666,MAFE4ImagesEEG,001,100072,
AFNE01.JPG,AFNE01.JPG,AFNE01.JPG,AFNE01.JPG,AFNE01.JPG,AFNE01.JPG,,,,,,,,,,,,,,,,,0,4,4,1,,,,,,,AMNE10.jpg,AMNE01.jpg,AMSA10.jpg,AMSA02.jpg,AMNE10.jpg,MN,1,num_8,16,num_8,0.883476757561,,,2017_Mar_16_1707,60.0137051666,MAFE4ImagesEEG,001,100072,
AFNE01.JPG,AFNE01.JPG,AFNE01.JPG,AFNE01.JPG,AFNE01.JPG,AFNE01.JPG,,,,,,,,,,,,,,,,,0,5,5,5,,,,,,,AMSA05.jpg,AMSA12.jpg,AMNE01.jpg,AMNE06.jpg,AMSA05.jpg,MS,2,num_8,32,num_4,1.48343089176,,,2017_Mar_16_1707,60.0137051666,MAFE4ImagesEEG,001,100072,
AFNE01.JPG,AFNE01.JPG,AFNE01.JPG,AFNE01.JPG,AFNE01.JPG,AFNE01.JPG,,,,,,,,,,,,,,,,,0,6,6,0,,,,,,,AMSA13.jpg,AMNE03.jpg,AMSA15.jpg,AMNE04.jpg,AMSA13.jpg,MS,2,num_8,16,num_8,1.21676379745,,,2017_Mar_16_1707,60.0137051666,MAFE4ImagesEEG,001,100072,
AFNE01.JPG,AFNE01.JPG,AFNE01.JPG,AFNE01.JPG,AFNE01.JPG,AFNE01.JPG,,,,,,,,,,,,,,,,,0,7,7,4,,,,,,,AMNE09.jpg,AMSA13.jpg,AMNE19.jpg,AMSA03.jpg,AMSA03.jpg,MS,2,num_4,16,num_4,1.80006831768,,,2017_Mar_16_1707,60.0137051666,MAFE4ImagesEEG,001,100072,
AFNE01.JPG,AFNE01.JPG,AFNE01.JPG,AFNE01.JPG,AFNE01.JPG,AFNE01.JPG,,,,,,,,,,,,,,,,,0,8,8,2,,,,,,,AMSA05.jpg,AMNE05.jpg,AMNE16.jpg,AMSA03.jpg,AMSA05.jpg,MS,2,num_8,16,num_8,1.00017031294,,,2017_Mar_16_1707,60.0137051666,MAFE4ImagesEEG,001,100072,
AFNE01.JPG,AFNE01.JPG,AFNE01.JPG,AFNE01.JPG,AFNE01.JPG,AFNE01.JPG,,,,,,,,,,,,,,,,,0,9,9,8,,,,,,,AMNE03.jpg,AMSA10.jpg,AMSA15.jpg,AMNE02.jpg,AMSA15.jpg,MS,2,num_2,32,num_4,2.15002870618,,,2017_Mar_16_1707,60.0137051666,MAFE4ImagesEEG,001,100072,
AFNE01.JPG,AFNE01.JPG,AFNE01.JPG,AFNE01.JPG,AFNE01.JPG,AFNE01.JPG,,,,,,,,,,,,,,,,,1,0,10,5,,,,,,,AMNE17.jpg,AMNE13.jpg,AMSA10.jpg,AMSA18.jpg,AMNE17.jpg,MN,1,num_8,16,num_8,0.633550367435,,,2017_Mar_16_1707,60.0137051666,MAFE4ImagesEEG,001,100072,
AFNE01.JPG,AFNE01.JPG,AFNE01.JPG,AFNE01.JPG,AFNE01.JPG,AFNE01.JPG,,,,,,,,,,,,,,,,,1,1,11,7,,,,,,,AMNE11.jpg,AMNE01.jpg,AMSA09.jpg,AMSA12.jpg,AMNE11.jpg,MN,1,num_8,16,num_8,1.28345847537,,,2017_Mar_16_1707,60.0137051666,MAFE4ImagesEEG,001,100072,
AFNE01.JPG,AFNE01.JPG,AFNE01.JPG,AFNE01.JPG,AFNE01.JPG,AFNE01.JPG,,,,,,,,,,,,,,,,,1,2,12,3,,,,,,,AMNE07.jpg,AMSA17.jpg,AMSA09.jpg,AMNE13.jpg,AMNE07.jpg,MN,1,num_8,16,num_8,1.21663742594,,,2017_Mar_16_1707,60.0137051666,MAFE4ImagesEEG,001,100072,
AFNE01.JPG,AFNE01.JPG,AFNE01.JPG,AFNE01.JPG,AFNE01.JPG,AFNE01.JPG,,,,,,,,,,,,,,,,,1,3,13,0,,,,,,,AMNE12.jpg,AMNE14.jpg,AMSA13.jpg,AMSA15.jpg,AMNE12.jpg,MN,1,num_8,16,num_8,1.08346777677,,,2017_Mar_16_1707,60.0137051666,MAFE4ImagesEEG,001,100072,
AFNE01.JPG,AFNE01.JPG,AFNE01.JPG,AFNE01.JPG,AFNE01.JPG,AFNE01.JPG,,,,,,,,,,,,,,,,,1,4,14,6,,,,,,,AMNE08.jpg,AMNE05.jpg,AMSA04.jpg,AMSA05.jpg,AMNE08.jpg,MN,1,num_8,16,num_8,0.666781598469,,,2017_Mar_16_1707,60.0137051666,MAFE4ImagesEEG,001,100072,
AFNE01.JPG,AFNE01.JPG,AFNE01.JPG,AFNE01.JPG,AFNE01.JPG,AFNE01.JPG,,,,,,,,,,,,,,,,,1,5,15,1,,,,,,,AMSA20.jpg,AMSA06.jpg,AMNE20.jpg,AMNE02.jpg,AMNE02.jpg,MN,1,num_4,16,num_4,0.966757542919,,,2017_Mar_16_1707,60.0137051666,MAFE4ImagesEEG,001,100072,
AFNE01.JPG,AFNE01.JPG,AFNE01.JPG,AFNE01.JPG,AFNE01.JPG,AFNE01.JPG,,,,,,,,,,,,,,,,,1,6,16,4,,,,,,,AMSA09.jpg,AMSA14.jpg,AMNE13.jpg,AMNE20.jpg,AMSA09.jpg,MS,2,num_8,16,num_8,1.33344452328,,,2017_Mar_16_1707,60.0137051666,MAFE4ImagesEEG,001,100072,
AFNE01.JPG,AFNE01.JPG,AFNE01.JPG,AFNE01.JPG,AFNE01.JPG,AFNE01.JPG,,,,,,,,,,,,,,,,,1,7,17,2,,,,,,,AMSA15.jpg,AMSA05.jpg,AMNE12.jpg,AMNE08.jpg,AMNE12.jpg,MN,1,num_2,32,num_6,1.10015235154,,,2017_Mar_16_1707,60.0137051666,MAFE4ImagesEEG,001,100072,
AFNE01.JPG,AFNE01.JPG,AFNE01.JPG,AFNE01.JPG,AFNE01.JPG,AFNE01.JPG,,,,,,,,,,,,,,,,,1,8,18,8,,,,,,,AMNE19.jpg,AMSA01.jpg,AMNE13.jpg,AMSA12.jpg,AMNE13.jpg,MN,1,num_2,32,num_8,1.10018057656,,,2017_Mar_16_1707,60.0137051666,MAFE4ImagesEEG,001,100072,
AFNE01.JPG,AFNE01.JPG,AFNE01.JPG,AFNE01.JPG,AFNE01.JPG,AFNE01.JPG,,,,,,,,,,,,,,,,,1,9,19,9,,,,,,,AMNE12.jpg,AMSA17.jpg,AMSA10.jpg,AMNE15.jpg,AMSA17.jpg,MS,2,num_6,16,num_6,2.64998957596,,,2017_Mar_16_1707,60.0137051666,MAFE4ImagesEEG,001,100072,
AFNE01.JPG,AFNE01.JPG,AFNE01.JPG,AFNE01.JPG,AFNE01.JPG,AFNE01.JPG,,,,,,,,,,,,,,,,,2,0,20,3,,,,,,,AMNE12.jpg,AMSA08.jpg,AMNE08.jpg,AMSA01.jpg,AMNE12.jpg,MN,1,num_8,16,num_8,1.15009253356,,,2017_Mar_16_1707,60.0137051666,MAFE4ImagesEEG,001,100072,
AFNE01.JPG,AFNE01.JPG,AFNE01.JPG,AFNE01.JPG,AFNE01.JPG,AFNE01.JPG,,,,,,,,,,,,,,,,,2,1,21,4,,,,,,,AMSA15.jpg,AMSA20.jpg,AMNE09.jpg,AMNE02.jpg,AMNE09.jpg,MN,1,num_2,16,num_2,0.750154436333,,,2017_Mar_16_1707,60.0137051666,MAFE4ImagesEEG,001,100072,
AFNE01.JPG,AFNE01.JPG,AFNE01.JPG,AFNE01.JPG,AFNE01.JPG,AFNE01.JPG,,,,,,,,,,,,,,,,,2,2,22,6,,,,,,,AMSA06.jpg,AMNE13.jpg,AMNE03.jpg,AMSA05.jpg,AMSA05.jpg,MS,2,num_4,16,num_4,1.18343538209,,,2017_Mar_16_1707,60.0137051666,MAFE4ImagesEEG,001,100072,
AFNE01.JPG,AFNE01.JPG,AFNE01.JPG,AFNE01.JPG,AFNE01.JPG,AFNE01.JPG,,,,,,,,,,,,,,,,,2,3,23,0,,,,,,,AMNE13.jpg,AMSA17.jpg,AMSA03.jpg,AMNE15.jpg,AMNE13.jpg,MN,1,num_8,16,num_8,1.20009365608,,,2017_Mar_16_1707,60.0137051666,MAFE4ImagesEEG,001,100072,
AFNE01.JPG,AFNE01.JPG,AFNE01.JPG,AFNE01.JPG,AFNE01.JPG,AFNE01.JPG,,,,,,,,,,,,,,,,,2,4,24,2,,,,,,,AMSA15.jpg,AMNE06.jpg,AMNE10.jpg,AMSA19.jpg,AMSA19.jpg,MS,2,num_4,32,num_8,1.25006719504,,,2017_Mar_16_1707,60.0137051666,MAFE4ImagesEEG,001,100072,
AFNE01.JPG,AFNE01.JPG,AFNE01.JPG,AFNE01.JPG,AFNE01.JPG,AFNE01.JPG,,,,,,,,,,,,,,,,,2,5,25,9,,,,,,,AMSA04.jpg,AMSA07.jpg,AMNE13.jpg,AMNE05.jpg,AMSA07.jpg,MS,2,num_6,32,num_8,0.800162935979,,,2017_Mar_16_1707,60.0137051666,MAFE4ImagesEEG,001,100072,
AFNE01.JPG,AFNE01.JPG,AFNE01.JPG,AFNE01.JPG,AFNE01.JPG,AFNE01.JPG,,,,,,,,,,,,,,,,,2,6,26,7,,,,,,,AMSA10.jpg,AMNE01.jpg,AMSA15.jpg,AMNE08.jpg,AMNE01.jpg,MN,1,num_6,16,num_6,0.61664384068,,,2017_Mar_16_1707,60.0137051666,MAFE4ImagesEEG,001,100072,
AFNE01.JPG,AFNE01.JPG,AFNE01.JPG,AFNE01.JPG,AFNE01.JPG,AFNE01.JPG,,,,,,,,,,,,,,,,,2,7,27,1,,,,,,,AMSA10.jpg,AMNE03.jpg,AMSA08.jpg,AMNE01.jpg,AMNE01.jpg,MN,1,num_4,16,num_4,0.900136635173,,,2017_Mar_16_1707,60.0137051666,MAFE4ImagesEEG,001,100072,
AFNE01.JPG,AFNE01.JPG,AFNE01.JPG,AFNE01.JPG,AFNE01.JPG,AFNE01.JPG,,,,,,,,,,,,,,,,,2,8,28,8,,,,,,,AMNE09.jpg,AMNE10.jpg,AMSA15.jpg,AMSA06.jpg,AMSA15.jpg,MS,2,num_2,16,num_2,1.41674968484,,,2017_Mar_16_1707,60.0137051666,MAFE4ImagesEEG,001,100072,
AFNE01.JPG,AFNE01.JPG,AFNE01.JPG,AFNE01.JPG,AFNE01.JPG,AFNE01.JPG,,,,,,,,,,,,,,,,,2,9,29,5,,,,,,,AMNE03.jpg,AMNE15.jpg,AMSA20.jpg,AMSA12.jpg,AMNE03.jpg,MN,1,num_8,16,num_8,0.983432816225,,,2017_Mar_16_1707,60.0137051666,MAFE4ImagesEEG,001,100072,
AFNE01.JPG,AFNE01.JPG,AFNE01.JPG,AFNE01.JPG,AFNE01.JPG,AFNE01.JPG,,,,,,,,,,,,,,,,,3,0,30,0,,,,,,,AMSA11.jpg,AMSA14.jpg,AMNE07.jpg,AMNE06.jpg,AMSA11.jpg,MS,2,num_8,16,num_8,2.43337428104,,,2017_Mar_16_1707,60.0137051666,MAFE4ImagesEEG,001,100072,
AFNE01.JPG,AFNE01.JPG,AFNE01.JPG,AFNE01.JPG,AFNE01.JPG,AFNE01.JPG,,,,,,,,,,,,,,,,,3,1,31,5,,,,,,,AMSA19.jpg,AMSA13.jpg,AMNE15.jpg,AMNE13.jpg,AMNE15.jpg,MN,1,num_2,16,num_2,1.33345478692,,,2017_Mar_16_1707,60.0137051666,MAFE4ImagesEEG,001,100072,
AFNE01.JPG,AFNE01.JPG,AFNE01.JPG,AFNE01.JPG,AFNE01.JPG,AFNE01.JPG,,,,,,,,,,,,,,,,,3,2,32,3,,,,,,,AMSA02.jpg,AMNE15.jpg,AMNE06.jpg,AMSA03.jpg,AMSA02.jpg,MS,2,num_8,16,num_8,3.19952338038,,,2017_Mar_16_1707,60.0137051666,MAFE4ImagesEEG,001,100072,
AFNE01.JPG,AFNE01.JPG,AFNE01.JPG,AFNE01.JPG,AFNE01.JPG,AFNE01.JPG,,,,,,,,,,,,,,,,,3,3,33,6,,,,,,,AMSA13.jpg,AMSA18.jpg,AMNE16.jpg,AMNE13.jpg,AMSA18.jpg,MS,2,num_6,16,num_6,2.00004939397,,,2017_Mar_16_1707,60.0137051666,MAFE4ImagesEEG,001,100072,
AFNE01.JPG,AFNE01.JPG,AFNE01.JPG,AFNE01.JPG,AFNE01.JPG,AFNE01.JPG,,,,,,,,,,,,,,,,,3,4,34,9,,,,,,,AMNE03.jpg,AMSA14.jpg,AMNE18.jpg,AMSA19.jpg,AMNE18.jpg,MN,1,num_2,32,num_8,1.70007473242,,,2017_Mar_16_1707,60.0137051666,MAFE4ImagesEEG,001,100072,
AFNE01.JPG,AFNE01.JPG,AFNE01.JPG,AFNE01.JPG,AFNE01.JPG,AFNE01.JPG,,,,,,,,,,,,,,,,,3,5,35,8,,,,,,,AMSA07.jpg,AMNE09.jpg,AMNE10.jpg,AMSA04.jpg,AMNE10.jpg,MN,1,num_2,32,num_6,1.0001359937,,,2017_Mar_16_1707,60.0137051666,MAFE4ImagesEEG,001,100072,
AFNE01.JPG,AFNE01.JPG,AFNE01.JPG,AFNE01.JPG,AFNE01.JPG,AFNE01.JPG,,,,,,,,,,,,,,,,,3,6,36,2,,,,,,,AMSA11.jpg,AMSA07.jpg,AMNE01.jpg,AMNE09.jpg,AMSA07.jpg,MS,2,num_6,16,num_6,1.03347018245,,,2017_Mar_16_1707,60.0137051666,MAFE4ImagesEEG,001,100072,
AFNE01.JPG,AFNE01.JPG,AFNE01.JPG,AFNE01.JPG,AFNE01.JPG,AFNE01.JPG,,,,,,,,,,,,,,,,,3,7,37,7,,,,,,,AMNE18.jpg,AMNE17.jpg,AMSA18.jpg,AMSA06.jpg,AMSA06.jpg,MS,2,num_4,32,num_8,2.23325079621,,,2017_Mar_16_1707,60.0137051666,MAFE4ImagesEEG,001,100072,
AFNE01.JPG,AFNE01.JPG,AFNE01.JPG,AFNE01.JPG,AFNE01.JPG,AFNE01.JPG,,,,,,,,,,,,,,,,,3,8,38,4,,,,,,,AMNE20.jpg,AMSA09.jpg,AMNE08.jpg,AMSA16.jpg,AMSA16.jpg,MS,2,num_4,16,num_4,1.56671680906,,,2017_Mar_16_1707,60.0137051666,MAFE4ImagesEEG,001,100072,
AFNE01.JPG,AFNE01.JPG,AFNE01.JPG,AFNE01.JPG,AFNE01.JPG,AFNE01.JPG,,,,,,,,,,,,,,,,,3,9,39,1,,,,,,,AMNE03.jpg,AMNE14.jpg,AMSA11.jpg,AMSA10.jpg,AMSA11.jpg,MS,2,num_2,32,num_8,1.45009349566,,,2017_Mar_16_1707,60.0137051666,MAFE4ImagesEEG,001,100072,
AFNE01.JPG,AFNE01.JPG,AFNE01.JPG,AFNE01.JPG,AFNE01.JPG,AFNE01.JPG,,,,,,,,,,,,,,,,,4,0,40,8,,,,,,,AMSA20.jpg,AMNE14.jpg,AMSA11.jpg,AMNE15.jpg,AMSA20.jpg,MS,2,num_8,16,num_8,1.41675513738,,,2017_Mar_16_1707,60.0137051666,MAFE4ImagesEEG,001,100072,
AFNE01.JPG,AFNE01.JPG,AFNE01.JPG,AFNE01.JPG,AFNE01.JPG,AFNE01.JPG,,,,,,,,,,,,,,,,,4,1,41,3,,,,,,,AMNE09.jpg,AMSA15.jpg,AMSA20.jpg,AMNE03.jpg,AMNE03.jpg,MN,1,num_4,32,num_8,1.88341228885,,,2017_Mar_16_1707,60.0137051666,MAFE4ImagesEEG,001,100072,
AFNE01.JPG,AFNE01.JPG,AFNE01.JPG,AFNE01.JPG,AFNE01.JPG,AFNE01.JPG,,,,,,,,,,,,,,,,,4,2,42,0,,,,,,,AMNE20.jpg,AMNE16.jpg,AMSA08.jpg,AMSA18.jpg,AMNE20.jpg,MN,1,num_8,16,num_8,1.65006334614,,,2017_Mar_16_1707,60.0137051666,MAFE4ImagesEEG,001,100072,
AFNE01.JPG,AFNE01.JPG,AFNE01.JPG,AFNE01.JPG,AFNE01.JPG,AFNE01.JPG,,,,,,,,,,,,,,,,,4,3,43,2,,,,,,,AMSA12.jpg,AMNE15.jpg,AMSA13.jpg,AMNE09.jpg,AMSA13.jpg,MS,2,num_2,16,num_2,0.883526472375,,,2017_Mar_16_1707,60.0137051666,MAFE4ImagesEEG,001,100072,
AFNE01.JPG,AFNE01.JPG,AFNE01.JPG,AFNE01.JPG,AFNE01.JPG,AFNE01.JPG,,,,,,,,,,,,,,,,,4,4,44,7,,,,,,,AMNE12.jpg,AMNE14.jpg,AMSA14.jpg,AMSA02.jpg,AMNE12.jpg,MN,1,num_8,16,num_8,1.2334749935,,,2017_Mar_16_1707,60.0137051666,MAFE4ImagesEEG,001,100072,
AFNE01.JPG,AFNE01.JPG,AFNE01.JPG,AFNE01.JPG,AFNE01.JPG,AFNE01.JPG,,,,,,,,,,,,,,,,,4,5,45,9,,,,,,,AMNE13.jpg,AMSA17.jpg,AMSA10.jpg,AMNE01.jpg,AMNE13.jpg,MN,1,num_8,16,num_8,1.06675690145,,,2017_Mar_16_1707,60.0137051666,MAFE4ImagesEEG,001,100072,
AFNE01.JPG,AFNE01.JPG,AFNE01.JPG,AFNE01.JPG,AFNE01.JPG,AFNE01.JPG,,,,,,,,,,,,,,,,,4,6,46,1,,,,,,,AMSA16.jpg,AMNE09.jpg,AMSA18.jpg,AMNE05.jpg,AMSA16.jpg,MS,2,num_8,32,num_2,2.86660904041,,,2017_Mar_16_1707,60.0137051666,MAFE4ImagesEEG,001,100072,
AFNE01.JPG,AFNE01.JPG,AFNE01.JPG,AFNE01.JPG,AFNE01.JPG,AFNE01.JPG,,,,,,,,,,,,,,,,,4,7,47,6,,,,,,,AMSA10.jpg,AMNE05.jpg,AMNE17.jpg,AMSA12.jpg,AMNE17.jpg,MN,1,num_2,32,num_4,1.13346408831,,,2017_Mar_16_1707,60.0137051666,MAFE4ImagesEEG,001,100072,
AFNE01.JPG,AFNE01.JPG,AFNE01.JPG,AFNE01.JPG,AFNE01.JPG,AFNE01.JPG,,,,,,,,,,,,,,,,,4,8,48,5,,,,,,,AMNE02.jpg,AMNE01.jpg,AMSA06.jpg,AMSA11.jpg,AMSA06.jpg,MS,2,num_2,32,num_8,1.33343393879,,,2017_Mar_16_1707,60.0137051666,MAFE4ImagesEEG,001,100072,
AFNE01.JPG,AFNE01.JPG,AFNE01.JPG,AFNE01.JPG,AFNE01.JPG,AFNE01.JPG,,,,,,,,,,,,,,,,,4,9,49,4,,,,,,,AMSA09.jpg,AMNE13.jpg,AMNE16.jpg,AMSA01.jpg,AMNE13.jpg,MN,1,num_6,32,num_8,1.21676508046,,,2017_Mar_16_1707,60.0137051666,MAFE4ImagesEEG,001,100072,
AFNE01.JPG,AFNE01.JPG,AFNE01.JPG,AFNE01.JPG,AFNE01.JPG,AFNE01.JPG,,,,,,,,,,,,,,,,,5,0,50,0,,,,,,,AMNE17.jpg,AMNE02.jpg,AMSA14.jpg,AMSA02.jpg,AMNE02.jpg,MN,1,num_6,16,num_6,0.633175422321,,,2017_Mar_16_1707,60.0137051666,MAFE4ImagesEEG,001,100072,
AFNE01.JPG,AFNE01.JPG,AFNE01.JPG,AFNE01.JPG,AFNE01.JPG,AFNE01.JPG,,,,,,,,,,,,,,,,,5,1,51,5,,,,,,,AMNE17.jpg,AMSA19.jpg,AMSA03.jpg,AMNE07.jpg,AMNE17.jpg,MN,1,num_8,16,num_8,1.00016261521,,,2017_Mar_16_1707,60.0137051666,MAFE4ImagesEEG,001,100072,
AFNE01.JPG,AFNE01.JPG,AFNE01.JPG,AFNE01.JPG,AFNE01.JPG,AFNE01.JPG,,,,,,,,,,,,,,,,,5,2,52,4,,,,,,,AMNE20.jpg,AMNE07.jpg,AMSA14.jpg,AMSA17.jpg,AMNE07.jpg,MN,1,num_6,16,num_6,1.25005532766,,,2017_Mar_16_1707,60.0137051666,MAFE4ImagesEEG,001,100072,
AFNE01.JPG,AFNE01.JPG,AFNE01.JPG,AFNE01.JPG,AFNE01.JPG,AFNE01.JPG,,,,,,,,,,,,,,,,,5,3,53,1,,,,,,,AMSA05.jpg,AMSA12.jpg,AMNE06.jpg,AMNE09.jpg,AMNE06.jpg,MN,1,num_2,16,num_2,0.983468739083,,,2017_Mar_16_1707,60.0137051666,MAFE4ImagesEEG,001,100072,
AFNE01.JPG,AFNE01.JPG,AFNE01.JPG,AFNE01.JPG,AFNE01.JPG,AFNE01.JPG,,,,,,,,,,,,,,,,,5,4,54,2,,,,,,,AMSA20.jpg,AMSA02.jpg,AMNE15.jpg,AMNE10.jpg,AMSA02.jpg,MS,2,num_6,16,num_6,1.05047132738,,,2017_Mar_16_1707,60.0137051666,MAFE4ImagesEEG,001,100072,
AFNE01.JPG,AFNE01.JPG,AFNE01.JPG,AFNE01.JPG,AFNE01.JPG,AFNE01.JPG,,,,,,,,,,,,,,,,,5,5,55,6,,,,,,,AMSA06.jpg,AMSA20.jpg,AMNE13.jpg,AMNE11.jpg,AMNE11.jpg,MN,1,num_4,32,num_8,1.55008708092,,,2017_Mar_16_1707,60.0137051666,MAFE4ImagesEEG,001,100072,
AFNE01.JPG,AFNE01.JPG,AFNE01.JPG,AFNE01.JPG,AFNE01.JPG,AFNE01.JPG,,,,,,,,,,,,,,,,,5,6,56,7,,,,,,,AMSA18.jpg,AMNE12.jpg,AMSA02.jpg,AMNE20.jpg,AMSA02.jpg,MS,2,num_2,16,num_2,1.18339079921,,,2017_Mar_16_1707,60.0137051666,MAFE4ImagesEEG,001,100072,
AFNE01.JPG,AFNE01.JPG,AFNE01.JPG,AFNE01.JPG,AFNE01.JPG,AFNE01.JPG,,,,,,,,,,,,,,,,,5,7,57,9,,,,,,,AMNE06.jpg,AMNE12.jpg,AMSA01.jpg,AMSA14.jpg,AMSA01.jpg,MS,2,num_2,32,num_4,1.3666369447,,,2017_Mar_16_1707,60.0137051666,MAFE4ImagesEEG,001,100072,
AFNE01.JPG,AFNE01.JPG,AFNE01.JPG,AFNE01.JPG,AFNE01.JPG,AFNE01.JPG,,,,,,,,,,,,,,,,,5,8,58,3,,,,,,,AMSA07.jpg,AMNE03.jpg,AMSA08.jpg,AMNE05.jpg,AMNE05.jpg,MN,1,num_4,32,num_6,1.23346440913,,,2017_Mar_16_1707,60.0137051666,MAFE4ImagesEEG,001,100072,
AFNE01.JPG,AFNE01.JPG,AFNE01.JPG,AFNE01.JPG,AFNE01.JPG,AFNE01.JPG,,,,,,,,,,,,,,,,,5,9,59,8,,,,,,,AMNE11.jpg,AMSA13.jpg,AMNE10.jpg,AMSA19.jpg,AMNE10.jpg,MN,1,num_2,16,num_2,0.983437627321,,,2017_Mar_16_1707,60.0137051666,MAFE4ImagesEEG,001,100072,
,,,,,,,,,,,,,,,,,,,,,,,,,,,,,,,,,,,,,,,,,,,space,6.83301601454,2017_Mar_16_1707,60.0137051666,MAFE4ImagesEEG,001,100072,
AFNE01.JPG,AFNE01.JPG,AFNE01.JPG,AFNE01.JPG,AFNE01.JPG,AFNE01.JPG,,,,,,,,,,,,,,,,,,,,,0,0,0,4,,,AFSA01.jpg,AFNE09.jpg,AFSA10.jpg,AFNE08.jpg,AFSA10.jpg,FS,4,num_2,32,num_8,1.81672178046,,,2017_Mar_16_1707,60.0137051666,MAFE4ImagesEEG,001,100072,
AFNE01.JPG,AFNE01.JPG,AFNE01.JPG,AFNE01.JPG,AFNE01.JPG,AFNE01.JPG,,,,,,,,,,,,,,,,,,,,,0,1,1,9,,,AFNE15.jpg,AFNE14.jpg,AFSA02.jpg,AFSA06.jpg,AFSA02.jpg,FS,4,num_2,16,num_2,0.850002405583,,,2017_Mar_16_1707,60.0137051666,MAFE4ImagesEEG,001,100072,
AFNE01.JPG,AFNE01.JPG,AFNE01.JPG,AFNE01.JPG,AFNE01.JPG,AFNE01.JPG,,,,,,,,,,,,,,,,,,,,,0,2,2,5,,,AFSA05.jpg,AFNE01.jpg,AFNE14.jpg,AFSA08.jpg,AFNE01.jpg,FN,3,num_6,32,num_4,1.18343955174,,,2017_Mar_16_1707,60.0137051666,MAFE4ImagesEEG,001,100072,
AFNE01.JPG,AFNE01.JPG,AFNE01.JPG,AFNE01.JPG,AFNE01.JPG,AFNE01.JPG,,,,,,,,,,,,,,,,,,,,,0,3,3,1,,,AFSA08.jpg,AFSA03.jpg,AFNE15.jpg,AFNE12.jpg,AFNE12.jpg,FN,3,num_4,16,num_4,1.21681415359,,,2017_Mar_16_1707,60.0137051666,MAFE4ImagesEEG,001,100072,
AFNE01.JPG,AFNE01.JPG,AFNE01.JPG,AFNE01.JPG,AFNE01.JPG,AFNE01.JPG,,,,,,,,,,,,,,,,,,,,,0,4,4,3,,,AFSA12.jpg,AFNE16.jpg,AFNE19.jpg,AFSA15.jpg,AFNE16.jpg,FN,3,num_6,16,num_6,1.03312602837,,,2017_Mar_16_1707,60.0137051666,MAFE4ImagesEEG,001,100072,
AFNE01.JPG,AFNE01.JPG,AFNE01.JPG,AFNE01.JPG,AFNE01.JPG,AFNE01.JPG,,,,,,,,,,,,,,,,,,,,,0,5,5,0,,,AFSA12.jpg,AFNE20.jpg,AFSA16.jpg,AFNE07.jpg,AFNE20.jpg,FN,3,num_6,16,num_6,1.05009157129,,,2017_Mar_16_1707,60.0137051666,MAFE4ImagesEEG,001,100072,
AFNE01.JPG,AFNE01.JPG,AFNE01.JPG,AFNE01.JPG,AFNE01.JPG,AFNE01.JPG,,,,,,,,,,,,,,,,,,,,,0,6,6,7,,,AFSA04.jpg,AFNE09.jpg,AFNE02.jpg,AFSA13.jpg,AFSA04.jpg,FS,4,num_8,16,num_8,0.883130037575,,,2017_Mar_16_1707,60.0137051666,MAFE4ImagesEEG,001,100072,
AFNE01.JPG,AFNE01.JPG,AFNE01.JPG,AFNE01.JPG,AFNE01.JPG,AFNE01.JPG,,,,,,,,,,,,,,,,,,,,,0,7,7,2,,,AFSA03.jpg,AFNE15.jpg,AFSA04.jpg,AFNE17.jpg,AFSA04.jpg,FS,4,num_2,32,num_8,1.55007425137,,,2017_Mar_16_1707,60.0137051666,MAFE4ImagesEEG,001,100072,
AFNE01.JPG,AFNE01.JPG,AFNE01.JPG,AFNE01.JPG,AFNE01.JPG,AFNE01.JPG,,,,,,,,,,,,,,,,,,,,,0,8,8,8,,,AFSA11.jpg,AFNE13.jpg,AFNE17.jpg,AFSA18.jpg,AFSA11.jpg,FS,4,num_8,16,num_8,0.700119636022,,,2017_Mar_16_1707,60.0137051666,MAFE4ImagesEEG,001,100072,
AFNE01.JPG,AFNE01.JPG,AFNE01.JPG,AFNE01.JPG,AFNE01.JPG,AFNE01.JPG,,,,,,,,,,,,,,,,,,,,,0,9,9,6,,,AFNE01.jpg,AFNE12.jpg,AFSA18.jpg,AFSA09.jpg,AFNE12.jpg,FN,3,num_6,16,num_6,0.916826662375,,,2017_Mar_16_1707,60.0137051666,MAFE4ImagesEEG,001,100072,
AFNE01.JPG,AFNE01.JPG,AFNE01.JPG,AFNE01.JPG,AFNE01.JPG,AFNE01.JPG,,,,,,,,,,,,,,,,,,,,,1,0,10,5,,,AFNE03.jpg,AFSA04.jpg,AFNE19.jpg,AFSA08.jpg,AFNE19.jpg,FN,3,num_2,16,num_2,1.05012941861,,,2017_Mar_16_1707,60.0137051666,MAFE4ImagesEEG,001,100072,
AFNE01.JPG,AFNE01.JPG,AFNE01.JPG,AFNE01.JPG,AFNE01.JPG,AFNE01.JPG,,,,,,,,,,,,,,,,,,,,,1,1,11,4,,,AFSA10.jpg,AFNE14.jpg,AFNE07.jpg,AFSA14.jpg,AFSA10.jpg,FS,4,num_8,16,num_8,1.36671616754,,,2017_Mar_16_1707,60.0137051666,MAFE4ImagesEEG,001,100072,
AFNE01.JPG,AFNE01.JPG,AFNE01.JPG,AFNE01.JPG,AFNE01.JPG,AFNE01.JPG,,,,,,,,,,,,,,,,,,,,,1,2,12,6,,,AFSA20.jpg,AFNE18.jpg,AFSA11.jpg,AFNE13.jpg,AFSA20.jpg,FS,4,num_8,32,num_4,1.61674487381,,,2017_Mar_16_1707,60.0137051666,MAFE4ImagesEEG,001,100072,
AFNE01.JPG,AFNE01.JPG,AFNE01.JPG,AFNE01.JPG,AFNE01.JPG,AFNE01.JPG,,,,,,,,,,,,,,,,,,,,,1,3,13,3,,,AFNE19.jpg,AFSA16.jpg,AFNE04.jpg,AFSA18.jpg,AFNE19.jpg,FN,3,num_8,16,num_8,0.850134229637,,,2017_Mar_16_1707,60.0137051666,MAFE4ImagesEEG,001,100072,
AFNE01.JPG,AFNE01.JPG,AFNE01.JPG,AFNE01.JPG,AFNE01.JPG,AFNE01.JPG,,,,,,,,,,,,,,,,,,,,,1,4,14,9,,,AFNE05.jpg,AFNE20.jpg,AFSA16.jpg,AFSA19.jpg,AFSA19.jpg,FS,4,num_4,32,num_8,1.5500748927,,,2017_Mar_16_1707,60.0137051666,MAFE4ImagesEEG,001,100072,
AFNE01.JPG,AFNE01.JPG,AFNE01.JPG,AFNE01.JPG,AFNE01.JPG,AFNE01.JPG,,,,,,,,,,,,,,,,,,,,,1,5,15,7,,,AFSA08.jpg,AFNE18.jpg,AFSA06.jpg,AFNE17.jpg,AFSA06.jpg,FS,4,num_2,32,num_8,1.08340459107,,,2017_Mar_16_1707,60.0137051666,MAFE4ImagesEEG,001,100072,
AFNE01.JPG,AFNE01.JPG,AFNE01.JPG,AFNE01.JPG,AFNE01.JPG,AFNE01.JPG,,,,,,,,,,,,,,,,,,,,,1,6,16,1,,,AFNE07.jpg,AFNE02.jpg,AFSA07.jpg,AFSA19.jpg,AFNE02.jpg,FN,3,num_6,16,num_6,0.900123805739,,,2017_Mar_16_1707,60.0137051666,MAFE4ImagesEEG,001,100072,
AFNE01.JPG,AFNE01.JPG,AFNE01.JPG,AFNE01.JPG,AFNE01.JPG,AFNE01.JPG,,,,,,,,,,,,,,,,,,,,,1,7,17,2,,,AFSA09.jpg,AFNE03.jpg,AFSA20.jpg,AFNE18.jpg,AFNE18.jpg,FN,3,num_4,16,num_4,1.38341902429,,,2017_Mar_16_1707,60.0137051666,MAFE4ImagesEEG,001,100072,
AFNE01.JPG,AFNE01.JPG,AFNE01.JPG,AFNE01.JPG,AFNE01.JPG,AFNE01.JPG,,,,,,,,,,,,,,,,,,,,,1,8,18,8,,,AFSA07.jpg,AFSA09.jpg,AFNE11.jpg,AFNE09.jpg,AFSA07.jpg,FS,4,num_8,16,num_8,1.28347226721,,,2017_Mar_16_1707,60.0137051666,MAFE4ImagesEEG,001,100072,
AFNE01.JPG,AFNE01.JPG,AFNE01.JPG,AFNE01.JPG,AFNE01.JPG,AFNE01.JPG,,,,,,,,,,,,,,,,,,,,,1,9,19,0,,,AFNE11.jpg,AFSA04.jpg,AFSA10.jpg,AFNE02.jpg,AFSA04.jpg,FS,4,num_6,16,num_6,1.13338775223,,,2017_Mar_16_1707,60.0137051666,MAFE4ImagesEEG,001,100072,
AFNE01.JPG,AFNE01.JPG,AFNE01.JPG,AFNE01.JPG,AFNE01.JPG,AFNE01.JPG,,,,,,,,,,,,,,,,,,,,,2,0,20,1,,,AFSA14.jpg,AFNE08.jpg,AFSA20.jpg,AFNE18.jpg,AFSA14.jpg,FS,4,num_8,16,num_8,1.233449655,,,2017_Mar_16_1707,60.0137051666,MAFE4ImagesEEG,001,100072,
AFNE01.JPG,AFNE01.JPG,AFNE01.JPG,AFNE01.JPG,AFNE01.JPG,AFNE01.JPG,,,,,,,,,,,,,,,,,,,,,2,1,21,7,,,AFNE01.jpg,AFSA04.jpg,AFNE04.jpg,AFSA10.jpg,AFSA04.jpg,FS,4,num_6,16,num_6,0.683483493165,,,2017_Mar_16_1707,60.0137051666,MAFE4ImagesEEG,001,100072,
AFNE01.JPG,AFNE01.JPG,AFNE01.JPG,AFNE01.JPG,AFNE01.JPG,AFNE01.JPG,,,,,,,,,,,,,,,,,,,,,2,2,22,9,,,AFSA06.jpg,AFNE13.jpg,AFNE12.jpg,AFSA02.jpg,AFNE13.jpg,FN,3,num_6,32,num_8,1.03341758111,,,2017_Mar_16_1707,60.0137051666,MAFE4ImagesEEG,001,100072,
AFNE01.JPG,AFNE01.JPG,AFNE01.JPG,AFNE01.JPG,AFNE01.JPG,AFNE01.JPG,,,,,,,,,,,,,,,,,,,,,2,3,23,0,,,AFSA07.jpg,AFNE09.jpg,AFNE13.jpg,AFSA12.jpg,AFSA12.jpg,FS,4,num_4,32,num_8,0.933443560963,,,2017_Mar_16_1707,60.0137051666,MAFE4ImagesEEG,001,100072,
AFNE01.JPG,AFNE01.JPG,AFNE01.JPG,AFNE01.JPG,AFNE01.JPG,AFNE01.JPG,,,,,,,,,,,,,,,,,,,,,2,4,24,5,,,AFNE10.jpg,AFSA18.jpg,AFNE18.jpg,AFSA12.jpg,AFSA18.jpg,FS,4,num_6,16,num_6,1.33349744533,,,2017_Mar_16_1707,60.0137051666,MAFE4ImagesEEG,001,100072,
AFNE01.JPG,AFNE01.JPG,AFNE01.JPG,AFNE01.JPG,AFNE01.JPG,AFNE01.JPG,,,,,,,,,,,,,,,,,,,,,2,5,25,6,,,AFNE02.jpg,AFSA07.jpg,AFNE14.jpg,AFSA19.jpg,AFNE14.jpg,FN,3,num_2,32,num_4,1.55007745861,,,2017_Mar_16_1707,60.0137051666,MAFE4ImagesEEG,001,100072,
AFNE01.JPG,AFNE01.JPG,AFNE01.JPG,AFNE01.JPG,AFNE01.JPG,AFNE01.JPG,,,,,,,,,,,,,,,,,,,,,2,6,26,3,,,AFSA17.jpg,AFNE08.jpg,AFNE09.jpg,AFSA16.jpg,AFNE09.jpg,FN,3,num_2,16,num_2,1.76668826316,,,2017_Mar_16_1707,60.0137051666,MAFE4ImagesEEG,001,100072,
AFNE01.JPG,AFNE01.JPG,AFNE01.JPG,AFNE01.JPG,AFNE01.JPG,AFNE01.JPG,,,,,,,,,,,,,,,,,,,,,2,7,27,8,,,AFSA08.jpg,AFSA05.jpg,AFNE11.jpg,AFNE01.jpg,AFSA05.jpg,FS,4,num_6,16,num_6,0.683480606531,,,2017_Mar_16_1707,60.0137051666,MAFE4ImagesEEG,001,100072,
AFNE01.JPG,AFNE01.JPG,AFNE01.JPG,AFNE01.JPG,AFNE01.JPG,AFNE01.JPG,,,,,,,,,,,,,,,,,,,,,2,8,28,4,,,AFNE05.jpg,AFNE20.jpg,AFSA09.jpg,AFSA12.jpg,AFNE20.jpg,FN,3,num_6,16,num_6,2.05004185659,,,2017_Mar_16_1707,60.0137051666,MAFE4ImagesEEG,001,100072,
AFNE01.JPG,AFNE01.JPG,AFNE01.JPG,AFNE01.JPG,AFNE01.JPG,AFNE01.JPG,,,,,,,,,,,,,,,,,,,,,2,9,29,2,,,AFNE18.jpg,AFSA19.jpg,AFSA02.jpg,AFNE11.jpg,AFNE18.jpg,FN,3,num_8,16,num_8,1.43345703208,,,2017_Mar_16_1707,60.0137051666,MAFE4ImagesEEG,001,100072,
AFNE01.JPG,AFNE01.JPG,AFNE01.JPG,AFNE01.JPG,AFNE01.JPG,AFNE01.JPG,,,,,,,,,,,,,,,,,,,,,3,0,30,9,,,AFNE16.jpg,AFNE18.jpg,AFSA10.jpg,AFSA18.jpg,AFNE18.jpg,FN,3,num_6,32,num_4,1.43340410991,,,2017_Mar_16_1707,60.0137051666,MAFE4ImagesEEG,001,100072,
AFNE01.JPG,AFNE01.JPG,AFNE01.JPG,AFNE01.JPG,AFNE01.JPG,AFNE01.JPG,,,,,,,,,,,,,,,,,,,,,3,1,31,8,,,AFSA18.jpg,AFNE19.jpg,AFNE04.jpg,AFSA08.jpg,AFSA18.jpg,FS,4,num_8,32,num_4,1.75009830692,,,2017_Mar_16_1707,60.0137051666,MAFE4ImagesEEG,001,100072,
AFNE01.JPG,AFNE01.JPG,AFNE01.JPG,AFNE01.JPG,AFNE01.JPG,AFNE01.JPG,,,,,,,,,,,,,,,,,,,,,3,2,32,7,,,AFSA17.jpg,AFNE15.jpg,AFNE06.jpg,AFSA07.jpg,AFSA07.jpg,FS,4,num_4,32,num_2,1.36672963866,,,2017_Mar_16_1707,60.0137051666,MAFE4ImagesEEG,001,100072,
AFNE01.JPG,AFNE01.JPG,AFNE01.JPG,AFNE01.JPG,AFNE01.JPG,AFNE01.JPG,,,,,,,,,,,,,,,,,,,,,3,3,33,6,,,AFSA12.jpg,AFNE14.jpg,AFSA19.jpg,AFNE18.jpg,AFNE18.jpg,FN,3,num_4,16,num_4,1.79993007868,,,2017_Mar_16_1707,60.0137051666,MAFE4ImagesEEG,001,100072,
AFNE01.JPG,AFNE01.JPG,AFNE01.JPG,AFNE01.JPG,AFNE01.JPG,AFNE01.JPG,,,,,,,,,,,,,,,,,,,,,3,4,34,2,,,AFSA05.jpg,AFNE18.jpg,AFSA18.jpg,AFNE01.jpg,AFSA05.jpg,FS,4,num_8,16,num_8,1.05011723051,,,2017_Mar_16_1707,60.0137051666,MAFE4ImagesEEG,001,100072,
AFNE01.JPG,AFNE01.JPG,AFNE01.JPG,AFNE01.JPG,AFNE01.JPG,AFNE01.JPG,,,,,,,,,,,,,,,,,,,,,3,5,35,5,,,AFNE10.jpg,AFSA20.jpg,AFNE17.jpg,AFSA17.jpg,AFSA20.jpg,FS,4,num_6,32,num_8,2.05027888343,,,2017_Mar_16_1707,60.0137051666,MAFE4ImagesEEG,001,100072,
AFNE01.JPG,AFNE01.JPG,AFNE01.JPG,AFNE01.JPG,AFNE01.JPG,AFNE01.JPG,,,,,,,,,,,,,,,,,,,,,3,6,36,3,,,AFNE13.jpg,AFSA07.jpg,AFNE12.jpg,AFSA02.jpg,AFSA02.jpg,FS,4,num_4,16,num_4,0.683468097704,,,2017_Mar_16_1707,60.0137051666,MAFE4ImagesEEG,001,100072,
AFNE01.JPG,AFNE01.JPG,AFNE01.JPG,AFNE01.JPG,AFNE01.JPG,AFNE01.JPG,,,,,,,,,,,,,,,,,,,,,3,7,37,1,,,AFNE18.jpg,AFSA06.jpg,AFNE04.jpg,AFSA12.jpg,AFSA06.jpg,FS,4,num_6,32,num_8,1.00015203073,,,2017_Mar_16_1707,60.0137051666,MAFE4ImagesEEG,001,100072,
AFNE01.JPG,AFNE01.JPG,AFNE01.JPG,AFNE01.JPG,AFNE01.JPG,AFNE01.JPG,,,,,,,,,,,,,,,,,,,,,3,8,38,0,,,AFNE19.jpg,AFSA11.jpg,AFNE07.jpg,AFSA01.jpg,AFNE19.jpg,FN,3,num_8,16,num_8,1.06680340879,,,2017_Mar_16_1707,60.0137051666,MAFE4ImagesEEG,001,100072,
AFNE01.JPG,AFNE01.JPG,AFNE01.JPG,AFNE01.JPG,AFNE01.JPG,AFNE01.JPG,,,,,,,,,,,,,,,,,,,,,3,9,39,4,,,AFSA13.jpg,AFSA14.jpg,AFNE19.jpg,AFNE04.jpg,AFSA13.jpg,FS,4,num_8,16,num_8,1.26674022304,,,2017_Mar_16_1707,60.0137051666,MAFE4ImagesEEG,001,100072,
