IPosition2,IPosition3,IPosition1,IPosition6,IPosition4,IPosition5,TrialsM1.thisRepN,TrialsM1.thisTrialN,TrialsM1.thisN,TrialsM1.thisIndex,TrialsF1.thisRepN,TrialsF1.thisTrialN,TrialsF1.thisN,TrialsF1.thisIndex,TrialsM2.thisRepN,TrialsM2.thisTrialN,TrialsM2.thisN,TrialsM2.thisIndex,TrialsF2.thisRepN,TrialsF2.thisTrialN,TrialsF2.thisN,TrialsF2.thisIndex,TrialsM3.thisRepN,TrialsM3.thisTrialN,TrialsM3.thisN,TrialsM3.thisIndex,TrialsF3.thisRepN,TrialsF3.thisTrialN,TrialsF3.thisN,TrialsF3.thisIndex,InstrKey_resp.keys,InstrKey_resp.rt,Image0 _Position,Image1 _Position,Image2 _Position,Image3 _Position,Center_image,condition,code,correct_answer,accuracy,Key_Resp.keys,Key_Resp.rt,BreakKey_resp.keys,BreakKey_resp.rt,date,frameRate,expName,session,participant,
,,,,,,,,,,,,,,,,,,,,,,,,,,,,,,space,13.7161841726,,,,,,,,,,,,,,2017_Mar_23_1056,60.0060241058,MAFE4ImagesEEG,001,100059,
AFNE23.JPG,AFNE24.JPG,AFNE22.JPG,AFSA24.JPG,AFSA22.JPG,AFSA23.JPG,0,0,0,8,,,,,,,,,,,,,,,,,,,,,,,AMSA08.jpg,AMNE02.jpg,AMNE06.jpg,AMSA13.jpg,AMSA08.jpg,MS,2,num_8,32,num_6,2.76663684857,,,2017_Mar_23_1056,60.0060241058,MAFE4ImagesEEG,001,100059,
AMNE23.JPG,AMNE24.JPG,AMNE22.JPG,AMSA24.JPG,AMSA22.JPG,AMSA23.JPG,0,1,1,9,,,,,,,,,,,,,,,,,,,,,,,AMSA20.jpg,AMSA16.jpg,AMNE04.jpg,AMNE19.jpg,AMNE19.jpg,MN,1,num_4,16,num_4,1.50010215561,,,2017_Mar_23_1056,60.0060241058,MAFE4ImagesEEG,001,100059,
AFSA21.JPG,AFNE23.JPG,AFNE21.JPG,AFSA25.JPG,AFNE25.JPG,AFSA23.JPG,0,2,2,4,,,,,,,,,,,,,,,,,,,,,,,AMSA14.jpg,AMNE05.jpg,AMSA18.jpg,AMNE13.jpg,AMSA14.jpg,MS,2,num_8,16,num_8,0.833500812936,,,2017_Mar_23_1056,60.0060241058,MAFE4ImagesEEG,001,100059,
AFSA21.JPG,AFNE22.JPG,AFNE21.JPG,AFSA23.JPG,AFSA22.JPG,AFNE23.JPG,0,3,3,0,,,,,,,,,,,,,,,,,,,,,,,AMSA05.jpg,AMNE08.jpg,AMNE03.jpg,AMSA12.jpg,AMSA12.jpg,MS,2,num_4,32,num_2,2.46663938242,,,2017_Mar_23_1056,60.0060241058,MAFE4ImagesEEG,001,100059,
AMNE22.JPG,AMSA24.JPG,AMSA22.JPG,AMNE25.JPG,AMNE24.JPG,AMSA25.JPG,0,4,4,7,,,,,,,,,,,,,,,,,,,,,,,AMSA19.jpg,AMSA06.jpg,AMNE12.jpg,AMNE03.jpg,AMSA19.jpg,MS,2,num_8,32,num_6,1.11658856121,,,2017_Mar_23_1056,60.0060241058,MAFE4ImagesEEG,001,100059,
AFSA25.JPG,AFNE24.JPG,AFSA24.JPG,AFNE21.JPG,AFSA21.JPG,AFNE25.JPG,0,5,5,2,,,,,,,,,,,,,,,,,,,,,,,AMNE14.jpg,AMSA11.jpg,AMNE07.jpg,AMSA18.jpg,AMNE07.jpg,MN,1,num_2,32,num_8,0.983456887654,,,2017_Mar_23_1056,60.0060241058,MAFE4ImagesEEG,001,100059,
AMSA25.JPG,AMNE24.JPG,AMSA24.JPG,AMNE26.JPG,AMSA21.JPG,AMNE25.JPG,0,6,6,3,,,,,,,,,,,,,,,,,,,,,,,AMNE10.jpg,AMSA12.jpg,AMNE16.jpg,AMSA06.jpg,AMNE10.jpg,MN,1,num_8,16,num_8,0.783458683756,,,2017_Mar_23_1056,60.0060241058,MAFE4ImagesEEG,001,100059,
AMSA21.JPG,AMNE22.JPG,AMNE21.JPG,AMSA23.JPG,AMSA22.JPG,AMNE23.JPG,0,7,7,1,,,,,,,,,,,,,,,,,,,,,,,AMSA01.jpg,AMNE01.jpg,AMSA18.jpg,AMNE12.jpg,AMSA01.jpg,MS,2,num_8,32,num_6,1.20008416206,,,2017_Mar_23_1056,60.0060241058,MAFE4ImagesEEG,001,100059,
AFNE22.JPG,AFSA24.JPG,AFSA22.JPG,AFNE25.JPG,AFNE24.JPG,AFSA25.JPG,0,8,8,6,,,,,,,,,,,,,,,,,,,,,,,AMSA14.jpg,AMSA09.jpg,AMNE12.jpg,AMNE05.jpg,AMNE12.jpg,MN,1,num_2,32,num_4,0.883401816594,,,2017_Mar_23_1056,60.0060241058,MAFE4ImagesEEG,001,100059,
AMSA21.JPG,AMNE23.JPG,AMNE21.JPG,AMSA25.JPG,AMNE25.JPG,AMSA23.JPG,0,9,9,5,,,,,,,,,,,,,,,,,,,,,,,AMNE11.jpg,AMNE05.jpg,AMSA10.jpg,AMSA16.jpg,AMSA10.jpg,MS,2,num_2,16,num_2,1.01681445818,,,2017_Mar_23_1056,60.0060241058,MAFE4ImagesEEG,001,100059,
AMSA25.JPG,AMNE24.JPG,AMSA24.JPG,AMNE26.JPG,AMSA21.JPG,AMNE25.JPG,,,,,0,0,0,3,,,,,,,,,,,,,,,,,,,AFNE14.jpg,AFNE13.jpg,AFSA17.jpg,AFSA14.jpg,AFSA14.jpg,FS,4,num_4,16,num_4,0.783445854206,,,2017_Mar_23_1056,60.0060241058,MAFE4ImagesEEG,001,100059,
AFNE23.JPG,AFNE24.JPG,AFNE22.JPG,AFSA24.JPG,AFSA22.JPG,AFSA23.JPG,,,,,0,1,1,8,,,,,,,,,,,,,,,,,,,AFNE20.jpg,AFNE07.jpg,AFSA05.jpg,AFSA12.jpg,AFSA12.jpg,FS,4,num_4,16,num_4,1.26670083613,,,2017_Mar_23_1056,60.0060241058,MAFE4ImagesEEG,001,100059,
AFSA25.JPG,AFNE24.JPG,AFSA24.JPG,AFNE21.JPG,AFSA21.JPG,AFNE25.JPG,,,,,0,2,2,2,,,,,,,,,,,,,,,,,,,AFNE07.jpg,AFSA17.jpg,AFSA01.jpg,AFNE09.jpg,AFNE09.jpg,FN,3,num_4,16,num_4,1.11674155405,,,2017_Mar_23_1056,60.0060241058,MAFE4ImagesEEG,001,100059,
AMSA21.JPG,AMNE23.JPG,AMNE21.JPG,AMSA25.JPG,AMNE25.JPG,AMSA23.JPG,,,,,0,3,3,5,,,,,,,,,,,,,,,,,,,AFSA08.jpg,AFSA13.jpg,AFNE06.jpg,AFNE02.jpg,AFNE06.jpg,FN,3,num_2,32,num_6,1.36671292805,,,2017_Mar_23_1056,60.0060241058,MAFE4ImagesEEG,001,100059,
AFNE22.JPG,AFSA24.JPG,AFSA22.JPG,AFNE25.JPG,AFNE24.JPG,AFSA25.JPG,,,,,0,4,4,6,,,,,,,,,,,,,,,,,,,AFNE04.jpg,AFSA11.jpg,AFSA15.jpg,AFNE19.jpg,AFNE19.jpg,FN,3,num_4,16,num_4,0.90011427959,,,2017_Mar_23_1056,60.0060241058,MAFE4ImagesEEG,001,100059,
AMNE22.JPG,AMSA24.JPG,AMSA22.JPG,AMNE25.JPG,AMNE24.JPG,AMSA25.JPG,,,,,0,5,5,7,,,,,,,,,,,,,,,,,,,AFSA18.jpg,AFSA13.jpg,AFNE20.jpg,AFNE19.jpg,AFSA18.jpg,FS,4,num_8,32,num_2,2.23335064261,,,2017_Mar_23_1056,60.0060241058,MAFE4ImagesEEG,001,100059,
AFSA21.JPG,AFNE23.JPG,AFNE21.JPG,AFSA25.JPG,AFNE25.JPG,AFSA23.JPG,,,,,0,6,6,4,,,,,,,,,,,,,,,,,,,AFSA12.jpg,AFSA08.jpg,AFNE20.jpg,AFNE18.jpg,AFSA12.jpg,FS,4,num_8,16,num_8,0.683462308079,,,2017_Mar_23_1056,60.0060241058,MAFE4ImagesEEG,001,100059,
AMSA21.JPG,AMNE22.JPG,AMNE21.JPG,AMSA23.JPG,AMSA22.JPG,AMNE23.JPG,,,,,0,7,7,1,,,,,,,,,,,,,,,,,,,AFNE06.jpg,AFSA03.jpg,AFNE16.jpg,AFSA10.jpg,AFSA10.jpg,FS,4,num_4,32,num_8,1.33339544991,,,2017_Mar_23_1056,60.0060241058,MAFE4ImagesEEG,001,100059,
AFSA21.JPG,AFNE22.JPG,AFNE21.JPG,AFSA23.JPG,AFSA22.JPG,AFNE23.JPG,,,,,0,8,8,0,,,,,,,,,,,,,,,,,,,AFNE18.jpg,AFSA02.jpg,AFSA15.jpg,AFNE10.jpg,AFNE18.jpg,FN,3,num_8,16,num_8,1.55005704355,,,2017_Mar_23_1056,60.0060241058,MAFE4ImagesEEG,001,100059,
AMNE23.JPG,AMNE24.JPG,AMNE22.JPG,AMSA24.JPG,AMSA22.JPG,AMSA23.JPG,,,,,0,9,9,9,,,,,,,,,,,,,,,,,,,AFNE06.jpg,AFSA17.jpg,AFSA02.jpg,AFNE05.jpg,AFNE05.jpg,FN,3,num_4,32,num_8,1.31675739854,,,2017_Mar_23_1056,60.0060241058,MAFE4ImagesEEG,001,100059,
AFSA21.JPG,AFNE23.JPG,AFNE21.JPG,AFSA25.JPG,AFNE25.JPG,AFSA23.JPG,,,,,,,,,0,0,0,4,,,,,,,,,,,,,,,AMSA16.jpg,AMSA06.jpg,AMNE17.jpg,AMNE13.jpg,AMSA16.jpg,MS,2,num_8,32,num_4,1.36673666275,,,2017_Mar_23_1056,60.0060241058,MAFE4ImagesEEG,001,100059,
AMSA25.JPG,AMNE24.JPG,AMSA24.JPG,AMNE26.JPG,AMSA21.JPG,AMNE25.JPG,,,,,,,,,0,1,1,3,,,,,,,,,,,,,,,AMSA17.jpg,AMNE08.jpg,AMSA07.jpg,AMNE09.jpg,AMNE09.jpg,MN,1,num_4,16,num_4,1.80009545217,,,2017_Mar_23_1056,60.0060241058,MAFE4ImagesEEG,001,100059,
AMSA21.JPG,AMNE23.JPG,AMNE21.JPG,AMSA25.JPG,AMNE25.JPG,AMSA23.JPG,,,,,,,,,0,2,2,5,,,,,,,,,,,,,,,AMNE04.jpg,AMSA06.jpg,AMSA07.jpg,AMNE11.jpg,AMSA06.jpg,MS,2,num_6,32,num_2,1.00009878783,,,2017_Mar_23_1056,60.0060241058,MAFE4ImagesEEG,001,100059,
AMNE23.JPG,AMNE24.JPG,AMNE22.JPG,AMSA24.JPG,AMSA22.JPG,AMSA23.JPG,,,,,,,,,0,3,3,9,,,,,,,,,,,,,,,AMNE14.jpg,AMSA15.jpg,AMSA18.jpg,AMNE10.jpg,AMNE14.jpg,MN,1,num_8,32,num_4,0.833436665009,,,2017_Mar_23_1056,60.0060241058,MAFE4ImagesEEG,001,100059,
AMSA21.JPG,AMNE22.JPG,AMNE21.JPG,AMSA23.JPG,AMSA22.JPG,AMNE23.JPG,,,,,,,,,0,4,4,1,,,,,,,,,,,,,,,AMSA02.jpg,AMNE07.jpg,AMNE13.jpg,AMSA08.jpg,AMSA08.jpg,MS,2,num_4,16,num_4,0.683497910213,,,2017_Mar_23_1056,60.0060241058,MAFE4ImagesEEG,001,100059,
AFNE23.JPG,AFNE24.JPG,AFNE22.JPG,AFSA24.JPG,AFSA22.JPG,AFSA23.JPG,,,,,,,,,0,5,5,8,,,,,,,,,,,,,,,AMNE09.jpg,AMNE06.jpg,AMSA19.jpg,AMSA16.jpg,AMNE06.jpg,MN,1,num_6,32,num_4,1.53342861438,,,2017_Mar_23_1056,60.0060241058,MAFE4ImagesEEG,001,100059,
AFNE22.JPG,AFSA24.JPG,AFSA22.JPG,AFNE25.JPG,AFNE24.JPG,AFSA25.JPG,,,,,,,,,0,6,6,6,,,,,,,,,,,,,,,AMSA02.jpg,AMNE15.jpg,AMNE13.jpg,AMSA10.jpg,AMSA10.jpg,MS,2,num_4,16,num_4,1.23344044975,,,2017_Mar_23_1056,60.0060241058,MAFE4ImagesEEG,001,100059,
AMNE22.JPG,AMSA24.JPG,AMSA22.JPG,AMNE25.JPG,AMNE24.JPG,AMSA25.JPG,,,,,,,,,0,7,7,7,,,,,,,,,,,,,,,AMNE10.jpg,AMSA20.jpg,AMNE11.jpg,AMSA18.jpg,AMSA20.jpg,MS,2,num_6,32,num_4,1.65006849391,,,2017_Mar_23_1056,60.0060241058,MAFE4ImagesEEG,001,100059,
AFSA25.JPG,AFNE24.JPG,AFSA24.JPG,AFNE21.JPG,AFSA21.JPG,AFNE25.JPG,,,,,,,,,0,8,8,2,,,,,,,,,,,,,,,AMNE18.jpg,AMSA16.jpg,AMSA15.jpg,AMNE12.jpg,AMNE18.jpg,MN,1,num_8,32,num_4,1.86669095734,,,2017_Mar_23_1056,60.0060241058,MAFE4ImagesEEG,001,100059,
AFSA21.JPG,AFNE22.JPG,AFNE21.JPG,AFSA23.JPG,AFSA22.JPG,AFNE23.JPG,,,,,,,,,0,9,9,0,,,,,,,,,,,,,,,AMSA05.jpg,AMSA06.jpg,AMNE05.jpg,AMNE11.jpg,AMSA06.jpg,MS,2,num_6,16,num_6,1.61675294029,,,2017_Mar_23_1056,60.0060241058,MAFE4ImagesEEG,001,100059,
AFSA25.JPG,AFNE24.JPG,AFSA24.JPG,AFNE21.JPG,AFSA21.JPG,AFNE25.JPG,,,,,,,,,,,,,0,0,0,2,,,,,,,,,,,AFNE17.jpg,AFSA14.jpg,AFSA17.jpg,AFNE15.jpg,AFNE17.jpg,FN,3,num_8,16,num_8,0.866770500783,,,2017_Mar_23_1056,60.0060241058,MAFE4ImagesEEG,001,100059,
AMNE22.JPG,AMSA24.JPG,AMSA22.JPG,AMNE25.JPG,AMNE24.JPG,AMSA25.JPG,,,,,,,,,,,,,0,1,1,7,,,,,,,,,,,AFNE16.jpg,AFSA19.jpg,AFSA10.jpg,AFNE08.jpg,AFNE16.jpg,FN,3,num_8,16,num_8,1.1502001576,,,2017_Mar_23_1056,60.0060241058,MAFE4ImagesEEG,001,100059,
AMNE23.JPG,AMNE24.JPG,AMNE22.JPG,AMSA24.JPG,AMSA22.JPG,AMSA23.JPG,,,,,,,,,,,,,0,2,2,9,,,,,,,,,,,AFSA14.jpg,AFNE17.jpg,AFSA09.jpg,AFNE02.jpg,AFNE17.jpg,FN,3,num_6,32,num_4,0.900141221646,,,2017_Mar_23_1056,60.0060241058,MAFE4ImagesEEG,001,100059,
AFNE23.JPG,AFNE24.JPG,AFNE22.JPG,AFSA24.JPG,AFSA22.JPG,AFSA23.JPG,,,,,,,,,,,,,0,3,3,8,,,,,,,,,,,AFSA16.jpg,AFNE04.jpg,AFNE20.jpg,AFSA01.jpg,AFSA01.jpg,FS,4,num_4,16,num_4,1.23338015069,,,2017_Mar_23_1056,60.0060241058,MAFE4ImagesEEG,001,100059,
AMSA21.JPG,AMNE23.JPG,AMNE21.JPG,AMSA25.JPG,AMNE25.JPG,AMSA23.JPG,,,,,,,,,,,,,0,4,4,5,,,,,,,,,,,AFSA01.jpg,AFNE17.jpg,AFNE01.jpg,AFSA20.jpg,AFNE01.jpg,FN,3,num_2,16,num_2,1.78345932526,,,2017_Mar_23_1056,60.0060241058,MAFE4ImagesEEG,001,100059,
AMSA21.JPG,AMNE22.JPG,AMNE21.JPG,AMSA23.JPG,AMSA22.JPG,AMNE23.JPG,,,,,,,,,,,,,0,5,5,1,,,,,,,,,,,AFNE18.jpg,AFSA08.jpg,AFSA20.jpg,AFNE06.jpg,AFNE06.jpg,FN,3,num_4,32,num_6,1.60013702,,,2017_Mar_23_1056,60.0060241058,MAFE4ImagesEEG,001,100059,
AFSA21.JPG,AFNE22.JPG,AFNE21.JPG,AFSA23.JPG,AFSA22.JPG,AFNE23.JPG,,,,,,,,,,,,,0,6,6,0,,,,,,,,,,,AFNE14.jpg,AFSA14.jpg,AFNE05.jpg,AFSA03.jpg,AFNE05.jpg,FN,3,num_2,32,num_8,1.03343101998,,,2017_Mar_23_1056,60.0060241058,MAFE4ImagesEEG,001,100059,
AFSA21.JPG,AFNE23.JPG,AFNE21.JPG,AFSA25.JPG,AFNE25.JPG,AFSA23.JPG,,,,,,,,,,,,,0,7,7,4,,,,,,,,,,,AFSA09.jpg,AFSA19.jpg,AFNE01.jpg,AFNE18.jpg,AFSA19.jpg,FS,4,num_6,32,num_4,1.0164840963,,,2017_Mar_23_1056,60.0060241058,MAFE4ImagesEEG,001,100059,
AMSA25.JPG,AMNE24.JPG,AMSA24.JPG,AMNE26.JPG,AMSA21.JPG,AMNE25.JPG,,,,,,,,,,,,,0,8,8,3,,,,,,,,,,,AFNE08.jpg,AFSA16.jpg,AFSA07.jpg,AFNE20.jpg,AFSA07.jpg,FS,4,num_2,32,num_4,1.15011067124,,,2017_Mar_23_1056,60.0060241058,MAFE4ImagesEEG,001,100059,
AFNE22.JPG,AFSA24.JPG,AFSA22.JPG,AFNE25.JPG,AFNE24.JPG,AFSA25.JPG,,,,,,,,,,,,,0,9,9,6,,,,,,,,,,,AFSA19.jpg,AFNE01.jpg,AFNE09.jpg,AFSA04.jpg,AFNE01.jpg,FN,3,num_6,32,num_2,0.866775311879,,,2017_Mar_23_1056,60.0060241058,MAFE4ImagesEEG,001,100059,
AFSA25.JPG,AFNE24.JPG,AFSA24.JPG,AFNE21.JPG,AFSA21.JPG,AFNE25.JPG,,,,,,,,,,,,,,,,,0,0,0,2,,,,,,,AMNE07.jpg,AMNE17.jpg,AMSA19.jpg,AMSA01.jpg,AMSA19.jpg,MS,2,num_2,32,num_4,1.25008716102,,,2017_Mar_23_1056,60.0060241058,MAFE4ImagesEEG,001,100059,
AFNE23.JPG,AFNE24.JPG,AFNE22.JPG,AFSA24.JPG,AFSA22.JPG,AFSA23.JPG,,,,,,,,,,,,,,,,,0,1,1,8,,,,,,,AMSA09.jpg,AMNE02.jpg,AMSA10.jpg,AMNE15.jpg,AMSA09.jpg,MS,2,num_8,16,num_8,0.733436119743,,,2017_Mar_23_1056,60.0060241058,MAFE4ImagesEEG,001,100059,
AMNE23.JPG,AMNE24.JPG,AMNE22.JPG,AMSA24.JPG,AMSA22.JPG,AMSA23.JPG,,,,,,,,,,,,,,,,,0,2,2,9,,,,,,,AMSA18.jpg,AMSA07.jpg,AMNE15.jpg,AMNE01.jpg,AMNE01.jpg,MN,1,num_4,16,num_4,1.10011986044,,,2017_Mar_23_1056,60.0060241058,MAFE4ImagesEEG,001,100059,
AFNE22.JPG,AFSA24.JPG,AFSA22.JPG,AFNE25.JPG,AFNE24.JPG,AFSA25.JPG,,,,,,,,,,,,,,,,,0,3,3,6,,,,,,,AMSA08.jpg,AMNE04.jpg,AMNE09.jpg,AMSA11.jpg,AMNE04.jpg,MN,1,num_6,16,num_6,1.21674498596,,,2017_Mar_23_1056,60.0060241058,MAFE4ImagesEEG,001,100059,
AMSA21.JPG,AMNE23.JPG,AMNE21.JPG,AMSA25.JPG,AMNE25.JPG,AMSA23.JPG,,,,,,,,,,,,,,,,,0,4,4,5,,,,,,,AMSA04.jpg,AMNE11.jpg,AMNE09.jpg,AMSA03.jpg,AMNE11.jpg,MN,1,num_6,32,num_8,1.58340884082,,,2017_Mar_23_1056,60.0060241058,MAFE4ImagesEEG,001,100059,
AMSA25.JPG,AMNE24.JPG,AMSA24.JPG,AMNE26.JPG,AMSA21.JPG,AMNE25.JPG,,,,,,,,,,,,,,,,,0,5,5,3,,,,,,,AMNE04.jpg,AMSA10.jpg,AMNE06.jpg,AMSA17.jpg,AMSA10.jpg,MS,2,num_6,16,num_6,0.833479964815,,,2017_Mar_23_1056,60.0060241058,MAFE4ImagesEEG,001,100059,
AFSA21.JPG,AFNE23.JPG,AFNE21.JPG,AFSA25.JPG,AFNE25.JPG,AFSA23.JPG,,,,,,,,,,,,,,,,,0,6,6,4,,,,,,,AMNE05.jpg,AMSA12.jpg,AMSA19.jpg,AMNE02.jpg,AMNE05.jpg,MN,1,num_8,32,num_6,1.41672490764,,,2017_Mar_23_1056,60.0060241058,MAFE4ImagesEEG,001,100059,
AMSA21.JPG,AMNE22.JPG,AMNE21.JPG,AMSA23.JPG,AMSA22.JPG,AMNE23.JPG,,,,,,,,,,,,,,,,,0,7,7,1,,,,,,,AMNE18.jpg,AMNE06.jpg,AMSA19.jpg,AMSA16.jpg,AMSA19.jpg,MS,2,num_2,16,num_2,2.69995891326,,,2017_Mar_23_1056,60.0060241058,MAFE4ImagesEEG,001,100059,
AFSA21.JPG,AFNE22.JPG,AFNE21.JPG,AFSA23.JPG,AFSA22.JPG,AFNE23.JPG,,,,,,,,,,,,,,,,,0,8,8,0,,,,,,,AMNE10.jpg,AMNE07.jpg,AMSA01.jpg,AMSA02.jpg,AMSA02.jpg,MS,2,num_4,16,num_4,1.28340111102,,,2017_Mar_23_1056,60.0060241058,MAFE4ImagesEEG,001,100059,
AMNE22.JPG,AMSA24.JPG,AMSA22.JPG,AMNE25.JPG,AMNE24.JPG,AMSA25.JPG,,,,,,,,,,,,,,,,,0,9,9,7,,,,,,,AMSA14.jpg,AMSA17.jpg,AMNE19.jpg,AMNE08.jpg,AMNE08.jpg,MN,1,num_4,32,num_6,1.50011434371,,,2017_Mar_23_1056,60.0060241058,MAFE4ImagesEEG,001,100059,
AMNE22.JPG,AMSA24.JPG,AMSA22.JPG,AMNE25.JPG,AMNE24.JPG,AMSA25.JPG,,,,,,,,,,,,,,,,,,,,,0,0,0,7,,,AFNE05.jpg,AFSA10.jpg,AFSA17.jpg,AFNE03.jpg,AFNE05.jpg,FN,3,num_8,32,num_4,1.38343244727,,,2017_Mar_23_1056,60.0060241058,MAFE4ImagesEEG,001,100059,
AFNE23.JPG,AFNE24.JPG,AFNE22.JPG,AFSA24.JPG,AFSA22.JPG,AFSA23.JPG,,,,,,,,,,,,,,,,,,,,,0,1,1,8,,,AFSA03.jpg,AFNE18.jpg,AFNE06.jpg,AFSA10.jpg,AFSA03.jpg,FS,4,num_8,16,num_8,0.700167714793,,,2017_Mar_23_1056,60.0060241058,MAFE4ImagesEEG,001,100059,
AMSA21.JPG,AMNE22.JPG,AMNE21.JPG,AMSA23.JPG,AMSA22.JPG,AMNE23.JPG,,,,,,,,,,,,,,,,,,,,,0,2,2,1,,,AFSA07.jpg,AFSA09.jpg,AFNE05.jpg,AFNE11.jpg,AFSA07.jpg,FS,4,num_8,32,num_2,1.30011100799,,,2017_Mar_23_1056,60.0060241058,MAFE4ImagesEEG,001,100059,
AMSA21.JPG,AMNE23.JPG,AMNE21.JPG,AMSA25.JPG,AMNE25.JPG,AMSA23.JPG,,,,,,,,,,,,,,,,,,,,,0,3,3,5,,,AFNE20.jpg,AFSA13.jpg,AFSA19.jpg,AFNE11.jpg,AFSA19.jpg,FS,4,num_2,32,num_8,0.900167201646,,,2017_Mar_23_1056,60.0060241058,MAFE4ImagesEEG,001,100059,
AFSA21.JPG,AFNE23.JPG,AFNE21.JPG,AFSA25.JPG,AFNE25.JPG,AFSA23.JPG,,,,,,,,,,,,,,,,,,,,,0,4,4,4,,,AFSA09.jpg,AFSA07.jpg,AFNE11.jpg,AFNE13.jpg,AFSA09.jpg,FS,4,num_8,32,num_2,1.48343235103,,,2017_Mar_23_1056,60.0060241058,MAFE4ImagesEEG,001,100059,
AFSA21.JPG,AFNE22.JPG,AFNE21.JPG,AFSA23.JPG,AFSA22.JPG,AFNE23.JPG,,,,,,,,,,,,,,,,,,,,,0,5,5,0,,,AFNE03.jpg,AFSA06.jpg,AFSA07.jpg,AFNE17.jpg,AFNE17.jpg,FN,3,num_4,32,num_8,1.08331566595,,,2017_Mar_23_1056,60.0060241058,MAFE4ImagesEEG,001,100059,
AMNE23.JPG,AMNE24.JPG,AMNE22.JPG,AMSA24.JPG,AMSA22.JPG,AMSA23.JPG,,,,,,,,,,,,,,,,,,,,,0,6,6,9,,,AFNE10.jpg,AFNE11.jpg,AFSA01.jpg,AFSA02.jpg,AFNE10.jpg,FN,3,num_8,16,num_8,0.966779064503,,,2017_Mar_23_1056,60.0060241058,MAFE4ImagesEEG,001,100059,
AFSA25.JPG,AFNE24.JPG,AFSA24.JPG,AFNE21.JPG,AFSA21.JPG,AFNE25.JPG,,,,,,,,,,,,,,,,,,,,,0,7,7,2,,,AFSA13.jpg,AFSA03.jpg,AFNE02.jpg,AFNE14.jpg,AFSA13.jpg,FS,4,num_8,32,num_2,1.36672864429,,,2017_Mar_23_1056,60.0060241058,MAFE4ImagesEEG,001,100059,
AFNE22.JPG,AFSA24.JPG,AFSA22.JPG,AFNE25.JPG,AFNE24.JPG,AFSA25.JPG,,,,,,,,,,,,,,,,,,,,,0,8,8,6,,,AFNE01.jpg,AFSA03.jpg,AFNE08.jpg,AFSA20.jpg,AFNE08.jpg,FN,3,num_2,16,num_2,1.48313181795,,,2017_Mar_23_1056,60.0060241058,MAFE4ImagesEEG,001,100059,
AMSA25.JPG,AMNE24.JPG,AMSA24.JPG,AMNE26.JPG,AMSA21.JPG,AMNE25.JPG,,,,,,,,,,,,,,,,,,,,,0,9,9,3,,,AFSA13.jpg,AFNE16.jpg,AFSA11.jpg,AFNE14.jpg,AFSA11.jpg,FS,4,num_2,16,num_2,0.983948260837,,,2017_Mar_23_1056,60.0060241058,MAFE4ImagesEEG,001,100059,
,,,,,,,,,,,,,,,,,,,,,,,,,,,,,,,,,,,,,,,,,,,space,23.5318290855,2017_Mar_23_1056,60.0060241058,MAFE4ImagesEEG,001,100059,
AFNE01.JPG,AFNE01.JPG,AFNE01.JPG,AFNE01.JPG,AFNE01.JPG,AFNE01.JPG,0,0,0,8,,,,,,,,,,,,,,,,,,,,,,,AMSA08.jpg,AMNE10.jpg,AMSA10.jpg,AMNE11.jpg,AMSA10.jpg,MS,2,num_2,16,num_2,1.35006749968,,,2017_Mar_23_1056,60.0060241058,MAFE4ImagesEEG,001,100059,
AFNE01.JPG,AFNE01.JPG,AFNE01.JPG,AFNE01.JPG,AFNE01.JPG,AFNE01.JPG,0,1,1,5,,,,,,,,,,,,,,,,,,,,,,,AMSA16.jpg,AMNE12.jpg,AMNE06.jpg,AMSA11.jpg,AMNE12.jpg,MN,1,num_6,16,num_6,1.68338276469,,,2017_Mar_23_1056,60.0060241058,MAFE4ImagesEEG,001,100059,
AFNE01.JPG,AFNE01.JPG,AFNE01.JPG,AFNE01.JPG,AFNE01.JPG,AFNE01.JPG,0,2,2,1,,,,,,,,,,,,,,,,,,,,,,,AMNE04.jpg,AMSA15.jpg,AMNE07.jpg,AMSA01.jpg,AMNE04.jpg,MN,1,num_8,32,num_2,0.916768367868,,,2017_Mar_23_1056,60.0060241058,MAFE4ImagesEEG,001,100059,
AFNE01.JPG,AFNE01.JPG,AFNE01.JPG,AFNE01.JPG,AFNE01.JPG,AFNE01.JPG,0,3,3,0,,,,,,,,,,,,,,,,,,,,,,,AMNE19.jpg,AMSA02.jpg,AMNE11.jpg,AMSA14.jpg,AMSA14.jpg,MS,2,num_4,16,num_4,0.70015969628,,,2017_Mar_23_1056,60.0060241058,MAFE4ImagesEEG,001,100059,
AFNE01.JPG,AFNE01.JPG,AFNE01.JPG,AFNE01.JPG,AFNE01.JPG,AFNE01.JPG,0,4,4,3,,,,,,,,,,,,,,,,,,,,,,,AMNE19.jpg,AMSA01.jpg,AMNE06.jpg,AMSA19.jpg,AMSA19.jpg,MS,2,num_4,32,num_2,0.8168140091,,,2017_Mar_23_1056,60.0060241058,MAFE4ImagesEEG,001,100059,
AFNE01.JPG,AFNE01.JPG,AFNE01.JPG,AFNE01.JPG,AFNE01.JPG,AFNE01.JPG,0,5,5,7,,,,,,,,,,,,,,,,,,,,,,,AMNE16.jpg,AMSA15.jpg,AMSA13.jpg,AMNE19.jpg,AMNE19.jpg,MN,1,num_4,16,num_4,0.883484567457,,,2017_Mar_23_1056,60.0060241058,MAFE4ImagesEEG,001,100059,
AFNE01.JPG,AFNE01.JPG,AFNE01.JPG,AFNE01.JPG,AFNE01.JPG,AFNE01.JPG,0,6,6,6,,,,,,,,,,,,,,,,,,,,,,,AMSA17.jpg,AMSA09.jpg,AMNE15.jpg,AMNE08.jpg,AMNE08.jpg,MN,1,num_4,32,num_2,1.26675600337,,,2017_Mar_23_1056,60.0060241058,MAFE4ImagesEEG,001,100059,
AFNE01.JPG,AFNE01.JPG,AFNE01.JPG,AFNE01.JPG,AFNE01.JPG,AFNE01.JPG,0,7,7,9,,,,,,,,,,,,,,,,,,,,,,,AMSA12.jpg,AMNE12.jpg,AMNE16.jpg,AMSA15.jpg,AMNE12.jpg,MN,1,num_6,32,num_8,0.83344532497,,,2017_Mar_23_1056,60.0060241058,MAFE4ImagesEEG,001,100059,
AFNE01.JPG,AFNE01.JPG,AFNE01.JPG,AFNE01.JPG,AFNE01.JPG,AFNE01.JPG,0,8,8,2,,,,,,,,,,,,,,,,,,,,,,,AMNE18.jpg,AMSA08.jpg,AMNE01.jpg,AMSA06.jpg,AMNE01.jpg,MN,1,num_2,16,num_2,0.80014773272,,,2017_Mar_23_1056,60.0060241058,MAFE4ImagesEEG,001,100059,
AFNE01.JPG,AFNE01.JPG,AFNE01.JPG,AFNE01.JPG,AFNE01.JPG,AFNE01.JPG,0,9,9,4,,,,,,,,,,,,,,,,,,,,,,,AMSA06.jpg,AMSA03.jpg,AMNE11.jpg,AMNE20.jpg,AMSA03.jpg,MS,2,num_6,16,num_6,0.750134149392,,,2017_Mar_23_1056,60.0060241058,MAFE4ImagesEEG,001,100059,
AFNE01.JPG,AFNE01.JPG,AFNE01.JPG,AFNE01.JPG,AFNE01.JPG,AFNE01.JPG,1,0,10,0,,,,,,,,,,,,,,,,,,,,,,,AMNE13.jpg,AMNE19.jpg,AMSA06.jpg,AMSA18.jpg,AMNE13.jpg,MN,1,num_8,16,num_8,0.600127397804,,,2017_Mar_23_1056,60.0060241058,MAFE4ImagesEEG,001,100059,
AFNE01.JPG,AFNE01.JPG,AFNE01.JPG,AFNE01.JPG,AFNE01.JPG,AFNE01.JPG,1,1,11,7,,,,,,,,,,,,,,,,,,,,,,,AMNE04.jpg,AMSA03.jpg,AMNE06.jpg,AMSA18.jpg,AMSA18.jpg,MS,2,num_4,32,num_2,0.833476757456,,,2017_Mar_23_1056,60.0060241058,MAFE4ImagesEEG,001,100059,
AFNE01.JPG,AFNE01.JPG,AFNE01.JPG,AFNE01.JPG,AFNE01.JPG,AFNE01.JPG,1,2,12,1,,,,,,,,,,,,,,,,,,,,,,,AMSA05.jpg,AMNE03.jpg,AMSA10.jpg,AMNE16.jpg,AMNE16.jpg,MN,1,num_4,16,num_4,1.13327825163,,,2017_Mar_23_1056,60.0060241058,MAFE4ImagesEEG,001,100059,
AFNE01.JPG,AFNE01.JPG,AFNE01.JPG,AFNE01.JPG,AFNE01.JPG,AFNE01.JPG,1,3,13,9,,,,,,,,,,,,,,,,,,,,,,,AMNE14.jpg,AMSA03.jpg,AMSA04.jpg,AMNE02.jpg,AMNE14.jpg,MN,1,num_8,16,num_8,0.633457063988,,,2017_Mar_23_1056,60.0060241058,MAFE4ImagesEEG,001,100059,
AFNE01.JPG,AFNE01.JPG,AFNE01.JPG,AFNE01.JPG,AFNE01.JPG,AFNE01.JPG,1,4,14,2,,,,,,,,,,,,,,,,,,,,,,,AMNE06.jpg,AMNE10.jpg,AMSA20.jpg,AMSA14.jpg,AMNE06.jpg,MN,1,num_8,32,num_6,0.783424364578,,,2017_Mar_23_1056,60.0060241058,MAFE4ImagesEEG,001,100059,
AFNE01.JPG,AFNE01.JPG,AFNE01.JPG,AFNE01.JPG,AFNE01.JPG,AFNE01.JPG,1,5,15,5,,,,,,,,,,,,,,,,,,,,,,,AMSA10.jpg,AMNE19.jpg,AMNE13.jpg,AMSA13.jpg,AMNE19.jpg,MN,1,num_6,16,num_6,0.816532078898,,,2017_Mar_23_1056,60.0060241058,MAFE4ImagesEEG,001,100059,
AFNE01.JPG,AFNE01.JPG,AFNE01.JPG,AFNE01.JPG,AFNE01.JPG,AFNE01.JPG,1,6,16,4,,,,,,,,,,,,,,,,,,,,,,,AMSA06.jpg,AMNE17.jpg,AMSA15.jpg,AMNE20.jpg,AMSA15.jpg,MS,2,num_2,32,num_4,1.05012199335,,,2017_Mar_23_1056,60.0060241058,MAFE4ImagesEEG,001,100059,
AFNE01.JPG,AFNE01.JPG,AFNE01.JPG,AFNE01.JPG,AFNE01.JPG,AFNE01.JPG,1,7,17,3,,,,,,,,,,,,,,,,,,,,,,,AMSA02.jpg,AMNE17.jpg,AMSA05.jpg,AMNE02.jpg,AMSA05.jpg,MS,2,num_2,16,num_2,0.766780219215,,,2017_Mar_23_1056,60.0060241058,MAFE4ImagesEEG,001,100059,
AFNE01.JPG,AFNE01.JPG,AFNE01.JPG,AFNE01.JPG,AFNE01.JPG,AFNE01.JPG,1,8,18,6,,,,,,,,,,,,,,,,,,,,,,,AMNE07.jpg,AMSA02.jpg,AMSA08.jpg,AMNE18.jpg,AMNE18.jpg,MN,1,num_4,16,num_4,0.550126964808,,,2017_Mar_23_1056,60.0060241058,MAFE4ImagesEEG,001,100059,
AFNE01.JPG,AFNE01.JPG,AFNE01.JPG,AFNE01.JPG,AFNE01.JPG,AFNE01.JPG,1,9,19,8,,,,,,,,,,,,,,,,,,,,,,,AMNE18.jpg,AMNE17.jpg,AMSA07.jpg,AMSA06.jpg,AMNE17.jpg,MN,1,num_6,16,num_6,0.900134486146,,,2017_Mar_23_1056,60.0060241058,MAFE4ImagesEEG,001,100059,
AFNE01.JPG,AFNE01.JPG,AFNE01.JPG,AFNE01.JPG,AFNE01.JPG,AFNE01.JPG,2,0,20,2,,,,,,,,,,,,,,,,,,,,,,,AMSA01.jpg,AMSA17.jpg,AMNE16.jpg,AMNE03.jpg,AMSA01.jpg,MS,2,num_8,32,num_2,1.13346267695,,,2017_Mar_23_1056,60.0060241058,MAFE4ImagesEEG,001,100059,
AFNE01.JPG,AFNE01.JPG,AFNE01.JPG,AFNE01.JPG,AFNE01.JPG,AFNE01.JPG,2,1,21,0,,,,,,,,,,,,,,,,,,,,,,,AMNE14.jpg,AMSA10.jpg,AMNE17.jpg,AMSA15.jpg,AMSA10.jpg,MS,2,num_6,16,num_6,1.36671421095,,,2017_Mar_23_1056,60.0060241058,MAFE4ImagesEEG,001,100059,
AFNE01.JPG,AFNE01.JPG,AFNE01.JPG,AFNE01.JPG,AFNE01.JPG,AFNE01.JPG,2,2,22,9,,,,,,,,,,,,,,,,,,,,,,,AMSA04.jpg,AMNE20.jpg,AMNE19.jpg,AMSA12.jpg,AMNE19.jpg,MN,1,num_2,32,num_4,0.950110542937,,,2017_Mar_23_1056,60.0060241058,MAFE4ImagesEEG,001,100059,
AFNE01.JPG,AFNE01.JPG,AFNE01.JPG,AFNE01.JPG,AFNE01.JPG,AFNE01.JPG,2,3,23,3,,,,,,,,,,,,,,,,,,,,,,,AMNE18.jpg,AMNE14.jpg,AMSA10.jpg,AMSA05.jpg,AMNE18.jpg,MN,1,num_8,16,num_8,0.800115979509,,,2017_Mar_23_1056,60.0060241058,MAFE4ImagesEEG,001,100059,
AFNE01.JPG,AFNE01.JPG,AFNE01.JPG,AFNE01.JPG,AFNE01.JPG,AFNE01.JPG,2,4,24,6,,,,,,,,,,,,,,,,,,,,,,,AMNE07.jpg,AMNE13.jpg,AMSA13.jpg,AMSA15.jpg,AMSA15.jpg,MS,2,num_4,16,num_4,0.65028755914,,,2017_Mar_23_1056,60.0060241058,MAFE4ImagesEEG,001,100059,
AFNE01.JPG,AFNE01.JPG,AFNE01.JPG,AFNE01.JPG,AFNE01.JPG,AFNE01.JPG,2,5,25,7,,,,,,,,,,,,,,,,,,,,,,,AMNE19.jpg,AMSA20.jpg,AMNE02.jpg,AMSA06.jpg,AMNE02.jpg,MN,1,num_2,16,num_2,0.866774349648,,,2017_Mar_23_1056,60.0060241058,MAFE4ImagesEEG,001,100059,
AFNE01.JPG,AFNE01.JPG,AFNE01.JPG,AFNE01.JPG,AFNE01.JPG,AFNE01.JPG,2,6,26,5,,,,,,,,,,,,,,,,,,,,,,,AMNE15.jpg,AMNE10.jpg,AMSA10.jpg,AMSA02.jpg,AMNE10.jpg,MN,1,num_6,32,num_8,0.733415913128,,,2017_Mar_23_1056,60.0060241058,MAFE4ImagesEEG,001,100059,
AFNE01.JPG,AFNE01.JPG,AFNE01.JPG,AFNE01.JPG,AFNE01.JPG,AFNE01.JPG,2,7,27,4,,,,,,,,,,,,,,,,,,,,,,,AMSA09.jpg,AMNE20.jpg,AMSA12.jpg,AMNE19.jpg,AMNE20.jpg,MN,1,num_6,16,num_6,0.650166961073,,,2017_Mar_23_1056,60.0060241058,MAFE4ImagesEEG,001,100059,
AFNE01.JPG,AFNE01.JPG,AFNE01.JPG,AFNE01.JPG,AFNE01.JPG,AFNE01.JPG,2,8,28,1,,,,,,,,,,,,,,,,,,,,,,,AMSA14.jpg,AMNE09.jpg,AMNE11.jpg,AMSA19.jpg,AMSA14.jpg,MS,2,num_8,16,num_8,0.683444025926,,,2017_Mar_23_1056,60.0060241058,MAFE4ImagesEEG,001,100059,
AFNE01.JPG,AFNE01.JPG,AFNE01.JPG,AFNE01.JPG,AFNE01.JPG,AFNE01.JPG,2,9,29,8,,,,,,,,,,,,,,,,,,,,,,,AMSA05.jpg,AMNE17.jpg,AMNE10.jpg,AMSA15.jpg,AMSA15.jpg,MS,2,num_4,16,num_4,0.866774991155,,,2017_Mar_23_1056,60.0060241058,MAFE4ImagesEEG,001,100059,
AFNE01.JPG,AFNE01.JPG,AFNE01.JPG,AFNE01.JPG,AFNE01.JPG,AFNE01.JPG,3,0,30,7,,,,,,,,,,,,,,,,,,,,,,,AMSA06.jpg,AMNE06.jpg,AMNE02.jpg,AMSA03.jpg,AMNE06.jpg,MN,1,num_6,32,num_2,1.25011217874,,,2017_Mar_23_1056,60.0060241058,MAFE4ImagesEEG,001,100059,
AFNE01.JPG,AFNE01.JPG,AFNE01.JPG,AFNE01.JPG,AFNE01.JPG,AFNE01.JPG,3,1,31,3,,,,,,,,,,,,,,,,,,,,,,,AMSA06.jpg,AMNE08.jpg,AMNE01.jpg,AMSA16.jpg,AMSA16.jpg,MS,2,num_4,16,num_4,0.916794668534,,,2017_Mar_23_1056,60.0060241058,MAFE4ImagesEEG,001,100059,
AFNE01.JPG,AFNE01.JPG,AFNE01.JPG,AFNE01.JPG,AFNE01.JPG,AFNE01.JPG,3,2,32,2,,,,,,,,,,,,,,,,,,,,,,,AMNE09.jpg,AMSA13.jpg,AMSA05.jpg,AMNE20.jpg,AMSA13.jpg,MS,2,num_6,16,num_6,0.916768688592,,,2017_Mar_23_1056,60.0060241058,MAFE4ImagesEEG,001,100059,
AFNE01.JPG,AFNE01.JPG,AFNE01.JPG,AFNE01.JPG,AFNE01.JPG,AFNE01.JPG,3,3,33,8,,,,,,,,,,,,,,,,,,,,,,,AMSA19.jpg,AMNE05.jpg,AMNE19.jpg,AMSA11.jpg,AMNE05.jpg,MN,1,num_6,32,num_2,1.46676639532,,,2017_Mar_23_1056,60.0060241058,MAFE4ImagesEEG,001,100059,
AFNE01.JPG,AFNE01.JPG,AFNE01.JPG,AFNE01.JPG,AFNE01.JPG,AFNE01.JPG,3,4,34,5,,,,,,,,,,,,,,,,,,,,,,,AMSA13.jpg,AMNE13.jpg,AMNE01.jpg,AMSA16.jpg,AMSA16.jpg,MS,2,num_4,16,num_4,1.16675385443,,,2017_Mar_23_1056,60.0060241058,MAFE4ImagesEEG,001,100059,
AFNE01.JPG,AFNE01.JPG,AFNE01.JPG,AFNE01.JPG,AFNE01.JPG,AFNE01.JPG,3,5,35,6,,,,,,,,,,,,,,,,,,,,,,,AMNE07.jpg,AMSA01.jpg,AMNE11.jpg,AMSA16.jpg,AMNE11.jpg,MN,1,num_2,16,num_2,0.700109340192,,,2017_Mar_23_1056,60.0060241058,MAFE4ImagesEEG,001,100059,
AFNE01.JPG,AFNE01.JPG,AFNE01.JPG,AFNE01.JPG,AFNE01.JPG,AFNE01.JPG,3,6,36,9,,,,,,,,,,,,,,,,,,,,,,,AMSA03.jpg,AMSA15.jpg,AMNE04.jpg,AMNE15.jpg,AMNE15.jpg,MN,1,num_4,16,num_4,0.550126644084,,,2017_Mar_23_1056,60.0060241058,MAFE4ImagesEEG,001,100059,
AFNE01.JPG,AFNE01.JPG,AFNE01.JPG,AFNE01.JPG,AFNE01.JPG,AFNE01.JPG,3,7,37,0,,,,,,,,,,,,,,,,,,,,,,,AMSA15.jpg,AMNE17.jpg,AMNE15.jpg,AMSA07.jpg,AMNE15.jpg,MN,1,num_2,32,num_4,1.03346181096,,,2017_Mar_23_1056,60.0060241058,MAFE4ImagesEEG,001,100059,
AFNE01.JPG,AFNE01.JPG,AFNE01.JPG,AFNE01.JPG,AFNE01.JPG,AFNE01.JPG,3,8,38,4,,,,,,,,,,,,,,,,,,,,,,,AMSA04.jpg,AMNE15.jpg,AMNE01.jpg,AMSA11.jpg,AMNE01.jpg,MN,1,num_2,16,num_2,1.16677213658,,,2017_Mar_23_1056,60.0060241058,MAFE4ImagesEEG,001,100059,
AFNE01.JPG,AFNE01.JPG,AFNE01.JPG,AFNE01.JPG,AFNE01.JPG,AFNE01.JPG,3,9,39,1,,,,,,,,,,,,,,,,,,,,,,,AMSA11.jpg,AMNE03.jpg,AMSA05.jpg,AMNE05.jpg,AMSA05.jpg,MS,2,num_2,16,num_2,0.783448420116,,,2017_Mar_23_1056,60.0060241058,MAFE4ImagesEEG,001,100059,
AFNE01.JPG,AFNE01.JPG,AFNE01.JPG,AFNE01.JPG,AFNE01.JPG,AFNE01.JPG,4,0,40,1,,,,,,,,,,,,,,,,,,,,,,,AMNE15.jpg,AMSA16.jpg,AMNE19.jpg,AMSA17.jpg,AMNE19.jpg,MN,1,num_2,32,num_4,1.26673964562,,,2017_Mar_23_1056,60.0060241058,MAFE4ImagesEEG,001,100059,
AFNE01.JPG,AFNE01.JPG,AFNE01.JPG,AFNE01.JPG,AFNE01.JPG,AFNE01.JPG,4,1,41,5,,,,,,,,,,,,,,,,,,,,,,,AMSA03.jpg,AMNE09.jpg,AMSA12.jpg,AMNE19.jpg,AMSA03.jpg,MS,2,num_8,16,num_8,0.783477286634,,,2017_Mar_23_1056,60.0060241058,MAFE4ImagesEEG,001,100059,
AFNE01.JPG,AFNE01.JPG,AFNE01.JPG,AFNE01.JPG,AFNE01.JPG,AFNE01.JPG,4,2,42,7,,,,,,,,,,,,,,,,,,,,,,,AMNE03.jpg,AMSA06.jpg,AMNE02.jpg,AMSA01.jpg,AMNE02.jpg,MN,1,num_2,16,num_2,1.05014508666,,,2017_Mar_23_1056,60.0060241058,MAFE4ImagesEEG,001,100059,
AFNE01.JPG,AFNE01.JPG,AFNE01.JPG,AFNE01.JPG,AFNE01.JPG,AFNE01.JPG,4,3,43,0,,,,,,,,,,,,,,,,,,,,,,,AMSA10.jpg,AMNE20.jpg,AMNE02.jpg,AMSA19.jpg,AMNE20.jpg,MN,1,num_6,32,num_8,0.983438605443,,,2017_Mar_23_1056,60.0060241058,MAFE4ImagesEEG,001,100059,
AFNE01.JPG,AFNE01.JPG,AFNE01.JPG,AFNE01.JPG,AFNE01.JPG,AFNE01.JPG,4,4,44,8,,,,,,,,,,,,,,,,,,,,,,,AMNE13.jpg,AMNE06.jpg,AMSA11.jpg,AMSA16.jpg,AMNE13.jpg,MN,1,num_8,32,num_6,0.700156809587,,,2017_Mar_23_1056,60.0060241058,MAFE4ImagesEEG,001,100059,
AFNE01.JPG,AFNE01.JPG,AFNE01.JPG,AFNE01.JPG,AFNE01.JPG,AFNE01.JPG,4,5,45,4,,,,,,,,,,,,,,,,,,,,,,,AMSA13.jpg,AMSA01.jpg,AMNE18.jpg,AMNE14.jpg,AMNE14.jpg,MN,1,num_4,16,num_4,0.650362612272,,,2017_Mar_23_1056,60.0060241058,MAFE4ImagesEEG,001,100059,
AFNE01.JPG,AFNE01.JPG,AFNE01.JPG,AFNE01.JPG,AFNE01.JPG,AFNE01.JPG,4,6,46,6,,,,,,,,,,,,,,,,,,,,,,,AMNE13.jpg,AMSA14.jpg,AMNE16.jpg,AMSA11.jpg,AMSA11.jpg,MS,2,num_4,16,num_4,0.966755009082,,,2017_Mar_23_1056,60.0060241058,MAFE4ImagesEEG,001,100059,
AFNE01.JPG,AFNE01.JPG,AFNE01.JPG,AFNE01.JPG,AFNE01.JPG,AFNE01.JPG,4,7,47,2,,,,,,,,,,,,,,,,,,,,,,,AMNE02.jpg,AMSA12.jpg,AMSA07.jpg,AMNE15.jpg,AMSA07.jpg,MS,2,num_2,16,num_2,0.583440594026,,,2017_Mar_23_1056,60.0060241058,MAFE4ImagesEEG,001,100059,
AFNE01.JPG,AFNE01.JPG,AFNE01.JPG,AFNE01.JPG,AFNE01.JPG,AFNE01.JPG,4,8,48,9,,,,,,,,,,,,,,,,,,,,,,,AMSA17.jpg,AMNE02.jpg,AMSA01.jpg,AMNE13.jpg,AMNE02.jpg,MN,1,num_6,32,num_4,1.18339928275,,,2017_Mar_23_1056,60.0060241058,MAFE4ImagesEEG,001,100059,
AFNE01.JPG,AFNE01.JPG,AFNE01.JPG,AFNE01.JPG,AFNE01.JPG,AFNE01.JPG,4,9,49,3,,,,,,,,,,,,,,,,,,,,,,,AMSA06.jpg,AMNE03.jpg,AMSA15.jpg,AMNE19.jpg,AMNE19.jpg,MN,1,num_4,16,num_4,0.583477158332,,,2017_Mar_23_1056,60.0060241058,MAFE4ImagesEEG,001,100059,
AFNE01.JPG,AFNE01.JPG,AFNE01.JPG,AFNE01.JPG,AFNE01.JPG,AFNE01.JPG,5,0,50,0,,,,,,,,,,,,,,,,,,,,,,,AMSA15.jpg,AMSA19.jpg,AMNE12.jpg,AMNE17.jpg,AMSA19.jpg,MS,2,num_6,16,num_6,1.16672947817,,,2017_Mar_23_1056,60.0060241058,MAFE4ImagesEEG,001,100059,
AFNE01.JPG,AFNE01.JPG,AFNE01.JPG,AFNE01.JPG,AFNE01.JPG,AFNE01.JPG,5,1,51,2,,,,,,,,,,,,,,,,,,,,,,,AMSA19.jpg,AMNE02.jpg,AMNE04.jpg,AMSA02.jpg,AMNE04.jpg,MN,1,num_2,16,num_2,0.500205433753,,,2017_Mar_23_1056,60.0060241058,MAFE4ImagesEEG,001,100059,
AFNE01.JPG,AFNE01.JPG,AFNE01.JPG,AFNE01.JPG,AFNE01.JPG,AFNE01.JPG,5,2,52,4,,,,,,,,,,,,,,,,,,,,,,,AMNE13.jpg,AMNE10.jpg,AMSA02.jpg,AMSA19.jpg,AMNE13.jpg,MN,1,num_8,16,num_8,1.03335436317,,,2017_Mar_23_1056,60.0060241058,MAFE4ImagesEEG,001,100059,
AFNE01.JPG,AFNE01.JPG,AFNE01.JPG,AFNE01.JPG,AFNE01.JPG,AFNE01.JPG,5,3,53,3,,,,,,,,,,,,,,,,,,,,,,,AMNE03.jpg,AMSA19.jpg,AMSA09.jpg,AMNE06.jpg,AMNE03.jpg,MN,1,num_8,16,num_8,0.4833919378,,,2017_Mar_23_1056,60.0060241058,MAFE4ImagesEEG,001,100059,
AFNE01.JPG,AFNE01.JPG,AFNE01.JPG,AFNE01.JPG,AFNE01.JPG,AFNE01.JPG,5,4,54,8,,,,,,,,,,,,,,,,,,,,,,,AMNE12.jpg,AMSA06.jpg,AMNE18.jpg,AMSA10.jpg,AMSA06.jpg,MS,2,num_6,16,num_6,0.5834572725,,,2017_Mar_23_1056,60.0060241058,MAFE4ImagesEEG,001,100059,
AFNE01.JPG,AFNE01.JPG,AFNE01.JPG,AFNE01.JPG,AFNE01.JPG,AFNE01.JPG,5,5,55,1,,,,,,,,,,,,,,,,,,,,,,,AMSA05.jpg,AMNE10.jpg,AMNE19.jpg,AMSA19.jpg,AMNE19.jpg,MN,1,num_2,32,num_6,1.23344397784,,,2017_Mar_23_1056,60.0060241058,MAFE4ImagesEEG,001,100059,
AFNE01.JPG,AFNE01.JPG,AFNE01.JPG,AFNE01.JPG,AFNE01.JPG,AFNE01.JPG,5,6,56,6,,,,,,,,,,,,,,,,,,,,,,,AMSA05.jpg,AMNE08.jpg,AMNE15.jpg,AMSA01.jpg,AMNE15.jpg,MN,1,num_2,16,num_2,1.05010595638,,,2017_Mar_23_1056,60.0060241058,MAFE4ImagesEEG,001,100059,
AFNE01.JPG,AFNE01.JPG,AFNE01.JPG,AFNE01.JPG,AFNE01.JPG,AFNE01.JPG,5,7,57,5,,,,,,,,,,,,,,,,,,,,,,,AMNE11.jpg,AMSA20.jpg,AMNE07.jpg,AMSA14.jpg,AMSA20.jpg,MS,2,num_6,16,num_6,1.38340807101,,,2017_Mar_23_1056,60.0060241058,MAFE4ImagesEEG,001,100059,
AFNE01.JPG,AFNE01.JPG,AFNE01.JPG,AFNE01.JPG,AFNE01.JPG,AFNE01.JPG,5,8,58,9,,,,,,,,,,,,,,,,,,,,,,,AMSA04.jpg,AMNE11.jpg,AMNE04.jpg,AMSA20.jpg,AMNE04.jpg,MN,1,num_2,16,num_2,0.78345804225,,,2017_Mar_23_1056,60.0060241058,MAFE4ImagesEEG,001,100059,
AFNE01.JPG,AFNE01.JPG,AFNE01.JPG,AFNE01.JPG,AFNE01.JPG,AFNE01.JPG,5,9,59,7,,,,,,,,,,,,,,,,,,,,,,,AMNE08.jpg,AMSA16.jpg,AMNE07.jpg,AMSA03.jpg,AMSA16.jpg,MS,2,num_6,16,num_6,1.03342685034,,,2017_Mar_23_1056,60.0060241058,MAFE4ImagesEEG,001,100059,
,,,,,,,,,,,,,,,,,,,,,,,,,,,,,,,,,,,,,,,,,,,space,6.39942517027,2017_Mar_23_1056,60.0060241058,MAFE4ImagesEEG,001,100059,
AFNE01.JPG,AFNE01.JPG,AFNE01.JPG,AFNE01.JPG,AFNE01.JPG,AFNE01.JPG,,,,,0,0,0,8,,,,,,,,,,,,,,,,,,,AFNE17.jpg,AFNE18.jpg,AFSA13.jpg,AFSA08.jpg,AFSA13.jpg,FS,4,num_2,32,num_8,1.16676892916,,,2017_Mar_23_1056,60.0060241058,MAFE4ImagesEEG,001,100059,
AFNE01.JPG,AFNE01.JPG,AFNE01.JPG,AFNE01.JPG,AFNE01.JPG,AFNE01.JPG,,,,,0,1,1,1,,,,,,,,,,,,,,,,,,,AFNE04.jpg,AFSA09.jpg,AFNE07.jpg,AFSA12.jpg,AFNE07.jpg,FN,3,num_2,16,num_2,0.583449254045,,,2017_Mar_23_1056,60.0060241058,MAFE4ImagesEEG,001,100059,
AFNE01.JPG,AFNE01.JPG,AFNE01.JPG,AFNE01.JPG,AFNE01.JPG,AFNE01.JPG,,,,,0,2,2,7,,,,,,,,,,,,,,,,,,,AFSA07.jpg,AFSA04.jpg,AFNE08.jpg,AFNE14.jpg,AFNE08.jpg,FN,3,num_2,32,num_8,0.817047828401,,,2017_Mar_23_1056,60.0060241058,MAFE4ImagesEEG,001,100059,
AFNE01.JPG,AFNE01.JPG,AFNE01.JPG,AFNE01.JPG,AFNE01.JPG,AFNE01.JPG,,,,,0,3,3,0,,,,,,,,,,,,,,,,,,,AFSA19.jpg,AFNE10.jpg,AFNE09.jpg,AFSA14.jpg,AFNE10.jpg,FN,3,num_6,32,num_8,0.883429400215,,,2017_Mar_23_1056,60.0060241058,MAFE4ImagesEEG,001,100059,
AFNE01.JPG,AFNE01.JPG,AFNE01.JPG,AFNE01.JPG,AFNE01.JPG,AFNE01.JPG,,,,,0,4,4,2,,,,,,,,,,,,,,,,,,,AFNE05.jpg,AFSA19.jpg,AFNE07.jpg,AFSA13.jpg,AFNE05.jpg,FN,3,num_8,32,num_6,1.31673334306,,,2017_Mar_23_1056,60.0060241058,MAFE4ImagesEEG,001,100059,
AFNE01.JPG,AFNE01.JPG,AFNE01.JPG,AFNE01.JPG,AFNE01.JPG,AFNE01.JPG,,,,,0,5,5,3,,,,,,,,,,,,,,,,,,,AFNE20.jpg,AFNE06.jpg,AFSA17.jpg,AFSA13.jpg,AFSA13.jpg,FS,4,num_4,32,num_8,0.150183799851,,,2017_Mar_23_1056,60.0060241058,MAFE4ImagesEEG,001,100059,
AFNE01.JPG,AFNE01.JPG,AFNE01.JPG,AFNE01.JPG,AFNE01.JPG,AFNE01.JPG,,,,,0,6,6,6,,,,,,,,,,,,,,,,,,,AFNE12.jpg,AFSA14.jpg,AFSA13.jpg,AFNE04.jpg,AFSA13.jpg,FS,4,num_2,32,num_6,1.01679232711,,,2017_Mar_23_1056,60.0060241058,MAFE4ImagesEEG,001,100059,
AFNE01.JPG,AFNE01.JPG,AFNE01.JPG,AFNE01.JPG,AFNE01.JPG,AFNE01.JPG,,,,,0,7,7,9,,,,,,,,,,,,,,,,,,,AFSA18.jpg,AFNE15.jpg,AFSA15.jpg,AFNE13.jpg,AFNE15.jpg,FN,3,num_6,32,num_2,0.966675465635,,,2017_Mar_23_1056,60.0060241058,MAFE4ImagesEEG,001,100059,
AFNE01.JPG,AFNE01.JPG,AFNE01.JPG,AFNE01.JPG,AFNE01.JPG,AFNE01.JPG,,,,,0,8,8,4,,,,,,,,,,,,,,,,,,,AFNE17.jpg,AFSA08.jpg,AFNE07.jpg,AFSA01.jpg,AFNE07.jpg,FN,3,num_2,32,num_6,1.31672179647,,,2017_Mar_23_1056,60.0060241058,MAFE4ImagesEEG,001,100059,
AFNE01.JPG,AFNE01.JPG,AFNE01.JPG,AFNE01.JPG,AFNE01.JPG,AFNE01.JPG,,,,,0,9,9,5,,,,,,,,,,,,,,,,,,,AFSA09.jpg,AFNE07.jpg,AFNE06.jpg,AFSA17.jpg,AFSA09.jpg,FS,4,num_8,16,num_8,0.466848825454,,,2017_Mar_23_1056,60.0060241058,MAFE4ImagesEEG,001,100059,
AFNE01.JPG,AFNE01.JPG,AFNE01.JPG,AFNE01.JPG,AFNE01.JPG,AFNE01.JPG,,,,,1,0,10,4,,,,,,,,,,,,,,,,,,,AFSA17.jpg,AFNE03.jpg,AFNE10.jpg,AFSA11.jpg,AFSA17.jpg,FS,4,num_8,32,num_4,1.33312955667,,,2017_Mar_23_1056,60.0060241058,MAFE4ImagesEEG,001,100059,
AFNE01.JPG,AFNE01.JPG,AFNE01.JPG,AFNE01.JPG,AFNE01.JPG,AFNE01.JPG,,,,,1,1,11,5,,,,,,,,,,,,,,,,,,,AFNE14.jpg,AFSA06.jpg,AFNE17.jpg,AFSA08.jpg,AFSA08.jpg,FS,4,num_4,32,num_8,1.01678462938,,,2017_Mar_23_1056,60.0060241058,MAFE4ImagesEEG,001,100059,
AFNE01.JPG,AFNE01.JPG,AFNE01.JPG,AFNE01.JPG,AFNE01.JPG,AFNE01.JPG,,,,,1,2,12,9,,,,,,,,,,,,,,,,,,,AFSA05.jpg,AFSA20.jpg,AFNE19.jpg,AFNE04.jpg,AFNE19.jpg,FN,3,num_2,16,num_2,1.1500779558,,,2017_Mar_23_1056,60.0060241058,MAFE4ImagesEEG,001,100059,
AFNE01.JPG,AFNE01.JPG,AFNE01.JPG,AFNE01.JPG,AFNE01.JPG,AFNE01.JPG,,,,,1,3,13,3,,,,,,,,,,,,,,,,,,,AFSA12.jpg,AFNE03.jpg,AFNE13.jpg,AFSA01.jpg,AFNE13.jpg,FN,3,num_2,32,num_8,1.08348726167,,,2017_Mar_23_1056,60.0060241058,MAFE4ImagesEEG,001,100059,
AFNE01.JPG,AFNE01.JPG,AFNE01.JPG,AFNE01.JPG,AFNE01.JPG,AFNE01.JPG,,,,,1,4,14,6,,,,,,,,,,,,,,,,,,,AFNE03.jpg,AFSA20.jpg,AFNE09.jpg,AFSA14.jpg,AFSA20.jpg,FS,4,num_6,32,num_4,0.750107207219,,,2017_Mar_23_1056,60.0060241058,MAFE4ImagesEEG,001,100059,
AFNE01.JPG,AFNE01.JPG,AFNE01.JPG,AFNE01.JPG,AFNE01.JPG,AFNE01.JPG,,,,,1,5,15,7,,,,,,,,,,,,,,,,,,,AFSA07.jpg,AFNE01.jpg,AFNE03.jpg,AFSA09.jpg,AFNE01.jpg,FN,3,num_6,16,num_6,0.883469492663,,,2017_Mar_23_1056,60.0060241058,MAFE4ImagesEEG,001,100059,
AFNE01.JPG,AFNE01.JPG,AFNE01.JPG,AFNE01.JPG,AFNE01.JPG,AFNE01.JPG,,,,,1,6,16,2,,,,,,,,,,,,,,,,,,,AFSA16.jpg,AFSA06.jpg,AFNE07.jpg,AFNE12.jpg,AFNE07.jpg,FN,3,num_2,32,num_4,1.01672336808,,,2017_Mar_23_1056,60.0060241058,MAFE4ImagesEEG,001,100059,
AFNE01.JPG,AFNE01.JPG,AFNE01.JPG,AFNE01.JPG,AFNE01.JPG,AFNE01.JPG,,,,,1,7,17,1,,,,,,,,,,,,,,,,,,,AFNE03.jpg,AFSA01.jpg,AFSA04.jpg,AFNE09.jpg,AFNE03.jpg,FN,3,num_8,16,num_8,0.700154243736,,,2017_Mar_23_1056,60.0060241058,MAFE4ImagesEEG,001,100059,
AFNE01.JPG,AFNE01.JPG,AFNE01.JPG,AFNE01.JPG,AFNE01.JPG,AFNE01.JPG,,,,,1,8,18,0,,,,,,,,,,,,,,,,,,,AFNE18.jpg,AFNE17.jpg,AFSA17.jpg,AFSA12.jpg,AFNE18.jpg,FN,3,num_8,16,num_8,1.18326264765,,,2017_Mar_23_1056,60.0060241058,MAFE4ImagesEEG,001,100059,
AFNE01.JPG,AFNE01.JPG,AFNE01.JPG,AFNE01.JPG,AFNE01.JPG,AFNE01.JPG,,,,,1,9,19,8,,,,,,,,,,,,,,,,,,,AFSA09.jpg,AFNE10.jpg,AFSA12.jpg,AFNE15.jpg,AFSA12.jpg,FS,4,num_2,16,num_2,0.516803071892,,,2017_Mar_23_1056,60.0060241058,MAFE4ImagesEEG,001,100059,
AFNE01.JPG,AFNE01.JPG,AFNE01.JPG,AFNE01.JPG,AFNE01.JPG,AFNE01.JPG,,,,,2,0,20,4,,,,,,,,,,,,,,,,,,,AFNE03.jpg,AFNE10.jpg,AFSA12.jpg,AFSA19.jpg,AFSA19.jpg,FS,4,num_4,16,num_4,0.433161213703,,,2017_Mar_23_1056,60.0060241058,MAFE4ImagesEEG,001,100059,
AFNE01.JPG,AFNE01.JPG,AFNE01.JPG,AFNE01.JPG,AFNE01.JPG,AFNE01.JPG,,,,,2,1,21,8,,,,,,,,,,,,,,,,,,,AFSA07.jpg,AFNE10.jpg,AFNE09.jpg,AFSA15.jpg,AFNE10.jpg,FN,3,num_6,16,num_6,0.883443833503,,,2017_Mar_23_1056,60.0060241058,MAFE4ImagesEEG,001,100059,
AFNE01.JPG,AFNE01.JPG,AFNE01.JPG,AFNE01.JPG,AFNE01.JPG,AFNE01.JPG,,,,,2,2,22,1,,,,,,,,,,,,,,,,,,,AFNE11.jpg,AFSA10.jpg,AFNE02.jpg,AFSA06.jpg,AFNE11.jpg,FN,3,num_8,16,num_8,0.516781261598,,,2017_Mar_23_1056,60.0060241058,MAFE4ImagesEEG,001,100059,
AFNE01.JPG,AFNE01.JPG,AFNE01.JPG,AFNE01.JPG,AFNE01.JPG,AFNE01.JPG,,,,,2,3,23,6,,,,,,,,,,,,,,,,,,,AFSA18.jpg,AFNE10.jpg,AFNE15.jpg,AFSA09.jpg,AFNE15.jpg,FN,3,num_2,16,num_2,0.550327427103,,,2017_Mar_23_1056,60.0060241058,MAFE4ImagesEEG,001,100059,
AFNE01.JPG,AFNE01.JPG,AFNE01.JPG,AFNE01.JPG,AFNE01.JPG,AFNE01.JPG,,,,,2,4,24,3,,,,,,,,,,,,,,,,,,,AFNE14.jpg,AFSA07.jpg,AFSA14.jpg,AFNE12.jpg,AFSA07.jpg,FS,4,num_6,32,num_8,1.0667513847,,,2017_Mar_23_1056,60.0060241058,MAFE4ImagesEEG,001,100059,
AFNE01.JPG,AFNE01.JPG,AFNE01.JPG,AFNE01.JPG,AFNE01.JPG,AFNE01.JPG,,,,,2,5,25,2,,,,,,,,,,,,,,,,,,,AFSA20.jpg,AFSA09.jpg,AFNE01.jpg,AFNE09.jpg,AFNE09.jpg,FN,3,num_4,16,num_4,0.46673849097,,,2017_Mar_23_1056,60.0060241058,MAFE4ImagesEEG,001,100059,
AFNE01.JPG,AFNE01.JPG,AFNE01.JPG,AFNE01.JPG,AFNE01.JPG,AFNE01.JPG,,,,,2,6,26,9,,,,,,,,,,,,,,,,,,,AFSA20.jpg,AFNE12.jpg,AFNE04.jpg,AFSA18.jpg,AFNE04.jpg,FN,3,num_2,16,num_2,1.00014304987,,,2017_Mar_23_1056,60.0060241058,MAFE4ImagesEEG,001,100059,
AFNE01.JPG,AFNE01.JPG,AFNE01.JPG,AFNE01.JPG,AFNE01.JPG,AFNE01.JPG,,,,,2,7,27,7,,,,,,,,,,,,,,,,,,,AFNE15.jpg,AFSA09.jpg,AFSA04.jpg,AFNE01.jpg,AFSA09.jpg,FS,4,num_6,32,num_8,0.866992131923,,,2017_Mar_23_1056,60.0060241058,MAFE4ImagesEEG,001,100059,
AFNE01.JPG,AFNE01.JPG,AFNE01.JPG,AFNE01.JPG,AFNE01.JPG,AFNE01.JPG,,,,,2,8,28,5,,,,,,,,,,,,,,,,,,,AFSA02.jpg,AFSA05.jpg,AFNE07.jpg,AFNE06.jpg,AFNE07.jpg,FN,3,num_2,16,num_2,0.700189845811,,,2017_Mar_23_1056,60.0060241058,MAFE4ImagesEEG,001,100059,
AFNE01.JPG,AFNE01.JPG,AFNE01.JPG,AFNE01.JPG,AFNE01.JPG,AFNE01.JPG,,,,,2,9,29,0,,,,,,,,,,,,,,,,,,,AFSA13.jpg,AFNE03.jpg,AFSA05.jpg,AFNE18.jpg,AFNE18.jpg,FN,3,num_4,16,num_4,0.533448820992,,,2017_Mar_23_1056,60.0060241058,MAFE4ImagesEEG,001,100059,
AFNE01.JPG,AFNE01.JPG,AFNE01.JPG,AFNE01.JPG,AFNE01.JPG,AFNE01.JPG,,,,,3,0,30,9,,,,,,,,,,,,,,,,,,,AFSA17.jpg,AFNE15.jpg,AFNE01.jpg,AFSA19.jpg,AFNE15.jpg,FN,3,num_6,16,num_6,1.16670029092,,,2017_Mar_23_1056,60.0060241058,MAFE4ImagesEEG,001,100059,
AFNE01.JPG,AFNE01.JPG,AFNE01.JPG,AFNE01.JPG,AFNE01.JPG,AFNE01.JPG,,,,,3,1,31,8,,,,,,,,,,,,,,,,,,,AFSA20.jpg,AFSA11.jpg,AFNE07.jpg,AFNE16.jpg,AFNE16.jpg,FN,3,num_4,32,num_2,0.933386212622,,,2017_Mar_23_1056,60.0060241058,MAFE4ImagesEEG,001,100059,
AFNE01.JPG,AFNE01.JPG,AFNE01.JPG,AFNE01.JPG,AFNE01.JPG,AFNE01.JPG,,,,,3,2,32,7,,,,,,,,,,,,,,,,,,,AFSA08.jpg,AFNE09.jpg,AFSA16.jpg,AFNE02.jpg,AFNE02.jpg,FN,3,num_4,32,num_2,0.883445437183,,,2017_Mar_23_1056,60.0060241058,MAFE4ImagesEEG,001,100059,
AFNE01.JPG,AFNE01.JPG,AFNE01.JPG,AFNE01.JPG,AFNE01.JPG,AFNE01.JPG,,,,,3,3,33,5,,,,,,,,,,,,,,,,,,,AFSA10.jpg,AFNE03.jpg,AFSA14.jpg,AFNE02.jpg,AFNE02.jpg,FN,3,num_4,32,num_8,0.633454498078,,,2017_Mar_23_1056,60.0060241058,MAFE4ImagesEEG,001,100059,
AFNE01.JPG,AFNE01.JPG,AFNE01.JPG,AFNE01.JPG,AFNE01.JPG,AFNE01.JPG,,,,,3,4,34,2,,,,,,,,,,,,,,,,,,,AFSA07.jpg,AFNE04.jpg,AFSA13.jpg,AFNE02.jpg,AFNE02.jpg,FN,3,num_4,32,num_8,0.616803617158,,,2017_Mar_23_1056,60.0060241058,MAFE4ImagesEEG,001,100059,
AFNE01.JPG,AFNE01.JPG,AFNE01.JPG,AFNE01.JPG,AFNE01.JPG,AFNE01.JPG,,,,,3,5,35,3,,,,,,,,,,,,,,,,,,,AFSA17.jpg,AFNE14.jpg,AFNE03.jpg,AFSA15.jpg,AFSA15.jpg,FS,4,num_4,16,num_4,1.0667860246,,,2017_Mar_23_1056,60.0060241058,MAFE4ImagesEEG,001,100059,
AFNE01.JPG,AFNE01.JPG,AFNE01.JPG,AFNE01.JPG,AFNE01.JPG,AFNE01.JPG,,,,,3,6,36,6,,,,,,,,,,,,,,,,,,,AFNE04.jpg,AFSA14.jpg,AFSA11.jpg,AFNE09.jpg,AFSA11.jpg,FS,4,num_2,32,num_8,0.716797747649,,,2017_Mar_23_1056,60.0060241058,MAFE4ImagesEEG,001,100059,
AFNE01.JPG,AFNE01.JPG,AFNE01.JPG,AFNE01.JPG,AFNE01.JPG,AFNE01.JPG,,,,,3,7,37,4,,,,,,,,,,,,,,,,,,,AFSA10.jpg,AFSA05.jpg,AFNE04.jpg,AFNE01.jpg,AFSA10.jpg,FS,4,num_8,32,num_6,0.833446607925,,,2017_Mar_23_1056,60.0060241058,MAFE4ImagesEEG,001,100059,
AFNE01.JPG,AFNE01.JPG,AFNE01.JPG,AFNE01.JPG,AFNE01.JPG,AFNE01.JPG,,,,,3,8,38,1,,,,,,,,,,,,,,,,,,,AFNE16.jpg,AFNE01.jpg,AFSA16.jpg,AFSA14.jpg,AFNE01.jpg,FN,3,num_6,32,num_4,0.750125810155,,,2017_Mar_23_1056,60.0060241058,MAFE4ImagesEEG,001,100059,
AFNE01.JPG,AFNE01.JPG,AFNE01.JPG,AFNE01.JPG,AFNE01.JPG,AFNE01.JPG,,,,,3,9,39,0,,,,,,,,,,,,,,,,,,,AFSA11.jpg,AFNE12.jpg,AFSA16.jpg,AFNE01.jpg,AFSA16.jpg,FS,4,num_2,32,num_4,0.933451964287,,,2017_Mar_23_1056,60.0060241058,MAFE4ImagesEEG,001,100059,
AFNE01.JPG,AFNE01.JPG,AFNE01.JPG,AFNE01.JPG,AFNE01.JPG,AFNE01.JPG,,,,,4,0,40,0,,,,,,,,,,,,,,,,,,,AFSA04.jpg,AFNE02.jpg,AFSA16.jpg,AFNE16.jpg,AFSA04.jpg,FS,4,num_8,32,num_4,0.866807065147,,,2017_Mar_23_1056,60.0060241058,MAFE4ImagesEEG,001,100059,
AFNE01.JPG,AFNE01.JPG,AFNE01.JPG,AFNE01.JPG,AFNE01.JPG,AFNE01.JPG,,,,,4,1,41,9,,,,,,,,,,,,,,,,,,,AFNE07.jpg,AFSA17.jpg,AFSA06.jpg,AFNE09.jpg,AFNE09.jpg,FN,3,num_4,32,num_8,0.683457496983,,,2017_Mar_23_1056,60.0060241058,MAFE4ImagesEEG,001,100059,
AFNE01.JPG,AFNE01.JPG,AFNE01.JPG,AFNE01.JPG,AFNE01.JPG,AFNE01.JPG,,,,,4,2,42,5,,,,,,,,,,,,,,,,,,,AFSA07.jpg,AFNE04.jpg,AFSA08.jpg,AFNE11.jpg,AFSA08.jpg,FS,4,num_2,32,num_6,1.11678389169,,,2017_Mar_23_1056,60.0060241058,MAFE4ImagesEEG,001,100059,
AFNE01.JPG,AFNE01.JPG,AFNE01.JPG,AFNE01.JPG,AFNE01.JPG,AFNE01.JPG,,,,,4,3,43,3,,,,,,,,,,,,,,,,,,,AFSA04.jpg,AFNE08.jpg,AFSA19.jpg,AFNE16.jpg,AFNE16.jpg,FN,3,num_4,32,num_2,0.683523569431,,,2017_Mar_23_1056,60.0060241058,MAFE4ImagesEEG,001,100059,
AFNE01.JPG,AFNE01.JPG,AFNE01.JPG,AFNE01.JPG,AFNE01.JPG,AFNE01.JPG,,,,,4,4,44,4,,,,,,,,,,,,,,,,,,,AFNE13.jpg,AFSA07.jpg,AFNE11.jpg,AFSA17.jpg,AFSA17.jpg,FS,4,num_4,32,num_2,1.51662762731,,,2017_Mar_23_1056,60.0060241058,MAFE4ImagesEEG,001,100059,
AFNE01.JPG,AFNE01.JPG,AFNE01.JPG,AFNE01.JPG,AFNE01.JPG,AFNE01.JPG,,,,,4,5,45,2,,,,,,,,,,,,,,,,,,,AFNE08.jpg,AFNE01.jpg,AFSA11.jpg,AFSA09.jpg,AFNE01.jpg,FN,3,num_6,16,num_6,0.699982006452,,,2017_Mar_23_1056,60.0060241058,MAFE4ImagesEEG,001,100059,
AFNE01.JPG,AFNE01.JPG,AFNE01.JPG,AFNE01.JPG,AFNE01.JPG,AFNE01.JPG,,,,,4,6,46,6,,,,,,,,,,,,,,,,,,,AFSA09.jpg,AFNE07.jpg,AFSA05.jpg,AFNE20.jpg,AFNE20.jpg,FN,3,num_4,16,num_4,1.04993564356,,,2017_Mar_23_1056,60.0060241058,MAFE4ImagesEEG,001,100059,
AFNE01.JPG,AFNE01.JPG,AFNE01.JPG,AFNE01.JPG,AFNE01.JPG,AFNE01.JPG,,,,,4,7,47,7,,,,,,,,,,,,,,,,,,,AFNE16.jpg,AFSA02.jpg,AFNE02.jpg,AFSA07.jpg,AFSA02.jpg,FS,4,num_6,16,num_6,0.983413267008,,,2017_Mar_23_1056,60.0060241058,MAFE4ImagesEEG,001,100059,
AFNE01.JPG,AFNE01.JPG,AFNE01.JPG,AFNE01.JPG,AFNE01.JPG,AFNE01.JPG,,,,,4,8,48,8,,,,,,,,,,,,,,,,,,,AFSA02.jpg,AFSA20.jpg,AFNE08.jpg,AFNE10.jpg,AFSA02.jpg,FS,4,num_8,32,num_6,0.666768768802,,,2017_Mar_23_1056,60.0060241058,MAFE4ImagesEEG,001,100059,
AFNE01.JPG,AFNE01.JPG,AFNE01.JPG,AFNE01.JPG,AFNE01.JPG,AFNE01.JPG,,,,,4,9,49,1,,,,,,,,,,,,,,,,,,,AFSA18.jpg,AFNE20.jpg,AFNE09.jpg,AFSA17.jpg,AFSA18.jpg,FS,4,num_8,32,num_4,0.733500588394,,,2017_Mar_23_1056,60.0060241058,MAFE4ImagesEEG,001,100059,
AFNE01.JPG,AFNE01.JPG,AFNE01.JPG,AFNE01.JPG,AFNE01.JPG,AFNE01.JPG,,,,,5,0,50,2,,,,,,,,,,,,,,,,,,,AFNE05.jpg,AFSA08.jpg,AFSA06.jpg,AFNE08.jpg,AFSA08.jpg,FS,4,num_6,16,num_6,0.950082959316,,,2017_Mar_23_1056,60.0060241058,MAFE4ImagesEEG,001,100059,
AFNE01.JPG,AFNE01.JPG,AFNE01.JPG,AFNE01.JPG,AFNE01.JPG,AFNE01.JPG,,,,,5,1,51,0,,,,,,,,,,,,,,,,,,,AFSA17.jpg,AFSA06.jpg,AFNE01.jpg,AFNE12.jpg,AFSA06.jpg,FS,4,num_6,32,num_8,1.06675651652,,,2017_Mar_23_1056,60.0060241058,MAFE4ImagesEEG,001,100059,
AFNE01.JPG,AFNE01.JPG,AFNE01.JPG,AFNE01.JPG,AFNE01.JPG,AFNE01.JPG,,,,,5,2,52,1,,,,,,,,,,,,,,,,,,,AFSA17.jpg,AFSA13.jpg,AFNE10.jpg,AFNE06.jpg,AFNE06.jpg,FN,3,num_4,32,num_6,1.03344609472,,,2017_Mar_23_1056,60.0060241058,MAFE4ImagesEEG,001,100059,
AFNE01.JPG,AFNE01.JPG,AFNE01.JPG,AFNE01.JPG,AFNE01.JPG,AFNE01.JPG,,,,,5,3,53,3,,,,,,,,,,,,,,,,,,,AFSA12.jpg,AFNE03.jpg,AFNE08.jpg,AFSA06.jpg,AFSA06.jpg,FS,4,num_4,16,num_4,1.11674796883,,,2017_Mar_23_1056,60.0060241058,MAFE4ImagesEEG,001,100059,
AFNE01.JPG,AFNE01.JPG,AFNE01.JPG,AFNE01.JPG,AFNE01.JPG,AFNE01.JPG,,,,,5,4,54,9,,,,,,,,,,,,,,,,,,,AFNE08.jpg,AFNE14.jpg,AFSA09.jpg,AFSA16.jpg,AFNE08.jpg,FN,3,num_8,32,num_6,0.733501550567,,,2017_Mar_23_1056,60.0060241058,MAFE4ImagesEEG,001,100059,
AFNE01.JPG,AFNE01.JPG,AFNE01.JPG,AFNE01.JPG,AFNE01.JPG,AFNE01.JPG,,,,,5,5,55,8,,,,,,,,,,,,,,,,,,,AFSA18.jpg,AFNE09.jpg,AFNE15.jpg,AFSA03.jpg,AFNE15.jpg,FN,3,num_2,32,num_8,0.716791012092,,,2017_Mar_23_1056,60.0060241058,MAFE4ImagesEEG,001,100059,
AFNE01.JPG,AFNE01.JPG,AFNE01.JPG,AFNE01.JPG,AFNE01.JPG,AFNE01.JPG,,,,,5,6,56,5,,,,,,,,,,,,,,,,,,,AFNE12.jpg,AFSA13.jpg,AFNE19.jpg,AFSA05.jpg,AFSA13.jpg,FS,4,num_6,16,num_6,1.15005357959,,,2017_Mar_23_1056,60.0060241058,MAFE4ImagesEEG,001,100059,
AFNE01.JPG,AFNE01.JPG,AFNE01.JPG,AFNE01.JPG,AFNE01.JPG,AFNE01.JPG,,,,,5,7,57,7,,,,,,,,,,,,,,,,,,,AFSA03.jpg,AFNE01.jpg,AFSA18.jpg,AFNE17.jpg,AFNE01.jpg,FN,3,num_6,16,num_6,0.866789103718,,,2017_Mar_23_1056,60.0060241058,MAFE4ImagesEEG,001,100059,
AFNE01.JPG,AFNE01.JPG,AFNE01.JPG,AFNE01.JPG,AFNE01.JPG,AFNE01.JPG,,,,,5,8,58,4,,,,,,,,,,,,,,,,,,,AFSA12.jpg,AFNE09.jpg,AFSA16.jpg,AFNE05.jpg,AFSA16.jpg,FS,4,num_2,32,num_6,1.31700821704,,,2017_Mar_23_1056,60.0060241058,MAFE4ImagesEEG,001,100059,
AFNE01.JPG,AFNE01.JPG,AFNE01.JPG,AFNE01.JPG,AFNE01.JPG,AFNE01.JPG,,,,,5,9,59,6,,,,,,,,,,,,,,,,,,,AFNE14.jpg,AFSA11.jpg,AFNE10.jpg,AFSA12.jpg,AFSA12.jpg,FS,4,num_4,16,num_4,0.800117583189,,,2017_Mar_23_1056,60.0060241058,MAFE4ImagesEEG,001,100059,
,,,,,,,,,,,,,,,,,,,,,,,,,,,,,,,,,,,,,,,,,,,space,15.9656022706,2017_Mar_23_1056,60.0060241058,MAFE4ImagesEEG,001,100059,
AFNE01.JPG,AFNE01.JPG,AFNE01.JPG,AFNE01.JPG,AFNE01.JPG,AFNE01.JPG,,,,,,,,,0,0,0,9,,,,,,,,,,,,,,,AMSA13.jpg,AMNE02.jpg,AMNE16.jpg,AMSA12.jpg,AMSA12.jpg,MS,2,num_4,16,num_4,0.816764615243,,,2017_Mar_23_1056,60.0060241058,MAFE4ImagesEEG,001,100059,
AFNE01.JPG,AFNE01.JPG,AFNE01.JPG,AFNE01.JPG,AFNE01.JPG,AFNE01.JPG,,,,,,,,,0,1,1,3,,,,,,,,,,,,,,,AMSA01.jpg,AMNE20.jpg,AMSA10.jpg,AMNE11.jpg,AMSA01.jpg,MS,2,num_8,32,num_4,0.95012786286,,,2017_Mar_23_1056,60.0060241058,MAFE4ImagesEEG,001,100059,
AFNE01.JPG,AFNE01.JPG,AFNE01.JPG,AFNE01.JPG,AFNE01.JPG,AFNE01.JPG,,,,,,,,,0,2,2,4,,,,,,,,,,,,,,,AMSA17.jpg,AMSA18.jpg,AMNE12.jpg,AMNE17.jpg,AMSA18.jpg,MS,2,num_6,16,num_6,0.549990329659,,,2017_Mar_23_1056,60.0060241058,MAFE4ImagesEEG,001,100059,
AFNE01.JPG,AFNE01.JPG,AFNE01.JPG,AFNE01.JPG,AFNE01.JPG,AFNE01.JPG,,,,,,,,,0,3,3,2,,,,,,,,,,,,,,,AMNE06.jpg,AMSA04.jpg,AMSA09.jpg,AMNE02.jpg,AMNE02.jpg,MN,1,num_4,32,num_8,0.866624243499,,,2017_Mar_23_1056,60.0060241058,MAFE4ImagesEEG,001,100059,
AFNE01.JPG,AFNE01.JPG,AFNE01.JPG,AFNE01.JPG,AFNE01.JPG,AFNE01.JPG,,,,,,,,,0,4,4,0,,,,,,,,,,,,,,,AMSA07.jpg,AMSA16.jpg,AMNE12.jpg,AMNE02.jpg,AMSA16.jpg,MS,2,num_6,16,num_6,0.583536495222,,,2017_Mar_23_1056,60.0060241058,MAFE4ImagesEEG,001,100059,
AFNE01.JPG,AFNE01.JPG,AFNE01.JPG,AFNE01.JPG,AFNE01.JPG,AFNE01.JPG,,,,,,,,,0,5,5,6,,,,,,,,,,,,,,,AMSA03.jpg,AMNE16.jpg,AMNE20.jpg,AMSA16.jpg,AMSA03.jpg,MS,2,num_8,32,num_4,0.733471401094,,,2017_Mar_23_1056,60.0060241058,MAFE4ImagesEEG,001,100059,
AFNE01.JPG,AFNE01.JPG,AFNE01.JPG,AFNE01.JPG,AFNE01.JPG,AFNE01.JPG,,,,,,,,,0,6,6,1,,,,,,,,,,,,,,,AMSA07.jpg,AMNE01.jpg,AMNE12.jpg,AMSA09.jpg,AMSA07.jpg,MS,2,num_8,16,num_8,0.516850541404,,,2017_Mar_23_1056,60.0060241058,MAFE4ImagesEEG,001,100059,
AFNE01.JPG,AFNE01.JPG,AFNE01.JPG,AFNE01.JPG,AFNE01.JPG,AFNE01.JPG,,,,,,,,,0,7,7,8,,,,,,,,,,,,,,,AMSA07.jpg,AMNE08.jpg,AMSA04.jpg,AMNE14.jpg,AMNE14.jpg,MN,1,num_4,16,num_4,0.583479403576,,,2017_Mar_23_1056,60.0060241058,MAFE4ImagesEEG,001,100059,
AFNE01.JPG,AFNE01.JPG,AFNE01.JPG,AFNE01.JPG,AFNE01.JPG,AFNE01.JPG,,,,,,,,,0,8,8,5,,,,,,,,,,,,,,,AMNE14.jpg,AMNE05.jpg,AMSA13.jpg,AMSA20.jpg,AMNE05.jpg,MN,1,num_6,16,num_6,0.983175919624,,,2017_Mar_23_1056,60.0060241058,MAFE4ImagesEEG,001,100059,
AFNE01.JPG,AFNE01.JPG,AFNE01.JPG,AFNE01.JPG,AFNE01.JPG,AFNE01.JPG,,,,,,,,,0,9,9,7,,,,,,,,,,,,,,,AMNE02.jpg,AMSA09.jpg,AMSA10.jpg,AMNE10.jpg,AMNE02.jpg,MN,1,num_8,16,num_8,0.516781903047,,,2017_Mar_23_1056,60.0060241058,MAFE4ImagesEEG,001,100059,
AFNE01.JPG,AFNE01.JPG,AFNE01.JPG,AFNE01.JPG,AFNE01.JPG,AFNE01.JPG,,,,,,,,,1,0,10,6,,,,,,,,,,,,,,,AMSA13.jpg,AMSA20.jpg,AMNE13.jpg,AMNE05.jpg,AMNE05.jpg,MN,1,num_4,16,num_4,1.4500577813,,,2017_Mar_23_1056,60.0060241058,MAFE4ImagesEEG,001,100059,
AFNE01.JPG,AFNE01.JPG,AFNE01.JPG,AFNE01.JPG,AFNE01.JPG,AFNE01.JPG,,,,,,,,,1,1,11,0,,,,,,,,,,,,,,,AMNE02.jpg,AMSA16.jpg,AMSA14.jpg,AMNE07.jpg,AMSA16.jpg,MS,2,num_6,32,num_4,1.01675255538,,,2017_Mar_23_1056,60.0060241058,MAFE4ImagesEEG,001,100059,
AFNE01.JPG,AFNE01.JPG,AFNE01.JPG,AFNE01.JPG,AFNE01.JPG,AFNE01.JPG,,,,,,,,,1,2,12,7,,,,,,,,,,,,,,,AMSA16.jpg,AMNE08.jpg,AMNE12.jpg,AMSA03.jpg,AMNE12.jpg,MN,1,num_2,32,num_6,0.616777637275,,,2017_Mar_23_1056,60.0060241058,MAFE4ImagesEEG,001,100059,
AFNE01.JPG,AFNE01.JPG,AFNE01.JPG,AFNE01.JPG,AFNE01.JPG,AFNE01.JPG,,,,,,,,,1,3,13,2,,,,,,,,,,,,,,,AMNE11.jpg,AMSA03.jpg,AMNE06.jpg,AMSA09.jpg,AMSA09.jpg,MS,2,num_4,16,num_4,0.55016481207,,,2017_Mar_23_1056,60.0060241058,MAFE4ImagesEEG,001,100059,
AFNE01.JPG,AFNE01.JPG,AFNE01.JPG,AFNE01.JPG,AFNE01.JPG,AFNE01.JPG,,,,,,,,,1,4,14,9,,,,,,,,,,,,,,,AMSA18.jpg,AMSA19.jpg,AMNE10.jpg,AMNE12.jpg,AMNE12.jpg,MN,1,num_4,32,num_2,1.13347005396,,,2017_Mar_23_1056,60.0060241058,MAFE4ImagesEEG,001,100059,
AFNE01.JPG,AFNE01.JPG,AFNE01.JPG,AFNE01.JPG,AFNE01.JPG,AFNE01.JPG,,,,,,,,,1,5,15,5,,,,,,,,,,,,,,,AMNE14.jpg,AMNE20.jpg,AMSA03.jpg,AMSA14.jpg,AMNE14.jpg,MN,1,num_8,16,num_8,0.850847378257,,,2017_Mar_23_1056,60.0060241058,MAFE4ImagesEEG,001,100059,
AFNE01.JPG,AFNE01.JPG,AFNE01.JPG,AFNE01.JPG,AFNE01.JPG,AFNE01.JPG,,,,,,,,,1,6,16,3,,,,,,,,,,,,,,,AMSA16.jpg,AMNE06.jpg,AMNE12.jpg,AMSA03.jpg,AMNE06.jpg,MN,1,num_6,32,num_8,0.966814345913,,,2017_Mar_23_1056,60.0060241058,MAFE4ImagesEEG,001,100059,
AFNE01.JPG,AFNE01.JPG,AFNE01.JPG,AFNE01.JPG,AFNE01.JPG,AFNE01.JPG,,,,,,,,,1,7,17,8,,,,,,,,,,,,,,,AMSA15.jpg,AMNE07.jpg,AMSA20.jpg,AMNE13.jpg,AMNE07.jpg,MN,1,num_6,32,num_4,0.616791429056,,,2017_Mar_23_1056,60.0060241058,MAFE4ImagesEEG,001,100059,
AFNE01.JPG,AFNE01.JPG,AFNE01.JPG,AFNE01.JPG,AFNE01.JPG,AFNE01.JPG,,,,,,,,,1,8,18,1,,,,,,,,,,,,,,,AMSA16.jpg,AMNE10.jpg,AMSA03.jpg,AMNE07.jpg,AMNE10.jpg,MN,1,num_6,32,num_8,0.866762802994,,,2017_Mar_23_1056,60.0060241058,MAFE4ImagesEEG,001,100059,
AFNE01.JPG,AFNE01.JPG,AFNE01.JPG,AFNE01.JPG,AFNE01.JPG,AFNE01.JPG,,,,,,,,,1,9,19,4,,,,,,,,,,,,,,,AMSA19.jpg,AMNE06.jpg,AMNE13.jpg,AMSA09.jpg,AMSA09.jpg,MS,2,num_4,16,num_4,0.566820504144,,,2017_Mar_23_1056,60.0060241058,MAFE4ImagesEEG,001,100059,
AFNE01.JPG,AFNE01.JPG,AFNE01.JPG,AFNE01.JPG,AFNE01.JPG,AFNE01.JPG,,,,,,,,,2,0,20,2,,,,,,,,,,,,,,,AMNE13.jpg,AMSA07.jpg,AMNE06.jpg,AMSA02.jpg,AMSA02.jpg,MS,2,num_4,16,num_4,0.633466365456,,,2017_Mar_23_1056,60.0060241058,MAFE4ImagesEEG,001,100059,
AFNE01.JPG,AFNE01.JPG,AFNE01.JPG,AFNE01.JPG,AFNE01.JPG,AFNE01.JPG,,,,,,,,,2,1,21,4,,,,,,,,,,,,,,,AMNE06.jpg,AMSA15.jpg,AMSA18.jpg,AMNE02.jpg,AMSA18.jpg,MS,2,num_2,16,num_2,0.866790065949,,,2017_Mar_23_1056,60.0060241058,MAFE4ImagesEEG,001,100059,
AFNE01.JPG,AFNE01.JPG,AFNE01.JPG,AFNE01.JPG,AFNE01.JPG,AFNE01.JPG,,,,,,,,,2,2,22,0,,,,,,,,,,,,,,,AMSA06.jpg,AMSA19.jpg,AMNE02.jpg,AMNE11.jpg,AMSA19.jpg,MS,2,num_6,16,num_6,0.983475490531,,,2017_Mar_23_1056,60.0060241058,MAFE4ImagesEEG,001,100059,
AFNE01.JPG,AFNE01.JPG,AFNE01.JPG,AFNE01.JPG,AFNE01.JPG,AFNE01.JPG,,,,,,,,,2,3,23,8,,,,,,,,,,,,,,,AMSA09.jpg,AMNE14.jpg,AMNE04.jpg,AMSA04.jpg,AMNE04.jpg,MN,1,num_2,32,num_4,0.733427138999,,,2017_Mar_23_1056,60.0060241058,MAFE4ImagesEEG,001,100059,
AFNE01.JPG,AFNE01.JPG,AFNE01.JPG,AFNE01.JPG,AFNE01.JPG,AFNE01.JPG,,,,,,,,,2,4,24,9,,,,,,,,,,,,,,,AMSA20.jpg,AMSA11.jpg,AMNE14.jpg,AMNE15.jpg,AMSA11.jpg,MS,2,num_6,32,num_8,0.483588872012,,,2017_Mar_23_1056,60.0060241058,MAFE4ImagesEEG,001,100059,
AFNE01.JPG,AFNE01.JPG,AFNE01.JPG,AFNE01.JPG,AFNE01.JPG,AFNE01.JPG,,,,,,,,,2,5,25,5,,,,,,,,,,,,,,,AMSA01.jpg,AMNE15.jpg,AMNE01.jpg,AMSA16.jpg,AMSA16.jpg,MS,2,num_4,16,num_4,0.966907681199,,,2017_Mar_23_1056,60.0060241058,MAFE4ImagesEEG,001,100059,
AFNE01.JPG,AFNE01.JPG,AFNE01.JPG,AFNE01.JPG,AFNE01.JPG,AFNE01.JPG,,,,,,,,,2,6,26,6,,,,,,,,,,,,,,,AMNE08.jpg,AMNE04.jpg,AMSA01.jpg,AMSA20.jpg,AMSA20.jpg,MS,2,num_4,16,num_4,0.484064849676,,,2017_Mar_23_1056,60.0060241058,MAFE4ImagesEEG,001,100059,
AFNE01.JPG,AFNE01.JPG,AFNE01.JPG,AFNE01.JPG,AFNE01.JPG,AFNE01.JPG,,,,,,,,,2,7,27,1,,,,,,,,,,,,,,,AMSA07.jpg,AMNE04.jpg,AMNE14.jpg,AMSA10.jpg,AMNE14.jpg,MN,1,num_2,16,num_2,0.866743879451,,,2017_Mar_23_1056,60.0060241058,MAFE4ImagesEEG,001,100059,
AFNE01.JPG,AFNE01.JPG,AFNE01.JPG,AFNE01.JPG,AFNE01.JPG,AFNE01.JPG,,,,,,,,,2,8,28,3,,,,,,,,,,,,,,,AMSA04.jpg,AMNE06.jpg,AMSA19.jpg,AMNE01.jpg,AMNE06.jpg,MN,1,num_6,32,num_8,0.900144749845,,,2017_Mar_23_1056,60.0060241058,MAFE4ImagesEEG,001,100059,
AFNE01.JPG,AFNE01.JPG,AFNE01.JPG,AFNE01.JPG,AFNE01.JPG,AFNE01.JPG,,,,,,,,,2,9,29,7,,,,,,,,,,,,,,,AMNE10.jpg,AMSA17.jpg,AMNE15.jpg,AMSA11.jpg,AMSA17.jpg,MS,2,num_6,16,num_6,0.616877387278,,,2017_Mar_23_1056,60.0060241058,MAFE4ImagesEEG,001,100059,
AFNE01.JPG,AFNE01.JPG,AFNE01.JPG,AFNE01.JPG,AFNE01.JPG,AFNE01.JPG,,,,,,,,,3,0,30,6,,,,,,,,,,,,,,,AMSA03.jpg,AMNE06.jpg,AMNE19.jpg,AMSA14.jpg,AMNE19.jpg,MN,1,num_2,16,num_2,1.56669701933,,,2017_Mar_23_1056,60.0060241058,MAFE4ImagesEEG,001,100059,
AFNE01.JPG,AFNE01.JPG,AFNE01.JPG,AFNE01.JPG,AFNE01.JPG,AFNE01.JPG,,,,,,,,,3,1,31,8,,,,,,,,,,,,,,,AMSA07.jpg,AMSA15.jpg,AMNE09.jpg,AMNE18.jpg,AMSA15.jpg,MS,2,num_6,16,num_6,0.8667737082,,,2017_Mar_23_1056,60.0060241058,MAFE4ImagesEEG,001,100059,
AFNE01.JPG,AFNE01.JPG,AFNE01.JPG,AFNE01.JPG,AFNE01.JPG,AFNE01.JPG,,,,,,,,,3,2,32,0,,,,,,,,,,,,,,,AMNE12.jpg,AMSA18.jpg,AMNE04.jpg,AMSA17.jpg,AMSA18.jpg,MS,2,num_6,16,num_6,1.38401875942,,,2017_Mar_23_1056,60.0060241058,MAFE4ImagesEEG,001,100059,
AFNE01.JPG,AFNE01.JPG,AFNE01.JPG,AFNE01.JPG,AFNE01.JPG,AFNE01.JPG,,,,,,,,,3,3,33,3,,,,,,,,,,,,,,,AMNE02.jpg,AMSA10.jpg,AMNE20.jpg,AMSA13.jpg,AMSA10.jpg,MS,2,num_6,32,num_4,0.783697634819,,,2017_Mar_23_1056,60.0060241058,MAFE4ImagesEEG,001,100059,
AFNE01.JPG,AFNE01.JPG,AFNE01.JPG,AFNE01.JPG,AFNE01.JPG,AFNE01.JPG,,,,,,,,,3,4,34,2,,,,,,,,,,,,,,,AMNE04.jpg,AMSA07.jpg,AMNE02.jpg,AMSA01.jpg,AMNE04.jpg,MN,1,num_8,32,num_4,0.850110959902,,,2017_Mar_23_1056,60.0060241058,MAFE4ImagesEEG,001,100059,
AFNE01.JPG,AFNE01.JPG,AFNE01.JPG,AFNE01.JPG,AFNE01.JPG,AFNE01.JPG,,,,,,,,,3,5,35,7,,,,,,,,,,,,,,,AMSA20.jpg,AMNE18.jpg,AMNE11.jpg,AMSA07.jpg,AMSA07.jpg,MS,2,num_4,16,num_4,0.516796977841,,,2017_Mar_23_1056,60.0060241058,MAFE4ImagesEEG,001,100059,
AFNE01.JPG,AFNE01.JPG,AFNE01.JPG,AFNE01.JPG,AFNE01.JPG,AFNE01.JPG,,,,,,,,,3,6,36,9,,,,,,,,,,,,,,,AMNE11.jpg,AMSA15.jpg,AMSA19.jpg,AMNE08.jpg,AMSA15.jpg,MS,2,num_6,16,num_6,1.21659135161,,,2017_Mar_23_1056,60.0060241058,MAFE4ImagesEEG,001,100059,
AFNE01.JPG,AFNE01.JPG,AFNE01.JPG,AFNE01.JPG,AFNE01.JPG,AFNE01.JPG,,,,,,,,,3,7,37,1,,,,,,,,,,,,,,,AMSA18.jpg,AMSA08.jpg,AMNE14.jpg,AMNE04.jpg,AMNE14.jpg,MN,1,num_2,32,num_4,0.533497573459,,,2017_Mar_23_1056,60.0060241058,MAFE4ImagesEEG,001,100059,
AFNE01.JPG,AFNE01.JPG,AFNE01.JPG,AFNE01.JPG,AFNE01.JPG,AFNE01.JPG,,,,,,,,,3,8,38,5,,,,,,,,,,,,,,,AMNE03.jpg,AMSA11.jpg,AMSA07.jpg,AMNE05.jpg,AMSA11.jpg,MS,2,num_6,16,num_6,0.8001426009,,,2017_Mar_23_1056,60.0060241058,MAFE4ImagesEEG,001,100059,
AFNE01.JPG,AFNE01.JPG,AFNE01.JPG,AFNE01.JPG,AFNE01.JPG,AFNE01.JPG,,,,,,,,,3,9,39,4,,,,,,,,,,,,,,,AMSA14.jpg,AMSA16.jpg,AMNE12.jpg,AMNE14.jpg,AMSA14.jpg,MS,2,num_8,16,num_8,0.850165806361,,,2017_Mar_23_1056,60.0060241058,MAFE4ImagesEEG,001,100059,
AFNE01.JPG,AFNE01.JPG,AFNE01.JPG,AFNE01.JPG,AFNE01.JPG,AFNE01.JPG,,,,,,,,,4,0,40,8,,,,,,,,,,,,,,,AMSA19.jpg,AMNE20.jpg,AMSA07.jpg,AMNE19.jpg,AMNE20.jpg,MN,1,num_6,32,num_4,0.700113509782,,,2017_Mar_23_1056,60.0060241058,MAFE4ImagesEEG,001,100059,
AFNE01.JPG,AFNE01.JPG,AFNE01.JPG,AFNE01.JPG,AFNE01.JPG,AFNE01.JPG,,,,,,,,,4,1,41,0,,,,,,,,,,,,,,,AMNE18.jpg,AMSA18.jpg,AMNE02.jpg,AMSA10.jpg,AMSA18.jpg,MS,2,num_6,32,num_4,1.20003957924,,,2017_Mar_23_1056,60.0060241058,MAFE4ImagesEEG,001,100059,
AFNE01.JPG,AFNE01.JPG,AFNE01.JPG,AFNE01.JPG,AFNE01.JPG,AFNE01.JPG,,,,,,,,,4,2,42,5,,,,,,,,,,,,,,,AMSA15.jpg,AMNE12.jpg,AMSA06.jpg,AMNE10.jpg,AMNE10.jpg,MN,1,num_4,32,num_6,0.433508895512,,,2017_Mar_23_1056,60.0060241058,MAFE4ImagesEEG,001,100059,
AFNE01.JPG,AFNE01.JPG,AFNE01.JPG,AFNE01.JPG,AFNE01.JPG,AFNE01.JPG,,,,,,,,,4,3,43,4,,,,,,,,,,,,,,,AMNE01.jpg,AMSA04.jpg,AMSA12.jpg,AMNE11.jpg,AMSA04.jpg,MS,2,num_6,16,num_6,0.833487983327,,,2017_Mar_23_1056,60.0060241058,MAFE4ImagesEEG,001,100059,
AFNE01.JPG,AFNE01.JPG,AFNE01.JPG,AFNE01.JPG,AFNE01.JPG,AFNE01.JPG,,,,,,,,,4,4,44,2,,,,,,,,,,,,,,,AMSA01.jpg,AMNE11.jpg,AMSA20.jpg,AMNE05.jpg,AMNE11.jpg,MN,1,num_6,32,num_4,0.599975687917,,,2017_Mar_23_1056,60.0060241058,MAFE4ImagesEEG,001,100059,
AFNE01.JPG,AFNE01.JPG,AFNE01.JPG,AFNE01.JPG,AFNE01.JPG,AFNE01.JPG,,,,,,,,,4,5,45,6,,,,,,,,,,,,,,,AMNE04.jpg,AMSA13.jpg,AMNE05.jpg,AMSA20.jpg,AMNE05.jpg,MN,1,num_2,32,num_4,0.766777011799,,,2017_Mar_23_1056,60.0060241058,MAFE4ImagesEEG,001,100059,
AFNE01.JPG,AFNE01.JPG,AFNE01.JPG,AFNE01.JPG,AFNE01.JPG,AFNE01.JPG,,,,,,,,,4,6,46,9,,,,,,,,,,,,,,,AMSA17.jpg,AMNE20.jpg,AMSA16.jpg,AMNE01.jpg,AMSA17.jpg,MS,2,num_8,16,num_8,0.500150266511,,,2017_Mar_23_1056,60.0060241058,MAFE4ImagesEEG,001,100059,
AFNE01.JPG,AFNE01.JPG,AFNE01.JPG,AFNE01.JPG,AFNE01.JPG,AFNE01.JPG,,,,,,,,,4,7,47,7,,,,,,,,,,,,,,,AMSA17.jpg,AMNE01.jpg,AMNE17.jpg,AMSA11.jpg,AMSA17.jpg,MS,2,num_8,16,num_8,0.466773130873,,,2017_Mar_23_1056,60.0060241058,MAFE4ImagesEEG,001,100059,
AFNE01.JPG,AFNE01.JPG,AFNE01.JPG,AFNE01.JPG,AFNE01.JPG,AFNE01.JPG,,,,,,,,,4,8,48,1,,,,,,,,,,,,,,,AMSA03.jpg,AMNE18.jpg,AMNE05.jpg,AMSA19.jpg,AMSA19.jpg,MS,2,num_4,16,num_4,1.23292790767,,,2017_Mar_23_1056,60.0060241058,MAFE4ImagesEEG,001,100059,
AFNE01.JPG,AFNE01.JPG,AFNE01.JPG,AFNE01.JPG,AFNE01.JPG,AFNE01.JPG,,,,,,,,,4,9,49,3,,,,,,,,,,,,,,,AMSA01.jpg,AMNE20.jpg,AMNE09.jpg,AMSA03.jpg,AMSA01.jpg,MS,2,num_8,32,num_4,1.10008040944,,,2017_Mar_23_1056,60.0060241058,MAFE4ImagesEEG,001,100059,
AFNE01.JPG,AFNE01.JPG,AFNE01.JPG,AFNE01.JPG,AFNE01.JPG,AFNE01.JPG,,,,,,,,,5,0,50,0,,,,,,,,,,,,,,,AMNE06.jpg,AMSA19.jpg,AMSA04.jpg,AMNE09.jpg,AMSA04.jpg,MS,2,num_2,32,num_8,0.91674719908,,,2017_Mar_23_1056,60.0060241058,MAFE4ImagesEEG,001,100059,
AFNE01.JPG,AFNE01.JPG,AFNE01.JPG,AFNE01.JPG,AFNE01.JPG,AFNE01.JPG,,,,,,,,,5,1,51,6,,,,,,,,,,,,,,,AMNE12.jpg,AMSA19.jpg,AMNE17.jpg,AMSA03.jpg,AMNE17.jpg,MN,1,num_2,16,num_2,0.966780668241,,,2017_Mar_23_1056,60.0060241058,MAFE4ImagesEEG,001,100059,
AFNE01.JPG,AFNE01.JPG,AFNE01.JPG,AFNE01.JPG,AFNE01.JPG,AFNE01.JPG,,,,,,,,,5,2,52,4,,,,,,,,,,,,,,,AMSA13.jpg,AMNE10.jpg,AMSA20.jpg,AMNE07.jpg,AMSA20.jpg,MS,2,num_2,16,num_2,0.633462837315,,,2017_Mar_23_1056,60.0060241058,MAFE4ImagesEEG,001,100059,
AFNE01.JPG,AFNE01.JPG,AFNE01.JPG,AFNE01.JPG,AFNE01.JPG,AFNE01.JPG,,,,,,,,,5,3,53,2,,,,,,,,,,,,,,,AMSA11.jpg,AMNE05.jpg,AMNE09.jpg,AMSA04.jpg,AMSA11.jpg,MS,2,num_8,32,num_2,1.35013934539,,,2017_Mar_23_1056,60.0060241058,MAFE4ImagesEEG,001,100059,
AFNE01.JPG,AFNE01.JPG,AFNE01.JPG,AFNE01.JPG,AFNE01.JPG,AFNE01.JPG,,,,,,,,,5,4,54,9,,,,,,,,,,,,,,,AMSA19.jpg,AMNE05.jpg,AMNE03.jpg,AMSA18.jpg,AMSA18.jpg,MS,2,num_4,32,num_8,0.933441379806,,,2017_Mar_23_1056,60.0060241058,MAFE4ImagesEEG,001,100059,
AFNE01.JPG,AFNE01.JPG,AFNE01.JPG,AFNE01.JPG,AFNE01.JPG,AFNE01.JPG,,,,,,,,,5,5,55,5,,,,,,,,,,,,,,,AMSA01.jpg,AMNE19.jpg,AMNE20.jpg,AMSA05.jpg,AMSA05.jpg,MS,2,num_4,16,num_4,0.63347791211,,,2017_Mar_23_1056,60.0060241058,MAFE4ImagesEEG,001,100059,
AFNE01.JPG,AFNE01.JPG,AFNE01.JPG,AFNE01.JPG,AFNE01.JPG,AFNE01.JPG,,,,,,,,,5,6,56,7,,,,,,,,,,,,,,,AMSA10.jpg,AMNE05.jpg,AMNE12.jpg,AMSA16.jpg,AMSA10.jpg,MS,2,num_8,32,num_4,0.833465210802,,,2017_Mar_23_1056,60.0060241058,MAFE4ImagesEEG,001,100059,
AFNE01.JPG,AFNE01.JPG,AFNE01.JPG,AFNE01.JPG,AFNE01.JPG,AFNE01.JPG,,,,,,,,,5,7,57,8,,,,,,,,,,,,,,,AMNE03.jpg,AMSA03.jpg,AMSA20.jpg,AMNE07.jpg,AMNE07.jpg,MN,1,num_4,32,num_8,0.716775295848,,,2017_Mar_23_1056,60.0060241058,MAFE4ImagesEEG,001,100059,
AFNE01.JPG,AFNE01.JPG,AFNE01.JPG,AFNE01.JPG,AFNE01.JPG,AFNE01.JPG,,,,,,,,,5,8,58,1,,,,,,,,,,,,,,,AMNE10.jpg,AMSA07.jpg,AMSA09.jpg,AMNE04.jpg,AMNE04.jpg,MN,1,num_4,16,num_4,1.16674294922,,,2017_Mar_23_1056,60.0060241058,MAFE4ImagesEEG,001,100059,
AFNE01.JPG,AFNE01.JPG,AFNE01.JPG,AFNE01.JPG,AFNE01.JPG,AFNE01.JPG,,,,,,,,,5,9,59,3,,,,,,,,,,,,,,,AMSA08.jpg,AMSA18.jpg,AMNE18.jpg,AMNE09.jpg,AMNE18.jpg,MN,1,num_2,32,num_4,0.933434323582,,,2017_Mar_23_1056,60.0060241058,MAFE4ImagesEEG,001,100059,
,,,,,,,,,,,,,,,,,,,,,,,,,,,,,,,,,,,,,,,,,,,space,19.3650521378,2017_Mar_23_1056,60.0060241058,MAFE4ImagesEEG,001,100059,
AFNE01.JPG,AFNE01.JPG,AFNE01.JPG,AFNE01.JPG,AFNE01.JPG,AFNE01.JPG,,,,,,,,,,,,,0,0,0,7,,,,,,,,,,,AFSA05.jpg,AFNE02.jpg,AFSA07.jpg,AFNE14.jpg,AFSA07.jpg,FS,4,num_2,32,num_4,2.51664013619,,,2017_Mar_23_1056,60.0060241058,MAFE4ImagesEEG,001,100059,
AFNE01.JPG,AFNE01.JPG,AFNE01.JPG,AFNE01.JPG,AFNE01.JPG,AFNE01.JPG,,,,,,,,,,,,,0,1,1,2,,,,,,,,,,,AFSA12.jpg,AFNE03.jpg,AFSA02.jpg,AFNE04.jpg,AFNE04.jpg,FN,3,num_4,16,num_4,0.533470310562,,,2017_Mar_23_1056,60.0060241058,MAFE4ImagesEEG,001,100059,
AFNE01.JPG,AFNE01.JPG,AFNE01.JPG,AFNE01.JPG,AFNE01.JPG,AFNE01.JPG,,,,,,,,,,,,,0,2,2,9,,,,,,,,,,,AFNE19.jpg,AFSA20.jpg,AFNE08.jpg,AFSA17.jpg,AFSA20.jpg,FS,4,num_6,16,num_6,0.683452044439,,,2017_Mar_23_1056,60.0060241058,MAFE4ImagesEEG,001,100059,
AFNE01.JPG,AFNE01.JPG,AFNE01.JPG,AFNE01.JPG,AFNE01.JPG,AFNE01.JPG,,,,,,,,,,,,,0,3,3,6,,,,,,,,,,,AFNE02.jpg,AFSA08.jpg,AFSA12.jpg,AFNE19.jpg,AFSA12.jpg,FS,4,num_2,16,num_2,0.650118850113,,,2017_Mar_23_1056,60.0060241058,MAFE4ImagesEEG,001,100059,
AFNE01.JPG,AFNE01.JPG,AFNE01.JPG,AFNE01.JPG,AFNE01.JPG,AFNE01.JPG,,,,,,,,,,,,,0,4,4,5,,,,,,,,,,,AFSA01.jpg,AFNE12.jpg,AFNE05.jpg,AFSA06.jpg,AFSA06.jpg,FS,4,num_4,16,num_4,0.70014077262,,,2017_Mar_23_1056,60.0060241058,MAFE4ImagesEEG,001,100059,
AFNE01.JPG,AFNE01.JPG,AFNE01.JPG,AFNE01.JPG,AFNE01.JPG,AFNE01.JPG,,,,,,,,,,,,,0,5,5,4,,,,,,,,,,,AFNE19.jpg,AFNE10.jpg,AFSA03.jpg,AFSA11.jpg,AFSA11.jpg,FS,4,num_4,16,num_4,0.833462324168,,,2017_Mar_23_1056,60.0060241058,MAFE4ImagesEEG,001,100059,
AFNE01.JPG,AFNE01.JPG,AFNE01.JPG,AFNE01.JPG,AFNE01.JPG,AFNE01.JPG,,,,,,,,,,,,,0,6,6,3,,,,,,,,,,,AFNE03.jpg,AFNE11.jpg,AFSA03.jpg,AFSA15.jpg,AFSA03.jpg,FS,4,num_2,32,num_8,0.600189942052,,,2017_Mar_23_1056,60.0060241058,MAFE4ImagesEEG,001,100059,
AFNE01.JPG,AFNE01.JPG,AFNE01.JPG,AFNE01.JPG,AFNE01.JPG,AFNE01.JPG,,,,,,,,,,,,,0,7,7,0,,,,,,,,,,,AFSA15.jpg,AFNE19.jpg,AFNE10.jpg,AFSA20.jpg,AFNE10.jpg,FN,3,num_2,16,num_2,0.733576282975,,,2017_Mar_23_1056,60.0060241058,MAFE4ImagesEEG,001,100059,
AFNE01.JPG,AFNE01.JPG,AFNE01.JPG,AFNE01.JPG,AFNE01.JPG,AFNE01.JPG,,,,,,,,,,,,,0,8,8,1,,,,,,,,,,,AFNE20.jpg,AFSA15.jpg,AFNE17.jpg,AFSA12.jpg,AFSA12.jpg,FS,4,num_4,32,num_6,0.80026351969,,,2017_Mar_23_1056,60.0060241058,MAFE4ImagesEEG,001,100059,
AFNE01.JPG,AFNE01.JPG,AFNE01.JPG,AFNE01.JPG,AFNE01.JPG,AFNE01.JPG,,,,,,,,,,,,,0,9,9,8,,,,,,,,,,,AFNE05.jpg,AFSA05.jpg,AFSA01.jpg,AFNE01.jpg,AFNE01.jpg,FN,3,num_4,16,num_4,0.750071925868,,,2017_Mar_23_1056,60.0060241058,MAFE4ImagesEEG,001,100059,
AFNE01.JPG,AFNE01.JPG,AFNE01.JPG,AFNE01.JPG,AFNE01.JPG,AFNE01.JPG,,,,,,,,,,,,,1,0,10,9,,,,,,,,,,,AFNE11.jpg,AFSA12.jpg,AFNE14.jpg,AFSA14.jpg,AFSA12.jpg,FS,4,num_6,16,num_6,0.733490003971,,,2017_Mar_23_1056,60.0060241058,MAFE4ImagesEEG,001,100059,
AFNE01.JPG,AFNE01.JPG,AFNE01.JPG,AFNE01.JPG,AFNE01.JPG,AFNE01.JPG,,,,,,,,,,,,,1,1,11,5,,,,,,,,,,,AFSA12.jpg,AFNE12.jpg,AFSA08.jpg,AFNE13.jpg,AFNE12.jpg,FN,3,num_6,16,num_6,0.650162149919,,,2017_Mar_23_1056,60.0060241058,MAFE4ImagesEEG,001,100059,
AFNE01.JPG,AFNE01.JPG,AFNE01.JPG,AFNE01.JPG,AFNE01.JPG,AFNE01.JPG,,,,,,,,,,,,,1,2,12,2,,,,,,,,,,,AFNE19.jpg,AFSA17.jpg,AFSA09.jpg,AFNE16.jpg,AFNE16.jpg,FN,3,num_4,32,num_2,0.950055696478,,,2017_Mar_23_1056,60.0060241058,MAFE4ImagesEEG,001,100059,
AFNE01.JPG,AFNE01.JPG,AFNE01.JPG,AFNE01.JPG,AFNE01.JPG,AFNE01.JPG,,,,,,,,,,,,,1,3,13,0,,,,,,,,,,,AFSA13.jpg,AFNE18.jpg,AFNE14.jpg,AFSA10.jpg,AFNE18.jpg,FN,3,num_6,16,num_6,0.700114151288,,,2017_Mar_23_1056,60.0060241058,MAFE4ImagesEEG,001,100059,
AFNE01.JPG,AFNE01.JPG,AFNE01.JPG,AFNE01.JPG,AFNE01.JPG,AFNE01.JPG,,,,,,,,,,,,,1,4,14,7,,,,,,,,,,,AFSA18.jpg,AFSA08.jpg,AFNE09.jpg,AFNE15.jpg,AFNE09.jpg,FN,3,num_2,16,num_2,0.633526664576,,,2017_Mar_23_1056,60.0060241058,MAFE4ImagesEEG,001,100059,
AFNE01.JPG,AFNE01.JPG,AFNE01.JPG,AFNE01.JPG,AFNE01.JPG,AFNE01.JPG,,,,,,,,,,,,,1,5,15,6,,,,,,,,,,,AFNE01.jpg,AFSA20.jpg,AFNE13.jpg,AFSA13.jpg,AFSA20.jpg,FS,4,num_6,16,num_6,0.466835033614,,,2017_Mar_23_1056,60.0060241058,MAFE4ImagesEEG,001,100059,
AFNE01.JPG,AFNE01.JPG,AFNE01.JPG,AFNE01.JPG,AFNE01.JPG,AFNE01.JPG,,,,,,,,,,,,,1,6,16,3,,,,,,,,,,,AFSA11.jpg,AFSA08.jpg,AFNE07.jpg,AFNE14.jpg,AFNE07.jpg,FN,3,num_2,32,num_4,0.783516096126,,,2017_Mar_23_1056,60.0060241058,MAFE4ImagesEEG,001,100059,
AFNE01.JPG,AFNE01.JPG,AFNE01.JPG,AFNE01.JPG,AFNE01.JPG,AFNE01.JPG,,,,,,,,,,,,,1,7,17,8,,,,,,,,,,,AFSA10.jpg,AFSA01.jpg,AFNE11.jpg,AFNE10.jpg,AFNE10.jpg,FN,3,num_4,32,num_8,0.783472796262,,,2017_Mar_23_1056,60.0060241058,MAFE4ImagesEEG,001,100059,
AFNE01.JPG,AFNE01.JPG,AFNE01.JPG,AFNE01.JPG,AFNE01.JPG,AFNE01.JPG,,,,,,,,,,,,,1,8,18,1,,,,,,,,,,,AFNE07.jpg,AFNE05.jpg,AFSA09.jpg,AFSA06.jpg,AFSA06.jpg,FS,4,num_4,32,num_2,0.583487101248,,,2017_Mar_23_1056,60.0060241058,MAFE4ImagesEEG,001,100059,
AFNE01.JPG,AFNE01.JPG,AFNE01.JPG,AFNE01.JPG,AFNE01.JPG,AFNE01.JPG,,,,,,,,,,,,,1,9,19,4,,,,,,,,,,,AFSA06.jpg,AFSA15.jpg,AFNE11.jpg,AFNE19.jpg,AFSA06.jpg,FS,4,num_8,16,num_8,0.933434965031,,,2017_Mar_23_1056,60.0060241058,MAFE4ImagesEEG,001,100059,
AFNE01.JPG,AFNE01.JPG,AFNE01.JPG,AFNE01.JPG,AFNE01.JPG,AFNE01.JPG,,,,,,,,,,,,,2,0,20,8,,,,,,,,,,,AFNE02.jpg,AFNE18.jpg,AFSA01.jpg,AFSA07.jpg,AFNE18.jpg,FN,3,num_6,32,num_4,0.966786762292,,,2017_Mar_23_1056,60.0060241058,MAFE4ImagesEEG,001,100059,
AFNE01.JPG,AFNE01.JPG,AFNE01.JPG,AFNE01.JPG,AFNE01.JPG,AFNE01.JPG,,,,,,,,,,,,,2,1,21,5,,,,,,,,,,,AFSA12.jpg,AFSA07.jpg,AFNE07.jpg,AFNE18.jpg,AFSA07.jpg,FS,4,num_6,32,num_8,1.0500819009,,,2017_Mar_23_1056,60.0060241058,MAFE4ImagesEEG,001,100059,
AFNE01.JPG,AFNE01.JPG,AFNE01.JPG,AFNE01.JPG,AFNE01.JPG,AFNE01.JPG,,,,,,,,,,,,,2,2,22,2,,,,,,,,,,,AFNE10.jpg,AFSA17.jpg,AFSA08.jpg,AFNE06.jpg,AFSA17.jpg,FS,4,num_6,32,num_8,1.03343743476,,,2017_Mar_23_1056,60.0060241058,MAFE4ImagesEEG,001,100059,
AFNE01.JPG,AFNE01.JPG,AFNE01.JPG,AFNE01.JPG,AFNE01.JPG,AFNE01.JPG,,,,,,,,,,,,,2,3,23,0,,,,,,,,,,,AFNE09.jpg,AFSA19.jpg,AFNE03.jpg,AFSA01.jpg,AFNE09.jpg,FN,3,num_8,32,num_2,0.966739292839,,,2017_Mar_23_1056,60.0060241058,MAFE4ImagesEEG,001,100059,
AFNE01.JPG,AFNE01.JPG,AFNE01.JPG,AFNE01.JPG,AFNE01.JPG,AFNE01.JPG,,,,,,,,,,,,,2,4,24,9,,,,,,,,,,,AFSA13.jpg,AFNE06.jpg,AFSA10.jpg,AFNE08.jpg,AFSA10.jpg,FS,4,num_2,32,num_4,1.75000745722,,,2017_Mar_23_1056,60.0060241058,MAFE4ImagesEEG,001,100059,
AFNE01.JPG,AFNE01.JPG,AFNE01.JPG,AFNE01.JPG,AFNE01.JPG,AFNE01.JPG,,,,,,,,,,,,,2,5,25,6,,,,,,,,,,,AFSA20.jpg,AFNE03.jpg,AFSA19.jpg,AFNE20.jpg,AFNE03.jpg,FN,3,num_6,16,num_6,0.716778182541,,,2017_Mar_23_1056,60.0060241058,MAFE4ImagesEEG,001,100059,
AFNE01.JPG,AFNE01.JPG,AFNE01.JPG,AFNE01.JPG,AFNE01.JPG,AFNE01.JPG,,,,,,,,,,,,,2,6,26,4,,,,,,,,,,,AFNE20.jpg,AFNE19.jpg,AFSA19.jpg,AFSA08.jpg,AFNE20.jpg,FN,3,num_8,16,num_8,0.916749444266,,,2017_Mar_23_1056,60.0060241058,MAFE4ImagesEEG,001,100059,
AFNE01.JPG,AFNE01.JPG,AFNE01.JPG,AFNE01.JPG,AFNE01.JPG,AFNE01.JPG,,,,,,,,,,,,,2,7,27,1,,,,,,,,,,,AFSA15.jpg,AFNE07.jpg,AFSA08.jpg,AFNE03.jpg,AFNE03.jpg,FN,3,num_4,32,num_6,1.26671142055,,,2017_Mar_23_1056,60.0060241058,MAFE4ImagesEEG,001,100059,
AFNE01.JPG,AFNE01.JPG,AFNE01.JPG,AFNE01.JPG,AFNE01.JPG,AFNE01.JPG,,,,,,,,,,,,,2,8,28,7,,,,,,,,,,,AFSA10.jpg,AFNE08.jpg,AFNE07.jpg,AFSA03.jpg,AFSA03.jpg,FS,4,num_4,16,num_4,0.833463927847,,,2017_Mar_23_1056,60.0060241058,MAFE4ImagesEEG,001,100059,
AFNE01.JPG,AFNE01.JPG,AFNE01.JPG,AFNE01.JPG,AFNE01.JPG,AFNE01.JPG,,,,,,,,,,,,,2,9,29,3,,,,,,,,,,,AFNE07.jpg,AFSA10.jpg,AFSA09.jpg,AFNE01.jpg,AFNE01.jpg,FN,3,num_4,32,num_8,1.01660244924,,,2017_Mar_23_1056,60.0060241058,MAFE4ImagesEEG,001,100059,
AFNE01.JPG,AFNE01.JPG,AFNE01.JPG,AFNE01.JPG,AFNE01.JPG,AFNE01.JPG,,,,,,,,,,,,,3,0,30,9,,,,,,,,,,,AFSA14.jpg,AFNE18.jpg,AFNE20.jpg,AFSA13.jpg,AFNE20.jpg,FN,3,num_2,32,num_6,0.566863162501,,,2017_Mar_23_1056,60.0060241058,MAFE4ImagesEEG,001,100059,
AFNE01.JPG,AFNE01.JPG,AFNE01.JPG,AFNE01.JPG,AFNE01.JPG,AFNE01.JPG,,,,,,,,,,,,,3,1,31,3,,,,,,,,,,,AFNE02.jpg,AFSA07.jpg,AFNE12.jpg,AFSA15.jpg,AFSA07.jpg,FS,4,num_6,32,num_4,0.633456743264,,,2017_Mar_23_1056,60.0060241058,MAFE4ImagesEEG,001,100059,
AFNE01.JPG,AFNE01.JPG,AFNE01.JPG,AFNE01.JPG,AFNE01.JPG,AFNE01.JPG,,,,,,,,,,,,,3,2,32,6,,,,,,,,,,,AFNE17.jpg,AFSA16.jpg,AFNE06.jpg,AFSA12.jpg,AFNE06.jpg,FN,3,num_2,32,num_4,1.0335169782,,,2017_Mar_23_1056,60.0060241058,MAFE4ImagesEEG,001,100059,
AFNE01.JPG,AFNE01.JPG,AFNE01.JPG,AFNE01.JPG,AFNE01.JPG,AFNE01.JPG,,,,,,,,,,,,,3,3,33,1,,,,,,,,,,,AFSA04.jpg,AFNE04.jpg,AFNE18.jpg,AFSA17.jpg,AFNE18.jpg,FN,3,num_2,16,num_2,1.38361174072,,,2017_Mar_23_1056,60.0060241058,MAFE4ImagesEEG,001,100059,
AFNE01.JPG,AFNE01.JPG,AFNE01.JPG,AFNE01.JPG,AFNE01.JPG,AFNE01.JPG,,,,,,,,,,,,,3,4,34,5,,,,,,,,,,,AFSA15.jpg,AFSA01.jpg,AFNE10.jpg,AFNE11.jpg,AFNE11.jpg,FN,3,num_4,32,num_6,0.70021293906,,,2017_Mar_23_1056,60.0060241058,MAFE4ImagesEEG,001,100059,
AFNE01.JPG,AFNE01.JPG,AFNE01.JPG,AFNE01.JPG,AFNE01.JPG,AFNE01.JPG,,,,,,,,,,,,,3,5,35,0,,,,,,,,,,,AFSA14.jpg,AFNE06.jpg,AFNE16.jpg,AFSA11.jpg,AFNE16.jpg,FN,3,num_2,16,num_2,0.866720144637,,,2017_Mar_23_1056,60.0060241058,MAFE4ImagesEEG,001,100059,
AFNE01.JPG,AFNE01.JPG,AFNE01.JPG,AFNE01.JPG,AFNE01.JPG,AFNE01.JPG,,,,,,,,,,,,,3,6,36,8,,,,,,,,,,,AFNE03.jpg,AFNE14.jpg,AFSA12.jpg,AFSA18.jpg,AFNE14.jpg,FN,3,num_6,32,num_8,0.766827367945,,,2017_Mar_23_1056,60.0060241058,MAFE4ImagesEEG,001,100059,
AFNE01.JPG,AFNE01.JPG,AFNE01.JPG,AFNE01.JPG,AFNE01.JPG,AFNE01.JPG,,,,,,,,,,,,,3,7,37,2,,,,,,,,,,,AFNE16.jpg,AFSA10.jpg,AFNE02.jpg,AFSA19.jpg,AFNE02.jpg,FN,3,num_2,32,num_8,0.666790579155,,,2017_Mar_23_1056,60.0060241058,MAFE4ImagesEEG,001,100059,
AFNE01.JPG,AFNE01.JPG,AFNE01.JPG,AFNE01.JPG,AFNE01.JPG,AFNE01.JPG,,,,,,,,,,,,,3,8,38,4,,,,,,,,,,,AFSA08.jpg,AFSA17.jpg,AFNE02.jpg,AFNE05.jpg,AFNE02.jpg,FN,3,num_2,32,num_4,0.866913229926,,,2017_Mar_23_1056,60.0060241058,MAFE4ImagesEEG,001,100059,
AFNE01.JPG,AFNE01.JPG,AFNE01.JPG,AFNE01.JPG,AFNE01.JPG,AFNE01.JPG,,,,,,,,,,,,,3,9,39,7,,,,,,,,,,,AFSA17.jpg,AFNE17.jpg,AFNE08.jpg,AFSA04.jpg,AFSA17.jpg,FS,4,num_8,16,num_8,0.750131583482,,,2017_Mar_23_1056,60.0060241058,MAFE4ImagesEEG,001,100059,
AFNE01.JPG,AFNE01.JPG,AFNE01.JPG,AFNE01.JPG,AFNE01.JPG,AFNE01.JPG,,,,,,,,,,,,,4,0,40,9,,,,,,,,,,,AFSA09.jpg,AFNE20.jpg,AFSA10.jpg,AFNE03.jpg,AFSA10.jpg,FS,4,num_2,32,num_8,2.13335683284,,,2017_Mar_23_1056,60.0060241058,MAFE4ImagesEEG,001,100059,
AFNE01.JPG,AFNE01.JPG,AFNE01.JPG,AFNE01.JPG,AFNE01.JPG,AFNE01.JPG,,,,,,,,,,,,,4,1,41,4,,,,,,,,,,,AFSA03.jpg,AFNE08.jpg,AFNE03.jpg,AFSA02.jpg,AFNE08.jpg,FN,3,num_6,16,num_6,0.683468722913,,,2017_Mar_23_1056,60.0060241058,MAFE4ImagesEEG,001,100059,
AFNE01.JPG,AFNE01.JPG,AFNE01.JPG,AFNE01.JPG,AFNE01.JPG,AFNE01.JPG,,,,,,,,,,,,,4,2,42,0,,,,,,,,,,,AFSA07.jpg,AFNE03.jpg,AFSA10.jpg,AFNE10.jpg,AFNE03.jpg,FN,3,num_6,16,num_6,0.866720786144,,,2017_Mar_23_1056,60.0060241058,MAFE4ImagesEEG,001,100059,
AFNE01.JPG,AFNE01.JPG,AFNE01.JPG,AFNE01.JPG,AFNE01.JPG,AFNE01.JPG,,,,,,,,,,,,,4,3,43,2,,,,,,,,,,,AFSA09.jpg,AFNE09.jpg,AFSA19.jpg,AFNE07.jpg,AFSA09.jpg,FS,4,num_8,16,num_8,1.35008514038,,,2017_Mar_23_1056,60.0060241058,MAFE4ImagesEEG,001,100059,
AFNE01.JPG,AFNE01.JPG,AFNE01.JPG,AFNE01.JPG,AFNE01.JPG,AFNE01.JPG,,,,,,,,,,,,,4,4,44,8,,,,,,,,,,,AFSA12.jpg,AFNE20.jpg,AFSA07.jpg,AFNE13.jpg,AFNE20.jpg,FN,3,num_6,16,num_6,1.11675823253,,,2017_Mar_23_1056,60.0060241058,MAFE4ImagesEEG,001,100059,
AFNE01.JPG,AFNE01.JPG,AFNE01.JPG,AFNE01.JPG,AFNE01.JPG,AFNE01.JPG,,,,,,,,,,,,,4,5,45,7,,,,,,,,,,,AFSA03.jpg,AFNE08.jpg,AFNE06.jpg,AFSA11.jpg,AFNE06.jpg,FN,3,num_2,32,num_6,0.766792086593,,,2017_Mar_23_1056,60.0060241058,MAFE4ImagesEEG,001,100059,
AFNE01.JPG,AFNE01.JPG,AFNE01.JPG,AFNE01.JPG,AFNE01.JPG,AFNE01.JPG,,,,,,,,,,,,,4,6,46,6,,,,,,,,,,,AFNE19.jpg,AFNE12.jpg,AFSA14.jpg,AFSA09.jpg,AFNE12.jpg,FN,3,num_6,32,num_8,1.0834997705,,,2017_Mar_23_1056,60.0060241058,MAFE4ImagesEEG,001,100059,
AFNE01.JPG,AFNE01.JPG,AFNE01.JPG,AFNE01.JPG,AFNE01.JPG,AFNE01.JPG,,,,,,,,,,,,,4,7,47,1,,,,,,,,,,,AFNE18.jpg,AFSA02.jpg,AFNE05.jpg,AFSA19.jpg,AFNE05.jpg,FN,3,num_2,32,num_6,1.16677085357,,,2017_Mar_23_1056,60.0060241058,MAFE4ImagesEEG,001,100059,
AFNE01.JPG,AFNE01.JPG,AFNE01.JPG,AFNE01.JPG,AFNE01.JPG,AFNE01.JPG,,,,,,,,,,,,,4,8,48,3,,,,,,,,,,,AFSA06.jpg,AFNE02.jpg,AFNE10.jpg,AFSA03.jpg,AFSA03.jpg,FS,4,num_4,16,num_4,1.06676228985,,,2017_Mar_23_1056,60.0060241058,MAFE4ImagesEEG,001,100059,
AFNE01.JPG,AFNE01.JPG,AFNE01.JPG,AFNE01.JPG,AFNE01.JPG,AFNE01.JPG,,,,,,,,,,,,,4,9,49,5,,,,,,,,,,,AFNE10.jpg,AFSA01.jpg,AFNE04.jpg,AFSA16.jpg,AFNE04.jpg,FN,3,num_2,32,num_6,0.600164924399,,,2017_Mar_23_1056,60.0060241058,MAFE4ImagesEEG,001,100059,
AFNE01.JPG,AFNE01.JPG,AFNE01.JPG,AFNE01.JPG,AFNE01.JPG,AFNE01.JPG,,,,,,,,,,,,,5,0,50,2,,,,,,,,,,,AFSA11.jpg,AFNE02.jpg,AFNE03.jpg,AFSA08.jpg,AFNE03.jpg,FN,3,num_2,16,num_2,2.61659257044,,,2017_Mar_23_1056,60.0060241058,MAFE4ImagesEEG,001,100059,
AFNE01.JPG,AFNE01.JPG,AFNE01.JPG,AFNE01.JPG,AFNE01.JPG,AFNE01.JPG,,,,,,,,,,,,,5,1,51,7,,,,,,,,,,,AFNE13.jpg,AFSA20.jpg,AFSA07.jpg,AFNE11.jpg,AFNE11.jpg,FN,3,num_4,16,num_4,1.86665727966,,,2017_Mar_23_1056,60.0060241058,MAFE4ImagesEEG,001,100059,
AFNE01.JPG,AFNE01.JPG,AFNE01.JPG,AFNE01.JPG,AFNE01.JPG,AFNE01.JPG,,,,,,,,,,,,,5,2,52,4,,,,,,,,,,,AFSA10.jpg,AFSA16.jpg,AFNE05.jpg,AFNE13.jpg,AFSA16.jpg,FS,4,num_6,16,num_6,0.483472764201,,,2017_Mar_23_1056,60.0060241058,MAFE4ImagesEEG,001,100059,
AFNE01.JPG,AFNE01.JPG,AFNE01.JPG,AFNE01.JPG,AFNE01.JPG,AFNE01.JPG,,,,,,,,,,,,,5,3,53,9,,,,,,,,,,,AFSA02.jpg,AFNE03.jpg,AFNE13.jpg,AFSA11.jpg,AFSA11.jpg,FS,4,num_4,16,num_4,1.18349197658,,,2017_Mar_23_1056,60.0060241058,MAFE4ImagesEEG,001,100059,
AFNE01.JPG,AFNE01.JPG,AFNE01.JPG,AFNE01.JPG,AFNE01.JPG,AFNE01.JPG,,,,,,,,,,,,,5,4,54,5,,,,,,,,,,,AFNE14.jpg,AFNE05.jpg,AFSA10.jpg,AFSA18.jpg,AFSA10.jpg,FS,4,num_2,16,num_2,0.866827592428,,,2017_Mar_23_1056,60.0060241058,MAFE4ImagesEEG,001,100059,
AFNE01.JPG,AFNE01.JPG,AFNE01.JPG,AFNE01.JPG,AFNE01.JPG,AFNE01.JPG,,,,,,,,,,,,,5,5,55,1,,,,,,,,,,,AFNE09.jpg,AFSA10.jpg,AFSA11.jpg,AFNE20.jpg,AFSA11.jpg,FS,4,num_2,16,num_2,0.53355177847,,,2017_Mar_23_1056,60.0060241058,MAFE4ImagesEEG,001,100059,
AFNE01.JPG,AFNE01.JPG,AFNE01.JPG,AFNE01.JPG,AFNE01.JPG,AFNE01.JPG,,,,,,,,,,,,,5,6,56,8,,,,,,,,,,,AFSA02.jpg,AFNE13.jpg,AFNE17.jpg,AFSA10.jpg,AFNE17.jpg,FN,3,num_2,32,num_6,1.10013236926,,,2017_Mar_23_1056,60.0060241058,MAFE4ImagesEEG,001,100059,
AFNE01.JPG,AFNE01.JPG,AFNE01.JPG,AFNE01.JPG,AFNE01.JPG,AFNE01.JPG,,,,,,,,,,,,,5,7,57,3,,,,,,,,,,,AFSA01.jpg,AFNE04.jpg,AFSA14.jpg,AFNE06.jpg,AFNE06.jpg,FN,3,num_4,16,num_4,0.984004069527,,,2017_Mar_23_1056,60.0060241058,MAFE4ImagesEEG,001,100059,
AFNE01.JPG,AFNE01.JPG,AFNE01.JPG,AFNE01.JPG,AFNE01.JPG,AFNE01.JPG,,,,,,,,,,,,,5,8,58,6,,,,,,,,,,,AFNE15.jpg,AFSA12.jpg,AFSA18.jpg,AFNE16.jpg,AFSA12.jpg,FS,4,num_6,16,num_6,0.566790354613,,,2017_Mar_23_1056,60.0060241058,MAFE4ImagesEEG,001,100059,
AFNE01.JPG,AFNE01.JPG,AFNE01.JPG,AFNE01.JPG,AFNE01.JPG,AFNE01.JPG,,,,,,,,,,,,,5,9,59,0,,,,,,,,,,,AFNE08.jpg,AFSA19.jpg,AFSA08.jpg,AFNE14.jpg,AFNE14.jpg,FN,3,num_4,16,num_4,0.733508286183,,,2017_Mar_23_1056,60.0060241058,MAFE4ImagesEEG,001,100059,
,,,,,,,,,,,,,,,,,,,,,,,,,,,,,,,,,,,,,,,,,,,space,19.8816887458,2017_Mar_23_1056,60.0060241058,MAFE4ImagesEEG,001,100059,
AFNE01.JPG,AFNE01.JPG,AFNE01.JPG,AFNE01.JPG,AFNE01.JPG,AFNE01.JPG,,,,,,,,,,,,,,,,,0,0,0,4,,,,,,,AMNE17.jpg,AMNE02.jpg,AMSA06.jpg,AMSA03.jpg,AMSA06.jpg,MS,2,num_2,32,num_4,0.750121640507,,,2017_Mar_23_1056,60.0060241058,MAFE4ImagesEEG,001,100059,
AFNE01.JPG,AFNE01.JPG,AFNE01.JPG,AFNE01.JPG,AFNE01.JPG,AFNE01.JPG,,,,,,,,,,,,,,,,,0,1,1,2,,,,,,,AMNE13.jpg,AMSA19.jpg,AMNE15.jpg,AMSA15.jpg,AMSA19.jpg,MS,2,num_6,16,num_6,0.866782368161,,,2017_Mar_23_1056,60.0060241058,MAFE4ImagesEEG,001,100059,
AFNE01.JPG,AFNE01.JPG,AFNE01.JPG,AFNE01.JPG,AFNE01.JPG,AFNE01.JPG,,,,,,,,,,,,,,,,,0,2,2,5,,,,,,,AMNE02.jpg,AMNE13.jpg,AMSA10.jpg,AMSA01.jpg,AMSA10.jpg,MS,2,num_2,16,num_2,0.833746499557,,,2017_Mar_23_1056,60.0060241058,MAFE4ImagesEEG,001,100059,
AFNE01.JPG,AFNE01.JPG,AFNE01.JPG,AFNE01.JPG,AFNE01.JPG,AFNE01.JPG,,,,,,,,,,,,,,,,,0,3,3,1,,,,,,,AMNE11.jpg,AMSA19.jpg,AMSA09.jpg,AMNE14.jpg,AMSA09.jpg,MS,2,num_2,16,num_2,0.750083472463,,,2017_Mar_23_1056,60.0060241058,MAFE4ImagesEEG,001,100059,
AFNE01.JPG,AFNE01.JPG,AFNE01.JPG,AFNE01.JPG,AFNE01.JPG,AFNE01.JPG,,,,,,,,,,,,,,,,,0,4,4,7,,,,,,,AMNE10.jpg,AMSA17.jpg,AMSA06.jpg,AMNE19.jpg,AMNE19.jpg,MN,1,num_4,32,num_6,0.800137789804,,,2017_Mar_23_1056,60.0060241058,MAFE4ImagesEEG,001,100059,
AFNE01.JPG,AFNE01.JPG,AFNE01.JPG,AFNE01.JPG,AFNE01.JPG,AFNE01.JPG,,,,,,,,,,,,,,,,,0,5,5,9,,,,,,,AMNE04.jpg,AMNE20.jpg,AMSA05.jpg,AMSA19.jpg,AMNE04.jpg,MN,1,num_8,16,num_8,0.450192491931,,,2017_Mar_23_1056,60.0060241058,MAFE4ImagesEEG,001,100059,
AFNE01.JPG,AFNE01.JPG,AFNE01.JPG,AFNE01.JPG,AFNE01.JPG,AFNE01.JPG,,,,,,,,,,,,,,,,,0,6,6,6,,,,,,,AMSA18.jpg,AMNE03.jpg,AMSA13.jpg,AMNE10.jpg,AMSA18.jpg,MS,2,num_8,32,num_2,0.650126868626,,,2017_Mar_23_1056,60.0060241058,MAFE4ImagesEEG,001,100059,
AFNE01.JPG,AFNE01.JPG,AFNE01.JPG,AFNE01.JPG,AFNE01.JPG,AFNE01.JPG,,,,,,,,,,,,,,,,,0,7,7,8,,,,,,,AMSA18.jpg,AMSA01.jpg,AMNE15.jpg,AMNE04.jpg,AMNE04.jpg,MN,1,num_4,16,num_4,1.13346652582,,,2017_Mar_23_1056,60.0060241058,MAFE4ImagesEEG,001,100059,
AFNE01.JPG,AFNE01.JPG,AFNE01.JPG,AFNE01.JPG,AFNE01.JPG,AFNE01.JPG,,,,,,,,,,,,,,,,,0,8,8,0,,,,,,,AMNE08.jpg,AMSA18.jpg,AMNE04.jpg,AMSA16.jpg,AMNE04.jpg,MN,1,num_2,16,num_2,0.750120999059,,,2017_Mar_23_1056,60.0060241058,MAFE4ImagesEEG,001,100059,
AFNE01.JPG,AFNE01.JPG,AFNE01.JPG,AFNE01.JPG,AFNE01.JPG,AFNE01.JPG,,,,,,,,,,,,,,,,,0,9,9,3,,,,,,,AMSA15.jpg,AMNE02.jpg,AMSA03.jpg,AMNE12.jpg,AMNE12.jpg,MN,1,num_4,16,num_4,0.88347622822,,,2017_Mar_23_1056,60.0060241058,MAFE4ImagesEEG,001,100059,
AFNE01.JPG,AFNE01.JPG,AFNE01.JPG,AFNE01.JPG,AFNE01.JPG,AFNE01.JPG,,,,,,,,,,,,,,,,,1,0,10,4,,,,,,,AMSA12.jpg,AMSA11.jpg,AMNE01.jpg,AMNE05.jpg,AMNE01.jpg,MN,1,num_2,32,num_6,1.06696820474,,,2017_Mar_23_1056,60.0060241058,MAFE4ImagesEEG,001,100059,
AFNE01.JPG,AFNE01.JPG,AFNE01.JPG,AFNE01.JPG,AFNE01.JPG,AFNE01.JPG,,,,,,,,,,,,,,,,,1,1,11,2,,,,,,,AMSA16.jpg,AMNE09.jpg,AMNE14.jpg,AMSA04.jpg,AMNE09.jpg,MN,1,num_6,16,num_6,0.68346327031,,,2017_Mar_23_1056,60.0060241058,MAFE4ImagesEEG,001,100059,
AFNE01.JPG,AFNE01.JPG,AFNE01.JPG,AFNE01.JPG,AFNE01.JPG,AFNE01.JPG,,,,,,,,,,,,,,,,,1,2,12,7,,,,,,,AMNE03.jpg,AMSA20.jpg,AMSA10.jpg,AMNE10.jpg,AMSA20.jpg,MS,2,num_6,16,num_6,0.58348132798,,,2017_Mar_23_1056,60.0060241058,MAFE4ImagesEEG,001,100059,
AFNE01.JPG,AFNE01.JPG,AFNE01.JPG,AFNE01.JPG,AFNE01.JPG,AFNE01.JPG,,,,,,,,,,,,,,,,,1,3,13,1,,,,,,,AMNE17.jpg,AMNE05.jpg,AMSA11.jpg,AMSA12.jpg,AMNE17.jpg,MN,1,num_8,16,num_8,0.566801259702,,,2017_Mar_23_1056,60.0060241058,MAFE4ImagesEEG,001,100059,
AFNE01.JPG,AFNE01.JPG,AFNE01.JPG,AFNE01.JPG,AFNE01.JPG,AFNE01.JPG,,,,,,,,,,,,,,,,,1,4,14,0,,,,,,,AMNE09.jpg,AMNE02.jpg,AMSA09.jpg,AMSA01.jpg,AMNE02.jpg,MN,1,num_6,32,num_4,0.883452493465,,,2017_Mar_23_1056,60.0060241058,MAFE4ImagesEEG,001,100059,
AFNE01.JPG,AFNE01.JPG,AFNE01.JPG,AFNE01.JPG,AFNE01.JPG,AFNE01.JPG,,,,,,,,,,,,,,,,,1,5,15,6,,,,,,,AMNE16.jpg,AMSA19.jpg,AMSA17.jpg,AMNE12.jpg,AMNE16.jpg,MN,1,num_8,16,num_8,0.633499401622,,,2017_Mar_23_1056,60.0060241058,MAFE4ImagesEEG,001,100059,
AFNE01.JPG,AFNE01.JPG,AFNE01.JPG,AFNE01.JPG,AFNE01.JPG,AFNE01.JPG,,,,,,,,,,,,,,,,,1,6,16,8,,,,,,,AMNE09.jpg,AMSA11.jpg,AMNE15.jpg,AMSA14.jpg,AMNE09.jpg,MN,1,num_8,32,num_6,0.616797843832,,,2017_Mar_23_1056,60.0060241058,MAFE4ImagesEEG,001,100059,
AFNE01.JPG,AFNE01.JPG,AFNE01.JPG,AFNE01.JPG,AFNE01.JPG,AFNE01.JPG,,,,,,,,,,,,,,,,,1,7,17,3,,,,,,,AMNE13.jpg,AMNE17.jpg,AMSA20.jpg,AMSA09.jpg,AMSA20.jpg,MS,2,num_2,16,num_2,1.18344129965,,,2017_Mar_23_1056,60.0060241058,MAFE4ImagesEEG,001,100059,
AFNE01.JPG,AFNE01.JPG,AFNE01.JPG,AFNE01.JPG,AFNE01.JPG,AFNE01.JPG,,,,,,,,,,,,,,,,,1,8,18,5,,,,,,,AMNE09.jpg,AMSA10.jpg,AMSA19.jpg,AMNE12.jpg,AMSA10.jpg,MS,2,num_6,32,num_8,0.650120774517,,,2017_Mar_23_1056,60.0060241058,MAFE4ImagesEEG,001,100059,
AFNE01.JPG,AFNE01.JPG,AFNE01.JPG,AFNE01.JPG,AFNE01.JPG,AFNE01.JPG,,,,,,,,,,,,,,,,,1,9,19,9,,,,,,,AMSA17.jpg,AMSA19.jpg,AMNE04.jpg,AMNE18.jpg,AMSA17.jpg,MS,2,num_8,32,num_6,0.583495119761,,,2017_Mar_23_1056,60.0060241058,MAFE4ImagesEEG,001,100059,
AFNE01.JPG,AFNE01.JPG,AFNE01.JPG,AFNE01.JPG,AFNE01.JPG,AFNE01.JPG,,,,,,,,,,,,,,,,,2,0,20,8,,,,,,,AMNE20.jpg,AMSA15.jpg,AMSA17.jpg,AMNE15.jpg,AMSA17.jpg,MS,2,num_2,32,num_8,0.666784485045,,,2017_Mar_23_1056,60.0060241058,MAFE4ImagesEEG,001,100059,
AFNE01.JPG,AFNE01.JPG,AFNE01.JPG,AFNE01.JPG,AFNE01.JPG,AFNE01.JPG,,,,,,,,,,,,,,,,,2,1,21,6,,,,,,,AMNE20.jpg,AMSA16.jpg,AMNE04.jpg,AMSA03.jpg,AMNE20.jpg,MN,1,num_8,16,num_8,1.46671154886,,,2017_Mar_23_1056,60.0060241058,MAFE4ImagesEEG,001,100059,
AFNE01.JPG,AFNE01.JPG,AFNE01.JPG,AFNE01.JPG,AFNE01.JPG,AFNE01.JPG,,,,,,,,,,,,,,,,,2,2,22,0,,,,,,,AMSA04.jpg,AMNE11.jpg,AMNE19.jpg,AMSA08.jpg,AMNE11.jpg,MN,1,num_6,32,num_8,0.616813239409,,,2017_Mar_23_1056,60.0060241058,MAFE4ImagesEEG,001,100059,
AFNE01.JPG,AFNE01.JPG,AFNE01.JPG,AFNE01.JPG,AFNE01.JPG,AFNE01.JPG,,,,,,,,,,,,,,,,,2,3,23,9,,,,,,,AMNE15.jpg,AMSA04.jpg,AMNE10.jpg,AMSA06.jpg,AMSA04.jpg,MS,2,num_6,16,num_6,0.616798806062,,,2017_Mar_23_1056,60.0060241058,MAFE4ImagesEEG,001,100059,
AFNE01.JPG,AFNE01.JPG,AFNE01.JPG,AFNE01.JPG,AFNE01.JPG,AFNE01.JPG,,,,,,,,,,,,,,,,,2,4,24,3,,,,,,,AMNE16.jpg,AMSA05.jpg,AMSA08.jpg,AMNE20.jpg,AMNE16.jpg,MN,1,num_8,16,num_8,0.650161829195,,,2017_Mar_23_1056,60.0060241058,MAFE4ImagesEEG,001,100059,
AFNE01.JPG,AFNE01.JPG,AFNE01.JPG,AFNE01.JPG,AFNE01.JPG,AFNE01.JPG,,,,,,,,,,,,,,,,,2,5,25,5,,,,,,,AMNE17.jpg,AMSA13.jpg,AMNE06.jpg,AMSA20.jpg,AMNE17.jpg,MN,1,num_8,16,num_8,0.716790049919,,,2017_Mar_23_1056,60.0060241058,MAFE4ImagesEEG,001,100059,
AFNE01.JPG,AFNE01.JPG,AFNE01.JPG,AFNE01.JPG,AFNE01.JPG,AFNE01.JPG,,,,,,,,,,,,,,,,,2,6,26,1,,,,,,,AMNE11.jpg,AMSA03.jpg,AMNE08.jpg,AMSA11.jpg,AMNE11.jpg,MN,1,num_8,16,num_8,0.550167698762,,,2017_Mar_23_1056,60.0060241058,MAFE4ImagesEEG,001,100059,
AFNE01.JPG,AFNE01.JPG,AFNE01.JPG,AFNE01.JPG,AFNE01.JPG,AFNE01.JPG,,,,,,,,,,,,,,,,,2,7,27,7,,,,,,,AMNE18.jpg,AMSA07.jpg,AMSA11.jpg,AMNE08.jpg,AMSA11.jpg,MS,2,num_2,32,num_8,1.08332977846,,,2017_Mar_23_1056,60.0060241058,MAFE4ImagesEEG,001,100059,
AFNE01.JPG,AFNE01.JPG,AFNE01.JPG,AFNE01.JPG,AFNE01.JPG,AFNE01.JPG,,,,,,,,,,,,,,,,,2,8,28,2,,,,,,,AMNE19.jpg,AMSA02.jpg,AMSA15.jpg,AMNE04.jpg,AMSA02.jpg,MS,2,num_6,32,num_4,0.700142055575,,,2017_Mar_23_1056,60.0060241058,MAFE4ImagesEEG,001,100059,
AFNE01.JPG,AFNE01.JPG,AFNE01.JPG,AFNE01.JPG,AFNE01.JPG,AFNE01.JPG,,,,,,,,,,,,,,,,,2,9,29,4,,,,,,,AMSA11.jpg,AMNE01.jpg,AMSA08.jpg,AMNE15.jpg,AMSA11.jpg,MS,2,num_8,16,num_8,0.616800089017,,,2017_Mar_23_1056,60.0060241058,MAFE4ImagesEEG,001,100059,
AFNE01.JPG,AFNE01.JPG,AFNE01.JPG,AFNE01.JPG,AFNE01.JPG,AFNE01.JPG,,,,,,,,,,,,,,,,,3,0,30,8,,,,,,,AMNE19.jpg,AMNE12.jpg,AMSA05.jpg,AMSA04.jpg,AMSA04.jpg,MS,2,num_4,32,num_8,0.716786521778,,,2017_Mar_23_1056,60.0060241058,MAFE4ImagesEEG,001,100059,
AFNE01.JPG,AFNE01.JPG,AFNE01.JPG,AFNE01.JPG,AFNE01.JPG,AFNE01.JPG,,,,,,,,,,,,,,,,,3,1,31,0,,,,,,,AMNE20.jpg,AMSA09.jpg,AMNE02.jpg,AMSA08.jpg,AMNE20.jpg,MN,1,num_8,32,num_6,0.600133812637,,,2017_Mar_23_1056,60.0060241058,MAFE4ImagesEEG,001,100059,
AFNE01.JPG,AFNE01.JPG,AFNE01.JPG,AFNE01.JPG,AFNE01.JPG,AFNE01.JPG,,,,,,,,,,,,,,,,,3,2,32,3,,,,,,,AMNE14.jpg,AMSA12.jpg,AMSA01.jpg,AMNE18.jpg,AMSA12.jpg,MS,2,num_6,32,num_8,0.566792279016,,,2017_Mar_23_1056,60.0060241058,MAFE4ImagesEEG,001,100059,
AFNE01.JPG,AFNE01.JPG,AFNE01.JPG,AFNE01.JPG,AFNE01.JPG,AFNE01.JPG,,,,,,,,,,,,,,,,,3,3,33,5,,,,,,,AMSA18.jpg,AMSA09.jpg,AMNE10.jpg,AMNE20.jpg,AMSA18.jpg,MS,2,num_8,16,num_8,0.85854448966,,,2017_Mar_23_1056,60.0060241058,MAFE4ImagesEEG,001,100059,
AFNE01.JPG,AFNE01.JPG,AFNE01.JPG,AFNE01.JPG,AFNE01.JPG,AFNE01.JPG,,,,,,,,,,,,,,,,,3,4,34,6,,,,,,,AMSA01.jpg,AMNE11.jpg,AMNE06.jpg,AMSA15.jpg,AMSA01.jpg,MS,2,num_8,32,num_2,0.816796689178,,,2017_Mar_23_1056,60.0060241058,MAFE4ImagesEEG,001,100059,
AFNE01.JPG,AFNE01.JPG,AFNE01.JPG,AFNE01.JPG,AFNE01.JPG,AFNE01.JPG,,,,,,,,,,,,,,,,,3,5,35,1,,,,,,,AMSA15.jpg,AMSA13.jpg,AMNE14.jpg,AMNE09.jpg,AMNE14.jpg,MN,1,num_2,16,num_2,0.600130605162,,,2017_Mar_23_1056,60.0060241058,MAFE4ImagesEEG,001,100059,
AFNE01.JPG,AFNE01.JPG,AFNE01.JPG,AFNE01.JPG,AFNE01.JPG,AFNE01.JPG,,,,,,,,,,,,,,,,,3,6,36,2,,,,,,,AMNE05.jpg,AMSA17.jpg,AMNE12.jpg,AMSA07.jpg,AMSA17.jpg,MS,2,num_6,16,num_6,0.866773387475,,,2017_Mar_23_1056,60.0060241058,MAFE4ImagesEEG,001,100059,
AFNE01.JPG,AFNE01.JPG,AFNE01.JPG,AFNE01.JPG,AFNE01.JPG,AFNE01.JPG,,,,,,,,,,,,,,,,,3,7,37,7,,,,,,,AMNE16.jpg,AMSA02.jpg,AMSA07.jpg,AMNE12.jpg,AMNE12.jpg,MN,1,num_4,16,num_4,0.916747840587,,,2017_Mar_23_1056,60.0060241058,MAFE4ImagesEEG,001,100059,
AFNE01.JPG,AFNE01.JPG,AFNE01.JPG,AFNE01.JPG,AFNE01.JPG,AFNE01.JPG,,,,,,,,,,,,,,,,,3,8,38,4,,,,,,,AMNE13.jpg,AMSA08.jpg,AMSA03.jpg,AMNE08.jpg,AMNE08.jpg,MN,1,num_4,16,num_4,0.600382385892,,,2017_Mar_23_1056,60.0060241058,MAFE4ImagesEEG,001,100059,
AFNE01.JPG,AFNE01.JPG,AFNE01.JPG,AFNE01.JPG,AFNE01.JPG,AFNE01.JPG,,,,,,,,,,,,,,,,,3,9,39,9,,,,,,,AMSA01.jpg,AMNE06.jpg,AMSA11.jpg,AMNE09.jpg,AMNE09.jpg,MN,1,num_4,32,num_8,0.583454065141,,,2017_Mar_23_1056,60.0060241058,MAFE4ImagesEEG,001,100059,
AFNE01.JPG,AFNE01.JPG,AFNE01.JPG,AFNE01.JPG,AFNE01.JPG,AFNE01.JPG,,,,,,,,,,,,,,,,,4,0,40,6,,,,,,,AMNE05.jpg,AMSA12.jpg,AMSA07.jpg,AMNE09.jpg,AMNE09.jpg,MN,1,num_4,16,num_4,0.750103679136,,,2017_Mar_23_1056,60.0060241058,MAFE4ImagesEEG,001,100059,
AFNE01.JPG,AFNE01.JPG,AFNE01.JPG,AFNE01.JPG,AFNE01.JPG,AFNE01.JPG,,,,,,,,,,,,,,,,,4,1,41,5,,,,,,,AMSA08.jpg,AMNE18.jpg,AMNE15.jpg,AMSA19.jpg,AMNE15.jpg,MN,1,num_2,16,num_2,0.633496514987,,,2017_Mar_23_1056,60.0060241058,MAFE4ImagesEEG,001,100059,
AFNE01.JPG,AFNE01.JPG,AFNE01.JPG,AFNE01.JPG,AFNE01.JPG,AFNE01.JPG,,,,,,,,,,,,,,,,,4,2,42,3,,,,,,,AMSA10.jpg,AMSA07.jpg,AMNE09.jpg,AMNE15.jpg,AMNE09.jpg,MN,1,num_2,32,num_4,0.700170280703,,,2017_Mar_23_1056,60.0060241058,MAFE4ImagesEEG,001,100059,
AFNE01.JPG,AFNE01.JPG,AFNE01.JPG,AFNE01.JPG,AFNE01.JPG,AFNE01.JPG,,,,,,,,,,,,,,,,,4,3,43,9,,,,,,,AMSA20.jpg,AMNE16.jpg,AMSA02.jpg,AMNE14.jpg,AMNE14.jpg,MN,1,num_4,16,num_4,0.783479852544,,,2017_Mar_23_1056,60.0060241058,MAFE4ImagesEEG,001,100059,
AFNE01.JPG,AFNE01.JPG,AFNE01.JPG,AFNE01.JPG,AFNE01.JPG,AFNE01.JPG,,,,,,,,,,,,,,,,,4,4,44,0,,,,,,,AMNE09.jpg,AMSA18.jpg,AMNE14.jpg,AMSA15.jpg,AMSA18.jpg,MS,2,num_6,32,num_4,0.683326635219,,,2017_Mar_23_1056,60.0060241058,MAFE4ImagesEEG,001,100059,
AFNE01.JPG,AFNE01.JPG,AFNE01.JPG,AFNE01.JPG,AFNE01.JPG,AFNE01.JPG,,,,,,,,,,,,,,,,,4,5,45,2,,,,,,,AMNE16.jpg,AMSA11.jpg,AMNE03.jpg,AMSA20.jpg,AMSA20.jpg,MS,2,num_4,16,num_4,0.750124206475,,,2017_Mar_23_1056,60.0060241058,MAFE4ImagesEEG,001,100059,
AFNE01.JPG,AFNE01.JPG,AFNE01.JPG,AFNE01.JPG,AFNE01.JPG,AFNE01.JPG,,,,,,,,,,,,,,,,,4,6,46,7,,,,,,,AMSA06.jpg,AMNE02.jpg,AMNE20.jpg,AMSA10.jpg,AMNE02.jpg,MN,1,num_6,16,num_6,0.433458860149,,,2017_Mar_23_1056,60.0060241058,MAFE4ImagesEEG,001,100059,
AFNE01.JPG,AFNE01.JPG,AFNE01.JPG,AFNE01.JPG,AFNE01.JPG,AFNE01.JPG,,,,,,,,,,,,,,,,,4,7,47,1,,,,,,,AMNE01.jpg,AMSA18.jpg,AMNE08.jpg,AMSA09.jpg,AMNE08.jpg,MN,1,num_2,16,num_2,0.900145391293,,,2017_Mar_23_1056,60.0060241058,MAFE4ImagesEEG,001,100059,
AFNE01.JPG,AFNE01.JPG,AFNE01.JPG,AFNE01.JPG,AFNE01.JPG,AFNE01.JPG,,,,,,,,,,,,,,,,,4,8,48,4,,,,,,,AMSA16.jpg,AMNE02.jpg,AMSA11.jpg,AMNE14.jpg,AMNE14.jpg,MN,1,num_4,16,num_4,0.683533191623,,,2017_Mar_23_1056,60.0060241058,MAFE4ImagesEEG,001,100059,
AFNE01.JPG,AFNE01.JPG,AFNE01.JPG,AFNE01.JPG,AFNE01.JPG,AFNE01.JPG,,,,,,,,,,,,,,,,,4,9,49,8,,,,,,,AMSA01.jpg,AMSA08.jpg,AMNE06.jpg,AMNE20.jpg,AMSA01.jpg,MS,2,num_8,16,num_8,1.1834230175,,,2017_Mar_23_1056,60.0060241058,MAFE4ImagesEEG,001,100059,
AFNE01.JPG,AFNE01.JPG,AFNE01.JPG,AFNE01.JPG,AFNE01.JPG,AFNE01.JPG,,,,,,,,,,,,,,,,,5,0,50,0,,,,,,,AMNE02.jpg,AMNE11.jpg,AMSA01.jpg,AMSA14.jpg,AMNE11.jpg,MN,1,num_6,32,num_8,1.03345699987,,,2017_Mar_23_1056,60.0060241058,MAFE4ImagesEEG,001,100059,
AFNE01.JPG,AFNE01.JPG,AFNE01.JPG,AFNE01.JPG,AFNE01.JPG,AFNE01.JPG,,,,,,,,,,,,,,,,,5,1,51,7,,,,,,,AMSA09.jpg,AMNE14.jpg,AMNE05.jpg,AMSA08.jpg,AMSA08.jpg,MS,2,num_4,16,num_4,1.15003593889,,,2017_Mar_23_1056,60.0060241058,MAFE4ImagesEEG,001,100059,
AFNE01.JPG,AFNE01.JPG,AFNE01.JPG,AFNE01.JPG,AFNE01.JPG,AFNE01.JPG,,,,,,,,,,,,,,,,,5,2,52,5,,,,,,,AMSA12.jpg,AMSA01.jpg,AMNE06.jpg,AMNE19.jpg,AMSA01.jpg,MS,2,num_6,16,num_6,0.650189412816,,,2017_Mar_23_1056,60.0060241058,MAFE4ImagesEEG,001,100059,
AFNE01.JPG,AFNE01.JPG,AFNE01.JPG,AFNE01.JPG,AFNE01.JPG,AFNE01.JPG,,,,,,,,,,,,,,,,,5,3,53,2,,,,,,,AMNE14.jpg,AMSA03.jpg,AMSA17.jpg,AMNE11.jpg,AMSA03.jpg,MS,2,num_6,32,num_4,0.816769426339,,,2017_Mar_23_1056,60.0060241058,MAFE4ImagesEEG,001,100059,
AFNE01.JPG,AFNE01.JPG,AFNE01.JPG,AFNE01.JPG,AFNE01.JPG,AFNE01.JPG,,,,,,,,,,,,,,,,,5,4,54,9,,,,,,,AMSA04.jpg,AMSA06.jpg,AMNE20.jpg,AMNE06.jpg,AMSA04.jpg,MS,2,num_8,32,num_4,0.700126660115,,,2017_Mar_23_1056,60.0060241058,MAFE4ImagesEEG,001,100059,
AFNE01.JPG,AFNE01.JPG,AFNE01.JPG,AFNE01.JPG,AFNE01.JPG,AFNE01.JPG,,,,,,,,,,,,,,,,,5,5,55,8,,,,,,,AMSA15.jpg,AMNE08.jpg,AMNE10.jpg,AMSA07.jpg,AMSA07.jpg,MS,2,num_4,16,num_4,0.833486058866,,,2017_Mar_23_1056,60.0060241058,MAFE4ImagesEEG,001,100059,
AFNE01.JPG,AFNE01.JPG,AFNE01.JPG,AFNE01.JPG,AFNE01.JPG,AFNE01.JPG,,,,,,,,,,,,,,,,,5,6,56,3,,,,,,,AMNE17.jpg,AMNE07.jpg,AMSA09.jpg,AMSA07.jpg,AMNE07.jpg,MN,1,num_6,16,num_6,2.05011365411,,,2017_Mar_23_1056,60.0060241058,MAFE4ImagesEEG,001,100059,
AFNE01.JPG,AFNE01.JPG,AFNE01.JPG,AFNE01.JPG,AFNE01.JPG,AFNE01.JPG,,,,,,,,,,,,,,,,,5,7,57,4,,,,,,,AMNE18.jpg,AMSA13.jpg,AMSA07.jpg,AMNE02.jpg,AMSA13.jpg,MS,2,num_6,16,num_6,0.516792166803,,,2017_Mar_23_1056,60.0060241058,MAFE4ImagesEEG,001,100059,
AFNE01.JPG,AFNE01.JPG,AFNE01.JPG,AFNE01.JPG,AFNE01.JPG,AFNE01.JPG,,,,,,,,,,,,,,,,,5,8,58,6,,,,,,,AMNE11.jpg,AMSA18.jpg,AMSA19.jpg,AMNE10.jpg,AMNE11.jpg,MN,1,num_8,32,num_4,0.750194769178,,,2017_Mar_23_1056,60.0060241058,MAFE4ImagesEEG,001,100059,
AFNE01.JPG,AFNE01.JPG,AFNE01.JPG,AFNE01.JPG,AFNE01.JPG,AFNE01.JPG,,,,,,,,,,,,,,,,,5,9,59,1,,,,,,,AMSA18.jpg,AMSA19.jpg,AMNE18.jpg,AMNE09.jpg,AMSA18.jpg,MS,2,num_8,16,num_8,0.966792214895,,,2017_Mar_23_1056,60.0060241058,MAFE4ImagesEEG,001,100059,
,,,,,,,,,,,,,,,,,,,,,,,,,,,,,,,,,,,,,,,,,,,space,37.9142008466,2017_Mar_23_1056,60.0060241058,MAFE4ImagesEEG,001,100059,
AFNE01.JPG,AFNE01.JPG,AFNE01.JPG,AFNE01.JPG,AFNE01.JPG,AFNE01.JPG,,,,,,,,,,,,,,,,,,,,,0,0,0,3,,,AFNE10.jpg,AFSA12.jpg,AFNE14.jpg,AFSA18.jpg,AFNE14.jpg,FN,3,num_2,32,num_6,1.33342078835,,,2017_Mar_23_1056,60.0060241058,MAFE4ImagesEEG,001,100059,
AFNE01.JPG,AFNE01.JPG,AFNE01.JPG,AFNE01.JPG,AFNE01.JPG,AFNE01.JPG,,,,,,,,,,,,,,,,,,,,,0,1,1,2,,,AFSA06.jpg,AFSA04.jpg,AFNE03.jpg,AFNE15.jpg,AFNE15.jpg,FN,3,num_4,16,num_4,1.01678879897,,,2017_Mar_23_1056,60.0060241058,MAFE4ImagesEEG,001,100059,
AFNE01.JPG,AFNE01.JPG,AFNE01.JPG,AFNE01.JPG,AFNE01.JPG,AFNE01.JPG,,,,,,,,,,,,,,,,,,,,,0,2,2,4,,,AFSA08.jpg,AFNE14.jpg,AFNE15.jpg,AFSA19.jpg,AFNE14.jpg,FN,3,num_6,16,num_6,0.650172734342,,,2017_Mar_23_1056,60.0060241058,MAFE4ImagesEEG,001,100059,
AFNE01.JPG,AFNE01.JPG,AFNE01.JPG,AFNE01.JPG,AFNE01.JPG,AFNE01.JPG,,,,,,,,,,,,,,,,,,,,,0,3,3,9,,,AFSA01.jpg,AFNE18.jpg,AFSA15.jpg,AFNE13.jpg,AFSA15.jpg,FS,4,num_2,32,num_4,0.617027172761,,,2017_Mar_23_1056,60.0060241058,MAFE4ImagesEEG,001,100059,
AFNE01.JPG,AFNE01.JPG,AFNE01.JPG,AFNE01.JPG,AFNE01.JPG,AFNE01.JPG,,,,,,,,,,,,,,,,,,,,,0,4,4,0,,,AFSA14.jpg,AFNE15.jpg,AFSA01.jpg,AFNE07.jpg,AFSA01.jpg,FS,4,num_2,32,num_6,0.883474624483,,,2017_Mar_23_1056,60.0060241058,MAFE4ImagesEEG,001,100059,
AFNE01.JPG,AFNE01.JPG,AFNE01.JPG,AFNE01.JPG,AFNE01.JPG,AFNE01.JPG,,,,,,,,,,,,,,,,,,,,,0,5,5,7,,,AFSA06.jpg,AFNE15.jpg,AFSA11.jpg,AFNE16.jpg,AFNE15.jpg,FN,3,num_6,16,num_6,0.600129642989,,,2017_Mar_23_1056,60.0060241058,MAFE4ImagesEEG,001,100059,
AFNE01.JPG,AFNE01.JPG,AFNE01.JPG,AFNE01.JPG,AFNE01.JPG,AFNE01.JPG,,,,,,,,,,,,,,,,,,,,,0,6,6,5,,,AFSA18.jpg,AFNE10.jpg,AFSA01.jpg,AFNE13.jpg,AFNE10.jpg,FN,3,num_6,16,num_6,0.933478906401,,,2017_Mar_23_1056,60.0060241058,MAFE4ImagesEEG,001,100059,
AFNE01.JPG,AFNE01.JPG,AFNE01.JPG,AFNE01.JPG,AFNE01.JPG,AFNE01.JPG,,,,,,,,,,,,,,,,,,,,,0,7,7,6,,,AFNE13.jpg,AFSA02.jpg,AFNE18.jpg,AFSA07.jpg,AFSA02.jpg,FS,4,num_6,32,num_8,1.08344588621,,,2017_Mar_23_1056,60.0060241058,MAFE4ImagesEEG,001,100059,
AFNE01.JPG,AFNE01.JPG,AFNE01.JPG,AFNE01.JPG,AFNE01.JPG,AFNE01.JPG,,,,,,,,,,,,,,,,,,,,,0,8,8,1,,,AFNE10.jpg,AFNE20.jpg,AFSA04.jpg,AFSA08.jpg,AFSA08.jpg,FS,4,num_4,16,num_4,0.85017350415,,,2017_Mar_23_1056,60.0060241058,MAFE4ImagesEEG,001,100059,
AFNE01.JPG,AFNE01.JPG,AFNE01.JPG,AFNE01.JPG,AFNE01.JPG,AFNE01.JPG,,,,,,,,,,,,,,,,,,,,,0,9,9,8,,,AFSA11.jpg,AFNE02.jpg,AFSA05.jpg,AFNE07.jpg,AFSA11.jpg,FS,4,num_8,16,num_8,0.800109243952,,,2017_Mar_23_1056,60.0060241058,MAFE4ImagesEEG,001,100059,
AFNE01.JPG,AFNE01.JPG,AFNE01.JPG,AFNE01.JPG,AFNE01.JPG,AFNE01.JPG,,,,,,,,,,,,,,,,,,,,,1,0,10,9,,,AFNE17.jpg,AFSA10.jpg,AFSA18.jpg,AFNE02.jpg,AFSA10.jpg,FS,4,num_6,16,num_6,0.70013820671,,,2017_Mar_23_1056,60.0060241058,MAFE4ImagesEEG,001,100059,
AFNE01.JPG,AFNE01.JPG,AFNE01.JPG,AFNE01.JPG,AFNE01.JPG,AFNE01.JPG,,,,,,,,,,,,,,,,,,,,,1,1,11,0,,,AFNE18.jpg,AFSA20.jpg,AFNE05.jpg,AFSA18.jpg,AFNE05.jpg,FN,3,num_2,32,num_8,0.816806632152,,,2017_Mar_23_1056,60.0060241058,MAFE4ImagesEEG,001,100059,
AFNE01.JPG,AFNE01.JPG,AFNE01.JPG,AFNE01.JPG,AFNE01.JPG,AFNE01.JPG,,,,,,,,,,,,,,,,,,,,,1,2,12,5,,,AFSA02.jpg,AFNE17.jpg,AFSA11.jpg,AFNE11.jpg,AFSA11.jpg,FS,4,num_2,16,num_2,0.93333361129,,,2017_Mar_23_1056,60.0060241058,MAFE4ImagesEEG,001,100059,
AFNE01.JPG,AFNE01.JPG,AFNE01.JPG,AFNE01.JPG,AFNE01.JPG,AFNE01.JPG,,,,,,,,,,,,,,,,,,,,,1,3,13,3,,,AFNE01.jpg,AFSA12.jpg,AFSA02.jpg,AFNE20.jpg,AFNE01.jpg,FN,3,num_8,16,num_8,0.766778615478,,,2017_Mar_23_1056,60.0060241058,MAFE4ImagesEEG,001,100059,
AFNE01.JPG,AFNE01.JPG,AFNE01.JPG,AFNE01.JPG,AFNE01.JPG,AFNE01.JPG,,,,,,,,,,,,,,,,,,,,,1,4,14,1,,,AFNE20.jpg,AFNE03.jpg,AFSA11.jpg,AFSA14.jpg,AFSA11.jpg,FS,4,num_2,32,num_4,0.716823406809,,,2017_Mar_23_1056,60.0060241058,MAFE4ImagesEEG,001,100059,
AFNE01.JPG,AFNE01.JPG,AFNE01.JPG,AFNE01.JPG,AFNE01.JPG,AFNE01.JPG,,,,,,,,,,,,,,,,,,,,,1,5,15,8,,,AFSA05.jpg,AFSA01.jpg,AFNE16.jpg,AFNE18.jpg,AFNE18.jpg,FN,3,num_4,16,num_4,0.666806295398,,,2017_Mar_23_1056,60.0060241058,MAFE4ImagesEEG,001,100059,
AFNE01.JPG,AFNE01.JPG,AFNE01.JPG,AFNE01.JPG,AFNE01.JPG,AFNE01.JPG,,,,,,,,,,,,,,,,,,,,,1,6,16,7,,,AFNE02.jpg,AFSA15.jpg,AFNE17.jpg,AFSA12.jpg,AFSA15.jpg,FS,4,num_6,32,num_2,0.766767710331,,,2017_Mar_23_1056,60.0060241058,MAFE4ImagesEEG,001,100059,
AFNE01.JPG,AFNE01.JPG,AFNE01.JPG,AFNE01.JPG,AFNE01.JPG,AFNE01.JPG,,,,,,,,,,,,,,,,,,,,,1,7,17,2,,,AFSA04.jpg,AFNE13.jpg,AFNE19.jpg,AFSA08.jpg,AFNE13.jpg,FN,3,num_6,16,num_6,0.600151453284,,,2017_Mar_23_1056,60.0060241058,MAFE4ImagesEEG,001,100059,
AFNE01.JPG,AFNE01.JPG,AFNE01.JPG,AFNE01.JPG,AFNE01.JPG,AFNE01.JPG,,,,,,,,,,,,,,,,,,,,,1,8,18,6,,,AFSA08.jpg,AFNE02.jpg,AFNE06.jpg,AFSA06.jpg,AFSA06.jpg,FS,4,num_4,32,num_8,0.716777541034,,,2017_Mar_23_1056,60.0060241058,MAFE4ImagesEEG,001,100059,
AFNE01.JPG,AFNE01.JPG,AFNE01.JPG,AFNE01.JPG,AFNE01.JPG,AFNE01.JPG,,,,,,,,,,,,,,,,,,,,,1,9,19,4,,,AFNE06.jpg,AFSA09.jpg,AFNE11.jpg,AFSA18.jpg,AFSA09.jpg,FS,4,num_6,32,num_4,0.966738330608,,,2017_Mar_23_1056,60.0060241058,MAFE4ImagesEEG,001,100059,
AFNE01.JPG,AFNE01.JPG,AFNE01.JPG,AFNE01.JPG,AFNE01.JPG,AFNE01.JPG,,,,,,,,,,,,,,,,,,,,,2,0,20,0,,,AFSA14.jpg,AFSA11.jpg,AFNE13.jpg,AFNE15.jpg,AFSA11.jpg,FS,4,num_6,32,num_4,0.733632733172,,,2017_Mar_23_1056,60.0060241058,MAFE4ImagesEEG,001,100059,
AFNE01.JPG,AFNE01.JPG,AFNE01.JPG,AFNE01.JPG,AFNE01.JPG,AFNE01.JPG,,,,,,,,,,,,,,,,,,,,,2,1,21,8,,,AFNE01.jpg,AFSA03.jpg,AFSA13.jpg,AFNE05.jpg,AFNE01.jpg,FN,3,num_8,16,num_8,0.600164282892,,,2017_Mar_23_1056,60.0060241058,MAFE4ImagesEEG,001,100059,
AFNE01.JPG,AFNE01.JPG,AFNE01.JPG,AFNE01.JPG,AFNE01.JPG,AFNE01.JPG,,,,,,,,,,,,,,,,,,,,,2,2,22,5,,,AFNE13.jpg,AFNE03.jpg,AFSA20.jpg,AFSA18.jpg,AFNE13.jpg,FN,3,num_8,16,num_8,0.650165036612,,,2017_Mar_23_1056,60.0060241058,MAFE4ImagesEEG,001,100059,
AFNE01.JPG,AFNE01.JPG,AFNE01.JPG,AFNE01.JPG,AFNE01.JPG,AFNE01.JPG,,,,,,,,,,,,,,,,,,,,,2,3,23,4,,,AFSA19.jpg,AFSA16.jpg,AFNE02.jpg,AFNE17.jpg,AFSA19.jpg,FS,4,num_8,32,num_6,1.01679008198,,,2017_Mar_23_1056,60.0060241058,MAFE4ImagesEEG,001,100059,
AFNE01.JPG,AFNE01.JPG,AFNE01.JPG,AFNE01.JPG,AFNE01.JPG,AFNE01.JPG,,,,,,,,,,,,,,,,,,,,,2,4,24,2,,,AFNE15.jpg,AFNE10.jpg,AFSA11.jpg,AFSA06.jpg,AFNE15.jpg,FN,3,num_8,16,num_8,0.700165790389,,,2017_Mar_23_1056,60.0060241058,MAFE4ImagesEEG,001,100059,
AFNE01.JPG,AFNE01.JPG,AFNE01.JPG,AFNE01.JPG,AFNE01.JPG,AFNE01.JPG,,,,,,,,,,,,,,,,,,,,,2,5,25,3,,,AFSA18.jpg,AFNE03.jpg,AFNE04.jpg,AFSA12.jpg,AFSA12.jpg,FS,4,num_4,16,num_4,0.683544096712,,,2017_Mar_23_1056,60.0060241058,MAFE4ImagesEEG,001,100059,
AFNE01.JPG,AFNE01.JPG,AFNE01.JPG,AFNE01.JPG,AFNE01.JPG,AFNE01.JPG,,,,,,,,,,,,,,,,,,,,,2,6,26,9,,,AFNE18.jpg,AFSA09.jpg,AFNE20.jpg,AFSA07.jpg,AFNE20.jpg,FN,3,num_2,32,num_4,0.800173391879,,,2017_Mar_23_1056,60.0060241058,MAFE4ImagesEEG,001,100059,
AFNE01.JPG,AFNE01.JPG,AFNE01.JPG,AFNE01.JPG,AFNE01.JPG,AFNE01.JPG,,,,,,,,,,,,,,,,,,,,,2,7,27,7,,,AFNE03.jpg,AFSA09.jpg,AFNE13.jpg,AFSA20.jpg,AFSA20.jpg,FS,4,num_4,16,num_4,0.700099717942,,,2017_Mar_23_1056,60.0060241058,MAFE4ImagesEEG,001,100059,
AFNE01.JPG,AFNE01.JPG,AFNE01.JPG,AFNE01.JPG,AFNE01.JPG,AFNE01.JPG,,,,,,,,,,,,,,,,,,,,,2,8,28,6,,,AFNE14.jpg,AFSA12.jpg,AFSA04.jpg,AFNE20.jpg,AFNE14.jpg,FN,3,num_8,32,num_4,1.53342540702,,,2017_Mar_23_1056,60.0060241058,MAFE4ImagesEEG,001,100059,
AFNE01.JPG,AFNE01.JPG,AFNE01.JPG,AFNE01.JPG,AFNE01.JPG,AFNE01.JPG,,,,,,,,,,,,,,,,,,,,,2,9,29,1,,,AFSA19.jpg,AFSA04.jpg,AFNE18.jpg,AFNE14.jpg,AFSA19.jpg,FS,4,num_8,16,num_8,0.950078468944,,,2017_Mar_23_1056,60.0060241058,MAFE4ImagesEEG,001,100059,
AFNE01.JPG,AFNE01.JPG,AFNE01.JPG,AFNE01.JPG,AFNE01.JPG,AFNE01.JPG,,,,,,,,,,,,,,,,,,,,,3,0,30,1,,,AFSA09.jpg,AFNE06.jpg,AFNE13.jpg,AFSA17.jpg,AFSA09.jpg,FS,4,num_8,32,num_4,0.900121656538,,,2017_Mar_23_1056,60.0060241058,MAFE4ImagesEEG,001,100059,
AFNE01.JPG,AFNE01.JPG,AFNE01.JPG,AFNE01.JPG,AFNE01.JPG,AFNE01.JPG,,,,,,,,,,,,,,,,,,,,,3,1,31,9,,,AFSA13.jpg,AFSA10.jpg,AFNE05.jpg,AFNE02.jpg,AFSA10.jpg,FS,4,num_6,32,num_8,0.833471304853,,,2017_Mar_23_1056,60.0060241058,MAFE4ImagesEEG,001,100059,
AFNE01.JPG,AFNE01.JPG,AFNE01.JPG,AFNE01.JPG,AFNE01.JPG,AFNE01.JPG,,,,,,,,,,,,,,,,,,,,,3,2,32,0,,,AFSA09.jpg,AFNE03.jpg,AFNE02.jpg,AFSA16.jpg,AFSA16.jpg,FS,4,num_4,32,num_8,0.916781518201,,,2017_Mar_23_1056,60.0060241058,MAFE4ImagesEEG,001,100059,
AFNE01.JPG,AFNE01.JPG,AFNE01.JPG,AFNE01.JPG,AFNE01.JPG,AFNE01.JPG,,,,,,,,,,,,,,,,,,,,,3,3,33,2,,,AFNE14.jpg,AFNE19.jpg,AFSA11.jpg,AFSA13.jpg,AFSA11.jpg,FS,4,num_2,32,num_4,1.11674251623,,,2017_Mar_23_1056,60.0060241058,MAFE4ImagesEEG,001,100059,
AFNE01.JPG,AFNE01.JPG,AFNE01.JPG,AFNE01.JPG,AFNE01.JPG,AFNE01.JPG,,,,,,,,,,,,,,,,,,,,,3,4,34,5,,,AFSA18.jpg,AFNE11.jpg,AFSA08.jpg,AFNE08.jpg,AFNE08.jpg,FN,3,num_4,16,num_4,0.950090977829,,,2017_Mar_23_1056,60.0060241058,MAFE4ImagesEEG,001,100059,
AFNE01.JPG,AFNE01.JPG,AFNE01.JPG,AFNE01.JPG,AFNE01.JPG,AFNE01.JPG,,,,,,,,,,,,,,,,,,,,,3,5,35,8,,,AFNE08.jpg,AFSA20.jpg,AFNE12.jpg,AFSA08.jpg,AFSA20.jpg,FS,4,num_6,16,num_6,0.550203942345,,,2017_Mar_23_1056,60.0060241058,MAFE4ImagesEEG,001,100059,
AFNE01.JPG,AFNE01.JPG,AFNE01.JPG,AFNE01.JPG,AFNE01.JPG,AFNE01.JPG,,,,,,,,,,,,,,,,,,,,,3,6,36,6,,,AFSA01.jpg,AFSA17.jpg,AFNE05.jpg,AFNE03.jpg,AFNE05.jpg,FN,3,num_2,16,num_2,1.03343422734,,,2017_Mar_23_1056,60.0060241058,MAFE4ImagesEEG,001,100059,
AFNE01.JPG,AFNE01.JPG,AFNE01.JPG,AFNE01.JPG,AFNE01.JPG,AFNE01.JPG,,,,,,,,,,,,,,,,,,,,,3,7,37,4,,,AFNE14.jpg,AFSA13.jpg,AFNE06.jpg,AFSA06.jpg,AFNE06.jpg,FN,3,num_2,32,num_8,0.76675231487,,,2017_Mar_23_1056,60.0060241058,MAFE4ImagesEEG,001,100059,
AFNE01.JPG,AFNE01.JPG,AFNE01.JPG,AFNE01.JPG,AFNE01.JPG,AFNE01.JPG,,,,,,,,,,,,,,,,,,,,,3,8,38,3,,,AFNE16.jpg,AFSA12.jpg,AFNE10.jpg,AFSA03.jpg,AFSA03.jpg,FS,4,num_4,16,num_4,0.616808428254,,,2017_Mar_23_1056,60.0060241058,MAFE4ImagesEEG,001,100059,
