IPosition2,IPosition3,IPosition1,IPosition6,IPosition4,IPosition5,TrialsF1.thisRepN,TrialsF1.thisTrialN,TrialsF1.thisN,TrialsF1.thisIndex,TrialsM1.thisRepN,TrialsM1.thisTrialN,TrialsM1.thisN,TrialsM1.thisIndex,TrialsF2.thisRepN,TrialsF2.thisTrialN,TrialsF2.thisN,TrialsF2.thisIndex,TrialsM2.thisRepN,TrialsM2.thisTrialN,TrialsM2.thisN,TrialsM2.thisIndex,TrialsF3.thisRepN,TrialsF3.thisTrialN,TrialsF3.thisN,TrialsF3.thisIndex,TrialsM3.thisRepN,TrialsM3.thisTrialN,TrialsM3.thisN,TrialsM3.thisIndex,InstrKey_resp.keys,InstrKey_resp.rt,Image0 _Position,Image1 _Position,Image2 _Position,Image3 _Position,Center_image,condition,code,correct_answer,accuracy,Key_Resp.keys,Key_Resp.rt,BreakKey_resp.keys,BreakKey_resp.rt,date,frameRate,expName,session,participant,
,,,,,,,,,,,,,,,,,,,,,,,,,,,,,,space,15.2327791592,,,,,,,,,,,,,,2017_Mar_07_1039,60.0057738987,FEMA4ImagesEEG,001,100043,
AFSA25.JPG,AFNE24.JPG,AFSA24.JPG,AFNE21.JPG,AFSA21.JPG,AFNE25.JPG,0,0,0,2,,,,,,,,,,,,,,,,,,,,,,,AFNE04.jpg,AFSA17.jpg,AFSA04.jpg,AFNE06.jpg,AFNE06.jpg,FN,3,num_4,32,num_8,2.00010488229,,,2017_Mar_07_1039,60.0057738987,FEMA4ImagesEEG,001,100043,
AFNE23.JPG,AFNE24.JPG,AFNE22.JPG,AFSA24.JPG,AFSA22.JPG,AFSA23.JPG,0,1,1,8,,,,,,,,,,,,,,,,,,,,,,,AFNE09.jpg,AFSA19.jpg,AFSA18.jpg,AFNE06.jpg,AFSA18.jpg,FS,4,num_2,16,num_2,1.7000996219,,,2017_Mar_07_1039,60.0057738987,FEMA4ImagesEEG,001,100043,
AMSA21.JPG,AMNE23.JPG,AMNE21.JPG,AMSA25.JPG,AMNE25.JPG,AMSA23.JPG,0,2,2,5,,,,,,,,,,,,,,,,,,,,,,,AFSA16.jpg,AFNE03.jpg,AFSA18.jpg,AFNE08.jpg,AFSA18.jpg,FS,4,num_2,16,num_2,1.35003168881,,,2017_Mar_07_1039,60.0057738987,FEMA4ImagesEEG,001,100043,
AFSA21.JPG,AFNE22.JPG,AFNE21.JPG,AFSA23.JPG,AFSA22.JPG,AFNE23.JPG,0,3,3,0,,,,,,,,,,,,,,,,,,,,,,,AFSA15.jpg,AFSA13.jpg,AFNE10.jpg,AFNE13.jpg,AFNE13.jpg,FN,3,num_4,16,num_4,1.48338086717,,,2017_Mar_07_1039,60.0057738987,FEMA4ImagesEEG,001,100043,
AMNE22.JPG,AMSA24.JPG,AMSA22.JPG,AMNE25.JPG,AMNE24.JPG,AMSA25.JPG,0,4,4,7,,,,,,,,,,,,,,,,,,,,,,,AFNE14.jpg,AFNE15.jpg,AFSA18.jpg,AFSA10.jpg,AFNE14.jpg,FN,3,num_8,16,num_8,1.55007742625,,,2017_Mar_07_1039,60.0057738987,FEMA4ImagesEEG,001,100043,
AMSA25.JPG,AMNE24.JPG,AMSA24.JPG,AMNE26.JPG,AMSA21.JPG,AMNE25.JPG,0,5,5,3,,,,,,,,,,,,,,,,,,,,,,,AFSA15.jpg,AFSA05.jpg,AFNE02.jpg,AFNE06.jpg,AFSA05.jpg,FS,4,num_6,16,num_6,1.11669636704,,,2017_Mar_07_1039,60.0057738987,FEMA4ImagesEEG,001,100043,
AFSA21.JPG,AFNE23.JPG,AFNE21.JPG,AFSA25.JPG,AFNE25.JPG,AFSA23.JPG,0,6,6,4,,,,,,,,,,,,,,,,,,,,,,,AFSA10.jpg,AFSA18.jpg,AFNE01.jpg,AFNE09.jpg,AFNE09.jpg,FN,3,num_4,16,num_4,1.26673780708,,,2017_Mar_07_1039,60.0057738987,FEMA4ImagesEEG,001,100043,
AFNE22.JPG,AFSA24.JPG,AFSA22.JPG,AFNE25.JPG,AFNE24.JPG,AFSA25.JPG,0,7,7,6,,,,,,,,,,,,,,,,,,,,,,,AFSA01.jpg,AFNE11.jpg,AFSA03.jpg,AFNE03.jpg,AFNE11.jpg,FN,3,num_6,32,num_8,1.48345848592,,,2017_Mar_07_1039,60.0057738987,FEMA4ImagesEEG,001,100043,
AMSA21.JPG,AMNE22.JPG,AMNE21.JPG,AMSA23.JPG,AMSA22.JPG,AMNE23.JPG,0,8,8,1,,,,,,,,,,,,,,,,,,,,,,,AFNE11.jpg,AFNE18.jpg,AFSA07.jpg,AFSA15.jpg,AFSA15.jpg,FS,4,num_4,16,num_4,1.23344437359,,,2017_Mar_07_1039,60.0057738987,FEMA4ImagesEEG,001,100043,
AMNE23.JPG,AMNE24.JPG,AMNE22.JPG,AMSA24.JPG,AMSA22.JPG,AMSA23.JPG,0,9,9,9,,,,,,,,,,,,,,,,,,,,,,,AFNE13.jpg,AFSA12.jpg,AFSA14.jpg,AFNE14.jpg,AFSA14.jpg,FS,4,num_2,32,num_6,1.3834008174,,,2017_Mar_07_1039,60.0057738987,FEMA4ImagesEEG,001,100043,
AMNE23.JPG,AMNE24.JPG,AMNE22.JPG,AMSA24.JPG,AMSA22.JPG,AMSA23.JPG,,,,,0,0,0,9,,,,,,,,,,,,,,,,,,,AMSA02.jpg,AMNE10.jpg,AMSA01.jpg,AMNE11.jpg,AMSA02.jpg,MS,2,num_8,16,num_8,2.5166236232,,,2017_Mar_07_1039,60.0057738987,FEMA4ImagesEEG,001,100043,
AMSA25.JPG,AMNE24.JPG,AMSA24.JPG,AMNE26.JPG,AMSA21.JPG,AMNE25.JPG,,,,,0,1,1,3,,,,,,,,,,,,,,,,,,,AMNE13.jpg,AMSA12.jpg,AMSA10.jpg,AMNE04.jpg,AMNE04.jpg,MN,1,num_4,32,num_8,2.10001501068,,,2017_Mar_07_1039,60.0057738987,FEMA4ImagesEEG,001,100043,
AFSA21.JPG,AFNE22.JPG,AFNE21.JPG,AFSA23.JPG,AFSA22.JPG,AFNE23.JPG,,,,,0,2,2,0,,,,,,,,,,,,,,,,,,,AMSA01.jpg,AMNE18.jpg,AMSA03.jpg,AMNE13.jpg,AMSA03.jpg,MS,2,num_2,32,num_4,1.58344174316,,,2017_Mar_07_1039,60.0057738987,FEMA4ImagesEEG,001,100043,
AFNE22.JPG,AFSA24.JPG,AFSA22.JPG,AFNE25.JPG,AFNE24.JPG,AFSA25.JPG,,,,,0,3,3,6,,,,,,,,,,,,,,,,,,,AMSA11.jpg,AMNE08.jpg,AMNE09.jpg,AMSA01.jpg,AMNE08.jpg,MN,1,num_6,32,num_2,2.01664799964,,,2017_Mar_07_1039,60.0057738987,FEMA4ImagesEEG,001,100043,
AMSA21.JPG,AMNE23.JPG,AMNE21.JPG,AMSA25.JPG,AMNE25.JPG,AMSA23.JPG,,,,,0,4,4,5,,,,,,,,,,,,,,,,,,,AMNE16.jpg,AMNE06.jpg,AMSA01.jpg,AMSA13.jpg,AMNE16.jpg,MN,1,num_8,16,num_8,1.71670849109,,,2017_Mar_07_1039,60.0057738987,FEMA4ImagesEEG,001,100043,
AFNE23.JPG,AFNE24.JPG,AFNE22.JPG,AFSA24.JPG,AFSA22.JPG,AFSA23.JPG,,,,,0,5,5,8,,,,,,,,,,,,,,,,,,,AMSA12.jpg,AMNE14.jpg,AMSA11.jpg,AMNE11.jpg,AMNE11.jpg,MN,1,num_4,16,num_4,1.96640282637,,,2017_Mar_07_1039,60.0057738987,FEMA4ImagesEEG,001,100043,
AMNE22.JPG,AMSA24.JPG,AMSA22.JPG,AMNE25.JPG,AMNE24.JPG,AMSA25.JPG,,,,,0,6,6,7,,,,,,,,,,,,,,,,,,,AMSA19.jpg,AMNE02.jpg,AMSA13.jpg,AMNE03.jpg,AMNE02.jpg,MN,1,num_6,32,num_2,2.01668873336,,,2017_Mar_07_1039,60.0057738987,FEMA4ImagesEEG,001,100043,
AFSA25.JPG,AFNE24.JPG,AFSA24.JPG,AFNE21.JPG,AFSA21.JPG,AFNE25.JPG,,,,,0,7,7,2,,,,,,,,,,,,,,,,,,,AMSA09.jpg,AMNE06.jpg,AMSA16.jpg,AMNE20.jpg,AMSA09.jpg,MS,2,num_8,32,num_6,1.4670574558,,,2017_Mar_07_1039,60.0057738987,FEMA4ImagesEEG,001,100043,
AFSA21.JPG,AFNE23.JPG,AFNE21.JPG,AFSA25.JPG,AFNE25.JPG,AFSA23.JPG,,,,,0,8,8,4,,,,,,,,,,,,,,,,,,,AMSA08.jpg,AMNE10.jpg,AMSA20.jpg,AMNE08.jpg,AMNE08.jpg,MN,1,num_4,32,num_8,1.93339741742,,,2017_Mar_07_1039,60.0057738987,FEMA4ImagesEEG,001,100043,
AMSA21.JPG,AMNE22.JPG,AMNE21.JPG,AMSA23.JPG,AMSA22.JPG,AMNE23.JPG,,,,,0,9,9,1,,,,,,,,,,,,,,,,,,,AMSA14.jpg,AMNE01.jpg,AMSA17.jpg,AMNE12.jpg,AMSA17.jpg,MS,2,num_2,32,num_6,2.75000898074,,,2017_Mar_07_1039,60.0057738987,FEMA4ImagesEEG,001,100043,
AFSA25.JPG,AFNE24.JPG,AFSA24.JPG,AFNE21.JPG,AFSA21.JPG,AFNE25.JPG,,,,,,,,,0,0,0,2,,,,,,,,,,,,,,,AFSA03.jpg,AFSA13.jpg,AFNE11.jpg,AFNE12.jpg,AFSA03.jpg,FS,4,num_8,32,num_6,1.61675121356,,,2017_Mar_07_1039,60.0057738987,FEMA4ImagesEEG,001,100043,
AFNE22.JPG,AFSA24.JPG,AFSA22.JPG,AFNE25.JPG,AFNE24.JPG,AFSA25.JPG,,,,,,,,,0,1,1,6,,,,,,,,,,,,,,,AFNE14.jpg,AFSA17.jpg,AFSA02.jpg,AFNE07.jpg,AFSA17.jpg,FS,4,num_6,16,num_6,1.1500882674,,,2017_Mar_07_1039,60.0057738987,FEMA4ImagesEEG,001,100043,
AMNE22.JPG,AMSA24.JPG,AMSA22.JPG,AMNE25.JPG,AMNE24.JPG,AMSA25.JPG,,,,,,,,,0,2,2,7,,,,,,,,,,,,,,,AFNE12.jpg,AFSA17.jpg,AFNE07.jpg,AFSA20.jpg,AFNE07.jpg,FN,3,num_2,32,num_6,1.48347676825,,,2017_Mar_07_1039,60.0057738987,FEMA4ImagesEEG,001,100043,
AMSA21.JPG,AMNE22.JPG,AMNE21.JPG,AMSA23.JPG,AMSA22.JPG,AMNE23.JPG,,,,,,,,,0,3,3,1,,,,,,,,,,,,,,,AFNE18.jpg,AFNE04.jpg,AFSA10.jpg,AFSA04.jpg,AFSA04.jpg,FS,4,num_4,16,num_4,0.966776808724,,,2017_Mar_07_1039,60.0057738987,FEMA4ImagesEEG,001,100043,
AFSA21.JPG,AFNE22.JPG,AFNE21.JPG,AFSA23.JPG,AFSA22.JPG,AFNE23.JPG,,,,,,,,,0,4,4,0,,,,,,,,,,,,,,,AFSA04.jpg,AFNE14.jpg,AFNE18.jpg,AFSA07.jpg,AFNE14.jpg,FN,3,num_6,32,num_8,2.21667160606,,,2017_Mar_07_1039,60.0057738987,FEMA4ImagesEEG,001,100043,
AMSA25.JPG,AMNE24.JPG,AMSA24.JPG,AMNE26.JPG,AMSA21.JPG,AMNE25.JPG,,,,,,,,,0,5,5,3,,,,,,,,,,,,,,,AFNE01.jpg,AFNE15.jpg,AFSA02.jpg,AFSA10.jpg,AFSA10.jpg,FS,4,num_4,32,num_6,0.983455920126,,,2017_Mar_07_1039,60.0057738987,FEMA4ImagesEEG,001,100043,
AFNE23.JPG,AFNE24.JPG,AFNE22.JPG,AFSA24.JPG,AFSA22.JPG,AFSA23.JPG,,,,,,,,,0,6,6,8,,,,,,,,,,,,,,,AFSA01.jpg,AFNE05.jpg,AFNE18.jpg,AFSA02.jpg,AFNE18.jpg,FN,3,num_2,16,num_2,2.48333051056,,,2017_Mar_07_1039,60.0057738987,FEMA4ImagesEEG,001,100043,
AMNE23.JPG,AMNE24.JPG,AMNE22.JPG,AMSA24.JPG,AMSA22.JPG,AMSA23.JPG,,,,,,,,,0,7,7,9,,,,,,,,,,,,,,,AFNE18.jpg,AFSA07.jpg,AFSA11.jpg,AFNE06.jpg,AFNE06.jpg,FN,3,num_4,16,num_4,1.25007312838,,,2017_Mar_07_1039,60.0057738987,FEMA4ImagesEEG,001,100043,
AFSA21.JPG,AFNE23.JPG,AFNE21.JPG,AFSA25.JPG,AFNE25.JPG,AFSA23.JPG,,,,,,,,,0,8,8,4,,,,,,,,,,,,,,,AFNE03.jpg,AFSA12.jpg,AFNE08.jpg,AFSA13.jpg,AFSA12.jpg,FS,4,num_6,32,num_8,1.46682556113,,,2017_Mar_07_1039,60.0057738987,FEMA4ImagesEEG,001,100043,
AMSA21.JPG,AMNE23.JPG,AMNE21.JPG,AMSA25.JPG,AMNE25.JPG,AMSA23.JPG,,,,,,,,,0,9,9,5,,,,,,,,,,,,,,,AFSA14.jpg,AFNE18.jpg,AFNE01.jpg,AFSA04.jpg,AFNE01.jpg,FN,3,num_2,32,num_6,1.28339510784,,,2017_Mar_07_1039,60.0057738987,FEMA4ImagesEEG,001,100043,
AMNE23.JPG,AMNE24.JPG,AMNE22.JPG,AMSA24.JPG,AMSA22.JPG,AMSA23.JPG,,,,,,,,,,,,,0,0,0,9,,,,,,,,,,,AMSA02.jpg,AMNE02.jpg,AMSA18.jpg,AMNE07.jpg,AMSA02.jpg,MS,2,num_8,16,num_8,1.86656390177,,,2017_Mar_07_1039,60.0057738987,FEMA4ImagesEEG,001,100043,
AFNE22.JPG,AFSA24.JPG,AFSA22.JPG,AFNE25.JPG,AFNE24.JPG,AFSA25.JPG,,,,,,,,,,,,,0,1,1,6,,,,,,,,,,,AMSA19.jpg,AMNE05.jpg,AMNE13.jpg,AMSA03.jpg,AMNE05.jpg,MN,1,num_6,32,num_4,1.6166947633,,,2017_Mar_07_1039,60.0057738987,FEMA4ImagesEEG,001,100043,
AMSA21.JPG,AMNE23.JPG,AMNE21.JPG,AMSA25.JPG,AMNE25.JPG,AMSA23.JPG,,,,,,,,,,,,,0,2,2,5,,,,,,,,,,,AMNE20.jpg,AMSA04.jpg,AMNE04.jpg,AMSA20.jpg,AMNE20.jpg,MN,1,num_8,16,num_8,1.75007088343,,,2017_Mar_07_1039,60.0057738987,FEMA4ImagesEEG,001,100043,
AFSA21.JPG,AFNE22.JPG,AFNE21.JPG,AFSA23.JPG,AFSA22.JPG,AFNE23.JPG,,,,,,,,,,,,,0,3,3,0,,,,,,,,,,,AMSA17.jpg,AMSA18.jpg,AMNE03.jpg,AMNE07.jpg,AMSA18.jpg,MS,2,num_6,16,num_6,1.26657070126,,,2017_Mar_07_1039,60.0057738987,FEMA4ImagesEEG,001,100043,
AFSA25.JPG,AFNE24.JPG,AFSA24.JPG,AFNE21.JPG,AFSA21.JPG,AFNE25.JPG,,,,,,,,,,,,,0,4,4,2,,,,,,,,,,,AMSA01.jpg,AMNE15.jpg,AMSA03.jpg,AMNE10.jpg,AMSA01.jpg,MS,2,num_8,32,num_2,2.16638601944,,,2017_Mar_07_1039,60.0057738987,FEMA4ImagesEEG,001,100043,
AMSA21.JPG,AMNE22.JPG,AMNE21.JPG,AMSA23.JPG,AMSA22.JPG,AMNE23.JPG,,,,,,,,,,,,,0,5,5,1,,,,,,,,,,,AMSA07.jpg,AMSA09.jpg,AMNE17.jpg,AMNE08.jpg,AMSA07.jpg,MS,2,num_8,16,num_8,3.63337387471,,,2017_Mar_07_1039,60.0057738987,FEMA4ImagesEEG,001,100043,
AFSA21.JPG,AFNE23.JPG,AFNE21.JPG,AFSA25.JPG,AFNE25.JPG,AFSA23.JPG,,,,,,,,,,,,,0,6,6,4,,,,,,,,,,,AMSA02.jpg,AMNE03.jpg,AMNE19.jpg,AMSA06.jpg,AMNE19.jpg,MN,1,num_2,32,num_6,1.83355785115,,,2017_Mar_07_1039,60.0057738987,FEMA4ImagesEEG,001,100043,
AFNE23.JPG,AFNE24.JPG,AFNE22.JPG,AFSA24.JPG,AFSA22.JPG,AFSA23.JPG,,,,,,,,,,,,,0,7,7,8,,,,,,,,,,,AMNE01.jpg,AMSA19.jpg,AMSA03.jpg,AMNE08.jpg,AMSA03.jpg,MS,2,num_2,32,num_8,1.66655344563,,,2017_Mar_07_1039,60.0057738987,FEMA4ImagesEEG,001,100043,
AMSA25.JPG,AMNE24.JPG,AMSA24.JPG,AMNE26.JPG,AMSA21.JPG,AMNE25.JPG,,,,,,,,,,,,,0,8,8,3,,,,,,,,,,,AMNE06.jpg,AMNE20.jpg,AMSA05.jpg,AMSA12.jpg,AMNE20.jpg,MN,1,num_6,32,num_2,1.61669700872,,,2017_Mar_07_1039,60.0057738987,FEMA4ImagesEEG,001,100043,
AMNE22.JPG,AMSA24.JPG,AMSA22.JPG,AMNE25.JPG,AMNE24.JPG,AMSA25.JPG,,,,,,,,,,,,,0,9,9,7,,,,,,,,,,,AMNE15.jpg,AMSA06.jpg,AMNE16.jpg,AMSA09.jpg,AMNE16.jpg,MN,1,num_2,16,num_2,1.73335841531,,,2017_Mar_07_1039,60.0057738987,FEMA4ImagesEEG,001,100043,
AMSA25.JPG,AMNE24.JPG,AMSA24.JPG,AMNE26.JPG,AMSA21.JPG,AMNE25.JPG,,,,,,,,,,,,,,,,,0,0,0,3,,,,,,,AFNE08.jpg,AFSA17.jpg,AFNE18.jpg,AFSA14.jpg,AFNE08.jpg,FN,3,num_8,32,num_4,3.83363033878,,,2017_Mar_07_1039,60.0057738987,FEMA4ImagesEEG,001,100043,
AFSA21.JPG,AFNE22.JPG,AFNE21.JPG,AFSA23.JPG,AFSA22.JPG,AFNE23.JPG,,,,,,,,,,,,,,,,,0,1,1,0,,,,,,,AFSA02.jpg,AFNE19.jpg,AFNE06.jpg,AFSA14.jpg,AFNE19.jpg,FN,3,num_6,16,num_6,0.783447708935,,,2017_Mar_07_1039,60.0057738987,FEMA4ImagesEEG,001,100043,
AMSA21.JPG,AMNE22.JPG,AMNE21.JPG,AMSA23.JPG,AMSA22.JPG,AMNE23.JPG,,,,,,,,,,,,,,,,,0,2,2,1,,,,,,,AFSA14.jpg,AFNE13.jpg,AFNE18.jpg,AFSA07.jpg,AFNE18.jpg,FN,3,num_2,32,num_8,1.3163559339,,,2017_Mar_07_1039,60.0057738987,FEMA4ImagesEEG,001,100043,
AFSA21.JPG,AFNE23.JPG,AFNE21.JPG,AFSA25.JPG,AFNE25.JPG,AFSA23.JPG,,,,,,,,,,,,,,,,,0,3,3,4,,,,,,,AFNE19.jpg,AFNE17.jpg,AFSA14.jpg,AFSA09.jpg,AFSA09.jpg,FS,4,num_4,16,num_4,1.30005818233,,,2017_Mar_07_1039,60.0057738987,FEMA4ImagesEEG,001,100043,
AMSA21.JPG,AMNE23.JPG,AMNE21.JPG,AMSA25.JPG,AMNE25.JPG,AMSA23.JPG,,,,,,,,,,,,,,,,,0,4,4,5,,,,,,,AFSA15.jpg,AFNE05.jpg,AFNE08.jpg,AFSA02.jpg,AFNE05.jpg,FN,3,num_6,32,num_2,3.59990724223,,,2017_Mar_07_1039,60.0057738987,FEMA4ImagesEEG,001,100043,
AFNE22.JPG,AFSA24.JPG,AFSA22.JPG,AFNE25.JPG,AFNE24.JPG,AFSA25.JPG,,,,,,,,,,,,,,,,,0,5,5,6,,,,,,,AFSA11.jpg,AFSA02.jpg,AFNE14.jpg,AFNE08.jpg,AFNE08.jpg,FN,3,num_4,16,num_4,0.88343673991,,,2017_Mar_07_1039,60.0057738987,FEMA4ImagesEEG,001,100043,
AFSA25.JPG,AFNE24.JPG,AFSA24.JPG,AFNE21.JPG,AFSA21.JPG,AFNE25.JPG,,,,,,,,,,,,,,,,,0,6,6,2,,,,,,,AFSA18.jpg,AFNE09.jpg,AFSA16.jpg,AFNE15.jpg,AFSA18.jpg,FS,4,num_8,32,num_6,2.25003111176,,,2017_Mar_07_1039,60.0057738987,FEMA4ImagesEEG,001,100043,
AMNE23.JPG,AMNE24.JPG,AMNE22.JPG,AMSA24.JPG,AMSA22.JPG,AMSA23.JPG,,,,,,,,,,,,,,,,,0,7,7,9,,,,,,,AFNE16.jpg,AFSA10.jpg,AFNE06.jpg,AFSA16.jpg,AFSA16.jpg,FS,4,num_4,32,num_8,1.43339453032,,,2017_Mar_07_1039,60.0057738987,FEMA4ImagesEEG,001,100043,
AMNE22.JPG,AMSA24.JPG,AMSA22.JPG,AMNE25.JPG,AMNE24.JPG,AMSA25.JPG,,,,,,,,,,,,,,,,,0,8,8,7,,,,,,,AFNE20.jpg,AFSA04.jpg,AFSA08.jpg,AFNE14.jpg,AFNE14.jpg,FN,3,num_4,16,num_4,1.20015639253,,,2017_Mar_07_1039,60.0057738987,FEMA4ImagesEEG,001,100043,
AFNE23.JPG,AFNE24.JPG,AFNE22.JPG,AFSA24.JPG,AFSA22.JPG,AFSA23.JPG,,,,,,,,,,,,,,,,,0,9,9,8,,,,,,,AFSA03.jpg,AFNE09.jpg,AFNE02.jpg,AFSA15.jpg,AFSA03.jpg,FS,4,num_8,32,num_4,2.30011591502,,,2017_Mar_07_1039,60.0057738987,FEMA4ImagesEEG,001,100043,
AFNE22.JPG,AFSA24.JPG,AFSA22.JPG,AFNE25.JPG,AFNE24.JPG,AFSA25.JPG,,,,,,,,,,,,,,,,,,,,,0,0,0,6,,,AMNE18.jpg,AMSA12.jpg,AMNE02.jpg,AMSA07.jpg,AMNE18.jpg,MN,1,num_8,32,num_6,1.13341075974,,,2017_Mar_07_1039,60.0057738987,FEMA4ImagesEEG,001,100043,
AMSA21.JPG,AMNE23.JPG,AMNE21.JPG,AMSA25.JPG,AMNE25.JPG,AMSA23.JPG,,,,,,,,,,,,,,,,,,,,,0,1,1,5,,,AMNE07.jpg,AMSA04.jpg,AMSA13.jpg,AMNE03.jpg,AMNE07.jpg,MN,1,num_8,16,num_8,1.36671208357,,,2017_Mar_07_1039,60.0057738987,FEMA4ImagesEEG,001,100043,
AMNE22.JPG,AMSA24.JPG,AMSA22.JPG,AMNE25.JPG,AMNE24.JPG,AMSA25.JPG,,,,,,,,,,,,,,,,,,,,,0,2,2,7,,,AMSA01.jpg,AMNE14.jpg,AMSA17.jpg,AMNE06.jpg,AMSA17.jpg,MS,2,num_2,32,num_6,1.76670060074,,,2017_Mar_07_1039,60.0057738987,FEMA4ImagesEEG,001,100043,
AFSA21.JPG,AFNE22.JPG,AFNE21.JPG,AFSA23.JPG,AFSA22.JPG,AFNE23.JPG,,,,,,,,,,,,,,,,,,,,,0,3,3,0,,,AMNE07.jpg,AMSA07.jpg,AMSA17.jpg,AMNE11.jpg,AMSA17.jpg,MS,2,num_2,32,num_4,1.21697149798,,,2017_Mar_07_1039,60.0057738987,FEMA4ImagesEEG,001,100043,
AMSA21.JPG,AMNE22.JPG,AMNE21.JPG,AMSA23.JPG,AMSA22.JPG,AMNE23.JPG,,,,,,,,,,,,,,,,,,,,,0,4,4,1,,,AMNE09.jpg,AMSA17.jpg,AMSA15.jpg,AMNE13.jpg,AMSA15.jpg,MS,2,num_2,32,num_6,1.38343706075,,,2017_Mar_07_1039,60.0057738987,FEMA4ImagesEEG,001,100043,
AMNE23.JPG,AMNE24.JPG,AMNE22.JPG,AMSA24.JPG,AMSA22.JPG,AMSA23.JPG,,,,,,,,,,,,,,,,,,,,,0,5,5,9,,,AMNE14.jpg,AMNE19.jpg,AMSA06.jpg,AMSA19.jpg,AMSA06.jpg,MS,2,num_2,32,num_4,1.66683730017,,,2017_Mar_07_1039,60.0057738987,FEMA4ImagesEEG,001,100043,
AMSA25.JPG,AMNE24.JPG,AMSA24.JPG,AMNE26.JPG,AMSA21.JPG,AMNE25.JPG,,,,,,,,,,,,,,,,,,,,,0,6,6,3,,,AMNE07.jpg,AMNE01.jpg,AMSA06.jpg,AMSA09.jpg,AMNE01.jpg,MN,1,num_6,16,num_6,0.85016415501,,,2017_Mar_07_1039,60.0057738987,FEMA4ImagesEEG,001,100043,
AFSA25.JPG,AFNE24.JPG,AFSA24.JPG,AFNE21.JPG,AFSA21.JPG,AFNE25.JPG,,,,,,,,,,,,,,,,,,,,,0,7,7,2,,,AMNE02.jpg,AMNE01.jpg,AMSA08.jpg,AMSA07.jpg,AMNE01.jpg,MN,1,num_6,32,num_4,1.25008948613,,,2017_Mar_07_1039,60.0057738987,FEMA4ImagesEEG,001,100043,
AFNE23.JPG,AFNE24.JPG,AFNE22.JPG,AFSA24.JPG,AFSA22.JPG,AFSA23.JPG,,,,,,,,,,,,,,,,,,,,,0,8,8,8,,,AMNE04.jpg,AMNE01.jpg,AMSA18.jpg,AMSA14.jpg,AMSA18.jpg,MS,2,num_2,32,num_6,1.33339780197,,,2017_Mar_07_1039,60.0057738987,FEMA4ImagesEEG,001,100043,
AFSA21.JPG,AFNE23.JPG,AFNE21.JPG,AFSA25.JPG,AFNE25.JPG,AFSA23.JPG,,,,,,,,,,,,,,,,,,,,,0,9,9,4,,,AMSA18.jpg,AMNE02.jpg,AMNE06.jpg,AMSA08.jpg,AMSA18.jpg,MS,2,num_8,16,num_8,1.48325096723,,,2017_Mar_07_1039,60.0057738987,FEMA4ImagesEEG,001,100043,
,,,,,,,,,,,,,,,,,,,,,,,,,,,,,,,,,,,,,,,,,,,space,9.81602909975,2017_Mar_07_1039,60.0057738987,FEMA4ImagesEEG,001,100043,
AFNE01.JPG,AFNE01.JPG,AFNE01.JPG,AFNE01.JPG,AFNE01.JPG,AFNE01.JPG,0,0,0,7,,,,,,,,,,,,,,,,,,,,,,,AFSA15.jpg,AFNE01.jpg,AFSA13.jpg,AFNE20.jpg,AFSA13.jpg,FS,4,num_2,32,num_8,1.23345271265,,,2017_Mar_07_1039,60.0057738987,FEMA4ImagesEEG,001,100043,
AFNE01.JPG,AFNE01.JPG,AFNE01.JPG,AFNE01.JPG,AFNE01.JPG,AFNE01.JPG,0,1,1,6,,,,,,,,,,,,,,,,,,,,,,,AFSA04.jpg,AFSA06.jpg,AFNE03.jpg,AFNE10.jpg,AFNE03.jpg,FN,3,num_2,32,num_6,0.949818012305,,,2017_Mar_07_1039,60.0057738987,FEMA4ImagesEEG,001,100043,
AFNE01.JPG,AFNE01.JPG,AFNE01.JPG,AFNE01.JPG,AFNE01.JPG,AFNE01.JPG,0,2,2,2,,,,,,,,,,,,,,,,,,,,,,,AFSA20.jpg,AFSA11.jpg,AFNE01.jpg,AFNE14.jpg,AFNE14.jpg,FN,3,num_4,32,num_8,1.35010866681,,,2017_Mar_07_1039,60.0057738987,FEMA4ImagesEEG,001,100043,
AFNE01.JPG,AFNE01.JPG,AFNE01.JPG,AFNE01.JPG,AFNE01.JPG,AFNE01.JPG,0,3,3,3,,,,,,,,,,,,,,,,,,,,,,,AFSA07.jpg,AFSA14.jpg,AFNE09.jpg,AFNE15.jpg,AFSA14.jpg,FS,4,num_6,32,num_2,1.60005414067,,,2017_Mar_07_1039,60.0057738987,FEMA4ImagesEEG,001,100043,
AFNE01.JPG,AFNE01.JPG,AFNE01.JPG,AFNE01.JPG,AFNE01.JPG,AFNE01.JPG,0,4,4,5,,,,,,,,,,,,,,,,,,,,,,,AFNE01.jpg,AFSA15.jpg,AFSA10.jpg,AFNE07.jpg,AFSA15.jpg,FS,4,num_6,32,num_4,1.10035403259,,,2017_Mar_07_1039,60.0057738987,FEMA4ImagesEEG,001,100043,
AFNE01.JPG,AFNE01.JPG,AFNE01.JPG,AFNE01.JPG,AFNE01.JPG,AFNE01.JPG,0,5,5,8,,,,,,,,,,,,,,,,,,,,,,,AFNE19.jpg,AFSA07.jpg,AFSA05.jpg,AFNE12.jpg,AFNE19.jpg,FN,3,num_8,16,num_8,1.51671278896,,,2017_Mar_07_1039,60.0057738987,FEMA4ImagesEEG,001,100043,
AFNE01.JPG,AFNE01.JPG,AFNE01.JPG,AFNE01.JPG,AFNE01.JPG,AFNE01.JPG,0,6,6,4,,,,,,,,,,,,,,,,,,,,,,,AFSA02.jpg,AFNE05.jpg,AFSA14.jpg,AFNE12.jpg,AFNE05.jpg,FN,3,num_6,32,num_2,1.63349286932,,,2017_Mar_07_1039,60.0057738987,FEMA4ImagesEEG,001,100043,
AFNE01.JPG,AFNE01.JPG,AFNE01.JPG,AFNE01.JPG,AFNE01.JPG,AFNE01.JPG,0,7,7,0,,,,,,,,,,,,,,,,,,,,,,,AFNE13.jpg,AFNE17.jpg,AFSA04.jpg,AFSA02.jpg,AFSA02.jpg,FS,4,num_4,32,num_2,1.5667870082,,,2017_Mar_07_1039,60.0057738987,FEMA4ImagesEEG,001,100043,
AFNE01.JPG,AFNE01.JPG,AFNE01.JPG,AFNE01.JPG,AFNE01.JPG,AFNE01.JPG,0,8,8,1,,,,,,,,,,,,,,,,,,,,,,,AFSA20.jpg,AFNE12.jpg,AFNE04.jpg,AFSA01.jpg,AFNE04.jpg,FN,3,num_2,32,num_6,1.46669566166,,,2017_Mar_07_1039,60.0057738987,FEMA4ImagesEEG,001,100043,
AFNE01.JPG,AFNE01.JPG,AFNE01.JPG,AFNE01.JPG,AFNE01.JPG,AFNE01.JPG,0,9,9,9,,,,,,,,,,,,,,,,,,,,,,,AFSA11.jpg,AFSA01.jpg,AFNE05.jpg,AFNE16.jpg,AFNE16.jpg,FN,3,num_4,32,num_8,2.13332929183,,,2017_Mar_07_1039,60.0057738987,FEMA4ImagesEEG,001,100043,
AFNE01.JPG,AFNE01.JPG,AFNE01.JPG,AFNE01.JPG,AFNE01.JPG,AFNE01.JPG,1,0,10,4,,,,,,,,,,,,,,,,,,,,,,,AFNE17.jpg,AFSA03.jpg,AFNE04.jpg,AFSA12.jpg,AFSA12.jpg,FS,4,num_4,16,num_4,2.38332095277,,,2017_Mar_07_1039,60.0057738987,FEMA4ImagesEEG,001,100043,
AFNE01.JPG,AFNE01.JPG,AFNE01.JPG,AFNE01.JPG,AFNE01.JPG,AFNE01.JPG,1,1,11,5,,,,,,,,,,,,,,,,,,,,,,,AFSA03.jpg,AFNE09.jpg,AFSA13.jpg,AFNE19.jpg,AFSA13.jpg,FS,4,num_2,32,num_8,1.300051447,,,2017_Mar_07_1039,60.0057738987,FEMA4ImagesEEG,001,100043,
AFNE01.JPG,AFNE01.JPG,AFNE01.JPG,AFNE01.JPG,AFNE01.JPG,AFNE01.JPG,1,2,12,7,,,,,,,,,,,,,,,,,,,,,,,AFSA08.jpg,AFNE16.jpg,AFSA07.jpg,AFNE13.jpg,AFSA07.jpg,FS,4,num_2,32,num_4,1.36673806375,,,2017_Mar_07_1039,60.0057738987,FEMA4ImagesEEG,001,100043,
AFNE01.JPG,AFNE01.JPG,AFNE01.JPG,AFNE01.JPG,AFNE01.JPG,AFNE01.JPG,1,3,13,3,,,,,,,,,,,,,,,,,,,,,,,AFSA13.jpg,AFNE14.jpg,AFNE15.jpg,AFSA03.jpg,AFNE15.jpg,FN,3,num_2,32,num_6,0.81675974559,,,2017_Mar_07_1039,60.0057738987,FEMA4ImagesEEG,001,100043,
AFNE01.JPG,AFNE01.JPG,AFNE01.JPG,AFNE01.JPG,AFNE01.JPG,AFNE01.JPG,1,4,14,6,,,,,,,,,,,,,,,,,,,,,,,AFSA13.jpg,AFNE03.jpg,AFSA12.jpg,AFNE20.jpg,AFNE20.jpg,FN,3,num_4,16,num_4,1.06675525475,,,2017_Mar_07_1039,60.0057738987,FEMA4ImagesEEG,001,100043,
AFNE01.JPG,AFNE01.JPG,AFNE01.JPG,AFNE01.JPG,AFNE01.JPG,AFNE01.JPG,1,5,15,8,,,,,,,,,,,,,,,,,,,,,,,AFNE10.jpg,AFSA07.jpg,AFNE14.jpg,AFSA16.jpg,AFSA07.jpg,FS,4,num_6,16,num_6,1.01680965256,,,2017_Mar_07_1039,60.0057738987,FEMA4ImagesEEG,001,100043,
AFNE01.JPG,AFNE01.JPG,AFNE01.JPG,AFNE01.JPG,AFNE01.JPG,AFNE01.JPG,1,6,16,9,,,,,,,,,,,,,,,,,,,,,,,AFSA12.jpg,AFNE06.jpg,AFSA10.jpg,AFNE18.jpg,AFSA12.jpg,FS,4,num_8,16,num_8,0.683501977939,,,2017_Mar_07_1039,60.0057738987,FEMA4ImagesEEG,001,100043,
AFNE01.JPG,AFNE01.JPG,AFNE01.JPG,AFNE01.JPG,AFNE01.JPG,AFNE01.JPG,1,7,17,2,,,,,,,,,,,,,,,,,,,,,,,AFNE11.jpg,AFSA11.jpg,AFNE04.jpg,AFSA08.jpg,AFNE11.jpg,FN,3,num_8,32,num_6,1.58336252067,,,2017_Mar_07_1039,60.0057738987,FEMA4ImagesEEG,001,100043,
AFNE01.JPG,AFNE01.JPG,AFNE01.JPG,AFNE01.JPG,AFNE01.JPG,AFNE01.JPG,1,8,18,1,,,,,,,,,,,,,,,,,,,,,,,AFNE20.jpg,AFSA03.jpg,AFNE13.jpg,AFSA20.jpg,AFSA20.jpg,FS,4,num_4,32,num_8,1.90005330695,,,2017_Mar_07_1039,60.0057738987,FEMA4ImagesEEG,001,100043,
AFNE01.JPG,AFNE01.JPG,AFNE01.JPG,AFNE01.JPG,AFNE01.JPG,AFNE01.JPG,1,9,19,0,,,,,,,,,,,,,,,,,,,,,,,AFSA09.jpg,AFNE18.jpg,AFNE05.jpg,AFSA01.jpg,AFSA09.jpg,FS,4,num_8,32,num_4,1.76667847019,,,2017_Mar_07_1039,60.0057738987,FEMA4ImagesEEG,001,100043,
AFNE01.JPG,AFNE01.JPG,AFNE01.JPG,AFNE01.JPG,AFNE01.JPG,AFNE01.JPG,2,0,20,0,,,,,,,,,,,,,,,,,,,,,,,AFSA02.jpg,AFSA08.jpg,AFNE18.jpg,AFNE07.jpg,AFSA02.jpg,FS,4,num_8,32,num_6,1.75012733368,,,2017_Mar_07_1039,60.0057738987,FEMA4ImagesEEG,001,100043,
AFNE01.JPG,AFNE01.JPG,AFNE01.JPG,AFNE01.JPG,AFNE01.JPG,AFNE01.JPG,2,1,21,2,,,,,,,,,,,,,,,,,,,,,,,AFNE01.jpg,AFNE17.jpg,AFSA06.jpg,AFSA03.jpg,AFSA06.jpg,FS,4,num_2,32,num_8,1.16647486435,,,2017_Mar_07_1039,60.0057738987,FEMA4ImagesEEG,001,100043,
AFNE01.JPG,AFNE01.JPG,AFNE01.JPG,AFNE01.JPG,AFNE01.JPG,AFNE01.JPG,2,2,22,3,,,,,,,,,,,,,,,,,,,,,,,AFNE17.jpg,AFNE04.jpg,AFSA20.jpg,AFSA13.jpg,AFNE17.jpg,FN,3,num_8,32,num_4,1.16675968142,,,2017_Mar_07_1039,60.0057738987,FEMA4ImagesEEG,001,100043,
AFNE01.JPG,AFNE01.JPG,AFNE01.JPG,AFNE01.JPG,AFNE01.JPG,AFNE01.JPG,2,3,23,1,,,,,,,,,,,,,,,,,,,,,,,AFNE17.jpg,AFNE07.jpg,AFSA14.jpg,AFSA19.jpg,AFNE17.jpg,FN,3,num_8,32,num_2,1.13347715326,,,2017_Mar_07_1039,60.0057738987,FEMA4ImagesEEG,001,100043,
AFNE01.JPG,AFNE01.JPG,AFNE01.JPG,AFNE01.JPG,AFNE01.JPG,AFNE01.JPG,2,4,24,7,,,,,,,,,,,,,,,,,,,,,,,AFNE10.jpg,AFSA08.jpg,AFNE02.jpg,AFSA03.jpg,AFSA03.jpg,FS,4,num_4,16,num_4,1.01672080718,,,2017_Mar_07_1039,60.0057738987,FEMA4ImagesEEG,001,100043,
AFNE01.JPG,AFNE01.JPG,AFNE01.JPG,AFNE01.JPG,AFNE01.JPG,AFNE01.JPG,2,5,25,9,,,,,,,,,,,,,,,,,,,,,,,AFSA04.jpg,AFSA05.jpg,AFNE12.jpg,AFNE05.jpg,AFNE05.jpg,FN,3,num_4,32,num_2,1.48343154369,,,2017_Mar_07_1039,60.0057738987,FEMA4ImagesEEG,001,100043,
AFNE01.JPG,AFNE01.JPG,AFNE01.JPG,AFNE01.JPG,AFNE01.JPG,AFNE01.JPG,2,6,26,8,,,,,,,,,,,,,,,,,,,,,,,AFNE03.jpg,AFSA04.jpg,AFNE01.jpg,AFSA18.jpg,AFSA04.jpg,FS,4,num_6,32,num_8,2.4832782303,,,2017_Mar_07_1039,60.0057738987,FEMA4ImagesEEG,001,100043,
AFNE01.JPG,AFNE01.JPG,AFNE01.JPG,AFNE01.JPG,AFNE01.JPG,AFNE01.JPG,2,7,27,6,,,,,,,,,,,,,,,,,,,,,,,AFNE04.jpg,AFSA18.jpg,AFNE01.jpg,AFSA11.jpg,AFNE04.jpg,FN,3,num_8,32,num_6,1.31671612477,,,2017_Mar_07_1039,60.0057738987,FEMA4ImagesEEG,001,100043,
AFNE01.JPG,AFNE01.JPG,AFNE01.JPG,AFNE01.JPG,AFNE01.JPG,AFNE01.JPG,2,8,28,5,,,,,,,,,,,,,,,,,,,,,,,AFNE08.jpg,AFNE17.jpg,AFSA12.jpg,AFSA04.jpg,AFNE08.jpg,FN,3,num_8,32,num_2,1.88338349713,,,2017_Mar_07_1039,60.0057738987,FEMA4ImagesEEG,001,100043,
AFNE01.JPG,AFNE01.JPG,AFNE01.JPG,AFNE01.JPG,AFNE01.JPG,AFNE01.JPG,2,9,29,4,,,,,,,,,,,,,,,,,,,,,,,AFNE15.jpg,AFSA17.jpg,AFNE14.jpg,AFSA11.jpg,AFNE15.jpg,FN,3,num_8,32,num_4,3.73323204368,,,2017_Mar_07_1039,60.0057738987,FEMA4ImagesEEG,001,100043,
AFNE01.JPG,AFNE01.JPG,AFNE01.JPG,AFNE01.JPG,AFNE01.JPG,AFNE01.JPG,3,0,30,0,,,,,,,,,,,,,,,,,,,,,,,AFNE01.jpg,AFNE04.jpg,AFSA17.jpg,AFSA13.jpg,AFSA17.jpg,FS,4,num_2,32,num_4,3.39997921605,,,2017_Mar_07_1039,60.0057738987,FEMA4ImagesEEG,001,100043,
AFNE01.JPG,AFNE01.JPG,AFNE01.JPG,AFNE01.JPG,AFNE01.JPG,AFNE01.JPG,3,1,31,5,,,,,,,,,,,,,,,,,,,,,,,AFSA08.jpg,AFNE08.jpg,AFNE03.jpg,AFSA20.jpg,AFNE08.jpg,FN,3,num_6,16,num_6,1.03330754582,,,2017_Mar_07_1039,60.0057738987,FEMA4ImagesEEG,001,100043,
AFNE01.JPG,AFNE01.JPG,AFNE01.JPG,AFNE01.JPG,AFNE01.JPG,AFNE01.JPG,3,2,32,1,,,,,,,,,,,,,,,,,,,,,,,AFNE10.jpg,AFSA12.jpg,AFSA06.jpg,AFNE16.jpg,AFNE16.jpg,FN,3,num_4,16,num_4,1.28327066079,,,2017_Mar_07_1039,60.0057738987,FEMA4ImagesEEG,001,100043,
AFNE01.JPG,AFNE01.JPG,AFNE01.JPG,AFNE01.JPG,AFNE01.JPG,AFNE01.JPG,3,3,33,6,,,,,,,,,,,,,,,,,,,,,,,AFNE08.jpg,AFSA16.jpg,AFSA08.jpg,AFNE13.jpg,AFSA08.jpg,FS,4,num_2,16,num_2,1.16672536219,,,2017_Mar_07_1039,60.0057738987,FEMA4ImagesEEG,001,100043,
AFNE01.JPG,AFNE01.JPG,AFNE01.JPG,AFNE01.JPG,AFNE01.JPG,AFNE01.JPG,3,4,34,9,,,,,,,,,,,,,,,,,,,,,,,AFNE20.jpg,AFSA14.jpg,AFSA11.jpg,AFNE12.jpg,AFNE20.jpg,FN,3,num_8,16,num_8,1.85005959356,,,2017_Mar_07_1039,60.0057738987,FEMA4ImagesEEG,001,100043,
AFNE01.JPG,AFNE01.JPG,AFNE01.JPG,AFNE01.JPG,AFNE01.JPG,AFNE01.JPG,3,5,35,4,,,,,,,,,,,,,,,,,,,,,,,AFSA05.jpg,AFNE03.jpg,AFSA12.jpg,AFNE14.jpg,AFNE14.jpg,FN,3,num_4,16,num_4,2.69996972196,,,2017_Mar_07_1039,60.0057738987,FEMA4ImagesEEG,001,100043,
AFNE01.JPG,AFNE01.JPG,AFNE01.JPG,AFNE01.JPG,AFNE01.JPG,AFNE01.JPG,3,6,36,7,,,,,,,,,,,,,,,,,,,,,,,AFNE18.jpg,AFSA17.jpg,AFSA08.jpg,AFNE03.jpg,AFNE18.jpg,FN,3,num_8,32,num_2,2.11673549749,,,2017_Mar_07_1039,60.0057738987,FEMA4ImagesEEG,001,100043,
AFNE01.JPG,AFNE01.JPG,AFNE01.JPG,AFNE01.JPG,AFNE01.JPG,AFNE01.JPG,3,7,37,3,,,,,,,,,,,,,,,,,,,,,,,AFNE06.jpg,AFSA19.jpg,AFNE18.jpg,AFSA13.jpg,AFSA19.jpg,FS,4,num_6,16,num_6,2.03336110944,,,2017_Mar_07_1039,60.0057738987,FEMA4ImagesEEG,001,100043,
AFNE01.JPG,AFNE01.JPG,AFNE01.JPG,AFNE01.JPG,AFNE01.JPG,AFNE01.JPG,3,8,38,2,,,,,,,,,,,,,,,,,,,,,,,AFNE08.jpg,AFSA01.jpg,AFSA03.jpg,AFNE12.jpg,AFSA03.jpg,FS,4,num_2,32,num_4,2.33334616292,,,2017_Mar_07_1039,60.0057738987,FEMA4ImagesEEG,001,100043,
AFNE01.JPG,AFNE01.JPG,AFNE01.JPG,AFNE01.JPG,AFNE01.JPG,AFNE01.JPG,3,9,39,8,,,,,,,,,,,,,,,,,,,,,,,AFNE20.jpg,AFNE07.jpg,AFSA01.jpg,AFSA11.jpg,AFSA11.jpg,FS,4,num_4,32,num_8,1.08344847895,,,2017_Mar_07_1039,60.0057738987,FEMA4ImagesEEG,001,100043,
AFNE01.JPG,AFNE01.JPG,AFNE01.JPG,AFNE01.JPG,AFNE01.JPG,AFNE01.JPG,4,0,40,4,,,,,,,,,,,,,,,,,,,,,,,AFNE11.jpg,AFNE10.jpg,AFSA11.jpg,AFSA07.jpg,AFNE10.jpg,FN,3,num_6,16,num_6,0.750113220885,,,2017_Mar_07_1039,60.0057738987,FEMA4ImagesEEG,001,100043,
AFNE01.JPG,AFNE01.JPG,AFNE01.JPG,AFNE01.JPG,AFNE01.JPG,AFNE01.JPG,4,1,41,2,,,,,,,,,,,,,,,,,,,,,,,AFSA05.jpg,AFNE18.jpg,AFNE02.jpg,AFSA17.jpg,AFSA05.jpg,FS,4,num_8,32,num_6,1.20023850212,,,2017_Mar_07_1039,60.0057738987,FEMA4ImagesEEG,001,100043,
AFNE01.JPG,AFNE01.JPG,AFNE01.JPG,AFNE01.JPG,AFNE01.JPG,AFNE01.JPG,4,2,42,8,,,,,,,,,,,,,,,,,,,,,,,AFSA12.jpg,AFNE16.jpg,AFSA01.jpg,AFNE17.jpg,AFSA01.jpg,FS,4,num_2,32,num_4,1.03343744529,,,2017_Mar_07_1039,60.0057738987,FEMA4ImagesEEG,001,100043,
AFNE01.JPG,AFNE01.JPG,AFNE01.JPG,AFNE01.JPG,AFNE01.JPG,AFNE01.JPG,4,3,43,6,,,,,,,,,,,,,,,,,,,,,,,AFSA01.jpg,AFSA15.jpg,AFNE09.jpg,AFNE17.jpg,AFNE09.jpg,FN,3,num_2,32,num_4,1.73365221266,,,2017_Mar_07_1039,60.0057738987,FEMA4ImagesEEG,001,100043,
AFNE01.JPG,AFNE01.JPG,AFNE01.JPG,AFNE01.JPG,AFNE01.JPG,AFNE01.JPG,4,4,44,3,,,,,,,,,,,,,,,,,,,,,,,AFNE14.jpg,AFSA13.jpg,AFSA17.jpg,AFNE11.jpg,AFSA17.jpg,FS,4,num_2,16,num_2,0.699991211761,,,2017_Mar_07_1039,60.0057738987,FEMA4ImagesEEG,001,100043,
AFNE01.JPG,AFNE01.JPG,AFNE01.JPG,AFNE01.JPG,AFNE01.JPG,AFNE01.JPG,4,5,45,9,,,,,,,,,,,,,,,,,,,,,,,AFNE01.jpg,AFNE13.jpg,AFSA02.jpg,AFSA09.jpg,AFSA09.jpg,FS,4,num_4,16,num_4,0.900136699434,,,2017_Mar_07_1039,60.0057738987,FEMA4ImagesEEG,001,100043,
AFNE01.JPG,AFNE01.JPG,AFNE01.JPG,AFNE01.JPG,AFNE01.JPG,AFNE01.JPG,4,6,46,1,,,,,,,,,,,,,,,,,,,,,,,AFNE06.jpg,AFNE09.jpg,AFSA12.jpg,AFSA03.jpg,AFNE06.jpg,FN,3,num_8,32,num_6,1.06677610334,,,2017_Mar_07_1039,60.0057738987,FEMA4ImagesEEG,001,100043,
AFNE01.JPG,AFNE01.JPG,AFNE01.JPG,AFNE01.JPG,AFNE01.JPG,AFNE01.JPG,4,7,47,7,,,,,,,,,,,,,,,,,,,,,,,AFSA03.jpg,AFNE11.jpg,AFSA20.jpg,AFNE07.jpg,AFNE07.jpg,FN,3,num_4,32,num_8,1.76669835579,,,2017_Mar_07_1039,60.0057738987,FEMA4ImagesEEG,001,100043,
AFNE01.JPG,AFNE01.JPG,AFNE01.JPG,AFNE01.JPG,AFNE01.JPG,AFNE01.JPG,4,8,48,0,,,,,,,,,,,,,,,,,,,,,,,AFSA04.jpg,AFNE14.jpg,AFSA19.jpg,AFNE19.jpg,AFSA04.jpg,FS,4,num_8,32,num_2,1.15014279354,,,2017_Mar_07_1039,60.0057738987,FEMA4ImagesEEG,001,100043,
AFNE01.JPG,AFNE01.JPG,AFNE01.JPG,AFNE01.JPG,AFNE01.JPG,AFNE01.JPG,4,9,49,5,,,,,,,,,,,,,,,,,,,,,,,AFNE11.jpg,AFSA03.jpg,AFSA11.jpg,AFNE20.jpg,AFNE11.jpg,FN,3,num_8,16,num_8,1.48351365328,,,2017_Mar_07_1039,60.0057738987,FEMA4ImagesEEG,001,100043,
AFNE01.JPG,AFNE01.JPG,AFNE01.JPG,AFNE01.JPG,AFNE01.JPG,AFNE01.JPG,5,0,50,2,,,,,,,,,,,,,,,,,,,,,,,AFNE06.jpg,AFSA06.jpg,AFSA07.jpg,AFNE08.jpg,AFSA07.jpg,FS,4,num_2,16,num_2,1.20012463955,,,2017_Mar_07_1039,60.0057738987,FEMA4ImagesEEG,001,100043,
AFNE01.JPG,AFNE01.JPG,AFNE01.JPG,AFNE01.JPG,AFNE01.JPG,AFNE01.JPG,5,1,51,9,,,,,,,,,,,,,,,,,,,,,,,AFNE12.jpg,AFSA06.jpg,AFNE06.jpg,AFSA03.jpg,AFNE06.jpg,FN,3,num_2,16,num_2,1.11677462747,,,2017_Mar_07_1039,60.0057738987,FEMA4ImagesEEG,001,100043,
AFNE01.JPG,AFNE01.JPG,AFNE01.JPG,AFNE01.JPG,AFNE01.JPG,AFNE01.JPG,5,2,52,1,,,,,,,,,,,,,,,,,,,,,,,AFSA19.jpg,AFNE08.jpg,AFNE10.jpg,AFSA18.jpg,AFSA19.jpg,FS,4,num_8,16,num_8,1.36675249645,,,2017_Mar_07_1039,60.0057738987,FEMA4ImagesEEG,001,100043,
AFNE01.JPG,AFNE01.JPG,AFNE01.JPG,AFNE01.JPG,AFNE01.JPG,AFNE01.JPG,5,3,53,6,,,,,,,,,,,,,,,,,,,,,,,AFNE13.jpg,AFSA01.jpg,AFSA15.jpg,AFNE07.jpg,AFNE13.jpg,FN,3,num_8,32,num_4,0.833469327074,,,2017_Mar_07_1039,60.0057738987,FEMA4ImagesEEG,001,100043,
AFNE01.JPG,AFNE01.JPG,AFNE01.JPG,AFNE01.JPG,AFNE01.JPG,AFNE01.JPG,5,4,54,3,,,,,,,,,,,,,,,,,,,,,,,AFNE04.jpg,AFSA06.jpg,AFSA13.jpg,AFNE05.jpg,AFNE04.jpg,FN,3,num_8,16,num_8,1.26681574667,,,2017_Mar_07_1039,60.0057738987,FEMA4ImagesEEG,001,100043,
AFNE01.JPG,AFNE01.JPG,AFNE01.JPG,AFNE01.JPG,AFNE01.JPG,AFNE01.JPG,5,5,55,0,,,,,,,,,,,,,,,,,,,,,,,AFNE02.jpg,AFNE19.jpg,AFSA12.jpg,AFSA10.jpg,AFSA10.jpg,FS,4,num_4,16,num_4,1.16674300283,,,2017_Mar_07_1039,60.0057738987,FEMA4ImagesEEG,001,100043,
AFNE01.JPG,AFNE01.JPG,AFNE01.JPG,AFNE01.JPG,AFNE01.JPG,AFNE01.JPG,5,6,56,5,,,,,,,,,,,,,,,,,,,,,,,AFNE16.jpg,AFSA06.jpg,AFNE10.jpg,AFSA15.jpg,AFSA06.jpg,FS,4,num_6,32,num_8,1.41672664508,,,2017_Mar_07_1039,60.0057738987,FEMA4ImagesEEG,001,100043,
AFNE01.JPG,AFNE01.JPG,AFNE01.JPG,AFNE01.JPG,AFNE01.JPG,AFNE01.JPG,5,7,57,7,,,,,,,,,,,,,,,,,,,,,,,AFSA08.jpg,AFSA16.jpg,AFNE01.jpg,AFNE02.jpg,AFNE01.jpg,FN,3,num_2,16,num_2,1.7000556807,,,2017_Mar_07_1039,60.0057738987,FEMA4ImagesEEG,001,100043,
AFNE01.JPG,AFNE01.JPG,AFNE01.JPG,AFNE01.JPG,AFNE01.JPG,AFNE01.JPG,5,8,58,4,,,,,,,,,,,,,,,,,,,,,,,AFSA20.jpg,AFNE16.jpg,AFNE08.jpg,AFSA19.jpg,AFNE08.jpg,FN,3,num_2,32,num_4,1.11673068628,,,2017_Mar_07_1039,60.0057738987,FEMA4ImagesEEG,001,100043,
AFNE01.JPG,AFNE01.JPG,AFNE01.JPG,AFNE01.JPG,AFNE01.JPG,AFNE01.JPG,5,9,59,8,,,,,,,,,,,,,,,,,,,,,,,AFSA15.jpg,AFNE02.jpg,AFSA13.jpg,AFNE05.jpg,AFNE02.jpg,FN,3,num_6,32,num_4,1.33343500784,,,2017_Mar_07_1039,60.0057738987,FEMA4ImagesEEG,001,100043,
,,,,,,,,,,,,,,,,,,,,,,,,,,,,,,,,,,,,,,,,,,,space,10.0324415485,2017_Mar_07_1039,60.0057738987,FEMA4ImagesEEG,001,100043,
AFNE01.JPG,AFNE01.JPG,AFNE01.JPG,AFNE01.JPG,AFNE01.JPG,AFNE01.JPG,,,,,0,0,0,3,,,,,,,,,,,,,,,,,,,AMNE18.jpg,AMSA07.jpg,AMSA20.jpg,AMNE05.jpg,AMNE05.jpg,MN,1,num_4,16,num_4,0.933384587523,,,2017_Mar_07_1039,60.0057738987,FEMA4ImagesEEG,001,100043,
AFNE01.JPG,AFNE01.JPG,AFNE01.JPG,AFNE01.JPG,AFNE01.JPG,AFNE01.JPG,,,,,0,1,1,0,,,,,,,,,,,,,,,,,,,AMNE11.jpg,AMSA07.jpg,AMSA12.jpg,AMNE19.jpg,AMNE19.jpg,MN,1,num_4,32,num_8,1.20006466098,,,2017_Mar_07_1039,60.0057738987,FEMA4ImagesEEG,001,100043,
AFNE01.JPG,AFNE01.JPG,AFNE01.JPG,AFNE01.JPG,AFNE01.JPG,AFNE01.JPG,,,,,0,2,2,7,,,,,,,,,,,,,,,,,,,AMSA03.jpg,AMNE05.jpg,AMNE17.jpg,AMSA19.jpg,AMSA19.jpg,MS,2,num_4,16,num_4,1.16675102105,,,2017_Mar_07_1039,60.0057738987,FEMA4ImagesEEG,001,100043,
AFNE01.JPG,AFNE01.JPG,AFNE01.JPG,AFNE01.JPG,AFNE01.JPG,AFNE01.JPG,,,,,0,3,3,1,,,,,,,,,,,,,,,,,,,AMNE07.jpg,AMSA19.jpg,AMNE14.jpg,AMSA20.jpg,AMNE14.jpg,MN,1,num_2,16,num_2,1.00010520266,,,2017_Mar_07_1039,60.0057738987,FEMA4ImagesEEG,001,100043,
AFNE01.JPG,AFNE01.JPG,AFNE01.JPG,AFNE01.JPG,AFNE01.JPG,AFNE01.JPG,,,,,0,4,4,5,,,,,,,,,,,,,,,,,,,AMSA04.jpg,AMNE20.jpg,AMNE01.jpg,AMSA02.jpg,AMNE20.jpg,MN,1,num_6,32,num_8,1.30007197382,,,2017_Mar_07_1039,60.0057738987,FEMA4ImagesEEG,001,100043,
AFNE01.JPG,AFNE01.JPG,AFNE01.JPG,AFNE01.JPG,AFNE01.JPG,AFNE01.JPG,,,,,0,5,5,4,,,,,,,,,,,,,,,,,,,AMSA14.jpg,AMNE09.jpg,AMNE12.jpg,AMSA06.jpg,AMSA06.jpg,MS,2,num_4,32,num_8,2.06667539058,,,2017_Mar_07_1039,60.0057738987,FEMA4ImagesEEG,001,100043,
AFNE01.JPG,AFNE01.JPG,AFNE01.JPG,AFNE01.JPG,AFNE01.JPG,AFNE01.JPG,,,,,0,6,6,9,,,,,,,,,,,,,,,,,,,AMSA07.jpg,AMNE03.jpg,AMSA20.jpg,AMNE18.jpg,AMSA20.jpg,MS,2,num_2,16,num_2,1.18344264152,,,2017_Mar_07_1039,60.0057738987,FEMA4ImagesEEG,001,100043,
AFNE01.JPG,AFNE01.JPG,AFNE01.JPG,AFNE01.JPG,AFNE01.JPG,AFNE01.JPG,,,,,0,7,7,8,,,,,,,,,,,,,,,,,,,AMSA17.jpg,AMSA06.jpg,AMNE04.jpg,AMNE05.jpg,AMSA17.jpg,MS,2,num_8,16,num_8,1.16660380131,,,2017_Mar_07_1039,60.0057738987,FEMA4ImagesEEG,001,100043,
AFNE01.JPG,AFNE01.JPG,AFNE01.JPG,AFNE01.JPG,AFNE01.JPG,AFNE01.JPG,,,,,0,8,8,6,,,,,,,,,,,,,,,,,,,AMSA11.jpg,AMNE05.jpg,AMNE15.jpg,AMSA08.jpg,AMSA08.jpg,MS,2,num_4,16,num_4,1.65005523153,,,2017_Mar_07_1039,60.0057738987,FEMA4ImagesEEG,001,100043,
AFNE01.JPG,AFNE01.JPG,AFNE01.JPG,AFNE01.JPG,AFNE01.JPG,AFNE01.JPG,,,,,0,9,9,2,,,,,,,,,,,,,,,,,,,AMSA01.jpg,AMNE09.jpg,AMSA15.jpg,AMNE03.jpg,AMNE09.jpg,MN,1,num_6,16,num_6,0.783456689678,,,2017_Mar_07_1039,60.0057738987,FEMA4ImagesEEG,001,100043,
AFNE01.JPG,AFNE01.JPG,AFNE01.JPG,AFNE01.JPG,AFNE01.JPG,AFNE01.JPG,,,,,1,0,10,9,,,,,,,,,,,,,,,,,,,AMNE05.jpg,AMNE18.jpg,AMSA02.jpg,AMSA01.jpg,AMNE18.jpg,MN,1,num_6,16,num_6,1.08342314046,,,2017_Mar_07_1039,60.0057738987,FEMA4ImagesEEG,001,100043,
AFNE01.JPG,AFNE01.JPG,AFNE01.JPG,AFNE01.JPG,AFNE01.JPG,AFNE01.JPG,,,,,1,1,11,6,,,,,,,,,,,,,,,,,,,AMSA10.jpg,AMSA20.jpg,AMNE06.jpg,AMNE16.jpg,AMNE16.jpg,MN,1,num_4,16,num_4,0.95008326415,,,2017_Mar_07_1039,60.0057738987,FEMA4ImagesEEG,001,100043,
AFNE01.JPG,AFNE01.JPG,AFNE01.JPG,AFNE01.JPG,AFNE01.JPG,AFNE01.JPG,,,,,1,2,12,4,,,,,,,,,,,,,,,,,,,AMNE18.jpg,AMNE05.jpg,AMSA13.jpg,AMSA06.jpg,AMSA06.jpg,MS,2,num_4,16,num_4,1.11675185477,,,2017_Mar_07_1039,60.0057738987,FEMA4ImagesEEG,001,100043,
AFNE01.JPG,AFNE01.JPG,AFNE01.JPG,AFNE01.JPG,AFNE01.JPG,AFNE01.JPG,,,,,1,3,13,7,,,,,,,,,,,,,,,,,,,AMSA15.jpg,AMNE18.jpg,AMNE12.jpg,AMSA17.jpg,AMNE12.jpg,MN,1,num_2,32,num_6,1.11672395095,,,2017_Mar_07_1039,60.0057738987,FEMA4ImagesEEG,001,100043,
AFNE01.JPG,AFNE01.JPG,AFNE01.JPG,AFNE01.JPG,AFNE01.JPG,AFNE01.JPG,,,,,1,4,14,1,,,,,,,,,,,,,,,,,,,AMNE06.jpg,AMSA09.jpg,AMNE01.jpg,AMSA05.jpg,AMSA09.jpg,MS,2,num_6,32,num_2,2.16666377988,,,2017_Mar_07_1039,60.0057738987,FEMA4ImagesEEG,001,100043,
AFNE01.JPG,AFNE01.JPG,AFNE01.JPG,AFNE01.JPG,AFNE01.JPG,AFNE01.JPG,,,,,1,5,15,0,,,,,,,,,,,,,,,,,,,AMNE16.jpg,AMSA02.jpg,AMSA20.jpg,AMNE10.jpg,AMSA02.jpg,MS,2,num_6,32,num_8,2.56668308889,,,2017_Mar_07_1039,60.0057738987,FEMA4ImagesEEG,001,100043,
AFNE01.JPG,AFNE01.JPG,AFNE01.JPG,AFNE01.JPG,AFNE01.JPG,AFNE01.JPG,,,,,1,6,16,3,,,,,,,,,,,,,,,,,,,AMNE18.jpg,AMNE12.jpg,AMSA11.jpg,AMSA10.jpg,AMNE18.jpg,MN,1,num_8,32,num_6,1.16670226865,,,2017_Mar_07_1039,60.0057738987,FEMA4ImagesEEG,001,100043,
AFNE01.JPG,AFNE01.JPG,AFNE01.JPG,AFNE01.JPG,AFNE01.JPG,AFNE01.JPG,,,,,1,7,17,5,,,,,,,,,,,,,,,,,,,AMSA01.jpg,AMNE03.jpg,AMSA03.jpg,AMNE09.jpg,AMSA03.jpg,MS,2,num_2,16,num_2,1.05009057699,,,2017_Mar_07_1039,60.0057738987,FEMA4ImagesEEG,001,100043,
AFNE01.JPG,AFNE01.JPG,AFNE01.JPG,AFNE01.JPG,AFNE01.JPG,AFNE01.JPG,,,,,1,8,18,8,,,,,,,,,,,,,,,,,,,AMNE13.jpg,AMSA17.jpg,AMSA13.jpg,AMNE11.jpg,AMNE11.jpg,MN,1,num_4,16,num_4,0.816773216706,,,2017_Mar_07_1039,60.0057738987,FEMA4ImagesEEG,001,100043,
AFNE01.JPG,AFNE01.JPG,AFNE01.JPG,AFNE01.JPG,AFNE01.JPG,AFNE01.JPG,,,,,1,9,19,2,,,,,,,,,,,,,,,,,,,AMSA11.jpg,AMNE09.jpg,AMSA07.jpg,AMNE01.jpg,AMNE09.jpg,MN,1,num_6,16,num_6,1.0001068064,,,2017_Mar_07_1039,60.0057738987,FEMA4ImagesEEG,001,100043,
AFNE01.JPG,AFNE01.JPG,AFNE01.JPG,AFNE01.JPG,AFNE01.JPG,AFNE01.JPG,,,,,2,0,20,3,,,,,,,,,,,,,,,,,,,AMSA03.jpg,AMSA15.jpg,AMNE20.jpg,AMNE09.jpg,AMNE20.jpg,MN,1,num_2,32,num_8,0.883435136173,,,2017_Mar_07_1039,60.0057738987,FEMA4ImagesEEG,001,100043,
AFNE01.JPG,AFNE01.JPG,AFNE01.JPG,AFNE01.JPG,AFNE01.JPG,AFNE01.JPG,,,,,2,1,21,4,,,,,,,,,,,,,,,,,,,AMNE12.jpg,AMSA10.jpg,AMNE17.jpg,AMSA16.jpg,AMNE12.jpg,MN,1,num_8,32,num_4,2.56663529854,,,2017_Mar_07_1039,60.0057738987,FEMA4ImagesEEG,001,100043,
AFNE01.JPG,AFNE01.JPG,AFNE01.JPG,AFNE01.JPG,AFNE01.JPG,AFNE01.JPG,,,,,2,2,22,9,,,,,,,,,,,,,,,,,,,AMSA18.jpg,AMNE03.jpg,AMSA20.jpg,AMNE04.jpg,AMNE04.jpg,MN,1,num_4,32,num_8,1.60002944386,,,2017_Mar_07_1039,60.0057738987,FEMA4ImagesEEG,001,100043,
AFNE01.JPG,AFNE01.JPG,AFNE01.JPG,AFNE01.JPG,AFNE01.JPG,AFNE01.JPG,,,,,2,3,23,6,,,,,,,,,,,,,,,,,,,AMSA13.jpg,AMNE20.jpg,AMNE18.jpg,AMSA01.jpg,AMSA01.jpg,MS,2,num_4,16,num_4,0.516770842951,,,2017_Mar_07_1039,60.0057738987,FEMA4ImagesEEG,001,100043,
AFNE01.JPG,AFNE01.JPG,AFNE01.JPG,AFNE01.JPG,AFNE01.JPG,AFNE01.JPG,,,,,2,4,24,7,,,,,,,,,,,,,,,,,,,AMSA15.jpg,AMSA08.jpg,AMNE11.jpg,AMNE06.jpg,AMNE11.jpg,MN,1,num_2,32,num_6,0.966744093224,,,2017_Mar_07_1039,60.0057738987,FEMA4ImagesEEG,001,100043,
AFNE01.JPG,AFNE01.JPG,AFNE01.JPG,AFNE01.JPG,AFNE01.JPG,AFNE01.JPG,,,,,2,5,25,0,,,,,,,,,,,,,,,,,,,AMSA06.jpg,AMNE13.jpg,AMNE19.jpg,AMSA08.jpg,AMSA08.jpg,MS,2,num_4,32,num_8,1.76667462103,,,2017_Mar_07_1039,60.0057738987,FEMA4ImagesEEG,001,100043,
AFNE01.JPG,AFNE01.JPG,AFNE01.JPG,AFNE01.JPG,AFNE01.JPG,AFNE01.JPG,,,,,2,6,26,8,,,,,,,,,,,,,,,,,,,AMSA04.jpg,AMNE01.jpg,AMNE20.jpg,AMSA16.jpg,AMNE01.jpg,MN,1,num_6,32,num_2,1.24996151123,,,2017_Mar_07_1039,60.0057738987,FEMA4ImagesEEG,001,100043,
AFNE01.JPG,AFNE01.JPG,AFNE01.JPG,AFNE01.JPG,AFNE01.JPG,AFNE01.JPG,,,,,2,7,27,1,,,,,,,,,,,,,,,,,,,AMNE07.jpg,AMSA10.jpg,AMNE13.jpg,AMSA04.jpg,AMNE07.jpg,MN,1,num_8,32,num_4,1.16677507665,,,2017_Mar_07_1039,60.0057738987,FEMA4ImagesEEG,001,100043,
AFNE01.JPG,AFNE01.JPG,AFNE01.JPG,AFNE01.JPG,AFNE01.JPG,AFNE01.JPG,,,,,2,8,28,5,,,,,,,,,,,,,,,,,,,AMSA14.jpg,AMSA02.jpg,AMNE16.jpg,AMNE05.jpg,AMNE05.jpg,MN,1,num_4,32,num_2,1.31671804935,,,2017_Mar_07_1039,60.0057738987,FEMA4ImagesEEG,001,100043,
AFNE01.JPG,AFNE01.JPG,AFNE01.JPG,AFNE01.JPG,AFNE01.JPG,AFNE01.JPG,,,,,2,9,29,2,,,,,,,,,,,,,,,,,,,AMSA20.jpg,AMNE02.jpg,AMSA06.jpg,AMNE14.jpg,AMNE14.jpg,MN,1,num_4,32,num_8,1.43345547095,,,2017_Mar_07_1039,60.0057738987,FEMA4ImagesEEG,001,100043,
AFNE01.JPG,AFNE01.JPG,AFNE01.JPG,AFNE01.JPG,AFNE01.JPG,AFNE01.JPG,,,,,3,0,30,0,,,,,,,,,,,,,,,,,,,AMNE01.jpg,AMSA02.jpg,AMSA08.jpg,AMNE03.jpg,AMNE03.jpg,MN,1,num_4,32,num_6,0.966856352054,,,2017_Mar_07_1039,60.0057738987,FEMA4ImagesEEG,001,100043,
AFNE01.JPG,AFNE01.JPG,AFNE01.JPG,AFNE01.JPG,AFNE01.JPG,AFNE01.JPG,,,,,3,1,31,5,,,,,,,,,,,,,,,,,,,AMSA16.jpg,AMSA04.jpg,AMNE15.jpg,AMNE11.jpg,AMSA16.jpg,MS,2,num_8,32,num_4,1.03342365334,,,2017_Mar_07_1039,60.0057738987,FEMA4ImagesEEG,001,100043,
AFNE01.JPG,AFNE01.JPG,AFNE01.JPG,AFNE01.JPG,AFNE01.JPG,AFNE01.JPG,,,,,3,2,32,9,,,,,,,,,,,,,,,,,,,AMNE01.jpg,AMNE06.jpg,AMSA13.jpg,AMSA19.jpg,AMSA19.jpg,MS,2,num_4,32,num_2,1.11679323064,,,2017_Mar_07_1039,60.0057738987,FEMA4ImagesEEG,001,100043,
AFNE01.JPG,AFNE01.JPG,AFNE01.JPG,AFNE01.JPG,AFNE01.JPG,AFNE01.JPG,,,,,3,3,33,6,,,,,,,,,,,,,,,,,,,AMNE03.jpg,AMNE01.jpg,AMSA13.jpg,AMSA03.jpg,AMNE03.jpg,MN,1,num_8,16,num_8,0.916626894847,,,2017_Mar_07_1039,60.0057738987,FEMA4ImagesEEG,001,100043,
AFNE01.JPG,AFNE01.JPG,AFNE01.JPG,AFNE01.JPG,AFNE01.JPG,AFNE01.JPG,,,,,3,4,34,1,,,,,,,,,,,,,,,,,,,AMSA03.jpg,AMSA01.jpg,AMNE01.jpg,AMNE20.jpg,AMNE20.jpg,MN,1,num_4,16,num_4,0.733460730873,,,2017_Mar_07_1039,60.0057738987,FEMA4ImagesEEG,001,100043,
AFNE01.JPG,AFNE01.JPG,AFNE01.JPG,AFNE01.JPG,AFNE01.JPG,AFNE01.JPG,,,,,3,5,35,8,,,,,,,,,,,,,,,,,,,AMSA10.jpg,AMNE09.jpg,AMSA20.jpg,AMNE20.jpg,AMNE09.jpg,MN,1,num_6,32,num_4,1.00013631443,,,2017_Mar_07_1039,60.0057738987,FEMA4ImagesEEG,001,100043,
AFNE01.JPG,AFNE01.JPG,AFNE01.JPG,AFNE01.JPG,AFNE01.JPG,AFNE01.JPG,,,,,3,6,36,7,,,,,,,,,,,,,,,,,,,AMNE19.jpg,AMSA17.jpg,AMNE08.jpg,AMSA08.jpg,AMSA17.jpg,MS,2,num_6,16,num_6,1.40010622889,,,2017_Mar_07_1039,60.0057738987,FEMA4ImagesEEG,001,100043,
AFNE01.JPG,AFNE01.JPG,AFNE01.JPG,AFNE01.JPG,AFNE01.JPG,AFNE01.JPG,,,,,3,7,37,2,,,,,,,,,,,,,,,,,,,AMSA11.jpg,AMSA01.jpg,AMNE14.jpg,AMNE03.jpg,AMNE03.jpg,MN,1,num_4,16,num_4,1.15009692777,,,2017_Mar_07_1039,60.0057738987,FEMA4ImagesEEG,001,100043,
AFNE01.JPG,AFNE01.JPG,AFNE01.JPG,AFNE01.JPG,AFNE01.JPG,AFNE01.JPG,,,,,3,8,38,4,,,,,,,,,,,,,,,,,,,AMNE17.jpg,AMNE10.jpg,AMSA13.jpg,AMSA09.jpg,AMNE17.jpg,MN,1,num_8,16,num_8,1.3001139909,,,2017_Mar_07_1039,60.0057738987,FEMA4ImagesEEG,001,100043,
AFNE01.JPG,AFNE01.JPG,AFNE01.JPG,AFNE01.JPG,AFNE01.JPG,AFNE01.JPG,,,,,3,9,39,3,,,,,,,,,,,,,,,,,,,AMNE02.jpg,AMSA11.jpg,AMSA10.jpg,AMNE01.jpg,AMSA10.jpg,MS,2,num_2,16,num_2,1.24994996469,,,2017_Mar_07_1039,60.0057738987,FEMA4ImagesEEG,001,100043,
AFNE01.JPG,AFNE01.JPG,AFNE01.JPG,AFNE01.JPG,AFNE01.JPG,AFNE01.JPG,,,,,4,0,40,5,,,,,,,,,,,,,,,,,,,AMSA10.jpg,AMNE06.jpg,AMSA08.jpg,AMNE09.jpg,AMNE06.jpg,MN,1,num_6,32,num_8,1.43339068163,,,2017_Mar_07_1039,60.0057738987,FEMA4ImagesEEG,001,100043,
AFNE01.JPG,AFNE01.JPG,AFNE01.JPG,AFNE01.JPG,AFNE01.JPG,AFNE01.JPG,,,,,4,1,41,9,,,,,,,,,,,,,,,,,,,AMNE02.jpg,AMSA16.jpg,AMSA10.jpg,AMNE01.jpg,AMNE01.jpg,MN,1,num_4,16,num_4,1.28341146559,,,2017_Mar_07_1039,60.0057738987,FEMA4ImagesEEG,001,100043,
AFNE01.JPG,AFNE01.JPG,AFNE01.JPG,AFNE01.JPG,AFNE01.JPG,AFNE01.JPG,,,,,4,2,42,6,,,,,,,,,,,,,,,,,,,AMNE07.jpg,AMSA12.jpg,AMSA14.jpg,AMNE05.jpg,AMNE07.jpg,MN,1,num_8,32,num_4,1.11677783541,,,2017_Mar_07_1039,60.0057738987,FEMA4ImagesEEG,001,100043,
AFNE01.JPG,AFNE01.JPG,AFNE01.JPG,AFNE01.JPG,AFNE01.JPG,AFNE01.JPG,,,,,4,3,43,3,,,,,,,,,,,,,,,,,,,AMNE12.jpg,AMSA13.jpg,AMSA11.jpg,AMNE09.jpg,AMSA13.jpg,MS,2,num_6,32,num_8,1.26682633115,,,2017_Mar_07_1039,60.0057738987,FEMA4ImagesEEG,001,100043,
AFNE01.JPG,AFNE01.JPG,AFNE01.JPG,AFNE01.JPG,AFNE01.JPG,AFNE01.JPG,,,,,4,4,44,1,,,,,,,,,,,,,,,,,,,AMNE18.jpg,AMSA02.jpg,AMSA05.jpg,AMNE20.jpg,AMSA05.jpg,MS,2,num_2,32,num_4,1.18347631907,,,2017_Mar_07_1039,60.0057738987,FEMA4ImagesEEG,001,100043,
AFNE01.JPG,AFNE01.JPG,AFNE01.JPG,AFNE01.JPG,AFNE01.JPG,AFNE01.JPG,,,,,4,5,45,2,,,,,,,,,,,,,,,,,,,AMSA18.jpg,AMNE02.jpg,AMSA03.jpg,AMNE10.jpg,AMNE10.jpg,MN,1,num_4,16,num_4,0.933489790186,,,2017_Mar_07_1039,60.0057738987,FEMA4ImagesEEG,001,100043,
AFNE01.JPG,AFNE01.JPG,AFNE01.JPG,AFNE01.JPG,AFNE01.JPG,AFNE01.JPG,,,,,4,6,46,8,,,,,,,,,,,,,,,,,,,AMSA17.jpg,AMNE13.jpg,AMSA13.jpg,AMNE04.jpg,AMSA13.jpg,MS,2,num_2,32,num_6,1.58336636983,,,2017_Mar_07_1039,60.0057738987,FEMA4ImagesEEG,001,100043,
AFNE01.JPG,AFNE01.JPG,AFNE01.JPG,AFNE01.JPG,AFNE01.JPG,AFNE01.JPG,,,,,4,7,47,0,,,,,,,,,,,,,,,,,,,AMSA04.jpg,AMNE10.jpg,AMSA13.jpg,AMNE18.jpg,AMNE18.jpg,MN,1,num_4,32,num_8,2.01654696651,,,2017_Mar_07_1039,60.0057738987,FEMA4ImagesEEG,001,100043,
AFNE01.JPG,AFNE01.JPG,AFNE01.JPG,AFNE01.JPG,AFNE01.JPG,AFNE01.JPG,,,,,4,8,48,7,,,,,,,,,,,,,,,,,,,AMSA03.jpg,AMSA09.jpg,AMNE19.jpg,AMNE04.jpg,AMSA03.jpg,MS,2,num_8,16,num_8,1.68343269825,,,2017_Mar_07_1039,60.0057738987,FEMA4ImagesEEG,001,100043,
AFNE01.JPG,AFNE01.JPG,AFNE01.JPG,AFNE01.JPG,AFNE01.JPG,AFNE01.JPG,,,,,4,9,49,4,,,,,,,,,,,,,,,,,,,AMNE09.jpg,AMSA12.jpg,AMNE10.jpg,AMSA01.jpg,AMSA12.jpg,MS,2,num_6,32,num_8,1.31680817716,,,2017_Mar_07_1039,60.0057738987,FEMA4ImagesEEG,001,100043,
AFNE01.JPG,AFNE01.JPG,AFNE01.JPG,AFNE01.JPG,AFNE01.JPG,AFNE01.JPG,,,,,5,0,50,4,,,,,,,,,,,,,,,,,,,AMSA19.jpg,AMNE04.jpg,AMSA01.jpg,AMNE09.jpg,AMNE04.jpg,MN,1,num_6,16,num_6,0.883415891789,,,2017_Mar_07_1039,60.0057738987,FEMA4ImagesEEG,001,100043,
AFNE01.JPG,AFNE01.JPG,AFNE01.JPG,AFNE01.JPG,AFNE01.JPG,AFNE01.JPG,,,,,5,1,51,6,,,,,,,,,,,,,,,,,,,AMSA13.jpg,AMNE08.jpg,AMNE07.jpg,AMSA16.jpg,AMSA13.jpg,MS,2,num_8,16,num_8,1.40007351385,,,2017_Mar_07_1039,60.0057738987,FEMA4ImagesEEG,001,100043,
AFNE01.JPG,AFNE01.JPG,AFNE01.JPG,AFNE01.JPG,AFNE01.JPG,AFNE01.JPG,,,,,5,2,52,2,,,,,,,,,,,,,,,,,,,AMNE07.jpg,AMSA19.jpg,AMNE10.jpg,AMSA20.jpg,AMNE07.jpg,MN,1,num_8,32,num_2,1.61675794888,,,2017_Mar_07_1039,60.0057738987,FEMA4ImagesEEG,001,100043,
AFNE01.JPG,AFNE01.JPG,AFNE01.JPG,AFNE01.JPG,AFNE01.JPG,AFNE01.JPG,,,,,5,3,53,5,,,,,,,,,,,,,,,,,,,AMNE11.jpg,AMSA16.jpg,AMNE05.jpg,AMSA05.jpg,AMSA16.jpg,MS,2,num_6,16,num_6,1.20011790376,,,2017_Mar_07_1039,60.0057738987,FEMA4ImagesEEG,001,100043,
AFNE01.JPG,AFNE01.JPG,AFNE01.JPG,AFNE01.JPG,AFNE01.JPG,AFNE01.JPG,,,,,5,4,54,8,,,,,,,,,,,,,,,,,,,AMNE17.jpg,AMSA12.jpg,AMSA04.jpg,AMNE18.jpg,AMNE18.jpg,MN,1,num_4,16,num_4,0.833301900886,,,2017_Mar_07_1039,60.0057738987,FEMA4ImagesEEG,001,100043,
AFNE01.JPG,AFNE01.JPG,AFNE01.JPG,AFNE01.JPG,AFNE01.JPG,AFNE01.JPG,,,,,5,5,55,9,,,,,,,,,,,,,,,,,,,AMNE16.jpg,AMSA20.jpg,AMNE01.jpg,AMSA05.jpg,AMSA20.jpg,MS,2,num_6,32,num_8,1.46661066543,,,2017_Mar_07_1039,60.0057738987,FEMA4ImagesEEG,001,100043,
AFNE01.JPG,AFNE01.JPG,AFNE01.JPG,AFNE01.JPG,AFNE01.JPG,AFNE01.JPG,,,,,5,6,56,3,,,,,,,,,,,,,,,,,,,AMNE05.jpg,AMSA13.jpg,AMNE13.jpg,AMSA17.jpg,AMNE13.jpg,MN,1,num_2,32,num_4,0.983456240967,,,2017_Mar_07_1039,60.0057738987,FEMA4ImagesEEG,001,100043,
AFNE01.JPG,AFNE01.JPG,AFNE01.JPG,AFNE01.JPG,AFNE01.JPG,AFNE01.JPG,,,,,5,7,57,0,,,,,,,,,,,,,,,,,,,AMNE10.jpg,AMSA11.jpg,AMNE09.jpg,AMSA15.jpg,AMNE09.jpg,MN,1,num_2,16,num_2,1.81668276805,,,2017_Mar_07_1039,60.0057738987,FEMA4ImagesEEG,001,100043,
AFNE01.JPG,AFNE01.JPG,AFNE01.JPG,AFNE01.JPG,AFNE01.JPG,AFNE01.JPG,,,,,5,8,58,7,,,,,,,,,,,,,,,,,,,AMSA14.jpg,AMSA19.jpg,AMNE05.jpg,AMNE11.jpg,AMNE11.jpg,MN,1,num_4,32,num_8,1.23330421001,,,2017_Mar_07_1039,60.0057738987,FEMA4ImagesEEG,001,100043,
AFNE01.JPG,AFNE01.JPG,AFNE01.JPG,AFNE01.JPG,AFNE01.JPG,AFNE01.JPG,,,,,5,9,59,1,,,,,,,,,,,,,,,,,,,AMNE04.jpg,AMNE14.jpg,AMSA18.jpg,AMSA15.jpg,AMNE14.jpg,MN,1,num_6,32,num_4,0.783511215821,,,2017_Mar_07_1039,60.0057738987,FEMA4ImagesEEG,001,100043,
,,,,,,,,,,,,,,,,,,,,,,,,,,,,,,,,,,,,,,,,,,,space,13.4154635719,2017_Mar_07_1039,60.0057738987,FEMA4ImagesEEG,001,100043,
AFNE01.JPG,AFNE01.JPG,AFNE01.JPG,AFNE01.JPG,AFNE01.JPG,AFNE01.JPG,,,,,,,,,0,0,0,3,,,,,,,,,,,,,,,AFNE05.jpg,AFSA12.jpg,AFSA19.jpg,AFNE03.jpg,AFSA19.jpg,FS,4,num_2,32,num_4,0.900102059823,,,2017_Mar_07_1039,60.0057738987,FEMA4ImagesEEG,001,100043,
AFNE01.JPG,AFNE01.JPG,AFNE01.JPG,AFNE01.JPG,AFNE01.JPG,AFNE01.JPG,,,,,,,,,0,1,1,0,,,,,,,,,,,,,,,AFNE14.jpg,AFSA05.jpg,AFNE12.jpg,AFSA11.jpg,AFNE12.jpg,FN,3,num_2,16,num_2,1.26703769853,,,2017_Mar_07_1039,60.0057738987,FEMA4ImagesEEG,001,100043,
AFNE01.JPG,AFNE01.JPG,AFNE01.JPG,AFNE01.JPG,AFNE01.JPG,AFNE01.JPG,,,,,,,,,0,2,2,6,,,,,,,,,,,,,,,AFNE03.jpg,AFSA19.jpg,AFNE20.jpg,AFSA12.jpg,AFSA19.jpg,FS,4,num_6,16,num_6,0.866768212989,,,2017_Mar_07_1039,60.0057738987,FEMA4ImagesEEG,001,100043,
AFNE01.JPG,AFNE01.JPG,AFNE01.JPG,AFNE01.JPG,AFNE01.JPG,AFNE01.JPG,,,,,,,,,0,3,3,8,,,,,,,,,,,,,,,AFSA06.jpg,AFSA20.jpg,AFNE17.jpg,AFNE15.jpg,AFSA06.jpg,FS,4,num_8,32,num_6,0.81676968839,,,2017_Mar_07_1039,60.0057738987,FEMA4ImagesEEG,001,100043,
AFNE01.JPG,AFNE01.JPG,AFNE01.JPG,AFNE01.JPG,AFNE01.JPG,AFNE01.JPG,,,,,,,,,0,4,4,2,,,,,,,,,,,,,,,AFSA20.jpg,AFNE01.jpg,AFSA01.jpg,AFNE10.jpg,AFSA20.jpg,FS,4,num_8,16,num_8,1.76671792101,,,2017_Mar_07_1039,60.0057738987,FEMA4ImagesEEG,001,100043,
AFNE01.JPG,AFNE01.JPG,AFNE01.JPG,AFNE01.JPG,AFNE01.JPG,AFNE01.JPG,,,,,,,,,0,5,5,7,,,,,,,,,,,,,,,AFSA02.jpg,AFNE07.jpg,AFSA18.jpg,AFNE05.jpg,AFNE07.jpg,FN,3,num_6,32,num_2,1.53341627633,,,2017_Mar_07_1039,60.0057738987,FEMA4ImagesEEG,001,100043,
AFNE01.JPG,AFNE01.JPG,AFNE01.JPG,AFNE01.JPG,AFNE01.JPG,AFNE01.JPG,,,,,,,,,0,6,6,9,,,,,,,,,,,,,,,AFNE01.jpg,AFSA11.jpg,AFSA03.jpg,AFNE14.jpg,AFNE01.jpg,FN,3,num_8,32,num_4,2.00003624335,,,2017_Mar_07_1039,60.0057738987,FEMA4ImagesEEG,001,100043,
AFNE01.JPG,AFNE01.JPG,AFNE01.JPG,AFNE01.JPG,AFNE01.JPG,AFNE01.JPG,,,,,,,,,0,7,7,1,,,,,,,,,,,,,,,AFSA05.jpg,AFSA09.jpg,AFNE15.jpg,AFNE19.jpg,AFSA05.jpg,FS,4,num_8,32,num_6,1.21682491992,,,2017_Mar_07_1039,60.0057738987,FEMA4ImagesEEG,001,100043,
AFNE01.JPG,AFNE01.JPG,AFNE01.JPG,AFNE01.JPG,AFNE01.JPG,AFNE01.JPG,,,,,,,,,0,8,8,4,,,,,,,,,,,,,,,AFSA08.jpg,AFNE08.jpg,AFSA16.jpg,AFNE04.jpg,AFNE04.jpg,FN,3,num_4,16,num_4,0.816758462228,,,2017_Mar_07_1039,60.0057738987,FEMA4ImagesEEG,001,100043,
AFNE01.JPG,AFNE01.JPG,AFNE01.JPG,AFNE01.JPG,AFNE01.JPG,AFNE01.JPG,,,,,,,,,0,9,9,5,,,,,,,,,,,,,,,AFSA02.jpg,AFSA04.jpg,AFNE18.jpg,AFNE13.jpg,AFSA02.jpg,FS,4,num_8,16,num_8,2.39969215402,,,2017_Mar_07_1039,60.0057738987,FEMA4ImagesEEG,001,100043,
AFNE01.JPG,AFNE01.JPG,AFNE01.JPG,AFNE01.JPG,AFNE01.JPG,AFNE01.JPG,,,,,,,,,1,0,10,6,,,,,,,,,,,,,,,AFNE06.jpg,AFNE14.jpg,AFSA02.jpg,AFSA17.jpg,AFSA02.jpg,FS,4,num_2,32,num_4,1.56674402906,,,2017_Mar_07_1039,60.0057738987,FEMA4ImagesEEG,001,100043,
AFNE01.JPG,AFNE01.JPG,AFNE01.JPG,AFNE01.JPG,AFNE01.JPG,AFNE01.JPG,,,,,,,,,1,1,11,8,,,,,,,,,,,,,,,AFSA05.jpg,AFNE17.jpg,AFNE12.jpg,AFSA13.jpg,AFNE12.jpg,FN,3,num_2,16,num_2,1.3001367636,,,2017_Mar_07_1039,60.0057738987,FEMA4ImagesEEG,001,100043,
AFNE01.JPG,AFNE01.JPG,AFNE01.JPG,AFNE01.JPG,AFNE01.JPG,AFNE01.JPG,,,,,,,,,1,2,12,5,,,,,,,,,,,,,,,AFSA15.jpg,AFNE01.jpg,AFNE13.jpg,AFSA08.jpg,AFNE01.jpg,FN,3,num_6,32,num_8,1.93332525063,,,2017_Mar_07_1039,60.0057738987,FEMA4ImagesEEG,001,100043,
AFNE01.JPG,AFNE01.JPG,AFNE01.JPG,AFNE01.JPG,AFNE01.JPG,AFNE01.JPG,,,,,,,,,1,3,13,1,,,,,,,,,,,,,,,AFNE12.jpg,AFSA01.jpg,AFNE20.jpg,AFSA02.jpg,AFSA01.jpg,FS,4,num_6,32,num_2,0.96679060068,,,2017_Mar_07_1039,60.0057738987,FEMA4ImagesEEG,001,100043,
AFNE01.JPG,AFNE01.JPG,AFNE01.JPG,AFNE01.JPG,AFNE01.JPG,AFNE01.JPG,,,,,,,,,1,4,14,3,,,,,,,,,,,,,,,AFNE01.jpg,AFSA04.jpg,AFNE06.jpg,AFSA18.jpg,AFNE06.jpg,FN,3,num_2,32,num_4,1.03345187847,,,2017_Mar_07_1039,60.0057738987,FEMA4ImagesEEG,001,100043,
AFNE01.JPG,AFNE01.JPG,AFNE01.JPG,AFNE01.JPG,AFNE01.JPG,AFNE01.JPG,,,,,,,,,1,5,15,2,,,,,,,,,,,,,,,AFNE04.jpg,AFSA19.jpg,AFSA01.jpg,AFNE20.jpg,AFNE04.jpg,FN,3,num_8,16,num_8,1.16669970332,,,2017_Mar_07_1039,60.0057738987,FEMA4ImagesEEG,001,100043,
AFNE01.JPG,AFNE01.JPG,AFNE01.JPG,AFNE01.JPG,AFNE01.JPG,AFNE01.JPG,,,,,,,,,1,6,16,7,,,,,,,,,,,,,,,AFNE05.jpg,AFSA10.jpg,AFSA14.jpg,AFNE15.jpg,AFNE05.jpg,FN,3,num_8,32,num_4,0.666742361151,,,2017_Mar_07_1039,60.0057738987,FEMA4ImagesEEG,001,100043,
AFNE01.JPG,AFNE01.JPG,AFNE01.JPG,AFNE01.JPG,AFNE01.JPG,AFNE01.JPG,,,,,,,,,1,7,17,9,,,,,,,,,,,,,,,AFNE13.jpg,AFSA15.jpg,AFNE04.jpg,AFSA10.jpg,AFNE13.jpg,FN,3,num_8,32,num_6,1.28346182173,,,2017_Mar_07_1039,60.0057738987,FEMA4ImagesEEG,001,100043,
AFNE01.JPG,AFNE01.JPG,AFNE01.JPG,AFNE01.JPG,AFNE01.JPG,AFNE01.JPG,,,,,,,,,1,8,18,4,,,,,,,,,,,,,,,AFSA03.jpg,AFNE01.jpg,AFNE08.jpg,AFSA08.jpg,AFSA08.jpg,FS,4,num_4,16,num_4,1.35023407592,,,2017_Mar_07_1039,60.0057738987,FEMA4ImagesEEG,001,100043,
AFNE01.JPG,AFNE01.JPG,AFNE01.JPG,AFNE01.JPG,AFNE01.JPG,AFNE01.JPG,,,,,,,,,1,9,19,0,,,,,,,,,,,,,,,AFNE02.jpg,AFSA03.jpg,AFNE12.jpg,AFSA05.jpg,AFNE02.jpg,FN,3,num_8,16,num_8,1.33343372494,,,2017_Mar_07_1039,60.0057738987,FEMA4ImagesEEG,001,100043,
AFNE01.JPG,AFNE01.JPG,AFNE01.JPG,AFNE01.JPG,AFNE01.JPG,AFNE01.JPG,,,,,,,,,2,0,20,0,,,,,,,,,,,,,,,AFNE12.jpg,AFNE02.jpg,AFSA12.jpg,AFSA18.jpg,AFNE02.jpg,FN,3,num_6,32,num_4,1.05009346362,,,2017_Mar_07_1039,60.0057738987,FEMA4ImagesEEG,001,100043,
AFNE01.JPG,AFNE01.JPG,AFNE01.JPG,AFNE01.JPG,AFNE01.JPG,AFNE01.JPG,,,,,,,,,2,1,21,1,,,,,,,,,,,,,,,AFSA16.jpg,AFNE17.jpg,AFNE10.jpg,AFSA07.jpg,AFNE17.jpg,FN,3,num_6,32,num_2,1.16691812687,,,2017_Mar_07_1039,60.0057738987,FEMA4ImagesEEG,001,100043,
AFNE01.JPG,AFNE01.JPG,AFNE01.JPG,AFNE01.JPG,AFNE01.JPG,AFNE01.JPG,,,,,,,,,2,2,22,9,,,,,,,,,,,,,,,AFNE14.jpg,AFSA11.jpg,AFNE11.jpg,AFSA05.jpg,AFSA11.jpg,FS,4,num_6,16,num_6,0.650185772683,,,2017_Mar_07_1039,60.0057738987,FEMA4ImagesEEG,001,100043,
AFNE01.JPG,AFNE01.JPG,AFNE01.JPG,AFNE01.JPG,AFNE01.JPG,AFNE01.JPG,,,,,,,,,2,3,23,8,,,,,,,,,,,,,,,AFNE20.jpg,AFSA14.jpg,AFNE18.jpg,AFSA16.jpg,AFNE18.jpg,FN,3,num_2,32,num_8,1.46672003809,,,2017_Mar_07_1039,60.0057738987,FEMA4ImagesEEG,001,100043,
AFNE01.JPG,AFNE01.JPG,AFNE01.JPG,AFNE01.JPG,AFNE01.JPG,AFNE01.JPG,,,,,,,,,2,4,24,4,,,,,,,,,,,,,,,AFNE11.jpg,AFSA03.jpg,AFSA19.jpg,AFNE17.jpg,AFSA03.jpg,FS,4,num_6,32,num_4,0.983468108345,,,2017_Mar_07_1039,60.0057738987,FEMA4ImagesEEG,001,100043,
AFNE01.JPG,AFNE01.JPG,AFNE01.JPG,AFNE01.JPG,AFNE01.JPG,AFNE01.JPG,,,,,,,,,2,5,25,3,,,,,,,,,,,,,,,AFSA07.jpg,AFNE04.jpg,AFSA14.jpg,AFNE03.jpg,AFSA07.jpg,FS,4,num_8,16,num_8,1.18343654741,,,2017_Mar_07_1039,60.0057738987,FEMA4ImagesEEG,001,100043,
AFNE01.JPG,AFNE01.JPG,AFNE01.JPG,AFNE01.JPG,AFNE01.JPG,AFNE01.JPG,,,,,,,,,2,6,26,2,,,,,,,,,,,,,,,AFSA06.jpg,AFSA18.jpg,AFNE01.jpg,AFNE19.jpg,AFSA06.jpg,FS,4,num_8,32,num_4,1.23336964101,,,2017_Mar_07_1039,60.0057738987,FEMA4ImagesEEG,001,100043,
AFNE01.JPG,AFNE01.JPG,AFNE01.JPG,AFNE01.JPG,AFNE01.JPG,AFNE01.JPG,,,,,,,,,2,7,27,6,,,,,,,,,,,,,,,AFSA20.jpg,AFNE05.jpg,AFSA12.jpg,AFNE07.jpg,AFNE05.jpg,FN,3,num_6,32,num_4,1.38355605537,,,2017_Mar_07_1039,60.0057738987,FEMA4ImagesEEG,001,100043,
AFNE01.JPG,AFNE01.JPG,AFNE01.JPG,AFNE01.JPG,AFNE01.JPG,AFNE01.JPG,,,,,,,,,2,8,28,5,,,,,,,,,,,,,,,AFSA20.jpg,AFNE09.jpg,AFNE04.jpg,AFSA12.jpg,AFNE09.jpg,FN,3,num_6,32,num_2,1.60008685617,,,2017_Mar_07_1039,60.0057738987,FEMA4ImagesEEG,001,100043,
AFNE01.JPG,AFNE01.JPG,AFNE01.JPG,AFNE01.JPG,AFNE01.JPG,AFNE01.JPG,,,,,,,,,2,9,29,7,,,,,,,,,,,,,,,AFSA05.jpg,AFNE16.jpg,AFNE15.jpg,AFSA16.jpg,AFSA05.jpg,FS,4,num_8,16,num_8,1.40013445448,,,2017_Mar_07_1039,60.0057738987,FEMA4ImagesEEG,001,100043,
AFNE01.JPG,AFNE01.JPG,AFNE01.JPG,AFNE01.JPG,AFNE01.JPG,AFNE01.JPG,,,,,,,,,3,0,30,8,,,,,,,,,,,,,,,AFNE10.jpg,AFNE09.jpg,AFSA12.jpg,AFSA02.jpg,AFNE09.jpg,FN,3,num_6,32,num_8,1.98349152226,,,2017_Mar_07_1039,60.0057738987,FEMA4ImagesEEG,001,100043,
AFNE01.JPG,AFNE01.JPG,AFNE01.JPG,AFNE01.JPG,AFNE01.JPG,AFNE01.JPG,,,,,,,,,3,1,31,5,,,,,,,,,,,,,,,AFNE13.jpg,AFSA06.jpg,AFSA14.jpg,AFNE11.jpg,AFNE13.jpg,FN,3,num_8,32,num_2,1.75004265876,,,2017_Mar_07_1039,60.0057738987,FEMA4ImagesEEG,001,100043,
AFNE01.JPG,AFNE01.JPG,AFNE01.JPG,AFNE01.JPG,AFNE01.JPG,AFNE01.JPG,,,,,,,,,3,2,32,2,,,,,,,,,,,,,,,AFNE18.jpg,AFNE01.jpg,AFSA08.jpg,AFSA04.jpg,AFNE18.jpg,FN,3,num_8,32,num_4,1.10008910112,,,2017_Mar_07_1039,60.0057738987,FEMA4ImagesEEG,001,100043,
AFNE01.JPG,AFNE01.JPG,AFNE01.JPG,AFNE01.JPG,AFNE01.JPG,AFNE01.JPG,,,,,,,,,3,3,33,9,,,,,,,,,,,,,,,AFNE02.jpg,AFSA01.jpg,AFSA16.jpg,AFNE03.jpg,AFNE02.jpg,FN,3,num_8,32,num_6,1.51659668144,,,2017_Mar_07_1039,60.0057738987,FEMA4ImagesEEG,001,100043,
AFNE01.JPG,AFNE01.JPG,AFNE01.JPG,AFNE01.JPG,AFNE01.JPG,AFNE01.JPG,,,,,,,,,3,4,34,4,,,,,,,,,,,,,,,AFNE18.jpg,AFSA16.jpg,AFSA06.jpg,AFNE11.jpg,AFSA16.jpg,FS,4,num_6,32,num_8,1.40009275777,,,2017_Mar_07_1039,60.0057738987,FEMA4ImagesEEG,001,100043,
AFNE01.JPG,AFNE01.JPG,AFNE01.JPG,AFNE01.JPG,AFNE01.JPG,AFNE01.JPG,,,,,,,,,3,5,35,7,,,,,,,,,,,,,,,AFSA14.jpg,AFSA06.jpg,AFNE01.jpg,AFNE05.jpg,AFSA14.jpg,FS,4,num_8,32,num_2,1.40005779732,,,2017_Mar_07_1039,60.0057738987,FEMA4ImagesEEG,001,100043,
AFNE01.JPG,AFNE01.JPG,AFNE01.JPG,AFNE01.JPG,AFNE01.JPG,AFNE01.JPG,,,,,,,,,3,6,36,0,,,,,,,,,,,,,,,AFNE08.jpg,AFNE12.jpg,AFSA10.jpg,AFSA08.jpg,AFNE12.jpg,FN,3,num_6,32,num_8,1.64990993636,,,2017_Mar_07_1039,60.0057738987,FEMA4ImagesEEG,001,100043,
AFNE01.JPG,AFNE01.JPG,AFNE01.JPG,AFNE01.JPG,AFNE01.JPG,AFNE01.JPG,,,,,,,,,3,7,37,1,,,,,,,,,,,,,,,AFSA07.jpg,AFSA09.jpg,AFNE12.jpg,AFNE04.jpg,AFSA07.jpg,FS,4,num_8,16,num_8,1.13341525011,,,2017_Mar_07_1039,60.0057738987,FEMA4ImagesEEG,001,100043,
AFNE01.JPG,AFNE01.JPG,AFNE01.JPG,AFNE01.JPG,AFNE01.JPG,AFNE01.JPG,,,,,,,,,3,8,38,3,,,,,,,,,,,,,,,AFSA09.jpg,AFNE19.jpg,AFSA05.jpg,AFNE06.jpg,AFNE06.jpg,FN,3,num_4,16,num_4,0.900110398885,,,2017_Mar_07_1039,60.0057738987,FEMA4ImagesEEG,001,100043,
AFNE01.JPG,AFNE01.JPG,AFNE01.JPG,AFNE01.JPG,AFNE01.JPG,AFNE01.JPG,,,,,,,,,3,9,39,6,,,,,,,,,,,,,,,AFNE01.jpg,AFSA08.jpg,AFSA04.jpg,AFNE20.jpg,AFSA04.jpg,FS,4,num_2,32,num_6,2.18324763142,,,2017_Mar_07_1039,60.0057738987,FEMA4ImagesEEG,001,100043,
AFNE01.JPG,AFNE01.JPG,AFNE01.JPG,AFNE01.JPG,AFNE01.JPG,AFNE01.JPG,,,,,,,,,4,0,40,9,,,,,,,,,,,,,,,AFNE17.jpg,AFSA05.jpg,AFSA07.jpg,AFNE02.jpg,AFSA07.jpg,FS,4,num_2,16,num_2,1.20006466098,,,2017_Mar_07_1039,60.0057738987,FEMA4ImagesEEG,001,100043,
AFNE01.JPG,AFNE01.JPG,AFNE01.JPG,AFNE01.JPG,AFNE01.JPG,AFNE01.JPG,,,,,,,,,4,1,41,5,,,,,,,,,,,,,,,AFSA10.jpg,AFNE03.jpg,AFNE05.jpg,AFSA19.jpg,AFSA10.jpg,FS,4,num_8,32,num_4,1.56659969594,,,2017_Mar_07_1039,60.0057738987,FEMA4ImagesEEG,001,100043,
AFNE01.JPG,AFNE01.JPG,AFNE01.JPG,AFNE01.JPG,AFNE01.JPG,AFNE01.JPG,,,,,,,,,4,2,42,4,,,,,,,,,,,,,,,AFSA18.jpg,AFNE10.jpg,AFNE08.jpg,AFSA03.jpg,AFSA18.jpg,FS,4,num_8,16,num_8,1.90033299197,,,2017_Mar_07_1039,60.0057738987,FEMA4ImagesEEG,001,100043,
AFNE01.JPG,AFNE01.JPG,AFNE01.JPG,AFNE01.JPG,AFNE01.JPG,AFNE01.JPG,,,,,,,,,4,3,43,6,,,,,,,,,,,,,,,AFNE07.jpg,AFNE15.jpg,AFSA17.jpg,AFSA04.jpg,AFSA04.jpg,FS,4,num_4,16,num_4,0.550146064721,,,2017_Mar_07_1039,60.0057738987,FEMA4ImagesEEG,001,100043,
AFNE01.JPG,AFNE01.JPG,AFNE01.JPG,AFNE01.JPG,AFNE01.JPG,AFNE01.JPG,,,,,,,,,4,4,44,3,,,,,,,,,,,,,,,AFSA09.jpg,AFNE13.jpg,AFNE08.jpg,AFSA02.jpg,AFSA02.jpg,FS,4,num_4,32,num_6,1.20010892348,,,2017_Mar_07_1039,60.0057738987,FEMA4ImagesEEG,001,100043,
AFNE01.JPG,AFNE01.JPG,AFNE01.JPG,AFNE01.JPG,AFNE01.JPG,AFNE01.JPG,,,,,,,,,4,5,45,7,,,,,,,,,,,,,,,AFSA12.jpg,AFNE09.jpg,AFNE15.jpg,AFSA13.jpg,AFSA13.jpg,FS,4,num_4,32,num_8,1.41669072211,,,2017_Mar_07_1039,60.0057738987,FEMA4ImagesEEG,001,100043,
AFNE01.JPG,AFNE01.JPG,AFNE01.JPG,AFNE01.JPG,AFNE01.JPG,AFNE01.JPG,,,,,,,,,4,6,46,1,,,,,,,,,,,,,,,AFNE07.jpg,AFSA12.jpg,AFNE18.jpg,AFSA15.jpg,AFSA15.jpg,FS,4,num_4,16,num_4,0.900184489787,,,2017_Mar_07_1039,60.0057738987,FEMA4ImagesEEG,001,100043,
AFNE01.JPG,AFNE01.JPG,AFNE01.JPG,AFNE01.JPG,AFNE01.JPG,AFNE01.JPG,,,,,,,,,4,7,47,0,,,,,,,,,,,,,,,AFSA14.jpg,AFNE01.jpg,AFSA09.jpg,AFNE13.jpg,AFSA09.jpg,FS,4,num_2,16,num_2,0.766767315101,,,2017_Mar_07_1039,60.0057738987,FEMA4ImagesEEG,001,100043,
AFNE01.JPG,AFNE01.JPG,AFNE01.JPG,AFNE01.JPG,AFNE01.JPG,AFNE01.JPG,,,,,,,,,4,8,48,8,,,,,,,,,,,,,,,AFNE12.jpg,AFSA03.jpg,AFNE19.jpg,AFSA15.jpg,AFNE12.jpg,FN,3,num_8,16,num_8,0.866752817295,,,2017_Mar_07_1039,60.0057738987,FEMA4ImagesEEG,001,100043,
AFNE01.JPG,AFNE01.JPG,AFNE01.JPG,AFNE01.JPG,AFNE01.JPG,AFNE01.JPG,,,,,,,,,4,9,49,2,,,,,,,,,,,,,,,AFNE10.jpg,AFNE17.jpg,AFSA15.jpg,AFSA14.jpg,AFSA14.jpg,FS,4,num_4,16,num_4,0.783304979559,,,2017_Mar_07_1039,60.0057738987,FEMA4ImagesEEG,001,100043,
AFNE01.JPG,AFNE01.JPG,AFNE01.JPG,AFNE01.JPG,AFNE01.JPG,AFNE01.JPG,,,,,,,,,5,0,50,6,,,,,,,,,,,,,,,AFNE12.jpg,AFSA17.jpg,AFNE07.jpg,AFSA16.jpg,AFNE12.jpg,FN,3,num_8,32,num_6,1.01679040818,,,2017_Mar_07_1039,60.0057738987,FEMA4ImagesEEG,001,100043,
AFNE01.JPG,AFNE01.JPG,AFNE01.JPG,AFNE01.JPG,AFNE01.JPG,AFNE01.JPG,,,,,,,,,5,1,51,0,,,,,,,,,,,,,,,AFNE15.jpg,AFNE19.jpg,AFSA09.jpg,AFSA02.jpg,AFSA02.jpg,FS,4,num_4,32,num_8,0.700138110667,,,2017_Mar_07_1039,60.0057738987,FEMA4ImagesEEG,001,100043,
AFNE01.JPG,AFNE01.JPG,AFNE01.JPG,AFNE01.JPG,AFNE01.JPG,AFNE01.JPG,,,,,,,,,5,2,52,7,,,,,,,,,,,,,,,AFNE20.jpg,AFNE17.jpg,AFSA19.jpg,AFSA16.jpg,AFSA16.jpg,FS,4,num_4,32,num_2,1.08342121588,,,2017_Mar_07_1039,60.0057738987,FEMA4ImagesEEG,001,100043,
AFNE01.JPG,AFNE01.JPG,AFNE01.JPG,AFNE01.JPG,AFNE01.JPG,AFNE01.JPG,,,,,,,,,5,3,53,4,,,,,,,,,,,,,,,AFSA06.jpg,AFNE05.jpg,AFNE20.jpg,AFSA07.jpg,AFNE05.jpg,FN,3,num_6,32,num_4,0.916859110352,,,2017_Mar_07_1039,60.0057738987,FEMA4ImagesEEG,001,100043,
AFNE01.JPG,AFNE01.JPG,AFNE01.JPG,AFNE01.JPG,AFNE01.JPG,AFNE01.JPG,,,,,,,,,5,4,54,2,,,,,,,,,,,,,,,AFNE03.jpg,AFSA16.jpg,AFNE07.jpg,AFSA04.jpg,AFNE07.jpg,FN,3,num_2,32,num_8,1.28340376774,,,2017_Mar_07_1039,60.0057738987,FEMA4ImagesEEG,001,100043,
AFNE01.JPG,AFNE01.JPG,AFNE01.JPG,AFNE01.JPG,AFNE01.JPG,AFNE01.JPG,,,,,,,,,5,5,55,9,,,,,,,,,,,,,,,AFNE08.jpg,AFSA16.jpg,AFSA02.jpg,AFNE13.jpg,AFSA02.jpg,FS,4,num_2,32,num_6,1.1667388333,,,2017_Mar_07_1039,60.0057738987,FEMA4ImagesEEG,001,100043,
AFNE01.JPG,AFNE01.JPG,AFNE01.JPG,AFNE01.JPG,AFNE01.JPG,AFNE01.JPG,,,,,,,,,5,6,56,1,,,,,,,,,,,,,,,AFNE10.jpg,AFSA16.jpg,AFSA08.jpg,AFNE06.jpg,AFSA16.jpg,FS,4,num_6,32,num_2,2.60001597274,,,2017_Mar_07_1039,60.0057738987,FEMA4ImagesEEG,001,100043,
AFNE01.JPG,AFNE01.JPG,AFNE01.JPG,AFNE01.JPG,AFNE01.JPG,AFNE01.JPG,,,,,,,,,5,7,57,3,,,,,,,,,,,,,,,AFNE11.jpg,AFSA14.jpg,AFSA17.jpg,AFNE13.jpg,AFSA14.jpg,FS,4,num_6,32,num_8,1.55017332779,,,2017_Mar_07_1039,60.0057738987,FEMA4ImagesEEG,001,100043,
AFNE01.JPG,AFNE01.JPG,AFNE01.JPG,AFNE01.JPG,AFNE01.JPG,AFNE01.JPG,,,,,,,,,5,8,58,8,,,,,,,,,,,,,,,AFSA01.jpg,AFNE12.jpg,AFSA11.jpg,AFNE08.jpg,AFSA11.jpg,FS,4,num_2,16,num_2,1.65002893051,,,2017_Mar_07_1039,60.0057738987,FEMA4ImagesEEG,001,100043,
AFNE01.JPG,AFNE01.JPG,AFNE01.JPG,AFNE01.JPG,AFNE01.JPG,AFNE01.JPG,,,,,,,,,5,9,59,5,,,,,,,,,,,,,,,AFSA15.jpg,AFNE18.jpg,AFNE12.jpg,AFSA13.jpg,AFSA13.jpg,FS,4,num_4,32,num_8,1.08346002549,,,2017_Mar_07_1039,60.0057738987,FEMA4ImagesEEG,001,100043,
,,,,,,,,,,,,,,,,,,,,,,,,,,,,,,,,,,,,,,,,,,,space,16.0986557156,2017_Mar_07_1039,60.0057738987,FEMA4ImagesEEG,001,100043,
AFNE01.JPG,AFNE01.JPG,AFNE01.JPG,AFNE01.JPG,AFNE01.JPG,AFNE01.JPG,,,,,,,,,,,,,0,0,0,7,,,,,,,,,,,AMNE06.jpg,AMNE10.jpg,AMSA12.jpg,AMSA09.jpg,AMNE06.jpg,MN,1,num_8,16,num_8,1.25011771172,,,2017_Mar_07_1039,60.0057738987,FEMA4ImagesEEG,001,100043,
AFNE01.JPG,AFNE01.JPG,AFNE01.JPG,AFNE01.JPG,AFNE01.JPG,AFNE01.JPG,,,,,,,,,,,,,0,1,1,9,,,,,,,,,,,AMNE05.jpg,AMSA14.jpg,AMNE02.jpg,AMSA01.jpg,AMSA14.jpg,MS,2,num_6,16,num_6,1.13342230674,,,2017_Mar_07_1039,60.0057738987,FEMA4ImagesEEG,001,100043,
AFNE01.JPG,AFNE01.JPG,AFNE01.JPG,AFNE01.JPG,AFNE01.JPG,AFNE01.JPG,,,,,,,,,,,,,0,2,2,2,,,,,,,,,,,AMSA20.jpg,AMNE08.jpg,AMSA10.jpg,AMNE14.jpg,AMNE08.jpg,MN,1,num_6,32,num_4,0.900097889826,,,2017_Mar_07_1039,60.0057738987,FEMA4ImagesEEG,001,100043,
AFNE01.JPG,AFNE01.JPG,AFNE01.JPG,AFNE01.JPG,AFNE01.JPG,AFNE01.JPG,,,,,,,,,,,,,0,3,3,3,,,,,,,,,,,AMSA20.jpg,AMNE08.jpg,AMSA01.jpg,AMNE09.jpg,AMNE09.jpg,MN,1,num_4,32,num_6,1.01680259639,,,2017_Mar_07_1039,60.0057738987,FEMA4ImagesEEG,001,100043,
AFNE01.JPG,AFNE01.JPG,AFNE01.JPG,AFNE01.JPG,AFNE01.JPG,AFNE01.JPG,,,,,,,,,,,,,0,4,4,8,,,,,,,,,,,AMNE09.jpg,AMSA05.jpg,AMNE01.jpg,AMSA01.jpg,AMSA05.jpg,MS,2,num_6,32,num_2,1.366710159,,,2017_Mar_07_1039,60.0057738987,FEMA4ImagesEEG,001,100043,
AFNE01.JPG,AFNE01.JPG,AFNE01.JPG,AFNE01.JPG,AFNE01.JPG,AFNE01.JPG,,,,,,,,,,,,,0,5,5,4,,,,,,,,,,,AMSA03.jpg,AMNE16.jpg,AMNE08.jpg,AMSA07.jpg,AMNE16.jpg,MN,1,num_6,32,num_4,0.700135224033,,,2017_Mar_07_1039,60.0057738987,FEMA4ImagesEEG,001,100043,
AFNE01.JPG,AFNE01.JPG,AFNE01.JPG,AFNE01.JPG,AFNE01.JPG,AFNE01.JPG,,,,,,,,,,,,,0,6,6,0,,,,,,,,,,,AMNE07.jpg,AMNE20.jpg,AMSA18.jpg,AMSA11.jpg,AMSA18.jpg,MS,2,num_2,32,num_6,0.783441936132,,,2017_Mar_07_1039,60.0057738987,FEMA4ImagesEEG,001,100043,
AFNE01.JPG,AFNE01.JPG,AFNE01.JPG,AFNE01.JPG,AFNE01.JPG,AFNE01.JPG,,,,,,,,,,,,,0,7,7,6,,,,,,,,,,,AMSA07.jpg,AMSA01.jpg,AMNE10.jpg,AMNE05.jpg,AMSA07.jpg,MS,2,num_8,32,num_2,1.11674479907,,,2017_Mar_07_1039,60.0057738987,FEMA4ImagesEEG,001,100043,
AFNE01.JPG,AFNE01.JPG,AFNE01.JPG,AFNE01.JPG,AFNE01.JPG,AFNE01.JPG,,,,,,,,,,,,,0,8,8,5,,,,,,,,,,,AMNE04.jpg,AMNE15.jpg,AMSA20.jpg,AMSA01.jpg,AMNE04.jpg,MN,1,num_8,32,num_4,0.933470545802,,,2017_Mar_07_1039,60.0057738987,FEMA4ImagesEEG,001,100043,
AFNE01.JPG,AFNE01.JPG,AFNE01.JPG,AFNE01.JPG,AFNE01.JPG,AFNE01.JPG,,,,,,,,,,,,,0,9,9,1,,,,,,,,,,,AMNE09.jpg,AMSA02.jpg,AMNE13.jpg,AMSA06.jpg,AMNE09.jpg,MN,1,num_8,16,num_8,1.23344982602,,,2017_Mar_07_1039,60.0057738987,FEMA4ImagesEEG,001,100043,
AFNE01.JPG,AFNE01.JPG,AFNE01.JPG,AFNE01.JPG,AFNE01.JPG,AFNE01.JPG,,,,,,,,,,,,,1,0,10,0,,,,,,,,,,,AMSA16.jpg,AMSA07.jpg,AMNE03.jpg,AMNE15.jpg,AMSA07.jpg,MS,2,num_6,32,num_4,1.76673844829,,,2017_Mar_07_1039,60.0057738987,FEMA4ImagesEEG,001,100043,
AFNE01.JPG,AFNE01.JPG,AFNE01.JPG,AFNE01.JPG,AFNE01.JPG,AFNE01.JPG,,,,,,,,,,,,,1,1,11,4,,,,,,,,,,,AMSA01.jpg,AMNE02.jpg,AMNE16.jpg,AMSA07.jpg,AMNE16.jpg,MN,1,num_2,32,num_4,1.78367350996,,,2017_Mar_07_1039,60.0057738987,FEMA4ImagesEEG,001,100043,
AFNE01.JPG,AFNE01.JPG,AFNE01.JPG,AFNE01.JPG,AFNE01.JPG,AFNE01.JPG,,,,,,,,,,,,,1,2,12,7,,,,,,,,,,,AMSA20.jpg,AMSA01.jpg,AMNE12.jpg,AMNE11.jpg,AMSA20.jpg,MS,2,num_8,32,num_6,1.61669989489,,,2017_Mar_07_1039,60.0057738987,FEMA4ImagesEEG,001,100043,
AFNE01.JPG,AFNE01.JPG,AFNE01.JPG,AFNE01.JPG,AFNE01.JPG,AFNE01.JPG,,,,,,,,,,,,,1,3,13,5,,,,,,,,,,,AMNE13.jpg,AMNE20.jpg,AMSA12.jpg,AMSA16.jpg,AMSA12.jpg,MS,2,num_2,32,num_8,1.63344251318,,,2017_Mar_07_1039,60.0057738987,FEMA4ImagesEEG,001,100043,
AFNE01.JPG,AFNE01.JPG,AFNE01.JPG,AFNE01.JPG,AFNE01.JPG,AFNE01.JPG,,,,,,,,,,,,,1,4,14,3,,,,,,,,,,,AMSA09.jpg,AMNE20.jpg,AMSA11.jpg,AMNE17.jpg,AMSA09.jpg,MS,2,num_8,32,num_4,1.48341678968,,,2017_Mar_07_1039,60.0057738987,FEMA4ImagesEEG,001,100043,
AFNE01.JPG,AFNE01.JPG,AFNE01.JPG,AFNE01.JPG,AFNE01.JPG,AFNE01.JPG,,,,,,,,,,,,,1,5,15,8,,,,,,,,,,,AMSA01.jpg,AMNE07.jpg,AMSA11.jpg,AMNE04.jpg,AMSA11.jpg,MS,2,num_2,32,num_8,1.95000596577,,,2017_Mar_07_1039,60.0057738987,FEMA4ImagesEEG,001,100043,
AFNE01.JPG,AFNE01.JPG,AFNE01.JPG,AFNE01.JPG,AFNE01.JPG,AFNE01.JPG,,,,,,,,,,,,,1,6,16,1,,,,,,,,,,,AMNE06.jpg,AMSA15.jpg,AMSA17.jpg,AMNE05.jpg,AMSA17.jpg,MS,2,num_2,32,num_4,1.18336117361,,,2017_Mar_07_1039,60.0057738987,FEMA4ImagesEEG,001,100043,
AFNE01.JPG,AFNE01.JPG,AFNE01.JPG,AFNE01.JPG,AFNE01.JPG,AFNE01.JPG,,,,,,,,,,,,,1,7,17,6,,,,,,,,,,,AMSA08.jpg,AMNE09.jpg,AMNE10.jpg,AMSA17.jpg,AMSA08.jpg,MS,2,num_8,32,num_4,1.13349383138,,,2017_Mar_07_1039,60.0057738987,FEMA4ImagesEEG,001,100043,
AFNE01.JPG,AFNE01.JPG,AFNE01.JPG,AFNE01.JPG,AFNE01.JPG,AFNE01.JPG,,,,,,,,,,,,,1,8,18,9,,,,,,,,,,,AMSA10.jpg,AMSA15.jpg,AMNE09.jpg,AMNE18.jpg,AMNE09.jpg,MN,1,num_2,32,num_8,1.63307558652,,,2017_Mar_07_1039,60.0057738987,FEMA4ImagesEEG,001,100043,
AFNE01.JPG,AFNE01.JPG,AFNE01.JPG,AFNE01.JPG,AFNE01.JPG,AFNE01.JPG,,,,,,,,,,,,,1,9,19,2,,,,,,,,,,,AMNE13.jpg,AMNE17.jpg,AMSA01.jpg,AMSA06.jpg,AMSA06.jpg,MS,2,num_4,16,num_4,1.05012457538,,,2017_Mar_07_1039,60.0057738987,FEMA4ImagesEEG,001,100043,
AFNE01.JPG,AFNE01.JPG,AFNE01.JPG,AFNE01.JPG,AFNE01.JPG,AFNE01.JPG,,,,,,,,,,,,,2,0,20,2,,,,,,,,,,,AMNE07.jpg,AMSA09.jpg,AMNE20.jpg,AMSA06.jpg,AMNE07.jpg,MN,1,num_8,32,num_4,1.08342891419,,,2017_Mar_07_1039,60.0057738987,FEMA4ImagesEEG,001,100043,
AFNE01.JPG,AFNE01.JPG,AFNE01.JPG,AFNE01.JPG,AFNE01.JPG,AFNE01.JPG,,,,,,,,,,,,,2,1,21,0,,,,,,,,,,,AMNE18.jpg,AMSA20.jpg,AMNE03.jpg,AMSA08.jpg,AMNE18.jpg,MN,1,num_8,32,num_6,0.750125729945,,,2017_Mar_07_1039,60.0057738987,FEMA4ImagesEEG,001,100043,
AFNE01.JPG,AFNE01.JPG,AFNE01.JPG,AFNE01.JPG,AFNE01.JPG,AFNE01.JPG,,,,,,,,,,,,,2,2,22,8,,,,,,,,,,,AMSA02.jpg,AMNE10.jpg,AMSA06.jpg,AMNE04.jpg,AMSA02.jpg,MS,2,num_8,16,num_8,1.33347060997,,,2017_Mar_07_1039,60.0057738987,FEMA4ImagesEEG,001,100043,
AFNE01.JPG,AFNE01.JPG,AFNE01.JPG,AFNE01.JPG,AFNE01.JPG,AFNE01.JPG,,,,,,,,,,,,,2,3,23,6,,,,,,,,,,,AMSA17.jpg,AMNE11.jpg,AMSA04.jpg,AMNE12.jpg,AMNE11.jpg,MN,1,num_6,32,num_2,1.61672106432,,,2017_Mar_07_1039,60.0057738987,FEMA4ImagesEEG,001,100043,
AFNE01.JPG,AFNE01.JPG,AFNE01.JPG,AFNE01.JPG,AFNE01.JPG,AFNE01.JPG,,,,,,,,,,,,,2,4,24,4,,,,,,,,,,,AMNE18.jpg,AMNE04.jpg,AMSA02.jpg,AMSA18.jpg,AMSA18.jpg,MS,2,num_4,32,num_8,1.61684486968,,,2017_Mar_07_1039,60.0057738987,FEMA4ImagesEEG,001,100043,
AFNE01.JPG,AFNE01.JPG,AFNE01.JPG,AFNE01.JPG,AFNE01.JPG,AFNE01.JPG,,,,,,,,,,,,,2,5,25,7,,,,,,,,,,,AMNE19.jpg,AMSA20.jpg,AMNE02.jpg,AMSA08.jpg,AMNE19.jpg,MN,1,num_8,32,num_6,1.48343443032,,,2017_Mar_07_1039,60.0057738987,FEMA4ImagesEEG,001,100043,
AFNE01.JPG,AFNE01.JPG,AFNE01.JPG,AFNE01.JPG,AFNE01.JPG,AFNE01.JPG,,,,,,,,,,,,,2,6,26,1,,,,,,,,,,,AMNE05.jpg,AMNE12.jpg,AMSA13.jpg,AMSA16.jpg,AMSA13.jpg,MS,2,num_2,32,num_4,1.05010468932,,,2017_Mar_07_1039,60.0057738987,FEMA4ImagesEEG,001,100043,
AFNE01.JPG,AFNE01.JPG,AFNE01.JPG,AFNE01.JPG,AFNE01.JPG,AFNE01.JPG,,,,,,,,,,,,,2,7,27,3,,,,,,,,,,,AMSA16.jpg,AMNE17.jpg,AMNE07.jpg,AMSA04.jpg,AMSA16.jpg,MS,2,num_8,16,num_8,1.35008717701,,,2017_Mar_07_1039,60.0057738987,FEMA4ImagesEEG,001,100043,
AFNE01.JPG,AFNE01.JPG,AFNE01.JPG,AFNE01.JPG,AFNE01.JPG,AFNE01.JPG,,,,,,,,,,,,,2,8,28,5,,,,,,,,,,,AMNE05.jpg,AMSA09.jpg,AMSA04.jpg,AMNE18.jpg,AMNE18.jpg,MN,1,num_4,32,num_2,1.60002912302,,,2017_Mar_07_1039,60.0057738987,FEMA4ImagesEEG,001,100043,
AFNE01.JPG,AFNE01.JPG,AFNE01.JPG,AFNE01.JPG,AFNE01.JPG,AFNE01.JPG,,,,,,,,,,,,,2,9,29,9,,,,,,,,,,,AMNE12.jpg,AMSA13.jpg,AMNE07.jpg,AMSA14.jpg,AMNE07.jpg,MN,1,num_2,16,num_2,1.13358460087,,,2017_Mar_07_1039,60.0057738987,FEMA4ImagesEEG,001,100043,
AFNE01.JPG,AFNE01.JPG,AFNE01.JPG,AFNE01.JPG,AFNE01.JPG,AFNE01.JPG,,,,,,,,,,,,,3,0,30,6,,,,,,,,,,,AMSA12.jpg,AMSA01.jpg,AMNE20.jpg,AMNE15.jpg,AMSA12.jpg,MS,2,num_8,16,num_8,2.18341890676,,,2017_Mar_07_1039,60.0057738987,FEMA4ImagesEEG,001,100043,
AFNE01.JPG,AFNE01.JPG,AFNE01.JPG,AFNE01.JPG,AFNE01.JPG,AFNE01.JPG,,,,,,,,,,,,,3,1,31,5,,,,,,,,,,,AMSA17.jpg,AMNE11.jpg,AMSA19.jpg,AMNE14.jpg,AMSA19.jpg,MS,2,num_2,16,num_2,1.33339427412,,,2017_Mar_07_1039,60.0057738987,FEMA4ImagesEEG,001,100043,
AFNE01.JPG,AFNE01.JPG,AFNE01.JPG,AFNE01.JPG,AFNE01.JPG,AFNE01.JPG,,,,,,,,,,,,,3,2,32,9,,,,,,,,,,,AMSA16.jpg,AMNE08.jpg,AMSA14.jpg,AMNE01.jpg,AMSA16.jpg,MS,2,num_8,32,num_4,1.11680606008,,,2017_Mar_07_1039,60.0057738987,FEMA4ImagesEEG,001,100043,
AFNE01.JPG,AFNE01.JPG,AFNE01.JPG,AFNE01.JPG,AFNE01.JPG,AFNE01.JPG,,,,,,,,,,,,,3,3,33,7,,,,,,,,,,,AMNE15.jpg,AMNE06.jpg,AMSA09.jpg,AMSA17.jpg,AMSA17.jpg,MS,2,num_4,32,num_8,1.81667859852,,,2017_Mar_07_1039,60.0057738987,FEMA4ImagesEEG,001,100043,
AFNE01.JPG,AFNE01.JPG,AFNE01.JPG,AFNE01.JPG,AFNE01.JPG,AFNE01.JPG,,,,,,,,,,,,,3,4,34,2,,,,,,,,,,,AMSA20.jpg,AMSA08.jpg,AMNE01.jpg,AMNE04.jpg,AMNE01.jpg,MN,1,num_2,32,num_6,1.15009628609,,,2017_Mar_07_1039,60.0057738987,FEMA4ImagesEEG,001,100043,
AFNE01.JPG,AFNE01.JPG,AFNE01.JPG,AFNE01.JPG,AFNE01.JPG,AFNE01.JPG,,,,,,,,,,,,,3,5,35,1,,,,,,,,,,,AMNE05.jpg,AMSA12.jpg,AMSA10.jpg,AMNE12.jpg,AMNE05.jpg,MN,1,num_8,32,num_2,1.9166859109,,,2017_Mar_07_1039,60.0057738987,FEMA4ImagesEEG,001,100043,
AFNE01.JPG,AFNE01.JPG,AFNE01.JPG,AFNE01.JPG,AFNE01.JPG,AFNE01.JPG,,,,,,,,,,,,,3,6,36,4,,,,,,,,,,,AMNE02.jpg,AMNE18.jpg,AMSA12.jpg,AMSA03.jpg,AMNE18.jpg,MN,1,num_6,16,num_6,1.15008377703,,,2017_Mar_07_1039,60.0057738987,FEMA4ImagesEEG,001,100043,
AFNE01.JPG,AFNE01.JPG,AFNE01.JPG,AFNE01.JPG,AFNE01.JPG,AFNE01.JPG,,,,,,,,,,,,,3,7,37,3,,,,,,,,,,,AMNE18.jpg,AMSA02.jpg,AMSA04.jpg,AMNE08.jpg,AMSA02.jpg,MS,2,num_6,16,num_6,1.08341576345,,,2017_Mar_07_1039,60.0057738987,FEMA4ImagesEEG,001,100043,
AFNE01.JPG,AFNE01.JPG,AFNE01.JPG,AFNE01.JPG,AFNE01.JPG,AFNE01.JPG,,,,,,,,,,,,,3,8,38,0,,,,,,,,,,,AMSA13.jpg,AMNE16.jpg,AMNE07.jpg,AMSA17.jpg,AMSA13.jpg,MS,2,num_8,16,num_8,3.18330183672,,,2017_Mar_07_1039,60.0057738987,FEMA4ImagesEEG,001,100043,
AFNE01.JPG,AFNE01.JPG,AFNE01.JPG,AFNE01.JPG,AFNE01.JPG,AFNE01.JPG,,,,,,,,,,,,,3,9,39,8,,,,,,,,,,,AMSA08.jpg,AMSA13.jpg,AMNE18.jpg,AMNE20.jpg,AMNE20.jpg,MN,1,num_4,32,num_2,1.31675750017,,,2017_Mar_07_1039,60.0057738987,FEMA4ImagesEEG,001,100043,
AFNE01.JPG,AFNE01.JPG,AFNE01.JPG,AFNE01.JPG,AFNE01.JPG,AFNE01.JPG,,,,,,,,,,,,,4,0,40,1,,,,,,,,,,,AMSA06.jpg,AMNE06.jpg,AMSA05.jpg,AMNE18.jpg,AMSA05.jpg,MS,2,num_2,32,num_8,1.10014555184,,,2017_Mar_07_1039,60.0057738987,FEMA4ImagesEEG,001,100043,
AFNE01.JPG,AFNE01.JPG,AFNE01.JPG,AFNE01.JPG,AFNE01.JPG,AFNE01.JPG,,,,,,,,,,,,,4,1,41,5,,,,,,,,,,,AMSA04.jpg,AMNE19.jpg,AMNE11.jpg,AMSA07.jpg,AMSA07.jpg,MS,2,num_4,16,num_4,0.783530459739,,,2017_Mar_07_1039,60.0057738987,FEMA4ImagesEEG,001,100043,
AFNE01.JPG,AFNE01.JPG,AFNE01.JPG,AFNE01.JPG,AFNE01.JPG,AFNE01.JPG,,,,,,,,,,,,,4,2,42,8,,,,,,,,,,,AMSA05.jpg,AMNE11.jpg,AMSA10.jpg,AMNE08.jpg,AMSA05.jpg,MS,2,num_8,32,num_6,0.966746979859,,,2017_Mar_07_1039,60.0057738987,FEMA4ImagesEEG,001,100043,
AFNE01.JPG,AFNE01.JPG,AFNE01.JPG,AFNE01.JPG,AFNE01.JPG,AFNE01.JPG,,,,,,,,,,,,,4,3,43,4,,,,,,,,,,,AMSA14.jpg,AMSA20.jpg,AMNE08.jpg,AMNE05.jpg,AMSA20.jpg,MS,2,num_6,32,num_8,1.2000797363,,,2017_Mar_07_1039,60.0057738987,FEMA4ImagesEEG,001,100043,
AFNE01.JPG,AFNE01.JPG,AFNE01.JPG,AFNE01.JPG,AFNE01.JPG,AFNE01.JPG,,,,,,,,,,,,,4,4,44,6,,,,,,,,,,,AMNE09.jpg,AMSA17.jpg,AMNE03.jpg,AMSA15.jpg,AMNE03.jpg,MN,1,num_2,16,num_2,0.950103150215,,,2017_Mar_07_1039,60.0057738987,FEMA4ImagesEEG,001,100043,
AFNE01.JPG,AFNE01.JPG,AFNE01.JPG,AFNE01.JPG,AFNE01.JPG,AFNE01.JPG,,,,,,,,,,,,,4,5,45,9,,,,,,,,,,,AMNE01.jpg,AMNE17.jpg,AMSA20.jpg,AMSA18.jpg,AMSA20.jpg,MS,2,num_2,32,num_8,0.950107961427,,,2017_Mar_07_1039,60.0057738987,FEMA4ImagesEEG,001,100043,
AFNE01.JPG,AFNE01.JPG,AFNE01.JPG,AFNE01.JPG,AFNE01.JPG,AFNE01.JPG,,,,,,,,,,,,,4,6,46,3,,,,,,,,,,,AMNE14.jpg,AMSA20.jpg,AMSA05.jpg,AMNE19.jpg,AMNE19.jpg,MN,1,num_4,16,num_4,0.716875276063,,,2017_Mar_07_1039,60.0057738987,FEMA4ImagesEEG,001,100043,
AFNE01.JPG,AFNE01.JPG,AFNE01.JPG,AFNE01.JPG,AFNE01.JPG,AFNE01.JPG,,,,,,,,,,,,,4,7,47,7,,,,,,,,,,,AMNE10.jpg,AMSA15.jpg,AMSA04.jpg,AMNE03.jpg,AMNE03.jpg,MN,1,num_4,32,num_8,1.68339934153,,,2017_Mar_07_1039,60.0057738987,FEMA4ImagesEEG,001,100043,
AFNE01.JPG,AFNE01.JPG,AFNE01.JPG,AFNE01.JPG,AFNE01.JPG,AFNE01.JPG,,,,,,,,,,,,,4,8,48,0,,,,,,,,,,,AMNE10.jpg,AMSA12.jpg,AMNE20.jpg,AMSA01.jpg,AMSA01.jpg,MS,2,num_4,32,num_2,1.08344398858,,,2017_Mar_07_1039,60.0057738987,FEMA4ImagesEEG,001,100043,
AFNE01.JPG,AFNE01.JPG,AFNE01.JPG,AFNE01.JPG,AFNE01.JPG,AFNE01.JPG,,,,,,,,,,,,,4,9,49,2,,,,,,,,,,,AMNE02.jpg,AMSA16.jpg,AMNE19.jpg,AMSA01.jpg,AMSA16.jpg,MS,2,num_6,32,num_8,1.1331329993,,,2017_Mar_07_1039,60.0057738987,FEMA4ImagesEEG,001,100043,
AFNE01.JPG,AFNE01.JPG,AFNE01.JPG,AFNE01.JPG,AFNE01.JPG,AFNE01.JPG,,,,,,,,,,,,,5,0,50,4,,,,,,,,,,,AMSA03.jpg,AMSA13.jpg,AMNE09.jpg,AMNE01.jpg,AMNE01.jpg,MN,1,num_4,16,num_4,0.966763657983,,,2017_Mar_07_1039,60.0057738987,FEMA4ImagesEEG,001,100043,
AFNE01.JPG,AFNE01.JPG,AFNE01.JPG,AFNE01.JPG,AFNE01.JPG,AFNE01.JPG,,,,,,,,,,,,,5,1,51,7,,,,,,,,,,,AMNE12.jpg,AMNE03.jpg,AMSA15.jpg,AMSA05.jpg,AMNE12.jpg,MN,1,num_8,16,num_8,1.11679675896,,,2017_Mar_07_1039,60.0057738987,FEMA4ImagesEEG,001,100043,
AFNE01.JPG,AFNE01.JPG,AFNE01.JPG,AFNE01.JPG,AFNE01.JPG,AFNE01.JPG,,,,,,,,,,,,,5,2,52,0,,,,,,,,,,,AMSA04.jpg,AMNE18.jpg,AMSA14.jpg,AMNE02.jpg,AMSA04.jpg,MS,2,num_8,32,num_4,1.11714540282,,,2017_Mar_07_1039,60.0057738987,FEMA4ImagesEEG,001,100043,
AFNE01.JPG,AFNE01.JPG,AFNE01.JPG,AFNE01.JPG,AFNE01.JPG,AFNE01.JPG,,,,,,,,,,,,,5,3,53,5,,,,,,,,,,,AMNE17.jpg,AMSA14.jpg,AMNE01.jpg,AMSA19.jpg,AMSA19.jpg,MS,2,num_4,32,num_2,1.73337830091,,,2017_Mar_07_1039,60.0057738987,FEMA4ImagesEEG,001,100043,
AFNE01.JPG,AFNE01.JPG,AFNE01.JPG,AFNE01.JPG,AFNE01.JPG,AFNE01.JPG,,,,,,,,,,,,,5,4,54,2,,,,,,,,,,,AMSA20.jpg,AMNE08.jpg,AMNE01.jpg,AMSA19.jpg,AMSA19.jpg,MS,2,num_4,32,num_8,1.05012617912,,,2017_Mar_07_1039,60.0057738987,FEMA4ImagesEEG,001,100043,
AFNE01.JPG,AFNE01.JPG,AFNE01.JPG,AFNE01.JPG,AFNE01.JPG,AFNE01.JPG,,,,,,,,,,,,,5,5,55,9,,,,,,,,,,,AMSA19.jpg,AMNE05.jpg,AMNE20.jpg,AMSA12.jpg,AMSA12.jpg,MS,2,num_4,32,num_2,1.51680099219,,,2017_Mar_07_1039,60.0057738987,FEMA4ImagesEEG,001,100043,
AFNE01.JPG,AFNE01.JPG,AFNE01.JPG,AFNE01.JPG,AFNE01.JPG,AFNE01.JPG,,,,,,,,,,,,,5,6,56,6,,,,,,,,,,,AMSA07.jpg,AMNE12.jpg,AMNE18.jpg,AMSA13.jpg,AMNE12.jpg,MN,1,num_6,32,num_8,1.33332884312,,,2017_Mar_07_1039,60.0057738987,FEMA4ImagesEEG,001,100043,
AFNE01.JPG,AFNE01.JPG,AFNE01.JPG,AFNE01.JPG,AFNE01.JPG,AFNE01.JPG,,,,,,,,,,,,,5,7,57,3,,,,,,,,,,,AMSA09.jpg,AMNE13.jpg,AMSA02.jpg,AMNE18.jpg,AMNE13.jpg,MN,1,num_6,32,num_4,0.650142151862,,,2017_Mar_07_1039,60.0057738987,FEMA4ImagesEEG,001,100043,
AFNE01.JPG,AFNE01.JPG,AFNE01.JPG,AFNE01.JPG,AFNE01.JPG,AFNE01.JPG,,,,,,,,,,,,,5,8,58,8,,,,,,,,,,,AMNE05.jpg,AMSA09.jpg,AMSA17.jpg,AMNE07.jpg,AMNE07.jpg,MN,1,num_4,32,num_8,1.25011129677,,,2017_Mar_07_1039,60.0057738987,FEMA4ImagesEEG,001,100043,
AFNE01.JPG,AFNE01.JPG,AFNE01.JPG,AFNE01.JPG,AFNE01.JPG,AFNE01.JPG,,,,,,,,,,,,,5,9,59,1,,,,,,,,,,,AMSA12.jpg,AMNE11.jpg,AMNE05.jpg,AMSA04.jpg,AMSA12.jpg,MS,2,num_8,32,num_4,0.766411614604,,,2017_Mar_07_1039,60.0057738987,FEMA4ImagesEEG,001,100043,
,,,,,,,,,,,,,,,,,,,,,,,,,,,,,,,,,,,,,,,,,,,space,18.8987001055,2017_Mar_07_1039,60.0057738987,FEMA4ImagesEEG,001,100043,
AFNE01.JPG,AFNE01.JPG,AFNE01.JPG,AFNE01.JPG,AFNE01.JPG,AFNE01.JPG,,,,,,,,,,,,,,,,,0,0,0,5,,,,,,,AFNE02.jpg,AFSA16.jpg,AFSA09.jpg,AFNE01.jpg,AFNE01.jpg,FN,3,num_4,16,num_4,1.51670926064,,,2017_Mar_07_1039,60.0057738987,FEMA4ImagesEEG,001,100043,
AFNE01.JPG,AFNE01.JPG,AFNE01.JPG,AFNE01.JPG,AFNE01.JPG,AFNE01.JPG,,,,,,,,,,,,,,,,,0,1,1,4,,,,,,,AFSA20.jpg,AFNE10.jpg,AFSA12.jpg,AFNE03.jpg,AFNE03.jpg,FN,3,num_4,16,num_4,0.666777321603,,,2017_Mar_07_1039,60.0057738987,FEMA4ImagesEEG,001,100043,
AFNE01.JPG,AFNE01.JPG,AFNE01.JPG,AFNE01.JPG,AFNE01.JPG,AFNE01.JPG,,,,,,,,,,,,,,,,,0,2,2,2,,,,,,,AFSA04.jpg,AFNE04.jpg,AFSA06.jpg,AFNE01.jpg,AFNE01.jpg,FN,3,num_4,32,num_2,1.0667530098,,,2017_Mar_07_1039,60.0057738987,FEMA4ImagesEEG,001,100043,
AFNE01.JPG,AFNE01.JPG,AFNE01.JPG,AFNE01.JPG,AFNE01.JPG,AFNE01.JPG,,,,,,,,,,,,,,,,,0,3,3,1,,,,,,,AFSA04.jpg,AFNE16.jpg,AFSA12.jpg,AFNE04.jpg,AFSA04.jpg,FS,4,num_8,16,num_8,1.55006940803,,,2017_Mar_07_1039,60.0057738987,FEMA4ImagesEEG,001,100043,
AFNE01.JPG,AFNE01.JPG,AFNE01.JPG,AFNE01.JPG,AFNE01.JPG,AFNE01.JPG,,,,,,,,,,,,,,,,,0,4,4,7,,,,,,,AFSA01.jpg,AFNE17.jpg,AFNE02.jpg,AFSA07.jpg,AFSA01.jpg,FS,4,num_8,16,num_8,2.10000859573,,,2017_Mar_07_1039,60.0057738987,FEMA4ImagesEEG,001,100043,
AFNE01.JPG,AFNE01.JPG,AFNE01.JPG,AFNE01.JPG,AFNE01.JPG,AFNE01.JPG,,,,,,,,,,,,,,,,,0,5,5,8,,,,,,,AFSA01.jpg,AFSA15.jpg,AFNE01.jpg,AFNE19.jpg,AFNE19.jpg,FN,3,num_4,32,num_2,1.35011187429,,,2017_Mar_07_1039,60.0057738987,FEMA4ImagesEEG,001,100043,
AFNE01.JPG,AFNE01.JPG,AFNE01.JPG,AFNE01.JPG,AFNE01.JPG,AFNE01.JPG,,,,,,,,,,,,,,,,,0,6,6,9,,,,,,,AFNE16.jpg,AFSA08.jpg,AFSA17.jpg,AFNE17.jpg,AFSA17.jpg,FS,4,num_2,32,num_4,0.533475292847,,,2017_Mar_07_1039,60.0057738987,FEMA4ImagesEEG,001,100043,
AFNE01.JPG,AFNE01.JPG,AFNE01.JPG,AFNE01.JPG,AFNE01.JPG,AFNE01.JPG,,,,,,,,,,,,,,,,,0,7,7,0,,,,,,,AFNE16.jpg,AFSA05.jpg,AFNE20.jpg,AFSA17.jpg,AFNE16.jpg,FN,3,num_8,32,num_4,0.883483888581,,,2017_Mar_07_1039,60.0057738987,FEMA4ImagesEEG,001,100043,
AFNE01.JPG,AFNE01.JPG,AFNE01.JPG,AFNE01.JPG,AFNE01.JPG,AFNE01.JPG,,,,,,,,,,,,,,,,,0,8,8,6,,,,,,,AFSA19.jpg,AFSA08.jpg,AFNE18.jpg,AFNE06.jpg,AFNE06.jpg,FN,3,num_4,16,num_4,2.20004669949,,,2017_Mar_07_1039,60.0057738987,FEMA4ImagesEEG,001,100043,
AFNE01.JPG,AFNE01.JPG,AFNE01.JPG,AFNE01.JPG,AFNE01.JPG,AFNE01.JPG,,,,,,,,,,,,,,,,,0,9,9,3,,,,,,,AFSA19.jpg,AFNE09.jpg,AFSA05.jpg,AFNE16.jpg,AFSA05.jpg,FS,4,num_2,32,num_8,1.10033831652,,,2017_Mar_07_1039,60.0057738987,FEMA4ImagesEEG,001,100043,
AFNE01.JPG,AFNE01.JPG,AFNE01.JPG,AFNE01.JPG,AFNE01.JPG,AFNE01.JPG,,,,,,,,,,,,,,,,,1,0,10,0,,,,,,,AFNE10.jpg,AFNE19.jpg,AFSA16.jpg,AFSA04.jpg,AFNE19.jpg,FN,3,num_6,32,num_2,2.29999884497,,,2017_Mar_07_1039,60.0057738987,FEMA4ImagesEEG,001,100043,
AFNE01.JPG,AFNE01.JPG,AFNE01.JPG,AFNE01.JPG,AFNE01.JPG,AFNE01.JPG,,,,,,,,,,,,,,,,,1,1,11,1,,,,,,,AFSA07.jpg,AFNE10.jpg,AFSA19.jpg,AFNE06.jpg,AFNE10.jpg,FN,3,num_6,16,num_6,1.00012091873,,,2017_Mar_07_1039,60.0057738987,FEMA4ImagesEEG,001,100043,
AFNE01.JPG,AFNE01.JPG,AFNE01.JPG,AFNE01.JPG,AFNE01.JPG,AFNE01.JPG,,,,,,,,,,,,,,,,,1,2,12,5,,,,,,,AFSA16.jpg,AFNE02.jpg,AFSA17.jpg,AFNE03.jpg,AFNE03.jpg,FN,3,num_4,16,num_4,0.883467530832,,,2017_Mar_07_1039,60.0057738987,FEMA4ImagesEEG,001,100043,
AFNE01.JPG,AFNE01.JPG,AFNE01.JPG,AFNE01.JPG,AFNE01.JPG,AFNE01.JPG,,,,,,,,,,,,,,,,,1,3,13,7,,,,,,,AFSA11.jpg,AFNE11.jpg,AFNE09.jpg,AFSA14.jpg,AFNE11.jpg,FN,3,num_6,32,num_8,1.06672959588,,,2017_Mar_07_1039,60.0057738987,FEMA4ImagesEEG,001,100043,
AFNE01.JPG,AFNE01.JPG,AFNE01.JPG,AFNE01.JPG,AFNE01.JPG,AFNE01.JPG,,,,,,,,,,,,,,,,,1,4,14,6,,,,,,,AFNE08.jpg,AFNE17.jpg,AFSA12.jpg,AFSA16.jpg,AFNE08.jpg,FN,3,num_8,32,num_4,1.00009301445,,,2017_Mar_07_1039,60.0057738987,FEMA4ImagesEEG,001,100043,
AFNE01.JPG,AFNE01.JPG,AFNE01.JPG,AFNE01.JPG,AFNE01.JPG,AFNE01.JPG,,,,,,,,,,,,,,,,,1,5,15,9,,,,,,,AFNE08.jpg,AFSA09.jpg,AFSA13.jpg,AFNE04.jpg,AFSA13.jpg,FS,4,num_2,32,num_6,1.20013490319,,,2017_Mar_07_1039,60.0057738987,FEMA4ImagesEEG,001,100043,
AFNE01.JPG,AFNE01.JPG,AFNE01.JPG,AFNE01.JPG,AFNE01.JPG,AFNE01.JPG,,,,,,,,,,,,,,,,,1,6,16,4,,,,,,,AFNE09.jpg,AFNE11.jpg,AFSA13.jpg,AFSA15.jpg,AFNE09.jpg,FN,3,num_8,32,num_4,1.08349915547,,,2017_Mar_07_1039,60.0057738987,FEMA4ImagesEEG,001,100043,
AFNE01.JPG,AFNE01.JPG,AFNE01.JPG,AFNE01.JPG,AFNE01.JPG,AFNE01.JPG,,,,,,,,,,,,,,,,,1,7,17,8,,,,,,,AFSA14.jpg,AFNE04.jpg,AFNE07.jpg,AFSA13.jpg,AFSA14.jpg,FS,4,num_8,16,num_8,1.36696161889,,,2017_Mar_07_1039,60.0057738987,FEMA4ImagesEEG,001,100043,
AFNE01.JPG,AFNE01.JPG,AFNE01.JPG,AFNE01.JPG,AFNE01.JPG,AFNE01.JPG,,,,,,,,,,,,,,,,,1,8,18,2,,,,,,,AFSA01.jpg,AFSA15.jpg,AFNE17.jpg,AFNE09.jpg,AFNE17.jpg,FN,3,num_2,16,num_2,2.16665928951,,,2017_Mar_07_1039,60.0057738987,FEMA4ImagesEEG,001,100043,
AFNE01.JPG,AFNE01.JPG,AFNE01.JPG,AFNE01.JPG,AFNE01.JPG,AFNE01.JPG,,,,,,,,,,,,,,,,,1,9,19,3,,,,,,,AFSA11.jpg,AFSA10.jpg,AFNE16.jpg,AFNE10.jpg,AFSA11.jpg,FS,4,num_8,16,num_8,1.36681183334,,,2017_Mar_07_1039,60.0057738987,FEMA4ImagesEEG,001,100043,
AFNE01.JPG,AFNE01.JPG,AFNE01.JPG,AFNE01.JPG,AFNE01.JPG,AFNE01.JPG,,,,,,,,,,,,,,,,,2,0,20,1,,,,,,,AFSA19.jpg,AFNE03.jpg,AFNE16.jpg,AFSA16.jpg,AFNE03.jpg,FN,3,num_6,32,num_4,0.633447644766,,,2017_Mar_07_1039,60.0057738987,FEMA4ImagesEEG,001,100043,
AFNE01.JPG,AFNE01.JPG,AFNE01.JPG,AFNE01.JPG,AFNE01.JPG,AFNE01.JPG,,,,,,,,,,,,,,,,,2,1,21,3,,,,,,,AFSA16.jpg,AFNE07.jpg,AFNE12.jpg,AFSA19.jpg,AFNE07.jpg,FN,3,num_6,32,num_8,1.23344084574,,,2017_Mar_07_1039,60.0057738987,FEMA4ImagesEEG,001,100043,
AFNE01.JPG,AFNE01.JPG,AFNE01.JPG,AFNE01.JPG,AFNE01.JPG,AFNE01.JPG,,,,,,,,,,,,,,,,,2,2,22,4,,,,,,,AFNE12.jpg,AFSA05.jpg,AFSA08.jpg,AFNE20.jpg,AFNE12.jpg,FN,3,num_8,32,num_2,2.20000564493,,,2017_Mar_07_1039,60.0057738987,FEMA4ImagesEEG,001,100043,
AFNE01.JPG,AFNE01.JPG,AFNE01.JPG,AFNE01.JPG,AFNE01.JPG,AFNE01.JPG,,,,,,,,,,,,,,,,,2,3,23,0,,,,,,,AFSA03.jpg,AFSA14.jpg,AFNE03.jpg,AFNE19.jpg,AFNE19.jpg,FN,3,num_4,32,num_8,0.733453033026,,,2017_Mar_07_1039,60.0057738987,FEMA4ImagesEEG,001,100043,
AFNE01.JPG,AFNE01.JPG,AFNE01.JPG,AFNE01.JPG,AFNE01.JPG,AFNE01.JPG,,,,,,,,,,,,,,,,,2,4,24,7,,,,,,,AFNE14.jpg,AFSA18.jpg,AFNE05.jpg,AFSA11.jpg,AFNE14.jpg,FN,3,num_8,32,num_4,0.733427694999,,,2017_Mar_07_1039,60.0057738987,FEMA4ImagesEEG,001,100043,
AFNE01.JPG,AFNE01.JPG,AFNE01.JPG,AFNE01.JPG,AFNE01.JPG,AFNE01.JPG,,,,,,,,,,,,,,,,,2,5,25,5,,,,,,,AFSA04.jpg,AFSA02.jpg,AFNE20.jpg,AFNE12.jpg,AFNE12.jpg,FN,3,num_4,32,num_8,0.966779374983,,,2017_Mar_07_1039,60.0057738987,FEMA4ImagesEEG,001,100043,
AFNE01.JPG,AFNE01.JPG,AFNE01.JPG,AFNE01.JPG,AFNE01.JPG,AFNE01.JPG,,,,,,,,,,,,,,,,,2,6,26,8,,,,,,,AFSA05.jpg,AFNE03.jpg,AFSA15.jpg,AFNE20.jpg,AFNE03.jpg,FN,3,num_6,32,num_2,0.833307032473,,,2017_Mar_07_1039,60.0057738987,FEMA4ImagesEEG,001,100043,
AFNE01.JPG,AFNE01.JPG,AFNE01.JPG,AFNE01.JPG,AFNE01.JPG,AFNE01.JPG,,,,,,,,,,,,,,,,,2,7,27,9,,,,,,,AFNE02.jpg,AFSA08.jpg,AFSA18.jpg,AFNE13.jpg,AFSA18.jpg,FS,4,num_2,32,num_4,0.900166528299,,,2017_Mar_07_1039,60.0057738987,FEMA4ImagesEEG,001,100043,
AFNE01.JPG,AFNE01.JPG,AFNE01.JPG,AFNE01.JPG,AFNE01.JPG,AFNE01.JPG,,,,,,,,,,,,,,,,,2,8,28,6,,,,,,,AFNE10.jpg,AFSA09.jpg,AFNE20.jpg,AFSA04.jpg,AFSA09.jpg,FS,4,num_6,16,num_6,0.933470225427,,,2017_Mar_07_1039,60.0057738987,FEMA4ImagesEEG,001,100043,
AFNE01.JPG,AFNE01.JPG,AFNE01.JPG,AFNE01.JPG,AFNE01.JPG,AFNE01.JPG,,,,,,,,,,,,,,,,,2,9,29,2,,,,,,,AFNE14.jpg,AFSA19.jpg,AFNE20.jpg,AFSA07.jpg,AFNE14.jpg,FN,3,num_8,32,num_2,1.03344674688,,,2017_Mar_07_1039,60.0057738987,FEMA4ImagesEEG,001,100043,
AFNE01.JPG,AFNE01.JPG,AFNE01.JPG,AFNE01.JPG,AFNE01.JPG,AFNE01.JPG,,,,,,,,,,,,,,,,,3,0,30,7,,,,,,,AFSA15.jpg,AFSA17.jpg,AFNE13.jpg,AFNE17.jpg,AFSA15.jpg,FS,4,num_8,16,num_8,0.916929031722,,,2017_Mar_07_1039,60.0057738987,FEMA4ImagesEEG,001,100043,
AFNE01.JPG,AFNE01.JPG,AFNE01.JPG,AFNE01.JPG,AFNE01.JPG,AFNE01.JPG,,,,,,,,,,,,,,,,,3,1,31,5,,,,,,,AFNE02.jpg,AFNE01.jpg,AFSA01.jpg,AFSA12.jpg,AFSA01.jpg,FS,4,num_2,32,num_4,0.750163897872,,,2017_Mar_07_1039,60.0057738987,FEMA4ImagesEEG,001,100043,
AFNE01.JPG,AFNE01.JPG,AFNE01.JPG,AFNE01.JPG,AFNE01.JPG,AFNE01.JPG,,,,,,,,,,,,,,,,,3,2,32,3,,,,,,,AFSA12.jpg,AFNE15.jpg,AFSA03.jpg,AFNE02.jpg,AFNE15.jpg,FN,3,num_6,32,num_8,1.06672510551,,,2017_Mar_07_1039,60.0057738987,FEMA4ImagesEEG,001,100043,
AFNE01.JPG,AFNE01.JPG,AFNE01.JPG,AFNE01.JPG,AFNE01.JPG,AFNE01.JPG,,,,,,,,,,,,,,,,,3,3,33,2,,,,,,,AFNE16.jpg,AFSA19.jpg,AFSA03.jpg,AFNE12.jpg,AFNE16.jpg,FN,3,num_8,32,num_4,3.83325603511,,,2017_Mar_07_1039,60.0057738987,FEMA4ImagesEEG,001,100043,
AFNE01.JPG,AFNE01.JPG,AFNE01.JPG,AFNE01.JPG,AFNE01.JPG,AFNE01.JPG,,,,,,,,,,,,,,,,,3,4,34,6,,,,,,,AFSA20.jpg,AFNE15.jpg,AFNE08.jpg,AFSA06.jpg,AFNE08.jpg,FN,3,num_2,16,num_2,0.666790472344,,,2017_Mar_07_1039,60.0057738987,FEMA4ImagesEEG,001,100043,
AFNE01.JPG,AFNE01.JPG,AFNE01.JPG,AFNE01.JPG,AFNE01.JPG,AFNE01.JPG,,,,,,,,,,,,,,,,,3,5,35,8,,,,,,,AFSA11.jpg,AFNE08.jpg,AFSA08.jpg,AFNE17.jpg,AFSA08.jpg,FS,4,num_2,32,num_4,1.00030502351,,,2017_Mar_07_1039,60.0057738987,FEMA4ImagesEEG,001,100043,
AFNE01.JPG,AFNE01.JPG,AFNE01.JPG,AFNE01.JPG,AFNE01.JPG,AFNE01.JPG,,,,,,,,,,,,,,,,,3,6,36,0,,,,,,,AFNE05.jpg,AFSA20.jpg,AFNE10.jpg,AFSA16.jpg,AFNE10.jpg,FN,3,num_2,32,num_6,0.816769047175,,,2017_Mar_07_1039,60.0057738987,FEMA4ImagesEEG,001,100043,
AFNE01.JPG,AFNE01.JPG,AFNE01.JPG,AFNE01.JPG,AFNE01.JPG,AFNE01.JPG,,,,,,,,,,,,,,,,,3,7,37,4,,,,,,,AFSA01.jpg,AFNE06.jpg,AFSA14.jpg,AFNE08.jpg,AFSA01.jpg,FS,4,num_8,16,num_8,1.00007505342,,,2017_Mar_07_1039,60.0057738987,FEMA4ImagesEEG,001,100043,
AFNE01.JPG,AFNE01.JPG,AFNE01.JPG,AFNE01.JPG,AFNE01.JPG,AFNE01.JPG,,,,,,,,,,,,,,,,,3,8,38,1,,,,,,,AFNE01.jpg,AFSA02.jpg,AFNE09.jpg,AFSA16.jpg,AFSA02.jpg,FS,4,num_6,32,num_4,0.983579084277,,,2017_Mar_07_1039,60.0057738987,FEMA4ImagesEEG,001,100043,
AFNE01.JPG,AFNE01.JPG,AFNE01.JPG,AFNE01.JPG,AFNE01.JPG,AFNE01.JPG,,,,,,,,,,,,,,,,,3,9,39,9,,,,,,,AFSA03.jpg,AFNE05.jpg,AFNE07.jpg,AFSA17.jpg,AFSA17.jpg,FS,4,num_4,32,num_8,1.00006960053,,,2017_Mar_07_1039,60.0057738987,FEMA4ImagesEEG,001,100043,
AFNE01.JPG,AFNE01.JPG,AFNE01.JPG,AFNE01.JPG,AFNE01.JPG,AFNE01.JPG,,,,,,,,,,,,,,,,,4,0,40,7,,,,,,,AFSA17.jpg,AFNE07.jpg,AFNE05.jpg,AFSA09.jpg,AFSA17.jpg,FS,4,num_8,32,num_4,0.683739004657,,,2017_Mar_07_1039,60.0057738987,FEMA4ImagesEEG,001,100043,
AFNE01.JPG,AFNE01.JPG,AFNE01.JPG,AFNE01.JPG,AFNE01.JPG,AFNE01.JPG,,,,,,,,,,,,,,,,,4,1,41,4,,,,,,,AFSA18.jpg,AFSA12.jpg,AFNE09.jpg,AFNE02.jpg,AFNE09.jpg,FN,3,num_2,32,num_4,1.66676705843,,,2017_Mar_07_1039,60.0057738987,FEMA4ImagesEEG,001,100043,
AFNE01.JPG,AFNE01.JPG,AFNE01.JPG,AFNE01.JPG,AFNE01.JPG,AFNE01.JPG,,,,,,,,,,,,,,,,,4,2,42,6,,,,,,,AFNE19.jpg,AFNE10.jpg,AFSA18.jpg,AFSA13.jpg,AFSA18.jpg,FS,4,num_2,32,num_8,1.15015049139,,,2017_Mar_07_1039,60.0057738987,FEMA4ImagesEEG,001,100043,
AFNE01.JPG,AFNE01.JPG,AFNE01.JPG,AFNE01.JPG,AFNE01.JPG,AFNE01.JPG,,,,,,,,,,,,,,,,,4,3,43,3,,,,,,,AFNE05.jpg,AFNE08.jpg,AFSA15.jpg,AFSA19.jpg,AFSA15.jpg,FS,4,num_2,32,num_6,0.750117711723,,,2017_Mar_07_1039,60.0057738987,FEMA4ImagesEEG,001,100043,
AFNE01.JPG,AFNE01.JPG,AFNE01.JPG,AFNE01.JPG,AFNE01.JPG,AFNE01.JPG,,,,,,,,,,,,,,,,,4,4,44,8,,,,,,,AFSA16.jpg,AFNE15.jpg,AFSA19.jpg,AFNE20.jpg,AFSA19.jpg,FS,4,num_2,32,num_8,1.03343231371,,,2017_Mar_07_1039,60.0057738987,FEMA4ImagesEEG,001,100043,
AFNE01.JPG,AFNE01.JPG,AFNE01.JPG,AFNE01.JPG,AFNE01.JPG,AFNE01.JPG,,,,,,,,,,,,,,,,,4,5,45,9,,,,,,,AFSA19.jpg,AFSA05.jpg,AFNE01.jpg,AFNE15.jpg,AFNE01.jpg,FN,3,num_2,32,num_4,0.916737871245,,,2017_Mar_07_1039,60.0057738987,FEMA4ImagesEEG,001,100043,
AFNE01.JPG,AFNE01.JPG,AFNE01.JPG,AFNE01.JPG,AFNE01.JPG,AFNE01.JPG,,,,,,,,,,,,,,,,,4,6,46,2,,,,,,,AFSA09.jpg,AFNE13.jpg,AFSA04.jpg,AFNE01.jpg,AFSA09.jpg,FS,4,num_8,16,num_8,0.650121304207,,,2017_Mar_07_1039,60.0057738987,FEMA4ImagesEEG,001,100043,
AFNE01.JPG,AFNE01.JPG,AFNE01.JPG,AFNE01.JPG,AFNE01.JPG,AFNE01.JPG,,,,,,,,,,,,,,,,,4,7,47,5,,,,,,,AFNE17.jpg,AFSA02.jpg,AFNE15.jpg,AFSA04.jpg,AFSA02.jpg,FS,4,num_6,32,num_2,1.73339722445,,,2017_Mar_07_1039,60.0057738987,FEMA4ImagesEEG,001,100043,
AFNE01.JPG,AFNE01.JPG,AFNE01.JPG,AFNE01.JPG,AFNE01.JPG,AFNE01.JPG,,,,,,,,,,,,,,,,,4,8,48,0,,,,,,,AFNE03.jpg,AFNE07.jpg,AFSA04.jpg,AFSA02.jpg,AFSA02.jpg,FS,4,num_4,32,num_8,0.733433789108,,,2017_Mar_07_1039,60.0057738987,FEMA4ImagesEEG,001,100043,
AFNE01.JPG,AFNE01.JPG,AFNE01.JPG,AFNE01.JPG,AFNE01.JPG,AFNE01.JPG,,,,,,,,,,,,,,,,,4,9,49,1,,,,,,,AFNE08.jpg,AFNE04.jpg,AFSA09.jpg,AFSA20.jpg,AFNE08.jpg,FN,3,num_8,32,num_4,0.900158830453,,,2017_Mar_07_1039,60.0057738987,FEMA4ImagesEEG,001,100043,
AFNE01.JPG,AFNE01.JPG,AFNE01.JPG,AFNE01.JPG,AFNE01.JPG,AFNE01.JPG,,,,,,,,,,,,,,,,,5,0,50,3,,,,,,,AFNE18.jpg,AFSA03.jpg,AFSA17.jpg,AFNE10.jpg,AFSA03.jpg,FS,4,num_6,32,num_8,0.683602690697,,,2017_Mar_07_1039,60.0057738987,FEMA4ImagesEEG,001,100043,
AFNE01.JPG,AFNE01.JPG,AFNE01.JPG,AFNE01.JPG,AFNE01.JPG,AFNE01.JPG,,,,,,,,,,,,,,,,,5,1,51,7,,,,,,,AFNE06.jpg,AFSA09.jpg,AFNE15.jpg,AFSA18.jpg,AFSA18.jpg,FS,4,num_4,32,num_6,0.750161332544,,,2017_Mar_07_1039,60.0057738987,FEMA4ImagesEEG,001,100043,
AFNE01.JPG,AFNE01.JPG,AFNE01.JPG,AFNE01.JPG,AFNE01.JPG,AFNE01.JPG,,,,,,,,,,,,,,,,,5,2,52,9,,,,,,,AFNE08.jpg,AFSA20.jpg,AFSA13.jpg,AFNE16.jpg,AFSA20.jpg,FS,4,num_6,32,num_4,1.00043011224,,,2017_Mar_07_1039,60.0057738987,FEMA4ImagesEEG,001,100043,
AFNE01.JPG,AFNE01.JPG,AFNE01.JPG,AFNE01.JPG,AFNE01.JPG,AFNE01.JPG,,,,,,,,,,,,,,,,,5,3,53,0,,,,,,,AFNE06.jpg,AFSA03.jpg,AFNE11.jpg,AFSA10.jpg,AFNE11.jpg,FN,3,num_2,16,num_2,1.16672856966,,,2017_Mar_07_1039,60.0057738987,FEMA4ImagesEEG,001,100043,
AFNE01.JPG,AFNE01.JPG,AFNE01.JPG,AFNE01.JPG,AFNE01.JPG,AFNE01.JPG,,,,,,,,,,,,,,,,,5,4,54,4,,,,,,,AFNE02.jpg,AFNE06.jpg,AFSA12.jpg,AFSA06.jpg,AFNE06.jpg,FN,3,num_6,32,num_2,3.11657897616,,,2017_Mar_07_1039,60.0057738987,FEMA4ImagesEEG,001,100043,
AFNE01.JPG,AFNE01.JPG,AFNE01.JPG,AFNE01.JPG,AFNE01.JPG,AFNE01.JPG,,,,,,,,,,,,,,,,,5,5,55,5,,,,,,,AFSA01.jpg,AFNE05.jpg,AFNE03.jpg,AFSA05.jpg,AFSA01.jpg,FS,4,num_8,32,num_6,1.06671067234,,,2017_Mar_07_1039,60.0057738987,FEMA4ImagesEEG,001,100043,
AFNE01.JPG,AFNE01.JPG,AFNE01.JPG,AFNE01.JPG,AFNE01.JPG,AFNE01.JPG,,,,,,,,,,,,,,,,,5,6,56,6,,,,,,,AFNE06.jpg,AFNE13.jpg,AFSA07.jpg,AFSA02.jpg,AFSA07.jpg,FS,4,num_2,32,num_8,1.15008024918,,,2017_Mar_07_1039,60.0057738987,FEMA4ImagesEEG,001,100043,
AFNE01.JPG,AFNE01.JPG,AFNE01.JPG,AFNE01.JPG,AFNE01.JPG,AFNE01.JPG,,,,,,,,,,,,,,,,,5,7,57,1,,,,,,,AFSA14.jpg,AFNE17.jpg,AFNE16.jpg,AFSA17.jpg,AFSA14.jpg,FS,4,num_8,32,num_4,0.916857827455,,,2017_Mar_07_1039,60.0057738987,FEMA4ImagesEEG,001,100043,
AFNE01.JPG,AFNE01.JPG,AFNE01.JPG,AFNE01.JPG,AFNE01.JPG,AFNE01.JPG,,,,,,,,,,,,,,,,,5,8,58,8,,,,,,,AFSA11.jpg,AFNE15.jpg,AFSA19.jpg,AFNE16.jpg,AFNE15.jpg,FN,3,num_6,32,num_2,1.96666230448,,,2017_Mar_07_1039,60.0057738987,FEMA4ImagesEEG,001,100043,
AFNE01.JPG,AFNE01.JPG,AFNE01.JPG,AFNE01.JPG,AFNE01.JPG,AFNE01.JPG,,,,,,,,,,,,,,,,,5,9,59,2,,,,,,,AFSA12.jpg,AFSA06.jpg,AFNE13.jpg,AFNE09.jpg,AFNE09.jpg,FN,3,num_4,32,num_8,0.800109500531,,,2017_Mar_07_1039,60.0057738987,FEMA4ImagesEEG,001,100043,
,,,,,,,,,,,,,,,,,,,,,,,,,,,,,,,,,,,,,,,,,,,space,15.3990580514,2017_Mar_07_1039,60.0057738987,FEMA4ImagesEEG,001,100043,
AFNE01.JPG,AFNE01.JPG,AFNE01.JPG,AFNE01.JPG,AFNE01.JPG,AFNE01.JPG,,,,,,,,,,,,,,,,,,,,,0,0,0,2,,,AMSA12.jpg,AMNE06.jpg,AMNE02.jpg,AMSA01.jpg,AMSA01.jpg,MS,2,num_4,16,num_4,1.08344174316,,,2017_Mar_07_1039,60.0057738987,FEMA4ImagesEEG,001,100043,
AFNE01.JPG,AFNE01.JPG,AFNE01.JPG,AFNE01.JPG,AFNE01.JPG,AFNE01.JPG,,,,,,,,,,,,,,,,,,,,,0,1,1,6,,,AMNE01.jpg,AMSA19.jpg,AMSA03.jpg,AMNE02.jpg,AMNE01.jpg,MN,1,num_8,16,num_8,1.10027031973,,,2017_Mar_07_1039,60.0057738987,FEMA4ImagesEEG,001,100043,
AFNE01.JPG,AFNE01.JPG,AFNE01.JPG,AFNE01.JPG,AFNE01.JPG,AFNE01.JPG,,,,,,,,,,,,,,,,,,,,,0,2,2,3,,,AMNE03.jpg,AMSA09.jpg,AMSA19.jpg,AMNE11.jpg,AMSA09.jpg,MS,2,num_6,32,num_4,1.13342904206,,,2017_Mar_07_1039,60.0057738987,FEMA4ImagesEEG,001,100043,
AFNE01.JPG,AFNE01.JPG,AFNE01.JPG,AFNE01.JPG,AFNE01.JPG,AFNE01.JPG,,,,,,,,,,,,,,,,,,,,,0,3,3,7,,,AMNE07.jpg,AMSA11.jpg,AMNE04.jpg,AMSA19.jpg,AMNE04.jpg,MN,1,num_2,32,num_8,1.20007749088,,,2017_Mar_07_1039,60.0057738987,FEMA4ImagesEEG,001,100043,
AFNE01.JPG,AFNE01.JPG,AFNE01.JPG,AFNE01.JPG,AFNE01.JPG,AFNE01.JPG,,,,,,,,,,,,,,,,,,,,,0,4,4,1,,,AMSA20.jpg,AMSA19.jpg,AMNE01.jpg,AMNE09.jpg,AMNE01.jpg,MN,1,num_2,32,num_6,0.933463168796,,,2017_Mar_07_1039,60.0057738987,FEMA4ImagesEEG,001,100043,
AFNE01.JPG,AFNE01.JPG,AFNE01.JPG,AFNE01.JPG,AFNE01.JPG,AFNE01.JPG,,,,,,,,,,,,,,,,,,,,,0,5,5,8,,,AMNE20.jpg,AMSA19.jpg,AMSA14.jpg,AMNE09.jpg,AMSA19.jpg,MS,2,num_6,32,num_4,1.03344097361,,,2017_Mar_07_1039,60.0057738987,FEMA4ImagesEEG,001,100043,
AFNE01.JPG,AFNE01.JPG,AFNE01.JPG,AFNE01.JPG,AFNE01.JPG,AFNE01.JPG,,,,,,,,,,,,,,,,,,,,,0,6,6,5,,,AMNE13.jpg,AMSA03.jpg,AMNE05.jpg,AMSA06.jpg,AMNE05.jpg,MN,1,num_2,32,num_8,0.999978189822,,,2017_Mar_07_1039,60.0057738987,FEMA4ImagesEEG,001,100043,
AFNE01.JPG,AFNE01.JPG,AFNE01.JPG,AFNE01.JPG,AFNE01.JPG,AFNE01.JPG,,,,,,,,,,,,,,,,,,,,,0,7,7,9,,,AMSA04.jpg,AMNE01.jpg,AMNE05.jpg,AMSA10.jpg,AMSA10.jpg,MS,2,num_4,32,num_6,0.516815105453,,,2017_Mar_07_1039,60.0057738987,FEMA4ImagesEEG,001,100043,
AFNE01.JPG,AFNE01.JPG,AFNE01.JPG,AFNE01.JPG,AFNE01.JPG,AFNE01.JPG,,,,,,,,,,,,,,,,,,,,,0,8,8,4,,,AMSA07.jpg,AMSA13.jpg,AMNE20.jpg,AMNE01.jpg,AMSA13.jpg,MS,2,num_6,32,num_8,1.26673235418,,,2017_Mar_07_1039,60.0057738987,FEMA4ImagesEEG,001,100043,
AFNE01.JPG,AFNE01.JPG,AFNE01.JPG,AFNE01.JPG,AFNE01.JPG,AFNE01.JPG,,,,,,,,,,,,,,,,,,,,,0,9,9,0,,,AMNE15.jpg,AMNE06.jpg,AMSA03.jpg,AMSA04.jpg,AMSA04.jpg,MS,2,num_4,32,num_8,1.10012342082,,,2017_Mar_07_1039,60.0057738987,FEMA4ImagesEEG,001,100043,
AFNE01.JPG,AFNE01.JPG,AFNE01.JPG,AFNE01.JPG,AFNE01.JPG,AFNE01.JPG,,,,,,,,,,,,,,,,,,,,,1,0,10,0,,,AMNE20.jpg,AMSA10.jpg,AMSA04.jpg,AMNE05.jpg,AMSA04.jpg,MS,2,num_2,32,num_4,1.61678104242,,,2017_Mar_07_1039,60.0057738987,FEMA4ImagesEEG,001,100043,
AFNE01.JPG,AFNE01.JPG,AFNE01.JPG,AFNE01.JPG,AFNE01.JPG,AFNE01.JPG,,,,,,,,,,,,,,,,,,,,,1,1,11,2,,,AMNE03.jpg,AMNE16.jpg,AMSA19.jpg,AMSA15.jpg,AMNE16.jpg,MN,1,num_6,32,num_8,1.11679643812,,,2017_Mar_07_1039,60.0057738987,FEMA4ImagesEEG,001,100043,
AFNE01.JPG,AFNE01.JPG,AFNE01.JPG,AFNE01.JPG,AFNE01.JPG,AFNE01.JPG,,,,,,,,,,,,,,,,,,,,,1,2,12,3,,,AMNE19.jpg,AMSA12.jpg,AMSA10.jpg,AMNE08.jpg,AMSA12.jpg,MS,2,num_6,32,num_4,1.50017768983,,,2017_Mar_07_1039,60.0057738987,FEMA4ImagesEEG,001,100043,
AFNE01.JPG,AFNE01.JPG,AFNE01.JPG,AFNE01.JPG,AFNE01.JPG,AFNE01.JPG,,,,,,,,,,,,,,,,,,,,,1,3,13,7,,,AMSA18.jpg,AMSA02.jpg,AMNE17.jpg,AMNE09.jpg,AMSA02.jpg,MS,2,num_6,16,num_6,1.0669691884,,,2017_Mar_07_1039,60.0057738987,FEMA4ImagesEEG,001,100043,
AFNE01.JPG,AFNE01.JPG,AFNE01.JPG,AFNE01.JPG,AFNE01.JPG,AFNE01.JPG,,,,,,,,,,,,,,,,,,,,,1,4,14,6,,,AMSA13.jpg,AMNE04.jpg,AMSA20.jpg,AMNE05.jpg,AMSA20.jpg,MS,2,num_2,16,num_2,1.90006389143,,,2017_Mar_07_1039,60.0057738987,FEMA4ImagesEEG,001,100043,
AFNE01.JPG,AFNE01.JPG,AFNE01.JPG,AFNE01.JPG,AFNE01.JPG,AFNE01.JPG,,,,,,,,,,,,,,,,,,,,,1,5,15,4,,,AMSA12.jpg,AMSA10.jpg,AMNE09.jpg,AMNE06.jpg,AMNE06.jpg,MN,1,num_4,16,num_4,0.983424166683,,,2017_Mar_07_1039,60.0057738987,FEMA4ImagesEEG,001,100043,
AFNE01.JPG,AFNE01.JPG,AFNE01.JPG,AFNE01.JPG,AFNE01.JPG,AFNE01.JPG,,,,,,,,,,,,,,,,,,,,,1,6,16,1,,,AMNE18.jpg,AMNE19.jpg,AMSA14.jpg,AMSA09.jpg,AMSA09.jpg,MS,2,num_4,32,num_8,1.45011277217,,,2017_Mar_07_1039,60.0057738987,FEMA4ImagesEEG,001,100043,
AFNE01.JPG,AFNE01.JPG,AFNE01.JPG,AFNE01.JPG,AFNE01.JPG,AFNE01.JPG,,,,,,,,,,,,,,,,,,,,,1,7,17,8,,,AMNE06.jpg,AMNE16.jpg,AMSA14.jpg,AMSA13.jpg,AMSA13.jpg,MS,2,num_4,32,num_8,0.966876879334,,,2017_Mar_07_1039,60.0057738987,FEMA4ImagesEEG,001,100043,
AFNE01.JPG,AFNE01.JPG,AFNE01.JPG,AFNE01.JPG,AFNE01.JPG,AFNE01.JPG,,,,,,,,,,,,,,,,,,,,,1,8,18,5,,,AMNE01.jpg,AMNE10.jpg,AMSA17.jpg,AMSA07.jpg,AMNE10.jpg,MN,1,num_6,32,num_4,1.08343885653,,,2017_Mar_07_1039,60.0057738987,FEMA4ImagesEEG,001,100043,
AFNE01.JPG,AFNE01.JPG,AFNE01.JPG,AFNE01.JPG,AFNE01.JPG,AFNE01.JPG,,,,,,,,,,,,,,,,,,,,,1,9,19,9,,,AMNE20.jpg,AMSA06.jpg,AMNE15.jpg,AMSA17.jpg,AMSA17.jpg,MS,2,num_4,32,num_8,1.20010282937,,,2017_Mar_07_1039,60.0057738987,FEMA4ImagesEEG,001,100043,
AFNE01.JPG,AFNE01.JPG,AFNE01.JPG,AFNE01.JPG,AFNE01.JPG,AFNE01.JPG,,,,,,,,,,,,,,,,,,,,,2,0,20,9,,,AMSA17.jpg,AMSA20.jpg,AMNE12.jpg,AMNE17.jpg,AMSA20.jpg,MS,2,num_6,16,num_6,1.01674807072,,,2017_Mar_07_1039,60.0057738987,FEMA4ImagesEEG,001,100043,
AFNE01.JPG,AFNE01.JPG,AFNE01.JPG,AFNE01.JPG,AFNE01.JPG,AFNE01.JPG,,,,,,,,,,,,,,,,,,,,,2,1,21,5,,,AMSA10.jpg,AMNE16.jpg,AMNE10.jpg,AMSA15.jpg,AMSA15.jpg,MS,2,num_4,32,num_8,1.01674197661,,,2017_Mar_07_1039,60.0057738987,FEMA4ImagesEEG,001,100043,
AFNE01.JPG,AFNE01.JPG,AFNE01.JPG,AFNE01.JPG,AFNE01.JPG,AFNE01.JPG,,,,,,,,,,,,,,,,,,,,,2,2,22,6,,,AMNE15.jpg,AMSA09.jpg,AMSA11.jpg,AMNE01.jpg,AMNE15.jpg,MN,1,num_8,16,num_8,2.09997940855,,,2017_Mar_07_1039,60.0057738987,FEMA4ImagesEEG,001,100043,
AFNE01.JPG,AFNE01.JPG,AFNE01.JPG,AFNE01.JPG,AFNE01.JPG,AFNE01.JPG,,,,,,,,,,,,,,,,,,,,,2,3,23,3,,,AMSA17.jpg,AMNE01.jpg,AMNE08.jpg,AMSA13.jpg,AMSA13.jpg,MS,2,num_4,16,num_4,0.816751085222,,,2017_Mar_07_1039,60.0057738987,FEMA4ImagesEEG,001,100043,
AFNE01.JPG,AFNE01.JPG,AFNE01.JPG,AFNE01.JPG,AFNE01.JPG,AFNE01.JPG,,,,,,,,,,,,,,,,,,,,,2,4,24,8,,,AMSA02.jpg,AMNE14.jpg,AMNE13.jpg,AMSA16.jpg,AMSA16.jpg,MS,2,num_4,32,num_8,1.33349723136,,,2017_Mar_07_1039,60.0057738987,FEMA4ImagesEEG,001,100043,
AFNE01.JPG,AFNE01.JPG,AFNE01.JPG,AFNE01.JPG,AFNE01.JPG,AFNE01.JPG,,,,,,,,,,,,,,,,,,,,,2,5,25,7,,,AMSA19.jpg,AMSA11.jpg,AMNE01.jpg,AMNE03.jpg,AMSA19.jpg,MS,2,num_8,32,num_6,1.38342679664,,,2017_Mar_07_1039,60.0057738987,FEMA4ImagesEEG,001,100043,
AFNE01.JPG,AFNE01.JPG,AFNE01.JPG,AFNE01.JPG,AFNE01.JPG,AFNE01.JPG,,,,,,,,,,,,,,,,,,,,,2,6,26,2,,,AMSA17.jpg,AMSA18.jpg,AMNE17.jpg,AMNE02.jpg,AMSA18.jpg,MS,2,num_6,32,num_4,0.833436932415,,,2017_Mar_07_1039,60.0057738987,FEMA4ImagesEEG,001,100043,
AFNE01.JPG,AFNE01.JPG,AFNE01.JPG,AFNE01.JPG,AFNE01.JPG,AFNE01.JPG,,,,,,,,,,,,,,,,,,,,,2,7,27,1,,,AMSA09.jpg,AMNE13.jpg,AMNE10.jpg,AMSA01.jpg,AMNE13.jpg,MN,1,num_6,32,num_8,0.950089999475,,,2017_Mar_07_1039,60.0057738987,FEMA4ImagesEEG,001,100043,
AFNE01.JPG,AFNE01.JPG,AFNE01.JPG,AFNE01.JPG,AFNE01.JPG,AFNE01.JPG,,,,,,,,,,,,,,,,,,,,,2,8,28,0,,,AMSA01.jpg,AMSA05.jpg,AMNE10.jpg,AMNE12.jpg,AMSA01.jpg,MS,2,num_8,16,num_8,1.0001167492,,,2017_Mar_07_1039,60.0057738987,FEMA4ImagesEEG,001,100043,
AFNE01.JPG,AFNE01.JPG,AFNE01.JPG,AFNE01.JPG,AFNE01.JPG,AFNE01.JPG,,,,,,,,,,,,,,,,,,,,,2,9,29,4,,,AMSA07.jpg,AMNE07.jpg,AMSA06.jpg,AMNE08.jpg,AMSA07.jpg,MS,2,num_8,32,num_4,1.41673851246,,,2017_Mar_07_1039,60.0057738987,FEMA4ImagesEEG,001,100043,
AFNE01.JPG,AFNE01.JPG,AFNE01.JPG,AFNE01.JPG,AFNE01.JPG,AFNE01.JPG,,,,,,,,,,,,,,,,,,,,,3,0,30,7,,,AMSA12.jpg,AMNE16.jpg,AMNE03.jpg,AMSA02.jpg,AMNE16.jpg,MN,1,num_6,32,num_2,3.0169879836,,,2017_Mar_07_1039,60.0057738987,FEMA4ImagesEEG,001,100043,
AFNE01.JPG,AFNE01.JPG,AFNE01.JPG,AFNE01.JPG,AFNE01.JPG,AFNE01.JPG,,,,,,,,,,,,,,,,,,,,,3,1,31,4,,,AMNE03.jpg,AMNE02.jpg,AMSA09.jpg,AMSA14.jpg,AMNE02.jpg,MN,1,num_6,16,num_6,0.550131310709,,,2017_Mar_07_1039,60.0057738987,FEMA4ImagesEEG,001,100043,
AFNE01.JPG,AFNE01.JPG,AFNE01.JPG,AFNE01.JPG,AFNE01.JPG,AFNE01.JPG,,,,,,,,,,,,,,,,,,,,,3,2,32,2,,,AMSA07.jpg,AMNE04.jpg,AMNE06.jpg,AMSA19.jpg,AMSA19.jpg,MS,2,num_4,16,num_4,1.05014702724,,,2017_Mar_07_1039,60.0057738987,FEMA4ImagesEEG,001,100043,
AFNE01.JPG,AFNE01.JPG,AFNE01.JPG,AFNE01.JPG,AFNE01.JPG,AFNE01.JPG,,,,,,,,,,,,,,,,,,,,,3,3,33,5,,,AMSA03.jpg,AMNE13.jpg,AMSA07.jpg,AMNE12.jpg,AMSA07.jpg,MS,2,num_2,32,num_8,1.70003419043,,,2017_Mar_07_1039,60.0057738987,FEMA4ImagesEEG,001,100043,
AFNE01.JPG,AFNE01.JPG,AFNE01.JPG,AFNE01.JPG,AFNE01.JPG,AFNE01.JPG,,,,,,,,,,,,,,,,,,,,,3,4,34,1,,,AMSA06.jpg,AMNE02.jpg,AMSA03.jpg,AMNE01.jpg,AMSA06.jpg,MS,2,num_8,16,num_8,1.23347452283,,,2017_Mar_07_1039,60.0057738987,FEMA4ImagesEEG,001,100043,
AFNE01.JPG,AFNE01.JPG,AFNE01.JPG,AFNE01.JPG,AFNE01.JPG,AFNE01.JPG,,,,,,,,,,,,,,,,,,,,,3,5,35,0,,,AMSA16.jpg,AMNE04.jpg,AMSA05.jpg,AMNE09.jpg,AMSA16.jpg,MS,2,num_8,32,num_4,0.966736395843,,,2017_Mar_07_1039,60.0057738987,FEMA4ImagesEEG,001,100043,
AFNE01.JPG,AFNE01.JPG,AFNE01.JPG,AFNE01.JPG,AFNE01.JPG,AFNE01.JPG,,,,,,,,,,,,,,,,,,,,,3,6,36,8,,,AMNE07.jpg,AMSA06.jpg,AMSA11.jpg,AMNE05.jpg,AMSA06.jpg,MS,2,num_6,16,num_6,1.41676609591,,,2017_Mar_07_1039,60.0057738987,FEMA4ImagesEEG,001,100043,
AFNE01.JPG,AFNE01.JPG,AFNE01.JPG,AFNE01.JPG,AFNE01.JPG,AFNE01.JPG,,,,,,,,,,,,,,,,,,,,,3,7,37,9,,,AMSA07.jpg,AMNE03.jpg,AMSA08.jpg,AMNE16.jpg,AMNE03.jpg,MN,1,num_6,32,num_8,0.866743836552,,,2017_Mar_07_1039,60.0057738987,FEMA4ImagesEEG,001,100043,
AFNE01.JPG,AFNE01.JPG,AFNE01.JPG,AFNE01.JPG,AFNE01.JPG,AFNE01.JPG,,,,,,,,,,,,,,,,,,,,,3,8,38,6,,,AMSA18.jpg,AMNE17.jpg,AMSA13.jpg,AMNE02.jpg,AMSA18.jpg,MS,2,num_8,32,num_4,1.06676295307,,,2017_Mar_07_1039,60.0057738987,FEMA4ImagesEEG,001,100043,
AFNE01.JPG,AFNE01.JPG,AFNE01.JPG,AFNE01.JPG,AFNE01.JPG,AFNE01.JPG,,,,,,,,,,,,,,,,,,,,,3,9,39,3,,,AMSA11.jpg,AMNE01.jpg,AMNE09.jpg,AMSA16.jpg,AMNE09.jpg,MN,1,num_2,32,num_8,1.01676122099,,,2017_Mar_07_1039,60.0057738987,FEMA4ImagesEEG,001,100043,
