IPosition2,IPosition3,IPosition1,IPosition6,IPosition4,IPosition5,TrialsF1.thisRepN,TrialsF1.thisTrialN,TrialsF1.thisN,TrialsF1.thisIndex,TrialsM1.thisRepN,TrialsM1.thisTrialN,TrialsM1.thisN,TrialsM1.thisIndex,TrialsF2.thisRepN,TrialsF2.thisTrialN,TrialsF2.thisN,TrialsF2.thisIndex,TrialsM2.thisRepN,TrialsM2.thisTrialN,TrialsM2.thisN,TrialsM2.thisIndex,TrialsF3.thisRepN,TrialsF3.thisTrialN,TrialsF3.thisN,TrialsF3.thisIndex,TrialsM3.thisRepN,TrialsM3.thisTrialN,TrialsM3.thisN,TrialsM3.thisIndex,InstrKey_resp.keys,InstrKey_resp.rt,Image0 _Position,Image1 _Position,Image2 _Position,Image3 _Position,Center_image,condition,code,correct_answer,accuracy,Key_Resp.keys,Key_Resp.rt,BreakKey_resp.keys,BreakKey_resp.rt,date,frameRate,expName,session,participant,
,,,,,,,,,,,,,,,,,,,,,,,,,,,,,,space,34.4812671915,,,,,,,,,,,,,,2017_Mar_09_1239,60.0004619023,FEMA4ImagesEEG,001,100049,
AMSA21.JPG,AMNE23.JPG,AMNE21.JPG,AMSA25.JPG,AMNE25.JPG,AMSA23.JPG,0,0,0,5,,,,,,,,,,,,,,,,,,,,,,,AFNE12.jpg,AFSA06.jpg,AFNE19.jpg,AFSA10.jpg,AFNE12.jpg,FN,3,num_8,16,num_8,2.73330228589,,,2017_Mar_09_1239,60.0004619023,FEMA4ImagesEEG,001,100049,
AFSA25.JPG,AFNE24.JPG,AFSA24.JPG,AFNE21.JPG,AFSA21.JPG,AFNE25.JPG,0,1,1,2,,,,,,,,,,,,,,,,,,,,,,,AFSA03.jpg,AFNE04.jpg,AFSA08.jpg,AFNE02.jpg,AFSA03.jpg,FS,4,num_8,32,num_4,1.31669976749,,,2017_Mar_09_1239,60.0004619023,FEMA4ImagesEEG,001,100049,
AMNE23.JPG,AMNE24.JPG,AMNE22.JPG,AMSA24.JPG,AMSA22.JPG,AMSA23.JPG,0,2,2,9,,,,,,,,,,,,,,,,,,,,,,,AFNE12.jpg,AFSA08.jpg,AFSA15.jpg,AFNE20.jpg,AFSA15.jpg,FS,4,num_2,16,num_2,1.53360807896,,,2017_Mar_09_1239,60.0004619023,FEMA4ImagesEEG,001,100049,
AMSA21.JPG,AMNE22.JPG,AMNE21.JPG,AMSA23.JPG,AMSA22.JPG,AMNE23.JPG,0,3,3,1,,,,,,,,,,,,,,,,,,,,,,,AFSA09.jpg,AFNE09.jpg,AFNE20.jpg,AFSA12.jpg,AFSA12.jpg,FS,4,num_4,16,num_4,1.33342057467,,,2017_Mar_09_1239,60.0004619023,FEMA4ImagesEEG,001,100049,
AFNE23.JPG,AFNE24.JPG,AFNE22.JPG,AFSA24.JPG,AFSA22.JPG,AFSA23.JPG,0,4,4,8,,,,,,,,,,,,,,,,,,,,,,,AFNE08.jpg,AFNE05.jpg,AFSA06.jpg,AFSA13.jpg,AFSA06.jpg,FS,4,num_2,16,num_2,1.63371129334,,,2017_Mar_09_1239,60.0004619023,FEMA4ImagesEEG,001,100049,
AMNE22.JPG,AMSA24.JPG,AMSA22.JPG,AMNE25.JPG,AMNE24.JPG,AMSA25.JPG,0,5,5,7,,,,,,,,,,,,,,,,,,,,,,,AFSA03.jpg,AFSA04.jpg,AFNE14.jpg,AFNE19.jpg,AFSA04.jpg,FS,4,num_6,16,num_6,1.31675557513,,,2017_Mar_09_1239,60.0004619023,FEMA4ImagesEEG,001,100049,
AFSA21.JPG,AFNE22.JPG,AFNE21.JPG,AFSA23.JPG,AFSA22.JPG,AFNE23.JPG,0,6,6,0,,,,,,,,,,,,,,,,,,,,,,,AFSA11.jpg,AFSA09.jpg,AFNE06.jpg,AFNE12.jpg,AFNE06.jpg,FN,3,num_2,16,num_2,1.50010873098,,,2017_Mar_09_1239,60.0004619023,FEMA4ImagesEEG,001,100049,
AFNE22.JPG,AFSA24.JPG,AFSA22.JPG,AFNE25.JPG,AFNE24.JPG,AFSA25.JPG,0,7,7,6,,,,,,,,,,,,,,,,,,,,,,,AFSA01.jpg,AFSA18.jpg,AFNE11.jpg,AFNE19.jpg,AFNE11.jpg,FN,3,num_2,16,num_2,1.71670367941,,,2017_Mar_09_1239,60.0004619023,FEMA4ImagesEEG,001,100049,
AMSA25.JPG,AMNE24.JPG,AMSA24.JPG,AMNE26.JPG,AMSA21.JPG,AMNE25.JPG,0,8,8,3,,,,,,,,,,,,,,,,,,,,,,,AFSA14.jpg,AFNE11.jpg,AFSA05.jpg,AFNE16.jpg,AFSA05.jpg,FS,4,num_2,32,num_8,1.56671997346,,,2017_Mar_09_1239,60.0004619023,FEMA4ImagesEEG,001,100049,
AFSA21.JPG,AFNE23.JPG,AFNE21.JPG,AFSA25.JPG,AFNE25.JPG,AFSA23.JPG,0,9,9,4,,,,,,,,,,,,,,,,,,,,,,,AFNE04.jpg,AFSA19.jpg,AFSA13.jpg,AFNE12.jpg,AFNE12.jpg,FN,3,num_4,16,num_4,1.43337400258,,,2017_Mar_09_1239,60.0004619023,FEMA4ImagesEEG,001,100049,
AMNE23.JPG,AMNE24.JPG,AMNE22.JPG,AMSA24.JPG,AMSA22.JPG,AMSA23.JPG,,,,,0,0,0,9,,,,,,,,,,,,,,,,,,,AMSA04.jpg,AMNE06.jpg,AMNE12.jpg,AMSA09.jpg,AMNE12.jpg,MN,1,num_2,16,num_2,2.45000853203,,,2017_Mar_09_1239,60.0004619023,FEMA4ImagesEEG,001,100049,
AFNE23.JPG,AFNE24.JPG,AFNE22.JPG,AFSA24.JPG,AFSA22.JPG,AFSA23.JPG,,,,,0,1,1,8,,,,,,,,,,,,,,,,,,,AMSA19.jpg,AMNE18.jpg,AMSA08.jpg,AMNE15.jpg,AMSA08.jpg,MS,2,num_2,32,num_6,1.5500738984,,,2017_Mar_09_1239,60.0004619023,FEMA4ImagesEEG,001,100049,
AFSA21.JPG,AFNE22.JPG,AFNE21.JPG,AFSA23.JPG,AFSA22.JPG,AFNE23.JPG,,,,,0,2,2,0,,,,,,,,,,,,,,,,,,,AMNE03.jpg,AMNE13.jpg,AMSA09.jpg,AMSA03.jpg,AMNE03.jpg,MN,1,num_8,32,num_6,1.51675480604,,,2017_Mar_09_1239,60.0004619023,FEMA4ImagesEEG,001,100049,
AMNE22.JPG,AMSA24.JPG,AMSA22.JPG,AMNE25.JPG,AMNE24.JPG,AMSA25.JPG,,,,,0,3,3,7,,,,,,,,,,,,,,,,,,,AMNE02.jpg,AMSA05.jpg,AMNE13.jpg,AMSA06.jpg,AMNE13.jpg,MN,1,num_2,16,num_2,1.38342583459,,,2017_Mar_09_1239,60.0004619023,FEMA4ImagesEEG,001,100049,
AMSA25.JPG,AMNE24.JPG,AMSA24.JPG,AMNE26.JPG,AMSA21.JPG,AMNE25.JPG,,,,,0,4,4,3,,,,,,,,,,,,,,,,,,,AMSA14.jpg,AMSA10.jpg,AMNE13.jpg,AMNE18.jpg,AMNE13.jpg,MN,1,num_2,16,num_2,1.28342557792,,,2017_Mar_09_1239,60.0004619023,FEMA4ImagesEEG,001,100049,
AMSA21.JPG,AMNE23.JPG,AMNE21.JPG,AMSA25.JPG,AMNE25.JPG,AMSA23.JPG,,,,,0,5,5,5,,,,,,,,,,,,,,,,,,,AMSA04.jpg,AMSA02.jpg,AMNE07.jpg,AMNE15.jpg,AMNE15.jpg,MN,1,num_4,16,num_4,1.1334803598,,,2017_Mar_09_1239,60.0004619023,FEMA4ImagesEEG,001,100049,
AFSA25.JPG,AFNE24.JPG,AFSA24.JPG,AFNE21.JPG,AFSA21.JPG,AFNE25.JPG,,,,,0,6,6,2,,,,,,,,,,,,,,,,,,,AMSA03.jpg,AMNE06.jpg,AMNE09.jpg,AMSA02.jpg,AMSA02.jpg,MS,2,num_4,16,num_4,0.96678418573,,,2017_Mar_09_1239,60.0004619023,FEMA4ImagesEEG,001,100049,
AFSA21.JPG,AFNE23.JPG,AFNE21.JPG,AFSA25.JPG,AFNE25.JPG,AFSA23.JPG,,,,,0,7,7,4,,,,,,,,,,,,,,,,,,,AMSA03.jpg,AMSA07.jpg,AMNE03.jpg,AMNE05.jpg,AMNE03.jpg,MN,1,num_2,32,num_6,1.18343975488,,,2017_Mar_09_1239,60.0004619023,FEMA4ImagesEEG,001,100049,
AMSA21.JPG,AMNE22.JPG,AMNE21.JPG,AMSA23.JPG,AMSA22.JPG,AMNE23.JPG,,,,,0,8,8,1,,,,,,,,,,,,,,,,,,,AMNE18.jpg,AMSA16.jpg,AMSA14.jpg,AMNE08.jpg,AMNE08.jpg,MN,1,num_4,16,num_4,1.88335559238,,,2017_Mar_09_1239,60.0004619023,FEMA4ImagesEEG,001,100049,
AFNE22.JPG,AFSA24.JPG,AFSA22.JPG,AFNE25.JPG,AFNE24.JPG,AFSA25.JPG,,,,,0,9,9,6,,,,,,,,,,,,,,,,,,,AMSA12.jpg,AMSA20.jpg,AMNE16.jpg,AMNE01.jpg,AMSA20.jpg,MS,2,num_6,16,num_6,0.900141830556,,,2017_Mar_09_1239,60.0004619023,FEMA4ImagesEEG,001,100049,
AMSA21.JPG,AMNE23.JPG,AMNE21.JPG,AMSA25.JPG,AMNE25.JPG,AMSA23.JPG,,,,,,,,,0,0,0,5,,,,,,,,,,,,,,,AFNE11.jpg,AFNE20.jpg,AFSA16.jpg,AFSA05.jpg,AFSA16.jpg,FS,4,num_2,32,num_4,2.56664524134,,,2017_Mar_09_1239,60.0004619023,FEMA4ImagesEEG,001,100049,
AMNE22.JPG,AMSA24.JPG,AMSA22.JPG,AMNE25.JPG,AMNE24.JPG,AMSA25.JPG,,,,,,,,,0,1,1,7,,,,,,,,,,,,,,,AFNE19.jpg,AFSA16.jpg,AFSA10.jpg,AFNE03.jpg,AFNE03.jpg,FN,3,num_4,32,num_2,1.50009782519,,,2017_Mar_09_1239,60.0004619023,FEMA4ImagesEEG,001,100049,
AMNE23.JPG,AMNE24.JPG,AMNE22.JPG,AMSA24.JPG,AMSA22.JPG,AMSA23.JPG,,,,,,,,,0,2,2,9,,,,,,,,,,,,,,,AFNE05.jpg,AFSA11.jpg,AFNE16.jpg,AFSA20.jpg,AFSA11.jpg,FS,4,num_6,32,num_4,2.53338420298,,,2017_Mar_09_1239,60.0004619023,FEMA4ImagesEEG,001,100049,
AFNE22.JPG,AFSA24.JPG,AFSA22.JPG,AFNE25.JPG,AFNE24.JPG,AFSA25.JPG,,,,,,,,,0,3,3,6,,,,,,,,,,,,,,,AFSA02.jpg,AFNE20.jpg,AFSA19.jpg,AFNE14.jpg,AFNE20.jpg,FN,3,num_6,16,num_6,2.86666910443,,,2017_Mar_09_1239,60.0004619023,FEMA4ImagesEEG,001,100049,
AMSA21.JPG,AMNE22.JPG,AMNE21.JPG,AMSA23.JPG,AMSA22.JPG,AMNE23.JPG,,,,,,,,,0,4,4,1,,,,,,,,,,,,,,,AFNE20.jpg,AFSA04.jpg,AFNE03.jpg,AFSA08.jpg,AFSA04.jpg,FS,4,num_6,16,num_6,1.28347529285,,,2017_Mar_09_1239,60.0004619023,FEMA4ImagesEEG,001,100049,
AFSA25.JPG,AFNE24.JPG,AFSA24.JPG,AFNE21.JPG,AFSA21.JPG,AFNE25.JPG,,,,,,,,,0,5,5,2,,,,,,,,,,,,,,,AFSA12.jpg,AFSA08.jpg,AFNE13.jpg,AFNE11.jpg,AFNE11.jpg,FN,3,num_4,32,num_8,2.01667429972,,,2017_Mar_09_1239,60.0004619023,FEMA4ImagesEEG,001,100049,
AFSA21.JPG,AFNE23.JPG,AFNE21.JPG,AFSA25.JPG,AFNE25.JPG,AFSA23.JPG,,,,,,,,,0,6,6,4,,,,,,,,,,,,,,,AFNE12.jpg,AFSA01.jpg,AFNE05.jpg,AFSA04.jpg,AFNE05.jpg,FN,3,num_2,32,num_8,0.966745696962,,,2017_Mar_09_1239,60.0004619023,FEMA4ImagesEEG,001,100049,
AMSA25.JPG,AMNE24.JPG,AMSA24.JPG,AMNE26.JPG,AMSA21.JPG,AMNE25.JPG,,,,,,,,,0,7,7,3,,,,,,,,,,,,,,,AFNE07.jpg,AFSA11.jpg,AFNE14.jpg,AFSA14.jpg,AFNE14.jpg,FN,3,num_2,32,num_8,1.51675640978,,,2017_Mar_09_1239,60.0004619023,FEMA4ImagesEEG,001,100049,
AFNE23.JPG,AFNE24.JPG,AFNE22.JPG,AFSA24.JPG,AFSA22.JPG,AFSA23.JPG,,,,,,,,,0,8,8,8,,,,,,,,,,,,,,,AFSA14.jpg,AFSA10.jpg,AFNE09.jpg,AFNE16.jpg,AFSA14.jpg,FS,4,num_8,16,num_8,0.816736972891,,,2017_Mar_09_1239,60.0004619023,FEMA4ImagesEEG,001,100049,
AFSA21.JPG,AFNE22.JPG,AFNE21.JPG,AFSA23.JPG,AFSA22.JPG,AFNE23.JPG,,,,,,,,,0,9,9,0,,,,,,,,,,,,,,,AFNE13.jpg,AFSA11.jpg,AFSA10.jpg,AFNE10.jpg,AFNE10.jpg,FN,3,num_4,16,num_4,0.933474394493,,,2017_Mar_09_1239,60.0004619023,FEMA4ImagesEEG,001,100049,
AFSA25.JPG,AFNE24.JPG,AFSA24.JPG,AFNE21.JPG,AFSA21.JPG,AFNE25.JPG,,,,,,,,,,,,,0,0,0,2,,,,,,,,,,,AMSA18.jpg,AMSA10.jpg,AMNE06.jpg,AMNE09.jpg,AMSA10.jpg,MS,2,num_6,16,num_6,1.20010796096,,,2017_Mar_09_1239,60.0004619023,FEMA4ImagesEEG,001,100049,
AFNE22.JPG,AFSA24.JPG,AFSA22.JPG,AFNE25.JPG,AFNE24.JPG,AFSA25.JPG,,,,,,,,,,,,,0,1,1,6,,,,,,,,,,,AMSA13.jpg,AMNE17.jpg,AMSA10.jpg,AMNE02.jpg,AMNE17.jpg,MN,1,num_6,32,num_8,2.59969940316,,,2017_Mar_09_1239,60.0004619023,FEMA4ImagesEEG,001,100049,
AFSA21.JPG,AFNE22.JPG,AFNE21.JPG,AFSA23.JPG,AFSA22.JPG,AFNE23.JPG,,,,,,,,,,,,,0,2,2,0,,,,,,,,,,,AMSA09.jpg,AMSA10.jpg,AMNE09.jpg,AMNE13.jpg,AMNE13.jpg,MN,1,num_4,32,num_2,0.900182244368,,,2017_Mar_09_1239,60.0004619023,FEMA4ImagesEEG,001,100049,
AMSA21.JPG,AMNE22.JPG,AMNE21.JPG,AMSA23.JPG,AMSA22.JPG,AMNE23.JPG,,,,,,,,,,,,,0,3,3,1,,,,,,,,,,,AMSA13.jpg,AMSA14.jpg,AMNE14.jpg,AMNE12.jpg,AMSA14.jpg,MS,2,num_6,16,num_6,1.00014080387,,,2017_Mar_09_1239,60.0004619023,FEMA4ImagesEEG,001,100049,
AMNE23.JPG,AMNE24.JPG,AMNE22.JPG,AMSA24.JPG,AMSA22.JPG,AMSA23.JPG,,,,,,,,,,,,,0,4,4,9,,,,,,,,,,,AMSA14.jpg,AMSA07.jpg,AMNE10.jpg,AMNE20.jpg,AMNE10.jpg,MN,1,num_2,16,num_2,1.25035185181,,,2017_Mar_09_1239,60.0004619023,FEMA4ImagesEEG,001,100049,
AMNE22.JPG,AMSA24.JPG,AMSA22.JPG,AMNE25.JPG,AMNE24.JPG,AMSA25.JPG,,,,,,,,,,,,,0,5,5,7,,,,,,,,,,,AMNE05.jpg,AMSA08.jpg,AMNE16.jpg,AMSA02.jpg,AMSA08.jpg,MS,2,num_6,32,num_4,0.983477731235,,,2017_Mar_09_1239,60.0004619023,FEMA4ImagesEEG,001,100049,
AFNE23.JPG,AFNE24.JPG,AFNE22.JPG,AFSA24.JPG,AFSA22.JPG,AFSA23.JPG,,,,,,,,,,,,,0,6,6,8,,,,,,,,,,,AMSA13.jpg,AMNE03.jpg,AMNE20.jpg,AMSA09.jpg,AMSA13.jpg,MS,2,num_8,16,num_8,1.03344385978,,,2017_Mar_09_1239,60.0004619023,FEMA4ImagesEEG,001,100049,
AMSA25.JPG,AMNE24.JPG,AMSA24.JPG,AMNE26.JPG,AMSA21.JPG,AMNE25.JPG,,,,,,,,,,,,,0,7,7,3,,,,,,,,,,,AMNE06.jpg,AMSA04.jpg,AMNE20.jpg,AMSA10.jpg,AMSA04.jpg,MS,2,num_6,16,num_6,1.03346727416,,,2017_Mar_09_1239,60.0004619023,FEMA4ImagesEEG,001,100049,
AFSA21.JPG,AFNE23.JPG,AFNE21.JPG,AFSA25.JPG,AFNE25.JPG,AFSA23.JPG,,,,,,,,,,,,,0,8,8,4,,,,,,,,,,,AMNE20.jpg,AMSA02.jpg,AMSA19.jpg,AMNE06.jpg,AMSA02.jpg,MS,2,num_6,16,num_6,0.733488314785,,,2017_Mar_09_1239,60.0004619023,FEMA4ImagesEEG,001,100049,
AMSA21.JPG,AMNE23.JPG,AMNE21.JPG,AMSA25.JPG,AMNE25.JPG,AMSA23.JPG,,,,,,,,,,,,,0,9,9,5,,,,,,,,,,,AMSA16.jpg,AMNE19.jpg,AMSA06.jpg,AMNE08.jpg,AMSA16.jpg,MS,2,num_8,16,num_8,0.9001338128,,,2017_Mar_09_1239,60.0004619023,FEMA4ImagesEEG,001,100049,
AMSA21.JPG,AMNE22.JPG,AMNE21.JPG,AMSA23.JPG,AMSA22.JPG,AMNE23.JPG,,,,,,,,,,,,,,,,,0,0,0,1,,,,,,,AFSA19.jpg,AFSA03.jpg,AFNE06.jpg,AFNE09.jpg,AFSA03.jpg,FS,4,num_6,32,num_8,3.69991679955,,,2017_Mar_09_1239,60.0004619023,FEMA4ImagesEEG,001,100049,
AFSA25.JPG,AFNE24.JPG,AFSA24.JPG,AFNE21.JPG,AFSA21.JPG,AFNE25.JPG,,,,,,,,,,,,,,,,,0,1,1,2,,,,,,,AFNE04.jpg,AFNE10.jpg,AFSA12.jpg,AFSA16.jpg,AFNE10.jpg,FN,3,num_6,32,num_2,1.98307808861,,,2017_Mar_09_1239,60.0004619023,FEMA4ImagesEEG,001,100049,
AMSA21.JPG,AMNE23.JPG,AMNE21.JPG,AMSA25.JPG,AMNE25.JPG,AMSA23.JPG,,,,,,,,,,,,,,,,,0,2,2,5,,,,,,,AFSA07.jpg,AFSA06.jpg,AFNE09.jpg,AFNE16.jpg,AFNE16.jpg,FN,3,num_4,16,num_4,1.16677668039,,,2017_Mar_09_1239,60.0004619023,FEMA4ImagesEEG,001,100049,
AFSA21.JPG,AFNE22.JPG,AFNE21.JPG,AFSA23.JPG,AFSA22.JPG,AFNE23.JPG,,,,,,,,,,,,,,,,,0,3,3,0,,,,,,,AFNE03.jpg,AFSA01.jpg,AFSA15.jpg,AFNE11.jpg,AFSA01.jpg,FS,4,num_6,16,num_6,1.15008217376,,,2017_Mar_09_1239,60.0004619023,FEMA4ImagesEEG,001,100049,
AFSA21.JPG,AFNE23.JPG,AFNE21.JPG,AFSA25.JPG,AFNE25.JPG,AFSA23.JPG,,,,,,,,,,,,,,,,,0,4,4,4,,,,,,,AFSA03.jpg,AFSA08.jpg,AFNE12.jpg,AFNE08.jpg,AFNE08.jpg,FN,3,num_4,32,num_2,1.13347747456,,,2017_Mar_09_1239,60.0004619023,FEMA4ImagesEEG,001,100049,
AMNE22.JPG,AMSA24.JPG,AMSA22.JPG,AMNE25.JPG,AMNE24.JPG,AMSA25.JPG,,,,,,,,,,,,,,,,,0,5,5,7,,,,,,,AFNE07.jpg,AFNE20.jpg,AFSA05.jpg,AFSA01.jpg,AFSA01.jpg,FS,4,num_4,32,num_6,1.25007120427,,,2017_Mar_09_1239,60.0004619023,FEMA4ImagesEEG,001,100049,
AMNE23.JPG,AMNE24.JPG,AMNE22.JPG,AMSA24.JPG,AMSA22.JPG,AMSA23.JPG,,,,,,,,,,,,,,,,,0,6,6,9,,,,,,,AFNE01.jpg,AFSA09.jpg,AFSA12.jpg,AFNE18.jpg,AFNE01.jpg,FN,3,num_8,32,num_4,1.36672844086,,,2017_Mar_09_1239,60.0004619023,FEMA4ImagesEEG,001,100049,
AFNE22.JPG,AFSA24.JPG,AFSA22.JPG,AFNE25.JPG,AFNE24.JPG,AFSA25.JPG,,,,,,,,,,,,,,,,,0,7,7,6,,,,,,,AFNE05.jpg,AFSA01.jpg,AFNE03.jpg,AFSA20.jpg,AFSA20.jpg,FS,4,num_4,32,num_6,1.13348869979,,,2017_Mar_09_1239,60.0004619023,FEMA4ImagesEEG,001,100049,
AFNE23.JPG,AFNE24.JPG,AFNE22.JPG,AFSA24.JPG,AFSA22.JPG,AFSA23.JPG,,,,,,,,,,,,,,,,,0,8,8,8,,,,,,,AFNE09.jpg,AFSA14.jpg,AFNE15.jpg,AFSA05.jpg,AFNE09.jpg,FN,3,num_8,16,num_8,0.966733508743,,,2017_Mar_09_1239,60.0004619023,FEMA4ImagesEEG,001,100049,
AMSA25.JPG,AMNE24.JPG,AMSA24.JPG,AMNE26.JPG,AMSA21.JPG,AMNE25.JPG,,,,,,,,,,,,,,,,,0,9,9,3,,,,,,,AFNE02.jpg,AFSA02.jpg,AFSA14.jpg,AFNE11.jpg,AFSA02.jpg,FS,4,num_6,16,num_6,0.716782260686,,,2017_Mar_09_1239,60.0004619023,FEMA4ImagesEEG,001,100049,
AFNE23.JPG,AFNE24.JPG,AFNE22.JPG,AFSA24.JPG,AFSA22.JPG,AFSA23.JPG,,,,,,,,,,,,,,,,,,,,,0,0,0,8,,,AMNE09.jpg,AMSA06.jpg,AMNE14.jpg,AMSA08.jpg,AMNE09.jpg,MN,1,num_8,16,num_8,1.24995221011,,,2017_Mar_09_1239,60.0004619023,FEMA4ImagesEEG,001,100049,
AMSA25.JPG,AMNE24.JPG,AMSA24.JPG,AMNE26.JPG,AMSA21.JPG,AMNE25.JPG,,,,,,,,,,,,,,,,,,,,,0,1,1,3,,,AMSA04.jpg,AMSA11.jpg,AMNE14.jpg,AMNE18.jpg,AMSA11.jpg,MS,2,num_6,16,num_6,0.800142857246,,,2017_Mar_09_1239,60.0004619023,FEMA4ImagesEEG,001,100049,
AFSA25.JPG,AFNE24.JPG,AFSA24.JPG,AFNE21.JPG,AFSA21.JPG,AFNE25.JPG,,,,,,,,,,,,,,,,,,,,,0,2,2,2,,,AMSA15.jpg,AMSA03.jpg,AMNE01.jpg,AMNE08.jpg,AMSA15.jpg,MS,2,num_8,16,num_8,1.36662965268,,,2017_Mar_09_1239,60.0004619023,FEMA4ImagesEEG,001,100049,
AFSA21.JPG,AFNE23.JPG,AFNE21.JPG,AFSA25.JPG,AFNE25.JPG,AFSA23.JPG,,,,,,,,,,,,,,,,,,,,,0,3,3,4,,,AMNE07.jpg,AMSA01.jpg,AMNE18.jpg,AMSA14.jpg,AMNE18.jpg,MN,1,num_2,32,num_8,1.03343135212,,,2017_Mar_09_1239,60.0004619023,FEMA4ImagesEEG,001,100049,
AFSA21.JPG,AFNE22.JPG,AFNE21.JPG,AFSA23.JPG,AFSA22.JPG,AFNE23.JPG,,,,,,,,,,,,,,,,,,,,,0,4,4,0,,,AMNE15.jpg,AMSA10.jpg,AMNE10.jpg,AMSA15.jpg,AMNE15.jpg,MN,1,num_8,16,num_8,1.25009461865,,,2017_Mar_09_1239,60.0004619023,FEMA4ImagesEEG,001,100049,
AMSA21.JPG,AMNE23.JPG,AMNE21.JPG,AMSA25.JPG,AMNE25.JPG,AMSA23.JPG,,,,,,,,,,,,,,,,,,,,,0,5,5,5,,,AMSA02.jpg,AMSA13.jpg,AMNE06.jpg,AMNE11.jpg,AMNE06.jpg,MN,1,num_2,16,num_2,1.81700543128,,,2017_Mar_09_1239,60.0004619023,FEMA4ImagesEEG,001,100049,
AFNE22.JPG,AFSA24.JPG,AFSA22.JPG,AFNE25.JPG,AFNE24.JPG,AFSA25.JPG,,,,,,,,,,,,,,,,,,,,,0,6,6,6,,,AMNE09.jpg,AMSA07.jpg,AMNE20.jpg,AMSA17.jpg,AMNE20.jpg,MN,1,num_2,32,num_8,0.916826074012,,,2017_Mar_09_1239,60.0004619023,FEMA4ImagesEEG,001,100049,
AMNE22.JPG,AMSA24.JPG,AMSA22.JPG,AMNE25.JPG,AMNE24.JPG,AMSA25.JPG,,,,,,,,,,,,,,,,,,,,,0,7,7,7,,,AMSA04.jpg,AMNE06.jpg,AMNE15.jpg,AMSA13.jpg,AMNE06.jpg,MN,1,num_6,32,num_2,0.916826394387,,,2017_Mar_09_1239,60.0004619023,FEMA4ImagesEEG,001,100049,
AMNE23.JPG,AMNE24.JPG,AMNE22.JPG,AMSA24.JPG,AMSA22.JPG,AMSA23.JPG,,,,,,,,,,,,,,,,,,,,,0,8,8,9,,,AMNE03.jpg,AMSA12.jpg,AMNE20.jpg,AMSA19.jpg,AMSA12.jpg,MS,2,num_6,32,num_8,1.61673389375,,,2017_Mar_09_1239,60.0004619023,FEMA4ImagesEEG,001,100049,
AMSA21.JPG,AMNE22.JPG,AMNE21.JPG,AMSA23.JPG,AMSA22.JPG,AMNE23.JPG,,,,,,,,,,,,,,,,,,,,,0,9,9,1,,,AMNE07.jpg,AMSA16.jpg,AMNE12.jpg,AMSA06.jpg,AMSA06.jpg,MS,2,num_4,16,num_4,2.13335334696,,,2017_Mar_09_1239,60.0004619023,FEMA4ImagesEEG,001,100049,
,,,,,,,,,,,,,,,,,,,,,,,,,,,,,,,,,,,,,,,,,,,space,14.8486752808,2017_Mar_09_1239,60.0004619023,FEMA4ImagesEEG,001,100049,
AFNE01.JPG,AFNE01.JPG,AFNE01.JPG,AFNE01.JPG,AFNE01.JPG,AFNE01.JPG,0,0,0,7,,,,,,,,,,,,,,,,,,,,,,,AFNE07.jpg,AFSA01.jpg,AFNE12.jpg,AFSA05.jpg,AFNE12.jpg,FN,3,num_2,32,num_8,0.783480744809,,,2017_Mar_09_1239,60.0004619023,FEMA4ImagesEEG,001,100049,
AFNE01.JPG,AFNE01.JPG,AFNE01.JPG,AFNE01.JPG,AFNE01.JPG,AFNE01.JPG,0,1,1,6,,,,,,,,,,,,,,,,,,,,,,,AFNE05.jpg,AFSA14.jpg,AFSA12.jpg,AFNE03.jpg,AFNE03.jpg,FN,3,num_4,16,num_4,0.850132080726,,,2017_Mar_09_1239,60.0004619023,FEMA4ImagesEEG,001,100049,
AFNE01.JPG,AFNE01.JPG,AFNE01.JPG,AFNE01.JPG,AFNE01.JPG,AFNE01.JPG,0,2,2,5,,,,,,,,,,,,,,,,,,,,,,,AFNE14.jpg,AFSA08.jpg,AFNE19.jpg,AFSA07.jpg,AFSA07.jpg,FS,4,num_4,32,num_8,1.31675140653,,,2017_Mar_09_1239,60.0004619023,FEMA4ImagesEEG,001,100049,
AFNE01.JPG,AFNE01.JPG,AFNE01.JPG,AFNE01.JPG,AFNE01.JPG,AFNE01.JPG,0,3,3,2,,,,,,,,,,,,,,,,,,,,,,,AFSA05.jpg,AFNE06.jpg,AFSA06.jpg,AFNE18.jpg,AFSA05.jpg,FS,4,num_8,32,num_4,1.43341666181,,,2017_Mar_09_1239,60.0004619023,FEMA4ImagesEEG,001,100049,
AFNE01.JPG,AFNE01.JPG,AFNE01.JPG,AFNE01.JPG,AFNE01.JPG,AFNE01.JPG,0,4,4,4,,,,,,,,,,,,,,,,,,,,,,,AFSA07.jpg,AFSA11.jpg,AFNE17.jpg,AFNE08.jpg,AFSA11.jpg,FS,4,num_6,16,num_6,0.633529113606,,,2017_Mar_09_1239,60.0004619023,FEMA4ImagesEEG,001,100049,
AFNE01.JPG,AFNE01.JPG,AFNE01.JPG,AFNE01.JPG,AFNE01.JPG,AFNE01.JPG,0,5,5,8,,,,,,,,,,,,,,,,,,,,,,,AFNE20.jpg,AFSA13.jpg,AFSA15.jpg,AFNE18.jpg,AFNE18.jpg,FN,3,num_4,32,num_8,0.816691107117,,,2017_Mar_09_1239,60.0004619023,FEMA4ImagesEEG,001,100049,
AFNE01.JPG,AFNE01.JPG,AFNE01.JPG,AFNE01.JPG,AFNE01.JPG,AFNE01.JPG,0,6,6,9,,,,,,,,,,,,,,,,,,,,,,,AFSA02.jpg,AFNE15.jpg,AFSA12.jpg,AFNE11.jpg,AFNE15.jpg,FN,3,num_6,16,num_6,0.900144076906,,,2017_Mar_09_1239,60.0004619023,FEMA4ImagesEEG,001,100049,
AFNE01.JPG,AFNE01.JPG,AFNE01.JPG,AFNE01.JPG,AFNE01.JPG,AFNE01.JPG,0,7,7,0,,,,,,,,,,,,,,,,,,,,,,,AFSA09.jpg,AFNE12.jpg,AFNE09.jpg,AFSA18.jpg,AFSA18.jpg,FS,4,num_4,16,num_4,1.10008814,,,2017_Mar_09_1239,60.0004619023,FEMA4ImagesEEG,001,100049,
AFNE01.JPG,AFNE01.JPG,AFNE01.JPG,AFNE01.JPG,AFNE01.JPG,AFNE01.JPG,0,8,8,3,,,,,,,,,,,,,,,,,,,,,,,AFNE13.jpg,AFNE11.jpg,AFSA20.jpg,AFSA09.jpg,AFNE11.jpg,FN,3,num_6,16,num_6,0.850127589889,,,2017_Mar_09_1239,60.0004619023,FEMA4ImagesEEG,001,100049,
AFNE01.JPG,AFNE01.JPG,AFNE01.JPG,AFNE01.JPG,AFNE01.JPG,AFNE01.JPG,0,9,9,1,,,,,,,,,,,,,,,,,,,,,,,AFNE05.jpg,AFSA07.jpg,AFSA17.jpg,AFNE16.jpg,AFSA17.jpg,FS,4,num_2,16,num_2,1.65010430384,,,2017_Mar_09_1239,60.0004619023,FEMA4ImagesEEG,001,100049,
AFNE01.JPG,AFNE01.JPG,AFNE01.JPG,AFNE01.JPG,AFNE01.JPG,AFNE01.JPG,1,0,10,6,,,,,,,,,,,,,,,,,,,,,,,AFNE11.jpg,AFNE06.jpg,AFSA06.jpg,AFSA05.jpg,AFNE06.jpg,FN,3,num_6,16,num_6,0.983148651198,,,2017_Mar_09_1239,60.0004619023,FEMA4ImagesEEG,001,100049,
AFNE01.JPG,AFNE01.JPG,AFNE01.JPG,AFNE01.JPG,AFNE01.JPG,AFNE01.JPG,1,1,11,8,,,,,,,,,,,,,,,,,,,,,,,AFSA13.jpg,AFNE09.jpg,AFNE18.jpg,AFSA04.jpg,AFNE18.jpg,FN,3,num_2,32,num_6,0.75015908666,,,2017_Mar_09_1239,60.0004619023,FEMA4ImagesEEG,001,100049,
AFNE01.JPG,AFNE01.JPG,AFNE01.JPG,AFNE01.JPG,AFNE01.JPG,AFNE01.JPG,1,2,12,3,,,,,,,,,,,,,,,,,,,,,,,AFNE13.jpg,AFNE11.jpg,AFSA05.jpg,AFSA17.jpg,AFSA17.jpg,FS,4,num_4,16,num_4,0.950205145404,,,2017_Mar_09_1239,60.0004619023,FEMA4ImagesEEG,001,100049,
AFNE01.JPG,AFNE01.JPG,AFNE01.JPG,AFNE01.JPG,AFNE01.JPG,AFNE01.JPG,1,3,13,9,,,,,,,,,,,,,,,,,,,,,,,AFSA08.jpg,AFNE16.jpg,AFNE07.jpg,AFSA05.jpg,AFNE07.jpg,FN,3,num_2,16,num_2,1.91696559638,,,2017_Mar_09_1239,60.0004619023,FEMA4ImagesEEG,001,100049,
AFNE01.JPG,AFNE01.JPG,AFNE01.JPG,AFNE01.JPG,AFNE01.JPG,AFNE01.JPG,1,4,14,0,,,,,,,,,,,,,,,,,,,,,,,AFSA18.jpg,AFSA11.jpg,AFNE01.jpg,AFNE04.jpg,AFNE04.jpg,FN,3,num_4,16,num_4,0.850126628764,,,2017_Mar_09_1239,60.0004619023,FEMA4ImagesEEG,001,100049,
AFNE01.JPG,AFNE01.JPG,AFNE01.JPG,AFNE01.JPG,AFNE01.JPG,AFNE01.JPG,1,5,15,7,,,,,,,,,,,,,,,,,,,,,,,AFSA19.jpg,AFNE18.jpg,AFNE06.jpg,AFSA09.jpg,AFSA19.jpg,FS,4,num_8,32,num_4,2.11669572536,,,2017_Mar_09_1239,60.0004619023,FEMA4ImagesEEG,001,100049,
AFNE01.JPG,AFNE01.JPG,AFNE01.JPG,AFNE01.JPG,AFNE01.JPG,AFNE01.JPG,1,6,16,4,,,,,,,,,,,,,,,,,,,,,,,AFNE12.jpg,AFSA02.jpg,AFNE06.jpg,AFSA18.jpg,AFNE12.jpg,FN,3,num_8,16,num_8,0.766813822091,,,2017_Mar_09_1239,60.0004619023,FEMA4ImagesEEG,001,100049,
AFNE01.JPG,AFNE01.JPG,AFNE01.JPG,AFNE01.JPG,AFNE01.JPG,AFNE01.JPG,1,7,17,2,,,,,,,,,,,,,,,,,,,,,,,AFSA19.jpg,AFNE09.jpg,AFSA08.jpg,AFNE06.jpg,AFSA19.jpg,FS,4,num_8,32,num_2,1.35006055608,,,2017_Mar_09_1239,60.0004619023,FEMA4ImagesEEG,001,100049,
AFNE01.JPG,AFNE01.JPG,AFNE01.JPG,AFNE01.JPG,AFNE01.JPG,AFNE01.JPG,1,8,18,5,,,,,,,,,,,,,,,,,,,,,,,AFSA05.jpg,AFNE07.jpg,AFNE14.jpg,AFSA11.jpg,AFNE14.jpg,FN,3,num_2,32,num_6,1.73342705425,,,2017_Mar_09_1239,60.0004619023,FEMA4ImagesEEG,001,100049,
AFNE01.JPG,AFNE01.JPG,AFNE01.JPG,AFNE01.JPG,AFNE01.JPG,AFNE01.JPG,1,9,19,1,,,,,,,,,,,,,,,,,,,,,,,AFNE11.jpg,AFNE12.jpg,AFSA09.jpg,AFSA03.jpg,AFSA03.jpg,FS,4,num_4,16,num_4,0.900131567381,,,2017_Mar_09_1239,60.0004619023,FEMA4ImagesEEG,001,100049,
AFNE01.JPG,AFNE01.JPG,AFNE01.JPG,AFNE01.JPG,AFNE01.JPG,AFNE01.JPG,2,0,20,0,,,,,,,,,,,,,,,,,,,,,,,AFNE11.jpg,AFNE13.jpg,AFSA11.jpg,AFSA13.jpg,AFSA13.jpg,FS,4,num_4,16,num_4,0.783451236784,,,2017_Mar_09_1239,60.0004619023,FEMA4ImagesEEG,001,100049,
AFNE01.JPG,AFNE01.JPG,AFNE01.JPG,AFNE01.JPG,AFNE01.JPG,AFNE01.JPG,2,1,21,4,,,,,,,,,,,,,,,,,,,,,,,AFSA14.jpg,AFNE16.jpg,AFNE04.jpg,AFSA05.jpg,AFSA14.jpg,FS,4,num_8,32,num_4,0.300198987126,,,2017_Mar_09_1239,60.0004619023,FEMA4ImagesEEG,001,100049,
AFNE01.JPG,AFNE01.JPG,AFNE01.JPG,AFNE01.JPG,AFNE01.JPG,AFNE01.JPG,2,2,22,9,,,,,,,,,,,,,,,,,,,,,,,AFNE08.jpg,AFSA11.jpg,AFNE02.jpg,AFSA18.jpg,AFSA18.jpg,FS,4,num_4,16,num_4,0.683490752243,,,2017_Mar_09_1239,60.0004619023,FEMA4ImagesEEG,001,100049,
AFNE01.JPG,AFNE01.JPG,AFNE01.JPG,AFNE01.JPG,AFNE01.JPG,AFNE01.JPG,2,3,23,2,,,,,,,,,,,,,,,,,,,,,,,AFNE14.jpg,AFSA10.jpg,AFSA04.jpg,AFNE08.jpg,AFSA10.jpg,FS,4,num_6,16,num_6,0.833497872576,,,2017_Mar_09_1239,60.0004619023,FEMA4ImagesEEG,001,100049,
AFNE01.JPG,AFNE01.JPG,AFNE01.JPG,AFNE01.JPG,AFNE01.JPG,AFNE01.JPG,2,4,24,6,,,,,,,,,,,,,,,,,,,,,,,AFNE07.jpg,AFSA09.jpg,AFSA16.jpg,AFNE05.jpg,AFNE07.jpg,FN,3,num_8,32,num_4,0.583752219565,,,2017_Mar_09_1239,60.0004619023,FEMA4ImagesEEG,001,100049,
AFNE01.JPG,AFNE01.JPG,AFNE01.JPG,AFNE01.JPG,AFNE01.JPG,AFNE01.JPG,2,5,25,7,,,,,,,,,,,,,,,,,,,,,,,AFSA03.jpg,AFNE18.jpg,AFNE12.jpg,AFSA17.jpg,AFSA03.jpg,FS,4,num_8,16,num_8,0.90015017055,,,2017_Mar_09_1239,60.0004619023,FEMA4ImagesEEG,001,100049,
AFNE01.JPG,AFNE01.JPG,AFNE01.JPG,AFNE01.JPG,AFNE01.JPG,AFNE01.JPG,2,6,26,8,,,,,,,,,,,,,,,,,,,,,,,AFSA02.jpg,AFNE19.jpg,AFNE18.jpg,AFSA08.jpg,AFNE19.jpg,FN,3,num_6,16,num_6,0.833450403064,,,2017_Mar_09_1239,60.0004619023,FEMA4ImagesEEG,001,100049,
AFNE01.JPG,AFNE01.JPG,AFNE01.JPG,AFNE01.JPG,AFNE01.JPG,AFNE01.JPG,2,7,27,5,,,,,,,,,,,,,,,,,,,,,,,AFNE02.jpg,AFSA15.jpg,AFSA20.jpg,AFNE13.jpg,AFSA20.jpg,FS,4,num_2,32,num_4,0.900145679712,,,2017_Mar_09_1239,60.0004619023,FEMA4ImagesEEG,001,100049,
AFNE01.JPG,AFNE01.JPG,AFNE01.JPG,AFNE01.JPG,AFNE01.JPG,AFNE01.JPG,2,8,28,3,,,,,,,,,,,,,,,,,,,,,,,AFNE04.jpg,AFSA14.jpg,AFNE11.jpg,AFSA13.jpg,AFNE04.jpg,FN,3,num_8,32,num_2,1.21676430013,,,2017_Mar_09_1239,60.0004619023,FEMA4ImagesEEG,001,100049,
AFNE01.JPG,AFNE01.JPG,AFNE01.JPG,AFNE01.JPG,AFNE01.JPG,AFNE01.JPG,2,9,29,1,,,,,,,,,,,,,,,,,,,,,,,AFSA09.jpg,AFNE08.jpg,AFNE18.jpg,AFSA07.jpg,AFSA09.jpg,FS,4,num_8,16,num_8,0.833468044177,,,2017_Mar_09_1239,60.0004619023,FEMA4ImagesEEG,001,100049,
AFNE01.JPG,AFNE01.JPG,AFNE01.JPG,AFNE01.JPG,AFNE01.JPG,AFNE01.JPG,3,0,30,0,,,,,,,,,,,,,,,,,,,,,,,AFSA13.jpg,AFNE04.jpg,AFNE01.jpg,AFSA10.jpg,AFSA10.jpg,FS,4,num_4,16,num_4,1.05007870961,,,2017_Mar_09_1239,60.0004619023,FEMA4ImagesEEG,001,100049,
AFNE01.JPG,AFNE01.JPG,AFNE01.JPG,AFNE01.JPG,AFNE01.JPG,AFNE01.JPG,3,1,31,1,,,,,,,,,,,,,,,,,,,,,,,AFSA04.jpg,AFSA15.jpg,AFNE08.jpg,AFNE03.jpg,AFSA15.jpg,FS,4,num_6,32,num_2,2.39999076258,,,2017_Mar_09_1239,60.0004619023,FEMA4ImagesEEG,001,100049,
AFNE01.JPG,AFNE01.JPG,AFNE01.JPG,AFNE01.JPG,AFNE01.JPG,AFNE01.JPG,3,2,32,4,,,,,,,,,,,,,,,,,,,,,,,AFNE11.jpg,AFNE17.jpg,AFSA11.jpg,AFSA17.jpg,AFNE17.jpg,FN,3,num_6,16,num_6,1.55007069092,,,2017_Mar_09_1239,60.0004619023,FEMA4ImagesEEG,001,100049,
AFNE01.JPG,AFNE01.JPG,AFNE01.JPG,AFNE01.JPG,AFNE01.JPG,AFNE01.JPG,3,3,33,5,,,,,,,,,,,,,,,,,,,,,,,AFSA19.jpg,AFNE01.jpg,AFSA11.jpg,AFNE14.jpg,AFSA19.jpg,FS,4,num_8,32,num_2,1.38341460936,,,2017_Mar_09_1239,60.0004619023,FEMA4ImagesEEG,001,100049,
AFNE01.JPG,AFNE01.JPG,AFNE01.JPG,AFNE01.JPG,AFNE01.JPG,AFNE01.JPG,3,4,34,6,,,,,,,,,,,,,,,,,,,,,,,AFSA11.jpg,AFNE05.jpg,AFNE15.jpg,AFSA03.jpg,AFNE15.jpg,FN,3,num_2,32,num_8,1.35012855288,,,2017_Mar_09_1239,60.0004619023,FEMA4ImagesEEG,001,100049,
AFNE01.JPG,AFNE01.JPG,AFNE01.JPG,AFNE01.JPG,AFNE01.JPG,AFNE01.JPG,3,5,35,9,,,,,,,,,,,,,,,,,,,,,,,AFNE12.jpg,AFNE17.jpg,AFSA20.jpg,AFSA07.jpg,AFSA07.jpg,FS,4,num_4,16,num_4,1.18345835805,,,2017_Mar_09_1239,60.0004619023,FEMA4ImagesEEG,001,100049,
AFNE01.JPG,AFNE01.JPG,AFNE01.JPG,AFNE01.JPG,AFNE01.JPG,AFNE01.JPG,3,6,36,3,,,,,,,,,,,,,,,,,,,,,,,AFNE20.jpg,AFNE16.jpg,AFSA18.jpg,AFSA07.jpg,AFSA18.jpg,FS,4,num_2,32,num_6,1.7833938254,,,2017_Mar_09_1239,60.0004619023,FEMA4ImagesEEG,001,100049,
AFNE01.JPG,AFNE01.JPG,AFNE01.JPG,AFNE01.JPG,AFNE01.JPG,AFNE01.JPG,3,7,37,8,,,,,,,,,,,,,,,,,,,,,,,AFSA10.jpg,AFNE09.jpg,AFSA11.jpg,AFNE01.jpg,AFNE09.jpg,FN,3,num_6,32,num_8,1.13345630467,,,2017_Mar_09_1239,60.0004619023,FEMA4ImagesEEG,001,100049,
AFNE01.JPG,AFNE01.JPG,AFNE01.JPG,AFNE01.JPG,AFNE01.JPG,AFNE01.JPG,3,8,38,7,,,,,,,,,,,,,,,,,,,,,,,AFNE13.jpg,AFSA01.jpg,AFNE02.jpg,AFSA07.jpg,AFNE02.jpg,FN,3,num_2,16,num_2,1.48347452283,,,2017_Mar_09_1239,60.0004619023,FEMA4ImagesEEG,001,100049,
AFNE01.JPG,AFNE01.JPG,AFNE01.JPG,AFNE01.JPG,AFNE01.JPG,AFNE01.JPG,3,9,39,2,,,,,,,,,,,,,,,,,,,,,,,AFSA08.jpg,AFNE14.jpg,AFNE16.jpg,AFSA15.jpg,AFNE14.jpg,FN,3,num_6,16,num_6,1.33345970511,,,2017_Mar_09_1239,60.0004619023,FEMA4ImagesEEG,001,100049,
AFNE01.JPG,AFNE01.JPG,AFNE01.JPG,AFNE01.JPG,AFNE01.JPG,AFNE01.JPG,4,0,40,8,,,,,,,,,,,,,,,,,,,,,,,AFNE06.jpg,AFNE13.jpg,AFSA03.jpg,AFSA19.jpg,AFSA19.jpg,FS,4,num_4,32,num_2,1.90007543843,,,2017_Mar_09_1239,60.0004619023,FEMA4ImagesEEG,001,100049,
AFNE01.JPG,AFNE01.JPG,AFNE01.JPG,AFNE01.JPG,AFNE01.JPG,AFNE01.JPG,4,1,41,2,,,,,,,,,,,,,,,,,,,,,,,AFSA05.jpg,AFNE09.jpg,AFSA04.jpg,AFNE16.jpg,AFNE09.jpg,FN,3,num_6,16,num_6,1.73339979071,,,2017_Mar_09_1239,60.0004619023,FEMA4ImagesEEG,001,100049,
AFNE01.JPG,AFNE01.JPG,AFNE01.JPG,AFNE01.JPG,AFNE01.JPG,AFNE01.JPG,4,2,42,4,,,,,,,,,,,,,,,,,,,,,,,AFSA07.jpg,AFNE05.jpg,AFNE11.jpg,AFSA11.jpg,AFNE05.jpg,FN,3,num_6,16,num_6,1.70005856734,,,2017_Mar_09_1239,60.0004619023,FEMA4ImagesEEG,001,100049,
AFNE01.JPG,AFNE01.JPG,AFNE01.JPG,AFNE01.JPG,AFNE01.JPG,AFNE01.JPG,4,3,43,6,,,,,,,,,,,,,,,,,,,,,,,AFNE15.jpg,AFSA12.jpg,AFNE05.jpg,AFSA03.jpg,AFNE05.jpg,FN,3,num_2,32,num_6,0.816775140353,,,2017_Mar_09_1239,60.0004619023,FEMA4ImagesEEG,001,100049,
AFNE01.JPG,AFNE01.JPG,AFNE01.JPG,AFNE01.JPG,AFNE01.JPG,AFNE01.JPG,4,4,44,7,,,,,,,,,,,,,,,,,,,,,,,AFNE05.jpg,AFNE20.jpg,AFSA08.jpg,AFSA09.jpg,AFSA08.jpg,FS,4,num_2,32,num_8,1.01674390119,,,2017_Mar_09_1239,60.0004619023,FEMA4ImagesEEG,001,100049,
AFNE01.JPG,AFNE01.JPG,AFNE01.JPG,AFNE01.JPG,AFNE01.JPG,AFNE01.JPG,4,5,45,9,,,,,,,,,,,,,,,,,,,,,,,AFSA10.jpg,AFNE10.jpg,AFSA12.jpg,AFNE11.jpg,AFSA12.jpg,FS,4,num_2,32,num_6,1.51671856176,,,2017_Mar_09_1239,60.0004619023,FEMA4ImagesEEG,001,100049,
AFNE01.JPG,AFNE01.JPG,AFNE01.JPG,AFNE01.JPG,AFNE01.JPG,AFNE01.JPG,4,6,46,5,,,,,,,,,,,,,,,,,,,,,,,AFNE13.jpg,AFSA08.jpg,AFNE09.jpg,AFSA12.jpg,AFNE13.jpg,FN,3,num_8,16,num_8,0.916768983006,,,2017_Mar_09_1239,60.0004619023,FEMA4ImagesEEG,001,100049,
AFNE01.JPG,AFNE01.JPG,AFNE01.JPG,AFNE01.JPG,AFNE01.JPG,AFNE01.JPG,4,7,47,3,,,,,,,,,,,,,,,,,,,,,,,AFNE01.jpg,AFNE14.jpg,AFSA12.jpg,AFSA20.jpg,AFSA12.jpg,FS,4,num_2,16,num_2,0.950100904331,,,2017_Mar_09_1239,60.0004619023,FEMA4ImagesEEG,001,100049,
AFNE01.JPG,AFNE01.JPG,AFNE01.JPG,AFNE01.JPG,AFNE01.JPG,AFNE01.JPG,4,8,48,0,,,,,,,,,,,,,,,,,,,,,,,AFNE20.jpg,AFNE06.jpg,AFSA09.jpg,AFSA05.jpg,AFSA09.jpg,FS,4,num_2,16,num_2,0.983479974791,,,2017_Mar_09_1239,60.0004619023,FEMA4ImagesEEG,001,100049,
AFNE01.JPG,AFNE01.JPG,AFNE01.JPG,AFNE01.JPG,AFNE01.JPG,AFNE01.JPG,4,9,49,1,,,,,,,,,,,,,,,,,,,,,,,AFNE08.jpg,AFNE11.jpg,AFSA11.jpg,AFSA10.jpg,AFNE11.jpg,FN,3,num_6,32,num_2,0.966814976186,,,2017_Mar_09_1239,60.0004619023,FEMA4ImagesEEG,001,100049,
AFNE01.JPG,AFNE01.JPG,AFNE01.JPG,AFNE01.JPG,AFNE01.JPG,AFNE01.JPG,5,0,50,9,,,,,,,,,,,,,,,,,,,,,,,AFSA06.jpg,AFSA20.jpg,AFNE08.jpg,AFNE19.jpg,AFNE08.jpg,FN,3,num_2,32,num_8,0.783532706089,,,2017_Mar_09_1239,60.0004619023,FEMA4ImagesEEG,001,100049,
AFNE01.JPG,AFNE01.JPG,AFNE01.JPG,AFNE01.JPG,AFNE01.JPG,AFNE01.JPG,5,1,51,7,,,,,,,,,,,,,,,,,,,,,,,AFNE12.jpg,AFSA15.jpg,AFSA11.jpg,AFNE17.jpg,AFNE12.jpg,FN,3,num_8,32,num_6,0.766761862673,,,2017_Mar_09_1239,60.0004619023,FEMA4ImagesEEG,001,100049,
AFNE01.JPG,AFNE01.JPG,AFNE01.JPG,AFNE01.JPG,AFNE01.JPG,AFNE01.JPG,5,2,52,4,,,,,,,,,,,,,,,,,,,,,,,AFSA19.jpg,AFNE07.jpg,AFNE08.jpg,AFSA15.jpg,AFSA19.jpg,FS,4,num_8,32,num_4,3.14959721547,,,2017_Mar_09_1239,60.0004619023,FEMA4ImagesEEG,001,100049,
AFNE01.JPG,AFNE01.JPG,AFNE01.JPG,AFNE01.JPG,AFNE01.JPG,AFNE01.JPG,5,3,53,2,,,,,,,,,,,,,,,,,,,,,,,AFSA16.jpg,AFSA11.jpg,AFNE16.jpg,AFNE14.jpg,AFNE16.jpg,FN,3,num_2,32,num_8,0.900080248713,,,2017_Mar_09_1239,60.0004619023,FEMA4ImagesEEG,001,100049,
AFNE01.JPG,AFNE01.JPG,AFNE01.JPG,AFNE01.JPG,AFNE01.JPG,AFNE01.JPG,5,4,54,0,,,,,,,,,,,,,,,,,,,,,,,AFSA13.jpg,AFNE15.jpg,AFSA06.jpg,AFNE05.jpg,AFSA13.jpg,FS,4,num_8,32,num_2,1.55007678457,,,2017_Mar_09_1239,60.0004619023,FEMA4ImagesEEG,001,100049,
AFNE01.JPG,AFNE01.JPG,AFNE01.JPG,AFNE01.JPG,AFNE01.JPG,AFNE01.JPG,5,5,55,6,,,,,,,,,,,,,,,,,,,,,,,AFNE03.jpg,AFNE16.jpg,AFSA19.jpg,AFSA10.jpg,AFNE03.jpg,FN,3,num_8,16,num_8,0.816812025383,,,2017_Mar_09_1239,60.0004619023,FEMA4ImagesEEG,001,100049,
AFNE01.JPG,AFNE01.JPG,AFNE01.JPG,AFNE01.JPG,AFNE01.JPG,AFNE01.JPG,5,6,56,3,,,,,,,,,,,,,,,,,,,,,,,AFSA07.jpg,AFSA02.jpg,AFNE06.jpg,AFNE16.jpg,AFSA02.jpg,FS,4,num_6,16,num_6,0.933467337862,,,2017_Mar_09_1239,60.0004619023,FEMA4ImagesEEG,001,100049,
AFNE01.JPG,AFNE01.JPG,AFNE01.JPG,AFNE01.JPG,AFNE01.JPG,AFNE01.JPG,5,7,57,8,,,,,,,,,,,,,,,,,,,,,,,AFSA13.jpg,AFNE11.jpg,AFSA08.jpg,AFNE01.jpg,AFSA13.jpg,FS,4,num_8,16,num_8,1.78340280522,,,2017_Mar_09_1239,60.0004619023,FEMA4ImagesEEG,001,100049,
AFNE01.JPG,AFNE01.JPG,AFNE01.JPG,AFNE01.JPG,AFNE01.JPG,AFNE01.JPG,5,8,58,5,,,,,,,,,,,,,,,,,,,,,,,AFNE12.jpg,AFSA05.jpg,AFSA08.jpg,AFNE20.jpg,AFNE12.jpg,FN,3,num_8,32,num_4,4.53320330568,,,2017_Mar_09_1239,60.0004619023,FEMA4ImagesEEG,001,100049,
AFNE01.JPG,AFNE01.JPG,AFNE01.JPG,AFNE01.JPG,AFNE01.JPG,AFNE01.JPG,5,9,59,1,,,,,,,,,,,,,,,,,,,,,,,AFSA12.jpg,AFNE19.jpg,AFNE10.jpg,AFSA19.jpg,AFNE19.jpg,FN,3,num_6,16,num_6,0.916759039275,,,2017_Mar_09_1239,60.0004619023,FEMA4ImagesEEG,001,100049,
,,,,,,,,,,,,,,,,,,,,,,,,,,,,,,,,,,,,,,,,,,,space,19.0317567689,2017_Mar_09_1239,60.0004619023,FEMA4ImagesEEG,001,100049,
AFNE01.JPG,AFNE01.JPG,AFNE01.JPG,AFNE01.JPG,AFNE01.JPG,AFNE01.JPG,,,,,0,0,0,4,,,,,,,,,,,,,,,,,,,AMSA06.jpg,AMNE15.jpg,AMNE12.jpg,AMSA15.jpg,AMSA15.jpg,MS,2,num_4,16,num_4,0.58335770946,,,2017_Mar_09_1239,60.0004619023,FEMA4ImagesEEG,001,100049,
AFNE01.JPG,AFNE01.JPG,AFNE01.JPG,AFNE01.JPG,AFNE01.JPG,AFNE01.JPG,,,,,0,1,1,5,,,,,,,,,,,,,,,,,,,AMNE16.jpg,AMSA07.jpg,AMNE11.jpg,AMSA15.jpg,AMNE11.jpg,MN,1,num_2,32,num_8,0.966774884611,,,2017_Mar_09_1239,60.0004619023,FEMA4ImagesEEG,001,100049,
AFNE01.JPG,AFNE01.JPG,AFNE01.JPG,AFNE01.JPG,AFNE01.JPG,AFNE01.JPG,,,,,0,2,2,9,,,,,,,,,,,,,,,,,,,AMNE11.jpg,AMSA01.jpg,AMSA07.jpg,AMNE18.jpg,AMNE11.jpg,MN,1,num_8,16,num_8,0.750164539553,,,2017_Mar_09_1239,60.0004619023,FEMA4ImagesEEG,001,100049,
AFNE01.JPG,AFNE01.JPG,AFNE01.JPG,AFNE01.JPG,AFNE01.JPG,AFNE01.JPG,,,,,0,3,3,3,,,,,,,,,,,,,,,,,,,AMSA04.jpg,AMNE01.jpg,AMSA20.jpg,AMNE18.jpg,AMSA20.jpg,MS,2,num_2,32,num_6,1.18340768013,,,2017_Mar_09_1239,60.0004619023,FEMA4ImagesEEG,001,100049,
AFNE01.JPG,AFNE01.JPG,AFNE01.JPG,AFNE01.JPG,AFNE01.JPG,AFNE01.JPG,,,,,0,4,4,7,,,,,,,,,,,,,,,,,,,AMNE12.jpg,AMSA02.jpg,AMSA08.jpg,AMNE08.jpg,AMSA02.jpg,MS,2,num_6,16,num_6,0.8834832469,,,2017_Mar_09_1239,60.0004619023,FEMA4ImagesEEG,001,100049,
AFNE01.JPG,AFNE01.JPG,AFNE01.JPG,AFNE01.JPG,AFNE01.JPG,AFNE01.JPG,,,,,0,5,5,6,,,,,,,,,,,,,,,,,,,AMSA08.jpg,AMNE16.jpg,AMNE06.jpg,AMSA15.jpg,AMSA15.jpg,MS,2,num_4,32,num_2,1.21669758577,,,2017_Mar_09_1239,60.0004619023,FEMA4ImagesEEG,001,100049,
AFNE01.JPG,AFNE01.JPG,AFNE01.JPG,AFNE01.JPG,AFNE01.JPG,AFNE01.JPG,,,,,0,6,6,2,,,,,,,,,,,,,,,,,,,AMSA09.jpg,AMSA10.jpg,AMNE04.jpg,AMNE10.jpg,AMNE04.jpg,MN,1,num_2,32,num_6,0.850010199472,,,2017_Mar_09_1239,60.0004619023,FEMA4ImagesEEG,001,100049,
AFNE01.JPG,AFNE01.JPG,AFNE01.JPG,AFNE01.JPG,AFNE01.JPG,AFNE01.JPG,,,,,0,7,7,8,,,,,,,,,,,,,,,,,,,AMSA15.jpg,AMNE01.jpg,AMNE20.jpg,AMSA04.jpg,AMNE01.jpg,MN,1,num_6,16,num_6,0.933435584418,,,2017_Mar_09_1239,60.0004619023,FEMA4ImagesEEG,001,100049,
AFNE01.JPG,AFNE01.JPG,AFNE01.JPG,AFNE01.JPG,AFNE01.JPG,AFNE01.JPG,,,,,0,8,8,1,,,,,,,,,,,,,,,,,,,AMNE04.jpg,AMNE18.jpg,AMSA03.jpg,AMSA10.jpg,AMSA03.jpg,MS,2,num_2,16,num_2,1.01673556119,,,2017_Mar_09_1239,60.0004619023,FEMA4ImagesEEG,001,100049,
AFNE01.JPG,AFNE01.JPG,AFNE01.JPG,AFNE01.JPG,AFNE01.JPG,AFNE01.JPG,,,,,0,9,9,0,,,,,,,,,,,,,,,,,,,AMNE05.jpg,AMSA08.jpg,AMSA13.jpg,AMNE10.jpg,AMSA08.jpg,MS,2,num_6,32,num_4,0.916494430043,,,2017_Mar_09_1239,60.0004619023,FEMA4ImagesEEG,001,100049,
AFNE01.JPG,AFNE01.JPG,AFNE01.JPG,AFNE01.JPG,AFNE01.JPG,AFNE01.JPG,,,,,1,0,10,7,,,,,,,,,,,,,,,,,,,AMNE16.jpg,AMSA17.jpg,AMSA02.jpg,AMNE11.jpg,AMNE11.jpg,MN,1,num_4,32,num_2,0.83343725279,,,2017_Mar_09_1239,60.0004619023,FEMA4ImagesEEG,001,100049,
AFNE01.JPG,AFNE01.JPG,AFNE01.JPG,AFNE01.JPG,AFNE01.JPG,AFNE01.JPG,,,,,1,1,11,1,,,,,,,,,,,,,,,,,,,AMNE06.jpg,AMSA14.jpg,AMSA06.jpg,AMNE18.jpg,AMNE18.jpg,MN,1,num_4,32,num_8,1.616710159,,,2017_Mar_09_1239,60.0004619023,FEMA4ImagesEEG,001,100049,
AFNE01.JPG,AFNE01.JPG,AFNE01.JPG,AFNE01.JPG,AFNE01.JPG,AFNE01.JPG,,,,,1,2,12,0,,,,,,,,,,,,,,,,,,,AMNE15.jpg,AMSA11.jpg,AMNE12.jpg,AMSA07.jpg,AMSA11.jpg,MS,2,num_6,16,num_6,0.816754613072,,,2017_Mar_09_1239,60.0004619023,FEMA4ImagesEEG,001,100049,
AFNE01.JPG,AFNE01.JPG,AFNE01.JPG,AFNE01.JPG,AFNE01.JPG,AFNE01.JPG,,,,,1,3,13,4,,,,,,,,,,,,,,,,,,,AMNE05.jpg,AMNE04.jpg,AMSA13.jpg,AMSA07.jpg,AMSA13.jpg,MS,2,num_2,32,num_4,1.33341319766,,,2017_Mar_09_1239,60.0004619023,FEMA4ImagesEEG,001,100049,
AFNE01.JPG,AFNE01.JPG,AFNE01.JPG,AFNE01.JPG,AFNE01.JPG,AFNE01.JPG,,,,,1,4,14,5,,,,,,,,,,,,,,,,,,,AMSA20.jpg,AMNE14.jpg,AMSA01.jpg,AMNE08.jpg,AMSA20.jpg,MS,2,num_8,16,num_8,0.683446169831,,,2017_Mar_09_1239,60.0004619023,FEMA4ImagesEEG,001,100049,
AFNE01.JPG,AFNE01.JPG,AFNE01.JPG,AFNE01.JPG,AFNE01.JPG,AFNE01.JPG,,,,,1,5,15,8,,,,,,,,,,,,,,,,,,,AMNE04.jpg,AMSA07.jpg,AMNE10.jpg,AMSA14.jpg,AMNE04.jpg,MN,1,num_8,32,num_6,0.866760835983,,,2017_Mar_09_1239,60.0004619023,FEMA4ImagesEEG,001,100049,
AFNE01.JPG,AFNE01.JPG,AFNE01.JPG,AFNE01.JPG,AFNE01.JPG,AFNE01.JPG,,,,,1,6,16,9,,,,,,,,,,,,,,,,,,,AMSA11.jpg,AMNE14.jpg,AMSA05.jpg,AMNE03.jpg,AMNE03.jpg,MN,1,num_4,32,num_8,0.733321851119,,,2017_Mar_09_1239,60.0004619023,FEMA4ImagesEEG,001,100049,
AFNE01.JPG,AFNE01.JPG,AFNE01.JPG,AFNE01.JPG,AFNE01.JPG,AFNE01.JPG,,,,,1,7,17,2,,,,,,,,,,,,,,,,,,,AMSA06.jpg,AMSA01.jpg,AMNE04.jpg,AMNE10.jpg,AMSA01.jpg,MS,2,num_6,16,num_6,1.31675846316,,,2017_Mar_09_1239,60.0004619023,FEMA4ImagesEEG,001,100049,
AFNE01.JPG,AFNE01.JPG,AFNE01.JPG,AFNE01.JPG,AFNE01.JPG,AFNE01.JPG,,,,,1,8,18,3,,,,,,,,,,,,,,,,,,,AMSA02.jpg,AMNE15.jpg,AMSA09.jpg,AMNE02.jpg,AMNE02.jpg,MN,1,num_4,32,num_2,0.783455407247,,,2017_Mar_09_1239,60.0004619023,FEMA4ImagesEEG,001,100049,
AFNE01.JPG,AFNE01.JPG,AFNE01.JPG,AFNE01.JPG,AFNE01.JPG,AFNE01.JPG,,,,,1,9,19,6,,,,,,,,,,,,,,,,,,,AMNE08.jpg,AMSA01.jpg,AMSA11.jpg,AMNE20.jpg,AMNE08.jpg,MN,1,num_8,32,num_6,0.983469711617,,,2017_Mar_09_1239,60.0004619023,FEMA4ImagesEEG,001,100049,
AFNE01.JPG,AFNE01.JPG,AFNE01.JPG,AFNE01.JPG,AFNE01.JPG,AFNE01.JPG,,,,,2,0,20,6,,,,,,,,,,,,,,,,,,,AMNE20.jpg,AMNE01.jpg,AMSA14.jpg,AMSA07.jpg,AMSA14.jpg,MS,2,num_2,16,num_2,1.34985656478,,,2017_Mar_09_1239,60.0004619023,FEMA4ImagesEEG,001,100049,
AFNE01.JPG,AFNE01.JPG,AFNE01.JPG,AFNE01.JPG,AFNE01.JPG,AFNE01.JPG,,,,,2,1,21,1,,,,,,,,,,,,,,,,,,,AMSA03.jpg,AMSA09.jpg,AMNE03.jpg,AMNE04.jpg,AMNE03.jpg,MN,1,num_2,32,num_4,0.366857377812,,,2017_Mar_09_1239,60.0004619023,FEMA4ImagesEEG,001,100049,
AFNE01.JPG,AFNE01.JPG,AFNE01.JPG,AFNE01.JPG,AFNE01.JPG,AFNE01.JPG,,,,,2,2,22,8,,,,,,,,,,,,,,,,,,,AMNE05.jpg,AMSA09.jpg,AMNE07.jpg,AMSA08.jpg,AMNE05.jpg,MN,1,num_8,32,num_6,1.96669309586,,,2017_Mar_09_1239,60.0004619023,FEMA4ImagesEEG,001,100049,
AFNE01.JPG,AFNE01.JPG,AFNE01.JPG,AFNE01.JPG,AFNE01.JPG,AFNE01.JPG,,,,,2,3,23,9,,,,,,,,,,,,,,,,,,,AMSA13.jpg,AMNE11.jpg,AMSA06.jpg,AMNE07.jpg,AMSA06.jpg,MS,2,num_2,16,num_2,0.916808754206,,,2017_Mar_09_1239,60.0004619023,FEMA4ImagesEEG,001,100049,
AFNE01.JPG,AFNE01.JPG,AFNE01.JPG,AFNE01.JPG,AFNE01.JPG,AFNE01.JPG,,,,,2,4,24,7,,,,,,,,,,,,,,,,,,,AMNE12.jpg,AMSA19.jpg,AMSA09.jpg,AMNE01.jpg,AMSA19.jpg,MS,2,num_6,16,num_6,0.566799838096,,,2017_Mar_09_1239,60.0004619023,FEMA4ImagesEEG,001,100049,
AFNE01.JPG,AFNE01.JPG,AFNE01.JPG,AFNE01.JPG,AFNE01.JPG,AFNE01.JPG,,,,,2,5,25,2,,,,,,,,,,,,,,,,,,,AMSA11.jpg,AMNE15.jpg,AMSA16.jpg,AMNE20.jpg,AMNE15.jpg,MN,1,num_6,32,num_4,1.11675955262,,,2017_Mar_09_1239,60.0004619023,FEMA4ImagesEEG,001,100049,
AFNE01.JPG,AFNE01.JPG,AFNE01.JPG,AFNE01.JPG,AFNE01.JPG,AFNE01.JPG,,,,,2,6,26,4,,,,,,,,,,,,,,,,,,,AMNE16.jpg,AMSA06.jpg,AMSA14.jpg,AMNE01.jpg,AMSA06.jpg,MS,2,num_6,32,num_8,1.43341602013,,,2017_Mar_09_1239,60.0004619023,FEMA4ImagesEEG,001,100049,
AFNE01.JPG,AFNE01.JPG,AFNE01.JPG,AFNE01.JPG,AFNE01.JPG,AFNE01.JPG,,,,,2,7,27,5,,,,,,,,,,,,,,,,,,,AMNE02.jpg,AMNE17.jpg,AMSA07.jpg,AMSA14.jpg,AMNE02.jpg,MN,1,num_8,32,num_2,1.98333692551,,,2017_Mar_09_1239,60.0004619023,FEMA4ImagesEEG,001,100049,
AFNE01.JPG,AFNE01.JPG,AFNE01.JPG,AFNE01.JPG,AFNE01.JPG,AFNE01.JPG,,,,,2,8,28,3,,,,,,,,,,,,,,,,,,,AMNE19.jpg,AMSA16.jpg,AMSA15.jpg,AMNE14.jpg,AMNE19.jpg,MN,1,num_8,16,num_8,1.1501338128,,,2017_Mar_09_1239,60.0004619023,FEMA4ImagesEEG,001,100049,
AFNE01.JPG,AFNE01.JPG,AFNE01.JPG,AFNE01.JPG,AFNE01.JPG,AFNE01.JPG,,,,,2,9,29,0,,,,,,,,,,,,,,,,,,,AMNE19.jpg,AMSA07.jpg,AMNE11.jpg,AMSA04.jpg,AMSA07.jpg,MS,2,num_6,16,num_6,0.850132722408,,,2017_Mar_09_1239,60.0004619023,FEMA4ImagesEEG,001,100049,
AFNE01.JPG,AFNE01.JPG,AFNE01.JPG,AFNE01.JPG,AFNE01.JPG,AFNE01.JPG,,,,,3,0,30,8,,,,,,,,,,,,,,,,,,,AMNE13.jpg,AMSA14.jpg,AMSA13.jpg,AMNE19.jpg,AMNE19.jpg,MN,1,num_4,16,num_4,0.866658198647,,,2017_Mar_09_1239,60.0004619023,FEMA4ImagesEEG,001,100049,
AFNE01.JPG,AFNE01.JPG,AFNE01.JPG,AFNE01.JPG,AFNE01.JPG,AFNE01.JPG,,,,,3,1,31,0,,,,,,,,,,,,,,,,,,,AMSA04.jpg,AMSA14.jpg,AMNE03.jpg,AMNE08.jpg,AMSA04.jpg,MS,2,num_8,16,num_8,1.26680516172,,,2017_Mar_09_1239,60.0004619023,FEMA4ImagesEEG,001,100049,
AFNE01.JPG,AFNE01.JPG,AFNE01.JPG,AFNE01.JPG,AFNE01.JPG,AFNE01.JPG,,,,,3,2,32,4,,,,,,,,,,,,,,,,,,,AMNE07.jpg,AMSA09.jpg,AMSA13.jpg,AMNE20.jpg,AMSA13.jpg,MS,2,num_2,32,num_6,0.83344719559,,,2017_Mar_09_1239,60.0004619023,FEMA4ImagesEEG,001,100049,
AFNE01.JPG,AFNE01.JPG,AFNE01.JPG,AFNE01.JPG,AFNE01.JPG,AFNE01.JPG,,,,,3,3,33,7,,,,,,,,,,,,,,,,,,,AMNE07.jpg,AMNE17.jpg,AMSA13.jpg,AMSA08.jpg,AMNE17.jpg,MN,1,num_6,48,None,,,,2017_Mar_09_1239,60.0004619023,FEMA4ImagesEEG,001,100049,
AFNE01.JPG,AFNE01.JPG,AFNE01.JPG,AFNE01.JPG,AFNE01.JPG,AFNE01.JPG,,,,,3,4,34,2,,,,,,,,,,,,,,,,,,,AMNE01.jpg,AMSA14.jpg,AMNE03.jpg,AMSA13.jpg,AMSA14.jpg,MS,2,num_6,16,num_6,0.883485492319,,,2017_Mar_09_1239,60.0004619023,FEMA4ImagesEEG,001,100049,
AFNE01.JPG,AFNE01.JPG,AFNE01.JPG,AFNE01.JPG,AFNE01.JPG,AFNE01.JPG,,,,,3,5,35,9,,,,,,,,,,,,,,,,,,,AMNE17.jpg,AMSA20.jpg,AMSA12.jpg,AMNE06.jpg,AMNE17.jpg,MN,1,num_8,16,num_8,1.20010411181,,,2017_Mar_09_1239,60.0004619023,FEMA4ImagesEEG,001,100049,
AFNE01.JPG,AFNE01.JPG,AFNE01.JPG,AFNE01.JPG,AFNE01.JPG,AFNE01.JPG,,,,,3,6,36,5,,,,,,,,,,,,,,,,,,,AMNE11.jpg,AMSA08.jpg,AMNE06.jpg,AMSA20.jpg,AMSA08.jpg,MS,2,num_6,16,num_6,1.58342987578,,,2017_Mar_09_1239,60.0004619023,FEMA4ImagesEEG,001,100049,
AFNE01.JPG,AFNE01.JPG,AFNE01.JPG,AFNE01.JPG,AFNE01.JPG,AFNE01.JPG,,,,,3,7,37,6,,,,,,,,,,,,,,,,,,,AMNE02.jpg,AMSA03.jpg,AMNE08.jpg,AMSA16.jpg,AMNE08.jpg,MN,1,num_2,16,num_2,1.16675615311,,,2017_Mar_09_1239,60.0004619023,FEMA4ImagesEEG,001,100049,
AFNE01.JPG,AFNE01.JPG,AFNE01.JPG,AFNE01.JPG,AFNE01.JPG,AFNE01.JPG,,,,,3,8,38,3,,,,,,,,,,,,,,,,,,,AMSA07.jpg,AMNE09.jpg,AMSA15.jpg,AMNE06.jpg,AMSA07.jpg,MS,2,num_8,32,num_4,0.783478500322,,,2017_Mar_09_1239,60.0004619023,FEMA4ImagesEEG,001,100049,
AFNE01.JPG,AFNE01.JPG,AFNE01.JPG,AFNE01.JPG,AFNE01.JPG,AFNE01.JPG,,,,,3,9,39,1,,,,,,,,,,,,,,,,,,,AMNE15.jpg,AMSA04.jpg,AMSA19.jpg,AMNE13.jpg,AMNE15.jpg,MN,1,num_8,32,num_6,0.750145936385,,,2017_Mar_09_1239,60.0004619023,FEMA4ImagesEEG,001,100049,
AFNE01.JPG,AFNE01.JPG,AFNE01.JPG,AFNE01.JPG,AFNE01.JPG,AFNE01.JPG,,,,,4,0,40,5,,,,,,,,,,,,,,,,,,,AMSA13.jpg,AMSA03.jpg,AMNE02.jpg,AMNE09.jpg,AMSA13.jpg,MS,2,num_8,32,num_2,0.416804263368,,,2017_Mar_09_1239,60.0004619023,FEMA4ImagesEEG,001,100049,
AFNE01.JPG,AFNE01.JPG,AFNE01.JPG,AFNE01.JPG,AFNE01.JPG,AFNE01.JPG,,,,,4,1,41,3,,,,,,,,,,,,,,,,,,,AMNE03.jpg,AMNE10.jpg,AMSA02.jpg,AMSA12.jpg,AMSA12.jpg,MS,2,num_4,32,num_8,0.783030747436,,,2017_Mar_09_1239,60.0004619023,FEMA4ImagesEEG,001,100049,
AFNE01.JPG,AFNE01.JPG,AFNE01.JPG,AFNE01.JPG,AFNE01.JPG,AFNE01.JPG,,,,,4,2,42,4,,,,,,,,,,,,,,,,,,,AMNE14.jpg,AMSA02.jpg,AMNE13.jpg,AMSA10.jpg,AMSA02.jpg,MS,2,num_6,16,num_6,0.816838326864,,,2017_Mar_09_1239,60.0004619023,FEMA4ImagesEEG,001,100049,
AFNE01.JPG,AFNE01.JPG,AFNE01.JPG,AFNE01.JPG,AFNE01.JPG,AFNE01.JPG,,,,,4,3,43,2,,,,,,,,,,,,,,,,,,,AMNE05.jpg,AMNE06.jpg,AMSA19.jpg,AMSA08.jpg,AMNE06.jpg,MN,1,num_6,32,num_4,0.933466376737,,,2017_Mar_09_1239,60.0004619023,FEMA4ImagesEEG,001,100049,
AFNE01.JPG,AFNE01.JPG,AFNE01.JPG,AFNE01.JPG,AFNE01.JPG,AFNE01.JPG,,,,,4,4,44,7,,,,,,,,,,,,,,,,,,,AMSA08.jpg,AMNE03.jpg,AMNE12.jpg,AMSA18.jpg,AMNE03.jpg,MN,1,num_6,16,num_6,0.683447131887,,,2017_Mar_09_1239,60.0004619023,FEMA4ImagesEEG,001,100049,
AFNE01.JPG,AFNE01.JPG,AFNE01.JPG,AFNE01.JPG,AFNE01.JPG,AFNE01.JPG,,,,,4,5,45,1,,,,,,,,,,,,,,,,,,,AMSA11.jpg,AMSA14.jpg,AMNE17.jpg,AMNE08.jpg,AMNE17.jpg,MN,1,num_2,32,num_4,1.70006754715,,,2017_Mar_09_1239,60.0004619023,FEMA4ImagesEEG,001,100049,
AFNE01.JPG,AFNE01.JPG,AFNE01.JPG,AFNE01.JPG,AFNE01.JPG,AFNE01.JPG,,,,,4,6,46,0,,,,,,,,,,,,,,,,,,,AMNE05.jpg,AMNE19.jpg,AMSA16.jpg,AMSA18.jpg,AMSA18.jpg,MS,2,num_4,32,num_2,1.10007883795,,,2017_Mar_09_1239,60.0004619023,FEMA4ImagesEEG,001,100049,
AFNE01.JPG,AFNE01.JPG,AFNE01.JPG,AFNE01.JPG,AFNE01.JPG,AFNE01.JPG,,,,,4,7,47,9,,,,,,,,,,,,,,,,,,,AMSA10.jpg,AMNE20.jpg,AMNE07.jpg,AMSA04.jpg,AMSA10.jpg,MS,2,num_8,32,num_6,1.0167259397,,,2017_Mar_09_1239,60.0004619023,FEMA4ImagesEEG,001,100049,
AFNE01.JPG,AFNE01.JPG,AFNE01.JPG,AFNE01.JPG,AFNE01.JPG,AFNE01.JPG,,,,,4,8,48,8,,,,,,,,,,,,,,,,,,,AMNE12.jpg,AMSA02.jpg,AMSA16.jpg,AMNE13.jpg,AMNE12.jpg,MN,1,num_8,32,num_2,0.916766737588,,,2017_Mar_09_1239,60.0004619023,FEMA4ImagesEEG,001,100049,
AFNE01.JPG,AFNE01.JPG,AFNE01.JPG,AFNE01.JPG,AFNE01.JPG,AFNE01.JPG,,,,,4,9,49,6,,,,,,,,,,,,,,,,,,,AMNE09.jpg,AMSA13.jpg,AMNE08.jpg,AMSA19.jpg,AMSA13.jpg,MS,2,num_6,16,num_6,0.81677321624,,,2017_Mar_09_1239,60.0004619023,FEMA4ImagesEEG,001,100049,
AFNE01.JPG,AFNE01.JPG,AFNE01.JPG,AFNE01.JPG,AFNE01.JPG,AFNE01.JPG,,,,,5,0,50,4,,,,,,,,,,,,,,,,,,,AMSA10.jpg,AMNE11.jpg,AMNE03.jpg,AMSA16.jpg,AMSA10.jpg,MS,2,num_8,32,num_6,0.866755383089,,,2017_Mar_09_1239,60.0004619023,FEMA4ImagesEEG,001,100049,
AFNE01.JPG,AFNE01.JPG,AFNE01.JPG,AFNE01.JPG,AFNE01.JPG,AFNE01.JPG,,,,,5,1,51,5,,,,,,,,,,,,,,,,,,,AMNE06.jpg,AMSA09.jpg,AMNE01.jpg,AMSA03.jpg,AMNE06.jpg,MN,1,num_8,32,num_2,1.15008762572,,,2017_Mar_09_1239,60.0004619023,FEMA4ImagesEEG,001,100049,
AFNE01.JPG,AFNE01.JPG,AFNE01.JPG,AFNE01.JPG,AFNE01.JPG,AFNE01.JPG,,,,,5,2,52,7,,,,,,,,,,,,,,,,,,,AMNE19.jpg,AMSA03.jpg,AMSA04.jpg,AMNE01.jpg,AMSA04.jpg,MS,2,num_2,16,num_2,2.78299803194,,,2017_Mar_09_1239,60.0004619023,FEMA4ImagesEEG,001,100049,
AFNE01.JPG,AFNE01.JPG,AFNE01.JPG,AFNE01.JPG,AFNE01.JPG,AFNE01.JPG,,,,,5,3,53,3,,,,,,,,,,,,,,,,,,,AMNE01.jpg,AMSA19.jpg,AMSA06.jpg,AMNE08.jpg,AMNE01.jpg,MN,1,num_8,16,num_8,1.51672144886,,,2017_Mar_09_1239,60.0004619023,FEMA4ImagesEEG,001,100049,
AFNE01.JPG,AFNE01.JPG,AFNE01.JPG,AFNE01.JPG,AFNE01.JPG,AFNE01.JPG,,,,,5,4,54,8,,,,,,,,,,,,,,,,,,,AMNE07.jpg,AMSA04.jpg,AMNE20.jpg,AMSA17.jpg,AMSA17.jpg,MS,2,num_4,16,num_4,0.866812475026,,,2017_Mar_09_1239,60.0004619023,FEMA4ImagesEEG,001,100049,
AFNE01.JPG,AFNE01.JPG,AFNE01.JPG,AFNE01.JPG,AFNE01.JPG,AFNE01.JPG,,,,,5,5,55,0,,,,,,,,,,,,,,,,,,,AMSA12.jpg,AMSA09.jpg,AMNE15.jpg,AMNE16.jpg,AMNE15.jpg,MN,1,num_2,32,num_8,0.783496782184,,,2017_Mar_09_1239,60.0004619023,FEMA4ImagesEEG,001,100049,
AFNE01.JPG,AFNE01.JPG,AFNE01.JPG,AFNE01.JPG,AFNE01.JPG,AFNE01.JPG,,,,,5,6,56,1,,,,,,,,,,,,,,,,,,,AMSA12.jpg,AMNE09.jpg,AMNE11.jpg,AMSA19.jpg,AMSA19.jpg,MS,2,num_4,32,num_6,0.666775397025,,,2017_Mar_09_1239,60.0004619023,FEMA4ImagesEEG,001,100049,
AFNE01.JPG,AFNE01.JPG,AFNE01.JPG,AFNE01.JPG,AFNE01.JPG,AFNE01.JPG,,,,,5,7,57,6,,,,,,,,,,,,,,,,,,,AMNE08.jpg,AMNE13.jpg,AMSA06.jpg,AMSA12.jpg,AMNE08.jpg,MN,1,num_8,32,num_4,0.916770907119,,,2017_Mar_09_1239,60.0004619023,FEMA4ImagesEEG,001,100049,
AFNE01.JPG,AFNE01.JPG,AFNE01.JPG,AFNE01.JPG,AFNE01.JPG,AFNE01.JPG,,,,,5,8,58,9,,,,,,,,,,,,,,,,,,,AMNE01.jpg,AMNE16.jpg,AMSA10.jpg,AMSA12.jpg,AMSA10.jpg,MS,2,num_2,32,num_6,1.30020989291,,,2017_Mar_09_1239,60.0004619023,FEMA4ImagesEEG,001,100049,
AFNE01.JPG,AFNE01.JPG,AFNE01.JPG,AFNE01.JPG,AFNE01.JPG,AFNE01.JPG,,,,,5,9,59,2,,,,,,,,,,,,,,,,,,,AMNE04.jpg,AMNE18.jpg,AMSA13.jpg,AMSA08.jpg,AMSA13.jpg,MS,2,num_2,32,num_6,0.61685481295,,,2017_Mar_09_1239,60.0004619023,FEMA4ImagesEEG,001,100049,
,,,,,,,,,,,,,,,,,,,,,,,,,,,,,,,,,,,,,,,,,,,space,21.2482420253,2017_Mar_09_1239,60.0004619023,FEMA4ImagesEEG,001,100049,
AFNE01.JPG,AFNE01.JPG,AFNE01.JPG,AFNE01.JPG,AFNE01.JPG,AFNE01.JPG,,,,,,,,,0,0,0,3,,,,,,,,,,,,,,,AFSA05.jpg,AFNE01.jpg,AFNE05.jpg,AFSA12.jpg,AFNE01.jpg,FN,3,num_6,16,num_6,1.21681433544,,,2017_Mar_09_1239,60.0004619023,FEMA4ImagesEEG,001,100049,
AFNE01.JPG,AFNE01.JPG,AFNE01.JPG,AFNE01.JPG,AFNE01.JPG,AFNE01.JPG,,,,,,,,,0,1,1,9,,,,,,,,,,,,,,,AFNE12.jpg,AFSA12.jpg,AFNE13.jpg,AFSA20.jpg,AFSA20.jpg,FS,4,num_4,16,num_4,1.61674479954,,,2017_Mar_09_1239,60.0004619023,FEMA4ImagesEEG,001,100049,
AFNE01.JPG,AFNE01.JPG,AFNE01.JPG,AFNE01.JPG,AFNE01.JPG,AFNE01.JPG,,,,,,,,,0,2,2,7,,,,,,,,,,,,,,,AFNE05.jpg,AFNE09.jpg,AFSA02.jpg,AFSA07.jpg,AFSA02.jpg,FS,4,num_2,32,num_6,0.733466504142,,,2017_Mar_09_1239,60.0004619023,FEMA4ImagesEEG,001,100049,
AFNE01.JPG,AFNE01.JPG,AFNE01.JPG,AFNE01.JPG,AFNE01.JPG,AFNE01.JPG,,,,,,,,,0,3,3,8,,,,,,,,,,,,,,,AFNE11.jpg,AFSA14.jpg,AFSA04.jpg,AFNE02.jpg,AFSA04.jpg,FS,4,num_2,32,num_6,1.11679419316,,,2017_Mar_09_1239,60.0004619023,FEMA4ImagesEEG,001,100049,
AFNE01.JPG,AFNE01.JPG,AFNE01.JPG,AFNE01.JPG,AFNE01.JPG,AFNE01.JPG,,,,,,,,,0,4,4,0,,,,,,,,,,,,,,,AFNE16.jpg,AFSA04.jpg,AFNE07.jpg,AFSA08.jpg,AFSA08.jpg,FS,4,num_4,32,num_2,0.900199564174,,,2017_Mar_09_1239,60.0004619023,FEMA4ImagesEEG,001,100049,
AFNE01.JPG,AFNE01.JPG,AFNE01.JPG,AFNE01.JPG,AFNE01.JPG,AFNE01.JPG,,,,,,,,,0,5,5,6,,,,,,,,,,,,,,,AFSA01.jpg,AFNE17.jpg,AFNE18.jpg,AFSA09.jpg,AFNE18.jpg,FN,3,num_2,16,num_2,1.03347849939,,,2017_Mar_09_1239,60.0004619023,FEMA4ImagesEEG,001,100049,
AFNE01.JPG,AFNE01.JPG,AFNE01.JPG,AFNE01.JPG,AFNE01.JPG,AFNE01.JPG,,,,,,,,,0,6,6,5,,,,,,,,,,,,,,,AFSA14.jpg,AFNE18.jpg,AFNE09.jpg,AFSA05.jpg,AFSA05.jpg,FS,4,num_4,16,num_4,0.883546112105,,,2017_Mar_09_1239,60.0004619023,FEMA4ImagesEEG,001,100049,
AFNE01.JPG,AFNE01.JPG,AFNE01.JPG,AFNE01.JPG,AFNE01.JPG,AFNE01.JPG,,,,,,,,,0,7,7,1,,,,,,,,,,,,,,,AFSA13.jpg,AFSA01.jpg,AFNE11.jpg,AFNE09.jpg,AFSA13.jpg,FS,4,num_8,16,num_8,0.600191738456,,,2017_Mar_09_1239,60.0004619023,FEMA4ImagesEEG,001,100049,
AFNE01.JPG,AFNE01.JPG,AFNE01.JPG,AFNE01.JPG,AFNE01.JPG,AFNE01.JPG,,,,,,,,,0,8,8,4,,,,,,,,,,,,,,,AFSA19.jpg,AFNE02.jpg,AFNE14.jpg,AFSA16.jpg,AFNE02.jpg,FN,3,num_6,16,num_6,0.850309770554,,,2017_Mar_09_1239,60.0004619023,FEMA4ImagesEEG,001,100049,
AFNE01.JPG,AFNE01.JPG,AFNE01.JPG,AFNE01.JPG,AFNE01.JPG,AFNE01.JPG,,,,,,,,,0,9,9,2,,,,,,,,,,,,,,,AFNE05.jpg,AFNE11.jpg,AFSA14.jpg,AFSA09.jpg,AFNE05.jpg,FN,3,num_8,16,num_8,0.850007954985,,,2017_Mar_09_1239,60.0004619023,FEMA4ImagesEEG,001,100049,
AFNE01.JPG,AFNE01.JPG,AFNE01.JPG,AFNE01.JPG,AFNE01.JPG,AFNE01.JPG,,,,,,,,,1,0,10,2,,,,,,,,,,,,,,,AFSA20.jpg,AFNE14.jpg,AFSA14.jpg,AFNE10.jpg,AFSA20.jpg,FS,4,num_8,48,None,,,,2017_Mar_09_1239,60.0004619023,FEMA4ImagesEEG,001,100049,
AFNE01.JPG,AFNE01.JPG,AFNE01.JPG,AFNE01.JPG,AFNE01.JPG,AFNE01.JPG,,,,,,,,,1,1,11,6,,,,,,,,,,,,,,,AFNE16.jpg,AFSA03.jpg,AFSA04.jpg,AFNE19.jpg,AFNE19.jpg,FN,3,num_4,32,num_6,0.33381797187,,,2017_Mar_09_1239,60.0004619023,FEMA4ImagesEEG,001,100049,
AFNE01.JPG,AFNE01.JPG,AFNE01.JPG,AFNE01.JPG,AFNE01.JPG,AFNE01.JPG,,,,,,,,,1,2,12,5,,,,,,,,,,,,,,,AFNE20.jpg,AFNE10.jpg,AFSA17.jpg,AFSA20.jpg,AFSA17.jpg,FS,4,num_2,32,num_8,0.550150875933,,,2017_Mar_09_1239,60.0004619023,FEMA4ImagesEEG,001,100049,
AFNE01.JPG,AFNE01.JPG,AFNE01.JPG,AFNE01.JPG,AFNE01.JPG,AFNE01.JPG,,,,,,,,,1,3,13,8,,,,,,,,,,,,,,,AFSA02.jpg,AFNE20.jpg,AFNE10.jpg,AFSA13.jpg,AFSA13.jpg,FS,4,num_4,16,num_4,0.4167843787,,,2017_Mar_09_1239,60.0004619023,FEMA4ImagesEEG,001,100049,
AFNE01.JPG,AFNE01.JPG,AFNE01.JPG,AFNE01.JPG,AFNE01.JPG,AFNE01.JPG,,,,,,,,,1,4,14,0,,,,,,,,,,,,,,,AFNE19.jpg,AFSA19.jpg,AFSA08.jpg,AFNE18.jpg,AFSA19.jpg,FS,4,num_6,16,num_6,0.333511344157,,,2017_Mar_09_1239,60.0004619023,FEMA4ImagesEEG,001,100049,
AFNE01.JPG,AFNE01.JPG,AFNE01.JPG,AFNE01.JPG,AFNE01.JPG,AFNE01.JPG,,,,,,,,,1,5,15,3,,,,,,,,,,,,,,,AFNE01.jpg,AFSA17.jpg,AFSA04.jpg,AFNE20.jpg,AFNE20.jpg,FN,3,num_4,16,num_4,0.816773857921,,,2017_Mar_09_1239,60.0004619023,FEMA4ImagesEEG,001,100049,
AFNE01.JPG,AFNE01.JPG,AFNE01.JPG,AFNE01.JPG,AFNE01.JPG,AFNE01.JPG,,,,,,,,,1,6,16,4,,,,,,,,,,,,,,,AFSA12.jpg,AFNE03.jpg,AFNE06.jpg,AFSA18.jpg,AFNE06.jpg,FN,3,num_2,16,num_2,0.50006254483,,,2017_Mar_09_1239,60.0004619023,FEMA4ImagesEEG,001,100049,
AFNE01.JPG,AFNE01.JPG,AFNE01.JPG,AFNE01.JPG,AFNE01.JPG,AFNE01.JPG,,,,,,,,,1,7,17,7,,,,,,,,,,,,,,,AFSA14.jpg,AFSA16.jpg,AFNE10.jpg,AFNE07.jpg,AFNE07.jpg,FN,3,num_4,32,num_6,0.433503582142,,,2017_Mar_09_1239,60.0004619023,FEMA4ImagesEEG,001,100049,
AFNE01.JPG,AFNE01.JPG,AFNE01.JPG,AFNE01.JPG,AFNE01.JPG,AFNE01.JPG,,,,,,,,,1,8,18,1,,,,,,,,,,,,,,,AFNE18.jpg,AFSA02.jpg,AFNE07.jpg,AFSA01.jpg,AFNE07.jpg,FN,3,num_2,16,num_2,0.850125986151,,,2017_Mar_09_1239,60.0004619023,FEMA4ImagesEEG,001,100049,
AFNE01.JPG,AFNE01.JPG,AFNE01.JPG,AFNE01.JPG,AFNE01.JPG,AFNE01.JPG,,,,,,,,,1,9,19,9,,,,,,,,,,,,,,,AFNE19.jpg,AFSA04.jpg,AFSA13.jpg,AFNE07.jpg,AFSA04.jpg,FS,4,num_6,32,num_8,0.550146064721,,,2017_Mar_09_1239,60.0004619023,FEMA4ImagesEEG,001,100049,
AFNE01.JPG,AFNE01.JPG,AFNE01.JPG,AFNE01.JPG,AFNE01.JPG,AFNE01.JPG,,,,,,,,,2,0,20,9,,,,,,,,,,,,,,,AFNE20.jpg,AFNE01.jpg,AFSA11.jpg,AFSA07.jpg,AFNE20.jpg,FN,3,num_8,32,num_6,0.516832425259,,,2017_Mar_09_1239,60.0004619023,FEMA4ImagesEEG,001,100049,
AFNE01.JPG,AFNE01.JPG,AFNE01.JPG,AFNE01.JPG,AFNE01.JPG,AFNE01.JPG,,,,,,,,,2,1,21,0,,,,,,,,,,,,,,,AFSA04.jpg,AFSA10.jpg,AFNE19.jpg,AFNE04.jpg,AFSA10.jpg,FS,4,num_6,32,num_4,1.61673229001,,,2017_Mar_09_1239,60.0004619023,FEMA4ImagesEEG,001,100049,
AFNE01.JPG,AFNE01.JPG,AFNE01.JPG,AFNE01.JPG,AFNE01.JPG,AFNE01.JPG,,,,,,,,,2,2,22,7,,,,,,,,,,,,,,,AFNE13.jpg,AFNE18.jpg,AFSA08.jpg,AFSA19.jpg,AFSA19.jpg,FS,4,num_4,32,num_2,0.716809202917,,,2017_Mar_09_1239,60.0004619023,FEMA4ImagesEEG,001,100049,
AFNE01.JPG,AFNE01.JPG,AFNE01.JPG,AFNE01.JPG,AFNE01.JPG,AFNE01.JPG,,,,,,,,,2,3,23,1,,,,,,,,,,,,,,,AFNE07.jpg,AFSA12.jpg,AFSA16.jpg,AFNE16.jpg,AFNE16.jpg,FN,3,num_4,16,num_4,1.26682889741,,,2017_Mar_09_1239,60.0004619023,FEMA4ImagesEEG,001,100049,
AFNE01.JPG,AFNE01.JPG,AFNE01.JPG,AFNE01.JPG,AFNE01.JPG,AFNE01.JPG,,,,,,,,,2,4,24,3,,,,,,,,,,,,,,,AFNE19.jpg,AFSA11.jpg,AFSA20.jpg,AFNE05.jpg,AFSA11.jpg,FS,4,num_6,16,num_6,1.13342551328,,,2017_Mar_09_1239,60.0004619023,FEMA4ImagesEEG,001,100049,
AFNE01.JPG,AFNE01.JPG,AFNE01.JPG,AFNE01.JPG,AFNE01.JPG,AFNE01.JPG,,,,,,,,,2,5,25,4,,,,,,,,,,,,,,,AFNE19.jpg,AFSA01.jpg,AFNE13.jpg,AFSA15.jpg,AFSA15.jpg,FS,4,num_4,16,num_4,0.883441230282,,,2017_Mar_09_1239,60.0004619023,FEMA4ImagesEEG,001,100049,
AFNE01.JPG,AFNE01.JPG,AFNE01.JPG,AFNE01.JPG,AFNE01.JPG,AFNE01.JPG,,,,,,,,,2,6,26,2,,,,,,,,,,,,,,,AFNE10.jpg,AFSA03.jpg,AFNE15.jpg,AFSA15.jpg,AFSA15.jpg,FS,4,num_4,32,num_8,1.05008031335,,,2017_Mar_09_1239,60.0004619023,FEMA4ImagesEEG,001,100049,
AFNE01.JPG,AFNE01.JPG,AFNE01.JPG,AFNE01.JPG,AFNE01.JPG,AFNE01.JPG,,,,,,,,,2,7,27,8,,,,,,,,,,,,,,,AFSA12.jpg,AFNE16.jpg,AFNE08.jpg,AFSA15.jpg,AFNE08.jpg,FN,3,num_2,32,num_4,1.45011501759,,,2017_Mar_09_1239,60.0004619023,FEMA4ImagesEEG,001,100049,
AFNE01.JPG,AFNE01.JPG,AFNE01.JPG,AFNE01.JPG,AFNE01.JPG,AFNE01.JPG,,,,,,,,,2,8,28,5,,,,,,,,,,,,,,,AFSA13.jpg,AFNE11.jpg,AFNE04.jpg,AFSA03.jpg,AFNE11.jpg,FN,3,num_6,32,num_8,0.766778220423,,,2017_Mar_09_1239,60.0004619023,FEMA4ImagesEEG,001,100049,
AFNE01.JPG,AFNE01.JPG,AFNE01.JPG,AFNE01.JPG,AFNE01.JPG,AFNE01.JPG,,,,,,,,,2,9,29,6,,,,,,,,,,,,,,,AFSA12.jpg,AFNE08.jpg,AFSA06.jpg,AFNE10.jpg,AFSA06.jpg,FS,4,num_2,16,num_2,0.766798426397,,,2017_Mar_09_1239,60.0004619023,FEMA4ImagesEEG,001,100049,
AFNE01.JPG,AFNE01.JPG,AFNE01.JPG,AFNE01.JPG,AFNE01.JPG,AFNE01.JPG,,,,,,,,,3,0,30,3,,,,,,,,,,,,,,,AFSA08.jpg,AFNE04.jpg,AFSA11.jpg,AFNE07.jpg,AFNE04.jpg,FN,3,num_6,16,num_6,1.0171002429,,,2017_Mar_09_1239,60.0004619023,FEMA4ImagesEEG,001,100049,
AFNE01.JPG,AFNE01.JPG,AFNE01.JPG,AFNE01.JPG,AFNE01.JPG,AFNE01.JPG,,,,,,,,,3,1,31,6,,,,,,,,,,,,,,,AFSA17.jpg,AFSA18.jpg,AFNE09.jpg,AFNE02.jpg,AFNE09.jpg,FN,3,num_2,32,num_4,3.13298738375,,,2017_Mar_09_1239,60.0004619023,FEMA4ImagesEEG,001,100049,
AFNE01.JPG,AFNE01.JPG,AFNE01.JPG,AFNE01.JPG,AFNE01.JPG,AFNE01.JPG,,,,,,,,,3,2,32,1,,,,,,,,,,,,,,,AFNE13.jpg,AFSA08.jpg,AFNE12.jpg,AFSA01.jpg,AFSA01.jpg,FS,4,num_4,32,num_6,0.766843330115,,,2017_Mar_09_1239,60.0004619023,FEMA4ImagesEEG,001,100049,
AFNE01.JPG,AFNE01.JPG,AFNE01.JPG,AFNE01.JPG,AFNE01.JPG,AFNE01.JPG,,,,,,,,,3,3,33,2,,,,,,,,,,,,,,,AFNE14.jpg,AFSA15.jpg,AFNE20.jpg,AFSA16.jpg,AFSA15.jpg,FS,4,num_6,32,num_8,0.633526225574,,,2017_Mar_09_1239,60.0004619023,FEMA4ImagesEEG,001,100049,
AFNE01.JPG,AFNE01.JPG,AFNE01.JPG,AFNE01.JPG,AFNE01.JPG,AFNE01.JPG,,,,,,,,,3,4,34,9,,,,,,,,,,,,,,,AFSA11.jpg,AFNE08.jpg,AFNE15.jpg,AFSA04.jpg,AFNE08.jpg,FN,3,num_6,32,num_4,1.01673075091,,,2017_Mar_09_1239,60.0004619023,FEMA4ImagesEEG,001,100049,
AFNE01.JPG,AFNE01.JPG,AFNE01.JPG,AFNE01.JPG,AFNE01.JPG,AFNE01.JPG,,,,,,,,,3,5,35,7,,,,,,,,,,,,,,,AFNE03.jpg,AFNE08.jpg,AFSA09.jpg,AFSA08.jpg,AFNE08.jpg,FN,3,num_6,16,num_6,0.633531999774,,,2017_Mar_09_1239,60.0004619023,FEMA4ImagesEEG,001,100049,
AFNE01.JPG,AFNE01.JPG,AFNE01.JPG,AFNE01.JPG,AFNE01.JPG,AFNE01.JPG,,,,,,,,,3,6,36,0,,,,,,,,,,,,,,,AFSA20.jpg,AFNE01.jpg,AFNE11.jpg,AFSA18.jpg,AFNE11.jpg,FN,3,num_2,32,num_8,0.850159022957,,,2017_Mar_09_1239,60.0004619023,FEMA4ImagesEEG,001,100049,
AFNE01.JPG,AFNE01.JPG,AFNE01.JPG,AFNE01.JPG,AFNE01.JPG,AFNE01.JPG,,,,,,,,,3,7,37,4,,,,,,,,,,,,,,,AFNE14.jpg,AFSA09.jpg,AFNE11.jpg,AFSA18.jpg,AFNE14.jpg,FN,3,num_8,32,num_2,0.783461822197,,,2017_Mar_09_1239,60.0004619023,FEMA4ImagesEEG,001,100049,
AFNE01.JPG,AFNE01.JPG,AFNE01.JPG,AFNE01.JPG,AFNE01.JPG,AFNE01.JPG,,,,,,,,,3,8,38,8,,,,,,,,,,,,,,,AFSA11.jpg,AFNE03.jpg,AFSA17.jpg,AFNE02.jpg,AFNE02.jpg,FN,3,num_4,32,num_8,2.11670214124,,,2017_Mar_09_1239,60.0004619023,FEMA4ImagesEEG,001,100049,
AFNE01.JPG,AFNE01.JPG,AFNE01.JPG,AFNE01.JPG,AFNE01.JPG,AFNE01.JPG,,,,,,,,,3,9,39,5,,,,,,,,,,,,,,,AFSA19.jpg,AFNE10.jpg,AFSA09.jpg,AFNE04.jpg,AFNE10.jpg,FN,3,num_6,32,num_8,0.78337137308,,,2017_Mar_09_1239,60.0004619023,FEMA4ImagesEEG,001,100049,
AFNE01.JPG,AFNE01.JPG,AFNE01.JPG,AFNE01.JPG,AFNE01.JPG,AFNE01.JPG,,,,,,,,,4,0,40,6,,,,,,,,,,,,,,,AFSA16.jpg,AFNE20.jpg,AFNE01.jpg,AFSA11.jpg,AFNE01.jpg,FN,3,num_2,32,num_6,0.733474843204,,,2017_Mar_09_1239,60.0004619023,FEMA4ImagesEEG,001,100049,
AFNE01.JPG,AFNE01.JPG,AFNE01.JPG,AFNE01.JPG,AFNE01.JPG,AFNE01.JPG,,,,,,,,,4,1,41,3,,,,,,,,,,,,,,,AFSA02.jpg,AFNE09.jpg,AFSA20.jpg,AFNE17.jpg,AFSA20.jpg,FS,4,num_2,32,num_4,0.616775911301,,,2017_Mar_09_1239,60.0004619023,FEMA4ImagesEEG,001,100049,
AFNE01.JPG,AFNE01.JPG,AFNE01.JPG,AFNE01.JPG,AFNE01.JPG,AFNE01.JPG,,,,,,,,,4,2,42,7,,,,,,,,,,,,,,,AFSA08.jpg,AFNE07.jpg,AFSA12.jpg,AFNE14.jpg,AFNE07.jpg,FN,3,num_6,16,num_6,0.716792204417,,,2017_Mar_09_1239,60.0004619023,FEMA4ImagesEEG,001,100049,
AFNE01.JPG,AFNE01.JPG,AFNE01.JPG,AFNE01.JPG,AFNE01.JPG,AFNE01.JPG,,,,,,,,,4,3,43,0,,,,,,,,,,,,,,,AFSA16.jpg,AFNE04.jpg,AFSA15.jpg,AFNE09.jpg,AFSA16.jpg,FS,4,num_8,32,num_2,1.1667843787,,,2017_Mar_09_1239,60.0004619023,FEMA4ImagesEEG,001,100049,
AFNE01.JPG,AFNE01.JPG,AFNE01.JPG,AFNE01.JPG,AFNE01.JPG,AFNE01.JPG,,,,,,,,,4,4,44,9,,,,,,,,,,,,,,,AFSA02.jpg,AFNE08.jpg,AFNE18.jpg,AFSA16.jpg,AFNE18.jpg,FN,3,num_2,32,num_4,0.716783544049,,,2017_Mar_09_1239,60.0004619023,FEMA4ImagesEEG,001,100049,
AFNE01.JPG,AFNE01.JPG,AFNE01.JPG,AFNE01.JPG,AFNE01.JPG,AFNE01.JPG,,,,,,,,,4,5,45,5,,,,,,,,,,,,,,,AFSA18.jpg,AFSA19.jpg,AFNE08.jpg,AFNE20.jpg,AFNE08.jpg,FN,3,num_2,32,num_6,0.900127719156,,,2017_Mar_09_1239,60.0004619023,FEMA4ImagesEEG,001,100049,
AFNE01.JPG,AFNE01.JPG,AFNE01.JPG,AFNE01.JPG,AFNE01.JPG,AFNE01.JPG,,,,,,,,,4,6,46,4,,,,,,,,,,,,,,,AFSA08.jpg,AFNE15.jpg,AFNE06.jpg,AFSA01.jpg,AFNE15.jpg,FN,3,num_6,32,num_4,0.400174867362,,,2017_Mar_09_1239,60.0004619023,FEMA4ImagesEEG,001,100049,
AFNE01.JPG,AFNE01.JPG,AFNE01.JPG,AFNE01.JPG,AFNE01.JPG,AFNE01.JPG,,,,,,,,,4,7,47,8,,,,,,,,,,,,,,,AFSA10.jpg,AFNE02.jpg,AFSA08.jpg,AFNE01.jpg,AFNE02.jpg,FN,3,num_6,16,num_6,0.550152158365,,,2017_Mar_09_1239,60.0004619023,FEMA4ImagesEEG,001,100049,
AFNE01.JPG,AFNE01.JPG,AFNE01.JPG,AFNE01.JPG,AFNE01.JPG,AFNE01.JPG,,,,,,,,,4,8,48,2,,,,,,,,,,,,,,,AFNE19.jpg,AFSA14.jpg,AFSA04.jpg,AFNE12.jpg,AFNE12.jpg,FN,3,num_4,32,num_2,0.866625484079,,,2017_Mar_09_1239,60.0004619023,FEMA4ImagesEEG,001,100049,
AFNE01.JPG,AFNE01.JPG,AFNE01.JPG,AFNE01.JPG,AFNE01.JPG,AFNE01.JPG,,,,,,,,,4,9,49,1,,,,,,,,,,,,,,,AFNE02.jpg,AFSA07.jpg,AFSA08.jpg,AFNE19.jpg,AFSA08.jpg,FS,4,num_2,32,num_4,0.800176214427,,,2017_Mar_09_1239,60.0004619023,FEMA4ImagesEEG,001,100049,
AFNE01.JPG,AFNE01.JPG,AFNE01.JPG,AFNE01.JPG,AFNE01.JPG,AFNE01.JPG,,,,,,,,,5,0,50,4,,,,,,,,,,,,,,,AFSA15.jpg,AFNE17.jpg,AFSA11.jpg,AFNE10.jpg,AFSA11.jpg,FS,4,num_2,16,num_2,0.816767442971,,,2017_Mar_09_1239,60.0004619023,FEMA4ImagesEEG,001,100049,
AFNE01.JPG,AFNE01.JPG,AFNE01.JPG,AFNE01.JPG,AFNE01.JPG,AFNE01.JPG,,,,,,,,,5,1,51,3,,,,,,,,,,,,,,,AFSA17.jpg,AFNE02.jpg,AFSA10.jpg,AFNE17.jpg,AFNE17.jpg,FN,3,num_4,32,num_6,0.783491650596,,,2017_Mar_09_1239,60.0004619023,FEMA4ImagesEEG,001,100049,
AFNE01.JPG,AFNE01.JPG,AFNE01.JPG,AFNE01.JPG,AFNE01.JPG,AFNE01.JPG,,,,,,,,,5,2,52,1,,,,,,,,,,,,,,,AFSA19.jpg,AFSA03.jpg,AFNE18.jpg,AFNE09.jpg,AFNE09.jpg,FN,3,num_4,16,num_4,0.650155302137,,,2017_Mar_09_1239,60.0004619023,FEMA4ImagesEEG,001,100049,
AFNE01.JPG,AFNE01.JPG,AFNE01.JPG,AFNE01.JPG,AFNE01.JPG,AFNE01.JPG,,,,,,,,,5,3,53,6,,,,,,,,,,,,,,,AFNE20.jpg,AFSA06.jpg,AFNE19.jpg,AFSA13.jpg,AFNE19.jpg,FN,3,num_2,32,num_6,0.833444630727,,,2017_Mar_09_1239,60.0004619023,FEMA4ImagesEEG,001,100049,
AFNE01.JPG,AFNE01.JPG,AFNE01.JPG,AFNE01.JPG,AFNE01.JPG,AFNE01.JPG,,,,,,,,,5,4,54,7,,,,,,,,,,,,,,,AFSA19.jpg,AFNE06.jpg,AFSA08.jpg,AFNE15.jpg,AFSA08.jpg,FS,4,num_2,32,num_4,0.483449826017,,,2017_Mar_09_1239,60.0004619023,FEMA4ImagesEEG,001,100049,
AFNE01.JPG,AFNE01.JPG,AFNE01.JPG,AFNE01.JPG,AFNE01.JPG,AFNE01.JPG,,,,,,,,,5,5,55,2,,,,,,,,,,,,,,,AFNE06.jpg,AFSA04.jpg,AFSA16.jpg,AFNE14.jpg,AFNE14.jpg,FN,3,num_4,32,num_6,0.733506597579,,,2017_Mar_09_1239,60.0004619023,FEMA4ImagesEEG,001,100049,
AFNE01.JPG,AFNE01.JPG,AFNE01.JPG,AFNE01.JPG,AFNE01.JPG,AFNE01.JPG,,,,,,,,,5,6,56,8,,,,,,,,,,,,,,,AFSA13.jpg,AFSA09.jpg,AFNE20.jpg,AFNE16.jpg,AFSA09.jpg,FS,4,num_6,32,num_4,1.00009718444,,,2017_Mar_09_1239,60.0004619023,FEMA4ImagesEEG,001,100049,
AFNE01.JPG,AFNE01.JPG,AFNE01.JPG,AFNE01.JPG,AFNE01.JPG,AFNE01.JPG,,,,,,,,,5,7,57,9,,,,,,,,,,,,,,,AFSA03.jpg,AFSA18.jpg,AFNE04.jpg,AFNE15.jpg,AFSA18.jpg,FS,4,num_6,16,num_6,0.833445592783,,,2017_Mar_09_1239,60.0004619023,FEMA4ImagesEEG,001,100049,
AFNE01.JPG,AFNE01.JPG,AFNE01.JPG,AFNE01.JPG,AFNE01.JPG,AFNE01.JPG,,,,,,,,,5,8,58,5,,,,,,,,,,,,,,,AFSA07.jpg,AFNE05.jpg,AFSA17.jpg,AFNE04.jpg,AFSA07.jpg,FS,4,num_8,32,num_6,1.16677700076,,,2017_Mar_09_1239,60.0004619023,FEMA4ImagesEEG,001,100049,
AFNE01.JPG,AFNE01.JPG,AFNE01.JPG,AFNE01.JPG,AFNE01.JPG,AFNE01.JPG,,,,,,,,,5,9,59,0,,,,,,,,,,,,,,,AFNE15.jpg,AFSA03.jpg,AFSA10.jpg,AFNE04.jpg,AFNE04.jpg,FN,3,num_4,32,num_8,0.850142023526,,,2017_Mar_09_1239,60.0004619023,FEMA4ImagesEEG,001,100049,
,,,,,,,,,,,,,,,,,,,,,,,,,,,,,,,,,,,,,,,,,,,space,39.2969136499,2017_Mar_09_1239,60.0004619023,FEMA4ImagesEEG,001,100049,
AFNE01.JPG,AFNE01.JPG,AFNE01.JPG,AFNE01.JPG,AFNE01.JPG,AFNE01.JPG,,,,,,,,,,,,,0,0,0,4,,,,,,,,,,,AMSA04.jpg,AMNE18.jpg,AMSA19.jpg,AMNE11.jpg,AMSA04.jpg,MS,2,num_8,32,num_4,1.10002206638,,,2017_Mar_09_1239,60.0004619023,FEMA4ImagesEEG,001,100049,
AFNE01.JPG,AFNE01.JPG,AFNE01.JPG,AFNE01.JPG,AFNE01.JPG,AFNE01.JPG,,,,,,,,,,,,,0,1,1,9,,,,,,,,,,,AMNE18.jpg,AMSA05.jpg,AMSA18.jpg,AMNE06.jpg,AMSA18.jpg,MS,2,num_2,16,num_2,0.516780786216,,,2017_Mar_09_1239,60.0004619023,FEMA4ImagesEEG,001,100049,
AFNE01.JPG,AFNE01.JPG,AFNE01.JPG,AFNE01.JPG,AFNE01.JPG,AFNE01.JPG,,,,,,,,,,,,,0,2,2,6,,,,,,,,,,,AMSA06.jpg,AMSA20.jpg,AMNE07.jpg,AMNE06.jpg,AMSA06.jpg,MS,2,num_8,16,num_8,0.81679246109,,,2017_Mar_09_1239,60.0004619023,FEMA4ImagesEEG,001,100049,
AFNE01.JPG,AFNE01.JPG,AFNE01.JPG,AFNE01.JPG,AFNE01.JPG,AFNE01.JPG,,,,,,,,,,,,,0,3,3,3,,,,,,,,,,,AMSA16.jpg,AMNE13.jpg,AMNE06.jpg,AMSA03.jpg,AMSA03.jpg,MS,2,num_4,16,num_4,0.600168003701,,,2017_Mar_09_1239,60.0004619023,FEMA4ImagesEEG,001,100049,
AFNE01.JPG,AFNE01.JPG,AFNE01.JPG,AFNE01.JPG,AFNE01.JPG,AFNE01.JPG,,,,,,,,,,,,,0,4,4,5,,,,,,,,,,,AMSA04.jpg,AMNE05.jpg,AMNE07.jpg,AMSA01.jpg,AMNE07.jpg,MN,1,num_2,32,num_6,0.850170569494,,,2017_Mar_09_1239,60.0004619023,FEMA4ImagesEEG,001,100049,
AFNE01.JPG,AFNE01.JPG,AFNE01.JPG,AFNE01.JPG,AFNE01.JPG,AFNE01.JPG,,,,,,,,,,,,,0,5,5,0,,,,,,,,,,,AMNE13.jpg,AMSA01.jpg,AMNE14.jpg,AMSA09.jpg,AMNE14.jpg,MN,1,num_2,32,num_6,1.00001058448,,,2017_Mar_09_1239,60.0004619023,FEMA4ImagesEEG,001,100049,
AFNE01.JPG,AFNE01.JPG,AFNE01.JPG,AFNE01.JPG,AFNE01.JPG,AFNE01.JPG,,,,,,,,,,,,,0,6,6,1,,,,,,,,,,,AMSA15.jpg,AMSA06.jpg,AMNE06.jpg,AMNE16.jpg,AMSA06.jpg,MS,2,num_6,32,num_8,0.633565035649,,,2017_Mar_09_1239,60.0004619023,FEMA4ImagesEEG,001,100049,
AFNE01.JPG,AFNE01.JPG,AFNE01.JPG,AFNE01.JPG,AFNE01.JPG,AFNE01.JPG,,,,,,,,,,,,,0,7,7,2,,,,,,,,,,,AMNE15.jpg,AMSA14.jpg,AMNE19.jpg,AMSA20.jpg,AMNE15.jpg,MN,1,num_8,16,num_8,0.716789318249,,,2017_Mar_09_1239,60.0004619023,FEMA4ImagesEEG,001,100049,
AFNE01.JPG,AFNE01.JPG,AFNE01.JPG,AFNE01.JPG,AFNE01.JPG,AFNE01.JPG,,,,,,,,,,,,,0,8,8,7,,,,,,,,,,,AMSA06.jpg,AMSA10.jpg,AMNE11.jpg,AMNE15.jpg,AMSA06.jpg,MS,2,num_8,16,num_8,0.750129899941,,,2017_Mar_09_1239,60.0004619023,FEMA4ImagesEEG,001,100049,
AFNE01.JPG,AFNE01.JPG,AFNE01.JPG,AFNE01.JPG,AFNE01.JPG,AFNE01.JPG,,,,,,,,,,,,,0,9,9,8,,,,,,,,,,,AMNE08.jpg,AMSA07.jpg,AMNE15.jpg,AMSA14.jpg,AMNE08.jpg,MN,1,num_8,32,num_6,0.816812667064,,,2017_Mar_09_1239,60.0004619023,FEMA4ImagesEEG,001,100049,
AFNE01.JPG,AFNE01.JPG,AFNE01.JPG,AFNE01.JPG,AFNE01.JPG,AFNE01.JPG,,,,,,,,,,,,,1,0,10,2,,,,,,,,,,,AMSA18.jpg,AMNE17.jpg,AMSA09.jpg,AMNE04.jpg,AMSA18.jpg,MS,2,num_8,32,num_2,1.0001610117,,,2017_Mar_09_1239,60.0004619023,FEMA4ImagesEEG,001,100049,
AFNE01.JPG,AFNE01.JPG,AFNE01.JPG,AFNE01.JPG,AFNE01.JPG,AFNE01.JPG,,,,,,,,,,,,,1,1,11,1,,,,,,,,,,,AMSA06.jpg,AMNE01.jpg,AMNE04.jpg,AMSA03.jpg,AMSA06.jpg,MS,2,num_8,16,num_8,0.816777065396,,,2017_Mar_09_1239,60.0004619023,FEMA4ImagesEEG,001,100049,
AFNE01.JPG,AFNE01.JPG,AFNE01.JPG,AFNE01.JPG,AFNE01.JPG,AFNE01.JPG,,,,,,,,,,,,,1,2,12,7,,,,,,,,,,,AMNE12.jpg,AMSA16.jpg,AMNE09.jpg,AMSA07.jpg,AMNE12.jpg,MN,1,num_8,32,num_6,0.766774691641,,,2017_Mar_09_1239,60.0004619023,FEMA4ImagesEEG,001,100049,
AFNE01.JPG,AFNE01.JPG,AFNE01.JPG,AFNE01.JPG,AFNE01.JPG,AFNE01.JPG,,,,,,,,,,,,,1,3,13,5,,,,,,,,,,,AMNE11.jpg,AMNE14.jpg,AMSA05.jpg,AMSA01.jpg,AMNE14.jpg,MN,1,num_6,16,num_6,1.13353841379,,,2017_Mar_09_1239,60.0004619023,FEMA4ImagesEEG,001,100049,
AFNE01.JPG,AFNE01.JPG,AFNE01.JPG,AFNE01.JPG,AFNE01.JPG,AFNE01.JPG,,,,,,,,,,,,,1,4,14,9,,,,,,,,,,,AMNE01.jpg,AMSA05.jpg,AMNE03.jpg,AMSA07.jpg,AMNE03.jpg,MN,1,num_2,32,num_4,0.833527380601,,,2017_Mar_09_1239,60.0004619023,FEMA4ImagesEEG,001,100049,
AFNE01.JPG,AFNE01.JPG,AFNE01.JPG,AFNE01.JPG,AFNE01.JPG,AFNE01.JPG,,,,,,,,,,,,,1,5,15,3,,,,,,,,,,,AMSA02.jpg,AMSA10.jpg,AMNE09.jpg,AMNE14.jpg,AMSA10.jpg,MS,2,num_6,16,num_6,0.933469262905,,,2017_Mar_09_1239,60.0004619023,FEMA4ImagesEEG,001,100049,
AFNE01.JPG,AFNE01.JPG,AFNE01.JPG,AFNE01.JPG,AFNE01.JPG,AFNE01.JPG,,,,,,,,,,,,,1,6,16,6,,,,,,,,,,,AMSA13.jpg,AMNE08.jpg,AMSA14.jpg,AMNE10.jpg,AMNE08.jpg,MN,1,num_6,32,num_2,0.73346586246,,,2017_Mar_09_1239,60.0004619023,FEMA4ImagesEEG,001,100049,
AFNE01.JPG,AFNE01.JPG,AFNE01.JPG,AFNE01.JPG,AFNE01.JPG,AFNE01.JPG,,,,,,,,,,,,,1,7,17,4,,,,,,,,,,,AMSA20.jpg,AMSA14.jpg,AMNE04.jpg,AMNE06.jpg,AMNE06.jpg,MN,1,num_4,32,num_8,2.40004785452,,,2017_Mar_09_1239,60.0004619023,FEMA4ImagesEEG,001,100049,
AFNE01.JPG,AFNE01.JPG,AFNE01.JPG,AFNE01.JPG,AFNE01.JPG,AFNE01.JPG,,,,,,,,,,,,,1,8,18,0,,,,,,,,,,,AMNE20.jpg,AMNE10.jpg,AMSA13.jpg,AMSA08.jpg,AMSA13.jpg,MS,2,num_2,32,num_6,0.366819530725,,,2017_Mar_09_1239,60.0004619023,FEMA4ImagesEEG,001,100049,
AFNE01.JPG,AFNE01.JPG,AFNE01.JPG,AFNE01.JPG,AFNE01.JPG,AFNE01.JPG,,,,,,,,,,,,,1,9,19,8,,,,,,,,,,,AMSA05.jpg,AMNE19.jpg,AMNE15.jpg,AMSA10.jpg,AMNE15.jpg,MN,1,num_2,16,num_2,0.600143947639,,,2017_Mar_09_1239,60.0004619023,FEMA4ImagesEEG,001,100049,
AFNE01.JPG,AFNE01.JPG,AFNE01.JPG,AFNE01.JPG,AFNE01.JPG,AFNE01.JPG,,,,,,,,,,,,,2,0,20,1,,,,,,,,,,,AMSA19.jpg,AMNE13.jpg,AMNE02.jpg,AMSA06.jpg,AMSA19.jpg,MS,2,num_8,32,num_6,0.666799773462,,,2017_Mar_09_1239,60.0004619023,FEMA4ImagesEEG,001,100049,
AFNE01.JPG,AFNE01.JPG,AFNE01.JPG,AFNE01.JPG,AFNE01.JPG,AFNE01.JPG,,,,,,,,,,,,,2,1,21,8,,,,,,,,,,,AMSA20.jpg,AMSA17.jpg,AMNE15.jpg,AMNE02.jpg,AMSA17.jpg,MS,2,num_6,16,num_6,1.04998537432,,,2017_Mar_09_1239,60.0004619023,FEMA4ImagesEEG,001,100049,
AFNE01.JPG,AFNE01.JPG,AFNE01.JPG,AFNE01.JPG,AFNE01.JPG,AFNE01.JPG,,,,,,,,,,,,,2,2,22,5,,,,,,,,,,,AMNE05.jpg,AMNE09.jpg,AMSA02.jpg,AMSA18.jpg,AMSA18.jpg,MS,2,num_4,16,num_4,0.383530396037,,,2017_Mar_09_1239,60.0004619023,FEMA4ImagesEEG,001,100049,
AFNE01.JPG,AFNE01.JPG,AFNE01.JPG,AFNE01.JPG,AFNE01.JPG,AFNE01.JPG,,,,,,,,,,,,,2,3,23,7,,,,,,,,,,,AMSA08.jpg,AMSA03.jpg,AMNE04.jpg,AMNE12.jpg,AMSA08.jpg,MS,2,num_8,32,num_6,0.283514422365,,,2017_Mar_09_1239,60.0004619023,FEMA4ImagesEEG,001,100049,
AFNE01.JPG,AFNE01.JPG,AFNE01.JPG,AFNE01.JPG,AFNE01.JPG,AFNE01.JPG,,,,,,,,,,,,,2,4,24,0,,,,,,,,,,,AMSA16.jpg,AMNE13.jpg,AMSA15.jpg,AMNE11.jpg,AMSA15.jpg,MS,2,num_2,16,num_2,0.700171788223,,,2017_Mar_09_1239,60.0004619023,FEMA4ImagesEEG,001,100049,
AFNE01.JPG,AFNE01.JPG,AFNE01.JPG,AFNE01.JPG,AFNE01.JPG,AFNE01.JPG,,,,,,,,,,,,,2,5,25,9,,,,,,,,,,,AMNE02.jpg,AMNE15.jpg,AMSA02.jpg,AMSA05.jpg,AMNE02.jpg,MN,1,num_8,32,num_4,0.733469069935,,,2017_Mar_09_1239,60.0004619023,FEMA4ImagesEEG,001,100049,
AFNE01.JPG,AFNE01.JPG,AFNE01.JPG,AFNE01.JPG,AFNE01.JPG,AFNE01.JPG,,,,,,,,,,,,,2,6,26,3,,,,,,,,,,,AMSA10.jpg,AMSA09.jpg,AMNE01.jpg,AMNE20.jpg,AMSA09.jpg,MS,2,num_6,32,num_2,1.06676936708,,,2017_Mar_09_1239,60.0004619023,FEMA4ImagesEEG,001,100049,
AFNE01.JPG,AFNE01.JPG,AFNE01.JPG,AFNE01.JPG,AFNE01.JPG,AFNE01.JPG,,,,,,,,,,,,,2,7,27,6,,,,,,,,,,,AMSA04.jpg,AMSA07.jpg,AMNE13.jpg,AMNE09.jpg,AMNE13.jpg,MN,1,num_2,32,num_6,0.816782196984,,,2017_Mar_09_1239,60.0004619023,FEMA4ImagesEEG,001,100049,
AFNE01.JPG,AFNE01.JPG,AFNE01.JPG,AFNE01.JPG,AFNE01.JPG,AFNE01.JPG,,,,,,,,,,,,,2,8,28,4,,,,,,,,,,,AMNE15.jpg,AMNE04.jpg,AMSA16.jpg,AMSA06.jpg,AMNE15.jpg,MN,1,num_8,16,num_8,1.33346804418,,,2017_Mar_09_1239,60.0004619023,FEMA4ImagesEEG,001,100049,
AFNE01.JPG,AFNE01.JPG,AFNE01.JPG,AFNE01.JPG,AFNE01.JPG,AFNE01.JPG,,,,,,,,,,,,,2,9,29,2,,,,,,,,,,,AMNE13.jpg,AMSA16.jpg,AMNE09.jpg,AMSA13.jpg,AMNE13.jpg,MN,1,num_8,32,num_4,0.616739025339,,,2017_Mar_09_1239,60.0004619023,FEMA4ImagesEEG,001,100049,
AFNE01.JPG,AFNE01.JPG,AFNE01.JPG,AFNE01.JPG,AFNE01.JPG,AFNE01.JPG,,,,,,,,,,,,,3,0,30,6,,,,,,,,,,,AMSA10.jpg,AMNE14.jpg,AMSA01.jpg,AMNE18.jpg,AMSA10.jpg,MS,2,num_8,32,num_2,1.55008544493,,,2017_Mar_09_1239,60.0004619023,FEMA4ImagesEEG,001,100049,
AFNE01.JPG,AFNE01.JPG,AFNE01.JPG,AFNE01.JPG,AFNE01.JPG,AFNE01.JPG,,,,,,,,,,,,,3,1,31,2,,,,,,,,,,,AMSA01.jpg,AMNE11.jpg,AMSA06.jpg,AMNE13.jpg,AMSA06.jpg,MS,2,num_2,32,num_4,1.08342698961,,,2017_Mar_09_1239,60.0004619023,FEMA4ImagesEEG,001,100049,
AFNE01.JPG,AFNE01.JPG,AFNE01.JPG,AFNE01.JPG,AFNE01.JPG,AFNE01.JPG,,,,,,,,,,,,,3,2,32,5,,,,,,,,,,,AMSA07.jpg,AMNE12.jpg,AMNE03.jpg,AMSA05.jpg,AMNE03.jpg,MN,1,num_2,32,num_6,0.866794192232,,,2017_Mar_09_1239,60.0004619023,FEMA4ImagesEEG,001,100049,
AFNE01.JPG,AFNE01.JPG,AFNE01.JPG,AFNE01.JPG,AFNE01.JPG,AFNE01.JPG,,,,,,,,,,,,,3,3,33,8,,,,,,,,,,,AMSA01.jpg,AMSA07.jpg,AMNE17.jpg,AMNE03.jpg,AMNE03.jpg,MN,1,num_4,16,num_4,0.950162165798,,,2017_Mar_09_1239,60.0004619023,FEMA4ImagesEEG,001,100049,
AFNE01.JPG,AFNE01.JPG,AFNE01.JPG,AFNE01.JPG,AFNE01.JPG,AFNE01.JPG,,,,,,,,,,,,,3,4,34,9,,,,,,,,,,,AMSA02.jpg,AMNE19.jpg,AMSA15.jpg,AMNE03.jpg,AMNE03.jpg,MN,1,num_4,32,num_2,0.716826203279,,,2017_Mar_09_1239,60.0004619023,FEMA4ImagesEEG,001,100049,
AFNE01.JPG,AFNE01.JPG,AFNE01.JPG,AFNE01.JPG,AFNE01.JPG,AFNE01.JPG,,,,,,,,,,,,,3,5,35,3,,,,,,,,,,,AMSA18.jpg,AMNE01.jpg,AMSA20.jpg,AMNE17.jpg,AMSA20.jpg,MS,2,num_2,32,num_4,0.85019719135,,,2017_Mar_09_1239,60.0004619023,FEMA4ImagesEEG,001,100049,
AFNE01.JPG,AFNE01.JPG,AFNE01.JPG,AFNE01.JPG,AFNE01.JPG,AFNE01.JPG,,,,,,,,,,,,,3,6,36,7,,,,,,,,,,,AMNE04.jpg,AMNE14.jpg,AMSA01.jpg,AMSA16.jpg,AMNE04.jpg,MN,1,num_8,32,num_4,0.533491330221,,,2017_Mar_09_1239,60.0004619023,FEMA4ImagesEEG,001,100049,
AFNE01.JPG,AFNE01.JPG,AFNE01.JPG,AFNE01.JPG,AFNE01.JPG,AFNE01.JPG,,,,,,,,,,,,,3,7,37,1,,,,,,,,,,,AMSA06.jpg,AMNE14.jpg,AMSA13.jpg,AMNE05.jpg,AMNE05.jpg,MN,1,num_4,32,num_2,1.65004208125,,,2017_Mar_09_1239,60.0004619023,FEMA4ImagesEEG,001,100049,
AFNE01.JPG,AFNE01.JPG,AFNE01.JPG,AFNE01.JPG,AFNE01.JPG,AFNE01.JPG,,,,,,,,,,,,,3,8,38,0,,,,,,,,,,,AMSA15.jpg,AMNE06.jpg,AMNE02.jpg,AMSA04.jpg,AMSA15.jpg,MS,2,num_8,32,num_4,0.416814527474,,,2017_Mar_09_1239,60.0004619023,FEMA4ImagesEEG,001,100049,
AFNE01.JPG,AFNE01.JPG,AFNE01.JPG,AFNE01.JPG,AFNE01.JPG,AFNE01.JPG,,,,,,,,,,,,,3,9,39,4,,,,,,,,,,,AMSA02.jpg,AMNE04.jpg,AMNE17.jpg,AMSA13.jpg,AMSA13.jpg,MS,2,num_4,32,num_8,0.683496205136,,,2017_Mar_09_1239,60.0004619023,FEMA4ImagesEEG,001,100049,
AFNE01.JPG,AFNE01.JPG,AFNE01.JPG,AFNE01.JPG,AFNE01.JPG,AFNE01.JPG,,,,,,,,,,,,,4,0,40,8,,,,,,,,,,,AMSA09.jpg,AMSA19.jpg,AMNE04.jpg,AMNE10.jpg,AMSA19.jpg,MS,2,num_6,32,num_2,0.766750315204,,,2017_Mar_09_1239,60.0004619023,FEMA4ImagesEEG,001,100049,
AFNE01.JPG,AFNE01.JPG,AFNE01.JPG,AFNE01.JPG,AFNE01.JPG,AFNE01.JPG,,,,,,,,,,,,,4,1,41,7,,,,,,,,,,,AMNE15.jpg,AMSA12.jpg,AMNE10.jpg,AMSA06.jpg,AMSA06.jpg,MS,2,num_4,16,num_4,0.450130412355,,,2017_Mar_09_1239,60.0004619023,FEMA4ImagesEEG,001,100049,
AFNE01.JPG,AFNE01.JPG,AFNE01.JPG,AFNE01.JPG,AFNE01.JPG,AFNE01.JPG,,,,,,,,,,,,,4,2,42,9,,,,,,,,,,,AMNE11.jpg,AMSA16.jpg,AMSA07.jpg,AMNE18.jpg,AMSA16.jpg,MS,2,num_6,32,num_8,1.44988087751,,,2017_Mar_09_1239,60.0004619023,FEMA4ImagesEEG,001,100049,
AFNE01.JPG,AFNE01.JPG,AFNE01.JPG,AFNE01.JPG,AFNE01.JPG,AFNE01.JPG,,,,,,,,,,,,,4,3,43,5,,,,,,,,,,,AMSA08.jpg,AMNE15.jpg,AMNE13.jpg,AMSA03.jpg,AMNE15.jpg,MN,1,num_6,32,num_4,0.55022721272,,,2017_Mar_09_1239,60.0004619023,FEMA4ImagesEEG,001,100049,
AFNE01.JPG,AFNE01.JPG,AFNE01.JPG,AFNE01.JPG,AFNE01.JPG,AFNE01.JPG,,,,,,,,,,,,,4,4,44,1,,,,,,,,,,,AMNE08.jpg,AMSA16.jpg,AMSA18.jpg,AMNE06.jpg,AMNE06.jpg,MN,1,num_4,32,num_6,0.966929800808,,,2017_Mar_09_1239,60.0004619023,FEMA4ImagesEEG,001,100049,
AFNE01.JPG,AFNE01.JPG,AFNE01.JPG,AFNE01.JPG,AFNE01.JPG,AFNE01.JPG,,,,,,,,,,,,,4,5,45,0,,,,,,,,,,,AMSA11.jpg,AMNE15.jpg,AMSA03.jpg,AMNE17.jpg,AMNE15.jpg,MN,1,num_6,32,num_2,0.383549961261,,,2017_Mar_09_1239,60.0004619023,FEMA4ImagesEEG,001,100049,
AFNE01.JPG,AFNE01.JPG,AFNE01.JPG,AFNE01.JPG,AFNE01.JPG,AFNE01.JPG,,,,,,,,,,,,,4,6,46,6,,,,,,,,,,,AMSA14.jpg,AMSA13.jpg,AMNE14.jpg,AMNE05.jpg,AMSA13.jpg,MS,2,num_6,32,num_8,0.366792589426,,,2017_Mar_09_1239,60.0004619023,FEMA4ImagesEEG,001,100049,
AFNE01.JPG,AFNE01.JPG,AFNE01.JPG,AFNE01.JPG,AFNE01.JPG,AFNE01.JPG,,,,,,,,,,,,,4,7,47,3,,,,,,,,,,,AMNE11.jpg,AMSA14.jpg,AMNE12.jpg,AMSA03.jpg,AMSA14.jpg,MS,2,num_6,16,num_6,0.716762376018,,,2017_Mar_09_1239,60.0004619023,FEMA4ImagesEEG,001,100049,
AFNE01.JPG,AFNE01.JPG,AFNE01.JPG,AFNE01.JPG,AFNE01.JPG,AFNE01.JPG,,,,,,,,,,,,,4,8,48,4,,,,,,,,,,,AMNE12.jpg,AMNE09.jpg,AMSA17.jpg,AMSA05.jpg,AMSA17.jpg,MS,2,num_2,32,num_4,0.900183206424,,,2017_Mar_09_1239,60.0004619023,FEMA4ImagesEEG,001,100049,
AFNE01.JPG,AFNE01.JPG,AFNE01.JPG,AFNE01.JPG,AFNE01.JPG,AFNE01.JPG,,,,,,,,,,,,,4,9,49,2,,,,,,,,,,,AMNE04.jpg,AMSA16.jpg,AMNE11.jpg,AMSA08.jpg,AMNE04.jpg,MN,1,num_8,32,num_2,0.783476575278,,,2017_Mar_09_1239,60.0004619023,FEMA4ImagesEEG,001,100049,
AFNE01.JPG,AFNE01.JPG,AFNE01.JPG,AFNE01.JPG,AFNE01.JPG,AFNE01.JPG,,,,,,,,,,,,,5,0,50,0,,,,,,,,,,,AMNE10.jpg,AMSA05.jpg,AMSA14.jpg,AMNE09.jpg,AMSA14.jpg,MS,2,num_2,16,num_2,0.900137020275,,,2017_Mar_09_1239,60.0004619023,FEMA4ImagesEEG,001,100049,
AFNE01.JPG,AFNE01.JPG,AFNE01.JPG,AFNE01.JPG,AFNE01.JPG,AFNE01.JPG,,,,,,,,,,,,,5,1,51,5,,,,,,,,,,,AMSA20.jpg,AMNE08.jpg,AMSA13.jpg,AMNE03.jpg,AMSA13.jpg,MS,2,num_2,32,num_4,1.4334163405,,,2017_Mar_09_1239,60.0004619023,FEMA4ImagesEEG,001,100049,
AFNE01.JPG,AFNE01.JPG,AFNE01.JPG,AFNE01.JPG,AFNE01.JPG,AFNE01.JPG,,,,,,,,,,,,,5,2,52,8,,,,,,,,,,,AMNE08.jpg,AMSA18.jpg,AMNE20.jpg,AMSA17.jpg,AMSA18.jpg,MS,2,num_6,16,num_6,0.350201681256,,,2017_Mar_09_1239,60.0004619023,FEMA4ImagesEEG,001,100049,
AFNE01.JPG,AFNE01.JPG,AFNE01.JPG,AFNE01.JPG,AFNE01.JPG,AFNE01.JPG,,,,,,,,,,,,,5,3,53,4,,,,,,,,,,,AMSA11.jpg,AMNE12.jpg,AMSA18.jpg,AMNE01.jpg,AMNE01.jpg,MN,1,num_4,16,num_4,0.583570680581,,,2017_Mar_09_1239,60.0004619023,FEMA4ImagesEEG,001,100049,
AFNE01.JPG,AFNE01.JPG,AFNE01.JPG,AFNE01.JPG,AFNE01.JPG,AFNE01.JPG,,,,,,,,,,,,,5,4,54,7,,,,,,,,,,,AMNE02.jpg,AMSA18.jpg,AMNE07.jpg,AMSA14.jpg,AMSA14.jpg,MS,2,num_4,32,num_6,0.333526418544,,,2017_Mar_09_1239,60.0004619023,FEMA4ImagesEEG,001,100049,
AFNE01.JPG,AFNE01.JPG,AFNE01.JPG,AFNE01.JPG,AFNE01.JPG,AFNE01.JPG,,,,,,,,,,,,,5,5,55,6,,,,,,,,,,,AMSA11.jpg,AMNE10.jpg,AMSA07.jpg,AMNE05.jpg,AMSA11.jpg,MS,2,num_8,16,num_8,0.700160241686,,,2017_Mar_09_1239,60.0004619023,FEMA4ImagesEEG,001,100049,
AFNE01.JPG,AFNE01.JPG,AFNE01.JPG,AFNE01.JPG,AFNE01.JPG,AFNE01.JPG,,,,,,,,,,,,,5,6,56,9,,,,,,,,,,,AMNE10.jpg,AMSA01.jpg,AMSA03.jpg,AMNE06.jpg,AMNE06.jpg,MN,1,num_4,32,num_6,0.949974854477,,,2017_Mar_09_1239,60.0004619023,FEMA4ImagesEEG,001,100049,
AFNE01.JPG,AFNE01.JPG,AFNE01.JPG,AFNE01.JPG,AFNE01.JPG,AFNE01.JPG,,,,,,,,,,,,,5,7,57,2,,,,,,,,,,,AMSA08.jpg,AMNE03.jpg,AMSA06.jpg,AMNE18.jpg,AMSA08.jpg,MS,2,num_8,32,num_2,0.466676417738,,,2017_Mar_09_1239,60.0004619023,FEMA4ImagesEEG,001,100049,
AFNE01.JPG,AFNE01.JPG,AFNE01.JPG,AFNE01.JPG,AFNE01.JPG,AFNE01.JPG,,,,,,,,,,,,,5,8,58,3,,,,,,,,,,,AMSA05.jpg,AMNE17.jpg,AMSA20.jpg,AMNE11.jpg,AMNE11.jpg,MN,1,num_4,16,num_4,0.650110398419,,,2017_Mar_09_1239,60.0004619023,FEMA4ImagesEEG,001,100049,
AFNE01.JPG,AFNE01.JPG,AFNE01.JPG,AFNE01.JPG,AFNE01.JPG,AFNE01.JPG,,,,,,,,,,,,,5,9,59,1,,,,,,,,,,,AMSA16.jpg,AMSA19.jpg,AMNE01.jpg,AMNE14.jpg,AMNE14.jpg,MN,1,num_4,32,num_6,0.350106742233,,,2017_Mar_09_1239,60.0004619023,FEMA4ImagesEEG,001,100049,
,,,,,,,,,,,,,,,,,,,,,,,,,,,,,,,,,,,,,,,,,,,space,82.476880433,2017_Mar_09_1239,60.0004619023,FEMA4ImagesEEG,001,100049,
AFNE01.JPG,AFNE01.JPG,AFNE01.JPG,AFNE01.JPG,AFNE01.JPG,AFNE01.JPG,,,,,,,,,,,,,,,,,0,0,0,4,,,,,,,AFSA05.jpg,AFNE15.jpg,AFSA09.jpg,AFNE08.jpg,AFSA09.jpg,FS,4,num_2,32,num_8,0.866675839759,,,2017_Mar_09_1239,60.0004619023,FEMA4ImagesEEG,001,100049,
AFNE01.JPG,AFNE01.JPG,AFNE01.JPG,AFNE01.JPG,AFNE01.JPG,AFNE01.JPG,,,,,,,,,,,,,,,,,0,1,1,1,,,,,,,AFSA18.jpg,AFNE20.jpg,AFNE06.jpg,AFSA14.jpg,AFSA18.jpg,FS,4,num_8,16,num_8,0.600157740526,,,2017_Mar_09_1239,60.0004619023,FEMA4ImagesEEG,001,100049,
AFNE01.JPG,AFNE01.JPG,AFNE01.JPG,AFNE01.JPG,AFNE01.JPG,AFNE01.JPG,,,,,,,,,,,,,,,,,0,2,2,6,,,,,,,AFSA12.jpg,AFNE16.jpg,AFNE10.jpg,AFSA07.jpg,AFNE10.jpg,FN,3,num_2,32,num_4,0.783821051009,,,2017_Mar_09_1239,60.0004619023,FEMA4ImagesEEG,001,100049,
AFNE01.JPG,AFNE01.JPG,AFNE01.JPG,AFNE01.JPG,AFNE01.JPG,AFNE01.JPG,,,,,,,,,,,,,,,,,0,3,3,3,,,,,,,AFSA01.jpg,AFNE01.jpg,AFNE03.jpg,AFSA14.jpg,AFNE01.jpg,FN,3,num_6,16,num_6,0.46679990273,,,2017_Mar_09_1239,60.0004619023,FEMA4ImagesEEG,001,100049,
AFNE01.JPG,AFNE01.JPG,AFNE01.JPG,AFNE01.JPG,AFNE01.JPG,AFNE01.JPG,,,,,,,,,,,,,,,,,0,4,4,7,,,,,,,AFSA08.jpg,AFNE15.jpg,AFNE19.jpg,AFSA13.jpg,AFSA08.jpg,FS,4,num_8,32,num_4,0.500209121965,,,2017_Mar_09_1239,60.0004619023,FEMA4ImagesEEG,001,100049,
AFNE01.JPG,AFNE01.JPG,AFNE01.JPG,AFNE01.JPG,AFNE01.JPG,AFNE01.JPG,,,,,,,,,,,,,,,,,0,5,5,9,,,,,,,AFSA15.jpg,AFNE14.jpg,AFNE02.jpg,AFSA01.jpg,AFSA01.jpg,FS,4,num_4,16,num_4,0.649784205481,,,2017_Mar_09_1239,60.0004619023,FEMA4ImagesEEG,001,100049,
AFNE01.JPG,AFNE01.JPG,AFNE01.JPG,AFNE01.JPG,AFNE01.JPG,AFNE01.JPG,,,,,,,,,,,,,,,,,0,6,6,0,,,,,,,AFSA18.jpg,AFNE10.jpg,AFNE15.jpg,AFSA12.jpg,AFNE10.jpg,FN,3,num_6,32,num_8,0.466805996373,,,2017_Mar_09_1239,60.0004619023,FEMA4ImagesEEG,001,100049,
AFNE01.JPG,AFNE01.JPG,AFNE01.JPG,AFNE01.JPG,AFNE01.JPG,AFNE01.JPG,,,,,,,,,,,,,,,,,0,7,7,5,,,,,,,AFSA04.jpg,AFNE04.jpg,AFNE10.jpg,AFSA09.jpg,AFNE04.jpg,FN,3,num_6,32,num_8,0.283572477289,,,2017_Mar_09_1239,60.0004619023,FEMA4ImagesEEG,001,100049,
AFNE01.JPG,AFNE01.JPG,AFNE01.JPG,AFNE01.JPG,AFNE01.JPG,AFNE01.JPG,,,,,,,,,,,,,,,,,0,8,8,8,,,,,,,AFNE08.jpg,AFSA05.jpg,AFSA06.jpg,AFNE09.jpg,AFSA06.jpg,FS,4,num_2,32,num_6,0.450143883936,,,2017_Mar_09_1239,60.0004619023,FEMA4ImagesEEG,001,100049,
AFNE01.JPG,AFNE01.JPG,AFNE01.JPG,AFNE01.JPG,AFNE01.JPG,AFNE01.JPG,,,,,,,,,,,,,,,,,0,9,9,2,,,,,,,AFNE20.jpg,AFNE10.jpg,AFSA08.jpg,AFSA18.jpg,AFSA18.jpg,FS,4,num_4,16,num_4,0.366871491075,,,2017_Mar_09_1239,60.0004619023,FEMA4ImagesEEG,001,100049,
AFNE01.JPG,AFNE01.JPG,AFNE01.JPG,AFNE01.JPG,AFNE01.JPG,AFNE01.JPG,,,,,,,,,,,,,,,,,1,0,10,5,,,,,,,AFSA10.jpg,AFSA19.jpg,AFNE07.jpg,AFNE08.jpg,AFSA19.jpg,FS,4,num_6,16,num_6,0.349860735238,,,2017_Mar_09_1239,60.0004619023,FEMA4ImagesEEG,001,100049,
AFNE01.JPG,AFNE01.JPG,AFNE01.JPG,AFNE01.JPG,AFNE01.JPG,AFNE01.JPG,,,,,,,,,,,,,,,,,1,1,11,3,,,,,,,AFNE01.jpg,AFSA04.jpg,AFSA12.jpg,AFNE08.jpg,AFSA12.jpg,FS,4,num_2,16,num_2,0.566791177727,,,2017_Mar_09_1239,60.0004619023,FEMA4ImagesEEG,001,100049,
AFNE01.JPG,AFNE01.JPG,AFNE01.JPG,AFNE01.JPG,AFNE01.JPG,AFNE01.JPG,,,,,,,,,,,,,,,,,1,2,12,0,,,,,,,AFNE20.jpg,AFSA20.jpg,AFNE01.jpg,AFSA11.jpg,AFSA11.jpg,FS,4,num_4,32,num_6,0.683529882692,,,2017_Mar_09_1239,60.0004619023,FEMA4ImagesEEG,001,100049,
AFNE01.JPG,AFNE01.JPG,AFNE01.JPG,AFNE01.JPG,AFNE01.JPG,AFNE01.JPG,,,,,,,,,,,,,,,,,1,3,13,6,,,,,,,AFNE11.jpg,AFSA11.jpg,AFSA04.jpg,AFNE08.jpg,AFNE08.jpg,FN,3,num_4,32,num_8,0.433485299349,,,2017_Mar_09_1239,60.0004619023,FEMA4ImagesEEG,001,100049,
AFNE01.JPG,AFNE01.JPG,AFNE01.JPG,AFNE01.JPG,AFNE01.JPG,AFNE01.JPG,,,,,,,,,,,,,,,,,1,4,14,9,,,,,,,AFNE03.jpg,AFNE20.jpg,AFSA04.jpg,AFSA07.jpg,AFNE03.jpg,FN,3,num_8,32,num_6,0.666816772893,,,2017_Mar_09_1239,60.0004619023,FEMA4ImagesEEG,001,100049,
AFNE01.JPG,AFNE01.JPG,AFNE01.JPG,AFNE01.JPG,AFNE01.JPG,AFNE01.JPG,,,,,,,,,,,,,,,,,1,5,15,2,,,,,,,AFNE02.jpg,AFSA03.jpg,AFNE20.jpg,AFSA01.jpg,AFNE02.jpg,FN,3,num_8,32,num_4,0.616813115776,,,2017_Mar_09_1239,60.0004619023,FEMA4ImagesEEG,001,100049,
AFNE01.JPG,AFNE01.JPG,AFNE01.JPG,AFNE01.JPG,AFNE01.JPG,AFNE01.JPG,,,,,,,,,,,,,,,,,1,6,16,1,,,,,,,AFNE09.jpg,AFSA01.jpg,AFNE05.jpg,AFSA12.jpg,AFNE09.jpg,FN,3,num_8,32,num_2,1.00017255824,,,2017_Mar_09_1239,60.0004619023,FEMA4ImagesEEG,001,100049,
AFNE01.JPG,AFNE01.JPG,AFNE01.JPG,AFNE01.JPG,AFNE01.JPG,AFNE01.JPG,,,,,,,,,,,,,,,,,1,7,17,4,,,,,,,AFNE09.jpg,AFSA01.jpg,AFNE03.jpg,AFSA02.jpg,AFSA02.jpg,FS,4,num_4,16,num_4,0.700133299455,,,2017_Mar_09_1239,60.0004619023,FEMA4ImagesEEG,001,100049,
AFNE01.JPG,AFNE01.JPG,AFNE01.JPG,AFNE01.JPG,AFNE01.JPG,AFNE01.JPG,,,,,,,,,,,,,,,,,1,8,18,8,,,,,,,AFNE06.jpg,AFNE13.jpg,AFSA03.jpg,AFSA08.jpg,AFSA08.jpg,FS,4,num_4,32,num_6,0.400203092024,,,2017_Mar_09_1239,60.0004619023,FEMA4ImagesEEG,001,100049,
AFNE01.JPG,AFNE01.JPG,AFNE01.JPG,AFNE01.JPG,AFNE01.JPG,AFNE01.JPG,,,,,,,,,,,,,,,,,1,9,19,7,,,,,,,AFNE18.jpg,AFNE11.jpg,AFSA13.jpg,AFSA01.jpg,AFSA13.jpg,FS,4,num_2,32,num_4,0.416678212583,,,2017_Mar_09_1239,60.0004619023,FEMA4ImagesEEG,001,100049,
AFNE01.JPG,AFNE01.JPG,AFNE01.JPG,AFNE01.JPG,AFNE01.JPG,AFNE01.JPG,,,,,,,,,,,,,,,,,2,0,20,3,,,,,,,AFSA16.jpg,AFSA06.jpg,AFNE08.jpg,AFNE16.jpg,AFSA06.jpg,FS,4,num_6,32,num_8,0.633447645232,,,2017_Mar_09_1239,60.0004619023,FEMA4ImagesEEG,001,100049,
AFNE01.JPG,AFNE01.JPG,AFNE01.JPG,AFNE01.JPG,AFNE01.JPG,AFNE01.JPG,,,,,,,,,,,,,,,,,2,1,21,9,,,,,,,AFSA05.jpg,AFNE19.jpg,AFNE11.jpg,AFSA12.jpg,AFSA12.jpg,FS,4,num_4,32,num_6,1.10018436052,,,2017_Mar_09_1239,60.0004619023,FEMA4ImagesEEG,001,100049,
AFNE01.JPG,AFNE01.JPG,AFNE01.JPG,AFNE01.JPG,AFNE01.JPG,AFNE01.JPG,,,,,,,,,,,,,,,,,2,2,22,4,,,,,,,AFSA12.jpg,AFSA09.jpg,AFNE12.jpg,AFNE09.jpg,AFNE12.jpg,FN,3,num_2,32,num_4,0.333367331885,,,2017_Mar_09_1239,60.0004619023,FEMA4ImagesEEG,001,100049,
AFNE01.JPG,AFNE01.JPG,AFNE01.JPG,AFNE01.JPG,AFNE01.JPG,AFNE01.JPG,,,,,,,,,,,,,,,,,2,3,23,7,,,,,,,AFNE16.jpg,AFNE02.jpg,AFSA05.jpg,AFSA10.jpg,AFSA05.jpg,FS,4,num_2,16,num_2,1.10015260801,,,2017_Mar_09_1239,60.0004619023,FEMA4ImagesEEG,001,100049,
AFNE01.JPG,AFNE01.JPG,AFNE01.JPG,AFNE01.JPG,AFNE01.JPG,AFNE01.JPG,,,,,,,,,,,,,,,,,2,4,24,6,,,,,,,AFSA05.jpg,AFSA09.jpg,AFNE06.jpg,AFNE11.jpg,AFSA09.jpg,FS,4,num_6,32,num_2,1.08351230621,,,2017_Mar_09_1239,60.0004619023,FEMA4ImagesEEG,001,100049,
AFNE01.JPG,AFNE01.JPG,AFNE01.JPG,AFNE01.JPG,AFNE01.JPG,AFNE01.JPG,,,,,,,,,,,,,,,,,2,5,25,0,,,,,,,AFNE01.jpg,AFSA14.jpg,AFNE06.jpg,AFSA08.jpg,AFSA14.jpg,FS,4,num_6,16,num_6,0.383430325426,,,2017_Mar_09_1239,60.0004619023,FEMA4ImagesEEG,001,100049,
AFNE01.JPG,AFNE01.JPG,AFNE01.JPG,AFNE01.JPG,AFNE01.JPG,AFNE01.JPG,,,,,,,,,,,,,,,,,2,6,26,8,,,,,,,AFSA14.jpg,AFSA08.jpg,AFNE14.jpg,AFNE18.jpg,AFNE14.jpg,FN,3,num_2,16,num_2,0.88344219327,,,2017_Mar_09_1239,60.0004619023,FEMA4ImagesEEG,001,100049,
AFNE01.JPG,AFNE01.JPG,AFNE01.JPG,AFNE01.JPG,AFNE01.JPG,AFNE01.JPG,,,,,,,,,,,,,,,,,2,7,27,5,,,,,,,AFNE19.jpg,AFSA10.jpg,AFSA06.jpg,AFNE17.jpg,AFSA06.jpg,FS,4,num_2,32,num_8,0.683458678424,,,2017_Mar_09_1239,60.0004619023,FEMA4ImagesEEG,001,100049,
AFNE01.JPG,AFNE01.JPG,AFNE01.JPG,AFNE01.JPG,AFNE01.JPG,AFNE01.JPG,,,,,,,,,,,,,,,,,2,8,28,1,,,,,,,AFNE16.jpg,AFSA06.jpg,AFNE18.jpg,AFSA04.jpg,AFSA04.jpg,FS,4,num_4,16,num_4,0.533550345339,,,2017_Mar_09_1239,60.0004619023,FEMA4ImagesEEG,001,100049,
AFNE01.JPG,AFNE01.JPG,AFNE01.JPG,AFNE01.JPG,AFNE01.JPG,AFNE01.JPG,,,,,,,,,,,,,,,,,2,9,29,2,,,,,,,AFSA06.jpg,AFSA20.jpg,AFNE19.jpg,AFNE12.jpg,AFNE19.jpg,FN,3,num_2,32,num_8,0.433523147367,,,2017_Mar_09_1239,60.0004619023,FEMA4ImagesEEG,001,100049,
AFNE01.JPG,AFNE01.JPG,AFNE01.JPG,AFNE01.JPG,AFNE01.JPG,AFNE01.JPG,,,,,,,,,,,,,,,,,3,0,30,4,,,,,,,AFSA04.jpg,AFNE19.jpg,AFNE01.jpg,AFSA06.jpg,AFSA04.jpg,FS,4,num_8,32,num_6,0.400198281743,,,2017_Mar_09_1239,60.0004619023,FEMA4ImagesEEG,001,100049,
AFNE01.JPG,AFNE01.JPG,AFNE01.JPG,AFNE01.JPG,AFNE01.JPG,AFNE01.JPG,,,,,,,,,,,,,,,,,3,1,31,6,,,,,,,AFNE01.jpg,AFNE03.jpg,AFSA16.jpg,AFSA06.jpg,AFSA06.jpg,FS,4,num_4,32,num_6,0.96676430013,,,2017_Mar_09_1239,60.0004619023,FEMA4ImagesEEG,001,100049,
AFNE01.JPG,AFNE01.JPG,AFNE01.JPG,AFNE01.JPG,AFNE01.JPG,AFNE01.JPG,,,,,,,,,,,,,,,,,3,2,32,1,,,,,,,AFNE08.jpg,AFNE11.jpg,AFSA15.jpg,AFSA08.jpg,AFSA15.jpg,FS,4,num_2,32,num_8,0.466814335436,,,2017_Mar_09_1239,60.0004619023,FEMA4ImagesEEG,001,100049,
AFNE01.JPG,AFNE01.JPG,AFNE01.JPG,AFNE01.JPG,AFNE01.JPG,AFNE01.JPG,,,,,,,,,,,,,,,,,3,3,33,9,,,,,,,AFNE01.jpg,AFSA02.jpg,AFSA12.jpg,AFNE11.jpg,AFSA12.jpg,FS,4,num_2,32,num_4,2.11671080068,,,2017_Mar_09_1239,60.0004619023,FEMA4ImagesEEG,001,100049,
AFNE01.JPG,AFNE01.JPG,AFNE01.JPG,AFNE01.JPG,AFNE01.JPG,AFNE01.JPG,,,,,,,,,,,,,,,,,3,4,34,5,,,,,,,AFSA02.jpg,AFNE20.jpg,AFNE13.jpg,AFSA18.jpg,AFSA18.jpg,FS,4,num_4,32,num_6,0.76679682266,,,2017_Mar_09_1239,60.0004619023,FEMA4ImagesEEG,001,100049,
AFNE01.JPG,AFNE01.JPG,AFNE01.JPG,AFNE01.JPG,AFNE01.JPG,AFNE01.JPG,,,,,,,,,,,,,,,,,3,5,35,7,,,,,,,AFSA07.jpg,AFNE09.jpg,AFNE03.jpg,AFSA13.jpg,AFNE03.jpg,FN,3,num_2,32,num_4,0.650133171119,,,2017_Mar_09_1239,60.0004619023,FEMA4ImagesEEG,001,100049,
AFNE01.JPG,AFNE01.JPG,AFNE01.JPG,AFNE01.JPG,AFNE01.JPG,AFNE01.JPG,,,,,,,,,,,,,,,,,3,6,36,3,,,,,,,AFNE05.jpg,AFSA19.jpg,AFSA02.jpg,AFNE15.jpg,AFSA02.jpg,FS,4,num_2,32,num_6,0.483512691222,,,2017_Mar_09_1239,60.0004619023,FEMA4ImagesEEG,001,100049,
AFNE01.JPG,AFNE01.JPG,AFNE01.JPG,AFNE01.JPG,AFNE01.JPG,AFNE01.JPG,,,,,,,,,,,,,,,,,3,7,37,8,,,,,,,AFSA09.jpg,AFNE17.jpg,AFSA16.jpg,AFNE19.jpg,AFSA09.jpg,FS,4,num_8,32,num_2,0.533545214683,,,2017_Mar_09_1239,60.0004619023,FEMA4ImagesEEG,001,100049,
AFNE01.JPG,AFNE01.JPG,AFNE01.JPG,AFNE01.JPG,AFNE01.JPG,AFNE01.JPG,,,,,,,,,,,,,,,,,3,8,38,0,,,,,,,AFSA16.jpg,AFNE04.jpg,AFSA04.jpg,AFNE17.jpg,AFNE04.jpg,FN,3,num_6,32,num_8,0.333537003025,,,2017_Mar_09_1239,60.0004619023,FEMA4ImagesEEG,001,100049,
AFNE01.JPG,AFNE01.JPG,AFNE01.JPG,AFNE01.JPG,AFNE01.JPG,AFNE01.JPG,,,,,,,,,,,,,,,,,3,9,39,2,,,,,,,AFSA04.jpg,AFNE04.jpg,AFSA08.jpg,AFNE02.jpg,AFSA04.jpg,FS,4,num_8,32,num_2,0.450157996267,,,2017_Mar_09_1239,60.0004619023,FEMA4ImagesEEG,001,100049,
AFNE01.JPG,AFNE01.JPG,AFNE01.JPG,AFNE01.JPG,AFNE01.JPG,AFNE01.JPG,,,,,,,,,,,,,,,,,4,0,40,1,,,,,,,AFSA17.jpg,AFNE09.jpg,AFNE04.jpg,AFSA13.jpg,AFSA13.jpg,FS,4,num_4,16,num_4,0.350194625556,,,2017_Mar_09_1239,60.0004619023,FEMA4ImagesEEG,001,100049,
AFNE01.JPG,AFNE01.JPG,AFNE01.JPG,AFNE01.JPG,AFNE01.JPG,AFNE01.JPG,,,,,,,,,,,,,,,,,4,1,41,2,,,,,,,AFSA14.jpg,AFNE14.jpg,AFNE03.jpg,AFSA16.jpg,AFNE14.jpg,FN,3,num_6,32,num_4,0.600229264237,,,2017_Mar_09_1239,60.0004619023,FEMA4ImagesEEG,001,100049,
AFNE01.JPG,AFNE01.JPG,AFNE01.JPG,AFNE01.JPG,AFNE01.JPG,AFNE01.JPG,,,,,,,,,,,,,,,,,4,2,42,5,,,,,,,AFSA09.jpg,AFSA19.jpg,AFNE03.jpg,AFNE05.jpg,AFNE05.jpg,FN,3,num_4,16,num_4,0.366799645126,,,2017_Mar_09_1239,60.0004619023,FEMA4ImagesEEG,001,100049,
AFNE01.JPG,AFNE01.JPG,AFNE01.JPG,AFNE01.JPG,AFNE01.JPG,AFNE01.JPG,,,,,,,,,,,,,,,,,4,3,43,7,,,,,,,AFSA15.jpg,AFSA03.jpg,AFNE19.jpg,AFNE01.jpg,AFSA03.jpg,FS,4,num_6,16,num_6,2.54996837582,,,2017_Mar_09_1239,60.0004619023,FEMA4ImagesEEG,001,100049,
AFNE01.JPG,AFNE01.JPG,AFNE01.JPG,AFNE01.JPG,AFNE01.JPG,AFNE01.JPG,,,,,,,,,,,,,,,,,4,4,44,0,,,,,,,AFSA05.jpg,AFNE07.jpg,AFSA13.jpg,AFNE04.jpg,AFSA13.jpg,FS,4,num_2,16,num_2,0.566764235497,,,2017_Mar_09_1239,60.0004619023,FEMA4ImagesEEG,001,100049,
AFNE01.JPG,AFNE01.JPG,AFNE01.JPG,AFNE01.JPG,AFNE01.JPG,AFNE01.JPG,,,,,,,,,,,,,,,,,4,5,45,6,,,,,,,AFNE13.jpg,AFSA06.jpg,AFSA16.jpg,AFNE10.jpg,AFSA06.jpg,FS,4,num_6,32,num_8,0.433490431868,,,2017_Mar_09_1239,60.0004619023,FEMA4ImagesEEG,001,100049,
AFNE01.JPG,AFNE01.JPG,AFNE01.JPG,AFNE01.JPG,AFNE01.JPG,AFNE01.JPG,,,,,,,,,,,,,,,,,4,6,46,9,,,,,,,AFNE16.jpg,AFNE03.jpg,AFSA05.jpg,AFSA14.jpg,AFSA05.jpg,FS,4,num_2,16,num_2,0.500122522004,,,2017_Mar_09_1239,60.0004619023,FEMA4ImagesEEG,001,100049,
AFNE01.JPG,AFNE01.JPG,AFNE01.JPG,AFNE01.JPG,AFNE01.JPG,AFNE01.JPG,,,,,,,,,,,,,,,,,4,7,47,8,,,,,,,AFNE16.jpg,AFNE20.jpg,AFSA10.jpg,AFSA03.jpg,AFNE20.jpg,FN,3,num_6,32,num_8,0.366864434443,,,2017_Mar_09_1239,60.0004619023,FEMA4ImagesEEG,001,100049,
AFNE01.JPG,AFNE01.JPG,AFNE01.JPG,AFNE01.JPG,AFNE01.JPG,AFNE01.JPG,,,,,,,,,,,,,,,,,4,8,48,4,,,,,,,AFSA05.jpg,AFSA06.jpg,AFNE13.jpg,AFNE04.jpg,AFSA05.jpg,FS,4,num_8,32,num_2,0.733473881148,,,2017_Mar_09_1239,60.0004619023,FEMA4ImagesEEG,001,100049,
AFNE01.JPG,AFNE01.JPG,AFNE01.JPG,AFNE01.JPG,AFNE01.JPG,AFNE01.JPG,,,,,,,,,,,,,,,,,4,9,49,3,,,,,,,AFSA13.jpg,AFNE07.jpg,AFNE14.jpg,AFSA03.jpg,AFSA13.jpg,FS,4,num_8,16,num_8,0.367083500139,,,2017_Mar_09_1239,60.0004619023,FEMA4ImagesEEG,001,100049,
AFNE01.JPG,AFNE01.JPG,AFNE01.JPG,AFNE01.JPG,AFNE01.JPG,AFNE01.JPG,,,,,,,,,,,,,,,,,5,0,50,9,,,,,,,AFSA17.jpg,AFNE09.jpg,AFSA11.jpg,AFNE05.jpg,AFNE09.jpg,FN,3,num_6,32,num_8,0.833468044177,,,2017_Mar_09_1239,60.0004619023,FEMA4ImagesEEG,001,100049,
AFNE01.JPG,AFNE01.JPG,AFNE01.JPG,AFNE01.JPG,AFNE01.JPG,AFNE01.JPG,,,,,,,,,,,,,,,,,5,1,51,8,,,,,,,AFSA11.jpg,AFNE15.jpg,AFSA04.jpg,AFNE20.jpg,AFSA11.jpg,FS,4,num_8,32,num_4,0.66683120653,,,2017_Mar_09_1239,60.0004619023,FEMA4ImagesEEG,001,100049,
AFNE01.JPG,AFNE01.JPG,AFNE01.JPG,AFNE01.JPG,AFNE01.JPG,AFNE01.JPG,,,,,,,,,,,,,,,,,5,2,52,6,,,,,,,AFNE18.jpg,AFSA09.jpg,AFNE02.jpg,AFSA06.jpg,AFSA06.jpg,FS,4,num_4,16,num_4,0.750151068904,,,2017_Mar_09_1239,60.0004619023,FEMA4ImagesEEG,001,100049,
AFNE01.JPG,AFNE01.JPG,AFNE01.JPG,AFNE01.JPG,AFNE01.JPG,AFNE01.JPG,,,,,,,,,,,,,,,,,5,3,53,3,,,,,,,AFSA16.jpg,AFSA11.jpg,AFNE18.jpg,AFNE16.jpg,AFSA11.jpg,FS,4,num_6,32,num_2,1.08346547838,,,2017_Mar_09_1239,60.0004619023,FEMA4ImagesEEG,001,100049,
AFNE01.JPG,AFNE01.JPG,AFNE01.JPG,AFNE01.JPG,AFNE01.JPG,AFNE01.JPG,,,,,,,,,,,,,,,,,5,4,54,4,,,,,,,AFNE13.jpg,AFNE01.jpg,AFSA10.jpg,AFSA07.jpg,AFNE01.jpg,FN,3,num_6,16,num_6,0.666872902773,,,2017_Mar_09_1239,60.0004619023,FEMA4ImagesEEG,001,100049,
AFNE01.JPG,AFNE01.JPG,AFNE01.JPG,AFNE01.JPG,AFNE01.JPG,AFNE01.JPG,,,,,,,,,,,,,,,,,5,5,55,0,,,,,,,AFNE11.jpg,AFSA19.jpg,AFNE07.jpg,AFSA06.jpg,AFSA06.jpg,FS,4,num_4,32,num_2,2.16329889931,,,2017_Mar_09_1239,60.0004619023,FEMA4ImagesEEG,001,100049,
AFNE01.JPG,AFNE01.JPG,AFNE01.JPG,AFNE01.JPG,AFNE01.JPG,AFNE01.JPG,,,,,,,,,,,,,,,,,5,6,56,5,,,,,,,AFNE07.jpg,AFSA12.jpg,AFSA17.jpg,AFNE12.jpg,AFSA12.jpg,FS,4,num_6,32,num_2,0.800157290883,,,2017_Mar_09_1239,60.0004619023,FEMA4ImagesEEG,001,100049,
AFNE01.JPG,AFNE01.JPG,AFNE01.JPG,AFNE01.JPG,AFNE01.JPG,AFNE01.JPG,,,,,,,,,,,,,,,,,5,7,57,2,,,,,,,AFSA09.jpg,AFNE17.jpg,AFNE05.jpg,AFSA16.jpg,AFSA09.jpg,FS,4,num_8,16,num_8,1.13316956349,,,2017_Mar_09_1239,60.0004619023,FEMA4ImagesEEG,001,100049,
AFNE01.JPG,AFNE01.JPG,AFNE01.JPG,AFNE01.JPG,AFNE01.JPG,AFNE01.JPG,,,,,,,,,,,,,,,,,5,8,58,7,,,,,,,AFSA12.jpg,AFNE11.jpg,AFNE03.jpg,AFSA08.jpg,AFSA08.jpg,FS,4,num_4,32,num_8,0.400174226612,,,2017_Mar_09_1239,60.0004619023,FEMA4ImagesEEG,001,100049,
AFNE01.JPG,AFNE01.JPG,AFNE01.JPG,AFNE01.JPG,AFNE01.JPG,AFNE01.JPG,,,,,,,,,,,,,,,,,5,9,59,1,,,,,,,AFNE06.jpg,AFSA03.jpg,AFSA05.jpg,AFNE12.jpg,AFNE06.jpg,FN,3,num_8,32,num_2,0.416906900704,,,2017_Mar_09_1239,60.0004619023,FEMA4ImagesEEG,001,100049,
,,,,,,,,,,,,,,,,,,,,,,,,,,,,,,,,,,,,,,,,,,,space,2.43340190779,2017_Mar_09_1239,60.0004619023,FEMA4ImagesEEG,001,100049,
AFNE01.JPG,AFNE01.JPG,AFNE01.JPG,AFNE01.JPG,AFNE01.JPG,AFNE01.JPG,,,,,,,,,,,,,,,,,,,,,0,0,0,6,,,AMSA13.jpg,AMNE06.jpg,AMSA08.jpg,AMNE13.jpg,AMNE13.jpg,MN,1,num_4,32,num_8,0.783471123315,,,2017_Mar_09_1239,60.0004619023,FEMA4ImagesEEG,001,100049,
AFNE01.JPG,AFNE01.JPG,AFNE01.JPG,AFNE01.JPG,AFNE01.JPG,AFNE01.JPG,,,,,,,,,,,,,,,,,,,,,0,1,1,2,,,AMNE19.jpg,AMSA15.jpg,AMNE09.jpg,AMSA20.jpg,AMSA15.jpg,MS,2,num_6,16,num_6,0.566759103909,,,2017_Mar_09_1239,60.0004619023,FEMA4ImagesEEG,001,100049,
AFNE01.JPG,AFNE01.JPG,AFNE01.JPG,AFNE01.JPG,AFNE01.JPG,AFNE01.JPG,,,,,,,,,,,,,,,,,,,,,0,2,2,5,,,AMSA06.jpg,AMNE09.jpg,AMNE06.jpg,AMSA18.jpg,AMSA18.jpg,MS,2,num_4,16,num_4,0.566786366515,,,2017_Mar_09_1239,60.0004619023,FEMA4ImagesEEG,001,100049,
AFNE01.JPG,AFNE01.JPG,AFNE01.JPG,AFNE01.JPG,AFNE01.JPG,AFNE01.JPG,,,,,,,,,,,,,,,,,,,,,0,3,3,8,,,AMSA10.jpg,AMSA09.jpg,AMNE18.jpg,AMNE02.jpg,AMSA09.jpg,MS,2,num_6,32,num_4,0.666762888432,,,2017_Mar_09_1239,60.0004619023,FEMA4ImagesEEG,001,100049,
AFNE01.JPG,AFNE01.JPG,AFNE01.JPG,AFNE01.JPG,AFNE01.JPG,AFNE01.JPG,,,,,,,,,,,,,,,,,,,,,0,4,4,7,,,AMSA16.jpg,AMSA11.jpg,AMNE01.jpg,AMNE04.jpg,AMNE01.jpg,MN,1,num_2,32,num_6,0.683499091305,,,2017_Mar_09_1239,60.0004619023,FEMA4ImagesEEG,001,100049,
AFNE01.JPG,AFNE01.JPG,AFNE01.JPG,AFNE01.JPG,AFNE01.JPG,AFNE01.JPG,,,,,,,,,,,,,,,,,,,,,0,5,5,3,,,AMNE17.jpg,AMSA05.jpg,AMSA15.jpg,AMNE01.jpg,AMSA05.jpg,MS,2,num_6,32,num_8,0.833469327539,,,2017_Mar_09_1239,60.0004619023,FEMA4ImagesEEG,001,100049,
AFNE01.JPG,AFNE01.JPG,AFNE01.JPG,AFNE01.JPG,AFNE01.JPG,AFNE01.JPG,,,,,,,,,,,,,,,,,,,,,0,6,6,4,,,AMSA16.jpg,AMNE02.jpg,AMSA15.jpg,AMNE10.jpg,AMNE10.jpg,MN,1,num_4,32,num_6,0.833491778933,,,2017_Mar_09_1239,60.0004619023,FEMA4ImagesEEG,001,100049,
AFNE01.JPG,AFNE01.JPG,AFNE01.JPG,AFNE01.JPG,AFNE01.JPG,AFNE01.JPG,,,,,,,,,,,,,,,,,,,,,0,7,7,1,,,AMSA20.jpg,AMNE12.jpg,AMNE01.jpg,AMSA15.jpg,AMSA20.jpg,MS,2,num_8,32,num_4,0.433481451124,,,2017_Mar_09_1239,60.0004619023,FEMA4ImagesEEG,001,100049,
AFNE01.JPG,AFNE01.JPG,AFNE01.JPG,AFNE01.JPG,AFNE01.JPG,AFNE01.JPG,,,,,,,,,,,,,,,,,,,,,0,8,8,9,,,AMNE03.jpg,AMNE01.jpg,AMSA13.jpg,AMSA16.jpg,AMNE01.jpg,MN,1,num_6,32,num_2,0.483494729735,,,2017_Mar_09_1239,60.0004619023,FEMA4ImagesEEG,001,100049,
AFNE01.JPG,AFNE01.JPG,AFNE01.JPG,AFNE01.JPG,AFNE01.JPG,AFNE01.JPG,,,,,,,,,,,,,,,,,,,,,0,9,9,0,,,AMNE05.jpg,AMSA11.jpg,AMNE04.jpg,AMSA01.jpg,AMSA01.jpg,MS,2,num_4,16,num_4,0.650190263055,,,2017_Mar_09_1239,60.0004619023,FEMA4ImagesEEG,001,100049,
AFNE01.JPG,AFNE01.JPG,AFNE01.JPG,AFNE01.JPG,AFNE01.JPG,AFNE01.JPG,,,,,,,,,,,,,,,,,,,,,1,0,10,3,,,AMNE09.jpg,AMNE20.jpg,AMSA20.jpg,AMSA04.jpg,AMSA20.jpg,MS,2,num_2,32,num_6,0.733447900973,,,2017_Mar_09_1239,60.0004619023,FEMA4ImagesEEG,001,100049,
AFNE01.JPG,AFNE01.JPG,AFNE01.JPG,AFNE01.JPG,AFNE01.JPG,AFNE01.JPG,,,,,,,,,,,,,,,,,,,,,1,1,11,4,,,AMNE12.jpg,AMSA11.jpg,AMNE20.jpg,AMSA07.jpg,AMNE20.jpg,MN,1,num_2,32,num_8,0.816887399182,,,2017_Mar_09_1239,60.0004619023,FEMA4ImagesEEG,001,100049,
AFNE01.JPG,AFNE01.JPG,AFNE01.JPG,AFNE01.JPG,AFNE01.JPG,AFNE01.JPG,,,,,,,,,,,,,,,,,,,,,1,2,12,1,,,AMNE13.jpg,AMNE05.jpg,AMSA02.jpg,AMSA11.jpg,AMNE13.jpg,MN,1,num_8,16,num_8,0.783486519009,,,2017_Mar_09_1239,60.0004619023,FEMA4ImagesEEG,001,100049,
AFNE01.JPG,AFNE01.JPG,AFNE01.JPG,AFNE01.JPG,AFNE01.JPG,AFNE01.JPG,,,,,,,,,,,,,,,,,,,,,1,3,13,2,,,AMNE07.jpg,AMSA05.jpg,AMSA07.jpg,AMNE04.jpg,AMSA05.jpg,MS,2,num_6,16,num_6,1.28331011161,,,2017_Mar_09_1239,60.0004619023,FEMA4ImagesEEG,001,100049,
AFNE01.JPG,AFNE01.JPG,AFNE01.JPG,AFNE01.JPG,AFNE01.JPG,AFNE01.JPG,,,,,,,,,,,,,,,,,,,,,1,4,14,5,,,AMNE10.jpg,AMNE05.jpg,AMSA17.jpg,AMSA04.jpg,AMSA04.jpg,MS,2,num_4,32,num_8,0.966739282012,,,2017_Mar_09_1239,60.0004619023,FEMA4ImagesEEG,001,100049,
AFNE01.JPG,AFNE01.JPG,AFNE01.JPG,AFNE01.JPG,AFNE01.JPG,AFNE01.JPG,,,,,,,,,,,,,,,,,,,,,1,5,15,6,,,AMNE05.jpg,AMSA19.jpg,AMSA15.jpg,AMNE06.jpg,AMSA15.jpg,MS,2,num_2,16,num_2,0.13354290463,,,2017_Mar_09_1239,60.0004619023,FEMA4ImagesEEG,001,100049,
AFNE01.JPG,AFNE01.JPG,AFNE01.JPG,AFNE01.JPG,AFNE01.JPG,AFNE01.JPG,,,,,,,,,,,,,,,,,,,,,1,6,16,8,,,AMNE11.jpg,AMSA09.jpg,AMSA07.jpg,AMNE07.jpg,AMSA09.jpg,MS,2,num_6,32,num_8,0.483478050679,,,2017_Mar_09_1239,60.0004619023,FEMA4ImagesEEG,001,100049,
AFNE01.JPG,AFNE01.JPG,AFNE01.JPG,AFNE01.JPG,AFNE01.JPG,AFNE01.JPG,,,,,,,,,,,,,,,,,,,,,1,7,17,7,,,AMNE18.jpg,AMSA06.jpg,AMNE20.jpg,AMSA20.jpg,AMNE18.jpg,MN,1,num_8,32,num_6,0.666842111386,,,2017_Mar_09_1239,60.0004619023,FEMA4ImagesEEG,001,100049,
AFNE01.JPG,AFNE01.JPG,AFNE01.JPG,AFNE01.JPG,AFNE01.JPG,AFNE01.JPG,,,,,,,,,,,,,,,,,,,,,1,8,18,9,,,AMNE17.jpg,AMSA18.jpg,AMSA15.jpg,AMNE13.jpg,AMSA18.jpg,MS,2,num_6,32,num_2,0.483506276272,,,2017_Mar_09_1239,60.0004619023,FEMA4ImagesEEG,001,100049,
AFNE01.JPG,AFNE01.JPG,AFNE01.JPG,AFNE01.JPG,AFNE01.JPG,AFNE01.JPG,,,,,,,,,,,,,,,,,,,,,1,9,19,0,,,AMNE13.jpg,AMSA12.jpg,AMSA10.jpg,AMNE04.jpg,AMNE04.jpg,MN,1,num_4,16,num_4,0.316823251545,,,2017_Mar_09_1239,60.0004619023,FEMA4ImagesEEG,001,100049,
AFNE01.JPG,AFNE01.JPG,AFNE01.JPG,AFNE01.JPG,AFNE01.JPG,AFNE01.JPG,,,,,,,,,,,,,,,,,,,,,2,0,20,2,,,AMSA14.jpg,AMNE19.jpg,AMSA06.jpg,AMNE16.jpg,AMSA14.jpg,MS,2,num_8,32,num_2,0.383485812694,,,2017_Mar_09_1239,60.0004619023,FEMA4ImagesEEG,001,100049,
AFNE01.JPG,AFNE01.JPG,AFNE01.JPG,AFNE01.JPG,AFNE01.JPG,AFNE01.JPG,,,,,,,,,,,,,,,,,,,,,2,1,21,1,,,AMNE04.jpg,AMNE17.jpg,AMSA13.jpg,AMSA01.jpg,AMNE04.jpg,MN,1,num_8,16,num_8,0.550170119852,,,2017_Mar_09_1239,60.0004619023,FEMA4ImagesEEG,001,100049,
AFNE01.JPG,AFNE01.JPG,AFNE01.JPG,AFNE01.JPG,AFNE01.JPG,AFNE01.JPG,,,,,,,,,,,,,,,,,,,,,2,2,22,6,,,AMNE12.jpg,AMSA18.jpg,AMNE09.jpg,AMSA03.jpg,AMSA03.jpg,MS,2,num_4,16,num_4,0.550095708109,,,2017_Mar_09_1239,60.0004619023,FEMA4ImagesEEG,001,100049,
