IPosition2,IPosition3,IPosition1,IPosition6,IPosition4,IPosition5,TrialsM1.thisRepN,TrialsM1.thisTrialN,TrialsM1.thisN,TrialsM1.thisIndex,TrialsF1.thisRepN,TrialsF1.thisTrialN,TrialsF1.thisN,TrialsF1.thisIndex,TrialsM2.thisRepN,TrialsM2.thisTrialN,TrialsM2.thisN,TrialsM2.thisIndex,TrialsF2.thisRepN,TrialsF2.thisTrialN,TrialsF2.thisN,TrialsF2.thisIndex,TrialsM3.thisRepN,TrialsM3.thisTrialN,TrialsM3.thisN,TrialsM3.thisIndex,TrialsF3.thisRepN,TrialsF3.thisTrialN,TrialsF3.thisN,TrialsF3.thisIndex,InstrKey_resp.keys,InstrKey_resp.rt,Image0 _Position,Image1 _Position,Image2 _Position,Image3 _Position,Center_image,condition,code,correct_answer,accuracy,Key_Resp.keys,Key_Resp.rt,BreakKey_resp.keys,BreakKey_resp.rt,date,frameRate,expName,session,participant,
,,,,,,,,,,,,,,,,,,,,,,,,,,,,,,space,56.5958644464,,,,,,,,,,,,,,2017_Mar_22_1503,60.0070635209,MAFE4ImagesEEG,001,100098,
AFSA25.JPG,AFNE24.JPG,AFSA24.JPG,AFNE21.JPG,AFSA21.JPG,AFNE25.JPG,0,0,0,2,,,,,,,,,,,,,,,,,,,,,,,AMSA06.jpg,AMNE13.jpg,AMNE03.jpg,AMSA09.jpg,AMSA09.jpg,MS,2,num_4,16,num_4,2.01696231915,,,2017_Mar_22_1503,60.0070635209,MAFE4ImagesEEG,001,100098,
AFNE23.JPG,AFNE24.JPG,AFNE22.JPG,AFSA24.JPG,AFSA22.JPG,AFSA23.JPG,0,1,1,8,,,,,,,,,,,,,,,,,,,,,,,AMSA17.jpg,AMSA03.jpg,AMNE11.jpg,AMNE09.jpg,AMNE09.jpg,MN,1,num_4,32,num_2,1.25005412486,,,2017_Mar_22_1503,60.0070635209,MAFE4ImagesEEG,001,100098,
AFSA21.JPG,AFNE22.JPG,AFNE21.JPG,AFSA23.JPG,AFSA22.JPG,AFNE23.JPG,0,2,2,0,,,,,,,,,,,,,,,,,,,,,,,AMSA04.jpg,AMNE15.jpg,AMNE04.jpg,AMSA10.jpg,AMNE15.jpg,MN,1,num_6,16,num_6,2.03336430609,,,2017_Mar_22_1503,60.0070635209,MAFE4ImagesEEG,001,100098,
AMNE22.JPG,AMSA24.JPG,AMSA22.JPG,AMNE25.JPG,AMNE24.JPG,AMSA25.JPG,0,3,3,7,,,,,,,,,,,,,,,,,,,,,,,AMSA19.jpg,AMSA07.jpg,AMNE15.jpg,AMNE08.jpg,AMSA07.jpg,MS,2,num_6,16,num_6,0.633445517393,,,2017_Mar_22_1503,60.0070635209,MAFE4ImagesEEG,001,100098,
AMNE23.JPG,AMNE24.JPG,AMNE22.JPG,AMSA24.JPG,AMSA22.JPG,AMSA23.JPG,0,4,4,9,,,,,,,,,,,,,,,,,,,,,,,AMSA03.jpg,AMSA16.jpg,AMNE04.jpg,AMNE09.jpg,AMNE04.jpg,MN,1,num_2,16,num_2,0.983463623154,,,2017_Mar_22_1503,60.0070635209,MAFE4ImagesEEG,001,100098,
AMSA25.JPG,AMNE24.JPG,AMSA24.JPG,AMNE26.JPG,AMSA21.JPG,AMNE25.JPG,0,5,5,3,,,,,,,,,,,,,,,,,,,,,,,AMSA09.jpg,AMNE18.jpg,AMSA08.jpg,AMNE04.jpg,AMSA08.jpg,MS,2,num_2,32,num_8,1.00001892366,,,2017_Mar_22_1503,60.0070635209,MAFE4ImagesEEG,001,100098,
AFSA21.JPG,AFNE23.JPG,AFNE21.JPG,AFSA25.JPG,AFNE25.JPG,AFSA23.JPG,0,6,6,4,,,,,,,,,,,,,,,,,,,,,,,AMNE15.jpg,AMNE11.jpg,AMSA13.jpg,AMSA20.jpg,AMSA13.jpg,MS,2,num_2,32,num_8,1.63345642254,,,2017_Mar_22_1503,60.0070635209,MAFE4ImagesEEG,001,100098,
AMSA21.JPG,AMNE23.JPG,AMNE21.JPG,AMSA25.JPG,AMNE25.JPG,AMSA23.JPG,0,7,7,5,,,,,,,,,,,,,,,,,,,,,,,AMNE02.jpg,AMSA18.jpg,AMNE01.jpg,AMSA05.jpg,AMSA05.jpg,MS,2,num_4,32,num_8,1.31685426197,,,2017_Mar_22_1503,60.0070635209,MAFE4ImagesEEG,001,100098,
AFNE22.JPG,AFSA24.JPG,AFSA22.JPG,AFNE25.JPG,AFNE24.JPG,AFSA25.JPG,0,8,8,6,,,,,,,,,,,,,,,,,,,,,,,AMSA01.jpg,AMNE05.jpg,AMSA15.jpg,AMNE01.jpg,AMNE05.jpg,MN,1,num_6,16,num_6,1.40007915854,,,2017_Mar_22_1503,60.0070635209,MAFE4ImagesEEG,001,100098,
AMSA21.JPG,AMNE22.JPG,AMNE21.JPG,AMSA23.JPG,AMSA22.JPG,AMNE23.JPG,0,9,9,1,,,,,,,,,,,,,,,,,,,,,,,AMSA13.jpg,AMNE15.jpg,AMNE12.jpg,AMSA05.jpg,AMNE12.jpg,MN,1,num_2,16,num_2,1.80003034201,,,2017_Mar_22_1503,60.0070635209,MAFE4ImagesEEG,001,100098,
AMSA21.JPG,AMNE22.JPG,AMNE21.JPG,AMSA23.JPG,AMSA22.JPG,AMNE23.JPG,,,,,0,0,0,1,,,,,,,,,,,,,,,,,,,AFSA11.jpg,AFNE05.jpg,AFSA01.jpg,AFNE02.jpg,AFSA11.jpg,FS,4,num_8,16,num_8,0.683533191564,,,2017_Mar_22_1503,60.0070635209,MAFE4ImagesEEG,001,100098,
AFSA21.JPG,AFNE22.JPG,AFNE21.JPG,AFSA23.JPG,AFSA22.JPG,AFNE23.JPG,,,,,0,1,1,0,,,,,,,,,,,,,,,,,,,AFSA01.jpg,AFNE02.jpg,AFSA03.jpg,AFNE15.jpg,AFSA01.jpg,FS,4,num_8,32,num_6,0.91673244501,,,2017_Mar_22_1503,60.0070635209,MAFE4ImagesEEG,001,100098,
AMSA21.JPG,AMNE23.JPG,AMNE21.JPG,AMSA25.JPG,AMNE25.JPG,AMSA23.JPG,,,,,0,2,2,5,,,,,,,,,,,,,,,,,,,AFSA07.jpg,AFNE16.jpg,AFNE05.jpg,AFSA01.jpg,AFSA01.jpg,FS,4,num_4,16,num_4,1.18342879077,,,2017_Mar_22_1503,60.0070635209,MAFE4ImagesEEG,001,100098,
AMNE23.JPG,AMNE24.JPG,AMNE22.JPG,AMSA24.JPG,AMSA22.JPG,AMSA23.JPG,,,,,0,3,3,9,,,,,,,,,,,,,,,,,,,AFNE16.jpg,AFNE15.jpg,AFSA01.jpg,AFSA15.jpg,AFSA15.jpg,FS,4,num_4,32,num_6,1.2667223257,,,2017_Mar_22_1503,60.0070635209,MAFE4ImagesEEG,001,100098,
AFSA25.JPG,AFNE24.JPG,AFSA24.JPG,AFNE21.JPG,AFSA21.JPG,AFNE25.JPG,,,,,0,4,4,2,,,,,,,,,,,,,,,,,,,AFSA10.jpg,AFSA16.jpg,AFNE02.jpg,AFNE01.jpg,AFSA16.jpg,FS,4,num_6,32,num_4,1.06674529065,,,2017_Mar_22_1503,60.0070635209,MAFE4ImagesEEG,001,100098,
AFSA21.JPG,AFNE23.JPG,AFNE21.JPG,AFSA25.JPG,AFNE25.JPG,AFSA23.JPG,,,,,0,5,5,4,,,,,,,,,,,,,,,,,,,AFNE10.jpg,AFSA15.jpg,AFNE17.jpg,AFSA14.jpg,AFSA14.jpg,FS,4,num_4,16,num_4,1.60007255134,,,2017_Mar_22_1503,60.0070635209,MAFE4ImagesEEG,001,100098,
AMNE22.JPG,AMSA24.JPG,AMSA22.JPG,AMNE25.JPG,AMNE24.JPG,AMSA25.JPG,,,,,0,6,6,7,,,,,,,,,,,,,,,,,,,AFNE18.jpg,AFSA17.jpg,AFNE20.jpg,AFSA08.jpg,AFNE18.jpg,FN,3,num_8,16,num_8,0.866757671174,,,2017_Mar_22_1503,60.0070635209,MAFE4ImagesEEG,001,100098,
AFNE23.JPG,AFNE24.JPG,AFNE22.JPG,AFSA24.JPG,AFSA22.JPG,AFSA23.JPG,,,,,0,7,7,8,,,,,,,,,,,,,,,,,,,AFNE18.jpg,AFNE14.jpg,AFSA15.jpg,AFSA09.jpg,AFNE18.jpg,FN,3,num_8,16,num_8,1.75008571765,,,2017_Mar_22_1503,60.0070635209,MAFE4ImagesEEG,001,100098,
AFNE22.JPG,AFSA24.JPG,AFSA22.JPG,AFNE25.JPG,AFNE24.JPG,AFSA25.JPG,,,,,0,8,8,6,,,,,,,,,,,,,,,,,,,AFNE18.jpg,AFSA02.jpg,AFNE20.jpg,AFSA14.jpg,AFSA02.jpg,FS,4,num_6,32,num_4,1.6333945198,,,2017_Mar_22_1503,60.0070635209,MAFE4ImagesEEG,001,100098,
AMSA25.JPG,AMNE24.JPG,AMSA24.JPG,AMNE26.JPG,AMSA21.JPG,AMNE25.JPG,,,,,0,9,9,3,,,,,,,,,,,,,,,,,,,AFSA05.jpg,AFNE16.jpg,AFNE17.jpg,AFSA08.jpg,AFSA08.jpg,FS,4,num_4,16,num_4,2.06672540482,,,2017_Mar_22_1503,60.0070635209,MAFE4ImagesEEG,001,100098,
AMNE22.JPG,AMSA24.JPG,AMSA22.JPG,AMNE25.JPG,AMNE24.JPG,AMSA25.JPG,,,,,,,,,0,0,0,7,,,,,,,,,,,,,,,AMNE13.jpg,AMSA07.jpg,AMNE20.jpg,AMSA03.jpg,AMSA07.jpg,MS,2,num_6,16,num_6,0.466834392108,,,2017_Mar_22_1503,60.0070635209,MAFE4ImagesEEG,001,100098,
AFSA21.JPG,AFNE23.JPG,AFNE21.JPG,AFSA25.JPG,AFNE25.JPG,AFSA23.JPG,,,,,,,,,0,1,1,4,,,,,,,,,,,,,,,AMSA18.jpg,AMNE20.jpg,AMSA09.jpg,AMNE13.jpg,AMSA09.jpg,MS,2,num_2,32,num_4,1.06676645949,,,2017_Mar_22_1503,60.0070635209,MAFE4ImagesEEG,001,100098,
AMSA25.JPG,AMNE24.JPG,AMSA24.JPG,AMNE26.JPG,AMSA21.JPG,AMNE25.JPG,,,,,,,,,0,2,2,3,,,,,,,,,,,,,,,AMNE16.jpg,AMSA16.jpg,AMNE18.jpg,AMSA18.jpg,AMSA16.jpg,MS,2,num_6,16,num_6,1.63342306559,,,2017_Mar_22_1503,60.0070635209,MAFE4ImagesEEG,001,100098,
AFNE23.JPG,AFNE24.JPG,AFNE22.JPG,AFSA24.JPG,AFSA22.JPG,AFSA23.JPG,,,,,,,,,0,3,3,8,,,,,,,,,,,,,,,AMNE06.jpg,AMSA10.jpg,AMNE05.jpg,AMSA08.jpg,AMSA08.jpg,MS,2,num_4,32,num_2,2.3500921966,,,2017_Mar_22_1503,60.0070635209,MAFE4ImagesEEG,001,100098,
AFSA21.JPG,AFNE22.JPG,AFNE21.JPG,AFSA23.JPG,AFSA22.JPG,AFNE23.JPG,,,,,,,,,0,4,4,0,,,,,,,,,,,,,,,AMSA19.jpg,AMSA12.jpg,AMNE12.jpg,AMNE13.jpg,AMNE12.jpg,MN,1,num_2,32,num_4,1.03342492587,,,2017_Mar_22_1503,60.0070635209,MAFE4ImagesEEG,001,100098,
AMSA21.JPG,AMNE23.JPG,AMNE21.JPG,AMSA25.JPG,AMNE25.JPG,AMSA23.JPG,,,,,,,,,0,5,5,5,,,,,,,,,,,,,,,AMNE08.jpg,AMSA07.jpg,AMNE20.jpg,AMSA05.jpg,AMSA05.jpg,MS,2,num_4,16,num_4,1.4500693279,,,2017_Mar_22_1503,60.0070635209,MAFE4ImagesEEG,001,100098,
AMNE23.JPG,AMNE24.JPG,AMNE22.JPG,AMSA24.JPG,AMSA22.JPG,AMSA23.JPG,,,,,,,,,0,6,6,9,,,,,,,,,,,,,,,AMSA01.jpg,AMSA12.jpg,AMNE09.jpg,AMNE19.jpg,AMNE19.jpg,MN,1,num_4,32,num_2,1.00017961423,,,2017_Mar_22_1503,60.0070635209,MAFE4ImagesEEG,001,100098,
AMSA21.JPG,AMNE22.JPG,AMNE21.JPG,AMSA23.JPG,AMSA22.JPG,AMNE23.JPG,,,,,,,,,0,7,7,1,,,,,,,,,,,,,,,AMNE09.jpg,AMSA02.jpg,AMNE10.jpg,AMSA10.jpg,AMSA10.jpg,MS,2,num_4,16,num_4,0.783457080019,,,2017_Mar_22_1503,60.0070635209,MAFE4ImagesEEG,001,100098,
AFNE22.JPG,AFSA24.JPG,AFSA22.JPG,AFNE25.JPG,AFNE24.JPG,AFSA25.JPG,,,,,,,,,0,8,8,6,,,,,,,,,,,,,,,AMSA18.jpg,AMSA16.jpg,AMNE11.jpg,AMNE19.jpg,AMSA18.jpg,MS,2,num_8,32,num_6,1.08296894631,,,2017_Mar_22_1503,60.0070635209,MAFE4ImagesEEG,001,100098,
AFSA25.JPG,AFNE24.JPG,AFSA24.JPG,AFNE21.JPG,AFSA21.JPG,AFNE25.JPG,,,,,,,,,0,9,9,2,,,,,,,,,,,,,,,AMSA06.jpg,AMNE06.jpg,AMNE04.jpg,AMSA16.jpg,AMSA16.jpg,MS,2,num_4,32,num_6,2.20001969341,,,2017_Mar_22_1503,60.0070635209,MAFE4ImagesEEG,001,100098,
AMSA25.JPG,AMNE24.JPG,AMSA24.JPG,AMNE26.JPG,AMSA21.JPG,AMNE25.JPG,,,,,,,,,,,,,0,0,0,3,,,,,,,,,,,AFSA13.jpg,AFNE07.jpg,AFNE15.jpg,AFSA09.jpg,AFSA13.jpg,FS,4,num_8,16,num_8,0.683463591035,,,2017_Mar_22_1503,60.0070635209,MAFE4ImagesEEG,001,100098,
AFSA21.JPG,AFNE22.JPG,AFNE21.JPG,AFSA23.JPG,AFSA22.JPG,AFNE23.JPG,,,,,,,,,,,,,0,1,1,0,,,,,,,,,,,AFSA14.jpg,AFNE16.jpg,AFSA01.jpg,AFNE04.jpg,AFNE04.jpg,FN,3,num_4,16,num_4,1.40007402672,,,2017_Mar_22_1503,60.0070635209,MAFE4ImagesEEG,001,100098,
AFNE22.JPG,AFSA24.JPG,AFSA22.JPG,AFNE25.JPG,AFNE24.JPG,AFSA25.JPG,,,,,,,,,,,,,0,2,2,6,,,,,,,,,,,AFNE03.jpg,AFNE08.jpg,AFSA04.jpg,AFSA05.jpg,AFSA05.jpg,FS,4,num_4,32,num_8,0.883472379297,,,2017_Mar_22_1503,60.0070635209,MAFE4ImagesEEG,001,100098,
AMSA21.JPG,AMNE23.JPG,AMNE21.JPG,AMSA25.JPG,AMNE25.JPG,AMSA23.JPG,,,,,,,,,,,,,0,3,3,5,,,,,,,,,,,AFSA02.jpg,AFSA14.jpg,AFNE07.jpg,AFNE02.jpg,AFNE02.jpg,FN,3,num_4,32,num_6,2.13337832241,,,2017_Mar_22_1503,60.0070635209,MAFE4ImagesEEG,001,100098,
AMNE23.JPG,AMNE24.JPG,AMNE22.JPG,AMSA24.JPG,AMSA22.JPG,AMSA23.JPG,,,,,,,,,,,,,0,4,4,9,,,,,,,,,,,AFSA18.jpg,AFNE02.jpg,AFSA03.jpg,AFNE05.jpg,AFSA03.jpg,FS,4,num_2,32,num_4,1.18344258261,,,2017_Mar_22_1503,60.0070635209,MAFE4ImagesEEG,001,100098,
AMNE22.JPG,AMSA24.JPG,AMSA22.JPG,AMNE25.JPG,AMNE24.JPG,AMSA25.JPG,,,,,,,,,,,,,0,5,5,7,,,,,,,,,,,AFNE18.jpg,AFSA05.jpg,AFNE05.jpg,AFSA09.jpg,AFSA09.jpg,FS,4,num_4,16,num_4,1.31666759151,,,2017_Mar_22_1503,60.0070635209,MAFE4ImagesEEG,001,100098,
AFSA25.JPG,AFNE24.JPG,AFSA24.JPG,AFNE21.JPG,AFSA21.JPG,AFNE25.JPG,,,,,,,,,,,,,0,6,6,2,,,,,,,,,,,AFSA09.jpg,AFSA08.jpg,AFNE14.jpg,AFNE04.jpg,AFNE04.jpg,FN,3,num_4,32,num_8,1.70004583366,,,2017_Mar_22_1503,60.0070635209,MAFE4ImagesEEG,001,100098,
AMSA21.JPG,AMNE22.JPG,AMNE21.JPG,AMSA23.JPG,AMSA22.JPG,AMNE23.JPG,,,,,,,,,,,,,0,7,7,1,,,,,,,,,,,AFSA02.jpg,AFSA10.jpg,AFNE15.jpg,AFNE16.jpg,AFNE15.jpg,FN,3,num_2,32,num_4,1.01679842116,,,2017_Mar_22_1503,60.0070635209,MAFE4ImagesEEG,001,100098,
AFSA21.JPG,AFNE23.JPG,AFNE21.JPG,AFSA25.JPG,AFNE25.JPG,AFSA23.JPG,,,,,,,,,,,,,0,8,8,4,,,,,,,,,,,AFSA03.jpg,AFNE18.jpg,AFNE12.jpg,AFSA13.jpg,AFNE18.jpg,FN,3,num_6,16,num_6,1.60004304326,,,2017_Mar_22_1503,60.0070635209,MAFE4ImagesEEG,001,100098,
AFNE23.JPG,AFNE24.JPG,AFNE22.JPG,AFSA24.JPG,AFSA22.JPG,AFSA23.JPG,,,,,,,,,,,,,0,9,9,8,,,,,,,,,,,AFSA08.jpg,AFNE06.jpg,AFNE02.jpg,AFSA17.jpg,AFNE02.jpg,FN,3,num_2,32,num_6,1.0501402755,,,2017_Mar_22_1503,60.0070635209,MAFE4ImagesEEG,001,100098,
AMSA21.JPG,AMNE23.JPG,AMNE21.JPG,AMSA25.JPG,AMNE25.JPG,AMSA23.JPG,,,,,,,,,,,,,,,,,0,0,0,5,,,,,,,AMNE20.jpg,AMSA01.jpg,AMNE03.jpg,AMSA13.jpg,AMSA13.jpg,MS,2,num_4,32,num_2,1.53340584191,,,2017_Mar_22_1503,60.0070635209,MAFE4ImagesEEG,001,100098,
AFSA21.JPG,AFNE23.JPG,AFNE21.JPG,AFSA25.JPG,AFNE25.JPG,AFSA23.JPG,,,,,,,,,,,,,,,,,0,1,1,4,,,,,,,AMSA14.jpg,AMSA06.jpg,AMNE18.jpg,AMNE19.jpg,AMNE19.jpg,MN,1,num_4,32,num_2,1.26698501152,,,2017_Mar_22_1503,60.0070635209,MAFE4ImagesEEG,001,100098,
AMSA21.JPG,AMNE22.JPG,AMNE21.JPG,AMSA23.JPG,AMSA22.JPG,AMNE23.JPG,,,,,,,,,,,,,,,,,0,2,2,1,,,,,,,AMSA18.jpg,AMSA20.jpg,AMNE03.jpg,AMNE16.jpg,AMSA18.jpg,MS,2,num_8,16,num_8,0.783479211095,,,2017_Mar_22_1503,60.0070635209,MAFE4ImagesEEG,001,100098,
AFSA25.JPG,AFNE24.JPG,AFSA24.JPG,AFNE21.JPG,AFSA21.JPG,AFNE25.JPG,,,,,,,,,,,,,,,,,0,3,3,2,,,,,,,AMSA09.jpg,AMNE12.jpg,AMSA19.jpg,AMNE18.jpg,AMNE18.jpg,MN,1,num_4,16,num_4,0.816763653012,,,2017_Mar_22_1503,60.0070635209,MAFE4ImagesEEG,001,100098,
AMNE22.JPG,AMSA24.JPG,AMSA22.JPG,AMNE25.JPG,AMNE24.JPG,AMSA25.JPG,,,,,,,,,,,,,,,,,0,4,4,7,,,,,,,AMNE12.jpg,AMNE08.jpg,AMSA02.jpg,AMSA03.jpg,AMNE12.jpg,MN,1,num_8,32,num_4,0.916473928839,,,2017_Mar_22_1503,60.0070635209,MAFE4ImagesEEG,001,100098,
AFSA21.JPG,AFNE22.JPG,AFNE21.JPG,AFSA23.JPG,AFSA22.JPG,AFNE23.JPG,,,,,,,,,,,,,,,,,0,5,5,0,,,,,,,AMNE05.jpg,AMNE01.jpg,AMSA03.jpg,AMSA15.jpg,AMSA15.jpg,MS,2,num_4,16,num_4,1.08335736208,,,2017_Mar_22_1503,60.0070635209,MAFE4ImagesEEG,001,100098,
AFNE23.JPG,AFNE24.JPG,AFNE22.JPG,AFSA24.JPG,AFSA22.JPG,AFSA23.JPG,,,,,,,,,,,,,,,,,0,6,6,8,,,,,,,AMSA14.jpg,AMNE12.jpg,AMSA20.jpg,AMNE07.jpg,AMNE12.jpg,MN,1,num_6,16,num_6,0.600154339976,,,2017_Mar_22_1503,60.0070635209,MAFE4ImagesEEG,001,100098,
AMNE23.JPG,AMNE24.JPG,AMNE22.JPG,AMSA24.JPG,AMSA22.JPG,AMSA23.JPG,,,,,,,,,,,,,,,,,0,7,7,9,,,,,,,AMSA15.jpg,AMSA01.jpg,AMNE12.jpg,AMNE05.jpg,AMNE12.jpg,MN,1,num_2,16,num_2,0.950120165129,,,2017_Mar_22_1503,60.0070635209,MAFE4ImagesEEG,001,100098,
AMSA25.JPG,AMNE24.JPG,AMSA24.JPG,AMNE26.JPG,AMSA21.JPG,AMNE25.JPG,,,,,,,,,,,,,,,,,0,8,8,3,,,,,,,AMSA11.jpg,AMNE04.jpg,AMNE05.jpg,AMSA16.jpg,AMNE05.jpg,MN,1,num_2,16,num_2,0.816809518787,,,2017_Mar_22_1503,60.0070635209,MAFE4ImagesEEG,001,100098,
AFNE22.JPG,AFSA24.JPG,AFSA22.JPG,AFNE25.JPG,AFNE24.JPG,AFSA25.JPG,,,,,,,,,,,,,,,,,0,9,9,6,,,,,,,AMSA11.jpg,AMNE07.jpg,AMSA08.jpg,AMNE18.jpg,AMNE18.jpg,MN,1,num_4,16,num_4,1.48350098933,,,2017_Mar_22_1503,60.0070635209,MAFE4ImagesEEG,001,100098,
AMNE22.JPG,AMSA24.JPG,AMSA22.JPG,AMNE25.JPG,AMNE24.JPG,AMSA25.JPG,,,,,,,,,,,,,,,,,,,,,0,0,0,7,,,AFNE17.jpg,AFSA03.jpg,AFNE16.jpg,AFSA19.jpg,AFNE17.jpg,FN,3,num_8,32,num_6,1.56675122434,,,2017_Mar_22_1503,60.0070635209,MAFE4ImagesEEG,001,100098,
AFNE22.JPG,AFSA24.JPG,AFSA22.JPG,AFNE25.JPG,AFNE24.JPG,AFSA25.JPG,,,,,,,,,,,,,,,,,,,,,0,1,1,6,,,AFNE06.jpg,AFNE09.jpg,AFSA04.jpg,AFSA09.jpg,AFSA09.jpg,FS,4,num_4,16,num_4,0.883465002349,,,2017_Mar_22_1503,60.0070635209,MAFE4ImagesEEG,001,100098,
AFSA21.JPG,AFNE23.JPG,AFNE21.JPG,AFSA25.JPG,AFNE25.JPG,AFSA23.JPG,,,,,,,,,,,,,,,,,,,,,0,2,2,4,,,AFSA03.jpg,AFNE05.jpg,AFSA15.jpg,AFNE18.jpg,AFNE05.jpg,FN,3,num_6,16,num_6,0.966789969709,,,2017_Mar_22_1503,60.0070635209,MAFE4ImagesEEG,001,100098,
AMSA21.JPG,AMNE22.JPG,AMNE21.JPG,AMSA23.JPG,AMSA22.JPG,AMNE23.JPG,,,,,,,,,,,,,,,,,,,,,0,3,3,1,,,AFNE14.jpg,AFSA11.jpg,AFNE03.jpg,AFSA19.jpg,AFNE14.jpg,FN,3,num_8,16,num_8,1.20011334942,,,2017_Mar_22_1503,60.0070635209,MAFE4ImagesEEG,001,100098,
AFSA25.JPG,AFNE24.JPG,AFSA24.JPG,AFNE21.JPG,AFSA21.JPG,AFNE25.JPG,,,,,,,,,,,,,,,,,,,,,0,4,4,2,,,AFNE05.jpg,AFSA02.jpg,AFNE13.jpg,AFSA18.jpg,AFSA18.jpg,FS,4,num_4,32,num_8,1.55006602424,,,2017_Mar_22_1503,60.0070635209,MAFE4ImagesEEG,001,100098,
AMSA25.JPG,AMNE24.JPG,AMSA24.JPG,AMNE26.JPG,AMSA21.JPG,AMNE25.JPG,,,,,,,,,,,,,,,,,,,,,0,5,5,3,,,AFNE01.jpg,AFSA19.jpg,AFNE05.jpg,AFSA02.jpg,AFNE05.jpg,FN,3,num_2,32,num_4,1.41674543498,,,2017_Mar_22_1503,60.0070635209,MAFE4ImagesEEG,001,100098,
AMNE23.JPG,AMNE24.JPG,AMNE22.JPG,AMSA24.JPG,AMSA22.JPG,AMSA23.JPG,,,,,,,,,,,,,,,,,,,,,0,6,6,9,,,AFSA16.jpg,AFSA09.jpg,AFNE14.jpg,AFNE17.jpg,AFSA16.jpg,FS,4,num_8,32,num_4,1.0501675384,,,2017_Mar_22_1503,60.0070635209,MAFE4ImagesEEG,001,100098,
AFNE23.JPG,AFNE24.JPG,AFNE22.JPG,AFSA24.JPG,AFSA22.JPG,AFSA23.JPG,,,,,,,,,,,,,,,,,,,,,0,7,7,8,,,AFNE11.jpg,AFNE18.jpg,AFSA04.jpg,AFSA12.jpg,AFNE11.jpg,FN,3,num_8,32,num_2,1.50006238389,,,2017_Mar_22_1503,60.0070635209,MAFE4ImagesEEG,001,100098,
AMSA21.JPG,AMNE23.JPG,AMNE21.JPG,AMSA25.JPG,AMNE25.JPG,AMSA23.JPG,,,,,,,,,,,,,,,,,,,,,0,8,8,5,,,AFSA09.jpg,AFSA19.jpg,AFNE19.jpg,AFNE07.jpg,AFSA19.jpg,FS,4,num_6,32,num_8,0.950178219005,,,2017_Mar_22_1503,60.0070635209,MAFE4ImagesEEG,001,100098,
AFSA21.JPG,AFNE22.JPG,AFNE21.JPG,AFSA23.JPG,AFSA22.JPG,AFNE23.JPG,,,,,,,,,,,,,,,,,,,,,0,9,9,0,,,AFSA03.jpg,AFSA18.jpg,AFNE04.jpg,AFNE08.jpg,AFNE08.jpg,FN,3,num_4,16,num_4,0.916786970804,,,2017_Mar_22_1503,60.0070635209,MAFE4ImagesEEG,001,100098,
,,,,,,,,,,,,,,,,,,,,,,,,,,,,,,,,,,,,,,,,,,,space,10.649064258,2017_Mar_22_1503,60.0070635209,MAFE4ImagesEEG,001,100098,
AFNE01.JPG,AFNE01.JPG,AFNE01.JPG,AFNE01.JPG,AFNE01.JPG,AFNE01.JPG,0,0,0,9,,,,,,,,,,,,,,,,,,,,,,,AMSA05.jpg,AMSA16.jpg,AMNE11.jpg,AMNE08.jpg,AMSA05.jpg,MS,2,num_8,32,num_4,1.20013836713,,,2017_Mar_22_1503,60.0070635209,MAFE4ImagesEEG,001,100098,
AFNE01.JPG,AFNE01.JPG,AFNE01.JPG,AFNE01.JPG,AFNE01.JPG,AFNE01.JPG,0,1,1,0,,,,,,,,,,,,,,,,,,,,,,,AMSA11.jpg,AMNE02.jpg,AMSA05.jpg,AMNE20.jpg,AMSA05.jpg,MS,2,num_2,32,num_6,0.916646807513,,,2017_Mar_22_1503,60.0070635209,MAFE4ImagesEEG,001,100098,
AFNE01.JPG,AFNE01.JPG,AFNE01.JPG,AFNE01.JPG,AFNE01.JPG,AFNE01.JPG,0,2,2,6,,,,,,,,,,,,,,,,,,,,,,,AMSA13.jpg,AMNE12.jpg,AMSA01.jpg,AMNE19.jpg,AMSA01.jpg,MS,2,num_2,16,num_2,1.41674543498,,,2017_Mar_22_1503,60.0070635209,MAFE4ImagesEEG,001,100098,
AFNE01.JPG,AFNE01.JPG,AFNE01.JPG,AFNE01.JPG,AFNE01.JPG,AFNE01.JPG,0,3,3,8,,,,,,,,,,,,,,,,,,,,,,,AMNE09.jpg,AMNE10.jpg,AMSA17.jpg,AMSA13.jpg,AMSA13.jpg,MS,2,num_4,32,num_6,0.616816446767,,,2017_Mar_22_1503,60.0070635209,MAFE4ImagesEEG,001,100098,
AFNE01.JPG,AFNE01.JPG,AFNE01.JPG,AFNE01.JPG,AFNE01.JPG,AFNE01.JPG,0,4,4,7,,,,,,,,,,,,,,,,,,,,,,,AMNE03.jpg,AMSA15.jpg,AMNE04.jpg,AMSA14.jpg,AMNE03.jpg,MN,1,num_8,16,num_8,0.78347792814,,,2017_Mar_22_1503,60.0070635209,MAFE4ImagesEEG,001,100098,
AFNE01.JPG,AFNE01.JPG,AFNE01.JPG,AFNE01.JPG,AFNE01.JPG,AFNE01.JPG,0,5,5,4,,,,,,,,,,,,,,,,,,,,,,,AMSA01.jpg,AMNE15.jpg,AMNE14.jpg,AMSA20.jpg,AMNE15.jpg,MN,1,num_6,16,num_6,0.500146738428,,,2017_Mar_22_1503,60.0070635209,MAFE4ImagesEEG,001,100098,
AFNE01.JPG,AFNE01.JPG,AFNE01.JPG,AFNE01.JPG,AFNE01.JPG,AFNE01.JPG,0,6,6,5,,,,,,,,,,,,,,,,,,,,,,,AMNE20.jpg,AMSA01.jpg,AMSA13.jpg,AMNE14.jpg,AMNE14.jpg,MN,1,num_4,32,num_8,0.900094714423,,,2017_Mar_22_1503,60.0070635209,MAFE4ImagesEEG,001,100098,
AFNE01.JPG,AFNE01.JPG,AFNE01.JPG,AFNE01.JPG,AFNE01.JPG,AFNE01.JPG,0,7,7,1,,,,,,,,,,,,,,,,,,,,,,,AMNE14.jpg,AMNE20.jpg,AMSA05.jpg,AMSA08.jpg,AMNE20.jpg,MN,1,num_6,16,num_6,0.666802767199,,,2017_Mar_22_1503,60.0070635209,MAFE4ImagesEEG,001,100098,
AFNE01.JPG,AFNE01.JPG,AFNE01.JPG,AFNE01.JPG,AFNE01.JPG,AFNE01.JPG,0,8,8,2,,,,,,,,,,,,,,,,,,,,,,,AMNE01.jpg,AMSA01.jpg,AMNE03.jpg,AMSA08.jpg,AMSA08.jpg,MS,2,num_4,16,num_4,0.600142793322,,,2017_Mar_22_1503,60.0070635209,MAFE4ImagesEEG,001,100098,
AFNE01.JPG,AFNE01.JPG,AFNE01.JPG,AFNE01.JPG,AFNE01.JPG,AFNE01.JPG,0,9,9,3,,,,,,,,,,,,,,,,,,,,,,,AMNE16.jpg,AMSA02.jpg,AMSA05.jpg,AMNE14.jpg,AMSA05.jpg,MS,2,num_2,16,num_2,2.6833045042,,,2017_Mar_22_1503,60.0070635209,MAFE4ImagesEEG,001,100098,
AFNE01.JPG,AFNE01.JPG,AFNE01.JPG,AFNE01.JPG,AFNE01.JPG,AFNE01.JPG,1,0,10,7,,,,,,,,,,,,,,,,,,,,,,,AMSA14.jpg,AMNE15.jpg,AMNE11.jpg,AMSA08.jpg,AMNE11.jpg,MN,1,num_2,16,num_2,0.900207614817,,,2017_Mar_22_1503,60.0070635209,MAFE4ImagesEEG,001,100098,
AFNE01.JPG,AFNE01.JPG,AFNE01.JPG,AFNE01.JPG,AFNE01.JPG,AFNE01.JPG,1,1,11,4,,,,,,,,,,,,,,,,,,,,,,,AMSA17.jpg,AMNE08.jpg,AMSA12.jpg,AMNE04.jpg,AMNE08.jpg,MN,1,num_6,16,num_6,1.00016133208,,,2017_Mar_22_1503,60.0070635209,MAFE4ImagesEEG,001,100098,
AFNE01.JPG,AFNE01.JPG,AFNE01.JPG,AFNE01.JPG,AFNE01.JPG,AFNE01.JPG,1,2,12,2,,,,,,,,,,,,,,,,,,,,,,,AMNE13.jpg,AMSA15.jpg,AMSA16.jpg,AMNE09.jpg,AMSA15.jpg,MS,2,num_6,16,num_6,0.883485850412,,,2017_Mar_22_1503,60.0070635209,MAFE4ImagesEEG,001,100098,
AFNE01.JPG,AFNE01.JPG,AFNE01.JPG,AFNE01.JPG,AFNE01.JPG,AFNE01.JPG,1,3,13,6,,,,,,,,,,,,,,,,,,,,,,,AMSA15.jpg,AMNE04.jpg,AMSA09.jpg,AMNE15.jpg,AMNE04.jpg,MN,1,num_6,32,num_2,0.76683121681,,,2017_Mar_22_1503,60.0070635209,MAFE4ImagesEEG,001,100098,
AFNE01.JPG,AFNE01.JPG,AFNE01.JPG,AFNE01.JPG,AFNE01.JPG,AFNE01.JPG,1,4,14,5,,,,,,,,,,,,,,,,,,,,,,,AMSA18.jpg,AMNE02.jpg,AMNE13.jpg,AMSA04.jpg,AMSA18.jpg,MS,2,num_8,16,num_8,1.26677107811,,,2017_Mar_22_1503,60.0070635209,MAFE4ImagesEEG,001,100098,
AFNE01.JPG,AFNE01.JPG,AFNE01.JPG,AFNE01.JPG,AFNE01.JPG,AFNE01.JPG,1,5,15,8,,,,,,,,,,,,,,,,,,,,,,,AMNE10.jpg,AMSA05.jpg,AMNE01.jpg,AMSA19.jpg,AMSA05.jpg,MS,2,num_6,16,num_6,0.86672816315,,,2017_Mar_22_1503,60.0070635209,MAFE4ImagesEEG,001,100098,
AFNE01.JPG,AFNE01.JPG,AFNE01.JPG,AFNE01.JPG,AFNE01.JPG,AFNE01.JPG,1,6,16,9,,,,,,,,,,,,,,,,,,,,,,,AMNE09.jpg,AMSA19.jpg,AMSA03.jpg,AMNE13.jpg,AMNE09.jpg,MN,1,num_8,16,num_8,1.03342107707,,,2017_Mar_22_1503,60.0070635209,MAFE4ImagesEEG,001,100098,
AFNE01.JPG,AFNE01.JPG,AFNE01.JPG,AFNE01.JPG,AFNE01.JPG,AFNE01.JPG,1,7,17,3,,,,,,,,,,,,,,,,,,,,,,,AMNE14.jpg,AMSA15.jpg,AMSA08.jpg,AMNE19.jpg,AMSA15.jpg,MS,2,num_6,16,num_6,1.11675823247,,,2017_Mar_22_1503,60.0070635209,MAFE4ImagesEEG,001,100098,
AFNE01.JPG,AFNE01.JPG,AFNE01.JPG,AFNE01.JPG,AFNE01.JPG,AFNE01.JPG,1,8,18,0,,,,,,,,,,,,,,,,,,,,,,,AMSA12.jpg,AMNE17.jpg,AMSA15.jpg,AMNE18.jpg,AMNE17.jpg,MN,1,num_6,16,num_6,1.10012435081,,,2017_Mar_22_1503,60.0070635209,MAFE4ImagesEEG,001,100098,
AFNE01.JPG,AFNE01.JPG,AFNE01.JPG,AFNE01.JPG,AFNE01.JPG,AFNE01.JPG,1,9,19,1,,,,,,,,,,,,,,,,,,,,,,,AMNE05.jpg,AMSA09.jpg,AMSA19.jpg,AMNE01.jpg,AMNE01.jpg,MN,1,num_4,32,num_2,0.666783522815,,,2017_Mar_22_1503,60.0070635209,MAFE4ImagesEEG,001,100098,
AFNE01.JPG,AFNE01.JPG,AFNE01.JPG,AFNE01.JPG,AFNE01.JPG,AFNE01.JPG,2,0,20,1,,,,,,,,,,,,,,,,,,,,,,,AMSA14.jpg,AMNE06.jpg,AMSA01.jpg,AMNE04.jpg,AMSA01.jpg,MS,2,num_2,32,num_8,1.80006113299,,,2017_Mar_22_1503,60.0070635209,MAFE4ImagesEEG,001,100098,
AFNE01.JPG,AFNE01.JPG,AFNE01.JPG,AFNE01.JPG,AFNE01.JPG,AFNE01.JPG,2,1,21,0,,,,,,,,,,,,,,,,,,,,,,,AMNE14.jpg,AMSA11.jpg,AMSA10.jpg,AMNE19.jpg,AMSA11.jpg,MS,2,num_6,32,num_4,1.03343518957,,,2017_Mar_22_1503,60.0070635209,MAFE4ImagesEEG,001,100098,
AFNE01.JPG,AFNE01.JPG,AFNE01.JPG,AFNE01.JPG,AFNE01.JPG,AFNE01.JPG,2,2,22,6,,,,,,,,,,,,,,,,,,,,,,,AMSA13.jpg,AMSA16.jpg,AMNE05.jpg,AMNE01.jpg,AMSA16.jpg,MS,2,num_6,16,num_6,1.40006889484,,,2017_Mar_22_1503,60.0070635209,MAFE4ImagesEEG,001,100098,
AFNE01.JPG,AFNE01.JPG,AFNE01.JPG,AFNE01.JPG,AFNE01.JPG,AFNE01.JPG,2,3,23,2,,,,,,,,,,,,,,,,,,,,,,,AMSA11.jpg,AMNE16.jpg,AMNE07.jpg,AMSA16.jpg,AMSA11.jpg,MS,2,num_8,32,num_4,0.700170601427,,,2017_Mar_22_1503,60.0070635209,MAFE4ImagesEEG,001,100098,
AFNE01.JPG,AFNE01.JPG,AFNE01.JPG,AFNE01.JPG,AFNE01.JPG,AFNE01.JPG,2,4,24,8,,,,,,,,,,,,,,,,,,,,,,,AMSA17.jpg,AMNE10.jpg,AMSA10.jpg,AMNE07.jpg,AMSA17.jpg,MS,2,num_8,32,num_6,0.766834103502,,,2017_Mar_22_1503,60.0070635209,MAFE4ImagesEEG,001,100098,
AFNE01.JPG,AFNE01.JPG,AFNE01.JPG,AFNE01.JPG,AFNE01.JPG,AFNE01.JPG,2,5,25,7,,,,,,,,,,,,,,,,,,,,,,,AMSA01.jpg,AMNE08.jpg,AMSA10.jpg,AMNE09.jpg,AMSA10.jpg,MS,2,num_2,16,num_2,0.916776065598,,,2017_Mar_22_1503,60.0070635209,MAFE4ImagesEEG,001,100098,
AFNE01.JPG,AFNE01.JPG,AFNE01.JPG,AFNE01.JPG,AFNE01.JPG,AFNE01.JPG,2,6,26,3,,,,,,,,,,,,,,,,,,,,,,,AMNE05.jpg,AMSA14.jpg,AMNE09.jpg,AMSA08.jpg,AMSA14.jpg,MS,2,num_6,32,num_2,1.43339054263,,,2017_Mar_22_1503,60.0070635209,MAFE4ImagesEEG,001,100098,
AFNE01.JPG,AFNE01.JPG,AFNE01.JPG,AFNE01.JPG,AFNE01.JPG,AFNE01.JPG,2,7,27,9,,,,,,,,,,,,,,,,,,,,,,,AMSA08.jpg,AMSA11.jpg,AMNE13.jpg,AMNE04.jpg,AMNE13.jpg,MN,1,num_2,32,num_8,0.966755009082,,,2017_Mar_22_1503,60.0070635209,MAFE4ImagesEEG,001,100098,
AFNE01.JPG,AFNE01.JPG,AFNE01.JPG,AFNE01.JPG,AFNE01.JPG,AFNE01.JPG,2,8,28,4,,,,,,,,,,,,,,,,,,,,,,,AMNE02.jpg,AMSA09.jpg,AMSA13.jpg,AMNE18.jpg,AMNE18.jpg,MN,1,num_4,16,num_4,0.683480911015,,,2017_Mar_22_1503,60.0070635209,MAFE4ImagesEEG,001,100098,
AFNE01.JPG,AFNE01.JPG,AFNE01.JPG,AFNE01.JPG,AFNE01.JPG,AFNE01.JPG,2,9,29,5,,,,,,,,,,,,,,,,,,,,,,,AMSA12.jpg,AMNE01.jpg,AMSA10.jpg,AMNE16.jpg,AMNE01.jpg,MN,1,num_6,16,num_6,1.00012572994,,,2017_Mar_22_1503,60.0070635209,MAFE4ImagesEEG,001,100098,
AFNE01.JPG,AFNE01.JPG,AFNE01.JPG,AFNE01.JPG,AFNE01.JPG,AFNE01.JPG,3,0,30,2,,,,,,,,,,,,,,,,,,,,,,,AMSA16.jpg,AMNE20.jpg,AMNE14.jpg,AMSA03.jpg,AMNE14.jpg,MN,1,num_2,32,num_8,1.16676924995,,,2017_Mar_22_1503,60.0070635209,MAFE4ImagesEEG,001,100098,
AFNE01.JPG,AFNE01.JPG,AFNE01.JPG,AFNE01.JPG,AFNE01.JPG,AFNE01.JPG,3,1,31,1,,,,,,,,,,,,,,,,,,,,,,,AMNE19.jpg,AMSA01.jpg,AMSA12.jpg,AMNE07.jpg,AMSA12.jpg,MS,2,num_2,16,num_2,1.05013770959,,,2017_Mar_22_1503,60.0070635209,MAFE4ImagesEEG,001,100098,
AFNE01.JPG,AFNE01.JPG,AFNE01.JPG,AFNE01.JPG,AFNE01.JPG,AFNE01.JPG,3,2,32,9,,,,,,,,,,,,,,,,,,,,,,,AMNE12.jpg,AMSA18.jpg,AMSA07.jpg,AMNE20.jpg,AMSA18.jpg,MS,2,num_6,32,num_4,1.08348148834,,,2017_Mar_22_1503,60.0070635209,MAFE4ImagesEEG,001,100098,
AFNE01.JPG,AFNE01.JPG,AFNE01.JPG,AFNE01.JPG,AFNE01.JPG,AFNE01.JPG,3,3,33,7,,,,,,,,,,,,,,,,,,,,,,,AMNE15.jpg,AMNE01.jpg,AMSA15.jpg,AMSA17.jpg,AMNE15.jpg,MN,1,num_8,16,num_8,1.18348171288,,,2017_Mar_22_1503,60.0070635209,MAFE4ImagesEEG,001,100098,
AFNE01.JPG,AFNE01.JPG,AFNE01.JPG,AFNE01.JPG,AFNE01.JPG,AFNE01.JPG,3,4,34,0,,,,,,,,,,,,,,,,,,,,,,,AMSA02.jpg,AMNE18.jpg,AMNE14.jpg,AMSA06.jpg,AMSA06.jpg,MS,2,num_4,32,num_2,1.50011017412,,,2017_Mar_22_1503,60.0070635209,MAFE4ImagesEEG,001,100098,
AFNE01.JPG,AFNE01.JPG,AFNE01.JPG,AFNE01.JPG,AFNE01.JPG,AFNE01.JPG,3,5,35,6,,,,,,,,,,,,,,,,,,,,,,,AMSA03.jpg,AMNE11.jpg,AMSA15.jpg,AMNE08.jpg,AMSA15.jpg,MS,2,num_2,32,num_8,0.950129145873,,,2017_Mar_22_1503,60.0070635209,MAFE4ImagesEEG,001,100098,
AFNE01.JPG,AFNE01.JPG,AFNE01.JPG,AFNE01.JPG,AFNE01.JPG,AFNE01.JPG,3,6,36,4,,,,,,,,,,,,,,,,,,,,,,,AMNE03.jpg,AMSA05.jpg,AMNE15.jpg,AMSA12.jpg,AMNE03.jpg,MN,1,num_8,32,num_2,1.03329278115,,,2017_Mar_22_1503,60.0070635209,MAFE4ImagesEEG,001,100098,
AFNE01.JPG,AFNE01.JPG,AFNE01.JPG,AFNE01.JPG,AFNE01.JPG,AFNE01.JPG,3,7,37,5,,,,,,,,,,,,,,,,,,,,,,,AMNE10.jpg,AMSA12.jpg,AMNE04.jpg,AMSA09.jpg,AMSA12.jpg,MS,2,num_6,32,num_4,1.16678849427,,,2017_Mar_22_1503,60.0070635209,MAFE4ImagesEEG,001,100098,
AFNE01.JPG,AFNE01.JPG,AFNE01.JPG,AFNE01.JPG,AFNE01.JPG,AFNE01.JPG,3,8,38,8,,,,,,,,,,,,,,,,,,,,,,,AMSA15.jpg,AMSA13.jpg,AMNE19.jpg,AMNE04.jpg,AMNE04.jpg,MN,1,num_4,16,num_4,0.783440722327,,,2017_Mar_22_1503,60.0070635209,MAFE4ImagesEEG,001,100098,
AFNE01.JPG,AFNE01.JPG,AFNE01.JPG,AFNE01.JPG,AFNE01.JPG,AFNE01.JPG,3,9,39,3,,,,,,,,,,,,,,,,,,,,,,,AMSA09.jpg,AMSA18.jpg,AMNE05.jpg,AMNE08.jpg,AMNE05.jpg,MN,1,num_2,32,num_8,0.983467151294,,,2017_Mar_22_1503,60.0070635209,MAFE4ImagesEEG,001,100098,
AFNE01.JPG,AFNE01.JPG,AFNE01.JPG,AFNE01.JPG,AFNE01.JPG,AFNE01.JPG,4,0,40,5,,,,,,,,,,,,,,,,,,,,,,,AMSA09.jpg,AMNE16.jpg,AMSA14.jpg,AMNE18.jpg,AMNE16.jpg,MN,1,num_6,32,num_8,0.900112996635,,,2017_Mar_22_1503,60.0070635209,MAFE4ImagesEEG,001,100098,
AFNE01.JPG,AFNE01.JPG,AFNE01.JPG,AFNE01.JPG,AFNE01.JPG,AFNE01.JPG,4,1,41,4,,,,,,,,,,,,,,,,,,,,,,,AMSA08.jpg,AMNE16.jpg,AMNE12.jpg,AMSA13.jpg,AMSA13.jpg,MS,2,num_4,16,num_4,0.766765144479,,,2017_Mar_22_1503,60.0070635209,MAFE4ImagesEEG,001,100098,
AFNE01.JPG,AFNE01.JPG,AFNE01.JPG,AFNE01.JPG,AFNE01.JPG,AFNE01.JPG,4,2,42,0,,,,,,,,,,,,,,,,,,,,,,,AMNE07.jpg,AMSA11.jpg,AMSA05.jpg,AMNE12.jpg,AMSA05.jpg,MS,2,num_2,16,num_2,0.766794010997,,,2017_Mar_22_1503,60.0070635209,MAFE4ImagesEEG,001,100098,
AFNE01.JPG,AFNE01.JPG,AFNE01.JPG,AFNE01.JPG,AFNE01.JPG,AFNE01.JPG,4,3,43,3,,,,,,,,,,,,,,,,,,,,,,,AMSA07.jpg,AMNE01.jpg,AMSA15.jpg,AMNE11.jpg,AMSA15.jpg,MS,2,num_2,16,num_2,0.933468963427,,,2017_Mar_22_1503,60.0070635209,MAFE4ImagesEEG,001,100098,
AFNE01.JPG,AFNE01.JPG,AFNE01.JPG,AFNE01.JPG,AFNE01.JPG,AFNE01.JPG,4,4,44,2,,,,,,,,,,,,,,,,,,,,,,,AMNE16.jpg,AMSA15.jpg,AMSA01.jpg,AMNE10.jpg,AMSA15.jpg,MS,2,num_6,16,num_6,0.56683044706,,,2017_Mar_22_1503,60.0070635209,MAFE4ImagesEEG,001,100098,
AFNE01.JPG,AFNE01.JPG,AFNE01.JPG,AFNE01.JPG,AFNE01.JPG,AFNE01.JPG,4,5,45,6,,,,,,,,,,,,,,,,,,,,,,,AMNE17.jpg,AMSA06.jpg,AMNE20.jpg,AMSA01.jpg,AMSA01.jpg,MS,2,num_4,16,num_4,0.616648379189,,,2017_Mar_22_1503,60.0070635209,MAFE4ImagesEEG,001,100098,
AFNE01.JPG,AFNE01.JPG,AFNE01.JPG,AFNE01.JPG,AFNE01.JPG,AFNE01.JPG,4,6,46,1,,,,,,,,,,,,,,,,,,,,,,,AMNE15.jpg,AMNE13.jpg,AMSA08.jpg,AMSA20.jpg,AMSA20.jpg,MS,2,num_4,32,num_6,1.30007668887,,,2017_Mar_22_1503,60.0070635209,MAFE4ImagesEEG,001,100098,
AFNE01.JPG,AFNE01.JPG,AFNE01.JPG,AFNE01.JPG,AFNE01.JPG,AFNE01.JPG,4,7,47,7,,,,,,,,,,,,,,,,,,,,,,,AMSA15.jpg,AMNE19.jpg,AMSA05.jpg,AMNE16.jpg,AMSA15.jpg,MS,2,num_8,32,num_2,0.81682266912,,,2017_Mar_22_1503,60.0070635209,MAFE4ImagesEEG,001,100098,
AFNE01.JPG,AFNE01.JPG,AFNE01.JPG,AFNE01.JPG,AFNE01.JPG,AFNE01.JPG,4,8,48,9,,,,,,,,,,,,,,,,,,,,,,,AMNE07.jpg,AMSA19.jpg,AMSA11.jpg,AMNE18.jpg,AMSA19.jpg,MS,2,num_6,32,num_8,1.05014412443,,,2017_Mar_22_1503,60.0070635209,MAFE4ImagesEEG,001,100098,
AFNE01.JPG,AFNE01.JPG,AFNE01.JPG,AFNE01.JPG,AFNE01.JPG,AFNE01.JPG,4,9,49,8,,,,,,,,,,,,,,,,,,,,,,,AMSA14.jpg,AMNE05.jpg,AMSA15.jpg,AMNE13.jpg,AMNE13.jpg,MN,1,num_4,16,num_4,0.83347964409,,,2017_Mar_22_1503,60.0070635209,MAFE4ImagesEEG,001,100098,
AFNE01.JPG,AFNE01.JPG,AFNE01.JPG,AFNE01.JPG,AFNE01.JPG,AFNE01.JPG,5,0,50,6,,,,,,,,,,,,,,,,,,,,,,,AMNE06.jpg,AMNE15.jpg,AMSA12.jpg,AMSA11.jpg,AMNE06.jpg,MN,1,num_8,16,num_8,0.933398400724,,,2017_Mar_22_1503,60.0070635209,MAFE4ImagesEEG,001,100098,
AFNE01.JPG,AFNE01.JPG,AFNE01.JPG,AFNE01.JPG,AFNE01.JPG,AFNE01.JPG,5,1,51,9,,,,,,,,,,,,,,,,,,,,,,,AMSA02.jpg,AMNE16.jpg,AMSA18.jpg,AMNE13.jpg,AMNE16.jpg,MN,1,num_6,32,num_2,1.383440145,,,2017_Mar_22_1503,60.0070635209,MAFE4ImagesEEG,001,100098,
AFNE01.JPG,AFNE01.JPG,AFNE01.JPG,AFNE01.JPG,AFNE01.JPG,AFNE01.JPG,5,2,52,8,,,,,,,,,,,,,,,,,,,,,,,AMNE09.jpg,AMSA11.jpg,AMSA01.jpg,AMNE03.jpg,AMNE09.jpg,MN,1,num_8,16,num_8,0.816781935166,,,2017_Mar_22_1503,60.0070635209,MAFE4ImagesEEG,001,100098,
AFNE01.JPG,AFNE01.JPG,AFNE01.JPG,AFNE01.JPG,AFNE01.JPG,AFNE01.JPG,5,3,53,5,,,,,,,,,,,,,,,,,,,,,,,AMNE09.jpg,AMNE12.jpg,AMSA18.jpg,AMSA13.jpg,AMNE12.jpg,MN,1,num_6,16,num_6,0.78347279632,,,2017_Mar_22_1503,60.0070635209,MAFE4ImagesEEG,001,100098,
AFNE01.JPG,AFNE01.JPG,AFNE01.JPG,AFNE01.JPG,AFNE01.JPG,AFNE01.JPG,5,4,54,3,,,,,,,,,,,,,,,,,,,,,,,AMNE01.jpg,AMSA04.jpg,AMNE02.jpg,AMSA05.jpg,AMNE02.jpg,MN,1,num_2,32,num_8,1.60010430455,,,2017_Mar_22_1503,60.0070635209,MAFE4ImagesEEG,001,100098,
AFNE01.JPG,AFNE01.JPG,AFNE01.JPG,AFNE01.JPG,AFNE01.JPG,AFNE01.JPG,5,5,55,0,,,,,,,,,,,,,,,,,,,,,,,AMSA13.jpg,AMNE02.jpg,AMNE05.jpg,AMSA01.jpg,AMNE02.jpg,MN,1,num_6,32,num_2,1.46676350862,,,2017_Mar_22_1503,60.0070635209,MAFE4ImagesEEG,001,100098,
AFNE01.JPG,AFNE01.JPG,AFNE01.JPG,AFNE01.JPG,AFNE01.JPG,AFNE01.JPG,5,6,56,1,,,,,,,,,,,,,,,,,,,,,,,AMSA11.jpg,AMNE13.jpg,AMSA09.jpg,AMNE03.jpg,AMSA09.jpg,MS,2,num_2,32,num_8,1.06674529065,,,2017_Mar_22_1503,60.0070635209,MAFE4ImagesEEG,001,100098,
AFNE01.JPG,AFNE01.JPG,AFNE01.JPG,AFNE01.JPG,AFNE01.JPG,AFNE01.JPG,5,7,57,7,,,,,,,,,,,,,,,,,,,,,,,AMNE11.jpg,AMNE09.jpg,AMSA03.jpg,AMSA12.jpg,AMNE11.jpg,MN,1,num_8,16,num_8,1.00016486022,,,2017_Mar_22_1503,60.0070635209,MAFE4ImagesEEG,001,100098,
AFNE01.JPG,AFNE01.JPG,AFNE01.JPG,AFNE01.JPG,AFNE01.JPG,AFNE01.JPG,5,8,58,2,,,,,,,,,,,,,,,,,,,,,,,AMSA08.jpg,AMNE11.jpg,AMSA03.jpg,AMNE12.jpg,AMNE12.jpg,MN,1,num_4,16,num_4,0.850166447868,,,2017_Mar_22_1503,60.0070635209,MAFE4ImagesEEG,001,100098,
AFNE01.JPG,AFNE01.JPG,AFNE01.JPG,AFNE01.JPG,AFNE01.JPG,AFNE01.JPG,5,9,59,4,,,,,,,,,,,,,,,,,,,,,,,AMNE20.jpg,AMNE08.jpg,AMSA14.jpg,AMSA07.jpg,AMNE08.jpg,MN,1,num_6,32,num_8,0.950103807379,,,2017_Mar_22_1503,60.0070635209,MAFE4ImagesEEG,001,100098,
,,,,,,,,,,,,,,,,,,,,,,,,,,,,,,,,,,,,,,,,,,,space,14.4491013354,2017_Mar_22_1503,60.0070635209,MAFE4ImagesEEG,001,100098,
AFNE01.JPG,AFNE01.JPG,AFNE01.JPG,AFNE01.JPG,AFNE01.JPG,AFNE01.JPG,,,,,0,0,0,0,,,,,,,,,,,,,,,,,,,AFNE03.jpg,AFSA05.jpg,AFNE15.jpg,AFSA13.jpg,AFSA05.jpg,FS,4,num_6,32,num_4,0.833308369038,,,2017_Mar_22_1503,60.0070635209,MAFE4ImagesEEG,001,100098,
AFNE01.JPG,AFNE01.JPG,AFNE01.JPG,AFNE01.JPG,AFNE01.JPG,AFNE01.JPG,,,,,0,1,1,1,,,,,,,,,,,,,,,,,,,AFNE14.jpg,AFNE15.jpg,AFSA17.jpg,AFSA15.jpg,AFSA15.jpg,FS,4,num_4,16,num_4,0.833487021097,,,2017_Mar_22_1503,60.0070635209,MAFE4ImagesEEG,001,100098,
AFNE01.JPG,AFNE01.JPG,AFNE01.JPG,AFNE01.JPG,AFNE01.JPG,AFNE01.JPG,,,,,0,2,2,7,,,,,,,,,,,,,,,,,,,AFNE11.jpg,AFSA07.jpg,AFNE01.jpg,AFSA14.jpg,AFNE11.jpg,FN,3,num_8,16,num_8,0.966814345913,,,2017_Mar_22_1503,60.0070635209,MAFE4ImagesEEG,001,100098,
AFNE01.JPG,AFNE01.JPG,AFNE01.JPG,AFNE01.JPG,AFNE01.JPG,AFNE01.JPG,,,,,0,3,3,8,,,,,,,,,,,,,,,,,,,AFNE03.jpg,AFSA07.jpg,AFSA09.jpg,AFNE09.jpg,AFNE09.jpg,FN,3,num_4,32,num_8,1.41702928965,,,2017_Mar_22_1503,60.0070635209,MAFE4ImagesEEG,001,100098,
AFNE01.JPG,AFNE01.JPG,AFNE01.JPG,AFNE01.JPG,AFNE01.JPG,AFNE01.JPG,,,,,0,4,4,4,,,,,,,,,,,,,,,,,,,AFNE20.jpg,AFSA13.jpg,AFNE06.jpg,AFSA02.jpg,AFSA13.jpg,FS,4,num_6,32,num_4,0.600098531286,,,2017_Mar_22_1503,60.0070635209,MAFE4ImagesEEG,001,100098,
AFNE01.JPG,AFNE01.JPG,AFNE01.JPG,AFNE01.JPG,AFNE01.JPG,AFNE01.JPG,,,,,0,5,5,3,,,,,,,,,,,,,,,,,,,AFSA16.jpg,AFSA14.jpg,AFNE04.jpg,AFNE14.jpg,AFNE04.jpg,FN,3,num_2,16,num_2,0.833494398103,,,2017_Mar_22_1503,60.0070635209,MAFE4ImagesEEG,001,100098,
AFNE01.JPG,AFNE01.JPG,AFNE01.JPG,AFNE01.JPG,AFNE01.JPG,AFNE01.JPG,,,,,0,6,6,2,,,,,,,,,,,,,,,,,,,AFSA01.jpg,AFNE06.jpg,AFNE01.jpg,AFSA13.jpg,AFSA13.jpg,FS,4,num_4,16,num_4,0.566779128683,,,2017_Mar_22_1503,60.0070635209,MAFE4ImagesEEG,001,100098,
AFNE01.JPG,AFNE01.JPG,AFNE01.JPG,AFNE01.JPG,AFNE01.JPG,AFNE01.JPG,,,,,0,7,7,6,,,,,,,,,,,,,,,,,,,AFNE16.jpg,AFSA16.jpg,AFSA06.jpg,AFNE20.jpg,AFNE20.jpg,FN,3,num_4,32,num_8,1.03345186805,,,2017_Mar_22_1503,60.0070635209,MAFE4ImagesEEG,001,100098,
AFNE01.JPG,AFNE01.JPG,AFNE01.JPG,AFNE01.JPG,AFNE01.JPG,AFNE01.JPG,,,,,0,8,8,9,,,,,,,,,,,,,,,,,,,AFSA17.jpg,AFNE14.jpg,AFSA05.jpg,AFNE01.jpg,AFNE01.jpg,FN,3,num_4,16,num_4,1.20009346359,,,2017_Mar_22_1503,60.0070635209,MAFE4ImagesEEG,001,100098,
AFNE01.JPG,AFNE01.JPG,AFNE01.JPG,AFNE01.JPG,AFNE01.JPG,AFNE01.JPG,,,,,0,9,9,5,,,,,,,,,,,,,,,,,,,AFNE13.jpg,AFSA04.jpg,AFSA10.jpg,AFNE06.jpg,AFNE06.jpg,FN,3,num_4,32,num_8,1.13341232081,,,2017_Mar_22_1503,60.0070635209,MAFE4ImagesEEG,001,100098,
AFNE01.JPG,AFNE01.JPG,AFNE01.JPG,AFNE01.JPG,AFNE01.JPG,AFNE01.JPG,,,,,1,0,10,5,,,,,,,,,,,,,,,,,,,AFSA16.jpg,AFNE16.jpg,AFNE07.jpg,AFSA08.jpg,AFNE16.jpg,FN,3,num_6,16,num_6,0.800158317143,,,2017_Mar_22_1503,60.0070635209,MAFE4ImagesEEG,001,100098,
AFNE01.JPG,AFNE01.JPG,AFNE01.JPG,AFNE01.JPG,AFNE01.JPG,AFNE01.JPG,,,,,1,1,11,2,,,,,,,,,,,,,,,,,,,AFNE14.jpg,AFSA16.jpg,AFNE12.jpg,AFSA19.jpg,AFNE12.jpg,FN,3,num_2,16,num_2,0.916750727163,,,2017_Mar_22_1503,60.0070635209,MAFE4ImagesEEG,001,100098,
AFNE01.JPG,AFNE01.JPG,AFNE01.JPG,AFNE01.JPG,AFNE01.JPG,AFNE01.JPG,,,,,1,2,12,9,,,,,,,,,,,,,,,,,,,AFNE05.jpg,AFSA01.jpg,AFNE15.jpg,AFSA11.jpg,AFSA01.jpg,FS,4,num_6,16,num_6,0.683444667433,,,2017_Mar_22_1503,60.0070635209,MAFE4ImagesEEG,001,100098,
AFNE01.JPG,AFNE01.JPG,AFNE01.JPG,AFNE01.JPG,AFNE01.JPG,AFNE01.JPG,,,,,1,3,13,0,,,,,,,,,,,,,,,,,,,AFSA09.jpg,AFNE19.jpg,AFSA03.jpg,AFNE07.jpg,AFSA03.jpg,FS,4,num_2,16,num_2,0.950162502762,,,2017_Mar_22_1503,60.0070635209,MAFE4ImagesEEG,001,100098,
AFNE01.JPG,AFNE01.JPG,AFNE01.JPG,AFNE01.JPG,AFNE01.JPG,AFNE01.JPG,,,,,1,4,14,3,,,,,,,,,,,,,,,,,,,AFSA14.jpg,AFNE03.jpg,AFNE06.jpg,AFSA07.jpg,AFSA14.jpg,FS,4,num_8,16,num_8,0.700167714793,,,2017_Mar_22_1503,60.0070635209,MAFE4ImagesEEG,001,100098,
AFNE01.JPG,AFNE01.JPG,AFNE01.JPG,AFNE01.JPG,AFNE01.JPG,AFNE01.JPG,,,,,1,5,15,7,,,,,,,,,,,,,,,,,,,AFSA20.jpg,AFNE11.jpg,AFSA06.jpg,AFNE16.jpg,AFNE11.jpg,FN,3,num_6,16,num_6,1.48330758332,,,2017_Mar_22_1503,60.0070635209,MAFE4ImagesEEG,001,100098,
AFNE01.JPG,AFNE01.JPG,AFNE01.JPG,AFNE01.JPG,AFNE01.JPG,AFNE01.JPG,,,,,1,6,16,1,,,,,,,,,,,,,,,,,,,AFNE02.jpg,AFNE06.jpg,AFSA17.jpg,AFSA09.jpg,AFSA17.jpg,FS,4,num_2,16,num_2,0.616816446767,,,2017_Mar_22_1503,60.0070635209,MAFE4ImagesEEG,001,100098,
AFNE01.JPG,AFNE01.JPG,AFNE01.JPG,AFNE01.JPG,AFNE01.JPG,AFNE01.JPG,,,,,1,7,17,8,,,,,,,,,,,,,,,,,,,AFNE14.jpg,AFNE06.jpg,AFSA12.jpg,AFSA16.jpg,AFSA12.jpg,FS,4,num_2,32,num_8,1.05020506494,,,2017_Mar_22_1503,60.0070635209,MAFE4ImagesEEG,001,100098,
AFNE01.JPG,AFNE01.JPG,AFNE01.JPG,AFNE01.JPG,AFNE01.JPG,AFNE01.JPG,,,,,1,8,18,6,,,,,,,,,,,,,,,,,,,AFNE15.jpg,AFNE10.jpg,AFSA19.jpg,AFSA20.jpg,AFSA20.jpg,FS,4,num_4,16,num_4,1.18341179163,,,2017_Mar_22_1503,60.0070635209,MAFE4ImagesEEG,001,100098,
AFNE01.JPG,AFNE01.JPG,AFNE01.JPG,AFNE01.JPG,AFNE01.JPG,AFNE01.JPG,,,,,1,9,19,4,,,,,,,,,,,,,,,,,,,AFNE12.jpg,AFSA19.jpg,AFSA13.jpg,AFNE07.jpg,AFSA13.jpg,FS,4,num_2,32,num_8,1.13348416652,,,2017_Mar_22_1503,60.0070635209,MAFE4ImagesEEG,001,100098,
AFNE01.JPG,AFNE01.JPG,AFNE01.JPG,AFNE01.JPG,AFNE01.JPG,AFNE01.JPG,,,,,2,0,20,5,,,,,,,,,,,,,,,,,,,AFSA07.jpg,AFSA02.jpg,AFNE08.jpg,AFNE11.jpg,AFNE11.jpg,FN,3,num_4,16,num_4,0.650159904792,,,2017_Mar_22_1503,60.0070635209,MAFE4ImagesEEG,001,100098,
AFNE01.JPG,AFNE01.JPG,AFNE01.JPG,AFNE01.JPG,AFNE01.JPG,AFNE01.JPG,,,,,2,1,21,1,,,,,,,,,,,,,,,,,,,AFSA12.jpg,AFNE14.jpg,AFSA07.jpg,AFNE02.jpg,AFNE02.jpg,FN,3,num_4,32,num_8,1.18346375145,,,2017_Mar_22_1503,60.0070635209,MAFE4ImagesEEG,001,100098,
AFNE01.JPG,AFNE01.JPG,AFNE01.JPG,AFNE01.JPG,AFNE01.JPG,AFNE01.JPG,,,,,2,2,22,3,,,,,,,,,,,,,,,,,,,AFNE11.jpg,AFSA16.jpg,AFNE17.jpg,AFSA05.jpg,AFSA05.jpg,FS,4,num_4,32,num_8,1.2334186394,,,2017_Mar_22_1503,60.0070635209,MAFE4ImagesEEG,001,100098,
AFNE01.JPG,AFNE01.JPG,AFNE01.JPG,AFNE01.JPG,AFNE01.JPG,AFNE01.JPG,,,,,2,3,23,9,,,,,,,,,,,,,,,,,,,AFSA14.jpg,AFSA09.jpg,AFNE13.jpg,AFNE04.jpg,AFNE13.jpg,FN,3,num_2,32,num_8,1.23342665785,,,2017_Mar_22_1503,60.0070635209,MAFE4ImagesEEG,001,100098,
AFNE01.JPG,AFNE01.JPG,AFNE01.JPG,AFNE01.JPG,AFNE01.JPG,AFNE01.JPG,,,,,2,4,24,4,,,,,,,,,,,,,,,,,,,AFNE08.jpg,AFSA11.jpg,AFSA16.jpg,AFNE12.jpg,AFNE12.jpg,FN,3,num_4,16,num_4,0.650145792228,,,2017_Mar_22_1503,60.0070635209,MAFE4ImagesEEG,001,100098,
AFNE01.JPG,AFNE01.JPG,AFNE01.JPG,AFNE01.JPG,AFNE01.JPG,AFNE01.JPG,,,,,2,5,25,8,,,,,,,,,,,,,,,,,,,AFSA07.jpg,AFSA17.jpg,AFNE02.jpg,AFNE18.jpg,AFSA17.jpg,FS,4,num_6,32,num_8,1.18342237599,,,2017_Mar_22_1503,60.0070635209,MAFE4ImagesEEG,001,100098,
AFNE01.JPG,AFNE01.JPG,AFNE01.JPG,AFNE01.JPG,AFNE01.JPG,AFNE01.JPG,,,,,2,6,26,7,,,,,,,,,,,,,,,,,,,AFNE10.jpg,AFSA09.jpg,AFSA07.jpg,AFNE15.jpg,AFNE15.jpg,FN,3,num_4,16,num_4,0.783450344519,,,2017_Mar_22_1503,60.0070635209,MAFE4ImagesEEG,001,100098,
AFNE01.JPG,AFNE01.JPG,AFNE01.JPG,AFNE01.JPG,AFNE01.JPG,AFNE01.JPG,,,,,2,7,27,2,,,,,,,,,,,,,,,,,,,AFNE13.jpg,AFNE14.jpg,AFSA03.jpg,AFSA16.jpg,AFNE13.jpg,FN,3,num_8,32,num_4,1.08340803901,,,2017_Mar_22_1503,60.0070635209,MAFE4ImagesEEG,001,100098,
AFNE01.JPG,AFNE01.JPG,AFNE01.JPG,AFNE01.JPG,AFNE01.JPG,AFNE01.JPG,,,,,2,8,28,6,,,,,,,,,,,,,,,,,,,AFNE13.jpg,AFSA20.jpg,AFSA11.jpg,AFNE01.jpg,AFSA20.jpg,FS,4,num_6,16,num_6,1.28342131758,,,2017_Mar_22_1503,60.0070635209,MAFE4ImagesEEG,001,100098,
AFNE01.JPG,AFNE01.JPG,AFNE01.JPG,AFNE01.JPG,AFNE01.JPG,AFNE01.JPG,,,,,2,9,29,0,,,,,,,,,,,,,,,,,,,AFSA15.jpg,AFSA02.jpg,AFNE13.jpg,AFNE17.jpg,AFSA15.jpg,FS,4,num_8,16,num_8,1.01678013901,,,2017_Mar_22_1503,60.0070635209,MAFE4ImagesEEG,001,100098,
AFNE01.JPG,AFNE01.JPG,AFNE01.JPG,AFNE01.JPG,AFNE01.JPG,AFNE01.JPG,,,,,3,0,30,5,,,,,,,,,,,,,,,,,,,AFNE07.jpg,AFNE20.jpg,AFSA02.jpg,AFSA15.jpg,AFNE20.jpg,FN,3,num_6,32,num_8,1.1334267541,,,2017_Mar_22_1503,60.0070635209,MAFE4ImagesEEG,001,100098,
AFNE01.JPG,AFNE01.JPG,AFNE01.JPG,AFNE01.JPG,AFNE01.JPG,AFNE01.JPG,,,,,3,1,31,1,,,,,,,,,,,,,,,,,,,AFSA14.jpg,AFSA16.jpg,AFNE15.jpg,AFNE19.jpg,AFNE19.jpg,FN,3,num_4,32,num_8,1.60007479647,,,2017_Mar_22_1503,60.0070635209,MAFE4ImagesEEG,001,100098,
AFNE01.JPG,AFNE01.JPG,AFNE01.JPG,AFNE01.JPG,AFNE01.JPG,AFNE01.JPG,,,,,3,2,32,4,,,,,,,,,,,,,,,,,,,AFSA07.jpg,AFSA04.jpg,AFNE07.jpg,AFNE08.jpg,AFSA04.jpg,FS,4,num_6,16,num_6,0.91675136867,,,2017_Mar_22_1503,60.0070635209,MAFE4ImagesEEG,001,100098,
AFNE01.JPG,AFNE01.JPG,AFNE01.JPG,AFNE01.JPG,AFNE01.JPG,AFNE01.JPG,,,,,3,3,33,2,,,,,,,,,,,,,,,,,,,AFNE19.jpg,AFNE03.jpg,AFSA11.jpg,AFSA10.jpg,AFNE03.jpg,FN,3,num_6,16,num_6,0.583498968685,,,2017_Mar_22_1503,60.0070635209,MAFE4ImagesEEG,001,100098,
AFNE01.JPG,AFNE01.JPG,AFNE01.JPG,AFNE01.JPG,AFNE01.JPG,AFNE01.JPG,,,,,3,4,34,7,,,,,,,,,,,,,,,,,,,AFNE17.jpg,AFSA10.jpg,AFSA02.jpg,AFNE16.jpg,AFNE16.jpg,FN,3,num_4,16,num_4,0.900119732134,,,2017_Mar_22_1503,60.0070635209,MAFE4ImagesEEG,001,100098,
AFNE01.JPG,AFNE01.JPG,AFNE01.JPG,AFNE01.JPG,AFNE01.JPG,AFNE01.JPG,,,,,3,5,35,6,,,,,,,,,,,,,,,,,,,AFSA06.jpg,AFNE04.jpg,AFNE18.jpg,AFSA04.jpg,AFSA06.jpg,FS,4,num_8,16,num_8,1.01681125077,,,2017_Mar_22_1503,60.0070635209,MAFE4ImagesEEG,001,100098,
AFNE01.JPG,AFNE01.JPG,AFNE01.JPG,AFNE01.JPG,AFNE01.JPG,AFNE01.JPG,,,,,3,6,36,8,,,,,,,,,,,,,,,,,,,AFSA06.jpg,AFNE15.jpg,AFSA09.jpg,AFNE12.jpg,AFNE12.jpg,FN,3,num_4,16,num_4,0.71677722031,,,2017_Mar_22_1503,60.0070635209,MAFE4ImagesEEG,001,100098,
AFNE01.JPG,AFNE01.JPG,AFNE01.JPG,AFNE01.JPG,AFNE01.JPG,AFNE01.JPG,,,,,3,7,37,9,,,,,,,,,,,,,,,,,,,AFNE06.jpg,AFSA19.jpg,AFNE13.jpg,AFSA01.jpg,AFNE13.jpg,FN,3,num_2,16,num_2,1.13346460141,,,2017_Mar_22_1503,60.0070635209,MAFE4ImagesEEG,001,100098,
AFNE01.JPG,AFNE01.JPG,AFNE01.JPG,AFNE01.JPG,AFNE01.JPG,AFNE01.JPG,,,,,3,8,38,3,,,,,,,,,,,,,,,,,,,AFSA15.jpg,AFNE14.jpg,AFSA10.jpg,AFNE05.jpg,AFSA10.jpg,FS,4,num_2,16,num_2,1.18341596122,,,2017_Mar_22_1503,60.0070635209,MAFE4ImagesEEG,001,100098,
AFNE01.JPG,AFNE01.JPG,AFNE01.JPG,AFNE01.JPG,AFNE01.JPG,AFNE01.JPG,,,,,3,9,39,0,,,,,,,,,,,,,,,,,,,AFNE20.jpg,AFSA17.jpg,AFNE07.jpg,AFSA16.jpg,AFSA17.jpg,FS,4,num_6,16,num_6,0.983495697146,,,2017_Mar_22_1503,60.0070635209,MAFE4ImagesEEG,001,100098,
AFNE01.JPG,AFNE01.JPG,AFNE01.JPG,AFNE01.JPG,AFNE01.JPG,AFNE01.JPG,,,,,4,0,40,7,,,,,,,,,,,,,,,,,,,AFNE14.jpg,AFSA05.jpg,AFSA03.jpg,AFNE11.jpg,AFNE11.jpg,FN,3,num_4,16,num_4,0.900147315755,,,2017_Mar_22_1503,60.0070635209,MAFE4ImagesEEG,001,100098,
AFNE01.JPG,AFNE01.JPG,AFNE01.JPG,AFNE01.JPG,AFNE01.JPG,AFNE01.JPG,,,,,4,1,41,1,,,,,,,,,,,,,,,,,,,AFNE01.jpg,AFSA04.jpg,AFNE13.jpg,AFSA13.jpg,AFNE13.jpg,FN,3,num_2,32,num_8,1.65009671904,,,2017_Mar_22_1503,60.0070635209,MAFE4ImagesEEG,001,100098,
AFNE01.JPG,AFNE01.JPG,AFNE01.JPG,AFNE01.JPG,AFNE01.JPG,AFNE01.JPG,,,,,4,2,42,9,,,,,,,,,,,,,,,,,,,AFSA05.jpg,AFSA10.jpg,AFNE09.jpg,AFNE12.jpg,AFNE09.jpg,FN,3,num_2,16,num_2,1.60008858831,,,2017_Mar_22_1503,60.0070635209,MAFE4ImagesEEG,001,100098,
AFNE01.JPG,AFNE01.JPG,AFNE01.JPG,AFNE01.JPG,AFNE01.JPG,AFNE01.JPG,,,,,4,3,43,3,,,,,,,,,,,,,,,,,,,AFSA01.jpg,AFNE12.jpg,AFNE20.jpg,AFSA14.jpg,AFNE20.jpg,FN,3,num_2,16,num_2,1.38338914741,,,2017_Mar_22_1503,60.0070635209,MAFE4ImagesEEG,001,100098,
AFNE01.JPG,AFNE01.JPG,AFNE01.JPG,AFNE01.JPG,AFNE01.JPG,AFNE01.JPG,,,,,4,4,44,2,,,,,,,,,,,,,,,,,,,AFSA04.jpg,AFNE08.jpg,AFSA11.jpg,AFNE06.jpg,AFSA11.jpg,FS,4,num_2,32,num_8,1.2500887647,,,2017_Mar_22_1503,60.0070635209,MAFE4ImagesEEG,001,100098,
AFNE01.JPG,AFNE01.JPG,AFNE01.JPG,AFNE01.JPG,AFNE01.JPG,AFNE01.JPG,,,,,4,5,45,6,,,,,,,,,,,,,,,,,,,AFSA11.jpg,AFNE12.jpg,AFSA10.jpg,AFNE06.jpg,AFSA10.jpg,FS,4,num_2,16,num_2,1.80006113299,,,2017_Mar_22_1503,60.0070635209,MAFE4ImagesEEG,001,100098,
AFNE01.JPG,AFNE01.JPG,AFNE01.JPG,AFNE01.JPG,AFNE01.JPG,AFNE01.JPG,,,,,4,6,46,0,,,,,,,,,,,,,,,,,,,AFNE04.jpg,AFSA18.jpg,AFNE14.jpg,AFSA02.jpg,AFNE14.jpg,FN,3,num_2,32,num_4,1.10011472856,,,2017_Mar_22_1503,60.0070635209,MAFE4ImagesEEG,001,100098,
AFNE01.JPG,AFNE01.JPG,AFNE01.JPG,AFNE01.JPG,AFNE01.JPG,AFNE01.JPG,,,,,4,7,47,4,,,,,,,,,,,,,,,,,,,AFSA06.jpg,AFSA01.jpg,AFNE20.jpg,AFNE09.jpg,AFSA06.jpg,FS,4,num_8,32,num_2,1.15012702893,,,2017_Mar_22_1503,60.0070635209,MAFE4ImagesEEG,001,100098,
AFNE01.JPG,AFNE01.JPG,AFNE01.JPG,AFNE01.JPG,AFNE01.JPG,AFNE01.JPG,,,,,4,8,48,8,,,,,,,,,,,,,,,,,,,AFSA05.jpg,AFSA14.jpg,AFNE12.jpg,AFNE02.jpg,AFNE02.jpg,FN,3,num_4,16,num_4,0.850111922133,,,2017_Mar_22_1503,60.0070635209,MAFE4ImagesEEG,001,100098,
AFNE01.JPG,AFNE01.JPG,AFNE01.JPG,AFNE01.JPG,AFNE01.JPG,AFNE01.JPG,,,,,4,9,49,5,,,,,,,,,,,,,,,,,,,AFSA11.jpg,AFNE04.jpg,AFNE11.jpg,AFSA14.jpg,AFNE11.jpg,FN,3,num_2,16,num_2,0.85011512955,,,2017_Mar_22_1503,60.0070635209,MAFE4ImagesEEG,001,100098,
AFNE01.JPG,AFNE01.JPG,AFNE01.JPG,AFNE01.JPG,AFNE01.JPG,AFNE01.JPG,,,,,5,0,50,9,,,,,,,,,,,,,,,,,,,AFNE05.jpg,AFSA15.jpg,AFNE11.jpg,AFSA04.jpg,AFSA15.jpg,FS,4,num_6,32,num_8,1.13344663993,,,2017_Mar_22_1503,60.0070635209,MAFE4ImagesEEG,001,100098,
AFNE01.JPG,AFNE01.JPG,AFNE01.JPG,AFNE01.JPG,AFNE01.JPG,AFNE01.JPG,,,,,5,1,51,6,,,,,,,,,,,,,,,,,,,AFNE06.jpg,AFNE12.jpg,AFSA04.jpg,AFSA14.jpg,AFSA14.jpg,FS,4,num_4,32,num_8,1.61671509303,,,2017_Mar_22_1503,60.0070635209,MAFE4ImagesEEG,001,100098,
AFNE01.JPG,AFNE01.JPG,AFNE01.JPG,AFNE01.JPG,AFNE01.JPG,AFNE01.JPG,,,,,5,2,52,5,,,,,,,,,,,,,,,,,,,AFSA12.jpg,AFNE20.jpg,AFSA20.jpg,AFNE08.jpg,AFSA12.jpg,FS,4,num_8,16,num_8,0.833475153777,,,2017_Mar_22_1503,60.0070635209,MAFE4ImagesEEG,001,100098,
AFNE01.JPG,AFNE01.JPG,AFNE01.JPG,AFNE01.JPG,AFNE01.JPG,AFNE01.JPG,,,,,5,3,53,1,,,,,,,,,,,,,,,,,,,AFSA07.jpg,AFNE10.jpg,AFNE04.jpg,AFSA20.jpg,AFNE04.jpg,FN,3,num_2,32,num_4,0.983400758181,,,2017_Mar_22_1503,60.0070635209,MAFE4ImagesEEG,001,100098,
AFNE01.JPG,AFNE01.JPG,AFNE01.JPG,AFNE01.JPG,AFNE01.JPG,AFNE01.JPG,,,,,5,4,54,2,,,,,,,,,,,,,,,,,,,AFSA20.jpg,AFNE19.jpg,AFSA12.jpg,AFNE09.jpg,AFSA12.jpg,FS,4,num_2,16,num_2,0.833458475303,,,2017_Mar_22_1503,60.0070635209,MAFE4ImagesEEG,001,100098,
AFNE01.JPG,AFNE01.JPG,AFNE01.JPG,AFNE01.JPG,AFNE01.JPG,AFNE01.JPG,,,,,5,5,55,0,,,,,,,,,,,,,,,,,,,AFSA06.jpg,AFNE09.jpg,AFNE08.jpg,AFSA17.jpg,AFSA06.jpg,FS,4,num_8,16,num_8,0.83315665921,,,2017_Mar_22_1503,60.0070635209,MAFE4ImagesEEG,001,100098,
AFNE01.JPG,AFNE01.JPG,AFNE01.JPG,AFNE01.JPG,AFNE01.JPG,AFNE01.JPG,,,,,5,6,56,8,,,,,,,,,,,,,,,,,,,AFSA02.jpg,AFSA16.jpg,AFNE16.jpg,AFNE15.jpg,AFNE16.jpg,FN,3,num_2,32,num_6,0.883342479763,,,2017_Mar_22_1503,60.0070635209,MAFE4ImagesEEG,001,100098,
AFNE01.JPG,AFNE01.JPG,AFNE01.JPG,AFNE01.JPG,AFNE01.JPG,AFNE01.JPG,,,,,5,7,57,4,,,,,,,,,,,,,,,,,,,AFSA09.jpg,AFSA19.jpg,AFNE05.jpg,AFNE19.jpg,AFSA09.jpg,FS,4,num_8,16,num_8,0.866742596438,,,2017_Mar_22_1503,60.0070635209,MAFE4ImagesEEG,001,100098,
AFNE01.JPG,AFNE01.JPG,AFNE01.JPG,AFNE01.JPG,AFNE01.JPG,AFNE01.JPG,,,,,5,8,58,3,,,,,,,,,,,,,,,,,,,AFNE14.jpg,AFSA10.jpg,AFNE11.jpg,AFSA02.jpg,AFNE11.jpg,FN,3,num_2,16,num_2,0.800159279315,,,2017_Mar_22_1503,60.0070635209,MAFE4ImagesEEG,001,100098,
AFNE01.JPG,AFNE01.JPG,AFNE01.JPG,AFNE01.JPG,AFNE01.JPG,AFNE01.JPG,,,,,5,9,59,7,,,,,,,,,,,,,,,,,,,AFNE12.jpg,AFSA18.jpg,AFSA02.jpg,AFNE03.jpg,AFSA02.jpg,FS,4,num_2,16,num_2,0.950116316264,,,2017_Mar_22_1503,60.0070635209,MAFE4ImagesEEG,001,100098,
,,,,,,,,,,,,,,,,,,,,,,,,,,,,,,,,,,,,,,,,,,,space,6.09970546473,2017_Mar_22_1503,60.0070635209,MAFE4ImagesEEG,001,100098,
AFNE01.JPG,AFNE01.JPG,AFNE01.JPG,AFNE01.JPG,AFNE01.JPG,AFNE01.JPG,,,,,,,,,0,0,0,7,,,,,,,,,,,,,,,AMNE13.jpg,AMSA05.jpg,AMSA13.jpg,AMNE10.jpg,AMNE10.jpg,MN,1,num_4,32,num_8,0.90012197732,,,2017_Mar_22_1503,60.0070635209,MAFE4ImagesEEG,001,100098,
AFNE01.JPG,AFNE01.JPG,AFNE01.JPG,AFNE01.JPG,AFNE01.JPG,AFNE01.JPG,,,,,,,,,0,1,1,4,,,,,,,,,,,,,,,AMNE14.jpg,AMSA04.jpg,AMSA11.jpg,AMNE03.jpg,AMSA04.jpg,MS,2,num_6,16,num_6,0.716788766906,,,2017_Mar_22_1503,60.0070635209,MAFE4ImagesEEG,001,100098,
AFNE01.JPG,AFNE01.JPG,AFNE01.JPG,AFNE01.JPG,AFNE01.JPG,AFNE01.JPG,,,,,,,,,0,2,2,0,,,,,,,,,,,,,,,AMSA04.jpg,AMNE05.jpg,AMNE16.jpg,AMSA07.jpg,AMNE16.jpg,MN,1,num_2,16,num_2,1.25009036838,,,2017_Mar_22_1503,60.0070635209,MAFE4ImagesEEG,001,100098,
AFNE01.JPG,AFNE01.JPG,AFNE01.JPG,AFNE01.JPG,AFNE01.JPG,AFNE01.JPG,,,,,,,,,0,3,3,2,,,,,,,,,,,,,,,AMSA19.jpg,AMSA20.jpg,AMNE14.jpg,AMNE08.jpg,AMNE14.jpg,MN,1,num_2,16,num_2,1.16677758913,,,2017_Mar_22_1503,60.0070635209,MAFE4ImagesEEG,001,100098,
AFNE01.JPG,AFNE01.JPG,AFNE01.JPG,AFNE01.JPG,AFNE01.JPG,AFNE01.JPG,,,,,,,,,0,4,4,1,,,,,,,,,,,,,,,AMNE10.jpg,AMNE12.jpg,AMSA20.jpg,AMSA16.jpg,AMSA16.jpg,MS,2,num_4,16,num_4,0.933407702192,,,2017_Mar_22_1503,60.0070635209,MAFE4ImagesEEG,001,100098,
AFNE01.JPG,AFNE01.JPG,AFNE01.JPG,AFNE01.JPG,AFNE01.JPG,AFNE01.JPG,,,,,,,,,0,5,5,5,,,,,,,,,,,,,,,AMNE04.jpg,AMSA02.jpg,AMSA05.jpg,AMNE03.jpg,AMNE04.jpg,MN,1,num_8,32,num_4,1.30011068727,,,2017_Mar_22_1503,60.0070635209,MAFE4ImagesEEG,001,100098,
AFNE01.JPG,AFNE01.JPG,AFNE01.JPG,AFNE01.JPG,AFNE01.JPG,AFNE01.JPG,,,,,,,,,0,6,6,9,,,,,,,,,,,,,,,AMSA05.jpg,AMSA13.jpg,AMNE17.jpg,AMNE04.jpg,AMSA05.jpg,MS,2,num_8,16,num_8,1.13344311184,,,2017_Mar_22_1503,60.0070635209,MAFE4ImagesEEG,001,100098,
AFNE01.JPG,AFNE01.JPG,AFNE01.JPG,AFNE01.JPG,AFNE01.JPG,AFNE01.JPG,,,,,,,,,0,7,7,8,,,,,,,,,,,,,,,AMNE01.jpg,AMSA08.jpg,AMSA19.jpg,AMNE10.jpg,AMNE01.jpg,MN,1,num_8,32,num_6,0.900095997378,,,2017_Mar_22_1503,60.0070635209,MAFE4ImagesEEG,001,100098,
AFNE01.JPG,AFNE01.JPG,AFNE01.JPG,AFNE01.JPG,AFNE01.JPG,AFNE01.JPG,,,,,,,,,0,8,8,6,,,,,,,,,,,,,,,AMSA12.jpg,AMNE16.jpg,AMNE13.jpg,AMSA15.jpg,AMNE13.jpg,MN,1,num_2,32,num_4,1.05015406734,,,2017_Mar_22_1503,60.0070635209,MAFE4ImagesEEG,001,100098,
AFNE01.JPG,AFNE01.JPG,AFNE01.JPG,AFNE01.JPG,AFNE01.JPG,AFNE01.JPG,,,,,,,,,0,9,9,3,,,,,,,,,,,,,,,AMSA17.jpg,AMSA15.jpg,AMNE19.jpg,AMNE16.jpg,AMSA17.jpg,MS,2,num_8,32,num_6,1.05009697564,,,2017_Mar_22_1503,60.0070635209,MAFE4ImagesEEG,001,100098,
AFNE01.JPG,AFNE01.JPG,AFNE01.JPG,AFNE01.JPG,AFNE01.JPG,AFNE01.JPG,,,,,,,,,1,0,10,3,,,,,,,,,,,,,,,AMNE11.jpg,AMNE15.jpg,AMSA08.jpg,AMSA13.jpg,AMSA13.jpg,MS,2,num_4,16,num_4,1.10013974627,,,2017_Mar_22_1503,60.0070635209,MAFE4ImagesEEG,001,100098,
AFNE01.JPG,AFNE01.JPG,AFNE01.JPG,AFNE01.JPG,AFNE01.JPG,AFNE01.JPG,,,,,,,,,1,1,11,0,,,,,,,,,,,,,,,AMNE17.jpg,AMNE18.jpg,AMSA15.jpg,AMSA16.jpg,AMNE18.jpg,MN,1,num_6,16,num_6,0.616783089819,,,2017_Mar_22_1503,60.0070635209,MAFE4ImagesEEG,001,100098,
AFNE01.JPG,AFNE01.JPG,AFNE01.JPG,AFNE01.JPG,AFNE01.JPG,AFNE01.JPG,,,,,,,,,1,2,12,4,,,,,,,,,,,,,,,AMSA05.jpg,AMNE06.jpg,AMNE18.jpg,AMSA03.jpg,AMSA03.jpg,MS,2,num_4,32,num_2,1.46667947486,,,2017_Mar_22_1503,60.0070635209,MAFE4ImagesEEG,001,100098,
AFNE01.JPG,AFNE01.JPG,AFNE01.JPG,AFNE01.JPG,AFNE01.JPG,AFNE01.JPG,,,,,,,,,1,3,13,1,,,,,,,,,,,,,,,AMNE04.jpg,AMSA10.jpg,AMNE02.jpg,AMSA06.jpg,AMSA06.jpg,MS,2,num_4,16,num_4,0.850162599003,,,2017_Mar_22_1503,60.0070635209,MAFE4ImagesEEG,001,100098,
AFNE01.JPG,AFNE01.JPG,AFNE01.JPG,AFNE01.JPG,AFNE01.JPG,AFNE01.JPG,,,,,,,,,1,4,14,9,,,,,,,,,,,,,,,AMNE08.jpg,AMNE17.jpg,AMSA07.jpg,AMSA11.jpg,AMSA11.jpg,MS,2,num_4,16,num_4,0.550162887666,,,2017_Mar_22_1503,60.0070635209,MAFE4ImagesEEG,001,100098,
AFNE01.JPG,AFNE01.JPG,AFNE01.JPG,AFNE01.JPG,AFNE01.JPG,AFNE01.JPG,,,,,,,,,1,5,15,8,,,,,,,,,,,,,,,AMSA19.jpg,AMNE02.jpg,AMSA02.jpg,AMNE05.jpg,AMSA19.jpg,MS,2,num_8,32,num_6,0.700127301563,,,2017_Mar_22_1503,60.0070635209,MAFE4ImagesEEG,001,100098,
AFNE01.JPG,AFNE01.JPG,AFNE01.JPG,AFNE01.JPG,AFNE01.JPG,AFNE01.JPG,,,,,,,,,1,6,16,6,,,,,,,,,,,,,,,AMNE14.jpg,AMSA18.jpg,AMNE07.jpg,AMSA10.jpg,AMNE14.jpg,MN,1,num_8,16,num_8,0.866749331995,,,2017_Mar_22_1503,60.0070635209,MAFE4ImagesEEG,001,100098,
AFNE01.JPG,AFNE01.JPG,AFNE01.JPG,AFNE01.JPG,AFNE01.JPG,AFNE01.JPG,,,,,,,,,1,7,17,2,,,,,,,,,,,,,,,AMNE10.jpg,AMSA20.jpg,AMNE15.jpg,AMSA10.jpg,AMSA10.jpg,MS,2,num_4,32,num_2,1.35009764921,,,2017_Mar_22_1503,60.0070635209,MAFE4ImagesEEG,001,100098,
AFNE01.JPG,AFNE01.JPG,AFNE01.JPG,AFNE01.JPG,AFNE01.JPG,AFNE01.JPG,,,,,,,,,1,8,18,7,,,,,,,,,,,,,,,AMNE15.jpg,AMSA04.jpg,AMNE06.jpg,AMSA03.jpg,AMSA03.jpg,MS,2,num_4,16,num_4,1.75015403522,,,2017_Mar_22_1503,60.0070635209,MAFE4ImagesEEG,001,100098,
AFNE01.JPG,AFNE01.JPG,AFNE01.JPG,AFNE01.JPG,AFNE01.JPG,AFNE01.JPG,,,,,,,,,1,9,19,5,,,,,,,,,,,,,,,AMSA15.jpg,AMNE12.jpg,AMSA07.jpg,AMNE13.jpg,AMNE12.jpg,MN,1,num_6,16,num_6,0.966774894972,,,2017_Mar_22_1503,60.0070635209,MAFE4ImagesEEG,001,100098,
AFNE01.JPG,AFNE01.JPG,AFNE01.JPG,AFNE01.JPG,AFNE01.JPG,AFNE01.JPG,,,,,,,,,2,0,20,5,,,,,,,,,,,,,,,AMSA07.jpg,AMNE06.jpg,AMNE04.jpg,AMSA10.jpg,AMNE06.jpg,MN,1,num_6,32,num_2,0.8667737082,,,2017_Mar_22_1503,60.0070635209,MAFE4ImagesEEG,001,100098,
AFNE01.JPG,AFNE01.JPG,AFNE01.JPG,AFNE01.JPG,AFNE01.JPG,AFNE01.JPG,,,,,,,,,2,1,21,1,,,,,,,,,,,,,,,AMNE17.jpg,AMSA02.jpg,AMNE02.jpg,AMSA16.jpg,AMNE02.jpg,MN,1,num_2,32,num_6,0.96675051871,,,2017_Mar_22_1503,60.0070635209,MAFE4ImagesEEG,001,100098,
AFNE01.JPG,AFNE01.JPG,AFNE01.JPG,AFNE01.JPG,AFNE01.JPG,AFNE01.JPG,,,,,,,,,2,2,22,4,,,,,,,,,,,,,,,AMSA13.jpg,AMNE08.jpg,AMNE13.jpg,AMSA08.jpg,AMNE13.jpg,MN,1,num_2,16,num_2,1.50007104385,,,2017_Mar_22_1503,60.0070635209,MAFE4ImagesEEG,001,100098,
AFNE01.JPG,AFNE01.JPG,AFNE01.JPG,AFNE01.JPG,AFNE01.JPG,AFNE01.JPG,,,,,,,,,2,3,23,6,,,,,,,,,,,,,,,AMNE03.jpg,AMSA11.jpg,AMSA10.jpg,AMNE04.jpg,AMSA10.jpg,MS,2,num_2,16,num_2,0.749974420993,,,2017_Mar_22_1503,60.0070635209,MAFE4ImagesEEG,001,100098,
AFNE01.JPG,AFNE01.JPG,AFNE01.JPG,AFNE01.JPG,AFNE01.JPG,AFNE01.JPG,,,,,,,,,2,4,24,2,,,,,,,,,,,,,,,AMSA18.jpg,AMNE17.jpg,AMSA20.jpg,AMNE11.jpg,AMSA20.jpg,MS,2,num_2,16,num_2,0.650146754459,,,2017_Mar_22_1503,60.0070635209,MAFE4ImagesEEG,001,100098,
AFNE01.JPG,AFNE01.JPG,AFNE01.JPG,AFNE01.JPG,AFNE01.JPG,AFNE01.JPG,,,,,,,,,2,5,25,9,,,,,,,,,,,,,,,AMNE20.jpg,AMNE09.jpg,AMSA04.jpg,AMSA19.jpg,AMSA04.jpg,MS,2,num_2,32,num_4,0.750171996653,,,2017_Mar_22_1503,60.0070635209,MAFE4ImagesEEG,001,100098,
AFNE01.JPG,AFNE01.JPG,AFNE01.JPG,AFNE01.JPG,AFNE01.JPG,AFNE01.JPG,,,,,,,,,2,6,26,0,,,,,,,,,,,,,,,AMNE17.jpg,AMSA15.jpg,AMNE15.jpg,AMSA04.jpg,AMSA15.jpg,MS,2,num_6,16,num_6,0.850131808023,,,2017_Mar_22_1503,60.0070635209,MAFE4ImagesEEG,001,100098,
AFNE01.JPG,AFNE01.JPG,AFNE01.JPG,AFNE01.JPG,AFNE01.JPG,AFNE01.JPG,,,,,,,,,2,7,27,3,,,,,,,,,,,,,,,AMSA14.jpg,AMSA15.jpg,AMNE15.jpg,AMNE18.jpg,AMNE18.jpg,MN,1,num_4,16,num_4,0.983474207576,,,2017_Mar_22_1503,60.0070635209,MAFE4ImagesEEG,001,100098,
AFNE01.JPG,AFNE01.JPG,AFNE01.JPG,AFNE01.JPG,AFNE01.JPG,AFNE01.JPG,,,,,,,,,2,8,28,7,,,,,,,,,,,,,,,AMSA05.jpg,AMNE04.jpg,AMNE19.jpg,AMSA02.jpg,AMNE19.jpg,MN,1,num_2,32,num_8,1.18344995967,,,2017_Mar_22_1503,60.0070635209,MAFE4ImagesEEG,001,100098,
AFNE01.JPG,AFNE01.JPG,AFNE01.JPG,AFNE01.JPG,AFNE01.JPG,AFNE01.JPG,,,,,,,,,2,9,29,8,,,,,,,,,,,,,,,AMNE08.jpg,AMSA17.jpg,AMSA09.jpg,AMNE04.jpg,AMNE04.jpg,MN,1,num_4,16,num_4,0.916804290726,,,2017_Mar_22_1503,60.0070635209,MAFE4ImagesEEG,001,100098,
AFNE01.JPG,AFNE01.JPG,AFNE01.JPG,AFNE01.JPG,AFNE01.JPG,AFNE01.JPG,,,,,,,,,3,0,30,9,,,,,,,,,,,,,,,AMNE01.jpg,AMSA14.jpg,AMSA13.jpg,AMNE09.jpg,AMNE01.jpg,MN,1,num_8,32,num_4,1.11678100505,,,2017_Mar_22_1503,60.0070635209,MAFE4ImagesEEG,001,100098,
AFNE01.JPG,AFNE01.JPG,AFNE01.JPG,AFNE01.JPG,AFNE01.JPG,AFNE01.JPG,,,,,,,,,3,1,31,5,,,,,,,,,,,,,,,AMSA11.jpg,AMSA08.jpg,AMNE14.jpg,AMNE04.jpg,AMSA11.jpg,MS,2,num_8,32,num_6,0.933462227928,,,2017_Mar_22_1503,60.0070635209,MAFE4ImagesEEG,001,100098,
AFNE01.JPG,AFNE01.JPG,AFNE01.JPG,AFNE01.JPG,AFNE01.JPG,AFNE01.JPG,,,,,,,,,3,2,32,4,,,,,,,,,,,,,,,AMSA19.jpg,AMSA10.jpg,AMNE19.jpg,AMNE09.jpg,AMNE09.jpg,MN,1,num_4,16,num_4,0.666846067063,,,2017_Mar_22_1503,60.0070635209,MAFE4ImagesEEG,001,100098,
AFNE01.JPG,AFNE01.JPG,AFNE01.JPG,AFNE01.JPG,AFNE01.JPG,AFNE01.JPG,,,,,,,,,3,3,33,6,,,,,,,,,,,,,,,AMNE15.jpg,AMNE12.jpg,AMSA03.jpg,AMSA13.jpg,AMNE12.jpg,MN,1,num_6,16,num_6,0.700148470409,,,2017_Mar_22_1503,60.0070635209,MAFE4ImagesEEG,001,100098,
AFNE01.JPG,AFNE01.JPG,AFNE01.JPG,AFNE01.JPG,AFNE01.JPG,AFNE01.JPG,,,,,,,,,3,4,34,0,,,,,,,,,,,,,,,AMSA05.jpg,AMNE15.jpg,AMSA06.jpg,AMNE18.jpg,AMNE18.jpg,MN,1,num_4,16,num_4,0.800111168413,,,2017_Mar_22_1503,60.0070635209,MAFE4ImagesEEG,001,100098,
AFNE01.JPG,AFNE01.JPG,AFNE01.JPG,AFNE01.JPG,AFNE01.JPG,AFNE01.JPG,,,,,,,,,3,5,35,2,,,,,,,,,,,,,,,AMNE08.jpg,AMSA07.jpg,AMSA19.jpg,AMNE11.jpg,AMSA07.jpg,MS,2,num_6,16,num_6,0.733486155164,,,2017_Mar_22_1503,60.0070635209,MAFE4ImagesEEG,001,100098,
AFNE01.JPG,AFNE01.JPG,AFNE01.JPG,AFNE01.JPG,AFNE01.JPG,AFNE01.JPG,,,,,,,,,3,6,36,1,,,,,,,,,,,,,,,AMSA04.jpg,AMNE11.jpg,AMSA05.jpg,AMNE06.jpg,AMNE11.jpg,MN,1,num_6,16,num_6,0.683450120036,,,2017_Mar_22_1503,60.0070635209,MAFE4ImagesEEG,001,100098,
AFNE01.JPG,AFNE01.JPG,AFNE01.JPG,AFNE01.JPG,AFNE01.JPG,AFNE01.JPG,,,,,,,,,3,7,37,8,,,,,,,,,,,,,,,AMNE10.jpg,AMSA01.jpg,AMSA05.jpg,AMNE08.jpg,AMSA05.jpg,MS,2,num_2,32,num_8,1.15012927412,,,2017_Mar_22_1503,60.0070635209,MAFE4ImagesEEG,001,100098,
AFNE01.JPG,AFNE01.JPG,AFNE01.JPG,AFNE01.JPG,AFNE01.JPG,AFNE01.JPG,,,,,,,,,3,8,38,7,,,,,,,,,,,,,,,AMNE03.jpg,AMSA04.jpg,AMSA13.jpg,AMNE05.jpg,AMNE03.jpg,MN,1,num_8,16,num_8,1.24981196638,,,2017_Mar_22_1503,60.0070635209,MAFE4ImagesEEG,001,100098,
AFNE01.JPG,AFNE01.JPG,AFNE01.JPG,AFNE01.JPG,AFNE01.JPG,AFNE01.JPG,,,,,,,,,3,9,39,3,,,,,,,,,,,,,,,AMSA18.jpg,AMNE17.jpg,AMSA04.jpg,AMNE02.jpg,AMSA04.jpg,MS,2,num_2,16,num_2,0.850196918182,,,2017_Mar_22_1503,60.0070635209,MAFE4ImagesEEG,001,100098,
AFNE01.JPG,AFNE01.JPG,AFNE01.JPG,AFNE01.JPG,AFNE01.JPG,AFNE01.JPG,,,,,,,,,4,0,40,9,,,,,,,,,,,,,,,AMNE16.jpg,AMSA09.jpg,AMSA01.jpg,AMNE09.jpg,AMSA01.jpg,MS,2,num_2,16,num_2,0.733461458178,,,2017_Mar_22_1503,60.0070635209,MAFE4ImagesEEG,001,100098,
AFNE01.JPG,AFNE01.JPG,AFNE01.JPG,AFNE01.JPG,AFNE01.JPG,AFNE01.JPG,,,,,,,,,4,1,41,7,,,,,,,,,,,,,,,AMSA13.jpg,AMNE13.jpg,AMSA09.jpg,AMNE11.jpg,AMSA09.jpg,MS,2,num_2,16,num_2,1.11671685713,,,2017_Mar_22_1503,60.0070635209,MAFE4ImagesEEG,001,100098,
AFNE01.JPG,AFNE01.JPG,AFNE01.JPG,AFNE01.JPG,AFNE01.JPG,AFNE01.JPG,,,,,,,,,4,2,42,5,,,,,,,,,,,,,,,AMSA15.jpg,AMNE09.jpg,AMNE07.jpg,AMSA17.jpg,AMSA15.jpg,MS,2,num_8,16,num_8,0.850110959902,,,2017_Mar_22_1503,60.0070635209,MAFE4ImagesEEG,001,100098,
AFNE01.JPG,AFNE01.JPG,AFNE01.JPG,AFNE01.JPG,AFNE01.JPG,AFNE01.JPG,,,,,,,,,4,3,43,4,,,,,,,,,,,,,,,AMSA05.jpg,AMSA15.jpg,AMNE05.jpg,AMNE06.jpg,AMSA05.jpg,MS,2,num_8,16,num_8,0.700197543541,,,2017_Mar_22_1503,60.0070635209,MAFE4ImagesEEG,001,100098,
AFNE01.JPG,AFNE01.JPG,AFNE01.JPG,AFNE01.JPG,AFNE01.JPG,AFNE01.JPG,,,,,,,,,4,4,44,1,,,,,,,,,,,,,,,AMSA18.jpg,AMNE05.jpg,AMSA05.jpg,AMNE20.jpg,AMSA18.jpg,MS,2,num_8,16,num_8,1.20008159615,,,2017_Mar_22_1503,60.0070635209,MAFE4ImagesEEG,001,100098,
AFNE01.JPG,AFNE01.JPG,AFNE01.JPG,AFNE01.JPG,AFNE01.JPG,AFNE01.JPG,,,,,,,,,4,5,45,2,,,,,,,,,,,,,,,AMNE14.jpg,AMSA08.jpg,AMSA04.jpg,AMNE18.jpg,AMSA04.jpg,MS,2,num_2,16,num_2,0.88345890824,,,2017_Mar_22_1503,60.0070635209,MAFE4ImagesEEG,001,100098,
AFNE01.JPG,AFNE01.JPG,AFNE01.JPG,AFNE01.JPG,AFNE01.JPG,AFNE01.JPG,,,,,,,,,4,6,46,3,,,,,,,,,,,,,,,AMSA02.jpg,AMSA03.jpg,AMNE20.jpg,AMNE03.jpg,AMSA03.jpg,MS,2,num_6,16,num_6,0.81663375342,,,2017_Mar_22_1503,60.0070635209,MAFE4ImagesEEG,001,100098,
AFNE01.JPG,AFNE01.JPG,AFNE01.JPG,AFNE01.JPG,AFNE01.JPG,AFNE01.JPG,,,,,,,,,4,7,47,6,,,,,,,,,,,,,,,AMNE13.jpg,AMNE01.jpg,AMSA14.jpg,AMSA10.jpg,AMSA10.jpg,MS,2,num_4,32,num_2,1.10011504934,,,2017_Mar_22_1503,60.0070635209,MAFE4ImagesEEG,001,100098,
AFNE01.JPG,AFNE01.JPG,AFNE01.JPG,AFNE01.JPG,AFNE01.JPG,AFNE01.JPG,,,,,,,,,4,8,48,0,,,,,,,,,,,,,,,AMSA14.jpg,AMNE04.jpg,AMNE19.jpg,AMSA09.jpg,AMSA14.jpg,MS,2,num_8,32,num_2,0.949760615884,,,2017_Mar_22_1503,60.0070635209,MAFE4ImagesEEG,001,100098,
AFNE01.JPG,AFNE01.JPG,AFNE01.JPG,AFNE01.JPG,AFNE01.JPG,AFNE01.JPG,,,,,,,,,4,9,49,8,,,,,,,,,,,,,,,AMNE01.jpg,AMNE10.jpg,AMSA11.jpg,AMSA19.jpg,AMNE01.jpg,MN,1,num_8,16,num_8,0.916761953093,,,2017_Mar_22_1503,60.0070635209,MAFE4ImagesEEG,001,100098,
AFNE01.JPG,AFNE01.JPG,AFNE01.JPG,AFNE01.JPG,AFNE01.JPG,AFNE01.JPG,,,,,,,,,5,0,50,8,,,,,,,,,,,,,,,AMSA13.jpg,AMNE03.jpg,AMSA16.jpg,AMNE01.jpg,AMNE01.jpg,MN,1,num_4,16,num_4,0.600204696064,,,2017_Mar_22_1503,60.0070635209,MAFE4ImagesEEG,001,100098,
AFNE01.JPG,AFNE01.JPG,AFNE01.JPG,AFNE01.JPG,AFNE01.JPG,AFNE01.JPG,,,,,,,,,5,1,51,7,,,,,,,,,,,,,,,AMSA02.jpg,AMNE12.jpg,AMSA08.jpg,AMNE18.jpg,AMNE18.jpg,MN,1,num_4,16,num_4,0.766810368747,,,2017_Mar_22_1503,60.0070635209,MAFE4ImagesEEG,001,100098,
AFNE01.JPG,AFNE01.JPG,AFNE01.JPG,AFNE01.JPG,AFNE01.JPG,AFNE01.JPG,,,,,,,,,5,2,52,1,,,,,,,,,,,,,,,AMNE02.jpg,AMSA13.jpg,AMNE19.jpg,AMSA05.jpg,AMNE19.jpg,MN,1,num_2,32,num_8,0.933751535136,,,2017_Mar_22_1503,60.0070635209,MAFE4ImagesEEG,001,100098,
AFNE01.JPG,AFNE01.JPG,AFNE01.JPG,AFNE01.JPG,AFNE01.JPG,AFNE01.JPG,,,,,,,,,5,3,53,3,,,,,,,,,,,,,,,AMSA20.jpg,AMNE12.jpg,AMSA19.jpg,AMNE17.jpg,AMNE12.jpg,MN,1,num_6,16,num_6,0.533502384555,,,2017_Mar_22_1503,60.0070635209,MAFE4ImagesEEG,001,100098,
AFNE01.JPG,AFNE01.JPG,AFNE01.JPG,AFNE01.JPG,AFNE01.JPG,AFNE01.JPG,,,,,,,,,5,4,54,0,,,,,,,,,,,,,,,AMNE11.jpg,AMNE13.jpg,AMSA10.jpg,AMSA03.jpg,AMSA10.jpg,MS,2,num_2,16,num_2,0.766795614734,,,2017_Mar_22_1503,60.0070635209,MAFE4ImagesEEG,001,100098,
AFNE01.JPG,AFNE01.JPG,AFNE01.JPG,AFNE01.JPG,AFNE01.JPG,AFNE01.JPG,,,,,,,,,5,5,55,4,,,,,,,,,,,,,,,AMSA01.jpg,AMSA13.jpg,AMNE10.jpg,AMNE02.jpg,AMSA13.jpg,MS,2,num_6,16,num_6,0.666830992326,,,2017_Mar_22_1503,60.0070635209,MAFE4ImagesEEG,001,100098,
AFNE01.JPG,AFNE01.JPG,AFNE01.JPG,AFNE01.JPG,AFNE01.JPG,AFNE01.JPG,,,,,,,,,5,6,56,9,,,,,,,,,,,,,,,AMNE07.jpg,AMSA10.jpg,AMNE20.jpg,AMSA20.jpg,AMNE07.jpg,MN,1,num_8,16,num_8,1.0167932894,,,2017_Mar_22_1503,60.0070635209,MAFE4ImagesEEG,001,100098,
AFNE01.JPG,AFNE01.JPG,AFNE01.JPG,AFNE01.JPG,AFNE01.JPG,AFNE01.JPG,,,,,,,,,5,7,57,6,,,,,,,,,,,,,,,AMSA06.jpg,AMNE10.jpg,AMNE16.jpg,AMSA20.jpg,AMSA20.jpg,MS,2,num_4,32,num_2,0.833490549237,,,2017_Mar_22_1503,60.0070635209,MAFE4ImagesEEG,001,100098,
AFNE01.JPG,AFNE01.JPG,AFNE01.JPG,AFNE01.JPG,AFNE01.JPG,AFNE01.JPG,,,,,,,,,5,8,58,5,,,,,,,,,,,,,,,AMSA04.jpg,AMNE20.jpg,AMSA08.jpg,AMNE02.jpg,AMSA04.jpg,MS,2,num_8,32,num_4,0.95009707188,,,2017_Mar_22_1503,60.0070635209,MAFE4ImagesEEG,001,100098,
AFNE01.JPG,AFNE01.JPG,AFNE01.JPG,AFNE01.JPG,AFNE01.JPG,AFNE01.JPG,,,,,,,,,5,9,59,2,,,,,,,,,,,,,,,AMNE11.jpg,AMSA07.jpg,AMSA10.jpg,AMNE15.jpg,AMNE11.jpg,MN,1,num_8,16,num_8,0.900180031196,,,2017_Mar_22_1503,60.0070635209,MAFE4ImagesEEG,001,100098,
,,,,,,,,,,,,,,,,,,,,,,,,,,,,,,,,,,,,,,,,,,,space,1.91668112669,2017_Mar_22_1503,60.0070635209,MAFE4ImagesEEG,001,100098,
AFNE01.JPG,AFNE01.JPG,AFNE01.JPG,AFNE01.JPG,AFNE01.JPG,AFNE01.JPG,,,,,,,,,,,,,0,0,0,4,,,,,,,,,,,AFNE15.jpg,AFSA15.jpg,AFNE19.jpg,AFSA17.jpg,AFSA17.jpg,FS,4,num_4,16,num_4,0.850141109433,,,2017_Mar_22_1503,60.0070635209,MAFE4ImagesEEG,001,100098,
AFNE01.JPG,AFNE01.JPG,AFNE01.JPG,AFNE01.JPG,AFNE01.JPG,AFNE01.JPG,,,,,,,,,,,,,0,1,1,3,,,,,,,,,,,AFNE04.jpg,AFSA08.jpg,AFSA01.jpg,AFNE09.jpg,AFSA01.jpg,FS,4,num_2,16,num_2,1.18341307458,,,2017_Mar_22_1503,60.0070635209,MAFE4ImagesEEG,001,100098,
AFNE01.JPG,AFNE01.JPG,AFNE01.JPG,AFNE01.JPG,AFNE01.JPG,AFNE01.JPG,,,,,,,,,,,,,0,2,2,0,,,,,,,,,,,AFSA03.jpg,AFSA10.jpg,AFNE02.jpg,AFNE03.jpg,AFNE02.jpg,FN,3,num_2,16,num_2,1.01683370251,,,2017_Mar_22_1503,60.0070635209,MAFE4ImagesEEG,001,100098,
AFNE01.JPG,AFNE01.JPG,AFNE01.JPG,AFNE01.JPG,AFNE01.JPG,AFNE01.JPG,,,,,,,,,,,,,0,3,3,8,,,,,,,,,,,AFSA13.jpg,AFNE11.jpg,AFSA03.jpg,AFNE02.jpg,AFSA13.jpg,FS,4,num_8,16,num_8,1.16677277803,,,2017_Mar_22_1503,60.0070635209,MAFE4ImagesEEG,001,100098,
AFNE01.JPG,AFNE01.JPG,AFNE01.JPG,AFNE01.JPG,AFNE01.JPG,AFNE01.JPG,,,,,,,,,,,,,0,4,4,7,,,,,,,,,,,AFNE02.jpg,AFNE01.jpg,AFSA19.jpg,AFSA10.jpg,AFSA10.jpg,FS,4,num_4,16,num_4,0.833484455186,,,2017_Mar_22_1503,60.0070635209,MAFE4ImagesEEG,001,100098,
AFNE01.JPG,AFNE01.JPG,AFNE01.JPG,AFNE01.JPG,AFNE01.JPG,AFNE01.JPG,,,,,,,,,,,,,0,5,5,5,,,,,,,,,,,AFSA04.jpg,AFSA11.jpg,AFNE14.jpg,AFNE19.jpg,AFSA04.jpg,FS,4,num_8,16,num_8,1.21680913388,,,2017_Mar_22_1503,60.0070635209,MAFE4ImagesEEG,001,100098,
AFNE01.JPG,AFNE01.JPG,AFNE01.JPG,AFNE01.JPG,AFNE01.JPG,AFNE01.JPG,,,,,,,,,,,,,0,6,6,9,,,,,,,,,,,AFNE19.jpg,AFSA10.jpg,AFNE10.jpg,AFSA20.jpg,AFSA10.jpg,FS,4,num_6,16,num_6,0.750179694383,,,2017_Mar_22_1503,60.0070635209,MAFE4ImagesEEG,001,100098,
AFNE01.JPG,AFNE01.JPG,AFNE01.JPG,AFNE01.JPG,AFNE01.JPG,AFNE01.JPG,,,,,,,,,,,,,0,7,7,6,,,,,,,,,,,AFNE07.jpg,AFNE02.jpg,AFSA18.jpg,AFSA09.jpg,AFNE07.jpg,FN,3,num_8,32,num_4,0.8167780863,,,2017_Mar_22_1503,60.0070635209,MAFE4ImagesEEG,001,100098,
AFNE01.JPG,AFNE01.JPG,AFNE01.JPG,AFNE01.JPG,AFNE01.JPG,AFNE01.JPG,,,,,,,,,,,,,0,8,8,1,,,,,,,,,,,AFNE13.jpg,AFSA15.jpg,AFSA16.jpg,AFNE09.jpg,AFNE13.jpg,FN,3,num_8,16,num_8,1.11678100505,,,2017_Mar_22_1503,60.0070635209,MAFE4ImagesEEG,001,100098,
AFNE01.JPG,AFNE01.JPG,AFNE01.JPG,AFNE01.JPG,AFNE01.JPG,AFNE01.JPG,,,,,,,,,,,,,0,9,9,2,,,,,,,,,,,AFNE03.jpg,AFSA04.jpg,AFNE15.jpg,AFSA02.jpg,AFSA02.jpg,FS,4,num_4,16,num_4,0.900026076124,,,2017_Mar_22_1503,60.0070635209,MAFE4ImagesEEG,001,100098,
AFNE01.JPG,AFNE01.JPG,AFNE01.JPG,AFNE01.JPG,AFNE01.JPG,AFNE01.JPG,,,,,,,,,,,,,1,0,10,5,,,,,,,,,,,AFSA12.jpg,AFSA04.jpg,AFNE07.jpg,AFNE17.jpg,AFNE17.jpg,FN,3,num_4,32,num_8,1.01676570578,,,2017_Mar_22_1503,60.0070635209,MAFE4ImagesEEG,001,100098,
AFNE01.JPG,AFNE01.JPG,AFNE01.JPG,AFNE01.JPG,AFNE01.JPG,AFNE01.JPG,,,,,,,,,,,,,1,1,11,6,,,,,,,,,,,AFNE02.jpg,AFNE05.jpg,AFSA06.jpg,AFSA02.jpg,AFNE05.jpg,FN,3,num_6,16,num_6,0.850161957496,,,2017_Mar_22_1503,60.0070635209,MAFE4ImagesEEG,001,100098,
AFNE01.JPG,AFNE01.JPG,AFNE01.JPG,AFNE01.JPG,AFNE01.JPG,AFNE01.JPG,,,,,,,,,,,,,1,2,12,4,,,,,,,,,,,AFNE14.jpg,AFNE20.jpg,AFSA05.jpg,AFSA06.jpg,AFNE14.jpg,FN,3,num_8,16,num_8,1.50009253342,,,2017_Mar_22_1503,60.0070635209,MAFE4ImagesEEG,001,100098,
AFNE01.JPG,AFNE01.JPG,AFNE01.JPG,AFNE01.JPG,AFNE01.JPG,AFNE01.JPG,,,,,,,,,,,,,1,3,13,0,,,,,,,,,,,AFSA03.jpg,AFSA10.jpg,AFNE03.jpg,AFNE14.jpg,AFNE03.jpg,FN,3,num_2,16,num_2,0.93346511462,,,2017_Mar_22_1503,60.0070635209,MAFE4ImagesEEG,001,100098,
AFNE01.JPG,AFNE01.JPG,AFNE01.JPG,AFNE01.JPG,AFNE01.JPG,AFNE01.JPG,,,,,,,,,,,,,1,4,14,7,,,,,,,,,,,AFSA19.jpg,AFSA16.jpg,AFNE15.jpg,AFNE08.jpg,AFSA19.jpg,FS,4,num_8,32,num_4,1.01679425157,,,2017_Mar_22_1503,60.0070635209,MAFE4ImagesEEG,001,100098,
AFNE01.JPG,AFNE01.JPG,AFNE01.JPG,AFNE01.JPG,AFNE01.JPG,AFNE01.JPG,,,,,,,,,,,,,1,5,15,3,,,,,,,,,,,AFSA09.jpg,AFNE03.jpg,AFNE10.jpg,AFSA07.jpg,AFSA07.jpg,FS,4,num_4,32,num_8,0.81679444405,,,2017_Mar_22_1503,60.0070635209,MAFE4ImagesEEG,001,100098,
AFNE01.JPG,AFNE01.JPG,AFNE01.JPG,AFNE01.JPG,AFNE01.JPG,AFNE01.JPG,,,,,,,,,,,,,1,6,16,8,,,,,,,,,,,AFNE12.jpg,AFSA14.jpg,AFNE07.jpg,AFSA20.jpg,AFSA20.jpg,FS,4,num_4,16,num_4,0.816827159491,,,2017_Mar_22_1503,60.0070635209,MAFE4ImagesEEG,001,100098,
AFNE01.JPG,AFNE01.JPG,AFNE01.JPG,AFNE01.JPG,AFNE01.JPG,AFNE01.JPG,,,,,,,,,,,,,1,7,17,9,,,,,,,,,,,AFNE10.jpg,AFSA09.jpg,AFNE17.jpg,AFSA05.jpg,AFSA05.jpg,FS,4,num_4,16,num_4,1.91667086299,,,2017_Mar_22_1503,60.0070635209,MAFE4ImagesEEG,001,100098,
AFNE01.JPG,AFNE01.JPG,AFNE01.JPG,AFNE01.JPG,AFNE01.JPG,AFNE01.JPG,,,,,,,,,,,,,1,8,18,2,,,,,,,,,,,AFNE03.jpg,AFSA03.jpg,AFSA05.jpg,AFNE02.jpg,AFNE02.jpg,FN,3,num_4,32,num_8,0.783503908082,,,2017_Mar_22_1503,60.0070635209,MAFE4ImagesEEG,001,100098,
AFNE01.JPG,AFNE01.JPG,AFNE01.JPG,AFNE01.JPG,AFNE01.JPG,AFNE01.JPG,,,,,,,,,,,,,1,9,19,1,,,,,,,,,,,AFNE04.jpg,AFSA03.jpg,AFSA20.jpg,AFNE13.jpg,AFNE04.jpg,FN,3,num_8,16,num_8,0.816822348337,,,2017_Mar_22_1503,60.0070635209,MAFE4ImagesEEG,001,100098,
AFNE01.JPG,AFNE01.JPG,AFNE01.JPG,AFNE01.JPG,AFNE01.JPG,AFNE01.JPG,,,,,,,,,,,,,2,0,20,6,,,,,,,,,,,AFSA12.jpg,AFSA05.jpg,AFNE17.jpg,AFNE15.jpg,AFSA12.jpg,FS,4,num_8,16,num_8,1.23342922382,,,2017_Mar_22_1503,60.0070635209,MAFE4ImagesEEG,001,100098,
AFNE01.JPG,AFNE01.JPG,AFNE01.JPG,AFNE01.JPG,AFNE01.JPG,AFNE01.JPG,,,,,,,,,,,,,2,1,21,9,,,,,,,,,,,AFSA01.jpg,AFNE11.jpg,AFNE02.jpg,AFSA14.jpg,AFNE11.jpg,FN,3,num_6,16,num_6,0.583528155985,,,2017_Mar_22_1503,60.0070635209,MAFE4ImagesEEG,001,100098,
AFNE01.JPG,AFNE01.JPG,AFNE01.JPG,AFNE01.JPG,AFNE01.JPG,AFNE01.JPG,,,,,,,,,,,,,2,2,22,0,,,,,,,,,,,AFSA15.jpg,AFSA04.jpg,AFNE06.jpg,AFNE04.jpg,AFNE04.jpg,FN,3,num_4,32,num_8,0.983481905307,,,2017_Mar_22_1503,60.0070635209,MAFE4ImagesEEG,001,100098,
AFNE01.JPG,AFNE01.JPG,AFNE01.JPG,AFNE01.JPG,AFNE01.JPG,AFNE01.JPG,,,,,,,,,,,,,2,3,23,1,,,,,,,,,,,AFNE07.jpg,AFSA20.jpg,AFNE15.jpg,AFSA09.jpg,AFNE15.jpg,FN,3,num_2,16,num_2,0.983452076558,,,2017_Mar_22_1503,60.0070635209,MAFE4ImagesEEG,001,100098,
AFNE01.JPG,AFNE01.JPG,AFNE01.JPG,AFNE01.JPG,AFNE01.JPG,AFNE01.JPG,,,,,,,,,,,,,2,4,24,7,,,,,,,,,,,AFSA16.jpg,AFNE07.jpg,AFNE12.jpg,AFSA08.jpg,AFSA16.jpg,FS,4,num_8,16,num_8,0.633448404085,,,2017_Mar_22_1503,60.0070635209,MAFE4ImagesEEG,001,100098,
AFNE01.JPG,AFNE01.JPG,AFNE01.JPG,AFNE01.JPG,AFNE01.JPG,AFNE01.JPG,,,,,,,,,,,,,2,5,25,2,,,,,,,,,,,AFNE12.jpg,AFSA03.jpg,AFSA09.jpg,AFNE03.jpg,AFSA09.jpg,FS,4,num_2,16,num_2,0.966826854739,,,2017_Mar_22_1503,60.0070635209,MAFE4ImagesEEG,001,100098,
AFNE01.JPG,AFNE01.JPG,AFNE01.JPG,AFNE01.JPG,AFNE01.JPG,AFNE01.JPG,,,,,,,,,,,,,2,6,26,8,,,,,,,,,,,AFSA06.jpg,AFSA13.jpg,AFNE11.jpg,AFNE16.jpg,AFSA06.jpg,FS,4,num_8,16,num_8,1.10016123584,,,2017_Mar_22_1503,60.0070635209,MAFE4ImagesEEG,001,100098,
AFNE01.JPG,AFNE01.JPG,AFNE01.JPG,AFNE01.JPG,AFNE01.JPG,AFNE01.JPG,,,,,,,,,,,,,2,7,27,4,,,,,,,,,,,AFNE10.jpg,AFSA06.jpg,AFSA16.jpg,AFNE01.jpg,AFSA16.jpg,FS,4,num_2,16,num_2,1.3001597604,,,2017_Mar_22_1503,60.0070635209,MAFE4ImagesEEG,001,100098,
AFNE01.JPG,AFNE01.JPG,AFNE01.JPG,AFNE01.JPG,AFNE01.JPG,AFNE01.JPG,,,,,,,,,,,,,2,8,28,5,,,,,,,,,,,AFSA17.jpg,AFNE01.jpg,AFSA02.jpg,AFNE03.jpg,AFSA17.jpg,FS,4,num_8,16,num_8,1.1000842583,,,2017_Mar_22_1503,60.0070635209,MAFE4ImagesEEG,001,100098,
AFNE01.JPG,AFNE01.JPG,AFNE01.JPG,AFNE01.JPG,AFNE01.JPG,AFNE01.JPG,,,,,,,,,,,,,2,9,29,3,,,,,,,,,,,AFSA09.jpg,AFNE06.jpg,AFNE10.jpg,AFSA20.jpg,AFSA09.jpg,FS,4,num_8,16,num_8,0.566800297471,,,2017_Mar_22_1503,60.0070635209,MAFE4ImagesEEG,001,100098,
AFNE01.JPG,AFNE01.JPG,AFNE01.JPG,AFNE01.JPG,AFNE01.JPG,AFNE01.JPG,,,,,,,,,,,,,3,0,30,9,,,,,,,,,,,AFSA17.jpg,AFNE02.jpg,AFSA19.jpg,AFNE04.jpg,AFSA17.jpg,FS,4,num_8,16,num_8,1.0498047818,,,2017_Mar_22_1503,60.0070635209,MAFE4ImagesEEG,001,100098,
AFNE01.JPG,AFNE01.JPG,AFNE01.JPG,AFNE01.JPG,AFNE01.JPG,AFNE01.JPG,,,,,,,,,,,,,3,1,31,0,,,,,,,,,,,AFSA15.jpg,AFNE04.jpg,AFSA11.jpg,AFNE13.jpg,AFNE04.jpg,FN,3,num_6,16,num_6,0.716808973521,,,2017_Mar_22_1503,60.0070635209,MAFE4ImagesEEG,001,100098,
AFNE01.JPG,AFNE01.JPG,AFNE01.JPG,AFNE01.JPG,AFNE01.JPG,AFNE01.JPG,,,,,,,,,,,,,3,2,32,3,,,,,,,,,,,AFNE05.jpg,AFSA15.jpg,AFNE16.jpg,AFSA01.jpg,AFSA15.jpg,FS,4,num_6,16,num_6,1.33344516455,,,2017_Mar_22_1503,60.0070635209,MAFE4ImagesEEG,001,100098,
AFNE01.JPG,AFNE01.JPG,AFNE01.JPG,AFNE01.JPG,AFNE01.JPG,AFNE01.JPG,,,,,,,,,,,,,3,3,33,7,,,,,,,,,,,AFSA17.jpg,AFNE20.jpg,AFNE17.jpg,AFSA14.jpg,AFSA17.jpg,FS,4,num_8,16,num_8,0.983475169749,,,2017_Mar_22_1503,60.0070635209,MAFE4ImagesEEG,001,100098,
AFNE01.JPG,AFNE01.JPG,AFNE01.JPG,AFNE01.JPG,AFNE01.JPG,AFNE01.JPG,,,,,,,,,,,,,3,4,34,4,,,,,,,,,,,AFNE02.jpg,AFSA12.jpg,AFSA03.jpg,AFNE01.jpg,AFNE02.jpg,FN,3,num_8,32,num_2,1.01677949756,,,2017_Mar_22_1503,60.0070635209,MAFE4ImagesEEG,001,100098,
AFNE01.JPG,AFNE01.JPG,AFNE01.JPG,AFNE01.JPG,AFNE01.JPG,AFNE01.JPG,,,,,,,,,,,,,3,5,35,6,,,,,,,,,,,AFSA18.jpg,AFSA09.jpg,AFNE15.jpg,AFNE06.jpg,AFNE15.jpg,FN,3,num_2,16,num_2,0.933476019709,,,2017_Mar_22_1503,60.0070635209,MAFE4ImagesEEG,001,100098,
AFNE01.JPG,AFNE01.JPG,AFNE01.JPG,AFNE01.JPG,AFNE01.JPG,AFNE01.JPG,,,,,,,,,,,,,3,6,36,1,,,,,,,,,,,AFNE12.jpg,AFSA15.jpg,AFSA10.jpg,AFNE11.jpg,AFSA15.jpg,FS,4,num_6,16,num_6,0.48347693379,,,2017_Mar_22_1503,60.0070635209,MAFE4ImagesEEG,001,100098,
AFNE01.JPG,AFNE01.JPG,AFNE01.JPG,AFNE01.JPG,AFNE01.JPG,AFNE01.JPG,,,,,,,,,,,,,3,7,37,2,,,,,,,,,,,AFSA20.jpg,AFSA02.jpg,AFNE17.jpg,AFNE15.jpg,AFNE15.jpg,FN,3,num_4,16,num_4,0.73353458679,,,2017_Mar_22_1503,60.0070635209,MAFE4ImagesEEG,001,100098,
AFNE01.JPG,AFNE01.JPG,AFNE01.JPG,AFNE01.JPG,AFNE01.JPG,AFNE01.JPG,,,,,,,,,,,,,3,8,38,8,,,,,,,,,,,AFSA12.jpg,AFNE10.jpg,AFNE13.jpg,AFSA17.jpg,AFSA17.jpg,FS,4,num_4,32,num_2,0.833469380392,,,2017_Mar_22_1503,60.0070635209,MAFE4ImagesEEG,001,100098,
AFNE01.JPG,AFNE01.JPG,AFNE01.JPG,AFNE01.JPG,AFNE01.JPG,AFNE01.JPG,,,,,,,,,,,,,3,9,39,5,,,,,,,,,,,AFNE11.jpg,AFSA12.jpg,AFSA10.jpg,AFNE06.jpg,AFSA12.jpg,FS,4,num_6,16,num_6,0.483498423418,,,2017_Mar_22_1503,60.0070635209,MAFE4ImagesEEG,001,100098,
AFNE01.JPG,AFNE01.JPG,AFNE01.JPG,AFNE01.JPG,AFNE01.JPG,AFNE01.JPG,,,,,,,,,,,,,4,0,40,4,,,,,,,,,,,AFNE15.jpg,AFSA05.jpg,AFNE08.jpg,AFSA16.jpg,AFNE15.jpg,FN,3,num_8,16,num_8,1.40009487479,,,2017_Mar_22_1503,60.0070635209,MAFE4ImagesEEG,001,100098,
AFNE01.JPG,AFNE01.JPG,AFNE01.JPG,AFNE01.JPG,AFNE01.JPG,AFNE01.JPG,,,,,,,,,,,,,4,1,41,2,,,,,,,,,,,AFSA19.jpg,AFNE14.jpg,AFSA02.jpg,AFNE18.jpg,AFSA02.jpg,FS,4,num_2,16,num_2,0.483501310053,,,2017_Mar_22_1503,60.0070635209,MAFE4ImagesEEG,001,100098,
AFNE01.JPG,AFNE01.JPG,AFNE01.JPG,AFNE01.JPG,AFNE01.JPG,AFNE01.JPG,,,,,,,,,,,,,4,2,42,7,,,,,,,,,,,AFSA16.jpg,AFNE12.jpg,AFNE17.jpg,AFSA09.jpg,AFSA16.jpg,FS,4,num_8,16,num_8,1.4167553779,,,2017_Mar_22_1503,60.0070635209,MAFE4ImagesEEG,001,100098,
AFNE01.JPG,AFNE01.JPG,AFNE01.JPG,AFNE01.JPG,AFNE01.JPG,AFNE01.JPG,,,,,,,,,,,,,4,3,43,9,,,,,,,,,,,AFSA15.jpg,AFNE07.jpg,AFNE08.jpg,AFSA03.jpg,AFSA15.jpg,FS,4,num_8,16,num_8,1.05015599175,,,2017_Mar_22_1503,60.0070635209,MAFE4ImagesEEG,001,100098,
AFNE01.JPG,AFNE01.JPG,AFNE01.JPG,AFNE01.JPG,AFNE01.JPG,AFNE01.JPG,,,,,,,,,,,,,4,4,44,1,,,,,,,,,,,AFSA03.jpg,AFNE03.jpg,AFNE12.jpg,AFSA19.jpg,AFSA03.jpg,FS,4,num_8,32,num_6,0.733489041741,,,2017_Mar_22_1503,60.0070635209,MAFE4ImagesEEG,001,100098,
AFNE01.JPG,AFNE01.JPG,AFNE01.JPG,AFNE01.JPG,AFNE01.JPG,AFNE01.JPG,,,,,,,,,,,,,4,5,45,5,,,,,,,,,,,AFNE02.jpg,AFSA02.jpg,AFNE19.jpg,AFSA20.jpg,AFNE19.jpg,FN,3,num_2,16,num_2,1.15008052171,,,2017_Mar_22_1503,60.0070635209,MAFE4ImagesEEG,001,100098,
AFNE01.JPG,AFNE01.JPG,AFNE01.JPG,AFNE01.JPG,AFNE01.JPG,AFNE01.JPG,,,,,,,,,,,,,4,6,46,0,,,,,,,,,,,AFNE12.jpg,AFNE02.jpg,AFSA13.jpg,AFSA15.jpg,AFSA13.jpg,FS,4,num_2,16,num_2,2.45001576433,,,2017_Mar_22_1503,60.0070635209,MAFE4ImagesEEG,001,100098,
AFNE01.JPG,AFNE01.JPG,AFNE01.JPG,AFNE01.JPG,AFNE01.JPG,AFNE01.JPG,,,,,,,,,,,,,4,7,47,8,,,,,,,,,,,AFNE13.jpg,AFSA15.jpg,AFSA12.jpg,AFNE02.jpg,AFSA15.jpg,FS,4,num_6,16,num_6,1.05017202871,,,2017_Mar_22_1503,60.0070635209,MAFE4ImagesEEG,001,100098,
AFNE01.JPG,AFNE01.JPG,AFNE01.JPG,AFNE01.JPG,AFNE01.JPG,AFNE01.JPG,,,,,,,,,,,,,4,8,48,3,,,,,,,,,,,AFSA08.jpg,AFNE17.jpg,AFNE11.jpg,AFSA12.jpg,AFNE17.jpg,FN,3,num_6,32,num_8,1.18339799985,,,2017_Mar_22_1503,60.0070635209,MAFE4ImagesEEG,001,100098,
AFNE01.JPG,AFNE01.JPG,AFNE01.JPG,AFNE01.JPG,AFNE01.JPG,AFNE01.JPG,,,,,,,,,,,,,4,9,49,6,,,,,,,,,,,AFSA19.jpg,AFNE20.jpg,AFSA10.jpg,AFNE16.jpg,AFSA19.jpg,FS,4,num_8,32,num_2,1.21660193603,,,2017_Mar_22_1503,60.0070635209,MAFE4ImagesEEG,001,100098,
AFNE01.JPG,AFNE01.JPG,AFNE01.JPG,AFNE01.JPG,AFNE01.JPG,AFNE01.JPG,,,,,,,,,,,,,5,0,50,1,,,,,,,,,,,AFSA03.jpg,AFNE06.jpg,AFNE03.jpg,AFSA04.jpg,AFSA04.jpg,FS,4,num_4,16,num_4,0.516823599231,,,2017_Mar_22_1503,60.0070635209,MAFE4ImagesEEG,001,100098,
AFNE01.JPG,AFNE01.JPG,AFNE01.JPG,AFNE01.JPG,AFNE01.JPG,AFNE01.JPG,,,,,,,,,,,,,5,1,51,9,,,,,,,,,,,AFNE17.jpg,AFNE04.jpg,AFSA19.jpg,AFSA11.jpg,AFSA19.jpg,FS,4,num_2,16,num_2,0.533509440778,,,2017_Mar_22_1503,60.0070635209,MAFE4ImagesEEG,001,100098,
AFNE01.JPG,AFNE01.JPG,AFNE01.JPG,AFNE01.JPG,AFNE01.JPG,AFNE01.JPG,,,,,,,,,,,,,5,2,52,0,,,,,,,,,,,AFSA09.jpg,AFNE09.jpg,AFNE12.jpg,AFSA18.jpg,AFNE09.jpg,FN,3,num_6,32,num_8,1.81669597694,,,2017_Mar_22_1503,60.0070635209,MAFE4ImagesEEG,001,100098,
AFNE01.JPG,AFNE01.JPG,AFNE01.JPG,AFNE01.JPG,AFNE01.JPG,AFNE01.JPG,,,,,,,,,,,,,5,3,53,5,,,,,,,,,,,AFSA05.jpg,AFNE01.jpg,AFNE04.jpg,AFSA18.jpg,AFSA18.jpg,FS,4,num_4,32,num_8,1.05009537196,,,2017_Mar_22_1503,60.0070635209,MAFE4ImagesEEG,001,100098,
AFNE01.JPG,AFNE01.JPG,AFNE01.JPG,AFNE01.JPG,AFNE01.JPG,AFNE01.JPG,,,,,,,,,,,,,5,4,54,7,,,,,,,,,,,AFNE08.jpg,AFNE02.jpg,AFSA07.jpg,AFSA12.jpg,AFSA07.jpg,FS,4,num_2,16,num_2,2.1166764439,,,2017_Mar_22_1503,60.0070635209,MAFE4ImagesEEG,001,100098,
AFNE01.JPG,AFNE01.JPG,AFNE01.JPG,AFNE01.JPG,AFNE01.JPG,AFNE01.JPG,,,,,,,,,,,,,5,5,55,2,,,,,,,,,,,AFNE10.jpg,AFSA09.jpg,AFSA17.jpg,AFNE15.jpg,AFNE10.jpg,FN,3,num_8,16,num_8,0.816989453742,,,2017_Mar_22_1503,60.0070635209,MAFE4ImagesEEG,001,100098,
AFNE01.JPG,AFNE01.JPG,AFNE01.JPG,AFNE01.JPG,AFNE01.JPG,AFNE01.JPG,,,,,,,,,,,,,5,6,56,3,,,,,,,,,,,AFNE10.jpg,AFSA16.jpg,AFSA18.jpg,AFNE18.jpg,AFNE10.jpg,FN,3,num_8,16,num_8,0.950102524483,,,2017_Mar_22_1503,60.0070635209,MAFE4ImagesEEG,001,100098,
AFNE01.JPG,AFNE01.JPG,AFNE01.JPG,AFNE01.JPG,AFNE01.JPG,AFNE01.JPG,,,,,,,,,,,,,5,7,57,4,,,,,,,,,,,AFNE02.jpg,AFSA18.jpg,AFNE13.jpg,AFSA16.jpg,AFSA16.jpg,FS,4,num_4,16,num_4,0.516813014867,,,2017_Mar_22_1503,60.0070635209,MAFE4ImagesEEG,001,100098,
AFNE01.JPG,AFNE01.JPG,AFNE01.JPG,AFNE01.JPG,AFNE01.JPG,AFNE01.JPG,,,,,,,,,,,,,5,8,58,6,,,,,,,,,,,AFNE05.jpg,AFNE06.jpg,AFSA02.jpg,AFSA15.jpg,AFNE05.jpg,FN,3,num_8,16,num_8,1.06702208903,,,2017_Mar_22_1503,60.0070635209,MAFE4ImagesEEG,001,100098,
AFNE01.JPG,AFNE01.JPG,AFNE01.JPG,AFNE01.JPG,AFNE01.JPG,AFNE01.JPG,,,,,,,,,,,,,5,9,59,8,,,,,,,,,,,AFSA06.jpg,AFNE13.jpg,AFNE18.jpg,AFSA11.jpg,AFSA06.jpg,FS,4,num_8,32,num_6,1.63338553911,,,2017_Mar_22_1503,60.0070635209,MAFE4ImagesEEG,001,100098,
,,,,,,,,,,,,,,,,,,,,,,,,,,,,,,,,,,,,,,,,,,,space,9.51611155714,2017_Mar_22_1503,60.0070635209,MAFE4ImagesEEG,001,100098,
AFNE01.JPG,AFNE01.JPG,AFNE01.JPG,AFNE01.JPG,AFNE01.JPG,AFNE01.JPG,,,,,,,,,,,,,,,,,0,0,0,9,,,,,,,AMNE06.jpg,AMSA06.jpg,AMSA16.jpg,AMNE13.jpg,AMSA16.jpg,MS,2,num_2,16,num_2,0.483477254573,,,2017_Mar_22_1503,60.0070635209,MAFE4ImagesEEG,001,100098,
AFNE01.JPG,AFNE01.JPG,AFNE01.JPG,AFNE01.JPG,AFNE01.JPG,AFNE01.JPG,,,,,,,,,,,,,,,,,0,1,1,5,,,,,,,AMSA12.jpg,AMNE02.jpg,AMNE01.jpg,AMSA15.jpg,AMSA12.jpg,MS,2,num_8,16,num_8,1.10008265462,,,2017_Mar_22_1503,60.0070635209,MAFE4ImagesEEG,001,100098,
AFNE01.JPG,AFNE01.JPG,AFNE01.JPG,AFNE01.JPG,AFNE01.JPG,AFNE01.JPG,,,,,,,,,,,,,,,,,0,2,2,3,,,,,,,AMNE09.jpg,AMNE05.jpg,AMSA12.jpg,AMSA18.jpg,AMNE09.jpg,MN,1,num_8,32,num_6,0.666773259174,,,2017_Mar_22_1503,60.0070635209,MAFE4ImagesEEG,001,100098,
AFNE01.JPG,AFNE01.JPG,AFNE01.JPG,AFNE01.JPG,AFNE01.JPG,AFNE01.JPG,,,,,,,,,,,,,,,,,0,3,3,6,,,,,,,AMSA01.jpg,AMNE02.jpg,AMSA10.jpg,AMNE09.jpg,AMNE09.jpg,MN,1,num_4,16,num_4,0.966791252664,,,2017_Mar_22_1503,60.0070635209,MAFE4ImagesEEG,001,100098,
AFNE01.JPG,AFNE01.JPG,AFNE01.JPG,AFNE01.JPG,AFNE01.JPG,AFNE01.JPG,,,,,,,,,,,,,,,,,0,4,4,7,,,,,,,AMNE13.jpg,AMSA17.jpg,AMNE08.jpg,AMSA06.jpg,AMNE08.jpg,MN,1,num_2,32,num_4,0.883498679963,,,2017_Mar_22_1503,60.0070635209,MAFE4ImagesEEG,001,100098,
AFNE01.JPG,AFNE01.JPG,AFNE01.JPG,AFNE01.JPG,AFNE01.JPG,AFNE01.JPG,,,,,,,,,,,,,,,,,0,5,5,2,,,,,,,AMSA20.jpg,AMNE03.jpg,AMNE06.jpg,AMSA11.jpg,AMSA20.jpg,MS,2,num_8,16,num_8,0.666801484302,,,2017_Mar_22_1503,60.0070635209,MAFE4ImagesEEG,001,100098,
AFNE01.JPG,AFNE01.JPG,AFNE01.JPG,AFNE01.JPG,AFNE01.JPG,AFNE01.JPG,,,,,,,,,,,,,,,,,0,6,6,8,,,,,,,AMSA12.jpg,AMNE14.jpg,AMSA20.jpg,AMNE19.jpg,AMSA20.jpg,MS,2,num_2,32,num_8,0.850175107829,,,2017_Mar_22_1503,60.0070635209,MAFE4ImagesEEG,001,100098,
AFNE01.JPG,AFNE01.JPG,AFNE01.JPG,AFNE01.JPG,AFNE01.JPG,AFNE01.JPG,,,,,,,,,,,,,,,,,0,7,7,0,,,,,,,AMNE16.jpg,AMSA14.jpg,AMNE13.jpg,AMSA01.jpg,AMSA01.jpg,MS,2,num_4,16,num_4,0.716813784617,,,2017_Mar_22_1503,60.0070635209,MAFE4ImagesEEG,001,100098,
AFNE01.JPG,AFNE01.JPG,AFNE01.JPG,AFNE01.JPG,AFNE01.JPG,AFNE01.JPG,,,,,,,,,,,,,,,,,0,8,8,1,,,,,,,AMNE15.jpg,AMSA02.jpg,AMSA10.jpg,AMNE13.jpg,AMNE13.jpg,MN,1,num_4,32,num_8,0.800091282523,,,2017_Mar_22_1503,60.0070635209,MAFE4ImagesEEG,001,100098,
AFNE01.JPG,AFNE01.JPG,AFNE01.JPG,AFNE01.JPG,AFNE01.JPG,AFNE01.JPG,,,,,,,,,,,,,,,,,0,9,9,4,,,,,,,AMNE18.jpg,AMSA12.jpg,AMSA03.jpg,AMNE15.jpg,AMNE15.jpg,MN,1,num_4,32,num_6,1.13342450891,,,2017_Mar_22_1503,60.0070635209,MAFE4ImagesEEG,001,100098,
AFNE01.JPG,AFNE01.JPG,AFNE01.JPG,AFNE01.JPG,AFNE01.JPG,AFNE01.JPG,,,,,,,,,,,,,,,,,1,0,10,4,,,,,,,AMNE17.jpg,AMNE15.jpg,AMSA01.jpg,AMSA17.jpg,AMSA01.jpg,MS,2,num_2,16,num_2,1.45008664788,,,2017_Mar_22_1503,60.0070635209,MAFE4ImagesEEG,001,100098,
AFNE01.JPG,AFNE01.JPG,AFNE01.JPG,AFNE01.JPG,AFNE01.JPG,AFNE01.JPG,,,,,,,,,,,,,,,,,1,1,11,3,,,,,,,AMNE05.jpg,AMSA10.jpg,AMNE06.jpg,AMSA20.jpg,AMSA10.jpg,MS,2,num_6,16,num_6,0.733438685653,,,2017_Mar_22_1503,60.0070635209,MAFE4ImagesEEG,001,100098,
AFNE01.JPG,AFNE01.JPG,AFNE01.JPG,AFNE01.JPG,AFNE01.JPG,AFNE01.JPG,,,,,,,,,,,,,,,,,1,2,12,6,,,,,,,AMSA01.jpg,AMNE07.jpg,AMNE14.jpg,AMSA05.jpg,AMNE14.jpg,MN,1,num_2,16,num_2,0.900160145364,,,2017_Mar_22_1503,60.0070635209,MAFE4ImagesEEG,001,100098,
AFNE01.JPG,AFNE01.JPG,AFNE01.JPG,AFNE01.JPG,AFNE01.JPG,AFNE01.JPG,,,,,,,,,,,,,,,,,1,3,13,5,,,,,,,AMNE06.jpg,AMNE15.jpg,AMSA13.jpg,AMSA05.jpg,AMSA13.jpg,MS,2,num_2,32,num_6,0.766827688727,,,2017_Mar_22_1503,60.0070635209,MAFE4ImagesEEG,001,100098,
AFNE01.JPG,AFNE01.JPG,AFNE01.JPG,AFNE01.JPG,AFNE01.JPG,AFNE01.JPG,,,,,,,,,,,,,,,,,1,4,14,8,,,,,,,AMNE03.jpg,AMSA13.jpg,AMNE10.jpg,AMSA10.jpg,AMNE03.jpg,MN,1,num_8,16,num_8,0.783480173326,,,2017_Mar_22_1503,60.0070635209,MAFE4ImagesEEG,001,100098,
AFNE01.JPG,AFNE01.JPG,AFNE01.JPG,AFNE01.JPG,AFNE01.JPG,AFNE01.JPG,,,,,,,,,,,,,,,,,1,5,15,2,,,,,,,AMSA04.jpg,AMSA14.jpg,AMNE10.jpg,AMNE16.jpg,AMSA04.jpg,MS,2,num_8,16,num_8,0.516868823557,,,2017_Mar_22_1503,60.0070635209,MAFE4ImagesEEG,001,100098,
AFNE01.JPG,AFNE01.JPG,AFNE01.JPG,AFNE01.JPG,AFNE01.JPG,AFNE01.JPG,,,,,,,,,,,,,,,,,1,6,16,7,,,,,,,AMSA02.jpg,AMSA19.jpg,AMNE12.jpg,AMNE13.jpg,AMSA02.jpg,MS,2,num_8,16,num_8,0.683333050052,,,2017_Mar_22_1503,60.0070635209,MAFE4ImagesEEG,001,100098,
AFNE01.JPG,AFNE01.JPG,AFNE01.JPG,AFNE01.JPG,AFNE01.JPG,AFNE01.JPG,,,,,,,,,,,,,,,,,1,7,17,1,,,,,,,AMSA14.jpg,AMSA12.jpg,AMNE04.jpg,AMNE06.jpg,AMSA14.jpg,MS,2,num_8,32,num_4,0.766818707983,,,2017_Mar_22_1503,60.0070635209,MAFE4ImagesEEG,001,100098,
AFNE01.JPG,AFNE01.JPG,AFNE01.JPG,AFNE01.JPG,AFNE01.JPG,AFNE01.JPG,,,,,,,,,,,,,,,,,1,8,18,0,,,,,,,AMNE14.jpg,AMSA04.jpg,AMNE09.jpg,AMSA15.jpg,AMNE14.jpg,MN,1,num_8,16,num_8,0.666865311447,,,2017_Mar_22_1503,60.0070635209,MAFE4ImagesEEG,001,100098,
AFNE01.JPG,AFNE01.JPG,AFNE01.JPG,AFNE01.JPG,AFNE01.JPG,AFNE01.JPG,,,,,,,,,,,,,,,,,1,9,19,9,,,,,,,AMNE18.jpg,AMSA14.jpg,AMNE05.jpg,AMSA02.jpg,AMNE18.jpg,MN,1,num_8,16,num_8,1.15033583052,,,2017_Mar_22_1503,60.0070635209,MAFE4ImagesEEG,001,100098,
AFNE01.JPG,AFNE01.JPG,AFNE01.JPG,AFNE01.JPG,AFNE01.JPG,AFNE01.JPG,,,,,,,,,,,,,,,,,2,0,20,7,,,,,,,AMSA15.jpg,AMNE03.jpg,AMSA20.jpg,AMNE01.jpg,AMNE01.jpg,MN,1,num_4,16,num_4,1.06676228985,,,2017_Mar_22_1503,60.0070635209,MAFE4ImagesEEG,001,100098,
AFNE01.JPG,AFNE01.JPG,AFNE01.JPG,AFNE01.JPG,AFNE01.JPG,AFNE01.JPG,,,,,,,,,,,,,,,,,2,1,21,8,,,,,,,AMNE05.jpg,AMSA01.jpg,AMSA02.jpg,AMNE18.jpg,AMNE05.jpg,MN,1,num_8,16,num_8,0.65012205753,,,2017_Mar_22_1503,60.0070635209,MAFE4ImagesEEG,001,100098,
AFNE01.JPG,AFNE01.JPG,AFNE01.JPG,AFNE01.JPG,AFNE01.JPG,AFNE01.JPG,,,,,,,,,,,,,,,,,2,2,22,0,,,,,,,AMNE02.jpg,AMSA11.jpg,AMNE12.jpg,AMSA18.jpg,AMNE02.jpg,MN,1,num_8,32,num_6,0.95011856145,,,2017_Mar_22_1503,60.0070635209,MAFE4ImagesEEG,001,100098,
AFNE01.JPG,AFNE01.JPG,AFNE01.JPG,AFNE01.JPG,AFNE01.JPG,AFNE01.JPG,,,,,,,,,,,,,,,,,2,3,23,1,,,,,,,AMNE19.jpg,AMSA12.jpg,AMSA01.jpg,AMNE03.jpg,AMNE19.jpg,MN,1,num_8,16,num_8,0.750123244245,,,2017_Mar_22_1503,60.0070635209,MAFE4ImagesEEG,001,100098,
AFNE01.JPG,AFNE01.JPG,AFNE01.JPG,AFNE01.JPG,AFNE01.JPG,AFNE01.JPG,,,,,,,,,,,,,,,,,2,4,24,5,,,,,,,AMNE11.jpg,AMSA19.jpg,AMSA10.jpg,AMNE10.jpg,AMSA19.jpg,MS,2,num_6,16,num_6,0.900108826987,,,2017_Mar_22_1503,60.0070635209,MAFE4ImagesEEG,001,100098,
AFNE01.JPG,AFNE01.JPG,AFNE01.JPG,AFNE01.JPG,AFNE01.JPG,AFNE01.JPG,,,,,,,,,,,,,,,,,2,5,25,6,,,,,,,AMNE12.jpg,AMSA01.jpg,AMSA09.jpg,AMNE02.jpg,AMSA01.jpg,MS,2,num_6,32,num_8,1.31673590903,,,2017_Mar_22_1503,60.0070635209,MAFE4ImagesEEG,001,100098,
AFNE01.JPG,AFNE01.JPG,AFNE01.JPG,AFNE01.JPG,AFNE01.JPG,AFNE01.JPG,,,,,,,,,,,,,,,,,2,6,26,9,,,,,,,AMSA19.jpg,AMSA16.jpg,AMNE18.jpg,AMNE09.jpg,AMNE18.jpg,MN,1,num_2,16,num_2,0.933478264895,,,2017_Mar_22_1503,60.0070635209,MAFE4ImagesEEG,001,100098,
AFNE01.JPG,AFNE01.JPG,AFNE01.JPG,AFNE01.JPG,AFNE01.JPG,AFNE01.JPG,,,,,,,,,,,,,,,,,2,7,27,3,,,,,,,AMSA20.jpg,AMNE20.jpg,AMNE03.jpg,AMSA06.jpg,AMNE03.jpg,MN,1,num_2,32,num_6,0.749863445119,,,2017_Mar_22_1503,60.0070635209,MAFE4ImagesEEG,001,100098,
AFNE01.JPG,AFNE01.JPG,AFNE01.JPG,AFNE01.JPG,AFNE01.JPG,AFNE01.JPG,,,,,,,,,,,,,,,,,2,8,28,4,,,,,,,AMSA13.jpg,AMSA01.jpg,AMNE13.jpg,AMNE02.jpg,AMSA13.jpg,MS,2,num_8,16,num_8,0.716807690565,,,2017_Mar_22_1503,60.0070635209,MAFE4ImagesEEG,001,100098,
AFNE01.JPG,AFNE01.JPG,AFNE01.JPG,AFNE01.JPG,AFNE01.JPG,AFNE01.JPG,,,,,,,,,,,,,,,,,2,9,29,2,,,,,,,AMSA13.jpg,AMSA12.jpg,AMNE11.jpg,AMNE04.jpg,AMSA13.jpg,MS,2,num_8,16,num_8,1.11679543828,,,2017_Mar_22_1503,60.0070635209,MAFE4ImagesEEG,001,100098,
AFNE01.JPG,AFNE01.JPG,AFNE01.JPG,AFNE01.JPG,AFNE01.JPG,AFNE01.JPG,,,,,,,,,,,,,,,,,3,0,30,7,,,,,,,AMSA14.jpg,AMNE16.jpg,AMSA20.jpg,AMNE13.jpg,AMSA14.jpg,MS,2,num_8,16,num_8,0.916605752835,,,2017_Mar_22_1503,60.0070635209,MAFE4ImagesEEG,001,100098,
AFNE01.JPG,AFNE01.JPG,AFNE01.JPG,AFNE01.JPG,AFNE01.JPG,AFNE01.JPG,,,,,,,,,,,,,,,,,3,1,31,2,,,,,,,AMSA07.jpg,AMSA03.jpg,AMNE09.jpg,AMNE14.jpg,AMSA07.jpg,MS,2,num_8,32,num_6,1.06676004472,,,2017_Mar_22_1503,60.0070635209,MAFE4ImagesEEG,001,100098,
AFNE01.JPG,AFNE01.JPG,AFNE01.JPG,AFNE01.JPG,AFNE01.JPG,AFNE01.JPG,,,,,,,,,,,,,,,,,3,2,32,0,,,,,,,AMNE19.jpg,AMSA18.jpg,AMSA08.jpg,AMNE02.jpg,AMNE19.jpg,MN,1,num_8,16,num_8,1.03340279486,,,2017_Mar_22_1503,60.0070635209,MAFE4ImagesEEG,001,100098,
AFNE01.JPG,AFNE01.JPG,AFNE01.JPG,AFNE01.JPG,AFNE01.JPG,AFNE01.JPG,,,,,,,,,,,,,,,,,3,3,33,8,,,,,,,AMSA18.jpg,AMSA15.jpg,AMNE07.jpg,AMNE12.jpg,AMNE12.jpg,MN,1,num_4,16,num_4,1.16672402562,,,2017_Mar_22_1503,60.0070635209,MAFE4ImagesEEG,001,100098,
AFNE01.JPG,AFNE01.JPG,AFNE01.JPG,AFNE01.JPG,AFNE01.JPG,AFNE01.JPG,,,,,,,,,,,,,,,,,3,4,34,3,,,,,,,AMSA11.jpg,AMSA09.jpg,AMNE01.jpg,AMNE13.jpg,AMSA09.jpg,MS,2,num_6,16,num_6,0.916769009375,,,2017_Mar_22_1503,60.0070635209,MAFE4ImagesEEG,001,100098,
AFNE01.JPG,AFNE01.JPG,AFNE01.JPG,AFNE01.JPG,AFNE01.JPG,AFNE01.JPG,,,,,,,,,,,,,,,,,3,5,35,9,,,,,,,AMSA04.jpg,AMSA01.jpg,AMNE03.jpg,AMNE16.jpg,AMSA04.jpg,MS,2,num_8,16,num_8,1.05014829396,,,2017_Mar_22_1503,60.0070635209,MAFE4ImagesEEG,001,100098,
AFNE01.JPG,AFNE01.JPG,AFNE01.JPG,AFNE01.JPG,AFNE01.JPG,AFNE01.JPG,,,,,,,,,,,,,,,,,3,6,36,1,,,,,,,AMNE18.jpg,AMSA04.jpg,AMNE16.jpg,AMSA14.jpg,AMNE18.jpg,MN,1,num_8,16,num_8,0.80000179616,,,2017_Mar_22_1503,60.0070635209,MAFE4ImagesEEG,001,100098,
AFNE01.JPG,AFNE01.JPG,AFNE01.JPG,AFNE01.JPG,AFNE01.JPG,AFNE01.JPG,,,,,,,,,,,,,,,,,3,7,37,6,,,,,,,AMNE02.jpg,AMNE11.jpg,AMSA15.jpg,AMSA02.jpg,AMNE11.jpg,MN,1,num_6,32,num_4,1.18343071523,,,2017_Mar_22_1503,60.0070635209,MAFE4ImagesEEG,001,100098,
AFNE01.JPG,AFNE01.JPG,AFNE01.JPG,AFNE01.JPG,AFNE01.JPG,AFNE01.JPG,,,,,,,,,,,,,,,,,3,8,38,5,,,,,,,AMNE20.jpg,AMSA18.jpg,AMSA11.jpg,AMNE12.jpg,AMNE20.jpg,MN,1,num_8,16,num_8,0.999885175144,,,2017_Mar_22_1503,60.0070635209,MAFE4ImagesEEG,001,100098,
AFNE01.JPG,AFNE01.JPG,AFNE01.JPG,AFNE01.JPG,AFNE01.JPG,AFNE01.JPG,,,,,,,,,,,,,,,,,3,9,39,4,,,,,,,AMSA16.jpg,AMNE20.jpg,AMSA05.jpg,AMNE01.jpg,AMSA16.jpg,MS,2,num_8,16,num_8,0.833554697223,,,2017_Mar_22_1503,60.0070635209,MAFE4ImagesEEG,001,100098,
AFNE01.JPG,AFNE01.JPG,AFNE01.JPG,AFNE01.JPG,AFNE01.JPG,AFNE01.JPG,,,,,,,,,,,,,,,,,4,0,40,0,,,,,,,AMSA17.jpg,AMNE17.jpg,AMSA08.jpg,AMNE14.jpg,AMNE14.jpg,MN,1,num_4,32,num_2,1.23341896018,,,2017_Mar_22_1503,60.0070635209,MAFE4ImagesEEG,001,100098,
AFNE01.JPG,AFNE01.JPG,AFNE01.JPG,AFNE01.JPG,AFNE01.JPG,AFNE01.JPG,,,,,,,,,,,,,,,,,4,1,41,2,,,,,,,AMNE05.jpg,AMNE03.jpg,AMSA15.jpg,AMSA08.jpg,AMSA15.jpg,MS,2,num_2,32,num_4,1.03345956584,,,2017_Mar_22_1503,60.0070635209,MAFE4ImagesEEG,001,100098,
AFNE01.JPG,AFNE01.JPG,AFNE01.JPG,AFNE01.JPG,AFNE01.JPG,AFNE01.JPG,,,,,,,,,,,,,,,,,4,2,42,9,,,,,,,AMNE01.jpg,AMNE05.jpg,AMSA05.jpg,AMSA02.jpg,AMSA05.jpg,MS,2,num_2,16,num_2,1.0501566332,,,2017_Mar_22_1503,60.0070635209,MAFE4ImagesEEG,001,100098,
AFNE01.JPG,AFNE01.JPG,AFNE01.JPG,AFNE01.JPG,AFNE01.JPG,AFNE01.JPG,,,,,,,,,,,,,,,,,4,3,43,6,,,,,,,AMSA02.jpg,AMNE04.jpg,AMSA11.jpg,AMNE19.jpg,AMSA11.jpg,MS,2,num_2,32,num_8,0.765171709587,,,2017_Mar_22_1503,60.0070635209,MAFE4ImagesEEG,001,100098,
AFNE01.JPG,AFNE01.JPG,AFNE01.JPG,AFNE01.JPG,AFNE01.JPG,AFNE01.JPG,,,,,,,,,,,,,,,,,4,4,44,3,,,,,,,AMSA04.jpg,AMSA14.jpg,AMNE07.jpg,AMNE14.jpg,AMSA04.jpg,MS,2,num_8,16,num_8,2.91656341526,,,2017_Mar_22_1503,60.0070635209,MAFE4ImagesEEG,001,100098,
AFNE01.JPG,AFNE01.JPG,AFNE01.JPG,AFNE01.JPG,AFNE01.JPG,AFNE01.JPG,,,,,,,,,,,,,,,,,4,5,45,4,,,,,,,AMNE11.jpg,AMSA08.jpg,AMSA04.jpg,AMNE12.jpg,AMNE12.jpg,MN,1,num_4,32,num_8,1.50007264753,,,2017_Mar_22_1503,60.0070635209,MAFE4ImagesEEG,001,100098,
AFNE01.JPG,AFNE01.JPG,AFNE01.JPG,AFNE01.JPG,AFNE01.JPG,AFNE01.JPG,,,,,,,,,,,,,,,,,4,6,46,8,,,,,,,AMSA06.jpg,AMNE13.jpg,AMSA18.jpg,AMNE17.jpg,AMNE13.jpg,MN,1,num_6,16,num_6,0.566827239643,,,2017_Mar_22_1503,60.0070635209,MAFE4ImagesEEG,001,100098,
AFNE01.JPG,AFNE01.JPG,AFNE01.JPG,AFNE01.JPG,AFNE01.JPG,AFNE01.JPG,,,,,,,,,,,,,,,,,4,7,47,1,,,,,,,AMNE15.jpg,AMSA09.jpg,AMNE20.jpg,AMSA20.jpg,AMNE20.jpg,MN,1,num_2,16,num_2,0.883447682427,,,2017_Mar_22_1503,60.0070635209,MAFE4ImagesEEG,001,100098,
AFNE01.JPG,AFNE01.JPG,AFNE01.JPG,AFNE01.JPG,AFNE01.JPG,AFNE01.JPG,,,,,,,,,,,,,,,,,4,8,48,7,,,,,,,AMSA10.jpg,AMSA12.jpg,AMNE03.jpg,AMNE08.jpg,AMNE03.jpg,MN,1,num_2,32,num_6,0.966741858691,,,2017_Mar_22_1503,60.0070635209,MAFE4ImagesEEG,001,100098,
AFNE01.JPG,AFNE01.JPG,AFNE01.JPG,AFNE01.JPG,AFNE01.JPG,AFNE01.JPG,,,,,,,,,,,,,,,,,4,9,49,5,,,,,,,AMSA04.jpg,AMSA13.jpg,AMNE15.jpg,AMNE01.jpg,AMNE15.jpg,MN,1,num_2,16,num_2,0.800150940137,,,2017_Mar_22_1503,60.0070635209,MAFE4ImagesEEG,001,100098,
AFNE01.JPG,AFNE01.JPG,AFNE01.JPG,AFNE01.JPG,AFNE01.JPG,AFNE01.JPG,,,,,,,,,,,,,,,,,5,0,50,8,,,,,,,AMNE03.jpg,AMSA05.jpg,AMSA02.jpg,AMNE01.jpg,AMNE01.jpg,MN,1,num_4,16,num_4,1.05013386073,,,2017_Mar_22_1503,60.0070635209,MAFE4ImagesEEG,001,100098,
AFNE01.JPG,AFNE01.JPG,AFNE01.JPG,AFNE01.JPG,AFNE01.JPG,AFNE01.JPG,,,,,,,,,,,,,,,,,5,1,51,1,,,,,,,AMSA18.jpg,AMNE01.jpg,AMSA16.jpg,AMNE13.jpg,AMSA16.jpg,MS,2,num_2,32,num_6,1.21676294738,,,2017_Mar_22_1503,60.0070635209,MAFE4ImagesEEG,001,100098,
AFNE01.JPG,AFNE01.JPG,AFNE01.JPG,AFNE01.JPG,AFNE01.JPG,AFNE01.JPG,,,,,,,,,,,,,,,,,5,2,52,3,,,,,,,AMSA04.jpg,AMNE19.jpg,AMNE20.jpg,AMSA14.jpg,AMNE20.jpg,MN,1,num_2,32,num_6,0.683499193168,,,2017_Mar_22_1503,60.0070635209,MAFE4ImagesEEG,001,100098,
AFNE01.JPG,AFNE01.JPG,AFNE01.JPG,AFNE01.JPG,AFNE01.JPG,AFNE01.JPG,,,,,,,,,,,,,,,,,5,3,53,7,,,,,,,AMSA18.jpg,AMSA07.jpg,AMNE11.jpg,AMNE07.jpg,AMSA07.jpg,MS,2,num_6,32,num_2,1.10005924065,,,2017_Mar_22_1503,60.0070635209,MAFE4ImagesEEG,001,100098,
AFNE01.JPG,AFNE01.JPG,AFNE01.JPG,AFNE01.JPG,AFNE01.JPG,AFNE01.JPG,,,,,,,,,,,,,,,,,5,4,54,6,,,,,,,AMNE18.jpg,AMSA19.jpg,AMNE17.jpg,AMSA02.jpg,AMSA02.jpg,MS,2,num_4,32,num_8,1.1334511303,,,2017_Mar_22_1503,60.0070635209,MAFE4ImagesEEG,001,100098,
AFNE01.JPG,AFNE01.JPG,AFNE01.JPG,AFNE01.JPG,AFNE01.JPG,AFNE01.JPG,,,,,,,,,,,,,,,,,5,5,55,9,,,,,,,AMNE07.jpg,AMSA15.jpg,AMSA07.jpg,AMNE09.jpg,AMNE09.jpg,MN,1,num_4,16,num_4,0.883479756361,,,2017_Mar_22_1503,60.0070635209,MAFE4ImagesEEG,001,100098,
AFNE01.JPG,AFNE01.JPG,AFNE01.JPG,AFNE01.JPG,AFNE01.JPG,AFNE01.JPG,,,,,,,,,,,,,,,,,5,6,56,0,,,,,,,AMNE20.jpg,AMSA15.jpg,AMNE14.jpg,AMSA07.jpg,AMSA07.jpg,MS,2,num_4,16,num_4,0.600157868059,,,2017_Mar_22_1503,60.0070635209,MAFE4ImagesEEG,001,100098,
AFNE01.JPG,AFNE01.JPG,AFNE01.JPG,AFNE01.JPG,AFNE01.JPG,AFNE01.JPG,,,,,,,,,,,,,,,,,5,7,57,2,,,,,,,AMSA16.jpg,AMSA07.jpg,AMNE05.jpg,AMNE18.jpg,AMNE05.jpg,MN,1,num_2,16,num_2,0.866763123777,,,2017_Mar_22_1503,60.0070635209,MAFE4ImagesEEG,001,100098,
AFNE01.JPG,AFNE01.JPG,AFNE01.JPG,AFNE01.JPG,AFNE01.JPG,AFNE01.JPG,,,,,,,,,,,,,,,,,5,8,58,5,,,,,,,AMNE11.jpg,AMSA04.jpg,AMNE10.jpg,AMSA05.jpg,AMNE10.jpg,MN,1,num_2,16,num_2,0.800032266416,,,2017_Mar_22_1503,60.0070635209,MAFE4ImagesEEG,001,100098,
AFNE01.JPG,AFNE01.JPG,AFNE01.JPG,AFNE01.JPG,AFNE01.JPG,AFNE01.JPG,,,,,,,,,,,,,,,,,5,9,59,4,,,,,,,AMNE08.jpg,AMSA15.jpg,AMSA19.jpg,AMNE07.jpg,AMNE07.jpg,MN,1,num_4,32,num_2,1.08347090392,,,2017_Mar_22_1503,60.0070635209,MAFE4ImagesEEG,001,100098,
,,,,,,,,,,,,,,,,,,,,,,,,,,,,,,,,,,,,,,,,,,,space,69.8114576561,2017_Mar_22_1503,60.0070635209,MAFE4ImagesEEG,001,100098,
AFNE01.JPG,AFNE01.JPG,AFNE01.JPG,AFNE01.JPG,AFNE01.JPG,AFNE01.JPG,,,,,,,,,,,,,,,,,,,,,0,0,0,7,,,AFSA11.jpg,AFSA14.jpg,AFNE17.jpg,AFNE07.jpg,AFNE17.jpg,FN,3,num_2,16,num_2,1.25014425273,,,2017_Mar_22_1503,60.0070635209,MAFE4ImagesEEG,001,100098,
AFNE01.JPG,AFNE01.JPG,AFNE01.JPG,AFNE01.JPG,AFNE01.JPG,AFNE01.JPG,,,,,,,,,,,,,,,,,,,,,0,1,1,9,,,AFNE11.jpg,AFNE03.jpg,AFSA05.jpg,AFSA04.jpg,AFSA04.jpg,FS,4,num_4,16,num_4,0.783504228806,,,2017_Mar_22_1503,60.0070635209,MAFE4ImagesEEG,001,100098,
AFNE01.JPG,AFNE01.JPG,AFNE01.JPG,AFNE01.JPG,AFNE01.JPG,AFNE01.JPG,,,,,,,,,,,,,,,,,,,,,0,2,2,6,,,AFSA15.jpg,AFNE07.jpg,AFSA01.jpg,AFNE04.jpg,AFSA15.jpg,FS,4,num_8,16,num_8,0.80012367724,,,2017_Mar_22_1503,60.0070635209,MAFE4ImagesEEG,001,100098,
AFNE01.JPG,AFNE01.JPG,AFNE01.JPG,AFNE01.JPG,AFNE01.JPG,AFNE01.JPG,,,,,,,,,,,,,,,,,,,,,0,3,3,4,,,AFSA03.jpg,AFSA10.jpg,AFNE17.jpg,AFNE20.jpg,AFSA10.jpg,FS,4,num_6,32,num_8,1.03349260194,,,2017_Mar_22_1503,60.0070635209,MAFE4ImagesEEG,001,100098,
AFNE01.JPG,AFNE01.JPG,AFNE01.JPG,AFNE01.JPG,AFNE01.JPG,AFNE01.JPG,,,,,,,,,,,,,,,,,,,,,0,4,4,1,,,AFSA12.jpg,AFNE17.jpg,AFNE07.jpg,AFSA20.jpg,AFNE17.jpg,FN,3,num_6,16,num_6,0.833456550841,,,2017_Mar_22_1503,60.0070635209,MAFE4ImagesEEG,001,100098,
AFNE01.JPG,AFNE01.JPG,AFNE01.JPG,AFNE01.JPG,AFNE01.JPG,AFNE01.JPG,,,,,,,,,,,,,,,,,,,,,0,5,5,2,,,AFNE18.jpg,AFSA15.jpg,AFNE04.jpg,AFSA16.jpg,AFSA16.jpg,FS,4,num_4,16,num_4,1.03344545327,,,2017_Mar_22_1503,60.0070635209,MAFE4ImagesEEG,001,100098,
AFNE01.JPG,AFNE01.JPG,AFNE01.JPG,AFNE01.JPG,AFNE01.JPG,AFNE01.JPG,,,,,,,,,,,,,,,,,,,,,0,6,6,0,,,AFNE10.jpg,AFNE17.jpg,AFSA02.jpg,AFSA16.jpg,AFNE17.jpg,FN,3,num_6,16,num_6,1.016733311,,,2017_Mar_22_1503,60.0070635209,MAFE4ImagesEEG,001,100098,
AFNE01.JPG,AFNE01.JPG,AFNE01.JPG,AFNE01.JPG,AFNE01.JPG,AFNE01.JPG,,,,,,,,,,,,,,,,,,,,,0,7,7,8,,,AFSA04.jpg,AFNE08.jpg,AFSA06.jpg,AFNE15.jpg,AFNE08.jpg,FN,3,num_6,16,num_6,1.2334994658,,,2017_Mar_22_1503,60.0070635209,MAFE4ImagesEEG,001,100098,
AFNE01.JPG,AFNE01.JPG,AFNE01.JPG,AFNE01.JPG,AFNE01.JPG,AFNE01.JPG,,,,,,,,,,,,,,,,,,,,,0,8,8,3,,,AFNE10.jpg,AFNE08.jpg,AFSA14.jpg,AFSA06.jpg,AFSA06.jpg,FS,4,num_4,32,num_2,1.13343348965,,,2017_Mar_22_1503,60.0070635209,MAFE4ImagesEEG,001,100098,
AFNE01.JPG,AFNE01.JPG,AFNE01.JPG,AFNE01.JPG,AFNE01.JPG,AFNE01.JPG,,,,,,,,,,,,,,,,,,,,,0,9,9,5,,,AFNE08.jpg,AFNE01.jpg,AFSA13.jpg,AFSA12.jpg,AFNE01.jpg,FN,3,num_6,32,num_8,1.26672938198,,,2017_Mar_22_1503,60.0070635209,MAFE4ImagesEEG,001,100098,
AFNE01.JPG,AFNE01.JPG,AFNE01.JPG,AFNE01.JPG,AFNE01.JPG,AFNE01.JPG,,,,,,,,,,,,,,,,,,,,,1,0,10,1,,,AFNE02.jpg,AFNE03.jpg,AFSA02.jpg,AFSA17.jpg,AFSA02.jpg,FS,4,num_2,16,num_2,0.81677968998,,,2017_Mar_22_1503,60.0070635209,MAFE4ImagesEEG,001,100098,
AFNE01.JPG,AFNE01.JPG,AFNE01.JPG,AFNE01.JPG,AFNE01.JPG,AFNE01.JPG,,,,,,,,,,,,,,,,,,,,,1,1,11,6,,,AFNE20.jpg,AFSA14.jpg,AFSA10.jpg,AFNE03.jpg,AFNE20.jpg,FN,3,num_8,16,num_8,0.766752635594,,,2017_Mar_22_1503,60.0070635209,MAFE4ImagesEEG,001,100098,
AFNE01.JPG,AFNE01.JPG,AFNE01.JPG,AFNE01.JPG,AFNE01.JPG,AFNE01.JPG,,,,,,,,,,,,,,,,,,,,,1,2,12,9,,,AFSA19.jpg,AFNE02.jpg,AFSA20.jpg,AFNE05.jpg,AFNE05.jpg,FN,3,num_4,32,num_2,0.966805365228,,,2017_Mar_22_1503,60.0070635209,MAFE4ImagesEEG,001,100098,
AFNE01.JPG,AFNE01.JPG,AFNE01.JPG,AFNE01.JPG,AFNE01.JPG,AFNE01.JPG,,,,,,,,,,,,,,,,,,,,,1,3,13,2,,,AFSA08.jpg,AFNE16.jpg,AFSA10.jpg,AFNE10.jpg,AFSA10.jpg,FS,4,num_2,32,num_4,1.10014423664,,,2017_Mar_22_1503,60.0070635209,MAFE4ImagesEEG,001,100098,
AFNE01.JPG,AFNE01.JPG,AFNE01.JPG,AFNE01.JPG,AFNE01.JPG,AFNE01.JPG,,,,,,,,,,,,,,,,,,,,,1,4,14,0,,,AFSA01.jpg,AFNE03.jpg,AFSA15.jpg,AFNE16.jpg,AFSA15.jpg,FS,4,num_2,16,num_2,0.800122394285,,,2017_Mar_22_1503,60.0070635209,MAFE4ImagesEEG,001,100098,
AFNE01.JPG,AFNE01.JPG,AFNE01.JPG,AFNE01.JPG,AFNE01.JPG,AFNE01.JPG,,,,,,,,,,,,,,,,,,,,,1,5,15,4,,,AFSA09.jpg,AFSA06.jpg,AFNE09.jpg,AFNE07.jpg,AFNE07.jpg,FN,3,num_4,16,num_4,0.683512664225,,,2017_Mar_22_1503,60.0070635209,MAFE4ImagesEEG,001,100098,
AFNE01.JPG,AFNE01.JPG,AFNE01.JPG,AFNE01.JPG,AFNE01.JPG,AFNE01.JPG,,,,,,,,,,,,,,,,,,,,,1,6,16,7,,,AFSA09.jpg,AFSA02.jpg,AFNE18.jpg,AFNE03.jpg,AFNE18.jpg,FN,3,num_2,32,num_8,1.04999209382,,,2017_Mar_22_1503,60.0070635209,MAFE4ImagesEEG,001,100098,
AFNE01.JPG,AFNE01.JPG,AFNE01.JPG,AFNE01.JPG,AFNE01.JPG,AFNE01.JPG,,,,,,,,,,,,,,,,,,,,,1,7,17,3,,,AFSA08.jpg,AFNE16.jpg,AFSA12.jpg,AFNE14.jpg,AFNE14.jpg,FN,3,num_4,32,num_8,0.883485208906,,,2017_Mar_22_1503,60.0070635209,MAFE4ImagesEEG,001,100098,
AFNE01.JPG,AFNE01.JPG,AFNE01.JPG,AFNE01.JPG,AFNE01.JPG,AFNE01.JPG,,,,,,,,,,,,,,,,,,,,,1,8,18,5,,,AFSA17.jpg,AFNE19.jpg,AFSA01.jpg,AFNE05.jpg,AFSA17.jpg,FS,4,num_8,16,num_8,0.783491399197,,,2017_Mar_22_1503,60.0070635209,MAFE4ImagesEEG,001,100098,
AFNE01.JPG,AFNE01.JPG,AFNE01.JPG,AFNE01.JPG,AFNE01.JPG,AFNE01.JPG,,,,,,,,,,,,,,,,,,,,,1,9,19,8,,,AFNE20.jpg,AFSA03.jpg,AFSA12.jpg,AFNE16.jpg,AFNE20.jpg,FN,3,num_8,32,num_6,0.916813271411,,,2017_Mar_22_1503,60.0070635209,MAFE4ImagesEEG,001,100098,
AFNE01.JPG,AFNE01.JPG,AFNE01.JPG,AFNE01.JPG,AFNE01.JPG,AFNE01.JPG,,,,,,,,,,,,,,,,,,,,,2,0,20,3,,,AFSA06.jpg,AFNE16.jpg,AFSA10.jpg,AFNE19.jpg,AFSA10.jpg,FS,4,num_2,32,num_8,0.800089678844,,,2017_Mar_22_1503,60.0070635209,MAFE4ImagesEEG,001,100098,
AFNE01.JPG,AFNE01.JPG,AFNE01.JPG,AFNE01.JPG,AFNE01.JPG,AFNE01.JPG,,,,,,,,,,,,,,,,,,,,,2,1,21,1,,,AFNE11.jpg,AFSA20.jpg,AFSA18.jpg,AFNE12.jpg,AFNE11.jpg,FN,3,num_8,16,num_8,0.500161171658,,,2017_Mar_22_1503,60.0070635209,MAFE4ImagesEEG,001,100098,
AFNE01.JPG,AFNE01.JPG,AFNE01.JPG,AFNE01.JPG,AFNE01.JPG,AFNE01.JPG,,,,,,,,,,,,,,,,,,,,,2,2,22,2,,,AFSA06.jpg,AFSA18.jpg,AFNE14.jpg,AFNE17.jpg,AFNE14.jpg,FN,3,num_2,16,num_2,1.16676347662,,,2017_Mar_22_1503,60.0070635209,MAFE4ImagesEEG,001,100098,
AFNE01.JPG,AFNE01.JPG,AFNE01.JPG,AFNE01.JPG,AFNE01.JPG,AFNE01.JPG,,,,,,,,,,,,,,,,,,,,,2,3,23,9,,,AFSA15.jpg,AFSA05.jpg,AFNE04.jpg,AFNE11.jpg,AFNE04.jpg,FN,3,num_2,16,num_2,0.766794973228,,,2017_Mar_22_1503,60.0070635209,MAFE4ImagesEEG,001,100098,
AFNE01.JPG,AFNE01.JPG,AFNE01.JPG,AFNE01.JPG,AFNE01.JPG,AFNE01.JPG,,,,,,,,,,,,,,,,,,,,,2,4,24,4,,,AFNE04.jpg,AFNE16.jpg,AFSA10.jpg,AFSA07.jpg,AFSA10.jpg,FS,4,num_2,32,num_6,0.983512054838,,,2017_Mar_22_1503,60.0070635209,MAFE4ImagesEEG,001,100098,
AFNE01.JPG,AFNE01.JPG,AFNE01.JPG,AFNE01.JPG,AFNE01.JPG,AFNE01.JPG,,,,,,,,,,,,,,,,,,,,,2,5,25,8,,,AFNE13.jpg,AFSA11.jpg,AFNE05.jpg,AFSA16.jpg,AFNE05.jpg,FN,3,num_2,16,num_2,0.566773034632,,,2017_Mar_22_1503,60.0070635209,MAFE4ImagesEEG,001,100098,
AFNE01.JPG,AFNE01.JPG,AFNE01.JPG,AFNE01.JPG,AFNE01.JPG,AFNE01.JPG,,,,,,,,,,,,,,,,,,,,,2,6,26,7,,,AFNE16.jpg,AFNE05.jpg,AFSA11.jpg,AFSA20.jpg,AFSA20.jpg,FS,4,num_4,16,num_4,0.98335842049,,,2017_Mar_22_1503,60.0070635209,MAFE4ImagesEEG,001,100098,
AFNE01.JPG,AFNE01.JPG,AFNE01.JPG,AFNE01.JPG,AFNE01.JPG,AFNE01.JPG,,,,,,,,,,,,,,,,,,,,,2,7,27,5,,,AFNE16.jpg,AFSA18.jpg,AFNE17.jpg,AFSA03.jpg,AFSA18.jpg,FS,4,num_6,16,num_6,0.583544834459,,,2017_Mar_22_1503,60.0070635209,MAFE4ImagesEEG,001,100098,
AFNE01.JPG,AFNE01.JPG,AFNE01.JPG,AFNE01.JPG,AFNE01.JPG,AFNE01.JPG,,,,,,,,,,,,,,,,,,,,,2,8,28,6,,,AFSA10.jpg,AFNE14.jpg,AFSA15.jpg,AFNE12.jpg,AFNE12.jpg,FN,3,num_4,16,num_4,0.616777957999,,,2017_Mar_22_1503,60.0070635209,MAFE4ImagesEEG,001,100098,
AFNE01.JPG,AFNE01.JPG,AFNE01.JPG,AFNE01.JPG,AFNE01.JPG,AFNE01.JPG,,,,,,,,,,,,,,,,,,,,,2,9,29,0,,,AFNE05.jpg,AFSA12.jpg,AFNE19.jpg,AFSA18.jpg,AFSA18.jpg,FS,4,num_4,16,num_4,2.81631333451,,,2017_Mar_22_1503,60.0070635209,MAFE4ImagesEEG,001,100098,
AFNE01.JPG,AFNE01.JPG,AFNE01.JPG,AFNE01.JPG,AFNE01.JPG,AFNE01.JPG,,,,,,,,,,,,,,,,,,,,,3,0,30,2,,,AFSA16.jpg,AFNE19.jpg,AFNE17.jpg,AFSA15.jpg,AFNE19.jpg,FN,3,num_6,16,num_6,0.750138318981,,,2017_Mar_22_1503,60.0070635209,MAFE4ImagesEEG,001,100098,
AFNE01.JPG,AFNE01.JPG,AFNE01.JPG,AFNE01.JPG,AFNE01.JPG,AFNE01.JPG,,,,,,,,,,,,,,,,,,,,,3,1,31,1,,,AFNE06.jpg,AFSA16.jpg,AFNE17.jpg,AFSA14.jpg,AFNE06.jpg,FN,3,num_8,16,num_8,0.999971454148,,,2017_Mar_22_1503,60.0070635209,MAFE4ImagesEEG,001,100098,
AFNE01.JPG,AFNE01.JPG,AFNE01.JPG,AFNE01.JPG,AFNE01.JPG,AFNE01.JPG,,,,,,,,,,,,,,,,,,,,,3,2,32,9,,,AFNE11.jpg,AFSA04.jpg,AFSA02.jpg,AFNE13.jpg,AFNE11.jpg,FN,3,num_8,16,num_8,0.616840822971,,,2017_Mar_22_1503,60.0070635209,MAFE4ImagesEEG,001,100098,
AFNE01.JPG,AFNE01.JPG,AFNE01.JPG,AFNE01.JPG,AFNE01.JPG,AFNE01.JPG,,,,,,,,,,,,,,,,,,,,,3,3,33,7,,,AFSA17.jpg,AFNE19.jpg,AFSA12.jpg,AFNE06.jpg,AFSA12.jpg,FS,4,num_2,16,num_2,0.966694068571,,,2017_Mar_22_1503,60.0070635209,MAFE4ImagesEEG,001,100098,
AFNE01.JPG,AFNE01.JPG,AFNE01.JPG,AFNE01.JPG,AFNE01.JPG,AFNE01.JPG,,,,,,,,,,,,,,,,,,,,,3,4,34,6,,,AFNE03.jpg,AFSA04.jpg,AFNE08.jpg,AFSA13.jpg,AFSA04.jpg,FS,4,num_6,16,num_6,0.916777348612,,,2017_Mar_22_1503,60.0070635209,MAFE4ImagesEEG,001,100098,
AFNE01.JPG,AFNE01.JPG,AFNE01.JPG,AFNE01.JPG,AFNE01.JPG,AFNE01.JPG,,,,,,,,,,,,,,,,,,,,,3,5,35,5,,,AFNE02.jpg,AFSA04.jpg,AFSA13.jpg,AFNE12.jpg,AFSA04.jpg,FS,4,num_6,16,num_6,0.783490757691,,,2017_Mar_22_1503,60.0070635209,MAFE4ImagesEEG,001,100098,
AFNE01.JPG,AFNE01.JPG,AFNE01.JPG,AFNE01.JPG,AFNE01.JPG,AFNE01.JPG,,,,,,,,,,,,,,,,,,,,,3,6,36,8,,,AFNE17.jpg,AFSA06.jpg,AFNE10.jpg,AFSA10.jpg,AFSA06.jpg,FS,4,num_6,16,num_6,0.98343828466,,,2017_Mar_22_1503,60.0070635209,MAFE4ImagesEEG,001,100098,
AFNE01.JPG,AFNE01.JPG,AFNE01.JPG,AFNE01.JPG,AFNE01.JPG,AFNE01.JPG,,,,,,,,,,,,,,,,,,,,,3,7,37,0,,,AFSA17.jpg,AFNE09.jpg,AFNE08.jpg,AFSA14.jpg,AFSA17.jpg,FS,4,num_8,16,num_8,0.900083167828,,,2017_Mar_22_1503,60.0070635209,MAFE4ImagesEEG,001,100098,
AFNE01.JPG,AFNE01.JPG,AFNE01.JPG,AFNE01.JPG,AFNE01.JPG,AFNE01.JPG,,,,,,,,,,,,,,,,,,,,,3,8,38,3,,,AFSA07.jpg,AFNE09.jpg,AFNE02.jpg,AFSA13.jpg,AFNE09.jpg,FN,3,num_6,32,num_8,0.816782576672,,,2017_Mar_22_1503,60.0070635209,MAFE4ImagesEEG,001,100098,
