IPosition2,IPosition3,IPosition1,IPosition6,IPosition4,IPosition5,TrialsF1.thisRepN,TrialsF1.thisTrialN,TrialsF1.thisN,TrialsF1.thisIndex,TrialsM1.thisRepN,TrialsM1.thisTrialN,TrialsM1.thisN,TrialsM1.thisIndex,TrialsF2.thisRepN,TrialsF2.thisTrialN,TrialsF2.thisN,TrialsF2.thisIndex,TrialsM2.thisRepN,TrialsM2.thisTrialN,TrialsM2.thisN,TrialsM2.thisIndex,TrialsF3.thisRepN,TrialsF3.thisTrialN,TrialsF3.thisN,TrialsF3.thisIndex,TrialsM3.thisRepN,TrialsM3.thisTrialN,TrialsM3.thisN,TrialsM3.thisIndex,InstrKey_resp.keys,InstrKey_resp.rt,Image0 _Position,Image1 _Position,Image2 _Position,Image3 _Position,Center_image,condition,code,correct_answer,accuracy,Key_Resp.keys,Key_Resp.rt,BreakKey_resp.keys,BreakKey_resp.rt,date,frameRate,expName,session,participant,
,,,,,,,,,,,,,,,,,,,,,,,,,,,,,,space,16.099261015,,,,,,,,,,,,,,2017_Mar_14_1737,60.015784565,FEMA4ImagesEEG,001,100076,
AFNE23.JPG,AFNE24.JPG,AFNE22.JPG,AFSA24.JPG,AFSA22.JPG,AFSA23.JPG,0,0,0,8,,,,,,,,,,,,,,,,,,,,,,,AFSA18.jpg,AFNE11.jpg,AFNE15.jpg,AFSA14.jpg,AFNE15.jpg,FN,3,num_2,32,num_8,2.53333001904,,,2017_Mar_14_1737,60.015784565,FEMA4ImagesEEG,001,100076,
AMNE22.JPG,AMSA24.JPG,AMSA22.JPG,AMNE25.JPG,AMNE24.JPG,AMSA25.JPG,0,1,1,7,,,,,,,,,,,,,,,,,,,,,,,AFSA14.jpg,AFNE15.jpg,AFSA05.jpg,AFNE19.jpg,AFNE15.jpg,FN,3,num_6,16,num_6,3.8333345094,,,2017_Mar_14_1737,60.015784565,FEMA4ImagesEEG,001,100076,
AMNE23.JPG,AMNE24.JPG,AMNE22.JPG,AMSA24.JPG,AMSA22.JPG,AMSA23.JPG,0,2,2,9,,,,,,,,,,,,,,,,,,,,,,,AFNE05.jpg,AFSA18.jpg,AFNE13.jpg,AFSA07.jpg,AFNE13.jpg,FN,3,num_2,32,num_8,2.41695207183,,,2017_Mar_14_1737,60.015784565,FEMA4ImagesEEG,001,100076,
AFSA25.JPG,AFNE24.JPG,AFSA24.JPG,AFNE21.JPG,AFSA21.JPG,AFNE25.JPG,0,3,3,2,,,,,,,,,,,,,,,,,,,,,,,AFNE08.jpg,AFNE19.jpg,AFSA08.jpg,AFSA03.jpg,AFSA08.jpg,FS,4,num_2,16,num_2,1.90001058439,,,2017_Mar_14_1737,60.015784565,FEMA4ImagesEEG,001,100076,
AMSA21.JPG,AMNE23.JPG,AMNE21.JPG,AMSA25.JPG,AMNE25.JPG,AMSA23.JPG,0,4,4,5,,,,,,,,,,,,,,,,,,,,,,,AFSA03.jpg,AFNE01.jpg,AFNE18.jpg,AFSA18.jpg,AFNE01.jpg,FN,3,num_6,32,num_8,2.15003383806,,,2017_Mar_14_1737,60.015784565,FEMA4ImagesEEG,001,100076,
AMSA21.JPG,AMNE22.JPG,AMNE21.JPG,AMSA23.JPG,AMSA22.JPG,AMNE23.JPG,0,5,5,1,,,,,,,,,,,,,,,,,,,,,,,AFNE16.jpg,AFNE01.jpg,AFSA04.jpg,AFSA11.jpg,AFNE16.jpg,FN,3,num_8,16,num_8,0.850058214273,,,2017_Mar_14_1737,60.015784565,FEMA4ImagesEEG,001,100076,
AFSA21.JPG,AFNE23.JPG,AFNE21.JPG,AFSA25.JPG,AFNE25.JPG,AFSA23.JPG,0,6,6,4,,,,,,,,,,,,,,,,,,,,,,,AFSA05.jpg,AFNE01.jpg,AFNE10.jpg,AFSA07.jpg,AFSA05.jpg,FS,4,num_8,32,num_4,1.05007842096,,,2017_Mar_14_1737,60.015784565,FEMA4ImagesEEG,001,100076,
AMSA25.JPG,AMNE24.JPG,AMSA24.JPG,AMNE26.JPG,AMSA21.JPG,AMNE25.JPG,0,7,7,3,,,,,,,,,,,,,,,,,,,,,,,AFSA14.jpg,AFSA06.jpg,AFNE10.jpg,AFNE16.jpg,AFNE10.jpg,FN,3,num_2,32,num_6,1.75009670312,,,2017_Mar_14_1737,60.015784565,FEMA4ImagesEEG,001,100076,
AFNE22.JPG,AFSA24.JPG,AFSA22.JPG,AFNE25.JPG,AFNE24.JPG,AFSA25.JPG,0,8,8,6,,,,,,,,,,,,,,,,,,,,,,,AFNE07.jpg,AFNE10.jpg,AFSA20.jpg,AFSA09.jpg,AFNE10.jpg,FN,3,num_6,16,num_6,1.18339047849,,,2017_Mar_14_1737,60.015784565,FEMA4ImagesEEG,001,100076,
AFSA21.JPG,AFNE22.JPG,AFNE21.JPG,AFSA23.JPG,AFSA22.JPG,AFNE23.JPG,0,9,9,0,,,,,,,,,,,,,,,,,,,,,,,AFSA16.jpg,AFNE18.jpg,AFNE11.jpg,AFSA10.jpg,AFNE11.jpg,FN,3,num_2,16,num_2,2.48341998656,,,2017_Mar_14_1737,60.015784565,FEMA4ImagesEEG,001,100076,
AMSA21.JPG,AMNE23.JPG,AMNE21.JPG,AMSA25.JPG,AMNE25.JPG,AMSA23.JPG,,,,,0,0,0,5,,,,,,,,,,,,,,,,,,,AMNE18.jpg,AMSA14.jpg,AMSA10.jpg,AMNE17.jpg,AMNE18.jpg,MN,1,num_8,16,num_8,0.833530802222,,,2017_Mar_14_1737,60.015784565,FEMA4ImagesEEG,001,100076,
AFSA21.JPG,AFNE23.JPG,AFNE21.JPG,AFSA25.JPG,AFNE25.JPG,AFSA23.JPG,,,,,0,1,1,4,,,,,,,,,,,,,,,,,,,AMNE06.jpg,AMSA20.jpg,AMSA04.jpg,AMNE18.jpg,AMSA04.jpg,MS,2,num_2,32,num_6,1.36672001641,,,2017_Mar_14_1737,60.015784565,FEMA4ImagesEEG,001,100076,
AFNE22.JPG,AFSA24.JPG,AFSA22.JPG,AFNE25.JPG,AFNE24.JPG,AFSA25.JPG,,,,,0,2,2,6,,,,,,,,,,,,,,,,,,,AMSA02.jpg,AMSA10.jpg,AMNE12.jpg,AMNE16.jpg,AMSA10.jpg,MS,2,num_6,32,num_8,1.5833831015,,,2017_Mar_14_1737,60.015784565,FEMA4ImagesEEG,001,100076,
AMNE22.JPG,AMSA24.JPG,AMSA22.JPG,AMNE25.JPG,AMNE24.JPG,AMSA25.JPG,,,,,0,3,3,7,,,,,,,,,,,,,,,,,,,AMNE05.jpg,AMSA10.jpg,AMSA08.jpg,AMNE07.jpg,AMSA10.jpg,MS,2,num_6,16,num_6,1.03344195726,,,2017_Mar_14_1737,60.015784565,FEMA4ImagesEEG,001,100076,
AFNE23.JPG,AFNE24.JPG,AFNE22.JPG,AFSA24.JPG,AFSA22.JPG,AFSA23.JPG,,,,,0,4,4,8,,,,,,,,,,,,,,,,,,,AMSA07.jpg,AMNE01.jpg,AMSA10.jpg,AMNE16.jpg,AMSA07.jpg,MS,2,num_8,16,num_8,1.38344853249,,,2017_Mar_14_1737,60.015784565,FEMA4ImagesEEG,001,100076,
AFSA25.JPG,AFNE24.JPG,AFSA24.JPG,AFNE21.JPG,AFSA21.JPG,AFNE25.JPG,,,,,0,5,5,2,,,,,,,,,,,,,,,,,,,AMNE10.jpg,AMSA01.jpg,AMSA20.jpg,AMNE06.jpg,AMNE10.jpg,MN,1,num_8,16,num_8,0.983434419904,,,2017_Mar_14_1737,60.015784565,FEMA4ImagesEEG,001,100076,
AFSA21.JPG,AFNE22.JPG,AFNE21.JPG,AFSA23.JPG,AFSA22.JPG,AFNE23.JPG,,,,,0,6,6,0,,,,,,,,,,,,,,,,,,,AMSA06.jpg,AMNE07.jpg,AMSA08.jpg,AMNE19.jpg,AMNE19.jpg,MN,1,num_4,32,num_2,2.28337187559,,,2017_Mar_14_1737,60.015784565,FEMA4ImagesEEG,001,100076,
AMNE23.JPG,AMNE24.JPG,AMNE22.JPG,AMSA24.JPG,AMSA22.JPG,AMSA23.JPG,,,,,0,7,7,9,,,,,,,,,,,,,,,,,,,AMNE18.jpg,AMNE14.jpg,AMSA18.jpg,AMSA10.jpg,AMSA10.jpg,MS,2,num_4,32,num_8,1.28341325111,,,2017_Mar_14_1737,60.015784565,FEMA4ImagesEEG,001,100076,
AMSA25.JPG,AMNE24.JPG,AMSA24.JPG,AMNE26.JPG,AMSA21.JPG,AMNE25.JPG,,,,,0,8,8,3,,,,,,,,,,,,,,,,,,,AMNE09.jpg,AMSA16.jpg,AMSA08.jpg,AMNE07.jpg,AMSA08.jpg,MS,2,num_2,16,num_2,2.0500389699,,,2017_Mar_14_1737,60.015784565,FEMA4ImagesEEG,001,100076,
AMSA21.JPG,AMNE22.JPG,AMNE21.JPG,AMSA23.JPG,AMSA22.JPG,AMNE23.JPG,,,,,0,9,9,1,,,,,,,,,,,,,,,,,,,AMNE13.jpg,AMSA08.jpg,AMSA16.jpg,AMNE15.jpg,AMNE15.jpg,MN,1,num_4,16,num_4,0.983439872507,,,2017_Mar_14_1737,60.015784565,FEMA4ImagesEEG,001,100076,
AFSA25.JPG,AFNE24.JPG,AFSA24.JPG,AFNE21.JPG,AFSA21.JPG,AFNE25.JPG,,,,,,,,,0,0,0,2,,,,,,,,,,,,,,,AFNE06.jpg,AFNE02.jpg,AFSA03.jpg,AFSA20.jpg,AFSA20.jpg,FS,4,num_4,32,num_6,1.18346745614,,,2017_Mar_14_1737,60.015784565,FEMA4ImagesEEG,001,100076,
AMSA21.JPG,AMNE23.JPG,AMNE21.JPG,AMSA25.JPG,AMNE25.JPG,AMSA23.JPG,,,,,,,,,0,1,1,5,,,,,,,,,,,,,,,AFSA16.jpg,AFSA17.jpg,AFNE01.jpg,AFNE08.jpg,AFNE01.jpg,FN,3,num_2,16,num_2,1.13311223651,,,2017_Mar_14_1737,60.015784565,FEMA4ImagesEEG,001,100076,
AMSA21.JPG,AMNE22.JPG,AMNE21.JPG,AMSA23.JPG,AMSA22.JPG,AMNE23.JPG,,,,,,,,,0,2,2,1,,,,,,,,,,,,,,,AFSA14.jpg,AFNE16.jpg,AFSA01.jpg,AFNE10.jpg,AFSA01.jpg,FS,4,num_2,32,num_8,1.20011065528,,,2017_Mar_14_1737,60.015784565,FEMA4ImagesEEG,001,100076,
AMNE23.JPG,AMNE24.JPG,AMNE22.JPG,AMSA24.JPG,AMSA22.JPG,AMSA23.JPG,,,,,,,,,0,3,3,9,,,,,,,,,,,,,,,AFNE19.jpg,AFSA20.jpg,AFNE15.jpg,AFSA15.jpg,AFSA20.jpg,FS,4,num_6,16,num_6,1.53345029656,,,2017_Mar_14_1737,60.015784565,FEMA4ImagesEEG,001,100076,
AFNE22.JPG,AFSA24.JPG,AFSA22.JPG,AFNE25.JPG,AFNE24.JPG,AFSA25.JPG,,,,,,,,,0,4,4,6,,,,,,,,,,,,,,,AFNE10.jpg,AFSA07.jpg,AFNE16.jpg,AFSA06.jpg,AFSA06.jpg,FS,4,num_4,16,num_4,1.03345061722,,,2017_Mar_14_1737,60.015784565,FEMA4ImagesEEG,001,100076,
AFSA21.JPG,AFNE23.JPG,AFNE21.JPG,AFSA25.JPG,AFNE25.JPG,AFSA23.JPG,,,,,,,,,0,5,5,4,,,,,,,,,,,,,,,AFNE16.jpg,AFSA08.jpg,AFSA09.jpg,AFNE08.jpg,AFNE16.jpg,FN,3,num_8,16,num_8,0.845571061596,,,2017_Mar_14_1737,60.015784565,FEMA4ImagesEEG,001,100076,
AFSA21.JPG,AFNE22.JPG,AFNE21.JPG,AFSA23.JPG,AFSA22.JPG,AFNE23.JPG,,,,,,,,,0,6,6,0,,,,,,,,,,,,,,,AFNE06.jpg,AFSA03.jpg,AFSA13.jpg,AFNE07.jpg,AFNE07.jpg,FN,3,num_4,32,num_8,1.0834450043,,,2017_Mar_14_1737,60.015784565,FEMA4ImagesEEG,001,100076,
AMSA25.JPG,AMNE24.JPG,AMSA24.JPG,AMNE26.JPG,AMSA21.JPG,AMNE25.JPG,,,,,,,,,0,7,7,3,,,,,,,,,,,,,,,AFNE13.jpg,AFNE05.jpg,AFSA17.jpg,AFSA08.jpg,AFSA08.jpg,FS,4,num_4,32,num_6,0.916748401884,,,2017_Mar_14_1737,60.015784565,FEMA4ImagesEEG,001,100076,
AFNE23.JPG,AFNE24.JPG,AFNE22.JPG,AFSA24.JPG,AFSA22.JPG,AFSA23.JPG,,,,,,,,,0,8,8,8,,,,,,,,,,,,,,,AFNE17.jpg,AFSA03.jpg,AFNE01.jpg,AFSA14.jpg,AFNE01.jpg,FN,3,num_2,32,num_6,1.30035153101,,,2017_Mar_14_1737,60.015784565,FEMA4ImagesEEG,001,100076,
AMNE22.JPG,AMSA24.JPG,AMSA22.JPG,AMNE25.JPG,AMNE24.JPG,AMSA25.JPG,,,,,,,,,0,9,9,7,,,,,,,,,,,,,,,AFSA07.jpg,AFNE09.jpg,AFSA01.jpg,AFNE14.jpg,AFNE09.jpg,FN,3,num_6,16,num_6,1.00012220192,,,2017_Mar_14_1737,60.015784565,FEMA4ImagesEEG,001,100076,
AFSA25.JPG,AFNE24.JPG,AFSA24.JPG,AFNE21.JPG,AFSA21.JPG,AFNE25.JPG,,,,,,,,,,,,,0,0,0,2,,,,,,,,,,,AMNE10.jpg,AMNE11.jpg,AMSA05.jpg,AMSA15.jpg,AMSA05.jpg,MS,2,num_2,32,num_4,0.866737336386,,,2017_Mar_14_1737,60.015784565,FEMA4ImagesEEG,001,100076,
AMSA21.JPG,AMNE22.JPG,AMNE21.JPG,AMSA23.JPG,AMSA22.JPG,AMNE23.JPG,,,,,,,,,,,,,0,1,1,1,,,,,,,,,,,AMSA20.jpg,AMSA01.jpg,AMNE13.jpg,AMNE15.jpg,AMSA01.jpg,MS,2,num_6,32,num_2,1.66671296017,,,2017_Mar_14_1737,60.015784565,FEMA4ImagesEEG,001,100076,
AFSA21.JPG,AFNE22.JPG,AFNE21.JPG,AFSA23.JPG,AFSA22.JPG,AFNE23.JPG,,,,,,,,,,,,,0,2,2,0,,,,,,,,,,,AMSA06.jpg,AMNE11.jpg,AMSA17.jpg,AMNE12.jpg,AMSA17.jpg,MS,2,num_2,16,num_2,1.2165909186,,,2017_Mar_14_1737,60.015784565,FEMA4ImagesEEG,001,100076,
AMNE23.JPG,AMNE24.JPG,AMNE22.JPG,AMSA24.JPG,AMSA22.JPG,AMSA23.JPG,,,,,,,,,,,,,0,3,3,9,,,,,,,,,,,AMNE03.jpg,AMNE16.jpg,AMSA10.jpg,AMSA01.jpg,AMNE03.jpg,MN,1,num_8,32,num_4,0.833435863256,,,2017_Mar_14_1737,60.015784565,FEMA4ImagesEEG,001,100076,
AMSA21.JPG,AMNE23.JPG,AMNE21.JPG,AMSA25.JPG,AMNE25.JPG,AMSA23.JPG,,,,,,,,,,,,,0,4,4,5,,,,,,,,,,,AMSA10.jpg,AMNE14.jpg,AMNE18.jpg,AMSA18.jpg,AMSA10.jpg,MS,2,num_8,32,num_6,0.800156200363,,,2017_Mar_14_1737,60.015784565,FEMA4ImagesEEG,001,100076,
AFNE22.JPG,AFSA24.JPG,AFSA22.JPG,AFNE25.JPG,AFNE24.JPG,AFSA25.JPG,,,,,,,,,,,,,0,5,5,6,,,,,,,,,,,AMNE13.jpg,AMSA01.jpg,AMSA13.jpg,AMNE01.jpg,AMNE13.jpg,MN,1,num_8,32,num_2,1.08347355021,,,2017_Mar_14_1737,60.015784565,FEMA4ImagesEEG,001,100076,
AFNE23.JPG,AFNE24.JPG,AFNE22.JPG,AFSA24.JPG,AFSA22.JPG,AFSA23.JPG,,,,,,,,,,,,,0,6,6,8,,,,,,,,,,,AMSA15.jpg,AMSA02.jpg,AMNE04.jpg,AMNE17.jpg,AMNE17.jpg,MN,1,num_4,32,num_8,3.64992414502,,,2017_Mar_14_1737,60.015784565,FEMA4ImagesEEG,001,100076,
AMSA25.JPG,AMNE24.JPG,AMSA24.JPG,AMNE26.JPG,AMSA21.JPG,AMNE25.JPG,,,,,,,,,,,,,0,7,7,3,,,,,,,,,,,AMNE09.jpg,AMSA02.jpg,AMNE18.jpg,AMSA12.jpg,AMNE18.jpg,MN,1,num_2,16,num_2,0.666809823597,,,2017_Mar_14_1737,60.015784565,FEMA4ImagesEEG,001,100076,
AMNE22.JPG,AMSA24.JPG,AMSA22.JPG,AMNE25.JPG,AMNE24.JPG,AMSA25.JPG,,,,,,,,,,,,,0,8,8,7,,,,,,,,,,,AMSA06.jpg,AMSA13.jpg,AMNE14.jpg,AMNE15.jpg,AMSA06.jpg,MS,2,num_8,32,num_2,0.816720176779,,,2017_Mar_14_1737,60.015784565,FEMA4ImagesEEG,001,100076,
AFSA21.JPG,AFNE23.JPG,AFNE21.JPG,AFSA25.JPG,AFNE25.JPG,AFSA23.JPG,,,,,,,,,,,,,0,9,9,4,,,,,,,,,,,AMSA16.jpg,AMNE06.jpg,AMSA03.jpg,AMNE02.jpg,AMSA16.jpg,MS,2,num_8,32,num_2,1.65006174246,,,2017_Mar_14_1737,60.015784565,FEMA4ImagesEEG,001,100076,
AMNE22.JPG,AMSA24.JPG,AMSA22.JPG,AMNE25.JPG,AMNE24.JPG,AMSA25.JPG,,,,,,,,,,,,,,,,,0,0,0,7,,,,,,,AFNE18.jpg,AFNE06.jpg,AFSA11.jpg,AFSA14.jpg,AFNE18.jpg,FN,3,num_8,16,num_8,1.48344757024,,,2017_Mar_14_1737,60.015784565,FEMA4ImagesEEG,001,100076,
AMNE23.JPG,AMNE24.JPG,AMNE22.JPG,AMSA24.JPG,AMSA22.JPG,AMSA23.JPG,,,,,,,,,,,,,,,,,0,1,1,9,,,,,,,AFNE10.jpg,AFSA12.jpg,AFNE19.jpg,AFSA02.jpg,AFSA02.jpg,FS,4,num_4,16,num_4,0.850090609048,,,2017_Mar_14_1737,60.015784565,FEMA4ImagesEEG,001,100076,
AMSA21.JPG,AMNE23.JPG,AMNE21.JPG,AMSA25.JPG,AMNE25.JPG,AMSA23.JPG,,,,,,,,,,,,,,,,,0,2,2,5,,,,,,,AFNE05.jpg,AFNE03.jpg,AFSA06.jpg,AFSA15.jpg,AFSA15.jpg,FS,4,num_4,32,num_6,1.20009814639,,,2017_Mar_14_1737,60.015784565,FEMA4ImagesEEG,001,100076,
AFSA25.JPG,AFNE24.JPG,AFSA24.JPG,AFNE21.JPG,AFSA21.JPG,AFNE25.JPG,,,,,,,,,,,,,,,,,0,3,3,2,,,,,,,AFSA12.jpg,AFNE05.jpg,AFNE13.jpg,AFSA10.jpg,AFSA12.jpg,FS,4,num_8,32,num_2,1.3001026368,,,2017_Mar_14_1737,60.015784565,FEMA4ImagesEEG,001,100076,
AMSA25.JPG,AMNE24.JPG,AMSA24.JPG,AMNE26.JPG,AMSA21.JPG,AMNE25.JPG,,,,,,,,,,,,,,,,,0,4,4,3,,,,,,,AFNE16.jpg,AFSA18.jpg,AFSA08.jpg,AFNE04.jpg,AFNE04.jpg,FN,3,num_4,32,num_6,0.733474031265,,,2017_Mar_14_1737,60.015784565,FEMA4ImagesEEG,001,100076,
AFNE22.JPG,AFSA24.JPG,AFSA22.JPG,AFNE25.JPG,AFNE24.JPG,AFSA25.JPG,,,,,,,,,,,,,,,,,0,5,5,6,,,,,,,AFSA03.jpg,AFNE07.jpg,AFNE19.jpg,AFSA11.jpg,AFNE19.jpg,FN,3,num_2,32,num_4,1.05018201994,,,2017_Mar_14_1737,60.015784565,FEMA4ImagesEEG,001,100076,
AMSA21.JPG,AMNE22.JPG,AMNE21.JPG,AMSA23.JPG,AMSA22.JPG,AMNE23.JPG,,,,,,,,,,,,,,,,,0,6,6,1,,,,,,,AFSA10.jpg,AFSA14.jpg,AFNE16.jpg,AFNE12.jpg,AFNE16.jpg,FN,3,num_2,32,num_6,1.4830899451,,,2017_Mar_14_1737,60.015784565,FEMA4ImagesEEG,001,100076,
AFNE23.JPG,AFNE24.JPG,AFNE22.JPG,AFSA24.JPG,AFSA22.JPG,AFSA23.JPG,,,,,,,,,,,,,,,,,0,7,7,8,,,,,,,AFNE11.jpg,AFNE01.jpg,AFSA17.jpg,AFSA16.jpg,AFNE01.jpg,FN,3,num_6,32,num_8,1.43337492261,,,2017_Mar_14_1737,60.015784565,FEMA4ImagesEEG,001,100076,
AFSA21.JPG,AFNE22.JPG,AFNE21.JPG,AFSA23.JPG,AFSA22.JPG,AFNE23.JPG,,,,,,,,,,,,,,,,,0,8,8,0,,,,,,,AFNE19.jpg,AFSA11.jpg,AFSA20.jpg,AFNE15.jpg,AFNE19.jpg,FN,3,num_8,32,num_2,1.33341309067,,,2017_Mar_14_1737,60.015784565,FEMA4ImagesEEG,001,100076,
AFSA21.JPG,AFNE23.JPG,AFNE21.JPG,AFSA25.JPG,AFNE25.JPG,AFSA23.JPG,,,,,,,,,,,,,,,,,0,9,9,4,,,,,,,AFSA02.jpg,AFNE02.jpg,AFSA10.jpg,AFNE12.jpg,AFSA02.jpg,FS,4,num_8,16,num_8,0.833441636583,,,2017_Mar_14_1737,60.015784565,FEMA4ImagesEEG,001,100076,
AMSA21.JPG,AMNE22.JPG,AMNE21.JPG,AMSA23.JPG,AMSA22.JPG,AMNE23.JPG,,,,,,,,,,,,,,,,,,,,,0,0,0,1,,,AMSA14.jpg,AMSA10.jpg,AMNE17.jpg,AMNE06.jpg,AMNE17.jpg,MN,1,num_2,32,num_6,0.716776947782,,,2017_Mar_14_1737,60.015784565,FEMA4ImagesEEG,001,100076,
AFSA25.JPG,AFNE24.JPG,AFSA24.JPG,AFNE21.JPG,AFSA21.JPG,AFNE25.JPG,,,,,,,,,,,,,,,,,,,,,0,1,1,2,,,AMSA20.jpg,AMSA12.jpg,AMNE14.jpg,AMNE02.jpg,AMSA20.jpg,MS,2,num_8,32,num_4,0.850226282084,,,2017_Mar_14_1737,60.015784565,FEMA4ImagesEEG,001,100076,
AFSA21.JPG,AFNE23.JPG,AFNE21.JPG,AFSA25.JPG,AFNE25.JPG,AFSA23.JPG,,,,,,,,,,,,,,,,,,,,,0,2,2,4,,,AMNE12.jpg,AMSA03.jpg,AMSA12.jpg,AMNE10.jpg,AMNE10.jpg,MN,1,num_4,32,num_8,1.11670574354,,,2017_Mar_14_1737,60.015784565,FEMA4ImagesEEG,001,100076,
AFNE23.JPG,AFNE24.JPG,AFNE22.JPG,AFSA24.JPG,AFSA22.JPG,AFSA23.JPG,,,,,,,,,,,,,,,,,,,,,0,3,3,8,,,AMNE16.jpg,AMNE08.jpg,AMSA01.jpg,AMSA03.jpg,AMSA01.jpg,MS,2,num_2,32,num_4,1.08344436286,,,2017_Mar_14_1737,60.015784565,FEMA4ImagesEEG,001,100076,
AMSA25.JPG,AMNE24.JPG,AMSA24.JPG,AMNE26.JPG,AMSA21.JPG,AMNE25.JPG,,,,,,,,,,,,,,,,,,,,,0,4,4,3,,,AMSA12.jpg,AMNE17.jpg,AMSA03.jpg,AMNE09.jpg,AMSA12.jpg,MS,2,num_8,16,num_8,1.20009942941,,,2017_Mar_14_1737,60.015784565,FEMA4ImagesEEG,001,100076,
AMNE23.JPG,AMNE24.JPG,AMNE22.JPG,AMSA24.JPG,AMSA22.JPG,AMSA23.JPG,,,,,,,,,,,,,,,,,,,,,0,5,5,9,,,AMNE06.jpg,AMNE04.jpg,AMSA11.jpg,AMSA15.jpg,AMNE04.jpg,MN,1,num_6,16,num_6,1.05005564837,,,2017_Mar_14_1737,60.015784565,FEMA4ImagesEEG,001,100076,
AMSA21.JPG,AMNE23.JPG,AMNE21.JPG,AMSA25.JPG,AMNE25.JPG,AMSA23.JPG,,,,,,,,,,,,,,,,,,,,,0,6,6,5,,,AMNE16.jpg,AMSA18.jpg,AMSA03.jpg,AMNE11.jpg,AMSA18.jpg,MS,2,num_6,16,num_6,0.533529519336,,,2017_Mar_14_1737,60.015784565,FEMA4ImagesEEG,001,100076,
AMNE22.JPG,AMSA24.JPG,AMSA22.JPG,AMNE25.JPG,AMNE24.JPG,AMSA25.JPG,,,,,,,,,,,,,,,,,,,,,0,7,7,7,,,AMSA11.jpg,AMNE11.jpg,AMNE14.jpg,AMSA18.jpg,AMNE11.jpg,MN,1,num_6,32,num_2,1.89976169018,,,2017_Mar_14_1737,60.015784565,FEMA4ImagesEEG,001,100076,
AFNE22.JPG,AFSA24.JPG,AFSA22.JPG,AFNE25.JPG,AFNE24.JPG,AFSA25.JPG,,,,,,,,,,,,,,,,,,,,,0,8,8,6,,,AMSA01.jpg,AMSA11.jpg,AMNE18.jpg,AMNE06.jpg,AMNE06.jpg,MN,1,num_4,32,num_8,1.11662587919,,,2017_Mar_14_1737,60.015784565,FEMA4ImagesEEG,001,100076,
AFSA21.JPG,AFNE22.JPG,AFNE21.JPG,AFSA23.JPG,AFSA22.JPG,AFNE23.JPG,,,,,,,,,,,,,,,,,,,,,0,9,9,0,,,AMSA02.jpg,AMNE04.jpg,AMNE01.jpg,AMSA08.jpg,AMNE04.jpg,MN,1,num_6,32,num_2,1.23352182156,,,2017_Mar_14_1737,60.015784565,FEMA4ImagesEEG,001,100076,
,,,,,,,,,,,,,,,,,,,,,,,,,,,,,,,,,,,,,,,,,,,space,12.2828503523,2017_Mar_14_1737,60.015784565,FEMA4ImagesEEG,001,100076,
AFNE01.JPG,AFNE01.JPG,AFNE01.JPG,AFNE01.JPG,AFNE01.JPG,AFNE01.JPG,0,0,0,0,,,,,,,,,,,,,,,,,,,,,,,AFNE19.jpg,AFSA05.jpg,AFNE12.jpg,AFSA10.jpg,AFNE19.jpg,FN,3,num_8,16,num_8,1.50010167458,,,2017_Mar_14_1737,60.015784565,FEMA4ImagesEEG,001,100076,
AFNE01.JPG,AFNE01.JPG,AFNE01.JPG,AFNE01.JPG,AFNE01.JPG,AFNE01.JPG,0,1,1,3,,,,,,,,,,,,,,,,,,,,,,,AFNE17.jpg,AFSA15.jpg,AFSA02.jpg,AFNE12.jpg,AFNE17.jpg,FN,3,num_8,32,num_6,1.38345943764,,,2017_Mar_14_1737,60.015784565,FEMA4ImagesEEG,001,100076,
AFNE01.JPG,AFNE01.JPG,AFNE01.JPG,AFNE01.JPG,AFNE01.JPG,AFNE01.JPG,0,2,2,6,,,,,,,,,,,,,,,,,,,,,,,AFNE03.jpg,AFSA09.jpg,AFSA02.jpg,AFNE19.jpg,AFNE19.jpg,FN,3,num_4,16,num_4,0.900147861103,,,2017_Mar_14_1737,60.015784565,FEMA4ImagesEEG,001,100076,
AFNE01.JPG,AFNE01.JPG,AFNE01.JPG,AFNE01.JPG,AFNE01.JPG,AFNE01.JPG,0,3,3,9,,,,,,,,,,,,,,,,,,,,,,,AFNE04.jpg,AFSA02.jpg,AFSA08.jpg,AFNE20.jpg,AFSA02.jpg,FS,4,num_6,32,num_2,1.10008371313,,,2017_Mar_14_1737,60.015784565,FEMA4ImagesEEG,001,100076,
AFNE01.JPG,AFNE01.JPG,AFNE01.JPG,AFNE01.JPG,AFNE01.JPG,AFNE01.JPG,0,4,4,1,,,,,,,,,,,,,,,,,,,,,,,AFSA12.jpg,AFSA06.jpg,AFNE19.jpg,AFNE15.jpg,AFNE15.jpg,FN,3,num_4,16,num_4,0.566783522896,,,2017_Mar_14_1737,60.015784565,FEMA4ImagesEEG,001,100076,
AFNE01.JPG,AFNE01.JPG,AFNE01.JPG,AFNE01.JPG,AFNE01.JPG,AFNE01.JPG,0,5,5,5,,,,,,,,,,,,,,,,,,,,,,,AFNE18.jpg,AFNE11.jpg,AFSA02.jpg,AFSA04.jpg,AFNE11.jpg,FN,3,num_6,16,num_6,0.683473550191,,,2017_Mar_14_1737,60.015784565,FEMA4ImagesEEG,001,100076,
AFNE01.JPG,AFNE01.JPG,AFNE01.JPG,AFNE01.JPG,AFNE01.JPG,AFNE01.JPG,0,6,6,7,,,,,,,,,,,,,,,,,,,,,,,AFSA03.jpg,AFNE17.jpg,AFSA13.jpg,AFNE12.jpg,AFSA03.jpg,FS,4,num_8,32,num_6,0.766661641712,,,2017_Mar_14_1737,60.015784565,FEMA4ImagesEEG,001,100076,
AFNE01.JPG,AFNE01.JPG,AFNE01.JPG,AFNE01.JPG,AFNE01.JPG,AFNE01.JPG,0,7,7,4,,,,,,,,,,,,,,,,,,,,,,,AFNE07.jpg,AFSA03.jpg,AFSA17.jpg,AFNE05.jpg,AFNE05.jpg,FN,3,num_4,32,num_8,0.900112259027,,,2017_Mar_14_1737,60.015784565,FEMA4ImagesEEG,001,100076,
AFNE01.JPG,AFNE01.JPG,AFNE01.JPG,AFNE01.JPG,AFNE01.JPG,AFNE01.JPG,0,8,8,8,,,,,,,,,,,,,,,,,,,,,,,AFSA15.jpg,AFNE11.jpg,AFSA14.jpg,AFNE13.jpg,AFSA15.jpg,FS,4,num_8,16,num_8,0.66679378663,,,2017_Mar_14_1737,60.015784565,FEMA4ImagesEEG,001,100076,
AFNE01.JPG,AFNE01.JPG,AFNE01.JPG,AFNE01.JPG,AFNE01.JPG,AFNE01.JPG,0,9,9,2,,,,,,,,,,,,,,,,,,,,,,,AFSA12.jpg,AFNE09.jpg,AFNE01.jpg,AFSA02.jpg,AFSA02.jpg,FS,4,num_4,16,num_4,1.28342575993,,,2017_Mar_14_1737,60.015784565,FEMA4ImagesEEG,001,100076,
AFNE01.JPG,AFNE01.JPG,AFNE01.JPG,AFNE01.JPG,AFNE01.JPG,AFNE01.JPG,1,0,10,6,,,,,,,,,,,,,,,,,,,,,,,AFSA16.jpg,AFSA19.jpg,AFNE07.jpg,AFNE04.jpg,AFSA16.jpg,FS,4,num_8,16,num_8,0.733452220971,,,2017_Mar_14_1737,60.015784565,FEMA4ImagesEEG,001,100076,
AFNE01.JPG,AFNE01.JPG,AFNE01.JPG,AFNE01.JPG,AFNE01.JPG,AFNE01.JPG,1,1,11,5,,,,,,,,,,,,,,,,,,,,,,,AFNE16.jpg,AFNE19.jpg,AFSA04.jpg,AFSA16.jpg,AFNE19.jpg,FN,3,num_6,32,num_8,0.933140782407,,,2017_Mar_14_1737,60.015784565,FEMA4ImagesEEG,001,100076,
AFNE01.JPG,AFNE01.JPG,AFNE01.JPG,AFNE01.JPG,AFNE01.JPG,AFNE01.JPG,1,2,12,0,,,,,,,,,,,,,,,,,,,,,,,AFSA19.jpg,AFNE08.jpg,AFSA08.jpg,AFNE14.jpg,AFNE14.jpg,FN,3,num_4,16,num_4,0.483470984269,,,2017_Mar_14_1737,60.015784565,FEMA4ImagesEEG,001,100076,
AFNE01.JPG,AFNE01.JPG,AFNE01.JPG,AFNE01.JPG,AFNE01.JPG,AFNE01.JPG,1,3,13,8,,,,,,,,,,,,,,,,,,,,,,,AFSA11.jpg,AFNE05.jpg,AFSA04.jpg,AFNE20.jpg,AFNE20.jpg,FN,3,num_4,32,num_6,0.86679955991,,,2017_Mar_14_1737,60.015784565,FEMA4ImagesEEG,001,100076,
AFNE01.JPG,AFNE01.JPG,AFNE01.JPG,AFNE01.JPG,AFNE01.JPG,AFNE01.JPG,1,4,14,1,,,,,,,,,,,,,,,,,,,,,,,AFSA05.jpg,AFNE12.jpg,AFSA03.jpg,AFNE07.jpg,AFNE12.jpg,FN,3,num_6,32,num_2,0.983451098378,,,2017_Mar_14_1737,60.015784565,FEMA4ImagesEEG,001,100076,
AFNE01.JPG,AFNE01.JPG,AFNE01.JPG,AFNE01.JPG,AFNE01.JPG,AFNE01.JPG,1,5,15,7,,,,,,,,,,,,,,,,,,,,,,,AFNE13.jpg,AFSA18.jpg,AFSA19.jpg,AFNE12.jpg,AFSA18.jpg,FS,4,num_6,16,num_6,0.883487983432,,,2017_Mar_14_1737,60.015784565,FEMA4ImagesEEG,001,100076,
AFNE01.JPG,AFNE01.JPG,AFNE01.JPG,AFNE01.JPG,AFNE01.JPG,AFNE01.JPG,1,6,16,2,,,,,,,,,,,,,,,,,,,,,,,AFSA16.jpg,AFNE12.jpg,AFNE07.jpg,AFSA17.jpg,AFSA16.jpg,FS,4,num_8,32,num_4,0.733445806138,,,2017_Mar_14_1737,60.015784565,FEMA4ImagesEEG,001,100076,
AFNE01.JPG,AFNE01.JPG,AFNE01.JPG,AFNE01.JPG,AFNE01.JPG,AFNE01.JPG,1,7,17,9,,,,,,,,,,,,,,,,,,,,,,,AFNE19.jpg,AFSA02.jpg,AFNE09.jpg,AFSA08.jpg,AFNE09.jpg,FN,3,num_2,16,num_2,1.66669596091,,,2017_Mar_14_1737,60.015784565,FEMA4ImagesEEG,001,100076,
AFNE01.JPG,AFNE01.JPG,AFNE01.JPG,AFNE01.JPG,AFNE01.JPG,AFNE01.JPG,1,8,18,4,,,,,,,,,,,,,,,,,,,,,,,AFNE09.jpg,AFNE14.jpg,AFSA05.jpg,AFSA04.jpg,AFNE14.jpg,FN,3,num_6,32,num_8,4.08348702127,,,2017_Mar_14_1737,60.015784565,FEMA4ImagesEEG,001,100076,
AFNE01.JPG,AFNE01.JPG,AFNE01.JPG,AFNE01.JPG,AFNE01.JPG,AFNE01.JPG,1,9,19,3,,,,,,,,,,,,,,,,,,,,,,,AFNE13.jpg,AFNE01.jpg,AFSA13.jpg,AFSA17.jpg,AFSA17.jpg,FS,4,num_4,16,num_4,1.83338518633,,,2017_Mar_14_1737,60.015784565,FEMA4ImagesEEG,001,100076,
AFNE01.JPG,AFNE01.JPG,AFNE01.JPG,AFNE01.JPG,AFNE01.JPG,AFNE01.JPG,2,0,20,0,,,,,,,,,,,,,,,,,,,,,,,AFSA08.jpg,AFSA02.jpg,AFNE08.jpg,AFNE14.jpg,AFSA02.jpg,FS,4,num_6,16,num_6,0.900106164918,,,2017_Mar_14_1737,60.015784565,FEMA4ImagesEEG,001,100076,
AFNE01.JPG,AFNE01.JPG,AFNE01.JPG,AFNE01.JPG,AFNE01.JPG,AFNE01.JPG,2,1,21,8,,,,,,,,,,,,,,,,,,,,,,,AFNE20.jpg,AFSA07.jpg,AFSA03.jpg,AFNE18.jpg,AFSA07.jpg,FS,4,num_6,32,num_8,1.13342175068,,,2017_Mar_14_1737,60.015784565,FEMA4ImagesEEG,001,100076,
AFNE01.JPG,AFNE01.JPG,AFNE01.JPG,AFNE01.JPG,AFNE01.JPG,AFNE01.JPG,2,2,22,7,,,,,,,,,,,,,,,,,,,,,,,AFSA09.jpg,AFSA19.jpg,AFNE04.jpg,AFNE02.jpg,AFNE04.jpg,FN,3,num_2,16,num_2,1.31683532248,,,2017_Mar_14_1737,60.015784565,FEMA4ImagesEEG,001,100076,
AFNE01.JPG,AFNE01.JPG,AFNE01.JPG,AFNE01.JPG,AFNE01.JPG,AFNE01.JPG,2,3,23,2,,,,,,,,,,,,,,,,,,,,,,,AFNE16.jpg,AFSA05.jpg,AFNE11.jpg,AFSA17.jpg,AFNE16.jpg,FN,3,num_8,16,num_8,0.716870283126,,,2017_Mar_14_1737,60.015784565,FEMA4ImagesEEG,001,100076,
AFNE01.JPG,AFNE01.JPG,AFNE01.JPG,AFNE01.JPG,AFNE01.JPG,AFNE01.JPG,2,4,24,5,,,,,,,,,,,,,,,,,,,,,,,AFSA09.jpg,AFNE10.jpg,AFNE09.jpg,AFSA16.jpg,AFSA16.jpg,FS,4,num_4,16,num_4,0.450170152588,,,2017_Mar_14_1737,60.015784565,FEMA4ImagesEEG,001,100076,
AFNE01.JPG,AFNE01.JPG,AFNE01.JPG,AFNE01.JPG,AFNE01.JPG,AFNE01.JPG,2,5,25,4,,,,,,,,,,,,,,,,,,,,,,,AFNE14.jpg,AFSA01.jpg,AFSA17.jpg,AFNE07.jpg,AFSA17.jpg,FS,4,num_2,32,num_6,0.800118353043,,,2017_Mar_14_1737,60.015784565,FEMA4ImagesEEG,001,100076,
AFNE01.JPG,AFNE01.JPG,AFNE01.JPG,AFNE01.JPG,AFNE01.JPG,AFNE01.JPG,2,6,26,9,,,,,,,,,,,,,,,,,,,,,,,AFSA13.jpg,AFSA17.jpg,AFNE12.jpg,AFNE15.jpg,AFNE12.jpg,FN,3,num_2,16,num_2,2.19999486813,,,2017_Mar_14_1737,60.015784565,FEMA4ImagesEEG,001,100076,
AFNE01.JPG,AFNE01.JPG,AFNE01.JPG,AFNE01.JPG,AFNE01.JPG,AFNE01.JPG,2,7,27,1,,,,,,,,,,,,,,,,,,,,,,,AFSA10.jpg,AFSA01.jpg,AFNE18.jpg,AFNE13.jpg,AFNE13.jpg,FN,3,num_4,32,num_8,0.883458475408,,,2017_Mar_14_1737,60.015784565,FEMA4ImagesEEG,001,100076,
AFNE01.JPG,AFNE01.JPG,AFNE01.JPG,AFNE01.JPG,AFNE01.JPG,AFNE01.JPG,2,8,28,6,,,,,,,,,,,,,,,,,,,,,,,AFNE16.jpg,AFNE02.jpg,AFSA11.jpg,AFSA20.jpg,AFSA20.jpg,FS,4,num_4,32,num_6,1.03354715998,,,2017_Mar_14_1737,60.015784565,FEMA4ImagesEEG,001,100076,
AFNE01.JPG,AFNE01.JPG,AFNE01.JPG,AFNE01.JPG,AFNE01.JPG,AFNE01.JPG,2,9,29,3,,,,,,,,,,,,,,,,,,,,,,,AFNE13.jpg,AFSA15.jpg,AFSA19.jpg,AFNE17.jpg,AFSA15.jpg,FS,4,num_6,16,num_6,0.633476276475,,,2017_Mar_14_1737,60.015784565,FEMA4ImagesEEG,001,100076,
AFNE01.JPG,AFNE01.JPG,AFNE01.JPG,AFNE01.JPG,AFNE01.JPG,AFNE01.JPG,3,0,30,7,,,,,,,,,,,,,,,,,,,,,,,AFNE14.jpg,AFSA16.jpg,AFSA05.jpg,AFNE09.jpg,AFSA05.jpg,FS,4,num_2,32,num_6,0.833482691261,,,2017_Mar_14_1737,60.015784565,FEMA4ImagesEEG,001,100076,
AFNE01.JPG,AFNE01.JPG,AFNE01.JPG,AFNE01.JPG,AFNE01.JPG,AFNE01.JPG,3,1,31,8,,,,,,,,,,,,,,,,,,,,,,,AFSA16.jpg,AFSA19.jpg,AFNE18.jpg,AFNE17.jpg,AFNE18.jpg,FN,3,num_2,32,num_6,0.81677630631,,,2017_Mar_14_1737,60.015784565,FEMA4ImagesEEG,001,100076,
AFNE01.JPG,AFNE01.JPG,AFNE01.JPG,AFNE01.JPG,AFNE01.JPG,AFNE01.JPG,3,2,32,0,,,,,,,,,,,,,,,,,,,,,,,AFSA07.jpg,AFSA01.jpg,AFNE14.jpg,AFNE08.jpg,AFSA07.jpg,FS,4,num_8,16,num_8,0.76674086455,,,2017_Mar_14_1737,60.015784565,FEMA4ImagesEEG,001,100076,
AFNE01.JPG,AFNE01.JPG,AFNE01.JPG,AFNE01.JPG,AFNE01.JPG,AFNE01.JPG,3,3,33,6,,,,,,,,,,,,,,,,,,,,,,,AFSA07.jpg,AFNE07.jpg,AFNE01.jpg,AFSA01.jpg,AFNE01.jpg,FN,3,num_2,32,num_6,1.38345045689,,,2017_Mar_14_1737,60.015784565,FEMA4ImagesEEG,001,100076,
AFNE01.JPG,AFNE01.JPG,AFNE01.JPG,AFNE01.JPG,AFNE01.JPG,AFNE01.JPG,3,4,34,2,,,,,,,,,,,,,,,,,,,,,,,AFNE20.jpg,AFNE11.jpg,AFSA06.jpg,AFSA08.jpg,AFSA06.jpg,FS,4,num_2,32,num_6,1.10009654274,,,2017_Mar_14_1737,60.015784565,FEMA4ImagesEEG,001,100076,
AFNE01.JPG,AFNE01.JPG,AFNE01.JPG,AFNE01.JPG,AFNE01.JPG,AFNE01.JPG,3,5,35,1,,,,,,,,,,,,,,,,,,,,,,,AFNE11.jpg,AFSA14.jpg,AFNE16.jpg,AFSA03.jpg,AFNE11.jpg,FN,3,num_8,32,num_2,1.30017993512,,,2017_Mar_14_1737,60.015784565,FEMA4ImagesEEG,001,100076,
AFNE01.JPG,AFNE01.JPG,AFNE01.JPG,AFNE01.JPG,AFNE01.JPG,AFNE01.JPG,3,6,36,3,,,,,,,,,,,,,,,,,,,,,,,AFNE13.jpg,AFSA04.jpg,AFNE06.jpg,AFSA19.jpg,AFNE13.jpg,FN,3,num_8,32,num_2,1.61673332716,,,2017_Mar_14_1737,60.015784565,FEMA4ImagesEEG,001,100076,
AFNE01.JPG,AFNE01.JPG,AFNE01.JPG,AFNE01.JPG,AFNE01.JPG,AFNE01.JPG,3,7,37,4,,,,,,,,,,,,,,,,,,,,,,,AFSA17.jpg,AFNE10.jpg,AFSA01.jpg,AFNE11.jpg,AFSA17.jpg,FS,4,num_8,32,num_4,1.0335128408,,,2017_Mar_14_1737,60.015784565,FEMA4ImagesEEG,001,100076,
AFNE01.JPG,AFNE01.JPG,AFNE01.JPG,AFNE01.JPG,AFNE01.JPG,AFNE01.JPG,3,8,38,9,,,,,,,,,,,,,,,,,,,,,,,AFNE07.jpg,AFSA06.jpg,AFSA11.jpg,AFNE04.jpg,AFNE04.jpg,FN,3,num_4,16,num_4,1.48340555327,,,2017_Mar_14_1737,60.015784565,FEMA4ImagesEEG,001,100076,
AFNE01.JPG,AFNE01.JPG,AFNE01.JPG,AFNE01.JPG,AFNE01.JPG,AFNE01.JPG,3,9,39,5,,,,,,,,,,,,,,,,,,,,,,,AFSA13.jpg,AFSA07.jpg,AFNE12.jpg,AFNE20.jpg,AFNE12.jpg,FN,3,num_2,16,num_2,1.5168106255,,,2017_Mar_14_1737,60.015784565,FEMA4ImagesEEG,001,100076,
AFNE01.JPG,AFNE01.JPG,AFNE01.JPG,AFNE01.JPG,AFNE01.JPG,AFNE01.JPG,4,0,40,7,,,,,,,,,,,,,,,,,,,,,,,AFNE15.jpg,AFNE10.jpg,AFSA06.jpg,AFSA02.jpg,AFNE10.jpg,FN,3,num_6,16,num_6,1.01674647751,,,2017_Mar_14_1737,60.015784565,FEMA4ImagesEEG,001,100076,
AFNE01.JPG,AFNE01.JPG,AFNE01.JPG,AFNE01.JPG,AFNE01.JPG,AFNE01.JPG,4,1,41,5,,,,,,,,,,,,,,,,,,,,,,,AFNE16.jpg,AFNE13.jpg,AFSA09.jpg,AFSA17.jpg,AFNE13.jpg,FN,3,num_6,32,num_8,1.79999711335,,,2017_Mar_14_1737,60.015784565,FEMA4ImagesEEG,001,100076,
AFNE01.JPG,AFNE01.JPG,AFNE01.JPG,AFNE01.JPG,AFNE01.JPG,AFNE01.JPG,4,2,42,3,,,,,,,,,,,,,,,,,,,,,,,AFSA07.jpg,AFNE18.jpg,AFSA12.jpg,AFNE17.jpg,AFSA07.jpg,FS,4,num_8,32,num_6,0.533335792308,,,2017_Mar_14_1737,60.015784565,FEMA4ImagesEEG,001,100076,
AFNE01.JPG,AFNE01.JPG,AFNE01.JPG,AFNE01.JPG,AFNE01.JPG,AFNE01.JPG,4,3,43,2,,,,,,,,,,,,,,,,,,,,,,,AFNE18.jpg,AFNE14.jpg,AFSA10.jpg,AFSA06.jpg,AFSA10.jpg,FS,4,num_2,32,num_8,1.21679330553,,,2017_Mar_14_1737,60.015784565,FEMA4ImagesEEG,001,100076,
AFNE01.JPG,AFNE01.JPG,AFNE01.JPG,AFNE01.JPG,AFNE01.JPG,AFNE01.JPG,4,4,44,8,,,,,,,,,,,,,,,,,,,,,,,AFNE09.jpg,AFNE12.jpg,AFSA10.jpg,AFSA07.jpg,AFNE12.jpg,FN,3,num_6,16,num_6,0.566799239197,,,2017_Mar_14_1737,60.015784565,FEMA4ImagesEEG,001,100076,
AFNE01.JPG,AFNE01.JPG,AFNE01.JPG,AFNE01.JPG,AFNE01.JPG,AFNE01.JPG,4,5,45,0,,,,,,,,,,,,,,,,,,,,,,,AFSA12.jpg,AFNE01.jpg,AFSA04.jpg,AFNE08.jpg,AFSA04.jpg,FS,4,num_2,16,num_2,1.61670638499,,,2017_Mar_14_1737,60.015784565,FEMA4ImagesEEG,001,100076,
AFNE01.JPG,AFNE01.JPG,AFNE01.JPG,AFNE01.JPG,AFNE01.JPG,AFNE01.JPG,4,6,46,1,,,,,,,,,,,,,,,,,,,,,,,AFSA10.jpg,AFNE04.jpg,AFSA18.jpg,AFNE13.jpg,AFSA18.jpg,FS,4,num_2,32,num_8,2.86663213366,,,2017_Mar_14_1737,60.015784565,FEMA4ImagesEEG,001,100076,
AFNE01.JPG,AFNE01.JPG,AFNE01.JPG,AFNE01.JPG,AFNE01.JPG,AFNE01.JPG,4,7,47,9,,,,,,,,,,,,,,,,,,,,,,,AFSA10.jpg,AFNE19.jpg,AFSA11.jpg,AFNE13.jpg,AFSA10.jpg,FS,4,num_8,16,num_8,1.13342656178,,,2017_Mar_14_1737,60.015784565,FEMA4ImagesEEG,001,100076,
AFNE01.JPG,AFNE01.JPG,AFNE01.JPG,AFNE01.JPG,AFNE01.JPG,AFNE01.JPG,4,8,48,4,,,,,,,,,,,,,,,,,,,,,,,AFSA20.jpg,AFNE06.jpg,AFSA05.jpg,AFNE20.jpg,AFNE06.jpg,FN,3,num_6,32,num_4,1.75005051657,,,2017_Mar_14_1737,60.015784565,FEMA4ImagesEEG,001,100076,
AFNE01.JPG,AFNE01.JPG,AFNE01.JPG,AFNE01.JPG,AFNE01.JPG,AFNE01.JPG,4,9,49,6,,,,,,,,,,,,,,,,,,,,,,,AFNE16.jpg,AFSA20.jpg,AFSA09.jpg,AFNE10.jpg,AFSA09.jpg,FS,4,num_2,16,num_2,1.50005933695,,,2017_Mar_14_1737,60.015784565,FEMA4ImagesEEG,001,100076,
AFNE01.JPG,AFNE01.JPG,AFNE01.JPG,AFNE01.JPG,AFNE01.JPG,AFNE01.JPG,5,0,50,0,,,,,,,,,,,,,,,,,,,,,,,AFSA08.jpg,AFNE15.jpg,AFNE13.jpg,AFSA07.jpg,AFNE13.jpg,FN,3,num_2,32,num_8,0.933421429887,,,2017_Mar_14_1737,60.015784565,FEMA4ImagesEEG,001,100076,
AFNE01.JPG,AFNE01.JPG,AFNE01.JPG,AFNE01.JPG,AFNE01.JPG,AFNE01.JPG,5,1,51,3,,,,,,,,,,,,,,,,,,,,,,,AFSA20.jpg,AFNE16.jpg,AFSA15.jpg,AFNE13.jpg,AFSA15.jpg,FS,4,num_2,16,num_2,1.36672899715,,,2017_Mar_14_1737,60.015784565,FEMA4ImagesEEG,001,100076,
AFNE01.JPG,AFNE01.JPG,AFNE01.JPG,AFNE01.JPG,AFNE01.JPG,AFNE01.JPG,5,2,52,6,,,,,,,,,,,,,,,,,,,,,,,AFNE05.jpg,AFNE13.jpg,AFSA02.jpg,AFSA08.jpg,AFSA08.jpg,FS,4,num_4,32,num_8,1.39995349274,,,2017_Mar_14_1737,60.015784565,FEMA4ImagesEEG,001,100076,
AFNE01.JPG,AFNE01.JPG,AFNE01.JPG,AFNE01.JPG,AFNE01.JPG,AFNE01.JPG,5,3,53,2,,,,,,,,,,,,,,,,,,,,,,,AFNE13.jpg,AFSA03.jpg,AFSA04.jpg,AFNE11.jpg,AFNE13.jpg,FN,3,num_8,32,num_6,0.683424156217,,,2017_Mar_14_1737,60.015784565,FEMA4ImagesEEG,001,100076,
AFNE01.JPG,AFNE01.JPG,AFNE01.JPG,AFNE01.JPG,AFNE01.JPG,AFNE01.JPG,5,4,54,4,,,,,,,,,,,,,,,,,,,,,,,AFSA17.jpg,AFSA15.jpg,AFNE03.jpg,AFNE01.jpg,AFSA17.jpg,FS,4,num_8,16,num_8,1.53339897812,,,2017_Mar_14_1737,60.015784565,FEMA4ImagesEEG,001,100076,
AFNE01.JPG,AFNE01.JPG,AFNE01.JPG,AFNE01.JPG,AFNE01.JPG,AFNE01.JPG,5,5,55,1,,,,,,,,,,,,,,,,,,,,,,,AFNE17.jpg,AFSA08.jpg,AFSA17.jpg,AFNE04.jpg,AFSA17.jpg,FS,4,num_2,16,num_2,1.86678384372,,,2017_Mar_14_1737,60.015784565,FEMA4ImagesEEG,001,100076,
AFNE01.JPG,AFNE01.JPG,AFNE01.JPG,AFNE01.JPG,AFNE01.JPG,AFNE01.JPG,5,6,56,7,,,,,,,,,,,,,,,,,,,,,,,AFSA15.jpg,AFNE16.jpg,AFSA09.jpg,AFNE06.jpg,AFNE16.jpg,FN,3,num_6,16,num_6,0.866764920007,,,2017_Mar_14_1737,60.015784565,FEMA4ImagesEEG,001,100076,
AFNE01.JPG,AFNE01.JPG,AFNE01.JPG,AFNE01.JPG,AFNE01.JPG,AFNE01.JPG,5,7,57,8,,,,,,,,,,,,,,,,,,,,,,,AFSA13.jpg,AFNE16.jpg,AFSA05.jpg,AFNE19.jpg,AFNE19.jpg,FN,3,num_4,16,num_4,1.11675353377,,,2017_Mar_14_1737,60.015784565,FEMA4ImagesEEG,001,100076,
AFNE01.JPG,AFNE01.JPG,AFNE01.JPG,AFNE01.JPG,AFNE01.JPG,AFNE01.JPG,5,8,58,5,,,,,,,,,,,,,,,,,,,,,,,AFSA09.jpg,AFSA17.jpg,AFNE06.jpg,AFNE13.jpg,AFSA17.jpg,FS,4,num_6,16,num_6,1.66663951072,,,2017_Mar_14_1737,60.015784565,FEMA4ImagesEEG,001,100076,
AFNE01.JPG,AFNE01.JPG,AFNE01.JPG,AFNE01.JPG,AFNE01.JPG,AFNE01.JPG,5,9,59,9,,,,,,,,,,,,,,,,,,,,,,,AFNE02.jpg,AFNE17.jpg,AFSA18.jpg,AFSA20.jpg,AFNE17.jpg,FN,3,num_6,32,num_8,0.766843501362,,,2017_Mar_14_1737,60.015784565,FEMA4ImagesEEG,001,100076,
,,,,,,,,,,,,,,,,,,,,,,,,,,,,,,,,,,,,,,,,,,,space,21.382162365,2017_Mar_14_1737,60.015784565,FEMA4ImagesEEG,001,100076,
AFNE01.JPG,AFNE01.JPG,AFNE01.JPG,AFNE01.JPG,AFNE01.JPG,AFNE01.JPG,,,,,0,0,0,8,,,,,,,,,,,,,,,,,,,AMNE02.jpg,AMSA09.jpg,AMSA10.jpg,AMNE12.jpg,AMSA09.jpg,MS,2,num_6,32,num_8,1.06687461305,,,2017_Mar_14_1737,60.015784565,FEMA4ImagesEEG,001,100076,
AFNE01.JPG,AFNE01.JPG,AFNE01.JPG,AFNE01.JPG,AFNE01.JPG,AFNE01.JPG,,,,,0,1,1,4,,,,,,,,,,,,,,,,,,,AMNE18.jpg,AMNE15.jpg,AMSA19.jpg,AMSA16.jpg,AMSA16.jpg,MS,2,num_4,16,num_4,1.1834488532,,,2017_Mar_14_1737,60.015784565,FEMA4ImagesEEG,001,100076,
AFNE01.JPG,AFNE01.JPG,AFNE01.JPG,AFNE01.JPG,AFNE01.JPG,AFNE01.JPG,,,,,0,2,2,9,,,,,,,,,,,,,,,,,,,AMSA14.jpg,AMNE05.jpg,AMSA07.jpg,AMNE10.jpg,AMSA07.jpg,MS,2,num_2,16,num_2,1.41672627087,,,2017_Mar_14_1737,60.015784565,FEMA4ImagesEEG,001,100076,
AFNE01.JPG,AFNE01.JPG,AFNE01.JPG,AFNE01.JPG,AFNE01.JPG,AFNE01.JPG,,,,,0,3,3,0,,,,,,,,,,,,,,,,,,,AMSA11.jpg,AMNE03.jpg,AMNE06.jpg,AMSA15.jpg,AMNE06.jpg,MN,1,num_2,32,num_8,1.60009141092,,,2017_Mar_14_1737,60.015784565,FEMA4ImagesEEG,001,100076,
AFNE01.JPG,AFNE01.JPG,AFNE01.JPG,AFNE01.JPG,AFNE01.JPG,AFNE01.JPG,,,,,0,4,4,1,,,,,,,,,,,,,,,,,,,AMSA11.jpg,AMNE14.jpg,AMNE19.jpg,AMSA14.jpg,AMSA14.jpg,MS,2,num_4,16,num_4,1.1834331369,,,2017_Mar_14_1737,60.015784565,FEMA4ImagesEEG,001,100076,
AFNE01.JPG,AFNE01.JPG,AFNE01.JPG,AFNE01.JPG,AFNE01.JPG,AFNE01.JPG,,,,,0,5,5,6,,,,,,,,,,,,,,,,,,,AMNE08.jpg,AMSA13.jpg,AMSA14.jpg,AMNE17.jpg,AMNE08.jpg,MN,1,num_8,16,num_8,0.483522944094,,,2017_Mar_14_1737,60.015784565,FEMA4ImagesEEG,001,100076,
AFNE01.JPG,AFNE01.JPG,AFNE01.JPG,AFNE01.JPG,AFNE01.JPG,AFNE01.JPG,,,,,0,6,6,5,,,,,,,,,,,,,,,,,,,AMNE13.jpg,AMSA03.jpg,AMNE02.jpg,AMSA05.jpg,AMNE13.jpg,MN,1,num_8,16,num_8,0.833466012788,,,2017_Mar_14_1737,60.015784565,FEMA4ImagesEEG,001,100076,
AFNE01.JPG,AFNE01.JPG,AFNE01.JPG,AFNE01.JPG,AFNE01.JPG,AFNE01.JPG,,,,,0,7,7,2,,,,,,,,,,,,,,,,,,,AMSA09.jpg,AMNE16.jpg,AMSA02.jpg,AMNE13.jpg,AMNE16.jpg,MN,1,num_6,32,num_8,0.733753716573,,,2017_Mar_14_1737,60.015784565,FEMA4ImagesEEG,001,100076,
AFNE01.JPG,AFNE01.JPG,AFNE01.JPG,AFNE01.JPG,AFNE01.JPG,AFNE01.JPG,,,,,0,8,8,7,,,,,,,,,,,,,,,,,,,AMSA19.jpg,AMNE16.jpg,AMSA17.jpg,AMNE13.jpg,AMNE16.jpg,MN,1,num_6,16,num_6,0.633488143852,,,2017_Mar_14_1737,60.015784565,FEMA4ImagesEEG,001,100076,
AFNE01.JPG,AFNE01.JPG,AFNE01.JPG,AFNE01.JPG,AFNE01.JPG,AFNE01.JPG,,,,,0,9,9,3,,,,,,,,,,,,,,,,,,,AMSA13.jpg,AMNE18.jpg,AMNE06.jpg,AMSA15.jpg,AMSA13.jpg,MS,2,num_8,32,num_4,1.16671199794,,,2017_Mar_14_1737,60.015784565,FEMA4ImagesEEG,001,100076,
AFNE01.JPG,AFNE01.JPG,AFNE01.JPG,AFNE01.JPG,AFNE01.JPG,AFNE01.JPG,,,,,1,0,10,4,,,,,,,,,,,,,,,,,,,AMNE11.jpg,AMSA10.jpg,AMSA02.jpg,AMNE13.jpg,AMNE11.jpg,MN,1,num_8,16,num_8,2.01674423227,,,2017_Mar_14_1737,60.015784565,FEMA4ImagesEEG,001,100076,
AFNE01.JPG,AFNE01.JPG,AFNE01.JPG,AFNE01.JPG,AFNE01.JPG,AFNE01.JPG,,,,,1,1,11,5,,,,,,,,,,,,,,,,,,,AMSA13.jpg,AMNE16.jpg,AMNE06.jpg,AMSA19.jpg,AMNE16.jpg,MN,1,num_6,32,num_8,0.849972576718,,,2017_Mar_14_1737,60.015784565,FEMA4ImagesEEG,001,100076,
AFNE01.JPG,AFNE01.JPG,AFNE01.JPG,AFNE01.JPG,AFNE01.JPG,AFNE01.JPG,,,,,1,2,12,6,,,,,,,,,,,,,,,,,,,AMSA18.jpg,AMNE05.jpg,AMNE02.jpg,AMSA01.jpg,AMNE02.jpg,MN,1,num_2,16,num_2,1.56671456381,,,2017_Mar_14_1737,60.015784565,FEMA4ImagesEEG,001,100076,
AFNE01.JPG,AFNE01.JPG,AFNE01.JPG,AFNE01.JPG,AFNE01.JPG,AFNE01.JPG,,,,,1,3,13,0,,,,,,,,,,,,,,,,,,,AMNE12.jpg,AMSA03.jpg,AMSA04.jpg,AMNE03.jpg,AMNE12.jpg,MN,1,num_8,32,num_6,1.65003640397,,,2017_Mar_14_1737,60.015784565,FEMA4ImagesEEG,001,100076,
AFNE01.JPG,AFNE01.JPG,AFNE01.JPG,AFNE01.JPG,AFNE01.JPG,AFNE01.JPG,,,,,1,4,14,2,,,,,,,,,,,,,,,,,,,AMSA10.jpg,AMNE11.jpg,AMSA02.jpg,AMNE01.jpg,AMNE01.jpg,MN,1,num_4,16,num_4,2.28330035054,,,2017_Mar_14_1737,60.015784565,FEMA4ImagesEEG,001,100076,
AFNE01.JPG,AFNE01.JPG,AFNE01.JPG,AFNE01.JPG,AFNE01.JPG,AFNE01.JPG,,,,,1,5,15,7,,,,,,,,,,,,,,,,,,,AMNE07.jpg,AMSA10.jpg,AMSA06.jpg,AMNE18.jpg,AMNE07.jpg,MN,1,num_8,16,num_8,1.53339673294,,,2017_Mar_14_1737,60.015784565,FEMA4ImagesEEG,001,100076,
AFNE01.JPG,AFNE01.JPG,AFNE01.JPG,AFNE01.JPG,AFNE01.JPG,AFNE01.JPG,,,,,1,6,16,9,,,,,,,,,,,,,,,,,,,AMNE13.jpg,AMSA18.jpg,AMSA12.jpg,AMNE08.jpg,AMSA12.jpg,MS,2,num_2,32,num_4,0.933453183156,,,2017_Mar_14_1737,60.015784565,FEMA4ImagesEEG,001,100076,
AFNE01.JPG,AFNE01.JPG,AFNE01.JPG,AFNE01.JPG,AFNE01.JPG,AFNE01.JPG,,,,,1,7,17,3,,,,,,,,,,,,,,,,,,,AMSA10.jpg,AMNE08.jpg,AMNE10.jpg,AMSA08.jpg,AMNE10.jpg,MN,1,num_2,16,num_2,1.25008355273,,,2017_Mar_14_1737,60.015784565,FEMA4ImagesEEG,001,100076,
AFNE01.JPG,AFNE01.JPG,AFNE01.JPG,AFNE01.JPG,AFNE01.JPG,AFNE01.JPG,,,,,1,8,18,1,,,,,,,,,,,,,,,,,,,AMNE04.jpg,AMSA10.jpg,AMSA18.jpg,AMNE19.jpg,AMSA18.jpg,MS,2,num_2,16,num_2,0.583473550156,,,2017_Mar_14_1737,60.015784565,FEMA4ImagesEEG,001,100076,
AFNE01.JPG,AFNE01.JPG,AFNE01.JPG,AFNE01.JPG,AFNE01.JPG,AFNE01.JPG,,,,,1,9,19,8,,,,,,,,,,,,,,,,,,,AMNE19.jpg,AMSA15.jpg,AMNE13.jpg,AMSA06.jpg,AMSA06.jpg,MS,2,num_4,32,num_8,1.35006911948,,,2017_Mar_14_1737,60.015784565,FEMA4ImagesEEG,001,100076,
AFNE01.JPG,AFNE01.JPG,AFNE01.JPG,AFNE01.JPG,AFNE01.JPG,AFNE01.JPG,,,,,2,0,20,7,,,,,,,,,,,,,,,,,,,AMNE19.jpg,AMSA03.jpg,AMNE18.jpg,AMSA08.jpg,AMSA08.jpg,MS,2,num_4,16,num_4,0.666784164438,,,2017_Mar_14_1737,60.015784565,FEMA4ImagesEEG,001,100076,
AFNE01.JPG,AFNE01.JPG,AFNE01.JPG,AFNE01.JPG,AFNE01.JPG,AFNE01.JPG,,,,,2,1,21,2,,,,,,,,,,,,,,,,,,,AMNE18.jpg,AMSA01.jpg,AMSA17.jpg,AMNE06.jpg,AMNE18.jpg,MN,1,num_8,16,num_8,1.05007360986,,,2017_Mar_14_1737,60.015784565,FEMA4ImagesEEG,001,100076,
AFNE01.JPG,AFNE01.JPG,AFNE01.JPG,AFNE01.JPG,AFNE01.JPG,AFNE01.JPG,,,,,2,2,22,5,,,,,,,,,,,,,,,,,,,AMNE12.jpg,AMSA02.jpg,AMNE11.jpg,AMSA01.jpg,AMNE12.jpg,MN,1,num_8,32,num_6,0.58349022863,,,2017_Mar_14_1737,60.015784565,FEMA4ImagesEEG,001,100076,
AFNE01.JPG,AFNE01.JPG,AFNE01.JPG,AFNE01.JPG,AFNE01.JPG,AFNE01.JPG,,,,,2,3,23,4,,,,,,,,,,,,,,,,,,,AMNE01.jpg,AMNE04.jpg,AMSA16.jpg,AMSA07.jpg,AMNE04.jpg,MN,1,num_6,16,num_6,1.41669836646,,,2017_Mar_14_1737,60.015784565,FEMA4ImagesEEG,001,100076,
AFNE01.JPG,AFNE01.JPG,AFNE01.JPG,AFNE01.JPG,AFNE01.JPG,AFNE01.JPG,,,,,2,4,24,3,,,,,,,,,,,,,,,,,,,AMSA15.jpg,AMNE11.jpg,AMSA05.jpg,AMNE20.jpg,AMSA15.jpg,MS,2,num_8,32,num_4,2.68347194645,,,2017_Mar_14_1737,60.015784565,FEMA4ImagesEEG,001,100076,
AFNE01.JPG,AFNE01.JPG,AFNE01.JPG,AFNE01.JPG,AFNE01.JPG,AFNE01.JPG,,,,,2,5,25,8,,,,,,,,,,,,,,,,,,,AMSA02.jpg,AMNE02.jpg,AMNE17.jpg,AMSA09.jpg,AMSA02.jpg,MS,2,num_8,32,num_4,0.950092212763,,,2017_Mar_14_1737,60.015784565,FEMA4ImagesEEG,001,100076,
AFNE01.JPG,AFNE01.JPG,AFNE01.JPG,AFNE01.JPG,AFNE01.JPG,AFNE01.JPG,,,,,2,6,26,9,,,,,,,,,,,,,,,,,,,AMSA12.jpg,AMSA16.jpg,AMNE19.jpg,AMNE08.jpg,AMNE08.jpg,MN,1,num_4,32,num_8,2.36674150603,,,2017_Mar_14_1737,60.015784565,FEMA4ImagesEEG,001,100076,
AFNE01.JPG,AFNE01.JPG,AFNE01.JPG,AFNE01.JPG,AFNE01.JPG,AFNE01.JPG,,,,,2,7,27,1,,,,,,,,,,,,,,,,,,,AMNE10.jpg,AMNE04.jpg,AMSA08.jpg,AMSA12.jpg,AMSA12.jpg,MS,2,num_4,16,num_4,0.766699489031,,,2017_Mar_14_1737,60.015784565,FEMA4ImagesEEG,001,100076,
AFNE01.JPG,AFNE01.JPG,AFNE01.JPG,AFNE01.JPG,AFNE01.JPG,AFNE01.JPG,,,,,2,8,28,6,,,,,,,,,,,,,,,,,,,AMNE18.jpg,AMSA10.jpg,AMSA09.jpg,AMNE06.jpg,AMNE06.jpg,MN,1,num_4,16,num_4,4.79985502549,,,2017_Mar_14_1737,60.015784565,FEMA4ImagesEEG,001,100076,
AFNE01.JPG,AFNE01.JPG,AFNE01.JPG,AFNE01.JPG,AFNE01.JPG,AFNE01.JPG,,,,,2,9,29,0,,,,,,,,,,,,,,,,,,,AMSA19.jpg,AMNE09.jpg,AMNE03.jpg,AMSA13.jpg,AMNE03.jpg,MN,1,num_2,32,num_8,1.16681399324,,,2017_Mar_14_1737,60.015784565,FEMA4ImagesEEG,001,100076,
AFNE01.JPG,AFNE01.JPG,AFNE01.JPG,AFNE01.JPG,AFNE01.JPG,AFNE01.JPG,,,,,3,0,30,8,,,,,,,,,,,,,,,,,,,AMSA06.jpg,AMSA12.jpg,AMNE11.jpg,AMNE12.jpg,AMSA12.jpg,MS,2,num_6,16,num_6,0.600230291369,,,2017_Mar_14_1737,60.015784565,FEMA4ImagesEEG,001,100076,
AFNE01.JPG,AFNE01.JPG,AFNE01.JPG,AFNE01.JPG,AFNE01.JPG,AFNE01.JPG,,,,,3,1,31,7,,,,,,,,,,,,,,,,,,,AMNE19.jpg,AMSA03.jpg,AMNE17.jpg,AMSA04.jpg,AMNE17.jpg,MN,1,num_2,16,num_2,1.53338005446,,,2017_Mar_14_1737,60.015784565,FEMA4ImagesEEG,001,100076,
AFNE01.JPG,AFNE01.JPG,AFNE01.JPG,AFNE01.JPG,AFNE01.JPG,AFNE01.JPG,,,,,3,2,32,9,,,,,,,,,,,,,,,,,,,AMSA18.jpg,AMNE07.jpg,AMSA16.jpg,AMNE20.jpg,AMSA16.jpg,MS,2,num_2,32,num_8,0.733451579465,,,2017_Mar_14_1737,60.015784565,FEMA4ImagesEEG,001,100076,
AFNE01.JPG,AFNE01.JPG,AFNE01.JPG,AFNE01.JPG,AFNE01.JPG,AFNE01.JPG,,,,,3,3,33,0,,,,,,,,,,,,,,,,,,,AMSA18.jpg,AMSA15.jpg,AMNE06.jpg,AMNE07.jpg,AMSA18.jpg,MS,2,num_8,16,num_8,0.916792022588,,,2017_Mar_14_1737,60.015784565,FEMA4ImagesEEG,001,100076,
AFNE01.JPG,AFNE01.JPG,AFNE01.JPG,AFNE01.JPG,AFNE01.JPG,AFNE01.JPG,,,,,3,4,34,6,,,,,,,,,,,,,,,,,,,AMNE18.jpg,AMNE19.jpg,AMSA10.jpg,AMSA18.jpg,AMSA10.jpg,MS,2,num_2,32,num_8,1.30009686347,,,2017_Mar_14_1737,60.015784565,FEMA4ImagesEEG,001,100076,
AFNE01.JPG,AFNE01.JPG,AFNE01.JPG,AFNE01.JPG,AFNE01.JPG,AFNE01.JPG,,,,,3,5,35,5,,,,,,,,,,,,,,,,,,,AMSA01.jpg,AMNE20.jpg,AMNE01.jpg,AMSA12.jpg,AMSA01.jpg,MS,2,num_8,16,num_8,1.0167554582,,,2017_Mar_14_1737,60.015784565,FEMA4ImagesEEG,001,100076,
AFNE01.JPG,AFNE01.JPG,AFNE01.JPG,AFNE01.JPG,AFNE01.JPG,AFNE01.JPG,,,,,3,6,36,1,,,,,,,,,,,,,,,,,,,AMNE17.jpg,AMNE20.jpg,AMSA14.jpg,AMSA06.jpg,AMSA14.jpg,MS,2,num_2,16,num_2,0.983496643486,,,2017_Mar_14_1737,60.015784565,FEMA4ImagesEEG,001,100076,
AFNE01.JPG,AFNE01.JPG,AFNE01.JPG,AFNE01.JPG,AFNE01.JPG,AFNE01.JPG,,,,,3,7,37,3,,,,,,,,,,,,,,,,,,,AMSA01.jpg,AMSA17.jpg,AMNE10.jpg,AMNE02.jpg,AMSA17.jpg,MS,2,num_6,16,num_6,2.9502795249,,,2017_Mar_14_1737,60.015784565,FEMA4ImagesEEG,001,100076,
AFNE01.JPG,AFNE01.JPG,AFNE01.JPG,AFNE01.JPG,AFNE01.JPG,AFNE01.JPG,,,,,3,8,38,4,,,,,,,,,,,,,,,,,,,AMSA03.jpg,AMSA10.jpg,AMNE03.jpg,AMNE06.jpg,AMSA10.jpg,MS,2,num_6,32,num_4,1.80017352034,,,2017_Mar_14_1737,60.015784565,FEMA4ImagesEEG,001,100076,
AFNE01.JPG,AFNE01.JPG,AFNE01.JPG,AFNE01.JPG,AFNE01.JPG,AFNE01.JPG,,,,,3,9,39,2,,,,,,,,,,,,,,,,,,,AMSA11.jpg,AMNE09.jpg,AMSA08.jpg,AMNE12.jpg,AMSA08.jpg,MS,2,num_2,16,num_2,1.35008259054,,,2017_Mar_14_1737,60.015784565,FEMA4ImagesEEG,001,100076,
AFNE01.JPG,AFNE01.JPG,AFNE01.JPG,AFNE01.JPG,AFNE01.JPG,AFNE01.JPG,,,,,4,0,40,3,,,,,,,,,,,,,,,,,,,AMNE03.jpg,AMSA18.jpg,AMSA09.jpg,AMNE17.jpg,AMNE03.jpg,MN,1,num_8,16,num_8,1.23340731737,,,2017_Mar_14_1737,60.015784565,FEMA4ImagesEEG,001,100076,
AFNE01.JPG,AFNE01.JPG,AFNE01.JPG,AFNE01.JPG,AFNE01.JPG,AFNE01.JPG,,,,,4,1,41,0,,,,,,,,,,,,,,,,,,,AMSA12.jpg,AMNE10.jpg,AMNE14.jpg,AMSA07.jpg,AMNE10.jpg,MN,1,num_6,32,num_8,1.20010648569,,,2017_Mar_14_1737,60.015784565,FEMA4ImagesEEG,001,100076,
AFNE01.JPG,AFNE01.JPG,AFNE01.JPG,AFNE01.JPG,AFNE01.JPG,AFNE01.JPG,,,,,4,2,42,2,,,,,,,,,,,,,,,,,,,AMSA08.jpg,AMNE19.jpg,AMNE16.jpg,AMSA10.jpg,AMSA08.jpg,MS,2,num_8,16,num_8,0.966733487498,,,2017_Mar_14_1737,60.015784565,FEMA4ImagesEEG,001,100076,
AFNE01.JPG,AFNE01.JPG,AFNE01.JPG,AFNE01.JPG,AFNE01.JPG,AFNE01.JPG,,,,,4,3,43,7,,,,,,,,,,,,,,,,,,,AMNE04.jpg,AMSA16.jpg,AMNE20.jpg,AMSA02.jpg,AMNE20.jpg,MN,1,num_2,16,num_2,2.13333483011,,,2017_Mar_14_1737,60.015784565,FEMA4ImagesEEG,001,100076,
AFNE01.JPG,AFNE01.JPG,AFNE01.JPG,AFNE01.JPG,AFNE01.JPG,AFNE01.JPG,,,,,4,4,44,9,,,,,,,,,,,,,,,,,,,AMNE12.jpg,AMSA11.jpg,AMSA03.jpg,AMNE10.jpg,AMSA11.jpg,MS,2,num_6,32,num_8,3.56659236195,,,2017_Mar_14_1737,60.015784565,FEMA4ImagesEEG,001,100076,
AFNE01.JPG,AFNE01.JPG,AFNE01.JPG,AFNE01.JPG,AFNE01.JPG,AFNE01.JPG,,,,,4,5,45,8,,,,,,,,,,,,,,,,,,,AMSA10.jpg,AMSA13.jpg,AMNE15.jpg,AMNE19.jpg,AMNE19.jpg,MN,1,num_4,16,num_4,1.60016133223,,,2017_Mar_14_1737,60.015784565,FEMA4ImagesEEG,001,100076,
AFNE01.JPG,AFNE01.JPG,AFNE01.JPG,AFNE01.JPG,AFNE01.JPG,AFNE01.JPG,,,,,4,6,46,6,,,,,,,,,,,,,,,,,,,AMNE18.jpg,AMNE08.jpg,AMSA11.jpg,AMSA13.jpg,AMNE18.jpg,MN,1,num_8,32,num_4,1.86668409355,,,2017_Mar_14_1737,60.015784565,FEMA4ImagesEEG,001,100076,
AFNE01.JPG,AFNE01.JPG,AFNE01.JPG,AFNE01.JPG,AFNE01.JPG,AFNE01.JPG,,,,,4,7,47,1,,,,,,,,,,,,,,,,,,,AMNE01.jpg,AMSA07.jpg,AMNE02.jpg,AMSA12.jpg,AMSA07.jpg,MS,2,num_6,16,num_6,0.817003069504,,,2017_Mar_14_1737,60.015784565,FEMA4ImagesEEG,001,100076,
AFNE01.JPG,AFNE01.JPG,AFNE01.JPG,AFNE01.JPG,AFNE01.JPG,AFNE01.JPG,,,,,4,8,48,4,,,,,,,,,,,,,,,,,,,AMSA09.jpg,AMNE17.jpg,AMNE09.jpg,AMSA03.jpg,AMSA09.jpg,MS,2,num_8,32,num_6,2.26666164177,,,2017_Mar_14_1737,60.015784565,FEMA4ImagesEEG,001,100076,
AFNE01.JPG,AFNE01.JPG,AFNE01.JPG,AFNE01.JPG,AFNE01.JPG,AFNE01.JPG,,,,,4,9,49,5,,,,,,,,,,,,,,,,,,,AMNE13.jpg,AMSA09.jpg,AMSA02.jpg,AMNE12.jpg,AMSA02.jpg,MS,2,num_2,16,num_2,1.6168192855,,,2017_Mar_14_1737,60.015784565,FEMA4ImagesEEG,001,100076,
AFNE01.JPG,AFNE01.JPG,AFNE01.JPG,AFNE01.JPG,AFNE01.JPG,AFNE01.JPG,,,,,5,0,50,6,,,,,,,,,,,,,,,,,,,AMNE09.jpg,AMSA04.jpg,AMSA11.jpg,AMNE02.jpg,AMNE09.jpg,MN,1,num_8,16,num_8,1.63369983225,,,2017_Mar_14_1737,60.015784565,FEMA4ImagesEEG,001,100076,
AFNE01.JPG,AFNE01.JPG,AFNE01.JPG,AFNE01.JPG,AFNE01.JPG,AFNE01.JPG,,,,,5,1,51,3,,,,,,,,,,,,,,,,,,,AMNE19.jpg,AMSA04.jpg,AMSA16.jpg,AMNE17.jpg,AMSA16.jpg,MS,2,num_2,16,num_2,2.00004907325,,,2017_Mar_14_1737,60.015784565,FEMA4ImagesEEG,001,100076,
AFNE01.JPG,AFNE01.JPG,AFNE01.JPG,AFNE01.JPG,AFNE01.JPG,AFNE01.JPG,,,,,5,2,52,8,,,,,,,,,,,,,,,,,,,AMNE09.jpg,AMSA02.jpg,AMNE13.jpg,AMSA15.jpg,AMSA02.jpg,MS,2,num_6,32,num_2,3.49996343564,,,2017_Mar_14_1737,60.015784565,FEMA4ImagesEEG,001,100076,
AFNE01.JPG,AFNE01.JPG,AFNE01.JPG,AFNE01.JPG,AFNE01.JPG,AFNE01.JPG,,,,,5,3,53,5,,,,,,,,,,,,,,,,,,,AMSA14.jpg,AMNE08.jpg,AMNE15.jpg,AMSA19.jpg,AMSA19.jpg,MS,2,num_4,16,num_4,1.26643616147,,,2017_Mar_14_1737,60.015784565,FEMA4ImagesEEG,001,100076,
AFNE01.JPG,AFNE01.JPG,AFNE01.JPG,AFNE01.JPG,AFNE01.JPG,AFNE01.JPG,,,,,5,4,54,7,,,,,,,,,,,,,,,,,,,AMSA08.jpg,AMNE08.jpg,AMSA04.jpg,AMNE10.jpg,AMNE08.jpg,MN,1,num_6,32,num_8,0.883462965779,,,2017_Mar_14_1737,60.015784565,FEMA4ImagesEEG,001,100076,
AFNE01.JPG,AFNE01.JPG,AFNE01.JPG,AFNE01.JPG,AFNE01.JPG,AFNE01.JPG,,,,,5,5,55,0,,,,,,,,,,,,,,,,,,,AMNE20.jpg,AMSA19.jpg,AMNE18.jpg,AMSA17.jpg,AMNE20.jpg,MN,1,num_8,32,num_6,1.13344324025,,,2017_Mar_14_1737,60.015784565,FEMA4ImagesEEG,001,100076,
AFNE01.JPG,AFNE01.JPG,AFNE01.JPG,AFNE01.JPG,AFNE01.JPG,AFNE01.JPG,,,,,5,6,56,9,,,,,,,,,,,,,,,,,,,AMNE03.jpg,AMNE16.jpg,AMSA11.jpg,AMSA10.jpg,AMSA10.jpg,MS,2,num_4,32,num_6,2.35009221279,,,2017_Mar_14_1737,60.015784565,FEMA4ImagesEEG,001,100076,
AFNE01.JPG,AFNE01.JPG,AFNE01.JPG,AFNE01.JPG,AFNE01.JPG,AFNE01.JPG,,,,,5,7,57,2,,,,,,,,,,,,,,,,,,,AMSA17.jpg,AMNE02.jpg,AMSA04.jpg,AMNE19.jpg,AMNE02.jpg,MN,1,num_6,32,num_8,1.01679811662,,,2017_Mar_14_1737,60.015784565,FEMA4ImagesEEG,001,100076,
AFNE01.JPG,AFNE01.JPG,AFNE01.JPG,AFNE01.JPG,AFNE01.JPG,AFNE01.JPG,,,,,5,8,58,4,,,,,,,,,,,,,,,,,,,AMNE12.jpg,AMSA14.jpg,AMNE05.jpg,AMSA15.jpg,AMSA14.jpg,MS,2,num_6,32,num_2,1.06677871186,,,2017_Mar_14_1737,60.015784565,FEMA4ImagesEEG,001,100076,
AFNE01.JPG,AFNE01.JPG,AFNE01.JPG,AFNE01.JPG,AFNE01.JPG,AFNE01.JPG,,,,,5,9,59,1,,,,,,,,,,,,,,,,,,,AMSA10.jpg,AMSA19.jpg,AMNE02.jpg,AMNE13.jpg,AMSA10.jpg,MS,2,num_8,48,None,,,,2017_Mar_14_1737,60.015784565,FEMA4ImagesEEG,001,100076,
,,,,,,,,,,,,,,,,,,,,,,,,,,,,,,,,,,,,,,,,,,,space,20.3816902357,2017_Mar_14_1737,60.015784565,FEMA4ImagesEEG,001,100076,
AFNE01.JPG,AFNE01.JPG,AFNE01.JPG,AFNE01.JPG,AFNE01.JPG,AFNE01.JPG,,,,,,,,,0,0,0,0,,,,,,,,,,,,,,,AFNE16.jpg,AFNE11.jpg,AFSA02.jpg,AFSA11.jpg,AFSA11.jpg,FS,4,num_4,16,num_4,1.00011001382,,,2017_Mar_14_1737,60.015784565,FEMA4ImagesEEG,001,100076,
AFNE01.JPG,AFNE01.JPG,AFNE01.JPG,AFNE01.JPG,AFNE01.JPG,AFNE01.JPG,,,,,,,,,0,1,1,4,,,,,,,,,,,,,,,AFSA02.jpg,AFSA07.jpg,AFNE12.jpg,AFNE09.jpg,AFSA07.jpg,FS,4,num_6,16,num_6,0.83345927723,,,2017_Mar_14_1737,60.015784565,FEMA4ImagesEEG,001,100076,
AFNE01.JPG,AFNE01.JPG,AFNE01.JPG,AFNE01.JPG,AFNE01.JPG,AFNE01.JPG,,,,,,,,,0,2,2,5,,,,,,,,,,,,,,,AFSA02.jpg,AFNE07.jpg,AFNE14.jpg,AFSA07.jpg,AFSA07.jpg,FS,4,num_4,32,num_8,2.13334092416,,,2017_Mar_14_1737,60.015784565,FEMA4ImagesEEG,001,100076,
AFNE01.JPG,AFNE01.JPG,AFNE01.JPG,AFNE01.JPG,AFNE01.JPG,AFNE01.JPG,,,,,,,,,0,3,3,8,,,,,,,,,,,,,,,AFNE13.jpg,AFSA15.jpg,AFNE14.jpg,AFSA11.jpg,AFSA11.jpg,FS,4,num_4,32,num_6,1.1834414762,,,2017_Mar_14_1737,60.015784565,FEMA4ImagesEEG,001,100076,
AFNE01.JPG,AFNE01.JPG,AFNE01.JPG,AFNE01.JPG,AFNE01.JPG,AFNE01.JPG,,,,,,,,,0,4,4,1,,,,,,,,,,,,,,,AFNE06.jpg,AFNE05.jpg,AFSA01.jpg,AFSA13.jpg,AFSA01.jpg,FS,4,num_2,16,num_2,1.66668473504,,,2017_Mar_14_1737,60.015784565,FEMA4ImagesEEG,001,100076,
AFNE01.JPG,AFNE01.JPG,AFNE01.JPG,AFNE01.JPG,AFNE01.JPG,AFNE01.JPG,,,,,,,,,0,5,5,2,,,,,,,,,,,,,,,AFSA01.jpg,AFSA06.jpg,AFNE13.jpg,AFNE10.jpg,AFNE13.jpg,FN,3,num_2,16,num_2,1.50011290045,,,2017_Mar_14_1737,60.015784565,FEMA4ImagesEEG,001,100076,
AFNE01.JPG,AFNE01.JPG,AFNE01.JPG,AFNE01.JPG,AFNE01.JPG,AFNE01.JPG,,,,,,,,,0,6,6,7,,,,,,,,,,,,,,,AFNE03.jpg,AFSA02.jpg,AFNE14.jpg,AFSA16.jpg,AFSA02.jpg,FS,4,num_6,16,num_6,3.19992013572,,,2017_Mar_14_1737,60.015784565,FEMA4ImagesEEG,001,100076,
AFNE01.JPG,AFNE01.JPG,AFNE01.JPG,AFNE01.JPG,AFNE01.JPG,AFNE01.JPG,,,,,,,,,0,7,7,9,,,,,,,,,,,,,,,AFSA07.jpg,AFNE10.jpg,AFNE08.jpg,AFSA02.jpg,AFNE10.jpg,FN,3,num_6,32,num_8,2.31661337038,,,2017_Mar_14_1737,60.015784565,FEMA4ImagesEEG,001,100076,
AFNE01.JPG,AFNE01.JPG,AFNE01.JPG,AFNE01.JPG,AFNE01.JPG,AFNE01.JPG,,,,,,,,,0,8,8,6,,,,,,,,,,,,,,,AFNE17.jpg,AFSA04.jpg,AFNE12.jpg,AFSA05.jpg,AFNE17.jpg,FN,3,num_8,32,num_4,0.900115145661,,,2017_Mar_14_1737,60.015784565,FEMA4ImagesEEG,001,100076,
AFNE01.JPG,AFNE01.JPG,AFNE01.JPG,AFNE01.JPG,AFNE01.JPG,AFNE01.JPG,,,,,,,,,0,9,9,3,,,,,,,,,,,,,,,AFSA16.jpg,AFSA19.jpg,AFNE07.jpg,AFNE20.jpg,AFSA16.jpg,FS,4,num_8,32,num_4,1.06661898334,,,2017_Mar_14_1737,60.015784565,FEMA4ImagesEEG,001,100076,
AFNE01.JPG,AFNE01.JPG,AFNE01.JPG,AFNE01.JPG,AFNE01.JPG,AFNE01.JPG,,,,,,,,,1,0,10,0,,,,,,,,,,,,,,,AFSA20.jpg,AFNE18.jpg,AFSA03.jpg,AFNE17.jpg,AFSA03.jpg,FS,4,num_2,32,num_8,2.96663726552,,,2017_Mar_14_1737,60.015784565,FEMA4ImagesEEG,001,100076,
AFNE01.JPG,AFNE01.JPG,AFNE01.JPG,AFNE01.JPG,AFNE01.JPG,AFNE01.JPG,,,,,,,,,1,1,11,2,,,,,,,,,,,,,,,AFNE13.jpg,AFNE05.jpg,AFSA03.jpg,AFSA12.jpg,AFSA12.jpg,FS,4,num_4,16,num_4,0.650150266709,,,2017_Mar_14_1737,60.015784565,FEMA4ImagesEEG,001,100076,
AFNE01.JPG,AFNE01.JPG,AFNE01.JPG,AFNE01.JPG,AFNE01.JPG,AFNE01.JPG,,,,,,,,,1,2,12,9,,,,,,,,,,,,,,,AFSA11.jpg,AFNE01.jpg,AFSA05.jpg,AFNE15.jpg,AFSA11.jpg,FS,4,num_8,32,num_6,2.3500088203,,,2017_Mar_14_1737,60.015784565,FEMA4ImagesEEG,001,100076,
AFNE01.JPG,AFNE01.JPG,AFNE01.JPG,AFNE01.JPG,AFNE01.JPG,AFNE01.JPG,,,,,,,,,1,3,13,4,,,,,,,,,,,,,,,AFSA17.jpg,AFNE07.jpg,AFNE02.jpg,AFSA02.jpg,AFNE07.jpg,FN,3,num_6,32,num_8,3.0666221907,,,2017_Mar_14_1737,60.015784565,FEMA4ImagesEEG,001,100076,
AFNE01.JPG,AFNE01.JPG,AFNE01.JPG,AFNE01.JPG,AFNE01.JPG,AFNE01.JPG,,,,,,,,,1,4,14,1,,,,,,,,,,,,,,,AFNE01.jpg,AFSA20.jpg,AFNE17.jpg,AFSA18.jpg,AFNE17.jpg,FN,3,num_2,32,num_4,1.5833709134,,,2017_Mar_14_1737,60.015784565,FEMA4ImagesEEG,001,100076,
AFNE01.JPG,AFNE01.JPG,AFNE01.JPG,AFNE01.JPG,AFNE01.JPG,AFNE01.JPG,,,,,,,,,1,5,15,8,,,,,,,,,,,,,,,AFSA14.jpg,AFNE07.jpg,AFSA18.jpg,AFNE13.jpg,AFNE07.jpg,FN,3,num_6,32,num_4,1.65003030997,,,2017_Mar_14_1737,60.015784565,FEMA4ImagesEEG,001,100076,
AFNE01.JPG,AFNE01.JPG,AFNE01.JPG,AFNE01.JPG,AFNE01.JPG,AFNE01.JPG,,,,,,,,,1,6,16,5,,,,,,,,,,,,,,,AFNE14.jpg,AFSA02.jpg,AFSA09.jpg,AFNE02.jpg,AFNE14.jpg,FN,3,num_8,16,num_8,1.85003447952,,,2017_Mar_14_1737,60.015784565,FEMA4ImagesEEG,001,100076,
AFNE01.JPG,AFNE01.JPG,AFNE01.JPG,AFNE01.JPG,AFNE01.JPG,AFNE01.JPG,,,,,,,,,1,7,17,3,,,,,,,,,,,,,,,AFNE03.jpg,AFNE05.jpg,AFSA02.jpg,AFSA05.jpg,AFNE03.jpg,FN,3,num_8,32,num_4,1.06681463472,,,2017_Mar_14_1737,60.015784565,FEMA4ImagesEEG,001,100076,
AFNE01.JPG,AFNE01.JPG,AFNE01.JPG,AFNE01.JPG,AFNE01.JPG,AFNE01.JPG,,,,,,,,,1,8,18,6,,,,,,,,,,,,,,,AFNE08.jpg,AFNE12.jpg,AFSA12.jpg,AFSA19.jpg,AFNE12.jpg,FN,3,num_6,16,num_6,0.949820225185,,,2017_Mar_14_1737,60.015784565,FEMA4ImagesEEG,001,100076,
AFNE01.JPG,AFNE01.JPG,AFNE01.JPG,AFNE01.JPG,AFNE01.JPG,AFNE01.JPG,,,,,,,,,1,9,19,7,,,,,,,,,,,,,,,AFNE05.jpg,AFNE20.jpg,AFSA07.jpg,AFSA20.jpg,AFNE20.jpg,FN,3,num_6,32,num_4,0.816785286996,,,2017_Mar_14_1737,60.015784565,FEMA4ImagesEEG,001,100076,
AFNE01.JPG,AFNE01.JPG,AFNE01.JPG,AFNE01.JPG,AFNE01.JPG,AFNE01.JPG,,,,,,,,,2,0,20,5,,,,,,,,,,,,,,,AFNE08.jpg,AFSA13.jpg,AFNE19.jpg,AFSA06.jpg,AFNE08.jpg,FN,3,num_8,16,num_8,0.916744232294,,,2017_Mar_14_1737,60.015784565,FEMA4ImagesEEG,001,100076,
AFNE01.JPG,AFNE01.JPG,AFNE01.JPG,AFNE01.JPG,AFNE01.JPG,AFNE01.JPG,,,,,,,,,2,1,21,3,,,,,,,,,,,,,,,AFSA11.jpg,AFSA03.jpg,AFNE04.jpg,AFNE12.jpg,AFNE04.jpg,FN,3,num_2,32,num_6,2.08336802671,,,2017_Mar_14_1737,60.015784565,FEMA4ImagesEEG,001,100076,
AFNE01.JPG,AFNE01.JPG,AFNE01.JPG,AFNE01.JPG,AFNE01.JPG,AFNE01.JPG,,,,,,,,,2,2,22,9,,,,,,,,,,,,,,,AFSA10.jpg,AFSA09.jpg,AFNE13.jpg,AFNE11.jpg,AFSA09.jpg,FS,4,num_6,16,num_6,1.45005821431,,,2017_Mar_14_1737,60.015784565,FEMA4ImagesEEG,001,100076,
AFNE01.JPG,AFNE01.JPG,AFNE01.JPG,AFNE01.JPG,AFNE01.JPG,AFNE01.JPG,,,,,,,,,2,3,23,7,,,,,,,,,,,,,,,AFNE14.jpg,AFSA12.jpg,AFSA15.jpg,AFNE04.jpg,AFNE04.jpg,FN,3,num_4,16,num_4,2.7333755641,,,2017_Mar_14_1737,60.015784565,FEMA4ImagesEEG,001,100076,
AFNE01.JPG,AFNE01.JPG,AFNE01.JPG,AFNE01.JPG,AFNE01.JPG,AFNE01.JPG,,,,,,,,,2,4,24,4,,,,,,,,,,,,,,,AFSA12.jpg,AFSA06.jpg,AFNE03.jpg,AFNE15.jpg,AFNE15.jpg,FN,3,num_4,16,num_4,0.58343089174,,,2017_Mar_14_1737,60.015784565,FEMA4ImagesEEG,001,100076,
AFNE01.JPG,AFNE01.JPG,AFNE01.JPG,AFNE01.JPG,AFNE01.JPG,AFNE01.JPG,,,,,,,,,2,5,25,0,,,,,,,,,,,,,,,AFSA03.jpg,AFNE03.jpg,AFNE18.jpg,AFSA15.jpg,AFNE18.jpg,FN,3,num_2,16,num_2,1.30013920116,,,2017_Mar_14_1737,60.015784565,FEMA4ImagesEEG,001,100076,
AFNE01.JPG,AFNE01.JPG,AFNE01.JPG,AFNE01.JPG,AFNE01.JPG,AFNE01.JPG,,,,,,,,,2,6,26,1,,,,,,,,,,,,,,,AFSA20.jpg,AFNE11.jpg,AFNE14.jpg,AFSA09.jpg,AFSA09.jpg,FS,4,num_4,32,num_6,1.25015700224,,,2017_Mar_14_1737,60.015784565,FEMA4ImagesEEG,001,100076,
AFNE01.JPG,AFNE01.JPG,AFNE01.JPG,AFNE01.JPG,AFNE01.JPG,AFNE01.JPG,,,,,,,,,2,7,27,6,,,,,,,,,,,,,,,AFSA08.jpg,AFNE07.jpg,AFSA02.jpg,AFNE03.jpg,AFSA02.jpg,FS,4,num_2,32,num_4,1.00013406936,,,2017_Mar_14_1737,60.015784565,FEMA4ImagesEEG,001,100076,
AFNE01.JPG,AFNE01.JPG,AFNE01.JPG,AFNE01.JPG,AFNE01.JPG,AFNE01.JPG,,,,,,,,,2,8,28,2,,,,,,,,,,,,,,,AFSA20.jpg,AFSA03.jpg,AFNE13.jpg,AFNE15.jpg,AFSA20.jpg,FS,4,num_8,32,num_2,0.933430731355,,,2017_Mar_14_1737,60.015784565,FEMA4ImagesEEG,001,100076,
AFNE01.JPG,AFNE01.JPG,AFNE01.JPG,AFNE01.JPG,AFNE01.JPG,AFNE01.JPG,,,,,,,,,2,9,29,8,,,,,,,,,,,,,,,AFNE06.jpg,AFSA03.jpg,AFNE07.jpg,AFSA04.jpg,AFNE06.jpg,FN,3,num_8,16,num_8,0.850120758638,,,2017_Mar_14_1737,60.015784565,FEMA4ImagesEEG,001,100076,
AFNE01.JPG,AFNE01.JPG,AFNE01.JPG,AFNE01.JPG,AFNE01.JPG,AFNE01.JPG,,,,,,,,,3,0,30,4,,,,,,,,,,,,,,,AFSA04.jpg,AFSA02.jpg,AFNE04.jpg,AFNE12.jpg,AFNE04.jpg,FN,3,num_2,32,num_4,2.00005260139,,,2017_Mar_14_1737,60.015784565,FEMA4ImagesEEG,001,100076,
AFNE01.JPG,AFNE01.JPG,AFNE01.JPG,AFNE01.JPG,AFNE01.JPG,AFNE01.JPG,,,,,,,,,3,1,31,0,,,,,,,,,,,,,,,AFNE03.jpg,AFSA03.jpg,AFNE12.jpg,AFSA11.jpg,AFSA11.jpg,FS,4,num_4,32,num_6,2.33359847841,,,2017_Mar_14_1737,60.015784565,FEMA4ImagesEEG,001,100076,
AFNE01.JPG,AFNE01.JPG,AFNE01.JPG,AFNE01.JPG,AFNE01.JPG,AFNE01.JPG,,,,,,,,,3,2,32,2,,,,,,,,,,,,,,,AFSA19.jpg,AFNE02.jpg,AFSA08.jpg,AFNE12.jpg,AFSA08.jpg,FS,4,num_2,32,num_8,0.950204471766,,,2017_Mar_14_1737,60.015784565,FEMA4ImagesEEG,001,100076,
AFNE01.JPG,AFNE01.JPG,AFNE01.JPG,AFNE01.JPG,AFNE01.JPG,AFNE01.JPG,,,,,,,,,3,3,33,7,,,,,,,,,,,,,,,AFSA04.jpg,AFNE14.jpg,AFSA05.jpg,AFNE19.jpg,AFNE19.jpg,FN,3,num_4,32,num_2,1.2167358931,,,2017_Mar_14_1737,60.015784565,FEMA4ImagesEEG,001,100076,
AFNE01.JPG,AFNE01.JPG,AFNE01.JPG,AFNE01.JPG,AFNE01.JPG,AFNE01.JPG,,,,,,,,,3,4,34,8,,,,,,,,,,,,,,,AFNE02.jpg,AFSA16.jpg,AFNE06.jpg,AFSA02.jpg,AFSA16.jpg,FS,4,num_6,16,num_6,0.549989575986,,,2017_Mar_14_1737,60.015784565,FEMA4ImagesEEG,001,100076,
AFNE01.JPG,AFNE01.JPG,AFNE01.JPG,AFNE01.JPG,AFNE01.JPG,AFNE01.JPG,,,,,,,,,3,5,35,6,,,,,,,,,,,,,,,AFNE15.jpg,AFNE06.jpg,AFSA16.jpg,AFSA12.jpg,AFSA16.jpg,FS,4,num_2,32,num_8,1.08344147622,,,2017_Mar_14_1737,60.015784565,FEMA4ImagesEEG,001,100076,
AFNE01.JPG,AFNE01.JPG,AFNE01.JPG,AFNE01.JPG,AFNE01.JPG,AFNE01.JPG,,,,,,,,,3,6,36,3,,,,,,,,,,,,,,,AFSA16.jpg,AFNE09.jpg,AFSA15.jpg,AFNE03.jpg,AFSA15.jpg,FS,4,num_2,32,num_6,1.71675609972,,,2017_Mar_14_1737,60.015784565,FEMA4ImagesEEG,001,100076,
AFNE01.JPG,AFNE01.JPG,AFNE01.JPG,AFNE01.JPG,AFNE01.JPG,AFNE01.JPG,,,,,,,,,3,7,37,1,,,,,,,,,,,,,,,AFNE11.jpg,AFSA01.jpg,AFNE10.jpg,AFSA09.jpg,AFNE11.jpg,FN,3,num_8,16,num_8,1.76669884758,,,2017_Mar_14_1737,60.015784565,FEMA4ImagesEEG,001,100076,
AFNE01.JPG,AFNE01.JPG,AFNE01.JPG,AFNE01.JPG,AFNE01.JPG,AFNE01.JPG,,,,,,,,,3,8,38,9,,,,,,,,,,,,,,,AFSA18.jpg,AFNE07.jpg,AFSA14.jpg,AFNE13.jpg,AFSA14.jpg,FS,4,num_2,32,num_4,0.716663085041,,,2017_Mar_14_1737,60.015784565,FEMA4ImagesEEG,001,100076,
AFNE01.JPG,AFNE01.JPG,AFNE01.JPG,AFNE01.JPG,AFNE01.JPG,AFNE01.JPG,,,,,,,,,3,9,39,5,,,,,,,,,,,,,,,AFNE12.jpg,AFSA05.jpg,AFSA01.jpg,AFNE06.jpg,AFNE06.jpg,FN,3,num_4,32,num_6,2.8333412449,,,2017_Mar_14_1737,60.015784565,FEMA4ImagesEEG,001,100076,
AFNE01.JPG,AFNE01.JPG,AFNE01.JPG,AFNE01.JPG,AFNE01.JPG,AFNE01.JPG,,,,,,,,,4,0,40,9,,,,,,,,,,,,,,,AFSA14.jpg,AFSA13.jpg,AFNE18.jpg,AFNE02.jpg,AFSA13.jpg,FS,4,num_6,16,num_6,2.10005805391,,,2017_Mar_14_1737,60.015784565,FEMA4ImagesEEG,001,100076,
AFNE01.JPG,AFNE01.JPG,AFNE01.JPG,AFNE01.JPG,AFNE01.JPG,AFNE01.JPG,,,,,,,,,4,1,41,2,,,,,,,,,,,,,,,AFSA20.jpg,AFNE18.jpg,AFNE12.jpg,AFSA09.jpg,AFSA20.jpg,FS,4,num_8,16,num_8,1.1834761161,,,2017_Mar_14_1737,60.015784565,FEMA4ImagesEEG,001,100076,
AFNE01.JPG,AFNE01.JPG,AFNE01.JPG,AFNE01.JPG,AFNE01.JPG,AFNE01.JPG,,,,,,,,,4,2,42,6,,,,,,,,,,,,,,,AFNE17.jpg,AFSA15.jpg,AFSA17.jpg,AFNE06.jpg,AFSA15.jpg,FS,4,num_6,32,num_4,1.41671889386,,,2017_Mar_14_1737,60.015784565,FEMA4ImagesEEG,001,100076,
AFNE01.JPG,AFNE01.JPG,AFNE01.JPG,AFNE01.JPG,AFNE01.JPG,AFNE01.JPG,,,,,,,,,4,3,43,7,,,,,,,,,,,,,,,AFSA03.jpg,AFNE15.jpg,AFNE01.jpg,AFSA01.jpg,AFSA03.jpg,FS,4,num_8,16,num_8,0.483420948847,,,2017_Mar_14_1737,60.015784565,FEMA4ImagesEEG,001,100076,
AFNE01.JPG,AFNE01.JPG,AFNE01.JPG,AFNE01.JPG,AFNE01.JPG,AFNE01.JPG,,,,,,,,,4,4,44,8,,,,,,,,,,,,,,,AFNE12.jpg,AFNE05.jpg,AFSA07.jpg,AFSA20.jpg,AFNE12.jpg,FN,3,num_8,32,num_4,1.91671183752,,,2017_Mar_14_1737,60.015784565,FEMA4ImagesEEG,001,100076,
AFNE01.JPG,AFNE01.JPG,AFNE01.JPG,AFNE01.JPG,AFNE01.JPG,AFNE01.JPG,,,,,,,,,4,5,45,4,,,,,,,,,,,,,,,AFSA01.jpg,AFSA16.jpg,AFNE13.jpg,AFNE12.jpg,AFSA01.jpg,FS,4,num_8,16,num_8,2.18333274534,,,2017_Mar_14_1737,60.015784565,FEMA4ImagesEEG,001,100076,
AFNE01.JPG,AFNE01.JPG,AFNE01.JPG,AFNE01.JPG,AFNE01.JPG,AFNE01.JPG,,,,,,,,,4,6,46,1,,,,,,,,,,,,,,,AFNE15.jpg,AFNE11.jpg,AFSA20.jpg,AFSA14.jpg,AFSA20.jpg,FS,4,num_2,16,num_2,1.49995349272,,,2017_Mar_14_1737,60.015784565,FEMA4ImagesEEG,001,100076,
AFNE01.JPG,AFNE01.JPG,AFNE01.JPG,AFNE01.JPG,AFNE01.JPG,AFNE01.JPG,,,,,,,,,4,7,47,0,,,,,,,,,,,,,,,AFSA18.jpg,AFNE15.jpg,AFSA17.jpg,AFNE10.jpg,AFNE10.jpg,FN,3,num_4,16,num_4,1.81678817369,,,2017_Mar_14_1737,60.015784565,FEMA4ImagesEEG,001,100076,
AFNE01.JPG,AFNE01.JPG,AFNE01.JPG,AFNE01.JPG,AFNE01.JPG,AFNE01.JPG,,,,,,,,,4,8,48,3,,,,,,,,,,,,,,,AFNE12.jpg,AFSA03.jpg,AFNE06.jpg,AFSA01.jpg,AFSA01.jpg,FS,4,num_4,32,num_2,2.04977660457,,,2017_Mar_14_1737,60.015784565,FEMA4ImagesEEG,001,100076,
AFNE01.JPG,AFNE01.JPG,AFNE01.JPG,AFNE01.JPG,AFNE01.JPG,AFNE01.JPG,,,,,,,,,4,9,49,5,,,,,,,,,,,,,,,AFSA09.jpg,AFNE07.jpg,AFNE15.jpg,AFSA12.jpg,AFSA09.jpg,FS,4,num_8,32,num_6,1.66673380823,,,2017_Mar_14_1737,60.015784565,FEMA4ImagesEEG,001,100076,
AFNE01.JPG,AFNE01.JPG,AFNE01.JPG,AFNE01.JPG,AFNE01.JPG,AFNE01.JPG,,,,,,,,,5,0,50,9,,,,,,,,,,,,,,,AFSA18.jpg,AFNE10.jpg,AFSA11.jpg,AFNE01.jpg,AFSA18.jpg,FS,4,num_8,32,num_4,0.800093976781,,,2017_Mar_14_1737,60.015784565,FEMA4ImagesEEG,001,100076,
AFNE01.JPG,AFNE01.JPG,AFNE01.JPG,AFNE01.JPG,AFNE01.JPG,AFNE01.JPG,,,,,,,,,5,1,51,1,,,,,,,,,,,,,,,AFSA16.jpg,AFSA03.jpg,AFNE17.jpg,AFNE07.jpg,AFNE17.jpg,FN,3,num_2,32,num_8,1.68365059863,,,2017_Mar_14_1737,60.015784565,FEMA4ImagesEEG,001,100076,
AFNE01.JPG,AFNE01.JPG,AFNE01.JPG,AFNE01.JPG,AFNE01.JPG,AFNE01.JPG,,,,,,,,,5,2,52,5,,,,,,,,,,,,,,,AFNE15.jpg,AFNE05.jpg,AFSA12.jpg,AFSA08.jpg,AFNE05.jpg,FN,3,num_6,16,num_6,0.916730761237,,,2017_Mar_14_1737,60.015784565,FEMA4ImagesEEG,001,100076,
AFNE01.JPG,AFNE01.JPG,AFNE01.JPG,AFNE01.JPG,AFNE01.JPG,AFNE01.JPG,,,,,,,,,5,3,53,7,,,,,,,,,,,,,,,AFSA03.jpg,AFNE17.jpg,AFSA17.jpg,AFNE13.jpg,AFNE17.jpg,FN,3,num_6,32,num_4,0.883467135427,,,2017_Mar_14_1737,60.015784565,FEMA4ImagesEEG,001,100076,
AFNE01.JPG,AFNE01.JPG,AFNE01.JPG,AFNE01.JPG,AFNE01.JPG,AFNE01.JPG,,,,,,,,,5,4,54,2,,,,,,,,,,,,,,,AFSA18.jpg,AFNE10.jpg,AFNE19.jpg,AFSA10.jpg,AFNE10.jpg,FN,3,num_6,32,num_2,2.26666549064,,,2017_Mar_14_1737,60.015784565,FEMA4ImagesEEG,001,100076,
AFNE01.JPG,AFNE01.JPG,AFNE01.JPG,AFNE01.JPG,AFNE01.JPG,AFNE01.JPG,,,,,,,,,5,5,55,6,,,,,,,,,,,,,,,AFNE09.jpg,AFNE08.jpg,AFSA15.jpg,AFSA12.jpg,AFNE09.jpg,FN,3,num_8,32,num_4,1.71667142434,,,2017_Mar_14_1737,60.015784565,FEMA4ImagesEEG,001,100076,
AFNE01.JPG,AFNE01.JPG,AFNE01.JPG,AFNE01.JPG,AFNE01.JPG,AFNE01.JPG,,,,,,,,,5,6,56,8,,,,,,,,,,,,,,,AFSA10.jpg,AFSA03.jpg,AFNE18.jpg,AFNE07.jpg,AFSA10.jpg,FS,4,num_8,16,num_8,0.866740864527,,,2017_Mar_14_1737,60.015784565,FEMA4ImagesEEG,001,100076,
AFNE01.JPG,AFNE01.JPG,AFNE01.JPG,AFNE01.JPG,AFNE01.JPG,AFNE01.JPG,,,,,,,,,5,7,57,3,,,,,,,,,,,,,,,AFSA03.jpg,AFSA14.jpg,AFNE14.jpg,AFNE04.jpg,AFSA03.jpg,FS,4,num_8,32,num_6,1.08348509681,,,2017_Mar_14_1737,60.015784565,FEMA4ImagesEEG,001,100076,
AFNE01.JPG,AFNE01.JPG,AFNE01.JPG,AFNE01.JPG,AFNE01.JPG,AFNE01.JPG,,,,,,,,,5,8,58,0,,,,,,,,,,,,,,,AFSA07.jpg,AFSA17.jpg,AFNE12.jpg,AFNE04.jpg,AFNE04.jpg,FN,3,num_4,16,num_4,0.716822813614,,,2017_Mar_14_1737,60.015784565,FEMA4ImagesEEG,001,100076,
AFNE01.JPG,AFNE01.JPG,AFNE01.JPG,AFNE01.JPG,AFNE01.JPG,AFNE01.JPG,,,,,,,,,5,9,59,4,,,,,,,,,,,,,,,AFSA03.jpg,AFSA19.jpg,AFNE17.jpg,AFNE09.jpg,AFSA19.jpg,FS,4,num_6,16,num_6,2.90001154662,,,2017_Mar_14_1737,60.015784565,FEMA4ImagesEEG,001,100076,
,,,,,,,,,,,,,,,,,,,,,,,,,,,,,,,,,,,,,,,,,,,space,27.6316615295,2017_Mar_14_1737,60.015784565,FEMA4ImagesEEG,001,100076,
AFNE01.JPG,AFNE01.JPG,AFNE01.JPG,AFNE01.JPG,AFNE01.JPG,AFNE01.JPG,,,,,,,,,,,,,0,0,0,3,,,,,,,,,,,AMNE12.jpg,AMSA03.jpg,AMSA16.jpg,AMNE15.jpg,AMNE15.jpg,MN,1,num_4,32,num_8,1.96664688771,,,2017_Mar_14_1737,60.015784565,FEMA4ImagesEEG,001,100076,
AFNE01.JPG,AFNE01.JPG,AFNE01.JPG,AFNE01.JPG,AFNE01.JPG,AFNE01.JPG,,,,,,,,,,,,,0,1,1,4,,,,,,,,,,,AMSA12.jpg,AMSA10.jpg,AMNE10.jpg,AMNE14.jpg,AMNE14.jpg,MN,1,num_4,32,num_6,0.700114504201,,,2017_Mar_14_1737,60.015784565,FEMA4ImagesEEG,001,100076,
AFNE01.JPG,AFNE01.JPG,AFNE01.JPG,AFNE01.JPG,AFNE01.JPG,AFNE01.JPG,,,,,,,,,,,,,0,2,2,1,,,,,,,,,,,AMNE04.jpg,AMSA10.jpg,AMSA13.jpg,AMNE19.jpg,AMSA10.jpg,MS,2,num_6,32,num_8,0.983446928789,,,2017_Mar_14_1737,60.015784565,FEMA4ImagesEEG,001,100076,
AFNE01.JPG,AFNE01.JPG,AFNE01.JPG,AFNE01.JPG,AFNE01.JPG,AFNE01.JPG,,,,,,,,,,,,,0,3,3,7,,,,,,,,,,,AMNE01.jpg,AMNE18.jpg,AMSA06.jpg,AMSA13.jpg,AMNE18.jpg,MN,1,num_6,16,num_6,0.766517308715,,,2017_Mar_14_1737,60.015784565,FEMA4ImagesEEG,001,100076,
AFNE01.JPG,AFNE01.JPG,AFNE01.JPG,AFNE01.JPG,AFNE01.JPG,AFNE01.JPG,,,,,,,,,,,,,0,4,4,5,,,,,,,,,,,AMNE15.jpg,AMNE09.jpg,AMSA03.jpg,AMSA04.jpg,AMSA03.jpg,MS,2,num_2,32,num_8,0.816754816682,,,2017_Mar_14_1737,60.015784565,FEMA4ImagesEEG,001,100076,
AFNE01.JPG,AFNE01.JPG,AFNE01.JPG,AFNE01.JPG,AFNE01.JPG,AFNE01.JPG,,,,,,,,,,,,,0,5,5,6,,,,,,,,,,,AMNE02.jpg,AMSA05.jpg,AMSA11.jpg,AMNE08.jpg,AMSA11.jpg,MS,2,num_2,16,num_2,1.26676042966,,,2017_Mar_14_1737,60.015784565,FEMA4ImagesEEG,001,100076,
AFNE01.JPG,AFNE01.JPG,AFNE01.JPG,AFNE01.JPG,AFNE01.JPG,AFNE01.JPG,,,,,,,,,,,,,0,6,6,9,,,,,,,,,,,AMSA08.jpg,AMSA04.jpg,AMNE17.jpg,AMNE04.jpg,AMSA04.jpg,MS,2,num_6,32,num_8,0.766998739506,,,2017_Mar_14_1737,60.015784565,FEMA4ImagesEEG,001,100076,
AFNE01.JPG,AFNE01.JPG,AFNE01.JPG,AFNE01.JPG,AFNE01.JPG,AFNE01.JPG,,,,,,,,,,,,,0,7,7,0,,,,,,,,,,,AMSA17.jpg,AMSA16.jpg,AMNE06.jpg,AMNE13.jpg,AMSA16.jpg,MS,2,num_6,32,num_2,0.916831152863,,,2017_Mar_14_1737,60.015784565,FEMA4ImagesEEG,001,100076,
AFNE01.JPG,AFNE01.JPG,AFNE01.JPG,AFNE01.JPG,AFNE01.JPG,AFNE01.JPG,,,,,,,,,,,,,0,8,8,2,,,,,,,,,,,AMSA12.jpg,AMNE13.jpg,AMNE18.jpg,AMSA10.jpg,AMNE18.jpg,MN,1,num_2,32,num_6,2.11667078285,,,2017_Mar_14_1737,60.015784565,FEMA4ImagesEEG,001,100076,
AFNE01.JPG,AFNE01.JPG,AFNE01.JPG,AFNE01.JPG,AFNE01.JPG,AFNE01.JPG,,,,,,,,,,,,,0,9,9,8,,,,,,,,,,,AMNE16.jpg,AMSA09.jpg,AMNE17.jpg,AMSA11.jpg,AMSA09.jpg,MS,2,num_6,32,num_4,1.28343506134,,,2017_Mar_14_1737,60.015784565,FEMA4ImagesEEG,001,100076,
AFNE01.JPG,AFNE01.JPG,AFNE01.JPG,AFNE01.JPG,AFNE01.JPG,AFNE01.JPG,,,,,,,,,,,,,1,0,10,8,,,,,,,,,,,AMSA07.jpg,AMNE05.jpg,AMNE07.jpg,AMSA05.jpg,AMSA07.jpg,MS,2,num_8,16,num_8,0.783501775295,,,2017_Mar_14_1737,60.015784565,FEMA4ImagesEEG,001,100076,
AFNE01.JPG,AFNE01.JPG,AFNE01.JPG,AFNE01.JPG,AFNE01.JPG,AFNE01.JPG,,,,,,,,,,,,,1,1,11,1,,,,,,,,,,,AMSA02.jpg,AMSA10.jpg,AMNE17.jpg,AMNE10.jpg,AMNE10.jpg,MN,1,num_4,32,num_8,0.783466493885,,,2017_Mar_14_1737,60.015784565,FEMA4ImagesEEG,001,100076,
AFNE01.JPG,AFNE01.JPG,AFNE01.JPG,AFNE01.JPG,AFNE01.JPG,AFNE01.JPG,,,,,,,,,,,,,1,2,12,5,,,,,,,,,,,AMSA16.jpg,AMSA01.jpg,AMNE20.jpg,AMNE12.jpg,AMNE20.jpg,MN,1,num_2,16,num_2,1.3000856376,,,2017_Mar_14_1737,60.015784565,FEMA4ImagesEEG,001,100076,
AFNE01.JPG,AFNE01.JPG,AFNE01.JPG,AFNE01.JPG,AFNE01.JPG,AFNE01.JPG,,,,,,,,,,,,,1,3,13,6,,,,,,,,,,,AMSA20.jpg,AMSA10.jpg,AMNE07.jpg,AMNE06.jpg,AMSA10.jpg,MS,2,num_6,32,num_8,1.5833721963,,,2017_Mar_14_1737,60.015784565,FEMA4ImagesEEG,001,100076,
AFNE01.JPG,AFNE01.JPG,AFNE01.JPG,AFNE01.JPG,AFNE01.JPG,AFNE01.JPG,,,,,,,,,,,,,1,4,14,3,,,,,,,,,,,AMSA17.jpg,AMNE20.jpg,AMSA15.jpg,AMNE13.jpg,AMNE13.jpg,MN,1,num_4,32,num_6,0.750102155725,,,2017_Mar_14_1737,60.015784565,FEMA4ImagesEEG,001,100076,
AFNE01.JPG,AFNE01.JPG,AFNE01.JPG,AFNE01.JPG,AFNE01.JPG,AFNE01.JPG,,,,,,,,,,,,,1,5,15,4,,,,,,,,,,,AMNE19.jpg,AMSA15.jpg,AMNE04.jpg,AMSA17.jpg,AMSA17.jpg,MS,2,num_4,16,num_4,1.48344051396,,,2017_Mar_14_1737,60.015784565,FEMA4ImagesEEG,001,100076,
AFNE01.JPG,AFNE01.JPG,AFNE01.JPG,AFNE01.JPG,AFNE01.JPG,AFNE01.JPG,,,,,,,,,,,,,1,6,16,0,,,,,,,,,,,AMNE18.jpg,AMNE10.jpg,AMSA08.jpg,AMSA15.jpg,AMSA08.jpg,MS,2,num_2,32,num_4,1.31703738868,,,2017_Mar_14_1737,60.015784565,FEMA4ImagesEEG,001,100076,
AFNE01.JPG,AFNE01.JPG,AFNE01.JPG,AFNE01.JPG,AFNE01.JPG,AFNE01.JPG,,,,,,,,,,,,,1,7,17,7,,,,,,,,,,,AMSA06.jpg,AMSA01.jpg,AMNE02.jpg,AMNE09.jpg,AMSA06.jpg,MS,2,num_8,16,num_8,0.900072166522,,,2017_Mar_14_1737,60.015784565,FEMA4ImagesEEG,001,100076,
AFNE01.JPG,AFNE01.JPG,AFNE01.JPG,AFNE01.JPG,AFNE01.JPG,AFNE01.JPG,,,,,,,,,,,,,1,8,18,2,,,,,,,,,,,AMNE01.jpg,AMSA10.jpg,AMSA13.jpg,AMNE04.jpg,AMNE01.jpg,MN,1,num_8,32,num_4,0.550133267476,,,2017_Mar_14_1737,60.015784565,FEMA4ImagesEEG,001,100076,
AFNE01.JPG,AFNE01.JPG,AFNE01.JPG,AFNE01.JPG,AFNE01.JPG,AFNE01.JPG,,,,,,,,,,,,,1,9,19,9,,,,,,,,,,,AMNE09.jpg,AMNE01.jpg,AMSA16.jpg,AMSA10.jpg,AMSA10.jpg,MS,2,num_4,16,num_4,1.40015748335,,,2017_Mar_14_1737,60.015784565,FEMA4ImagesEEG,001,100076,
AFNE01.JPG,AFNE01.JPG,AFNE01.JPG,AFNE01.JPG,AFNE01.JPG,AFNE01.JPG,,,,,,,,,,,,,2,0,20,2,,,,,,,,,,,AMNE20.jpg,AMSA12.jpg,AMNE19.jpg,AMSA13.jpg,AMSA13.jpg,MS,2,num_4,16,num_4,0.76675978821,,,2017_Mar_14_1737,60.015784565,FEMA4ImagesEEG,001,100076,
AFNE01.JPG,AFNE01.JPG,AFNE01.JPG,AFNE01.JPG,AFNE01.JPG,AFNE01.JPG,,,,,,,,,,,,,2,1,21,3,,,,,,,,,,,AMSA14.jpg,AMNE07.jpg,AMSA05.jpg,AMNE20.jpg,AMSA14.jpg,MS,2,num_8,32,num_6,2.06667126395,,,2017_Mar_14_1737,60.015784565,FEMA4ImagesEEG,001,100076,
AFNE01.JPG,AFNE01.JPG,AFNE01.JPG,AFNE01.JPG,AFNE01.JPG,AFNE01.JPG,,,,,,,,,,,,,2,2,22,6,,,,,,,,,,,AMSA15.jpg,AMNE08.jpg,AMNE20.jpg,AMSA01.jpg,AMSA01.jpg,MS,2,num_4,32,num_8,1.40010937233,,,2017_Mar_14_1737,60.015784565,FEMA4ImagesEEG,001,100076,
AFNE01.JPG,AFNE01.JPG,AFNE01.JPG,AFNE01.JPG,AFNE01.JPG,AFNE01.JPG,,,,,,,,,,,,,2,3,23,0,,,,,,,,,,,AMSA02.jpg,AMNE03.jpg,AMSA13.jpg,AMNE01.jpg,AMSA02.jpg,MS,2,num_8,16,num_8,1.78336674371,,,2017_Mar_14_1737,60.015784565,FEMA4ImagesEEG,001,100076,
AFNE01.JPG,AFNE01.JPG,AFNE01.JPG,AFNE01.JPG,AFNE01.JPG,AFNE01.JPG,,,,,,,,,,,,,2,4,24,5,,,,,,,,,,,AMSA08.jpg,AMSA07.jpg,AMNE10.jpg,AMNE07.jpg,AMNE07.jpg,MN,1,num_4,32,num_2,3.08309603919,,,2017_Mar_14_1737,60.015784565,FEMA4ImagesEEG,001,100076,
AFNE01.JPG,AFNE01.JPG,AFNE01.JPG,AFNE01.JPG,AFNE01.JPG,AFNE01.JPG,,,,,,,,,,,,,2,5,25,9,,,,,,,,,,,AMSA13.jpg,AMNE12.jpg,AMNE18.jpg,AMSA01.jpg,AMNE12.jpg,MN,1,num_6,32,num_8,1.00016614335,,,2017_Mar_14_1737,60.015784565,FEMA4ImagesEEG,001,100076,
AFNE01.JPG,AFNE01.JPG,AFNE01.JPG,AFNE01.JPG,AFNE01.JPG,AFNE01.JPG,,,,,,,,,,,,,2,6,26,7,,,,,,,,,,,AMNE01.jpg,AMNE17.jpg,AMSA13.jpg,AMSA14.jpg,AMSA13.jpg,MS,2,num_2,32,num_6,2.63336818706,,,2017_Mar_14_1737,60.015784565,FEMA4ImagesEEG,001,100076,
AFNE01.JPG,AFNE01.JPG,AFNE01.JPG,AFNE01.JPG,AFNE01.JPG,AFNE01.JPG,,,,,,,,,,,,,2,7,27,4,,,,,,,,,,,AMNE09.jpg,AMNE05.jpg,AMSA02.jpg,AMSA13.jpg,AMSA13.jpg,MS,2,num_4,32,num_6,1.16671199794,,,2017_Mar_14_1737,60.015784565,FEMA4ImagesEEG,001,100076,
AFNE01.JPG,AFNE01.JPG,AFNE01.JPG,AFNE01.JPG,AFNE01.JPG,AFNE01.JPG,,,,,,,,,,,,,2,8,28,1,,,,,,,,,,,AMNE02.jpg,AMSA10.jpg,AMNE13.jpg,AMSA17.jpg,AMNE13.jpg,MN,1,num_2,32,num_6,0.65014673851,,,2017_Mar_14_1737,60.015784565,FEMA4ImagesEEG,001,100076,
AFNE01.JPG,AFNE01.JPG,AFNE01.JPG,AFNE01.JPG,AFNE01.JPG,AFNE01.JPG,,,,,,,,,,,,,2,9,29,8,,,,,,,,,,,AMNE16.jpg,AMSA06.jpg,AMNE18.jpg,AMSA02.jpg,AMNE16.jpg,MN,1,num_8,16,num_8,0.966771014035,,,2017_Mar_14_1737,60.015784565,FEMA4ImagesEEG,001,100076,
AFNE01.JPG,AFNE01.JPG,AFNE01.JPG,AFNE01.JPG,AFNE01.JPG,AFNE01.JPG,,,,,,,,,,,,,3,0,30,1,,,,,,,,,,,AMNE10.jpg,AMNE05.jpg,AMSA19.jpg,AMSA03.jpg,AMSA03.jpg,MS,2,num_4,16,num_4,0.650180737022,,,2017_Mar_14_1737,60.015784565,FEMA4ImagesEEG,001,100076,
AFNE01.JPG,AFNE01.JPG,AFNE01.JPG,AFNE01.JPG,AFNE01.JPG,AFNE01.JPG,,,,,,,,,,,,,3,1,31,2,,,,,,,,,,,AMNE02.jpg,AMNE17.jpg,AMSA06.jpg,AMSA01.jpg,AMSA01.jpg,MS,2,num_4,32,num_2,2.81665827398,,,2017_Mar_14_1737,60.015784565,FEMA4ImagesEEG,001,100076,
AFNE01.JPG,AFNE01.JPG,AFNE01.JPG,AFNE01.JPG,AFNE01.JPG,AFNE01.JPG,,,,,,,,,,,,,3,2,32,3,,,,,,,,,,,AMSA15.jpg,AMSA07.jpg,AMNE12.jpg,AMNE13.jpg,AMNE13.jpg,MN,1,num_4,32,num_6,1.81677598553,,,2017_Mar_14_1737,60.015784565,FEMA4ImagesEEG,001,100076,
AFNE01.JPG,AFNE01.JPG,AFNE01.JPG,AFNE01.JPG,AFNE01.JPG,AFNE01.JPG,,,,,,,,,,,,,3,3,33,4,,,,,,,,,,,AMSA08.jpg,AMNE09.jpg,AMNE08.jpg,AMSA20.jpg,AMSA08.jpg,MS,2,num_8,32,num_6,0.950135191903,,,2017_Mar_14_1737,60.015784565,FEMA4ImagesEEG,001,100076,
AFNE01.JPG,AFNE01.JPG,AFNE01.JPG,AFNE01.JPG,AFNE01.JPG,AFNE01.JPG,,,,,,,,,,,,,3,4,34,9,,,,,,,,,,,AMSA16.jpg,AMNE08.jpg,AMSA02.jpg,AMNE19.jpg,AMSA02.jpg,MS,2,num_2,16,num_2,1.41643375595,,,2017_Mar_14_1737,60.015784565,FEMA4ImagesEEG,001,100076,
AFNE01.JPG,AFNE01.JPG,AFNE01.JPG,AFNE01.JPG,AFNE01.JPG,AFNE01.JPG,,,,,,,,,,,,,3,5,35,8,,,,,,,,,,,AMNE03.jpg,AMSA11.jpg,AMNE10.jpg,AMSA04.jpg,AMSA04.jpg,MS,2,num_4,16,num_4,0.966794107342,,,2017_Mar_14_1737,60.015784565,FEMA4ImagesEEG,001,100076,
AFNE01.JPG,AFNE01.JPG,AFNE01.JPG,AFNE01.JPG,AFNE01.JPG,AFNE01.JPG,,,,,,,,,,,,,3,6,36,0,,,,,,,,,,,AMSA12.jpg,AMNE04.jpg,AMSA01.jpg,AMNE10.jpg,AMSA12.jpg,MS,2,num_8,32,num_4,1.76667671651,,,2017_Mar_14_1737,60.015784565,FEMA4ImagesEEG,001,100076,
AFNE01.JPG,AFNE01.JPG,AFNE01.JPG,AFNE01.JPG,AFNE01.JPG,AFNE01.JPG,,,,,,,,,,,,,3,7,37,5,,,,,,,,,,,AMNE14.jpg,AMSA20.jpg,AMNE11.jpg,AMSA04.jpg,AMNE11.jpg,MN,1,num_2,32,num_8,3.58338823332,,,2017_Mar_14_1737,60.015784565,FEMA4ImagesEEG,001,100076,
AFNE01.JPG,AFNE01.JPG,AFNE01.JPG,AFNE01.JPG,AFNE01.JPG,AFNE01.JPG,,,,,,,,,,,,,3,8,38,7,,,,,,,,,,,AMSA04.jpg,AMNE15.jpg,AMSA07.jpg,AMNE14.jpg,AMSA04.jpg,MS,2,num_8,32,num_2,1.93334381084,,,2017_Mar_14_1737,60.015784565,FEMA4ImagesEEG,001,100076,
AFNE01.JPG,AFNE01.JPG,AFNE01.JPG,AFNE01.JPG,AFNE01.JPG,AFNE01.JPG,,,,,,,,,,,,,3,9,39,6,,,,,,,,,,,AMSA07.jpg,AMNE04.jpg,AMNE14.jpg,AMSA19.jpg,AMSA07.jpg,MS,2,num_8,32,num_4,1.39999583038,,,2017_Mar_14_1737,60.015784565,FEMA4ImagesEEG,001,100076,
AFNE01.JPG,AFNE01.JPG,AFNE01.JPG,AFNE01.JPG,AFNE01.JPG,AFNE01.JPG,,,,,,,,,,,,,4,0,40,0,,,,,,,,,,,AMSA11.jpg,AMNE11.jpg,AMNE10.jpg,AMSA14.jpg,AMNE11.jpg,MN,1,num_6,32,num_8,1.83340282703,,,2017_Mar_14_1737,60.015784565,FEMA4ImagesEEG,001,100076,
AFNE01.JPG,AFNE01.JPG,AFNE01.JPG,AFNE01.JPG,AFNE01.JPG,AFNE01.JPG,,,,,,,,,,,,,4,1,41,8,,,,,,,,,,,AMSA04.jpg,AMNE02.jpg,AMSA07.jpg,AMNE01.jpg,AMNE01.jpg,MN,1,num_4,16,num_4,0.966750486754,,,2017_Mar_14_1737,60.015784565,FEMA4ImagesEEG,001,100076,
AFNE01.JPG,AFNE01.JPG,AFNE01.JPG,AFNE01.JPG,AFNE01.JPG,AFNE01.JPG,,,,,,,,,,,,,4,2,42,6,,,,,,,,,,,AMNE11.jpg,AMSA17.jpg,AMNE12.jpg,AMSA08.jpg,AMSA08.jpg,MS,2,num_4,32,num_8,1.78336898895,,,2017_Mar_14_1737,60.015784565,FEMA4ImagesEEG,001,100076,
AFNE01.JPG,AFNE01.JPG,AFNE01.JPG,AFNE01.JPG,AFNE01.JPG,AFNE01.JPG,,,,,,,,,,,,,4,3,43,2,,,,,,,,,,,AMSA06.jpg,AMNE20.jpg,AMSA11.jpg,AMNE03.jpg,AMSA06.jpg,MS,2,num_8,32,num_4,1.11672274274,,,2017_Mar_14_1737,60.015784565,FEMA4ImagesEEG,001,100076,
AFNE01.JPG,AFNE01.JPG,AFNE01.JPG,AFNE01.JPG,AFNE01.JPG,AFNE01.JPG,,,,,,,,,,,,,4,4,44,1,,,,,,,,,,,AMSA01.jpg,AMNE07.jpg,AMSA20.jpg,AMNE14.jpg,AMSA20.jpg,MS,2,num_2,32,num_8,1.80009076942,,,2017_Mar_14_1737,60.015784565,FEMA4ImagesEEG,001,100076,
AFNE01.JPG,AFNE01.JPG,AFNE01.JPG,AFNE01.JPG,AFNE01.JPG,AFNE01.JPG,,,,,,,,,,,,,4,5,45,5,,,,,,,,,,,AMSA07.jpg,AMSA04.jpg,AMNE05.jpg,AMNE19.jpg,AMNE05.jpg,MN,1,num_2,32,num_4,0.933431693644,,,2017_Mar_14_1737,60.015784565,FEMA4ImagesEEG,001,100076,
AFNE01.JPG,AFNE01.JPG,AFNE01.JPG,AFNE01.JPG,AFNE01.JPG,AFNE01.JPG,,,,,,,,,,,,,4,6,46,4,,,,,,,,,,,AMNE04.jpg,AMSA13.jpg,AMNE10.jpg,AMSA17.jpg,AMNE10.jpg,MN,1,num_2,32,num_4,2.81685745349,,,2017_Mar_14_1737,60.015784565,FEMA4ImagesEEG,001,100076,
AFNE01.JPG,AFNE01.JPG,AFNE01.JPG,AFNE01.JPG,AFNE01.JPG,AFNE01.JPG,,,,,,,,,,,,,4,7,47,3,,,,,,,,,,,AMNE04.jpg,AMSA02.jpg,AMSA15.jpg,AMNE20.jpg,AMNE20.jpg,MN,1,num_4,16,num_4,0.550133908924,,,2017_Mar_14_1737,60.015784565,FEMA4ImagesEEG,001,100076,
AFNE01.JPG,AFNE01.JPG,AFNE01.JPG,AFNE01.JPG,AFNE01.JPG,AFNE01.JPG,,,,,,,,,,,,,4,8,48,7,,,,,,,,,,,AMSA15.jpg,AMNE16.jpg,AMNE10.jpg,AMSA07.jpg,AMSA15.jpg,MS,2,num_8,16,num_8,0.850162134098,,,2017_Mar_14_1737,60.015784565,FEMA4ImagesEEG,001,100076,
AFNE01.JPG,AFNE01.JPG,AFNE01.JPG,AFNE01.JPG,AFNE01.JPG,AFNE01.JPG,,,,,,,,,,,,,4,9,49,9,,,,,,,,,,,AMNE14.jpg,AMSA14.jpg,AMNE01.jpg,AMSA04.jpg,AMNE14.jpg,MN,1,num_8,32,num_2,1.8000426584,,,2017_Mar_14_1737,60.015784565,FEMA4ImagesEEG,001,100076,
AFNE01.JPG,AFNE01.JPG,AFNE01.JPG,AFNE01.JPG,AFNE01.JPG,AFNE01.JPG,,,,,,,,,,,,,5,0,50,6,,,,,,,,,,,AMSA03.jpg,AMSA18.jpg,AMNE12.jpg,AMNE11.jpg,AMSA03.jpg,MS,2,num_8,32,num_4,2.50002950808,,,2017_Mar_14_1737,60.015784565,FEMA4ImagesEEG,001,100076,
AFNE01.JPG,AFNE01.JPG,AFNE01.JPG,AFNE01.JPG,AFNE01.JPG,AFNE01.JPG,,,,,,,,,,,,,5,1,51,0,,,,,,,,,,,AMSA08.jpg,AMNE11.jpg,AMSA10.jpg,AMNE15.jpg,AMSA08.jpg,MS,2,num_8,32,num_6,0.750123645237,,,2017_Mar_14_1737,60.015784565,FEMA4ImagesEEG,001,100076,
AFNE01.JPG,AFNE01.JPG,AFNE01.JPG,AFNE01.JPG,AFNE01.JPG,AFNE01.JPG,,,,,,,,,,,,,5,2,52,3,,,,,,,,,,,AMNE01.jpg,AMNE19.jpg,AMSA11.jpg,AMSA04.jpg,AMNE19.jpg,MN,1,num_6,32,num_2,0.883512680477,,,2017_Mar_14_1737,60.015784565,FEMA4ImagesEEG,001,100076,
AFNE01.JPG,AFNE01.JPG,AFNE01.JPG,AFNE01.JPG,AFNE01.JPG,AFNE01.JPG,,,,,,,,,,,,,5,3,53,9,,,,,,,,,,,AMNE20.jpg,AMNE01.jpg,AMSA10.jpg,AMSA16.jpg,AMSA10.jpg,MS,2,num_2,16,num_2,0.916738138243,,,2017_Mar_14_1737,60.015784565,FEMA4ImagesEEG,001,100076,
AFNE01.JPG,AFNE01.JPG,AFNE01.JPG,AFNE01.JPG,AFNE01.JPG,AFNE01.JPG,,,,,,,,,,,,,5,4,54,8,,,,,,,,,,,AMSA06.jpg,AMNE02.jpg,AMNE19.jpg,AMSA10.jpg,AMNE19.jpg,MN,1,num_2,16,num_2,1.46658755076,,,2017_Mar_14_1737,60.015784565,FEMA4ImagesEEG,001,100076,
AFNE01.JPG,AFNE01.JPG,AFNE01.JPG,AFNE01.JPG,AFNE01.JPG,AFNE01.JPG,,,,,,,,,,,,,5,5,55,2,,,,,,,,,,,AMNE09.jpg,AMSA01.jpg,AMSA11.jpg,AMNE11.jpg,AMNE09.jpg,MN,1,num_8,32,num_4,0.866778391122,,,2017_Mar_14_1737,60.015784565,FEMA4ImagesEEG,001,100076,
AFNE01.JPG,AFNE01.JPG,AFNE01.JPG,AFNE01.JPG,AFNE01.JPG,AFNE01.JPG,,,,,,,,,,,,,5,6,56,4,,,,,,,,,,,AMSA16.jpg,AMNE18.jpg,AMNE14.jpg,AMSA09.jpg,AMSA16.jpg,MS,2,num_8,32,num_6,0.766814314004,,,2017_Mar_14_1737,60.015784565,FEMA4ImagesEEG,001,100076,
AFNE01.JPG,AFNE01.JPG,AFNE01.JPG,AFNE01.JPG,AFNE01.JPG,AFNE01.JPG,,,,,,,,,,,,,5,7,57,7,,,,,,,,,,,AMSA08.jpg,AMSA05.jpg,AMNE03.jpg,AMNE20.jpg,AMSA08.jpg,MS,2,num_8,32,num_4,2.13329473761,,,2017_Mar_14_1737,60.015784565,FEMA4ImagesEEG,001,100076,
AFNE01.JPG,AFNE01.JPG,AFNE01.JPG,AFNE01.JPG,AFNE01.JPG,AFNE01.JPG,,,,,,,,,,,,,5,8,58,1,,,,,,,,,,,AMNE12.jpg,AMSA02.jpg,AMNE05.jpg,AMSA01.jpg,AMNE05.jpg,MN,1,num_2,32,num_8,0.766834841401,,,2017_Mar_14_1737,60.015784565,FEMA4ImagesEEG,001,100076,
AFNE01.JPG,AFNE01.JPG,AFNE01.JPG,AFNE01.JPG,AFNE01.JPG,AFNE01.JPG,,,,,,,,,,,,,5,9,59,5,,,,,,,,,,,AMSA20.jpg,AMNE10.jpg,AMSA14.jpg,AMNE12.jpg,AMNE10.jpg,MN,1,num_6,32,num_8,1.00020783953,,,2017_Mar_14_1737,60.015784565,FEMA4ImagesEEG,001,100076,
,,,,,,,,,,,,,,,,,,,,,,,,,,,,,,,,,,,,,,,,,,,space,28.9142889675,2017_Mar_14_1737,60.015784565,FEMA4ImagesEEG,001,100076,
AFNE01.JPG,AFNE01.JPG,AFNE01.JPG,AFNE01.JPG,AFNE01.JPG,AFNE01.JPG,,,,,,,,,,,,,,,,,0,0,0,4,,,,,,,AFSA07.jpg,AFNE12.jpg,AFNE04.jpg,AFSA20.jpg,AFNE12.jpg,FN,3,num_6,16,num_6,0.450181057735,,,2017_Mar_14_1737,60.015784565,FEMA4ImagesEEG,001,100076,
AFNE01.JPG,AFNE01.JPG,AFNE01.JPG,AFNE01.JPG,AFNE01.JPG,AFNE01.JPG,,,,,,,,,,,,,,,,,0,1,1,1,,,,,,,AFNE12.jpg,AFSA07.jpg,AFSA02.jpg,AFNE20.jpg,AFSA07.jpg,FS,4,num_6,32,num_8,4.36685568944,,,2017_Mar_14_1737,60.015784565,FEMA4ImagesEEG,001,100076,
AFNE01.JPG,AFNE01.JPG,AFNE01.JPG,AFNE01.JPG,AFNE01.JPG,AFNE01.JPG,,,,,,,,,,,,,,,,,0,2,2,8,,,,,,,AFSA14.jpg,AFNE04.jpg,AFSA02.jpg,AFNE03.jpg,AFNE04.jpg,FN,3,num_6,16,num_6,0.800142408581,,,2017_Mar_14_1737,60.015784565,FEMA4ImagesEEG,001,100076,
AFNE01.JPG,AFNE01.JPG,AFNE01.JPG,AFNE01.JPG,AFNE01.JPG,AFNE01.JPG,,,,,,,,,,,,,,,,,0,3,3,5,,,,,,,AFSA02.jpg,AFNE06.jpg,AFNE02.jpg,AFSA10.jpg,AFSA02.jpg,FS,4,num_8,16,num_8,3.64993376716,,,2017_Mar_14_1737,60.015784565,FEMA4ImagesEEG,001,100076,
AFNE01.JPG,AFNE01.JPG,AFNE01.JPG,AFNE01.JPG,AFNE01.JPG,AFNE01.JPG,,,,,,,,,,,,,,,,,0,4,4,0,,,,,,,AFSA15.jpg,AFNE03.jpg,AFNE04.jpg,AFSA17.jpg,AFNE04.jpg,FN,3,num_2,32,num_4,2.783309652,,,2017_Mar_14_1737,60.015784565,FEMA4ImagesEEG,001,100076,
AFNE01.JPG,AFNE01.JPG,AFNE01.JPG,AFNE01.JPG,AFNE01.JPG,AFNE01.JPG,,,,,,,,,,,,,,,,,0,5,5,7,,,,,,,AFNE06.jpg,AFSA18.jpg,AFSA09.jpg,AFNE20.jpg,AFSA09.jpg,FS,4,num_2,32,num_4,1.20018891589,,,2017_Mar_14_1737,60.015784565,FEMA4ImagesEEG,001,100076,
AFNE01.JPG,AFNE01.JPG,AFNE01.JPG,AFNE01.JPG,AFNE01.JPG,AFNE01.JPG,,,,,,,,,,,,,,,,,0,6,6,2,,,,,,,AFSA10.jpg,AFNE05.jpg,AFNE08.jpg,AFSA04.jpg,AFSA10.jpg,FS,4,num_8,32,num_6,0.750127173436,,,2017_Mar_14_1737,60.015784565,FEMA4ImagesEEG,001,100076,
AFNE01.JPG,AFNE01.JPG,AFNE01.JPG,AFNE01.JPG,AFNE01.JPG,AFNE01.JPG,,,,,,,,,,,,,,,,,0,7,7,3,,,,,,,AFNE10.jpg,AFSA07.jpg,AFSA17.jpg,AFNE12.jpg,AFNE12.jpg,FN,3,num_4,32,num_6,4.23293358437,,,2017_Mar_14_1737,60.015784565,FEMA4ImagesEEG,001,100076,
AFNE01.JPG,AFNE01.JPG,AFNE01.JPG,AFNE01.JPG,AFNE01.JPG,AFNE01.JPG,,,,,,,,,,,,,,,,,0,8,8,9,,,,,,,AFNE06.jpg,AFSA16.jpg,AFSA10.jpg,AFNE01.jpg,AFSA16.jpg,FS,4,num_6,16,num_6,0.833459918678,,,2017_Mar_14_1737,60.015784565,FEMA4ImagesEEG,001,100076,
AFNE01.JPG,AFNE01.JPG,AFNE01.JPG,AFNE01.JPG,AFNE01.JPG,AFNE01.JPG,,,,,,,,,,,,,,,,,0,9,9,6,,,,,,,AFNE14.jpg,AFSA18.jpg,AFSA08.jpg,AFNE01.jpg,AFSA18.jpg,FS,4,num_6,32,num_8,0.98343153327,,,2017_Mar_14_1737,60.015784565,FEMA4ImagesEEG,001,100076,
AFNE01.JPG,AFNE01.JPG,AFNE01.JPG,AFNE01.JPG,AFNE01.JPG,AFNE01.JPG,,,,,,,,,,,,,,,,,1,0,10,1,,,,,,,AFSA07.jpg,AFSA10.jpg,AFNE01.jpg,AFNE04.jpg,AFSA10.jpg,FS,4,num_6,16,num_6,0.78344532504,,,2017_Mar_14_1737,60.015784565,FEMA4ImagesEEG,001,100076,
AFNE01.JPG,AFNE01.JPG,AFNE01.JPG,AFNE01.JPG,AFNE01.JPG,AFNE01.JPG,,,,,,,,,,,,,,,,,1,1,11,9,,,,,,,AFNE20.jpg,AFSA06.jpg,AFSA16.jpg,AFNE09.jpg,AFSA16.jpg,FS,4,num_2,32,num_8,1.51670927164,,,2017_Mar_14_1737,60.015784565,FEMA4ImagesEEG,001,100076,
AFNE01.JPG,AFNE01.JPG,AFNE01.JPG,AFNE01.JPG,AFNE01.JPG,AFNE01.JPG,,,,,,,,,,,,,,,,,1,2,12,7,,,,,,,AFNE07.jpg,AFSA09.jpg,AFSA17.jpg,AFNE11.jpg,AFSA17.jpg,FS,4,num_2,32,num_4,0.966714563838,,,2017_Mar_14_1737,60.015784565,FEMA4ImagesEEG,001,100076,
AFNE01.JPG,AFNE01.JPG,AFNE01.JPG,AFNE01.JPG,AFNE01.JPG,AFNE01.JPG,,,,,,,,,,,,,,,,,1,3,13,4,,,,,,,AFSA14.jpg,AFNE06.jpg,AFSA13.jpg,AFNE07.jpg,AFNE06.jpg,FN,3,num_6,32,num_4,0.916687461315,,,2017_Mar_14_1737,60.015784565,FEMA4ImagesEEG,001,100076,
AFNE01.JPG,AFNE01.JPG,AFNE01.JPG,AFNE01.JPG,AFNE01.JPG,AFNE01.JPG,,,,,,,,,,,,,,,,,1,4,14,2,,,,,,,AFNE04.jpg,AFSA08.jpg,AFNE19.jpg,AFSA13.jpg,AFNE04.jpg,FN,3,num_8,32,num_2,3.35000432999,,,2017_Mar_14_1737,60.015784565,FEMA4ImagesEEG,001,100076,
AFNE01.JPG,AFNE01.JPG,AFNE01.JPG,AFNE01.JPG,AFNE01.JPG,AFNE01.JPG,,,,,,,,,,,,,,,,,1,5,15,0,,,,,,,AFNE15.jpg,AFSA10.jpg,AFNE07.jpg,AFSA06.jpg,AFNE07.jpg,FN,3,num_2,48,None,,,,2017_Mar_14_1737,60.015784565,FEMA4ImagesEEG,001,100076,
AFNE01.JPG,AFNE01.JPG,AFNE01.JPG,AFNE01.JPG,AFNE01.JPG,AFNE01.JPG,,,,,,,,,,,,,,,,,1,6,16,6,,,,,,,AFNE15.jpg,AFNE08.jpg,AFSA12.jpg,AFSA18.jpg,AFNE15.jpg,FN,3,num_8,16,num_8,0.70023317798,,,2017_Mar_14_1737,60.015784565,FEMA4ImagesEEG,001,100076,
AFNE01.JPG,AFNE01.JPG,AFNE01.JPG,AFNE01.JPG,AFNE01.JPG,AFNE01.JPG,,,,,,,,,,,,,,,,,1,7,17,5,,,,,,,AFNE08.jpg,AFSA15.jpg,AFSA06.jpg,AFNE18.jpg,AFSA06.jpg,FS,4,num_2,16,num_2,0.633436183969,,,2017_Mar_14_1737,60.015784565,FEMA4ImagesEEG,001,100076,
AFNE01.JPG,AFNE01.JPG,AFNE01.JPG,AFNE01.JPG,AFNE01.JPG,AFNE01.JPG,,,,,,,,,,,,,,,,,1,8,18,3,,,,,,,AFNE04.jpg,AFSA18.jpg,AFNE15.jpg,AFSA05.jpg,AFSA18.jpg,FS,4,num_6,32,num_4,2.18335551786,,,2017_Mar_14_1737,60.015784565,FEMA4ImagesEEG,001,100076,
AFNE01.JPG,AFNE01.JPG,AFNE01.JPG,AFNE01.JPG,AFNE01.JPG,AFNE01.JPG,,,,,,,,,,,,,,,,,1,9,19,8,,,,,,,AFNE04.jpg,AFSA09.jpg,AFSA08.jpg,AFNE01.jpg,AFNE01.jpg,FN,3,num_4,32,num_6,2.61688824452,,,2017_Mar_14_1737,60.015784565,FEMA4ImagesEEG,001,100076,
AFNE01.JPG,AFNE01.JPG,AFNE01.JPG,AFNE01.JPG,AFNE01.JPG,AFNE01.JPG,,,,,,,,,,,,,,,,,2,0,20,9,,,,,,,AFSA09.jpg,AFSA08.jpg,AFNE05.jpg,AFNE07.jpg,AFSA09.jpg,FS,4,num_8,32,num_6,0.6667825607,,,2017_Mar_14_1737,60.015784565,FEMA4ImagesEEG,001,100076,
AFNE01.JPG,AFNE01.JPG,AFNE01.JPG,AFNE01.JPG,AFNE01.JPG,AFNE01.JPG,,,,,,,,,,,,,,,,,2,1,21,5,,,,,,,AFNE04.jpg,AFNE09.jpg,AFSA06.jpg,AFSA14.jpg,AFNE09.jpg,FN,3,num_6,48,None,,,,2017_Mar_14_1737,60.015784565,FEMA4ImagesEEG,001,100076,
AFNE01.JPG,AFNE01.JPG,AFNE01.JPG,AFNE01.JPG,AFNE01.JPG,AFNE01.JPG,,,,,,,,,,,,,,,,,2,2,22,8,,,,,,,AFNE20.jpg,AFSA02.jpg,AFSA11.jpg,AFNE16.jpg,AFNE16.jpg,FN,3,num_4,16,num_4,0.600153955224,,,2017_Mar_14_1737,60.015784565,FEMA4ImagesEEG,001,100076,
AFNE01.JPG,AFNE01.JPG,AFNE01.JPG,AFNE01.JPG,AFNE01.JPG,AFNE01.JPG,,,,,,,,,,,,,,,,,2,3,23,4,,,,,,,AFSA09.jpg,AFNE05.jpg,AFSA06.jpg,AFNE09.jpg,AFSA09.jpg,FS,4,num_8,32,num_6,0.616778872209,,,2017_Mar_14_1737,60.015784565,FEMA4ImagesEEG,001,100076,
AFNE01.JPG,AFNE01.JPG,AFNE01.JPG,AFNE01.JPG,AFNE01.JPG,AFNE01.JPG,,,,,,,,,,,,,,,,,2,4,24,6,,,,,,,AFSA12.jpg,AFSA20.jpg,AFNE09.jpg,AFNE15.jpg,AFSA12.jpg,FS,4,num_8,48,None,,,,2017_Mar_14_1737,60.015784565,FEMA4ImagesEEG,001,100076,
AFNE01.JPG,AFNE01.JPG,AFNE01.JPG,AFNE01.JPG,AFNE01.JPG,AFNE01.JPG,,,,,,,,,,,,,,,,,2,5,25,0,,,,,,,AFNE19.jpg,AFSA09.jpg,AFSA07.jpg,AFNE04.jpg,AFNE19.jpg,FN,3,num_8,32,num_6,1.6834591169,,,2017_Mar_14_1737,60.015784565,FEMA4ImagesEEG,001,100076,
AFNE01.JPG,AFNE01.JPG,AFNE01.JPG,AFNE01.JPG,AFNE01.JPG,AFNE01.JPG,,,,,,,,,,,,,,,,,2,6,26,7,,,,,,,AFSA18.jpg,AFSA20.jpg,AFNE15.jpg,AFNE14.jpg,AFSA20.jpg,FS,4,num_6,32,num_2,1.39999198151,,,2017_Mar_14_1737,60.015784565,FEMA4ImagesEEG,001,100076,
AFNE01.JPG,AFNE01.JPG,AFNE01.JPG,AFNE01.JPG,AFNE01.JPG,AFNE01.JPG,,,,,,,,,,,,,,,,,2,7,27,2,,,,,,,AFNE16.jpg,AFSA03.jpg,AFNE20.jpg,AFSA02.jpg,AFNE20.jpg,FN,3,num_2,32,num_6,1.8834007422,,,2017_Mar_14_1737,60.015784565,FEMA4ImagesEEG,001,100076,
AFNE01.JPG,AFNE01.JPG,AFNE01.JPG,AFNE01.JPG,AFNE01.JPG,AFNE01.JPG,,,,,,,,,,,,,,,,,2,8,28,1,,,,,,,AFNE12.jpg,AFSA01.jpg,AFSA14.jpg,AFNE05.jpg,AFNE05.jpg,FN,3,num_4,16,num_4,1.16674920375,,,2017_Mar_14_1737,60.015784565,FEMA4ImagesEEG,001,100076,
AFNE01.JPG,AFNE01.JPG,AFNE01.JPG,AFNE01.JPG,AFNE01.JPG,AFNE01.JPG,,,,,,,,,,,,,,,,,2,9,29,3,,,,,,,AFSA13.jpg,AFSA16.jpg,AFNE12.jpg,AFNE01.jpg,AFNE12.jpg,FN,3,num_2,32,num_4,0.683438268781,,,2017_Mar_14_1737,60.015784565,FEMA4ImagesEEG,001,100076,
AFNE01.JPG,AFNE01.JPG,AFNE01.JPG,AFNE01.JPG,AFNE01.JPG,AFNE01.JPG,,,,,,,,,,,,,,,,,3,0,30,5,,,,,,,AFSA17.jpg,AFNE05.jpg,AFNE11.jpg,AFSA18.jpg,AFSA17.jpg,FS,4,num_8,32,num_4,1.4000894865,,,2017_Mar_14_1737,60.015784565,FEMA4ImagesEEG,001,100076,
AFNE01.JPG,AFNE01.JPG,AFNE01.JPG,AFNE01.JPG,AFNE01.JPG,AFNE01.JPG,,,,,,,,,,,,,,,,,3,1,31,8,,,,,,,AFSA13.jpg,AFSA17.jpg,AFNE20.jpg,AFNE13.jpg,AFNE20.jpg,FN,3,num_2,32,num_6,0.649986368546,,,2017_Mar_14_1737,60.015784565,FEMA4ImagesEEG,001,100076,
AFNE01.JPG,AFNE01.JPG,AFNE01.JPG,AFNE01.JPG,AFNE01.JPG,AFNE01.JPG,,,,,,,,,,,,,,,,,3,2,32,7,,,,,,,AFSA07.jpg,AFSA11.jpg,AFNE14.jpg,AFNE18.jpg,AFNE14.jpg,FN,3,num_2,32,num_6,1.44993793679,,,2017_Mar_14_1737,60.015784565,FEMA4ImagesEEG,001,100076,
AFNE01.JPG,AFNE01.JPG,AFNE01.JPG,AFNE01.JPG,AFNE01.JPG,AFNE01.JPG,,,,,,,,,,,,,,,,,3,3,33,4,,,,,,,AFNE12.jpg,AFNE16.jpg,AFSA09.jpg,AFSA01.jpg,AFNE16.jpg,FN,3,num_6,16,num_6,0.466808219906,,,2017_Mar_14_1737,60.015784565,FEMA4ImagesEEG,001,100076,
AFNE01.JPG,AFNE01.JPG,AFNE01.JPG,AFNE01.JPG,AFNE01.JPG,AFNE01.JPG,,,,,,,,,,,,,,,,,3,4,34,0,,,,,,,AFSA20.jpg,AFSA15.jpg,AFNE14.jpg,AFNE10.jpg,AFSA20.jpg,FS,4,num_8,16,num_8,0.85013551265,,,2017_Mar_14_1737,60.015784565,FEMA4ImagesEEG,001,100076,
AFNE01.JPG,AFNE01.JPG,AFNE01.JPG,AFNE01.JPG,AFNE01.JPG,AFNE01.JPG,,,,,,,,,,,,,,,,,3,5,35,1,,,,,,,AFSA13.jpg,AFSA06.jpg,AFNE20.jpg,AFNE16.jpg,AFSA06.jpg,FS,4,num_6,32,num_4,4.54983658291,,,2017_Mar_14_1737,60.015784565,FEMA4ImagesEEG,001,100076,
AFNE01.JPG,AFNE01.JPG,AFNE01.JPG,AFNE01.JPG,AFNE01.JPG,AFNE01.JPG,,,,,,,,,,,,,,,,,3,6,36,2,,,,,,,AFNE18.jpg,AFSA17.jpg,AFNE14.jpg,AFSA11.jpg,AFNE14.jpg,FN,3,num_2,32,num_4,2.25009349576,,,2017_Mar_14_1737,60.015784565,FEMA4ImagesEEG,001,100076,
AFNE01.JPG,AFNE01.JPG,AFNE01.JPG,AFNE01.JPG,AFNE01.JPG,AFNE01.JPG,,,,,,,,,,,,,,,,,3,7,37,9,,,,,,,AFNE05.jpg,AFSA02.jpg,AFSA08.jpg,AFNE15.jpg,AFSA08.jpg,FS,4,num_2,32,num_6,0.950083232019,,,2017_Mar_14_1737,60.015784565,FEMA4ImagesEEG,001,100076,
AFNE01.JPG,AFNE01.JPG,AFNE01.JPG,AFNE01.JPG,AFNE01.JPG,AFNE01.JPG,,,,,,,,,,,,,,,,,3,8,38,3,,,,,,,AFSA19.jpg,AFSA05.jpg,AFNE01.jpg,AFNE19.jpg,AFNE01.jpg,FN,3,num_2,32,num_8,2.20005099766,,,2017_Mar_14_1737,60.015784565,FEMA4ImagesEEG,001,100076,
AFNE01.JPG,AFNE01.JPG,AFNE01.JPG,AFNE01.JPG,AFNE01.JPG,AFNE01.JPG,,,,,,,,,,,,,,,,,3,9,39,6,,,,,,,AFNE12.jpg,AFSA13.jpg,AFNE17.jpg,AFSA02.jpg,AFNE12.jpg,FN,3,num_8,16,num_8,0.866804691788,,,2017_Mar_14_1737,60.015784565,FEMA4ImagesEEG,001,100076,
AFNE01.JPG,AFNE01.JPG,AFNE01.JPG,AFNE01.JPG,AFNE01.JPG,AFNE01.JPG,,,,,,,,,,,,,,,,,4,0,40,3,,,,,,,AFNE01.jpg,AFSA10.jpg,AFSA20.jpg,AFNE13.jpg,AFSA20.jpg,FS,4,num_2,32,num_4,0.800140163396,,,2017_Mar_14_1737,60.015784565,FEMA4ImagesEEG,001,100076,
AFNE01.JPG,AFNE01.JPG,AFNE01.JPG,AFNE01.JPG,AFNE01.JPG,AFNE01.JPG,,,,,,,,,,,,,,,,,4,1,41,5,,,,,,,AFSA11.jpg,AFSA09.jpg,AFNE02.jpg,AFNE03.jpg,AFSA09.jpg,FS,4,num_6,32,num_8,1.45017785032,,,2017_Mar_14_1737,60.015784565,FEMA4ImagesEEG,001,100076,
AFNE01.JPG,AFNE01.JPG,AFNE01.JPG,AFNE01.JPG,AFNE01.JPG,AFNE01.JPG,,,,,,,,,,,,,,,,,4,2,42,7,,,,,,,AFNE04.jpg,AFNE15.jpg,AFSA16.jpg,AFSA09.jpg,AFNE04.jpg,FN,3,num_8,32,num_2,1.63344131579,,,2017_Mar_14_1737,60.015784565,FEMA4ImagesEEG,001,100076,
AFNE01.JPG,AFNE01.JPG,AFNE01.JPG,AFNE01.JPG,AFNE01.JPG,AFNE01.JPG,,,,,,,,,,,,,,,,,4,3,43,6,,,,,,,AFNE04.jpg,AFSA10.jpg,AFNE12.jpg,AFSA19.jpg,AFNE04.jpg,FN,3,num_8,32,num_4,0.816759627778,,,2017_Mar_14_1737,60.015784565,FEMA4ImagesEEG,001,100076,
AFNE01.JPG,AFNE01.JPG,AFNE01.JPG,AFNE01.JPG,AFNE01.JPG,AFNE01.JPG,,,,,,,,,,,,,,,,,4,4,44,9,,,,,,,AFNE02.jpg,AFSA09.jpg,AFNE18.jpg,AFSA19.jpg,AFSA09.jpg,FS,4,num_6,32,num_4,3.76658402267,,,2017_Mar_14_1737,60.015784565,FEMA4ImagesEEG,001,100076,
AFNE01.JPG,AFNE01.JPG,AFNE01.JPG,AFNE01.JPG,AFNE01.JPG,AFNE01.JPG,,,,,,,,,,,,,,,,,4,5,45,4,,,,,,,AFSA16.jpg,AFSA14.jpg,AFNE09.jpg,AFNE07.jpg,AFSA14.jpg,FS,4,num_6,32,num_8,1.03341822251,,,2017_Mar_14_1737,60.015784565,FEMA4ImagesEEG,001,100076,
AFNE01.JPG,AFNE01.JPG,AFNE01.JPG,AFNE01.JPG,AFNE01.JPG,AFNE01.JPG,,,,,,,,,,,,,,,,,4,6,46,1,,,,,,,AFSA12.jpg,AFNE04.jpg,AFSA14.jpg,AFNE18.jpg,AFNE18.jpg,FN,3,num_4,32,num_2,2.51670189464,,,2017_Mar_14_1737,60.015784565,FEMA4ImagesEEG,001,100076,
AFNE01.JPG,AFNE01.JPG,AFNE01.JPG,AFNE01.JPG,AFNE01.JPG,AFNE01.JPG,,,,,,,,,,,,,,,,,4,7,47,2,,,,,,,AFNE14.jpg,AFSA06.jpg,AFSA01.jpg,AFNE07.jpg,AFSA06.jpg,FS,4,num_6,16,num_6,0.966770693369,,,2017_Mar_14_1737,60.015784565,FEMA4ImagesEEG,001,100076,
AFNE01.JPG,AFNE01.JPG,AFNE01.JPG,AFNE01.JPG,AFNE01.JPG,AFNE01.JPG,,,,,,,,,,,,,,,,,4,8,48,0,,,,,,,AFSA17.jpg,AFNE11.jpg,AFSA14.jpg,AFNE20.jpg,AFSA14.jpg,FS,4,num_2,32,num_6,1.1171050648,,,2017_Mar_14_1737,60.015784565,FEMA4ImagesEEG,001,100076,
AFNE01.JPG,AFNE01.JPG,AFNE01.JPG,AFNE01.JPG,AFNE01.JPG,AFNE01.JPG,,,,,,,,,,,,,,,,,4,9,49,8,,,,,,,AFNE09.jpg,AFSA13.jpg,AFNE10.jpg,AFSA05.jpg,AFSA05.jpg,FS,4,num_4,16,num_4,2.98340298736,,,2017_Mar_14_1737,60.015784565,FEMA4ImagesEEG,001,100076,
AFNE01.JPG,AFNE01.JPG,AFNE01.JPG,AFNE01.JPG,AFNE01.JPG,AFNE01.JPG,,,,,,,,,,,,,,,,,5,0,50,9,,,,,,,AFNE20.jpg,AFSA18.jpg,AFNE15.jpg,AFSA17.jpg,AFSA17.jpg,FS,4,num_4,32,num_6,3.74992767308,,,2017_Mar_14_1737,60.015784565,FEMA4ImagesEEG,001,100076,
AFNE01.JPG,AFNE01.JPG,AFNE01.JPG,AFNE01.JPG,AFNE01.JPG,AFNE01.JPG,,,,,,,,,,,,,,,,,5,1,51,7,,,,,,,AFNE14.jpg,AFNE07.jpg,AFSA12.jpg,AFSA10.jpg,AFNE07.jpg,FN,3,num_6,16,num_6,0.80013374862,,,2017_Mar_14_1737,60.015784565,FEMA4ImagesEEG,001,100076,
AFNE01.JPG,AFNE01.JPG,AFNE01.JPG,AFNE01.JPG,AFNE01.JPG,AFNE01.JPG,,,,,,,,,,,,,,,,,5,2,52,4,,,,,,,AFSA19.jpg,AFNE04.jpg,AFSA16.jpg,AFNE08.jpg,AFNE04.jpg,FN,3,num_6,48,None,,,,2017_Mar_14_1737,60.015784565,FEMA4ImagesEEG,001,100076,
AFNE01.JPG,AFNE01.JPG,AFNE01.JPG,AFNE01.JPG,AFNE01.JPG,AFNE01.JPG,,,,,,,,,,,,,,,,,5,3,53,8,,,,,,,AFSA04.jpg,AFNE20.jpg,AFNE04.jpg,AFSA16.jpg,AFNE20.jpg,FN,3,num_6,32,num_4,0.983435702859,,,2017_Mar_14_1737,60.015784565,FEMA4ImagesEEG,001,100076,
AFNE01.JPG,AFNE01.JPG,AFNE01.JPG,AFNE01.JPG,AFNE01.JPG,AFNE01.JPG,,,,,,,,,,,,,,,,,5,4,54,2,,,,,,,AFSA19.jpg,AFSA20.jpg,AFNE16.jpg,AFNE12.jpg,AFNE16.jpg,FN,3,num_2,32,num_6,0.766449953371,,,2017_Mar_14_1737,60.015784565,FEMA4ImagesEEG,001,100076,
AFNE01.JPG,AFNE01.JPG,AFNE01.JPG,AFNE01.JPG,AFNE01.JPG,AFNE01.JPG,,,,,,,,,,,,,,,,,5,5,55,5,,,,,,,AFNE15.jpg,AFSA10.jpg,AFSA03.jpg,AFNE10.jpg,AFNE15.jpg,FN,3,num_8,16,num_8,0.666814314027,,,2017_Mar_14_1737,60.015784565,FEMA4ImagesEEG,001,100076,
AFNE01.JPG,AFNE01.JPG,AFNE01.JPG,AFNE01.JPG,AFNE01.JPG,AFNE01.JPG,,,,,,,,,,,,,,,,,5,6,56,6,,,,,,,AFNE09.jpg,AFNE17.jpg,AFSA05.jpg,AFSA07.jpg,AFNE09.jpg,FN,3,num_8,32,num_6,3.53359045991,,,2017_Mar_14_1737,60.015784565,FEMA4ImagesEEG,001,100076,
AFNE01.JPG,AFNE01.JPG,AFNE01.JPG,AFNE01.JPG,AFNE01.JPG,AFNE01.JPG,,,,,,,,,,,,,,,,,5,7,57,1,,,,,,,AFSA14.jpg,AFNE09.jpg,AFNE10.jpg,AFSA04.jpg,AFSA14.jpg,FS,4,num_8,32,num_4,4.38316916791,,,2017_Mar_14_1737,60.015784565,FEMA4ImagesEEG,001,100076,
AFNE01.JPG,AFNE01.JPG,AFNE01.JPG,AFNE01.JPG,AFNE01.JPG,AFNE01.JPG,,,,,,,,,,,,,,,,,5,8,58,0,,,,,,,AFSA07.jpg,AFNE04.jpg,AFSA10.jpg,AFNE01.jpg,AFNE04.jpg,FN,3,num_6,16,num_6,2.08343377843,,,2017_Mar_14_1737,60.015784565,FEMA4ImagesEEG,001,100076,
AFNE01.JPG,AFNE01.JPG,AFNE01.JPG,AFNE01.JPG,AFNE01.JPG,AFNE01.JPG,,,,,,,,,,,,,,,,,5,9,59,3,,,,,,,AFNE10.jpg,AFSA05.jpg,AFNE06.jpg,AFSA20.jpg,AFSA20.jpg,FS,4,num_4,16,num_4,1.91672530863,,,2017_Mar_14_1737,60.015784565,FEMA4ImagesEEG,001,100076,
,,,,,,,,,,,,,,,,,,,,,,,,,,,,,,,,,,,,,,,,,,,space,36.6140391111,2017_Mar_14_1737,60.015784565,FEMA4ImagesEEG,001,100076,
AFNE01.JPG,AFNE01.JPG,AFNE01.JPG,AFNE01.JPG,AFNE01.JPG,AFNE01.JPG,,,,,,,,,,,,,,,,,,,,,0,0,0,9,,,AMNE15.jpg,AMSA07.jpg,AMSA02.jpg,AMNE10.jpg,AMNE10.jpg,MN,1,num_4,32,num_2,1.45014449337,,,2017_Mar_14_1737,60.015784565,FEMA4ImagesEEG,001,100076,
AFNE01.JPG,AFNE01.JPG,AFNE01.JPG,AFNE01.JPG,AFNE01.JPG,AFNE01.JPG,,,,,,,,,,,,,,,,,,,,,0,1,1,8,,,AMNE11.jpg,AMSA08.jpg,AMNE04.jpg,AMSA03.jpg,AMSA03.jpg,MS,2,num_4,16,num_4,0.716794588487,,,2017_Mar_14_1737,60.015784565,FEMA4ImagesEEG,001,100076,
AFNE01.JPG,AFNE01.JPG,AFNE01.JPG,AFNE01.JPG,AFNE01.JPG,AFNE01.JPG,,,,,,,,,,,,,,,,,,,,,0,2,2,1,,,AMNE10.jpg,AMSA19.jpg,AMNE12.jpg,AMSA02.jpg,AMSA02.jpg,MS,2,num_4,32,num_6,1.58337187563,,,2017_Mar_14_1737,60.015784565,FEMA4ImagesEEG,001,100076,
AFNE01.JPG,AFNE01.JPG,AFNE01.JPG,AFNE01.JPG,AFNE01.JPG,AFNE01.JPG,,,,,,,,,,,,,,,,,,,,,0,3,3,0,,,AMSA11.jpg,AMSA13.jpg,AMNE06.jpg,AMNE17.jpg,AMNE17.jpg,MN,1,num_4,32,num_8,1.35015828517,,,2017_Mar_14_1737,60.015784565,FEMA4ImagesEEG,001,100076,
AFNE01.JPG,AFNE01.JPG,AFNE01.JPG,AFNE01.JPG,AFNE01.JPG,AFNE01.JPG,,,,,,,,,,,,,,,,,,,,,0,4,4,5,,,AMSA20.jpg,AMSA04.jpg,AMNE15.jpg,AMNE02.jpg,AMNE15.jpg,MN,1,num_2,16,num_2,1.36680084292,,,2017_Mar_14_1737,60.015784565,FEMA4ImagesEEG,001,100076,
AFNE01.JPG,AFNE01.JPG,AFNE01.JPG,AFNE01.JPG,AFNE01.JPG,AFNE01.JPG,,,,,,,,,,,,,,,,,,,,,0,5,5,3,,,AMNE10.jpg,AMNE07.jpg,AMSA09.jpg,AMSA15.jpg,AMNE10.jpg,MN,1,num_8,16,num_8,0.833348621964,,,2017_Mar_14_1737,60.015784565,FEMA4ImagesEEG,001,100076,
AFNE01.JPG,AFNE01.JPG,AFNE01.JPG,AFNE01.JPG,AFNE01.JPG,AFNE01.JPG,,,,,,,,,,,,,,,,,,,,,0,6,6,2,,,AMSA15.jpg,AMNE17.jpg,AMSA04.jpg,AMNE12.jpg,AMSA04.jpg,MS,2,num_2,32,num_6,0.983297143131,,,2017_Mar_14_1737,60.015784565,FEMA4ImagesEEG,001,100076,
AFNE01.JPG,AFNE01.JPG,AFNE01.JPG,AFNE01.JPG,AFNE01.JPG,AFNE01.JPG,,,,,,,,,,,,,,,,,,,,,0,7,7,4,,,AMNE17.jpg,AMNE19.jpg,AMSA05.jpg,AMSA14.jpg,AMNE19.jpg,MN,1,num_6,32,num_4,0.983445325051,,,2017_Mar_14_1737,60.015784565,FEMA4ImagesEEG,001,100076,
AFNE01.JPG,AFNE01.JPG,AFNE01.JPG,AFNE01.JPG,AFNE01.JPG,AFNE01.JPG,,,,,,,,,,,,,,,,,,,,,0,8,8,7,,,AMNE16.jpg,AMSA16.jpg,AMNE17.jpg,AMSA11.jpg,AMSA16.jpg,MS,2,num_6,48,None,,,,2017_Mar_14_1737,60.015784565,FEMA4ImagesEEG,001,100076,
AFNE01.JPG,AFNE01.JPG,AFNE01.JPG,AFNE01.JPG,AFNE01.JPG,AFNE01.JPG,,,,,,,,,,,,,,,,,,,,,0,9,9,6,,,AMNE07.jpg,AMSA01.jpg,AMSA05.jpg,AMNE20.jpg,AMNE07.jpg,MN,1,num_8,32,num_2,1.46673958161,,,2017_Mar_14_1737,60.015784565,FEMA4ImagesEEG,001,100076,
AFNE01.JPG,AFNE01.JPG,AFNE01.JPG,AFNE01.JPG,AFNE01.JPG,AFNE01.JPG,,,,,,,,,,,,,,,,,,,,,1,0,10,7,,,AMSA13.jpg,AMSA06.jpg,AMNE07.jpg,AMNE01.jpg,AMSA13.jpg,MS,2,num_8,16,num_8,0.883445325075,,,2017_Mar_14_1737,60.015784565,FEMA4ImagesEEG,001,100076,
AFNE01.JPG,AFNE01.JPG,AFNE01.JPG,AFNE01.JPG,AFNE01.JPG,AFNE01.JPG,,,,,,,,,,,,,,,,,,,,,1,1,11,8,,,AMNE14.jpg,AMSA19.jpg,AMNE18.jpg,AMSA10.jpg,AMSA10.jpg,MS,2,num_4,32,num_2,1.65007906238,,,2017_Mar_14_1737,60.015784565,FEMA4ImagesEEG,001,100076,
AFNE01.JPG,AFNE01.JPG,AFNE01.JPG,AFNE01.JPG,AFNE01.JPG,AFNE01.JPG,,,,,,,,,,,,,,,,,,,,,1,2,12,3,,,AMSA03.jpg,AMNE13.jpg,AMSA05.jpg,AMNE01.jpg,AMSA03.jpg,MS,2,num_8,16,num_8,3.4499161265,,,2017_Mar_14_1737,60.015784565,FEMA4ImagesEEG,001,100076,
AFNE01.JPG,AFNE01.JPG,AFNE01.JPG,AFNE01.JPG,AFNE01.JPG,AFNE01.JPG,,,,,,,,,,,,,,,,,,,,,1,3,13,6,,,AMNE11.jpg,AMSA09.jpg,AMSA14.jpg,AMNE14.jpg,AMNE11.jpg,MN,1,num_8,16,num_8,1.90009461832,,,2017_Mar_14_1737,60.015784565,FEMA4ImagesEEG,001,100076,
AFNE01.JPG,AFNE01.JPG,AFNE01.JPG,AFNE01.JPG,AFNE01.JPG,AFNE01.JPG,,,,,,,,,,,,,,,,,,,,,1,4,14,5,,,AMNE07.jpg,AMNE06.jpg,AMSA06.jpg,AMSA04.jpg,AMSA04.jpg,MS,2,num_4,16,num_4,0.683494718978,,,2017_Mar_14_1737,60.015784565,FEMA4ImagesEEG,001,100076,
AFNE01.JPG,AFNE01.JPG,AFNE01.JPG,AFNE01.JPG,AFNE01.JPG,AFNE01.JPG,,,,,,,,,,,,,,,,,,,,,1,5,15,9,,,AMNE10.jpg,AMSA12.jpg,AMNE16.jpg,AMSA18.jpg,AMSA18.jpg,MS,2,num_4,32,num_2,2.05007745873,,,2017_Mar_14_1737,60.015784565,FEMA4ImagesEEG,001,100076,
AFNE01.JPG,AFNE01.JPG,AFNE01.JPG,AFNE01.JPG,AFNE01.JPG,AFNE01.JPG,,,,,,,,,,,,,,,,,,,,,1,6,16,0,,,AMSA17.jpg,AMNE11.jpg,AMSA02.jpg,AMNE04.jpg,AMNE04.jpg,MN,1,num_4,32,num_8,0.883502095996,,,2017_Mar_14_1737,60.015784565,FEMA4ImagesEEG,001,100076,
AFNE01.JPG,AFNE01.JPG,AFNE01.JPG,AFNE01.JPG,AFNE01.JPG,AFNE01.JPG,,,,,,,,,,,,,,,,,,,,,1,7,17,4,,,AMSA09.jpg,AMSA01.jpg,AMNE20.jpg,AMNE13.jpg,AMNE20.jpg,MN,1,num_2,32,num_4,1.80003335699,,,2017_Mar_14_1737,60.015784565,FEMA4ImagesEEG,001,100076,
AFNE01.JPG,AFNE01.JPG,AFNE01.JPG,AFNE01.JPG,AFNE01.JPG,AFNE01.JPG,,,,,,,,,,,,,,,,,,,,,1,8,18,2,,,AMNE09.jpg,AMNE15.jpg,AMSA19.jpg,AMSA12.jpg,AMSA12.jpg,MS,2,num_4,32,num_6,1.16700098466,,,2017_Mar_14_1737,60.015784565,FEMA4ImagesEEG,001,100076,
AFNE01.JPG,AFNE01.JPG,AFNE01.JPG,AFNE01.JPG,AFNE01.JPG,AFNE01.JPG,,,,,,,,,,,,,,,,,,,,,1,9,19,1,,,AMNE12.jpg,AMNE17.jpg,AMSA19.jpg,AMSA18.jpg,AMSA19.jpg,MS,2,num_2,32,num_4,0.833435542474,,,2017_Mar_14_1737,60.015784565,FEMA4ImagesEEG,001,100076,
AFNE01.JPG,AFNE01.JPG,AFNE01.JPG,AFNE01.JPG,AFNE01.JPG,AFNE01.JPG,,,,,,,,,,,,,,,,,,,,,2,0,20,1,,,AMNE20.jpg,AMNE15.jpg,AMSA20.jpg,AMSA01.jpg,AMSA01.jpg,MS,2,num_4,16,num_4,1.4834045911,,,2017_Mar_14_1737,60.015784565,FEMA4ImagesEEG,001,100076,
AFNE01.JPG,AFNE01.JPG,AFNE01.JPG,AFNE01.JPG,AFNE01.JPG,AFNE01.JPG,,,,,,,,,,,,,,,,,,,,,2,1,21,3,,,AMSA05.jpg,AMNE17.jpg,AMNE19.jpg,AMSA17.jpg,AMNE19.jpg,MN,1,num_2,32,num_6,0.866828747268,,,2017_Mar_14_1737,60.015784565,FEMA4ImagesEEG,001,100076,
AFNE01.JPG,AFNE01.JPG,AFNE01.JPG,AFNE01.JPG,AFNE01.JPG,AFNE01.JPG,,,,,,,,,,,,,,,,,,,,,2,2,22,7,,,AMSA19.jpg,AMSA07.jpg,AMNE06.jpg,AMNE05.jpg,AMNE05.jpg,MN,1,num_4,32,num_8,3.03327709693,,,2017_Mar_14_1737,60.015784565,FEMA4ImagesEEG,001,100076,
AFNE01.JPG,AFNE01.JPG,AFNE01.JPG,AFNE01.JPG,AFNE01.JPG,AFNE01.JPG,,,,,,,,,,,,,,,,,,,,,2,3,23,8,,,AMNE12.jpg,AMNE08.jpg,AMSA12.jpg,AMSA17.jpg,AMNE08.jpg,MN,1,num_6,32,num_4,0.883342367539,,,2017_Mar_14_1737,60.015784565,FEMA4ImagesEEG,001,100076,
AFNE01.JPG,AFNE01.JPG,AFNE01.JPG,AFNE01.JPG,AFNE01.JPG,AFNE01.JPG,,,,,,,,,,,,,,,,,,,,,2,4,24,5,,,AMNE14.jpg,AMNE06.jpg,AMSA01.jpg,AMSA10.jpg,AMNE06.jpg,MN,1,num_6,16,num_6,0.666668698017,,,2017_Mar_14_1737,60.015784565,FEMA4ImagesEEG,001,100076,
AFNE01.JPG,AFNE01.JPG,AFNE01.JPG,AFNE01.JPG,AFNE01.JPG,AFNE01.JPG,,,,,,,,,,,,,,,,,,,,,2,5,25,2,,,AMNE03.jpg,AMNE18.jpg,AMSA05.jpg,AMSA16.jpg,AMNE03.jpg,MN,1,num_8,16,num_8,1.68335648009,,,2017_Mar_14_1737,60.015784565,FEMA4ImagesEEG,001,100076,
AFNE01.JPG,AFNE01.JPG,AFNE01.JPG,AFNE01.JPG,AFNE01.JPG,AFNE01.JPG,,,,,,,,,,,,,,,,,,,,,2,6,26,4,,,AMNE03.jpg,AMNE19.jpg,AMSA04.jpg,AMSA01.jpg,AMSA01.jpg,MS,2,num_4,16,num_4,1.08368812525,,,2017_Mar_14_1737,60.015784565,FEMA4ImagesEEG,001,100076,
AFNE01.JPG,AFNE01.JPG,AFNE01.JPG,AFNE01.JPG,AFNE01.JPG,AFNE01.JPG,,,,,,,,,,,,,,,,,,,,,2,7,27,9,,,AMSA20.jpg,AMNE08.jpg,AMNE19.jpg,AMSA07.jpg,AMSA07.jpg,MS,2,num_4,32,num_6,0.733486860874,,,2017_Mar_14_1737,60.015784565,FEMA4ImagesEEG,001,100076,
AFNE01.JPG,AFNE01.JPG,AFNE01.JPG,AFNE01.JPG,AFNE01.JPG,AFNE01.JPG,,,,,,,,,,,,,,,,,,,,,2,8,28,0,,,AMSA04.jpg,AMNE19.jpg,AMNE01.jpg,AMSA16.jpg,AMSA16.jpg,MS,2,num_4,16,num_4,0.867034662399,,,2017_Mar_14_1737,60.015784565,FEMA4ImagesEEG,001,100076,
AFNE01.JPG,AFNE01.JPG,AFNE01.JPG,AFNE01.JPG,AFNE01.JPG,AFNE01.JPG,,,,,,,,,,,,,,,,,,,,,2,9,29,6,,,AMSA10.jpg,AMNE05.jpg,AMSA20.jpg,AMNE06.jpg,AMNE05.jpg,MN,1,num_6,16,num_6,1.48337636597,,,2017_Mar_14_1737,60.015784565,FEMA4ImagesEEG,001,100076,
AFNE01.JPG,AFNE01.JPG,AFNE01.JPG,AFNE01.JPG,AFNE01.JPG,AFNE01.JPG,,,,,,,,,,,,,,,,,,,,,3,0,30,2,,,AMNE18.jpg,AMSA10.jpg,AMNE09.jpg,AMSA01.jpg,AMSA01.jpg,MS,2,num_4,32,num_2,1.80004971474,,,2017_Mar_14_1737,60.015784565,FEMA4ImagesEEG,001,100076,
AFNE01.JPG,AFNE01.JPG,AFNE01.JPG,AFNE01.JPG,AFNE01.JPG,AFNE01.JPG,,,,,,,,,,,,,,,,,,,,,3,1,31,4,,,AMSA16.jpg,AMNE16.jpg,AMNE02.jpg,AMSA13.jpg,AMSA16.jpg,MS,2,num_8,16,num_8,1.73351316154,,,2017_Mar_14_1737,60.015784565,FEMA4ImagesEEG,001,100076,
AFNE01.JPG,AFNE01.JPG,AFNE01.JPG,AFNE01.JPG,AFNE01.JPG,AFNE01.JPG,,,,,,,,,,,,,,,,,,,,,3,2,32,8,,,AMSA06.jpg,AMNE12.jpg,AMNE06.jpg,AMSA10.jpg,AMSA06.jpg,MS,2,num_8,16,num_8,1.21681607806,,,2017_Mar_14_1737,60.015784565,FEMA4ImagesEEG,001,100076,
AFNE01.JPG,AFNE01.JPG,AFNE01.JPG,AFNE01.JPG,AFNE01.JPG,AFNE01.JPG,,,,,,,,,,,,,,,,,,,,,3,3,33,6,,,AMSA16.jpg,AMNE03.jpg,AMSA17.jpg,AMNE01.jpg,AMNE01.jpg,MN,1,num_4,16,num_4,0.750190038467,,,2017_Mar_14_1737,60.015784565,FEMA4ImagesEEG,001,100076,
AFNE01.JPG,AFNE01.JPG,AFNE01.JPG,AFNE01.JPG,AFNE01.JPG,AFNE01.JPG,,,,,,,,,,,,,,,,,,,,,3,4,34,3,,,AMNE13.jpg,AMSA07.jpg,AMNE01.jpg,AMSA06.jpg,AMSA07.jpg,MS,2,num_6,32,num_4,3.21668778203,,,2017_Mar_14_1737,60.015784565,FEMA4ImagesEEG,001,100076,
AFNE01.JPG,AFNE01.JPG,AFNE01.JPG,AFNE01.JPG,AFNE01.JPG,AFNE01.JPG,,,,,,,,,,,,,,,,,,,,,3,5,35,0,,,AMSA14.jpg,AMSA15.jpg,AMNE16.jpg,AMNE09.jpg,AMSA14.jpg,MS,2,num_8,32,num_6,0.63348782307,,,2017_Mar_14_1737,60.015784565,FEMA4ImagesEEG,001,100076,
AFNE01.JPG,AFNE01.JPG,AFNE01.JPG,AFNE01.JPG,AFNE01.JPG,AFNE01.JPG,,,,,,,,,,,,,,,,,,,,,3,6,36,7,,,AMSA13.jpg,AMNE07.jpg,AMNE20.jpg,AMSA18.jpg,AMNE07.jpg,MN,1,num_6,16,num_6,1.21669740422,,,2017_Mar_14_1737,60.015784565,FEMA4ImagesEEG,001,100076,
AFNE01.JPG,AFNE01.JPG,AFNE01.JPG,AFNE01.JPG,AFNE01.JPG,AFNE01.JPG,,,,,,,,,,,,,,,,,,,,,3,7,37,1,,,AMNE10.jpg,AMSA04.jpg,AMSA13.jpg,AMNE04.jpg,AMSA04.jpg,MS,2,num_6,32,num_8,1.3001905196,,,2017_Mar_14_1737,60.015784565,FEMA4ImagesEEG,001,100076,
AFNE01.JPG,AFNE01.JPG,AFNE01.JPG,AFNE01.JPG,AFNE01.JPG,AFNE01.JPG,,,,,,,,,,,,,,,,,,,,,3,8,38,5,,,AMSA14.jpg,AMSA15.jpg,AMNE12.jpg,AMNE08.jpg,AMNE12.jpg,MN,1,num_2,32,num_4,0.900144653744,,,2017_Mar_14_1737,60.015784565,FEMA4ImagesEEG,001,100076,
AFNE01.JPG,AFNE01.JPG,AFNE01.JPG,AFNE01.JPG,AFNE01.JPG,AFNE01.JPG,,,,,,,,,,,,,,,,,,,,,3,9,39,9,,,AMNE16.jpg,AMSA02.jpg,AMSA18.jpg,AMNE20.jpg,AMNE20.jpg,MN,1,num_4,32,num_8,1.33340699662,,,2017_Mar_14_1737,60.015784565,FEMA4ImagesEEG,001,100076,
AFNE01.JPG,AFNE01.JPG,AFNE01.JPG,AFNE01.JPG,AFNE01.JPG,AFNE01.JPG,,,,,,,,,,,,,,,,,,,,,4,0,40,7,,,AMSA08.jpg,AMSA15.jpg,AMNE02.jpg,AMNE09.jpg,AMNE02.jpg,MN,1,num_2,32,num_8,0.616776306299,,,2017_Mar_14_1737,60.015784565,FEMA4ImagesEEG,001,100076,
AFNE01.JPG,AFNE01.JPG,AFNE01.JPG,AFNE01.JPG,AFNE01.JPG,AFNE01.JPG,,,,,,,,,,,,,,,,,,,,,4,1,41,5,,,AMSA05.jpg,AMSA02.jpg,AMNE01.jpg,AMNE02.jpg,AMNE01.jpg,MN,1,num_2,32,num_6,0.633506746788,,,2017_Mar_14_1737,60.015784565,FEMA4ImagesEEG,001,100076,
