IPosition2,IPosition3,IPosition1,IPosition6,IPosition4,IPosition5,TrialsF1.thisRepN,TrialsF1.thisTrialN,TrialsF1.thisN,TrialsF1.thisIndex,TrialsM1.thisRepN,TrialsM1.thisTrialN,TrialsM1.thisN,TrialsM1.thisIndex,TrialsF2.thisRepN,TrialsF2.thisTrialN,TrialsF2.thisN,TrialsF2.thisIndex,TrialsM2.thisRepN,TrialsM2.thisTrialN,TrialsM2.thisN,TrialsM2.thisIndex,TrialsF3.thisRepN,TrialsF3.thisTrialN,TrialsF3.thisN,TrialsF3.thisIndex,TrialsM3.thisRepN,TrialsM3.thisTrialN,TrialsM3.thisN,TrialsM3.thisIndex,InstrKey_resp.keys,InstrKey_resp.rt,Image0 _Position,Image1 _Position,Image2 _Position,Image3 _Position,Center_image,condition,code,correct_answer,accuracy,Key_Resp.keys,Key_Resp.rt,BreakKey_resp.keys,BreakKey_resp.rt,date,frameRate,expName,session,participant,
,,,,,,,,,,,,,,,,,,,,,,,,,,,,,,space,22.6654553398,,,,,,,,,,,,,,2017_Mar_21_1827,59.9913605009,FEMA4ImagesEEG,001,100035,
AFSA25.JPG,AFNE24.JPG,AFSA24.JPG,AFNE21.JPG,AFSA21.JPG,AFNE25.JPG,0,0,0,2,,,,,,,,,,,,,,,,,,,,,,,AFNE08.jpg,AFSA20.jpg,AFSA04.jpg,AFNE07.jpg,AFSA20.jpg,FS,4,num_6,32,num_4,2.61662592739,,,2017_Mar_21_1827,59.9913605009,FEMA4ImagesEEG,001,100035,
AFNE22.JPG,AFSA24.JPG,AFSA22.JPG,AFNE25.JPG,AFNE24.JPG,AFSA25.JPG,0,1,1,6,,,,,,,,,,,,,,,,,,,,,,,AFNE17.jpg,AFNE03.jpg,AFSA10.jpg,AFSA08.jpg,AFNE03.jpg,FN,3,num_6,16,num_6,2.86657901917,,,2017_Mar_21_1827,59.9913605009,FEMA4ImagesEEG,001,100035,
AFSA21.JPG,AFNE22.JPG,AFNE21.JPG,AFSA23.JPG,AFSA22.JPG,AFNE23.JPG,0,2,2,0,,,,,,,,,,,,,,,,,,,,,,,AFSA03.jpg,AFNE12.jpg,AFNE02.jpg,AFSA02.jpg,AFNE12.jpg,FN,3,num_6,32,num_8,2.40015132498,,,2017_Mar_21_1827,59.9913605009,FEMA4ImagesEEG,001,100035,
AMSA25.JPG,AMNE24.JPG,AMSA24.JPG,AMNE26.JPG,AMSA21.JPG,AMNE25.JPG,0,3,3,3,,,,,,,,,,,,,,,,,,,,,,,AFSA09.jpg,AFSA14.jpg,AFNE03.jpg,AFNE02.jpg,AFSA09.jpg,FS,4,num_8,32,num_6,2.1833470022,,,2017_Mar_21_1827,59.9913605009,FEMA4ImagesEEG,001,100035,
AMSA21.JPG,AMNE23.JPG,AMNE21.JPG,AMSA25.JPG,AMNE25.JPG,AMSA23.JPG,0,4,4,5,,,,,,,,,,,,,,,,,,,,,,,AFSA01.jpg,AFNE02.jpg,AFNE11.jpg,AFSA04.jpg,AFSA01.jpg,FS,4,num_8,32,num_2,1.61670418788,,,2017_Mar_21_1827,59.9913605009,FEMA4ImagesEEG,001,100035,
AFSA21.JPG,AFNE23.JPG,AFNE21.JPG,AFSA25.JPG,AFNE25.JPG,AFSA23.JPG,0,5,5,4,,,,,,,,,,,,,,,,,,,,,,,AFSA08.jpg,AFNE19.jpg,AFSA10.jpg,AFNE16.jpg,AFNE16.jpg,FN,3,num_4,16,num_4,1.5500538362,,,2017_Mar_21_1827,59.9913605009,FEMA4ImagesEEG,001,100035,
AMSA21.JPG,AMNE22.JPG,AMNE21.JPG,AMSA23.JPG,AMSA22.JPG,AMNE23.JPG,0,6,6,1,,,,,,,,,,,,,,,,,,,,,,,AFSA09.jpg,AFSA15.jpg,AFNE14.jpg,AFNE06.jpg,AFSA09.jpg,FS,4,num_8,32,num_6,3.76640046341,,,2017_Mar_21_1827,59.9913605009,FEMA4ImagesEEG,001,100035,
AFNE23.JPG,AFNE24.JPG,AFNE22.JPG,AFSA24.JPG,AFSA22.JPG,AFSA23.JPG,0,7,7,8,,,,,,,,,,,,,,,,,,,,,,,AFNE06.jpg,AFSA01.jpg,AFNE01.jpg,AFSA10.jpg,AFNE01.jpg,FN,3,num_2,32,num_6,3.09996173572,,,2017_Mar_21_1827,59.9913605009,FEMA4ImagesEEG,001,100035,
AMNE22.JPG,AMSA24.JPG,AMSA22.JPG,AMNE25.JPG,AMNE24.JPG,AMSA25.JPG,0,8,8,7,,,,,,,,,,,,,,,,,,,,,,,AFNE19.jpg,AFSA06.jpg,AFSA15.jpg,AFNE15.jpg,AFNE19.jpg,FN,3,num_8,32,num_2,1.58339440753,,,2017_Mar_21_1827,59.9913605009,FEMA4ImagesEEG,001,100035,
AMNE23.JPG,AMNE24.JPG,AMNE22.JPG,AMSA24.JPG,AMSA22.JPG,AMSA23.JPG,0,9,9,9,,,,,,,,,,,,,,,,,,,,,,,AFSA09.jpg,AFNE07.jpg,AFSA05.jpg,AFNE04.jpg,AFSA05.jpg,FS,4,num_2,32,num_8,2.23335994402,,,2017_Mar_21_1827,59.9913605009,FEMA4ImagesEEG,001,100035,
AMSA21.JPG,AMNE23.JPG,AMNE21.JPG,AMSA25.JPG,AMNE25.JPG,AMSA23.JPG,,,,,0,0,0,5,,,,,,,,,,,,,,,,,,,AMSA03.jpg,AMNE19.jpg,AMSA08.jpg,AMNE15.jpg,AMNE15.jpg,MN,1,num_4,16,num_4,1.53342572774,,,2017_Mar_21_1827,59.9913605009,FEMA4ImagesEEG,001,100035,
AMNE23.JPG,AMNE24.JPG,AMNE22.JPG,AMSA24.JPG,AMSA22.JPG,AMSA23.JPG,,,,,0,1,1,9,,,,,,,,,,,,,,,,,,,AMSA05.jpg,AMNE15.jpg,AMSA17.jpg,AMNE10.jpg,AMSA05.jpg,MS,2,num_8,32,num_6,1.80002071982,,,2017_Mar_21_1827,59.9913605009,FEMA4ImagesEEG,001,100035,
AFSA25.JPG,AFNE24.JPG,AFSA24.JPG,AFNE21.JPG,AFSA21.JPG,AFNE25.JPG,,,,,0,2,2,2,,,,,,,,,,,,,,,,,,,AMSA11.jpg,AMNE15.jpg,AMSA04.jpg,AMNE05.jpg,AMNE05.jpg,MN,1,num_4,32,num_8,2.18335405842,,,2017_Mar_21_1827,59.9913605009,FEMA4ImagesEEG,001,100035,
AMSA21.JPG,AMNE22.JPG,AMNE21.JPG,AMSA23.JPG,AMSA22.JPG,AMNE23.JPG,,,,,0,3,3,1,,,,,,,,,,,,,,,,,,,AMSA02.jpg,AMNE09.jpg,AMNE14.jpg,AMSA03.jpg,AMNE14.jpg,MN,1,num_2,16,num_2,2.16663678439,,,2017_Mar_21_1827,59.9913605009,FEMA4ImagesEEG,001,100035,
AFNE23.JPG,AFNE24.JPG,AFNE22.JPG,AFSA24.JPG,AFSA22.JPG,AFSA23.JPG,,,,,0,4,4,8,,,,,,,,,,,,,,,,,,,AMNE04.jpg,AMSA07.jpg,AMSA20.jpg,AMNE10.jpg,AMNE10.jpg,MN,1,num_4,32,num_8,2.88336749742,,,2017_Mar_21_1827,59.9913605009,FEMA4ImagesEEG,001,100035,
AFSA21.JPG,AFNE22.JPG,AFNE21.JPG,AFSA23.JPG,AFSA22.JPG,AFNE23.JPG,,,,,0,5,5,0,,,,,,,,,,,,,,,,,,,AMSA07.jpg,AMNE03.jpg,AMSA11.jpg,AMNE10.jpg,AMNE03.jpg,MN,1,num_6,16,num_6,1.31675354973,,,2017_Mar_21_1827,59.9913605009,FEMA4ImagesEEG,001,100035,
AFSA21.JPG,AFNE23.JPG,AFNE21.JPG,AFSA25.JPG,AFNE25.JPG,AFSA23.JPG,,,,,0,6,6,4,,,,,,,,,,,,,,,,,,,AMNE10.jpg,AMSA09.jpg,AMSA02.jpg,AMNE19.jpg,AMNE10.jpg,MN,1,num_8,16,num_8,1.81668507174,,,2017_Mar_21_1827,59.9913605009,FEMA4ImagesEEG,001,100035,
AFNE22.JPG,AFSA24.JPG,AFSA22.JPG,AFNE25.JPG,AFNE24.JPG,AFSA25.JPG,,,,,0,7,7,6,,,,,,,,,,,,,,,,,,,AMSA04.jpg,AMNE09.jpg,AMNE04.jpg,AMSA17.jpg,AMSA17.jpg,MS,2,num_4,32,num_8,1.4000756304,,,2017_Mar_21_1827,59.9913605009,FEMA4ImagesEEG,001,100035,
AMSA25.JPG,AMNE24.JPG,AMSA24.JPG,AMNE26.JPG,AMSA21.JPG,AMNE25.JPG,,,,,0,8,8,3,,,,,,,,,,,,,,,,,,,AMSA14.jpg,AMNE17.jpg,AMSA12.jpg,AMNE03.jpg,AMNE17.jpg,MN,1,num_6,32,num_2,1.75001515495,,,2017_Mar_21_1827,59.9913605009,FEMA4ImagesEEG,001,100035,
AMNE22.JPG,AMSA24.JPG,AMSA22.JPG,AMNE25.JPG,AMNE24.JPG,AMSA25.JPG,,,,,0,9,9,7,,,,,,,,,,,,,,,,,,,AMNE20.jpg,AMSA17.jpg,AMSA04.jpg,AMNE08.jpg,AMNE08.jpg,MN,1,num_4,32,num_6,2.48329186707,,,2017_Mar_21_1827,59.9913605009,FEMA4ImagesEEG,001,100035,
AFNE23.JPG,AFNE24.JPG,AFNE22.JPG,AFSA24.JPG,AFSA22.JPG,AFSA23.JPG,,,,,,,,,0,0,0,8,,,,,,,,,,,,,,,AFSA13.jpg,AFNE18.jpg,AFNE19.jpg,AFSA17.jpg,AFNE19.jpg,FN,3,num_2,32,num_8,1.46672951028,,,2017_Mar_21_1827,59.9913605009,FEMA4ImagesEEG,001,100035,
AMSA25.JPG,AMNE24.JPG,AMSA24.JPG,AMNE26.JPG,AMSA21.JPG,AMNE25.JPG,,,,,,,,,0,1,1,3,,,,,,,,,,,,,,,AFSA02.jpg,AFNE04.jpg,AFNE09.jpg,AFSA13.jpg,AFNE04.jpg,FN,3,num_6,32,num_4,1.20007967175,,,2017_Mar_21_1827,59.9913605009,FEMA4ImagesEEG,001,100035,
AMSA21.JPG,AMNE22.JPG,AMNE21.JPG,AMSA23.JPG,AMSA22.JPG,AMNE23.JPG,,,,,,,,,0,2,2,1,,,,,,,,,,,,,,,AFSA06.jpg,AFNE13.jpg,AFNE20.jpg,AFSA10.jpg,AFSA06.jpg,FS,4,num_8,32,num_2,1.11666746321,,,2017_Mar_21_1827,59.9913605009,FEMA4ImagesEEG,001,100035,
AMNE23.JPG,AMNE24.JPG,AMNE22.JPG,AMSA24.JPG,AMSA22.JPG,AMSA23.JPG,,,,,,,,,0,3,3,9,,,,,,,,,,,,,,,AFSA02.jpg,AFSA13.jpg,AFNE02.jpg,AFNE20.jpg,AFSA02.jpg,FS,4,num_8,32,num_2,1.0334374347,,,2017_Mar_21_1827,59.9913605009,FEMA4ImagesEEG,001,100035,
AMSA21.JPG,AMNE23.JPG,AMNE21.JPG,AMSA25.JPG,AMNE25.JPG,AMSA23.JPG,,,,,,,,,0,4,4,5,,,,,,,,,,,,,,,AFSA14.jpg,AFNE09.jpg,AFNE11.jpg,AFSA03.jpg,AFNE09.jpg,FN,3,num_6,32,num_4,1.25040629704,,,2017_Mar_21_1827,59.9913605009,FEMA4ImagesEEG,001,100035,
AFSA21.JPG,AFNE22.JPG,AFNE21.JPG,AFSA23.JPG,AFSA22.JPG,AFNE23.JPG,,,,,,,,,0,5,5,0,,,,,,,,,,,,,,,AFNE17.jpg,AFNE20.jpg,AFSA18.jpg,AFSA09.jpg,AFSA09.jpg,FS,4,num_4,32,num_8,1.36682646989,,,2017_Mar_21_1827,59.9913605009,FEMA4ImagesEEG,001,100035,
AFSA25.JPG,AFNE24.JPG,AFSA24.JPG,AFNE21.JPG,AFSA21.JPG,AFNE25.JPG,,,,,,,,,0,6,6,2,,,,,,,,,,,,,,,AFSA19.jpg,AFNE06.jpg,AFNE15.jpg,AFSA09.jpg,AFNE15.jpg,FN,3,num_2,32,num_6,0.766756163735,,,2017_Mar_21_1827,59.9913605009,FEMA4ImagesEEG,001,100035,
AMNE22.JPG,AMSA24.JPG,AMSA22.JPG,AMNE25.JPG,AMNE24.JPG,AMSA25.JPG,,,,,,,,,0,7,7,7,,,,,,,,,,,,,,,AFSA19.jpg,AFNE14.jpg,AFSA13.jpg,AFNE10.jpg,AFSA13.jpg,FS,4,num_2,16,num_2,1.46670160594,,,2017_Mar_21_1827,59.9913605009,FEMA4ImagesEEG,001,100035,
AFNE22.JPG,AFSA24.JPG,AFSA22.JPG,AFNE25.JPG,AFNE24.JPG,AFSA25.JPG,,,,,,,,,0,8,8,6,,,,,,,,,,,,,,,AFNE02.jpg,AFNE05.jpg,AFSA13.jpg,AFSA19.jpg,AFNE02.jpg,FN,3,num_8,32,num_6,1.40007723414,,,2017_Mar_21_1827,59.9913605009,FEMA4ImagesEEG,001,100035,
AFSA21.JPG,AFNE23.JPG,AFNE21.JPG,AFSA25.JPG,AFNE25.JPG,AFSA23.JPG,,,,,,,,,0,9,9,4,,,,,,,,,,,,,,,AFNE06.jpg,AFSA09.jpg,AFSA06.jpg,AFNE01.jpg,AFSA09.jpg,FS,4,num_6,32,num_8,1.33342816541,,,2017_Mar_21_1827,59.9913605009,FEMA4ImagesEEG,001,100035,
AFNE22.JPG,AFSA24.JPG,AFSA22.JPG,AFNE25.JPG,AFNE24.JPG,AFSA25.JPG,,,,,,,,,,,,,0,0,0,6,,,,,,,,,,,AMSA09.jpg,AMSA07.jpg,AMNE08.jpg,AMNE14.jpg,AMNE14.jpg,MN,1,num_4,16,num_4,1.35005851893,,,2017_Mar_21_1827,59.9913605009,FEMA4ImagesEEG,001,100035,
AMSA25.JPG,AMNE24.JPG,AMSA24.JPG,AMNE26.JPG,AMSA21.JPG,AMNE25.JPG,,,,,,,,,,,,,0,1,1,3,,,,,,,,,,,AMSA16.jpg,AMNE12.jpg,AMSA03.jpg,AMNE17.jpg,AMSA03.jpg,MS,2,num_2,32,num_8,0.950100279239,,,2017_Mar_21_1827,59.9913605009,FEMA4ImagesEEG,001,100035,
AMSA21.JPG,AMNE23.JPG,AMNE21.JPG,AMSA25.JPG,AMNE25.JPG,AMSA23.JPG,,,,,,,,,,,,,0,2,2,5,,,,,,,,,,,AMSA04.jpg,AMNE16.jpg,AMNE05.jpg,AMSA10.jpg,AMNE05.jpg,MN,1,num_2,32,num_8,1.08342343447,,,2017_Mar_21_1827,59.9913605009,FEMA4ImagesEEG,001,100035,
AMNE22.JPG,AMSA24.JPG,AMSA22.JPG,AMNE25.JPG,AMNE24.JPG,AMSA25.JPG,,,,,,,,,,,,,0,3,3,7,,,,,,,,,,,AMSA13.jpg,AMNE08.jpg,AMSA18.jpg,AMNE15.jpg,AMNE15.jpg,MN,1,num_4,32,num_6,0.700215505029,,,2017_Mar_21_1827,59.9913605009,FEMA4ImagesEEG,001,100035,
AFSA25.JPG,AFNE24.JPG,AFSA24.JPG,AFNE21.JPG,AFSA21.JPG,AFNE25.JPG,,,,,,,,,,,,,0,4,4,2,,,,,,,,,,,AMNE07.jpg,AMSA17.jpg,AMSA16.jpg,AMNE08.jpg,AMSA17.jpg,MS,2,num_6,32,num_8,0.950102845207,,,2017_Mar_21_1827,59.9913605009,FEMA4ImagesEEG,001,100035,
AFSA21.JPG,AFNE23.JPG,AFNE21.JPG,AFSA25.JPG,AFNE25.JPG,AFSA23.JPG,,,,,,,,,,,,,0,5,5,4,,,,,,,,,,,AMSA03.jpg,AMNE18.jpg,AMNE03.jpg,AMSA13.jpg,AMNE03.jpg,MN,1,num_2,32,num_4,1.58339921862,,,2017_Mar_21_1827,59.9913605009,FEMA4ImagesEEG,001,100035,
AFSA21.JPG,AFNE22.JPG,AFNE21.JPG,AFSA23.JPG,AFSA22.JPG,AFNE23.JPG,,,,,,,,,,,,,0,6,6,0,,,,,,,,,,,AMNE13.jpg,AMSA10.jpg,AMNE07.jpg,AMSA20.jpg,AMNE07.jpg,MN,1,num_2,32,num_6,0.783478569589,,,2017_Mar_21_1827,59.9913605009,FEMA4ImagesEEG,001,100035,
AMNE23.JPG,AMNE24.JPG,AMNE22.JPG,AMSA24.JPG,AMSA22.JPG,AMSA23.JPG,,,,,,,,,,,,,0,7,7,9,,,,,,,,,,,AMSA12.jpg,AMNE08.jpg,AMSA08.jpg,AMNE18.jpg,AMNE18.jpg,MN,1,num_4,32,num_8,0.816768143384,,,2017_Mar_21_1827,59.9913605009,FEMA4ImagesEEG,001,100035,
AFNE23.JPG,AFNE24.JPG,AFNE22.JPG,AFSA24.JPG,AFSA22.JPG,AFSA23.JPG,,,,,,,,,,,,,0,8,8,8,,,,,,,,,,,AMNE04.jpg,AMNE01.jpg,AMSA05.jpg,AMSA17.jpg,AMNE04.jpg,MN,1,num_8,32,num_2,2.36667860887,,,2017_Mar_21_1827,59.9913605009,FEMA4ImagesEEG,001,100035,
AMSA21.JPG,AMNE22.JPG,AMNE21.JPG,AMSA23.JPG,AMSA22.JPG,AMNE23.JPG,,,,,,,,,,,,,0,9,9,1,,,,,,,,,,,AMNE11.jpg,AMSA07.jpg,AMSA13.jpg,AMNE08.jpg,AMNE11.jpg,MN,1,num_8,16,num_8,0.766775408119,,,2017_Mar_21_1827,59.9913605009,FEMA4ImagesEEG,001,100035,
AFSA21.JPG,AFNE22.JPG,AFNE21.JPG,AFSA23.JPG,AFSA22.JPG,AFNE23.JPG,,,,,,,,,,,,,,,,,0,0,0,0,,,,,,,AFSA04.jpg,AFNE20.jpg,AFSA17.jpg,AFNE03.jpg,AFNE20.jpg,FN,3,num_6,32,num_8,1.28351465287,,,2017_Mar_21_1827,59.9913605009,FEMA4ImagesEEG,001,100035,
AMSA25.JPG,AMNE24.JPG,AMSA24.JPG,AMNE26.JPG,AMSA21.JPG,AMNE25.JPG,,,,,,,,,,,,,,,,,0,1,1,3,,,,,,,AFSA02.jpg,AFNE20.jpg,AFSA17.jpg,AFNE06.jpg,AFSA02.jpg,FS,4,num_8,32,num_6,0.850201729219,,,2017_Mar_21_1827,59.9913605009,FEMA4ImagesEEG,001,100035,
AMSA21.JPG,AMNE23.JPG,AMNE21.JPG,AMSA25.JPG,AMNE25.JPG,AMSA23.JPG,,,,,,,,,,,,,,,,,0,2,2,5,,,,,,,AFSA05.jpg,AFSA08.jpg,AFNE10.jpg,AFNE03.jpg,AFNE10.jpg,FN,3,num_2,16,num_2,1.35007744265,,,2017_Mar_21_1827,59.9913605009,FEMA4ImagesEEG,001,100035,
AMNE22.JPG,AMSA24.JPG,AMSA22.JPG,AMNE25.JPG,AMNE24.JPG,AMSA25.JPG,,,,,,,,,,,,,,,,,0,3,3,7,,,,,,,AFNE10.jpg,AFSA01.jpg,AFNE16.jpg,AFSA05.jpg,AFNE16.jpg,FN,3,num_2,16,num_2,1.20010501018,,,2017_Mar_21_1827,59.9913605009,FEMA4ImagesEEG,001,100035,
AFSA21.JPG,AFNE23.JPG,AFNE21.JPG,AFSA25.JPG,AFNE25.JPG,AFSA23.JPG,,,,,,,,,,,,,,,,,0,4,4,4,,,,,,,AFNE04.jpg,AFNE13.jpg,AFSA08.jpg,AFSA11.jpg,AFNE04.jpg,FN,3,num_8,16,num_8,0.983481905307,,,2017_Mar_21_1827,59.9913605009,FEMA4ImagesEEG,001,100035,
AMNE23.JPG,AMNE24.JPG,AMNE22.JPG,AMSA24.JPG,AMSA22.JPG,AMSA23.JPG,,,,,,,,,,,,,,,,,0,5,5,9,,,,,,,AFNE10.jpg,AFSA18.jpg,AFNE08.jpg,AFSA08.jpg,AFSA18.jpg,FS,4,num_6,16,num_6,0.699981365004,,,2017_Mar_21_1827,59.9913605009,FEMA4ImagesEEG,001,100035,
AFNE22.JPG,AFSA24.JPG,AFSA22.JPG,AFNE25.JPG,AFNE24.JPG,AFSA25.JPG,,,,,,,,,,,,,,,,,0,6,6,6,,,,,,,AFNE02.jpg,AFSA06.jpg,AFNE05.jpg,AFSA04.jpg,AFSA06.jpg,FS,4,num_6,16,num_6,1.75018963736,,,2017_Mar_21_1827,59.9913605009,FEMA4ImagesEEG,001,100035,
AFSA25.JPG,AFNE24.JPG,AFSA24.JPG,AFNE21.JPG,AFSA21.JPG,AFNE25.JPG,,,,,,,,,,,,,,,,,0,7,7,2,,,,,,,AFSA03.jpg,AFSA13.jpg,AFNE06.jpg,AFNE02.jpg,AFNE02.jpg,FN,3,num_4,16,num_4,1.11673866742,,,2017_Mar_21_1827,59.9913605009,FEMA4ImagesEEG,001,100035,
AFNE23.JPG,AFNE24.JPG,AFNE22.JPG,AFSA24.JPG,AFSA22.JPG,AFSA23.JPG,,,,,,,,,,,,,,,,,0,8,8,8,,,,,,,AFSA14.jpg,AFNE02.jpg,AFNE16.jpg,AFSA12.jpg,AFNE16.jpg,FN,3,num_2,32,num_8,2.51668407751,,,2017_Mar_21_1827,59.9913605009,FEMA4ImagesEEG,001,100035,
AMSA21.JPG,AMNE22.JPG,AMNE21.JPG,AMSA23.JPG,AMSA22.JPG,AMNE23.JPG,,,,,,,,,,,,,,,,,0,9,9,1,,,,,,,AFNE03.jpg,AFSA06.jpg,AFSA14.jpg,AFNE20.jpg,AFNE03.jpg,FN,3,num_8,16,num_8,0.966745066107,,,2017_Mar_21_1827,59.9913605009,FEMA4ImagesEEG,001,100035,
AMSA25.JPG,AMNE24.JPG,AMSA24.JPG,AMNE26.JPG,AMSA21.JPG,AMNE25.JPG,,,,,,,,,,,,,,,,,,,,,0,0,0,3,,,AMSA04.jpg,AMNE15.jpg,AMNE04.jpg,AMSA07.jpg,AMNE15.jpg,MN,1,num_6,16,num_6,1.26672425016,,,2017_Mar_21_1827,59.9913605009,FEMA4ImagesEEG,001,100035,
AFNE22.JPG,AFSA24.JPG,AFSA22.JPG,AFNE25.JPG,AFNE24.JPG,AFSA25.JPG,,,,,,,,,,,,,,,,,,,,,0,1,1,6,,,AMNE06.jpg,AMSA05.jpg,AMSA06.jpg,AMNE03.jpg,AMSA05.jpg,MS,2,num_6,32,num_4,0.716772729938,,,2017_Mar_21_1827,59.9913605009,FEMA4ImagesEEG,001,100035,
AFSA21.JPG,AFNE23.JPG,AFNE21.JPG,AFSA25.JPG,AFNE25.JPG,AFSA23.JPG,,,,,,,,,,,,,,,,,,,,,0,2,2,4,,,AMSA04.jpg,AMNE20.jpg,AMNE08.jpg,AMSA11.jpg,AMSA04.jpg,MS,2,num_8,16,num_8,0.683536078257,,,2017_Mar_21_1827,59.9913605009,FEMA4ImagesEEG,001,100035,
AFSA21.JPG,AFNE22.JPG,AFNE21.JPG,AFSA23.JPG,AFSA22.JPG,AFNE23.JPG,,,,,,,,,,,,,,,,,,,,,0,3,3,0,,,AMSA07.jpg,AMNE07.jpg,AMSA19.jpg,AMNE08.jpg,AMNE08.jpg,MN,1,num_4,16,num_4,1.21669655427,,,2017_Mar_21_1827,59.9913605009,FEMA4ImagesEEG,001,100035,
AMSA21.JPG,AMNE22.JPG,AMNE21.JPG,AMSA23.JPG,AMSA22.JPG,AMNE23.JPG,,,,,,,,,,,,,,,,,,,,,0,4,4,1,,,AMNE17.jpg,AMSA17.jpg,AMNE14.jpg,AMSA02.jpg,AMNE17.jpg,MN,1,num_8,32,num_6,0.900130637281,,,2017_Mar_21_1827,59.9913605009,FEMA4ImagesEEG,001,100035,
AMSA21.JPG,AMNE23.JPG,AMNE21.JPG,AMSA25.JPG,AMNE25.JPG,AMSA23.JPG,,,,,,,,,,,,,,,,,,,,,0,5,5,5,,,AMSA10.jpg,AMNE08.jpg,AMNE14.jpg,AMSA17.jpg,AMSA17.jpg,MS,2,num_4,32,num_6,1.26676562557,,,2017_Mar_21_1827,59.9913605009,FEMA4ImagesEEG,001,100035,
AMNE23.JPG,AMNE24.JPG,AMNE22.JPG,AMSA24.JPG,AMSA22.JPG,AMSA23.JPG,,,,,,,,,,,,,,,,,,,,,0,6,6,9,,,AMSA20.jpg,AMNE03.jpg,AMSA13.jpg,AMNE14.jpg,AMSA20.jpg,MS,2,num_8,16,num_8,1.61672311148,,,2017_Mar_21_1827,59.9913605009,FEMA4ImagesEEG,001,100035,
AFSA25.JPG,AFNE24.JPG,AFSA24.JPG,AFNE21.JPG,AFSA21.JPG,AFNE25.JPG,,,,,,,,,,,,,,,,,,,,,0,7,7,2,,,AMNE09.jpg,AMSA20.jpg,AMNE08.jpg,AMSA15.jpg,AMNE09.jpg,MN,1,num_8,32,num_6,1.70003717375,,,2017_Mar_21_1827,59.9913605009,FEMA4ImagesEEG,001,100035,
AMNE22.JPG,AMSA24.JPG,AMSA22.JPG,AMNE25.JPG,AMNE24.JPG,AMSA25.JPG,,,,,,,,,,,,,,,,,,,,,0,8,8,7,,,AMNE12.jpg,AMNE19.jpg,AMSA04.jpg,AMSA02.jpg,AMSA04.jpg,MS,2,num_2,32,num_4,1.0001324655,,,2017_Mar_21_1827,59.9913605009,FEMA4ImagesEEG,001,100035,
AFNE23.JPG,AFNE24.JPG,AFNE22.JPG,AFSA24.JPG,AFSA22.JPG,AFSA23.JPG,,,,,,,,,,,,,,,,,,,,,0,9,9,8,,,AMSA19.jpg,AMNE03.jpg,AMNE20.jpg,AMSA16.jpg,AMSA16.jpg,MS,2,num_4,32,num_8,0.950238518068,,,2017_Mar_21_1827,59.9913605009,FEMA4ImagesEEG,001,100035,
,,,,,,,,,,,,,,,,,,,,,,,,,,,,,,,,,,,,,,,,,,,space,28.4809703531,2017_Mar_21_1827,59.9913605009,FEMA4ImagesEEG,001,100035,
AFNE01.JPG,AFNE01.JPG,AFNE01.JPG,AFNE01.JPG,AFNE01.JPG,AFNE01.JPG,0,0,0,7,,,,,,,,,,,,,,,,,,,,,,,AFSA13.jpg,AFSA20.jpg,AFNE04.jpg,AFNE17.jpg,AFSA13.jpg,FS,4,num_8,32,num_6,1.4166630049,,,2017_Mar_21_1827,59.9913605009,FEMA4ImagesEEG,001,100035,
AFNE01.JPG,AFNE01.JPG,AFNE01.JPG,AFNE01.JPG,AFNE01.JPG,AFNE01.JPG,0,1,1,8,,,,,,,,,,,,,,,,,,,,,,,AFNE19.jpg,AFSA03.jpg,AFNE01.jpg,AFSA08.jpg,AFSA03.jpg,FS,4,num_6,32,num_8,0.783438477141,,,2017_Mar_21_1827,59.9913605009,FEMA4ImagesEEG,001,100035,
AFNE01.JPG,AFNE01.JPG,AFNE01.JPG,AFNE01.JPG,AFNE01.JPG,AFNE01.JPG,0,2,2,2,,,,,,,,,,,,,,,,,,,,,,,AFSA18.jpg,AFNE05.jpg,AFSA10.jpg,AFNE12.jpg,AFSA10.jpg,FS,4,num_2,32,num_4,0.950125617674,,,2017_Mar_21_1827,59.9913605009,FEMA4ImagesEEG,001,100035,
AFNE01.JPG,AFNE01.JPG,AFNE01.JPG,AFNE01.JPG,AFNE01.JPG,AFNE01.JPG,0,3,3,9,,,,,,,,,,,,,,,,,,,,,,,AFSA14.jpg,AFSA07.jpg,AFNE02.jpg,AFNE09.jpg,AFSA14.jpg,FS,4,num_8,32,num_6,1.30008502811,,,2017_Mar_21_1827,59.9913605009,FEMA4ImagesEEG,001,100035,
AFNE01.JPG,AFNE01.JPG,AFNE01.JPG,AFNE01.JPG,AFNE01.JPG,AFNE01.JPG,0,4,4,0,,,,,,,,,,,,,,,,,,,,,,,AFNE05.jpg,AFNE10.jpg,AFSA20.jpg,AFSA08.jpg,AFNE05.jpg,FN,3,num_8,32,num_6,0.816780331486,,,2017_Mar_21_1827,59.9913605009,FEMA4ImagesEEG,001,100035,
AFNE01.JPG,AFNE01.JPG,AFNE01.JPG,AFNE01.JPG,AFNE01.JPG,AFNE01.JPG,0,5,5,1,,,,,,,,,,,,,,,,,,,,,,,AFSA02.jpg,AFSA04.jpg,AFNE01.jpg,AFNE14.jpg,AFSA02.jpg,FS,4,num_8,16,num_8,1.08344203734,,,2017_Mar_21_1827,59.9913605009,FEMA4ImagesEEG,001,100035,
AFNE01.JPG,AFNE01.JPG,AFNE01.JPG,AFNE01.JPG,AFNE01.JPG,AFNE01.JPG,0,6,6,6,,,,,,,,,,,,,,,,,,,,,,,AFSA04.jpg,AFNE12.jpg,AFNE04.jpg,AFSA17.jpg,AFSA17.jpg,FS,4,num_4,32,num_8,2.51661415625,,,2017_Mar_21_1827,59.9913605009,FEMA4ImagesEEG,001,100035,
AFNE01.JPG,AFNE01.JPG,AFNE01.JPG,AFNE01.JPG,AFNE01.JPG,AFNE01.JPG,0,7,7,3,,,,,,,,,,,,,,,,,,,,,,,AFNE12.jpg,AFSA15.jpg,AFNE10.jpg,AFSA02.jpg,AFNE12.jpg,FN,3,num_8,16,num_8,0.816872704483,,,2017_Mar_21_1827,59.9913605009,FEMA4ImagesEEG,001,100035,
AFNE01.JPG,AFNE01.JPG,AFNE01.JPG,AFNE01.JPG,AFNE01.JPG,AFNE01.JPG,0,8,8,5,,,,,,,,,,,,,,,,,,,,,,,AFNE11.jpg,AFSA17.jpg,AFSA16.jpg,AFNE16.jpg,AFSA17.jpg,FS,4,num_6,32,num_4,1.2334119039,,,2017_Mar_21_1827,59.9913605009,FEMA4ImagesEEG,001,100035,
AFNE01.JPG,AFNE01.JPG,AFNE01.JPG,AFNE01.JPG,AFNE01.JPG,AFNE01.JPG,0,9,9,4,,,,,,,,,,,,,,,,,,,,,,,AFSA04.jpg,AFNE06.jpg,AFNE03.jpg,AFSA03.jpg,AFSA03.jpg,FS,4,num_4,16,num_4,0.883441909042,,,2017_Mar_21_1827,59.9913605009,FEMA4ImagesEEG,001,100035,
AFNE01.JPG,AFNE01.JPG,AFNE01.JPG,AFNE01.JPG,AFNE01.JPG,AFNE01.JPG,1,0,10,7,,,,,,,,,,,,,,,,,,,,,,,AFSA11.jpg,AFNE07.jpg,AFSA12.jpg,AFNE09.jpg,AFNE07.jpg,FN,3,num_6,32,num_8,1.76666058332,,,2017_Mar_21_1827,59.9913605009,FEMA4ImagesEEG,001,100035,
AFNE01.JPG,AFNE01.JPG,AFNE01.JPG,AFNE01.JPG,AFNE01.JPG,AFNE01.JPG,1,1,11,8,,,,,,,,,,,,,,,,,,,,,,,AFSA19.jpg,AFNE17.jpg,AFSA11.jpg,AFNE11.jpg,AFNE17.jpg,FN,3,num_6,16,num_6,1.28337865922,,,2017_Mar_21_1827,59.9913605009,FEMA4ImagesEEG,001,100035,
AFNE01.JPG,AFNE01.JPG,AFNE01.JPG,AFNE01.JPG,AFNE01.JPG,AFNE01.JPG,1,2,12,3,,,,,,,,,,,,,,,,,,,,,,,AFNE15.jpg,AFSA13.jpg,AFSA11.jpg,AFNE06.jpg,AFNE15.jpg,FN,3,num_8,16,num_8,1.51674950839,,,2017_Mar_21_1827,59.9913605009,FEMA4ImagesEEG,001,100035,
AFNE01.JPG,AFNE01.JPG,AFNE01.JPG,AFNE01.JPG,AFNE01.JPG,AFNE01.JPG,1,3,13,0,,,,,,,,,,,,,,,,,,,,,,,AFNE14.jpg,AFNE01.jpg,AFSA06.jpg,AFSA04.jpg,AFSA06.jpg,FS,4,num_2,32,num_6,1.0001250885,,,2017_Mar_21_1827,59.9913605009,FEMA4ImagesEEG,001,100035,
AFNE01.JPG,AFNE01.JPG,AFNE01.JPG,AFNE01.JPG,AFNE01.JPG,AFNE01.JPG,1,4,14,5,,,,,,,,,,,,,,,,,,,,,,,AFSA19.jpg,AFSA20.jpg,AFNE19.jpg,AFNE06.jpg,AFNE19.jpg,FN,3,num_2,32,num_4,0.89997764444,,,2017_Mar_21_1827,59.9913605009,FEMA4ImagesEEG,001,100035,
AFNE01.JPG,AFNE01.JPG,AFNE01.JPG,AFNE01.JPG,AFNE01.JPG,AFNE01.JPG,1,5,15,6,,,,,,,,,,,,,,,,,,,,,,,AFNE05.jpg,AFNE07.jpg,AFSA16.jpg,AFSA13.jpg,AFNE07.jpg,FN,3,num_6,16,num_6,0.900129033602,,,2017_Mar_21_1827,59.9913605009,FEMA4ImagesEEG,001,100035,
AFNE01.JPG,AFNE01.JPG,AFNE01.JPG,AFNE01.JPG,AFNE01.JPG,AFNE01.JPG,1,6,16,4,,,,,,,,,,,,,,,,,,,,,,,AFSA04.jpg,AFNE05.jpg,AFNE18.jpg,AFSA18.jpg,AFNE05.jpg,FN,3,num_6,16,num_6,0.950095468143,,,2017_Mar_21_1827,59.9913605009,FEMA4ImagesEEG,001,100035,
AFNE01.JPG,AFNE01.JPG,AFNE01.JPG,AFNE01.JPG,AFNE01.JPG,AFNE01.JPG,1,7,17,9,,,,,,,,,,,,,,,,,,,,,,,AFSA14.jpg,AFSA03.jpg,AFNE17.jpg,AFNE08.jpg,AFNE08.jpg,FN,3,num_4,32,num_6,1.18340858421,,,2017_Mar_21_1827,59.9913605009,FEMA4ImagesEEG,001,100035,
AFNE01.JPG,AFNE01.JPG,AFNE01.JPG,AFNE01.JPG,AFNE01.JPG,AFNE01.JPG,1,8,18,2,,,,,,,,,,,,,,,,,,,,,,,AFSA12.jpg,AFNE10.jpg,AFNE15.jpg,AFSA04.jpg,AFNE15.jpg,FN,3,num_2,32,num_6,1.10015225515,,,2017_Mar_21_1827,59.9913605009,FEMA4ImagesEEG,001,100035,
AFNE01.JPG,AFNE01.JPG,AFNE01.JPG,AFNE01.JPG,AFNE01.JPG,AFNE01.JPG,1,9,19,1,,,,,,,,,,,,,,,,,,,,,,,AFNE17.jpg,AFSA11.jpg,AFSA18.jpg,AFNE18.jpg,AFNE18.jpg,FN,3,num_4,16,num_4,1.05007612758,,,2017_Mar_21_1827,59.9913605009,FEMA4ImagesEEG,001,100035,
AFNE01.JPG,AFNE01.JPG,AFNE01.JPG,AFNE01.JPG,AFNE01.JPG,AFNE01.JPG,2,0,20,3,,,,,,,,,,,,,,,,,,,,,,,AFSA14.jpg,AFNE19.jpg,AFNE08.jpg,AFSA04.jpg,AFSA04.jpg,FS,4,num_4,16,num_4,2.64994212252,,,2017_Mar_21_1827,59.9913605009,FEMA4ImagesEEG,001,100035,
AFNE01.JPG,AFNE01.JPG,AFNE01.JPG,AFNE01.JPG,AFNE01.JPG,AFNE01.JPG,2,1,21,7,,,,,,,,,,,,,,,,,,,,,,,AFNE10.jpg,AFNE01.jpg,AFSA20.jpg,AFSA01.jpg,AFSA01.jpg,FS,4,num_4,16,num_4,0.983483508986,,,2017_Mar_21_1827,59.9913605009,FEMA4ImagesEEG,001,100035,
AFNE01.JPG,AFNE01.JPG,AFNE01.JPG,AFNE01.JPG,AFNE01.JPG,AFNE01.JPG,2,2,22,0,,,,,,,,,,,,,,,,,,,,,,,AFSA13.jpg,AFSA10.jpg,AFNE09.jpg,AFNE13.jpg,AFSA13.jpg,FS,4,num_8,16,num_8,0.900106581801,,,2017_Mar_21_1827,59.9913605009,FEMA4ImagesEEG,001,100035,
AFNE01.JPG,AFNE01.JPG,AFNE01.JPG,AFNE01.JPG,AFNE01.JPG,AFNE01.JPG,2,3,23,1,,,,,,,,,,,,,,,,,,,,,,,AFNE08.jpg,AFSA08.jpg,AFSA11.jpg,AFNE06.jpg,AFSA11.jpg,FS,4,num_2,16,num_2,0.800108923169,,,2017_Mar_21_1827,59.9913605009,FEMA4ImagesEEG,001,100035,
AFNE01.JPG,AFNE01.JPG,AFNE01.JPG,AFNE01.JPG,AFNE01.JPG,AFNE01.JPG,2,4,24,5,,,,,,,,,,,,,,,,,,,,,,,AFSA16.jpg,AFNE18.jpg,AFSA11.jpg,AFNE07.jpg,AFNE07.jpg,FN,3,num_4,16,num_4,1.78336246184,,,2017_Mar_21_1827,59.9913605009,FEMA4ImagesEEG,001,100035,
AFNE01.JPG,AFNE01.JPG,AFNE01.JPG,AFNE01.JPG,AFNE01.JPG,AFNE01.JPG,2,5,25,6,,,,,,,,,,,,,,,,,,,,,,,AFNE10.jpg,AFNE20.jpg,AFSA19.jpg,AFSA15.jpg,AFSA19.jpg,FS,4,num_2,32,num_8,1.50005981798,,,2017_Mar_21_1827,59.9913605009,FEMA4ImagesEEG,001,100035,
AFNE01.JPG,AFNE01.JPG,AFNE01.JPG,AFNE01.JPG,AFNE01.JPG,AFNE01.JPG,2,6,26,2,,,,,,,,,,,,,,,,,,,,,,,AFNE20.jpg,AFNE10.jpg,AFSA17.jpg,AFSA05.jpg,AFSA17.jpg,FS,4,num_2,16,num_2,1.71673199598,,,2017_Mar_21_1827,59.9913605009,FEMA4ImagesEEG,001,100035,
AFNE01.JPG,AFNE01.JPG,AFNE01.JPG,AFNE01.JPG,AFNE01.JPG,AFNE01.JPG,2,7,27,9,,,,,,,,,,,,,,,,,,,,,,,AFSA04.jpg,AFSA06.jpg,AFNE19.jpg,AFNE12.jpg,AFNE12.jpg,FN,3,num_4,16,num_4,1.41670053144,,,2017_Mar_21_1827,59.9913605009,FEMA4ImagesEEG,001,100035,
AFNE01.JPG,AFNE01.JPG,AFNE01.JPG,AFNE01.JPG,AFNE01.JPG,AFNE01.JPG,2,8,28,4,,,,,,,,,,,,,,,,,,,,,,,AFSA06.jpg,AFSA20.jpg,AFNE04.jpg,AFNE01.jpg,AFNE01.jpg,FN,3,num_4,16,num_4,1.20010404795,,,2017_Mar_21_1827,59.9913605009,FEMA4ImagesEEG,001,100035,
AFNE01.JPG,AFNE01.JPG,AFNE01.JPG,AFNE01.JPG,AFNE01.JPG,AFNE01.JPG,2,9,29,8,,,,,,,,,,,,,,,,,,,,,,,AFSA12.jpg,AFNE04.jpg,AFNE03.jpg,AFSA14.jpg,AFNE04.jpg,FN,3,num_6,16,num_6,1.18338966055,,,2017_Mar_21_1827,59.9913605009,FEMA4ImagesEEG,001,100035,
AFNE01.JPG,AFNE01.JPG,AFNE01.JPG,AFNE01.JPG,AFNE01.JPG,AFNE01.JPG,3,0,30,7,,,,,,,,,,,,,,,,,,,,,,,AFNE12.jpg,AFSA15.jpg,AFSA16.jpg,AFNE20.jpg,AFSA15.jpg,FS,4,num_6,32,num_4,1.08352029789,,,2017_Mar_21_1827,59.9913605009,FEMA4ImagesEEG,001,100035,
AFNE01.JPG,AFNE01.JPG,AFNE01.JPG,AFNE01.JPG,AFNE01.JPG,AFNE01.JPG,3,1,31,9,,,,,,,,,,,,,,,,,,,,,,,AFNE16.jpg,AFSA04.jpg,AFNE15.jpg,AFSA17.jpg,AFSA17.jpg,FS,4,num_4,32,num_6,0.983459132782,,,2017_Mar_21_1827,59.9913605009,FEMA4ImagesEEG,001,100035,
AFNE01.JPG,AFNE01.JPG,AFNE01.JPG,AFNE01.JPG,AFNE01.JPG,AFNE01.JPG,3,2,32,5,,,,,,,,,,,,,,,,,,,,,,,AFSA05.jpg,AFNE15.jpg,AFSA02.jpg,AFNE10.jpg,AFNE15.jpg,FN,3,num_6,16,num_6,1.3665952165,,,2017_Mar_21_1827,59.9913605009,FEMA4ImagesEEG,001,100035,
AFNE01.JPG,AFNE01.JPG,AFNE01.JPG,AFNE01.JPG,AFNE01.JPG,AFNE01.JPG,3,3,33,8,,,,,,,,,,,,,,,,,,,,,,,AFNE03.jpg,AFNE04.jpg,AFSA09.jpg,AFSA10.jpg,AFSA10.jpg,FS,4,num_4,32,num_2,1.81669565616,,,2017_Mar_21_1827,59.9913605009,FEMA4ImagesEEG,001,100035,
AFNE01.JPG,AFNE01.JPG,AFNE01.JPG,AFNE01.JPG,AFNE01.JPG,AFNE01.JPG,3,4,34,4,,,,,,,,,,,,,,,,,,,,,,,AFNE18.jpg,AFNE09.jpg,AFSA08.jpg,AFSA06.jpg,AFNE09.jpg,FN,3,num_6,32,num_2,2.20008063398,,,2017_Mar_21_1827,59.9913605009,FEMA4ImagesEEG,001,100035,
AFNE01.JPG,AFNE01.JPG,AFNE01.JPG,AFNE01.JPG,AFNE01.JPG,AFNE01.JPG,3,5,35,0,,,,,,,,,,,,,,,,,,,,,,,AFSA12.jpg,AFNE03.jpg,AFSA14.jpg,AFNE06.jpg,AFSA14.jpg,FS,4,num_2,16,num_2,1.23343660083,,,2017_Mar_21_1827,59.9913605009,FEMA4ImagesEEG,001,100035,
AFNE01.JPG,AFNE01.JPG,AFNE01.JPG,AFNE01.JPG,AFNE01.JPG,AFNE01.JPG,3,6,36,6,,,,,,,,,,,,,,,,,,,,,,,AFNE18.jpg,AFNE05.jpg,AFSA12.jpg,AFSA02.jpg,AFNE05.jpg,FN,3,num_6,16,num_6,0.76675231487,,,2017_Mar_21_1827,59.9913605009,FEMA4ImagesEEG,001,100035,
AFNE01.JPG,AFNE01.JPG,AFNE01.JPG,AFNE01.JPG,AFNE01.JPG,AFNE01.JPG,3,7,37,1,,,,,,,,,,,,,,,,,,,,,,,AFSA01.jpg,AFNE02.jpg,AFNE06.jpg,AFSA07.jpg,AFSA07.jpg,FS,4,num_4,32,num_8,1.78326495702,,,2017_Mar_21_1827,59.9913605009,FEMA4ImagesEEG,001,100035,
AFNE01.JPG,AFNE01.JPG,AFNE01.JPG,AFNE01.JPG,AFNE01.JPG,AFNE01.JPG,3,8,38,3,,,,,,,,,,,,,,,,,,,,,,,AFNE08.jpg,AFSA06.jpg,AFNE18.jpg,AFSA18.jpg,AFNE18.jpg,FN,3,num_2,32,num_6,1.3667427568,,,2017_Mar_21_1827,59.9913605009,FEMA4ImagesEEG,001,100035,
AFNE01.JPG,AFNE01.JPG,AFNE01.JPG,AFNE01.JPG,AFNE01.JPG,AFNE01.JPG,3,9,39,2,,,,,,,,,,,,,,,,,,,,,,,AFSA03.jpg,AFNE13.jpg,AFNE04.jpg,AFSA17.jpg,AFSA17.jpg,FS,4,num_4,32,num_6,1.15009720018,,,2017_Mar_21_1827,59.9913605009,FEMA4ImagesEEG,001,100035,
AFNE01.JPG,AFNE01.JPG,AFNE01.JPG,AFNE01.JPG,AFNE01.JPG,AFNE01.JPG,4,0,40,2,,,,,,,,,,,,,,,,,,,,,,,AFNE18.jpg,AFSA06.jpg,AFNE19.jpg,AFSA12.jpg,AFNE18.jpg,FN,3,num_8,32,num_4,0.950117599219,,,2017_Mar_21_1827,59.9913605009,FEMA4ImagesEEG,001,100035,
AFNE01.JPG,AFNE01.JPG,AFNE01.JPG,AFNE01.JPG,AFNE01.JPG,AFNE01.JPG,4,1,41,8,,,,,,,,,,,,,,,,,,,,,,,AFSA04.jpg,AFSA12.jpg,AFNE11.jpg,AFNE15.jpg,AFSA12.jpg,FS,4,num_6,16,num_6,0.933423097653,,,2017_Mar_21_1827,59.9913605009,FEMA4ImagesEEG,001,100035,
AFNE01.JPG,AFNE01.JPG,AFNE01.JPG,AFNE01.JPG,AFNE01.JPG,AFNE01.JPG,4,2,42,5,,,,,,,,,,,,,,,,,,,,,,,AFSA20.jpg,AFNE10.jpg,AFSA03.jpg,AFNE18.jpg,AFNE10.jpg,FN,3,num_6,16,num_6,1.15020945907,,,2017_Mar_21_1827,59.9913605009,FEMA4ImagesEEG,001,100035,
AFNE01.JPG,AFNE01.JPG,AFNE01.JPG,AFNE01.JPG,AFNE01.JPG,AFNE01.JPG,4,3,43,1,,,,,,,,,,,,,,,,,,,,,,,AFSA07.jpg,AFSA15.jpg,AFNE16.jpg,AFNE12.jpg,AFSA15.jpg,FS,4,num_6,16,num_6,1.08341220854,,,2017_Mar_21_1827,59.9913605009,FEMA4ImagesEEG,001,100035,
AFNE01.JPG,AFNE01.JPG,AFNE01.JPG,AFNE01.JPG,AFNE01.JPG,AFNE01.JPG,4,4,44,9,,,,,,,,,,,,,,,,,,,,,,,AFSA11.jpg,AFNE02.jpg,AFNE18.jpg,AFSA17.jpg,AFNE02.jpg,FN,3,num_6,16,num_6,1.3833641297,,,2017_Mar_21_1827,59.9913605009,FEMA4ImagesEEG,001,100035,
AFNE01.JPG,AFNE01.JPG,AFNE01.JPG,AFNE01.JPG,AFNE01.JPG,AFNE01.JPG,4,5,45,7,,,,,,,,,,,,,,,,,,,,,,,AFSA08.jpg,AFNE11.jpg,AFNE13.jpg,AFSA16.jpg,AFNE13.jpg,FN,3,num_2,32,num_4,1.00016870908,,,2017_Mar_21_1827,59.9913605009,FEMA4ImagesEEG,001,100035,
AFNE01.JPG,AFNE01.JPG,AFNE01.JPG,AFNE01.JPG,AFNE01.JPG,AFNE01.JPG,4,6,46,6,,,,,,,,,,,,,,,,,,,,,,,AFNE18.jpg,AFSA12.jpg,AFSA01.jpg,AFNE05.jpg,AFNE18.jpg,FN,3,num_8,16,num_8,1.33340603433,,,2017_Mar_21_1827,59.9913605009,FEMA4ImagesEEG,001,100035,
AFNE01.JPG,AFNE01.JPG,AFNE01.JPG,AFNE01.JPG,AFNE01.JPG,AFNE01.JPG,4,7,47,4,,,,,,,,,,,,,,,,,,,,,,,AFSA08.jpg,AFSA05.jpg,AFNE17.jpg,AFNE19.jpg,AFNE17.jpg,FN,3,num_2,16,num_2,1.28344441083,,,2017_Mar_21_1827,59.9913605009,FEMA4ImagesEEG,001,100035,
AFNE01.JPG,AFNE01.JPG,AFNE01.JPG,AFNE01.JPG,AFNE01.JPG,AFNE01.JPG,4,8,48,3,,,,,,,,,,,,,,,,,,,,,,,AFNE12.jpg,AFSA20.jpg,AFSA02.jpg,AFNE15.jpg,AFSA20.jpg,FS,4,num_6,16,num_6,0.950088411861,,,2017_Mar_21_1827,59.9913605009,FEMA4ImagesEEG,001,100035,
AFNE01.JPG,AFNE01.JPG,AFNE01.JPG,AFNE01.JPG,AFNE01.JPG,AFNE01.JPG,4,9,49,0,,,,,,,,,,,,,,,,,,,,,,,AFSA06.jpg,AFNE13.jpg,AFNE09.jpg,AFSA04.jpg,AFNE13.jpg,FN,3,num_6,16,num_6,1.46674394357,,,2017_Mar_21_1827,59.9913605009,FEMA4ImagesEEG,001,100035,
AFNE01.JPG,AFNE01.JPG,AFNE01.JPG,AFNE01.JPG,AFNE01.JPG,AFNE01.JPG,5,0,50,4,,,,,,,,,,,,,,,,,,,,,,,AFSA15.jpg,AFNE01.jpg,AFNE05.jpg,AFSA14.jpg,AFSA15.jpg,FS,4,num_8,16,num_8,0.53350366751,,,2017_Mar_21_1827,59.9913605009,FEMA4ImagesEEG,001,100035,
AFNE01.JPG,AFNE01.JPG,AFNE01.JPG,AFNE01.JPG,AFNE01.JPG,AFNE01.JPG,5,1,51,3,,,,,,,,,,,,,,,,,,,,,,,AFNE07.jpg,AFSA06.jpg,AFNE12.jpg,AFSA08.jpg,AFSA08.jpg,FS,4,num_4,32,num_6,1.45013604173,,,2017_Mar_21_1827,59.9913605009,FEMA4ImagesEEG,001,100035,
AFNE01.JPG,AFNE01.JPG,AFNE01.JPG,AFNE01.JPG,AFNE01.JPG,AFNE01.JPG,5,2,52,6,,,,,,,,,,,,,,,,,,,,,,,AFSA04.jpg,AFNE14.jpg,AFSA12.jpg,AFNE08.jpg,AFSA12.jpg,FS,4,num_2,16,num_2,1.6167141308,,,2017_Mar_21_1827,59.9913605009,FEMA4ImagesEEG,001,100035,
AFNE01.JPG,AFNE01.JPG,AFNE01.JPG,AFNE01.JPG,AFNE01.JPG,AFNE01.JPG,5,3,53,8,,,,,,,,,,,,,,,,,,,,,,,AFSA12.jpg,AFNE08.jpg,AFNE11.jpg,AFSA20.jpg,AFSA12.jpg,FS,4,num_8,16,num_8,1.15004556108,,,2017_Mar_21_1827,59.9913605009,FEMA4ImagesEEG,001,100035,
AFNE01.JPG,AFNE01.JPG,AFNE01.JPG,AFNE01.JPG,AFNE01.JPG,AFNE01.JPG,5,4,54,0,,,,,,,,,,,,,,,,,,,,,,,AFSA19.jpg,AFNE14.jpg,AFNE16.jpg,AFSA01.jpg,AFSA01.jpg,FS,4,num_4,32,num_2,1.78340255428,,,2017_Mar_21_1827,59.9913605009,FEMA4ImagesEEG,001,100035,
AFNE01.JPG,AFNE01.JPG,AFNE01.JPG,AFNE01.JPG,AFNE01.JPG,AFNE01.JPG,5,5,55,5,,,,,,,,,,,,,,,,,,,,,,,AFSA04.jpg,AFNE12.jpg,AFNE06.jpg,AFSA19.jpg,AFSA04.jpg,FS,4,num_8,16,num_8,0.866765048238,,,2017_Mar_21_1827,59.9913605009,FEMA4ImagesEEG,001,100035,
AFNE01.JPG,AFNE01.JPG,AFNE01.JPG,AFNE01.JPG,AFNE01.JPG,AFNE01.JPG,5,6,56,2,,,,,,,,,,,,,,,,,,,,,,,AFSA14.jpg,AFNE19.jpg,AFSA03.jpg,AFNE04.jpg,AFSA14.jpg,FS,4,num_8,16,num_8,1.10005859914,,,2017_Mar_21_1827,59.9913605009,FEMA4ImagesEEG,001,100035,
AFNE01.JPG,AFNE01.JPG,AFNE01.JPG,AFNE01.JPG,AFNE01.JPG,AFNE01.JPG,5,7,57,7,,,,,,,,,,,,,,,,,,,,,,,AFSA12.jpg,AFNE01.jpg,AFNE07.jpg,AFSA04.jpg,AFSA04.jpg,FS,4,num_4,32,num_2,1.61669649009,,,2017_Mar_21_1827,59.9913605009,FEMA4ImagesEEG,001,100035,
AFNE01.JPG,AFNE01.JPG,AFNE01.JPG,AFNE01.JPG,AFNE01.JPG,AFNE01.JPG,5,8,58,9,,,,,,,,,,,,,,,,,,,,,,,AFSA08.jpg,AFNE07.jpg,AFNE16.jpg,AFSA05.jpg,AFNE07.jpg,FN,3,num_6,16,num_6,1.05011429562,,,2017_Mar_21_1827,59.9913605009,FEMA4ImagesEEG,001,100035,
AFNE01.JPG,AFNE01.JPG,AFNE01.JPG,AFNE01.JPG,AFNE01.JPG,AFNE01.JPG,5,9,59,1,,,,,,,,,,,,,,,,,,,,,,,AFNE09.jpg,AFSA12.jpg,AFNE03.jpg,AFSA03.jpg,AFSA03.jpg,FS,4,num_4,32,num_6,0.966831986618,,,2017_Mar_21_1827,59.9913605009,FEMA4ImagesEEG,001,100035,
,,,,,,,,,,,,,,,,,,,,,,,,,,,,,,,,,,,,,,,,,,,space,32.8142958818,2017_Mar_21_1827,59.9913605009,FEMA4ImagesEEG,001,100035,
AFNE01.JPG,AFNE01.JPG,AFNE01.JPG,AFNE01.JPG,AFNE01.JPG,AFNE01.JPG,,,,,0,0,0,0,,,,,,,,,,,,,,,,,,,AMSA20.jpg,AMNE05.jpg,AMSA05.jpg,AMNE01.jpg,AMNE01.jpg,MN,1,num_4,32,num_2,3.03330400703,,,2017_Mar_21_1827,59.9913605009,FEMA4ImagesEEG,001,100035,
AFNE01.JPG,AFNE01.JPG,AFNE01.JPG,AFNE01.JPG,AFNE01.JPG,AFNE01.JPG,,,,,0,1,1,1,,,,,,,,,,,,,,,,,,,AMSA01.jpg,AMNE04.jpg,AMSA08.jpg,AMNE07.jpg,AMNE07.jpg,MN,1,num_4,32,num_8,0.900122939551,,,2017_Mar_21_1827,59.9913605009,FEMA4ImagesEEG,001,100035,
AFNE01.JPG,AFNE01.JPG,AFNE01.JPG,AFNE01.JPG,AFNE01.JPG,AFNE01.JPG,,,,,0,2,2,9,,,,,,,,,,,,,,,,,,,AMNE03.jpg,AMSA03.jpg,AMNE10.jpg,AMSA16.jpg,AMSA16.jpg,MS,2,num_4,32,num_8,0.88349515188,,,2017_Mar_21_1827,59.9913605009,FEMA4ImagesEEG,001,100035,
AFNE01.JPG,AFNE01.JPG,AFNE01.JPG,AFNE01.JPG,AFNE01.JPG,AFNE01.JPG,,,,,0,3,3,7,,,,,,,,,,,,,,,,,,,AMNE04.jpg,AMSA15.jpg,AMSA02.jpg,AMNE07.jpg,AMNE07.jpg,MN,1,num_4,32,num_8,0.866782047437,,,2017_Mar_21_1827,59.9913605009,FEMA4ImagesEEG,001,100035,
AFNE01.JPG,AFNE01.JPG,AFNE01.JPG,AFNE01.JPG,AFNE01.JPG,AFNE01.JPG,,,,,0,4,4,4,,,,,,,,,,,,,,,,,,,AMNE14.jpg,AMSA04.jpg,AMSA19.jpg,AMNE11.jpg,AMNE14.jpg,MN,1,num_8,32,num_2,0.933432399121,,,2017_Mar_21_1827,59.9913605009,FEMA4ImagesEEG,001,100035,
AFNE01.JPG,AFNE01.JPG,AFNE01.JPG,AFNE01.JPG,AFNE01.JPG,AFNE01.JPG,,,,,0,5,5,5,,,,,,,,,,,,,,,,,,,AMSA03.jpg,AMNE09.jpg,AMNE10.jpg,AMSA06.jpg,AMNE10.jpg,MN,1,num_2,16,num_2,1.03343454807,,,2017_Mar_21_1827,59.9913605009,FEMA4ImagesEEG,001,100035,
AFNE01.JPG,AFNE01.JPG,AFNE01.JPG,AFNE01.JPG,AFNE01.JPG,AFNE01.JPG,,,,,0,6,6,6,,,,,,,,,,,,,,,,,,,AMSA04.jpg,AMNE02.jpg,AMSA14.jpg,AMNE10.jpg,AMNE02.jpg,MN,1,num_6,32,num_8,1.20007838879,,,2017_Mar_21_1827,59.9913605009,FEMA4ImagesEEG,001,100035,
AFNE01.JPG,AFNE01.JPG,AFNE01.JPG,AFNE01.JPG,AFNE01.JPG,AFNE01.JPG,,,,,0,7,7,8,,,,,,,,,,,,,,,,,,,AMSA18.jpg,AMNE15.jpg,AMSA02.jpg,AMNE03.jpg,AMSA02.jpg,MS,2,num_2,16,num_2,0.800112130586,,,2017_Mar_21_1827,59.9913605009,FEMA4ImagesEEG,001,100035,
AFNE01.JPG,AFNE01.JPG,AFNE01.JPG,AFNE01.JPG,AFNE01.JPG,AFNE01.JPG,,,,,0,8,8,3,,,,,,,,,,,,,,,,,,,AMSA02.jpg,AMNE12.jpg,AMSA03.jpg,AMNE06.jpg,AMSA03.jpg,MS,2,num_2,16,num_2,1.16677887208,,,2017_Mar_21_1827,59.9913605009,FEMA4ImagesEEG,001,100035,
AFNE01.JPG,AFNE01.JPG,AFNE01.JPG,AFNE01.JPG,AFNE01.JPG,AFNE01.JPG,,,,,0,9,9,2,,,,,,,,,,,,,,,,,,,AMNE15.jpg,AMSA07.jpg,AMSA14.jpg,AMNE20.jpg,AMNE15.jpg,MN,1,num_8,32,num_4,1.31673815422,,,2017_Mar_21_1827,59.9913605009,FEMA4ImagesEEG,001,100035,
AFNE01.JPG,AFNE01.JPG,AFNE01.JPG,AFNE01.JPG,AFNE01.JPG,AFNE01.JPG,,,,,1,0,10,2,,,,,,,,,,,,,,,,,,,AMSA17.jpg,AMNE15.jpg,AMSA07.jpg,AMNE14.jpg,AMNE14.jpg,MN,1,num_4,32,num_8,1.03341113409,,,2017_Mar_21_1827,59.9913605009,FEMA4ImagesEEG,001,100035,
AFNE01.JPG,AFNE01.JPG,AFNE01.JPG,AFNE01.JPG,AFNE01.JPG,AFNE01.JPG,,,,,1,1,11,9,,,,,,,,,,,,,,,,,,,AMSA04.jpg,AMSA06.jpg,AMNE04.jpg,AMNE01.jpg,AMSA04.jpg,MS,2,num_8,32,num_6,1.11672712077,,,2017_Mar_21_1827,59.9913605009,FEMA4ImagesEEG,001,100035,
AFNE01.JPG,AFNE01.JPG,AFNE01.JPG,AFNE01.JPG,AFNE01.JPG,AFNE01.JPG,,,,,1,2,12,1,,,,,,,,,,,,,,,,,,,AMSA14.jpg,AMNE17.jpg,AMNE14.jpg,AMSA06.jpg,AMSA06.jpg,MS,2,num_4,32,num_2,1.05011942744,,,2017_Mar_21_1827,59.9913605009,FEMA4ImagesEEG,001,100035,
AFNE01.JPG,AFNE01.JPG,AFNE01.JPG,AFNE01.JPG,AFNE01.JPG,AFNE01.JPG,,,,,1,3,13,4,,,,,,,,,,,,,,,,,,,AMSA01.jpg,AMSA20.jpg,AMNE12.jpg,AMNE04.jpg,AMNE04.jpg,MN,1,num_4,16,num_4,0.800105395087,,,2017_Mar_21_1827,59.9913605009,FEMA4ImagesEEG,001,100035,
AFNE01.JPG,AFNE01.JPG,AFNE01.JPG,AFNE01.JPG,AFNE01.JPG,AFNE01.JPG,,,,,1,4,14,0,,,,,,,,,,,,,,,,,,,AMSA06.jpg,AMNE15.jpg,AMNE04.jpg,AMSA12.jpg,AMNE15.jpg,MN,1,num_6,32,num_8,1.58340178453,,,2017_Mar_21_1827,59.9913605009,FEMA4ImagesEEG,001,100035,
AFNE01.JPG,AFNE01.JPG,AFNE01.JPG,AFNE01.JPG,AFNE01.JPG,AFNE01.JPG,,,,,1,5,15,5,,,,,,,,,,,,,,,,,,,AMNE08.jpg,AMSA06.jpg,AMNE20.jpg,AMSA16.jpg,AMNE08.jpg,MN,1,num_8,32,num_6,1.1831064474,,,2017_Mar_21_1827,59.9913605009,FEMA4ImagesEEG,001,100035,
AFNE01.JPG,AFNE01.JPG,AFNE01.JPG,AFNE01.JPG,AFNE01.JPG,AFNE01.JPG,,,,,1,6,16,8,,,,,,,,,,,,,,,,,,,AMNE06.jpg,AMNE18.jpg,AMSA18.jpg,AMSA20.jpg,AMNE06.jpg,MN,1,num_8,16,num_8,1.25007048255,,,2017_Mar_21_1827,59.9913605009,FEMA4ImagesEEG,001,100035,
AFNE01.JPG,AFNE01.JPG,AFNE01.JPG,AFNE01.JPG,AFNE01.JPG,AFNE01.JPG,,,,,1,7,17,6,,,,,,,,,,,,,,,,,,,AMSA08.jpg,AMSA19.jpg,AMNE16.jpg,AMNE04.jpg,AMSA19.jpg,MS,2,num_6,16,num_6,2.26670179836,,,2017_Mar_21_1827,59.9913605009,FEMA4ImagesEEG,001,100035,
AFNE01.JPG,AFNE01.JPG,AFNE01.JPG,AFNE01.JPG,AFNE01.JPG,AFNE01.JPG,,,,,1,8,18,7,,,,,,,,,,,,,,,,,,,AMNE11.jpg,AMSA11.jpg,AMNE15.jpg,AMSA01.jpg,AMSA11.jpg,MS,2,num_6,16,num_6,0.916611846944,,,2017_Mar_21_1827,59.9913605009,FEMA4ImagesEEG,001,100035,
AFNE01.JPG,AFNE01.JPG,AFNE01.JPG,AFNE01.JPG,AFNE01.JPG,AFNE01.JPG,,,,,1,9,19,3,,,,,,,,,,,,,,,,,,,AMSA13.jpg,AMNE04.jpg,AMNE18.jpg,AMSA18.jpg,AMNE04.jpg,MN,1,num_6,32,num_4,1.35008866852,,,2017_Mar_21_1827,59.9913605009,FEMA4ImagesEEG,001,100035,
AFNE01.JPG,AFNE01.JPG,AFNE01.JPG,AFNE01.JPG,AFNE01.JPG,AFNE01.JPG,,,,,2,0,20,9,,,,,,,,,,,,,,,,,,,AMSA04.jpg,AMNE16.jpg,AMSA20.jpg,AMNE09.jpg,AMNE16.jpg,MN,1,num_6,16,num_6,0.933441700588,,,2017_Mar_21_1827,59.9913605009,FEMA4ImagesEEG,001,100035,
AFNE01.JPG,AFNE01.JPG,AFNE01.JPG,AFNE01.JPG,AFNE01.JPG,AFNE01.JPG,,,,,2,1,21,3,,,,,,,,,,,,,,,,,,,AMNE19.jpg,AMSA04.jpg,AMSA10.jpg,AMNE11.jpg,AMSA04.jpg,MS,2,num_6,16,num_6,0.716768239567,,,2017_Mar_21_1827,59.9913605009,FEMA4ImagesEEG,001,100035,
AFNE01.JPG,AFNE01.JPG,AFNE01.JPG,AFNE01.JPG,AFNE01.JPG,AFNE01.JPG,,,,,2,2,22,2,,,,,,,,,,,,,,,,,,,AMSA07.jpg,AMNE03.jpg,AMNE06.jpg,AMSA08.jpg,AMSA07.jpg,MS,2,num_8,32,num_2,1.9000033036,,,2017_Mar_21_1827,59.9913605009,FEMA4ImagesEEG,001,100035,
AFNE01.JPG,AFNE01.JPG,AFNE01.JPG,AFNE01.JPG,AFNE01.JPG,AFNE01.JPG,,,,,2,3,23,0,,,,,,,,,,,,,,,,,,,AMNE10.jpg,AMSA06.jpg,AMSA16.jpg,AMNE06.jpg,AMSA06.jpg,MS,2,num_6,32,num_2,1.68340040534,,,2017_Mar_21_1827,59.9913605009,FEMA4ImagesEEG,001,100035,
AFNE01.JPG,AFNE01.JPG,AFNE01.JPG,AFNE01.JPG,AFNE01.JPG,AFNE01.JPG,,,,,2,4,24,8,,,,,,,,,,,,,,,,,,,AMSA03.jpg,AMNE07.jpg,AMSA07.jpg,AMNE06.jpg,AMSA03.jpg,MS,2,num_8,16,num_8,0.683478665829,,,2017_Mar_21_1827,59.9913605009,FEMA4ImagesEEG,001,100035,
AFNE01.JPG,AFNE01.JPG,AFNE01.JPG,AFNE01.JPG,AFNE01.JPG,AFNE01.JPG,,,,,2,5,25,7,,,,,,,,,,,,,,,,,,,AMNE05.jpg,AMNE08.jpg,AMSA18.jpg,AMSA20.jpg,AMSA20.jpg,MS,2,num_4,16,num_4,1.26674798486,,,2017_Mar_21_1827,59.9913605009,FEMA4ImagesEEG,001,100035,
AFNE01.JPG,AFNE01.JPG,AFNE01.JPG,AFNE01.JPG,AFNE01.JPG,AFNE01.JPG,,,,,2,6,26,6,,,,,,,,,,,,,,,,,,,AMNE02.jpg,AMSA16.jpg,AMSA10.jpg,AMNE04.jpg,AMSA10.jpg,MS,2,num_2,32,num_6,1.38340935402,,,2017_Mar_21_1827,59.9913605009,FEMA4ImagesEEG,001,100035,
AFNE01.JPG,AFNE01.JPG,AFNE01.JPG,AFNE01.JPG,AFNE01.JPG,AFNE01.JPG,,,,,2,7,27,4,,,,,,,,,,,,,,,,,,,AMNE20.jpg,AMSA04.jpg,AMSA16.jpg,AMNE17.jpg,AMSA16.jpg,MS,2,num_2,32,num_8,1.1667528922,,,2017_Mar_21_1827,59.9913605009,FEMA4ImagesEEG,001,100035,
AFNE01.JPG,AFNE01.JPG,AFNE01.JPG,AFNE01.JPG,AFNE01.JPG,AFNE01.JPG,,,,,2,8,28,1,,,,,,,,,,,,,,,,,,,AMNE05.jpg,AMSA03.jpg,AMSA08.jpg,AMNE08.jpg,AMNE08.jpg,MN,1,num_4,32,num_8,1.06675234693,,,2017_Mar_21_1827,59.9913605009,FEMA4ImagesEEG,001,100035,
AFNE01.JPG,AFNE01.JPG,AFNE01.JPG,AFNE01.JPG,AFNE01.JPG,AFNE01.JPG,,,,,2,9,29,5,,,,,,,,,,,,,,,,,,,AMSA15.jpg,AMSA10.jpg,AMNE01.jpg,AMNE14.jpg,AMNE01.jpg,MN,1,num_2,32,num_4,0.983587749361,,,2017_Mar_21_1827,59.9913605009,FEMA4ImagesEEG,001,100035,
AFNE01.JPG,AFNE01.JPG,AFNE01.JPG,AFNE01.JPG,AFNE01.JPG,AFNE01.JPG,,,,,3,0,30,4,,,,,,,,,,,,,,,,,,,AMSA15.jpg,AMNE20.jpg,AMSA13.jpg,AMNE16.jpg,AMNE20.jpg,MN,1,num_6,16,num_6,0.983526488126,,,2017_Mar_21_1827,59.9913605009,FEMA4ImagesEEG,001,100035,
AFNE01.JPG,AFNE01.JPG,AFNE01.JPG,AFNE01.JPG,AFNE01.JPG,AFNE01.JPG,,,,,3,1,31,9,,,,,,,,,,,,,,,,,,,AMSA17.jpg,AMNE08.jpg,AMSA20.jpg,AMNE13.jpg,AMNE08.jpg,MN,1,num_6,32,num_4,1.01673299028,,,2017_Mar_21_1827,59.9913605009,FEMA4ImagesEEG,001,100035,
AFNE01.JPG,AFNE01.JPG,AFNE01.JPG,AFNE01.JPG,AFNE01.JPG,AFNE01.JPG,,,,,3,2,32,6,,,,,,,,,,,,,,,,,,,AMSA15.jpg,AMNE05.jpg,AMNE02.jpg,AMSA12.jpg,AMSA12.jpg,MS,2,num_4,16,num_4,1.40016607899,,,2017_Mar_21_1827,59.9913605009,FEMA4ImagesEEG,001,100035,
AFNE01.JPG,AFNE01.JPG,AFNE01.JPG,AFNE01.JPG,AFNE01.JPG,AFNE01.JPG,,,,,3,3,33,3,,,,,,,,,,,,,,,,,,,AMNE13.jpg,AMNE18.jpg,AMSA18.jpg,AMSA07.jpg,AMSA18.jpg,MS,2,num_2,32,num_6,1.06674689433,,,2017_Mar_21_1827,59.9913605009,FEMA4ImagesEEG,001,100035,
AFNE01.JPG,AFNE01.JPG,AFNE01.JPG,AFNE01.JPG,AFNE01.JPG,AFNE01.JPG,,,,,3,4,34,5,,,,,,,,,,,,,,,,,,,AMNE15.jpg,AMSA06.jpg,AMNE11.jpg,AMSA02.jpg,AMNE11.jpg,MN,1,num_2,32,num_6,0.766816462798,,,2017_Mar_21_1827,59.9913605009,FEMA4ImagesEEG,001,100035,
AFNE01.JPG,AFNE01.JPG,AFNE01.JPG,AFNE01.JPG,AFNE01.JPG,AFNE01.JPG,,,,,3,5,35,1,,,,,,,,,,,,,,,,,,,AMNE08.jpg,AMNE06.jpg,AMSA03.jpg,AMSA08.jpg,AMNE08.jpg,MN,1,num_8,16,num_8,1.05009473045,,,2017_Mar_21_1827,59.9913605009,FEMA4ImagesEEG,001,100035,
AFNE01.JPG,AFNE01.JPG,AFNE01.JPG,AFNE01.JPG,AFNE01.JPG,AFNE01.JPG,,,,,3,6,36,7,,,,,,,,,,,,,,,,,,,AMSA12.jpg,AMSA14.jpg,AMNE18.jpg,AMNE17.jpg,AMSA14.jpg,MS,2,num_6,16,num_6,0.916764519003,,,2017_Mar_21_1827,59.9913605009,FEMA4ImagesEEG,001,100035,
AFNE01.JPG,AFNE01.JPG,AFNE01.JPG,AFNE01.JPG,AFNE01.JPG,AFNE01.JPG,,,,,3,7,37,8,,,,,,,,,,,,,,,,,,,AMSA07.jpg,AMNE07.jpg,AMSA12.jpg,AMNE14.jpg,AMSA12.jpg,MS,2,num_2,32,num_8,1.50012075849,,,2017_Mar_21_1827,59.9913605009,FEMA4ImagesEEG,001,100035,
AFNE01.JPG,AFNE01.JPG,AFNE01.JPG,AFNE01.JPG,AFNE01.JPG,AFNE01.JPG,,,,,3,8,38,2,,,,,,,,,,,,,,,,,,,AMSA02.jpg,AMSA11.jpg,AMNE20.jpg,AMNE13.jpg,AMNE20.jpg,MN,1,num_2,16,num_2,1.46677537606,,,2017_Mar_21_1827,59.9913605009,FEMA4ImagesEEG,001,100035,
AFNE01.JPG,AFNE01.JPG,AFNE01.JPG,AFNE01.JPG,AFNE01.JPG,AFNE01.JPG,,,,,3,9,39,0,,,,,,,,,,,,,,,,,,,AMSA02.jpg,AMSA17.jpg,AMNE10.jpg,AMNE19.jpg,AMSA02.jpg,MS,2,num_8,16,num_8,1.03369146062,,,2017_Mar_21_1827,59.9913605009,FEMA4ImagesEEG,001,100035,
AFNE01.JPG,AFNE01.JPG,AFNE01.JPG,AFNE01.JPG,AFNE01.JPG,AFNE01.JPG,,,,,4,0,40,2,,,,,,,,,,,,,,,,,,,AMSA02.jpg,AMNE14.jpg,AMNE16.jpg,AMSA01.jpg,AMNE14.jpg,MN,1,num_6,16,num_6,1.61676384544,,,2017_Mar_21_1827,59.9913605009,FEMA4ImagesEEG,001,100035,
AFNE01.JPG,AFNE01.JPG,AFNE01.JPG,AFNE01.JPG,AFNE01.JPG,AFNE01.JPG,,,,,4,1,41,1,,,,,,,,,,,,,,,,,,,AMSA18.jpg,AMSA19.jpg,AMNE12.jpg,AMNE09.jpg,AMSA19.jpg,MS,2,num_6,32,num_8,1.03341883188,,,2017_Mar_21_1827,59.9913605009,FEMA4ImagesEEG,001,100035,
AFNE01.JPG,AFNE01.JPG,AFNE01.JPG,AFNE01.JPG,AFNE01.JPG,AFNE01.JPG,,,,,4,2,42,4,,,,,,,,,,,,,,,,,,,AMSA05.jpg,AMSA07.jpg,AMNE08.jpg,AMNE05.jpg,AMNE05.jpg,MN,1,num_4,16,num_4,0.850125713914,,,2017_Mar_21_1827,59.9913605009,FEMA4ImagesEEG,001,100035,
AFNE01.JPG,AFNE01.JPG,AFNE01.JPG,AFNE01.JPG,AFNE01.JPG,AFNE01.JPG,,,,,4,3,43,0,,,,,,,,,,,,,,,,,,,AMSA17.jpg,AMSA07.jpg,AMNE20.jpg,AMNE08.jpg,AMNE20.jpg,MN,1,num_2,32,num_6,1.00011610775,,,2017_Mar_21_1827,59.9913605009,FEMA4ImagesEEG,001,100035,
AFNE01.JPG,AFNE01.JPG,AFNE01.JPG,AFNE01.JPG,AFNE01.JPG,AFNE01.JPG,,,,,4,4,44,5,,,,,,,,,,,,,,,,,,,AMSA01.jpg,AMNE16.jpg,AMNE19.jpg,AMSA11.jpg,AMNE16.jpg,MN,1,num_6,32,num_2,1.3332706822,,,2017_Mar_21_1827,59.9913605009,FEMA4ImagesEEG,001,100035,
AFNE01.JPG,AFNE01.JPG,AFNE01.JPG,AFNE01.JPG,AFNE01.JPG,AFNE01.JPG,,,,,4,5,45,7,,,,,,,,,,,,,,,,,,,AMNE16.jpg,AMSA17.jpg,AMSA07.jpg,AMNE14.jpg,AMNE16.jpg,MN,1,num_8,32,num_6,1.0667738365,,,2017_Mar_21_1827,59.9913605009,FEMA4ImagesEEG,001,100035,
AFNE01.JPG,AFNE01.JPG,AFNE01.JPG,AFNE01.JPG,AFNE01.JPG,AFNE01.JPG,,,,,4,6,46,3,,,,,,,,,,,,,,,,,,,AMSA08.jpg,AMSA20.jpg,AMNE10.jpg,AMNE20.jpg,AMSA08.jpg,MS,2,num_8,16,num_8,0.933449719101,,,2017_Mar_21_1827,59.9913605009,FEMA4ImagesEEG,001,100035,
AFNE01.JPG,AFNE01.JPG,AFNE01.JPG,AFNE01.JPG,AFNE01.JPG,AFNE01.JPG,,,,,4,7,47,9,,,,,,,,,,,,,,,,,,,AMNE05.jpg,AMSA17.jpg,AMNE07.jpg,AMSA12.jpg,AMNE07.jpg,MN,1,num_2,32,num_6,1.0333056107,,,2017_Mar_21_1827,59.9913605009,FEMA4ImagesEEG,001,100035,
AFNE01.JPG,AFNE01.JPG,AFNE01.JPG,AFNE01.JPG,AFNE01.JPG,AFNE01.JPG,,,,,4,8,48,8,,,,,,,,,,,,,,,,,,,AMSA05.jpg,AMSA12.jpg,AMNE02.jpg,AMNE13.jpg,AMNE13.jpg,MN,1,num_4,16,num_4,1.01675095171,,,2017_Mar_21_1827,59.9913605009,FEMA4ImagesEEG,001,100035,
AFNE01.JPG,AFNE01.JPG,AFNE01.JPG,AFNE01.JPG,AFNE01.JPG,AFNE01.JPG,,,,,4,9,49,6,,,,,,,,,,,,,,,,,,,AMNE04.jpg,AMNE19.jpg,AMSA02.jpg,AMSA15.jpg,AMSA02.jpg,MS,2,num_2,32,num_8,0.750120036828,,,2017_Mar_21_1827,59.9913605009,FEMA4ImagesEEG,001,100035,
AFNE01.JPG,AFNE01.JPG,AFNE01.JPG,AFNE01.JPG,AFNE01.JPG,AFNE01.JPG,,,,,5,0,50,5,,,,,,,,,,,,,,,,,,,AMNE11.jpg,AMNE09.jpg,AMSA04.jpg,AMSA10.jpg,AMNE09.jpg,MN,1,num_6,32,num_8,1.00016774691,,,2017_Mar_21_1827,59.9913605009,FEMA4ImagesEEG,001,100035,
AFNE01.JPG,AFNE01.JPG,AFNE01.JPG,AFNE01.JPG,AFNE01.JPG,AFNE01.JPG,,,,,5,1,51,1,,,,,,,,,,,,,,,,,,,AMNE02.jpg,AMSA13.jpg,AMSA06.jpg,AMNE10.jpg,AMSA06.jpg,MS,2,num_2,32,num_4,0.816728371661,,,2017_Mar_21_1827,59.9913605009,FEMA4ImagesEEG,001,100035,
AFNE01.JPG,AFNE01.JPG,AFNE01.JPG,AFNE01.JPG,AFNE01.JPG,AFNE01.JPG,,,,,5,2,52,3,,,,,,,,,,,,,,,,,,,AMNE14.jpg,AMSA12.jpg,AMNE02.jpg,AMSA04.jpg,AMNE02.jpg,MN,1,num_2,16,num_2,1.93333264906,,,2017_Mar_21_1827,59.9913605009,FEMA4ImagesEEG,001,100035,
AFNE01.JPG,AFNE01.JPG,AFNE01.JPG,AFNE01.JPG,AFNE01.JPG,AFNE01.JPG,,,,,5,3,53,2,,,,,,,,,,,,,,,,,,,AMSA08.jpg,AMNE12.jpg,AMNE17.jpg,AMSA13.jpg,AMSA08.jpg,MS,2,num_8,32,num_4,1.10009259754,,,2017_Mar_21_1827,59.9913605009,FEMA4ImagesEEG,001,100035,
AFNE01.JPG,AFNE01.JPG,AFNE01.JPG,AFNE01.JPG,AFNE01.JPG,AFNE01.JPG,,,,,5,4,54,6,,,,,,,,,,,,,,,,,,,AMSA07.jpg,AMNE06.jpg,AMNE11.jpg,AMSA16.jpg,AMSA07.jpg,MS,2,num_8,32,num_6,2.9833231392,,,2017_Mar_21_1827,59.9913605009,FEMA4ImagesEEG,001,100035,
AFNE01.JPG,AFNE01.JPG,AFNE01.JPG,AFNE01.JPG,AFNE01.JPG,AFNE01.JPG,,,,,5,5,55,0,,,,,,,,,,,,,,,,,,,AMNE18.jpg,AMSA06.jpg,AMSA16.jpg,AMNE15.jpg,AMNE18.jpg,MN,1,num_8,16,num_8,1.15005582472,,,2017_Mar_21_1827,59.9913605009,FEMA4ImagesEEG,001,100035,
AFNE01.JPG,AFNE01.JPG,AFNE01.JPG,AFNE01.JPG,AFNE01.JPG,AFNE01.JPG,,,,,5,6,56,7,,,,,,,,,,,,,,,,,,,AMNE14.jpg,AMSA07.jpg,AMSA14.jpg,AMNE19.jpg,AMSA14.jpg,MS,2,num_2,32,num_6,1.18339671683,,,2017_Mar_21_1827,59.9913605009,FEMA4ImagesEEG,001,100035,
AFNE01.JPG,AFNE01.JPG,AFNE01.JPG,AFNE01.JPG,AFNE01.JPG,AFNE01.JPG,,,,,5,7,57,9,,,,,,,,,,,,,,,,,,,AMSA09.jpg,AMSA03.jpg,AMNE16.jpg,AMNE03.jpg,AMNE03.jpg,MN,1,num_4,16,num_4,1.66640248406,,,2017_Mar_21_1827,59.9913605009,FEMA4ImagesEEG,001,100035,
AFNE01.JPG,AFNE01.JPG,AFNE01.JPG,AFNE01.JPG,AFNE01.JPG,AFNE01.JPG,,,,,5,8,58,4,,,,,,,,,,,,,,,,,,,AMNE04.jpg,AMSA11.jpg,AMNE14.jpg,AMSA08.jpg,AMNE14.jpg,MN,1,num_2,32,num_4,2.01655048941,,,2017_Mar_21_1827,59.9913605009,FEMA4ImagesEEG,001,100035,
AFNE01.JPG,AFNE01.JPG,AFNE01.JPG,AFNE01.JPG,AFNE01.JPG,AFNE01.JPG,,,,,5,9,59,8,,,,,,,,,,,,,,,,,,,AMSA04.jpg,AMNE02.jpg,AMSA13.jpg,AMNE16.jpg,AMNE16.jpg,MN,1,num_4,32,num_8,1.46669679484,,,2017_Mar_21_1827,59.9913605009,FEMA4ImagesEEG,001,100035,
,,,,,,,,,,,,,,,,,,,,,,,,,,,,,,,,,,,,,,,,,,,space,48.0464341282,2017_Mar_21_1827,59.9913605009,FEMA4ImagesEEG,001,100035,
AFNE01.JPG,AFNE01.JPG,AFNE01.JPG,AFNE01.JPG,AFNE01.JPG,AFNE01.JPG,,,,,,,,,0,0,0,7,,,,,,,,,,,,,,,AFNE02.jpg,AFNE09.jpg,AFSA04.jpg,AFSA05.jpg,AFNE09.jpg,FN,3,num_6,16,num_6,0.866793914814,,,2017_Mar_21_1827,59.9913605009,FEMA4ImagesEEG,001,100035,
AFNE01.JPG,AFNE01.JPG,AFNE01.JPG,AFNE01.JPG,AFNE01.JPG,AFNE01.JPG,,,,,,,,,0,1,1,2,,,,,,,,,,,,,,,AFNE18.jpg,AFSA14.jpg,AFNE09.jpg,AFSA19.jpg,AFSA14.jpg,FS,4,num_6,16,num_6,1.04975442565,,,2017_Mar_21_1827,59.9913605009,FEMA4ImagesEEG,001,100035,
AFNE01.JPG,AFNE01.JPG,AFNE01.JPG,AFNE01.JPG,AFNE01.JPG,AFNE01.JPG,,,,,,,,,0,2,2,9,,,,,,,,,,,,,,,AFSA05.jpg,AFNE03.jpg,AFSA04.jpg,AFNE11.jpg,AFNE03.jpg,FN,3,num_6,32,num_8,0.700139489665,,,2017_Mar_21_1827,59.9913605009,FEMA4ImagesEEG,001,100035,
AFNE01.JPG,AFNE01.JPG,AFNE01.JPG,AFNE01.JPG,AFNE01.JPG,AFNE01.JPG,,,,,,,,,0,3,3,0,,,,,,,,,,,,,,,AFNE12.jpg,AFNE08.jpg,AFSA17.jpg,AFSA02.jpg,AFSA17.jpg,FS,4,num_2,32,num_6,0.75014858268,,,2017_Mar_21_1827,59.9913605009,FEMA4ImagesEEG,001,100035,
AFNE01.JPG,AFNE01.JPG,AFNE01.JPG,AFNE01.JPG,AFNE01.JPG,AFNE01.JPG,,,,,,,,,0,4,4,1,,,,,,,,,,,,,,,AFNE15.jpg,AFNE14.jpg,AFSA13.jpg,AFSA09.jpg,AFSA09.jpg,FS,4,num_4,32,num_6,0.783445212699,,,2017_Mar_21_1827,59.9913605009,FEMA4ImagesEEG,001,100035,
AFNE01.JPG,AFNE01.JPG,AFNE01.JPG,AFNE01.JPG,AFNE01.JPG,AFNE01.JPG,,,,,,,,,0,5,5,4,,,,,,,,,,,,,,,AFNE13.jpg,AFNE03.jpg,AFSA01.jpg,AFSA02.jpg,AFNE13.jpg,FN,3,num_8,32,num_6,0.71678235213,,,2017_Mar_21_1827,59.9913605009,FEMA4ImagesEEG,001,100035,
AFNE01.JPG,AFNE01.JPG,AFNE01.JPG,AFNE01.JPG,AFNE01.JPG,AFNE01.JPG,,,,,,,,,0,6,6,5,,,,,,,,,,,,,,,AFSA11.jpg,AFNE02.jpg,AFSA03.jpg,AFNE19.jpg,AFNE02.jpg,FN,3,num_6,32,num_4,0.950103165931,,,2017_Mar_21_1827,59.9913605009,FEMA4ImagesEEG,001,100035,
AFNE01.JPG,AFNE01.JPG,AFNE01.JPG,AFNE01.JPG,AFNE01.JPG,AFNE01.JPG,,,,,,,,,0,7,7,3,,,,,,,,,,,,,,,AFNE13.jpg,AFSA20.jpg,AFSA06.jpg,AFNE14.jpg,AFNE13.jpg,FN,3,num_8,16,num_8,1.00009878783,,,2017_Mar_21_1827,59.9913605009,FEMA4ImagesEEG,001,100035,
AFNE01.JPG,AFNE01.JPG,AFNE01.JPG,AFNE01.JPG,AFNE01.JPG,AFNE01.JPG,,,,,,,,,0,8,8,8,,,,,,,,,,,,,,,AFNE07.jpg,AFNE10.jpg,AFSA19.jpg,AFSA06.jpg,AFNE07.jpg,FN,3,num_8,32,num_6,0.883414004697,,,2017_Mar_21_1827,59.9913605009,FEMA4ImagesEEG,001,100035,
AFNE01.JPG,AFNE01.JPG,AFNE01.JPG,AFNE01.JPG,AFNE01.JPG,AFNE01.JPG,,,,,,,,,0,9,9,6,,,,,,,,,,,,,,,AFNE09.jpg,AFSA02.jpg,AFNE11.jpg,AFSA15.jpg,AFSA02.jpg,FS,4,num_6,32,num_8,0.816776803345,,,2017_Mar_21_1827,59.9913605009,FEMA4ImagesEEG,001,100035,
AFNE01.JPG,AFNE01.JPG,AFNE01.JPG,AFNE01.JPG,AFNE01.JPG,AFNE01.JPG,,,,,,,,,1,0,10,2,,,,,,,,,,,,,,,AFSA19.jpg,AFNE02.jpg,AFNE08.jpg,AFSA18.jpg,AFSA18.jpg,FS,4,num_4,32,num_6,0.733578207437,,,2017_Mar_21_1827,59.9913605009,FEMA4ImagesEEG,001,100035,
AFNE01.JPG,AFNE01.JPG,AFNE01.JPG,AFNE01.JPG,AFNE01.JPG,AFNE01.JPG,,,,,,,,,1,1,11,5,,,,,,,,,,,,,,,AFSA06.jpg,AFNE04.jpg,AFNE01.jpg,AFSA13.jpg,AFSA06.jpg,FS,4,num_8,32,num_6,0.733486796613,,,2017_Mar_21_1827,59.9913605009,FEMA4ImagesEEG,001,100035,
AFNE01.JPG,AFNE01.JPG,AFNE01.JPG,AFNE01.JPG,AFNE01.JPG,AFNE01.JPG,,,,,,,,,1,2,12,9,,,,,,,,,,,,,,,AFNE13.jpg,AFNE18.jpg,AFSA13.jpg,AFSA15.jpg,AFNE13.jpg,FN,3,num_8,16,num_8,1.01661592029,,,2017_Mar_21_1827,59.9913605009,FEMA4ImagesEEG,001,100035,
AFNE01.JPG,AFNE01.JPG,AFNE01.JPG,AFNE01.JPG,AFNE01.JPG,AFNE01.JPG,,,,,,,,,1,3,13,0,,,,,,,,,,,,,,,AFNE12.jpg,AFNE18.jpg,AFSA11.jpg,AFSA02.jpg,AFNE12.jpg,FN,3,num_8,32,num_4,1.00027968502,,,2017_Mar_21_1827,59.9913605009,FEMA4ImagesEEG,001,100035,
AFNE01.JPG,AFNE01.JPG,AFNE01.JPG,AFNE01.JPG,AFNE01.JPG,AFNE01.JPG,,,,,,,,,1,4,14,7,,,,,,,,,,,,,,,AFNE15.jpg,AFSA05.jpg,AFNE01.jpg,AFSA20.jpg,AFSA20.jpg,FS,4,num_4,32,num_6,0.633594661369,,,2017_Mar_21_1827,59.9913605009,FEMA4ImagesEEG,001,100035,
AFNE01.JPG,AFNE01.JPG,AFNE01.JPG,AFNE01.JPG,AFNE01.JPG,AFNE01.JPG,,,,,,,,,1,5,15,6,,,,,,,,,,,,,,,AFNE15.jpg,AFSA18.jpg,AFSA05.jpg,AFNE12.jpg,AFSA05.jpg,FS,4,num_2,32,num_4,0.81682523503,,,2017_Mar_21_1827,59.9913605009,FEMA4ImagesEEG,001,100035,
AFNE01.JPG,AFNE01.JPG,AFNE01.JPG,AFNE01.JPG,AFNE01.JPG,AFNE01.JPG,,,,,,,,,1,6,16,8,,,,,,,,,,,,,,,AFNE20.jpg,AFSA15.jpg,AFSA16.jpg,AFNE19.jpg,AFSA16.jpg,FS,4,num_2,32,num_6,0.83342896722,,,2017_Mar_21_1827,59.9913605009,FEMA4ImagesEEG,001,100035,
AFNE01.JPG,AFNE01.JPG,AFNE01.JPG,AFNE01.JPG,AFNE01.JPG,AFNE01.JPG,,,,,,,,,1,7,17,1,,,,,,,,,,,,,,,AFSA18.jpg,AFSA10.jpg,AFNE15.jpg,AFNE06.jpg,AFSA10.jpg,FS,4,num_6,32,num_8,1.09994537808,,,2017_Mar_21_1827,59.9913605009,FEMA4ImagesEEG,001,100035,
AFNE01.JPG,AFNE01.JPG,AFNE01.JPG,AFNE01.JPG,AFNE01.JPG,AFNE01.JPG,,,,,,,,,1,8,18,3,,,,,,,,,,,,,,,AFNE11.jpg,AFNE13.jpg,AFSA11.jpg,AFSA10.jpg,AFNE11.jpg,FN,3,num_8,16,num_8,1.03344673617,,,2017_Mar_21_1827,59.9913605009,FEMA4ImagesEEG,001,100035,
AFNE01.JPG,AFNE01.JPG,AFNE01.JPG,AFNE01.JPG,AFNE01.JPG,AFNE01.JPG,,,,,,,,,1,9,19,4,,,,,,,,,,,,,,,AFNE17.jpg,AFSA02.jpg,AFSA15.jpg,AFNE19.jpg,AFNE19.jpg,FN,3,num_4,32,num_8,0.250142007484,,,2017_Mar_21_1827,59.9913605009,FEMA4ImagesEEG,001,100035,
AFNE01.JPG,AFNE01.JPG,AFNE01.JPG,AFNE01.JPG,AFNE01.JPG,AFNE01.JPG,,,,,,,,,2,0,20,8,,,,,,,,,,,,,,,AFNE12.jpg,AFNE06.jpg,AFSA15.jpg,AFSA18.jpg,AFSA15.jpg,FS,4,num_2,16,num_2,0.46650755842,,,2017_Mar_21_1827,59.9913605009,FEMA4ImagesEEG,001,100035,
AFNE01.JPG,AFNE01.JPG,AFNE01.JPG,AFNE01.JPG,AFNE01.JPG,AFNE01.JPG,,,,,,,,,2,1,21,4,,,,,,,,,,,,,,,AFNE06.jpg,AFNE13.jpg,AFSA10.jpg,AFSA09.jpg,AFNE13.jpg,FN,3,num_6,32,num_8,0.466764470912,,,2017_Mar_21_1827,59.9913605009,FEMA4ImagesEEG,001,100035,
AFNE01.JPG,AFNE01.JPG,AFNE01.JPG,AFNE01.JPG,AFNE01.JPG,AFNE01.JPG,,,,,,,,,2,2,22,2,,,,,,,,,,,,,,,AFSA08.jpg,AFSA03.jpg,AFNE02.jpg,AFNE04.jpg,AFSA03.jpg,FS,4,num_6,32,num_4,0.51678575197,,,2017_Mar_21_1827,59.9913605009,FEMA4ImagesEEG,001,100035,
AFNE01.JPG,AFNE01.JPG,AFNE01.JPG,AFNE01.JPG,AFNE01.JPG,AFNE01.JPG,,,,,,,,,2,3,23,6,,,,,,,,,,,,,,,AFNE08.jpg,AFSA07.jpg,AFNE19.jpg,AFSA17.jpg,AFSA17.jpg,FS,4,num_4,32,num_6,0.600267561094,,,2017_Mar_21_1827,59.9913605009,FEMA4ImagesEEG,001,100035,
AFNE01.JPG,AFNE01.JPG,AFNE01.JPG,AFNE01.JPG,AFNE01.JPG,AFNE01.JPG,,,,,,,,,2,4,24,7,,,,,,,,,,,,,,,AFNE11.jpg,AFSA02.jpg,AFNE18.jpg,AFSA08.jpg,AFNE11.jpg,FN,3,num_8,16,num_8,0.383347130497,,,2017_Mar_21_1827,59.9913605009,FEMA4ImagesEEG,001,100035,
AFNE01.JPG,AFNE01.JPG,AFNE01.JPG,AFNE01.JPG,AFNE01.JPG,AFNE01.JPG,,,,,,,,,2,5,25,5,,,,,,,,,,,,,,,AFSA19.jpg,AFNE20.jpg,AFSA16.jpg,AFNE09.jpg,AFNE20.jpg,FN,3,num_6,16,num_6,1.0000930145,,,2017_Mar_21_1827,59.9913605009,FEMA4ImagesEEG,001,100035,
AFNE01.JPG,AFNE01.JPG,AFNE01.JPG,AFNE01.JPG,AFNE01.JPG,AFNE01.JPG,,,,,,,,,2,6,26,3,,,,,,,,,,,,,,,AFSA01.jpg,AFNE19.jpg,AFNE03.jpg,AFSA14.jpg,AFNE19.jpg,FN,3,num_6,32,num_4,0.616813239409,,,2017_Mar_21_1827,59.9913605009,FEMA4ImagesEEG,001,100035,
AFNE01.JPG,AFNE01.JPG,AFNE01.JPG,AFNE01.JPG,AFNE01.JPG,AFNE01.JPG,,,,,,,,,2,7,27,9,,,,,,,,,,,,,,,AFSA01.jpg,AFNE13.jpg,AFSA03.jpg,AFNE16.jpg,AFSA01.jpg,FS,4,num_8,32,num_2,0.88229622686,,,2017_Mar_21_1827,59.9913605009,FEMA4ImagesEEG,001,100035,
AFNE01.JPG,AFNE01.JPG,AFNE01.JPG,AFNE01.JPG,AFNE01.JPG,AFNE01.JPG,,,,,,,,,2,8,28,1,,,,,,,,,,,,,,,AFSA02.jpg,AFNE11.jpg,AFNE10.jpg,AFSA15.jpg,AFNE11.jpg,FN,3,num_6,16,num_6,0.533464216511,,,2017_Mar_21_1827,59.9913605009,FEMA4ImagesEEG,001,100035,
AFNE01.JPG,AFNE01.JPG,AFNE01.JPG,AFNE01.JPG,AFNE01.JPG,AFNE01.JPG,,,,,,,,,2,9,29,0,,,,,,,,,,,,,,,AFNE02.jpg,AFSA09.jpg,AFSA17.jpg,AFNE15.jpg,AFSA17.jpg,FS,4,num_2,16,num_2,0.600206299801,,,2017_Mar_21_1827,59.9913605009,FEMA4ImagesEEG,001,100035,
AFNE01.JPG,AFNE01.JPG,AFNE01.JPG,AFNE01.JPG,AFNE01.JPG,AFNE01.JPG,,,,,,,,,3,0,30,9,,,,,,,,,,,,,,,AFSA11.jpg,AFSA05.jpg,AFNE08.jpg,AFNE12.jpg,AFNE12.jpg,FN,3,num_4,16,num_4,0.966740255069,,,2017_Mar_21_1827,59.9913605009,FEMA4ImagesEEG,001,100035,
AFNE01.JPG,AFNE01.JPG,AFNE01.JPG,AFNE01.JPG,AFNE01.JPG,AFNE01.JPG,,,,,,,,,3,1,31,5,,,,,,,,,,,,,,,AFNE01.jpg,AFNE03.jpg,AFSA18.jpg,AFSA16.jpg,AFSA16.jpg,FS,4,num_4,32,num_6,0.433439615765,,,2017_Mar_21_1827,59.9913605009,FEMA4ImagesEEG,001,100035,
AFNE01.JPG,AFNE01.JPG,AFNE01.JPG,AFNE01.JPG,AFNE01.JPG,AFNE01.JPG,,,,,,,,,3,2,32,4,,,,,,,,,,,,,,,AFNE13.jpg,AFSA14.jpg,AFNE10.jpg,AFSA08.jpg,AFSA08.jpg,FS,4,num_4,32,num_2,0.316549559298,,,2017_Mar_21_1827,59.9913605009,FEMA4ImagesEEG,001,100035,
AFNE01.JPG,AFNE01.JPG,AFNE01.JPG,AFNE01.JPG,AFNE01.JPG,AFNE01.JPG,,,,,,,,,3,3,33,2,,,,,,,,,,,,,,,AFSA02.jpg,AFSA12.jpg,AFNE05.jpg,AFNE06.jpg,AFSA12.jpg,FS,4,num_6,16,num_6,1.05007516535,,,2017_Mar_21_1827,59.9913605009,FEMA4ImagesEEG,001,100035,
AFNE01.JPG,AFNE01.JPG,AFNE01.JPG,AFNE01.JPG,AFNE01.JPG,AFNE01.JPG,,,,,,,,,3,4,34,7,,,,,,,,,,,,,,,AFSA19.jpg,AFNE09.jpg,AFNE05.jpg,AFSA17.jpg,AFSA19.jpg,FS,4,num_8,16,num_8,0.83350369957,,,2017_Mar_21_1827,59.9913605009,FEMA4ImagesEEG,001,100035,
AFNE01.JPG,AFNE01.JPG,AFNE01.JPG,AFNE01.JPG,AFNE01.JPG,AFNE01.JPG,,,,,,,,,3,5,35,3,,,,,,,,,,,,,,,AFSA02.jpg,AFNE06.jpg,AFSA14.jpg,AFNE11.jpg,AFNE06.jpg,FN,3,num_6,32,num_4,0.450155927625,,,2017_Mar_21_1827,59.9913605009,FEMA4ImagesEEG,001,100035,
AFNE01.JPG,AFNE01.JPG,AFNE01.JPG,AFNE01.JPG,AFNE01.JPG,AFNE01.JPG,,,,,,,,,3,6,36,8,,,,,,,,,,,,,,,AFNE09.jpg,AFSA05.jpg,AFSA07.jpg,AFNE18.jpg,AFSA07.jpg,FS,4,num_2,32,num_6,0.816640168254,,,2017_Mar_21_1827,59.9913605009,FEMA4ImagesEEG,001,100035,
AFNE01.JPG,AFNE01.JPG,AFNE01.JPG,AFNE01.JPG,AFNE01.JPG,AFNE01.JPG,,,,,,,,,3,7,37,6,,,,,,,,,,,,,,,AFNE14.jpg,AFSA06.jpg,AFSA16.jpg,AFNE08.jpg,AFSA06.jpg,FS,4,num_6,32,num_8,0.900130316557,,,2017_Mar_21_1827,59.9913605009,FEMA4ImagesEEG,001,100035,
AFNE01.JPG,AFNE01.JPG,AFNE01.JPG,AFNE01.JPG,AFNE01.JPG,AFNE01.JPG,,,,,,,,,3,8,38,0,,,,,,,,,,,,,,,AFSA09.jpg,AFNE03.jpg,AFNE02.jpg,AFSA14.jpg,AFSA14.jpg,FS,4,num_4,32,num_2,0.483523441129,,,2017_Mar_21_1827,59.9913605009,FEMA4ImagesEEG,001,100035,
AFNE01.JPG,AFNE01.JPG,AFNE01.JPG,AFNE01.JPG,AFNE01.JPG,AFNE01.JPG,,,,,,,,,3,9,39,1,,,,,,,,,,,,,,,AFSA11.jpg,AFNE08.jpg,AFSA07.jpg,AFNE19.jpg,AFNE08.jpg,FN,3,num_6,32,num_8,0.500103117782,,,2017_Mar_21_1827,59.9913605009,FEMA4ImagesEEG,001,100035,
AFNE01.JPG,AFNE01.JPG,AFNE01.JPG,AFNE01.JPG,AFNE01.JPG,AFNE01.JPG,,,,,,,,,4,0,40,2,,,,,,,,,,,,,,,AFSA07.jpg,AFNE15.jpg,AFNE12.jpg,AFSA05.jpg,AFSA05.jpg,FS,4,num_4,16,num_4,0.750237427535,,,2017_Mar_21_1827,59.9913605009,FEMA4ImagesEEG,001,100035,
AFNE01.JPG,AFNE01.JPG,AFNE01.JPG,AFNE01.JPG,AFNE01.JPG,AFNE01.JPG,,,,,,,,,4,1,41,7,,,,,,,,,,,,,,,AFSA10.jpg,AFNE16.jpg,AFNE11.jpg,AFSA02.jpg,AFSA02.jpg,FS,4,num_4,32,num_6,0.533355485706,,,2017_Mar_21_1827,59.9913605009,FEMA4ImagesEEG,001,100035,
AFNE01.JPG,AFNE01.JPG,AFNE01.JPG,AFNE01.JPG,AFNE01.JPG,AFNE01.JPG,,,,,,,,,4,2,42,1,,,,,,,,,,,,,,,AFNE19.jpg,AFSA09.jpg,AFSA13.jpg,AFNE20.jpg,AFNE20.jpg,FN,3,num_4,32,num_2,0.400162550854,,,2017_Mar_21_1827,59.9913605009,FEMA4ImagesEEG,001,100035,
AFNE01.JPG,AFNE01.JPG,AFNE01.JPG,AFNE01.JPG,AFNE01.JPG,AFNE01.JPG,,,,,,,,,4,3,43,6,,,,,,,,,,,,,,,AFNE17.jpg,AFNE20.jpg,AFSA15.jpg,AFSA09.jpg,AFNE20.jpg,FN,3,num_6,32,num_4,0.400167362008,,,2017_Mar_21_1827,59.9913605009,FEMA4ImagesEEG,001,100035,
AFNE01.JPG,AFNE01.JPG,AFNE01.JPG,AFNE01.JPG,AFNE01.JPG,AFNE01.JPG,,,,,,,,,4,4,44,5,,,,,,,,,,,,,,,AFNE15.jpg,AFSA17.jpg,AFNE03.jpg,AFSA08.jpg,AFNE15.jpg,FN,3,num_8,32,num_6,0.68316017132,,,2017_Mar_21_1827,59.9913605009,FEMA4ImagesEEG,001,100035,
AFNE01.JPG,AFNE01.JPG,AFNE01.JPG,AFNE01.JPG,AFNE01.JPG,AFNE01.JPG,,,,,,,,,4,5,45,9,,,,,,,,,,,,,,,AFSA18.jpg,AFNE18.jpg,AFNE15.jpg,AFSA14.jpg,AFSA14.jpg,FS,4,num_4,32,num_6,0.750134470116,,,2017_Mar_21_1827,59.9913605009,FEMA4ImagesEEG,001,100035,
AFNE01.JPG,AFNE01.JPG,AFNE01.JPG,AFNE01.JPG,AFNE01.JPG,AFNE01.JPG,,,,,,,,,4,6,46,4,,,,,,,,,,,,,,,AFSA08.jpg,AFNE08.jpg,AFNE14.jpg,AFSA19.jpg,AFNE14.jpg,FN,3,num_2,32,num_8,0.533453311364,,,2017_Mar_21_1827,59.9913605009,FEMA4ImagesEEG,001,100035,
AFNE01.JPG,AFNE01.JPG,AFNE01.JPG,AFNE01.JPG,AFNE01.JPG,AFNE01.JPG,,,,,,,,,4,7,47,0,,,,,,,,,,,,,,,AFSA02.jpg,AFNE18.jpg,AFSA11.jpg,AFNE07.jpg,AFNE18.jpg,FN,3,num_6,32,num_2,1.25012019719,,,2017_Mar_21_1827,59.9913605009,FEMA4ImagesEEG,001,100035,
AFNE01.JPG,AFNE01.JPG,AFNE01.JPG,AFNE01.JPG,AFNE01.JPG,AFNE01.JPG,,,,,,,,,4,8,48,8,,,,,,,,,,,,,,,AFSA02.jpg,AFNE08.jpg,AFSA03.jpg,AFNE16.jpg,AFNE16.jpg,FN,3,num_4,16,num_4,0.416814394004,,,2017_Mar_21_1827,59.9913605009,FEMA4ImagesEEG,001,100035,
AFNE01.JPG,AFNE01.JPG,AFNE01.JPG,AFNE01.JPG,AFNE01.JPG,AFNE01.JPG,,,,,,,,,4,9,49,3,,,,,,,,,,,,,,,AFSA09.jpg,AFNE18.jpg,AFSA07.jpg,AFNE10.jpg,AFSA07.jpg,FS,4,num_2,32,num_6,0.850134694658,,,2017_Mar_21_1827,59.9913605009,FEMA4ImagesEEG,001,100035,
AFNE01.JPG,AFNE01.JPG,AFNE01.JPG,AFNE01.JPG,AFNE01.JPG,AFNE01.JPG,,,,,,,,,5,0,50,3,,,,,,,,,,,,,,,AFNE02.jpg,AFSA14.jpg,AFNE07.jpg,AFSA18.jpg,AFNE02.jpg,FN,3,num_8,16,num_8,1.00012412627,,,2017_Mar_21_1827,59.9913605009,FEMA4ImagesEEG,001,100035,
AFNE01.JPG,AFNE01.JPG,AFNE01.JPG,AFNE01.JPG,AFNE01.JPG,AFNE01.JPG,,,,,,,,,5,1,51,8,,,,,,,,,,,,,,,AFNE06.jpg,AFSA04.jpg,AFNE14.jpg,AFSA17.jpg,AFNE06.jpg,FN,3,num_8,32,num_4,0.83342126949,,,2017_Mar_21_1827,59.9913605009,FEMA4ImagesEEG,001,100035,
AFNE01.JPG,AFNE01.JPG,AFNE01.JPG,AFNE01.JPG,AFNE01.JPG,AFNE01.JPG,,,,,,,,,5,2,52,5,,,,,,,,,,,,,,,AFSA13.jpg,AFNE15.jpg,AFNE03.jpg,AFSA03.jpg,AFSA13.jpg,FS,4,num_8,32,num_6,0.450094024825,,,2017_Mar_21_1827,59.9913605009,FEMA4ImagesEEG,001,100035,
AFNE01.JPG,AFNE01.JPG,AFNE01.JPG,AFNE01.JPG,AFNE01.JPG,AFNE01.JPG,,,,,,,,,5,3,53,0,,,,,,,,,,,,,,,AFNE20.jpg,AFSA13.jpg,AFSA09.jpg,AFNE16.jpg,AFNE16.jpg,FN,3,num_4,32,num_8,0.933379477123,,,2017_Mar_21_1827,59.9913605009,FEMA4ImagesEEG,001,100035,
AFNE01.JPG,AFNE01.JPG,AFNE01.JPG,AFNE01.JPG,AFNE01.JPG,AFNE01.JPG,,,,,,,,,5,4,54,7,,,,,,,,,,,,,,,AFSA03.jpg,AFNE04.jpg,AFSA20.jpg,AFNE20.jpg,AFSA20.jpg,FS,4,num_2,16,num_2,1.71666335769,,,2017_Mar_21_1827,59.9913605009,FEMA4ImagesEEG,001,100035,
AFNE01.JPG,AFNE01.JPG,AFNE01.JPG,AFNE01.JPG,AFNE01.JPG,AFNE01.JPG,,,,,,,,,5,5,55,9,,,,,,,,,,,,,,,AFNE10.jpg,AFSA06.jpg,AFSA10.jpg,AFNE07.jpg,AFSA06.jpg,FS,4,num_6,16,num_6,0.86667075078,,,2017_Mar_21_1827,59.9913605009,FEMA4ImagesEEG,001,100035,
AFNE01.JPG,AFNE01.JPG,AFNE01.JPG,AFNE01.JPG,AFNE01.JPG,AFNE01.JPG,,,,,,,,,5,6,56,2,,,,,,,,,,,,,,,AFNE18.jpg,AFSA04.jpg,AFSA15.jpg,AFNE06.jpg,AFSA15.jpg,FS,4,num_2,16,num_2,1.18341852719,,,2017_Mar_21_1827,59.9913605009,FEMA4ImagesEEG,001,100035,
AFNE01.JPG,AFNE01.JPG,AFNE01.JPG,AFNE01.JPG,AFNE01.JPG,AFNE01.JPG,,,,,,,,,5,7,57,6,,,,,,,,,,,,,,,AFSA06.jpg,AFNE03.jpg,AFNE09.jpg,AFSA01.jpg,AFNE09.jpg,FN,3,num_2,32,num_8,1.13352907012,,,2017_Mar_21_1827,59.9913605009,FEMA4ImagesEEG,001,100035,
AFNE01.JPG,AFNE01.JPG,AFNE01.JPG,AFNE01.JPG,AFNE01.JPG,AFNE01.JPG,,,,,,,,,5,8,58,1,,,,,,,,,,,,,,,AFNE11.jpg,AFSA10.jpg,AFSA13.jpg,AFNE16.jpg,AFNE11.jpg,FN,3,num_8,16,num_8,1.30014147831,,,2017_Mar_21_1827,59.9913605009,FEMA4ImagesEEG,001,100035,
AFNE01.JPG,AFNE01.JPG,AFNE01.JPG,AFNE01.JPG,AFNE01.JPG,AFNE01.JPG,,,,,,,,,5,9,59,4,,,,,,,,,,,,,,,AFSA18.jpg,AFNE05.jpg,AFNE19.jpg,AFSA16.jpg,AFNE05.jpg,FN,3,num_6,32,num_8,0.966754367575,,,2017_Mar_21_1827,59.9913605009,FEMA4ImagesEEG,001,100035,
,,,,,,,,,,,,,,,,,,,,,,,,,,,,,,,,,,,,,,,,,,,space,2.36666962819,2017_Mar_21_1827,59.9913605009,FEMA4ImagesEEG,001,100035,
AFNE01.JPG,AFNE01.JPG,AFNE01.JPG,AFNE01.JPG,AFNE01.JPG,AFNE01.JPG,,,,,,,,,,,,,0,0,0,2,,,,,,,,,,,AMNE04.jpg,AMSA08.jpg,AMNE11.jpg,AMSA15.jpg,AMNE11.jpg,MN,1,num_2,32,num_8,0.633485930623,,,2017_Mar_21_1827,59.9913605009,FEMA4ImagesEEG,001,100035,
AFNE01.JPG,AFNE01.JPG,AFNE01.JPG,AFNE01.JPG,AFNE01.JPG,AFNE01.JPG,,,,,,,,,,,,,0,1,1,6,,,,,,,,,,,AMSA17.jpg,AMNE03.jpg,AMSA11.jpg,AMNE05.jpg,AMNE03.jpg,MN,1,num_6,32,num_8,1.05013257777,,,2017_Mar_21_1827,59.9913605009,FEMA4ImagesEEG,001,100035,
AFNE01.JPG,AFNE01.JPG,AFNE01.JPG,AFNE01.JPG,AFNE01.JPG,AFNE01.JPG,,,,,,,,,,,,,0,2,2,9,,,,,,,,,,,AMNE04.jpg,AMNE18.jpg,AMSA18.jpg,AMSA13.jpg,AMNE18.jpg,MN,1,num_6,32,num_2,0.600124831893,,,2017_Mar_21_1827,59.9913605009,FEMA4ImagesEEG,001,100035,
AFNE01.JPG,AFNE01.JPG,AFNE01.JPG,AFNE01.JPG,AFNE01.JPG,AFNE01.JPG,,,,,,,,,,,,,0,3,3,5,,,,,,,,,,,AMNE04.jpg,AMSA20.jpg,AMNE01.jpg,AMSA14.jpg,AMSA14.jpg,MS,2,num_4,32,num_8,1.00029700494,,,2017_Mar_21_1827,59.9913605009,FEMA4ImagesEEG,001,100035,
AFNE01.JPG,AFNE01.JPG,AFNE01.JPG,AFNE01.JPG,AFNE01.JPG,AFNE01.JPG,,,,,,,,,,,,,0,4,4,3,,,,,,,,,,,AMNE04.jpg,AMNE18.jpg,AMSA07.jpg,AMSA17.jpg,AMSA07.jpg,MS,2,num_2,32,num_4,1.35007263155,,,2017_Mar_21_1827,59.9913605009,FEMA4ImagesEEG,001,100035,
AFNE01.JPG,AFNE01.JPG,AFNE01.JPG,AFNE01.JPG,AFNE01.JPG,AFNE01.JPG,,,,,,,,,,,,,0,5,5,8,,,,,,,,,,,AMNE05.jpg,AMNE17.jpg,AMSA09.jpg,AMSA16.jpg,AMSA09.jpg,MS,2,num_2,32,num_8,0.900110430666,,,2017_Mar_21_1827,59.9913605009,FEMA4ImagesEEG,001,100035,
AFNE01.JPG,AFNE01.JPG,AFNE01.JPG,AFNE01.JPG,AFNE01.JPG,AFNE01.JPG,,,,,,,,,,,,,0,6,6,1,,,,,,,,,,,AMNE19.jpg,AMNE16.jpg,AMSA13.jpg,AMSA05.jpg,AMNE16.jpg,MN,1,num_6,32,num_2,1.33342944831,,,2017_Mar_21_1827,59.9913605009,FEMA4ImagesEEG,001,100035,
AFNE01.JPG,AFNE01.JPG,AFNE01.JPG,AFNE01.JPG,AFNE01.JPG,AFNE01.JPG,,,,,,,,,,,,,0,7,7,4,,,,,,,,,,,AMSA07.jpg,AMNE04.jpg,AMNE03.jpg,AMSA12.jpg,AMSA07.jpg,MS,2,num_8,16,num_8,0.883448003151,,,2017_Mar_21_1827,59.9913605009,FEMA4ImagesEEG,001,100035,
AFNE01.JPG,AFNE01.JPG,AFNE01.JPG,AFNE01.JPG,AFNE01.JPG,AFNE01.JPG,,,,,,,,,,,,,0,8,8,7,,,,,,,,,,,AMNE10.jpg,AMSA16.jpg,AMSA09.jpg,AMNE06.jpg,AMSA16.jpg,MS,2,num_6,32,num_2,1.266744136,,,2017_Mar_21_1827,59.9913605009,FEMA4ImagesEEG,001,100035,
AFNE01.JPG,AFNE01.JPG,AFNE01.JPG,AFNE01.JPG,AFNE01.JPG,AFNE01.JPG,,,,,,,,,,,,,0,9,9,0,,,,,,,,,,,AMSA06.jpg,AMNE15.jpg,AMNE06.jpg,AMSA07.jpg,AMSA06.jpg,MS,2,num_8,16,num_8,0.8003504402,,,2017_Mar_21_1827,59.9913605009,FEMA4ImagesEEG,001,100035,
AFNE01.JPG,AFNE01.JPG,AFNE01.JPG,AFNE01.JPG,AFNE01.JPG,AFNE01.JPG,,,,,,,,,,,,,1,0,10,1,,,,,,,,,,,AMNE16.jpg,AMNE18.jpg,AMSA07.jpg,AMSA20.jpg,AMNE18.jpg,MN,1,num_6,32,num_8,0.800119186868,,,2017_Mar_21_1827,59.9913605009,FEMA4ImagesEEG,001,100035,
AFNE01.JPG,AFNE01.JPG,AFNE01.JPG,AFNE01.JPG,AFNE01.JPG,AFNE01.JPG,,,,,,,,,,,,,1,1,11,3,,,,,,,,,,,AMNE17.jpg,AMSA18.jpg,AMSA02.jpg,AMNE10.jpg,AMNE17.jpg,MN,1,num_8,32,num_4,1.01676313981,,,2017_Mar_21_1827,59.9913605009,FEMA4ImagesEEG,001,100035,
AFNE01.JPG,AFNE01.JPG,AFNE01.JPG,AFNE01.JPG,AFNE01.JPG,AFNE01.JPG,,,,,,,,,,,,,1,2,12,9,,,,,,,,,,,AMNE17.jpg,AMSA05.jpg,AMSA11.jpg,AMNE06.jpg,AMNE17.jpg,MN,1,num_8,16,num_8,0.600186734635,,,2017_Mar_21_1827,59.9913605009,FEMA4ImagesEEG,001,100035,
AFNE01.JPG,AFNE01.JPG,AFNE01.JPG,AFNE01.JPG,AFNE01.JPG,AFNE01.JPG,,,,,,,,,,,,,1,3,13,4,,,,,,,,,,,AMNE19.jpg,AMSA11.jpg,AMNE02.jpg,AMSA06.jpg,AMSA06.jpg,MS,2,num_4,32,num_6,0.683492457611,,,2017_Mar_21_1827,59.9913605009,FEMA4ImagesEEG,001,100035,
AFNE01.JPG,AFNE01.JPG,AFNE01.JPG,AFNE01.JPG,AFNE01.JPG,AFNE01.JPG,,,,,,,,,,,,,1,4,14,7,,,,,,,,,,,AMSA15.jpg,AMNE11.jpg,AMNE13.jpg,AMSA05.jpg,AMNE13.jpg,MN,1,num_2,32,num_8,0.500224678195,,,2017_Mar_21_1827,59.9913605009,FEMA4ImagesEEG,001,100035,
AFNE01.JPG,AFNE01.JPG,AFNE01.JPG,AFNE01.JPG,AFNE01.JPG,AFNE01.JPG,,,,,,,,,,,,,1,5,15,2,,,,,,,,,,,AMNE03.jpg,AMSA13.jpg,AMSA09.jpg,AMNE05.jpg,AMSA13.jpg,MS,2,num_6,32,num_4,0.883436456497,,,2017_Mar_21_1827,59.9913605009,FEMA4ImagesEEG,001,100035,
AFNE01.JPG,AFNE01.JPG,AFNE01.JPG,AFNE01.JPG,AFNE01.JPG,AFNE01.JPG,,,,,,,,,,,,,1,6,16,8,,,,,,,,,,,AMNE11.jpg,AMSA20.jpg,AMNE03.jpg,AMSA08.jpg,AMNE11.jpg,MN,1,num_8,16,num_8,1.06672957441,,,2017_Mar_21_1827,59.9913605009,FEMA4ImagesEEG,001,100035,
AFNE01.JPG,AFNE01.JPG,AFNE01.JPG,AFNE01.JPG,AFNE01.JPG,AFNE01.JPG,,,,,,,,,,,,,1,7,17,5,,,,,,,,,,,AMNE14.jpg,AMNE13.jpg,AMSA07.jpg,AMSA13.jpg,AMSA13.jpg,MS,2,num_4,16,num_4,0.750108490174,,,2017_Mar_21_1827,59.9913605009,FEMA4ImagesEEG,001,100035,
AFNE01.JPG,AFNE01.JPG,AFNE01.JPG,AFNE01.JPG,AFNE01.JPG,AFNE01.JPG,,,,,,,,,,,,,1,8,18,6,,,,,,,,,,,AMSA01.jpg,AMNE10.jpg,AMSA16.jpg,AMNE13.jpg,AMNE10.jpg,MN,1,num_6,32,num_2,0.833441796829,,,2017_Mar_21_1827,59.9913605009,FEMA4ImagesEEG,001,100035,
AFNE01.JPG,AFNE01.JPG,AFNE01.JPG,AFNE01.JPG,AFNE01.JPG,AFNE01.JPG,,,,,,,,,,,,,1,9,19,0,,,,,,,,,,,AMSA18.jpg,AMNE18.jpg,AMSA03.jpg,AMNE10.jpg,AMSA18.jpg,MS,2,num_8,16,num_8,0.583557022561,,,2017_Mar_21_1827,59.9913605009,FEMA4ImagesEEG,001,100035,
AFNE01.JPG,AFNE01.JPG,AFNE01.JPG,AFNE01.JPG,AFNE01.JPG,AFNE01.JPG,,,,,,,,,,,,,2,0,20,3,,,,,,,,,,,AMSA04.jpg,AMSA10.jpg,AMNE01.jpg,AMNE14.jpg,AMSA04.jpg,MS,2,num_8,32,num_4,0.850428812962,,,2017_Mar_21_1827,59.9913605009,FEMA4ImagesEEG,001,100035,
AFNE01.JPG,AFNE01.JPG,AFNE01.JPG,AFNE01.JPG,AFNE01.JPG,AFNE01.JPG,,,,,,,,,,,,,2,1,21,4,,,,,,,,,,,AMSA17.jpg,AMNE11.jpg,AMNE20.jpg,AMSA03.jpg,AMSA17.jpg,MS,2,num_8,32,num_6,0.916738859843,,,2017_Mar_21_1827,59.9913605009,FEMA4ImagesEEG,001,100035,
AFNE01.JPG,AFNE01.JPG,AFNE01.JPG,AFNE01.JPG,AFNE01.JPG,AFNE01.JPG,,,,,,,,,,,,,2,2,22,9,,,,,,,,,,,AMNE15.jpg,AMSA17.jpg,AMNE14.jpg,AMSA05.jpg,AMSA05.jpg,MS,2,num_4,32,num_8,0.900102091487,,,2017_Mar_21_1827,59.9913605009,FEMA4ImagesEEG,001,100035,
AFNE01.JPG,AFNE01.JPG,AFNE01.JPG,AFNE01.JPG,AFNE01.JPG,AFNE01.JPG,,,,,,,,,,,,,2,3,23,2,,,,,,,,,,,AMNE07.jpg,AMSA05.jpg,AMSA11.jpg,AMNE18.jpg,AMSA11.jpg,MS,2,num_2,32,num_4,3.6665404021,,,2017_Mar_21_1827,59.9913605009,FEMA4ImagesEEG,001,100035,
AFNE01.JPG,AFNE01.JPG,AFNE01.JPG,AFNE01.JPG,AFNE01.JPG,AFNE01.JPG,,,,,,,,,,,,,2,4,24,6,,,,,,,,,,,AMSA08.jpg,AMSA17.jpg,AMNE06.jpg,AMNE16.jpg,AMSA17.jpg,MS,2,num_6,16,num_6,1.61671637598,,,2017_Mar_21_1827,59.9913605009,FEMA4ImagesEEG,001,100035,
AFNE01.JPG,AFNE01.JPG,AFNE01.JPG,AFNE01.JPG,AFNE01.JPG,AFNE01.JPG,,,,,,,,,,,,,2,5,25,7,,,,,,,,,,,AMNE08.jpg,AMSA06.jpg,AMSA13.jpg,AMNE09.jpg,AMNE09.jpg,MN,1,num_4,32,num_8,0.900086375186,,,2017_Mar_21_1827,59.9913605009,FEMA4ImagesEEG,001,100035,
AFNE01.JPG,AFNE01.JPG,AFNE01.JPG,AFNE01.JPG,AFNE01.JPG,AFNE01.JPG,,,,,,,,,,,,,2,6,26,8,,,,,,,,,,,AMSA04.jpg,AMNE12.jpg,AMNE13.jpg,AMSA18.jpg,AMNE12.jpg,MN,1,num_6,32,num_8,1.34992926085,,,2017_Mar_21_1827,59.9913605009,FEMA4ImagesEEG,001,100035,
AFNE01.JPG,AFNE01.JPG,AFNE01.JPG,AFNE01.JPG,AFNE01.JPG,AFNE01.JPG,,,,,,,,,,,,,2,7,27,5,,,,,,,,,,,AMSA07.jpg,AMNE10.jpg,AMSA03.jpg,AMNE08.jpg,AMSA03.jpg,MS,2,num_2,16,num_2,1.28339116805,,,2017_Mar_21_1827,59.9913605009,FEMA4ImagesEEG,001,100035,
AFNE01.JPG,AFNE01.JPG,AFNE01.JPG,AFNE01.JPG,AFNE01.JPG,AFNE01.JPG,,,,,,,,,,,,,2,8,28,1,,,,,,,,,,,AMNE17.jpg,AMSA18.jpg,AMNE20.jpg,AMSA10.jpg,AMNE20.jpg,MN,1,num_2,32,num_8,1.16673140263,,,2017_Mar_21_1827,59.9913605009,FEMA4ImagesEEG,001,100035,
AFNE01.JPG,AFNE01.JPG,AFNE01.JPG,AFNE01.JPG,AFNE01.JPG,AFNE01.JPG,,,,,,,,,,,,,2,9,29,0,,,,,,,,,,,AMNE12.jpg,AMNE17.jpg,AMSA06.jpg,AMSA05.jpg,AMNE17.jpg,MN,1,num_6,16,num_6,1.51674694248,,,2017_Mar_21_1827,59.9913605009,FEMA4ImagesEEG,001,100035,
AFNE01.JPG,AFNE01.JPG,AFNE01.JPG,AFNE01.JPG,AFNE01.JPG,AFNE01.JPG,,,,,,,,,,,,,3,0,30,8,,,,,,,,,,,AMSA10.jpg,AMSA06.jpg,AMNE11.jpg,AMNE04.jpg,AMSA06.jpg,MS,2,num_6,32,num_2,1.15034513199,,,2017_Mar_21_1827,59.9913605009,FEMA4ImagesEEG,001,100035,
AFNE01.JPG,AFNE01.JPG,AFNE01.JPG,AFNE01.JPG,AFNE01.JPG,AFNE01.JPG,,,,,,,,,,,,,3,1,31,4,,,,,,,,,,,AMSA03.jpg,AMNE09.jpg,AMNE18.jpg,AMSA16.jpg,AMNE18.jpg,MN,1,num_2,32,num_6,0.916818724014,,,2017_Mar_21_1827,59.9913605009,FEMA4ImagesEEG,001,100035,
AFNE01.JPG,AFNE01.JPG,AFNE01.JPG,AFNE01.JPG,AFNE01.JPG,AFNE01.JPG,,,,,,,,,,,,,3,2,32,5,,,,,,,,,,,AMNE02.jpg,AMSA06.jpg,AMSA17.jpg,AMNE09.jpg,AMNE09.jpg,MN,1,num_4,32,num_8,0.916727633972,,,2017_Mar_21_1827,59.9913605009,FEMA4ImagesEEG,001,100035,
AFNE01.JPG,AFNE01.JPG,AFNE01.JPG,AFNE01.JPG,AFNE01.JPG,AFNE01.JPG,,,,,,,,,,,,,3,3,33,3,,,,,,,,,,,AMSA13.jpg,AMNE20.jpg,AMNE16.jpg,AMSA14.jpg,AMSA13.jpg,MS,2,num_8,32,num_6,1.33340026106,,,2017_Mar_21_1827,59.9913605009,FEMA4ImagesEEG,001,100035,
AFNE01.JPG,AFNE01.JPG,AFNE01.JPG,AFNE01.JPG,AFNE01.JPG,AFNE01.JPG,,,,,,,,,,,,,3,4,34,0,,,,,,,,,,,AMSA09.jpg,AMSA08.jpg,AMNE11.jpg,AMNE06.jpg,AMNE11.jpg,MN,1,num_2,32,num_8,0.183521484549,,,2017_Mar_21_1827,59.9913605009,FEMA4ImagesEEG,001,100035,
AFNE01.JPG,AFNE01.JPG,AFNE01.JPG,AFNE01.JPG,AFNE01.JPG,AFNE01.JPG,,,,,,,,,,,,,3,5,35,1,,,,,,,,,,,AMNE05.jpg,AMSA11.jpg,AMNE07.jpg,AMSA09.jpg,AMNE07.jpg,MN,1,num_2,16,num_2,0.46676767827,,,2017_Mar_21_1827,59.9913605009,FEMA4ImagesEEG,001,100035,
AFNE01.JPG,AFNE01.JPG,AFNE01.JPG,AFNE01.JPG,AFNE01.JPG,AFNE01.JPG,,,,,,,,,,,,,3,6,36,9,,,,,,,,,,,AMNE13.jpg,AMSA10.jpg,AMNE02.jpg,AMSA16.jpg,AMSA10.jpg,MS,2,num_6,16,num_6,0.850103262113,,,2017_Mar_21_1827,59.9913605009,FEMA4ImagesEEG,001,100035,
AFNE01.JPG,AFNE01.JPG,AFNE01.JPG,AFNE01.JPG,AFNE01.JPG,AFNE01.JPG,,,,,,,,,,,,,3,7,37,6,,,,,,,,,,,AMSA05.jpg,AMNE01.jpg,AMSA08.jpg,AMNE16.jpg,AMSA05.jpg,MS,2,num_8,16,num_8,1.06673470628,,,2017_Mar_21_1827,59.9913605009,FEMA4ImagesEEG,001,100035,
AFNE01.JPG,AFNE01.JPG,AFNE01.JPG,AFNE01.JPG,AFNE01.JPG,AFNE01.JPG,,,,,,,,,,,,,3,8,38,7,,,,,,,,,,,AMNE19.jpg,AMSA08.jpg,AMNE16.jpg,AMSA02.jpg,AMNE16.jpg,MN,1,num_2,32,num_4,0.95008071413,,,2017_Mar_21_1827,59.9913605009,FEMA4ImagesEEG,001,100035,
AFNE01.JPG,AFNE01.JPG,AFNE01.JPG,AFNE01.JPG,AFNE01.JPG,AFNE01.JPG,,,,,,,,,,,,,3,9,39,2,,,,,,,,,,,AMNE08.jpg,AMNE19.jpg,AMSA08.jpg,AMSA09.jpg,AMNE19.jpg,MN,1,num_6,32,num_8,0.883477511175,,,2017_Mar_21_1827,59.9913605009,FEMA4ImagesEEG,001,100035,
AFNE01.JPG,AFNE01.JPG,AFNE01.JPG,AFNE01.JPG,AFNE01.JPG,AFNE01.JPG,,,,,,,,,,,,,4,0,40,5,,,,,,,,,,,AMSA11.jpg,AMNE19.jpg,AMNE03.jpg,AMSA05.jpg,AMNE03.jpg,MN,1,num_2,32,num_6,0.816746974597,,,2017_Mar_21_1827,59.9913605009,FEMA4ImagesEEG,001,100035,
AFNE01.JPG,AFNE01.JPG,AFNE01.JPG,AFNE01.JPG,AFNE01.JPG,AFNE01.JPG,,,,,,,,,,,,,4,1,41,3,,,,,,,,,,,AMSA08.jpg,AMNE14.jpg,AMSA13.jpg,AMNE11.jpg,AMNE14.jpg,MN,1,num_6,32,num_8,0.56678746792,,,2017_Mar_21_1827,59.9913605009,FEMA4ImagesEEG,001,100035,
AFNE01.JPG,AFNE01.JPG,AFNE01.JPG,AFNE01.JPG,AFNE01.JPG,AFNE01.JPG,,,,,,,,,,,,,4,2,42,2,,,,,,,,,,,AMNE07.jpg,AMSA02.jpg,AMNE02.jpg,AMSA20.jpg,AMNE02.jpg,MN,1,num_2,16,num_2,1.60006324988,,,2017_Mar_21_1827,59.9913605009,FEMA4ImagesEEG,001,100035,
AFNE01.JPG,AFNE01.JPG,AFNE01.JPG,AFNE01.JPG,AFNE01.JPG,AFNE01.JPG,,,,,,,,,,,,,4,3,43,1,,,,,,,,,,,AMSA15.jpg,AMNE14.jpg,AMSA06.jpg,AMNE10.jpg,AMNE10.jpg,MN,1,num_4,16,num_4,0.850124430959,,,2017_Mar_21_1827,59.9913605009,FEMA4ImagesEEG,001,100035,
AFNE01.JPG,AFNE01.JPG,AFNE01.JPG,AFNE01.JPG,AFNE01.JPG,AFNE01.JPG,,,,,,,,,,,,,4,4,44,7,,,,,,,,,,,AMSA16.jpg,AMNE08.jpg,AMSA15.jpg,AMNE10.jpg,AMNE08.jpg,MN,1,num_6,32,num_4,1.21674209932,,,2017_Mar_21_1827,59.9913605009,FEMA4ImagesEEG,001,100035,
AFNE01.JPG,AFNE01.JPG,AFNE01.JPG,AFNE01.JPG,AFNE01.JPG,AFNE01.JPG,,,,,,,,,,,,,4,5,45,4,,,,,,,,,,,AMNE04.jpg,AMSA05.jpg,AMSA18.jpg,AMNE01.jpg,AMSA18.jpg,MS,2,num_2,16,num_2,1.45009466633,,,2017_Mar_21_1827,59.9913605009,FEMA4ImagesEEG,001,100035,
AFNE01.JPG,AFNE01.JPG,AFNE01.JPG,AFNE01.JPG,AFNE01.JPG,AFNE01.JPG,,,,,,,,,,,,,4,6,46,0,,,,,,,,,,,AMNE09.jpg,AMSA09.jpg,AMSA01.jpg,AMNE19.jpg,AMNE19.jpg,MN,1,num_4,32,num_8,1.26681950985,,,2017_Mar_21_1827,59.9913605009,FEMA4ImagesEEG,001,100035,
AFNE01.JPG,AFNE01.JPG,AFNE01.JPG,AFNE01.JPG,AFNE01.JPG,AFNE01.JPG,,,,,,,,,,,,,4,7,47,8,,,,,,,,,,,AMSA05.jpg,AMNE14.jpg,AMNE19.jpg,AMSA03.jpg,AMNE14.jpg,MN,1,num_6,16,num_6,0.733458892268,,,2017_Mar_21_1827,59.9913605009,FEMA4ImagesEEG,001,100035,
AFNE01.JPG,AFNE01.JPG,AFNE01.JPG,AFNE01.JPG,AFNE01.JPG,AFNE01.JPG,,,,,,,,,,,,,4,8,48,6,,,,,,,,,,,AMNE08.jpg,AMSA17.jpg,AMNE01.jpg,AMSA09.jpg,AMSA09.jpg,MS,2,num_4,16,num_4,0.733445100428,,,2017_Mar_21_1827,59.9913605009,FEMA4ImagesEEG,001,100035,
AFNE01.JPG,AFNE01.JPG,AFNE01.JPG,AFNE01.JPG,AFNE01.JPG,AFNE01.JPG,,,,,,,,,,,,,4,9,49,9,,,,,,,,,,,AMNE10.jpg,AMSA20.jpg,AMSA16.jpg,AMNE08.jpg,AMNE10.jpg,MN,1,num_8,16,num_8,0.983453359513,,,2017_Mar_21_1827,59.9913605009,FEMA4ImagesEEG,001,100035,
AFNE01.JPG,AFNE01.JPG,AFNE01.JPG,AFNE01.JPG,AFNE01.JPG,AFNE01.JPG,,,,,,,,,,,,,5,0,50,6,,,,,,,,,,,AMSA12.jpg,AMNE15.jpg,AMNE13.jpg,AMSA13.jpg,AMNE15.jpg,MN,1,num_6,16,num_6,0.850206219591,,,2017_Mar_21_1827,59.9913605009,FEMA4ImagesEEG,001,100035,
AFNE01.JPG,AFNE01.JPG,AFNE01.JPG,AFNE01.JPG,AFNE01.JPG,AFNE01.JPG,,,,,,,,,,,,,5,1,51,4,,,,,,,,,,,AMSA01.jpg,AMSA11.jpg,AMNE15.jpg,AMNE06.jpg,AMNE06.jpg,MN,1,num_4,16,num_4,0.916798196675,,,2017_Mar_21_1827,59.9913605009,FEMA4ImagesEEG,001,100035,
AFNE01.JPG,AFNE01.JPG,AFNE01.JPG,AFNE01.JPG,AFNE01.JPG,AFNE01.JPG,,,,,,,,,,,,,5,2,52,2,,,,,,,,,,,AMNE14.jpg,AMNE09.jpg,AMSA01.jpg,AMSA09.jpg,AMNE09.jpg,MN,1,num_6,16,num_6,1.16672434635,,,2017_Mar_21_1827,59.9913605009,FEMA4ImagesEEG,001,100035,
AFNE01.JPG,AFNE01.JPG,AFNE01.JPG,AFNE01.JPG,AFNE01.JPG,AFNE01.JPG,,,,,,,,,,,,,5,3,53,0,,,,,,,,,,,AMSA17.jpg,AMNE04.jpg,AMNE11.jpg,AMSA10.jpg,AMNE11.jpg,MN,1,num_2,16,num_2,1.61696751515,,,2017_Mar_21_1827,59.9913605009,FEMA4ImagesEEG,001,100035,
AFNE01.JPG,AFNE01.JPG,AFNE01.JPG,AFNE01.JPG,AFNE01.JPG,AFNE01.JPG,,,,,,,,,,,,,5,4,54,8,,,,,,,,,,,AMNE04.jpg,AMSA09.jpg,AMNE13.jpg,AMSA18.jpg,AMNE13.jpg,MN,1,num_2,16,num_2,1.21672991116,,,2017_Mar_21_1827,59.9913605009,FEMA4ImagesEEG,001,100035,
AFNE01.JPG,AFNE01.JPG,AFNE01.JPG,AFNE01.JPG,AFNE01.JPG,AFNE01.JPG,,,,,,,,,,,,,5,5,55,9,,,,,,,,,,,AMSA12.jpg,AMNE12.jpg,AMSA01.jpg,AMNE10.jpg,AMNE12.jpg,MN,1,num_6,32,num_4,1.31675419118,,,2017_Mar_21_1827,59.9913605009,FEMA4ImagesEEG,001,100035,
AFNE01.JPG,AFNE01.JPG,AFNE01.JPG,AFNE01.JPG,AFNE01.JPG,AFNE01.JPG,,,,,,,,,,,,,5,6,56,7,,,,,,,,,,,AMNE09.jpg,AMNE02.jpg,AMSA06.jpg,AMSA16.jpg,AMNE09.jpg,MN,1,num_8,16,num_8,1.06676261057,,,2017_Mar_21_1827,59.9913605009,FEMA4ImagesEEG,001,100035,
AFNE01.JPG,AFNE01.JPG,AFNE01.JPG,AFNE01.JPG,AFNE01.JPG,AFNE01.JPG,,,,,,,,,,,,,5,7,57,3,,,,,,,,,,,AMSA17.jpg,AMNE16.jpg,AMNE13.jpg,AMSA03.jpg,AMNE16.jpg,MN,1,num_6,32,num_4,0.900119090627,,,2017_Mar_21_1827,59.9913605009,FEMA4ImagesEEG,001,100035,
AFNE01.JPG,AFNE01.JPG,AFNE01.JPG,AFNE01.JPG,AFNE01.JPG,AFNE01.JPG,,,,,,,,,,,,,5,8,58,5,,,,,,,,,,,AMSA09.jpg,AMNE20.jpg,AMSA03.jpg,AMNE17.jpg,AMNE17.jpg,MN,1,num_4,32,num_6,1.5166888886,,,2017_Mar_21_1827,59.9913605009,FEMA4ImagesEEG,001,100035,
AFNE01.JPG,AFNE01.JPG,AFNE01.JPG,AFNE01.JPG,AFNE01.JPG,AFNE01.JPG,,,,,,,,,,,,,5,9,59,1,,,,,,,,,,,AMSA19.jpg,AMNE17.jpg,AMNE08.jpg,AMSA03.jpg,AMSA19.jpg,MS,2,num_8,16,num_8,1.58338510606,,,2017_Mar_21_1827,59.9913605009,FEMA4ImagesEEG,001,100035,
,,,,,,,,,,,,,,,,,,,,,,,,,,,,,,,,,,,,,,,,,,,space,74.011059105,2017_Mar_21_1827,59.9913605009,FEMA4ImagesEEG,001,100035,
AFNE01.JPG,AFNE01.JPG,AFNE01.JPG,AFNE01.JPG,AFNE01.JPG,AFNE01.JPG,,,,,,,,,,,,,,,,,0,0,0,8,,,,,,,AFSA08.jpg,AFNE20.jpg,AFNE04.jpg,AFSA13.jpg,AFNE04.jpg,FN,3,num_2,32,num_8,1.26670949609,,,2017_Mar_21_1827,59.9913605009,FEMA4ImagesEEG,001,100035,
AFNE01.JPG,AFNE01.JPG,AFNE01.JPG,AFNE01.JPG,AFNE01.JPG,AFNE01.JPG,,,,,,,,,,,,,,,,,0,1,1,9,,,,,,,AFSA16.jpg,AFNE01.jpg,AFSA02.jpg,AFNE04.jpg,AFNE01.jpg,FN,3,num_6,16,num_6,1.11673032818,,,2017_Mar_21_1827,59.9913605009,FEMA4ImagesEEG,001,100035,
AFNE01.JPG,AFNE01.JPG,AFNE01.JPG,AFNE01.JPG,AFNE01.JPG,AFNE01.JPG,,,,,,,,,,,,,,,,,0,2,2,7,,,,,,,AFSA14.jpg,AFSA09.jpg,AFNE02.jpg,AFNE08.jpg,AFNE02.jpg,FN,3,num_2,32,num_8,0.850115129491,,,2017_Mar_21_1827,59.9913605009,FEMA4ImagesEEG,001,100035,
AFNE01.JPG,AFNE01.JPG,AFNE01.JPG,AFNE01.JPG,AFNE01.JPG,AFNE01.JPG,,,,,,,,,,,,,,,,,0,3,3,0,,,,,,,AFSA15.jpg,AFSA20.jpg,AFNE16.jpg,AFNE03.jpg,AFSA20.jpg,FS,4,num_6,16,num_6,0.81662348978,,,2017_Mar_21_1827,59.9913605009,FEMA4ImagesEEG,001,100035,
AFNE01.JPG,AFNE01.JPG,AFNE01.JPG,AFNE01.JPG,AFNE01.JPG,AFNE01.JPG,,,,,,,,,,,,,,,,,0,4,4,2,,,,,,,AFNE06.jpg,AFNE15.jpg,AFSA14.jpg,AFSA07.jpg,AFSA14.jpg,FS,4,num_2,32,num_8,0.883439343132,,,2017_Mar_21_1827,59.9913605009,FEMA4ImagesEEG,001,100035,
AFNE01.JPG,AFNE01.JPG,AFNE01.JPG,AFNE01.JPG,AFNE01.JPG,AFNE01.JPG,,,,,,,,,,,,,,,,,0,5,5,4,,,,,,,AFNE04.jpg,AFSA06.jpg,AFSA08.jpg,AFNE11.jpg,AFNE04.jpg,FN,3,num_8,32,num_6,0.783465419314,,,2017_Mar_21_1827,59.9913605009,FEMA4ImagesEEG,001,100035,
AFNE01.JPG,AFNE01.JPG,AFNE01.JPG,AFNE01.JPG,AFNE01.JPG,AFNE01.JPG,,,,,,,,,,,,,,,,,0,6,6,3,,,,,,,AFSA20.jpg,AFNE03.jpg,AFNE13.jpg,AFSA03.jpg,AFSA03.jpg,FS,4,num_4,32,num_2,0.933421814698,,,2017_Mar_21_1827,59.9913605009,FEMA4ImagesEEG,001,100035,
AFNE01.JPG,AFNE01.JPG,AFNE01.JPG,AFNE01.JPG,AFNE01.JPG,AFNE01.JPG,,,,,,,,,,,,,,,,,0,7,7,6,,,,,,,AFSA17.jpg,AFSA03.jpg,AFNE01.jpg,AFNE11.jpg,AFNE01.jpg,FN,3,num_2,32,num_4,0.550217734126,,,2017_Mar_21_1827,59.9913605009,FEMA4ImagesEEG,001,100035,
AFNE01.JPG,AFNE01.JPG,AFNE01.JPG,AFNE01.JPG,AFNE01.JPG,AFNE01.JPG,,,,,,,,,,,,,,,,,0,8,8,1,,,,,,,AFNE13.jpg,AFSA02.jpg,AFNE05.jpg,AFSA14.jpg,AFSA02.jpg,FS,4,num_6,16,num_6,0.93344779464,,,2017_Mar_21_1827,59.9913605009,FEMA4ImagesEEG,001,100035,
AFNE01.JPG,AFNE01.JPG,AFNE01.JPG,AFNE01.JPG,AFNE01.JPG,AFNE01.JPG,,,,,,,,,,,,,,,,,0,9,9,5,,,,,,,AFNE06.jpg,AFNE19.jpg,AFSA04.jpg,AFSA08.jpg,AFNE19.jpg,FN,3,num_6,16,num_6,1.51700417569,,,2017_Mar_21_1827,59.9913605009,FEMA4ImagesEEG,001,100035,
AFNE01.JPG,AFNE01.JPG,AFNE01.JPG,AFNE01.JPG,AFNE01.JPG,AFNE01.JPG,,,,,,,,,,,,,,,,,1,0,10,7,,,,,,,AFNE04.jpg,AFSA03.jpg,AFSA15.jpg,AFNE01.jpg,AFSA15.jpg,FS,4,num_2,32,num_4,3.64991453895,,,2017_Mar_21_1827,59.9913605009,FEMA4ImagesEEG,001,100035,
AFNE01.JPG,AFNE01.JPG,AFNE01.JPG,AFNE01.JPG,AFNE01.JPG,AFNE01.JPG,,,,,,,,,,,,,,,,,1,1,11,1,,,,,,,AFNE17.jpg,AFNE16.jpg,AFSA06.jpg,AFSA20.jpg,AFNE16.jpg,FN,3,num_6,48,None,,,,2017_Mar_21_1827,59.9913605009,FEMA4ImagesEEG,001,100035,
AFNE01.JPG,AFNE01.JPG,AFNE01.JPG,AFNE01.JPG,AFNE01.JPG,AFNE01.JPG,,,,,,,,,,,,,,,,,1,2,12,9,,,,,,,AFSA17.jpg,AFNE16.jpg,AFNE18.jpg,AFSA16.jpg,AFSA17.jpg,FS,4,num_8,16,num_8,1.41671785136,,,2017_Mar_21_1827,59.9913605009,FEMA4ImagesEEG,001,100035,
AFNE01.JPG,AFNE01.JPG,AFNE01.JPG,AFNE01.JPG,AFNE01.JPG,AFNE01.JPG,,,,,,,,,,,,,,,,,1,3,13,3,,,,,,,AFSA18.jpg,AFSA20.jpg,AFNE05.jpg,AFNE17.jpg,AFNE05.jpg,FN,3,num_2,32,num_8,1.48340797483,,,2017_Mar_21_1827,59.9913605009,FEMA4ImagesEEG,001,100035,
AFNE01.JPG,AFNE01.JPG,AFNE01.JPG,AFNE01.JPG,AFNE01.JPG,AFNE01.JPG,,,,,,,,,,,,,,,,,1,4,14,8,,,,,,,AFNE19.jpg,AFSA15.jpg,AFSA14.jpg,AFNE01.jpg,AFSA14.jpg,FS,4,num_2,32,num_8,0.883444154228,,,2017_Mar_21_1827,59.9913605009,FEMA4ImagesEEG,001,100035,
AFNE01.JPG,AFNE01.JPG,AFNE01.JPG,AFNE01.JPG,AFNE01.JPG,AFNE01.JPG,,,,,,,,,,,,,,,,,1,5,15,0,,,,,,,AFNE03.jpg,AFNE18.jpg,AFSA20.jpg,AFSA10.jpg,AFNE03.jpg,FN,3,num_8,16,num_8,1.0668716621,,,2017_Mar_21_1827,59.9913605009,FEMA4ImagesEEG,001,100035,
AFNE01.JPG,AFNE01.JPG,AFNE01.JPG,AFNE01.JPG,AFNE01.JPG,AFNE01.JPG,,,,,,,,,,,,,,,,,1,6,16,4,,,,,,,AFNE16.jpg,AFSA09.jpg,AFSA18.jpg,AFNE12.jpg,AFNE16.jpg,FN,3,num_8,32,num_6,1.01675319689,,,2017_Mar_21_1827,59.9913605009,FEMA4ImagesEEG,001,100035,
AFNE01.JPG,AFNE01.JPG,AFNE01.JPG,AFNE01.JPG,AFNE01.JPG,AFNE01.JPG,,,,,,,,,,,,,,,,,1,7,17,6,,,,,,,AFSA09.jpg,AFNE15.jpg,AFSA17.jpg,AFNE03.jpg,AFSA09.jpg,FS,4,num_8,32,num_4,1.65007330506,,,2017_Mar_21_1827,59.9913605009,FEMA4ImagesEEG,001,100035,
AFNE01.JPG,AFNE01.JPG,AFNE01.JPG,AFNE01.JPG,AFNE01.JPG,AFNE01.JPG,,,,,,,,,,,,,,,,,1,8,18,2,,,,,,,AFNE20.jpg,AFNE08.jpg,AFSA19.jpg,AFSA16.jpg,AFNE20.jpg,FN,3,num_8,32,num_6,1.16676283511,,,2017_Mar_21_1827,59.9913605009,FEMA4ImagesEEG,001,100035,
AFNE01.JPG,AFNE01.JPG,AFNE01.JPG,AFNE01.JPG,AFNE01.JPG,AFNE01.JPG,,,,,,,,,,,,,,,,,1,9,19,5,,,,,,,AFNE18.jpg,AFSA06.jpg,AFNE10.jpg,AFSA04.jpg,AFNE10.jpg,FN,3,num_2,32,num_8,0.350130685372,,,2017_Mar_21_1827,59.9913605009,FEMA4ImagesEEG,001,100035,
AFNE01.JPG,AFNE01.JPG,AFNE01.JPG,AFNE01.JPG,AFNE01.JPG,AFNE01.JPG,,,,,,,,,,,,,,,,,2,0,20,7,,,,,,,AFSA04.jpg,AFSA17.jpg,AFNE10.jpg,AFNE14.jpg,AFSA17.jpg,FS,4,num_6,32,num_4,1.06676966691,,,2017_Mar_21_1827,59.9913605009,FEMA4ImagesEEG,001,100035,
AFNE01.JPG,AFNE01.JPG,AFNE01.JPG,AFNE01.JPG,AFNE01.JPG,AFNE01.JPG,,,,,,,,,,,,,,,,,2,1,21,9,,,,,,,AFSA19.jpg,AFNE07.jpg,AFNE01.jpg,AFSA01.jpg,AFNE07.jpg,FN,3,num_6,32,num_8,1.06674625288,,,2017_Mar_21_1827,59.9913605009,FEMA4ImagesEEG,001,100035,
AFNE01.JPG,AFNE01.JPG,AFNE01.JPG,AFNE01.JPG,AFNE01.JPG,AFNE01.JPG,,,,,,,,,,,,,,,,,2,2,22,3,,,,,,,AFSA07.jpg,AFNE17.jpg,AFNE19.jpg,AFSA15.jpg,AFNE19.jpg,FN,3,num_2,32,num_8,2.61671477224,,,2017_Mar_21_1827,59.9913605009,FEMA4ImagesEEG,001,100035,
AFNE01.JPG,AFNE01.JPG,AFNE01.JPG,AFNE01.JPG,AFNE01.JPG,AFNE01.JPG,,,,,,,,,,,,,,,,,2,3,23,0,,,,,,,AFNE15.jpg,AFSA18.jpg,AFNE11.jpg,AFSA13.jpg,AFSA13.jpg,FS,4,num_4,16,num_4,0.700162582973,,,2017_Mar_21_1827,59.9913605009,FEMA4ImagesEEG,001,100035,
AFNE01.JPG,AFNE01.JPG,AFNE01.JPG,AFNE01.JPG,AFNE01.JPG,AFNE01.JPG,,,,,,,,,,,,,,,,,2,4,24,1,,,,,,,AFNE09.jpg,AFNE20.jpg,AFSA16.jpg,AFSA03.jpg,AFSA03.jpg,FS,4,num_4,32,num_6,0.816732861975,,,2017_Mar_21_1827,59.9913605009,FEMA4ImagesEEG,001,100035,
AFNE01.JPG,AFNE01.JPG,AFNE01.JPG,AFNE01.JPG,AFNE01.JPG,AFNE01.JPG,,,,,,,,,,,,,,,,,2,5,25,4,,,,,,,AFNE13.jpg,AFSA17.jpg,AFSA08.jpg,AFNE04.jpg,AFNE13.jpg,FN,3,num_8,32,num_4,0.766738202306,,,2017_Mar_21_1827,59.9913605009,FEMA4ImagesEEG,001,100035,
AFNE01.JPG,AFNE01.JPG,AFNE01.JPG,AFNE01.JPG,AFNE01.JPG,AFNE01.JPG,,,,,,,,,,,,,,,,,2,6,26,2,,,,,,,AFNE11.jpg,AFNE20.jpg,AFSA18.jpg,AFSA15.jpg,AFSA18.jpg,FS,4,num_2,32,num_8,0.583474913205,,,2017_Mar_21_1827,59.9913605009,FEMA4ImagesEEG,001,100035,
AFNE01.JPG,AFNE01.JPG,AFNE01.JPG,AFNE01.JPG,AFNE01.JPG,AFNE01.JPG,,,,,,,,,,,,,,,,,2,7,27,5,,,,,,,AFSA08.jpg,AFNE05.jpg,AFSA10.jpg,AFNE20.jpg,AFNE20.jpg,FN,3,num_4,32,num_6,1.01675736654,,,2017_Mar_21_1827,59.9913605009,FEMA4ImagesEEG,001,100035,
AFNE01.JPG,AFNE01.JPG,AFNE01.JPG,AFNE01.JPG,AFNE01.JPG,AFNE01.JPG,,,,,,,,,,,,,,,,,2,8,28,6,,,,,,,AFSA16.jpg,AFSA09.jpg,AFNE10.jpg,AFNE12.jpg,AFSA09.jpg,FS,4,num_6,32,num_4,0.950101241528,,,2017_Mar_21_1827,59.9913605009,FEMA4ImagesEEG,001,100035,
AFNE01.JPG,AFNE01.JPG,AFNE01.JPG,AFNE01.JPG,AFNE01.JPG,AFNE01.JPG,,,,,,,,,,,,,,,,,2,9,29,8,,,,,,,AFSA05.jpg,AFNE20.jpg,AFSA20.jpg,AFNE13.jpg,AFSA05.jpg,FS,4,num_8,16,num_8,0.733740501688,,,2017_Mar_21_1827,59.9913605009,FEMA4ImagesEEG,001,100035,
AFNE01.JPG,AFNE01.JPG,AFNE01.JPG,AFNE01.JPG,AFNE01.JPG,AFNE01.JPG,,,,,,,,,,,,,,,,,3,0,30,1,,,,,,,AFSA12.jpg,AFNE06.jpg,AFNE14.jpg,AFSA17.jpg,AFNE14.jpg,FN,3,num_2,32,num_6,0.816739597532,,,2017_Mar_21_1827,59.9913605009,FEMA4ImagesEEG,001,100035,
AFNE01.JPG,AFNE01.JPG,AFNE01.JPG,AFNE01.JPG,AFNE01.JPG,AFNE01.JPG,,,,,,,,,,,,,,,,,3,1,31,6,,,,,,,AFNE12.jpg,AFNE03.jpg,AFSA08.jpg,AFSA14.jpg,AFSA14.jpg,FS,4,num_4,32,num_8,0.533484423126,,,2017_Mar_21_1827,59.9913605009,FEMA4ImagesEEG,001,100035,
AFNE01.JPG,AFNE01.JPG,AFNE01.JPG,AFNE01.JPG,AFNE01.JPG,AFNE01.JPG,,,,,,,,,,,,,,,,,3,2,32,3,,,,,,,AFNE11.jpg,AFSA06.jpg,AFSA01.jpg,AFNE08.jpg,AFNE08.jpg,FN,3,num_4,16,num_4,0.900128392095,,,2017_Mar_21_1827,59.9913605009,FEMA4ImagesEEG,001,100035,
AFNE01.JPG,AFNE01.JPG,AFNE01.JPG,AFNE01.JPG,AFNE01.JPG,AFNE01.JPG,,,,,,,,,,,,,,,,,3,3,33,8,,,,,,,AFSA16.jpg,AFNE16.jpg,AFSA14.jpg,AFNE04.jpg,AFSA16.jpg,FS,4,num_8,16,num_8,0.433469765354,,,2017_Mar_21_1827,59.9913605009,FEMA4ImagesEEG,001,100035,
AFNE01.JPG,AFNE01.JPG,AFNE01.JPG,AFNE01.JPG,AFNE01.JPG,AFNE01.JPG,,,,,,,,,,,,,,,,,3,4,34,0,,,,,,,AFNE01.jpg,AFSA19.jpg,AFSA17.jpg,AFNE08.jpg,AFNE08.jpg,FN,3,num_4,32,num_6,0.916804932232,,,2017_Mar_21_1827,59.9913605009,FEMA4ImagesEEG,001,100035,
AFNE01.JPG,AFNE01.JPG,AFNE01.JPG,AFNE01.JPG,AFNE01.JPG,AFNE01.JPG,,,,,,,,,,,,,,,,,3,5,35,5,,,,,,,AFSA12.jpg,AFSA01.jpg,AFNE15.jpg,AFNE05.jpg,AFNE15.jpg,FN,3,num_2,32,num_4,1.36670362658,,,2017_Mar_21_1827,59.9913605009,FEMA4ImagesEEG,001,100035,
AFNE01.JPG,AFNE01.JPG,AFNE01.JPG,AFNE01.JPG,AFNE01.JPG,AFNE01.JPG,,,,,,,,,,,,,,,,,3,6,36,9,,,,,,,AFSA20.jpg,AFSA18.jpg,AFNE09.jpg,AFNE05.jpg,AFSA20.jpg,FS,4,num_8,16,num_8,0.850207502604,,,2017_Mar_21_1827,59.9913605009,FEMA4ImagesEEG,001,100035,
AFNE01.JPG,AFNE01.JPG,AFNE01.JPG,AFNE01.JPG,AFNE01.JPG,AFNE01.JPG,,,,,,,,,,,,,,,,,3,7,37,7,,,,,,,AFSA12.jpg,AFNE08.jpg,AFNE19.jpg,AFSA05.jpg,AFNE08.jpg,FN,3,num_6,32,num_2,0.850108393992,,,2017_Mar_21_1827,59.9913605009,FEMA4ImagesEEG,001,100035,
AFNE01.JPG,AFNE01.JPG,AFNE01.JPG,AFNE01.JPG,AFNE01.JPG,AFNE01.JPG,,,,,,,,,,,,,,,,,3,8,38,4,,,,,,,AFNE19.jpg,AFSA16.jpg,AFNE13.jpg,AFSA12.jpg,AFNE13.jpg,FN,3,num_2,32,num_8,1.01674710284,,,2017_Mar_21_1827,59.9913605009,FEMA4ImagesEEG,001,100035,
AFNE01.JPG,AFNE01.JPG,AFNE01.JPG,AFNE01.JPG,AFNE01.JPG,AFNE01.JPG,,,,,,,,,,,,,,,,,3,9,39,2,,,,,,,AFNE09.jpg,AFSA06.jpg,AFNE15.jpg,AFSA08.jpg,AFNE15.jpg,FN,3,num_2,32,num_8,0.866787179257,,,2017_Mar_21_1827,59.9913605009,FEMA4ImagesEEG,001,100035,
AFNE01.JPG,AFNE01.JPG,AFNE01.JPG,AFNE01.JPG,AFNE01.JPG,AFNE01.JPG,,,,,,,,,,,,,,,,,4,0,40,2,,,,,,,AFSA20.jpg,AFNE08.jpg,AFNE18.jpg,AFSA14.jpg,AFNE08.jpg,FN,3,num_6,32,num_8,2.03335596691,,,2017_Mar_21_1827,59.9913605009,FEMA4ImagesEEG,001,100035,
AFNE01.JPG,AFNE01.JPG,AFNE01.JPG,AFNE01.JPG,AFNE01.JPG,AFNE01.JPG,,,,,,,,,,,,,,,,,4,1,41,7,,,,,,,AFSA17.jpg,AFNE14.jpg,AFNE13.jpg,AFSA01.jpg,AFNE13.jpg,FN,3,num_2,32,num_8,1.23344494007,,,2017_Mar_21_1827,59.9913605009,FEMA4ImagesEEG,001,100035,
AFNE01.JPG,AFNE01.JPG,AFNE01.JPG,AFNE01.JPG,AFNE01.JPG,AFNE01.JPG,,,,,,,,,,,,,,,,,4,2,42,0,,,,,,,AFNE11.jpg,AFNE03.jpg,AFSA13.jpg,AFSA01.jpg,AFNE03.jpg,FN,3,num_6,32,num_4,1.00013374846,,,2017_Mar_21_1827,59.9913605009,FEMA4ImagesEEG,001,100035,
AFNE01.JPG,AFNE01.JPG,AFNE01.JPG,AFNE01.JPG,AFNE01.JPG,AFNE01.JPG,,,,,,,,,,,,,,,,,4,3,43,3,,,,,,,AFNE15.jpg,AFSA08.jpg,AFNE18.jpg,AFSA11.jpg,AFSA11.jpg,FS,4,num_4,32,num_8,0.78344104311,,,2017_Mar_21_1827,59.9913605009,FEMA4ImagesEEG,001,100035,
AFNE01.JPG,AFNE01.JPG,AFNE01.JPG,AFNE01.JPG,AFNE01.JPG,AFNE01.JPG,,,,,,,,,,,,,,,,,4,4,44,4,,,,,,,AFSA20.jpg,AFSA09.jpg,AFNE10.jpg,AFNE03.jpg,AFSA20.jpg,FS,4,num_8,32,num_6,0.73358686734,,,2017_Mar_21_1827,59.9913605009,FEMA4ImagesEEG,001,100035,
AFNE01.JPG,AFNE01.JPG,AFNE01.JPG,AFNE01.JPG,AFNE01.JPG,AFNE01.JPG,,,,,,,,,,,,,,,,,4,5,45,1,,,,,,,AFNE07.jpg,AFNE19.jpg,AFSA18.jpg,AFSA07.jpg,AFNE07.jpg,FN,3,num_8,32,num_4,1.04994302057,,,2017_Mar_21_1827,59.9913605009,FEMA4ImagesEEG,001,100035,
AFNE01.JPG,AFNE01.JPG,AFNE01.JPG,AFNE01.JPG,AFNE01.JPG,AFNE01.JPG,,,,,,,,,,,,,,,,,4,6,46,6,,,,,,,AFNE07.jpg,AFNE03.jpg,AFSA08.jpg,AFSA05.jpg,AFSA08.jpg,FS,4,num_2,32,num_8,0.300145327172,,,2017_Mar_21_1827,59.9913605009,FEMA4ImagesEEG,001,100035,
AFNE01.JPG,AFNE01.JPG,AFNE01.JPG,AFNE01.JPG,AFNE01.JPG,AFNE01.JPG,,,,,,,,,,,,,,,,,4,7,47,5,,,,,,,AFNE13.jpg,AFNE01.jpg,AFSA02.jpg,AFSA05.jpg,AFSA02.jpg,FS,4,num_2,32,num_6,1.11682687083,,,2017_Mar_21_1827,59.9913605009,FEMA4ImagesEEG,001,100035,
AFNE01.JPG,AFNE01.JPG,AFNE01.JPG,AFNE01.JPG,AFNE01.JPG,AFNE01.JPG,,,,,,,,,,,,,,,,,4,8,48,9,,,,,,,AFNE01.jpg,AFNE17.jpg,AFSA03.jpg,AFSA20.jpg,AFNE17.jpg,FN,3,num_6,32,num_4,1.21670425206,,,2017_Mar_21_1827,59.9913605009,FEMA4ImagesEEG,001,100035,
AFNE01.JPG,AFNE01.JPG,AFNE01.JPG,AFNE01.JPG,AFNE01.JPG,AFNE01.JPG,,,,,,,,,,,,,,,,,4,9,49,8,,,,,,,AFSA05.jpg,AFNE13.jpg,AFNE03.jpg,AFSA06.jpg,AFSA05.jpg,FS,4,num_8,16,num_8,0.950103165873,,,2017_Mar_21_1827,59.9913605009,FEMA4ImagesEEG,001,100035,
AFNE01.JPG,AFNE01.JPG,AFNE01.JPG,AFNE01.JPG,AFNE01.JPG,AFNE01.JPG,,,,,,,,,,,,,,,,,5,0,50,7,,,,,,,AFNE18.jpg,AFNE17.jpg,AFSA05.jpg,AFSA17.jpg,AFNE18.jpg,FN,3,num_8,32,num_6,1.15006737137,,,2017_Mar_21_1827,59.9913605009,FEMA4ImagesEEG,001,100035,
AFNE01.JPG,AFNE01.JPG,AFNE01.JPG,AFNE01.JPG,AFNE01.JPG,AFNE01.JPG,,,,,,,,,,,,,,,,,5,1,51,6,,,,,,,AFSA08.jpg,AFSA04.jpg,AFNE10.jpg,AFNE05.jpg,AFSA08.jpg,FS,4,num_8,32,num_4,1.066938376,,,2017_Mar_21_1827,59.9913605009,FEMA4ImagesEEG,001,100035,
AFNE01.JPG,AFNE01.JPG,AFNE01.JPG,AFNE01.JPG,AFNE01.JPG,AFNE01.JPG,,,,,,,,,,,,,,,,,5,2,52,2,,,,,,,AFSA20.jpg,AFNE06.jpg,AFSA13.jpg,AFNE18.jpg,AFNE06.jpg,FN,3,num_6,32,num_8,1.03341049264,,,2017_Mar_21_1827,59.9913605009,FEMA4ImagesEEG,001,100035,
AFNE01.JPG,AFNE01.JPG,AFNE01.JPG,AFNE01.JPG,AFNE01.JPG,AFNE01.JPG,,,,,,,,,,,,,,,,,5,3,53,5,,,,,,,AFSA08.jpg,AFSA09.jpg,AFNE03.jpg,AFNE16.jpg,AFSA09.jpg,FS,4,num_6,32,num_4,0.966742500255,,,2017_Mar_21_1827,59.9913605009,FEMA4ImagesEEG,001,100035,
AFNE01.JPG,AFNE01.JPG,AFNE01.JPG,AFNE01.JPG,AFNE01.JPG,AFNE01.JPG,,,,,,,,,,,,,,,,,5,4,54,4,,,,,,,AFNE13.jpg,AFSA02.jpg,AFSA07.jpg,AFNE15.jpg,AFNE15.jpg,FN,3,num_4,32,num_8,0.983482867479,,,2017_Mar_21_1827,59.9913605009,FEMA4ImagesEEG,001,100035,
AFNE01.JPG,AFNE01.JPG,AFNE01.JPG,AFNE01.JPG,AFNE01.JPG,AFNE01.JPG,,,,,,,,,,,,,,,,,5,5,55,1,,,,,,,AFNE07.jpg,AFSA14.jpg,AFNE17.jpg,AFSA19.jpg,AFSA14.jpg,FS,4,num_6,16,num_6,0.816456063592,,,2017_Mar_21_1827,59.9913605009,FEMA4ImagesEEG,001,100035,
AFNE01.JPG,AFNE01.JPG,AFNE01.JPG,AFNE01.JPG,AFNE01.JPG,AFNE01.JPG,,,,,,,,,,,,,,,,,5,6,56,9,,,,,,,AFSA04.jpg,AFNE18.jpg,AFNE03.jpg,AFSA14.jpg,AFSA04.jpg,FS,4,num_8,16,num_8,1.45005585684,,,2017_Mar_21_1827,59.9913605009,FEMA4ImagesEEG,001,100035,
AFNE01.JPG,AFNE01.JPG,AFNE01.JPG,AFNE01.JPG,AFNE01.JPG,AFNE01.JPG,,,,,,,,,,,,,,,,,5,7,57,8,,,,,,,AFNE20.jpg,AFSA13.jpg,AFSA15.jpg,AFNE13.jpg,AFNE13.jpg,FN,3,num_4,16,num_4,0.900128392095,,,2017_Mar_21_1827,59.9913605009,FEMA4ImagesEEG,001,100035,
AFNE01.JPG,AFNE01.JPG,AFNE01.JPG,AFNE01.JPG,AFNE01.JPG,AFNE01.JPG,,,,,,,,,,,,,,,,,5,8,58,0,,,,,,,AFNE09.jpg,AFSA04.jpg,AFNE17.jpg,AFSA13.jpg,AFSA04.jpg,FS,4,num_6,32,num_8,0.666834841191,,,2017_Mar_21_1827,59.9913605009,FEMA4ImagesEEG,001,100035,
AFNE01.JPG,AFNE01.JPG,AFNE01.JPG,AFNE01.JPG,AFNE01.JPG,AFNE01.JPG,,,,,,,,,,,,,,,,,5,9,59,3,,,,,,,AFNE18.jpg,AFSA03.jpg,AFNE14.jpg,AFSA20.jpg,AFSA20.jpg,FS,4,num_4,32,num_6,0.833389195497,,,2017_Mar_21_1827,59.9913605009,FEMA4ImagesEEG,001,100035,
,,,,,,,,,,,,,,,,,,,,,,,,,,,,,,,,,,,,,,,,,,,space,76.0610973852,2017_Mar_21_1827,59.9913605009,FEMA4ImagesEEG,001,100035,
AFNE01.JPG,AFNE01.JPG,AFNE01.JPG,AFNE01.JPG,AFNE01.JPG,AFNE01.JPG,,,,,,,,,,,,,,,,,,,,,0,0,0,0,,,AMNE02.jpg,AMSA06.jpg,AMSA03.jpg,AMNE01.jpg,AMSA03.jpg,MS,2,num_2,32,num_8,0.900117807731,,,2017_Mar_21_1827,59.9913605009,FEMA4ImagesEEG,001,100035,
AFNE01.JPG,AFNE01.JPG,AFNE01.JPG,AFNE01.JPG,AFNE01.JPG,AFNE01.JPG,,,,,,,,,,,,,,,,,,,,,0,1,1,9,,,AMSA04.jpg,AMNE03.jpg,AMSA13.jpg,AMNE07.jpg,AMSA04.jpg,MS,2,num_8,32,num_4,1.00009269378,,,2017_Mar_21_1827,59.9913605009,FEMA4ImagesEEG,001,100035,
AFNE01.JPG,AFNE01.JPG,AFNE01.JPG,AFNE01.JPG,AFNE01.JPG,AFNE01.JPG,,,,,,,,,,,,,,,,,,,,,0,2,2,5,,,AMSA12.jpg,AMSA18.jpg,AMNE04.jpg,AMNE11.jpg,AMSA18.jpg,MS,2,num_6,32,num_8,0.800138110528,,,2017_Mar_21_1827,59.9913605009,FEMA4ImagesEEG,001,100035,
AFNE01.JPG,AFNE01.JPG,AFNE01.JPG,AFNE01.JPG,AFNE01.JPG,AFNE01.JPG,,,,,,,,,,,,,,,,,,,,,0,3,3,8,,,AMSA04.jpg,AMNE13.jpg,AMSA12.jpg,AMNE06.jpg,AMNE13.jpg,MN,1,num_6,32,num_2,0.783529567241,,,2017_Mar_21_1827,59.9913605009,FEMA4ImagesEEG,001,100035,
AFNE01.JPG,AFNE01.JPG,AFNE01.JPG,AFNE01.JPG,AFNE01.JPG,AFNE01.JPG,,,,,,,,,,,,,,,,,,,,,0,4,4,7,,,AMNE01.jpg,AMSA10.jpg,AMSA02.jpg,AMNE16.jpg,AMNE16.jpg,MN,1,num_4,16,num_4,0.950058583112,,,2017_Mar_21_1827,59.9913605009,FEMA4ImagesEEG,001,100035,
AFNE01.JPG,AFNE01.JPG,AFNE01.JPG,AFNE01.JPG,AFNE01.JPG,AFNE01.JPG,,,,,,,,,,,,,,,,,,,,,0,5,5,6,,,AMNE11.jpg,AMSA12.jpg,AMNE07.jpg,AMSA14.jpg,AMNE11.jpg,MN,1,num_8,32,num_6,0.750123244245,,,2017_Mar_21_1827,59.9913605009,FEMA4ImagesEEG,001,100035,
AFNE01.JPG,AFNE01.JPG,AFNE01.JPG,AFNE01.JPG,AFNE01.JPG,AFNE01.JPG,,,,,,,,,,,,,,,,,,,,,0,6,6,3,,,AMSA04.jpg,AMNE13.jpg,AMNE11.jpg,AMSA19.jpg,AMSA19.jpg,MS,2,num_4,32,num_8,0.733515663131,,,2017_Mar_21_1827,59.9913605009,FEMA4ImagesEEG,001,100035,
AFNE01.JPG,AFNE01.JPG,AFNE01.JPG,AFNE01.JPG,AFNE01.JPG,AFNE01.JPG,,,,,,,,,,,,,,,,,,,,,0,7,7,4,,,AMSA16.jpg,AMNE19.jpg,AMSA14.jpg,AMNE04.jpg,AMSA14.jpg,MS,2,num_2,32,num_4,0.90013127873,,,2017_Mar_21_1827,59.9913605009,FEMA4ImagesEEG,001,100035,
AFNE01.JPG,AFNE01.JPG,AFNE01.JPG,AFNE01.JPG,AFNE01.JPG,AFNE01.JPG,,,,,,,,,,,,,,,,,,,,,0,8,8,1,,,AMNE13.jpg,AMSA03.jpg,AMNE09.jpg,AMSA04.jpg,AMNE13.jpg,MN,1,num_8,16,num_8,0.483508687059,,,2017_Mar_21_1827,59.9913605009,FEMA4ImagesEEG,001,100035,
AFNE01.JPG,AFNE01.JPG,AFNE01.JPG,AFNE01.JPG,AFNE01.JPG,AFNE01.JPG,,,,,,,,,,,,,,,,,,,,,0,9,9,2,,,AMNE17.jpg,AMSA16.jpg,AMSA15.jpg,AMNE10.jpg,AMSA15.jpg,MS,2,num_2,16,num_2,1.26680347283,,,2017_Mar_21_1827,59.9913605009,FEMA4ImagesEEG,001,100035,
AFNE01.JPG,AFNE01.JPG,AFNE01.JPG,AFNE01.JPG,AFNE01.JPG,AFNE01.JPG,,,,,,,,,,,,,,,,,,,,,1,0,10,5,,,AMNE04.jpg,AMSA02.jpg,AMSA18.jpg,AMNE14.jpg,AMNE14.jpg,MN,1,num_4,32,num_8,1.8833338198,,,2017_Mar_21_1827,59.9913605009,FEMA4ImagesEEG,001,100035,
AFNE01.JPG,AFNE01.JPG,AFNE01.JPG,AFNE01.JPG,AFNE01.JPG,AFNE01.JPG,,,,,,,,,,,,,,,,,,,,,1,1,11,9,,,AMNE07.jpg,AMSA01.jpg,AMSA02.jpg,AMNE02.jpg,AMNE02.jpg,MN,1,num_4,32,num_6,0.983432190667,,,2017_Mar_21_1827,59.9913605009,FEMA4ImagesEEG,001,100035,
AFNE01.JPG,AFNE01.JPG,AFNE01.JPG,AFNE01.JPG,AFNE01.JPG,AFNE01.JPG,,,,,,,,,,,,,,,,,,,,,1,2,12,1,,,AMNE01.jpg,AMNE12.jpg,AMSA03.jpg,AMSA13.jpg,AMSA13.jpg,MS,2,num_4,32,num_8,2.66658017389,,,2017_Mar_21_1827,59.9913605009,FEMA4ImagesEEG,001,100035,
AFNE01.JPG,AFNE01.JPG,AFNE01.JPG,AFNE01.JPG,AFNE01.JPG,AFNE01.JPG,,,,,,,,,,,,,,,,,,,,,1,3,13,0,,,AMSA03.jpg,AMNE04.jpg,AMNE03.jpg,AMSA19.jpg,AMSA03.jpg,MS,2,num_8,32,num_4,0.416788093338,,,2017_Mar_21_1827,59.9913605009,FEMA4ImagesEEG,001,100035,
AFNE01.JPG,AFNE01.JPG,AFNE01.JPG,AFNE01.JPG,AFNE01.JPG,AFNE01.JPG,,,,,,,,,,,,,,,,,,,,,1,4,14,2,,,AMSA07.jpg,AMNE17.jpg,AMNE02.jpg,AMSA05.jpg,AMSA07.jpg,MS,2,num_8,32,num_6,0.483460255375,,,2017_Mar_21_1827,59.9913605009,FEMA4ImagesEEG,001,100035,
AFNE01.JPG,AFNE01.JPG,AFNE01.JPG,AFNE01.JPG,AFNE01.JPG,AFNE01.JPG,,,,,,,,,,,,,,,,,,,,,1,5,15,4,,,AMSA14.jpg,AMNE10.jpg,AMNE06.jpg,AMSA16.jpg,AMSA16.jpg,MS,2,num_4,32,num_2,0.966810497048,,,2017_Mar_21_1827,59.9913605009,FEMA4ImagesEEG,001,100035,
AFNE01.JPG,AFNE01.JPG,AFNE01.JPG,AFNE01.JPG,AFNE01.JPG,AFNE01.JPG,,,,,,,,,,,,,,,,,,,,,1,6,16,6,,,AMSA13.jpg,AMNE09.jpg,AMNE12.jpg,AMSA17.jpg,AMSA13.jpg,MS,2,num_8,16,num_8,2.18313499325,,,2017_Mar_21_1827,59.9913605009,FEMA4ImagesEEG,001,100035,
AFNE01.JPG,AFNE01.JPG,AFNE01.JPG,AFNE01.JPG,AFNE01.JPG,AFNE01.JPG,,,,,,,,,,,,,,,,,,,,,1,7,17,3,,,AMSA14.jpg,AMSA19.jpg,AMNE16.jpg,AMNE04.jpg,AMSA14.jpg,MS,2,num_8,16,num_8,0.816817858024,,,2017_Mar_21_1827,59.9913605009,FEMA4ImagesEEG,001,100035,
AFNE01.JPG,AFNE01.JPG,AFNE01.JPG,AFNE01.JPG,AFNE01.JPG,AFNE01.JPG,,,,,,,,,,,,,,,,,,,,,1,8,18,8,,,AMNE08.jpg,AMNE15.jpg,AMSA14.jpg,AMSA02.jpg,AMSA02.jpg,MS,2,num_4,16,num_4,0.53333880729,,,2017_Mar_21_1827,59.9913605009,FEMA4ImagesEEG,001,100035,
AFNE01.JPG,AFNE01.JPG,AFNE01.JPG,AFNE01.JPG,AFNE01.JPG,AFNE01.JPG,,,,,,,,,,,,,,,,,,,,,1,9,19,7,,,AMSA09.jpg,AMSA20.jpg,AMNE20.jpg,AMNE02.jpg,AMSA09.jpg,MS,2,num_8,32,num_6,1.04996771755,,,2017_Mar_21_1827,59.9913605009,FEMA4ImagesEEG,001,100035,
AFNE01.JPG,AFNE01.JPG,AFNE01.JPG,AFNE01.JPG,AFNE01.JPG,AFNE01.JPG,,,,,,,,,,,,,,,,,,,,,2,0,20,8,,,AMSA10.jpg,AMSA15.jpg,AMNE13.jpg,AMNE08.jpg,AMNE08.jpg,MN,1,num_4,32,num_6,1.06672925362,,,2017_Mar_21_1827,59.9913605009,FEMA4ImagesEEG,001,100035,
AFNE01.JPG,AFNE01.JPG,AFNE01.JPG,AFNE01.JPG,AFNE01.JPG,AFNE01.JPG,,,,,,,,,,,,,,,,,,,,,2,1,21,7,,,AMNE14.jpg,AMSA01.jpg,AMNE04.jpg,AMSA12.jpg,AMSA12.jpg,MS,2,num_4,32,num_8,0.650112114556,,,2017_Mar_21_1827,59.9913605009,FEMA4ImagesEEG,001,100035,
AFNE01.JPG,AFNE01.JPG,AFNE01.JPG,AFNE01.JPG,AFNE01.JPG,AFNE01.JPG,,,,,,,,,,,,,,,,,,,,,2,2,22,2,,,AMSA02.jpg,AMNE12.jpg,AMSA19.jpg,AMNE13.jpg,AMNE13.jpg,MN,1,num_4,16,num_4,0.666785126552,,,2017_Mar_21_1827,59.9913605009,FEMA4ImagesEEG,001,100035,
AFNE01.JPG,AFNE01.JPG,AFNE01.JPG,AFNE01.JPG,AFNE01.JPG,AFNE01.JPG,,,,,,,,,,,,,,,,,,,,,2,3,23,0,,,AMNE02.jpg,AMNE10.jpg,AMSA10.jpg,AMSA18.jpg,AMNE02.jpg,MN,1,num_8,16,num_8,0.966733198788,,,2017_Mar_21_1827,59.9913605009,FEMA4ImagesEEG,001,100035,
AFNE01.JPG,AFNE01.JPG,AFNE01.JPG,AFNE01.JPG,AFNE01.JPG,AFNE01.JPG,,,,,,,,,,,,,,,,,,,,,2,4,24,9,,,AMNE16.jpg,AMSA06.jpg,AMNE10.jpg,AMSA10.jpg,AMSA10.jpg,MS,2,num_4,32,num_8,0.983560486522,,,2017_Mar_21_1827,59.9913605009,FEMA4ImagesEEG,001,100035,
AFNE01.JPG,AFNE01.JPG,AFNE01.JPG,AFNE01.JPG,AFNE01.JPG,AFNE01.JPG,,,,,,,,,,,,,,,,,,,,,2,5,25,5,,,AMSA15.jpg,AMSA06.jpg,AMNE18.jpg,AMNE16.jpg,AMSA15.jpg,MS,2,num_8,32,num_6,0.683468402131,,,2017_Mar_21_1827,59.9913605009,FEMA4ImagesEEG,001,100035,
AFNE01.JPG,AFNE01.JPG,AFNE01.JPG,AFNE01.JPG,AFNE01.JPG,AFNE01.JPG,,,,,,,,,,,,,,,,,,,,,2,6,26,1,,,AMNE09.jpg,AMSA13.jpg,AMNE08.jpg,AMSA09.jpg,AMNE08.jpg,MN,1,num_2,32,num_4,0.750150507083,,,2017_Mar_21_1827,59.9913605009,FEMA4ImagesEEG,001,100035,
AFNE01.JPG,AFNE01.JPG,AFNE01.JPG,AFNE01.JPG,AFNE01.JPG,AFNE01.JPG,,,,,,,,,,,,,,,,,,,,,2,7,27,4,,,AMSA09.jpg,AMNE12.jpg,AMNE20.jpg,AMSA12.jpg,AMNE12.jpg,MN,1,num_6,16,num_6,0.450168436451,,,2017_Mar_21_1827,59.9913605009,FEMA4ImagesEEG,001,100035,
AFNE01.JPG,AFNE01.JPG,AFNE01.JPG,AFNE01.JPG,AFNE01.JPG,AFNE01.JPG,,,,,,,,,,,,,,,,,,,,,2,8,28,6,,,AMSA17.jpg,AMSA11.jpg,AMNE03.jpg,AMNE11.jpg,AMSA11.jpg,MS,2,num_6,16,num_6,0.800117262464,,,2017_Mar_21_1827,59.9913605009,FEMA4ImagesEEG,001,100035,
AFNE01.JPG,AFNE01.JPG,AFNE01.JPG,AFNE01.JPG,AFNE01.JPG,AFNE01.JPG,,,,,,,,,,,,,,,,,,,,,2,9,29,3,,,AMSA03.jpg,AMSA06.jpg,AMNE14.jpg,AMNE03.jpg,AMSA06.jpg,MS,2,num_6,32,num_4,0.466869673517,,,2017_Mar_21_1827,59.9913605009,FEMA4ImagesEEG,001,100035,
AFNE01.JPG,AFNE01.JPG,AFNE01.JPG,AFNE01.JPG,AFNE01.JPG,AFNE01.JPG,,,,,,,,,,,,,,,,,,,,,3,0,30,0,,,AMNE19.jpg,AMSA07.jpg,AMSA14.jpg,AMNE14.jpg,AMNE19.jpg,MN,1,num_8,16,num_8,1.1500731447,,,2017_Mar_21_1827,59.9913605009,FEMA4ImagesEEG,001,100035,
AFNE01.JPG,AFNE01.JPG,AFNE01.JPG,AFNE01.JPG,AFNE01.JPG,AFNE01.JPG,,,,,,,,,,,,,,,,,,,,,3,1,31,6,,,AMSA08.jpg,AMNE09.jpg,AMSA14.jpg,AMNE01.jpg,AMSA08.jpg,MS,2,num_8,16,num_8,1.15009078535,,,2017_Mar_21_1827,59.9913605009,FEMA4ImagesEEG,001,100035,
AFNE01.JPG,AFNE01.JPG,AFNE01.JPG,AFNE01.JPG,AFNE01.JPG,AFNE01.JPG,,,,,,,,,,,,,,,,,,,,,3,2,32,9,,,AMNE03.jpg,AMNE19.jpg,AMSA20.jpg,AMSA14.jpg,AMSA14.jpg,MS,2,num_4,16,num_4,1.13344760222,,,2017_Mar_21_1827,59.9913605009,FEMA4ImagesEEG,001,100035,
AFNE01.JPG,AFNE01.JPG,AFNE01.JPG,AFNE01.JPG,AFNE01.JPG,AFNE01.JPG,,,,,,,,,,,,,,,,,,,,,3,3,33,1,,,AMNE12.jpg,AMSA19.jpg,AMSA16.jpg,AMNE15.jpg,AMNE15.jpg,MN,1,num_4,16,num_4,0.85009460221,,,2017_Mar_21_1827,59.9913605009,FEMA4ImagesEEG,001,100035,
AFNE01.JPG,AFNE01.JPG,AFNE01.JPG,AFNE01.JPG,AFNE01.JPG,AFNE01.JPG,,,,,,,,,,,,,,,,,,,,,3,4,34,7,,,AMNE04.jpg,AMSA05.jpg,AMSA13.jpg,AMNE03.jpg,AMNE04.jpg,MN,1,num_8,16,num_8,0.400181153789,,,2017_Mar_21_1827,59.9913605009,FEMA4ImagesEEG,001,100035,
AFNE01.JPG,AFNE01.JPG,AFNE01.JPG,AFNE01.JPG,AFNE01.JPG,AFNE01.JPG,,,,,,,,,,,,,,,,,,,,,3,5,35,3,,,AMSA03.jpg,AMNE14.jpg,AMNE07.jpg,AMSA20.jpg,AMNE07.jpg,MN,1,num_2,16,num_2,1.15015493333,,,2017_Mar_21_1827,59.9913605009,FEMA4ImagesEEG,001,100035,
AFNE01.JPG,AFNE01.JPG,AFNE01.JPG,AFNE01.JPG,AFNE01.JPG,AFNE01.JPG,,,,,,,,,,,,,,,,,,,,,3,6,36,2,,,AMSA06.jpg,AMNE04.jpg,AMNE13.jpg,AMSA04.jpg,AMNE13.jpg,MN,1,num_2,32,num_8,1.16669547983,,,2017_Mar_21_1827,59.9913605009,FEMA4ImagesEEG,001,100035,
AFNE01.JPG,AFNE01.JPG,AFNE01.JPG,AFNE01.JPG,AFNE01.JPG,AFNE01.JPG,,,,,,,,,,,,,,,,,,,,,3,7,37,8,,,AMSA18.jpg,AMNE04.jpg,AMSA09.jpg,AMNE09.jpg,AMSA18.jpg,MS,2,num_8,32,num_4,0.866636110877,,,2017_Mar_21_1827,59.9913605009,FEMA4ImagesEEG,001,100035,
AFNE01.JPG,AFNE01.JPG,AFNE01.JPG,AFNE01.JPG,AFNE01.JPG,AFNE01.JPG,,,,,,,,,,,,,,,,,,,,,3,8,38,5,,,AMNE19.jpg,AMSA16.jpg,AMSA20.jpg,AMNE04.jpg,AMNE19.jpg,MN,1,num_8,16,num_8,1.41671785136,,,2017_Mar_21_1827,59.9913605009,FEMA4ImagesEEG,001,100035,
