IPosition2,IPosition3,IPosition1,IPosition6,IPosition4,IPosition5,TrialsM1.thisRepN,TrialsM1.thisTrialN,TrialsM1.thisN,TrialsM1.thisIndex,TrialsF1.thisRepN,TrialsF1.thisTrialN,TrialsF1.thisN,TrialsF1.thisIndex,TrialsM2.thisRepN,TrialsM2.thisTrialN,TrialsM2.thisN,TrialsM2.thisIndex,TrialsF2.thisRepN,TrialsF2.thisTrialN,TrialsF2.thisN,TrialsF2.thisIndex,TrialsM3.thisRepN,TrialsM3.thisTrialN,TrialsM3.thisN,TrialsM3.thisIndex,TrialsF3.thisRepN,TrialsF3.thisTrialN,TrialsF3.thisN,TrialsF3.thisIndex,InstrKey_resp.keys,InstrKey_resp.rt,Image0 _Position,Image1 _Position,Image2 _Position,Image3 _Position,Center_image,condition,code,correct_answer,accuracy,Key_Resp.keys,Key_Resp.rt,BreakKey_resp.keys,BreakKey_resp.rt,date,frameRate,expName,session,participant,
,,,,,,,,,,,,,,,,,,,,,,,,,,,,,,space,14.8327728936,,,,,,,,,,,,,,2017_Mar_15_1218,60.0751085777,MAFE4ImagesEEG,001,100028,
AMSA21.JPG,AMNE23.JPG,AMNE21.JPG,AMSA25.JPG,AMNE25.JPG,AMSA23.JPG,0,0,0,5,,,,,,,,,,,,,,,,,,,,,,,AMSA02.jpg,AMNE17.jpg,AMNE04.jpg,AMSA10.jpg,AMSA10.jpg,MS,2,num_4,16,num_4,0.917085499677,,,2017_Mar_15_1218,60.0751085777,MAFE4ImagesEEG,001,100028,
AFSA21.JPG,AFNE23.JPG,AFNE21.JPG,AFSA25.JPG,AFNE25.JPG,AFSA23.JPG,0,1,1,4,,,,,,,,,,,,,,,,,,,,,,,AMNE14.jpg,AMSA09.jpg,AMNE19.jpg,AMSA12.jpg,AMSA09.jpg,MS,2,num_6,16,num_6,0.733432655805,,,2017_Mar_15_1218,60.0751085777,MAFE4ImagesEEG,001,100028,
AMNE23.JPG,AMNE24.JPG,AMNE22.JPG,AMSA24.JPG,AMSA22.JPG,AMSA23.JPG,0,2,2,9,,,,,,,,,,,,,,,,,,,,,,,AMSA06.jpg,AMNE14.jpg,AMSA01.jpg,AMNE19.jpg,AMNE14.jpg,MN,1,num_6,32,num_8,0.90011161752,,,2017_Mar_15_1218,60.0751085777,MAFE4ImagesEEG,001,100028,
AFSA25.JPG,AFNE24.JPG,AFSA24.JPG,AFNE21.JPG,AFSA21.JPG,AFNE25.JPG,0,3,3,2,,,,,,,,,,,,,,,,,,,,,,,AMNE09.jpg,AMNE20.jpg,AMSA17.jpg,AMSA16.jpg,AMSA16.jpg,MS,2,num_4,32,num_2,2.13341116626,,,2017_Mar_15_1218,60.0751085777,MAFE4ImagesEEG,001,100028,
AMSA21.JPG,AMNE22.JPG,AMNE21.JPG,AMSA23.JPG,AMSA22.JPG,AMNE23.JPG,0,4,4,1,,,,,,,,,,,,,,,,,,,,,,,AMNE02.jpg,AMSA02.jpg,AMNE09.jpg,AMSA16.jpg,AMNE02.jpg,MN,1,num_8,32,num_6,0.916768929281,,,2017_Mar_15_1218,60.0751085777,MAFE4ImagesEEG,001,100028,
AFNE22.JPG,AFSA24.JPG,AFSA22.JPG,AFNE25.JPG,AFNE24.JPG,AFSA25.JPG,0,5,5,6,,,,,,,,,,,,,,,,,,,,,,,AMNE03.jpg,AMNE07.jpg,AMSA16.jpg,AMSA19.jpg,AMSA16.jpg,MS,2,num_2,16,num_2,1.00010776863,,,2017_Mar_15_1218,60.0751085777,MAFE4ImagesEEG,001,100028,
AMSA25.JPG,AMNE24.JPG,AMSA24.JPG,AMNE26.JPG,AMSA21.JPG,AMNE25.JPG,0,6,6,3,,,,,,,,,,,,,,,,,,,,,,,AMSA09.jpg,AMSA07.jpg,AMNE05.jpg,AMNE04.jpg,AMNE04.jpg,MN,1,num_4,16,num_4,0.949700589175,,,2017_Mar_15_1218,60.0751085777,MAFE4ImagesEEG,001,100028,
AFNE23.JPG,AFNE24.JPG,AFNE22.JPG,AFSA24.JPG,AFSA22.JPG,AFSA23.JPG,0,7,7,8,,,,,,,,,,,,,,,,,,,,,,,AMNE19.jpg,AMSA17.jpg,AMSA11.jpg,AMNE15.jpg,AMSA17.jpg,MS,2,num_6,16,num_6,0.850110494939,,,2017_Mar_15_1218,60.0751085777,MAFE4ImagesEEG,001,100028,
AFSA21.JPG,AFNE22.JPG,AFNE21.JPG,AFSA23.JPG,AFSA22.JPG,AFNE23.JPG,0,8,8,0,,,,,,,,,,,,,,,,,,,,,,,AMNE15.jpg,AMSA13.jpg,AMSA01.jpg,AMNE12.jpg,AMSA13.jpg,MS,2,num_6,32,num_4,1.03343554249,,,2017_Mar_15_1218,60.0751085777,MAFE4ImagesEEG,001,100028,
AMNE22.JPG,AMSA24.JPG,AMSA22.JPG,AMNE25.JPG,AMNE24.JPG,AMSA25.JPG,0,9,9,7,,,,,,,,,,,,,,,,,,,,,,,AMSA12.jpg,AMNE13.jpg,AMNE15.jpg,AMSA16.jpg,AMNE15.jpg,MN,1,num_2,32,num_6,0.833539462241,,,2017_Mar_15_1218,60.0751085777,MAFE4ImagesEEG,001,100028,
AFNE22.JPG,AFSA24.JPG,AFSA22.JPG,AFNE25.JPG,AFNE24.JPG,AFSA25.JPG,,,,,0,0,0,6,,,,,,,,,,,,,,,,,,,AFNE05.jpg,AFSA06.jpg,AFNE18.jpg,AFSA19.jpg,AFSA06.jpg,FS,4,num_6,16,num_6,1.10010071233,,,2017_Mar_15_1218,60.0751085777,MAFE4ImagesEEG,001,100028,
AMNE23.JPG,AMNE24.JPG,AMNE22.JPG,AMSA24.JPG,AMSA22.JPG,AMSA23.JPG,,,,,0,1,1,9,,,,,,,,,,,,,,,,,,,AFNE16.jpg,AFSA14.jpg,AFSA09.jpg,AFNE07.jpg,AFSA14.jpg,FS,4,num_6,32,num_2,1.26663822774,,,2017_Mar_15_1218,60.0751085777,MAFE4ImagesEEG,001,100028,
AMNE22.JPG,AMSA24.JPG,AMSA22.JPG,AMNE25.JPG,AMNE24.JPG,AMSA25.JPG,,,,,0,2,2,7,,,,,,,,,,,,,,,,,,,AFNE15.jpg,AFSA20.jpg,AFNE05.jpg,AFSA16.jpg,AFNE15.jpg,FN,3,num_8,16,num_8,1.00012091896,,,2017_Mar_15_1218,60.0751085777,MAFE4ImagesEEG,001,100028,
AMSA21.JPG,AMNE22.JPG,AMNE21.JPG,AMSA23.JPG,AMSA22.JPG,AMNE23.JPG,,,,,0,3,3,1,,,,,,,,,,,,,,,,,,,AFNE12.jpg,AFNE08.jpg,AFSA15.jpg,AFSA14.jpg,AFSA14.jpg,FS,4,num_4,32,num_2,1.01678111742,,,2017_Mar_15_1218,60.0751085777,MAFE4ImagesEEG,001,100028,
AFSA21.JPG,AFNE22.JPG,AFNE21.JPG,AFSA23.JPG,AFSA22.JPG,AFNE23.JPG,,,,,0,4,4,0,,,,,,,,,,,,,,,,,,,AFSA19.jpg,AFSA13.jpg,AFNE05.jpg,AFNE19.jpg,AFSA13.jpg,FS,4,num_6,16,num_6,1.7666674151,,,2017_Mar_15_1218,60.0751085777,MAFE4ImagesEEG,001,100028,
AFSA25.JPG,AFNE24.JPG,AFSA24.JPG,AFNE21.JPG,AFSA21.JPG,AFNE25.JPG,,,,,0,5,5,2,,,,,,,,,,,,,,,,,,,AFNE11.jpg,AFNE13.jpg,AFSA06.jpg,AFSA08.jpg,AFSA08.jpg,FS,4,num_4,16,num_4,0.83346184314,,,2017_Mar_15_1218,60.0751085777,MAFE4ImagesEEG,001,100028,
AFSA21.JPG,AFNE23.JPG,AFNE21.JPG,AFSA25.JPG,AFNE25.JPG,AFSA23.JPG,,,,,0,6,6,4,,,,,,,,,,,,,,,,,,,AFNE16.jpg,AFSA14.jpg,AFSA09.jpg,AFNE15.jpg,AFSA09.jpg,FS,4,num_2,32,num_6,0.550180095539,,,2017_Mar_15_1218,60.0751085777,MAFE4ImagesEEG,001,100028,
AMSA25.JPG,AMNE24.JPG,AMSA24.JPG,AMNE26.JPG,AMSA21.JPG,AMNE25.JPG,,,,,0,7,7,3,,,,,,,,,,,,,,,,,,,AFNE13.jpg,AFSA20.jpg,AFSA11.jpg,AFNE16.jpg,AFNE13.jpg,FN,3,num_8,16,num_8,0.966456368158,,,2017_Mar_15_1218,60.0751085777,MAFE4ImagesEEG,001,100028,
AFNE23.JPG,AFNE24.JPG,AFNE22.JPG,AFSA24.JPG,AFSA22.JPG,AFSA23.JPG,,,,,0,8,8,8,,,,,,,,,,,,,,,,,,,AFNE06.jpg,AFNE14.jpg,AFSA02.jpg,AFSA03.jpg,AFSA02.jpg,FS,4,num_2,16,num_2,0.816773098893,,,2017_Mar_15_1218,60.0751085777,MAFE4ImagesEEG,001,100028,
AMSA21.JPG,AMNE23.JPG,AMNE21.JPG,AMSA25.JPG,AMNE25.JPG,AMSA23.JPG,,,,,0,9,9,5,,,,,,,,,,,,,,,,,,,AFSA08.jpg,AFNE05.jpg,AFSA03.jpg,AFNE03.jpg,AFNE05.jpg,FN,3,num_6,16,num_6,0.850112419401,,,2017_Mar_15_1218,60.0751085777,MAFE4ImagesEEG,001,100028,
AFSA21.JPG,AFNE22.JPG,AFNE21.JPG,AFSA23.JPG,AFSA22.JPG,AFNE23.JPG,,,,,,,,,0,0,0,0,,,,,,,,,,,,,,,AMNE05.jpg,AMSA15.jpg,AMSA11.jpg,AMNE10.jpg,AMSA15.jpg,MS,2,num_6,16,num_6,0.666807257745,,,2017_Mar_15_1218,60.0751085777,MAFE4ImagesEEG,001,100028,
AMSA21.JPG,AMNE23.JPG,AMNE21.JPG,AMSA25.JPG,AMNE25.JPG,AMSA23.JPG,,,,,,,,,0,1,1,5,,,,,,,,,,,,,,,AMNE08.jpg,AMNE17.jpg,AMSA16.jpg,AMSA08.jpg,AMSA16.jpg,MS,2,num_2,16,num_2,1.18342062808,,,2017_Mar_15_1218,60.0751085777,MAFE4ImagesEEG,001,100028,
AFNE23.JPG,AFNE24.JPG,AFNE22.JPG,AFSA24.JPG,AFSA22.JPG,AFSA23.JPG,,,,,,,,,0,2,2,8,,,,,,,,,,,,,,,AMSA07.jpg,AMNE08.jpg,AMNE15.jpg,AMSA01.jpg,AMNE15.jpg,MN,1,num_2,32,num_6,1.00013374857,,,2017_Mar_15_1218,60.0751085777,MAFE4ImagesEEG,001,100028,
AFNE22.JPG,AFSA24.JPG,AFSA22.JPG,AFNE25.JPG,AFNE24.JPG,AFSA25.JPG,,,,,,,,,0,3,3,6,,,,,,,,,,,,,,,AMSA14.jpg,AMSA04.jpg,AMNE16.jpg,AMNE12.jpg,AMNE16.jpg,MN,1,num_2,16,num_2,0.883419024351,,,2017_Mar_15_1218,60.0751085777,MAFE4ImagesEEG,001,100028,
AFSA21.JPG,AFNE23.JPG,AFNE21.JPG,AFSA25.JPG,AFNE25.JPG,AFSA23.JPG,,,,,,,,,0,4,4,4,,,,,,,,,,,,,,,AMNE02.jpg,AMNE01.jpg,AMSA02.jpg,AMSA09.jpg,AMNE01.jpg,MN,1,num_6,16,num_6,0.483493756794,,,2017_Mar_15_1218,60.0751085777,MAFE4ImagesEEG,001,100028,
AFSA25.JPG,AFNE24.JPG,AFSA24.JPG,AFNE21.JPG,AFSA21.JPG,AFNE25.JPG,,,,,,,,,0,5,5,2,,,,,,,,,,,,,,,AMNE01.jpg,AMNE10.jpg,AMSA09.jpg,AMSA15.jpg,AMNE10.jpg,MN,1,num_6,16,num_6,1.43334381084,,,2017_Mar_15_1218,60.0751085777,MAFE4ImagesEEG,001,100028,
AMNE22.JPG,AMSA24.JPG,AMSA22.JPG,AMNE25.JPG,AMNE24.JPG,AMSA25.JPG,,,,,,,,,0,6,6,7,,,,,,,,,,,,,,,AMNE02.jpg,AMSA17.jpg,AMSA06.jpg,AMNE18.jpg,AMSA17.jpg,MS,2,num_6,32,num_2,2.18331702903,,,2017_Mar_15_1218,60.0751085777,MAFE4ImagesEEG,001,100028,
AMSA25.JPG,AMNE24.JPG,AMSA24.JPG,AMNE26.JPG,AMSA21.JPG,AMNE25.JPG,,,,,,,,,0,7,7,3,,,,,,,,,,,,,,,AMSA07.jpg,AMNE10.jpg,AMSA09.jpg,AMNE15.jpg,AMSA09.jpg,MS,2,num_2,32,num_4,0.700131503399,,,2017_Mar_15_1218,60.0751085777,MAFE4ImagesEEG,001,100028,
AMSA21.JPG,AMNE22.JPG,AMNE21.JPG,AMSA23.JPG,AMSA22.JPG,AMNE23.JPG,,,,,,,,,0,8,8,1,,,,,,,,,,,,,,,AMSA19.jpg,AMNE18.jpg,AMSA17.jpg,AMNE08.jpg,AMNE08.jpg,MN,1,num_4,32,num_6,0.86648363102,,,2017_Mar_15_1218,60.0751085777,MAFE4ImagesEEG,001,100028,
AMNE23.JPG,AMNE24.JPG,AMNE22.JPG,AMSA24.JPG,AMSA22.JPG,AMSA23.JPG,,,,,,,,,0,9,9,9,,,,,,,,,,,,,,,AMSA19.jpg,AMNE18.jpg,AMSA06.jpg,AMNE08.jpg,AMNE08.jpg,MN,1,num_4,16,num_4,0.466780636285,,,2017_Mar_15_1218,60.0751085777,MAFE4ImagesEEG,001,100028,
AMNE23.JPG,AMNE24.JPG,AMNE22.JPG,AMSA24.JPG,AMSA22.JPG,AMSA23.JPG,,,,,,,,,,,,,0,0,0,9,,,,,,,,,,,AFSA12.jpg,AFNE16.jpg,AFNE11.jpg,AFSA20.jpg,AFSA12.jpg,FS,4,num_8,16,num_8,1.11679266405,,,2017_Mar_15_1218,60.0751085777,MAFE4ImagesEEG,001,100028,
AFSA25.JPG,AFNE24.JPG,AFSA24.JPG,AFNE21.JPG,AFSA21.JPG,AFNE25.JPG,,,,,,,,,,,,,0,1,1,2,,,,,,,,,,,AFSA01.jpg,AFNE13.jpg,AFSA14.jpg,AFNE06.jpg,AFNE13.jpg,FN,3,num_6,16,num_6,1.0503282774,,,2017_Mar_15_1218,60.0751085777,MAFE4ImagesEEG,001,100028,
AMSA25.JPG,AMNE24.JPG,AMSA24.JPG,AMNE26.JPG,AMSA21.JPG,AMNE25.JPG,,,,,,,,,,,,,0,2,2,3,,,,,,,,,,,AFNE19.jpg,AFSA20.jpg,AFNE05.jpg,AFSA06.jpg,AFSA06.jpg,FS,4,num_4,32,num_8,0.900123484957,,,2017_Mar_15_1218,60.0751085777,MAFE4ImagesEEG,001,100028,
AMSA21.JPG,AMNE23.JPG,AMNE21.JPG,AMSA25.JPG,AMNE25.JPG,AMSA23.JPG,,,,,,,,,,,,,0,3,3,5,,,,,,,,,,,AFNE09.jpg,AFSA08.jpg,AFNE06.jpg,AFSA18.jpg,AFSA08.jpg,FS,4,num_6,16,num_6,0.916755137441,,,2017_Mar_15_1218,60.0751085777,MAFE4ImagesEEG,001,100028,
AFSA21.JPG,AFNE22.JPG,AFNE21.JPG,AFSA23.JPG,AFSA22.JPG,AFNE23.JPG,,,,,,,,,,,,,0,4,4,0,,,,,,,,,,,AFSA18.jpg,AFSA09.jpg,AFNE11.jpg,AFNE15.jpg,AFNE11.jpg,FN,3,num_2,32,num_4,0.900099429418,,,2017_Mar_15_1218,60.0751085777,MAFE4ImagesEEG,001,100028,
AFNE22.JPG,AFSA24.JPG,AFSA22.JPG,AFNE25.JPG,AFNE24.JPG,AFSA25.JPG,,,,,,,,,,,,,0,5,5,6,,,,,,,,,,,AFSA02.jpg,AFSA01.jpg,AFNE09.jpg,AFNE07.jpg,AFSA02.jpg,FS,4,num_8,16,num_8,0.85016662447,,,2017_Mar_15_1218,60.0751085777,MAFE4ImagesEEG,001,100028,
AMSA21.JPG,AMNE22.JPG,AMNE21.JPG,AMSA23.JPG,AMSA22.JPG,AMNE23.JPG,,,,,,,,,,,,,0,6,6,1,,,,,,,,,,,AFNE17.jpg,AFSA19.jpg,AFNE10.jpg,AFSA17.jpg,AFNE17.jpg,FN,3,num_8,32,num_6,0.700157483399,,,2017_Mar_15_1218,60.0751085777,MAFE4ImagesEEG,001,100028,
AFNE23.JPG,AFNE24.JPG,AFNE22.JPG,AFSA24.JPG,AFSA22.JPG,AFSA23.JPG,,,,,,,,,,,,,0,7,7,8,,,,,,,,,,,AFSA06.jpg,AFSA12.jpg,AFNE11.jpg,AFNE16.jpg,AFSA12.jpg,FS,4,num_6,32,num_8,1.11676957074,,,2017_Mar_15_1218,60.0751085777,MAFE4ImagesEEG,001,100028,
AFSA21.JPG,AFNE23.JPG,AFNE21.JPG,AFSA25.JPG,AFNE25.JPG,AFSA23.JPG,,,,,,,,,,,,,0,8,8,4,,,,,,,,,,,AFSA17.jpg,AFSA08.jpg,AFNE02.jpg,AFNE16.jpg,AFSA17.jpg,FS,4,num_8,32,num_6,1.06674439268,,,2017_Mar_15_1218,60.0751085777,MAFE4ImagesEEG,001,100028,
AMNE22.JPG,AMSA24.JPG,AMSA22.JPG,AMNE25.JPG,AMNE24.JPG,AMSA25.JPG,,,,,,,,,,,,,0,9,9,7,,,,,,,,,,,AFSA08.jpg,AFSA13.jpg,AFNE19.jpg,AFNE03.jpg,AFSA13.jpg,FS,4,num_6,32,num_8,0.566820087319,,,2017_Mar_15_1218,60.0751085777,MAFE4ImagesEEG,001,100028,
AFSA25.JPG,AFNE24.JPG,AFSA24.JPG,AFNE21.JPG,AFSA21.JPG,AFNE25.JPG,,,,,,,,,,,,,,,,,0,0,0,2,,,,,,,AMSA18.jpg,AMNE15.jpg,AMSA15.jpg,AMNE12.jpg,AMSA15.jpg,MS,2,num_2,16,num_2,0.566835482779,,,2017_Mar_15_1218,60.0751085777,MAFE4ImagesEEG,001,100028,
AFNE23.JPG,AFNE24.JPG,AFNE22.JPG,AFSA24.JPG,AFSA22.JPG,AFSA23.JPG,,,,,,,,,,,,,,,,,0,1,1,8,,,,,,,AMSA04.jpg,AMSA02.jpg,AMNE15.jpg,AMNE16.jpg,AMNE15.jpg,MN,1,num_2,32,num_4,0.683423835435,,,2017_Mar_15_1218,60.0751085777,MAFE4ImagesEEG,001,100028,
AMNE23.JPG,AMNE24.JPG,AMNE22.JPG,AMSA24.JPG,AMSA22.JPG,AMSA23.JPG,,,,,,,,,,,,,,,,,0,2,2,9,,,,,,,AMSA09.jpg,AMNE15.jpg,AMSA15.jpg,AMNE19.jpg,AMNE15.jpg,MN,1,num_6,16,num_6,0.75016020966,,,2017_Mar_15_1218,60.0751085777,MAFE4ImagesEEG,001,100028,
AMNE22.JPG,AMSA24.JPG,AMSA22.JPG,AMNE25.JPG,AMNE24.JPG,AMSA25.JPG,,,,,,,,,,,,,,,,,0,3,3,7,,,,,,,AMNE04.jpg,AMSA05.jpg,AMSA17.jpg,AMNE19.jpg,AMSA17.jpg,MS,2,num_2,32,num_8,0.683489587216,,,2017_Mar_15_1218,60.0751085777,MAFE4ImagesEEG,001,100028,
AFSA21.JPG,AFNE22.JPG,AFNE21.JPG,AFSA23.JPG,AFSA22.JPG,AFNE23.JPG,,,,,,,,,,,,,,,,,0,4,4,0,,,,,,,AMNE05.jpg,AMNE13.jpg,AMSA04.jpg,AMSA03.jpg,AMNE05.jpg,MN,1,num_8,32,num_6,0.91676796705,,,2017_Mar_15_1218,60.0751085777,MAFE4ImagesEEG,001,100028,
AFSA21.JPG,AFNE23.JPG,AFNE21.JPG,AFSA25.JPG,AFNE25.JPG,AFSA23.JPG,,,,,,,,,,,,,,,,,0,5,5,4,,,,,,,AMSA14.jpg,AMSA07.jpg,AMNE05.jpg,AMNE09.jpg,AMNE05.jpg,MN,1,num_2,16,num_2,0.71679651289,,,2017_Mar_15_1218,60.0751085777,MAFE4ImagesEEG,001,100028,
AMSA21.JPG,AMNE23.JPG,AMNE21.JPG,AMSA25.JPG,AMNE25.JPG,AMSA23.JPG,,,,,,,,,,,,,,,,,0,6,6,5,,,,,,,AMSA13.jpg,AMNE20.jpg,AMNE08.jpg,AMSA20.jpg,AMNE08.jpg,MN,1,num_2,32,num_8,0.816847189853,,,2017_Mar_15_1218,60.0751085777,MAFE4ImagesEEG,001,100028,
AMSA21.JPG,AMNE22.JPG,AMNE21.JPG,AMSA23.JPG,AMSA22.JPG,AMNE23.JPG,,,,,,,,,,,,,,,,,0,7,7,1,,,,,,,AMNE02.jpg,AMSA04.jpg,AMSA08.jpg,AMNE11.jpg,AMSA08.jpg,MS,2,num_2,32,num_6,1.1000936561,,,2017_Mar_15_1218,60.0751085777,MAFE4ImagesEEG,001,100028,
AMSA25.JPG,AMNE24.JPG,AMSA24.JPG,AMNE26.JPG,AMSA21.JPG,AMNE25.JPG,,,,,,,,,,,,,,,,,0,8,8,3,,,,,,,AMNE18.jpg,AMSA02.jpg,AMNE14.jpg,AMSA04.jpg,AMSA04.jpg,MS,2,num_4,16,num_4,0.750150908192,,,2017_Mar_15_1218,60.0751085777,MAFE4ImagesEEG,001,100028,
AFNE22.JPG,AFSA24.JPG,AFSA22.JPG,AFNE25.JPG,AFNE24.JPG,AFSA25.JPG,,,,,,,,,,,,,,,,,0,9,9,6,,,,,,,AMSA11.jpg,AMNE13.jpg,AMNE16.jpg,AMSA16.jpg,AMNE13.jpg,MN,1,num_6,32,num_8,0.750120758603,,,2017_Mar_15_1218,60.0751085777,MAFE4ImagesEEG,001,100028,
AFNE22.JPG,AFSA24.JPG,AFSA22.JPG,AFNE25.JPG,AFNE24.JPG,AFSA25.JPG,,,,,,,,,,,,,,,,,,,,,0,0,0,6,,,AFSA09.jpg,AFSA16.jpg,AFNE02.jpg,AFNE15.jpg,AFNE02.jpg,FN,3,num_2,32,num_6,1.08344692877,,,2017_Mar_15_1218,60.0751085777,MAFE4ImagesEEG,001,100028,
AFSA25.JPG,AFNE24.JPG,AFSA24.JPG,AFNE21.JPG,AFSA21.JPG,AFNE25.JPG,,,,,,,,,,,,,,,,,,,,,0,1,1,2,,,AFSA06.jpg,AFSA12.jpg,AFNE10.jpg,AFNE01.jpg,AFNE01.jpg,FN,3,num_4,32,num_8,1.34979649045,,,2017_Mar_15_1218,60.0751085777,MAFE4ImagesEEG,001,100028,
AMNE22.JPG,AMSA24.JPG,AMSA22.JPG,AMNE25.JPG,AMNE24.JPG,AMSA25.JPG,,,,,,,,,,,,,,,,,,,,,0,2,2,7,,,AFNE19.jpg,AFSA04.jpg,AFSA15.jpg,AFNE13.jpg,AFSA04.jpg,FS,4,num_6,32,num_4,0.850112098618,,,2017_Mar_15_1218,60.0751085777,MAFE4ImagesEEG,001,100028,
AFSA21.JPG,AFNE23.JPG,AFNE21.JPG,AFSA25.JPG,AFNE25.JPG,AFSA23.JPG,,,,,,,,,,,,,,,,,,,,,0,3,3,4,,,AFNE01.jpg,AFNE10.jpg,AFSA03.jpg,AFSA10.jpg,AFSA03.jpg,FS,4,num_2,32,num_8,0.68349664344,,,2017_Mar_15_1218,60.0751085777,MAFE4ImagesEEG,001,100028,
AMSA21.JPG,AMNE22.JPG,AMNE21.JPG,AMSA23.JPG,AMSA22.JPG,AMNE23.JPG,,,,,,,,,,,,,,,,,,,,,0,4,4,1,,,AFSA03.jpg,AFSA05.jpg,AFNE11.jpg,AFNE09.jpg,AFSA05.jpg,FS,4,num_6,16,num_6,0.600189557357,,,2017_Mar_15_1218,60.0751085777,MAFE4ImagesEEG,001,100028,
AMNE23.JPG,AMNE24.JPG,AMNE22.JPG,AMSA24.JPG,AMSA22.JPG,AMSA23.JPG,,,,,,,,,,,,,,,,,,,,,0,5,5,9,,,AFNE05.jpg,AFSA04.jpg,AFSA09.jpg,AFNE11.jpg,AFNE05.jpg,FN,3,num_8,16,num_8,1.13340122328,,,2017_Mar_15_1218,60.0751085777,MAFE4ImagesEEG,001,100028,
AMSA21.JPG,AMNE23.JPG,AMNE21.JPG,AMSA25.JPG,AMNE25.JPG,AMSA23.JPG,,,,,,,,,,,,,,,,,,,,,0,6,6,5,,,AFSA15.jpg,AFNE16.jpg,AFNE12.jpg,AFSA05.jpg,AFNE12.jpg,FN,3,num_2,32,num_8,0.900159728539,,,2017_Mar_15_1218,60.0751085777,MAFE4ImagesEEG,001,100028,
AMSA25.JPG,AMNE24.JPG,AMSA24.JPG,AMNE26.JPG,AMSA21.JPG,AMNE25.JPG,,,,,,,,,,,,,,,,,,,,,0,7,7,3,,,AFNE13.jpg,AFSA17.jpg,AFNE15.jpg,AFSA03.jpg,AFNE15.jpg,FN,3,num_2,32,num_6,1.36682746431,,,2017_Mar_15_1218,60.0751085777,MAFE4ImagesEEG,001,100028,
AFNE23.JPG,AFNE24.JPG,AFNE22.JPG,AFSA24.JPG,AFSA22.JPG,AFSA23.JPG,,,,,,,,,,,,,,,,,,,,,0,8,8,8,,,AFSA01.jpg,AFSA20.jpg,AFNE16.jpg,AFNE03.jpg,AFNE03.jpg,FN,3,num_4,16,num_4,0.766778070363,,,2017_Mar_15_1218,60.0751085777,MAFE4ImagesEEG,001,100028,
AFSA21.JPG,AFNE22.JPG,AFNE21.JPG,AFSA23.JPG,AFSA22.JPG,AFNE23.JPG,,,,,,,,,,,,,,,,,,,,,0,9,9,0,,,AFNE14.jpg,AFSA09.jpg,AFSA10.jpg,AFNE08.jpg,AFNE08.jpg,FN,3,num_4,32,num_8,2.66674022301,,,2017_Mar_15_1218,60.0751085777,MAFE4ImagesEEG,001,100028,
,,,,,,,,,,,,,,,,,,,,,,,,,,,,,,,,,,,,,,,,,,,space,12.7989345017,2017_Mar_15_1218,60.0751085777,MAFE4ImagesEEG,001,100028,
AFNE01.JPG,AFNE01.JPG,AFNE01.JPG,AFNE01.JPG,AFNE01.JPG,AFNE01.JPG,0,0,0,2,,,,,,,,,,,,,,,,,,,,,,,AMSA18.jpg,AMNE20.jpg,AMNE14.jpg,AMSA15.jpg,AMNE20.jpg,MN,1,num_6,32,num_8,1.13338679,,,2017_Mar_15_1218,60.0751085777,MAFE4ImagesEEG,001,100028,
AFNE01.JPG,AFNE01.JPG,AFNE01.JPG,AFNE01.JPG,AFNE01.JPG,AFNE01.JPG,0,1,1,1,,,,,,,,,,,,,,,,,,,,,,,AMNE02.jpg,AMSA07.jpg,AMNE10.jpg,AMSA09.jpg,AMSA09.jpg,MS,2,num_4,32,num_6,0.650057572813,,,2017_Mar_15_1218,60.0751085777,MAFE4ImagesEEG,001,100028,
AFNE01.JPG,AFNE01.JPG,AFNE01.JPG,AFNE01.JPG,AFNE01.JPG,AFNE01.JPG,0,2,2,4,,,,,,,,,,,,,,,,,,,,,,,AMSA05.jpg,AMSA06.jpg,AMNE20.jpg,AMNE19.jpg,AMNE19.jpg,MN,1,num_4,16,num_4,0.75055536133,,,2017_Mar_15_1218,60.0751085777,MAFE4ImagesEEG,001,100028,
AFNE01.JPG,AFNE01.JPG,AFNE01.JPG,AFNE01.JPG,AFNE01.JPG,AFNE01.JPG,0,3,3,5,,,,,,,,,,,,,,,,,,,,,,,AMSA14.jpg,AMNE16.jpg,AMNE18.jpg,AMSA12.jpg,AMSA12.jpg,MS,2,num_4,32,num_6,0.916725308634,,,2017_Mar_15_1218,60.0751085777,MAFE4ImagesEEG,001,100028,
AFNE01.JPG,AFNE01.JPG,AFNE01.JPG,AFNE01.JPG,AFNE01.JPG,AFNE01.JPG,0,4,4,7,,,,,,,,,,,,,,,,,,,,,,,AMNE11.jpg,AMSA05.jpg,AMNE18.jpg,AMSA08.jpg,AMSA08.jpg,MS,2,num_4,32,num_6,0.850147700752,,,2017_Mar_15_1218,60.0751085777,MAFE4ImagesEEG,001,100028,
AFNE01.JPG,AFNE01.JPG,AFNE01.JPG,AFNE01.JPG,AFNE01.JPG,AFNE01.JPG,0,5,5,6,,,,,,,,,,,,,,,,,,,,,,,AMNE09.jpg,AMSA19.jpg,AMNE16.jpg,AMSA18.jpg,AMNE16.jpg,MN,1,num_2,32,num_8,0.700144653732,,,2017_Mar_15_1218,60.0751085777,MAFE4ImagesEEG,001,100028,
AFNE01.JPG,AFNE01.JPG,AFNE01.JPG,AFNE01.JPG,AFNE01.JPG,AFNE01.JPG,0,6,6,0,,,,,,,,,,,,,,,,,,,,,,,AMNE01.jpg,AMNE03.jpg,AMSA06.jpg,AMSA08.jpg,AMSA08.jpg,MS,2,num_4,32,num_6,0.733518614143,,,2017_Mar_15_1218,60.0751085777,MAFE4ImagesEEG,001,100028,
AFNE01.JPG,AFNE01.JPG,AFNE01.JPG,AFNE01.JPG,AFNE01.JPG,AFNE01.JPG,0,7,7,3,,,,,,,,,,,,,,,,,,,,,,,AMNE15.jpg,AMSA13.jpg,AMSA02.jpg,AMNE02.jpg,AMNE15.jpg,MN,1,num_8,16,num_8,0.683309652028,,,2017_Mar_15_1218,60.0751085777,MAFE4ImagesEEG,001,100028,
AFNE01.JPG,AFNE01.JPG,AFNE01.JPG,AFNE01.JPG,AFNE01.JPG,AFNE01.JPG,0,8,8,8,,,,,,,,,,,,,,,,,,,,,,,AMSA18.jpg,AMNE07.jpg,AMSA16.jpg,AMNE20.jpg,AMSA18.jpg,MS,2,num_8,16,num_8,0.400165501807,,,2017_Mar_15_1218,60.0751085777,MAFE4ImagesEEG,001,100028,
AFNE01.JPG,AFNE01.JPG,AFNE01.JPG,AFNE01.JPG,AFNE01.JPG,AFNE01.JPG,0,9,9,9,,,,,,,,,,,,,,,,,,,,,,,AMSA05.jpg,AMNE05.jpg,AMNE04.jpg,AMSA15.jpg,AMSA05.jpg,MS,2,num_8,32,num_6,0.783449173963,,,2017_Mar_15_1218,60.0751085777,MAFE4ImagesEEG,001,100028,
AFNE01.JPG,AFNE01.JPG,AFNE01.JPG,AFNE01.JPG,AFNE01.JPG,AFNE01.JPG,1,0,10,8,,,,,,,,,,,,,,,,,,,,,,,AMSA11.jpg,AMSA13.jpg,AMNE02.jpg,AMNE04.jpg,AMNE02.jpg,MN,1,num_2,32,num_8,0.80008371314,,,2017_Mar_15_1218,60.0751085777,MAFE4ImagesEEG,001,100028,
AFNE01.JPG,AFNE01.JPG,AFNE01.JPG,AFNE01.JPG,AFNE01.JPG,AFNE01.JPG,1,1,11,5,,,,,,,,,,,,,,,,,,,,,,,AMSA13.jpg,AMNE13.jpg,AMSA18.jpg,AMNE17.jpg,AMSA13.jpg,MS,2,num_8,32,num_6,1.03346537129,,,2017_Mar_15_1218,60.0751085777,MAFE4ImagesEEG,001,100028,
AFNE01.JPG,AFNE01.JPG,AFNE01.JPG,AFNE01.JPG,AFNE01.JPG,AFNE01.JPG,1,2,12,7,,,,,,,,,,,,,,,,,,,,,,,AMNE01.jpg,AMNE04.jpg,AMSA06.jpg,AMSA14.jpg,AMSA06.jpg,MS,2,num_2,32,num_6,0.883420307306,,,2017_Mar_15_1218,60.0751085777,MAFE4ImagesEEG,001,100028,
AFNE01.JPG,AFNE01.JPG,AFNE01.JPG,AFNE01.JPG,AFNE01.JPG,AFNE01.JPG,1,3,13,3,,,,,,,,,,,,,,,,,,,,,,,AMNE20.jpg,AMSA05.jpg,AMSA13.jpg,AMNE10.jpg,AMNE20.jpg,MN,1,num_8,16,num_8,0.516793626244,,,2017_Mar_15_1218,60.0751085777,MAFE4ImagesEEG,001,100028,
AFNE01.JPG,AFNE01.JPG,AFNE01.JPG,AFNE01.JPG,AFNE01.JPG,AFNE01.JPG,1,4,14,9,,,,,,,,,,,,,,,,,,,,,,,AMNE08.jpg,AMSA08.jpg,AMSA01.jpg,AMNE15.jpg,AMSA08.jpg,MS,2,num_6,32,num_8,0.683489587216,,,2017_Mar_15_1218,60.0751085777,MAFE4ImagesEEG,001,100028,
AFNE01.JPG,AFNE01.JPG,AFNE01.JPG,AFNE01.JPG,AFNE01.JPG,AFNE01.JPG,1,5,15,1,,,,,,,,,,,,,,,,,,,,,,,AMNE13.jpg,AMSA05.jpg,AMSA17.jpg,AMNE01.jpg,AMSA05.jpg,MS,2,num_6,16,num_6,0.816775023355,,,2017_Mar_15_1218,60.0751085777,MAFE4ImagesEEG,001,100028,
AFNE01.JPG,AFNE01.JPG,AFNE01.JPG,AFNE01.JPG,AFNE01.JPG,AFNE01.JPG,1,6,16,4,,,,,,,,,,,,,,,,,,,,,,,AMSA08.jpg,AMNE13.jpg,AMSA09.jpg,AMNE04.jpg,AMNE13.jpg,MN,1,num_6,32,num_4,0.749819583725,,,2017_Mar_15_1218,60.0751085777,MAFE4ImagesEEG,001,100028,
AFNE01.JPG,AFNE01.JPG,AFNE01.JPG,AFNE01.JPG,AFNE01.JPG,AFNE01.JPG,1,7,17,0,,,,,,,,,,,,,,,,,,,,,,,AMNE03.jpg,AMNE09.jpg,AMSA19.jpg,AMSA09.jpg,AMSA19.jpg,MS,2,num_2,32,num_4,1.15013519191,,,2017_Mar_15_1218,60.0751085777,MAFE4ImagesEEG,001,100028,
AFNE01.JPG,AFNE01.JPG,AFNE01.JPG,AFNE01.JPG,AFNE01.JPG,AFNE01.JPG,1,8,18,6,,,,,,,,,,,,,,,,,,,,,,,AMSA12.jpg,AMSA05.jpg,AMNE02.jpg,AMNE03.jpg,AMSA12.jpg,MS,2,num_8,16,num_8,0.433493596443,,,2017_Mar_15_1218,60.0751085777,MAFE4ImagesEEG,001,100028,
AFNE01.JPG,AFNE01.JPG,AFNE01.JPG,AFNE01.JPG,AFNE01.JPG,AFNE01.JPG,1,9,19,2,,,,,,,,,,,,,,,,,,,,,,,AMSA07.jpg,AMNE13.jpg,AMSA17.jpg,AMNE01.jpg,AMSA07.jpg,MS,2,num_8,16,num_8,0.666754014848,,,2017_Mar_15_1218,60.0751085777,MAFE4ImagesEEG,001,100028,
AFNE01.JPG,AFNE01.JPG,AFNE01.JPG,AFNE01.JPG,AFNE01.JPG,AFNE01.JPG,2,0,20,5,,,,,,,,,,,,,,,,,,,,,,,AMNE16.jpg,AMSA17.jpg,AMSA08.jpg,AMNE17.jpg,AMNE17.jpg,MN,1,num_4,32,num_8,0.850139682298,,,2017_Mar_15_1218,60.0751085777,MAFE4ImagesEEG,001,100028,
AFNE01.JPG,AFNE01.JPG,AFNE01.JPG,AFNE01.JPG,AFNE01.JPG,AFNE01.JPG,2,1,21,9,,,,,,,,,,,,,,,,,,,,,,,AMNE09.jpg,AMNE18.jpg,AMSA04.jpg,AMSA03.jpg,AMNE18.jpg,MN,1,num_6,32,num_8,0.883293615014,,,2017_Mar_15_1218,60.0751085777,MAFE4ImagesEEG,001,100028,
AFNE01.JPG,AFNE01.JPG,AFNE01.JPG,AFNE01.JPG,AFNE01.JPG,AFNE01.JPG,2,2,22,1,,,,,,,,,,,,,,,,,,,,,,,AMNE07.jpg,AMSA12.jpg,AMNE05.jpg,AMSA15.jpg,AMSA12.jpg,MS,2,num_6,32,num_8,0.766515705036,,,2017_Mar_15_1218,60.0751085777,MAFE4ImagesEEG,001,100028,
AFNE01.JPG,AFNE01.JPG,AFNE01.JPG,AFNE01.JPG,AFNE01.JPG,AFNE01.JPG,2,3,23,4,,,,,,,,,,,,,,,,,,,,,,,AMSA06.jpg,AMNE01.jpg,AMSA08.jpg,AMNE10.jpg,AMSA08.jpg,MS,2,num_2,32,num_8,1.33352310449,,,2017_Mar_15_1218,60.0751085777,MAFE4ImagesEEG,001,100028,
AFNE01.JPG,AFNE01.JPG,AFNE01.JPG,AFNE01.JPG,AFNE01.JPG,AFNE01.JPG,2,4,24,2,,,,,,,,,,,,,,,,,,,,,,,AMSA12.jpg,AMNE07.jpg,AMNE18.jpg,AMSA07.jpg,AMSA07.jpg,MS,2,num_4,32,num_8,0.500132465619,,,2017_Mar_15_1218,60.0751085777,MAFE4ImagesEEG,001,100028,
AFNE01.JPG,AFNE01.JPG,AFNE01.JPG,AFNE01.JPG,AFNE01.JPG,AFNE01.JPG,2,5,25,0,,,,,,,,,,,,,,,,,,,,,,,AMSA14.jpg,AMNE19.jpg,AMSA16.jpg,AMNE20.jpg,AMSA16.jpg,MS,2,num_2,32,num_8,0.633565121447,,,2017_Mar_15_1218,60.0751085777,MAFE4ImagesEEG,001,100028,
AFNE01.JPG,AFNE01.JPG,AFNE01.JPG,AFNE01.JPG,AFNE01.JPG,AFNE01.JPG,2,6,26,7,,,,,,,,,,,,,,,,,,,,,,,AMSA04.jpg,AMNE08.jpg,AMNE09.jpg,AMSA07.jpg,AMNE08.jpg,MN,1,num_6,16,num_6,0.716832115082,,,2017_Mar_15_1218,60.0751085777,MAFE4ImagesEEG,001,100028,
AFNE01.JPG,AFNE01.JPG,AFNE01.JPG,AFNE01.JPG,AFNE01.JPG,AFNE01.JPG,2,7,27,6,,,,,,,,,,,,,,,,,,,,,,,AMNE17.jpg,AMSA19.jpg,AMSA16.jpg,AMNE10.jpg,AMSA19.jpg,MS,2,num_6,16,num_6,0.700016678486,,,2017_Mar_15_1218,60.0751085777,MAFE4ImagesEEG,001,100028,
AFNE01.JPG,AFNE01.JPG,AFNE01.JPG,AFNE01.JPG,AFNE01.JPG,AFNE01.JPG,2,8,28,8,,,,,,,,,,,,,,,,,,,,,,,AMNE01.jpg,AMSA10.jpg,AMSA15.jpg,AMNE20.jpg,AMNE20.jpg,MN,1,num_4,16,num_4,0.783480285667,,,2017_Mar_15_1218,60.0751085777,MAFE4ImagesEEG,001,100028,
AFNE01.JPG,AFNE01.JPG,AFNE01.JPG,AFNE01.JPG,AFNE01.JPG,AFNE01.JPG,2,9,29,3,,,,,,,,,,,,,,,,,,,,,,,AMNE16.jpg,AMSA03.jpg,AMNE12.jpg,AMSA09.jpg,AMSA03.jpg,MS,2,num_6,16,num_6,0.766684093571,,,2017_Mar_15_1218,60.0751085777,MAFE4ImagesEEG,001,100028,
AFNE01.JPG,AFNE01.JPG,AFNE01.JPG,AFNE01.JPG,AFNE01.JPG,AFNE01.JPG,3,0,30,1,,,,,,,,,,,,,,,,,,,,,,,AMNE08.jpg,AMSA11.jpg,AMSA10.jpg,AMNE01.jpg,AMNE01.jpg,MN,1,num_4,32,num_8,1.03339609143,,,2017_Mar_15_1218,60.0751085777,MAFE4ImagesEEG,001,100028,
AFNE01.JPG,AFNE01.JPG,AFNE01.JPG,AFNE01.JPG,AFNE01.JPG,AFNE01.JPG,3,1,31,9,,,,,,,,,,,,,,,,,,,,,,,AMNE14.jpg,AMSA04.jpg,AMSA01.jpg,AMNE07.jpg,AMSA04.jpg,MS,2,num_6,16,num_6,0.833465692063,,,2017_Mar_15_1218,60.0751085777,MAFE4ImagesEEG,001,100028,
AFNE01.JPG,AFNE01.JPG,AFNE01.JPG,AFNE01.JPG,AFNE01.JPG,AFNE01.JPG,3,2,32,3,,,,,,,,,,,,,,,,,,,,,,,AMSA10.jpg,AMNE01.jpg,AMNE13.jpg,AMSA14.jpg,AMNE01.jpg,MN,1,num_6,32,num_8,1.16692144115,,,2017_Mar_15_1218,60.0751085777,MAFE4ImagesEEG,001,100028,
AFNE01.JPG,AFNE01.JPG,AFNE01.JPG,AFNE01.JPG,AFNE01.JPG,AFNE01.JPG,3,3,33,2,,,,,,,,,,,,,,,,,,,,,,,AMSA01.jpg,AMSA09.jpg,AMNE16.jpg,AMNE13.jpg,AMSA01.jpg,MS,2,num_8,16,num_8,0.466888725699,,,2017_Mar_15_1218,60.0751085777,MAFE4ImagesEEG,001,100028,
AFNE01.JPG,AFNE01.JPG,AFNE01.JPG,AFNE01.JPG,AFNE01.JPG,AFNE01.JPG,3,4,34,8,,,,,,,,,,,,,,,,,,,,,,,AMNE20.jpg,AMSA02.jpg,AMSA06.jpg,AMNE13.jpg,AMNE20.jpg,MN,1,num_8,16,num_8,1.1000882035,,,2017_Mar_15_1218,60.0751085777,MAFE4ImagesEEG,001,100028,
AFNE01.JPG,AFNE01.JPG,AFNE01.JPG,AFNE01.JPG,AFNE01.JPG,AFNE01.JPG,3,5,35,5,,,,,,,,,,,,,,,,,,,,,,,AMSA03.jpg,AMSA04.jpg,AMNE01.jpg,AMNE17.jpg,AMSA03.jpg,MS,2,num_8,32,num_6,0.683432816237,,,2017_Mar_15_1218,60.0751085777,MAFE4ImagesEEG,001,100028,
AFNE01.JPG,AFNE01.JPG,AFNE01.JPG,AFNE01.JPG,AFNE01.JPG,AFNE01.JPG,3,6,36,7,,,,,,,,,,,,,,,,,,,,,,,AMSA06.jpg,AMSA01.jpg,AMNE17.jpg,AMNE11.jpg,AMNE17.jpg,MN,1,num_2,32,num_8,0.600136635243,,,2017_Mar_15_1218,60.0751085777,MAFE4ImagesEEG,001,100028,
AFNE01.JPG,AFNE01.JPG,AFNE01.JPG,AFNE01.JPG,AFNE01.JPG,AFNE01.JPG,3,7,37,0,,,,,,,,,,,,,,,,,,,,,,,AMSA20.jpg,AMNE17.jpg,AMNE20.jpg,AMSA17.jpg,AMSA20.jpg,MS,2,num_8,32,num_4,1.43338229961,,,2017_Mar_15_1218,60.0751085777,MAFE4ImagesEEG,001,100028,
AFNE01.JPG,AFNE01.JPG,AFNE01.JPG,AFNE01.JPG,AFNE01.JPG,AFNE01.JPG,3,8,38,6,,,,,,,,,,,,,,,,,,,,,,,AMNE15.jpg,AMNE13.jpg,AMSA20.jpg,AMSA06.jpg,AMSA20.jpg,MS,2,num_2,16,num_2,0.933332264191,,,2017_Mar_15_1218,60.0751085777,MAFE4ImagesEEG,001,100028,
AFNE01.JPG,AFNE01.JPG,AFNE01.JPG,AFNE01.JPG,AFNE01.JPG,AFNE01.JPG,3,9,39,4,,,,,,,,,,,,,,,,,,,,,,,AMNE14.jpg,AMSA17.jpg,AMSA20.jpg,AMNE01.jpg,AMNE01.jpg,MN,1,num_4,16,num_4,0.850107929029,,,2017_Mar_15_1218,60.0751085777,MAFE4ImagesEEG,001,100028,
AFNE01.JPG,AFNE01.JPG,AFNE01.JPG,AFNE01.JPG,AFNE01.JPG,AFNE01.JPG,4,0,40,3,,,,,,,,,,,,,,,,,,,,,,,AMSA10.jpg,AMSA15.jpg,AMNE12.jpg,AMNE09.jpg,AMNE09.jpg,MN,1,num_4,16,num_4,0.750161813339,,,2017_Mar_15_1218,60.0751085777,MAFE4ImagesEEG,001,100028,
AFNE01.JPG,AFNE01.JPG,AFNE01.JPG,AFNE01.JPG,AFNE01.JPG,AFNE01.JPG,4,1,41,8,,,,,,,,,,,,,,,,,,,,,,,AMSA10.jpg,AMNE02.jpg,AMNE12.jpg,AMSA12.jpg,AMNE12.jpg,MN,1,num_2,32,num_8,1.4667437512,,,2017_Mar_15_1218,60.0751085777,MAFE4ImagesEEG,001,100028,
AFNE01.JPG,AFNE01.JPG,AFNE01.JPG,AFNE01.JPG,AFNE01.JPG,AFNE01.JPG,4,2,42,0,,,,,,,,,,,,,,,,,,,,,,,AMNE10.jpg,AMSA19.jpg,AMSA17.jpg,AMNE08.jpg,AMSA19.jpg,MS,2,num_6,16,num_6,0.700127013086,,,2017_Mar_15_1218,60.0751085777,MAFE4ImagesEEG,001,100028,
AFNE01.JPG,AFNE01.JPG,AFNE01.JPG,AFNE01.JPG,AFNE01.JPG,AFNE01.JPG,4,3,43,9,,,,,,,,,,,,,,,,,,,,,,,AMSA15.jpg,AMSA08.jpg,AMNE14.jpg,AMNE04.jpg,AMNE04.jpg,MN,1,num_4,32,num_6,0.83343522175,,,2017_Mar_15_1218,60.0751085777,MAFE4ImagesEEG,001,100028,
AFNE01.JPG,AFNE01.JPG,AFNE01.JPG,AFNE01.JPG,AFNE01.JPG,AFNE01.JPG,4,4,44,5,,,,,,,,,,,,,,,,,,,,,,,AMSA04.jpg,AMSA20.jpg,AMNE03.jpg,AMNE15.jpg,AMSA20.jpg,MS,2,num_6,16,num_6,0.633492954948,,,2017_Mar_15_1218,60.0751085777,MAFE4ImagesEEG,001,100028,
AFNE01.JPG,AFNE01.JPG,AFNE01.JPG,AFNE01.JPG,AFNE01.JPG,AFNE01.JPG,4,5,45,1,,,,,,,,,,,,,,,,,,,,,,,AMNE11.jpg,AMSA11.jpg,AMSA15.jpg,AMNE06.jpg,AMSA15.jpg,MS,2,num_2,16,num_2,0.833444843942,,,2017_Mar_15_1218,60.0751085777,MAFE4ImagesEEG,001,100028,
AFNE01.JPG,AFNE01.JPG,AFNE01.JPG,AFNE01.JPG,AFNE01.JPG,AFNE01.JPG,4,6,46,7,,,,,,,,,,,,,,,,,,,,,,,AMNE08.jpg,AMSA13.jpg,AMSA14.jpg,AMNE12.jpg,AMSA13.jpg,MS,2,num_6,16,num_6,0.800122201908,,,2017_Mar_15_1218,60.0751085777,MAFE4ImagesEEG,001,100028,
AFNE01.JPG,AFNE01.JPG,AFNE01.JPG,AFNE01.JPG,AFNE01.JPG,AFNE01.JPG,4,7,47,2,,,,,,,,,,,,,,,,,,,,,,,AMNE19.jpg,AMSA13.jpg,AMSA12.jpg,AMNE06.jpg,AMNE19.jpg,MN,1,num_8,16,num_8,0.783557584102,,,2017_Mar_15_1218,60.0751085777,MAFE4ImagesEEG,001,100028,
AFNE01.JPG,AFNE01.JPG,AFNE01.JPG,AFNE01.JPG,AFNE01.JPG,AFNE01.JPG,4,8,48,6,,,,,,,,,,,,,,,,,,,,,,,AMSA02.jpg,AMNE13.jpg,AMNE19.jpg,AMSA17.jpg,AMSA02.jpg,MS,2,num_8,32,num_6,1.01699889981,,,2017_Mar_15_1218,60.0751085777,MAFE4ImagesEEG,001,100028,
AFNE01.JPG,AFNE01.JPG,AFNE01.JPG,AFNE01.JPG,AFNE01.JPG,AFNE01.JPG,4,9,49,4,,,,,,,,,,,,,,,,,,,,,,,AMSA02.jpg,AMNE05.jpg,AMNE07.jpg,AMSA07.jpg,AMNE05.jpg,MN,1,num_6,16,num_6,0.650149625202,,,2017_Mar_15_1218,60.0751085777,MAFE4ImagesEEG,001,100028,
AFNE01.JPG,AFNE01.JPG,AFNE01.JPG,AFNE01.JPG,AFNE01.JPG,AFNE01.JPG,5,0,50,0,,,,,,,,,,,,,,,,,,,,,,,AMNE14.jpg,AMSA08.jpg,AMNE18.jpg,AMSA16.jpg,AMSA16.jpg,MS,2,num_4,16,num_4,0.516775344091,,,2017_Mar_15_1218,60.0751085777,MAFE4ImagesEEG,001,100028,
AFNE01.JPG,AFNE01.JPG,AFNE01.JPG,AFNE01.JPG,AFNE01.JPG,AFNE01.JPG,5,1,51,2,,,,,,,,,,,,,,,,,,,,,,,AMNE20.jpg,AMNE15.jpg,AMSA04.jpg,AMSA13.jpg,AMSA04.jpg,MS,2,num_2,16,num_2,1.20005645027,,,2017_Mar_15_1218,60.0751085777,MAFE4ImagesEEG,001,100028,
AFNE01.JPG,AFNE01.JPG,AFNE01.JPG,AFNE01.JPG,AFNE01.JPG,AFNE01.JPG,5,2,52,4,,,,,,,,,,,,,,,,,,,,,,,AMNE10.jpg,AMNE11.jpg,AMSA07.jpg,AMSA16.jpg,AMNE11.jpg,MN,1,num_6,16,num_6,0.900130220456,,,2017_Mar_15_1218,60.0751085777,MAFE4ImagesEEG,001,100028,
AFNE01.JPG,AFNE01.JPG,AFNE01.JPG,AFNE01.JPG,AFNE01.JPG,AFNE01.JPG,5,3,53,1,,,,,,,,,,,,,,,,,,,,,,,AMNE08.jpg,AMNE06.jpg,AMSA15.jpg,AMSA13.jpg,AMSA13.jpg,MS,2,num_4,16,num_4,0.583490870136,,,2017_Mar_15_1218,60.0751085777,MAFE4ImagesEEG,001,100028,
AFNE01.JPG,AFNE01.JPG,AFNE01.JPG,AFNE01.JPG,AFNE01.JPG,AFNE01.JPG,5,4,54,6,,,,,,,,,,,,,,,,,,,,,,,AMNE19.jpg,AMNE09.jpg,AMSA14.jpg,AMSA04.jpg,AMNE19.jpg,MN,1,num_8,32,num_6,0.983452381333,,,2017_Mar_15_1218,60.0751085777,MAFE4ImagesEEG,001,100028,
AFNE01.JPG,AFNE01.JPG,AFNE01.JPG,AFNE01.JPG,AFNE01.JPG,AFNE01.JPG,5,5,55,5,,,,,,,,,,,,,,,,,,,,,,,AMNE10.jpg,AMNE03.jpg,AMSA17.jpg,AMSA10.jpg,AMNE10.jpg,MN,1,num_8,16,num_8,1.23342816549,,,2017_Mar_15_1218,60.0751085777,MAFE4ImagesEEG,001,100028,
AFNE01.JPG,AFNE01.JPG,AFNE01.JPG,AFNE01.JPG,AFNE01.JPG,AFNE01.JPG,5,6,56,3,,,,,,,,,,,,,,,,,,,,,,,AMNE12.jpg,AMSA05.jpg,AMNE07.jpg,AMSA08.jpg,AMSA05.jpg,MS,2,num_6,16,num_6,0.600189236575,,,2017_Mar_15_1218,60.0751085777,MAFE4ImagesEEG,001,100028,
AFNE01.JPG,AFNE01.JPG,AFNE01.JPG,AFNE01.JPG,AFNE01.JPG,AFNE01.JPG,5,7,57,9,,,,,,,,,,,,,,,,,,,,,,,AMSA05.jpg,AMSA14.jpg,AMNE07.jpg,AMNE19.jpg,AMSA14.jpg,MS,2,num_6,16,num_6,0.800185066997,,,2017_Mar_15_1218,60.0751085777,MAFE4ImagesEEG,001,100028,
AFNE01.JPG,AFNE01.JPG,AFNE01.JPG,AFNE01.JPG,AFNE01.JPG,AFNE01.JPG,5,8,58,8,,,,,,,,,,,,,,,,,,,,,,,AMNE01.jpg,AMNE20.jpg,AMSA02.jpg,AMSA08.jpg,AMSA02.jpg,MS,2,num_2,16,num_2,1.43344291952,,,2017_Mar_15_1218,60.0751085777,MAFE4ImagesEEG,001,100028,
AFNE01.JPG,AFNE01.JPG,AFNE01.JPG,AFNE01.JPG,AFNE01.JPG,AFNE01.JPG,5,9,59,7,,,,,,,,,,,,,,,,,,,,,,,AMNE05.jpg,AMSA12.jpg,AMNE12.jpg,AMSA07.jpg,AMNE12.jpg,MN,1,num_2,32,num_8,0.816640953999,,,2017_Mar_15_1218,60.0751085777,MAFE4ImagesEEG,001,100028,
,,,,,,,,,,,,,,,,,,,,,,,,,,,,,,,,,,,,,,,,,,,space,10.1826890201,2017_Mar_15_1218,60.0751085777,MAFE4ImagesEEG,001,100028,
AFNE01.JPG,AFNE01.JPG,AFNE01.JPG,AFNE01.JPG,AFNE01.JPG,AFNE01.JPG,,,,,0,0,0,9,,,,,,,,,,,,,,,,,,,AFNE06.jpg,AFSA04.jpg,AFSA20.jpg,AFNE08.jpg,AFNE08.jpg,FN,3,num_4,32,num_8,0.716817361012,,,2017_Mar_15_1218,60.0751085777,MAFE4ImagesEEG,001,100028,
AFNE01.JPG,AFNE01.JPG,AFNE01.JPG,AFNE01.JPG,AFNE01.JPG,AFNE01.JPG,,,,,0,1,1,1,,,,,,,,,,,,,,,,,,,AFSA15.jpg,AFSA01.jpg,AFNE15.jpg,AFNE03.jpg,AFNE15.jpg,FN,3,num_2,32,num_4,0.700256271288,,,2017_Mar_15_1218,60.0751085777,MAFE4ImagesEEG,001,100028,
AFNE01.JPG,AFNE01.JPG,AFNE01.JPG,AFNE01.JPG,AFNE01.JPG,AFNE01.JPG,,,,,0,2,2,5,,,,,,,,,,,,,,,,,,,AFNE09.jpg,AFSA09.jpg,AFSA06.jpg,AFNE15.jpg,AFSA09.jpg,FS,4,num_6,16,num_6,1.08345687168,,,2017_Mar_15_1218,60.0751085777,MAFE4ImagesEEG,001,100028,
AFNE01.JPG,AFNE01.JPG,AFNE01.JPG,AFNE01.JPG,AFNE01.JPG,AFNE01.JPG,,,,,0,3,3,0,,,,,,,,,,,,,,,,,,,AFSA08.jpg,AFNE12.jpg,AFSA04.jpg,AFNE03.jpg,AFNE12.jpg,FN,3,num_6,16,num_6,0.833478842396,,,2017_Mar_15_1218,60.0751085777,MAFE4ImagesEEG,001,100028,
AFNE01.JPG,AFNE01.JPG,AFNE01.JPG,AFNE01.JPG,AFNE01.JPG,AFNE01.JPG,,,,,0,4,4,2,,,,,,,,,,,,,,,,,,,AFNE19.jpg,AFSA10.jpg,AFSA07.jpg,AFNE03.jpg,AFSA07.jpg,FS,4,num_2,16,num_2,0.633481729077,,,2017_Mar_15_1218,60.0751085777,MAFE4ImagesEEG,001,100028,
AFNE01.JPG,AFNE01.JPG,AFNE01.JPG,AFNE01.JPG,AFNE01.JPG,AFNE01.JPG,,,,,0,5,5,8,,,,,,,,,,,,,,,,,,,AFNE11.jpg,AFNE10.jpg,AFSA13.jpg,AFSA20.jpg,AFNE10.jpg,FN,3,num_6,16,num_6,0.683509793773,,,2017_Mar_15_1218,60.0751085777,MAFE4ImagesEEG,001,100028,
AFNE01.JPG,AFNE01.JPG,AFNE01.JPG,AFNE01.JPG,AFNE01.JPG,AFNE01.JPG,,,,,0,6,6,6,,,,,,,,,,,,,,,,,,,AFSA10.jpg,AFNE15.jpg,AFSA18.jpg,AFNE02.jpg,AFSA10.jpg,FS,4,num_8,32,num_6,0.816765721829,,,2017_Mar_15_1218,60.0751085777,MAFE4ImagesEEG,001,100028,
AFNE01.JPG,AFNE01.JPG,AFNE01.JPG,AFNE01.JPG,AFNE01.JPG,AFNE01.JPG,,,,,0,7,7,3,,,,,,,,,,,,,,,,,,,AFSA04.jpg,AFSA17.jpg,AFNE13.jpg,AFNE02.jpg,AFSA17.jpg,FS,4,num_6,32,num_8,0.366818162845,,,2017_Mar_15_1218,60.0751085777,MAFE4ImagesEEG,001,100028,
AFNE01.JPG,AFNE01.JPG,AFNE01.JPG,AFNE01.JPG,AFNE01.JPG,AFNE01.JPG,,,,,0,8,8,4,,,,,,,,,,,,,,,,,,,AFNE10.jpg,AFSA13.jpg,AFSA04.jpg,AFNE13.jpg,AFNE10.jpg,FN,3,num_8,16,num_8,1.16676203336,,,2017_Mar_15_1218,60.0751085777,MAFE4ImagesEEG,001,100028,
AFNE01.JPG,AFNE01.JPG,AFNE01.JPG,AFNE01.JPG,AFNE01.JPG,AFNE01.JPG,,,,,0,9,9,7,,,,,,,,,,,,,,,,,,,AFSA18.jpg,AFSA07.jpg,AFNE05.jpg,AFNE19.jpg,AFNE19.jpg,FN,3,num_4,16,num_4,0.749793283059,,,2017_Mar_15_1218,60.0751085777,MAFE4ImagesEEG,001,100028,
AFNE01.JPG,AFNE01.JPG,AFNE01.JPG,AFNE01.JPG,AFNE01.JPG,AFNE01.JPG,,,,,1,0,10,0,,,,,,,,,,,,,,,,,,,AFNE04.jpg,AFSA03.jpg,AFNE07.jpg,AFSA17.jpg,AFNE04.jpg,FN,3,num_8,16,num_8,0.633434580232,,,2017_Mar_15_1218,60.0751085777,MAFE4ImagesEEG,001,100028,
AFNE01.JPG,AFNE01.JPG,AFNE01.JPG,AFNE01.JPG,AFNE01.JPG,AFNE01.JPG,,,,,1,1,11,7,,,,,,,,,,,,,,,,,,,AFNE17.jpg,AFNE04.jpg,AFSA02.jpg,AFSA20.jpg,AFNE04.jpg,FN,3,num_6,16,num_6,0.783438589482,,,2017_Mar_15_1218,60.0751085777,MAFE4ImagesEEG,001,100028,
AFNE01.JPG,AFNE01.JPG,AFNE01.JPG,AFNE01.JPG,AFNE01.JPG,AFNE01.JPG,,,,,1,2,12,9,,,,,,,,,,,,,,,,,,,AFSA20.jpg,AFNE15.jpg,AFNE11.jpg,AFSA05.jpg,AFNE11.jpg,FN,3,num_2,32,num_8,0.883488945663,,,2017_Mar_15_1218,60.0751085777,MAFE4ImagesEEG,001,100028,
AFNE01.JPG,AFNE01.JPG,AFNE01.JPG,AFNE01.JPG,AFNE01.JPG,AFNE01.JPG,,,,,1,3,13,1,,,,,,,,,,,,,,,,,,,AFNE15.jpg,AFSA06.jpg,AFSA07.jpg,AFNE11.jpg,AFSA06.jpg,FS,4,num_6,16,num_6,1.21661689854,,,2017_Mar_15_1218,60.0751085777,MAFE4ImagesEEG,001,100028,
AFNE01.JPG,AFNE01.JPG,AFNE01.JPG,AFNE01.JPG,AFNE01.JPG,AFNE01.JPG,,,,,1,4,14,2,,,,,,,,,,,,,,,,,,,AFSA05.jpg,AFSA15.jpg,AFNE04.jpg,AFNE01.jpg,AFNE01.jpg,FN,3,num_4,16,num_4,0.783449815412,,,2017_Mar_15_1218,60.0751085777,MAFE4ImagesEEG,001,100028,
AFNE01.JPG,AFNE01.JPG,AFNE01.JPG,AFNE01.JPG,AFNE01.JPG,AFNE01.JPG,,,,,1,5,15,3,,,,,,,,,,,,,,,,,,,AFSA18.jpg,AFSA10.jpg,AFNE19.jpg,AFNE02.jpg,AFNE02.jpg,FN,3,num_4,16,num_4,0.733433938818,,,2017_Mar_15_1218,60.0751085777,MAFE4ImagesEEG,001,100028,
AFNE01.JPG,AFNE01.JPG,AFNE01.JPG,AFNE01.JPG,AFNE01.JPG,AFNE01.JPG,,,,,1,6,16,8,,,,,,,,,,,,,,,,,,,AFNE06.jpg,AFSA15.jpg,AFSA14.jpg,AFNE11.jpg,AFNE06.jpg,FN,3,num_8,16,num_8,0.866764599283,,,2017_Mar_15_1218,60.0751085777,MAFE4ImagesEEG,001,100028,
AFNE01.JPG,AFNE01.JPG,AFNE01.JPG,AFNE01.JPG,AFNE01.JPG,AFNE01.JPG,,,,,1,7,17,4,,,,,,,,,,,,,,,,,,,AFSA09.jpg,AFNE13.jpg,AFNE16.jpg,AFSA06.jpg,AFNE13.jpg,FN,3,num_6,16,num_6,0.800227725413,,,2017_Mar_15_1218,60.0751085777,MAFE4ImagesEEG,001,100028,
AFNE01.JPG,AFNE01.JPG,AFNE01.JPG,AFNE01.JPG,AFNE01.JPG,AFNE01.JPG,,,,,1,8,18,5,,,,,,,,,,,,,,,,,,,AFSA13.jpg,AFSA06.jpg,AFNE14.jpg,AFNE20.jpg,AFNE14.jpg,FN,3,num_2,32,num_4,0.816646085877,,,2017_Mar_15_1218,60.0751085777,MAFE4ImagesEEG,001,100028,
AFNE01.JPG,AFNE01.JPG,AFNE01.JPG,AFNE01.JPG,AFNE01.JPG,AFNE01.JPG,,,,,1,9,19,6,,,,,,,,,,,,,,,,,,,AFSA13.jpg,AFSA17.jpg,AFNE01.jpg,AFNE12.jpg,AFNE12.jpg,FN,3,num_4,16,num_4,1.15010985348,,,2017_Mar_15_1218,60.0751085777,MAFE4ImagesEEG,001,100028,
AFNE01.JPG,AFNE01.JPG,AFNE01.JPG,AFNE01.JPG,AFNE01.JPG,AFNE01.JPG,,,,,2,0,20,7,,,,,,,,,,,,,,,,,,,AFSA15.jpg,AFSA06.jpg,AFNE10.jpg,AFNE04.jpg,AFNE04.jpg,FN,3,num_4,16,num_4,1.43350963341,,,2017_Mar_15_1218,60.0751085777,MAFE4ImagesEEG,001,100028,
AFNE01.JPG,AFNE01.JPG,AFNE01.JPG,AFNE01.JPG,AFNE01.JPG,AFNE01.JPG,,,,,2,1,21,9,,,,,,,,,,,,,,,,,,,AFNE13.jpg,AFSA10.jpg,AFSA16.jpg,AFNE02.jpg,AFSA10.jpg,FS,4,num_6,32,num_2,2.59999198152,,,2017_Mar_15_1218,60.0751085777,MAFE4ImagesEEG,001,100028,
AFNE01.JPG,AFNE01.JPG,AFNE01.JPG,AFNE01.JPG,AFNE01.JPG,AFNE01.JPG,,,,,2,2,22,0,,,,,,,,,,,,,,,,,,,AFSA19.jpg,AFNE08.jpg,AFNE15.jpg,AFSA04.jpg,AFSA04.jpg,FS,4,num_4,16,num_4,1.01674647751,,,2017_Mar_15_1218,60.0751085777,MAFE4ImagesEEG,001,100028,
AFNE01.JPG,AFNE01.JPG,AFNE01.JPG,AFNE01.JPG,AFNE01.JPG,AFNE01.JPG,,,,,2,3,23,6,,,,,,,,,,,,,,,,,,,AFNE19.jpg,AFNE16.jpg,AFSA15.jpg,AFSA02.jpg,AFNE19.jpg,FN,3,num_8,32,num_6,0.933420146932,,,2017_Mar_15_1218,60.0751085777,MAFE4ImagesEEG,001,100028,
AFNE01.JPG,AFNE01.JPG,AFNE01.JPG,AFNE01.JPG,AFNE01.JPG,AFNE01.JPG,,,,,2,4,24,2,,,,,,,,,,,,,,,,,,,AFNE19.jpg,AFSA04.jpg,AFNE03.jpg,AFSA01.jpg,AFSA04.jpg,FS,4,num_6,16,num_6,0.950145134877,,,2017_Mar_15_1218,60.0751085777,MAFE4ImagesEEG,001,100028,
AFNE01.JPG,AFNE01.JPG,AFNE01.JPG,AFNE01.JPG,AFNE01.JPG,AFNE01.JPG,,,,,2,5,25,1,,,,,,,,,,,,,,,,,,,AFSA02.jpg,AFNE17.jpg,AFNE11.jpg,AFSA17.jpg,AFNE17.jpg,FN,3,num_6,16,num_6,0.883595752122,,,2017_Mar_15_1218,60.0751085777,MAFE4ImagesEEG,001,100028,
AFNE01.JPG,AFNE01.JPG,AFNE01.JPG,AFNE01.JPG,AFNE01.JPG,AFNE01.JPG,,,,,2,6,26,5,,,,,,,,,,,,,,,,,,,AFNE09.jpg,AFSA04.jpg,AFNE11.jpg,AFSA09.jpg,AFSA04.jpg,FS,4,num_6,32,num_2,1.86669339502,,,2017_Mar_15_1218,60.0751085777,MAFE4ImagesEEG,001,100028,
AFNE01.JPG,AFNE01.JPG,AFNE01.JPG,AFNE01.JPG,AFNE01.JPG,AFNE01.JPG,,,,,2,7,27,8,,,,,,,,,,,,,,,,,,,AFNE16.jpg,AFSA09.jpg,AFSA07.jpg,AFNE05.jpg,AFNE16.jpg,FN,3,num_8,16,num_8,1.20009141089,,,2017_Mar_15_1218,60.0751085777,MAFE4ImagesEEG,001,100028,
AFNE01.JPG,AFNE01.JPG,AFNE01.JPG,AFNE01.JPG,AFNE01.JPG,AFNE01.JPG,,,,,2,8,28,3,,,,,,,,,,,,,,,,,,,AFSA04.jpg,AFSA09.jpg,AFNE01.jpg,AFNE08.jpg,AFNE01.jpg,FN,3,num_2,16,num_2,1.98337283777,,,2017_Mar_15_1218,60.0751085777,MAFE4ImagesEEG,001,100028,
AFNE01.JPG,AFNE01.JPG,AFNE01.JPG,AFNE01.JPG,AFNE01.JPG,AFNE01.JPG,,,,,2,9,29,4,,,,,,,,,,,,,,,,,,,AFSA11.jpg,AFNE03.jpg,AFSA13.jpg,AFNE14.jpg,AFSA11.jpg,FS,4,num_8,16,num_8,0.766780315549,,,2017_Mar_15_1218,60.0751085777,MAFE4ImagesEEG,001,100028,
AFNE01.JPG,AFNE01.JPG,AFNE01.JPG,AFNE01.JPG,AFNE01.JPG,AFNE01.JPG,,,,,3,0,30,8,,,,,,,,,,,,,,,,,,,AFSA07.jpg,AFNE02.jpg,AFSA03.jpg,AFNE15.jpg,AFSA03.jpg,FS,4,num_2,32,num_8,0.783450777642,,,2017_Mar_15_1218,60.0751085777,MAFE4ImagesEEG,001,100028,
AFNE01.JPG,AFNE01.JPG,AFNE01.JPG,AFNE01.JPG,AFNE01.JPG,AFNE01.JPG,,,,,3,1,31,5,,,,,,,,,,,,,,,,,,,AFNE04.jpg,AFNE08.jpg,AFSA16.jpg,AFSA13.jpg,AFNE04.jpg,FN,3,num_8,32,num_6,0.850145134842,,,2017_Mar_15_1218,60.0751085777,MAFE4ImagesEEG,001,100028,
AFNE01.JPG,AFNE01.JPG,AFNE01.JPG,AFNE01.JPG,AFNE01.JPG,AFNE01.JPG,,,,,3,2,32,4,,,,,,,,,,,,,,,,,,,AFNE19.jpg,AFSA14.jpg,AFSA04.jpg,AFNE20.jpg,AFNE19.jpg,FN,3,num_8,32,num_6,1.78336834745,,,2017_Mar_15_1218,60.0751085777,MAFE4ImagesEEG,001,100028,
AFNE01.JPG,AFNE01.JPG,AFNE01.JPG,AFNE01.JPG,AFNE01.JPG,AFNE01.JPG,,,,,3,3,33,2,,,,,,,,,,,,,,,,,,,AFSA11.jpg,AFSA10.jpg,AFNE07.jpg,AFNE02.jpg,AFSA11.jpg,FS,4,num_8,16,num_8,0.633472748334,,,2017_Mar_15_1218,60.0751085777,MAFE4ImagesEEG,001,100028,
AFNE01.JPG,AFNE01.JPG,AFNE01.JPG,AFNE01.JPG,AFNE01.JPG,AFNE01.JPG,,,,,3,4,34,9,,,,,,,,,,,,,,,,,,,AFNE07.jpg,AFNE02.jpg,AFSA16.jpg,AFSA02.jpg,AFNE07.jpg,FN,3,num_8,16,num_8,1.38343698578,,,2017_Mar_15_1218,60.0751085777,MAFE4ImagesEEG,001,100028,
AFNE01.JPG,AFNE01.JPG,AFNE01.JPG,AFNE01.JPG,AFNE01.JPG,AFNE01.JPG,,,,,3,5,35,1,,,,,,,,,,,,,,,,,,,AFSA09.jpg,AFNE13.jpg,AFSA02.jpg,AFNE16.jpg,AFSA02.jpg,FS,4,num_2,16,num_2,0.716761231539,,,2017_Mar_15_1218,60.0751085777,MAFE4ImagesEEG,001,100028,
AFNE01.JPG,AFNE01.JPG,AFNE01.JPG,AFNE01.JPG,AFNE01.JPG,AFNE01.JPG,,,,,3,6,36,6,,,,,,,,,,,,,,,,,,,AFSA17.jpg,AFNE20.jpg,AFNE04.jpg,AFSA03.jpg,AFSA03.jpg,FS,4,num_4,16,num_4,0.433439712098,,,2017_Mar_15_1218,60.0751085777,MAFE4ImagesEEG,001,100028,
AFNE01.JPG,AFNE01.JPG,AFNE01.JPG,AFNE01.JPG,AFNE01.JPG,AFNE01.JPG,,,,,3,7,37,0,,,,,,,,,,,,,,,,,,,AFNE14.jpg,AFSA11.jpg,AFNE10.jpg,AFSA12.jpg,AFNE10.jpg,FN,3,num_2,16,num_2,2.13340026111,,,2017_Mar_15_1218,60.0751085777,MAFE4ImagesEEG,001,100028,
AFNE01.JPG,AFNE01.JPG,AFNE01.JPG,AFNE01.JPG,AFNE01.JPG,AFNE01.JPG,,,,,3,8,38,7,,,,,,,,,,,,,,,,,,,AFNE10.jpg,AFSA06.jpg,AFSA13.jpg,AFNE16.jpg,AFNE10.jpg,FN,3,num_8,16,num_8,0.966502875381,,,2017_Mar_15_1218,60.0751085777,MAFE4ImagesEEG,001,100028,
AFNE01.JPG,AFNE01.JPG,AFNE01.JPG,AFNE01.JPG,AFNE01.JPG,AFNE01.JPG,,,,,3,9,39,3,,,,,,,,,,,,,,,,,,,AFNE09.jpg,AFSA09.jpg,AFSA11.jpg,AFNE12.jpg,AFNE09.jpg,FN,3,num_8,16,num_8,1.29994354979,,,2017_Mar_15_1218,60.0751085777,MAFE4ImagesEEG,001,100028,
AFNE01.JPG,AFNE01.JPG,AFNE01.JPG,AFNE01.JPG,AFNE01.JPG,AFNE01.JPG,,,,,4,0,40,4,,,,,,,,,,,,,,,,,,,AFNE13.jpg,AFNE12.jpg,AFSA13.jpg,AFSA20.jpg,AFSA20.jpg,FS,4,num_4,32,num_2,0.983496964211,,,2017_Mar_15_1218,60.0751085777,MAFE4ImagesEEG,001,100028,
AFNE01.JPG,AFNE01.JPG,AFNE01.JPG,AFNE01.JPG,AFNE01.JPG,AFNE01.JPG,,,,,4,1,41,5,,,,,,,,,,,,,,,,,,,AFSA05.jpg,AFNE17.jpg,AFSA08.jpg,AFNE10.jpg,AFSA08.jpg,FS,4,num_2,32,num_8,0.683785630215,,,2017_Mar_15_1218,60.0751085777,MAFE4ImagesEEG,001,100028,
AFNE01.JPG,AFNE01.JPG,AFNE01.JPG,AFNE01.JPG,AFNE01.JPG,AFNE01.JPG,,,,,4,2,42,7,,,,,,,,,,,,,,,,,,,AFNE08.jpg,AFSA13.jpg,AFSA07.jpg,AFNE06.jpg,AFNE06.jpg,FN,3,num_4,32,num_8,0.916791381082,,,2017_Mar_15_1218,60.0751085777,MAFE4ImagesEEG,001,100028,
AFNE01.JPG,AFNE01.JPG,AFNE01.JPG,AFNE01.JPG,AFNE01.JPG,AFNE01.JPG,,,,,4,3,43,2,,,,,,,,,,,,,,,,,,,AFNE08.jpg,AFSA04.jpg,AFSA19.jpg,AFNE02.jpg,AFNE08.jpg,FN,3,num_8,16,num_8,1.40007024212,,,2017_Mar_15_1218,60.0751085777,MAFE4ImagesEEG,001,100028,
AFNE01.JPG,AFNE01.JPG,AFNE01.JPG,AFNE01.JPG,AFNE01.JPG,AFNE01.JPG,,,,,4,4,44,1,,,,,,,,,,,,,,,,,,,AFSA09.jpg,AFNE20.jpg,AFSA03.jpg,AFNE15.jpg,AFNE20.jpg,FN,3,num_6,16,num_6,0.78346007911,,,2017_Mar_15_1218,60.0751085777,MAFE4ImagesEEG,001,100028,
AFNE01.JPG,AFNE01.JPG,AFNE01.JPG,AFNE01.JPG,AFNE01.JPG,AFNE01.JPG,,,,,4,5,45,6,,,,,,,,,,,,,,,,,,,AFNE08.jpg,AFSA06.jpg,AFSA12.jpg,AFNE14.jpg,AFNE14.jpg,FN,3,num_4,32,num_8,0.983454305737,,,2017_Mar_15_1218,60.0751085777,MAFE4ImagesEEG,001,100028,
AFNE01.JPG,AFNE01.JPG,AFNE01.JPG,AFNE01.JPG,AFNE01.JPG,AFNE01.JPG,,,,,4,6,46,9,,,,,,,,,,,,,,,,,,,AFSA16.jpg,AFSA07.jpg,AFNE05.jpg,AFNE19.jpg,AFSA07.jpg,FS,4,num_6,16,num_6,0.86674278893,,,2017_Mar_15_1218,60.0751085777,MAFE4ImagesEEG,001,100028,
AFNE01.JPG,AFNE01.JPG,AFNE01.JPG,AFNE01.JPG,AFNE01.JPG,AFNE01.JPG,,,,,4,7,47,8,,,,,,,,,,,,,,,,,,,AFNE02.jpg,AFSA07.jpg,AFSA02.jpg,AFNE15.jpg,AFNE02.jpg,FN,3,num_8,32,num_2,0.550156681507,,,2017_Mar_15_1218,60.0751085777,MAFE4ImagesEEG,001,100028,
AFNE01.JPG,AFNE01.JPG,AFNE01.JPG,AFNE01.JPG,AFNE01.JPG,AFNE01.JPG,,,,,4,8,48,0,,,,,,,,,,,,,,,,,,,AFSA11.jpg,AFNE14.jpg,AFSA12.jpg,AFNE10.jpg,AFSA11.jpg,FS,4,num_8,16,num_8,0.683481889428,,,2017_Mar_15_1218,60.0751085777,MAFE4ImagesEEG,001,100028,
AFNE01.JPG,AFNE01.JPG,AFNE01.JPG,AFNE01.JPG,AFNE01.JPG,AFNE01.JPG,,,,,4,9,49,3,,,,,,,,,,,,,,,,,,,AFSA03.jpg,AFNE07.jpg,AFSA08.jpg,AFNE17.jpg,AFNE17.jpg,FN,3,num_4,32,num_6,0.983466493897,,,2017_Mar_15_1218,60.0751085777,MAFE4ImagesEEG,001,100028,
AFNE01.JPG,AFNE01.JPG,AFNE01.JPG,AFNE01.JPG,AFNE01.JPG,AFNE01.JPG,,,,,5,0,50,6,,,,,,,,,,,,,,,,,,,AFSA11.jpg,AFNE12.jpg,AFSA14.jpg,AFNE10.jpg,AFNE10.jpg,FN,3,num_4,16,num_4,0.866820408031,,,2017_Mar_15_1218,60.0751085777,MAFE4ImagesEEG,001,100028,
AFNE01.JPG,AFNE01.JPG,AFNE01.JPG,AFNE01.JPG,AFNE01.JPG,AFNE01.JPG,,,,,5,1,51,4,,,,,,,,,,,,,,,,,,,AFNE04.jpg,AFSA04.jpg,AFSA11.jpg,AFNE12.jpg,AFNE04.jpg,FN,3,num_8,16,num_8,1.20001026371,,,2017_Mar_15_1218,60.0751085777,MAFE4ImagesEEG,001,100028,
AFNE01.JPG,AFNE01.JPG,AFNE01.JPG,AFNE01.JPG,AFNE01.JPG,AFNE01.JPG,,,,,5,2,52,9,,,,,,,,,,,,,,,,,,,AFNE18.jpg,AFSA08.jpg,AFSA02.jpg,AFNE09.jpg,AFSA08.jpg,FS,4,num_6,16,num_6,1.10010680644,,,2017_Mar_15_1218,60.0751085777,MAFE4ImagesEEG,001,100028,
AFNE01.JPG,AFNE01.JPG,AFNE01.JPG,AFNE01.JPG,AFNE01.JPG,AFNE01.JPG,,,,,5,3,53,7,,,,,,,,,,,,,,,,,,,AFNE20.jpg,AFSA03.jpg,AFSA11.jpg,AFNE02.jpg,AFNE20.jpg,FN,3,num_8,32,num_4,0.833464088326,,,2017_Mar_15_1218,60.0751085777,MAFE4ImagesEEG,001,100028,
AFNE01.JPG,AFNE01.JPG,AFNE01.JPG,AFNE01.JPG,AFNE01.JPG,AFNE01.JPG,,,,,5,4,54,8,,,,,,,,,,,,,,,,,,,AFNE15.jpg,AFSA04.jpg,AFNE07.jpg,AFSA07.jpg,AFSA04.jpg,FS,4,num_6,32,num_4,1.08341966587,,,2017_Mar_15_1218,60.0751085777,MAFE4ImagesEEG,001,100028,
AFNE01.JPG,AFNE01.JPG,AFNE01.JPG,AFNE01.JPG,AFNE01.JPG,AFNE01.JPG,,,,,5,5,55,1,,,,,,,,,,,,,,,,,,,AFSA03.jpg,AFSA11.jpg,AFNE17.jpg,AFNE05.jpg,AFNE17.jpg,FN,3,num_2,32,num_4,1.1334486928,,,2017_Mar_15_1218,60.0751085777,MAFE4ImagesEEG,001,100028,
AFNE01.JPG,AFNE01.JPG,AFNE01.JPG,AFNE01.JPG,AFNE01.JPG,AFNE01.JPG,,,,,5,6,56,5,,,,,,,,,,,,,,,,,,,AFNE12.jpg,AFSA06.jpg,AFSA18.jpg,AFNE04.jpg,AFSA06.jpg,FS,4,num_6,16,num_6,0.433495841571,,,2017_Mar_15_1218,60.0751085777,MAFE4ImagesEEG,001,100028,
AFNE01.JPG,AFNE01.JPG,AFNE01.JPG,AFNE01.JPG,AFNE01.JPG,AFNE01.JPG,,,,,5,7,57,3,,,,,,,,,,,,,,,,,,,AFNE18.jpg,AFSA04.jpg,AFNE11.jpg,AFSA07.jpg,AFNE11.jpg,FN,3,num_2,32,num_6,0.833477238659,,,2017_Mar_15_1218,60.0751085777,MAFE4ImagesEEG,001,100028,
AFNE01.JPG,AFNE01.JPG,AFNE01.JPG,AFNE01.JPG,AFNE01.JPG,AFNE01.JPG,,,,,5,8,58,0,,,,,,,,,,,,,,,,,,,AFSA20.jpg,AFNE06.jpg,AFSA04.jpg,AFNE16.jpg,AFSA04.jpg,FS,4,num_2,32,num_6,1.15013390896,,,2017_Mar_15_1218,60.0751085777,MAFE4ImagesEEG,001,100028,
AFNE01.JPG,AFNE01.JPG,AFNE01.JPG,AFNE01.JPG,AFNE01.JPG,AFNE01.JPG,,,,,5,9,59,2,,,,,,,,,,,,,,,,,,,AFNE04.jpg,AFSA03.jpg,AFSA08.jpg,AFNE13.jpg,AFNE04.jpg,FN,3,num_8,16,num_8,0.866779353353,,,2017_Mar_15_1218,60.0751085777,MAFE4ImagesEEG,001,100028,
,,,,,,,,,,,,,,,,,,,,,,,,,,,,,,,,,,,,,,,,,,,space,12.9655820309,2017_Mar_15_1218,60.0751085777,MAFE4ImagesEEG,001,100028,
AFNE01.JPG,AFNE01.JPG,AFNE01.JPG,AFNE01.JPG,AFNE01.JPG,AFNE01.JPG,,,,,,,,,0,0,0,2,,,,,,,,,,,,,,,AMNE09.jpg,AMNE19.jpg,AMSA02.jpg,AMSA14.jpg,AMSA02.jpg,MS,2,num_2,16,num_2,1.13349680381,,,2017_Mar_15_1218,60.0751085777,MAFE4ImagesEEG,001,100028,
AFNE01.JPG,AFNE01.JPG,AFNE01.JPG,AFNE01.JPG,AFNE01.JPG,AFNE01.JPG,,,,,,,,,0,1,1,4,,,,,,,,,,,,,,,AMNE12.jpg,AMSA20.jpg,AMNE10.jpg,AMSA16.jpg,AMSA20.jpg,MS,2,num_6,16,num_6,0.750206396158,,,2017_Mar_15_1218,60.0751085777,MAFE4ImagesEEG,001,100028,
AFNE01.JPG,AFNE01.JPG,AFNE01.JPG,AFNE01.JPG,AFNE01.JPG,AFNE01.JPG,,,,,,,,,0,2,2,9,,,,,,,,,,,,,,,AMNE17.jpg,AMSA09.jpg,AMSA06.jpg,AMNE10.jpg,AMNE17.jpg,MN,1,num_8,32,num_4,0.833500331966,,,2017_Mar_15_1218,60.0751085777,MAFE4ImagesEEG,001,100028,
AFNE01.JPG,AFNE01.JPG,AFNE01.JPG,AFNE01.JPG,AFNE01.JPG,AFNE01.JPG,,,,,,,,,0,3,3,3,,,,,,,,,,,,,,,AMSA13.jpg,AMNE01.jpg,AMSA18.jpg,AMNE20.jpg,AMSA18.jpg,MS,2,num_2,16,num_2,0.766747279326,,,2017_Mar_15_1218,60.0751085777,MAFE4ImagesEEG,001,100028,
AFNE01.JPG,AFNE01.JPG,AFNE01.JPG,AFNE01.JPG,AFNE01.JPG,AFNE01.JPG,,,,,,,,,0,4,4,6,,,,,,,,,,,,,,,AMNE02.jpg,AMSA20.jpg,AMNE08.jpg,AMSA03.jpg,AMNE02.jpg,MN,1,num_8,16,num_8,0.816745835997,,,2017_Mar_15_1218,60.0751085777,MAFE4ImagesEEG,001,100028,
AFNE01.JPG,AFNE01.JPG,AFNE01.JPG,AFNE01.JPG,AFNE01.JPG,AFNE01.JPG,,,,,,,,,0,5,5,8,,,,,,,,,,,,,,,AMSA15.jpg,AMNE11.jpg,AMSA20.jpg,AMNE18.jpg,AMSA15.jpg,MS,2,num_8,16,num_8,0.516779834405,,,2017_Mar_15_1218,60.0751085777,MAFE4ImagesEEG,001,100028,
AFNE01.JPG,AFNE01.JPG,AFNE01.JPG,AFNE01.JPG,AFNE01.JPG,AFNE01.JPG,,,,,,,,,0,6,6,7,,,,,,,,,,,,,,,AMNE10.jpg,AMSA03.jpg,AMSA14.jpg,AMNE08.jpg,AMNE10.jpg,MN,1,num_8,16,num_8,0.750154436333,,,2017_Mar_15_1218,60.0751085777,MAFE4ImagesEEG,001,100028,
AFNE01.JPG,AFNE01.JPG,AFNE01.JPG,AFNE01.JPG,AFNE01.JPG,AFNE01.JPG,,,,,,,,,0,7,7,0,,,,,,,,,,,,,,,AMSA02.jpg,AMNE12.jpg,AMNE15.jpg,AMSA18.jpg,AMSA02.jpg,MS,2,num_8,16,num_8,0.983423514757,,,2017_Mar_15_1218,60.0751085777,MAFE4ImagesEEG,001,100028,
AFNE01.JPG,AFNE01.JPG,AFNE01.JPG,AFNE01.JPG,AFNE01.JPG,AFNE01.JPG,,,,,,,,,0,8,8,5,,,,,,,,,,,,,,,AMNE11.jpg,AMNE20.jpg,AMSA16.jpg,AMSA19.jpg,AMSA16.jpg,MS,2,num_2,16,num_2,1.53337524337,,,2017_Mar_15_1218,60.0751085777,MAFE4ImagesEEG,001,100028,
AFNE01.JPG,AFNE01.JPG,AFNE01.JPG,AFNE01.JPG,AFNE01.JPG,AFNE01.JPG,,,,,,,,,0,9,9,1,,,,,,,,,,,,,,,AMNE09.jpg,AMSA01.jpg,AMNE17.jpg,AMSA14.jpg,AMNE09.jpg,MN,1,num_8,16,num_8,0.850150587445,,,2017_Mar_15_1218,60.0751085777,MAFE4ImagesEEG,001,100028,
AFNE01.JPG,AFNE01.JPG,AFNE01.JPG,AFNE01.JPG,AFNE01.JPG,AFNE01.JPG,,,,,,,,,1,0,10,7,,,,,,,,,,,,,,,AMNE09.jpg,AMSA18.jpg,AMSA09.jpg,AMNE16.jpg,AMSA18.jpg,MS,2,num_6,16,num_6,0.716757061949,,,2017_Mar_15_1218,60.0751085777,MAFE4ImagesEEG,001,100028,
AFNE01.JPG,AFNE01.JPG,AFNE01.JPG,AFNE01.JPG,AFNE01.JPG,AFNE01.JPG,,,,,,,,,1,1,11,3,,,,,,,,,,,,,,,AMNE05.jpg,AMSA09.jpg,AMSA04.jpg,AMNE17.jpg,AMSA04.jpg,MS,2,num_2,16,num_2,0.933435221727,,,2017_Mar_15_1218,60.0751085777,MAFE4ImagesEEG,001,100028,
AFNE01.JPG,AFNE01.JPG,AFNE01.JPG,AFNE01.JPG,AFNE01.JPG,AFNE01.JPG,,,,,,,,,1,2,12,1,,,,,,,,,,,,,,,AMNE18.jpg,AMSA04.jpg,AMSA09.jpg,AMNE05.jpg,AMNE05.jpg,MN,1,num_4,16,num_4,0.633513161563,,,2017_Mar_15_1218,60.0751085777,MAFE4ImagesEEG,001,100028,
AFNE01.JPG,AFNE01.JPG,AFNE01.JPG,AFNE01.JPG,AFNE01.JPG,AFNE01.JPG,,,,,,,,,1,3,13,2,,,,,,,,,,,,,,,AMSA20.jpg,AMNE20.jpg,AMSA17.jpg,AMNE01.jpg,AMSA17.jpg,MS,2,num_2,16,num_2,1.18342960876,,,2017_Mar_15_1218,60.0751085777,MAFE4ImagesEEG,001,100028,
AFNE01.JPG,AFNE01.JPG,AFNE01.JPG,AFNE01.JPG,AFNE01.JPG,AFNE01.JPG,,,,,,,,,1,4,14,8,,,,,,,,,,,,,,,AMSA01.jpg,AMSA02.jpg,AMNE20.jpg,AMNE11.jpg,AMNE11.jpg,MN,1,num_4,16,num_4,0.883450136171,,,2017_Mar_15_1218,60.0751085777,MAFE4ImagesEEG,001,100028,
AFNE01.JPG,AFNE01.JPG,AFNE01.JPG,AFNE01.JPG,AFNE01.JPG,AFNE01.JPG,,,,,,,,,1,5,15,4,,,,,,,,,,,,,,,AMNE03.jpg,AMSA05.jpg,AMSA01.jpg,AMNE18.jpg,AMNE18.jpg,MN,1,num_4,32,num_8,0.900101674546,,,2017_Mar_15_1218,60.0751085777,MAFE4ImagesEEG,001,100028,
AFNE01.JPG,AFNE01.JPG,AFNE01.JPG,AFNE01.JPG,AFNE01.JPG,AFNE01.JPG,,,,,,,,,1,6,16,6,,,,,,,,,,,,,,,AMSA12.jpg,AMNE09.jpg,AMNE18.jpg,AMSA04.jpg,AMNE09.jpg,MN,1,num_6,16,num_6,0.83349808678,,,2017_Mar_15_1218,60.0751085777,MAFE4ImagesEEG,001,100028,
AFNE01.JPG,AFNE01.JPG,AFNE01.JPG,AFNE01.JPG,AFNE01.JPG,AFNE01.JPG,,,,,,,,,1,7,17,9,,,,,,,,,,,,,,,AMNE18.jpg,AMSA20.jpg,AMSA07.jpg,AMNE13.jpg,AMSA07.jpg,MS,2,num_2,32,num_6,0.766780315549,,,2017_Mar_15_1218,60.0751085777,MAFE4ImagesEEG,001,100028,
AFNE01.JPG,AFNE01.JPG,AFNE01.JPG,AFNE01.JPG,AFNE01.JPG,AFNE01.JPG,,,,,,,,,1,8,18,5,,,,,,,,,,,,,,,AMNE20.jpg,AMNE12.jpg,AMSA03.jpg,AMSA12.jpg,AMNE20.jpg,MN,1,num_8,16,num_8,0.966729638632,,,2017_Mar_15_1218,60.0751085777,MAFE4ImagesEEG,001,100028,
AFNE01.JPG,AFNE01.JPG,AFNE01.JPG,AFNE01.JPG,AFNE01.JPG,AFNE01.JPG,,,,,,,,,1,9,19,0,,,,,,,,,,,,,,,AMSA02.jpg,AMSA18.jpg,AMNE08.jpg,AMNE03.jpg,AMNE03.jpg,MN,1,num_4,16,num_4,0.850106004567,,,2017_Mar_15_1218,60.0751085777,MAFE4ImagesEEG,001,100028,
AFNE01.JPG,AFNE01.JPG,AFNE01.JPG,AFNE01.JPG,AFNE01.JPG,AFNE01.JPG,,,,,,,,,2,0,20,4,,,,,,,,,,,,,,,AMSA05.jpg,AMSA03.jpg,AMNE02.jpg,AMNE07.jpg,AMSA03.jpg,MS,2,num_6,16,num_6,0.999981717847,,,2017_Mar_15_1218,60.0751085777,MAFE4ImagesEEG,001,100028,
AFNE01.JPG,AFNE01.JPG,AFNE01.JPG,AFNE01.JPG,AFNE01.JPG,AFNE01.JPG,,,,,,,,,2,1,21,6,,,,,,,,,,,,,,,AMSA09.jpg,AMSA15.jpg,AMNE08.jpg,AMNE17.jpg,AMNE17.jpg,MN,1,num_4,32,num_2,0.916770212236,,,2017_Mar_15_1218,60.0751085777,MAFE4ImagesEEG,001,100028,
AFNE01.JPG,AFNE01.JPG,AFNE01.JPG,AFNE01.JPG,AFNE01.JPG,AFNE01.JPG,,,,,,,,,2,2,22,1,,,,,,,,,,,,,,,AMSA19.jpg,AMNE13.jpg,AMNE07.jpg,AMSA02.jpg,AMSA02.jpg,MS,2,num_4,32,num_8,1.33361964725,,,2017_Mar_15_1218,60.0751085777,MAFE4ImagesEEG,001,100028,
AFNE01.JPG,AFNE01.JPG,AFNE01.JPG,AFNE01.JPG,AFNE01.JPG,AFNE01.JPG,,,,,,,,,2,3,23,2,,,,,,,,,,,,,,,AMSA11.jpg,AMNE18.jpg,AMNE13.jpg,AMSA08.jpg,AMSA11.jpg,MS,2,num_8,32,num_4,0.766782881459,,,2017_Mar_15_1218,60.0751085777,MAFE4ImagesEEG,001,100028,
AFNE01.JPG,AFNE01.JPG,AFNE01.JPG,AFNE01.JPG,AFNE01.JPG,AFNE01.JPG,,,,,,,,,2,4,24,3,,,,,,,,,,,,,,,AMNE15.jpg,AMNE01.jpg,AMSA13.jpg,AMSA12.jpg,AMNE15.jpg,MN,1,num_8,16,num_8,1.05011594755,,,2017_Mar_15_1218,60.0751085777,MAFE4ImagesEEG,001,100028,
AFNE01.JPG,AFNE01.JPG,AFNE01.JPG,AFNE01.JPG,AFNE01.JPG,AFNE01.JPG,,,,,,,,,2,5,25,0,,,,,,,,,,,,,,,AMNE09.jpg,AMSA20.jpg,AMNE12.jpg,AMSA13.jpg,AMNE12.jpg,MN,1,num_2,32,num_8,1.2000744117,,,2017_Mar_15_1218,60.0751085777,MAFE4ImagesEEG,001,100028,
AFNE01.JPG,AFNE01.JPG,AFNE01.JPG,AFNE01.JPG,AFNE01.JPG,AFNE01.JPG,,,,,,,,,2,6,26,5,,,,,,,,,,,,,,,AMNE14.jpg,AMSA11.jpg,AMSA10.jpg,AMNE02.jpg,AMNE02.jpg,MN,1,num_4,32,num_8,1.11681158765,,,2017_Mar_15_1218,60.0751085777,MAFE4ImagesEEG,001,100028,
AFNE01.JPG,AFNE01.JPG,AFNE01.JPG,AFNE01.JPG,AFNE01.JPG,AFNE01.JPG,,,,,,,,,2,7,27,7,,,,,,,,,,,,,,,AMSA01.jpg,AMNE18.jpg,AMSA18.jpg,AMNE19.jpg,AMNE18.jpg,MN,1,num_6,32,num_4,1.88338662963,,,2017_Mar_15_1218,60.0751085777,MAFE4ImagesEEG,001,100028,
AFNE01.JPG,AFNE01.JPG,AFNE01.JPG,AFNE01.JPG,AFNE01.JPG,AFNE01.JPG,,,,,,,,,2,8,28,8,,,,,,,,,,,,,,,AMNE09.jpg,AMSA16.jpg,AMNE20.jpg,AMSA14.jpg,AMSA16.jpg,MS,2,num_6,16,num_6,0.950104080141,,,2017_Mar_15_1218,60.0751085777,MAFE4ImagesEEG,001,100028,
AFNE01.JPG,AFNE01.JPG,AFNE01.JPG,AFNE01.JPG,AFNE01.JPG,AFNE01.JPG,,,,,,,,,2,9,29,9,,,,,,,,,,,,,,,AMNE15.jpg,AMNE04.jpg,AMSA10.jpg,AMSA01.jpg,AMNE04.jpg,MN,1,num_6,32,num_8,0.950068157224,,,2017_Mar_15_1218,60.0751085777,MAFE4ImagesEEG,001,100028,
AFNE01.JPG,AFNE01.JPG,AFNE01.JPG,AFNE01.JPG,AFNE01.JPG,AFNE01.JPG,,,,,,,,,3,0,30,8,,,,,,,,,,,,,,,AMNE10.jpg,AMNE05.jpg,AMSA14.jpg,AMSA15.jpg,AMNE05.jpg,MN,1,num_6,16,num_6,0.61678496626,,,2017_Mar_15_1218,60.0751085777,MAFE4ImagesEEG,001,100028,
AFNE01.JPG,AFNE01.JPG,AFNE01.JPG,AFNE01.JPG,AFNE01.JPG,AFNE01.JPG,,,,,,,,,3,1,31,2,,,,,,,,,,,,,,,AMNE06.jpg,AMNE13.jpg,AMSA01.jpg,AMSA19.jpg,AMNE06.jpg,MN,1,num_8,32,num_6,0.833313982061,,,2017_Mar_15_1218,60.0751085777,MAFE4ImagesEEG,001,100028,
AFNE01.JPG,AFNE01.JPG,AFNE01.JPG,AFNE01.JPG,AFNE01.JPG,AFNE01.JPG,,,,,,,,,3,2,32,6,,,,,,,,,,,,,,,AMNE05.jpg,AMSA07.jpg,AMNE07.jpg,AMSA14.jpg,AMNE05.jpg,MN,1,num_8,32,num_6,0.783478681988,,,2017_Mar_15_1218,60.0751085777,MAFE4ImagesEEG,001,100028,
AFNE01.JPG,AFNE01.JPG,AFNE01.JPG,AFNE01.JPG,AFNE01.JPG,AFNE01.JPG,,,,,,,,,3,3,33,1,,,,,,,,,,,,,,,AMSA06.jpg,AMNE14.jpg,AMNE07.jpg,AMSA11.jpg,AMNE14.jpg,MN,1,num_6,16,num_6,0.916748081159,,,2017_Mar_15_1218,60.0751085777,MAFE4ImagesEEG,001,100028,
AFNE01.JPG,AFNE01.JPG,AFNE01.JPG,AFNE01.JPG,AFNE01.JPG,AFNE01.JPG,,,,,,,,,3,4,34,5,,,,,,,,,,,,,,,AMNE06.jpg,AMNE17.jpg,AMSA13.jpg,AMSA09.jpg,AMSA09.jpg,MS,2,num_4,16,num_4,0.566775504441,,,2017_Mar_15_1218,60.0751085777,MAFE4ImagesEEG,001,100028,
AFNE01.JPG,AFNE01.JPG,AFNE01.JPG,AFNE01.JPG,AFNE01.JPG,AFNE01.JPG,,,,,,,,,3,5,35,0,,,,,,,,,,,,,,,AMNE04.jpg,AMNE10.jpg,AMSA17.jpg,AMSA10.jpg,AMSA17.jpg,MS,2,num_2,32,num_4,1.28352583078,,,2017_Mar_15_1218,60.0751085777,MAFE4ImagesEEG,001,100028,
AFNE01.JPG,AFNE01.JPG,AFNE01.JPG,AFNE01.JPG,AFNE01.JPG,AFNE01.JPG,,,,,,,,,3,6,36,7,,,,,,,,,,,,,,,AMSA03.jpg,AMNE05.jpg,AMNE04.jpg,AMSA20.jpg,AMNE05.jpg,MN,1,num_6,16,num_6,0.416772136698,,,2017_Mar_15_1218,60.0751085777,MAFE4ImagesEEG,001,100028,
AFNE01.JPG,AFNE01.JPG,AFNE01.JPG,AFNE01.JPG,AFNE01.JPG,AFNE01.JPG,,,,,,,,,3,7,37,4,,,,,,,,,,,,,,,AMNE06.jpg,AMSA20.jpg,AMNE13.jpg,AMSA11.jpg,AMNE06.jpg,MN,1,num_8,16,num_8,0.766834520618,,,2017_Mar_15_1218,60.0751085777,MAFE4ImagesEEG,001,100028,
AFNE01.JPG,AFNE01.JPG,AFNE01.JPG,AFNE01.JPG,AFNE01.JPG,AFNE01.JPG,,,,,,,,,3,8,38,9,,,,,,,,,,,,,,,AMNE19.jpg,AMSA15.jpg,AMNE07.jpg,AMSA02.jpg,AMNE07.jpg,MN,1,num_2,16,num_2,0.950107929064,,,2017_Mar_15_1218,60.0751085777,MAFE4ImagesEEG,001,100028,
AFNE01.JPG,AFNE01.JPG,AFNE01.JPG,AFNE01.JPG,AFNE01.JPG,AFNE01.JPG,,,,,,,,,3,9,39,3,,,,,,,,,,,,,,,AMSA10.jpg,AMSA01.jpg,AMNE14.jpg,AMNE17.jpg,AMSA01.jpg,MS,2,num_6,16,num_6,0.466777428926,,,2017_Mar_15_1218,60.0751085777,MAFE4ImagesEEG,001,100028,
AFNE01.JPG,AFNE01.JPG,AFNE01.JPG,AFNE01.JPG,AFNE01.JPG,AFNE01.JPG,,,,,,,,,4,0,40,1,,,,,,,,,,,,,,,AMSA11.jpg,AMNE05.jpg,AMSA15.jpg,AMNE18.jpg,AMNE18.jpg,MN,1,num_4,32,num_6,0.883440193255,,,2017_Mar_15_1218,60.0751085777,MAFE4ImagesEEG,001,100028,
AFNE01.JPG,AFNE01.JPG,AFNE01.JPG,AFNE01.JPG,AFNE01.JPG,AFNE01.JPG,,,,,,,,,4,1,41,3,,,,,,,,,,,,,,,AMSA02.jpg,AMNE16.jpg,AMSA07.jpg,AMNE09.jpg,AMNE09.jpg,MN,1,num_4,32,num_6,1.01672081824,,,2017_Mar_15_1218,60.0751085777,MAFE4ImagesEEG,001,100028,
AFNE01.JPG,AFNE01.JPG,AFNE01.JPG,AFNE01.JPG,AFNE01.JPG,AFNE01.JPG,,,,,,,,,4,2,42,8,,,,,,,,,,,,,,,AMSA20.jpg,AMSA12.jpg,AMNE13.jpg,AMNE07.jpg,AMSA20.jpg,MS,2,num_8,16,num_8,0.716784324788,,,2017_Mar_15_1218,60.0751085777,MAFE4ImagesEEG,001,100028,
AFNE01.JPG,AFNE01.JPG,AFNE01.JPG,AFNE01.JPG,AFNE01.JPG,AFNE01.JPG,,,,,,,,,4,3,43,5,,,,,,,,,,,,,,,AMNE19.jpg,AMNE08.jpg,AMSA07.jpg,AMSA15.jpg,AMSA15.jpg,MS,2,num_4,16,num_4,0.383527113765,,,2017_Mar_15_1218,60.0751085777,MAFE4ImagesEEG,001,100028,
AFNE01.JPG,AFNE01.JPG,AFNE01.JPG,AFNE01.JPG,AFNE01.JPG,AFNE01.JPG,,,,,,,,,4,4,44,9,,,,,,,,,,,,,,,AMSA08.jpg,AMSA20.jpg,AMNE07.jpg,AMNE18.jpg,AMNE18.jpg,MN,1,num_4,16,num_4,1.01674904337,,,2017_Mar_15_1218,60.0751085777,MAFE4ImagesEEG,001,100028,
AFNE01.JPG,AFNE01.JPG,AFNE01.JPG,AFNE01.JPG,AFNE01.JPG,AFNE01.JPG,,,,,,,,,4,5,45,7,,,,,,,,,,,,,,,AMNE04.jpg,AMSA11.jpg,AMSA05.jpg,AMNE05.jpg,AMNE04.jpg,MN,1,num_8,16,num_8,1.33344580617,,,2017_Mar_15_1218,60.0751085777,MAFE4ImagesEEG,001,100028,
AFNE01.JPG,AFNE01.JPG,AFNE01.JPG,AFNE01.JPG,AFNE01.JPG,AFNE01.JPG,,,,,,,,,4,6,46,2,,,,,,,,,,,,,,,AMSA17.jpg,AMSA09.jpg,AMNE02.jpg,AMNE11.jpg,AMNE11.jpg,MN,1,num_4,32,num_6,0.83345254173,,,2017_Mar_15_1218,60.0751085777,MAFE4ImagesEEG,001,100028,
AFNE01.JPG,AFNE01.JPG,AFNE01.JPG,AFNE01.JPG,AFNE01.JPG,AFNE01.JPG,,,,,,,,,4,7,47,0,,,,,,,,,,,,,,,AMNE01.jpg,AMSA14.jpg,AMSA01.jpg,AMNE05.jpg,AMSA14.jpg,MS,2,num_6,16,num_6,0.900122522726,,,2017_Mar_15_1218,60.0751085777,MAFE4ImagesEEG,001,100028,
AFNE01.JPG,AFNE01.JPG,AFNE01.JPG,AFNE01.JPG,AFNE01.JPG,AFNE01.JPG,,,,,,,,,4,8,48,6,,,,,,,,,,,,,,,AMSA09.jpg,AMNE04.jpg,AMNE02.jpg,AMSA03.jpg,AMNE04.jpg,MN,1,num_6,16,num_6,1.01662427554,,,2017_Mar_15_1218,60.0751085777,MAFE4ImagesEEG,001,100028,
AFNE01.JPG,AFNE01.JPG,AFNE01.JPG,AFNE01.JPG,AFNE01.JPG,AFNE01.JPG,,,,,,,,,4,9,49,4,,,,,,,,,,,,,,,AMSA19.jpg,AMSA13.jpg,AMNE05.jpg,AMNE14.jpg,AMNE05.jpg,MN,1,num_2,32,num_6,0.783380856272,,,2017_Mar_15_1218,60.0751085777,MAFE4ImagesEEG,001,100028,
AFNE01.JPG,AFNE01.JPG,AFNE01.JPG,AFNE01.JPG,AFNE01.JPG,AFNE01.JPG,,,,,,,,,5,0,50,3,,,,,,,,,,,,,,,AMSA07.jpg,AMNE06.jpg,AMNE07.jpg,AMSA04.jpg,AMNE07.jpg,MN,1,num_2,32,num_6,0.716793305532,,,2017_Mar_15_1218,60.0751085777,MAFE4ImagesEEG,001,100028,
AFNE01.JPG,AFNE01.JPG,AFNE01.JPG,AFNE01.JPG,AFNE01.JPG,AFNE01.JPG,,,,,,,,,5,1,51,1,,,,,,,,,,,,,,,AMNE08.jpg,AMSA06.jpg,AMNE04.jpg,AMSA01.jpg,AMSA01.jpg,MS,2,num_4,16,num_4,0.733574422949,,,2017_Mar_15_1218,60.0751085777,MAFE4ImagesEEG,001,100028,
AFNE01.JPG,AFNE01.JPG,AFNE01.JPG,AFNE01.JPG,AFNE01.JPG,AFNE01.JPG,,,,,,,,,5,2,52,0,,,,,,,,,,,,,,,AMSA05.jpg,AMNE11.jpg,AMSA03.jpg,AMNE20.jpg,AMSA03.jpg,MS,2,num_2,32,num_8,1.83334862191,,,2017_Mar_15_1218,60.0751085777,MAFE4ImagesEEG,001,100028,
AFNE01.JPG,AFNE01.JPG,AFNE01.JPG,AFNE01.JPG,AFNE01.JPG,AFNE01.JPG,,,,,,,,,5,3,53,4,,,,,,,,,,,,,,,AMNE17.jpg,AMNE18.jpg,AMSA18.jpg,AMSA20.jpg,AMSA18.jpg,MS,2,num_2,16,num_2,1.13348654017,,,2017_Mar_15_1218,60.0751085777,MAFE4ImagesEEG,001,100028,
AFNE01.JPG,AFNE01.JPG,AFNE01.JPG,AFNE01.JPG,AFNE01.JPG,AFNE01.JPG,,,,,,,,,5,4,54,6,,,,,,,,,,,,,,,AMNE17.jpg,AMSA05.jpg,AMSA07.jpg,AMNE20.jpg,AMNE17.jpg,MN,1,num_8,16,num_8,0.933478200925,,,2017_Mar_15_1218,60.0751085777,MAFE4ImagesEEG,001,100028,
AFNE01.JPG,AFNE01.JPG,AFNE01.JPG,AFNE01.JPG,AFNE01.JPG,AFNE01.JPG,,,,,,,,,5,5,55,2,,,,,,,,,,,,,,,AMSA15.jpg,AMSA08.jpg,AMNE14.jpg,AMNE12.jpg,AMNE14.jpg,MN,1,num_2,32,num_6,0.93343650474,,,2017_Mar_15_1218,60.0751085777,MAFE4ImagesEEG,001,100028,
AFNE01.JPG,AFNE01.JPG,AFNE01.JPG,AFNE01.JPG,AFNE01.JPG,AFNE01.JPG,,,,,,,,,5,6,56,5,,,,,,,,,,,,,,,AMSA04.jpg,AMNE01.jpg,AMSA08.jpg,AMNE15.jpg,AMNE01.jpg,MN,1,num_6,32,num_8,0.766818804317,,,2017_Mar_15_1218,60.0751085777,MAFE4ImagesEEG,001,100028,
AFNE01.JPG,AFNE01.JPG,AFNE01.JPG,AFNE01.JPG,AFNE01.JPG,AFNE01.JPG,,,,,,,,,5,7,57,7,,,,,,,,,,,,,,,AMNE11.jpg,AMNE16.jpg,AMSA11.jpg,AMSA13.jpg,AMNE16.jpg,MN,1,num_6,32,num_4,0.849999839673,,,2017_Mar_15_1218,60.0751085777,MAFE4ImagesEEG,001,100028,
AFNE01.JPG,AFNE01.JPG,AFNE01.JPG,AFNE01.JPG,AFNE01.JPG,AFNE01.JPG,,,,,,,,,5,8,58,8,,,,,,,,,,,,,,,AMSA13.jpg,AMNE14.jpg,AMNE13.jpg,AMSA07.jpg,AMNE13.jpg,MN,1,num_2,32,num_8,0.850168869656,,,2017_Mar_15_1218,60.0751085777,MAFE4ImagesEEG,001,100028,
AFNE01.JPG,AFNE01.JPG,AFNE01.JPG,AFNE01.JPG,AFNE01.JPG,AFNE01.JPG,,,,,,,,,5,9,59,9,,,,,,,,,,,,,,,AMNE03.jpg,AMNE12.jpg,AMSA10.jpg,AMSA06.jpg,AMNE12.jpg,MN,1,num_6,16,num_6,0.883502416778,,,2017_Mar_15_1218,60.0751085777,MAFE4ImagesEEG,001,100028,
,,,,,,,,,,,,,,,,,,,,,,,,,,,,,,,,,,,,,,,,,,,space,14.3991170028,2017_Mar_15_1218,60.0751085777,MAFE4ImagesEEG,001,100028,
AFNE01.JPG,AFNE01.JPG,AFNE01.JPG,AFNE01.JPG,AFNE01.JPG,AFNE01.JPG,,,,,,,,,,,,,0,0,0,8,,,,,,,,,,,AFSA06.jpg,AFSA18.jpg,AFNE07.jpg,AFNE10.jpg,AFSA18.jpg,FS,4,num_6,16,num_6,0.716693555412,,,2017_Mar_15_1218,60.0751085777,MAFE4ImagesEEG,001,100028,
AFNE01.JPG,AFNE01.JPG,AFNE01.JPG,AFNE01.JPG,AFNE01.JPG,AFNE01.JPG,,,,,,,,,,,,,0,1,1,2,,,,,,,,,,,AFSA15.jpg,AFSA12.jpg,AFNE13.jpg,AFNE01.jpg,AFSA15.jpg,FS,4,num_8,16,num_8,0.500111296773,,,2017_Mar_15_1218,60.0751085777,MAFE4ImagesEEG,001,100028,
AFNE01.JPG,AFNE01.JPG,AFNE01.JPG,AFNE01.JPG,AFNE01.JPG,AFNE01.JPG,,,,,,,,,,,,,0,2,2,0,,,,,,,,,,,AFSA02.jpg,AFNE03.jpg,AFNE09.jpg,AFSA01.jpg,AFNE09.jpg,FN,3,num_2,32,num_4,1.01700820134,,,2017_Mar_15_1218,60.0751085777,MAFE4ImagesEEG,001,100028,
AFNE01.JPG,AFNE01.JPG,AFNE01.JPG,AFNE01.JPG,AFNE01.JPG,AFNE01.JPG,,,,,,,,,,,,,0,3,3,5,,,,,,,,,,,AFSA08.jpg,AFNE03.jpg,AFNE06.jpg,AFSA03.jpg,AFNE03.jpg,FN,3,num_6,16,num_6,0.733444523241,,,2017_Mar_15_1218,60.0751085777,MAFE4ImagesEEG,001,100028,
AFNE01.JPG,AFNE01.JPG,AFNE01.JPG,AFNE01.JPG,AFNE01.JPG,AFNE01.JPG,,,,,,,,,,,,,0,4,4,7,,,,,,,,,,,AFSA16.jpg,AFNE12.jpg,AFSA04.jpg,AFNE13.jpg,AFSA04.jpg,FS,4,num_2,16,num_2,0.883330179378,,,2017_Mar_15_1218,60.0751085777,MAFE4ImagesEEG,001,100028,
AFNE01.JPG,AFNE01.JPG,AFNE01.JPG,AFNE01.JPG,AFNE01.JPG,AFNE01.JPG,,,,,,,,,,,,,0,5,5,3,,,,,,,,,,,AFNE19.jpg,AFSA03.jpg,AFNE17.jpg,AFSA07.jpg,AFNE17.jpg,FN,3,num_2,32,num_8,0.983720840712,,,2017_Mar_15_1218,60.0751085777,MAFE4ImagesEEG,001,100028,
AFNE01.JPG,AFNE01.JPG,AFNE01.JPG,AFNE01.JPG,AFNE01.JPG,AFNE01.JPG,,,,,,,,,,,,,0,6,6,9,,,,,,,,,,,AFSA03.jpg,AFNE17.jpg,AFSA10.jpg,AFNE04.jpg,AFSA03.jpg,FS,4,num_8,32,num_6,0.583578752936,,,2017_Mar_15_1218,60.0751085777,MAFE4ImagesEEG,001,100028,
AFNE01.JPG,AFNE01.JPG,AFNE01.JPG,AFNE01.JPG,AFNE01.JPG,AFNE01.JPG,,,,,,,,,,,,,0,7,7,1,,,,,,,,,,,AFNE08.jpg,AFSA14.jpg,AFNE18.jpg,AFSA10.jpg,AFNE08.jpg,FN,3,num_8,16,num_8,0.850120758638,,,2017_Mar_15_1218,60.0751085777,MAFE4ImagesEEG,001,100028,
AFNE01.JPG,AFNE01.JPG,AFNE01.JPG,AFNE01.JPG,AFNE01.JPG,AFNE01.JPG,,,,,,,,,,,,,0,8,8,4,,,,,,,,,,,AFNE05.jpg,AFSA06.jpg,AFSA02.jpg,AFNE17.jpg,AFNE05.jpg,FN,3,num_8,32,num_4,0.816748081183,,,2017_Mar_15_1218,60.0751085777,MAFE4ImagesEEG,001,100028,
AFNE01.JPG,AFNE01.JPG,AFNE01.JPG,AFNE01.JPG,AFNE01.JPG,AFNE01.JPG,,,,,,,,,,,,,0,9,9,6,,,,,,,,,,,AFNE15.jpg,AFSA02.jpg,AFSA13.jpg,AFNE12.jpg,AFSA13.jpg,FS,4,num_2,32,num_6,0.633457352757,,,2017_Mar_15_1218,60.0751085777,MAFE4ImagesEEG,001,100028,
AFNE01.JPG,AFNE01.JPG,AFNE01.JPG,AFNE01.JPG,AFNE01.JPG,AFNE01.JPG,,,,,,,,,,,,,1,0,10,6,,,,,,,,,,,AFSA14.jpg,AFSA03.jpg,AFNE17.jpg,AFNE08.jpg,AFNE17.jpg,FN,3,num_2,32,num_4,0.949975784111,,,2017_Mar_15_1218,60.0751085777,MAFE4ImagesEEG,001,100028,
AFNE01.JPG,AFNE01.JPG,AFNE01.JPG,AFNE01.JPG,AFNE01.JPG,AFNE01.JPG,,,,,,,,,,,,,1,1,11,7,,,,,,,,,,,AFNE10.jpg,AFNE15.jpg,AFSA03.jpg,AFSA07.jpg,AFSA07.jpg,FS,4,num_4,32,num_2,2.19998428371,,,2017_Mar_15_1218,60.0751085777,MAFE4ImagesEEG,001,100028,
AFNE01.JPG,AFNE01.JPG,AFNE01.JPG,AFNE01.JPG,AFNE01.JPG,AFNE01.JPG,,,,,,,,,,,,,1,2,12,8,,,,,,,,,,,AFSA16.jpg,AFNE08.jpg,AFSA07.jpg,AFNE17.jpg,AFNE17.jpg,FN,3,num_4,16,num_4,0.716455245565,,,2017_Mar_15_1218,60.0751085777,MAFE4ImagesEEG,001,100028,
AFNE01.JPG,AFNE01.JPG,AFNE01.JPG,AFNE01.JPG,AFNE01.JPG,AFNE01.JPG,,,,,,,,,,,,,1,3,13,5,,,,,,,,,,,AFSA20.jpg,AFSA10.jpg,AFNE10.jpg,AFNE08.jpg,AFNE10.jpg,FN,3,num_2,16,num_2,0.999870100291,,,2017_Mar_15_1218,60.0751085777,MAFE4ImagesEEG,001,100028,
AFNE01.JPG,AFNE01.JPG,AFNE01.JPG,AFNE01.JPG,AFNE01.JPG,AFNE01.JPG,,,,,,,,,,,,,1,4,14,4,,,,,,,,,,,AFSA12.jpg,AFNE11.jpg,AFNE04.jpg,AFSA05.jpg,AFNE04.jpg,FN,3,num_2,16,num_2,1.43341180775,,,2017_Mar_15_1218,60.0751085777,MAFE4ImagesEEG,001,100028,
AFNE01.JPG,AFNE01.JPG,AFNE01.JPG,AFNE01.JPG,AFNE01.JPG,AFNE01.JPG,,,,,,,,,,,,,1,5,15,2,,,,,,,,,,,AFSA18.jpg,AFNE18.jpg,AFSA02.jpg,AFNE04.jpg,AFSA02.jpg,FS,4,num_2,32,num_8,1.50009590125,,,2017_Mar_15_1218,60.0751085777,MAFE4ImagesEEG,001,100028,
AFNE01.JPG,AFNE01.JPG,AFNE01.JPG,AFNE01.JPG,AFNE01.JPG,AFNE01.JPG,,,,,,,,,,,,,1,6,16,3,,,,,,,,,,,AFSA16.jpg,AFNE17.jpg,AFSA02.jpg,AFNE12.jpg,AFSA16.jpg,FS,4,num_8,32,num_6,1.05012268305,,,2017_Mar_15_1218,60.0751085777,MAFE4ImagesEEG,001,100028,
AFNE01.JPG,AFNE01.JPG,AFNE01.JPG,AFNE01.JPG,AFNE01.JPG,AFNE01.JPG,,,,,,,,,,,,,1,7,17,1,,,,,,,,,,,AFSA05.jpg,AFNE15.jpg,AFNE14.jpg,AFSA03.jpg,AFSA05.jpg,FS,4,num_8,16,num_8,0.566799880704,,,2017_Mar_15_1218,60.0751085777,MAFE4ImagesEEG,001,100028,
AFNE01.JPG,AFNE01.JPG,AFNE01.JPG,AFNE01.JPG,AFNE01.JPG,AFNE01.JPG,,,,,,,,,,,,,1,8,18,9,,,,,,,,,,,AFSA19.jpg,AFNE12.jpg,AFSA03.jpg,AFNE20.jpg,AFSA03.jpg,FS,4,num_2,32,num_8,1.50010873086,,,2017_Mar_15_1218,60.0751085777,MAFE4ImagesEEG,001,100028,
AFNE01.JPG,AFNE01.JPG,AFNE01.JPG,AFNE01.JPG,AFNE01.JPG,AFNE01.JPG,,,,,,,,,,,,,1,9,19,0,,,,,,,,,,,AFNE16.jpg,AFNE14.jpg,AFSA18.jpg,AFSA16.jpg,AFSA18.jpg,FS,4,num_2,16,num_2,1.29998524598,,,2017_Mar_15_1218,60.0751085777,MAFE4ImagesEEG,001,100028,
AFNE01.JPG,AFNE01.JPG,AFNE01.JPG,AFNE01.JPG,AFNE01.JPG,AFNE01.JPG,,,,,,,,,,,,,2,0,20,8,,,,,,,,,,,AFSA02.jpg,AFSA06.jpg,AFNE15.jpg,AFNE06.jpg,AFSA02.jpg,FS,4,num_8,32,num_6,0.566772617807,,,2017_Mar_15_1218,60.0751085777,MAFE4ImagesEEG,001,100028,
AFNE01.JPG,AFNE01.JPG,AFNE01.JPG,AFNE01.JPG,AFNE01.JPG,AFNE01.JPG,,,,,,,,,,,,,2,1,21,1,,,,,,,,,,,AFSA19.jpg,AFSA16.jpg,AFNE13.jpg,AFNE20.jpg,AFNE13.jpg,FN,3,num_2,16,num_2,1.15006206319,,,2017_Mar_15_1218,60.0751085777,MAFE4ImagesEEG,001,100028,
AFNE01.JPG,AFNE01.JPG,AFNE01.JPG,AFNE01.JPG,AFNE01.JPG,AFNE01.JPG,,,,,,,,,,,,,2,2,22,0,,,,,,,,,,,AFSA09.jpg,AFNE10.jpg,AFSA16.jpg,AFNE15.jpg,AFNE10.jpg,FN,3,num_6,32,num_4,0.916622030374,,,2017_Mar_15_1218,60.0751085777,MAFE4ImagesEEG,001,100028,
AFNE01.JPG,AFNE01.JPG,AFNE01.JPG,AFNE01.JPG,AFNE01.JPG,AFNE01.JPG,,,,,,,,,,,,,2,3,23,5,,,,,,,,,,,AFNE10.jpg,AFSA06.jpg,AFNE09.jpg,AFSA05.jpg,AFNE09.jpg,FN,3,num_2,32,num_8,0.683451419114,,,2017_Mar_15_1218,60.0751085777,MAFE4ImagesEEG,001,100028,
AFNE01.JPG,AFNE01.JPG,AFNE01.JPG,AFNE01.JPG,AFNE01.JPG,AFNE01.JPG,,,,,,,,,,,,,2,4,24,3,,,,,,,,,,,AFNE03.jpg,AFSA13.jpg,AFNE10.jpg,AFSA16.jpg,AFNE10.jpg,FN,3,num_2,16,num_2,1.21674198715,,,2017_Mar_15_1218,60.0751085777,MAFE4ImagesEEG,001,100028,
AFNE01.JPG,AFNE01.JPG,AFNE01.JPG,AFNE01.JPG,AFNE01.JPG,AFNE01.JPG,,,,,,,,,,,,,2,5,25,4,,,,,,,,,,,AFNE14.jpg,AFNE02.jpg,AFSA11.jpg,AFSA17.jpg,AFSA17.jpg,FS,4,num_4,16,num_4,1.21686579275,,,2017_Mar_15_1218,60.0751085777,MAFE4ImagesEEG,001,100028,
AFNE01.JPG,AFNE01.JPG,AFNE01.JPG,AFNE01.JPG,AFNE01.JPG,AFNE01.JPG,,,,,,,,,,,,,2,6,26,6,,,,,,,,,,,AFSA15.jpg,AFNE12.jpg,AFNE07.jpg,AFSA13.jpg,AFSA13.jpg,FS,4,num_4,16,num_4,0.533505784522,,,2017_Mar_15_1218,60.0751085777,MAFE4ImagesEEG,001,100028,
AFNE01.JPG,AFNE01.JPG,AFNE01.JPG,AFNE01.JPG,AFNE01.JPG,AFNE01.JPG,,,,,,,,,,,,,2,7,27,7,,,,,,,,,,,AFSA17.jpg,AFNE08.jpg,AFNE07.jpg,AFSA15.jpg,AFSA15.jpg,FS,4,num_4,16,num_4,0.683756442857,,,2017_Mar_15_1218,60.0751085777,MAFE4ImagesEEG,001,100028,
AFNE01.JPG,AFNE01.JPG,AFNE01.JPG,AFNE01.JPG,AFNE01.JPG,AFNE01.JPG,,,,,,,,,,,,,2,8,28,9,,,,,,,,,,,AFSA09.jpg,AFNE16.jpg,AFSA14.jpg,AFNE15.jpg,AFNE15.jpg,FN,3,num_4,32,num_6,0.666762995592,,,2017_Mar_15_1218,60.0751085777,MAFE4ImagesEEG,001,100028,
AFNE01.JPG,AFNE01.JPG,AFNE01.JPG,AFNE01.JPG,AFNE01.JPG,AFNE01.JPG,,,,,,,,,,,,,2,9,29,2,,,,,,,,,,,AFNE18.jpg,AFSA03.jpg,AFSA19.jpg,AFNE02.jpg,AFSA03.jpg,FS,4,num_6,16,num_6,1.51673877973,,,2017_Mar_15_1218,60.0751085777,MAFE4ImagesEEG,001,100028,
AFNE01.JPG,AFNE01.JPG,AFNE01.JPG,AFNE01.JPG,AFNE01.JPG,AFNE01.JPG,,,,,,,,,,,,,3,0,30,1,,,,,,,,,,,AFNE13.jpg,AFSA16.jpg,AFSA18.jpg,AFNE20.jpg,AFNE13.jpg,FN,3,num_8,16,num_8,0.983482851647,,,2017_Mar_15_1218,60.0751085777,MAFE4ImagesEEG,001,100028,
AFNE01.JPG,AFNE01.JPG,AFNE01.JPG,AFNE01.JPG,AFNE01.JPG,AFNE01.JPG,,,,,,,,,,,,,3,1,31,8,,,,,,,,,,,AFSA08.jpg,AFNE09.jpg,AFNE17.jpg,AFSA05.jpg,AFSA08.jpg,FS,4,num_8,32,num_4,0.650150587433,,,2017_Mar_15_1218,60.0751085777,MAFE4ImagesEEG,001,100028,
AFNE01.JPG,AFNE01.JPG,AFNE01.JPG,AFNE01.JPG,AFNE01.JPG,AFNE01.JPG,,,,,,,,,,,,,3,2,32,6,,,,,,,,,,,AFSA09.jpg,AFSA18.jpg,AFNE15.jpg,AFNE19.jpg,AFSA09.jpg,FS,4,num_8,32,num_6,0.833458956506,,,2017_Mar_15_1218,60.0751085777,MAFE4ImagesEEG,001,100028,
AFNE01.JPG,AFNE01.JPG,AFNE01.JPG,AFNE01.JPG,AFNE01.JPG,AFNE01.JPG,,,,,,,,,,,,,3,3,33,7,,,,,,,,,,,AFNE06.jpg,AFSA05.jpg,AFNE14.jpg,AFSA02.jpg,AFSA05.jpg,FS,4,num_6,16,num_6,0.733460880991,,,2017_Mar_15_1218,60.0751085777,MAFE4ImagesEEG,001,100028,
AFNE01.JPG,AFNE01.JPG,AFNE01.JPG,AFNE01.JPG,AFNE01.JPG,AFNE01.JPG,,,,,,,,,,,,,3,4,34,0,,,,,,,,,,,AFSA03.jpg,AFNE07.jpg,AFSA01.jpg,AFNE02.jpg,AFSA03.jpg,FS,4,num_8,32,num_2,0.816810304706,,,2017_Mar_15_1218,60.0751085777,MAFE4ImagesEEG,001,100028,
AFNE01.JPG,AFNE01.JPG,AFNE01.JPG,AFNE01.JPG,AFNE01.JPG,AFNE01.JPG,,,,,,,,,,,,,3,5,35,3,,,,,,,,,,,AFSA19.jpg,AFSA20.jpg,AFNE17.jpg,AFNE08.jpg,AFSA20.jpg,FS,4,num_6,16,num_6,0.949859034736,,,2017_Mar_15_1218,60.0751085777,MAFE4ImagesEEG,001,100028,
AFNE01.JPG,AFNE01.JPG,AFNE01.JPG,AFNE01.JPG,AFNE01.JPG,AFNE01.JPG,,,,,,,,,,,,,3,6,36,4,,,,,,,,,,,AFNE05.jpg,AFSA18.jpg,AFNE19.jpg,AFSA10.jpg,AFNE05.jpg,FN,3,num_8,32,num_4,0.950128777127,,,2017_Mar_15_1218,60.0751085777,MAFE4ImagesEEG,001,100028,
AFNE01.JPG,AFNE01.JPG,AFNE01.JPG,AFNE01.JPG,AFNE01.JPG,AFNE01.JPG,,,,,,,,,,,,,3,7,37,9,,,,,,,,,,,AFSA20.jpg,AFNE13.jpg,AFNE18.jpg,AFSA15.jpg,AFSA20.jpg,FS,4,num_8,16,num_8,1.06675914675,,,2017_Mar_15_1218,60.0751085777,MAFE4ImagesEEG,001,100028,
AFNE01.JPG,AFNE01.JPG,AFNE01.JPG,AFNE01.JPG,AFNE01.JPG,AFNE01.JPG,,,,,,,,,,,,,3,8,38,2,,,,,,,,,,,AFSA16.jpg,AFNE04.jpg,AFSA05.jpg,AFNE02.jpg,AFSA16.jpg,FS,4,num_8,16,num_8,1.15006302542,,,2017_Mar_15_1218,60.0751085777,MAFE4ImagesEEG,001,100028,
AFNE01.JPG,AFNE01.JPG,AFNE01.JPG,AFNE01.JPG,AFNE01.JPG,AFNE01.JPG,,,,,,,,,,,,,3,9,39,5,,,,,,,,,,,AFSA14.jpg,AFNE01.jpg,AFSA04.jpg,AFNE19.jpg,AFNE01.jpg,FN,3,num_6,16,num_6,1.30011867383,,,2017_Mar_15_1218,60.0751085777,MAFE4ImagesEEG,001,100028,
AFNE01.JPG,AFNE01.JPG,AFNE01.JPG,AFNE01.JPG,AFNE01.JPG,AFNE01.JPG,,,,,,,,,,,,,4,0,40,0,,,,,,,,,,,AFNE02.jpg,AFNE09.jpg,AFSA05.jpg,AFSA08.jpg,AFNE09.jpg,FN,3,num_6,16,num_6,0.900202386954,,,2017_Mar_15_1218,60.0751085777,MAFE4ImagesEEG,001,100028,
AFNE01.JPG,AFNE01.JPG,AFNE01.JPG,AFNE01.JPG,AFNE01.JPG,AFNE01.JPG,,,,,,,,,,,,,4,1,41,4,,,,,,,,,,,AFNE02.jpg,AFNE10.jpg,AFSA13.jpg,AFSA06.jpg,AFSA06.jpg,FS,4,num_4,16,num_4,1.20009718422,,,2017_Mar_15_1218,60.0751085777,MAFE4ImagesEEG,001,100028,
AFNE01.JPG,AFNE01.JPG,AFNE01.JPG,AFNE01.JPG,AFNE01.JPG,AFNE01.JPG,,,,,,,,,,,,,4,2,42,5,,,,,,,,,,,AFSA01.jpg,AFNE09.jpg,AFSA18.jpg,AFNE10.jpg,AFSA18.jpg,FS,4,num_2,16,num_2,0.866807578423,,,2017_Mar_15_1218,60.0751085777,MAFE4ImagesEEG,001,100028,
AFNE01.JPG,AFNE01.JPG,AFNE01.JPG,AFNE01.JPG,AFNE01.JPG,AFNE01.JPG,,,,,,,,,,,,,4,3,43,8,,,,,,,,,,,AFNE11.jpg,AFSA14.jpg,AFSA19.jpg,AFNE05.jpg,AFNE11.jpg,FN,3,num_8,16,num_8,0.816764438874,,,2017_Mar_15_1218,60.0751085777,MAFE4ImagesEEG,001,100028,
AFNE01.JPG,AFNE01.JPG,AFNE01.JPG,AFNE01.JPG,AFNE01.JPG,AFNE01.JPG,,,,,,,,,,,,,4,4,44,9,,,,,,,,,,,AFSA02.jpg,AFNE12.jpg,AFNE05.jpg,AFSA04.jpg,AFSA02.jpg,FS,4,num_8,32,num_4,0.916653783584,,,2017_Mar_15_1218,60.0751085777,MAFE4ImagesEEG,001,100028,
AFNE01.JPG,AFNE01.JPG,AFNE01.JPG,AFNE01.JPG,AFNE01.JPG,AFNE01.JPG,,,,,,,,,,,,,4,5,45,3,,,,,,,,,,,AFNE03.jpg,AFSA07.jpg,AFNE14.jpg,AFSA06.jpg,AFNE14.jpg,FN,3,num_2,32,num_6,0.983557263331,,,2017_Mar_15_1218,60.0751085777,MAFE4ImagesEEG,001,100028,
AFNE01.JPG,AFNE01.JPG,AFNE01.JPG,AFNE01.JPG,AFNE01.JPG,AFNE01.JPG,,,,,,,,,,,,,4,6,46,2,,,,,,,,,,,AFNE16.jpg,AFNE07.jpg,AFSA03.jpg,AFSA16.jpg,AFSA16.jpg,FS,4,num_4,16,num_4,0.833411807718,,,2017_Mar_15_1218,60.0751085777,MAFE4ImagesEEG,001,100028,
AFNE01.JPG,AFNE01.JPG,AFNE01.JPG,AFNE01.JPG,AFNE01.JPG,AFNE01.JPG,,,,,,,,,,,,,4,7,47,1,,,,,,,,,,,AFNE12.jpg,AFSA10.jpg,AFSA20.jpg,AFNE02.jpg,AFSA20.jpg,FS,4,num_2,16,num_2,0.650300693756,,,2017_Mar_15_1218,60.0751085777,MAFE4ImagesEEG,001,100028,
AFNE01.JPG,AFNE01.JPG,AFNE01.JPG,AFNE01.JPG,AFNE01.JPG,AFNE01.JPG,,,,,,,,,,,,,4,8,48,6,,,,,,,,,,,AFNE12.jpg,AFSA03.jpg,AFSA20.jpg,AFNE19.jpg,AFNE19.jpg,FN,3,num_4,32,num_8,1.03334509378,,,2017_Mar_15_1218,60.0751085777,MAFE4ImagesEEG,001,100028,
AFNE01.JPG,AFNE01.JPG,AFNE01.JPG,AFNE01.JPG,AFNE01.JPG,AFNE01.JPG,,,,,,,,,,,,,4,9,49,7,,,,,,,,,,,AFSA16.jpg,AFNE07.jpg,AFNE19.jpg,AFSA11.jpg,AFNE19.jpg,FN,3,num_2,32,num_6,0.683478361287,,,2017_Mar_15_1218,60.0751085777,MAFE4ImagesEEG,001,100028,
AFNE01.JPG,AFNE01.JPG,AFNE01.JPG,AFNE01.JPG,AFNE01.JPG,AFNE01.JPG,,,,,,,,,,,,,5,0,50,9,,,,,,,,,,,AFSA19.jpg,AFNE17.jpg,AFSA06.jpg,AFNE08.jpg,AFNE17.jpg,FN,3,num_6,16,num_6,0.866768127424,,,2017_Mar_15_1218,60.0751085777,MAFE4ImagesEEG,001,100028,
AFNE01.JPG,AFNE01.JPG,AFNE01.JPG,AFNE01.JPG,AFNE01.JPG,AFNE01.JPG,,,,,,,,,,,,,5,1,51,8,,,,,,,,,,,AFNE04.jpg,AFSA13.jpg,AFNE19.jpg,AFSA15.jpg,AFNE19.jpg,FN,3,num_2,32,num_6,0.800160049228,,,2017_Mar_15_1218,60.0751085777,MAFE4ImagesEEG,001,100028,
AFNE01.JPG,AFNE01.JPG,AFNE01.JPG,AFNE01.JPG,AFNE01.JPG,AFNE01.JPG,,,,,,,,,,,,,5,2,52,7,,,,,,,,,,,AFSA07.jpg,AFNE16.jpg,AFNE20.jpg,AFSA09.jpg,AFSA09.jpg,FS,4,num_4,32,num_8,0.666737657099,,,2017_Mar_15_1218,60.0751085777,MAFE4ImagesEEG,001,100028,
AFNE01.JPG,AFNE01.JPG,AFNE01.JPG,AFNE01.JPG,AFNE01.JPG,AFNE01.JPG,,,,,,,,,,,,,5,3,53,5,,,,,,,,,,,AFSA03.jpg,AFNE19.jpg,AFSA05.jpg,AFNE16.jpg,AFNE19.jpg,FN,3,num_6,16,num_6,0.666772617784,,,2017_Mar_15_1218,60.0751085777,MAFE4ImagesEEG,001,100028,
AFNE01.JPG,AFNE01.JPG,AFNE01.JPG,AFNE01.JPG,AFNE01.JPG,AFNE01.JPG,,,,,,,,,,,,,5,4,54,4,,,,,,,,,,,AFNE03.jpg,AFSA17.jpg,AFSA03.jpg,AFNE15.jpg,AFSA17.jpg,FS,4,num_6,16,num_6,0.600135673012,,,2017_Mar_15_1218,60.0751085777,MAFE4ImagesEEG,001,100028,
AFNE01.JPG,AFNE01.JPG,AFNE01.JPG,AFNE01.JPG,AFNE01.JPG,AFNE01.JPG,,,,,,,,,,,,,5,5,55,6,,,,,,,,,,,AFNE13.jpg,AFSA16.jpg,AFNE05.jpg,AFSA12.jpg,AFNE05.jpg,FN,3,num_2,32,num_8,1.30008884502,,,2017_Mar_15_1218,60.0751085777,MAFE4ImagesEEG,001,100028,
AFNE01.JPG,AFNE01.JPG,AFNE01.JPG,AFNE01.JPG,AFNE01.JPG,AFNE01.JPG,,,,,,,,,,,,,5,6,56,2,,,,,,,,,,,AFNE18.jpg,AFSA06.jpg,AFSA01.jpg,AFNE20.jpg,AFNE20.jpg,FN,3,num_4,32,num_8,1.01674872264,,,2017_Mar_15_1218,60.0751085777,MAFE4ImagesEEG,001,100028,
AFNE01.JPG,AFNE01.JPG,AFNE01.JPG,AFNE01.JPG,AFNE01.JPG,AFNE01.JPG,,,,,,,,,,,,,5,7,57,3,,,,,,,,,,,AFSA10.jpg,AFNE03.jpg,AFNE17.jpg,AFSA01.jpg,AFNE17.jpg,FN,3,num_2,32,num_6,0.866642718029,,,2017_Mar_15_1218,60.0751085777,MAFE4ImagesEEG,001,100028,
AFNE01.JPG,AFNE01.JPG,AFNE01.JPG,AFNE01.JPG,AFNE01.JPG,AFNE01.JPG,,,,,,,,,,,,,5,8,58,0,,,,,,,,,,,AFNE03.jpg,AFNE01.jpg,AFSA17.jpg,AFSA05.jpg,AFNE01.jpg,FN,3,num_6,16,num_6,0.716779834416,,,2017_Mar_15_1218,60.0751085777,MAFE4ImagesEEG,001,100028,
AFNE01.JPG,AFNE01.JPG,AFNE01.JPG,AFNE01.JPG,AFNE01.JPG,AFNE01.JPG,,,,,,,,,,,,,5,9,59,1,,,,,,,,,,,AFSA06.jpg,AFSA11.jpg,AFNE15.jpg,AFNE01.jpg,AFNE01.jpg,FN,3,num_4,32,num_6,1.24997257674,,,2017_Mar_15_1218,60.0751085777,MAFE4ImagesEEG,001,100028,
,,,,,,,,,,,,,,,,,,,,,,,,,,,,,,,,,,,,,,,,,,,space,12.4328267779,2017_Mar_15_1218,60.0751085777,MAFE4ImagesEEG,001,100028,
AFNE01.JPG,AFNE01.JPG,AFNE01.JPG,AFNE01.JPG,AFNE01.JPG,AFNE01.JPG,,,,,,,,,,,,,,,,,0,0,0,6,,,,,,,AMSA14.jpg,AMNE12.jpg,AMNE10.jpg,AMSA19.jpg,AMNE12.jpg,MN,1,num_6,16,num_6,0.58533384226,,,2017_Mar_15_1218,60.0751085777,MAFE4ImagesEEG,001,100028,
AFNE01.JPG,AFNE01.JPG,AFNE01.JPG,AFNE01.JPG,AFNE01.JPG,AFNE01.JPG,,,,,,,,,,,,,,,,,0,1,1,2,,,,,,,AMNE13.jpg,AMSA08.jpg,AMNE07.jpg,AMSA09.jpg,AMNE07.jpg,MN,1,num_2,32,num_8,0.733428486215,,,2017_Mar_15_1218,60.0751085777,MAFE4ImagesEEG,001,100028,
AFNE01.JPG,AFNE01.JPG,AFNE01.JPG,AFNE01.JPG,AFNE01.JPG,AFNE01.JPG,,,,,,,,,,,,,,,,,0,2,2,3,,,,,,,AMNE14.jpg,AMSA17.jpg,AMNE15.jpg,AMSA05.jpg,AMSA17.jpg,MS,2,num_6,16,num_6,0.583456230233,,,2017_Mar_15_1218,60.0751085777,MAFE4ImagesEEG,001,100028,
AFNE01.JPG,AFNE01.JPG,AFNE01.JPG,AFNE01.JPG,AFNE01.JPG,AFNE01.JPG,,,,,,,,,,,,,,,,,0,3,3,0,,,,,,,AMSA13.jpg,AMNE06.jpg,AMNE09.jpg,AMSA06.jpg,AMNE06.jpg,MN,1,num_6,16,num_6,0.733508671168,,,2017_Mar_15_1218,60.0751085777,MAFE4ImagesEEG,001,100028,
AFNE01.JPG,AFNE01.JPG,AFNE01.JPG,AFNE01.JPG,AFNE01.JPG,AFNE01.JPG,,,,,,,,,,,,,,,,,0,4,4,8,,,,,,,AMSA17.jpg,AMNE15.jpg,AMSA04.jpg,AMNE07.jpg,AMNE07.jpg,MN,1,num_4,32,num_6,0.866771976289,,,2017_Mar_15_1218,60.0751085777,MAFE4ImagesEEG,001,100028,
AFNE01.JPG,AFNE01.JPG,AFNE01.JPG,AFNE01.JPG,AFNE01.JPG,AFNE01.JPG,,,,,,,,,,,,,,,,,0,5,5,4,,,,,,,AMSA15.jpg,AMNE07.jpg,AMNE19.jpg,AMSA06.jpg,AMNE19.jpg,MN,1,num_2,32,num_6,0.716804531403,,,2017_Mar_15_1218,60.0751085777,MAFE4ImagesEEG,001,100028,
AFNE01.JPG,AFNE01.JPG,AFNE01.JPG,AFNE01.JPG,AFNE01.JPG,AFNE01.JPG,,,,,,,,,,,,,,,,,0,6,6,7,,,,,,,AMSA04.jpg,AMNE10.jpg,AMSA03.jpg,AMNE19.jpg,AMNE19.jpg,MN,1,num_4,16,num_4,0.917068179697,,,2017_Mar_15_1218,60.0751085777,MAFE4ImagesEEG,001,100028,
AFNE01.JPG,AFNE01.JPG,AFNE01.JPG,AFNE01.JPG,AFNE01.JPG,AFNE01.JPG,,,,,,,,,,,,,,,,,0,7,7,5,,,,,,,AMNE19.jpg,AMSA18.jpg,AMNE18.jpg,AMSA07.jpg,AMNE19.jpg,MN,1,num_8,16,num_8,1.15011755121,,,2017_Mar_15_1218,60.0751085777,MAFE4ImagesEEG,001,100028,
AFNE01.JPG,AFNE01.JPG,AFNE01.JPG,AFNE01.JPG,AFNE01.JPG,AFNE01.JPG,,,,,,,,,,,,,,,,,0,8,8,1,,,,,,,AMNE04.jpg,AMNE03.jpg,AMSA14.jpg,AMSA09.jpg,AMNE03.jpg,MN,1,num_6,16,num_6,1.03344869282,,,2017_Mar_15_1218,60.0751085777,MAFE4ImagesEEG,001,100028,
AFNE01.JPG,AFNE01.JPG,AFNE01.JPG,AFNE01.JPG,AFNE01.JPG,AFNE01.JPG,,,,,,,,,,,,,,,,,0,9,9,9,,,,,,,AMSA15.jpg,AMNE07.jpg,AMSA19.jpg,AMNE08.jpg,AMSA15.jpg,MS,2,num_8,16,num_8,0.866756580828,,,2017_Mar_15_1218,60.0751085777,MAFE4ImagesEEG,001,100028,
AFNE01.JPG,AFNE01.JPG,AFNE01.JPG,AFNE01.JPG,AFNE01.JPG,AFNE01.JPG,,,,,,,,,,,,,,,,,1,0,10,6,,,,,,,AMSA04.jpg,AMNE20.jpg,AMSA09.jpg,AMNE14.jpg,AMSA09.jpg,MS,2,num_2,16,num_2,0.716780475923,,,2017_Mar_15_1218,60.0751085777,MAFE4ImagesEEG,001,100028,
AFNE01.JPG,AFNE01.JPG,AFNE01.JPG,AFNE01.JPG,AFNE01.JPG,AFNE01.JPG,,,,,,,,,,,,,,,,,1,1,11,8,,,,,,,AMSA04.jpg,AMNE09.jpg,AMSA01.jpg,AMNE01.jpg,AMNE09.jpg,MN,1,num_6,16,num_6,0.666775504476,,,2017_Mar_15_1218,60.0751085777,MAFE4ImagesEEG,001,100028,
AFNE01.JPG,AFNE01.JPG,AFNE01.JPG,AFNE01.JPG,AFNE01.JPG,AFNE01.JPG,,,,,,,,,,,,,,,,,1,2,12,3,,,,,,,AMSA09.jpg,AMSA11.jpg,AMNE03.jpg,AMNE09.jpg,AMNE03.jpg,MN,1,num_2,32,num_4,0.883429288107,,,2017_Mar_15_1218,60.0751085777,MAFE4ImagesEEG,001,100028,
AFNE01.JPG,AFNE01.JPG,AFNE01.JPG,AFNE01.JPG,AFNE01.JPG,AFNE01.JPG,,,,,,,,,,,,,,,,,1,3,13,7,,,,,,,AMSA11.jpg,AMNE13.jpg,AMSA09.jpg,AMNE09.jpg,AMNE09.jpg,MN,1,num_4,32,num_6,1.05009606166,,,2017_Mar_15_1218,60.0751085777,MAFE4ImagesEEG,001,100028,
AFNE01.JPG,AFNE01.JPG,AFNE01.JPG,AFNE01.JPG,AFNE01.JPG,AFNE01.JPG,,,,,,,,,,,,,,,,,1,4,14,4,,,,,,,AMSA08.jpg,AMSA07.jpg,AMNE18.jpg,AMNE11.jpg,AMSA07.jpg,MS,2,num_6,16,num_6,0.650215697649,,,2017_Mar_15_1218,60.0751085777,MAFE4ImagesEEG,001,100028,
AFNE01.JPG,AFNE01.JPG,AFNE01.JPG,AFNE01.JPG,AFNE01.JPG,AFNE01.JPG,,,,,,,,,,,,,,,,,1,5,15,0,,,,,,,AMSA18.jpg,AMNE17.jpg,AMNE03.jpg,AMSA04.jpg,AMSA18.jpg,MS,2,num_8,32,num_4,1.30008692056,,,2017_Mar_15_1218,60.0751085777,MAFE4ImagesEEG,001,100028,
AFNE01.JPG,AFNE01.JPG,AFNE01.JPG,AFNE01.JPG,AFNE01.JPG,AFNE01.JPG,,,,,,,,,,,,,,,,,1,6,16,2,,,,,,,AMNE04.jpg,AMSA02.jpg,AMNE02.jpg,AMSA16.jpg,AMSA16.jpg,MS,2,num_4,16,num_4,1.0334162981,,,2017_Mar_15_1218,60.0751085777,MAFE4ImagesEEG,001,100028,
AFNE01.JPG,AFNE01.JPG,AFNE01.JPG,AFNE01.JPG,AFNE01.JPG,AFNE01.JPG,,,,,,,,,,,,,,,,,1,7,17,9,,,,,,,AMSA05.jpg,AMNE07.jpg,AMNE05.jpg,AMSA02.jpg,AMNE07.jpg,MN,1,num_6,16,num_6,0.783473229443,,,2017_Mar_15_1218,60.0751085777,MAFE4ImagesEEG,001,100028,
AFNE01.JPG,AFNE01.JPG,AFNE01.JPG,AFNE01.JPG,AFNE01.JPG,AFNE01.JPG,,,,,,,,,,,,,,,,,1,8,18,1,,,,,,,AMNE20.jpg,AMSA20.jpg,AMNE11.jpg,AMSA10.jpg,AMSA10.jpg,MS,2,num_4,16,num_4,1.01678817364,,,2017_Mar_15_1218,60.0751085777,MAFE4ImagesEEG,001,100028,
AFNE01.JPG,AFNE01.JPG,AFNE01.JPG,AFNE01.JPG,AFNE01.JPG,AFNE01.JPG,,,,,,,,,,,,,,,,,1,9,19,5,,,,,,,AMSA10.jpg,AMNE03.jpg,AMSA20.jpg,AMNE12.jpg,AMNE12.jpg,MN,1,num_4,16,num_4,1.21680036181,,,2017_Mar_15_1218,60.0751085777,MAFE4ImagesEEG,001,100028,
AFNE01.JPG,AFNE01.JPG,AFNE01.JPG,AFNE01.JPG,AFNE01.JPG,AFNE01.JPG,,,,,,,,,,,,,,,,,2,0,20,3,,,,,,,AMNE17.jpg,AMNE03.jpg,AMSA04.jpg,AMSA03.jpg,AMSA03.jpg,MS,2,num_4,16,num_4,1.08344564581,,,2017_Mar_15_1218,60.0751085777,MAFE4ImagesEEG,001,100028,
AFNE01.JPG,AFNE01.JPG,AFNE01.JPG,AFNE01.JPG,AFNE01.JPG,AFNE01.JPG,,,,,,,,,,,,,,,,,2,1,21,4,,,,,,,AMSA09.jpg,AMSA02.jpg,AMNE13.jpg,AMNE09.jpg,AMSA09.jpg,MS,2,num_8,16,num_8,1.08346809761,,,2017_Mar_15_1218,60.0751085777,MAFE4ImagesEEG,001,100028,
AFNE01.JPG,AFNE01.JPG,AFNE01.JPG,AFNE01.JPG,AFNE01.JPG,AFNE01.JPG,,,,,,,,,,,,,,,,,2,2,22,6,,,,,,,AMSA08.jpg,AMNE01.jpg,AMSA03.jpg,AMNE09.jpg,AMNE01.jpg,MN,1,num_6,16,num_6,0.816765401163,,,2017_Mar_15_1218,60.0751085777,MAFE4ImagesEEG,001,100028,
AFNE01.JPG,AFNE01.JPG,AFNE01.JPG,AFNE01.JPG,AFNE01.JPG,AFNE01.JPG,,,,,,,,,,,,,,,,,2,3,23,1,,,,,,,AMNE13.jpg,AMSA20.jpg,AMNE05.jpg,AMSA15.jpg,AMNE05.jpg,MN,1,num_2,32,num_8,1.05008002464,,,2017_Mar_15_1218,60.0751085777,MAFE4ImagesEEG,001,100028,
AFNE01.JPG,AFNE01.JPG,AFNE01.JPG,AFNE01.JPG,AFNE01.JPG,AFNE01.JPG,,,,,,,,,,,,,,,,,2,4,24,0,,,,,,,AMSA05.jpg,AMNE11.jpg,AMSA10.jpg,AMNE15.jpg,AMSA10.jpg,MS,2,num_2,32,num_6,0.966810144368,,,2017_Mar_15_1218,60.0751085777,MAFE4ImagesEEG,001,100028,
AFNE01.JPG,AFNE01.JPG,AFNE01.JPG,AFNE01.JPG,AFNE01.JPG,AFNE01.JPG,,,,,,,,,,,,,,,,,2,5,25,5,,,,,,,AMNE07.jpg,AMSA16.jpg,AMSA10.jpg,AMNE03.jpg,AMSA16.jpg,MS,2,num_6,16,num_6,0.416802286229,,,2017_Mar_15_1218,60.0751085777,MAFE4ImagesEEG,001,100028,
AFNE01.JPG,AFNE01.JPG,AFNE01.JPG,AFNE01.JPG,AFNE01.JPG,AFNE01.JPG,,,,,,,,,,,,,,,,,2,6,26,8,,,,,,,AMNE15.jpg,AMSA11.jpg,AMNE09.jpg,AMSA01.jpg,AMNE09.jpg,MN,1,num_2,32,num_8,0.716781117371,,,2017_Mar_15_1218,60.0751085777,MAFE4ImagesEEG,001,100028,
AFNE01.JPG,AFNE01.JPG,AFNE01.JPG,AFNE01.JPG,AFNE01.JPG,AFNE01.JPG,,,,,,,,,,,,,,,,,2,7,27,7,,,,,,,AMSA10.jpg,AMSA14.jpg,AMNE20.jpg,AMNE13.jpg,AMNE20.jpg,MN,1,num_2,32,num_8,0.750150266686,,,2017_Mar_15_1218,60.0751085777,MAFE4ImagesEEG,001,100028,
AFNE01.JPG,AFNE01.JPG,AFNE01.JPG,AFNE01.JPG,AFNE01.JPG,AFNE01.JPG,,,,,,,,,,,,,,,,,2,8,28,9,,,,,,,AMSA04.jpg,AMNE19.jpg,AMNE11.jpg,AMSA19.jpg,AMSA04.jpg,MS,2,num_8,16,num_8,0.683453985024,,,2017_Mar_15_1218,60.0751085777,MAFE4ImagesEEG,001,100028,
AFNE01.JPG,AFNE01.JPG,AFNE01.JPG,AFNE01.JPG,AFNE01.JPG,AFNE01.JPG,,,,,,,,,,,,,,,,,2,9,29,2,,,,,,,AMNE20.jpg,AMSA05.jpg,AMNE13.jpg,AMSA08.jpg,AMSA05.jpg,MS,2,num_6,16,num_6,1.01676475967,,,2017_Mar_15_1218,60.0751085777,MAFE4ImagesEEG,001,100028,
AFNE01.JPG,AFNE01.JPG,AFNE01.JPG,AFNE01.JPG,AFNE01.JPG,AFNE01.JPG,,,,,,,,,,,,,,,,,3,0,30,9,,,,,,,AMNE05.jpg,AMNE14.jpg,AMSA15.jpg,AMSA12.jpg,AMSA15.jpg,MS,2,num_2,16,num_2,0.716784966236,,,2017_Mar_15_1218,60.0751085777,MAFE4ImagesEEG,001,100028,
AFNE01.JPG,AFNE01.JPG,AFNE01.JPG,AFNE01.JPG,AFNE01.JPG,AFNE01.JPG,,,,,,,,,,,,,,,,,3,1,31,1,,,,,,,AMSA19.jpg,AMSA10.jpg,AMNE11.jpg,AMNE06.jpg,AMNE06.jpg,MN,1,num_4,16,num_4,0.833466975018,,,2017_Mar_15_1218,60.0751085777,MAFE4ImagesEEG,001,100028,
AFNE01.JPG,AFNE01.JPG,AFNE01.JPG,AFNE01.JPG,AFNE01.JPG,AFNE01.JPG,,,,,,,,,,,,,,,,,3,2,32,3,,,,,,,AMNE15.jpg,AMSA07.jpg,AMSA11.jpg,AMNE05.jpg,AMSA07.jpg,MS,2,num_6,32,num_2,0.500179935188,,,2017_Mar_15_1218,60.0751085777,MAFE4ImagesEEG,001,100028,
AFNE01.JPG,AFNE01.JPG,AFNE01.JPG,AFNE01.JPG,AFNE01.JPG,AFNE01.JPG,,,,,,,,,,,,,,,,,3,3,33,5,,,,,,,AMNE17.jpg,AMSA13.jpg,AMNE19.jpg,AMSA04.jpg,AMNE19.jpg,MN,1,num_2,32,num_8,0.750163417077,,,2017_Mar_15_1218,60.0751085777,MAFE4ImagesEEG,001,100028,
AFNE01.JPG,AFNE01.JPG,AFNE01.JPG,AFNE01.JPG,AFNE01.JPG,AFNE01.JPG,,,,,,,,,,,,,,,,,3,4,34,0,,,,,,,AMSA18.jpg,AMNE03.jpg,AMSA13.jpg,AMNE07.jpg,AMNE03.jpg,MN,1,num_6,32,num_8,1.75005115801,,,2017_Mar_15_1218,60.0751085777,MAFE4ImagesEEG,001,100028,
AFNE01.JPG,AFNE01.JPG,AFNE01.JPG,AFNE01.JPG,AFNE01.JPG,AFNE01.JPG,,,,,,,,,,,,,,,,,3,5,35,2,,,,,,,AMSA02.jpg,AMNE08.jpg,AMSA05.jpg,AMNE11.jpg,AMNE11.jpg,MN,1,num_4,32,num_6,0.883396251826,,,2017_Mar_15_1218,60.0751085777,MAFE4ImagesEEG,001,100028,
AFNE01.JPG,AFNE01.JPG,AFNE01.JPG,AFNE01.JPG,AFNE01.JPG,AFNE01.JPG,,,,,,,,,,,,,,,,,3,6,36,8,,,,,,,AMSA14.jpg,AMNE11.jpg,AMSA13.jpg,AMNE15.jpg,AMNE11.jpg,MN,1,num_6,32,num_4,1.20008018502,,,2017_Mar_15_1218,60.0751085777,MAFE4ImagesEEG,001,100028,
AFNE01.JPG,AFNE01.JPG,AFNE01.JPG,AFNE01.JPG,AFNE01.JPG,AFNE01.JPG,,,,,,,,,,,,,,,,,3,7,37,4,,,,,,,AMNE09.jpg,AMSA04.jpg,AMSA12.jpg,AMNE10.jpg,AMNE10.jpg,MN,1,num_4,32,num_8,0.933435863233,,,2017_Mar_15_1218,60.0751085777,MAFE4ImagesEEG,001,100028,
AFNE01.JPG,AFNE01.JPG,AFNE01.JPG,AFNE01.JPG,AFNE01.JPG,AFNE01.JPG,,,,,,,,,,,,,,,,,3,8,38,6,,,,,,,AMNE05.jpg,AMSA12.jpg,AMSA07.jpg,AMNE19.jpg,AMNE19.jpg,MN,1,num_4,16,num_4,0.433536575583,,,2017_Mar_15_1218,60.0751085777,MAFE4ImagesEEG,001,100028,
AFNE01.JPG,AFNE01.JPG,AFNE01.JPG,AFNE01.JPG,AFNE01.JPG,AFNE01.JPG,,,,,,,,,,,,,,,,,3,9,39,7,,,,,,,AMNE12.jpg,AMSA13.jpg,AMNE16.jpg,AMSA08.jpg,AMSA13.jpg,MS,2,num_6,32,num_4,1.08342575992,,,2017_Mar_15_1218,60.0751085777,MAFE4ImagesEEG,001,100028,
AFNE01.JPG,AFNE01.JPG,AFNE01.JPG,AFNE01.JPG,AFNE01.JPG,AFNE01.JPG,,,,,,,,,,,,,,,,,4,0,40,0,,,,,,,AMNE15.jpg,AMNE09.jpg,AMSA04.jpg,AMSA05.jpg,AMSA04.jpg,MS,2,num_2,16,num_2,0.783202845603,,,2017_Mar_15_1218,60.0751085777,MAFE4ImagesEEG,001,100028,
AFNE01.JPG,AFNE01.JPG,AFNE01.JPG,AFNE01.JPG,AFNE01.JPG,AFNE01.JPG,,,,,,,,,,,,,,,,,4,1,41,6,,,,,,,AMSA14.jpg,AMSA13.jpg,AMNE08.jpg,AMNE15.jpg,AMNE08.jpg,MN,1,num_2,16,num_2,0.96661224775,,,2017_Mar_15_1218,60.0751085777,MAFE4ImagesEEG,001,100028,
AFNE01.JPG,AFNE01.JPG,AFNE01.JPG,AFNE01.JPG,AFNE01.JPG,AFNE01.JPG,,,,,,,,,,,,,,,,,4,2,42,2,,,,,,,AMSA17.jpg,AMNE16.jpg,AMNE03.jpg,AMSA12.jpg,AMSA17.jpg,MS,2,num_8,16,num_8,0.933607459127,,,2017_Mar_15_1218,60.0751085777,MAFE4ImagesEEG,001,100028,
AFNE01.JPG,AFNE01.JPG,AFNE01.JPG,AFNE01.JPG,AFNE01.JPG,AFNE01.JPG,,,,,,,,,,,,,,,,,4,3,43,7,,,,,,,AMNE02.jpg,AMSA06.jpg,AMNE06.jpg,AMSA04.jpg,AMSA06.jpg,MS,2,num_6,16,num_6,0.833474993473,,,2017_Mar_15_1218,60.0751085777,MAFE4ImagesEEG,001,100028,
AFNE01.JPG,AFNE01.JPG,AFNE01.JPG,AFNE01.JPG,AFNE01.JPG,AFNE01.JPG,,,,,,,,,,,,,,,,,4,4,44,4,,,,,,,AMSA15.jpg,AMNE07.jpg,AMSA03.jpg,AMNE17.jpg,AMSA03.jpg,MS,2,num_2,32,num_8,0.5835376982,,,2017_Mar_15_1218,60.0751085777,MAFE4ImagesEEG,001,100028,
AFNE01.JPG,AFNE01.JPG,AFNE01.JPG,AFNE01.JPG,AFNE01.JPG,AFNE01.JPG,,,,,,,,,,,,,,,,,4,5,45,8,,,,,,,AMNE12.jpg,AMNE06.jpg,AMSA03.jpg,AMSA18.jpg,AMSA03.jpg,MS,2,num_2,32,num_4,0.850078420946,,,2017_Mar_15_1218,60.0751085777,MAFE4ImagesEEG,001,100028,
AFNE01.JPG,AFNE01.JPG,AFNE01.JPG,AFNE01.JPG,AFNE01.JPG,AFNE01.JPG,,,,,,,,,,,,,,,,,4,6,46,5,,,,,,,AMSA11.jpg,AMNE09.jpg,AMNE18.jpg,AMSA02.jpg,AMNE09.jpg,MN,1,num_6,16,num_6,0.800148181908,,,2017_Mar_15_1218,60.0751085777,MAFE4ImagesEEG,001,100028,
AFNE01.JPG,AFNE01.JPG,AFNE01.JPG,AFNE01.JPG,AFNE01.JPG,AFNE01.JPG,,,,,,,,,,,,,,,,,4,7,47,3,,,,,,,AMSA18.jpg,AMNE02.jpg,AMSA01.jpg,AMNE18.jpg,AMSA18.jpg,MS,2,num_8,32,num_4,0.766808861401,,,2017_Mar_15_1218,60.0751085777,MAFE4ImagesEEG,001,100028,
AFNE01.JPG,AFNE01.JPG,AFNE01.JPG,AFNE01.JPG,AFNE01.JPG,AFNE01.JPG,,,,,,,,,,,,,,,,,4,8,48,9,,,,,,,AMSA06.jpg,AMNE16.jpg,AMSA13.jpg,AMNE20.jpg,AMNE20.jpg,MN,1,num_4,16,num_4,1.21673974191,,,2017_Mar_15_1218,60.0751085777,MAFE4ImagesEEG,001,100028,
AFNE01.JPG,AFNE01.JPG,AFNE01.JPG,AFNE01.JPG,AFNE01.JPG,AFNE01.JPG,,,,,,,,,,,,,,,,,4,9,49,1,,,,,,,AMNE06.jpg,AMSA04.jpg,AMNE18.jpg,AMSA13.jpg,AMNE06.jpg,MN,1,num_8,32,num_4,0.916843340965,,,2017_Mar_15_1218,60.0751085777,MAFE4ImagesEEG,001,100028,
AFNE01.JPG,AFNE01.JPG,AFNE01.JPG,AFNE01.JPG,AFNE01.JPG,AFNE01.JPG,,,,,,,,,,,,,,,,,5,0,50,9,,,,,,,AMNE05.jpg,AMNE12.jpg,AMSA13.jpg,AMSA01.jpg,AMSA13.jpg,MS,2,num_2,32,num_6,2.2668088614,,,2017_Mar_15_1218,60.0751085777,MAFE4ImagesEEG,001,100028,
AFNE01.JPG,AFNE01.JPG,AFNE01.JPG,AFNE01.JPG,AFNE01.JPG,AFNE01.JPG,,,,,,,,,,,,,,,,,5,1,51,7,,,,,,,AMSA16.jpg,AMNE06.jpg,AMNE13.jpg,AMSA15.jpg,AMSA15.jpg,MS,2,num_4,16,num_4,0.666759788175,,,2017_Mar_15_1218,60.0751085777,MAFE4ImagesEEG,001,100028,
AFNE01.JPG,AFNE01.JPG,AFNE01.JPG,AFNE01.JPG,AFNE01.JPG,AFNE01.JPG,,,,,,,,,,,,,,,,,5,2,52,6,,,,,,,AMNE05.jpg,AMSA07.jpg,AMNE12.jpg,AMSA05.jpg,AMSA07.jpg,MS,2,num_6,16,num_6,0.800118032319,,,2017_Mar_15_1218,60.0751085777,MAFE4ImagesEEG,001,100028,
AFNE01.JPG,AFNE01.JPG,AFNE01.JPG,AFNE01.JPG,AFNE01.JPG,AFNE01.JPG,,,,,,,,,,,,,,,,,5,3,53,1,,,,,,,AMSA06.jpg,AMSA01.jpg,AMNE07.jpg,AMNE20.jpg,AMNE20.jpg,MN,1,num_4,32,num_2,1.13343008992,,,2017_Mar_15_1218,60.0751085777,MAFE4ImagesEEG,001,100028,
AFNE01.JPG,AFNE01.JPG,AFNE01.JPG,AFNE01.JPG,AFNE01.JPG,AFNE01.JPG,,,,,,,,,,,,,,,,,5,4,54,5,,,,,,,AMNE11.jpg,AMNE06.jpg,AMSA16.jpg,AMSA08.jpg,AMSA08.jpg,MS,2,num_4,16,num_4,0.616790739587,,,2017_Mar_15_1218,60.0751085777,MAFE4ImagesEEG,001,100028,
AFNE01.JPG,AFNE01.JPG,AFNE01.JPG,AFNE01.JPG,AFNE01.JPG,AFNE01.JPG,,,,,,,,,,,,,,,,,5,5,55,4,,,,,,,AMNE03.jpg,AMSA05.jpg,AMSA07.jpg,AMNE09.jpg,AMSA07.jpg,MS,2,num_2,16,num_2,0.933432335092,,,2017_Mar_15_1218,60.0751085777,MAFE4ImagesEEG,001,100028,
AFNE01.JPG,AFNE01.JPG,AFNE01.JPG,AFNE01.JPG,AFNE01.JPG,AFNE01.JPG,,,,,,,,,,,,,,,,,5,6,56,8,,,,,,,AMSA04.jpg,AMNE08.jpg,AMNE14.jpg,AMSA15.jpg,AMNE14.jpg,MN,1,num_2,32,num_6,0.883479002747,,,2017_Mar_15_1218,60.0751085777,MAFE4ImagesEEG,001,100028,
AFNE01.JPG,AFNE01.JPG,AFNE01.JPG,AFNE01.JPG,AFNE01.JPG,AFNE01.JPG,,,,,,,,,,,,,,,,,5,7,57,3,,,,,,,AMNE02.jpg,AMNE14.jpg,AMSA03.jpg,AMSA20.jpg,AMNE14.jpg,MN,1,num_6,32,num_8,0.966751769709,,,2017_Mar_15_1218,60.0751085777,MAFE4ImagesEEG,001,100028,
AFNE01.JPG,AFNE01.JPG,AFNE01.JPG,AFNE01.JPG,AFNE01.JPG,AFNE01.JPG,,,,,,,,,,,,,,,,,5,8,58,2,,,,,,,AMNE11.jpg,AMSA15.jpg,AMNE14.jpg,AMSA03.jpg,AMSA15.jpg,MS,2,num_6,16,num_6,0.89997722744,,,2017_Mar_15_1218,60.0751085777,MAFE4ImagesEEG,001,100028,
AFNE01.JPG,AFNE01.JPG,AFNE01.JPG,AFNE01.JPG,AFNE01.JPG,AFNE01.JPG,,,,,,,,,,,,,,,,,5,9,59,0,,,,,,,AMSA02.jpg,AMNE14.jpg,AMSA10.jpg,AMNE15.jpg,AMSA02.jpg,MS,2,num_8,16,num_8,0.633799261646,,,2017_Mar_15_1218,60.0751085777,MAFE4ImagesEEG,001,100028,
,,,,,,,,,,,,,,,,,,,,,,,,,,,,,,,,,,,,,,,,,,,space,16.9485863384,2017_Mar_15_1218,60.0751085777,MAFE4ImagesEEG,001,100028,
AFNE01.JPG,AFNE01.JPG,AFNE01.JPG,AFNE01.JPG,AFNE01.JPG,AFNE01.JPG,,,,,,,,,,,,,,,,,,,,,0,0,0,0,,,AFNE15.jpg,AFSA02.jpg,AFSA17.jpg,AFNE04.jpg,AFSA17.jpg,FS,4,num_2,16,num_2,0.916807738831,,,2017_Mar_15_1218,60.0751085777,MAFE4ImagesEEG,001,100028,
AFNE01.JPG,AFNE01.JPG,AFNE01.JPG,AFNE01.JPG,AFNE01.JPG,AFNE01.JPG,,,,,,,,,,,,,,,,,,,,,0,1,1,6,,,AFSA13.jpg,AFNE19.jpg,AFNE04.jpg,AFSA11.jpg,AFNE04.jpg,FN,3,num_2,32,num_6,0.683489587158,,,2017_Mar_15_1218,60.0751085777,MAFE4ImagesEEG,001,100028,
AFNE01.JPG,AFNE01.JPG,AFNE01.JPG,AFNE01.JPG,AFNE01.JPG,AFNE01.JPG,,,,,,,,,,,,,,,,,,,,,0,2,2,5,,,AFNE03.jpg,AFSA05.jpg,AFSA19.jpg,AFNE19.jpg,AFSA19.jpg,FS,4,num_2,16,num_2,1.55006430834,,,2017_Mar_15_1218,60.0751085777,MAFE4ImagesEEG,001,100028,
AFNE01.JPG,AFNE01.JPG,AFNE01.JPG,AFNE01.JPG,AFNE01.JPG,AFNE01.JPG,,,,,,,,,,,,,,,,,,,,,0,3,3,9,,,AFSA06.jpg,AFSA04.jpg,AFNE04.jpg,AFNE02.jpg,AFNE04.jpg,FN,3,num_2,16,num_2,1.03343746695,,,2017_Mar_15_1218,60.0751085777,MAFE4ImagesEEG,001,100028,
AFNE01.JPG,AFNE01.JPG,AFNE01.JPG,AFNE01.JPG,AFNE01.JPG,AFNE01.JPG,,,,,,,,,,,,,,,,,,,,,0,4,4,3,,,AFNE20.jpg,AFNE19.jpg,AFSA07.jpg,AFSA13.jpg,AFNE20.jpg,FN,3,num_8,16,num_8,1.30017736921,,,2017_Mar_15_1218,60.0751085777,MAFE4ImagesEEG,001,100028,
AFNE01.JPG,AFNE01.JPG,AFNE01.JPG,AFNE01.JPG,AFNE01.JPG,AFNE01.JPG,,,,,,,,,,,,,,,,,,,,,0,5,5,1,,,AFNE09.jpg,AFSA12.jpg,AFSA13.jpg,AFNE04.jpg,AFNE04.jpg,FN,3,num_4,32,num_6,2.59997145412,,,2017_Mar_15_1218,60.0751085777,MAFE4ImagesEEG,001,100028,
AFNE01.JPG,AFNE01.JPG,AFNE01.JPG,AFNE01.JPG,AFNE01.JPG,AFNE01.JPG,,,,,,,,,,,,,,,,,,,,,0,6,6,8,,,AFNE18.jpg,AFNE06.jpg,AFSA06.jpg,AFSA07.jpg,AFNE18.jpg,FN,3,num_8,32,num_6,0.866772297071,,,2017_Mar_15_1218,60.0751085777,MAFE4ImagesEEG,001,100028,
AFNE01.JPG,AFNE01.JPG,AFNE01.JPG,AFNE01.JPG,AFNE01.JPG,AFNE01.JPG,,,,,,,,,,,,,,,,,,,,,0,7,7,2,,,AFNE15.jpg,AFSA02.jpg,AFSA09.jpg,AFNE04.jpg,AFNE04.jpg,FN,3,num_4,16,num_4,0.950137437088,,,2017_Mar_15_1218,60.0751085777,MAFE4ImagesEEG,001,100028,
AFNE01.JPG,AFNE01.JPG,AFNE01.JPG,AFNE01.JPG,AFNE01.JPG,AFNE01.JPG,,,,,,,,,,,,,,,,,,,,,0,8,8,7,,,AFSA15.jpg,AFNE19.jpg,AFNE11.jpg,AFSA03.jpg,AFNE19.jpg,FN,3,num_6,16,num_6,1.08329169056,,,2017_Mar_15_1218,60.0751085777,MAFE4ImagesEEG,001,100028,
AFNE01.JPG,AFNE01.JPG,AFNE01.JPG,AFNE01.JPG,AFNE01.JPG,AFNE01.JPG,,,,,,,,,,,,,,,,,,,,,0,9,9,4,,,AFSA02.jpg,AFSA20.jpg,AFNE09.jpg,AFNE18.jpg,AFSA02.jpg,FS,4,num_8,32,num_6,0.833446768404,,,2017_Mar_15_1218,60.0751085777,MAFE4ImagesEEG,001,100028,
AFNE01.JPG,AFNE01.JPG,AFNE01.JPG,AFNE01.JPG,AFNE01.JPG,AFNE01.JPG,,,,,,,,,,,,,,,,,,,,,1,0,10,5,,,AFSA09.jpg,AFNE13.jpg,AFSA04.jpg,AFNE06.jpg,AFSA09.jpg,FS,4,num_8,16,num_8,0.766799880716,,,2017_Mar_15_1218,60.0751085777,MAFE4ImagesEEG,001,100028,
AFNE01.JPG,AFNE01.JPG,AFNE01.JPG,AFNE01.JPG,AFNE01.JPG,AFNE01.JPG,,,,,,,,,,,,,,,,,,,,,1,1,11,1,,,AFNE08.jpg,AFNE16.jpg,AFSA15.jpg,AFSA02.jpg,AFNE08.jpg,FN,3,num_8,32,num_4,1.15026252565,,,2017_Mar_15_1218,60.0751085777,MAFE4ImagesEEG,001,100028,
AFNE01.JPG,AFNE01.JPG,AFNE01.JPG,AFNE01.JPG,AFNE01.JPG,AFNE01.JPG,,,,,,,,,,,,,,,,,,,,,1,2,12,4,,,AFNE07.jpg,AFNE02.jpg,AFSA16.jpg,AFSA04.jpg,AFNE07.jpg,FN,3,num_8,32,num_6,0.950095420179,,,2017_Mar_15_1218,60.0751085777,MAFE4ImagesEEG,001,100028,
AFNE01.JPG,AFNE01.JPG,AFNE01.JPG,AFNE01.JPG,AFNE01.JPG,AFNE01.JPG,,,,,,,,,,,,,,,,,,,,,1,3,13,6,,,AFNE03.jpg,AFSA13.jpg,AFNE11.jpg,AFSA20.jpg,AFSA20.jpg,FS,4,num_4,32,num_6,0.916777910024,,,2017_Mar_15_1218,60.0751085777,MAFE4ImagesEEG,001,100028,
AFNE01.JPG,AFNE01.JPG,AFNE01.JPG,AFNE01.JPG,AFNE01.JPG,AFNE01.JPG,,,,,,,,,,,,,,,,,,,,,1,4,14,8,,,AFSA19.jpg,AFNE03.jpg,AFNE04.jpg,AFSA10.jpg,AFSA10.jpg,FS,4,num_4,16,num_4,0.466788654798,,,2017_Mar_15_1218,60.0751085777,MAFE4ImagesEEG,001,100028,
AFNE01.JPG,AFNE01.JPG,AFNE01.JPG,AFNE01.JPG,AFNE01.JPG,AFNE01.JPG,,,,,,,,,,,,,,,,,,,,,1,5,15,0,,,AFSA04.jpg,AFNE03.jpg,AFNE15.jpg,AFSA01.jpg,AFSA04.jpg,FS,4,num_8,16,num_8,0.43332873605,,,2017_Mar_15_1218,60.0751085777,MAFE4ImagesEEG,001,100028,
AFNE01.JPG,AFNE01.JPG,AFNE01.JPG,AFNE01.JPG,AFNE01.JPG,AFNE01.JPG,,,,,,,,,,,,,,,,,,,,,1,6,16,7,,,AFSA03.jpg,AFNE14.jpg,AFNE10.jpg,AFSA01.jpg,AFSA03.jpg,FS,4,num_8,16,num_8,1.93337171519,,,2017_Mar_15_1218,60.0751085777,MAFE4ImagesEEG,001,100028,
AFNE01.JPG,AFNE01.JPG,AFNE01.JPG,AFNE01.JPG,AFNE01.JPG,AFNE01.JPG,,,,,,,,,,,,,,,,,,,,,1,7,17,9,,,AFNE02.jpg,AFSA15.jpg,AFNE20.jpg,AFSA09.jpg,AFSA09.jpg,FS,4,num_4,16,num_4,0.783449815412,,,2017_Mar_15_1218,60.0751085777,MAFE4ImagesEEG,001,100028,
AFNE01.JPG,AFNE01.JPG,AFNE01.JPG,AFNE01.JPG,AFNE01.JPG,AFNE01.JPG,,,,,,,,,,,,,,,,,,,,,1,8,18,2,,,AFNE17.jpg,AFNE12.jpg,AFSA03.jpg,AFSA06.jpg,AFNE17.jpg,FN,3,num_8,16,num_8,0.816862906097,,,2017_Mar_15_1218,60.0751085777,MAFE4ImagesEEG,001,100028,
AFNE01.JPG,AFNE01.JPG,AFNE01.JPG,AFNE01.JPG,AFNE01.JPG,AFNE01.JPG,,,,,,,,,,,,,,,,,,,,,1,9,19,3,,,AFSA04.jpg,AFNE13.jpg,AFNE06.jpg,AFSA18.jpg,AFNE13.jpg,FN,3,num_6,16,num_6,0.650130380818,,,2017_Mar_15_1218,60.0751085777,MAFE4ImagesEEG,001,100028,
AFNE01.JPG,AFNE01.JPG,AFNE01.JPG,AFNE01.JPG,AFNE01.JPG,AFNE01.JPG,,,,,,,,,,,,,,,,,,,,,2,0,20,2,,,AFSA20.jpg,AFSA05.jpg,AFNE14.jpg,AFNE04.jpg,AFSA20.jpg,FS,4,num_8,32,num_6,1.06675658078,,,2017_Mar_15_1218,60.0751085777,MAFE4ImagesEEG,001,100028,
AFNE01.JPG,AFNE01.JPG,AFNE01.JPG,AFNE01.JPG,AFNE01.JPG,AFNE01.JPG,,,,,,,,,,,,,,,,,,,,,2,1,21,7,,,AFNE01.jpg,AFSA19.jpg,AFNE11.jpg,AFSA15.jpg,AFSA15.jpg,FS,4,num_4,16,num_4,0.616853604617,,,2017_Mar_15_1218,60.0751085777,MAFE4ImagesEEG,001,100028,
AFNE01.JPG,AFNE01.JPG,AFNE01.JPG,AFNE01.JPG,AFNE01.JPG,AFNE01.JPG,,,,,,,,,,,,,,,,,,,,,2,2,22,5,,,AFSA09.jpg,AFSA02.jpg,AFNE03.jpg,AFNE07.jpg,AFSA02.jpg,FS,4,num_6,32,num_8,0.966757543036,,,2017_Mar_15_1218,60.0751085777,MAFE4ImagesEEG,001,100028,
AFNE01.JPG,AFNE01.JPG,AFNE01.JPG,AFNE01.JPG,AFNE01.JPG,AFNE01.JPG,,,,,,,,,,,,,,,,,,,,,2,3,23,6,,,AFNE11.jpg,AFSA03.jpg,AFSA15.jpg,AFNE18.jpg,AFNE11.jpg,FN,3,num_8,32,num_4,1.28321022267,,,2017_Mar_15_1218,60.0751085777,MAFE4ImagesEEG,001,100028,
AFNE01.JPG,AFNE01.JPG,AFNE01.JPG,AFNE01.JPG,AFNE01.JPG,AFNE01.JPG,,,,,,,,,,,,,,,,,,,,,2,4,24,9,,,AFNE04.jpg,AFNE11.jpg,AFSA08.jpg,AFSA19.jpg,AFSA08.jpg,FS,4,num_2,32,num_4,0.433541065955,,,2017_Mar_15_1218,60.0751085777,MAFE4ImagesEEG,001,100028,
AFNE01.JPG,AFNE01.JPG,AFNE01.JPG,AFNE01.JPG,AFNE01.JPG,AFNE01.JPG,,,,,,,,,,,,,,,,,,,,,2,5,25,8,,,AFNE11.jpg,AFSA01.jpg,AFSA19.jpg,AFNE12.jpg,AFSA19.jpg,FS,4,num_2,32,num_6,1.15008964681,,,2017_Mar_15_1218,60.0751085777,MAFE4ImagesEEG,001,100028,
AFNE01.JPG,AFNE01.JPG,AFNE01.JPG,AFNE01.JPG,AFNE01.JPG,AFNE01.JPG,,,,,,,,,,,,,,,,,,,,,2,6,26,0,,,AFSA07.jpg,AFNE20.jpg,AFNE16.jpg,AFSA09.jpg,AFNE16.jpg,FN,3,num_2,32,num_6,0.866728997149,,,2017_Mar_15_1218,60.0751085777,MAFE4ImagesEEG,001,100028,
AFNE01.JPG,AFNE01.JPG,AFNE01.JPG,AFNE01.JPG,AFNE01.JPG,AFNE01.JPG,,,,,,,,,,,,,,,,,,,,,2,7,27,1,,,AFNE02.jpg,AFSA11.jpg,AFNE14.jpg,AFSA03.jpg,AFSA03.jpg,FS,4,num_4,16,num_4,0.800141446351,,,2017_Mar_15_1218,60.0751085777,MAFE4ImagesEEG,001,100028,
AFNE01.JPG,AFNE01.JPG,AFNE01.JPG,AFNE01.JPG,AFNE01.JPG,AFNE01.JPG,,,,,,,,,,,,,,,,,,,,,2,8,28,4,,,AFSA19.jpg,AFNE20.jpg,AFSA17.jpg,AFNE05.jpg,AFSA19.jpg,FS,4,num_8,32,num_2,1.61656814604,,,2017_Mar_15_1218,60.0751085777,MAFE4ImagesEEG,001,100028,
AFNE01.JPG,AFNE01.JPG,AFNE01.JPG,AFNE01.JPG,AFNE01.JPG,AFNE01.JPG,,,,,,,,,,,,,,,,,,,,,2,9,29,3,,,AFNE03.jpg,AFNE15.jpg,AFSA02.jpg,AFSA14.jpg,AFSA14.jpg,FS,4,num_4,16,num_4,0.4167843248,,,2017_Mar_15_1218,60.0751085777,MAFE4ImagesEEG,001,100028,
AFNE01.JPG,AFNE01.JPG,AFNE01.JPG,AFNE01.JPG,AFNE01.JPG,AFNE01.JPG,,,,,,,,,,,,,,,,,,,,,3,0,30,9,,,AFNE04.jpg,AFSA14.jpg,AFSA20.jpg,AFNE19.jpg,AFNE19.jpg,FN,3,num_4,32,num_8,1.13343393878,,,2017_Mar_15_1218,60.0751085777,MAFE4ImagesEEG,001,100028,
AFNE01.JPG,AFNE01.JPG,AFNE01.JPG,AFNE01.JPG,AFNE01.JPG,AFNE01.JPG,,,,,,,,,,,,,,,,,,,,,3,1,31,7,,,AFNE13.jpg,AFSA09.jpg,AFSA16.jpg,AFNE04.jpg,AFNE13.jpg,FN,3,num_8,16,num_8,0.766783202183,,,2017_Mar_15_1218,60.0751085777,MAFE4ImagesEEG,001,100028,
AFNE01.JPG,AFNE01.JPG,AFNE01.JPG,AFNE01.JPG,AFNE01.JPG,AFNE01.JPG,,,,,,,,,,,,,,,,,,,,,3,2,32,1,,,AFNE04.jpg,AFSA09.jpg,AFNE16.jpg,AFSA13.jpg,AFNE04.jpg,FN,3,num_8,16,num_8,1.50008820352,,,2017_Mar_15_1218,60.0751085777,MAFE4ImagesEEG,001,100028,
AFNE01.JPG,AFNE01.JPG,AFNE01.JPG,AFNE01.JPG,AFNE01.JPG,AFNE01.JPG,,,,,,,,,,,,,,,,,,,,,3,3,33,5,,,AFSA14.jpg,AFNE18.jpg,AFNE09.jpg,AFSA16.jpg,AFSA16.jpg,FS,4,num_4,16,num_4,0.50016101147,,,2017_Mar_15_1218,60.0751085777,MAFE4ImagesEEG,001,100028,
AFNE01.JPG,AFNE01.JPG,AFNE01.JPG,AFNE01.JPG,AFNE01.JPG,AFNE01.JPG,,,,,,,,,,,,,,,,,,,,,3,4,34,6,,,AFSA17.jpg,AFNE16.jpg,AFSA07.jpg,AFNE03.jpg,AFNE16.jpg,FN,3,num_6,16,num_6,0.866751769674,,,2017_Mar_15_1218,60.0751085777,MAFE4ImagesEEG,001,100028,
AFNE01.JPG,AFNE01.JPG,AFNE01.JPG,AFNE01.JPG,AFNE01.JPG,AFNE01.JPG,,,,,,,,,,,,,,,,,,,,,3,5,35,3,,,AFNE09.jpg,AFSA05.jpg,AFNE03.jpg,AFSA08.jpg,AFNE09.jpg,FN,3,num_8,16,num_8,0.883021627495,,,2017_Mar_15_1218,60.0751085777,MAFE4ImagesEEG,001,100028,
AFNE01.JPG,AFNE01.JPG,AFNE01.JPG,AFNE01.JPG,AFNE01.JPG,AFNE01.JPG,,,,,,,,,,,,,,,,,,,,,3,6,36,0,,,AFNE09.jpg,AFSA07.jpg,AFNE01.jpg,AFSA14.jpg,AFSA07.jpg,FS,4,num_6,32,num_8,0.933453824662,,,2017_Mar_15_1218,60.0751085777,MAFE4ImagesEEG,001,100028,
AFNE01.JPG,AFNE01.JPG,AFNE01.JPG,AFNE01.JPG,AFNE01.JPG,AFNE01.JPG,,,,,,,,,,,,,,,,,,,,,3,7,37,8,,,AFSA16.jpg,AFNE17.jpg,AFSA07.jpg,AFNE14.jpg,AFSA16.jpg,FS,4,num_8,32,num_6,0.816767967073,,,2017_Mar_15_1218,60.0751085777,MAFE4ImagesEEG,001,100028,
AFNE01.JPG,AFNE01.JPG,AFNE01.JPG,AFNE01.JPG,AFNE01.JPG,AFNE01.JPG,,,,,,,,,,,,,,,,,,,,,3,8,38,2,,,AFNE11.jpg,AFSA05.jpg,AFNE18.jpg,AFSA20.jpg,AFNE11.jpg,FN,3,num_8,16,num_8,1.31671279977,,,2017_Mar_15_1218,60.0751085777,MAFE4ImagesEEG,001,100028,
