IPosition2,IPosition3,IPosition1,IPosition6,IPosition4,IPosition5,TrialsF1.thisRepN,TrialsF1.thisTrialN,TrialsF1.thisN,TrialsF1.thisIndex,TrialsM1.thisRepN,TrialsM1.thisTrialN,TrialsM1.thisN,TrialsM1.thisIndex,TrialsF2.thisRepN,TrialsF2.thisTrialN,TrialsF2.thisN,TrialsF2.thisIndex,TrialsM2.thisRepN,TrialsM2.thisTrialN,TrialsM2.thisN,TrialsM2.thisIndex,TrialsF3.thisRepN,TrialsF3.thisTrialN,TrialsF3.thisN,TrialsF3.thisIndex,TrialsM3.thisRepN,TrialsM3.thisTrialN,TrialsM3.thisN,TrialsM3.thisIndex,InstrKey_resp.keys,InstrKey_resp.rt,Image0 _Position,Image1 _Position,Image2 _Position,Image3 _Position,Center_image,condition,code,correct_answer,accuracy,Key_Resp.keys,Key_Resp.rt,BreakKey_resp.keys,BreakKey_resp.rt,date,frameRate,expName,session,participant,
,,,,,,,,,,,,,,,,,,,,,,,,,,,,,,space,74.6447689119,,,,,,,,,,,,,,2017_Apr_07_1510,60.0083339147,FEMA4ImagesEEG,001,100046,
AMNE23.JPG,AMNE24.JPG,AMNE22.JPG,AMSA24.JPG,AMSA22.JPG,AMSA23.JPG,0,0,0,9,,,,,,,,,,,,,,,,,,,,,,,AFSA07.jpg,AFSA19.jpg,AFNE02.jpg,AFNE12.jpg,AFSA19.jpg,FS,4,num_6,32,num_2,1.71669863909,,,2017_Apr_07_1510,60.0083339147,FEMA4ImagesEEG,001,100046,
AMSA21.JPG,AMNE22.JPG,AMNE21.JPG,AMSA23.JPG,AMSA22.JPG,AMNE23.JPG,0,1,1,1,,,,,,,,,,,,,,,,,,,,,,,AFNE10.jpg,AFNE01.jpg,AFSA20.jpg,AFSA06.jpg,AFNE01.jpg,FN,3,num_6,16,num_6,1.96671812399,,,2017_Apr_07_1510,60.0083339147,FEMA4ImagesEEG,001,100046,
AFNE23.JPG,AFNE24.JPG,AFNE22.JPG,AFSA24.JPG,AFSA22.JPG,AFSA23.JPG,0,2,2,8,,,,,,,,,,,,,,,,,,,,,,,AFNE17.jpg,AFNE11.jpg,AFSA18.jpg,AFSA09.jpg,AFSA18.jpg,FS,4,num_2,16,num_2,3.24995180895,,,2017_Apr_07_1510,60.0083339147,FEMA4ImagesEEG,001,100046,
AFSA21.JPG,AFNE23.JPG,AFNE21.JPG,AFSA25.JPG,AFNE25.JPG,AFSA23.JPG,0,3,3,4,,,,,,,,,,,,,,,,,,,,,,,AFSA10.jpg,AFNE19.jpg,AFNE15.jpg,AFSA17.jpg,AFSA10.jpg,FS,4,num_8,32,num_4,1.40007627197,,,2017_Apr_07_1510,60.0083339147,FEMA4ImagesEEG,001,100046,
AMSA21.JPG,AMNE23.JPG,AMNE21.JPG,AMSA25.JPG,AMNE25.JPG,AMSA23.JPG,0,4,4,5,,,,,,,,,,,,,,,,,,,,,,,AFNE19.jpg,AFNE01.jpg,AFSA15.jpg,AFSA19.jpg,AFNE19.jpg,FN,3,num_8,16,num_8,2.55000893259,,,2017_Apr_07_1510,60.0083339147,FEMA4ImagesEEG,001,100046,
AMSA25.JPG,AMNE24.JPG,AMSA24.JPG,AMNE26.JPG,AMSA21.JPG,AMNE25.JPG,0,5,5,3,,,,,,,,,,,,,,,,,,,,,,,AFSA02.jpg,AFNE08.jpg,AFSA17.jpg,AFNE12.jpg,AFSA17.jpg,FS,4,num_2,32,num_8,2.13333502249,,,2017_Apr_07_1510,60.0083339147,FEMA4ImagesEEG,001,100046,
AFSA25.JPG,AFNE24.JPG,AFSA24.JPG,AFNE21.JPG,AFSA21.JPG,AFNE25.JPG,0,6,6,2,,,,,,,,,,,,,,,,,,,,,,,AFSA17.jpg,AFSA12.jpg,AFNE03.jpg,AFNE19.jpg,AFSA17.jpg,FS,4,num_8,16,num_8,2.41668321146,,,2017_Apr_07_1510,60.0083339147,FEMA4ImagesEEG,001,100046,
AFNE22.JPG,AFSA24.JPG,AFSA22.JPG,AFNE25.JPG,AFNE24.JPG,AFSA25.JPG,0,7,7,6,,,,,,,,,,,,,,,,,,,,,,,AFNE14.jpg,AFSA01.jpg,AFSA14.jpg,AFNE06.jpg,AFSA14.jpg,FS,4,num_2,16,num_2,1.31673975801,,,2017_Apr_07_1510,60.0083339147,FEMA4ImagesEEG,001,100046,
AFSA21.JPG,AFNE22.JPG,AFNE21.JPG,AFSA23.JPG,AFSA22.JPG,AFNE23.JPG,0,8,8,0,,,,,,,,,,,,,,,,,,,,,,,AFNE02.jpg,AFSA09.jpg,AFNE13.jpg,AFSA13.jpg,AFSA13.jpg,FS,4,num_4,16,num_4,1.33346376754,,,2017_Apr_07_1510,60.0083339147,FEMA4ImagesEEG,001,100046,
AMNE22.JPG,AMSA24.JPG,AMSA22.JPG,AMNE25.JPG,AMNE24.JPG,AMSA25.JPG,0,9,9,7,,,,,,,,,,,,,,,,,,,,,,,AFNE10.jpg,AFNE07.jpg,AFSA06.jpg,AFSA20.jpg,AFSA20.jpg,FS,4,num_4,16,num_4,1.38338305335,,,2017_Apr_07_1510,60.0083339147,FEMA4ImagesEEG,001,100046,
AMSA21.JPG,AMNE23.JPG,AMNE21.JPG,AMSA25.JPG,AMNE25.JPG,AMSA23.JPG,,,,,0,0,0,5,,,,,,,,,,,,,,,,,,,AMNE08.jpg,AMNE14.jpg,AMSA12.jpg,AMSA06.jpg,AMSA06.jpg,MS,2,num_4,16,num_4,1.63340638718,,,2017_Apr_07_1510,60.0083339147,FEMA4ImagesEEG,001,100046,
AMSA21.JPG,AMNE22.JPG,AMNE21.JPG,AMSA23.JPG,AMSA22.JPG,AMNE23.JPG,,,,,0,1,1,1,,,,,,,,,,,,,,,,,,,AMNE01.jpg,AMNE13.jpg,AMSA05.jpg,AMSA09.jpg,AMNE01.jpg,MN,1,num_8,16,num_8,2.7499064242,,,2017_Apr_07_1510,60.0083339147,FEMA4ImagesEEG,001,100046,
AMNE23.JPG,AMNE24.JPG,AMNE22.JPG,AMSA24.JPG,AMSA22.JPG,AMSA23.JPG,,,,,0,2,2,9,,,,,,,,,,,,,,,,,,,AMNE01.jpg,AMNE02.jpg,AMSA20.jpg,AMSA06.jpg,AMNE01.jpg,MN,1,num_8,16,num_8,1.58325488563,,,2017_Apr_07_1510,60.0083339147,FEMA4ImagesEEG,001,100046,
AMSA25.JPG,AMNE24.JPG,AMSA24.JPG,AMNE26.JPG,AMSA21.JPG,AMNE25.JPG,,,,,0,3,3,3,,,,,,,,,,,,,,,,,,,AMNE13.jpg,AMNE01.jpg,AMSA14.jpg,AMSA18.jpg,AMNE13.jpg,MN,1,num_8,16,num_8,2.05001839437,,,2017_Apr_07_1510,60.0083339147,FEMA4ImagesEEG,001,100046,
AFNE23.JPG,AFNE24.JPG,AFNE22.JPG,AFSA24.JPG,AFSA22.JPG,AFSA23.JPG,,,,,0,4,4,8,,,,,,,,,,,,,,,,,,,AMSA04.jpg,AMSA19.jpg,AMNE12.jpg,AMNE14.jpg,AMNE12.jpg,MN,1,num_2,16,num_2,1.50002806471,,,2017_Apr_07_1510,60.0083339147,FEMA4ImagesEEG,001,100046,
AMNE22.JPG,AMSA24.JPG,AMSA22.JPG,AMNE25.JPG,AMNE24.JPG,AMSA25.JPG,,,,,0,5,5,7,,,,,,,,,,,,,,,,,,,AMSA19.jpg,AMNE11.jpg,AMNE12.jpg,AMSA05.jpg,AMNE11.jpg,MN,1,num_6,16,num_6,1.30006385921,,,2017_Apr_07_1510,60.0083339147,FEMA4ImagesEEG,001,100046,
AFSA21.JPG,AFNE23.JPG,AFNE21.JPG,AFSA25.JPG,AFNE25.JPG,AFSA23.JPG,,,,,0,6,6,4,,,,,,,,,,,,,,,,,,,AMSA12.jpg,AMNE01.jpg,AMSA08.jpg,AMNE13.jpg,AMNE13.jpg,MN,1,num_4,16,num_4,1.86669833446,,,2017_Apr_07_1510,60.0083339147,FEMA4ImagesEEG,001,100046,
AFSA25.JPG,AFNE24.JPG,AFSA24.JPG,AFNE21.JPG,AFSA21.JPG,AFNE25.JPG,,,,,0,7,7,2,,,,,,,,,,,,,,,,,,,AMNE16.jpg,AMNE15.jpg,AMSA15.jpg,AMSA03.jpg,AMSA15.jpg,MS,2,num_2,16,num_2,1.2334234505,,,2017_Apr_07_1510,60.0083339147,FEMA4ImagesEEG,001,100046,
AFSA21.JPG,AFNE22.JPG,AFNE21.JPG,AFSA23.JPG,AFSA22.JPG,AFNE23.JPG,,,,,0,8,8,0,,,,,,,,,,,,,,,,,,,AMNE05.jpg,AMSA11.jpg,AMNE20.jpg,AMSA02.jpg,AMSA02.jpg,MS,2,num_4,16,num_4,1.31671506097,,,2017_Apr_07_1510,60.0083339147,FEMA4ImagesEEG,001,100046,
AFNE22.JPG,AFSA24.JPG,AFSA22.JPG,AFNE25.JPG,AFNE24.JPG,AFSA25.JPG,,,,,0,9,9,6,,,,,,,,,,,,,,,,,,,AMSA20.jpg,AMNE17.jpg,AMSA16.jpg,AMNE02.jpg,AMNE02.jpg,MN,1,num_4,16,num_4,1.30012800707,,,2017_Apr_07_1510,60.0083339147,FEMA4ImagesEEG,001,100046,
AFSA25.JPG,AFNE24.JPG,AFSA24.JPG,AFNE21.JPG,AFSA21.JPG,AFNE25.JPG,,,,,,,,,0,0,0,2,,,,,,,,,,,,,,,AFSA06.jpg,AFSA12.jpg,AFNE18.jpg,AFNE07.jpg,AFSA06.jpg,FS,4,num_8,16,num_8,1.46668973844,,,2017_Apr_07_1510,60.0083339147,FEMA4ImagesEEG,001,100046,
AMSA21.JPG,AMNE23.JPG,AMNE21.JPG,AMSA25.JPG,AMNE25.JPG,AMSA23.JPG,,,,,,,,,0,1,1,5,,,,,,,,,,,,,,,AFSA03.jpg,AFSA11.jpg,AFNE02.jpg,AFNE12.jpg,AFSA11.jpg,FS,4,num_6,16,num_6,1.50014353101,,,2017_Apr_07_1510,60.0083339147,FEMA4ImagesEEG,001,100046,
AFSA21.JPG,AFNE23.JPG,AFNE21.JPG,AFSA25.JPG,AFNE25.JPG,AFSA23.JPG,,,,,,,,,0,2,2,4,,,,,,,,,,,,,,,AFNE19.jpg,AFNE05.jpg,AFSA10.jpg,AFSA18.jpg,AFNE05.jpg,FN,3,num_6,32,num_8,1.38344591833,,,2017_Apr_07_1510,60.0083339147,FEMA4ImagesEEG,001,100046,
AMSA25.JPG,AMNE24.JPG,AMSA24.JPG,AMNE26.JPG,AMSA21.JPG,AMNE25.JPG,,,,,,,,,0,3,3,3,,,,,,,,,,,,,,,AFNE07.jpg,AFSA07.jpg,AFNE16.jpg,AFSA15.jpg,AFSA15.jpg,FS,4,num_4,32,num_2,1.91668882431,,,2017_Apr_07_1510,60.0083339147,FEMA4ImagesEEG,001,100046,
AMNE22.JPG,AMSA24.JPG,AMSA22.JPG,AMNE25.JPG,AMNE24.JPG,AMSA25.JPG,,,,,,,,,0,4,4,7,,,,,,,,,,,,,,,AFNE08.jpg,AFSA06.jpg,AFNE13.jpg,AFSA07.jpg,AFNE08.jpg,FN,3,num_8,16,num_8,1.26673451369,,,2017_Apr_07_1510,60.0083339147,FEMA4ImagesEEG,001,100046,
AMNE23.JPG,AMNE24.JPG,AMNE22.JPG,AMSA24.JPG,AMSA22.JPG,AMSA23.JPG,,,,,,,,,0,5,5,9,,,,,,,,,,,,,,,AFSA01.jpg,AFSA10.jpg,AFNE09.jpg,AFNE11.jpg,AFNE09.jpg,FN,3,num_2,32,num_4,1.3666795711,,,2017_Apr_07_1510,60.0083339147,FEMA4ImagesEEG,001,100046,
AFNE22.JPG,AFSA24.JPG,AFSA22.JPG,AFNE25.JPG,AFNE24.JPG,AFSA25.JPG,,,,,,,,,0,6,6,6,,,,,,,,,,,,,,,AFNE05.jpg,AFNE17.jpg,AFSA15.jpg,AFSA05.jpg,AFNE17.jpg,FN,3,num_6,16,num_6,2.41670438042,,,2017_Apr_07_1510,60.0083339147,FEMA4ImagesEEG,001,100046,
AFSA21.JPG,AFNE22.JPG,AFNE21.JPG,AFSA23.JPG,AFSA22.JPG,AFNE23.JPG,,,,,,,,,0,7,7,0,,,,,,,,,,,,,,,AFSA19.jpg,AFNE08.jpg,AFNE10.jpg,AFSA10.jpg,AFNE10.jpg,FN,3,num_2,16,num_2,1.23342152615,,,2017_Apr_07_1510,60.0083339147,FEMA4ImagesEEG,001,100046,
AFNE23.JPG,AFNE24.JPG,AFNE22.JPG,AFSA24.JPG,AFSA22.JPG,AFSA23.JPG,,,,,,,,,0,8,8,8,,,,,,,,,,,,,,,AFNE10.jpg,AFNE16.jpg,AFSA17.jpg,AFSA14.jpg,AFNE16.jpg,FN,3,num_6,32,num_2,1.25015130895,,,2017_Apr_07_1510,60.0083339147,FEMA4ImagesEEG,001,100046,
AMSA21.JPG,AMNE22.JPG,AMNE21.JPG,AMSA23.JPG,AMSA22.JPG,AMNE23.JPG,,,,,,,,,0,9,9,1,,,,,,,,,,,,,,,AFNE18.jpg,AFSA20.jpg,AFNE10.jpg,AFSA09.jpg,AFSA09.jpg,FS,4,num_4,16,num_4,1.35007070703,,,2017_Apr_07_1510,60.0083339147,FEMA4ImagesEEG,001,100046,
AMSA25.JPG,AMNE24.JPG,AMSA24.JPG,AMNE26.JPG,AMSA21.JPG,AMNE25.JPG,,,,,,,,,,,,,0,0,0,3,,,,,,,,,,,AMSA10.jpg,AMNE14.jpg,AMNE05.jpg,AMSA13.jpg,AMNE05.jpg,MN,1,num_2,32,num_6,1.20012778253,,,2017_Apr_07_1510,60.0083339147,FEMA4ImagesEEG,001,100046,
AMSA21.JPG,AMNE22.JPG,AMNE21.JPG,AMSA23.JPG,AMSA22.JPG,AMNE23.JPG,,,,,,,,,,,,,0,1,1,1,,,,,,,,,,,AMSA14.jpg,AMNE10.jpg,AMNE01.jpg,AMSA11.jpg,AMNE01.jpg,MN,1,num_2,16,num_2,1.26665144227,,,2017_Apr_07_1510,60.0083339147,FEMA4ImagesEEG,001,100046,
AFNE23.JPG,AFNE24.JPG,AFNE22.JPG,AFSA24.JPG,AFSA22.JPG,AFSA23.JPG,,,,,,,,,,,,,0,2,2,8,,,,,,,,,,,AMSA14.jpg,AMNE17.jpg,AMNE08.jpg,AMSA17.jpg,AMSA17.jpg,MS,2,num_4,16,num_4,1.33332296275,,,2017_Apr_07_1510,60.0083339147,FEMA4ImagesEEG,001,100046,
AFSA25.JPG,AFNE24.JPG,AFSA24.JPG,AFNE21.JPG,AFSA21.JPG,AFNE25.JPG,,,,,,,,,,,,,0,3,3,2,,,,,,,,,,,AMSA14.jpg,AMSA15.jpg,AMNE10.jpg,AMNE17.jpg,AMSA15.jpg,MS,2,num_6,32,num_8,2.44996637059,,,2017_Apr_07_1510,60.0083339147,FEMA4ImagesEEG,001,100046,
AFSA21.JPG,AFNE22.JPG,AFNE21.JPG,AFSA23.JPG,AFSA22.JPG,AFNE23.JPG,,,,,,,,,,,,,0,4,4,0,,,,,,,,,,,AMSA03.jpg,AMNE20.jpg,AMSA13.jpg,AMNE09.jpg,AMNE09.jpg,MN,1,num_4,32,num_2,1.26676530484,,,2017_Apr_07_1510,60.0083339147,FEMA4ImagesEEG,001,100046,
AFNE22.JPG,AFSA24.JPG,AFSA22.JPG,AFNE25.JPG,AFNE24.JPG,AFSA25.JPG,,,,,,,,,,,,,0,5,5,6,,,,,,,,,,,AMSA19.jpg,AMSA13.jpg,AMNE08.jpg,AMNE13.jpg,AMSA19.jpg,MS,2,num_8,16,num_8,1.51685278653,,,2017_Apr_07_1510,60.0083339147,FEMA4ImagesEEG,001,100046,
AMSA21.JPG,AMNE23.JPG,AMNE21.JPG,AMSA25.JPG,AMNE25.JPG,AMSA23.JPG,,,,,,,,,,,,,0,6,6,5,,,,,,,,,,,AMNE01.jpg,AMSA07.jpg,AMNE14.jpg,AMSA15.jpg,AMNE14.jpg,MN,1,num_2,16,num_2,1.53341482277,,,2017_Apr_07_1510,60.0083339147,FEMA4ImagesEEG,001,100046,
AMNE22.JPG,AMSA24.JPG,AMSA22.JPG,AMNE25.JPG,AMNE24.JPG,AMSA25.JPG,,,,,,,,,,,,,0,7,7,7,,,,,,,,,,,AMSA01.jpg,AMNE08.jpg,AMNE14.jpg,AMSA17.jpg,AMSA17.jpg,MS,2,num_4,32,num_6,1.13346235617,,,2017_Apr_07_1510,60.0083339147,FEMA4ImagesEEG,001,100046,
AFSA21.JPG,AFNE23.JPG,AFNE21.JPG,AFSA25.JPG,AFNE25.JPG,AFSA23.JPG,,,,,,,,,,,,,0,8,8,4,,,,,,,,,,,AMNE16.jpg,AMNE18.jpg,AMSA13.jpg,AMSA07.jpg,AMSA13.jpg,MS,2,num_2,32,num_6,1.38351263222,,,2017_Apr_07_1510,60.0083339147,FEMA4ImagesEEG,001,100046,
AMNE23.JPG,AMNE24.JPG,AMNE22.JPG,AMSA24.JPG,AMSA22.JPG,AMSA23.JPG,,,,,,,,,,,,,0,9,9,9,,,,,,,,,,,AMNE07.jpg,AMSA14.jpg,AMNE14.jpg,AMSA08.jpg,AMSA08.jpg,MS,2,num_4,32,num_2,1.31670319359,,,2017_Apr_07_1510,60.0083339147,FEMA4ImagesEEG,001,100046,
AMNE22.JPG,AMSA24.JPG,AMSA22.JPG,AMNE25.JPG,AMNE24.JPG,AMSA25.JPG,,,,,,,,,,,,,,,,,0,0,0,7,,,,,,,AFSA16.jpg,AFSA11.jpg,AFNE11.jpg,AFNE10.jpg,AFNE10.jpg,FN,3,num_4,16,num_4,1.36675366201,,,2017_Apr_07_1510,60.0083339147,FEMA4ImagesEEG,001,100046,
AMSA21.JPG,AMNE23.JPG,AMNE21.JPG,AMSA25.JPG,AMNE25.JPG,AMSA23.JPG,,,,,,,,,,,,,,,,,0,1,1,5,,,,,,,AFSA20.jpg,AFSA03.jpg,AFNE11.jpg,AFNE15.jpg,AFNE15.jpg,FN,3,num_4,16,num_4,1.40008557332,,,2017_Apr_07_1510,60.0083339147,FEMA4ImagesEEG,001,100046,
AFSA21.JPG,AFNE23.JPG,AFNE21.JPG,AFSA25.JPG,AFNE25.JPG,AFSA23.JPG,,,,,,,,,,,,,,,,,0,2,2,4,,,,,,,AFNE13.jpg,AFNE14.jpg,AFSA01.jpg,AFSA04.jpg,AFNE13.jpg,FN,3,num_8,16,num_8,1.40010000672,,,2017_Apr_07_1510,60.0083339147,FEMA4ImagesEEG,001,100046,
AFNE22.JPG,AFSA24.JPG,AFSA22.JPG,AFNE25.JPG,AFNE24.JPG,AFSA25.JPG,,,,,,,,,,,,,,,,,0,3,3,6,,,,,,,AFSA05.jpg,AFSA11.jpg,AFNE20.jpg,AFNE17.jpg,AFSA05.jpg,FS,4,num_8,16,num_8,1.25009550038,,,2017_Apr_07_1510,60.0083339147,FEMA4ImagesEEG,001,100046,
AMSA25.JPG,AMNE24.JPG,AMSA24.JPG,AMNE26.JPG,AMSA21.JPG,AMNE25.JPG,,,,,,,,,,,,,,,,,0,4,4,3,,,,,,,AFSA11.jpg,AFNE14.jpg,AFNE09.jpg,AFSA19.jpg,AFSA19.jpg,FS,4,num_4,32,num_8,1.71670537465,,,2017_Apr_07_1510,60.0083339147,FEMA4ImagesEEG,001,100046,
AFSA21.JPG,AFNE22.JPG,AFNE21.JPG,AFSA23.JPG,AFSA22.JPG,AFNE23.JPG,,,,,,,,,,,,,,,,,0,5,5,0,,,,,,,AFNE16.jpg,AFSA06.jpg,AFNE19.jpg,AFSA03.jpg,AFNE16.jpg,FN,3,num_8,32,num_6,2.56662421138,,,2017_Apr_07_1510,60.0083339147,FEMA4ImagesEEG,001,100046,
AMNE23.JPG,AMNE24.JPG,AMNE22.JPG,AMSA24.JPG,AMSA22.JPG,AMSA23.JPG,,,,,,,,,,,,,,,,,0,6,6,9,,,,,,,AFNE03.jpg,AFNE02.jpg,AFSA05.jpg,AFSA07.jpg,AFSA05.jpg,FS,4,num_2,16,num_2,1.80001783324,,,2017_Apr_07_1510,60.0083339147,FEMA4ImagesEEG,001,100046,
AMSA21.JPG,AMNE22.JPG,AMNE21.JPG,AMSA23.JPG,AMSA22.JPG,AMNE23.JPG,,,,,,,,,,,,,,,,,0,7,7,1,,,,,,,AFSA02.jpg,AFNE15.jpg,AFNE07.jpg,AFSA12.jpg,AFNE07.jpg,FN,3,num_2,16,num_2,1.1334636393,,,2017_Apr_07_1510,60.0083339147,FEMA4ImagesEEG,001,100046,
AFNE23.JPG,AFNE24.JPG,AFNE22.JPG,AFSA24.JPG,AFSA22.JPG,AFSA23.JPG,,,,,,,,,,,,,,,,,0,8,8,8,,,,,,,AFSA15.jpg,AFSA14.jpg,AFNE08.jpg,AFNE19.jpg,AFSA14.jpg,FS,4,num_6,32,num_8,1.50009991042,,,2017_Apr_07_1510,60.0083339147,FEMA4ImagesEEG,001,100046,
AFSA25.JPG,AFNE24.JPG,AFSA24.JPG,AFNE21.JPG,AFSA21.JPG,AFNE25.JPG,,,,,,,,,,,,,,,,,0,9,9,2,,,,,,,AFSA10.jpg,AFNE18.jpg,AFNE15.jpg,AFSA09.jpg,AFSA09.jpg,FS,4,num_4,16,num_4,1.30010972498,,,2017_Apr_07_1510,60.0083339147,FEMA4ImagesEEG,001,100046,
AFNE22.JPG,AFSA24.JPG,AFSA22.JPG,AFNE25.JPG,AFNE24.JPG,AFSA25.JPG,,,,,,,,,,,,,,,,,,,,,0,0,0,6,,,AMNE03.jpg,AMSA12.jpg,AMNE08.jpg,AMSA13.jpg,AMNE03.jpg,MN,1,num_8,32,num_6,1.61670322553,,,2017_Apr_07_1510,60.0083339147,FEMA4ImagesEEG,001,100046,
AMSA21.JPG,AMNE22.JPG,AMNE21.JPG,AMSA23.JPG,AMSA22.JPG,AMNE23.JPG,,,,,,,,,,,,,,,,,,,,,0,1,1,1,,,AMNE03.jpg,AMSA18.jpg,AMSA01.jpg,AMNE12.jpg,AMSA18.jpg,MS,2,num_6,32,num_2,1.61667147232,,,2017_Apr_07_1510,60.0083339147,FEMA4ImagesEEG,001,100046,
AFSA21.JPG,AFNE22.JPG,AFNE21.JPG,AFSA23.JPG,AFSA22.JPG,AFNE23.JPG,,,,,,,,,,,,,,,,,,,,,0,2,2,0,,,AMSA08.jpg,AMNE17.jpg,AMSA10.jpg,AMNE09.jpg,AMSA10.jpg,MS,2,num_2,16,num_2,1.21674338216,,,2017_Apr_07_1510,60.0083339147,FEMA4ImagesEEG,001,100046,
AFSA21.JPG,AFNE23.JPG,AFNE21.JPG,AFSA25.JPG,AFNE25.JPG,AFSA23.JPG,,,,,,,,,,,,,,,,,,,,,0,3,3,4,,,AMNE04.jpg,AMNE12.jpg,AMSA18.jpg,AMSA02.jpg,AMNE12.jpg,MN,1,num_6,32,num_8,1.23348599463,,,2017_Apr_07_1510,60.0083339147,FEMA4ImagesEEG,001,100046,
AFNE23.JPG,AFNE24.JPG,AFNE22.JPG,AFSA24.JPG,AFSA22.JPG,AFSA23.JPG,,,,,,,,,,,,,,,,,,,,,0,4,4,8,,,AMSA18.jpg,AMNE06.jpg,AMSA07.jpg,AMNE17.jpg,AMSA07.jpg,MS,2,num_2,16,num_2,1.36661927192,,,2017_Apr_07_1510,60.0083339147,FEMA4ImagesEEG,001,100046,
AMSA25.JPG,AMNE24.JPG,AMSA24.JPG,AMNE26.JPG,AMSA21.JPG,AMNE25.JPG,,,,,,,,,,,,,,,,,,,,,0,5,5,3,,,AMNE12.jpg,AMSA01.jpg,AMNE17.jpg,AMSA17.jpg,AMSA01.jpg,MS,2,num_6,16,num_6,1.10008714511,,,2017_Apr_07_1510,60.0083339147,FEMA4ImagesEEG,001,100046,
AMSA21.JPG,AMNE23.JPG,AMNE21.JPG,AMSA25.JPG,AMNE25.JPG,AMSA23.JPG,,,,,,,,,,,,,,,,,,,,,0,6,6,5,,,AMSA08.jpg,AMSA04.jpg,AMNE15.jpg,AMNE08.jpg,AMSA04.jpg,MS,2,num_6,16,num_6,1.20014991378,,,2017_Apr_07_1510,60.0083339147,FEMA4ImagesEEG,001,100046,
AMNE22.JPG,AMSA24.JPG,AMSA22.JPG,AMNE25.JPG,AMNE24.JPG,AMSA25.JPG,,,,,,,,,,,,,,,,,,,,,0,7,7,7,,,AMSA20.jpg,AMNE04.jpg,AMSA06.jpg,AMNE14.jpg,AMNE14.jpg,MN,1,num_4,16,num_4,1.93345388863,,,2017_Apr_07_1510,60.0083339147,FEMA4ImagesEEG,001,100046,
AMNE23.JPG,AMNE24.JPG,AMNE22.JPG,AMSA24.JPG,AMSA22.JPG,AMSA23.JPG,,,,,,,,,,,,,,,,,,,,,0,8,8,9,,,AMSA02.jpg,AMNE18.jpg,AMNE07.jpg,AMSA18.jpg,AMSA02.jpg,MS,2,num_8,32,num_2,1.61672150786,,,2017_Apr_07_1510,60.0083339147,FEMA4ImagesEEG,001,100046,
AFSA25.JPG,AFNE24.JPG,AFSA24.JPG,AFNE21.JPG,AFSA21.JPG,AFNE25.JPG,,,,,,,,,,,,,,,,,,,,,0,9,9,2,,,AMSA10.jpg,AMNE19.jpg,AMSA02.jpg,AMNE12.jpg,AMSA10.jpg,MS,2,num_8,16,num_8,1.63341408502,,,2017_Apr_07_1510,60.0083339147,FEMA4ImagesEEG,001,100046,
,,,,,,,,,,,,,,,,,,,,,,,,,,,,,,,,,,,,,,,,,,,space,7.5495666326,2017_Apr_07_1510,60.0083339147,FEMA4ImagesEEG,001,100046,
AFNE01.JPG,AFNE01.JPG,AFNE01.JPG,AFNE01.JPG,AFNE01.JPG,AFNE01.JPG,0,0,0,3,,,,,,,,,,,,,,,,,,,,,,,AFNE09.jpg,AFNE12.jpg,AFSA16.jpg,AFSA15.jpg,AFNE09.jpg,FN,3,num_8,16,num_8,1.10013108631,,,2017_Apr_07_1510,60.0083339147,FEMA4ImagesEEG,001,100046,
AFNE01.JPG,AFNE01.JPG,AFNE01.JPG,AFNE01.JPG,AFNE01.JPG,AFNE01.JPG,0,1,1,5,,,,,,,,,,,,,,,,,,,,,,,AFSA03.jpg,AFSA14.jpg,AFNE10.jpg,AFNE20.jpg,AFSA14.jpg,FS,4,num_6,32,num_4,1.48339546588,,,2017_Apr_07_1510,60.0083339147,FEMA4ImagesEEG,001,100046,
AFNE01.JPG,AFNE01.JPG,AFNE01.JPG,AFNE01.JPG,AFNE01.JPG,AFNE01.JPG,0,2,2,8,,,,,,,,,,,,,,,,,,,,,,,AFNE05.jpg,AFSA02.jpg,AFNE20.jpg,AFSA12.jpg,AFSA12.jpg,FS,4,num_4,16,num_4,1.11680089077,,,2017_Apr_07_1510,60.0083339147,FEMA4ImagesEEG,001,100046,
AFNE01.JPG,AFNE01.JPG,AFNE01.JPG,AFNE01.JPG,AFNE01.JPG,AFNE01.JPG,0,3,3,7,,,,,,,,,,,,,,,,,,,,,,,AFSA18.jpg,AFSA17.jpg,AFNE08.jpg,AFNE05.jpg,AFSA17.jpg,FS,4,num_6,32,num_8,1.38357389346,,,2017_Apr_07_1510,60.0083339147,FEMA4ImagesEEG,001,100046,
AFNE01.JPG,AFNE01.JPG,AFNE01.JPG,AFNE01.JPG,AFNE01.JPG,AFNE01.JPG,0,4,4,2,,,,,,,,,,,,,,,,,,,,,,,AFSA12.jpg,AFNE01.jpg,AFSA18.jpg,AFNE09.jpg,AFNE01.jpg,FN,3,num_6,32,num_4,1.31674649357,,,2017_Apr_07_1510,60.0083339147,FEMA4ImagesEEG,001,100046,
AFNE01.JPG,AFNE01.JPG,AFNE01.JPG,AFNE01.JPG,AFNE01.JPG,AFNE01.JPG,0,5,5,9,,,,,,,,,,,,,,,,,,,,,,,AFNE13.jpg,AFNE19.jpg,AFSA15.jpg,AFSA14.jpg,AFNE13.jpg,FN,3,num_8,32,num_6,1.50010921201,,,2017_Apr_07_1510,60.0083339147,FEMA4ImagesEEG,001,100046,
AFNE01.JPG,AFNE01.JPG,AFNE01.JPG,AFNE01.JPG,AFNE01.JPG,AFNE01.JPG,0,6,6,1,,,,,,,,,,,,,,,,,,,,,,,AFNE19.jpg,AFSA13.jpg,AFNE07.jpg,AFSA18.jpg,AFSA13.jpg,FS,4,num_6,32,num_4,1.13348160055,,,2017_Apr_07_1510,60.0083339147,FEMA4ImagesEEG,001,100046,
AFNE01.JPG,AFNE01.JPG,AFNE01.JPG,AFNE01.JPG,AFNE01.JPG,AFNE01.JPG,0,7,7,6,,,,,,,,,,,,,,,,,,,,,,,AFSA08.jpg,AFNE11.jpg,AFNE16.jpg,AFSA04.jpg,AFSA04.jpg,FS,4,num_4,32,num_8,1.1834050559,,,2017_Apr_07_1510,60.0083339147,FEMA4ImagesEEG,001,100046,
AFNE01.JPG,AFNE01.JPG,AFNE01.JPG,AFNE01.JPG,AFNE01.JPG,AFNE01.JPG,0,8,8,0,,,,,,,,,,,,,,,,,,,,,,,AFNE15.jpg,AFSA18.jpg,AFSA16.jpg,AFNE13.jpg,AFSA16.jpg,FS,4,num_2,16,num_2,1.11680024955,,,2017_Apr_07_1510,60.0083339147,FEMA4ImagesEEG,001,100046,
AFNE01.JPG,AFNE01.JPG,AFNE01.JPG,AFNE01.JPG,AFNE01.JPG,AFNE01.JPG,0,9,9,4,,,,,,,,,,,,,,,,,,,,,,,AFNE16.jpg,AFNE04.jpg,AFSA17.jpg,AFSA06.jpg,AFNE16.jpg,FN,3,num_8,32,num_6,1.2834675042,,,2017_Apr_07_1510,60.0083339147,FEMA4ImagesEEG,001,100046,
AFNE01.JPG,AFNE01.JPG,AFNE01.JPG,AFNE01.JPG,AFNE01.JPG,AFNE01.JPG,1,0,10,0,,,,,,,,,,,,,,,,,,,,,,,AFSA14.jpg,AFNE11.jpg,AFNE19.jpg,AFSA13.jpg,AFNE11.jpg,FN,3,num_6,16,num_6,2.40002784017,,,2017_Apr_07_1510,60.0083339147,FEMA4ImagesEEG,001,100046,
AFNE01.JPG,AFNE01.JPG,AFNE01.JPG,AFNE01.JPG,AFNE01.JPG,AFNE01.JPG,1,1,11,4,,,,,,,,,,,,,,,,,,,,,,,AFNE14.jpg,AFSA05.jpg,AFNE20.jpg,AFSA01.jpg,AFNE20.jpg,FN,3,num_2,16,num_2,1.21651758137,,,2017_Apr_07_1510,60.0083339147,FEMA4ImagesEEG,001,100046,
AFNE01.JPG,AFNE01.JPG,AFNE01.JPG,AFNE01.JPG,AFNE01.JPG,AFNE01.JPG,1,2,12,7,,,,,,,,,,,,,,,,,,,,,,,AFNE19.jpg,AFNE15.jpg,AFSA16.jpg,AFSA14.jpg,AFSA14.jpg,FS,4,num_4,32,num_2,1.75005973782,,,2017_Apr_07_1510,60.0083339147,FEMA4ImagesEEG,001,100046,
AFNE01.JPG,AFNE01.JPG,AFNE01.JPG,AFNE01.JPG,AFNE01.JPG,AFNE01.JPG,1,3,13,1,,,,,,,,,,,,,,,,,,,,,,,AFNE13.jpg,AFSA17.jpg,AFSA11.jpg,AFNE02.jpg,AFNE13.jpg,FN,3,num_8,32,num_4,1.6332752048,,,2017_Apr_07_1510,60.0083339147,FEMA4ImagesEEG,001,100046,
AFNE01.JPG,AFNE01.JPG,AFNE01.JPG,AFNE01.JPG,AFNE01.JPG,AFNE01.JPG,1,4,14,8,,,,,,,,,,,,,,,,,,,,,,,AFNE12.jpg,AFNE06.jpg,AFSA13.jpg,AFSA05.jpg,AFNE06.jpg,FN,3,num_6,32,num_8,2.2499784301,,,2017_Apr_07_1510,60.0083339147,FEMA4ImagesEEG,001,100046,
AFNE01.JPG,AFNE01.JPG,AFNE01.JPG,AFNE01.JPG,AFNE01.JPG,AFNE01.JPG,1,5,15,5,,,,,,,,,,,,,,,,,,,,,,,AFSA15.jpg,AFSA12.jpg,AFNE03.jpg,AFNE16.jpg,AFSA12.jpg,FS,4,num_6,16,num_6,1.36671068287,,,2017_Apr_07_1510,60.0083339147,FEMA4ImagesEEG,001,100046,
AFNE01.JPG,AFNE01.JPG,AFNE01.JPG,AFNE01.JPG,AFNE01.JPG,AFNE01.JPG,1,6,16,3,,,,,,,,,,,,,,,,,,,,,,,AFNE18.jpg,AFNE09.jpg,AFSA11.jpg,AFSA17.jpg,AFNE09.jpg,FN,3,num_6,32,num_8,1.55010034353,,,2017_Apr_07_1510,60.0083339147,FEMA4ImagesEEG,001,100046,
AFNE01.JPG,AFNE01.JPG,AFNE01.JPG,AFNE01.JPG,AFNE01.JPG,AFNE01.JPG,1,7,17,9,,,,,,,,,,,,,,,,,,,,,,,AFNE19.jpg,AFNE15.jpg,AFSA12.jpg,AFSA11.jpg,AFNE15.jpg,FN,3,num_6,16,num_6,1.25011282018,,,2017_Apr_07_1510,60.0083339147,FEMA4ImagesEEG,001,100046,
AFNE01.JPG,AFNE01.JPG,AFNE01.JPG,AFNE01.JPG,AFNE01.JPG,AFNE01.JPG,1,8,18,6,,,,,,,,,,,,,,,,,,,,,,,AFNE16.jpg,AFSA18.jpg,AFSA19.jpg,AFNE17.jpg,AFNE17.jpg,FN,3,num_4,32,num_2,1.40012630727,,,2017_Apr_07_1510,60.0083339147,FEMA4ImagesEEG,001,100046,
AFNE01.JPG,AFNE01.JPG,AFNE01.JPG,AFNE01.JPG,AFNE01.JPG,AFNE01.JPG,1,9,19,2,,,,,,,,,,,,,,,,,,,,,,,AFNE01.jpg,AFSA19.jpg,AFNE19.jpg,AFSA11.jpg,AFNE01.jpg,FN,3,num_8,16,num_8,1.53342957678,,,2017_Apr_07_1510,60.0083339147,FEMA4ImagesEEG,001,100046,
AFNE01.JPG,AFNE01.JPG,AFNE01.JPG,AFNE01.JPG,AFNE01.JPG,AFNE01.JPG,2,0,20,3,,,,,,,,,,,,,,,,,,,,,,,AFNE02.jpg,AFSA10.jpg,AFNE07.jpg,AFSA14.jpg,AFSA10.jpg,FS,4,num_6,32,num_2,1.633418896,,,2017_Apr_07_1510,60.0083339147,FEMA4ImagesEEG,001,100046,
AFNE01.JPG,AFNE01.JPG,AFNE01.JPG,AFNE01.JPG,AFNE01.JPG,AFNE01.JPG,2,1,21,9,,,,,,,,,,,,,,,,,,,,,,,AFSA04.jpg,AFNE04.jpg,AFNE02.jpg,AFSA11.jpg,AFSA04.jpg,FS,4,num_8,16,num_8,1.25009774533,,,2017_Apr_07_1510,60.0083339147,FEMA4ImagesEEG,001,100046,
AFNE01.JPG,AFNE01.JPG,AFNE01.JPG,AFNE01.JPG,AFNE01.JPG,AFNE01.JPG,2,2,22,5,,,,,,,,,,,,,,,,,,,,,,,AFSA03.jpg,AFSA18.jpg,AFNE08.jpg,AFNE01.jpg,AFSA03.jpg,FS,4,num_8,32,num_6,1.11684547365,,,2017_Apr_07_1510,60.0083339147,FEMA4ImagesEEG,001,100046,
AFNE01.JPG,AFNE01.JPG,AFNE01.JPG,AFNE01.JPG,AFNE01.JPG,AFNE01.JPG,2,3,23,1,,,,,,,,,,,,,,,,,,,,,,,AFSA18.jpg,AFSA15.jpg,AFNE11.jpg,AFNE08.jpg,AFSA18.jpg,FS,4,num_8,32,num_2,1.53335644794,,,2017_Apr_07_1510,60.0083339147,FEMA4ImagesEEG,001,100046,
AFNE01.JPG,AFNE01.JPG,AFNE01.JPG,AFNE01.JPG,AFNE01.JPG,AFNE01.JPG,2,4,24,0,,,,,,,,,,,,,,,,,,,,,,,AFNE05.jpg,AFNE12.jpg,AFSA04.jpg,AFSA10.jpg,AFSA04.jpg,FS,4,num_2,16,num_2,1.70011286833,,,2017_Apr_07_1510,60.0083339147,FEMA4ImagesEEG,001,100046,
AFNE01.JPG,AFNE01.JPG,AFNE01.JPG,AFNE01.JPG,AFNE01.JPG,AFNE01.JPG,2,5,25,7,,,,,,,,,,,,,,,,,,,,,,,AFNE17.jpg,AFNE13.jpg,AFSA05.jpg,AFSA17.jpg,AFNE17.jpg,FN,3,num_8,32,num_6,1.51675143279,,,2017_Apr_07_1510,60.0083339147,FEMA4ImagesEEG,001,100046,
AFNE01.JPG,AFNE01.JPG,AFNE01.JPG,AFNE01.JPG,AFNE01.JPG,AFNE01.JPG,2,6,26,4,,,,,,,,,,,,,,,,,,,,,,,AFNE01.jpg,AFSA10.jpg,AFNE12.jpg,AFSA14.jpg,AFNE12.jpg,FN,3,num_2,16,num_2,1.26658504922,,,2017_Apr_07_1510,60.0083339147,FEMA4ImagesEEG,001,100046,
AFNE01.JPG,AFNE01.JPG,AFNE01.JPG,AFNE01.JPG,AFNE01.JPG,AFNE01.JPG,2,7,27,8,,,,,,,,,,,,,,,,,,,,,,,AFSA18.jpg,AFNE10.jpg,AFNE09.jpg,AFSA13.jpg,AFNE10.jpg,FN,3,num_6,16,num_6,1.21676743776,,,2017_Apr_07_1510,60.0083339147,FEMA4ImagesEEG,001,100046,
AFNE01.JPG,AFNE01.JPG,AFNE01.JPG,AFNE01.JPG,AFNE01.JPG,AFNE01.JPG,2,8,28,6,,,,,,,,,,,,,,,,,,,,,,,AFNE17.jpg,AFSA05.jpg,AFSA04.jpg,AFNE05.jpg,AFNE05.jpg,FN,3,num_4,32,num_8,1.40005093347,,,2017_Apr_07_1510,60.0083339147,FEMA4ImagesEEG,001,100046,
AFNE01.JPG,AFNE01.JPG,AFNE01.JPG,AFNE01.JPG,AFNE01.JPG,AFNE01.JPG,2,9,29,2,,,,,,,,,,,,,,,,,,,,,,,AFSA14.jpg,AFNE09.jpg,AFSA06.jpg,AFNE12.jpg,AFSA06.jpg,FS,4,num_2,16,num_2,1.25007080333,,,2017_Apr_07_1510,60.0083339147,FEMA4ImagesEEG,001,100046,
AFNE01.JPG,AFNE01.JPG,AFNE01.JPG,AFNE01.JPG,AFNE01.JPG,AFNE01.JPG,3,0,30,2,,,,,,,,,,,,,,,,,,,,,,,AFNE19.jpg,AFNE02.jpg,AFSA18.jpg,AFSA17.jpg,AFSA18.jpg,FS,4,num_2,32,num_6,1.35014736373,,,2017_Apr_07_1510,60.0083339147,FEMA4ImagesEEG,001,100046,
AFNE01.JPG,AFNE01.JPG,AFNE01.JPG,AFNE01.JPG,AFNE01.JPG,AFNE01.JPG,3,1,31,4,,,,,,,,,,,,,,,,,,,,,,,AFNE03.jpg,AFSA12.jpg,AFSA18.jpg,AFNE07.jpg,AFSA18.jpg,FS,4,num_2,16,num_2,1.29980598437,,,2017_Apr_07_1510,60.0083339147,FEMA4ImagesEEG,001,100046,
AFNE01.JPG,AFNE01.JPG,AFNE01.JPG,AFNE01.JPG,AFNE01.JPG,AFNE01.JPG,3,2,32,8,,,,,,,,,,,,,,,,,,,,,,,AFNE09.jpg,AFNE18.jpg,AFSA12.jpg,AFSA19.jpg,AFNE09.jpg,FN,3,num_8,32,num_4,1.56669541565,,,2017_Apr_07_1510,60.0083339147,FEMA4ImagesEEG,001,100046,
AFNE01.JPG,AFNE01.JPG,AFNE01.JPG,AFNE01.JPG,AFNE01.JPG,AFNE01.JPG,3,3,33,9,,,,,,,,,,,,,,,,,,,,,,,AFSA13.jpg,AFNE16.jpg,AFSA10.jpg,AFNE06.jpg,AFSA13.jpg,FS,4,num_8,16,num_8,2.51666900283,,,2017_Apr_07_1510,60.0083339147,FEMA4ImagesEEG,001,100046,
AFNE01.JPG,AFNE01.JPG,AFNE01.JPG,AFNE01.JPG,AFNE01.JPG,AFNE01.JPG,3,4,34,1,,,,,,,,,,,,,,,,,,,,,,,AFSA18.jpg,AFSA06.jpg,AFNE20.jpg,AFNE04.jpg,AFNE20.jpg,FN,3,num_2,16,num_2,1.56670150976,,,2017_Apr_07_1510,60.0083339147,FEMA4ImagesEEG,001,100046,
AFNE01.JPG,AFNE01.JPG,AFNE01.JPG,AFNE01.JPG,AFNE01.JPG,AFNE01.JPG,3,5,35,0,,,,,,,,,,,,,,,,,,,,,,,AFNE05.jpg,AFSA12.jpg,AFNE01.jpg,AFSA20.jpg,AFSA12.jpg,FS,4,num_6,16,num_6,1.38340358064,,,2017_Apr_07_1510,60.0083339147,FEMA4ImagesEEG,001,100046,
AFNE01.JPG,AFNE01.JPG,AFNE01.JPG,AFNE01.JPG,AFNE01.JPG,AFNE01.JPG,3,6,36,6,,,,,,,,,,,,,,,,,,,,,,,AFSA10.jpg,AFSA07.jpg,AFNE04.jpg,AFNE16.jpg,AFNE04.jpg,FN,3,num_2,16,num_2,1.25023822952,,,2017_Apr_07_1510,60.0083339147,FEMA4ImagesEEG,001,100046,
AFNE01.JPG,AFNE01.JPG,AFNE01.JPG,AFNE01.JPG,AFNE01.JPG,AFNE01.JPG,3,7,37,7,,,,,,,,,,,,,,,,,,,,,,,AFNE07.jpg,AFSA18.jpg,AFSA06.jpg,AFNE16.jpg,AFSA06.jpg,FS,4,num_2,16,num_2,1.08344107517,,,2017_Apr_07_1510,60.0083339147,FEMA4ImagesEEG,001,100046,
AFNE01.JPG,AFNE01.JPG,AFNE01.JPG,AFNE01.JPG,AFNE01.JPG,AFNE01.JPG,3,8,38,3,,,,,,,,,,,,,,,,,,,,,,,AFSA11.jpg,AFSA20.jpg,AFNE12.jpg,AFNE10.jpg,AFSA11.jpg,FS,4,num_8,32,num_6,1.28343029832,,,2017_Apr_07_1510,60.0083339147,FEMA4ImagesEEG,001,100046,
AFNE01.JPG,AFNE01.JPG,AFNE01.JPG,AFNE01.JPG,AFNE01.JPG,AFNE01.JPG,3,9,39,5,,,,,,,,,,,,,,,,,,,,,,,AFSA08.jpg,AFSA06.jpg,AFNE15.jpg,AFNE12.jpg,AFSA06.jpg,FS,4,num_6,32,num_8,2.29996667523,,,2017_Apr_07_1510,60.0083339147,FEMA4ImagesEEG,001,100046,
AFNE01.JPG,AFNE01.JPG,AFNE01.JPG,AFNE01.JPG,AFNE01.JPG,AFNE01.JPG,4,0,40,9,,,,,,,,,,,,,,,,,,,,,,,AFNE05.jpg,AFSA11.jpg,AFNE13.jpg,AFSA04.jpg,AFNE13.jpg,FN,3,num_2,16,num_2,1.31672243797,,,2017_Apr_07_1510,60.0083339147,FEMA4ImagesEEG,001,100046,
AFNE01.JPG,AFNE01.JPG,AFNE01.JPG,AFNE01.JPG,AFNE01.JPG,AFNE01.JPG,4,1,41,7,,,,,,,,,,,,,,,,,,,,,,,AFNE14.jpg,AFSA14.jpg,AFNE10.jpg,AFSA16.jpg,AFNE10.jpg,FN,3,num_2,16,num_2,1.3666224794,,,2017_Apr_07_1510,60.0083339147,FEMA4ImagesEEG,001,100046,
AFNE01.JPG,AFNE01.JPG,AFNE01.JPG,AFNE01.JPG,AFNE01.JPG,AFNE01.JPG,4,2,42,2,,,,,,,,,,,,,,,,,,,,,,,AFNE15.jpg,AFNE14.jpg,AFSA10.jpg,AFSA15.jpg,AFNE15.jpg,FN,3,num_8,32,num_4,1.43343929504,,,2017_Apr_07_1510,60.0083339147,FEMA4ImagesEEG,001,100046,
AFNE01.JPG,AFNE01.JPG,AFNE01.JPG,AFNE01.JPG,AFNE01.JPG,AFNE01.JPG,4,3,43,6,,,,,,,,,,,,,,,,,,,,,,,AFNE19.jpg,AFNE11.jpg,AFSA11.jpg,AFSA06.jpg,AFSA06.jpg,FS,4,num_4,32,num_8,2.18367159064,,,2017_Apr_07_1510,60.0083339147,FEMA4ImagesEEG,001,100046,
AFNE01.JPG,AFNE01.JPG,AFNE01.JPG,AFNE01.JPG,AFNE01.JPG,AFNE01.JPG,4,4,44,5,,,,,,,,,,,,,,,,,,,,,,,AFNE07.jpg,AFNE02.jpg,AFSA08.jpg,AFSA06.jpg,AFNE02.jpg,FN,3,num_6,16,num_6,1.4166168184,,,2017_Apr_07_1510,60.0083339147,FEMA4ImagesEEG,001,100046,
AFNE01.JPG,AFNE01.JPG,AFNE01.JPG,AFNE01.JPG,AFNE01.JPG,AFNE01.JPG,4,5,45,4,,,,,,,,,,,,,,,,,,,,,,,AFSA02.jpg,AFSA20.jpg,AFNE03.jpg,AFNE13.jpg,AFSA20.jpg,FS,4,num_6,32,num_4,2.10003294004,,,2017_Apr_07_1510,60.0083339147,FEMA4ImagesEEG,001,100046,
AFNE01.JPG,AFNE01.JPG,AFNE01.JPG,AFNE01.JPG,AFNE01.JPG,AFNE01.JPG,4,6,46,3,,,,,,,,,,,,,,,,,,,,,,,AFSA15.jpg,AFNE11.jpg,AFNE05.jpg,AFSA14.jpg,AFNE11.jpg,FN,3,num_6,16,num_6,1.48339001345,,,2017_Apr_07_1510,60.0083339147,FEMA4ImagesEEG,001,100046,
AFNE01.JPG,AFNE01.JPG,AFNE01.JPG,AFNE01.JPG,AFNE01.JPG,AFNE01.JPG,4,7,47,1,,,,,,,,,,,,,,,,,,,,,,,AFSA08.jpg,AFSA01.jpg,AFNE07.jpg,AFNE19.jpg,AFNE19.jpg,FN,3,num_4,16,num_4,2.11669472605,,,2017_Apr_07_1510,60.0083339147,FEMA4ImagesEEG,001,100046,
AFNE01.JPG,AFNE01.JPG,AFNE01.JPG,AFNE01.JPG,AFNE01.JPG,AFNE01.JPG,4,8,48,0,,,,,,,,,,,,,,,,,,,,,,,AFSA01.jpg,AFNE15.jpg,AFSA03.jpg,AFNE14.jpg,AFSA01.jpg,FS,4,num_8,16,num_8,1.86674163421,,,2017_Apr_07_1510,60.0083339147,FEMA4ImagesEEG,001,100046,
AFNE01.JPG,AFNE01.JPG,AFNE01.JPG,AFNE01.JPG,AFNE01.JPG,AFNE01.JPG,4,9,49,8,,,,,,,,,,,,,,,,,,,,,,,AFNE10.jpg,AFSA20.jpg,AFSA02.jpg,AFNE01.jpg,AFNE10.jpg,FN,3,num_8,32,num_2,2.18334636069,,,2017_Apr_07_1510,60.0083339147,FEMA4ImagesEEG,001,100046,
AFNE01.JPG,AFNE01.JPG,AFNE01.JPG,AFNE01.JPG,AFNE01.JPG,AFNE01.JPG,5,0,50,5,,,,,,,,,,,,,,,,,,,,,,,AFSA18.jpg,AFNE13.jpg,AFNE09.jpg,AFSA11.jpg,AFSA11.jpg,FS,4,num_4,32,num_2,1.45004880056,,,2017_Apr_07_1510,60.0083339147,FEMA4ImagesEEG,001,100046,
AFNE01.JPG,AFNE01.JPG,AFNE01.JPG,AFNE01.JPG,AFNE01.JPG,AFNE01.JPG,5,1,51,9,,,,,,,,,,,,,,,,,,,,,,,AFSA01.jpg,AFSA06.jpg,AFNE20.jpg,AFNE11.jpg,AFSA06.jpg,FS,4,num_6,32,num_4,1.93324861536,,,2017_Apr_07_1510,60.0083339147,FEMA4ImagesEEG,001,100046,
AFNE01.JPG,AFNE01.JPG,AFNE01.JPG,AFNE01.JPG,AFNE01.JPG,AFNE01.JPG,5,2,52,7,,,,,,,,,,,,,,,,,,,,,,,AFNE03.jpg,AFSA16.jpg,AFSA14.jpg,AFNE10.jpg,AFNE10.jpg,FN,3,num_4,16,num_4,1.25010640547,,,2017_Apr_07_1510,60.0083339147,FEMA4ImagesEEG,001,100046,
AFNE01.JPG,AFNE01.JPG,AFNE01.JPG,AFNE01.JPG,AFNE01.JPG,AFNE01.JPG,5,3,53,3,,,,,,,,,,,,,,,,,,,,,,,AFSA06.jpg,AFNE05.jpg,AFNE02.jpg,AFSA11.jpg,AFNE02.jpg,FN,3,num_2,16,num_2,1.56691351859,,,2017_Apr_07_1510,60.0083339147,FEMA4ImagesEEG,001,100046,
AFNE01.JPG,AFNE01.JPG,AFNE01.JPG,AFNE01.JPG,AFNE01.JPG,AFNE01.JPG,5,4,54,4,,,,,,,,,,,,,,,,,,,,,,,AFNE04.jpg,AFSA02.jpg,AFNE17.jpg,AFSA17.jpg,AFSA02.jpg,FS,4,num_6,16,num_6,1.58343514148,,,2017_Apr_07_1510,60.0083339147,FEMA4ImagesEEG,001,100046,
AFNE01.JPG,AFNE01.JPG,AFNE01.JPG,AFNE01.JPG,AFNE01.JPG,AFNE01.JPG,5,5,55,8,,,,,,,,,,,,,,,,,,,,,,,AFNE01.jpg,AFNE08.jpg,AFSA19.jpg,AFSA16.jpg,AFSA16.jpg,FS,4,num_4,32,num_8,1.61672663968,,,2017_Apr_07_1510,60.0083339147,FEMA4ImagesEEG,001,100046,
AFNE01.JPG,AFNE01.JPG,AFNE01.JPG,AFNE01.JPG,AFNE01.JPG,AFNE01.JPG,5,6,56,1,,,,,,,,,,,,,,,,,,,,,,,AFNE14.jpg,AFSA16.jpg,AFNE06.jpg,AFSA09.jpg,AFNE06.jpg,FN,3,num_2,16,num_2,1.60005875956,,,2017_Apr_07_1510,60.0083339147,FEMA4ImagesEEG,001,100046,
AFNE01.JPG,AFNE01.JPG,AFNE01.JPG,AFNE01.JPG,AFNE01.JPG,AFNE01.JPG,5,7,57,6,,,,,,,,,,,,,,,,,,,,,,,AFNE02.jpg,AFSA04.jpg,AFSA10.jpg,AFNE03.jpg,AFNE02.jpg,FN,3,num_8,16,num_8,2.69998425175,,,2017_Apr_07_1510,60.0083339147,FEMA4ImagesEEG,001,100046,
AFNE01.JPG,AFNE01.JPG,AFNE01.JPG,AFNE01.JPG,AFNE01.JPG,AFNE01.JPG,5,8,58,0,,,,,,,,,,,,,,,,,,,,,,,AFNE15.jpg,AFNE03.jpg,AFSA01.jpg,AFSA14.jpg,AFNE15.jpg,FN,3,num_8,32,num_6,1.78339806409,,,2017_Apr_07_1510,60.0083339147,FEMA4ImagesEEG,001,100046,
AFNE01.JPG,AFNE01.JPG,AFNE01.JPG,AFNE01.JPG,AFNE01.JPG,AFNE01.JPG,5,9,59,2,,,,,,,,,,,,,,,,,,,,,,,AFSA18.jpg,AFSA03.jpg,AFNE01.jpg,AFNE09.jpg,AFNE01.jpg,FN,3,num_2,32,num_8,2.06669012364,,,2017_Apr_07_1510,60.0083339147,FEMA4ImagesEEG,001,100046,
,,,,,,,,,,,,,,,,,,,,,,,,,,,,,,,,,,,,,,,,,,,space,2.48313053488,2017_Apr_07_1510,60.0083339147,FEMA4ImagesEEG,001,100046,
AFNE01.JPG,AFNE01.JPG,AFNE01.JPG,AFNE01.JPG,AFNE01.JPG,AFNE01.JPG,,,,,0,0,0,2,,,,,,,,,,,,,,,,,,,AMSA08.jpg,AMNE18.jpg,AMSA03.jpg,AMNE17.jpg,AMNE17.jpg,MN,1,num_4,32,num_6,1.40006729122,,,2017_Apr_07_1510,60.0083339147,FEMA4ImagesEEG,001,100046,
AFNE01.JPG,AFNE01.JPG,AFNE01.JPG,AFNE01.JPG,AFNE01.JPG,AFNE01.JPG,,,,,0,1,1,0,,,,,,,,,,,,,,,,,,,AMSA09.jpg,AMSA01.jpg,AMNE03.jpg,AMNE10.jpg,AMSA09.jpg,MS,2,num_8,16,num_8,1.98336547683,,,2017_Apr_07_1510,60.0083339147,FEMA4ImagesEEG,001,100046,
AFNE01.JPG,AFNE01.JPG,AFNE01.JPG,AFNE01.JPG,AFNE01.JPG,AFNE01.JPG,,,,,0,2,2,5,,,,,,,,,,,,,,,,,,,AMSA19.jpg,AMNE03.jpg,AMNE07.jpg,AMSA10.jpg,AMNE03.jpg,MN,1,num_6,32,num_2,1.50034463475,,,2017_Apr_07_1510,60.0083339147,FEMA4ImagesEEG,001,100046,
AFNE01.JPG,AFNE01.JPG,AFNE01.JPG,AFNE01.JPG,AFNE01.JPG,AFNE01.JPG,,,,,0,3,3,7,,,,,,,,,,,,,,,,,,,AMNE02.jpg,AMSA11.jpg,AMNE08.jpg,AMSA06.jpg,AMSA11.jpg,MS,2,num_6,16,num_6,1.48344678432,,,2017_Apr_07_1510,60.0083339147,FEMA4ImagesEEG,001,100046,
AFNE01.JPG,AFNE01.JPG,AFNE01.JPG,AFNE01.JPG,AFNE01.JPG,AFNE01.JPG,,,,,0,4,4,9,,,,,,,,,,,,,,,,,,,AMNE12.jpg,AMNE11.jpg,AMSA05.jpg,AMSA06.jpg,AMSA06.jpg,MS,2,num_4,16,num_4,2.40003168909,,,2017_Apr_07_1510,60.0083339147,FEMA4ImagesEEG,001,100046,
AFNE01.JPG,AFNE01.JPG,AFNE01.JPG,AFNE01.JPG,AFNE01.JPG,AFNE01.JPG,,,,,0,5,5,3,,,,,,,,,,,,,,,,,,,AMNE04.jpg,AMSA13.jpg,AMSA14.jpg,AMNE14.jpg,AMNE04.jpg,MN,1,num_8,32,num_6,1.96667867294,,,2017_Apr_07_1510,60.0083339147,FEMA4ImagesEEG,001,100046,
AFNE01.JPG,AFNE01.JPG,AFNE01.JPG,AFNE01.JPG,AFNE01.JPG,AFNE01.JPG,,,,,0,6,6,8,,,,,,,,,,,,,,,,,,,AMNE01.jpg,AMNE11.jpg,AMSA18.jpg,AMSA04.jpg,AMNE01.jpg,MN,1,num_8,16,num_8,1.56676533679,,,2017_Apr_07_1510,60.0083339147,FEMA4ImagesEEG,001,100046,
AFNE01.JPG,AFNE01.JPG,AFNE01.JPG,AFNE01.JPG,AFNE01.JPG,AFNE01.JPG,,,,,0,7,7,4,,,,,,,,,,,,,,,,,,,AMNE11.jpg,AMNE06.jpg,AMSA01.jpg,AMSA05.jpg,AMSA01.jpg,MS,2,num_2,16,num_2,1.31671249517,,,2017_Apr_07_1510,60.0083339147,FEMA4ImagesEEG,001,100046,
AFNE01.JPG,AFNE01.JPG,AFNE01.JPG,AFNE01.JPG,AFNE01.JPG,AFNE01.JPG,,,,,0,8,8,6,,,,,,,,,,,,,,,,,,,AMSA13.jpg,AMNE01.jpg,AMSA03.jpg,AMNE20.jpg,AMSA13.jpg,MS,2,num_8,16,num_8,1.4334787461,,,2017_Apr_07_1510,60.0083339147,FEMA4ImagesEEG,001,100046,
AFNE01.JPG,AFNE01.JPG,AFNE01.JPG,AFNE01.JPG,AFNE01.JPG,AFNE01.JPG,,,,,0,9,9,1,,,,,,,,,,,,,,,,,,,AMSA12.jpg,AMSA18.jpg,AMNE02.jpg,AMNE16.jpg,AMNE16.jpg,MN,1,num_4,16,num_4,1.35001746425,,,2017_Apr_07_1510,60.0083339147,FEMA4ImagesEEG,001,100046,
AFNE01.JPG,AFNE01.JPG,AFNE01.JPG,AFNE01.JPG,AFNE01.JPG,AFNE01.JPG,,,,,1,0,10,6,,,,,,,,,,,,,,,,,,,AMSA05.jpg,AMNE17.jpg,AMSA11.jpg,AMNE05.jpg,AMSA11.jpg,MS,2,num_2,16,num_2,1.30018125009,,,2017_Apr_07_1510,60.0083339147,FEMA4ImagesEEG,001,100046,
AFNE01.JPG,AFNE01.JPG,AFNE01.JPG,AFNE01.JPG,AFNE01.JPG,AFNE01.JPG,,,,,1,1,11,1,,,,,,,,,,,,,,,,,,,AMSA08.jpg,AMNE12.jpg,AMSA07.jpg,AMNE05.jpg,AMSA08.jpg,MS,2,num_8,32,num_6,2.54996851948,,,2017_Apr_07_1510,60.0083339147,FEMA4ImagesEEG,001,100046,
AFNE01.JPG,AFNE01.JPG,AFNE01.JPG,AFNE01.JPG,AFNE01.JPG,AFNE01.JPG,,,,,1,2,12,3,,,,,,,,,,,,,,,,,,,AMNE18.jpg,AMNE09.jpg,AMSA17.jpg,AMSA14.jpg,AMSA17.jpg,MS,2,num_2,16,num_2,1.28328051302,,,2017_Apr_07_1510,60.0083339147,FEMA4ImagesEEG,001,100046,
AFNE01.JPG,AFNE01.JPG,AFNE01.JPG,AFNE01.JPG,AFNE01.JPG,AFNE01.JPG,,,,,1,3,13,8,,,,,,,,,,,,,,,,,,,AMSA20.jpg,AMSA07.jpg,AMNE20.jpg,AMNE16.jpg,AMNE20.jpg,MN,1,num_2,16,num_2,1.25011570682,,,2017_Apr_07_1510,60.0083339147,FEMA4ImagesEEG,001,100046,
AFNE01.JPG,AFNE01.JPG,AFNE01.JPG,AFNE01.JPG,AFNE01.JPG,AFNE01.JPG,,,,,1,4,14,2,,,,,,,,,,,,,,,,,,,AMSA13.jpg,AMNE03.jpg,AMSA04.jpg,AMNE17.jpg,AMNE17.jpg,MN,1,num_4,16,num_4,1.16677021212,,,2017_Apr_07_1510,60.0083339147,FEMA4ImagesEEG,001,100046,
AFNE01.JPG,AFNE01.JPG,AFNE01.JPG,AFNE01.JPG,AFNE01.JPG,AFNE01.JPG,,,,,1,5,15,9,,,,,,,,,,,,,,,,,,,AMSA09.jpg,AMSA12.jpg,AMNE20.jpg,AMNE15.jpg,AMNE15.jpg,MN,1,num_4,32,num_8,1.43372347043,,,2017_Apr_07_1510,60.0083339147,FEMA4ImagesEEG,001,100046,
AFNE01.JPG,AFNE01.JPG,AFNE01.JPG,AFNE01.JPG,AFNE01.JPG,AFNE01.JPG,,,,,1,6,16,7,,,,,,,,,,,,,,,,,,,AMNE05.jpg,AMSA13.jpg,AMNE16.jpg,AMSA20.jpg,AMSA20.jpg,MS,2,num_4,16,num_4,1.21674145781,,,2017_Apr_07_1510,60.0083339147,FEMA4ImagesEEG,001,100046,
AFNE01.JPG,AFNE01.JPG,AFNE01.JPG,AFNE01.JPG,AFNE01.JPG,AFNE01.JPG,,,,,1,7,17,4,,,,,,,,,,,,,,,,,,,AMSA05.jpg,AMNE02.jpg,AMSA13.jpg,AMNE18.jpg,AMNE02.jpg,MN,1,num_6,16,num_6,1.13348512887,,,2017_Apr_07_1510,60.0083339147,FEMA4ImagesEEG,001,100046,
AFNE01.JPG,AFNE01.JPG,AFNE01.JPG,AFNE01.JPG,AFNE01.JPG,AFNE01.JPG,,,,,1,8,18,0,,,,,,,,,,,,,,,,,,,AMNE13.jpg,AMSA10.jpg,AMNE15.jpg,AMSA07.jpg,AMSA07.jpg,MS,2,num_4,16,num_4,1.63342466927,,,2017_Apr_07_1510,60.0083339147,FEMA4ImagesEEG,001,100046,
AFNE01.JPG,AFNE01.JPG,AFNE01.JPG,AFNE01.JPG,AFNE01.JPG,AFNE01.JPG,,,,,1,9,19,5,,,,,,,,,,,,,,,,,,,AMSA20.jpg,AMNE14.jpg,AMNE09.jpg,AMSA17.jpg,AMSA20.jpg,MS,2,num_8,16,num_8,1.31680037756,,,2017_Apr_07_1510,60.0083339147,FEMA4ImagesEEG,001,100046,
AFNE01.JPG,AFNE01.JPG,AFNE01.JPG,AFNE01.JPG,AFNE01.JPG,AFNE01.JPG,,,,,2,0,20,3,,,,,,,,,,,,,,,,,,,AMNE19.jpg,AMNE01.jpg,AMSA04.jpg,AMSA15.jpg,AMNE19.jpg,MN,1,num_8,16,num_8,1.5167090951,,,2017_Apr_07_1510,60.0083339147,FEMA4ImagesEEG,001,100046,
AFNE01.JPG,AFNE01.JPG,AFNE01.JPG,AFNE01.JPG,AFNE01.JPG,AFNE01.JPG,,,,,2,1,21,9,,,,,,,,,,,,,,,,,,,AMNE09.jpg,AMSA19.jpg,AMSA01.jpg,AMNE13.jpg,AMNE13.jpg,MN,1,num_4,16,num_4,2.61677026027,,,2017_Apr_07_1510,60.0083339147,FEMA4ImagesEEG,001,100046,
AFNE01.JPG,AFNE01.JPG,AFNE01.JPG,AFNE01.JPG,AFNE01.JPG,AFNE01.JPG,,,,,2,2,22,7,,,,,,,,,,,,,,,,,,,AMNE07.jpg,AMNE03.jpg,AMSA15.jpg,AMSA20.jpg,AMSA20.jpg,MS,2,num_4,32,num_6,2.33334349003,,,2017_Apr_07_1510,60.0083339147,FEMA4ImagesEEG,001,100046,
AFNE01.JPG,AFNE01.JPG,AFNE01.JPG,AFNE01.JPG,AFNE01.JPG,AFNE01.JPG,,,,,2,3,23,2,,,,,,,,,,,,,,,,,,,AMSA13.jpg,AMNE15.jpg,AMNE11.jpg,AMSA04.jpg,AMSA13.jpg,MS,2,num_8,32,num_2,1.38341673114,,,2017_Apr_07_1510,60.0083339147,FEMA4ImagesEEG,001,100046,
AFNE01.JPG,AFNE01.JPG,AFNE01.JPG,AFNE01.JPG,AFNE01.JPG,AFNE01.JPG,,,,,2,4,24,8,,,,,,,,,,,,,,,,,,,AMNE11.jpg,AMNE20.jpg,AMSA19.jpg,AMSA13.jpg,AMSA19.jpg,MS,2,num_2,16,num_2,1.13342803693,,,2017_Apr_07_1510,60.0083339147,FEMA4ImagesEEG,001,100046,
AFNE01.JPG,AFNE01.JPG,AFNE01.JPG,AFNE01.JPG,AFNE01.JPG,AFNE01.JPG,,,,,2,5,25,4,,,,,,,,,,,,,,,,,,,AMNE10.jpg,AMNE18.jpg,AMSA11.jpg,AMSA01.jpg,AMNE18.jpg,MN,1,num_6,32,num_4,1.48345384048,,,2017_Apr_07_1510,60.0083339147,FEMA4ImagesEEG,001,100046,
AFNE01.JPG,AFNE01.JPG,AFNE01.JPG,AFNE01.JPG,AFNE01.JPG,AFNE01.JPG,,,,,2,6,26,1,,,,,,,,,,,,,,,,,,,AMSA07.jpg,AMSA12.jpg,AMNE17.jpg,AMNE12.jpg,AMSA12.jpg,MS,2,num_6,32,num_8,1.44991569361,,,2017_Apr_07_1510,60.0083339147,FEMA4ImagesEEG,001,100046,
AFNE01.JPG,AFNE01.JPG,AFNE01.JPG,AFNE01.JPG,AFNE01.JPG,AFNE01.JPG,,,,,2,7,27,6,,,,,,,,,,,,,,,,,,,AMSA09.jpg,AMSA15.jpg,AMNE10.jpg,AMNE05.jpg,AMSA09.jpg,MS,2,num_8,16,num_8,1.43340080627,,,2017_Apr_07_1510,60.0083339147,FEMA4ImagesEEG,001,100046,
AFNE01.JPG,AFNE01.JPG,AFNE01.JPG,AFNE01.JPG,AFNE01.JPG,AFNE01.JPG,,,,,2,8,28,5,,,,,,,,,,,,,,,,,,,AMSA16.jpg,AMNE06.jpg,AMSA13.jpg,AMNE16.jpg,AMNE06.jpg,MN,1,num_6,32,num_4,2.10000407347,,,2017_Apr_07_1510,60.0083339147,FEMA4ImagesEEG,001,100046,
AFNE01.JPG,AFNE01.JPG,AFNE01.JPG,AFNE01.JPG,AFNE01.JPG,AFNE01.JPG,,,,,2,9,29,0,,,,,,,,,,,,,,,,,,,AMNE09.jpg,AMSA04.jpg,AMSA07.jpg,AMNE05.jpg,AMNE09.jpg,MN,1,num_8,16,num_8,1.31666342192,,,2017_Apr_07_1510,60.0083339147,FEMA4ImagesEEG,001,100046,
AFNE01.JPG,AFNE01.JPG,AFNE01.JPG,AFNE01.JPG,AFNE01.JPG,AFNE01.JPG,,,,,3,0,30,6,,,,,,,,,,,,,,,,,,,AMSA10.jpg,AMSA12.jpg,AMNE14.jpg,AMNE03.jpg,AMNE03.jpg,MN,1,num_4,32,num_2,1.21679758723,,,2017_Apr_07_1510,60.0083339147,FEMA4ImagesEEG,001,100046,
AFNE01.JPG,AFNE01.JPG,AFNE01.JPG,AFNE01.JPG,AFNE01.JPG,AFNE01.JPG,,,,,3,1,31,8,,,,,,,,,,,,,,,,,,,AMNE10.jpg,AMSA04.jpg,AMNE01.jpg,AMSA02.jpg,AMNE01.jpg,MN,1,num_2,16,num_2,1.13342515053,,,2017_Apr_07_1510,60.0083339147,FEMA4ImagesEEG,001,100046,
AFNE01.JPG,AFNE01.JPG,AFNE01.JPG,AFNE01.JPG,AFNE01.JPG,AFNE01.JPG,,,,,3,2,32,9,,,,,,,,,,,,,,,,,,,AMSA14.jpg,AMNE08.jpg,AMSA09.jpg,AMNE01.jpg,AMSA14.jpg,MS,2,num_8,16,num_8,2.01665729587,,,2017_Apr_07_1510,60.0083339147,FEMA4ImagesEEG,001,100046,
AFNE01.JPG,AFNE01.JPG,AFNE01.JPG,AFNE01.JPG,AFNE01.JPG,AFNE01.JPG,,,,,3,3,33,7,,,,,,,,,,,,,,,,,,,AMNE15.jpg,AMSA02.jpg,AMSA15.jpg,AMNE20.jpg,AMNE20.jpg,MN,1,num_4,16,num_4,3.24993256456,,,2017_Apr_07_1510,60.0083339147,FEMA4ImagesEEG,001,100046,
AFNE01.JPG,AFNE01.JPG,AFNE01.JPG,AFNE01.JPG,AFNE01.JPG,AFNE01.JPG,,,,,3,4,34,5,,,,,,,,,,,,,,,,,,,AMSA10.jpg,AMNE16.jpg,AMSA05.jpg,AMNE07.jpg,AMNE16.jpg,MN,1,num_6,32,num_8,1.15007731435,,,2017_Apr_07_1510,60.0083339147,FEMA4ImagesEEG,001,100046,
AFNE01.JPG,AFNE01.JPG,AFNE01.JPG,AFNE01.JPG,AFNE01.JPG,AFNE01.JPG,,,,,3,5,35,0,,,,,,,,,,,,,,,,,,,AMNE12.jpg,AMNE09.jpg,AMSA18.jpg,AMSA03.jpg,AMSA03.jpg,MS,2,num_4,16,num_4,1.36676969891,,,2017_Apr_07_1510,60.0083339147,FEMA4ImagesEEG,001,100046,
AFNE01.JPG,AFNE01.JPG,AFNE01.JPG,AFNE01.JPG,AFNE01.JPG,AFNE01.JPG,,,,,3,6,36,4,,,,,,,,,,,,,,,,,,,AMSA09.jpg,AMNE12.jpg,AMSA10.jpg,AMNE20.jpg,AMSA09.jpg,MS,2,num_8,16,num_8,1.35012940248,,,2017_Apr_07_1510,60.0083339147,FEMA4ImagesEEG,001,100046,
AFNE01.JPG,AFNE01.JPG,AFNE01.JPG,AFNE01.JPG,AFNE01.JPG,AFNE01.JPG,,,,,3,7,37,2,,,,,,,,,,,,,,,,,,,AMNE20.jpg,AMNE10.jpg,AMSA12.jpg,AMSA09.jpg,AMSA09.jpg,MS,2,num_4,32,num_6,1.31660408503,,,2017_Apr_07_1510,60.0083339147,FEMA4ImagesEEG,001,100046,
AFNE01.JPG,AFNE01.JPG,AFNE01.JPG,AFNE01.JPG,AFNE01.JPG,AFNE01.JPG,,,,,3,8,38,1,,,,,,,,,,,,,,,,,,,AMSA09.jpg,AMNE09.jpg,AMSA05.jpg,AMNE08.jpg,AMNE08.jpg,MN,1,num_4,16,num_4,1.81670335378,,,2017_Apr_07_1510,60.0083339147,FEMA4ImagesEEG,001,100046,
AFNE01.JPG,AFNE01.JPG,AFNE01.JPG,AFNE01.JPG,AFNE01.JPG,AFNE01.JPG,,,,,3,9,39,3,,,,,,,,,,,,,,,,,,,AMSA17.jpg,AMNE03.jpg,AMSA03.jpg,AMNE09.jpg,AMNE09.jpg,MN,1,num_4,32,num_2,2.06686236057,,,2017_Apr_07_1510,60.0083339147,FEMA4ImagesEEG,001,100046,
AFNE01.JPG,AFNE01.JPG,AFNE01.JPG,AFNE01.JPG,AFNE01.JPG,AFNE01.JPG,,,,,4,0,40,4,,,,,,,,,,,,,,,,,,,AMNE17.jpg,AMNE13.jpg,AMSA02.jpg,AMSA10.jpg,AMNE13.jpg,MN,1,num_6,32,num_8,1.85004296317,,,2017_Apr_07_1510,60.0083339147,FEMA4ImagesEEG,001,100046,
AFNE01.JPG,AFNE01.JPG,AFNE01.JPG,AFNE01.JPG,AFNE01.JPG,AFNE01.JPG,,,,,4,1,41,8,,,,,,,,,,,,,,,,,,,AMNE05.jpg,AMSA04.jpg,AMNE01.jpg,AMSA15.jpg,AMSA04.jpg,MS,2,num_6,16,num_6,1.35006429232,,,2017_Apr_07_1510,60.0083339147,FEMA4ImagesEEG,001,100046,
AFNE01.JPG,AFNE01.JPG,AFNE01.JPG,AFNE01.JPG,AFNE01.JPG,AFNE01.JPG,,,,,4,2,42,5,,,,,,,,,,,,,,,,,,,AMNE16.jpg,AMNE20.jpg,AMSA06.jpg,AMSA01.jpg,AMSA06.jpg,MS,2,num_2,32,num_8,1.80008807499,,,2017_Apr_07_1510,60.0083339147,FEMA4ImagesEEG,001,100046,
AFNE01.JPG,AFNE01.JPG,AFNE01.JPG,AFNE01.JPG,AFNE01.JPG,AFNE01.JPG,,,,,4,3,43,2,,,,,,,,,,,,,,,,,,,AMNE01.jpg,AMNE12.jpg,AMSA03.jpg,AMSA01.jpg,AMSA03.jpg,MS,2,num_2,16,num_2,1.40011925087,,,2017_Apr_07_1510,60.0083339147,FEMA4ImagesEEG,001,100046,
AFNE01.JPG,AFNE01.JPG,AFNE01.JPG,AFNE01.JPG,AFNE01.JPG,AFNE01.JPG,,,,,4,4,44,6,,,,,,,,,,,,,,,,,,,AMNE16.jpg,AMSA08.jpg,AMSA05.jpg,AMNE07.jpg,AMSA08.jpg,MS,2,num_6,16,num_6,1.35014159046,,,2017_Apr_07_1510,60.0083339147,FEMA4ImagesEEG,001,100046,
AFNE01.JPG,AFNE01.JPG,AFNE01.JPG,AFNE01.JPG,AFNE01.JPG,AFNE01.JPG,,,,,4,5,45,0,,,,,,,,,,,,,,,,,,,AMNE01.jpg,AMSA01.jpg,AMNE15.jpg,AMSA20.jpg,AMNE15.jpg,MN,1,num_2,32,num_4,1.71666977252,,,2017_Apr_07_1510,60.0083339147,FEMA4ImagesEEG,001,100046,
AFNE01.JPG,AFNE01.JPG,AFNE01.JPG,AFNE01.JPG,AFNE01.JPG,AFNE01.JPG,,,,,4,6,46,7,,,,,,,,,,,,,,,,,,,AMNE06.jpg,AMSA11.jpg,AMNE20.jpg,AMSA17.jpg,AMNE20.jpg,MN,1,num_2,32,num_4,1.95009290217,,,2017_Apr_07_1510,60.0083339147,FEMA4ImagesEEG,001,100046,
AFNE01.JPG,AFNE01.JPG,AFNE01.JPG,AFNE01.JPG,AFNE01.JPG,AFNE01.JPG,,,,,4,7,47,1,,,,,,,,,,,,,,,,,,,AMNE09.jpg,AMSA02.jpg,AMSA08.jpg,AMNE01.jpg,AMNE01.jpg,MN,1,num_4,16,num_4,1.15006288094,,,2017_Apr_07_1510,60.0083339147,FEMA4ImagesEEG,001,100046,
AFNE01.JPG,AFNE01.JPG,AFNE01.JPG,AFNE01.JPG,AFNE01.JPG,AFNE01.JPG,,,,,4,8,48,3,,,,,,,,,,,,,,,,,,,AMSA16.jpg,AMSA11.jpg,AMNE02.jpg,AMNE17.jpg,AMSA11.jpg,MS,2,num_6,32,num_8,1.61642386136,,,2017_Apr_07_1510,60.0083339147,FEMA4ImagesEEG,001,100046,
AFNE01.JPG,AFNE01.JPG,AFNE01.JPG,AFNE01.JPG,AFNE01.JPG,AFNE01.JPG,,,,,4,9,49,9,,,,,,,,,,,,,,,,,,,AMNE05.jpg,AMNE04.jpg,AMSA14.jpg,AMSA07.jpg,AMNE05.jpg,MN,1,num_8,32,num_4,1.13345337543,,,2017_Apr_07_1510,60.0083339147,FEMA4ImagesEEG,001,100046,
AFNE01.JPG,AFNE01.JPG,AFNE01.JPG,AFNE01.JPG,AFNE01.JPG,AFNE01.JPG,,,,,5,0,50,4,,,,,,,,,,,,,,,,,,,AMNE02.jpg,AMSA08.jpg,AMSA11.jpg,AMNE06.jpg,AMNE06.jpg,MN,1,num_4,16,num_4,1.38339107181,,,2017_Apr_07_1510,60.0083339147,FEMA4ImagesEEG,001,100046,
AFNE01.JPG,AFNE01.JPG,AFNE01.JPG,AFNE01.JPG,AFNE01.JPG,AFNE01.JPG,,,,,5,1,51,1,,,,,,,,,,,,,,,,,,,AMNE14.jpg,AMSA16.jpg,AMNE12.jpg,AMSA18.jpg,AMNE12.jpg,MN,1,num_2,16,num_2,1.30008502817,,,2017_Apr_07_1510,60.0083339147,FEMA4ImagesEEG,001,100046,
AFNE01.JPG,AFNE01.JPG,AFNE01.JPG,AFNE01.JPG,AFNE01.JPG,AFNE01.JPG,,,,,5,2,52,8,,,,,,,,,,,,,,,,,,,AMSA18.jpg,AMNE18.jpg,AMSA02.jpg,AMNE05.jpg,AMNE18.jpg,MN,1,num_6,16,num_6,1.50011209864,,,2017_Apr_07_1510,60.0083339147,FEMA4ImagesEEG,001,100046,
AFNE01.JPG,AFNE01.JPG,AFNE01.JPG,AFNE01.JPG,AFNE01.JPG,AFNE01.JPG,,,,,5,3,53,0,,,,,,,,,,,,,,,,,,,AMSA07.jpg,AMNE14.jpg,AMSA06.jpg,AMNE02.jpg,AMNE14.jpg,MN,1,num_6,32,num_2,1.68338565133,,,2017_Apr_07_1510,60.0083339147,FEMA4ImagesEEG,001,100046,
AFNE01.JPG,AFNE01.JPG,AFNE01.JPG,AFNE01.JPG,AFNE01.JPG,AFNE01.JPG,,,,,5,4,54,9,,,,,,,,,,,,,,,,,,,AMSA07.jpg,AMNE18.jpg,AMNE14.jpg,AMSA04.jpg,AMNE14.jpg,MN,1,num_2,16,num_2,1.9999987171,,,2017_Apr_07_1510,60.0083339147,FEMA4ImagesEEG,001,100046,
AFNE01.JPG,AFNE01.JPG,AFNE01.JPG,AFNE01.JPG,AFNE01.JPG,AFNE01.JPG,,,,,5,5,55,6,,,,,,,,,,,,,,,,,,,AMSA07.jpg,AMNE13.jpg,AMSA05.jpg,AMNE14.jpg,AMNE14.jpg,MN,1,num_4,16,num_4,2.35004055756,,,2017_Apr_07_1510,60.0083339147,FEMA4ImagesEEG,001,100046,
AFNE01.JPG,AFNE01.JPG,AFNE01.JPG,AFNE01.JPG,AFNE01.JPG,AFNE01.JPG,,,,,5,6,56,5,,,,,,,,,,,,,,,,,,,AMSA16.jpg,AMNE01.jpg,AMSA19.jpg,AMNE08.jpg,AMNE08.jpg,MN,1,num_4,32,num_8,1.80003290786,,,2017_Apr_07_1510,60.0083339147,FEMA4ImagesEEG,001,100046,
AFNE01.JPG,AFNE01.JPG,AFNE01.JPG,AFNE01.JPG,AFNE01.JPG,AFNE01.JPG,,,,,5,7,57,3,,,,,,,,,,,,,,,,,,,AMNE10.jpg,AMNE18.jpg,AMSA04.jpg,AMSA20.jpg,AMNE10.jpg,MN,1,num_8,32,num_4,1.60005940101,,,2017_Apr_07_1510,60.0083339147,FEMA4ImagesEEG,001,100046,
AFNE01.JPG,AFNE01.JPG,AFNE01.JPG,AFNE01.JPG,AFNE01.JPG,AFNE01.JPG,,,,,5,8,58,2,,,,,,,,,,,,,,,,,,,AMNE02.jpg,AMSA07.jpg,AMNE10.jpg,AMSA18.jpg,AMNE10.jpg,MN,1,num_2,16,num_2,1.45009562862,,,2017_Apr_07_1510,60.0083339147,FEMA4ImagesEEG,001,100046,
AFNE01.JPG,AFNE01.JPG,AFNE01.JPG,AFNE01.JPG,AFNE01.JPG,AFNE01.JPG,,,,,5,9,59,7,,,,,,,,,,,,,,,,,,,AMSA05.jpg,AMSA16.jpg,AMNE06.jpg,AMNE12.jpg,AMSA05.jpg,MS,2,num_8,32,num_6,1.48362671933,,,2017_Apr_07_1510,60.0083339147,FEMA4ImagesEEG,001,100046,
,,,,,,,,,,,,,,,,,,,,,,,,,,,,,,,,,,,,,,,,,,,space,3.14991245419,2017_Apr_07_1510,60.0083339147,FEMA4ImagesEEG,001,100046,
AFNE01.JPG,AFNE01.JPG,AFNE01.JPG,AFNE01.JPG,AFNE01.JPG,AFNE01.JPG,,,,,,,,,0,0,0,5,,,,,,,,,,,,,,,AFSA11.jpg,AFSA01.jpg,AFNE14.jpg,AFNE04.jpg,AFSA11.jpg,FS,4,num_8,32,num_6,1.36671966361,,,2017_Apr_07_1510,60.0083339147,FEMA4ImagesEEG,001,100046,
AFNE01.JPG,AFNE01.JPG,AFNE01.JPG,AFNE01.JPG,AFNE01.JPG,AFNE01.JPG,,,,,,,,,0,1,1,7,,,,,,,,,,,,,,,AFNE15.jpg,AFSA05.jpg,AFNE10.jpg,AFSA03.jpg,AFNE10.jpg,FN,3,num_2,16,num_2,1.41670245584,,,2017_Apr_07_1510,60.0083339147,FEMA4ImagesEEG,001,100046,
AFNE01.JPG,AFNE01.JPG,AFNE01.JPG,AFNE01.JPG,AFNE01.JPG,AFNE01.JPG,,,,,,,,,0,2,2,9,,,,,,,,,,,,,,,AFSA09.jpg,AFNE04.jpg,AFNE16.jpg,AFSA06.jpg,AFSA06.jpg,FS,4,num_4,32,num_8,1.5334289351,,,2017_Apr_07_1510,60.0083339147,FEMA4ImagesEEG,001,100046,
AFNE01.JPG,AFNE01.JPG,AFNE01.JPG,AFNE01.JPG,AFNE01.JPG,AFNE01.JPG,,,,,,,,,0,3,3,2,,,,,,,,,,,,,,,AFSA12.jpg,AFNE03.jpg,AFSA17.jpg,AFNE19.jpg,AFSA17.jpg,FS,4,num_2,32,num_6,1.35008129152,,,2017_Apr_07_1510,60.0083339147,FEMA4ImagesEEG,001,100046,
AFNE01.JPG,AFNE01.JPG,AFNE01.JPG,AFNE01.JPG,AFNE01.JPG,AFNE01.JPG,,,,,,,,,0,4,4,1,,,,,,,,,,,,,,,AFNE09.jpg,AFSA12.jpg,AFNE18.jpg,AFSA07.jpg,AFNE18.jpg,FN,3,num_2,16,num_2,1.25008427422,,,2017_Apr_07_1510,60.0083339147,FEMA4ImagesEEG,001,100046,
AFNE01.JPG,AFNE01.JPG,AFNE01.JPG,AFNE01.JPG,AFNE01.JPG,AFNE01.JPG,,,,,,,,,0,5,5,4,,,,,,,,,,,,,,,AFNE04.jpg,AFSA10.jpg,AFSA02.jpg,AFNE08.jpg,AFNE04.jpg,FN,3,num_8,32,num_2,1.33343586302,,,2017_Apr_07_1510,60.0083339147,FEMA4ImagesEEG,001,100046,
AFNE01.JPG,AFNE01.JPG,AFNE01.JPG,AFNE01.JPG,AFNE01.JPG,AFNE01.JPG,,,,,,,,,0,6,6,6,,,,,,,,,,,,,,,AFNE18.jpg,AFSA08.jpg,AFSA01.jpg,AFNE10.jpg,AFNE10.jpg,FN,3,num_4,16,num_4,1.64990299242,,,2017_Apr_07_1510,60.0083339147,FEMA4ImagesEEG,001,100046,
AFNE01.JPG,AFNE01.JPG,AFNE01.JPG,AFNE01.JPG,AFNE01.JPG,AFNE01.JPG,,,,,,,,,0,7,7,0,,,,,,,,,,,,,,,AFNE11.jpg,AFSA03.jpg,AFSA15.jpg,AFNE04.jpg,AFNE04.jpg,FN,3,num_4,16,num_4,1.49977339758,,,2017_Apr_07_1510,60.0083339147,FEMA4ImagesEEG,001,100046,
AFNE01.JPG,AFNE01.JPG,AFNE01.JPG,AFNE01.JPG,AFNE01.JPG,AFNE01.JPG,,,,,,,,,0,8,8,8,,,,,,,,,,,,,,,AFNE04.jpg,AFSA02.jpg,AFNE06.jpg,AFSA19.jpg,AFSA02.jpg,FS,4,num_6,16,num_6,3.21659712493,,,2017_Apr_07_1510,60.0083339147,FEMA4ImagesEEG,001,100046,
AFNE01.JPG,AFNE01.JPG,AFNE01.JPG,AFNE01.JPG,AFNE01.JPG,AFNE01.JPG,,,,,,,,,0,9,9,3,,,,,,,,,,,,,,,AFNE20.jpg,AFSA17.jpg,AFNE18.jpg,AFSA07.jpg,AFSA17.jpg,FS,4,num_6,32,num_4,1.55040697055,,,2017_Apr_07_1510,60.0083339147,FEMA4ImagesEEG,001,100046,
AFNE01.JPG,AFNE01.JPG,AFNE01.JPG,AFNE01.JPG,AFNE01.JPG,AFNE01.JPG,,,,,,,,,1,0,10,6,,,,,,,,,,,,,,,AFNE11.jpg,AFSA17.jpg,AFNE15.jpg,AFSA07.jpg,AFNE11.jpg,FN,3,num_8,16,num_8,1.51669658627,,,2017_Apr_07_1510,60.0083339147,FEMA4ImagesEEG,001,100046,
AFNE01.JPG,AFNE01.JPG,AFNE01.JPG,AFNE01.JPG,AFNE01.JPG,AFNE01.JPG,,,,,,,,,1,1,11,3,,,,,,,,,,,,,,,AFSA09.jpg,AFNE01.jpg,AFSA14.jpg,AFNE20.jpg,AFNE20.jpg,FN,3,num_4,16,num_4,1.26672585378,,,2017_Apr_07_1510,60.0083339147,FEMA4ImagesEEG,001,100046,
AFNE01.JPG,AFNE01.JPG,AFNE01.JPG,AFNE01.JPG,AFNE01.JPG,AFNE01.JPG,,,,,,,,,1,2,12,9,,,,,,,,,,,,,,,AFSA05.jpg,AFSA17.jpg,AFNE01.jpg,AFNE11.jpg,AFSA17.jpg,FS,4,num_6,16,num_6,1.39995599468,,,2017_Apr_07_1510,60.0083339147,FEMA4ImagesEEG,001,100046,
AFNE01.JPG,AFNE01.JPG,AFNE01.JPG,AFNE01.JPG,AFNE01.JPG,AFNE01.JPG,,,,,,,,,1,3,13,4,,,,,,,,,,,,,,,AFSA09.jpg,AFSA19.jpg,AFNE16.jpg,AFNE15.jpg,AFNE16.jpg,FN,3,num_2,32,num_8,1.86646964704,,,2017_Apr_07_1510,60.0083339147,FEMA4ImagesEEG,001,100046,
AFNE01.JPG,AFNE01.JPG,AFNE01.JPG,AFNE01.JPG,AFNE01.JPG,AFNE01.JPG,,,,,,,,,1,4,14,7,,,,,,,,,,,,,,,AFSA11.jpg,AFNE18.jpg,AFSA16.jpg,AFNE17.jpg,AFNE18.jpg,FN,3,num_6,32,num_4,1.21672157198,,,2017_Apr_07_1510,60.0083339147,FEMA4ImagesEEG,001,100046,
AFNE01.JPG,AFNE01.JPG,AFNE01.JPG,AFNE01.JPG,AFNE01.JPG,AFNE01.JPG,,,,,,,,,1,5,15,0,,,,,,,,,,,,,,,AFNE02.jpg,AFNE01.jpg,AFSA03.jpg,AFSA20.jpg,AFNE02.jpg,FN,3,num_8,32,num_2,1.63338008639,,,2017_Apr_07_1510,60.0083339147,FEMA4ImagesEEG,001,100046,
AFNE01.JPG,AFNE01.JPG,AFNE01.JPG,AFNE01.JPG,AFNE01.JPG,AFNE01.JPG,,,,,,,,,1,6,16,2,,,,,,,,,,,,,,,AFSA11.jpg,AFSA01.jpg,AFNE03.jpg,AFNE06.jpg,AFNE03.jpg,FN,3,num_2,16,num_2,1.60004496784,,,2017_Apr_07_1510,60.0083339147,FEMA4ImagesEEG,001,100046,
AFNE01.JPG,AFNE01.JPG,AFNE01.JPG,AFNE01.JPG,AFNE01.JPG,AFNE01.JPG,,,,,,,,,1,7,17,1,,,,,,,,,,,,,,,AFNE01.jpg,AFSA14.jpg,AFSA19.jpg,AFNE11.jpg,AFSA19.jpg,FS,4,num_2,16,num_2,1.23344686464,,,2017_Apr_07_1510,60.0083339147,FEMA4ImagesEEG,001,100046,
AFNE01.JPG,AFNE01.JPG,AFNE01.JPG,AFNE01.JPG,AFNE01.JPG,AFNE01.JPG,,,,,,,,,1,8,18,5,,,,,,,,,,,,,,,AFNE13.jpg,AFSA10.jpg,AFSA17.jpg,AFNE09.jpg,AFNE13.jpg,FN,3,num_8,16,num_8,1.48343074741,,,2017_Apr_07_1510,60.0083339147,FEMA4ImagesEEG,001,100046,
AFNE01.JPG,AFNE01.JPG,AFNE01.JPG,AFNE01.JPG,AFNE01.JPG,AFNE01.JPG,,,,,,,,,1,9,19,8,,,,,,,,,,,,,,,AFSA09.jpg,AFNE09.jpg,AFNE14.jpg,AFSA10.jpg,AFSA09.jpg,FS,4,num_8,32,num_2,1.4334559734,,,2017_Apr_07_1510,60.0083339147,FEMA4ImagesEEG,001,100046,
AFNE01.JPG,AFNE01.JPG,AFNE01.JPG,AFNE01.JPG,AFNE01.JPG,AFNE01.JPG,,,,,,,,,2,0,20,1,,,,,,,,,,,,,,,AFNE10.jpg,AFNE09.jpg,AFSA19.jpg,AFSA11.jpg,AFSA11.jpg,FS,4,num_4,16,num_4,1.46671154886,,,2017_Apr_07_1510,60.0083339147,FEMA4ImagesEEG,001,100046,
AFNE01.JPG,AFNE01.JPG,AFNE01.JPG,AFNE01.JPG,AFNE01.JPG,AFNE01.JPG,,,,,,,,,2,1,21,6,,,,,,,,,,,,,,,AFSA15.jpg,AFSA12.jpg,AFNE02.jpg,AFNE01.jpg,AFSA15.jpg,FS,4,num_8,32,num_4,1.85005066101,,,2017_Apr_07_1510,60.0083339147,FEMA4ImagesEEG,001,100046,
AFNE01.JPG,AFNE01.JPG,AFNE01.JPG,AFNE01.JPG,AFNE01.JPG,AFNE01.JPG,,,,,,,,,2,2,22,7,,,,,,,,,,,,,,,AFNE05.jpg,AFSA06.jpg,AFNE08.jpg,AFSA13.jpg,AFSA06.jpg,FS,4,num_6,32,num_8,1.53345202841,,,2017_Apr_07_1510,60.0083339147,FEMA4ImagesEEG,001,100046,
AFNE01.JPG,AFNE01.JPG,AFNE01.JPG,AFNE01.JPG,AFNE01.JPG,AFNE01.JPG,,,,,,,,,2,3,23,8,,,,,,,,,,,,,,,AFSA07.jpg,AFSA14.jpg,AFNE18.jpg,AFNE11.jpg,AFNE11.jpg,FN,3,num_4,32,num_6,2.20012521697,,,2017_Apr_07_1510,60.0083339147,FEMA4ImagesEEG,001,100046,
AFNE01.JPG,AFNE01.JPG,AFNE01.JPG,AFNE01.JPG,AFNE01.JPG,AFNE01.JPG,,,,,,,,,2,4,24,3,,,,,,,,,,,,,,,AFNE09.jpg,AFSA13.jpg,AFNE11.jpg,AFSA09.jpg,AFSA13.jpg,FS,4,num_6,32,num_4,1.66672803485,,,2017_Apr_07_1510,60.0083339147,FEMA4ImagesEEG,001,100046,
AFNE01.JPG,AFNE01.JPG,AFNE01.JPG,AFNE01.JPG,AFNE01.JPG,AFNE01.JPG,,,,,,,,,2,5,25,0,,,,,,,,,,,,,,,AFNE08.jpg,AFNE04.jpg,AFSA19.jpg,AFSA08.jpg,AFSA08.jpg,FS,4,num_4,16,num_4,1.7000615499,,,2017_Apr_07_1510,60.0083339147,FEMA4ImagesEEG,001,100046,
AFNE01.JPG,AFNE01.JPG,AFNE01.JPG,AFNE01.JPG,AFNE01.JPG,AFNE01.JPG,,,,,,,,,2,6,26,4,,,,,,,,,,,,,,,AFNE19.jpg,AFSA18.jpg,AFSA15.jpg,AFNE07.jpg,AFSA18.jpg,FS,4,num_6,16,num_6,1.33341180766,,,2017_Apr_07_1510,60.0083339147,FEMA4ImagesEEG,001,100046,
AFNE01.JPG,AFNE01.JPG,AFNE01.JPG,AFNE01.JPG,AFNE01.JPG,AFNE01.JPG,,,,,,,,,2,7,27,5,,,,,,,,,,,,,,,AFNE18.jpg,AFSA07.jpg,AFSA04.jpg,AFNE01.jpg,AFNE01.jpg,FN,3,num_4,32,num_8,1.41674735933,,,2017_Apr_07_1510,60.0083339147,FEMA4ImagesEEG,001,100046,
AFNE01.JPG,AFNE01.JPG,AFNE01.JPG,AFNE01.JPG,AFNE01.JPG,AFNE01.JPG,,,,,,,,,2,8,28,2,,,,,,,,,,,,,,,AFNE06.jpg,AFNE11.jpg,AFSA02.jpg,AFSA03.jpg,AFNE11.jpg,FN,3,num_6,32,num_8,1.40009134659,,,2017_Apr_07_1510,60.0083339147,FEMA4ImagesEEG,001,100046,
AFNE01.JPG,AFNE01.JPG,AFNE01.JPG,AFNE01.JPG,AFNE01.JPG,AFNE01.JPG,,,,,,,,,2,9,29,9,,,,,,,,,,,,,,,AFNE19.jpg,AFSA03.jpg,AFNE07.jpg,AFSA18.jpg,AFSA18.jpg,FS,4,num_4,16,num_4,1.95002747118,,,2017_Apr_07_1510,60.0083339147,FEMA4ImagesEEG,001,100046,
AFNE01.JPG,AFNE01.JPG,AFNE01.JPG,AFNE01.JPG,AFNE01.JPG,AFNE01.JPG,,,,,,,,,3,0,30,5,,,,,,,,,,,,,,,AFNE20.jpg,AFNE07.jpg,AFSA07.jpg,AFSA12.jpg,AFNE20.jpg,FN,3,num_8,32,num_6,1.58342968882,,,2017_Apr_07_1510,60.0083339147,FEMA4ImagesEEG,001,100046,
AFNE01.JPG,AFNE01.JPG,AFNE01.JPG,AFNE01.JPG,AFNE01.JPG,AFNE01.JPG,,,,,,,,,3,1,31,8,,,,,,,,,,,,,,,AFSA18.jpg,AFNE13.jpg,AFNE12.jpg,AFSA16.jpg,AFSA18.jpg,FS,4,num_8,32,num_6,1.58338542678,,,2017_Apr_07_1510,60.0083339147,FEMA4ImagesEEG,001,100046,
AFNE01.JPG,AFNE01.JPG,AFNE01.JPG,AFNE01.JPG,AFNE01.JPG,AFNE01.JPG,,,,,,,,,3,2,32,4,,,,,,,,,,,,,,,AFNE19.jpg,AFNE18.jpg,AFSA17.jpg,AFSA03.jpg,AFNE19.jpg,FN,3,num_8,16,num_8,2.10000567697,,,2017_Apr_07_1510,60.0083339147,FEMA4ImagesEEG,001,100046,
AFNE01.JPG,AFNE01.JPG,AFNE01.JPG,AFNE01.JPG,AFNE01.JPG,AFNE01.JPG,,,,,,,,,3,3,33,9,,,,,,,,,,,,,,,AFSA10.jpg,AFNE08.jpg,AFSA18.jpg,AFNE20.jpg,AFSA18.jpg,FS,4,num_2,16,num_2,1.58342808508,,,2017_Apr_07_1510,60.0083339147,FEMA4ImagesEEG,001,100046,
AFNE01.JPG,AFNE01.JPG,AFNE01.JPG,AFNE01.JPG,AFNE01.JPG,AFNE01.JPG,,,,,,,,,3,4,34,7,,,,,,,,,,,,,,,AFNE19.jpg,AFNE17.jpg,AFSA05.jpg,AFSA01.jpg,AFSA01.jpg,FS,4,num_4,16,num_4,1.80002296506,,,2017_Apr_07_1510,60.0083339147,FEMA4ImagesEEG,001,100046,
AFNE01.JPG,AFNE01.JPG,AFNE01.JPG,AFNE01.JPG,AFNE01.JPG,AFNE01.JPG,,,,,,,,,3,5,35,3,,,,,,,,,,,,,,,AFSA11.jpg,AFNE01.jpg,AFNE06.jpg,AFSA20.jpg,AFNE06.jpg,FN,3,num_2,32,num_6,2.19998890255,,,2017_Apr_07_1510,60.0083339147,FEMA4ImagesEEG,001,100046,
AFNE01.JPG,AFNE01.JPG,AFNE01.JPG,AFNE01.JPG,AFNE01.JPG,AFNE01.JPG,,,,,,,,,3,6,36,1,,,,,,,,,,,,,,,AFNE16.jpg,AFSA16.jpg,AFSA04.jpg,AFNE18.jpg,AFSA16.jpg,FS,4,num_6,16,num_6,1.35014800541,,,2017_Apr_07_1510,60.0083339147,FEMA4ImagesEEG,001,100046,
AFNE01.JPG,AFNE01.JPG,AFNE01.JPG,AFNE01.JPG,AFNE01.JPG,AFNE01.JPG,,,,,,,,,3,7,37,0,,,,,,,,,,,,,,,AFSA05.jpg,AFNE09.jpg,AFSA07.jpg,AFNE02.jpg,AFSA07.jpg,FS,4,num_2,32,num_8,1.86666850559,,,2017_Apr_07_1510,60.0083339147,FEMA4ImagesEEG,001,100046,
AFNE01.JPG,AFNE01.JPG,AFNE01.JPG,AFNE01.JPG,AFNE01.JPG,AFNE01.JPG,,,,,,,,,3,8,38,2,,,,,,,,,,,,,,,AFSA11.jpg,AFNE12.jpg,AFSA17.jpg,AFNE04.jpg,AFSA17.jpg,FS,4,num_2,16,num_2,1.74995228997,,,2017_Apr_07_1510,60.0083339147,FEMA4ImagesEEG,001,100046,
AFNE01.JPG,AFNE01.JPG,AFNE01.JPG,AFNE01.JPG,AFNE01.JPG,AFNE01.JPG,,,,,,,,,3,9,39,6,,,,,,,,,,,,,,,AFSA01.jpg,AFNE04.jpg,AFSA17.jpg,AFNE03.jpg,AFSA01.jpg,FS,4,num_8,16,num_8,2.79994630814,,,2017_Apr_07_1510,60.0083339147,FEMA4ImagesEEG,001,100046,
AFNE01.JPG,AFNE01.JPG,AFNE01.JPG,AFNE01.JPG,AFNE01.JPG,AFNE01.JPG,,,,,,,,,4,0,40,6,,,,,,,,,,,,,,,AFSA17.jpg,AFNE06.jpg,AFSA02.jpg,AFNE04.jpg,AFNE06.jpg,FN,3,num_6,32,num_4,1.53339525731,,,2017_Apr_07_1510,60.0083339147,FEMA4ImagesEEG,001,100046,
AFNE01.JPG,AFNE01.JPG,AFNE01.JPG,AFNE01.JPG,AFNE01.JPG,AFNE01.JPG,,,,,,,,,4,1,41,8,,,,,,,,,,,,,,,AFSA02.jpg,AFNE17.jpg,AFNE18.jpg,AFSA19.jpg,AFSA02.jpg,FS,4,num_8,32,num_2,1.35012074257,,,2017_Apr_07_1510,60.0083339147,FEMA4ImagesEEG,001,100046,
AFNE01.JPG,AFNE01.JPG,AFNE01.JPG,AFNE01.JPG,AFNE01.JPG,AFNE01.JPG,,,,,,,,,4,2,42,7,,,,,,,,,,,,,,,AFSA05.jpg,AFNE11.jpg,AFNE09.jpg,AFSA02.jpg,AFNE09.jpg,FN,3,num_2,16,num_2,1.30008855625,,,2017_Apr_07_1510,60.0083339147,FEMA4ImagesEEG,001,100046,
AFNE01.JPG,AFNE01.JPG,AFNE01.JPG,AFNE01.JPG,AFNE01.JPG,AFNE01.JPG,,,,,,,,,4,3,43,3,,,,,,,,,,,,,,,AFSA05.jpg,AFSA09.jpg,AFNE05.jpg,AFNE18.jpg,AFSA09.jpg,FS,4,num_6,32,num_8,2.05001967726,,,2017_Apr_07_1510,60.0083339147,FEMA4ImagesEEG,001,100046,
AFNE01.JPG,AFNE01.JPG,AFNE01.JPG,AFNE01.JPG,AFNE01.JPG,AFNE01.JPG,,,,,,,,,4,4,44,1,,,,,,,,,,,,,,,AFSA08.jpg,AFNE20.jpg,AFSA14.jpg,AFNE03.jpg,AFSA14.jpg,FS,4,num_2,32,num_8,1.61672888487,,,2017_Apr_07_1510,60.0083339147,FEMA4ImagesEEG,001,100046,
AFNE01.JPG,AFNE01.JPG,AFNE01.JPG,AFNE01.JPG,AFNE01.JPG,AFNE01.JPG,,,,,,,,,4,5,45,9,,,,,,,,,,,,,,,AFSA12.jpg,AFNE07.jpg,AFNE14.jpg,AFSA09.jpg,AFNE07.jpg,FN,3,num_6,16,num_6,1.46661725128,,,2017_Apr_07_1510,60.0083339147,FEMA4ImagesEEG,001,100046,
AFNE01.JPG,AFNE01.JPG,AFNE01.JPG,AFNE01.JPG,AFNE01.JPG,AFNE01.JPG,,,,,,,,,4,6,46,0,,,,,,,,,,,,,,,AFNE04.jpg,AFSA07.jpg,AFSA15.jpg,AFNE01.jpg,AFSA15.jpg,FS,4,num_2,32,num_6,2.08344107517,,,2017_Apr_07_1510,60.0083339147,FEMA4ImagesEEG,001,100046,
AFNE01.JPG,AFNE01.JPG,AFNE01.JPG,AFNE01.JPG,AFNE01.JPG,AFNE01.JPG,,,,,,,,,4,7,47,2,,,,,,,,,,,,,,,AFNE15.jpg,AFNE18.jpg,AFSA08.jpg,AFSA14.jpg,AFSA08.jpg,FS,4,num_2,32,num_4,1.40007178136,,,2017_Apr_07_1510,60.0083339147,FEMA4ImagesEEG,001,100046,
AFNE01.JPG,AFNE01.JPG,AFNE01.JPG,AFNE01.JPG,AFNE01.JPG,AFNE01.JPG,,,,,,,,,4,8,48,5,,,,,,,,,,,,,,,AFSA19.jpg,AFSA08.jpg,AFNE14.jpg,AFNE06.jpg,AFNE14.jpg,FN,3,num_2,16,num_2,1.38347286056,,,2017_Apr_07_1510,60.0083339147,FEMA4ImagesEEG,001,100046,
AFNE01.JPG,AFNE01.JPG,AFNE01.JPG,AFNE01.JPG,AFNE01.JPG,AFNE01.JPG,,,,,,,,,4,9,49,4,,,,,,,,,,,,,,,AFSA14.jpg,AFNE12.jpg,AFNE07.jpg,AFSA04.jpg,AFSA14.jpg,FS,4,num_8,32,num_4,1.60009372025,,,2017_Apr_07_1510,60.0083339147,FEMA4ImagesEEG,001,100046,
AFNE01.JPG,AFNE01.JPG,AFNE01.JPG,AFNE01.JPG,AFNE01.JPG,AFNE01.JPG,,,,,,,,,5,0,50,3,,,,,,,,,,,,,,,AFSA02.jpg,AFSA07.jpg,AFNE08.jpg,AFNE19.jpg,AFSA02.jpg,FS,4,num_8,32,num_2,1.56674031937,,,2017_Apr_07_1510,60.0083339147,FEMA4ImagesEEG,001,100046,
AFNE01.JPG,AFNE01.JPG,AFNE01.JPG,AFNE01.JPG,AFNE01.JPG,AFNE01.JPG,,,,,,,,,5,1,51,5,,,,,,,,,,,,,,,AFSA05.jpg,AFSA07.jpg,AFNE05.jpg,AFNE06.jpg,AFSA05.jpg,FS,4,num_8,16,num_8,1.70002915524,,,2017_Apr_07_1510,60.0083339147,FEMA4ImagesEEG,001,100046,
AFNE01.JPG,AFNE01.JPG,AFNE01.JPG,AFNE01.JPG,AFNE01.JPG,AFNE01.JPG,,,,,,,,,5,2,52,1,,,,,,,,,,,,,,,AFSA06.jpg,AFNE14.jpg,AFNE05.jpg,AFSA16.jpg,AFNE14.jpg,FN,3,num_6,16,num_6,1.55002978072,,,2017_Apr_07_1510,60.0083339147,FEMA4ImagesEEG,001,100046,
AFNE01.JPG,AFNE01.JPG,AFNE01.JPG,AFNE01.JPG,AFNE01.JPG,AFNE01.JPG,,,,,,,,,5,3,53,8,,,,,,,,,,,,,,,AFSA13.jpg,AFSA19.jpg,AFNE11.jpg,AFNE19.jpg,AFSA19.jpg,FS,4,num_6,16,num_6,1.23343403498,,,2017_Apr_07_1510,60.0083339147,FEMA4ImagesEEG,001,100046,
AFNE01.JPG,AFNE01.JPG,AFNE01.JPG,AFNE01.JPG,AFNE01.JPG,AFNE01.JPG,,,,,,,,,5,4,54,7,,,,,,,,,,,,,,,AFSA09.jpg,AFNE15.jpg,AFNE07.jpg,AFSA14.jpg,AFSA09.jpg,FS,4,num_8,16,num_8,1.26672681607,,,2017_Apr_07_1510,60.0083339147,FEMA4ImagesEEG,001,100046,
AFNE01.JPG,AFNE01.JPG,AFNE01.JPG,AFNE01.JPG,AFNE01.JPG,AFNE01.JPG,,,,,,,,,5,5,55,9,,,,,,,,,,,,,,,AFSA05.jpg,AFSA07.jpg,AFNE05.jpg,AFNE07.jpg,AFSA07.jpg,FS,4,num_6,16,num_6,1.3167192305,,,2017_Apr_07_1510,60.0083339147,FEMA4ImagesEEG,001,100046,
AFNE01.JPG,AFNE01.JPG,AFNE01.JPG,AFNE01.JPG,AFNE01.JPG,AFNE01.JPG,,,,,,,,,5,6,56,2,,,,,,,,,,,,,,,AFNE08.jpg,AFNE03.jpg,AFSA08.jpg,AFSA12.jpg,AFNE03.jpg,FN,3,num_6,32,num_4,1.96669695503,,,2017_Apr_07_1510,60.0083339147,FEMA4ImagesEEG,001,100046,
AFNE01.JPG,AFNE01.JPG,AFNE01.JPG,AFNE01.JPG,AFNE01.JPG,AFNE01.JPG,,,,,,,,,5,7,57,4,,,,,,,,,,,,,,,AFSA18.jpg,AFSA12.jpg,AFNE17.jpg,AFNE01.jpg,AFNE01.jpg,FN,3,num_4,32,num_2,1.20011014189,,,2017_Apr_07_1510,60.0083339147,FEMA4ImagesEEG,001,100046,
AFNE01.JPG,AFNE01.JPG,AFNE01.JPG,AFNE01.JPG,AFNE01.JPG,AFNE01.JPG,,,,,,,,,5,8,58,6,,,,,,,,,,,,,,,AFSA02.jpg,AFSA03.jpg,AFNE04.jpg,AFNE06.jpg,AFNE06.jpg,FN,3,num_4,16,num_4,1.36700255587,,,2017_Apr_07_1510,60.0083339147,FEMA4ImagesEEG,001,100046,
AFNE01.JPG,AFNE01.JPG,AFNE01.JPG,AFNE01.JPG,AFNE01.JPG,AFNE01.JPG,,,,,,,,,5,9,59,0,,,,,,,,,,,,,,,AFSA11.jpg,AFSA14.jpg,AFNE15.jpg,AFNE05.jpg,AFSA14.jpg,FS,4,num_6,32,num_8,1.45008696872,,,2017_Apr_07_1510,60.0083339147,FEMA4ImagesEEG,001,100046,
,,,,,,,,,,,,,,,,,,,,,,,,,,,,,,,,,,,,,,,,,,,space,8.81619626447,2017_Apr_07_1510,60.0083339147,FEMA4ImagesEEG,001,100046,
AFNE01.JPG,AFNE01.JPG,AFNE01.JPG,AFNE01.JPG,AFNE01.JPG,AFNE01.JPG,,,,,,,,,,,,,0,0,0,2,,,,,,,,,,,AMSA20.jpg,AMSA06.jpg,AMNE07.jpg,AMNE12.jpg,AMNE12.jpg,MN,1,num_4,32,num_6,2.21664940543,,,2017_Apr_07_1510,60.0083339147,FEMA4ImagesEEG,001,100046,
AFNE01.JPG,AFNE01.JPG,AFNE01.JPG,AFNE01.JPG,AFNE01.JPG,AFNE01.JPG,,,,,,,,,,,,,0,1,1,6,,,,,,,,,,,AMNE16.jpg,AMSA04.jpg,AMSA12.jpg,AMNE03.jpg,AMSA12.jpg,MS,2,num_2,16,num_2,1.5165666868,,,2017_Apr_07_1510,60.0083339147,FEMA4ImagesEEG,001,100046,
AFNE01.JPG,AFNE01.JPG,AFNE01.JPG,AFNE01.JPG,AFNE01.JPG,AFNE01.JPG,,,,,,,,,,,,,0,2,2,3,,,,,,,,,,,AMSA07.jpg,AMSA12.jpg,AMNE18.jpg,AMNE19.jpg,AMSA07.jpg,MS,2,num_8,32,num_4,1.46657202719,,,2017_Apr_07_1510,60.0083339147,FEMA4ImagesEEG,001,100046,
AFNE01.JPG,AFNE01.JPG,AFNE01.JPG,AFNE01.JPG,AFNE01.JPG,AFNE01.JPG,,,,,,,,,,,,,0,3,3,0,,,,,,,,,,,AMSA01.jpg,AMNE07.jpg,AMSA07.jpg,AMNE17.jpg,AMSA01.jpg,MS,2,num_8,16,num_8,1.45008279895,,,2017_Apr_07_1510,60.0083339147,FEMA4ImagesEEG,001,100046,
AFNE01.JPG,AFNE01.JPG,AFNE01.JPG,AFNE01.JPG,AFNE01.JPG,AFNE01.JPG,,,,,,,,,,,,,0,4,4,8,,,,,,,,,,,AMSA20.jpg,AMNE13.jpg,AMNE04.jpg,AMSA07.jpg,AMNE13.jpg,MN,1,num_6,16,num_6,1.1333994912,,,2017_Apr_07_1510,60.0083339147,FEMA4ImagesEEG,001,100046,
AFNE01.JPG,AFNE01.JPG,AFNE01.JPG,AFNE01.JPG,AFNE01.JPG,AFNE01.JPG,,,,,,,,,,,,,0,5,5,7,,,,,,,,,,,AMSA07.jpg,AMNE05.jpg,AMSA09.jpg,AMNE13.jpg,AMNE13.jpg,MN,1,num_4,16,num_4,1.51666258788,,,2017_Apr_07_1510,60.0083339147,FEMA4ImagesEEG,001,100046,
AFNE01.JPG,AFNE01.JPG,AFNE01.JPG,AFNE01.JPG,AFNE01.JPG,AFNE01.JPG,,,,,,,,,,,,,0,6,6,9,,,,,,,,,,,AMSA03.jpg,AMNE14.jpg,AMNE06.jpg,AMSA05.jpg,AMNE14.jpg,MN,1,num_6,16,num_6,1.35008097067,,,2017_Apr_07_1510,60.0083339147,FEMA4ImagesEEG,001,100046,
AFNE01.JPG,AFNE01.JPG,AFNE01.JPG,AFNE01.JPG,AFNE01.JPG,AFNE01.JPG,,,,,,,,,,,,,0,7,7,5,,,,,,,,,,,AMNE16.jpg,AMSA09.jpg,AMNE03.jpg,AMSA07.jpg,AMSA09.jpg,MS,2,num_6,16,num_6,1.46669230447,,,2017_Apr_07_1510,60.0083339147,FEMA4ImagesEEG,001,100046,
AFNE01.JPG,AFNE01.JPG,AFNE01.JPG,AFNE01.JPG,AFNE01.JPG,AFNE01.JPG,,,,,,,,,,,,,0,8,8,4,,,,,,,,,,,AMSA07.jpg,AMSA12.jpg,AMNE11.jpg,AMNE16.jpg,AMNE11.jpg,MN,1,num_2,16,num_2,1.41666621226,,,2017_Apr_07_1510,60.0083339147,FEMA4ImagesEEG,001,100046,
AFNE01.JPG,AFNE01.JPG,AFNE01.JPG,AFNE01.JPG,AFNE01.JPG,AFNE01.JPG,,,,,,,,,,,,,0,9,9,1,,,,,,,,,,,AMNE10.jpg,AMSA06.jpg,AMSA02.jpg,AMNE16.jpg,AMNE10.jpg,MN,1,num_8,32,num_4,1.36672190879,,,2017_Apr_07_1510,60.0083339147,FEMA4ImagesEEG,001,100046,
AFNE01.JPG,AFNE01.JPG,AFNE01.JPG,AFNE01.JPG,AFNE01.JPG,AFNE01.JPG,,,,,,,,,,,,,1,0,10,8,,,,,,,,,,,AMNE09.jpg,AMSA14.jpg,AMSA06.jpg,AMNE11.jpg,AMNE11.jpg,MN,1,num_4,32,num_8,1.78334963229,,,2017_Apr_07_1510,60.0083339147,FEMA4ImagesEEG,001,100046,
AFNE01.JPG,AFNE01.JPG,AFNE01.JPG,AFNE01.JPG,AFNE01.JPG,AFNE01.JPG,,,,,,,,,,,,,1,1,11,6,,,,,,,,,,,AMNE18.jpg,AMNE09.jpg,AMSA10.jpg,AMSA07.jpg,AMSA07.jpg,MS,2,num_4,32,num_6,2.04994943552,,,2017_Apr_07_1510,60.0083339147,FEMA4ImagesEEG,001,100046,
AFNE01.JPG,AFNE01.JPG,AFNE01.JPG,AFNE01.JPG,AFNE01.JPG,AFNE01.JPG,,,,,,,,,,,,,1,2,12,4,,,,,,,,,,,AMSA16.jpg,AMNE03.jpg,AMNE14.jpg,AMSA05.jpg,AMSA16.jpg,MS,2,num_8,32,num_4,1.63338136952,,,2017_Apr_07_1510,60.0083339147,FEMA4ImagesEEG,001,100046,
AFNE01.JPG,AFNE01.JPG,AFNE01.JPG,AFNE01.JPG,AFNE01.JPG,AFNE01.JPG,,,,,,,,,,,,,1,3,13,7,,,,,,,,,,,AMSA11.jpg,AMNE12.jpg,AMNE02.jpg,AMSA16.jpg,AMNE02.jpg,MN,1,num_2,32,num_6,1.91673308657,,,2017_Apr_07_1510,60.0083339147,FEMA4ImagesEEG,001,100046,
AFNE01.JPG,AFNE01.JPG,AFNE01.JPG,AFNE01.JPG,AFNE01.JPG,AFNE01.JPG,,,,,,,,,,,,,1,4,14,3,,,,,,,,,,,AMNE13.jpg,AMSA16.jpg,AMSA12.jpg,AMNE15.jpg,AMNE15.jpg,MN,1,num_4,32,num_8,1.30006225547,,,2017_Apr_07_1510,60.0083339147,FEMA4ImagesEEG,001,100046,
AFNE01.JPG,AFNE01.JPG,AFNE01.JPG,AFNE01.JPG,AFNE01.JPG,AFNE01.JPG,,,,,,,,,,,,,1,5,15,9,,,,,,,,,,,AMNE18.jpg,AMSA05.jpg,AMSA02.jpg,AMNE14.jpg,AMSA02.jpg,MS,2,num_2,16,num_2,1.21662631212,,,2017_Apr_07_1510,60.0083339147,FEMA4ImagesEEG,001,100046,
AFNE01.JPG,AFNE01.JPG,AFNE01.JPG,AFNE01.JPG,AFNE01.JPG,AFNE01.JPG,,,,,,,,,,,,,1,6,16,5,,,,,,,,,,,AMSA16.jpg,AMSA20.jpg,AMNE11.jpg,AMNE12.jpg,AMNE11.jpg,MN,1,num_2,16,num_2,1.23366240156,,,2017_Apr_07_1510,60.0083339147,FEMA4ImagesEEG,001,100046,
AFNE01.JPG,AFNE01.JPG,AFNE01.JPG,AFNE01.JPG,AFNE01.JPG,AFNE01.JPG,,,,,,,,,,,,,1,7,17,1,,,,,,,,,,,AMNE12.jpg,AMNE19.jpg,AMSA08.jpg,AMSA14.jpg,AMNE19.jpg,MN,1,num_6,16,num_6,1.31663840404,,,2017_Apr_07_1510,60.0083339147,FEMA4ImagesEEG,001,100046,
AFNE01.JPG,AFNE01.JPG,AFNE01.JPG,AFNE01.JPG,AFNE01.JPG,AFNE01.JPG,,,,,,,,,,,,,1,8,18,2,,,,,,,,,,,AMNE04.jpg,AMSA04.jpg,AMNE16.jpg,AMSA07.jpg,AMSA04.jpg,MS,2,num_6,16,num_6,2.01672882074,,,2017_Apr_07_1510,60.0083339147,FEMA4ImagesEEG,001,100046,
AFNE01.JPG,AFNE01.JPG,AFNE01.JPG,AFNE01.JPG,AFNE01.JPG,AFNE01.JPG,,,,,,,,,,,,,1,9,19,0,,,,,,,,,,,AMNE18.jpg,AMNE15.jpg,AMSA15.jpg,AMSA19.jpg,AMSA19.jpg,MS,2,num_4,16,num_4,1.3334377876,,,2017_Apr_07_1510,60.0083339147,FEMA4ImagesEEG,001,100046,
AFNE01.JPG,AFNE01.JPG,AFNE01.JPG,AFNE01.JPG,AFNE01.JPG,AFNE01.JPG,,,,,,,,,,,,,2,0,20,5,,,,,,,,,,,AMSA11.jpg,AMNE05.jpg,AMNE01.jpg,AMSA14.jpg,AMNE05.jpg,MN,1,num_6,16,num_6,1.43341427739,,,2017_Apr_07_1510,60.0083339147,FEMA4ImagesEEG,001,100046,
AFNE01.JPG,AFNE01.JPG,AFNE01.JPG,AFNE01.JPG,AFNE01.JPG,AFNE01.JPG,,,,,,,,,,,,,2,1,21,7,,,,,,,,,,,AMNE09.jpg,AMNE17.jpg,AMSA15.jpg,AMSA02.jpg,AMSA15.jpg,MS,2,num_2,32,num_4,1.46669198386,,,2017_Apr_07_1510,60.0083339147,FEMA4ImagesEEG,001,100046,
AFNE01.JPG,AFNE01.JPG,AFNE01.JPG,AFNE01.JPG,AFNE01.JPG,AFNE01.JPG,,,,,,,,,,,,,2,2,22,2,,,,,,,,,,,AMSA09.jpg,AMSA01.jpg,AMNE05.jpg,AMNE13.jpg,AMNE05.jpg,MN,1,num_2,32,num_8,1.41674415185,,,2017_Apr_07_1510,60.0083339147,FEMA4ImagesEEG,001,100046,
AFNE01.JPG,AFNE01.JPG,AFNE01.JPG,AFNE01.JPG,AFNE01.JPG,AFNE01.JPG,,,,,,,,,,,,,2,3,23,6,,,,,,,,,,,AMNE06.jpg,AMSA10.jpg,AMSA08.jpg,AMNE16.jpg,AMNE06.jpg,MN,1,num_8,32,num_6,1.36672415398,,,2017_Apr_07_1510,60.0083339147,FEMA4ImagesEEG,001,100046,
AFNE01.JPG,AFNE01.JPG,AFNE01.JPG,AFNE01.JPG,AFNE01.JPG,AFNE01.JPG,,,,,,,,,,,,,2,4,24,3,,,,,,,,,,,AMSA15.jpg,AMSA09.jpg,AMNE06.jpg,AMNE12.jpg,AMNE06.jpg,MN,1,num_2,16,num_2,1.46674233978,,,2017_Apr_07_1510,60.0083339147,FEMA4ImagesEEG,001,100046,
AFNE01.JPG,AFNE01.JPG,AFNE01.JPG,AFNE01.JPG,AFNE01.JPG,AFNE01.JPG,,,,,,,,,,,,,2,5,25,1,,,,,,,,,,,AMNE14.jpg,AMSA18.jpg,AMSA01.jpg,AMNE17.jpg,AMSA18.jpg,MS,2,num_6,32,num_4,1.28342163819,,,2017_Apr_07_1510,60.0083339147,FEMA4ImagesEEG,001,100046,
AFNE01.JPG,AFNE01.JPG,AFNE01.JPG,AFNE01.JPG,AFNE01.JPG,AFNE01.JPG,,,,,,,,,,,,,2,6,26,4,,,,,,,,,,,AMNE04.jpg,AMNE13.jpg,AMSA15.jpg,AMSA18.jpg,AMNE13.jpg,MN,1,num_6,16,num_6,1.48365366133,,,2017_Apr_07_1510,60.0083339147,FEMA4ImagesEEG,001,100046,
AFNE01.JPG,AFNE01.JPG,AFNE01.JPG,AFNE01.JPG,AFNE01.JPG,AFNE01.JPG,,,,,,,,,,,,,2,7,27,9,,,,,,,,,,,AMNE19.jpg,AMSA06.jpg,AMNE01.jpg,AMSA07.jpg,AMSA06.jpg,MS,2,num_6,16,num_6,1.21679662517,,,2017_Apr_07_1510,60.0083339147,FEMA4ImagesEEG,001,100046,
AFNE01.JPG,AFNE01.JPG,AFNE01.JPG,AFNE01.JPG,AFNE01.JPG,AFNE01.JPG,,,,,,,,,,,,,2,8,28,0,,,,,,,,,,,AMSA14.jpg,AMNE06.jpg,AMSA04.jpg,AMNE18.jpg,AMNE06.jpg,MN,1,num_6,16,num_6,1.36676232191,,,2017_Apr_07_1510,60.0083339147,FEMA4ImagesEEG,001,100046,
AFNE01.JPG,AFNE01.JPG,AFNE01.JPG,AFNE01.JPG,AFNE01.JPG,AFNE01.JPG,,,,,,,,,,,,,2,9,29,8,,,,,,,,,,,AMNE13.jpg,AMSA06.jpg,AMNE05.jpg,AMSA16.jpg,AMSA06.jpg,MS,2,num_6,16,num_6,1.4001032142,,,2017_Apr_07_1510,60.0083339147,FEMA4ImagesEEG,001,100046,
AFNE01.JPG,AFNE01.JPG,AFNE01.JPG,AFNE01.JPG,AFNE01.JPG,AFNE01.JPG,,,,,,,,,,,,,3,0,30,6,,,,,,,,,,,AMSA07.jpg,AMNE06.jpg,AMSA03.jpg,AMNE13.jpg,AMNE13.jpg,MN,1,num_4,32,num_8,1.96682685474,,,2017_Apr_07_1510,60.0083339147,FEMA4ImagesEEG,001,100046,
AFNE01.JPG,AFNE01.JPG,AFNE01.JPG,AFNE01.JPG,AFNE01.JPG,AFNE01.JPG,,,,,,,,,,,,,3,1,31,4,,,,,,,,,,,AMSA20.jpg,AMSA04.jpg,AMNE17.jpg,AMNE11.jpg,AMSA04.jpg,MS,2,num_6,16,num_6,1.85003141663,,,2017_Apr_07_1510,60.0083339147,FEMA4ImagesEEG,001,100046,
AFNE01.JPG,AFNE01.JPG,AFNE01.JPG,AFNE01.JPG,AFNE01.JPG,AFNE01.JPG,,,,,,,,,,,,,3,2,32,9,,,,,,,,,,,AMNE18.jpg,AMSA01.jpg,AMSA06.jpg,AMNE03.jpg,AMNE03.jpg,MN,1,num_4,16,num_4,2.96669567213,,,2017_Apr_07_1510,60.0083339147,FEMA4ImagesEEG,001,100046,
AFNE01.JPG,AFNE01.JPG,AFNE01.JPG,AFNE01.JPG,AFNE01.JPG,AFNE01.JPG,,,,,,,,,,,,,3,3,33,5,,,,,,,,,,,AMNE17.jpg,AMSA17.jpg,AMSA03.jpg,AMNE02.jpg,AMSA17.jpg,MS,2,num_6,32,num_8,2.59971941705,,,2017_Apr_07_1510,60.0083339147,FEMA4ImagesEEG,001,100046,
AFNE01.JPG,AFNE01.JPG,AFNE01.JPG,AFNE01.JPG,AFNE01.JPG,AFNE01.JPG,,,,,,,,,,,,,3,4,34,7,,,,,,,,,,,AMSA20.jpg,AMNE19.jpg,AMSA18.jpg,AMNE11.jpg,AMNE11.jpg,MN,1,num_4,16,num_4,1.50005821418,,,2017_Apr_07_1510,60.0083339147,FEMA4ImagesEEG,001,100046,
AFNE01.JPG,AFNE01.JPG,AFNE01.JPG,AFNE01.JPG,AFNE01.JPG,AFNE01.JPG,,,,,,,,,,,,,3,5,35,3,,,,,,,,,,,AMSA18.jpg,AMSA16.jpg,AMNE20.jpg,AMNE04.jpg,AMSA16.jpg,MS,2,num_6,16,num_6,1.33344805124,,,2017_Apr_07_1510,60.0083339147,FEMA4ImagesEEG,001,100046,
AFNE01.JPG,AFNE01.JPG,AFNE01.JPG,AFNE01.JPG,AFNE01.JPG,AFNE01.JPG,,,,,,,,,,,,,3,6,36,1,,,,,,,,,,,AMSA03.jpg,AMNE13.jpg,AMSA08.jpg,AMNE11.jpg,AMNE13.jpg,MN,1,num_6,16,num_6,1.31675098394,,,2017_Apr_07_1510,60.0083339147,FEMA4ImagesEEG,001,100046,
AFNE01.JPG,AFNE01.JPG,AFNE01.JPG,AFNE01.JPG,AFNE01.JPG,AFNE01.JPG,,,,,,,,,,,,,3,7,37,2,,,,,,,,,,,AMNE01.jpg,AMNE20.jpg,AMSA16.jpg,AMSA06.jpg,AMNE01.jpg,MN,1,num_8,16,num_8,1.8000659442,,,2017_Apr_07_1510,60.0083339147,FEMA4ImagesEEG,001,100046,
AFNE01.JPG,AFNE01.JPG,AFNE01.JPG,AFNE01.JPG,AFNE01.JPG,AFNE01.JPG,,,,,,,,,,,,,3,8,38,0,,,,,,,,,,,AMNE10.jpg,AMSA03.jpg,AMSA19.jpg,AMNE04.jpg,AMNE04.jpg,MN,1,num_4,32,num_6,1.6500745879,,,2017_Apr_07_1510,60.0083339147,FEMA4ImagesEEG,001,100046,
AFNE01.JPG,AFNE01.JPG,AFNE01.JPG,AFNE01.JPG,AFNE01.JPG,AFNE01.JPG,,,,,,,,,,,,,3,9,39,8,,,,,,,,,,,AMNE15.jpg,AMSA03.jpg,AMSA01.jpg,AMNE19.jpg,AMSA03.jpg,MS,2,num_6,16,num_6,1.55005832645,,,2017_Apr_07_1510,60.0083339147,FEMA4ImagesEEG,001,100046,
AFNE01.JPG,AFNE01.JPG,AFNE01.JPG,AFNE01.JPG,AFNE01.JPG,AFNE01.JPG,,,,,,,,,,,,,4,0,40,8,,,,,,,,,,,AMSA18.jpg,AMSA06.jpg,AMNE07.jpg,AMNE17.jpg,AMNE17.jpg,MN,1,num_4,32,num_6,1.85005900008,,,2017_Apr_07_1510,60.0083339147,FEMA4ImagesEEG,001,100046,
AFNE01.JPG,AFNE01.JPG,AFNE01.JPG,AFNE01.JPG,AFNE01.JPG,AFNE01.JPG,,,,,,,,,,,,,4,1,41,3,,,,,,,,,,,AMSA13.jpg,AMNE06.jpg,AMSA17.jpg,AMNE14.jpg,AMNE06.jpg,MN,1,num_6,32,num_2,2.41668096627,,,2017_Apr_07_1510,60.0083339147,FEMA4ImagesEEG,001,100046,
AFNE01.JPG,AFNE01.JPG,AFNE01.JPG,AFNE01.JPG,AFNE01.JPG,AFNE01.JPG,,,,,,,,,,,,,4,2,42,0,,,,,,,,,,,AMNE13.jpg,AMSA16.jpg,AMNE10.jpg,AMSA04.jpg,AMSA04.jpg,MS,2,num_4,16,num_4,1.71673648641,,,2017_Apr_07_1510,60.0083339147,FEMA4ImagesEEG,001,100046,
AFNE01.JPG,AFNE01.JPG,AFNE01.JPG,AFNE01.JPG,AFNE01.JPG,AFNE01.JPG,,,,,,,,,,,,,4,3,43,6,,,,,,,,,,,AMSA04.jpg,AMNE09.jpg,AMNE01.jpg,AMSA20.jpg,AMSA04.jpg,MS,2,num_8,16,num_8,1.4500847233,,,2017_Apr_07_1510,60.0083339147,FEMA4ImagesEEG,001,100046,
AFNE01.JPG,AFNE01.JPG,AFNE01.JPG,AFNE01.JPG,AFNE01.JPG,AFNE01.JPG,,,,,,,,,,,,,4,4,44,5,,,,,,,,,,,AMSA19.jpg,AMSA17.jpg,AMNE03.jpg,AMNE16.jpg,AMNE16.jpg,MN,1,num_4,32,num_2,2.40001757652,,,2017_Apr_07_1510,60.0083339147,FEMA4ImagesEEG,001,100046,
AFNE01.JPG,AFNE01.JPG,AFNE01.JPG,AFNE01.JPG,AFNE01.JPG,AFNE01.JPG,,,,,,,,,,,,,4,5,45,1,,,,,,,,,,,AMNE01.jpg,AMNE17.jpg,AMSA08.jpg,AMSA18.jpg,AMSA18.jpg,MS,2,num_4,16,num_4,1.31687158183,,,2017_Apr_07_1510,60.0083339147,FEMA4ImagesEEG,001,100046,
AFNE01.JPG,AFNE01.JPG,AFNE01.JPG,AFNE01.JPG,AFNE01.JPG,AFNE01.JPG,,,,,,,,,,,,,4,6,46,7,,,,,,,,,,,AMNE07.jpg,AMSA09.jpg,AMSA16.jpg,AMNE04.jpg,AMSA16.jpg,MS,2,num_2,32,num_6,2.33331077453,,,2017_Apr_07_1510,60.0083339147,FEMA4ImagesEEG,001,100046,
AFNE01.JPG,AFNE01.JPG,AFNE01.JPG,AFNE01.JPG,AFNE01.JPG,AFNE01.JPG,,,,,,,,,,,,,4,7,47,9,,,,,,,,,,,AMNE20.jpg,AMNE18.jpg,AMSA02.jpg,AMSA20.jpg,AMSA20.jpg,MS,2,num_4,16,num_4,3.2665558618,,,2017_Apr_07_1510,60.0083339147,FEMA4ImagesEEG,001,100046,
AFNE01.JPG,AFNE01.JPG,AFNE01.JPG,AFNE01.JPG,AFNE01.JPG,AFNE01.JPG,,,,,,,,,,,,,4,8,48,4,,,,,,,,,,,AMSA02.jpg,AMNE10.jpg,AMNE02.jpg,AMSA06.jpg,AMSA02.jpg,MS,2,num_8,32,num_2,1.26676530484,,,2017_Apr_07_1510,60.0083339147,FEMA4ImagesEEG,001,100046,
AFNE01.JPG,AFNE01.JPG,AFNE01.JPG,AFNE01.JPG,AFNE01.JPG,AFNE01.JPG,,,,,,,,,,,,,4,9,49,2,,,,,,,,,,,AMNE03.jpg,AMSA07.jpg,AMSA06.jpg,AMNE04.jpg,AMSA07.jpg,MS,2,num_6,32,num_4,1.26676273881,,,2017_Apr_07_1510,60.0083339147,FEMA4ImagesEEG,001,100046,
AFNE01.JPG,AFNE01.JPG,AFNE01.JPG,AFNE01.JPG,AFNE01.JPG,AFNE01.JPG,,,,,,,,,,,,,5,0,50,7,,,,,,,,,,,AMNE15.jpg,AMSA04.jpg,AMNE05.jpg,AMSA15.jpg,AMNE05.jpg,MN,1,num_2,16,num_2,1.16675866558,,,2017_Apr_07_1510,60.0083339147,FEMA4ImagesEEG,001,100046,
AFNE01.JPG,AFNE01.JPG,AFNE01.JPG,AFNE01.JPG,AFNE01.JPG,AFNE01.JPG,,,,,,,,,,,,,5,1,51,2,,,,,,,,,,,AMNE15.jpg,AMSA17.jpg,AMSA05.jpg,AMNE17.jpg,AMSA05.jpg,MS,2,num_2,32,num_8,1.43352236669,,,2017_Apr_07_1510,60.0083339147,FEMA4ImagesEEG,001,100046,
AFNE01.JPG,AFNE01.JPG,AFNE01.JPG,AFNE01.JPG,AFNE01.JPG,AFNE01.JPG,,,,,,,,,,,,,5,2,52,5,,,,,,,,,,,AMSA03.jpg,AMNE03.jpg,AMNE04.jpg,AMSA06.jpg,AMSA03.jpg,MS,2,num_8,16,num_8,1.26674990938,,,2017_Apr_07_1510,60.0083339147,FEMA4ImagesEEG,001,100046,
AFNE01.JPG,AFNE01.JPG,AFNE01.JPG,AFNE01.JPG,AFNE01.JPG,AFNE01.JPG,,,,,,,,,,,,,5,3,53,4,,,,,,,,,,,AMNE16.jpg,AMNE15.jpg,AMSA06.jpg,AMSA09.jpg,AMSA06.jpg,MS,2,num_2,16,num_2,1.75002670148,,,2017_Apr_07_1510,60.0083339147,FEMA4ImagesEEG,001,100046,
AFNE01.JPG,AFNE01.JPG,AFNE01.JPG,AFNE01.JPG,AFNE01.JPG,AFNE01.JPG,,,,,,,,,,,,,5,4,54,6,,,,,,,,,,,AMSA08.jpg,AMSA13.jpg,AMNE07.jpg,AMNE18.jpg,AMSA08.jpg,MS,2,num_8,32,num_6,2.39999704924,,,2017_Apr_07_1510,60.0083339147,FEMA4ImagesEEG,001,100046,
AFNE01.JPG,AFNE01.JPG,AFNE01.JPG,AFNE01.JPG,AFNE01.JPG,AFNE01.JPG,,,,,,,,,,,,,5,5,55,1,,,,,,,,,,,AMSA16.jpg,AMNE02.jpg,AMSA12.jpg,AMNE08.jpg,AMNE02.jpg,MN,1,num_6,16,num_6,1.1167450822,,,2017_Apr_07_1510,60.0083339147,FEMA4ImagesEEG,001,100046,
AFNE01.JPG,AFNE01.JPG,AFNE01.JPG,AFNE01.JPG,AFNE01.JPG,AFNE01.JPG,,,,,,,,,,,,,5,6,56,3,,,,,,,,,,,AMSA14.jpg,AMSA02.jpg,AMNE02.jpg,AMNE06.jpg,AMNE02.jpg,MN,1,num_2,16,num_2,1.30014661024,,,2017_Apr_07_1510,60.0083339147,FEMA4ImagesEEG,001,100046,
AFNE01.JPG,AFNE01.JPG,AFNE01.JPG,AFNE01.JPG,AFNE01.JPG,AFNE01.JPG,,,,,,,,,,,,,5,7,57,9,,,,,,,,,,,AMSA01.jpg,AMNE17.jpg,AMNE05.jpg,AMSA18.jpg,AMNE17.jpg,MN,1,num_6,32,num_4,1.28344120341,,,2017_Apr_07_1510,60.0083339147,FEMA4ImagesEEG,001,100046,
AFNE01.JPG,AFNE01.JPG,AFNE01.JPG,AFNE01.JPG,AFNE01.JPG,AFNE01.JPG,,,,,,,,,,,,,5,8,58,8,,,,,,,,,,,AMNE02.jpg,AMSA04.jpg,AMSA09.jpg,AMNE08.jpg,AMSA04.jpg,MS,2,num_6,16,num_6,2.34990071482,,,2017_Apr_07_1510,60.0083339147,FEMA4ImagesEEG,001,100046,
AFNE01.JPG,AFNE01.JPG,AFNE01.JPG,AFNE01.JPG,AFNE01.JPG,AFNE01.JPG,,,,,,,,,,,,,5,9,59,0,,,,,,,,,,,AMSA09.jpg,AMNE08.jpg,AMNE17.jpg,AMSA07.jpg,AMNE17.jpg,MN,1,num_2,32,num_4,1.26673483453,,,2017_Apr_07_1510,60.0083339147,FEMA4ImagesEEG,001,100046,
,,,,,,,,,,,,,,,,,,,,,,,,,,,,,,,,,,,,,,,,,,,space,6.38298277021,2017_Apr_07_1510,60.0083339147,FEMA4ImagesEEG,001,100046,
AFNE01.JPG,AFNE01.JPG,AFNE01.JPG,AFNE01.JPG,AFNE01.JPG,AFNE01.JPG,,,,,,,,,,,,,,,,,0,0,0,8,,,,,,,AFSA18.jpg,AFNE15.jpg,AFSA16.jpg,AFNE09.jpg,AFSA18.jpg,FS,4,num_8,16,num_8,1.46666247561,,,2017_Apr_07_1510,60.0083339147,FEMA4ImagesEEG,001,100046,
AFNE01.JPG,AFNE01.JPG,AFNE01.JPG,AFNE01.JPG,AFNE01.JPG,AFNE01.JPG,,,,,,,,,,,,,,,,,0,1,1,7,,,,,,,AFNE06.jpg,AFNE07.jpg,AFSA01.jpg,AFSA04.jpg,AFSA01.jpg,FS,4,num_2,32,num_4,1.13344631926,,,2017_Apr_07_1510,60.0083339147,FEMA4ImagesEEG,001,100046,
AFNE01.JPG,AFNE01.JPG,AFNE01.JPG,AFNE01.JPG,AFNE01.JPG,AFNE01.JPG,,,,,,,,,,,,,,,,,0,2,2,5,,,,,,,AFNE01.jpg,AFSA13.jpg,AFSA08.jpg,AFNE04.jpg,AFSA13.jpg,FS,4,num_6,32,num_8,1.30011485703,,,2017_Apr_07_1510,60.0083339147,FEMA4ImagesEEG,001,100046,
AFNE01.JPG,AFNE01.JPG,AFNE01.JPG,AFNE01.JPG,AFNE01.JPG,AFNE01.JPG,,,,,,,,,,,,,,,,,0,3,3,1,,,,,,,AFNE01.jpg,AFSA07.jpg,AFSA09.jpg,AFNE07.jpg,AFNE01.jpg,FN,3,num_8,16,num_8,2.00025113928,,,2017_Apr_07_1510,60.0083339147,FEMA4ImagesEEG,001,100046,
AFNE01.JPG,AFNE01.JPG,AFNE01.JPG,AFNE01.JPG,AFNE01.JPG,AFNE01.JPG,,,,,,,,,,,,,,,,,0,4,4,3,,,,,,,AFNE01.jpg,AFNE13.jpg,AFSA05.jpg,AFSA19.jpg,AFSA05.jpg,FS,4,num_2,32,num_6,2.09994249116,,,2017_Apr_07_1510,60.0083339147,FEMA4ImagesEEG,001,100046,
AFNE01.JPG,AFNE01.JPG,AFNE01.JPG,AFNE01.JPG,AFNE01.JPG,AFNE01.JPG,,,,,,,,,,,,,,,,,0,5,5,2,,,,,,,AFSA01.jpg,AFSA09.jpg,AFNE14.jpg,AFNE17.jpg,AFSA01.jpg,FS,4,num_8,16,num_8,1.33341020416,,,2017_Apr_07_1510,60.0083339147,FEMA4ImagesEEG,001,100046,
AFNE01.JPG,AFNE01.JPG,AFNE01.JPG,AFNE01.JPG,AFNE01.JPG,AFNE01.JPG,,,,,,,,,,,,,,,,,0,6,6,6,,,,,,,AFNE18.jpg,AFSA13.jpg,AFSA16.jpg,AFNE11.jpg,AFSA13.jpg,FS,4,num_6,16,num_6,1.10011216253,,,2017_Apr_07_1510,60.0083339147,FEMA4ImagesEEG,001,100046,
AFNE01.JPG,AFNE01.JPG,AFNE01.JPG,AFNE01.JPG,AFNE01.JPG,AFNE01.JPG,,,,,,,,,,,,,,,,,0,7,7,4,,,,,,,AFNE02.jpg,AFSA01.jpg,AFNE05.jpg,AFSA04.jpg,AFSA01.jpg,FS,4,num_6,32,num_4,1.43337482633,,,2017_Apr_07_1510,60.0083339147,FEMA4ImagesEEG,001,100046,
AFNE01.JPG,AFNE01.JPG,AFNE01.JPG,AFNE01.JPG,AFNE01.JPG,AFNE01.JPG,,,,,,,,,,,,,,,,,0,8,8,9,,,,,,,AFSA03.jpg,AFSA13.jpg,AFNE12.jpg,AFNE01.jpg,AFSA03.jpg,FS,4,num_8,32,num_2,2.33334381087,,,2017_Apr_07_1510,60.0083339147,FEMA4ImagesEEG,001,100046,
AFNE01.JPG,AFNE01.JPG,AFNE01.JPG,AFNE01.JPG,AFNE01.JPG,AFNE01.JPG,,,,,,,,,,,,,,,,,0,9,9,0,,,,,,,AFNE02.jpg,AFNE16.jpg,AFSA06.jpg,AFSA03.jpg,AFSA06.jpg,FS,4,num_2,32,num_8,1.38344816351,,,2017_Apr_07_1510,60.0083339147,FEMA4ImagesEEG,001,100046,
AFNE01.JPG,AFNE01.JPG,AFNE01.JPG,AFNE01.JPG,AFNE01.JPG,AFNE01.JPG,,,,,,,,,,,,,,,,,1,0,10,2,,,,,,,AFSA13.jpg,AFSA03.jpg,AFNE12.jpg,AFNE18.jpg,AFNE12.jpg,FN,3,num_2,16,num_2,1.93306034105,,,2017_Apr_07_1510,60.0083339147,FEMA4ImagesEEG,001,100046,
AFNE01.JPG,AFNE01.JPG,AFNE01.JPG,AFNE01.JPG,AFNE01.JPG,AFNE01.JPG,,,,,,,,,,,,,,,,,1,1,11,7,,,,,,,AFSA17.jpg,AFNE09.jpg,AFSA06.jpg,AFNE14.jpg,AFSA17.jpg,FS,4,num_8,32,num_4,1.65004957025,,,2017_Apr_07_1510,60.0083339147,FEMA4ImagesEEG,001,100046,
AFNE01.JPG,AFNE01.JPG,AFNE01.JPG,AFNE01.JPG,AFNE01.JPG,AFNE01.JPG,,,,,,,,,,,,,,,,,1,2,12,9,,,,,,,AFSA01.jpg,AFNE06.jpg,AFNE14.jpg,AFSA02.jpg,AFNE14.jpg,FN,3,num_2,16,num_2,1.73337582056,,,2017_Apr_07_1510,60.0083339147,FEMA4ImagesEEG,001,100046,
AFNE01.JPG,AFNE01.JPG,AFNE01.JPG,AFNE01.JPG,AFNE01.JPG,AFNE01.JPG,,,,,,,,,,,,,,,,,1,3,13,4,,,,,,,AFSA07.jpg,AFNE09.jpg,AFSA09.jpg,AFNE20.jpg,AFSA07.jpg,FS,4,num_8,32,num_6,1.78338908334,,,2017_Apr_07_1510,60.0083339147,FEMA4ImagesEEG,001,100046,
AFNE01.JPG,AFNE01.JPG,AFNE01.JPG,AFNE01.JPG,AFNE01.JPG,AFNE01.JPG,,,,,,,,,,,,,,,,,1,4,14,6,,,,,,,AFSA04.jpg,AFNE16.jpg,AFNE18.jpg,AFSA14.jpg,AFNE18.jpg,FN,3,num_2,16,num_2,1.33348172903,,,2017_Apr_07_1510,60.0083339147,FEMA4ImagesEEG,001,100046,
AFNE01.JPG,AFNE01.JPG,AFNE01.JPG,AFNE01.JPG,AFNE01.JPG,AFNE01.JPG,,,,,,,,,,,,,,,,,1,5,15,5,,,,,,,AFNE17.jpg,AFNE10.jpg,AFSA20.jpg,AFSA10.jpg,AFNE10.jpg,FN,3,num_6,16,num_6,1.06674080039,,,2017_Apr_07_1510,60.0083339147,FEMA4ImagesEEG,001,100046,
AFNE01.JPG,AFNE01.JPG,AFNE01.JPG,AFNE01.JPG,AFNE01.JPG,AFNE01.JPG,,,,,,,,,,,,,,,,,1,6,16,1,,,,,,,AFNE02.jpg,AFNE18.jpg,AFSA05.jpg,AFSA09.jpg,AFNE18.jpg,FN,3,num_6,16,num_6,1.2345620764,,,2017_Apr_07_1510,60.0083339147,FEMA4ImagesEEG,001,100046,
AFNE01.JPG,AFNE01.JPG,AFNE01.JPG,AFNE01.JPG,AFNE01.JPG,AFNE01.JPG,,,,,,,,,,,,,,,,,1,7,17,8,,,,,,,AFNE18.jpg,AFSA12.jpg,AFNE17.jpg,AFSA02.jpg,AFNE18.jpg,FN,3,num_8,16,num_8,1.15009655873,,,2017_Apr_07_1510,60.0083339147,FEMA4ImagesEEG,001,100046,
AFNE01.JPG,AFNE01.JPG,AFNE01.JPG,AFNE01.JPG,AFNE01.JPG,AFNE01.JPG,,,,,,,,,,,,,,,,,1,8,18,0,,,,,,,AFSA10.jpg,AFNE02.jpg,AFNE15.jpg,AFSA03.jpg,AFSA10.jpg,FS,4,num_8,32,num_2,2.06664489908,,,2017_Apr_07_1510,60.0083339147,FEMA4ImagesEEG,001,100046,
AFNE01.JPG,AFNE01.JPG,AFNE01.JPG,AFNE01.JPG,AFNE01.JPG,AFNE01.JPG,,,,,,,,,,,,,,,,,1,9,19,3,,,,,,,AFSA08.jpg,AFNE11.jpg,AFSA13.jpg,AFNE08.jpg,AFNE11.jpg,FN,3,num_6,32,num_8,1.40009295032,,,2017_Apr_07_1510,60.0083339147,FEMA4ImagesEEG,001,100046,
AFNE01.JPG,AFNE01.JPG,AFNE01.JPG,AFNE01.JPG,AFNE01.JPG,AFNE01.JPG,,,,,,,,,,,,,,,,,2,0,20,8,,,,,,,AFNE19.jpg,AFNE05.jpg,AFSA09.jpg,AFSA15.jpg,AFNE19.jpg,FN,3,num_8,16,num_8,3.23299301788,,,2017_Apr_07_1510,60.0083339147,FEMA4ImagesEEG,001,100046,
AFNE01.JPG,AFNE01.JPG,AFNE01.JPG,AFNE01.JPG,AFNE01.JPG,AFNE01.JPG,,,,,,,,,,,,,,,,,2,1,21,7,,,,,,,AFNE19.jpg,AFSA01.jpg,AFSA05.jpg,AFNE04.jpg,AFSA05.jpg,FS,4,num_2,32,num_6,2.0001068064,,,2017_Apr_07_1510,60.0083339147,FEMA4ImagesEEG,001,100046,
AFNE01.JPG,AFNE01.JPG,AFNE01.JPG,AFNE01.JPG,AFNE01.JPG,AFNE01.JPG,,,,,,,,,,,,,,,,,2,2,22,6,,,,,,,AFNE11.jpg,AFSA10.jpg,AFSA20.jpg,AFNE12.jpg,AFSA20.jpg,FS,4,num_2,16,num_2,1.51672160393,,,2017_Apr_07_1510,60.0083339147,FEMA4ImagesEEG,001,100046,
AFNE01.JPG,AFNE01.JPG,AFNE01.JPG,AFNE01.JPG,AFNE01.JPG,AFNE01.JPG,,,,,,,,,,,,,,,,,2,3,23,2,,,,,,,AFSA14.jpg,AFSA04.jpg,AFNE07.jpg,AFNE15.jpg,AFNE07.jpg,FN,3,num_2,32,num_6,3.58330363804,,,2017_Apr_07_1510,60.0083339147,FEMA4ImagesEEG,001,100046,
AFNE01.JPG,AFNE01.JPG,AFNE01.JPG,AFNE01.JPG,AFNE01.JPG,AFNE01.JPG,,,,,,,,,,,,,,,,,2,4,24,5,,,,,,,AFNE08.jpg,AFNE16.jpg,AFSA18.jpg,AFSA05.jpg,AFSA05.jpg,FS,4,num_4,16,num_4,1.23345809034,,,2017_Apr_07_1510,60.0083339147,FEMA4ImagesEEG,001,100046,
AFNE01.JPG,AFNE01.JPG,AFNE01.JPG,AFNE01.JPG,AFNE01.JPG,AFNE01.JPG,,,,,,,,,,,,,,,,,2,5,25,0,,,,,,,AFNE07.jpg,AFSA04.jpg,AFSA01.jpg,AFNE16.jpg,AFNE07.jpg,FN,3,num_8,32,num_4,1.53344978322,,,2017_Apr_07_1510,60.0083339147,FEMA4ImagesEEG,001,100046,
AFNE01.JPG,AFNE01.JPG,AFNE01.JPG,AFNE01.JPG,AFNE01.JPG,AFNE01.JPG,,,,,,,,,,,,,,,,,2,6,26,3,,,,,,,AFNE15.jpg,AFSA04.jpg,AFSA16.jpg,AFNE06.jpg,AFSA16.jpg,FS,4,num_2,16,num_2,1.25000761752,,,2017_Apr_07_1510,60.0083339147,FEMA4ImagesEEG,001,100046,
AFNE01.JPG,AFNE01.JPG,AFNE01.JPG,AFNE01.JPG,AFNE01.JPG,AFNE01.JPG,,,,,,,,,,,,,,,,,2,7,27,9,,,,,,,AFSA19.jpg,AFSA08.jpg,AFNE12.jpg,AFNE16.jpg,AFNE12.jpg,FN,3,num_2,16,num_2,1.40006023482,,,2017_Apr_07_1510,60.0083339147,FEMA4ImagesEEG,001,100046,
AFNE01.JPG,AFNE01.JPG,AFNE01.JPG,AFNE01.JPG,AFNE01.JPG,AFNE01.JPG,,,,,,,,,,,,,,,,,2,8,28,1,,,,,,,AFSA05.jpg,AFNE19.jpg,AFNE15.jpg,AFSA18.jpg,AFNE15.jpg,FN,3,num_2,16,num_2,1.35009123455,,,2017_Apr_07_1510,60.0083339147,FEMA4ImagesEEG,001,100046,
AFNE01.JPG,AFNE01.JPG,AFNE01.JPG,AFNE01.JPG,AFNE01.JPG,AFNE01.JPG,,,,,,,,,,,,,,,,,2,9,29,4,,,,,,,AFSA01.jpg,AFNE05.jpg,AFSA18.jpg,AFNE18.jpg,AFSA01.jpg,FS,4,num_8,16,num_8,1.46670994535,,,2017_Apr_07_1510,60.0083339147,FEMA4ImagesEEG,001,100046,
AFNE01.JPG,AFNE01.JPG,AFNE01.JPG,AFNE01.JPG,AFNE01.JPG,AFNE01.JPG,,,,,,,,,,,,,,,,,3,0,30,6,,,,,,,AFSA13.jpg,AFNE14.jpg,AFSA08.jpg,AFNE19.jpg,AFSA13.jpg,FS,4,num_8,16,num_8,1.43341010786,,,2017_Apr_07_1510,60.0083339147,FEMA4ImagesEEG,001,100046,
AFNE01.JPG,AFNE01.JPG,AFNE01.JPG,AFNE01.JPG,AFNE01.JPG,AFNE01.JPG,,,,,,,,,,,,,,,,,3,1,31,3,,,,,,,AFNE08.jpg,AFSA04.jpg,AFSA17.jpg,AFNE02.jpg,AFSA04.jpg,FS,4,num_6,16,num_6,1.53339686105,,,2017_Apr_07_1510,60.0083339147,FEMA4ImagesEEG,001,100046,
AFNE01.JPG,AFNE01.JPG,AFNE01.JPG,AFNE01.JPG,AFNE01.JPG,AFNE01.JPG,,,,,,,,,,,,,,,,,3,2,32,1,,,,,,,AFNE07.jpg,AFNE13.jpg,AFSA19.jpg,AFSA20.jpg,AFNE13.jpg,FN,3,num_6,32,num_2,1.46673015179,,,2017_Apr_07_1510,60.0083339147,FEMA4ImagesEEG,001,100046,
AFNE01.JPG,AFNE01.JPG,AFNE01.JPG,AFNE01.JPG,AFNE01.JPG,AFNE01.JPG,,,,,,,,,,,,,,,,,3,3,33,8,,,,,,,AFSA10.jpg,AFSA08.jpg,AFNE17.jpg,AFNE01.jpg,AFSA08.jpg,FS,4,num_6,32,num_4,1.43341106991,,,2017_Apr_07_1510,60.0083339147,FEMA4ImagesEEG,001,100046,
AFNE01.JPG,AFNE01.JPG,AFNE01.JPG,AFNE01.JPG,AFNE01.JPG,AFNE01.JPG,,,,,,,,,,,,,,,,,3,4,34,4,,,,,,,AFNE06.jpg,AFSA07.jpg,AFSA13.jpg,AFNE03.jpg,AFNE06.jpg,FN,3,num_8,16,num_8,1.50007681712,,,2017_Apr_07_1510,60.0083339147,FEMA4ImagesEEG,001,100046,
AFNE01.JPG,AFNE01.JPG,AFNE01.JPG,AFNE01.JPG,AFNE01.JPG,AFNE01.JPG,,,,,,,,,,,,,,,,,3,5,35,2,,,,,,,AFSA11.jpg,AFNE03.jpg,AFSA20.jpg,AFNE17.jpg,AFNE03.jpg,FN,3,num_6,16,num_6,2.41660655476,,,2017_Apr_07_1510,60.0083339147,FEMA4ImagesEEG,001,100046,
AFNE01.JPG,AFNE01.JPG,AFNE01.JPG,AFNE01.JPG,AFNE01.JPG,AFNE01.JPG,,,,,,,,,,,,,,,,,3,6,36,9,,,,,,,AFNE11.jpg,AFSA14.jpg,AFNE10.jpg,AFSA17.jpg,AFSA14.jpg,FS,4,num_6,32,num_2,2.38338850578,,,2017_Apr_07_1510,60.0083339147,FEMA4ImagesEEG,001,100046,
AFNE01.JPG,AFNE01.JPG,AFNE01.JPG,AFNE01.JPG,AFNE01.JPG,AFNE01.JPG,,,,,,,,,,,,,,,,,3,7,37,7,,,,,,,AFSA06.jpg,AFSA18.jpg,AFNE06.jpg,AFNE03.jpg,AFSA06.jpg,FS,4,num_8,32,num_4,1.71673392039,,,2017_Apr_07_1510,60.0083339147,FEMA4ImagesEEG,001,100046,
AFNE01.JPG,AFNE01.JPG,AFNE01.JPG,AFNE01.JPG,AFNE01.JPG,AFNE01.JPG,,,,,,,,,,,,,,,,,3,8,38,5,,,,,,,AFSA13.jpg,AFSA07.jpg,AFNE19.jpg,AFNE20.jpg,AFNE19.jpg,FN,3,num_2,16,num_2,1.18347080774,,,2017_Apr_07_1510,60.0083339147,FEMA4ImagesEEG,001,100046,
AFNE01.JPG,AFNE01.JPG,AFNE01.JPG,AFNE01.JPG,AFNE01.JPG,AFNE01.JPG,,,,,,,,,,,,,,,,,3,9,39,0,,,,,,,AFNE17.jpg,AFSA10.jpg,AFNE08.jpg,AFSA18.jpg,AFSA18.jpg,FS,4,num_4,16,num_4,1.55006634491,,,2017_Apr_07_1510,60.0083339147,FEMA4ImagesEEG,001,100046,
AFNE01.JPG,AFNE01.JPG,AFNE01.JPG,AFNE01.JPG,AFNE01.JPG,AFNE01.JPG,,,,,,,,,,,,,,,,,4,0,40,9,,,,,,,AFNE10.jpg,AFSA13.jpg,AFSA14.jpg,AFNE07.jpg,AFNE10.jpg,FN,3,num_8,16,num_8,1.70008079428,,,2017_Apr_07_1510,60.0083339147,FEMA4ImagesEEG,001,100046,
AFNE01.JPG,AFNE01.JPG,AFNE01.JPG,AFNE01.JPG,AFNE01.JPG,AFNE01.JPG,,,,,,,,,,,,,,,,,4,1,41,8,,,,,,,AFSA16.jpg,AFNE09.jpg,AFSA05.jpg,AFNE11.jpg,AFNE11.jpg,FN,3,num_4,16,num_4,2.63333999412,,,2017_Apr_07_1510,60.0083339147,FEMA4ImagesEEG,001,100046,
AFNE01.JPG,AFNE01.JPG,AFNE01.JPG,AFNE01.JPG,AFNE01.JPG,AFNE01.JPG,,,,,,,,,,,,,,,,,4,2,42,1,,,,,,,AFSA03.jpg,AFNE08.jpg,AFNE16.jpg,AFSA18.jpg,AFNE16.jpg,FN,3,num_2,16,num_2,1.96671395446,,,2017_Apr_07_1510,60.0083339147,FEMA4ImagesEEG,001,100046,
AFNE01.JPG,AFNE01.JPG,AFNE01.JPG,AFNE01.JPG,AFNE01.JPG,AFNE01.JPG,,,,,,,,,,,,,,,,,4,3,43,6,,,,,,,AFNE09.jpg,AFSA05.jpg,AFNE03.jpg,AFSA01.jpg,AFSA05.jpg,FS,4,num_6,32,num_4,2.88325138949,,,2017_Apr_07_1510,60.0083339147,FEMA4ImagesEEG,001,100046,
AFNE01.JPG,AFNE01.JPG,AFNE01.JPG,AFNE01.JPG,AFNE01.JPG,AFNE01.JPG,,,,,,,,,,,,,,,,,4,4,44,4,,,,,,,AFNE17.jpg,AFSA16.jpg,AFSA17.jpg,AFNE02.jpg,AFNE02.jpg,FN,3,num_4,16,num_4,1.70009362395,,,2017_Apr_07_1510,60.0083339147,FEMA4ImagesEEG,001,100046,
AFNE01.JPG,AFNE01.JPG,AFNE01.JPG,AFNE01.JPG,AFNE01.JPG,AFNE01.JPG,,,,,,,,,,,,,,,,,4,5,45,3,,,,,,,AFSA07.jpg,AFNE02.jpg,AFNE16.jpg,AFSA08.jpg,AFSA08.jpg,FS,4,num_4,32,num_8,1.28346141009,,,2017_Apr_07_1510,60.0083339147,FEMA4ImagesEEG,001,100046,
AFNE01.JPG,AFNE01.JPG,AFNE01.JPG,AFNE01.JPG,AFNE01.JPG,AFNE01.JPG,,,,,,,,,,,,,,,,,4,6,46,5,,,,,,,AFNE14.jpg,AFNE05.jpg,AFSA07.jpg,AFSA05.jpg,AFNE05.jpg,FN,3,num_6,32,num_8,1.6667004514,,,2017_Apr_07_1510,60.0083339147,FEMA4ImagesEEG,001,100046,
AFNE01.JPG,AFNE01.JPG,AFNE01.JPG,AFNE01.JPG,AFNE01.JPG,AFNE01.JPG,,,,,,,,,,,,,,,,,4,7,47,7,,,,,,,AFNE02.jpg,AFSA11.jpg,AFSA12.jpg,AFNE09.jpg,AFNE02.jpg,FN,3,num_8,32,num_4,1.48345833085,,,2017_Apr_07_1510,60.0083339147,FEMA4ImagesEEG,001,100046,
AFNE01.JPG,AFNE01.JPG,AFNE01.JPG,AFNE01.JPG,AFNE01.JPG,AFNE01.JPG,,,,,,,,,,,,,,,,,4,8,48,0,,,,,,,AFSA11.jpg,AFNE09.jpg,AFSA06.jpg,AFNE17.jpg,AFSA11.jpg,FS,4,num_8,16,num_8,1.48311995063,,,2017_Apr_07_1510,60.0083339147,FEMA4ImagesEEG,001,100046,
AFNE01.JPG,AFNE01.JPG,AFNE01.JPG,AFNE01.JPG,AFNE01.JPG,AFNE01.JPG,,,,,,,,,,,,,,,,,4,9,49,2,,,,,,,AFSA20.jpg,AFSA16.jpg,AFNE12.jpg,AFNE05.jpg,AFSA20.jpg,FS,4,num_8,16,num_8,1.36673249304,,,2017_Apr_07_1510,60.0083339147,FEMA4ImagesEEG,001,100046,
AFNE01.JPG,AFNE01.JPG,AFNE01.JPG,AFNE01.JPG,AFNE01.JPG,AFNE01.JPG,,,,,,,,,,,,,,,,,5,0,50,4,,,,,,,AFSA18.jpg,AFNE13.jpg,AFNE08.jpg,AFSA09.jpg,AFNE08.jpg,FN,3,num_2,16,num_2,1.45011230698,,,2017_Apr_07_1510,60.0083339147,FEMA4ImagesEEG,001,100046,
AFNE01.JPG,AFNE01.JPG,AFNE01.JPG,AFNE01.JPG,AFNE01.JPG,AFNE01.JPG,,,,,,,,,,,,,,,,,5,1,51,2,,,,,,,AFSA09.jpg,AFNE06.jpg,AFSA11.jpg,AFNE18.jpg,AFNE06.jpg,FN,3,num_6,32,num_4,1.2500679167,,,2017_Apr_07_1510,60.0083339147,FEMA4ImagesEEG,001,100046,
AFNE01.JPG,AFNE01.JPG,AFNE01.JPG,AFNE01.JPG,AFNE01.JPG,AFNE01.JPG,,,,,,,,,,,,,,,,,5,2,52,3,,,,,,,AFSA20.jpg,AFNE07.jpg,AFSA04.jpg,AFNE16.jpg,AFNE16.jpg,FN,3,num_4,16,num_4,1.58338895487,,,2017_Apr_07_1510,60.0083339147,FEMA4ImagesEEG,001,100046,
AFNE01.JPG,AFNE01.JPG,AFNE01.JPG,AFNE01.JPG,AFNE01.JPG,AFNE01.JPG,,,,,,,,,,,,,,,,,5,3,53,0,,,,,,,AFNE12.jpg,AFSA19.jpg,AFNE16.jpg,AFSA09.jpg,AFNE12.jpg,FN,3,num_8,16,num_8,1.33341886383,,,2017_Apr_07_1510,60.0083339147,FEMA4ImagesEEG,001,100046,
AFNE01.JPG,AFNE01.JPG,AFNE01.JPG,AFNE01.JPG,AFNE01.JPG,AFNE01.JPG,,,,,,,,,,,,,,,,,5,4,54,7,,,,,,,AFSA11.jpg,AFSA13.jpg,AFNE20.jpg,AFNE02.jpg,AFSA11.jpg,FS,4,num_8,16,num_8,1.48343812441,,,2017_Apr_07_1510,60.0083339147,FEMA4ImagesEEG,001,100046,
AFNE01.JPG,AFNE01.JPG,AFNE01.JPG,AFNE01.JPG,AFNE01.JPG,AFNE01.JPG,,,,,,,,,,,,,,,,,5,5,55,6,,,,,,,AFNE14.jpg,AFNE05.jpg,AFSA16.jpg,AFSA15.jpg,AFSA15.jpg,FS,4,num_4,32,num_2,1.33342944831,,,2017_Apr_07_1510,60.0083339147,FEMA4ImagesEEG,001,100046,
AFNE01.JPG,AFNE01.JPG,AFNE01.JPG,AFNE01.JPG,AFNE01.JPG,AFNE01.JPG,,,,,,,,,,,,,,,,,5,6,56,9,,,,,,,AFSA07.jpg,AFNE10.jpg,AFSA03.jpg,AFNE20.jpg,AFNE20.jpg,FN,3,num_4,16,num_4,1.48343780357,,,2017_Apr_07_1510,60.0083339147,FEMA4ImagesEEG,001,100046,
AFNE01.JPG,AFNE01.JPG,AFNE01.JPG,AFNE01.JPG,AFNE01.JPG,AFNE01.JPG,,,,,,,,,,,,,,,,,5,7,57,8,,,,,,,AFSA01.jpg,AFSA05.jpg,AFNE07.jpg,AFNE06.jpg,AFNE06.jpg,FN,3,num_4,32,num_2,1.90005462198,,,2017_Apr_07_1510,60.0083339147,FEMA4ImagesEEG,001,100046,
AFNE01.JPG,AFNE01.JPG,AFNE01.JPG,AFNE01.JPG,AFNE01.JPG,AFNE01.JPG,,,,,,,,,,,,,,,,,5,8,58,1,,,,,,,AFSA01.jpg,AFNE02.jpg,AFSA04.jpg,AFNE15.jpg,AFSA01.jpg,FS,4,num_8,32,num_2,1.71646610275,,,2017_Apr_07_1510,60.0083339147,FEMA4ImagesEEG,001,100046,
AFNE01.JPG,AFNE01.JPG,AFNE01.JPG,AFNE01.JPG,AFNE01.JPG,AFNE01.JPG,,,,,,,,,,,,,,,,,5,9,59,5,,,,,,,AFNE14.jpg,AFSA18.jpg,AFSA13.jpg,AFNE15.jpg,AFSA13.jpg,FS,4,num_2,32,num_6,1.48341984232,,,2017_Apr_07_1510,60.0083339147,FEMA4ImagesEEG,001,100046,
,,,,,,,,,,,,,,,,,,,,,,,,,,,,,,,,,,,,,,,,,,,space,1.85005867947,2017_Apr_07_1510,60.0083339147,FEMA4ImagesEEG,001,100046,
AFNE01.JPG,AFNE01.JPG,AFNE01.JPG,AFNE01.JPG,AFNE01.JPG,AFNE01.JPG,,,,,,,,,,,,,,,,,,,,,0,0,0,3,,,AMSA06.jpg,AMSA10.jpg,AMNE12.jpg,AMNE02.jpg,AMNE12.jpg,MN,1,num_2,32,num_6,2.68340040557,,,2017_Apr_07_1510,60.0083339147,FEMA4ImagesEEG,001,100046,
AFNE01.JPG,AFNE01.JPG,AFNE01.JPG,AFNE01.JPG,AFNE01.JPG,AFNE01.JPG,,,,,,,,,,,,,,,,,,,,,0,1,1,4,,,AMNE18.jpg,AMSA02.jpg,AMNE12.jpg,AMSA04.jpg,AMSA02.jpg,MS,2,num_6,32,num_4,1.31670223153,,,2017_Apr_07_1510,60.0083339147,FEMA4ImagesEEG,001,100046,
AFNE01.JPG,AFNE01.JPG,AFNE01.JPG,AFNE01.JPG,AFNE01.JPG,AFNE01.JPG,,,,,,,,,,,,,,,,,,,,,0,2,2,8,,,AMNE12.jpg,AMNE02.jpg,AMSA10.jpg,AMSA04.jpg,AMNE02.jpg,MN,1,num_6,16,num_6,2.73326548608,,,2017_Apr_07_1510,60.0083339147,FEMA4ImagesEEG,001,100046,
AFNE01.JPG,AFNE01.JPG,AFNE01.JPG,AFNE01.JPG,AFNE01.JPG,AFNE01.JPG,,,,,,,,,,,,,,,,,,,,,0,3,3,0,,,AMNE14.jpg,AMNE03.jpg,AMSA20.jpg,AMSA07.jpg,AMNE03.jpg,MN,1,num_6,32,num_8,1.00016036979,,,2017_Apr_07_1510,60.0083339147,FEMA4ImagesEEG,001,100046,
AFNE01.JPG,AFNE01.JPG,AFNE01.JPG,AFNE01.JPG,AFNE01.JPG,AFNE01.JPG,,,,,,,,,,,,,,,,,,,,,0,4,4,5,,,AMSA15.jpg,AMSA13.jpg,AMNE08.jpg,AMNE07.jpg,AMSA15.jpg,MS,2,num_8,16,num_8,1.3000808584,,,2017_Apr_07_1510,60.0083339147,FEMA4ImagesEEG,001,100046,
AFNE01.JPG,AFNE01.JPG,AFNE01.JPG,AFNE01.JPG,AFNE01.JPG,AFNE01.JPG,,,,,,,,,,,,,,,,,,,,,0,5,5,2,,,AMSA01.jpg,AMNE16.jpg,AMSA05.jpg,AMNE04.jpg,AMSA01.jpg,MS,2,num_8,16,num_8,1.11672327179,,,2017_Apr_07_1510,60.0083339147,FEMA4ImagesEEG,001,100046,
AFNE01.JPG,AFNE01.JPG,AFNE01.JPG,AFNE01.JPG,AFNE01.JPG,AFNE01.JPG,,,,,,,,,,,,,,,,,,,,,0,6,6,6,,,AMNE19.jpg,AMNE05.jpg,AMSA13.jpg,AMSA08.jpg,AMNE19.jpg,MN,1,num_8,32,num_2,1.45007349737,,,2017_Apr_07_1510,60.0083339147,FEMA4ImagesEEG,001,100046,
AFNE01.JPG,AFNE01.JPG,AFNE01.JPG,AFNE01.JPG,AFNE01.JPG,AFNE01.JPG,,,,,,,,,,,,,,,,,,,,,0,7,7,7,,,AMSA06.jpg,AMNE13.jpg,AMNE18.jpg,AMSA17.jpg,AMSA17.jpg,MS,2,num_4,32,num_8,1.36670907913,,,2017_Apr_07_1510,60.0083339147,FEMA4ImagesEEG,001,100046,
AFNE01.JPG,AFNE01.JPG,AFNE01.JPG,AFNE01.JPG,AFNE01.JPG,AFNE01.JPG,,,,,,,,,,,,,,,,,,,,,0,8,8,1,,,AMNE15.jpg,AMNE06.jpg,AMSA03.jpg,AMSA15.jpg,AMSA03.jpg,MS,2,num_2,16,num_2,1.56659309985,,,2017_Apr_07_1510,60.0083339147,FEMA4ImagesEEG,001,100046,
AFNE01.JPG,AFNE01.JPG,AFNE01.JPG,AFNE01.JPG,AFNE01.JPG,AFNE01.JPG,,,,,,,,,,,,,,,,,,,,,0,9,9,9,,,AMSA05.jpg,AMSA12.jpg,AMNE15.jpg,AMNE03.jpg,AMNE15.jpg,MN,1,num_2,16,num_2,1.36673088931,,,2017_Apr_07_1510,60.0083339147,FEMA4ImagesEEG,001,100046,
AFNE01.JPG,AFNE01.JPG,AFNE01.JPG,AFNE01.JPG,AFNE01.JPG,AFNE01.JPG,,,,,,,,,,,,,,,,,,,,,1,0,10,3,,,AMSA10.jpg,AMSA16.jpg,AMNE15.jpg,AMNE17.jpg,AMNE17.jpg,MN,1,num_4,16,num_4,1.38339716569,,,2017_Apr_07_1510,60.0083339147,FEMA4ImagesEEG,001,100046,
AFNE01.JPG,AFNE01.JPG,AFNE01.JPG,AFNE01.JPG,AFNE01.JPG,AFNE01.JPG,,,,,,,,,,,,,,,,,,,,,1,1,11,6,,,AMNE03.jpg,AMSA05.jpg,AMSA17.jpg,AMNE08.jpg,AMSA17.jpg,MS,2,num_2,16,num_2,1.23342441279,,,2017_Apr_07_1510,60.0083339147,FEMA4ImagesEEG,001,100046,
AFNE01.JPG,AFNE01.JPG,AFNE01.JPG,AFNE01.JPG,AFNE01.JPG,AFNE01.JPG,,,,,,,,,,,,,,,,,,,,,1,2,12,9,,,AMSA13.jpg,AMNE10.jpg,AMSA04.jpg,AMNE16.jpg,AMSA13.jpg,MS,2,num_8,16,num_8,1.36672575749,,,2017_Apr_07_1510,60.0083339147,FEMA4ImagesEEG,001,100046,
AFNE01.JPG,AFNE01.JPG,AFNE01.JPG,AFNE01.JPG,AFNE01.JPG,AFNE01.JPG,,,,,,,,,,,,,,,,,,,,,1,3,13,2,,,AMSA19.jpg,AMNE10.jpg,AMSA17.jpg,AMNE11.jpg,AMNE10.jpg,MN,1,num_6,16,num_6,1.86671789945,,,2017_Apr_07_1510,60.0083339147,FEMA4ImagesEEG,001,100046,
AFNE01.JPG,AFNE01.JPG,AFNE01.JPG,AFNE01.JPG,AFNE01.JPG,AFNE01.JPG,,,,,,,,,,,,,,,,,,,,,1,4,14,4,,,AMNE20.jpg,AMNE16.jpg,AMSA17.jpg,AMSA15.jpg,AMSA17.jpg,MS,2,num_2,16,num_2,1.18342013098,,,2017_Apr_07_1510,60.0083339147,FEMA4ImagesEEG,001,100046,
AFNE01.JPG,AFNE01.JPG,AFNE01.JPG,AFNE01.JPG,AFNE01.JPG,AFNE01.JPG,,,,,,,,,,,,,,,,,,,,,1,5,15,5,,,AMNE02.jpg,AMSA20.jpg,AMNE03.jpg,AMSA17.jpg,AMSA17.jpg,MS,2,num_4,16,num_4,1.38342667394,,,2017_Apr_07_1510,60.0083339147,FEMA4ImagesEEG,001,100046,
AFNE01.JPG,AFNE01.JPG,AFNE01.JPG,AFNE01.JPG,AFNE01.JPG,AFNE01.JPG,,,,,,,,,,,,,,,,,,,,,1,6,16,0,,,AMSA16.jpg,AMSA13.jpg,AMNE18.jpg,AMNE08.jpg,AMSA13.jpg,MS,2,num_6,32,num_8,2.05000107456,,,2017_Apr_07_1510,60.0083339147,FEMA4ImagesEEG,001,100046,
AFNE01.JPG,AFNE01.JPG,AFNE01.JPG,AFNE01.JPG,AFNE01.JPG,AFNE01.JPG,,,,,,,,,,,,,,,,,,,,,1,7,17,8,,,AMNE19.jpg,AMNE20.jpg,AMSA02.jpg,AMSA08.jpg,AMNE20.jpg,MN,1,num_6,16,num_6,2.25001499453,,,2017_Apr_07_1510,60.0083339147,FEMA4ImagesEEG,001,100046,
AFNE01.JPG,AFNE01.JPG,AFNE01.JPG,AFNE01.JPG,AFNE01.JPG,AFNE01.JPG,,,,,,,,,,,,,,,,,,,,,1,8,18,7,,,AMSA16.jpg,AMNE07.jpg,AMSA06.jpg,AMNE20.jpg,AMNE07.jpg,MN,1,num_6,32,num_8,1.81669950509,,,2017_Apr_07_1510,60.0083339147,FEMA4ImagesEEG,001,100046,
AFNE01.JPG,AFNE01.JPG,AFNE01.JPG,AFNE01.JPG,AFNE01.JPG,AFNE01.JPG,,,,,,,,,,,,,,,,,,,,,1,9,19,1,,,AMSA06.jpg,AMSA01.jpg,AMNE10.jpg,AMNE20.jpg,AMSA06.jpg,MS,2,num_8,32,num_4,4.94985780003,,,2017_Apr_07_1510,60.0083339147,FEMA4ImagesEEG,001,100046,
AFNE01.JPG,AFNE01.JPG,AFNE01.JPG,AFNE01.JPG,AFNE01.JPG,AFNE01.JPG,,,,,,,,,,,,,,,,,,,,,2,0,20,2,,,AMNE14.jpg,AMSA05.jpg,AMSA20.jpg,AMNE15.jpg,AMNE15.jpg,MN,1,num_4,32,num_2,1.48343844502,,,2017_Apr_07_1510,60.0083339147,FEMA4ImagesEEG,001,100046,
AFNE01.JPG,AFNE01.JPG,AFNE01.JPG,AFNE01.JPG,AFNE01.JPG,AFNE01.JPG,,,,,,,,,,,,,,,,,,,,,2,1,21,7,,,AMNE14.jpg,AMSA07.jpg,AMSA09.jpg,AMNE16.jpg,AMSA07.jpg,MS,2,num_6,16,num_6,2.38334007422,,,2017_Apr_07_1510,60.0083339147,FEMA4ImagesEEG,001,100046,
AFNE01.JPG,AFNE01.JPG,AFNE01.JPG,AFNE01.JPG,AFNE01.JPG,AFNE01.JPG,,,,,,,,,,,,,,,,,,,,,2,2,22,5,,,AMNE02.jpg,AMSA04.jpg,AMSA12.jpg,AMNE13.jpg,AMNE02.jpg,MN,1,num_8,32,num_4,1.53337601293,,,2017_Apr_07_1510,60.0083339147,FEMA4ImagesEEG,001,100046,
AFNE01.JPG,AFNE01.JPG,AFNE01.JPG,AFNE01.JPG,AFNE01.JPG,AFNE01.JPG,,,,,,,,,,,,,,,,,,,,,2,3,23,1,,,AMNE08.jpg,AMSA18.jpg,AMNE18.jpg,AMSA15.jpg,AMNE18.jpg,MN,1,num_2,32,num_8,1.41672073794,,,2017_Apr_07_1510,60.0083339147,FEMA4ImagesEEG,001,100046,
AFNE01.JPG,AFNE01.JPG,AFNE01.JPG,AFNE01.JPG,AFNE01.JPG,AFNE01.JPG,,,,,,,,,,,,,,,,,,,,,2,4,24,9,,,AMNE15.jpg,AMNE19.jpg,AMSA17.jpg,AMSA02.jpg,AMSA17.jpg,MS,2,num_2,16,num_2,1.25018659024,,,2017_Apr_07_1510,60.0083339147,FEMA4ImagesEEG,001,100046,
AFNE01.JPG,AFNE01.JPG,AFNE01.JPG,AFNE01.JPG,AFNE01.JPG,AFNE01.JPG,,,,,,,,,,,,,,,,,,,,,2,5,25,6,,,AMSA02.jpg,AMNE15.jpg,AMSA01.jpg,AMNE02.jpg,AMNE02.jpg,MN,1,num_4,16,num_4,1.2167039311,,,2017_Apr_07_1510,60.0083339147,FEMA4ImagesEEG,001,100046,
AFNE01.JPG,AFNE01.JPG,AFNE01.JPG,AFNE01.JPG,AFNE01.JPG,AFNE01.JPG,,,,,,,,,,,,,,,,,,,,,2,6,26,8,,,AMNE04.jpg,AMNE20.jpg,AMSA07.jpg,AMSA19.jpg,AMNE20.jpg,MN,1,num_6,16,num_6,1.1834762604,,,2017_Apr_07_1510,60.0083339147,FEMA4ImagesEEG,001,100046,
AFNE01.JPG,AFNE01.JPG,AFNE01.JPG,AFNE01.JPG,AFNE01.JPG,AFNE01.JPG,,,,,,,,,,,,,,,,,,,,,2,7,27,0,,,AMSA14.jpg,AMNE04.jpg,AMSA09.jpg,AMNE03.jpg,AMNE04.jpg,MN,1,num_6,16,num_6,1.33331718948,,,2017_Apr_07_1510,60.0083339147,FEMA4ImagesEEG,001,100046,
AFNE01.JPG,AFNE01.JPG,AFNE01.JPG,AFNE01.JPG,AFNE01.JPG,AFNE01.JPG,,,,,,,,,,,,,,,,,,,,,2,8,28,3,,,AMNE17.jpg,AMSA12.jpg,AMSA08.jpg,AMNE16.jpg,AMNE17.jpg,MN,1,num_8,32,num_4,1.48418961745,,,2017_Apr_07_1510,60.0083339147,FEMA4ImagesEEG,001,100046,
AFNE01.JPG,AFNE01.JPG,AFNE01.JPG,AFNE01.JPG,AFNE01.JPG,AFNE01.JPG,,,,,,,,,,,,,,,,,,,,,2,9,29,4,,,AMSA15.jpg,AMNE11.jpg,AMSA17.jpg,AMNE04.jpg,AMNE04.jpg,MN,1,num_4,16,num_4,1.15026334347,,,2017_Apr_07_1510,60.0083339147,FEMA4ImagesEEG,001,100046,
AFNE01.JPG,AFNE01.JPG,AFNE01.JPG,AFNE01.JPG,AFNE01.JPG,AFNE01.JPG,,,,,,,,,,,,,,,,,,,,,3,0,30,6,,,AMSA02.jpg,AMNE10.jpg,AMSA13.jpg,AMNE04.jpg,AMSA13.jpg,MS,2,num_2,16,num_2,1.35002291691,,,2017_Apr_07_1510,60.0083339147,FEMA4ImagesEEG,001,100046,
AFNE01.JPG,AFNE01.JPG,AFNE01.JPG,AFNE01.JPG,AFNE01.JPG,AFNE01.JPG,,,,,,,,,,,,,,,,,,,,,3,1,31,0,,,AMNE10.jpg,AMSA12.jpg,AMSA17.jpg,AMNE11.jpg,AMNE10.jpg,MN,1,num_8,16,num_8,1.36659136764,,,2017_Apr_07_1510,60.0083339147,FEMA4ImagesEEG,001,100046,
AFNE01.JPG,AFNE01.JPG,AFNE01.JPG,AFNE01.JPG,AFNE01.JPG,AFNE01.JPG,,,,,,,,,,,,,,,,,,,,,3,2,32,9,,,AMSA10.jpg,AMSA19.jpg,AMNE14.jpg,AMNE01.jpg,AMSA19.jpg,MS,2,num_6,16,num_6,1.85009171558,,,2017_Apr_07_1510,60.0083339147,FEMA4ImagesEEG,001,100046,
AFNE01.JPG,AFNE01.JPG,AFNE01.JPG,AFNE01.JPG,AFNE01.JPG,AFNE01.JPG,,,,,,,,,,,,,,,,,,,,,3,3,33,3,,,AMSA10.jpg,AMSA02.jpg,AMNE02.jpg,AMNE08.jpg,AMSA02.jpg,MS,2,num_6,32,num_2,1.46673464216,,,2017_Apr_07_1510,60.0083339147,FEMA4ImagesEEG,001,100046,
AFNE01.JPG,AFNE01.JPG,AFNE01.JPG,AFNE01.JPG,AFNE01.JPG,AFNE01.JPG,,,,,,,,,,,,,,,,,,,,,3,4,34,1,,,AMSA04.jpg,AMNE03.jpg,AMNE11.jpg,AMSA16.jpg,AMNE11.jpg,MN,1,num_2,16,num_2,1.90001517115,,,2017_Apr_07_1510,60.0083339147,FEMA4ImagesEEG,001,100046,
AFNE01.JPG,AFNE01.JPG,AFNE01.JPG,AFNE01.JPG,AFNE01.JPG,AFNE01.JPG,,,,,,,,,,,,,,,,,,,,,3,5,35,2,,,AMSA18.jpg,AMSA01.jpg,AMNE15.jpg,AMNE17.jpg,AMNE17.jpg,MN,1,num_4,32,num_8,1.56675699772,,,2017_Apr_07_1510,60.0083339147,FEMA4ImagesEEG,001,100046,
AFNE01.JPG,AFNE01.JPG,AFNE01.JPG,AFNE01.JPG,AFNE01.JPG,AFNE01.JPG,,,,,,,,,,,,,,,,,,,,,3,6,36,5,,,AMSA05.jpg,AMSA20.jpg,AMNE12.jpg,AMNE11.jpg,AMSA05.jpg,MS,2,num_8,16,num_8,1.54993355856,,,2017_Apr_07_1510,60.0083339147,FEMA4ImagesEEG,001,100046,
AFNE01.JPG,AFNE01.JPG,AFNE01.JPG,AFNE01.JPG,AFNE01.JPG,AFNE01.JPG,,,,,,,,,,,,,,,,,,,,,3,7,37,4,,,AMSA03.jpg,AMNE18.jpg,AMSA14.jpg,AMNE14.jpg,AMNE14.jpg,MN,1,num_4,16,num_4,1.85005515115,,,2017_Apr_07_1510,60.0083339147,FEMA4ImagesEEG,001,100046,
AFNE01.JPG,AFNE01.JPG,AFNE01.JPG,AFNE01.JPG,AFNE01.JPG,AFNE01.JPG,,,,,,,,,,,,,,,,,,,,,3,8,38,8,,,AMSA15.jpg,AMNE13.jpg,AMNE04.jpg,AMSA04.jpg,AMNE13.jpg,MN,1,num_6,16,num_6,1.41678873496,,,2017_Apr_07_1510,60.0083339147,FEMA4ImagesEEG,001,100046,
AFNE01.JPG,AFNE01.JPG,AFNE01.JPG,AFNE01.JPG,AFNE01.JPG,AFNE01.JPG,,,,,,,,,,,,,,,,,,,,,3,9,39,7,,,AMNE11.jpg,AMSA14.jpg,AMSA04.jpg,AMNE10.jpg,AMSA14.jpg,MS,2,num_6,16,num_6,1.60027782456,,,2017_Apr_07_1510,60.0083339147,FEMA4ImagesEEG,001,100046,
