IPosition2,IPosition3,IPosition1,IPosition6,IPosition4,IPosition5,TrialsF1.thisRepN,TrialsF1.thisTrialN,TrialsF1.thisN,TrialsF1.thisIndex,TrialsM1.thisRepN,TrialsM1.thisTrialN,TrialsM1.thisN,TrialsM1.thisIndex,TrialsF2.thisRepN,TrialsF2.thisTrialN,TrialsF2.thisN,TrialsF2.thisIndex,TrialsM2.thisRepN,TrialsM2.thisTrialN,TrialsM2.thisN,TrialsM2.thisIndex,TrialsF3.thisRepN,TrialsF3.thisTrialN,TrialsF3.thisN,TrialsF3.thisIndex,TrialsM3.thisRepN,TrialsM3.thisTrialN,TrialsM3.thisN,TrialsM3.thisIndex,InstrKey_resp.keys,InstrKey_resp.rt,Image0 _Position,Image1 _Position,Image2 _Position,Image3 _Position,Center_image,condition,code,correct_answer,accuracy,Key_Resp.keys,Key_Resp.rt,BreakKey_resp.keys,BreakKey_resp.rt,date,frameRate,expName,session,participant,
,,,,,,,,,,,,,,,,,,,,,,,,,,,,,,space,41.3640729194,,,,,,,,,,,,,,2017_Apr_07_1857,60.0139939727,FEMA4ImagesEEG,001,100133,
AFSA21.JPG,AFNE23.JPG,AFNE21.JPG,AFSA25.JPG,AFNE25.JPG,AFSA23.JPG,0,0,0,4,,,,,,,,,,,,,,,,,,,,,,,AFNE14.jpg,AFSA20.jpg,AFNE05.jpg,AFSA02.jpg,AFSA20.jpg,FS,4,num_6,32,num_4,1.35009059287,,,2017_Apr_07_1857,60.0139939727,FEMA4ImagesEEG,001,100133,
AMSA21.JPG,AMNE22.JPG,AMNE21.JPG,AMSA23.JPG,AMSA22.JPG,AMNE23.JPG,0,1,1,1,,,,,,,,,,,,,,,,,,,,,,,AFSA09.jpg,AFNE05.jpg,AFSA19.jpg,AFNE17.jpg,AFNE17.jpg,FN,3,num_4,32,num_6,2.09998931945,,,2017_Apr_07_1857,60.0139939727,FEMA4ImagesEEG,001,100133,
AFNE23.JPG,AFNE24.JPG,AFNE22.JPG,AFSA24.JPG,AFSA22.JPG,AFSA23.JPG,0,2,2,8,,,,,,,,,,,,,,,,,,,,,,,AFSA10.jpg,AFSA07.jpg,AFNE06.jpg,AFNE13.jpg,AFSA07.jpg,FS,4,num_6,32,num_8,0.950132353231,,,2017_Apr_07_1857,60.0139939727,FEMA4ImagesEEG,001,100133,
AMSA25.JPG,AMNE24.JPG,AMSA24.JPG,AMNE26.JPG,AMSA21.JPG,AMNE25.JPG,0,3,3,3,,,,,,,,,,,,,,,,,,,,,,,AFSA09.jpg,AFNE18.jpg,AFSA05.jpg,AFNE20.jpg,AFNE18.jpg,FN,3,num_6,32,num_4,1.15013376437,,,2017_Apr_07_1857,60.0139939727,FEMA4ImagesEEG,001,100133,
AMNE22.JPG,AMSA24.JPG,AMSA22.JPG,AMNE25.JPG,AMNE24.JPG,AMSA25.JPG,0,4,4,7,,,,,,,,,,,,,,,,,,,,,,,AFSA15.jpg,AFNE15.jpg,AFNE20.jpg,AFSA05.jpg,AFSA15.jpg,FS,4,num_8,16,num_8,1.71669543162,,,2017_Apr_07_1857,60.0139939727,FEMA4ImagesEEG,001,100133,
AMSA21.JPG,AMNE23.JPG,AMNE21.JPG,AMSA25.JPG,AMNE25.JPG,AMSA23.JPG,0,5,5,5,,,,,,,,,,,,,,,,,,,,,,,AFSA03.jpg,AFNE13.jpg,AFNE05.jpg,AFSA01.jpg,AFNE05.jpg,FN,3,num_2,16,num_2,1.8334328162,,,2017_Apr_07_1857,60.0139939727,FEMA4ImagesEEG,001,100133,
AFSA25.JPG,AFNE24.JPG,AFSA24.JPG,AFNE21.JPG,AFSA21.JPG,AFNE25.JPG,0,6,6,2,,,,,,,,,,,,,,,,,,,,,,,AFNE20.jpg,AFSA20.jpg,AFNE13.jpg,AFSA07.jpg,AFSA07.jpg,FS,4,num_4,32,num_8,1.78345451411,,,2017_Apr_07_1857,60.0139939727,FEMA4ImagesEEG,001,100133,
AFSA21.JPG,AFNE22.JPG,AFNE21.JPG,AFSA23.JPG,AFSA22.JPG,AFNE23.JPG,0,7,7,0,,,,,,,,,,,,,,,,,,,,,,,AFSA07.jpg,AFNE04.jpg,AFNE16.jpg,AFSA18.jpg,AFNE04.jpg,FN,3,num_6,16,num_6,0.850139826536,,,2017_Apr_07_1857,60.0139939727,FEMA4ImagesEEG,001,100133,
AFNE22.JPG,AFSA24.JPG,AFSA22.JPG,AFNE25.JPG,AFNE24.JPG,AFSA25.JPG,0,8,8,6,,,,,,,,,,,,,,,,,,,,,,,AFNE04.jpg,AFSA04.jpg,AFSA10.jpg,AFNE06.jpg,AFNE06.jpg,FN,3,num_4,32,num_8,1.88338193088,,,2017_Apr_07_1857,60.0139939727,FEMA4ImagesEEG,001,100133,
AMNE23.JPG,AMNE24.JPG,AMNE22.JPG,AMSA24.JPG,AMSA22.JPG,AMSA23.JPG,0,9,9,9,,,,,,,,,,,,,,,,,,,,,,,AFSA02.jpg,AFNE20.jpg,AFSA01.jpg,AFNE17.jpg,AFSA01.jpg,FS,4,num_2,16,num_2,2.11668766965,,,2017_Apr_07_1857,60.0139939727,FEMA4ImagesEEG,001,100133,
AFNE22.JPG,AFSA24.JPG,AFSA22.JPG,AFNE25.JPG,AFNE24.JPG,AFSA25.JPG,,,,,0,0,0,6,,,,,,,,,,,,,,,,,,,AMSA05.jpg,AMSA16.jpg,AMNE16.jpg,AMNE19.jpg,AMNE19.jpg,MN,1,num_4,32,num_8,1.74965207744,,,2017_Apr_07_1857,60.0139939727,FEMA4ImagesEEG,001,100133,
AFSA21.JPG,AFNE23.JPG,AFNE21.JPG,AFSA25.JPG,AFNE25.JPG,AFSA23.JPG,,,,,0,1,1,4,,,,,,,,,,,,,,,,,,,AMNE11.jpg,AMSA03.jpg,AMSA13.jpg,AMNE01.jpg,AMNE11.jpg,MN,1,num_8,16,num_8,1.30010010279,,,2017_Apr_07_1857,60.0139939727,FEMA4ImagesEEG,001,100133,
AFNE23.JPG,AFNE24.JPG,AFNE22.JPG,AFSA24.JPG,AFSA22.JPG,AFSA23.JPG,,,,,0,2,2,8,,,,,,,,,,,,,,,,,,,AMSA01.jpg,AMNE05.jpg,AMSA19.jpg,AMNE15.jpg,AMNE05.jpg,MN,1,num_6,32,num_4,2.01665889937,,,2017_Apr_07_1857,60.0139939727,FEMA4ImagesEEG,001,100133,
AMNE23.JPG,AMNE24.JPG,AMNE22.JPG,AMSA24.JPG,AMSA22.JPG,AMSA23.JPG,,,,,0,3,3,9,,,,,,,,,,,,,,,,,,,AMNE17.jpg,AMNE08.jpg,AMSA12.jpg,AMSA01.jpg,AMSA12.jpg,MS,2,num_2,32,num_4,1.85037204204,,,2017_Apr_07_1857,60.0139939727,FEMA4ImagesEEG,001,100133,
AMSA21.JPG,AMNE23.JPG,AMNE21.JPG,AMSA25.JPG,AMNE25.JPG,AMSA23.JPG,,,,,0,4,4,5,,,,,,,,,,,,,,,,,,,AMSA13.jpg,AMNE15.jpg,AMNE12.jpg,AMSA10.jpg,AMNE12.jpg,MN,1,num_2,16,num_2,1.90007194201,,,2017_Apr_07_1857,60.0139939727,FEMA4ImagesEEG,001,100133,
AMNE22.JPG,AMSA24.JPG,AMSA22.JPG,AMNE25.JPG,AMNE24.JPG,AMSA25.JPG,,,,,0,5,5,7,,,,,,,,,,,,,,,,,,,AMNE08.jpg,AMSA18.jpg,AMNE04.jpg,AMSA08.jpg,AMSA08.jpg,MS,2,num_4,32,num_8,1.31674713478,,,2017_Apr_07_1857,60.0139939727,FEMA4ImagesEEG,001,100133,
AFSA21.JPG,AFNE22.JPG,AFNE21.JPG,AFSA23.JPG,AFSA22.JPG,AFNE23.JPG,,,,,0,6,6,0,,,,,,,,,,,,,,,,,,,AMNE08.jpg,AMSA03.jpg,AMNE02.jpg,AMSA14.jpg,AMNE08.jpg,MN,1,num_8,16,num_8,1.26662706607,,,2017_Apr_07_1857,60.0139939727,FEMA4ImagesEEG,001,100133,
AFSA25.JPG,AFNE24.JPG,AFSA24.JPG,AFNE21.JPG,AFSA21.JPG,AFNE25.JPG,,,,,0,7,7,2,,,,,,,,,,,,,,,,,,,AMNE12.jpg,AMNE01.jpg,AMSA07.jpg,AMSA11.jpg,AMSA07.jpg,MS,2,num_2,16,num_2,1.35018424876,,,2017_Apr_07_1857,60.0139939727,FEMA4ImagesEEG,001,100133,
AMSA25.JPG,AMNE24.JPG,AMSA24.JPG,AMNE26.JPG,AMSA21.JPG,AMNE25.JPG,,,,,0,8,8,3,,,,,,,,,,,,,,,,,,,AMSA13.jpg,AMSA08.jpg,AMNE15.jpg,AMNE19.jpg,AMNE19.jpg,MN,1,num_4,16,num_4,0.86677210452,,,2017_Apr_07_1857,60.0139939727,FEMA4ImagesEEG,001,100133,
AMSA21.JPG,AMNE22.JPG,AMNE21.JPG,AMSA23.JPG,AMSA22.JPG,AMNE23.JPG,,,,,0,9,9,1,,,,,,,,,,,,,,,,,,,AMSA13.jpg,AMSA16.jpg,AMNE14.jpg,AMNE01.jpg,AMSA16.jpg,MS,2,num_6,32,num_8,1.03344545327,,,2017_Apr_07_1857,60.0139939727,FEMA4ImagesEEG,001,100133,
AMSA21.JPG,AMNE22.JPG,AMNE21.JPG,AMSA23.JPG,AMSA22.JPG,AMNE23.JPG,,,,,,,,,0,0,0,1,,,,,,,,,,,,,,,AFNE10.jpg,AFSA06.jpg,AFSA03.jpg,AFNE06.jpg,AFNE10.jpg,FN,3,num_8,16,num_8,1.45012000483,,,2017_Apr_07_1857,60.0139939727,FEMA4ImagesEEG,001,100133,
AMNE22.JPG,AMSA24.JPG,AMSA22.JPG,AMNE25.JPG,AMNE24.JPG,AMSA25.JPG,,,,,,,,,0,1,1,7,,,,,,,,,,,,,,,AFNE18.jpg,AFSA10.jpg,AFNE14.jpg,AFSA01.jpg,AFSA10.jpg,FS,4,num_6,32,num_8,1.80005728407,,,2017_Apr_07_1857,60.0139939727,FEMA4ImagesEEG,001,100133,
AFSA21.JPG,AFNE22.JPG,AFNE21.JPG,AFSA23.JPG,AFSA22.JPG,AFNE23.JPG,,,,,,,,,0,2,2,0,,,,,,,,,,,,,,,AFSA01.jpg,AFNE02.jpg,AFNE06.jpg,AFSA09.jpg,AFSA01.jpg,FS,4,num_8,32,num_2,1.3834603515,,,2017_Apr_07_1857,60.0139939727,FEMA4ImagesEEG,001,100133,
AFNE22.JPG,AFSA24.JPG,AFSA22.JPG,AFNE25.JPG,AFNE24.JPG,AFSA25.JPG,,,,,,,,,0,3,3,6,,,,,,,,,,,,,,,AFNE14.jpg,AFSA07.jpg,AFSA03.jpg,AFNE07.jpg,AFSA07.jpg,FS,4,num_6,16,num_6,0.850143034011,,,2017_Apr_07_1857,60.0139939727,FEMA4ImagesEEG,001,100133,
AMNE23.JPG,AMNE24.JPG,AMNE22.JPG,AMSA24.JPG,AMSA22.JPG,AMSA23.JPG,,,,,,,,,0,4,4,9,,,,,,,,,,,,,,,AFNE08.jpg,AFSA20.jpg,AFSA15.jpg,AFNE05.jpg,AFSA20.jpg,FS,4,num_6,32,num_4,0.833465531468,,,2017_Apr_07_1857,60.0139939727,FEMA4ImagesEEG,001,100133,
AFSA21.JPG,AFNE23.JPG,AFNE21.JPG,AFSA25.JPG,AFNE25.JPG,AFSA23.JPG,,,,,,,,,0,5,5,4,,,,,,,,,,,,,,,AFNE14.jpg,AFSA09.jpg,AFNE17.jpg,AFSA06.jpg,AFSA09.jpg,FS,4,num_6,16,num_6,1.11680024932,,,2017_Apr_07_1857,60.0139939727,FEMA4ImagesEEG,001,100133,
AFSA25.JPG,AFNE24.JPG,AFSA24.JPG,AFNE21.JPG,AFSA21.JPG,AFNE25.JPG,,,,,,,,,0,6,6,2,,,,,,,,,,,,,,,AFSA14.jpg,AFNE02.jpg,AFSA18.jpg,AFNE03.jpg,AFSA18.jpg,FS,4,num_2,32,num_4,1.21672959044,,,2017_Apr_07_1857,60.0139939727,FEMA4ImagesEEG,001,100133,
AFNE23.JPG,AFNE24.JPG,AFNE22.JPG,AFSA24.JPG,AFSA22.JPG,AFSA23.JPG,,,,,,,,,0,7,7,8,,,,,,,,,,,,,,,AFSA15.jpg,AFNE15.jpg,AFSA09.jpg,AFNE18.jpg,AFNE15.jpg,FN,3,num_6,32,num_4,1.16681351187,,,2017_Apr_07_1857,60.0139939727,FEMA4ImagesEEG,001,100133,
AMSA21.JPG,AMNE23.JPG,AMNE21.JPG,AMSA25.JPG,AMNE25.JPG,AMSA23.JPG,,,,,,,,,0,8,8,5,,,,,,,,,,,,,,,AFNE03.jpg,AFSA06.jpg,AFNE12.jpg,AFSA04.jpg,AFNE03.jpg,FN,3,num_8,32,num_2,1.26672713691,,,2017_Apr_07_1857,60.0139939727,FEMA4ImagesEEG,001,100133,
AMSA25.JPG,AMNE24.JPG,AMSA24.JPG,AMNE26.JPG,AMSA21.JPG,AMNE25.JPG,,,,,,,,,0,9,9,3,,,,,,,,,,,,,,,AFSA06.jpg,AFSA19.jpg,AFNE01.jpg,AFNE11.jpg,AFSA06.jpg,FS,4,num_8,16,num_8,0.666803729488,,,2017_Apr_07_1857,60.0139939727,FEMA4ImagesEEG,001,100133,
AMNE22.JPG,AMSA24.JPG,AMSA22.JPG,AMNE25.JPG,AMNE24.JPG,AMSA25.JPG,,,,,,,,,,,,,0,0,0,7,,,,,,,,,,,AMSA10.jpg,AMNE07.jpg,AMSA12.jpg,AMNE19.jpg,AMSA12.jpg,MS,2,num_2,16,num_2,1.75005364371,,,2017_Apr_07_1857,60.0139939727,FEMA4ImagesEEG,001,100133,
AFSA21.JPG,AFNE23.JPG,AFNE21.JPG,AFSA25.JPG,AFNE25.JPG,AFSA23.JPG,,,,,,,,,,,,,0,1,1,4,,,,,,,,,,,AMNE19.jpg,AMNE03.jpg,AMSA20.jpg,AMSA13.jpg,AMSA13.jpg,MS,2,num_4,16,num_4,1.00013310695,,,2017_Apr_07_1857,60.0139939727,FEMA4ImagesEEG,001,100133,
AMSA21.JPG,AMNE22.JPG,AMNE21.JPG,AMSA23.JPG,AMSA22.JPG,AMNE23.JPG,,,,,,,,,,,,,0,2,2,1,,,,,,,,,,,AMSA12.jpg,AMSA03.jpg,AMNE19.jpg,AMNE04.jpg,AMNE19.jpg,MN,1,num_2,32,num_8,0.816825876478,,,2017_Apr_07_1857,60.0139939727,FEMA4ImagesEEG,001,100133,
AMSA25.JPG,AMNE24.JPG,AMSA24.JPG,AMNE26.JPG,AMSA21.JPG,AMNE25.JPG,,,,,,,,,,,,,0,3,3,3,,,,,,,,,,,AMSA07.jpg,AMNE10.jpg,AMSA13.jpg,AMNE13.jpg,AMSA07.jpg,MS,2,num_8,32,num_6,0.483517026296,,,2017_Apr_07_1857,60.0139939727,FEMA4ImagesEEG,001,100133,
AFSA25.JPG,AFNE24.JPG,AFSA24.JPG,AFNE21.JPG,AFSA21.JPG,AFNE25.JPG,,,,,,,,,,,,,0,4,4,2,,,,,,,,,,,AMNE07.jpg,AMNE02.jpg,AMSA04.jpg,AMSA20.jpg,AMNE02.jpg,MN,1,num_6,32,num_4,0.833465531468,,,2017_Apr_07_1857,60.0139939727,FEMA4ImagesEEG,001,100133,
AFNE22.JPG,AFSA24.JPG,AFSA22.JPG,AFNE25.JPG,AFNE24.JPG,AFSA25.JPG,,,,,,,,,,,,,0,5,5,6,,,,,,,,,,,AMSA16.jpg,AMNE04.jpg,AMNE01.jpg,AMSA01.jpg,AMNE04.jpg,MN,1,num_6,32,num_2,3.5832808658,,,2017_Apr_07_1857,60.0139939727,FEMA4ImagesEEG,001,100133,
AFNE23.JPG,AFNE24.JPG,AFNE22.JPG,AFSA24.JPG,AFSA22.JPG,AFSA23.JPG,,,,,,,,,,,,,0,6,6,8,,,,,,,,,,,AMSA15.jpg,AMNE12.jpg,AMSA04.jpg,AMNE14.jpg,AMSA15.jpg,MS,2,num_8,16,num_8,0.766790482914,,,2017_Apr_07_1857,60.0139939727,FEMA4ImagesEEG,001,100133,
AMSA21.JPG,AMNE23.JPG,AMNE21.JPG,AMSA25.JPG,AMNE25.JPG,AMSA23.JPG,,,,,,,,,,,,,0,7,7,5,,,,,,,,,,,AMNE16.jpg,AMSA09.jpg,AMNE02.jpg,AMSA06.jpg,AMSA06.jpg,MS,2,num_4,16,num_4,0.86679359409,,,2017_Apr_07_1857,60.0139939727,FEMA4ImagesEEG,001,100133,
AFSA21.JPG,AFNE22.JPG,AFNE21.JPG,AFSA23.JPG,AFSA22.JPG,AFNE23.JPG,,,,,,,,,,,,,0,8,8,0,,,,,,,,,,,AMSA17.jpg,AMNE19.jpg,AMSA14.jpg,AMNE15.jpg,AMSA17.jpg,MS,2,num_8,32,num_4,1.45011038263,,,2017_Apr_07_1857,60.0139939727,FEMA4ImagesEEG,001,100133,
AMNE23.JPG,AMNE24.JPG,AMNE22.JPG,AMSA24.JPG,AMSA22.JPG,AMSA23.JPG,,,,,,,,,,,,,0,9,9,9,,,,,,,,,,,AMNE06.jpg,AMSA14.jpg,AMSA13.jpg,AMNE15.jpg,AMSA14.jpg,MS,2,num_6,16,num_6,0.800172429765,,,2017_Apr_07_1857,60.0139939727,FEMA4ImagesEEG,001,100133,
AMNE22.JPG,AMSA24.JPG,AMSA22.JPG,AMNE25.JPG,AMNE24.JPG,AMSA25.JPG,,,,,,,,,,,,,,,,,0,0,0,7,,,,,,,AFNE07.jpg,AFNE04.jpg,AFSA15.jpg,AFSA18.jpg,AFNE07.jpg,FN,3,num_8,16,num_8,1.06677864771,,,2017_Apr_07_1857,60.0139939727,FEMA4ImagesEEG,001,100133,
AFSA21.JPG,AFNE23.JPG,AFNE21.JPG,AFSA25.JPG,AFNE25.JPG,AFSA23.JPG,,,,,,,,,,,,,,,,,0,1,1,4,,,,,,,AFNE01.jpg,AFSA09.jpg,AFNE10.jpg,AFSA02.jpg,AFNE01.jpg,FN,3,num_8,32,num_6,0.933487887029,,,2017_Apr_07_1857,60.0139939727,FEMA4ImagesEEG,001,100133,
AFNE22.JPG,AFSA24.JPG,AFSA22.JPG,AFNE25.JPG,AFNE24.JPG,AFSA25.JPG,,,,,,,,,,,,,,,,,0,2,2,6,,,,,,,AFNE17.jpg,AFSA19.jpg,AFNE15.jpg,AFSA04.jpg,AFNE15.jpg,FN,3,num_2,32,num_8,2.40003040619,,,2017_Apr_07_1857,60.0139939727,FEMA4ImagesEEG,001,100133,
AMSA21.JPG,AMNE22.JPG,AMNE21.JPG,AMSA23.JPG,AMSA22.JPG,AMNE23.JPG,,,,,,,,,,,,,,,,,0,3,3,1,,,,,,,AFSA14.jpg,AFSA16.jpg,AFNE15.jpg,AFNE16.jpg,AFSA16.jpg,FS,4,num_6,32,num_4,0.883477190509,,,2017_Apr_07_1857,60.0139939727,FEMA4ImagesEEG,001,100133,
AFSA21.JPG,AFNE22.JPG,AFNE21.JPG,AFSA23.JPG,AFSA22.JPG,AFNE23.JPG,,,,,,,,,,,,,,,,,0,4,4,0,,,,,,,AFNE17.jpg,AFSA10.jpg,AFSA16.jpg,AFNE09.jpg,AFNE17.jpg,FN,3,num_8,16,num_8,3.64993859455,,,2017_Apr_07_1857,60.0139939727,FEMA4ImagesEEG,001,100133,
AMSA25.JPG,AMNE24.JPG,AMSA24.JPG,AMNE26.JPG,AMSA21.JPG,AMNE25.JPG,,,,,,,,,,,,,,,,,0,5,5,3,,,,,,,AFNE05.jpg,AFSA04.jpg,AFSA11.jpg,AFNE13.jpg,AFSA11.jpg,FS,4,num_2,32,num_4,2.20003925846,,,2017_Apr_07_1857,60.0139939727,FEMA4ImagesEEG,001,100133,
AFNE23.JPG,AFNE24.JPG,AFNE22.JPG,AFSA24.JPG,AFSA22.JPG,AFSA23.JPG,,,,,,,,,,,,,,,,,0,6,6,8,,,,,,,AFSA18.jpg,AFSA09.jpg,AFNE02.jpg,AFNE03.jpg,AFSA18.jpg,FS,4,num_8,16,num_8,0.866756067611,,,2017_Apr_07_1857,60.0139939727,FEMA4ImagesEEG,001,100133,
AFSA25.JPG,AFNE24.JPG,AFSA24.JPG,AFNE21.JPG,AFSA21.JPG,AFNE25.JPG,,,,,,,,,,,,,,,,,0,7,7,2,,,,,,,AFSA02.jpg,AFSA19.jpg,AFNE09.jpg,AFNE07.jpg,AFSA02.jpg,FS,4,num_8,32,num_2,1.10015417961,,,2017_Apr_07_1857,60.0139939727,FEMA4ImagesEEG,001,100133,
AMSA21.JPG,AMNE23.JPG,AMNE21.JPG,AMSA25.JPG,AMNE25.JPG,AMSA23.JPG,,,,,,,,,,,,,,,,,0,8,8,5,,,,,,,AFNE18.jpg,AFSA03.jpg,AFSA02.jpg,AFNE19.jpg,AFSA02.jpg,FS,4,num_2,32,num_6,0.783504549414,,,2017_Apr_07_1857,60.0139939727,FEMA4ImagesEEG,001,100133,
AMNE23.JPG,AMNE24.JPG,AMNE22.JPG,AMSA24.JPG,AMSA22.JPG,AMSA23.JPG,,,,,,,,,,,,,,,,,0,9,9,9,,,,,,,AFSA19.jpg,AFNE20.jpg,AFSA08.jpg,AFNE06.jpg,AFNE06.jpg,FN,3,num_4,16,num_4,0.816763973562,,,2017_Apr_07_1857,60.0139939727,FEMA4ImagesEEG,001,100133,
AMSA25.JPG,AMNE24.JPG,AMSA24.JPG,AMNE26.JPG,AMSA21.JPG,AMNE25.JPG,,,,,,,,,,,,,,,,,,,,,0,0,0,3,,,AMSA04.jpg,AMNE19.jpg,AMNE10.jpg,AMSA19.jpg,AMNE19.jpg,MN,1,num_6,32,num_2,1.88341240096,,,2017_Apr_07_1857,60.0139939727,FEMA4ImagesEEG,001,100133,
AMSA21.JPG,AMNE22.JPG,AMNE21.JPG,AMSA23.JPG,AMSA22.JPG,AMNE23.JPG,,,,,,,,,,,,,,,,,,,,,0,1,1,1,,,AMNE16.jpg,AMSA10.jpg,AMSA05.jpg,AMNE12.jpg,AMSA10.jpg,MS,2,num_6,16,num_6,0.766848857515,,,2017_Apr_07_1857,60.0139939727,FEMA4ImagesEEG,001,100133,
AFNE23.JPG,AFNE24.JPG,AFNE22.JPG,AFSA24.JPG,AFSA22.JPG,AFSA23.JPG,,,,,,,,,,,,,,,,,,,,,0,2,2,8,,,AMSA02.jpg,AMNE13.jpg,AMNE18.jpg,AMSA14.jpg,AMNE18.jpg,MN,1,num_2,32,num_4,1.33345831488,,,2017_Apr_07_1857,60.0139939727,FEMA4ImagesEEG,001,100133,
AMSA21.JPG,AMNE23.JPG,AMNE21.JPG,AMSA25.JPG,AMNE25.JPG,AMSA23.JPG,,,,,,,,,,,,,,,,,,,,,0,3,3,5,,,AMSA15.jpg,AMNE16.jpg,AMSA02.jpg,AMNE13.jpg,AMSA02.jpg,MS,2,num_2,32,num_4,4.33323764591,,,2017_Apr_07_1857,60.0139939727,FEMA4ImagesEEG,001,100133,
AFNE22.JPG,AFSA24.JPG,AFSA22.JPG,AFNE25.JPG,AFNE24.JPG,AFSA25.JPG,,,,,,,,,,,,,,,,,,,,,0,4,4,6,,,AMNE18.jpg,AMSA11.jpg,AMSA18.jpg,AMNE07.jpg,AMNE07.jpg,MN,1,num_4,32,num_6,1.20010565151,,,2017_Apr_07_1857,60.0139939727,FEMA4ImagesEEG,001,100133,
AMNE23.JPG,AMNE24.JPG,AMNE22.JPG,AMSA24.JPG,AMSA22.JPG,AMSA23.JPG,,,,,,,,,,,,,,,,,,,,,0,5,5,9,,,AMSA06.jpg,AMNE16.jpg,AMSA03.jpg,AMNE08.jpg,AMSA03.jpg,MS,2,num_2,16,num_2,1.20007903036,,,2017_Apr_07_1857,60.0139939727,FEMA4ImagesEEG,001,100133,
AFSA25.JPG,AFNE24.JPG,AFSA24.JPG,AFNE21.JPG,AFSA21.JPG,AFNE25.JPG,,,,,,,,,,,,,,,,,,,,,0,6,6,2,,,AMNE18.jpg,AMNE11.jpg,AMSA02.jpg,AMSA03.jpg,AMNE11.jpg,MN,1,num_6,32,num_8,1.23339714995,,,2017_Apr_07_1857,60.0139939727,FEMA4ImagesEEG,001,100133,
AFSA21.JPG,AFNE22.JPG,AFNE21.JPG,AFSA23.JPG,AFSA22.JPG,AFNE23.JPG,,,,,,,,,,,,,,,,,,,,,0,7,7,0,,,AMSA11.jpg,AMNE12.jpg,AMNE04.jpg,AMSA18.jpg,AMNE04.jpg,MN,1,num_2,16,num_2,1.06677608169,,,2017_Apr_07_1857,60.0139939727,FEMA4ImagesEEG,001,100133,
AMNE22.JPG,AMSA24.JPG,AMSA22.JPG,AMNE25.JPG,AMNE24.JPG,AMSA25.JPG,,,,,,,,,,,,,,,,,,,,,0,8,8,7,,,AMSA01.jpg,AMSA14.jpg,AMNE07.jpg,AMNE01.jpg,AMNE07.jpg,MN,1,num_2,32,num_6,1.25007978408,,,2017_Apr_07_1857,60.0139939727,FEMA4ImagesEEG,001,100133,
AFSA21.JPG,AFNE23.JPG,AFNE21.JPG,AFSA25.JPG,AFNE25.JPG,AFSA23.JPG,,,,,,,,,,,,,,,,,,,,,0,9,9,4,,,AMSA17.jpg,AMSA11.jpg,AMNE15.jpg,AMNE16.jpg,AMSA17.jpg,MS,2,num_8,32,num_4,1.00015523797,,,2017_Apr_07_1857,60.0139939727,FEMA4ImagesEEG,001,100133,
,,,,,,,,,,,,,,,,,,,,,,,,,,,,,,,,,,,,,,,,,,,space,22.9646974639,2017_Apr_07_1857,60.0139939727,FEMA4ImagesEEG,001,100133,
AFNE01.JPG,AFNE01.JPG,AFNE01.JPG,AFNE01.JPG,AFNE01.JPG,AFNE01.JPG,0,0,0,7,,,,,,,,,,,,,,,,,,,,,,,AFNE04.jpg,AFSA04.jpg,AFNE14.jpg,AFSA06.jpg,AFNE14.jpg,FN,3,num_2,32,num_4,2.61662849342,,,2017_Apr_07_1857,60.0139939727,FEMA4ImagesEEG,001,100133,
AFNE01.JPG,AFNE01.JPG,AFNE01.JPG,AFNE01.JPG,AFNE01.JPG,AFNE01.JPG,0,1,1,9,,,,,,,,,,,,,,,,,,,,,,,AFNE06.jpg,AFSA09.jpg,AFSA04.jpg,AFNE07.jpg,AFNE06.jpg,FN,3,num_8,16,num_8,0.816774237435,,,2017_Apr_07_1857,60.0139939727,FEMA4ImagesEEG,001,100133,
AFNE01.JPG,AFNE01.JPG,AFNE01.JPG,AFNE01.JPG,AFNE01.JPG,AFNE01.JPG,0,2,2,2,,,,,,,,,,,,,,,,,,,,,,,AFSA04.jpg,AFSA06.jpg,AFNE08.jpg,AFNE17.jpg,AFNE08.jpg,FN,3,num_2,16,num_2,1.6501483582,,,2017_Apr_07_1857,60.0139939727,FEMA4ImagesEEG,001,100133,
AFNE01.JPG,AFNE01.JPG,AFNE01.JPG,AFNE01.JPG,AFNE01.JPG,AFNE01.JPG,0,3,3,4,,,,,,,,,,,,,,,,,,,,,,,AFSA20.jpg,AFNE10.jpg,AFNE07.jpg,AFSA12.jpg,AFNE07.jpg,FN,3,num_2,32,num_8,0.86679327325,,,2017_Apr_07_1857,60.0139939727,FEMA4ImagesEEG,001,100133,
AFNE01.JPG,AFNE01.JPG,AFNE01.JPG,AFNE01.JPG,AFNE01.JPG,AFNE01.JPG,0,4,4,1,,,,,,,,,,,,,,,,,,,,,,,AFNE15.jpg,AFSA16.jpg,AFNE06.jpg,AFSA19.jpg,AFNE15.jpg,FN,3,num_8,16,num_8,0.78349171998,,,2017_Apr_07_1857,60.0139939727,FEMA4ImagesEEG,001,100133,
AFNE01.JPG,AFNE01.JPG,AFNE01.JPG,AFNE01.JPG,AFNE01.JPG,AFNE01.JPG,0,5,5,0,,,,,,,,,,,,,,,,,,,,,,,AFSA17.jpg,AFNE09.jpg,AFSA14.jpg,AFNE11.jpg,AFSA17.jpg,FS,4,num_8,32,num_4,1.58343000966,,,2017_Apr_07_1857,60.0139939727,FEMA4ImagesEEG,001,100133,
AFNE01.JPG,AFNE01.JPG,AFNE01.JPG,AFNE01.JPG,AFNE01.JPG,AFNE01.JPG,0,6,6,5,,,,,,,,,,,,,,,,,,,,,,,AFNE04.jpg,AFSA09.jpg,AFNE16.jpg,AFSA02.jpg,AFSA02.jpg,FS,4,num_4,32,num_6,0.950103165815,,,2017_Apr_07_1857,60.0139939727,FEMA4ImagesEEG,001,100133,
AFNE01.JPG,AFNE01.JPG,AFNE01.JPG,AFNE01.JPG,AFNE01.JPG,AFNE01.JPG,0,7,7,3,,,,,,,,,,,,,,,,,,,,,,,AFSA14.jpg,AFNE18.jpg,AFNE09.jpg,AFSA12.jpg,AFSA14.jpg,FS,4,num_8,32,num_4,0.750142488629,,,2017_Apr_07_1857,60.0139939727,FEMA4ImagesEEG,001,100133,
AFNE01.JPG,AFNE01.JPG,AFNE01.JPG,AFNE01.JPG,AFNE01.JPG,AFNE01.JPG,0,8,8,6,,,,,,,,,,,,,,,,,,,,,,,AFNE18.jpg,AFSA17.jpg,AFSA01.jpg,AFNE06.jpg,AFSA17.jpg,FS,4,num_6,32,num_2,0.916798517341,,,2017_Apr_07_1857,60.0139939727,FEMA4ImagesEEG,001,100133,
AFNE01.JPG,AFNE01.JPG,AFNE01.JPG,AFNE01.JPG,AFNE01.JPG,AFNE01.JPG,0,9,9,8,,,,,,,,,,,,,,,,,,,,,,,AFNE08.jpg,AFNE03.jpg,AFSA11.jpg,AFSA07.jpg,AFSA07.jpg,FS,4,num_4,32,num_2,1.01664863573,,,2017_Apr_07_1857,60.0139939727,FEMA4ImagesEEG,001,100133,
AFNE01.JPG,AFNE01.JPG,AFNE01.JPG,AFNE01.JPG,AFNE01.JPG,AFNE01.JPG,1,0,10,6,,,,,,,,,,,,,,,,,,,,,,,AFSA06.jpg,AFSA09.jpg,AFNE11.jpg,AFNE05.jpg,AFSA09.jpg,FS,4,num_6,32,num_4,1.2003824499,,,2017_Apr_07_1857,60.0139939727,FEMA4ImagesEEG,001,100133,
AFNE01.JPG,AFNE01.JPG,AFNE01.JPG,AFNE01.JPG,AFNE01.JPG,AFNE01.JPG,1,1,11,2,,,,,,,,,,,,,,,,,,,,,,,AFNE08.jpg,AFNE17.jpg,AFSA06.jpg,AFSA18.jpg,AFSA18.jpg,FS,4,num_4,32,num_6,1.30011998885,,,2017_Apr_07_1857,60.0139939727,FEMA4ImagesEEG,001,100133,
AFNE01.JPG,AFNE01.JPG,AFNE01.JPG,AFNE01.JPG,AFNE01.JPG,AFNE01.JPG,1,2,12,7,,,,,,,,,,,,,,,,,,,,,,,AFNE03.jpg,AFSA16.jpg,AFNE12.jpg,AFSA19.jpg,AFNE03.jpg,FN,3,num_8,32,num_4,1.03345443378,,,2017_Apr_07_1857,60.0139939727,FEMA4ImagesEEG,001,100133,
AFNE01.JPG,AFNE01.JPG,AFNE01.JPG,AFNE01.JPG,AFNE01.JPG,AFNE01.JPG,1,3,13,1,,,,,,,,,,,,,,,,,,,,,,,AFSA19.jpg,AFNE14.jpg,AFSA14.jpg,AFNE12.jpg,AFSA14.jpg,FS,4,num_2,32,num_4,0.633507740917,,,2017_Apr_07_1857,60.0139939727,FEMA4ImagesEEG,001,100133,
AFNE01.JPG,AFNE01.JPG,AFNE01.JPG,AFNE01.JPG,AFNE01.JPG,AFNE01.JPG,1,4,14,5,,,,,,,,,,,,,,,,,,,,,,,AFNE10.jpg,AFNE05.jpg,AFSA06.jpg,AFSA09.jpg,AFNE10.jpg,FN,3,num_8,16,num_8,0.900124543346,,,2017_Apr_07_1857,60.0139939727,FEMA4ImagesEEG,001,100133,
AFNE01.JPG,AFNE01.JPG,AFNE01.JPG,AFNE01.JPG,AFNE01.JPG,AFNE01.JPG,1,5,15,9,,,,,,,,,,,,,,,,,,,,,,,AFSA11.jpg,AFSA18.jpg,AFNE08.jpg,AFNE18.jpg,AFSA18.jpg,FS,4,num_6,16,num_6,0.800191994756,,,2017_Apr_07_1857,60.0139939727,FEMA4ImagesEEG,001,100133,
AFNE01.JPG,AFNE01.JPG,AFNE01.JPG,AFNE01.JPG,AFNE01.JPG,AFNE01.JPG,1,6,16,0,,,,,,,,,,,,,,,,,,,,,,,AFSA01.jpg,AFNE09.jpg,AFNE08.jpg,AFSA14.jpg,AFSA01.jpg,FS,4,num_8,16,num_8,0.850132770138,,,2017_Apr_07_1857,60.0139939727,FEMA4ImagesEEG,001,100133,
AFNE01.JPG,AFNE01.JPG,AFNE01.JPG,AFNE01.JPG,AFNE01.JPG,AFNE01.JPG,1,7,17,4,,,,,,,,,,,,,,,,,,,,,,,AFNE07.jpg,AFSA09.jpg,AFSA18.jpg,AFNE09.jpg,AFNE09.jpg,FN,3,num_4,16,num_4,0.983454963192,,,2017_Apr_07_1857,60.0139939727,FEMA4ImagesEEG,001,100133,
AFNE01.JPG,AFNE01.JPG,AFNE01.JPG,AFNE01.JPG,AFNE01.JPG,AFNE01.JPG,1,8,18,8,,,,,,,,,,,,,,,,,,,,,,,AFNE09.jpg,AFSA13.jpg,AFNE12.jpg,AFSA10.jpg,AFNE12.jpg,FN,3,num_2,32,num_6,0.433221192099,,,2017_Apr_07_1857,60.0139939727,FEMA4ImagesEEG,001,100133,
AFNE01.JPG,AFNE01.JPG,AFNE01.JPG,AFNE01.JPG,AFNE01.JPG,AFNE01.JPG,1,9,19,3,,,,,,,,,,,,,,,,,,,,,,,AFSA13.jpg,AFNE03.jpg,AFNE10.jpg,AFSA09.jpg,AFNE10.jpg,FN,3,num_2,32,num_8,1.40007114015,,,2017_Apr_07_1857,60.0139939727,FEMA4ImagesEEG,001,100133,
AFNE01.JPG,AFNE01.JPG,AFNE01.JPG,AFNE01.JPG,AFNE01.JPG,AFNE01.JPG,2,0,20,0,,,,,,,,,,,,,,,,,,,,,,,AFSA19.jpg,AFSA04.jpg,AFNE17.jpg,AFNE05.jpg,AFNE17.jpg,FN,3,num_2,16,num_2,1.35019322974,,,2017_Apr_07_1857,60.0139939727,FEMA4ImagesEEG,001,100133,
AFNE01.JPG,AFNE01.JPG,AFNE01.JPG,AFNE01.JPG,AFNE01.JPG,AFNE01.JPG,2,1,21,3,,,,,,,,,,,,,,,,,,,,,,,AFNE14.jpg,AFSA06.jpg,AFSA11.jpg,AFNE16.jpg,AFSA06.jpg,FS,4,num_6,32,num_2,1.2170269161,,,2017_Apr_07_1857,60.0139939727,FEMA4ImagesEEG,001,100133,
AFNE01.JPG,AFNE01.JPG,AFNE01.JPG,AFNE01.JPG,AFNE01.JPG,AFNE01.JPG,2,2,22,9,,,,,,,,,,,,,,,,,,,,,,,AFNE05.jpg,AFSA01.jpg,AFNE04.jpg,AFSA02.jpg,AFNE05.jpg,FN,3,num_8,32,num_4,1.16677470249,,,2017_Apr_07_1857,60.0139939727,FEMA4ImagesEEG,001,100133,
AFNE01.JPG,AFNE01.JPG,AFNE01.JPG,AFNE01.JPG,AFNE01.JPG,AFNE01.JPG,2,3,23,7,,,,,,,,,,,,,,,,,,,,,,,AFNE15.jpg,AFSA13.jpg,AFSA11.jpg,AFNE19.jpg,AFNE15.jpg,FN,3,num_8,16,num_8,0.933451643679,,,2017_Apr_07_1857,60.0139939727,FEMA4ImagesEEG,001,100133,
AFNE01.JPG,AFNE01.JPG,AFNE01.JPG,AFNE01.JPG,AFNE01.JPG,AFNE01.JPG,2,4,24,8,,,,,,,,,,,,,,,,,,,,,,,AFSA18.jpg,AFNE15.jpg,AFSA08.jpg,AFNE16.jpg,AFNE15.jpg,FN,3,num_6,32,num_2,1.85446436005,,,2017_Apr_07_1857,60.0139939727,FEMA4ImagesEEG,001,100133,
AFNE01.JPG,AFNE01.JPG,AFNE01.JPG,AFNE01.JPG,AFNE01.JPG,AFNE01.JPG,2,5,25,4,,,,,,,,,,,,,,,,,,,,,,,AFSA09.jpg,AFNE08.jpg,AFSA16.jpg,AFNE20.jpg,AFNE08.jpg,FN,3,num_6,32,num_8,0.900101129198,,,2017_Apr_07_1857,60.0139939727,FEMA4ImagesEEG,001,100133,
AFNE01.JPG,AFNE01.JPG,AFNE01.JPG,AFNE01.JPG,AFNE01.JPG,AFNE01.JPG,2,6,26,2,,,,,,,,,,,,,,,,,,,,,,,AFSA20.jpg,AFNE16.jpg,AFSA17.jpg,AFNE12.jpg,AFSA20.jpg,FS,4,num_8,32,num_2,1.36672287108,,,2017_Apr_07_1857,60.0139939727,FEMA4ImagesEEG,001,100133,
AFNE01.JPG,AFNE01.JPG,AFNE01.JPG,AFNE01.JPG,AFNE01.JPG,AFNE01.JPG,2,7,27,6,,,,,,,,,,,,,,,,,,,,,,,AFSA09.jpg,AFNE18.jpg,AFNE01.jpg,AFSA20.jpg,AFSA20.jpg,FS,4,num_4,32,num_8,0.81678738771,,,2017_Apr_07_1857,60.0139939727,FEMA4ImagesEEG,001,100133,
AFNE01.JPG,AFNE01.JPG,AFNE01.JPG,AFNE01.JPG,AFNE01.JPG,AFNE01.JPG,2,8,28,5,,,,,,,,,,,,,,,,,,,,,,,AFSA03.jpg,AFNE13.jpg,AFNE18.jpg,AFSA13.jpg,AFNE13.jpg,FN,3,num_6,32,num_2,1.10012691654,,,2017_Apr_07_1857,60.0139939727,FEMA4ImagesEEG,001,100133,
AFNE01.JPG,AFNE01.JPG,AFNE01.JPG,AFNE01.JPG,AFNE01.JPG,AFNE01.JPG,2,9,29,1,,,,,,,,,,,,,,,,,,,,,,,AFNE09.jpg,AFSA11.jpg,AFSA03.jpg,AFNE10.jpg,AFNE10.jpg,FN,3,num_4,32,num_8,0.900145070627,,,2017_Apr_07_1857,60.0139939727,FEMA4ImagesEEG,001,100133,
AFNE01.JPG,AFNE01.JPG,AFNE01.JPG,AFNE01.JPG,AFNE01.JPG,AFNE01.JPG,3,0,30,2,,,,,,,,,,,,,,,,,,,,,,,AFSA14.jpg,AFNE03.jpg,AFNE05.jpg,AFSA08.jpg,AFNE03.jpg,FN,3,num_6,32,num_2,1.41675345367,,,2017_Apr_07_1857,60.0139939727,FEMA4ImagesEEG,001,100133,
AFNE01.JPG,AFNE01.JPG,AFNE01.JPG,AFNE01.JPG,AFNE01.JPG,AFNE01.JPG,3,1,31,8,,,,,,,,,,,,,,,,,,,,,,,AFNE15.jpg,AFNE11.jpg,AFSA18.jpg,AFSA06.jpg,AFNE11.jpg,FN,3,num_6,32,num_4,0.750155639136,,,2017_Apr_07_1857,60.0139939727,FEMA4ImagesEEG,001,100133,
AFNE01.JPG,AFNE01.JPG,AFNE01.JPG,AFNE01.JPG,AFNE01.JPG,AFNE01.JPG,3,2,32,5,,,,,,,,,,,,,,,,,,,,,,,AFSA06.jpg,AFNE15.jpg,AFNE09.jpg,AFSA18.jpg,AFSA06.jpg,FS,4,num_8,32,num_6,0.466804563301,,,2017_Apr_07_1857,60.0139939727,FEMA4ImagesEEG,001,100133,
AFNE01.JPG,AFNE01.JPG,AFNE01.JPG,AFNE01.JPG,AFNE01.JPG,AFNE01.JPG,3,3,33,1,,,,,,,,,,,,,,,,,,,,,,,AFNE10.jpg,AFSA15.jpg,AFSA07.jpg,AFNE20.jpg,AFSA15.jpg,FS,4,num_6,32,num_2,0.766773162875,,,2017_Apr_07_1857,60.0139939727,FEMA4ImagesEEG,001,100133,
AFNE01.JPG,AFNE01.JPG,AFNE01.JPG,AFNE01.JPG,AFNE01.JPG,AFNE01.JPG,3,4,34,3,,,,,,,,,,,,,,,,,,,,,,,AFNE03.jpg,AFSA15.jpg,AFSA12.jpg,AFNE17.jpg,AFNE17.jpg,FN,3,num_4,32,num_8,1.31674649334,,,2017_Apr_07_1857,60.0139939727,FEMA4ImagesEEG,001,100133,
AFNE01.JPG,AFNE01.JPG,AFNE01.JPG,AFNE01.JPG,AFNE01.JPG,AFNE01.JPG,3,5,35,4,,,,,,,,,,,,,,,,,,,,,,,AFNE14.jpg,AFNE06.jpg,AFSA02.jpg,AFSA19.jpg,AFNE06.jpg,FN,3,num_6,32,num_4,0.900118449237,,,2017_Apr_07_1857,60.0139939727,FEMA4ImagesEEG,001,100133,
AFNE01.JPG,AFNE01.JPG,AFNE01.JPG,AFNE01.JPG,AFNE01.JPG,AFNE01.JPG,3,6,36,6,,,,,,,,,,,,,,,,,,,,,,,AFSA17.jpg,AFSA04.jpg,AFNE17.jpg,AFNE05.jpg,AFNE05.jpg,FN,3,num_4,32,num_8,1.25217934605,,,2017_Apr_07_1857,60.0139939727,FEMA4ImagesEEG,001,100133,
AFNE01.JPG,AFNE01.JPG,AFNE01.JPG,AFNE01.JPG,AFNE01.JPG,AFNE01.JPG,3,7,37,0,,,,,,,,,,,,,,,,,,,,,,,AFSA01.jpg,AFNE02.jpg,AFNE03.jpg,AFSA08.jpg,AFSA01.jpg,FS,4,num_8,32,num_2,0.666804370936,,,2017_Apr_07_1857,60.0139939727,FEMA4ImagesEEG,001,100133,
AFNE01.JPG,AFNE01.JPG,AFNE01.JPG,AFNE01.JPG,AFNE01.JPG,AFNE01.JPG,3,8,38,7,,,,,,,,,,,,,,,,,,,,,,,AFSA03.jpg,AFSA15.jpg,AFNE20.jpg,AFNE16.jpg,AFNE20.jpg,FN,3,num_2,32,num_6,0.516781582264,,,2017_Apr_07_1857,60.0139939727,FEMA4ImagesEEG,001,100133,
AFNE01.JPG,AFNE01.JPG,AFNE01.JPG,AFNE01.JPG,AFNE01.JPG,AFNE01.JPG,3,9,39,9,,,,,,,,,,,,,,,,,,,,,,,AFSA03.jpg,AFNE11.jpg,AFNE02.jpg,AFSA17.jpg,AFSA03.jpg,FS,4,num_8,32,num_4,0.533501101658,,,2017_Apr_07_1857,60.0139939727,FEMA4ImagesEEG,001,100133,
AFNE01.JPG,AFNE01.JPG,AFNE01.JPG,AFNE01.JPG,AFNE01.JPG,AFNE01.JPG,4,0,40,9,,,,,,,,,,,,,,,,,,,,,,,AFNE13.jpg,AFSA02.jpg,AFSA01.jpg,AFNE01.jpg,AFSA02.jpg,FS,4,num_6,32,num_4,2.08310526074,,,2017_Apr_07_1857,60.0139939727,FEMA4ImagesEEG,001,100133,
AFNE01.JPG,AFNE01.JPG,AFNE01.JPG,AFNE01.JPG,AFNE01.JPG,AFNE01.JPG,4,1,41,5,,,,,,,,,,,,,,,,,,,,,,,AFSA16.jpg,AFNE04.jpg,AFSA15.jpg,AFNE17.jpg,AFSA15.jpg,FS,4,num_2,16,num_2,0.966751801549,,,2017_Apr_07_1857,60.0139939727,FEMA4ImagesEEG,001,100133,
AFNE01.JPG,AFNE01.JPG,AFNE01.JPG,AFNE01.JPG,AFNE01.JPG,AFNE01.JPG,4,2,42,8,,,,,,,,,,,,,,,,,,,,,,,AFSA03.jpg,AFNE20.jpg,AFNE10.jpg,AFSA05.jpg,AFNE20.jpg,FN,3,num_6,16,num_6,1.20007069106,,,2017_Apr_07_1857,60.0139939727,FEMA4ImagesEEG,001,100133,
AFNE01.JPG,AFNE01.JPG,AFNE01.JPG,AFNE01.JPG,AFNE01.JPG,AFNE01.JPG,4,3,43,7,,,,,,,,,,,,,,,,,,,,,,,AFNE06.jpg,AFSA12.jpg,AFNE04.jpg,AFSA13.jpg,AFSA12.jpg,FS,4,num_6,16,num_6,0.700429438381,,,2017_Apr_07_1857,60.0139939727,FEMA4ImagesEEG,001,100133,
AFNE01.JPG,AFNE01.JPG,AFNE01.JPG,AFNE01.JPG,AFNE01.JPG,AFNE01.JPG,4,4,44,1,,,,,,,,,,,,,,,,,,,,,,,AFSA05.jpg,AFNE20.jpg,AFSA03.jpg,AFNE13.jpg,AFSA03.jpg,FS,4,num_2,32,num_8,0.850159391528,,,2017_Apr_07_1857,60.0139939727,FEMA4ImagesEEG,001,100133,
AFNE01.JPG,AFNE01.JPG,AFNE01.JPG,AFNE01.JPG,AFNE01.JPG,AFNE01.JPG,4,5,45,4,,,,,,,,,,,,,,,,,,,,,,,AFNE17.jpg,AFSA11.jpg,AFSA01.jpg,AFNE16.jpg,AFSA11.jpg,FS,4,num_6,32,num_4,0.666830671718,,,2017_Apr_07_1857,60.0139939727,FEMA4ImagesEEG,001,100133,
AFNE01.JPG,AFNE01.JPG,AFNE01.JPG,AFNE01.JPG,AFNE01.JPG,AFNE01.JPG,4,6,46,3,,,,,,,,,,,,,,,,,,,,,,,AFSA13.jpg,AFNE07.jpg,AFSA16.jpg,AFNE15.jpg,AFSA16.jpg,FS,4,num_2,16,num_2,0.916776386322,,,2017_Apr_07_1857,60.0139939727,FEMA4ImagesEEG,001,100133,
AFNE01.JPG,AFNE01.JPG,AFNE01.JPG,AFNE01.JPG,AFNE01.JPG,AFNE01.JPG,4,7,47,6,,,,,,,,,,,,,,,,,,,,,,,AFNE09.jpg,AFSA05.jpg,AFSA12.jpg,AFNE10.jpg,AFNE09.jpg,FN,3,num_8,16,num_8,1.18342879089,,,2017_Apr_07_1857,60.0139939727,FEMA4ImagesEEG,001,100133,
AFNE01.JPG,AFNE01.JPG,AFNE01.JPG,AFNE01.JPG,AFNE01.JPG,AFNE01.JPG,4,8,48,0,,,,,,,,,,,,,,,,,,,,,,,AFSA12.jpg,AFNE12.jpg,AFNE14.jpg,AFSA06.jpg,AFSA06.jpg,FS,4,num_4,16,num_4,0.633541418705,,,2017_Apr_07_1857,60.0139939727,FEMA4ImagesEEG,001,100133,
AFNE01.JPG,AFNE01.JPG,AFNE01.JPG,AFNE01.JPG,AFNE01.JPG,AFNE01.JPG,4,9,49,2,,,,,,,,,,,,,,,,,,,,,,,AFNE08.jpg,AFSA01.jpg,AFSA10.jpg,AFNE20.jpg,AFNE20.jpg,FN,3,num_4,32,num_6,1.81669790135,,,2017_Apr_07_1857,60.0139939727,FEMA4ImagesEEG,001,100133,
AFNE01.JPG,AFNE01.JPG,AFNE01.JPG,AFNE01.JPG,AFNE01.JPG,AFNE01.JPG,5,0,50,5,,,,,,,,,,,,,,,,,,,,,,,AFSA08.jpg,AFNE12.jpg,AFSA20.jpg,AFNE13.jpg,AFSA20.jpg,FS,4,num_2,32,num_8,2.46670866199,,,2017_Apr_07_1857,60.0139939727,FEMA4ImagesEEG,001,100133,
AFNE01.JPG,AFNE01.JPG,AFNE01.JPG,AFNE01.JPG,AFNE01.JPG,AFNE01.JPG,5,1,51,2,,,,,,,,,,,,,,,,,,,,,,,AFNE02.jpg,AFNE06.jpg,AFSA16.jpg,AFSA13.jpg,AFSA13.jpg,FS,4,num_4,16,num_4,1.250117952,,,2017_Apr_07_1857,60.0139939727,FEMA4ImagesEEG,001,100133,
AFNE01.JPG,AFNE01.JPG,AFNE01.JPG,AFNE01.JPG,AFNE01.JPG,AFNE01.JPG,5,2,52,3,,,,,,,,,,,,,,,,,,,,,,,AFNE16.jpg,AFNE18.jpg,AFSA07.jpg,AFSA09.jpg,AFNE16.jpg,FN,3,num_8,32,num_6,0.833492473699,,,2017_Apr_07_1857,60.0139939727,FEMA4ImagesEEG,001,100133,
AFNE01.JPG,AFNE01.JPG,AFNE01.JPG,AFNE01.JPG,AFNE01.JPG,AFNE01.JPG,5,3,53,8,,,,,,,,,,,,,,,,,,,,,,,AFSA17.jpg,AFNE11.jpg,AFSA10.jpg,AFNE06.jpg,AFNE11.jpg,FN,3,num_6,32,num_8,0.83336353628,,,2017_Apr_07_1857,60.0139939727,FEMA4ImagesEEG,001,100133,
AFNE01.JPG,AFNE01.JPG,AFNE01.JPG,AFNE01.JPG,AFNE01.JPG,AFNE01.JPG,5,4,54,4,,,,,,,,,,,,,,,,,,,,,,,AFNE13.jpg,AFSA13.jpg,AFNE17.jpg,AFSA03.jpg,AFNE17.jpg,FN,3,num_2,16,num_2,1.10011953977,,,2017_Apr_07_1857,60.0139939727,FEMA4ImagesEEG,001,100133,
AFNE01.JPG,AFNE01.JPG,AFNE01.JPG,AFNE01.JPG,AFNE01.JPG,AFNE01.JPG,5,5,55,6,,,,,,,,,,,,,,,,,,,,,,,AFNE05.jpg,AFSA04.jpg,AFSA16.jpg,AFNE02.jpg,AFNE05.jpg,FN,3,num_8,32,num_4,1.00012284331,,,2017_Apr_07_1857,60.0139939727,FEMA4ImagesEEG,001,100133,
AFNE01.JPG,AFNE01.JPG,AFNE01.JPG,AFNE01.JPG,AFNE01.JPG,AFNE01.JPG,5,6,56,1,,,,,,,,,,,,,,,,,,,,,,,AFSA10.jpg,AFNE10.jpg,AFNE16.jpg,AFSA09.jpg,AFNE10.jpg,FN,3,num_6,16,num_6,2.66666998109,,,2017_Apr_07_1857,60.0139939727,FEMA4ImagesEEG,001,100133,
AFNE01.JPG,AFNE01.JPG,AFNE01.JPG,AFNE01.JPG,AFNE01.JPG,AFNE01.JPG,5,7,57,7,,,,,,,,,,,,,,,,,,,,,,,AFSA08.jpg,AFNE17.jpg,AFNE07.jpg,AFSA05.jpg,AFSA05.jpg,FS,4,num_4,32,num_8,0.833488945616,,,2017_Apr_07_1857,60.0139939727,FEMA4ImagesEEG,001,100133,
AFNE01.JPG,AFNE01.JPG,AFNE01.JPG,AFNE01.JPG,AFNE01.JPG,AFNE01.JPG,5,8,58,9,,,,,,,,,,,,,,,,,,,,,,,AFSA04.jpg,AFNE20.jpg,AFNE07.jpg,AFSA07.jpg,AFSA07.jpg,FS,4,num_4,16,num_4,0.700177016202,,,2017_Apr_07_1857,60.0139939727,FEMA4ImagesEEG,001,100133,
AFNE01.JPG,AFNE01.JPG,AFNE01.JPG,AFNE01.JPG,AFNE01.JPG,AFNE01.JPG,5,9,59,0,,,,,,,,,,,,,,,,,,,,,,,AFNE02.jpg,AFSA19.jpg,AFSA10.jpg,AFNE01.jpg,AFSA10.jpg,FS,4,num_2,32,num_8,1.13351752353,,,2017_Apr_07_1857,60.0139939727,FEMA4ImagesEEG,001,100133,
,,,,,,,,,,,,,,,,,,,,,,,,,,,,,,,,,,,,,,,,,,,space,16.4653913844,2017_Apr_07_1857,60.0139939727,FEMA4ImagesEEG,001,100133,
AFNE01.JPG,AFNE01.JPG,AFNE01.JPG,AFNE01.JPG,AFNE01.JPG,AFNE01.JPG,,,,,0,0,0,7,,,,,,,,,,,,,,,,,,,AMSA11.jpg,AMNE14.jpg,AMNE17.jpg,AMSA13.jpg,AMSA13.jpg,MS,2,num_4,32,num_6,0.683478024323,,,2017_Apr_07_1857,60.0139939727,FEMA4ImagesEEG,001,100133,
AFNE01.JPG,AFNE01.JPG,AFNE01.JPG,AFNE01.JPG,AFNE01.JPG,AFNE01.JPG,,,,,0,1,1,1,,,,,,,,,,,,,,,,,,,AMSA02.jpg,AMSA18.jpg,AMNE18.jpg,AMNE17.jpg,AMNE18.jpg,MN,1,num_2,32,num_8,0.800124318805,,,2017_Apr_07_1857,60.0139939727,FEMA4ImagesEEG,001,100133,
AFNE01.JPG,AFNE01.JPG,AFNE01.JPG,AFNE01.JPG,AFNE01.JPG,AFNE01.JPG,,,,,0,2,2,6,,,,,,,,,,,,,,,,,,,AMNE15.jpg,AMSA01.jpg,AMNE18.jpg,AMSA07.jpg,AMSA07.jpg,MS,2,num_4,32,num_2,0.833486700198,,,2017_Apr_07_1857,60.0139939727,FEMA4ImagesEEG,001,100133,
AFNE01.JPG,AFNE01.JPG,AFNE01.JPG,AFNE01.JPG,AFNE01.JPG,AFNE01.JPG,,,,,0,3,3,4,,,,,,,,,,,,,,,,,,,AMNE12.jpg,AMSA05.jpg,AMSA12.jpg,AMNE06.jpg,AMSA05.jpg,MS,2,num_6,32,num_8,0.816802462563,,,2017_Apr_07_1857,60.0139939727,FEMA4ImagesEEG,001,100133,
AFNE01.JPG,AFNE01.JPG,AFNE01.JPG,AFNE01.JPG,AFNE01.JPG,AFNE01.JPG,,,,,0,4,4,0,,,,,,,,,,,,,,,,,,,AMSA17.jpg,AMNE08.jpg,AMNE13.jpg,AMSA06.jpg,AMNE13.jpg,MN,1,num_2,32,num_4,0.71678684256,,,2017_Apr_07_1857,60.0139939727,FEMA4ImagesEEG,001,100133,
AFNE01.JPG,AFNE01.JPG,AFNE01.JPG,AFNE01.JPG,AFNE01.JPG,AFNE01.JPG,,,,,0,5,5,2,,,,,,,,,,,,,,,,,,,AMSA10.jpg,AMSA15.jpg,AMNE03.jpg,AMNE09.jpg,AMSA15.jpg,MS,2,num_6,16,num_6,0.616790466942,,,2017_Apr_07_1857,60.0139939727,FEMA4ImagesEEG,001,100133,
AFNE01.JPG,AFNE01.JPG,AFNE01.JPG,AFNE01.JPG,AFNE01.JPG,AFNE01.JPG,,,,,0,6,6,3,,,,,,,,,,,,,,,,,,,AMNE06.jpg,AMSA13.jpg,AMSA17.jpg,AMNE05.jpg,AMNE06.jpg,MN,1,num_8,16,num_8,0.83349151141,,,2017_Apr_07_1857,60.0139939727,FEMA4ImagesEEG,001,100133,
AFNE01.JPG,AFNE01.JPG,AFNE01.JPG,AFNE01.JPG,AFNE01.JPG,AFNE01.JPG,,,,,0,7,7,5,,,,,,,,,,,,,,,,,,,AMNE02.jpg,AMSA11.jpg,AMNE09.jpg,AMSA02.jpg,AMSA11.jpg,MS,2,num_6,32,num_2,3.366588481,,,2017_Apr_07_1857,60.0139939727,FEMA4ImagesEEG,001,100133,
AFNE01.JPG,AFNE01.JPG,AFNE01.JPG,AFNE01.JPG,AFNE01.JPG,AFNE01.JPG,,,,,0,8,8,8,,,,,,,,,,,,,,,,,,,AMSA12.jpg,AMNE05.jpg,AMNE07.jpg,AMSA17.jpg,AMNE05.jpg,MN,1,num_6,32,num_8,0.71681314311,,,2017_Apr_07_1857,60.0139939727,FEMA4ImagesEEG,001,100133,
AFNE01.JPG,AFNE01.JPG,AFNE01.JPG,AFNE01.JPG,AFNE01.JPG,AFNE01.JPG,,,,,0,9,9,9,,,,,,,,,,,,,,,,,,,AMSA19.jpg,AMSA12.jpg,AMNE07.jpg,AMNE16.jpg,AMNE07.jpg,MN,1,num_2,32,num_6,0.800076207612,,,2017_Apr_07_1857,60.0139939727,FEMA4ImagesEEG,001,100133,
AFNE01.JPG,AFNE01.JPG,AFNE01.JPG,AFNE01.JPG,AFNE01.JPG,AFNE01.JPG,,,,,1,0,10,5,,,,,,,,,,,,,,,,,,,AMNE07.jpg,AMSA03.jpg,AMSA12.jpg,AMNE18.jpg,AMSA12.jpg,MS,2,num_2,32,num_8,3.23331664409,,,2017_Apr_07_1857,60.0139939727,FEMA4ImagesEEG,001,100133,
AFNE01.JPG,AFNE01.JPG,AFNE01.JPG,AFNE01.JPG,AFNE01.JPG,AFNE01.JPG,,,,,1,1,11,7,,,,,,,,,,,,,,,,,,,AMSA10.jpg,AMNE07.jpg,AMSA14.jpg,AMNE05.jpg,AMSA14.jpg,MS,2,num_2,32,num_6,4.03325525462,,,2017_Apr_07_1857,60.0139939727,FEMA4ImagesEEG,001,100133,
AFNE01.JPG,AFNE01.JPG,AFNE01.JPG,AFNE01.JPG,AFNE01.JPG,AFNE01.JPG,,,,,1,2,12,9,,,,,,,,,,,,,,,,,,,AMNE05.jpg,AMSA16.jpg,AMSA05.jpg,AMNE06.jpg,AMNE06.jpg,MN,1,num_4,32,num_2,0.533491158858,,,2017_Apr_07_1857,60.0139939727,FEMA4ImagesEEG,001,100133,
AFNE01.JPG,AFNE01.JPG,AFNE01.JPG,AFNE01.JPG,AFNE01.JPG,AFNE01.JPG,,,,,1,3,13,0,,,,,,,,,,,,,,,,,,,AMSA14.jpg,AMNE07.jpg,AMNE15.jpg,AMSA04.jpg,AMSA04.jpg,MS,2,num_4,16,num_4,1.18344771466,,,2017_Apr_07_1857,60.0139939727,FEMA4ImagesEEG,001,100133,
AFNE01.JPG,AFNE01.JPG,AFNE01.JPG,AFNE01.JPG,AFNE01.JPG,AFNE01.JPG,,,,,1,4,14,8,,,,,,,,,,,,,,,,,,,AMSA02.jpg,AMNE09.jpg,AMNE20.jpg,AMSA17.jpg,AMSA02.jpg,MS,2,num_8,16,num_8,1.16676892922,,,2017_Apr_07_1857,60.0139939727,FEMA4ImagesEEG,001,100133,
AFNE01.JPG,AFNE01.JPG,AFNE01.JPG,AFNE01.JPG,AFNE01.JPG,AFNE01.JPG,,,,,1,5,15,4,,,,,,,,,,,,,,,,,,,AMSA12.jpg,AMSA11.jpg,AMNE13.jpg,AMNE18.jpg,AMSA12.jpg,MS,2,num_8,32,num_6,0.700132433325,,,2017_Apr_07_1857,60.0139939727,FEMA4ImagesEEG,001,100133,
AFNE01.JPG,AFNE01.JPG,AFNE01.JPG,AFNE01.JPG,AFNE01.JPG,AFNE01.JPG,,,,,1,6,16,6,,,,,,,,,,,,,,,,,,,AMNE11.jpg,AMNE12.jpg,AMSA20.jpg,AMSA05.jpg,AMSA05.jpg,MS,2,num_4,32,num_2,1.10005218443,,,2017_Apr_07_1857,60.0139939727,FEMA4ImagesEEG,001,100133,
AFNE01.JPG,AFNE01.JPG,AFNE01.JPG,AFNE01.JPG,AFNE01.JPG,AFNE01.JPG,,,,,1,7,17,2,,,,,,,,,,,,,,,,,,,AMNE16.jpg,AMNE03.jpg,AMSA05.jpg,AMSA06.jpg,AMSA05.jpg,MS,2,num_2,16,num_2,0.683478986612,,,2017_Apr_07_1857,60.0139939727,FEMA4ImagesEEG,001,100133,
AFNE01.JPG,AFNE01.JPG,AFNE01.JPG,AFNE01.JPG,AFNE01.JPG,AFNE01.JPG,,,,,1,8,18,3,,,,,,,,,,,,,,,,,,,AMSA17.jpg,AMNE05.jpg,AMNE17.jpg,AMSA12.jpg,AMSA12.jpg,MS,2,num_4,16,num_4,0.866787820822,,,2017_Apr_07_1857,60.0139939727,FEMA4ImagesEEG,001,100133,
AFNE01.JPG,AFNE01.JPG,AFNE01.JPG,AFNE01.JPG,AFNE01.JPG,AFNE01.JPG,,,,,1,9,19,1,,,,,,,,,,,,,,,,,,,AMSA02.jpg,AMNE11.jpg,AMSA20.jpg,AMNE07.jpg,AMSA02.jpg,MS,2,num_8,32,num_6,0.750155318063,,,2017_Apr_07_1857,60.0139939727,FEMA4ImagesEEG,001,100133,
AFNE01.JPG,AFNE01.JPG,AFNE01.JPG,AFNE01.JPG,AFNE01.JPG,AFNE01.JPG,,,,,2,0,20,6,,,,,,,,,,,,,,,,,,,AMSA19.jpg,AMNE13.jpg,AMSA15.jpg,AMNE04.jpg,AMSA15.jpg,MS,2,num_2,16,num_2,0.400164796039,,,2017_Apr_07_1857,60.0139939727,FEMA4ImagesEEG,001,100133,
AFNE01.JPG,AFNE01.JPG,AFNE01.JPG,AFNE01.JPG,AFNE01.JPG,AFNE01.JPG,,,,,2,1,21,3,,,,,,,,,,,,,,,,,,,AMNE17.jpg,AMSA05.jpg,AMSA20.jpg,AMNE08.jpg,AMSA20.jpg,MS,2,num_2,32,num_8,0.583471385064,,,2017_Apr_07_1857,60.0139939727,FEMA4ImagesEEG,001,100133,
AFNE01.JPG,AFNE01.JPG,AFNE01.JPG,AFNE01.JPG,AFNE01.JPG,AFNE01.JPG,,,,,2,2,22,4,,,,,,,,,,,,,,,,,,,AMNE02.jpg,AMSA01.jpg,AMNE18.jpg,AMSA18.jpg,AMNE18.jpg,MN,1,num_2,32,num_4,0.566819862695,,,2017_Apr_07_1857,60.0139939727,FEMA4ImagesEEG,001,100133,
AFNE01.JPG,AFNE01.JPG,AFNE01.JPG,AFNE01.JPG,AFNE01.JPG,AFNE01.JPG,,,,,2,3,23,8,,,,,,,,,,,,,,,,,,,AMSA17.jpg,AMNE06.jpg,AMNE17.jpg,AMSA02.jpg,AMNE17.jpg,MN,1,num_2,32,num_6,0.783353160368,,,2017_Apr_07_1857,60.0139939727,FEMA4ImagesEEG,001,100133,
AFNE01.JPG,AFNE01.JPG,AFNE01.JPG,AFNE01.JPG,AFNE01.JPG,AFNE01.JPG,,,,,2,4,24,9,,,,,,,,,,,,,,,,,,,AMNE11.jpg,AMSA04.jpg,AMNE13.jpg,AMSA06.jpg,AMNE11.jpg,MN,1,num_8,32,num_4,0.883425230393,,,2017_Apr_07_1857,60.0139939727,FEMA4ImagesEEG,001,100133,
AFNE01.JPG,AFNE01.JPG,AFNE01.JPG,AFNE01.JPG,AFNE01.JPG,AFNE01.JPG,,,,,2,5,25,7,,,,,,,,,,,,,,,,,,,AMSA05.jpg,AMNE07.jpg,AMNE10.jpg,AMSA19.jpg,AMNE07.jpg,MN,1,num_6,16,num_6,0.550159359351,,,2017_Apr_07_1857,60.0139939727,FEMA4ImagesEEG,001,100133,
AFNE01.JPG,AFNE01.JPG,AFNE01.JPG,AFNE01.JPG,AFNE01.JPG,AFNE01.JPG,,,,,2,6,26,5,,,,,,,,,,,,,,,,,,,AMSA07.jpg,AMNE19.jpg,AMSA17.jpg,AMNE12.jpg,AMNE19.jpg,MN,1,num_6,32,num_2,0.833403949626,,,2017_Apr_07_1857,60.0139939727,FEMA4ImagesEEG,001,100133,
AFNE01.JPG,AFNE01.JPG,AFNE01.JPG,AFNE01.JPG,AFNE01.JPG,AFNE01.JPG,,,,,2,7,27,2,,,,,,,,,,,,,,,,,,,AMNE05.jpg,AMNE14.jpg,AMSA15.jpg,AMSA02.jpg,AMNE14.jpg,MN,1,num_6,16,num_6,0.650135528762,,,2017_Apr_07_1857,60.0139939727,FEMA4ImagesEEG,001,100133,
AFNE01.JPG,AFNE01.JPG,AFNE01.JPG,AFNE01.JPG,AFNE01.JPG,AFNE01.JPG,,,,,2,8,28,0,,,,,,,,,,,,,,,,,,,AMSA17.jpg,AMSA19.jpg,AMNE20.jpg,AMNE12.jpg,AMNE20.jpg,MN,1,num_2,32,num_8,0.783499096986,,,2017_Apr_07_1857,60.0139939727,FEMA4ImagesEEG,001,100133,
AFNE01.JPG,AFNE01.JPG,AFNE01.JPG,AFNE01.JPG,AFNE01.JPG,AFNE01.JPG,,,,,2,9,29,1,,,,,,,,,,,,,,,,,,,AMSA14.jpg,AMNE12.jpg,AMSA09.jpg,AMNE03.jpg,AMNE12.jpg,MN,1,num_6,32,num_4,1.25011506537,,,2017_Apr_07_1857,60.0139939727,FEMA4ImagesEEG,001,100133,
AFNE01.JPG,AFNE01.JPG,AFNE01.JPG,AFNE01.JPG,AFNE01.JPG,AFNE01.JPG,,,,,3,0,30,7,,,,,,,,,,,,,,,,,,,AMSA06.jpg,AMNE07.jpg,AMNE17.jpg,AMSA16.jpg,AMSA16.jpg,MS,2,num_4,16,num_4,0.766663149232,,,2017_Apr_07_1857,60.0139939727,FEMA4ImagesEEG,001,100133,
AFNE01.JPG,AFNE01.JPG,AFNE01.JPG,AFNE01.JPG,AFNE01.JPG,AFNE01.JPG,,,,,3,1,31,8,,,,,,,,,,,,,,,,,,,AMSA03.jpg,AMSA05.jpg,AMNE04.jpg,AMNE01.jpg,AMNE01.jpg,MN,1,num_4,32,num_8,0.550187584711,,,2017_Apr_07_1857,60.0139939727,FEMA4ImagesEEG,001,100133,
AFNE01.JPG,AFNE01.JPG,AFNE01.JPG,AFNE01.JPG,AFNE01.JPG,AFNE01.JPG,,,,,3,2,32,5,,,,,,,,,,,,,,,,,,,AMSA07.jpg,AMNE05.jpg,AMSA11.jpg,AMNE17.jpg,AMNE05.jpg,MN,1,num_6,16,num_6,1.66671071504,,,2017_Apr_07_1857,60.0139939727,FEMA4ImagesEEG,001,100133,
AFNE01.JPG,AFNE01.JPG,AFNE01.JPG,AFNE01.JPG,AFNE01.JPG,AFNE01.JPG,,,,,3,3,33,1,,,,,,,,,,,,,,,,,,,AMNE19.jpg,AMSA14.jpg,AMNE16.jpg,AMSA13.jpg,AMNE16.jpg,MN,1,num_2,32,num_8,2.36667796737,,,2017_Apr_07_1857,60.0139939727,FEMA4ImagesEEG,001,100133,
AFNE01.JPG,AFNE01.JPG,AFNE01.JPG,AFNE01.JPG,AFNE01.JPG,AFNE01.JPG,,,,,3,4,34,0,,,,,,,,,,,,,,,,,,,AMNE02.jpg,AMSA17.jpg,AMSA19.jpg,AMNE15.jpg,AMNE02.jpg,MN,1,num_8,32,num_4,1.10006950423,,,2017_Apr_07_1857,60.0139939727,FEMA4ImagesEEG,001,100133,
AFNE01.JPG,AFNE01.JPG,AFNE01.JPG,AFNE01.JPG,AFNE01.JPG,AFNE01.JPG,,,,,3,5,35,3,,,,,,,,,,,,,,,,,,,AMNE01.jpg,AMSA01.jpg,AMSA19.jpg,AMNE11.jpg,AMNE11.jpg,MN,1,num_4,32,num_6,0.766780860722,,,2017_Apr_07_1857,60.0139939727,FEMA4ImagesEEG,001,100133,
AFNE01.JPG,AFNE01.JPG,AFNE01.JPG,AFNE01.JPG,AFNE01.JPG,AFNE01.JPG,,,,,3,6,36,2,,,,,,,,,,,,,,,,,,,AMSA02.jpg,AMNE18.jpg,AMNE11.jpg,AMSA12.jpg,AMNE11.jpg,MN,1,num_2,32,num_6,1.33339673281,,,2017_Apr_07_1857,60.0139939727,FEMA4ImagesEEG,001,100133,
AFNE01.JPG,AFNE01.JPG,AFNE01.JPG,AFNE01.JPG,AFNE01.JPG,AFNE01.JPG,,,,,3,7,37,9,,,,,,,,,,,,,,,,,,,AMNE14.jpg,AMNE03.jpg,AMSA13.jpg,AMSA06.jpg,AMNE14.jpg,MN,1,num_8,32,num_4,0.966783234151,,,2017_Apr_07_1857,60.0139939727,FEMA4ImagesEEG,001,100133,
AFNE01.JPG,AFNE01.JPG,AFNE01.JPG,AFNE01.JPG,AFNE01.JPG,AFNE01.JPG,,,,,3,8,38,4,,,,,,,,,,,,,,,,,,,AMNE19.jpg,AMSA11.jpg,AMNE17.jpg,AMSA02.jpg,AMNE17.jpg,MN,1,num_2,32,num_6,1.70009009587,,,2017_Apr_07_1857,60.0139939727,FEMA4ImagesEEG,001,100133,
AFNE01.JPG,AFNE01.JPG,AFNE01.JPG,AFNE01.JPG,AFNE01.JPG,AFNE01.JPG,,,,,3,9,39,6,,,,,,,,,,,,,,,,,,,AMNE07.jpg,AMNE04.jpg,AMSA08.jpg,AMSA10.jpg,AMSA08.jpg,MS,2,num_2,32,num_8,3.01660373225,,,2017_Apr_07_1857,60.0139939727,FEMA4ImagesEEG,001,100133,
AFNE01.JPG,AFNE01.JPG,AFNE01.JPG,AFNE01.JPG,AFNE01.JPG,AFNE01.JPG,,,,,4,0,40,4,,,,,,,,,,,,,,,,,,,AMSA04.jpg,AMSA13.jpg,AMNE10.jpg,AMNE18.jpg,AMSA04.jpg,MS,2,num_8,32,num_2,1.30014789291,,,2017_Apr_07_1857,60.0139939727,FEMA4ImagesEEG,001,100133,
AFNE01.JPG,AFNE01.JPG,AFNE01.JPG,AFNE01.JPG,AFNE01.JPG,AFNE01.JPG,,,,,4,1,41,8,,,,,,,,,,,,,,,,,,,AMSA06.jpg,AMNE18.jpg,AMSA19.jpg,AMNE07.jpg,AMSA06.jpg,MS,2,num_8,32,num_2,0.800130733522,,,2017_Apr_07_1857,60.0139939727,FEMA4ImagesEEG,001,100133,
AFNE01.JPG,AFNE01.JPG,AFNE01.JPG,AFNE01.JPG,AFNE01.JPG,AFNE01.JPG,,,,,4,2,42,6,,,,,,,,,,,,,,,,,,,AMNE09.jpg,AMNE12.jpg,AMSA15.jpg,AMSA03.jpg,AMNE09.jpg,MN,1,num_8,32,num_4,0.933434644481,,,2017_Apr_07_1857,60.0139939727,FEMA4ImagesEEG,001,100133,
AFNE01.JPG,AFNE01.JPG,AFNE01.JPG,AFNE01.JPG,AFNE01.JPG,AFNE01.JPG,,,,,4,3,43,3,,,,,,,,,,,,,,,,,,,AMNE15.jpg,AMSA11.jpg,AMSA01.jpg,AMNE10.jpg,AMSA01.jpg,MS,2,num_2,32,num_6,0.48352632788,,,2017_Apr_07_1857,60.0139939727,FEMA4ImagesEEG,001,100133,
AFNE01.JPG,AFNE01.JPG,AFNE01.JPG,AFNE01.JPG,AFNE01.JPG,AFNE01.JPG,,,,,4,4,44,9,,,,,,,,,,,,,,,,,,,AMSA19.jpg,AMSA17.jpg,AMNE13.jpg,AMNE10.jpg,AMSA19.jpg,MS,2,num_8,32,num_2,0.883426834363,,,2017_Apr_07_1857,60.0139939727,FEMA4ImagesEEG,001,100133,
AFNE01.JPG,AFNE01.JPG,AFNE01.JPG,AFNE01.JPG,AFNE01.JPG,AFNE01.JPG,,,,,4,5,45,0,,,,,,,,,,,,,,,,,,,AMNE15.jpg,AMNE10.jpg,AMSA20.jpg,AMSA07.jpg,AMSA07.jpg,MS,2,num_4,16,num_4,0.600158188958,,,2017_Apr_07_1857,60.0139939727,FEMA4ImagesEEG,001,100133,
AFNE01.JPG,AFNE01.JPG,AFNE01.JPG,AFNE01.JPG,AFNE01.JPG,AFNE01.JPG,,,,,4,6,46,1,,,,,,,,,,,,,,,,,,,AMSA02.jpg,AMSA01.jpg,AMNE10.jpg,AMNE14.jpg,AMNE14.jpg,MN,1,num_4,16,num_4,1.21666993271,,,2017_Apr_07_1857,60.0139939727,FEMA4ImagesEEG,001,100133,
AFNE01.JPG,AFNE01.JPG,AFNE01.JPG,AFNE01.JPG,AFNE01.JPG,AFNE01.JPG,,,,,4,7,47,7,,,,,,,,,,,,,,,,,,,AMSA03.jpg,AMNE08.jpg,AMSA05.jpg,AMNE03.jpg,AMSA05.jpg,MS,2,num_2,32,num_6,0.716774654342,,,2017_Apr_07_1857,60.0139939727,FEMA4ImagesEEG,001,100133,
AFNE01.JPG,AFNE01.JPG,AFNE01.JPG,AFNE01.JPG,AFNE01.JPG,AFNE01.JPG,,,,,4,8,48,5,,,,,,,,,,,,,,,,,,,AMSA05.jpg,AMSA01.jpg,AMNE18.jpg,AMNE16.jpg,AMNE18.jpg,MN,1,num_2,32,num_4,1.06680623116,,,2017_Apr_07_1857,60.0139939727,FEMA4ImagesEEG,001,100133,
AFNE01.JPG,AFNE01.JPG,AFNE01.JPG,AFNE01.JPG,AFNE01.JPG,AFNE01.JPG,,,,,4,9,49,2,,,,,,,,,,,,,,,,,,,AMSA16.jpg,AMSA02.jpg,AMNE10.jpg,AMNE08.jpg,AMNE10.jpg,MN,1,num_2,32,num_6,0.616773146903,,,2017_Apr_07_1857,60.0139939727,FEMA4ImagesEEG,001,100133,
AFNE01.JPG,AFNE01.JPG,AFNE01.JPG,AFNE01.JPG,AFNE01.JPG,AFNE01.JPG,,,,,5,0,50,1,,,,,,,,,,,,,,,,,,,AMNE06.jpg,AMNE01.jpg,AMSA14.jpg,AMSA01.jpg,AMSA14.jpg,MS,2,num_2,16,num_2,2.26669827034,,,2017_Apr_07_1857,60.0139939727,FEMA4ImagesEEG,001,100133,
AFNE01.JPG,AFNE01.JPG,AFNE01.JPG,AFNE01.JPG,AFNE01.JPG,AFNE01.JPG,,,,,5,1,51,3,,,,,,,,,,,,,,,,,,,AMSA12.jpg,AMSA05.jpg,AMNE20.jpg,AMNE05.jpg,AMSA05.jpg,MS,2,num_6,32,num_2,3.34962103004,,,2017_Apr_07_1857,60.0139939727,FEMA4ImagesEEG,001,100133,
AFNE01.JPG,AFNE01.JPG,AFNE01.JPG,AFNE01.JPG,AFNE01.JPG,AFNE01.JPG,,,,,5,2,52,2,,,,,,,,,,,,,,,,,,,AMSA14.jpg,AMNE08.jpg,AMSA18.jpg,AMNE01.jpg,AMNE08.jpg,MN,1,num_6,32,num_4,1.60006549512,,,2017_Apr_07_1857,60.0139939727,FEMA4ImagesEEG,001,100133,
AFNE01.JPG,AFNE01.JPG,AFNE01.JPG,AFNE01.JPG,AFNE01.JPG,AFNE01.JPG,,,,,5,3,53,6,,,,,,,,,,,,,,,,,,,AMSA06.jpg,AMNE11.jpg,AMSA04.jpg,AMNE09.jpg,AMNE09.jpg,MN,1,num_4,16,num_4,0.433503443142,,,2017_Apr_07_1857,60.0139939727,FEMA4ImagesEEG,001,100133,
AFNE01.JPG,AFNE01.JPG,AFNE01.JPG,AFNE01.JPG,AFNE01.JPG,AFNE01.JPG,,,,,5,4,54,4,,,,,,,,,,,,,,,,,,,AMNE02.jpg,AMNE04.jpg,AMSA07.jpg,AMSA01.jpg,AMNE04.jpg,MN,1,num_6,48,None,,,,2017_Apr_07_1857,60.0139939727,FEMA4ImagesEEG,001,100133,
AFNE01.JPG,AFNE01.JPG,AFNE01.JPG,AFNE01.JPG,AFNE01.JPG,AFNE01.JPG,,,,,5,5,55,8,,,,,,,,,,,,,,,,,,,AMNE03.jpg,AMNE05.jpg,AMSA18.jpg,AMSA09.jpg,AMNE05.jpg,MN,1,num_6,16,num_6,1.28343831678,,,2017_Apr_07_1857,60.0139939727,FEMA4ImagesEEG,001,100133,
AFNE01.JPG,AFNE01.JPG,AFNE01.JPG,AFNE01.JPG,AFNE01.JPG,AFNE01.JPG,,,,,5,6,56,0,,,,,,,,,,,,,,,,,,,AMSA10.jpg,AMNE09.jpg,AMSA20.jpg,AMNE08.jpg,AMNE08.jpg,MN,1,num_4,32,num_2,1.26676690835,,,2017_Apr_07_1857,60.0139939727,FEMA4ImagesEEG,001,100133,
AFNE01.JPG,AFNE01.JPG,AFNE01.JPG,AFNE01.JPG,AFNE01.JPG,AFNE01.JPG,,,,,5,7,57,7,,,,,,,,,,,,,,,,,,,AMSA14.jpg,AMSA19.jpg,AMNE10.jpg,AMNE19.jpg,AMSA19.jpg,MS,2,num_6,32,num_8,0.766799142817,,,2017_Apr_07_1857,60.0139939727,FEMA4ImagesEEG,001,100133,
AFNE01.JPG,AFNE01.JPG,AFNE01.JPG,AFNE01.JPG,AFNE01.JPG,AFNE01.JPG,,,,,5,8,58,9,,,,,,,,,,,,,,,,,,,AMSA07.jpg,AMNE11.jpg,AMNE20.jpg,AMSA08.jpg,AMNE20.jpg,MN,1,num_2,16,num_2,0.850141109433,,,2017_Apr_07_1857,60.0139939727,FEMA4ImagesEEG,001,100133,
AFNE01.JPG,AFNE01.JPG,AFNE01.JPG,AFNE01.JPG,AFNE01.JPG,AFNE01.JPG,,,,,5,9,59,5,,,,,,,,,,,,,,,,,,,AMNE20.jpg,AMNE03.jpg,AMSA07.jpg,AMSA16.jpg,AMSA16.jpg,MS,2,num_4,32,num_2,0.650083248038,,,2017_Apr_07_1857,60.0139939727,FEMA4ImagesEEG,001,100133,
,,,,,,,,,,,,,,,,,,,,,,,,,,,,,,,,,,,,,,,,,,,space,11.632308495,2017_Apr_07_1857,60.0139939727,FEMA4ImagesEEG,001,100133,
AFNE01.JPG,AFNE01.JPG,AFNE01.JPG,AFNE01.JPG,AFNE01.JPG,AFNE01.JPG,,,,,,,,,0,0,0,8,,,,,,,,,,,,,,,AFNE17.jpg,AFSA01.jpg,AFNE20.jpg,AFSA10.jpg,AFNE20.jpg,FN,3,num_2,32,num_8,1.18345605372,,,2017_Apr_07_1857,60.0139939727,FEMA4ImagesEEG,001,100133,
AFNE01.JPG,AFNE01.JPG,AFNE01.JPG,AFNE01.JPG,AFNE01.JPG,AFNE01.JPG,,,,,,,,,0,1,1,4,,,,,,,,,,,,,,,AFNE07.jpg,AFNE20.jpg,AFSA03.jpg,AFSA06.jpg,AFNE07.jpg,FN,3,num_8,32,num_4,0.89992440166,,,2017_Apr_07_1857,60.0139939727,FEMA4ImagesEEG,001,100133,
AFNE01.JPG,AFNE01.JPG,AFNE01.JPG,AFNE01.JPG,AFNE01.JPG,AFNE01.JPG,,,,,,,,,0,2,2,3,,,,,,,,,,,,,,,AFNE08.jpg,AFNE19.jpg,AFSA13.jpg,AFSA06.jpg,AFSA06.jpg,FS,4,num_4,16,num_4,0.766795294126,,,2017_Apr_07_1857,60.0139939727,FEMA4ImagesEEG,001,100133,
AFNE01.JPG,AFNE01.JPG,AFNE01.JPG,AFNE01.JPG,AFNE01.JPG,AFNE01.JPG,,,,,,,,,0,3,3,1,,,,,,,,,,,,,,,AFNE10.jpg,AFSA02.jpg,AFNE02.jpg,AFSA07.jpg,AFNE10.jpg,FN,3,num_8,32,num_6,0.883502208162,,,2017_Apr_07_1857,60.0139939727,FEMA4ImagesEEG,001,100133,
AFNE01.JPG,AFNE01.JPG,AFNE01.JPG,AFNE01.JPG,AFNE01.JPG,AFNE01.JPG,,,,,,,,,0,4,4,0,,,,,,,,,,,,,,,AFSA09.jpg,AFNE15.jpg,AFNE10.jpg,AFSA19.jpg,AFNE10.jpg,FN,3,num_2,32,num_6,0.70014045178,,,2017_Apr_07_1857,60.0139939727,FEMA4ImagesEEG,001,100133,
AFNE01.JPG,AFNE01.JPG,AFNE01.JPG,AFNE01.JPG,AFNE01.JPG,AFNE01.JPG,,,,,,,,,0,5,5,5,,,,,,,,,,,,,,,AFSA16.jpg,AFNE11.jpg,AFNE10.jpg,AFSA11.jpg,AFSA11.jpg,FS,4,num_4,32,num_6,1.15012221783,,,2017_Apr_07_1857,60.0139939727,FEMA4ImagesEEG,001,100133,
AFNE01.JPG,AFNE01.JPG,AFNE01.JPG,AFNE01.JPG,AFNE01.JPG,AFNE01.JPG,,,,,,,,,0,6,6,9,,,,,,,,,,,,,,,AFNE10.jpg,AFNE12.jpg,AFSA02.jpg,AFSA01.jpg,AFNE12.jpg,FN,3,num_6,32,num_4,0.98331736587,,,2017_Apr_07_1857,60.0139939727,FEMA4ImagesEEG,001,100133,
AFNE01.JPG,AFNE01.JPG,AFNE01.JPG,AFNE01.JPG,AFNE01.JPG,AFNE01.JPG,,,,,,,,,0,7,7,6,,,,,,,,,,,,,,,AFNE09.jpg,AFNE08.jpg,AFSA17.jpg,AFSA02.jpg,AFNE08.jpg,FN,3,num_6,32,num_2,1.7000916996,,,2017_Apr_07_1857,60.0139939727,FEMA4ImagesEEG,001,100133,
AFNE01.JPG,AFNE01.JPG,AFNE01.JPG,AFNE01.JPG,AFNE01.JPG,AFNE01.JPG,,,,,,,,,0,8,8,7,,,,,,,,,,,,,,,AFSA07.jpg,AFNE15.jpg,AFNE09.jpg,AFSA05.jpg,AFSA05.jpg,FS,4,num_4,32,num_8,0.783477286808,,,2017_Apr_07_1857,60.0139939727,FEMA4ImagesEEG,001,100133,
AFNE01.JPG,AFNE01.JPG,AFNE01.JPG,AFNE01.JPG,AFNE01.JPG,AFNE01.JPG,,,,,,,,,0,9,9,2,,,,,,,,,,,,,,,AFSA18.jpg,AFSA11.jpg,AFNE16.jpg,AFNE07.jpg,AFNE07.jpg,FN,3,num_4,32,num_6,0.716778823873,,,2017_Apr_07_1857,60.0139939727,FEMA4ImagesEEG,001,100133,
AFNE01.JPG,AFNE01.JPG,AFNE01.JPG,AFNE01.JPG,AFNE01.JPG,AFNE01.JPG,,,,,,,,,1,0,10,2,,,,,,,,,,,,,,,AFNE13.jpg,AFSA01.jpg,AFNE18.jpg,AFSA14.jpg,AFNE18.jpg,FN,3,num_2,32,num_4,0.550193678821,,,2017_Apr_07_1857,60.0139939727,FEMA4ImagesEEG,001,100133,
AFNE01.JPG,AFNE01.JPG,AFNE01.JPG,AFNE01.JPG,AFNE01.JPG,AFNE01.JPG,,,,,,,,,1,1,11,1,,,,,,,,,,,,,,,AFNE07.jpg,AFSA05.jpg,AFNE03.jpg,AFSA06.jpg,AFNE03.jpg,FN,3,num_2,32,num_6,3.66655034502,,,2017_Apr_07_1857,60.0139939727,FEMA4ImagesEEG,001,100133,
AFNE01.JPG,AFNE01.JPG,AFNE01.JPG,AFNE01.JPG,AFNE01.JPG,AFNE01.JPG,,,,,,,,,1,2,12,7,,,,,,,,,,,,,,,AFNE16.jpg,AFSA19.jpg,AFNE11.jpg,AFSA10.jpg,AFNE16.jpg,FN,3,num_8,32,num_2,0.800181089668,,,2017_Apr_07_1857,60.0139939727,FEMA4ImagesEEG,001,100133,
AFNE01.JPG,AFNE01.JPG,AFNE01.JPG,AFNE01.JPG,AFNE01.JPG,AFNE01.JPG,,,,,,,,,1,3,13,5,,,,,,,,,,,,,,,AFNE17.jpg,AFNE04.jpg,AFSA01.jpg,AFSA19.jpg,AFSA01.jpg,FS,4,num_2,32,num_4,0.583498006454,,,2017_Apr_07_1857,60.0139939727,FEMA4ImagesEEG,001,100133,
AFNE01.JPG,AFNE01.JPG,AFNE01.JPG,AFNE01.JPG,AFNE01.JPG,AFNE01.JPG,,,,,,,,,1,4,14,9,,,,,,,,,,,,,,,AFSA05.jpg,AFNE10.jpg,AFSA07.jpg,AFNE18.jpg,AFNE10.jpg,FN,3,num_6,32,num_8,1.18342141388,,,2017_Apr_07_1857,60.0139939727,FEMA4ImagesEEG,001,100133,
AFNE01.JPG,AFNE01.JPG,AFNE01.JPG,AFNE01.JPG,AFNE01.JPG,AFNE01.JPG,,,,,,,,,1,5,15,8,,,,,,,,,,,,,,,AFNE17.jpg,AFSA07.jpg,AFSA05.jpg,AFNE20.jpg,AFSA05.jpg,FS,4,num_2,32,num_6,0.783484663814,,,2017_Apr_07_1857,60.0139939727,FEMA4ImagesEEG,001,100133,
AFNE01.JPG,AFNE01.JPG,AFNE01.JPG,AFNE01.JPG,AFNE01.JPG,AFNE01.JPG,,,,,,,,,1,6,16,3,,,,,,,,,,,,,,,AFSA13.jpg,AFSA09.jpg,AFNE16.jpg,AFNE13.jpg,AFSA09.jpg,FS,4,num_6,32,num_4,0.883479756303,,,2017_Apr_07_1857,60.0139939727,FEMA4ImagesEEG,001,100133,
AFNE01.JPG,AFNE01.JPG,AFNE01.JPG,AFNE01.JPG,AFNE01.JPG,AFNE01.JPG,,,,,,,,,1,7,17,6,,,,,,,,,,,,,,,AFNE07.jpg,AFSA07.jpg,AFNE01.jpg,AFSA10.jpg,AFNE07.jpg,FN,3,num_8,16,num_8,1.58338991716,,,2017_Apr_07_1857,60.0139939727,FEMA4ImagesEEG,001,100133,
AFNE01.JPG,AFNE01.JPG,AFNE01.JPG,AFNE01.JPG,AFNE01.JPG,AFNE01.JPG,,,,,,,,,1,8,18,0,,,,,,,,,,,,,,,AFSA13.jpg,AFNE19.jpg,AFSA15.jpg,AFNE07.jpg,AFNE19.jpg,FN,3,num_6,32,num_8,1.13344696071,,,2017_Apr_07_1857,60.0139939727,FEMA4ImagesEEG,001,100133,
AFNE01.JPG,AFNE01.JPG,AFNE01.JPG,AFNE01.JPG,AFNE01.JPG,AFNE01.JPG,,,,,,,,,1,9,19,4,,,,,,,,,,,,,,,AFSA15.jpg,AFNE14.jpg,AFNE03.jpg,AFSA12.jpg,AFSA12.jpg,FS,4,num_4,32,num_6,0.683660845971,,,2017_Apr_07_1857,60.0139939727,FEMA4ImagesEEG,001,100133,
AFNE01.JPG,AFNE01.JPG,AFNE01.JPG,AFNE01.JPG,AFNE01.JPG,AFNE01.JPG,,,,,,,,,2,0,20,7,,,,,,,,,,,,,,,AFSA18.jpg,AFNE17.jpg,AFSA01.jpg,AFNE04.jpg,AFSA01.jpg,FS,4,num_2,32,num_4,0.850163240451,,,2017_Apr_07_1857,60.0139939727,FEMA4ImagesEEG,001,100133,
AFNE01.JPG,AFNE01.JPG,AFNE01.JPG,AFNE01.JPG,AFNE01.JPG,AFNE01.JPG,,,,,,,,,2,1,21,3,,,,,,,,,,,,,,,AFSA06.jpg,AFSA07.jpg,AFNE16.jpg,AFNE07.jpg,AFSA06.jpg,FS,4,num_8,32,num_4,0.766852706438,,,2017_Apr_07_1857,60.0139939727,FEMA4ImagesEEG,001,100133,
AFNE01.JPG,AFNE01.JPG,AFNE01.JPG,AFNE01.JPG,AFNE01.JPG,AFNE01.JPG,,,,,,,,,2,2,22,9,,,,,,,,,,,,,,,AFSA15.jpg,AFNE05.jpg,AFNE17.jpg,AFSA20.jpg,AFNE17.jpg,FN,3,num_2,32,num_6,0.600156905828,,,2017_Apr_07_1857,60.0139939727,FEMA4ImagesEEG,001,100133,
AFNE01.JPG,AFNE01.JPG,AFNE01.JPG,AFNE01.JPG,AFNE01.JPG,AFNE01.JPG,,,,,,,,,2,3,23,2,,,,,,,,,,,,,,,AFNE07.jpg,AFNE19.jpg,AFSA01.jpg,AFSA19.jpg,AFNE07.jpg,FN,3,num_8,16,num_8,0.8501439963,,,2017_Apr_07_1857,60.0139939727,FEMA4ImagesEEG,001,100133,
AFNE01.JPG,AFNE01.JPG,AFNE01.JPG,AFNE01.JPG,AFNE01.JPG,AFNE01.JPG,,,,,,,,,2,4,24,5,,,,,,,,,,,,,,,AFSA19.jpg,AFSA16.jpg,AFNE15.jpg,AFNE18.jpg,AFSA19.jpg,FS,4,num_8,32,num_6,0.583591983188,,,2017_Apr_07_1857,60.0139939727,FEMA4ImagesEEG,001,100133,
AFNE01.JPG,AFNE01.JPG,AFNE01.JPG,AFNE01.JPG,AFNE01.JPG,AFNE01.JPG,,,,,,,,,2,5,25,8,,,,,,,,,,,,,,,AFSA06.jpg,AFNE16.jpg,AFNE07.jpg,AFSA04.jpg,AFNE07.jpg,FN,3,num_2,32,num_4,0.550121191423,,,2017_Apr_07_1857,60.0139939727,FEMA4ImagesEEG,001,100133,
AFNE01.JPG,AFNE01.JPG,AFNE01.JPG,AFNE01.JPG,AFNE01.JPG,AFNE01.JPG,,,,,,,,,2,6,26,0,,,,,,,,,,,,,,,AFNE11.jpg,AFSA06.jpg,AFNE07.jpg,AFSA07.jpg,AFSA06.jpg,FS,4,num_6,32,num_8,0.900142825209,,,2017_Apr_07_1857,60.0139939727,FEMA4ImagesEEG,001,100133,
AFNE01.JPG,AFNE01.JPG,AFNE01.JPG,AFNE01.JPG,AFNE01.JPG,AFNE01.JPG,,,,,,,,,2,7,27,6,,,,,,,,,,,,,,,AFSA13.jpg,AFNE18.jpg,AFNE05.jpg,AFSA01.jpg,AFNE18.jpg,FN,3,num_6,32,num_2,0.6166733969,,,2017_Apr_07_1857,60.0139939727,FEMA4ImagesEEG,001,100133,
AFNE01.JPG,AFNE01.JPG,AFNE01.JPG,AFNE01.JPG,AFNE01.JPG,AFNE01.JPG,,,,,,,,,2,8,28,4,,,,,,,,,,,,,,,AFNE08.jpg,AFNE18.jpg,AFSA13.jpg,AFSA06.jpg,AFNE08.jpg,FN,3,num_8,16,num_8,0.933476982173,,,2017_Apr_07_1857,60.0139939727,FEMA4ImagesEEG,001,100133,
AFNE01.JPG,AFNE01.JPG,AFNE01.JPG,AFNE01.JPG,AFNE01.JPG,AFNE01.JPG,,,,,,,,,2,9,29,1,,,,,,,,,,,,,,,AFSA07.jpg,AFSA11.jpg,AFNE07.jpg,AFNE18.jpg,AFSA07.jpg,FS,4,num_8,32,num_4,0.750165902544,,,2017_Apr_07_1857,60.0139939727,FEMA4ImagesEEG,001,100133,
AFNE01.JPG,AFNE01.JPG,AFNE01.JPG,AFNE01.JPG,AFNE01.JPG,AFNE01.JPG,,,,,,,,,3,0,30,0,,,,,,,,,,,,,,,AFNE10.jpg,AFSA20.jpg,AFSA06.jpg,AFNE14.jpg,AFSA20.jpg,FS,4,num_6,16,num_6,0.650138415163,,,2017_Apr_07_1857,60.0139939727,FEMA4ImagesEEG,001,100133,
AFNE01.JPG,AFNE01.JPG,AFNE01.JPG,AFNE01.JPG,AFNE01.JPG,AFNE01.JPG,,,,,,,,,3,1,31,2,,,,,,,,,,,,,,,AFNE02.jpg,AFSA15.jpg,AFNE15.jpg,AFSA18.jpg,AFNE02.jpg,FN,3,num_8,32,num_4,1.06670423597,,,2017_Apr_07_1857,60.0139939727,FEMA4ImagesEEG,001,100133,
AFNE01.JPG,AFNE01.JPG,AFNE01.JPG,AFNE01.JPG,AFNE01.JPG,AFNE01.JPG,,,,,,,,,3,2,32,3,,,,,,,,,,,,,,,AFSA05.jpg,AFNE06.jpg,AFSA07.jpg,AFNE20.jpg,AFSA05.jpg,FS,4,num_8,32,num_4,0.46654348122,,,2017_Apr_07_1857,60.0139939727,FEMA4ImagesEEG,001,100133,
AFNE01.JPG,AFNE01.JPG,AFNE01.JPG,AFNE01.JPG,AFNE01.JPG,AFNE01.JPG,,,,,,,,,3,3,33,6,,,,,,,,,,,,,,,AFSA04.jpg,AFSA03.jpg,AFNE13.jpg,AFNE11.jpg,AFSA04.jpg,FS,4,num_8,16,num_8,0.616813880857,,,2017_Apr_07_1857,60.0139939727,FEMA4ImagesEEG,001,100133,
AFNE01.JPG,AFNE01.JPG,AFNE01.JPG,AFNE01.JPG,AFNE01.JPG,AFNE01.JPG,,,,,,,,,3,4,34,8,,,,,,,,,,,,,,,AFNE06.jpg,AFNE15.jpg,AFSA13.jpg,AFSA09.jpg,AFSA09.jpg,FS,4,num_4,32,num_6,0.450038857525,,,2017_Apr_07_1857,60.0139939727,FEMA4ImagesEEG,001,100133,
AFNE01.JPG,AFNE01.JPG,AFNE01.JPG,AFNE01.JPG,AFNE01.JPG,AFNE01.JPG,,,,,,,,,3,5,35,5,,,,,,,,,,,,,,,AFNE01.jpg,AFSA18.jpg,AFSA02.jpg,AFNE06.jpg,AFSA18.jpg,FS,4,num_6,32,num_2,0.700114792911,,,2017_Apr_07_1857,60.0139939727,FEMA4ImagesEEG,001,100133,
AFNE01.JPG,AFNE01.JPG,AFNE01.JPG,AFNE01.JPG,AFNE01.JPG,AFNE01.JPG,,,,,,,,,3,6,36,7,,,,,,,,,,,,,,,AFNE11.jpg,AFSA14.jpg,AFSA06.jpg,AFNE07.jpg,AFNE11.jpg,FN,3,num_8,16,num_8,0.916758424835,,,2017_Apr_07_1857,60.0139939727,FEMA4ImagesEEG,001,100133,
AFNE01.JPG,AFNE01.JPG,AFNE01.JPG,AFNE01.JPG,AFNE01.JPG,AFNE01.JPG,,,,,,,,,3,7,37,4,,,,,,,,,,,,,,,AFSA12.jpg,AFNE14.jpg,AFNE08.jpg,AFSA04.jpg,AFSA12.jpg,FS,4,num_8,32,num_6,0.400213227607,,,2017_Apr_07_1857,60.0139939727,FEMA4ImagesEEG,001,100133,
AFNE01.JPG,AFNE01.JPG,AFNE01.JPG,AFNE01.JPG,AFNE01.JPG,AFNE01.JPG,,,,,,,,,3,8,38,9,,,,,,,,,,,,,,,AFSA08.jpg,AFSA04.jpg,AFNE14.jpg,AFNE19.jpg,AFNE19.jpg,FN,3,num_4,32,num_8,0.533532854635,,,2017_Apr_07_1857,60.0139939727,FEMA4ImagesEEG,001,100133,
AFNE01.JPG,AFNE01.JPG,AFNE01.JPG,AFNE01.JPG,AFNE01.JPG,AFNE01.JPG,,,,,,,,,3,9,39,1,,,,,,,,,,,,,,,AFNE04.jpg,AFSA13.jpg,AFSA08.jpg,AFNE20.jpg,AFSA08.jpg,FS,4,num_2,32,num_6,0.616691358155,,,2017_Apr_07_1857,60.0139939727,FEMA4ImagesEEG,001,100133,
AFNE01.JPG,AFNE01.JPG,AFNE01.JPG,AFNE01.JPG,AFNE01.JPG,AFNE01.JPG,,,,,,,,,4,0,40,4,,,,,,,,,,,,,,,AFNE19.jpg,AFSA14.jpg,AFSA11.jpg,AFNE08.jpg,AFSA14.jpg,FS,4,num_6,32,num_4,0.950153842801,,,2017_Apr_07_1857,60.0139939727,FEMA4ImagesEEG,001,100133,
AFNE01.JPG,AFNE01.JPG,AFNE01.JPG,AFNE01.JPG,AFNE01.JPG,AFNE01.JPG,,,,,,,,,4,1,41,0,,,,,,,,,,,,,,,AFSA02.jpg,AFSA08.jpg,AFNE13.jpg,AFNE09.jpg,AFSA02.jpg,FS,4,num_8,32,num_6,0.86678846227,,,2017_Apr_07_1857,60.0139939727,FEMA4ImagesEEG,001,100133,
AFNE01.JPG,AFNE01.JPG,AFNE01.JPG,AFNE01.JPG,AFNE01.JPG,AFNE01.JPG,,,,,,,,,4,2,42,5,,,,,,,,,,,,,,,AFSA11.jpg,AFSA16.jpg,AFNE06.jpg,AFNE16.jpg,AFNE16.jpg,FN,3,num_4,32,num_8,0.717097318498,,,2017_Apr_07_1857,60.0139939727,FEMA4ImagesEEG,001,100133,
AFNE01.JPG,AFNE01.JPG,AFNE01.JPG,AFNE01.JPG,AFNE01.JPG,AFNE01.JPG,,,,,,,,,4,3,43,9,,,,,,,,,,,,,,,AFNE03.jpg,AFNE19.jpg,AFSA20.jpg,AFSA01.jpg,AFNE19.jpg,FN,3,num_6,32,num_4,0.583394728135,,,2017_Apr_07_1857,60.0139939727,FEMA4ImagesEEG,001,100133,
AFNE01.JPG,AFNE01.JPG,AFNE01.JPG,AFNE01.JPG,AFNE01.JPG,AFNE01.JPG,,,,,,,,,4,4,44,7,,,,,,,,,,,,,,,AFNE14.jpg,AFNE09.jpg,AFSA11.jpg,AFSA09.jpg,AFSA11.jpg,FS,4,num_2,32,num_6,0.433506329777,,,2017_Apr_07_1857,60.0139939727,FEMA4ImagesEEG,001,100133,
AFNE01.JPG,AFNE01.JPG,AFNE01.JPG,AFNE01.JPG,AFNE01.JPG,AFNE01.JPG,,,,,,,,,4,5,45,6,,,,,,,,,,,,,,,AFSA15.jpg,AFNE15.jpg,AFNE14.jpg,AFSA12.jpg,AFNE15.jpg,FN,3,num_6,16,num_6,0.633508061524,,,2017_Apr_07_1857,60.0139939727,FEMA4ImagesEEG,001,100133,
AFNE01.JPG,AFNE01.JPG,AFNE01.JPG,AFNE01.JPG,AFNE01.JPG,AFNE01.JPG,,,,,,,,,4,6,46,2,,,,,,,,,,,,,,,AFSA17.jpg,AFSA12.jpg,AFNE12.jpg,AFNE06.jpg,AFSA12.jpg,FS,4,num_6,16,num_6,0.60017679166,,,2017_Apr_07_1857,60.0139939727,FEMA4ImagesEEG,001,100133,
AFNE01.JPG,AFNE01.JPG,AFNE01.JPG,AFNE01.JPG,AFNE01.JPG,AFNE01.JPG,,,,,,,,,4,7,47,3,,,,,,,,,,,,,,,AFNE12.jpg,AFSA05.jpg,AFSA01.jpg,AFNE02.jpg,AFSA05.jpg,FS,4,num_6,32,num_4,0.633448083187,,,2017_Apr_07_1857,60.0139939727,FEMA4ImagesEEG,001,100133,
AFNE01.JPG,AFNE01.JPG,AFNE01.JPG,AFNE01.JPG,AFNE01.JPG,AFNE01.JPG,,,,,,,,,4,8,48,8,,,,,,,,,,,,,,,AFNE05.jpg,AFSA05.jpg,AFSA15.jpg,AFNE13.jpg,AFNE05.jpg,FN,3,num_8,16,num_8,0.733461458003,,,2017_Apr_07_1857,60.0139939727,FEMA4ImagesEEG,001,100133,
AFNE01.JPG,AFNE01.JPG,AFNE01.JPG,AFNE01.JPG,AFNE01.JPG,AFNE01.JPG,,,,,,,,,4,9,49,1,,,,,,,,,,,,,,,AFNE19.jpg,AFSA19.jpg,AFSA20.jpg,AFNE16.jpg,AFNE19.jpg,FN,3,num_8,32,num_2,0.8501439963,,,2017_Apr_07_1857,60.0139939727,FEMA4ImagesEEG,001,100133,
AFNE01.JPG,AFNE01.JPG,AFNE01.JPG,AFNE01.JPG,AFNE01.JPG,AFNE01.JPG,,,,,,,,,5,0,50,4,,,,,,,,,,,,,,,AFNE08.jpg,AFNE13.jpg,AFSA03.jpg,AFSA14.jpg,AFSA14.jpg,FS,4,num_4,32,num_6,0.416578650242,,,2017_Apr_07_1857,60.0139939727,FEMA4ImagesEEG,001,100133,
AFNE01.JPG,AFNE01.JPG,AFNE01.JPG,AFNE01.JPG,AFNE01.JPG,AFNE01.JPG,,,,,,,,,5,1,51,3,,,,,,,,,,,,,,,AFNE15.jpg,AFSA20.jpg,AFSA11.jpg,AFNE18.jpg,AFSA11.jpg,FS,4,num_2,16,num_2,1.26677011582,,,2017_Apr_07_1857,60.0139939727,FEMA4ImagesEEG,001,100133,
AFNE01.JPG,AFNE01.JPG,AFNE01.JPG,AFNE01.JPG,AFNE01.JPG,AFNE01.JPG,,,,,,,,,5,2,52,6,,,,,,,,,,,,,,,AFNE03.jpg,AFSA14.jpg,AFNE19.jpg,AFSA20.jpg,AFSA14.jpg,FS,4,num_6,16,num_6,0.41678424459,,,2017_Apr_07_1857,60.0139939727,FEMA4ImagesEEG,001,100133,
AFNE01.JPG,AFNE01.JPG,AFNE01.JPG,AFNE01.JPG,AFNE01.JPG,AFNE01.JPG,,,,,,,,,5,3,53,0,,,,,,,,,,,,,,,AFNE06.jpg,AFSA19.jpg,AFNE17.jpg,AFSA05.jpg,AFSA19.jpg,FS,4,num_6,16,num_6,0.950221198145,,,2017_Apr_07_1857,60.0139939727,FEMA4ImagesEEG,001,100133,
AFNE01.JPG,AFNE01.JPG,AFNE01.JPG,AFNE01.JPG,AFNE01.JPG,AFNE01.JPG,,,,,,,,,5,4,54,1,,,,,,,,,,,,,,,AFNE15.jpg,AFNE02.jpg,AFSA10.jpg,AFSA06.jpg,AFNE15.jpg,FN,3,num_8,16,num_8,1.13347999705,,,2017_Apr_07_1857,60.0139939727,FEMA4ImagesEEG,001,100133,
AFNE01.JPG,AFNE01.JPG,AFNE01.JPG,AFNE01.JPG,AFNE01.JPG,AFNE01.JPG,,,,,,,,,5,5,55,7,,,,,,,,,,,,,,,AFSA06.jpg,AFSA20.jpg,AFNE12.jpg,AFNE05.jpg,AFNE05.jpg,FN,3,num_4,32,num_2,1.33341629803,,,2017_Apr_07_1857,60.0139939727,FEMA4ImagesEEG,001,100133,
AFNE01.JPG,AFNE01.JPG,AFNE01.JPG,AFNE01.JPG,AFNE01.JPG,AFNE01.JPG,,,,,,,,,5,6,56,8,,,,,,,,,,,,,,,AFNE13.jpg,AFSA14.jpg,AFSA12.jpg,AFNE15.jpg,AFSA12.jpg,FS,4,num_2,16,num_2,0.483496498782,,,2017_Apr_07_1857,60.0139939727,FEMA4ImagesEEG,001,100133,
AFNE01.JPG,AFNE01.JPG,AFNE01.JPG,AFNE01.JPG,AFNE01.JPG,AFNE01.JPG,,,,,,,,,5,7,57,9,,,,,,,,,,,,,,,AFSA15.jpg,AFNE14.jpg,AFSA17.jpg,AFNE20.jpg,AFNE20.jpg,FN,3,num_4,32,num_8,0.966724218102,,,2017_Apr_07_1857,60.0139939727,FEMA4ImagesEEG,001,100133,
AFNE01.JPG,AFNE01.JPG,AFNE01.JPG,AFNE01.JPG,AFNE01.JPG,AFNE01.JPG,,,,,,,,,5,8,58,2,,,,,,,,,,,,,,,AFNE08.jpg,AFSA17.jpg,AFNE20.jpg,AFSA06.jpg,AFSA17.jpg,FS,4,num_6,32,num_2,1.68341387645,,,2017_Apr_07_1857,60.0139939727,FEMA4ImagesEEG,001,100133,
AFNE01.JPG,AFNE01.JPG,AFNE01.JPG,AFNE01.JPG,AFNE01.JPG,AFNE01.JPG,,,,,,,,,5,9,59,5,,,,,,,,,,,,,,,AFNE07.jpg,AFNE10.jpg,AFSA12.jpg,AFSA02.jpg,AFNE07.jpg,FN,3,num_8,16,num_8,0.850140788825,,,2017_Apr_07_1857,60.0139939727,FEMA4ImagesEEG,001,100133,
,,,,,,,,,,,,,,,,,,,,,,,,,,,,,,,,,,,,,,,,,,,space,17.9822855464,2017_Apr_07_1857,60.0139939727,FEMA4ImagesEEG,001,100133,
AFNE01.JPG,AFNE01.JPG,AFNE01.JPG,AFNE01.JPG,AFNE01.JPG,AFNE01.JPG,,,,,,,,,,,,,0,0,0,4,,,,,,,,,,,AMNE02.jpg,AMNE15.jpg,AMSA06.jpg,AMSA10.jpg,AMNE02.jpg,MN,1,num_8,16,num_8,0.716669772519,,,2017_Apr_07_1857,60.0139939727,FEMA4ImagesEEG,001,100133,
AFNE01.JPG,AFNE01.JPG,AFNE01.JPG,AFNE01.JPG,AFNE01.JPG,AFNE01.JPG,,,,,,,,,,,,,0,1,1,6,,,,,,,,,,,AMSA15.jpg,AMNE04.jpg,AMNE01.jpg,AMSA03.jpg,AMNE04.jpg,MN,1,num_6,32,num_4,0.73366288282,,,2017_Apr_07_1857,60.0139939727,FEMA4ImagesEEG,001,100133,
AFNE01.JPG,AFNE01.JPG,AFNE01.JPG,AFNE01.JPG,AFNE01.JPG,AFNE01.JPG,,,,,,,,,,,,,0,2,2,5,,,,,,,,,,,AMNE20.jpg,AMSA16.jpg,AMSA08.jpg,AMNE11.jpg,AMSA08.jpg,MS,2,num_2,32,num_8,0.633475987706,,,2017_Apr_07_1857,60.0139939727,FEMA4ImagesEEG,001,100133,
AFNE01.JPG,AFNE01.JPG,AFNE01.JPG,AFNE01.JPG,AFNE01.JPG,AFNE01.JPG,,,,,,,,,,,,,0,3,3,2,,,,,,,,,,,AMNE09.jpg,AMNE11.jpg,AMSA13.jpg,AMSA11.jpg,AMNE09.jpg,MN,1,num_8,32,num_2,0.983440529788,,,2017_Apr_07_1857,60.0139939727,FEMA4ImagesEEG,001,100133,
AFNE01.JPG,AFNE01.JPG,AFNE01.JPG,AFNE01.JPG,AFNE01.JPG,AFNE01.JPG,,,,,,,,,,,,,0,4,4,0,,,,,,,,,,,AMNE18.jpg,AMSA20.jpg,AMNE09.jpg,AMSA14.jpg,AMSA20.jpg,MS,2,num_6,32,num_4,0.566788430093,,,2017_Apr_07_1857,60.0139939727,FEMA4ImagesEEG,001,100133,
AFNE01.JPG,AFNE01.JPG,AFNE01.JPG,AFNE01.JPG,AFNE01.JPG,AFNE01.JPG,,,,,,,,,,,,,0,5,5,9,,,,,,,,,,,AMNE10.jpg,AMNE04.jpg,AMSA02.jpg,AMSA13.jpg,AMNE04.jpg,MN,1,num_6,16,num_6,0.500193245476,,,2017_Apr_07_1857,60.0139939727,FEMA4ImagesEEG,001,100133,
AFNE01.JPG,AFNE01.JPG,AFNE01.JPG,AFNE01.JPG,AFNE01.JPG,AFNE01.JPG,,,,,,,,,,,,,0,6,6,8,,,,,,,,,,,AMSA10.jpg,AMNE14.jpg,AMSA02.jpg,AMNE13.jpg,AMSA10.jpg,MS,2,num_8,32,num_4,0.633409273811,,,2017_Apr_07_1857,60.0139939727,FEMA4ImagesEEG,001,100133,
AFNE01.JPG,AFNE01.JPG,AFNE01.JPG,AFNE01.JPG,AFNE01.JPG,AFNE01.JPG,,,,,,,,,,,,,0,7,7,7,,,,,,,,,,,AMSA14.jpg,AMNE15.jpg,AMSA18.jpg,AMNE20.jpg,AMSA18.jpg,MS,2,num_2,16,num_2,0.666804050095,,,2017_Apr_07_1857,60.0139939727,FEMA4ImagesEEG,001,100133,
AFNE01.JPG,AFNE01.JPG,AFNE01.JPG,AFNE01.JPG,AFNE01.JPG,AFNE01.JPG,,,,,,,,,,,,,0,8,8,3,,,,,,,,,,,AMNE11.jpg,AMSA06.jpg,AMSA09.jpg,AMNE10.jpg,AMNE10.jpg,MN,1,num_4,32,num_8,0.850211672252,,,2017_Apr_07_1857,60.0139939727,FEMA4ImagesEEG,001,100133,
AFNE01.JPG,AFNE01.JPG,AFNE01.JPG,AFNE01.JPG,AFNE01.JPG,AFNE01.JPG,,,,,,,,,,,,,0,9,9,1,,,,,,,,,,,AMSA05.jpg,AMSA17.jpg,AMNE05.jpg,AMNE18.jpg,AMNE18.jpg,MN,1,num_4,16,num_4,0.583388634026,,,2017_Apr_07_1857,60.0139939727,FEMA4ImagesEEG,001,100133,
AFNE01.JPG,AFNE01.JPG,AFNE01.JPG,AFNE01.JPG,AFNE01.JPG,AFNE01.JPG,,,,,,,,,,,,,1,0,10,0,,,,,,,,,,,AMSA12.jpg,AMNE20.jpg,AMNE11.jpg,AMSA16.jpg,AMNE11.jpg,MN,1,num_2,32,num_4,0.766731787473,,,2017_Apr_07_1857,60.0139939727,FEMA4ImagesEEG,001,100133,
AFNE01.JPG,AFNE01.JPG,AFNE01.JPG,AFNE01.JPG,AFNE01.JPG,AFNE01.JPG,,,,,,,,,,,,,1,1,11,9,,,,,,,,,,,AMSA03.jpg,AMNE13.jpg,AMNE06.jpg,AMSA05.jpg,AMSA03.jpg,MS,2,num_8,16,num_8,0.650132641895,,,2017_Apr_07_1857,60.0139939727,FEMA4ImagesEEG,001,100133,
AFNE01.JPG,AFNE01.JPG,AFNE01.JPG,AFNE01.JPG,AFNE01.JPG,AFNE01.JPG,,,,,,,,,,,,,1,2,12,5,,,,,,,,,,,AMSA13.jpg,AMSA18.jpg,AMNE14.jpg,AMNE13.jpg,AMSA13.jpg,MS,2,num_8,32,num_4,0.73351213499,,,2017_Apr_07_1857,60.0139939727,FEMA4ImagesEEG,001,100133,
AFNE01.JPG,AFNE01.JPG,AFNE01.JPG,AFNE01.JPG,AFNE01.JPG,AFNE01.JPG,,,,,,,,,,,,,1,3,13,4,,,,,,,,,,,AMNE02.jpg,AMSA02.jpg,AMSA04.jpg,AMNE03.jpg,AMNE02.jpg,MN,1,num_8,32,num_2,2.16670959233,,,2017_Apr_07_1857,60.0139939727,FEMA4ImagesEEG,001,100133,
AFNE01.JPG,AFNE01.JPG,AFNE01.JPG,AFNE01.JPG,AFNE01.JPG,AFNE01.JPG,,,,,,,,,,,,,1,4,14,8,,,,,,,,,,,AMNE02.jpg,AMNE14.jpg,AMSA03.jpg,AMSA02.jpg,AMSA02.jpg,MS,2,num_4,32,num_8,1.36648841016,,,2017_Apr_07_1857,60.0139939727,FEMA4ImagesEEG,001,100133,
AFNE01.JPG,AFNE01.JPG,AFNE01.JPG,AFNE01.JPG,AFNE01.JPG,AFNE01.JPG,,,,,,,,,,,,,1,5,15,7,,,,,,,,,,,AMNE08.jpg,AMSA08.jpg,AMSA06.jpg,AMNE09.jpg,AMNE08.jpg,MN,1,num_8,16,num_8,1.09998803656,,,2017_Apr_07_1857,60.0139939727,FEMA4ImagesEEG,001,100133,
AFNE01.JPG,AFNE01.JPG,AFNE01.JPG,AFNE01.JPG,AFNE01.JPG,AFNE01.JPG,,,,,,,,,,,,,1,6,16,6,,,,,,,,,,,AMNE09.jpg,AMSA06.jpg,AMSA17.jpg,AMNE16.jpg,AMSA06.jpg,MS,2,num_6,16,num_6,0.600155622931,,,2017_Apr_07_1857,60.0139939727,FEMA4ImagesEEG,001,100133,
AFNE01.JPG,AFNE01.JPG,AFNE01.JPG,AFNE01.JPG,AFNE01.JPG,AFNE01.JPG,,,,,,,,,,,,,1,7,17,3,,,,,,,,,,,AMSA13.jpg,AMNE20.jpg,AMSA10.jpg,AMNE08.jpg,AMSA10.jpg,MS,2,num_2,32,num_4,0.500173680484,,,2017_Apr_07_1857,60.0139939727,FEMA4ImagesEEG,001,100133,
AFNE01.JPG,AFNE01.JPG,AFNE01.JPG,AFNE01.JPG,AFNE01.JPG,AFNE01.JPG,,,,,,,,,,,,,1,8,18,2,,,,,,,,,,,AMNE10.jpg,AMSA10.jpg,AMSA07.jpg,AMNE08.jpg,AMSA10.jpg,MS,2,num_6,32,num_8,0.516653607134,,,2017_Apr_07_1857,60.0139939727,FEMA4ImagesEEG,001,100133,
AFNE01.JPG,AFNE01.JPG,AFNE01.JPG,AFNE01.JPG,AFNE01.JPG,AFNE01.JPG,,,,,,,,,,,,,1,9,19,1,,,,,,,,,,,AMNE09.jpg,AMSA06.jpg,AMNE05.jpg,AMSA15.jpg,AMNE05.jpg,MN,1,num_2,32,num_6,0.616835370427,,,2017_Apr_07_1857,60.0139939727,FEMA4ImagesEEG,001,100133,
AFNE01.JPG,AFNE01.JPG,AFNE01.JPG,AFNE01.JPG,AFNE01.JPG,AFNE01.JPG,,,,,,,,,,,,,2,0,20,2,,,,,,,,,,,AMSA10.jpg,AMNE08.jpg,AMNE07.jpg,AMSA03.jpg,AMNE07.jpg,MN,1,num_2,32,num_4,0.60017647082,,,2017_Apr_07_1857,60.0139939727,FEMA4ImagesEEG,001,100133,
AFNE01.JPG,AFNE01.JPG,AFNE01.JPG,AFNE01.JPG,AFNE01.JPG,AFNE01.JPG,,,,,,,,,,,,,2,1,21,9,,,,,,,,,,,AMSA15.jpg,AMSA17.jpg,AMNE11.jpg,AMNE20.jpg,AMNE11.jpg,MN,1,num_2,32,num_6,0.483514139662,,,2017_Apr_07_1857,60.0139939727,FEMA4ImagesEEG,001,100133,
AFNE01.JPG,AFNE01.JPG,AFNE01.JPG,AFNE01.JPG,AFNE01.JPG,AFNE01.JPG,,,,,,,,,,,,,2,2,22,6,,,,,,,,,,,AMNE20.jpg,AMSA20.jpg,AMNE01.jpg,AMSA14.jpg,AMNE20.jpg,MN,1,num_8,32,num_4,0.533497894183,,,2017_Apr_07_1857,60.0139939727,FEMA4ImagesEEG,001,100133,
AFNE01.JPG,AFNE01.JPG,AFNE01.JPG,AFNE01.JPG,AFNE01.JPG,AFNE01.JPG,,,,,,,,,,,,,2,3,23,5,,,,,,,,,,,AMSA16.jpg,AMSA05.jpg,AMNE07.jpg,AMNE04.jpg,AMNE07.jpg,MN,1,num_2,16,num_2,0.533517459175,,,2017_Apr_07_1857,60.0139939727,FEMA4ImagesEEG,001,100133,
AFNE01.JPG,AFNE01.JPG,AFNE01.JPG,AFNE01.JPG,AFNE01.JPG,AFNE01.JPG,,,,,,,,,,,,,2,4,24,7,,,,,,,,,,,AMNE07.jpg,AMSA09.jpg,AMSA08.jpg,AMNE14.jpg,AMNE14.jpg,MN,1,num_4,16,num_4,0.600201167865,,,2017_Apr_07_1857,60.0139939727,FEMA4ImagesEEG,001,100133,
AFNE01.JPG,AFNE01.JPG,AFNE01.JPG,AFNE01.JPG,AFNE01.JPG,AFNE01.JPG,,,,,,,,,,,,,2,5,25,3,,,,,,,,,,,AMSA13.jpg,AMNE06.jpg,AMNE20.jpg,AMSA17.jpg,AMNE06.jpg,MN,1,num_6,16,num_6,0.766808765009,,,2017_Apr_07_1857,60.0139939727,FEMA4ImagesEEG,001,100133,
AFNE01.JPG,AFNE01.JPG,AFNE01.JPG,AFNE01.JPG,AFNE01.JPG,AFNE01.JPG,,,,,,,,,,,,,2,6,26,0,,,,,,,,,,,AMNE12.jpg,AMSA07.jpg,AMNE04.jpg,AMSA17.jpg,AMNE04.jpg,MN,1,num_2,16,num_2,0.999825196806,,,2017_Apr_07_1857,60.0139939727,FEMA4ImagesEEG,001,100133,
AFNE01.JPG,AFNE01.JPG,AFNE01.JPG,AFNE01.JPG,AFNE01.JPG,AFNE01.JPG,,,,,,,,,,,,,2,7,27,8,,,,,,,,,,,AMNE08.jpg,AMSA12.jpg,AMSA01.jpg,AMNE13.jpg,AMSA01.jpg,MS,2,num_2,32,num_8,0.666772296885,,,2017_Apr_07_1857,60.0139939727,FEMA4ImagesEEG,001,100133,
AFNE01.JPG,AFNE01.JPG,AFNE01.JPG,AFNE01.JPG,AFNE01.JPG,AFNE01.JPG,,,,,,,,,,,,,2,8,28,1,,,,,,,,,,,AMSA09.jpg,AMSA07.jpg,AMNE08.jpg,AMNE12.jpg,AMSA09.jpg,MS,2,num_8,32,num_4,0.516812694026,,,2017_Apr_07_1857,60.0139939727,FEMA4ImagesEEG,001,100133,
AFNE01.JPG,AFNE01.JPG,AFNE01.JPG,AFNE01.JPG,AFNE01.JPG,AFNE01.JPG,,,,,,,,,,,,,2,9,29,4,,,,,,,,,,,AMSA14.jpg,AMNE16.jpg,AMNE14.jpg,AMSA08.jpg,AMSA14.jpg,MS,2,num_8,16,num_8,0.766794652445,,,2017_Apr_07_1857,60.0139939727,FEMA4ImagesEEG,001,100133,
AFNE01.JPG,AFNE01.JPG,AFNE01.JPG,AFNE01.JPG,AFNE01.JPG,AFNE01.JPG,,,,,,,,,,,,,3,0,30,1,,,,,,,,,,,AMSA13.jpg,AMNE09.jpg,AMNE02.jpg,AMSA11.jpg,AMNE02.jpg,MN,1,num_2,32,num_6,0.750150827691,,,2017_Apr_07_1857,60.0139939727,FEMA4ImagesEEG,001,100133,
AFNE01.JPG,AFNE01.JPG,AFNE01.JPG,AFNE01.JPG,AFNE01.JPG,AFNE01.JPG,,,,,,,,,,,,,3,1,31,3,,,,,,,,,,,AMNE02.jpg,AMNE18.jpg,AMSA18.jpg,AMSA12.jpg,AMNE18.jpg,MN,1,num_6,32,num_4,0.750148582738,,,2017_Apr_07_1857,60.0139939727,FEMA4ImagesEEG,001,100133,
AFNE01.JPG,AFNE01.JPG,AFNE01.JPG,AFNE01.JPG,AFNE01.JPG,AFNE01.JPG,,,,,,,,,,,,,3,2,32,8,,,,,,,,,,,AMSA15.jpg,AMNE16.jpg,AMSA07.jpg,AMNE07.jpg,AMSA15.jpg,MS,2,num_8,16,num_8,0.766746862326,,,2017_Apr_07_1857,60.0139939727,FEMA4ImagesEEG,001,100133,
AFNE01.JPG,AFNE01.JPG,AFNE01.JPG,AFNE01.JPG,AFNE01.JPG,AFNE01.JPG,,,,,,,,,,,,,3,3,33,4,,,,,,,,,,,AMSA17.jpg,AMNE06.jpg,AMNE12.jpg,AMSA07.jpg,AMSA07.jpg,MS,2,num_4,16,num_4,0.533537665848,,,2017_Apr_07_1857,60.0139939727,FEMA4ImagesEEG,001,100133,
AFNE01.JPG,AFNE01.JPG,AFNE01.JPG,AFNE01.JPG,AFNE01.JPG,AFNE01.JPG,,,,,,,,,,,,,3,4,34,5,,,,,,,,,,,AMNE06.jpg,AMSA17.jpg,AMNE01.jpg,AMSA15.jpg,AMSA15.jpg,MS,2,num_4,32,num_8,1.15014755633,,,2017_Apr_07_1857,60.0139939727,FEMA4ImagesEEG,001,100133,
AFNE01.JPG,AFNE01.JPG,AFNE01.JPG,AFNE01.JPG,AFNE01.JPG,AFNE01.JPG,,,,,,,,,,,,,3,5,35,9,,,,,,,,,,,AMSA02.jpg,AMSA17.jpg,AMNE20.jpg,AMNE15.jpg,AMSA17.jpg,MS,2,num_6,32,num_8,0.800130412914,,,2017_Apr_07_1857,60.0139939727,FEMA4ImagesEEG,001,100133,
AFNE01.JPG,AFNE01.JPG,AFNE01.JPG,AFNE01.JPG,AFNE01.JPG,AFNE01.JPG,,,,,,,,,,,,,3,6,36,0,,,,,,,,,,,AMNE12.jpg,AMSA18.jpg,AMNE18.jpg,AMSA03.jpg,AMNE18.jpg,MN,1,num_2,32,num_6,0.483538195258,,,2017_Apr_07_1857,60.0139939727,FEMA4ImagesEEG,001,100133,
AFNE01.JPG,AFNE01.JPG,AFNE01.JPG,AFNE01.JPG,AFNE01.JPG,AFNE01.JPG,,,,,,,,,,,,,3,7,37,6,,,,,,,,,,,AMSA03.jpg,AMSA04.jpg,AMNE14.jpg,AMNE06.jpg,AMNE06.jpg,MN,1,num_4,32,num_2,0.716840085341,,,2017_Apr_07_1857,60.0139939727,FEMA4ImagesEEG,001,100133,
AFNE01.JPG,AFNE01.JPG,AFNE01.JPG,AFNE01.JPG,AFNE01.JPG,AFNE01.JPG,,,,,,,,,,,,,3,8,38,7,,,,,,,,,,,AMNE15.jpg,AMSA03.jpg,AMSA16.jpg,AMNE18.jpg,AMSA03.jpg,MS,2,num_6,16,num_6,0.766810047906,,,2017_Apr_07_1857,60.0139939727,FEMA4ImagesEEG,001,100133,
AFNE01.JPG,AFNE01.JPG,AFNE01.JPG,AFNE01.JPG,AFNE01.JPG,AFNE01.JPG,,,,,,,,,,,,,3,9,39,2,,,,,,,,,,,AMSA20.jpg,AMNE14.jpg,AMNE19.jpg,AMSA11.jpg,AMSA11.jpg,MS,2,num_4,16,num_4,0.583499610191,,,2017_Apr_07_1857,60.0139939727,FEMA4ImagesEEG,001,100133,
AFNE01.JPG,AFNE01.JPG,AFNE01.JPG,AFNE01.JPG,AFNE01.JPG,AFNE01.JPG,,,,,,,,,,,,,4,0,40,5,,,,,,,,,,,AMSA03.jpg,AMNE16.jpg,AMSA19.jpg,AMNE05.jpg,AMNE16.jpg,MN,1,num_6,32,num_8,0.766893761232,,,2017_Apr_07_1857,60.0139939727,FEMA4ImagesEEG,001,100133,
AFNE01.JPG,AFNE01.JPG,AFNE01.JPG,AFNE01.JPG,AFNE01.JPG,AFNE01.JPG,,,,,,,,,,,,,4,1,41,6,,,,,,,,,,,AMNE06.jpg,AMNE04.jpg,AMSA07.jpg,AMSA18.jpg,AMSA18.jpg,MS,2,num_4,32,num_6,0.500186830759,,,2017_Apr_07_1857,60.0139939727,FEMA4ImagesEEG,001,100133,
AFNE01.JPG,AFNE01.JPG,AFNE01.JPG,AFNE01.JPG,AFNE01.JPG,AFNE01.JPG,,,,,,,,,,,,,4,2,42,7,,,,,,,,,,,AMNE05.jpg,AMNE16.jpg,AMSA11.jpg,AMSA18.jpg,AMNE16.jpg,MN,1,num_6,32,num_4,0.483512215316,,,2017_Apr_07_1857,60.0139939727,FEMA4ImagesEEG,001,100133,
AFNE01.JPG,AFNE01.JPG,AFNE01.JPG,AFNE01.JPG,AFNE01.JPG,AFNE01.JPG,,,,,,,,,,,,,4,3,43,9,,,,,,,,,,,AMNE03.jpg,AMSA11.jpg,AMSA15.jpg,AMNE10.jpg,AMSA11.jpg,MS,2,num_6,32,num_2,0.400159343379,,,2017_Apr_07_1857,60.0139939727,FEMA4ImagesEEG,001,100133,
AFNE01.JPG,AFNE01.JPG,AFNE01.JPG,AFNE01.JPG,AFNE01.JPG,AFNE01.JPG,,,,,,,,,,,,,4,4,44,4,,,,,,,,,,,AMSA13.jpg,AMSA14.jpg,AMNE16.jpg,AMNE05.jpg,AMSA13.jpg,MS,2,num_8,16,num_8,0.600172301289,,,2017_Apr_07_1857,60.0139939727,FEMA4ImagesEEG,001,100133,
AFNE01.JPG,AFNE01.JPG,AFNE01.JPG,AFNE01.JPG,AFNE01.JPG,AFNE01.JPG,,,,,,,,,,,,,4,5,45,8,,,,,,,,,,,AMSA17.jpg,AMNE09.jpg,AMNE12.jpg,AMSA18.jpg,AMSA18.jpg,MS,2,num_4,16,num_4,0.600170056103,,,2017_Apr_07_1857,60.0139939727,FEMA4ImagesEEG,001,100133,
AFNE01.JPG,AFNE01.JPG,AFNE01.JPG,AFNE01.JPG,AFNE01.JPG,AFNE01.JPG,,,,,,,,,,,,,4,6,46,3,,,,,,,,,,,AMNE17.jpg,AMNE15.jpg,AMSA18.jpg,AMSA15.jpg,AMSA18.jpg,MS,2,num_2,32,num_6,0.366800489835,,,2017_Apr_07_1857,60.0139939727,FEMA4ImagesEEG,001,100133,
AFNE01.JPG,AFNE01.JPG,AFNE01.JPG,AFNE01.JPG,AFNE01.JPG,AFNE01.JPG,,,,,,,,,,,,,4,7,47,0,,,,,,,,,,,AMSA05.jpg,AMSA06.jpg,AMNE15.jpg,AMNE09.jpg,AMNE15.jpg,MN,1,num_2,16,num_2,0.716783635085,,,2017_Apr_07_1857,60.0139939727,FEMA4ImagesEEG,001,100133,
AFNE01.JPG,AFNE01.JPG,AFNE01.JPG,AFNE01.JPG,AFNE01.JPG,AFNE01.JPG,,,,,,,,,,,,,4,8,48,1,,,,,,,,,,,AMNE02.jpg,AMSA09.jpg,AMSA16.jpg,AMNE18.jpg,AMSA16.jpg,MS,2,num_2,32,num_8,0.533528364496,,,2017_Apr_07_1857,60.0139939727,FEMA4ImagesEEG,001,100133,
AFNE01.JPG,AFNE01.JPG,AFNE01.JPG,AFNE01.JPG,AFNE01.JPG,AFNE01.JPG,,,,,,,,,,,,,4,9,49,2,,,,,,,,,,,AMNE20.jpg,AMSA02.jpg,AMNE02.jpg,AMSA06.jpg,AMSA02.jpg,MS,2,num_6,32,num_2,0.46682060021,,,2017_Apr_07_1857,60.0139939727,FEMA4ImagesEEG,001,100133,
AFNE01.JPG,AFNE01.JPG,AFNE01.JPG,AFNE01.JPG,AFNE01.JPG,AFNE01.JPG,,,,,,,,,,,,,5,0,50,5,,,,,,,,,,,AMSA13.jpg,AMSA12.jpg,AMNE09.jpg,AMNE04.jpg,AMSA13.jpg,MS,2,num_8,32,num_4,0.699850503122,,,2017_Apr_07_1857,60.0139939727,FEMA4ImagesEEG,001,100133,
AFNE01.JPG,AFNE01.JPG,AFNE01.JPG,AFNE01.JPG,AFNE01.JPG,AFNE01.JPG,,,,,,,,,,,,,5,1,51,0,,,,,,,,,,,AMSA03.jpg,AMNE12.jpg,AMNE19.jpg,AMSA20.jpg,AMSA03.jpg,MS,2,num_8,16,num_8,0.916828346206,,,2017_Apr_07_1857,60.0139939727,FEMA4ImagesEEG,001,100133,
AFNE01.JPG,AFNE01.JPG,AFNE01.JPG,AFNE01.JPG,AFNE01.JPG,AFNE01.JPG,,,,,,,,,,,,,5,2,52,1,,,,,,,,,,,AMSA03.jpg,AMNE01.jpg,AMNE14.jpg,AMSA12.jpg,AMSA03.jpg,MS,2,num_8,32,num_6,0.400150362635,,,2017_Apr_07_1857,60.0139939727,FEMA4ImagesEEG,001,100133,
AFNE01.JPG,AFNE01.JPG,AFNE01.JPG,AFNE01.JPG,AFNE01.JPG,AFNE01.JPG,,,,,,,,,,,,,5,3,53,2,,,,,,,,,,,AMSA01.jpg,AMNE08.jpg,AMNE10.jpg,AMSA03.jpg,AMNE10.jpg,MN,1,num_2,32,num_4,0.400139457546,,,2017_Apr_07_1857,60.0139939727,FEMA4ImagesEEG,001,100133,
AFNE01.JPG,AFNE01.JPG,AFNE01.JPG,AFNE01.JPG,AFNE01.JPG,AFNE01.JPG,,,,,,,,,,,,,5,4,54,9,,,,,,,,,,,AMNE12.jpg,AMNE05.jpg,AMSA19.jpg,AMSA14.jpg,AMNE12.jpg,MN,1,num_8,32,num_6,0.516820391873,,,2017_Apr_07_1857,60.0139939727,FEMA4ImagesEEG,001,100133,
AFNE01.JPG,AFNE01.JPG,AFNE01.JPG,AFNE01.JPG,AFNE01.JPG,AFNE01.JPG,,,,,,,,,,,,,5,5,55,3,,,,,,,,,,,AMSA05.jpg,AMNE10.jpg,AMSA10.jpg,AMNE05.jpg,AMNE10.jpg,MN,1,num_6,32,num_2,0.750188033562,,,2017_Apr_07_1857,60.0139939727,FEMA4ImagesEEG,001,100133,
AFNE01.JPG,AFNE01.JPG,AFNE01.JPG,AFNE01.JPG,AFNE01.JPG,AFNE01.JPG,,,,,,,,,,,,,5,6,56,7,,,,,,,,,,,AMNE09.jpg,AMSA02.jpg,AMNE16.jpg,AMSA03.jpg,AMNE16.jpg,MN,1,num_2,32,num_8,1.00016550161,,,2017_Apr_07_1857,60.0139939727,FEMA4ImagesEEG,001,100133,
AFNE01.JPG,AFNE01.JPG,AFNE01.JPG,AFNE01.JPG,AFNE01.JPG,AFNE01.JPG,,,,,,,,,,,,,5,7,57,4,,,,,,,,,,,AMNE07.jpg,AMSA15.jpg,AMNE03.jpg,AMSA18.jpg,AMNE07.jpg,MN,1,num_8,32,num_4,1.48343748297,,,2017_Apr_07_1857,60.0139939727,FEMA4ImagesEEG,001,100133,
AFNE01.JPG,AFNE01.JPG,AFNE01.JPG,AFNE01.JPG,AFNE01.JPG,AFNE01.JPG,,,,,,,,,,,,,5,8,58,6,,,,,,,,,,,AMSA09.jpg,AMNE12.jpg,AMNE15.jpg,AMSA17.jpg,AMSA09.jpg,MS,2,num_8,16,num_8,0.466804563301,,,2017_Apr_07_1857,60.0139939727,FEMA4ImagesEEG,001,100133,
AFNE01.JPG,AFNE01.JPG,AFNE01.JPG,AFNE01.JPG,AFNE01.JPG,AFNE01.JPG,,,,,,,,,,,,,5,9,59,8,,,,,,,,,,,AMNE19.jpg,AMNE08.jpg,AMSA15.jpg,AMSA16.jpg,AMSA15.jpg,MS,2,num_2,16,num_2,0.466807129327,,,2017_Apr_07_1857,60.0139939727,FEMA4ImagesEEG,001,100133,
,,,,,,,,,,,,,,,,,,,,,,,,,,,,,,,,,,,,,,,,,,,space,68.1279427467,2017_Apr_07_1857,60.0139939727,FEMA4ImagesEEG,001,100133,
AFNE01.JPG,AFNE01.JPG,AFNE01.JPG,AFNE01.JPG,AFNE01.JPG,AFNE01.JPG,,,,,,,,,,,,,,,,,0,0,0,4,,,,,,,AFNE20.jpg,AFNE02.jpg,AFSA14.jpg,AFSA07.jpg,AFNE02.jpg,FN,3,num_6,32,num_8,0.68348443904,,,2017_Apr_07_1857,60.0139939727,FEMA4ImagesEEG,001,100133,
AFNE01.JPG,AFNE01.JPG,AFNE01.JPG,AFNE01.JPG,AFNE01.JPG,AFNE01.JPG,,,,,,,,,,,,,,,,,0,1,1,2,,,,,,,AFNE08.jpg,AFSA16.jpg,AFSA20.jpg,AFNE07.jpg,AFNE08.jpg,FN,3,num_8,32,num_2,1.23345456226,,,2017_Apr_07_1857,60.0139939727,FEMA4ImagesEEG,001,100133,
AFNE01.JPG,AFNE01.JPG,AFNE01.JPG,AFNE01.JPG,AFNE01.JPG,AFNE01.JPG,,,,,,,,,,,,,,,,,0,2,2,7,,,,,,,AFNE04.jpg,AFNE16.jpg,AFSA11.jpg,AFSA09.jpg,AFSA09.jpg,FS,4,num_4,16,num_4,0.516758488957,,,2017_Apr_07_1857,60.0139939727,FEMA4ImagesEEG,001,100133,
AFNE01.JPG,AFNE01.JPG,AFNE01.JPG,AFNE01.JPG,AFNE01.JPG,AFNE01.JPG,,,,,,,,,,,,,,,,,0,3,3,5,,,,,,,AFNE04.jpg,AFNE03.jpg,AFSA11.jpg,AFSA07.jpg,AFNE04.jpg,FN,3,num_8,32,num_2,0.500175284222,,,2017_Apr_07_1857,60.0139939727,FEMA4ImagesEEG,001,100133,
AFNE01.JPG,AFNE01.JPG,AFNE01.JPG,AFNE01.JPG,AFNE01.JPG,AFNE01.JPG,,,,,,,,,,,,,,,,,0,4,4,1,,,,,,,AFNE07.jpg,AFSA15.jpg,AFSA02.jpg,AFNE18.jpg,AFSA15.jpg,FS,4,num_6,32,num_4,0.683464232599,,,2017_Apr_07_1857,60.0139939727,FEMA4ImagesEEG,001,100133,
AFNE01.JPG,AFNE01.JPG,AFNE01.JPG,AFNE01.JPG,AFNE01.JPG,AFNE01.JPG,,,,,,,,,,,,,,,,,0,5,5,6,,,,,,,AFNE13.jpg,AFSA18.jpg,AFSA02.jpg,AFNE17.jpg,AFNE13.jpg,FN,3,num_8,32,num_6,0.516820391873,,,2017_Apr_07_1857,60.0139939727,FEMA4ImagesEEG,001,100133,
AFNE01.JPG,AFNE01.JPG,AFNE01.JPG,AFNE01.JPG,AFNE01.JPG,AFNE01.JPG,,,,,,,,,,,,,,,,,0,6,6,0,,,,,,,AFNE13.jpg,AFSA01.jpg,AFNE04.jpg,AFSA13.jpg,AFSA13.jpg,FS,4,num_4,32,num_8,0.833442759234,,,2017_Apr_07_1857,60.0139939727,FEMA4ImagesEEG,001,100133,
AFNE01.JPG,AFNE01.JPG,AFNE01.JPG,AFNE01.JPG,AFNE01.JPG,AFNE01.JPG,,,,,,,,,,,,,,,,,0,7,7,8,,,,,,,AFNE06.jpg,AFSA20.jpg,AFSA09.jpg,AFNE02.jpg,AFNE02.jpg,FN,3,num_4,32,num_2,1.30011774343,,,2017_Apr_07_1857,60.0139939727,FEMA4ImagesEEG,001,100133,
AFNE01.JPG,AFNE01.JPG,AFNE01.JPG,AFNE01.JPG,AFNE01.JPG,AFNE01.JPG,,,,,,,,,,,,,,,,,0,8,8,3,,,,,,,AFNE02.jpg,AFSA17.jpg,AFSA03.jpg,AFNE11.jpg,AFNE11.jpg,FN,3,num_4,32,num_6,0.483491687803,,,2017_Apr_07_1857,60.0139939727,FEMA4ImagesEEG,001,100133,
AFNE01.JPG,AFNE01.JPG,AFNE01.JPG,AFNE01.JPG,AFNE01.JPG,AFNE01.JPG,,,,,,,,,,,,,,,,,0,9,9,9,,,,,,,AFNE16.jpg,AFSA19.jpg,AFSA18.jpg,AFNE08.jpg,AFNE08.jpg,FN,3,num_4,32,num_8,0.633493628353,,,2017_Apr_07_1857,60.0139939727,FEMA4ImagesEEG,001,100133,
AFNE01.JPG,AFNE01.JPG,AFNE01.JPG,AFNE01.JPG,AFNE01.JPG,AFNE01.JPG,,,,,,,,,,,,,,,,,1,0,10,6,,,,,,,AFSA07.jpg,AFSA20.jpg,AFNE14.jpg,AFNE10.jpg,AFNE10.jpg,FN,3,num_4,32,num_2,0.750207919627,,,2017_Apr_07_1857,60.0139939727,FEMA4ImagesEEG,001,100133,
AFNE01.JPG,AFNE01.JPG,AFNE01.JPG,AFNE01.JPG,AFNE01.JPG,AFNE01.JPG,,,,,,,,,,,,,,,,,1,1,11,9,,,,,,,AFSA14.jpg,AFNE13.jpg,AFSA18.jpg,AFNE15.jpg,AFNE15.jpg,FN,3,num_4,16,num_4,0.666834520409,,,2017_Apr_07_1857,60.0139939727,FEMA4ImagesEEG,001,100133,
AFNE01.JPG,AFNE01.JPG,AFNE01.JPG,AFNE01.JPG,AFNE01.JPG,AFNE01.JPG,,,,,,,,,,,,,,,,,1,2,12,7,,,,,,,AFNE08.jpg,AFSA04.jpg,AFNE02.jpg,AFSA16.jpg,AFSA04.jpg,FS,4,num_6,16,num_6,0.516823919956,,,2017_Apr_07_1857,60.0139939727,FEMA4ImagesEEG,001,100133,
AFNE01.JPG,AFNE01.JPG,AFNE01.JPG,AFNE01.JPG,AFNE01.JPG,AFNE01.JPG,,,,,,,,,,,,,,,,,1,3,13,0,,,,,,,AFSA02.jpg,AFSA13.jpg,AFNE07.jpg,AFNE02.jpg,AFNE02.jpg,FN,3,num_4,32,num_8,0.583517571678,,,2017_Apr_07_1857,60.0139939727,FEMA4ImagesEEG,001,100133,
AFNE01.JPG,AFNE01.JPG,AFNE01.JPG,AFNE01.JPG,AFNE01.JPG,AFNE01.JPG,,,,,,,,,,,,,,,,,1,4,14,2,,,,,,,AFSA07.jpg,AFSA03.jpg,AFNE05.jpg,AFNE19.jpg,AFNE05.jpg,FN,3,num_2,16,num_2,1.13347037463,,,2017_Apr_07_1857,60.0139939727,FEMA4ImagesEEG,001,100133,
AFNE01.JPG,AFNE01.JPG,AFNE01.JPG,AFNE01.JPG,AFNE01.JPG,AFNE01.JPG,,,,,,,,,,,,,,,,,1,5,15,4,,,,,,,AFNE14.jpg,AFSA17.jpg,AFNE07.jpg,AFSA15.jpg,AFNE07.jpg,FN,3,num_2,32,num_8,0.850172862643,,,2017_Apr_07_1857,60.0139939727,FEMA4ImagesEEG,001,100133,
AFNE01.JPG,AFNE01.JPG,AFNE01.JPG,AFNE01.JPG,AFNE01.JPG,AFNE01.JPG,,,,,,,,,,,,,,,,,1,6,16,5,,,,,,,AFSA05.jpg,AFSA08.jpg,AFNE02.jpg,AFNE19.jpg,AFNE19.jpg,FN,3,num_4,32,num_2,1.03349677147,,,2017_Apr_07_1857,60.0139939727,FEMA4ImagesEEG,001,100133,
AFNE01.JPG,AFNE01.JPG,AFNE01.JPG,AFNE01.JPG,AFNE01.JPG,AFNE01.JPG,,,,,,,,,,,,,,,,,1,7,17,3,,,,,,,AFNE13.jpg,AFSA11.jpg,AFSA17.jpg,AFNE09.jpg,AFNE09.jpg,FN,3,num_4,32,num_6,0.650169847533,,,2017_Apr_07_1857,60.0139939727,FEMA4ImagesEEG,001,100133,
AFNE01.JPG,AFNE01.JPG,AFNE01.JPG,AFNE01.JPG,AFNE01.JPG,AFNE01.JPG,,,,,,,,,,,,,,,,,1,8,18,1,,,,,,,AFSA16.jpg,AFSA10.jpg,AFNE14.jpg,AFNE04.jpg,AFNE04.jpg,FN,3,num_4,32,num_2,0.43353038514,,,2017_Apr_07_1857,60.0139939727,FEMA4ImagesEEG,001,100133,
AFNE01.JPG,AFNE01.JPG,AFNE01.JPG,AFNE01.JPG,AFNE01.JPG,AFNE01.JPG,,,,,,,,,,,,,,,,,1,9,19,8,,,,,,,AFSA18.jpg,AFNE09.jpg,AFNE03.jpg,AFSA05.jpg,AFSA05.jpg,FS,4,num_4,32,num_8,0.58351179841,,,2017_Apr_07_1857,60.0139939727,FEMA4ImagesEEG,001,100133,
AFNE01.JPG,AFNE01.JPG,AFNE01.JPG,AFNE01.JPG,AFNE01.JPG,AFNE01.JPG,,,,,,,,,,,,,,,,,2,0,20,0,,,,,,,AFNE14.jpg,AFNE15.jpg,AFSA19.jpg,AFSA13.jpg,AFNE15.jpg,FN,3,num_6,16,num_6,0.583492874634,,,2017_Apr_07_1857,60.0139939727,FEMA4ImagesEEG,001,100133,
AFNE01.JPG,AFNE01.JPG,AFNE01.JPG,AFNE01.JPG,AFNE01.JPG,AFNE01.JPG,,,,,,,,,,,,,,,,,2,1,21,7,,,,,,,AFSA11.jpg,AFSA16.jpg,AFNE13.jpg,AFNE12.jpg,AFNE12.jpg,FN,3,num_4,32,num_2,1.23310174863,,,2017_Apr_07_1857,60.0139939727,FEMA4ImagesEEG,001,100133,
AFNE01.JPG,AFNE01.JPG,AFNE01.JPG,AFNE01.JPG,AFNE01.JPG,AFNE01.JPG,,,,,,,,,,,,,,,,,2,2,22,4,,,,,,,AFNE09.jpg,AFSA10.jpg,AFNE14.jpg,AFSA19.jpg,AFSA10.jpg,FS,4,num_6,32,num_8,1.00012508826,,,2017_Apr_07_1857,60.0139939727,FEMA4ImagesEEG,001,100133,
AFNE01.JPG,AFNE01.JPG,AFNE01.JPG,AFNE01.JPG,AFNE01.JPG,AFNE01.JPG,,,,,,,,,,,,,,,,,2,3,23,8,,,,,,,AFNE10.jpg,AFNE18.jpg,AFSA18.jpg,AFSA03.jpg,AFNE18.jpg,FN,3,num_6,32,num_4,0.799948553322,,,2017_Apr_07_1857,60.0139939727,FEMA4ImagesEEG,001,100133,
AFNE01.JPG,AFNE01.JPG,AFNE01.JPG,AFNE01.JPG,AFNE01.JPG,AFNE01.JPG,,,,,,,,,,,,,,,,,2,4,24,5,,,,,,,AFSA03.jpg,AFSA17.jpg,AFNE03.jpg,AFNE06.jpg,AFSA17.jpg,FS,4,num_6,16,num_6,1.01676698867,,,2017_Apr_07_1857,60.0139939727,FEMA4ImagesEEG,001,100133,
AFNE01.JPG,AFNE01.JPG,AFNE01.JPG,AFNE01.JPG,AFNE01.JPG,AFNE01.JPG,,,,,,,,,,,,,,,,,2,5,25,1,,,,,,,AFSA05.jpg,AFNE03.jpg,AFNE18.jpg,AFSA18.jpg,AFNE03.jpg,FN,3,num_6,32,num_8,0.733476853464,,,2017_Apr_07_1857,60.0139939727,FEMA4ImagesEEG,001,100133,
AFNE01.JPG,AFNE01.JPG,AFNE01.JPG,AFNE01.JPG,AFNE01.JPG,AFNE01.JPG,,,,,,,,,,,,,,,,,2,6,26,3,,,,,,,AFSA09.jpg,AFNE15.jpg,AFNE20.jpg,AFSA11.jpg,AFSA09.jpg,FS,4,num_8,16,num_8,1.066741121,,,2017_Apr_07_1857,60.0139939727,FEMA4ImagesEEG,001,100133,
AFNE01.JPG,AFNE01.JPG,AFNE01.JPG,AFNE01.JPG,AFNE01.JPG,AFNE01.JPG,,,,,,,,,,,,,,,,,2,7,27,9,,,,,,,AFNE06.jpg,AFSA12.jpg,AFNE14.jpg,AFSA06.jpg,AFNE06.jpg,FN,3,num_8,32,num_2,1.21670842171,,,2017_Apr_07_1857,60.0139939727,FEMA4ImagesEEG,001,100133,
AFNE01.JPG,AFNE01.JPG,AFNE01.JPG,AFNE01.JPG,AFNE01.JPG,AFNE01.JPG,,,,,,,,,,,,,,,,,2,8,28,6,,,,,,,AFSA20.jpg,AFNE06.jpg,AFNE02.jpg,AFSA19.jpg,AFNE02.jpg,FN,3,num_2,32,num_6,0.700159375556,,,2017_Apr_07_1857,60.0139939727,FEMA4ImagesEEG,001,100133,
AFNE01.JPG,AFNE01.JPG,AFNE01.JPG,AFNE01.JPG,AFNE01.JPG,AFNE01.JPG,,,,,,,,,,,,,,,,,2,9,29,2,,,,,,,AFNE19.jpg,AFSA09.jpg,AFNE03.jpg,AFSA10.jpg,AFNE03.jpg,FN,3,num_2,32,num_8,0.666792824399,,,2017_Apr_07_1857,60.0139939727,FEMA4ImagesEEG,001,100133,
AFNE01.JPG,AFNE01.JPG,AFNE01.JPG,AFNE01.JPG,AFNE01.JPG,AFNE01.JPG,,,,,,,,,,,,,,,,,3,0,30,7,,,,,,,AFNE05.jpg,AFSA01.jpg,AFSA17.jpg,AFNE15.jpg,AFSA01.jpg,FS,4,num_6,32,num_2,0.60014471761,,,2017_Apr_07_1857,60.0139939727,FEMA4ImagesEEG,001,100133,
AFNE01.JPG,AFNE01.JPG,AFNE01.JPG,AFNE01.JPG,AFNE01.JPG,AFNE01.JPG,,,,,,,,,,,,,,,,,3,1,31,2,,,,,,,AFSA06.jpg,AFNE06.jpg,AFSA17.jpg,AFNE20.jpg,AFNE06.jpg,FN,3,num_6,32,num_4,0.53350078105,,,2017_Apr_07_1857,60.0139939727,FEMA4ImagesEEG,001,100133,
AFNE01.JPG,AFNE01.JPG,AFNE01.JPG,AFNE01.JPG,AFNE01.JPG,AFNE01.JPG,,,,,,,,,,,,,,,,,3,2,32,5,,,,,,,AFSA18.jpg,AFNE20.jpg,AFSA08.jpg,AFNE06.jpg,AFSA08.jpg,FS,4,num_2,32,num_6,0.316801019246,,,2017_Apr_07_1857,60.0139939727,FEMA4ImagesEEG,001,100133,
AFNE01.JPG,AFNE01.JPG,AFNE01.JPG,AFNE01.JPG,AFNE01.JPG,AFNE01.JPG,,,,,,,,,,,,,,,,,3,3,33,0,,,,,,,AFNE14.jpg,AFSA12.jpg,AFSA19.jpg,AFNE16.jpg,AFSA19.jpg,FS,4,num_2,16,num_2,0.550147812814,,,2017_Apr_07_1857,60.0139939727,FEMA4ImagesEEG,001,100133,
AFNE01.JPG,AFNE01.JPG,AFNE01.JPG,AFNE01.JPG,AFNE01.JPG,AFNE01.JPG,,,,,,,,,,,,,,,,,3,4,34,9,,,,,,,AFNE11.jpg,AFSA10.jpg,AFNE02.jpg,AFSA12.jpg,AFSA10.jpg,FS,4,num_6,32,num_8,0.433519800659,,,2017_Apr_07_1857,60.0139939727,FEMA4ImagesEEG,001,100133,
AFNE01.JPG,AFNE01.JPG,AFNE01.JPG,AFNE01.JPG,AFNE01.JPG,AFNE01.JPG,,,,,,,,,,,,,,,,,3,5,35,4,,,,,,,AFSA19.jpg,AFNE18.jpg,AFNE02.jpg,AFSA03.jpg,AFNE18.jpg,FN,3,num_6,16,num_6,0.383491784101,,,2017_Apr_07_1857,60.0139939727,FEMA4ImagesEEG,001,100133,
AFNE01.JPG,AFNE01.JPG,AFNE01.JPG,AFNE01.JPG,AFNE01.JPG,AFNE01.JPG,,,,,,,,,,,,,,,,,3,6,36,1,,,,,,,AFNE14.jpg,AFSA03.jpg,AFNE10.jpg,AFSA01.jpg,AFSA03.jpg,FS,4,num_6,32,num_4,0.466665041633,,,2017_Apr_07_1857,60.0139939727,FEMA4ImagesEEG,001,100133,
AFNE01.JPG,AFNE01.JPG,AFNE01.JPG,AFNE01.JPG,AFNE01.JPG,AFNE01.JPG,,,,,,,,,,,,,,,,,3,7,37,8,,,,,,,AFNE17.jpg,AFSA12.jpg,AFSA19.jpg,AFNE07.jpg,AFNE17.jpg,FN,3,num_8,16,num_8,0.500153794652,,,2017_Apr_07_1857,60.0139939727,FEMA4ImagesEEG,001,100133,
AFNE01.JPG,AFNE01.JPG,AFNE01.JPG,AFNE01.JPG,AFNE01.JPG,AFNE01.JPG,,,,,,,,,,,,,,,,,3,8,38,3,,,,,,,AFSA17.jpg,AFNE02.jpg,AFNE08.jpg,AFSA20.jpg,AFNE02.jpg,FN,3,num_6,16,num_6,0.466822845396,,,2017_Apr_07_1857,60.0139939727,FEMA4ImagesEEG,001,100133,
AFNE01.JPG,AFNE01.JPG,AFNE01.JPG,AFNE01.JPG,AFNE01.JPG,AFNE01.JPG,,,,,,,,,,,,,,,,,3,9,39,6,,,,,,,AFSA02.jpg,AFNE09.jpg,AFSA20.jpg,AFNE01.jpg,AFSA02.jpg,FS,4,num_8,32,num_2,1.18346471363,,,2017_Apr_07_1857,60.0139939727,FEMA4ImagesEEG,001,100133,
AFNE01.JPG,AFNE01.JPG,AFNE01.JPG,AFNE01.JPG,AFNE01.JPG,AFNE01.JPG,,,,,,,,,,,,,,,,,4,0,40,9,,,,,,,AFNE04.jpg,AFSA13.jpg,AFNE14.jpg,AFSA07.jpg,AFNE04.jpg,FN,3,num_8,16,num_8,0.86677178368,,,2017_Apr_07_1857,60.0139939727,FEMA4ImagesEEG,001,100133,
AFNE01.JPG,AFNE01.JPG,AFNE01.JPG,AFNE01.JPG,AFNE01.JPG,AFNE01.JPG,,,,,,,,,,,,,,,,,4,1,41,3,,,,,,,AFSA14.jpg,AFNE10.jpg,AFSA16.jpg,AFNE17.jpg,AFNE10.jpg,FN,3,num_6,32,num_4,0.816792840138,,,2017_Apr_07_1857,60.0139939727,FEMA4ImagesEEG,001,100133,
AFNE01.JPG,AFNE01.JPG,AFNE01.JPG,AFNE01.JPG,AFNE01.JPG,AFNE01.JPG,,,,,,,,,,,,,,,,,4,2,42,8,,,,,,,AFNE17.jpg,AFNE18.jpg,AFSA08.jpg,AFSA02.jpg,AFNE18.jpg,FN,3,num_6,32,num_8,0.850130204111,,,2017_Apr_07_1857,60.0139939727,FEMA4ImagesEEG,001,100133,
AFNE01.JPG,AFNE01.JPG,AFNE01.JPG,AFNE01.JPG,AFNE01.JPG,AFNE01.JPG,,,,,,,,,,,,,,,,,4,3,43,2,,,,,,,AFSA04.jpg,AFNE13.jpg,AFSA02.jpg,AFNE04.jpg,AFNE13.jpg,FN,3,num_6,16,num_6,0.850091715343,,,2017_Apr_07_1857,60.0139939727,FEMA4ImagesEEG,001,100133,
AFNE01.JPG,AFNE01.JPG,AFNE01.JPG,AFNE01.JPG,AFNE01.JPG,AFNE01.JPG,,,,,,,,,,,,,,,,,4,4,44,6,,,,,,,AFSA12.jpg,AFNE04.jpg,AFSA03.jpg,AFNE18.jpg,AFNE18.jpg,FN,3,num_4,32,num_8,1.11677009985,,,2017_Apr_07_1857,60.0139939727,FEMA4ImagesEEG,001,100133,
AFNE01.JPG,AFNE01.JPG,AFNE01.JPG,AFNE01.JPG,AFNE01.JPG,AFNE01.JPG,,,,,,,,,,,,,,,,,4,5,45,0,,,,,,,AFSA20.jpg,AFNE05.jpg,AFSA15.jpg,AFNE20.jpg,AFSA20.jpg,FS,4,num_8,32,num_2,1.00011931523,,,2017_Apr_07_1857,60.0139939727,FEMA4ImagesEEG,001,100133,
AFNE01.JPG,AFNE01.JPG,AFNE01.JPG,AFNE01.JPG,AFNE01.JPG,AFNE01.JPG,,,,,,,,,,,,,,,,,4,6,46,7,,,,,,,AFNE18.jpg,AFNE09.jpg,AFSA10.jpg,AFSA04.jpg,AFNE09.jpg,FN,3,num_6,16,num_6,1.08347731875,,,2017_Apr_07_1857,60.0139939727,FEMA4ImagesEEG,001,100133,
AFNE01.JPG,AFNE01.JPG,AFNE01.JPG,AFNE01.JPG,AFNE01.JPG,AFNE01.JPG,,,,,,,,,,,,,,,,,4,7,47,4,,,,,,,AFSA18.jpg,AFSA08.jpg,AFNE04.jpg,AFNE16.jpg,AFNE04.jpg,FN,3,num_2,32,num_4,0.400188210187,,,2017_Apr_07_1857,60.0139939727,FEMA4ImagesEEG,001,100133,
AFNE01.JPG,AFNE01.JPG,AFNE01.JPG,AFNE01.JPG,AFNE01.JPG,AFNE01.JPG,,,,,,,,,,,,,,,,,4,8,48,1,,,,,,,AFNE17.jpg,AFSA15.jpg,AFNE16.jpg,AFSA02.jpg,AFSA02.jpg,FS,4,num_4,32,num_8,0.550015347544,,,2017_Apr_07_1857,60.0139939727,FEMA4ImagesEEG,001,100133,
AFNE01.JPG,AFNE01.JPG,AFNE01.JPG,AFNE01.JPG,AFNE01.JPG,AFNE01.JPG,,,,,,,,,,,,,,,,,4,9,49,5,,,,,,,AFNE17.jpg,AFSA17.jpg,AFSA09.jpg,AFNE09.jpg,AFSA17.jpg,FS,4,num_6,32,num_2,0.600182565162,,,2017_Apr_07_1857,60.0139939727,FEMA4ImagesEEG,001,100133,
AFNE01.JPG,AFNE01.JPG,AFNE01.JPG,AFNE01.JPG,AFNE01.JPG,AFNE01.JPG,,,,,,,,,,,,,,,,,5,0,50,7,,,,,,,AFNE12.jpg,AFSA16.jpg,AFSA19.jpg,AFNE10.jpg,AFSA19.jpg,FS,4,num_2,32,num_8,0.76678150217,,,2017_Apr_07_1857,60.0139939727,FEMA4ImagesEEG,001,100133,
AFNE01.JPG,AFNE01.JPG,AFNE01.JPG,AFNE01.JPG,AFNE01.JPG,AFNE01.JPG,,,,,,,,,,,,,,,,,5,1,51,4,,,,,,,AFNE06.jpg,AFNE02.jpg,AFSA07.jpg,AFSA02.jpg,AFSA07.jpg,FS,4,num_2,16,num_2,0.5835156471,,,2017_Apr_07_1857,60.0139939727,FEMA4ImagesEEG,001,100133,
AFNE01.JPG,AFNE01.JPG,AFNE01.JPG,AFNE01.JPG,AFNE01.JPG,AFNE01.JPG,,,,,,,,,,,,,,,,,5,2,52,8,,,,,,,AFSA10.jpg,AFNE08.jpg,AFSA07.jpg,AFNE20.jpg,AFNE20.jpg,FN,3,num_4,16,num_4,0.516832579859,,,2017_Apr_07_1857,60.0139939727,FEMA4ImagesEEG,001,100133,
AFNE01.JPG,AFNE01.JPG,AFNE01.JPG,AFNE01.JPG,AFNE01.JPG,AFNE01.JPG,,,,,,,,,,,,,,,,,5,3,53,0,,,,,,,AFNE16.jpg,AFSA09.jpg,AFSA04.jpg,AFNE12.jpg,AFSA09.jpg,FS,4,num_6,16,num_6,0.450142777292,,,2017_Apr_07_1857,60.0139939727,FEMA4ImagesEEG,001,100133,
AFNE01.JPG,AFNE01.JPG,AFNE01.JPG,AFNE01.JPG,AFNE01.JPG,AFNE01.JPG,,,,,,,,,,,,,,,,,5,4,54,9,,,,,,,AFNE08.jpg,AFNE18.jpg,AFSA09.jpg,AFSA15.jpg,AFSA09.jpg,FS,4,num_2,32,num_4,0.550193999428,,,2017_Apr_07_1857,60.0139939727,FEMA4ImagesEEG,001,100133,
AFNE01.JPG,AFNE01.JPG,AFNE01.JPG,AFNE01.JPG,AFNE01.JPG,AFNE01.JPG,,,,,,,,,,,,,,,,,5,5,55,5,,,,,,,AFSA15.jpg,AFSA08.jpg,AFNE05.jpg,AFNE02.jpg,AFSA15.jpg,FS,4,num_8,16,num_8,0.600184810348,,,2017_Apr_07_1857,60.0139939727,FEMA4ImagesEEG,001,100133,
AFNE01.JPG,AFNE01.JPG,AFNE01.JPG,AFNE01.JPG,AFNE01.JPG,AFNE01.JPG,,,,,,,,,,,,,,,,,5,6,56,1,,,,,,,AFNE17.jpg,AFNE11.jpg,AFSA02.jpg,AFSA11.jpg,AFSA11.jpg,FS,4,num_4,16,num_4,1.06675844104,,,2017_Apr_07_1857,60.0139939727,FEMA4ImagesEEG,001,100133,
AFNE01.JPG,AFNE01.JPG,AFNE01.JPG,AFNE01.JPG,AFNE01.JPG,AFNE01.JPG,,,,,,,,,,,,,,,,,5,7,57,3,,,,,,,AFSA08.jpg,AFSA02.jpg,AFNE12.jpg,AFNE13.jpg,AFNE12.jpg,FN,3,num_2,32,num_6,0.533466461813,,,2017_Apr_07_1857,60.0139939727,FEMA4ImagesEEG,001,100133,
AFNE01.JPG,AFNE01.JPG,AFNE01.JPG,AFNE01.JPG,AFNE01.JPG,AFNE01.JPG,,,,,,,,,,,,,,,,,5,8,58,2,,,,,,,AFSA05.jpg,AFNE06.jpg,AFSA15.jpg,AFNE18.jpg,AFNE18.jpg,FN,3,num_4,32,num_8,0.650146433618,,,2017_Apr_07_1857,60.0139939727,FEMA4ImagesEEG,001,100133,
AFNE01.JPG,AFNE01.JPG,AFNE01.JPG,AFNE01.JPG,AFNE01.JPG,AFNE01.JPG,,,,,,,,,,,,,,,,,5,9,59,6,,,,,,,AFSA07.jpg,AFNE13.jpg,AFNE12.jpg,AFSA04.jpg,AFSA04.jpg,FS,4,num_4,32,num_2,0.450248942245,,,2017_Apr_07_1857,60.0139939727,FEMA4ImagesEEG,001,100133,
,,,,,,,,,,,,,,,,,,,,,,,,,,,,,,,,,,,,,,,,,,,space,35.4977536995,2017_Apr_07_1857,60.0139939727,FEMA4ImagesEEG,001,100133,
AFNE01.JPG,AFNE01.JPG,AFNE01.JPG,AFNE01.JPG,AFNE01.JPG,AFNE01.JPG,,,,,,,,,,,,,,,,,,,,,0,0,0,6,,,AMNE12.jpg,AMSA11.jpg,AMSA06.jpg,AMNE05.jpg,AMSA11.jpg,MS,2,num_6,32,num_8,0.900152768474,,,2017_Apr_07_1857,60.0139939727,FEMA4ImagesEEG,001,100133,
AFNE01.JPG,AFNE01.JPG,AFNE01.JPG,AFNE01.JPG,AFNE01.JPG,AFNE01.JPG,,,,,,,,,,,,,,,,,,,,,0,1,1,8,,,AMSA03.jpg,AMNE07.jpg,AMSA17.jpg,AMNE08.jpg,AMNE07.jpg,MN,1,num_6,32,num_4,0.383504292928,,,2017_Apr_07_1857,60.0139939727,FEMA4ImagesEEG,001,100133,
AFNE01.JPG,AFNE01.JPG,AFNE01.JPG,AFNE01.JPG,AFNE01.JPG,AFNE01.JPG,,,,,,,,,,,,,,,,,,,,,0,2,2,9,,,AMNE15.jpg,AMNE19.jpg,AMSA11.jpg,AMSA14.jpg,AMNE15.jpg,MN,1,num_8,32,num_6,0.266814698698,,,2017_Apr_07_1857,60.0139939727,FEMA4ImagesEEG,001,100133,
AFNE01.JPG,AFNE01.JPG,AFNE01.JPG,AFNE01.JPG,AFNE01.JPG,AFNE01.JPG,,,,,,,,,,,,,,,,,,,,,0,3,3,3,,,AMNE05.jpg,AMSA09.jpg,AMNE17.jpg,AMSA18.jpg,AMSA18.jpg,MS,2,num_4,32,num_2,0.60017775395,,,2017_Apr_07_1857,60.0139939727,FEMA4ImagesEEG,001,100133,
AFNE01.JPG,AFNE01.JPG,AFNE01.JPG,AFNE01.JPG,AFNE01.JPG,AFNE01.JPG,,,,,,,,,,,,,,,,,,,,,0,4,4,1,,,AMSA16.jpg,AMNE03.jpg,AMSA18.jpg,AMNE08.jpg,AMSA16.jpg,MS,2,num_8,32,num_4,1.03334474098,,,2017_Apr_07_1857,60.0139939727,FEMA4ImagesEEG,001,100133,
AFNE01.JPG,AFNE01.JPG,AFNE01.JPG,AFNE01.JPG,AFNE01.JPG,AFNE01.JPG,,,,,,,,,,,,,,,,,,,,,0,5,5,2,,,AMSA11.jpg,AMSA15.jpg,AMNE07.jpg,AMNE12.jpg,AMSA15.jpg,MS,2,num_6,16,num_6,0.533484423067,,,2017_Apr_07_1857,60.0139939727,FEMA4ImagesEEG,001,100133,
AFNE01.JPG,AFNE01.JPG,AFNE01.JPG,AFNE01.JPG,AFNE01.JPG,AFNE01.JPG,,,,,,,,,,,,,,,,,,,,,0,6,6,0,,,AMNE19.jpg,AMNE03.jpg,AMSA03.jpg,AMSA05.jpg,AMSA05.jpg,MS,2,num_4,32,num_8,1.08344203723,,,2017_Apr_07_1857,60.0139939727,FEMA4ImagesEEG,001,100133,
AFNE01.JPG,AFNE01.JPG,AFNE01.JPG,AFNE01.JPG,AFNE01.JPG,AFNE01.JPG,,,,,,,,,,,,,,,,,,,,,0,7,7,4,,,AMSA07.jpg,AMNE18.jpg,AMNE02.jpg,AMSA04.jpg,AMNE18.jpg,MN,1,num_6,32,num_4,0.633465723833,,,2017_Apr_07_1857,60.0139939727,FEMA4ImagesEEG,001,100133,
AFNE01.JPG,AFNE01.JPG,AFNE01.JPG,AFNE01.JPG,AFNE01.JPG,AFNE01.JPG,,,,,,,,,,,,,,,,,,,,,0,8,8,7,,,AMSA06.jpg,AMNE20.jpg,AMNE12.jpg,AMSA10.jpg,AMNE20.jpg,MN,1,num_6,32,num_8,1.23345456226,,,2017_Apr_07_1857,60.0139939727,FEMA4ImagesEEG,001,100133,
AFNE01.JPG,AFNE01.JPG,AFNE01.JPG,AFNE01.JPG,AFNE01.JPG,AFNE01.JPG,,,,,,,,,,,,,,,,,,,,,0,9,9,5,,,AMSA06.jpg,AMSA02.jpg,AMNE20.jpg,AMNE09.jpg,AMSA06.jpg,MS,2,num_8,32,num_4,0.850151373073,,,2017_Apr_07_1857,60.0139939727,FEMA4ImagesEEG,001,100133,
AFNE01.JPG,AFNE01.JPG,AFNE01.JPG,AFNE01.JPG,AFNE01.JPG,AFNE01.JPG,,,,,,,,,,,,,,,,,,,,,1,0,10,2,,,AMNE08.jpg,AMSA15.jpg,AMSA05.jpg,AMNE02.jpg,AMSA05.jpg,MS,2,num_2,32,num_4,1.36670234357,,,2017_Apr_07_1857,60.0139939727,FEMA4ImagesEEG,001,100133,
AFNE01.JPG,AFNE01.JPG,AFNE01.JPG,AFNE01.JPG,AFNE01.JPG,AFNE01.JPG,,,,,,,,,,,,,,,,,,,,,1,1,11,1,,,AMSA09.jpg,AMNE10.jpg,AMNE08.jpg,AMSA13.jpg,AMSA09.jpg,MS,2,num_8,16,num_8,1.51643037237,,,2017_Apr_07_1857,60.0139939727,FEMA4ImagesEEG,001,100133,
AFNE01.JPG,AFNE01.JPG,AFNE01.JPG,AFNE01.JPG,AFNE01.JPG,AFNE01.JPG,,,,,,,,,,,,,,,,,,,,,1,2,12,6,,,AMSA10.jpg,AMSA17.jpg,AMNE16.jpg,AMNE19.jpg,AMNE16.jpg,MN,1,num_2,16,num_2,0.733569226693,,,2017_Apr_07_1857,60.0139939727,FEMA4ImagesEEG,001,100133,
AFNE01.JPG,AFNE01.JPG,AFNE01.JPG,AFNE01.JPG,AFNE01.JPG,AFNE01.JPG,,,,,,,,,,,,,,,,,,,,,1,3,13,3,,,AMSA18.jpg,AMNE11.jpg,AMSA04.jpg,AMNE20.jpg,AMNE11.jpg,MN,1,num_6,32,num_8,0.800146449823,,,2017_Apr_07_1857,60.0139939727,FEMA4ImagesEEG,001,100133,
AFNE01.JPG,AFNE01.JPG,AFNE01.JPG,AFNE01.JPG,AFNE01.JPG,AFNE01.JPG,,,,,,,,,,,,,,,,,,,,,1,4,14,0,,,AMNE02.jpg,AMNE13.jpg,AMSA15.jpg,AMSA06.jpg,AMNE13.jpg,MN,1,num_6,16,num_6,0.566842635162,,,2017_Apr_07_1857,60.0139939727,FEMA4ImagesEEG,001,100133,
AFNE01.JPG,AFNE01.JPG,AFNE01.JPG,AFNE01.JPG,AFNE01.JPG,AFNE01.JPG,,,,,,,,,,,,,,,,,,,,,1,5,15,4,,,AMNE20.jpg,AMSA02.jpg,AMSA03.jpg,AMNE11.jpg,AMNE11.jpg,MN,1,num_4,32,num_8,0.566817296669,,,2017_Apr_07_1857,60.0139939727,FEMA4ImagesEEG,001,100133,
AFNE01.JPG,AFNE01.JPG,AFNE01.JPG,AFNE01.JPG,AFNE01.JPG,AFNE01.JPG,,,,,,,,,,,,,,,,,,,,,1,6,16,9,,,AMNE20.jpg,AMSA06.jpg,AMSA10.jpg,AMNE14.jpg,AMNE20.jpg,MN,1,num_8,32,num_2,0.816652035806,,,2017_Apr_07_1857,60.0139939727,FEMA4ImagesEEG,001,100133,
AFNE01.JPG,AFNE01.JPG,AFNE01.JPG,AFNE01.JPG,AFNE01.JPG,AFNE01.JPG,,,,,,,,,,,,,,,,,,,,,1,7,17,7,,,AMNE12.jpg,AMSA01.jpg,AMNE14.jpg,AMSA02.jpg,AMNE14.jpg,MN,1,num_2,32,num_4,0.71677016397,,,2017_Apr_07_1857,60.0139939727,FEMA4ImagesEEG,001,100133,
AFNE01.JPG,AFNE01.JPG,AFNE01.JPG,AFNE01.JPG,AFNE01.JPG,AFNE01.JPG,,,,,,,,,,,,,,,,,,,,,1,8,18,5,,,AMNE12.jpg,AMSA05.jpg,AMSA16.jpg,AMNE01.jpg,AMSA16.jpg,MS,2,num_2,32,num_6,0.350206059171,,,2017_Apr_07_1857,60.0139939727,FEMA4ImagesEEG,001,100133,
AFNE01.JPG,AFNE01.JPG,AFNE01.JPG,AFNE01.JPG,AFNE01.JPG,AFNE01.JPG,,,,,,,,,,,,,,,,,,,,,1,9,19,8,,,AMSA15.jpg,AMNE08.jpg,AMSA18.jpg,AMNE18.jpg,AMSA18.jpg,MS,2,num_2,16,num_2,0.816789632896,,,2017_Apr_07_1857,60.0139939727,FEMA4ImagesEEG,001,100133,
AFNE01.JPG,AFNE01.JPG,AFNE01.JPG,AFNE01.JPG,AFNE01.JPG,AFNE01.JPG,,,,,,,,,,,,,,,,,,,,,2,0,20,6,,,AMSA12.jpg,AMNE02.jpg,AMSA11.jpg,AMNE12.jpg,AMSA12.jpg,MS,2,num_8,32,num_6,2.28333022748,,,2017_Apr_07_1857,60.0139939727,FEMA4ImagesEEG,001,100133,
AFNE01.JPG,AFNE01.JPG,AFNE01.JPG,AFNE01.JPG,AFNE01.JPG,AFNE01.JPG,,,,,,,,,,,,,,,,,,,,,2,1,21,7,,,AMSA13.jpg,AMNE20.jpg,AMSA01.jpg,AMNE09.jpg,AMSA01.jpg,MS,2,num_2,32,num_4,0.283495408483,,,2017_Apr_07_1857,60.0139939727,FEMA4ImagesEEG,001,100133,
AFNE01.JPG,AFNE01.JPG,AFNE01.JPG,AFNE01.JPG,AFNE01.JPG,AFNE01.JPG,,,,,,,,,,,,,,,,,,,,,2,2,22,0,,,AMNE09.jpg,AMSA11.jpg,AMSA18.jpg,AMNE17.jpg,AMNE17.jpg,MN,1,num_4,32,num_2,0.733477495145,,,2017_Apr_07_1857,60.0139939727,FEMA4ImagesEEG,001,100133,
AFNE01.JPG,AFNE01.JPG,AFNE01.JPG,AFNE01.JPG,AFNE01.JPG,AFNE01.JPG,,,,,,,,,,,,,,,,,,,,,2,3,23,5,,,AMSA18.jpg,AMNE09.jpg,AMSA14.jpg,AMNE11.jpg,AMNE09.jpg,MN,1,num_6,32,num_4,0.750116829528,,,2017_Apr_07_1857,60.0139939727,FEMA4ImagesEEG,001,100133,
AFNE01.JPG,AFNE01.JPG,AFNE01.JPG,AFNE01.JPG,AFNE01.JPG,AFNE01.JPG,,,,,,,,,,,,,,,,,,,,,2,4,24,9,,,AMNE10.jpg,AMSA14.jpg,AMNE18.jpg,AMSA07.jpg,AMSA14.jpg,MS,2,num_6,16,num_6,0.466847542673,,,2017_Apr_07_1857,60.0139939727,FEMA4ImagesEEG,001,100133,
AFNE01.JPG,AFNE01.JPG,AFNE01.JPG,AFNE01.JPG,AFNE01.JPG,AFNE01.JPG,,,,,,,,,,,,,,,,,,,,,2,5,25,3,,,AMSA17.jpg,AMSA01.jpg,AMNE08.jpg,AMNE02.jpg,AMNE08.jpg,MN,1,num_2,32,num_8,0.983479339397,,,2017_Apr_07_1857,60.0139939727,FEMA4ImagesEEG,001,100133,
AFNE01.JPG,AFNE01.JPG,AFNE01.JPG,AFNE01.JPG,AFNE01.JPG,AFNE01.JPG,,,,,,,,,,,,,,,,,,,,,2,6,26,8,,,AMNE03.jpg,AMNE10.jpg,AMSA06.jpg,AMSA12.jpg,AMSA12.jpg,MS,2,num_4,16,num_4,0.833509472897,,,2017_Apr_07_1857,60.0139939727,FEMA4ImagesEEG,001,100133,
AFNE01.JPG,AFNE01.JPG,AFNE01.JPG,AFNE01.JPG,AFNE01.JPG,AFNE01.JPG,,,,,,,,,,,,,,,,,,,,,2,7,27,4,,,AMSA18.jpg,AMNE10.jpg,AMNE16.jpg,AMSA11.jpg,AMSA18.jpg,MS,2,num_8,16,num_8,0.733545812778,,,2017_Apr_07_1857,60.0139939727,FEMA4ImagesEEG,001,100133,
AFNE01.JPG,AFNE01.JPG,AFNE01.JPG,AFNE01.JPG,AFNE01.JPG,AFNE01.JPG,,,,,,,,,,,,,,,,,,,,,2,8,28,1,,,AMSA01.jpg,AMNE10.jpg,AMNE20.jpg,AMSA06.jpg,AMSA01.jpg,MS,2,num_8,32,num_2,0.500108570326,,,2017_Apr_07_1857,60.0139939727,FEMA4ImagesEEG,001,100133,
AFNE01.JPG,AFNE01.JPG,AFNE01.JPG,AFNE01.JPG,AFNE01.JPG,AFNE01.JPG,,,,,,,,,,,,,,,,,,,,,2,9,29,2,,,AMNE02.jpg,AMSA05.jpg,AMSA06.jpg,AMNE16.jpg,AMNE02.jpg,MN,1,num_8,16,num_8,0.550139473518,,,2017_Apr_07_1857,60.0139939727,FEMA4ImagesEEG,001,100133,
AFNE01.JPG,AFNE01.JPG,AFNE01.JPG,AFNE01.JPG,AFNE01.JPG,AFNE01.JPG,,,,,,,,,,,,,,,,,,,,,3,0,30,0,,,AMSA01.jpg,AMNE07.jpg,AMNE11.jpg,AMSA04.jpg,AMSA04.jpg,MS,2,num_4,16,num_4,0.483470839914,,,2017_Apr_07_1857,60.0139939727,FEMA4ImagesEEG,001,100133,
AFNE01.JPG,AFNE01.JPG,AFNE01.JPG,AFNE01.JPG,AFNE01.JPG,AFNE01.JPG,,,,,,,,,,,,,,,,,,,,,3,1,31,3,,,AMSA15.jpg,AMSA11.jpg,AMNE17.jpg,AMNE11.jpg,AMSA11.jpg,MS,2,num_6,32,num_8,0.433492858429,,,2017_Apr_07_1857,60.0139939727,FEMA4ImagesEEG,001,100133,
AFNE01.JPG,AFNE01.JPG,AFNE01.JPG,AFNE01.JPG,AFNE01.JPG,AFNE01.JPG,,,,,,,,,,,,,,,,,,,,,3,2,32,9,,,AMNE19.jpg,AMSA19.jpg,AMNE03.jpg,AMSA12.jpg,AMNE19.jpg,MN,1,num_8,32,num_6,0.683505287161,,,2017_Apr_07_1857,60.0139939727,FEMA4ImagesEEG,001,100133,
AFNE01.JPG,AFNE01.JPG,AFNE01.JPG,AFNE01.JPG,AFNE01.JPG,AFNE01.JPG,,,,,,,,,,,,,,,,,,,,,3,3,33,5,,,AMSA11.jpg,AMNE06.jpg,AMSA20.jpg,AMNE08.jpg,AMNE08.jpg,MN,1,num_4,16,num_4,0.650005629053,,,2017_Apr_07_1857,60.0139939727,FEMA4ImagesEEG,001,100133,
AFNE01.JPG,AFNE01.JPG,AFNE01.JPG,AFNE01.JPG,AFNE01.JPG,AFNE01.JPG,,,,,,,,,,,,,,,,,,,,,3,4,34,6,,,AMSA19.jpg,AMNE14.jpg,AMSA12.jpg,AMNE11.jpg,AMNE11.jpg,MN,1,num_4,32,num_8,0.750150186243,,,2017_Apr_07_1857,60.0139939727,FEMA4ImagesEEG,001,100133,
AFNE01.JPG,AFNE01.JPG,AFNE01.JPG,AFNE01.JPG,AFNE01.JPG,AFNE01.JPG,,,,,,,,,,,,,,,,,,,,,3,5,35,1,,,AMNE17.jpg,AMSA04.jpg,AMNE03.jpg,AMSA14.jpg,AMNE17.jpg,MN,1,num_8,32,num_6,0.983435398201,,,2017_Apr_07_1857,60.0139939727,FEMA4ImagesEEG,001,100133,
AFNE01.JPG,AFNE01.JPG,AFNE01.JPG,AFNE01.JPG,AFNE01.JPG,AFNE01.JPG,,,,,,,,,,,,,,,,,,,,,3,6,36,7,,,AMNE02.jpg,AMSA14.jpg,AMSA09.jpg,AMNE10.jpg,AMNE10.jpg,MN,1,num_4,16,num_4,0.933468001196,,,2017_Apr_07_1857,60.0139939727,FEMA4ImagesEEG,001,100133,
AFNE01.JPG,AFNE01.JPG,AFNE01.JPG,AFNE01.JPG,AFNE01.JPG,AFNE01.JPG,,,,,,,,,,,,,,,,,,,,,3,7,37,2,,,AMSA09.jpg,AMNE06.jpg,AMNE08.jpg,AMSA14.jpg,AMSA09.jpg,MS,2,num_8,16,num_8,0.916811347008,,,2017_Apr_07_1857,60.0139939727,FEMA4ImagesEEG,001,100133,
AFNE01.JPG,AFNE01.JPG,AFNE01.JPG,AFNE01.JPG,AFNE01.JPG,AFNE01.JPG,,,,,,,,,,,,,,,,,,,,,3,8,38,4,,,AMNE19.jpg,AMNE06.jpg,AMSA07.jpg,AMSA15.jpg,AMSA15.jpg,MS,2,num_4,16,num_4,0.766756805126,,,2017_Apr_07_1857,60.0139939727,FEMA4ImagesEEG,001,100133,
