IPosition2,IPosition3,IPosition1,IPosition6,IPosition4,IPosition5,TrialsF1.thisRepN,TrialsF1.thisTrialN,TrialsF1.thisN,TrialsF1.thisIndex,TrialsM1.thisRepN,TrialsM1.thisTrialN,TrialsM1.thisN,TrialsM1.thisIndex,TrialsF2.thisRepN,TrialsF2.thisTrialN,TrialsF2.thisN,TrialsF2.thisIndex,TrialsM2.thisRepN,TrialsM2.thisTrialN,TrialsM2.thisN,TrialsM2.thisIndex,TrialsF3.thisRepN,TrialsF3.thisTrialN,TrialsF3.thisN,TrialsF3.thisIndex,TrialsM3.thisRepN,TrialsM3.thisTrialN,TrialsM3.thisN,TrialsM3.thisIndex,InstrKey_resp.keys,InstrKey_resp.rt,Image0 _Position,Image1 _Position,Image2 _Position,Image3 _Position,Center_image,condition,code,correct_answer,accuracy,Key_Resp.keys,Key_Resp.rt,BreakKey_resp.keys,BreakKey_resp.rt,date,frameRate,expName,session,participant,
,,,,,,,,,,,,,,,,,,,,,,,,,,,,,,space,104.792043682,,,,,,,,,,,,,,2017_May_05_1034,60.0122610943,FEMA4ImagesEEG,001,100126,
AFSA25.JPG,AFNE24.JPG,AFSA24.JPG,AFNE21.JPG,AFSA21.JPG,AFNE25.JPG,0,0,0,2,,,,,,,,,,,,,,,,,,,,,,,AFSA19.jpg,AFSA03.jpg,AFNE19.jpg,AFNE08.jpg,AFSA03.jpg,FS,4,num_6,32,num_4,3.60019135289,,,2017_May_05_1034,60.0122610943,FEMA4ImagesEEG,001,100126,
AFSA21.JPG,AFNE22.JPG,AFNE21.JPG,AFSA23.JPG,AFSA22.JPG,AFNE23.JPG,0,1,1,0,,,,,,,,,,,,,,,,,,,,,,,AFNE15.jpg,AFNE03.jpg,AFSA18.jpg,AFSA19.jpg,AFSA18.jpg,FS,4,num_2,16,num_2,1.15026914817,,,2017_May_05_1034,60.0122610943,FEMA4ImagesEEG,001,100126,
AMNE23.JPG,AMNE24.JPG,AMNE22.JPG,AMSA24.JPG,AMSA22.JPG,AMSA23.JPG,0,2,2,9,,,,,,,,,,,,,,,,,,,,,,,AFSA03.jpg,AFNE17.jpg,AFSA11.jpg,AFNE12.jpg,AFSA11.jpg,FS,4,num_2,32,num_6,1.36675680499,,,2017_May_05_1034,60.0122610943,FEMA4ImagesEEG,001,100126,
AFNE22.JPG,AFSA24.JPG,AFSA22.JPG,AFNE25.JPG,AFNE24.JPG,AFSA25.JPG,0,3,3,6,,,,,,,,,,,,,,,,,,,,,,,AFNE13.jpg,AFSA11.jpg,AFNE09.jpg,AFSA14.jpg,AFNE13.jpg,FN,3,num_8,32,num_2,1.13341815816,,,2017_May_05_1034,60.0122610943,FEMA4ImagesEEG,001,100126,
AMSA21.JPG,AMNE23.JPG,AMNE21.JPG,AMSA25.JPG,AMNE25.JPG,AMSA23.JPG,0,4,4,5,,,,,,,,,,,,,,,,,,,,,,,AFSA08.jpg,AFNE17.jpg,AFSA07.jpg,AFNE03.jpg,AFSA07.jpg,FS,4,num_2,32,num_8,0.966760204872,,,2017_May_05_1034,60.0122610943,FEMA4ImagesEEG,001,100126,
AMSA25.JPG,AMNE24.JPG,AMSA24.JPG,AMNE26.JPG,AMSA21.JPG,AMNE25.JPG,0,5,5,3,,,,,,,,,,,,,,,,,,,,,,,AFNE01.jpg,AFSA08.jpg,AFNE18.jpg,AFSA11.jpg,AFNE18.jpg,FN,3,num_2,16,num_2,1.83339593094,,,2017_May_05_1034,60.0122610943,FEMA4ImagesEEG,001,100126,
AMSA21.JPG,AMNE22.JPG,AMNE21.JPG,AMSA23.JPG,AMSA22.JPG,AMNE23.JPG,0,6,6,1,,,,,,,,,,,,,,,,,,,,,,,AFNE01.jpg,AFNE15.jpg,AFSA04.jpg,AFSA14.jpg,AFNE15.jpg,FN,3,num_6,16,num_6,1.66671584663,,,2017_May_05_1034,60.0122610943,FEMA4ImagesEEG,001,100126,
AFSA21.JPG,AFNE23.JPG,AFNE21.JPG,AFSA25.JPG,AFNE25.JPG,AFSA23.JPG,0,7,7,4,,,,,,,,,,,,,,,,,,,,,,,AFNE07.jpg,AFNE09.jpg,AFSA16.jpg,AFSA11.jpg,AFSA16.jpg,FS,4,num_2,16,num_2,0.933425150346,,,2017_May_05_1034,60.0122610943,FEMA4ImagesEEG,001,100126,
AFNE23.JPG,AFNE24.JPG,AFNE22.JPG,AFSA24.JPG,AFSA22.JPG,AFSA23.JPG,0,8,8,8,,,,,,,,,,,,,,,,,,,,,,,AFNE09.jpg,AFSA18.jpg,AFNE16.jpg,AFSA09.jpg,AFSA18.jpg,FS,4,num_6,16,num_6,1.20008153189,,,2017_May_05_1034,60.0122610943,FEMA4ImagesEEG,001,100126,
AMNE22.JPG,AMSA24.JPG,AMSA22.JPG,AMNE25.JPG,AMNE24.JPG,AMSA25.JPG,0,9,9,7,,,,,,,,,,,,,,,,,,,,,,,AFSA05.jpg,AFNE09.jpg,AFNE14.jpg,AFSA19.jpg,AFNE14.jpg,FN,3,num_2,32,num_8,1.91664055316,,,2017_May_05_1034,60.0122610943,FEMA4ImagesEEG,001,100126,
AMSA25.JPG,AMNE24.JPG,AMSA24.JPG,AMNE26.JPG,AMSA21.JPG,AMNE25.JPG,,,,,0,0,0,3,,,,,,,,,,,,,,,,,,,AMNE17.jpg,AMSA08.jpg,AMSA17.jpg,AMNE19.jpg,AMSA17.jpg,MS,2,num_2,16,num_2,0.966812805971,,,2017_May_05_1034,60.0122610943,FEMA4ImagesEEG,001,100126,
AMSA21.JPG,AMNE23.JPG,AMNE21.JPG,AMSA25.JPG,AMNE25.JPG,AMSA23.JPG,,,,,0,1,1,5,,,,,,,,,,,,,,,,,,,AMNE13.jpg,AMSA05.jpg,AMSA16.jpg,AMNE06.jpg,AMSA05.jpg,MS,2,num_6,16,num_6,0.68357293075,,,2017_May_05_1034,60.0122610943,FEMA4ImagesEEG,001,100126,
AMNE23.JPG,AMNE24.JPG,AMNE22.JPG,AMSA24.JPG,AMSA22.JPG,AMSA23.JPG,,,,,0,2,2,9,,,,,,,,,,,,,,,,,,,AMNE13.jpg,AMSA05.jpg,AMSA19.jpg,AMNE12.jpg,AMNE12.jpg,MN,1,num_4,16,num_4,2.36663941457,,,2017_May_05_1034,60.0122610943,FEMA4ImagesEEG,001,100126,
AFSA25.JPG,AFNE24.JPG,AFSA24.JPG,AFNE21.JPG,AFSA21.JPG,AFNE25.JPG,,,,,0,3,3,2,,,,,,,,,,,,,,,,,,,AMSA04.jpg,AMNE09.jpg,AMSA11.jpg,AMNE15.jpg,AMSA11.jpg,MS,2,num_2,16,num_2,1.56670523016,,,2017_May_05_1034,60.0122610943,FEMA4ImagesEEG,001,100126,
AMSA21.JPG,AMNE22.JPG,AMNE21.JPG,AMSA23.JPG,AMSA22.JPG,AMNE23.JPG,,,,,0,4,4,1,,,,,,,,,,,,,,,,,,,AMSA09.jpg,AMSA10.jpg,AMNE01.jpg,AMNE14.jpg,AMSA10.jpg,MS,2,num_6,16,num_6,1.16672210093,,,2017_May_05_1034,60.0122610943,FEMA4ImagesEEG,001,100126,
AMNE22.JPG,AMSA24.JPG,AMSA22.JPG,AMNE25.JPG,AMNE24.JPG,AMSA25.JPG,,,,,0,5,5,7,,,,,,,,,,,,,,,,,,,AMNE15.jpg,AMNE08.jpg,AMSA03.jpg,AMSA09.jpg,AMNE15.jpg,MN,1,num_8,16,num_8,1.11685487092,,,2017_May_05_1034,60.0122610943,FEMA4ImagesEEG,001,100126,
AFSA21.JPG,AFNE22.JPG,AFNE21.JPG,AFSA23.JPG,AFSA22.JPG,AFNE23.JPG,,,,,0,6,6,0,,,,,,,,,,,,,,,,,,,AMSA12.jpg,AMSA15.jpg,AMNE08.jpg,AMNE15.jpg,AMSA12.jpg,MS,2,num_8,32,num_4,3.7499842036,,,2017_May_05_1034,60.0122610943,FEMA4ImagesEEG,001,100126,
AFNE22.JPG,AFSA24.JPG,AFSA22.JPG,AFNE25.JPG,AFNE24.JPG,AFSA25.JPG,,,,,0,7,7,6,,,,,,,,,,,,,,,,,,,AMNE19.jpg,AMNE16.jpg,AMSA09.jpg,AMSA18.jpg,AMNE19.jpg,MN,1,num_8,32,num_6,2.13303262973,,,2017_May_05_1034,60.0122610943,FEMA4ImagesEEG,001,100126,
AFNE23.JPG,AFNE24.JPG,AFNE22.JPG,AFSA24.JPG,AFSA22.JPG,AFSA23.JPG,,,,,0,8,8,8,,,,,,,,,,,,,,,,,,,AMNE03.jpg,AMSA17.jpg,AMNE01.jpg,AMSA10.jpg,AMSA17.jpg,MS,2,num_6,16,num_6,1.01681442582,,,2017_May_05_1034,60.0122610943,FEMA4ImagesEEG,001,100126,
AFSA21.JPG,AFNE23.JPG,AFNE21.JPG,AFSA25.JPG,AFNE25.JPG,AFSA23.JPG,,,,,0,9,9,4,,,,,,,,,,,,,,,,,,,AMNE18.jpg,AMNE05.jpg,AMSA16.jpg,AMSA17.jpg,AMNE05.jpg,MN,1,num_6,16,num_6,2.00018025539,,,2017_May_05_1034,60.0122610943,FEMA4ImagesEEG,001,100126,
AFSA21.JPG,AFNE23.JPG,AFNE21.JPG,AFSA25.JPG,AFNE25.JPG,AFSA23.JPG,,,,,,,,,0,0,0,4,,,,,,,,,,,,,,,AFNE16.jpg,AFSA03.jpg,AFNE08.jpg,AFSA11.jpg,AFSA03.jpg,FS,4,num_6,32,num_4,1.63342537475,,,2017_May_05_1034,60.0122610943,FEMA4ImagesEEG,001,100126,
AFNE23.JPG,AFNE24.JPG,AFNE22.JPG,AFSA24.JPG,AFSA22.JPG,AFSA23.JPG,,,,,,,,,0,1,1,8,,,,,,,,,,,,,,,AFNE03.jpg,AFNE09.jpg,AFSA05.jpg,AFSA18.jpg,AFNE09.jpg,FN,3,num_6,16,num_6,1.38342465321,,,2017_May_05_1034,60.0122610943,FEMA4ImagesEEG,001,100126,
AFNE22.JPG,AFSA24.JPG,AFSA22.JPG,AFNE25.JPG,AFNE24.JPG,AFSA25.JPG,,,,,,,,,0,2,2,6,,,,,,,,,,,,,,,AFSA11.jpg,AFNE19.jpg,AFNE16.jpg,AFSA06.jpg,AFSA06.jpg,FS,4,num_4,32,num_8,0.850099060219,,,2017_May_05_1034,60.0122610943,FEMA4ImagesEEG,001,100126,
AMSA21.JPG,AMNE23.JPG,AMNE21.JPG,AMSA25.JPG,AMNE25.JPG,AMSA23.JPG,,,,,,,,,0,3,3,5,,,,,,,,,,,,,,,AFSA11.jpg,AFNE12.jpg,AFNE17.jpg,AFSA17.jpg,AFNE17.jpg,FN,3,num_2,16,num_2,1.38337301416,,,2017_May_05_1034,60.0122610943,FEMA4ImagesEEG,001,100126,
AMSA21.JPG,AMNE22.JPG,AMNE21.JPG,AMSA23.JPG,AMSA22.JPG,AMNE23.JPG,,,,,,,,,0,4,4,1,,,,,,,,,,,,,,,AFSA05.jpg,AFNE04.jpg,AFNE13.jpg,AFSA18.jpg,AFNE04.jpg,FN,3,num_6,16,num_6,0.783426384907,,,2017_May_05_1034,60.0122610943,FEMA4ImagesEEG,001,100126,
AFSA21.JPG,AFNE22.JPG,AFNE21.JPG,AFSA23.JPG,AFSA22.JPG,AFNE23.JPG,,,,,,,,,0,5,5,0,,,,,,,,,,,,,,,AFSA04.jpg,AFNE06.jpg,AFSA15.jpg,AFNE12.jpg,AFSA04.jpg,FS,4,num_8,16,num_8,0.916744151851,,,2017_May_05_1034,60.0122610943,FEMA4ImagesEEG,001,100126,
AMNE22.JPG,AMSA24.JPG,AMSA22.JPG,AMNE25.JPG,AMNE24.JPG,AMSA25.JPG,,,,,,,,,0,6,6,7,,,,,,,,,,,,,,,AFNE15.jpg,AFSA18.jpg,AFSA14.jpg,AFNE14.jpg,AFSA14.jpg,FS,4,num_2,32,num_6,0.800099044107,,,2017_May_05_1034,60.0122610943,FEMA4ImagesEEG,001,100126,
AMSA25.JPG,AMNE24.JPG,AMSA24.JPG,AMNE26.JPG,AMSA21.JPG,AMNE25.JPG,,,,,,,,,0,7,7,3,,,,,,,,,,,,,,,AFSA10.jpg,AFNE05.jpg,AFSA01.jpg,AFNE16.jpg,AFNE16.jpg,FN,3,num_4,32,num_2,2.44998250366,,,2017_May_05_1034,60.0122610943,FEMA4ImagesEEG,001,100126,
AFSA25.JPG,AFNE24.JPG,AFSA24.JPG,AFNE21.JPG,AFSA21.JPG,AFNE25.JPG,,,,,,,,,0,8,8,2,,,,,,,,,,,,,,,AFSA16.jpg,AFSA04.jpg,AFNE03.jpg,AFNE04.jpg,AFSA16.jpg,FS,4,num_8,32,num_2,1.23352403403,,,2017_May_05_1034,60.0122610943,FEMA4ImagesEEG,001,100126,
AMNE23.JPG,AMNE24.JPG,AMNE22.JPG,AMSA24.JPG,AMSA22.JPG,AMSA23.JPG,,,,,,,,,0,9,9,9,,,,,,,,,,,,,,,AFNE16.jpg,AFNE12.jpg,AFSA19.jpg,AFSA02.jpg,AFNE12.jpg,FN,3,num_6,16,num_6,0.950105828,,,2017_May_05_1034,60.0122610943,FEMA4ImagesEEG,001,100126,
AFNE23.JPG,AFNE24.JPG,AFNE22.JPG,AFSA24.JPG,AFSA22.JPG,AFSA23.JPG,,,,,,,,,,,,,0,0,0,8,,,,,,,,,,,AMSA06.jpg,AMNE12.jpg,AMNE06.jpg,AMSA17.jpg,AMNE06.jpg,MN,1,num_2,16,num_2,1.20021303487,,,2017_May_05_1034,60.0122610943,FEMA4ImagesEEG,001,100126,
AMNE22.JPG,AMSA24.JPG,AMSA22.JPG,AMNE25.JPG,AMNE24.JPG,AMSA25.JPG,,,,,,,,,,,,,0,1,1,7,,,,,,,,,,,AMSA06.jpg,AMNE08.jpg,AMNE18.jpg,AMSA19.jpg,AMSA19.jpg,MS,2,num_4,32,num_8,1.23337649414,,,2017_May_05_1034,60.0122610943,FEMA4ImagesEEG,001,100126,
AMSA25.JPG,AMNE24.JPG,AMSA24.JPG,AMNE26.JPG,AMSA21.JPG,AMNE25.JPG,,,,,,,,,,,,,0,2,2,3,,,,,,,,,,,AMNE20.jpg,AMSA04.jpg,AMSA09.jpg,AMNE10.jpg,AMSA09.jpg,MS,2,num_2,32,num_4,2.4833307087,,,2017_May_05_1034,60.0122610943,FEMA4ImagesEEG,001,100126,
AFSA21.JPG,AFNE23.JPG,AFNE21.JPG,AFSA25.JPG,AFNE25.JPG,AFSA23.JPG,,,,,,,,,,,,,0,3,3,4,,,,,,,,,,,AMSA16.jpg,AMNE05.jpg,AMNE08.jpg,AMSA04.jpg,AMSA04.jpg,MS,2,num_4,16,num_4,0.683483123779,,,2017_May_05_1034,60.0122610943,FEMA4ImagesEEG,001,100126,
AMNE23.JPG,AMNE24.JPG,AMNE22.JPG,AMSA24.JPG,AMSA22.JPG,AMSA23.JPG,,,,,,,,,,,,,0,4,4,9,,,,,,,,,,,AMNE17.jpg,AMSA17.jpg,AMNE01.jpg,AMSA01.jpg,AMSA17.jpg,MS,2,num_6,16,num_6,1.0667874997,,,2017_May_05_1034,60.0122610943,FEMA4ImagesEEG,001,100126,
AFSA21.JPG,AFNE22.JPG,AFNE21.JPG,AFSA23.JPG,AFSA22.JPG,AFNE23.JPG,,,,,,,,,,,,,0,5,5,0,,,,,,,,,,,AMSA17.jpg,AMNE16.jpg,AMSA18.jpg,AMNE08.jpg,AMNE08.jpg,MN,1,num_4,16,num_4,1.06674772804,,,2017_May_05_1034,60.0122610943,FEMA4ImagesEEG,001,100126,
AFNE22.JPG,AFSA24.JPG,AFSA22.JPG,AFNE25.JPG,AFNE24.JPG,AFSA25.JPG,,,,,,,,,,,,,0,6,6,6,,,,,,,,,,,AMSA01.jpg,AMSA17.jpg,AMNE10.jpg,AMNE13.jpg,AMNE10.jpg,MN,1,num_2,16,num_2,0.98341811006,,,2017_May_05_1034,60.0122610943,FEMA4ImagesEEG,001,100126,
AFSA25.JPG,AFNE24.JPG,AFSA24.JPG,AFNE21.JPG,AFSA21.JPG,AFNE25.JPG,,,,,,,,,,,,,0,7,7,2,,,,,,,,,,,AMNE17.jpg,AMSA08.jpg,AMNE05.jpg,AMSA13.jpg,AMNE05.jpg,MN,1,num_2,16,num_2,0.983525557443,,,2017_May_05_1034,60.0122610943,FEMA4ImagesEEG,001,100126,
AMSA21.JPG,AMNE23.JPG,AMNE21.JPG,AMSA25.JPG,AMNE25.JPG,AMSA23.JPG,,,,,,,,,,,,,0,8,8,5,,,,,,,,,,,AMNE12.jpg,AMNE03.jpg,AMSA08.jpg,AMSA14.jpg,AMSA08.jpg,MS,2,num_2,32,num_6,1.38323605829,,,2017_May_05_1034,60.0122610943,FEMA4ImagesEEG,001,100126,
AMSA21.JPG,AMNE22.JPG,AMNE21.JPG,AMSA23.JPG,AMSA22.JPG,AMNE23.JPG,,,,,,,,,,,,,0,9,9,1,,,,,,,,,,,AMNE08.jpg,AMSA04.jpg,AMSA06.jpg,AMNE09.jpg,AMSA06.jpg,MS,2,num_2,16,num_2,2.33334028278,,,2017_May_05_1034,60.0122610943,FEMA4ImagesEEG,001,100126,
AMSA21.JPG,AMNE23.JPG,AMNE21.JPG,AMSA25.JPG,AMNE25.JPG,AMSA23.JPG,,,,,,,,,,,,,,,,,0,0,0,5,,,,,,,AFSA20.jpg,AFSA10.jpg,AFNE10.jpg,AFNE15.jpg,AFSA20.jpg,FS,4,num_8,16,num_8,1.40021630633,,,2017_May_05_1034,60.0122610943,FEMA4ImagesEEG,001,100126,
AFNE22.JPG,AFSA24.JPG,AFSA22.JPG,AFNE25.JPG,AFNE24.JPG,AFSA25.JPG,,,,,,,,,,,,,,,,,0,1,1,6,,,,,,,AFSA17.jpg,AFNE01.jpg,AFSA07.jpg,AFNE11.jpg,AFSA17.jpg,FS,4,num_8,32,num_4,1.53340770211,,,2017_May_05_1034,60.0122610943,FEMA4ImagesEEG,001,100126,
AMNE22.JPG,AMSA24.JPG,AMSA22.JPG,AMNE25.JPG,AMNE24.JPG,AMSA25.JPG,,,,,,,,,,,,,,,,,0,2,2,7,,,,,,,AFNE06.jpg,AFSA02.jpg,AFNE17.jpg,AFSA07.jpg,AFSA07.jpg,FS,4,num_4,16,num_4,1.40009891591,,,2017_May_05_1034,60.0122610943,FEMA4ImagesEEG,001,100126,
AFSA21.JPG,AFNE23.JPG,AFNE21.JPG,AFSA25.JPG,AFNE25.JPG,AFSA23.JPG,,,,,,,,,,,,,,,,,0,3,3,4,,,,,,,AFSA19.jpg,AFNE08.jpg,AFNE12.jpg,AFSA15.jpg,AFSA15.jpg,FS,4,num_4,16,num_4,0.933439583518,,,2017_May_05_1034,60.0122610943,FEMA4ImagesEEG,001,100126,
AMSA21.JPG,AMNE22.JPG,AMNE21.JPG,AMSA23.JPG,AMSA22.JPG,AMNE23.JPG,,,,,,,,,,,,,,,,,0,4,4,1,,,,,,,AFNE14.jpg,AFSA17.jpg,AFNE05.jpg,AFSA09.jpg,AFNE05.jpg,FN,3,num_2,32,num_8,1.18343773927,,,2017_May_05_1034,60.0122610943,FEMA4ImagesEEG,001,100126,
AMSA25.JPG,AMNE24.JPG,AMSA24.JPG,AMNE26.JPG,AMSA21.JPG,AMNE25.JPG,,,,,,,,,,,,,,,,,0,5,5,3,,,,,,,AFNE15.jpg,AFSA12.jpg,AFNE12.jpg,AFSA18.jpg,AFSA18.jpg,FS,4,num_4,16,num_4,0.933398208115,,,2017_May_05_1034,60.0122610943,FEMA4ImagesEEG,001,100126,
AFNE23.JPG,AFNE24.JPG,AFNE22.JPG,AFSA24.JPG,AFSA22.JPG,AFSA23.JPG,,,,,,,,,,,,,,,,,0,6,6,8,,,,,,,AFNE09.jpg,AFSA18.jpg,AFNE14.jpg,AFSA20.jpg,AFSA20.jpg,FS,4,num_4,16,num_4,0.75028152857,,,2017_May_05_1034,60.0122610943,FEMA4ImagesEEG,001,100126,
AFSA25.JPG,AFNE24.JPG,AFSA24.JPG,AFNE21.JPG,AFSA21.JPG,AFNE25.JPG,,,,,,,,,,,,,,,,,0,7,7,2,,,,,,,AFNE09.jpg,AFSA13.jpg,AFNE19.jpg,AFSA16.jpg,AFNE09.jpg,FN,3,num_8,16,num_8,0.683442710666,,,2017_May_05_1034,60.0122610943,FEMA4ImagesEEG,001,100126,
AFSA21.JPG,AFNE22.JPG,AFNE21.JPG,AFSA23.JPG,AFSA22.JPG,AFNE23.JPG,,,,,,,,,,,,,,,,,0,8,8,0,,,,,,,AFSA19.jpg,AFNE13.jpg,AFSA03.jpg,AFNE04.jpg,AFSA03.jpg,FS,4,num_2,16,num_2,1.61672224523,,,2017_May_05_1034,60.0122610943,FEMA4ImagesEEG,001,100126,
AMNE23.JPG,AMNE24.JPG,AMNE22.JPG,AMSA24.JPG,AMSA22.JPG,AMSA23.JPG,,,,,,,,,,,,,,,,,0,9,9,9,,,,,,,AFSA09.jpg,AFSA18.jpg,AFNE09.jpg,AFNE03.jpg,AFNE03.jpg,FN,3,num_4,32,num_2,1.33338582772,,,2017_May_05_1034,60.0122610943,FEMA4ImagesEEG,001,100126,
AMSA21.JPG,AMNE22.JPG,AMNE21.JPG,AMSA23.JPG,AMSA22.JPG,AMNE23.JPG,,,,,,,,,,,,,,,,,,,,,0,0,0,1,,,AMNE11.jpg,AMSA06.jpg,AMSA16.jpg,AMNE01.jpg,AMSA06.jpg,MS,2,num_6,32,num_2,1.43344487576,,,2017_May_05_1034,60.0122610943,FEMA4ImagesEEG,001,100126,
AFSA21.JPG,AFNE22.JPG,AFNE21.JPG,AFSA23.JPG,AFSA22.JPG,AFNE23.JPG,,,,,,,,,,,,,,,,,,,,,0,1,1,0,,,AMSA11.jpg,AMNE15.jpg,AMSA20.jpg,AMNE01.jpg,AMSA20.jpg,MS,2,num_2,16,num_2,0.966748016886,,,2017_May_05_1034,60.0122610943,FEMA4ImagesEEG,001,100126,
AFNE23.JPG,AFNE24.JPG,AFNE22.JPG,AFSA24.JPG,AFSA22.JPG,AFSA23.JPG,,,,,,,,,,,,,,,,,,,,,0,2,2,8,,,AMSA20.jpg,AMNE02.jpg,AMSA17.jpg,AMNE05.jpg,AMSA17.jpg,MS,2,num_2,16,num_2,1.41671961546,,,2017_May_05_1034,60.0122610943,FEMA4ImagesEEG,001,100126,
AMSA25.JPG,AMNE24.JPG,AMSA24.JPG,AMNE26.JPG,AMSA21.JPG,AMNE25.JPG,,,,,,,,,,,,,,,,,,,,,0,3,3,3,,,AMNE13.jpg,AMNE09.jpg,AMSA19.jpg,AMSA08.jpg,AMNE13.jpg,MN,1,num_8,32,num_4,1.31673241267,,,2017_May_05_1034,60.0122610943,FEMA4ImagesEEG,001,100126,
AMNE23.JPG,AMNE24.JPG,AMNE22.JPG,AMSA24.JPG,AMSA22.JPG,AMSA23.JPG,,,,,,,,,,,,,,,,,,,,,0,4,4,9,,,AMNE03.jpg,AMSA18.jpg,AMSA03.jpg,AMNE08.jpg,AMNE08.jpg,MN,1,num_4,32,num_8,1.13336844346,,,2017_May_05_1034,60.0122610943,FEMA4ImagesEEG,001,100126,
AMSA21.JPG,AMNE23.JPG,AMNE21.JPG,AMSA25.JPG,AMNE25.JPG,AMSA23.JPG,,,,,,,,,,,,,,,,,,,,,0,5,5,5,,,AMNE19.jpg,AMSA08.jpg,AMNE05.jpg,AMSA19.jpg,AMNE05.jpg,MN,1,num_2,16,num_2,0.966670077294,,,2017_May_05_1034,60.0122610943,FEMA4ImagesEEG,001,100126,
AFSA21.JPG,AFNE23.JPG,AFNE21.JPG,AFSA25.JPG,AFNE25.JPG,AFSA23.JPG,,,,,,,,,,,,,,,,,,,,,0,6,6,4,,,AMSA04.jpg,AMSA20.jpg,AMNE02.jpg,AMNE15.jpg,AMNE02.jpg,MN,1,num_2,32,num_8,1.23354744795,,,2017_May_05_1034,60.0122610943,FEMA4ImagesEEG,001,100126,
AFSA25.JPG,AFNE24.JPG,AFSA24.JPG,AFNE21.JPG,AFSA21.JPG,AFNE25.JPG,,,,,,,,,,,,,,,,,,,,,0,7,7,2,,,AMSA17.jpg,AMSA10.jpg,AMNE14.jpg,AMNE16.jpg,AMNE14.jpg,MN,1,num_2,16,num_2,0.883437001612,,,2017_May_05_1034,60.0122610943,FEMA4ImagesEEG,001,100126,
AFNE22.JPG,AFSA24.JPG,AFSA22.JPG,AFNE25.JPG,AFNE24.JPG,AFSA25.JPG,,,,,,,,,,,,,,,,,,,,,0,8,8,6,,,AMNE03.jpg,AMSA12.jpg,AMNE12.jpg,AMSA05.jpg,AMSA05.jpg,MS,2,num_4,32,num_6,0.833473870531,,,2017_May_05_1034,60.0122610943,FEMA4ImagesEEG,001,100126,
AMNE22.JPG,AMSA24.JPG,AMSA22.JPG,AMNE25.JPG,AMNE24.JPG,AMSA25.JPG,,,,,,,,,,,,,,,,,,,,,0,9,9,7,,,AMNE07.jpg,AMNE09.jpg,AMSA16.jpg,AMSA15.jpg,AMNE09.jpg,MN,1,num_6,32,num_2,1.68341031601,,,2017_May_05_1034,60.0122610943,FEMA4ImagesEEG,001,100126,
,,,,,,,,,,,,,,,,,,,,,,,,,,,,,,,,,,,,,,,,,,,space,6.54963196791,2017_May_05_1034,60.0122610943,FEMA4ImagesEEG,001,100126,
AFNE01.JPG,AFNE01.JPG,AFNE01.JPG,AFNE01.JPG,AFNE01.JPG,AFNE01.JPG,0,0,0,3,,,,,,,,,,,,,,,,,,,,,,,AFSA19.jpg,AFNE14.jpg,AFSA07.jpg,AFNE19.jpg,AFSA19.jpg,FS,4,num_8,48,None,,,,2017_May_05_1034,60.0122610943,FEMA4ImagesEEG,001,100126,
AFNE01.JPG,AFNE01.JPG,AFNE01.JPG,AFNE01.JPG,AFNE01.JPG,AFNE01.JPG,0,1,1,6,,,,,,,,,,,,,,,,,,,,,,,AFNE12.jpg,AFSA06.jpg,AFSA05.jpg,AFNE06.jpg,AFNE12.jpg,FN,3,num_8,32,num_2,2.75000601378,,,2017_May_05_1034,60.0122610943,FEMA4ImagesEEG,001,100126,
AFNE01.JPG,AFNE01.JPG,AFNE01.JPG,AFNE01.JPG,AFNE01.JPG,AFNE01.JPG,0,2,2,8,,,,,,,,,,,,,,,,,,,,,,,AFSA19.jpg,AFNE10.jpg,AFNE02.jpg,AFSA16.jpg,AFSA19.jpg,FS,4,num_8,32,num_4,0.93341649021,,,2017_May_05_1034,60.0122610943,FEMA4ImagesEEG,001,100126,
AFNE01.JPG,AFNE01.JPG,AFNE01.JPG,AFNE01.JPG,AFNE01.JPG,AFNE01.JPG,0,3,3,4,,,,,,,,,,,,,,,,,,,,,,,AFNE01.jpg,AFSA12.jpg,AFSA09.jpg,AFNE11.jpg,AFNE11.jpg,FN,3,num_4,16,num_4,0.866764983861,,,2017_May_05_1034,60.0122610943,FEMA4ImagesEEG,001,100126,
AFNE01.JPG,AFNE01.JPG,AFNE01.JPG,AFNE01.JPG,AFNE01.JPG,AFNE01.JPG,0,4,4,0,,,,,,,,,,,,,,,,,,,,,,,AFSA20.jpg,AFNE10.jpg,AFSA01.jpg,AFNE09.jpg,AFSA20.jpg,FS,4,num_8,32,num_4,0.983437354211,,,2017_May_05_1034,60.0122610943,FEMA4ImagesEEG,001,100126,
AFNE01.JPG,AFNE01.JPG,AFNE01.JPG,AFNE01.JPG,AFNE01.JPG,AFNE01.JPG,0,5,5,2,,,,,,,,,,,,,,,,,,,,,,,AFNE18.jpg,AFNE17.jpg,AFSA10.jpg,AFSA03.jpg,AFNE17.jpg,FN,3,num_6,32,num_8,1.11669514305,,,2017_May_05_1034,60.0122610943,FEMA4ImagesEEG,001,100126,
AFNE01.JPG,AFNE01.JPG,AFNE01.JPG,AFNE01.JPG,AFNE01.JPG,AFNE01.JPG,0,6,6,9,,,,,,,,,,,,,,,,,,,,,,,AFNE16.jpg,AFSA10.jpg,AFNE10.jpg,AFSA15.jpg,AFNE10.jpg,FN,3,num_2,16,num_2,1.80001052027,,,2017_May_05_1034,60.0122610943,FEMA4ImagesEEG,001,100126,
AFNE01.JPG,AFNE01.JPG,AFNE01.JPG,AFNE01.JPG,AFNE01.JPG,AFNE01.JPG,0,7,7,7,,,,,,,,,,,,,,,,,,,,,,,AFNE11.jpg,AFNE03.jpg,AFSA19.jpg,AFSA02.jpg,AFSA02.jpg,FS,4,num_4,32,num_8,0.78344145976,,,2017_May_05_1034,60.0122610943,FEMA4ImagesEEG,001,100126,
AFNE01.JPG,AFNE01.JPG,AFNE01.JPG,AFNE01.JPG,AFNE01.JPG,AFNE01.JPG,0,8,8,5,,,,,,,,,,,,,,,,,,,,,,,AFNE01.jpg,AFSA16.jpg,AFSA08.jpg,AFNE14.jpg,AFSA08.jpg,FS,4,num_2,16,num_2,1.35004437412,,,2017_May_05_1034,60.0122610943,FEMA4ImagesEEG,001,100126,
AFNE01.JPG,AFNE01.JPG,AFNE01.JPG,AFNE01.JPG,AFNE01.JPG,AFNE01.JPG,0,9,9,1,,,,,,,,,,,,,,,,,,,,,,,AFSA06.jpg,AFSA07.jpg,AFNE12.jpg,AFNE15.jpg,AFNE12.jpg,FN,3,num_2,16,num_2,0.83342062775,,,2017_May_05_1034,60.0122610943,FEMA4ImagesEEG,001,100126,
AFNE01.JPG,AFNE01.JPG,AFNE01.JPG,AFNE01.JPG,AFNE01.JPG,AFNE01.JPG,1,0,10,9,,,,,,,,,,,,,,,,,,,,,,,AFNE05.jpg,AFSA03.jpg,AFNE14.jpg,AFSA12.jpg,AFNE05.jpg,FN,3,num_8,16,num_8,0.883728874149,,,2017_May_05_1034,60.0122610943,FEMA4ImagesEEG,001,100126,
AFNE01.JPG,AFNE01.JPG,AFNE01.JPG,AFNE01.JPG,AFNE01.JPG,AFNE01.JPG,1,1,11,2,,,,,,,,,,,,,,,,,,,,,,,AFNE04.jpg,AFSA12.jpg,AFSA13.jpg,AFNE12.jpg,AFSA13.jpg,FS,4,num_2,16,num_2,0.91689778585,,,2017_May_05_1034,60.0122610943,FEMA4ImagesEEG,001,100126,
AFNE01.JPG,AFNE01.JPG,AFNE01.JPG,AFNE01.JPG,AFNE01.JPG,AFNE01.JPG,1,2,12,3,,,,,,,,,,,,,,,,,,,,,,,AFSA19.jpg,AFNE09.jpg,AFNE19.jpg,AFSA11.jpg,AFNE19.jpg,FN,3,num_2,16,num_2,1.33338903496,,,2017_May_05_1034,60.0122610943,FEMA4ImagesEEG,001,100126,
AFNE01.JPG,AFNE01.JPG,AFNE01.JPG,AFNE01.JPG,AFNE01.JPG,AFNE01.JPG,1,3,13,4,,,,,,,,,,,,,,,,,,,,,,,AFNE05.jpg,AFSA16.jpg,AFSA06.jpg,AFNE20.jpg,AFSA06.jpg,FS,4,num_2,32,num_8,1.16689081001,,,2017_May_05_1034,60.0122610943,FEMA4ImagesEEG,001,100126,
AFNE01.JPG,AFNE01.JPG,AFNE01.JPG,AFNE01.JPG,AFNE01.JPG,AFNE01.JPG,1,4,14,5,,,,,,,,,,,,,,,,,,,,,,,AFSA01.jpg,AFSA07.jpg,AFNE06.jpg,AFNE20.jpg,AFSA01.jpg,FS,4,num_8,16,num_8,0.800202963874,,,2017_May_05_1034,60.0122610943,FEMA4ImagesEEG,001,100126,
AFNE01.JPG,AFNE01.JPG,AFNE01.JPG,AFNE01.JPG,AFNE01.JPG,AFNE01.JPG,1,5,15,8,,,,,,,,,,,,,,,,,,,,,,,AFNE17.jpg,AFNE03.jpg,AFSA06.jpg,AFSA08.jpg,AFNE03.jpg,FN,3,num_6,32,num_2,1.26673111389,,,2017_May_05_1034,60.0122610943,FEMA4ImagesEEG,001,100126,
AFNE01.JPG,AFNE01.JPG,AFNE01.JPG,AFNE01.JPG,AFNE01.JPG,AFNE01.JPG,1,6,16,1,,,,,,,,,,,,,,,,,,,,,,,AFSA05.jpg,AFSA17.jpg,AFNE11.jpg,AFNE18.jpg,AFNE18.jpg,FN,3,num_4,32,num_2,0.916732284473,,,2017_May_05_1034,60.0122610943,FEMA4ImagesEEG,001,100126,
AFNE01.JPG,AFNE01.JPG,AFNE01.JPG,AFNE01.JPG,AFNE01.JPG,AFNE01.JPG,1,7,17,6,,,,,,,,,,,,,,,,,,,,,,,AFNE14.jpg,AFSA02.jpg,AFSA14.jpg,AFNE08.jpg,AFSA14.jpg,FS,4,num_2,32,num_4,1.16678528674,,,2017_May_05_1034,60.0122610943,FEMA4ImagesEEG,001,100126,
AFNE01.JPG,AFNE01.JPG,AFNE01.JPG,AFNE01.JPG,AFNE01.JPG,AFNE01.JPG,1,8,18,0,,,,,,,,,,,,,,,,,,,,,,,AFNE17.jpg,AFSA07.jpg,AFNE11.jpg,AFSA14.jpg,AFSA07.jpg,FS,4,num_6,16,num_6,0.933462035144,,,2017_May_05_1034,60.0122610943,FEMA4ImagesEEG,001,100126,
AFNE01.JPG,AFNE01.JPG,AFNE01.JPG,AFNE01.JPG,AFNE01.JPG,AFNE01.JPG,1,9,19,7,,,,,,,,,,,,,,,,,,,,,,,AFSA12.jpg,AFNE16.jpg,AFNE07.jpg,AFSA14.jpg,AFSA14.jpg,FS,4,num_4,32,num_6,1.16673268541,,,2017_May_05_1034,60.0122610943,FEMA4ImagesEEG,001,100126,
AFNE01.JPG,AFNE01.JPG,AFNE01.JPG,AFNE01.JPG,AFNE01.JPG,AFNE01.JPG,2,0,20,3,,,,,,,,,,,,,,,,,,,,,,,AFNE14.jpg,AFNE09.jpg,AFSA09.jpg,AFSA04.jpg,AFSA04.jpg,FS,4,num_4,16,num_4,0.699981942307,,,2017_May_05_1034,60.0122610943,FEMA4ImagesEEG,001,100126,
AFNE01.JPG,AFNE01.JPG,AFNE01.JPG,AFNE01.JPG,AFNE01.JPG,AFNE01.JPG,2,1,21,4,,,,,,,,,,,,,,,,,,,,,,,AFNE19.jpg,AFSA15.jpg,AFSA07.jpg,AFNE01.jpg,AFNE19.jpg,FN,3,num_8,16,num_8,0.983436392155,,,2017_May_05_1034,60.0122610943,FEMA4ImagesEEG,001,100126,
AFNE01.JPG,AFNE01.JPG,AFNE01.JPG,AFNE01.JPG,AFNE01.JPG,AFNE01.JPG,2,2,22,6,,,,,,,,,,,,,,,,,,,,,,,AFNE19.jpg,AFNE11.jpg,AFSA04.jpg,AFSA14.jpg,AFNE11.jpg,FN,3,num_6,16,num_6,0.60013746866,,,2017_May_05_1034,60.0122610943,FEMA4ImagesEEG,001,100126,
AFNE01.JPG,AFNE01.JPG,AFNE01.JPG,AFNE01.JPG,AFNE01.JPG,AFNE01.JPG,2,3,23,7,,,,,,,,,,,,,,,,,,,,,,,AFSA12.jpg,AFNE15.jpg,AFNE11.jpg,AFSA20.jpg,AFSA12.jpg,FS,4,num_8,16,num_8,0.833478040062,,,2017_May_05_1034,60.0122610943,FEMA4ImagesEEG,001,100126,
AFNE01.JPG,AFNE01.JPG,AFNE01.JPG,AFNE01.JPG,AFNE01.JPG,AFNE01.JPG,2,4,24,1,,,,,,,,,,,,,,,,,,,,,,,AFNE14.jpg,AFSA04.jpg,AFSA13.jpg,AFNE19.jpg,AFSA04.jpg,FS,4,num_6,16,num_6,1.20021399693,,,2017_May_05_1034,60.0122610943,FEMA4ImagesEEG,001,100126,
AFNE01.JPG,AFNE01.JPG,AFNE01.JPG,AFNE01.JPG,AFNE01.JPG,AFNE01.JPG,2,5,25,2,,,,,,,,,,,,,,,,,,,,,,,AFNE17.jpg,AFNE07.jpg,AFSA17.jpg,AFSA07.jpg,AFSA07.jpg,FS,4,num_4,16,num_4,0.949999021832,,,2017_May_05_1034,60.0122610943,FEMA4ImagesEEG,001,100126,
AFNE01.JPG,AFNE01.JPG,AFNE01.JPG,AFNE01.JPG,AFNE01.JPG,AFNE01.JPG,2,6,26,5,,,,,,,,,,,,,,,,,,,,,,,AFNE15.jpg,AFSA14.jpg,AFNE10.jpg,AFSA15.jpg,AFNE15.jpg,FN,3,num_8,16,num_8,1.03342999332,,,2017_May_05_1034,60.0122610943,FEMA4ImagesEEG,001,100126,
AFNE01.JPG,AFNE01.JPG,AFNE01.JPG,AFNE01.JPG,AFNE01.JPG,AFNE01.JPG,2,7,27,0,,,,,,,,,,,,,,,,,,,,,,,AFSA05.jpg,AFNE15.jpg,AFNE16.jpg,AFSA02.jpg,AFNE16.jpg,FN,3,num_2,16,num_2,1.31656113802,,,2017_May_05_1034,60.0122610943,FEMA4ImagesEEG,001,100126,
AFNE01.JPG,AFNE01.JPG,AFNE01.JPG,AFNE01.JPG,AFNE01.JPG,AFNE01.JPG,2,8,28,9,,,,,,,,,,,,,,,,,,,,,,,AFNE06.jpg,AFSA12.jpg,AFSA03.jpg,AFNE08.jpg,AFNE06.jpg,FN,3,num_8,16,num_8,1.23353622225,,,2017_May_05_1034,60.0122610943,FEMA4ImagesEEG,001,100126,
AFNE01.JPG,AFNE01.JPG,AFNE01.JPG,AFNE01.JPG,AFNE01.JPG,AFNE01.JPG,2,9,29,8,,,,,,,,,,,,,,,,,,,,,,,AFNE12.jpg,AFSA05.jpg,AFNE17.jpg,AFSA13.jpg,AFSA13.jpg,FS,4,num_4,16,num_4,0.883430586662,,,2017_May_05_1034,60.0122610943,FEMA4ImagesEEG,001,100126,
AFNE01.JPG,AFNE01.JPG,AFNE01.JPG,AFNE01.JPG,AFNE01.JPG,AFNE01.JPG,3,0,30,7,,,,,,,,,,,,,,,,,,,,,,,AFSA16.jpg,AFNE03.jpg,AFSA03.jpg,AFNE20.jpg,AFSA16.jpg,FS,4,num_8,32,num_6,1.28342430037,,,2017_May_05_1034,60.0122610943,FEMA4ImagesEEG,001,100126,
AFNE01.JPG,AFNE01.JPG,AFNE01.JPG,AFNE01.JPG,AFNE01.JPG,AFNE01.JPG,3,1,31,5,,,,,,,,,,,,,,,,,,,,,,,AFNE04.jpg,AFSA15.jpg,AFNE09.jpg,AFSA07.jpg,AFSA07.jpg,FS,4,num_4,16,num_4,0.550110831391,,,2017_May_05_1034,60.0122610943,FEMA4ImagesEEG,001,100126,
AFNE01.JPG,AFNE01.JPG,AFNE01.JPG,AFNE01.JPG,AFNE01.JPG,AFNE01.JPG,3,2,32,4,,,,,,,,,,,,,,,,,,,,,,,AFSA11.jpg,AFNE01.jpg,AFNE19.jpg,AFSA01.jpg,AFNE01.jpg,FN,3,num_6,32,num_2,0.983713831287,,,2017_May_05_1034,60.0122610943,FEMA4ImagesEEG,001,100126,
AFNE01.JPG,AFNE01.JPG,AFNE01.JPG,AFNE01.JPG,AFNE01.JPG,AFNE01.JPG,3,3,33,9,,,,,,,,,,,,,,,,,,,,,,,AFSA17.jpg,AFSA01.jpg,AFNE09.jpg,AFNE01.jpg,AFSA01.jpg,FS,4,num_6,32,num_2,1.10018606088,,,2017_May_05_1034,60.0122610943,FEMA4ImagesEEG,001,100126,
AFNE01.JPG,AFNE01.JPG,AFNE01.JPG,AFNE01.JPG,AFNE01.JPG,AFNE01.JPG,3,4,34,2,,,,,,,,,,,,,,,,,,,,,,,AFNE05.jpg,AFSA01.jpg,AFNE20.jpg,AFSA10.jpg,AFSA01.jpg,FS,4,num_6,32,num_4,1.05010553938,,,2017_May_05_1034,60.0122610943,FEMA4ImagesEEG,001,100126,
AFNE01.JPG,AFNE01.JPG,AFNE01.JPG,AFNE01.JPG,AFNE01.JPG,AFNE01.JPG,3,5,35,8,,,,,,,,,,,,,,,,,,,,,,,AFSA16.jpg,AFNE17.jpg,AFSA02.jpg,AFNE10.jpg,AFNE17.jpg,FN,3,num_6,32,num_4,0.833438589005,,,2017_May_05_1034,60.0122610943,FEMA4ImagesEEG,001,100126,
AFNE01.JPG,AFNE01.JPG,AFNE01.JPG,AFNE01.JPG,AFNE01.JPG,AFNE01.JPG,3,6,36,0,,,,,,,,,,,,,,,,,,,,,,,AFSA14.jpg,AFSA04.jpg,AFNE16.jpg,AFNE07.jpg,AFSA14.jpg,FS,4,num_8,32,num_6,0.900118962163,,,2017_May_05_1034,60.0122610943,FEMA4ImagesEEG,001,100126,
AFNE01.JPG,AFNE01.JPG,AFNE01.JPG,AFNE01.JPG,AFNE01.JPG,AFNE01.JPG,3,7,37,1,,,,,,,,,,,,,,,,,,,,,,,AFNE10.jpg,AFSA03.jpg,AFSA02.jpg,AFNE14.jpg,AFSA02.jpg,FS,4,num_2,16,num_2,1.03351947968,,,2017_May_05_1034,60.0122610943,FEMA4ImagesEEG,001,100126,
AFNE01.JPG,AFNE01.JPG,AFNE01.JPG,AFNE01.JPG,AFNE01.JPG,AFNE01.JPG,3,8,38,3,,,,,,,,,,,,,,,,,,,,,,,AFSA11.jpg,AFSA18.jpg,AFNE10.jpg,AFNE11.jpg,AFSA11.jpg,FS,4,num_8,16,num_8,0.616764903767,,,2017_May_05_1034,60.0122610943,FEMA4ImagesEEG,001,100126,
AFNE01.JPG,AFNE01.JPG,AFNE01.JPG,AFNE01.JPG,AFNE01.JPG,AFNE01.JPG,3,9,39,6,,,,,,,,,,,,,,,,,,,,,,,AFSA04.jpg,AFNE12.jpg,AFSA17.jpg,AFNE17.jpg,AFNE12.jpg,FN,3,num_6,16,num_6,0.566744360374,,,2017_May_05_1034,60.0122610943,FEMA4ImagesEEG,001,100126,
AFNE01.JPG,AFNE01.JPG,AFNE01.JPG,AFNE01.JPG,AFNE01.JPG,AFNE01.JPG,4,0,40,1,,,,,,,,,,,,,,,,,,,,,,,AFSA15.jpg,AFNE17.jpg,AFSA19.jpg,AFNE20.jpg,AFNE17.jpg,FN,3,num_6,32,num_4,1.00004522409,,,2017_May_05_1034,60.0122610943,FEMA4ImagesEEG,001,100126,
AFNE01.JPG,AFNE01.JPG,AFNE01.JPG,AFNE01.JPG,AFNE01.JPG,AFNE01.JPG,4,1,41,4,,,,,,,,,,,,,,,,,,,,,,,AFSA03.jpg,AFSA12.jpg,AFNE15.jpg,AFNE18.jpg,AFSA03.jpg,FS,4,num_8,16,num_8,1.21660376433,,,2017_May_05_1034,60.0122610943,FEMA4ImagesEEG,001,100126,
AFNE01.JPG,AFNE01.JPG,AFNE01.JPG,AFNE01.JPG,AFNE01.JPG,AFNE01.JPG,4,2,42,9,,,,,,,,,,,,,,,,,,,,,,,AFSA18.jpg,AFSA14.jpg,AFNE01.jpg,AFNE08.jpg,AFSA14.jpg,FS,4,num_6,32,num_4,1.00017672731,,,2017_May_05_1034,60.0122610943,FEMA4ImagesEEG,001,100126,
AFNE01.JPG,AFNE01.JPG,AFNE01.JPG,AFNE01.JPG,AFNE01.JPG,AFNE01.JPG,4,3,43,2,,,,,,,,,,,,,,,,,,,,,,,AFNE19.jpg,AFNE18.jpg,AFSA06.jpg,AFSA10.jpg,AFNE18.jpg,FN,3,num_6,32,num_2,1.21671217424,,,2017_May_05_1034,60.0122610943,FEMA4ImagesEEG,001,100126,
AFNE01.JPG,AFNE01.JPG,AFNE01.JPG,AFNE01.JPG,AFNE01.JPG,AFNE01.JPG,4,4,44,5,,,,,,,,,,,,,,,,,,,,,,,AFSA15.jpg,AFNE11.jpg,AFSA10.jpg,AFNE16.jpg,AFSA15.jpg,FS,4,num_8,16,num_8,0.766901266063,,,2017_May_05_1034,60.0122610943,FEMA4ImagesEEG,001,100126,
AFNE01.JPG,AFNE01.JPG,AFNE01.JPG,AFNE01.JPG,AFNE01.JPG,AFNE01.JPG,4,5,45,6,,,,,,,,,,,,,,,,,,,,,,,AFSA09.jpg,AFSA01.jpg,AFNE06.jpg,AFNE14.jpg,AFNE14.jpg,FN,3,num_4,32,num_2,1.033457577,,,2017_May_05_1034,60.0122610943,FEMA4ImagesEEG,001,100126,
AFNE01.JPG,AFNE01.JPG,AFNE01.JPG,AFNE01.JPG,AFNE01.JPG,AFNE01.JPG,4,6,46,7,,,,,,,,,,,,,,,,,,,,,,,AFNE15.jpg,AFNE05.jpg,AFSA08.jpg,AFSA18.jpg,AFSA08.jpg,FS,4,num_2,32,num_4,0.766634410946,,,2017_May_05_1034,60.0122610943,FEMA4ImagesEEG,001,100126,
AFNE01.JPG,AFNE01.JPG,AFNE01.JPG,AFNE01.JPG,AFNE01.JPG,AFNE01.JPG,4,7,47,8,,,,,,,,,,,,,,,,,,,,,,,AFSA15.jpg,AFNE14.jpg,AFNE04.jpg,AFSA04.jpg,AFSA15.jpg,FS,4,num_8,16,num_8,0.950128921075,,,2017_May_05_1034,60.0122610943,FEMA4ImagesEEG,001,100126,
AFNE01.JPG,AFNE01.JPG,AFNE01.JPG,AFNE01.JPG,AFNE01.JPG,AFNE01.JPG,4,8,48,0,,,,,,,,,,,,,,,,,,,,,,,AFNE12.jpg,AFSA13.jpg,AFSA10.jpg,AFNE02.jpg,AFSA13.jpg,FS,4,num_6,16,num_6,0.900165789993,,,2017_May_05_1034,60.0122610943,FEMA4ImagesEEG,001,100126,
AFNE01.JPG,AFNE01.JPG,AFNE01.JPG,AFNE01.JPG,AFNE01.JPG,AFNE01.JPG,4,9,49,3,,,,,,,,,,,,,,,,,,,,,,,AFSA13.jpg,AFSA20.jpg,AFNE14.jpg,AFNE10.jpg,AFSA20.jpg,FS,4,num_6,32,num_8,0.683498840081,,,2017_May_05_1034,60.0122610943,FEMA4ImagesEEG,001,100126,
AFNE01.JPG,AFNE01.JPG,AFNE01.JPG,AFNE01.JPG,AFNE01.JPG,AFNE01.JPG,5,0,50,3,,,,,,,,,,,,,,,,,,,,,,,AFSA05.jpg,AFSA20.jpg,AFNE09.jpg,AFNE07.jpg,AFNE07.jpg,FN,3,num_4,32,num_8,1.20013252925,,,2017_May_05_1034,60.0122610943,FEMA4ImagesEEG,001,100126,
AFNE01.JPG,AFNE01.JPG,AFNE01.JPG,AFNE01.JPG,AFNE01.JPG,AFNE01.JPG,5,1,51,5,,,,,,,,,,,,,,,,,,,,,,,AFNE15.jpg,AFSA01.jpg,AFSA14.jpg,AFNE07.jpg,AFSA14.jpg,FS,4,num_2,16,num_2,0.766789007233,,,2017_May_05_1034,60.0122610943,FEMA4ImagesEEG,001,100126,
AFNE01.JPG,AFNE01.JPG,AFNE01.JPG,AFNE01.JPG,AFNE01.JPG,AFNE01.JPG,5,2,52,1,,,,,,,,,,,,,,,,,,,,,,,AFSA12.jpg,AFNE01.jpg,AFSA20.jpg,AFNE12.jpg,AFNE01.jpg,FN,3,num_6,32,num_8,1.21668811888,,,2017_May_05_1034,60.0122610943,FEMA4ImagesEEG,001,100126,
AFNE01.JPG,AFNE01.JPG,AFNE01.JPG,AFNE01.JPG,AFNE01.JPG,AFNE01.JPG,5,3,53,8,,,,,,,,,,,,,,,,,,,,,,,AFNE01.jpg,AFSA16.jpg,AFNE05.jpg,AFSA19.jpg,AFSA16.jpg,FS,4,num_6,16,num_6,0.599994419143,,,2017_May_05_1034,60.0122610943,FEMA4ImagesEEG,001,100126,
AFNE01.JPG,AFNE01.JPG,AFNE01.JPG,AFNE01.JPG,AFNE01.JPG,AFNE01.JPG,5,4,54,0,,,,,,,,,,,,,,,,,,,,,,,AFSA06.jpg,AFNE13.jpg,AFSA15.jpg,AFNE09.jpg,AFNE13.jpg,FN,3,num_6,16,num_6,0.916920237709,,,2017_May_05_1034,60.0122610943,FEMA4ImagesEEG,001,100126,
AFNE01.JPG,AFNE01.JPG,AFNE01.JPG,AFNE01.JPG,AFNE01.JPG,AFNE01.JPG,5,5,55,6,,,,,,,,,,,,,,,,,,,,,,,AFSA17.jpg,AFNE01.jpg,AFSA02.jpg,AFNE16.jpg,AFSA02.jpg,FS,4,num_2,16,num_2,0.833307086257,,,2017_May_05_1034,60.0122610943,FEMA4ImagesEEG,001,100126,
AFNE01.JPG,AFNE01.JPG,AFNE01.JPG,AFNE01.JPG,AFNE01.JPG,AFNE01.JPG,5,6,56,2,,,,,,,,,,,,,,,,,,,,,,,AFSA06.jpg,AFNE12.jpg,AFSA15.jpg,AFNE08.jpg,AFSA06.jpg,FS,4,num_8,16,num_8,0.866767549887,,,2017_May_05_1034,60.0122610943,FEMA4ImagesEEG,001,100126,
AFNE01.JPG,AFNE01.JPG,AFNE01.JPG,AFNE01.JPG,AFNE01.JPG,AFNE01.JPG,5,7,57,4,,,,,,,,,,,,,,,,,,,,,,,AFSA19.jpg,AFNE10.jpg,AFNE08.jpg,AFSA07.jpg,AFSA07.jpg,FS,4,num_4,32,num_2,1.35004244978,,,2017_May_05_1034,60.0122610943,FEMA4ImagesEEG,001,100126,
AFNE01.JPG,AFNE01.JPG,AFNE01.JPG,AFNE01.JPG,AFNE01.JPG,AFNE01.JPG,5,8,58,7,,,,,,,,,,,,,,,,,,,,,,,AFNE11.jpg,AFNE06.jpg,AFSA01.jpg,AFSA15.jpg,AFNE06.jpg,FN,3,num_6,16,num_6,0.86675472022,,,2017_May_05_1034,60.0122610943,FEMA4ImagesEEG,001,100126,
AFNE01.JPG,AFNE01.JPG,AFNE01.JPG,AFNE01.JPG,AFNE01.JPG,AFNE01.JPG,5,9,59,9,,,,,,,,,,,,,,,,,,,,,,,AFSA16.jpg,AFSA08.jpg,AFNE10.jpg,AFNE19.jpg,AFSA16.jpg,FS,4,num_8,32,num_6,0.800084290328,,,2017_May_05_1034,60.0122610943,FEMA4ImagesEEG,001,100126,
,,,,,,,,,,,,,,,,,,,,,,,,,,,,,,,,,,,,,,,,,,,space,7.86619246448,2017_May_05_1034,60.0122610943,FEMA4ImagesEEG,001,100126,
AFNE01.JPG,AFNE01.JPG,AFNE01.JPG,AFNE01.JPG,AFNE01.JPG,AFNE01.JPG,,,,,0,0,0,5,,,,,,,,,,,,,,,,,,,AMNE18.jpg,AMSA09.jpg,AMSA13.jpg,AMNE12.jpg,AMSA13.jpg,MS,2,num_2,16,num_2,0.816739629488,,,2017_May_05_1034,60.0122610943,FEMA4ImagesEEG,001,100126,
AFNE01.JPG,AFNE01.JPG,AFNE01.JPG,AFNE01.JPG,AFNE01.JPG,AFNE01.JPG,,,,,0,1,1,8,,,,,,,,,,,,,,,,,,,AMSA04.jpg,AMNE12.jpg,AMNE01.jpg,AMSA02.jpg,AMSA02.jpg,MS,2,num_4,16,num_4,0.900086888112,,,2017_May_05_1034,60.0122610943,FEMA4ImagesEEG,001,100126,
AFNE01.JPG,AFNE01.JPG,AFNE01.JPG,AFNE01.JPG,AFNE01.JPG,AFNE01.JPG,,,,,0,2,2,7,,,,,,,,,,,,,,,,,,,AMSA08.jpg,AMSA01.jpg,AMNE17.jpg,AMNE06.jpg,AMSA01.jpg,MS,2,num_6,16,num_6,1.10012512049,,,2017_May_05_1034,60.0122610943,FEMA4ImagesEEG,001,100126,
AFNE01.JPG,AFNE01.JPG,AFNE01.JPG,AFNE01.JPG,AFNE01.JPG,AFNE01.JPG,,,,,0,3,3,2,,,,,,,,,,,,,,,,,,,AMSA03.jpg,AMNE14.jpg,AMNE06.jpg,AMSA16.jpg,AMNE06.jpg,MN,1,num_2,32,num_8,0.916778471088,,,2017_May_05_1034,60.0122610943,FEMA4ImagesEEG,001,100126,
AFNE01.JPG,AFNE01.JPG,AFNE01.JPG,AFNE01.JPG,AFNE01.JPG,AFNE01.JPG,,,,,0,4,4,1,,,,,,,,,,,,,,,,,,,AMNE18.jpg,AMNE08.jpg,AMSA13.jpg,AMSA02.jpg,AMSA13.jpg,MS,2,num_2,32,num_6,0.733513289364,,,2017_May_05_1034,60.0122610943,FEMA4ImagesEEG,001,100126,
AFNE01.JPG,AFNE01.JPG,AFNE01.JPG,AFNE01.JPG,AFNE01.JPG,AFNE01.JPG,,,,,0,5,5,6,,,,,,,,,,,,,,,,,,,AMNE13.jpg,AMNE01.jpg,AMSA17.jpg,AMSA05.jpg,AMNE13.jpg,MN,1,num_8,16,num_8,0.666778711602,,,2017_May_05_1034,60.0122610943,FEMA4ImagesEEG,001,100126,
AFNE01.JPG,AFNE01.JPG,AFNE01.JPG,AFNE01.JPG,AFNE01.JPG,AFNE01.JPG,,,,,0,6,6,3,,,,,,,,,,,,,,,,,,,AMNE04.jpg,AMSA20.jpg,AMSA01.jpg,AMNE14.jpg,AMSA20.jpg,MS,2,num_6,16,num_6,0.750122442143,,,2017_May_05_1034,60.0122610943,FEMA4ImagesEEG,001,100126,
AFNE01.JPG,AFNE01.JPG,AFNE01.JPG,AFNE01.JPG,AFNE01.JPG,AFNE01.JPG,,,,,0,7,7,4,,,,,,,,,,,,,,,,,,,AMNE05.jpg,AMSA01.jpg,AMSA19.jpg,AMNE07.jpg,AMSA19.jpg,MS,2,num_2,32,num_6,0.866832659813,,,2017_May_05_1034,60.0122610943,FEMA4ImagesEEG,001,100126,
AFNE01.JPG,AFNE01.JPG,AFNE01.JPG,AFNE01.JPG,AFNE01.JPG,AFNE01.JPG,,,,,0,8,8,9,,,,,,,,,,,,,,,,,,,AMNE19.jpg,AMNE07.jpg,AMSA20.jpg,AMSA18.jpg,AMNE07.jpg,MN,1,num_6,32,num_2,0.966744809411,,,2017_May_05_1034,60.0122610943,FEMA4ImagesEEG,001,100126,
AFNE01.JPG,AFNE01.JPG,AFNE01.JPG,AFNE01.JPG,AFNE01.JPG,AFNE01.JPG,,,,,0,9,9,0,,,,,,,,,,,,,,,,,,,AMNE09.jpg,AMSA05.jpg,AMSA17.jpg,AMNE06.jpg,AMNE06.jpg,MN,1,num_4,32,num_6,0.816810512915,,,2017_May_05_1034,60.0122610943,FEMA4ImagesEEG,001,100126,
AFNE01.JPG,AFNE01.JPG,AFNE01.JPG,AFNE01.JPG,AFNE01.JPG,AFNE01.JPG,,,,,1,0,10,0,,,,,,,,,,,,,,,,,,,AMSA08.jpg,AMSA15.jpg,AMNE16.jpg,AMNE05.jpg,AMSA15.jpg,MS,2,num_6,32,num_2,0.850185018266,,,2017_May_05_1034,60.0122610943,FEMA4ImagesEEG,001,100126,
AFNE01.JPG,AFNE01.JPG,AFNE01.JPG,AFNE01.JPG,AFNE01.JPG,AFNE01.JPG,,,,,1,1,11,9,,,,,,,,,,,,,,,,,,,AMNE06.jpg,AMSA17.jpg,AMNE13.jpg,AMSA19.jpg,AMSA19.jpg,MS,2,num_4,16,num_4,0.566793112783,,,2017_May_05_1034,60.0122610943,FEMA4ImagesEEG,001,100126,
AFNE01.JPG,AFNE01.JPG,AFNE01.JPG,AFNE01.JPG,AFNE01.JPG,AFNE01.JPG,,,,,1,2,12,5,,,,,,,,,,,,,,,,,,,AMSA19.jpg,AMSA16.jpg,AMNE05.jpg,AMNE17.jpg,AMSA16.jpg,MS,2,num_6,16,num_6,0.533456133679,,,2017_May_05_1034,60.0122610943,FEMA4ImagesEEG,001,100126,
AFNE01.JPG,AFNE01.JPG,AFNE01.JPG,AFNE01.JPG,AFNE01.JPG,AFNE01.JPG,,,,,1,3,13,3,,,,,,,,,,,,,,,,,,,AMNE13.jpg,AMNE12.jpg,AMSA14.jpg,AMSA01.jpg,AMSA01.jpg,MS,2,num_4,16,num_4,0.733431821689,,,2017_May_05_1034,60.0122610943,FEMA4ImagesEEG,001,100126,
AFNE01.JPG,AFNE01.JPG,AFNE01.JPG,AFNE01.JPG,AFNE01.JPG,AFNE01.JPG,,,,,1,4,14,6,,,,,,,,,,,,,,,,,,,AMSA14.jpg,AMNE15.jpg,AMSA07.jpg,AMNE16.jpg,AMNE15.jpg,MN,1,num_6,16,num_6,0.71689098631,,,2017_May_05_1034,60.0122610943,FEMA4ImagesEEG,001,100126,
AFNE01.JPG,AFNE01.JPG,AFNE01.JPG,AFNE01.JPG,AFNE01.JPG,AFNE01.JPG,,,,,1,5,15,4,,,,,,,,,,,,,,,,,,,AMNE06.jpg,AMSA03.jpg,AMSA18.jpg,AMNE13.jpg,AMNE06.jpg,MN,1,num_8,16,num_8,0.816884603351,,,2017_May_05_1034,60.0122610943,FEMA4ImagesEEG,001,100126,
AFNE01.JPG,AFNE01.JPG,AFNE01.JPG,AFNE01.JPG,AFNE01.JPG,AFNE01.JPG,,,,,1,6,16,1,,,,,,,,,,,,,,,,,,,AMSA14.jpg,AMSA03.jpg,AMNE07.jpg,AMNE09.jpg,AMSA14.jpg,MS,2,num_8,16,num_8,1.56666994886,,,2017_May_05_1034,60.0122610943,FEMA4ImagesEEG,001,100126,
AFNE01.JPG,AFNE01.JPG,AFNE01.JPG,AFNE01.JPG,AFNE01.JPG,AFNE01.JPG,,,,,1,7,17,8,,,,,,,,,,,,,,,,,,,AMSA08.jpg,AMNE04.jpg,AMNE02.jpg,AMSA06.jpg,AMNE04.jpg,MN,1,num_6,16,num_6,1.16672081803,,,2017_May_05_1034,60.0122610943,FEMA4ImagesEEG,001,100126,
AFNE01.JPG,AFNE01.JPG,AFNE01.JPG,AFNE01.JPG,AFNE01.JPG,AFNE01.JPG,,,,,1,8,18,2,,,,,,,,,,,,,,,,,,,AMSA01.jpg,AMNE06.jpg,AMNE19.jpg,AMSA14.jpg,AMSA01.jpg,MS,2,num_8,16,num_8,0.71682619676,,,2017_May_05_1034,60.0122610943,FEMA4ImagesEEG,001,100126,
AFNE01.JPG,AFNE01.JPG,AFNE01.JPG,AFNE01.JPG,AFNE01.JPG,AFNE01.JPG,,,,,1,9,19,7,,,,,,,,,,,,,,,,,,,AMSA10.jpg,AMNE06.jpg,AMSA16.jpg,AMNE18.jpg,AMSA16.jpg,MS,2,num_2,16,num_2,1.05007410678,,,2017_May_05_1034,60.0122610943,FEMA4ImagesEEG,001,100126,
AFNE01.JPG,AFNE01.JPG,AFNE01.JPG,AFNE01.JPG,AFNE01.JPG,AFNE01.JPG,,,,,2,0,20,5,,,,,,,,,,,,,,,,,,,AMSA01.jpg,AMNE18.jpg,AMSA03.jpg,AMNE01.jpg,AMSA01.jpg,MS,2,num_8,16,num_8,0.800173455849,,,2017_May_05_1034,60.0122610943,FEMA4ImagesEEG,001,100126,
AFNE01.JPG,AFNE01.JPG,AFNE01.JPG,AFNE01.JPG,AFNE01.JPG,AFNE01.JPG,,,,,2,1,21,7,,,,,,,,,,,,,,,,,,,AMSA02.jpg,AMNE03.jpg,AMNE10.jpg,AMSA17.jpg,AMNE03.jpg,MN,1,num_6,16,num_6,0.683528027264,,,2017_May_05_1034,60.0122610943,FEMA4ImagesEEG,001,100126,
AFNE01.JPG,AFNE01.JPG,AFNE01.JPG,AFNE01.JPG,AFNE01.JPG,AFNE01.JPG,,,,,2,2,22,9,,,,,,,,,,,,,,,,,,,AMNE08.jpg,AMNE17.jpg,AMSA17.jpg,AMSA09.jpg,AMNE08.jpg,MN,1,num_8,32,num_4,0.733469347935,,,2017_May_05_1034,60.0122610943,FEMA4ImagesEEG,001,100126,
AFNE01.JPG,AFNE01.JPG,AFNE01.JPG,AFNE01.JPG,AFNE01.JPG,AFNE01.JPG,,,,,2,3,23,0,,,,,,,,,,,,,,,,,,,AMNE03.jpg,AMSA07.jpg,AMSA01.jpg,AMNE01.jpg,AMSA01.jpg,MS,2,num_2,32,num_8,2.08337388025,,,2017_May_05_1034,60.0122610943,FEMA4ImagesEEG,001,100126,
AFNE01.JPG,AFNE01.JPG,AFNE01.JPG,AFNE01.JPG,AFNE01.JPG,AFNE01.JPG,,,,,2,4,24,2,,,,,,,,,,,,,,,,,,,AMSA19.jpg,AMNE12.jpg,AMSA06.jpg,AMNE05.jpg,AMNE05.jpg,MN,1,num_4,16,num_4,0.683475105325,,,2017_May_05_1034,60.0122610943,FEMA4ImagesEEG,001,100126,
AFNE01.JPG,AFNE01.JPG,AFNE01.JPG,AFNE01.JPG,AFNE01.JPG,AFNE01.JPG,,,,,2,5,25,8,,,,,,,,,,,,,,,,,,,AMSA07.jpg,AMNE07.jpg,AMSA13.jpg,AMNE05.jpg,AMNE05.jpg,MN,1,num_4,32,num_6,0.750131743727,,,2017_May_05_1034,60.0122610943,FEMA4ImagesEEG,001,100126,
AFNE01.JPG,AFNE01.JPG,AFNE01.JPG,AFNE01.JPG,AFNE01.JPG,AFNE01.JPG,,,,,2,6,26,3,,,,,,,,,,,,,,,,,,,AMSA12.jpg,AMNE13.jpg,AMSA06.jpg,AMNE01.jpg,AMNE01.jpg,MN,1,num_4,16,num_4,0.800471101655,,,2017_May_05_1034,60.0122610943,FEMA4ImagesEEG,001,100126,
AFNE01.JPG,AFNE01.JPG,AFNE01.JPG,AFNE01.JPG,AFNE01.JPG,AFNE01.JPG,,,,,2,7,27,6,,,,,,,,,,,,,,,,,,,AMSA17.jpg,AMSA20.jpg,AMNE06.jpg,AMNE14.jpg,AMNE06.jpg,MN,1,num_2,16,num_2,1.38347597118,,,2017_May_05_1034,60.0122610943,FEMA4ImagesEEG,001,100126,
AFNE01.JPG,AFNE01.JPG,AFNE01.JPG,AFNE01.JPG,AFNE01.JPG,AFNE01.JPG,,,,,2,8,28,1,,,,,,,,,,,,,,,,,,,AMSA07.jpg,AMNE15.jpg,AMSA13.jpg,AMNE04.jpg,AMNE04.jpg,MN,1,num_4,16,num_4,0.666819765931,,,2017_May_05_1034,60.0122610943,FEMA4ImagesEEG,001,100126,
AFNE01.JPG,AFNE01.JPG,AFNE01.JPG,AFNE01.JPG,AFNE01.JPG,AFNE01.JPG,,,,,2,9,29,4,,,,,,,,,,,,,,,,,,,AMSA09.jpg,AMNE02.jpg,AMSA17.jpg,AMNE15.jpg,AMNE02.jpg,MN,1,num_6,16,num_6,1.00019276422,,,2017_May_05_1034,60.0122610943,FEMA4ImagesEEG,001,100126,
AFNE01.JPG,AFNE01.JPG,AFNE01.JPG,AFNE01.JPG,AFNE01.JPG,AFNE01.JPG,,,,,3,0,30,7,,,,,,,,,,,,,,,,,,,AMSA09.jpg,AMSA13.jpg,AMNE10.jpg,AMNE09.jpg,AMSA13.jpg,MS,2,num_6,32,num_8,0.783653468359,,,2017_May_05_1034,60.0122610943,FEMA4ImagesEEG,001,100126,
AFNE01.JPG,AFNE01.JPG,AFNE01.JPG,AFNE01.JPG,AFNE01.JPG,AFNE01.JPG,,,,,3,1,31,9,,,,,,,,,,,,,,,,,,,AMSA08.jpg,AMNE07.jpg,AMNE16.jpg,AMSA16.jpg,AMSA16.jpg,MS,2,num_4,16,num_4,0.983443127712,,,2017_May_05_1034,60.0122610943,FEMA4ImagesEEG,001,100126,
AFNE01.JPG,AFNE01.JPG,AFNE01.JPG,AFNE01.JPG,AFNE01.JPG,AFNE01.JPG,,,,,3,2,32,8,,,,,,,,,,,,,,,,,,,AMSA14.jpg,AMSA17.jpg,AMNE19.jpg,AMNE16.jpg,AMNE16.jpg,MN,1,num_4,32,num_2,0.833467134973,,,2017_May_05_1034,60.0122610943,FEMA4ImagesEEG,001,100126,
AFNE01.JPG,AFNE01.JPG,AFNE01.JPG,AFNE01.JPG,AFNE01.JPG,AFNE01.JPG,,,,,3,3,33,4,,,,,,,,,,,,,,,,,,,AMSA07.jpg,AMNE14.jpg,AMSA03.jpg,AMNE03.jpg,AMSA07.jpg,MS,2,num_8,32,num_4,0.90011511324,,,2017_May_05_1034,60.0122610943,FEMA4ImagesEEG,001,100126,
AFNE01.JPG,AFNE01.JPG,AFNE01.JPG,AFNE01.JPG,AFNE01.JPG,AFNE01.JPG,,,,,3,4,34,5,,,,,,,,,,,,,,,,,,,AMNE09.jpg,AMNE07.jpg,AMSA17.jpg,AMSA03.jpg,AMNE07.jpg,MN,1,num_6,32,num_8,0.76673191553,,,2017_May_05_1034,60.0122610943,FEMA4ImagesEEG,001,100126,
AFNE01.JPG,AFNE01.JPG,AFNE01.JPG,AFNE01.JPG,AFNE01.JPG,AFNE01.JPG,,,,,3,5,35,0,,,,,,,,,,,,,,,,,,,AMNE08.jpg,AMSA19.jpg,AMSA12.jpg,AMNE14.jpg,AMNE14.jpg,MN,1,num_4,16,num_4,0.916736774845,,,2017_May_05_1034,60.0122610943,FEMA4ImagesEEG,001,100126,
AFNE01.JPG,AFNE01.JPG,AFNE01.JPG,AFNE01.JPG,AFNE01.JPG,AFNE01.JPG,,,,,3,6,36,3,,,,,,,,,,,,,,,,,,,AMNE03.jpg,AMNE02.jpg,AMSA08.jpg,AMSA10.jpg,AMNE02.jpg,MN,1,num_6,16,num_6,0.616788317449,,,2017_May_05_1034,60.0122610943,FEMA4ImagesEEG,001,100126,
AFNE01.JPG,AFNE01.JPG,AFNE01.JPG,AFNE01.JPG,AFNE01.JPG,AFNE01.JPG,,,,,3,7,37,6,,,,,,,,,,,,,,,,,,,AMNE16.jpg,AMNE14.jpg,AMSA13.jpg,AMSA20.jpg,AMNE14.jpg,MN,1,num_6,16,num_6,0.833431212232,,,2017_May_05_1034,60.0122610943,FEMA4ImagesEEG,001,100126,
AFNE01.JPG,AFNE01.JPG,AFNE01.JPG,AFNE01.JPG,AFNE01.JPG,AFNE01.JPG,,,,,3,8,38,2,,,,,,,,,,,,,,,,,,,AMNE06.jpg,AMSA20.jpg,AMSA06.jpg,AMNE14.jpg,AMNE06.jpg,MN,1,num_8,16,num_8,0.95035311766,,,2017_May_05_1034,60.0122610943,FEMA4ImagesEEG,001,100126,
AFNE01.JPG,AFNE01.JPG,AFNE01.JPG,AFNE01.JPG,AFNE01.JPG,AFNE01.JPG,,,,,3,9,39,1,,,,,,,,,,,,,,,,,,,AMSA06.jpg,AMNE16.jpg,AMNE13.jpg,AMSA13.jpg,AMSA06.jpg,MS,2,num_8,16,num_8,1.01673167502,,,2017_May_05_1034,60.0122610943,FEMA4ImagesEEG,001,100126,
AFNE01.JPG,AFNE01.JPG,AFNE01.JPG,AFNE01.JPG,AFNE01.JPG,AFNE01.JPG,,,,,4,0,40,4,,,,,,,,,,,,,,,,,,,AMNE17.jpg,AMSA19.jpg,AMNE09.jpg,AMSA12.jpg,AMNE17.jpg,MN,1,num_8,16,num_8,0.750100631965,,,2017_May_05_1034,60.0122610943,FEMA4ImagesEEG,001,100126,
AFNE01.JPG,AFNE01.JPG,AFNE01.JPG,AFNE01.JPG,AFNE01.JPG,AFNE01.JPG,,,,,4,1,41,1,,,,,,,,,,,,,,,,,,,AMNE16.jpg,AMNE13.jpg,AMSA05.jpg,AMSA04.jpg,AMNE16.jpg,MN,1,num_8,16,num_8,0.566726078279,,,2017_May_05_1034,60.0122610943,FEMA4ImagesEEG,001,100126,
AFNE01.JPG,AFNE01.JPG,AFNE01.JPG,AFNE01.JPG,AFNE01.JPG,AFNE01.JPG,,,,,4,2,42,0,,,,,,,,,,,,,,,,,,,AMSA13.jpg,AMNE14.jpg,AMSA06.jpg,AMNE16.jpg,AMSA13.jpg,MS,2,num_8,16,num_8,0.950122826966,,,2017_May_05_1034,60.0122610943,FEMA4ImagesEEG,001,100126,
AFNE01.JPG,AFNE01.JPG,AFNE01.JPG,AFNE01.JPG,AFNE01.JPG,AFNE01.JPG,,,,,4,3,43,7,,,,,,,,,,,,,,,,,,,AMSA06.jpg,AMSA18.jpg,AMNE01.jpg,AMNE09.jpg,AMNE01.jpg,MN,1,num_2,32,num_8,1.05008180439,,,2017_May_05_1034,60.0122610943,FEMA4ImagesEEG,001,100126,
AFNE01.JPG,AFNE01.JPG,AFNE01.JPG,AFNE01.JPG,AFNE01.JPG,AFNE01.JPG,,,,,4,4,44,8,,,,,,,,,,,,,,,,,,,AMSA20.jpg,AMNE19.jpg,AMSA15.jpg,AMNE04.jpg,AMNE04.jpg,MN,1,num_4,16,num_4,2.25005588867,,,2017_May_05_1034,60.0122610943,FEMA4ImagesEEG,001,100126,
AFNE01.JPG,AFNE01.JPG,AFNE01.JPG,AFNE01.JPG,AFNE01.JPG,AFNE01.JPG,,,,,4,5,45,2,,,,,,,,,,,,,,,,,,,AMNE03.jpg,AMSA14.jpg,AMSA01.jpg,AMNE01.jpg,AMNE03.jpg,MN,1,num_8,16,num_8,0.800158060389,,,2017_May_05_1034,60.0122610943,FEMA4ImagesEEG,001,100126,
AFNE01.JPG,AFNE01.JPG,AFNE01.JPG,AFNE01.JPG,AFNE01.JPG,AFNE01.JPG,,,,,4,6,46,6,,,,,,,,,,,,,,,,,,,AMSA02.jpg,AMNE06.jpg,AMNE16.jpg,AMSA15.jpg,AMNE06.jpg,MN,1,num_6,16,num_6,1.03343480453,,,2017_May_05_1034,60.0122610943,FEMA4ImagesEEG,001,100126,
AFNE01.JPG,AFNE01.JPG,AFNE01.JPG,AFNE01.JPG,AFNE01.JPG,AFNE01.JPG,,,,,4,7,47,9,,,,,,,,,,,,,,,,,,,AMSA12.jpg,AMSA15.jpg,AMNE11.jpg,AMNE18.jpg,AMSA12.jpg,MS,2,num_8,16,num_8,1.46680591023,,,2017_May_05_1034,60.0122610943,FEMA4ImagesEEG,001,100126,
AFNE01.JPG,AFNE01.JPG,AFNE01.JPG,AFNE01.JPG,AFNE01.JPG,AFNE01.JPG,,,,,4,8,48,3,,,,,,,,,,,,,,,,,,,AMSA09.jpg,AMSA01.jpg,AMNE12.jpg,AMNE02.jpg,AMNE02.jpg,MN,1,num_4,16,num_4,0.833433457417,,,2017_May_05_1034,60.0122610943,FEMA4ImagesEEG,001,100126,
AFNE01.JPG,AFNE01.JPG,AFNE01.JPG,AFNE01.JPG,AFNE01.JPG,AFNE01.JPG,,,,,4,9,49,5,,,,,,,,,,,,,,,,,,,AMNE19.jpg,AMSA16.jpg,AMNE13.jpg,AMSA04.jpg,AMSA04.jpg,MS,2,num_4,16,num_4,0.700158990221,,,2017_May_05_1034,60.0122610943,FEMA4ImagesEEG,001,100126,
AFNE01.JPG,AFNE01.JPG,AFNE01.JPG,AFNE01.JPG,AFNE01.JPG,AFNE01.JPG,,,,,5,0,50,8,,,,,,,,,,,,,,,,,,,AMNE17.jpg,AMSA10.jpg,AMSA17.jpg,AMNE09.jpg,AMSA17.jpg,MS,2,num_2,32,num_8,1.06674195477,,,2017_May_05_1034,60.0122610943,FEMA4ImagesEEG,001,100126,
AFNE01.JPG,AFNE01.JPG,AFNE01.JPG,AFNE01.JPG,AFNE01.JPG,AFNE01.JPG,,,,,5,1,51,7,,,,,,,,,,,,,,,,,,,AMSA01.jpg,AMNE20.jpg,AMSA07.jpg,AMNE16.jpg,AMSA07.jpg,MS,2,num_2,16,num_2,0.85052019055,,,2017_May_05_1034,60.0122610943,FEMA4ImagesEEG,001,100126,
AFNE01.JPG,AFNE01.JPG,AFNE01.JPG,AFNE01.JPG,AFNE01.JPG,AFNE01.JPG,,,,,5,2,52,9,,,,,,,,,,,,,,,,,,,AMNE10.jpg,AMSA07.jpg,AMNE05.jpg,AMSA12.jpg,AMNE05.jpg,MN,1,num_2,32,num_8,0.916774942772,,,2017_May_05_1034,60.0122610943,FEMA4ImagesEEG,001,100126,
AFNE01.JPG,AFNE01.JPG,AFNE01.JPG,AFNE01.JPG,AFNE01.JPG,AFNE01.JPG,,,,,5,3,53,6,,,,,,,,,,,,,,,,,,,AMSA15.jpg,AMNE03.jpg,AMNE19.jpg,AMSA18.jpg,AMSA15.jpg,MS,2,num_8,16,num_8,0.716747615952,,,2017_May_05_1034,60.0122610943,FEMA4ImagesEEG,001,100126,
AFNE01.JPG,AFNE01.JPG,AFNE01.JPG,AFNE01.JPG,AFNE01.JPG,AFNE01.JPG,,,,,5,4,54,3,,,,,,,,,,,,,,,,,,,AMNE08.jpg,AMNE07.jpg,AMSA14.jpg,AMSA13.jpg,AMSA13.jpg,MS,2,num_4,16,num_4,0.766784516862,,,2017_May_05_1034,60.0122610943,FEMA4ImagesEEG,001,100126,
AFNE01.JPG,AFNE01.JPG,AFNE01.JPG,AFNE01.JPG,AFNE01.JPG,AFNE01.JPG,,,,,5,5,55,1,,,,,,,,,,,,,,,,,,,AMSA15.jpg,AMNE10.jpg,AMSA11.jpg,AMNE11.jpg,AMNE11.jpg,MN,1,num_4,32,num_6,0.816902885679,,,2017_May_05_1034,60.0122610943,FEMA4ImagesEEG,001,100126,
AFNE01.JPG,AFNE01.JPG,AFNE01.JPG,AFNE01.JPG,AFNE01.JPG,AFNE01.JPG,,,,,5,6,56,4,,,,,,,,,,,,,,,,,,,AMSA14.jpg,AMSA17.jpg,AMNE18.jpg,AMNE10.jpg,AMNE18.jpg,MN,1,num_2,16,num_2,1.00008307141,,,2017_May_05_1034,60.0122610943,FEMA4ImagesEEG,001,100126,
AFNE01.JPG,AFNE01.JPG,AFNE01.JPG,AFNE01.JPG,AFNE01.JPG,AFNE01.JPG,,,,,5,7,57,5,,,,,,,,,,,,,,,,,,,AMNE06.jpg,AMNE17.jpg,AMSA12.jpg,AMSA19.jpg,AMSA12.jpg,MS,2,num_2,32,num_4,0.599797806004,,,2017_May_05_1034,60.0122610943,FEMA4ImagesEEG,001,100126,
AFNE01.JPG,AFNE01.JPG,AFNE01.JPG,AFNE01.JPG,AFNE01.JPG,AFNE01.JPG,,,,,5,8,58,2,,,,,,,,,,,,,,,,,,,AMNE10.jpg,AMSA17.jpg,AMNE20.jpg,AMSA09.jpg,AMNE20.jpg,MN,1,num_2,32,num_8,0.9834383165,,,2017_May_05_1034,60.0122610943,FEMA4ImagesEEG,001,100126,
AFNE01.JPG,AFNE01.JPG,AFNE01.JPG,AFNE01.JPG,AFNE01.JPG,AFNE01.JPG,,,,,5,9,59,0,,,,,,,,,,,,,,,,,,,AMNE03.jpg,AMNE07.jpg,AMSA19.jpg,AMSA10.jpg,AMSA10.jpg,MS,2,num_4,16,num_4,0.866749909008,,,2017_May_05_1034,60.0122610943,FEMA4ImagesEEG,001,100126,
,,,,,,,,,,,,,,,,,,,,,,,,,,,,,,,,,,,,,,,,,,,space,9.68299592123,2017_May_05_1034,60.0122610943,FEMA4ImagesEEG,001,100126,
AFNE01.JPG,AFNE01.JPG,AFNE01.JPG,AFNE01.JPG,AFNE01.JPG,AFNE01.JPG,,,,,,,,,0,0,0,8,,,,,,,,,,,,,,,AFNE06.jpg,AFNE14.jpg,AFSA11.jpg,AFSA05.jpg,AFNE14.jpg,FN,3,num_6,32,num_8,0.733464216348,,,2017_May_05_1034,60.0122610943,FEMA4ImagesEEG,001,100126,
AFNE01.JPG,AFNE01.JPG,AFNE01.JPG,AFNE01.JPG,AFNE01.JPG,AFNE01.JPG,,,,,,,,,0,1,1,4,,,,,,,,,,,,,,,AFNE09.jpg,AFNE12.jpg,AFSA12.jpg,AFSA02.jpg,AFSA12.jpg,FS,4,num_2,16,num_2,0.733477366623,,,2017_May_05_1034,60.0122610943,FEMA4ImagesEEG,001,100126,
AFNE01.JPG,AFNE01.JPG,AFNE01.JPG,AFNE01.JPG,AFNE01.JPG,AFNE01.JPG,,,,,,,,,0,2,2,2,,,,,,,,,,,,,,,AFSA11.jpg,AFSA09.jpg,AFNE05.jpg,AFNE10.jpg,AFSA11.jpg,FS,4,num_8,16,num_8,0.76683326927,,,2017_May_05_1034,60.0122610943,FEMA4ImagesEEG,001,100126,
AFNE01.JPG,AFNE01.JPG,AFNE01.JPG,AFNE01.JPG,AFNE01.JPG,AFNE01.JPG,,,,,,,,,0,3,3,5,,,,,,,,,,,,,,,AFSA05.jpg,AFNE08.jpg,AFSA12.jpg,AFNE11.jpg,AFNE08.jpg,FN,3,num_6,16,num_6,0.833473870531,,,2017_May_05_1034,60.0122610943,FEMA4ImagesEEG,001,100126,
AFNE01.JPG,AFNE01.JPG,AFNE01.JPG,AFNE01.JPG,AFNE01.JPG,AFNE01.JPG,,,,,,,,,0,4,4,9,,,,,,,,,,,,,,,AFNE04.jpg,AFSA11.jpg,AFNE11.jpg,AFSA10.jpg,AFNE11.jpg,FN,3,num_2,16,num_2,0.983415223425,,,2017_May_05_1034,60.0122610943,FEMA4ImagesEEG,001,100126,
AFNE01.JPG,AFNE01.JPG,AFNE01.JPG,AFNE01.JPG,AFNE01.JPG,AFNE01.JPG,,,,,,,,,0,5,5,1,,,,,,,,,,,,,,,AFSA14.jpg,AFNE03.jpg,AFSA17.jpg,AFNE09.jpg,AFSA14.jpg,FS,4,num_8,32,num_2,1.00012027705,,,2017_May_05_1034,60.0122610943,FEMA4ImagesEEG,001,100126,
AFNE01.JPG,AFNE01.JPG,AFNE01.JPG,AFNE01.JPG,AFNE01.JPG,AFNE01.JPG,,,,,,,,,0,6,6,7,,,,,,,,,,,,,,,AFNE07.jpg,AFNE11.jpg,AFSA17.jpg,AFSA14.jpg,AFNE11.jpg,FN,3,num_6,16,num_6,0.633438845864,,,2017_May_05_1034,60.0122610943,FEMA4ImagesEEG,001,100126,
AFNE01.JPG,AFNE01.JPG,AFNE01.JPG,AFNE01.JPG,AFNE01.JPG,AFNE01.JPG,,,,,,,,,0,7,7,0,,,,,,,,,,,,,,,AFNE03.jpg,AFSA02.jpg,AFNE13.jpg,AFSA15.jpg,AFNE03.jpg,FN,3,num_8,16,num_8,0.750094858464,,,2017_May_05_1034,60.0122610943,FEMA4ImagesEEG,001,100126,
AFNE01.JPG,AFNE01.JPG,AFNE01.JPG,AFNE01.JPG,AFNE01.JPG,AFNE01.JPG,,,,,,,,,0,8,8,3,,,,,,,,,,,,,,,AFNE01.jpg,AFSA06.jpg,AFSA02.jpg,AFNE06.jpg,AFNE01.jpg,FN,3,num_8,16,num_8,0.783460704144,,,2017_May_05_1034,60.0122610943,FEMA4ImagesEEG,001,100126,
AFNE01.JPG,AFNE01.JPG,AFNE01.JPG,AFNE01.JPG,AFNE01.JPG,AFNE01.JPG,,,,,,,,,0,9,9,6,,,,,,,,,,,,,,,AFNE18.jpg,AFSA08.jpg,AFNE07.jpg,AFSA17.jpg,AFSA08.jpg,FS,4,num_6,16,num_6,1.09997982555,,,2017_May_05_1034,60.0122610943,FEMA4ImagesEEG,001,100126,
AFNE01.JPG,AFNE01.JPG,AFNE01.JPG,AFNE01.JPG,AFNE01.JPG,AFNE01.JPG,,,,,,,,,1,0,10,6,,,,,,,,,,,,,,,AFNE06.jpg,AFNE12.jpg,AFSA10.jpg,AFSA20.jpg,AFNE06.jpg,FN,3,num_8,16,num_8,0.633479579585,,,2017_May_05_1034,60.0122610943,FEMA4ImagesEEG,001,100126,
AFNE01.JPG,AFNE01.JPG,AFNE01.JPG,AFNE01.JPG,AFNE01.JPG,AFNE01.JPG,,,,,,,,,1,1,11,2,,,,,,,,,,,,,,,AFSA04.jpg,AFNE12.jpg,AFSA17.jpg,AFNE03.jpg,AFNE12.jpg,FN,3,num_6,16,num_6,0.833513321355,,,2017_May_05_1034,60.0122610943,FEMA4ImagesEEG,001,100126,
AFNE01.JPG,AFNE01.JPG,AFNE01.JPG,AFNE01.JPG,AFNE01.JPG,AFNE01.JPG,,,,,,,,,1,2,12,8,,,,,,,,,,,,,,,AFSA02.jpg,AFNE03.jpg,AFNE09.jpg,AFSA13.jpg,AFSA02.jpg,FS,4,num_8,32,num_4,1.13342457288,,,2017_May_05_1034,60.0122610943,FEMA4ImagesEEG,001,100126,
AFNE01.JPG,AFNE01.JPG,AFNE01.JPG,AFNE01.JPG,AFNE01.JPG,AFNE01.JPG,,,,,,,,,1,3,13,3,,,,,,,,,,,,,,,AFSA17.jpg,AFNE16.jpg,AFSA12.jpg,AFNE17.jpg,AFSA12.jpg,FS,4,num_2,16,num_2,0.816804418806,,,2017_May_05_1034,60.0122610943,FEMA4ImagesEEG,001,100126,
AFNE01.JPG,AFNE01.JPG,AFNE01.JPG,AFNE01.JPG,AFNE01.JPG,AFNE01.JPG,,,,,,,,,1,4,14,9,,,,,,,,,,,,,,,AFSA02.jpg,AFSA13.jpg,AFNE15.jpg,AFNE13.jpg,AFNE13.jpg,FN,3,num_4,32,num_8,0.766849947628,,,2017_May_05_1034,60.0122610943,FEMA4ImagesEEG,001,100126,
AFNE01.JPG,AFNE01.JPG,AFNE01.JPG,AFNE01.JPG,AFNE01.JPG,AFNE01.JPG,,,,,,,,,1,5,15,5,,,,,,,,,,,,,,,AFSA01.jpg,AFNE11.jpg,AFNE16.jpg,AFSA13.jpg,AFSA13.jpg,FS,4,num_4,16,num_4,0.600157675333,,,2017_May_05_1034,60.0122610943,FEMA4ImagesEEG,001,100126,
AFNE01.JPG,AFNE01.JPG,AFNE01.JPG,AFNE01.JPG,AFNE01.JPG,AFNE01.JPG,,,,,,,,,1,6,16,7,,,,,,,,,,,,,,,AFNE07.jpg,AFSA20.jpg,AFSA10.jpg,AFNE18.jpg,AFNE18.jpg,FN,3,num_4,16,num_4,0.983436712995,,,2017_May_05_1034,60.0122610943,FEMA4ImagesEEG,001,100126,
AFNE01.JPG,AFNE01.JPG,AFNE01.JPG,AFNE01.JPG,AFNE01.JPG,AFNE01.JPG,,,,,,,,,1,7,17,1,,,,,,,,,,,,,,,AFSA01.jpg,AFNE05.jpg,AFSA17.jpg,AFNE07.jpg,AFNE05.jpg,FN,3,num_6,16,num_6,0.666811747709,,,2017_May_05_1034,60.0122610943,FEMA4ImagesEEG,001,100126,
AFNE01.JPG,AFNE01.JPG,AFNE01.JPG,AFNE01.JPG,AFNE01.JPG,AFNE01.JPG,,,,,,,,,1,8,18,4,,,,,,,,,,,,,,,AFNE16.jpg,AFNE06.jpg,AFSA04.jpg,AFSA17.jpg,AFSA17.jpg,FS,4,num_4,16,num_4,0.766798629425,,,2017_May_05_1034,60.0122610943,FEMA4ImagesEEG,001,100126,
AFNE01.JPG,AFNE01.JPG,AFNE01.JPG,AFNE01.JPG,AFNE01.JPG,AFNE01.JPG,,,,,,,,,1,9,19,0,,,,,,,,,,,,,,,AFSA20.jpg,AFNE14.jpg,AFNE19.jpg,AFSA06.jpg,AFNE19.jpg,FN,3,num_2,16,num_2,0.766771687195,,,2017_May_05_1034,60.0122610943,FEMA4ImagesEEG,001,100126,
AFNE01.JPG,AFNE01.JPG,AFNE01.JPG,AFNE01.JPG,AFNE01.JPG,AFNE01.JPG,,,,,,,,,2,0,20,5,,,,,,,,,,,,,,,AFNE17.jpg,AFNE06.jpg,AFSA15.jpg,AFSA10.jpg,AFSA10.jpg,FS,4,num_4,16,num_4,0.800247225678,,,2017_May_05_1034,60.0122610943,FEMA4ImagesEEG,001,100126,
AFNE01.JPG,AFNE01.JPG,AFNE01.JPG,AFNE01.JPG,AFNE01.JPG,AFNE01.JPG,,,,,,,,,2,1,21,3,,,,,,,,,,,,,,,AFNE06.jpg,AFSA19.jpg,AFSA08.jpg,AFNE02.jpg,AFNE02.jpg,FN,3,num_4,16,num_4,0.767037580023,,,2017_May_05_1034,60.0122610943,FEMA4ImagesEEG,001,100126,
AFNE01.JPG,AFNE01.JPG,AFNE01.JPG,AFNE01.JPG,AFNE01.JPG,AFNE01.JPG,,,,,,,,,2,2,22,8,,,,,,,,,,,,,,,AFSA11.jpg,AFNE02.jpg,AFSA06.jpg,AFNE17.jpg,AFSA06.jpg,FS,4,num_2,16,num_2,0.683437258238,,,2017_May_05_1034,60.0122610943,FEMA4ImagesEEG,001,100126,
AFNE01.JPG,AFNE01.JPG,AFNE01.JPG,AFNE01.JPG,AFNE01.JPG,AFNE01.JPG,,,,,,,,,2,3,23,2,,,,,,,,,,,,,,,AFSA10.jpg,AFNE01.jpg,AFSA11.jpg,AFNE19.jpg,AFSA10.jpg,FS,4,num_8,32,num_6,0.700099974405,,,2017_May_05_1034,60.0122610943,FEMA4ImagesEEG,001,100126,
AFNE01.JPG,AFNE01.JPG,AFNE01.JPG,AFNE01.JPG,AFNE01.JPG,AFNE01.JPG,,,,,,,,,2,4,24,6,,,,,,,,,,,,,,,AFNE17.jpg,AFSA18.jpg,AFSA19.jpg,AFNE11.jpg,AFSA18.jpg,FS,4,num_6,32,num_2,1.0501302362,,,2017_May_05_1034,60.0122610943,FEMA4ImagesEEG,001,100126,
AFNE01.JPG,AFNE01.JPG,AFNE01.JPG,AFNE01.JPG,AFNE01.JPG,AFNE01.JPG,,,,,,,,,2,5,25,0,,,,,,,,,,,,,,,AFNE13.jpg,AFNE11.jpg,AFSA13.jpg,AFSA17.jpg,AFSA13.jpg,FS,4,num_2,16,num_2,0.633481825003,,,2017_May_05_1034,60.0122610943,FEMA4ImagesEEG,001,100126,
AFNE01.JPG,AFNE01.JPG,AFNE01.JPG,AFNE01.JPG,AFNE01.JPG,AFNE01.JPG,,,,,,,,,2,6,26,1,,,,,,,,,,,,,,,AFNE06.jpg,AFSA02.jpg,AFNE19.jpg,AFSA17.jpg,AFSA02.jpg,FS,4,num_6,16,num_6,0.833540584194,,,2017_May_05_1034,60.0122610943,FEMA4ImagesEEG,001,100126,
AFNE01.JPG,AFNE01.JPG,AFNE01.JPG,AFNE01.JPG,AFNE01.JPG,AFNE01.JPG,,,,,,,,,2,7,27,9,,,,,,,,,,,,,,,AFNE05.jpg,AFSA18.jpg,AFSA04.jpg,AFNE08.jpg,AFNE08.jpg,FN,3,num_4,16,num_4,0.616722566076,,,2017_May_05_1034,60.0122610943,FEMA4ImagesEEG,001,100126,
AFNE01.JPG,AFNE01.JPG,AFNE01.JPG,AFNE01.JPG,AFNE01.JPG,AFNE01.JPG,,,,,,,,,2,8,28,7,,,,,,,,,,,,,,,AFSA19.jpg,AFNE16.jpg,AFNE15.jpg,AFSA04.jpg,AFSA19.jpg,FS,4,num_8,16,num_8,0.8834321904,,,2017_May_05_1034,60.0122610943,FEMA4ImagesEEG,001,100126,
AFNE01.JPG,AFNE01.JPG,AFNE01.JPG,AFNE01.JPG,AFNE01.JPG,AFNE01.JPG,,,,,,,,,2,9,29,4,,,,,,,,,,,,,,,AFSA11.jpg,AFNE08.jpg,AFNE14.jpg,AFSA05.jpg,AFSA05.jpg,FS,4,num_4,16,num_4,0.550259975018,,,2017_May_05_1034,60.0122610943,FEMA4ImagesEEG,001,100126,
AFNE01.JPG,AFNE01.JPG,AFNE01.JPG,AFNE01.JPG,AFNE01.JPG,AFNE01.JPG,,,,,,,,,3,0,30,3,,,,,,,,,,,,,,,AFSA08.jpg,AFNE12.jpg,AFSA06.jpg,AFNE19.jpg,AFSA06.jpg,FS,4,num_2,32,num_4,0.666784805479,,,2017_May_05_1034,60.0122610943,FEMA4ImagesEEG,001,100126,
AFNE01.JPG,AFNE01.JPG,AFNE01.JPG,AFNE01.JPG,AFNE01.JPG,AFNE01.JPG,,,,,,,,,3,1,31,0,,,,,,,,,,,,,,,AFSA03.jpg,AFNE09.jpg,AFSA07.jpg,AFNE10.jpg,AFSA03.jpg,FS,4,num_8,32,num_4,0.816734497668,,,2017_May_05_1034,60.0122610943,FEMA4ImagesEEG,001,100126,
AFNE01.JPG,AFNE01.JPG,AFNE01.JPG,AFNE01.JPG,AFNE01.JPG,AFNE01.JPG,,,,,,,,,3,2,32,6,,,,,,,,,,,,,,,AFNE12.jpg,AFSA05.jpg,AFNE07.jpg,AFSA11.jpg,AFNE07.jpg,FN,3,num_2,16,num_2,0.81681339955,,,2017_May_05_1034,60.0122610943,FEMA4ImagesEEG,001,100126,
AFNE01.JPG,AFNE01.JPG,AFNE01.JPG,AFNE01.JPG,AFNE01.JPG,AFNE01.JPG,,,,,,,,,3,3,33,2,,,,,,,,,,,,,,,AFNE19.jpg,AFNE12.jpg,AFSA02.jpg,AFSA07.jpg,AFSA02.jpg,FS,4,num_2,32,num_8,1.08348228992,,,2017_May_05_1034,60.0122610943,FEMA4ImagesEEG,001,100126,
AFNE01.JPG,AFNE01.JPG,AFNE01.JPG,AFNE01.JPG,AFNE01.JPG,AFNE01.JPG,,,,,,,,,3,4,34,5,,,,,,,,,,,,,,,AFNE13.jpg,AFNE19.jpg,AFSA03.jpg,AFSA19.jpg,AFSA19.jpg,FS,4,num_4,16,num_4,0.550191336777,,,2017_May_05_1034,60.0122610943,FEMA4ImagesEEG,001,100126,
AFNE01.JPG,AFNE01.JPG,AFNE01.JPG,AFNE01.JPG,AFNE01.JPG,AFNE01.JPG,,,,,,,,,3,5,35,8,,,,,,,,,,,,,,,AFSA13.jpg,AFNE18.jpg,AFSA18.jpg,AFNE11.jpg,AFNE18.jpg,FN,3,num_6,32,num_8,0.933457544772,,,2017_May_05_1034,60.0122610943,FEMA4ImagesEEG,001,100126,
AFNE01.JPG,AFNE01.JPG,AFNE01.JPG,AFNE01.JPG,AFNE01.JPG,AFNE01.JPG,,,,,,,,,3,6,36,7,,,,,,,,,,,,,,,AFSA05.jpg,AFNE18.jpg,AFSA17.jpg,AFNE19.jpg,AFSA17.jpg,FS,4,num_2,16,num_2,0.800090704812,,,2017_May_05_1034,60.0122610943,FEMA4ImagesEEG,001,100126,
AFNE01.JPG,AFNE01.JPG,AFNE01.JPG,AFNE01.JPG,AFNE01.JPG,AFNE01.JPG,,,,,,,,,3,7,37,1,,,,,,,,,,,,,,,AFSA18.jpg,AFNE20.jpg,AFNE03.jpg,AFSA09.jpg,AFNE03.jpg,FN,3,num_2,32,num_8,0.866732589202,,,2017_May_05_1034,60.0122610943,FEMA4ImagesEEG,001,100126,
AFNE01.JPG,AFNE01.JPG,AFNE01.JPG,AFNE01.JPG,AFNE01.JPG,AFNE01.JPG,,,,,,,,,3,8,38,9,,,,,,,,,,,,,,,AFNE12.jpg,AFSA16.jpg,AFSA07.jpg,AFNE20.jpg,AFNE20.jpg,FN,3,num_4,16,num_4,1.31672343216,,,2017_May_05_1034,60.0122610943,FEMA4ImagesEEG,001,100126,
AFNE01.JPG,AFNE01.JPG,AFNE01.JPG,AFNE01.JPG,AFNE01.JPG,AFNE01.JPG,,,,,,,,,3,9,39,4,,,,,,,,,,,,,,,AFSA01.jpg,AFSA19.jpg,AFNE17.jpg,AFNE04.jpg,AFNE04.jpg,FN,3,num_4,16,num_4,0.850143643096,,,2017_May_05_1034,60.0122610943,FEMA4ImagesEEG,001,100126,
AFNE01.JPG,AFNE01.JPG,AFNE01.JPG,AFNE01.JPG,AFNE01.JPG,AFNE01.JPG,,,,,,,,,4,0,40,0,,,,,,,,,,,,,,,AFSA07.jpg,AFNE04.jpg,AFNE01.jpg,AFSA09.jpg,AFSA07.jpg,FS,4,num_8,32,num_4,1.00008852384,,,2017_May_05_1034,60.0122610943,FEMA4ImagesEEG,001,100126,
AFNE01.JPG,AFNE01.JPG,AFNE01.JPG,AFNE01.JPG,AFNE01.JPG,AFNE01.JPG,,,,,,,,,4,1,41,2,,,,,,,,,,,,,,,AFNE15.jpg,AFNE12.jpg,AFSA19.jpg,AFSA03.jpg,AFSA19.jpg,FS,4,num_2,16,num_2,1.03346944437,,,2017_May_05_1034,60.0122610943,FEMA4ImagesEEG,001,100126,
AFNE01.JPG,AFNE01.JPG,AFNE01.JPG,AFNE01.JPG,AFNE01.JPG,AFNE01.JPG,,,,,,,,,4,2,42,7,,,,,,,,,,,,,,,AFNE18.jpg,AFNE05.jpg,AFSA08.jpg,AFSA01.jpg,AFNE18.jpg,FN,3,num_8,32,num_4,0.8834222476,,,2017_May_05_1034,60.0122610943,FEMA4ImagesEEG,001,100126,
AFNE01.JPG,AFNE01.JPG,AFNE01.JPG,AFNE01.JPG,AFNE01.JPG,AFNE01.JPG,,,,,,,,,4,3,43,4,,,,,,,,,,,,,,,AFSA06.jpg,AFNE11.jpg,AFNE06.jpg,AFSA18.jpg,AFSA18.jpg,FS,4,num_4,16,num_4,0.483611034695,,,2017_May_05_1034,60.0122610943,FEMA4ImagesEEG,001,100126,
AFNE01.JPG,AFNE01.JPG,AFNE01.JPG,AFNE01.JPG,AFNE01.JPG,AFNE01.JPG,,,,,,,,,4,4,44,1,,,,,,,,,,,,,,,AFNE05.jpg,AFNE03.jpg,AFSA11.jpg,AFSA20.jpg,AFSA11.jpg,FS,4,num_2,16,num_2,0.733686809195,,,2017_May_05_1034,60.0122610943,FEMA4ImagesEEG,001,100126,
AFNE01.JPG,AFNE01.JPG,AFNE01.JPG,AFNE01.JPG,AFNE01.JPG,AFNE01.JPG,,,,,,,,,4,5,45,8,,,,,,,,,,,,,,,AFNE01.jpg,AFSA20.jpg,AFNE20.jpg,AFSA07.jpg,AFSA07.jpg,FS,4,num_4,32,num_6,0.916773339035,,,2017_May_05_1034,60.0122610943,FEMA4ImagesEEG,001,100126,
AFNE01.JPG,AFNE01.JPG,AFNE01.JPG,AFNE01.JPG,AFNE01.JPG,AFNE01.JPG,,,,,,,,,4,6,46,6,,,,,,,,,,,,,,,AFNE11.jpg,AFSA12.jpg,AFSA04.jpg,AFNE01.jpg,AFNE11.jpg,FN,3,num_8,16,num_8,0.46679885406,,,2017_May_05_1034,60.0122610943,FEMA4ImagesEEG,001,100126,
AFNE01.JPG,AFNE01.JPG,AFNE01.JPG,AFNE01.JPG,AFNE01.JPG,AFNE01.JPG,,,,,,,,,4,7,47,5,,,,,,,,,,,,,,,AFSA11.jpg,AFSA04.jpg,AFNE10.jpg,AFNE03.jpg,AFNE03.jpg,FN,3,num_4,16,num_4,0.666785126319,,,2017_May_05_1034,60.0122610943,FEMA4ImagesEEG,001,100126,
AFNE01.JPG,AFNE01.JPG,AFNE01.JPG,AFNE01.JPG,AFNE01.JPG,AFNE01.JPG,,,,,,,,,4,8,48,9,,,,,,,,,,,,,,,AFNE03.jpg,AFSA02.jpg,AFSA20.jpg,AFNE01.jpg,AFNE01.jpg,FN,3,num_4,16,num_4,0.88343764306,,,2017_May_05_1034,60.0122610943,FEMA4ImagesEEG,001,100126,
AFNE01.JPG,AFNE01.JPG,AFNE01.JPG,AFNE01.JPG,AFNE01.JPG,AFNE01.JPG,,,,,,,,,4,9,49,3,,,,,,,,,,,,,,,AFNE16.jpg,AFSA04.jpg,AFSA18.jpg,AFNE08.jpg,AFSA18.jpg,FS,4,num_2,16,num_2,0.766822043341,,,2017_May_05_1034,60.0122610943,FEMA4ImagesEEG,001,100126,
AFNE01.JPG,AFNE01.JPG,AFNE01.JPG,AFNE01.JPG,AFNE01.JPG,AFNE01.JPG,,,,,,,,,5,0,50,8,,,,,,,,,,,,,,,AFSA15.jpg,AFSA04.jpg,AFNE10.jpg,AFNE07.jpg,AFSA15.jpg,FS,4,num_8,16,num_8,1.76669952087,,,2017_May_05_1034,60.0122610943,FEMA4ImagesEEG,001,100126,
AFNE01.JPG,AFNE01.JPG,AFNE01.JPG,AFNE01.JPG,AFNE01.JPG,AFNE01.JPG,,,,,,,,,5,1,51,0,,,,,,,,,,,,,,,AFNE10.jpg,AFNE12.jpg,AFSA20.jpg,AFSA01.jpg,AFNE10.jpg,FN,3,num_8,32,num_4,0.766778422752,,,2017_May_05_1034,60.0122610943,FEMA4ImagesEEG,001,100126,
AFNE01.JPG,AFNE01.JPG,AFNE01.JPG,AFNE01.JPG,AFNE01.JPG,AFNE01.JPG,,,,,,,,,5,2,52,3,,,,,,,,,,,,,,,AFNE19.jpg,AFNE04.jpg,AFSA06.jpg,AFSA01.jpg,AFNE19.jpg,FN,3,num_8,16,num_8,0.650013358798,,,2017_May_05_1034,60.0122610943,FEMA4ImagesEEG,001,100126,
AFNE01.JPG,AFNE01.JPG,AFNE01.JPG,AFNE01.JPG,AFNE01.JPG,AFNE01.JPG,,,,,,,,,5,3,53,9,,,,,,,,,,,,,,,AFNE03.jpg,AFSA08.jpg,AFNE07.jpg,AFSA16.jpg,AFSA08.jpg,FS,4,num_6,32,num_4,0.716754672118,,,2017_May_05_1034,60.0122610943,FEMA4ImagesEEG,001,100126,
AFNE01.JPG,AFNE01.JPG,AFNE01.JPG,AFNE01.JPG,AFNE01.JPG,AFNE01.JPG,,,,,,,,,5,4,54,2,,,,,,,,,,,,,,,AFNE04.jpg,AFSA13.jpg,AFNE16.jpg,AFSA12.jpg,AFNE16.jpg,FN,3,num_2,32,num_6,0.850120549789,,,2017_May_05_1034,60.0122610943,FEMA4ImagesEEG,001,100126,
AFNE01.JPG,AFNE01.JPG,AFNE01.JPG,AFNE01.JPG,AFNE01.JPG,AFNE01.JPG,,,,,,,,,5,5,55,6,,,,,,,,,,,,,,,AFSA16.jpg,AFNE02.jpg,AFSA04.jpg,AFNE06.jpg,AFNE02.jpg,FN,3,num_6,16,num_6,1.05010361481,,,2017_May_05_1034,60.0122610943,FEMA4ImagesEEG,001,100126,
AFNE01.JPG,AFNE01.JPG,AFNE01.JPG,AFNE01.JPG,AFNE01.JPG,AFNE01.JPG,,,,,,,,,5,6,56,4,,,,,,,,,,,,,,,AFSA03.jpg,AFNE02.jpg,AFNE08.jpg,AFSA13.jpg,AFSA13.jpg,FS,4,num_4,32,num_2,0.883308705874,,,2017_May_05_1034,60.0122610943,FEMA4ImagesEEG,001,100126,
AFNE01.JPG,AFNE01.JPG,AFNE01.JPG,AFNE01.JPG,AFNE01.JPG,AFNE01.JPG,,,,,,,,,5,7,57,5,,,,,,,,,,,,,,,AFNE09.jpg,AFSA08.jpg,AFSA16.jpg,AFNE08.jpg,AFSA08.jpg,FS,4,num_6,32,num_8,0.933467166964,,,2017_May_05_1034,60.0122610943,FEMA4ImagesEEG,001,100126,
AFNE01.JPG,AFNE01.JPG,AFNE01.JPG,AFNE01.JPG,AFNE01.JPG,AFNE01.JPG,,,,,,,,,5,8,58,7,,,,,,,,,,,,,,,AFSA10.jpg,AFNE02.jpg,AFNE08.jpg,AFSA12.jpg,AFSA10.jpg,FS,4,num_8,16,num_8,0.683574855328,,,2017_May_05_1034,60.0122610943,FEMA4ImagesEEG,001,100126,
AFNE01.JPG,AFNE01.JPG,AFNE01.JPG,AFNE01.JPG,AFNE01.JPG,AFNE01.JPG,,,,,,,,,5,9,59,1,,,,,,,,,,,,,,,AFNE06.jpg,AFSA13.jpg,AFNE07.jpg,AFSA16.jpg,AFSA16.jpg,FS,4,num_4,32,num_6,1.01676118327,,,2017_May_05_1034,60.0122610943,FEMA4ImagesEEG,001,100126,
,,,,,,,,,,,,,,,,,,,,,,,,,,,,,,,,,,,,,,,,,,,space,15.7988953106,2017_May_05_1034,60.0122610943,FEMA4ImagesEEG,001,100126,
AFNE01.JPG,AFNE01.JPG,AFNE01.JPG,AFNE01.JPG,AFNE01.JPG,AFNE01.JPG,,,,,,,,,,,,,0,0,0,0,,,,,,,,,,,AMSA15.jpg,AMNE05.jpg,AMSA03.jpg,AMNE13.jpg,AMSA15.jpg,MS,2,num_8,32,num_2,2.34968097694,,,2017_May_05_1034,60.0122610943,FEMA4ImagesEEG,001,100126,
AFNE01.JPG,AFNE01.JPG,AFNE01.JPG,AFNE01.JPG,AFNE01.JPG,AFNE01.JPG,,,,,,,,,,,,,0,1,1,8,,,,,,,,,,,AMSA10.jpg,AMNE08.jpg,AMSA06.jpg,AMNE07.jpg,AMSA06.jpg,MS,2,num_2,16,num_2,0.833455588436,,,2017_May_05_1034,60.0122610943,FEMA4ImagesEEG,001,100126,
AFNE01.JPG,AFNE01.JPG,AFNE01.JPG,AFNE01.JPG,AFNE01.JPG,AFNE01.JPG,,,,,,,,,,,,,0,2,2,3,,,,,,,,,,,AMNE04.jpg,AMNE10.jpg,AMSA01.jpg,AMSA14.jpg,AMNE04.jpg,MN,1,num_8,32,num_4,0.93343413109,,,2017_May_05_1034,60.0122610943,FEMA4ImagesEEG,001,100126,
AFNE01.JPG,AFNE01.JPG,AFNE01.JPG,AFNE01.JPG,AFNE01.JPG,AFNE01.JPG,,,,,,,,,,,,,0,3,3,7,,,,,,,,,,,AMNE08.jpg,AMSA20.jpg,AMNE19.jpg,AMSA15.jpg,AMNE08.jpg,MN,1,num_8,16,num_8,0.56676296331,,,2017_May_05_1034,60.0122610943,FEMA4ImagesEEG,001,100126,
AFNE01.JPG,AFNE01.JPG,AFNE01.JPG,AFNE01.JPG,AFNE01.JPG,AFNE01.JPG,,,,,,,,,,,,,0,4,4,4,,,,,,,,,,,AMNE17.jpg,AMSA04.jpg,AMSA05.jpg,AMNE09.jpg,AMSA05.jpg,MS,2,num_2,16,num_2,0.633417356294,,,2017_May_05_1034,60.0122610943,FEMA4ImagesEEG,001,100126,
AFNE01.JPG,AFNE01.JPG,AFNE01.JPG,AFNE01.JPG,AFNE01.JPG,AFNE01.JPG,,,,,,,,,,,,,0,5,5,1,,,,,,,,,,,AMSA12.jpg,AMSA13.jpg,AMNE09.jpg,AMNE08.jpg,AMSA12.jpg,MS,2,num_8,16,num_8,0.450181361986,,,2017_May_05_1034,60.0122610943,FEMA4ImagesEEG,001,100126,
AFNE01.JPG,AFNE01.JPG,AFNE01.JPG,AFNE01.JPG,AFNE01.JPG,AFNE01.JPG,,,,,,,,,,,,,0,6,6,9,,,,,,,,,,,AMSA18.jpg,AMNE06.jpg,AMNE11.jpg,AMSA13.jpg,AMNE11.jpg,MN,1,num_2,16,num_2,1.15017003985,,,2017_May_05_1034,60.0122610943,FEMA4ImagesEEG,001,100126,
AFNE01.JPG,AFNE01.JPG,AFNE01.JPG,AFNE01.JPG,AFNE01.JPG,AFNE01.JPG,,,,,,,,,,,,,0,7,7,5,,,,,,,,,,,AMNE08.jpg,AMSA05.jpg,AMNE07.jpg,AMSA20.jpg,AMSA20.jpg,MS,2,num_4,16,num_4,0.616764583159,,,2017_May_05_1034,60.0122610943,FEMA4ImagesEEG,001,100126,
AFNE01.JPG,AFNE01.JPG,AFNE01.JPG,AFNE01.JPG,AFNE01.JPG,AFNE01.JPG,,,,,,,,,,,,,0,8,8,6,,,,,,,,,,,AMSA08.jpg,AMNE19.jpg,AMNE11.jpg,AMSA13.jpg,AMNE11.jpg,MN,1,num_2,16,num_2,0.750035521807,,,2017_May_05_1034,60.0122610943,FEMA4ImagesEEG,001,100126,
AFNE01.JPG,AFNE01.JPG,AFNE01.JPG,AFNE01.JPG,AFNE01.JPG,AFNE01.JPG,,,,,,,,,,,,,0,9,9,2,,,,,,,,,,,AMNE08.jpg,AMNE15.jpg,AMSA11.jpg,AMSA19.jpg,AMNE08.jpg,MN,1,num_8,16,num_8,0.833515245933,,,2017_May_05_1034,60.0122610943,FEMA4ImagesEEG,001,100126,
AFNE01.JPG,AFNE01.JPG,AFNE01.JPG,AFNE01.JPG,AFNE01.JPG,AFNE01.JPG,,,,,,,,,,,,,1,0,10,3,,,,,,,,,,,AMNE15.jpg,AMNE20.jpg,AMSA18.jpg,AMSA11.jpg,AMSA18.jpg,MS,2,num_2,32,num_4,0.800139778061,,,2017_May_05_1034,60.0122610943,FEMA4ImagesEEG,001,100126,
AFNE01.JPG,AFNE01.JPG,AFNE01.JPG,AFNE01.JPG,AFNE01.JPG,AFNE01.JPG,,,,,,,,,,,,,1,1,11,2,,,,,,,,,,,AMNE03.jpg,AMSA12.jpg,AMSA06.jpg,AMNE01.jpg,AMSA06.jpg,MS,2,num_2,16,num_2,0.766743141692,,,2017_May_05_1034,60.0122610943,FEMA4ImagesEEG,001,100126,
AFNE01.JPG,AFNE01.JPG,AFNE01.JPG,AFNE01.JPG,AFNE01.JPG,AFNE01.JPG,,,,,,,,,,,,,1,2,12,4,,,,,,,,,,,AMSA20.jpg,AMNE01.jpg,AMSA07.jpg,AMNE20.jpg,AMSA20.jpg,MS,2,num_8,16,num_8,1.11676474335,,,2017_May_05_1034,60.0122610943,FEMA4ImagesEEG,001,100126,
AFNE01.JPG,AFNE01.JPG,AFNE01.JPG,AFNE01.JPG,AFNE01.JPG,AFNE01.JPG,,,,,,,,,,,,,1,3,13,9,,,,,,,,,,,AMSA15.jpg,AMNE14.jpg,AMNE02.jpg,AMSA03.jpg,AMSA15.jpg,MS,2,num_8,32,num_4,0.733503667172,,,2017_May_05_1034,60.0122610943,FEMA4ImagesEEG,001,100126,
AFNE01.JPG,AFNE01.JPG,AFNE01.JPG,AFNE01.JPG,AFNE01.JPG,AFNE01.JPG,,,,,,,,,,,,,1,4,14,6,,,,,,,,,,,AMNE18.jpg,AMNE20.jpg,AMSA04.jpg,AMSA02.jpg,AMSA02.jpg,MS,2,num_4,16,num_4,0.65012144763,,,2017_May_05_1034,60.0122610943,FEMA4ImagesEEG,001,100126,
AFNE01.JPG,AFNE01.JPG,AFNE01.JPG,AFNE01.JPG,AFNE01.JPG,AFNE01.JPG,,,,,,,,,,,,,1,5,15,5,,,,,,,,,,,AMNE15.jpg,AMSA15.jpg,AMNE02.jpg,AMSA07.jpg,AMNE15.jpg,MN,1,num_8,32,num_2,0.83344211732,,,2017_May_05_1034,60.0122610943,FEMA4ImagesEEG,001,100126,
AFNE01.JPG,AFNE01.JPG,AFNE01.JPG,AFNE01.JPG,AFNE01.JPG,AFNE01.JPG,,,,,,,,,,,,,1,6,16,8,,,,,,,,,,,AMSA03.jpg,AMNE19.jpg,AMSA12.jpg,AMNE08.jpg,AMNE08.jpg,MN,1,num_4,16,num_4,0.500182660762,,,2017_May_05_1034,60.0122610943,FEMA4ImagesEEG,001,100126,
AFNE01.JPG,AFNE01.JPG,AFNE01.JPG,AFNE01.JPG,AFNE01.JPG,AFNE01.JPG,,,,,,,,,,,,,1,7,17,7,,,,,,,,,,,AMSA04.jpg,AMNE02.jpg,AMSA16.jpg,AMNE16.jpg,AMNE02.jpg,MN,1,num_6,16,num_6,0.85014107707,,,2017_May_05_1034,60.0122610943,FEMA4ImagesEEG,001,100126,
AFNE01.JPG,AFNE01.JPG,AFNE01.JPG,AFNE01.JPG,AFNE01.JPG,AFNE01.JPG,,,,,,,,,,,,,1,8,18,0,,,,,,,,,,,AMSA03.jpg,AMSA09.jpg,AMNE19.jpg,AMNE04.jpg,AMNE04.jpg,MN,1,num_4,32,num_2,0.916775905062,,,2017_May_05_1034,60.0122610943,FEMA4ImagesEEG,001,100126,
AFNE01.JPG,AFNE01.JPG,AFNE01.JPG,AFNE01.JPG,AFNE01.JPG,AFNE01.JPG,,,,,,,,,,,,,1,9,19,1,,,,,,,,,,,AMSA03.jpg,AMNE12.jpg,AMSA16.jpg,AMNE17.jpg,AMSA16.jpg,MS,2,num_2,16,num_2,0.883625275455,,,2017_May_05_1034,60.0122610943,FEMA4ImagesEEG,001,100126,
AFNE01.JPG,AFNE01.JPG,AFNE01.JPG,AFNE01.JPG,AFNE01.JPG,AFNE01.JPG,,,,,,,,,,,,,2,0,20,0,,,,,,,,,,,AMSA01.jpg,AMNE10.jpg,AMSA15.jpg,AMNE02.jpg,AMSA01.jpg,MS,2,num_8,16,num_8,0.950124109862,,,2017_May_05_1034,60.0122610943,FEMA4ImagesEEG,001,100126,
AFNE01.JPG,AFNE01.JPG,AFNE01.JPG,AFNE01.JPG,AFNE01.JPG,AFNE01.JPG,,,,,,,,,,,,,2,1,21,7,,,,,,,,,,,AMNE15.jpg,AMNE18.jpg,AMSA07.jpg,AMSA17.jpg,AMNE18.jpg,MN,1,num_6,32,num_8,1.55007170117,,,2017_May_05_1034,60.0122610943,FEMA4ImagesEEG,001,100126,
AFNE01.JPG,AFNE01.JPG,AFNE01.JPG,AFNE01.JPG,AFNE01.JPG,AFNE01.JPG,,,,,,,,,,,,,2,2,22,6,,,,,,,,,,,AMNE02.jpg,AMSA01.jpg,AMSA13.jpg,AMNE13.jpg,AMSA01.jpg,MS,2,num_6,16,num_6,0.700089389924,,,2017_May_05_1034,60.0122610943,FEMA4ImagesEEG,001,100126,
AFNE01.JPG,AFNE01.JPG,AFNE01.JPG,AFNE01.JPG,AFNE01.JPG,AFNE01.JPG,,,,,,,,,,,,,2,3,23,2,,,,,,,,,,,AMNE19.jpg,AMNE15.jpg,AMSA08.jpg,AMSA20.jpg,AMSA20.jpg,MS,2,num_4,32,num_2,1.68332724459,,,2017_May_05_1034,60.0122610943,FEMA4ImagesEEG,001,100126,
AFNE01.JPG,AFNE01.JPG,AFNE01.JPG,AFNE01.JPG,AFNE01.JPG,AFNE01.JPG,,,,,,,,,,,,,2,4,24,5,,,,,,,,,,,AMNE20.jpg,AMNE14.jpg,AMSA10.jpg,AMSA18.jpg,AMSA10.jpg,MS,2,num_2,16,num_2,1.91671111574,,,2017_May_05_1034,60.0122610943,FEMA4ImagesEEG,001,100126,
AFNE01.JPG,AFNE01.JPG,AFNE01.JPG,AFNE01.JPG,AFNE01.JPG,AFNE01.JPG,,,,,,,,,,,,,2,5,25,1,,,,,,,,,,,AMNE07.jpg,AMSA01.jpg,AMSA05.jpg,AMNE17.jpg,AMSA01.jpg,MS,2,num_6,16,num_6,0.566872014431,,,2017_May_05_1034,60.0122610943,FEMA4ImagesEEG,001,100126,
AFNE01.JPG,AFNE01.JPG,AFNE01.JPG,AFNE01.JPG,AFNE01.JPG,AFNE01.JPG,,,,,,,,,,,,,2,6,26,3,,,,,,,,,,,AMSA01.jpg,AMNE14.jpg,AMNE04.jpg,AMSA03.jpg,AMNE04.jpg,MN,1,num_2,16,num_2,0.966743526515,,,2017_May_05_1034,60.0122610943,FEMA4ImagesEEG,001,100126,
AFNE01.JPG,AFNE01.JPG,AFNE01.JPG,AFNE01.JPG,AFNE01.JPG,AFNE01.JPG,,,,,,,,,,,,,2,7,27,8,,,,,,,,,,,AMNE15.jpg,AMSA20.jpg,AMNE09.jpg,AMSA06.jpg,AMSA06.jpg,MS,2,num_4,16,num_4,1.3667032416,,,2017_May_05_1034,60.0122610943,FEMA4ImagesEEG,001,100126,
AFNE01.JPG,AFNE01.JPG,AFNE01.JPG,AFNE01.JPG,AFNE01.JPG,AFNE01.JPG,,,,,,,,,,,,,2,8,28,9,,,,,,,,,,,AMSA01.jpg,AMNE03.jpg,AMNE14.jpg,AMSA07.jpg,AMSA01.jpg,MS,2,num_8,32,num_2,1.33344003255,,,2017_May_05_1034,60.0122610943,FEMA4ImagesEEG,001,100126,
AFNE01.JPG,AFNE01.JPG,AFNE01.JPG,AFNE01.JPG,AFNE01.JPG,AFNE01.JPG,,,,,,,,,,,,,2,9,29,4,,,,,,,,,,,AMNE05.jpg,AMSA12.jpg,AMSA18.jpg,AMNE19.jpg,AMNE19.jpg,MN,1,num_4,16,num_4,0.750158364885,,,2017_May_05_1034,60.0122610943,FEMA4ImagesEEG,001,100126,
AFNE01.JPG,AFNE01.JPG,AFNE01.JPG,AFNE01.JPG,AFNE01.JPG,AFNE01.JPG,,,,,,,,,,,,,3,0,30,5,,,,,,,,,,,AMSA13.jpg,AMSA12.jpg,AMNE11.jpg,AMNE16.jpg,AMSA12.jpg,MS,2,num_6,32,num_8,1.00016902946,,,2017_May_05_1034,60.0122610943,FEMA4ImagesEEG,001,100126,
AFNE01.JPG,AFNE01.JPG,AFNE01.JPG,AFNE01.JPG,AFNE01.JPG,AFNE01.JPG,,,,,,,,,,,,,3,1,31,9,,,,,,,,,,,AMSA18.jpg,AMSA16.jpg,AMNE01.jpg,AMNE02.jpg,AMNE02.jpg,MN,1,num_4,32,num_2,0.716848327778,,,2017_May_05_1034,60.0122610943,FEMA4ImagesEEG,001,100126,
AFNE01.JPG,AFNE01.JPG,AFNE01.JPG,AFNE01.JPG,AFNE01.JPG,AFNE01.JPG,,,,,,,,,,,,,3,2,32,2,,,,,,,,,,,AMSA12.jpg,AMSA15.jpg,AMNE20.jpg,AMNE17.jpg,AMNE20.jpg,MN,1,num_2,32,num_4,0.883435397875,,,2017_May_05_1034,60.0122610943,FEMA4ImagesEEG,001,100126,
AFNE01.JPG,AFNE01.JPG,AFNE01.JPG,AFNE01.JPG,AFNE01.JPG,AFNE01.JPG,,,,,,,,,,,,,3,3,33,3,,,,,,,,,,,AMNE02.jpg,AMSA11.jpg,AMSA19.jpg,AMNE01.jpg,AMNE01.jpg,MN,1,num_4,16,num_4,0.816743157571,,,2017_May_05_1034,60.0122610943,FEMA4ImagesEEG,001,100126,
AFNE01.JPG,AFNE01.JPG,AFNE01.JPG,AFNE01.JPG,AFNE01.JPG,AFNE01.JPG,,,,,,,,,,,,,3,4,34,1,,,,,,,,,,,AMSA19.jpg,AMNE12.jpg,AMSA13.jpg,AMNE17.jpg,AMNE12.jpg,MN,1,num_6,32,num_8,1.15010845778,,,2017_May_05_1034,60.0122610943,FEMA4ImagesEEG,001,100126,
AFNE01.JPG,AFNE01.JPG,AFNE01.JPG,AFNE01.JPG,AFNE01.JPG,AFNE01.JPG,,,,,,,,,,,,,3,5,35,6,,,,,,,,,,,AMSA03.jpg,AMNE20.jpg,AMSA19.jpg,AMNE03.jpg,AMSA03.jpg,MS,2,num_8,16,num_8,1.15014181496,,,2017_May_05_1034,60.0122610943,FEMA4ImagesEEG,001,100126,
AFNE01.JPG,AFNE01.JPG,AFNE01.JPG,AFNE01.JPG,AFNE01.JPG,AFNE01.JPG,,,,,,,,,,,,,3,6,36,8,,,,,,,,,,,AMSA17.jpg,AMSA16.jpg,AMNE07.jpg,AMNE01.jpg,AMSA16.jpg,MS,2,num_6,16,num_6,1.16670991294,,,2017_May_05_1034,60.0122610943,FEMA4ImagesEEG,001,100126,
AFNE01.JPG,AFNE01.JPG,AFNE01.JPG,AFNE01.JPG,AFNE01.JPG,AFNE01.JPG,,,,,,,,,,,,,3,7,37,7,,,,,,,,,,,AMSA12.jpg,AMNE08.jpg,AMNE10.jpg,AMSA19.jpg,AMNE10.jpg,MN,1,num_2,32,num_6,0.766775536351,,,2017_May_05_1034,60.0122610943,FEMA4ImagesEEG,001,100126,
AFNE01.JPG,AFNE01.JPG,AFNE01.JPG,AFNE01.JPG,AFNE01.JPG,AFNE01.JPG,,,,,,,,,,,,,3,8,38,4,,,,,,,,,,,AMNE09.jpg,AMSA12.jpg,AMNE14.jpg,AMSA10.jpg,AMNE09.jpg,MN,1,num_8,16,num_8,0.800144909881,,,2017_May_05_1034,60.0122610943,FEMA4ImagesEEG,001,100126,
AFNE01.JPG,AFNE01.JPG,AFNE01.JPG,AFNE01.JPG,AFNE01.JPG,AFNE01.JPG,,,,,,,,,,,,,3,9,39,0,,,,,,,,,,,AMSA16.jpg,AMNE13.jpg,AMSA03.jpg,AMNE11.jpg,AMNE13.jpg,MN,1,num_6,16,num_6,0.733442085097,,,2017_May_05_1034,60.0122610943,FEMA4ImagesEEG,001,100126,
AFNE01.JPG,AFNE01.JPG,AFNE01.JPG,AFNE01.JPG,AFNE01.JPG,AFNE01.JPG,,,,,,,,,,,,,4,0,40,9,,,,,,,,,,,AMSA17.jpg,AMSA14.jpg,AMNE10.jpg,AMNE11.jpg,AMSA14.jpg,MS,2,num_6,16,num_6,0.533495263662,,,2017_May_05_1034,60.0122610943,FEMA4ImagesEEG,001,100126,
AFNE01.JPG,AFNE01.JPG,AFNE01.JPG,AFNE01.JPG,AFNE01.JPG,AFNE01.JPG,,,,,,,,,,,,,4,1,41,0,,,,,,,,,,,AMSA08.jpg,AMNE01.jpg,AMSA16.jpg,AMNE13.jpg,AMNE01.jpg,MN,1,num_6,16,num_6,0.750100631965,,,2017_May_05_1034,60.0122610943,FEMA4ImagesEEG,001,100126,
AFNE01.JPG,AFNE01.JPG,AFNE01.JPG,AFNE01.JPG,AFNE01.JPG,AFNE01.JPG,,,,,,,,,,,,,4,2,42,1,,,,,,,,,,,AMSA07.jpg,AMNE16.jpg,AMNE06.jpg,AMSA18.jpg,AMSA18.jpg,MS,2,num_4,16,num_4,0.733444651123,,,2017_May_05_1034,60.0122610943,FEMA4ImagesEEG,001,100126,
AFNE01.JPG,AFNE01.JPG,AFNE01.JPG,AFNE01.JPG,AFNE01.JPG,AFNE01.JPG,,,,,,,,,,,,,4,3,43,6,,,,,,,,,,,AMSA13.jpg,AMNE01.jpg,AMNE10.jpg,AMSA17.jpg,AMNE01.jpg,MN,1,num_6,16,num_6,0.600174674531,,,2017_May_05_1034,60.0122610943,FEMA4ImagesEEG,001,100126,
AFNE01.JPG,AFNE01.JPG,AFNE01.JPG,AFNE01.JPG,AFNE01.JPG,AFNE01.JPG,,,,,,,,,,,,,4,4,44,5,,,,,,,,,,,AMSA18.jpg,AMSA11.jpg,AMNE07.jpg,AMNE05.jpg,AMNE07.jpg,MN,1,num_2,32,num_6,0.616774205118,,,2017_May_05_1034,60.0122610943,FEMA4ImagesEEG,001,100126,
AFNE01.JPG,AFNE01.JPG,AFNE01.JPG,AFNE01.JPG,AFNE01.JPG,AFNE01.JPG,,,,,,,,,,,,,4,5,45,7,,,,,,,,,,,AMNE13.jpg,AMSA19.jpg,AMNE17.jpg,AMSA06.jpg,AMNE13.jpg,MN,1,num_8,16,num_8,0.699826383963,,,2017_May_05_1034,60.0122610943,FEMA4ImagesEEG,001,100126,
AFNE01.JPG,AFNE01.JPG,AFNE01.JPG,AFNE01.JPG,AFNE01.JPG,AFNE01.JPG,,,,,,,,,,,,,4,6,46,2,,,,,,,,,,,AMNE01.jpg,AMNE08.jpg,AMSA20.jpg,AMSA19.jpg,AMSA19.jpg,MS,2,num_4,32,num_2,0.733470631065,,,2017_May_05_1034,60.0122610943,FEMA4ImagesEEG,001,100126,
AFNE01.JPG,AFNE01.JPG,AFNE01.JPG,AFNE01.JPG,AFNE01.JPG,AFNE01.JPG,,,,,,,,,,,,,4,7,47,8,,,,,,,,,,,AMSA17.jpg,AMNE04.jpg,AMSA12.jpg,AMNE11.jpg,AMNE04.jpg,MN,1,num_6,16,num_6,0.616885501426,,,2017_May_05_1034,60.0122610943,FEMA4ImagesEEG,001,100126,
AFNE01.JPG,AFNE01.JPG,AFNE01.JPG,AFNE01.JPG,AFNE01.JPG,AFNE01.JPG,,,,,,,,,,,,,4,8,48,3,,,,,,,,,,,AMSA04.jpg,AMNE15.jpg,AMNE19.jpg,AMSA06.jpg,AMNE15.jpg,MN,1,num_6,16,num_6,0.866624500137,,,2017_May_05_1034,60.0122610943,FEMA4ImagesEEG,001,100126,
AFNE01.JPG,AFNE01.JPG,AFNE01.JPG,AFNE01.JPG,AFNE01.JPG,AFNE01.JPG,,,,,,,,,,,,,4,9,49,4,,,,,,,,,,,AMNE02.jpg,AMNE15.jpg,AMSA20.jpg,AMSA17.jpg,AMSA20.jpg,MS,2,num_2,16,num_2,0.883544769837,,,2017_May_05_1034,60.0122610943,FEMA4ImagesEEG,001,100126,
AFNE01.JPG,AFNE01.JPG,AFNE01.JPG,AFNE01.JPG,AFNE01.JPG,AFNE01.JPG,,,,,,,,,,,,,5,0,50,9,,,,,,,,,,,AMSA13.jpg,AMSA10.jpg,AMNE04.jpg,AMNE20.jpg,AMSA13.jpg,MS,2,num_8,32,num_4,0.816760156769,,,2017_May_05_1034,60.0122610943,FEMA4ImagesEEG,001,100126,
AFNE01.JPG,AFNE01.JPG,AFNE01.JPG,AFNE01.JPG,AFNE01.JPG,AFNE01.JPG,,,,,,,,,,,,,5,1,51,2,,,,,,,,,,,AMSA16.jpg,AMNE02.jpg,AMSA03.jpg,AMNE16.jpg,AMNE16.jpg,MN,1,num_4,16,num_4,0.616826164769,,,2017_May_05_1034,60.0122610943,FEMA4ImagesEEG,001,100126,
AFNE01.JPG,AFNE01.JPG,AFNE01.JPG,AFNE01.JPG,AFNE01.JPG,AFNE01.JPG,,,,,,,,,,,,,5,2,52,8,,,,,,,,,,,AMSA01.jpg,AMNE03.jpg,AMNE15.jpg,AMSA18.jpg,AMNE03.jpg,MN,1,num_6,32,num_4,0.716926267371,,,2017_May_05_1034,60.0122610943,FEMA4ImagesEEG,001,100126,
AFNE01.JPG,AFNE01.JPG,AFNE01.JPG,AFNE01.JPG,AFNE01.JPG,AFNE01.JPG,,,,,,,,,,,,,5,3,53,1,,,,,,,,,,,AMSA20.jpg,AMSA04.jpg,AMNE06.jpg,AMNE07.jpg,AMNE06.jpg,MN,1,num_2,16,num_2,0.916713681538,,,2017_May_05_1034,60.0122610943,FEMA4ImagesEEG,001,100126,
AFNE01.JPG,AFNE01.JPG,AFNE01.JPG,AFNE01.JPG,AFNE01.JPG,AFNE01.JPG,,,,,,,,,,,,,5,4,54,6,,,,,,,,,,,AMNE11.jpg,AMSA09.jpg,AMNE20.jpg,AMSA10.jpg,AMSA09.jpg,MS,2,num_6,16,num_6,1.05010585999,,,2017_May_05_1034,60.0122610943,FEMA4ImagesEEG,001,100126,
AFNE01.JPG,AFNE01.JPG,AFNE01.JPG,AFNE01.JPG,AFNE01.JPG,AFNE01.JPG,,,,,,,,,,,,,5,5,55,5,,,,,,,,,,,AMSA06.jpg,AMSA13.jpg,AMNE12.jpg,AMNE06.jpg,AMNE12.jpg,MN,1,num_2,32,num_6,0.783454289427,,,2017_May_05_1034,60.0122610943,FEMA4ImagesEEG,001,100126,
AFNE01.JPG,AFNE01.JPG,AFNE01.JPG,AFNE01.JPG,AFNE01.JPG,AFNE01.JPG,,,,,,,,,,,,,5,6,56,4,,,,,,,,,,,AMSA14.jpg,AMSA20.jpg,AMNE04.jpg,AMNE10.jpg,AMNE04.jpg,MN,1,num_2,16,num_2,0.850117662922,,,2017_May_05_1034,60.0122610943,FEMA4ImagesEEG,001,100126,
AFNE01.JPG,AFNE01.JPG,AFNE01.JPG,AFNE01.JPG,AFNE01.JPG,AFNE01.JPG,,,,,,,,,,,,,5,7,57,3,,,,,,,,,,,AMNE20.jpg,AMSA09.jpg,AMSA10.jpg,AMNE11.jpg,AMNE11.jpg,MN,1,num_4,32,num_2,0.800083648646,,,2017_May_05_1034,60.0122610943,FEMA4ImagesEEG,001,100126,
AFNE01.JPG,AFNE01.JPG,AFNE01.JPG,AFNE01.JPG,AFNE01.JPG,AFNE01.JPG,,,,,,,,,,,,,5,8,58,0,,,,,,,,,,,AMNE20.jpg,AMSA04.jpg,AMSA03.jpg,AMNE06.jpg,AMSA03.jpg,MS,2,num_2,32,num_6,0.750269661192,,,2017_May_05_1034,60.0122610943,FEMA4ImagesEEG,001,100126,
AFNE01.JPG,AFNE01.JPG,AFNE01.JPG,AFNE01.JPG,AFNE01.JPG,AFNE01.JPG,,,,,,,,,,,,,5,9,59,7,,,,,,,,,,,AMSA15.jpg,AMNE20.jpg,AMNE14.jpg,AMSA07.jpg,AMNE14.jpg,MN,1,num_2,32,num_6,0.667080847779,,,2017_May_05_1034,60.0122610943,FEMA4ImagesEEG,001,100126,
,,,,,,,,,,,,,,,,,,,,,,,,,,,,,,,,,,,,,,,,,,,space,15.2325823442,2017_May_05_1034,60.0122610943,FEMA4ImagesEEG,001,100126,
AFNE01.JPG,AFNE01.JPG,AFNE01.JPG,AFNE01.JPG,AFNE01.JPG,AFNE01.JPG,,,,,,,,,,,,,,,,,0,0,0,4,,,,,,,AFNE20.jpg,AFSA01.jpg,AFNE02.jpg,AFSA05.jpg,AFNE20.jpg,FN,3,num_8,32,num_4,1.33339224244,,,2017_May_05_1034,60.0122610943,FEMA4ImagesEEG,001,100126,
AFNE01.JPG,AFNE01.JPG,AFNE01.JPG,AFNE01.JPG,AFNE01.JPG,AFNE01.JPG,,,,,,,,,,,,,,,,,0,1,1,2,,,,,,,AFSA17.jpg,AFNE17.jpg,AFSA18.jpg,AFNE05.jpg,AFSA17.jpg,FS,4,num_8,32,num_2,1.01673680707,,,2017_May_05_1034,60.0122610943,FEMA4ImagesEEG,001,100126,
AFNE01.JPG,AFNE01.JPG,AFNE01.JPG,AFNE01.JPG,AFNE01.JPG,AFNE01.JPG,,,,,,,,,,,,,,,,,0,2,2,1,,,,,,,AFSA07.jpg,AFNE12.jpg,AFSA17.jpg,AFNE09.jpg,AFNE09.jpg,FN,3,num_4,16,num_4,0.70013846294,,,2017_May_05_1034,60.0122610943,FEMA4ImagesEEG,001,100126,
AFNE01.JPG,AFNE01.JPG,AFNE01.JPG,AFNE01.JPG,AFNE01.JPG,AFNE01.JPG,,,,,,,,,,,,,,,,,0,3,3,3,,,,,,,AFNE09.jpg,AFNE01.jpg,AFSA03.jpg,AFSA02.jpg,AFNE01.jpg,FN,3,num_6,32,num_8,1.30002062349,,,2017_May_05_1034,60.0122610943,FEMA4ImagesEEG,001,100126,
AFNE01.JPG,AFNE01.JPG,AFNE01.JPG,AFNE01.JPG,AFNE01.JPG,AFNE01.JPG,,,,,,,,,,,,,,,,,0,4,4,9,,,,,,,AFSA10.jpg,AFNE19.jpg,AFNE04.jpg,AFSA14.jpg,AFNE04.jpg,FN,3,num_2,16,num_2,0.850139794173,,,2017_May_05_1034,60.0122610943,FEMA4ImagesEEG,001,100126,
AFNE01.JPG,AFNE01.JPG,AFNE01.JPG,AFNE01.JPG,AFNE01.JPG,AFNE01.JPG,,,,,,,,,,,,,,,,,0,5,5,7,,,,,,,AFSA12.jpg,AFNE20.jpg,AFNE14.jpg,AFSA20.jpg,AFSA12.jpg,FS,4,num_8,32,num_4,0.766796704847,,,2017_May_05_1034,60.0122610943,FEMA4ImagesEEG,001,100126,
AFNE01.JPG,AFNE01.JPG,AFNE01.JPG,AFNE01.JPG,AFNE01.JPG,AFNE01.JPG,,,,,,,,,,,,,,,,,0,6,6,8,,,,,,,AFNE11.jpg,AFSA17.jpg,AFNE09.jpg,AFSA07.jpg,AFNE11.jpg,FN,3,num_8,16,num_8,0.600169863319,,,2017_May_05_1034,60.0122610943,FEMA4ImagesEEG,001,100126,
AFNE01.JPG,AFNE01.JPG,AFNE01.JPG,AFNE01.JPG,AFNE01.JPG,AFNE01.JPG,,,,,,,,,,,,,,,,,0,7,7,6,,,,,,,AFSA13.jpg,AFNE05.jpg,AFSA06.jpg,AFNE20.jpg,AFNE20.jpg,FN,3,num_4,16,num_4,0.816809229786,,,2017_May_05_1034,60.0122610943,FEMA4ImagesEEG,001,100126,
AFNE01.JPG,AFNE01.JPG,AFNE01.JPG,AFNE01.JPG,AFNE01.JPG,AFNE01.JPG,,,,,,,,,,,,,,,,,0,8,8,5,,,,,,,AFSA08.jpg,AFSA03.jpg,AFNE17.jpg,AFNE02.jpg,AFNE17.jpg,FN,3,num_2,32,num_6,0.800136891427,,,2017_May_05_1034,60.0122610943,FEMA4ImagesEEG,001,100126,
AFNE01.JPG,AFNE01.JPG,AFNE01.JPG,AFNE01.JPG,AFNE01.JPG,AFNE01.JPG,,,,,,,,,,,,,,,,,0,9,9,0,,,,,,,AFSA19.jpg,AFNE05.jpg,AFSA06.jpg,AFNE10.jpg,AFNE10.jpg,FN,3,num_4,16,num_4,1.08351564663,,,2017_May_05_1034,60.0122610943,FEMA4ImagesEEG,001,100126,
AFNE01.JPG,AFNE01.JPG,AFNE01.JPG,AFNE01.JPG,AFNE01.JPG,AFNE01.JPG,,,,,,,,,,,,,,,,,1,0,10,7,,,,,,,AFSA16.jpg,AFNE14.jpg,AFSA04.jpg,AFNE03.jpg,AFNE03.jpg,FN,3,num_4,16,num_4,1.31658519362,,,2017_May_05_1034,60.0122610943,FEMA4ImagesEEG,001,100126,
AFNE01.JPG,AFNE01.JPG,AFNE01.JPG,AFNE01.JPG,AFNE01.JPG,AFNE01.JPG,,,,,,,,,,,,,,,,,1,1,11,8,,,,,,,AFNE20.jpg,AFSA18.jpg,AFNE19.jpg,AFSA01.jpg,AFSA01.jpg,FS,4,num_4,16,num_4,0.633477013791,,,2017_May_05_1034,60.0122610943,FEMA4ImagesEEG,001,100126,
AFNE01.JPG,AFNE01.JPG,AFNE01.JPG,AFNE01.JPG,AFNE01.JPG,AFNE01.JPG,,,,,,,,,,,,,,,,,1,2,12,1,,,,,,,AFSA02.jpg,AFSA17.jpg,AFNE16.jpg,AFNE05.jpg,AFNE16.jpg,FN,3,num_2,16,num_2,1.2167618887,,,2017_May_05_1034,60.0122610943,FEMA4ImagesEEG,001,100126,
AFNE01.JPG,AFNE01.JPG,AFNE01.JPG,AFNE01.JPG,AFNE01.JPG,AFNE01.JPG,,,,,,,,,,,,,,,,,1,3,13,2,,,,,,,AFNE19.jpg,AFSA11.jpg,AFNE11.jpg,AFSA07.jpg,AFSA07.jpg,FS,4,num_4,16,num_4,1.23342107679,,,2017_May_05_1034,60.0122610943,FEMA4ImagesEEG,001,100126,
AFNE01.JPG,AFNE01.JPG,AFNE01.JPG,AFNE01.JPG,AFNE01.JPG,AFNE01.JPG,,,,,,,,,,,,,,,,,1,4,14,0,,,,,,,AFSA02.jpg,AFNE18.jpg,AFSA08.jpg,AFNE20.jpg,AFSA08.jpg,FS,4,num_2,16,num_2,1.55003481638,,,2017_May_05_1034,60.0122610943,FEMA4ImagesEEG,001,100126,
AFNE01.JPG,AFNE01.JPG,AFNE01.JPG,AFNE01.JPG,AFNE01.JPG,AFNE01.JPG,,,,,,,,,,,,,,,,,1,5,15,6,,,,,,,AFNE09.jpg,AFSA11.jpg,AFNE11.jpg,AFSA05.jpg,AFNE09.jpg,FN,3,num_8,32,num_4,0.650146144675,,,2017_May_05_1034,60.0122610943,FEMA4ImagesEEG,001,100126,
AFNE01.JPG,AFNE01.JPG,AFNE01.JPG,AFNE01.JPG,AFNE01.JPG,AFNE01.JPG,,,,,,,,,,,,,,,,,1,6,16,5,,,,,,,AFNE18.jpg,AFNE02.jpg,AFSA02.jpg,AFSA12.jpg,AFSA02.jpg,FS,4,num_2,16,num_2,0.816787098767,,,2017_May_05_1034,60.0122610943,FEMA4ImagesEEG,001,100126,
AFNE01.JPG,AFNE01.JPG,AFNE01.JPG,AFNE01.JPG,AFNE01.JPG,AFNE01.JPG,,,,,,,,,,,,,,,,,1,7,17,9,,,,,,,AFNE06.jpg,AFNE19.jpg,AFSA11.jpg,AFSA10.jpg,AFSA10.jpg,FS,4,num_4,32,num_8,0.950141750742,,,2017_May_05_1034,60.0122610943,FEMA4ImagesEEG,001,100126,
AFNE01.JPG,AFNE01.JPG,AFNE01.JPG,AFNE01.JPG,AFNE01.JPG,AFNE01.JPG,,,,,,,,,,,,,,,,,1,8,18,3,,,,,,,AFSA17.jpg,AFNE08.jpg,AFSA04.jpg,AFNE06.jpg,AFSA04.jpg,FS,4,num_2,16,num_2,0.867018367629,,,2017_May_05_1034,60.0122610943,FEMA4ImagesEEG,001,100126,
AFNE01.JPG,AFNE01.JPG,AFNE01.JPG,AFNE01.JPG,AFNE01.JPG,AFNE01.JPG,,,,,,,,,,,,,,,,,1,9,19,4,,,,,,,AFNE18.jpg,AFNE06.jpg,AFSA10.jpg,AFSA15.jpg,AFSA10.jpg,FS,4,num_2,16,num_2,0.900110943476,,,2017_May_05_1034,60.0122610943,FEMA4ImagesEEG,001,100126,
AFNE01.JPG,AFNE01.JPG,AFNE01.JPG,AFNE01.JPG,AFNE01.JPG,AFNE01.JPG,,,,,,,,,,,,,,,,,2,0,20,3,,,,,,,AFSA07.jpg,AFNE14.jpg,AFSA16.jpg,AFNE09.jpg,AFSA07.jpg,FS,4,num_8,32,num_4,0.850111889886,,,2017_May_05_1034,60.0122610943,FEMA4ImagesEEG,001,100126,
AFNE01.JPG,AFNE01.JPG,AFNE01.JPG,AFNE01.JPG,AFNE01.JPG,AFNE01.JPG,,,,,,,,,,,,,,,,,2,1,21,1,,,,,,,AFNE13.jpg,AFNE20.jpg,AFSA13.jpg,AFSA14.jpg,AFSA14.jpg,FS,4,num_4,16,num_4,0.866744135972,,,2017_May_05_1034,60.0122610943,FEMA4ImagesEEG,001,100126,
AFNE01.JPG,AFNE01.JPG,AFNE01.JPG,AFNE01.JPG,AFNE01.JPG,AFNE01.JPG,,,,,,,,,,,,,,,,,2,2,22,5,,,,,,,AFNE07.jpg,AFSA04.jpg,AFNE08.jpg,AFSA05.jpg,AFSA04.jpg,FS,4,num_6,32,num_4,0.75022475794,,,2017_May_05_1034,60.0122610943,FEMA4ImagesEEG,001,100126,
AFNE01.JPG,AFNE01.JPG,AFNE01.JPG,AFNE01.JPG,AFNE01.JPG,AFNE01.JPG,,,,,,,,,,,,,,,,,2,3,23,7,,,,,,,AFNE16.jpg,AFNE13.jpg,AFSA03.jpg,AFSA12.jpg,AFNE16.jpg,FN,3,num_8,32,num_6,0.916762113338,,,2017_May_05_1034,60.0122610943,FEMA4ImagesEEG,001,100126,
AFNE01.JPG,AFNE01.JPG,AFNE01.JPG,AFNE01.JPG,AFNE01.JPG,AFNE01.JPG,,,,,,,,,,,,,,,,,2,4,24,2,,,,,,,AFNE11.jpg,AFNE08.jpg,AFSA06.jpg,AFSA17.jpg,AFSA06.jpg,FS,4,num_2,16,num_2,1.0834684982,,,2017_May_05_1034,60.0122610943,FEMA4ImagesEEG,001,100126,
AFNE01.JPG,AFNE01.JPG,AFNE01.JPG,AFNE01.JPG,AFNE01.JPG,AFNE01.JPG,,,,,,,,,,,,,,,,,2,5,25,6,,,,,,,AFNE15.jpg,AFSA05.jpg,AFNE08.jpg,AFSA08.jpg,AFNE08.jpg,FN,3,num_2,32,num_4,0.950092677493,,,2017_May_05_1034,60.0122610943,FEMA4ImagesEEG,001,100126,
AFNE01.JPG,AFNE01.JPG,AFNE01.JPG,AFNE01.JPG,AFNE01.JPG,AFNE01.JPG,,,,,,,,,,,,,,,,,2,6,26,0,,,,,,,AFSA03.jpg,AFNE14.jpg,AFSA08.jpg,AFNE17.jpg,AFSA08.jpg,FS,4,num_2,16,num_2,0.933491543168,,,2017_May_05_1034,60.0122610943,FEMA4ImagesEEG,001,100126,
AFNE01.JPG,AFNE01.JPG,AFNE01.JPG,AFNE01.JPG,AFNE01.JPG,AFNE01.JPG,,,,,,,,,,,,,,,,,2,7,27,9,,,,,,,AFSA13.jpg,AFNE10.jpg,AFSA02.jpg,AFNE11.jpg,AFSA02.jpg,FS,4,num_2,16,num_2,0.716791557148,,,2017_May_05_1034,60.0122610943,FEMA4ImagesEEG,001,100126,
AFNE01.JPG,AFNE01.JPG,AFNE01.JPG,AFNE01.JPG,AFNE01.JPG,AFNE01.JPG,,,,,,,,,,,,,,,,,2,8,28,8,,,,,,,AFSA19.jpg,AFNE13.jpg,AFNE10.jpg,AFSA10.jpg,AFNE10.jpg,FN,3,num_2,16,num_2,0.766751160147,,,2017_May_05_1034,60.0122610943,FEMA4ImagesEEG,001,100126,
AFNE01.JPG,AFNE01.JPG,AFNE01.JPG,AFNE01.JPG,AFNE01.JPG,AFNE01.JPG,,,,,,,,,,,,,,,,,2,9,29,4,,,,,,,AFNE07.jpg,AFSA20.jpg,AFNE05.jpg,AFSA12.jpg,AFSA20.jpg,FS,4,num_6,16,num_6,0.716793481726,,,2017_May_05_1034,60.0122610943,FEMA4ImagesEEG,001,100126,
AFNE01.JPG,AFNE01.JPG,AFNE01.JPG,AFNE01.JPG,AFNE01.JPG,AFNE01.JPG,,,,,,,,,,,,,,,,,3,0,30,8,,,,,,,AFNE07.jpg,AFSA17.jpg,AFNE11.jpg,AFSA12.jpg,AFNE07.jpg,FN,3,num_8,16,num_8,0.600132337073,,,2017_May_05_1034,60.0122610943,FEMA4ImagesEEG,001,100126,
AFNE01.JPG,AFNE01.JPG,AFNE01.JPG,AFNE01.JPG,AFNE01.JPG,AFNE01.JPG,,,,,,,,,,,,,,,,,3,1,31,3,,,,,,,AFNE04.jpg,AFNE15.jpg,AFSA15.jpg,AFSA02.jpg,AFNE04.jpg,FN,3,num_8,16,num_8,1.03346591629,,,2017_May_05_1034,60.0122610943,FEMA4ImagesEEG,001,100126,
AFNE01.JPG,AFNE01.JPG,AFNE01.JPG,AFNE01.JPG,AFNE01.JPG,AFNE01.JPG,,,,,,,,,,,,,,,,,3,2,32,4,,,,,,,AFSA04.jpg,AFSA13.jpg,AFNE02.jpg,AFNE20.jpg,AFNE20.jpg,FN,3,num_4,16,num_4,0.733490516897,,,2017_May_05_1034,60.0122610943,FEMA4ImagesEEG,001,100126,
AFNE01.JPG,AFNE01.JPG,AFNE01.JPG,AFNE01.JPG,AFNE01.JPG,AFNE01.JPG,,,,,,,,,,,,,,,,,3,3,33,1,,,,,,,AFSA05.jpg,AFNE01.jpg,AFNE12.jpg,AFSA10.jpg,AFSA10.jpg,FS,4,num_4,16,num_4,0.583534409991,,,2017_May_05_1034,60.0122610943,FEMA4ImagesEEG,001,100126,
AFNE01.JPG,AFNE01.JPG,AFNE01.JPG,AFNE01.JPG,AFNE01.JPG,AFNE01.JPG,,,,,,,,,,,,,,,,,3,4,34,5,,,,,,,AFSA06.jpg,AFNE03.jpg,AFNE04.jpg,AFSA09.jpg,AFNE03.jpg,FN,3,num_6,16,num_6,0.583452300634,,,2017_May_05_1034,60.0122610943,FEMA4ImagesEEG,001,100126,
AFNE01.JPG,AFNE01.JPG,AFNE01.JPG,AFNE01.JPG,AFNE01.JPG,AFNE01.JPG,,,,,,,,,,,,,,,,,3,5,35,0,,,,,,,AFNE14.jpg,AFSA20.jpg,AFNE16.jpg,AFSA01.jpg,AFSA01.jpg,FS,4,num_4,32,num_6,0.833546678303,,,2017_May_05_1034,60.0122610943,FEMA4ImagesEEG,001,100126,
AFNE01.JPG,AFNE01.JPG,AFNE01.JPG,AFNE01.JPG,AFNE01.JPG,AFNE01.JPG,,,,,,,,,,,,,,,,,3,6,36,2,,,,,,,AFSA06.jpg,AFNE18.jpg,AFSA01.jpg,AFNE19.jpg,AFNE18.jpg,FN,3,num_6,16,num_6,0.800100006396,,,2017_May_05_1034,60.0122610943,FEMA4ImagesEEG,001,100126,
AFNE01.JPG,AFNE01.JPG,AFNE01.JPG,AFNE01.JPG,AFNE01.JPG,AFNE01.JPG,,,,,,,,,,,,,,,,,3,7,37,7,,,,,,,AFNE08.jpg,AFNE01.jpg,AFSA04.jpg,AFSA06.jpg,AFSA04.jpg,FS,4,num_2,32,num_4,0.900114792632,,,2017_May_05_1034,60.0122610943,FEMA4ImagesEEG,001,100126,
AFNE01.JPG,AFNE01.JPG,AFNE01.JPG,AFNE01.JPG,AFNE01.JPG,AFNE01.JPG,,,,,,,,,,,,,,,,,3,8,38,9,,,,,,,AFSA14.jpg,AFNE06.jpg,AFNE02.jpg,AFSA19.jpg,AFNE02.jpg,FN,3,num_2,16,num_2,0.816730327904,,,2017_May_05_1034,60.0122610943,FEMA4ImagesEEG,001,100126,
AFNE01.JPG,AFNE01.JPG,AFNE01.JPG,AFNE01.JPG,AFNE01.JPG,AFNE01.JPG,,,,,,,,,,,,,,,,,3,9,39,6,,,,,,,AFSA04.jpg,AFSA17.jpg,AFNE16.jpg,AFNE13.jpg,AFSA17.jpg,FS,4,num_6,32,num_8,2.54996264982,,,2017_May_05_1034,60.0122610943,FEMA4ImagesEEG,001,100126,
AFNE01.JPG,AFNE01.JPG,AFNE01.JPG,AFNE01.JPG,AFNE01.JPG,AFNE01.JPG,,,,,,,,,,,,,,,,,4,0,40,5,,,,,,,AFSA18.jpg,AFNE11.jpg,AFSA03.jpg,AFNE04.jpg,AFNE04.jpg,FN,3,num_4,16,num_4,0.650107014691,,,2017_May_05_1034,60.0122610943,FEMA4ImagesEEG,001,100126,
AFNE01.JPG,AFNE01.JPG,AFNE01.JPG,AFNE01.JPG,AFNE01.JPG,AFNE01.JPG,,,,,,,,,,,,,,,,,4,1,41,9,,,,,,,AFSA18.jpg,AFNE02.jpg,AFNE07.jpg,AFSA13.jpg,AFNE02.jpg,FN,3,num_6,32,num_2,1.18369272701,,,2017_May_05_1034,60.0122610943,FEMA4ImagesEEG,001,100126,
AFNE01.JPG,AFNE01.JPG,AFNE01.JPG,AFNE01.JPG,AFNE01.JPG,AFNE01.JPG,,,,,,,,,,,,,,,,,4,2,42,0,,,,,,,AFSA09.jpg,AFSA18.jpg,AFNE01.jpg,AFNE16.jpg,AFNE16.jpg,FN,3,num_4,16,num_4,0.816761760507,,,2017_May_05_1034,60.0122610943,FEMA4ImagesEEG,001,100126,
AFNE01.JPG,AFNE01.JPG,AFNE01.JPG,AFNE01.JPG,AFNE01.JPG,AFNE01.JPG,,,,,,,,,,,,,,,,,4,3,43,6,,,,,,,AFNE12.jpg,AFSA06.jpg,AFNE03.jpg,AFSA20.jpg,AFNE12.jpg,FN,3,num_8,16,num_8,0.61677356367,,,2017_May_05_1034,60.0122610943,FEMA4ImagesEEG,001,100126,
AFNE01.JPG,AFNE01.JPG,AFNE01.JPG,AFNE01.JPG,AFNE01.JPG,AFNE01.JPG,,,,,,,,,,,,,,,,,4,4,44,8,,,,,,,AFNE19.jpg,AFSA13.jpg,AFSA15.jpg,AFNE04.jpg,AFNE04.jpg,FN,3,num_4,16,num_4,0.683650549734,,,2017_May_05_1034,60.0122610943,FEMA4ImagesEEG,001,100126,
AFNE01.JPG,AFNE01.JPG,AFNE01.JPG,AFNE01.JPG,AFNE01.JPG,AFNE01.JPG,,,,,,,,,,,,,,,,,4,5,45,2,,,,,,,AFSA13.jpg,AFNE14.jpg,AFNE15.jpg,AFSA15.jpg,AFNE14.jpg,FN,3,num_6,32,num_4,1.23341722786,,,2017_May_05_1034,60.0122610943,FEMA4ImagesEEG,001,100126,
AFNE01.JPG,AFNE01.JPG,AFNE01.JPG,AFNE01.JPG,AFNE01.JPG,AFNE01.JPG,,,,,,,,,,,,,,,,,4,6,46,1,,,,,,,AFNE08.jpg,AFNE14.jpg,AFSA10.jpg,AFSA20.jpg,AFSA20.jpg,FS,4,num_4,16,num_4,0.900050644763,,,2017_May_05_1034,60.0122610943,FEMA4ImagesEEG,001,100126,
AFNE01.JPG,AFNE01.JPG,AFNE01.JPG,AFNE01.JPG,AFNE01.JPG,AFNE01.JPG,,,,,,,,,,,,,,,,,4,7,47,3,,,,,,,AFSA01.jpg,AFSA20.jpg,AFNE09.jpg,AFNE12.jpg,AFNE12.jpg,FN,3,num_4,16,num_4,0.899977836991,,,2017_May_05_1034,60.0122610943,FEMA4ImagesEEG,001,100126,
AFNE01.JPG,AFNE01.JPG,AFNE01.JPG,AFNE01.JPG,AFNE01.JPG,AFNE01.JPG,,,,,,,,,,,,,,,,,4,8,48,4,,,,,,,AFNE14.jpg,AFNE03.jpg,AFSA18.jpg,AFSA20.jpg,AFNE14.jpg,FN,3,num_8,16,num_8,0.983543839771,,,2017_May_05_1034,60.0122610943,FEMA4ImagesEEG,001,100126,
AFNE01.JPG,AFNE01.JPG,AFNE01.JPG,AFNE01.JPG,AFNE01.JPG,AFNE01.JPG,,,,,,,,,,,,,,,,,4,9,49,7,,,,,,,AFNE06.jpg,AFSA07.jpg,AFNE08.jpg,AFSA12.jpg,AFSA12.jpg,FS,4,num_4,16,num_4,0.916842618957,,,2017_May_05_1034,60.0122610943,FEMA4ImagesEEG,001,100126,
AFNE01.JPG,AFNE01.JPG,AFNE01.JPG,AFNE01.JPG,AFNE01.JPG,AFNE01.JPG,,,,,,,,,,,,,,,,,5,0,50,8,,,,,,,AFSA13.jpg,AFNE03.jpg,AFSA03.jpg,AFNE15.jpg,AFNE15.jpg,FN,3,num_4,16,num_4,0.633487598039,,,2017_May_05_1034,60.0122610943,FEMA4ImagesEEG,001,100126,
AFNE01.JPG,AFNE01.JPG,AFNE01.JPG,AFNE01.JPG,AFNE01.JPG,AFNE01.JPG,,,,,,,,,,,,,,,,,5,1,51,9,,,,,,,AFSA02.jpg,AFNE03.jpg,AFSA11.jpg,AFNE19.jpg,AFNE03.jpg,FN,3,num_6,16,num_6,1.13342008251,,,2017_May_05_1034,60.0122610943,FEMA4ImagesEEG,001,100126,
AFNE01.JPG,AFNE01.JPG,AFNE01.JPG,AFNE01.JPG,AFNE01.JPG,AFNE01.JPG,,,,,,,,,,,,,,,,,5,2,52,1,,,,,,,AFSA04.jpg,AFNE18.jpg,AFSA08.jpg,AFNE07.jpg,AFNE07.jpg,FN,3,num_4,16,num_4,0.583447168814,,,2017_May_05_1034,60.0122610943,FEMA4ImagesEEG,001,100126,
AFNE01.JPG,AFNE01.JPG,AFNE01.JPG,AFNE01.JPG,AFNE01.JPG,AFNE01.JPG,,,,,,,,,,,,,,,,,5,3,53,3,,,,,,,AFSA09.jpg,AFNE17.jpg,AFNE01.jpg,AFSA06.jpg,AFSA06.jpg,FS,4,num_4,16,num_4,0.78345781751,,,2017_May_05_1034,60.0122610943,FEMA4ImagesEEG,001,100126,
AFNE01.JPG,AFNE01.JPG,AFNE01.JPG,AFNE01.JPG,AFNE01.JPG,AFNE01.JPG,,,,,,,,,,,,,,,,,5,4,54,2,,,,,,,AFSA05.jpg,AFSA20.jpg,AFNE15.jpg,AFNE18.jpg,AFSA20.jpg,FS,4,num_6,32,num_2,1.31681548432,,,2017_May_05_1034,60.0122610943,FEMA4ImagesEEG,001,100126,
AFNE01.JPG,AFNE01.JPG,AFNE01.JPG,AFNE01.JPG,AFNE01.JPG,AFNE01.JPG,,,,,,,,,,,,,,,,,5,5,55,0,,,,,,,AFSA14.jpg,AFNE05.jpg,AFNE20.jpg,AFSA16.jpg,AFSA16.jpg,FS,4,num_4,32,num_6,0.900101321517,,,2017_May_05_1034,60.0122610943,FEMA4ImagesEEG,001,100126,
AFNE01.JPG,AFNE01.JPG,AFNE01.JPG,AFNE01.JPG,AFNE01.JPG,AFNE01.JPG,,,,,,,,,,,,,,,,,5,6,56,5,,,,,,,AFNE19.jpg,AFSA06.jpg,AFNE04.jpg,AFSA20.jpg,AFSA06.jpg,FS,4,num_6,32,num_4,0.816589202965,,,2017_May_05_1034,60.0122610943,FEMA4ImagesEEG,001,100126,
AFNE01.JPG,AFNE01.JPG,AFNE01.JPG,AFNE01.JPG,AFNE01.JPG,AFNE01.JPG,,,,,,,,,,,,,,,,,5,7,57,7,,,,,,,AFNE20.jpg,AFNE09.jpg,AFSA16.jpg,AFSA06.jpg,AFSA06.jpg,FS,4,num_4,32,num_2,0.933531635674,,,2017_May_05_1034,60.0122610943,FEMA4ImagesEEG,001,100126,
AFNE01.JPG,AFNE01.JPG,AFNE01.JPG,AFNE01.JPG,AFNE01.JPG,AFNE01.JPG,,,,,,,,,,,,,,,,,5,8,58,6,,,,,,,AFSA07.jpg,AFNE12.jpg,AFSA11.jpg,AFNE16.jpg,AFSA11.jpg,FS,4,num_2,16,num_2,0.983505992452,,,2017_May_05_1034,60.0122610943,FEMA4ImagesEEG,001,100126,
AFNE01.JPG,AFNE01.JPG,AFNE01.JPG,AFNE01.JPG,AFNE01.JPG,AFNE01.JPG,,,,,,,,,,,,,,,,,5,9,59,4,,,,,,,AFNE06.jpg,AFSA13.jpg,AFSA15.jpg,AFNE17.jpg,AFNE06.jpg,FN,3,num_8,32,num_4,1.18345441762,,,2017_May_05_1034,60.0122610943,FEMA4ImagesEEG,001,100126,
,,,,,,,,,,,,,,,,,,,,,,,,,,,,,,,,,,,,,,,,,,,space,17.4151864825,2017_May_05_1034,60.0122610943,FEMA4ImagesEEG,001,100126,
AFNE01.JPG,AFNE01.JPG,AFNE01.JPG,AFNE01.JPG,AFNE01.JPG,AFNE01.JPG,,,,,,,,,,,,,,,,,,,,,0,0,0,6,,,AMSA16.jpg,AMSA12.jpg,AMNE13.jpg,AMNE18.jpg,AMSA16.jpg,MS,2,num_8,16,num_8,0.633442053339,,,2017_May_05_1034,60.0122610943,FEMA4ImagesEEG,001,100126,
AFNE01.JPG,AFNE01.JPG,AFNE01.JPG,AFNE01.JPG,AFNE01.JPG,AFNE01.JPG,,,,,,,,,,,,,,,,,,,,,0,1,1,5,,,AMSA03.jpg,AMSA17.jpg,AMNE01.jpg,AMNE17.jpg,AMSA03.jpg,MS,2,num_8,32,num_2,0.966826597927,,,2017_May_05_1034,60.0122610943,FEMA4ImagesEEG,001,100126,
AFNE01.JPG,AFNE01.JPG,AFNE01.JPG,AFNE01.JPG,AFNE01.JPG,AFNE01.JPG,,,,,,,,,,,,,,,,,,,,,0,2,2,8,,,AMSA13.jpg,AMNE15.jpg,AMNE04.jpg,AMSA06.jpg,AMSA06.jpg,MS,2,num_4,16,num_4,0.783470646944,,,2017_May_05_1034,60.0122610943,FEMA4ImagesEEG,001,100126,
AFNE01.JPG,AFNE01.JPG,AFNE01.JPG,AFNE01.JPG,AFNE01.JPG,AFNE01.JPG,,,,,,,,,,,,,,,,,,,,,0,3,3,3,,,AMSA08.jpg,AMNE08.jpg,AMNE11.jpg,AMSA14.jpg,AMNE08.jpg,MN,1,num_6,32,num_8,0.649962040363,,,2017_May_05_1034,60.0122610943,FEMA4ImagesEEG,001,100126,
AFNE01.JPG,AFNE01.JPG,AFNE01.JPG,AFNE01.JPG,AFNE01.JPG,AFNE01.JPG,,,,,,,,,,,,,,,,,,,,,0,4,4,1,,,AMSA05.jpg,AMNE15.jpg,AMSA17.jpg,AMNE05.jpg,AMNE05.jpg,MN,1,num_4,16,num_4,0.800079158274,,,2017_May_05_1034,60.0122610943,FEMA4ImagesEEG,001,100126,
AFNE01.JPG,AFNE01.JPG,AFNE01.JPG,AFNE01.JPG,AFNE01.JPG,AFNE01.JPG,,,,,,,,,,,,,,,,,,,,,0,5,5,0,,,AMSA13.jpg,AMNE05.jpg,AMNE13.jpg,AMSA03.jpg,AMSA13.jpg,MS,2,num_8,32,num_2,0.766733840108,,,2017_May_05_1034,60.0122610943,FEMA4ImagesEEG,001,100126,
AFNE01.JPG,AFNE01.JPG,AFNE01.JPG,AFNE01.JPG,AFNE01.JPG,AFNE01.JPG,,,,,,,,,,,,,,,,,,,,,0,6,6,4,,,AMNE15.jpg,AMSA18.jpg,AMNE03.jpg,AMSA09.jpg,AMSA09.jpg,MS,2,num_4,16,num_4,0.616728660185,,,2017_May_05_1034,60.0122610943,FEMA4ImagesEEG,001,100126,
AFNE01.JPG,AFNE01.JPG,AFNE01.JPG,AFNE01.JPG,AFNE01.JPG,AFNE01.JPG,,,,,,,,,,,,,,,,,,,,,0,7,7,2,,,AMNE19.jpg,AMSA11.jpg,AMNE08.jpg,AMSA17.jpg,AMSA17.jpg,MS,2,num_4,16,num_4,0.666780956555,,,2017_May_05_1034,60.0122610943,FEMA4ImagesEEG,001,100126,
AFNE01.JPG,AFNE01.JPG,AFNE01.JPG,AFNE01.JPG,AFNE01.JPG,AFNE01.JPG,,,,,,,,,,,,,,,,,,,,,0,8,8,9,,,AMNE15.jpg,AMNE01.jpg,AMSA16.jpg,AMSA03.jpg,AMSA03.jpg,MS,2,num_4,32,num_2,0.916720737936,,,2017_May_05_1034,60.0122610943,FEMA4ImagesEEG,001,100126,
AFNE01.JPG,AFNE01.JPG,AFNE01.JPG,AFNE01.JPG,AFNE01.JPG,AFNE01.JPG,,,,,,,,,,,,,,,,,,,,,0,9,9,7,,,AMNE04.jpg,AMSA15.jpg,AMSA16.jpg,AMNE02.jpg,AMNE02.jpg,MN,1,num_4,16,num_4,0.550142905209,,,2017_May_05_1034,60.0122610943,FEMA4ImagesEEG,001,100126,
AFNE01.JPG,AFNE01.JPG,AFNE01.JPG,AFNE01.JPG,AFNE01.JPG,AFNE01.JPG,,,,,,,,,,,,,,,,,,,,,1,0,10,2,,,AMSA08.jpg,AMNE18.jpg,AMNE01.jpg,AMSA17.jpg,AMNE18.jpg,MN,1,num_6,16,num_6,0.916741265217,,,2017_May_05_1034,60.0122610943,FEMA4ImagesEEG,001,100126,
AFNE01.JPG,AFNE01.JPG,AFNE01.JPG,AFNE01.JPG,AFNE01.JPG,AFNE01.JPG,,,,,,,,,,,,,,,,,,,,,1,1,11,3,,,AMNE19.jpg,AMSA17.jpg,AMSA18.jpg,AMNE11.jpg,AMNE19.jpg,MN,1,num_8,32,num_4,0.733526439639,,,2017_May_05_1034,60.0122610943,FEMA4ImagesEEG,001,100126,
AFNE01.JPG,AFNE01.JPG,AFNE01.JPG,AFNE01.JPG,AFNE01.JPG,AFNE01.JPG,,,,,,,,,,,,,,,,,,,,,1,2,12,8,,,AMNE14.jpg,AMSA19.jpg,AMNE09.jpg,AMSA14.jpg,AMSA14.jpg,MS,2,num_4,16,num_4,0.683440786321,,,2017_May_05_1034,60.0122610943,FEMA4ImagesEEG,001,100126,
AFNE01.JPG,AFNE01.JPG,AFNE01.JPG,AFNE01.JPG,AFNE01.JPG,AFNE01.JPG,,,,,,,,,,,,,,,,,,,,,1,3,13,1,,,AMNE06.jpg,AMSA01.jpg,AMSA17.jpg,AMNE08.jpg,AMSA17.jpg,MS,2,num_2,16,num_2,1.3002246134,,,2017_May_05_1034,60.0122610943,FEMA4ImagesEEG,001,100126,
AFNE01.JPG,AFNE01.JPG,AFNE01.JPG,AFNE01.JPG,AFNE01.JPG,AFNE01.JPG,,,,,,,,,,,,,,,,,,,,,1,4,14,4,,,AMSA12.jpg,AMSA10.jpg,AMNE19.jpg,AMNE15.jpg,AMNE19.jpg,MN,1,num_2,32,num_8,1.10021621035,,,2017_May_05_1034,60.0122610943,FEMA4ImagesEEG,001,100126,
AFNE01.JPG,AFNE01.JPG,AFNE01.JPG,AFNE01.JPG,AFNE01.JPG,AFNE01.JPG,,,,,,,,,,,,,,,,,,,,,1,5,15,6,,,AMNE04.jpg,AMSA10.jpg,AMSA04.jpg,AMNE15.jpg,AMNE15.jpg,MN,1,num_4,16,num_4,0.866761455778,,,2017_May_05_1034,60.0122610943,FEMA4ImagesEEG,001,100126,
AFNE01.JPG,AFNE01.JPG,AFNE01.JPG,AFNE01.JPG,AFNE01.JPG,AFNE01.JPG,,,,,,,,,,,,,,,,,,,,,1,6,16,9,,,AMNE16.jpg,AMNE04.jpg,AMSA11.jpg,AMSA08.jpg,AMNE16.jpg,MN,1,num_8,32,num_4,0.916821449995,,,2017_May_05_1034,60.0122610943,FEMA4ImagesEEG,001,100126,
AFNE01.JPG,AFNE01.JPG,AFNE01.JPG,AFNE01.JPG,AFNE01.JPG,AFNE01.JPG,,,,,,,,,,,,,,,,,,,,,1,7,17,7,,,AMSA03.jpg,AMNE09.jpg,AMNE18.jpg,AMSA07.jpg,AMSA03.jpg,MS,2,num_8,16,num_8,1.30008028098,,,2017_May_05_1034,60.0122610943,FEMA4ImagesEEG,001,100126,
AFNE01.JPG,AFNE01.JPG,AFNE01.JPG,AFNE01.JPG,AFNE01.JPG,AFNE01.JPG,,,,,,,,,,,,,,,,,,,,,1,8,18,5,,,AMSA12.jpg,AMSA15.jpg,AMNE13.jpg,AMNE07.jpg,AMSA12.jpg,MS,2,num_8,32,num_4,0.716794764623,,,2017_May_05_1034,60.0122610943,FEMA4ImagesEEG,001,100126,
AFNE01.JPG,AFNE01.JPG,AFNE01.JPG,AFNE01.JPG,AFNE01.JPG,AFNE01.JPG,,,,,,,,,,,,,,,,,,,,,1,9,19,0,,,AMNE08.jpg,AMSA12.jpg,AMNE13.jpg,AMSA20.jpg,AMSA20.jpg,MS,2,num_4,16,num_4,0.783439214574,,,2017_May_05_1034,60.0122610943,FEMA4ImagesEEG,001,100126,
AFNE01.JPG,AFNE01.JPG,AFNE01.JPG,AFNE01.JPG,AFNE01.JPG,AFNE01.JPG,,,,,,,,,,,,,,,,,,,,,2,0,20,4,,,AMSA04.jpg,AMSA06.jpg,AMNE12.jpg,AMNE16.jpg,AMSA06.jpg,MS,2,num_6,32,num_2,0.86682399991,,,2017_May_05_1034,60.0122610943,FEMA4ImagesEEG,001,100126,
AFNE01.JPG,AFNE01.JPG,AFNE01.JPG,AFNE01.JPG,AFNE01.JPG,AFNE01.JPG,,,,,,,,,,,,,,,,,,,,,2,1,21,7,,,AMSA17.jpg,AMSA12.jpg,AMNE20.jpg,AMNE05.jpg,AMNE20.jpg,MN,1,num_2,16,num_2,0.683470614953,,,2017_May_05_1034,60.0122610943,FEMA4ImagesEEG,001,100126,
AFNE01.JPG,AFNE01.JPG,AFNE01.JPG,AFNE01.JPG,AFNE01.JPG,AFNE01.JPG,,,,,,,,,,,,,,,,,,,,,2,2,22,6,,,AMSA13.jpg,AMSA17.jpg,AMNE10.jpg,AMNE05.jpg,AMSA13.jpg,MS,2,num_8,32,num_6,1.83338310127,,,2017_May_05_1034,60.0122610943,FEMA4ImagesEEG,001,100126,
AFNE01.JPG,AFNE01.JPG,AFNE01.JPG,AFNE01.JPG,AFNE01.JPG,AFNE01.JPG,,,,,,,,,,,,,,,,,,,,,2,3,23,9,,,AMSA18.jpg,AMNE05.jpg,AMNE20.jpg,AMSA17.jpg,AMSA18.jpg,MS,2,num_8,16,num_8,0.716769746738,,,2017_May_05_1034,60.0122610943,FEMA4ImagesEEG,001,100126,
AFNE01.JPG,AFNE01.JPG,AFNE01.JPG,AFNE01.JPG,AFNE01.JPG,AFNE01.JPG,,,,,,,,,,,,,,,,,,,,,2,4,24,1,,,AMSA07.jpg,AMNE07.jpg,AMNE03.jpg,AMSA18.jpg,AMSA18.jpg,MS,2,num_4,16,num_4,0.916731963633,,,2017_May_05_1034,60.0122610943,FEMA4ImagesEEG,001,100126,
AFNE01.JPG,AFNE01.JPG,AFNE01.JPG,AFNE01.JPG,AFNE01.JPG,AFNE01.JPG,,,,,,,,,,,,,,,,,,,,,2,5,25,3,,,AMSA18.jpg,AMNE01.jpg,AMSA05.jpg,AMNE05.jpg,AMNE01.jpg,MN,1,num_6,16,num_6,0.533512263093,,,2017_May_05_1034,60.0122610943,FEMA4ImagesEEG,001,100126,
AFNE01.JPG,AFNE01.JPG,AFNE01.JPG,AFNE01.JPG,AFNE01.JPG,AFNE01.JPG,,,,,,,,,,,,,,,,,,,,,2,6,26,8,,,AMNE20.jpg,AMSA14.jpg,AMSA05.jpg,AMNE13.jpg,AMSA05.jpg,MS,2,num_2,32,num_4,0.866738683311,,,2017_May_05_1034,60.0122610943,FEMA4ImagesEEG,001,100126,
AFNE01.JPG,AFNE01.JPG,AFNE01.JPG,AFNE01.JPG,AFNE01.JPG,AFNE01.JPG,,,,,,,,,,,,,,,,,,,,,2,7,27,2,,,AMNE19.jpg,AMNE17.jpg,AMSA18.jpg,AMSA17.jpg,AMSA17.jpg,MS,2,num_4,16,num_4,0.700113766128,,,2017_May_05_1034,60.0122610943,FEMA4ImagesEEG,001,100126,
AFNE01.JPG,AFNE01.JPG,AFNE01.JPG,AFNE01.JPG,AFNE01.JPG,AFNE01.JPG,,,,,,,,,,,,,,,,,,,,,2,8,28,5,,,AMNE19.jpg,AMNE04.jpg,AMSA08.jpg,AMSA15.jpg,AMSA15.jpg,MS,2,num_4,32,num_2,1.31659545726,,,2017_May_05_1034,60.0122610943,FEMA4ImagesEEG,001,100126,
AFNE01.JPG,AFNE01.JPG,AFNE01.JPG,AFNE01.JPG,AFNE01.JPG,AFNE01.JPG,,,,,,,,,,,,,,,,,,,,,2,9,29,0,,,AMSA19.jpg,AMNE07.jpg,AMSA02.jpg,AMNE04.jpg,AMSA02.jpg,MS,2,num_2,16,num_2,0.766765914159,,,2017_May_05_1034,60.0122610943,FEMA4ImagesEEG,001,100126,
AFNE01.JPG,AFNE01.JPG,AFNE01.JPG,AFNE01.JPG,AFNE01.JPG,AFNE01.JPG,,,,,,,,,,,,,,,,,,,,,3,0,30,1,,,AMSA05.jpg,AMSA01.jpg,AMNE05.jpg,AMNE01.jpg,AMNE01.jpg,MN,1,num_4,32,num_6,0.800150041701,,,2017_May_05_1034,60.0122610943,FEMA4ImagesEEG,001,100126,
AFNE01.JPG,AFNE01.JPG,AFNE01.JPG,AFNE01.JPG,AFNE01.JPG,AFNE01.JPG,,,,,,,,,,,,,,,,,,,,,3,1,31,6,,,AMNE14.jpg,AMSA18.jpg,AMSA17.jpg,AMNE15.jpg,AMNE15.jpg,MN,1,num_4,16,num_4,0.483473437605,,,2017_May_05_1034,60.0122610943,FEMA4ImagesEEG,001,100126,
AFNE01.JPG,AFNE01.JPG,AFNE01.JPG,AFNE01.JPG,AFNE01.JPG,AFNE01.JPG,,,,,,,,,,,,,,,,,,,,,3,2,32,7,,,AMNE06.jpg,AMNE08.jpg,AMSA14.jpg,AMSA08.jpg,AMSA14.jpg,MS,2,num_2,16,num_2,0.75009229267,,,2017_May_05_1034,60.0122610943,FEMA4ImagesEEG,001,100126,
AFNE01.JPG,AFNE01.JPG,AFNE01.JPG,AFNE01.JPG,AFNE01.JPG,AFNE01.JPG,,,,,,,,,,,,,,,,,,,,,3,3,33,2,,,AMSA20.jpg,AMSA07.jpg,AMNE18.jpg,AMNE17.jpg,AMSA07.jpg,MS,2,num_6,16,num_6,1.08341236878,,,2017_May_05_1034,60.0122610943,FEMA4ImagesEEG,001,100126,
AFNE01.JPG,AFNE01.JPG,AFNE01.JPG,AFNE01.JPG,AFNE01.JPG,AFNE01.JPG,,,,,,,,,,,,,,,,,,,,,3,4,34,5,,,AMNE15.jpg,AMSA10.jpg,AMNE13.jpg,AMSA11.jpg,AMSA11.jpg,MS,2,num_4,32,num_2,0.833429608494,,,2017_May_05_1034,60.0122610943,FEMA4ImagesEEG,001,100126,
AFNE01.JPG,AFNE01.JPG,AFNE01.JPG,AFNE01.JPG,AFNE01.JPG,AFNE01.JPG,,,,,,,,,,,,,,,,,,,,,3,5,35,8,,,AMNE16.jpg,AMNE05.jpg,AMSA08.jpg,AMSA17.jpg,AMNE16.jpg,MN,1,num_8,32,num_6,0.70012980327,,,2017_May_05_1034,60.0122610943,FEMA4ImagesEEG,001,100126,
AFNE01.JPG,AFNE01.JPG,AFNE01.JPG,AFNE01.JPG,AFNE01.JPG,AFNE01.JPG,,,,,,,,,,,,,,,,,,,,,3,6,36,9,,,AMSA08.jpg,AMSA05.jpg,AMNE08.jpg,AMNE15.jpg,AMSA08.jpg,MS,2,num_8,32,num_2,0.866765625309,,,2017_May_05_1034,60.0122610943,FEMA4ImagesEEG,001,100126,
AFNE01.JPG,AFNE01.JPG,AFNE01.JPG,AFNE01.JPG,AFNE01.JPG,AFNE01.JPG,,,,,,,,,,,,,,,,,,,,,3,7,37,4,,,AMNE12.jpg,AMNE09.jpg,AMSA13.jpg,AMSA10.jpg,AMNE12.jpg,MN,1,num_8,16,num_8,1.28339222656,,,2017_May_05_1034,60.0122610943,FEMA4ImagesEEG,001,100126,
AFNE01.JPG,AFNE01.JPG,AFNE01.JPG,AFNE01.JPG,AFNE01.JPG,AFNE01.JPG,,,,,,,,,,,,,,,,,,,,,3,8,38,3,,,AMSA07.jpg,AMSA09.jpg,AMNE05.jpg,AMNE11.jpg,AMSA07.jpg,MS,2,num_8,16,num_8,0.633500748314,,,2017_May_05_1034,60.0122610943,FEMA4ImagesEEG,001,100126,
