IPosition2,IPosition3,IPosition1,IPosition6,IPosition4,IPosition5,TrialsF1.thisRepN,TrialsF1.thisTrialN,TrialsF1.thisN,TrialsF1.thisIndex,TrialsM1.thisRepN,TrialsM1.thisTrialN,TrialsM1.thisN,TrialsM1.thisIndex,TrialsF2.thisRepN,TrialsF2.thisTrialN,TrialsF2.thisN,TrialsF2.thisIndex,TrialsM2.thisRepN,TrialsM2.thisTrialN,TrialsM2.thisN,TrialsM2.thisIndex,TrialsF3.thisRepN,TrialsF3.thisTrialN,TrialsF3.thisN,TrialsF3.thisIndex,TrialsM3.thisRepN,TrialsM3.thisTrialN,TrialsM3.thisN,TrialsM3.thisIndex,InstrKey_resp.keys,InstrKey_resp.rt,Image0 _Position,Image1 _Position,Image2 _Position,Image3 _Position,Center_image,condition,code,correct_answer,accuracy,Key_Resp.keys,Key_Resp.rt,BreakKey_resp.keys,BreakKey_resp.rt,date,frameRate,expName,session,participant,
,,,,,,,,,,,,,,,,,,,,,,,,,,,,,,space,33.6312676948,,,,,,,,,,,,,,2017_Mar_30_1352,60.0045227688,FEMA4ImagesEEG,001,100112,
AMSA21.JPG,AMNE23.JPG,AMNE21.JPG,AMSA25.JPG,AMNE25.JPG,AMSA23.JPG,0,0,0,5,,,,,,,,,,,,,,,,,,,,,,,AFSA09.jpg,AFNE04.jpg,AFNE11.jpg,AFSA20.jpg,AFSA09.jpg,FS,4,num_8,16,num_8,3.08329802519,,,2017_Mar_30_1352,60.0045227688,FEMA4ImagesEEG,001,100112,
AFSA21.JPG,AFNE22.JPG,AFNE21.JPG,AFSA23.JPG,AFSA22.JPG,AFNE23.JPG,0,1,1,0,,,,,,,,,,,,,,,,,,,,,,,AFNE09.jpg,AFNE14.jpg,AFSA11.jpg,AFSA01.jpg,AFSA01.jpg,FS,4,num_4,48,None,,,,2017_Mar_30_1352,60.0045227688,FEMA4ImagesEEG,001,100112,
AFNE23.JPG,AFNE24.JPG,AFNE22.JPG,AFSA24.JPG,AFSA22.JPG,AFSA23.JPG,0,2,2,8,,,,,,,,,,,,,,,,,,,,,,,AFSA10.jpg,AFNE03.jpg,AFNE20.jpg,AFSA15.jpg,AFNE20.jpg,FN,3,num_2,32,num_4,1.8167472952,,,2017_Mar_30_1352,60.0045227688,FEMA4ImagesEEG,001,100112,
AFSA25.JPG,AFNE24.JPG,AFSA24.JPG,AFNE21.JPG,AFSA21.JPG,AFNE25.JPG,0,3,3,2,,,,,,,,,,,,,,,,,,,,,,,AFNE19.jpg,AFNE10.jpg,AFSA06.jpg,AFSA09.jpg,AFSA09.jpg,FS,4,num_4,32,num_2,3.50022179144,,,2017_Mar_30_1352,60.0045227688,FEMA4ImagesEEG,001,100112,
AMSA21.JPG,AMNE22.JPG,AMNE21.JPG,AMSA23.JPG,AMSA22.JPG,AMNE23.JPG,0,4,4,1,,,,,,,,,,,,,,,,,,,,,,,AFSA07.jpg,AFSA04.jpg,AFNE14.jpg,AFNE13.jpg,AFNE14.jpg,FN,3,num_2,16,num_2,2.88317280845,,,2017_Mar_30_1352,60.0045227688,FEMA4ImagesEEG,001,100112,
AFNE22.JPG,AFSA24.JPG,AFSA22.JPG,AFNE25.JPG,AFNE24.JPG,AFSA25.JPG,0,5,5,6,,,,,,,,,,,,,,,,,,,,,,,AFNE04.jpg,AFSA14.jpg,AFSA20.jpg,AFNE02.jpg,AFSA20.jpg,FS,4,num_2,32,num_6,2.59996478283,,,2017_Mar_30_1352,60.0045227688,FEMA4ImagesEEG,001,100112,
AMNE22.JPG,AMSA24.JPG,AMSA22.JPG,AMNE25.JPG,AMNE24.JPG,AMSA25.JPG,0,6,6,7,,,,,,,,,,,,,,,,,,,,,,,AFSA08.jpg,AFNE08.jpg,AFSA02.jpg,AFNE03.jpg,AFNE03.jpg,FN,3,num_4,16,num_4,1.53341225674,,,2017_Mar_30_1352,60.0045227688,FEMA4ImagesEEG,001,100112,
AMSA25.JPG,AMNE24.JPG,AMSA24.JPG,AMNE26.JPG,AMSA21.JPG,AMNE25.JPG,0,7,7,3,,,,,,,,,,,,,,,,,,,,,,,AFNE09.jpg,AFSA12.jpg,AFSA11.jpg,AFNE15.jpg,AFNE15.jpg,FN,3,num_4,32,num_8,1.50011979626,,,2017_Mar_30_1352,60.0045227688,FEMA4ImagesEEG,001,100112,
AFSA21.JPG,AFNE23.JPG,AFNE21.JPG,AFSA25.JPG,AFNE25.JPG,AFSA23.JPG,0,8,8,4,,,,,,,,,,,,,,,,,,,,,,,AFNE16.jpg,AFNE09.jpg,AFSA05.jpg,AFSA09.jpg,AFSA05.jpg,FS,4,num_2,32,num_4,2.48337269342,,,2017_Mar_30_1352,60.0045227688,FEMA4ImagesEEG,001,100112,
AMNE23.JPG,AMNE24.JPG,AMNE22.JPG,AMSA24.JPG,AMSA22.JPG,AMSA23.JPG,0,9,9,9,,,,,,,,,,,,,,,,,,,,,,,AFSA03.jpg,AFNE13.jpg,AFSA17.jpg,AFNE11.jpg,AFNE11.jpg,FN,3,num_4,16,num_4,1.85006316961,,,2017_Mar_30_1352,60.0045227688,FEMA4ImagesEEG,001,100112,
AFSA21.JPG,AFNE22.JPG,AFNE21.JPG,AFSA23.JPG,AFSA22.JPG,AFNE23.JPG,,,,,0,0,0,0,,,,,,,,,,,,,,,,,,,AMNE06.jpg,AMSA18.jpg,AMNE08.jpg,AMSA08.jpg,AMNE08.jpg,MN,1,num_2,16,num_2,1.49995429441,,,2017_Mar_30_1352,60.0045227688,FEMA4ImagesEEG,001,100112,
AMSA21.JPG,AMNE22.JPG,AMNE21.JPG,AMSA23.JPG,AMSA22.JPG,AMNE23.JPG,,,,,0,1,1,1,,,,,,,,,,,,,,,,,,,AMNE12.jpg,AMSA19.jpg,AMNE09.jpg,AMSA01.jpg,AMSA01.jpg,MS,2,num_4,16,num_4,0.683408744633,,,2017_Mar_30_1352,60.0045227688,FEMA4ImagesEEG,001,100112,
AFSA21.JPG,AFNE23.JPG,AFNE21.JPG,AFSA25.JPG,AFNE25.JPG,AFSA23.JPG,,,,,0,2,2,4,,,,,,,,,,,,,,,,,,,AMNE20.jpg,AMSA11.jpg,AMNE13.jpg,AMSA14.jpg,AMNE13.jpg,MN,1,num_2,32,num_8,1.48346506641,,,2017_Mar_30_1352,60.0045227688,FEMA4ImagesEEG,001,100112,
AMSA25.JPG,AMNE24.JPG,AMSA24.JPG,AMNE26.JPG,AMSA21.JPG,AMNE25.JPG,,,,,0,3,3,3,,,,,,,,,,,,,,,,,,,AMNE14.jpg,AMNE19.jpg,AMSA16.jpg,AMSA20.jpg,AMSA16.jpg,MS,2,num_2,16,num_2,0.616822861601,,,2017_Mar_30_1352,60.0045227688,FEMA4ImagesEEG,001,100112,
AMNE22.JPG,AMSA24.JPG,AMSA22.JPG,AMNE25.JPG,AMNE24.JPG,AMSA25.JPG,,,,,0,4,4,7,,,,,,,,,,,,,,,,,,,AMNE10.jpg,AMSA05.jpg,AMNE04.jpg,AMSA19.jpg,AMNE04.jpg,MN,1,num_2,32,num_6,1.63343236712,,,2017_Mar_30_1352,60.0045227688,FEMA4ImagesEEG,001,100112,
AMSA21.JPG,AMNE23.JPG,AMNE21.JPG,AMSA25.JPG,AMNE25.JPG,AMSA23.JPG,,,,,0,5,5,5,,,,,,,,,,,,,,,,,,,AMSA12.jpg,AMNE17.jpg,AMSA09.jpg,AMNE18.jpg,AMSA12.jpg,MS,2,num_8,32,num_2,0.916788574308,,,2017_Mar_30_1352,60.0045227688,FEMA4ImagesEEG,001,100112,
AMNE23.JPG,AMNE24.JPG,AMNE22.JPG,AMSA24.JPG,AMSA22.JPG,AMSA23.JPG,,,,,0,6,6,9,,,,,,,,,,,,,,,,,,,AMNE17.jpg,AMSA13.jpg,AMSA18.jpg,AMNE19.jpg,AMNE19.jpg,MN,1,num_4,16,num_4,1.31674264465,,,2017_Mar_30_1352,60.0045227688,FEMA4ImagesEEG,001,100112,
AFNE22.JPG,AFSA24.JPG,AFSA22.JPG,AFNE25.JPG,AFNE24.JPG,AFSA25.JPG,,,,,0,7,7,6,,,,,,,,,,,,,,,,,,,AMNE18.jpg,AMNE03.jpg,AMSA20.jpg,AMSA12.jpg,AMNE18.jpg,MN,1,num_8,16,num_8,2.20003476832,,,2017_Mar_30_1352,60.0045227688,FEMA4ImagesEEG,001,100112,
AFSA25.JPG,AFNE24.JPG,AFSA24.JPG,AFNE21.JPG,AFSA21.JPG,AFNE25.JPG,,,,,0,8,8,2,,,,,,,,,,,,,,,,,,,AMNE01.jpg,AMSA09.jpg,AMSA07.jpg,AMNE10.jpg,AMNE10.jpg,MN,1,num_4,16,num_4,1.13342739572,,,2017_Mar_30_1352,60.0045227688,FEMA4ImagesEEG,001,100112,
AFNE23.JPG,AFNE24.JPG,AFNE22.JPG,AFSA24.JPG,AFSA22.JPG,AFSA23.JPG,,,,,0,9,9,8,,,,,,,,,,,,,,,,,,,AMSA16.jpg,AMSA11.jpg,AMNE10.jpg,AMNE15.jpg,AMSA11.jpg,MS,2,num_6,16,num_6,1.25010416028,,,2017_Mar_30_1352,60.0045227688,FEMA4ImagesEEG,001,100112,
AMNE23.JPG,AMNE24.JPG,AMNE22.JPG,AMSA24.JPG,AMSA22.JPG,AMSA23.JPG,,,,,,,,,0,0,0,9,,,,,,,,,,,,,,,AFNE18.jpg,AFNE02.jpg,AFSA19.jpg,AFSA08.jpg,AFNE02.jpg,FN,3,num_6,32,num_4,1.05012455932,,,2017_Mar_30_1352,60.0045227688,FEMA4ImagesEEG,001,100112,
AMNE22.JPG,AMSA24.JPG,AMSA22.JPG,AMNE25.JPG,AMNE24.JPG,AMSA25.JPG,,,,,,,,,0,1,1,7,,,,,,,,,,,,,,,AFNE19.jpg,AFSA16.jpg,AFNE07.jpg,AFSA03.jpg,AFNE19.jpg,FN,3,num_8,32,num_4,1.88342138194,,,2017_Mar_30_1352,60.0045227688,FEMA4ImagesEEG,001,100112,
AFNE23.JPG,AFNE24.JPG,AFNE22.JPG,AFSA24.JPG,AFSA22.JPG,AFSA23.JPG,,,,,,,,,0,2,2,8,,,,,,,,,,,,,,,AFNE08.jpg,AFSA06.jpg,AFSA13.jpg,AFNE16.jpg,AFSA06.jpg,FS,4,num_6,32,num_2,0.733493852895,,,2017_Mar_30_1352,60.0045227688,FEMA4ImagesEEG,001,100112,
AFSA25.JPG,AFNE24.JPG,AFSA24.JPG,AFNE21.JPG,AFSA21.JPG,AFNE25.JPG,,,,,,,,,0,3,3,2,,,,,,,,,,,,,,,AFSA14.jpg,AFSA09.jpg,AFNE08.jpg,AFNE04.jpg,AFNE08.jpg,FN,3,num_2,16,num_2,0.78347536223,,,2017_Mar_30_1352,60.0045227688,FEMA4ImagesEEG,001,100112,
AMSA21.JPG,AMNE22.JPG,AMNE21.JPG,AMSA23.JPG,AMSA22.JPG,AMNE23.JPG,,,,,,,,,0,4,4,1,,,,,,,,,,,,,,,AFNE10.jpg,AFSA07.jpg,AFSA04.jpg,AFNE15.jpg,AFSA04.jpg,FS,4,num_2,16,num_2,1.20017717662,,,2017_Mar_30_1352,60.0045227688,FEMA4ImagesEEG,001,100112,
AFSA21.JPG,AFNE22.JPG,AFNE21.JPG,AFSA23.JPG,AFSA22.JPG,AFNE23.JPG,,,,,,,,,0,5,5,0,,,,,,,,,,,,,,,AFSA14.jpg,AFSA19.jpg,AFNE03.jpg,AFNE10.jpg,AFNE10.jpg,FN,3,num_4,16,num_4,1.28340528044,,,2017_Mar_30_1352,60.0045227688,FEMA4ImagesEEG,001,100112,
AMSA25.JPG,AMNE24.JPG,AMSA24.JPG,AMNE26.JPG,AMSA21.JPG,AMNE25.JPG,,,,,,,,,0,6,6,3,,,,,,,,,,,,,,,AFSA05.jpg,AFSA15.jpg,AFNE08.jpg,AFNE19.jpg,AFSA05.jpg,FS,4,num_8,32,num_2,1.51675528171,,,2017_Mar_30_1352,60.0045227688,FEMA4ImagesEEG,001,100112,
AFNE22.JPG,AFSA24.JPG,AFSA22.JPG,AFNE25.JPG,AFNE24.JPG,AFSA25.JPG,,,,,,,,,0,7,7,6,,,,,,,,,,,,,,,AFSA13.jpg,AFNE12.jpg,AFSA04.jpg,AFNE03.jpg,AFSA04.jpg,FS,4,num_2,32,num_8,0.933601428987,,,2017_Mar_30_1352,60.0045227688,FEMA4ImagesEEG,001,100112,
AFSA21.JPG,AFNE23.JPG,AFNE21.JPG,AFSA25.JPG,AFNE25.JPG,AFSA23.JPG,,,,,,,,,0,8,8,4,,,,,,,,,,,,,,,AFNE06.jpg,AFNE11.jpg,AFSA18.jpg,AFSA10.jpg,AFNE11.jpg,FN,3,num_6,32,num_2,0.733387046494,,,2017_Mar_30_1352,60.0045227688,FEMA4ImagesEEG,001,100112,
AMSA21.JPG,AMNE23.JPG,AMNE21.JPG,AMSA25.JPG,AMNE25.JPG,AMSA23.JPG,,,,,,,,,0,9,9,5,,,,,,,,,,,,,,,AFSA07.jpg,AFSA10.jpg,AFNE11.jpg,AFNE04.jpg,AFSA10.jpg,FS,4,num_6,32,num_8,1.58341525565,,,2017_Mar_30_1352,60.0045227688,FEMA4ImagesEEG,001,100112,
AMSA25.JPG,AMNE24.JPG,AMSA24.JPG,AMNE26.JPG,AMSA21.JPG,AMNE25.JPG,,,,,,,,,,,,,0,0,0,3,,,,,,,,,,,AMSA04.jpg,AMNE03.jpg,AMSA19.jpg,AMNE19.jpg,AMSA19.jpg,MS,2,num_2,32,num_8,1.733427139,,,2017_Mar_30_1352,60.0045227688,FEMA4ImagesEEG,001,100112,
AFNE23.JPG,AFNE24.JPG,AFNE22.JPG,AFSA24.JPG,AFSA22.JPG,AFSA23.JPG,,,,,,,,,,,,,0,1,1,8,,,,,,,,,,,AMSA20.jpg,AMNE09.jpg,AMNE15.jpg,AMSA18.jpg,AMSA18.jpg,MS,2,num_4,16,num_4,0.600105587393,,,2017_Mar_30_1352,60.0045227688,FEMA4ImagesEEG,001,100112,
AMNE23.JPG,AMNE24.JPG,AMNE22.JPG,AMSA24.JPG,AMSA22.JPG,AMSA23.JPG,,,,,,,,,,,,,0,2,2,9,,,,,,,,,,,AMSA01.jpg,AMNE20.jpg,AMSA12.jpg,AMNE10.jpg,AMNE10.jpg,MN,1,num_4,32,num_2,1.58363432088,,,2017_Mar_30_1352,60.0045227688,FEMA4ImagesEEG,001,100112,
AMNE22.JPG,AMSA24.JPG,AMSA22.JPG,AMNE25.JPG,AMNE24.JPG,AMSA25.JPG,,,,,,,,,,,,,0,3,3,7,,,,,,,,,,,AMSA02.jpg,AMSA12.jpg,AMNE06.jpg,AMNE14.jpg,AMSA02.jpg,MS,2,num_8,32,num_4,1.31678594463,,,2017_Mar_30_1352,60.0045227688,FEMA4ImagesEEG,001,100112,
AFSA25.JPG,AFNE24.JPG,AFSA24.JPG,AFNE21.JPG,AFSA21.JPG,AFNE25.JPG,,,,,,,,,,,,,0,4,4,2,,,,,,,,,,,AMNE12.jpg,AMSA06.jpg,AMSA01.jpg,AMNE16.jpg,AMNE16.jpg,MN,1,num_4,32,num_8,1.48339514504,,,2017_Mar_30_1352,60.0045227688,FEMA4ImagesEEG,001,100112,
AFSA21.JPG,AFNE23.JPG,AFNE21.JPG,AFSA25.JPG,AFNE25.JPG,AFSA23.JPG,,,,,,,,,,,,,0,5,5,4,,,,,,,,,,,AMSA18.jpg,AMNE14.jpg,AMSA14.jpg,AMNE16.jpg,AMNE16.jpg,MN,1,num_4,16,num_4,1.56677431753,,,2017_Mar_30_1352,60.0045227688,FEMA4ImagesEEG,001,100112,
AMSA21.JPG,AMNE22.JPG,AMNE21.JPG,AMSA23.JPG,AMSA22.JPG,AMNE23.JPG,,,,,,,,,,,,,0,6,6,1,,,,,,,,,,,AMNE20.jpg,AMNE16.jpg,AMSA14.jpg,AMSA06.jpg,AMNE20.jpg,MN,1,num_8,32,num_4,2.19999018521,,,2017_Mar_30_1352,60.0045227688,FEMA4ImagesEEG,001,100112,
AMSA21.JPG,AMNE23.JPG,AMNE21.JPG,AMSA25.JPG,AMNE25.JPG,AMSA23.JPG,,,,,,,,,,,,,0,7,7,5,,,,,,,,,,,AMNE19.jpg,AMNE03.jpg,AMSA05.jpg,AMSA18.jpg,AMNE19.jpg,MN,1,num_8,32,num_2,1.63338521845,,,2017_Mar_30_1352,60.0045227688,FEMA4ImagesEEG,001,100112,
AFNE22.JPG,AFSA24.JPG,AFSA22.JPG,AFNE25.JPG,AFNE24.JPG,AFSA25.JPG,,,,,,,,,,,,,0,8,8,6,,,,,,,,,,,AMNE12.jpg,AMSA17.jpg,AMNE20.jpg,AMSA16.jpg,AMSA16.jpg,MS,2,num_4,16,num_4,1.35012042173,,,2017_Mar_30_1352,60.0045227688,FEMA4ImagesEEG,001,100112,
AFSA21.JPG,AFNE22.JPG,AFNE21.JPG,AFSA23.JPG,AFSA22.JPG,AFNE23.JPG,,,,,,,,,,,,,0,9,9,0,,,,,,,,,,,AMSA16.jpg,AMNE02.jpg,AMNE11.jpg,AMSA03.jpg,AMSA03.jpg,MS,2,num_4,16,num_4,0.850153938867,,,2017_Mar_30_1352,60.0045227688,FEMA4ImagesEEG,001,100112,
AMSA21.JPG,AMNE23.JPG,AMNE21.JPG,AMSA25.JPG,AMNE25.JPG,AMSA23.JPG,,,,,,,,,,,,,,,,,0,0,0,5,,,,,,,AFNE13.jpg,AFSA20.jpg,AFNE16.jpg,AFSA16.jpg,AFSA16.jpg,FS,4,num_4,32,num_2,2.04998920695,,,2017_Mar_30_1352,60.0045227688,FEMA4ImagesEEG,001,100112,
AMNE23.JPG,AMNE24.JPG,AMNE22.JPG,AMSA24.JPG,AMSA22.JPG,AMSA23.JPG,,,,,,,,,,,,,,,,,0,1,1,9,,,,,,,AFSA20.jpg,AFSA06.jpg,AFNE04.jpg,AFNE02.jpg,AFNE02.jpg,FN,3,num_4,16,num_4,1.44996059709,,,2017_Mar_30_1352,60.0045227688,FEMA4ImagesEEG,001,100112,
AFSA21.JPG,AFNE23.JPG,AFNE21.JPG,AFSA25.JPG,AFNE25.JPG,AFSA23.JPG,,,,,,,,,,,,,,,,,0,2,2,4,,,,,,,AFNE03.jpg,AFNE17.jpg,AFSA20.jpg,AFSA08.jpg,AFNE03.jpg,FN,3,num_8,16,num_8,1.33343233494,,,2017_Mar_30_1352,60.0045227688,FEMA4ImagesEEG,001,100112,
AFSA25.JPG,AFNE24.JPG,AFSA24.JPG,AFNE21.JPG,AFSA21.JPG,AFNE25.JPG,,,,,,,,,,,,,,,,,0,3,3,2,,,,,,,AFNE10.jpg,AFNE05.jpg,AFSA08.jpg,AFSA09.jpg,AFNE10.jpg,FN,3,num_8,16,num_8,0.83347483282,,,2017_Mar_30_1352,60.0045227688,FEMA4ImagesEEG,001,100112,
AMSA25.JPG,AMNE24.JPG,AMSA24.JPG,AMNE26.JPG,AMSA21.JPG,AMNE25.JPG,,,,,,,,,,,,,,,,,0,4,4,3,,,,,,,AFNE10.jpg,AFSA14.jpg,AFSA12.jpg,AFNE09.jpg,AFSA12.jpg,FS,4,num_2,16,num_2,0.51682680659,,,2017_Mar_30_1352,60.0045227688,FEMA4ImagesEEG,001,100112,
AMSA21.JPG,AMNE22.JPG,AMNE21.JPG,AMSA23.JPG,AMSA22.JPG,AMNE23.JPG,,,,,,,,,,,,,,,,,0,5,5,1,,,,,,,AFNE01.jpg,AFSA18.jpg,AFSA12.jpg,AFNE19.jpg,AFSA12.jpg,FS,4,num_2,16,num_2,1.39994220273,,,2017_Mar_30_1352,60.0045227688,FEMA4ImagesEEG,001,100112,
AFSA21.JPG,AFNE22.JPG,AFNE21.JPG,AFSA23.JPG,AFSA22.JPG,AFNE23.JPG,,,,,,,,,,,,,,,,,0,6,6,0,,,,,,,AFNE13.jpg,AFNE15.jpg,AFSA08.jpg,AFSA15.jpg,AFSA08.jpg,FS,4,num_2,16,num_2,0.650143867824,,,2017_Mar_30_1352,60.0045227688,FEMA4ImagesEEG,001,100112,
AMNE22.JPG,AMSA24.JPG,AMSA22.JPG,AMNE25.JPG,AMNE24.JPG,AMSA25.JPG,,,,,,,,,,,,,,,,,0,7,7,7,,,,,,,AFNE03.jpg,AFSA04.jpg,AFNE20.jpg,AFSA11.jpg,AFSA11.jpg,FS,4,num_4,16,num_4,0.783451306866,,,2017_Mar_30_1352,60.0045227688,FEMA4ImagesEEG,001,100112,
AFNE22.JPG,AFSA24.JPG,AFSA22.JPG,AFNE25.JPG,AFNE24.JPG,AFSA25.JPG,,,,,,,,,,,,,,,,,0,8,8,6,,,,,,,AFSA15.jpg,AFSA17.jpg,AFNE04.jpg,AFNE10.jpg,AFSA15.jpg,FS,4,num_8,16,num_8,1.0334650185,,,2017_Mar_30_1352,60.0045227688,FEMA4ImagesEEG,001,100112,
AFNE23.JPG,AFNE24.JPG,AFNE22.JPG,AFSA24.JPG,AFSA22.JPG,AFSA23.JPG,,,,,,,,,,,,,,,,,0,9,9,8,,,,,,,AFSA02.jpg,AFNE03.jpg,AFNE18.jpg,AFSA05.jpg,AFNE18.jpg,FN,3,num_2,16,num_2,0.600135416258,,,2017_Mar_30_1352,60.0045227688,FEMA4ImagesEEG,001,100112,
AMNE22.JPG,AMSA24.JPG,AMSA22.JPG,AMNE25.JPG,AMNE24.JPG,AMSA25.JPG,,,,,,,,,,,,,,,,,,,,,0,0,0,7,,,AMNE01.jpg,AMNE18.jpg,AMSA14.jpg,AMSA11.jpg,AMNE18.jpg,MN,1,num_6,32,num_4,0.733473646222,,,2017_Mar_30_1352,60.0045227688,FEMA4ImagesEEG,001,100112,
AMSA25.JPG,AMNE24.JPG,AMSA24.JPG,AMNE26.JPG,AMSA21.JPG,AMNE25.JPG,,,,,,,,,,,,,,,,,,,,,0,1,1,3,,,AMNE08.jpg,AMSA04.jpg,AMNE04.jpg,AMSA15.jpg,AMNE08.jpg,MN,1,num_8,16,num_8,1.0334893947,,,2017_Mar_30_1352,60.0045227688,FEMA4ImagesEEG,001,100112,
AFNE23.JPG,AFNE24.JPG,AFNE22.JPG,AFSA24.JPG,AFSA22.JPG,AFSA23.JPG,,,,,,,,,,,,,,,,,,,,,0,2,2,8,,,AMNE10.jpg,AMSA03.jpg,AMNE11.jpg,AMSA13.jpg,AMNE10.jpg,MN,1,num_8,16,num_8,0.816500967136,,,2017_Mar_30_1352,60.0045227688,FEMA4ImagesEEG,001,100112,
AFNE22.JPG,AFSA24.JPG,AFSA22.JPG,AFNE25.JPG,AFNE24.JPG,AFSA25.JPG,,,,,,,,,,,,,,,,,,,,,0,3,3,6,,,AMSA18.jpg,AMNE14.jpg,AMNE01.jpg,AMSA20.jpg,AMNE01.jpg,MN,1,num_2,32,num_4,0.900088941213,,,2017_Mar_30_1352,60.0045227688,FEMA4ImagesEEG,001,100112,
AFSA21.JPG,AFNE23.JPG,AFNE21.JPG,AFSA25.JPG,AFNE25.JPG,AFSA23.JPG,,,,,,,,,,,,,,,,,,,,,0,4,4,4,,,AMSA16.jpg,AMSA15.jpg,AMNE09.jpg,AMNE17.jpg,AMNE09.jpg,MN,1,num_2,32,num_4,1.23345392058,,,2017_Mar_30_1352,60.0045227688,FEMA4ImagesEEG,001,100112,
AMSA21.JPG,AMNE23.JPG,AMNE21.JPG,AMSA25.JPG,AMNE25.JPG,AMSA23.JPG,,,,,,,,,,,,,,,,,,,,,0,5,5,5,,,AMSA05.jpg,AMNE14.jpg,AMSA13.jpg,AMNE15.jpg,AMSA13.jpg,MS,2,num_2,32,num_8,0.850204295246,,,2017_Mar_30_1352,60.0045227688,FEMA4ImagesEEG,001,100112,
AFSA25.JPG,AFNE24.JPG,AFSA24.JPG,AFNE21.JPG,AFSA21.JPG,AFNE25.JPG,,,,,,,,,,,,,,,,,,,,,0,6,6,2,,,AMNE14.jpg,AMSA17.jpg,AMNE05.jpg,AMSA14.jpg,AMNE14.jpg,MN,1,num_8,32,num_4,1.11674989318,,,2017_Mar_30_1352,60.0045227688,FEMA4ImagesEEG,001,100112,
AFSA21.JPG,AFNE22.JPG,AFNE21.JPG,AFSA23.JPG,AFSA22.JPG,AFNE23.JPG,,,,,,,,,,,,,,,,,,,,,0,7,7,0,,,AMNE17.jpg,AMSA17.jpg,AMNE10.jpg,AMSA11.jpg,AMNE10.jpg,MN,1,num_2,16,num_2,0.733471080428,,,2017_Mar_30_1352,60.0045227688,FEMA4ImagesEEG,001,100112,
AMSA21.JPG,AMNE22.JPG,AMNE21.JPG,AMSA23.JPG,AMSA22.JPG,AMNE23.JPG,,,,,,,,,,,,,,,,,,,,,0,8,8,1,,,AMSA14.jpg,AMSA06.jpg,AMNE11.jpg,AMNE14.jpg,AMSA14.jpg,MS,2,num_8,16,num_8,1.68336255825,,,2017_Mar_30_1352,60.0045227688,FEMA4ImagesEEG,001,100112,
AMNE23.JPG,AMNE24.JPG,AMNE22.JPG,AMSA24.JPG,AMSA22.JPG,AMSA23.JPG,,,,,,,,,,,,,,,,,,,,,0,9,9,9,,,AMSA10.jpg,AMNE07.jpg,AMNE15.jpg,AMSA05.jpg,AMSA05.jpg,MS,2,num_4,16,num_4,1.10011889809,,,2017_Mar_30_1352,60.0045227688,FEMA4ImagesEEG,001,100112,
,,,,,,,,,,,,,,,,,,,,,,,,,,,,,,,,,,,,,,,,,,,space,7.83295138599,2017_Mar_30_1352,60.0045227688,FEMA4ImagesEEG,001,100112,
AFNE01.JPG,AFNE01.JPG,AFNE01.JPG,AFNE01.JPG,AFNE01.JPG,AFNE01.JPG,0,0,0,7,,,,,,,,,,,,,,,,,,,,,,,AFSA11.jpg,AFNE16.jpg,AFNE05.jpg,AFSA09.jpg,AFSA11.jpg,FS,4,num_8,32,num_6,3.81639576447,,,2017_Mar_30_1352,60.0045227688,FEMA4ImagesEEG,001,100112,
AFNE01.JPG,AFNE01.JPG,AFNE01.JPG,AFNE01.JPG,AFNE01.JPG,AFNE01.JPG,0,1,1,6,,,,,,,,,,,,,,,,,,,,,,,AFNE11.jpg,AFSA15.jpg,AFNE07.jpg,AFSA13.jpg,AFNE11.jpg,FN,3,num_8,16,num_8,1.43342935201,,,2017_Mar_30_1352,60.0045227688,FEMA4ImagesEEG,001,100112,
AFNE01.JPG,AFNE01.JPG,AFNE01.JPG,AFNE01.JPG,AFNE01.JPG,AFNE01.JPG,0,2,2,3,,,,,,,,,,,,,,,,,,,,,,,AFNE05.jpg,AFSA05.jpg,AFSA13.jpg,AFNE20.jpg,AFSA13.jpg,FS,4,num_2,16,num_2,1.66667735786,,,2017_Mar_30_1352,60.0045227688,FEMA4ImagesEEG,001,100112,
AFNE01.JPG,AFNE01.JPG,AFNE01.JPG,AFNE01.JPG,AFNE01.JPG,AFNE01.JPG,0,3,3,0,,,,,,,,,,,,,,,,,,,,,,,AFSA01.jpg,AFNE14.jpg,AFSA11.jpg,AFNE10.jpg,AFNE10.jpg,FN,3,num_4,32,num_6,0.750062624225,,,2017_Mar_30_1352,60.0045227688,FEMA4ImagesEEG,001,100112,
AFNE01.JPG,AFNE01.JPG,AFNE01.JPG,AFNE01.JPG,AFNE01.JPG,AFNE01.JPG,0,4,4,9,,,,,,,,,,,,,,,,,,,,,,,AFNE06.jpg,AFNE03.jpg,AFSA01.jpg,AFSA20.jpg,AFSA01.jpg,FS,4,num_2,32,num_4,0.716779465321,,,2017_Mar_30_1352,60.0045227688,FEMA4ImagesEEG,001,100112,
AFNE01.JPG,AFNE01.JPG,AFNE01.JPG,AFNE01.JPG,AFNE01.JPG,AFNE01.JPG,0,5,5,5,,,,,,,,,,,,,,,,,,,,,,,AFSA17.jpg,AFNE15.jpg,AFSA19.jpg,AFNE19.jpg,AFSA17.jpg,FS,4,num_8,16,num_8,0.816660695709,,,2017_Mar_30_1352,60.0045227688,FEMA4ImagesEEG,001,100112,
AFNE01.JPG,AFNE01.JPG,AFNE01.JPG,AFNE01.JPG,AFNE01.JPG,AFNE01.JPG,0,6,6,8,,,,,,,,,,,,,,,,,,,,,,,AFNE13.jpg,AFNE20.jpg,AFSA05.jpg,AFSA08.jpg,AFNE13.jpg,FN,3,num_8,32,num_6,0.650142264087,,,2017_Mar_30_1352,60.0045227688,FEMA4ImagesEEG,001,100112,
AFNE01.JPG,AFNE01.JPG,AFNE01.JPG,AFNE01.JPG,AFNE01.JPG,AFNE01.JPG,0,7,7,2,,,,,,,,,,,,,,,,,,,,,,,AFSA14.jpg,AFNE05.jpg,AFSA08.jpg,AFNE17.jpg,AFSA14.jpg,FS,4,num_8,32,num_2,0.900132882409,,,2017_Mar_30_1352,60.0045227688,FEMA4ImagesEEG,001,100112,
AFNE01.JPG,AFNE01.JPG,AFNE01.JPG,AFNE01.JPG,AFNE01.JPG,AFNE01.JPG,0,8,8,4,,,,,,,,,,,,,,,,,,,,,,,AFSA01.jpg,AFNE10.jpg,AFSA14.jpg,AFNE03.jpg,AFSA01.jpg,FS,4,num_8,16,num_8,0.95013940963,,,2017_Mar_30_1352,60.0045227688,FEMA4ImagesEEG,001,100112,
AFNE01.JPG,AFNE01.JPG,AFNE01.JPG,AFNE01.JPG,AFNE01.JPG,AFNE01.JPG,0,9,9,1,,,,,,,,,,,,,,,,,,,,,,,AFSA16.jpg,AFSA15.jpg,AFNE11.jpg,AFNE08.jpg,AFSA15.jpg,FS,4,num_6,32,num_4,1.21675524977,,,2017_Mar_30_1352,60.0045227688,FEMA4ImagesEEG,001,100112,
AFNE01.JPG,AFNE01.JPG,AFNE01.JPG,AFNE01.JPG,AFNE01.JPG,AFNE01.JPG,1,0,10,1,,,,,,,,,,,,,,,,,,,,,,,AFSA08.jpg,AFSA17.jpg,AFNE08.jpg,AFNE09.jpg,AFNE08.jpg,FN,3,num_2,32,num_8,1.71672910941,,,2017_Mar_30_1352,60.0045227688,FEMA4ImagesEEG,001,100112,
AFNE01.JPG,AFNE01.JPG,AFNE01.JPG,AFNE01.JPG,AFNE01.JPG,AFNE01.JPG,1,1,11,6,,,,,,,,,,,,,,,,,,,,,,,AFSA17.jpg,AFNE15.jpg,AFSA10.jpg,AFNE02.jpg,AFSA17.jpg,FS,4,num_8,32,num_4,0.816813367652,,,2017_Mar_30_1352,60.0045227688,FEMA4ImagesEEG,001,100112,
AFNE01.JPG,AFNE01.JPG,AFNE01.JPG,AFNE01.JPG,AFNE01.JPG,AFNE01.JPG,1,2,12,3,,,,,,,,,,,,,,,,,,,,,,,AFSA06.jpg,AFNE03.jpg,AFNE19.jpg,AFSA10.jpg,AFNE19.jpg,FN,3,num_2,32,num_8,0.983467151178,,,2017_Mar_30_1352,60.0045227688,FEMA4ImagesEEG,001,100112,
AFNE01.JPG,AFNE01.JPG,AFNE01.JPG,AFNE01.JPG,AFNE01.JPG,AFNE01.JPG,1,3,13,7,,,,,,,,,,,,,,,,,,,,,,,AFSA19.jpg,AFNE14.jpg,AFNE08.jpg,AFSA14.jpg,AFSA19.jpg,FS,4,num_8,32,num_2,1.13347101631,,,2017_Mar_30_1352,60.0045227688,FEMA4ImagesEEG,001,100112,
AFNE01.JPG,AFNE01.JPG,AFNE01.JPG,AFNE01.JPG,AFNE01.JPG,AFNE01.JPG,1,4,14,0,,,,,,,,,,,,,,,,,,,,,,,AFNE12.jpg,AFSA08.jpg,AFNE17.jpg,AFSA02.jpg,AFNE17.jpg,FN,3,num_2,32,num_6,0.850389682688,,,2017_Mar_30_1352,60.0045227688,FEMA4ImagesEEG,001,100112,
AFNE01.JPG,AFNE01.JPG,AFNE01.JPG,AFNE01.JPG,AFNE01.JPG,AFNE01.JPG,1,5,15,8,,,,,,,,,,,,,,,,,,,,,,,AFSA08.jpg,AFNE16.jpg,AFNE07.jpg,AFSA06.jpg,AFSA08.jpg,FS,4,num_8,32,num_2,1.81705071521,,,2017_Mar_30_1352,60.0045227688,FEMA4ImagesEEG,001,100112,
AFNE01.JPG,AFNE01.JPG,AFNE01.JPG,AFNE01.JPG,AFNE01.JPG,AFNE01.JPG,1,6,16,5,,,,,,,,,,,,,,,,,,,,,,,AFSA14.jpg,AFSA03.jpg,AFNE10.jpg,AFNE02.jpg,AFNE10.jpg,FN,3,num_2,32,num_4,1.21675653243,,,2017_Mar_30_1352,60.0045227688,FEMA4ImagesEEG,001,100112,
AFNE01.JPG,AFNE01.JPG,AFNE01.JPG,AFNE01.JPG,AFNE01.JPG,AFNE01.JPG,1,7,17,4,,,,,,,,,,,,,,,,,,,,,,,AFSA19.jpg,AFSA13.jpg,AFNE11.jpg,AFNE07.jpg,AFSA13.jpg,FS,4,num_6,16,num_6,1.38342282502,,,2017_Mar_30_1352,60.0045227688,FEMA4ImagesEEG,001,100112,
AFNE01.JPG,AFNE01.JPG,AFNE01.JPG,AFNE01.JPG,AFNE01.JPG,AFNE01.JPG,1,8,18,2,,,,,,,,,,,,,,,,,,,,,,,AFNE17.jpg,AFSA07.jpg,AFSA04.jpg,AFNE18.jpg,AFNE18.jpg,FN,3,num_4,32,num_8,1.81675306871,,,2017_Mar_30_1352,60.0045227688,FEMA4ImagesEEG,001,100112,
AFNE01.JPG,AFNE01.JPG,AFNE01.JPG,AFNE01.JPG,AFNE01.JPG,AFNE01.JPG,1,9,19,9,,,,,,,,,,,,,,,,,,,,,,,AFSA10.jpg,AFSA11.jpg,AFNE16.jpg,AFNE04.jpg,AFNE04.jpg,FN,3,num_4,32,num_2,1.36676232191,,,2017_Mar_30_1352,60.0045227688,FEMA4ImagesEEG,001,100112,
AFNE01.JPG,AFNE01.JPG,AFNE01.JPG,AFNE01.JPG,AFNE01.JPG,AFNE01.JPG,2,0,20,4,,,,,,,,,,,,,,,,,,,,,,,AFNE19.jpg,AFSA16.jpg,AFNE11.jpg,AFSA02.jpg,AFSA02.jpg,FS,4,num_4,16,num_4,2.71664315113,,,2017_Mar_30_1352,60.0045227688,FEMA4ImagesEEG,001,100112,
AFNE01.JPG,AFNE01.JPG,AFNE01.JPG,AFNE01.JPG,AFNE01.JPG,AFNE01.JPG,2,1,21,5,,,,,,,,,,,,,,,,,,,,,,,AFNE04.jpg,AFNE01.jpg,AFSA17.jpg,AFSA11.jpg,AFSA11.jpg,FS,4,num_4,16,num_4,1.35010406398,,,2017_Mar_30_1352,60.0045227688,FEMA4ImagesEEG,001,100112,
AFNE01.JPG,AFNE01.JPG,AFNE01.JPG,AFNE01.JPG,AFNE01.JPG,AFNE01.JPG,2,2,22,7,,,,,,,,,,,,,,,,,,,,,,,AFNE13.jpg,AFSA17.jpg,AFSA19.jpg,AFNE06.jpg,AFNE06.jpg,FN,3,num_4,32,num_8,1.08343049069,,,2017_Mar_30_1352,60.0045227688,FEMA4ImagesEEG,001,100112,
AFNE01.JPG,AFNE01.JPG,AFNE01.JPG,AFNE01.JPG,AFNE01.JPG,AFNE01.JPG,2,3,23,1,,,,,,,,,,,,,,,,,,,,,,,AFSA09.jpg,AFSA01.jpg,AFNE04.jpg,AFNE01.jpg,AFNE04.jpg,FN,3,num_2,16,num_2,1.21670296905,,,2017_Mar_30_1352,60.0045227688,FEMA4ImagesEEG,001,100112,
AFNE01.JPG,AFNE01.JPG,AFNE01.JPG,AFNE01.JPG,AFNE01.JPG,AFNE01.JPG,2,4,24,2,,,,,,,,,,,,,,,,,,,,,,,AFSA01.jpg,AFSA06.jpg,AFNE05.jpg,AFNE15.jpg,AFNE15.jpg,FN,3,num_4,16,num_4,0.866847157478,,,2017_Mar_30_1352,60.0045227688,FEMA4ImagesEEG,001,100112,
AFNE01.JPG,AFNE01.JPG,AFNE01.JPG,AFNE01.JPG,AFNE01.JPG,AFNE01.JPG,2,5,25,9,,,,,,,,,,,,,,,,,,,,,,,AFSA16.jpg,AFNE07.jpg,AFNE14.jpg,AFSA12.jpg,AFNE14.jpg,FN,3,num_2,32,num_8,1.50010440079,,,2017_Mar_30_1352,60.0045227688,FEMA4ImagesEEG,001,100112,
AFNE01.JPG,AFNE01.JPG,AFNE01.JPG,AFNE01.JPG,AFNE01.JPG,AFNE01.JPG,2,6,26,8,,,,,,,,,,,,,,,,,,,,,,,AFSA17.jpg,AFNE18.jpg,AFNE17.jpg,AFSA20.jpg,AFNE18.jpg,FN,3,num_6,16,num_6,0.666796673089,,,2017_Mar_30_1352,60.0045227688,FEMA4ImagesEEG,001,100112,
AFNE01.JPG,AFNE01.JPG,AFNE01.JPG,AFNE01.JPG,AFNE01.JPG,AFNE01.JPG,2,7,27,0,,,,,,,,,,,,,,,,,,,,,,,AFNE05.jpg,AFSA09.jpg,AFNE14.jpg,AFSA02.jpg,AFSA09.jpg,FS,4,num_6,32,num_4,0.800209635403,,,2017_Mar_30_1352,60.0045227688,FEMA4ImagesEEG,001,100112,
AFNE01.JPG,AFNE01.JPG,AFNE01.JPG,AFNE01.JPG,AFNE01.JPG,AFNE01.JPG,2,8,28,6,,,,,,,,,,,,,,,,,,,,,,,AFNE18.jpg,AFNE01.jpg,AFSA01.jpg,AFSA12.jpg,AFNE18.jpg,FN,3,num_8,16,num_8,1.38345105015,,,2017_Mar_30_1352,60.0045227688,FEMA4ImagesEEG,001,100112,
AFNE01.JPG,AFNE01.JPG,AFNE01.JPG,AFNE01.JPG,AFNE01.JPG,AFNE01.JPG,2,9,29,3,,,,,,,,,,,,,,,,,,,,,,,AFNE17.jpg,AFSA04.jpg,AFSA20.jpg,AFNE13.jpg,AFNE17.jpg,FN,3,num_8,16,num_8,1.40009519574,,,2017_Mar_30_1352,60.0045227688,FEMA4ImagesEEG,001,100112,
AFNE01.JPG,AFNE01.JPG,AFNE01.JPG,AFNE01.JPG,AFNE01.JPG,AFNE01.JPG,3,0,30,3,,,,,,,,,,,,,,,,,,,,,,,AFNE03.jpg,AFSA18.jpg,AFSA05.jpg,AFNE08.jpg,AFSA05.jpg,FS,4,num_2,16,num_2,1.63341376418,,,2017_Mar_30_1352,60.0045227688,FEMA4ImagesEEG,001,100112,
AFNE01.JPG,AFNE01.JPG,AFNE01.JPG,AFNE01.JPG,AFNE01.JPG,AFNE01.JPG,3,1,31,1,,,,,,,,,,,,,,,,,,,,,,,AFSA04.jpg,AFNE15.jpg,AFNE06.jpg,AFSA06.jpg,AFSA04.jpg,FS,4,num_8,32,num_4,1.26649203454,,,2017_Mar_30_1352,60.0045227688,FEMA4ImagesEEG,001,100112,
AFNE01.JPG,AFNE01.JPG,AFNE01.JPG,AFNE01.JPG,AFNE01.JPG,AFNE01.JPG,3,2,32,5,,,,,,,,,,,,,,,,,,,,,,,AFSA10.jpg,AFNE07.jpg,AFSA01.jpg,AFNE05.jpg,AFNE05.jpg,FN,3,num_4,16,num_4,2.76624554605,,,2017_Mar_30_1352,60.0045227688,FEMA4ImagesEEG,001,100112,
AFNE01.JPG,AFNE01.JPG,AFNE01.JPG,AFNE01.JPG,AFNE01.JPG,AFNE01.JPG,3,3,33,4,,,,,,,,,,,,,,,,,,,,,,,AFSA08.jpg,AFNE18.jpg,AFSA09.jpg,AFNE04.jpg,AFNE04.jpg,FN,3,num_4,16,num_4,0.666782881366,,,2017_Mar_30_1352,60.0045227688,FEMA4ImagesEEG,001,100112,
AFNE01.JPG,AFNE01.JPG,AFNE01.JPG,AFNE01.JPG,AFNE01.JPG,AFNE01.JPG,3,4,34,0,,,,,,,,,,,,,,,,,,,,,,,AFSA07.jpg,AFNE04.jpg,AFNE10.jpg,AFSA16.jpg,AFNE10.jpg,FN,3,num_2,16,num_2,1.11676657177,,,2017_Mar_30_1352,60.0045227688,FEMA4ImagesEEG,001,100112,
AFNE01.JPG,AFNE01.JPG,AFNE01.JPG,AFNE01.JPG,AFNE01.JPG,AFNE01.JPG,3,5,35,2,,,,,,,,,,,,,,,,,,,,,,,AFNE20.jpg,AFSA01.jpg,AFSA20.jpg,AFNE18.jpg,AFNE18.jpg,FN,3,num_4,32,num_8,2.50011466444,,,2017_Mar_30_1352,60.0045227688,FEMA4ImagesEEG,001,100112,
AFNE01.JPG,AFNE01.JPG,AFNE01.JPG,AFNE01.JPG,AFNE01.JPG,AFNE01.JPG,3,6,36,9,,,,,,,,,,,,,,,,,,,,,,,AFNE08.jpg,AFNE02.jpg,AFSA20.jpg,AFSA02.jpg,AFNE02.jpg,FN,3,num_6,32,num_2,1.28314131196,,,2017_Mar_30_1352,60.0045227688,FEMA4ImagesEEG,001,100112,
AFNE01.JPG,AFNE01.JPG,AFNE01.JPG,AFNE01.JPG,AFNE01.JPG,AFNE01.JPG,3,7,37,7,,,,,,,,,,,,,,,,,,,,,,,AFNE14.jpg,AFSA18.jpg,AFSA08.jpg,AFNE05.jpg,AFSA18.jpg,FS,4,num_6,16,num_6,0.533480253536,,,2017_Mar_30_1352,60.0045227688,FEMA4ImagesEEG,001,100112,
AFNE01.JPG,AFNE01.JPG,AFNE01.JPG,AFNE01.JPG,AFNE01.JPG,AFNE01.JPG,3,8,38,8,,,,,,,,,,,,,,,,,,,,,,,AFSA02.jpg,AFSA15.jpg,AFNE04.jpg,AFNE20.jpg,AFNE04.jpg,FN,3,num_2,32,num_4,1.10011729458,,,2017_Mar_30_1352,60.0045227688,FEMA4ImagesEEG,001,100112,
AFNE01.JPG,AFNE01.JPG,AFNE01.JPG,AFNE01.JPG,AFNE01.JPG,AFNE01.JPG,3,9,39,6,,,,,,,,,,,,,,,,,,,,,,,AFSA12.jpg,AFSA01.jpg,AFNE12.jpg,AFNE05.jpg,AFNE12.jpg,FN,3,num_2,32,num_8,0.783470871858,,,2017_Mar_30_1352,60.0045227688,FEMA4ImagesEEG,001,100112,
AFNE01.JPG,AFNE01.JPG,AFNE01.JPG,AFNE01.JPG,AFNE01.JPG,AFNE01.JPG,4,0,40,5,,,,,,,,,,,,,,,,,,,,,,,AFNE17.jpg,AFNE04.jpg,AFSA13.jpg,AFSA10.jpg,AFSA10.jpg,FS,4,num_4,16,num_4,1.23342505423,,,2017_Mar_30_1352,60.0045227688,FEMA4ImagesEEG,001,100112,
AFNE01.JPG,AFNE01.JPG,AFNE01.JPG,AFNE01.JPG,AFNE01.JPG,AFNE01.JPG,4,1,41,2,,,,,,,,,,,,,,,,,,,,,,,AFNE03.jpg,AFSA04.jpg,AFSA13.jpg,AFNE04.jpg,AFNE04.jpg,FN,3,num_4,32,num_8,0.966679956065,,,2017_Mar_30_1352,60.0045227688,FEMA4ImagesEEG,001,100112,
AFNE01.JPG,AFNE01.JPG,AFNE01.JPG,AFNE01.JPG,AFNE01.JPG,AFNE01.JPG,4,2,42,4,,,,,,,,,,,,,,,,,,,,,,,AFSA01.jpg,AFNE02.jpg,AFNE04.jpg,AFSA19.jpg,AFNE04.jpg,FN,3,num_2,16,num_2,0.850147203542,,,2017_Mar_30_1352,60.0045227688,FEMA4ImagesEEG,001,100112,
AFNE01.JPG,AFNE01.JPG,AFNE01.JPG,AFNE01.JPG,AFNE01.JPG,AFNE01.JPG,4,3,43,1,,,,,,,,,,,,,,,,,,,,,,,AFSA11.jpg,AFNE10.jpg,AFNE07.jpg,AFSA16.jpg,AFNE07.jpg,FN,3,num_2,32,num_4,1.31676734169,,,2017_Mar_30_1352,60.0045227688,FEMA4ImagesEEG,001,100112,
AFNE01.JPG,AFNE01.JPG,AFNE01.JPG,AFNE01.JPG,AFNE01.JPG,AFNE01.JPG,4,4,44,0,,,,,,,,,,,,,,,,,,,,,,,AFNE04.jpg,AFSA16.jpg,AFSA02.jpg,AFNE19.jpg,AFSA02.jpg,FS,4,num_2,32,num_4,0.950105411001,,,2017_Mar_30_1352,60.0045227688,FEMA4ImagesEEG,001,100112,
AFNE01.JPG,AFNE01.JPG,AFNE01.JPG,AFNE01.JPG,AFNE01.JPG,AFNE01.JPG,4,5,45,9,,,,,,,,,,,,,,,,,,,,,,,AFSA02.jpg,AFSA12.jpg,AFNE16.jpg,AFNE18.jpg,AFSA02.jpg,FS,4,num_8,32,num_2,1.08347507357,,,2017_Mar_30_1352,60.0045227688,FEMA4ImagesEEG,001,100112,
AFNE01.JPG,AFNE01.JPG,AFNE01.JPG,AFNE01.JPG,AFNE01.JPG,AFNE01.JPG,4,6,46,6,,,,,,,,,,,,,,,,,,,,,,,AFSA15.jpg,AFSA04.jpg,AFNE16.jpg,AFNE02.jpg,AFNE02.jpg,FN,3,num_4,32,num_8,1.1167437993,,,2017_Mar_30_1352,60.0045227688,FEMA4ImagesEEG,001,100112,
AFNE01.JPG,AFNE01.JPG,AFNE01.JPG,AFNE01.JPG,AFNE01.JPG,AFNE01.JPG,4,7,47,3,,,,,,,,,,,,,,,,,,,,,,,AFSA13.jpg,AFNE06.jpg,AFNE05.jpg,AFSA10.jpg,AFNE06.jpg,FN,3,num_6,32,num_2,1.80004253006,,,2017_Mar_30_1352,60.0045227688,FEMA4ImagesEEG,001,100112,
AFNE01.JPG,AFNE01.JPG,AFNE01.JPG,AFNE01.JPG,AFNE01.JPG,AFNE01.JPG,4,8,48,7,,,,,,,,,,,,,,,,,,,,,,,AFNE09.jpg,AFNE06.jpg,AFSA10.jpg,AFSA01.jpg,AFNE09.jpg,FN,3,num_8,32,num_6,1.50007264735,,,2017_Mar_30_1352,60.0045227688,FEMA4ImagesEEG,001,100112,
AFNE01.JPG,AFNE01.JPG,AFNE01.JPG,AFNE01.JPG,AFNE01.JPG,AFNE01.JPG,4,9,49,8,,,,,,,,,,,,,,,,,,,,,,,AFNE14.jpg,AFSA01.jpg,AFSA20.jpg,AFNE19.jpg,AFNE19.jpg,FN,3,num_4,32,num_8,1.21673857118,,,2017_Mar_30_1352,60.0045227688,FEMA4ImagesEEG,001,100112,
AFNE01.JPG,AFNE01.JPG,AFNE01.JPG,AFNE01.JPG,AFNE01.JPG,AFNE01.JPG,5,0,50,1,,,,,,,,,,,,,,,,,,,,,,,AFNE15.jpg,AFNE13.jpg,AFSA13.jpg,AFSA06.jpg,AFNE13.jpg,FN,3,num_6,32,num_4,1.25012917793,,,2017_Mar_30_1352,60.0045227688,FEMA4ImagesEEG,001,100112,
AFNE01.JPG,AFNE01.JPG,AFNE01.JPG,AFNE01.JPG,AFNE01.JPG,AFNE01.JPG,5,1,51,2,,,,,,,,,,,,,,,,,,,,,,,AFSA02.jpg,AFNE15.jpg,AFNE16.jpg,AFSA17.jpg,AFNE15.jpg,FN,3,num_6,16,num_6,0.58350025164,,,2017_Mar_30_1352,60.0045227688,FEMA4ImagesEEG,001,100112,
AFNE01.JPG,AFNE01.JPG,AFNE01.JPG,AFNE01.JPG,AFNE01.JPG,AFNE01.JPG,5,2,52,4,,,,,,,,,,,,,,,,,,,,,,,AFNE08.jpg,AFNE06.jpg,AFSA05.jpg,AFSA08.jpg,AFNE08.jpg,FN,3,num_8,16,num_8,1.03345411317,,,2017_Mar_30_1352,60.0045227688,FEMA4ImagesEEG,001,100112,
AFNE01.JPG,AFNE01.JPG,AFNE01.JPG,AFNE01.JPG,AFNE01.JPG,AFNE01.JPG,5,3,53,5,,,,,,,,,,,,,,,,,,,,,,,AFNE11.jpg,AFSA06.jpg,AFSA02.jpg,AFNE14.jpg,AFNE11.jpg,FN,3,num_8,32,num_2,0.933230653871,,,2017_Mar_30_1352,60.0045227688,FEMA4ImagesEEG,001,100112,
AFNE01.JPG,AFNE01.JPG,AFNE01.JPG,AFNE01.JPG,AFNE01.JPG,AFNE01.JPG,5,4,54,3,,,,,,,,,,,,,,,,,,,,,,,AFNE15.jpg,AFNE05.jpg,AFSA17.jpg,AFSA11.jpg,AFNE05.jpg,FN,3,num_6,16,num_6,0.916816799436,,,2017_Mar_30_1352,60.0045227688,FEMA4ImagesEEG,001,100112,
AFNE01.JPG,AFNE01.JPG,AFNE01.JPG,AFNE01.JPG,AFNE01.JPG,AFNE01.JPG,5,5,55,7,,,,,,,,,,,,,,,,,,,,,,,AFSA13.jpg,AFNE16.jpg,AFSA11.jpg,AFNE03.jpg,AFNE16.jpg,FN,3,num_6,32,num_4,1.95005665882,,,2017_Mar_30_1352,60.0045227688,FEMA4ImagesEEG,001,100112,
AFNE01.JPG,AFNE01.JPG,AFNE01.JPG,AFNE01.JPG,AFNE01.JPG,AFNE01.JPG,5,6,56,0,,,,,,,,,,,,,,,,,,,,,,,AFNE03.jpg,AFSA16.jpg,AFNE08.jpg,AFSA08.jpg,AFNE03.jpg,FN,3,num_8,32,num_6,1.80006498192,,,2017_Mar_30_1352,60.0045227688,FEMA4ImagesEEG,001,100112,
AFNE01.JPG,AFNE01.JPG,AFNE01.JPG,AFNE01.JPG,AFNE01.JPG,AFNE01.JPG,5,7,57,9,,,,,,,,,,,,,,,,,,,,,,,AFNE08.jpg,AFNE18.jpg,AFSA04.jpg,AFSA20.jpg,AFNE18.jpg,FN,3,num_6,16,num_6,0.700163224479,,,2017_Mar_30_1352,60.0045227688,FEMA4ImagesEEG,001,100112,
AFNE01.JPG,AFNE01.JPG,AFNE01.JPG,AFNE01.JPG,AFNE01.JPG,AFNE01.JPG,5,8,58,8,,,,,,,,,,,,,,,,,,,,,,,AFSA05.jpg,AFSA12.jpg,AFNE02.jpg,AFNE09.jpg,AFNE02.jpg,FN,3,num_2,16,num_2,0.916782480432,,,2017_Mar_30_1352,60.0045227688,FEMA4ImagesEEG,001,100112,
AFNE01.JPG,AFNE01.JPG,AFNE01.JPG,AFNE01.JPG,AFNE01.JPG,AFNE01.JPG,5,9,59,6,,,,,,,,,,,,,,,,,,,,,,,AFNE03.jpg,AFNE18.jpg,AFSA05.jpg,AFSA06.jpg,AFNE18.jpg,FN,3,num_6,32,num_8,1.00012701284,,,2017_Mar_30_1352,60.0045227688,FEMA4ImagesEEG,001,100112,
,,,,,,,,,,,,,,,,,,,,,,,,,,,,,,,,,,,,,,,,,,,space,7.19962614588,2017_Mar_30_1352,60.0045227688,FEMA4ImagesEEG,001,100112,
AFNE01.JPG,AFNE01.JPG,AFNE01.JPG,AFNE01.JPG,AFNE01.JPG,AFNE01.JPG,,,,,0,0,0,1,,,,,,,,,,,,,,,,,,,AMNE16.jpg,AMSA18.jpg,AMSA03.jpg,AMNE08.jpg,AMNE16.jpg,MN,1,num_8,32,num_4,1.33345542825,,,2017_Mar_30_1352,60.0045227688,FEMA4ImagesEEG,001,100112,
AFNE01.JPG,AFNE01.JPG,AFNE01.JPG,AFNE01.JPG,AFNE01.JPG,AFNE01.JPG,,,,,0,1,1,6,,,,,,,,,,,,,,,,,,,AMSA03.jpg,AMNE19.jpg,AMNE13.jpg,AMSA15.jpg,AMSA15.jpg,MS,2,num_4,16,num_4,0.733295956394,,,2017_Mar_30_1352,60.0045227688,FEMA4ImagesEEG,001,100112,
AFNE01.JPG,AFNE01.JPG,AFNE01.JPG,AFNE01.JPG,AFNE01.JPG,AFNE01.JPG,,,,,0,2,2,7,,,,,,,,,,,,,,,,,,,AMSA05.jpg,AMNE06.jpg,AMSA08.jpg,AMNE15.jpg,AMSA08.jpg,MS,2,num_2,32,num_6,0.983420964796,,,2017_Mar_30_1352,60.0045227688,FEMA4ImagesEEG,001,100112,
AFNE01.JPG,AFNE01.JPG,AFNE01.JPG,AFNE01.JPG,AFNE01.JPG,AFNE01.JPG,,,,,0,3,3,9,,,,,,,,,,,,,,,,,,,AMSA16.jpg,AMSA19.jpg,AMNE12.jpg,AMNE09.jpg,AMSA19.jpg,MS,2,num_6,32,num_8,1.01673876378,,,2017_Mar_30_1352,60.0045227688,FEMA4ImagesEEG,001,100112,
AFNE01.JPG,AFNE01.JPG,AFNE01.JPG,AFNE01.JPG,AFNE01.JPG,AFNE01.JPG,,,,,0,4,4,2,,,,,,,,,,,,,,,,,,,AMSA18.jpg,AMNE06.jpg,AMSA05.jpg,AMNE16.jpg,AMNE06.jpg,MN,1,num_6,16,num_6,0.966793818632,,,2017_Mar_30_1352,60.0045227688,FEMA4ImagesEEG,001,100112,
AFNE01.JPG,AFNE01.JPG,AFNE01.JPG,AFNE01.JPG,AFNE01.JPG,AFNE01.JPG,,,,,0,5,5,5,,,,,,,,,,,,,,,,,,,AMNE12.jpg,AMSA04.jpg,AMNE01.jpg,AMSA01.jpg,AMNE01.jpg,MN,1,num_2,16,num_2,1.10010895529,,,2017_Mar_30_1352,60.0045227688,FEMA4ImagesEEG,001,100112,
AFNE01.JPG,AFNE01.JPG,AFNE01.JPG,AFNE01.JPG,AFNE01.JPG,AFNE01.JPG,,,,,0,6,6,3,,,,,,,,,,,,,,,,,,,AMSA07.jpg,AMNE12.jpg,AMSA08.jpg,AMNE15.jpg,AMSA08.jpg,MS,2,num_2,32,num_4,1.43338958034,,,2017_Mar_30_1352,60.0045227688,FEMA4ImagesEEG,001,100112,
AFNE01.JPG,AFNE01.JPG,AFNE01.JPG,AFNE01.JPG,AFNE01.JPG,AFNE01.JPG,,,,,0,7,7,0,,,,,,,,,,,,,,,,,,,AMSA01.jpg,AMNE19.jpg,AMSA06.jpg,AMNE18.jpg,AMNE19.jpg,MN,1,num_6,32,num_2,0.933488849318,,,2017_Mar_30_1352,60.0045227688,FEMA4ImagesEEG,001,100112,
AFNE01.JPG,AFNE01.JPG,AFNE01.JPG,AFNE01.JPG,AFNE01.JPG,AFNE01.JPG,,,,,0,8,8,8,,,,,,,,,,,,,,,,,,,AMNE19.jpg,AMNE17.jpg,AMSA07.jpg,AMSA08.jpg,AMSA08.jpg,MS,2,num_4,32,num_6,0.983452076558,,,2017_Mar_30_1352,60.0045227688,FEMA4ImagesEEG,001,100112,
AFNE01.JPG,AFNE01.JPG,AFNE01.JPG,AFNE01.JPG,AFNE01.JPG,AFNE01.JPG,,,,,0,9,9,4,,,,,,,,,,,,,,,,,,,AMSA04.jpg,AMNE16.jpg,AMSA11.jpg,AMNE08.jpg,AMSA04.jpg,MS,2,num_8,32,num_2,1.41677590529,,,2017_Mar_30_1352,60.0045227688,FEMA4ImagesEEG,001,100112,
AFNE01.JPG,AFNE01.JPG,AFNE01.JPG,AFNE01.JPG,AFNE01.JPG,AFNE01.JPG,,,,,1,0,10,3,,,,,,,,,,,,,,,,,,,AMSA10.jpg,AMNE08.jpg,AMSA05.jpg,AMNE09.jpg,AMSA05.jpg,MS,2,num_2,32,num_8,1.233463543,,,2017_Mar_30_1352,60.0045227688,FEMA4ImagesEEG,001,100112,
AFNE01.JPG,AFNE01.JPG,AFNE01.JPG,AFNE01.JPG,AFNE01.JPG,AFNE01.JPG,,,,,1,1,11,9,,,,,,,,,,,,,,,,,,,AMNE03.jpg,AMSA12.jpg,AMSA15.jpg,AMNE07.jpg,AMSA15.jpg,MS,2,num_2,16,num_2,1.18342686654,,,2017_Mar_30_1352,60.0045227688,FEMA4ImagesEEG,001,100112,
AFNE01.JPG,AFNE01.JPG,AFNE01.JPG,AFNE01.JPG,AFNE01.JPG,AFNE01.JPG,,,,,1,2,12,2,,,,,,,,,,,,,,,,,,,AMNE09.jpg,AMSA07.jpg,AMSA13.jpg,AMNE03.jpg,AMNE03.jpg,MN,1,num_4,16,num_4,1.18347112834,,,2017_Mar_30_1352,60.0045227688,FEMA4ImagesEEG,001,100112,
AFNE01.JPG,AFNE01.JPG,AFNE01.JPG,AFNE01.JPG,AFNE01.JPG,AFNE01.JPG,,,,,1,3,13,5,,,,,,,,,,,,,,,,,,,AMNE20.jpg,AMNE13.jpg,AMSA19.jpg,AMSA02.jpg,AMSA19.jpg,MS,2,num_2,16,num_2,1.14981013816,,,2017_Mar_30_1352,60.0045227688,FEMA4ImagesEEG,001,100112,
AFNE01.JPG,AFNE01.JPG,AFNE01.JPG,AFNE01.JPG,AFNE01.JPG,AFNE01.JPG,,,,,1,4,14,6,,,,,,,,,,,,,,,,,,,AMNE03.jpg,AMSA10.jpg,AMSA18.jpg,AMNE18.jpg,AMSA10.jpg,MS,2,num_6,32,num_2,2.31667625136,,,2017_Mar_30_1352,60.0045227688,FEMA4ImagesEEG,001,100112,
AFNE01.JPG,AFNE01.JPG,AFNE01.JPG,AFNE01.JPG,AFNE01.JPG,AFNE01.JPG,,,,,1,5,15,4,,,,,,,,,,,,,,,,,,,AMNE14.jpg,AMSA09.jpg,AMNE12.jpg,AMSA18.jpg,AMSA09.jpg,MS,2,num_6,16,num_6,2.38364413544,,,2017_Mar_30_1352,60.0045227688,FEMA4ImagesEEG,001,100112,
AFNE01.JPG,AFNE01.JPG,AFNE01.JPG,AFNE01.JPG,AFNE01.JPG,AFNE01.JPG,,,,,1,6,16,0,,,,,,,,,,,,,,,,,,,AMNE07.jpg,AMSA03.jpg,AMSA06.jpg,AMNE01.jpg,AMSA03.jpg,MS,2,num_6,16,num_6,1.50006655348,,,2017_Mar_30_1352,60.0045227688,FEMA4ImagesEEG,001,100112,
AFNE01.JPG,AFNE01.JPG,AFNE01.JPG,AFNE01.JPG,AFNE01.JPG,AFNE01.JPG,,,,,1,7,17,1,,,,,,,,,,,,,,,,,,,AMNE10.jpg,AMNE15.jpg,AMSA11.jpg,AMSA14.jpg,AMNE15.jpg,MN,1,num_6,16,num_6,0.58346240432,,,2017_Mar_30_1352,60.0045227688,FEMA4ImagesEEG,001,100112,
AFNE01.JPG,AFNE01.JPG,AFNE01.JPG,AFNE01.JPG,AFNE01.JPG,AFNE01.JPG,,,,,1,8,18,8,,,,,,,,,,,,,,,,,,,AMSA10.jpg,AMNE15.jpg,AMNE10.jpg,AMSA09.jpg,AMNE10.jpg,MN,1,num_2,16,num_2,0.83346617315,,,2017_Mar_30_1352,60.0045227688,FEMA4ImagesEEG,001,100112,
AFNE01.JPG,AFNE01.JPG,AFNE01.JPG,AFNE01.JPG,AFNE01.JPG,AFNE01.JPG,,,,,1,9,19,7,,,,,,,,,,,,,,,,,,,AMSA01.jpg,AMNE11.jpg,AMNE18.jpg,AMSA13.jpg,AMSA13.jpg,MS,2,num_4,32,num_2,1.5499435016,,,2017_Mar_30_1352,60.0045227688,FEMA4ImagesEEG,001,100112,
AFNE01.JPG,AFNE01.JPG,AFNE01.JPG,AFNE01.JPG,AFNE01.JPG,AFNE01.JPG,,,,,2,0,20,8,,,,,,,,,,,,,,,,,,,AMNE13.jpg,AMNE16.jpg,AMSA07.jpg,AMSA12.jpg,AMSA07.jpg,MS,2,num_2,32,num_4,1.1334065476,,,2017_Mar_30_1352,60.0045227688,FEMA4ImagesEEG,001,100112,
AFNE01.JPG,AFNE01.JPG,AFNE01.JPG,AFNE01.JPG,AFNE01.JPG,AFNE01.JPG,,,,,2,1,21,9,,,,,,,,,,,,,,,,,,,AMSA12.jpg,AMNE01.jpg,AMNE07.jpg,AMSA07.jpg,AMSA12.jpg,MS,2,num_8,16,num_8,0.900082526263,,,2017_Mar_30_1352,60.0045227688,FEMA4ImagesEEG,001,100112,
AFNE01.JPG,AFNE01.JPG,AFNE01.JPG,AFNE01.JPG,AFNE01.JPG,AFNE01.JPG,,,,,2,2,22,4,,,,,,,,,,,,,,,,,,,AMNE15.jpg,AMNE11.jpg,AMSA08.jpg,AMSA16.jpg,AMNE15.jpg,MN,1,num_8,32,num_2,1.19997511059,,,2017_Mar_30_1352,60.0045227688,FEMA4ImagesEEG,001,100112,
AFNE01.JPG,AFNE01.JPG,AFNE01.JPG,AFNE01.JPG,AFNE01.JPG,AFNE01.JPG,,,,,2,3,23,2,,,,,,,,,,,,,,,,,,,AMNE18.jpg,AMSA18.jpg,AMNE08.jpg,AMSA20.jpg,AMSA18.jpg,MS,2,num_6,16,num_6,0.466812581988,,,2017_Mar_30_1352,60.0045227688,FEMA4ImagesEEG,001,100112,
AFNE01.JPG,AFNE01.JPG,AFNE01.JPG,AFNE01.JPG,AFNE01.JPG,AFNE01.JPG,,,,,2,4,24,1,,,,,,,,,,,,,,,,,,,AMNE07.jpg,AMSA17.jpg,AMSA01.jpg,AMNE13.jpg,AMSA01.jpg,MS,2,num_2,16,num_2,0.566813447746,,,2017_Mar_30_1352,60.0045227688,FEMA4ImagesEEG,001,100112,
AFNE01.JPG,AFNE01.JPG,AFNE01.JPG,AFNE01.JPG,AFNE01.JPG,AFNE01.JPG,,,,,2,5,25,3,,,,,,,,,,,,,,,,,,,AMNE08.jpg,AMNE14.jpg,AMSA16.jpg,AMSA11.jpg,AMSA16.jpg,MS,2,num_2,32,num_8,1.21678668214,,,2017_Mar_30_1352,60.0045227688,FEMA4ImagesEEG,001,100112,
AFNE01.JPG,AFNE01.JPG,AFNE01.JPG,AFNE01.JPG,AFNE01.JPG,AFNE01.JPG,,,,,2,6,26,6,,,,,,,,,,,,,,,,,,,AMSA13.jpg,AMNE06.jpg,AMSA05.jpg,AMNE19.jpg,AMSA05.jpg,MS,2,num_2,32,num_4,1.23350203177,,,2017_Mar_30_1352,60.0045227688,FEMA4ImagesEEG,001,100112,
AFNE01.JPG,AFNE01.JPG,AFNE01.JPG,AFNE01.JPG,AFNE01.JPG,AFNE01.JPG,,,,,2,7,27,5,,,,,,,,,,,,,,,,,,,AMSA04.jpg,AMNE13.jpg,AMSA13.jpg,AMNE10.jpg,AMSA04.jpg,MS,2,num_8,16,num_8,0.61676961882,,,2017_Mar_30_1352,60.0045227688,FEMA4ImagesEEG,001,100112,
AFNE01.JPG,AFNE01.JPG,AFNE01.JPG,AFNE01.JPG,AFNE01.JPG,AFNE01.JPG,,,,,2,8,28,7,,,,,,,,,,,,,,,,,,,AMSA19.jpg,AMNE14.jpg,AMSA16.jpg,AMNE16.jpg,AMSA16.jpg,MS,2,num_2,16,num_2,1.48341278592,,,2017_Mar_30_1352,60.0045227688,FEMA4ImagesEEG,001,100112,
AFNE01.JPG,AFNE01.JPG,AFNE01.JPG,AFNE01.JPG,AFNE01.JPG,AFNE01.JPG,,,,,2,9,29,0,,,,,,,,,,,,,,,,,,,AMSA19.jpg,AMNE19.jpg,AMSA07.jpg,AMNE17.jpg,AMSA19.jpg,MS,2,num_8,32,num_4,1.00014497456,,,2017_Mar_30_1352,60.0045227688,FEMA4ImagesEEG,001,100112,
AFNE01.JPG,AFNE01.JPG,AFNE01.JPG,AFNE01.JPG,AFNE01.JPG,AFNE01.JPG,,,,,3,0,30,1,,,,,,,,,,,,,,,,,,,AMNE20.jpg,AMSA10.jpg,AMNE01.jpg,AMSA19.jpg,AMNE01.jpg,MN,1,num_2,16,num_2,1.75003921054,,,2017_Mar_30_1352,60.0045227688,FEMA4ImagesEEG,001,100112,
AFNE01.JPG,AFNE01.JPG,AFNE01.JPG,AFNE01.JPG,AFNE01.JPG,AFNE01.JPG,,,,,3,1,31,7,,,,,,,,,,,,,,,,,,,AMNE11.jpg,AMNE20.jpg,AMSA02.jpg,AMSA14.jpg,AMSA02.jpg,MS,2,num_2,32,num_4,1.43341684341,,,2017_Mar_30_1352,60.0045227688,FEMA4ImagesEEG,001,100112,
AFNE01.JPG,AFNE01.JPG,AFNE01.JPG,AFNE01.JPG,AFNE01.JPG,AFNE01.JPG,,,,,3,2,32,2,,,,,,,,,,,,,,,,,,,AMSA04.jpg,AMNE20.jpg,AMNE11.jpg,AMSA07.jpg,AMNE20.jpg,MN,1,num_6,16,num_6,0.783487229608,,,2017_Mar_30_1352,60.0045227688,FEMA4ImagesEEG,001,100112,
AFNE01.JPG,AFNE01.JPG,AFNE01.JPG,AFNE01.JPG,AFNE01.JPG,AFNE01.JPG,,,,,3,3,33,6,,,,,,,,,,,,,,,,,,,AMNE12.jpg,AMNE08.jpg,AMSA15.jpg,AMSA12.jpg,AMSA12.jpg,MS,2,num_4,32,num_2,1.90003601904,,,2017_Mar_30_1352,60.0045227688,FEMA4ImagesEEG,001,100112,
AFNE01.JPG,AFNE01.JPG,AFNE01.JPG,AFNE01.JPG,AFNE01.JPG,AFNE01.JPG,,,,,3,4,34,0,,,,,,,,,,,,,,,,,,,AMNE20.jpg,AMSA08.jpg,AMSA19.jpg,AMNE18.jpg,AMSA08.jpg,MS,2,num_6,32,num_8,1.06644732342,,,2017_Mar_30_1352,60.0045227688,FEMA4ImagesEEG,001,100112,
AFNE01.JPG,AFNE01.JPG,AFNE01.JPG,AFNE01.JPG,AFNE01.JPG,AFNE01.JPG,,,,,3,5,35,8,,,,,,,,,,,,,,,,,,,AMNE03.jpg,AMSA03.jpg,AMNE19.jpg,AMSA13.jpg,AMNE03.jpg,MN,1,num_8,32,num_4,2.51671037823,,,2017_Mar_30_1352,60.0045227688,FEMA4ImagesEEG,001,100112,
AFNE01.JPG,AFNE01.JPG,AFNE01.JPG,AFNE01.JPG,AFNE01.JPG,AFNE01.JPG,,,,,3,6,36,9,,,,,,,,,,,,,,,,,,,AMNE17.jpg,AMNE03.jpg,AMSA01.jpg,AMSA06.jpg,AMSA01.jpg,MS,2,num_2,16,num_2,0.633515117923,,,2017_Mar_30_1352,60.0045227688,FEMA4ImagesEEG,001,100112,
AFNE01.JPG,AFNE01.JPG,AFNE01.JPG,AFNE01.JPG,AFNE01.JPG,AFNE01.JPG,,,,,3,7,37,5,,,,,,,,,,,,,,,,,,,AMNE02.jpg,AMSA01.jpg,AMSA19.jpg,AMNE04.jpg,AMSA01.jpg,MS,2,num_6,16,num_6,0.600123228272,,,2017_Mar_30_1352,60.0045227688,FEMA4ImagesEEG,001,100112,
AFNE01.JPG,AFNE01.JPG,AFNE01.JPG,AFNE01.JPG,AFNE01.JPG,AFNE01.JPG,,,,,3,8,38,3,,,,,,,,,,,,,,,,,,,AMNE14.jpg,AMNE17.jpg,AMSA14.jpg,AMSA12.jpg,AMNE14.jpg,MN,1,num_8,16,num_8,0.850155863445,,,2017_Mar_30_1352,60.0045227688,FEMA4ImagesEEG,001,100112,
AFNE01.JPG,AFNE01.JPG,AFNE01.JPG,AFNE01.JPG,AFNE01.JPG,AFNE01.JPG,,,,,3,9,39,4,,,,,,,,,,,,,,,,,,,AMNE05.jpg,AMSA13.jpg,AMNE03.jpg,AMSA15.jpg,AMSA15.jpg,MS,2,num_4,16,num_4,1.13342932006,,,2017_Mar_30_1352,60.0045227688,FEMA4ImagesEEG,001,100112,
AFNE01.JPG,AFNE01.JPG,AFNE01.JPG,AFNE01.JPG,AFNE01.JPG,AFNE01.JPG,,,,,4,0,40,6,,,,,,,,,,,,,,,,,,,AMSA08.jpg,AMNE02.jpg,AMNE19.jpg,AMSA09.jpg,AMNE02.jpg,MN,1,num_6,32,num_8,0.733454080997,,,2017_Mar_30_1352,60.0045227688,FEMA4ImagesEEG,001,100112,
AFNE01.JPG,AFNE01.JPG,AFNE01.JPG,AFNE01.JPG,AFNE01.JPG,AFNE01.JPG,,,,,4,1,41,2,,,,,,,,,,,,,,,,,,,AMNE14.jpg,AMNE11.jpg,AMSA20.jpg,AMSA09.jpg,AMNE14.jpg,MN,1,num_8,32,num_2,1.03350479016,,,2017_Mar_30_1352,60.0045227688,FEMA4ImagesEEG,001,100112,
AFNE01.JPG,AFNE01.JPG,AFNE01.JPG,AFNE01.JPG,AFNE01.JPG,AFNE01.JPG,,,,,4,2,42,0,,,,,,,,,,,,,,,,,,,AMNE03.jpg,AMNE12.jpg,AMSA18.jpg,AMSA19.jpg,AMNE12.jpg,MN,1,num_6,16,num_6,1.55006794864,,,2017_Mar_30_1352,60.0045227688,FEMA4ImagesEEG,001,100112,
AFNE01.JPG,AFNE01.JPG,AFNE01.JPG,AFNE01.JPG,AFNE01.JPG,AFNE01.JPG,,,,,4,3,43,3,,,,,,,,,,,,,,,,,,,AMSA15.jpg,AMNE06.jpg,AMSA17.jpg,AMNE13.jpg,AMNE13.jpg,MN,1,num_4,32,num_6,0.616791428998,,,2017_Mar_30_1352,60.0045227688,FEMA4ImagesEEG,001,100112,
AFNE01.JPG,AFNE01.JPG,AFNE01.JPG,AFNE01.JPG,AFNE01.JPG,AFNE01.JPG,,,,,4,4,44,1,,,,,,,,,,,,,,,,,,,AMSA01.jpg,AMNE13.jpg,AMNE17.jpg,AMSA10.jpg,AMSA01.jpg,MS,2,num_8,16,num_8,1.38343918277,,,2017_Mar_30_1352,60.0045227688,FEMA4ImagesEEG,001,100112,
AFNE01.JPG,AFNE01.JPG,AFNE01.JPG,AFNE01.JPG,AFNE01.JPG,AFNE01.JPG,,,,,4,5,45,4,,,,,,,,,,,,,,,,,,,AMNE14.jpg,AMSA06.jpg,AMSA10.jpg,AMNE07.jpg,AMSA06.jpg,MS,2,num_6,16,num_6,0.683495344128,,,2017_Mar_30_1352,60.0045227688,FEMA4ImagesEEG,001,100112,
AFNE01.JPG,AFNE01.JPG,AFNE01.JPG,AFNE01.JPG,AFNE01.JPG,AFNE01.JPG,,,,,4,6,46,9,,,,,,,,,,,,,,,,,,,AMSA08.jpg,AMSA03.jpg,AMNE06.jpg,AMNE07.jpg,AMSA03.jpg,MS,2,num_6,16,num_6,0.800058246357,,,2017_Mar_30_1352,60.0045227688,FEMA4ImagesEEG,001,100112,
AFNE01.JPG,AFNE01.JPG,AFNE01.JPG,AFNE01.JPG,AFNE01.JPG,AFNE01.JPG,,,,,4,7,47,7,,,,,,,,,,,,,,,,,,,AMSA06.jpg,AMNE04.jpg,AMNE14.jpg,AMSA03.jpg,AMNE04.jpg,MN,1,num_6,32,num_2,1.18342173449,,,2017_Mar_30_1352,60.0045227688,FEMA4ImagesEEG,001,100112,
AFNE01.JPG,AFNE01.JPG,AFNE01.JPG,AFNE01.JPG,AFNE01.JPG,AFNE01.JPG,,,,,4,8,48,5,,,,,,,,,,,,,,,,,,,AMSA03.jpg,AMSA09.jpg,AMNE13.jpg,AMNE01.jpg,AMSA09.jpg,MS,2,num_6,32,num_8,1.18376460532,,,2017_Mar_30_1352,60.0045227688,FEMA4ImagesEEG,001,100112,
AFNE01.JPG,AFNE01.JPG,AFNE01.JPG,AFNE01.JPG,AFNE01.JPG,AFNE01.JPG,,,,,4,9,49,8,,,,,,,,,,,,,,,,,,,AMNE04.jpg,AMSA03.jpg,AMSA11.jpg,AMNE12.jpg,AMNE12.jpg,MN,1,num_4,32,num_6,1.53345844313,,,2017_Mar_30_1352,60.0045227688,FEMA4ImagesEEG,001,100112,
AFNE01.JPG,AFNE01.JPG,AFNE01.JPG,AFNE01.JPG,AFNE01.JPG,AFNE01.JPG,,,,,5,0,50,8,,,,,,,,,,,,,,,,,,,AMSA01.jpg,AMNE02.jpg,AMSA19.jpg,AMNE18.jpg,AMNE18.jpg,MN,1,num_4,32,num_6,1.1834364885,,,2017_Mar_30_1352,60.0045227688,FEMA4ImagesEEG,001,100112,
AFNE01.JPG,AFNE01.JPG,AFNE01.JPG,AFNE01.JPG,AFNE01.JPG,AFNE01.JPG,,,,,5,1,51,5,,,,,,,,,,,,,,,,,,,AMNE11.jpg,AMSA07.jpg,AMSA05.jpg,AMNE10.jpg,AMNE11.jpg,MN,1,num_8,16,num_8,1.08357097465,,,2017_Mar_30_1352,60.0045227688,FEMA4ImagesEEG,001,100112,
AFNE01.JPG,AFNE01.JPG,AFNE01.JPG,AFNE01.JPG,AFNE01.JPG,AFNE01.JPG,,,,,5,2,52,2,,,,,,,,,,,,,,,,,,,AMSA03.jpg,AMNE18.jpg,AMSA16.jpg,AMNE09.jpg,AMNE18.jpg,MN,1,num_6,32,num_2,1.33341533574,,,2017_Mar_30_1352,60.0045227688,FEMA4ImagesEEG,001,100112,
AFNE01.JPG,AFNE01.JPG,AFNE01.JPG,AFNE01.JPG,AFNE01.JPG,AFNE01.JPG,,,,,5,3,53,4,,,,,,,,,,,,,,,,,,,AMSA12.jpg,AMNE08.jpg,AMSA07.jpg,AMNE09.jpg,AMNE09.jpg,MN,1,num_4,16,num_4,0.716795502463,,,2017_Mar_30_1352,60.0045227688,FEMA4ImagesEEG,001,100112,
AFNE01.JPG,AFNE01.JPG,AFNE01.JPG,AFNE01.JPG,AFNE01.JPG,AFNE01.JPG,,,,,5,4,54,0,,,,,,,,,,,,,,,,,,,AMSA14.jpg,AMNE12.jpg,AMSA04.jpg,AMNE13.jpg,AMNE13.jpg,MN,1,num_4,16,num_4,1.30010427255,,,2017_Mar_30_1352,60.0045227688,FEMA4ImagesEEG,001,100112,
AFNE01.JPG,AFNE01.JPG,AFNE01.JPG,AFNE01.JPG,AFNE01.JPG,AFNE01.JPG,,,,,5,5,55,3,,,,,,,,,,,,,,,,,,,AMSA06.jpg,AMNE06.jpg,AMNE17.jpg,AMSA19.jpg,AMNE06.jpg,MN,1,num_6,32,num_2,1.05016112351,,,2017_Mar_30_1352,60.0045227688,FEMA4ImagesEEG,001,100112,
AFNE01.JPG,AFNE01.JPG,AFNE01.JPG,AFNE01.JPG,AFNE01.JPG,AFNE01.JPG,,,,,5,6,56,9,,,,,,,,,,,,,,,,,,,AMSA05.jpg,AMNE03.jpg,AMNE14.jpg,AMSA18.jpg,AMNE14.jpg,MN,1,num_2,32,num_8,1.50012364518,,,2017_Mar_30_1352,60.0045227688,FEMA4ImagesEEG,001,100112,
AFNE01.JPG,AFNE01.JPG,AFNE01.JPG,AFNE01.JPG,AFNE01.JPG,AFNE01.JPG,,,,,5,7,57,6,,,,,,,,,,,,,,,,,,,AMNE18.jpg,AMSA02.jpg,AMSA11.jpg,AMNE12.jpg,AMSA11.jpg,MS,2,num_2,32,num_6,1.25015291246,,,2017_Mar_30_1352,60.0045227688,FEMA4ImagesEEG,001,100112,
AFNE01.JPG,AFNE01.JPG,AFNE01.JPG,AFNE01.JPG,AFNE01.JPG,AFNE01.JPG,,,,,5,8,58,1,,,,,,,,,,,,,,,,,,,AMNE10.jpg,AMSA20.jpg,AMNE04.jpg,AMSA04.jpg,AMNE10.jpg,MN,1,num_8,16,num_8,1.01681028865,,,2017_Mar_30_1352,60.0045227688,FEMA4ImagesEEG,001,100112,
AFNE01.JPG,AFNE01.JPG,AFNE01.JPG,AFNE01.JPG,AFNE01.JPG,AFNE01.JPG,,,,,5,9,59,7,,,,,,,,,,,,,,,,,,,AMSA04.jpg,AMSA10.jpg,AMNE09.jpg,AMNE01.jpg,AMNE01.jpg,MN,1,num_4,16,num_4,0.983498904388,,,2017_Mar_30_1352,60.0045227688,FEMA4ImagesEEG,001,100112,
,,,,,,,,,,,,,,,,,,,,,,,,,,,,,,,,,,,,,,,,,,,space,6.44972517411,2017_Mar_30_1352,60.0045227688,FEMA4ImagesEEG,001,100112,
AFNE01.JPG,AFNE01.JPG,AFNE01.JPG,AFNE01.JPG,AFNE01.JPG,AFNE01.JPG,,,,,,,,,0,0,0,3,,,,,,,,,,,,,,,AFNE01.jpg,AFNE10.jpg,AFSA02.jpg,AFSA10.jpg,AFSA10.jpg,FS,4,num_4,16,num_4,1.1167126873,,,2017_Mar_30_1352,60.0045227688,FEMA4ImagesEEG,001,100112,
AFNE01.JPG,AFNE01.JPG,AFNE01.JPG,AFNE01.JPG,AFNE01.JPG,AFNE01.JPG,,,,,,,,,0,1,1,9,,,,,,,,,,,,,,,AFSA14.jpg,AFSA02.jpg,AFNE20.jpg,AFNE17.jpg,AFNE20.jpg,FN,3,num_2,32,num_6,1.31676958688,,,2017_Mar_30_1352,60.0045227688,FEMA4ImagesEEG,001,100112,
AFNE01.JPG,AFNE01.JPG,AFNE01.JPG,AFNE01.JPG,AFNE01.JPG,AFNE01.JPG,,,,,,,,,0,2,2,5,,,,,,,,,,,,,,,AFNE11.jpg,AFSA03.jpg,AFNE02.jpg,AFSA11.jpg,AFNE02.jpg,FN,3,num_2,16,num_2,1.56673647021,,,2017_Mar_30_1352,60.0045227688,FEMA4ImagesEEG,001,100112,
AFNE01.JPG,AFNE01.JPG,AFNE01.JPG,AFNE01.JPG,AFNE01.JPG,AFNE01.JPG,,,,,,,,,0,3,3,6,,,,,,,,,,,,,,,AFNE19.jpg,AFNE09.jpg,AFSA12.jpg,AFSA05.jpg,AFSA05.jpg,FS,4,num_4,16,num_4,0.900119090686,,,2017_Mar_30_1352,60.0045227688,FEMA4ImagesEEG,001,100112,
AFNE01.JPG,AFNE01.JPG,AFNE01.JPG,AFNE01.JPG,AFNE01.JPG,AFNE01.JPG,,,,,,,,,0,4,4,7,,,,,,,,,,,,,,,AFNE17.jpg,AFSA19.jpg,AFSA10.jpg,AFNE15.jpg,AFSA10.jpg,FS,4,num_2,32,num_8,0.950140692294,,,2017_Mar_30_1352,60.0045227688,FEMA4ImagesEEG,001,100112,
AFNE01.JPG,AFNE01.JPG,AFNE01.JPG,AFNE01.JPG,AFNE01.JPG,AFNE01.JPG,,,,,,,,,0,5,5,4,,,,,,,,,,,,,,,AFNE05.jpg,AFSA03.jpg,AFNE02.jpg,AFSA02.jpg,AFNE02.jpg,FN,3,num_2,32,num_8,0.983462981647,,,2017_Mar_30_1352,60.0045227688,FEMA4ImagesEEG,001,100112,
AFNE01.JPG,AFNE01.JPG,AFNE01.JPG,AFNE01.JPG,AFNE01.JPG,AFNE01.JPG,,,,,,,,,0,6,6,1,,,,,,,,,,,,,,,AFNE03.jpg,AFNE01.jpg,AFSA12.jpg,AFSA16.jpg,AFSA12.jpg,FS,4,num_2,16,num_2,0.716867027339,,,2017_Mar_30_1352,60.0045227688,FEMA4ImagesEEG,001,100112,
AFNE01.JPG,AFNE01.JPG,AFNE01.JPG,AFNE01.JPG,AFNE01.JPG,AFNE01.JPG,,,,,,,,,0,7,7,2,,,,,,,,,,,,,,,AFSA19.jpg,AFNE03.jpg,AFSA01.jpg,AFNE18.jpg,AFSA19.jpg,FS,4,num_8,16,num_8,1.20011848118,,,2017_Mar_30_1352,60.0045227688,FEMA4ImagesEEG,001,100112,
AFNE01.JPG,AFNE01.JPG,AFNE01.JPG,AFNE01.JPG,AFNE01.JPG,AFNE01.JPG,,,,,,,,,0,8,8,8,,,,,,,,,,,,,,,AFSA04.jpg,AFNE16.jpg,AFSA11.jpg,AFNE01.jpg,AFNE16.jpg,FN,3,num_6,32,num_4,1.15038714907,,,2017_Mar_30_1352,60.0045227688,FEMA4ImagesEEG,001,100112,
AFNE01.JPG,AFNE01.JPG,AFNE01.JPG,AFNE01.JPG,AFNE01.JPG,AFNE01.JPG,,,,,,,,,0,9,9,0,,,,,,,,,,,,,,,AFNE18.jpg,AFSA15.jpg,AFNE11.jpg,AFSA12.jpg,AFSA12.jpg,FS,4,num_4,16,num_4,0.900106902467,,,2017_Mar_30_1352,60.0045227688,FEMA4ImagesEEG,001,100112,
AFNE01.JPG,AFNE01.JPG,AFNE01.JPG,AFNE01.JPG,AFNE01.JPG,AFNE01.JPG,,,,,,,,,1,0,10,9,,,,,,,,,,,,,,,AFSA16.jpg,AFNE06.jpg,AFSA05.jpg,AFNE07.jpg,AFNE06.jpg,FN,3,num_6,32,num_8,1.36678381148,,,2017_Mar_30_1352,60.0045227688,FEMA4ImagesEEG,001,100112,
AFNE01.JPG,AFNE01.JPG,AFNE01.JPG,AFNE01.JPG,AFNE01.JPG,AFNE01.JPG,,,,,,,,,1,1,11,4,,,,,,,,,,,,,,,AFSA19.jpg,AFNE19.jpg,AFNE20.jpg,AFSA03.jpg,AFSA19.jpg,FS,4,num_8,16,num_8,1.25017536455,,,2017_Mar_30_1352,60.0045227688,FEMA4ImagesEEG,001,100112,
AFNE01.JPG,AFNE01.JPG,AFNE01.JPG,AFNE01.JPG,AFNE01.JPG,AFNE01.JPG,,,,,,,,,1,2,12,6,,,,,,,,,,,,,,,AFSA07.jpg,AFNE18.jpg,AFSA06.jpg,AFNE05.jpg,AFNE05.jpg,FN,3,num_4,32,num_6,0.550137870014,,,2017_Mar_30_1352,60.0045227688,FEMA4ImagesEEG,001,100112,
AFNE01.JPG,AFNE01.JPG,AFNE01.JPG,AFNE01.JPG,AFNE01.JPG,AFNE01.JPG,,,,,,,,,1,3,13,7,,,,,,,,,,,,,,,AFNE17.jpg,AFSA02.jpg,AFNE08.jpg,AFSA16.jpg,AFSA02.jpg,FS,4,num_6,32,num_2,1.31675258745,,,2017_Mar_30_1352,60.0045227688,FEMA4ImagesEEG,001,100112,
AFNE01.JPG,AFNE01.JPG,AFNE01.JPG,AFNE01.JPG,AFNE01.JPG,AFNE01.JPG,,,,,,,,,1,4,14,5,,,,,,,,,,,,,,,AFNE08.jpg,AFSA07.jpg,AFSA04.jpg,AFNE16.jpg,AFNE16.jpg,FN,3,num_4,32,num_8,1.03345347173,,,2017_Mar_30_1352,60.0045227688,FEMA4ImagesEEG,001,100112,
AFNE01.JPG,AFNE01.JPG,AFNE01.JPG,AFNE01.JPG,AFNE01.JPG,AFNE01.JPG,,,,,,,,,1,5,15,2,,,,,,,,,,,,,,,AFSA15.jpg,AFNE18.jpg,AFNE09.jpg,AFSA02.jpg,AFNE09.jpg,FN,3,num_2,32,num_8,1.40009808214,,,2017_Mar_30_1352,60.0045227688,FEMA4ImagesEEG,001,100112,
AFNE01.JPG,AFNE01.JPG,AFNE01.JPG,AFNE01.JPG,AFNE01.JPG,AFNE01.JPG,,,,,,,,,1,6,16,8,,,,,,,,,,,,,,,AFSA09.jpg,AFNE04.jpg,AFSA11.jpg,AFNE01.jpg,AFNE04.jpg,FN,3,num_6,32,num_4,1.23344846815,,,2017_Mar_30_1352,60.0045227688,FEMA4ImagesEEG,001,100112,
AFNE01.JPG,AFNE01.JPG,AFNE01.JPG,AFNE01.JPG,AFNE01.JPG,AFNE01.JPG,,,,,,,,,1,7,17,0,,,,,,,,,,,,,,,AFNE13.jpg,AFSA20.jpg,AFNE07.jpg,AFSA17.jpg,AFNE13.jpg,FN,3,num_8,32,num_6,0.783481776947,,,2017_Mar_30_1352,60.0045227688,FEMA4ImagesEEG,001,100112,
AFNE01.JPG,AFNE01.JPG,AFNE01.JPG,AFNE01.JPG,AFNE01.JPG,AFNE01.JPG,,,,,,,,,1,8,18,1,,,,,,,,,,,,,,,AFSA11.jpg,AFSA14.jpg,AFNE16.jpg,AFNE07.jpg,AFNE07.jpg,FN,3,num_4,16,num_4,0.950166672468,,,2017_Mar_30_1352,60.0045227688,FEMA4ImagesEEG,001,100112,
AFNE01.JPG,AFNE01.JPG,AFNE01.JPG,AFNE01.JPG,AFNE01.JPG,AFNE01.JPG,,,,,,,,,1,9,19,3,,,,,,,,,,,,,,,AFSA01.jpg,AFNE08.jpg,AFNE13.jpg,AFSA08.jpg,AFNE13.jpg,FN,3,num_2,32,num_8,1.13348448719,,,2017_Mar_30_1352,60.0045227688,FEMA4ImagesEEG,001,100112,
AFNE01.JPG,AFNE01.JPG,AFNE01.JPG,AFNE01.JPG,AFNE01.JPG,AFNE01.JPG,,,,,,,,,2,0,20,9,,,,,,,,,,,,,,,AFNE17.jpg,AFNE02.jpg,AFSA12.jpg,AFSA20.jpg,AFSA12.jpg,FS,4,num_2,16,num_2,0.800161845284,,,2017_Mar_30_1352,60.0045227688,FEMA4ImagesEEG,001,100112,
AFNE01.JPG,AFNE01.JPG,AFNE01.JPG,AFNE01.JPG,AFNE01.JPG,AFNE01.JPG,,,,,,,,,2,1,21,2,,,,,,,,,,,,,,,AFSA13.jpg,AFNE01.jpg,AFNE13.jpg,AFSA03.jpg,AFSA03.jpg,FS,4,num_4,32,num_6,0.933454209473,,,2017_Mar_30_1352,60.0045227688,FEMA4ImagesEEG,001,100112,
AFNE01.JPG,AFNE01.JPG,AFNE01.JPG,AFNE01.JPG,AFNE01.JPG,AFNE01.JPG,,,,,,,,,2,2,22,5,,,,,,,,,,,,,,,AFSA04.jpg,AFSA10.jpg,AFNE11.jpg,AFNE06.jpg,AFNE06.jpg,FN,3,num_4,16,num_4,1.0335063939,,,2017_Mar_30_1352,60.0045227688,FEMA4ImagesEEG,001,100112,
AFNE01.JPG,AFNE01.JPG,AFNE01.JPG,AFNE01.JPG,AFNE01.JPG,AFNE01.JPG,,,,,,,,,2,3,23,3,,,,,,,,,,,,,,,AFSA08.jpg,AFSA12.jpg,AFNE16.jpg,AFNE06.jpg,AFSA08.jpg,FS,4,num_8,16,num_8,1.40007402678,,,2017_Mar_30_1352,60.0045227688,FEMA4ImagesEEG,001,100112,
AFNE01.JPG,AFNE01.JPG,AFNE01.JPG,AFNE01.JPG,AFNE01.JPG,AFNE01.JPG,,,,,,,,,2,4,24,6,,,,,,,,,,,,,,,AFNE20.jpg,AFNE10.jpg,AFSA15.jpg,AFSA06.jpg,AFSA15.jpg,FS,4,num_2,16,num_2,0.716740655946,,,2017_Mar_30_1352,60.0045227688,FEMA4ImagesEEG,001,100112,
AFNE01.JPG,AFNE01.JPG,AFNE01.JPG,AFNE01.JPG,AFNE01.JPG,AFNE01.JPG,,,,,,,,,2,5,25,4,,,,,,,,,,,,,,,AFSA19.jpg,AFNE12.jpg,AFNE01.jpg,AFSA08.jpg,AFSA19.jpg,FS,4,num_8,16,num_8,1.21661187895,,,2017_Mar_30_1352,60.0045227688,FEMA4ImagesEEG,001,100112,
AFNE01.JPG,AFNE01.JPG,AFNE01.JPG,AFNE01.JPG,AFNE01.JPG,AFNE01.JPG,,,,,,,,,2,6,26,1,,,,,,,,,,,,,,,AFNE03.jpg,AFSA13.jpg,AFSA20.jpg,AFNE16.jpg,AFSA13.jpg,FS,4,num_6,32,num_2,1.55009200424,,,2017_Mar_30_1352,60.0045227688,FEMA4ImagesEEG,001,100112,
AFNE01.JPG,AFNE01.JPG,AFNE01.JPG,AFNE01.JPG,AFNE01.JPG,AFNE01.JPG,,,,,,,,,2,7,27,0,,,,,,,,,,,,,,,AFNE13.jpg,AFSA07.jpg,AFNE10.jpg,AFSA18.jpg,AFSA18.jpg,FS,4,num_4,32,num_8,1.38341384428,,,2017_Mar_30_1352,60.0045227688,FEMA4ImagesEEG,001,100112,
AFNE01.JPG,AFNE01.JPG,AFNE01.JPG,AFNE01.JPG,AFNE01.JPG,AFNE01.JPG,,,,,,,,,2,8,28,8,,,,,,,,,,,,,,,AFNE08.jpg,AFSA03.jpg,AFNE16.jpg,AFSA14.jpg,AFSA14.jpg,FS,4,num_4,16,num_4,0.783467022935,,,2017_Mar_30_1352,60.0045227688,FEMA4ImagesEEG,001,100112,
AFNE01.JPG,AFNE01.JPG,AFNE01.JPG,AFNE01.JPG,AFNE01.JPG,AFNE01.JPG,,,,,,,,,2,9,29,7,,,,,,,,,,,,,,,AFSA20.jpg,AFNE14.jpg,AFNE19.jpg,AFSA17.jpg,AFSA20.jpg,FS,4,num_8,16,num_8,1.05019897083,,,2017_Mar_30_1352,60.0045227688,FEMA4ImagesEEG,001,100112,
AFNE01.JPG,AFNE01.JPG,AFNE01.JPG,AFNE01.JPG,AFNE01.JPG,AFNE01.JPG,,,,,,,,,3,0,30,9,,,,,,,,,,,,,,,AFNE07.jpg,AFNE17.jpg,AFSA04.jpg,AFSA08.jpg,AFSA04.jpg,FS,4,num_2,32,num_4,0.916887041647,,,2017_Mar_30_1352,60.0045227688,FEMA4ImagesEEG,001,100112,
AFNE01.JPG,AFNE01.JPG,AFNE01.JPG,AFNE01.JPG,AFNE01.JPG,AFNE01.JPG,,,,,,,,,3,1,31,0,,,,,,,,,,,,,,,AFNE07.jpg,AFNE19.jpg,AFSA07.jpg,AFSA03.jpg,AFNE07.jpg,FN,3,num_8,32,num_6,1.00019372674,,,2017_Mar_30_1352,60.0045227688,FEMA4ImagesEEG,001,100112,
AFNE01.JPG,AFNE01.JPG,AFNE01.JPG,AFNE01.JPG,AFNE01.JPG,AFNE01.JPG,,,,,,,,,3,2,32,4,,,,,,,,,,,,,,,AFNE19.jpg,AFSA17.jpg,AFNE09.jpg,AFSA13.jpg,AFSA17.jpg,FS,4,num_6,32,num_4,0.866945945425,,,2017_Mar_30_1352,60.0045227688,FEMA4ImagesEEG,001,100112,
AFNE01.JPG,AFNE01.JPG,AFNE01.JPG,AFNE01.JPG,AFNE01.JPG,AFNE01.JPG,,,,,,,,,3,3,33,7,,,,,,,,,,,,,,,AFSA16.jpg,AFSA13.jpg,AFNE12.jpg,AFNE07.jpg,AFSA13.jpg,FS,4,num_6,32,num_8,0.966785479337,,,2017_Mar_30_1352,60.0045227688,FEMA4ImagesEEG,001,100112,
AFNE01.JPG,AFNE01.JPG,AFNE01.JPG,AFNE01.JPG,AFNE01.JPG,AFNE01.JPG,,,,,,,,,3,4,34,1,,,,,,,,,,,,,,,AFSA14.jpg,AFSA08.jpg,AFNE03.jpg,AFNE06.jpg,AFSA14.jpg,FS,4,num_8,32,num_6,1.3500761597,,,2017_Mar_30_1352,60.0045227688,FEMA4ImagesEEG,001,100112,
AFNE01.JPG,AFNE01.JPG,AFNE01.JPG,AFNE01.JPG,AFNE01.JPG,AFNE01.JPG,,,,,,,,,3,5,35,3,,,,,,,,,,,,,,,AFSA05.jpg,AFSA20.jpg,AFNE20.jpg,AFNE06.jpg,AFSA05.jpg,FS,4,num_8,16,num_8,0.933516753605,,,2017_Mar_30_1352,60.0045227688,FEMA4ImagesEEG,001,100112,
AFNE01.JPG,AFNE01.JPG,AFNE01.JPG,AFNE01.JPG,AFNE01.JPG,AFNE01.JPG,,,,,,,,,3,6,36,8,,,,,,,,,,,,,,,AFSA01.jpg,AFNE17.jpg,AFSA03.jpg,AFNE03.jpg,AFSA03.jpg,FS,4,num_2,32,num_8,1.60012675636,,,2017_Mar_30_1352,60.0045227688,FEMA4ImagesEEG,001,100112,
AFNE01.JPG,AFNE01.JPG,AFNE01.JPG,AFNE01.JPG,AFNE01.JPG,AFNE01.JPG,,,,,,,,,3,7,37,5,,,,,,,,,,,,,,,AFNE12.jpg,AFSA13.jpg,AFNE13.jpg,AFSA01.jpg,AFNE12.jpg,FN,3,num_8,16,num_8,1.0167554419,,,2017_Mar_30_1352,60.0045227688,FEMA4ImagesEEG,001,100112,
AFNE01.JPG,AFNE01.JPG,AFNE01.JPG,AFNE01.JPG,AFNE01.JPG,AFNE01.JPG,,,,,,,,,3,8,38,6,,,,,,,,,,,,,,,AFNE16.jpg,AFNE02.jpg,AFSA13.jpg,AFSA11.jpg,AFNE16.jpg,FN,3,num_8,32,num_2,1.06687903916,,,2017_Mar_30_1352,60.0045227688,FEMA4ImagesEEG,001,100112,
AFNE01.JPG,AFNE01.JPG,AFNE01.JPG,AFNE01.JPG,AFNE01.JPG,AFNE01.JPG,,,,,,,,,3,9,39,2,,,,,,,,,,,,,,,AFSA10.jpg,AFNE05.jpg,AFNE08.jpg,AFSA04.jpg,AFSA04.jpg,FS,4,num_4,32,num_8,0.850146882702,,,2017_Mar_30_1352,60.0045227688,FEMA4ImagesEEG,001,100112,
AFNE01.JPG,AFNE01.JPG,AFNE01.JPG,AFNE01.JPG,AFNE01.JPG,AFNE01.JPG,,,,,,,,,4,0,40,0,,,,,,,,,,,,,,,AFNE15.jpg,AFNE10.jpg,AFSA08.jpg,AFSA13.jpg,AFSA13.jpg,FS,4,num_4,16,num_4,1.06680142018,,,2017_Mar_30_1352,60.0045227688,FEMA4ImagesEEG,001,100112,
AFNE01.JPG,AFNE01.JPG,AFNE01.JPG,AFNE01.JPG,AFNE01.JPG,AFNE01.JPG,,,,,,,,,4,1,41,6,,,,,,,,,,,,,,,AFNE17.jpg,AFNE02.jpg,AFSA20.jpg,AFSA03.jpg,AFNE17.jpg,FN,3,num_8,16,num_8,0.916768688709,,,2017_Mar_30_1352,60.0045227688,FEMA4ImagesEEG,001,100112,
AFNE01.JPG,AFNE01.JPG,AFNE01.JPG,AFNE01.JPG,AFNE01.JPG,AFNE01.JPG,,,,,,,,,4,2,42,3,,,,,,,,,,,,,,,AFSA01.jpg,AFNE06.jpg,AFNE02.jpg,AFSA13.jpg,AFNE06.jpg,FN,3,num_6,16,num_6,0.9667838756,,,2017_Mar_30_1352,60.0045227688,FEMA4ImagesEEG,001,100112,
AFNE01.JPG,AFNE01.JPG,AFNE01.JPG,AFNE01.JPG,AFNE01.JPG,AFNE01.JPG,,,,,,,,,4,3,43,9,,,,,,,,,,,,,,,AFNE14.jpg,AFSA18.jpg,AFNE08.jpg,AFSA03.jpg,AFNE08.jpg,FN,3,num_2,32,num_8,1.35010534688,,,2017_Mar_30_1352,60.0045227688,FEMA4ImagesEEG,001,100112,
AFNE01.JPG,AFNE01.JPG,AFNE01.JPG,AFNE01.JPG,AFNE01.JPG,AFNE01.JPG,,,,,,,,,4,4,44,7,,,,,,,,,,,,,,,AFSA11.jpg,AFSA06.jpg,AFNE13.jpg,AFNE06.jpg,AFNE06.jpg,FN,3,num_4,16,num_4,1.4167688489,,,2017_Mar_30_1352,60.0045227688,FEMA4ImagesEEG,001,100112,
AFNE01.JPG,AFNE01.JPG,AFNE01.JPG,AFNE01.JPG,AFNE01.JPG,AFNE01.JPG,,,,,,,,,4,5,45,8,,,,,,,,,,,,,,,AFSA20.jpg,AFSA10.jpg,AFNE18.jpg,AFNE14.jpg,AFSA10.jpg,FS,4,num_6,32,num_2,1.13341969787,,,2017_Mar_30_1352,60.0045227688,FEMA4ImagesEEG,001,100112,
AFNE01.JPG,AFNE01.JPG,AFNE01.JPG,AFNE01.JPG,AFNE01.JPG,AFNE01.JPG,,,,,,,,,4,6,46,2,,,,,,,,,,,,,,,AFSA16.jpg,AFSA02.jpg,AFNE13.jpg,AFNE04.jpg,AFSA02.jpg,FS,4,num_6,32,num_8,0.916775744874,,,2017_Mar_30_1352,60.0045227688,FEMA4ImagesEEG,001,100112,
AFNE01.JPG,AFNE01.JPG,AFNE01.JPG,AFNE01.JPG,AFNE01.JPG,AFNE01.JPG,,,,,,,,,4,7,47,4,,,,,,,,,,,,,,,AFSA08.jpg,AFNE14.jpg,AFNE05.jpg,AFSA07.jpg,AFNE05.jpg,FN,3,num_2,32,num_6,1.38343757926,,,2017_Mar_30_1352,60.0045227688,FEMA4ImagesEEG,001,100112,
AFNE01.JPG,AFNE01.JPG,AFNE01.JPG,AFNE01.JPG,AFNE01.JPG,AFNE01.JPG,,,,,,,,,4,8,48,5,,,,,,,,,,,,,,,AFSA07.jpg,AFNE13.jpg,AFNE05.jpg,AFSA16.jpg,AFNE13.jpg,FN,3,num_6,32,num_2,1.24984885147,,,2017_Mar_30_1352,60.0045227688,FEMA4ImagesEEG,001,100112,
AFNE01.JPG,AFNE01.JPG,AFNE01.JPG,AFNE01.JPG,AFNE01.JPG,AFNE01.JPG,,,,,,,,,4,9,49,1,,,,,,,,,,,,,,,AFNE04.jpg,AFSA09.jpg,AFNE10.jpg,AFSA03.jpg,AFNE10.jpg,FN,3,num_2,16,num_2,0.983469396364,,,2017_Mar_30_1352,60.0045227688,FEMA4ImagesEEG,001,100112,
AFNE01.JPG,AFNE01.JPG,AFNE01.JPG,AFNE01.JPG,AFNE01.JPG,AFNE01.JPG,,,,,,,,,5,0,50,4,,,,,,,,,,,,,,,AFNE17.jpg,AFNE01.jpg,AFSA02.jpg,AFSA14.jpg,AFSA02.jpg,FS,4,num_2,32,num_8,2.73328922084,,,2017_Mar_30_1352,60.0045227688,FEMA4ImagesEEG,001,100112,
AFNE01.JPG,AFNE01.JPG,AFNE01.JPG,AFNE01.JPG,AFNE01.JPG,AFNE01.JPG,,,,,,,,,5,1,51,7,,,,,,,,,,,,,,,AFNE10.jpg,AFNE19.jpg,AFSA13.jpg,AFSA10.jpg,AFNE10.jpg,FN,3,num_8,32,num_6,0.8167655773,,,2017_Mar_30_1352,60.0045227688,FEMA4ImagesEEG,001,100112,
AFNE01.JPG,AFNE01.JPG,AFNE01.JPG,AFNE01.JPG,AFNE01.JPG,AFNE01.JPG,,,,,,,,,5,2,52,5,,,,,,,,,,,,,,,AFSA17.jpg,AFSA11.jpg,AFNE17.jpg,AFNE20.jpg,AFSA11.jpg,FS,4,num_6,16,num_6,0.60014503845,,,2017_Mar_30_1352,60.0045227688,FEMA4ImagesEEG,001,100112,
AFNE01.JPG,AFNE01.JPG,AFNE01.JPG,AFNE01.JPG,AFNE01.JPG,AFNE01.JPG,,,,,,,,,5,3,53,8,,,,,,,,,,,,,,,AFSA10.jpg,AFSA20.jpg,AFNE11.jpg,AFNE07.jpg,AFSA10.jpg,FS,4,num_8,32,num_4,0.800114696613,,,2017_Mar_30_1352,60.0045227688,FEMA4ImagesEEG,001,100112,
AFNE01.JPG,AFNE01.JPG,AFNE01.JPG,AFNE01.JPG,AFNE01.JPG,AFNE01.JPG,,,,,,,,,5,4,54,6,,,,,,,,,,,,,,,AFNE20.jpg,AFSA05.jpg,AFNE05.jpg,AFSA10.jpg,AFNE05.jpg,FN,3,num_2,16,num_2,2.49998701015,,,2017_Mar_30_1352,60.0045227688,FEMA4ImagesEEG,001,100112,
AFNE01.JPG,AFNE01.JPG,AFNE01.JPG,AFNE01.JPG,AFNE01.JPG,AFNE01.JPG,,,,,,,,,5,5,55,1,,,,,,,,,,,,,,,AFNE06.jpg,AFSA20.jpg,AFSA05.jpg,AFNE02.jpg,AFSA05.jpg,FS,4,num_2,32,num_4,2.83333787718,,,2017_Mar_30_1352,60.0045227688,FEMA4ImagesEEG,001,100112,
AFNE01.JPG,AFNE01.JPG,AFNE01.JPG,AFNE01.JPG,AFNE01.JPG,AFNE01.JPG,,,,,,,,,5,6,56,9,,,,,,,,,,,,,,,AFSA01.jpg,AFNE08.jpg,AFNE16.jpg,AFSA15.jpg,AFSA01.jpg,FS,4,num_8,32,num_2,0.949983850587,,,2017_Mar_30_1352,60.0045227688,FEMA4ImagesEEG,001,100112,
AFNE01.JPG,AFNE01.JPG,AFNE01.JPG,AFNE01.JPG,AFNE01.JPG,AFNE01.JPG,,,,,,,,,5,7,57,3,,,,,,,,,,,,,,,AFNE03.jpg,AFNE14.jpg,AFSA15.jpg,AFSA03.jpg,AFNE14.jpg,FN,3,num_6,16,num_6,0.783484022133,,,2017_Mar_30_1352,60.0045227688,FEMA4ImagesEEG,001,100112,
AFNE01.JPG,AFNE01.JPG,AFNE01.JPG,AFNE01.JPG,AFNE01.JPG,AFNE01.JPG,,,,,,,,,5,8,58,2,,,,,,,,,,,,,,,AFNE04.jpg,AFSA01.jpg,AFNE01.jpg,AFSA02.jpg,AFNE04.jpg,FN,3,num_8,16,num_8,1.06676228996,,,2017_Mar_30_1352,60.0045227688,FEMA4ImagesEEG,001,100112,
AFNE01.JPG,AFNE01.JPG,AFNE01.JPG,AFNE01.JPG,AFNE01.JPG,AFNE01.JPG,,,,,,,,,5,9,59,0,,,,,,,,,,,,,,,AFSA09.jpg,AFNE01.jpg,AFNE05.jpg,AFSA02.jpg,AFSA02.jpg,FS,4,num_4,32,num_6,0.683521965751,,,2017_Mar_30_1352,60.0045227688,FEMA4ImagesEEG,001,100112,
,,,,,,,,,,,,,,,,,,,,,,,,,,,,,,,,,,,,,,,,,,,space,11.1830076596,2017_Mar_30_1352,60.0045227688,FEMA4ImagesEEG,001,100112,
AFNE01.JPG,AFNE01.JPG,AFNE01.JPG,AFNE01.JPG,AFNE01.JPG,AFNE01.JPG,,,,,,,,,,,,,0,0,0,8,,,,,,,,,,,AMSA01.jpg,AMNE09.jpg,AMSA19.jpg,AMNE12.jpg,AMSA01.jpg,MS,2,num_8,32,num_6,1.8834284381,,,2017_Mar_30_1352,60.0045227688,FEMA4ImagesEEG,001,100112,
AFNE01.JPG,AFNE01.JPG,AFNE01.JPG,AFNE01.JPG,AFNE01.JPG,AFNE01.JPG,,,,,,,,,,,,,0,1,1,5,,,,,,,,,,,AMSA16.jpg,AMNE04.jpg,AMSA11.jpg,AMNE18.jpg,AMSA16.jpg,MS,2,num_8,32,num_2,0.883480397752,,,2017_Mar_30_1352,60.0045227688,FEMA4ImagesEEG,001,100112,
AFNE01.JPG,AFNE01.JPG,AFNE01.JPG,AFNE01.JPG,AFNE01.JPG,AFNE01.JPG,,,,,,,,,,,,,0,2,2,2,,,,,,,,,,,AMSA05.jpg,AMNE08.jpg,AMSA03.jpg,AMNE12.jpg,AMSA05.jpg,MS,2,num_8,16,num_8,0.733452156652,,,2017_Mar_30_1352,60.0045227688,FEMA4ImagesEEG,001,100112,
AFNE01.JPG,AFNE01.JPG,AFNE01.JPG,AFNE01.JPG,AFNE01.JPG,AFNE01.JPG,,,,,,,,,,,,,0,3,3,7,,,,,,,,,,,AMNE05.jpg,AMNE13.jpg,AMSA16.jpg,AMSA20.jpg,AMNE05.jpg,MN,1,num_8,16,num_8,0.966774574248,,,2017_Mar_30_1352,60.0045227688,FEMA4ImagesEEG,001,100112,
AFNE01.JPG,AFNE01.JPG,AFNE01.JPG,AFNE01.JPG,AFNE01.JPG,AFNE01.JPG,,,,,,,,,,,,,0,4,4,1,,,,,,,,,,,AMNE06.jpg,AMSA11.jpg,AMNE12.jpg,AMSA16.jpg,AMNE06.jpg,MN,1,num_8,32,num_4,1.25010255654,,,2017_Mar_30_1352,60.0045227688,FEMA4ImagesEEG,001,100112,
AFNE01.JPG,AFNE01.JPG,AFNE01.JPG,AFNE01.JPG,AFNE01.JPG,AFNE01.JPG,,,,,,,,,,,,,0,5,5,9,,,,,,,,,,,AMNE01.jpg,AMSA02.jpg,AMNE18.jpg,AMSA09.jpg,AMNE18.jpg,MN,1,num_2,32,num_8,1.0834365848,,,2017_Mar_30_1352,60.0045227688,FEMA4ImagesEEG,001,100112,
AFNE01.JPG,AFNE01.JPG,AFNE01.JPG,AFNE01.JPG,AFNE01.JPG,AFNE01.JPG,,,,,,,,,,,,,0,6,6,6,,,,,,,,,,,AMSA14.jpg,AMSA18.jpg,AMNE09.jpg,AMNE13.jpg,AMNE13.jpg,MN,1,num_4,16,num_4,0.900168484543,,,2017_Mar_30_1352,60.0045227688,FEMA4ImagesEEG,001,100112,
AFNE01.JPG,AFNE01.JPG,AFNE01.JPG,AFNE01.JPG,AFNE01.JPG,AFNE01.JPG,,,,,,,,,,,,,0,7,7,3,,,,,,,,,,,AMNE03.jpg,AMNE15.jpg,AMSA17.jpg,AMSA12.jpg,AMNE15.jpg,MN,1,num_6,16,num_6,0.833465852309,,,2017_Mar_30_1352,60.0045227688,FEMA4ImagesEEG,001,100112,
AFNE01.JPG,AFNE01.JPG,AFNE01.JPG,AFNE01.JPG,AFNE01.JPG,AFNE01.JPG,,,,,,,,,,,,,0,8,8,4,,,,,,,,,,,AMNE08.jpg,AMSA10.jpg,AMNE11.jpg,AMSA04.jpg,AMSA10.jpg,MS,2,num_6,16,num_6,1.01682985364,,,2017_Mar_30_1352,60.0045227688,FEMA4ImagesEEG,001,100112,
AFNE01.JPG,AFNE01.JPG,AFNE01.JPG,AFNE01.JPG,AFNE01.JPG,AFNE01.JPG,,,,,,,,,,,,,0,9,9,0,,,,,,,,,,,AMSA20.jpg,AMNE05.jpg,AMNE17.jpg,AMSA05.jpg,AMNE17.jpg,MN,1,num_2,32,num_6,1.00013727671,,,2017_Mar_30_1352,60.0045227688,FEMA4ImagesEEG,001,100112,
AFNE01.JPG,AFNE01.JPG,AFNE01.JPG,AFNE01.JPG,AFNE01.JPG,AFNE01.JPG,,,,,,,,,,,,,1,0,10,8,,,,,,,,,,,AMSA09.jpg,AMSA15.jpg,AMNE09.jpg,AMNE01.jpg,AMNE09.jpg,MN,1,num_2,16,num_2,0.983475169633,,,2017_Mar_30_1352,60.0045227688,FEMA4ImagesEEG,001,100112,
AFNE01.JPG,AFNE01.JPG,AFNE01.JPG,AFNE01.JPG,AFNE01.JPG,AFNE01.JPG,,,,,,,,,,,,,1,1,11,0,,,,,,,,,,,AMSA08.jpg,AMSA05.jpg,AMNE04.jpg,AMNE20.jpg,AMNE20.jpg,MN,1,num_4,16,num_4,0.883478473406,,,2017_Mar_30_1352,60.0045227688,FEMA4ImagesEEG,001,100112,
AFNE01.JPG,AFNE01.JPG,AFNE01.JPG,AFNE01.JPG,AFNE01.JPG,AFNE01.JPG,,,,,,,,,,,,,1,2,12,4,,,,,,,,,,,AMNE12.jpg,AMNE15.jpg,AMSA07.jpg,AMSA03.jpg,AMSA07.jpg,MS,2,num_2,32,num_4,0.91680589458,,,2017_Mar_30_1352,60.0045227688,FEMA4ImagesEEG,001,100112,
AFNE01.JPG,AFNE01.JPG,AFNE01.JPG,AFNE01.JPG,AFNE01.JPG,AFNE01.JPG,,,,,,,,,,,,,1,3,13,1,,,,,,,,,,,AMNE10.jpg,AMNE12.jpg,AMSA13.jpg,AMSA07.jpg,AMSA07.jpg,MS,2,num_4,16,num_4,0.783553943504,,,2017_Mar_30_1352,60.0045227688,FEMA4ImagesEEG,001,100112,
AFNE01.JPG,AFNE01.JPG,AFNE01.JPG,AFNE01.JPG,AFNE01.JPG,AFNE01.JPG,,,,,,,,,,,,,1,4,14,5,,,,,,,,,,,AMSA14.jpg,AMNE01.jpg,AMSA18.jpg,AMNE18.jpg,AMSA14.jpg,MS,2,num_8,16,num_8,1.00011803233,,,2017_Mar_30_1352,60.0045227688,FEMA4ImagesEEG,001,100112,
AFNE01.JPG,AFNE01.JPG,AFNE01.JPG,AFNE01.JPG,AFNE01.JPG,AFNE01.JPG,,,,,,,,,,,,,1,5,15,2,,,,,,,,,,,AMSA01.jpg,AMSA06.jpg,AMNE03.jpg,AMNE10.jpg,AMSA06.jpg,MS,2,num_6,32,num_4,0.96677906462,,,2017_Mar_30_1352,60.0045227688,FEMA4ImagesEEG,001,100112,
AFNE01.JPG,AFNE01.JPG,AFNE01.JPG,AFNE01.JPG,AFNE01.JPG,AFNE01.JPG,,,,,,,,,,,,,1,6,16,6,,,,,,,,,,,AMSA02.jpg,AMSA15.jpg,AMNE05.jpg,AMNE03.jpg,AMNE03.jpg,MN,1,num_4,32,num_2,3.1001237093,,,2017_Mar_30_1352,60.0045227688,FEMA4ImagesEEG,001,100112,
AFNE01.JPG,AFNE01.JPG,AFNE01.JPG,AFNE01.JPG,AFNE01.JPG,AFNE01.JPG,,,,,,,,,,,,,1,7,17,3,,,,,,,,,,,AMNE02.jpg,AMSA03.jpg,AMNE11.jpg,AMSA18.jpg,AMSA18.jpg,MS,2,num_4,16,num_4,0.800183014246,,,2017_Mar_30_1352,60.0045227688,FEMA4ImagesEEG,001,100112,
AFNE01.JPG,AFNE01.JPG,AFNE01.JPG,AFNE01.JPG,AFNE01.JPG,AFNE01.JPG,,,,,,,,,,,,,1,8,18,9,,,,,,,,,,,AMNE10.jpg,AMSA16.jpg,AMSA02.jpg,AMNE20.jpg,AMNE20.jpg,MN,1,num_4,32,num_6,1.05013642646,,,2017_Mar_30_1352,60.0045227688,FEMA4ImagesEEG,001,100112,
AFNE01.JPG,AFNE01.JPG,AFNE01.JPG,AFNE01.JPG,AFNE01.JPG,AFNE01.JPG,,,,,,,,,,,,,1,9,19,7,,,,,,,,,,,AMNE12.jpg,AMSA19.jpg,AMNE13.jpg,AMSA11.jpg,AMSA19.jpg,MS,2,num_6,32,num_4,0.983487037243,,,2017_Mar_30_1352,60.0045227688,FEMA4ImagesEEG,001,100112,
AFNE01.JPG,AFNE01.JPG,AFNE01.JPG,AFNE01.JPG,AFNE01.JPG,AFNE01.JPG,,,,,,,,,,,,,2,0,20,8,,,,,,,,,,,AMNE17.jpg,AMSA11.jpg,AMSA10.jpg,AMNE01.jpg,AMSA10.jpg,MS,2,num_2,16,num_2,0.683497268707,,,2017_Mar_30_1352,60.0045227688,FEMA4ImagesEEG,001,100112,
AFNE01.JPG,AFNE01.JPG,AFNE01.JPG,AFNE01.JPG,AFNE01.JPG,AFNE01.JPG,,,,,,,,,,,,,2,1,21,2,,,,,,,,,,,AMNE10.jpg,AMSA14.jpg,AMSA10.jpg,AMNE15.jpg,AMNE15.jpg,MN,1,num_4,32,num_8,1.01676570578,,,2017_Mar_30_1352,60.0045227688,FEMA4ImagesEEG,001,100112,
AFNE01.JPG,AFNE01.JPG,AFNE01.JPG,AFNE01.JPG,AFNE01.JPG,AFNE01.JPG,,,,,,,,,,,,,2,2,22,1,,,,,,,,,,,AMNE08.jpg,AMSA03.jpg,AMSA11.jpg,AMNE02.jpg,AMSA11.jpg,MS,2,num_2,16,num_2,1.00014016335,,,2017_Mar_30_1352,60.0045227688,FEMA4ImagesEEG,001,100112,
AFNE01.JPG,AFNE01.JPG,AFNE01.JPG,AFNE01.JPG,AFNE01.JPG,AFNE01.JPG,,,,,,,,,,,,,2,3,23,9,,,,,,,,,,,AMNE14.jpg,AMNE04.jpg,AMSA20.jpg,AMSA18.jpg,AMSA18.jpg,MS,2,num_4,16,num_4,0.800127205439,,,2017_Mar_30_1352,60.0045227688,FEMA4ImagesEEG,001,100112,
AFNE01.JPG,AFNE01.JPG,AFNE01.JPG,AFNE01.JPG,AFNE01.JPG,AFNE01.JPG,,,,,,,,,,,,,2,4,24,7,,,,,,,,,,,AMNE14.jpg,AMNE19.jpg,AMSA16.jpg,AMSA13.jpg,AMNE14.jpg,MN,1,num_8,16,num_8,1.06676581805,,,2017_Mar_30_1352,60.0045227688,FEMA4ImagesEEG,001,100112,
AFNE01.JPG,AFNE01.JPG,AFNE01.JPG,AFNE01.JPG,AFNE01.JPG,AFNE01.JPG,,,,,,,,,,,,,2,5,25,6,,,,,,,,,,,AMSA04.jpg,AMNE18.jpg,AMSA06.jpg,AMNE03.jpg,AMSA06.jpg,MS,2,num_2,32,num_4,0.883298538392,,,2017_Mar_30_1352,60.0045227688,FEMA4ImagesEEG,001,100112,
AFNE01.JPG,AFNE01.JPG,AFNE01.JPG,AFNE01.JPG,AFNE01.JPG,AFNE01.JPG,,,,,,,,,,,,,2,6,26,5,,,,,,,,,,,AMSA10.jpg,AMSA18.jpg,AMNE03.jpg,AMNE16.jpg,AMNE03.jpg,MN,1,num_2,16,num_2,0.833432174521,,,2017_Mar_30_1352,60.0045227688,FEMA4ImagesEEG,001,100112,
AFNE01.JPG,AFNE01.JPG,AFNE01.JPG,AFNE01.JPG,AFNE01.JPG,AFNE01.JPG,,,,,,,,,,,,,2,7,27,3,,,,,,,,,,,AMNE10.jpg,AMSA13.jpg,AMSA16.jpg,AMNE13.jpg,AMSA13.jpg,MS,2,num_6,16,num_6,0.76676482358,,,2017_Mar_30_1352,60.0045227688,FEMA4ImagesEEG,001,100112,
AFNE01.JPG,AFNE01.JPG,AFNE01.JPG,AFNE01.JPG,AFNE01.JPG,AFNE01.JPG,,,,,,,,,,,,,2,8,28,4,,,,,,,,,,,AMNE07.jpg,AMSA20.jpg,AMSA12.jpg,AMNE03.jpg,AMNE03.jpg,MN,1,num_4,32,num_8,1.1834509219,,,2017_Mar_30_1352,60.0045227688,FEMA4ImagesEEG,001,100112,
AFNE01.JPG,AFNE01.JPG,AFNE01.JPG,AFNE01.JPG,AFNE01.JPG,AFNE01.JPG,,,,,,,,,,,,,2,9,29,0,,,,,,,,,,,AMSA17.jpg,AMNE07.jpg,AMSA11.jpg,AMNE11.jpg,AMSA17.jpg,MS,2,num_8,32,num_6,1.03348747012,,,2017_Mar_30_1352,60.0045227688,FEMA4ImagesEEG,001,100112,
AFNE01.JPG,AFNE01.JPG,AFNE01.JPG,AFNE01.JPG,AFNE01.JPG,AFNE01.JPG,,,,,,,,,,,,,3,0,30,3,,,,,,,,,,,AMNE16.jpg,AMNE20.jpg,AMSA18.jpg,AMSA13.jpg,AMNE16.jpg,MN,1,num_8,16,num_8,1.01678623306,,,2017_Mar_30_1352,60.0045227688,FEMA4ImagesEEG,001,100112,
AFNE01.JPG,AFNE01.JPG,AFNE01.JPG,AFNE01.JPG,AFNE01.JPG,AFNE01.JPG,,,,,,,,,,,,,3,1,31,9,,,,,,,,,,,AMSA02.jpg,AMNE11.jpg,AMNE02.jpg,AMSA07.jpg,AMSA02.jpg,MS,2,num_8,32,num_2,2.38368037902,,,2017_Mar_30_1352,60.0045227688,FEMA4ImagesEEG,001,100112,
AFNE01.JPG,AFNE01.JPG,AFNE01.JPG,AFNE01.JPG,AFNE01.JPG,AFNE01.JPG,,,,,,,,,,,,,3,2,32,8,,,,,,,,,,,AMSA13.jpg,AMNE17.jpg,AMNE15.jpg,AMSA20.jpg,AMNE15.jpg,MN,1,num_2,16,num_2,0.716813784791,,,2017_Mar_30_1352,60.0045227688,FEMA4ImagesEEG,001,100112,
AFNE01.JPG,AFNE01.JPG,AFNE01.JPG,AFNE01.JPG,AFNE01.JPG,AFNE01.JPG,,,,,,,,,,,,,3,3,33,1,,,,,,,,,,,AMNE18.jpg,AMNE06.jpg,AMSA05.jpg,AMSA09.jpg,AMNE18.jpg,MN,1,num_8,32,num_2,1.33344933414,,,2017_Mar_30_1352,60.0045227688,FEMA4ImagesEEG,001,100112,
AFNE01.JPG,AFNE01.JPG,AFNE01.JPG,AFNE01.JPG,AFNE01.JPG,AFNE01.JPG,,,,,,,,,,,,,3,4,34,0,,,,,,,,,,,AMSA06.jpg,AMSA09.jpg,AMNE08.jpg,AMNE18.jpg,AMSA09.jpg,MS,2,num_6,32,num_4,1.03348169685,,,2017_Mar_30_1352,60.0045227688,FEMA4ImagesEEG,001,100112,
AFNE01.JPG,AFNE01.JPG,AFNE01.JPG,AFNE01.JPG,AFNE01.JPG,AFNE01.JPG,,,,,,,,,,,,,3,5,35,7,,,,,,,,,,,AMSA01.jpg,AMNE12.jpg,AMSA12.jpg,AMNE18.jpg,AMSA01.jpg,MS,2,num_8,16,num_8,0.883538130904,,,2017_Mar_30_1352,60.0045227688,FEMA4ImagesEEG,001,100112,
AFNE01.JPG,AFNE01.JPG,AFNE01.JPG,AFNE01.JPG,AFNE01.JPG,AFNE01.JPG,,,,,,,,,,,,,3,6,36,5,,,,,,,,,,,AMSA05.jpg,AMNE03.jpg,AMSA12.jpg,AMNE02.jpg,AMNE02.jpg,MN,1,num_4,32,num_6,1.40016383398,,,2017_Mar_30_1352,60.0045227688,FEMA4ImagesEEG,001,100112,
AFNE01.JPG,AFNE01.JPG,AFNE01.JPG,AFNE01.JPG,AFNE01.JPG,AFNE01.JPG,,,,,,,,,,,,,3,7,37,4,,,,,,,,,,,AMNE06.jpg,AMSA19.jpg,AMSA14.jpg,AMNE08.jpg,AMNE06.jpg,MN,1,num_8,32,num_4,0.966854759026,,,2017_Mar_30_1352,60.0045227688,FEMA4ImagesEEG,001,100112,
AFNE01.JPG,AFNE01.JPG,AFNE01.JPG,AFNE01.JPG,AFNE01.JPG,AFNE01.JPG,,,,,,,,,,,,,3,8,38,6,,,,,,,,,,,AMNE12.jpg,AMNE20.jpg,AMSA03.jpg,AMSA19.jpg,AMSA03.jpg,MS,2,num_2,32,num_8,1.38351070764,,,2017_Mar_30_1352,60.0045227688,FEMA4ImagesEEG,001,100112,
AFNE01.JPG,AFNE01.JPG,AFNE01.JPG,AFNE01.JPG,AFNE01.JPG,AFNE01.JPG,,,,,,,,,,,,,3,9,39,2,,,,,,,,,,,AMNE18.jpg,AMNE02.jpg,AMSA03.jpg,AMSA13.jpg,AMNE02.jpg,MN,1,num_6,16,num_6,1.21676326822,,,2017_Mar_30_1352,60.0045227688,FEMA4ImagesEEG,001,100112,
AFNE01.JPG,AFNE01.JPG,AFNE01.JPG,AFNE01.JPG,AFNE01.JPG,AFNE01.JPG,,,,,,,,,,,,,4,0,40,5,,,,,,,,,,,AMSA03.jpg,AMSA20.jpg,AMNE11.jpg,AMNE14.jpg,AMNE14.jpg,MN,1,num_4,16,num_4,1.56673005549,,,2017_Mar_30_1352,60.0045227688,FEMA4ImagesEEG,001,100112,
AFNE01.JPG,AFNE01.JPG,AFNE01.JPG,AFNE01.JPG,AFNE01.JPG,AFNE01.JPG,,,,,,,,,,,,,4,1,41,9,,,,,,,,,,,AMSA11.jpg,AMNE02.jpg,AMSA15.jpg,AMNE19.jpg,AMSA15.jpg,MS,2,num_2,16,num_2,0.533468706766,,,2017_Mar_30_1352,60.0045227688,FEMA4ImagesEEG,001,100112,
AFNE01.JPG,AFNE01.JPG,AFNE01.JPG,AFNE01.JPG,AFNE01.JPG,AFNE01.JPG,,,,,,,,,,,,,4,2,42,8,,,,,,,,,,,AMNE03.jpg,AMNE09.jpg,AMSA04.jpg,AMSA12.jpg,AMNE09.jpg,MN,1,num_6,16,num_6,2.18363630935,,,2017_Mar_30_1352,60.0045227688,FEMA4ImagesEEG,001,100112,
AFNE01.JPG,AFNE01.JPG,AFNE01.JPG,AFNE01.JPG,AFNE01.JPG,AFNE01.JPG,,,,,,,,,,,,,4,3,43,7,,,,,,,,,,,AMNE06.jpg,AMSA20.jpg,AMSA12.jpg,AMNE11.jpg,AMNE06.jpg,MN,1,num_8,16,num_8,1.21673568455,,,2017_Mar_30_1352,60.0045227688,FEMA4ImagesEEG,001,100112,
AFNE01.JPG,AFNE01.JPG,AFNE01.JPG,AFNE01.JPG,AFNE01.JPG,AFNE01.JPG,,,,,,,,,,,,,4,4,44,1,,,,,,,,,,,AMNE05.jpg,AMSA16.jpg,AMSA14.jpg,AMNE01.jpg,AMSA16.jpg,MS,2,num_6,32,num_4,2.13350597676,,,2017_Mar_30_1352,60.0045227688,FEMA4ImagesEEG,001,100112,
AFNE01.JPG,AFNE01.JPG,AFNE01.JPG,AFNE01.JPG,AFNE01.JPG,AFNE01.JPG,,,,,,,,,,,,,4,5,45,3,,,,,,,,,,,AMNE15.jpg,AMSA05.jpg,AMSA12.jpg,AMNE07.jpg,AMNE07.jpg,MN,1,num_4,32,num_8,1.13327279896,,,2017_Mar_30_1352,60.0045227688,FEMA4ImagesEEG,001,100112,
AFNE01.JPG,AFNE01.JPG,AFNE01.JPG,AFNE01.JPG,AFNE01.JPG,AFNE01.JPG,,,,,,,,,,,,,4,6,46,0,,,,,,,,,,,AMNE02.jpg,AMSA09.jpg,AMSA16.jpg,AMNE03.jpg,AMNE03.jpg,MN,1,num_4,16,num_4,0.966788686812,,,2017_Mar_30_1352,60.0045227688,FEMA4ImagesEEG,001,100112,
AFNE01.JPG,AFNE01.JPG,AFNE01.JPG,AFNE01.JPG,AFNE01.JPG,AFNE01.JPG,,,,,,,,,,,,,4,7,47,4,,,,,,,,,,,AMSA18.jpg,AMNE13.jpg,AMNE09.jpg,AMSA03.jpg,AMSA18.jpg,MS,2,num_8,16,num_8,1.13342322595,,,2017_Mar_30_1352,60.0045227688,FEMA4ImagesEEG,001,100112,
AFNE01.JPG,AFNE01.JPG,AFNE01.JPG,AFNE01.JPG,AFNE01.JPG,AFNE01.JPG,,,,,,,,,,,,,4,8,48,2,,,,,,,,,,,AMNE20.jpg,AMNE08.jpg,AMSA02.jpg,AMSA11.jpg,AMSA11.jpg,MS,2,num_4,32,num_2,1.63345642271,,,2017_Mar_30_1352,60.0045227688,FEMA4ImagesEEG,001,100112,
AFNE01.JPG,AFNE01.JPG,AFNE01.JPG,AFNE01.JPG,AFNE01.JPG,AFNE01.JPG,,,,,,,,,,,,,4,9,49,6,,,,,,,,,,,AMNE18.jpg,AMNE10.jpg,AMSA08.jpg,AMSA13.jpg,AMNE18.jpg,MN,1,num_8,32,num_2,2.98285550065,,,2017_Mar_30_1352,60.0045227688,FEMA4ImagesEEG,001,100112,
AFNE01.JPG,AFNE01.JPG,AFNE01.JPG,AFNE01.JPG,AFNE01.JPG,AFNE01.JPG,,,,,,,,,,,,,5,0,50,0,,,,,,,,,,,AMSA16.jpg,AMNE14.jpg,AMSA03.jpg,AMNE03.jpg,AMNE03.jpg,MN,1,num_4,32,num_2,0.766816142015,,,2017_Mar_30_1352,60.0045227688,FEMA4ImagesEEG,001,100112,
AFNE01.JPG,AFNE01.JPG,AFNE01.JPG,AFNE01.JPG,AFNE01.JPG,AFNE01.JPG,,,,,,,,,,,,,5,1,51,2,,,,,,,,,,,AMSA14.jpg,AMNE03.jpg,AMNE01.jpg,AMSA08.jpg,AMNE01.jpg,MN,1,num_2,32,num_6,2.74993881886,,,2017_Mar_30_1352,60.0045227688,FEMA4ImagesEEG,001,100112,
AFNE01.JPG,AFNE01.JPG,AFNE01.JPG,AFNE01.JPG,AFNE01.JPG,AFNE01.JPG,,,,,,,,,,,,,5,2,52,7,,,,,,,,,,,AMNE16.jpg,AMNE02.jpg,AMSA12.jpg,AMSA04.jpg,AMSA04.jpg,MS,2,num_4,32,num_6,3.34991258243,,,2017_Mar_30_1352,60.0045227688,FEMA4ImagesEEG,001,100112,
AFNE01.JPG,AFNE01.JPG,AFNE01.JPG,AFNE01.JPG,AFNE01.JPG,AFNE01.JPG,,,,,,,,,,,,,5,3,53,6,,,,,,,,,,,AMSA18.jpg,AMNE08.jpg,AMSA20.jpg,AMNE03.jpg,AMNE08.jpg,MN,1,num_6,16,num_6,0.60012996383,,,2017_Mar_30_1352,60.0045227688,FEMA4ImagesEEG,001,100112,
AFNE01.JPG,AFNE01.JPG,AFNE01.JPG,AFNE01.JPG,AFNE01.JPG,AFNE01.JPG,,,,,,,,,,,,,5,4,54,8,,,,,,,,,,,AMSA06.jpg,AMNE04.jpg,AMNE09.jpg,AMSA15.jpg,AMNE04.jpg,MN,1,num_6,32,num_2,1.00013471069,,,2017_Mar_30_1352,60.0045227688,FEMA4ImagesEEG,001,100112,
AFNE01.JPG,AFNE01.JPG,AFNE01.JPG,AFNE01.JPG,AFNE01.JPG,AFNE01.JPG,,,,,,,,,,,,,5,5,55,4,,,,,,,,,,,AMSA08.jpg,AMSA20.jpg,AMNE08.jpg,AMNE17.jpg,AMSA08.jpg,MS,2,num_8,16,num_8,1.13353869226,,,2017_Mar_30_1352,60.0045227688,FEMA4ImagesEEG,001,100112,
AFNE01.JPG,AFNE01.JPG,AFNE01.JPG,AFNE01.JPG,AFNE01.JPG,AFNE01.JPG,,,,,,,,,,,,,5,6,56,1,,,,,,,,,,,AMNE09.jpg,AMSA15.jpg,AMSA12.jpg,AMNE20.jpg,AMNE20.jpg,MN,1,num_4,32,num_8,1.7500414555,,,2017_Mar_30_1352,60.0045227688,FEMA4ImagesEEG,001,100112,
AFNE01.JPG,AFNE01.JPG,AFNE01.JPG,AFNE01.JPG,AFNE01.JPG,AFNE01.JPG,,,,,,,,,,,,,5,7,57,3,,,,,,,,,,,AMSA01.jpg,AMSA04.jpg,AMNE20.jpg,AMNE03.jpg,AMSA01.jpg,MS,2,num_8,32,num_4,0.916770933894,,,2017_Mar_30_1352,60.0045227688,FEMA4ImagesEEG,001,100112,
AFNE01.JPG,AFNE01.JPG,AFNE01.JPG,AFNE01.JPG,AFNE01.JPG,AFNE01.JPG,,,,,,,,,,,,,5,8,58,9,,,,,,,,,,,AMNE12.jpg,AMSA17.jpg,AMSA15.jpg,AMNE13.jpg,AMNE12.jpg,MN,1,num_8,16,num_8,1.68336576549,,,2017_Mar_30_1352,60.0045227688,FEMA4ImagesEEG,001,100112,
AFNE01.JPG,AFNE01.JPG,AFNE01.JPG,AFNE01.JPG,AFNE01.JPG,AFNE01.JPG,,,,,,,,,,,,,5,9,59,5,,,,,,,,,,,AMNE02.jpg,AMNE08.jpg,AMSA08.jpg,AMSA15.jpg,AMNE02.jpg,MN,1,num_8,32,num_2,1.01651809481,,,2017_Mar_30_1352,60.0045227688,FEMA4ImagesEEG,001,100112,
,,,,,,,,,,,,,,,,,,,,,,,,,,,,,,,,,,,,,,,,,,,space,8.51619783626,2017_Mar_30_1352,60.0045227688,FEMA4ImagesEEG,001,100112,
AFNE01.JPG,AFNE01.JPG,AFNE01.JPG,AFNE01.JPG,AFNE01.JPG,AFNE01.JPG,,,,,,,,,,,,,,,,,0,0,0,6,,,,,,,AFSA08.jpg,AFSA02.jpg,AFNE11.jpg,AFNE03.jpg,AFSA02.jpg,FS,4,num_6,16,num_6,0.716837198474,,,2017_Mar_30_1352,60.0045227688,FEMA4ImagesEEG,001,100112,
AFNE01.JPG,AFNE01.JPG,AFNE01.JPG,AFNE01.JPG,AFNE01.JPG,AFNE01.JPG,,,,,,,,,,,,,,,,,0,1,1,9,,,,,,,AFNE07.jpg,AFNE11.jpg,AFSA19.jpg,AFSA04.jpg,AFNE11.jpg,FN,3,num_6,32,num_2,0.933441379806,,,2017_Mar_30_1352,60.0045227688,FEMA4ImagesEEG,001,100112,
AFNE01.JPG,AFNE01.JPG,AFNE01.JPG,AFNE01.JPG,AFNE01.JPG,AFNE01.JPG,,,,,,,,,,,,,,,,,0,2,2,4,,,,,,,AFSA20.jpg,AFNE04.jpg,AFNE06.jpg,AFSA10.jpg,AFNE06.jpg,FN,3,num_2,32,num_8,0.950152880512,,,2017_Mar_30_1352,60.0045227688,FEMA4ImagesEEG,001,100112,
AFNE01.JPG,AFNE01.JPG,AFNE01.JPG,AFNE01.JPG,AFNE01.JPG,AFNE01.JPG,,,,,,,,,,,,,,,,,0,3,3,8,,,,,,,AFNE03.jpg,AFNE09.jpg,AFSA02.jpg,AFSA06.jpg,AFNE09.jpg,FN,3,num_6,32,num_2,1.15010970901,,,2017_Mar_30_1352,60.0045227688,FEMA4ImagesEEG,001,100112,
AFNE01.JPG,AFNE01.JPG,AFNE01.JPG,AFNE01.JPG,AFNE01.JPG,AFNE01.JPG,,,,,,,,,,,,,,,,,0,4,4,1,,,,,,,AFSA18.jpg,AFNE12.jpg,AFSA20.jpg,AFNE08.jpg,AFSA20.jpg,FS,4,num_2,32,num_8,0.983497621492,,,2017_Mar_30_1352,60.0045227688,FEMA4ImagesEEG,001,100112,
AFNE01.JPG,AFNE01.JPG,AFNE01.JPG,AFNE01.JPG,AFNE01.JPG,AFNE01.JPG,,,,,,,,,,,,,,,,,0,5,5,2,,,,,,,AFNE18.jpg,AFSA02.jpg,AFSA20.jpg,AFNE05.jpg,AFNE05.jpg,FN,3,num_4,32,num_2,1.28340271465,,,2017_Mar_30_1352,60.0045227688,FEMA4ImagesEEG,001,100112,
AFNE01.JPG,AFNE01.JPG,AFNE01.JPG,AFNE01.JPG,AFNE01.JPG,AFNE01.JPG,,,,,,,,,,,,,,,,,0,6,6,0,,,,,,,AFNE16.jpg,AFSA10.jpg,AFSA13.jpg,AFNE01.jpg,AFNE01.jpg,FN,3,num_4,32,num_8,1.18339992431,,,2017_Mar_30_1352,60.0045227688,FEMA4ImagesEEG,001,100112,
AFNE01.JPG,AFNE01.JPG,AFNE01.JPG,AFNE01.JPG,AFNE01.JPG,AFNE01.JPG,,,,,,,,,,,,,,,,,0,7,7,5,,,,,,,AFSA07.jpg,AFNE16.jpg,AFNE18.jpg,AFSA03.jpg,AFNE16.jpg,FN,3,num_6,16,num_6,0.750222994247,,,2017_Mar_30_1352,60.0045227688,FEMA4ImagesEEG,001,100112,
AFNE01.JPG,AFNE01.JPG,AFNE01.JPG,AFNE01.JPG,AFNE01.JPG,AFNE01.JPG,,,,,,,,,,,,,,,,,0,8,8,7,,,,,,,AFNE14.jpg,AFSA12.jpg,AFSA06.jpg,AFNE17.jpg,AFNE14.jpg,FN,3,num_8,32,num_4,1.4831257239,,,2017_Mar_30_1352,60.0045227688,FEMA4ImagesEEG,001,100112,
AFNE01.JPG,AFNE01.JPG,AFNE01.JPG,AFNE01.JPG,AFNE01.JPG,AFNE01.JPG,,,,,,,,,,,,,,,,,0,9,9,3,,,,,,,AFSA07.jpg,AFNE02.jpg,AFNE14.jpg,AFSA12.jpg,AFSA12.jpg,FS,4,num_4,16,num_4,1.23346514674,,,2017_Mar_30_1352,60.0045227688,FEMA4ImagesEEG,001,100112,
AFNE01.JPG,AFNE01.JPG,AFNE01.JPG,AFNE01.JPG,AFNE01.JPG,AFNE01.JPG,,,,,,,,,,,,,,,,,1,0,10,2,,,,,,,AFSA03.jpg,AFNE20.jpg,AFNE16.jpg,AFSA05.jpg,AFNE20.jpg,FN,3,num_6,16,num_6,0.783442646731,,,2017_Mar_30_1352,60.0045227688,FEMA4ImagesEEG,001,100112,
AFNE01.JPG,AFNE01.JPG,AFNE01.JPG,AFNE01.JPG,AFNE01.JPG,AFNE01.JPG,,,,,,,,,,,,,,,,,1,1,11,7,,,,,,,AFNE19.jpg,AFSA10.jpg,AFNE15.jpg,AFSA13.jpg,AFSA13.jpg,FS,4,num_4,16,num_4,0.616779882461,,,2017_Mar_30_1352,60.0045227688,FEMA4ImagesEEG,001,100112,
AFNE01.JPG,AFNE01.JPG,AFNE01.JPG,AFNE01.JPG,AFNE01.JPG,AFNE01.JPG,,,,,,,,,,,,,,,,,1,2,12,5,,,,,,,AFNE16.jpg,AFSA20.jpg,AFNE20.jpg,AFSA18.jpg,AFNE20.jpg,FN,3,num_2,16,num_2,1.23350523924,,,2017_Mar_30_1352,60.0045227688,FEMA4ImagesEEG,001,100112,
AFNE01.JPG,AFNE01.JPG,AFNE01.JPG,AFNE01.JPG,AFNE01.JPG,AFNE01.JPG,,,,,,,,,,,,,,,,,1,3,13,0,,,,,,,AFNE08.jpg,AFNE15.jpg,AFSA12.jpg,AFSA03.jpg,AFNE08.jpg,FN,3,num_8,32,num_2,1.21677321102,,,2017_Mar_30_1352,60.0045227688,FEMA4ImagesEEG,001,100112,
AFNE01.JPG,AFNE01.JPG,AFNE01.JPG,AFNE01.JPG,AFNE01.JPG,AFNE01.JPG,,,,,,,,,,,,,,,,,1,4,14,3,,,,,,,AFSA16.jpg,AFNE09.jpg,AFNE08.jpg,AFSA02.jpg,AFNE09.jpg,FN,3,num_6,32,num_8,0.916793706361,,,2017_Mar_30_1352,60.0045227688,FEMA4ImagesEEG,001,100112,
AFNE01.JPG,AFNE01.JPG,AFNE01.JPG,AFNE01.JPG,AFNE01.JPG,AFNE01.JPG,,,,,,,,,,,,,,,,,1,5,15,8,,,,,,,AFNE09.jpg,AFSA03.jpg,AFNE05.jpg,AFSA16.jpg,AFNE09.jpg,FN,3,num_8,32,num_2,2.10004192055,,,2017_Mar_30_1352,60.0045227688,FEMA4ImagesEEG,001,100112,
AFNE01.JPG,AFNE01.JPG,AFNE01.JPG,AFNE01.JPG,AFNE01.JPG,AFNE01.JPG,,,,,,,,,,,,,,,,,1,6,16,1,,,,,,,AFNE08.jpg,AFSA13.jpg,AFNE19.jpg,AFSA02.jpg,AFSA13.jpg,FS,4,num_6,32,num_4,0.816736390116,,,2017_Mar_30_1352,60.0045227688,FEMA4ImagesEEG,001,100112,
AFNE01.JPG,AFNE01.JPG,AFNE01.JPG,AFNE01.JPG,AFNE01.JPG,AFNE01.JPG,,,,,,,,,,,,,,,,,1,7,17,9,,,,,,,AFNE18.jpg,AFSA07.jpg,AFNE04.jpg,AFSA19.jpg,AFSA19.jpg,FS,4,num_4,16,num_4,2.40003489633,,,2017_Mar_30_1352,60.0045227688,FEMA4ImagesEEG,001,100112,
AFNE01.JPG,AFNE01.JPG,AFNE01.JPG,AFNE01.JPG,AFNE01.JPG,AFNE01.JPG,,,,,,,,,,,,,,,,,1,8,18,4,,,,,,,AFNE02.jpg,AFNE10.jpg,AFSA05.jpg,AFSA10.jpg,AFNE02.jpg,FN,3,num_8,16,num_8,1.28342131758,,,2017_Mar_30_1352,60.0045227688,FEMA4ImagesEEG,001,100112,
AFNE01.JPG,AFNE01.JPG,AFNE01.JPG,AFNE01.JPG,AFNE01.JPG,AFNE01.JPG,,,,,,,,,,,,,,,,,1,9,19,6,,,,,,,AFNE02.jpg,AFNE04.jpg,AFSA09.jpg,AFSA13.jpg,AFNE04.jpg,FN,3,num_6,16,num_6,0.766781822778,,,2017_Mar_30_1352,60.0045227688,FEMA4ImagesEEG,001,100112,
AFNE01.JPG,AFNE01.JPG,AFNE01.JPG,AFNE01.JPG,AFNE01.JPG,AFNE01.JPG,,,,,,,,,,,,,,,,,2,0,20,0,,,,,,,AFNE07.jpg,AFSA16.jpg,AFNE04.jpg,AFSA07.jpg,AFSA16.jpg,FS,4,num_6,16,num_6,1.05009890022,,,2017_Mar_30_1352,60.0045227688,FEMA4ImagesEEG,001,100112,
AFNE01.JPG,AFNE01.JPG,AFNE01.JPG,AFNE01.JPG,AFNE01.JPG,AFNE01.JPG,,,,,,,,,,,,,,,,,2,1,21,7,,,,,,,AFSA14.jpg,AFNE17.jpg,AFNE19.jpg,AFSA10.jpg,AFNE19.jpg,FN,3,num_2,32,num_6,0.783551056869,,,2017_Mar_30_1352,60.0045227688,FEMA4ImagesEEG,001,100112,
AFNE01.JPG,AFNE01.JPG,AFNE01.JPG,AFNE01.JPG,AFNE01.JPG,AFNE01.JPG,,,,,,,,,,,,,,,,,2,2,22,4,,,,,,,AFSA02.jpg,AFNE02.jpg,AFSA09.jpg,AFNE05.jpg,AFSA02.jpg,FS,4,num_8,32,num_4,1.13345754496,,,2017_Mar_30_1352,60.0045227688,FEMA4ImagesEEG,001,100112,
AFNE01.JPG,AFNE01.JPG,AFNE01.JPG,AFNE01.JPG,AFNE01.JPG,AFNE01.JPG,,,,,,,,,,,,,,,,,2,3,23,1,,,,,,,AFSA16.jpg,AFSA11.jpg,AFNE01.jpg,AFNE15.jpg,AFNE01.jpg,FN,3,num_2,32,num_8,1.25006599212,,,2017_Mar_30_1352,60.0045227688,FEMA4ImagesEEG,001,100112,
AFNE01.JPG,AFNE01.JPG,AFNE01.JPG,AFNE01.JPG,AFNE01.JPG,AFNE01.JPG,,,,,,,,,,,,,,,,,2,4,24,8,,,,,,,AFNE04.jpg,AFSA20.jpg,AFNE16.jpg,AFSA03.jpg,AFNE04.jpg,FN,3,num_8,16,num_8,1.03344352893,,,2017_Mar_30_1352,60.0045227688,FEMA4ImagesEEG,001,100112,
AFNE01.JPG,AFNE01.JPG,AFNE01.JPG,AFNE01.JPG,AFNE01.JPG,AFNE01.JPG,,,,,,,,,,,,,,,,,2,5,25,6,,,,,,,AFNE15.jpg,AFNE11.jpg,AFSA14.jpg,AFSA10.jpg,AFNE11.jpg,FN,3,num_6,16,num_6,0.6501727344,,,2017_Mar_30_1352,60.0045227688,FEMA4ImagesEEG,001,100112,
AFNE01.JPG,AFNE01.JPG,AFNE01.JPG,AFNE01.JPG,AFNE01.JPG,AFNE01.JPG,,,,,,,,,,,,,,,,,2,6,26,9,,,,,,,AFNE19.jpg,AFNE16.jpg,AFSA17.jpg,AFSA08.jpg,AFNE19.jpg,FN,3,num_8,16,num_8,1.03348522494,,,2017_Mar_30_1352,60.0045227688,FEMA4ImagesEEG,001,100112,
AFNE01.JPG,AFNE01.JPG,AFNE01.JPG,AFNE01.JPG,AFNE01.JPG,AFNE01.JPG,,,,,,,,,,,,,,,,,2,7,27,2,,,,,,,AFNE14.jpg,AFSA02.jpg,AFSA08.jpg,AFNE12.jpg,AFSA08.jpg,FS,4,num_2,16,num_2,1.36671838071,,,2017_Mar_30_1352,60.0045227688,FEMA4ImagesEEG,001,100112,
AFNE01.JPG,AFNE01.JPG,AFNE01.JPG,AFNE01.JPG,AFNE01.JPG,AFNE01.JPG,,,,,,,,,,,,,,,,,2,8,28,5,,,,,,,AFSA20.jpg,AFNE09.jpg,AFNE14.jpg,AFSA02.jpg,AFNE09.jpg,FN,3,num_6,32,num_8,1.40006440436,,,2017_Mar_30_1352,60.0045227688,FEMA4ImagesEEG,001,100112,
AFNE01.JPG,AFNE01.JPG,AFNE01.JPG,AFNE01.JPG,AFNE01.JPG,AFNE01.JPG,,,,,,,,,,,,,,,,,2,9,29,3,,,,,,,AFSA13.jpg,AFSA06.jpg,AFNE16.jpg,AFNE10.jpg,AFSA06.jpg,FS,4,num_6,16,num_6,0.400152287213,,,2017_Mar_30_1352,60.0045227688,FEMA4ImagesEEG,001,100112,
AFNE01.JPG,AFNE01.JPG,AFNE01.JPG,AFNE01.JPG,AFNE01.JPG,AFNE01.JPG,,,,,,,,,,,,,,,,,3,0,30,4,,,,,,,AFNE09.jpg,AFNE05.jpg,AFSA11.jpg,AFSA13.jpg,AFNE09.jpg,FN,3,num_8,16,num_8,1.11676721321,,,2017_Mar_30_1352,60.0045227688,FEMA4ImagesEEG,001,100112,
AFNE01.JPG,AFNE01.JPG,AFNE01.JPG,AFNE01.JPG,AFNE01.JPG,AFNE01.JPG,,,,,,,,,,,,,,,,,3,1,31,1,,,,,,,AFNE06.jpg,AFNE17.jpg,AFSA04.jpg,AFSA08.jpg,AFNE17.jpg,FN,3,num_6,16,num_6,1.08346160268,,,2017_Mar_30_1352,60.0045227688,FEMA4ImagesEEG,001,100112,
AFNE01.JPG,AFNE01.JPG,AFNE01.JPG,AFNE01.JPG,AFNE01.JPG,AFNE01.JPG,,,,,,,,,,,,,,,,,3,2,32,7,,,,,,,AFNE04.jpg,AFNE17.jpg,AFSA08.jpg,AFSA14.jpg,AFNE17.jpg,FN,3,num_6,32,num_4,2.46679879003,,,2017_Mar_30_1352,60.0045227688,FEMA4ImagesEEG,001,100112,
AFNE01.JPG,AFNE01.JPG,AFNE01.JPG,AFNE01.JPG,AFNE01.JPG,AFNE01.JPG,,,,,,,,,,,,,,,,,3,3,33,2,,,,,,,AFSA16.jpg,AFNE17.jpg,AFNE13.jpg,AFSA01.jpg,AFSA16.jpg,FS,4,num_8,32,num_6,1.01677885605,,,2017_Mar_30_1352,60.0045227688,FEMA4ImagesEEG,001,100112,
AFNE01.JPG,AFNE01.JPG,AFNE01.JPG,AFNE01.JPG,AFNE01.JPG,AFNE01.JPG,,,,,,,,,,,,,,,,,3,4,34,3,,,,,,,AFSA10.jpg,AFNE10.jpg,AFNE04.jpg,AFSA09.jpg,AFNE10.jpg,FN,3,num_6,16,num_6,1.45005681901,,,2017_Mar_30_1352,60.0045227688,FEMA4ImagesEEG,001,100112,
AFNE01.JPG,AFNE01.JPG,AFNE01.JPG,AFNE01.JPG,AFNE01.JPG,AFNE01.JPG,,,,,,,,,,,,,,,,,3,5,35,9,,,,,,,AFNE09.jpg,AFSA12.jpg,AFNE07.jpg,AFSA07.jpg,AFSA12.jpg,FS,4,num_6,16,num_6,0.700158734107,,,2017_Mar_30_1352,60.0045227688,FEMA4ImagesEEG,001,100112,
AFNE01.JPG,AFNE01.JPG,AFNE01.JPG,AFNE01.JPG,AFNE01.JPG,AFNE01.JPG,,,,,,,,,,,,,,,,,3,6,36,0,,,,,,,AFSA19.jpg,AFSA07.jpg,AFNE07.jpg,AFNE01.jpg,AFNE07.jpg,FN,3,num_2,16,num_2,0.750157884089,,,2017_Mar_30_1352,60.0045227688,FEMA4ImagesEEG,001,100112,
AFNE01.JPG,AFNE01.JPG,AFNE01.JPG,AFNE01.JPG,AFNE01.JPG,AFNE01.JPG,,,,,,,,,,,,,,,,,3,7,37,5,,,,,,,AFSA11.jpg,AFNE18.jpg,AFNE17.jpg,AFSA03.jpg,AFNE17.jpg,FN,3,num_2,32,num_8,1.21678026742,,,2017_Mar_30_1352,60.0045227688,FEMA4ImagesEEG,001,100112,
AFNE01.JPG,AFNE01.JPG,AFNE01.JPG,AFNE01.JPG,AFNE01.JPG,AFNE01.JPG,,,,,,,,,,,,,,,,,3,8,38,8,,,,,,,AFSA07.jpg,AFNE18.jpg,AFSA04.jpg,AFNE08.jpg,AFNE08.jpg,FN,3,num_4,32,num_8,0.933442662936,,,2017_Mar_30_1352,60.0045227688,FEMA4ImagesEEG,001,100112,
AFNE01.JPG,AFNE01.JPG,AFNE01.JPG,AFNE01.JPG,AFNE01.JPG,AFNE01.JPG,,,,,,,,,,,,,,,,,3,9,39,6,,,,,,,AFNE17.jpg,AFSA10.jpg,AFNE16.jpg,AFSA09.jpg,AFNE16.jpg,FN,3,num_2,32,num_4,0.850101979217,,,2017_Mar_30_1352,60.0045227688,FEMA4ImagesEEG,001,100112,
AFNE01.JPG,AFNE01.JPG,AFNE01.JPG,AFNE01.JPG,AFNE01.JPG,AFNE01.JPG,,,,,,,,,,,,,,,,,4,0,40,5,,,,,,,AFNE20.jpg,AFSA03.jpg,AFSA19.jpg,AFNE01.jpg,AFNE01.jpg,FN,3,num_4,32,num_2,1.39982256689,,,2017_Mar_30_1352,60.0045227688,FEMA4ImagesEEG,001,100112,
AFNE01.JPG,AFNE01.JPG,AFNE01.JPG,AFNE01.JPG,AFNE01.JPG,AFNE01.JPG,,,,,,,,,,,,,,,,,4,1,41,7,,,,,,,AFNE13.jpg,AFSA10.jpg,AFNE02.jpg,AFSA05.jpg,AFNE02.jpg,FN,3,num_2,32,num_8,1.26674477756,,,2017_Mar_30_1352,60.0045227688,FEMA4ImagesEEG,001,100112,
AFNE01.JPG,AFNE01.JPG,AFNE01.JPG,AFNE01.JPG,AFNE01.JPG,AFNE01.JPG,,,,,,,,,,,,,,,,,4,2,42,3,,,,,,,AFSA10.jpg,AFNE13.jpg,AFNE19.jpg,AFSA08.jpg,AFNE13.jpg,FN,3,num_6,32,num_8,1.33344195737,,,2017_Mar_30_1352,60.0045227688,FEMA4ImagesEEG,001,100112,
AFNE01.JPG,AFNE01.JPG,AFNE01.JPG,AFNE01.JPG,AFNE01.JPG,AFNE01.JPG,,,,,,,,,,,,,,,,,4,3,43,8,,,,,,,AFSA03.jpg,AFNE04.jpg,AFNE16.jpg,AFSA18.jpg,AFNE04.jpg,FN,3,num_6,16,num_6,1.28368368256,,,2017_Mar_30_1352,60.0045227688,FEMA4ImagesEEG,001,100112,
AFNE01.JPG,AFNE01.JPG,AFNE01.JPG,AFNE01.JPG,AFNE01.JPG,AFNE01.JPG,,,,,,,,,,,,,,,,,4,4,44,6,,,,,,,AFNE02.jpg,AFSA14.jpg,AFNE03.jpg,AFSA13.jpg,AFSA13.jpg,FS,4,num_4,16,num_4,0.816768464167,,,2017_Mar_30_1352,60.0045227688,FEMA4ImagesEEG,001,100112,
AFNE01.JPG,AFNE01.JPG,AFNE01.JPG,AFNE01.JPG,AFNE01.JPG,AFNE01.JPG,,,,,,,,,,,,,,,,,4,5,45,2,,,,,,,AFNE17.jpg,AFNE03.jpg,AFSA06.jpg,AFSA18.jpg,AFSA18.jpg,FS,4,num_4,16,num_4,0.866766652092,,,2017_Mar_30_1352,60.0045227688,FEMA4ImagesEEG,001,100112,
AFNE01.JPG,AFNE01.JPG,AFNE01.JPG,AFNE01.JPG,AFNE01.JPG,AFNE01.JPG,,,,,,,,,,,,,,,,,4,6,46,9,,,,,,,AFNE02.jpg,AFSA01.jpg,AFNE14.jpg,AFSA06.jpg,AFSA06.jpg,FS,4,num_4,32,num_6,0.883483926067,,,2017_Mar_30_1352,60.0045227688,FEMA4ImagesEEG,001,100112,
AFNE01.JPG,AFNE01.JPG,AFNE01.JPG,AFNE01.JPG,AFNE01.JPG,AFNE01.JPG,,,,,,,,,,,,,,,,,4,7,47,4,,,,,,,AFSA06.jpg,AFSA17.jpg,AFNE04.jpg,AFNE01.jpg,AFNE01.jpg,FN,3,num_4,16,num_4,0.916806536028,,,2017_Mar_30_1352,60.0045227688,FEMA4ImagesEEG,001,100112,
AFNE01.JPG,AFNE01.JPG,AFNE01.JPG,AFNE01.JPG,AFNE01.JPG,AFNE01.JPG,,,,,,,,,,,,,,,,,4,8,48,0,,,,,,,AFNE18.jpg,AFSA07.jpg,AFSA20.jpg,AFNE15.jpg,AFSA07.jpg,FS,4,num_6,32,num_8,1.3834263531,,,2017_Mar_30_1352,60.0045227688,FEMA4ImagesEEG,001,100112,
AFNE01.JPG,AFNE01.JPG,AFNE01.JPG,AFNE01.JPG,AFNE01.JPG,AFNE01.JPG,,,,,,,,,,,,,,,,,4,9,49,1,,,,,,,AFNE09.jpg,AFNE05.jpg,AFSA14.jpg,AFSA10.jpg,AFNE05.jpg,FN,3,num_6,16,num_6,1.06677993038,,,2017_Mar_30_1352,60.0045227688,FEMA4ImagesEEG,001,100112,
AFNE01.JPG,AFNE01.JPG,AFNE01.JPG,AFNE01.JPG,AFNE01.JPG,AFNE01.JPG,,,,,,,,,,,,,,,,,5,0,50,0,,,,,,,AFSA17.jpg,AFNE04.jpg,AFSA15.jpg,AFNE18.jpg,AFSA17.jpg,FS,4,num_8,32,num_6,1.85005226452,,,2017_Mar_30_1352,60.0045227688,FEMA4ImagesEEG,001,100112,
AFNE01.JPG,AFNE01.JPG,AFNE01.JPG,AFNE01.JPG,AFNE01.JPG,AFNE01.JPG,,,,,,,,,,,,,,,,,5,1,51,9,,,,,,,AFSA19.jpg,AFNE18.jpg,AFNE03.jpg,AFSA15.jpg,AFSA19.jpg,FS,4,num_8,16,num_8,1.06681713625,,,2017_Mar_30_1352,60.0045227688,FEMA4ImagesEEG,001,100112,
AFNE01.JPG,AFNE01.JPG,AFNE01.JPG,AFNE01.JPG,AFNE01.JPG,AFNE01.JPG,,,,,,,,,,,,,,,,,5,2,52,4,,,,,,,AFSA03.jpg,AFNE09.jpg,AFNE02.jpg,AFSA05.jpg,AFSA05.jpg,FS,4,num_4,16,num_4,0.750145375263,,,2017_Mar_30_1352,60.0045227688,FEMA4ImagesEEG,001,100112,
AFNE01.JPG,AFNE01.JPG,AFNE01.JPG,AFNE01.JPG,AFNE01.JPG,AFNE01.JPG,,,,,,,,,,,,,,,,,5,3,53,7,,,,,,,AFSA04.jpg,AFNE08.jpg,AFSA14.jpg,AFNE10.jpg,AFSA04.jpg,FS,4,num_8,32,num_2,2.43369267927,,,2017_Mar_30_1352,60.0045227688,FEMA4ImagesEEG,001,100112,
AFNE01.JPG,AFNE01.JPG,AFNE01.JPG,AFNE01.JPG,AFNE01.JPG,AFNE01.JPG,,,,,,,,,,,,,,,,,5,4,54,6,,,,,,,AFSA13.jpg,AFNE01.jpg,AFNE06.jpg,AFSA06.jpg,AFNE01.jpg,FN,3,num_6,32,num_4,0.983089319896,,,2017_Mar_30_1352,60.0045227688,FEMA4ImagesEEG,001,100112,
AFNE01.JPG,AFNE01.JPG,AFNE01.JPG,AFNE01.JPG,AFNE01.JPG,AFNE01.JPG,,,,,,,,,,,,,,,,,5,5,55,2,,,,,,,AFNE13.jpg,AFNE11.jpg,AFSA10.jpg,AFSA02.jpg,AFSA02.jpg,FS,4,num_4,32,num_6,0.916817441117,,,2017_Mar_30_1352,60.0045227688,FEMA4ImagesEEG,001,100112,
AFNE01.JPG,AFNE01.JPG,AFNE01.JPG,AFNE01.JPG,AFNE01.JPG,AFNE01.JPG,,,,,,,,,,,,,,,,,5,6,56,8,,,,,,,AFNE03.jpg,AFSA01.jpg,AFNE07.jpg,AFSA08.jpg,AFNE07.jpg,FN,3,num_2,16,num_2,2.01668648305,,,2017_Mar_30_1352,60.0045227688,FEMA4ImagesEEG,001,100112,
AFNE01.JPG,AFNE01.JPG,AFNE01.JPG,AFNE01.JPG,AFNE01.JPG,AFNE01.JPG,,,,,,,,,,,,,,,,,5,7,57,1,,,,,,,AFNE20.jpg,AFSA06.jpg,AFSA16.jpg,AFNE01.jpg,AFSA06.jpg,FS,4,num_6,16,num_6,1.01680676034,,,2017_Mar_30_1352,60.0045227688,FEMA4ImagesEEG,001,100112,
AFNE01.JPG,AFNE01.JPG,AFNE01.JPG,AFNE01.JPG,AFNE01.JPG,AFNE01.JPG,,,,,,,,,,,,,,,,,5,8,58,3,,,,,,,AFSA08.jpg,AFNE02.jpg,AFNE14.jpg,AFSA02.jpg,AFNE02.jpg,FN,3,num_6,32,num_4,1.18348107138,,,2017_Mar_30_1352,60.0045227688,FEMA4ImagesEEG,001,100112,
AFNE01.JPG,AFNE01.JPG,AFNE01.JPG,AFNE01.JPG,AFNE01.JPG,AFNE01.JPG,,,,,,,,,,,,,,,,,5,9,59,5,,,,,,,AFNE09.jpg,AFSA03.jpg,AFSA20.jpg,AFNE07.jpg,AFNE09.jpg,FN,3,num_8,32,num_4,1.06676132744,,,2017_Mar_30_1352,60.0045227688,FEMA4ImagesEEG,001,100112,
,,,,,,,,,,,,,,,,,,,,,,,,,,,,,,,,,,,,,,,,,,,space,16.0318379058,2017_Mar_30_1352,60.0045227688,FEMA4ImagesEEG,001,100112,
AFNE01.JPG,AFNE01.JPG,AFNE01.JPG,AFNE01.JPG,AFNE01.JPG,AFNE01.JPG,,,,,,,,,,,,,,,,,,,,,0,0,0,2,,,AMNE03.jpg,AMSA06.jpg,AMNE11.jpg,AMSA13.jpg,AMNE03.jpg,MN,1,num_8,32,num_2,1.00011963584,,,2017_Mar_30_1352,60.0045227688,FEMA4ImagesEEG,001,100112,
AFNE01.JPG,AFNE01.JPG,AFNE01.JPG,AFNE01.JPG,AFNE01.JPG,AFNE01.JPG,,,,,,,,,,,,,,,,,,,,,0,1,1,0,,,AMNE16.jpg,AMNE14.jpg,AMSA10.jpg,AMSA16.jpg,AMNE16.jpg,MN,1,num_8,16,num_8,0.88347077556,,,2017_Mar_30_1352,60.0045227688,FEMA4ImagesEEG,001,100112,
AFNE01.JPG,AFNE01.JPG,AFNE01.JPG,AFNE01.JPG,AFNE01.JPG,AFNE01.JPG,,,,,,,,,,,,,,,,,,,,,0,2,2,8,,,AMSA05.jpg,AMNE06.jpg,AMSA15.jpg,AMNE12.jpg,AMNE06.jpg,MN,1,num_6,32,num_4,1.38343084371,,,2017_Mar_30_1352,60.0045227688,FEMA4ImagesEEG,001,100112,
AFNE01.JPG,AFNE01.JPG,AFNE01.JPG,AFNE01.JPG,AFNE01.JPG,AFNE01.JPG,,,,,,,,,,,,,,,,,,,,,0,3,3,5,,,AMSA13.jpg,AMSA12.jpg,AMNE01.jpg,AMNE02.jpg,AMSA13.jpg,MS,2,num_8,16,num_8,1.36675879383,,,2017_Mar_30_1352,60.0045227688,FEMA4ImagesEEG,001,100112,
AFNE01.JPG,AFNE01.JPG,AFNE01.JPG,AFNE01.JPG,AFNE01.JPG,AFNE01.JPG,,,,,,,,,,,,,,,,,,,,,0,4,4,6,,,AMNE11.jpg,AMSA18.jpg,AMNE05.jpg,AMSA17.jpg,AMSA18.jpg,MS,2,num_6,16,num_6,1.1333058353,,,2017_Mar_30_1352,60.0045227688,FEMA4ImagesEEG,001,100112,
AFNE01.JPG,AFNE01.JPG,AFNE01.JPG,AFNE01.JPG,AFNE01.JPG,AFNE01.JPG,,,,,,,,,,,,,,,,,,,,,0,5,5,7,,,AMSA09.jpg,AMNE06.jpg,AMNE13.jpg,AMSA19.jpg,AMSA19.jpg,MS,2,num_4,32,num_8,1.46672437852,,,2017_Mar_30_1352,60.0045227688,FEMA4ImagesEEG,001,100112,
AFNE01.JPG,AFNE01.JPG,AFNE01.JPG,AFNE01.JPG,AFNE01.JPG,AFNE01.JPG,,,,,,,,,,,,,,,,,,,,,0,6,6,1,,,AMNE19.jpg,AMSA14.jpg,AMNE07.jpg,AMSA06.jpg,AMSA14.jpg,MS,2,num_6,16,num_6,0.600163641386,,,2017_Mar_30_1352,60.0045227688,FEMA4ImagesEEG,001,100112,
AFNE01.JPG,AFNE01.JPG,AFNE01.JPG,AFNE01.JPG,AFNE01.JPG,AFNE01.JPG,,,,,,,,,,,,,,,,,,,,,0,7,7,4,,,AMNE17.jpg,AMNE18.jpg,AMSA10.jpg,AMSA01.jpg,AMNE18.jpg,MN,1,num_6,32,num_2,1.78340736544,,,2017_Mar_30_1352,60.0045227688,FEMA4ImagesEEG,001,100112,
AFNE01.JPG,AFNE01.JPG,AFNE01.JPG,AFNE01.JPG,AFNE01.JPG,AFNE01.JPG,,,,,,,,,,,,,,,,,,,,,0,8,8,3,,,AMSA16.jpg,AMNE11.jpg,AMNE19.jpg,AMSA09.jpg,AMSA16.jpg,MS,2,num_8,32,num_6,0.766750390409,,,2017_Mar_30_1352,60.0045227688,FEMA4ImagesEEG,001,100112,
AFNE01.JPG,AFNE01.JPG,AFNE01.JPG,AFNE01.JPG,AFNE01.JPG,AFNE01.JPG,,,,,,,,,,,,,,,,,,,,,0,9,9,9,,,AMNE06.jpg,AMSA07.jpg,AMNE01.jpg,AMSA03.jpg,AMNE06.jpg,MN,1,num_8,32,num_2,1.71676952252,,,2017_Mar_30_1352,60.0045227688,FEMA4ImagesEEG,001,100112,
AFNE01.JPG,AFNE01.JPG,AFNE01.JPG,AFNE01.JPG,AFNE01.JPG,AFNE01.JPG,,,,,,,,,,,,,,,,,,,,,1,0,10,2,,,AMSA18.jpg,AMNE04.jpg,AMNE08.jpg,AMSA15.jpg,AMNE04.jpg,MN,1,num_6,32,num_8,0.600154340034,,,2017_Mar_30_1352,60.0045227688,FEMA4ImagesEEG,001,100112,
AFNE01.JPG,AFNE01.JPG,AFNE01.JPG,AFNE01.JPG,AFNE01.JPG,AFNE01.JPG,,,,,,,,,,,,,,,,,,,,,1,1,11,3,,,AMNE14.jpg,AMNE09.jpg,AMSA13.jpg,AMSA01.jpg,AMNE14.jpg,MN,1,num_8,16,num_8,2.06692265975,,,2017_Mar_30_1352,60.0045227688,FEMA4ImagesEEG,001,100112,
AFNE01.JPG,AFNE01.JPG,AFNE01.JPG,AFNE01.JPG,AFNE01.JPG,AFNE01.JPG,,,,,,,,,,,,,,,,,,,,,1,2,12,1,,,AMSA02.jpg,AMNE10.jpg,AMNE01.jpg,AMSA05.jpg,AMSA02.jpg,MS,2,num_8,16,num_8,1.03347656503,,,2017_Mar_30_1352,60.0045227688,FEMA4ImagesEEG,001,100112,
AFNE01.JPG,AFNE01.JPG,AFNE01.JPG,AFNE01.JPG,AFNE01.JPG,AFNE01.JPG,,,,,,,,,,,,,,,,,,,,,1,3,13,6,,,AMSA07.jpg,AMSA06.jpg,AMNE09.jpg,AMNE02.jpg,AMNE09.jpg,MN,1,num_2,32,num_8,1.51668792637,,,2017_Mar_30_1352,60.0045227688,FEMA4ImagesEEG,001,100112,
AFNE01.JPG,AFNE01.JPG,AFNE01.JPG,AFNE01.JPG,AFNE01.JPG,AFNE01.JPG,,,,,,,,,,,,,,,,,,,,,1,4,14,5,,,AMNE20.jpg,AMNE09.jpg,AMSA19.jpg,AMSA18.jpg,AMNE09.jpg,MN,1,num_6,32,num_2,1.26673355163,,,2017_Mar_30_1352,60.0045227688,FEMA4ImagesEEG,001,100112,
AFNE01.JPG,AFNE01.JPG,AFNE01.JPG,AFNE01.JPG,AFNE01.JPG,AFNE01.JPG,,,,,,,,,,,,,,,,,,,,,1,5,15,7,,,AMNE07.jpg,AMSA10.jpg,AMSA04.jpg,AMNE14.jpg,AMNE14.jpg,MN,1,num_4,16,num_4,3.73324271385,,,2017_Mar_30_1352,60.0045227688,FEMA4ImagesEEG,001,100112,
AFNE01.JPG,AFNE01.JPG,AFNE01.JPG,AFNE01.JPG,AFNE01.JPG,AFNE01.JPG,,,,,,,,,,,,,,,,,,,,,1,6,16,0,,,AMSA03.jpg,AMNE14.jpg,AMSA11.jpg,AMNE12.jpg,AMNE12.jpg,MN,1,num_4,16,num_4,0.950127221411,,,2017_Mar_30_1352,60.0045227688,FEMA4ImagesEEG,001,100112,
AFNE01.JPG,AFNE01.JPG,AFNE01.JPG,AFNE01.JPG,AFNE01.JPG,AFNE01.JPG,,,,,,,,,,,,,,,,,,,,,1,7,17,9,,,AMNE03.jpg,AMSA11.jpg,AMSA05.jpg,AMNE15.jpg,AMSA05.jpg,MS,2,num_2,16,num_2,1.01677853521,,,2017_Mar_30_1352,60.0045227688,FEMA4ImagesEEG,001,100112,
AFNE01.JPG,AFNE01.JPG,AFNE01.JPG,AFNE01.JPG,AFNE01.JPG,AFNE01.JPG,,,,,,,,,,,,,,,,,,,,,1,8,18,8,,,AMSA19.jpg,AMSA09.jpg,AMNE06.jpg,AMNE10.jpg,AMNE10.jpg,MN,1,num_4,32,num_8,0.933479227126,,,2017_Mar_30_1352,60.0045227688,FEMA4ImagesEEG,001,100112,
AFNE01.JPG,AFNE01.JPG,AFNE01.JPG,AFNE01.JPG,AFNE01.JPG,AFNE01.JPG,,,,,,,,,,,,,,,,,,,,,1,9,19,4,,,AMNE01.jpg,AMSA11.jpg,AMNE03.jpg,AMSA02.jpg,AMNE03.jpg,MN,1,num_2,16,num_2,2.06671289587,,,2017_Mar_30_1352,60.0045227688,FEMA4ImagesEEG,001,100112,
AFNE01.JPG,AFNE01.JPG,AFNE01.JPG,AFNE01.JPG,AFNE01.JPG,AFNE01.JPG,,,,,,,,,,,,,,,,,,,,,2,0,20,7,,,AMNE07.jpg,AMSA04.jpg,AMNE17.jpg,AMSA14.jpg,AMSA04.jpg,MS,2,num_6,32,num_4,1.88342747581,,,2017_Mar_30_1352,60.0045227688,FEMA4ImagesEEG,001,100112,
AFNE01.JPG,AFNE01.JPG,AFNE01.JPG,AFNE01.JPG,AFNE01.JPG,AFNE01.JPG,,,,,,,,,,,,,,,,,,,,,2,1,21,2,,,AMSA01.jpg,AMSA08.jpg,AMNE16.jpg,AMNE17.jpg,AMSA08.jpg,MS,2,num_6,32,num_2,0.933694122825,,,2017_Mar_30_1352,60.0045227688,FEMA4ImagesEEG,001,100112,
AFNE01.JPG,AFNE01.JPG,AFNE01.JPG,AFNE01.JPG,AFNE01.JPG,AFNE01.JPG,,,,,,,,,,,,,,,,,,,,,2,2,22,1,,,AMNE15.jpg,AMSA18.jpg,AMSA11.jpg,AMNE10.jpg,AMSA11.jpg,MS,2,num_2,16,num_2,0.80016793916,,,2017_Mar_30_1352,60.0045227688,FEMA4ImagesEEG,001,100112,
AFNE01.JPG,AFNE01.JPG,AFNE01.JPG,AFNE01.JPG,AFNE01.JPG,AFNE01.JPG,,,,,,,,,,,,,,,,,,,,,2,3,23,9,,,AMSA02.jpg,AMSA03.jpg,AMNE16.jpg,AMNE04.jpg,AMNE04.jpg,MN,1,num_4,32,num_8,4.46651365259,,,2017_Mar_30_1352,60.0045227688,FEMA4ImagesEEG,001,100112,
AFNE01.JPG,AFNE01.JPG,AFNE01.JPG,AFNE01.JPG,AFNE01.JPG,AFNE01.JPG,,,,,,,,,,,,,,,,,,,,,2,4,24,6,,,AMNE10.jpg,AMNE01.jpg,AMSA07.jpg,AMSA17.jpg,AMNE10.jpg,MN,1,num_8,32,num_6,1.61674203514,,,2017_Mar_30_1352,60.0045227688,FEMA4ImagesEEG,001,100112,
AFNE01.JPG,AFNE01.JPG,AFNE01.JPG,AFNE01.JPG,AFNE01.JPG,AFNE01.JPG,,,,,,,,,,,,,,,,,,,,,2,5,25,0,,,AMSA19.jpg,AMSA11.jpg,AMNE16.jpg,AMNE03.jpg,AMSA11.jpg,MS,2,num_6,32,num_4,0.866776274284,,,2017_Mar_30_1352,60.0045227688,FEMA4ImagesEEG,001,100112,
AFNE01.JPG,AFNE01.JPG,AFNE01.JPG,AFNE01.JPG,AFNE01.JPG,AFNE01.JPG,,,,,,,,,,,,,,,,,,,,,2,6,26,8,,,AMNE14.jpg,AMSA07.jpg,AMSA19.jpg,AMNE08.jpg,AMNE08.jpg,MN,1,num_4,32,num_8,0.983457529219,,,2017_Mar_30_1352,60.0045227688,FEMA4ImagesEEG,001,100112,
AFNE01.JPG,AFNE01.JPG,AFNE01.JPG,AFNE01.JPG,AFNE01.JPG,AFNE01.JPG,,,,,,,,,,,,,,,,,,,,,2,7,27,5,,,AMNE10.jpg,AMSA16.jpg,AMSA03.jpg,AMNE08.jpg,AMSA16.jpg,MS,2,num_6,32,num_2,0.950131070102,,,2017_Mar_30_1352,60.0045227688,FEMA4ImagesEEG,001,100112,
AFNE01.JPG,AFNE01.JPG,AFNE01.JPG,AFNE01.JPG,AFNE01.JPG,AFNE01.JPG,,,,,,,,,,,,,,,,,,,,,2,8,28,3,,,AMNE02.jpg,AMNE09.jpg,AMSA20.jpg,AMSA09.jpg,AMSA20.jpg,MS,2,num_2,32,num_4,0.900092469295,,,2017_Mar_30_1352,60.0045227688,FEMA4ImagesEEG,001,100112,
AFNE01.JPG,AFNE01.JPG,AFNE01.JPG,AFNE01.JPG,AFNE01.JPG,AFNE01.JPG,,,,,,,,,,,,,,,,,,,,,2,9,29,4,,,AMNE04.jpg,AMSA10.jpg,AMNE20.jpg,AMSA03.jpg,AMNE20.jpg,MN,1,num_2,16,num_2,1.31677215267,,,2017_Mar_30_1352,60.0045227688,FEMA4ImagesEEG,001,100112,
AFNE01.JPG,AFNE01.JPG,AFNE01.JPG,AFNE01.JPG,AFNE01.JPG,AFNE01.JPG,,,,,,,,,,,,,,,,,,,,,3,0,30,6,,,AMNE08.jpg,AMSA01.jpg,AMSA11.jpg,AMNE07.jpg,AMSA01.jpg,MS,2,num_6,16,num_6,1.03345571691,,,2017_Mar_30_1352,60.0045227688,FEMA4ImagesEEG,001,100112,
AFNE01.JPG,AFNE01.JPG,AFNE01.JPG,AFNE01.JPG,AFNE01.JPG,AFNE01.JPG,,,,,,,,,,,,,,,,,,,,,3,1,31,4,,,AMSA19.jpg,AMNE04.jpg,AMNE14.jpg,AMSA05.jpg,AMNE14.jpg,MN,1,num_2,16,num_2,0.783487229608,,,2017_Mar_30_1352,60.0045227688,FEMA4ImagesEEG,001,100112,
AFNE01.JPG,AFNE01.JPG,AFNE01.JPG,AFNE01.JPG,AFNE01.JPG,AFNE01.JPG,,,,,,,,,,,,,,,,,,,,,3,2,32,3,,,AMSA04.jpg,AMSA10.jpg,AMNE16.jpg,AMNE17.jpg,AMSA04.jpg,MS,2,num_8,16,num_8,0.666647208389,,,2017_Mar_30_1352,60.0045227688,FEMA4ImagesEEG,001,100112,
AFNE01.JPG,AFNE01.JPG,AFNE01.JPG,AFNE01.JPG,AFNE01.JPG,AFNE01.JPG,,,,,,,,,,,,,,,,,,,,,3,3,33,5,,,AMSA03.jpg,AMNE20.jpg,AMNE14.jpg,AMSA16.jpg,AMNE14.jpg,MN,1,num_2,16,num_2,1.21666287654,,,2017_Mar_30_1352,60.0045227688,FEMA4ImagesEEG,001,100112,
AFNE01.JPG,AFNE01.JPG,AFNE01.JPG,AFNE01.JPG,AFNE01.JPG,AFNE01.JPG,,,,,,,,,,,,,,,,,,,,,3,4,34,1,,,AMSA03.jpg,AMNE12.jpg,AMSA20.jpg,AMNE16.jpg,AMNE12.jpg,MN,1,num_6,32,num_4,1.03349003592,,,2017_Mar_30_1352,60.0045227688,FEMA4ImagesEEG,001,100112,
AFNE01.JPG,AFNE01.JPG,AFNE01.JPG,AFNE01.JPG,AFNE01.JPG,AFNE01.JPG,,,,,,,,,,,,,,,,,,,,,3,5,35,2,,,AMSA07.jpg,AMNE16.jpg,AMSA08.jpg,AMNE07.jpg,AMSA08.jpg,MS,2,num_2,16,num_2,1.08353697625,,,2017_Mar_30_1352,60.0045227688,FEMA4ImagesEEG,001,100112,
AFNE01.JPG,AFNE01.JPG,AFNE01.JPG,AFNE01.JPG,AFNE01.JPG,AFNE01.JPG,,,,,,,,,,,,,,,,,,,,,3,6,36,9,,,AMSA11.jpg,AMSA04.jpg,AMNE01.jpg,AMNE07.jpg,AMSA11.jpg,MS,2,num_8,32,num_2,0.966639542719,,,2017_Mar_30_1352,60.0045227688,FEMA4ImagesEEG,001,100112,
AFNE01.JPG,AFNE01.JPG,AFNE01.JPG,AFNE01.JPG,AFNE01.JPG,AFNE01.JPG,,,,,,,,,,,,,,,,,,,,,3,7,37,7,,,AMSA20.jpg,AMNE19.jpg,AMSA10.jpg,AMNE08.jpg,AMNE08.jpg,MN,1,num_4,16,num_4,1.13348769466,,,2017_Mar_30_1352,60.0045227688,FEMA4ImagesEEG,001,100112,
AFNE01.JPG,AFNE01.JPG,AFNE01.JPG,AFNE01.JPG,AFNE01.JPG,AFNE01.JPG,,,,,,,,,,,,,,,,,,,,,3,8,38,8,,,AMNE09.jpg,AMNE16.jpg,AMSA05.jpg,AMSA13.jpg,AMNE16.jpg,MN,1,num_6,32,num_2,1.15007057879,,,2017_Mar_30_1352,60.0045227688,FEMA4ImagesEEG,001,100112,
AFNE01.JPG,AFNE01.JPG,AFNE01.JPG,AFNE01.JPG,AFNE01.JPG,AFNE01.JPG,,,,,,,,,,,,,,,,,,,,,3,9,39,0,,,AMSA13.jpg,AMNE20.jpg,AMSA05.jpg,AMNE05.jpg,AMNE05.jpg,MN,1,num_4,32,num_6,1.2498501346,,,2017_Mar_30_1352,60.0045227688,FEMA4ImagesEEG,001,100112,
