IPosition2,IPosition3,IPosition1,IPosition6,IPosition4,IPosition5,TrialsM1.thisRepN,TrialsM1.thisTrialN,TrialsM1.thisN,TrialsM1.thisIndex,TrialsF1.thisRepN,TrialsF1.thisTrialN,TrialsF1.thisN,TrialsF1.thisIndex,TrialsM2.thisRepN,TrialsM2.thisTrialN,TrialsM2.thisN,TrialsM2.thisIndex,TrialsF2.thisRepN,TrialsF2.thisTrialN,TrialsF2.thisN,TrialsF2.thisIndex,TrialsM3.thisRepN,TrialsM3.thisTrialN,TrialsM3.thisN,TrialsM3.thisIndex,TrialsF3.thisRepN,TrialsF3.thisTrialN,TrialsF3.thisN,TrialsF3.thisIndex,InstrKey_resp.keys,InstrKey_resp.rt,Image0 _Position,Image1 _Position,Image2 _Position,Image3 _Position,Center_image,condition,code,correct_answer,accuracy,Key_Resp.keys,Key_Resp.rt,BreakKey_resp.keys,BreakKey_resp.rt,date,frameRate,expName,session,participant,
,,,,,,,,,,,,,,,,,,,,,,,,,,,,,,space,61.762056502,,,,,,,,,,,,,,2017_Apr_20_1637,59.9966709068,MAFE4ImagesEEG,001,100199,
AFSA21.JPG,AFNE23.JPG,AFNE21.JPG,AFSA25.JPG,AFNE25.JPG,AFSA23.JPG,0,0,0,4,,,,,,,,,,,,,,,,,,,,,,,AMSA03.jpg,AMNE17.jpg,AMSA05.jpg,AMNE15.jpg,AMSA03.jpg,MS,2,num_8,16,num_8,1.83337219624,,,2017_Apr_20_1637,59.9966709068,MAFE4ImagesEEG,001,100199,
AMNE22.JPG,AMSA24.JPG,AMSA22.JPG,AMNE25.JPG,AMNE24.JPG,AMSA25.JPG,0,1,1,7,,,,,,,,,,,,,,,,,,,,,,,AMSA06.jpg,AMNE16.jpg,AMSA14.jpg,AMNE07.jpg,AMNE16.jpg,MN,1,num_6,16,num_6,1.31669681083,,,2017_Apr_20_1637,59.9966709068,MAFE4ImagesEEG,001,100199,
AMSA21.JPG,AMNE22.JPG,AMNE21.JPG,AMSA23.JPG,AMSA22.JPG,AMNE23.JPG,0,2,2,1,,,,,,,,,,,,,,,,,,,,,,,AMSA08.jpg,AMNE03.jpg,AMNE19.jpg,AMSA04.jpg,AMNE19.jpg,MN,1,num_2,16,num_2,0.816746044264,,,2017_Apr_20_1637,59.9966709068,MAFE4ImagesEEG,001,100199,
AMSA25.JPG,AMNE24.JPG,AMSA24.JPG,AMNE26.JPG,AMSA21.JPG,AMNE25.JPG,0,3,3,3,,,,,,,,,,,,,,,,,,,,,,,AMNE12.jpg,AMSA08.jpg,AMSA15.jpg,AMNE05.jpg,AMSA08.jpg,MS,2,num_6,16,num_6,1.0167868422,,,2017_Apr_20_1637,59.9966709068,MAFE4ImagesEEG,001,100199,
AFSA21.JPG,AFNE22.JPG,AFNE21.JPG,AFSA23.JPG,AFSA22.JPG,AFNE23.JPG,0,4,4,0,,,,,,,,,,,,,,,,,,,,,,,AMNE10.jpg,AMNE03.jpg,AMSA04.jpg,AMSA03.jpg,AMSA03.jpg,MS,2,num_4,32,num_8,1.13346209942,,,2017_Apr_20_1637,59.9966709068,MAFE4ImagesEEG,001,100199,
AFSA25.JPG,AFNE24.JPG,AFSA24.JPG,AFNE21.JPG,AFSA21.JPG,AFNE25.JPG,0,5,5,2,,,,,,,,,,,,,,,,,,,,,,,AMNE18.jpg,AMSA01.jpg,AMNE07.jpg,AMSA18.jpg,AMSA18.jpg,MS,2,num_4,16,num_4,0.633581253991,,,2017_Apr_20_1637,59.9966709068,MAFE4ImagesEEG,001,100199,
AMSA21.JPG,AMNE23.JPG,AMNE21.JPG,AMSA25.JPG,AMNE25.JPG,AMSA23.JPG,0,6,6,5,,,,,,,,,,,,,,,,,,,,,,,AMNE09.jpg,AMNE17.jpg,AMSA03.jpg,AMSA16.jpg,AMNE09.jpg,MN,1,num_8,32,num_2,1.50021890446,,,2017_Apr_20_1637,59.9966709068,MAFE4ImagesEEG,001,100199,
AFNE23.JPG,AFNE24.JPG,AFNE22.JPG,AFSA24.JPG,AFSA22.JPG,AFSA23.JPG,0,7,7,8,,,,,,,,,,,,,,,,,,,,,,,AMSA18.jpg,AMNE15.jpg,AMSA10.jpg,AMNE06.jpg,AMNE15.jpg,MN,1,num_6,16,num_6,0.76648622955,,,2017_Apr_20_1637,59.9966709068,MAFE4ImagesEEG,001,100199,
AMNE23.JPG,AMNE24.JPG,AMNE22.JPG,AMSA24.JPG,AMSA22.JPG,AMSA23.JPG,0,8,8,9,,,,,,,,,,,,,,,,,,,,,,,AMSA08.jpg,AMSA01.jpg,AMNE07.jpg,AMNE14.jpg,AMSA01.jpg,MS,2,num_6,32,num_8,0.983378017612,,,2017_Apr_20_1637,59.9966709068,MAFE4ImagesEEG,001,100199,
AFNE22.JPG,AFSA24.JPG,AFSA22.JPG,AFNE25.JPG,AFNE24.JPG,AFSA25.JPG,0,9,9,6,,,,,,,,,,,,,,,,,,,,,,,AMNE16.jpg,AMNE11.jpg,AMSA08.jpg,AMSA10.jpg,AMNE11.jpg,MN,1,num_6,32,num_2,1.30009407277,,,2017_Apr_20_1637,59.9966709068,MAFE4ImagesEEG,001,100199,
AMSA21.JPG,AMNE22.JPG,AMNE21.JPG,AMSA23.JPG,AMSA22.JPG,AMNE23.JPG,,,,,0,0,0,1,,,,,,,,,,,,,,,,,,,AFNE08.jpg,AFSA15.jpg,AFNE04.jpg,AFSA13.jpg,AFNE04.jpg,FN,3,num_2,32,num_8,1.06675735035,,,2017_Apr_20_1637,59.9966709068,MAFE4ImagesEEG,001,100199,
AMNE22.JPG,AMSA24.JPG,AMSA22.JPG,AMNE25.JPG,AMNE24.JPG,AMSA25.JPG,,,,,0,1,1,7,,,,,,,,,,,,,,,,,,,AFNE13.jpg,AFNE05.jpg,AFSA11.jpg,AFSA18.jpg,AFNE13.jpg,FN,3,num_8,32,num_6,0.900118962163,,,2017_Apr_20_1637,59.9966709068,MAFE4ImagesEEG,001,100199,
AFSA21.JPG,AFNE22.JPG,AFNE21.JPG,AFSA23.JPG,AFSA22.JPG,AFNE23.JPG,,,,,0,2,2,0,,,,,,,,,,,,,,,,,,,AFNE09.jpg,AFSA05.jpg,AFSA04.jpg,AFNE12.jpg,AFSA05.jpg,FS,4,num_6,32,num_2,1.1167605737,,,2017_Apr_20_1637,59.9966709068,MAFE4ImagesEEG,001,100199,
AMSA21.JPG,AMNE23.JPG,AMNE21.JPG,AMSA25.JPG,AMNE25.JPG,AMSA23.JPG,,,,,0,3,3,5,,,,,,,,,,,,,,,,,,,AFSA07.jpg,AFSA12.jpg,AFNE16.jpg,AFNE15.jpg,AFNE16.jpg,FN,3,num_2,32,num_8,1.31672920543,,,2017_Apr_20_1637,59.9966709068,MAFE4ImagesEEG,001,100199,
AFSA25.JPG,AFNE24.JPG,AFSA24.JPG,AFNE21.JPG,AFSA21.JPG,AFNE25.JPG,,,,,0,4,4,2,,,,,,,,,,,,,,,,,,,AFSA16.jpg,AFNE07.jpg,AFSA11.jpg,AFNE13.jpg,AFNE13.jpg,FN,3,num_4,32,num_2,2.18340181647,,,2017_Apr_20_1637,59.9966709068,MAFE4ImagesEEG,001,100199,
AMSA25.JPG,AMNE24.JPG,AMSA24.JPG,AMNE26.JPG,AMSA21.JPG,AMNE25.JPG,,,,,0,5,5,3,,,,,,,,,,,,,,,,,,,AFNE01.jpg,AFSA01.jpg,AFNE20.jpg,AFSA08.jpg,AFSA01.jpg,FS,4,num_6,32,num_4,1.28341531957,,,2017_Apr_20_1637,59.9966709068,MAFE4ImagesEEG,001,100199,
AMNE23.JPG,AMNE24.JPG,AMNE22.JPG,AMSA24.JPG,AMSA22.JPG,AMSA23.JPG,,,,,0,6,6,9,,,,,,,,,,,,,,,,,,,AFNE08.jpg,AFSA09.jpg,AFSA02.jpg,AFNE10.jpg,AFSA02.jpg,FS,4,num_2,32,num_6,1.33348108712,,,2017_Apr_20_1637,59.9966709068,MAFE4ImagesEEG,001,100199,
AFNE23.JPG,AFNE24.JPG,AFNE22.JPG,AFSA24.JPG,AFSA22.JPG,AFSA23.JPG,,,,,0,7,7,8,,,,,,,,,,,,,,,,,,,AFSA06.jpg,AFSA20.jpg,AFNE19.jpg,AFNE20.jpg,AFSA20.jpg,FS,4,num_6,16,num_6,1.08346272481,,,2017_Apr_20_1637,59.9966709068,MAFE4ImagesEEG,001,100199,
AFSA21.JPG,AFNE23.JPG,AFNE21.JPG,AFSA25.JPG,AFNE25.JPG,AFSA23.JPG,,,,,0,8,8,4,,,,,,,,,,,,,,,,,,,AFNE07.jpg,AFNE12.jpg,AFSA01.jpg,AFSA08.jpg,AFSA08.jpg,FS,4,num_4,16,num_4,1.24994972412,,,2017_Apr_20_1637,59.9966709068,MAFE4ImagesEEG,001,100199,
AFNE22.JPG,AFSA24.JPG,AFSA22.JPG,AFNE25.JPG,AFNE24.JPG,AFSA25.JPG,,,,,0,9,9,6,,,,,,,,,,,,,,,,,,,AFSA01.jpg,AFSA18.jpg,AFNE06.jpg,AFNE17.jpg,AFNE06.jpg,FN,3,num_2,16,num_2,1.13343291212,,,2017_Apr_20_1637,59.9966709068,MAFE4ImagesEEG,001,100199,
AMSA25.JPG,AMNE24.JPG,AMSA24.JPG,AMNE26.JPG,AMSA21.JPG,AMNE25.JPG,,,,,,,,,0,0,0,3,,,,,,,,,,,,,,,AMNE11.jpg,AMSA04.jpg,AMNE01.jpg,AMSA17.jpg,AMSA17.jpg,MS,2,num_4,32,num_6,1.15016522876,,,2017_Apr_20_1637,59.9966709068,MAFE4ImagesEEG,001,100199,
AMNE23.JPG,AMNE24.JPG,AMNE22.JPG,AMSA24.JPG,AMSA22.JPG,AMSA23.JPG,,,,,,,,,0,1,1,9,,,,,,,,,,,,,,,AMNE03.jpg,AMSA06.jpg,AMSA19.jpg,AMNE20.jpg,AMNE03.jpg,MN,1,num_8,32,num_4,1.45006525435,,,2017_Apr_20_1637,59.9966709068,MAFE4ImagesEEG,001,100199,
AFSA25.JPG,AFNE24.JPG,AFSA24.JPG,AFNE21.JPG,AFSA21.JPG,AFNE25.JPG,,,,,,,,,0,2,2,2,,,,,,,,,,,,,,,AMNE04.jpg,AMSA03.jpg,AMSA10.jpg,AMNE15.jpg,AMNE04.jpg,MN,1,num_8,16,num_8,0.950091394596,,,2017_Apr_20_1637,59.9966709068,MAFE4ImagesEEG,001,100199,
AMSA21.JPG,AMNE22.JPG,AMNE21.JPG,AMSA23.JPG,AMSA22.JPG,AMNE23.JPG,,,,,,,,,0,3,3,1,,,,,,,,,,,,,,,AMNE10.jpg,AMSA08.jpg,AMSA09.jpg,AMNE04.jpg,AMSA08.jpg,MS,2,num_6,32,num_8,1.1667525713,,,2017_Apr_20_1637,59.9966709068,MAFE4ImagesEEG,001,100199,
AFNE22.JPG,AFSA24.JPG,AFSA22.JPG,AFNE25.JPG,AFNE24.JPG,AFSA25.JPG,,,,,,,,,0,4,4,6,,,,,,,,,,,,,,,AMNE05.jpg,AMSA10.jpg,AMNE11.jpg,AMSA07.jpg,AMSA10.jpg,MS,2,num_6,32,num_2,1.31676192081,,,2017_Apr_20_1637,59.9966709068,MAFE4ImagesEEG,001,100199,
AFSA21.JPG,AFNE23.JPG,AFNE21.JPG,AFSA25.JPG,AFNE25.JPG,AFSA23.JPG,,,,,,,,,0,5,5,4,,,,,,,,,,,,,,,AMNE05.jpg,AMSA13.jpg,AMSA15.jpg,AMNE15.jpg,AMNE05.jpg,MN,1,num_8,16,num_8,0.866772360867,,,2017_Apr_20_1637,59.9966709068,MAFE4ImagesEEG,001,100199,
AFNE23.JPG,AFNE24.JPG,AFNE22.JPG,AFSA24.JPG,AFSA22.JPG,AFSA23.JPG,,,,,,,,,0,6,6,8,,,,,,,,,,,,,,,AMSA13.jpg,AMSA19.jpg,AMNE18.jpg,AMNE11.jpg,AMNE18.jpg,MN,1,num_2,16,num_2,1.36658585112,,,2017_Apr_20_1637,59.9966709068,MAFE4ImagesEEG,001,100199,
AMNE22.JPG,AMSA24.JPG,AMSA22.JPG,AMNE25.JPG,AMNE24.JPG,AMSA25.JPG,,,,,,,,,0,7,7,7,,,,,,,,,,,,,,,AMSA08.jpg,AMNE01.jpg,AMNE09.jpg,AMSA10.jpg,AMNE01.jpg,MN,1,num_6,32,num_8,1.08329754422,,,2017_Apr_20_1637,59.9966709068,MAFE4ImagesEEG,001,100199,
AMSA21.JPG,AMNE23.JPG,AMNE21.JPG,AMSA25.JPG,AMNE25.JPG,AMSA23.JPG,,,,,,,,,0,8,8,5,,,,,,,,,,,,,,,AMNE15.jpg,AMSA02.jpg,AMNE19.jpg,AMSA14.jpg,AMNE15.jpg,MN,1,num_8,32,num_2,1.44978460768,,,2017_Apr_20_1637,59.9966709068,MAFE4ImagesEEG,001,100199,
AFSA21.JPG,AFNE22.JPG,AFNE21.JPG,AFSA23.JPG,AFSA22.JPG,AFNE23.JPG,,,,,,,,,0,9,9,0,,,,,,,,,,,,,,,AMSA11.jpg,AMNE16.jpg,AMSA07.jpg,AMNE09.jpg,AMNE16.jpg,MN,1,num_6,16,num_6,0.916843901738,,,2017_Apr_20_1637,59.9966709068,MAFE4ImagesEEG,001,100199,
AMNE23.JPG,AMNE24.JPG,AMNE22.JPG,AMSA24.JPG,AMSA22.JPG,AMSA23.JPG,,,,,,,,,,,,,0,0,0,9,,,,,,,,,,,AFSA10.jpg,AFNE14.jpg,AFSA06.jpg,AFNE05.jpg,AFSA10.jpg,FS,4,num_8,16,num_8,0.86661102908,,,2017_Apr_20_1637,59.9966709068,MAFE4ImagesEEG,001,100199,
AFSA25.JPG,AFNE24.JPG,AFSA24.JPG,AFNE21.JPG,AFSA21.JPG,AFNE25.JPG,,,,,,,,,,,,,0,1,1,2,,,,,,,,,,,AFNE16.jpg,AFSA13.jpg,AFSA19.jpg,AFNE04.jpg,AFNE16.jpg,FN,3,num_8,16,num_8,0.90010581183,,,2017_Apr_20_1637,59.9966709068,MAFE4ImagesEEG,001,100199,
AMNE22.JPG,AMSA24.JPG,AMSA22.JPG,AMNE25.JPG,AMNE24.JPG,AMSA25.JPG,,,,,,,,,,,,,0,2,2,7,,,,,,,,,,,AFNE08.jpg,AFNE19.jpg,AFSA04.jpg,AFSA06.jpg,AFNE08.jpg,FN,3,num_8,32,num_4,1.06673457782,,,2017_Apr_20_1637,59.9966709068,MAFE4ImagesEEG,001,100199,
AMSA25.JPG,AMNE24.JPG,AMSA24.JPG,AMNE26.JPG,AMSA21.JPG,AMNE25.JPG,,,,,,,,,,,,,0,3,3,3,,,,,,,,,,,AFNE07.jpg,AFNE08.jpg,AFSA16.jpg,AFSA11.jpg,AFSA16.jpg,FS,4,num_2,32,num_4,0.966843276285,,,2017_Apr_20_1637,59.9966709068,MAFE4ImagesEEG,001,100199,
AFSA21.JPG,AFNE23.JPG,AFNE21.JPG,AFSA25.JPG,AFNE25.JPG,AFSA23.JPG,,,,,,,,,,,,,0,4,4,4,,,,,,,,,,,AFSA09.jpg,AFSA11.jpg,AFNE05.jpg,AFNE16.jpg,AFNE05.jpg,FN,3,num_2,32,num_4,1.05013729236,,,2017_Apr_20_1637,59.9966709068,MAFE4ImagesEEG,001,100199,
AFNE23.JPG,AFNE24.JPG,AFNE22.JPG,AFSA24.JPG,AFSA22.JPG,AFSA23.JPG,,,,,,,,,,,,,0,5,5,8,,,,,,,,,,,AFSA13.jpg,AFSA20.jpg,AFNE11.jpg,AFNE09.jpg,AFSA13.jpg,FS,4,num_8,16,num_8,0.916753453319,,,2017_Apr_20_1637,59.9966709068,MAFE4ImagesEEG,001,100199,
AMSA21.JPG,AMNE23.JPG,AMNE21.JPG,AMSA25.JPG,AMNE25.JPG,AMSA23.JPG,,,,,,,,,,,,,0,6,6,5,,,,,,,,,,,AFSA02.jpg,AFNE12.jpg,AFSA06.jpg,AFNE18.jpg,AFNE12.jpg,FN,3,num_6,32,num_2,1.55009543593,,,2017_Apr_20_1637,59.9966709068,MAFE4ImagesEEG,001,100199,
AFNE22.JPG,AFSA24.JPG,AFSA22.JPG,AFNE25.JPG,AFNE24.JPG,AFSA25.JPG,,,,,,,,,,,,,0,7,7,6,,,,,,,,,,,AFSA10.jpg,AFNE19.jpg,AFSA01.jpg,AFNE20.jpg,AFSA10.jpg,FS,4,num_8,32,num_6,0.833398176124,,,2017_Apr_20_1637,59.9966709068,MAFE4ImagesEEG,001,100199,
AFSA21.JPG,AFNE22.JPG,AFNE21.JPG,AFSA23.JPG,AFSA22.JPG,AFNE23.JPG,,,,,,,,,,,,,0,8,8,0,,,,,,,,,,,AFSA14.jpg,AFNE17.jpg,AFSA06.jpg,AFNE04.jpg,AFNE04.jpg,FN,3,num_4,16,num_4,0.833435061097,,,2017_Apr_20_1637,59.9966709068,MAFE4ImagesEEG,001,100199,
AMSA21.JPG,AMNE22.JPG,AMNE21.JPG,AMSA23.JPG,AMSA22.JPG,AMNE23.JPG,,,,,,,,,,,,,0,9,9,1,,,,,,,,,,,AFNE06.jpg,AFNE20.jpg,AFSA08.jpg,AFSA16.jpg,AFNE06.jpg,FN,3,num_8,16,num_8,1.06647606211,,,2017_Apr_20_1637,59.9966709068,MAFE4ImagesEEG,001,100199,
AMSA25.JPG,AMNE24.JPG,AMSA24.JPG,AMNE26.JPG,AMSA21.JPG,AMNE25.JPG,,,,,,,,,,,,,,,,,0,0,0,3,,,,,,,AMNE08.jpg,AMSA07.jpg,AMNE12.jpg,AMSA19.jpg,AMNE12.jpg,MN,1,num_2,16,num_2,0.933479675907,,,2017_Apr_20_1637,59.9966709068,MAFE4ImagesEEG,001,100199,
AFSA21.JPG,AFNE23.JPG,AFNE21.JPG,AFSA25.JPG,AFNE25.JPG,AFSA23.JPG,,,,,,,,,,,,,,,,,0,1,1,4,,,,,,,AMSA06.jpg,AMSA13.jpg,AMNE15.jpg,AMNE05.jpg,AMSA06.jpg,MS,2,num_8,16,num_8,1.09998976841,,,2017_Apr_20_1637,59.9966709068,MAFE4ImagesEEG,001,100199,
AMSA21.JPG,AMNE23.JPG,AMNE21.JPG,AMSA25.JPG,AMNE25.JPG,AMSA23.JPG,,,,,,,,,,,,,,,,,0,2,2,5,,,,,,,AMNE18.jpg,AMSA18.jpg,AMNE03.jpg,AMSA14.jpg,AMNE18.jpg,MN,1,num_8,16,num_8,1.06659890519,,,2017_Apr_20_1637,59.9966709068,MAFE4ImagesEEG,001,100199,
AFSA21.JPG,AFNE22.JPG,AFNE21.JPG,AFSA23.JPG,AFSA22.JPG,AFNE23.JPG,,,,,,,,,,,,,,,,,0,3,3,0,,,,,,,AMSA04.jpg,AMNE09.jpg,AMNE10.jpg,AMSA17.jpg,AMNE09.jpg,MN,1,num_6,16,num_6,0.983426769963,,,2017_Apr_20_1637,59.9966709068,MAFE4ImagesEEG,001,100199,
AMNE22.JPG,AMSA24.JPG,AMSA22.JPG,AMNE25.JPG,AMNE24.JPG,AMSA25.JPG,,,,,,,,,,,,,,,,,0,4,4,7,,,,,,,AMNE12.jpg,AMNE04.jpg,AMSA18.jpg,AMSA08.jpg,AMNE12.jpg,MN,1,num_8,16,num_8,0.833447249141,,,2017_Apr_20_1637,59.9966709068,MAFE4ImagesEEG,001,100199,
AFNE23.JPG,AFNE24.JPG,AFNE22.JPG,AFSA24.JPG,AFSA22.JPG,AFSA23.JPG,,,,,,,,,,,,,,,,,0,5,5,8,,,,,,,AMNE20.jpg,AMNE03.jpg,AMSA18.jpg,AMSA02.jpg,AMNE03.jpg,MN,1,num_6,32,num_8,1.48351288843,,,2017_Apr_20_1637,59.9966709068,MAFE4ImagesEEG,001,100199,
AFNE22.JPG,AFSA24.JPG,AFSA22.JPG,AFNE25.JPG,AFNE24.JPG,AFSA25.JPG,,,,,,,,,,,,,,,,,0,6,6,6,,,,,,,AMNE05.jpg,AMSA20.jpg,AMSA05.jpg,AMNE17.jpg,AMSA20.jpg,MS,2,num_6,16,num_6,1.08341140655,,,2017_Apr_20_1637,59.9966709068,MAFE4ImagesEEG,001,100199,
AMSA21.JPG,AMNE22.JPG,AMNE21.JPG,AMSA23.JPG,AMSA22.JPG,AMNE23.JPG,,,,,,,,,,,,,,,,,0,7,7,1,,,,,,,AMSA08.jpg,AMNE15.jpg,AMNE12.jpg,AMSA09.jpg,AMSA08.jpg,MS,2,num_8,16,num_8,1.03347136872,,,2017_Apr_20_1637,59.9966709068,MAFE4ImagesEEG,001,100199,
AMNE23.JPG,AMNE24.JPG,AMNE22.JPG,AMSA24.JPG,AMSA22.JPG,AMSA23.JPG,,,,,,,,,,,,,,,,,0,8,8,9,,,,,,,AMSA18.jpg,AMNE14.jpg,AMNE19.jpg,AMSA17.jpg,AMSA18.jpg,MS,2,num_8,32,num_2,1.30011909042,,,2017_Apr_20_1637,59.9966709068,MAFE4ImagesEEG,001,100199,
AFSA25.JPG,AFNE24.JPG,AFSA24.JPG,AFNE21.JPG,AFSA21.JPG,AFNE25.JPG,,,,,,,,,,,,,,,,,0,9,9,2,,,,,,,AMSA13.jpg,AMNE16.jpg,AMNE13.jpg,AMSA18.jpg,AMNE13.jpg,MN,1,num_2,32,num_6,0.916943651566,,,2017_Apr_20_1637,59.9966709068,MAFE4ImagesEEG,001,100199,
AMSA21.JPG,AMNE22.JPG,AMNE21.JPG,AMSA23.JPG,AMSA22.JPG,AMNE23.JPG,,,,,,,,,,,,,,,,,,,,,0,0,0,1,,,AFNE04.jpg,AFSA08.jpg,AFNE19.jpg,AFSA14.jpg,AFSA14.jpg,FS,4,num_4,32,num_8,1.33304007089,,,2017_Apr_20_1637,59.9966709068,MAFE4ImagesEEG,001,100199,
AFNE22.JPG,AFSA24.JPG,AFSA22.JPG,AFNE25.JPG,AFNE24.JPG,AFSA25.JPG,,,,,,,,,,,,,,,,,,,,,0,1,1,6,,,AFNE03.jpg,AFNE05.jpg,AFSA13.jpg,AFSA14.jpg,AFSA14.jpg,FS,4,num_4,16,num_4,1.2500847553,,,2017_Apr_20_1637,59.9966709068,MAFE4ImagesEEG,001,100199,
AMSA21.JPG,AMNE23.JPG,AMNE21.JPG,AMSA25.JPG,AMNE25.JPG,AMSA23.JPG,,,,,,,,,,,,,,,,,,,,,0,2,2,5,,,AFSA05.jpg,AFNE20.jpg,AFSA12.jpg,AFNE07.jpg,AFNE20.jpg,FN,3,num_6,16,num_6,0.933448884985,,,2017_Apr_20_1637,59.9966709068,MAFE4ImagesEEG,001,100199,
AMNE23.JPG,AMNE24.JPG,AMNE22.JPG,AMSA24.JPG,AMSA22.JPG,AMSA23.JPG,,,,,,,,,,,,,,,,,,,,,0,3,3,9,,,AFSA14.jpg,AFSA19.jpg,AFNE01.jpg,AFNE18.jpg,AFSA14.jpg,FS,4,num_8,32,num_6,1.43340189662,,,2017_Apr_20_1637,59.9966709068,MAFE4ImagesEEG,001,100199,
AMNE22.JPG,AMSA24.JPG,AMSA22.JPG,AMNE25.JPG,AMNE24.JPG,AMSA25.JPG,,,,,,,,,,,,,,,,,,,,,0,4,4,7,,,AFNE13.jpg,AFSA11.jpg,AFSA17.jpg,AFNE12.jpg,AFNE13.jpg,FN,3,num_8,16,num_8,1.38351285632,,,2017_Apr_20_1637,59.9966709068,MAFE4ImagesEEG,001,100199,
AFSA21.JPG,AFNE22.JPG,AFNE21.JPG,AFSA23.JPG,AFSA22.JPG,AFNE23.JPG,,,,,,,,,,,,,,,,,,,,,0,5,5,0,,,AFNE13.jpg,AFSA02.jpg,AFSA05.jpg,AFNE11.jpg,AFSA02.jpg,FS,4,num_6,16,num_6,0.733489875391,,,2017_Apr_20_1637,59.9966709068,MAFE4ImagesEEG,001,100199,
AFSA25.JPG,AFNE24.JPG,AFSA24.JPG,AFNE21.JPG,AFSA21.JPG,AFNE25.JPG,,,,,,,,,,,,,,,,,,,,,0,6,6,2,,,AFNE12.jpg,AFSA20.jpg,AFSA10.jpg,AFNE06.jpg,AFNE12.jpg,FN,3,num_8,16,num_8,0.833517170278,,,2017_Apr_20_1637,59.9966709068,MAFE4ImagesEEG,001,100199,
AMSA25.JPG,AMNE24.JPG,AMSA24.JPG,AMNE26.JPG,AMSA21.JPG,AMNE25.JPG,,,,,,,,,,,,,,,,,,,,,0,7,7,3,,,AFNE12.jpg,AFNE09.jpg,AFSA17.jpg,AFSA05.jpg,AFNE12.jpg,FN,3,num_8,32,num_6,1.00010584394,,,2017_Apr_20_1637,59.9966709068,MAFE4ImagesEEG,001,100199,
AFSA21.JPG,AFNE23.JPG,AFNE21.JPG,AFSA25.JPG,AFNE25.JPG,AFSA23.JPG,,,,,,,,,,,,,,,,,,,,,0,8,8,4,,,AFSA16.jpg,AFNE14.jpg,AFSA04.jpg,AFNE13.jpg,AFNE13.jpg,FN,3,num_4,32,num_8,0.933480317355,,,2017_Apr_20_1637,59.9966709068,MAFE4ImagesEEG,001,100199,
AFNE23.JPG,AFNE24.JPG,AFNE22.JPG,AFSA24.JPG,AFSA22.JPG,AFSA23.JPG,,,,,,,,,,,,,,,,,,,,,0,9,9,8,,,AFSA04.jpg,AFSA09.jpg,AFNE14.jpg,AFNE09.jpg,AFNE09.jpg,FN,3,num_4,16,num_4,1.05007731414,,,2017_Apr_20_1637,59.9966709068,MAFE4ImagesEEG,001,100199,
,,,,,,,,,,,,,,,,,,,,,,,,,,,,,,,,,,,,,,,,,,,space,15.76523663,2017_Apr_20_1637,59.9966709068,MAFE4ImagesEEG,001,100199,
AFNE01.JPG,AFNE01.JPG,AFNE01.JPG,AFNE01.JPG,AFNE01.JPG,AFNE01.JPG,0,0,0,6,,,,,,,,,,,,,,,,,,,,,,,AMSA11.jpg,AMSA03.jpg,AMNE07.jpg,AMNE19.jpg,AMSA03.jpg,MS,2,num_6,16,num_6,0.683742601774,,,2017_Apr_20_1637,59.9966709068,MAFE4ImagesEEG,001,100199,
AFNE01.JPG,AFNE01.JPG,AFNE01.JPG,AFNE01.JPG,AFNE01.JPG,AFNE01.JPG,0,1,1,5,,,,,,,,,,,,,,,,,,,,,,,AMNE07.jpg,AMSA17.jpg,AMNE08.jpg,AMSA07.jpg,AMNE07.jpg,MN,1,num_8,16,num_8,1.11674036714,,,2017_Apr_20_1637,59.9966709068,MAFE4ImagesEEG,001,100199,
AFNE01.JPG,AFNE01.JPG,AFNE01.JPG,AFNE01.JPG,AFNE01.JPG,AFNE01.JPG,0,2,2,8,,,,,,,,,,,,,,,,,,,,,,,AMSA03.jpg,AMNE08.jpg,AMSA14.jpg,AMNE19.jpg,AMNE08.jpg,MN,1,num_6,16,num_6,0.816931752197,,,2017_Apr_20_1637,59.9966709068,MAFE4ImagesEEG,001,100199,
AFNE01.JPG,AFNE01.JPG,AFNE01.JPG,AFNE01.JPG,AFNE01.JPG,AFNE01.JPG,0,3,3,9,,,,,,,,,,,,,,,,,,,,,,,AMSA03.jpg,AMNE05.jpg,AMNE06.jpg,AMSA06.jpg,AMNE06.jpg,MN,1,num_2,16,num_2,1.05011901021,,,2017_Apr_20_1637,59.9966709068,MAFE4ImagesEEG,001,100199,
AFNE01.JPG,AFNE01.JPG,AFNE01.JPG,AFNE01.JPG,AFNE01.JPG,AFNE01.JPG,0,4,4,0,,,,,,,,,,,,,,,,,,,,,,,AMNE06.jpg,AMNE19.jpg,AMSA09.jpg,AMSA18.jpg,AMNE19.jpg,MN,1,num_6,16,num_6,0.883427700144,,,2017_Apr_20_1637,59.9966709068,MAFE4ImagesEEG,001,100199,
AFNE01.JPG,AFNE01.JPG,AFNE01.JPG,AFNE01.JPG,AFNE01.JPG,AFNE01.JPG,0,5,5,7,,,,,,,,,,,,,,,,,,,,,,,AMSA17.jpg,AMSA16.jpg,AMNE10.jpg,AMNE19.jpg,AMSA17.jpg,MS,2,num_8,16,num_8,0.8003004684,,,2017_Apr_20_1637,59.9966709068,MAFE4ImagesEEG,001,100199,
AFNE01.JPG,AFNE01.JPG,AFNE01.JPG,AFNE01.JPG,AFNE01.JPG,AFNE01.JPG,0,6,6,4,,,,,,,,,,,,,,,,,,,,,,,AMSA02.jpg,AMNE03.jpg,AMNE16.jpg,AMSA06.jpg,AMSA06.jpg,MS,2,num_4,32,num_2,1.06682117737,,,2017_Apr_20_1637,59.9966709068,MAFE4ImagesEEG,001,100199,
AFNE01.JPG,AFNE01.JPG,AFNE01.JPG,AFNE01.JPG,AFNE01.JPG,AFNE01.JPG,0,7,7,1,,,,,,,,,,,,,,,,,,,,,,,AMSA04.jpg,AMSA12.jpg,AMNE04.jpg,AMNE14.jpg,AMNE04.jpg,MN,1,num_2,32,num_8,0.900117037643,,,2017_Apr_20_1637,59.9966709068,MAFE4ImagesEEG,001,100199,
AFNE01.JPG,AFNE01.JPG,AFNE01.JPG,AFNE01.JPG,AFNE01.JPG,AFNE01.JPG,0,8,8,3,,,,,,,,,,,,,,,,,,,,,,,AMNE02.jpg,AMSA12.jpg,AMSA19.jpg,AMNE20.jpg,AMNE02.jpg,MN,1,num_8,16,num_8,0.850144284486,,,2017_Apr_20_1637,59.9966709068,MAFE4ImagesEEG,001,100199,
AFNE01.JPG,AFNE01.JPG,AFNE01.JPG,AFNE01.JPG,AFNE01.JPG,AFNE01.JPG,0,9,9,2,,,,,,,,,,,,,,,,,,,,,,,AMNE06.jpg,AMSA12.jpg,AMSA05.jpg,AMNE04.jpg,AMNE06.jpg,MN,1,num_8,16,num_8,0.78358675458,,,2017_Apr_20_1637,59.9966709068,MAFE4ImagesEEG,001,100199,
AFNE01.JPG,AFNE01.JPG,AFNE01.JPG,AFNE01.JPG,AFNE01.JPG,AFNE01.JPG,1,0,10,8,,,,,,,,,,,,,,,,,,,,,,,AMSA18.jpg,AMSA16.jpg,AMNE11.jpg,AMNE09.jpg,AMNE11.jpg,MN,1,num_2,16,num_2,1.10007219837,,,2017_Apr_20_1637,59.9966709068,MAFE4ImagesEEG,001,100199,
AFNE01.JPG,AFNE01.JPG,AFNE01.JPG,AFNE01.JPG,AFNE01.JPG,AFNE01.JPG,1,1,11,6,,,,,,,,,,,,,,,,,,,,,,,AMNE16.jpg,AMSA06.jpg,AMNE08.jpg,AMSA03.jpg,AMSA03.jpg,MS,2,num_4,16,num_4,0.88349569682,,,2017_Apr_20_1637,59.9966709068,MAFE4ImagesEEG,001,100199,
AFNE01.JPG,AFNE01.JPG,AFNE01.JPG,AFNE01.JPG,AFNE01.JPG,AFNE01.JPG,1,2,12,1,,,,,,,,,,,,,,,,,,,,,,,AMNE02.jpg,AMNE08.jpg,AMSA10.jpg,AMSA08.jpg,AMSA08.jpg,MS,2,num_4,16,num_4,0.766802157566,,,2017_Apr_20_1637,59.9966709068,MAFE4ImagesEEG,001,100199,
AFNE01.JPG,AFNE01.JPG,AFNE01.JPG,AFNE01.JPG,AFNE01.JPG,AFNE01.JPG,1,3,13,7,,,,,,,,,,,,,,,,,,,,,,,AMNE01.jpg,AMSA11.jpg,AMNE07.jpg,AMSA07.jpg,AMSA11.jpg,MS,2,num_6,32,num_4,1.01674867427,,,2017_Apr_20_1637,59.9966709068,MAFE4ImagesEEG,001,100199,
AFNE01.JPG,AFNE01.JPG,AFNE01.JPG,AFNE01.JPG,AFNE01.JPG,AFNE01.JPG,1,4,14,2,,,,,,,,,,,,,,,,,,,,,,,AMSA04.jpg,AMNE17.jpg,AMSA15.jpg,AMNE01.jpg,AMNE17.jpg,MN,1,num_6,16,num_6,0.75010608451,,,2017_Apr_20_1637,59.9966709068,MAFE4ImagesEEG,001,100199,
AFNE01.JPG,AFNE01.JPG,AFNE01.JPG,AFNE01.JPG,AFNE01.JPG,AFNE01.JPG,1,5,15,4,,,,,,,,,,,,,,,,,,,,,,,AMSA08.jpg,AMSA12.jpg,AMNE07.jpg,AMNE20.jpg,AMSA12.jpg,MS,2,num_6,16,num_6,1.18344351259,,,2017_Apr_20_1637,59.9966709068,MAFE4ImagesEEG,001,100199,
AFNE01.JPG,AFNE01.JPG,AFNE01.JPG,AFNE01.JPG,AFNE01.JPG,AFNE01.JPG,1,6,16,5,,,,,,,,,,,,,,,,,,,,,,,AMSA20.jpg,AMNE12.jpg,AMNE04.jpg,AMSA03.jpg,AMNE04.jpg,MN,1,num_2,16,num_2,0.933498278726,,,2017_Apr_20_1637,59.9966709068,MAFE4ImagesEEG,001,100199,
AFNE01.JPG,AFNE01.JPG,AFNE01.JPG,AFNE01.JPG,AFNE01.JPG,AFNE01.JPG,1,7,17,3,,,,,,,,,,,,,,,,,,,,,,,AMSA15.jpg,AMNE15.jpg,AMSA09.jpg,AMNE04.jpg,AMSA15.jpg,MS,2,num_8,16,num_8,1.63348984334,,,2017_Apr_20_1637,59.9966709068,MAFE4ImagesEEG,001,100199,
AFNE01.JPG,AFNE01.JPG,AFNE01.JPG,AFNE01.JPG,AFNE01.JPG,AFNE01.JPG,1,8,18,0,,,,,,,,,,,,,,,,,,,,,,,AMNE07.jpg,AMNE18.jpg,AMSA04.jpg,AMSA06.jpg,AMNE18.jpg,MN,1,num_6,16,num_6,0.666751448705,,,2017_Apr_20_1637,59.9966709068,MAFE4ImagesEEG,001,100199,
AFNE01.JPG,AFNE01.JPG,AFNE01.JPG,AFNE01.JPG,AFNE01.JPG,AFNE01.JPG,1,9,19,9,,,,,,,,,,,,,,,,,,,,,,,AMNE11.jpg,AMSA03.jpg,AMSA19.jpg,AMNE07.jpg,AMNE11.jpg,MN,1,num_8,16,num_8,1.1501090994,,,2017_Apr_20_1637,59.9966709068,MAFE4ImagesEEG,001,100199,
AFNE01.JPG,AFNE01.JPG,AFNE01.JPG,AFNE01.JPG,AFNE01.JPG,AFNE01.JPG,2,0,20,3,,,,,,,,,,,,,,,,,,,,,,,AMSA11.jpg,AMNE17.jpg,AMNE16.jpg,AMSA06.jpg,AMNE16.jpg,MN,1,num_2,32,num_6,0.850104512821,,,2017_Apr_20_1637,59.9966709068,MAFE4ImagesEEG,001,100199,
AFNE01.JPG,AFNE01.JPG,AFNE01.JPG,AFNE01.JPG,AFNE01.JPG,AFNE01.JPG,2,1,21,2,,,,,,,,,,,,,,,,,,,,,,,AMSA15.jpg,AMNE06.jpg,AMSA05.jpg,AMNE17.jpg,AMNE06.jpg,MN,1,num_6,16,num_6,0.833442117379,,,2017_Apr_20_1637,59.9966709068,MAFE4ImagesEEG,001,100199,
AFNE01.JPG,AFNE01.JPG,AFNE01.JPG,AFNE01.JPG,AFNE01.JPG,AFNE01.JPG,2,2,22,4,,,,,,,,,,,,,,,,,,,,,,,AMNE19.jpg,AMSA20.jpg,AMSA15.jpg,AMNE07.jpg,AMSA15.jpg,MS,2,num_2,16,num_2,1.35008639109,,,2017_Apr_20_1637,59.9966709068,MAFE4ImagesEEG,001,100199,
AFNE01.JPG,AFNE01.JPG,AFNE01.JPG,AFNE01.JPG,AFNE01.JPG,AFNE01.JPG,2,3,23,5,,,,,,,,,,,,,,,,,,,,,,,AMNE05.jpg,AMSA09.jpg,AMSA10.jpg,AMNE06.jpg,AMSA09.jpg,MS,2,num_6,32,num_8,1.20007158897,,,2017_Apr_20_1637,59.9966709068,MAFE4ImagesEEG,001,100199,
AFNE01.JPG,AFNE01.JPG,AFNE01.JPG,AFNE01.JPG,AFNE01.JPG,AFNE01.JPG,2,4,24,6,,,,,,,,,,,,,,,,,,,,,,,AMSA19.jpg,AMSA17.jpg,AMNE12.jpg,AMNE04.jpg,AMNE04.jpg,MN,1,num_4,16,num_4,1.05020753422,,,2017_Apr_20_1637,59.9966709068,MAFE4ImagesEEG,001,100199,
AFNE01.JPG,AFNE01.JPG,AFNE01.JPG,AFNE01.JPG,AFNE01.JPG,AFNE01.JPG,2,5,25,7,,,,,,,,,,,,,,,,,,,,,,,AMSA01.jpg,AMNE16.jpg,AMSA03.jpg,AMNE11.jpg,AMSA01.jpg,MS,2,num_8,16,num_8,0.766819798213,,,2017_Apr_20_1637,59.9966709068,MAFE4ImagesEEG,001,100199,
AFNE01.JPG,AFNE01.JPG,AFNE01.JPG,AFNE01.JPG,AFNE01.JPG,AFNE01.JPG,2,6,26,0,,,,,,,,,,,,,,,,,,,,,,,AMNE20.jpg,AMSA14.jpg,AMSA10.jpg,AMNE16.jpg,AMSA10.jpg,MS,2,num_2,32,num_4,1.36658103997,,,2017_Apr_20_1637,59.9966709068,MAFE4ImagesEEG,001,100199,
AFNE01.JPG,AFNE01.JPG,AFNE01.JPG,AFNE01.JPG,AFNE01.JPG,AFNE01.JPG,2,7,27,9,,,,,,,,,,,,,,,,,,,,,,,AMSA10.jpg,AMNE17.jpg,AMSA04.jpg,AMNE12.jpg,AMNE12.jpg,MN,1,num_4,32,num_2,1.13349256961,,,2017_Apr_20_1637,59.9966709068,MAFE4ImagesEEG,001,100199,
AFNE01.JPG,AFNE01.JPG,AFNE01.JPG,AFNE01.JPG,AFNE01.JPG,AFNE01.JPG,2,8,28,8,,,,,,,,,,,,,,,,,,,,,,,AMNE04.jpg,AMNE01.jpg,AMSA15.jpg,AMSA17.jpg,AMSA17.jpg,MS,2,num_4,16,num_4,1.2500963019,,,2017_Apr_20_1637,59.9966709068,MAFE4ImagesEEG,001,100199,
AFNE01.JPG,AFNE01.JPG,AFNE01.JPG,AFNE01.JPG,AFNE01.JPG,AFNE01.JPG,2,9,29,1,,,,,,,,,,,,,,,,,,,,,,,AMNE02.jpg,AMSA10.jpg,AMSA01.jpg,AMNE05.jpg,AMSA10.jpg,MS,2,num_6,16,num_6,0.683470935735,,,2017_Apr_20_1637,59.9966709068,MAFE4ImagesEEG,001,100199,
AFNE01.JPG,AFNE01.JPG,AFNE01.JPG,AFNE01.JPG,AFNE01.JPG,AFNE01.JPG,3,0,30,5,,,,,,,,,,,,,,,,,,,,,,,AMSA04.jpg,AMNE03.jpg,AMNE07.jpg,AMSA18.jpg,AMSA04.jpg,MS,2,num_8,16,num_8,0.750095179363,,,2017_Apr_20_1637,59.9966709068,MAFE4ImagesEEG,001,100199,
AFNE01.JPG,AFNE01.JPG,AFNE01.JPG,AFNE01.JPG,AFNE01.JPG,AFNE01.JPG,3,1,31,6,,,,,,,,,,,,,,,,,,,,,,,AMSA06.jpg,AMSA08.jpg,AMNE02.jpg,AMNE18.jpg,AMSA08.jpg,MS,2,num_6,16,num_6,1.26677601732,,,2017_Apr_20_1637,59.9966709068,MAFE4ImagesEEG,001,100199,
AFNE01.JPG,AFNE01.JPG,AFNE01.JPG,AFNE01.JPG,AFNE01.JPG,AFNE01.JPG,3,2,32,4,,,,,,,,,,,,,,,,,,,,,,,AMSA11.jpg,AMNE08.jpg,AMSA14.jpg,AMNE09.jpg,AMNE08.jpg,MN,1,num_6,32,num_4,1.13342104474,,,2017_Apr_20_1637,59.9966709068,MAFE4ImagesEEG,001,100199,
AFNE01.JPG,AFNE01.JPG,AFNE01.JPG,AFNE01.JPG,AFNE01.JPG,AFNE01.JPG,3,3,33,3,,,,,,,,,,,,,,,,,,,,,,,AMSA01.jpg,AMNE03.jpg,AMNE02.jpg,AMSA05.jpg,AMNE03.jpg,MN,1,num_6,32,num_8,1.20012835978,,,2017_Apr_20_1637,59.9966709068,MAFE4ImagesEEG,001,100199,
AFNE01.JPG,AFNE01.JPG,AFNE01.JPG,AFNE01.JPG,AFNE01.JPG,AFNE01.JPG,3,4,34,1,,,,,,,,,,,,,,,,,,,,,,,AMSA07.jpg,AMNE14.jpg,AMSA10.jpg,AMNE19.jpg,AMNE14.jpg,MN,1,num_6,16,num_6,1.05012863246,,,2017_Apr_20_1637,59.9966709068,MAFE4ImagesEEG,001,100199,
AFNE01.JPG,AFNE01.JPG,AFNE01.JPG,AFNE01.JPG,AFNE01.JPG,AFNE01.JPG,3,5,35,7,,,,,,,,,,,,,,,,,,,,,,,AMNE12.jpg,AMNE01.jpg,AMSA09.jpg,AMSA14.jpg,AMSA09.jpg,MS,2,num_2,32,num_8,1.21673558815,,,2017_Apr_20_1637,59.9966709068,MAFE4ImagesEEG,001,100199,
AFNE01.JPG,AFNE01.JPG,AFNE01.JPG,AFNE01.JPG,AFNE01.JPG,AFNE01.JPG,3,6,36,2,,,,,,,,,,,,,,,,,,,,,,,AMSA15.jpg,AMNE02.jpg,AMSA12.jpg,AMNE08.jpg,AMNE02.jpg,MN,1,num_6,32,num_4,1.08344476344,,,2017_Apr_20_1637,59.9966709068,MAFE4ImagesEEG,001,100199,
AFNE01.JPG,AFNE01.JPG,AFNE01.JPG,AFNE01.JPG,AFNE01.JPG,AFNE01.JPG,3,7,37,9,,,,,,,,,,,,,,,,,,,,,,,AMSA12.jpg,AMNE11.jpg,AMNE08.jpg,AMSA06.jpg,AMNE11.jpg,MN,1,num_6,16,num_6,0.950124751485,,,2017_Apr_20_1637,59.9966709068,MAFE4ImagesEEG,001,100199,
AFNE01.JPG,AFNE01.JPG,AFNE01.JPG,AFNE01.JPG,AFNE01.JPG,AFNE01.JPG,3,8,38,8,,,,,,,,,,,,,,,,,,,,,,,AMSA05.jpg,AMSA07.jpg,AMNE11.jpg,AMNE09.jpg,AMSA07.jpg,MS,2,num_6,32,num_8,1.30011427932,,,2017_Apr_20_1637,59.9966709068,MAFE4ImagesEEG,001,100199,
AFNE01.JPG,AFNE01.JPG,AFNE01.JPG,AFNE01.JPG,AFNE01.JPG,AFNE01.JPG,3,9,39,0,,,,,,,,,,,,,,,,,,,,,,,AMNE04.jpg,AMSA20.jpg,AMSA16.jpg,AMNE05.jpg,AMNE04.jpg,MN,1,num_8,32,num_2,1.35009152291,,,2017_Apr_20_1637,59.9966709068,MAFE4ImagesEEG,001,100199,
AFNE01.JPG,AFNE01.JPG,AFNE01.JPG,AFNE01.JPG,AFNE01.JPG,AFNE01.JPG,4,0,40,0,,,,,,,,,,,,,,,,,,,,,,,AMSA08.jpg,AMSA01.jpg,AMNE19.jpg,AMNE07.jpg,AMSA01.jpg,MS,2,num_6,16,num_6,0.483463173849,,,2017_Apr_20_1637,59.9966709068,MAFE4ImagesEEG,001,100199,
AFNE01.JPG,AFNE01.JPG,AFNE01.JPG,AFNE01.JPG,AFNE01.JPG,AFNE01.JPG,4,1,41,8,,,,,,,,,,,,,,,,,,,,,,,AMSA20.jpg,AMNE11.jpg,AMSA09.jpg,AMNE10.jpg,AMSA09.jpg,MS,2,num_2,32,num_4,0.933576859825,,,2017_Apr_20_1637,59.9966709068,MAFE4ImagesEEG,001,100199,
AFNE01.JPG,AFNE01.JPG,AFNE01.JPG,AFNE01.JPG,AFNE01.JPG,AFNE01.JPG,4,2,42,9,,,,,,,,,,,,,,,,,,,,,,,AMNE03.jpg,AMSA06.jpg,AMSA07.jpg,AMNE10.jpg,AMSA06.jpg,MS,2,num_6,32,num_4,1.18343966367,,,2017_Apr_20_1637,59.9966709068,MAFE4ImagesEEG,001,100199,
AFNE01.JPG,AFNE01.JPG,AFNE01.JPG,AFNE01.JPG,AFNE01.JPG,AFNE01.JPG,4,3,43,7,,,,,,,,,,,,,,,,,,,,,,,AMNE19.jpg,AMNE13.jpg,AMSA15.jpg,AMSA12.jpg,AMSA12.jpg,MS,2,num_4,16,num_4,0.900123452477,,,2017_Apr_20_1637,59.9966709068,MAFE4ImagesEEG,001,100199,
AFNE01.JPG,AFNE01.JPG,AFNE01.JPG,AFNE01.JPG,AFNE01.JPG,AFNE01.JPG,4,4,44,6,,,,,,,,,,,,,,,,,,,,,,,AMNE03.jpg,AMSA04.jpg,AMSA20.jpg,AMNE10.jpg,AMNE03.jpg,MN,1,num_8,16,num_8,0.867072572641,,,2017_Apr_20_1637,59.9966709068,MAFE4ImagesEEG,001,100199,
AFNE01.JPG,AFNE01.JPG,AFNE01.JPG,AFNE01.JPG,AFNE01.JPG,AFNE01.JPG,4,5,45,4,,,,,,,,,,,,,,,,,,,,,,,AMSA08.jpg,AMNE17.jpg,AMNE07.jpg,AMSA18.jpg,AMNE07.jpg,MN,1,num_2,32,num_4,0.966753148648,,,2017_Apr_20_1637,59.9966709068,MAFE4ImagesEEG,001,100199,
AFNE01.JPG,AFNE01.JPG,AFNE01.JPG,AFNE01.JPG,AFNE01.JPG,AFNE01.JPG,4,6,46,1,,,,,,,,,,,,,,,,,,,,,,,AMNE20.jpg,AMNE15.jpg,AMSA15.jpg,AMSA03.jpg,AMNE20.jpg,MN,1,num_8,16,num_8,0.650174049078,,,2017_Apr_20_1637,59.9966709068,MAFE4ImagesEEG,001,100199,
AFNE01.JPG,AFNE01.JPG,AFNE01.JPG,AFNE01.JPG,AFNE01.JPG,AFNE01.JPG,4,7,47,2,,,,,,,,,,,,,,,,,,,,,,,AMNE03.jpg,AMSA15.jpg,AMSA14.jpg,AMNE17.jpg,AMSA14.jpg,MS,2,num_2,16,num_2,0.916804771579,,,2017_Apr_20_1637,59.9966709068,MAFE4ImagesEEG,001,100199,
AFNE01.JPG,AFNE01.JPG,AFNE01.JPG,AFNE01.JPG,AFNE01.JPG,AFNE01.JPG,4,8,48,5,,,,,,,,,,,,,,,,,,,,,,,AMNE10.jpg,AMNE05.jpg,AMSA10.jpg,AMSA03.jpg,AMNE05.jpg,MN,1,num_6,16,num_6,0.516752042051,,,2017_Apr_20_1637,59.9966709068,MAFE4ImagesEEG,001,100199,
AFNE01.JPG,AFNE01.JPG,AFNE01.JPG,AFNE01.JPG,AFNE01.JPG,AFNE01.JPG,4,9,49,3,,,,,,,,,,,,,,,,,,,,,,,AMNE11.jpg,AMSA08.jpg,AMNE12.jpg,AMSA16.jpg,AMSA16.jpg,MS,2,num_4,16,num_4,1.21680005669,,,2017_Apr_20_1637,59.9966709068,MAFE4ImagesEEG,001,100199,
AFNE01.JPG,AFNE01.JPG,AFNE01.JPG,AFNE01.JPG,AFNE01.JPG,AFNE01.JPG,5,0,50,2,,,,,,,,,,,,,,,,,,,,,,,AMSA07.jpg,AMNE11.jpg,AMNE03.jpg,AMSA12.jpg,AMSA12.jpg,MS,2,num_4,16,num_4,0.866811170301,,,2017_Apr_20_1637,59.9966709068,MAFE4ImagesEEG,001,100199,
AFNE01.JPG,AFNE01.JPG,AFNE01.JPG,AFNE01.JPG,AFNE01.JPG,AFNE01.JPG,5,1,51,5,,,,,,,,,,,,,,,,,,,,,,,AMSA01.jpg,AMSA11.jpg,AMNE11.jpg,AMNE04.jpg,AMSA01.jpg,MS,2,num_8,16,num_8,0.550244258833,,,2017_Apr_20_1637,59.9966709068,MAFE4ImagesEEG,001,100199,
AFNE01.JPG,AFNE01.JPG,AFNE01.JPG,AFNE01.JPG,AFNE01.JPG,AFNE01.JPG,5,2,52,3,,,,,,,,,,,,,,,,,,,,,,,AMSA08.jpg,AMSA07.jpg,AMNE19.jpg,AMNE07.jpg,AMSA07.jpg,MS,2,num_6,32,num_4,0.883468433982,,,2017_Apr_20_1637,59.9966709068,MAFE4ImagesEEG,001,100199,
AFNE01.JPG,AFNE01.JPG,AFNE01.JPG,AFNE01.JPG,AFNE01.JPG,AFNE01.JPG,5,3,53,0,,,,,,,,,,,,,,,,,,,,,,,AMNE07.jpg,AMSA13.jpg,AMNE14.jpg,AMSA06.jpg,AMNE07.jpg,MN,1,num_8,16,num_8,0.650142937375,,,2017_Apr_20_1637,59.9966709068,MAFE4ImagesEEG,001,100199,
AFNE01.JPG,AFNE01.JPG,AFNE01.JPG,AFNE01.JPG,AFNE01.JPG,AFNE01.JPG,5,4,54,8,,,,,,,,,,,,,,,,,,,,,,,AMSA03.jpg,AMSA16.jpg,AMNE18.jpg,AMNE09.jpg,AMSA03.jpg,MS,2,num_8,16,num_8,0.650240442075,,,2017_Apr_20_1637,59.9966709068,MAFE4ImagesEEG,001,100199,
AFNE01.JPG,AFNE01.JPG,AFNE01.JPG,AFNE01.JPG,AFNE01.JPG,AFNE01.JPG,5,5,55,7,,,,,,,,,,,,,,,,,,,,,,,AMSA04.jpg,AMNE03.jpg,AMSA01.jpg,AMNE09.jpg,AMSA04.jpg,MS,2,num_8,16,num_8,1.10050487536,,,2017_Apr_20_1637,59.9966709068,MAFE4ImagesEEG,001,100199,
AFNE01.JPG,AFNE01.JPG,AFNE01.JPG,AFNE01.JPG,AFNE01.JPG,AFNE01.JPG,5,6,56,6,,,,,,,,,,,,,,,,,,,,,,,AMNE05.jpg,AMSA17.jpg,AMNE13.jpg,AMSA02.jpg,AMNE05.jpg,MN,1,num_8,16,num_8,0.783719219849,,,2017_Apr_20_1637,59.9966709068,MAFE4ImagesEEG,001,100199,
AFNE01.JPG,AFNE01.JPG,AFNE01.JPG,AFNE01.JPG,AFNE01.JPG,AFNE01.JPG,5,7,57,1,,,,,,,,,,,,,,,,,,,,,,,AMNE15.jpg,AMSA09.jpg,AMNE01.jpg,AMSA05.jpg,AMSA05.jpg,MS,2,num_4,32,num_6,0.733440802258,,,2017_Apr_20_1637,59.9966709068,MAFE4ImagesEEG,001,100199,
AFNE01.JPG,AFNE01.JPG,AFNE01.JPG,AFNE01.JPG,AFNE01.JPG,AFNE01.JPG,5,8,58,4,,,,,,,,,,,,,,,,,,,,,,,AMSA04.jpg,AMNE09.jpg,AMNE16.jpg,AMSA13.jpg,AMSA13.jpg,MS,2,num_4,32,num_2,0.50017945352,,,2017_Apr_20_1637,59.9966709068,MAFE4ImagesEEG,001,100199,
AFNE01.JPG,AFNE01.JPG,AFNE01.JPG,AFNE01.JPG,AFNE01.JPG,AFNE01.JPG,5,9,59,9,,,,,,,,,,,,,,,,,,,,,,,AMNE10.jpg,AMNE20.jpg,AMSA16.jpg,AMSA03.jpg,AMSA03.jpg,MS,2,num_4,32,num_8,0.683494991215,,,2017_Apr_20_1637,59.9966709068,MAFE4ImagesEEG,001,100199,
,,,,,,,,,,,,,,,,,,,,,,,,,,,,,,,,,,,,,,,,,,,space,28.2142399173,2017_Apr_20_1637,59.9966709068,MAFE4ImagesEEG,001,100199,
AFNE01.JPG,AFNE01.JPG,AFNE01.JPG,AFNE01.JPG,AFNE01.JPG,AFNE01.JPG,,,,,0,0,0,3,,,,,,,,,,,,,,,,,,,AFNE01.jpg,AFNE14.jpg,AFSA13.jpg,AFSA16.jpg,AFNE01.jpg,FN,3,num_8,32,num_6,0.700122746814,,,2017_Apr_20_1637,59.9966709068,MAFE4ImagesEEG,001,100199,
AFNE01.JPG,AFNE01.JPG,AFNE01.JPG,AFNE01.JPG,AFNE01.JPG,AFNE01.JPG,,,,,0,1,1,1,,,,,,,,,,,,,,,,,,,AFSA12.jpg,AFNE12.jpg,AFNE14.jpg,AFSA16.jpg,AFNE14.jpg,FN,3,num_2,32,num_8,0.650168275752,,,2017_Apr_20_1637,59.9966709068,MAFE4ImagesEEG,001,100199,
AFNE01.JPG,AFNE01.JPG,AFNE01.JPG,AFNE01.JPG,AFNE01.JPG,AFNE01.JPG,,,,,0,2,2,4,,,,,,,,,,,,,,,,,,,AFSA17.jpg,AFSA03.jpg,AFNE06.jpg,AFNE01.jpg,AFSA03.jpg,FS,4,num_6,32,num_4,0.766783233907,,,2017_Apr_20_1637,59.9966709068,MAFE4ImagesEEG,001,100199,
AFNE01.JPG,AFNE01.JPG,AFNE01.JPG,AFNE01.JPG,AFNE01.JPG,AFNE01.JPG,,,,,0,3,3,9,,,,,,,,,,,,,,,,,,,AFSA02.jpg,AFNE09.jpg,AFNE16.jpg,AFSA09.jpg,AFNE09.jpg,FN,3,num_6,16,num_6,0.500171114341,,,2017_Apr_20_1637,59.9966709068,MAFE4ImagesEEG,001,100199,
AFNE01.JPG,AFNE01.JPG,AFNE01.JPG,AFNE01.JPG,AFNE01.JPG,AFNE01.JPG,,,,,0,4,4,2,,,,,,,,,,,,,,,,,,,AFSA11.jpg,AFNE16.jpg,AFSA12.jpg,AFNE01.jpg,AFNE16.jpg,FN,3,num_6,32,num_8,0.883448227425,,,2017_Apr_20_1637,59.9966709068,MAFE4ImagesEEG,001,100199,
AFNE01.JPG,AFNE01.JPG,AFNE01.JPG,AFNE01.JPG,AFNE01.JPG,AFNE01.JPG,,,,,0,5,5,8,,,,,,,,,,,,,,,,,,,AFNE07.jpg,AFSA07.jpg,AFSA11.jpg,AFNE05.jpg,AFSA11.jpg,FS,4,num_2,32,num_4,0.866736117401,,,2017_Apr_20_1637,59.9966709068,MAFE4ImagesEEG,001,100199,
AFNE01.JPG,AFNE01.JPG,AFNE01.JPG,AFNE01.JPG,AFNE01.JPG,AFNE01.JPG,,,,,0,6,6,0,,,,,,,,,,,,,,,,,,,AFSA19.jpg,AFSA01.jpg,AFNE18.jpg,AFNE14.jpg,AFSA01.jpg,FS,4,num_6,16,num_6,0.650175973482,,,2017_Apr_20_1637,59.9966709068,MAFE4ImagesEEG,001,100199,
AFNE01.JPG,AFNE01.JPG,AFNE01.JPG,AFNE01.JPG,AFNE01.JPG,AFNE01.JPG,,,,,0,7,7,5,,,,,,,,,,,,,,,,,,,AFSA04.jpg,AFSA18.jpg,AFNE10.jpg,AFNE06.jpg,AFNE06.jpg,FN,3,num_4,16,num_4,0.816813399491,,,2017_Apr_20_1637,59.9966709068,MAFE4ImagesEEG,001,100199,
AFNE01.JPG,AFNE01.JPG,AFNE01.JPG,AFNE01.JPG,AFNE01.JPG,AFNE01.JPG,,,,,0,8,8,7,,,,,,,,,,,,,,,,,,,AFSA01.jpg,AFSA12.jpg,AFNE19.jpg,AFNE13.jpg,AFSA12.jpg,FS,4,num_6,32,num_8,0.850091362547,,,2017_Apr_20_1637,59.9966709068,MAFE4ImagesEEG,001,100199,
AFNE01.JPG,AFNE01.JPG,AFNE01.JPG,AFNE01.JPG,AFNE01.JPG,AFNE01.JPG,,,,,0,9,9,6,,,,,,,,,,,,,,,,,,,AFSA18.jpg,AFSA05.jpg,AFNE15.jpg,AFNE17.jpg,AFSA18.jpg,FS,4,num_8,32,num_2,1.08346721518,,,2017_Apr_20_1637,59.9966709068,MAFE4ImagesEEG,001,100199,
AFNE01.JPG,AFNE01.JPG,AFNE01.JPG,AFNE01.JPG,AFNE01.JPG,AFNE01.JPG,,,,,1,0,10,1,,,,,,,,,,,,,,,,,,,AFNE03.jpg,AFSA13.jpg,AFNE18.jpg,AFSA12.jpg,AFNE03.jpg,FN,3,num_8,32,num_6,0.866757606855,,,2017_Apr_20_1637,59.9966709068,MAFE4ImagesEEG,001,100199,
AFNE01.JPG,AFNE01.JPG,AFNE01.JPG,AFNE01.JPG,AFNE01.JPG,AFNE01.JPG,,,,,1,1,11,2,,,,,,,,,,,,,,,,,,,AFNE05.jpg,AFNE04.jpg,AFSA09.jpg,AFSA07.jpg,AFSA09.jpg,FS,4,num_2,32,num_8,0.81685252965,,,2017_Apr_20_1637,59.9966709068,MAFE4ImagesEEG,001,100199,
AFNE01.JPG,AFNE01.JPG,AFNE01.JPG,AFNE01.JPG,AFNE01.JPG,AFNE01.JPG,,,,,1,2,12,6,,,,,,,,,,,,,,,,,,,AFNE01.jpg,AFSA06.jpg,AFNE18.jpg,AFSA14.jpg,AFSA14.jpg,FS,4,num_4,16,num_4,0.683436295891,,,2017_Apr_20_1637,59.9966709068,MAFE4ImagesEEG,001,100199,
AFNE01.JPG,AFNE01.JPG,AFNE01.JPG,AFNE01.JPG,AFNE01.JPG,AFNE01.JPG,,,,,1,3,13,8,,,,,,,,,,,,,,,,,,,AFNE20.jpg,AFNE09.jpg,AFSA09.jpg,AFSA10.jpg,AFNE20.jpg,FN,3,num_8,32,num_2,1.00006735523,,,2017_Apr_20_1637,59.9966709068,MAFE4ImagesEEG,001,100199,
AFNE01.JPG,AFNE01.JPG,AFNE01.JPG,AFNE01.JPG,AFNE01.JPG,AFNE01.JPG,,,,,1,4,14,9,,,,,,,,,,,,,,,,,,,AFNE10.jpg,AFSA18.jpg,AFNE13.jpg,AFSA16.jpg,AFNE10.jpg,FN,3,num_8,16,num_8,1.00011001353,,,2017_Apr_20_1637,59.9966709068,MAFE4ImagesEEG,001,100199,
AFNE01.JPG,AFNE01.JPG,AFNE01.JPG,AFNE01.JPG,AFNE01.JPG,AFNE01.JPG,,,,,1,5,15,3,,,,,,,,,,,,,,,,,,,AFSA09.jpg,AFNE15.jpg,AFNE03.jpg,AFSA01.jpg,AFNE15.jpg,FN,3,num_6,16,num_6,0.683480557927,,,2017_Apr_20_1637,59.9966709068,MAFE4ImagesEEG,001,100199,
AFNE01.JPG,AFNE01.JPG,AFNE01.JPG,AFNE01.JPG,AFNE01.JPG,AFNE01.JPG,,,,,1,6,16,7,,,,,,,,,,,,,,,,,,,AFNE17.jpg,AFSA10.jpg,AFNE07.jpg,AFSA12.jpg,AFSA12.jpg,FS,4,num_4,32,num_8,0.91686378757,,,2017_Apr_20_1637,59.9966709068,MAFE4ImagesEEG,001,100199,
AFNE01.JPG,AFNE01.JPG,AFNE01.JPG,AFNE01.JPG,AFNE01.JPG,AFNE01.JPG,,,,,1,7,17,0,,,,,,,,,,,,,,,,,,,AFNE13.jpg,AFNE04.jpg,AFSA05.jpg,AFSA02.jpg,AFSA05.jpg,FS,4,num_2,16,num_2,0.866807962942,,,2017_Apr_20_1637,59.9966709068,MAFE4ImagesEEG,001,100199,
AFNE01.JPG,AFNE01.JPG,AFNE01.JPG,AFNE01.JPG,AFNE01.JPG,AFNE01.JPG,,,,,1,8,18,5,,,,,,,,,,,,,,,,,,,AFSA20.jpg,AFNE01.jpg,AFNE09.jpg,AFSA01.jpg,AFNE09.jpg,FN,3,num_2,32,num_4,0.983445693564,,,2017_Apr_20_1637,59.9966709068,MAFE4ImagesEEG,001,100199,
AFNE01.JPG,AFNE01.JPG,AFNE01.JPG,AFNE01.JPG,AFNE01.JPG,AFNE01.JPG,,,,,1,9,19,4,,,,,,,,,,,,,,,,,,,AFNE08.jpg,AFSA06.jpg,AFSA01.jpg,AFNE17.jpg,AFNE08.jpg,FN,3,num_8,16,num_8,1.36668688391,,,2017_Apr_20_1637,59.9966709068,MAFE4ImagesEEG,001,100199,
AFNE01.JPG,AFNE01.JPG,AFNE01.JPG,AFNE01.JPG,AFNE01.JPG,AFNE01.JPG,,,,,2,0,20,9,,,,,,,,,,,,,,,,,,,AFSA05.jpg,AFSA12.jpg,AFNE05.jpg,AFNE20.jpg,AFSA12.jpg,FS,4,num_6,32,num_2,1.18322637217,,,2017_Apr_20_1637,59.9966709068,MAFE4ImagesEEG,001,100199,
AFNE01.JPG,AFNE01.JPG,AFNE01.JPG,AFNE01.JPG,AFNE01.JPG,AFNE01.JPG,,,,,2,1,21,3,,,,,,,,,,,,,,,,,,,AFNE03.jpg,AFSA13.jpg,AFSA10.jpg,AFNE19.jpg,AFNE03.jpg,FN,3,num_8,32,num_6,1.03343191784,,,2017_Apr_20_1637,59.9966709068,MAFE4ImagesEEG,001,100199,
AFNE01.JPG,AFNE01.JPG,AFNE01.JPG,AFNE01.JPG,AFNE01.JPG,AFNE01.JPG,,,,,2,2,22,5,,,,,,,,,,,,,,,,,,,AFSA16.jpg,AFNE18.jpg,AFSA12.jpg,AFNE17.jpg,AFNE17.jpg,FN,3,num_4,32,num_8,0.900129867252,,,2017_Apr_20_1637,59.9966709068,MAFE4ImagesEEG,001,100199,
AFNE01.JPG,AFNE01.JPG,AFNE01.JPG,AFNE01.JPG,AFNE01.JPG,AFNE01.JPG,,,,,2,3,23,8,,,,,,,,,,,,,,,,,,,AFNE09.jpg,AFNE04.jpg,AFSA18.jpg,AFSA11.jpg,AFSA18.jpg,FS,4,num_2,32,num_8,1.20025505172,,,2017_Apr_20_1637,59.9966709068,MAFE4ImagesEEG,001,100199,
AFNE01.JPG,AFNE01.JPG,AFNE01.JPG,AFNE01.JPG,AFNE01.JPG,AFNE01.JPG,,,,,2,4,24,4,,,,,,,,,,,,,,,,,,,AFSA05.jpg,AFSA20.jpg,AFNE08.jpg,AFNE04.jpg,AFNE04.jpg,FN,3,num_4,32,num_6,1.45005274552,,,2017_Apr_20_1637,59.9966709068,MAFE4ImagesEEG,001,100199,
AFNE01.JPG,AFNE01.JPG,AFNE01.JPG,AFNE01.JPG,AFNE01.JPG,AFNE01.JPG,,,,,2,5,25,7,,,,,,,,,,,,,,,,,,,AFSA14.jpg,AFNE18.jpg,AFSA17.jpg,AFNE02.jpg,AFSA14.jpg,FS,4,num_8,32,num_2,0.516693988291,,,2017_Apr_20_1637,59.9966709068,MAFE4ImagesEEG,001,100199,
AFNE01.JPG,AFNE01.JPG,AFNE01.JPG,AFNE01.JPG,AFNE01.JPG,AFNE01.JPG,,,,,2,6,26,6,,,,,,,,,,,,,,,,,,,AFSA10.jpg,AFSA06.jpg,AFNE15.jpg,AFNE16.jpg,AFNE15.jpg,FN,3,num_2,32,num_4,0.666647849954,,,2017_Apr_20_1637,59.9966709068,MAFE4ImagesEEG,001,100199,
AFNE01.JPG,AFNE01.JPG,AFNE01.JPG,AFNE01.JPG,AFNE01.JPG,AFNE01.JPG,,,,,2,7,27,0,,,,,,,,,,,,,,,,,,,AFSA05.jpg,AFNE09.jpg,AFSA11.jpg,AFNE18.jpg,AFSA05.jpg,FS,4,num_8,16,num_8,0.783581302036,,,2017_Apr_20_1637,59.9966709068,MAFE4ImagesEEG,001,100199,
AFNE01.JPG,AFNE01.JPG,AFNE01.JPG,AFNE01.JPG,AFNE01.JPG,AFNE01.JPG,,,,,2,8,28,1,,,,,,,,,,,,,,,,,,,AFSA17.jpg,AFNE05.jpg,AFSA06.jpg,AFNE18.jpg,AFSA17.jpg,FS,4,num_8,32,num_6,0.733445934136,,,2017_Apr_20_1637,59.9966709068,MAFE4ImagesEEG,001,100199,
AFNE01.JPG,AFNE01.JPG,AFNE01.JPG,AFNE01.JPG,AFNE01.JPG,AFNE01.JPG,,,,,2,9,29,2,,,,,,,,,,,,,,,,,,,AFSA02.jpg,AFNE04.jpg,AFSA06.jpg,AFNE15.jpg,AFSA06.jpg,FS,4,num_2,16,num_2,0.966768544109,,,2017_Apr_20_1637,59.9966709068,MAFE4ImagesEEG,001,100199,
AFNE01.JPG,AFNE01.JPG,AFNE01.JPG,AFNE01.JPG,AFNE01.JPG,AFNE01.JPG,,,,,3,0,30,1,,,,,,,,,,,,,,,,,,,AFNE06.jpg,AFNE17.jpg,AFSA17.jpg,AFSA07.jpg,AFSA07.jpg,FS,4,num_4,32,num_8,0.766802478291,,,2017_Apr_20_1637,59.9966709068,MAFE4ImagesEEG,001,100199,
AFNE01.JPG,AFNE01.JPG,AFNE01.JPG,AFNE01.JPG,AFNE01.JPG,AFNE01.JPG,,,,,3,1,31,6,,,,,,,,,,,,,,,,,,,AFNE12.jpg,AFSA05.jpg,AFSA15.jpg,AFNE10.jpg,AFSA05.jpg,FS,4,num_6,32,num_2,1.10022070055,,,2017_Apr_20_1637,59.9966709068,MAFE4ImagesEEG,001,100199,
AFNE01.JPG,AFNE01.JPG,AFNE01.JPG,AFNE01.JPG,AFNE01.JPG,AFNE01.JPG,,,,,3,2,32,2,,,,,,,,,,,,,,,,,,,AFNE12.jpg,AFSA06.jpg,AFNE03.jpg,AFSA04.jpg,AFNE03.jpg,FN,3,num_2,32,num_4,1.20004111878,,,2017_Apr_20_1637,59.9966709068,MAFE4ImagesEEG,001,100199,
AFNE01.JPG,AFNE01.JPG,AFNE01.JPG,AFNE01.JPG,AFNE01.JPG,AFNE01.JPG,,,,,3,3,33,3,,,,,,,,,,,,,,,,,,,AFSA17.jpg,AFNE12.jpg,AFSA16.jpg,AFNE01.jpg,AFNE01.jpg,FN,3,num_4,32,num_8,1.08341910434,,,2017_Apr_20_1637,59.9966709068,MAFE4ImagesEEG,001,100199,
AFNE01.JPG,AFNE01.JPG,AFNE01.JPG,AFNE01.JPG,AFNE01.JPG,AFNE01.JPG,,,,,3,4,34,9,,,,,,,,,,,,,,,,,,,AFSA04.jpg,AFSA11.jpg,AFNE04.jpg,AFNE12.jpg,AFNE04.jpg,FN,3,num_2,32,num_4,0.800139136612,,,2017_Apr_20_1637,59.9966709068,MAFE4ImagesEEG,001,100199,
AFNE01.JPG,AFNE01.JPG,AFNE01.JPG,AFNE01.JPG,AFNE01.JPG,AFNE01.JPG,,,,,3,5,35,4,,,,,,,,,,,,,,,,,,,AFNE05.jpg,AFNE07.jpg,AFSA20.jpg,AFSA05.jpg,AFSA05.jpg,FS,4,num_4,16,num_4,0.666766202718,,,2017_Apr_20_1637,59.9966709068,MAFE4ImagesEEG,001,100199,
AFNE01.JPG,AFNE01.JPG,AFNE01.JPG,AFNE01.JPG,AFNE01.JPG,AFNE01.JPG,,,,,3,6,36,7,,,,,,,,,,,,,,,,,,,AFSA02.jpg,AFNE19.jpg,AFSA18.jpg,AFNE08.jpg,AFNE08.jpg,FN,3,num_4,32,num_6,1.06667716551,,,2017_Apr_20_1637,59.9966709068,MAFE4ImagesEEG,001,100199,
AFNE01.JPG,AFNE01.JPG,AFNE01.JPG,AFNE01.JPG,AFNE01.JPG,AFNE01.JPG,,,,,3,7,37,5,,,,,,,,,,,,,,,,,,,AFNE07.jpg,AFSA06.jpg,AFSA10.jpg,AFNE17.jpg,AFNE17.jpg,FN,3,num_4,16,num_4,1.03358683479,,,2017_Apr_20_1637,59.9966709068,MAFE4ImagesEEG,001,100199,
AFNE01.JPG,AFNE01.JPG,AFNE01.JPG,AFNE01.JPG,AFNE01.JPG,AFNE01.JPG,,,,,3,8,38,0,,,,,,,,,,,,,,,,,,,AFNE16.jpg,AFSA07.jpg,AFNE06.jpg,AFSA16.jpg,AFSA07.jpg,FS,4,num_6,32,num_8,0.700121463859,,,2017_Apr_20_1637,59.9966709068,MAFE4ImagesEEG,001,100199,
AFNE01.JPG,AFNE01.JPG,AFNE01.JPG,AFNE01.JPG,AFNE01.JPG,AFNE01.JPG,,,,,3,9,39,8,,,,,,,,,,,,,,,,,,,AFSA20.jpg,AFNE05.jpg,AFNE20.jpg,AFSA09.jpg,AFSA20.jpg,FS,4,num_8,32,num_6,0.616777733259,,,2017_Apr_20_1637,59.9966709068,MAFE4ImagesEEG,001,100199,
AFNE01.JPG,AFNE01.JPG,AFNE01.JPG,AFNE01.JPG,AFNE01.JPG,AFNE01.JPG,,,,,4,0,40,7,,,,,,,,,,,,,,,,,,,AFNE09.jpg,AFSA19.jpg,AFSA12.jpg,AFNE15.jpg,AFNE09.jpg,FN,3,num_8,32,num_4,0.716760766169,,,2017_Apr_20_1637,59.9966709068,MAFE4ImagesEEG,001,100199,
AFNE01.JPG,AFNE01.JPG,AFNE01.JPG,AFNE01.JPG,AFNE01.JPG,AFNE01.JPG,,,,,4,1,41,5,,,,,,,,,,,,,,,,,,,AFNE11.jpg,AFSA06.jpg,AFSA10.jpg,AFNE07.jpg,AFSA06.jpg,FS,4,num_6,32,num_8,0.583481808775,,,2017_Apr_20_1637,59.9966709068,MAFE4ImagesEEG,001,100199,
AFNE01.JPG,AFNE01.JPG,AFNE01.JPG,AFNE01.JPG,AFNE01.JPG,AFNE01.JPG,,,,,4,2,42,3,,,,,,,,,,,,,,,,,,,AFNE20.jpg,AFSA11.jpg,AFSA10.jpg,AFNE01.jpg,AFSA10.jpg,FS,4,num_2,32,num_4,0.766768800677,,,2017_Apr_20_1637,59.9966709068,MAFE4ImagesEEG,001,100199,
AFNE01.JPG,AFNE01.JPG,AFNE01.JPG,AFNE01.JPG,AFNE01.JPG,AFNE01.JPG,,,,,4,3,43,4,,,,,,,,,,,,,,,,,,,AFNE03.jpg,AFSA15.jpg,AFNE05.jpg,AFSA06.jpg,AFNE03.jpg,FN,3,num_8,32,num_6,0.850253977231,,,2017_Apr_20_1637,59.9966709068,MAFE4ImagesEEG,001,100199,
AFNE01.JPG,AFNE01.JPG,AFNE01.JPG,AFNE01.JPG,AFNE01.JPG,AFNE01.JPG,,,,,4,4,44,1,,,,,,,,,,,,,,,,,,,AFNE02.jpg,AFSA05.jpg,AFSA15.jpg,AFNE09.jpg,AFNE02.jpg,FN,3,num_8,32,num_2,0.766797025746,,,2017_Apr_20_1637,59.9966709068,MAFE4ImagesEEG,001,100199,
AFNE01.JPG,AFNE01.JPG,AFNE01.JPG,AFNE01.JPG,AFNE01.JPG,AFNE01.JPG,,,,,4,5,45,8,,,,,,,,,,,,,,,,,,,AFNE01.jpg,AFSA02.jpg,AFNE07.jpg,AFSA05.jpg,AFNE07.jpg,FN,3,num_2,32,num_4,0.866798982199,,,2017_Apr_20_1637,59.9966709068,MAFE4ImagesEEG,001,100199,
AFNE01.JPG,AFNE01.JPG,AFNE01.JPG,AFNE01.JPG,AFNE01.JPG,AFNE01.JPG,,,,,4,6,46,2,,,,,,,,,,,,,,,,,,,AFSA14.jpg,AFSA17.jpg,AFNE01.jpg,AFNE20.jpg,AFNE01.jpg,FN,3,num_2,32,num_8,0.533745761029,,,2017_Apr_20_1637,59.9966709068,MAFE4ImagesEEG,001,100199,
AFNE01.JPG,AFNE01.JPG,AFNE01.JPG,AFNE01.JPG,AFNE01.JPG,AFNE01.JPG,,,,,4,7,47,0,,,,,,,,,,,,,,,,,,,AFNE05.jpg,AFSA19.jpg,AFNE19.jpg,AFSA05.jpg,AFSA05.jpg,FS,4,num_4,16,num_4,1.1502438098,,,2017_Apr_20_1637,59.9966709068,MAFE4ImagesEEG,001,100199,
AFNE01.JPG,AFNE01.JPG,AFNE01.JPG,AFNE01.JPG,AFNE01.JPG,AFNE01.JPG,,,,,4,8,48,9,,,,,,,,,,,,,,,,,,,AFNE10.jpg,AFNE14.jpg,AFSA12.jpg,AFSA07.jpg,AFNE10.jpg,FN,3,num_8,32,num_6,0.750087802298,,,2017_Apr_20_1637,59.9966709068,MAFE4ImagesEEG,001,100199,
AFNE01.JPG,AFNE01.JPG,AFNE01.JPG,AFNE01.JPG,AFNE01.JPG,AFNE01.JPG,,,,,4,9,49,6,,,,,,,,,,,,,,,,,,,AFSA14.jpg,AFNE19.jpg,AFSA15.jpg,AFNE13.jpg,AFSA15.jpg,FS,4,num_2,16,num_2,0.650105731678,,,2017_Apr_20_1637,59.9966709068,MAFE4ImagesEEG,001,100199,
AFNE01.JPG,AFNE01.JPG,AFNE01.JPG,AFNE01.JPG,AFNE01.JPG,AFNE01.JPG,,,,,5,0,50,5,,,,,,,,,,,,,,,,,,,AFNE18.jpg,AFNE06.jpg,AFSA13.jpg,AFSA05.jpg,AFSA05.jpg,FS,4,num_4,16,num_4,1.18343228666,,,2017_Apr_20_1637,59.9966709068,MAFE4ImagesEEG,001,100199,
AFNE01.JPG,AFNE01.JPG,AFNE01.JPG,AFNE01.JPG,AFNE01.JPG,AFNE01.JPG,,,,,5,1,51,3,,,,,,,,,,,,,,,,,,,AFSA18.jpg,AFNE05.jpg,AFSA07.jpg,AFNE18.jpg,AFNE18.jpg,FN,3,num_4,32,num_8,0.950076640584,,,2017_Apr_20_1637,59.9966709068,MAFE4ImagesEEG,001,100199,
AFNE01.JPG,AFNE01.JPG,AFNE01.JPG,AFNE01.JPG,AFNE01.JPG,AFNE01.JPG,,,,,5,2,52,6,,,,,,,,,,,,,,,,,,,AFSA16.jpg,AFNE03.jpg,AFSA05.jpg,AFNE04.jpg,AFSA05.jpg,FS,4,num_2,16,num_2,0.850181169517,,,2017_Apr_20_1637,59.9966709068,MAFE4ImagesEEG,001,100199,
AFNE01.JPG,AFNE01.JPG,AFNE01.JPG,AFNE01.JPG,AFNE01.JPG,AFNE01.JPG,,,,,5,3,53,2,,,,,,,,,,,,,,,,,,,AFSA20.jpg,AFSA12.jpg,AFNE06.jpg,AFNE16.jpg,AFNE16.jpg,FN,3,num_4,16,num_4,0.750116348092,,,2017_Apr_20_1637,59.9966709068,MAFE4ImagesEEG,001,100199,
AFNE01.JPG,AFNE01.JPG,AFNE01.JPG,AFNE01.JPG,AFNE01.JPG,AFNE01.JPG,,,,,5,4,54,9,,,,,,,,,,,,,,,,,,,AFNE17.jpg,AFSA17.jpg,AFNE19.jpg,AFSA05.jpg,AFSA05.jpg,FS,4,num_4,16,num_4,0.883495696762,,,2017_Apr_20_1637,59.9966709068,MAFE4ImagesEEG,001,100199,
AFNE01.JPG,AFNE01.JPG,AFNE01.JPG,AFNE01.JPG,AFNE01.JPG,AFNE01.JPG,,,,,5,5,55,8,,,,,,,,,,,,,,,,,,,AFNE19.jpg,AFSA09.jpg,AFNE02.jpg,AFSA18.jpg,AFSA18.jpg,FS,4,num_4,16,num_4,0.850134662294,,,2017_Apr_20_1637,59.9966709068,MAFE4ImagesEEG,001,100199,
AFNE01.JPG,AFNE01.JPG,AFNE01.JPG,AFNE01.JPG,AFNE01.JPG,AFNE01.JPG,,,,,5,6,56,0,,,,,,,,,,,,,,,,,,,AFNE13.jpg,AFSA01.jpg,AFSA10.jpg,AFNE10.jpg,AFSA01.jpg,FS,4,num_6,16,num_6,0.566570840485,,,2017_Apr_20_1637,59.9966709068,MAFE4ImagesEEG,001,100199,
AFNE01.JPG,AFNE01.JPG,AFNE01.JPG,AFNE01.JPG,AFNE01.JPG,AFNE01.JPG,,,,,5,7,57,7,,,,,,,,,,,,,,,,,,,AFNE08.jpg,AFSA01.jpg,AFSA09.jpg,AFNE03.jpg,AFSA09.jpg,FS,4,num_2,32,num_4,0.716803745192,,,2017_Apr_20_1637,59.9966709068,MAFE4ImagesEEG,001,100199,
AFNE01.JPG,AFNE01.JPG,AFNE01.JPG,AFNE01.JPG,AFNE01.JPG,AFNE01.JPG,,,,,5,8,58,4,,,,,,,,,,,,,,,,,,,AFNE20.jpg,AFNE08.jpg,AFSA03.jpg,AFSA11.jpg,AFNE20.jpg,FN,3,num_8,16,num_8,1.03369716904,,,2017_Apr_20_1637,59.9966709068,MAFE4ImagesEEG,001,100199,
AFNE01.JPG,AFNE01.JPG,AFNE01.JPG,AFNE01.JPG,AFNE01.JPG,AFNE01.JPG,,,,,5,9,59,1,,,,,,,,,,,,,,,,,,,AFNE13.jpg,AFNE02.jpg,AFSA10.jpg,AFSA01.jpg,AFSA10.jpg,FS,4,num_2,16,num_2,0.550147074857,,,2017_Apr_20_1637,59.9966709068,MAFE4ImagesEEG,001,100199,
,,,,,,,,,,,,,,,,,,,,,,,,,,,,,,,,,,,,,,,,,,,space,32.6306131345,2017_Apr_20_1637,59.9966709068,MAFE4ImagesEEG,001,100199,
AFNE01.JPG,AFNE01.JPG,AFNE01.JPG,AFNE01.JPG,AFNE01.JPG,AFNE01.JPG,,,,,,,,,0,0,0,9,,,,,,,,,,,,,,,AMNE06.jpg,AMNE18.jpg,AMSA01.jpg,AMSA10.jpg,AMSA01.jpg,MS,2,num_2,32,num_6,0.783473533695,,,2017_Apr_20_1637,59.9966709068,MAFE4ImagesEEG,001,100199,
AFNE01.JPG,AFNE01.JPG,AFNE01.JPG,AFNE01.JPG,AFNE01.JPG,AFNE01.JPG,,,,,,,,,0,1,1,1,,,,,,,,,,,,,,,AMSA18.jpg,AMNE09.jpg,AMSA10.jpg,AMNE10.jpg,AMNE10.jpg,MN,1,num_4,16,num_4,0.783327918209,,,2017_Apr_20_1637,59.9966709068,MAFE4ImagesEEG,001,100199,
AFNE01.JPG,AFNE01.JPG,AFNE01.JPG,AFNE01.JPG,AFNE01.JPG,AFNE01.JPG,,,,,,,,,0,2,2,3,,,,,,,,,,,,,,,AMSA15.jpg,AMSA06.jpg,AMNE02.jpg,AMNE20.jpg,AMSA15.jpg,MS,2,num_8,32,num_4,1.11698733631,,,2017_Apr_20_1637,59.9966709068,MAFE4ImagesEEG,001,100199,
AFNE01.JPG,AFNE01.JPG,AFNE01.JPG,AFNE01.JPG,AFNE01.JPG,AFNE01.JPG,,,,,,,,,0,3,3,4,,,,,,,,,,,,,,,AMSA14.jpg,AMNE17.jpg,AMSA04.jpg,AMNE05.jpg,AMNE05.jpg,MN,1,num_4,16,num_4,1.11667621933,,,2017_Apr_20_1637,59.9966709068,MAFE4ImagesEEG,001,100199,
AFNE01.JPG,AFNE01.JPG,AFNE01.JPG,AFNE01.JPG,AFNE01.JPG,AFNE01.JPG,,,,,,,,,0,4,4,5,,,,,,,,,,,,,,,AMNE18.jpg,AMNE04.jpg,AMSA18.jpg,AMSA04.jpg,AMSA18.jpg,MS,2,num_2,32,num_4,1.18329982145,,,2017_Apr_20_1637,59.9966709068,MAFE4ImagesEEG,001,100199,
AFNE01.JPG,AFNE01.JPG,AFNE01.JPG,AFNE01.JPG,AFNE01.JPG,AFNE01.JPG,,,,,,,,,0,5,5,2,,,,,,,,,,,,,,,AMSA17.jpg,AMSA06.jpg,AMNE14.jpg,AMNE05.jpg,AMSA06.jpg,MS,2,num_6,16,num_6,0.983463975717,,,2017_Apr_20_1637,59.9966709068,MAFE4ImagesEEG,001,100199,
AFNE01.JPG,AFNE01.JPG,AFNE01.JPG,AFNE01.JPG,AFNE01.JPG,AFNE01.JPG,,,,,,,,,0,6,6,0,,,,,,,,,,,,,,,AMSA06.jpg,AMNE12.jpg,AMNE03.jpg,AMSA12.jpg,AMNE12.jpg,MN,1,num_6,32,num_8,1.11672497168,,,2017_Apr_20_1637,59.9966709068,MAFE4ImagesEEG,001,100199,
AFNE01.JPG,AFNE01.JPG,AFNE01.JPG,AFNE01.JPG,AFNE01.JPG,AFNE01.JPG,,,,,,,,,0,7,7,7,,,,,,,,,,,,,,,AMNE12.jpg,AMSA03.jpg,AMNE06.jpg,AMSA11.jpg,AMNE06.jpg,MN,1,num_2,16,num_2,0.616781582125,,,2017_Apr_20_1637,59.9966709068,MAFE4ImagesEEG,001,100199,
AFNE01.JPG,AFNE01.JPG,AFNE01.JPG,AFNE01.JPG,AFNE01.JPG,AFNE01.JPG,,,,,,,,,0,8,8,8,,,,,,,,,,,,,,,AMSA17.jpg,AMNE20.jpg,AMNE18.jpg,AMSA19.jpg,AMNE20.jpg,MN,1,num_6,16,num_6,0.750160610129,,,2017_Apr_20_1637,59.9966709068,MAFE4ImagesEEG,001,100199,
AFNE01.JPG,AFNE01.JPG,AFNE01.JPG,AFNE01.JPG,AFNE01.JPG,AFNE01.JPG,,,,,,,,,0,9,9,6,,,,,,,,,,,,,,,AMSA01.jpg,AMNE19.jpg,AMNE07.jpg,AMSA11.jpg,AMSA11.jpg,MS,2,num_4,16,num_4,0.966884330905,,,2017_Apr_20_1637,59.9966709068,MAFE4ImagesEEG,001,100199,
AFNE01.JPG,AFNE01.JPG,AFNE01.JPG,AFNE01.JPG,AFNE01.JPG,AFNE01.JPG,,,,,,,,,1,0,10,6,,,,,,,,,,,,,,,AMNE16.jpg,AMNE10.jpg,AMSA11.jpg,AMSA18.jpg,AMSA11.jpg,MS,2,num_2,32,num_8,0.616372639779,,,2017_Apr_20_1637,59.9966709068,MAFE4ImagesEEG,001,100199,
AFNE01.JPG,AFNE01.JPG,AFNE01.JPG,AFNE01.JPG,AFNE01.JPG,AFNE01.JPG,,,,,,,,,1,1,11,4,,,,,,,,,,,,,,,AMNE09.jpg,AMSA15.jpg,AMNE10.jpg,AMSA03.jpg,AMNE09.jpg,MN,1,num_8,32,num_2,0.676046146662,,,2017_Apr_20_1637,59.9966709068,MAFE4ImagesEEG,001,100199,
AFNE01.JPG,AFNE01.JPG,AFNE01.JPG,AFNE01.JPG,AFNE01.JPG,AFNE01.JPG,,,,,,,,,1,2,12,3,,,,,,,,,,,,,,,AMNE07.jpg,AMNE20.jpg,AMSA12.jpg,AMSA09.jpg,AMSA12.jpg,MS,2,num_2,32,num_6,1.00010295724,,,2017_Apr_20_1637,59.9966709068,MAFE4ImagesEEG,001,100199,
AFNE01.JPG,AFNE01.JPG,AFNE01.JPG,AFNE01.JPG,AFNE01.JPG,AFNE01.JPG,,,,,,,,,1,3,13,8,,,,,,,,,,,,,,,AMNE17.jpg,AMNE19.jpg,AMSA14.jpg,AMSA10.jpg,AMNE17.jpg,MN,1,num_8,16,num_8,0.63356393401,,,2017_Apr_20_1637,59.9966709068,MAFE4ImagesEEG,001,100199,
AFNE01.JPG,AFNE01.JPG,AFNE01.JPG,AFNE01.JPG,AFNE01.JPG,AFNE01.JPG,,,,,,,,,1,4,14,2,,,,,,,,,,,,,,,AMNE17.jpg,AMSA17.jpg,AMSA07.jpg,AMNE10.jpg,AMSA17.jpg,MS,2,num_6,16,num_6,0.650197463052,,,2017_Apr_20_1637,59.9966709068,MAFE4ImagesEEG,001,100199,
AFNE01.JPG,AFNE01.JPG,AFNE01.JPG,AFNE01.JPG,AFNE01.JPG,AFNE01.JPG,,,,,,,,,1,5,15,9,,,,,,,,,,,,,,,AMNE19.jpg,AMNE11.jpg,AMSA03.jpg,AMSA10.jpg,AMSA10.jpg,MS,2,num_4,16,num_4,0.983419392956,,,2017_Apr_20_1637,59.9966709068,MAFE4ImagesEEG,001,100199,
AFNE01.JPG,AFNE01.JPG,AFNE01.JPG,AFNE01.JPG,AFNE01.JPG,AFNE01.JPG,,,,,,,,,1,6,16,1,,,,,,,,,,,,,,,AMNE07.jpg,AMNE01.jpg,AMSA10.jpg,AMSA05.jpg,AMSA05.jpg,MS,2,num_4,32,num_2,1.55008645525,,,2017_Apr_20_1637,59.9966709068,MAFE4ImagesEEG,001,100199,
AFNE01.JPG,AFNE01.JPG,AFNE01.JPG,AFNE01.JPG,AFNE01.JPG,AFNE01.JPG,,,,,,,,,1,7,17,7,,,,,,,,,,,,,,,AMSA16.jpg,AMSA06.jpg,AMNE14.jpg,AMNE05.jpg,AMSA06.jpg,MS,2,num_6,32,num_8,1.40015536605,,,2017_Apr_20_1637,59.9966709068,MAFE4ImagesEEG,001,100199,
AFNE01.JPG,AFNE01.JPG,AFNE01.JPG,AFNE01.JPG,AFNE01.JPG,AFNE01.JPG,,,,,,,,,1,8,18,5,,,,,,,,,,,,,,,AMNE06.jpg,AMSA06.jpg,AMNE11.jpg,AMSA20.jpg,AMSA06.jpg,MS,2,num_6,16,num_6,0.816739950213,,,2017_Apr_20_1637,59.9966709068,MAFE4ImagesEEG,001,100199,
AFNE01.JPG,AFNE01.JPG,AFNE01.JPG,AFNE01.JPG,AFNE01.JPG,AFNE01.JPG,,,,,,,,,1,9,19,0,,,,,,,,,,,,,,,AMSA03.jpg,AMNE08.jpg,AMNE03.jpg,AMSA17.jpg,AMNE08.jpg,MN,1,num_6,32,num_2,0.583471865917,,,2017_Apr_20_1637,59.9966709068,MAFE4ImagesEEG,001,100199,
AFNE01.JPG,AFNE01.JPG,AFNE01.JPG,AFNE01.JPG,AFNE01.JPG,AFNE01.JPG,,,,,,,,,2,0,20,1,,,,,,,,,,,,,,,AMSA07.jpg,AMNE14.jpg,AMNE02.jpg,AMSA08.jpg,AMSA07.jpg,MS,2,num_8,16,num_8,0.90007405862,,,2017_Apr_20_1637,59.9966709068,MAFE4ImagesEEG,001,100199,
AFNE01.JPG,AFNE01.JPG,AFNE01.JPG,AFNE01.JPG,AFNE01.JPG,AFNE01.JPG,,,,,,,,,2,1,21,7,,,,,,,,,,,,,,,AMNE13.jpg,AMSA15.jpg,AMNE05.jpg,AMSA16.jpg,AMSA15.jpg,MS,2,num_6,16,num_6,0.600128808815,,,2017_Apr_20_1637,59.9966709068,MAFE4ImagesEEG,001,100199,
AFNE01.JPG,AFNE01.JPG,AFNE01.JPG,AFNE01.JPG,AFNE01.JPG,AFNE01.JPG,,,,,,,,,2,2,22,5,,,,,,,,,,,,,,,AMNE04.jpg,AMNE09.jpg,AMSA19.jpg,AMSA02.jpg,AMNE09.jpg,MN,1,num_6,32,num_2,1.20008473931,,,2017_Apr_20_1637,59.9966709068,MAFE4ImagesEEG,001,100199,
AFNE01.JPG,AFNE01.JPG,AFNE01.JPG,AFNE01.JPG,AFNE01.JPG,AFNE01.JPG,,,,,,,,,2,3,23,2,,,,,,,,,,,,,,,AMSA20.jpg,AMNE17.jpg,AMSA17.jpg,AMNE10.jpg,AMNE17.jpg,MN,1,num_6,32,num_4,1.2667538863,,,2017_Apr_20_1637,59.9966709068,MAFE4ImagesEEG,001,100199,
AFNE01.JPG,AFNE01.JPG,AFNE01.JPG,AFNE01.JPG,AFNE01.JPG,AFNE01.JPG,,,,,,,,,2,4,24,8,,,,,,,,,,,,,,,AMSA16.jpg,AMNE03.jpg,AMSA19.jpg,AMNE10.jpg,AMNE03.jpg,MN,1,num_6,32,num_8,0.883494093141,,,2017_Apr_20_1637,59.9966709068,MAFE4ImagesEEG,001,100199,
AFNE01.JPG,AFNE01.JPG,AFNE01.JPG,AFNE01.JPG,AFNE01.JPG,AFNE01.JPG,,,,,,,,,2,5,25,6,,,,,,,,,,,,,,,AMSA10.jpg,AMNE10.jpg,AMNE08.jpg,AMSA07.jpg,AMSA10.jpg,MS,2,num_8,32,num_6,0.666796672915,,,2017_Apr_20_1637,59.9966709068,MAFE4ImagesEEG,001,100199,
AFNE01.JPG,AFNE01.JPG,AFNE01.JPG,AFNE01.JPG,AFNE01.JPG,AFNE01.JPG,,,,,,,,,2,6,26,0,,,,,,,,,,,,,,,AMNE06.jpg,AMSA07.jpg,AMSA14.jpg,AMNE10.jpg,AMSA14.jpg,MS,2,num_2,16,num_2,1.00016357697,,,2017_Apr_20_1637,59.9966709068,MAFE4ImagesEEG,001,100199,
AFNE01.JPG,AFNE01.JPG,AFNE01.JPG,AFNE01.JPG,AFNE01.JPG,AFNE01.JPG,,,,,,,,,2,7,27,4,,,,,,,,,,,,,,,AMSA07.jpg,AMSA04.jpg,AMNE16.jpg,AMNE01.jpg,AMSA07.jpg,MS,2,num_8,16,num_8,1.15012481564,,,2017_Apr_20_1637,59.9966709068,MAFE4ImagesEEG,001,100199,
AFNE01.JPG,AFNE01.JPG,AFNE01.JPG,AFNE01.JPG,AFNE01.JPG,AFNE01.JPG,,,,,,,,,2,8,28,9,,,,,,,,,,,,,,,AMNE14.jpg,AMNE16.jpg,AMSA10.jpg,AMSA05.jpg,AMSA10.jpg,MS,2,num_2,32,num_6,0.883495376096,,,2017_Apr_20_1637,59.9966709068,MAFE4ImagesEEG,001,100199,
AFNE01.JPG,AFNE01.JPG,AFNE01.JPG,AFNE01.JPG,AFNE01.JPG,AFNE01.JPG,,,,,,,,,2,9,29,3,,,,,,,,,,,,,,,AMSA02.jpg,AMNE15.jpg,AMSA03.jpg,AMNE11.jpg,AMNE15.jpg,MN,1,num_6,16,num_6,0.700168933254,,,2017_Apr_20_1637,59.9966709068,MAFE4ImagesEEG,001,100199,
AFNE01.JPG,AFNE01.JPG,AFNE01.JPG,AFNE01.JPG,AFNE01.JPG,AFNE01.JPG,,,,,,,,,3,0,30,6,,,,,,,,,,,,,,,AMNE18.jpg,AMNE04.jpg,AMSA19.jpg,AMSA17.jpg,AMNE04.jpg,MN,1,num_6,32,num_8,0.583422792784,,,2017_Apr_20_1637,59.9966709068,MAFE4ImagesEEG,001,100199,
AFNE01.JPG,AFNE01.JPG,AFNE01.JPG,AFNE01.JPG,AFNE01.JPG,AFNE01.JPG,,,,,,,,,3,1,31,0,,,,,,,,,,,,,,,AMNE08.jpg,AMSA16.jpg,AMSA07.jpg,AMNE05.jpg,AMSA16.jpg,MS,2,num_6,32,num_4,0.616765224433,,,2017_Apr_20_1637,59.9966709068,MAFE4ImagesEEG,001,100199,
AFNE01.JPG,AFNE01.JPG,AFNE01.JPG,AFNE01.JPG,AFNE01.JPG,AFNE01.JPG,,,,,,,,,3,2,32,3,,,,,,,,,,,,,,,AMNE04.jpg,AMSA16.jpg,AMSA12.jpg,AMNE15.jpg,AMSA16.jpg,MS,2,num_6,16,num_6,0.583527995215,,,2017_Apr_20_1637,59.9966709068,MAFE4ImagesEEG,001,100199,
AFNE01.JPG,AFNE01.JPG,AFNE01.JPG,AFNE01.JPG,AFNE01.JPG,AFNE01.JPG,,,,,,,,,3,3,33,7,,,,,,,,,,,,,,,AMSA13.jpg,AMNE14.jpg,AMNE10.jpg,AMSA15.jpg,AMSA13.jpg,MS,2,num_8,16,num_8,0.566903126193,,,2017_Apr_20_1637,59.9966709068,MAFE4ImagesEEG,001,100199,
AFNE01.JPG,AFNE01.JPG,AFNE01.JPG,AFNE01.JPG,AFNE01.JPG,AFNE01.JPG,,,,,,,,,3,4,34,8,,,,,,,,,,,,,,,AMSA05.jpg,AMNE13.jpg,AMNE19.jpg,AMSA02.jpg,AMSA02.jpg,MS,2,num_4,32,num_6,0.750100631907,,,2017_Apr_20_1637,59.9966709068,MAFE4ImagesEEG,001,100199,
AFNE01.JPG,AFNE01.JPG,AFNE01.JPG,AFNE01.JPG,AFNE01.JPG,AFNE01.JPG,,,,,,,,,3,5,35,1,,,,,,,,,,,,,,,AMNE15.jpg,AMNE20.jpg,AMSA16.jpg,AMSA08.jpg,AMNE15.jpg,MN,1,num_8,16,num_8,0.950101337512,,,2017_Apr_20_1637,59.9966709068,MAFE4ImagesEEG,001,100199,
AFNE01.JPG,AFNE01.JPG,AFNE01.JPG,AFNE01.JPG,AFNE01.JPG,AFNE01.JPG,,,,,,,,,3,6,36,5,,,,,,,,,,,,,,,AMNE13.jpg,AMSA03.jpg,AMSA13.jpg,AMNE17.jpg,AMSA03.jpg,MS,2,num_6,16,num_6,0.683476388338,,,2017_Apr_20_1637,59.9966709068,MAFE4ImagesEEG,001,100199,
AFNE01.JPG,AFNE01.JPG,AFNE01.JPG,AFNE01.JPG,AFNE01.JPG,AFNE01.JPG,,,,,,,,,3,7,37,4,,,,,,,,,,,,,,,AMSA04.jpg,AMNE18.jpg,AMNE04.jpg,AMSA01.jpg,AMSA04.jpg,MS,2,num_8,16,num_8,0.900124414649,,,2017_Apr_20_1637,59.9966709068,MAFE4ImagesEEG,001,100199,
AFNE01.JPG,AFNE01.JPG,AFNE01.JPG,AFNE01.JPG,AFNE01.JPG,AFNE01.JPG,,,,,,,,,3,8,38,2,,,,,,,,,,,,,,,AMSA12.jpg,AMNE16.jpg,AMSA20.jpg,AMNE09.jpg,AMSA12.jpg,MS,2,num_8,16,num_8,0.650172445399,,,2017_Apr_20_1637,59.9966709068,MAFE4ImagesEEG,001,100199,
AFNE01.JPG,AFNE01.JPG,AFNE01.JPG,AFNE01.JPG,AFNE01.JPG,AFNE01.JPG,,,,,,,,,3,9,39,9,,,,,,,,,,,,,,,AMNE11.jpg,AMNE15.jpg,AMSA01.jpg,AMSA11.jpg,AMSA11.jpg,MS,2,num_4,32,num_6,1.01681057696,,,2017_Apr_20_1637,59.9966709068,MAFE4ImagesEEG,001,100199,
AFNE01.JPG,AFNE01.JPG,AFNE01.JPG,AFNE01.JPG,AFNE01.JPG,AFNE01.JPG,,,,,,,,,4,0,40,1,,,,,,,,,,,,,,,AMSA04.jpg,AMNE08.jpg,AMNE20.jpg,AMSA19.jpg,AMNE08.jpg,MN,1,num_6,32,num_8,0.783500475867,,,2017_Apr_20_1637,59.9966709068,MAFE4ImagesEEG,001,100199,
AFNE01.JPG,AFNE01.JPG,AFNE01.JPG,AFNE01.JPG,AFNE01.JPG,AFNE01.JPG,,,,,,,,,4,1,41,2,,,,,,,,,,,,,,,AMSA17.jpg,AMNE09.jpg,AMNE16.jpg,AMSA13.jpg,AMSA17.jpg,MS,2,num_8,16,num_8,0.616787355451,,,2017_Apr_20_1637,59.9966709068,MAFE4ImagesEEG,001,100199,
AFNE01.JPG,AFNE01.JPG,AFNE01.JPG,AFNE01.JPG,AFNE01.JPG,AFNE01.JPG,,,,,,,,,4,2,42,8,,,,,,,,,,,,,,,AMNE06.jpg,AMNE13.jpg,AMSA10.jpg,AMSA12.jpg,AMSA10.jpg,MS,2,num_2,32,num_4,0.716776482353,,,2017_Apr_20_1637,59.9966709068,MAFE4ImagesEEG,001,100199,
AFNE01.JPG,AFNE01.JPG,AFNE01.JPG,AFNE01.JPG,AFNE01.JPG,AFNE01.JPG,,,,,,,,,4,3,43,7,,,,,,,,,,,,,,,AMSA14.jpg,AMNE11.jpg,AMSA07.jpg,AMNE06.jpg,AMSA07.jpg,MS,2,num_2,32,num_8,0.500114664203,,,2017_Apr_20_1637,59.9966709068,MAFE4ImagesEEG,001,100199,
AFNE01.JPG,AFNE01.JPG,AFNE01.JPG,AFNE01.JPG,AFNE01.JPG,AFNE01.JPG,,,,,,,,,4,4,44,5,,,,,,,,,,,,,,,AMNE19.jpg,AMSA12.jpg,AMNE12.jpg,AMSA13.jpg,AMNE19.jpg,MN,1,num_8,16,num_8,0.483334878227,,,2017_Apr_20_1637,59.9966709068,MAFE4ImagesEEG,001,100199,
AFNE01.JPG,AFNE01.JPG,AFNE01.JPG,AFNE01.JPG,AFNE01.JPG,AFNE01.JPG,,,,,,,,,4,5,45,3,,,,,,,,,,,,,,,AMSA10.jpg,AMNE09.jpg,AMNE06.jpg,AMSA16.jpg,AMNE06.jpg,MN,1,num_2,32,num_6,0.466770949657,,,2017_Apr_20_1637,59.9966709068,MAFE4ImagesEEG,001,100199,
AFNE01.JPG,AFNE01.JPG,AFNE01.JPG,AFNE01.JPG,AFNE01.JPG,AFNE01.JPG,,,,,,,,,4,6,46,0,,,,,,,,,,,,,,,AMNE01.jpg,AMNE14.jpg,AMSA08.jpg,AMSA18.jpg,AMNE01.jpg,MN,1,num_8,16,num_8,0.683460992819,,,2017_Apr_20_1637,59.9966709068,MAFE4ImagesEEG,001,100199,
AFNE01.JPG,AFNE01.JPG,AFNE01.JPG,AFNE01.JPG,AFNE01.JPG,AFNE01.JPG,,,,,,,,,4,7,47,6,,,,,,,,,,,,,,,AMSA16.jpg,AMSA07.jpg,AMNE04.jpg,AMNE02.jpg,AMNE02.jpg,MN,1,num_4,32,num_2,0.733511044178,,,2017_Apr_20_1637,59.9966709068,MAFE4ImagesEEG,001,100199,
AFNE01.JPG,AFNE01.JPG,AFNE01.JPG,AFNE01.JPG,AFNE01.JPG,AFNE01.JPG,,,,,,,,,4,8,48,4,,,,,,,,,,,,,,,AMNE14.jpg,AMSA07.jpg,AMNE09.jpg,AMSA16.jpg,AMSA16.jpg,MS,2,num_4,32,num_8,1.30033943814,,,2017_Apr_20_1637,59.9966709068,MAFE4ImagesEEG,001,100199,
AFNE01.JPG,AFNE01.JPG,AFNE01.JPG,AFNE01.JPG,AFNE01.JPG,AFNE01.JPG,,,,,,,,,4,9,49,9,,,,,,,,,,,,,,,AMNE14.jpg,AMSA09.jpg,AMSA04.jpg,AMNE19.jpg,AMSA09.jpg,MS,2,num_6,16,num_6,0.583473148814,,,2017_Apr_20_1637,59.9966709068,MAFE4ImagesEEG,001,100199,
AFNE01.JPG,AFNE01.JPG,AFNE01.JPG,AFNE01.JPG,AFNE01.JPG,AFNE01.JPG,,,,,,,,,5,0,50,7,,,,,,,,,,,,,,,AMNE04.jpg,AMNE13.jpg,AMSA13.jpg,AMSA09.jpg,AMSA09.jpg,MS,2,num_4,32,num_8,0.750095820753,,,2017_Apr_20_1637,59.9966709068,MAFE4ImagesEEG,001,100199,
AFNE01.JPG,AFNE01.JPG,AFNE01.JPG,AFNE01.JPG,AFNE01.JPG,AFNE01.JPG,,,,,,,,,5,1,51,6,,,,,,,,,,,,,,,AMSA03.jpg,AMSA17.jpg,AMNE20.jpg,AMNE08.jpg,AMNE08.jpg,MN,1,num_4,32,num_8,0.600149336096,,,2017_Apr_20_1637,59.9966709068,MAFE4ImagesEEG,001,100199,
AFNE01.JPG,AFNE01.JPG,AFNE01.JPG,AFNE01.JPG,AFNE01.JPG,AFNE01.JPG,,,,,,,,,5,2,52,9,,,,,,,,,,,,,,,AMNE06.jpg,AMSA06.jpg,AMSA18.jpg,AMNE17.jpg,AMNE06.jpg,MN,1,num_8,32,num_6,0.550170488888,,,2017_Apr_20_1637,59.9966709068,MAFE4ImagesEEG,001,100199,
AFNE01.JPG,AFNE01.JPG,AFNE01.JPG,AFNE01.JPG,AFNE01.JPG,AFNE01.JPG,,,,,,,,,5,3,53,5,,,,,,,,,,,,,,,AMNE08.jpg,AMNE09.jpg,AMSA12.jpg,AMSA02.jpg,AMNE08.jpg,MN,1,num_8,16,num_8,0.550192299124,,,2017_Apr_20_1637,59.9966709068,MAFE4ImagesEEG,001,100199,
AFNE01.JPG,AFNE01.JPG,AFNE01.JPG,AFNE01.JPG,AFNE01.JPG,AFNE01.JPG,,,,,,,,,5,4,54,1,,,,,,,,,,,,,,,AMNE12.jpg,AMSA07.jpg,AMSA20.jpg,AMNE17.jpg,AMNE12.jpg,MN,1,num_8,16,num_8,0.750175364083,,,2017_Apr_20_1637,59.9966709068,MAFE4ImagesEEG,001,100199,
AFNE01.JPG,AFNE01.JPG,AFNE01.JPG,AFNE01.JPG,AFNE01.JPG,AFNE01.JPG,,,,,,,,,5,5,55,4,,,,,,,,,,,,,,,AMSA09.jpg,AMNE04.jpg,AMSA10.jpg,AMNE06.jpg,AMNE06.jpg,MN,1,num_4,32,num_2,0.7168233103,,,2017_Apr_20_1637,59.9966709068,MAFE4ImagesEEG,001,100199,
AFNE01.JPG,AFNE01.JPG,AFNE01.JPG,AFNE01.JPG,AFNE01.JPG,AFNE01.JPG,,,,,,,,,5,6,56,0,,,,,,,,,,,,,,,AMNE14.jpg,AMNE07.jpg,AMSA15.jpg,AMSA10.jpg,AMSA15.jpg,MS,2,num_2,32,num_8,1.0667788398,,,2017_Apr_20_1637,59.9966709068,MAFE4ImagesEEG,001,100199,
AFNE01.JPG,AFNE01.JPG,AFNE01.JPG,AFNE01.JPG,AFNE01.JPG,AFNE01.JPG,,,,,,,,,5,7,57,8,,,,,,,,,,,,,,,AMNE07.jpg,AMNE12.jpg,AMSA01.jpg,AMSA19.jpg,AMNE07.jpg,MN,1,num_8,32,num_6,0.833163715841,,,2017_Apr_20_1637,59.9966709068,MAFE4ImagesEEG,001,100199,
AFNE01.JPG,AFNE01.JPG,AFNE01.JPG,AFNE01.JPG,AFNE01.JPG,AFNE01.JPG,,,,,,,,,5,8,58,3,,,,,,,,,,,,,,,AMSA04.jpg,AMNE16.jpg,AMSA01.jpg,AMNE09.jpg,AMSA01.jpg,MS,2,num_2,32,num_8,0.450166607916,,,2017_Apr_20_1637,59.9966709068,MAFE4ImagesEEG,001,100199,
AFNE01.JPG,AFNE01.JPG,AFNE01.JPG,AFNE01.JPG,AFNE01.JPG,AFNE01.JPG,,,,,,,,,5,9,59,2,,,,,,,,,,,,,,,AMNE16.jpg,AMSA06.jpg,AMNE15.jpg,AMSA16.jpg,AMSA16.jpg,MS,2,num_4,16,num_4,0.616908915574,,,2017_Apr_20_1637,59.9966709068,MAFE4ImagesEEG,001,100199,
,,,,,,,,,,,,,,,,,,,,,,,,,,,,,,,,,,,,,,,,,,,space,48.9796481428,2017_Apr_20_1637,59.9966709068,MAFE4ImagesEEG,001,100199,
AFNE01.JPG,AFNE01.JPG,AFNE01.JPG,AFNE01.JPG,AFNE01.JPG,AFNE01.JPG,,,,,,,,,,,,,0,0,0,2,,,,,,,,,,,AFSA06.jpg,AFSA18.jpg,AFNE13.jpg,AFNE10.jpg,AFNE13.jpg,FN,3,num_2,32,num_8,0.783869967214,,,2017_Apr_20_1637,59.9966709068,MAFE4ImagesEEG,001,100199,
AFNE01.JPG,AFNE01.JPG,AFNE01.JPG,AFNE01.JPG,AFNE01.JPG,AFNE01.JPG,,,,,,,,,,,,,0,1,1,7,,,,,,,,,,,AFNE01.jpg,AFSA12.jpg,AFNE13.jpg,AFSA02.jpg,AFNE13.jpg,FN,3,num_2,32,num_8,0.650129145593,,,2017_Apr_20_1637,59.9966709068,MAFE4ImagesEEG,001,100199,
AFNE01.JPG,AFNE01.JPG,AFNE01.JPG,AFNE01.JPG,AFNE01.JPG,AFNE01.JPG,,,,,,,,,,,,,0,2,2,9,,,,,,,,,,,AFNE12.jpg,AFSA06.jpg,AFSA01.jpg,AFNE17.jpg,AFNE12.jpg,FN,3,num_8,32,num_2,0.916750566685,,,2017_Apr_20_1637,59.9966709068,MAFE4ImagesEEG,001,100199,
AFNE01.JPG,AFNE01.JPG,AFNE01.JPG,AFNE01.JPG,AFNE01.JPG,AFNE01.JPG,,,,,,,,,,,,,0,3,3,4,,,,,,,,,,,AFSA09.jpg,AFSA15.jpg,AFNE14.jpg,AFNE13.jpg,AFNE14.jpg,FN,3,num_2,32,num_8,0.650113750075,,,2017_Apr_20_1637,59.9966709068,MAFE4ImagesEEG,001,100199,
AFNE01.JPG,AFNE01.JPG,AFNE01.JPG,AFNE01.JPG,AFNE01.JPG,AFNE01.JPG,,,,,,,,,,,,,0,4,4,3,,,,,,,,,,,AFSA07.jpg,AFNE17.jpg,AFSA02.jpg,AFNE19.jpg,AFSA02.jpg,FS,4,num_2,32,num_6,0.783444987959,,,2017_Apr_20_1637,59.9966709068,MAFE4ImagesEEG,001,100199,
AFNE01.JPG,AFNE01.JPG,AFNE01.JPG,AFNE01.JPG,AFNE01.JPG,AFNE01.JPG,,,,,,,,,,,,,0,5,5,0,,,,,,,,,,,AFSA17.jpg,AFSA14.jpg,AFNE17.jpg,AFNE16.jpg,AFNE17.jpg,FN,3,num_2,32,num_8,0.783452364965,,,2017_Apr_20_1637,59.9966709068,MAFE4ImagesEEG,001,100199,
AFNE01.JPG,AFNE01.JPG,AFNE01.JPG,AFNE01.JPG,AFNE01.JPG,AFNE01.JPG,,,,,,,,,,,,,0,6,6,8,,,,,,,,,,,AFSA01.jpg,AFNE10.jpg,AFSA06.jpg,AFNE07.jpg,AFNE10.jpg,FN,3,num_6,32,num_2,0.550131037948,,,2017_Apr_20_1637,59.9966709068,MAFE4ImagesEEG,001,100199,
AFNE01.JPG,AFNE01.JPG,AFNE01.JPG,AFNE01.JPG,AFNE01.JPG,AFNE01.JPG,,,,,,,,,,,,,0,7,7,1,,,,,,,,,,,AFNE03.jpg,AFSA05.jpg,AFSA15.jpg,AFNE17.jpg,AFNE03.jpg,FN,3,num_8,32,num_4,0.650052488956,,,2017_Apr_20_1637,59.9966709068,MAFE4ImagesEEG,001,100199,
AFNE01.JPG,AFNE01.JPG,AFNE01.JPG,AFNE01.JPG,AFNE01.JPG,AFNE01.JPG,,,,,,,,,,,,,0,8,8,5,,,,,,,,,,,AFSA13.jpg,AFNE09.jpg,AFNE19.jpg,AFSA15.jpg,AFSA15.jpg,FS,4,num_4,32,num_8,0.400176214054,,,2017_Apr_20_1637,59.9966709068,MAFE4ImagesEEG,001,100199,
AFNE01.JPG,AFNE01.JPG,AFNE01.JPG,AFNE01.JPG,AFNE01.JPG,AFNE01.JPG,,,,,,,,,,,,,0,9,9,6,,,,,,,,,,,AFSA18.jpg,AFSA08.jpg,AFNE04.jpg,AFNE20.jpg,AFSA18.jpg,FS,4,num_8,32,num_6,0.466806872399,,,2017_Apr_20_1637,59.9966709068,MAFE4ImagesEEG,001,100199,
AFNE01.JPG,AFNE01.JPG,AFNE01.JPG,AFNE01.JPG,AFNE01.JPG,AFNE01.JPG,,,,,,,,,,,,,1,0,10,1,,,,,,,,,,,AFNE18.jpg,AFSA01.jpg,AFNE09.jpg,AFSA03.jpg,AFSA03.jpg,FS,4,num_4,32,num_8,0.633508125436,,,2017_Apr_20_1637,59.9966709068,MAFE4ImagesEEG,001,100199,
AFNE01.JPG,AFNE01.JPG,AFNE01.JPG,AFNE01.JPG,AFNE01.JPG,AFNE01.JPG,,,,,,,,,,,,,1,1,11,7,,,,,,,,,,,AFSA15.jpg,AFSA02.jpg,AFNE02.jpg,AFNE05.jpg,AFSA02.jpg,FS,4,num_6,32,num_8,0.550176262157,,,2017_Apr_20_1637,59.9966709068,MAFE4ImagesEEG,001,100199,
AFNE01.JPG,AFNE01.JPG,AFNE01.JPG,AFNE01.JPG,AFNE01.JPG,AFNE01.JPG,,,,,,,,,,,,,1,2,12,0,,,,,,,,,,,AFSA18.jpg,AFNE19.jpg,AFSA10.jpg,AFNE16.jpg,AFNE16.jpg,FN,3,num_4,32,num_6,0.466806551674,,,2017_Apr_20_1637,59.9966709068,MAFE4ImagesEEG,001,100199,
AFNE01.JPG,AFNE01.JPG,AFNE01.JPG,AFNE01.JPG,AFNE01.JPG,AFNE01.JPG,,,,,,,,,,,,,1,3,13,4,,,,,,,,,,,AFNE15.jpg,AFSA12.jpg,AFSA16.jpg,AFNE20.jpg,AFNE15.jpg,FN,3,num_8,32,num_4,1.26672501978,,,2017_Apr_20_1637,59.9966709068,MAFE4ImagesEEG,001,100199,
AFNE01.JPG,AFNE01.JPG,AFNE01.JPG,AFNE01.JPG,AFNE01.JPG,AFNE01.JPG,,,,,,,,,,,,,1,4,14,2,,,,,,,,,,,AFNE04.jpg,AFSA11.jpg,AFSA18.jpg,AFNE18.jpg,AFNE04.jpg,FN,3,num_8,16,num_8,0.616750791203,,,2017_Apr_20_1637,59.9966709068,MAFE4ImagesEEG,001,100199,
AFNE01.JPG,AFNE01.JPG,AFNE01.JPG,AFNE01.JPG,AFNE01.JPG,AFNE01.JPG,,,,,,,,,,,,,1,5,15,8,,,,,,,,,,,AFNE06.jpg,AFNE11.jpg,AFSA06.jpg,AFSA13.jpg,AFSA13.jpg,FS,4,num_4,32,num_8,0.733469027327,,,2017_Apr_20_1637,59.9966709068,MAFE4ImagesEEG,001,100199,
AFNE01.JPG,AFNE01.JPG,AFNE01.JPG,AFNE01.JPG,AFNE01.JPG,AFNE01.JPG,,,,,,,,,,,,,1,6,16,5,,,,,,,,,,,AFSA13.jpg,AFNE07.jpg,AFNE19.jpg,AFSA15.jpg,AFNE19.jpg,FN,3,num_2,16,num_2,0.950302440964,,,2017_Apr_20_1637,59.9966709068,MAFE4ImagesEEG,001,100199,
AFNE01.JPG,AFNE01.JPG,AFNE01.JPG,AFNE01.JPG,AFNE01.JPG,AFNE01.JPG,,,,,,,,,,,,,1,7,17,3,,,,,,,,,,,AFSA14.jpg,AFNE16.jpg,AFSA04.jpg,AFNE08.jpg,AFSA04.jpg,FS,4,num_2,32,num_8,0.60017275007,,,2017_Apr_20_1637,59.9966709068,MAFE4ImagesEEG,001,100199,
AFNE01.JPG,AFNE01.JPG,AFNE01.JPG,AFNE01.JPG,AFNE01.JPG,AFNE01.JPG,,,,,,,,,,,,,1,8,18,9,,,,,,,,,,,AFNE18.jpg,AFSA05.jpg,AFNE16.jpg,AFSA08.jpg,AFNE18.jpg,FN,3,num_8,32,num_2,0.916790979798,,,2017_Apr_20_1637,59.9966709068,MAFE4ImagesEEG,001,100199,
AFNE01.JPG,AFNE01.JPG,AFNE01.JPG,AFNE01.JPG,AFNE01.JPG,AFNE01.JPG,,,,,,,,,,,,,1,9,19,6,,,,,,,,,,,AFSA10.jpg,AFNE17.jpg,AFNE15.jpg,AFSA01.jpg,AFSA01.jpg,FS,4,num_4,32,num_8,0.550148357812,,,2017_Apr_20_1637,59.9966709068,MAFE4ImagesEEG,001,100199,
AFNE01.JPG,AFNE01.JPG,AFNE01.JPG,AFNE01.JPG,AFNE01.JPG,AFNE01.JPG,,,,,,,,,,,,,2,0,20,9,,,,,,,,,,,AFSA17.jpg,AFNE09.jpg,AFNE15.jpg,AFSA01.jpg,AFSA17.jpg,FS,4,num_8,32,num_6,0.466781854804,,,2017_Apr_20_1637,59.9966709068,MAFE4ImagesEEG,001,100199,
AFNE01.JPG,AFNE01.JPG,AFNE01.JPG,AFNE01.JPG,AFNE01.JPG,AFNE01.JPG,,,,,,,,,,,,,2,1,21,8,,,,,,,,,,,AFNE16.jpg,AFSA04.jpg,AFNE08.jpg,AFSA03.jpg,AFSA04.jpg,FS,4,num_6,16,num_6,0.683490821568,,,2017_Apr_20_1637,59.9966709068,MAFE4ImagesEEG,001,100199,
AFNE01.JPG,AFNE01.JPG,AFNE01.JPG,AFNE01.JPG,AFNE01.JPG,AFNE01.JPG,,,,,,,,,,,,,2,2,22,5,,,,,,,,,,,AFNE13.jpg,AFSA20.jpg,AFSA07.jpg,AFNE11.jpg,AFNE11.jpg,FN,3,num_4,32,num_8,0.800126307062,,,2017_Apr_20_1637,59.9966709068,MAFE4ImagesEEG,001,100199,
AFNE01.JPG,AFNE01.JPG,AFNE01.JPG,AFNE01.JPG,AFNE01.JPG,AFNE01.JPG,,,,,,,,,,,,,2,3,23,4,,,,,,,,,,,AFSA03.jpg,AFNE14.jpg,AFNE05.jpg,AFSA06.jpg,AFNE05.jpg,FN,3,num_2,32,num_4,0.7168592331,,,2017_Apr_20_1637,59.9966709068,MAFE4ImagesEEG,001,100199,
AFNE01.JPG,AFNE01.JPG,AFNE01.JPG,AFNE01.JPG,AFNE01.JPG,AFNE01.JPG,,,,,,,,,,,,,2,4,24,6,,,,,,,,,,,AFNE13.jpg,AFSA11.jpg,AFNE11.jpg,AFSA04.jpg,AFSA04.jpg,FS,4,num_4,32,num_8,1.33340122306,,,2017_Apr_20_1637,59.9966709068,MAFE4ImagesEEG,001,100199,
AFNE01.JPG,AFNE01.JPG,AFNE01.JPG,AFNE01.JPG,AFNE01.JPG,AFNE01.JPG,,,,,,,,,,,,,2,5,25,1,,,,,,,,,,,AFSA03.jpg,AFNE18.jpg,AFSA08.jpg,AFNE16.jpg,AFSA03.jpg,FS,4,num_8,32,num_4,0.733458763687,,,2017_Apr_20_1637,59.9966709068,MAFE4ImagesEEG,001,100199,
AFNE01.JPG,AFNE01.JPG,AFNE01.JPG,AFNE01.JPG,AFNE01.JPG,AFNE01.JPG,,,,,,,,,,,,,2,6,26,2,,,,,,,,,,,AFSA17.jpg,AFNE03.jpg,AFSA05.jpg,AFNE17.jpg,AFNE17.jpg,FN,3,num_4,32,num_8,0.833618523844,,,2017_Apr_20_1637,59.9966709068,MAFE4ImagesEEG,001,100199,
AFNE01.JPG,AFNE01.JPG,AFNE01.JPG,AFNE01.JPG,AFNE01.JPG,AFNE01.JPG,,,,,,,,,,,,,2,7,27,0,,,,,,,,,,,AFNE18.jpg,AFSA12.jpg,AFNE13.jpg,AFSA10.jpg,AFSA10.jpg,FS,4,num_4,32,num_6,0.983415544091,,,2017_Apr_20_1637,59.9966709068,MAFE4ImagesEEG,001,100199,
AFNE01.JPG,AFNE01.JPG,AFNE01.JPG,AFNE01.JPG,AFNE01.JPG,AFNE01.JPG,,,,,,,,,,,,,2,8,28,3,,,,,,,,,,,AFSA17.jpg,AFNE15.jpg,AFSA16.jpg,AFNE11.jpg,AFSA17.jpg,FS,4,num_8,16,num_8,0.716768463957,,,2017_Apr_20_1637,59.9966709068,MAFE4ImagesEEG,001,100199,
AFNE01.JPG,AFNE01.JPG,AFNE01.JPG,AFNE01.JPG,AFNE01.JPG,AFNE01.JPG,,,,,,,,,,,,,2,9,29,7,,,,,,,,,,,AFSA12.jpg,AFNE03.jpg,AFSA15.jpg,AFNE01.jpg,AFSA15.jpg,FS,4,num_2,32,num_8,1.30008380912,,,2017_Apr_20_1637,59.9966709068,MAFE4ImagesEEG,001,100199,
AFNE01.JPG,AFNE01.JPG,AFNE01.JPG,AFNE01.JPG,AFNE01.JPG,AFNE01.JPG,,,,,,,,,,,,,3,0,30,2,,,,,,,,,,,AFSA09.jpg,AFNE12.jpg,AFSA03.jpg,AFNE16.jpg,AFSA09.jpg,FS,4,num_8,32,num_6,1.0667605577,,,2017_Apr_20_1637,59.9966709068,MAFE4ImagesEEG,001,100199,
AFNE01.JPG,AFNE01.JPG,AFNE01.JPG,AFNE01.JPG,AFNE01.JPG,AFNE01.JPG,,,,,,,,,,,,,3,1,31,3,,,,,,,,,,,AFSA03.jpg,AFSA01.jpg,AFNE02.jpg,AFNE11.jpg,AFNE11.jpg,FN,3,num_4,32,num_8,1.0334303141,,,2017_Apr_20_1637,59.9966709068,MAFE4ImagesEEG,001,100199,
AFNE01.JPG,AFNE01.JPG,AFNE01.JPG,AFNE01.JPG,AFNE01.JPG,AFNE01.JPG,,,,,,,,,,,,,3,2,32,1,,,,,,,,,,,AFNE20.jpg,AFSA20.jpg,AFNE02.jpg,AFSA08.jpg,AFSA20.jpg,FS,4,num_6,32,num_4,0.55011500098,,,2017_Apr_20_1637,59.9966709068,MAFE4ImagesEEG,001,100199,
AFNE01.JPG,AFNE01.JPG,AFNE01.JPG,AFNE01.JPG,AFNE01.JPG,AFNE01.JPG,,,,,,,,,,,,,3,3,33,0,,,,,,,,,,,AFSA01.jpg,AFNE03.jpg,AFNE06.jpg,AFSA06.jpg,AFSA06.jpg,FS,4,num_4,32,num_2,0.833476757165,,,2017_Apr_20_1637,59.9966709068,MAFE4ImagesEEG,001,100199,
AFNE01.JPG,AFNE01.JPG,AFNE01.JPG,AFNE01.JPG,AFNE01.JPG,AFNE01.JPG,,,,,,,,,,,,,3,4,34,7,,,,,,,,,,,AFSA06.jpg,AFNE13.jpg,AFNE08.jpg,AFSA16.jpg,AFNE13.jpg,FN,3,num_6,32,num_8,0.783521644596,,,2017_Apr_20_1637,59.9966709068,MAFE4ImagesEEG,001,100199,
AFNE01.JPG,AFNE01.JPG,AFNE01.JPG,AFNE01.JPG,AFNE01.JPG,AFNE01.JPG,,,,,,,,,,,,,3,5,35,5,,,,,,,,,,,AFSA18.jpg,AFSA20.jpg,AFNE05.jpg,AFNE18.jpg,AFNE18.jpg,FN,3,num_4,32,num_6,0.350156953675,,,2017_Apr_20_1637,59.9966709068,MAFE4ImagesEEG,001,100199,
AFNE01.JPG,AFNE01.JPG,AFNE01.JPG,AFNE01.JPG,AFNE01.JPG,AFNE01.JPG,,,,,,,,,,,,,3,6,36,6,,,,,,,,,,,AFSA17.jpg,AFNE04.jpg,AFSA01.jpg,AFNE16.jpg,AFNE16.jpg,FN,3,num_4,32,num_8,0.666745996103,,,2017_Apr_20_1637,59.9966709068,MAFE4ImagesEEG,001,100199,
AFNE01.JPG,AFNE01.JPG,AFNE01.JPG,AFNE01.JPG,AFNE01.JPG,AFNE01.JPG,,,,,,,,,,,,,3,7,37,8,,,,,,,,,,,AFSA20.jpg,AFNE16.jpg,AFNE15.jpg,AFSA07.jpg,AFSA20.jpg,FS,4,num_8,32,num_6,1.05020849645,,,2017_Apr_20_1637,59.9966709068,MAFE4ImagesEEG,001,100199,
AFNE01.JPG,AFNE01.JPG,AFNE01.JPG,AFNE01.JPG,AFNE01.JPG,AFNE01.JPG,,,,,,,,,,,,,3,8,38,4,,,,,,,,,,,AFNE10.jpg,AFSA17.jpg,AFNE16.jpg,AFSA19.jpg,AFSA19.jpg,FS,4,num_4,32,num_8,0.666655547684,,,2017_Apr_20_1637,59.9966709068,MAFE4ImagesEEG,001,100199,
AFNE01.JPG,AFNE01.JPG,AFNE01.JPG,AFNE01.JPG,AFNE01.JPG,AFNE01.JPG,,,,,,,,,,,,,3,9,39,9,,,,,,,,,,,AFSA13.jpg,AFSA06.jpg,AFNE11.jpg,AFNE15.jpg,AFSA06.jpg,FS,4,num_6,16,num_6,1.00012091862,,,2017_Apr_20_1637,59.9966709068,MAFE4ImagesEEG,001,100199,
AFNE01.JPG,AFNE01.JPG,AFNE01.JPG,AFNE01.JPG,AFNE01.JPG,AFNE01.JPG,,,,,,,,,,,,,4,0,40,6,,,,,,,,,,,AFSA01.jpg,AFNE20.jpg,AFSA13.jpg,AFNE16.jpg,AFSA01.jpg,FS,4,num_8,16,num_8,0.833455588378,,,2017_Apr_20_1637,59.9966709068,MAFE4ImagesEEG,001,100199,
AFNE01.JPG,AFNE01.JPG,AFNE01.JPG,AFNE01.JPG,AFNE01.JPG,AFNE01.JPG,,,,,,,,,,,,,4,1,41,5,,,,,,,,,,,AFSA07.jpg,AFNE18.jpg,AFSA18.jpg,AFNE14.jpg,AFSA07.jpg,FS,4,num_8,32,num_4,0.600125280733,,,2017_Apr_20_1637,59.9966709068,MAFE4ImagesEEG,001,100199,
AFNE01.JPG,AFNE01.JPG,AFNE01.JPG,AFNE01.JPG,AFNE01.JPG,AFNE01.JPG,,,,,,,,,,,,,4,2,42,4,,,,,,,,,,,AFSA19.jpg,AFSA17.jpg,AFNE14.jpg,AFNE12.jpg,AFNE14.jpg,FN,3,num_2,32,num_8,0.866625462426,,,2017_Apr_20_1637,59.9966709068,MAFE4ImagesEEG,001,100199,
AFNE01.JPG,AFNE01.JPG,AFNE01.JPG,AFNE01.JPG,AFNE01.JPG,AFNE01.JPG,,,,,,,,,,,,,4,3,43,8,,,,,,,,,,,AFNE03.jpg,AFNE09.jpg,AFSA12.jpg,AFSA03.jpg,AFNE03.jpg,FN,3,num_8,16,num_8,1.03316794953,,,2017_Apr_20_1637,59.9966709068,MAFE4ImagesEEG,001,100199,
AFNE01.JPG,AFNE01.JPG,AFNE01.JPG,AFNE01.JPG,AFNE01.JPG,AFNE01.JPG,,,,,,,,,,,,,4,4,44,9,,,,,,,,,,,AFNE02.jpg,AFSA20.jpg,AFNE05.jpg,AFSA08.jpg,AFNE05.jpg,FN,3,num_2,32,num_8,0.850147171121,,,2017_Apr_20_1637,59.9966709068,MAFE4ImagesEEG,001,100199,
AFNE01.JPG,AFNE01.JPG,AFNE01.JPG,AFNE01.JPG,AFNE01.JPG,AFNE01.JPG,,,,,,,,,,,,,4,5,45,1,,,,,,,,,,,AFSA01.jpg,AFNE14.jpg,AFNE13.jpg,AFSA02.jpg,AFNE13.jpg,FN,3,num_2,32,num_6,1.15010396758,,,2017_Apr_20_1637,59.9966709068,MAFE4ImagesEEG,001,100199,
AFNE01.JPG,AFNE01.JPG,AFNE01.JPG,AFNE01.JPG,AFNE01.JPG,AFNE01.JPG,,,,,,,,,,,,,4,6,46,0,,,,,,,,,,,AFSA18.jpg,AFNE13.jpg,AFSA10.jpg,AFNE14.jpg,AFNE14.jpg,FN,3,num_4,32,num_2,1.16677502304,,,2017_Apr_20_1637,59.9966709068,MAFE4ImagesEEG,001,100199,
AFNE01.JPG,AFNE01.JPG,AFNE01.JPG,AFNE01.JPG,AFNE01.JPG,AFNE01.JPG,,,,,,,,,,,,,4,7,47,3,,,,,,,,,,,AFSA13.jpg,AFNE01.jpg,AFNE03.jpg,AFSA04.jpg,AFNE03.jpg,FN,3,num_2,32,num_4,1.00013118226,,,2017_Apr_20_1637,59.9966709068,MAFE4ImagesEEG,001,100199,
AFNE01.JPG,AFNE01.JPG,AFNE01.JPG,AFNE01.JPG,AFNE01.JPG,AFNE01.JPG,,,,,,,,,,,,,4,8,48,7,,,,,,,,,,,AFNE09.jpg,AFSA05.jpg,AFSA18.jpg,AFNE20.jpg,AFNE09.jpg,FN,3,num_8,32,num_4,0.733486668032,,,2017_Apr_20_1637,59.9966709068,MAFE4ImagesEEG,001,100199,
AFNE01.JPG,AFNE01.JPG,AFNE01.JPG,AFNE01.JPG,AFNE01.JPG,AFNE01.JPG,,,,,,,,,,,,,4,9,49,2,,,,,,,,,,,AFNE14.jpg,AFSA19.jpg,AFSA02.jpg,AFNE11.jpg,AFNE14.jpg,FN,3,num_8,16,num_8,0.700139425229,,,2017_Apr_20_1637,59.9966709068,MAFE4ImagesEEG,001,100199,
AFNE01.JPG,AFNE01.JPG,AFNE01.JPG,AFNE01.JPG,AFNE01.JPG,AFNE01.JPG,,,,,,,,,,,,,5,0,50,8,,,,,,,,,,,AFNE16.jpg,AFSA16.jpg,AFNE17.jpg,AFSA10.jpg,AFSA16.jpg,FS,4,num_6,16,num_6,1.91669988993,,,2017_Apr_20_1637,59.9966709068,MAFE4ImagesEEG,001,100199,
AFNE01.JPG,AFNE01.JPG,AFNE01.JPG,AFNE01.JPG,AFNE01.JPG,AFNE01.JPG,,,,,,,,,,,,,5,1,51,3,,,,,,,,,,,AFSA14.jpg,AFSA05.jpg,AFNE16.jpg,AFNE12.jpg,AFNE12.jpg,FN,3,num_4,32,num_8,1.21674713475,,,2017_Apr_20_1637,59.9966709068,MAFE4ImagesEEG,001,100199,
AFNE01.JPG,AFNE01.JPG,AFNE01.JPG,AFNE01.JPG,AFNE01.JPG,AFNE01.JPG,,,,,,,,,,,,,5,2,52,9,,,,,,,,,,,AFNE05.jpg,AFSA19.jpg,AFSA20.jpg,AFNE11.jpg,AFNE05.jpg,FN,3,num_8,32,num_4,0.716805669654,,,2017_Apr_20_1637,59.9966709068,MAFE4ImagesEEG,001,100199,
AFNE01.JPG,AFNE01.JPG,AFNE01.JPG,AFNE01.JPG,AFNE01.JPG,AFNE01.JPG,,,,,,,,,,,,,5,3,53,0,,,,,,,,,,,AFNE13.jpg,AFSA15.jpg,AFSA02.jpg,AFNE16.jpg,AFSA15.jpg,FS,4,num_6,16,num_6,0.550150603056,,,2017_Apr_20_1637,59.9966709068,MAFE4ImagesEEG,001,100199,
AFNE01.JPG,AFNE01.JPG,AFNE01.JPG,AFNE01.JPG,AFNE01.JPG,AFNE01.JPG,,,,,,,,,,,,,5,4,54,2,,,,,,,,,,,AFNE02.jpg,AFSA15.jpg,AFNE08.jpg,AFSA04.jpg,AFNE08.jpg,FN,3,num_2,32,num_8,0.750126611732,,,2017_Apr_20_1637,59.9966709068,MAFE4ImagesEEG,001,100199,
AFNE01.JPG,AFNE01.JPG,AFNE01.JPG,AFNE01.JPG,AFNE01.JPG,AFNE01.JPG,,,,,,,,,,,,,5,5,55,1,,,,,,,,,,,AFSA20.jpg,AFSA04.jpg,AFNE17.jpg,AFNE14.jpg,AFNE17.jpg,FN,3,num_2,32,num_4,0.683440144814,,,2017_Apr_20_1637,59.9966709068,MAFE4ImagesEEG,001,100199,
AFNE01.JPG,AFNE01.JPG,AFNE01.JPG,AFNE01.JPG,AFNE01.JPG,AFNE01.JPG,,,,,,,,,,,,,5,6,56,4,,,,,,,,,,,AFSA12.jpg,AFSA20.jpg,AFNE18.jpg,AFNE09.jpg,AFNE18.jpg,FN,3,num_2,32,num_8,0.683483444562,,,2017_Apr_20_1637,59.9966709068,MAFE4ImagesEEG,001,100199,
AFNE01.JPG,AFNE01.JPG,AFNE01.JPG,AFNE01.JPG,AFNE01.JPG,AFNE01.JPG,,,,,,,,,,,,,5,7,57,6,,,,,,,,,,,AFSA02.jpg,AFSA17.jpg,AFNE19.jpg,AFNE20.jpg,AFNE19.jpg,FN,3,num_2,32,num_8,0.766933019098,,,2017_Apr_20_1637,59.9966709068,MAFE4ImagesEEG,001,100199,
AFNE01.JPG,AFNE01.JPG,AFNE01.JPG,AFNE01.JPG,AFNE01.JPG,AFNE01.JPG,,,,,,,,,,,,,5,8,58,7,,,,,,,,,,,AFSA15.jpg,AFNE10.jpg,AFSA12.jpg,AFNE16.jpg,AFSA15.jpg,FS,4,num_8,32,num_6,0.650255516812,,,2017_Apr_20_1637,59.9966709068,MAFE4ImagesEEG,001,100199,
AFNE01.JPG,AFNE01.JPG,AFNE01.JPG,AFNE01.JPG,AFNE01.JPG,AFNE01.JPG,,,,,,,,,,,,,5,9,59,5,,,,,,,,,,,AFNE07.jpg,AFSA10.jpg,AFNE01.jpg,AFSA04.jpg,AFNE07.jpg,FN,3,num_8,16,num_8,0.5334801891,,,2017_Apr_20_1637,59.9966709068,MAFE4ImagesEEG,001,100199,
,,,,,,,,,,,,,,,,,,,,,,,,,,,,,,,,,,,,,,,,,,,space,67.3615168906,2017_Apr_20_1637,59.9966709068,MAFE4ImagesEEG,001,100199,
AFNE01.JPG,AFNE01.JPG,AFNE01.JPG,AFNE01.JPG,AFNE01.JPG,AFNE01.JPG,,,,,,,,,,,,,,,,,0,0,0,5,,,,,,,AMSA13.jpg,AMNE01.jpg,AMNE05.jpg,AMSA08.jpg,AMNE01.jpg,MN,1,num_6,16,num_6,0.850128247519,,,2017_Apr_20_1637,59.9966709068,MAFE4ImagesEEG,001,100199,
AFNE01.JPG,AFNE01.JPG,AFNE01.JPG,AFNE01.JPG,AFNE01.JPG,AFNE01.JPG,,,,,,,,,,,,,,,,,0,1,1,6,,,,,,,AMNE07.jpg,AMSA01.jpg,AMNE11.jpg,AMSA04.jpg,AMNE11.jpg,MN,1,num_2,16,num_2,0.800271601824,,,2017_Apr_20_1637,59.9966709068,MAFE4ImagesEEG,001,100199,
AFNE01.JPG,AFNE01.JPG,AFNE01.JPG,AFNE01.JPG,AFNE01.JPG,AFNE01.JPG,,,,,,,,,,,,,,,,,0,2,2,8,,,,,,,AMNE12.jpg,AMNE17.jpg,AMSA03.jpg,AMSA18.jpg,AMSA03.jpg,MS,2,num_2,32,num_4,0.416814874858,,,2017_Apr_20_1637,59.9966709068,MAFE4ImagesEEG,001,100199,
AFNE01.JPG,AFNE01.JPG,AFNE01.JPG,AFNE01.JPG,AFNE01.JPG,AFNE01.JPG,,,,,,,,,,,,,,,,,0,3,3,7,,,,,,,AMNE15.jpg,AMSA05.jpg,AMSA16.jpg,AMNE19.jpg,AMSA05.jpg,MS,2,num_6,32,num_8,0.750040653686,,,2017_Apr_20_1637,59.9966709068,MAFE4ImagesEEG,001,100199,
AFNE01.JPG,AFNE01.JPG,AFNE01.JPG,AFNE01.JPG,AFNE01.JPG,AFNE01.JPG,,,,,,,,,,,,,,,,,0,4,4,0,,,,,,,AMNE12.jpg,AMSA14.jpg,AMNE11.jpg,AMSA17.jpg,AMSA17.jpg,MS,2,num_4,16,num_4,1.16669034795,,,2017_Apr_20_1637,59.9966709068,MAFE4ImagesEEG,001,100199,
AFNE01.JPG,AFNE01.JPG,AFNE01.JPG,AFNE01.JPG,AFNE01.JPG,AFNE01.JPG,,,,,,,,,,,,,,,,,0,5,5,3,,,,,,,AMNE16.jpg,AMSA19.jpg,AMNE19.jpg,AMSA13.jpg,AMNE16.jpg,MN,1,num_8,16,num_8,0.700158348889,,,2017_Apr_20_1637,59.9966709068,MAFE4ImagesEEG,001,100199,
AFNE01.JPG,AFNE01.JPG,AFNE01.JPG,AFNE01.JPG,AFNE01.JPG,AFNE01.JPG,,,,,,,,,,,,,,,,,0,6,6,9,,,,,,,AMSA10.jpg,AMSA13.jpg,AMNE18.jpg,AMNE08.jpg,AMNE18.jpg,MN,1,num_2,32,num_4,0.716805990378,,,2017_Apr_20_1637,59.9966709068,MAFE4ImagesEEG,001,100199,
AFNE01.JPG,AFNE01.JPG,AFNE01.JPG,AFNE01.JPG,AFNE01.JPG,AFNE01.JPG,,,,,,,,,,,,,,,,,0,7,7,2,,,,,,,AMNE10.jpg,AMNE01.jpg,AMSA04.jpg,AMSA19.jpg,AMSA04.jpg,MS,2,num_2,32,num_6,0.650181426085,,,2017_Apr_20_1637,59.9966709068,MAFE4ImagesEEG,001,100199,
AFNE01.JPG,AFNE01.JPG,AFNE01.JPG,AFNE01.JPG,AFNE01.JPG,AFNE01.JPG,,,,,,,,,,,,,,,,,0,8,8,1,,,,,,,AMNE14.jpg,AMSA07.jpg,AMSA19.jpg,AMNE10.jpg,AMNE14.jpg,MN,1,num_8,32,num_4,0.900160337449,,,2017_Apr_20_1637,59.9966709068,MAFE4ImagesEEG,001,100199,
AFNE01.JPG,AFNE01.JPG,AFNE01.JPG,AFNE01.JPG,AFNE01.JPG,AFNE01.JPG,,,,,,,,,,,,,,,,,0,9,9,4,,,,,,,AMSA04.jpg,AMSA11.jpg,AMNE10.jpg,AMNE06.jpg,AMSA11.jpg,MS,2,num_6,32,num_8,0.716772312764,,,2017_Apr_20_1637,59.9966709068,MAFE4ImagesEEG,001,100199,
AFNE01.JPG,AFNE01.JPG,AFNE01.JPG,AFNE01.JPG,AFNE01.JPG,AFNE01.JPG,,,,,,,,,,,,,,,,,1,0,10,0,,,,,,,AMSA20.jpg,AMSA05.jpg,AMNE07.jpg,AMNE02.jpg,AMNE02.jpg,MN,1,num_4,32,num_6,0.500126852305,,,2017_Apr_20_1637,59.9966709068,MAFE4ImagesEEG,001,100199,
AFNE01.JPG,AFNE01.JPG,AFNE01.JPG,AFNE01.JPG,AFNE01.JPG,AFNE01.JPG,,,,,,,,,,,,,,,,,1,1,11,3,,,,,,,AMSA16.jpg,AMSA13.jpg,AMNE08.jpg,AMNE12.jpg,AMSA13.jpg,MS,2,num_6,32,num_4,0.683424107847,,,2017_Apr_20_1637,59.9966709068,MAFE4ImagesEEG,001,100199,
AFNE01.JPG,AFNE01.JPG,AFNE01.JPG,AFNE01.JPG,AFNE01.JPG,AFNE01.JPG,,,,,,,,,,,,,,,,,1,2,12,1,,,,,,,AMNE15.jpg,AMSA11.jpg,AMNE02.jpg,AMSA17.jpg,AMSA11.jpg,MS,2,num_6,32,num_8,0.750134950969,,,2017_Apr_20_1637,59.9966709068,MAFE4ImagesEEG,001,100199,
AFNE01.JPG,AFNE01.JPG,AFNE01.JPG,AFNE01.JPG,AFNE01.JPG,AFNE01.JPG,,,,,,,,,,,,,,,,,1,3,13,7,,,,,,,AMSA07.jpg,AMNE11.jpg,AMNE10.jpg,AMSA10.jpg,AMSA07.jpg,MS,2,num_8,32,num_6,0.416860099067,,,2017_Apr_20_1637,59.9966709068,MAFE4ImagesEEG,001,100199,
AFNE01.JPG,AFNE01.JPG,AFNE01.JPG,AFNE01.JPG,AFNE01.JPG,AFNE01.JPG,,,,,,,,,,,,,,,,,1,4,14,6,,,,,,,AMSA19.jpg,AMNE04.jpg,AMSA01.jpg,AMNE16.jpg,AMNE16.jpg,MN,1,num_4,16,num_4,0.650117598998,,,2017_Apr_20_1637,59.9966709068,MAFE4ImagesEEG,001,100199,
AFNE01.JPG,AFNE01.JPG,AFNE01.JPG,AFNE01.JPG,AFNE01.JPG,AFNE01.JPG,,,,,,,,,,,,,,,,,1,5,15,9,,,,,,,AMNE17.jpg,AMSA17.jpg,AMSA11.jpg,AMNE01.jpg,AMSA17.jpg,MS,2,num_6,32,num_8,0.616755281575,,,2017_Apr_20_1637,59.9966709068,MAFE4ImagesEEG,001,100199,
AFNE01.JPG,AFNE01.JPG,AFNE01.JPG,AFNE01.JPG,AFNE01.JPG,AFNE01.JPG,,,,,,,,,,,,,,,,,1,6,16,8,,,,,,,AMNE16.jpg,AMNE06.jpg,AMSA11.jpg,AMSA12.jpg,AMNE16.jpg,MN,1,num_8,32,num_4,0.683477992017,,,2017_Apr_20_1637,59.9966709068,MAFE4ImagesEEG,001,100199,
AFNE01.JPG,AFNE01.JPG,AFNE01.JPG,AFNE01.JPG,AFNE01.JPG,AFNE01.JPG,,,,,,,,,,,,,,,,,1,7,17,5,,,,,,,AMNE10.jpg,AMSA07.jpg,AMNE19.jpg,AMSA01.jpg,AMNE10.jpg,MN,1,num_8,16,num_8,0.616811090091,,,2017_Apr_20_1637,59.9966709068,MAFE4ImagesEEG,001,100199,
AFNE01.JPG,AFNE01.JPG,AFNE01.JPG,AFNE01.JPG,AFNE01.JPG,AFNE01.JPG,,,,,,,,,,,,,,,,,1,8,18,2,,,,,,,AMNE03.jpg,AMSA10.jpg,AMSA06.jpg,AMNE07.jpg,AMNE03.jpg,MN,1,num_8,16,num_8,0.850117021648,,,2017_Apr_20_1637,59.9966709068,MAFE4ImagesEEG,001,100199,
AFNE01.JPG,AFNE01.JPG,AFNE01.JPG,AFNE01.JPG,AFNE01.JPG,AFNE01.JPG,,,,,,,,,,,,,,,,,1,9,19,4,,,,,,,AMNE13.jpg,AMSA02.jpg,AMSA04.jpg,AMNE20.jpg,AMNE13.jpg,MN,1,num_8,32,num_4,0.56671228644,,,2017_Apr_20_1637,59.9966709068,MAFE4ImagesEEG,001,100199,
AFNE01.JPG,AFNE01.JPG,AFNE01.JPG,AFNE01.JPG,AFNE01.JPG,AFNE01.JPG,,,,,,,,,,,,,,,,,2,0,20,6,,,,,,,AMNE15.jpg,AMSA05.jpg,AMNE20.jpg,AMSA16.jpg,AMNE15.jpg,MN,1,num_8,16,num_8,0.800114439684,,,2017_Apr_20_1637,59.9966709068,MAFE4ImagesEEG,001,100199,
AFNE01.JPG,AFNE01.JPG,AFNE01.JPG,AFNE01.JPG,AFNE01.JPG,AFNE01.JPG,,,,,,,,,,,,,,,,,2,1,21,2,,,,,,,AMNE17.jpg,AMNE20.jpg,AMSA11.jpg,AMSA06.jpg,AMSA06.jpg,MS,2,num_4,16,num_4,0.783454289427,,,2017_Apr_20_1637,59.9966709068,MAFE4ImagesEEG,001,100199,
AFNE01.JPG,AFNE01.JPG,AFNE01.JPG,AFNE01.JPG,AFNE01.JPG,AFNE01.JPG,,,,,,,,,,,,,,,,,2,2,22,4,,,,,,,AMNE08.jpg,AMSA19.jpg,AMSA15.jpg,AMNE17.jpg,AMNE08.jpg,MN,1,num_8,16,num_8,1.31671990402,,,2017_Apr_20_1637,59.9966709068,MAFE4ImagesEEG,001,100199,
AFNE01.JPG,AFNE01.JPG,AFNE01.JPG,AFNE01.JPG,AFNE01.JPG,AFNE01.JPG,,,,,,,,,,,,,,,,,2,3,23,9,,,,,,,AMSA06.jpg,AMNE20.jpg,AMSA18.jpg,AMNE07.jpg,AMNE20.jpg,MN,1,num_6,32,num_8,0.650143899606,,,2017_Apr_20_1637,59.9966709068,MAFE4ImagesEEG,001,100199,
AFNE01.JPG,AFNE01.JPG,AFNE01.JPG,AFNE01.JPG,AFNE01.JPG,AFNE01.JPG,,,,,,,,,,,,,,,,,2,4,24,3,,,,,,,AMSA20.jpg,AMNE15.jpg,AMSA07.jpg,AMNE18.jpg,AMNE18.jpg,MN,1,num_4,16,num_4,0.766824930033,,,2017_Apr_20_1637,59.9966709068,MAFE4ImagesEEG,001,100199,
AFNE01.JPG,AFNE01.JPG,AFNE01.JPG,AFNE01.JPG,AFNE01.JPG,AFNE01.JPG,,,,,,,,,,,,,,,,,2,5,25,0,,,,,,,AMSA18.jpg,AMSA11.jpg,AMNE14.jpg,AMNE15.jpg,AMNE15.jpg,MN,1,num_4,32,num_8,0.783751935232,,,2017_Apr_20_1637,59.9966709068,MAFE4ImagesEEG,001,100199,
AFNE01.JPG,AFNE01.JPG,AFNE01.JPG,AFNE01.JPG,AFNE01.JPG,AFNE01.JPG,,,,,,,,,,,,,,,,,2,6,26,1,,,,,,,AMNE04.jpg,AMNE03.jpg,AMSA01.jpg,AMSA06.jpg,AMNE03.jpg,MN,1,num_6,16,num_6,0.783408744435,,,2017_Apr_20_1637,59.9966709068,MAFE4ImagesEEG,001,100199,
AFNE01.JPG,AFNE01.JPG,AFNE01.JPG,AFNE01.JPG,AFNE01.JPG,AFNE01.JPG,,,,,,,,,,,,,,,,,2,7,27,7,,,,,,,AMNE03.jpg,AMSA13.jpg,AMSA02.jpg,AMNE12.jpg,AMNE03.jpg,MN,1,num_8,32,num_4,0.533702782006,,,2017_Apr_20_1637,59.9966709068,MAFE4ImagesEEG,001,100199,
AFNE01.JPG,AFNE01.JPG,AFNE01.JPG,AFNE01.JPG,AFNE01.JPG,AFNE01.JPG,,,,,,,,,,,,,,,,,2,8,28,5,,,,,,,AMSA15.jpg,AMNE02.jpg,AMSA14.jpg,AMNE12.jpg,AMNE12.jpg,MN,1,num_4,32,num_8,0.366810047708,,,2017_Apr_20_1637,59.9966709068,MAFE4ImagesEEG,001,100199,
AFNE01.JPG,AFNE01.JPG,AFNE01.JPG,AFNE01.JPG,AFNE01.JPG,AFNE01.JPG,,,,,,,,,,,,,,,,,2,9,29,8,,,,,,,AMNE04.jpg,AMSA16.jpg,AMSA10.jpg,AMNE08.jpg,AMNE04.jpg,MN,1,num_8,16,num_8,0.550167602196,,,2017_Apr_20_1637,59.9966709068,MAFE4ImagesEEG,001,100199,
AFNE01.JPG,AFNE01.JPG,AFNE01.JPG,AFNE01.JPG,AFNE01.JPG,AFNE01.JPG,,,,,,,,,,,,,,,,,3,0,30,4,,,,,,,AMNE08.jpg,AMSA15.jpg,AMNE17.jpg,AMSA19.jpg,AMNE08.jpg,MN,1,num_8,32,num_4,0.783463270054,,,2017_Apr_20_1637,59.9966709068,MAFE4ImagesEEG,001,100199,
AFNE01.JPG,AFNE01.JPG,AFNE01.JPG,AFNE01.JPG,AFNE01.JPG,AFNE01.JPG,,,,,,,,,,,,,,,,,3,1,31,8,,,,,,,AMSA18.jpg,AMSA11.jpg,AMNE04.jpg,AMNE02.jpg,AMNE04.jpg,MN,1,num_2,32,num_4,1.68338305329,,,2017_Apr_20_1637,59.9966709068,MAFE4ImagesEEG,001,100199,
AFNE01.JPG,AFNE01.JPG,AFNE01.JPG,AFNE01.JPG,AFNE01.JPG,AFNE01.JPG,,,,,,,,,,,,,,,,,3,2,32,5,,,,,,,AMNE15.jpg,AMSA20.jpg,AMSA04.jpg,AMNE14.jpg,AMSA04.jpg,MS,2,num_2,16,num_2,0.68344752182,,,2017_Apr_20_1637,59.9966709068,MAFE4ImagesEEG,001,100199,
AFNE01.JPG,AFNE01.JPG,AFNE01.JPG,AFNE01.JPG,AFNE01.JPG,AFNE01.JPG,,,,,,,,,,,,,,,,,3,3,33,1,,,,,,,AMSA12.jpg,AMNE08.jpg,AMSA08.jpg,AMNE15.jpg,AMSA08.jpg,MS,2,num_2,32,num_8,0.916770131735,,,2017_Apr_20_1637,59.9966709068,MAFE4ImagesEEG,001,100199,
AFNE01.JPG,AFNE01.JPG,AFNE01.JPG,AFNE01.JPG,AFNE01.JPG,AFNE01.JPG,,,,,,,,,,,,,,,,,3,4,34,0,,,,,,,AMNE20.jpg,AMSA09.jpg,AMNE06.jpg,AMSA16.jpg,AMSA09.jpg,MS,2,num_6,32,num_4,0.716773595719,,,2017_Apr_20_1637,59.9966709068,MAFE4ImagesEEG,001,100199,
AFNE01.JPG,AFNE01.JPG,AFNE01.JPG,AFNE01.JPG,AFNE01.JPG,AFNE01.JPG,,,,,,,,,,,,,,,,,3,5,35,3,,,,,,,AMNE10.jpg,AMSA04.jpg,AMNE05.jpg,AMSA16.jpg,AMNE10.jpg,MN,1,num_8,32,num_6,0.98342324188,,,2017_Apr_20_1637,59.9966709068,MAFE4ImagesEEG,001,100199,
AFNE01.JPG,AFNE01.JPG,AFNE01.JPG,AFNE01.JPG,AFNE01.JPG,AFNE01.JPG,,,,,,,,,,,,,,,,,3,6,36,6,,,,,,,AMNE15.jpg,AMNE04.jpg,AMSA09.jpg,AMSA17.jpg,AMSA17.jpg,MS,2,num_4,32,num_8,0.716784500866,,,2017_Apr_20_1637,59.9966709068,MAFE4ImagesEEG,001,100199,
AFNE01.JPG,AFNE01.JPG,AFNE01.JPG,AFNE01.JPG,AFNE01.JPG,AFNE01.JPG,,,,,,,,,,,,,,,,,3,7,37,9,,,,,,,AMNE03.jpg,AMSA10.jpg,AMSA19.jpg,AMNE13.jpg,AMSA10.jpg,MS,2,num_6,32,num_4,1.06678044354,,,2017_Apr_20_1637,59.9966709068,MAFE4ImagesEEG,001,100199,
AFNE01.JPG,AFNE01.JPG,AFNE01.JPG,AFNE01.JPG,AFNE01.JPG,AFNE01.JPG,,,,,,,,,,,,,,,,,3,8,38,2,,,,,,,AMSA10.jpg,AMNE04.jpg,AMSA03.jpg,AMNE07.jpg,AMSA10.jpg,MS,2,num_8,16,num_8,0.866834584274,,,2017_Apr_20_1637,59.9966709068,MAFE4ImagesEEG,001,100199,
AFNE01.JPG,AFNE01.JPG,AFNE01.JPG,AFNE01.JPG,AFNE01.JPG,AFNE01.JPG,,,,,,,,,,,,,,,,,3,9,39,7,,,,,,,AMNE11.jpg,AMSA19.jpg,AMNE01.jpg,AMSA11.jpg,AMNE01.jpg,MN,1,num_2,32,num_4,1.000087241,,,2017_Apr_20_1637,59.9966709068,MAFE4ImagesEEG,001,100199,
AFNE01.JPG,AFNE01.JPG,AFNE01.JPG,AFNE01.JPG,AFNE01.JPG,AFNE01.JPG,,,,,,,,,,,,,,,,,4,0,40,5,,,,,,,AMSA02.jpg,AMNE03.jpg,AMNE13.jpg,AMSA12.jpg,AMSA12.jpg,MS,2,num_4,32,num_6,0.583569370559,,,2017_Apr_20_1637,59.9966709068,MAFE4ImagesEEG,001,100199,
AFNE01.JPG,AFNE01.JPG,AFNE01.JPG,AFNE01.JPG,AFNE01.JPG,AFNE01.JPG,,,,,,,,,,,,,,,,,4,1,41,9,,,,,,,AMSA04.jpg,AMNE05.jpg,AMNE02.jpg,AMSA10.jpg,AMSA04.jpg,MS,2,num_8,16,num_8,0.400136442389,,,2017_Apr_20_1637,59.9966709068,MAFE4ImagesEEG,001,100199,
AFNE01.JPG,AFNE01.JPG,AFNE01.JPG,AFNE01.JPG,AFNE01.JPG,AFNE01.JPG,,,,,,,,,,,,,,,,,4,2,42,0,,,,,,,AMSA16.jpg,AMSA19.jpg,AMNE19.jpg,AMNE13.jpg,AMNE19.jpg,MN,1,num_2,16,num_2,1.01676535275,,,2017_Apr_20_1637,59.9966709068,MAFE4ImagesEEG,001,100199,
AFNE01.JPG,AFNE01.JPG,AFNE01.JPG,AFNE01.JPG,AFNE01.JPG,AFNE01.JPG,,,,,,,,,,,,,,,,,4,3,43,3,,,,,,,AMNE11.jpg,AMSA14.jpg,AMNE20.jpg,AMSA11.jpg,AMSA11.jpg,MS,2,num_4,16,num_4,0.633541802992,,,2017_Apr_20_1637,59.9966709068,MAFE4ImagesEEG,001,100199,
AFNE01.JPG,AFNE01.JPG,AFNE01.JPG,AFNE01.JPG,AFNE01.JPG,AFNE01.JPG,,,,,,,,,,,,,,,,,4,4,44,7,,,,,,,AMNE12.jpg,AMSA20.jpg,AMSA17.jpg,AMNE18.jpg,AMSA17.jpg,MS,2,num_2,16,num_2,0.916756660736,,,2017_Apr_20_1637,59.9966709068,MAFE4ImagesEEG,001,100199,
AFNE01.JPG,AFNE01.JPG,AFNE01.JPG,AFNE01.JPG,AFNE01.JPG,AFNE01.JPG,,,,,,,,,,,,,,,,,4,5,45,8,,,,,,,AMSA02.jpg,AMNE11.jpg,AMSA11.jpg,AMNE06.jpg,AMNE11.jpg,MN,1,num_6,32,num_8,0.36678887892,,,2017_Apr_20_1637,59.9966709068,MAFE4ImagesEEG,001,100199,
AFNE01.JPG,AFNE01.JPG,AFNE01.JPG,AFNE01.JPG,AFNE01.JPG,AFNE01.JPG,,,,,,,,,,,,,,,,,4,6,46,1,,,,,,,AMNE18.jpg,AMSA05.jpg,AMNE13.jpg,AMSA02.jpg,AMSA02.jpg,MS,2,num_4,32,num_6,0.38354172284,,,2017_Apr_20_1637,59.9966709068,MAFE4ImagesEEG,001,100199,
AFNE01.JPG,AFNE01.JPG,AFNE01.JPG,AFNE01.JPG,AFNE01.JPG,AFNE01.JPG,,,,,,,,,,,,,,,,,4,7,47,6,,,,,,,AMNE02.jpg,AMSA17.jpg,AMSA20.jpg,AMNE16.jpg,AMNE16.jpg,MN,1,num_4,32,num_8,0.533472812036,,,2017_Apr_20_1637,59.9966709068,MAFE4ImagesEEG,001,100199,
AFNE01.JPG,AFNE01.JPG,AFNE01.JPG,AFNE01.JPG,AFNE01.JPG,AFNE01.JPG,,,,,,,,,,,,,,,,,4,8,48,4,,,,,,,AMSA10.jpg,AMNE04.jpg,AMSA16.jpg,AMNE13.jpg,AMSA10.jpg,MS,2,num_8,32,num_4,0.600141317642,,,2017_Apr_20_1637,59.9966709068,MAFE4ImagesEEG,001,100199,
AFNE01.JPG,AFNE01.JPG,AFNE01.JPG,AFNE01.JPG,AFNE01.JPG,AFNE01.JPG,,,,,,,,,,,,,,,,,4,9,49,2,,,,,,,AMSA18.jpg,AMNE10.jpg,AMSA19.jpg,AMNE13.jpg,AMNE13.jpg,MN,1,num_4,32,num_8,0.450291375397,,,2017_Apr_20_1637,59.9966709068,MAFE4ImagesEEG,001,100199,
AFNE01.JPG,AFNE01.JPG,AFNE01.JPG,AFNE01.JPG,AFNE01.JPG,AFNE01.JPG,,,,,,,,,,,,,,,,,5,0,50,1,,,,,,,AMSA12.jpg,AMSA13.jpg,AMNE14.jpg,AMNE12.jpg,AMSA13.jpg,MS,2,num_6,32,num_4,0.450170136057,,,2017_Apr_20_1637,59.9966709068,MAFE4ImagesEEG,001,100199,
AFNE01.JPG,AFNE01.JPG,AFNE01.JPG,AFNE01.JPG,AFNE01.JPG,AFNE01.JPG,,,,,,,,,,,,,,,,,5,1,51,0,,,,,,,AMSA10.jpg,AMNE18.jpg,AMSA14.jpg,AMNE06.jpg,AMNE06.jpg,MN,1,num_4,32,num_8,0.483584733971,,,2017_Apr_20_1637,59.9966709068,MAFE4ImagesEEG,001,100199,
AFNE01.JPG,AFNE01.JPG,AFNE01.JPG,AFNE01.JPG,AFNE01.JPG,AFNE01.JPG,,,,,,,,,,,,,,,,,5,2,52,4,,,,,,,AMSA13.jpg,AMNE02.jpg,AMNE12.jpg,AMSA17.jpg,AMSA13.jpg,MS,2,num_8,32,num_4,0.666774541896,,,2017_Apr_20_1637,59.9966709068,MAFE4ImagesEEG,001,100199,
AFNE01.JPG,AFNE01.JPG,AFNE01.JPG,AFNE01.JPG,AFNE01.JPG,AFNE01.JPG,,,,,,,,,,,,,,,,,5,3,53,2,,,,,,,AMNE14.jpg,AMSA06.jpg,AMSA01.jpg,AMNE05.jpg,AMNE05.jpg,MN,1,num_4,32,num_6,0.533509376284,,,2017_Apr_20_1637,59.9966709068,MAFE4ImagesEEG,001,100199,
AFNE01.JPG,AFNE01.JPG,AFNE01.JPG,AFNE01.JPG,AFNE01.JPG,AFNE01.JPG,,,,,,,,,,,,,,,,,5,4,54,5,,,,,,,AMNE13.jpg,AMSA09.jpg,AMSA15.jpg,AMNE14.jpg,AMNE14.jpg,MN,1,num_4,32,num_8,0.416840854741,,,2017_Apr_20_1637,59.9966709068,MAFE4ImagesEEG,001,100199,
AFNE01.JPG,AFNE01.JPG,AFNE01.JPG,AFNE01.JPG,AFNE01.JPG,AFNE01.JPG,,,,,,,,,,,,,,,,,5,5,55,8,,,,,,,AMSA13.jpg,AMNE19.jpg,AMSA14.jpg,AMNE13.jpg,AMNE19.jpg,MN,1,num_6,32,num_4,0.450116251886,,,2017_Apr_20_1637,59.9966709068,MAFE4ImagesEEG,001,100199,
AFNE01.JPG,AFNE01.JPG,AFNE01.JPG,AFNE01.JPG,AFNE01.JPG,AFNE01.JPG,,,,,,,,,,,,,,,,,5,6,56,7,,,,,,,AMNE08.jpg,AMNE05.jpg,AMSA19.jpg,AMSA08.jpg,AMNE08.jpg,MN,1,num_8,32,num_6,0.666840934951,,,2017_Apr_20_1637,59.9966709068,MAFE4ImagesEEG,001,100199,
AFNE01.JPG,AFNE01.JPG,AFNE01.JPG,AFNE01.JPG,AFNE01.JPG,AFNE01.JPG,,,,,,,,,,,,,,,,,5,7,57,9,,,,,,,AMNE02.jpg,AMNE03.jpg,AMSA05.jpg,AMSA15.jpg,AMNE03.jpg,MN,1,num_6,32,num_8,0.650138447003,,,2017_Apr_20_1637,59.9966709068,MAFE4ImagesEEG,001,100199,
AFNE01.JPG,AFNE01.JPG,AFNE01.JPG,AFNE01.JPG,AFNE01.JPG,AFNE01.JPG,,,,,,,,,,,,,,,,,5,8,58,6,,,,,,,AMSA08.jpg,AMSA07.jpg,AMNE04.jpg,AMNE10.jpg,AMNE04.jpg,MN,1,num_2,16,num_2,1.01673488255,,,2017_Apr_20_1637,59.9966709068,MAFE4ImagesEEG,001,100199,
AFNE01.JPG,AFNE01.JPG,AFNE01.JPG,AFNE01.JPG,AFNE01.JPG,AFNE01.JPG,,,,,,,,,,,,,,,,,5,9,59,3,,,,,,,AMNE19.jpg,AMNE11.jpg,AMSA18.jpg,AMSA19.jpg,AMNE19.jpg,MN,1,num_8,32,num_6,0.733463254059,,,2017_Apr_20_1637,59.9966709068,MAFE4ImagesEEG,001,100199,
,,,,,,,,,,,,,,,,,,,,,,,,,,,,,,,,,,,,,,,,,,,space,46.1798627814,2017_Apr_20_1637,59.9966709068,MAFE4ImagesEEG,001,100199,
AFNE01.JPG,AFNE01.JPG,AFNE01.JPG,AFNE01.JPG,AFNE01.JPG,AFNE01.JPG,,,,,,,,,,,,,,,,,,,,,0,0,0,9,,,AFSA05.jpg,AFNE02.jpg,AFNE19.jpg,AFSA01.jpg,AFSA05.jpg,FS,4,num_8,16,num_8,0.51683832088,,,2017_Apr_20_1637,59.9966709068,MAFE4ImagesEEG,001,100199,
AFNE01.JPG,AFNE01.JPG,AFNE01.JPG,AFNE01.JPG,AFNE01.JPG,AFNE01.JPG,,,,,,,,,,,,,,,,,,,,,0,1,1,5,,,AFNE08.jpg,AFNE06.jpg,AFSA18.jpg,AFSA12.jpg,AFNE06.jpg,FN,3,num_6,16,num_6,0.800265828555,,,2017_Apr_20_1637,59.9966709068,MAFE4ImagesEEG,001,100199,
AFNE01.JPG,AFNE01.JPG,AFNE01.JPG,AFNE01.JPG,AFNE01.JPG,AFNE01.JPG,,,,,,,,,,,,,,,,,,,,,0,2,2,6,,,AFNE16.jpg,AFSA02.jpg,AFSA03.jpg,AFNE12.jpg,AFNE12.jpg,FN,3,num_4,16,num_4,0.766810496803,,,2017_Apr_20_1637,59.9966709068,MAFE4ImagesEEG,001,100199,
AFNE01.JPG,AFNE01.JPG,AFNE01.JPG,AFNE01.JPG,AFNE01.JPG,AFNE01.JPG,,,,,,,,,,,,,,,,,,,,,0,3,3,3,,,AFSA14.jpg,AFNE19.jpg,AFSA18.jpg,AFNE15.jpg,AFNE15.jpg,FN,3,num_4,32,num_8,0.633468033047,,,2017_Apr_20_1637,59.9966709068,MAFE4ImagesEEG,001,100199,
AFNE01.JPG,AFNE01.JPG,AFNE01.JPG,AFNE01.JPG,AFNE01.JPG,AFNE01.JPG,,,,,,,,,,,,,,,,,,,,,0,4,4,8,,,AFSA05.jpg,AFNE13.jpg,AFSA16.jpg,AFNE01.jpg,AFNE01.jpg,FN,3,num_4,32,num_6,0.800109628588,,,2017_Apr_20_1637,59.9966709068,MAFE4ImagesEEG,001,100199,
AFNE01.JPG,AFNE01.JPG,AFNE01.JPG,AFNE01.JPG,AFNE01.JPG,AFNE01.JPG,,,,,,,,,,,,,,,,,,,,,0,5,5,1,,,AFSA10.jpg,AFNE03.jpg,AFSA12.jpg,AFNE14.jpg,AFNE03.jpg,FN,3,num_6,32,num_4,0.650141975144,,,2017_Apr_20_1637,59.9966709068,MAFE4ImagesEEG,001,100199,
AFNE01.JPG,AFNE01.JPG,AFNE01.JPG,AFNE01.JPG,AFNE01.JPG,AFNE01.JPG,,,,,,,,,,,,,,,,,,,,,0,6,6,0,,,AFNE11.jpg,AFSA18.jpg,AFSA11.jpg,AFNE20.jpg,AFSA18.jpg,FS,4,num_6,16,num_6,1.03341203206,,,2017_Apr_20_1637,59.9966709068,MAFE4ImagesEEG,001,100199,
AFNE01.JPG,AFNE01.JPG,AFNE01.JPG,AFNE01.JPG,AFNE01.JPG,AFNE01.JPG,,,,,,,,,,,,,,,,,,,,,0,7,7,2,,,AFSA02.jpg,AFNE15.jpg,AFSA05.jpg,AFNE17.jpg,AFSA02.jpg,FS,4,num_8,16,num_8,0.700176951766,,,2017_Apr_20_1637,59.9966709068,MAFE4ImagesEEG,001,100199,
AFNE01.JPG,AFNE01.JPG,AFNE01.JPG,AFNE01.JPG,AFNE01.JPG,AFNE01.JPG,,,,,,,,,,,,,,,,,,,,,0,8,8,7,,,AFSA09.jpg,AFNE02.jpg,AFSA02.jpg,AFNE04.jpg,AFNE04.jpg,FN,3,num_4,32,num_8,0.916784885747,,,2017_Apr_20_1637,59.9966709068,MAFE4ImagesEEG,001,100199,
AFNE01.JPG,AFNE01.JPG,AFNE01.JPG,AFNE01.JPG,AFNE01.JPG,AFNE01.JPG,,,,,,,,,,,,,,,,,,,,,0,9,9,4,,,AFNE19.jpg,AFSA04.jpg,AFNE04.jpg,AFSA03.jpg,AFSA03.jpg,FS,4,num_4,32,num_8,0.80021579325,,,2017_Apr_20_1637,59.9966709068,MAFE4ImagesEEG,001,100199,
AFNE01.JPG,AFNE01.JPG,AFNE01.JPG,AFNE01.JPG,AFNE01.JPG,AFNE01.JPG,,,,,,,,,,,,,,,,,,,,,1,0,10,3,,,AFNE10.jpg,AFSA15.jpg,AFSA12.jpg,AFNE18.jpg,AFSA15.jpg,FS,4,num_6,16,num_6,0.783537360781,,,2017_Apr_20_1637,59.9966709068,MAFE4ImagesEEG,001,100199,
AFNE01.JPG,AFNE01.JPG,AFNE01.JPG,AFNE01.JPG,AFNE01.JPG,AFNE01.JPG,,,,,,,,,,,,,,,,,,,,,1,1,11,1,,,AFSA13.jpg,AFSA06.jpg,AFNE19.jpg,AFNE06.jpg,AFSA13.jpg,FS,4,num_8,16,num_8,0.933762888482,,,2017_Apr_20_1637,59.9966709068,MAFE4ImagesEEG,001,100199,
AFNE01.JPG,AFNE01.JPG,AFNE01.JPG,AFNE01.JPG,AFNE01.JPG,AFNE01.JPG,,,,,,,,,,,,,,,,,,,,,1,2,12,7,,,AFSA18.jpg,AFNE07.jpg,AFSA17.jpg,AFNE04.jpg,AFNE04.jpg,FN,3,num_4,16,num_4,0.63347861747,,,2017_Apr_20_1637,59.9966709068,MAFE4ImagesEEG,001,100199,
AFNE01.JPG,AFNE01.JPG,AFNE01.JPG,AFNE01.JPG,AFNE01.JPG,AFNE01.JPG,,,,,,,,,,,,,,,,,,,,,1,3,13,4,,,AFSA05.jpg,AFSA13.jpg,AFNE04.jpg,AFNE03.jpg,AFNE04.jpg,FN,3,num_2,32,num_4,0.916760509601,,,2017_Apr_20_1637,59.9966709068,MAFE4ImagesEEG,001,100199,
AFNE01.JPG,AFNE01.JPG,AFNE01.JPG,AFNE01.JPG,AFNE01.JPG,AFNE01.JPG,,,,,,,,,,,,,,,,,,,,,1,4,14,6,,,AFSA08.jpg,AFNE01.jpg,AFNE20.jpg,AFSA07.jpg,AFNE01.jpg,FN,3,num_6,32,num_8,0.716794443782,,,2017_Apr_20_1637,59.9966709068,MAFE4ImagesEEG,001,100199,
AFNE01.JPG,AFNE01.JPG,AFNE01.JPG,AFNE01.JPG,AFNE01.JPG,AFNE01.JPG,,,,,,,,,,,,,,,,,,,,,1,5,15,9,,,AFNE19.jpg,AFSA14.jpg,AFNE18.jpg,AFSA20.jpg,AFNE18.jpg,FN,3,num_2,32,num_6,0.566688231076,,,2017_Apr_20_1637,59.9966709068,MAFE4ImagesEEG,001,100199,
AFNE01.JPG,AFNE01.JPG,AFNE01.JPG,AFNE01.JPG,AFNE01.JPG,AFNE01.JPG,,,,,,,,,,,,,,,,,,,,,1,6,16,8,,,AFNE14.jpg,AFSA19.jpg,AFNE07.jpg,AFSA14.jpg,AFNE14.jpg,FN,3,num_8,32,num_2,1.28359974455,,,2017_Apr_20_1637,59.9966709068,MAFE4ImagesEEG,001,100199,
AFNE01.JPG,AFNE01.JPG,AFNE01.JPG,AFNE01.JPG,AFNE01.JPG,AFNE01.JPG,,,,,,,,,,,,,,,,,,,,,1,7,17,5,,,AFSA15.jpg,AFNE20.jpg,AFNE03.jpg,AFSA07.jpg,AFNE03.jpg,FN,3,num_2,32,num_8,0.666753052385,,,2017_Apr_20_1637,59.9966709068,MAFE4ImagesEEG,001,100199,
AFNE01.JPG,AFNE01.JPG,AFNE01.JPG,AFNE01.JPG,AFNE01.JPG,AFNE01.JPG,,,,,,,,,,,,,,,,,,,,,1,8,18,2,,,AFSA12.jpg,AFNE19.jpg,AFSA16.jpg,AFNE17.jpg,AFSA16.jpg,FS,4,num_2,32,num_4,0.450156985724,,,2017_Apr_20_1637,59.9966709068,MAFE4ImagesEEG,001,100199,
AFNE01.JPG,AFNE01.JPG,AFNE01.JPG,AFNE01.JPG,AFNE01.JPG,AFNE01.JPG,,,,,,,,,,,,,,,,,,,,,1,9,19,0,,,AFSA13.jpg,AFNE13.jpg,AFNE03.jpg,AFSA10.jpg,AFSA13.jpg,FS,4,num_8,32,num_6,0.700191705779,,,2017_Apr_20_1637,59.9966709068,MAFE4ImagesEEG,001,100199,
AFNE01.JPG,AFNE01.JPG,AFNE01.JPG,AFNE01.JPG,AFNE01.JPG,AFNE01.JPG,,,,,,,,,,,,,,,,,,,,,2,0,20,2,,,AFSA13.jpg,AFNE17.jpg,AFNE07.jpg,AFSA17.jpg,AFSA13.jpg,FS,4,num_8,16,num_8,0.783427988819,,,2017_Apr_20_1637,59.9966709068,MAFE4ImagesEEG,001,100199,
AFNE01.JPG,AFNE01.JPG,AFNE01.JPG,AFNE01.JPG,AFNE01.JPG,AFNE01.JPG,,,,,,,,,,,,,,,,,,,,,2,1,21,1,,,AFNE05.jpg,AFNE08.jpg,AFSA14.jpg,AFSA11.jpg,AFNE08.jpg,FN,3,num_6,32,num_4,0.666933949222,,,2017_Apr_20_1637,59.9966709068,MAFE4ImagesEEG,001,100199,
AFNE01.JPG,AFNE01.JPG,AFNE01.JPG,AFNE01.JPG,AFNE01.JPG,AFNE01.JPG,,,,,,,,,,,,,,,,,,,,,2,2,22,8,,,AFNE13.jpg,AFNE20.jpg,AFSA06.jpg,AFSA19.jpg,AFSA19.jpg,FS,4,num_4,16,num_4,0.716789311962,,,2017_Apr_20_1637,59.9966709068,MAFE4ImagesEEG,001,100199,
AFNE01.JPG,AFNE01.JPG,AFNE01.JPG,AFNE01.JPG,AFNE01.JPG,AFNE01.JPG,,,,,,,,,,,,,,,,,,,,,2,3,23,6,,,AFNE17.jpg,AFSA14.jpg,AFNE13.jpg,AFSA07.jpg,AFSA07.jpg,FS,4,num_4,32,num_8,0.816883641295,,,2017_Apr_20_1637,59.9966709068,MAFE4ImagesEEG,001,100199,
AFNE01.JPG,AFNE01.JPG,AFNE01.JPG,AFNE01.JPG,AFNE01.JPG,AFNE01.JPG,,,,,,,,,,,,,,,,,,,,,2,4,24,9,,,AFNE16.jpg,AFSA03.jpg,AFNE17.jpg,AFSA20.jpg,AFNE16.jpg,FN,3,num_8,32,num_4,0.683461313602,,,2017_Apr_20_1637,59.9966709068,MAFE4ImagesEEG,001,100199,
AFNE01.JPG,AFNE01.JPG,AFNE01.JPG,AFNE01.JPG,AFNE01.JPG,AFNE01.JPG,,,,,,,,,,,,,,,,,,,,,2,5,25,5,,,AFSA18.jpg,AFNE19.jpg,AFNE18.jpg,AFSA09.jpg,AFSA09.jpg,FS,4,num_4,32,num_8,1.29980669054,,,2017_Apr_20_1637,59.9966709068,MAFE4ImagesEEG,001,100199,
AFNE01.JPG,AFNE01.JPG,AFNE01.JPG,AFNE01.JPG,AFNE01.JPG,AFNE01.JPG,,,,,,,,,,,,,,,,,,,,,2,6,26,3,,,AFNE19.jpg,AFSA01.jpg,AFSA02.jpg,AFNE12.jpg,AFSA02.jpg,FS,4,num_2,32,num_8,0.700100615853,,,2017_Apr_20_1637,59.9966709068,MAFE4ImagesEEG,001,100199,
AFNE01.JPG,AFNE01.JPG,AFNE01.JPG,AFNE01.JPG,AFNE01.JPG,AFNE01.JPG,,,,,,,,,,,,,,,,,,,,,2,7,27,0,,,AFNE11.jpg,AFNE15.jpg,AFSA02.jpg,AFSA11.jpg,AFSA11.jpg,FS,4,num_4,32,num_2,1.33340860007,,,2017_Apr_20_1637,59.9966709068,MAFE4ImagesEEG,001,100199,
AFNE01.JPG,AFNE01.JPG,AFNE01.JPG,AFNE01.JPG,AFNE01.JPG,AFNE01.JPG,,,,,,,,,,,,,,,,,,,,,2,8,28,7,,,AFNE15.jpg,AFSA11.jpg,AFNE20.jpg,AFSA12.jpg,AFSA11.jpg,FS,4,num_6,16,num_6,0.800370068755,,,2017_Apr_20_1637,59.9966709068,MAFE4ImagesEEG,001,100199,
AFNE01.JPG,AFNE01.JPG,AFNE01.JPG,AFNE01.JPG,AFNE01.JPG,AFNE01.JPG,,,,,,,,,,,,,,,,,,,,,2,9,29,4,,,AFNE13.jpg,AFSA19.jpg,AFSA06.jpg,AFNE12.jpg,AFSA06.jpg,FS,4,num_2,32,num_8,0.749973298458,,,2017_Apr_20_1637,59.9966709068,MAFE4ImagesEEG,001,100199,
AFNE01.JPG,AFNE01.JPG,AFNE01.JPG,AFNE01.JPG,AFNE01.JPG,AFNE01.JPG,,,,,,,,,,,,,,,,,,,,,3,0,30,4,,,AFSA03.jpg,AFNE13.jpg,AFSA09.jpg,AFNE14.jpg,AFNE14.jpg,FN,3,num_4,16,num_4,0.600176598935,,,2017_Apr_20_1637,59.9966709068,MAFE4ImagesEEG,001,100199,
AFNE01.JPG,AFNE01.JPG,AFNE01.JPG,AFNE01.JPG,AFNE01.JPG,AFNE01.JPG,,,,,,,,,,,,,,,,,,,,,3,1,31,2,,,AFNE08.jpg,AFNE14.jpg,AFSA12.jpg,AFSA19.jpg,AFSA19.jpg,FS,4,num_4,32,num_8,0.61683674925,,,2017_Apr_20_1637,59.9966709068,MAFE4ImagesEEG,001,100199,
AFNE01.JPG,AFNE01.JPG,AFNE01.JPG,AFNE01.JPG,AFNE01.JPG,AFNE01.JPG,,,,,,,,,,,,,,,,,,,,,3,2,32,8,,,AFSA05.jpg,AFNE19.jpg,AFNE04.jpg,AFSA09.jpg,AFSA05.jpg,FS,4,num_8,32,num_4,0.500102155434,,,2017_Apr_20_1637,59.9966709068,MAFE4ImagesEEG,001,100199,
AFNE01.JPG,AFNE01.JPG,AFNE01.JPG,AFNE01.JPG,AFNE01.JPG,AFNE01.JPG,,,,,,,,,,,,,,,,,,,,,3,3,33,9,,,AFNE08.jpg,AFSA15.jpg,AFSA11.jpg,AFNE20.jpg,AFNE20.jpg,FN,3,num_4,32,num_6,0.583362493897,,,2017_Apr_20_1637,59.9966709068,MAFE4ImagesEEG,001,100199,
AFNE01.JPG,AFNE01.JPG,AFNE01.JPG,AFNE01.JPG,AFNE01.JPG,AFNE01.JPG,,,,,,,,,,,,,,,,,,,,,3,4,34,1,,,AFNE20.jpg,AFNE08.jpg,AFSA11.jpg,AFSA02.jpg,AFNE08.jpg,FN,3,num_6,32,num_8,0.900109660695,,,2017_Apr_20_1637,59.9966709068,MAFE4ImagesEEG,001,100199,
AFNE01.JPG,AFNE01.JPG,AFNE01.JPG,AFNE01.JPG,AFNE01.JPG,AFNE01.JPG,,,,,,,,,,,,,,,,,,,,,3,5,35,7,,,AFNE10.jpg,AFSA20.jpg,AFNE02.jpg,AFSA18.jpg,AFNE10.jpg,FN,3,num_8,16,num_8,0.700180479849,,,2017_Apr_20_1637,59.9966709068,MAFE4ImagesEEG,001,100199,
AFNE01.JPG,AFNE01.JPG,AFNE01.JPG,AFNE01.JPG,AFNE01.JPG,AFNE01.JPG,,,,,,,,,,,,,,,,,,,,,3,6,36,6,,,AFSA10.jpg,AFNE18.jpg,AFSA16.jpg,AFNE08.jpg,AFNE18.jpg,FN,3,num_6,32,num_4,0.61680435465,,,2017_Apr_20_1637,59.9966709068,MAFE4ImagesEEG,001,100199,
AFNE01.JPG,AFNE01.JPG,AFNE01.JPG,AFNE01.JPG,AFNE01.JPG,AFNE01.JPG,,,,,,,,,,,,,,,,,,,,,3,7,37,0,,,AFSA13.jpg,AFNE13.jpg,AFSA16.jpg,AFNE03.jpg,AFSA16.jpg,FS,4,num_2,32,num_6,0.666770372307,,,2017_Apr_20_1637,59.9966709068,MAFE4ImagesEEG,001,100199,
AFNE01.JPG,AFNE01.JPG,AFNE01.JPG,AFNE01.JPG,AFNE01.JPG,AFNE01.JPG,,,,,,,,,,,,,,,,,,,,,3,8,38,5,,,AFNE07.jpg,AFSA07.jpg,AFSA04.jpg,AFNE17.jpg,AFNE07.jpg,FN,3,num_8,16,num_8,0.533473132818,,,2017_Apr_20_1637,59.9966709068,MAFE4ImagesEEG,001,100199,
