IPosition2,IPosition3,IPosition1,IPosition6,IPosition4,IPosition5,TrialsM1.thisRepN,TrialsM1.thisTrialN,TrialsM1.thisN,TrialsM1.thisIndex,TrialsF1.thisRepN,TrialsF1.thisTrialN,TrialsF1.thisN,TrialsF1.thisIndex,TrialsM2.thisRepN,TrialsM2.thisTrialN,TrialsM2.thisN,TrialsM2.thisIndex,TrialsF2.thisRepN,TrialsF2.thisTrialN,TrialsF2.thisN,TrialsF2.thisIndex,TrialsM3.thisRepN,TrialsM3.thisTrialN,TrialsM3.thisN,TrialsM3.thisIndex,TrialsF3.thisRepN,TrialsF3.thisTrialN,TrialsF3.thisN,TrialsF3.thisIndex,InstrKey_resp.keys,InstrKey_resp.rt,Image0 _Position,Image1 _Position,Image2 _Position,Image3 _Position,Center_image,condition,code,correct_answer,accuracy,Key_Resp.keys,Key_Resp.rt,BreakKey_resp.keys,BreakKey_resp.rt,date,frameRate,expName,session,participant,
,,,,,,,,,,,,,,,,,,,,,,,,,,,,,,space,19.932330979,,,,,,,,,,,,,,2017_Apr_12_1301,60.0012893879,MAFE4ImagesEEG,001,100159,
AFSA25.JPG,AFNE24.JPG,AFSA24.JPG,AFNE21.JPG,AFSA21.JPG,AFNE25.JPG,0,0,0,2,,,,,,,,,,,,,,,,,,,,,,,AMNE20.jpg,AMSA16.jpg,AMSA15.jpg,AMNE08.jpg,AMNE20.jpg,MN,1,num_8,32,num_4,2.30004044529,,,2017_Apr_12_1301,60.0012893879,MAFE4ImagesEEG,001,100159,
AFSA21.JPG,AFNE23.JPG,AFNE21.JPG,AFSA25.JPG,AFNE25.JPG,AFSA23.JPG,0,1,1,4,,,,,,,,,,,,,,,,,,,,,,,AMNE18.jpg,AMSA12.jpg,AMSA16.jpg,AMNE09.jpg,AMNE18.jpg,MN,1,num_8,32,num_6,1.21673472226,,,2017_Apr_12_1301,60.0012893879,MAFE4ImagesEEG,001,100159,
AFNE23.JPG,AFNE24.JPG,AFNE22.JPG,AFSA24.JPG,AFSA22.JPG,AFSA23.JPG,0,2,2,8,,,,,,,,,,,,,,,,,,,,,,,AMNE11.jpg,AMNE05.jpg,AMSA12.jpg,AMSA07.jpg,AMSA07.jpg,MS,2,num_4,32,num_8,1.083519015,,,2017_Apr_12_1301,60.0012893879,MAFE4ImagesEEG,001,100159,
AMSA21.JPG,AMNE23.JPG,AMNE21.JPG,AMSA25.JPG,AMNE25.JPG,AMSA23.JPG,0,3,3,5,,,,,,,,,,,,,,,,,,,,,,,AMNE13.jpg,AMNE04.jpg,AMSA07.jpg,AMSA04.jpg,AMSA04.jpg,MS,2,num_4,16,num_4,0.850112563465,,,2017_Apr_12_1301,60.0012893879,MAFE4ImagesEEG,001,100159,
AMSA25.JPG,AMNE24.JPG,AMSA24.JPG,AMNE26.JPG,AMSA21.JPG,AMNE25.JPG,0,4,4,3,,,,,,,,,,,,,,,,,,,,,,,AMSA02.jpg,AMNE03.jpg,AMSA06.jpg,AMNE12.jpg,AMNE12.jpg,MN,1,num_4,16,num_4,0.683441139292,,,2017_Apr_12_1301,60.0012893879,MAFE4ImagesEEG,001,100159,
AFSA21.JPG,AFNE22.JPG,AFNE21.JPG,AFSA23.JPG,AFSA22.JPG,AFNE23.JPG,0,5,5,0,,,,,,,,,,,,,,,,,,,,,,,AMSA06.jpg,AMNE17.jpg,AMSA17.jpg,AMNE04.jpg,AMSA17.jpg,MS,2,num_2,32,num_6,0.850118337199,,,2017_Apr_12_1301,60.0012893879,MAFE4ImagesEEG,001,100159,
AFNE22.JPG,AFSA24.JPG,AFSA22.JPG,AFNE25.JPG,AFNE24.JPG,AFSA25.JPG,0,6,6,6,,,,,,,,,,,,,,,,,,,,,,,AMSA10.jpg,AMNE13.jpg,AMNE11.jpg,AMSA09.jpg,AMSA09.jpg,MS,2,num_4,32,num_8,1.05011461629,,,2017_Apr_12_1301,60.0012893879,MAFE4ImagesEEG,001,100159,
AMSA21.JPG,AMNE22.JPG,AMNE21.JPG,AMSA23.JPG,AMSA22.JPG,AMNE23.JPG,0,7,7,1,,,,,,,,,,,,,,,,,,,,,,,AMSA11.jpg,AMNE04.jpg,AMSA12.jpg,AMNE17.jpg,AMNE04.jpg,MN,1,num_6,32,num_2,1.15006737132,,,2017_Apr_12_1301,60.0012893879,MAFE4ImagesEEG,001,100159,
AMNE22.JPG,AMSA24.JPG,AMSA22.JPG,AMNE25.JPG,AMNE24.JPG,AMSA25.JPG,0,8,8,7,,,,,,,,,,,,,,,,,,,,,,,AMSA16.jpg,AMNE14.jpg,AMNE05.jpg,AMSA19.jpg,AMSA16.jpg,MS,2,num_8,32,num_4,0.883312971797,,,2017_Apr_12_1301,60.0012893879,MAFE4ImagesEEG,001,100159,
AMNE23.JPG,AMNE24.JPG,AMNE22.JPG,AMSA24.JPG,AMSA22.JPG,AMSA23.JPG,0,9,9,9,,,,,,,,,,,,,,,,,,,,,,,AMNE04.jpg,AMNE15.jpg,AMSA07.jpg,AMSA10.jpg,AMNE04.jpg,MN,1,num_8,32,num_6,1.65006753197,,,2017_Apr_12_1301,60.0012893879,MAFE4ImagesEEG,001,100159,
AMSA21.JPG,AMNE22.JPG,AMNE21.JPG,AMSA23.JPG,AMSA22.JPG,AMNE23.JPG,,,,,0,0,0,1,,,,,,,,,,,,,,,,,,,AFSA03.jpg,AFNE14.jpg,AFSA09.jpg,AFNE09.jpg,AFNE14.jpg,FN,3,num_6,32,num_8,1.06685337983,,,2017_Apr_12_1301,60.0012893879,MAFE4ImagesEEG,001,100159,
AFSA25.JPG,AFNE24.JPG,AFSA24.JPG,AFNE21.JPG,AFSA21.JPG,AFNE25.JPG,,,,,0,1,1,2,,,,,,,,,,,,,,,,,,,AFNE06.jpg,AFSA06.jpg,AFNE10.jpg,AFSA17.jpg,AFSA06.jpg,FS,4,num_6,32,num_4,1.13345369603,,,2017_Apr_12_1301,60.0012893879,MAFE4ImagesEEG,001,100159,
AMSA25.JPG,AMNE24.JPG,AMSA24.JPG,AMNE26.JPG,AMSA21.JPG,AMNE25.JPG,,,,,0,2,2,3,,,,,,,,,,,,,,,,,,,AFSA20.jpg,AFSA01.jpg,AFNE15.jpg,AFNE12.jpg,AFNE15.jpg,FN,3,num_2,32,num_4,1.5834232741,,,2017_Apr_12_1301,60.0012893879,MAFE4ImagesEEG,001,100159,
AFNE23.JPG,AFNE24.JPG,AFNE22.JPG,AFSA24.JPG,AFSA22.JPG,AFSA23.JPG,,,,,0,3,3,8,,,,,,,,,,,,,,,,,,,AFNE09.jpg,AFSA02.jpg,AFSA07.jpg,AFNE20.jpg,AFSA02.jpg,FS,4,num_6,32,num_8,1.26674349466,,,2017_Apr_12_1301,60.0012893879,MAFE4ImagesEEG,001,100159,
AMNE23.JPG,AMNE24.JPG,AMNE22.JPG,AMSA24.JPG,AMSA22.JPG,AMSA23.JPG,,,,,0,4,4,9,,,,,,,,,,,,,,,,,,,AFSA08.jpg,AFSA19.jpg,AFNE18.jpg,AFNE13.jpg,AFNE18.jpg,FN,3,num_2,48,None,,,,2017_Apr_12_1301,60.0012893879,MAFE4ImagesEEG,001,100159,
AFSA21.JPG,AFNE22.JPG,AFNE21.JPG,AFSA23.JPG,AFSA22.JPG,AFNE23.JPG,,,,,0,5,5,0,,,,,,,,,,,,,,,,,,,AFSA06.jpg,AFSA15.jpg,AFNE12.jpg,AFNE06.jpg,AFNE12.jpg,FN,3,num_2,32,num_4,1.46647163527,,,2017_Apr_12_1301,60.0012893879,MAFE4ImagesEEG,001,100159,
AMSA21.JPG,AMNE23.JPG,AMNE21.JPG,AMSA25.JPG,AMNE25.JPG,AMSA23.JPG,,,,,0,6,6,5,,,,,,,,,,,,,,,,,,,AFSA13.jpg,AFNE04.jpg,AFSA17.jpg,AFNE06.jpg,AFNE06.jpg,FN,3,num_4,32,num_8,3.61658230657,,,2017_Apr_12_1301,60.0012893879,MAFE4ImagesEEG,001,100159,
AFNE22.JPG,AFSA24.JPG,AFSA22.JPG,AFNE25.JPG,AFNE24.JPG,AFSA25.JPG,,,,,0,7,7,6,,,,,,,,,,,,,,,,,,,AFNE11.jpg,AFSA15.jpg,AFNE06.jpg,AFSA02.jpg,AFNE11.jpg,FN,3,num_8,48,None,,,,2017_Apr_12_1301,60.0012893879,MAFE4ImagesEEG,001,100159,
AMNE22.JPG,AMSA24.JPG,AMSA22.JPG,AMNE25.JPG,AMNE24.JPG,AMSA25.JPG,,,,,0,8,8,7,,,,,,,,,,,,,,,,,,,AFSA05.jpg,AFSA16.jpg,AFNE10.jpg,AFNE15.jpg,AFNE10.jpg,FN,3,num_2,16,num_2,0.700335461646,,,2017_Apr_12_1301,60.0012893879,MAFE4ImagesEEG,001,100159,
AFSA21.JPG,AFNE23.JPG,AFNE21.JPG,AFSA25.JPG,AFNE25.JPG,AFSA23.JPG,,,,,0,9,9,4,,,,,,,,,,,,,,,,,,,AFNE14.jpg,AFSA01.jpg,AFNE13.jpg,AFSA03.jpg,AFSA01.jpg,FS,4,num_6,48,None,,,,2017_Apr_12_1301,60.0012893879,MAFE4ImagesEEG,001,100159,
AFSA21.JPG,AFNE22.JPG,AFNE21.JPG,AFSA23.JPG,AFSA22.JPG,AFNE23.JPG,,,,,,,,,0,0,0,0,,,,,,,,,,,,,,,AMSA09.jpg,AMNE08.jpg,AMNE12.jpg,AMSA08.jpg,AMSA09.jpg,MS,2,num_8,48,None,,,,2017_Apr_12_1301,60.0012893879,MAFE4ImagesEEG,001,100159,
AFSA21.JPG,AFNE23.JPG,AFNE21.JPG,AFSA25.JPG,AFNE25.JPG,AFSA23.JPG,,,,,,,,,0,1,1,4,,,,,,,,,,,,,,,AMNE17.jpg,AMSA07.jpg,AMNE03.jpg,AMSA02.jpg,AMNE17.jpg,MN,1,num_8,48,None,,,,2017_Apr_12_1301,60.0012893879,MAFE4ImagesEEG,001,100159,
AMNE22.JPG,AMSA24.JPG,AMSA22.JPG,AMNE25.JPG,AMNE24.JPG,AMSA25.JPG,,,,,,,,,0,2,2,7,,,,,,,,,,,,,,,AMNE19.jpg,AMSA13.jpg,AMNE20.jpg,AMSA07.jpg,AMSA13.jpg,MS,2,num_6,32,num_4,1.70010035951,,,2017_Apr_12_1301,60.0012893879,MAFE4ImagesEEG,001,100159,
AMSA25.JPG,AMNE24.JPG,AMSA24.JPG,AMNE26.JPG,AMSA21.JPG,AMNE25.JPG,,,,,,,,,0,3,3,3,,,,,,,,,,,,,,,AMNE17.jpg,AMSA02.jpg,AMNE07.jpg,AMSA06.jpg,AMSA02.jpg,MS,2,num_6,32,num_8,0.783432703931,,,2017_Apr_12_1301,60.0012893879,MAFE4ImagesEEG,001,100159,
AFNE22.JPG,AFSA24.JPG,AFSA22.JPG,AFNE25.JPG,AFNE24.JPG,AFSA25.JPG,,,,,,,,,0,4,4,6,,,,,,,,,,,,,,,AMNE10.jpg,AMNE08.jpg,AMSA19.jpg,AMSA08.jpg,AMSA08.jpg,MS,2,num_4,32,num_6,1.65004636301,,,2017_Apr_12_1301,60.0012893879,MAFE4ImagesEEG,001,100159,
AMSA21.JPG,AMNE22.JPG,AMNE21.JPG,AMSA23.JPG,AMSA22.JPG,AMNE23.JPG,,,,,,,,,0,5,5,1,,,,,,,,,,,,,,,AMSA19.jpg,AMNE20.jpg,AMSA14.jpg,AMNE07.jpg,AMNE07.jpg,MN,1,num_4,16,num_4,0.883441267535,,,2017_Apr_12_1301,60.0012893879,MAFE4ImagesEEG,001,100159,
AFNE23.JPG,AFNE24.JPG,AFNE22.JPG,AFSA24.JPG,AFSA22.JPG,AFSA23.JPG,,,,,,,,,0,6,6,8,,,,,,,,,,,,,,,AMNE05.jpg,AMSA13.jpg,AMNE11.jpg,AMSA12.jpg,AMNE11.jpg,MN,1,num_2,16,num_2,0.666771014221,,,2017_Apr_12_1301,60.0012893879,MAFE4ImagesEEG,001,100159,
AFSA25.JPG,AFNE24.JPG,AFSA24.JPG,AFNE21.JPG,AFSA21.JPG,AFNE25.JPG,,,,,,,,,0,7,7,2,,,,,,,,,,,,,,,AMNE02.jpg,AMSA05.jpg,AMSA08.jpg,AMNE17.jpg,AMSA08.jpg,MS,2,num_2,32,num_8,0.250180496369,,,2017_Apr_12_1301,60.0012893879,MAFE4ImagesEEG,001,100159,
AMSA21.JPG,AMNE23.JPG,AMNE21.JPG,AMSA25.JPG,AMNE25.JPG,AMSA23.JPG,,,,,,,,,0,8,8,5,,,,,,,,,,,,,,,AMNE15.jpg,AMSA12.jpg,AMSA20.jpg,AMNE18.jpg,AMNE18.jpg,MN,1,num_4,32,num_6,2.83332087798,,,2017_Apr_12_1301,60.0012893879,MAFE4ImagesEEG,001,100159,
AMNE23.JPG,AMNE24.JPG,AMNE22.JPG,AMSA24.JPG,AMSA22.JPG,AMSA23.JPG,,,,,,,,,0,9,9,9,,,,,,,,,,,,,,,AMNE19.jpg,AMNE02.jpg,AMSA01.jpg,AMSA15.jpg,AMNE02.jpg,MN,1,num_6,48,None,,,,2017_Apr_12_1301,60.0012893879,MAFE4ImagesEEG,001,100159,
AFSA25.JPG,AFNE24.JPG,AFSA24.JPG,AFNE21.JPG,AFSA21.JPG,AFNE25.JPG,,,,,,,,,,,,,0,0,0,2,,,,,,,,,,,AFNE08.jpg,AFNE13.jpg,AFSA16.jpg,AFSA12.jpg,AFSA16.jpg,FS,4,num_2,32,num_4,3.56656840304,,,2017_Apr_12_1301,60.0012893879,MAFE4ImagesEEG,001,100159,
AMSA21.JPG,AMNE23.JPG,AMNE21.JPG,AMSA25.JPG,AMNE25.JPG,AMSA23.JPG,,,,,,,,,,,,,0,1,1,5,,,,,,,,,,,AFNE14.jpg,AFSA03.jpg,AFNE12.jpg,AFSA06.jpg,AFNE12.jpg,FN,3,num_2,32,num_8,3.66625013296,,,2017_Apr_12_1301,60.0012893879,MAFE4ImagesEEG,001,100159,
AMSA25.JPG,AMNE24.JPG,AMSA24.JPG,AMNE26.JPG,AMSA21.JPG,AMNE25.JPG,,,,,,,,,,,,,0,2,2,3,,,,,,,,,,,AFSA02.jpg,AFSA12.jpg,AFNE14.jpg,AFNE10.jpg,AFSA02.jpg,FS,4,num_8,48,None,,,,2017_Apr_12_1301,60.0012893879,MAFE4ImagesEEG,001,100159,
AMNE22.JPG,AMSA24.JPG,AMSA22.JPG,AMNE25.JPG,AMNE24.JPG,AMSA25.JPG,,,,,,,,,,,,,0,3,3,7,,,,,,,,,,,AFNE12.jpg,AFSA12.jpg,AFSA18.jpg,AFNE07.jpg,AFSA18.jpg,FS,4,num_2,32,num_4,0.650150282774,,,2017_Apr_12_1301,60.0012893879,MAFE4ImagesEEG,001,100159,
AFNE22.JPG,AFSA24.JPG,AFSA22.JPG,AFNE25.JPG,AFNE24.JPG,AFSA25.JPG,,,,,,,,,,,,,0,4,4,6,,,,,,,,,,,AFSA16.jpg,AFNE13.jpg,AFNE05.jpg,AFSA14.jpg,AFSA14.jpg,FS,4,num_4,32,num_2,1.20009955764,,,2017_Apr_12_1301,60.0012893879,MAFE4ImagesEEG,001,100159,
AMSA21.JPG,AMNE22.JPG,AMNE21.JPG,AMSA23.JPG,AMSA22.JPG,AMNE23.JPG,,,,,,,,,,,,,0,5,5,1,,,,,,,,,,,AFNE05.jpg,AFSA17.jpg,AFNE03.jpg,AFSA06.jpg,AFNE05.jpg,FN,3,num_8,32,num_4,0.766794973053,,,2017_Apr_12_1301,60.0012893879,MAFE4ImagesEEG,001,100159,
AFSA21.JPG,AFNE23.JPG,AFNE21.JPG,AFSA25.JPG,AFNE25.JPG,AFSA23.JPG,,,,,,,,,,,,,0,6,6,4,,,,,,,,,,,AFNE01.jpg,AFNE04.jpg,AFSA19.jpg,AFSA14.jpg,AFSA19.jpg,FS,4,num_2,32,num_8,0.433488689363,,,2017_Apr_12_1301,60.0012893879,MAFE4ImagesEEG,001,100159,
AFNE23.JPG,AFNE24.JPG,AFNE22.JPG,AFSA24.JPG,AFSA22.JPG,AFSA23.JPG,,,,,,,,,,,,,0,7,7,8,,,,,,,,,,,AFNE04.jpg,AFNE06.jpg,AFSA01.jpg,AFSA06.jpg,AFSA01.jpg,FS,4,num_2,32,num_6,0.916749764699,,,2017_Apr_12_1301,60.0012893879,MAFE4ImagesEEG,001,100159,
AFSA21.JPG,AFNE22.JPG,AFNE21.JPG,AFSA23.JPG,AFSA22.JPG,AFNE23.JPG,,,,,,,,,,,,,0,8,8,0,,,,,,,,,,,AFNE05.jpg,AFNE18.jpg,AFSA17.jpg,AFSA10.jpg,AFNE05.jpg,FN,3,num_8,32,num_2,0.38352931058,,,2017_Apr_12_1301,60.0012893879,MAFE4ImagesEEG,001,100159,
AMNE23.JPG,AMNE24.JPG,AMNE22.JPG,AMSA24.JPG,AMSA22.JPG,AMSA23.JPG,,,,,,,,,,,,,0,9,9,9,,,,,,,,,,,AFNE12.jpg,AFSA07.jpg,AFNE10.jpg,AFSA08.jpg,AFSA07.jpg,FS,4,num_6,32,num_4,0.450128664728,,,2017_Apr_12_1301,60.0012893879,MAFE4ImagesEEG,001,100159,
AMNE22.JPG,AMSA24.JPG,AMSA22.JPG,AMNE25.JPG,AMNE24.JPG,AMSA25.JPG,,,,,,,,,,,,,,,,,0,0,0,7,,,,,,,AMSA17.jpg,AMNE04.jpg,AMSA03.jpg,AMNE09.jpg,AMNE09.jpg,MN,1,num_4,32,num_8,0.866803216282,,,2017_Apr_12_1301,60.0012893879,MAFE4ImagesEEG,001,100159,
AFSA21.JPG,AFNE23.JPG,AFNE21.JPG,AFSA25.JPG,AFNE25.JPG,AFSA23.JPG,,,,,,,,,,,,,,,,,0,1,1,4,,,,,,,AMNE14.jpg,AMSA04.jpg,AMNE06.jpg,AMSA16.jpg,AMSA16.jpg,MS,2,num_4,32,num_2,0.816773916595,,,2017_Apr_12_1301,60.0012893879,MAFE4ImagesEEG,001,100159,
AFNE23.JPG,AFNE24.JPG,AFNE22.JPG,AFSA24.JPG,AFSA22.JPG,AFSA23.JPG,,,,,,,,,,,,,,,,,0,2,2,8,,,,,,,AMSA07.jpg,AMNE08.jpg,AMSA11.jpg,AMNE10.jpg,AMNE08.jpg,MN,1,num_6,32,num_8,0.600131888408,,,2017_Apr_12_1301,60.0012893879,MAFE4ImagesEEG,001,100159,
AMSA21.JPG,AMNE22.JPG,AMNE21.JPG,AMSA23.JPG,AMSA22.JPG,AMNE23.JPG,,,,,,,,,,,,,,,,,0,3,3,1,,,,,,,AMNE03.jpg,AMSA05.jpg,AMNE08.jpg,AMSA13.jpg,AMNE08.jpg,MN,1,num_2,32,num_4,2.55004068557,,,2017_Apr_12_1301,60.0012893879,MAFE4ImagesEEG,001,100159,
AMSA21.JPG,AMNE23.JPG,AMNE21.JPG,AMSA25.JPG,AMNE25.JPG,AMSA23.JPG,,,,,,,,,,,,,,,,,0,4,4,5,,,,,,,AMNE02.jpg,AMSA11.jpg,AMSA01.jpg,AMNE14.jpg,AMNE02.jpg,MN,1,num_8,16,num_8,0.833436665125,,,2017_Apr_12_1301,60.0012893879,MAFE4ImagesEEG,001,100159,
AFNE22.JPG,AFSA24.JPG,AFSA22.JPG,AFNE25.JPG,AFNE24.JPG,AFSA25.JPG,,,,,,,,,,,,,,,,,0,5,5,6,,,,,,,AMNE04.jpg,AMNE08.jpg,AMSA09.jpg,AMSA20.jpg,AMSA09.jpg,MS,2,num_2,16,num_2,2.15000514826,,,2017_Apr_12_1301,60.0012893879,MAFE4ImagesEEG,001,100159,
AMNE23.JPG,AMNE24.JPG,AMNE22.JPG,AMSA24.JPG,AMSA22.JPG,AMSA23.JPG,,,,,,,,,,,,,,,,,0,6,6,9,,,,,,,AMNE16.jpg,AMNE11.jpg,AMSA14.jpg,AMSA17.jpg,AMSA14.jpg,MS,2,num_2,32,num_4,0.800158637576,,,2017_Apr_12_1301,60.0012893879,MAFE4ImagesEEG,001,100159,
AFSA21.JPG,AFNE22.JPG,AFNE21.JPG,AFSA23.JPG,AFSA22.JPG,AFNE23.JPG,,,,,,,,,,,,,,,,,0,7,7,0,,,,,,,AMNE14.jpg,AMSA03.jpg,AMNE04.jpg,AMSA11.jpg,AMNE04.jpg,MN,1,num_2,32,num_6,0.700275803916,,,2017_Apr_12_1301,60.0012893879,MAFE4ImagesEEG,001,100159,
AMSA25.JPG,AMNE24.JPG,AMSA24.JPG,AMNE26.JPG,AMSA21.JPG,AMNE25.JPG,,,,,,,,,,,,,,,,,0,8,8,3,,,,,,,AMNE02.jpg,AMNE20.jpg,AMSA07.jpg,AMSA19.jpg,AMSA07.jpg,MS,2,num_2,32,num_8,1.96668476705,,,2017_Apr_12_1301,60.0012893879,MAFE4ImagesEEG,001,100159,
AFSA25.JPG,AFNE24.JPG,AFSA24.JPG,AFNE21.JPG,AFSA21.JPG,AFNE25.JPG,,,,,,,,,,,,,,,,,0,9,9,2,,,,,,,AMNE20.jpg,AMSA17.jpg,AMSA11.jpg,AMNE03.jpg,AMSA17.jpg,MS,2,num_6,32,num_4,0.999793443363,,,2017_Apr_12_1301,60.0012893879,MAFE4ImagesEEG,001,100159,
AFSA21.JPG,AFNE23.JPG,AFNE21.JPG,AFSA25.JPG,AFNE25.JPG,AFSA23.JPG,,,,,,,,,,,,,,,,,,,,,0,0,0,4,,,AFSA15.jpg,AFSA14.jpg,AFNE17.jpg,AFNE18.jpg,AFNE17.jpg,FN,3,num_2,32,num_4,1.00019019889,,,2017_Apr_12_1301,60.0012893879,MAFE4ImagesEEG,001,100159,
AMSA21.JPG,AMNE23.JPG,AMNE21.JPG,AMSA25.JPG,AMNE25.JPG,AMSA23.JPG,,,,,,,,,,,,,,,,,,,,,0,1,1,5,,,AFSA14.jpg,AFNE19.jpg,AFNE07.jpg,AFSA01.jpg,AFNE19.jpg,FN,3,num_6,32,num_2,0.716775616631,,,2017_Apr_12_1301,60.0012893879,MAFE4ImagesEEG,001,100159,
AFNE22.JPG,AFSA24.JPG,AFSA22.JPG,AFNE25.JPG,AFNE24.JPG,AFSA25.JPG,,,,,,,,,,,,,,,,,,,,,0,2,2,6,,,AFNE07.jpg,AFSA17.jpg,AFSA14.jpg,AFNE15.jpg,AFNE07.jpg,FN,3,num_8,32,num_6,0.283536463045,,,2017_Apr_12_1301,60.0012893879,MAFE4ImagesEEG,001,100159,
AMSA21.JPG,AMNE22.JPG,AMNE21.JPG,AMSA23.JPG,AMSA22.JPG,AMNE23.JPG,,,,,,,,,,,,,,,,,,,,,0,3,3,1,,,AFNE17.jpg,AFNE18.jpg,AFSA04.jpg,AFSA08.jpg,AFNE17.jpg,FN,3,num_8,32,num_2,0.366852449719,,,2017_Apr_12_1301,60.0012893879,MAFE4ImagesEEG,001,100159,
AFNE23.JPG,AFNE24.JPG,AFNE22.JPG,AFSA24.JPG,AFSA22.JPG,AFSA23.JPG,,,,,,,,,,,,,,,,,,,,,0,4,4,8,,,AFNE09.jpg,AFNE20.jpg,AFSA11.jpg,AFSA03.jpg,AFSA11.jpg,FS,4,num_2,32,num_4,0.583505704068,,,2017_Apr_12_1301,60.0012893879,MAFE4ImagesEEG,001,100159,
AFSA25.JPG,AFNE24.JPG,AFSA24.JPG,AFNE21.JPG,AFSA21.JPG,AFNE25.JPG,,,,,,,,,,,,,,,,,,,,,0,5,5,2,,,AFSA17.jpg,AFNE10.jpg,AFSA14.jpg,AFNE13.jpg,AFNE10.jpg,FN,3,num_6,32,num_4,0.966806327458,,,2017_Apr_12_1301,60.0012893879,MAFE4ImagesEEG,001,100159,
AMNE22.JPG,AMSA24.JPG,AMSA22.JPG,AMNE25.JPG,AMNE24.JPG,AMSA25.JPG,,,,,,,,,,,,,,,,,,,,,0,6,6,7,,,AFNE18.jpg,AFSA05.jpg,AFSA10.jpg,AFNE01.jpg,AFSA05.jpg,FS,4,num_6,32,num_2,2.63348144013,,,2017_Apr_12_1301,60.0012893879,MAFE4ImagesEEG,001,100159,
AMSA25.JPG,AMNE24.JPG,AMSA24.JPG,AMNE26.JPG,AMSA21.JPG,AMNE25.JPG,,,,,,,,,,,,,,,,,,,,,0,7,7,3,,,AFNE15.jpg,AFSA08.jpg,AFSA18.jpg,AFNE19.jpg,AFNE15.jpg,FN,3,num_8,16,num_8,0.783508398104,,,2017_Apr_12_1301,60.0012893879,MAFE4ImagesEEG,001,100159,
AMNE23.JPG,AMNE24.JPG,AMNE22.JPG,AMSA24.JPG,AMSA22.JPG,AMSA23.JPG,,,,,,,,,,,,,,,,,,,,,0,8,8,9,,,AFSA03.jpg,AFNE03.jpg,AFSA11.jpg,AFNE13.jpg,AFNE03.jpg,FN,3,num_6,32,num_4,0.400125345215,,,2017_Apr_12_1301,60.0012893879,MAFE4ImagesEEG,001,100159,
AFSA21.JPG,AFNE22.JPG,AFNE21.JPG,AFSA23.JPG,AFSA22.JPG,AFNE23.JPG,,,,,,,,,,,,,,,,,,,,,0,9,9,0,,,AFSA17.jpg,AFNE19.jpg,AFNE09.jpg,AFSA18.jpg,AFSA18.jpg,FS,4,num_4,32,num_8,0.850132128689,,,2017_Apr_12_1301,60.0012893879,MAFE4ImagesEEG,001,100159,
,,,,,,,,,,,,,,,,,,,,,,,,,,,,,,,,,,,,,,,,,,,space,22.8647389351,2017_Apr_12_1301,60.0012893879,MAFE4ImagesEEG,001,100159,
AFNE01.JPG,AFNE01.JPG,AFNE01.JPG,AFNE01.JPG,AFNE01.JPG,AFNE01.JPG,0,0,0,1,,,,,,,,,,,,,,,,,,,,,,,AMNE09.jpg,AMSA02.jpg,AMSA20.jpg,AMNE15.jpg,AMSA20.jpg,MS,2,num_2,32,num_4,2.8502963474,,,2017_Apr_12_1301,60.0012893879,MAFE4ImagesEEG,001,100159,
AFNE01.JPG,AFNE01.JPG,AFNE01.JPG,AFNE01.JPG,AFNE01.JPG,AFNE01.JPG,0,1,1,3,,,,,,,,,,,,,,,,,,,,,,,AMSA10.jpg,AMNE13.jpg,AMSA20.jpg,AMNE14.jpg,AMNE13.jpg,MN,1,num_6,32,num_2,1.83339208225,,,2017_Apr_12_1301,60.0012893879,MAFE4ImagesEEG,001,100159,
AFNE01.JPG,AFNE01.JPG,AFNE01.JPG,AFNE01.JPG,AFNE01.JPG,AFNE01.JPG,0,2,2,4,,,,,,,,,,,,,,,,,,,,,,,AMSA08.jpg,AMNE06.jpg,AMNE13.jpg,AMSA03.jpg,AMNE06.jpg,MN,1,num_6,16,num_6,1.28343767533,,,2017_Apr_12_1301,60.0012893879,MAFE4ImagesEEG,001,100159,
AFNE01.JPG,AFNE01.JPG,AFNE01.JPG,AFNE01.JPG,AFNE01.JPG,AFNE01.JPG,0,3,3,0,,,,,,,,,,,,,,,,,,,,,,,AMNE09.jpg,AMNE20.jpg,AMSA20.jpg,AMSA06.jpg,AMNE09.jpg,MN,1,num_8,16,num_8,0.73343098769,,,2017_Apr_12_1301,60.0012893879,MAFE4ImagesEEG,001,100159,
AFNE01.JPG,AFNE01.JPG,AFNE01.JPG,AFNE01.JPG,AFNE01.JPG,AFNE01.JPG,0,4,4,7,,,,,,,,,,,,,,,,,,,,,,,AMNE12.jpg,AMSA14.jpg,AMNE15.jpg,AMSA08.jpg,AMSA08.jpg,MS,2,num_4,16,num_4,0.800130733289,,,2017_Apr_12_1301,60.0012893879,MAFE4ImagesEEG,001,100159,
AFNE01.JPG,AFNE01.JPG,AFNE01.JPG,AFNE01.JPG,AFNE01.JPG,AFNE01.JPG,0,5,5,2,,,,,,,,,,,,,,,,,,,,,,,AMNE09.jpg,AMSA13.jpg,AMNE16.jpg,AMSA20.jpg,AMNE09.jpg,MN,1,num_8,16,num_8,0.616811956745,,,2017_Apr_12_1301,60.0012893879,MAFE4ImagesEEG,001,100159,
AFNE01.JPG,AFNE01.JPG,AFNE01.JPG,AFNE01.JPG,AFNE01.JPG,AFNE01.JPG,0,6,6,9,,,,,,,,,,,,,,,,,,,,,,,AMSA05.jpg,AMNE10.jpg,AMSA08.jpg,AMNE12.jpg,AMNE12.jpg,MN,1,num_4,32,num_2,0.716770164203,,,2017_Apr_12_1301,60.0012893879,MAFE4ImagesEEG,001,100159,
AFNE01.JPG,AFNE01.JPG,AFNE01.JPG,AFNE01.JPG,AFNE01.JPG,AFNE01.JPG,0,7,7,5,,,,,,,,,,,,,,,,,,,,,,,AMNE09.jpg,AMSA20.jpg,AMNE13.jpg,AMSA13.jpg,AMSA20.jpg,MS,2,num_6,16,num_6,0.883408552036,,,2017_Apr_12_1301,60.0012893879,MAFE4ImagesEEG,001,100159,
AFNE01.JPG,AFNE01.JPG,AFNE01.JPG,AFNE01.JPG,AFNE01.JPG,AFNE01.JPG,0,8,8,8,,,,,,,,,,,,,,,,,,,,,,,AMNE08.jpg,AMSA19.jpg,AMNE17.jpg,AMSA10.jpg,AMSA10.jpg,MS,2,num_4,32,num_6,1.28341105394,,,2017_Apr_12_1301,60.0012893879,MAFE4ImagesEEG,001,100159,
AFNE01.JPG,AFNE01.JPG,AFNE01.JPG,AFNE01.JPG,AFNE01.JPG,AFNE01.JPG,0,9,9,6,,,,,,,,,,,,,,,,,,,,,,,AMNE05.jpg,AMSA05.jpg,AMSA06.jpg,AMNE18.jpg,AMNE18.jpg,MN,1,num_4,16,num_4,0.966782592703,,,2017_Apr_12_1301,60.0012893879,MAFE4ImagesEEG,001,100159,
AFNE01.JPG,AFNE01.JPG,AFNE01.JPG,AFNE01.JPG,AFNE01.JPG,AFNE01.JPG,1,0,10,2,,,,,,,,,,,,,,,,,,,,,,,AMNE03.jpg,AMNE11.jpg,AMSA05.jpg,AMSA19.jpg,AMNE03.jpg,MN,1,num_8,32,num_2,0.516769715119,,,2017_Apr_12_1301,60.0012893879,MAFE4ImagesEEG,001,100159,
AFNE01.JPG,AFNE01.JPG,AFNE01.JPG,AFNE01.JPG,AFNE01.JPG,AFNE01.JPG,1,1,11,0,,,,,,,,,,,,,,,,,,,,,,,AMNE19.jpg,AMNE04.jpg,AMSA20.jpg,AMSA19.jpg,AMSA20.jpg,MS,2,num_2,32,num_6,1.03346020728,,,2017_Apr_12_1301,60.0012893879,MAFE4ImagesEEG,001,100159,
AFNE01.JPG,AFNE01.JPG,AFNE01.JPG,AFNE01.JPG,AFNE01.JPG,AFNE01.JPG,1,2,12,4,,,,,,,,,,,,,,,,,,,,,,,AMSA16.jpg,AMNE10.jpg,AMSA17.jpg,AMNE03.jpg,AMSA17.jpg,MS,2,num_2,32,num_8,1.15013536811,,,2017_Apr_12_1301,60.0012893879,MAFE4ImagesEEG,001,100159,
AFNE01.JPG,AFNE01.JPG,AFNE01.JPG,AFNE01.JPG,AFNE01.JPG,AFNE01.JPG,1,3,13,6,,,,,,,,,,,,,,,,,,,,,,,AMSA19.jpg,AMNE01.jpg,AMNE16.jpg,AMSA08.jpg,AMSA19.jpg,MS,2,num_8,16,num_8,1.03339253133,,,2017_Apr_12_1301,60.0012893879,MAFE4ImagesEEG,001,100159,
AFNE01.JPG,AFNE01.JPG,AFNE01.JPG,AFNE01.JPG,AFNE01.JPG,AFNE01.JPG,1,4,14,9,,,,,,,,,,,,,,,,,,,,,,,AMNE09.jpg,AMSA01.jpg,AMNE18.jpg,AMSA14.jpg,AMNE09.jpg,MN,1,num_8,32,num_4,0.633461233694,,,2017_Apr_12_1301,60.0012893879,MAFE4ImagesEEG,001,100159,
AFNE01.JPG,AFNE01.JPG,AFNE01.JPG,AFNE01.JPG,AFNE01.JPG,AFNE01.JPG,1,5,15,3,,,,,,,,,,,,,,,,,,,,,,,AMNE16.jpg,AMNE10.jpg,AMSA05.jpg,AMSA15.jpg,AMNE16.jpg,MN,1,num_8,32,num_2,0.266815981362,,,2017_Apr_12_1301,60.0012893879,MAFE4ImagesEEG,001,100159,
AFNE01.JPG,AFNE01.JPG,AFNE01.JPG,AFNE01.JPG,AFNE01.JPG,AFNE01.JPG,1,6,16,5,,,,,,,,,,,,,,,,,,,,,,,AMNE05.jpg,AMSA16.jpg,AMNE20.jpg,AMSA15.jpg,AMSA16.jpg,MS,2,num_6,32,num_2,0.40016158903,,,2017_Apr_12_1301,60.0012893879,MAFE4ImagesEEG,001,100159,
AFNE01.JPG,AFNE01.JPG,AFNE01.JPG,AFNE01.JPG,AFNE01.JPG,AFNE01.JPG,1,7,17,7,,,,,,,,,,,,,,,,,,,,,,,AMNE15.jpg,AMSA04.jpg,AMNE04.jpg,AMSA05.jpg,AMNE04.jpg,MN,1,num_2,16,num_2,0.0502672884613,,,2017_Apr_12_1301,60.0012893879,MAFE4ImagesEEG,001,100159,
AFNE01.JPG,AFNE01.JPG,AFNE01.JPG,AFNE01.JPG,AFNE01.JPG,AFNE01.JPG,1,8,18,8,,,,,,,,,,,,,,,,,,,,,,,AMNE14.jpg,AMSA12.jpg,AMNE12.jpg,AMSA10.jpg,AMSA12.jpg,MS,2,num_6,32,num_8,0.316803584807,,,2017_Apr_12_1301,60.0012893879,MAFE4ImagesEEG,001,100159,
AFNE01.JPG,AFNE01.JPG,AFNE01.JPG,AFNE01.JPG,AFNE01.JPG,AFNE01.JPG,1,9,19,1,,,,,,,,,,,,,,,,,,,,,,,AMSA11.jpg,AMNE06.jpg,AMSA05.jpg,AMNE16.jpg,AMNE16.jpg,MN,1,num_4,16,num_4,0.383494991343,,,2017_Apr_12_1301,60.0012893879,MAFE4ImagesEEG,001,100159,
AFNE01.JPG,AFNE01.JPG,AFNE01.JPG,AFNE01.JPG,AFNE01.JPG,AFNE01.JPG,2,0,20,1,,,,,,,,,,,,,,,,,,,,,,,AMSA13.jpg,AMNE02.jpg,AMNE10.jpg,AMSA15.jpg,AMSA15.jpg,MS,2,num_4,16,num_4,0.633489779197,,,2017_Apr_12_1301,60.0012893879,MAFE4ImagesEEG,001,100159,
AFNE01.JPG,AFNE01.JPG,AFNE01.JPG,AFNE01.JPG,AFNE01.JPG,AFNE01.JPG,2,1,21,6,,,,,,,,,,,,,,,,,,,,,,,AMSA15.jpg,AMSA19.jpg,AMNE09.jpg,AMNE05.jpg,AMSA15.jpg,MS,2,num_8,16,num_8,0.500022932887,,,2017_Apr_12_1301,60.0012893879,MAFE4ImagesEEG,001,100159,
AFNE01.JPG,AFNE01.JPG,AFNE01.JPG,AFNE01.JPG,AFNE01.JPG,AFNE01.JPG,2,2,22,5,,,,,,,,,,,,,,,,,,,,,,,AMNE08.jpg,AMNE18.jpg,AMSA06.jpg,AMSA01.jpg,AMNE18.jpg,MN,1,num_6,32,num_2,1.06645373814,,,2017_Apr_12_1301,60.0012893879,MAFE4ImagesEEG,001,100159,
AFNE01.JPG,AFNE01.JPG,AFNE01.JPG,AFNE01.JPG,AFNE01.JPG,AFNE01.JPG,2,3,23,9,,,,,,,,,,,,,,,,,,,,,,,AMNE06.jpg,AMSA08.jpg,AMSA05.jpg,AMNE08.jpg,AMNE08.jpg,MN,1,num_4,32,num_2,0.48333901586,,,2017_Apr_12_1301,60.0012893879,MAFE4ImagesEEG,001,100159,
AFNE01.JPG,AFNE01.JPG,AFNE01.JPG,AFNE01.JPG,AFNE01.JPG,AFNE01.JPG,2,4,24,7,,,,,,,,,,,,,,,,,,,,,,,AMSA14.jpg,AMNE17.jpg,AMNE13.jpg,AMSA07.jpg,AMSA14.jpg,MS,2,num_8,32,num_4,0.31676605856,,,2017_Apr_12_1301,60.0012893879,MAFE4ImagesEEG,001,100159,
AFNE01.JPG,AFNE01.JPG,AFNE01.JPG,AFNE01.JPG,AFNE01.JPG,AFNE01.JPG,2,5,25,2,,,,,,,,,,,,,,,,,,,,,,,AMNE18.jpg,AMNE10.jpg,AMSA14.jpg,AMSA02.jpg,AMSA14.jpg,MS,2,num_2,32,num_4,0.400149079971,,,2017_Apr_12_1301,60.0012893879,MAFE4ImagesEEG,001,100159,
AFNE01.JPG,AFNE01.JPG,AFNE01.JPG,AFNE01.JPG,AFNE01.JPG,AFNE01.JPG,2,6,26,8,,,,,,,,,,,,,,,,,,,,,,,AMNE17.jpg,AMSA09.jpg,AMSA01.jpg,AMNE18.jpg,AMNE17.jpg,MN,1,num_8,32,num_6,0.733505399432,,,2017_Apr_12_1301,60.0012893879,MAFE4ImagesEEG,001,100159,
AFNE01.JPG,AFNE01.JPG,AFNE01.JPG,AFNE01.JPG,AFNE01.JPG,AFNE01.JPG,2,7,27,0,,,,,,,,,,,,,,,,,,,,,,,AMNE13.jpg,AMNE02.jpg,AMSA01.jpg,AMSA04.jpg,AMNE13.jpg,MN,1,num_8,32,num_2,0.266881412361,,,2017_Apr_12_1301,60.0012893879,MAFE4ImagesEEG,001,100159,
AFNE01.JPG,AFNE01.JPG,AFNE01.JPG,AFNE01.JPG,AFNE01.JPG,AFNE01.JPG,2,8,28,4,,,,,,,,,,,,,,,,,,,,,,,AMNE04.jpg,AMNE15.jpg,AMSA10.jpg,AMSA15.jpg,AMNE15.jpg,MN,1,num_6,32,num_8,0.300142119639,,,2017_Apr_12_1301,60.0012893879,MAFE4ImagesEEG,001,100159,
AFNE01.JPG,AFNE01.JPG,AFNE01.JPG,AFNE01.JPG,AFNE01.JPG,AFNE01.JPG,2,9,29,3,,,,,,,,,,,,,,,,,,,,,,,AMSA03.jpg,AMNE08.jpg,AMNE07.jpg,AMSA12.jpg,AMNE07.jpg,MN,1,num_2,32,num_4,0.350148967467,,,2017_Apr_12_1301,60.0012893879,MAFE4ImagesEEG,001,100159,
AFNE01.JPG,AFNE01.JPG,AFNE01.JPG,AFNE01.JPG,AFNE01.JPG,AFNE01.JPG,3,0,30,2,,,,,,,,,,,,,,,,,,,,,,,AMNE03.jpg,AMSA18.jpg,AMSA12.jpg,AMNE09.jpg,AMSA12.jpg,MS,2,num_2,32,num_8,0.0335342981853,,,2017_Apr_12_1301,60.0012893879,MAFE4ImagesEEG,001,100159,
AFNE01.JPG,AFNE01.JPG,AFNE01.JPG,AFNE01.JPG,AFNE01.JPG,AFNE01.JPG,3,1,31,6,,,,,,,,,,,,,,,,,,,,,,,AMNE09.jpg,AMNE06.jpg,AMSA03.jpg,AMSA13.jpg,AMNE06.jpg,MN,1,num_6,32,num_2,0.41684743017,,,2017_Apr_12_1301,60.0012893879,MAFE4ImagesEEG,001,100159,
AFNE01.JPG,AFNE01.JPG,AFNE01.JPG,AFNE01.JPG,AFNE01.JPG,AFNE01.JPG,3,2,32,7,,,,,,,,,,,,,,,,,,,,,,,AMNE15.jpg,AMSA12.jpg,AMNE16.jpg,AMSA19.jpg,AMSA19.jpg,MS,2,num_4,16,num_4,0.983450472821,,,2017_Apr_12_1301,60.0012893879,MAFE4ImagesEEG,001,100159,
AFNE01.JPG,AFNE01.JPG,AFNE01.JPG,AFNE01.JPG,AFNE01.JPG,AFNE01.JPG,3,3,33,1,,,,,,,,,,,,,,,,,,,,,,,AMNE05.jpg,AMNE01.jpg,AMSA17.jpg,AMSA09.jpg,AMSA17.jpg,MS,2,num_2,32,num_8,0.349731364287,,,2017_Apr_12_1301,60.0012893879,MAFE4ImagesEEG,001,100159,
AFNE01.JPG,AFNE01.JPG,AFNE01.JPG,AFNE01.JPG,AFNE01.JPG,AFNE01.JPG,3,4,34,3,,,,,,,,,,,,,,,,,,,,,,,AMSA19.jpg,AMNE13.jpg,AMNE11.jpg,AMSA18.jpg,AMSA19.jpg,MS,2,num_8,32,num_2,0.266725854017,,,2017_Apr_12_1301,60.0012893879,MAFE4ImagesEEG,001,100159,
AFNE01.JPG,AFNE01.JPG,AFNE01.JPG,AFNE01.JPG,AFNE01.JPG,AFNE01.JPG,3,5,35,8,,,,,,,,,,,,,,,,,,,,,,,AMSA12.jpg,AMNE11.jpg,AMNE05.jpg,AMSA04.jpg,AMNE05.jpg,MN,1,num_2,32,num_4,0.283385073766,,,2017_Apr_12_1301,60.0012893879,MAFE4ImagesEEG,001,100159,
AFNE01.JPG,AFNE01.JPG,AFNE01.JPG,AFNE01.JPG,AFNE01.JPG,AFNE01.JPG,3,6,36,0,,,,,,,,,,,,,,,,,,,,,,,AMNE20.jpg,AMSA10.jpg,AMSA19.jpg,AMNE09.jpg,AMSA19.jpg,MS,2,num_2,32,num_8,0.383487935178,,,2017_Apr_12_1301,60.0012893879,MAFE4ImagesEEG,001,100159,
AFNE01.JPG,AFNE01.JPG,AFNE01.JPG,AFNE01.JPG,AFNE01.JPG,AFNE01.JPG,3,7,37,4,,,,,,,,,,,,,,,,,,,,,,,AMSA04.jpg,AMSA08.jpg,AMNE05.jpg,AMNE02.jpg,AMNE02.jpg,MN,1,num_4,32,num_2,1.51669562375,,,2017_Apr_12_1301,60.0012893879,MAFE4ImagesEEG,001,100159,
AFNE01.JPG,AFNE01.JPG,AFNE01.JPG,AFNE01.JPG,AFNE01.JPG,AFNE01.JPG,3,8,38,9,,,,,,,,,,,,,,,,,,,,,,,AMNE11.jpg,AMSA15.jpg,AMSA06.jpg,AMNE05.jpg,AMNE05.jpg,MN,1,num_4,32,num_8,0.366785414983,,,2017_Apr_12_1301,60.0012893879,MAFE4ImagesEEG,001,100159,
AFNE01.JPG,AFNE01.JPG,AFNE01.JPG,AFNE01.JPG,AFNE01.JPG,AFNE01.JPG,3,9,39,5,,,,,,,,,,,,,,,,,,,,,,,AMSA19.jpg,AMSA20.jpg,AMNE02.jpg,AMNE20.jpg,AMSA20.jpg,MS,2,num_6,32,num_8,0.266825924627,,,2017_Apr_12_1301,60.0012893879,MAFE4ImagesEEG,001,100159,
AFNE01.JPG,AFNE01.JPG,AFNE01.JPG,AFNE01.JPG,AFNE01.JPG,AFNE01.JPG,4,0,40,3,,,,,,,,,,,,,,,,,,,,,,,AMNE11.jpg,AMSA18.jpg,AMSA12.jpg,AMNE18.jpg,AMSA12.jpg,MS,2,num_2,32,num_8,0.433507612441,,,2017_Apr_12_1301,60.0012893879,MAFE4ImagesEEG,001,100159,
AFNE01.JPG,AFNE01.JPG,AFNE01.JPG,AFNE01.JPG,AFNE01.JPG,AFNE01.JPG,4,1,41,9,,,,,,,,,,,,,,,,,,,,,,,AMSA02.jpg,AMNE03.jpg,AMNE06.jpg,AMSA09.jpg,AMNE03.jpg,MN,1,num_6,32,num_4,0.416786810383,,,2017_Apr_12_1301,60.0012893879,MAFE4ImagesEEG,001,100159,
AFNE01.JPG,AFNE01.JPG,AFNE01.JPG,AFNE01.JPG,AFNE01.JPG,AFNE01.JPG,4,2,42,4,,,,,,,,,,,,,,,,,,,,,,,AMSA06.jpg,AMNE10.jpg,AMNE17.jpg,AMSA19.jpg,AMNE10.jpg,MN,1,num_6,32,num_4,0.633501646575,,,2017_Apr_12_1301,60.0012893879,MAFE4ImagesEEG,001,100159,
AFNE01.JPG,AFNE01.JPG,AFNE01.JPG,AFNE01.JPG,AFNE01.JPG,AFNE01.JPG,4,3,43,7,,,,,,,,,,,,,,,,,,,,,,,AMSA10.jpg,AMNE16.jpg,AMSA15.jpg,AMNE18.jpg,AMNE16.jpg,MN,1,num_6,32,num_2,0.36677675508,,,2017_Apr_12_1301,60.0012893879,MAFE4ImagesEEG,001,100159,
AFNE01.JPG,AFNE01.JPG,AFNE01.JPG,AFNE01.JPG,AFNE01.JPG,AFNE01.JPG,4,4,44,2,,,,,,,,,,,,,,,,,,,,,,,AMSA12.jpg,AMSA05.jpg,AMNE05.jpg,AMNE08.jpg,AMSA12.jpg,MS,2,num_8,32,num_2,0.566785543226,,,2017_Apr_12_1301,60.0012893879,MAFE4ImagesEEG,001,100159,
AFNE01.JPG,AFNE01.JPG,AFNE01.JPG,AFNE01.JPG,AFNE01.JPG,AFNE01.JPG,4,5,45,0,,,,,,,,,,,,,,,,,,,,,,,AMSA05.jpg,AMSA07.jpg,AMNE20.jpg,AMNE19.jpg,AMNE19.jpg,MN,1,num_4,16,num_4,0.38335354533,,,2017_Apr_12_1301,60.0012893879,MAFE4ImagesEEG,001,100159,
AFNE01.JPG,AFNE01.JPG,AFNE01.JPG,AFNE01.JPG,AFNE01.JPG,AFNE01.JPG,4,6,46,6,,,,,,,,,,,,,,,,,,,,,,,AMNE04.jpg,AMSA09.jpg,AMSA04.jpg,AMNE08.jpg,AMNE04.jpg,MN,1,num_8,32,num_6,0.383607571013,,,2017_Apr_12_1301,60.0012893879,MAFE4ImagesEEG,001,100159,
AFNE01.JPG,AFNE01.JPG,AFNE01.JPG,AFNE01.JPG,AFNE01.JPG,AFNE01.JPG,4,7,47,5,,,,,,,,,,,,,,,,,,,,,,,AMSA14.jpg,AMNE03.jpg,AMSA03.jpg,AMNE16.jpg,AMNE03.jpg,MN,1,num_6,32,num_8,0.55000604596,,,2017_Apr_12_1301,60.0012893879,MAFE4ImagesEEG,001,100159,
AFNE01.JPG,AFNE01.JPG,AFNE01.JPG,AFNE01.JPG,AFNE01.JPG,AFNE01.JPG,4,8,48,1,,,,,,,,,,,,,,,,,,,,,,,AMNE17.jpg,AMSA11.jpg,AMSA01.jpg,AMNE19.jpg,AMSA01.jpg,MS,2,num_2,32,num_8,0.516847654711,,,2017_Apr_12_1301,60.0012893879,MAFE4ImagesEEG,001,100159,
AFNE01.JPG,AFNE01.JPG,AFNE01.JPG,AFNE01.JPG,AFNE01.JPG,AFNE01.JPG,4,9,49,8,,,,,,,,,,,,,,,,,,,,,,,AMNE16.jpg,AMSA19.jpg,AMSA05.jpg,AMNE08.jpg,AMSA05.jpg,MS,2,num_2,16,num_2,0.483814993408,,,2017_Apr_12_1301,60.0012893879,MAFE4ImagesEEG,001,100159,
AFNE01.JPG,AFNE01.JPG,AFNE01.JPG,AFNE01.JPG,AFNE01.JPG,AFNE01.JPG,5,0,50,9,,,,,,,,,,,,,,,,,,,,,,,AMSA12.jpg,AMNE18.jpg,AMNE08.jpg,AMSA20.jpg,AMNE08.jpg,MN,1,num_2,32,num_4,0.566782657057,,,2017_Apr_12_1301,60.0012893879,MAFE4ImagesEEG,001,100159,
AFNE01.JPG,AFNE01.JPG,AFNE01.JPG,AFNE01.JPG,AFNE01.JPG,AFNE01.JPG,5,1,51,3,,,,,,,,,,,,,,,,,,,,,,,AMNE13.jpg,AMSA18.jpg,AMNE15.jpg,AMSA01.jpg,AMNE15.jpg,MN,1,num_2,32,num_8,0.350168212317,,,2017_Apr_12_1301,60.0012893879,MAFE4ImagesEEG,001,100159,
AFNE01.JPG,AFNE01.JPG,AFNE01.JPG,AFNE01.JPG,AFNE01.JPG,AFNE01.JPG,5,2,52,8,,,,,,,,,,,,,,,,,,,,,,,AMNE05.jpg,AMSA13.jpg,AMSA09.jpg,AMNE03.jpg,AMSA13.jpg,MS,2,num_6,32,num_8,0.633485930506,,,2017_Apr_12_1301,60.0012893879,MAFE4ImagesEEG,001,100159,
AFNE01.JPG,AFNE01.JPG,AFNE01.JPG,AFNE01.JPG,AFNE01.JPG,AFNE01.JPG,5,3,53,4,,,,,,,,,,,,,,,,,,,,,,,AMNE10.jpg,AMSA09.jpg,AMNE14.jpg,AMSA18.jpg,AMSA18.jpg,MS,2,num_4,16,num_4,0.416829148307,,,2017_Apr_12_1301,60.0012893879,MAFE4ImagesEEG,001,100159,
AFNE01.JPG,AFNE01.JPG,AFNE01.JPG,AFNE01.JPG,AFNE01.JPG,AFNE01.JPG,5,4,54,7,,,,,,,,,,,,,,,,,,,,,,,AMSA12.jpg,AMNE03.jpg,AMNE09.jpg,AMSA01.jpg,AMNE03.jpg,MN,1,num_6,32,num_8,0.500136474613,,,2017_Apr_12_1301,60.0012893879,MAFE4ImagesEEG,001,100159,
AFNE01.JPG,AFNE01.JPG,AFNE01.JPG,AFNE01.JPG,AFNE01.JPG,AFNE01.JPG,5,5,55,1,,,,,,,,,,,,,,,,,,,,,,,AMNE06.jpg,AMNE08.jpg,AMSA06.jpg,AMSA12.jpg,AMNE06.jpg,MN,1,num_8,32,num_2,0.366853733081,,,2017_Apr_12_1301,60.0012893879,MAFE4ImagesEEG,001,100159,
AFNE01.JPG,AFNE01.JPG,AFNE01.JPG,AFNE01.JPG,AFNE01.JPG,AFNE01.JPG,5,6,56,5,,,,,,,,,,,,,,,,,,,,,,,AMNE04.jpg,AMNE11.jpg,AMSA18.jpg,AMSA15.jpg,AMNE04.jpg,MN,1,num_8,16,num_8,0.583511477802,,,2017_Apr_12_1301,60.0012893879,MAFE4ImagesEEG,001,100159,
AFNE01.JPG,AFNE01.JPG,AFNE01.JPG,AFNE01.JPG,AFNE01.JPG,AFNE01.JPG,5,7,57,2,,,,,,,,,,,,,,,,,,,,,,,AMNE07.jpg,AMNE08.jpg,AMSA13.jpg,AMSA19.jpg,AMNE08.jpg,MN,1,num_6,32,num_8,0.366786056664,,,2017_Apr_12_1301,60.0012893879,MAFE4ImagesEEG,001,100159,
AFNE01.JPG,AFNE01.JPG,AFNE01.JPG,AFNE01.JPG,AFNE01.JPG,AFNE01.JPG,5,8,58,6,,,,,,,,,,,,,,,,,,,,,,,AMSA20.jpg,AMNE20.jpg,AMNE11.jpg,AMSA04.jpg,AMNE11.jpg,MN,1,num_2,32,num_4,0.43317211885,,,2017_Apr_12_1301,60.0012893879,MAFE4ImagesEEG,001,100159,
AFNE01.JPG,AFNE01.JPG,AFNE01.JPG,AFNE01.JPG,AFNE01.JPG,AFNE01.JPG,5,9,59,0,,,,,,,,,,,,,,,,,,,,,,,AMNE05.jpg,AMSA20.jpg,AMSA07.jpg,AMNE03.jpg,AMNE03.jpg,MN,1,num_4,32,num_8,0.833494397812,,,2017_Apr_12_1301,60.0012893879,MAFE4ImagesEEG,001,100159,
,,,,,,,,,,,,,,,,,,,,,,,,,,,,,,,,,,,,,,,,,,,space,7.68292699335,2017_Apr_12_1301,60.0012893879,MAFE4ImagesEEG,001,100159,
AFNE01.JPG,AFNE01.JPG,AFNE01.JPG,AFNE01.JPG,AFNE01.JPG,AFNE01.JPG,,,,,0,0,0,9,,,,,,,,,,,,,,,,,,,AFSA16.jpg,AFNE14.jpg,AFNE03.jpg,AFSA15.jpg,AFNE14.jpg,FN,3,num_6,32,num_4,4.34980224771,,,2017_Apr_12_1301,60.0012893879,MAFE4ImagesEEG,001,100159,
AFNE01.JPG,AFNE01.JPG,AFNE01.JPG,AFNE01.JPG,AFNE01.JPG,AFNE01.JPG,,,,,0,1,1,6,,,,,,,,,,,,,,,,,,,AFNE06.jpg,AFNE15.jpg,AFSA18.jpg,AFSA19.jpg,AFSA19.jpg,FS,4,num_4,32,num_8,0.483482706826,,,2017_Apr_12_1301,60.0012893879,MAFE4ImagesEEG,001,100159,
AFNE01.JPG,AFNE01.JPG,AFNE01.JPG,AFNE01.JPG,AFNE01.JPG,AFNE01.JPG,,,,,0,2,2,8,,,,,,,,,,,,,,,,,,,AFSA19.jpg,AFNE19.jpg,AFNE11.jpg,AFSA20.jpg,AFNE11.jpg,FN,3,num_2,16,num_2,0.400169927627,,,2017_Apr_12_1301,60.0012893879,MAFE4ImagesEEG,001,100159,
AFNE01.JPG,AFNE01.JPG,AFNE01.JPG,AFNE01.JPG,AFNE01.JPG,AFNE01.JPG,,,,,0,3,3,5,,,,,,,,,,,,,,,,,,,AFNE16.jpg,AFSA19.jpg,AFSA05.jpg,AFNE17.jpg,AFNE16.jpg,FN,3,num_8,32,num_4,0.316854903474,,,2017_Apr_12_1301,60.0012893879,MAFE4ImagesEEG,001,100159,
AFNE01.JPG,AFNE01.JPG,AFNE01.JPG,AFNE01.JPG,AFNE01.JPG,AFNE01.JPG,,,,,0,4,4,3,,,,,,,,,,,,,,,,,,,AFNE04.jpg,AFSA18.jpg,AFSA06.jpg,AFNE14.jpg,AFNE14.jpg,FN,3,num_4,32,num_8,0.283536463045,,,2017_Apr_12_1301,60.0012893879,MAFE4ImagesEEG,001,100159,
AFNE01.JPG,AFNE01.JPG,AFNE01.JPG,AFNE01.JPG,AFNE01.JPG,AFNE01.JPG,,,,,0,5,5,1,,,,,,,,,,,,,,,,,,,AFSA05.jpg,AFNE02.jpg,AFSA17.jpg,AFNE17.jpg,AFSA05.jpg,FS,4,num_8,32,num_6,2.83331863303,,,2017_Apr_12_1301,60.0012893879,MAFE4ImagesEEG,001,100159,
AFNE01.JPG,AFNE01.JPG,AFNE01.JPG,AFNE01.JPG,AFNE01.JPG,AFNE01.JPG,,,,,0,6,6,7,,,,,,,,,,,,,,,,,,,AFNE14.jpg,AFNE15.jpg,AFSA02.jpg,AFSA03.jpg,AFNE15.jpg,FN,3,num_6,32,num_2,0.566766299307,,,2017_Apr_12_1301,60.0012893879,MAFE4ImagesEEG,001,100159,
AFNE01.JPG,AFNE01.JPG,AFNE01.JPG,AFNE01.JPG,AFNE01.JPG,AFNE01.JPG,,,,,0,7,7,4,,,,,,,,,,,,,,,,,,,AFSA20.jpg,AFSA06.jpg,AFNE07.jpg,AFNE13.jpg,AFNE13.jpg,FN,3,num_4,16,num_4,0.0498775895685,,,2017_Apr_12_1301,60.0012893879,MAFE4ImagesEEG,001,100159,
AFNE01.JPG,AFNE01.JPG,AFNE01.JPG,AFNE01.JPG,AFNE01.JPG,AFNE01.JPG,,,,,0,8,8,0,,,,,,,,,,,,,,,,,,,AFSA16.jpg,AFSA12.jpg,AFNE17.jpg,AFNE01.jpg,AFSA12.jpg,FS,4,num_6,32,num_2,0.383497877978,,,2017_Apr_12_1301,60.0012893879,MAFE4ImagesEEG,001,100159,
AFNE01.JPG,AFNE01.JPG,AFNE01.JPG,AFNE01.JPG,AFNE01.JPG,AFNE01.JPG,,,,,0,9,9,2,,,,,,,,,,,,,,,,,,,AFSA20.jpg,AFSA09.jpg,AFNE14.jpg,AFNE08.jpg,AFNE08.jpg,FN,3,num_4,16,num_4,0.466784356628,,,2017_Apr_12_1301,60.0012893879,MAFE4ImagesEEG,001,100159,
AFNE01.JPG,AFNE01.JPG,AFNE01.JPG,AFNE01.JPG,AFNE01.JPG,AFNE01.JPG,,,,,1,0,10,7,,,,,,,,,,,,,,,,,,,AFSA18.jpg,AFSA10.jpg,AFNE04.jpg,AFNE11.jpg,AFNE04.jpg,FN,3,num_2,32,num_8,0.483678358607,,,2017_Apr_12_1301,60.0012893879,MAFE4ImagesEEG,001,100159,
AFNE01.JPG,AFNE01.JPG,AFNE01.JPG,AFNE01.JPG,AFNE01.JPG,AFNE01.JPG,,,,,1,1,11,0,,,,,,,,,,,,,,,,,,,AFNE14.jpg,AFNE07.jpg,AFSA16.jpg,AFSA11.jpg,AFSA11.jpg,FS,4,num_4,16,num_4,0.383469653316,,,2017_Apr_12_1301,60.0012893879,MAFE4ImagesEEG,001,100159,
AFNE01.JPG,AFNE01.JPG,AFNE01.JPG,AFNE01.JPG,AFNE01.JPG,AFNE01.JPG,,,,,1,2,12,1,,,,,,,,,,,,,,,,,,,AFSA15.jpg,AFSA11.jpg,AFNE06.jpg,AFNE12.jpg,AFNE06.jpg,FN,3,num_2,32,num_4,0.250185627956,,,2017_Apr_12_1301,60.0012893879,MAFE4ImagesEEG,001,100159,
AFNE01.JPG,AFNE01.JPG,AFNE01.JPG,AFNE01.JPG,AFNE01.JPG,AFNE01.JPG,,,,,1,3,13,2,,,,,,,,,,,,,,,,,,,AFSA05.jpg,AFNE14.jpg,AFSA01.jpg,AFNE05.jpg,AFSA05.jpg,FS,4,num_8,32,num_4,0.700114792679,,,2017_Apr_12_1301,60.0012893879,MAFE4ImagesEEG,001,100159,
AFNE01.JPG,AFNE01.JPG,AFNE01.JPG,AFNE01.JPG,AFNE01.JPG,AFNE01.JPG,,,,,1,4,14,5,,,,,,,,,,,,,,,,,,,AFSA01.jpg,AFNE01.jpg,AFNE05.jpg,AFSA15.jpg,AFNE05.jpg,FN,3,num_2,32,num_8,0.933287104126,,,2017_Apr_12_1301,60.0012893879,MAFE4ImagesEEG,001,100159,
AFNE01.JPG,AFNE01.JPG,AFNE01.JPG,AFNE01.JPG,AFNE01.JPG,AFNE01.JPG,,,,,1,5,15,6,,,,,,,,,,,,,,,,,,,AFNE02.jpg,AFNE20.jpg,AFSA02.jpg,AFSA14.jpg,AFNE02.jpg,FN,3,num_8,16,num_8,0.550203942228,,,2017_Apr_12_1301,60.0012893879,MAFE4ImagesEEG,001,100159,
AFNE01.JPG,AFNE01.JPG,AFNE01.JPG,AFNE01.JPG,AFNE01.JPG,AFNE01.JPG,,,,,1,6,16,4,,,,,,,,,,,,,,,,,,,AFNE15.jpg,AFNE07.jpg,AFSA17.jpg,AFSA12.jpg,AFNE15.jpg,FN,3,num_8,32,num_4,0.617026210297,,,2017_Apr_12_1301,60.0012893879,MAFE4ImagesEEG,001,100159,
AFNE01.JPG,AFNE01.JPG,AFNE01.JPG,AFNE01.JPG,AFNE01.JPG,AFNE01.JPG,,,,,1,7,17,9,,,,,,,,,,,,,,,,,,,AFSA06.jpg,AFNE20.jpg,AFNE03.jpg,AFSA02.jpg,AFNE03.jpg,FN,3,num_2,32,num_8,0.533521308098,,,2017_Apr_12_1301,60.0012893879,MAFE4ImagesEEG,001,100159,
AFNE01.JPG,AFNE01.JPG,AFNE01.JPG,AFNE01.JPG,AFNE01.JPG,AFNE01.JPG,,,,,1,8,18,3,,,,,,,,,,,,,,,,,,,AFSA14.jpg,AFSA06.jpg,AFNE06.jpg,AFNE13.jpg,AFSA14.jpg,FS,4,num_8,32,num_2,0.466771527193,,,2017_Apr_12_1301,60.0012893879,MAFE4ImagesEEG,001,100159,
AFNE01.JPG,AFNE01.JPG,AFNE01.JPG,AFNE01.JPG,AFNE01.JPG,AFNE01.JPG,,,,,1,9,19,8,,,,,,,,,,,,,,,,,,,AFSA04.jpg,AFNE16.jpg,AFNE12.jpg,AFSA05.jpg,AFNE12.jpg,FN,3,num_2,32,num_8,0.416786168702,,,2017_Apr_12_1301,60.0012893879,MAFE4ImagesEEG,001,100159,
AFNE01.JPG,AFNE01.JPG,AFNE01.JPG,AFNE01.JPG,AFNE01.JPG,AFNE01.JPG,,,,,2,0,20,2,,,,,,,,,,,,,,,,,,,AFNE13.jpg,AFNE12.jpg,AFSA05.jpg,AFSA14.jpg,AFNE12.jpg,FN,3,num_6,32,num_8,1.20011527371,,,2017_Apr_12_1301,60.0012893879,MAFE4ImagesEEG,001,100159,
AFNE01.JPG,AFNE01.JPG,AFNE01.JPG,AFNE01.JPG,AFNE01.JPG,AFNE01.JPG,,,,,2,1,21,8,,,,,,,,,,,,,,,,,,,AFNE04.jpg,AFNE16.jpg,AFSA04.jpg,AFSA12.jpg,AFSA04.jpg,FS,4,num_2,32,num_4,1.01678976137,,,2017_Apr_12_1301,60.0012893879,MAFE4ImagesEEG,001,100159,
AFNE01.JPG,AFNE01.JPG,AFNE01.JPG,AFNE01.JPG,AFNE01.JPG,AFNE01.JPG,,,,,2,2,22,9,,,,,,,,,,,,,,,,,,,AFSA12.jpg,AFNE09.jpg,AFSA08.jpg,AFNE15.jpg,AFSA08.jpg,FS,4,num_2,16,num_2,0.533482819796,,,2017_Apr_12_1301,60.0012893879,MAFE4ImagesEEG,001,100159,
AFNE01.JPG,AFNE01.JPG,AFNE01.JPG,AFNE01.JPG,AFNE01.JPG,AFNE01.JPG,,,,,2,3,23,5,,,,,,,,,,,,,,,,,,,AFSA18.jpg,AFNE06.jpg,AFNE11.jpg,AFSA12.jpg,AFNE06.jpg,FN,3,num_6,32,num_2,0.48351125326,,,2017_Apr_12_1301,60.0012893879,MAFE4ImagesEEG,001,100159,
AFNE01.JPG,AFNE01.JPG,AFNE01.JPG,AFNE01.JPG,AFNE01.JPG,AFNE01.JPG,,,,,2,4,24,7,,,,,,,,,,,,,,,,,,,AFSA07.jpg,AFNE03.jpg,AFSA20.jpg,AFNE15.jpg,AFNE15.jpg,FN,3,num_4,32,num_8,0.433474576566,,,2017_Apr_12_1301,60.0012893879,MAFE4ImagesEEG,001,100159,
AFNE01.JPG,AFNE01.JPG,AFNE01.JPG,AFNE01.JPG,AFNE01.JPG,AFNE01.JPG,,,,,2,5,25,3,,,,,,,,,,,,,,,,,,,AFNE03.jpg,AFSA18.jpg,AFNE02.jpg,AFSA07.jpg,AFSA18.jpg,FS,4,num_6,32,num_4,0.216817152221,,,2017_Apr_12_1301,60.0012893879,MAFE4ImagesEEG,001,100159,
AFNE01.JPG,AFNE01.JPG,AFNE01.JPG,AFNE01.JPG,AFNE01.JPG,AFNE01.JPG,,,,,2,6,26,0,,,,,,,,,,,,,,,,,,,AFSA15.jpg,AFSA06.jpg,AFNE02.jpg,AFNE19.jpg,AFSA06.jpg,FS,4,num_6,32,num_2,0.466794620268,,,2017_Apr_12_1301,60.0012893879,MAFE4ImagesEEG,001,100159,
AFNE01.JPG,AFNE01.JPG,AFNE01.JPG,AFNE01.JPG,AFNE01.JPG,AFNE01.JPG,,,,,2,7,27,6,,,,,,,,,,,,,,,,,,,AFSA08.jpg,AFNE02.jpg,AFNE15.jpg,AFSA10.jpg,AFSA10.jpg,FS,4,num_4,16,num_4,0.716777540743,,,2017_Apr_12_1301,60.0012893879,MAFE4ImagesEEG,001,100159,
AFNE01.JPG,AFNE01.JPG,AFNE01.JPG,AFNE01.JPG,AFNE01.JPG,AFNE01.JPG,,,,,2,8,28,4,,,,,,,,,,,,,,,,,,,AFSA16.jpg,AFNE15.jpg,AFSA15.jpg,AFNE09.jpg,AFSA16.jpg,FS,4,num_8,48,None,,,,2017_Apr_12_1301,60.0012893879,MAFE4ImagesEEG,001,100159,
AFNE01.JPG,AFNE01.JPG,AFNE01.JPG,AFNE01.JPG,AFNE01.JPG,AFNE01.JPG,,,,,2,9,29,1,,,,,,,,,,,,,,,,,,,AFSA16.jpg,AFSA09.jpg,AFNE17.jpg,AFNE14.jpg,AFSA09.jpg,FS,4,num_6,32,num_4,1.63339644438,,,2017_Apr_12_1301,60.0012893879,MAFE4ImagesEEG,001,100159,
AFNE01.JPG,AFNE01.JPG,AFNE01.JPG,AFNE01.JPG,AFNE01.JPG,AFNE01.JPG,,,,,3,0,30,0,,,,,,,,,,,,,,,,,,,AFNE19.jpg,AFSA02.jpg,AFSA05.jpg,AFNE13.jpg,AFSA05.jpg,FS,4,num_2,32,num_8,0.533514893614,,,2017_Apr_12_1301,60.0012893879,MAFE4ImagesEEG,001,100159,
AFNE01.JPG,AFNE01.JPG,AFNE01.JPG,AFNE01.JPG,AFNE01.JPG,AFNE01.JPG,,,,,3,1,31,1,,,,,,,,,,,,,,,,,,,AFSA14.jpg,AFSA09.jpg,AFNE13.jpg,AFNE20.jpg,AFNE20.jpg,FN,3,num_4,32,num_2,0.5001643789,,,2017_Apr_12_1301,60.0012893879,MAFE4ImagesEEG,001,100159,
AFNE01.JPG,AFNE01.JPG,AFNE01.JPG,AFNE01.JPG,AFNE01.JPG,AFNE01.JPG,,,,,3,2,32,4,,,,,,,,,,,,,,,,,,,AFSA09.jpg,AFSA13.jpg,AFNE05.jpg,AFNE18.jpg,AFNE05.jpg,FN,3,num_2,32,num_4,0.4335072916,,,2017_Apr_12_1301,60.0012893879,MAFE4ImagesEEG,001,100159,
AFNE01.JPG,AFNE01.JPG,AFNE01.JPG,AFNE01.JPG,AFNE01.JPG,AFNE01.JPG,,,,,3,3,33,2,,,,,,,,,,,,,,,,,,,AFNE09.jpg,AFSA05.jpg,AFNE18.jpg,AFSA02.jpg,AFSA02.jpg,FS,4,num_4,32,num_6,0.400126948487,,,2017_Apr_12_1301,60.0012893879,MAFE4ImagesEEG,001,100159,
AFNE01.JPG,AFNE01.JPG,AFNE01.JPG,AFNE01.JPG,AFNE01.JPG,AFNE01.JPG,,,,,3,4,34,5,,,,,,,,,,,,,,,,,,,AFNE12.jpg,AFSA09.jpg,AFSA16.jpg,AFNE13.jpg,AFNE12.jpg,FN,3,num_8,16,num_8,0.416872126982,,,2017_Apr_12_1301,60.0012893879,MAFE4ImagesEEG,001,100159,
AFNE01.JPG,AFNE01.JPG,AFNE01.JPG,AFNE01.JPG,AFNE01.JPG,AFNE01.JPG,,,,,3,5,35,9,,,,,,,,,,,,,,,,,,,AFNE19.jpg,AFSA04.jpg,AFNE10.jpg,AFSA14.jpg,AFNE19.jpg,FN,3,num_8,32,num_4,0.283616006374,,,2017_Apr_12_1301,60.0012893879,MAFE4ImagesEEG,001,100159,
AFNE01.JPG,AFNE01.JPG,AFNE01.JPG,AFNE01.JPG,AFNE01.JPG,AFNE01.JPG,,,,,3,6,36,8,,,,,,,,,,,,,,,,,,,AFSA09.jpg,AFSA13.jpg,AFNE14.jpg,AFNE08.jpg,AFSA09.jpg,FS,4,num_8,16,num_8,0.116806985345,,,2017_Apr_12_1301,60.0012893879,MAFE4ImagesEEG,001,100159,
AFNE01.JPG,AFNE01.JPG,AFNE01.JPG,AFNE01.JPG,AFNE01.JPG,AFNE01.JPG,,,,,3,7,37,3,,,,,,,,,,,,,,,,,,,AFNE03.jpg,AFSA08.jpg,AFNE07.jpg,AFSA17.jpg,AFSA08.jpg,FS,4,num_6,32,num_4,2.83328399295,,,2017_Apr_12_1301,60.0012893879,MAFE4ImagesEEG,001,100159,
AFNE01.JPG,AFNE01.JPG,AFNE01.JPG,AFNE01.JPG,AFNE01.JPG,AFNE01.JPG,,,,,3,8,38,7,,,,,,,,,,,,,,,,,,,AFNE19.jpg,AFNE03.jpg,AFSA05.jpg,AFSA06.jpg,AFSA06.jpg,FS,4,num_4,32,num_2,2.15001316648,,,2017_Apr_12_1301,60.0012893879,MAFE4ImagesEEG,001,100159,
AFNE01.JPG,AFNE01.JPG,AFNE01.JPG,AFNE01.JPG,AFNE01.JPG,AFNE01.JPG,,,,,3,9,39,6,,,,,,,,,,,,,,,,,,,AFSA20.jpg,AFNE13.jpg,AFNE05.jpg,AFSA18.jpg,AFSA20.jpg,FS,4,num_8,32,num_4,0.55015551066,,,2017_Apr_12_1301,60.0012893879,MAFE4ImagesEEG,001,100159,
AFNE01.JPG,AFNE01.JPG,AFNE01.JPG,AFNE01.JPG,AFNE01.JPG,AFNE01.JPG,,,,,4,0,40,5,,,,,,,,,,,,,,,,,,,AFSA11.jpg,AFNE19.jpg,AFNE09.jpg,AFSA01.jpg,AFNE09.jpg,FN,3,num_2,32,num_4,0.450196020305,,,2017_Apr_12_1301,60.0012893879,MAFE4ImagesEEG,001,100159,
AFNE01.JPG,AFNE01.JPG,AFNE01.JPG,AFNE01.JPG,AFNE01.JPG,AFNE01.JPG,,,,,4,1,41,7,,,,,,,,,,,,,,,,,,,AFNE15.jpg,AFNE06.jpg,AFSA14.jpg,AFSA17.jpg,AFNE15.jpg,FN,3,num_8,16,num_8,0.300241869409,,,2017_Apr_12_1301,60.0012893879,MAFE4ImagesEEG,001,100159,
AFNE01.JPG,AFNE01.JPG,AFNE01.JPG,AFNE01.JPG,AFNE01.JPG,AFNE01.JPG,,,,,4,2,42,0,,,,,,,,,,,,,,,,,,,AFSA01.jpg,AFNE07.jpg,AFNE09.jpg,AFSA04.jpg,AFSA04.jpg,FS,4,num_4,32,num_8,1.13344279118,,,2017_Apr_12_1301,60.0012893879,MAFE4ImagesEEG,001,100159,
AFNE01.JPG,AFNE01.JPG,AFNE01.JPG,AFNE01.JPG,AFNE01.JPG,AFNE01.JPG,,,,,4,3,43,1,,,,,,,,,,,,,,,,,,,AFSA18.jpg,AFNE15.jpg,AFSA01.jpg,AFNE10.jpg,AFNE10.jpg,FN,3,num_4,32,num_2,0.583541306201,,,2017_Apr_12_1301,60.0012893879,MAFE4ImagesEEG,001,100159,
AFNE01.JPG,AFNE01.JPG,AFNE01.JPG,AFNE01.JPG,AFNE01.JPG,AFNE01.JPG,,,,,4,4,44,3,,,,,,,,,,,,,,,,,,,AFNE02.jpg,AFNE18.jpg,AFSA19.jpg,AFSA17.jpg,AFSA17.jpg,FS,4,num_4,32,num_8,0.300040766131,,,2017_Apr_12_1301,60.0012893879,MAFE4ImagesEEG,001,100159,
AFNE01.JPG,AFNE01.JPG,AFNE01.JPG,AFNE01.JPG,AFNE01.JPG,AFNE01.JPG,,,,,4,5,45,2,,,,,,,,,,,,,,,,,,,AFSA07.jpg,AFNE16.jpg,AFNE08.jpg,AFSA06.jpg,AFNE08.jpg,FN,3,num_2,32,num_6,0.250193325803,,,2017_Apr_12_1301,60.0012893879,MAFE4ImagesEEG,001,100159,
AFNE01.JPG,AFNE01.JPG,AFNE01.JPG,AFNE01.JPG,AFNE01.JPG,AFNE01.JPG,,,,,4,6,46,8,,,,,,,,,,,,,,,,,,,AFNE17.jpg,AFNE05.jpg,AFSA03.jpg,AFSA02.jpg,AFSA02.jpg,FS,4,num_4,16,num_4,0.800165373366,,,2017_Apr_12_1301,60.0012893879,MAFE4ImagesEEG,001,100159,
AFNE01.JPG,AFNE01.JPG,AFNE01.JPG,AFNE01.JPG,AFNE01.JPG,AFNE01.JPG,,,,,4,7,47,6,,,,,,,,,,,,,,,,,,,AFSA03.jpg,AFSA07.jpg,AFNE17.jpg,AFNE12.jpg,AFNE12.jpg,FN,3,num_4,32,num_6,0.450163304806,,,2017_Apr_12_1301,60.0012893879,MAFE4ImagesEEG,001,100159,
AFNE01.JPG,AFNE01.JPG,AFNE01.JPG,AFNE01.JPG,AFNE01.JPG,AFNE01.JPG,,,,,4,8,48,9,,,,,,,,,,,,,,,,,,,AFSA10.jpg,AFSA17.jpg,AFNE10.jpg,AFNE20.jpg,AFNE10.jpg,FN,3,num_2,16,num_2,0.233484390657,,,2017_Apr_12_1301,60.0012893879,MAFE4ImagesEEG,001,100159,
AFNE01.JPG,AFNE01.JPG,AFNE01.JPG,AFNE01.JPG,AFNE01.JPG,AFNE01.JPG,,,,,4,9,49,4,,,,,,,,,,,,,,,,,,,AFNE14.jpg,AFNE04.jpg,AFSA13.jpg,AFSA08.jpg,AFNE04.jpg,FN,3,num_6,32,num_8,0.483460255433,,,2017_Apr_12_1301,60.0012893879,MAFE4ImagesEEG,001,100159,
AFNE01.JPG,AFNE01.JPG,AFNE01.JPG,AFNE01.JPG,AFNE01.JPG,AFNE01.JPG,,,,,5,0,50,9,,,,,,,,,,,,,,,,,,,AFNE14.jpg,AFSA10.jpg,AFNE20.jpg,AFSA19.jpg,AFSA10.jpg,FS,4,num_6,32,num_4,0.633456743322,,,2017_Apr_12_1301,60.0012893879,MAFE4ImagesEEG,001,100159,
AFNE01.JPG,AFNE01.JPG,AFNE01.JPG,AFNE01.JPG,AFNE01.JPG,AFNE01.JPG,,,,,5,1,51,1,,,,,,,,,,,,,,,,,,,AFNE02.jpg,AFSA02.jpg,AFSA15.jpg,AFNE03.jpg,AFNE03.jpg,FN,3,num_4,16,num_4,0.466779866256,,,2017_Apr_12_1301,60.0012893879,MAFE4ImagesEEG,001,100159,
AFNE01.JPG,AFNE01.JPG,AFNE01.JPG,AFNE01.JPG,AFNE01.JPG,AFNE01.JPG,,,,,5,2,52,4,,,,,,,,,,,,,,,,,,,AFSA07.jpg,AFNE11.jpg,AFSA09.jpg,AFNE12.jpg,AFNE12.jpg,FN,3,num_4,32,num_8,0.63351158984,,,2017_Apr_12_1301,60.0012893879,MAFE4ImagesEEG,001,100159,
AFNE01.JPG,AFNE01.JPG,AFNE01.JPG,AFNE01.JPG,AFNE01.JPG,AFNE01.JPG,,,,,5,3,53,3,,,,,,,,,,,,,,,,,,,AFSA04.jpg,AFNE14.jpg,AFNE10.jpg,AFSA01.jpg,AFSA04.jpg,FS,4,num_8,32,num_2,0.316880883183,,,2017_Apr_12_1301,60.0012893879,MAFE4ImagesEEG,001,100159,
AFNE01.JPG,AFNE01.JPG,AFNE01.JPG,AFNE01.JPG,AFNE01.JPG,AFNE01.JPG,,,,,5,4,54,7,,,,,,,,,,,,,,,,,,,AFNE14.jpg,AFSA03.jpg,AFSA01.jpg,AFNE17.jpg,AFNE14.jpg,FN,3,num_8,32,num_4,0.40015485324,,,2017_Apr_12_1301,60.0012893879,MAFE4ImagesEEG,001,100159,
AFNE01.JPG,AFNE01.JPG,AFNE01.JPG,AFNE01.JPG,AFNE01.JPG,AFNE01.JPG,,,,,5,5,55,8,,,,,,,,,,,,,,,,,,,AFSA08.jpg,AFNE15.jpg,AFNE14.jpg,AFSA15.jpg,AFNE15.jpg,FN,3,num_6,32,num_8,0.400170248933,,,2017_Apr_12_1301,60.0012893879,MAFE4ImagesEEG,001,100159,
AFNE01.JPG,AFNE01.JPG,AFNE01.JPG,AFNE01.JPG,AFNE01.JPG,AFNE01.JPG,,,,,5,6,56,5,,,,,,,,,,,,,,,,,,,AFNE05.jpg,AFSA19.jpg,AFSA07.jpg,AFNE07.jpg,AFSA19.jpg,FS,4,num_6,32,num_8,0.533511686139,,,2017_Apr_12_1301,60.0012893879,MAFE4ImagesEEG,001,100159,
AFNE01.JPG,AFNE01.JPG,AFNE01.JPG,AFNE01.JPG,AFNE01.JPG,AFNE01.JPG,,,,,5,7,57,6,,,,,,,,,,,,,,,,,,,AFSA08.jpg,AFNE09.jpg,AFNE10.jpg,AFSA20.jpg,AFNE09.jpg,FN,3,num_6,32,num_4,0.266878205352,,,2017_Apr_12_1301,60.0012893879,MAFE4ImagesEEG,001,100159,
AFNE01.JPG,AFNE01.JPG,AFNE01.JPG,AFNE01.JPG,AFNE01.JPG,AFNE01.JPG,,,,,5,8,58,0,,,,,,,,,,,,,,,,,,,AFSA19.jpg,AFSA07.jpg,AFNE07.jpg,AFNE02.jpg,AFNE02.jpg,FN,3,num_4,48,None,,,,2017_Apr_12_1301,60.0012893879,MAFE4ImagesEEG,001,100159,
AFNE01.JPG,AFNE01.JPG,AFNE01.JPG,AFNE01.JPG,AFNE01.JPG,AFNE01.JPG,,,,,5,9,59,2,,,,,,,,,,,,,,,,,,,AFNE19.jpg,AFSA13.jpg,AFSA02.jpg,AFNE20.jpg,AFSA02.jpg,FS,4,num_2,32,num_4,0.883488416672,,,2017_Apr_12_1301,60.0012893879,MAFE4ImagesEEG,001,100159,
,,,,,,,,,,,,,,,,,,,,,,,,,,,,,,,,,,,,,,,,,,,space,3.03329085698,2017_Apr_12_1301,60.0012893879,MAFE4ImagesEEG,001,100159,
AFNE01.JPG,AFNE01.JPG,AFNE01.JPG,AFNE01.JPG,AFNE01.JPG,AFNE01.JPG,,,,,,,,,0,0,0,5,,,,,,,,,,,,,,,AMSA13.jpg,AMNE01.jpg,AMSA20.jpg,AMNE06.jpg,AMSA13.jpg,MS,2,num_8,32,num_4,0.416777187958,,,2017_Apr_12_1301,60.0012893879,MAFE4ImagesEEG,001,100159,
AFNE01.JPG,AFNE01.JPG,AFNE01.JPG,AFNE01.JPG,AFNE01.JPG,AFNE01.JPG,,,,,,,,,0,1,1,4,,,,,,,,,,,,,,,AMNE15.jpg,AMSA01.jpg,AMNE09.jpg,AMSA16.jpg,AMSA01.jpg,MS,2,num_6,32,num_8,0.383525140584,,,2017_Apr_12_1301,60.0012893879,MAFE4ImagesEEG,001,100159,
AFNE01.JPG,AFNE01.JPG,AFNE01.JPG,AFNE01.JPG,AFNE01.JPG,AFNE01.JPG,,,,,,,,,0,2,2,8,,,,,,,,,,,,,,,AMSA17.jpg,AMNE02.jpg,AMSA16.jpg,AMNE01.jpg,AMSA17.jpg,MS,2,num_8,32,num_6,3.84990889393,,,2017_Apr_12_1301,60.0012893879,MAFE4ImagesEEG,001,100159,
AFNE01.JPG,AFNE01.JPG,AFNE01.JPG,AFNE01.JPG,AFNE01.JPG,AFNE01.JPG,,,,,,,,,0,3,3,7,,,,,,,,,,,,,,,AMNE07.jpg,AMNE16.jpg,AMSA06.jpg,AMSA14.jpg,AMSA06.jpg,MS,2,num_2,32,num_4,0.816759482957,,,2017_Apr_12_1301,60.0012893879,MAFE4ImagesEEG,001,100159,
AFNE01.JPG,AFNE01.JPG,AFNE01.JPG,AFNE01.JPG,AFNE01.JPG,AFNE01.JPG,,,,,,,,,0,4,4,6,,,,,,,,,,,,,,,AMSA14.jpg,AMNE18.jpg,AMSA17.jpg,AMNE08.jpg,AMSA17.jpg,MS,2,num_2,32,num_6,0.583508911543,,,2017_Apr_12_1301,60.0012893879,MAFE4ImagesEEG,001,100159,
AFNE01.JPG,AFNE01.JPG,AFNE01.JPG,AFNE01.JPG,AFNE01.JPG,AFNE01.JPG,,,,,,,,,0,5,5,0,,,,,,,,,,,,,,,AMSA15.jpg,AMNE18.jpg,AMSA20.jpg,AMNE03.jpg,AMNE18.jpg,MN,1,num_6,32,num_8,0.216822925955,,,2017_Apr_12_1301,60.0012893879,MAFE4ImagesEEG,001,100159,
AFNE01.JPG,AFNE01.JPG,AFNE01.JPG,AFNE01.JPG,AFNE01.JPG,AFNE01.JPG,,,,,,,,,0,6,6,1,,,,,,,,,,,,,,,AMSA02.jpg,AMSA13.jpg,AMNE19.jpg,AMNE18.jpg,AMSA13.jpg,MS,2,num_6,32,num_4,0.450107495766,,,2017_Apr_12_1301,60.0012893879,MAFE4ImagesEEG,001,100159,
AFNE01.JPG,AFNE01.JPG,AFNE01.JPG,AFNE01.JPG,AFNE01.JPG,AFNE01.JPG,,,,,,,,,0,7,7,3,,,,,,,,,,,,,,,AMNE18.jpg,AMSA19.jpg,AMSA17.jpg,AMNE17.jpg,AMSA19.jpg,MS,2,num_6,32,num_2,0.316867732909,,,2017_Apr_12_1301,60.0012893879,MAFE4ImagesEEG,001,100159,
AFNE01.JPG,AFNE01.JPG,AFNE01.JPG,AFNE01.JPG,AFNE01.JPG,AFNE01.JPG,,,,,,,,,0,8,8,9,,,,,,,,,,,,,,,AMNE02.jpg,AMNE05.jpg,AMSA20.jpg,AMSA19.jpg,AMNE05.jpg,MN,1,num_6,32,num_4,0.550281240605,,,2017_Apr_12_1301,60.0012893879,MAFE4ImagesEEG,001,100159,
AFNE01.JPG,AFNE01.JPG,AFNE01.JPG,AFNE01.JPG,AFNE01.JPG,AFNE01.JPG,,,,,,,,,0,9,9,2,,,,,,,,,,,,,,,AMSA06.jpg,AMSA15.jpg,AMNE09.jpg,AMNE11.jpg,AMSA06.jpg,MS,2,num_8,32,num_4,0.316897882614,,,2017_Apr_12_1301,60.0012893879,MAFE4ImagesEEG,001,100159,
AFNE01.JPG,AFNE01.JPG,AFNE01.JPG,AFNE01.JPG,AFNE01.JPG,AFNE01.JPG,,,,,,,,,1,0,10,7,,,,,,,,,,,,,,,AMNE15.jpg,AMNE19.jpg,AMSA18.jpg,AMSA13.jpg,AMNE19.jpg,MN,1,num_6,32,num_8,0.233503635507,,,2017_Apr_12_1301,60.0012893879,MAFE4ImagesEEG,001,100159,
AFNE01.JPG,AFNE01.JPG,AFNE01.JPG,AFNE01.JPG,AFNE01.JPG,AFNE01.JPG,,,,,,,,,1,1,11,5,,,,,,,,,,,,,,,AMNE18.jpg,AMSA14.jpg,AMNE06.jpg,AMSA03.jpg,AMNE06.jpg,MN,1,num_2,32,num_6,0.333523425274,,,2017_Apr_12_1301,60.0012893879,MAFE4ImagesEEG,001,100159,
AFNE01.JPG,AFNE01.JPG,AFNE01.JPG,AFNE01.JPG,AFNE01.JPG,AFNE01.JPG,,,,,,,,,1,2,12,2,,,,,,,,,,,,,,,AMNE17.jpg,AMNE02.jpg,AMSA13.jpg,AMSA16.jpg,AMNE17.jpg,MN,1,num_8,32,num_4,0.283482899424,,,2017_Apr_12_1301,60.0012893879,MAFE4ImagesEEG,001,100159,
AFNE01.JPG,AFNE01.JPG,AFNE01.JPG,AFNE01.JPG,AFNE01.JPG,AFNE01.JPG,,,,,,,,,1,3,13,1,,,,,,,,,,,,,,,AMSA04.jpg,AMNE09.jpg,AMNE20.jpg,AMSA01.jpg,AMNE09.jpg,MN,1,num_6,32,num_4,0.383852936793,,,2017_Apr_12_1301,60.0012893879,MAFE4ImagesEEG,001,100159,
AFNE01.JPG,AFNE01.JPG,AFNE01.JPG,AFNE01.JPG,AFNE01.JPG,AFNE01.JPG,,,,,,,,,1,4,14,3,,,,,,,,,,,,,,,AMSA16.jpg,AMNE03.jpg,AMSA14.jpg,AMNE01.jpg,AMNE01.jpg,MN,1,num_4,16,num_4,0.316846243571,,,2017_Apr_12_1301,60.0012893879,MAFE4ImagesEEG,001,100159,
AFNE01.JPG,AFNE01.JPG,AFNE01.JPG,AFNE01.JPG,AFNE01.JPG,AFNE01.JPG,,,,,,,,,1,5,15,8,,,,,,,,,,,,,,,AMNE16.jpg,AMSA15.jpg,AMSA08.jpg,AMNE14.jpg,AMNE14.jpg,MN,1,num_4,32,num_8,0.366799527779,,,2017_Apr_12_1301,60.0012893879,MAFE4ImagesEEG,001,100159,
AFNE01.JPG,AFNE01.JPG,AFNE01.JPG,AFNE01.JPG,AFNE01.JPG,AFNE01.JPG,,,,,,,,,1,6,16,9,,,,,,,,,,,,,,,AMNE19.jpg,AMSA15.jpg,AMSA18.jpg,AMNE17.jpg,AMNE17.jpg,MN,1,num_4,32,num_6,0.516825844534,,,2017_Apr_12_1301,60.0012893879,MAFE4ImagesEEG,001,100159,
AFNE01.JPG,AFNE01.JPG,AFNE01.JPG,AFNE01.JPG,AFNE01.JPG,AFNE01.JPG,,,,,,,,,1,7,17,6,,,,,,,,,,,,,,,AMNE11.jpg,AMSA06.jpg,AMNE07.jpg,AMSA19.jpg,AMSA19.jpg,MS,2,num_4,32,num_2,1.5834659324,,,2017_Apr_12_1301,60.0012893879,MAFE4ImagesEEG,001,100159,
AFNE01.JPG,AFNE01.JPG,AFNE01.JPG,AFNE01.JPG,AFNE01.JPG,AFNE01.JPG,,,,,,,,,1,8,18,0,,,,,,,,,,,,,,,AMNE16.jpg,AMSA20.jpg,AMNE05.jpg,AMSA15.jpg,AMSA15.jpg,MS,2,num_4,16,num_4,0.416807658505,,,2017_Apr_12_1301,60.0012893879,MAFE4ImagesEEG,001,100159,
AFNE01.JPG,AFNE01.JPG,AFNE01.JPG,AFNE01.JPG,AFNE01.JPG,AFNE01.JPG,,,,,,,,,1,9,19,4,,,,,,,,,,,,,,,AMNE05.jpg,AMSA16.jpg,AMNE19.jpg,AMSA12.jpg,AMSA12.jpg,MS,2,num_4,32,num_6,0.383468369953,,,2017_Apr_12_1301,60.0012893879,MAFE4ImagesEEG,001,100159,
AFNE01.JPG,AFNE01.JPG,AFNE01.JPG,AFNE01.JPG,AFNE01.JPG,AFNE01.JPG,,,,,,,,,2,0,20,8,,,,,,,,,,,,,,,AMSA15.jpg,AMSA19.jpg,AMNE15.jpg,AMNE09.jpg,AMNE15.jpg,MN,1,num_2,32,num_8,0.40039701201,,,2017_Apr_12_1301,60.0012893879,MAFE4ImagesEEG,001,100159,
AFNE01.JPG,AFNE01.JPG,AFNE01.JPG,AFNE01.JPG,AFNE01.JPG,AFNE01.JPG,,,,,,,,,2,1,21,9,,,,,,,,,,,,,,,AMNE13.jpg,AMNE20.jpg,AMSA12.jpg,AMSA08.jpg,AMNE13.jpg,MN,1,num_8,32,num_2,0.400119571947,,,2017_Apr_12_1301,60.0012893879,MAFE4ImagesEEG,001,100159,
AFNE01.JPG,AFNE01.JPG,AFNE01.JPG,AFNE01.JPG,AFNE01.JPG,AFNE01.JPG,,,,,,,,,2,2,22,4,,,,,,,,,,,,,,,AMSA19.jpg,AMNE11.jpg,AMNE09.jpg,AMSA02.jpg,AMSA02.jpg,MS,2,num_4,16,num_4,0.316795887426,,,2017_Apr_12_1301,60.0012893879,MAFE4ImagesEEG,001,100159,
AFNE01.JPG,AFNE01.JPG,AFNE01.JPG,AFNE01.JPG,AFNE01.JPG,AFNE01.JPG,,,,,,,,,2,3,23,3,,,,,,,,,,,,,,,AMSA01.jpg,AMNE08.jpg,AMNE16.jpg,AMSA07.jpg,AMSA07.jpg,MS,2,num_4,16,num_4,0.633509023581,,,2017_Apr_12_1301,60.0012893879,MAFE4ImagesEEG,001,100159,
AFNE01.JPG,AFNE01.JPG,AFNE01.JPG,AFNE01.JPG,AFNE01.JPG,AFNE01.JPG,,,,,,,,,2,4,24,0,,,,,,,,,,,,,,,AMNE05.jpg,AMSA14.jpg,AMSA06.jpg,AMNE09.jpg,AMNE09.jpg,MN,1,num_4,32,num_8,0.450157210696,,,2017_Apr_12_1301,60.0012893879,MAFE4ImagesEEG,001,100159,
AFNE01.JPG,AFNE01.JPG,AFNE01.JPG,AFNE01.JPG,AFNE01.JPG,AFNE01.JPG,,,,,,,,,2,5,25,5,,,,,,,,,,,,,,,AMNE18.jpg,AMSA19.jpg,AMSA11.jpg,AMNE03.jpg,AMSA11.jpg,MS,2,num_2,16,num_2,0.350199644454,,,2017_Apr_12_1301,60.0012893879,MAFE4ImagesEEG,001,100159,
AFNE01.JPG,AFNE01.JPG,AFNE01.JPG,AFNE01.JPG,AFNE01.JPG,AFNE01.JPG,,,,,,,,,2,6,26,2,,,,,,,,,,,,,,,AMNE18.jpg,AMNE09.jpg,AMSA03.jpg,AMSA20.jpg,AMSA20.jpg,MS,2,num_4,32,num_8,0.500124928076,,,2017_Apr_12_1301,60.0012893879,MAFE4ImagesEEG,001,100159,
AFNE01.JPG,AFNE01.JPG,AFNE01.JPG,AFNE01.JPG,AFNE01.JPG,AFNE01.JPG,,,,,,,,,2,7,27,6,,,,,,,,,,,,,,,AMSA06.jpg,AMNE16.jpg,AMSA13.jpg,AMNE08.jpg,AMSA06.jpg,MS,2,num_8,32,num_4,0.366807546467,,,2017_Apr_12_1301,60.0012893879,MAFE4ImagesEEG,001,100159,
AFNE01.JPG,AFNE01.JPG,AFNE01.JPG,AFNE01.JPG,AFNE01.JPG,AFNE01.JPG,,,,,,,,,2,8,28,1,,,,,,,,,,,,,,,AMNE16.jpg,AMNE13.jpg,AMSA15.jpg,AMSA14.jpg,AMNE13.jpg,MN,1,num_6,16,num_6,0.300170665607,,,2017_Apr_12_1301,60.0012893879,MAFE4ImagesEEG,001,100159,
AFNE01.JPG,AFNE01.JPG,AFNE01.JPG,AFNE01.JPG,AFNE01.JPG,AFNE01.JPG,,,,,,,,,2,9,29,7,,,,,,,,,,,,,,,AMSA13.jpg,AMSA14.jpg,AMNE09.jpg,AMNE06.jpg,AMSA14.jpg,MS,2,num_6,32,num_4,0.366566670593,,,2017_Apr_12_1301,60.0012893879,MAFE4ImagesEEG,001,100159,
AFNE01.JPG,AFNE01.JPG,AFNE01.JPG,AFNE01.JPG,AFNE01.JPG,AFNE01.JPG,,,,,,,,,3,0,30,4,,,,,,,,,,,,,,,AMSA10.jpg,AMNE07.jpg,AMNE19.jpg,AMSA15.jpg,AMNE07.jpg,MN,1,num_6,32,num_8,0.500116909388,,,2017_Apr_12_1301,60.0012893879,MAFE4ImagesEEG,001,100159,
AFNE01.JPG,AFNE01.JPG,AFNE01.JPG,AFNE01.JPG,AFNE01.JPG,AFNE01.JPG,,,,,,,,,3,1,31,9,,,,,,,,,,,,,,,AMSA20.jpg,AMNE02.jpg,AMSA18.jpg,AMNE12.jpg,AMNE02.jpg,MN,1,num_6,32,num_4,0.833338518627,,,2017_Apr_12_1301,60.0012893879,MAFE4ImagesEEG,001,100159,
AFNE01.JPG,AFNE01.JPG,AFNE01.JPG,AFNE01.JPG,AFNE01.JPG,AFNE01.JPG,,,,,,,,,3,2,32,2,,,,,,,,,,,,,,,AMNE20.jpg,AMSA19.jpg,AMNE11.jpg,AMSA18.jpg,AMNE20.jpg,MN,1,num_8,32,num_4,0.566875029821,,,2017_Apr_12_1301,60.0012893879,MAFE4ImagesEEG,001,100159,
AFNE01.JPG,AFNE01.JPG,AFNE01.JPG,AFNE01.JPG,AFNE01.JPG,AFNE01.JPG,,,,,,,,,3,3,33,3,,,,,,,,,,,,,,,AMNE15.jpg,AMSA12.jpg,AMNE07.jpg,AMSA10.jpg,AMSA10.jpg,MS,2,num_4,16,num_4,0.666783522815,,,2017_Apr_12_1301,60.0012893879,MAFE4ImagesEEG,001,100159,
AFNE01.JPG,AFNE01.JPG,AFNE01.JPG,AFNE01.JPG,AFNE01.JPG,AFNE01.JPG,,,,,,,,,3,4,34,0,,,,,,,,,,,,,,,AMNE01.jpg,AMSA14.jpg,AMNE18.jpg,AMSA10.jpg,AMSA14.jpg,MS,2,num_6,16,num_6,0.400190775748,,,2017_Apr_12_1301,60.0012893879,MAFE4ImagesEEG,001,100159,
AFNE01.JPG,AFNE01.JPG,AFNE01.JPG,AFNE01.JPG,AFNE01.JPG,AFNE01.JPG,,,,,,,,,3,5,35,1,,,,,,,,,,,,,,,AMNE11.jpg,AMNE02.jpg,AMSA11.jpg,AMSA01.jpg,AMSA11.jpg,MS,2,num_2,32,num_8,0.383497877978,,,2017_Apr_12_1301,60.0012893879,MAFE4ImagesEEG,001,100159,
AFNE01.JPG,AFNE01.JPG,AFNE01.JPG,AFNE01.JPG,AFNE01.JPG,AFNE01.JPG,,,,,,,,,3,6,36,6,,,,,,,,,,,,,,,AMNE11.jpg,AMSA14.jpg,AMSA15.jpg,AMNE16.jpg,AMNE11.jpg,MN,1,num_8,16,num_8,0.516835466493,,,2017_Apr_12_1301,60.0012893879,MAFE4ImagesEEG,001,100159,
AFNE01.JPG,AFNE01.JPG,AFNE01.JPG,AFNE01.JPG,AFNE01.JPG,AFNE01.JPG,,,,,,,,,3,7,37,7,,,,,,,,,,,,,,,AMNE15.jpg,AMSA10.jpg,AMSA20.jpg,AMNE10.jpg,AMNE10.jpg,MN,1,num_4,16,num_4,0.500135833398,,,2017_Apr_12_1301,60.0012893879,MAFE4ImagesEEG,001,100159,
AFNE01.JPG,AFNE01.JPG,AFNE01.JPG,AFNE01.JPG,AFNE01.JPG,AFNE01.JPG,,,,,,,,,3,8,38,8,,,,,,,,,,,,,,,AMNE12.jpg,AMNE01.jpg,AMSA14.jpg,AMSA18.jpg,AMSA14.jpg,MS,2,num_2,32,num_6,0.383492105175,,,2017_Apr_12_1301,60.0012893879,MAFE4ImagesEEG,001,100159,
AFNE01.JPG,AFNE01.JPG,AFNE01.JPG,AFNE01.JPG,AFNE01.JPG,AFNE01.JPG,,,,,,,,,3,9,39,5,,,,,,,,,,,,,,,AMNE04.jpg,AMSA10.jpg,AMSA14.jpg,AMNE15.jpg,AMSA14.jpg,MS,2,num_2,16,num_2,0.383500123397,,,2017_Apr_12_1301,60.0012893879,MAFE4ImagesEEG,001,100159,
AFNE01.JPG,AFNE01.JPG,AFNE01.JPG,AFNE01.JPG,AFNE01.JPG,AFNE01.JPG,,,,,,,,,4,0,40,2,,,,,,,,,,,,,,,AMNE03.jpg,AMNE20.jpg,AMSA18.jpg,AMSA05.jpg,AMNE20.jpg,MN,1,num_6,32,num_4,0.333508671261,,,2017_Apr_12_1301,60.0012893879,MAFE4ImagesEEG,001,100159,
AFNE01.JPG,AFNE01.JPG,AFNE01.JPG,AFNE01.JPG,AFNE01.JPG,AFNE01.JPG,,,,,,,,,4,1,41,5,,,,,,,,,,,,,,,AMNE20.jpg,AMSA19.jpg,AMNE11.jpg,AMSA17.jpg,AMNE11.jpg,MN,1,num_2,32,num_8,1.60006485367,,,2017_Apr_12_1301,60.0012893879,MAFE4ImagesEEG,001,100159,
AFNE01.JPG,AFNE01.JPG,AFNE01.JPG,AFNE01.JPG,AFNE01.JPG,AFNE01.JPG,,,,,,,,,4,2,42,3,,,,,,,,,,,,,,,AMSA12.jpg,AMSA13.jpg,AMNE17.jpg,AMNE15.jpg,AMNE17.jpg,MN,1,num_2,32,num_4,0.416830752045,,,2017_Apr_12_1301,60.0012893879,MAFE4ImagesEEG,001,100159,
AFNE01.JPG,AFNE01.JPG,AFNE01.JPG,AFNE01.JPG,AFNE01.JPG,AFNE01.JPG,,,,,,,,,4,3,43,4,,,,,,,,,,,,,,,AMNE02.jpg,AMNE18.jpg,AMSA01.jpg,AMSA14.jpg,AMNE18.jpg,MN,1,num_6,32,num_8,0.383493067231,,,2017_Apr_12_1301,60.0012893879,MAFE4ImagesEEG,001,100159,
AFNE01.JPG,AFNE01.JPG,AFNE01.JPG,AFNE01.JPG,AFNE01.JPG,AFNE01.JPG,,,,,,,,,4,4,44,1,,,,,,,,,,,,,,,AMNE18.jpg,AMNE01.jpg,AMSA16.jpg,AMSA18.jpg,AMSA18.jpg,MS,2,num_4,32,num_2,0.433471048251,,,2017_Apr_12_1301,60.0012893879,MAFE4ImagesEEG,001,100159,
AFNE01.JPG,AFNE01.JPG,AFNE01.JPG,AFNE01.JPG,AFNE01.JPG,AFNE01.JPG,,,,,,,,,4,5,45,6,,,,,,,,,,,,,,,AMSA16.jpg,AMNE18.jpg,AMSA12.jpg,AMNE19.jpg,AMSA12.jpg,MS,2,num_2,32,num_4,0.283448259812,,,2017_Apr_12_1301,60.0012893879,MAFE4ImagesEEG,001,100159,
AFNE01.JPG,AFNE01.JPG,AFNE01.JPG,AFNE01.JPG,AFNE01.JPG,AFNE01.JPG,,,,,,,,,4,6,46,7,,,,,,,,,,,,,,,AMSA18.jpg,AMSA08.jpg,AMNE12.jpg,AMNE15.jpg,AMSA18.jpg,MS,2,num_8,32,num_6,0.483541082125,,,2017_Apr_12_1301,60.0012893879,MAFE4ImagesEEG,001,100159,
AFNE01.JPG,AFNE01.JPG,AFNE01.JPG,AFNE01.JPG,AFNE01.JPG,AFNE01.JPG,,,,,,,,,4,7,47,0,,,,,,,,,,,,,,,AMSA05.jpg,AMNE17.jpg,AMSA17.jpg,AMNE02.jpg,AMNE17.jpg,MN,1,num_6,32,num_4,0.36695284117,,,2017_Apr_12_1301,60.0012893879,MAFE4ImagesEEG,001,100159,
AFNE01.JPG,AFNE01.JPG,AFNE01.JPG,AFNE01.JPG,AFNE01.JPG,AFNE01.JPG,,,,,,,,,4,8,48,9,,,,,,,,,,,,,,,AMSA14.jpg,AMNE15.jpg,AMSA19.jpg,AMNE05.jpg,AMSA14.jpg,MS,2,num_8,32,num_2,0.533486347646,,,2017_Apr_12_1301,60.0012893879,MAFE4ImagesEEG,001,100159,
AFNE01.JPG,AFNE01.JPG,AFNE01.JPG,AFNE01.JPG,AFNE01.JPG,AFNE01.JPG,,,,,,,,,4,9,49,8,,,,,,,,,,,,,,,AMSA04.jpg,AMNE14.jpg,AMNE13.jpg,AMSA17.jpg,AMSA17.jpg,MS,2,num_4,32,num_6,0.0501502184197,,,2017_Apr_12_1301,60.0012893879,MAFE4ImagesEEG,001,100159,
AFNE01.JPG,AFNE01.JPG,AFNE01.JPG,AFNE01.JPG,AFNE01.JPG,AFNE01.JPG,,,,,,,,,5,0,50,0,,,,,,,,,,,,,,,AMNE08.jpg,AMSA11.jpg,AMSA03.jpg,AMNE14.jpg,AMSA03.jpg,MS,2,num_2,32,num_4,0.750132224988,,,2017_Apr_12_1301,60.0012893879,MAFE4ImagesEEG,001,100159,
AFNE01.JPG,AFNE01.JPG,AFNE01.JPG,AFNE01.JPG,AFNE01.JPG,AFNE01.JPG,,,,,,,,,5,1,51,3,,,,,,,,,,,,,,,AMNE06.jpg,AMSA09.jpg,AMSA15.jpg,AMNE13.jpg,AMNE06.jpg,MN,1,num_8,16,num_8,0.183541049715,,,2017_Apr_12_1301,60.0012893879,MAFE4ImagesEEG,001,100159,
AFNE01.JPG,AFNE01.JPG,AFNE01.JPG,AFNE01.JPG,AFNE01.JPG,AFNE01.JPG,,,,,,,,,5,2,52,6,,,,,,,,,,,,,,,AMNE16.jpg,AMSA07.jpg,AMNE11.jpg,AMSA16.jpg,AMSA16.jpg,MS,2,num_4,32,num_8,0.283494766802,,,2017_Apr_12_1301,60.0012893879,MAFE4ImagesEEG,001,100159,
AFNE01.JPG,AFNE01.JPG,AFNE01.JPG,AFNE01.JPG,AFNE01.JPG,AFNE01.JPG,,,,,,,,,5,3,53,2,,,,,,,,,,,,,,,AMSA02.jpg,AMNE20.jpg,AMSA19.jpg,AMNE05.jpg,AMNE05.jpg,MN,1,num_4,32,num_6,0.483424011618,,,2017_Apr_12_1301,60.0012893879,MAFE4ImagesEEG,001,100159,
AFNE01.JPG,AFNE01.JPG,AFNE01.JPG,AFNE01.JPG,AFNE01.JPG,AFNE01.JPG,,,,,,,,,5,4,54,8,,,,,,,,,,,,,,,AMNE18.jpg,AMNE07.jpg,AMSA12.jpg,AMSA02.jpg,AMSA02.jpg,MS,2,num_4,16,num_4,2.40003040619,,,2017_Apr_12_1301,60.0012893879,MAFE4ImagesEEG,001,100159,
AFNE01.JPG,AFNE01.JPG,AFNE01.JPG,AFNE01.JPG,AFNE01.JPG,AFNE01.JPG,,,,,,,,,5,5,55,9,,,,,,,,,,,,,,,AMSA19.jpg,AMSA08.jpg,AMNE04.jpg,AMNE17.jpg,AMSA08.jpg,MS,2,num_6,32,num_4,0.51674373541,,,2017_Apr_12_1301,60.0012893879,MAFE4ImagesEEG,001,100159,
AFNE01.JPG,AFNE01.JPG,AFNE01.JPG,AFNE01.JPG,AFNE01.JPG,AFNE01.JPG,,,,,,,,,5,6,56,7,,,,,,,,,,,,,,,AMNE14.jpg,AMSA12.jpg,AMNE07.jpg,AMSA15.jpg,AMNE07.jpg,MN,1,num_2,32,num_4,0.450375313405,,,2017_Apr_12_1301,60.0012893879,MAFE4ImagesEEG,001,100159,
AFNE01.JPG,AFNE01.JPG,AFNE01.JPG,AFNE01.JPG,AFNE01.JPG,AFNE01.JPG,,,,,,,,,5,7,57,1,,,,,,,,,,,,,,,AMSA19.jpg,AMNE17.jpg,AMSA07.jpg,AMNE03.jpg,AMNE17.jpg,MN,1,num_6,32,num_2,0.333566083573,,,2017_Apr_12_1301,60.0012893879,MAFE4ImagesEEG,001,100159,
AFNE01.JPG,AFNE01.JPG,AFNE01.JPG,AFNE01.JPG,AFNE01.JPG,AFNE01.JPG,,,,,,,,,5,8,58,5,,,,,,,,,,,,,,,AMNE13.jpg,AMSA05.jpg,AMNE16.jpg,AMSA06.jpg,AMNE16.jpg,MN,1,num_2,32,num_8,0.350148005411,,,2017_Apr_12_1301,60.0012893879,MAFE4ImagesEEG,001,100159,
AFNE01.JPG,AFNE01.JPG,AFNE01.JPG,AFNE01.JPG,AFNE01.JPG,AFNE01.JPG,,,,,,,,,5,9,59,4,,,,,,,,,,,,,,,AMNE12.jpg,AMSA04.jpg,AMNE09.jpg,AMSA06.jpg,AMNE12.jpg,MN,1,num_8,32,num_4,0.466874805279,,,2017_Apr_12_1301,60.0012893879,MAFE4ImagesEEG,001,100159,
,,,,,,,,,,,,,,,,,,,,,,,,,,,,,,,,,,,,,,,,,,,space,11.3659720193,2017_Apr_12_1301,60.0012893879,MAFE4ImagesEEG,001,100159,
AFNE01.JPG,AFNE01.JPG,AFNE01.JPG,AFNE01.JPG,AFNE01.JPG,AFNE01.JPG,,,,,,,,,,,,,0,0,0,1,,,,,,,,,,,AFSA14.jpg,AFNE13.jpg,AFNE16.jpg,AFSA02.jpg,AFNE16.jpg,FN,3,num_2,32,num_4,0.366838337388,,,2017_Apr_12_1301,60.0012893879,MAFE4ImagesEEG,001,100159,
AFNE01.JPG,AFNE01.JPG,AFNE01.JPG,AFNE01.JPG,AFNE01.JPG,AFNE01.JPG,,,,,,,,,,,,,0,1,1,3,,,,,,,,,,,AFSA13.jpg,AFSA07.jpg,AFNE07.jpg,AFNE16.jpg,AFSA07.jpg,FS,4,num_6,32,num_8,0.500164058525,,,2017_Apr_12_1301,60.0012893879,MAFE4ImagesEEG,001,100159,
AFNE01.JPG,AFNE01.JPG,AFNE01.JPG,AFNE01.JPG,AFNE01.JPG,AFNE01.JPG,,,,,,,,,,,,,0,2,2,6,,,,,,,,,,,AFSA17.jpg,AFNE16.jpg,AFNE04.jpg,AFSA13.jpg,AFNE16.jpg,FN,3,num_6,32,num_2,0.300129931886,,,2017_Apr_12_1301,60.0012893879,MAFE4ImagesEEG,001,100159,
AFNE01.JPG,AFNE01.JPG,AFNE01.JPG,AFNE01.JPG,AFNE01.JPG,AFNE01.JPG,,,,,,,,,,,,,0,3,3,0,,,,,,,,,,,AFNE10.jpg,AFSA02.jpg,AFNE09.jpg,AFSA10.jpg,AFSA10.jpg,FS,4,num_4,16,num_4,3.01631731121,,,2017_Apr_12_1301,60.0012893879,MAFE4ImagesEEG,001,100159,
AFNE01.JPG,AFNE01.JPG,AFNE01.JPG,AFNE01.JPG,AFNE01.JPG,AFNE01.JPG,,,,,,,,,,,,,0,4,4,4,,,,,,,,,,,AFSA01.jpg,AFSA04.jpg,AFNE17.jpg,AFNE18.jpg,AFSA04.jpg,FS,4,num_6,32,num_8,0.416826261207,,,2017_Apr_12_1301,60.0012893879,MAFE4ImagesEEG,001,100159,
AFNE01.JPG,AFNE01.JPG,AFNE01.JPG,AFNE01.JPG,AFNE01.JPG,AFNE01.JPG,,,,,,,,,,,,,0,5,5,9,,,,,,,,,,,AFSA09.jpg,AFNE20.jpg,AFNE17.jpg,AFSA15.jpg,AFNE17.jpg,FN,3,num_2,32,num_4,0.983457208611,,,2017_Apr_12_1301,60.0012893879,MAFE4ImagesEEG,001,100159,
AFNE01.JPG,AFNE01.JPG,AFNE01.JPG,AFNE01.JPG,AFNE01.JPG,AFNE01.JPG,,,,,,,,,,,,,0,6,6,5,,,,,,,,,,,AFNE16.jpg,AFNE11.jpg,AFSA20.jpg,AFSA19.jpg,AFNE16.jpg,FN,3,num_8,32,num_2,0.533726581838,,,2017_Apr_12_1301,60.0012893879,MAFE4ImagesEEG,001,100159,
AFNE01.JPG,AFNE01.JPG,AFNE01.JPG,AFNE01.JPG,AFNE01.JPG,AFNE01.JPG,,,,,,,,,,,,,0,7,7,2,,,,,,,,,,,AFNE12.jpg,AFSA19.jpg,AFSA13.jpg,AFNE02.jpg,AFSA13.jpg,FS,4,num_2,32,num_6,1.5667146598,,,2017_Apr_12_1301,60.0012893879,MAFE4ImagesEEG,001,100159,
AFNE01.JPG,AFNE01.JPG,AFNE01.JPG,AFNE01.JPG,AFNE01.JPG,AFNE01.JPG,,,,,,,,,,,,,0,8,8,7,,,,,,,,,,,AFNE01.jpg,AFSA02.jpg,AFSA05.jpg,AFNE12.jpg,AFNE12.jpg,FN,3,num_4,32,num_8,0.333581158426,,,2017_Apr_12_1301,60.0012893879,MAFE4ImagesEEG,001,100159,
AFNE01.JPG,AFNE01.JPG,AFNE01.JPG,AFNE01.JPG,AFNE01.JPG,AFNE01.JPG,,,,,,,,,,,,,0,9,9,8,,,,,,,,,,,AFNE04.jpg,AFSA01.jpg,AFSA09.jpg,AFNE14.jpg,AFSA09.jpg,FS,4,num_2,32,num_8,0.75016044965,,,2017_Apr_12_1301,60.0012893879,MAFE4ImagesEEG,001,100159,
AFNE01.JPG,AFNE01.JPG,AFNE01.JPG,AFNE01.JPG,AFNE01.JPG,AFNE01.JPG,,,,,,,,,,,,,1,0,10,9,,,,,,,,,,,AFNE13.jpg,AFSA07.jpg,AFSA20.jpg,AFNE18.jpg,AFSA07.jpg,FS,4,num_6,32,num_4,0.533483140171,,,2017_Apr_12_1301,60.0012893879,MAFE4ImagesEEG,001,100159,
AFNE01.JPG,AFNE01.JPG,AFNE01.JPG,AFNE01.JPG,AFNE01.JPG,AFNE01.JPG,,,,,,,,,,,,,1,1,11,1,,,,,,,,,,,AFNE06.jpg,AFSA15.jpg,AFSA10.jpg,AFNE11.jpg,AFNE06.jpg,FN,3,num_8,32,num_4,3.06661988143,,,2017_Apr_12_1301,60.0012893879,MAFE4ImagesEEG,001,100159,
AFNE01.JPG,AFNE01.JPG,AFNE01.JPG,AFNE01.JPG,AFNE01.JPG,AFNE01.JPG,,,,,,,,,,,,,1,2,12,8,,,,,,,,,,,AFSA09.jpg,AFNE01.jpg,AFNE07.jpg,AFSA20.jpg,AFSA20.jpg,FS,4,num_4,16,num_4,3.48323285114,,,2017_Apr_12_1301,60.0012893879,MAFE4ImagesEEG,001,100159,
AFNE01.JPG,AFNE01.JPG,AFNE01.JPG,AFNE01.JPG,AFNE01.JPG,AFNE01.JPG,,,,,,,,,,,,,1,3,13,0,,,,,,,,,,,AFNE02.jpg,AFNE01.jpg,AFSA01.jpg,AFSA07.jpg,AFNE02.jpg,FN,3,num_8,32,num_4,0.500164058525,,,2017_Apr_12_1301,60.0012893879,MAFE4ImagesEEG,001,100159,
AFNE01.JPG,AFNE01.JPG,AFNE01.JPG,AFNE01.JPG,AFNE01.JPG,AFNE01.JPG,,,,,,,,,,,,,1,4,14,2,,,,,,,,,,,AFNE06.jpg,AFSA02.jpg,AFSA17.jpg,AFNE14.jpg,AFNE06.jpg,FN,3,num_8,32,num_6,0.500146417413,,,2017_Apr_12_1301,60.0012893879,MAFE4ImagesEEG,001,100159,
AFNE01.JPG,AFNE01.JPG,AFNE01.JPG,AFNE01.JPG,AFNE01.JPG,AFNE01.JPG,,,,,,,,,,,,,1,5,15,7,,,,,,,,,,,AFSA06.jpg,AFNE12.jpg,AFSA05.jpg,AFNE03.jpg,AFSA05.jpg,FS,4,num_2,32,num_4,0.466612119228,,,2017_Apr_12_1301,60.0012893879,MAFE4ImagesEEG,001,100159,
AFNE01.JPG,AFNE01.JPG,AFNE01.JPG,AFNE01.JPG,AFNE01.JPG,AFNE01.JPG,,,,,,,,,,,,,1,6,16,4,,,,,,,,,,,AFNE12.jpg,AFSA15.jpg,AFSA18.jpg,AFNE10.jpg,AFSA15.jpg,FS,4,num_6,32,num_8,0.400199114811,,,2017_Apr_12_1301,60.0012893879,MAFE4ImagesEEG,001,100159,
AFNE01.JPG,AFNE01.JPG,AFNE01.JPG,AFNE01.JPG,AFNE01.JPG,AFNE01.JPG,,,,,,,,,,,,,1,7,17,3,,,,,,,,,,,AFNE01.jpg,AFSA18.jpg,AFSA12.jpg,AFNE18.jpg,AFSA18.jpg,FS,4,num_6,16,num_6,0.316903976258,,,2017_Apr_12_1301,60.0012893879,MAFE4ImagesEEG,001,100159,
AFNE01.JPG,AFNE01.JPG,AFNE01.JPG,AFNE01.JPG,AFNE01.JPG,AFNE01.JPG,,,,,,,,,,,,,1,8,18,5,,,,,,,,,,,AFNE18.jpg,AFSA06.jpg,AFNE13.jpg,AFSA07.jpg,AFNE18.jpg,FN,3,num_8,32,num_4,0.416924086865,,,2017_Apr_12_1301,60.0012893879,MAFE4ImagesEEG,001,100159,
AFNE01.JPG,AFNE01.JPG,AFNE01.JPG,AFNE01.JPG,AFNE01.JPG,AFNE01.JPG,,,,,,,,,,,,,1,9,19,6,,,,,,,,,,,AFSA13.jpg,AFNE15.jpg,AFSA18.jpg,AFNE14.jpg,AFNE15.jpg,FN,3,num_6,32,num_2,0.53346293373,,,2017_Apr_12_1301,60.0012893879,MAFE4ImagesEEG,001,100159,
AFNE01.JPG,AFNE01.JPG,AFNE01.JPG,AFNE01.JPG,AFNE01.JPG,AFNE01.JPG,,,,,,,,,,,,,2,0,20,2,,,,,,,,,,,AFSA18.jpg,AFNE16.jpg,AFNE02.jpg,AFSA04.jpg,AFSA18.jpg,FS,4,num_8,16,num_8,0.416816960089,,,2017_Apr_12_1301,60.0012893879,MAFE4ImagesEEG,001,100159,
AFNE01.JPG,AFNE01.JPG,AFNE01.JPG,AFNE01.JPG,AFNE01.JPG,AFNE01.JPG,,,,,,,,,,,,,2,1,21,3,,,,,,,,,,,AFNE18.jpg,AFNE19.jpg,AFSA13.jpg,AFSA02.jpg,AFNE18.jpg,FN,3,num_8,32,num_4,0.283521388192,,,2017_Apr_12_1301,60.0012893879,MAFE4ImagesEEG,001,100159,
AFNE01.JPG,AFNE01.JPG,AFNE01.JPG,AFNE01.JPG,AFNE01.JPG,AFNE01.JPG,,,,,,,,,,,,,2,2,22,5,,,,,,,,,,,AFNE02.jpg,AFSA03.jpg,AFNE16.jpg,AFSA01.jpg,AFSA01.jpg,FS,4,num_4,16,num_4,0.316820263863,,,2017_Apr_12_1301,60.0012893879,MAFE4ImagesEEG,001,100159,
AFNE01.JPG,AFNE01.JPG,AFNE01.JPG,AFNE01.JPG,AFNE01.JPG,AFNE01.JPG,,,,,,,,,,,,,2,3,23,8,,,,,,,,,,,AFSA09.jpg,AFSA05.jpg,AFNE09.jpg,AFNE15.jpg,AFNE15.jpg,FN,3,num_4,16,num_4,0.383503972553,,,2017_Apr_12_1301,60.0012893879,MAFE4ImagesEEG,001,100159,
AFNE01.JPG,AFNE01.JPG,AFNE01.JPG,AFNE01.JPG,AFNE01.JPG,AFNE01.JPG,,,,,,,,,,,,,2,4,24,4,,,,,,,,,,,AFNE12.jpg,AFNE16.jpg,AFSA05.jpg,AFSA17.jpg,AFSA17.jpg,FS,4,num_4,16,num_4,0.333500973415,,,2017_Apr_12_1301,60.0012893879,MAFE4ImagesEEG,001,100159,
AFNE01.JPG,AFNE01.JPG,AFNE01.JPG,AFNE01.JPG,AFNE01.JPG,AFNE01.JPG,,,,,,,,,,,,,2,5,25,9,,,,,,,,,,,AFNE08.jpg,AFNE17.jpg,AFSA18.jpg,AFSA13.jpg,AFSA13.jpg,FS,4,num_4,32,num_2,0.383513273671,,,2017_Apr_12_1301,60.0012893879,MAFE4ImagesEEG,001,100159,
AFNE01.JPG,AFNE01.JPG,AFNE01.JPG,AFNE01.JPG,AFNE01.JPG,AFNE01.JPG,,,,,,,,,,,,,2,6,26,1,,,,,,,,,,,AFSA07.jpg,AFNE17.jpg,AFNE07.jpg,AFSA01.jpg,AFSA01.jpg,FS,4,num_4,32,num_8,0.616814201698,,,2017_Apr_12_1301,60.0012893879,MAFE4ImagesEEG,001,100159,
AFNE01.JPG,AFNE01.JPG,AFNE01.JPG,AFNE01.JPG,AFNE01.JPG,AFNE01.JPG,,,,,,,,,,,,,2,7,27,7,,,,,,,,,,,AFNE05.jpg,AFSA08.jpg,AFSA19.jpg,AFNE14.jpg,AFSA08.jpg,FS,4,num_6,32,num_4,0.183529182337,,,2017_Apr_12_1301,60.0012893879,MAFE4ImagesEEG,001,100159,
AFNE01.JPG,AFNE01.JPG,AFNE01.JPG,AFNE01.JPG,AFNE01.JPG,AFNE01.JPG,,,,,,,,,,,,,2,8,28,0,,,,,,,,,,,AFSA09.jpg,AFNE18.jpg,AFSA13.jpg,AFNE15.jpg,AFNE15.jpg,FN,3,num_4,32,num_2,0.100159952883,,,2017_Apr_12_1301,60.0012893879,MAFE4ImagesEEG,001,100159,
AFNE01.JPG,AFNE01.JPG,AFNE01.JPG,AFNE01.JPG,AFNE01.JPG,AFNE01.JPG,,,,,,,,,,,,,2,9,29,6,,,,,,,,,,,AFNE05.jpg,AFSA03.jpg,AFNE19.jpg,AFSA05.jpg,AFNE05.jpg,FN,3,num_8,32,num_6,0.450000689365,,,2017_Apr_12_1301,60.0012893879,MAFE4ImagesEEG,001,100159,
AFNE01.JPG,AFNE01.JPG,AFNE01.JPG,AFNE01.JPG,AFNE01.JPG,AFNE01.JPG,,,,,,,,,,,,,3,0,30,9,,,,,,,,,,,AFSA15.jpg,AFNE15.jpg,AFNE08.jpg,AFSA19.jpg,AFNE08.jpg,FN,3,num_2,32,num_4,0.483491688035,,,2017_Apr_12_1301,60.0012893879,MAFE4ImagesEEG,001,100159,
AFNE01.JPG,AFNE01.JPG,AFNE01.JPG,AFNE01.JPG,AFNE01.JPG,AFNE01.JPG,,,,,,,,,,,,,3,1,31,6,,,,,,,,,,,AFNE02.jpg,AFNE19.jpg,AFSA07.jpg,AFSA20.jpg,AFNE02.jpg,FN,3,num_8,32,num_2,0.23346290132,,,2017_Apr_12_1301,60.0012893879,MAFE4ImagesEEG,001,100159,
AFNE01.JPG,AFNE01.JPG,AFNE01.JPG,AFNE01.JPG,AFNE01.JPG,AFNE01.JPG,,,,,,,,,,,,,3,2,32,0,,,,,,,,,,,AFSA12.jpg,AFSA19.jpg,AFNE02.jpg,AFNE18.jpg,AFNE18.jpg,FN,3,num_4,16,num_4,0.416824016254,,,2017_Apr_12_1301,60.0012893879,MAFE4ImagesEEG,001,100159,
AFNE01.JPG,AFNE01.JPG,AFNE01.JPG,AFNE01.JPG,AFNE01.JPG,AFNE01.JPG,,,,,,,,,,,,,3,3,33,5,,,,,,,,,,,AFSA19.jpg,AFSA15.jpg,AFNE14.jpg,AFNE13.jpg,AFSA19.jpg,FS,4,num_8,32,num_6,0.36662761122,,,2017_Apr_12_1301,60.0012893879,MAFE4ImagesEEG,001,100159,
AFNE01.JPG,AFNE01.JPG,AFNE01.JPG,AFNE01.JPG,AFNE01.JPG,AFNE01.JPG,,,,,,,,,,,,,3,4,34,7,,,,,,,,,,,AFSA07.jpg,AFNE15.jpg,AFNE07.jpg,AFSA17.jpg,AFNE07.jpg,FN,3,num_2,16,num_2,0.450144381262,,,2017_Apr_12_1301,60.0012893879,MAFE4ImagesEEG,001,100159,
AFNE01.JPG,AFNE01.JPG,AFNE01.JPG,AFNE01.JPG,AFNE01.JPG,AFNE01.JPG,,,,,,,,,,,,,3,5,35,4,,,,,,,,,,,AFNE17.jpg,AFNE05.jpg,AFSA07.jpg,AFSA10.jpg,AFSA10.jpg,FS,4,num_4,16,num_4,0.166791380849,,,2017_Apr_12_1301,60.0012893879,MAFE4ImagesEEG,001,100159,
AFNE01.JPG,AFNE01.JPG,AFNE01.JPG,AFNE01.JPG,AFNE01.JPG,AFNE01.JPG,,,,,,,,,,,,,3,6,36,2,,,,,,,,,,,AFNE10.jpg,AFSA14.jpg,AFNE08.jpg,AFSA10.jpg,AFSA14.jpg,FS,4,num_6,32,num_2,0.61676929798,,,2017_Apr_12_1301,60.0012893879,MAFE4ImagesEEG,001,100159,
AFNE01.JPG,AFNE01.JPG,AFNE01.JPG,AFNE01.JPG,AFNE01.JPG,AFNE01.JPG,,,,,,,,,,,,,3,7,37,8,,,,,,,,,,,AFNE04.jpg,AFSA15.jpg,AFNE02.jpg,AFSA07.jpg,AFNE02.jpg,FN,3,num_2,32,num_6,0.416788734496,,,2017_Apr_12_1301,60.0012893879,MAFE4ImagesEEG,001,100159,
AFNE01.JPG,AFNE01.JPG,AFNE01.JPG,AFNE01.JPG,AFNE01.JPG,AFNE01.JPG,,,,,,,,,,,,,3,8,38,1,,,,,,,,,,,AFNE08.jpg,AFSA11.jpg,AFSA01.jpg,AFNE02.jpg,AFNE02.jpg,FN,3,num_4,16,num_4,0.333480125293,,,2017_Apr_12_1301,60.0012893879,MAFE4ImagesEEG,001,100159,
AFNE01.JPG,AFNE01.JPG,AFNE01.JPG,AFNE01.JPG,AFNE01.JPG,AFNE01.JPG,,,,,,,,,,,,,3,9,39,3,,,,,,,,,,,AFNE12.jpg,AFSA20.jpg,AFNE05.jpg,AFSA09.jpg,AFSA20.jpg,FS,4,num_6,32,num_4,0.450006783474,,,2017_Apr_12_1301,60.0012893879,MAFE4ImagesEEG,001,100159,
AFNE01.JPG,AFNE01.JPG,AFNE01.JPG,AFNE01.JPG,AFNE01.JPG,AFNE01.JPG,,,,,,,,,,,,,4,0,40,9,,,,,,,,,,,AFNE01.jpg,AFSA03.jpg,AFSA16.jpg,AFNE04.jpg,AFSA03.jpg,FS,4,num_6,32,num_2,0.466824128758,,,2017_Apr_12_1301,60.0012893879,MAFE4ImagesEEG,001,100159,
AFNE01.JPG,AFNE01.JPG,AFNE01.JPG,AFNE01.JPG,AFNE01.JPG,AFNE01.JPG,,,,,,,,,,,,,4,1,41,1,,,,,,,,,,,AFSA09.jpg,AFNE03.jpg,AFSA15.jpg,AFNE17.jpg,AFNE17.jpg,FN,3,num_4,32,num_6,0.433489009738,,,2017_Apr_12_1301,60.0012893879,MAFE4ImagesEEG,001,100159,
AFNE01.JPG,AFNE01.JPG,AFNE01.JPG,AFNE01.JPG,AFNE01.JPG,AFNE01.JPG,,,,,,,,,,,,,4,2,42,5,,,,,,,,,,,AFNE20.jpg,AFNE05.jpg,AFSA20.jpg,AFSA16.jpg,AFSA20.jpg,FS,4,num_2,32,num_4,0.500178170856,,,2017_Apr_12_1301,60.0012893879,MAFE4ImagesEEG,001,100159,
AFNE01.JPG,AFNE01.JPG,AFNE01.JPG,AFNE01.JPG,AFNE01.JPG,AFNE01.JPG,,,,,,,,,,,,,4,3,43,7,,,,,,,,,,,AFNE07.jpg,AFSA03.jpg,AFNE13.jpg,AFSA19.jpg,AFSA19.jpg,FS,4,num_4,48,None,,,,2017_Apr_12_1301,60.0012893879,MAFE4ImagesEEG,001,100159,
AFNE01.JPG,AFNE01.JPG,AFNE01.JPG,AFNE01.JPG,AFNE01.JPG,AFNE01.JPG,,,,,,,,,,,,,4,4,44,2,,,,,,,,,,,AFNE15.jpg,AFNE12.jpg,AFSA03.jpg,AFSA12.jpg,AFNE15.jpg,FN,3,num_8,16,num_8,0.183484278619,,,2017_Apr_12_1301,60.0012893879,MAFE4ImagesEEG,001,100159,
AFNE01.JPG,AFNE01.JPG,AFNE01.JPG,AFNE01.JPG,AFNE01.JPG,AFNE01.JPG,,,,,,,,,,,,,4,5,45,0,,,,,,,,,,,AFSA19.jpg,AFNE12.jpg,AFSA01.jpg,AFNE16.jpg,AFSA19.jpg,FS,4,num_8,32,num_4,0.900011963677,,,2017_Apr_12_1301,60.0012893879,MAFE4ImagesEEG,001,100159,
AFNE01.JPG,AFNE01.JPG,AFNE01.JPG,AFNE01.JPG,AFNE01.JPG,AFNE01.JPG,,,,,,,,,,,,,4,6,46,6,,,,,,,,,,,AFNE14.jpg,AFSA02.jpg,AFNE09.jpg,AFSA08.jpg,AFNE09.jpg,FN,3,num_2,16,num_2,0.650044438429,,,2017_Apr_12_1301,60.0012893879,MAFE4ImagesEEG,001,100159,
AFNE01.JPG,AFNE01.JPG,AFNE01.JPG,AFNE01.JPG,AFNE01.JPG,AFNE01.JPG,,,,,,,,,,,,,4,7,47,4,,,,,,,,,,,AFNE08.jpg,AFNE03.jpg,AFSA17.jpg,AFSA13.jpg,AFSA17.jpg,FS,4,num_2,16,num_2,0.4335300643,,,2017_Apr_12_1301,60.0012893879,MAFE4ImagesEEG,001,100159,
AFNE01.JPG,AFNE01.JPG,AFNE01.JPG,AFNE01.JPG,AFNE01.JPG,AFNE01.JPG,,,,,,,,,,,,,4,8,48,3,,,,,,,,,,,AFSA13.jpg,AFSA19.jpg,AFNE04.jpg,AFNE17.jpg,AFNE04.jpg,FN,3,num_2,16,num_2,0.316795887426,,,2017_Apr_12_1301,60.0012893879,MAFE4ImagesEEG,001,100159,
AFNE01.JPG,AFNE01.JPG,AFNE01.JPG,AFNE01.JPG,AFNE01.JPG,AFNE01.JPG,,,,,,,,,,,,,4,9,49,8,,,,,,,,,,,AFNE04.jpg,AFNE15.jpg,AFSA14.jpg,AFSA12.jpg,AFNE15.jpg,FN,3,num_6,32,num_4,0.416813431773,,,2017_Apr_12_1301,60.0012893879,MAFE4ImagesEEG,001,100159,
AFNE01.JPG,AFNE01.JPG,AFNE01.JPG,AFNE01.JPG,AFNE01.JPG,AFNE01.JPG,,,,,,,,,,,,,5,0,50,4,,,,,,,,,,,AFSA07.jpg,AFNE01.jpg,AFNE08.jpg,AFSA08.jpg,AFSA07.jpg,FS,4,num_8,32,num_6,0.383796486538,,,2017_Apr_12_1301,60.0012893879,MAFE4ImagesEEG,001,100159,
AFNE01.JPG,AFNE01.JPG,AFNE01.JPG,AFNE01.JPG,AFNE01.JPG,AFNE01.JPG,,,,,,,,,,,,,5,1,51,6,,,,,,,,,,,AFSA07.jpg,AFNE12.jpg,AFSA06.jpg,AFNE20.jpg,AFNE20.jpg,FN,3,num_4,16,num_4,0.366809150204,,,2017_Apr_12_1301,60.0012893879,MAFE4ImagesEEG,001,100159,
AFNE01.JPG,AFNE01.JPG,AFNE01.JPG,AFNE01.JPG,AFNE01.JPG,AFNE01.JPG,,,,,,,,,,,,,5,2,52,0,,,,,,,,,,,AFSA20.jpg,AFNE19.jpg,AFSA07.jpg,AFNE06.jpg,AFSA07.jpg,FS,4,num_2,32,num_6,0.350037670694,,,2017_Apr_12_1301,60.0012893879,MAFE4ImagesEEG,001,100159,
AFNE01.JPG,AFNE01.JPG,AFNE01.JPG,AFNE01.JPG,AFNE01.JPG,AFNE01.JPG,,,,,,,,,,,,,5,3,53,9,,,,,,,,,,,AFNE06.jpg,AFSA07.jpg,AFNE03.jpg,AFSA10.jpg,AFNE06.jpg,FN,3,num_8,16,num_8,0.350153137464,,,2017_Apr_12_1301,60.0012893879,MAFE4ImagesEEG,001,100159,
AFNE01.JPG,AFNE01.JPG,AFNE01.JPG,AFNE01.JPG,AFNE01.JPG,AFNE01.JPG,,,,,,,,,,,,,5,4,54,1,,,,,,,,,,,AFSA04.jpg,AFSA08.jpg,AFNE15.jpg,AFNE13.jpg,AFSA04.jpg,FS,4,num_8,32,num_4,0.266829773784,,,2017_Apr_12_1301,60.0012893879,MAFE4ImagesEEG,001,100159,
AFNE01.JPG,AFNE01.JPG,AFNE01.JPG,AFNE01.JPG,AFNE01.JPG,AFNE01.JPG,,,,,,,,,,,,,5,5,55,7,,,,,,,,,,,AFSA02.jpg,AFNE09.jpg,AFNE11.jpg,AFSA06.jpg,AFSA02.jpg,FS,4,num_8,32,num_4,0.56685097469,,,2017_Apr_12_1301,60.0012893879,MAFE4ImagesEEG,001,100159,
AFNE01.JPG,AFNE01.JPG,AFNE01.JPG,AFNE01.JPG,AFNE01.JPG,AFNE01.JPG,,,,,,,,,,,,,5,6,56,8,,,,,,,,,,,AFNE09.jpg,AFNE12.jpg,AFSA18.jpg,AFSA15.jpg,AFNE09.jpg,FN,3,num_8,32,num_4,0.500167265534,,,2017_Apr_12_1301,60.0012893879,MAFE4ImagesEEG,001,100159,
AFNE01.JPG,AFNE01.JPG,AFNE01.JPG,AFNE01.JPG,AFNE01.JPG,AFNE01.JPG,,,,,,,,,,,,,5,7,57,3,,,,,,,,,,,AFSA06.jpg,AFSA04.jpg,AFNE02.jpg,AFNE19.jpg,AFNE19.jpg,FN,3,num_4,16,num_4,0.416850958485,,,2017_Apr_12_1301,60.0012893879,MAFE4ImagesEEG,001,100159,
AFNE01.JPG,AFNE01.JPG,AFNE01.JPG,AFNE01.JPG,AFNE01.JPG,AFNE01.JPG,,,,,,,,,,,,,5,8,58,5,,,,,,,,,,,AFNE05.jpg,AFNE04.jpg,AFSA05.jpg,AFSA16.jpg,AFSA16.jpg,FS,4,num_4,32,num_6,0.283531972673,,,2017_Apr_12_1301,60.0012893879,MAFE4ImagesEEG,001,100159,
AFNE01.JPG,AFNE01.JPG,AFNE01.JPG,AFNE01.JPG,AFNE01.JPG,AFNE01.JPG,,,,,,,,,,,,,5,9,59,2,,,,,,,,,,,AFNE13.jpg,AFNE11.jpg,AFSA15.jpg,AFSA16.jpg,AFSA15.jpg,FS,4,num_2,32,num_4,0.300199853256,,,2017_Apr_12_1301,60.0012893879,MAFE4ImagesEEG,001,100159,
,,,,,,,,,,,,,,,,,,,,,,,,,,,,,,,,,,,,,,,,,,,space,40.9136501364,2017_Apr_12_1301,60.0012893879,MAFE4ImagesEEG,001,100159,
AFNE01.JPG,AFNE01.JPG,AFNE01.JPG,AFNE01.JPG,AFNE01.JPG,AFNE01.JPG,,,,,,,,,,,,,,,,,0,0,0,2,,,,,,,AMNE13.jpg,AMSA08.jpg,AMNE15.jpg,AMSA10.jpg,AMNE15.jpg,MN,1,num_2,32,num_4,0.416814072989,,,2017_Apr_12_1301,60.0012893879,MAFE4ImagesEEG,001,100159,
AFNE01.JPG,AFNE01.JPG,AFNE01.JPG,AFNE01.JPG,AFNE01.JPG,AFNE01.JPG,,,,,,,,,,,,,,,,,0,1,1,5,,,,,,,AMNE18.jpg,AMSA01.jpg,AMNE09.jpg,AMSA15.jpg,AMSA15.jpg,MS,2,num_4,32,num_6,0.400174739305,,,2017_Apr_12_1301,60.0012893879,MAFE4ImagesEEG,001,100159,
AFNE01.JPG,AFNE01.JPG,AFNE01.JPG,AFNE01.JPG,AFNE01.JPG,AFNE01.JPG,,,,,,,,,,,,,,,,,0,2,2,4,,,,,,,AMSA14.jpg,AMSA20.jpg,AMNE02.jpg,AMNE06.jpg,AMNE06.jpg,MN,1,num_4,16,num_4,0.350185532123,,,2017_Apr_12_1301,60.0012893879,MAFE4ImagesEEG,001,100159,
AFNE01.JPG,AFNE01.JPG,AFNE01.JPG,AFNE01.JPG,AFNE01.JPG,AFNE01.JPG,,,,,,,,,,,,,,,,,0,3,3,8,,,,,,,AMSA03.jpg,AMSA16.jpg,AMNE17.jpg,AMNE01.jpg,AMSA03.jpg,MS,2,num_8,32,num_4,0.483545572497,,,2017_Apr_12_1301,60.0012893879,MAFE4ImagesEEG,001,100159,
AFNE01.JPG,AFNE01.JPG,AFNE01.JPG,AFNE01.JPG,AFNE01.JPG,AFNE01.JPG,,,,,,,,,,,,,,,,,0,4,4,1,,,,,,,AMNE11.jpg,AMSA08.jpg,AMSA03.jpg,AMNE02.jpg,AMNE11.jpg,MN,1,num_8,32,num_2,0.350149929523,,,2017_Apr_12_1301,60.0012893879,MAFE4ImagesEEG,001,100159,
AFNE01.JPG,AFNE01.JPG,AFNE01.JPG,AFNE01.JPG,AFNE01.JPG,AFNE01.JPG,,,,,,,,,,,,,,,,,0,5,5,9,,,,,,,AMNE08.jpg,AMNE13.jpg,AMSA08.jpg,AMSA15.jpg,AMNE13.jpg,MN,1,num_6,32,num_4,0.366865279619,,,2017_Apr_12_1301,60.0012893879,MAFE4ImagesEEG,001,100159,
AFNE01.JPG,AFNE01.JPG,AFNE01.JPG,AFNE01.JPG,AFNE01.JPG,AFNE01.JPG,,,,,,,,,,,,,,,,,0,6,6,3,,,,,,,AMNE14.jpg,AMSA17.jpg,AMNE03.jpg,AMSA05.jpg,AMNE14.jpg,MN,1,num_8,32,num_6,0.416830430739,,,2017_Apr_12_1301,60.0012893879,MAFE4ImagesEEG,001,100159,
AFNE01.JPG,AFNE01.JPG,AFNE01.JPG,AFNE01.JPG,AFNE01.JPG,AFNE01.JPG,,,,,,,,,,,,,,,,,0,7,7,0,,,,,,,AMNE01.jpg,AMSA08.jpg,AMSA10.jpg,AMNE16.jpg,AMNE01.jpg,MN,1,num_8,32,num_4,0.35018681502,,,2017_Apr_12_1301,60.0012893879,MAFE4ImagesEEG,001,100159,
AFNE01.JPG,AFNE01.JPG,AFNE01.JPG,AFNE01.JPG,AFNE01.JPG,AFNE01.JPG,,,,,,,,,,,,,,,,,0,8,8,6,,,,,,,AMSA03.jpg,AMNE16.jpg,AMNE13.jpg,AMSA12.jpg,AMNE16.jpg,MN,1,num_6,32,num_2,0.266855112277,,,2017_Apr_12_1301,60.0012893879,MAFE4ImagesEEG,001,100159,
AFNE01.JPG,AFNE01.JPG,AFNE01.JPG,AFNE01.JPG,AFNE01.JPG,AFNE01.JPG,,,,,,,,,,,,,,,,,0,9,9,7,,,,,,,AMNE08.jpg,AMSA04.jpg,AMNE20.jpg,AMSA13.jpg,AMNE08.jpg,MN,1,num_8,32,num_6,0.183551313356,,,2017_Apr_12_1301,60.0012893879,MAFE4ImagesEEG,001,100159,
AFNE01.JPG,AFNE01.JPG,AFNE01.JPG,AFNE01.JPG,AFNE01.JPG,AFNE01.JPG,,,,,,,,,,,,,,,,,1,0,10,6,,,,,,,AMSA12.jpg,AMNE12.jpg,AMSA20.jpg,AMNE08.jpg,AMNE08.jpg,MN,1,num_4,16,num_4,0.583485818468,,,2017_Apr_12_1301,60.0012893879,MAFE4ImagesEEG,001,100159,
AFNE01.JPG,AFNE01.JPG,AFNE01.JPG,AFNE01.JPG,AFNE01.JPG,AFNE01.JPG,,,,,,,,,,,,,,,,,1,1,11,5,,,,,,,AMNE12.jpg,AMNE13.jpg,AMSA05.jpg,AMSA13.jpg,AMNE12.jpg,MN,1,num_8,32,num_4,0.400160626508,,,2017_Apr_12_1301,60.0012893879,MAFE4ImagesEEG,001,100159,
AFNE01.JPG,AFNE01.JPG,AFNE01.JPG,AFNE01.JPG,AFNE01.JPG,AFNE01.JPG,,,,,,,,,,,,,,,,,1,2,12,7,,,,,,,AMSA14.jpg,AMNE06.jpg,AMNE12.jpg,AMSA08.jpg,AMNE06.jpg,MN,1,num_6,32,num_4,0.267131589353,,,2017_Apr_12_1301,60.0012893879,MAFE4ImagesEEG,001,100159,
AFNE01.JPG,AFNE01.JPG,AFNE01.JPG,AFNE01.JPG,AFNE01.JPG,AFNE01.JPG,,,,,,,,,,,,,,,,,1,3,13,3,,,,,,,AMNE05.jpg,AMSA14.jpg,AMSA11.jpg,AMNE14.jpg,AMNE14.jpg,MN,1,num_4,16,num_4,2.89996673912,,,2017_Apr_12_1301,60.0012893879,MAFE4ImagesEEG,001,100159,
AFNE01.JPG,AFNE01.JPG,AFNE01.JPG,AFNE01.JPG,AFNE01.JPG,AFNE01.JPG,,,,,,,,,,,,,,,,,1,4,14,9,,,,,,,AMNE05.jpg,AMNE03.jpg,AMSA09.jpg,AMSA10.jpg,AMSA10.jpg,MS,2,num_4,48,None,,,,2017_Apr_12_1301,60.0012893879,MAFE4ImagesEEG,001,100159,
AFNE01.JPG,AFNE01.JPG,AFNE01.JPG,AFNE01.JPG,AFNE01.JPG,AFNE01.JPG,,,,,,,,,,,,,,,,,1,5,15,1,,,,,,,AMSA05.jpg,AMNE08.jpg,AMNE18.jpg,AMSA19.jpg,AMNE18.jpg,MN,1,num_2,32,num_8,0.650195827708,,,2017_Apr_12_1301,60.0012893879,MAFE4ImagesEEG,001,100159,
AFNE01.JPG,AFNE01.JPG,AFNE01.JPG,AFNE01.JPG,AFNE01.JPG,AFNE01.JPG,,,,,,,,,,,,,,,,,1,6,16,8,,,,,,,AMSA15.jpg,AMNE20.jpg,AMNE03.jpg,AMSA07.jpg,AMNE03.jpg,MN,1,num_2,32,num_4,0.683181660715,,,2017_Apr_12_1301,60.0012893879,MAFE4ImagesEEG,001,100159,
AFNE01.JPG,AFNE01.JPG,AFNE01.JPG,AFNE01.JPG,AFNE01.JPG,AFNE01.JPG,,,,,,,,,,,,,,,,,1,7,17,0,,,,,,,AMSA09.jpg,AMNE19.jpg,AMNE10.jpg,AMSA13.jpg,AMSA13.jpg,MS,2,num_4,16,num_4,0.383501727134,,,2017_Apr_12_1301,60.0012893879,MAFE4ImagesEEG,001,100159,
AFNE01.JPG,AFNE01.JPG,AFNE01.JPG,AFNE01.JPG,AFNE01.JPG,AFNE01.JPG,,,,,,,,,,,,,,,,,1,8,18,4,,,,,,,AMNE01.jpg,AMNE05.jpg,AMSA10.jpg,AMSA07.jpg,AMNE01.jpg,MN,1,num_8,32,num_4,0.350154420361,,,2017_Apr_12_1301,60.0012893879,MAFE4ImagesEEG,001,100159,
AFNE01.JPG,AFNE01.JPG,AFNE01.JPG,AFNE01.JPG,AFNE01.JPG,AFNE01.JPG,,,,,,,,,,,,,,,,,1,9,19,2,,,,,,,AMSA11.jpg,AMNE20.jpg,AMSA09.jpg,AMNE05.jpg,AMNE05.jpg,MN,1,num_4,32,num_6,0.300448105671,,,2017_Apr_12_1301,60.0012893879,MAFE4ImagesEEG,001,100159,
AFNE01.JPG,AFNE01.JPG,AFNE01.JPG,AFNE01.JPG,AFNE01.JPG,AFNE01.JPG,,,,,,,,,,,,,,,,,2,0,20,8,,,,,,,AMSA08.jpg,AMNE01.jpg,AMNE20.jpg,AMSA07.jpg,AMSA07.jpg,MS,2,num_4,32,num_2,0.383508783299,,,2017_Apr_12_1301,60.0012893879,MAFE4ImagesEEG,001,100159,
AFNE01.JPG,AFNE01.JPG,AFNE01.JPG,AFNE01.JPG,AFNE01.JPG,AFNE01.JPG,,,,,,,,,,,,,,,,,2,1,21,5,,,,,,,AMNE06.jpg,AMSA15.jpg,AMSA20.jpg,AMNE04.jpg,AMSA20.jpg,MS,2,num_2,32,num_4,0.416835242417,,,2017_Apr_12_1301,60.0012893879,MAFE4ImagesEEG,001,100159,
AFNE01.JPG,AFNE01.JPG,AFNE01.JPG,AFNE01.JPG,AFNE01.JPG,AFNE01.JPG,,,,,,,,,,,,,,,,,2,2,22,9,,,,,,,AMSA09.jpg,AMNE04.jpg,AMNE15.jpg,AMSA13.jpg,AMNE04.jpg,MN,1,num_6,32,num_2,0.16679202253,,,2017_Apr_12_1301,60.0012893879,MAFE4ImagesEEG,001,100159,
AFNE01.JPG,AFNE01.JPG,AFNE01.JPG,AFNE01.JPG,AFNE01.JPG,AFNE01.JPG,,,,,,,,,,,,,,,,,2,3,23,3,,,,,,,AMSA05.jpg,AMSA02.jpg,AMNE20.jpg,AMNE06.jpg,AMNE20.jpg,MN,1,num_2,32,num_4,0.333503218368,,,2017_Apr_12_1301,60.0012893879,MAFE4ImagesEEG,001,100159,
AFNE01.JPG,AFNE01.JPG,AFNE01.JPG,AFNE01.JPG,AFNE01.JPG,AFNE01.JPG,,,,,,,,,,,,,,,,,2,4,24,4,,,,,,,AMSA18.jpg,AMNE13.jpg,AMSA09.jpg,AMNE08.jpg,AMSA09.jpg,MS,2,num_2,32,num_8,0.366855978034,,,2017_Apr_12_1301,60.0012893879,MAFE4ImagesEEG,001,100159,
AFNE01.JPG,AFNE01.JPG,AFNE01.JPG,AFNE01.JPG,AFNE01.JPG,AFNE01.JPG,,,,,,,,,,,,,,,,,2,5,25,1,,,,,,,AMSA10.jpg,AMSA16.jpg,AMNE08.jpg,AMNE05.jpg,AMSA10.jpg,MS,2,num_8,32,num_2,0.466776338406,,,2017_Apr_12_1301,60.0012893879,MAFE4ImagesEEG,001,100159,
AFNE01.JPG,AFNE01.JPG,AFNE01.JPG,AFNE01.JPG,AFNE01.JPG,AFNE01.JPG,,,,,,,,,,,,,,,,,2,6,26,6,,,,,,,AMSA02.jpg,AMNE11.jpg,AMNE05.jpg,AMSA08.jpg,AMSA08.jpg,MS,2,num_4,16,num_4,0.283486106899,,,2017_Apr_12_1301,60.0012893879,MAFE4ImagesEEG,001,100159,
AFNE01.JPG,AFNE01.JPG,AFNE01.JPG,AFNE01.JPG,AFNE01.JPG,AFNE01.JPG,,,,,,,,,,,,,,,,,2,7,27,0,,,,,,,AMNE14.jpg,AMNE15.jpg,AMSA11.jpg,AMSA01.jpg,AMSA01.jpg,MS,2,num_4,32,num_6,0.333464408759,,,2017_Apr_12_1301,60.0012893879,MAFE4ImagesEEG,001,100159,
AFNE01.JPG,AFNE01.JPG,AFNE01.JPG,AFNE01.JPG,AFNE01.JPG,AFNE01.JPG,,,,,,,,,,,,,,,,,2,8,28,2,,,,,,,AMSA02.jpg,AMSA07.jpg,AMNE04.jpg,AMNE15.jpg,AMSA02.jpg,MS,2,num_8,16,num_8,0.083539863117,,,2017_Apr_12_1301,60.0012893879,MAFE4ImagesEEG,001,100159,
AFNE01.JPG,AFNE01.JPG,AFNE01.JPG,AFNE01.JPG,AFNE01.JPG,AFNE01.JPG,,,,,,,,,,,,,,,,,2,9,29,7,,,,,,,AMSA13.jpg,AMNE18.jpg,AMNE05.jpg,AMSA18.jpg,AMNE18.jpg,MN,1,num_6,32,num_2,0.349862226285,,,2017_Apr_12_1301,60.0012893879,MAFE4ImagesEEG,001,100159,
AFNE01.JPG,AFNE01.JPG,AFNE01.JPG,AFNE01.JPG,AFNE01.JPG,AFNE01.JPG,,,,,,,,,,,,,,,,,3,0,30,1,,,,,,,AMSA11.jpg,AMSA16.jpg,AMNE17.jpg,AMNE09.jpg,AMSA16.jpg,MS,2,num_6,32,num_4,0.433509857859,,,2017_Apr_12_1301,60.0012893879,MAFE4ImagesEEG,001,100159,
AFNE01.JPG,AFNE01.JPG,AFNE01.JPG,AFNE01.JPG,AFNE01.JPG,AFNE01.JPG,,,,,,,,,,,,,,,,,3,1,31,5,,,,,,,AMSA18.jpg,AMNE10.jpg,AMSA02.jpg,AMNE02.jpg,AMNE02.jpg,MN,1,num_4,32,num_6,0.533497252502,,,2017_Apr_12_1301,60.0012893879,MAFE4ImagesEEG,001,100159,
AFNE01.JPG,AFNE01.JPG,AFNE01.JPG,AFNE01.JPG,AFNE01.JPG,AFNE01.JPG,,,,,,,,,,,,,,,,,3,2,32,0,,,,,,,AMSA07.jpg,AMSA06.jpg,AMNE06.jpg,AMNE03.jpg,AMSA06.jpg,MS,2,num_6,32,num_8,0.399967540987,,,2017_Apr_12_1301,60.0012893879,MAFE4ImagesEEG,001,100159,
AFNE01.JPG,AFNE01.JPG,AFNE01.JPG,AFNE01.JPG,AFNE01.JPG,AFNE01.JPG,,,,,,,,,,,,,,,,,3,3,33,7,,,,,,,AMNE11.jpg,AMSA12.jpg,AMNE05.jpg,AMSA05.jpg,AMNE11.jpg,MN,1,num_8,32,num_2,0.383481520228,,,2017_Apr_12_1301,60.0012893879,MAFE4ImagesEEG,001,100159,
AFNE01.JPG,AFNE01.JPG,AFNE01.JPG,AFNE01.JPG,AFNE01.JPG,AFNE01.JPG,,,,,,,,,,,,,,,,,3,4,34,3,,,,,,,AMSA18.jpg,AMNE18.jpg,AMSA10.jpg,AMNE13.jpg,AMSA18.jpg,MS,2,num_8,32,num_6,0.533735883422,,,2017_Apr_12_1301,60.0012893879,MAFE4ImagesEEG,001,100159,
AFNE01.JPG,AFNE01.JPG,AFNE01.JPG,AFNE01.JPG,AFNE01.JPG,AFNE01.JPG,,,,,,,,,,,,,,,,,3,5,35,8,,,,,,,AMNE16.jpg,AMSA09.jpg,AMSA12.jpg,AMNE20.jpg,AMSA12.jpg,MS,2,num_2,16,num_2,0.0168131752871,,,2017_Apr_12_1301,60.0012893879,MAFE4ImagesEEG,001,100159,
AFNE01.JPG,AFNE01.JPG,AFNE01.JPG,AFNE01.JPG,AFNE01.JPG,AFNE01.JPG,,,,,,,,,,,,,,,,,3,6,36,2,,,,,,,AMNE07.jpg,AMSA11.jpg,AMNE18.jpg,AMSA08.jpg,AMSA08.jpg,MS,2,num_4,32,num_6,0.48349810252,,,2017_Apr_12_1301,60.0012893879,MAFE4ImagesEEG,001,100159,
AFNE01.JPG,AFNE01.JPG,AFNE01.JPG,AFNE01.JPG,AFNE01.JPG,AFNE01.JPG,,,,,,,,,,,,,,,,,3,7,37,4,,,,,,,AMNE08.jpg,AMNE18.jpg,AMSA17.jpg,AMSA15.jpg,AMNE18.jpg,MN,1,num_6,32,num_8,0.0836190856062,,,2017_Apr_12_1301,60.0012893879,MAFE4ImagesEEG,001,100159,
AFNE01.JPG,AFNE01.JPG,AFNE01.JPG,AFNE01.JPG,AFNE01.JPG,AFNE01.JPG,,,,,,,,,,,,,,,,,3,8,38,6,,,,,,,AMNE17.jpg,AMSA03.jpg,AMSA05.jpg,AMNE15.jpg,AMNE15.jpg,MN,1,num_4,32,num_8,0.450142777525,,,2017_Apr_12_1301,60.0012893879,MAFE4ImagesEEG,001,100159,
AFNE01.JPG,AFNE01.JPG,AFNE01.JPG,AFNE01.JPG,AFNE01.JPG,AFNE01.JPG,,,,,,,,,,,,,,,,,3,9,39,9,,,,,,,AMNE03.jpg,AMSA16.jpg,AMSA14.jpg,AMNE15.jpg,AMNE15.jpg,MN,1,num_4,32,num_6,0.366777396761,,,2017_Apr_12_1301,60.0012893879,MAFE4ImagesEEG,001,100159,
AFNE01.JPG,AFNE01.JPG,AFNE01.JPG,AFNE01.JPG,AFNE01.JPG,AFNE01.JPG,,,,,,,,,,,,,,,,,4,0,40,8,,,,,,,AMSA20.jpg,AMNE11.jpg,AMNE13.jpg,AMSA01.jpg,AMSA20.jpg,MS,2,num_8,32,num_4,0.0334964506328,,,2017_Apr_12_1301,60.0012893879,MAFE4ImagesEEG,001,100159,
AFNE01.JPG,AFNE01.JPG,AFNE01.JPG,AFNE01.JPG,AFNE01.JPG,AFNE01.JPG,,,,,,,,,,,,,,,,,4,1,41,1,,,,,,,AMNE20.jpg,AMSA12.jpg,AMSA10.jpg,AMNE09.jpg,AMNE20.jpg,MN,1,num_8,32,num_6,0.266800265294,,,2017_Apr_12_1301,60.0012893879,MAFE4ImagesEEG,001,100159,
AFNE01.JPG,AFNE01.JPG,AFNE01.JPG,AFNE01.JPG,AFNE01.JPG,AFNE01.JPG,,,,,,,,,,,,,,,,,4,2,42,6,,,,,,,AMNE04.jpg,AMSA01.jpg,AMSA10.jpg,AMNE08.jpg,AMNE04.jpg,MN,1,num_8,16,num_8,0.350140307564,,,2017_Apr_12_1301,60.0012893879,MAFE4ImagesEEG,001,100159,
AFNE01.JPG,AFNE01.JPG,AFNE01.JPG,AFNE01.JPG,AFNE01.JPG,AFNE01.JPG,,,,,,,,,,,,,,,,,4,3,43,9,,,,,,,AMSA07.jpg,AMSA06.jpg,AMNE04.jpg,AMNE10.jpg,AMNE10.jpg,MN,1,num_4,32,num_2,0.566820183303,,,2017_Apr_12_1301,60.0012893879,MAFE4ImagesEEG,001,100159,
AFNE01.JPG,AFNE01.JPG,AFNE01.JPG,AFNE01.JPG,AFNE01.JPG,AFNE01.JPG,,,,,,,,,,,,,,,,,4,4,44,2,,,,,,,AMNE17.jpg,AMSA20.jpg,AMNE09.jpg,AMSA05.jpg,AMSA20.jpg,MS,2,num_6,32,num_4,0.350051783491,,,2017_Apr_12_1301,60.0012893879,MAFE4ImagesEEG,001,100159,
AFNE01.JPG,AFNE01.JPG,AFNE01.JPG,AFNE01.JPG,AFNE01.JPG,AFNE01.JPG,,,,,,,,,,,,,,,,,4,5,45,0,,,,,,,AMNE20.jpg,AMNE04.jpg,AMSA15.jpg,AMSA19.jpg,AMSA15.jpg,MS,2,num_2,32,num_6,0.25021513598,,,2017_Apr_12_1301,60.0012893879,MAFE4ImagesEEG,001,100159,
AFNE01.JPG,AFNE01.JPG,AFNE01.JPG,AFNE01.JPG,AFNE01.JPG,AFNE01.JPG,,,,,,,,,,,,,,,,,4,6,46,3,,,,,,,AMNE07.jpg,AMSA09.jpg,AMSA15.jpg,AMNE19.jpg,AMSA15.jpg,MS,2,num_2,16,num_2,0.350119780283,,,2017_Apr_12_1301,60.0012893879,MAFE4ImagesEEG,001,100159,
AFNE01.JPG,AFNE01.JPG,AFNE01.JPG,AFNE01.JPG,AFNE01.JPG,AFNE01.JPG,,,,,,,,,,,,,,,,,4,7,47,4,,,,,,,AMSA03.jpg,AMSA12.jpg,AMNE01.jpg,AMNE14.jpg,AMNE14.jpg,MN,1,num_4,16,num_4,0.333576988894,,,2017_Apr_12_1301,60.0012893879,MAFE4ImagesEEG,001,100159,
AFNE01.JPG,AFNE01.JPG,AFNE01.JPG,AFNE01.JPG,AFNE01.JPG,AFNE01.JPG,,,,,,,,,,,,,,,,,4,8,48,5,,,,,,,AMSA19.jpg,AMNE06.jpg,AMSA05.jpg,AMNE18.jpg,AMNE18.jpg,MN,1,num_4,32,num_8,0.483492329251,,,2017_Apr_12_1301,60.0012893879,MAFE4ImagesEEG,001,100159,
AFNE01.JPG,AFNE01.JPG,AFNE01.JPG,AFNE01.JPG,AFNE01.JPG,AFNE01.JPG,,,,,,,,,,,,,,,,,4,9,49,7,,,,,,,AMNE03.jpg,AMNE11.jpg,AMSA09.jpg,AMSA05.jpg,AMSA05.jpg,MS,2,num_4,32,num_6,0.250198457856,,,2017_Apr_12_1301,60.0012893879,MAFE4ImagesEEG,001,100159,
AFNE01.JPG,AFNE01.JPG,AFNE01.JPG,AFNE01.JPG,AFNE01.JPG,AFNE01.JPG,,,,,,,,,,,,,,,,,5,0,50,1,,,,,,,AMNE06.jpg,AMSA07.jpg,AMNE11.jpg,AMSA06.jpg,AMSA06.jpg,MS,2,num_4,16,num_4,0.300148213748,,,2017_Apr_12_1301,60.0012893879,MAFE4ImagesEEG,001,100159,
AFNE01.JPG,AFNE01.JPG,AFNE01.JPG,AFNE01.JPG,AFNE01.JPG,AFNE01.JPG,,,,,,,,,,,,,,,,,5,1,51,2,,,,,,,AMSA09.jpg,AMNE18.jpg,AMNE17.jpg,AMSA12.jpg,AMSA09.jpg,MS,2,num_8,16,num_8,0.350363221951,,,2017_Apr_12_1301,60.0012893879,MAFE4ImagesEEG,001,100159,
AFNE01.JPG,AFNE01.JPG,AFNE01.JPG,AFNE01.JPG,AFNE01.JPG,AFNE01.JPG,,,,,,,,,,,,,,,,,5,2,52,5,,,,,,,AMSA09.jpg,AMNE07.jpg,AMSA19.jpg,AMNE04.jpg,AMNE07.jpg,MN,1,num_6,32,num_2,0.350194192026,,,2017_Apr_12_1301,60.0012893879,MAFE4ImagesEEG,001,100159,
AFNE01.JPG,AFNE01.JPG,AFNE01.JPG,AFNE01.JPG,AFNE01.JPG,AFNE01.JPG,,,,,,,,,,,,,,,,,5,3,53,8,,,,,,,AMNE07.jpg,AMSA18.jpg,AMSA15.jpg,AMNE20.jpg,AMNE07.jpg,MN,1,num_8,32,num_4,0.300217172597,,,2017_Apr_12_1301,60.0012893879,MAFE4ImagesEEG,001,100159,
AFNE01.JPG,AFNE01.JPG,AFNE01.JPG,AFNE01.JPG,AFNE01.JPG,AFNE01.JPG,,,,,,,,,,,,,,,,,5,4,54,3,,,,,,,AMNE03.jpg,AMSA20.jpg,AMNE09.jpg,AMSA04.jpg,AMSA20.jpg,MS,2,num_6,16,num_6,0.300155269913,,,2017_Apr_12_1301,60.0012893879,MAFE4ImagesEEG,001,100159,
AFNE01.JPG,AFNE01.JPG,AFNE01.JPG,AFNE01.JPG,AFNE01.JPG,AFNE01.JPG,,,,,,,,,,,,,,,,,5,5,55,9,,,,,,,AMNE04.jpg,AMSA10.jpg,AMSA11.jpg,AMNE20.jpg,AMNE20.jpg,MN,1,num_4,32,num_8,0.300214927644,,,2017_Apr_12_1301,60.0012893879,MAFE4ImagesEEG,001,100159,
AFNE01.JPG,AFNE01.JPG,AFNE01.JPG,AFNE01.JPG,AFNE01.JPG,AFNE01.JPG,,,,,,,,,,,,,,,,,5,6,56,6,,,,,,,AMSA19.jpg,AMNE10.jpg,AMSA08.jpg,AMNE09.jpg,AMNE09.jpg,MN,1,num_4,32,num_2,0.433486443479,,,2017_Apr_12_1301,60.0012893879,MAFE4ImagesEEG,001,100159,
AFNE01.JPG,AFNE01.JPG,AFNE01.JPG,AFNE01.JPG,AFNE01.JPG,AFNE01.JPG,,,,,,,,,,,,,,,,,5,7,57,7,,,,,,,AMNE19.jpg,AMSA16.jpg,AMSA14.jpg,AMNE01.jpg,AMSA16.jpg,MS,2,num_6,32,num_4,0.400181795005,,,2017_Apr_12_1301,60.0012893879,MAFE4ImagesEEG,001,100159,
AFNE01.JPG,AFNE01.JPG,AFNE01.JPG,AFNE01.JPG,AFNE01.JPG,AFNE01.JPG,,,,,,,,,,,,,,,,,5,8,58,4,,,,,,,AMSA19.jpg,AMSA05.jpg,AMNE16.jpg,AMNE17.jpg,AMSA19.jpg,MS,2,num_8,32,num_6,0.366825507954,,,2017_Apr_12_1301,60.0012893879,MAFE4ImagesEEG,001,100159,
AFNE01.JPG,AFNE01.JPG,AFNE01.JPG,AFNE01.JPG,AFNE01.JPG,AFNE01.JPG,,,,,,,,,,,,,,,,,5,9,59,0,,,,,,,AMSA08.jpg,AMSA04.jpg,AMNE15.jpg,AMNE11.jpg,AMSA08.jpg,MS,2,num_8,32,num_4,0.266770116054,,,2017_Apr_12_1301,60.0012893879,MAFE4ImagesEEG,001,100159,
