IPosition2,IPosition3,IPosition1,IPosition6,IPosition4,IPosition5,TrialsF1.thisRepN,TrialsF1.thisTrialN,TrialsF1.thisN,TrialsF1.thisIndex,TrialsM1.thisRepN,TrialsM1.thisTrialN,TrialsM1.thisN,TrialsM1.thisIndex,TrialsF2.thisRepN,TrialsF2.thisTrialN,TrialsF2.thisN,TrialsF2.thisIndex,TrialsM2.thisRepN,TrialsM2.thisTrialN,TrialsM2.thisN,TrialsM2.thisIndex,TrialsF3.thisRepN,TrialsF3.thisTrialN,TrialsF3.thisN,TrialsF3.thisIndex,TrialsM3.thisRepN,TrialsM3.thisTrialN,TrialsM3.thisN,TrialsM3.thisIndex,InstrKey_resp.keys,InstrKey_resp.rt,Image0 _Position,Image1 _Position,Image2 _Position,Image3 _Position,Center_image,condition,code,correct_answer,accuracy,Key_Resp.keys,Key_Resp.rt,BreakKey_resp.keys,BreakKey_resp.rt,date,frameRate,expName,session,participant,
,,,,,,,,,,,,,,,,,,,,,,,,,,,,,,space,124.02418217,,,,,,,,,,,,,,2017_Apr_03_1834,59.9987491667,FEMA4ImagesEEG,001,100118,
AFNE22.JPG,AFSA24.JPG,AFSA22.JPG,AFNE25.JPG,AFNE24.JPG,AFSA25.JPG,0,0,0,6,,,,,,,,,,,,,,,,,,,,,,,AFNE17.jpg,AFSA03.jpg,AFNE16.jpg,AFSA11.jpg,AFSA03.jpg,FS,4,num_6,32,num_4,0.966859249631,,,2017_Apr_03_1834,59.9987491667,FEMA4ImagesEEG,001,100118,
AMSA25.JPG,AMNE24.JPG,AMSA24.JPG,AMNE26.JPG,AMSA21.JPG,AMNE25.JPG,0,1,1,3,,,,,,,,,,,,,,,,,,,,,,,AFSA08.jpg,AFNE18.jpg,AFNE09.jpg,AFSA09.jpg,AFNE18.jpg,FN,3,num_6,32,num_8,1.48347308487,,,2017_Apr_03_1834,59.9987491667,FEMA4ImagesEEG,001,100118,
AMNE23.JPG,AMNE24.JPG,AMNE22.JPG,AMSA24.JPG,AMSA22.JPG,AMSA23.JPG,0,2,2,9,,,,,,,,,,,,,,,,,,,,,,,AFNE12.jpg,AFSA15.jpg,AFSA13.jpg,AFNE09.jpg,AFSA15.jpg,FS,4,num_6,16,num_6,1.18341564061,,,2017_Apr_03_1834,59.9987491667,FEMA4ImagesEEG,001,100118,
AFSA21.JPG,AFNE22.JPG,AFNE21.JPG,AFSA23.JPG,AFSA22.JPG,AFNE23.JPG,0,3,3,0,,,,,,,,,,,,,,,,,,,,,,,AFSA11.jpg,AFNE12.jpg,AFNE09.jpg,AFSA01.jpg,AFNE12.jpg,FN,3,num_6,16,num_6,0.800145808142,,,2017_Apr_03_1834,59.9987491667,FEMA4ImagesEEG,001,100118,
AMSA21.JPG,AMNE23.JPG,AMNE21.JPG,AMSA25.JPG,AMNE25.JPG,AMSA23.JPG,0,4,4,5,,,,,,,,,,,,,,,,,,,,,,,AFNE15.jpg,AFSA19.jpg,AFNE18.jpg,AFSA12.jpg,AFNE18.jpg,FN,3,num_2,32,num_8,1.23347508954,,,2017_Apr_03_1834,59.9987491667,FEMA4ImagesEEG,001,100118,
AMNE22.JPG,AMSA24.JPG,AMSA22.JPG,AMNE25.JPG,AMNE24.JPG,AMSA25.JPG,0,5,5,7,,,,,,,,,,,,,,,,,,,,,,,AFNE08.jpg,AFNE14.jpg,AFSA07.jpg,AFSA02.jpg,AFNE14.jpg,FN,3,num_6,16,num_6,0.733475891408,,,2017_Apr_03_1834,59.9987491667,FEMA4ImagesEEG,001,100118,
AFSA25.JPG,AFNE24.JPG,AFSA24.JPG,AFNE21.JPG,AFSA21.JPG,AFNE25.JPG,0,6,6,2,,,,,,,,,,,,,,,,,,,,,,,AFSA11.jpg,AFSA12.jpg,AFNE15.jpg,AFNE12.jpg,AFNE12.jpg,FN,3,num_4,16,num_4,0.616804258665,,,2017_Apr_03_1834,59.9987491667,FEMA4ImagesEEG,001,100118,
AFNE23.JPG,AFNE24.JPG,AFNE22.JPG,AFSA24.JPG,AFSA22.JPG,AFSA23.JPG,0,7,7,8,,,,,,,,,,,,,,,,,,,,,,,AFSA09.jpg,AFNE01.jpg,AFNE17.jpg,AFSA11.jpg,AFNE01.jpg,FN,3,num_6,16,num_6,0.883494831156,,,2017_Apr_03_1834,59.9987491667,FEMA4ImagesEEG,001,100118,
AFSA21.JPG,AFNE23.JPG,AFNE21.JPG,AFSA25.JPG,AFNE25.JPG,AFSA23.JPG,0,8,8,4,,,,,,,,,,,,,,,,,,,,,,,AFNE13.jpg,AFSA03.jpg,AFSA14.jpg,AFNE11.jpg,AFNE11.jpg,FN,3,num_4,32,num_6,1.58341236901,,,2017_Apr_03_1834,59.9987491667,FEMA4ImagesEEG,001,100118,
AMSA21.JPG,AMNE22.JPG,AMNE21.JPG,AMSA23.JPG,AMSA22.JPG,AMNE23.JPG,0,9,9,1,,,,,,,,,,,,,,,,,,,,,,,AFSA05.jpg,AFNE07.jpg,AFSA18.jpg,AFNE10.jpg,AFNE10.jpg,FN,3,num_4,32,num_6,0.900112675736,,,2017_Apr_03_1834,59.9987491667,FEMA4ImagesEEG,001,100118,
AFSA21.JPG,AFNE22.JPG,AFNE21.JPG,AFSA23.JPG,AFSA22.JPG,AFNE23.JPG,,,,,0,0,0,0,,,,,,,,,,,,,,,,,,,AMNE07.jpg,AMNE05.jpg,AMSA09.jpg,AMSA04.jpg,AMNE07.jpg,MN,1,num_8,32,num_6,0.816756596789,,,2017_Apr_03_1834,59.9987491667,FEMA4ImagesEEG,001,100118,
AFSA21.JPG,AFNE23.JPG,AFNE21.JPG,AFSA25.JPG,AFNE25.JPG,AFSA23.JPG,,,,,0,1,1,4,,,,,,,,,,,,,,,,,,,AMSA13.jpg,AMSA17.jpg,AMNE02.jpg,AMNE08.jpg,AMSA13.jpg,MS,2,num_8,32,num_6,0.950163785834,,,2017_Apr_03_1834,59.9987491667,FEMA4ImagesEEG,001,100118,
AFNE23.JPG,AFNE24.JPG,AFNE22.JPG,AFSA24.JPG,AFSA22.JPG,AFSA23.JPG,,,,,0,2,2,8,,,,,,,,,,,,,,,,,,,AMNE18.jpg,AMSA17.jpg,AMSA19.jpg,AMNE14.jpg,AMSA19.jpg,MS,2,num_2,16,num_2,1.0834025864,,,2017_Apr_03_1834,59.9987491667,FEMA4ImagesEEG,001,100118,
AMNE22.JPG,AMSA24.JPG,AMSA22.JPG,AMNE25.JPG,AMNE24.JPG,AMSA25.JPG,,,,,0,3,3,7,,,,,,,,,,,,,,,,,,,AMSA02.jpg,AMNE06.jpg,AMNE05.jpg,AMSA06.jpg,AMSA06.jpg,MS,2,num_4,32,num_6,1.86674836976,,,2017_Apr_03_1834,59.9987491667,FEMA4ImagesEEG,001,100118,
AMNE23.JPG,AMNE24.JPG,AMNE22.JPG,AMSA24.JPG,AMSA22.JPG,AMSA23.JPG,,,,,0,4,4,9,,,,,,,,,,,,,,,,,,,AMSA16.jpg,AMNE13.jpg,AMNE08.jpg,AMSA18.jpg,AMNE08.jpg,MN,1,num_2,16,num_2,0.833514283877,,,2017_Apr_03_1834,59.9987491667,FEMA4ImagesEEG,001,100118,
AFSA25.JPG,AFNE24.JPG,AFSA24.JPG,AFNE21.JPG,AFSA21.JPG,AFNE25.JPG,,,,,0,5,5,2,,,,,,,,,,,,,,,,,,,AMSA09.jpg,AMSA14.jpg,AMNE04.jpg,AMNE07.jpg,AMSA09.jpg,MS,2,num_8,16,num_8,1.25014393195,,,2017_Apr_03_1834,59.9987491667,FEMA4ImagesEEG,001,100118,
AFNE22.JPG,AFSA24.JPG,AFSA22.JPG,AFNE25.JPG,AFNE24.JPG,AFSA25.JPG,,,,,0,6,6,6,,,,,,,,,,,,,,,,,,,AMNE10.jpg,AMSA18.jpg,AMSA01.jpg,AMNE13.jpg,AMNE13.jpg,MN,1,num_4,32,num_8,1.21678828564,,,2017_Apr_03_1834,59.9987491667,FEMA4ImagesEEG,001,100118,
AMSA25.JPG,AMNE24.JPG,AMSA24.JPG,AMNE26.JPG,AMSA21.JPG,AMNE25.JPG,,,,,0,7,7,3,,,,,,,,,,,,,,,,,,,AMSA19.jpg,AMNE05.jpg,AMNE09.jpg,AMSA14.jpg,AMNE05.jpg,MN,1,num_6,32,num_2,1.05011429568,,,2017_Apr_03_1834,59.9987491667,FEMA4ImagesEEG,001,100118,
AMSA21.JPG,AMNE22.JPG,AMNE21.JPG,AMSA23.JPG,AMSA22.JPG,AMNE23.JPG,,,,,0,8,8,1,,,,,,,,,,,,,,,,,,,AMSA16.jpg,AMNE06.jpg,AMNE02.jpg,AMSA07.jpg,AMSA07.jpg,MS,2,num_4,16,num_4,1.76673916448,,,2017_Apr_03_1834,59.9987491667,FEMA4ImagesEEG,001,100118,
AMSA21.JPG,AMNE23.JPG,AMNE21.JPG,AMSA25.JPG,AMNE25.JPG,AMSA23.JPG,,,,,0,9,9,5,,,,,,,,,,,,,,,,,,,AMSA11.jpg,AMSA06.jpg,AMNE01.jpg,AMNE20.jpg,AMNE20.jpg,MN,1,num_4,16,num_4,0.700011514593,,,2017_Apr_03_1834,59.9987491667,FEMA4ImagesEEG,001,100118,
AMNE22.JPG,AMSA24.JPG,AMSA22.JPG,AMNE25.JPG,AMNE24.JPG,AMSA25.JPG,,,,,,,,,0,0,0,7,,,,,,,,,,,,,,,AFSA15.jpg,AFNE10.jpg,AFSA02.jpg,AFNE04.jpg,AFNE04.jpg,FN,3,num_4,32,num_6,0.783447137102,,,2017_Apr_03_1834,59.9987491667,FEMA4ImagesEEG,001,100118,
AMSA21.JPG,AMNE22.JPG,AMNE21.JPG,AMSA23.JPG,AMSA22.JPG,AMNE23.JPG,,,,,,,,,0,1,1,1,,,,,,,,,,,,,,,AFSA01.jpg,AFNE10.jpg,AFNE16.jpg,AFSA17.jpg,AFNE16.jpg,FN,3,num_2,16,num_2,1.13342386764,,,2017_Apr_03_1834,59.9987491667,FEMA4ImagesEEG,001,100118,
AFSA21.JPG,AFNE23.JPG,AFNE21.JPG,AFSA25.JPG,AFNE25.JPG,AFSA23.JPG,,,,,,,,,0,2,2,4,,,,,,,,,,,,,,,AFSA08.jpg,AFNE10.jpg,AFNE16.jpg,AFSA04.jpg,AFNE10.jpg,FN,3,num_6,16,num_6,0.749823994003,,,2017_Apr_03_1834,59.9987491667,FEMA4ImagesEEG,001,100118,
AMSA25.JPG,AMNE24.JPG,AMSA24.JPG,AMNE26.JPG,AMSA21.JPG,AMNE25.JPG,,,,,,,,,0,3,3,3,,,,,,,,,,,,,,,AFSA14.jpg,AFNE18.jpg,AFSA01.jpg,AFNE15.jpg,AFSA14.jpg,FS,4,num_8,32,num_2,1.01672561327,,,2017_Apr_03_1834,59.9987491667,FEMA4ImagesEEG,001,100118,
AMNE23.JPG,AMNE24.JPG,AMNE22.JPG,AMSA24.JPG,AMSA22.JPG,AMSA23.JPG,,,,,,,,,0,4,4,9,,,,,,,,,,,,,,,AFNE14.jpg,AFNE17.jpg,AFSA12.jpg,AFSA18.jpg,AFSA12.jpg,FS,4,num_2,16,num_2,1.26673194789,,,2017_Apr_03_1834,59.9987491667,FEMA4ImagesEEG,001,100118,
AFSA25.JPG,AFNE24.JPG,AFSA24.JPG,AFNE21.JPG,AFSA21.JPG,AFNE25.JPG,,,,,,,,,0,5,5,2,,,,,,,,,,,,,,,AFSA18.jpg,AFNE07.jpg,AFNE08.jpg,AFSA12.jpg,AFSA18.jpg,FS,4,num_8,32,num_4,1.55004196893,,,2017_Apr_03_1834,59.9987491667,FEMA4ImagesEEG,001,100118,
AFNE23.JPG,AFNE24.JPG,AFNE22.JPG,AFSA24.JPG,AFSA22.JPG,AFSA23.JPG,,,,,,,,,0,6,6,8,,,,,,,,,,,,,,,AFSA05.jpg,AFNE16.jpg,AFNE02.jpg,AFSA20.jpg,AFSA05.jpg,FS,4,num_8,16,num_8,0.666801805142,,,2017_Apr_03_1834,59.9987491667,FEMA4ImagesEEG,001,100118,
AFSA21.JPG,AFNE22.JPG,AFNE21.JPG,AFSA23.JPG,AFSA22.JPG,AFNE23.JPG,,,,,,,,,0,7,7,0,,,,,,,,,,,,,,,AFNE10.jpg,AFNE19.jpg,AFSA09.jpg,AFSA12.jpg,AFSA09.jpg,FS,4,num_2,32,num_4,1.60009115422,,,2017_Apr_03_1834,59.9987491667,FEMA4ImagesEEG,001,100118,
AFNE22.JPG,AFSA24.JPG,AFSA22.JPG,AFNE25.JPG,AFNE24.JPG,AFSA25.JPG,,,,,,,,,0,8,8,6,,,,,,,,,,,,,,,AFNE09.jpg,AFNE05.jpg,AFSA06.jpg,AFSA05.jpg,AFSA05.jpg,FS,4,num_4,16,num_4,0.816789632896,,,2017_Apr_03_1834,59.9987491667,FEMA4ImagesEEG,001,100118,
AMSA21.JPG,AMNE23.JPG,AMNE21.JPG,AMSA25.JPG,AMNE25.JPG,AMSA23.JPG,,,,,,,,,0,9,9,5,,,,,,,,,,,,,,,AFSA02.jpg,AFSA07.jpg,AFNE08.jpg,AFNE20.jpg,AFNE20.jpg,FN,3,num_4,32,num_2,1.0170370515,,,2017_Apr_03_1834,59.9987491667,FEMA4ImagesEEG,001,100118,
AFSA25.JPG,AFNE24.JPG,AFSA24.JPG,AFNE21.JPG,AFSA21.JPG,AFNE25.JPG,,,,,,,,,,,,,0,0,0,2,,,,,,,,,,,AMNE13.jpg,AMSA18.jpg,AMNE08.jpg,AMSA12.jpg,AMNE08.jpg,MN,1,num_2,16,num_2,1.66674150596,,,2017_Apr_03_1834,59.9987491667,FEMA4ImagesEEG,001,100118,
AMNE23.JPG,AMNE24.JPG,AMNE22.JPG,AMSA24.JPG,AMSA22.JPG,AMSA23.JPG,,,,,,,,,,,,,0,1,1,9,,,,,,,,,,,AMNE07.jpg,AMSA09.jpg,AMNE12.jpg,AMSA12.jpg,AMNE07.jpg,MN,1,num_8,16,num_8,1.23342473363,,,2017_Apr_03_1834,59.9987491667,FEMA4ImagesEEG,001,100118,
AFSA21.JPG,AFNE23.JPG,AFNE21.JPG,AFSA25.JPG,AFNE25.JPG,AFSA23.JPG,,,,,,,,,,,,,0,2,2,4,,,,,,,,,,,AMSA17.jpg,AMNE06.jpg,AMNE14.jpg,AMSA16.jpg,AMNE06.jpg,MN,1,num_6,16,num_6,0.750118433265,,,2017_Apr_03_1834,59.9987491667,FEMA4ImagesEEG,001,100118,
AMSA25.JPG,AMNE24.JPG,AMSA24.JPG,AMNE26.JPG,AMSA21.JPG,AMNE25.JPG,,,,,,,,,,,,,0,3,3,3,,,,,,,,,,,AMNE17.jpg,AMSA06.jpg,AMNE11.jpg,AMSA01.jpg,AMSA01.jpg,MS,2,num_4,16,num_4,1.66669724393,,,2017_Apr_03_1834,59.9987491667,FEMA4ImagesEEG,001,100118,
AMSA21.JPG,AMNE22.JPG,AMNE21.JPG,AMSA23.JPG,AMSA22.JPG,AMNE23.JPG,,,,,,,,,,,,,0,4,4,1,,,,,,,,,,,AMNE07.jpg,AMSA02.jpg,AMNE10.jpg,AMSA19.jpg,AMNE10.jpg,MN,1,num_2,32,num_8,0.983479339397,,,2017_Apr_03_1834,59.9987491667,FEMA4ImagesEEG,001,100118,
AMNE22.JPG,AMSA24.JPG,AMSA22.JPG,AMNE25.JPG,AMNE24.JPG,AMSA25.JPG,,,,,,,,,,,,,0,5,5,7,,,,,,,,,,,AMNE15.jpg,AMSA18.jpg,AMNE07.jpg,AMSA11.jpg,AMNE07.jpg,MN,1,num_2,32,num_8,0.899996568216,,,2017_Apr_03_1834,59.9987491667,FEMA4ImagesEEG,001,100118,
AFNE22.JPG,AFSA24.JPG,AFSA22.JPG,AFNE25.JPG,AFNE24.JPG,AFSA25.JPG,,,,,,,,,,,,,0,6,6,6,,,,,,,,,,,AMNE10.jpg,AMNE05.jpg,AMSA01.jpg,AMSA13.jpg,AMNE10.jpg,MN,1,num_8,16,num_8,0.866761520039,,,2017_Apr_03_1834,59.9987491667,FEMA4ImagesEEG,001,100118,
AFNE23.JPG,AFNE24.JPG,AFNE22.JPG,AFSA24.JPG,AFSA22.JPG,AFSA23.JPG,,,,,,,,,,,,,0,7,7,8,,,,,,,,,,,AMNE18.jpg,AMSA09.jpg,AMNE20.jpg,AMSA04.jpg,AMSA04.jpg,MS,2,num_4,16,num_4,0.966801195405,,,2017_Apr_03_1834,59.9987491667,FEMA4ImagesEEG,001,100118,
AFSA21.JPG,AFNE22.JPG,AFNE21.JPG,AFSA23.JPG,AFSA22.JPG,AFNE23.JPG,,,,,,,,,,,,,0,8,8,0,,,,,,,,,,,AMSA02.jpg,AMNE14.jpg,AMNE05.jpg,AMSA11.jpg,AMNE14.jpg,MN,1,num_6,16,num_6,0.733439968666,,,2017_Apr_03_1834,59.9987491667,FEMA4ImagesEEG,001,100118,
AMSA21.JPG,AMNE23.JPG,AMNE21.JPG,AMSA25.JPG,AMNE25.JPG,AMSA23.JPG,,,,,,,,,,,,,0,9,9,5,,,,,,,,,,,AMSA07.jpg,AMNE08.jpg,AMNE11.jpg,AMSA09.jpg,AMNE08.jpg,MN,1,num_6,16,num_6,0.83345462638,,,2017_Apr_03_1834,59.9987491667,FEMA4ImagesEEG,001,100118,
AFSA25.JPG,AFNE24.JPG,AFSA24.JPG,AFNE21.JPG,AFSA21.JPG,AFNE25.JPG,,,,,,,,,,,,,,,,,0,0,0,2,,,,,,,AFSA05.jpg,AFNE08.jpg,AFSA13.jpg,AFNE07.jpg,AFSA13.jpg,FS,4,num_2,32,num_8,1.05036254809,,,2017_Apr_03_1834,59.9987491667,FEMA4ImagesEEG,001,100118,
AFNE22.JPG,AFSA24.JPG,AFSA22.JPG,AFNE25.JPG,AFNE24.JPG,AFSA25.JPG,,,,,,,,,,,,,,,,,0,1,1,6,,,,,,,AFNE12.jpg,AFSA09.jpg,AFNE13.jpg,AFSA20.jpg,AFSA09.jpg,FS,4,num_6,16,num_6,0.799870613497,,,2017_Apr_03_1834,59.9987491667,FEMA4ImagesEEG,001,100118,
AMSA21.JPG,AMNE22.JPG,AMNE21.JPG,AMSA23.JPG,AMSA22.JPG,AMNE23.JPG,,,,,,,,,,,,,,,,,0,2,2,1,,,,,,,AFNE08.jpg,AFSA08.jpg,AFSA10.jpg,AFNE16.jpg,AFNE08.jpg,FN,3,num_8,32,num_2,0.716766315047,,,2017_Apr_03_1834,59.9987491667,FEMA4ImagesEEG,001,100118,
AFSA21.JPG,AFNE22.JPG,AFNE21.JPG,AFSA23.JPG,AFSA22.JPG,AFNE23.JPG,,,,,,,,,,,,,,,,,0,3,3,0,,,,,,,AFSA10.jpg,AFNE02.jpg,AFNE15.jpg,AFSA09.jpg,AFSA10.jpg,FS,4,num_8,16,num_8,1.03346116957,,,2017_Apr_03_1834,59.9987491667,FEMA4ImagesEEG,001,100118,
AFNE23.JPG,AFNE24.JPG,AFNE22.JPG,AFSA24.JPG,AFSA22.JPG,AFSA23.JPG,,,,,,,,,,,,,,,,,0,4,4,8,,,,,,,AFNE20.jpg,AFNE07.jpg,AFSA10.jpg,AFSA15.jpg,AFSA10.jpg,FS,4,num_2,16,num_2,0.833448853111,,,2017_Apr_03_1834,59.9987491667,FEMA4ImagesEEG,001,100118,
AMSA21.JPG,AMNE23.JPG,AMNE21.JPG,AMSA25.JPG,AMNE25.JPG,AMSA23.JPG,,,,,,,,,,,,,,,,,0,5,5,5,,,,,,,AFSA02.jpg,AFSA13.jpg,AFNE04.jpg,AFNE03.jpg,AFSA02.jpg,FS,4,num_8,32,num_6,0.983458170667,,,2017_Apr_03_1834,59.9987491667,FEMA4ImagesEEG,001,100118,
AMSA25.JPG,AMNE24.JPG,AMSA24.JPG,AMNE26.JPG,AMSA21.JPG,AMNE25.JPG,,,,,,,,,,,,,,,,,0,6,6,3,,,,,,,AFSA01.jpg,AFNE15.jpg,AFSA10.jpg,AFNE10.jpg,AFNE15.jpg,FN,3,num_6,16,num_6,0.816814329941,,,2017_Apr_03_1834,59.9987491667,FEMA4ImagesEEG,001,100118,
AMNE23.JPG,AMNE24.JPG,AMNE22.JPG,AMSA24.JPG,AMSA22.JPG,AMSA23.JPG,,,,,,,,,,,,,,,,,0,7,7,9,,,,,,,AFSA04.jpg,AFSA05.jpg,AFNE10.jpg,AFNE02.jpg,AFSA05.jpg,FS,4,num_6,32,num_4,0.966768800747,,,2017_Apr_03_1834,59.9987491667,FEMA4ImagesEEG,001,100118,
AMNE22.JPG,AMSA24.JPG,AMSA22.JPG,AMNE25.JPG,AMNE24.JPG,AMSA25.JPG,,,,,,,,,,,,,,,,,0,8,8,7,,,,,,,AFNE04.jpg,AFNE20.jpg,AFSA03.jpg,AFSA09.jpg,AFSA03.jpg,FS,4,num_2,16,num_2,0.933151751757,,,2017_Apr_03_1834,59.9987491667,FEMA4ImagesEEG,001,100118,
AFSA21.JPG,AFNE23.JPG,AFNE21.JPG,AFSA25.JPG,AFNE25.JPG,AFSA23.JPG,,,,,,,,,,,,,,,,,0,9,9,4,,,,,,,AFSA03.jpg,AFNE13.jpg,AFNE07.jpg,AFSA11.jpg,AFSA11.jpg,FS,4,num_4,16,num_4,0.85018408834,,,2017_Apr_03_1834,59.9987491667,FEMA4ImagesEEG,001,100118,
AFSA21.JPG,AFNE23.JPG,AFNE21.JPG,AFSA25.JPG,AFNE25.JPG,AFSA23.JPG,,,,,,,,,,,,,,,,,,,,,0,0,0,4,,,AMSA07.jpg,AMSA03.jpg,AMNE19.jpg,AMNE03.jpg,AMSA07.jpg,MS,2,num_8,16,num_8,1.16675417521,,,2017_Apr_03_1834,59.9987491667,FEMA4ImagesEEG,001,100118,
AFNE22.JPG,AFSA24.JPG,AFSA22.JPG,AFNE25.JPG,AFNE24.JPG,AFSA25.JPG,,,,,,,,,,,,,,,,,,,,,0,1,1,6,,,AMSA13.jpg,AMNE08.jpg,AMSA16.jpg,AMNE18.jpg,AMNE18.jpg,MN,1,num_4,16,num_4,0.933435285697,,,2017_Apr_03_1834,59.9987491667,FEMA4ImagesEEG,001,100118,
AFNE23.JPG,AFNE24.JPG,AFNE22.JPG,AFSA24.JPG,AFSA22.JPG,AFSA23.JPG,,,,,,,,,,,,,,,,,,,,,0,2,2,8,,,AMSA15.jpg,AMNE14.jpg,AMNE09.jpg,AMSA02.jpg,AMNE09.jpg,MN,1,num_2,16,num_2,1.28331386996,,,2017_Apr_03_1834,59.9987491667,FEMA4ImagesEEG,001,100118,
AMSA21.JPG,AMNE23.JPG,AMNE21.JPG,AMSA25.JPG,AMNE25.JPG,AMSA23.JPG,,,,,,,,,,,,,,,,,,,,,0,3,3,5,,,AMSA13.jpg,AMNE12.jpg,AMSA18.jpg,AMNE17.jpg,AMSA18.jpg,MS,2,num_2,16,num_2,0.950105090393,,,2017_Apr_03_1834,59.9987491667,FEMA4ImagesEEG,001,100118,
AFSA25.JPG,AFNE24.JPG,AFSA24.JPG,AFNE21.JPG,AFSA21.JPG,AFNE25.JPG,,,,,,,,,,,,,,,,,,,,,0,4,4,2,,,AMNE11.jpg,AMNE16.jpg,AMSA04.jpg,AMSA11.jpg,AMSA04.jpg,MS,2,num_2,16,num_2,0.80010475358,,,2017_Apr_03_1834,59.9987491667,FEMA4ImagesEEG,001,100118,
AMNE22.JPG,AMSA24.JPG,AMSA22.JPG,AMNE25.JPG,AMNE24.JPG,AMSA25.JPG,,,,,,,,,,,,,,,,,,,,,0,5,5,7,,,AMSA17.jpg,AMNE03.jpg,AMNE06.jpg,AMSA11.jpg,AMSA17.jpg,MS,2,num_8,16,num_8,1.08345230087,,,2017_Apr_03_1834,59.9987491667,FEMA4ImagesEEG,001,100118,
AMSA25.JPG,AMNE24.JPG,AMSA24.JPG,AMNE26.JPG,AMSA21.JPG,AMNE25.JPG,,,,,,,,,,,,,,,,,,,,,0,6,6,3,,,AMSA17.jpg,AMSA08.jpg,AMNE02.jpg,AMNE13.jpg,AMSA17.jpg,MS,2,num_8,16,num_8,0.783518982818,,,2017_Apr_03_1834,59.9987491667,FEMA4ImagesEEG,001,100118,
AMSA21.JPG,AMNE22.JPG,AMNE21.JPG,AMSA23.JPG,AMSA22.JPG,AMNE23.JPG,,,,,,,,,,,,,,,,,,,,,0,7,7,1,,,AMNE02.jpg,AMNE20.jpg,AMSA03.jpg,AMSA13.jpg,AMNE02.jpg,MN,1,num_8,16,num_8,1.11674123327,,,2017_Apr_03_1834,59.9987491667,FEMA4ImagesEEG,001,100118,
AFSA21.JPG,AFNE22.JPG,AFNE21.JPG,AFSA23.JPG,AFSA22.JPG,AFNE23.JPG,,,,,,,,,,,,,,,,,,,,,0,8,8,0,,,AMSA16.jpg,AMNE06.jpg,AMSA05.jpg,AMNE16.jpg,AMNE16.jpg,MN,1,num_4,16,num_4,0.833482851507,,,2017_Apr_03_1834,59.9987491667,FEMA4ImagesEEG,001,100118,
AMNE23.JPG,AMNE24.JPG,AMNE22.JPG,AMSA24.JPG,AMSA22.JPG,AMSA23.JPG,,,,,,,,,,,,,,,,,,,,,0,9,9,9,,,AMNE15.jpg,AMNE13.jpg,AMSA13.jpg,AMSA05.jpg,AMSA13.jpg,MS,2,num_2,16,num_2,1.01646036166,,,2017_Apr_03_1834,59.9987491667,FEMA4ImagesEEG,001,100118,
,,,,,,,,,,,,,,,,,,,,,,,,,,,,,,,,,,,,,,,,,,,space,6.59966296679,2017_Apr_03_1834,59.9987491667,FEMA4ImagesEEG,001,100118,
AFNE01.JPG,AFNE01.JPG,AFNE01.JPG,AFNE01.JPG,AFNE01.JPG,AFNE01.JPG,0,0,0,0,,,,,,,,,,,,,,,,,,,,,,,AFSA08.jpg,AFSA16.jpg,AFNE07.jpg,AFNE03.jpg,AFNE03.jpg,FN,3,num_4,16,num_4,0.566839748528,,,2017_Apr_03_1834,59.9987491667,FEMA4ImagesEEG,001,100118,
AFNE01.JPG,AFNE01.JPG,AFNE01.JPG,AFNE01.JPG,AFNE01.JPG,AFNE01.JPG,0,1,1,8,,,,,,,,,,,,,,,,,,,,,,,AFNE12.jpg,AFSA07.jpg,AFSA13.jpg,AFNE03.jpg,AFNE12.jpg,FN,3,num_8,16,num_8,0.783452910371,,,2017_Apr_03_1834,59.9987491667,FEMA4ImagesEEG,001,100118,
AFNE01.JPG,AFNE01.JPG,AFNE01.JPG,AFNE01.JPG,AFNE01.JPG,AFNE01.JPG,0,2,2,9,,,,,,,,,,,,,,,,,,,,,,,AFNE06.jpg,AFSA12.jpg,AFSA07.jpg,AFNE14.jpg,AFNE14.jpg,FN,3,num_4,16,num_4,0.683482835535,,,2017_Apr_03_1834,59.9987491667,FEMA4ImagesEEG,001,100118,
AFNE01.JPG,AFNE01.JPG,AFNE01.JPG,AFNE01.JPG,AFNE01.JPG,AFNE01.JPG,0,3,3,4,,,,,,,,,,,,,,,,,,,,,,,AFNE08.jpg,AFSA10.jpg,AFNE15.jpg,AFSA16.jpg,AFSA16.jpg,FS,4,num_4,32,num_6,1.13347197836,,,2017_Apr_03_1834,59.9987491667,FEMA4ImagesEEG,001,100118,
AFNE01.JPG,AFNE01.JPG,AFNE01.JPG,AFNE01.JPG,AFNE01.JPG,AFNE01.JPG,0,4,4,3,,,,,,,,,,,,,,,,,,,,,,,AFSA10.jpg,AFNE04.jpg,AFNE11.jpg,AFSA15.jpg,AFSA10.jpg,FS,4,num_8,32,num_4,0.800117583247,,,2017_Apr_03_1834,59.9987491667,FEMA4ImagesEEG,001,100118,
AFNE01.JPG,AFNE01.JPG,AFNE01.JPG,AFNE01.JPG,AFNE01.JPG,AFNE01.JPG,0,5,5,5,,,,,,,,,,,,,,,,,,,,,,,AFNE11.jpg,AFSA19.jpg,AFSA09.jpg,AFNE12.jpg,AFSA09.jpg,FS,4,num_2,32,num_6,1.00010937219,,,2017_Apr_03_1834,59.9987491667,FEMA4ImagesEEG,001,100118,
AFNE01.JPG,AFNE01.JPG,AFNE01.JPG,AFNE01.JPG,AFNE01.JPG,AFNE01.JPG,0,6,6,1,,,,,,,,,,,,,,,,,,,,,,,AFNE10.jpg,AFSA19.jpg,AFSA18.jpg,AFNE13.jpg,AFSA19.jpg,FS,4,num_6,32,num_2,1.80025421828,,,2017_Apr_03_1834,59.9987491667,FEMA4ImagesEEG,001,100118,
AFNE01.JPG,AFNE01.JPG,AFNE01.JPG,AFNE01.JPG,AFNE01.JPG,AFNE01.JPG,0,7,7,7,,,,,,,,,,,,,,,,,,,,,,,AFNE08.jpg,AFSA15.jpg,AFNE17.jpg,AFSA06.jpg,AFNE08.jpg,FN,3,num_8,16,num_8,0.783473117044,,,2017_Apr_03_1834,59.9987491667,FEMA4ImagesEEG,001,100118,
AFNE01.JPG,AFNE01.JPG,AFNE01.JPG,AFNE01.JPG,AFNE01.JPG,AFNE01.JPG,0,8,8,6,,,,,,,,,,,,,,,,,,,,,,,AFNE15.jpg,AFSA07.jpg,AFNE08.jpg,AFSA20.jpg,AFSA07.jpg,FS,4,num_6,32,num_2,1.21679726662,,,2017_Apr_03_1834,59.9987491667,FEMA4ImagesEEG,001,100118,
AFNE01.JPG,AFNE01.JPG,AFNE01.JPG,AFNE01.JPG,AFNE01.JPG,AFNE01.JPG,0,9,9,2,,,,,,,,,,,,,,,,,,,,,,,AFSA20.jpg,AFNE12.jpg,AFNE17.jpg,AFSA11.jpg,AFSA20.jpg,FS,4,num_8,32,num_4,0.916821931489,,,2017_Apr_03_1834,59.9987491667,FEMA4ImagesEEG,001,100118,
AFNE01.JPG,AFNE01.JPG,AFNE01.JPG,AFNE01.JPG,AFNE01.JPG,AFNE01.JPG,1,0,10,2,,,,,,,,,,,,,,,,,,,,,,,AFSA16.jpg,AFSA10.jpg,AFNE04.jpg,AFNE14.jpg,AFNE04.jpg,FN,3,num_2,32,num_4,0.983453038847,,,2017_Apr_03_1834,59.9987491667,FEMA4ImagesEEG,001,100118,
AFNE01.JPG,AFNE01.JPG,AFNE01.JPG,AFNE01.JPG,AFNE01.JPG,AFNE01.JPG,1,1,11,0,,,,,,,,,,,,,,,,,,,,,,,AFNE15.jpg,AFSA15.jpg,AFSA07.jpg,AFNE04.jpg,AFSA15.jpg,FS,4,num_6,16,num_6,0.800148053328,,,2017_Apr_03_1834,59.9987491667,FEMA4ImagesEEG,001,100118,
AFNE01.JPG,AFNE01.JPG,AFNE01.JPG,AFNE01.JPG,AFNE01.JPG,AFNE01.JPG,1,2,12,9,,,,,,,,,,,,,,,,,,,,,,,AFSA06.jpg,AFNE13.jpg,AFSA09.jpg,AFNE01.jpg,AFNE13.jpg,FN,3,num_6,16,num_6,0.716817954322,,,2017_Apr_03_1834,59.9987491667,FEMA4ImagesEEG,001,100118,
AFNE01.JPG,AFNE01.JPG,AFNE01.JPG,AFNE01.JPG,AFNE01.JPG,AFNE01.JPG,1,3,13,4,,,,,,,,,,,,,,,,,,,,,,,AFSA19.jpg,AFSA09.jpg,AFNE03.jpg,AFNE09.jpg,AFSA09.jpg,FS,4,num_6,16,num_6,1.11674764822,,,2017_Apr_03_1834,59.9987491667,FEMA4ImagesEEG,001,100118,
AFNE01.JPG,AFNE01.JPG,AFNE01.JPG,AFNE01.JPG,AFNE01.JPG,AFNE01.JPG,1,4,14,1,,,,,,,,,,,,,,,,,,,,,,,AFSA07.jpg,AFNE14.jpg,AFSA10.jpg,AFNE04.jpg,AFNE14.jpg,FN,3,num_6,32,num_4,1.63342274493,,,2017_Apr_03_1834,59.9987491667,FEMA4ImagesEEG,001,100118,
AFNE01.JPG,AFNE01.JPG,AFNE01.JPG,AFNE01.JPG,AFNE01.JPG,AFNE01.JPG,1,5,15,8,,,,,,,,,,,,,,,,,,,,,,,AFNE13.jpg,AFSA11.jpg,AFSA08.jpg,AFNE19.jpg,AFSA08.jpg,FS,4,num_2,16,num_2,1.3000805378,,,2017_Apr_03_1834,59.9987491667,FEMA4ImagesEEG,001,100118,
AFNE01.JPG,AFNE01.JPG,AFNE01.JPG,AFNE01.JPG,AFNE01.JPG,AFNE01.JPG,1,6,16,5,,,,,,,,,,,,,,,,,,,,,,,AFNE04.jpg,AFNE03.jpg,AFSA07.jpg,AFSA03.jpg,AFSA03.jpg,FS,4,num_4,16,num_4,0.883441908984,,,2017_Apr_03_1834,59.9987491667,FEMA4ImagesEEG,001,100118,
AFNE01.JPG,AFNE01.JPG,AFNE01.JPG,AFNE01.JPG,AFNE01.JPG,AFNE01.JPG,1,7,17,7,,,,,,,,,,,,,,,,,,,,,,,AFNE05.jpg,AFSA08.jpg,AFSA14.jpg,AFNE01.jpg,AFSA08.jpg,FS,4,num_6,32,num_2,1.00014176685,,,2017_Apr_03_1834,59.9987491667,FEMA4ImagesEEG,001,100118,
AFNE01.JPG,AFNE01.JPG,AFNE01.JPG,AFNE01.JPG,AFNE01.JPG,AFNE01.JPG,1,8,18,3,,,,,,,,,,,,,,,,,,,,,,,AFSA16.jpg,AFSA06.jpg,AFNE07.jpg,AFNE02.jpg,AFNE07.jpg,FN,3,num_2,32,num_4,1.0334579621,,,2017_Apr_03_1834,59.9987491667,FEMA4ImagesEEG,001,100118,
AFNE01.JPG,AFNE01.JPG,AFNE01.JPG,AFNE01.JPG,AFNE01.JPG,AFNE01.JPG,1,9,19,6,,,,,,,,,,,,,,,,,,,,,,,AFNE11.jpg,AFSA19.jpg,AFNE08.jpg,AFSA11.jpg,AFSA19.jpg,FS,4,num_6,16,num_6,1.26676658774,,,2017_Apr_03_1834,59.9987491667,FEMA4ImagesEEG,001,100118,
AFNE01.JPG,AFNE01.JPG,AFNE01.JPG,AFNE01.JPG,AFNE01.JPG,AFNE01.JPG,2,0,20,3,,,,,,,,,,,,,,,,,,,,,,,AFNE16.jpg,AFSA15.jpg,AFNE01.jpg,AFSA04.jpg,AFSA04.jpg,FS,4,num_4,16,num_4,0.683455893304,,,2017_Apr_03_1834,59.9987491667,FEMA4ImagesEEG,001,100118,
AFNE01.JPG,AFNE01.JPG,AFNE01.JPG,AFNE01.JPG,AFNE01.JPG,AFNE01.JPG,2,1,21,7,,,,,,,,,,,,,,,,,,,,,,,AFSA11.jpg,AFNE14.jpg,AFNE12.jpg,AFSA04.jpg,AFSA04.jpg,FS,4,num_4,16,num_4,0.933436889434,,,2017_Apr_03_1834,59.9987491667,FEMA4ImagesEEG,001,100118,
AFNE01.JPG,AFNE01.JPG,AFNE01.JPG,AFNE01.JPG,AFNE01.JPG,AFNE01.JPG,2,2,22,6,,,,,,,,,,,,,,,,,,,,,,,AFSA06.jpg,AFNE02.jpg,AFNE10.jpg,AFSA14.jpg,AFNE10.jpg,FN,3,num_2,16,num_2,1.16678849445,,,2017_Apr_03_1834,59.9987491667,FEMA4ImagesEEG,001,100118,
AFNE01.JPG,AFNE01.JPG,AFNE01.JPG,AFNE01.JPG,AFNE01.JPG,AFNE01.JPG,2,3,23,8,,,,,,,,,,,,,,,,,,,,,,,AFSA02.jpg,AFNE12.jpg,AFSA14.jpg,AFNE03.jpg,AFSA02.jpg,FS,4,num_8,16,num_8,1.51669273758,,,2017_Apr_03_1834,59.9987491667,FEMA4ImagesEEG,001,100118,
AFNE01.JPG,AFNE01.JPG,AFNE01.JPG,AFNE01.JPG,AFNE01.JPG,AFNE01.JPG,2,4,24,9,,,,,,,,,,,,,,,,,,,,,,,AFSA03.jpg,AFNE20.jpg,AFSA06.jpg,AFNE07.jpg,AFSA06.jpg,FS,4,num_2,32,num_8,1.03344962304,,,2017_Apr_03_1834,59.9987491667,FEMA4ImagesEEG,001,100118,
AFNE01.JPG,AFNE01.JPG,AFNE01.JPG,AFNE01.JPG,AFNE01.JPG,AFNE01.JPG,2,5,25,0,,,,,,,,,,,,,,,,,,,,,,,AFSA14.jpg,AFSA03.jpg,AFNE08.jpg,AFNE17.jpg,AFSA14.jpg,FS,4,num_8,16,num_8,0.71680833213,,,2017_Apr_03_1834,59.9987491667,FEMA4ImagesEEG,001,100118,
AFNE01.JPG,AFNE01.JPG,AFNE01.JPG,AFNE01.JPG,AFNE01.JPG,AFNE01.JPG,2,6,26,5,,,,,,,,,,,,,,,,,,,,,,,AFNE12.jpg,AFNE16.jpg,AFSA14.jpg,AFSA02.jpg,AFSA14.jpg,FS,4,num_2,32,num_4,1.81661386741,,,2017_Apr_03_1834,59.9987491667,FEMA4ImagesEEG,001,100118,
AFNE01.JPG,AFNE01.JPG,AFNE01.JPG,AFNE01.JPG,AFNE01.JPG,AFNE01.JPG,2,7,27,2,,,,,,,,,,,,,,,,,,,,,,,AFSA12.jpg,AFSA05.jpg,AFNE07.jpg,AFNE18.jpg,AFSA12.jpg,FS,4,num_8,16,num_8,0.81676076632,,,2017_Apr_03_1834,59.9987491667,FEMA4ImagesEEG,001,100118,
AFNE01.JPG,AFNE01.JPG,AFNE01.JPG,AFNE01.JPG,AFNE01.JPG,AFNE01.JPG,2,8,28,4,,,,,,,,,,,,,,,,,,,,,,,AFSA09.jpg,AFNE06.jpg,AFSA17.jpg,AFNE14.jpg,AFNE14.jpg,FN,3,num_4,16,num_4,0.70015199855,,,2017_Apr_03_1834,59.9987491667,FEMA4ImagesEEG,001,100118,
AFNE01.JPG,AFNE01.JPG,AFNE01.JPG,AFNE01.JPG,AFNE01.JPG,AFNE01.JPG,2,9,29,1,,,,,,,,,,,,,,,,,,,,,,,AFSA09.jpg,AFNE03.jpg,AFSA03.jpg,AFNE01.jpg,AFSA03.jpg,FS,4,num_2,16,num_2,1.65011788788,,,2017_Apr_03_1834,59.9987491667,FEMA4ImagesEEG,001,100118,
AFNE01.JPG,AFNE01.JPG,AFNE01.JPG,AFNE01.JPG,AFNE01.JPG,AFNE01.JPG,3,0,30,2,,,,,,,,,,,,,,,,,,,,,,,AFNE05.jpg,AFSA01.jpg,AFNE08.jpg,AFSA13.jpg,AFNE08.jpg,FN,3,num_2,32,num_8,0.850114488043,,,2017_Apr_03_1834,59.9987491667,FEMA4ImagesEEG,001,100118,
AFNE01.JPG,AFNE01.JPG,AFNE01.JPG,AFNE01.JPG,AFNE01.JPG,AFNE01.JPG,3,1,31,4,,,,,,,,,,,,,,,,,,,,,,,AFNE13.jpg,AFSA07.jpg,AFSA20.jpg,AFNE16.jpg,AFSA07.jpg,FS,4,num_6,16,num_6,0.816797009902,,,2017_Apr_03_1834,59.9987491667,FEMA4ImagesEEG,001,100118,
AFNE01.JPG,AFNE01.JPG,AFNE01.JPG,AFNE01.JPG,AFNE01.JPG,AFNE01.JPG,3,2,32,8,,,,,,,,,,,,,,,,,,,,,,,AFSA13.jpg,AFSA18.jpg,AFNE13.jpg,AFNE08.jpg,AFNE08.jpg,FN,3,num_4,16,num_4,0.866792631801,,,2017_Apr_03_1834,59.9987491667,FEMA4ImagesEEG,001,100118,
AFNE01.JPG,AFNE01.JPG,AFNE01.JPG,AFNE01.JPG,AFNE01.JPG,AFNE01.JPG,3,3,33,7,,,,,,,,,,,,,,,,,,,,,,,AFSA11.jpg,AFSA03.jpg,AFNE08.jpg,AFNE05.jpg,AFSA03.jpg,FS,4,num_6,16,num_6,0.750403250102,,,2017_Apr_03_1834,59.9987491667,FEMA4ImagesEEG,001,100118,
AFNE01.JPG,AFNE01.JPG,AFNE01.JPG,AFNE01.JPG,AFNE01.JPG,AFNE01.JPG,3,4,34,3,,,,,,,,,,,,,,,,,,,,,,,AFNE18.jpg,AFNE05.jpg,AFSA12.jpg,AFSA07.jpg,AFNE05.jpg,FN,3,num_6,16,num_6,0.766770276241,,,2017_Apr_03_1834,59.9987491667,FEMA4ImagesEEG,001,100118,
AFNE01.JPG,AFNE01.JPG,AFNE01.JPG,AFNE01.JPG,AFNE01.JPG,AFNE01.JPG,3,5,35,5,,,,,,,,,,,,,,,,,,,,,,,AFNE09.jpg,AFNE10.jpg,AFSA19.jpg,AFSA08.jpg,AFSA19.jpg,FS,4,num_2,16,num_2,0.950128824916,,,2017_Apr_03_1834,59.9987491667,FEMA4ImagesEEG,001,100118,
AFNE01.JPG,AFNE01.JPG,AFNE01.JPG,AFNE01.JPG,AFNE01.JPG,AFNE01.JPG,3,6,36,0,,,,,,,,,,,,,,,,,,,,,,,AFSA18.jpg,AFNE19.jpg,AFSA04.jpg,AFNE01.jpg,AFSA04.jpg,FS,4,num_2,32,num_8,1.16676411824,,,2017_Apr_03_1834,59.9987491667,FEMA4ImagesEEG,001,100118,
AFNE01.JPG,AFNE01.JPG,AFNE01.JPG,AFNE01.JPG,AFNE01.JPG,AFNE01.JPG,3,7,37,1,,,,,,,,,,,,,,,,,,,,,,,AFSA07.jpg,AFSA19.jpg,AFNE10.jpg,AFNE08.jpg,AFNE08.jpg,FN,3,num_4,32,num_2,0.783509360626,,,2017_Apr_03_1834,59.9987491667,FEMA4ImagesEEG,001,100118,
AFNE01.JPG,AFNE01.JPG,AFNE01.JPG,AFNE01.JPG,AFNE01.JPG,AFNE01.JPG,3,8,38,6,,,,,,,,,,,,,,,,,,,,,,,AFNE15.jpg,AFNE02.jpg,AFSA12.jpg,AFSA04.jpg,AFSA04.jpg,FS,4,num_4,32,num_2,0.983434435911,,,2017_Apr_03_1834,59.9987491667,FEMA4ImagesEEG,001,100118,
AFNE01.JPG,AFNE01.JPG,AFNE01.JPG,AFNE01.JPG,AFNE01.JPG,AFNE01.JPG,3,9,39,9,,,,,,,,,,,,,,,,,,,,,,,AFSA17.jpg,AFNE09.jpg,AFNE17.jpg,AFSA02.jpg,AFNE09.jpg,FN,3,num_6,16,num_6,0.783497814089,,,2017_Apr_03_1834,59.9987491667,FEMA4ImagesEEG,001,100118,
AFNE01.JPG,AFNE01.JPG,AFNE01.JPG,AFNE01.JPG,AFNE01.JPG,AFNE01.JPG,4,0,40,5,,,,,,,,,,,,,,,,,,,,,,,AFSA20.jpg,AFSA15.jpg,AFNE10.jpg,AFNE20.jpg,AFNE20.jpg,FN,3,num_4,32,num_2,0.949970379705,,,2017_Apr_03_1834,59.9987491667,FEMA4ImagesEEG,001,100118,
AFNE01.JPG,AFNE01.JPG,AFNE01.JPG,AFNE01.JPG,AFNE01.JPG,AFNE01.JPG,4,1,41,7,,,,,,,,,,,,,,,,,,,,,,,AFNE17.jpg,AFSA02.jpg,AFSA03.jpg,AFNE05.jpg,AFSA02.jpg,FS,4,num_6,32,num_2,0.933496226324,,,2017_Apr_03_1834,59.9987491667,FEMA4ImagesEEG,001,100118,
AFNE01.JPG,AFNE01.JPG,AFNE01.JPG,AFNE01.JPG,AFNE01.JPG,AFNE01.JPG,4,2,42,0,,,,,,,,,,,,,,,,,,,,,,,AFSA02.jpg,AFSA09.jpg,AFNE05.jpg,AFNE12.jpg,AFSA02.jpg,FS,4,num_8,32,num_6,0.933486924972,,,2017_Apr_03_1834,59.9987491667,FEMA4ImagesEEG,001,100118,
AFNE01.JPG,AFNE01.JPG,AFNE01.JPG,AFNE01.JPG,AFNE01.JPG,AFNE01.JPG,4,3,43,4,,,,,,,,,,,,,,,,,,,,,,,AFNE02.jpg,AFSA19.jpg,AFSA20.jpg,AFNE05.jpg,AFSA20.jpg,FS,4,num_2,16,num_2,0.91680461145,,,2017_Apr_03_1834,59.9987491667,FEMA4ImagesEEG,001,100118,
AFNE01.JPG,AFNE01.JPG,AFNE01.JPG,AFNE01.JPG,AFNE01.JPG,AFNE01.JPG,4,4,44,6,,,,,,,,,,,,,,,,,,,,,,,AFSA15.jpg,AFNE16.jpg,AFNE18.jpg,AFSA14.jpg,AFSA14.jpg,FS,4,num_4,16,num_4,0.733471721644,,,2017_Apr_03_1834,59.9987491667,FEMA4ImagesEEG,001,100118,
AFNE01.JPG,AFNE01.JPG,AFNE01.JPG,AFNE01.JPG,AFNE01.JPG,AFNE01.JPG,4,5,45,1,,,,,,,,,,,,,,,,,,,,,,,AFNE12.jpg,AFSA02.jpg,AFNE16.jpg,AFSA08.jpg,AFNE16.jpg,FN,3,num_2,16,num_2,1.70034508384,,,2017_Apr_03_1834,59.9987491667,FEMA4ImagesEEG,001,100118,
AFNE01.JPG,AFNE01.JPG,AFNE01.JPG,AFNE01.JPG,AFNE01.JPG,AFNE01.JPG,4,6,46,9,,,,,,,,,,,,,,,,,,,,,,,AFSA13.jpg,AFNE07.jpg,AFSA14.jpg,AFNE13.jpg,AFSA14.jpg,FS,4,num_2,16,num_2,1.23349497537,,,2017_Apr_03_1834,59.9987491667,FEMA4ImagesEEG,001,100118,
AFNE01.JPG,AFNE01.JPG,AFNE01.JPG,AFNE01.JPG,AFNE01.JPG,AFNE01.JPG,4,7,47,8,,,,,,,,,,,,,,,,,,,,,,,AFSA10.jpg,AFSA20.jpg,AFNE18.jpg,AFNE20.jpg,AFNE20.jpg,FN,3,num_4,32,num_2,0.916798837949,,,2017_Apr_03_1834,59.9987491667,FEMA4ImagesEEG,001,100118,
AFNE01.JPG,AFNE01.JPG,AFNE01.JPG,AFNE01.JPG,AFNE01.JPG,AFNE01.JPG,4,8,48,3,,,,,,,,,,,,,,,,,,,,,,,AFSA07.jpg,AFNE05.jpg,AFNE20.jpg,AFSA03.jpg,AFSA07.jpg,FS,4,num_8,32,num_4,1.78334674565,,,2017_Apr_03_1834,59.9987491667,FEMA4ImagesEEG,001,100118,
AFNE01.JPG,AFNE01.JPG,AFNE01.JPG,AFNE01.JPG,AFNE01.JPG,AFNE01.JPG,4,9,49,2,,,,,,,,,,,,,,,,,,,,,,,AFNE12.jpg,AFSA03.jpg,AFNE14.jpg,AFSA18.jpg,AFNE12.jpg,FN,3,num_8,16,num_8,0.966795101529,,,2017_Apr_03_1834,59.9987491667,FEMA4ImagesEEG,001,100118,
AFNE01.JPG,AFNE01.JPG,AFNE01.JPG,AFNE01.JPG,AFNE01.JPG,AFNE01.JPG,5,0,50,8,,,,,,,,,,,,,,,,,,,,,,,AFSA07.jpg,AFSA20.jpg,AFNE07.jpg,AFNE15.jpg,AFNE07.jpg,FN,3,num_2,32,num_4,2.30002023862,,,2017_Apr_03_1834,59.9987491667,FEMA4ImagesEEG,001,100118,
AFNE01.JPG,AFNE01.JPG,AFNE01.JPG,AFNE01.JPG,AFNE01.JPG,AFNE01.JPG,5,1,51,3,,,,,,,,,,,,,,,,,,,,,,,AFSA03.jpg,AFNE16.jpg,AFSA05.jpg,AFNE15.jpg,AFSA05.jpg,FS,4,num_2,16,num_2,0.933467038907,,,2017_Apr_03_1834,59.9987491667,FEMA4ImagesEEG,001,100118,
AFNE01.JPG,AFNE01.JPG,AFNE01.JPG,AFNE01.JPG,AFNE01.JPG,AFNE01.JPG,5,2,52,5,,,,,,,,,,,,,,,,,,,,,,,AFSA14.jpg,AFNE14.jpg,AFSA13.jpg,AFNE02.jpg,AFNE14.jpg,FN,3,num_6,16,num_6,0.78375889617,,,2017_Apr_03_1834,59.9987491667,FEMA4ImagesEEG,001,100118,
AFNE01.JPG,AFNE01.JPG,AFNE01.JPG,AFNE01.JPG,AFNE01.JPG,AFNE01.JPG,5,3,53,4,,,,,,,,,,,,,,,,,,,,,,,AFSA19.jpg,AFSA07.jpg,AFNE03.jpg,AFNE07.jpg,AFNE03.jpg,FN,3,num_2,32,num_6,0.800137789687,,,2017_Apr_03_1834,59.9987491667,FEMA4ImagesEEG,001,100118,
AFNE01.JPG,AFNE01.JPG,AFNE01.JPG,AFNE01.JPG,AFNE01.JPG,AFNE01.JPG,5,4,54,1,,,,,,,,,,,,,,,,,,,,,,,AFSA04.jpg,AFNE18.jpg,AFNE01.jpg,AFSA06.jpg,AFSA04.jpg,FS,4,num_8,32,num_6,0.833500171313,,,2017_Apr_03_1834,59.9987491667,FEMA4ImagesEEG,001,100118,
AFNE01.JPG,AFNE01.JPG,AFNE01.JPG,AFNE01.JPG,AFNE01.JPG,AFNE01.JPG,5,5,55,2,,,,,,,,,,,,,,,,,,,,,,,AFSA05.jpg,AFSA19.jpg,AFNE11.jpg,AFNE10.jpg,AFSA05.jpg,FS,4,num_8,32,num_6,0.850477244705,,,2017_Apr_03_1834,59.9987491667,FEMA4ImagesEEG,001,100118,
AFNE01.JPG,AFNE01.JPG,AFNE01.JPG,AFNE01.JPG,AFNE01.JPG,AFNE01.JPG,5,6,56,0,,,,,,,,,,,,,,,,,,,,,,,AFNE11.jpg,AFNE19.jpg,AFSA16.jpg,AFSA04.jpg,AFSA04.jpg,FS,4,num_4,32,num_2,0.833466493757,,,2017_Apr_03_1834,59.9987491667,FEMA4ImagesEEG,001,100118,
AFNE01.JPG,AFNE01.JPG,AFNE01.JPG,AFNE01.JPG,AFNE01.JPG,AFNE01.JPG,5,7,57,7,,,,,,,,,,,,,,,,,,,,,,,AFNE19.jpg,AFSA17.jpg,AFNE04.jpg,AFSA13.jpg,AFNE04.jpg,FN,3,num_2,16,num_2,0.566813768586,,,2017_Apr_03_1834,59.9987491667,FEMA4ImagesEEG,001,100118,
AFNE01.JPG,AFNE01.JPG,AFNE01.JPG,AFNE01.JPG,AFNE01.JPG,AFNE01.JPG,5,8,58,6,,,,,,,,,,,,,,,,,,,,,,,AFSA15.jpg,AFNE14.jpg,AFSA19.jpg,AFNE08.jpg,AFSA15.jpg,FS,4,num_8,32,num_6,1.18337971764,,,2017_Apr_03_1834,59.9987491667,FEMA4ImagesEEG,001,100118,
AFNE01.JPG,AFNE01.JPG,AFNE01.JPG,AFNE01.JPG,AFNE01.JPG,AFNE01.JPG,5,9,59,9,,,,,,,,,,,,,,,,,,,,,,,AFSA13.jpg,AFSA05.jpg,AFNE02.jpg,AFNE12.jpg,AFNE02.jpg,FN,3,num_2,16,num_2,0.900150843896,,,2017_Apr_03_1834,59.9987491667,FEMA4ImagesEEG,001,100118,
,,,,,,,,,,,,,,,,,,,,,,,,,,,,,,,,,,,,,,,,,,,space,7.33294448978,2017_Apr_03_1834,59.9987491667,FEMA4ImagesEEG,001,100118,
AFNE01.JPG,AFNE01.JPG,AFNE01.JPG,AFNE01.JPG,AFNE01.JPG,AFNE01.JPG,,,,,0,0,0,3,,,,,,,,,,,,,,,,,,,AMNE11.jpg,AMSA01.jpg,AMNE07.jpg,AMSA09.jpg,AMNE07.jpg,MN,1,num_2,32,num_4,0.883439022349,,,2017_Apr_03_1834,59.9987491667,FEMA4ImagesEEG,001,100118,
AFNE01.JPG,AFNE01.JPG,AFNE01.JPG,AFNE01.JPG,AFNE01.JPG,AFNE01.JPG,,,,,0,1,1,4,,,,,,,,,,,,,,,,,,,AMNE14.jpg,AMSA07.jpg,AMSA15.jpg,AMNE06.jpg,AMSA07.jpg,MS,2,num_6,16,num_6,0.616836011875,,,2017_Apr_03_1834,59.9987491667,FEMA4ImagesEEG,001,100118,
AFNE01.JPG,AFNE01.JPG,AFNE01.JPG,AFNE01.JPG,AFNE01.JPG,AFNE01.JPG,,,,,0,2,2,0,,,,,,,,,,,,,,,,,,,AMNE17.jpg,AMNE13.jpg,AMSA11.jpg,AMSA07.jpg,AMNE13.jpg,MN,1,num_6,16,num_6,0.916514983634,,,2017_Apr_03_1834,59.9987491667,FEMA4ImagesEEG,001,100118,
AFNE01.JPG,AFNE01.JPG,AFNE01.JPG,AFNE01.JPG,AFNE01.JPG,AFNE01.JPG,,,,,0,3,3,1,,,,,,,,,,,,,,,,,,,AMNE19.jpg,AMNE10.jpg,AMSA17.jpg,AMSA18.jpg,AMNE19.jpg,MN,1,num_8,32,num_6,0.816910872469,,,2017_Apr_03_1834,59.9987491667,FEMA4ImagesEEG,001,100118,
AFNE01.JPG,AFNE01.JPG,AFNE01.JPG,AFNE01.JPG,AFNE01.JPG,AFNE01.JPG,,,,,0,4,4,6,,,,,,,,,,,,,,,,,,,AMSA17.jpg,AMSA20.jpg,AMNE03.jpg,AMNE09.jpg,AMSA17.jpg,MS,2,num_8,16,num_8,1.00021072594,,,2017_Apr_03_1834,59.9987491667,FEMA4ImagesEEG,001,100118,
AFNE01.JPG,AFNE01.JPG,AFNE01.JPG,AFNE01.JPG,AFNE01.JPG,AFNE01.JPG,,,,,0,5,5,5,,,,,,,,,,,,,,,,,,,AMSA19.jpg,AMNE15.jpg,AMNE05.jpg,AMSA18.jpg,AMNE05.jpg,MN,1,num_2,32,num_6,0.750435965369,,,2017_Apr_03_1834,59.9987491667,FEMA4ImagesEEG,001,100118,
AFNE01.JPG,AFNE01.JPG,AFNE01.JPG,AFNE01.JPG,AFNE01.JPG,AFNE01.JPG,,,,,0,6,6,7,,,,,,,,,,,,,,,,,,,AMSA09.jpg,AMNE03.jpg,AMNE04.jpg,AMSA13.jpg,AMSA13.jpg,MS,2,num_4,32,num_6,0.800140355714,,,2017_Apr_03_1834,59.9987491667,FEMA4ImagesEEG,001,100118,
AFNE01.JPG,AFNE01.JPG,AFNE01.JPG,AFNE01.JPG,AFNE01.JPG,AFNE01.JPG,,,,,0,7,7,9,,,,,,,,,,,,,,,,,,,AMSA15.jpg,AMNE06.jpg,AMSA14.jpg,AMNE17.jpg,AMNE17.jpg,MN,1,num_4,16,num_4,0.850166447926,,,2017_Apr_03_1834,59.9987491667,FEMA4ImagesEEG,001,100118,
AFNE01.JPG,AFNE01.JPG,AFNE01.JPG,AFNE01.JPG,AFNE01.JPG,AFNE01.JPG,,,,,0,8,8,8,,,,,,,,,,,,,,,,,,,AMSA08.jpg,AMNE06.jpg,AMNE04.jpg,AMSA13.jpg,AMSA13.jpg,MS,2,num_4,32,num_6,0.816592378076,,,2017_Apr_03_1834,59.9987491667,FEMA4ImagesEEG,001,100118,
AFNE01.JPG,AFNE01.JPG,AFNE01.JPG,AFNE01.JPG,AFNE01.JPG,AFNE01.JPG,,,,,0,9,9,2,,,,,,,,,,,,,,,,,,,AMSA02.jpg,AMSA15.jpg,AMNE15.jpg,AMNE03.jpg,AMSA15.jpg,MS,2,num_6,16,num_6,0.900193502428,,,2017_Apr_03_1834,59.9987491667,FEMA4ImagesEEG,001,100118,
AFNE01.JPG,AFNE01.JPG,AFNE01.JPG,AFNE01.JPG,AFNE01.JPG,AFNE01.JPG,,,,,1,0,10,4,,,,,,,,,,,,,,,,,,,AMSA05.jpg,AMNE08.jpg,AMNE19.jpg,AMSA12.jpg,AMSA12.jpg,MS,2,num_4,32,num_2,1.10007335315,,,2017_Apr_03_1834,59.9987491667,FEMA4ImagesEEG,001,100118,
AFNE01.JPG,AFNE01.JPG,AFNE01.JPG,AFNE01.JPG,AFNE01.JPG,AFNE01.JPG,,,,,1,1,11,7,,,,,,,,,,,,,,,,,,,AMNE01.jpg,AMSA20.jpg,AMNE17.jpg,AMSA08.jpg,AMNE17.jpg,MN,1,num_2,16,num_2,0.783466060879,,,2017_Apr_03_1834,59.9987491667,FEMA4ImagesEEG,001,100118,
AFNE01.JPG,AFNE01.JPG,AFNE01.JPG,AFNE01.JPG,AFNE01.JPG,AFNE01.JPG,,,,,1,2,12,9,,,,,,,,,,,,,,,,,,,AMNE05.jpg,AMSA12.jpg,AMSA10.jpg,AMNE01.jpg,AMSA12.jpg,MS,2,num_6,16,num_6,0.766751673305,,,2017_Apr_03_1834,59.9987491667,FEMA4ImagesEEG,001,100118,
AFNE01.JPG,AFNE01.JPG,AFNE01.JPG,AFNE01.JPG,AFNE01.JPG,AFNE01.JPG,,,,,1,3,13,3,,,,,,,,,,,,,,,,,,,AMNE07.jpg,AMSA05.jpg,AMNE05.jpg,AMSA04.jpg,AMNE05.jpg,MN,1,num_2,32,num_8,0.966745707672,,,2017_Apr_03_1834,59.9987491667,FEMA4ImagesEEG,001,100118,
AFNE01.JPG,AFNE01.JPG,AFNE01.JPG,AFNE01.JPG,AFNE01.JPG,AFNE01.JPG,,,,,1,4,14,2,,,,,,,,,,,,,,,,,,,AMSA11.jpg,AMNE16.jpg,AMSA01.jpg,AMNE12.jpg,AMNE16.jpg,MN,1,num_6,16,num_6,0.566820504144,,,2017_Apr_03_1834,59.9987491667,FEMA4ImagesEEG,001,100118,
AFNE01.JPG,AFNE01.JPG,AFNE01.JPG,AFNE01.JPG,AFNE01.JPG,AFNE01.JPG,,,,,1,5,15,0,,,,,,,,,,,,,,,,,,,AMNE11.jpg,AMNE15.jpg,AMSA06.jpg,AMSA17.jpg,AMNE15.jpg,MN,1,num_6,16,num_6,0.883491623681,,,2017_Apr_03_1834,59.9987491667,FEMA4ImagesEEG,001,100118,
AFNE01.JPG,AFNE01.JPG,AFNE01.JPG,AFNE01.JPG,AFNE01.JPG,AFNE01.JPG,,,,,1,6,16,8,,,,,,,,,,,,,,,,,,,AMNE07.jpg,AMSA10.jpg,AMSA12.jpg,AMNE15.jpg,AMNE07.jpg,MN,1,num_8,32,num_4,1.11712291371,,,2017_Apr_03_1834,59.9987491667,FEMA4ImagesEEG,001,100118,
AFNE01.JPG,AFNE01.JPG,AFNE01.JPG,AFNE01.JPG,AFNE01.JPG,AFNE01.JPG,,,,,1,7,17,1,,,,,,,,,,,,,,,,,,,AMNE20.jpg,AMSA19.jpg,AMSA16.jpg,AMNE08.jpg,AMSA16.jpg,MS,2,num_2,32,num_6,0.900147315813,,,2017_Apr_03_1834,59.9987491667,FEMA4ImagesEEG,001,100118,
AFNE01.JPG,AFNE01.JPG,AFNE01.JPG,AFNE01.JPG,AFNE01.JPG,AFNE01.JPG,,,,,1,8,18,6,,,,,,,,,,,,,,,,,,,AMNE06.jpg,AMNE05.jpg,AMSA08.jpg,AMSA09.jpg,AMSA08.jpg,MS,2,num_2,16,num_2,1.03354648617,,,2017_Apr_03_1834,59.9987491667,FEMA4ImagesEEG,001,100118,
AFNE01.JPG,AFNE01.JPG,AFNE01.JPG,AFNE01.JPG,AFNE01.JPG,AFNE01.JPG,,,,,1,9,19,5,,,,,,,,,,,,,,,,,,,AMNE18.jpg,AMNE01.jpg,AMSA06.jpg,AMSA13.jpg,AMSA06.jpg,MS,2,num_2,16,num_2,0.716783314478,,,2017_Apr_03_1834,59.9987491667,FEMA4ImagesEEG,001,100118,
AFNE01.JPG,AFNE01.JPG,AFNE01.JPG,AFNE01.JPG,AFNE01.JPG,AFNE01.JPG,,,,,2,0,20,8,,,,,,,,,,,,,,,,,,,AMSA03.jpg,AMSA05.jpg,AMNE18.jpg,AMNE15.jpg,AMNE18.jpg,MN,1,num_2,16,num_2,1.06675587501,,,2017_Apr_03_1834,59.9987491667,FEMA4ImagesEEG,001,100118,
AFNE01.JPG,AFNE01.JPG,AFNE01.JPG,AFNE01.JPG,AFNE01.JPG,AFNE01.JPG,,,,,2,1,21,7,,,,,,,,,,,,,,,,,,,AMSA08.jpg,AMSA12.jpg,AMNE12.jpg,AMNE08.jpg,AMSA08.jpg,MS,2,num_8,32,num_4,0.933449398493,,,2017_Apr_03_1834,59.9987491667,FEMA4ImagesEEG,001,100118,
AFNE01.JPG,AFNE01.JPG,AFNE01.JPG,AFNE01.JPG,AFNE01.JPG,AFNE01.JPG,,,,,2,2,22,1,,,,,,,,,,,,,,,,,,,AMSA04.jpg,AMSA08.jpg,AMNE07.jpg,AMNE01.jpg,AMSA08.jpg,MS,2,num_6,16,num_6,0.666762995301,,,2017_Apr_03_1834,59.9987491667,FEMA4ImagesEEG,001,100118,
AFNE01.JPG,AFNE01.JPG,AFNE01.JPG,AFNE01.JPG,AFNE01.JPG,AFNE01.JPG,,,,,2,3,23,9,,,,,,,,,,,,,,,,,,,AMSA02.jpg,AMSA09.jpg,AMNE08.jpg,AMNE12.jpg,AMSA02.jpg,MS,2,num_8,16,num_8,0.800154788885,,,2017_Apr_03_1834,59.9987491667,FEMA4ImagesEEG,001,100118,
AFNE01.JPG,AFNE01.JPG,AFNE01.JPG,AFNE01.JPG,AFNE01.JPG,AFNE01.JPG,,,,,2,4,24,4,,,,,,,,,,,,,,,,,,,AMNE09.jpg,AMNE13.jpg,AMSA15.jpg,AMSA07.jpg,AMNE13.jpg,MN,1,num_6,16,num_6,0.76681421767,,,2017_Apr_03_1834,59.9987491667,FEMA4ImagesEEG,001,100118,
AFNE01.JPG,AFNE01.JPG,AFNE01.JPG,AFNE01.JPG,AFNE01.JPG,AFNE01.JPG,,,,,2,5,25,3,,,,,,,,,,,,,,,,,,,AMSA10.jpg,AMNE20.jpg,AMNE14.jpg,AMSA07.jpg,AMSA10.jpg,MS,2,num_8,32,num_6,0.716823727358,,,2017_Apr_03_1834,59.9987491667,FEMA4ImagesEEG,001,100118,
AFNE01.JPG,AFNE01.JPG,AFNE01.JPG,AFNE01.JPG,AFNE01.JPG,AFNE01.JPG,,,,,2,6,26,6,,,,,,,,,,,,,,,,,,,AMNE01.jpg,AMSA02.jpg,AMSA12.jpg,AMNE14.jpg,AMSA12.jpg,MS,2,num_2,16,num_2,1.08343850938,,,2017_Apr_03_1834,59.9987491667,FEMA4ImagesEEG,001,100118,
AFNE01.JPG,AFNE01.JPG,AFNE01.JPG,AFNE01.JPG,AFNE01.JPG,AFNE01.JPG,,,,,2,7,27,0,,,,,,,,,,,,,,,,,,,AMSA19.jpg,AMNE13.jpg,AMNE10.jpg,AMSA01.jpg,AMNE13.jpg,MN,1,num_6,32,num_2,0.700131792109,,,2017_Apr_03_1834,59.9987491667,FEMA4ImagesEEG,001,100118,
AFNE01.JPG,AFNE01.JPG,AFNE01.JPG,AFNE01.JPG,AFNE01.JPG,AFNE01.JPG,,,,,2,8,28,2,,,,,,,,,,,,,,,,,,,AMSA18.jpg,AMNE20.jpg,AMNE04.jpg,AMSA15.jpg,AMNE20.jpg,MN,1,num_6,16,num_6,0.633801538497,,,2017_Apr_03_1834,59.9987491667,FEMA4ImagesEEG,001,100118,
AFNE01.JPG,AFNE01.JPG,AFNE01.JPG,AFNE01.JPG,AFNE01.JPG,AFNE01.JPG,,,,,2,9,29,5,,,,,,,,,,,,,,,,,,,AMNE07.jpg,AMSA06.jpg,AMNE11.jpg,AMSA11.jpg,AMNE11.jpg,MN,1,num_2,16,num_2,0.750179373892,,,2017_Apr_03_1834,59.9987491667,FEMA4ImagesEEG,001,100118,
AFNE01.JPG,AFNE01.JPG,AFNE01.JPG,AFNE01.JPG,AFNE01.JPG,AFNE01.JPG,,,,,3,0,30,5,,,,,,,,,,,,,,,,,,,AMNE01.jpg,AMSA19.jpg,AMNE03.jpg,AMSA08.jpg,AMNE03.jpg,MN,1,num_2,16,num_2,0.616788863204,,,2017_Apr_03_1834,59.9987491667,FEMA4ImagesEEG,001,100118,
AFNE01.JPG,AFNE01.JPG,AFNE01.JPG,AFNE01.JPG,AFNE01.JPG,AFNE01.JPG,,,,,3,1,31,8,,,,,,,,,,,,,,,,,,,AMSA05.jpg,AMSA16.jpg,AMNE20.jpg,AMNE17.jpg,AMNE20.jpg,MN,1,num_2,32,num_4,0.56681665522,,,2017_Apr_03_1834,59.9987491667,FEMA4ImagesEEG,001,100118,
AFNE01.JPG,AFNE01.JPG,AFNE01.JPG,AFNE01.JPG,AFNE01.JPG,AFNE01.JPG,,,,,3,2,32,4,,,,,,,,,,,,,,,,,,,AMSA03.jpg,AMSA05.jpg,AMNE01.jpg,AMNE07.jpg,AMSA03.jpg,MS,2,num_8,16,num_8,0.966717161937,,,2017_Apr_03_1834,59.9987491667,FEMA4ImagesEEG,001,100118,
AFNE01.JPG,AFNE01.JPG,AFNE01.JPG,AFNE01.JPG,AFNE01.JPG,AFNE01.JPG,,,,,3,3,33,3,,,,,,,,,,,,,,,,,,,AMNE11.jpg,AMSA15.jpg,AMSA03.jpg,AMNE02.jpg,AMNE02.jpg,MN,1,num_4,16,num_4,0.800238181371,,,2017_Apr_03_1834,59.9987491667,FEMA4ImagesEEG,001,100118,
AFNE01.JPG,AFNE01.JPG,AFNE01.JPG,AFNE01.JPG,AFNE01.JPG,AFNE01.JPG,,,,,3,4,34,7,,,,,,,,,,,,,,,,,,,AMSA14.jpg,AMNE04.jpg,AMSA05.jpg,AMNE02.jpg,AMSA05.jpg,MS,2,num_2,16,num_2,0.966732557397,,,2017_Apr_03_1834,59.9987491667,FEMA4ImagesEEG,001,100118,
AFNE01.JPG,AFNE01.JPG,AFNE01.JPG,AFNE01.JPG,AFNE01.JPG,AFNE01.JPG,,,,,3,5,35,9,,,,,,,,,,,,,,,,,,,AMNE10.jpg,AMSA13.jpg,AMSA02.jpg,AMNE07.jpg,AMSA02.jpg,MS,2,num_2,32,num_6,0.850178315071,,,2017_Apr_03_1834,59.9987491667,FEMA4ImagesEEG,001,100118,
AFNE01.JPG,AFNE01.JPG,AFNE01.JPG,AFNE01.JPG,AFNE01.JPG,AFNE01.JPG,,,,,3,6,36,1,,,,,,,,,,,,,,,,,,,AMSA08.jpg,AMNE10.jpg,AMNE15.jpg,AMSA07.jpg,AMNE10.jpg,MN,1,num_6,32,num_2,0.66678544716,,,2017_Apr_03_1834,59.9987491667,FEMA4ImagesEEG,001,100118,
AFNE01.JPG,AFNE01.JPG,AFNE01.JPG,AFNE01.JPG,AFNE01.JPG,AFNE01.JPG,,,,,3,7,37,2,,,,,,,,,,,,,,,,,,,AMNE06.jpg,AMSA14.jpg,AMSA09.jpg,AMNE01.jpg,AMNE01.jpg,MN,1,num_4,16,num_4,0.933471529512,,,2017_Apr_03_1834,59.9987491667,FEMA4ImagesEEG,001,100118,
AFNE01.JPG,AFNE01.JPG,AFNE01.JPG,AFNE01.JPG,AFNE01.JPG,AFNE01.JPG,,,,,3,8,38,0,,,,,,,,,,,,,,,,,,,AMNE16.jpg,AMNE06.jpg,AMSA01.jpg,AMSA10.jpg,AMSA01.jpg,MS,2,num_2,16,num_2,0.516821995378,,,2017_Apr_03_1834,59.9987491667,FEMA4ImagesEEG,001,100118,
AFNE01.JPG,AFNE01.JPG,AFNE01.JPG,AFNE01.JPG,AFNE01.JPG,AFNE01.JPG,,,,,3,9,39,6,,,,,,,,,,,,,,,,,,,AMNE13.jpg,AMSA13.jpg,AMNE20.jpg,AMSA07.jpg,AMNE13.jpg,MN,1,num_8,32,num_6,0.683532229392,,,2017_Apr_03_1834,59.9987491667,FEMA4ImagesEEG,001,100118,
AFNE01.JPG,AFNE01.JPG,AFNE01.JPG,AFNE01.JPG,AFNE01.JPG,AFNE01.JPG,,,,,4,0,40,8,,,,,,,,,,,,,,,,,,,AMNE15.jpg,AMSA16.jpg,AMNE03.jpg,AMSA07.jpg,AMNE03.jpg,MN,1,num_2,16,num_2,0.966578602092,,,2017_Apr_03_1834,59.9987491667,FEMA4ImagesEEG,001,100118,
AFNE01.JPG,AFNE01.JPG,AFNE01.JPG,AFNE01.JPG,AFNE01.JPG,AFNE01.JPG,,,,,4,1,41,5,,,,,,,,,,,,,,,,,,,AMNE20.jpg,AMSA09.jpg,AMNE05.jpg,AMSA04.jpg,AMSA04.jpg,MS,2,num_4,16,num_4,0.683495344361,,,2017_Apr_03_1834,59.9987491667,FEMA4ImagesEEG,001,100118,
AFNE01.JPG,AFNE01.JPG,AFNE01.JPG,AFNE01.JPG,AFNE01.JPG,AFNE01.JPG,,,,,4,2,42,7,,,,,,,,,,,,,,,,,,,AMNE19.jpg,AMNE09.jpg,AMSA20.jpg,AMSA11.jpg,AMNE19.jpg,MN,1,num_8,16,num_8,0.666754335398,,,2017_Apr_03_1834,59.9987491667,FEMA4ImagesEEG,001,100118,
AFNE01.JPG,AFNE01.JPG,AFNE01.JPG,AFNE01.JPG,AFNE01.JPG,AFNE01.JPG,,,,,4,3,43,4,,,,,,,,,,,,,,,,,,,AMSA01.jpg,AMSA02.jpg,AMNE08.jpg,AMNE14.jpg,AMNE08.jpg,MN,1,num_2,16,num_2,0.683381160954,,,2017_Apr_03_1834,59.9987491667,FEMA4ImagesEEG,001,100118,
AFNE01.JPG,AFNE01.JPG,AFNE01.JPG,AFNE01.JPG,AFNE01.JPG,AFNE01.JPG,,,,,4,4,44,9,,,,,,,,,,,,,,,,,,,AMSA01.jpg,AMNE15.jpg,AMNE01.jpg,AMSA16.jpg,AMNE15.jpg,MN,1,num_6,16,num_6,0.733465307159,,,2017_Apr_03_1834,59.9987491667,FEMA4ImagesEEG,001,100118,
AFNE01.JPG,AFNE01.JPG,AFNE01.JPG,AFNE01.JPG,AFNE01.JPG,AFNE01.JPG,,,,,4,5,45,1,,,,,,,,,,,,,,,,,,,AMNE10.jpg,AMSA13.jpg,AMNE09.jpg,AMSA10.jpg,AMSA13.jpg,MS,2,num_6,16,num_6,0.750097264303,,,2017_Apr_03_1834,59.9987491667,FEMA4ImagesEEG,001,100118,
AFNE01.JPG,AFNE01.JPG,AFNE01.JPG,AFNE01.JPG,AFNE01.JPG,AFNE01.JPG,,,,,4,6,46,3,,,,,,,,,,,,,,,,,,,AMSA20.jpg,AMNE19.jpg,AMNE04.jpg,AMSA19.jpg,AMSA19.jpg,MS,2,num_4,32,num_6,0.666822653031,,,2017_Apr_03_1834,59.9987491667,FEMA4ImagesEEG,001,100118,
AFNE01.JPG,AFNE01.JPG,AFNE01.JPG,AFNE01.JPG,AFNE01.JPG,AFNE01.JPG,,,,,4,7,47,2,,,,,,,,,,,,,,,,,,,AMSA14.jpg,AMSA08.jpg,AMNE01.jpg,AMNE07.jpg,AMSA08.jpg,MS,2,num_6,32,num_2,0.750130621251,,,2017_Apr_03_1834,59.9987491667,FEMA4ImagesEEG,001,100118,
AFNE01.JPG,AFNE01.JPG,AFNE01.JPG,AFNE01.JPG,AFNE01.JPG,AFNE01.JPG,,,,,4,8,48,0,,,,,,,,,,,,,,,,,,,AMNE06.jpg,AMNE04.jpg,AMSA11.jpg,AMSA19.jpg,AMNE04.jpg,MN,1,num_6,16,num_6,0.516808203887,,,2017_Apr_03_1834,59.9987491667,FEMA4ImagesEEG,001,100118,
AFNE01.JPG,AFNE01.JPG,AFNE01.JPG,AFNE01.JPG,AFNE01.JPG,AFNE01.JPG,,,,,4,9,49,6,,,,,,,,,,,,,,,,,,,AMNE06.jpg,AMSA11.jpg,AMNE13.jpg,AMSA13.jpg,AMSA13.jpg,MS,2,num_4,16,num_4,0.650146754459,,,2017_Apr_03_1834,59.9987491667,FEMA4ImagesEEG,001,100118,
AFNE01.JPG,AFNE01.JPG,AFNE01.JPG,AFNE01.JPG,AFNE01.JPG,AFNE01.JPG,,,,,5,0,50,0,,,,,,,,,,,,,,,,,,,AMSA03.jpg,AMNE13.jpg,AMNE18.jpg,AMSA01.jpg,AMSA03.jpg,MS,2,num_8,32,num_4,0.650184922386,,,2017_Apr_03_1834,59.9987491667,FEMA4ImagesEEG,001,100118,
AFNE01.JPG,AFNE01.JPG,AFNE01.JPG,AFNE01.JPG,AFNE01.JPG,AFNE01.JPG,,,,,5,1,51,4,,,,,,,,,,,,,,,,,,,AMSA04.jpg,AMNE07.jpg,AMNE11.jpg,AMSA20.jpg,AMNE11.jpg,MN,1,num_2,32,num_6,0.966807610355,,,2017_Apr_03_1834,59.9987491667,FEMA4ImagesEEG,001,100118,
AFNE01.JPG,AFNE01.JPG,AFNE01.JPG,AFNE01.JPG,AFNE01.JPG,AFNE01.JPG,,,,,5,2,52,9,,,,,,,,,,,,,,,,,,,AMSA07.jpg,AMNE15.jpg,AMSA13.jpg,AMNE13.jpg,AMSA13.jpg,MS,2,num_2,32,num_6,1.11674283678,,,2017_Apr_03_1834,59.9987491667,FEMA4ImagesEEG,001,100118,
AFNE01.JPG,AFNE01.JPG,AFNE01.JPG,AFNE01.JPG,AFNE01.JPG,AFNE01.JPG,,,,,5,3,53,3,,,,,,,,,,,,,,,,,,,AMSA04.jpg,AMNE18.jpg,AMNE04.jpg,AMSA14.jpg,AMNE04.jpg,MN,1,num_2,16,num_2,0.83346617315,,,2017_Apr_03_1834,59.9987491667,FEMA4ImagesEEG,001,100118,
AFNE01.JPG,AFNE01.JPG,AFNE01.JPG,AFNE01.JPG,AFNE01.JPG,AFNE01.JPG,,,,,5,4,54,2,,,,,,,,,,,,,,,,,,,AMNE16.jpg,AMNE07.jpg,AMSA11.jpg,AMSA03.jpg,AMNE07.jpg,MN,1,num_6,16,num_6,0.750165581703,,,2017_Apr_03_1834,59.9987491667,FEMA4ImagesEEG,001,100118,
AFNE01.JPG,AFNE01.JPG,AFNE01.JPG,AFNE01.JPG,AFNE01.JPG,AFNE01.JPG,,,,,5,5,55,5,,,,,,,,,,,,,,,,,,,AMNE16.jpg,AMNE14.jpg,AMSA17.jpg,AMSA01.jpg,AMSA01.jpg,MS,2,num_4,16,num_4,0.70017220499,,,2017_Apr_03_1834,59.9987491667,FEMA4ImagesEEG,001,100118,
AFNE01.JPG,AFNE01.JPG,AFNE01.JPG,AFNE01.JPG,AFNE01.JPG,AFNE01.JPG,,,,,5,6,56,7,,,,,,,,,,,,,,,,,,,AMSA10.jpg,AMSA08.jpg,AMNE07.jpg,AMNE15.jpg,AMSA08.jpg,MS,2,num_6,16,num_6,0.666790899821,,,2017_Apr_03_1834,59.9987491667,FEMA4ImagesEEG,001,100118,
AFNE01.JPG,AFNE01.JPG,AFNE01.JPG,AFNE01.JPG,AFNE01.JPG,AFNE01.JPG,,,,,5,7,57,1,,,,,,,,,,,,,,,,,,,AMSA09.jpg,AMSA16.jpg,AMNE08.jpg,AMNE18.jpg,AMNE08.jpg,MN,1,num_2,16,num_2,1.11672006431,,,2017_Apr_03_1834,59.9987491667,FEMA4ImagesEEG,001,100118,
AFNE01.JPG,AFNE01.JPG,AFNE01.JPG,AFNE01.JPG,AFNE01.JPG,AFNE01.JPG,,,,,5,8,58,8,,,,,,,,,,,,,,,,,,,AMNE10.jpg,AMSA14.jpg,AMNE20.jpg,AMSA07.jpg,AMNE20.jpg,MN,1,num_2,16,num_2,0.766824802151,,,2017_Apr_03_1834,59.9987491667,FEMA4ImagesEEG,001,100118,
AFNE01.JPG,AFNE01.JPG,AFNE01.JPG,AFNE01.JPG,AFNE01.JPG,AFNE01.JPG,,,,,5,9,59,6,,,,,,,,,,,,,,,,,,,AMNE06.jpg,AMSA20.jpg,AMSA02.jpg,AMNE02.jpg,AMSA20.jpg,MS,2,num_6,16,num_6,0.650122378254,,,2017_Apr_03_1834,59.9987491667,FEMA4ImagesEEG,001,100118,
,,,,,,,,,,,,,,,,,,,,,,,,,,,,,,,,,,,,,,,,,,,space,9.31570729683,2017_Apr_03_1834,59.9987491667,FEMA4ImagesEEG,001,100118,
AFNE01.JPG,AFNE01.JPG,AFNE01.JPG,AFNE01.JPG,AFNE01.JPG,AFNE01.JPG,,,,,,,,,0,0,0,9,,,,,,,,,,,,,,,AFSA02.jpg,AFNE04.jpg,AFSA17.jpg,AFNE03.jpg,AFSA02.jpg,FS,4,num_8,32,num_4,0.833446928766,,,2017_Apr_03_1834,59.9987491667,FEMA4ImagesEEG,001,100118,
AFNE01.JPG,AFNE01.JPG,AFNE01.JPG,AFNE01.JPG,AFNE01.JPG,AFNE01.JPG,,,,,,,,,0,1,1,4,,,,,,,,,,,,,,,AFSA12.jpg,AFSA03.jpg,AFNE17.jpg,AFNE08.jpg,AFSA03.jpg,FS,4,num_6,16,num_6,0.583465932636,,,2017_Apr_03_1834,59.9987491667,FEMA4ImagesEEG,001,100118,
AFNE01.JPG,AFNE01.JPG,AFNE01.JPG,AFNE01.JPG,AFNE01.JPG,AFNE01.JPG,,,,,,,,,0,2,2,7,,,,,,,,,,,,,,,AFSA15.jpg,AFNE14.jpg,AFNE07.jpg,AFSA19.jpg,AFNE07.jpg,FN,3,num_2,32,num_6,0.800224068807,,,2017_Apr_03_1834,59.9987491667,FEMA4ImagesEEG,001,100118,
AFNE01.JPG,AFNE01.JPG,AFNE01.JPG,AFNE01.JPG,AFNE01.JPG,AFNE01.JPG,,,,,,,,,0,3,3,8,,,,,,,,,,,,,,,AFSA04.jpg,AFNE18.jpg,AFSA15.jpg,AFNE09.jpg,AFNE18.jpg,FN,3,num_6,16,num_6,0.71675990033,,,2017_Apr_03_1834,59.9987491667,FEMA4ImagesEEG,001,100118,
AFNE01.JPG,AFNE01.JPG,AFNE01.JPG,AFNE01.JPG,AFNE01.JPG,AFNE01.JPG,,,,,,,,,0,4,4,3,,,,,,,,,,,,,,,AFNE10.jpg,AFNE20.jpg,AFSA03.jpg,AFSA16.jpg,AFNE10.jpg,FN,3,num_8,32,num_6,0.716747391503,,,2017_Apr_03_1834,59.9987491667,FEMA4ImagesEEG,001,100118,
AFNE01.JPG,AFNE01.JPG,AFNE01.JPG,AFNE01.JPG,AFNE01.JPG,AFNE01.JPG,,,,,,,,,0,5,5,6,,,,,,,,,,,,,,,AFSA18.jpg,AFSA08.jpg,AFNE19.jpg,AFNE09.jpg,AFSA08.jpg,FS,4,num_6,32,num_4,0.75017456268,,,2017_Apr_03_1834,59.9987491667,FEMA4ImagesEEG,001,100118,
AFNE01.JPG,AFNE01.JPG,AFNE01.JPG,AFNE01.JPG,AFNE01.JPG,AFNE01.JPG,,,,,,,,,0,6,6,0,,,,,,,,,,,,,,,AFSA15.jpg,AFSA13.jpg,AFNE20.jpg,AFNE07.jpg,AFNE20.jpg,FN,3,num_2,16,num_2,0.800146770431,,,2017_Apr_03_1834,59.9987491667,FEMA4ImagesEEG,001,100118,
AFNE01.JPG,AFNE01.JPG,AFNE01.JPG,AFNE01.JPG,AFNE01.JPG,AFNE01.JPG,,,,,,,,,0,7,7,1,,,,,,,,,,,,,,,AFNE09.jpg,AFNE15.jpg,AFSA05.jpg,AFSA02.jpg,AFSA05.jpg,FS,4,num_2,32,num_8,0.983421285404,,,2017_Apr_03_1834,59.9987491667,FEMA4ImagesEEG,001,100118,
AFNE01.JPG,AFNE01.JPG,AFNE01.JPG,AFNE01.JPG,AFNE01.JPG,AFNE01.JPG,,,,,,,,,0,8,8,5,,,,,,,,,,,,,,,AFSA18.jpg,AFNE15.jpg,AFSA20.jpg,AFNE04.jpg,AFSA20.jpg,FS,4,num_2,16,num_2,0.750149544794,,,2017_Apr_03_1834,59.9987491667,FEMA4ImagesEEG,001,100118,
AFNE01.JPG,AFNE01.JPG,AFNE01.JPG,AFNE01.JPG,AFNE01.JPG,AFNE01.JPG,,,,,,,,,0,9,9,2,,,,,,,,,,,,,,,AFNE13.jpg,AFNE14.jpg,AFSA18.jpg,AFSA15.jpg,AFSA18.jpg,FS,4,num_2,32,num_8,0.900125505403,,,2017_Apr_03_1834,59.9987491667,FEMA4ImagesEEG,001,100118,
AFNE01.JPG,AFNE01.JPG,AFNE01.JPG,AFNE01.JPG,AFNE01.JPG,AFNE01.JPG,,,,,,,,,1,0,10,4,,,,,,,,,,,,,,,AFNE14.jpg,AFSA19.jpg,AFNE20.jpg,AFSA01.jpg,AFSA01.jpg,FS,4,num_4,32,num_2,0.766839235323,,,2017_Apr_03_1834,59.9987491667,FEMA4ImagesEEG,001,100118,
AFNE01.JPG,AFNE01.JPG,AFNE01.JPG,AFNE01.JPG,AFNE01.JPG,AFNE01.JPG,,,,,,,,,1,1,11,6,,,,,,,,,,,,,,,AFNE20.jpg,AFSA10.jpg,AFNE01.jpg,AFSA11.jpg,AFNE01.jpg,FN,3,num_2,16,num_2,0.866844270844,,,2017_Apr_03_1834,59.9987491667,FEMA4ImagesEEG,001,100118,
AFNE01.JPG,AFNE01.JPG,AFNE01.JPG,AFNE01.JPG,AFNE01.JPG,AFNE01.JPG,,,,,,,,,1,2,12,7,,,,,,,,,,,,,,,AFNE19.jpg,AFNE16.jpg,AFSA08.jpg,AFSA14.jpg,AFSA14.jpg,FS,4,num_4,32,num_8,0.783475361997,,,2017_Apr_03_1834,59.9987491667,FEMA4ImagesEEG,001,100118,
AFNE01.JPG,AFNE01.JPG,AFNE01.JPG,AFNE01.JPG,AFNE01.JPG,AFNE01.JPG,,,,,,,,,1,3,13,8,,,,,,,,,,,,,,,AFSA17.jpg,AFSA20.jpg,AFNE18.jpg,AFNE08.jpg,AFSA20.jpg,FS,4,num_6,16,num_6,0.733461137395,,,2017_Apr_03_1834,59.9987491667,FEMA4ImagesEEG,001,100118,
AFNE01.JPG,AFNE01.JPG,AFNE01.JPG,AFNE01.JPG,AFNE01.JPG,AFNE01.JPG,,,,,,,,,1,4,14,5,,,,,,,,,,,,,,,AFNE13.jpg,AFSA09.jpg,AFSA13.jpg,AFNE04.jpg,AFNE04.jpg,FN,3,num_4,32,num_8,1.03349901666,,,2017_Apr_03_1834,59.9987491667,FEMA4ImagesEEG,001,100118,
AFNE01.JPG,AFNE01.JPG,AFNE01.JPG,AFNE01.JPG,AFNE01.JPG,AFNE01.JPG,,,,,,,,,1,5,15,1,,,,,,,,,,,,,,,AFNE02.jpg,AFSA15.jpg,AFSA11.jpg,AFNE17.jpg,AFNE17.jpg,FN,3,num_4,32,num_2,0.766626584809,,,2017_Apr_03_1834,59.9987491667,FEMA4ImagesEEG,001,100118,
AFNE01.JPG,AFNE01.JPG,AFNE01.JPG,AFNE01.JPG,AFNE01.JPG,AFNE01.JPG,,,,,,,,,1,6,16,9,,,,,,,,,,,,,,,AFNE13.jpg,AFSA18.jpg,AFNE09.jpg,AFSA19.jpg,AFNE09.jpg,FN,3,num_2,32,num_8,0.933543695835,,,2017_Apr_03_1834,59.9987491667,FEMA4ImagesEEG,001,100118,
AFNE01.JPG,AFNE01.JPG,AFNE01.JPG,AFNE01.JPG,AFNE01.JPG,AFNE01.JPG,,,,,,,,,1,7,17,2,,,,,,,,,,,,,,,AFNE10.jpg,AFNE12.jpg,AFSA16.jpg,AFSA14.jpg,AFSA14.jpg,FS,4,num_4,32,num_2,0.800167297712,,,2017_Apr_03_1834,59.9987491667,FEMA4ImagesEEG,001,100118,
AFNE01.JPG,AFNE01.JPG,AFNE01.JPG,AFNE01.JPG,AFNE01.JPG,AFNE01.JPG,,,,,,,,,1,8,18,3,,,,,,,,,,,,,,,AFSA16.jpg,AFSA01.jpg,AFNE17.jpg,AFNE08.jpg,AFSA16.jpg,FS,4,num_8,32,num_6,0.683504325105,,,2017_Apr_03_1834,59.9987491667,FEMA4ImagesEEG,001,100118,
AFNE01.JPG,AFNE01.JPG,AFNE01.JPG,AFNE01.JPG,AFNE01.JPG,AFNE01.JPG,,,,,,,,,1,9,19,0,,,,,,,,,,,,,,,AFNE08.jpg,AFNE18.jpg,AFSA16.jpg,AFSA18.jpg,AFSA16.jpg,FS,4,num_2,32,num_4,0.55014524702,,,2017_Apr_03_1834,59.9987491667,FEMA4ImagesEEG,001,100118,
AFNE01.JPG,AFNE01.JPG,AFNE01.JPG,AFNE01.JPG,AFNE01.JPG,AFNE01.JPG,,,,,,,,,2,0,20,6,,,,,,,,,,,,,,,AFNE03.jpg,AFNE10.jpg,AFSA19.jpg,AFSA18.jpg,AFSA19.jpg,FS,4,num_2,16,num_2,0.933469284093,,,2017_Apr_03_1834,59.9987491667,FEMA4ImagesEEG,001,100118,
AFNE01.JPG,AFNE01.JPG,AFNE01.JPG,AFNE01.JPG,AFNE01.JPG,AFNE01.JPG,,,,,,,,,2,1,21,1,,,,,,,,,,,,,,,AFNE20.jpg,AFNE07.jpg,AFSA06.jpg,AFSA14.jpg,AFNE20.jpg,FN,3,num_8,32,num_6,0.666832596064,,,2017_Apr_03_1834,59.9987491667,FEMA4ImagesEEG,001,100118,
AFNE01.JPG,AFNE01.JPG,AFNE01.JPG,AFNE01.JPG,AFNE01.JPG,AFNE01.JPG,,,,,,,,,2,2,22,0,,,,,,,,,,,,,,,AFSA05.jpg,AFSA16.jpg,AFNE03.jpg,AFNE11.jpg,AFNE03.jpg,FN,3,num_2,16,num_2,0.850152335363,,,2017_Apr_03_1834,59.9987491667,FEMA4ImagesEEG,001,100118,
AFNE01.JPG,AFNE01.JPG,AFNE01.JPG,AFNE01.JPG,AFNE01.JPG,AFNE01.JPG,,,,,,,,,2,3,23,5,,,,,,,,,,,,,,,AFSA18.jpg,AFNE02.jpg,AFNE11.jpg,AFSA15.jpg,AFSA15.jpg,FS,4,num_4,32,num_6,0.750129658962,,,2017_Apr_03_1834,59.9987491667,FEMA4ImagesEEG,001,100118,
AFNE01.JPG,AFNE01.JPG,AFNE01.JPG,AFNE01.JPG,AFNE01.JPG,AFNE01.JPG,,,,,,,,,2,4,24,9,,,,,,,,,,,,,,,AFSA10.jpg,AFNE13.jpg,AFSA15.jpg,AFNE08.jpg,AFSA15.jpg,FS,4,num_2,16,num_2,1.00011739088,,,2017_Apr_03_1834,59.9987491667,FEMA4ImagesEEG,001,100118,
AFNE01.JPG,AFNE01.JPG,AFNE01.JPG,AFNE01.JPG,AFNE01.JPG,AFNE01.JPG,,,,,,,,,2,5,25,2,,,,,,,,,,,,,,,AFSA08.jpg,AFNE01.jpg,AFSA05.jpg,AFNE19.jpg,AFNE19.jpg,FN,3,num_4,32,num_6,0.983471641783,,,2017_Apr_03_1834,59.9987491667,FEMA4ImagesEEG,001,100118,
AFNE01.JPG,AFNE01.JPG,AFNE01.JPG,AFNE01.JPG,AFNE01.JPG,AFNE01.JPG,,,,,,,,,2,6,26,3,,,,,,,,,,,,,,,AFSA17.jpg,AFNE15.jpg,AFNE13.jpg,AFSA04.jpg,AFSA17.jpg,FS,4,num_8,32,num_4,0.800149657065,,,2017_Apr_03_1834,59.9987491667,FEMA4ImagesEEG,001,100118,
AFNE01.JPG,AFNE01.JPG,AFNE01.JPG,AFNE01.JPG,AFNE01.JPG,AFNE01.JPG,,,,,,,,,2,7,27,7,,,,,,,,,,,,,,,AFNE10.jpg,AFSA07.jpg,AFNE19.jpg,AFSA15.jpg,AFNE10.jpg,FN,3,num_8,16,num_8,1.3834189761,,,2017_Apr_03_1834,59.9987491667,FEMA4ImagesEEG,001,100118,
AFNE01.JPG,AFNE01.JPG,AFNE01.JPG,AFNE01.JPG,AFNE01.JPG,AFNE01.JPG,,,,,,,,,2,8,28,8,,,,,,,,,,,,,,,AFNE19.jpg,AFSA07.jpg,AFSA03.jpg,AFNE06.jpg,AFNE06.jpg,FN,3,num_4,16,num_4,0.833449494559,,,2017_Apr_03_1834,59.9987491667,FEMA4ImagesEEG,001,100118,
AFNE01.JPG,AFNE01.JPG,AFNE01.JPG,AFNE01.JPG,AFNE01.JPG,AFNE01.JPG,,,,,,,,,2,9,29,4,,,,,,,,,,,,,,,AFNE11.jpg,AFNE13.jpg,AFSA01.jpg,AFSA13.jpg,AFNE13.jpg,FN,3,num_6,16,num_6,0.766743013402,,,2017_Apr_03_1834,59.9987491667,FEMA4ImagesEEG,001,100118,
AFNE01.JPG,AFNE01.JPG,AFNE01.JPG,AFNE01.JPG,AFNE01.JPG,AFNE01.JPG,,,,,,,,,3,0,30,8,,,,,,,,,,,,,,,AFSA18.jpg,AFNE10.jpg,AFSA12.jpg,AFNE06.jpg,AFNE10.jpg,FN,3,num_6,16,num_6,0.733460175106,,,2017_Apr_03_1834,59.9987491667,FEMA4ImagesEEG,001,100118,
AFNE01.JPG,AFNE01.JPG,AFNE01.JPG,AFNE01.JPG,AFNE01.JPG,AFNE01.JPG,,,,,,,,,3,1,31,2,,,,,,,,,,,,,,,AFNE03.jpg,AFSA18.jpg,AFNE07.jpg,AFSA04.jpg,AFSA18.jpg,FS,4,num_6,16,num_6,0.90009920462,,,2017_Apr_03_1834,59.9987491667,FEMA4ImagesEEG,001,100118,
AFNE01.JPG,AFNE01.JPG,AFNE01.JPG,AFNE01.JPG,AFNE01.JPG,AFNE01.JPG,,,,,,,,,3,2,32,3,,,,,,,,,,,,,,,AFNE12.jpg,AFSA12.jpg,AFSA02.jpg,AFNE03.jpg,AFNE12.jpg,FN,3,num_8,16,num_8,0.899825293105,,,2017_Apr_03_1834,59.9987491667,FEMA4ImagesEEG,001,100118,
AFNE01.JPG,AFNE01.JPG,AFNE01.JPG,AFNE01.JPG,AFNE01.JPG,AFNE01.JPG,,,,,,,,,3,3,33,1,,,,,,,,,,,,,,,AFNE10.jpg,AFSA04.jpg,AFNE18.jpg,AFSA01.jpg,AFSA01.jpg,FS,4,num_4,16,num_4,0.883469172055,,,2017_Apr_03_1834,59.9987491667,FEMA4ImagesEEG,001,100118,
AFNE01.JPG,AFNE01.JPG,AFNE01.JPG,AFNE01.JPG,AFNE01.JPG,AFNE01.JPG,,,,,,,,,3,4,34,6,,,,,,,,,,,,,,,AFNE16.jpg,AFNE18.jpg,AFSA11.jpg,AFSA18.jpg,AFSA18.jpg,FS,4,num_4,32,num_2,0.866809310159,,,2017_Apr_03_1834,59.9987491667,FEMA4ImagesEEG,001,100118,
AFNE01.JPG,AFNE01.JPG,AFNE01.JPG,AFNE01.JPG,AFNE01.JPG,AFNE01.JPG,,,,,,,,,3,5,35,7,,,,,,,,,,,,,,,AFSA09.jpg,AFSA07.jpg,AFNE07.jpg,AFNE11.jpg,AFNE07.jpg,FN,3,num_2,32,num_6,0.733475249959,,,2017_Apr_03_1834,59.9987491667,FEMA4ImagesEEG,001,100118,
AFNE01.JPG,AFNE01.JPG,AFNE01.JPG,AFNE01.JPG,AFNE01.JPG,AFNE01.JPG,,,,,,,,,3,6,36,4,,,,,,,,,,,,,,,AFSA15.jpg,AFNE19.jpg,AFSA12.jpg,AFNE07.jpg,AFSA12.jpg,FS,4,num_2,16,num_2,0.916748482035,,,2017_Apr_03_1834,59.9987491667,FEMA4ImagesEEG,001,100118,
AFNE01.JPG,AFNE01.JPG,AFNE01.JPG,AFNE01.JPG,AFNE01.JPG,AFNE01.JPG,,,,,,,,,3,7,37,9,,,,,,,,,,,,,,,AFNE20.jpg,AFSA15.jpg,AFSA02.jpg,AFNE16.jpg,AFSA02.jpg,FS,4,num_2,32,num_4,0.883495151997,,,2017_Apr_03_1834,59.9987491667,FEMA4ImagesEEG,001,100118,
AFNE01.JPG,AFNE01.JPG,AFNE01.JPG,AFNE01.JPG,AFNE01.JPG,AFNE01.JPG,,,,,,,,,3,8,38,5,,,,,,,,,,,,,,,AFSA01.jpg,AFSA18.jpg,AFNE11.jpg,AFNE17.jpg,AFNE11.jpg,FN,3,num_2,16,num_2,0.816768143559,,,2017_Apr_03_1834,59.9987491667,FEMA4ImagesEEG,001,100118,
AFNE01.JPG,AFNE01.JPG,AFNE01.JPG,AFNE01.JPG,AFNE01.JPG,AFNE01.JPG,,,,,,,,,3,9,39,0,,,,,,,,,,,,,,,AFSA05.jpg,AFSA02.jpg,AFNE02.jpg,AFNE13.jpg,AFSA05.jpg,FS,4,num_8,32,num_2,0.900133523857,,,2017_Apr_03_1834,59.9987491667,FEMA4ImagesEEG,001,100118,
AFNE01.JPG,AFNE01.JPG,AFNE01.JPG,AFNE01.JPG,AFNE01.JPG,AFNE01.JPG,,,,,,,,,4,0,40,0,,,,,,,,,,,,,,,AFSA19.jpg,AFSA16.jpg,AFNE20.jpg,AFNE09.jpg,AFNE09.jpg,FN,3,num_4,32,num_8,1.16672883672,,,2017_Apr_03_1834,59.9987491667,FEMA4ImagesEEG,001,100118,
AFNE01.JPG,AFNE01.JPG,AFNE01.JPG,AFNE01.JPG,AFNE01.JPG,AFNE01.JPG,,,,,,,,,4,1,41,4,,,,,,,,,,,,,,,AFNE10.jpg,AFSA12.jpg,AFSA19.jpg,AFNE14.jpg,AFSA19.jpg,FS,4,num_2,16,num_2,1.08342567971,,,2017_Apr_03_1834,59.9987491667,FEMA4ImagesEEG,001,100118,
AFNE01.JPG,AFNE01.JPG,AFNE01.JPG,AFNE01.JPG,AFNE01.JPG,AFNE01.JPG,,,,,,,,,4,2,42,1,,,,,,,,,,,,,,,AFSA11.jpg,AFSA16.jpg,AFNE01.jpg,AFNE14.jpg,AFNE01.jpg,FN,3,num_2,16,num_2,0.883484246908,,,2017_Apr_03_1834,59.9987491667,FEMA4ImagesEEG,001,100118,
AFNE01.JPG,AFNE01.JPG,AFNE01.JPG,AFNE01.JPG,AFNE01.JPG,AFNE01.JPG,,,,,,,,,4,3,43,6,,,,,,,,,,,,,,,AFNE03.jpg,AFNE01.jpg,AFSA20.jpg,AFSA02.jpg,AFNE01.jpg,FN,3,num_6,32,num_8,1.08343722625,,,2017_Apr_03_1834,59.9987491667,FEMA4ImagesEEG,001,100118,
AFNE01.JPG,AFNE01.JPG,AFNE01.JPG,AFNE01.JPG,AFNE01.JPG,AFNE01.JPG,,,,,,,,,4,4,44,8,,,,,,,,,,,,,,,AFSA16.jpg,AFSA04.jpg,AFNE13.jpg,AFNE03.jpg,AFNE03.jpg,FN,3,num_4,16,num_4,0.950191369513,,,2017_Apr_03_1834,59.9987491667,FEMA4ImagesEEG,001,100118,
AFNE01.JPG,AFNE01.JPG,AFNE01.JPG,AFNE01.JPG,AFNE01.JPG,AFNE01.JPG,,,,,,,,,4,5,45,2,,,,,,,,,,,,,,,AFSA20.jpg,AFNE05.jpg,AFSA02.jpg,AFNE19.jpg,AFSA20.jpg,FS,4,num_8,32,num_2,1.15010714321,,,2017_Apr_03_1834,59.9987491667,FEMA4ImagesEEG,001,100118,
AFNE01.JPG,AFNE01.JPG,AFNE01.JPG,AFNE01.JPG,AFNE01.JPG,AFNE01.JPG,,,,,,,,,4,6,46,3,,,,,,,,,,,,,,,AFNE11.jpg,AFSA03.jpg,AFNE12.jpg,AFSA08.jpg,AFNE11.jpg,FN,3,num_8,16,num_8,1.21669815807,,,2017_Apr_03_1834,59.9987491667,FEMA4ImagesEEG,001,100118,
AFNE01.JPG,AFNE01.JPG,AFNE01.JPG,AFNE01.JPG,AFNE01.JPG,AFNE01.JPG,,,,,,,,,4,7,47,5,,,,,,,,,,,,,,,AFSA19.jpg,AFNE08.jpg,AFSA03.jpg,AFNE07.jpg,AFNE07.jpg,FN,3,num_4,16,num_4,1.65007362585,,,2017_Apr_03_1834,59.9987491667,FEMA4ImagesEEG,001,100118,
AFNE01.JPG,AFNE01.JPG,AFNE01.JPG,AFNE01.JPG,AFNE01.JPG,AFNE01.JPG,,,,,,,,,4,8,48,7,,,,,,,,,,,,,,,AFNE15.jpg,AFSA17.jpg,AFSA18.jpg,AFNE04.jpg,AFNE04.jpg,FN,3,num_4,16,num_4,0.750103358412,,,2017_Apr_03_1834,59.9987491667,FEMA4ImagesEEG,001,100118,
AFNE01.JPG,AFNE01.JPG,AFNE01.JPG,AFNE01.JPG,AFNE01.JPG,AFNE01.JPG,,,,,,,,,4,9,49,9,,,,,,,,,,,,,,,AFNE20.jpg,AFSA06.jpg,AFSA04.jpg,AFNE10.jpg,AFNE10.jpg,FN,3,num_4,16,num_4,1.18344450695,,,2017_Apr_03_1834,59.9987491667,FEMA4ImagesEEG,001,100118,
AFNE01.JPG,AFNE01.JPG,AFNE01.JPG,AFNE01.JPG,AFNE01.JPG,AFNE01.JPG,,,,,,,,,5,0,50,7,,,,,,,,,,,,,,,AFSA17.jpg,AFNE01.jpg,AFNE09.jpg,AFSA06.jpg,AFSA17.jpg,FS,4,num_8,16,num_8,0.96675244323,,,2017_Apr_03_1834,59.9987491667,FEMA4ImagesEEG,001,100118,
AFNE01.JPG,AFNE01.JPG,AFNE01.JPG,AFNE01.JPG,AFNE01.JPG,AFNE01.JPG,,,,,,,,,5,1,51,1,,,,,,,,,,,,,,,AFSA20.jpg,AFSA08.jpg,AFNE03.jpg,AFNE09.jpg,AFSA20.jpg,FS,4,num_8,16,num_8,0.866816045716,,,2017_Apr_03_1834,59.9987491667,FEMA4ImagesEEG,001,100118,
AFNE01.JPG,AFNE01.JPG,AFNE01.JPG,AFNE01.JPG,AFNE01.JPG,AFNE01.JPG,,,,,,,,,5,2,52,2,,,,,,,,,,,,,,,AFNE18.jpg,AFNE04.jpg,AFSA03.jpg,AFSA07.jpg,AFSA07.jpg,FS,4,num_4,16,num_4,1.25008684024,,,2017_Apr_03_1834,59.9987491667,FEMA4ImagesEEG,001,100118,
AFNE01.JPG,AFNE01.JPG,AFNE01.JPG,AFNE01.JPG,AFNE01.JPG,AFNE01.JPG,,,,,,,,,5,3,53,4,,,,,,,,,,,,,,,AFSA10.jpg,AFNE19.jpg,AFSA12.jpg,AFNE12.jpg,AFSA12.jpg,FS,4,num_2,16,num_2,1.20011206646,,,2017_Apr_03_1834,59.9987491667,FEMA4ImagesEEG,001,100118,
AFNE01.JPG,AFNE01.JPG,AFNE01.JPG,AFNE01.JPG,AFNE01.JPG,AFNE01.JPG,,,,,,,,,5,4,54,3,,,,,,,,,,,,,,,AFNE02.jpg,AFSA11.jpg,AFSA13.jpg,AFNE14.jpg,AFNE14.jpg,FN,3,num_4,16,num_4,0.8498222942,,,2017_Apr_03_1834,59.9987491667,FEMA4ImagesEEG,001,100118,
AFNE01.JPG,AFNE01.JPG,AFNE01.JPG,AFNE01.JPG,AFNE01.JPG,AFNE01.JPG,,,,,,,,,5,5,55,0,,,,,,,,,,,,,,,AFNE17.jpg,AFNE14.jpg,AFSA02.jpg,AFSA18.jpg,AFSA02.jpg,FS,4,num_2,32,num_4,0.916802045656,,,2017_Apr_03_1834,59.9987491667,FEMA4ImagesEEG,001,100118,
AFNE01.JPG,AFNE01.JPG,AFNE01.JPG,AFNE01.JPG,AFNE01.JPG,AFNE01.JPG,,,,,,,,,5,6,56,6,,,,,,,,,,,,,,,AFSA16.jpg,AFNE19.jpg,AFNE08.jpg,AFSA09.jpg,AFSA09.jpg,FS,4,num_4,16,num_4,1.00009686337,,,2017_Apr_03_1834,59.9987491667,FEMA4ImagesEEG,001,100118,
AFNE01.JPG,AFNE01.JPG,AFNE01.JPG,AFNE01.JPG,AFNE01.JPG,AFNE01.JPG,,,,,,,,,5,7,57,9,,,,,,,,,,,,,,,AFSA20.jpg,AFSA13.jpg,AFNE20.jpg,AFNE02.jpg,AFSA20.jpg,FS,4,num_8,16,num_8,2.15001124213,,,2017_Apr_03_1834,59.9987491667,FEMA4ImagesEEG,001,100118,
AFNE01.JPG,AFNE01.JPG,AFNE01.JPG,AFNE01.JPG,AFNE01.JPG,AFNE01.JPG,,,,,,,,,5,8,58,8,,,,,,,,,,,,,,,AFSA18.jpg,AFNE05.jpg,AFNE10.jpg,AFSA02.jpg,AFNE05.jpg,FN,3,num_6,16,num_6,0.950131711783,,,2017_Apr_03_1834,59.9987491667,FEMA4ImagesEEG,001,100118,
AFNE01.JPG,AFNE01.JPG,AFNE01.JPG,AFNE01.JPG,AFNE01.JPG,AFNE01.JPG,,,,,,,,,5,9,59,5,,,,,,,,,,,,,,,AFNE09.jpg,AFNE07.jpg,AFSA08.jpg,AFSA09.jpg,AFNE07.jpg,FN,3,num_6,16,num_6,0.733453118941,,,2017_Apr_03_1834,59.9987491667,FEMA4ImagesEEG,001,100118,
,,,,,,,,,,,,,,,,,,,,,,,,,,,,,,,,,,,,,,,,,,,space,12.9158488072,2017_Apr_03_1834,59.9987491667,FEMA4ImagesEEG,001,100118,
AFNE01.JPG,AFNE01.JPG,AFNE01.JPG,AFNE01.JPG,AFNE01.JPG,AFNE01.JPG,,,,,,,,,,,,,0,0,0,6,,,,,,,,,,,AMSA03.jpg,AMNE01.jpg,AMSA15.jpg,AMNE04.jpg,AMSA15.jpg,MS,2,num_2,16,num_2,0.933537922334,,,2017_Apr_03_1834,59.9987491667,FEMA4ImagesEEG,001,100118,
AFNE01.JPG,AFNE01.JPG,AFNE01.JPG,AFNE01.JPG,AFNE01.JPG,AFNE01.JPG,,,,,,,,,,,,,0,1,1,9,,,,,,,,,,,AMNE11.jpg,AMSA06.jpg,AMSA07.jpg,AMNE08.jpg,AMNE11.jpg,MN,1,num_8,32,num_2,0.916803649394,,,2017_Apr_03_1834,59.9987491667,FEMA4ImagesEEG,001,100118,
AFNE01.JPG,AFNE01.JPG,AFNE01.JPG,AFNE01.JPG,AFNE01.JPG,AFNE01.JPG,,,,,,,,,,,,,0,2,2,4,,,,,,,,,,,AMSA01.jpg,AMSA20.jpg,AMNE09.jpg,AMNE03.jpg,AMSA01.jpg,MS,2,num_8,16,num_8,0.916417799424,,,2017_Apr_03_1834,59.9987491667,FEMA4ImagesEEG,001,100118,
AFNE01.JPG,AFNE01.JPG,AFNE01.JPG,AFNE01.JPG,AFNE01.JPG,AFNE01.JPG,,,,,,,,,,,,,0,3,3,3,,,,,,,,,,,AMNE01.jpg,AMSA15.jpg,AMSA16.jpg,AMNE13.jpg,AMSA16.jpg,MS,2,num_2,16,num_2,0.716825010488,,,2017_Apr_03_1834,59.9987491667,FEMA4ImagesEEG,001,100118,
AFNE01.JPG,AFNE01.JPG,AFNE01.JPG,AFNE01.JPG,AFNE01.JPG,AFNE01.JPG,,,,,,,,,,,,,0,4,4,0,,,,,,,,,,,AMNE19.jpg,AMSA16.jpg,AMNE05.jpg,AMSA07.jpg,AMSA07.jpg,MS,2,num_4,32,num_6,1.9000985634,,,2017_Apr_03_1834,59.9987491667,FEMA4ImagesEEG,001,100118,
AFNE01.JPG,AFNE01.JPG,AFNE01.JPG,AFNE01.JPG,AFNE01.JPG,AFNE01.JPG,,,,,,,,,,,,,0,5,5,1,,,,,,,,,,,AMSA10.jpg,AMNE05.jpg,AMSA01.jpg,AMNE14.jpg,AMSA10.jpg,MS,2,num_8,32,num_2,0.800140355481,,,2017_Apr_03_1834,59.9987491667,FEMA4ImagesEEG,001,100118,
AFNE01.JPG,AFNE01.JPG,AFNE01.JPG,AFNE01.JPG,AFNE01.JPG,AFNE01.JPG,,,,,,,,,,,,,0,6,6,7,,,,,,,,,,,AMSA07.jpg,AMSA15.jpg,AMNE08.jpg,AMNE11.jpg,AMNE08.jpg,MN,1,num_2,32,num_4,0.866740992758,,,2017_Apr_03_1834,59.9987491667,FEMA4ImagesEEG,001,100118,
AFNE01.JPG,AFNE01.JPG,AFNE01.JPG,AFNE01.JPG,AFNE01.JPG,AFNE01.JPG,,,,,,,,,,,,,0,7,7,5,,,,,,,,,,,AMNE02.jpg,AMNE15.jpg,AMSA05.jpg,AMSA11.jpg,AMNE02.jpg,MN,1,num_8,32,num_4,0.916783763561,,,2017_Apr_03_1834,59.9987491667,FEMA4ImagesEEG,001,100118,
AFNE01.JPG,AFNE01.JPG,AFNE01.JPG,AFNE01.JPG,AFNE01.JPG,AFNE01.JPG,,,,,,,,,,,,,0,8,8,8,,,,,,,,,,,AMNE02.jpg,AMSA03.jpg,AMSA07.jpg,AMNE19.jpg,AMNE02.jpg,MN,1,num_8,32,num_2,1.10018304596,,,2017_Apr_03_1834,59.9987491667,FEMA4ImagesEEG,001,100118,
AFNE01.JPG,AFNE01.JPG,AFNE01.JPG,AFNE01.JPG,AFNE01.JPG,AFNE01.JPG,,,,,,,,,,,,,0,9,9,2,,,,,,,,,,,AMNE17.jpg,AMSA20.jpg,AMSA07.jpg,AMNE20.jpg,AMNE20.jpg,MN,1,num_4,32,num_6,0.750171355205,,,2017_Apr_03_1834,59.9987491667,FEMA4ImagesEEG,001,100118,
AFNE01.JPG,AFNE01.JPG,AFNE01.JPG,AFNE01.JPG,AFNE01.JPG,AFNE01.JPG,,,,,,,,,,,,,1,0,10,0,,,,,,,,,,,AMNE18.jpg,AMNE14.jpg,AMSA11.jpg,AMSA06.jpg,AMSA11.jpg,MS,2,num_2,32,num_4,1.16675962764,,,2017_Apr_03_1834,59.9987491667,FEMA4ImagesEEG,001,100118,
AFNE01.JPG,AFNE01.JPG,AFNE01.JPG,AFNE01.JPG,AFNE01.JPG,AFNE01.JPG,,,,,,,,,,,,,1,1,11,2,,,,,,,,,,,AMNE17.jpg,AMSA15.jpg,AMNE05.jpg,AMSA16.jpg,AMSA15.jpg,MS,2,num_6,16,num_6,0.650025835494,,,2017_Apr_03_1834,59.9987491667,FEMA4ImagesEEG,001,100118,
AFNE01.JPG,AFNE01.JPG,AFNE01.JPG,AFNE01.JPG,AFNE01.JPG,AFNE01.JPG,,,,,,,,,,,,,1,2,12,7,,,,,,,,,,,AMSA07.jpg,AMSA20.jpg,AMNE19.jpg,AMNE20.jpg,AMNE20.jpg,MN,1,num_4,32,num_6,0.750142488629,,,2017_Apr_03_1834,59.9987491667,FEMA4ImagesEEG,001,100118,
AFNE01.JPG,AFNE01.JPG,AFNE01.JPG,AFNE01.JPG,AFNE01.JPG,AFNE01.JPG,,,,,,,,,,,,,1,3,13,8,,,,,,,,,,,AMSA18.jpg,AMNE07.jpg,AMSA12.jpg,AMNE18.jpg,AMNE18.jpg,MN,1,num_4,32,num_6,1.48312636535,,,2017_Apr_03_1834,59.9987491667,FEMA4ImagesEEG,001,100118,
AFNE01.JPG,AFNE01.JPG,AFNE01.JPG,AFNE01.JPG,AFNE01.JPG,AFNE01.JPG,,,,,,,,,,,,,1,4,14,1,,,,,,,,,,,AMSA14.jpg,AMSA18.jpg,AMNE04.jpg,AMNE01.jpg,AMSA14.jpg,MS,2,num_8,16,num_8,0.666831633775,,,2017_Apr_03_1834,59.9987491667,FEMA4ImagesEEG,001,100118,
AFNE01.JPG,AFNE01.JPG,AFNE01.JPG,AFNE01.JPG,AFNE01.JPG,AFNE01.JPG,,,,,,,,,,,,,1,5,15,6,,,,,,,,,,,AMSA12.jpg,AMNE06.jpg,AMNE08.jpg,AMSA08.jpg,AMSA12.jpg,MS,2,num_8,32,num_6,0.816828121664,,,2017_Apr_03_1834,59.9987491667,FEMA4ImagesEEG,001,100118,
AFNE01.JPG,AFNE01.JPG,AFNE01.JPG,AFNE01.JPG,AFNE01.JPG,AFNE01.JPG,,,,,,,,,,,,,1,6,16,4,,,,,,,,,,,AMSA11.jpg,AMNE18.jpg,AMSA14.jpg,AMNE06.jpg,AMSA14.jpg,MS,2,num_2,32,num_8,0.950136202155,,,2017_Apr_03_1834,59.9987491667,FEMA4ImagesEEG,001,100118,
AFNE01.JPG,AFNE01.JPG,AFNE01.JPG,AFNE01.JPG,AFNE01.JPG,AFNE01.JPG,,,,,,,,,,,,,1,7,17,3,,,,,,,,,,,AMSA14.jpg,AMNE01.jpg,AMSA18.jpg,AMNE12.jpg,AMNE01.jpg,MN,1,num_6,16,num_6,1.08350105351,,,2017_Apr_03_1834,59.9987491667,FEMA4ImagesEEG,001,100118,
AFNE01.JPG,AFNE01.JPG,AFNE01.JPG,AFNE01.JPG,AFNE01.JPG,AFNE01.JPG,,,,,,,,,,,,,1,8,18,9,,,,,,,,,,,AMNE02.jpg,AMNE05.jpg,AMSA14.jpg,AMSA07.jpg,AMNE05.jpg,MN,1,num_6,16,num_6,0.650192299392,,,2017_Apr_03_1834,59.9987491667,FEMA4ImagesEEG,001,100118,
AFNE01.JPG,AFNE01.JPG,AFNE01.JPG,AFNE01.JPG,AFNE01.JPG,AFNE01.JPG,,,,,,,,,,,,,1,9,19,5,,,,,,,,,,,AMSA14.jpg,AMNE05.jpg,AMSA07.jpg,AMNE01.jpg,AMNE05.jpg,MN,1,num_6,16,num_6,0.60001064837,,,2017_Apr_03_1834,59.9987491667,FEMA4ImagesEEG,001,100118,
AFNE01.JPG,AFNE01.JPG,AFNE01.JPG,AFNE01.JPG,AFNE01.JPG,AFNE01.JPG,,,,,,,,,,,,,2,0,20,5,,,,,,,,,,,AMSA10.jpg,AMSA01.jpg,AMNE17.jpg,AMNE11.jpg,AMSA10.jpg,MS,2,num_8,32,num_4,1.06664618198,,,2017_Apr_03_1834,59.9987491667,FEMA4ImagesEEG,001,100118,
AFNE01.JPG,AFNE01.JPG,AFNE01.JPG,AFNE01.JPG,AFNE01.JPG,AFNE01.JPG,,,,,,,,,,,,,2,1,21,1,,,,,,,,,,,AMNE16.jpg,AMNE06.jpg,AMSA16.jpg,AMSA20.jpg,AMSA16.jpg,MS,2,num_2,32,num_4,0.866647016024,,,2017_Apr_03_1834,59.9987491667,FEMA4ImagesEEG,001,100118,
AFNE01.JPG,AFNE01.JPG,AFNE01.JPG,AFNE01.JPG,AFNE01.JPG,AFNE01.JPG,,,,,,,,,,,,,2,2,22,0,,,,,,,,,,,AMNE03.jpg,AMSA14.jpg,AMSA12.jpg,AMNE08.jpg,AMSA14.jpg,MS,2,num_6,16,num_6,0.666769410251,,,2017_Apr_03_1834,59.9987491667,FEMA4ImagesEEG,001,100118,
AFNE01.JPG,AFNE01.JPG,AFNE01.JPG,AFNE01.JPG,AFNE01.JPG,AFNE01.JPG,,,,,,,,,,,,,2,3,23,8,,,,,,,,,,,AMSA08.jpg,AMSA10.jpg,AMNE14.jpg,AMNE12.jpg,AMSA10.jpg,MS,2,num_6,16,num_6,0.800129771233,,,2017_Apr_03_1834,59.9987491667,FEMA4ImagesEEG,001,100118,
AFNE01.JPG,AFNE01.JPG,AFNE01.JPG,AFNE01.JPG,AFNE01.JPG,AFNE01.JPG,,,,,,,,,,,,,2,4,24,4,,,,,,,,,,,AMNE18.jpg,AMSA11.jpg,AMSA17.jpg,AMNE10.jpg,AMNE10.jpg,MN,1,num_4,32,num_8,0.68350111763,,,2017_Apr_03_1834,59.9987491667,FEMA4ImagesEEG,001,100118,
AFNE01.JPG,AFNE01.JPG,AFNE01.JPG,AFNE01.JPG,AFNE01.JPG,AFNE01.JPG,,,,,,,,,,,,,2,5,25,3,,,,,,,,,,,AMSA18.jpg,AMNE03.jpg,AMSA02.jpg,AMNE08.jpg,AMSA02.jpg,MS,2,num_2,16,num_2,0.716955231037,,,2017_Apr_03_1834,59.9987491667,FEMA4ImagesEEG,001,100118,
AFNE01.JPG,AFNE01.JPG,AFNE01.JPG,AFNE01.JPG,AFNE01.JPG,AFNE01.JPG,,,,,,,,,,,,,2,6,26,9,,,,,,,,,,,AMSA05.jpg,AMNE09.jpg,AMNE03.jpg,AMSA06.jpg,AMNE03.jpg,MN,1,num_2,32,num_8,0.850117053837,,,2017_Apr_03_1834,59.9987491667,FEMA4ImagesEEG,001,100118,
AFNE01.JPG,AFNE01.JPG,AFNE01.JPG,AFNE01.JPG,AFNE01.JPG,AFNE01.JPG,,,,,,,,,,,,,2,7,27,7,,,,,,,,,,,AMSA10.jpg,AMSA15.jpg,AMNE10.jpg,AMNE03.jpg,AMSA10.jpg,MS,2,num_8,16,num_8,1.40009551635,,,2017_Apr_03_1834,59.9987491667,FEMA4ImagesEEG,001,100118,
AFNE01.JPG,AFNE01.JPG,AFNE01.JPG,AFNE01.JPG,AFNE01.JPG,AFNE01.JPG,,,,,,,,,,,,,2,8,28,6,,,,,,,,,,,AMSA14.jpg,AMNE14.jpg,AMSA18.jpg,AMNE11.jpg,AMSA14.jpg,MS,2,num_8,16,num_8,0.800210597692,,,2017_Apr_03_1834,59.9987491667,FEMA4ImagesEEG,001,100118,
AFNE01.JPG,AFNE01.JPG,AFNE01.JPG,AFNE01.JPG,AFNE01.JPG,AFNE01.JPG,,,,,,,,,,,,,2,9,29,2,,,,,,,,,,,AMNE17.jpg,AMSA12.jpg,AMNE03.jpg,AMSA09.jpg,AMNE17.jpg,MN,1,num_8,16,num_8,0.900106581859,,,2017_Apr_03_1834,59.9987491667,FEMA4ImagesEEG,001,100118,
AFNE01.JPG,AFNE01.JPG,AFNE01.JPG,AFNE01.JPG,AFNE01.JPG,AFNE01.JPG,,,,,,,,,,,,,3,0,30,0,,,,,,,,,,,AMSA20.jpg,AMNE15.jpg,AMSA01.jpg,AMNE12.jpg,AMNE15.jpg,MN,1,num_6,16,num_6,0.866597942775,,,2017_Apr_03_1834,59.9987491667,FEMA4ImagesEEG,001,100118,
AFNE01.JPG,AFNE01.JPG,AFNE01.JPG,AFNE01.JPG,AFNE01.JPG,AFNE01.JPG,,,,,,,,,,,,,3,1,31,9,,,,,,,,,,,AMNE13.jpg,AMSA17.jpg,AMSA12.jpg,AMNE09.jpg,AMSA17.jpg,MS,2,num_6,16,num_6,0.61679110839,,,2017_Apr_03_1834,59.9987491667,FEMA4ImagesEEG,001,100118,
AFNE01.JPG,AFNE01.JPG,AFNE01.JPG,AFNE01.JPG,AFNE01.JPG,AFNE01.JPG,,,,,,,,,,,,,3,2,32,7,,,,,,,,,,,AMNE11.jpg,AMSA20.jpg,AMSA05.jpg,AMNE17.jpg,AMSA05.jpg,MS,2,num_2,16,num_2,0.750164299039,,,2017_Apr_03_1834,59.9987491667,FEMA4ImagesEEG,001,100118,
AFNE01.JPG,AFNE01.JPG,AFNE01.JPG,AFNE01.JPG,AFNE01.JPG,AFNE01.JPG,,,,,,,,,,,,,3,3,33,2,,,,,,,,,,,AMSA08.jpg,AMNE12.jpg,AMNE07.jpg,AMSA13.jpg,AMNE12.jpg,MN,1,num_6,32,num_2,0.700127622345,,,2017_Apr_03_1834,59.9987491667,FEMA4ImagesEEG,001,100118,
AFNE01.JPG,AFNE01.JPG,AFNE01.JPG,AFNE01.JPG,AFNE01.JPG,AFNE01.JPG,,,,,,,,,,,,,3,4,34,3,,,,,,,,,,,AMSA02.jpg,AMNE10.jpg,AMNE03.jpg,AMSA07.jpg,AMNE03.jpg,MN,1,num_2,16,num_2,0.750182581134,,,2017_Apr_03_1834,59.9987491667,FEMA4ImagesEEG,001,100118,
AFNE01.JPG,AFNE01.JPG,AFNE01.JPG,AFNE01.JPG,AFNE01.JPG,AFNE01.JPG,,,,,,,,,,,,,3,5,35,1,,,,,,,,,,,AMNE13.jpg,AMNE07.jpg,AMSA14.jpg,AMSA04.jpg,AMSA04.jpg,MS,2,num_4,32,num_2,0.966659428785,,,2017_Apr_03_1834,59.9987491667,FEMA4ImagesEEG,001,100118,
AFNE01.JPG,AFNE01.JPG,AFNE01.JPG,AFNE01.JPG,AFNE01.JPG,AFNE01.JPG,,,,,,,,,,,,,3,6,36,5,,,,,,,,,,,AMNE09.jpg,AMSA02.jpg,AMNE15.jpg,AMSA18.jpg,AMNE09.jpg,MN,1,num_8,16,num_8,0.816498080501,,,2017_Apr_03_1834,59.9987491667,FEMA4ImagesEEG,001,100118,
AFNE01.JPG,AFNE01.JPG,AFNE01.JPG,AFNE01.JPG,AFNE01.JPG,AFNE01.JPG,,,,,,,,,,,,,3,7,37,4,,,,,,,,,,,AMSA15.jpg,AMSA01.jpg,AMNE11.jpg,AMNE13.jpg,AMNE11.jpg,MN,1,num_2,16,num_2,0.900121656479,,,2017_Apr_03_1834,59.9987491667,FEMA4ImagesEEG,001,100118,
AFNE01.JPG,AFNE01.JPG,AFNE01.JPG,AFNE01.JPG,AFNE01.JPG,AFNE01.JPG,,,,,,,,,,,,,3,8,38,6,,,,,,,,,,,AMSA02.jpg,AMSA18.jpg,AMNE19.jpg,AMNE06.jpg,AMNE19.jpg,MN,1,num_2,16,num_2,0.650170489214,,,2017_Apr_03_1834,59.9987491667,FEMA4ImagesEEG,001,100118,
AFNE01.JPG,AFNE01.JPG,AFNE01.JPG,AFNE01.JPG,AFNE01.JPG,AFNE01.JPG,,,,,,,,,,,,,3,9,39,8,,,,,,,,,,,AMSA05.jpg,AMSA11.jpg,AMNE05.jpg,AMNE09.jpg,AMSA05.jpg,MS,2,num_8,32,num_2,0.95010669413,,,2017_Apr_03_1834,59.9987491667,FEMA4ImagesEEG,001,100118,
AFNE01.JPG,AFNE01.JPG,AFNE01.JPG,AFNE01.JPG,AFNE01.JPG,AFNE01.JPG,,,,,,,,,,,,,4,0,40,3,,,,,,,,,,,AMSA12.jpg,AMNE10.jpg,AMNE17.jpg,AMSA11.jpg,AMSA11.jpg,MS,2,num_4,16,num_4,1.00013855961,,,2017_Apr_03_1834,59.9987491667,FEMA4ImagesEEG,001,100118,
AFNE01.JPG,AFNE01.JPG,AFNE01.JPG,AFNE01.JPG,AFNE01.JPG,AFNE01.JPG,,,,,,,,,,,,,4,1,41,7,,,,,,,,,,,AMNE10.jpg,AMSA14.jpg,AMNE12.jpg,AMSA08.jpg,AMNE10.jpg,MN,1,num_8,32,num_2,0.816864365246,,,2017_Apr_03_1834,59.9987491667,FEMA4ImagesEEG,001,100118,
AFNE01.JPG,AFNE01.JPG,AFNE01.JPG,AFNE01.JPG,AFNE01.JPG,AFNE01.JPG,,,,,,,,,,,,,4,2,42,5,,,,,,,,,,,AMNE03.jpg,AMSA04.jpg,AMSA18.jpg,AMNE06.jpg,AMNE03.jpg,MN,1,num_8,32,num_4,0.700161941582,,,2017_Apr_03_1834,59.9987491667,FEMA4ImagesEEG,001,100118,
AFNE01.JPG,AFNE01.JPG,AFNE01.JPG,AFNE01.JPG,AFNE01.JPG,AFNE01.JPG,,,,,,,,,,,,,4,3,43,9,,,,,,,,,,,AMSA08.jpg,AMNE18.jpg,AMSA11.jpg,AMNE15.jpg,AMSA08.jpg,MS,2,num_8,32,num_4,1.38345938921,,,2017_Apr_03_1834,59.9987491667,FEMA4ImagesEEG,001,100118,
AFNE01.JPG,AFNE01.JPG,AFNE01.JPG,AFNE01.JPG,AFNE01.JPG,AFNE01.JPG,,,,,,,,,,,,,4,4,44,1,,,,,,,,,,,AMNE05.jpg,AMNE20.jpg,AMSA18.jpg,AMSA15.jpg,AMNE05.jpg,MN,1,num_8,16,num_8,0.950133315288,,,2017_Apr_03_1834,59.9987491667,FEMA4ImagesEEG,001,100118,
AFNE01.JPG,AFNE01.JPG,AFNE01.JPG,AFNE01.JPG,AFNE01.JPG,AFNE01.JPG,,,,,,,,,,,,,4,5,45,6,,,,,,,,,,,AMNE07.jpg,AMSA11.jpg,AMSA13.jpg,AMNE10.jpg,AMSA11.jpg,MS,2,num_6,16,num_6,1.06680687261,,,2017_Apr_03_1834,59.9987491667,FEMA4ImagesEEG,001,100118,
AFNE01.JPG,AFNE01.JPG,AFNE01.JPG,AFNE01.JPG,AFNE01.JPG,AFNE01.JPG,,,,,,,,,,,,,4,6,46,2,,,,,,,,,,,AMSA12.jpg,AMSA08.jpg,AMNE02.jpg,AMNE19.jpg,AMNE19.jpg,MN,1,num_4,16,num_4,1.05010756012,,,2017_Apr_03_1834,59.9987491667,FEMA4ImagesEEG,001,100118,
AFNE01.JPG,AFNE01.JPG,AFNE01.JPG,AFNE01.JPG,AFNE01.JPG,AFNE01.JPG,,,,,,,,,,,,,4,7,47,8,,,,,,,,,,,AMNE06.jpg,AMSA16.jpg,AMSA05.jpg,AMNE13.jpg,AMSA05.jpg,MS,2,num_2,16,num_2,0.833482530667,,,2017_Apr_03_1834,59.9987491667,FEMA4ImagesEEG,001,100118,
AFNE01.JPG,AFNE01.JPG,AFNE01.JPG,AFNE01.JPG,AFNE01.JPG,AFNE01.JPG,,,,,,,,,,,,,4,8,48,0,,,,,,,,,,,AMSA06.jpg,AMSA10.jpg,AMNE11.jpg,AMNE07.jpg,AMSA06.jpg,MS,2,num_8,16,num_8,0.833415175555,,,2017_Apr_03_1834,59.9987491667,FEMA4ImagesEEG,001,100118,
AFNE01.JPG,AFNE01.JPG,AFNE01.JPG,AFNE01.JPG,AFNE01.JPG,AFNE01.JPG,,,,,,,,,,,,,4,9,49,4,,,,,,,,,,,AMSA03.jpg,AMNE20.jpg,AMSA16.jpg,AMNE13.jpg,AMNE20.jpg,MN,1,num_6,16,num_6,0.633439423284,,,2017_Apr_03_1834,59.9987491667,FEMA4ImagesEEG,001,100118,
AFNE01.JPG,AFNE01.JPG,AFNE01.JPG,AFNE01.JPG,AFNE01.JPG,AFNE01.JPG,,,,,,,,,,,,,5,0,50,0,,,,,,,,,,,AMNE02.jpg,AMSA20.jpg,AMNE01.jpg,AMSA08.jpg,AMNE02.jpg,MN,1,num_8,16,num_8,1.3500678204,,,2017_Apr_03_1834,59.9987491667,FEMA4ImagesEEG,001,100118,
AFNE01.JPG,AFNE01.JPG,AFNE01.JPG,AFNE01.JPG,AFNE01.JPG,AFNE01.JPG,,,,,,,,,,,,,5,1,51,3,,,,,,,,,,,AMNE15.jpg,AMNE01.jpg,AMSA17.jpg,AMSA16.jpg,AMSA16.jpg,MS,2,num_4,32,num_2,1.31676220964,,,2017_Apr_03_1834,59.9987491667,FEMA4ImagesEEG,001,100118,
AFNE01.JPG,AFNE01.JPG,AFNE01.JPG,AFNE01.JPG,AFNE01.JPG,AFNE01.JPG,,,,,,,,,,,,,5,2,52,7,,,,,,,,,,,AMNE05.jpg,AMSA16.jpg,AMNE12.jpg,AMSA04.jpg,AMSA04.jpg,MS,2,num_4,32,num_6,0.600218808511,,,2017_Apr_03_1834,59.9987491667,FEMA4ImagesEEG,001,100118,
AFNE01.JPG,AFNE01.JPG,AFNE01.JPG,AFNE01.JPG,AFNE01.JPG,AFNE01.JPG,,,,,,,,,,,,,5,3,53,9,,,,,,,,,,,AMNE03.jpg,AMNE12.jpg,AMSA17.jpg,AMSA07.jpg,AMNE12.jpg,MN,1,num_6,16,num_6,0.800096734893,,,2017_Apr_03_1834,59.9987491667,FEMA4ImagesEEG,001,100118,
AFNE01.JPG,AFNE01.JPG,AFNE01.JPG,AFNE01.JPG,AFNE01.JPG,AFNE01.JPG,,,,,,,,,,,,,5,4,54,6,,,,,,,,,,,AMSA14.jpg,AMNE20.jpg,AMNE05.jpg,AMSA04.jpg,AMNE20.jpg,MN,1,num_6,16,num_6,0.666796352249,,,2017_Apr_03_1834,59.9987491667,FEMA4ImagesEEG,001,100118,
AFNE01.JPG,AFNE01.JPG,AFNE01.JPG,AFNE01.JPG,AFNE01.JPG,AFNE01.JPG,,,,,,,,,,,,,5,5,55,8,,,,,,,,,,,AMSA14.jpg,AMNE07.jpg,AMNE19.jpg,AMSA15.jpg,AMSA14.jpg,MS,2,num_8,16,num_8,0.733502512798,,,2017_Apr_03_1834,59.9987491667,FEMA4ImagesEEG,001,100118,
AFNE01.JPG,AFNE01.JPG,AFNE01.JPG,AFNE01.JPG,AFNE01.JPG,AFNE01.JPG,,,,,,,,,,,,,5,6,56,1,,,,,,,,,,,AMNE04.jpg,AMSA03.jpg,AMNE16.jpg,AMSA08.jpg,AMNE16.jpg,MN,1,num_2,16,num_2,1.05010948447,,,2017_Apr_03_1834,59.9987491667,FEMA4ImagesEEG,001,100118,
AFNE01.JPG,AFNE01.JPG,AFNE01.JPG,AFNE01.JPG,AFNE01.JPG,AFNE01.JPG,,,,,,,,,,,,,5,7,57,4,,,,,,,,,,,AMSA10.jpg,AMSA04.jpg,AMNE19.jpg,AMNE15.jpg,AMNE19.jpg,MN,1,num_2,16,num_2,0.833452060353,,,2017_Apr_03_1834,59.9987491667,FEMA4ImagesEEG,001,100118,
AFNE01.JPG,AFNE01.JPG,AFNE01.JPG,AFNE01.JPG,AFNE01.JPG,AFNE01.JPG,,,,,,,,,,,,,5,8,58,2,,,,,,,,,,,AMNE07.jpg,AMSA19.jpg,AMNE02.jpg,AMSA14.jpg,AMNE02.jpg,MN,1,num_2,16,num_2,0.850151373306,,,2017_Apr_03_1834,59.9987491667,FEMA4ImagesEEG,001,100118,
AFNE01.JPG,AFNE01.JPG,AFNE01.JPG,AFNE01.JPG,AFNE01.JPG,AFNE01.JPG,,,,,,,,,,,,,5,9,59,5,,,,,,,,,,,AMNE10.jpg,AMSA10.jpg,AMSA06.jpg,AMNE13.jpg,AMNE10.jpg,MN,1,num_8,16,num_8,1.01676281914,,,2017_Apr_03_1834,59.9987491667,FEMA4ImagesEEG,001,100118,
,,,,,,,,,,,,,,,,,,,,,,,,,,,,,,,,,,,,,,,,,,,space,10.4663038887,2017_Apr_03_1834,59.9987491667,FEMA4ImagesEEG,001,100118,
AFNE01.JPG,AFNE01.JPG,AFNE01.JPG,AFNE01.JPG,AFNE01.JPG,AFNE01.JPG,,,,,,,,,,,,,,,,,0,0,0,5,,,,,,,AFSA13.jpg,AFSA20.jpg,AFNE18.jpg,AFNE12.jpg,AFNE18.jpg,FN,3,num_2,16,num_2,0.800197126577,,,2017_Apr_03_1834,59.9987491667,FEMA4ImagesEEG,001,100118,
AFNE01.JPG,AFNE01.JPG,AFNE01.JPG,AFNE01.JPG,AFNE01.JPG,AFNE01.JPG,,,,,,,,,,,,,,,,,0,1,1,8,,,,,,,AFNE04.jpg,AFNE06.jpg,AFSA19.jpg,AFSA04.jpg,AFSA04.jpg,FS,4,num_4,32,num_2,0.70017990307,,,2017_Apr_03_1834,59.9987491667,FEMA4ImagesEEG,001,100118,
AFNE01.JPG,AFNE01.JPG,AFNE01.JPG,AFNE01.JPG,AFNE01.JPG,AFNE01.JPG,,,,,,,,,,,,,,,,,0,2,2,4,,,,,,,AFNE20.jpg,AFNE07.jpg,AFSA13.jpg,AFSA04.jpg,AFSA13.jpg,FS,4,num_2,32,num_4,0.816785784205,,,2017_Apr_03_1834,59.9987491667,FEMA4ImagesEEG,001,100118,
AFNE01.JPG,AFNE01.JPG,AFNE01.JPG,AFNE01.JPG,AFNE01.JPG,AFNE01.JPG,,,,,,,,,,,,,,,,,0,3,3,0,,,,,,,AFNE12.jpg,AFSA20.jpg,AFNE10.jpg,AFSA06.jpg,AFNE10.jpg,FN,3,num_2,32,num_8,0.866818932584,,,2017_Apr_03_1834,59.9987491667,FEMA4ImagesEEG,001,100118,
AFNE01.JPG,AFNE01.JPG,AFNE01.JPG,AFNE01.JPG,AFNE01.JPG,AFNE01.JPG,,,,,,,,,,,,,,,,,0,4,4,1,,,,,,,AFNE07.jpg,AFNE05.jpg,AFSA08.jpg,AFSA06.jpg,AFSA08.jpg,FS,4,num_2,32,num_4,1.11667067045,,,2017_Apr_03_1834,59.9987491667,FEMA4ImagesEEG,001,100118,
AFNE01.JPG,AFNE01.JPG,AFNE01.JPG,AFNE01.JPG,AFNE01.JPG,AFNE01.JPG,,,,,,,,,,,,,,,,,0,5,5,3,,,,,,,AFSA10.jpg,AFNE08.jpg,AFSA17.jpg,AFNE02.jpg,AFSA10.jpg,FS,4,num_8,32,num_6,0.650170809822,,,2017_Apr_03_1834,59.9987491667,FEMA4ImagesEEG,001,100118,
AFNE01.JPG,AFNE01.JPG,AFNE01.JPG,AFNE01.JPG,AFNE01.JPG,AFNE01.JPG,,,,,,,,,,,,,,,,,0,6,6,6,,,,,,,AFSA12.jpg,AFNE06.jpg,AFNE07.jpg,AFSA01.jpg,AFNE06.jpg,FN,3,num_6,16,num_6,0.783460928826,,,2017_Apr_03_1834,59.9987491667,FEMA4ImagesEEG,001,100118,
AFNE01.JPG,AFNE01.JPG,AFNE01.JPG,AFNE01.JPG,AFNE01.JPG,AFNE01.JPG,,,,,,,,,,,,,,,,,0,7,7,7,,,,,,,AFNE02.jpg,AFNE19.jpg,AFSA11.jpg,AFSA01.jpg,AFNE19.jpg,FN,3,num_6,32,num_2,1.13342867862,,,2017_Apr_03_1834,59.9987491667,FEMA4ImagesEEG,001,100118,
AFNE01.JPG,AFNE01.JPG,AFNE01.JPG,AFNE01.JPG,AFNE01.JPG,AFNE01.JPG,,,,,,,,,,,,,,,,,0,8,8,2,,,,,,,AFSA10.jpg,AFNE01.jpg,AFSA08.jpg,AFNE18.jpg,AFNE18.jpg,FN,3,num_4,32,num_8,0.800165373366,,,2017_Apr_03_1834,59.9987491667,FEMA4ImagesEEG,001,100118,
AFNE01.JPG,AFNE01.JPG,AFNE01.JPG,AFNE01.JPG,AFNE01.JPG,AFNE01.JPG,,,,,,,,,,,,,,,,,0,9,9,9,,,,,,,AFSA07.jpg,AFSA17.jpg,AFNE03.jpg,AFNE01.jpg,AFSA17.jpg,FS,4,num_6,16,num_6,0.933444587281,,,2017_Apr_03_1834,59.9987491667,FEMA4ImagesEEG,001,100118,
AFNE01.JPG,AFNE01.JPG,AFNE01.JPG,AFNE01.JPG,AFNE01.JPG,AFNE01.JPG,,,,,,,,,,,,,,,,,1,0,10,4,,,,,,,AFSA10.jpg,AFNE15.jpg,AFSA16.jpg,AFNE07.jpg,AFNE07.jpg,FN,3,num_4,32,num_6,0.716793257277,,,2017_Apr_03_1834,59.9987491667,FEMA4ImagesEEG,001,100118,
AFNE01.JPG,AFNE01.JPG,AFNE01.JPG,AFNE01.JPG,AFNE01.JPG,AFNE01.JPG,,,,,,,,,,,,,,,,,1,1,11,9,,,,,,,AFSA08.jpg,AFNE15.jpg,AFNE03.jpg,AFSA05.jpg,AFNE15.jpg,FN,3,num_6,16,num_6,0.650208015693,,,2017_Apr_03_1834,59.9987491667,FEMA4ImagesEEG,001,100118,
AFNE01.JPG,AFNE01.JPG,AFNE01.JPG,AFNE01.JPG,AFNE01.JPG,AFNE01.JPG,,,,,,,,,,,,,,,,,1,2,12,6,,,,,,,AFSA02.jpg,AFNE04.jpg,AFNE12.jpg,AFSA16.jpg,AFNE04.jpg,FN,3,num_6,32,num_2,0.766786954831,,,2017_Apr_03_1834,59.9987491667,FEMA4ImagesEEG,001,100118,
AFNE01.JPG,AFNE01.JPG,AFNE01.JPG,AFNE01.JPG,AFNE01.JPG,AFNE01.JPG,,,,,,,,,,,,,,,,,1,3,13,2,,,,,,,AFSA02.jpg,AFNE02.jpg,AFNE10.jpg,AFSA19.jpg,AFSA19.jpg,FS,4,num_4,32,num_6,0.783475041389,,,2017_Apr_03_1834,59.9987491667,FEMA4ImagesEEG,001,100118,
AFNE01.JPG,AFNE01.JPG,AFNE01.JPG,AFNE01.JPG,AFNE01.JPG,AFNE01.JPG,,,,,,,,,,,,,,,,,1,4,14,0,,,,,,,AFSA04.jpg,AFSA13.jpg,AFNE16.jpg,AFNE15.jpg,AFSA13.jpg,FS,4,num_6,16,num_6,0.766760974657,,,2017_Apr_03_1834,59.9987491667,FEMA4ImagesEEG,001,100118,
AFNE01.JPG,AFNE01.JPG,AFNE01.JPG,AFNE01.JPG,AFNE01.JPG,AFNE01.JPG,,,,,,,,,,,,,,,,,1,5,15,7,,,,,,,AFNE01.jpg,AFSA10.jpg,AFSA14.jpg,AFNE04.jpg,AFSA14.jpg,FS,4,num_2,16,num_2,0.833381818375,,,2017_Apr_03_1834,59.9987491667,FEMA4ImagesEEG,001,100118,
AFNE01.JPG,AFNE01.JPG,AFNE01.JPG,AFNE01.JPG,AFNE01.JPG,AFNE01.JPG,,,,,,,,,,,,,,,,,1,6,16,8,,,,,,,AFNE13.jpg,AFSA11.jpg,AFNE04.jpg,AFSA18.jpg,AFSA18.jpg,FS,4,num_4,16,num_4,1.10016444325,,,2017_Apr_03_1834,59.9987491667,FEMA4ImagesEEG,001,100118,
AFNE01.JPG,AFNE01.JPG,AFNE01.JPG,AFNE01.JPG,AFNE01.JPG,AFNE01.JPG,,,,,,,,,,,,,,,,,1,7,17,1,,,,,,,AFSA16.jpg,AFSA06.jpg,AFNE05.jpg,AFNE19.jpg,AFNE19.jpg,FN,3,num_4,32,num_8,0.900161748985,,,2017_Apr_03_1834,59.9987491667,FEMA4ImagesEEG,001,100118,
AFNE01.JPG,AFNE01.JPG,AFNE01.JPG,AFNE01.JPG,AFNE01.JPG,AFNE01.JPG,,,,,,,,,,,,,,,,,1,8,18,5,,,,,,,AFNE09.jpg,AFSA16.jpg,AFNE05.jpg,AFSA01.jpg,AFSA16.jpg,FS,4,num_6,16,num_6,0.683540889295,,,2017_Apr_03_1834,59.9987491667,FEMA4ImagesEEG,001,100118,
AFNE01.JPG,AFNE01.JPG,AFNE01.JPG,AFNE01.JPG,AFNE01.JPG,AFNE01.JPG,,,,,,,,,,,,,,,,,1,9,19,3,,,,,,,AFSA04.jpg,AFNE09.jpg,AFSA08.jpg,AFNE18.jpg,AFSA04.jpg,FS,4,num_8,16,num_8,0.649869956076,,,2017_Apr_03_1834,59.9987491667,FEMA4ImagesEEG,001,100118,
AFNE01.JPG,AFNE01.JPG,AFNE01.JPG,AFNE01.JPG,AFNE01.JPG,AFNE01.JPG,,,,,,,,,,,,,,,,,2,0,20,5,,,,,,,AFSA12.jpg,AFNE08.jpg,AFNE09.jpg,AFSA14.jpg,AFSA12.jpg,FS,4,num_8,16,num_8,0.616821899312,,,2017_Apr_03_1834,59.9987491667,FEMA4ImagesEEG,001,100118,
AFNE01.JPG,AFNE01.JPG,AFNE01.JPG,AFNE01.JPG,AFNE01.JPG,AFNE01.JPG,,,,,,,,,,,,,,,,,2,1,21,0,,,,,,,AFNE17.jpg,AFSA08.jpg,AFSA02.jpg,AFNE01.jpg,AFNE17.jpg,FN,3,num_8,32,num_4,1.0167782146,,,2017_Apr_03_1834,59.9987491667,FEMA4ImagesEEG,001,100118,
AFNE01.JPG,AFNE01.JPG,AFNE01.JPG,AFNE01.JPG,AFNE01.JPG,AFNE01.JPG,,,,,,,,,,,,,,,,,2,2,22,7,,,,,,,AFSA20.jpg,AFNE12.jpg,AFSA13.jpg,AFNE01.jpg,AFNE01.jpg,FN,3,num_4,32,num_6,0.70016354532,,,2017_Apr_03_1834,59.9987491667,FEMA4ImagesEEG,001,100118,
AFNE01.JPG,AFNE01.JPG,AFNE01.JPG,AFNE01.JPG,AFNE01.JPG,AFNE01.JPG,,,,,,,,,,,,,,,,,2,3,23,1,,,,,,,AFNE11.jpg,AFSA04.jpg,AFSA03.jpg,AFNE14.jpg,AFNE14.jpg,FN,3,num_4,32,num_8,0.850107752485,,,2017_Apr_03_1834,59.9987491667,FEMA4ImagesEEG,001,100118,
AFNE01.JPG,AFNE01.JPG,AFNE01.JPG,AFNE01.JPG,AFNE01.JPG,AFNE01.JPG,,,,,,,,,,,,,,,,,2,4,24,8,,,,,,,AFNE05.jpg,AFNE20.jpg,AFSA16.jpg,AFSA02.jpg,AFNE05.jpg,FN,3,num_8,32,num_6,0.766844367143,,,2017_Apr_03_1834,59.9987491667,FEMA4ImagesEEG,001,100118,
AFNE01.JPG,AFNE01.JPG,AFNE01.JPG,AFNE01.JPG,AFNE01.JPG,AFNE01.JPG,,,,,,,,,,,,,,,,,2,5,25,4,,,,,,,AFNE09.jpg,AFNE11.jpg,AFSA16.jpg,AFSA02.jpg,AFNE11.jpg,FN,3,num_6,16,num_6,0.816772954538,,,2017_Apr_03_1834,59.9987491667,FEMA4ImagesEEG,001,100118,
AFNE01.JPG,AFNE01.JPG,AFNE01.JPG,AFNE01.JPG,AFNE01.JPG,AFNE01.JPG,,,,,,,,,,,,,,,,,2,6,26,2,,,,,,,AFNE15.jpg,AFSA20.jpg,AFSA17.jpg,AFNE03.jpg,AFNE15.jpg,FN,3,num_8,16,num_8,0.8335181328,,,2017_Apr_03_1834,59.9987491667,FEMA4ImagesEEG,001,100118,
AFNE01.JPG,AFNE01.JPG,AFNE01.JPG,AFNE01.JPG,AFNE01.JPG,AFNE01.JPG,,,,,,,,,,,,,,,,,2,7,27,9,,,,,,,AFSA05.jpg,AFNE05.jpg,AFNE13.jpg,AFSA08.jpg,AFNE05.jpg,FN,3,num_6,16,num_6,1.66672450677,,,2017_Apr_03_1834,59.9987491667,FEMA4ImagesEEG,001,100118,
AFNE01.JPG,AFNE01.JPG,AFNE01.JPG,AFNE01.JPG,AFNE01.JPG,AFNE01.JPG,,,,,,,,,,,,,,,,,2,8,28,6,,,,,,,AFNE03.jpg,AFSA15.jpg,AFNE18.jpg,AFSA19.jpg,AFNE03.jpg,FN,3,num_8,32,num_4,0.966737689218,,,2017_Apr_03_1834,59.9987491667,FEMA4ImagesEEG,001,100118,
AFNE01.JPG,AFNE01.JPG,AFNE01.JPG,AFNE01.JPG,AFNE01.JPG,AFNE01.JPG,,,,,,,,,,,,,,,,,2,9,29,3,,,,,,,AFSA06.jpg,AFNE02.jpg,AFSA12.jpg,AFNE11.jpg,AFSA12.jpg,FS,4,num_2,32,num_8,0.850145599805,,,2017_Apr_03_1834,59.9987491667,FEMA4ImagesEEG,001,100118,
AFNE01.JPG,AFNE01.JPG,AFNE01.JPG,AFNE01.JPG,AFNE01.JPG,AFNE01.JPG,,,,,,,,,,,,,,,,,3,0,30,8,,,,,,,AFSA10.jpg,AFSA01.jpg,AFNE02.jpg,AFNE16.jpg,AFNE02.jpg,FN,3,num_2,32,num_6,0.833474512212,,,2017_Apr_03_1834,59.9987491667,FEMA4ImagesEEG,001,100118,
AFNE01.JPG,AFNE01.JPG,AFNE01.JPG,AFNE01.JPG,AFNE01.JPG,AFNE01.JPG,,,,,,,,,,,,,,,,,3,1,31,7,,,,,,,AFSA08.jpg,AFNE12.jpg,AFNE14.jpg,AFSA02.jpg,AFSA02.jpg,FS,4,num_4,32,num_8,1.3500835367,,,2017_Apr_03_1834,59.9987491667,FEMA4ImagesEEG,001,100118,
AFNE01.JPG,AFNE01.JPG,AFNE01.JPG,AFNE01.JPG,AFNE01.JPG,AFNE01.JPG,,,,,,,,,,,,,,,,,3,2,32,5,,,,,,,AFNE07.jpg,AFNE09.jpg,AFSA17.jpg,AFSA09.jpg,AFSA09.jpg,FS,4,num_4,32,num_2,0.850346382707,,,2017_Apr_03_1834,59.9987491667,FEMA4ImagesEEG,001,100118,
AFNE01.JPG,AFNE01.JPG,AFNE01.JPG,AFNE01.JPG,AFNE01.JPG,AFNE01.JPG,,,,,,,,,,,,,,,,,3,3,33,2,,,,,,,AFSA14.jpg,AFSA19.jpg,AFNE08.jpg,AFNE02.jpg,AFNE08.jpg,FN,3,num_2,32,num_8,1.11678902362,,,2017_Apr_03_1834,59.9987491667,FEMA4ImagesEEG,001,100118,
AFNE01.JPG,AFNE01.JPG,AFNE01.JPG,AFNE01.JPG,AFNE01.JPG,AFNE01.JPG,,,,,,,,,,,,,,,,,3,4,34,9,,,,,,,AFSA09.jpg,AFNE14.jpg,AFSA03.jpg,AFNE18.jpg,AFSA03.jpg,FS,4,num_2,16,num_2,0.700185996946,,,2017_Apr_03_1834,59.9987491667,FEMA4ImagesEEG,001,100118,
AFNE01.JPG,AFNE01.JPG,AFNE01.JPG,AFNE01.JPG,AFNE01.JPG,AFNE01.JPG,,,,,,,,,,,,,,,,,3,5,35,0,,,,,,,AFNE04.jpg,AFNE01.jpg,AFSA15.jpg,AFSA16.jpg,AFSA16.jpg,FS,4,num_4,16,num_4,0.633468931308,,,2017_Apr_03_1834,59.9987491667,FEMA4ImagesEEG,001,100118,
AFNE01.JPG,AFNE01.JPG,AFNE01.JPG,AFNE01.JPG,AFNE01.JPG,AFNE01.JPG,,,,,,,,,,,,,,,,,3,6,36,3,,,,,,,AFSA20.jpg,AFNE01.jpg,AFNE19.jpg,AFSA01.jpg,AFNE01.jpg,FN,3,num_6,16,num_6,0.683486042777,,,2017_Apr_03_1834,59.9987491667,FEMA4ImagesEEG,001,100118,
AFNE01.JPG,AFNE01.JPG,AFNE01.JPG,AFNE01.JPG,AFNE01.JPG,AFNE01.JPG,,,,,,,,,,,,,,,,,3,7,37,1,,,,,,,AFSA19.jpg,AFSA06.jpg,AFNE11.jpg,AFNE03.jpg,AFSA06.jpg,FS,4,num_6,16,num_6,0.683346841717,,,2017_Apr_03_1834,59.9987491667,FEMA4ImagesEEG,001,100118,
AFNE01.JPG,AFNE01.JPG,AFNE01.JPG,AFNE01.JPG,AFNE01.JPG,AFNE01.JPG,,,,,,,,,,,,,,,,,3,8,38,4,,,,,,,AFSA05.jpg,AFSA18.jpg,AFNE13.jpg,AFNE15.jpg,AFSA05.jpg,FS,4,num_8,32,num_6,0.933511621784,,,2017_Apr_03_1834,59.9987491667,FEMA4ImagesEEG,001,100118,
AFNE01.JPG,AFNE01.JPG,AFNE01.JPG,AFNE01.JPG,AFNE01.JPG,AFNE01.JPG,,,,,,,,,,,,,,,,,3,9,39,6,,,,,,,AFSA11.jpg,AFNE15.jpg,AFNE10.jpg,AFSA13.jpg,AFSA13.jpg,FS,4,num_4,32,num_8,0.950089374324,,,2017_Apr_03_1834,59.9987491667,FEMA4ImagesEEG,001,100118,
AFNE01.JPG,AFNE01.JPG,AFNE01.JPG,AFNE01.JPG,AFNE01.JPG,AFNE01.JPG,,,,,,,,,,,,,,,,,4,0,40,8,,,,,,,AFNE03.jpg,AFSA11.jpg,AFNE09.jpg,AFSA20.jpg,AFNE03.jpg,FN,3,num_8,32,num_2,0.716773371445,,,2017_Apr_03_1834,59.9987491667,FEMA4ImagesEEG,001,100118,
AFNE01.JPG,AFNE01.JPG,AFNE01.JPG,AFNE01.JPG,AFNE01.JPG,AFNE01.JPG,,,,,,,,,,,,,,,,,4,1,41,7,,,,,,,AFSA03.jpg,AFNE19.jpg,AFNE11.jpg,AFSA10.jpg,AFNE11.jpg,FN,3,num_2,16,num_2,0.750148261897,,,2017_Apr_03_1834,59.9987491667,FEMA4ImagesEEG,001,100118,
AFNE01.JPG,AFNE01.JPG,AFNE01.JPG,AFNE01.JPG,AFNE01.JPG,AFNE01.JPG,,,,,,,,,,,,,,,,,4,2,42,6,,,,,,,AFNE14.jpg,AFSA12.jpg,AFSA15.jpg,AFNE10.jpg,AFSA12.jpg,FS,4,num_6,16,num_6,0.933442983544,,,2017_Apr_03_1834,59.9987491667,FEMA4ImagesEEG,001,100118,
AFNE01.JPG,AFNE01.JPG,AFNE01.JPG,AFNE01.JPG,AFNE01.JPG,AFNE01.JPG,,,,,,,,,,,,,,,,,4,3,43,9,,,,,,,AFSA18.jpg,AFNE07.jpg,AFNE20.jpg,AFSA04.jpg,AFSA18.jpg,FS,4,num_8,32,num_4,1.26676273881,,,2017_Apr_03_1834,59.9987491667,FEMA4ImagesEEG,001,100118,
AFNE01.JPG,AFNE01.JPG,AFNE01.JPG,AFNE01.JPG,AFNE01.JPG,AFNE01.JPG,,,,,,,,,,,,,,,,,4,4,44,1,,,,,,,AFNE09.jpg,AFSA20.jpg,AFNE20.jpg,AFSA02.jpg,AFNE09.jpg,FN,3,num_8,16,num_8,0.750109773129,,,2017_Apr_03_1834,59.9987491667,FEMA4ImagesEEG,001,100118,
AFNE01.JPG,AFNE01.JPG,AFNE01.JPG,AFNE01.JPG,AFNE01.JPG,AFNE01.JPG,,,,,,,,,,,,,,,,,4,5,45,3,,,,,,,AFNE17.jpg,AFNE05.jpg,AFSA19.jpg,AFSA02.jpg,AFNE17.jpg,FN,3,num_8,32,num_6,0.96674602828,,,2017_Apr_03_1834,59.9987491667,FEMA4ImagesEEG,001,100118,
AFNE01.JPG,AFNE01.JPG,AFNE01.JPG,AFNE01.JPG,AFNE01.JPG,AFNE01.JPG,,,,,,,,,,,,,,,,,4,6,46,0,,,,,,,AFNE03.jpg,AFSA11.jpg,AFNE18.jpg,AFSA08.jpg,AFNE18.jpg,FN,3,num_2,32,num_8,1.01673908439,,,2017_Apr_03_1834,59.9987491667,FEMA4ImagesEEG,001,100118,
AFNE01.JPG,AFNE01.JPG,AFNE01.JPG,AFNE01.JPG,AFNE01.JPG,AFNE01.JPG,,,,,,,,,,,,,,,,,4,7,47,2,,,,,,,AFNE01.jpg,AFSA14.jpg,AFSA18.jpg,AFNE14.jpg,AFNE14.jpg,FN,3,num_4,32,num_8,0.833502095891,,,2017_Apr_03_1834,59.9987491667,FEMA4ImagesEEG,001,100118,
AFNE01.JPG,AFNE01.JPG,AFNE01.JPG,AFNE01.JPG,AFNE01.JPG,AFNE01.JPG,,,,,,,,,,,,,,,,,4,8,48,5,,,,,,,AFSA09.jpg,AFSA13.jpg,AFNE20.jpg,AFNE15.jpg,AFSA09.jpg,FS,4,num_8,16,num_8,0.700175091624,,,2017_Apr_03_1834,59.9987491667,FEMA4ImagesEEG,001,100118,
AFNE01.JPG,AFNE01.JPG,AFNE01.JPG,AFNE01.JPG,AFNE01.JPG,AFNE01.JPG,,,,,,,,,,,,,,,,,4,9,49,4,,,,,,,AFNE19.jpg,AFSA02.jpg,AFSA12.jpg,AFNE13.jpg,AFNE19.jpg,FN,3,num_8,32,num_6,0.883462436497,,,2017_Apr_03_1834,59.9987491667,FEMA4ImagesEEG,001,100118,
AFNE01.JPG,AFNE01.JPG,AFNE01.JPG,AFNE01.JPG,AFNE01.JPG,AFNE01.JPG,,,,,,,,,,,,,,,,,5,0,50,9,,,,,,,AFNE10.jpg,AFSA09.jpg,AFNE11.jpg,AFSA15.jpg,AFNE10.jpg,FN,3,num_8,16,num_8,0.816822989844,,,2017_Apr_03_1834,59.9987491667,FEMA4ImagesEEG,001,100118,
AFNE01.JPG,AFNE01.JPG,AFNE01.JPG,AFNE01.JPG,AFNE01.JPG,AFNE01.JPG,,,,,,,,,,,,,,,,,5,1,51,4,,,,,,,AFSA20.jpg,AFNE16.jpg,AFNE09.jpg,AFSA16.jpg,AFSA20.jpg,FS,4,num_8,32,num_6,0.866790066008,,,2017_Apr_03_1834,59.9987491667,FEMA4ImagesEEG,001,100118,
AFNE01.JPG,AFNE01.JPG,AFNE01.JPG,AFNE01.JPG,AFNE01.JPG,AFNE01.JPG,,,,,,,,,,,,,,,,,5,2,52,6,,,,,,,AFSA12.jpg,AFNE11.jpg,AFSA15.jpg,AFNE18.jpg,AFSA12.jpg,FS,4,num_8,16,num_8,0.883457945893,,,2017_Apr_03_1834,59.9987491667,FEMA4ImagesEEG,001,100118,
AFNE01.JPG,AFNE01.JPG,AFNE01.JPG,AFNE01.JPG,AFNE01.JPG,AFNE01.JPG,,,,,,,,,,,,,,,,,5,3,53,2,,,,,,,AFNE09.jpg,AFNE10.jpg,AFSA04.jpg,AFSA02.jpg,AFSA02.jpg,FS,4,num_4,32,num_2,0.716503629228,,,2017_Apr_03_1834,59.9987491667,FEMA4ImagesEEG,001,100118,
AFNE01.JPG,AFNE01.JPG,AFNE01.JPG,AFNE01.JPG,AFNE01.JPG,AFNE01.JPG,,,,,,,,,,,,,,,,,5,4,54,5,,,,,,,AFSA11.jpg,AFNE04.jpg,AFNE16.jpg,AFSA08.jpg,AFSA11.jpg,FS,4,num_8,16,num_8,0.68337827432,,,2017_Apr_03_1834,59.9987491667,FEMA4ImagesEEG,001,100118,
AFNE01.JPG,AFNE01.JPG,AFNE01.JPG,AFNE01.JPG,AFNE01.JPG,AFNE01.JPG,,,,,,,,,,,,,,,,,5,5,55,8,,,,,,,AFSA07.jpg,AFNE11.jpg,AFSA15.jpg,AFNE02.jpg,AFNE11.jpg,FN,3,num_6,16,num_6,0.583488384262,,,2017_Apr_03_1834,59.9987491667,FEMA4ImagesEEG,001,100118,
AFNE01.JPG,AFNE01.JPG,AFNE01.JPG,AFNE01.JPG,AFNE01.JPG,AFNE01.JPG,,,,,,,,,,,,,,,,,5,6,56,3,,,,,,,AFSA14.jpg,AFSA02.jpg,AFNE14.jpg,AFNE19.jpg,AFSA02.jpg,FS,4,num_6,32,num_8,0.91675136867,,,2017_Apr_03_1834,59.9987491667,FEMA4ImagesEEG,001,100118,
AFNE01.JPG,AFNE01.JPG,AFNE01.JPG,AFNE01.JPG,AFNE01.JPG,AFNE01.JPG,,,,,,,,,,,,,,,,,5,7,57,1,,,,,,,AFNE14.jpg,AFSA16.jpg,AFSA11.jpg,AFNE17.jpg,AFNE17.jpg,FN,3,num_4,16,num_4,0.833467135206,,,2017_Apr_03_1834,59.9987491667,FEMA4ImagesEEG,001,100118,
AFNE01.JPG,AFNE01.JPG,AFNE01.JPG,AFNE01.JPG,AFNE01.JPG,AFNE01.JPG,,,,,,,,,,,,,,,,,5,8,58,0,,,,,,,AFNE11.jpg,AFNE04.jpg,AFSA13.jpg,AFSA09.jpg,AFSA09.jpg,FS,4,num_4,16,num_4,1.00010007084,,,2017_Apr_03_1834,59.9987491667,FEMA4ImagesEEG,001,100118,
AFNE01.JPG,AFNE01.JPG,AFNE01.JPG,AFNE01.JPG,AFNE01.JPG,AFNE01.JPG,,,,,,,,,,,,,,,,,5,9,59,7,,,,,,,AFSA19.jpg,AFSA06.jpg,AFNE13.jpg,AFNE05.jpg,AFSA19.jpg,FS,4,num_8,32,num_6,1.03348939447,,,2017_Apr_03_1834,59.9987491667,FEMA4ImagesEEG,001,100118,
,,,,,,,,,,,,,,,,,,,,,,,,,,,,,,,,,,,,,,,,,,,space,6.29971200787,2017_Apr_03_1834,59.9987491667,FEMA4ImagesEEG,001,100118,
AFNE01.JPG,AFNE01.JPG,AFNE01.JPG,AFNE01.JPG,AFNE01.JPG,AFNE01.JPG,,,,,,,,,,,,,,,,,,,,,0,0,0,7,,,AMNE10.jpg,AMSA10.jpg,AMSA06.jpg,AMNE03.jpg,AMNE03.jpg,MN,1,num_4,32,num_6,0.883462115657,,,2017_Apr_03_1834,59.9987491667,FEMA4ImagesEEG,001,100118,
AFNE01.JPG,AFNE01.JPG,AFNE01.JPG,AFNE01.JPG,AFNE01.JPG,AFNE01.JPG,,,,,,,,,,,,,,,,,,,,,0,1,1,9,,,AMNE07.jpg,AMSA16.jpg,AMSA14.jpg,AMNE12.jpg,AMNE07.jpg,MN,1,num_8,16,num_8,1.00014272914,,,2017_Apr_03_1834,59.9987491667,FEMA4ImagesEEG,001,100118,
AFNE01.JPG,AFNE01.JPG,AFNE01.JPG,AFNE01.JPG,AFNE01.JPG,AFNE01.JPG,,,,,,,,,,,,,,,,,,,,,0,2,2,0,,,AMNE18.jpg,AMSA01.jpg,AMNE16.jpg,AMSA14.jpg,AMNE18.jpg,MN,1,num_8,16,num_8,0.750154997455,,,2017_Apr_03_1834,59.9987491667,FEMA4ImagesEEG,001,100118,
AFNE01.JPG,AFNE01.JPG,AFNE01.JPG,AFNE01.JPG,AFNE01.JPG,AFNE01.JPG,,,,,,,,,,,,,,,,,,,,,0,3,3,3,,,AMSA19.jpg,AMSA13.jpg,AMNE07.jpg,AMNE08.jpg,AMSA19.jpg,MS,2,num_8,32,num_6,0.633186039049,,,2017_Apr_03_1834,59.9987491667,FEMA4ImagesEEG,001,100118,
AFNE01.JPG,AFNE01.JPG,AFNE01.JPG,AFNE01.JPG,AFNE01.JPG,AFNE01.JPG,,,,,,,,,,,,,,,,,,,,,0,4,4,4,,,AMNE14.jpg,AMSA05.jpg,AMSA17.jpg,AMNE08.jpg,AMNE14.jpg,MN,1,num_8,16,num_8,0.683505287394,,,2017_Apr_03_1834,59.9987491667,FEMA4ImagesEEG,001,100118,
AFNE01.JPG,AFNE01.JPG,AFNE01.JPG,AFNE01.JPG,AFNE01.JPG,AFNE01.JPG,,,,,,,,,,,,,,,,,,,,,0,5,5,1,,,AMSA01.jpg,AMNE18.jpg,AMNE10.jpg,AMSA14.jpg,AMSA14.jpg,MS,2,num_4,32,num_8,0.850103903562,,,2017_Apr_03_1834,59.9987491667,FEMA4ImagesEEG,001,100118,
AFNE01.JPG,AFNE01.JPG,AFNE01.JPG,AFNE01.JPG,AFNE01.JPG,AFNE01.JPG,,,,,,,,,,,,,,,,,,,,,0,6,6,5,,,AMNE03.jpg,AMSA18.jpg,AMNE20.jpg,AMSA13.jpg,AMSA18.jpg,MS,2,num_6,32,num_2,0.816827159375,,,2017_Apr_03_1834,59.9987491667,FEMA4ImagesEEG,001,100118,
AFNE01.JPG,AFNE01.JPG,AFNE01.JPG,AFNE01.JPG,AFNE01.JPG,AFNE01.JPG,,,,,,,,,,,,,,,,,,,,,0,7,7,8,,,AMNE04.jpg,AMNE01.jpg,AMSA18.jpg,AMSA14.jpg,AMNE01.jpg,MN,1,num_6,16,num_6,0.6835226072,,,2017_Apr_03_1834,59.9987491667,FEMA4ImagesEEG,001,100118,
AFNE01.JPG,AFNE01.JPG,AFNE01.JPG,AFNE01.JPG,AFNE01.JPG,AFNE01.JPG,,,,,,,,,,,,,,,,,,,,,0,8,8,2,,,AMNE16.jpg,AMSA05.jpg,AMNE14.jpg,AMSA18.jpg,AMNE14.jpg,MN,1,num_2,32,num_8,0.983470358886,,,2017_Apr_03_1834,59.9987491667,FEMA4ImagesEEG,001,100118,
AFNE01.JPG,AFNE01.JPG,AFNE01.JPG,AFNE01.JPG,AFNE01.JPG,AFNE01.JPG,,,,,,,,,,,,,,,,,,,,,0,9,9,6,,,AMNE15.jpg,AMNE05.jpg,AMSA11.jpg,AMSA16.jpg,AMSA16.jpg,MS,2,num_4,32,num_2,1.3834590686,,,2017_Apr_03_1834,59.9987491667,FEMA4ImagesEEG,001,100118,
AFNE01.JPG,AFNE01.JPG,AFNE01.JPG,AFNE01.JPG,AFNE01.JPG,AFNE01.JPG,,,,,,,,,,,,,,,,,,,,,1,0,10,5,,,AMNE18.jpg,AMNE17.jpg,AMSA19.jpg,AMSA16.jpg,AMNE18.jpg,MN,1,num_8,32,num_6,0.65015124483,,,2017_Apr_03_1834,59.9987491667,FEMA4ImagesEEG,001,100118,
AFNE01.JPG,AFNE01.JPG,AFNE01.JPG,AFNE01.JPG,AFNE01.JPG,AFNE01.JPG,,,,,,,,,,,,,,,,,,,,,1,1,11,9,,,AMSA16.jpg,AMNE03.jpg,AMNE04.jpg,AMSA08.jpg,AMNE03.jpg,MN,1,num_6,16,num_6,0.816813047044,,,2017_Apr_03_1834,59.9987491667,FEMA4ImagesEEG,001,100118,
AFNE01.JPG,AFNE01.JPG,AFNE01.JPG,AFNE01.JPG,AFNE01.JPG,AFNE01.JPG,,,,,,,,,,,,,,,,,,,,,1,2,12,8,,,AMNE05.jpg,AMSA09.jpg,AMSA16.jpg,AMNE04.jpg,AMSA16.jpg,MS,2,num_2,32,num_8,0.983502432704,,,2017_Apr_03_1834,59.9987491667,FEMA4ImagesEEG,001,100118,
AFNE01.JPG,AFNE01.JPG,AFNE01.JPG,AFNE01.JPG,AFNE01.JPG,AFNE01.JPG,,,,,,,,,,,,,,,,,,,,,1,3,13,2,,,AMSA05.jpg,AMSA04.jpg,AMNE19.jpg,AMNE06.jpg,AMNE19.jpg,MN,1,num_2,32,num_8,0.850146241253,,,2017_Apr_03_1834,59.9987491667,FEMA4ImagesEEG,001,100118,
AFNE01.JPG,AFNE01.JPG,AFNE01.JPG,AFNE01.JPG,AFNE01.JPG,AFNE01.JPG,,,,,,,,,,,,,,,,,,,,,1,4,14,0,,,AMSA20.jpg,AMSA06.jpg,AMNE01.jpg,AMNE02.jpg,AMSA20.jpg,MS,2,num_8,16,num_8,0.966780668357,,,2017_Apr_03_1834,59.9987491667,FEMA4ImagesEEG,001,100118,
AFNE01.JPG,AFNE01.JPG,AFNE01.JPG,AFNE01.JPG,AFNE01.JPG,AFNE01.JPG,,,,,,,,,,,,,,,,,,,,,1,5,15,4,,,AMSA17.jpg,AMSA02.jpg,AMNE10.jpg,AMNE20.jpg,AMNE10.jpg,MN,1,num_2,16,num_2,1.00012701307,,,2017_Apr_03_1834,59.9987491667,FEMA4ImagesEEG,001,100118,
AFNE01.JPG,AFNE01.JPG,AFNE01.JPG,AFNE01.JPG,AFNE01.JPG,AFNE01.JPG,,,,,,,,,,,,,,,,,,,,,1,6,16,7,,,AMNE16.jpg,AMSA13.jpg,AMSA11.jpg,AMNE18.jpg,AMSA11.jpg,MS,2,num_2,16,num_2,0.666801163694,,,2017_Apr_03_1834,59.9987491667,FEMA4ImagesEEG,001,100118,
AFNE01.JPG,AFNE01.JPG,AFNE01.JPG,AFNE01.JPG,AFNE01.JPG,AFNE01.JPG,,,,,,,,,,,,,,,,,,,,,1,7,17,6,,,AMSA10.jpg,AMNE06.jpg,AMSA12.jpg,AMNE18.jpg,AMNE18.jpg,MN,1,num_4,16,num_4,0.733544529881,,,2017_Apr_03_1834,59.9987491667,FEMA4ImagesEEG,001,100118,
AFNE01.JPG,AFNE01.JPG,AFNE01.JPG,AFNE01.JPG,AFNE01.JPG,AFNE01.JPG,,,,,,,,,,,,,,,,,,,,,1,8,18,3,,,AMNE02.jpg,AMSA06.jpg,AMSA16.jpg,AMNE17.jpg,AMSA16.jpg,MS,2,num_2,16,num_2,0.766772200819,,,2017_Apr_03_1834,59.9987491667,FEMA4ImagesEEG,001,100118,
AFNE01.JPG,AFNE01.JPG,AFNE01.JPG,AFNE01.JPG,AFNE01.JPG,AFNE01.JPG,,,,,,,,,,,,,,,,,,,,,1,9,19,1,,,AMSA14.jpg,AMNE13.jpg,AMSA13.jpg,AMNE18.jpg,AMNE13.jpg,MN,1,num_6,16,num_6,0.616772184614,,,2017_Apr_03_1834,59.9987491667,FEMA4ImagesEEG,001,100118,
AFNE01.JPG,AFNE01.JPG,AFNE01.JPG,AFNE01.JPG,AFNE01.JPG,AFNE01.JPG,,,,,,,,,,,,,,,,,,,,,2,0,20,2,,,AMSA09.jpg,AMSA06.jpg,AMNE05.jpg,AMNE06.jpg,AMSA09.jpg,MS,2,num_8,32,num_6,0.71681955806,,,2017_Apr_03_1834,59.9987491667,FEMA4ImagesEEG,001,100118,
AFNE01.JPG,AFNE01.JPG,AFNE01.JPG,AFNE01.JPG,AFNE01.JPG,AFNE01.JPG,,,,,,,,,,,,,,,,,,,,,2,1,21,5,,,AMSA17.jpg,AMNE11.jpg,AMSA20.jpg,AMNE04.jpg,AMSA17.jpg,MS,2,num_8,16,num_8,1.18341756472,,,2017_Apr_03_1834,59.9987491667,FEMA4ImagesEEG,001,100118,
AFNE01.JPG,AFNE01.JPG,AFNE01.JPG,AFNE01.JPG,AFNE01.JPG,AFNE01.JPG,,,,,,,,,,,,,,,,,,,,,2,2,22,6,,,AMNE09.jpg,AMNE14.jpg,AMSA19.jpg,AMSA05.jpg,AMNE09.jpg,MN,1,num_8,16,num_8,1.35008225357,,,2017_Apr_03_1834,59.9987491667,FEMA4ImagesEEG,001,100118,
AFNE01.JPG,AFNE01.JPG,AFNE01.JPG,AFNE01.JPG,AFNE01.JPG,AFNE01.JPG,,,,,,,,,,,,,,,,,,,,,2,3,23,0,,,AMSA12.jpg,AMSA09.jpg,AMNE18.jpg,AMNE07.jpg,AMNE18.jpg,MN,1,num_2,32,num_4,0.650154452305,,,2017_Apr_03_1834,59.9987491667,FEMA4ImagesEEG,001,100118,
AFNE01.JPG,AFNE01.JPG,AFNE01.JPG,AFNE01.JPG,AFNE01.JPG,AFNE01.JPG,,,,,,,,,,,,,,,,,,,,,2,4,24,4,,,AMNE02.jpg,AMNE14.jpg,AMSA18.jpg,AMSA05.jpg,AMNE14.jpg,MN,1,num_6,16,num_6,0.733444459038,,,2017_Apr_03_1834,59.9987491667,FEMA4ImagesEEG,001,100118,
AFNE01.JPG,AFNE01.JPG,AFNE01.JPG,AFNE01.JPG,AFNE01.JPG,AFNE01.JPG,,,,,,,,,,,,,,,,,,,,,2,5,25,3,,,AMNE18.jpg,AMNE17.jpg,AMSA11.jpg,AMSA18.jpg,AMSA18.jpg,MS,2,num_4,16,num_4,0.700129867531,,,2017_Apr_03_1834,59.9987491667,FEMA4ImagesEEG,001,100118,
AFNE01.JPG,AFNE01.JPG,AFNE01.JPG,AFNE01.JPG,AFNE01.JPG,AFNE01.JPG,,,,,,,,,,,,,,,,,,,,,2,6,26,8,,,AMNE18.jpg,AMSA18.jpg,AMNE16.jpg,AMSA19.jpg,AMSA18.jpg,MS,2,num_6,32,num_4,0.900181314209,,,2017_Apr_03_1834,59.9987491667,FEMA4ImagesEEG,001,100118,
AFNE01.JPG,AFNE01.JPG,AFNE01.JPG,AFNE01.JPG,AFNE01.JPG,AFNE01.JPG,,,,,,,,,,,,,,,,,,,,,2,7,27,9,,,AMNE18.jpg,AMSA06.jpg,AMNE13.jpg,AMSA15.jpg,AMNE18.jpg,MN,1,num_8,32,num_2,0.783481456339,,,2017_Apr_03_1834,59.9987491667,FEMA4ImagesEEG,001,100118,
AFNE01.JPG,AFNE01.JPG,AFNE01.JPG,AFNE01.JPG,AFNE01.JPG,AFNE01.JPG,,,,,,,,,,,,,,,,,,,,,2,8,28,7,,,AMNE13.jpg,AMNE16.jpg,AMSA13.jpg,AMSA16.jpg,AMNE16.jpg,MN,1,num_6,16,num_6,0.750010343734,,,2017_Apr_03_1834,59.9987491667,FEMA4ImagesEEG,001,100118,
AFNE01.JPG,AFNE01.JPG,AFNE01.JPG,AFNE01.JPG,AFNE01.JPG,AFNE01.JPG,,,,,,,,,,,,,,,,,,,,,2,9,29,1,,,AMSA11.jpg,AMSA12.jpg,AMNE03.jpg,AMNE16.jpg,AMSA12.jpg,MS,2,num_6,32,num_2,1.18346182699,,,2017_Apr_03_1834,59.9987491667,FEMA4ImagesEEG,001,100118,
AFNE01.JPG,AFNE01.JPG,AFNE01.JPG,AFNE01.JPG,AFNE01.JPG,AFNE01.JPG,,,,,,,,,,,,,,,,,,,,,3,0,30,1,,,AMNE07.jpg,AMSA11.jpg,AMSA09.jpg,AMNE19.jpg,AMSA09.jpg,MS,2,num_2,16,num_2,0.65019390313,,,2017_Apr_03_1834,59.9987491667,FEMA4ImagesEEG,001,100118,
AFNE01.JPG,AFNE01.JPG,AFNE01.JPG,AFNE01.JPG,AFNE01.JPG,AFNE01.JPG,,,,,,,,,,,,,,,,,,,,,3,1,31,3,,,AMNE16.jpg,AMSA04.jpg,AMSA02.jpg,AMNE09.jpg,AMSA04.jpg,MS,2,num_6,16,num_6,0.633448404027,,,2017_Apr_03_1834,59.9987491667,FEMA4ImagesEEG,001,100118,
AFNE01.JPG,AFNE01.JPG,AFNE01.JPG,AFNE01.JPG,AFNE01.JPG,AFNE01.JPG,,,,,,,,,,,,,,,,,,,,,3,2,32,9,,,AMSA19.jpg,AMNE06.jpg,AMSA12.jpg,AMNE13.jpg,AMSA19.jpg,MS,2,num_8,32,num_2,1.03347624419,,,2017_Apr_03_1834,59.9987491667,FEMA4ImagesEEG,001,100118,
AFNE01.JPG,AFNE01.JPG,AFNE01.JPG,AFNE01.JPG,AFNE01.JPG,AFNE01.JPG,,,,,,,,,,,,,,,,,,,,,3,3,33,6,,,AMSA05.jpg,AMNE08.jpg,AMNE05.jpg,AMSA10.jpg,AMNE05.jpg,MN,1,num_2,16,num_2,0.850142071722,,,2017_Apr_03_1834,59.9987491667,FEMA4ImagesEEG,001,100118,
AFNE01.JPG,AFNE01.JPG,AFNE01.JPG,AFNE01.JPG,AFNE01.JPG,AFNE01.JPG,,,,,,,,,,,,,,,,,,,,,3,4,34,8,,,AMSA11.jpg,AMNE16.jpg,AMSA14.jpg,AMNE08.jpg,AMNE08.jpg,MN,1,num_4,16,num_4,0.850089790998,,,2017_Apr_03_1834,59.9987491667,FEMA4ImagesEEG,001,100118,
AFNE01.JPG,AFNE01.JPG,AFNE01.JPG,AFNE01.JPG,AFNE01.JPG,AFNE01.JPG,,,,,,,,,,,,,,,,,,,,,3,5,35,4,,,AMNE11.jpg,AMNE06.jpg,AMSA15.jpg,AMSA01.jpg,AMSA15.jpg,MS,2,num_2,16,num_2,0.633509344421,,,2017_Apr_03_1834,59.9987491667,FEMA4ImagesEEG,001,100118,
AFNE01.JPG,AFNE01.JPG,AFNE01.JPG,AFNE01.JPG,AFNE01.JPG,AFNE01.JPG,,,,,,,,,,,,,,,,,,,,,3,6,36,5,,,AMSA18.jpg,AMSA14.jpg,AMNE20.jpg,AMNE12.jpg,AMSA18.jpg,MS,2,num_8,16,num_8,0.850148165831,,,2017_Apr_03_1834,59.9987491667,FEMA4ImagesEEG,001,100118,
AFNE01.JPG,AFNE01.JPG,AFNE01.JPG,AFNE01.JPG,AFNE01.JPG,AFNE01.JPG,,,,,,,,,,,,,,,,,,,,,3,7,37,2,,,AMNE05.jpg,AMNE02.jpg,AMSA19.jpg,AMSA14.jpg,AMNE05.jpg,MN,1,num_8,32,num_6,0.766652564751,,,2017_Apr_03_1834,59.9987491667,FEMA4ImagesEEG,001,100118,
AFNE01.JPG,AFNE01.JPG,AFNE01.JPG,AFNE01.JPG,AFNE01.JPG,AFNE01.JPG,,,,,,,,,,,,,,,,,,,,,3,8,38,7,,,AMNE16.jpg,AMSA13.jpg,AMNE18.jpg,AMSA11.jpg,AMNE18.jpg,MN,1,num_2,16,num_2,1.03346469766,,,2017_Apr_03_1834,59.9987491667,FEMA4ImagesEEG,001,100118,
