IPosition2,IPosition3,IPosition1,IPosition6,IPosition4,IPosition5,TrialsF1.thisRepN,TrialsF1.thisTrialN,TrialsF1.thisN,TrialsF1.thisIndex,TrialsM1.thisRepN,TrialsM1.thisTrialN,TrialsM1.thisN,TrialsM1.thisIndex,TrialsF2.thisRepN,TrialsF2.thisTrialN,TrialsF2.thisN,TrialsF2.thisIndex,TrialsM2.thisRepN,TrialsM2.thisTrialN,TrialsM2.thisN,TrialsM2.thisIndex,TrialsF3.thisRepN,TrialsF3.thisTrialN,TrialsF3.thisN,TrialsF3.thisIndex,TrialsM3.thisRepN,TrialsM3.thisTrialN,TrialsM3.thisN,TrialsM3.thisIndex,InstrKey_resp.keys,InstrKey_resp.rt,Image0 _Position,Image1 _Position,Image2 _Position,Image3 _Position,Center_image,condition,code,correct_answer,accuracy,Key_Resp.keys,Key_Resp.rt,BreakKey_resp.keys,BreakKey_resp.rt,date,frameRate,expName,session,participant,
,,,,,,,,,,,,,,,,,,,,,,,,,,,,,,space,22.1654991207,,,,,,,,,,,,,,2017_Apr_03_1242,60.0051002069,FEMA4ImagesEEG,001,100144,
AMSA25.JPG,AMNE24.JPG,AMSA24.JPG,AMNE26.JPG,AMSA21.JPG,AMNE25.JPG,0,0,0,3,,,,,,,,,,,,,,,,,,,,,,,AFNE01.jpg,AFSA13.jpg,AFSA15.jpg,AFNE20.jpg,AFNE01.jpg,FN,3,num_8,16,num_8,1.78342083632,,,2017_Apr_03_1242,60.0051002069,FEMA4ImagesEEG,001,100144,
AFSA21.JPG,AFNE23.JPG,AFNE21.JPG,AFSA25.JPG,AFNE25.JPG,AFSA23.JPG,0,1,1,4,,,,,,,,,,,,,,,,,,,,,,,AFSA20.jpg,AFSA19.jpg,AFNE16.jpg,AFNE13.jpg,AFNE13.jpg,FN,3,num_4,32,num_2,1.60005074111,,,2017_Apr_03_1242,60.0051002069,FEMA4ImagesEEG,001,100144,
AFNE22.JPG,AFSA24.JPG,AFSA22.JPG,AFNE25.JPG,AFNE24.JPG,AFSA25.JPG,0,2,2,6,,,,,,,,,,,,,,,,,,,,,,,AFNE11.jpg,AFSA10.jpg,AFNE20.jpg,AFSA01.jpg,AFSA01.jpg,FS,4,num_4,16,num_4,0.933502641274,,,2017_Apr_03_1242,60.0051002069,FEMA4ImagesEEG,001,100144,
AFSA25.JPG,AFNE24.JPG,AFSA24.JPG,AFNE21.JPG,AFSA21.JPG,AFNE25.JPG,0,3,3,2,,,,,,,,,,,,,,,,,,,,,,,AFNE18.jpg,AFNE08.jpg,AFSA07.jpg,AFSA03.jpg,AFNE08.jpg,FN,3,num_6,32,num_8,1.31670736335,,,2017_Apr_03_1242,60.0051002069,FEMA4ImagesEEG,001,100144,
AMNE23.JPG,AMNE24.JPG,AMNE22.JPG,AMSA24.JPG,AMSA22.JPG,AMSA23.JPG,0,4,4,9,,,,,,,,,,,,,,,,,,,,,,,AFSA07.jpg,AFNE17.jpg,AFSA14.jpg,AFNE20.jpg,AFNE20.jpg,FN,3,num_4,32,num_6,1.91667214595,,,2017_Apr_03_1242,60.0051002069,FEMA4ImagesEEG,001,100144,
AMNE22.JPG,AMSA24.JPG,AMSA22.JPG,AMNE25.JPG,AMNE24.JPG,AMSA25.JPG,0,5,5,7,,,,,,,,,,,,,,,,,,,,,,,AFNE18.jpg,AFNE04.jpg,AFSA15.jpg,AFSA01.jpg,AFSA15.jpg,FS,4,num_2,16,num_2,1.83324101381,,,2017_Apr_03_1242,60.0051002069,FEMA4ImagesEEG,001,100144,
AMSA21.JPG,AMNE22.JPG,AMNE21.JPG,AMSA23.JPG,AMSA22.JPG,AMNE23.JPG,0,6,6,1,,,,,,,,,,,,,,,,,,,,,,,AFSA15.jpg,AFSA12.jpg,AFNE16.jpg,AFNE09.jpg,AFSA15.jpg,FS,4,num_8,32,num_4,2.20002482529,,,2017_Apr_03_1242,60.0051002069,FEMA4ImagesEEG,001,100144,
AMSA21.JPG,AMNE23.JPG,AMNE21.JPG,AMSA25.JPG,AMNE25.JPG,AMSA23.JPG,0,7,7,5,,,,,,,,,,,,,,,,,,,,,,,AFSA10.jpg,AFNE16.jpg,AFNE12.jpg,AFSA04.jpg,AFNE12.jpg,FN,3,num_2,32,num_8,1.73339987616,,,2017_Apr_03_1242,60.0051002069,FEMA4ImagesEEG,001,100144,
AFNE23.JPG,AFNE24.JPG,AFNE22.JPG,AFSA24.JPG,AFSA22.JPG,AFSA23.JPG,0,8,8,8,,,,,,,,,,,,,,,,,,,,,,,AFSA13.jpg,AFNE10.jpg,AFSA07.jpg,AFNE11.jpg,AFSA13.jpg,FS,4,num_8,32,num_4,1.11675213836,,,2017_Apr_03_1242,60.0051002069,FEMA4ImagesEEG,001,100144,
AFSA21.JPG,AFNE22.JPG,AFNE21.JPG,AFSA23.JPG,AFSA22.JPG,AFNE23.JPG,0,9,9,0,,,,,,,,,,,,,,,,,,,,,,,AFSA06.jpg,AFSA09.jpg,AFNE13.jpg,AFNE20.jpg,AFNE20.jpg,FN,3,num_4,32,num_8,1.05010210746,,,2017_Apr_03_1242,60.0051002069,FEMA4ImagesEEG,001,100144,
AMSA21.JPG,AMNE23.JPG,AMNE21.JPG,AMSA25.JPG,AMNE25.JPG,AMSA23.JPG,,,,,0,0,0,5,,,,,,,,,,,,,,,,,,,AMNE11.jpg,AMNE12.jpg,AMSA18.jpg,AMSA10.jpg,AMNE11.jpg,MN,1,num_8,32,num_6,1.53343053884,,,2017_Apr_03_1242,60.0051002069,FEMA4ImagesEEG,001,100144,
AMNE22.JPG,AMSA24.JPG,AMSA22.JPG,AMNE25.JPG,AMNE24.JPG,AMSA25.JPG,,,,,0,1,1,7,,,,,,,,,,,,,,,,,,,AMSA13.jpg,AMNE17.jpg,AMNE19.jpg,AMSA09.jpg,AMSA09.jpg,MS,2,num_4,16,num_4,2.16666404717,,,2017_Apr_03_1242,60.0051002069,FEMA4ImagesEEG,001,100144,
AMNE23.JPG,AMNE24.JPG,AMNE22.JPG,AMSA24.JPG,AMSA22.JPG,AMSA23.JPG,,,,,0,2,2,9,,,,,,,,,,,,,,,,,,,AMSA07.jpg,AMSA08.jpg,AMNE17.jpg,AMNE14.jpg,AMSA08.jpg,MS,2,num_6,32,num_4,1.3333976951,,,2017_Apr_03_1242,60.0051002069,FEMA4ImagesEEG,001,100144,
AFNE22.JPG,AFSA24.JPG,AFSA22.JPG,AFNE25.JPG,AFNE24.JPG,AFSA25.JPG,,,,,0,3,3,6,,,,,,,,,,,,,,,,,,,AMSA15.jpg,AMSA09.jpg,AMNE19.jpg,AMNE15.jpg,AMNE15.jpg,MN,1,num_4,16,num_4,0.800140997162,,,2017_Apr_03_1242,60.0051002069,FEMA4ImagesEEG,001,100144,
AMSA21.JPG,AMNE22.JPG,AMNE21.JPG,AMSA23.JPG,AMSA22.JPG,AMNE23.JPG,,,,,0,4,4,1,,,,,,,,,,,,,,,,,,,AMSA06.jpg,AMNE16.jpg,AMNE20.jpg,AMSA13.jpg,AMSA06.jpg,MS,2,num_8,16,num_8,0.98314673244,,,2017_Apr_03_1242,60.0051002069,FEMA4ImagesEEG,001,100144,
AFNE23.JPG,AFNE24.JPG,AFNE22.JPG,AFSA24.JPG,AFSA22.JPG,AFSA23.JPG,,,,,0,5,5,8,,,,,,,,,,,,,,,,,,,AMSA09.jpg,AMSA11.jpg,AMNE03.jpg,AMNE16.jpg,AMNE16.jpg,MN,1,num_4,16,num_4,0.700109660858,,,2017_Apr_03_1242,60.0051002069,FEMA4ImagesEEG,001,100144,
AFSA25.JPG,AFNE24.JPG,AFSA24.JPG,AFNE21.JPG,AFSA21.JPG,AFNE25.JPG,,,,,0,6,6,2,,,,,,,,,,,,,,,,,,,AMSA03.jpg,AMNE15.jpg,AMSA18.jpg,AMNE03.jpg,AMNE03.jpg,MN,1,num_4,16,num_4,2.05003026174,,,2017_Apr_03_1242,60.0051002069,FEMA4ImagesEEG,001,100144,
AFSA21.JPG,AFNE22.JPG,AFNE21.JPG,AFSA23.JPG,AFSA22.JPG,AFNE23.JPG,,,,,0,7,7,0,,,,,,,,,,,,,,,,,,,AMSA12.jpg,AMNE04.jpg,AMSA19.jpg,AMNE20.jpg,AMNE04.jpg,MN,1,num_6,16,num_6,1.23382405448,,,2017_Apr_03_1242,60.0051002069,FEMA4ImagesEEG,001,100144,
AFSA21.JPG,AFNE23.JPG,AFNE21.JPG,AFSA25.JPG,AFNE25.JPG,AFSA23.JPG,,,,,0,8,8,4,,,,,,,,,,,,,,,,,,,AMNE15.jpg,AMNE10.jpg,AMSA18.jpg,AMSA15.jpg,AMNE15.jpg,MN,1,num_8,32,num_6,1.91668754141,,,2017_Apr_03_1242,60.0051002069,FEMA4ImagesEEG,001,100144,
AMSA25.JPG,AMNE24.JPG,AMSA24.JPG,AMNE26.JPG,AMSA21.JPG,AMNE25.JPG,,,,,0,9,9,3,,,,,,,,,,,,,,,,,,,AMNE16.jpg,AMSA12.jpg,AMNE17.jpg,AMSA01.jpg,AMSA01.jpg,MS,2,num_4,16,num_4,0.816718108021,,,2017_Apr_03_1242,60.0051002069,FEMA4ImagesEEG,001,100144,
AFNE22.JPG,AFSA24.JPG,AFSA22.JPG,AFNE25.JPG,AFNE24.JPG,AFSA25.JPG,,,,,,,,,0,0,0,6,,,,,,,,,,,,,,,AFSA19.jpg,AFNE19.jpg,AFSA15.jpg,AFNE07.jpg,AFSA19.jpg,FS,4,num_8,32,num_2,1.53339878563,,,2017_Apr_03_1242,60.0051002069,FEMA4ImagesEEG,001,100144,
AMNE23.JPG,AMNE24.JPG,AMNE22.JPG,AMSA24.JPG,AMSA22.JPG,AMSA23.JPG,,,,,,,,,0,1,1,9,,,,,,,,,,,,,,,AFSA02.jpg,AFNE05.jpg,AFSA14.jpg,AFNE16.jpg,AFNE16.jpg,FN,3,num_4,16,num_4,1.16647801828,,,2017_Apr_03_1242,60.0051002069,FEMA4ImagesEEG,001,100144,
AFSA25.JPG,AFNE24.JPG,AFSA24.JPG,AFNE21.JPG,AFSA21.JPG,AFNE25.JPG,,,,,,,,,0,2,2,2,,,,,,,,,,,,,,,AFSA16.jpg,AFNE16.jpg,AFNE17.jpg,AFSA09.jpg,AFNE16.jpg,FN,3,num_6,16,num_6,1.16677438188,,,2017_Apr_03_1242,60.0051002069,FEMA4ImagesEEG,001,100144,
AMSA21.JPG,AMNE23.JPG,AMNE21.JPG,AMSA25.JPG,AMNE25.JPG,AMSA23.JPG,,,,,,,,,0,3,3,5,,,,,,,,,,,,,,,AFSA06.jpg,AFNE18.jpg,AFSA15.jpg,AFNE12.jpg,AFSA15.jpg,FS,4,num_2,32,num_6,1.11672776216,,,2017_Apr_03_1242,60.0051002069,FEMA4ImagesEEG,001,100144,
AMNE22.JPG,AMSA24.JPG,AMSA22.JPG,AMNE25.JPG,AMNE24.JPG,AMSA25.JPG,,,,,,,,,0,4,4,7,,,,,,,,,,,,,,,AFNE07.jpg,AFNE11.jpg,AFSA18.jpg,AFSA13.jpg,AFSA13.jpg,FS,4,num_4,32,num_6,1.0001055235,,,2017_Apr_03_1242,60.0051002069,FEMA4ImagesEEG,001,100144,
AFSA21.JPG,AFNE22.JPG,AFNE21.JPG,AFSA23.JPG,AFSA22.JPG,AFNE23.JPG,,,,,,,,,0,5,5,0,,,,,,,,,,,,,,,AFSA05.jpg,AFSA02.jpg,AFNE12.jpg,AFNE18.jpg,AFNE18.jpg,FN,3,num_4,16,num_4,1.93340802286,,,2017_Apr_03_1242,60.0051002069,FEMA4ImagesEEG,001,100144,
AMSA25.JPG,AMNE24.JPG,AMSA24.JPG,AMNE26.JPG,AMSA21.JPG,AMNE25.JPG,,,,,,,,,0,6,6,3,,,,,,,,,,,,,,,AFNE12.jpg,AFSA08.jpg,AFSA13.jpg,AFNE11.jpg,AFSA13.jpg,FS,4,num_2,32,num_4,1.33339833678,,,2017_Apr_03_1242,60.0051002069,FEMA4ImagesEEG,001,100144,
AFSA21.JPG,AFNE23.JPG,AFNE21.JPG,AFSA25.JPG,AFNE25.JPG,AFSA23.JPG,,,,,,,,,0,7,7,4,,,,,,,,,,,,,,,AFNE04.jpg,AFSA06.jpg,AFSA10.jpg,AFNE13.jpg,AFNE13.jpg,FN,3,num_4,16,num_4,1.20006427611,,,2017_Apr_03_1242,60.0051002069,FEMA4ImagesEEG,001,100144,
AMSA21.JPG,AMNE22.JPG,AMNE21.JPG,AMSA23.JPG,AMSA22.JPG,AMNE23.JPG,,,,,,,,,0,8,8,1,,,,,,,,,,,,,,,AFNE13.jpg,AFNE04.jpg,AFSA10.jpg,AFSA18.jpg,AFSA18.jpg,FS,4,num_4,16,num_4,0.566781373927,,,2017_Apr_03_1242,60.0051002069,FEMA4ImagesEEG,001,100144,
AFNE23.JPG,AFNE24.JPG,AFNE22.JPG,AFSA24.JPG,AFSA22.JPG,AFSA23.JPG,,,,,,,,,0,9,9,8,,,,,,,,,,,,,,,AFNE13.jpg,AFNE12.jpg,AFSA15.jpg,AFSA20.jpg,AFSA20.jpg,FS,4,num_4,16,num_4,0.766865536105,,,2017_Apr_03_1242,60.0051002069,FEMA4ImagesEEG,001,100144,
AMSA21.JPG,AMNE22.JPG,AMNE21.JPG,AMSA23.JPG,AMSA22.JPG,AMNE23.JPG,,,,,,,,,,,,,0,0,0,1,,,,,,,,,,,AMSA08.jpg,AMNE02.jpg,AMNE14.jpg,AMSA02.jpg,AMSA08.jpg,MS,2,num_8,16,num_8,0.800150298513,,,2017_Apr_03_1242,60.0051002069,FEMA4ImagesEEG,001,100144,
AFNE22.JPG,AFSA24.JPG,AFSA22.JPG,AFNE25.JPG,AFNE24.JPG,AFSA25.JPG,,,,,,,,,,,,,0,1,1,6,,,,,,,,,,,AMNE02.jpg,AMSA20.jpg,AMNE07.jpg,AMSA03.jpg,AMSA03.jpg,MS,2,num_4,16,num_4,0.550134662539,,,2017_Apr_03_1242,60.0051002069,FEMA4ImagesEEG,001,100144,
AMSA25.JPG,AMNE24.JPG,AMSA24.JPG,AMNE26.JPG,AMSA21.JPG,AMNE25.JPG,,,,,,,,,,,,,0,2,2,3,,,,,,,,,,,AMSA06.jpg,AMSA13.jpg,AMNE11.jpg,AMNE08.jpg,AMSA06.jpg,MS,2,num_8,32,num_4,1.06674496992,,,2017_Apr_03_1242,60.0051002069,FEMA4ImagesEEG,001,100144,
AMNE23.JPG,AMNE24.JPG,AMNE22.JPG,AMSA24.JPG,AMSA22.JPG,AMSA23.JPG,,,,,,,,,,,,,0,3,3,9,,,,,,,,,,,AMSA18.jpg,AMNE11.jpg,AMNE09.jpg,AMSA03.jpg,AMNE09.jpg,MN,1,num_2,32,num_6,1.01735554612,,,2017_Apr_03_1242,60.0051002069,FEMA4ImagesEEG,001,100144,
AMNE22.JPG,AMSA24.JPG,AMSA22.JPG,AMNE25.JPG,AMNE24.JPG,AMSA25.JPG,,,,,,,,,,,,,0,4,4,7,,,,,,,,,,,AMNE13.jpg,AMNE18.jpg,AMSA01.jpg,AMSA19.jpg,AMNE13.jpg,MN,1,num_8,32,num_6,2.68346519489,,,2017_Apr_03_1242,60.0051002069,FEMA4ImagesEEG,001,100144,
AFNE23.JPG,AFNE24.JPG,AFNE22.JPG,AFSA24.JPG,AFSA22.JPG,AFSA23.JPG,,,,,,,,,,,,,0,5,5,8,,,,,,,,,,,AMSA05.jpg,AMNE10.jpg,AMNE12.jpg,AMSA17.jpg,AMNE12.jpg,MN,1,num_2,32,num_6,0.783460287377,,,2017_Apr_03_1242,60.0051002069,FEMA4ImagesEEG,001,100144,
AFSA21.JPG,AFNE22.JPG,AFNE21.JPG,AFSA23.JPG,AFSA22.JPG,AFNE23.JPG,,,,,,,,,,,,,0,6,6,0,,,,,,,,,,,AMNE05.jpg,AMSA13.jpg,AMSA06.jpg,AMNE11.jpg,AMSA06.jpg,MS,2,num_2,16,num_2,1.20008031325,,,2017_Apr_03_1242,60.0051002069,FEMA4ImagesEEG,001,100144,
AFSA25.JPG,AFNE24.JPG,AFSA24.JPG,AFNE21.JPG,AFSA21.JPG,AFNE25.JPG,,,,,,,,,,,,,0,7,7,2,,,,,,,,,,,AMSA04.jpg,AMNE17.jpg,AMSA11.jpg,AMNE08.jpg,AMSA04.jpg,MS,2,num_8,16,num_8,1.05010563554,,,2017_Apr_03_1242,60.0051002069,FEMA4ImagesEEG,001,100144,
AMSA21.JPG,AMNE23.JPG,AMNE21.JPG,AMSA25.JPG,AMNE25.JPG,AMSA23.JPG,,,,,,,,,,,,,0,8,8,5,,,,,,,,,,,AMNE05.jpg,AMSA19.jpg,AMNE07.jpg,AMSA15.jpg,AMSA19.jpg,MS,2,num_6,32,num_4,1.21680849255,,,2017_Apr_03_1242,60.0051002069,FEMA4ImagesEEG,001,100144,
AFSA21.JPG,AFNE23.JPG,AFNE21.JPG,AFSA25.JPG,AFNE25.JPG,AFSA23.JPG,,,,,,,,,,,,,0,9,9,4,,,,,,,,,,,AMSA11.jpg,AMNE20.jpg,AMNE19.jpg,AMSA02.jpg,AMNE19.jpg,MN,1,num_2,16,num_2,1.01679136511,,,2017_Apr_03_1242,60.0051002069,FEMA4ImagesEEG,001,100144,
AMSA21.JPG,AMNE22.JPG,AMNE21.JPG,AMSA23.JPG,AMSA22.JPG,AMNE23.JPG,,,,,,,,,,,,,,,,,0,0,0,1,,,,,,,AFSA14.jpg,AFSA02.jpg,AFNE19.jpg,AFNE15.jpg,AFNE19.jpg,FN,3,num_2,32,num_8,1.33345190017,,,2017_Apr_03_1242,60.0051002069,FEMA4ImagesEEG,001,100144,
AMSA21.JPG,AMNE23.JPG,AMNE21.JPG,AMSA25.JPG,AMNE25.JPG,AMSA23.JPG,,,,,,,,,,,,,,,,,0,1,1,5,,,,,,,AFSA01.jpg,AFSA12.jpg,AFNE16.jpg,AFNE06.jpg,AFNE16.jpg,FN,3,num_2,16,num_2,1.23345873179,,,2017_Apr_03_1242,60.0051002069,FEMA4ImagesEEG,001,100144,
AFSA21.JPG,AFNE22.JPG,AFNE21.JPG,AFSA23.JPG,AFSA22.JPG,AFNE23.JPG,,,,,,,,,,,,,,,,,0,2,2,0,,,,,,,AFNE10.jpg,AFSA16.jpg,AFSA17.jpg,AFNE04.jpg,AFSA17.jpg,FS,4,num_2,16,num_2,1.06675587501,,,2017_Apr_03_1242,60.0051002069,FEMA4ImagesEEG,001,100144,
AFNE23.JPG,AFNE24.JPG,AFNE22.JPG,AFSA24.JPG,AFSA22.JPG,AFSA23.JPG,,,,,,,,,,,,,,,,,0,3,3,8,,,,,,,AFNE08.jpg,AFNE14.jpg,AFSA19.jpg,AFSA16.jpg,AFSA19.jpg,FS,4,num_2,16,num_2,1.03327963082,,,2017_Apr_03_1242,60.0051002069,FEMA4ImagesEEG,001,100144,
AFSA25.JPG,AFNE24.JPG,AFSA24.JPG,AFNE21.JPG,AFSA21.JPG,AFNE25.JPG,,,,,,,,,,,,,,,,,0,4,4,2,,,,,,,AFNE19.jpg,AFNE17.jpg,AFSA19.jpg,AFSA04.jpg,AFSA04.jpg,FS,4,num_4,16,num_4,0.816798292799,,,2017_Apr_03_1242,60.0051002069,FEMA4ImagesEEG,001,100144,
AMNE23.JPG,AMNE24.JPG,AMNE22.JPG,AMSA24.JPG,AMSA22.JPG,AMSA23.JPG,,,,,,,,,,,,,,,,,0,5,5,9,,,,,,,AFSA09.jpg,AFSA18.jpg,AFNE19.jpg,AFNE20.jpg,AFNE20.jpg,FN,3,num_4,32,num_8,1.28339469619,,,2017_Apr_03_1242,60.0051002069,FEMA4ImagesEEG,001,100144,
AMSA25.JPG,AMNE24.JPG,AMSA24.JPG,AMNE26.JPG,AMSA21.JPG,AMNE25.JPG,,,,,,,,,,,,,,,,,0,6,6,3,,,,,,,AFNE01.jpg,AFSA01.jpg,AFSA15.jpg,AFNE12.jpg,AFNE12.jpg,FN,3,num_4,16,num_4,1.06647907686,,,2017_Apr_03_1242,60.0051002069,FEMA4ImagesEEG,001,100144,
AFNE22.JPG,AFSA24.JPG,AFSA22.JPG,AFNE25.JPG,AFNE24.JPG,AFSA25.JPG,,,,,,,,,,,,,,,,,0,7,7,6,,,,,,,AFNE09.jpg,AFSA18.jpg,AFNE05.jpg,AFSA06.jpg,AFSA18.jpg,FS,4,num_6,16,num_6,1.73342681839,,,2017_Apr_03_1242,60.0051002069,FEMA4ImagesEEG,001,100144,
AFSA21.JPG,AFNE23.JPG,AFNE21.JPG,AFSA25.JPG,AFNE25.JPG,AFSA23.JPG,,,,,,,,,,,,,,,,,0,8,8,4,,,,,,,AFSA11.jpg,AFNE12.jpg,AFSA06.jpg,AFNE13.jpg,AFNE13.jpg,FN,3,num_4,16,num_4,2.03340792656,,,2017_Apr_03_1242,60.0051002069,FEMA4ImagesEEG,001,100144,
AMNE22.JPG,AMSA24.JPG,AMSA22.JPG,AMNE25.JPG,AMNE24.JPG,AMSA25.JPG,,,,,,,,,,,,,,,,,0,9,9,7,,,,,,,AFNE10.jpg,AFSA01.jpg,AFNE05.jpg,AFSA18.jpg,AFSA01.jpg,FS,4,num_6,16,num_6,0.750120999059,,,2017_Apr_03_1242,60.0051002069,FEMA4ImagesEEG,001,100144,
AMNE23.JPG,AMNE24.JPG,AMNE22.JPG,AMSA24.JPG,AMSA22.JPG,AMSA23.JPG,,,,,,,,,,,,,,,,,,,,,0,0,0,9,,,AMNE14.jpg,AMSA10.jpg,AMSA03.jpg,AMNE12.jpg,AMSA03.jpg,MS,2,num_2,32,num_6,0.950119202957,,,2017_Apr_03_1242,60.0051002069,FEMA4ImagesEEG,001,100144,
AFNE23.JPG,AFNE24.JPG,AFNE22.JPG,AFSA24.JPG,AFSA22.JPG,AFSA23.JPG,,,,,,,,,,,,,,,,,,,,,0,1,1,8,,,AMNE12.jpg,AMSA16.jpg,AMSA19.jpg,AMNE03.jpg,AMSA19.jpg,MS,2,num_2,32,num_4,1.6834145179,,,2017_Apr_03_1242,60.0051002069,FEMA4ImagesEEG,001,100144,
AMSA21.JPG,AMNE22.JPG,AMNE21.JPG,AMSA23.JPG,AMSA22.JPG,AMNE23.JPG,,,,,,,,,,,,,,,,,,,,,0,2,2,1,,,AMSA01.jpg,AMSA07.jpg,AMNE15.jpg,AMNE19.jpg,AMSA01.jpg,MS,2,num_8,32,num_6,1.46674394351,,,2017_Apr_03_1242,60.0051002069,FEMA4ImagesEEG,001,100144,
AMNE22.JPG,AMSA24.JPG,AMSA22.JPG,AMNE25.JPG,AMNE24.JPG,AMSA25.JPG,,,,,,,,,,,,,,,,,,,,,0,3,3,7,,,AMNE15.jpg,AMSA13.jpg,AMNE16.jpg,AMSA10.jpg,AMNE16.jpg,MN,1,num_2,16,num_2,2.600017705,,,2017_Apr_03_1242,60.0051002069,FEMA4ImagesEEG,001,100144,
AFNE22.JPG,AFSA24.JPG,AFSA22.JPG,AFNE25.JPG,AFNE24.JPG,AFSA25.JPG,,,,,,,,,,,,,,,,,,,,,0,4,4,6,,,AMNE04.jpg,AMSA13.jpg,AMNE08.jpg,AMSA05.jpg,AMNE08.jpg,MN,1,num_2,32,num_8,1.28339148872,,,2017_Apr_03_1242,60.0051002069,FEMA4ImagesEEG,001,100144,
AFSA21.JPG,AFNE22.JPG,AFNE21.JPG,AFSA23.JPG,AFSA22.JPG,AFNE23.JPG,,,,,,,,,,,,,,,,,,,,,0,5,5,0,,,AMNE20.jpg,AMSA20.jpg,AMNE09.jpg,AMSA07.jpg,AMNE09.jpg,MN,1,num_2,32,num_6,1.85007856507,,,2017_Apr_03_1242,60.0051002069,FEMA4ImagesEEG,001,100144,
AMSA21.JPG,AMNE23.JPG,AMNE21.JPG,AMSA25.JPG,AMNE25.JPG,AMSA23.JPG,,,,,,,,,,,,,,,,,,,,,0,6,6,5,,,AMNE08.jpg,AMSA05.jpg,AMSA11.jpg,AMNE04.jpg,AMSA05.jpg,MS,2,num_6,16,num_6,1.7667356364,,,2017_Apr_03_1242,60.0051002069,FEMA4ImagesEEG,001,100144,
AMSA25.JPG,AMNE24.JPG,AMSA24.JPG,AMNE26.JPG,AMSA21.JPG,AMNE25.JPG,,,,,,,,,,,,,,,,,,,,,0,7,7,3,,,AMSA14.jpg,AMNE20.jpg,AMSA08.jpg,AMNE08.jpg,AMNE08.jpg,MN,1,num_4,16,num_4,1.70007085148,,,2017_Apr_03_1242,60.0051002069,FEMA4ImagesEEG,001,100144,
AFSA25.JPG,AFNE24.JPG,AFSA24.JPG,AFNE21.JPG,AFSA21.JPG,AFNE25.JPG,,,,,,,,,,,,,,,,,,,,,0,8,8,2,,,AMNE10.jpg,AMNE11.jpg,AMSA03.jpg,AMSA06.jpg,AMNE10.jpg,MN,1,num_8,32,num_6,1.10046690074,,,2017_Apr_03_1242,60.0051002069,FEMA4ImagesEEG,001,100144,
AFSA21.JPG,AFNE23.JPG,AFNE21.JPG,AFSA25.JPG,AFNE25.JPG,AFSA23.JPG,,,,,,,,,,,,,,,,,,,,,0,9,9,4,,,AMNE13.jpg,AMSA09.jpg,AMSA07.jpg,AMNE09.jpg,AMNE13.jpg,MN,1,num_8,32,num_4,1.18344514864,,,2017_Apr_03_1242,60.0051002069,FEMA4ImagesEEG,001,100144,
,,,,,,,,,,,,,,,,,,,,,,,,,,,,,,,,,,,,,,,,,,,space,4.61649731081,2017_Apr_03_1242,60.0051002069,FEMA4ImagesEEG,001,100144,
AFNE01.JPG,AFNE01.JPG,AFNE01.JPG,AFNE01.JPG,AFNE01.JPG,AFNE01.JPG,0,0,0,9,,,,,,,,,,,,,,,,,,,,,,,AFSA14.jpg,AFNE17.jpg,AFSA07.jpg,AFNE01.jpg,AFNE01.jpg,FN,3,num_4,32,num_6,1.31668876042,,,2017_Apr_03_1242,60.0051002069,FEMA4ImagesEEG,001,100144,
AFNE01.JPG,AFNE01.JPG,AFNE01.JPG,AFNE01.JPG,AFNE01.JPG,AFNE01.JPG,0,1,1,5,,,,,,,,,,,,,,,,,,,,,,,AFNE10.jpg,AFNE20.jpg,AFSA20.jpg,AFSA19.jpg,AFNE20.jpg,FN,3,num_6,32,num_4,0.933455171762,,,2017_Apr_03_1242,60.0051002069,FEMA4ImagesEEG,001,100144,
AFNE01.JPG,AFNE01.JPG,AFNE01.JPG,AFNE01.JPG,AFNE01.JPG,AFNE01.JPG,0,2,2,6,,,,,,,,,,,,,,,,,,,,,,,AFSA19.jpg,AFSA07.jpg,AFNE17.jpg,AFNE07.jpg,AFNE07.jpg,FN,3,num_4,16,num_4,0.983491848223,,,2017_Apr_03_1242,60.0051002069,FEMA4ImagesEEG,001,100144,
AFNE01.JPG,AFNE01.JPG,AFNE01.JPG,AFNE01.JPG,AFNE01.JPG,AFNE01.JPG,0,3,3,2,,,,,,,,,,,,,,,,,,,,,,,AFSA11.jpg,AFSA12.jpg,AFNE01.jpg,AFNE17.jpg,AFSA12.jpg,FS,4,num_6,16,num_6,0.933491094504,,,2017_Apr_03_1242,60.0051002069,FEMA4ImagesEEG,001,100144,
AFNE01.JPG,AFNE01.JPG,AFNE01.JPG,AFNE01.JPG,AFNE01.JPG,AFNE01.JPG,0,4,4,4,,,,,,,,,,,,,,,,,,,,,,,AFSA06.jpg,AFNE18.jpg,AFSA15.jpg,AFNE15.jpg,AFSA06.jpg,FS,4,num_8,32,num_6,2.79995689262,,,2017_Apr_03_1242,60.0051002069,FEMA4ImagesEEG,001,100144,
AFNE01.JPG,AFNE01.JPG,AFNE01.JPG,AFNE01.JPG,AFNE01.JPG,AFNE01.JPG,0,5,5,8,,,,,,,,,,,,,,,,,,,,,,,AFNE20.jpg,AFSA07.jpg,AFSA05.jpg,AFNE10.jpg,AFSA07.jpg,FS,4,num_6,16,num_6,1.29982651188,,,2017_Apr_03_1242,60.0051002069,FEMA4ImagesEEG,001,100144,
AFNE01.JPG,AFNE01.JPG,AFNE01.JPG,AFNE01.JPG,AFNE01.JPG,AFNE01.JPG,0,6,6,1,,,,,,,,,,,,,,,,,,,,,,,AFSA04.jpg,AFNE13.jpg,AFNE15.jpg,AFSA14.jpg,AFSA04.jpg,FS,4,num_8,16,num_8,2.11666553887,,,2017_Apr_03_1242,60.0051002069,FEMA4ImagesEEG,001,100144,
AFNE01.JPG,AFNE01.JPG,AFNE01.JPG,AFNE01.JPG,AFNE01.JPG,AFNE01.JPG,0,7,7,0,,,,,,,,,,,,,,,,,,,,,,,AFSA02.jpg,AFNE14.jpg,AFSA16.jpg,AFNE10.jpg,AFNE10.jpg,FN,3,num_4,16,num_4,0.766785992542,,,2017_Apr_03_1242,60.0051002069,FEMA4ImagesEEG,001,100144,
AFNE01.JPG,AFNE01.JPG,AFNE01.JPG,AFNE01.JPG,AFNE01.JPG,AFNE01.JPG,0,8,8,7,,,,,,,,,,,,,,,,,,,,,,,AFNE19.jpg,AFNE02.jpg,AFSA03.jpg,AFSA07.jpg,AFNE19.jpg,FN,3,num_8,16,num_8,1.06661923998,,,2017_Apr_03_1242,60.0051002069,FEMA4ImagesEEG,001,100144,
AFNE01.JPG,AFNE01.JPG,AFNE01.JPG,AFNE01.JPG,AFNE01.JPG,AFNE01.JPG,0,9,9,3,,,,,,,,,,,,,,,,,,,,,,,AFNE03.jpg,AFSA18.jpg,AFSA20.jpg,AFNE02.jpg,AFNE02.jpg,FN,3,num_4,16,num_4,1.33341918467,,,2017_Apr_03_1242,60.0051002069,FEMA4ImagesEEG,001,100144,
AFNE01.JPG,AFNE01.JPG,AFNE01.JPG,AFNE01.JPG,AFNE01.JPG,AFNE01.JPG,1,0,10,4,,,,,,,,,,,,,,,,,,,,,,,AFSA11.jpg,AFSA06.jpg,AFNE08.jpg,AFNE09.jpg,AFNE09.jpg,FN,3,num_4,16,num_4,0.866780764423,,,2017_Apr_03_1242,60.0051002069,FEMA4ImagesEEG,001,100144,
AFNE01.JPG,AFNE01.JPG,AFNE01.JPG,AFNE01.JPG,AFNE01.JPG,AFNE01.JPG,1,1,11,0,,,,,,,,,,,,,,,,,,,,,,,AFNE16.jpg,AFSA08.jpg,AFNE13.jpg,AFSA18.jpg,AFNE13.jpg,FN,3,num_2,32,num_4,1.80000596587,,,2017_Apr_03_1242,60.0051002069,FEMA4ImagesEEG,001,100144,
AFNE01.JPG,AFNE01.JPG,AFNE01.JPG,AFNE01.JPG,AFNE01.JPG,AFNE01.JPG,1,2,12,3,,,,,,,,,,,,,,,,,,,,,,,AFSA13.jpg,AFSA20.jpg,AFNE06.jpg,AFNE10.jpg,AFNE10.jpg,FN,3,num_4,16,num_4,0.666830350878,,,2017_Apr_03_1242,60.0051002069,FEMA4ImagesEEG,001,100144,
AFNE01.JPG,AFNE01.JPG,AFNE01.JPG,AFNE01.JPG,AFNE01.JPG,AFNE01.JPG,1,3,13,2,,,,,,,,,,,,,,,,,,,,,,,AFNE01.jpg,AFSA19.jpg,AFSA18.jpg,AFNE12.jpg,AFSA19.jpg,FS,4,num_6,32,num_4,0.81678257673,,,2017_Apr_03_1242,60.0051002069,FEMA4ImagesEEG,001,100144,
AFNE01.JPG,AFNE01.JPG,AFNE01.JPG,AFNE01.JPG,AFNE01.JPG,AFNE01.JPG,1,4,14,8,,,,,,,,,,,,,,,,,,,,,,,AFNE12.jpg,AFSA20.jpg,AFNE03.jpg,AFSA13.jpg,AFSA13.jpg,FS,4,num_4,32,num_6,0.616804579506,,,2017_Apr_03_1242,60.0051002069,FEMA4ImagesEEG,001,100144,
AFNE01.JPG,AFNE01.JPG,AFNE01.JPG,AFNE01.JPG,AFNE01.JPG,AFNE01.JPG,1,5,15,9,,,,,,,,,,,,,,,,,,,,,,,AFNE14.jpg,AFNE08.jpg,AFSA18.jpg,AFSA07.jpg,AFSA18.jpg,FS,4,num_2,32,num_4,1.16674423218,,,2017_Apr_03_1242,60.0051002069,FEMA4ImagesEEG,001,100144,
AFNE01.JPG,AFNE01.JPG,AFNE01.JPG,AFNE01.JPG,AFNE01.JPG,AFNE01.JPG,1,6,16,7,,,,,,,,,,,,,,,,,,,,,,,AFSA17.jpg,AFNE08.jpg,AFSA05.jpg,AFNE07.jpg,AFSA17.jpg,FS,4,num_8,16,num_8,1.03347431985,,,2017_Apr_03_1242,60.0051002069,FEMA4ImagesEEG,001,100144,
AFNE01.JPG,AFNE01.JPG,AFNE01.JPG,AFNE01.JPG,AFNE01.JPG,AFNE01.JPG,1,7,17,6,,,,,,,,,,,,,,,,,,,,,,,AFNE19.jpg,AFSA15.jpg,AFSA06.jpg,AFNE03.jpg,AFNE19.jpg,FN,3,num_8,32,num_4,0.883493548026,,,2017_Apr_03_1242,60.0051002069,FEMA4ImagesEEG,001,100144,
AFNE01.JPG,AFNE01.JPG,AFNE01.JPG,AFNE01.JPG,AFNE01.JPG,AFNE01.JPG,1,8,18,1,,,,,,,,,,,,,,,,,,,,,,,AFSA13.jpg,AFNE14.jpg,AFSA17.jpg,AFNE05.jpg,AFNE14.jpg,FN,3,num_6,16,num_6,2.96689934214,,,2017_Apr_03_1242,60.0051002069,FEMA4ImagesEEG,001,100144,
AFNE01.JPG,AFNE01.JPG,AFNE01.JPG,AFNE01.JPG,AFNE01.JPG,AFNE01.JPG,1,9,19,5,,,,,,,,,,,,,,,,,,,,,,,AFSA05.jpg,AFSA09.jpg,AFNE02.jpg,AFNE06.jpg,AFNE02.jpg,FN,3,num_2,32,num_8,1.18343841308,,,2017_Apr_03_1242,60.0051002069,FEMA4ImagesEEG,001,100144,
AFNE01.JPG,AFNE01.JPG,AFNE01.JPG,AFNE01.JPG,AFNE01.JPG,AFNE01.JPG,2,0,20,4,,,,,,,,,,,,,,,,,,,,,,,AFSA15.jpg,AFSA12.jpg,AFNE01.jpg,AFNE19.jpg,AFNE19.jpg,FN,3,num_4,32,num_6,1.11676272308,,,2017_Apr_03_1242,60.0051002069,FEMA4ImagesEEG,001,100144,
AFNE01.JPG,AFNE01.JPG,AFNE01.JPG,AFNE01.JPG,AFNE01.JPG,AFNE01.JPG,2,1,21,0,,,,,,,,,,,,,,,,,,,,,,,AFSA01.jpg,AFSA03.jpg,AFNE07.jpg,AFNE01.jpg,AFNE01.jpg,FN,3,num_4,16,num_4,1.50010343851,,,2017_Apr_03_1242,60.0051002069,FEMA4ImagesEEG,001,100144,
AFNE01.JPG,AFNE01.JPG,AFNE01.JPG,AFNE01.JPG,AFNE01.JPG,AFNE01.JPG,2,2,22,1,,,,,,,,,,,,,,,,,,,,,,,AFNE20.jpg,AFSA12.jpg,AFNE11.jpg,AFSA15.jpg,AFNE20.jpg,FN,3,num_8,32,num_2,2.00003624358,,,2017_Apr_03_1242,60.0051002069,FEMA4ImagesEEG,001,100144,
AFNE01.JPG,AFNE01.JPG,AFNE01.JPG,AFNE01.JPG,AFNE01.JPG,AFNE01.JPG,2,3,23,3,,,,,,,,,,,,,,,,,,,,,,,AFSA02.jpg,AFNE02.jpg,AFNE09.jpg,AFSA06.jpg,AFNE09.jpg,FN,3,num_2,16,num_2,1.36672896496,,,2017_Apr_03_1242,60.0051002069,FEMA4ImagesEEG,001,100144,
AFNE01.JPG,AFNE01.JPG,AFNE01.JPG,AFNE01.JPG,AFNE01.JPG,AFNE01.JPG,2,4,24,2,,,,,,,,,,,,,,,,,,,,,,,AFNE07.jpg,AFNE09.jpg,AFSA13.jpg,AFSA12.jpg,AFSA12.jpg,FS,4,num_4,16,num_4,2.21668981877,,,2017_Apr_03_1242,60.0051002069,FEMA4ImagesEEG,001,100144,
AFNE01.JPG,AFNE01.JPG,AFNE01.JPG,AFNE01.JPG,AFNE01.JPG,AFNE01.JPG,2,5,25,7,,,,,,,,,,,,,,,,,,,,,,,AFSA19.jpg,AFNE06.jpg,AFSA09.jpg,AFNE03.jpg,AFSA09.jpg,FS,4,num_2,16,num_2,1.71668677172,,,2017_Apr_03_1242,60.0051002069,FEMA4ImagesEEG,001,100144,
AFNE01.JPG,AFNE01.JPG,AFNE01.JPG,AFNE01.JPG,AFNE01.JPG,AFNE01.JPG,2,6,26,5,,,,,,,,,,,,,,,,,,,,,,,AFNE17.jpg,AFNE02.jpg,AFSA20.jpg,AFSA14.jpg,AFSA14.jpg,FS,4,num_4,16,num_4,0.883246578509,,,2017_Apr_03_1242,60.0051002069,FEMA4ImagesEEG,001,100144,
AFNE01.JPG,AFNE01.JPG,AFNE01.JPG,AFNE01.JPG,AFNE01.JPG,AFNE01.JPG,2,7,27,8,,,,,,,,,,,,,,,,,,,,,,,AFSA05.jpg,AFNE01.jpg,AFNE18.jpg,AFSA17.jpg,AFSA17.jpg,FS,4,num_4,16,num_4,0.916800121078,,,2017_Apr_03_1242,60.0051002069,FEMA4ImagesEEG,001,100144,
AFNE01.JPG,AFNE01.JPG,AFNE01.JPG,AFNE01.JPG,AFNE01.JPG,AFNE01.JPG,2,8,28,6,,,,,,,,,,,,,,,,,,,,,,,AFSA06.jpg,AFSA18.jpg,AFNE10.jpg,AFNE08.jpg,AFSA18.jpg,FS,4,num_6,16,num_6,0.716805124655,,,2017_Apr_03_1242,60.0051002069,FEMA4ImagesEEG,001,100144,
AFNE01.JPG,AFNE01.JPG,AFNE01.JPG,AFNE01.JPG,AFNE01.JPG,AFNE01.JPG,2,9,29,9,,,,,,,,,,,,,,,,,,,,,,,AFSA07.jpg,AFNE09.jpg,AFSA17.jpg,AFNE05.jpg,AFSA07.jpg,FS,4,num_8,32,num_6,0.9667838756,,,2017_Apr_03_1242,60.0051002069,FEMA4ImagesEEG,001,100144,
AFNE01.JPG,AFNE01.JPG,AFNE01.JPG,AFNE01.JPG,AFNE01.JPG,AFNE01.JPG,3,0,30,6,,,,,,,,,,,,,,,,,,,,,,,AFNE16.jpg,AFSA04.jpg,AFSA16.jpg,AFNE13.jpg,AFNE16.jpg,FN,3,num_8,16,num_8,0.666768447962,,,2017_Apr_03_1242,60.0051002069,FEMA4ImagesEEG,001,100144,
AFNE01.JPG,AFNE01.JPG,AFNE01.JPG,AFNE01.JPG,AFNE01.JPG,AFNE01.JPG,3,1,31,9,,,,,,,,,,,,,,,,,,,,,,,AFNE02.jpg,AFNE06.jpg,AFSA19.jpg,AFSA08.jpg,AFSA19.jpg,FS,4,num_2,32,num_4,0.93347088783,,,2017_Apr_03_1242,60.0051002069,FEMA4ImagesEEG,001,100144,
AFNE01.JPG,AFNE01.JPG,AFNE01.JPG,AFNE01.JPG,AFNE01.JPG,AFNE01.JPG,3,2,32,3,,,,,,,,,,,,,,,,,,,,,,,AFSA02.jpg,AFSA11.jpg,AFNE04.jpg,AFNE09.jpg,AFNE09.jpg,FN,3,num_4,16,num_4,1.08341477439,,,2017_Apr_03_1242,60.0051002069,FEMA4ImagesEEG,001,100144,
AFNE01.JPG,AFNE01.JPG,AFNE01.JPG,AFNE01.JPG,AFNE01.JPG,AFNE01.JPG,3,3,33,1,,,,,,,,,,,,,,,,,,,,,,,AFSA09.jpg,AFSA05.jpg,AFNE11.jpg,AFNE02.jpg,AFNE11.jpg,FN,3,num_2,32,num_6,1.31669806177,,,2017_Apr_03_1242,60.0051002069,FEMA4ImagesEEG,001,100144,
AFNE01.JPG,AFNE01.JPG,AFNE01.JPG,AFNE01.JPG,AFNE01.JPG,AFNE01.JPG,3,4,34,8,,,,,,,,,,,,,,,,,,,,,,,AFNE11.jpg,AFNE02.jpg,AFSA04.jpg,AFSA06.jpg,AFSA06.jpg,FS,4,num_4,32,num_6,1.48342016293,,,2017_Apr_03_1242,60.0051002069,FEMA4ImagesEEG,001,100144,
AFNE01.JPG,AFNE01.JPG,AFNE01.JPG,AFNE01.JPG,AFNE01.JPG,AFNE01.JPG,3,5,35,2,,,,,,,,,,,,,,,,,,,,,,,AFNE05.jpg,AFSA01.jpg,AFSA03.jpg,AFNE01.jpg,AFNE05.jpg,FN,3,num_8,32,num_2,1.61659289128,,,2017_Apr_03_1242,60.0051002069,FEMA4ImagesEEG,001,100144,
AFNE01.JPG,AFNE01.JPG,AFNE01.JPG,AFNE01.JPG,AFNE01.JPG,AFNE01.JPG,3,6,36,5,,,,,,,,,,,,,,,,,,,,,,,AFNE13.jpg,AFSA16.jpg,AFNE04.jpg,AFSA04.jpg,AFSA16.jpg,FS,4,num_6,32,num_8,1.28346397588,,,2017_Apr_03_1242,60.0051002069,FEMA4ImagesEEG,001,100144,
AFNE01.JPG,AFNE01.JPG,AFNE01.JPG,AFNE01.JPG,AFNE01.JPG,AFNE01.JPG,3,7,37,0,,,,,,,,,,,,,,,,,,,,,,,AFNE02.jpg,AFNE05.jpg,AFSA15.jpg,AFSA17.jpg,AFNE05.jpg,FN,3,num_6,16,num_6,1.05012616282,,,2017_Apr_03_1242,60.0051002069,FEMA4ImagesEEG,001,100144,
AFNE01.JPG,AFNE01.JPG,AFNE01.JPG,AFNE01.JPG,AFNE01.JPG,AFNE01.JPG,3,8,38,7,,,,,,,,,,,,,,,,,,,,,,,AFNE14.jpg,AFNE13.jpg,AFSA03.jpg,AFSA10.jpg,AFNE14.jpg,FN,3,num_8,16,num_8,1.08343850914,,,2017_Apr_03_1242,60.0051002069,FEMA4ImagesEEG,001,100144,
AFNE01.JPG,AFNE01.JPG,AFNE01.JPG,AFNE01.JPG,AFNE01.JPG,AFNE01.JPG,3,9,39,4,,,,,,,,,,,,,,,,,,,,,,,AFSA16.jpg,AFNE14.jpg,AFSA02.jpg,AFNE03.jpg,AFSA16.jpg,FS,4,num_8,16,num_8,1.7000615499,,,2017_Apr_03_1242,60.0051002069,FEMA4ImagesEEG,001,100144,
AFNE01.JPG,AFNE01.JPG,AFNE01.JPG,AFNE01.JPG,AFNE01.JPG,AFNE01.JPG,4,0,40,5,,,,,,,,,,,,,,,,,,,,,,,AFSA14.jpg,AFNE14.jpg,AFSA10.jpg,AFNE20.jpg,AFNE20.jpg,FN,3,num_4,32,num_6,1.16675321292,,,2017_Apr_03_1242,60.0051002069,FEMA4ImagesEEG,001,100144,
AFNE01.JPG,AFNE01.JPG,AFNE01.JPG,AFNE01.JPG,AFNE01.JPG,AFNE01.JPG,4,1,41,8,,,,,,,,,,,,,,,,,,,,,,,AFNE06.jpg,AFSA06.jpg,AFNE04.jpg,AFSA16.jpg,AFNE04.jpg,FN,3,num_2,32,num_6,1.56657000654,,,2017_Apr_03_1242,60.0051002069,FEMA4ImagesEEG,001,100144,
AFNE01.JPG,AFNE01.JPG,AFNE01.JPG,AFNE01.JPG,AFNE01.JPG,AFNE01.JPG,4,2,42,7,,,,,,,,,,,,,,,,,,,,,,,AFNE03.jpg,AFNE12.jpg,AFSA08.jpg,AFSA04.jpg,AFNE03.jpg,FN,3,num_8,32,num_4,0.950137485052,,,2017_Apr_03_1242,60.0051002069,FEMA4ImagesEEG,001,100144,
AFNE01.JPG,AFNE01.JPG,AFNE01.JPG,AFNE01.JPG,AFNE01.JPG,AFNE01.JPG,4,3,43,4,,,,,,,,,,,,,,,,,,,,,,,AFNE05.jpg,AFSA06.jpg,AFSA08.jpg,AFNE14.jpg,AFNE05.jpg,FN,3,num_8,32,num_2,1.36676585022,,,2017_Apr_03_1242,60.0051002069,FEMA4ImagesEEG,001,100144,
AFNE01.JPG,AFNE01.JPG,AFNE01.JPG,AFNE01.JPG,AFNE01.JPG,AFNE01.JPG,4,4,44,3,,,,,,,,,,,,,,,,,,,,,,,AFNE01.jpg,AFNE05.jpg,AFSA18.jpg,AFSA07.jpg,AFSA07.jpg,FS,4,num_4,32,num_2,0.833397214068,,,2017_Apr_03_1242,60.0051002069,FEMA4ImagesEEG,001,100144,
AFNE01.JPG,AFNE01.JPG,AFNE01.JPG,AFNE01.JPG,AFNE01.JPG,AFNE01.JPG,4,5,45,1,,,,,,,,,,,,,,,,,,,,,,,AFNE18.jpg,AFSA15.jpg,AFNE08.jpg,AFSA04.jpg,AFSA04.jpg,FS,4,num_4,16,num_4,1.31675130455,,,2017_Apr_03_1242,60.0051002069,FEMA4ImagesEEG,001,100144,
AFNE01.JPG,AFNE01.JPG,AFNE01.JPG,AFNE01.JPG,AFNE01.JPG,AFNE01.JPG,4,6,46,0,,,,,,,,,,,,,,,,,,,,,,,AFNE09.jpg,AFSA10.jpg,AFNE06.jpg,AFSA17.jpg,AFNE06.jpg,FN,3,num_2,32,num_8,2.43335943064,,,2017_Apr_03_1242,60.0051002069,FEMA4ImagesEEG,001,100144,
AFNE01.JPG,AFNE01.JPG,AFNE01.JPG,AFNE01.JPG,AFNE01.JPG,AFNE01.JPG,4,7,47,6,,,,,,,,,,,,,,,,,,,,,,,AFSA02.jpg,AFSA14.jpg,AFNE20.jpg,AFNE11.jpg,AFSA14.jpg,FS,4,num_6,32,num_4,1.05014604866,,,2017_Apr_03_1242,60.0051002069,FEMA4ImagesEEG,001,100144,
AFNE01.JPG,AFNE01.JPG,AFNE01.JPG,AFNE01.JPG,AFNE01.JPG,AFNE01.JPG,4,8,48,2,,,,,,,,,,,,,,,,,,,,,,,AFNE16.jpg,AFSA20.jpg,AFNE06.jpg,AFSA03.jpg,AFNE16.jpg,FN,3,num_8,32,num_2,3.01659378922,,,2017_Apr_03_1242,60.0051002069,FEMA4ImagesEEG,001,100144,
AFNE01.JPG,AFNE01.JPG,AFNE01.JPG,AFNE01.JPG,AFNE01.JPG,AFNE01.JPG,4,9,49,9,,,,,,,,,,,,,,,,,,,,,,,AFNE15.jpg,AFSA18.jpg,AFSA15.jpg,AFNE20.jpg,AFSA18.jpg,FS,4,num_6,16,num_6,0.600125152618,,,2017_Apr_03_1242,60.0051002069,FEMA4ImagesEEG,001,100144,
AFNE01.JPG,AFNE01.JPG,AFNE01.JPG,AFNE01.JPG,AFNE01.JPG,AFNE01.JPG,5,0,50,4,,,,,,,,,,,,,,,,,,,,,,,AFNE17.jpg,AFSA15.jpg,AFSA14.jpg,AFNE04.jpg,AFSA15.jpg,FS,4,num_6,32,num_8,1.28344280715,,,2017_Apr_03_1242,60.0051002069,FEMA4ImagesEEG,001,100144,
AFNE01.JPG,AFNE01.JPG,AFNE01.JPG,AFNE01.JPG,AFNE01.JPG,AFNE01.JPG,5,1,51,2,,,,,,,,,,,,,,,,,,,,,,,AFNE01.jpg,AFSA06.jpg,AFSA20.jpg,AFNE12.jpg,AFNE01.jpg,FN,3,num_8,32,num_2,1.83338181861,,,2017_Apr_03_1242,60.0051002069,FEMA4ImagesEEG,001,100144,
AFNE01.JPG,AFNE01.JPG,AFNE01.JPG,AFNE01.JPG,AFNE01.JPG,AFNE01.JPG,5,2,52,3,,,,,,,,,,,,,,,,,,,,,,,AFSA18.jpg,AFNE16.jpg,AFSA05.jpg,AFNE20.jpg,AFNE16.jpg,FN,3,num_6,16,num_6,0.749981798232,,,2017_Apr_03_1242,60.0051002069,FEMA4ImagesEEG,001,100144,
AFNE01.JPG,AFNE01.JPG,AFNE01.JPG,AFNE01.JPG,AFNE01.JPG,AFNE01.JPG,5,3,53,7,,,,,,,,,,,,,,,,,,,,,,,AFSA03.jpg,AFNE20.jpg,AFNE01.jpg,AFSA09.jpg,AFSA03.jpg,FS,4,num_8,16,num_8,1.21675589122,,,2017_Apr_03_1242,60.0051002069,FEMA4ImagesEEG,001,100144,
AFNE01.JPG,AFNE01.JPG,AFNE01.JPG,AFNE01.JPG,AFNE01.JPG,AFNE01.JPG,5,4,54,6,,,,,,,,,,,,,,,,,,,,,,,AFSA14.jpg,AFSA03.jpg,AFNE03.jpg,AFNE12.jpg,AFNE12.jpg,FN,3,num_4,32,num_2,1.35017558909,,,2017_Apr_03_1242,60.0051002069,FEMA4ImagesEEG,001,100144,
AFNE01.JPG,AFNE01.JPG,AFNE01.JPG,AFNE01.JPG,AFNE01.JPG,AFNE01.JPG,5,5,55,1,,,,,,,,,,,,,,,,,,,,,,,AFSA02.jpg,AFNE09.jpg,AFNE02.jpg,AFSA17.jpg,AFNE09.jpg,FN,3,num_6,16,num_6,0.650265107397,,,2017_Apr_03_1242,60.0051002069,FEMA4ImagesEEG,001,100144,
AFNE01.JPG,AFNE01.JPG,AFNE01.JPG,AFNE01.JPG,AFNE01.JPG,AFNE01.JPG,5,6,56,8,,,,,,,,,,,,,,,,,,,,,,,AFNE05.jpg,AFSA05.jpg,AFSA03.jpg,AFNE03.jpg,AFSA03.jpg,FS,4,num_2,32,num_4,0.800078773638,,,2017_Apr_03_1242,60.0051002069,FEMA4ImagesEEG,001,100144,
AFNE01.JPG,AFNE01.JPG,AFNE01.JPG,AFNE01.JPG,AFNE01.JPG,AFNE01.JPG,5,7,57,0,,,,,,,,,,,,,,,,,,,,,,,AFNE06.jpg,AFSA18.jpg,AFSA01.jpg,AFNE02.jpg,AFNE06.jpg,FN,3,num_8,32,num_4,0.766523627331,,,2017_Apr_03_1242,60.0051002069,FEMA4ImagesEEG,001,100144,
AFNE01.JPG,AFNE01.JPG,AFNE01.JPG,AFNE01.JPG,AFNE01.JPG,AFNE01.JPG,5,8,58,9,,,,,,,,,,,,,,,,,,,,,,,AFNE12.jpg,AFNE11.jpg,AFSA11.jpg,AFSA18.jpg,AFSA11.jpg,FS,4,num_2,32,num_6,1.58343129256,,,2017_Apr_03_1242,60.0051002069,FEMA4ImagesEEG,001,100144,
AFNE01.JPG,AFNE01.JPG,AFNE01.JPG,AFNE01.JPG,AFNE01.JPG,AFNE01.JPG,5,9,59,5,,,,,,,,,,,,,,,,,,,,,,,AFSA10.jpg,AFNE04.jpg,AFSA14.jpg,AFNE02.jpg,AFNE04.jpg,FN,3,num_6,32,num_8,1.08346320619,,,2017_Apr_03_1242,60.0051002069,FEMA4ImagesEEG,001,100144,
,,,,,,,,,,,,,,,,,,,,,,,,,,,,,,,,,,,,,,,,,,,space,1.5336852062,2017_Apr_03_1242,60.0051002069,FEMA4ImagesEEG,001,100144,
AFNE01.JPG,AFNE01.JPG,AFNE01.JPG,AFNE01.JPG,AFNE01.JPG,AFNE01.JPG,,,,,0,0,0,4,,,,,,,,,,,,,,,,,,,AMNE16.jpg,AMSA05.jpg,AMNE07.jpg,AMSA19.jpg,AMSA05.jpg,MS,2,num_6,32,num_8,1.05012552161,,,2017_Apr_03_1242,60.0051002069,FEMA4ImagesEEG,001,100144,
AFNE01.JPG,AFNE01.JPG,AFNE01.JPG,AFNE01.JPG,AFNE01.JPG,AFNE01.JPG,,,,,0,1,1,9,,,,,,,,,,,,,,,,,,,AMNE18.jpg,AMNE10.jpg,AMSA13.jpg,AMSA16.jpg,AMNE18.jpg,MN,1,num_8,16,num_8,1.00012220186,,,2017_Apr_03_1242,60.0051002069,FEMA4ImagesEEG,001,100144,
AFNE01.JPG,AFNE01.JPG,AFNE01.JPG,AFNE01.JPG,AFNE01.JPG,AFNE01.JPG,,,,,0,2,2,2,,,,,,,,,,,,,,,,,,,AMSA04.jpg,AMNE07.jpg,AMSA16.jpg,AMNE15.jpg,AMNE15.jpg,MN,1,num_4,16,num_4,0.750123885693,,,2017_Apr_03_1242,60.0051002069,FEMA4ImagesEEG,001,100144,
AFNE01.JPG,AFNE01.JPG,AFNE01.JPG,AFNE01.JPG,AFNE01.JPG,AFNE01.JPG,,,,,0,3,3,8,,,,,,,,,,,,,,,,,,,AMSA07.jpg,AMNE14.jpg,AMNE08.jpg,AMSA15.jpg,AMSA07.jpg,MS,2,num_8,16,num_8,0.883438380901,,,2017_Apr_03_1242,60.0051002069,FEMA4ImagesEEG,001,100144,
AFNE01.JPG,AFNE01.JPG,AFNE01.JPG,AFNE01.JPG,AFNE01.JPG,AFNE01.JPG,,,,,0,4,4,6,,,,,,,,,,,,,,,,,,,AMNE07.jpg,AMSA13.jpg,AMSA10.jpg,AMNE10.jpg,AMNE10.jpg,MN,1,num_4,16,num_4,0.833478361135,,,2017_Apr_03_1242,60.0051002069,FEMA4ImagesEEG,001,100144,
AFNE01.JPG,AFNE01.JPG,AFNE01.JPG,AFNE01.JPG,AFNE01.JPG,AFNE01.JPG,,,,,0,5,5,1,,,,,,,,,,,,,,,,,,,AMNE05.jpg,AMSA13.jpg,AMNE07.jpg,AMSA09.jpg,AMNE07.jpg,MN,1,num_2,16,num_2,1.91668176814,,,2017_Apr_03_1242,60.0051002069,FEMA4ImagesEEG,001,100144,
AFNE01.JPG,AFNE01.JPG,AFNE01.JPG,AFNE01.JPG,AFNE01.JPG,AFNE01.JPG,,,,,0,6,6,3,,,,,,,,,,,,,,,,,,,AMNE01.jpg,AMSA20.jpg,AMNE05.jpg,AMSA03.jpg,AMNE05.jpg,MN,1,num_2,32,num_6,0.81677712407,,,2017_Apr_03_1242,60.0051002069,FEMA4ImagesEEG,001,100144,
AFNE01.JPG,AFNE01.JPG,AFNE01.JPG,AFNE01.JPG,AFNE01.JPG,AFNE01.JPG,,,,,0,7,7,5,,,,,,,,,,,,,,,,,,,AMSA15.jpg,AMNE03.jpg,AMSA13.jpg,AMNE08.jpg,AMNE03.jpg,MN,1,num_6,32,num_4,1.28340111114,,,2017_Apr_03_1242,60.0051002069,FEMA4ImagesEEG,001,100144,
AFNE01.JPG,AFNE01.JPG,AFNE01.JPG,AFNE01.JPG,AFNE01.JPG,AFNE01.JPG,,,,,0,8,8,0,,,,,,,,,,,,,,,,,,,AMSA04.jpg,AMSA05.jpg,AMNE06.jpg,AMNE17.jpg,AMSA04.jpg,MS,2,num_8,32,num_4,2.93328485894,,,2017_Apr_03_1242,60.0051002069,FEMA4ImagesEEG,001,100144,
AFNE01.JPG,AFNE01.JPG,AFNE01.JPG,AFNE01.JPG,AFNE01.JPG,AFNE01.JPG,,,,,0,9,9,7,,,,,,,,,,,,,,,,,,,AMSA07.jpg,AMSA06.jpg,AMNE08.jpg,AMNE06.jpg,AMNE06.jpg,MN,1,num_4,16,num_4,1.1333924348,,,2017_Apr_03_1242,60.0051002069,FEMA4ImagesEEG,001,100144,
AFNE01.JPG,AFNE01.JPG,AFNE01.JPG,AFNE01.JPG,AFNE01.JPG,AFNE01.JPG,,,,,1,0,10,7,,,,,,,,,,,,,,,,,,,AMSA03.jpg,AMSA14.jpg,AMNE01.jpg,AMNE05.jpg,AMNE05.jpg,MN,1,num_4,16,num_4,1.58362566074,,,2017_Apr_03_1242,60.0051002069,FEMA4ImagesEEG,001,100144,
AFNE01.JPG,AFNE01.JPG,AFNE01.JPG,AFNE01.JPG,AFNE01.JPG,AFNE01.JPG,,,,,1,1,11,5,,,,,,,,,,,,,,,,,,,AMSA07.jpg,AMNE06.jpg,AMNE20.jpg,AMSA03.jpg,AMNE20.jpg,MN,1,num_2,32,num_6,2.18335822807,,,2017_Apr_03_1242,60.0051002069,FEMA4ImagesEEG,001,100144,
AFNE01.JPG,AFNE01.JPG,AFNE01.JPG,AFNE01.JPG,AFNE01.JPG,AFNE01.JPG,,,,,1,2,12,8,,,,,,,,,,,,,,,,,,,AMNE15.jpg,AMSA14.jpg,AMNE07.jpg,AMSA09.jpg,AMNE07.jpg,MN,1,num_2,16,num_2,1.95002041501,,,2017_Apr_03_1242,60.0051002069,FEMA4ImagesEEG,001,100144,
AFNE01.JPG,AFNE01.JPG,AFNE01.JPG,AFNE01.JPG,AFNE01.JPG,AFNE01.JPG,,,,,1,3,13,1,,,,,,,,,,,,,,,,,,,AMSA20.jpg,AMSA10.jpg,AMNE02.jpg,AMNE14.jpg,AMNE02.jpg,MN,1,num_2,32,num_6,1.53339301236,,,2017_Apr_03_1242,60.0051002069,FEMA4ImagesEEG,001,100144,
AFNE01.JPG,AFNE01.JPG,AFNE01.JPG,AFNE01.JPG,AFNE01.JPG,AFNE01.JPG,,,,,1,4,14,0,,,,,,,,,,,,,,,,,,,AMSA20.jpg,AMSA01.jpg,AMNE09.jpg,AMNE18.jpg,AMNE09.jpg,MN,1,num_2,32,num_8,1.10006918362,,,2017_Apr_03_1242,60.0051002069,FEMA4ImagesEEG,001,100144,
AFNE01.JPG,AFNE01.JPG,AFNE01.JPG,AFNE01.JPG,AFNE01.JPG,AFNE01.JPG,,,,,1,5,15,3,,,,,,,,,,,,,,,,,,,AMSA15.jpg,AMNE17.jpg,AMSA06.jpg,AMNE16.jpg,AMNE17.jpg,MN,1,num_6,32,num_4,1.01677532773,,,2017_Apr_03_1242,60.0051002069,FEMA4ImagesEEG,001,100144,
AFNE01.JPG,AFNE01.JPG,AFNE01.JPG,AFNE01.JPG,AFNE01.JPG,AFNE01.JPG,,,,,1,6,16,6,,,,,,,,,,,,,,,,,,,AMNE17.jpg,AMSA10.jpg,AMNE15.jpg,AMSA19.jpg,AMNE17.jpg,MN,1,num_8,32,num_6,1.63337206817,,,2017_Apr_03_1242,60.0051002069,FEMA4ImagesEEG,001,100144,
AFNE01.JPG,AFNE01.JPG,AFNE01.JPG,AFNE01.JPG,AFNE01.JPG,AFNE01.JPG,,,,,1,7,17,9,,,,,,,,,,,,,,,,,,,AMSA18.jpg,AMSA05.jpg,AMNE13.jpg,AMNE03.jpg,AMSA18.jpg,MS,2,num_8,16,num_8,0.566807353636,,,2017_Apr_03_1242,60.0051002069,FEMA4ImagesEEG,001,100144,
AFNE01.JPG,AFNE01.JPG,AFNE01.JPG,AFNE01.JPG,AFNE01.JPG,AFNE01.JPG,,,,,1,8,18,4,,,,,,,,,,,,,,,,,,,AMSA01.jpg,AMSA13.jpg,AMNE08.jpg,AMNE16.jpg,AMSA13.jpg,MS,2,num_6,16,num_6,1.18343745079,,,2017_Apr_03_1242,60.0051002069,FEMA4ImagesEEG,001,100144,
AFNE01.JPG,AFNE01.JPG,AFNE01.JPG,AFNE01.JPG,AFNE01.JPG,AFNE01.JPG,,,,,1,9,19,2,,,,,,,,,,,,,,,,,,,AMSA13.jpg,AMNE14.jpg,AMNE05.jpg,AMSA16.jpg,AMNE05.jpg,MN,1,num_2,16,num_2,1.2000735777,,,2017_Apr_03_1242,60.0051002069,FEMA4ImagesEEG,001,100144,
AFNE01.JPG,AFNE01.JPG,AFNE01.JPG,AFNE01.JPG,AFNE01.JPG,AFNE01.JPG,,,,,2,0,20,4,,,,,,,,,,,,,,,,,,,AMNE13.jpg,AMSA19.jpg,AMSA20.jpg,AMNE18.jpg,AMNE13.jpg,MN,1,num_8,32,num_4,0.58331839228,,,2017_Apr_03_1242,60.0051002069,FEMA4ImagesEEG,001,100144,
AFNE01.JPG,AFNE01.JPG,AFNE01.JPG,AFNE01.JPG,AFNE01.JPG,AFNE01.JPG,,,,,2,1,21,2,,,,,,,,,,,,,,,,,,,AMNE02.jpg,AMSA09.jpg,AMNE20.jpg,AMSA01.jpg,AMNE20.jpg,MN,1,num_2,32,num_6,0.833463927731,,,2017_Apr_03_1242,60.0051002069,FEMA4ImagesEEG,001,100144,
AFNE01.JPG,AFNE01.JPG,AFNE01.JPG,AFNE01.JPG,AFNE01.JPG,AFNE01.JPG,,,,,2,2,22,3,,,,,,,,,,,,,,,,,,,AMNE16.jpg,AMSA08.jpg,AMNE13.jpg,AMSA20.jpg,AMNE16.jpg,MN,1,num_8,16,num_8,1.06680591055,,,2017_Apr_03_1242,60.0051002069,FEMA4ImagesEEG,001,100144,
AFNE01.JPG,AFNE01.JPG,AFNE01.JPG,AFNE01.JPG,AFNE01.JPG,AFNE01.JPG,,,,,2,3,23,6,,,,,,,,,,,,,,,,,,,AMSA12.jpg,AMNE06.jpg,AMSA04.jpg,AMNE09.jpg,AMSA04.jpg,MS,2,num_2,32,num_8,1.05008446681,,,2017_Apr_03_1242,60.0051002069,FEMA4ImagesEEG,001,100144,
AFNE01.JPG,AFNE01.JPG,AFNE01.JPG,AFNE01.JPG,AFNE01.JPG,AFNE01.JPG,,,,,2,4,24,8,,,,,,,,,,,,,,,,,,,AMSA12.jpg,AMNE11.jpg,AMNE18.jpg,AMSA10.jpg,AMNE11.jpg,MN,1,num_6,32,num_2,1.68337057671,,,2017_Apr_03_1242,60.0051002069,FEMA4ImagesEEG,001,100144,
AFNE01.JPG,AFNE01.JPG,AFNE01.JPG,AFNE01.JPG,AFNE01.JPG,AFNE01.JPG,,,,,2,5,25,0,,,,,,,,,,,,,,,,,,,AMNE09.jpg,AMNE19.jpg,AMSA08.jpg,AMSA02.jpg,AMNE09.jpg,MN,1,num_8,16,num_8,1.11673610145,,,2017_Apr_03_1242,60.0051002069,FEMA4ImagesEEG,001,100144,
AFNE01.JPG,AFNE01.JPG,AFNE01.JPG,AFNE01.JPG,AFNE01.JPG,AFNE01.JPG,,,,,2,6,26,7,,,,,,,,,,,,,,,,,,,AMNE08.jpg,AMSA10.jpg,AMSA11.jpg,AMNE07.jpg,AMNE08.jpg,MN,1,num_8,16,num_8,1.4999209377,,,2017_Apr_03_1242,60.0051002069,FEMA4ImagesEEG,001,100144,
AFNE01.JPG,AFNE01.JPG,AFNE01.JPG,AFNE01.JPG,AFNE01.JPG,AFNE01.JPG,,,,,2,7,27,1,,,,,,,,,,,,,,,,,,,AMNE08.jpg,AMSA10.jpg,AMSA08.jpg,AMNE10.jpg,AMSA08.jpg,MS,2,num_2,32,num_6,2.05001839437,,,2017_Apr_03_1242,60.0051002069,FEMA4ImagesEEG,001,100144,
AFNE01.JPG,AFNE01.JPG,AFNE01.JPG,AFNE01.JPG,AFNE01.JPG,AFNE01.JPG,,,,,2,8,28,9,,,,,,,,,,,,,,,,,,,AMSA10.jpg,AMNE07.jpg,AMNE08.jpg,AMSA01.jpg,AMNE08.jpg,MN,1,num_2,32,num_6,0.900079639629,,,2017_Apr_03_1242,60.0051002069,FEMA4ImagesEEG,001,100144,
AFNE01.JPG,AFNE01.JPG,AFNE01.JPG,AFNE01.JPG,AFNE01.JPG,AFNE01.JPG,,,,,2,9,29,5,,,,,,,,,,,,,,,,,,,AMSA19.jpg,AMNE01.jpg,AMSA12.jpg,AMNE09.jpg,AMSA19.jpg,MS,2,num_8,32,num_2,1.11673225253,,,2017_Apr_03_1242,60.0051002069,FEMA4ImagesEEG,001,100144,
AFNE01.JPG,AFNE01.JPG,AFNE01.JPG,AFNE01.JPG,AFNE01.JPG,AFNE01.JPG,,,,,3,0,30,7,,,,,,,,,,,,,,,,,,,AMNE04.jpg,AMSA14.jpg,AMNE18.jpg,AMSA09.jpg,AMNE04.jpg,MN,1,num_8,32,num_6,0.700111264596,,,2017_Apr_03_1242,60.0051002069,FEMA4ImagesEEG,001,100144,
AFNE01.JPG,AFNE01.JPG,AFNE01.JPG,AFNE01.JPG,AFNE01.JPG,AFNE01.JPG,,,,,3,1,31,8,,,,,,,,,,,,,,,,,,,AMSA19.jpg,AMNE18.jpg,AMNE08.jpg,AMSA04.jpg,AMSA19.jpg,MS,2,num_8,16,num_8,1.68372274889,,,2017_Apr_03_1242,60.0051002069,FEMA4ImagesEEG,001,100144,
AFNE01.JPG,AFNE01.JPG,AFNE01.JPG,AFNE01.JPG,AFNE01.JPG,AFNE01.JPG,,,,,3,2,32,9,,,,,,,,,,,,,,,,,,,AMNE02.jpg,AMSA14.jpg,AMNE05.jpg,AMSA03.jpg,AMNE02.jpg,MN,1,num_8,32,num_2,1.16675962787,,,2017_Apr_03_1242,60.0051002069,FEMA4ImagesEEG,001,100144,
AFNE01.JPG,AFNE01.JPG,AFNE01.JPG,AFNE01.JPG,AFNE01.JPG,AFNE01.JPG,,,,,3,3,33,2,,,,,,,,,,,,,,,,,,,AMNE14.jpg,AMNE01.jpg,AMSA05.jpg,AMSA14.jpg,AMSA05.jpg,MS,2,num_2,16,num_2,0.866797122173,,,2017_Apr_03_1242,60.0051002069,FEMA4ImagesEEG,001,100144,
AFNE01.JPG,AFNE01.JPG,AFNE01.JPG,AFNE01.JPG,AFNE01.JPG,AFNE01.JPG,,,,,3,4,34,0,,,,,,,,,,,,,,,,,,,AMSA20.jpg,AMNE13.jpg,AMNE09.jpg,AMSA14.jpg,AMSA14.jpg,MS,2,num_4,32,num_6,1.70003140043,,,2017_Apr_03_1242,60.0051002069,FEMA4ImagesEEG,001,100144,
AFNE01.JPG,AFNE01.JPG,AFNE01.JPG,AFNE01.JPG,AFNE01.JPG,AFNE01.JPG,,,,,3,5,35,4,,,,,,,,,,,,,,,,,,,AMNE07.jpg,AMSA12.jpg,AMSA02.jpg,AMNE18.jpg,AMNE07.jpg,MN,1,num_8,32,num_4,1.43341427715,,,2017_Apr_03_1242,60.0051002069,FEMA4ImagesEEG,001,100144,
AFNE01.JPG,AFNE01.JPG,AFNE01.JPG,AFNE01.JPG,AFNE01.JPG,AFNE01.JPG,,,,,3,6,36,3,,,,,,,,,,,,,,,,,,,AMNE15.jpg,AMNE03.jpg,AMSA04.jpg,AMSA06.jpg,AMNE03.jpg,MN,1,num_6,32,num_8,1.10010478552,,,2017_Apr_03_1242,60.0051002069,FEMA4ImagesEEG,001,100144,
AFNE01.JPG,AFNE01.JPG,AFNE01.JPG,AFNE01.JPG,AFNE01.JPG,AFNE01.JPG,,,,,3,7,37,1,,,,,,,,,,,,,,,,,,,AMNE09.jpg,AMSA05.jpg,AMSA02.jpg,AMNE18.jpg,AMNE18.jpg,MN,1,num_4,16,num_4,1.18341115024,,,2017_Apr_03_1242,60.0051002069,FEMA4ImagesEEG,001,100144,
AFNE01.JPG,AFNE01.JPG,AFNE01.JPG,AFNE01.JPG,AFNE01.JPG,AFNE01.JPG,,,,,3,8,38,6,,,,,,,,,,,,,,,,,,,AMNE03.jpg,AMSA15.jpg,AMNE18.jpg,AMSA20.jpg,AMNE18.jpg,MN,1,num_2,16,num_2,2.61634111055,,,2017_Apr_03_1242,60.0051002069,FEMA4ImagesEEG,001,100144,
AFNE01.JPG,AFNE01.JPG,AFNE01.JPG,AFNE01.JPG,AFNE01.JPG,AFNE01.JPG,,,,,3,9,39,5,,,,,,,,,,,,,,,,,,,AMSA16.jpg,AMSA02.jpg,AMNE20.jpg,AMNE07.jpg,AMSA16.jpg,MS,2,num_8,16,num_8,1.45008857222,,,2017_Apr_03_1242,60.0051002069,FEMA4ImagesEEG,001,100144,
AFNE01.JPG,AFNE01.JPG,AFNE01.JPG,AFNE01.JPG,AFNE01.JPG,AFNE01.JPG,,,,,4,0,40,8,,,,,,,,,,,,,,,,,,,AMSA12.jpg,AMNE07.jpg,AMSA06.jpg,AMNE02.jpg,AMSA06.jpg,MS,2,num_2,32,num_8,1.18342558341,,,2017_Apr_03_1242,60.0051002069,FEMA4ImagesEEG,001,100144,
AFNE01.JPG,AFNE01.JPG,AFNE01.JPG,AFNE01.JPG,AFNE01.JPG,AFNE01.JPG,,,,,4,1,41,6,,,,,,,,,,,,,,,,,,,AMNE03.jpg,AMSA13.jpg,AMSA15.jpg,AMNE09.jpg,AMNE03.jpg,MN,1,num_8,32,num_4,1.33340956247,,,2017_Apr_03_1242,60.0051002069,FEMA4ImagesEEG,001,100144,
AFNE01.JPG,AFNE01.JPG,AFNE01.JPG,AFNE01.JPG,AFNE01.JPG,AFNE01.JPG,,,,,4,2,42,7,,,,,,,,,,,,,,,,,,,AMNE18.jpg,AMSA12.jpg,AMNE01.jpg,AMSA05.jpg,AMSA12.jpg,MS,2,num_6,32,num_8,1.91659837589,,,2017_Apr_03_1242,60.0051002069,FEMA4ImagesEEG,001,100144,
AFNE01.JPG,AFNE01.JPG,AFNE01.JPG,AFNE01.JPG,AFNE01.JPG,AFNE01.JPG,,,,,4,3,43,0,,,,,,,,,,,,,,,,,,,AMNE11.jpg,AMSA11.jpg,AMSA06.jpg,AMNE17.jpg,AMSA06.jpg,MS,2,num_2,32,num_8,1.38343822048,,,2017_Apr_03_1242,60.0051002069,FEMA4ImagesEEG,001,100144,
AFNE01.JPG,AFNE01.JPG,AFNE01.JPG,AFNE01.JPG,AFNE01.JPG,AFNE01.JPG,,,,,4,4,44,9,,,,,,,,,,,,,,,,,,,AMSA12.jpg,AMNE07.jpg,AMNE20.jpg,AMSA11.jpg,AMSA11.jpg,MS,2,num_4,32,num_2,1.25010640547,,,2017_Apr_03_1242,60.0051002069,FEMA4ImagesEEG,001,100144,
AFNE01.JPG,AFNE01.JPG,AFNE01.JPG,AFNE01.JPG,AFNE01.JPG,AFNE01.JPG,,,,,4,5,45,3,,,,,,,,,,,,,,,,,,,AMSA17.jpg,AMSA12.jpg,AMNE06.jpg,AMNE18.jpg,AMSA17.jpg,MS,2,num_8,16,num_8,0.950224405387,,,2017_Apr_03_1242,60.0051002069,FEMA4ImagesEEG,001,100144,
AFNE01.JPG,AFNE01.JPG,AFNE01.JPG,AFNE01.JPG,AFNE01.JPG,AFNE01.JPG,,,,,4,6,46,2,,,,,,,,,,,,,,,,,,,AMSA14.jpg,AMNE05.jpg,AMNE02.jpg,AMSA18.jpg,AMNE05.jpg,MN,1,num_6,16,num_6,0.933467359748,,,2017_Apr_03_1242,60.0051002069,FEMA4ImagesEEG,001,100144,
AFNE01.JPG,AFNE01.JPG,AFNE01.JPG,AFNE01.JPG,AFNE01.JPG,AFNE01.JPG,,,,,4,7,47,1,,,,,,,,,,,,,,,,,,,AMSA03.jpg,AMNE08.jpg,AMNE06.jpg,AMSA19.jpg,AMSA03.jpg,MS,2,num_8,32,num_4,1.21671227063,,,2017_Apr_03_1242,60.0051002069,FEMA4ImagesEEG,001,100144,
AFNE01.JPG,AFNE01.JPG,AFNE01.JPG,AFNE01.JPG,AFNE01.JPG,AFNE01.JPG,,,,,4,8,48,4,,,,,,,,,,,,,,,,,,,AMSA13.jpg,AMNE04.jpg,AMNE02.jpg,AMSA01.jpg,AMSA13.jpg,MS,2,num_8,32,num_6,0.733445100253,,,2017_Apr_03_1242,60.0051002069,FEMA4ImagesEEG,001,100144,
AFNE01.JPG,AFNE01.JPG,AFNE01.JPG,AFNE01.JPG,AFNE01.JPG,AFNE01.JPG,,,,,4,9,49,5,,,,,,,,,,,,,,,,,,,AMNE20.jpg,AMSA18.jpg,AMSA17.jpg,AMNE02.jpg,AMSA17.jpg,MS,2,num_2,32,num_8,1.11675342126,,,2017_Apr_03_1242,60.0051002069,FEMA4ImagesEEG,001,100144,
AFNE01.JPG,AFNE01.JPG,AFNE01.JPG,AFNE01.JPG,AFNE01.JPG,AFNE01.JPG,,,,,5,0,50,7,,,,,,,,,,,,,,,,,,,AMNE20.jpg,AMNE14.jpg,AMSA14.jpg,AMSA02.jpg,AMSA14.jpg,MS,2,num_2,16,num_2,1.83341774135,,,2017_Apr_03_1242,60.0051002069,FEMA4ImagesEEG,001,100144,
AFNE01.JPG,AFNE01.JPG,AFNE01.JPG,AFNE01.JPG,AFNE01.JPG,AFNE01.JPG,,,,,5,1,51,2,,,,,,,,,,,,,,,,,,,AMSA17.jpg,AMNE17.jpg,AMSA09.jpg,AMNE12.jpg,AMSA09.jpg,MS,2,num_2,32,num_4,1.45002249978,,,2017_Apr_03_1242,60.0051002069,FEMA4ImagesEEG,001,100144,
AFNE01.JPG,AFNE01.JPG,AFNE01.JPG,AFNE01.JPG,AFNE01.JPG,AFNE01.JPG,,,,,5,2,52,4,,,,,,,,,,,,,,,,,,,AMSA05.jpg,AMNE16.jpg,AMNE17.jpg,AMSA04.jpg,AMNE17.jpg,MN,1,num_2,32,num_6,1.66668890463,,,2017_Apr_03_1242,60.0051002069,FEMA4ImagesEEG,001,100144,
AFNE01.JPG,AFNE01.JPG,AFNE01.JPG,AFNE01.JPG,AFNE01.JPG,AFNE01.JPG,,,,,5,3,53,0,,,,,,,,,,,,,,,,,,,AMNE11.jpg,AMSA06.jpg,AMNE12.jpg,AMSA12.jpg,AMSA06.jpg,MS,2,num_6,16,num_6,0.51683161757,,,2017_Apr_03_1242,60.0051002069,FEMA4ImagesEEG,001,100144,
AFNE01.JPG,AFNE01.JPG,AFNE01.JPG,AFNE01.JPG,AFNE01.JPG,AFNE01.JPG,,,,,5,4,54,3,,,,,,,,,,,,,,,,,,,AMSA09.jpg,AMNE06.jpg,AMNE03.jpg,AMSA04.jpg,AMNE03.jpg,MN,1,num_2,16,num_2,1.48343267175,,,2017_Apr_03_1242,60.0051002069,FEMA4ImagesEEG,001,100144,
AFNE01.JPG,AFNE01.JPG,AFNE01.JPG,AFNE01.JPG,AFNE01.JPG,AFNE01.JPG,,,,,5,5,55,5,,,,,,,,,,,,,,,,,,,AMSA20.jpg,AMNE20.jpg,AMSA19.jpg,AMNE08.jpg,AMSA19.jpg,MS,2,num_2,32,num_6,1.05006939196,,,2017_Apr_03_1242,60.0051002069,FEMA4ImagesEEG,001,100144,
AFNE01.JPG,AFNE01.JPG,AFNE01.JPG,AFNE01.JPG,AFNE01.JPG,AFNE01.JPG,,,,,5,6,56,6,,,,,,,,,,,,,,,,,,,AMSA14.jpg,AMNE02.jpg,AMSA04.jpg,AMNE03.jpg,AMNE03.jpg,MN,1,num_4,16,num_4,0.633467327571,,,2017_Apr_03_1242,60.0051002069,FEMA4ImagesEEG,001,100144,
AFNE01.JPG,AFNE01.JPG,AFNE01.JPG,AFNE01.JPG,AFNE01.JPG,AFNE01.JPG,,,,,5,7,57,9,,,,,,,,,,,,,,,,,,,AMSA20.jpg,AMNE16.jpg,AMNE12.jpg,AMSA13.jpg,AMNE16.jpg,MN,1,num_6,32,num_4,1.15012510447,,,2017_Apr_03_1242,60.0051002069,FEMA4ImagesEEG,001,100144,
AFNE01.JPG,AFNE01.JPG,AFNE01.JPG,AFNE01.JPG,AFNE01.JPG,AFNE01.JPG,,,,,5,8,58,1,,,,,,,,,,,,,,,,,,,AMNE16.jpg,AMSA09.jpg,AMSA05.jpg,AMNE18.jpg,AMSA05.jpg,MS,2,num_2,32,num_6,1.80003547389,,,2017_Apr_03_1242,60.0051002069,FEMA4ImagesEEG,001,100144,
AFNE01.JPG,AFNE01.JPG,AFNE01.JPG,AFNE01.JPG,AFNE01.JPG,AFNE01.JPG,,,,,5,9,59,8,,,,,,,,,,,,,,,,,,,AMSA02.jpg,AMNE09.jpg,AMSA07.jpg,AMNE16.jpg,AMNE09.jpg,MN,1,num_6,16,num_6,1.08321623667,,,2017_Apr_03_1242,60.0051002069,FEMA4ImagesEEG,001,100144,
,,,,,,,,,,,,,,,,,,,,,,,,,,,,,,,,,,,,,,,,,,,space,10.4160645045,2017_Apr_03_1242,60.0051002069,FEMA4ImagesEEG,001,100144,
AFNE01.JPG,AFNE01.JPG,AFNE01.JPG,AFNE01.JPG,AFNE01.JPG,AFNE01.JPG,,,,,,,,,0,0,0,9,,,,,,,,,,,,,,,AFNE06.jpg,AFSA05.jpg,AFSA14.jpg,AFNE14.jpg,AFNE06.jpg,FN,3,num_8,32,num_4,0.833455267828,,,2017_Apr_03_1242,60.0051002069,FEMA4ImagesEEG,001,100144,
AFNE01.JPG,AFNE01.JPG,AFNE01.JPG,AFNE01.JPG,AFNE01.JPG,AFNE01.JPG,,,,,,,,,0,1,1,1,,,,,,,,,,,,,,,AFSA13.jpg,AFSA08.jpg,AFNE03.jpg,AFNE04.jpg,AFNE03.jpg,FN,3,num_2,16,num_2,1.35006172652,,,2017_Apr_03_1242,60.0051002069,FEMA4ImagesEEG,001,100144,
AFNE01.JPG,AFNE01.JPG,AFNE01.JPG,AFNE01.JPG,AFNE01.JPG,AFNE01.JPG,,,,,,,,,0,2,2,2,,,,,,,,,,,,,,,AFNE04.jpg,AFSA19.jpg,AFNE02.jpg,AFSA05.jpg,AFNE02.jpg,FN,3,num_2,16,num_2,1.46672437852,,,2017_Apr_03_1242,60.0051002069,FEMA4ImagesEEG,001,100144,
AFNE01.JPG,AFNE01.JPG,AFNE01.JPG,AFNE01.JPG,AFNE01.JPG,AFNE01.JPG,,,,,,,,,0,3,3,6,,,,,,,,,,,,,,,AFSA07.jpg,AFNE15.jpg,AFSA12.jpg,AFNE09.jpg,AFNE15.jpg,FN,3,num_6,32,num_4,1.38343982422,,,2017_Apr_03_1242,60.0051002069,FEMA4ImagesEEG,001,100144,
AFNE01.JPG,AFNE01.JPG,AFNE01.JPG,AFNE01.JPG,AFNE01.JPG,AFNE01.JPG,,,,,,,,,0,4,4,3,,,,,,,,,,,,,,,AFNE12.jpg,AFNE09.jpg,AFSA19.jpg,AFSA18.jpg,AFNE09.jpg,FN,3,num_6,16,num_6,1.96659239405,,,2017_Apr_03_1242,60.0051002069,FEMA4ImagesEEG,001,100144,
AFNE01.JPG,AFNE01.JPG,AFNE01.JPG,AFNE01.JPG,AFNE01.JPG,AFNE01.JPG,,,,,,,,,0,5,5,7,,,,,,,,,,,,,,,AFSA05.jpg,AFNE18.jpg,AFSA11.jpg,AFNE03.jpg,AFNE18.jpg,FN,3,num_6,16,num_6,0.900129675167,,,2017_Apr_03_1242,60.0051002069,FEMA4ImagesEEG,001,100144,
AFNE01.JPG,AFNE01.JPG,AFNE01.JPG,AFNE01.JPG,AFNE01.JPG,AFNE01.JPG,,,,,,,,,0,6,6,0,,,,,,,,,,,,,,,AFNE18.jpg,AFSA11.jpg,AFSA18.jpg,AFNE13.jpg,AFNE13.jpg,FN,3,num_4,16,num_4,1.40010417625,,,2017_Apr_03_1242,60.0051002069,FEMA4ImagesEEG,001,100144,
AFNE01.JPG,AFNE01.JPG,AFNE01.JPG,AFNE01.JPG,AFNE01.JPG,AFNE01.JPG,,,,,,,,,0,7,7,5,,,,,,,,,,,,,,,AFNE19.jpg,AFSA01.jpg,AFSA03.jpg,AFNE04.jpg,AFNE19.jpg,FN,3,num_8,32,num_4,1.2001248959,,,2017_Apr_03_1242,60.0051002069,FEMA4ImagesEEG,001,100144,
AFNE01.JPG,AFNE01.JPG,AFNE01.JPG,AFNE01.JPG,AFNE01.JPG,AFNE01.JPG,,,,,,,,,0,8,8,8,,,,,,,,,,,,,,,AFNE04.jpg,AFNE19.jpg,AFSA16.jpg,AFSA10.jpg,AFSA16.jpg,FS,4,num_2,32,num_4,1.93342085253,,,2017_Apr_03_1242,60.0051002069,FEMA4ImagesEEG,001,100144,
AFNE01.JPG,AFNE01.JPG,AFNE01.JPG,AFNE01.JPG,AFNE01.JPG,AFNE01.JPG,,,,,,,,,0,9,9,4,,,,,,,,,,,,,,,AFNE09.jpg,AFSA14.jpg,AFNE18.jpg,AFSA10.jpg,AFSA14.jpg,FS,4,num_6,32,num_4,1.20007197419,,,2017_Apr_03_1242,60.0051002069,FEMA4ImagesEEG,001,100144,
AFNE01.JPG,AFNE01.JPG,AFNE01.JPG,AFNE01.JPG,AFNE01.JPG,AFNE01.JPG,,,,,,,,,1,0,10,3,,,,,,,,,,,,,,,AFSA05.jpg,AFSA18.jpg,AFNE05.jpg,AFNE18.jpg,AFSA05.jpg,FS,4,num_8,16,num_8,0.650471984642,,,2017_Apr_03_1242,60.0051002069,FEMA4ImagesEEG,001,100144,
AFNE01.JPG,AFNE01.JPG,AFNE01.JPG,AFNE01.JPG,AFNE01.JPG,AFNE01.JPG,,,,,,,,,1,1,11,9,,,,,,,,,,,,,,,AFNE20.jpg,AFSA12.jpg,AFSA19.jpg,AFNE03.jpg,AFNE20.jpg,FN,3,num_8,16,num_8,1.30009689531,,,2017_Apr_03_1242,60.0051002069,FEMA4ImagesEEG,001,100144,
AFNE01.JPG,AFNE01.JPG,AFNE01.JPG,AFNE01.JPG,AFNE01.JPG,AFNE01.JPG,,,,,,,,,1,2,12,4,,,,,,,,,,,,,,,AFSA17.jpg,AFSA03.jpg,AFNE10.jpg,AFNE03.jpg,AFSA17.jpg,FS,4,num_8,32,num_6,1.49976473744,,,2017_Apr_03_1242,60.0051002069,FEMA4ImagesEEG,001,100144,
AFNE01.JPG,AFNE01.JPG,AFNE01.JPG,AFNE01.JPG,AFNE01.JPG,AFNE01.JPG,,,,,,,,,1,3,13,8,,,,,,,,,,,,,,,AFNE10.jpg,AFNE02.jpg,AFSA12.jpg,AFSA02.jpg,AFNE10.jpg,FN,3,num_8,16,num_8,0.966772970511,,,2017_Apr_03_1242,60.0051002069,FEMA4ImagesEEG,001,100144,
AFNE01.JPG,AFNE01.JPG,AFNE01.JPG,AFNE01.JPG,AFNE01.JPG,AFNE01.JPG,,,,,,,,,1,4,14,6,,,,,,,,,,,,,,,AFSA10.jpg,AFNE17.jpg,AFNE20.jpg,AFSA15.jpg,AFNE20.jpg,FN,3,num_2,32,num_8,1.21674177865,,,2017_Apr_03_1242,60.0051002069,FEMA4ImagesEEG,001,100144,
AFNE01.JPG,AFNE01.JPG,AFNE01.JPG,AFNE01.JPG,AFNE01.JPG,AFNE01.JPG,,,,,,,,,1,5,15,0,,,,,,,,,,,,,,,AFNE01.jpg,AFNE07.jpg,AFSA12.jpg,AFSA16.jpg,AFSA16.jpg,FS,4,num_4,16,num_4,0.516794411931,,,2017_Apr_03_1242,60.0051002069,FEMA4ImagesEEG,001,100144,
AFNE01.JPG,AFNE01.JPG,AFNE01.JPG,AFNE01.JPG,AFNE01.JPG,AFNE01.JPG,,,,,,,,,1,6,16,7,,,,,,,,,,,,,,,AFSA04.jpg,AFNE13.jpg,AFNE01.jpg,AFSA13.jpg,AFNE01.jpg,FN,3,num_2,16,num_2,3.01659795875,,,2017_Apr_03_1242,60.0051002069,FEMA4ImagesEEG,001,100144,
AFNE01.JPG,AFNE01.JPG,AFNE01.JPG,AFNE01.JPG,AFNE01.JPG,AFNE01.JPG,,,,,,,,,1,7,17,5,,,,,,,,,,,,,,,AFNE10.jpg,AFSA01.jpg,AFSA11.jpg,AFNE13.jpg,AFNE10.jpg,FN,3,num_8,32,num_6,1.39992327895,,,2017_Apr_03_1242,60.0051002069,FEMA4ImagesEEG,001,100144,
AFNE01.JPG,AFNE01.JPG,AFNE01.JPG,AFNE01.JPG,AFNE01.JPG,AFNE01.JPG,,,,,,,,,1,8,18,1,,,,,,,,,,,,,,,AFNE12.jpg,AFNE19.jpg,AFSA11.jpg,AFSA08.jpg,AFNE12.jpg,FN,3,num_8,16,num_8,0.916786329355,,,2017_Apr_03_1242,60.0051002069,FEMA4ImagesEEG,001,100144,
AFNE01.JPG,AFNE01.JPG,AFNE01.JPG,AFNE01.JPG,AFNE01.JPG,AFNE01.JPG,,,,,,,,,1,9,19,2,,,,,,,,,,,,,,,AFSA20.jpg,AFSA19.jpg,AFNE15.jpg,AFNE05.jpg,AFNE15.jpg,FN,3,num_2,16,num_2,1.01676570578,,,2017_Apr_03_1242,60.0051002069,FEMA4ImagesEEG,001,100144,
AFNE01.JPG,AFNE01.JPG,AFNE01.JPG,AFNE01.JPG,AFNE01.JPG,AFNE01.JPG,,,,,,,,,2,0,20,6,,,,,,,,,,,,,,,AFNE20.jpg,AFSA07.jpg,AFNE09.jpg,AFSA01.jpg,AFSA07.jpg,FS,4,num_6,32,num_4,1.00010584388,,,2017_Apr_03_1242,60.0051002069,FEMA4ImagesEEG,001,100144,
AFNE01.JPG,AFNE01.JPG,AFNE01.JPG,AFNE01.JPG,AFNE01.JPG,AFNE01.JPG,,,,,,,,,2,1,21,1,,,,,,,,,,,,,,,AFNE12.jpg,AFSA03.jpg,AFNE19.jpg,AFSA12.jpg,AFNE12.jpg,FN,3,num_8,32,num_4,0.783473437652,,,2017_Apr_03_1242,60.0051002069,FEMA4ImagesEEG,001,100144,
AFNE01.JPG,AFNE01.JPG,AFNE01.JPG,AFNE01.JPG,AFNE01.JPG,AFNE01.JPG,,,,,,,,,2,2,22,5,,,,,,,,,,,,,,,AFSA08.jpg,AFNE11.jpg,AFNE04.jpg,AFSA15.jpg,AFNE04.jpg,FN,3,num_2,16,num_2,0.900164635619,,,2017_Apr_03_1242,60.0051002069,FEMA4ImagesEEG,001,100144,
AFNE01.JPG,AFNE01.JPG,AFNE01.JPG,AFNE01.JPG,AFNE01.JPG,AFNE01.JPG,,,,,,,,,2,3,23,0,,,,,,,,,,,,,,,AFSA01.jpg,AFSA17.jpg,AFNE04.jpg,AFNE09.jpg,AFNE04.jpg,FN,3,num_2,16,num_2,0.983473566128,,,2017_Apr_03_1242,60.0051002069,FEMA4ImagesEEG,001,100144,
AFNE01.JPG,AFNE01.JPG,AFNE01.JPG,AFNE01.JPG,AFNE01.JPG,AFNE01.JPG,,,,,,,,,2,4,24,3,,,,,,,,,,,,,,,AFSA04.jpg,AFNE17.jpg,AFNE19.jpg,AFSA05.jpg,AFNE17.jpg,FN,3,num_6,32,num_2,1.15009142691,,,2017_Apr_03_1242,60.0051002069,FEMA4ImagesEEG,001,100144,
AFNE01.JPG,AFNE01.JPG,AFNE01.JPG,AFNE01.JPG,AFNE01.JPG,AFNE01.JPG,,,,,,,,,2,5,25,7,,,,,,,,,,,,,,,AFNE05.jpg,AFSA05.jpg,AFSA17.jpg,AFNE10.jpg,AFSA05.jpg,FS,4,num_6,32,num_8,1.41669187136,,,2017_Apr_03_1242,60.0051002069,FEMA4ImagesEEG,001,100144,
AFNE01.JPG,AFNE01.JPG,AFNE01.JPG,AFNE01.JPG,AFNE01.JPG,AFNE01.JPG,,,,,,,,,2,6,26,4,,,,,,,,,,,,,,,AFNE07.jpg,AFNE10.jpg,AFSA10.jpg,AFSA05.jpg,AFNE10.jpg,FN,3,num_6,16,num_6,0.616761279525,,,2017_Apr_03_1242,60.0051002069,FEMA4ImagesEEG,001,100144,
AFNE01.JPG,AFNE01.JPG,AFNE01.JPG,AFNE01.JPG,AFNE01.JPG,AFNE01.JPG,,,,,,,,,2,7,27,9,,,,,,,,,,,,,,,AFNE20.jpg,AFSA05.jpg,AFSA02.jpg,AFNE08.jpg,AFSA05.jpg,FS,4,num_6,16,num_6,1.25011634827,,,2017_Apr_03_1242,60.0051002069,FEMA4ImagesEEG,001,100144,
AFNE01.JPG,AFNE01.JPG,AFNE01.JPG,AFNE01.JPG,AFNE01.JPG,AFNE01.JPG,,,,,,,,,2,8,28,2,,,,,,,,,,,,,,,AFNE17.jpg,AFNE09.jpg,AFSA18.jpg,AFSA13.jpg,AFSA18.jpg,FS,4,num_2,16,num_2,0.850137902191,,,2017_Apr_03_1242,60.0051002069,FEMA4ImagesEEG,001,100144,
AFNE01.JPG,AFNE01.JPG,AFNE01.JPG,AFNE01.JPG,AFNE01.JPG,AFNE01.JPG,,,,,,,,,2,9,29,8,,,,,,,,,,,,,,,AFSA20.jpg,AFNE02.jpg,AFNE13.jpg,AFSA15.jpg,AFSA15.jpg,FS,4,num_4,16,num_4,1.01674453681,,,2017_Apr_03_1242,60.0051002069,FEMA4ImagesEEG,001,100144,
AFNE01.JPG,AFNE01.JPG,AFNE01.JPG,AFNE01.JPG,AFNE01.JPG,AFNE01.JPG,,,,,,,,,3,0,30,8,,,,,,,,,,,,,,,AFNE16.jpg,AFSA16.jpg,AFNE13.jpg,AFSA15.jpg,AFSA16.jpg,FS,4,num_6,32,num_8,1.51670524618,,,2017_Apr_03_1242,60.0051002069,FEMA4ImagesEEG,001,100144,
AFNE01.JPG,AFNE01.JPG,AFNE01.JPG,AFNE01.JPG,AFNE01.JPG,AFNE01.JPG,,,,,,,,,3,1,31,9,,,,,,,,,,,,,,,AFSA02.jpg,AFNE09.jpg,AFSA08.jpg,AFNE04.jpg,AFNE04.jpg,FN,3,num_4,32,num_6,0.966761103133,,,2017_Apr_03_1242,60.0051002069,FEMA4ImagesEEG,001,100144,
AFNE01.JPG,AFNE01.JPG,AFNE01.JPG,AFNE01.JPG,AFNE01.JPG,AFNE01.JPG,,,,,,,,,3,2,32,3,,,,,,,,,,,,,,,AFSA20.jpg,AFSA10.jpg,AFNE18.jpg,AFNE04.jpg,AFNE04.jpg,FN,3,num_4,32,num_6,0.833428967278,,,2017_Apr_03_1242,60.0051002069,FEMA4ImagesEEG,001,100144,
AFNE01.JPG,AFNE01.JPG,AFNE01.JPG,AFNE01.JPG,AFNE01.JPG,AFNE01.JPG,,,,,,,,,3,3,33,7,,,,,,,,,,,,,,,AFSA15.jpg,AFNE12.jpg,AFNE04.jpg,AFSA12.jpg,AFSA15.jpg,FS,4,num_8,32,num_6,0.933401287533,,,2017_Apr_03_1242,60.0051002069,FEMA4ImagesEEG,001,100144,
AFNE01.JPG,AFNE01.JPG,AFNE01.JPG,AFNE01.JPG,AFNE01.JPG,AFNE01.JPG,,,,,,,,,3,4,34,0,,,,,,,,,,,,,,,AFNE08.jpg,AFSA13.jpg,AFSA14.jpg,AFNE16.jpg,AFNE08.jpg,FN,3,num_8,32,num_2,1.36673473846,,,2017_Apr_03_1242,60.0051002069,FEMA4ImagesEEG,001,100144,
AFNE01.JPG,AFNE01.JPG,AFNE01.JPG,AFNE01.JPG,AFNE01.JPG,AFNE01.JPG,,,,,,,,,3,5,35,4,,,,,,,,,,,,,,,AFSA17.jpg,AFNE13.jpg,AFNE03.jpg,AFSA09.jpg,AFSA17.jpg,FS,4,num_8,16,num_8,1.26673547621,,,2017_Apr_03_1242,60.0051002069,FEMA4ImagesEEG,001,100144,
AFNE01.JPG,AFNE01.JPG,AFNE01.JPG,AFNE01.JPG,AFNE01.JPG,AFNE01.JPG,,,,,,,,,3,6,36,6,,,,,,,,,,,,,,,AFSA17.jpg,AFNE18.jpg,AFSA15.jpg,AFNE06.jpg,AFNE18.jpg,FN,3,num_6,32,num_2,1.03346052789,,,2017_Apr_03_1242,60.0051002069,FEMA4ImagesEEG,001,100144,
AFNE01.JPG,AFNE01.JPG,AFNE01.JPG,AFNE01.JPG,AFNE01.JPG,AFNE01.JPG,,,,,,,,,3,7,37,1,,,,,,,,,,,,,,,AFNE01.jpg,AFSA08.jpg,AFNE05.jpg,AFSA20.jpg,AFNE05.jpg,FN,3,num_2,32,num_6,1.02506067604,,,2017_Apr_03_1242,60.0051002069,FEMA4ImagesEEG,001,100144,
AFNE01.JPG,AFNE01.JPG,AFNE01.JPG,AFNE01.JPG,AFNE01.JPG,AFNE01.JPG,,,,,,,,,3,8,38,5,,,,,,,,,,,,,,,AFNE01.jpg,AFSA18.jpg,AFSA19.jpg,AFNE17.jpg,AFSA19.jpg,FS,4,num_2,16,num_2,0.86681989464,,,2017_Apr_03_1242,60.0051002069,FEMA4ImagesEEG,001,100144,
AFNE01.JPG,AFNE01.JPG,AFNE01.JPG,AFNE01.JPG,AFNE01.JPG,AFNE01.JPG,,,,,,,,,3,9,39,2,,,,,,,,,,,,,,,AFNE17.jpg,AFSA15.jpg,AFSA04.jpg,AFNE20.jpg,AFSA04.jpg,FS,4,num_2,32,num_6,1.08350458159,,,2017_Apr_03_1242,60.0051002069,FEMA4ImagesEEG,001,100144,
AFNE01.JPG,AFNE01.JPG,AFNE01.JPG,AFNE01.JPG,AFNE01.JPG,AFNE01.JPG,,,,,,,,,4,0,40,9,,,,,,,,,,,,,,,AFNE16.jpg,AFNE02.jpg,AFSA01.jpg,AFSA15.jpg,AFSA15.jpg,FS,4,num_4,16,num_4,0.833458154462,,,2017_Apr_03_1242,60.0051002069,FEMA4ImagesEEG,001,100144,
AFNE01.JPG,AFNE01.JPG,AFNE01.JPG,AFNE01.JPG,AFNE01.JPG,AFNE01.JPG,,,,,,,,,4,1,41,1,,,,,,,,,,,,,,,AFSA07.jpg,AFNE09.jpg,AFSA01.jpg,AFNE15.jpg,AFSA01.jpg,FS,4,num_2,32,num_6,2.43335975148,,,2017_Apr_03_1242,60.0051002069,FEMA4ImagesEEG,001,100144,
AFNE01.JPG,AFNE01.JPG,AFNE01.JPG,AFNE01.JPG,AFNE01.JPG,AFNE01.JPG,,,,,,,,,4,2,42,5,,,,,,,,,,,,,,,AFNE01.jpg,AFSA19.jpg,AFSA07.jpg,AFNE17.jpg,AFNE01.jpg,FN,3,num_8,16,num_8,1.26694748481,,,2017_Apr_03_1242,60.0051002069,FEMA4ImagesEEG,001,100144,
AFNE01.JPG,AFNE01.JPG,AFNE01.JPG,AFNE01.JPG,AFNE01.JPG,AFNE01.JPG,,,,,,,,,4,3,43,2,,,,,,,,,,,,,,,AFSA10.jpg,AFNE19.jpg,AFSA09.jpg,AFNE03.jpg,AFSA10.jpg,FS,4,num_8,32,num_6,1.80004413379,,,2017_Apr_03_1242,60.0051002069,FEMA4ImagesEEG,001,100144,
AFNE01.JPG,AFNE01.JPG,AFNE01.JPG,AFNE01.JPG,AFNE01.JPG,AFNE01.JPG,,,,,,,,,4,4,44,6,,,,,,,,,,,,,,,AFSA01.jpg,AFSA15.jpg,AFNE16.jpg,AFNE06.jpg,AFNE16.jpg,FN,3,num_2,32,num_6,1.25011121668,,,2017_Apr_03_1242,60.0051002069,FEMA4ImagesEEG,001,100144,
AFNE01.JPG,AFNE01.JPG,AFNE01.JPG,AFNE01.JPG,AFNE01.JPG,AFNE01.JPG,,,,,,,,,4,5,45,3,,,,,,,,,,,,,,,AFSA06.jpg,AFNE14.jpg,AFNE20.jpg,AFSA12.jpg,AFSA06.jpg,FS,4,num_8,32,num_6,1.01679136488,,,2017_Apr_03_1242,60.0051002069,FEMA4ImagesEEG,001,100144,
AFNE01.JPG,AFNE01.JPG,AFNE01.JPG,AFNE01.JPG,AFNE01.JPG,AFNE01.JPG,,,,,,,,,4,6,46,4,,,,,,,,,,,,,,,AFNE18.jpg,AFSA19.jpg,AFNE15.jpg,AFSA14.jpg,AFSA19.jpg,FS,4,num_6,16,num_6,1.01676474372,,,2017_Apr_03_1242,60.0051002069,FEMA4ImagesEEG,001,100144,
AFNE01.JPG,AFNE01.JPG,AFNE01.JPG,AFNE01.JPG,AFNE01.JPG,AFNE01.JPG,,,,,,,,,4,7,47,8,,,,,,,,,,,,,,,AFNE18.jpg,AFNE20.jpg,AFSA18.jpg,AFSA12.jpg,AFNE20.jpg,FN,3,num_6,32,num_4,1.95006563934,,,2017_Apr_03_1242,60.0051002069,FEMA4ImagesEEG,001,100144,
AFNE01.JPG,AFNE01.JPG,AFNE01.JPG,AFNE01.JPG,AFNE01.JPG,AFNE01.JPG,,,,,,,,,4,8,48,0,,,,,,,,,,,,,,,AFNE05.jpg,AFNE11.jpg,AFSA20.jpg,AFSA08.jpg,AFNE05.jpg,FN,3,num_8,32,num_4,0.700100038666,,,2017_Apr_03_1242,60.0051002069,FEMA4ImagesEEG,001,100144,
AFNE01.JPG,AFNE01.JPG,AFNE01.JPG,AFNE01.JPG,AFNE01.JPG,AFNE01.JPG,,,,,,,,,4,9,49,7,,,,,,,,,,,,,,,AFSA08.jpg,AFNE14.jpg,AFNE15.jpg,AFSA03.jpg,AFNE15.jpg,FN,3,num_2,16,num_2,0.983469717205,,,2017_Apr_03_1242,60.0051002069,FEMA4ImagesEEG,001,100144,
AFNE01.JPG,AFNE01.JPG,AFNE01.JPG,AFNE01.JPG,AFNE01.JPG,AFNE01.JPG,,,,,,,,,5,0,50,2,,,,,,,,,,,,,,,AFNE14.jpg,AFNE16.jpg,AFSA16.jpg,AFSA07.jpg,AFNE16.jpg,FN,3,num_6,16,num_6,1.23345231707,,,2017_Apr_03_1242,60.0051002069,FEMA4ImagesEEG,001,100144,
AFNE01.JPG,AFNE01.JPG,AFNE01.JPG,AFNE01.JPG,AFNE01.JPG,AFNE01.JPG,,,,,,,,,5,1,51,3,,,,,,,,,,,,,,,AFSA20.jpg,AFNE19.jpg,AFSA03.jpg,AFNE10.jpg,AFSA20.jpg,FS,4,num_8,16,num_8,1.50003672461,,,2017_Apr_03_1242,60.0051002069,FEMA4ImagesEEG,001,100144,
AFNE01.JPG,AFNE01.JPG,AFNE01.JPG,AFNE01.JPG,AFNE01.JPG,AFNE01.JPG,,,,,,,,,5,2,52,4,,,,,,,,,,,,,,,AFSA05.jpg,AFSA06.jpg,AFNE02.jpg,AFNE16.jpg,AFSA05.jpg,FS,4,num_8,32,num_6,1.53346068831,,,2017_Apr_03_1242,60.0051002069,FEMA4ImagesEEG,001,100144,
AFNE01.JPG,AFNE01.JPG,AFNE01.JPG,AFNE01.JPG,AFNE01.JPG,AFNE01.JPG,,,,,,,,,5,3,53,7,,,,,,,,,,,,,,,AFSA19.jpg,AFNE17.jpg,AFNE03.jpg,AFSA16.jpg,AFNE03.jpg,FN,3,num_2,32,num_6,1.25008267071,,,2017_Apr_03_1242,60.0051002069,FEMA4ImagesEEG,001,100144,
AFNE01.JPG,AFNE01.JPG,AFNE01.JPG,AFNE01.JPG,AFNE01.JPG,AFNE01.JPG,,,,,,,,,5,4,54,1,,,,,,,,,,,,,,,AFNE16.jpg,AFSA18.jpg,AFNE02.jpg,AFSA09.jpg,AFNE16.jpg,FN,3,num_8,16,num_8,0.850109035615,,,2017_Apr_03_1242,60.0051002069,FEMA4ImagesEEG,001,100144,
AFNE01.JPG,AFNE01.JPG,AFNE01.JPG,AFNE01.JPG,AFNE01.JPG,AFNE01.JPG,,,,,,,,,5,5,55,9,,,,,,,,,,,,,,,AFNE12.jpg,AFSA10.jpg,AFNE04.jpg,AFSA18.jpg,AFSA18.jpg,FS,4,num_4,16,num_4,0.750145375263,,,2017_Apr_03_1242,60.0051002069,FEMA4ImagesEEG,001,100144,
AFNE01.JPG,AFNE01.JPG,AFNE01.JPG,AFNE01.JPG,AFNE01.JPG,AFNE01.JPG,,,,,,,,,5,6,56,0,,,,,,,,,,,,,,,AFSA18.jpg,AFNE18.jpg,AFNE07.jpg,AFSA13.jpg,AFNE18.jpg,FN,3,num_6,16,num_6,0.850143996067,,,2017_Apr_03_1242,60.0051002069,FEMA4ImagesEEG,001,100144,
AFNE01.JPG,AFNE01.JPG,AFNE01.JPG,AFNE01.JPG,AFNE01.JPG,AFNE01.JPG,,,,,,,,,5,7,57,6,,,,,,,,,,,,,,,AFSA17.jpg,AFNE07.jpg,AFSA06.jpg,AFNE01.jpg,AFSA06.jpg,FS,4,num_2,16,num_2,1.83337764884,,,2017_Apr_03_1242,60.0051002069,FEMA4ImagesEEG,001,100144,
AFNE01.JPG,AFNE01.JPG,AFNE01.JPG,AFNE01.JPG,AFNE01.JPG,AFNE01.JPG,,,,,,,,,5,8,58,5,,,,,,,,,,,,,,,AFNE14.jpg,AFNE15.jpg,AFSA01.jpg,AFSA03.jpg,AFNE14.jpg,FN,3,num_8,32,num_6,1.00012156041,,,2017_Apr_03_1242,60.0051002069,FEMA4ImagesEEG,001,100144,
AFNE01.JPG,AFNE01.JPG,AFNE01.JPG,AFNE01.JPG,AFNE01.JPG,AFNE01.JPG,,,,,,,,,5,9,59,8,,,,,,,,,,,,,,,AFNE05.jpg,AFSA16.jpg,AFSA17.jpg,AFNE04.jpg,AFNE05.jpg,FN,3,num_8,16,num_8,2.68336576549,,,2017_Apr_03_1242,60.0051002069,FEMA4ImagesEEG,001,100144,
,,,,,,,,,,,,,,,,,,,,,,,,,,,,,,,,,,,,,,,,,,,space,13.615454586,2017_Apr_03_1242,60.0051002069,FEMA4ImagesEEG,001,100144,
AFNE01.JPG,AFNE01.JPG,AFNE01.JPG,AFNE01.JPG,AFNE01.JPG,AFNE01.JPG,,,,,,,,,,,,,0,0,0,9,,,,,,,,,,,AMNE05.jpg,AMSA06.jpg,AMSA13.jpg,AMNE16.jpg,AMNE16.jpg,MN,1,num_4,16,num_4,1.41701068683,,,2017_Apr_03_1242,60.0051002069,FEMA4ImagesEEG,001,100144,
AFNE01.JPG,AFNE01.JPG,AFNE01.JPG,AFNE01.JPG,AFNE01.JPG,AFNE01.JPG,,,,,,,,,,,,,0,1,1,1,,,,,,,,,,,AMNE13.jpg,AMSA04.jpg,AMNE12.jpg,AMSA14.jpg,AMSA04.jpg,MS,2,num_6,16,num_6,1.13343765913,,,2017_Apr_03_1242,60.0051002069,FEMA4ImagesEEG,001,100144,
AFNE01.JPG,AFNE01.JPG,AFNE01.JPG,AFNE01.JPG,AFNE01.JPG,AFNE01.JPG,,,,,,,,,,,,,0,2,2,7,,,,,,,,,,,AMNE07.jpg,AMSA20.jpg,AMNE05.jpg,AMSA06.jpg,AMSA20.jpg,MS,2,num_6,32,num_8,0.916751689278,,,2017_Apr_03_1242,60.0051002069,FEMA4ImagesEEG,001,100144,
AFNE01.JPG,AFNE01.JPG,AFNE01.JPG,AFNE01.JPG,AFNE01.JPG,AFNE01.JPG,,,,,,,,,,,,,0,3,3,2,,,,,,,,,,,AMNE06.jpg,AMSA07.jpg,AMNE18.jpg,AMSA15.jpg,AMNE18.jpg,MN,1,num_2,32,num_6,0.966758216498,,,2017_Apr_03_1242,60.0051002069,FEMA4ImagesEEG,001,100144,
AFNE01.JPG,AFNE01.JPG,AFNE01.JPG,AFNE01.JPG,AFNE01.JPG,AFNE01.JPG,,,,,,,,,,,,,0,4,4,8,,,,,,,,,,,AMSA16.jpg,AMSA15.jpg,AMNE06.jpg,AMNE13.jpg,AMNE06.jpg,MN,1,num_2,32,num_4,0.950090977829,,,2017_Apr_03_1242,60.0051002069,FEMA4ImagesEEG,001,100144,
AFNE01.JPG,AFNE01.JPG,AFNE01.JPG,AFNE01.JPG,AFNE01.JPG,AFNE01.JPG,,,,,,,,,,,,,0,5,5,6,,,,,,,,,,,AMNE20.jpg,AMNE06.jpg,AMSA20.jpg,AMSA12.jpg,AMSA12.jpg,MS,2,num_4,16,num_4,1.48337686295,,,2017_Apr_03_1242,60.0051002069,FEMA4ImagesEEG,001,100144,
AFNE01.JPG,AFNE01.JPG,AFNE01.JPG,AFNE01.JPG,AFNE01.JPG,AFNE01.JPG,,,,,,,,,,,,,0,6,6,5,,,,,,,,,,,AMSA02.jpg,AMNE17.jpg,AMNE01.jpg,AMSA18.jpg,AMSA02.jpg,MS,2,num_8,32,num_4,0.73345921305,,,2017_Apr_03_1242,60.0051002069,FEMA4ImagesEEG,001,100144,
AFNE01.JPG,AFNE01.JPG,AFNE01.JPG,AFNE01.JPG,AFNE01.JPG,AFNE01.JPG,,,,,,,,,,,,,0,7,7,0,,,,,,,,,,,AMSA15.jpg,AMNE14.jpg,AMSA11.jpg,AMNE17.jpg,AMSA11.jpg,MS,2,num_2,32,num_6,0.766771879978,,,2017_Apr_03_1242,60.0051002069,FEMA4ImagesEEG,001,100144,
AFNE01.JPG,AFNE01.JPG,AFNE01.JPG,AFNE01.JPG,AFNE01.JPG,AFNE01.JPG,,,,,,,,,,,,,0,8,8,3,,,,,,,,,,,AMSA13.jpg,AMNE16.jpg,AMSA19.jpg,AMNE07.jpg,AMSA13.jpg,MS,2,num_8,16,num_8,1.10006822133,,,2017_Apr_03_1242,60.0051002069,FEMA4ImagesEEG,001,100144,
AFNE01.JPG,AFNE01.JPG,AFNE01.JPG,AFNE01.JPG,AFNE01.JPG,AFNE01.JPG,,,,,,,,,,,,,0,9,9,4,,,,,,,,,,,AMNE09.jpg,AMSA17.jpg,AMNE15.jpg,AMSA20.jpg,AMNE09.jpg,MN,1,num_8,16,num_8,1.10011569085,,,2017_Apr_03_1242,60.0051002069,FEMA4ImagesEEG,001,100144,
AFNE01.JPG,AFNE01.JPG,AFNE01.JPG,AFNE01.JPG,AFNE01.JPG,AFNE01.JPG,,,,,,,,,,,,,1,0,10,8,,,,,,,,,,,AMNE15.jpg,AMNE02.jpg,AMSA08.jpg,AMSA10.jpg,AMSA08.jpg,MS,2,num_2,32,num_4,1.53337216424,,,2017_Apr_03_1242,60.0051002069,FEMA4ImagesEEG,001,100144,
AFNE01.JPG,AFNE01.JPG,AFNE01.JPG,AFNE01.JPG,AFNE01.JPG,AFNE01.JPG,,,,,,,,,,,,,1,1,11,5,,,,,,,,,,,AMNE12.jpg,AMSA06.jpg,AMSA12.jpg,AMNE05.jpg,AMNE12.jpg,MN,1,num_8,16,num_8,1.63339836849,,,2017_Apr_03_1242,60.0051002069,FEMA4ImagesEEG,001,100144,
AFNE01.JPG,AFNE01.JPG,AFNE01.JPG,AFNE01.JPG,AFNE01.JPG,AFNE01.JPG,,,,,,,,,,,,,1,2,12,0,,,,,,,,,,,AMSA17.jpg,AMNE11.jpg,AMSA01.jpg,AMNE13.jpg,AMNE11.jpg,MN,1,num_6,16,num_6,1.05009376816,,,2017_Apr_03_1242,60.0051002069,FEMA4ImagesEEG,001,100144,
AFNE01.JPG,AFNE01.JPG,AFNE01.JPG,AFNE01.JPG,AFNE01.JPG,AFNE01.JPG,,,,,,,,,,,,,1,3,13,2,,,,,,,,,,,AMNE05.jpg,AMSA09.jpg,AMNE20.jpg,AMSA03.jpg,AMSA03.jpg,MS,2,num_4,16,num_4,0.616799126845,,,2017_Apr_03_1242,60.0051002069,FEMA4ImagesEEG,001,100144,
AFNE01.JPG,AFNE01.JPG,AFNE01.JPG,AFNE01.JPG,AFNE01.JPG,AFNE01.JPG,,,,,,,,,,,,,1,4,14,9,,,,,,,,,,,AMNE09.jpg,AMSA02.jpg,AMSA16.jpg,AMNE19.jpg,AMSA16.jpg,MS,2,num_2,32,num_8,1.03339541797,,,2017_Apr_03_1242,60.0051002069,FEMA4ImagesEEG,001,100144,
AFNE01.JPG,AFNE01.JPG,AFNE01.JPG,AFNE01.JPG,AFNE01.JPG,AFNE01.JPG,,,,,,,,,,,,,1,5,15,6,,,,,,,,,,,AMSA09.jpg,AMSA15.jpg,AMNE04.jpg,AMNE10.jpg,AMNE04.jpg,MN,1,num_2,16,num_2,1.41671624756,,,2017_Apr_03_1242,60.0051002069,FEMA4ImagesEEG,001,100144,
AFNE01.JPG,AFNE01.JPG,AFNE01.JPG,AFNE01.JPG,AFNE01.JPG,AFNE01.JPG,,,,,,,,,,,,,1,6,16,4,,,,,,,,,,,AMNE06.jpg,AMSA13.jpg,AMNE03.jpg,AMSA14.jpg,AMNE06.jpg,MN,1,num_8,32,num_6,1.21674819337,,,2017_Apr_03_1242,60.0051002069,FEMA4ImagesEEG,001,100144,
AFNE01.JPG,AFNE01.JPG,AFNE01.JPG,AFNE01.JPG,AFNE01.JPG,AFNE01.JPG,,,,,,,,,,,,,1,7,17,1,,,,,,,,,,,AMNE14.jpg,AMNE09.jpg,AMSA06.jpg,AMSA12.jpg,AMSA12.jpg,MS,2,num_4,32,num_6,0.966737047536,,,2017_Apr_03_1242,60.0051002069,FEMA4ImagesEEG,001,100144,
AFNE01.JPG,AFNE01.JPG,AFNE01.JPG,AFNE01.JPG,AFNE01.JPG,AFNE01.JPG,,,,,,,,,,,,,1,8,18,3,,,,,,,,,,,AMNE07.jpg,AMSA05.jpg,AMSA11.jpg,AMNE15.jpg,AMNE07.jpg,MN,1,num_8,16,num_8,0.9334340028,,,2017_Apr_03_1242,60.0051002069,FEMA4ImagesEEG,001,100144,
AFNE01.JPG,AFNE01.JPG,AFNE01.JPG,AFNE01.JPG,AFNE01.JPG,AFNE01.JPG,,,,,,,,,,,,,1,9,19,7,,,,,,,,,,,AMSA02.jpg,AMNE14.jpg,AMNE05.jpg,AMSA04.jpg,AMNE14.jpg,MN,1,num_6,16,num_6,1.88335178117,,,2017_Apr_03_1242,60.0051002069,FEMA4ImagesEEG,001,100144,
AFNE01.JPG,AFNE01.JPG,AFNE01.JPG,AFNE01.JPG,AFNE01.JPG,AFNE01.JPG,,,,,,,,,,,,,2,0,20,7,,,,,,,,,,,AMSA11.jpg,AMSA17.jpg,AMNE01.jpg,AMNE13.jpg,AMNE01.jpg,MN,1,num_2,16,num_2,1.31669838238,,,2017_Apr_03_1242,60.0051002069,FEMA4ImagesEEG,001,100144,
AFNE01.JPG,AFNE01.JPG,AFNE01.JPG,AFNE01.JPG,AFNE01.JPG,AFNE01.JPG,,,,,,,,,,,,,2,1,21,2,,,,,,,,,,,AMSA18.jpg,AMNE13.jpg,AMNE03.jpg,AMSA15.jpg,AMNE03.jpg,MN,1,num_2,32,num_4,1.31672756979,,,2017_Apr_03_1242,60.0051002069,FEMA4ImagesEEG,001,100144,
AFNE01.JPG,AFNE01.JPG,AFNE01.JPG,AFNE01.JPG,AFNE01.JPG,AFNE01.JPG,,,,,,,,,,,,,2,2,22,3,,,,,,,,,,,AMNE12.jpg,AMNE03.jpg,AMSA05.jpg,AMSA19.jpg,AMNE03.jpg,MN,1,num_6,16,num_6,0.866599225672,,,2017_Apr_03_1242,60.0051002069,FEMA4ImagesEEG,001,100144,
AFNE01.JPG,AFNE01.JPG,AFNE01.JPG,AFNE01.JPG,AFNE01.JPG,AFNE01.JPG,,,,,,,,,,,,,2,3,23,9,,,,,,,,,,,AMSA16.jpg,AMSA20.jpg,AMNE03.jpg,AMNE12.jpg,AMNE12.jpg,MN,1,num_4,32,num_8,1.0001507476,,,2017_Apr_03_1242,60.0051002069,FEMA4ImagesEEG,001,100144,
AFNE01.JPG,AFNE01.JPG,AFNE01.JPG,AFNE01.JPG,AFNE01.JPG,AFNE01.JPG,,,,,,,,,,,,,2,4,24,5,,,,,,,,,,,AMSA19.jpg,AMNE12.jpg,AMNE05.jpg,AMSA12.jpg,AMNE05.jpg,MN,1,num_2,32,num_8,1.31708455319,,,2017_Apr_03_1242,60.0051002069,FEMA4ImagesEEG,001,100144,
AFNE01.JPG,AFNE01.JPG,AFNE01.JPG,AFNE01.JPG,AFNE01.JPG,AFNE01.JPG,,,,,,,,,,,,,2,5,25,4,,,,,,,,,,,AMNE02.jpg,AMNE11.jpg,AMSA13.jpg,AMSA11.jpg,AMNE11.jpg,MN,1,num_6,16,num_6,0.950124655385,,,2017_Apr_03_1242,60.0051002069,FEMA4ImagesEEG,001,100144,
AFNE01.JPG,AFNE01.JPG,AFNE01.JPG,AFNE01.JPG,AFNE01.JPG,AFNE01.JPG,,,,,,,,,,,,,2,6,26,1,,,,,,,,,,,AMSA02.jpg,AMSA10.jpg,AMNE13.jpg,AMNE20.jpg,AMSA02.jpg,MS,2,num_8,16,num_8,1.10007239087,,,2017_Apr_03_1242,60.0051002069,FEMA4ImagesEEG,001,100144,
AFNE01.JPG,AFNE01.JPG,AFNE01.JPG,AFNE01.JPG,AFNE01.JPG,AFNE01.JPG,,,,,,,,,,,,,2,7,27,0,,,,,,,,,,,AMNE10.jpg,AMNE14.jpg,AMSA15.jpg,AMSA05.jpg,AMSA05.jpg,MS,2,num_4,32,num_8,0.966808251804,,,2017_Apr_03_1242,60.0051002069,FEMA4ImagesEEG,001,100144,
AFNE01.JPG,AFNE01.JPG,AFNE01.JPG,AFNE01.JPG,AFNE01.JPG,AFNE01.JPG,,,,,,,,,,,,,2,8,28,6,,,,,,,,,,,AMNE17.jpg,AMNE02.jpg,AMSA12.jpg,AMSA05.jpg,AMSA05.jpg,MS,2,num_4,16,num_4,0.916619544616,,,2017_Apr_03_1242,60.0051002069,FEMA4ImagesEEG,001,100144,
AFNE01.JPG,AFNE01.JPG,AFNE01.JPG,AFNE01.JPG,AFNE01.JPG,AFNE01.JPG,,,,,,,,,,,,,2,9,29,8,,,,,,,,,,,AMSA20.jpg,AMNE13.jpg,AMSA17.jpg,AMNE09.jpg,AMSA20.jpg,MS,2,num_8,32,num_4,1.96639866731,,,2017_Apr_03_1242,60.0051002069,FEMA4ImagesEEG,001,100144,
AFNE01.JPG,AFNE01.JPG,AFNE01.JPG,AFNE01.JPG,AFNE01.JPG,AFNE01.JPG,,,,,,,,,,,,,3,0,30,8,,,,,,,,,,,AMNE16.jpg,AMSA05.jpg,AMSA19.jpg,AMNE14.jpg,AMNE14.jpg,MN,1,num_4,16,num_4,0.50018073665,,,2017_Apr_03_1242,60.0051002069,FEMA4ImagesEEG,001,100144,
AFNE01.JPG,AFNE01.JPG,AFNE01.JPG,AFNE01.JPG,AFNE01.JPG,AFNE01.JPG,,,,,,,,,,,,,3,1,31,4,,,,,,,,,,,AMSA19.jpg,AMNE17.jpg,AMNE16.jpg,AMSA18.jpg,AMNE17.jpg,MN,1,num_6,16,num_6,0.933434323408,,,2017_Apr_03_1242,60.0051002069,FEMA4ImagesEEG,001,100144,
AFNE01.JPG,AFNE01.JPG,AFNE01.JPG,AFNE01.JPG,AFNE01.JPG,AFNE01.JPG,,,,,,,,,,,,,3,2,32,1,,,,,,,,,,,AMSA09.jpg,AMNE10.jpg,AMSA02.jpg,AMNE09.jpg,AMNE10.jpg,MN,1,num_6,16,num_6,1.0167637812,,,2017_Apr_03_1242,60.0051002069,FEMA4ImagesEEG,001,100144,
AFNE01.JPG,AFNE01.JPG,AFNE01.JPG,AFNE01.JPG,AFNE01.JPG,AFNE01.JPG,,,,,,,,,,,,,3,3,33,6,,,,,,,,,,,AMSA09.jpg,AMNE16.jpg,AMNE17.jpg,AMSA13.jpg,AMSA13.jpg,MS,2,num_4,32,num_6,1.8666745997,,,2017_Apr_03_1242,60.0051002069,FEMA4ImagesEEG,001,100144,
AFNE01.JPG,AFNE01.JPG,AFNE01.JPG,AFNE01.JPG,AFNE01.JPG,AFNE01.JPG,,,,,,,,,,,,,3,4,34,9,,,,,,,,,,,AMSA03.jpg,AMNE17.jpg,AMNE08.jpg,AMSA19.jpg,AMSA03.jpg,MS,2,num_8,32,num_4,0.900107864756,,,2017_Apr_03_1242,60.0051002069,FEMA4ImagesEEG,001,100144,
AFNE01.JPG,AFNE01.JPG,AFNE01.JPG,AFNE01.JPG,AFNE01.JPG,AFNE01.JPG,,,,,,,,,,,,,3,5,35,0,,,,,,,,,,,AMSA20.jpg,AMSA05.jpg,AMNE18.jpg,AMNE14.jpg,AMSA05.jpg,MS,2,num_6,32,num_8,1.13343445188,,,2017_Apr_03_1242,60.0051002069,FEMA4ImagesEEG,001,100144,
AFNE01.JPG,AFNE01.JPG,AFNE01.JPG,AFNE01.JPG,AFNE01.JPG,AFNE01.JPG,,,,,,,,,,,,,3,6,36,2,,,,,,,,,,,AMSA11.jpg,AMNE03.jpg,AMNE06.jpg,AMSA10.jpg,AMSA11.jpg,MS,2,num_8,32,num_4,1.750054606,,,2017_Apr_03_1242,60.0051002069,FEMA4ImagesEEG,001,100144,
AFNE01.JPG,AFNE01.JPG,AFNE01.JPG,AFNE01.JPG,AFNE01.JPG,AFNE01.JPG,,,,,,,,,,,,,3,7,37,3,,,,,,,,,,,AMSA06.jpg,AMNE10.jpg,AMNE11.jpg,AMSA12.jpg,AMSA12.jpg,MS,2,num_4,16,num_4,0.933457096107,,,2017_Apr_03_1242,60.0051002069,FEMA4ImagesEEG,001,100144,
AFNE01.JPG,AFNE01.JPG,AFNE01.JPG,AFNE01.JPG,AFNE01.JPG,AFNE01.JPG,,,,,,,,,,,,,3,8,38,7,,,,,,,,,,,AMNE13.jpg,AMNE20.jpg,AMSA05.jpg,AMSA09.jpg,AMSA09.jpg,MS,2,num_4,32,num_8,0.950113108847,,,2017_Apr_03_1242,60.0051002069,FEMA4ImagesEEG,001,100144,
AFNE01.JPG,AFNE01.JPG,AFNE01.JPG,AFNE01.JPG,AFNE01.JPG,AFNE01.JPG,,,,,,,,,,,,,3,9,39,5,,,,,,,,,,,AMNE11.jpg,AMSA08.jpg,AMNE16.jpg,AMSA20.jpg,AMNE16.jpg,MN,1,num_2,32,num_8,1.28343735449,,,2017_Apr_03_1242,60.0051002069,FEMA4ImagesEEG,001,100144,
AFNE01.JPG,AFNE01.JPG,AFNE01.JPG,AFNE01.JPG,AFNE01.JPG,AFNE01.JPG,,,,,,,,,,,,,4,0,40,4,,,,,,,,,,,AMNE17.jpg,AMNE14.jpg,AMSA18.jpg,AMSA16.jpg,AMNE17.jpg,MN,1,num_8,32,num_6,0.80006690626,,,2017_Apr_03_1242,60.0051002069,FEMA4ImagesEEG,001,100144,
AFNE01.JPG,AFNE01.JPG,AFNE01.JPG,AFNE01.JPG,AFNE01.JPG,AFNE01.JPG,,,,,,,,,,,,,4,1,41,6,,,,,,,,,,,AMSA15.jpg,AMNE15.jpg,AMNE20.jpg,AMSA17.jpg,AMNE20.jpg,MN,1,num_2,32,num_4,1.53337216424,,,2017_Apr_03_1242,60.0051002069,FEMA4ImagesEEG,001,100144,
AFNE01.JPG,AFNE01.JPG,AFNE01.JPG,AFNE01.JPG,AFNE01.JPG,AFNE01.JPG,,,,,,,,,,,,,4,2,42,0,,,,,,,,,,,AMSA03.jpg,AMSA12.jpg,AMNE11.jpg,AMNE08.jpg,AMSA12.jpg,MS,2,num_6,16,num_6,1.08329353505,,,2017_Apr_03_1242,60.0051002069,FEMA4ImagesEEG,001,100144,
AFNE01.JPG,AFNE01.JPG,AFNE01.JPG,AFNE01.JPG,AFNE01.JPG,AFNE01.JPG,,,,,,,,,,,,,4,3,43,5,,,,,,,,,,,AMNE06.jpg,AMSA12.jpg,AMSA01.jpg,AMNE17.jpg,AMNE06.jpg,MN,1,num_8,16,num_8,0.966791252606,,,2017_Apr_03_1242,60.0051002069,FEMA4ImagesEEG,001,100144,
AFNE01.JPG,AFNE01.JPG,AFNE01.JPG,AFNE01.JPG,AFNE01.JPG,AFNE01.JPG,,,,,,,,,,,,,4,4,44,7,,,,,,,,,,,AMNE01.jpg,AMNE09.jpg,AMSA08.jpg,AMSA01.jpg,AMNE01.jpg,MN,1,num_8,16,num_8,0.783452910371,,,2017_Apr_03_1242,60.0051002069,FEMA4ImagesEEG,001,100144,
AFNE01.JPG,AFNE01.JPG,AFNE01.JPG,AFNE01.JPG,AFNE01.JPG,AFNE01.JPG,,,,,,,,,,,,,4,5,45,3,,,,,,,,,,,AMNE14.jpg,AMSA09.jpg,AMNE13.jpg,AMSA20.jpg,AMNE14.jpg,MN,1,num_8,16,num_8,0.483538836474,,,2017_Apr_03_1242,60.0051002069,FEMA4ImagesEEG,001,100144,
AFNE01.JPG,AFNE01.JPG,AFNE01.JPG,AFNE01.JPG,AFNE01.JPG,AFNE01.JPG,,,,,,,,,,,,,4,6,46,2,,,,,,,,,,,AMNE03.jpg,AMNE18.jpg,AMSA18.jpg,AMSA16.jpg,AMSA18.jpg,MS,2,num_2,16,num_2,1.0000926936,,,2017_Apr_03_1242,60.0051002069,FEMA4ImagesEEG,001,100144,
AFNE01.JPG,AFNE01.JPG,AFNE01.JPG,AFNE01.JPG,AFNE01.JPG,AFNE01.JPG,,,,,,,,,,,,,4,7,47,9,,,,,,,,,,,AMSA18.jpg,AMSA13.jpg,AMNE08.jpg,AMNE13.jpg,AMNE13.jpg,MN,1,num_4,16,num_4,1.3667122866,,,2017_Apr_03_1242,60.0051002069,FEMA4ImagesEEG,001,100144,
AFNE01.JPG,AFNE01.JPG,AFNE01.JPG,AFNE01.JPG,AFNE01.JPG,AFNE01.JPG,,,,,,,,,,,,,4,8,48,8,,,,,,,,,,,AMSA18.jpg,AMSA09.jpg,AMNE17.jpg,AMNE04.jpg,AMSA18.jpg,MS,2,num_8,16,num_8,0.633515438531,,,2017_Apr_03_1242,60.0051002069,FEMA4ImagesEEG,001,100144,
AFNE01.JPG,AFNE01.JPG,AFNE01.JPG,AFNE01.JPG,AFNE01.JPG,AFNE01.JPG,,,,,,,,,,,,,4,9,49,1,,,,,,,,,,,AMNE11.jpg,AMSA07.jpg,AMNE09.jpg,AMSA13.jpg,AMSA13.jpg,MS,2,num_4,16,num_4,1.46672726492,,,2017_Apr_03_1242,60.0051002069,FEMA4ImagesEEG,001,100144,
AFNE01.JPG,AFNE01.JPG,AFNE01.JPG,AFNE01.JPG,AFNE01.JPG,AFNE01.JPG,,,,,,,,,,,,,5,0,50,9,,,,,,,,,,,AMNE03.jpg,AMNE02.jpg,AMSA16.jpg,AMSA19.jpg,AMNE02.jpg,MN,1,num_6,16,num_6,1.25012821588,,,2017_Apr_03_1242,60.0051002069,FEMA4ImagesEEG,001,100144,
AFNE01.JPG,AFNE01.JPG,AFNE01.JPG,AFNE01.JPG,AFNE01.JPG,AFNE01.JPG,,,,,,,,,,,,,5,1,51,0,,,,,,,,,,,AMNE13.jpg,AMSA05.jpg,AMSA08.jpg,AMNE12.jpg,AMSA05.jpg,MS,2,num_6,16,num_6,1.23345841118,,,2017_Apr_03_1242,60.0051002069,FEMA4ImagesEEG,001,100144,
AFNE01.JPG,AFNE01.JPG,AFNE01.JPG,AFNE01.JPG,AFNE01.JPG,AFNE01.JPG,,,,,,,,,,,,,5,2,52,1,,,,,,,,,,,AMNE13.jpg,AMSA05.jpg,AMNE19.jpg,AMSA07.jpg,AMSA07.jpg,MS,2,num_4,16,num_4,0.766847574618,,,2017_Apr_03_1242,60.0051002069,FEMA4ImagesEEG,001,100144,
AFNE01.JPG,AFNE01.JPG,AFNE01.JPG,AFNE01.JPG,AFNE01.JPG,AFNE01.JPG,,,,,,,,,,,,,5,3,53,4,,,,,,,,,,,AMSA07.jpg,AMNE18.jpg,AMSA05.jpg,AMNE19.jpg,AMSA07.jpg,MS,2,num_8,16,num_8,0.500119796488,,,2017_Apr_03_1242,60.0051002069,FEMA4ImagesEEG,001,100144,
AFNE01.JPG,AFNE01.JPG,AFNE01.JPG,AFNE01.JPG,AFNE01.JPG,AFNE01.JPG,,,,,,,,,,,,,5,4,54,5,,,,,,,,,,,AMSA06.jpg,AMSA17.jpg,AMNE05.jpg,AMNE13.jpg,AMSA06.jpg,MS,2,num_8,32,num_6,0.833453984931,,,2017_Apr_03_1242,60.0051002069,FEMA4ImagesEEG,001,100144,
AFNE01.JPG,AFNE01.JPG,AFNE01.JPG,AFNE01.JPG,AFNE01.JPG,AFNE01.JPG,,,,,,,,,,,,,5,5,55,6,,,,,,,,,,,AMSA11.jpg,AMSA18.jpg,AMNE01.jpg,AMNE12.jpg,AMSA18.jpg,MS,2,num_6,16,num_6,0.550151020288,,,2017_Apr_03_1242,60.0051002069,FEMA4ImagesEEG,001,100144,
AFNE01.JPG,AFNE01.JPG,AFNE01.JPG,AFNE01.JPG,AFNE01.JPG,AFNE01.JPG,,,,,,,,,,,,,5,6,56,2,,,,,,,,,,,AMNE07.jpg,AMSA11.jpg,AMNE04.jpg,AMSA09.jpg,AMSA11.jpg,MS,2,num_6,16,num_6,1.13345401711,,,2017_Apr_03_1242,60.0051002069,FEMA4ImagesEEG,001,100144,
AFNE01.JPG,AFNE01.JPG,AFNE01.JPG,AFNE01.JPG,AFNE01.JPG,AFNE01.JPG,,,,,,,,,,,,,5,7,57,7,,,,,,,,,,,AMSA04.jpg,AMSA20.jpg,AMNE03.jpg,AMNE05.jpg,AMSA04.jpg,MS,2,num_8,32,num_6,0.916748802643,,,2017_Apr_03_1242,60.0051002069,FEMA4ImagesEEG,001,100144,
AFNE01.JPG,AFNE01.JPG,AFNE01.JPG,AFNE01.JPG,AFNE01.JPG,AFNE01.JPG,,,,,,,,,,,,,5,8,58,3,,,,,,,,,,,AMNE18.jpg,AMSA05.jpg,AMSA16.jpg,AMNE07.jpg,AMSA16.jpg,MS,2,num_2,32,num_6,1.86674676603,,,2017_Apr_03_1242,60.0051002069,FEMA4ImagesEEG,001,100144,
AFNE01.JPG,AFNE01.JPG,AFNE01.JPG,AFNE01.JPG,AFNE01.JPG,AFNE01.JPG,,,,,,,,,,,,,5,9,59,8,,,,,,,,,,,AMNE09.jpg,AMNE13.jpg,AMSA05.jpg,AMSA20.jpg,AMNE13.jpg,MN,1,num_6,32,num_4,0.783459645929,,,2017_Apr_03_1242,60.0051002069,FEMA4ImagesEEG,001,100144,
,,,,,,,,,,,,,,,,,,,,,,,,,,,,,,,,,,,,,,,,,,,space,37.7805931952,2017_Apr_03_1242,60.0051002069,FEMA4ImagesEEG,001,100144,
AFNE01.JPG,AFNE01.JPG,AFNE01.JPG,AFNE01.JPG,AFNE01.JPG,AFNE01.JPG,,,,,,,,,,,,,,,,,0,0,0,7,,,,,,,AFNE07.jpg,AFNE19.jpg,AFSA20.jpg,AFSA19.jpg,AFSA19.jpg,FS,4,num_4,16,num_4,0.783488191897,,,2017_Apr_03_1242,60.0051002069,FEMA4ImagesEEG,001,100144,
AFNE01.JPG,AFNE01.JPG,AFNE01.JPG,AFNE01.JPG,AFNE01.JPG,AFNE01.JPG,,,,,,,,,,,,,,,,,0,1,1,9,,,,,,,AFSA16.jpg,AFNE10.jpg,AFSA17.jpg,AFNE06.jpg,AFSA16.jpg,FS,4,num_8,32,num_4,0.900172012625,,,2017_Apr_03_1242,60.0051002069,FEMA4ImagesEEG,001,100144,
AFNE01.JPG,AFNE01.JPG,AFNE01.JPG,AFNE01.JPG,AFNE01.JPG,AFNE01.JPG,,,,,,,,,,,,,,,,,0,2,2,1,,,,,,,AFSA09.jpg,AFNE16.jpg,AFNE17.jpg,AFSA04.jpg,AFSA09.jpg,FS,4,num_8,16,num_8,1.05013193632,,,2017_Apr_03_1242,60.0051002069,FEMA4ImagesEEG,001,100144,
AFNE01.JPG,AFNE01.JPG,AFNE01.JPG,AFNE01.JPG,AFNE01.JPG,AFNE01.JPG,,,,,,,,,,,,,,,,,0,3,3,4,,,,,,,AFSA15.jpg,AFNE10.jpg,AFNE02.jpg,AFSA11.jpg,AFNE10.jpg,FN,3,num_6,32,num_8,1.03344994364,,,2017_Apr_03_1242,60.0051002069,FEMA4ImagesEEG,001,100144,
AFNE01.JPG,AFNE01.JPG,AFNE01.JPG,AFNE01.JPG,AFNE01.JPG,AFNE01.JPG,,,,,,,,,,,,,,,,,0,4,4,8,,,,,,,AFSA15.jpg,AFNE04.jpg,AFNE14.jpg,AFSA11.jpg,AFSA11.jpg,FS,4,num_4,16,num_4,0.73350090906,,,2017_Apr_03_1242,60.0051002069,FEMA4ImagesEEG,001,100144,
AFNE01.JPG,AFNE01.JPG,AFNE01.JPG,AFNE01.JPG,AFNE01.JPG,AFNE01.JPG,,,,,,,,,,,,,,,,,0,5,5,3,,,,,,,AFSA07.jpg,AFNE16.jpg,AFNE14.jpg,AFSA05.jpg,AFNE14.jpg,FN,3,num_2,16,num_2,1.00012540934,,,2017_Apr_03_1242,60.0051002069,FEMA4ImagesEEG,001,100144,
AFNE01.JPG,AFNE01.JPG,AFNE01.JPG,AFNE01.JPG,AFNE01.JPG,AFNE01.JPG,,,,,,,,,,,,,,,,,0,6,6,2,,,,,,,AFNE15.jpg,AFSA15.jpg,AFSA03.jpg,AFNE11.jpg,AFSA03.jpg,FS,4,num_2,32,num_6,1.13343509333,,,2017_Apr_03_1242,60.0051002069,FEMA4ImagesEEG,001,100144,
AFNE01.JPG,AFNE01.JPG,AFNE01.JPG,AFNE01.JPG,AFNE01.JPG,AFNE01.JPG,,,,,,,,,,,,,,,,,0,7,7,0,,,,,,,AFNE16.jpg,AFSA07.jpg,AFNE18.jpg,AFSA15.jpg,AFSA07.jpg,FS,4,num_6,16,num_6,1.10009516333,,,2017_Apr_03_1242,60.0051002069,FEMA4ImagesEEG,001,100144,
AFNE01.JPG,AFNE01.JPG,AFNE01.JPG,AFNE01.JPG,AFNE01.JPG,AFNE01.JPG,,,,,,,,,,,,,,,,,0,8,8,6,,,,,,,AFNE14.jpg,AFSA12.jpg,AFNE04.jpg,AFSA07.jpg,AFNE04.jpg,FN,3,num_2,32,num_8,0.966746349121,,,2017_Apr_03_1242,60.0051002069,FEMA4ImagesEEG,001,100144,
AFNE01.JPG,AFNE01.JPG,AFNE01.JPG,AFNE01.JPG,AFNE01.JPG,AFNE01.JPG,,,,,,,,,,,,,,,,,0,9,9,5,,,,,,,AFNE12.jpg,AFSA02.jpg,AFNE02.jpg,AFSA04.jpg,AFNE02.jpg,FN,3,num_2,16,num_2,1.11674123327,,,2017_Apr_03_1242,60.0051002069,FEMA4ImagesEEG,001,100144,
AFNE01.JPG,AFNE01.JPG,AFNE01.JPG,AFNE01.JPG,AFNE01.JPG,AFNE01.JPG,,,,,,,,,,,,,,,,,1,0,10,7,,,,,,,AFNE16.jpg,AFSA10.jpg,AFNE08.jpg,AFSA11.jpg,AFNE16.jpg,FN,3,num_8,16,num_8,0.48353627068,,,2017_Apr_03_1242,60.0051002069,FEMA4ImagesEEG,001,100144,
AFNE01.JPG,AFNE01.JPG,AFNE01.JPG,AFNE01.JPG,AFNE01.JPG,AFNE01.JPG,,,,,,,,,,,,,,,,,1,1,11,1,,,,,,,AFSA11.jpg,AFSA16.jpg,AFNE10.jpg,AFNE02.jpg,AFNE02.jpg,FN,3,num_4,16,num_4,1.4833919378,,,2017_Apr_03_1242,60.0051002069,FEMA4ImagesEEG,001,100144,
AFNE01.JPG,AFNE01.JPG,AFNE01.JPG,AFNE01.JPG,AFNE01.JPG,AFNE01.JPG,,,,,,,,,,,,,,,,,1,2,12,2,,,,,,,AFSA19.jpg,AFSA20.jpg,AFNE17.jpg,AFNE14.jpg,AFSA19.jpg,FS,4,num_8,16,num_8,0.683495023753,,,2017_Apr_03_1242,60.0051002069,FEMA4ImagesEEG,001,100144,
AFNE01.JPG,AFNE01.JPG,AFNE01.JPG,AFNE01.JPG,AFNE01.JPG,AFNE01.JPG,,,,,,,,,,,,,,,,,1,3,13,6,,,,,,,AFSA14.jpg,AFSA07.jpg,AFNE14.jpg,AFNE04.jpg,AFNE14.jpg,FN,3,num_2,32,num_8,1.05018004705,,,2017_Apr_03_1242,60.0051002069,FEMA4ImagesEEG,001,100144,
AFNE01.JPG,AFNE01.JPG,AFNE01.JPG,AFNE01.JPG,AFNE01.JPG,AFNE01.JPG,,,,,,,,,,,,,,,,,1,4,14,0,,,,,,,AFSA13.jpg,AFNE17.jpg,AFSA05.jpg,AFNE16.jpg,AFSA13.jpg,FS,4,num_8,16,num_8,1.00010039168,,,2017_Apr_03_1242,60.0051002069,FEMA4ImagesEEG,001,100144,
AFNE01.JPG,AFNE01.JPG,AFNE01.JPG,AFNE01.JPG,AFNE01.JPG,AFNE01.JPG,,,,,,,,,,,,,,,,,1,5,15,3,,,,,,,AFSA01.jpg,AFNE15.jpg,AFNE19.jpg,AFSA13.jpg,AFSA01.jpg,FS,4,num_8,16,num_8,0.733483589254,,,2017_Apr_03_1242,60.0051002069,FEMA4ImagesEEG,001,100144,
AFNE01.JPG,AFNE01.JPG,AFNE01.JPG,AFNE01.JPG,AFNE01.JPG,AFNE01.JPG,,,,,,,,,,,,,,,,,1,6,16,4,,,,,,,AFSA17.jpg,AFNE04.jpg,AFNE20.jpg,AFSA02.jpg,AFNE20.jpg,FN,3,num_2,16,num_2,2.20001808973,,,2017_Apr_03_1242,60.0051002069,FEMA4ImagesEEG,001,100144,
AFNE01.JPG,AFNE01.JPG,AFNE01.JPG,AFNE01.JPG,AFNE01.JPG,AFNE01.JPG,,,,,,,,,,,,,,,,,1,7,17,5,,,,,,,AFSA20.jpg,AFNE03.jpg,AFSA07.jpg,AFNE16.jpg,AFNE16.jpg,FN,3,num_4,16,num_4,0.600119058508,,,2017_Apr_03_1242,60.0051002069,FEMA4ImagesEEG,001,100144,
AFNE01.JPG,AFNE01.JPG,AFNE01.JPG,AFNE01.JPG,AFNE01.JPG,AFNE01.JPG,,,,,,,,,,,,,,,,,1,8,18,8,,,,,,,AFNE16.jpg,AFSA17.jpg,AFNE18.jpg,AFSA08.jpg,AFSA08.jpg,FS,4,num_4,32,num_8,1.28343575099,,,2017_Apr_03_1242,60.0051002069,FEMA4ImagesEEG,001,100144,
AFNE01.JPG,AFNE01.JPG,AFNE01.JPG,AFNE01.JPG,AFNE01.JPG,AFNE01.JPG,,,,,,,,,,,,,,,,,1,9,19,9,,,,,,,AFNE16.jpg,AFSA11.jpg,AFSA03.jpg,AFNE18.jpg,AFSA03.jpg,FS,4,num_2,32,num_6,2.56662838114,,,2017_Apr_03_1242,60.0051002069,FEMA4ImagesEEG,001,100144,
AFNE01.JPG,AFNE01.JPG,AFNE01.JPG,AFNE01.JPG,AFNE01.JPG,AFNE01.JPG,,,,,,,,,,,,,,,,,2,0,20,3,,,,,,,AFNE07.jpg,AFSA04.jpg,AFNE09.jpg,AFSA03.jpg,AFNE09.jpg,FN,3,num_2,32,num_4,1.45012834412,,,2017_Apr_03_1242,60.0051002069,FEMA4ImagesEEG,001,100144,
AFNE01.JPG,AFNE01.JPG,AFNE01.JPG,AFNE01.JPG,AFNE01.JPG,AFNE01.JPG,,,,,,,,,,,,,,,,,2,1,21,7,,,,,,,AFNE17.jpg,AFNE20.jpg,AFSA11.jpg,AFSA04.jpg,AFNE20.jpg,FN,3,num_6,16,num_6,3.64990908629,,,2017_Apr_03_1242,60.0051002069,FEMA4ImagesEEG,001,100144,
AFNE01.JPG,AFNE01.JPG,AFNE01.JPG,AFNE01.JPG,AFNE01.JPG,AFNE01.JPG,,,,,,,,,,,,,,,,,2,2,22,4,,,,,,,AFNE19.jpg,AFNE11.jpg,AFSA11.jpg,AFSA10.jpg,AFNE19.jpg,FN,3,num_8,16,num_8,1.83345334348,,,2017_Apr_03_1242,60.0051002069,FEMA4ImagesEEG,001,100144,
AFNE01.JPG,AFNE01.JPG,AFNE01.JPG,AFNE01.JPG,AFNE01.JPG,AFNE01.JPG,,,,,,,,,,,,,,,,,2,3,23,8,,,,,,,AFSA17.jpg,AFNE14.jpg,AFSA20.jpg,AFNE19.jpg,AFSA20.jpg,FS,4,num_2,32,num_6,1.11673610145,,,2017_Apr_03_1242,60.0051002069,FEMA4ImagesEEG,001,100144,
AFNE01.JPG,AFNE01.JPG,AFNE01.JPG,AFNE01.JPG,AFNE01.JPG,AFNE01.JPG,,,,,,,,,,,,,,,,,2,4,24,6,,,,,,,AFNE06.jpg,AFSA19.jpg,AFSA10.jpg,AFNE12.jpg,AFSA10.jpg,FS,4,num_2,32,num_8,0.96677906462,,,2017_Apr_03_1242,60.0051002069,FEMA4ImagesEEG,001,100144,
AFNE01.JPG,AFNE01.JPG,AFNE01.JPG,AFNE01.JPG,AFNE01.JPG,AFNE01.JPG,,,,,,,,,,,,,,,,,2,5,25,5,,,,,,,AFNE02.jpg,AFSA12.jpg,AFNE11.jpg,AFSA03.jpg,AFSA12.jpg,FS,4,num_6,16,num_6,0.850156184286,,,2017_Apr_03_1242,60.0051002069,FEMA4ImagesEEG,001,100144,
AFNE01.JPG,AFNE01.JPG,AFNE01.JPG,AFNE01.JPG,AFNE01.JPG,AFNE01.JPG,,,,,,,,,,,,,,,,,2,6,26,2,,,,,,,AFNE12.jpg,AFSA06.jpg,AFNE02.jpg,AFSA10.jpg,AFSA10.jpg,FS,4,num_4,16,num_4,0.733515021624,,,2017_Apr_03_1242,60.0051002069,FEMA4ImagesEEG,001,100144,
AFNE01.JPG,AFNE01.JPG,AFNE01.JPG,AFNE01.JPG,AFNE01.JPG,AFNE01.JPG,,,,,,,,,,,,,,,,,2,7,27,0,,,,,,,AFSA02.jpg,AFNE13.jpg,AFSA16.jpg,AFNE15.jpg,AFSA16.jpg,FS,4,num_2,48,None,,,,2017_Apr_03_1242,60.0051002069,FEMA4ImagesEEG,001,100144,
AFNE01.JPG,AFNE01.JPG,AFNE01.JPG,AFNE01.JPG,AFNE01.JPG,AFNE01.JPG,,,,,,,,,,,,,,,,,2,8,28,1,,,,,,,AFSA10.jpg,AFNE16.jpg,AFSA03.jpg,AFNE20.jpg,AFSA10.jpg,FS,4,num_8,32,num_4,0.833454305772,,,2017_Apr_03_1242,60.0051002069,FEMA4ImagesEEG,001,100144,
AFNE01.JPG,AFNE01.JPG,AFNE01.JPG,AFNE01.JPG,AFNE01.JPG,AFNE01.JPG,,,,,,,,,,,,,,,,,2,9,29,9,,,,,,,AFSA09.jpg,AFNE16.jpg,AFSA02.jpg,AFNE14.jpg,AFNE14.jpg,FN,3,num_4,32,num_8,1.10010414431,,,2017_Apr_03_1242,60.0051002069,FEMA4ImagesEEG,001,100144,
AFNE01.JPG,AFNE01.JPG,AFNE01.JPG,AFNE01.JPG,AFNE01.JPG,AFNE01.JPG,,,,,,,,,,,,,,,,,3,0,30,1,,,,,,,AFSA02.jpg,AFSA20.jpg,AFNE07.jpg,AFNE06.jpg,AFSA02.jpg,FS,4,num_8,16,num_8,0.916727954755,,,2017_Apr_03_1242,60.0051002069,FEMA4ImagesEEG,001,100144,
AFNE01.JPG,AFNE01.JPG,AFNE01.JPG,AFNE01.JPG,AFNE01.JPG,AFNE01.JPG,,,,,,,,,,,,,,,,,3,1,31,8,,,,,,,AFNE10.jpg,AFNE16.jpg,AFSA11.jpg,AFSA17.jpg,AFNE10.jpg,FN,3,num_8,16,num_8,0.766821915284,,,2017_Apr_03_1242,60.0051002069,FEMA4ImagesEEG,001,100144,
AFNE01.JPG,AFNE01.JPG,AFNE01.JPG,AFNE01.JPG,AFNE01.JPG,AFNE01.JPG,,,,,,,,,,,,,,,,,3,2,32,6,,,,,,,AFSA13.jpg,AFNE20.jpg,AFNE04.jpg,AFSA02.jpg,AFSA13.jpg,FS,4,num_8,32,num_4,0.966758857947,,,2017_Apr_03_1242,60.0051002069,FEMA4ImagesEEG,001,100144,
AFNE01.JPG,AFNE01.JPG,AFNE01.JPG,AFNE01.JPG,AFNE01.JPG,AFNE01.JPG,,,,,,,,,,,,,,,,,3,3,33,0,,,,,,,AFNE12.jpg,AFSA11.jpg,AFNE15.jpg,AFSA09.jpg,AFSA11.jpg,FS,4,num_6,16,num_6,0.983444699552,,,2017_Apr_03_1242,60.0051002069,FEMA4ImagesEEG,001,100144,
AFNE01.JPG,AFNE01.JPG,AFNE01.JPG,AFNE01.JPG,AFNE01.JPG,AFNE01.JPG,,,,,,,,,,,,,,,,,3,4,34,7,,,,,,,AFSA14.jpg,AFSA17.jpg,AFNE06.jpg,AFNE07.jpg,AFSA17.jpg,FS,4,num_6,16,num_6,0.850145920413,,,2017_Apr_03_1242,60.0051002069,FEMA4ImagesEEG,001,100144,
AFNE01.JPG,AFNE01.JPG,AFNE01.JPG,AFNE01.JPG,AFNE01.JPG,AFNE01.JPG,,,,,,,,,,,,,,,,,3,5,35,9,,,,,,,AFSA09.jpg,AFNE09.jpg,AFSA19.jpg,AFNE04.jpg,AFNE04.jpg,FN,3,num_4,16,num_4,0.650123661151,,,2017_Apr_03_1242,60.0051002069,FEMA4ImagesEEG,001,100144,
AFNE01.JPG,AFNE01.JPG,AFNE01.JPG,AFNE01.JPG,AFNE01.JPG,AFNE01.JPG,,,,,,,,,,,,,,,,,3,6,36,3,,,,,,,AFNE08.jpg,AFNE20.jpg,AFSA10.jpg,AFSA16.jpg,AFNE08.jpg,FN,3,num_8,32,num_6,2.11669376376,,,2017_Apr_03_1242,60.0051002069,FEMA4ImagesEEG,001,100144,
AFNE01.JPG,AFNE01.JPG,AFNE01.JPG,AFNE01.JPG,AFNE01.JPG,AFNE01.JPG,,,,,,,,,,,,,,,,,3,7,37,2,,,,,,,AFSA20.jpg,AFNE09.jpg,AFNE03.jpg,AFSA17.jpg,AFNE09.jpg,FN,3,num_6,32,num_8,1.53341482254,,,2017_Apr_03_1242,60.0051002069,FEMA4ImagesEEG,001,100144,
AFNE01.JPG,AFNE01.JPG,AFNE01.JPG,AFNE01.JPG,AFNE01.JPG,AFNE01.JPG,,,,,,,,,,,,,,,,,3,8,38,5,,,,,,,AFSA03.jpg,AFNE15.jpg,AFNE12.jpg,AFSA20.jpg,AFNE15.jpg,FN,3,num_6,16,num_6,1.03345315112,,,2017_Apr_03_1242,60.0051002069,FEMA4ImagesEEG,001,100144,
AFNE01.JPG,AFNE01.JPG,AFNE01.JPG,AFNE01.JPG,AFNE01.JPG,AFNE01.JPG,,,,,,,,,,,,,,,,,3,9,39,4,,,,,,,AFSA11.jpg,AFSA12.jpg,AFNE10.jpg,AFNE17.jpg,AFSA12.jpg,FS,4,num_6,16,num_6,0.700240522856,,,2017_Apr_03_1242,60.0051002069,FEMA4ImagesEEG,001,100144,
AFNE01.JPG,AFNE01.JPG,AFNE01.JPG,AFNE01.JPG,AFNE01.JPG,AFNE01.JPG,,,,,,,,,,,,,,,,,4,0,40,9,,,,,,,AFSA05.jpg,AFNE02.jpg,AFSA19.jpg,AFNE01.jpg,AFNE01.jpg,FN,3,num_4,32,num_6,0.90009535593,,,2017_Apr_03_1242,60.0051002069,FEMA4ImagesEEG,001,100144,
AFNE01.JPG,AFNE01.JPG,AFNE01.JPG,AFNE01.JPG,AFNE01.JPG,AFNE01.JPG,,,,,,,,,,,,,,,,,4,1,41,0,,,,,,,AFNE12.jpg,AFSA05.jpg,AFSA19.jpg,AFNE07.jpg,AFSA19.jpg,FS,4,num_2,32,num_6,1.266730665,,,2017_Apr_03_1242,60.0051002069,FEMA4ImagesEEG,001,100144,
AFNE01.JPG,AFNE01.JPG,AFNE01.JPG,AFNE01.JPG,AFNE01.JPG,AFNE01.JPG,,,,,,,,,,,,,,,,,4,2,42,6,,,,,,,AFSA17.jpg,AFNE16.jpg,AFNE14.jpg,AFSA18.jpg,AFNE14.jpg,FN,3,num_2,16,num_2,1.74992374401,,,2017_Apr_03_1242,60.0051002069,FEMA4ImagesEEG,001,100144,
AFNE01.JPG,AFNE01.JPG,AFNE01.JPG,AFNE01.JPG,AFNE01.JPG,AFNE01.JPG,,,,,,,,,,,,,,,,,4,3,43,1,,,,,,,AFNE20.jpg,AFNE18.jpg,AFSA07.jpg,AFSA12.jpg,AFNE20.jpg,FN,3,num_8,16,num_8,1.00012284331,,,2017_Apr_03_1242,60.0051002069,FEMA4ImagesEEG,001,100144,
AFNE01.JPG,AFNE01.JPG,AFNE01.JPG,AFNE01.JPG,AFNE01.JPG,AFNE01.JPG,,,,,,,,,,,,,,,,,4,4,44,7,,,,,,,AFNE04.jpg,AFSA18.jpg,AFNE13.jpg,AFSA06.jpg,AFNE13.jpg,FN,3,num_2,32,num_6,1.5167844689,,,2017_Apr_03_1242,60.0051002069,FEMA4ImagesEEG,001,100144,
AFNE01.JPG,AFNE01.JPG,AFNE01.JPG,AFNE01.JPG,AFNE01.JPG,AFNE01.JPG,,,,,,,,,,,,,,,,,4,5,45,8,,,,,,,AFSA09.jpg,AFNE14.jpg,AFSA17.jpg,AFNE11.jpg,AFSA17.jpg,FS,4,num_2,16,num_2,0.883456983836,,,2017_Apr_03_1242,60.0051002069,FEMA4ImagesEEG,001,100144,
AFNE01.JPG,AFNE01.JPG,AFNE01.JPG,AFNE01.JPG,AFNE01.JPG,AFNE01.JPG,,,,,,,,,,,,,,,,,4,6,46,4,,,,,,,AFSA09.jpg,AFNE15.jpg,AFSA07.jpg,AFNE18.jpg,AFNE18.jpg,FN,3,num_4,16,num_4,1.21648165886,,,2017_Apr_03_1242,60.0051002069,FEMA4ImagesEEG,001,100144,
AFNE01.JPG,AFNE01.JPG,AFNE01.JPG,AFNE01.JPG,AFNE01.JPG,AFNE01.JPG,,,,,,,,,,,,,,,,,4,7,47,3,,,,,,,AFNE03.jpg,AFNE07.jpg,AFSA15.jpg,AFSA18.jpg,AFNE03.jpg,FN,3,num_8,16,num_8,1.1334492059,,,2017_Apr_03_1242,60.0051002069,FEMA4ImagesEEG,001,100144,
AFNE01.JPG,AFNE01.JPG,AFNE01.JPG,AFNE01.JPG,AFNE01.JPG,AFNE01.JPG,,,,,,,,,,,,,,,,,4,8,48,2,,,,,,,AFSA15.jpg,AFSA19.jpg,AFNE03.jpg,AFNE13.jpg,AFNE13.jpg,FN,3,num_4,16,num_4,1.33336016862,,,2017_Apr_03_1242,60.0051002069,FEMA4ImagesEEG,001,100144,
AFNE01.JPG,AFNE01.JPG,AFNE01.JPG,AFNE01.JPG,AFNE01.JPG,AFNE01.JPG,,,,,,,,,,,,,,,,,4,9,49,5,,,,,,,AFNE06.jpg,AFSA13.jpg,AFSA01.jpg,AFNE11.jpg,AFSA13.jpg,FS,4,num_6,32,num_4,0.850177673856,,,2017_Apr_03_1242,60.0051002069,FEMA4ImagesEEG,001,100144,
AFNE01.JPG,AFNE01.JPG,AFNE01.JPG,AFNE01.JPG,AFNE01.JPG,AFNE01.JPG,,,,,,,,,,,,,,,,,5,0,50,6,,,,,,,AFSA20.jpg,AFSA06.jpg,AFNE11.jpg,AFNE17.jpg,AFNE17.jpg,FN,3,num_4,32,num_6,0.533482819563,,,2017_Apr_03_1242,60.0051002069,FEMA4ImagesEEG,001,100144,
AFNE01.JPG,AFNE01.JPG,AFNE01.JPG,AFNE01.JPG,AFNE01.JPG,AFNE01.JPG,,,,,,,,,,,,,,,,,5,1,51,7,,,,,,,AFNE20.jpg,AFSA06.jpg,AFNE16.jpg,AFSA01.jpg,AFSA01.jpg,FS,4,num_4,32,num_6,1.06671963143,,,2017_Apr_03_1242,60.0051002069,FEMA4ImagesEEG,001,100144,
AFNE01.JPG,AFNE01.JPG,AFNE01.JPG,AFNE01.JPG,AFNE01.JPG,AFNE01.JPG,,,,,,,,,,,,,,,,,5,2,52,0,,,,,,,AFSA15.jpg,AFNE17.jpg,AFSA01.jpg,AFNE16.jpg,AFNE17.jpg,FN,3,num_6,16,num_6,1.05013033259,,,2017_Apr_03_1242,60.0051002069,FEMA4ImagesEEG,001,100144,
AFNE01.JPG,AFNE01.JPG,AFNE01.JPG,AFNE01.JPG,AFNE01.JPG,AFNE01.JPG,,,,,,,,,,,,,,,,,5,3,53,8,,,,,,,AFNE13.jpg,AFSA07.jpg,AFSA02.jpg,AFNE20.jpg,AFSA02.jpg,FS,4,num_2,16,num_2,1.56674801698,,,2017_Apr_03_1242,60.0051002069,FEMA4ImagesEEG,001,100144,
AFNE01.JPG,AFNE01.JPG,AFNE01.JPG,AFNE01.JPG,AFNE01.JPG,AFNE01.JPG,,,,,,,,,,,,,,,,,5,4,54,3,,,,,,,AFSA07.jpg,AFNE03.jpg,AFNE13.jpg,AFSA02.jpg,AFNE03.jpg,FN,3,num_6,32,num_8,1.60004240181,,,2017_Apr_03_1242,60.0051002069,FEMA4ImagesEEG,001,100144,
AFNE01.JPG,AFNE01.JPG,AFNE01.JPG,AFNE01.JPG,AFNE01.JPG,AFNE01.JPG,,,,,,,,,,,,,,,,,5,5,55,5,,,,,,,AFSA03.jpg,AFNE15.jpg,AFNE12.jpg,AFSA10.jpg,AFSA10.jpg,FS,4,num_4,32,num_2,1.26673964574,,,2017_Apr_03_1242,60.0051002069,FEMA4ImagesEEG,001,100144,
AFNE01.JPG,AFNE01.JPG,AFNE01.JPG,AFNE01.JPG,AFNE01.JPG,AFNE01.JPG,,,,,,,,,,,,,,,,,5,6,56,4,,,,,,,AFNE05.jpg,AFSA14.jpg,AFSA07.jpg,AFNE11.jpg,AFSA14.jpg,FS,4,num_6,32,num_8,0.966790290317,,,2017_Apr_03_1242,60.0051002069,FEMA4ImagesEEG,001,100144,
AFNE01.JPG,AFNE01.JPG,AFNE01.JPG,AFNE01.JPG,AFNE01.JPG,AFNE01.JPG,,,,,,,,,,,,,,,,,5,7,57,2,,,,,,,AFSA12.jpg,AFNE02.jpg,AFSA01.jpg,AFNE05.jpg,AFSA12.jpg,FS,4,num_8,16,num_8,0.83344340045,,,2017_Apr_03_1242,60.0051002069,FEMA4ImagesEEG,001,100144,
AFNE01.JPG,AFNE01.JPG,AFNE01.JPG,AFNE01.JPG,AFNE01.JPG,AFNE01.JPG,,,,,,,,,,,,,,,,,5,8,58,1,,,,,,,AFSA18.jpg,AFNE15.jpg,AFNE04.jpg,AFSA09.jpg,AFSA09.jpg,FS,4,num_4,32,num_6,1.06677319505,,,2017_Apr_03_1242,60.0051002069,FEMA4ImagesEEG,001,100144,
AFNE01.JPG,AFNE01.JPG,AFNE01.JPG,AFNE01.JPG,AFNE01.JPG,AFNE01.JPG,,,,,,,,,,,,,,,,,5,9,59,9,,,,,,,AFNE04.jpg,AFSA09.jpg,AFSA01.jpg,AFNE03.jpg,AFNE04.jpg,FN,3,num_8,16,num_8,0.783471834147,,,2017_Apr_03_1242,60.0051002069,FEMA4ImagesEEG,001,100144,
,,,,,,,,,,,,,,,,,,,,,,,,,,,,,,,,,,,,,,,,,,,space,13.9994072733,2017_Apr_03_1242,60.0051002069,FEMA4ImagesEEG,001,100144,
AFNE01.JPG,AFNE01.JPG,AFNE01.JPG,AFNE01.JPG,AFNE01.JPG,AFNE01.JPG,,,,,,,,,,,,,,,,,,,,,0,0,0,6,,,AMNE09.jpg,AMSA06.jpg,AMNE10.jpg,AMSA20.jpg,AMSA06.jpg,MS,2,num_6,32,num_8,0.750143771525,,,2017_Apr_03_1242,60.0051002069,FEMA4ImagesEEG,001,100144,
AFNE01.JPG,AFNE01.JPG,AFNE01.JPG,AFNE01.JPG,AFNE01.JPG,AFNE01.JPG,,,,,,,,,,,,,,,,,,,,,0,1,1,5,,,AMSA03.jpg,AMSA02.jpg,AMNE10.jpg,AMNE08.jpg,AMNE08.jpg,MN,1,num_4,16,num_4,1.00012348499,,,2017_Apr_03_1242,60.0051002069,FEMA4ImagesEEG,001,100144,
AFNE01.JPG,AFNE01.JPG,AFNE01.JPG,AFNE01.JPG,AFNE01.JPG,AFNE01.JPG,,,,,,,,,,,,,,,,,,,,,0,2,2,7,,,AMSA19.jpg,AMSA03.jpg,AMNE19.jpg,AMNE04.jpg,AMSA19.jpg,MS,2,num_8,16,num_8,1.30011774343,,,2017_Apr_03_1242,60.0051002069,FEMA4ImagesEEG,001,100144,
AFNE01.JPG,AFNE01.JPG,AFNE01.JPG,AFNE01.JPG,AFNE01.JPG,AFNE01.JPG,,,,,,,,,,,,,,,,,,,,,0,3,3,2,,,AMSA06.jpg,AMNE15.jpg,AMNE13.jpg,AMSA18.jpg,AMSA18.jpg,MS,2,num_4,16,num_4,0.400183078134,,,2017_Apr_03_1242,60.0051002069,FEMA4ImagesEEG,001,100144,
AFNE01.JPG,AFNE01.JPG,AFNE01.JPG,AFNE01.JPG,AFNE01.JPG,AFNE01.JPG,,,,,,,,,,,,,,,,,,,,,0,4,4,4,,,AMNE11.jpg,AMNE05.jpg,AMSA10.jpg,AMSA16.jpg,AMNE05.jpg,MN,1,num_6,16,num_6,0.783423723187,,,2017_Apr_03_1242,60.0051002069,FEMA4ImagesEEG,001,100144,
AFNE01.JPG,AFNE01.JPG,AFNE01.JPG,AFNE01.JPG,AFNE01.JPG,AFNE01.JPG,,,,,,,,,,,,,,,,,,,,,0,5,5,9,,,AMNE20.jpg,AMNE15.jpg,AMSA01.jpg,AMSA12.jpg,AMNE20.jpg,MN,1,num_8,16,num_8,0.6665452132,,,2017_Apr_03_1242,60.0051002069,FEMA4ImagesEEG,001,100144,
AFNE01.JPG,AFNE01.JPG,AFNE01.JPG,AFNE01.JPG,AFNE01.JPG,AFNE01.JPG,,,,,,,,,,,,,,,,,,,,,0,6,6,0,,,AMNE07.jpg,AMNE09.jpg,AMSA02.jpg,AMSA07.jpg,AMSA02.jpg,MS,2,num_2,32,num_4,0.68350592861,,,2017_Apr_03_1242,60.0051002069,FEMA4ImagesEEG,001,100144,
AFNE01.JPG,AFNE01.JPG,AFNE01.JPG,AFNE01.JPG,AFNE01.JPG,AFNE01.JPG,,,,,,,,,,,,,,,,,,,,,0,7,7,8,,,AMSA15.jpg,AMSA05.jpg,AMNE20.jpg,AMNE02.jpg,AMSA15.jpg,MS,2,num_8,16,num_8,0.766820953228,,,2017_Apr_03_1242,60.0051002069,FEMA4ImagesEEG,001,100144,
AFNE01.JPG,AFNE01.JPG,AFNE01.JPG,AFNE01.JPG,AFNE01.JPG,AFNE01.JPG,,,,,,,,,,,,,,,,,,,,,0,8,8,1,,,AMNE12.jpg,AMNE08.jpg,AMSA05.jpg,AMSA06.jpg,AMSA06.jpg,MS,2,num_4,16,num_4,1.38340390148,,,2017_Apr_03_1242,60.0051002069,FEMA4ImagesEEG,001,100144,
AFNE01.JPG,AFNE01.JPG,AFNE01.JPG,AFNE01.JPG,AFNE01.JPG,AFNE01.JPG,,,,,,,,,,,,,,,,,,,,,0,9,9,3,,,AMSA10.jpg,AMNE06.jpg,AMNE20.jpg,AMSA11.jpg,AMNE06.jpg,MN,1,num_6,16,num_6,1.40007723426,,,2017_Apr_03_1242,60.0051002069,FEMA4ImagesEEG,001,100144,
AFNE01.JPG,AFNE01.JPG,AFNE01.JPG,AFNE01.JPG,AFNE01.JPG,AFNE01.JPG,,,,,,,,,,,,,,,,,,,,,1,0,10,6,,,AMSA19.jpg,AMSA14.jpg,AMNE15.jpg,AMNE13.jpg,AMSA14.jpg,MS,2,num_6,16,num_6,0.75018995814,,,2017_Apr_03_1242,60.0051002069,FEMA4ImagesEEG,001,100144,
AFNE01.JPG,AFNE01.JPG,AFNE01.JPG,AFNE01.JPG,AFNE01.JPG,AFNE01.JPG,,,,,,,,,,,,,,,,,,,,,1,1,11,7,,,AMSA09.jpg,AMSA07.jpg,AMNE19.jpg,AMNE08.jpg,AMNE19.jpg,MN,1,num_2,16,num_2,1.98336387309,,,2017_Apr_03_1242,60.0051002069,FEMA4ImagesEEG,001,100144,
AFNE01.JPG,AFNE01.JPG,AFNE01.JPG,AFNE01.JPG,AFNE01.JPG,AFNE01.JPG,,,,,,,,,,,,,,,,,,,,,1,2,12,8,,,AMSA12.jpg,AMNE08.jpg,AMNE18.jpg,AMSA07.jpg,AMNE08.jpg,MN,1,num_6,32,num_8,1.90015501343,,,2017_Apr_03_1242,60.0051002069,FEMA4ImagesEEG,001,100144,
AFNE01.JPG,AFNE01.JPG,AFNE01.JPG,AFNE01.JPG,AFNE01.JPG,AFNE01.JPG,,,,,,,,,,,,,,,,,,,,,1,3,13,2,,,AMNE18.jpg,AMNE04.jpg,AMSA20.jpg,AMSA11.jpg,AMNE04.jpg,MN,1,num_6,32,num_4,2.78326142882,,,2017_Apr_03_1242,60.0051002069,FEMA4ImagesEEG,001,100144,
AFNE01.JPG,AFNE01.JPG,AFNE01.JPG,AFNE01.JPG,AFNE01.JPG,AFNE01.JPG,,,,,,,,,,,,,,,,,,,,,1,4,14,5,,,AMSA19.jpg,AMNE09.jpg,AMNE06.jpg,AMSA02.jpg,AMSA19.jpg,MS,2,num_8,16,num_8,0.850141430274,,,2017_Apr_03_1242,60.0051002069,FEMA4ImagesEEG,001,100144,
AFNE01.JPG,AFNE01.JPG,AFNE01.JPG,AFNE01.JPG,AFNE01.JPG,AFNE01.JPG,,,,,,,,,,,,,,,,,,,,,1,5,15,4,,,AMNE16.jpg,AMNE18.jpg,AMSA18.jpg,AMSA16.jpg,AMSA16.jpg,MS,2,num_4,32,num_8,1.11674796883,,,2017_Apr_03_1242,60.0051002069,FEMA4ImagesEEG,001,100144,
AFNE01.JPG,AFNE01.JPG,AFNE01.JPG,AFNE01.JPG,AFNE01.JPG,AFNE01.JPG,,,,,,,,,,,,,,,,,,,,,1,6,16,3,,,AMNE03.jpg,AMSA05.jpg,AMNE13.jpg,AMSA03.jpg,AMSA03.jpg,MS,2,num_4,16,num_4,0.883433569921,,,2017_Apr_03_1242,60.0051002069,FEMA4ImagesEEG,001,100144,
AFNE01.JPG,AFNE01.JPG,AFNE01.JPG,AFNE01.JPG,AFNE01.JPG,AFNE01.JPG,,,,,,,,,,,,,,,,,,,,,1,7,17,0,,,AMNE03.jpg,AMSA08.jpg,AMSA14.jpg,AMNE20.jpg,AMNE20.jpg,MN,1,num_4,32,num_2,1.3501162522,,,2017_Apr_03_1242,60.0051002069,FEMA4ImagesEEG,001,100144,
AFNE01.JPG,AFNE01.JPG,AFNE01.JPG,AFNE01.JPG,AFNE01.JPG,AFNE01.JPG,,,,,,,,,,,,,,,,,,,,,1,8,18,1,,,AMNE14.jpg,AMNE10.jpg,AMSA10.jpg,AMSA06.jpg,AMSA10.jpg,MS,2,num_2,16,num_2,1.35008225357,,,2017_Apr_03_1242,60.0051002069,FEMA4ImagesEEG,001,100144,
AFNE01.JPG,AFNE01.JPG,AFNE01.JPG,AFNE01.JPG,AFNE01.JPG,AFNE01.JPG,,,,,,,,,,,,,,,,,,,,,1,9,19,9,,,AMSA15.jpg,AMNE08.jpg,AMSA17.jpg,AMNE20.jpg,AMSA17.jpg,MS,2,num_2,16,num_2,1.0501620858,,,2017_Apr_03_1242,60.0051002069,FEMA4ImagesEEG,001,100144,
AFNE01.JPG,AFNE01.JPG,AFNE01.JPG,AFNE01.JPG,AFNE01.JPG,AFNE01.JPG,,,,,,,,,,,,,,,,,,,,,2,0,20,9,,,AMSA02.jpg,AMNE03.jpg,AMNE13.jpg,AMSA09.jpg,AMNE13.jpg,MN,1,num_2,32,num_4,0.933443304151,,,2017_Apr_03_1242,60.0051002069,FEMA4ImagesEEG,001,100144,
AFNE01.JPG,AFNE01.JPG,AFNE01.JPG,AFNE01.JPG,AFNE01.JPG,AFNE01.JPG,,,,,,,,,,,,,,,,,,,,,2,1,21,6,,,AMSA19.jpg,AMSA20.jpg,AMNE18.jpg,AMNE01.jpg,AMNE18.jpg,MN,1,num_2,32,num_6,1.08340835967,,,2017_Apr_03_1242,60.0051002069,FEMA4ImagesEEG,001,100144,
AFNE01.JPG,AFNE01.JPG,AFNE01.JPG,AFNE01.JPG,AFNE01.JPG,AFNE01.JPG,,,,,,,,,,,,,,,,,,,,,2,2,22,1,,,AMNE08.jpg,AMSA18.jpg,AMSA02.jpg,AMNE13.jpg,AMNE08.jpg,MN,1,num_8,32,num_2,1.68339687726,,,2017_Apr_03_1242,60.0051002069,FEMA4ImagesEEG,001,100144,
AFNE01.JPG,AFNE01.JPG,AFNE01.JPG,AFNE01.JPG,AFNE01.JPG,AFNE01.JPG,,,,,,,,,,,,,,,,,,,,,2,3,23,0,,,AMNE20.jpg,AMSA05.jpg,AMSA06.jpg,AMNE10.jpg,AMSA06.jpg,MS,2,num_2,32,num_4,0.833847853355,,,2017_Apr_03_1242,60.0051002069,FEMA4ImagesEEG,001,100144,
AFNE01.JPG,AFNE01.JPG,AFNE01.JPG,AFNE01.JPG,AFNE01.JPG,AFNE01.JPG,,,,,,,,,,,,,,,,,,,,,2,4,24,2,,,AMNE09.jpg,AMSA13.jpg,AMNE20.jpg,AMSA03.jpg,AMSA13.jpg,MS,2,num_6,16,num_6,0.700125056319,,,2017_Apr_03_1242,60.0051002069,FEMA4ImagesEEG,001,100144,
AFNE01.JPG,AFNE01.JPG,AFNE01.JPG,AFNE01.JPG,AFNE01.JPG,AFNE01.JPG,,,,,,,,,,,,,,,,,,,,,2,5,25,5,,,AMSA20.jpg,AMNE10.jpg,AMNE09.jpg,AMSA17.jpg,AMSA20.jpg,MS,2,num_8,16,num_8,0.883478473406,,,2017_Apr_03_1242,60.0051002069,FEMA4ImagesEEG,001,100144,
AFNE01.JPG,AFNE01.JPG,AFNE01.JPG,AFNE01.JPG,AFNE01.JPG,AFNE01.JPG,,,,,,,,,,,,,,,,,,,,,2,6,26,8,,,AMSA15.jpg,AMNE16.jpg,AMSA19.jpg,AMNE07.jpg,AMSA15.jpg,MS,2,num_8,16,num_8,0.766778615536,,,2017_Apr_03_1242,60.0051002069,FEMA4ImagesEEG,001,100144,
AFNE01.JPG,AFNE01.JPG,AFNE01.JPG,AFNE01.JPG,AFNE01.JPG,AFNE01.JPG,,,,,,,,,,,,,,,,,,,,,2,7,27,3,,,AMSA09.jpg,AMSA10.jpg,AMNE02.jpg,AMNE16.jpg,AMSA09.jpg,MS,2,num_8,16,num_8,0.800164411077,,,2017_Apr_03_1242,60.0051002069,FEMA4ImagesEEG,001,100144,
AFNE01.JPG,AFNE01.JPG,AFNE01.JPG,AFNE01.JPG,AFNE01.JPG,AFNE01.JPG,,,,,,,,,,,,,,,,,,,,,2,8,28,7,,,AMNE12.jpg,AMSA01.jpg,AMSA14.jpg,AMNE08.jpg,AMNE12.jpg,MN,1,num_8,16,num_8,2.31664706417,,,2017_Apr_03_1242,60.0051002069,FEMA4ImagesEEG,001,100144,
AFNE01.JPG,AFNE01.JPG,AFNE01.JPG,AFNE01.JPG,AFNE01.JPG,AFNE01.JPG,,,,,,,,,,,,,,,,,,,,,2,9,29,4,,,AMSA03.jpg,AMSA15.jpg,AMNE12.jpg,AMNE02.jpg,AMNE12.jpg,MN,1,num_2,32,num_6,0.983437322546,,,2017_Apr_03_1242,60.0051002069,FEMA4ImagesEEG,001,100144,
AFNE01.JPG,AFNE01.JPG,AFNE01.JPG,AFNE01.JPG,AFNE01.JPG,AFNE01.JPG,,,,,,,,,,,,,,,,,,,,,3,0,30,0,,,AMSA06.jpg,AMNE20.jpg,AMSA05.jpg,AMNE16.jpg,AMNE16.jpg,MN,1,num_4,16,num_4,0.766779256985,,,2017_Apr_03_1242,60.0051002069,FEMA4ImagesEEG,001,100144,
AFNE01.JPG,AFNE01.JPG,AFNE01.JPG,AFNE01.JPG,AFNE01.JPG,AFNE01.JPG,,,,,,,,,,,,,,,,,,,,,3,1,31,9,,,AMNE16.jpg,AMSA09.jpg,AMSA16.jpg,AMNE14.jpg,AMNE16.jpg,MN,1,num_8,16,num_8,0.916741105029,,,2017_Apr_03_1242,60.0051002069,FEMA4ImagesEEG,001,100144,
AFNE01.JPG,AFNE01.JPG,AFNE01.JPG,AFNE01.JPG,AFNE01.JPG,AFNE01.JPG,,,,,,,,,,,,,,,,,,,,,3,2,32,6,,,AMNE07.jpg,AMSA08.jpg,AMSA02.jpg,AMNE03.jpg,AMNE03.jpg,MN,1,num_4,32,num_2,2.09992645425,,,2017_Apr_03_1242,60.0051002069,FEMA4ImagesEEG,001,100144,
AFNE01.JPG,AFNE01.JPG,AFNE01.JPG,AFNE01.JPG,AFNE01.JPG,AFNE01.JPG,,,,,,,,,,,,,,,,,,,,,3,3,33,1,,,AMSA15.jpg,AMSA06.jpg,AMNE17.jpg,AMNE12.jpg,AMSA06.jpg,MS,2,num_6,32,num_8,0.850097488845,,,2017_Apr_03_1242,60.0051002069,FEMA4ImagesEEG,001,100144,
AFNE01.JPG,AFNE01.JPG,AFNE01.JPG,AFNE01.JPG,AFNE01.JPG,AFNE01.JPG,,,,,,,,,,,,,,,,,,,,,3,4,34,2,,,AMNE01.jpg,AMSA07.jpg,AMNE05.jpg,AMSA20.jpg,AMNE01.jpg,MN,1,num_8,32,num_4,0.850141750881,,,2017_Apr_03_1242,60.0051002069,FEMA4ImagesEEG,001,100144,
AFNE01.JPG,AFNE01.JPG,AFNE01.JPG,AFNE01.JPG,AFNE01.JPG,AFNE01.JPG,,,,,,,,,,,,,,,,,,,,,3,5,35,8,,,AMNE19.jpg,AMSA16.jpg,AMSA09.jpg,AMNE09.jpg,AMNE09.jpg,MN,1,num_4,32,num_6,0.616756468546,,,2017_Apr_03_1242,60.0051002069,FEMA4ImagesEEG,001,100144,
AFNE01.JPG,AFNE01.JPG,AFNE01.JPG,AFNE01.JPG,AFNE01.JPG,AFNE01.JPG,,,,,,,,,,,,,,,,,,,,,3,6,36,3,,,AMSA07.jpg,AMSA12.jpg,AMNE12.jpg,AMNE10.jpg,AMSA12.jpg,MS,2,num_6,32,num_4,0.316810320597,,,2017_Apr_03_1242,60.0051002069,FEMA4ImagesEEG,001,100144,
AFNE01.JPG,AFNE01.JPG,AFNE01.JPG,AFNE01.JPG,AFNE01.JPG,AFNE01.JPG,,,,,,,,,,,,,,,,,,,,,3,7,37,4,,,AMNE17.jpg,AMNE20.jpg,AMSA13.jpg,AMSA08.jpg,AMNE20.jpg,MN,1,num_6,32,num_8,0.83344340045,,,2017_Apr_03_1242,60.0051002069,FEMA4ImagesEEG,001,100144,
AFNE01.JPG,AFNE01.JPG,AFNE01.JPG,AFNE01.JPG,AFNE01.JPG,AFNE01.JPG,,,,,,,,,,,,,,,,,,,,,3,8,38,5,,,AMNE12.jpg,AMNE02.jpg,AMSA09.jpg,AMSA05.jpg,AMNE02.jpg,MN,1,num_6,32,num_4,1.13343509333,,,2017_Apr_03_1242,60.0051002069,FEMA4ImagesEEG,001,100144,
AFNE01.JPG,AFNE01.JPG,AFNE01.JPG,AFNE01.JPG,AFNE01.JPG,AFNE01.JPG,,,,,,,,,,,,,,,,,,,,,3,9,39,7,,,AMSA09.jpg,AMNE06.jpg,AMSA16.jpg,AMNE17.jpg,AMSA16.jpg,MS,2,num_2,16,num_2,1.20008191699,,,2017_Apr_03_1242,60.0051002069,FEMA4ImagesEEG,001,100144,
