IPosition2,IPosition3,IPosition1,IPosition6,IPosition4,IPosition5,TrialsF1.thisRepN,TrialsF1.thisTrialN,TrialsF1.thisN,TrialsF1.thisIndex,TrialsM1.thisRepN,TrialsM1.thisTrialN,TrialsM1.thisN,TrialsM1.thisIndex,TrialsF2.thisRepN,TrialsF2.thisTrialN,TrialsF2.thisN,TrialsF2.thisIndex,TrialsM2.thisRepN,TrialsM2.thisTrialN,TrialsM2.thisN,TrialsM2.thisIndex,TrialsF3.thisRepN,TrialsF3.thisTrialN,TrialsF3.thisN,TrialsF3.thisIndex,TrialsM3.thisRepN,TrialsM3.thisTrialN,TrialsM3.thisN,TrialsM3.thisIndex,InstrKey_resp.keys,InstrKey_resp.rt,Image0 _Position,Image1 _Position,Image2 _Position,Image3 _Position,Center_image,condition,code,correct_answer,accuracy,Key_Resp.keys,Key_Resp.rt,BreakKey_resp.keys,BreakKey_resp.rt,date,frameRate,expName,session,participant,
,,,,,,,,,,,,,,,,,,,,,,,,,,,,,,space,17.1158508598,,,,,,,,,,,,,,2017_Apr_05_1133,60.0128386814,FEMA4ImagesEEG,001,100110,
AFSA21.JPG,AFNE23.JPG,AFNE21.JPG,AFSA25.JPG,AFNE25.JPG,AFSA23.JPG,0,0,0,4,,,,,,,,,,,,,,,,,,,,,,,AFSA19.jpg,AFSA15.jpg,AFNE15.jpg,AFNE04.jpg,AFNE15.jpg,FN,3,num_2,48,None,,,,2017_Apr_05_1133,60.0128386814,FEMA4ImagesEEG,001,100110,
AMSA25.JPG,AMNE24.JPG,AMSA24.JPG,AMNE26.JPG,AMSA21.JPG,AMNE25.JPG,0,1,1,3,,,,,,,,,,,,,,,,,,,,,,,AFNE13.jpg,AFNE07.jpg,AFSA07.jpg,AFSA10.jpg,AFNE13.jpg,FN,3,num_8,48,None,,,,2017_Apr_05_1133,60.0128386814,FEMA4ImagesEEG,001,100110,
AMNE23.JPG,AMNE24.JPG,AMNE22.JPG,AMSA24.JPG,AMSA22.JPG,AMSA23.JPG,0,2,2,9,,,,,,,,,,,,,,,,,,,,,,,AFNE03.jpg,AFSA18.jpg,AFNE06.jpg,AFSA02.jpg,AFNE03.jpg,FN,3,num_8,32,num_4,1.78338363068,,,2017_Apr_05_1133,60.0128386814,FEMA4ImagesEEG,001,100110,
AFSA21.JPG,AFNE22.JPG,AFNE21.JPG,AFSA23.JPG,AFSA22.JPG,AFNE23.JPG,0,3,3,0,,,,,,,,,,,,,,,,,,,,,,,AFSA11.jpg,AFNE17.jpg,AFSA15.jpg,AFNE04.jpg,AFSA15.jpg,FS,4,num_2,48,None,,,,2017_Apr_05_1133,60.0128386814,FEMA4ImagesEEG,001,100110,
AFNE22.JPG,AFSA24.JPG,AFSA22.JPG,AFNE25.JPG,AFNE24.JPG,AFSA25.JPG,0,4,4,6,,,,,,,,,,,,,,,,,,,,,,,AFSA03.jpg,AFNE09.jpg,AFSA04.jpg,AFNE10.jpg,AFSA03.jpg,FS,4,num_8,16,num_8,1.05012552137,,,2017_Apr_05_1133,60.0128386814,FEMA4ImagesEEG,001,100110,
AMNE22.JPG,AMSA24.JPG,AMSA22.JPG,AMNE25.JPG,AMNE24.JPG,AMSA25.JPG,0,5,5,7,,,,,,,,,,,,,,,,,,,,,,,AFSA12.jpg,AFSA18.jpg,AFNE10.jpg,AFNE09.jpg,AFNE10.jpg,FN,3,num_2,32,num_6,3.29996731668,,,2017_Apr_05_1133,60.0128386814,FEMA4ImagesEEG,001,100110,
AMSA21.JPG,AMNE23.JPG,AMNE21.JPG,AMSA25.JPG,AMNE25.JPG,AMSA23.JPG,0,6,6,5,,,,,,,,,,,,,,,,,,,,,,,AFNE10.jpg,AFNE06.jpg,AFSA04.jpg,AFSA01.jpg,AFSA01.jpg,FS,4,num_4,16,num_4,1.2667223257,,,2017_Apr_05_1133,60.0128386814,FEMA4ImagesEEG,001,100110,
AFNE23.JPG,AFNE24.JPG,AFNE22.JPG,AFSA24.JPG,AFSA22.JPG,AFSA23.JPG,0,7,7,8,,,,,,,,,,,,,,,,,,,,,,,AFSA06.jpg,AFNE17.jpg,AFNE12.jpg,AFSA16.jpg,AFNE17.jpg,FN,3,num_6,16,num_6,2.69999932637,,,2017_Apr_05_1133,60.0128386814,FEMA4ImagesEEG,001,100110,
AFSA25.JPG,AFNE24.JPG,AFSA24.JPG,AFNE21.JPG,AFSA21.JPG,AFNE25.JPG,0,8,8,2,,,,,,,,,,,,,,,,,,,,,,,AFSA01.jpg,AFNE15.jpg,AFSA14.jpg,AFNE14.jpg,AFNE15.jpg,FN,3,num_6,32,num_2,2.6164998766,,,2017_Apr_05_1133,60.0128386814,FEMA4ImagesEEG,001,100110,
AMSA21.JPG,AMNE22.JPG,AMNE21.JPG,AMSA23.JPG,AMSA22.JPG,AMNE23.JPG,0,9,9,1,,,,,,,,,,,,,,,,,,,,,,,AFSA16.jpg,AFNE10.jpg,AFSA12.jpg,AFNE06.jpg,AFNE06.jpg,FN,3,num_4,32,num_8,1.283457882,,,2017_Apr_05_1133,60.0128386814,FEMA4ImagesEEG,001,100110,
AFSA21.JPG,AFNE22.JPG,AFNE21.JPG,AFSA23.JPG,AFSA22.JPG,AFNE23.JPG,,,,,0,0,0,0,,,,,,,,,,,,,,,,,,,AMSA03.jpg,AMSA13.jpg,AMNE04.jpg,AMNE20.jpg,AMSA13.jpg,MS,2,num_6,32,num_4,1.1501180483,,,2017_Apr_05_1133,60.0128386814,FEMA4ImagesEEG,001,100110,
AMSA21.JPG,AMNE22.JPG,AMNE21.JPG,AMSA23.JPG,AMSA22.JPG,AMNE23.JPG,,,,,0,1,1,1,,,,,,,,,,,,,,,,,,,AMSA10.jpg,AMNE02.jpg,AMSA12.jpg,AMNE05.jpg,AMSA12.jpg,MS,2,num_2,32,num_6,4.68315054919,,,2017_Apr_05_1133,60.0128386814,FEMA4ImagesEEG,001,100110,
AMSA21.JPG,AMNE23.JPG,AMNE21.JPG,AMSA25.JPG,AMNE25.JPG,AMSA23.JPG,,,,,0,2,2,5,,,,,,,,,,,,,,,,,,,AMNE11.jpg,AMSA16.jpg,AMNE18.jpg,AMSA06.jpg,AMNE18.jpg,MN,1,num_2,32,num_8,1.35006461316,,,2017_Apr_05_1133,60.0128386814,FEMA4ImagesEEG,001,100110,
AFSA25.JPG,AFNE24.JPG,AFSA24.JPG,AFNE21.JPG,AFSA21.JPG,AFNE25.JPG,,,,,0,3,3,2,,,,,,,,,,,,,,,,,,,AMNE02.jpg,AMNE05.jpg,AMSA04.jpg,AMSA20.jpg,AMSA20.jpg,MS,2,num_4,32,num_2,1.75009758514,,,2017_Apr_05_1133,60.0128386814,FEMA4ImagesEEG,001,100110,
AFNE23.JPG,AFNE24.JPG,AFNE22.JPG,AFSA24.JPG,AFSA22.JPG,AFSA23.JPG,,,,,0,4,4,8,,,,,,,,,,,,,,,,,,,AMNE01.jpg,AMSA08.jpg,AMSA15.jpg,AMNE02.jpg,AMNE01.jpg,MN,1,num_8,16,num_8,1.3165999155,,,2017_Apr_05_1133,60.0128386814,FEMA4ImagesEEG,001,100110,
AMNE23.JPG,AMNE24.JPG,AMNE22.JPG,AMSA24.JPG,AMSA22.JPG,AMSA23.JPG,,,,,0,5,5,9,,,,,,,,,,,,,,,,,,,AMSA03.jpg,AMNE04.jpg,AMNE19.jpg,AMSA06.jpg,AMNE19.jpg,MN,1,num_2,32,num_4,1.18336528423,,,2017_Apr_05_1133,60.0128386814,FEMA4ImagesEEG,001,100110,
AFNE22.JPG,AFSA24.JPG,AFSA22.JPG,AFNE25.JPG,AFNE24.JPG,AFSA25.JPG,,,,,0,6,6,6,,,,,,,,,,,,,,,,,,,AMNE01.jpg,AMSA17.jpg,AMSA05.jpg,AMNE03.jpg,AMNE03.jpg,MN,1,num_4,32,num_8,1.31677888823,,,2017_Apr_05_1133,60.0128386814,FEMA4ImagesEEG,001,100110,
AMNE22.JPG,AMSA24.JPG,AMSA22.JPG,AMNE25.JPG,AMNE24.JPG,AMSA25.JPG,,,,,0,7,7,7,,,,,,,,,,,,,,,,,,,AMNE02.jpg,AMSA01.jpg,AMNE10.jpg,AMSA15.jpg,AMNE10.jpg,MN,1,num_2,32,num_4,1.466754528,,,2017_Apr_05_1133,60.0128386814,FEMA4ImagesEEG,001,100110,
AMSA25.JPG,AMNE24.JPG,AMSA24.JPG,AMNE26.JPG,AMSA21.JPG,AMNE25.JPG,,,,,0,8,8,3,,,,,,,,,,,,,,,,,,,AMNE19.jpg,AMNE02.jpg,AMSA12.jpg,AMSA08.jpg,AMSA12.jpg,MS,2,num_2,16,num_2,1.30008246214,,,2017_Apr_05_1133,60.0128386814,FEMA4ImagesEEG,001,100110,
AFSA21.JPG,AFNE23.JPG,AFNE21.JPG,AFSA25.JPG,AFNE25.JPG,AFSA23.JPG,,,,,0,9,9,4,,,,,,,,,,,,,,,,,,,AMSA08.jpg,AMNE01.jpg,AMNE10.jpg,AMSA20.jpg,AMSA20.jpg,MS,2,num_4,16,num_4,0.800113092875,,,2017_Apr_05_1133,60.0128386814,FEMA4ImagesEEG,001,100110,
AMNE22.JPG,AMSA24.JPG,AMSA22.JPG,AMNE25.JPG,AMNE24.JPG,AMSA25.JPG,,,,,,,,,0,0,0,7,,,,,,,,,,,,,,,AFNE06.jpg,AFSA13.jpg,AFSA04.jpg,AFNE02.jpg,AFNE06.jpg,FN,3,num_8,16,num_8,1.61671252712,,,2017_Apr_05_1133,60.0128386814,FEMA4ImagesEEG,001,100110,
AFSA21.JPG,AFNE23.JPG,AFNE21.JPG,AFSA25.JPG,AFNE25.JPG,AFSA23.JPG,,,,,,,,,0,1,1,4,,,,,,,,,,,,,,,AFSA10.jpg,AFNE19.jpg,AFSA20.jpg,AFNE04.jpg,AFNE19.jpg,FN,3,num_6,16,num_6,1.46673303843,,,2017_Apr_05_1133,60.0128386814,FEMA4ImagesEEG,001,100110,
AMSA21.JPG,AMNE22.JPG,AMNE21.JPG,AMSA23.JPG,AMSA22.JPG,AMNE23.JPG,,,,,,,,,0,2,2,1,,,,,,,,,,,,,,,AFNE16.jpg,AFSA07.jpg,AFNE17.jpg,AFSA10.jpg,AFNE16.jpg,FN,3,num_8,32,num_4,0.883468851214,,,2017_Apr_05_1133,60.0128386814,FEMA4ImagesEEG,001,100110,
AFNE22.JPG,AFSA24.JPG,AFSA22.JPG,AFNE25.JPG,AFNE24.JPG,AFSA25.JPG,,,,,,,,,0,3,3,6,,,,,,,,,,,,,,,AFSA06.jpg,AFNE15.jpg,AFSA14.jpg,AFNE02.jpg,AFNE02.jpg,FN,3,num_4,16,num_4,1.73343644035,,,2017_Apr_05_1133,60.0128386814,FEMA4ImagesEEG,001,100110,
AMNE23.JPG,AMNE24.JPG,AMNE22.JPG,AMSA24.JPG,AMSA22.JPG,AMSA23.JPG,,,,,,,,,0,4,4,9,,,,,,,,,,,,,,,AFSA07.jpg,AFNE13.jpg,AFSA13.jpg,AFNE15.jpg,AFSA07.jpg,FS,4,num_8,32,num_4,1.01677693147,,,2017_Apr_05_1133,60.0128386814,FEMA4ImagesEEG,001,100110,
AMSA25.JPG,AMNE24.JPG,AMSA24.JPG,AMNE26.JPG,AMSA21.JPG,AMNE25.JPG,,,,,,,,,0,5,5,3,,,,,,,,,,,,,,,AFSA19.jpg,AFNE10.jpg,AFNE13.jpg,AFSA11.jpg,AFNE13.jpg,FN,3,num_2,32,num_6,1.58361700084,,,2017_Apr_05_1133,60.0128386814,FEMA4ImagesEEG,001,100110,
AFSA25.JPG,AFNE24.JPG,AFSA24.JPG,AFNE21.JPG,AFSA21.JPG,AFNE25.JPG,,,,,,,,,0,6,6,2,,,,,,,,,,,,,,,AFNE03.jpg,AFSA10.jpg,AFSA19.jpg,AFNE20.jpg,AFNE03.jpg,FN,3,num_8,16,num_8,1.01673395257,,,2017_Apr_05_1133,60.0128386814,FEMA4ImagesEEG,001,100110,
AFNE23.JPG,AFNE24.JPG,AFNE22.JPG,AFSA24.JPG,AFSA22.JPG,AFSA23.JPG,,,,,,,,,0,7,7,8,,,,,,,,,,,,,,,AFNE17.jpg,AFSA16.jpg,AFNE10.jpg,AFSA10.jpg,AFNE10.jpg,FN,3,num_2,16,num_2,1.25015323353,,,2017_Apr_05_1133,60.0128386814,FEMA4ImagesEEG,001,100110,
AFSA21.JPG,AFNE22.JPG,AFNE21.JPG,AFSA23.JPG,AFSA22.JPG,AFNE23.JPG,,,,,,,,,0,8,8,0,,,,,,,,,,,,,,,AFSA16.jpg,AFNE09.jpg,AFNE20.jpg,AFSA05.jpg,AFNE09.jpg,FN,3,num_6,32,num_4,0.933448436204,,,2017_Apr_05_1133,60.0128386814,FEMA4ImagesEEG,001,100110,
AMSA21.JPG,AMNE23.JPG,AMNE21.JPG,AMSA25.JPG,AMNE25.JPG,AMSA23.JPG,,,,,,,,,0,9,9,5,,,,,,,,,,,,,,,AFNE08.jpg,AFSA14.jpg,AFNE09.jpg,AFSA05.jpg,AFNE08.jpg,FN,3,num_8,32,num_2,1.36669817404,,,2017_Apr_05_1133,60.0128386814,FEMA4ImagesEEG,001,100110,
AFNE23.JPG,AFNE24.JPG,AFNE22.JPG,AFSA24.JPG,AFSA22.JPG,AFSA23.JPG,,,,,,,,,,,,,0,0,0,8,,,,,,,,,,,AMSA08.jpg,AMNE10.jpg,AMSA10.jpg,AMNE19.jpg,AMNE19.jpg,MN,1,num_4,32,num_6,1.5333862768,,,2017_Apr_05_1133,60.0128386814,FEMA4ImagesEEG,001,100110,
AMNE23.JPG,AMNE24.JPG,AMNE22.JPG,AMSA24.JPG,AMSA22.JPG,AMSA23.JPG,,,,,,,,,,,,,0,1,1,9,,,,,,,,,,,AMNE08.jpg,AMSA19.jpg,AMNE15.jpg,AMSA17.jpg,AMNE15.jpg,MN,1,num_2,32,num_8,1.65010826569,,,2017_Apr_05_1133,60.0128386814,FEMA4ImagesEEG,001,100110,
AMSA25.JPG,AMNE24.JPG,AMSA24.JPG,AMNE26.JPG,AMSA21.JPG,AMNE25.JPG,,,,,,,,,,,,,0,2,2,3,,,,,,,,,,,AMNE08.jpg,AMNE06.jpg,AMSA05.jpg,AMSA08.jpg,AMSA08.jpg,MS,2,num_4,16,num_4,1.26676947437,,,2017_Apr_05_1133,60.0128386814,FEMA4ImagesEEG,001,100110,
AMNE22.JPG,AMSA24.JPG,AMSA22.JPG,AMNE25.JPG,AMNE24.JPG,AMSA25.JPG,,,,,,,,,,,,,0,3,3,7,,,,,,,,,,,AMNE17.jpg,AMNE15.jpg,AMSA18.jpg,AMSA19.jpg,AMSA18.jpg,MS,2,num_2,16,num_2,1.63342595217,,,2017_Apr_05_1133,60.0128386814,FEMA4ImagesEEG,001,100110,
AFNE22.JPG,AFSA24.JPG,AFSA22.JPG,AFNE25.JPG,AFNE24.JPG,AFSA25.JPG,,,,,,,,,,,,,0,4,4,6,,,,,,,,,,,AMSA11.jpg,AMNE03.jpg,AMSA08.jpg,AMNE07.jpg,AMNE07.jpg,MN,1,num_4,32,num_8,1.11681596562,,,2017_Apr_05_1133,60.0128386814,FEMA4ImagesEEG,001,100110,
AMSA21.JPG,AMNE22.JPG,AMNE21.JPG,AMSA23.JPG,AMSA22.JPG,AMNE23.JPG,,,,,,,,,,,,,0,5,5,1,,,,,,,,,,,AMNE16.jpg,AMNE10.jpg,AMSA10.jpg,AMSA11.jpg,AMSA11.jpg,MS,2,num_4,32,num_2,0.800176919904,,,2017_Apr_05_1133,60.0128386814,FEMA4ImagesEEG,001,100110,
AFSA21.JPG,AFNE23.JPG,AFNE21.JPG,AFSA25.JPG,AFNE25.JPG,AFSA23.JPG,,,,,,,,,,,,,0,6,6,4,,,,,,,,,,,AMSA19.jpg,AMSA20.jpg,AMNE05.jpg,AMNE04.jpg,AMSA19.jpg,MS,2,num_8,32,num_6,2.11670787632,,,2017_Apr_05_1133,60.0128386814,FEMA4ImagesEEG,001,100110,
AFSA25.JPG,AFNE24.JPG,AFSA24.JPG,AFNE21.JPG,AFSA21.JPG,AFNE25.JPG,,,,,,,,,,,,,0,7,7,2,,,,,,,,,,,AMSA19.jpg,AMNE20.jpg,AMNE12.jpg,AMSA03.jpg,AMSA19.jpg,MS,2,num_8,32,num_2,2.69999034563,,,2017_Apr_05_1133,60.0128386814,FEMA4ImagesEEG,001,100110,
AMSA21.JPG,AMNE23.JPG,AMNE21.JPG,AMSA25.JPG,AMNE25.JPG,AMSA23.JPG,,,,,,,,,,,,,0,8,8,5,,,,,,,,,,,AMNE08.jpg,AMSA19.jpg,AMNE06.jpg,AMSA18.jpg,AMNE08.jpg,MN,1,num_8,16,num_8,0.866758954246,,,2017_Apr_05_1133,60.0128386814,FEMA4ImagesEEG,001,100110,
AFSA21.JPG,AFNE22.JPG,AFNE21.JPG,AFSA23.JPG,AFSA22.JPG,AFNE23.JPG,,,,,,,,,,,,,0,9,9,0,,,,,,,,,,,AMSA12.jpg,AMSA04.jpg,AMNE09.jpg,AMNE14.jpg,AMNE09.jpg,MN,1,num_2,32,num_6,1.93337530759,,,2017_Apr_05_1133,60.0128386814,FEMA4ImagesEEG,001,100110,
AFNE22.JPG,AFSA24.JPG,AFSA22.JPG,AFNE25.JPG,AFNE24.JPG,AFSA25.JPG,,,,,,,,,,,,,,,,,0,0,0,6,,,,,,,AFNE18.jpg,AFSA10.jpg,AFNE09.jpg,AFSA18.jpg,AFSA18.jpg,FS,4,num_4,16,num_4,1.71672622254,,,2017_Apr_05_1133,60.0128386814,FEMA4ImagesEEG,001,100110,
AMSA21.JPG,AMNE22.JPG,AMNE21.JPG,AMSA23.JPG,AMSA22.JPG,AMNE23.JPG,,,,,,,,,,,,,,,,,0,1,1,1,,,,,,,AFSA07.jpg,AFNE19.jpg,AFNE14.jpg,AFSA02.jpg,AFNE19.jpg,FN,3,num_6,32,num_8,1.18344771443,,,2017_Apr_05_1133,60.0128386814,FEMA4ImagesEEG,001,100110,
AMSA21.JPG,AMNE23.JPG,AMNE21.JPG,AMSA25.JPG,AMNE25.JPG,AMSA23.JPG,,,,,,,,,,,,,,,,,0,2,2,5,,,,,,,AFSA09.jpg,AFSA01.jpg,AFNE01.jpg,AFNE10.jpg,AFSA09.jpg,FS,4,num_8,32,num_6,2.38305365364,,,2017_Apr_05_1133,60.0128386814,FEMA4ImagesEEG,001,100110,
AMNE23.JPG,AMNE24.JPG,AMNE22.JPG,AMSA24.JPG,AMSA22.JPG,AMSA23.JPG,,,,,,,,,,,,,,,,,0,3,3,9,,,,,,,AFSA14.jpg,AFNE05.jpg,AFSA10.jpg,AFNE14.jpg,AFSA14.jpg,FS,4,num_8,32,num_2,0.916805894347,,,2017_Apr_05_1133,60.0128386814,FEMA4ImagesEEG,001,100110,
AMSA25.JPG,AMNE24.JPG,AMSA24.JPG,AMNE26.JPG,AMSA21.JPG,AMNE25.JPG,,,,,,,,,,,,,,,,,0,4,4,3,,,,,,,AFNE05.jpg,AFNE11.jpg,AFSA03.jpg,AFSA19.jpg,AFSA19.jpg,FS,4,num_4,16,num_4,1.066641371,,,2017_Apr_05_1133,60.0128386814,FEMA4ImagesEEG,001,100110,
AMNE22.JPG,AMSA24.JPG,AMSA22.JPG,AMNE25.JPG,AMNE24.JPG,AMSA25.JPG,,,,,,,,,,,,,,,,,0,5,5,7,,,,,,,AFNE08.jpg,AFSA11.jpg,AFSA12.jpg,AFNE15.jpg,AFSA12.jpg,FS,4,num_2,16,num_2,1.01679361006,,,2017_Apr_05_1133,60.0128386814,FEMA4ImagesEEG,001,100110,
AFNE23.JPG,AFNE24.JPG,AFNE22.JPG,AFSA24.JPG,AFSA22.JPG,AFSA23.JPG,,,,,,,,,,,,,,,,,0,6,6,8,,,,,,,AFSA17.jpg,AFNE16.jpg,AFNE04.jpg,AFSA01.jpg,AFNE16.jpg,FN,3,num_6,32,num_8,0.900151164737,,,2017_Apr_05_1133,60.0128386814,FEMA4ImagesEEG,001,100110,
AFSA25.JPG,AFNE24.JPG,AFSA24.JPG,AFNE21.JPG,AFSA21.JPG,AFNE25.JPG,,,,,,,,,,,,,,,,,0,7,7,2,,,,,,,AFNE05.jpg,AFNE04.jpg,AFSA01.jpg,AFSA19.jpg,AFNE05.jpg,FN,3,num_8,32,num_2,1.08344716928,,,2017_Apr_05_1133,60.0128386814,FEMA4ImagesEEG,001,100110,
AFSA21.JPG,AFNE22.JPG,AFNE21.JPG,AFSA23.JPG,AFSA22.JPG,AFNE23.JPG,,,,,,,,,,,,,,,,,0,8,8,0,,,,,,,AFNE08.jpg,AFSA13.jpg,AFNE09.jpg,AFSA02.jpg,AFNE08.jpg,FN,3,num_8,32,num_2,1.20010693464,,,2017_Apr_05_1133,60.0128386814,FEMA4ImagesEEG,001,100110,
AFSA21.JPG,AFNE23.JPG,AFNE21.JPG,AFSA25.JPG,AFNE25.JPG,AFSA23.JPG,,,,,,,,,,,,,,,,,0,9,9,4,,,,,,,AFNE06.jpg,AFSA02.jpg,AFNE08.jpg,AFSA04.jpg,AFNE08.jpg,FN,3,num_2,16,num_2,0.966648523463,,,2017_Apr_05_1133,60.0128386814,FEMA4ImagesEEG,001,100110,
AMNE23.JPG,AMNE24.JPG,AMNE22.JPG,AMSA24.JPG,AMSA22.JPG,AMSA23.JPG,,,,,,,,,,,,,,,,,,,,,0,0,0,9,,,AMSA16.jpg,AMNE02.jpg,AMSA02.jpg,AMNE20.jpg,AMSA16.jpg,MS,2,num_8,32,num_4,1.03347335756,,,2017_Apr_05_1133,60.0128386814,FEMA4ImagesEEG,001,100110,
AMSA21.JPG,AMNE23.JPG,AMNE21.JPG,AMSA25.JPG,AMNE25.JPG,AMSA23.JPG,,,,,,,,,,,,,,,,,,,,,0,1,1,5,,,AMSA20.jpg,AMNE15.jpg,AMNE17.jpg,AMSA15.jpg,AMSA15.jpg,MS,2,num_4,16,num_4,0.950158974621,,,2017_Apr_05_1133,60.0128386814,FEMA4ImagesEEG,001,100110,
AFSA25.JPG,AFNE24.JPG,AFSA24.JPG,AFNE21.JPG,AFSA21.JPG,AFNE25.JPG,,,,,,,,,,,,,,,,,,,,,0,2,2,2,,,AMNE06.jpg,AMSA10.jpg,AMNE15.jpg,AMSA04.jpg,AMSA04.jpg,MS,2,num_4,32,num_6,1.03347752709,,,2017_Apr_05_1133,60.0128386814,FEMA4ImagesEEG,001,100110,
AFNE23.JPG,AFNE24.JPG,AFNE22.JPG,AFSA24.JPG,AFSA22.JPG,AFSA23.JPG,,,,,,,,,,,,,,,,,,,,,0,3,3,8,,,AMNE04.jpg,AMSA10.jpg,AMSA07.jpg,AMNE16.jpg,AMSA07.jpg,MS,2,num_2,32,num_6,0.916551547823,,,2017_Apr_05_1133,60.0128386814,FEMA4ImagesEEG,001,100110,
AMSA25.JPG,AMNE24.JPG,AMSA24.JPG,AMNE26.JPG,AMSA21.JPG,AMNE25.JPG,,,,,,,,,,,,,,,,,,,,,0,4,4,3,,,AMSA18.jpg,AMNE07.jpg,AMSA05.jpg,AMNE06.jpg,AMSA18.jpg,MS,2,num_8,32,num_6,1.70004711649,,,2017_Apr_05_1133,60.0128386814,FEMA4ImagesEEG,001,100110,
AMNE22.JPG,AMSA24.JPG,AMSA22.JPG,AMNE25.JPG,AMNE24.JPG,AMSA25.JPG,,,,,,,,,,,,,,,,,,,,,0,5,5,7,,,AMNE10.jpg,AMSA17.jpg,AMSA09.jpg,AMNE06.jpg,AMSA09.jpg,MS,2,num_2,16,num_2,0.600175829371,,,2017_Apr_05_1133,60.0128386814,FEMA4ImagesEEG,001,100110,
AMSA21.JPG,AMNE22.JPG,AMNE21.JPG,AMSA23.JPG,AMSA22.JPG,AMNE23.JPG,,,,,,,,,,,,,,,,,,,,,0,6,6,1,,,AMNE07.jpg,AMSA11.jpg,AMNE04.jpg,AMSA13.jpg,AMSA13.jpg,MS,2,num_4,32,num_8,1.16701493645,,,2017_Apr_05_1133,60.0128386814,FEMA4ImagesEEG,001,100110,
AFNE22.JPG,AFSA24.JPG,AFSA22.JPG,AFNE25.JPG,AFNE24.JPG,AFSA25.JPG,,,,,,,,,,,,,,,,,,,,,0,7,7,6,,,AMNE14.jpg,AMSA03.jpg,AMNE18.jpg,AMSA05.jpg,AMSA03.jpg,MS,2,num_6,32,num_4,0.800026813755,,,2017_Apr_05_1133,60.0128386814,FEMA4ImagesEEG,001,100110,
AFSA21.JPG,AFNE23.JPG,AFNE21.JPG,AFSA25.JPG,AFNE25.JPG,AFSA23.JPG,,,,,,,,,,,,,,,,,,,,,0,8,8,4,,,AMSA15.jpg,AMSA03.jpg,AMNE08.jpg,AMNE18.jpg,AMNE18.jpg,MN,1,num_4,32,num_8,0.916755538434,,,2017_Apr_05_1133,60.0128386814,FEMA4ImagesEEG,001,100110,
AFSA21.JPG,AFNE22.JPG,AFNE21.JPG,AFSA23.JPG,AFSA22.JPG,AFNE23.JPG,,,,,,,,,,,,,,,,,,,,,0,9,9,0,,,AMSA14.jpg,AMNE17.jpg,AMNE19.jpg,AMSA20.jpg,AMNE17.jpg,MN,1,num_6,16,num_6,1.08350682678,,,2017_Apr_05_1133,60.0128386814,FEMA4ImagesEEG,001,100110,
,,,,,,,,,,,,,,,,,,,,,,,,,,,,,,,,,,,,,,,,,,,space,9.91606594785,2017_Apr_05_1133,60.0128386814,FEMA4ImagesEEG,001,100110,
AFNE01.JPG,AFNE01.JPG,AFNE01.JPG,AFNE01.JPG,AFNE01.JPG,AFNE01.JPG,0,0,0,7,,,,,,,,,,,,,,,,,,,,,,,AFNE16.jpg,AFSA17.jpg,AFSA06.jpg,AFNE10.jpg,AFSA06.jpg,FS,4,num_2,32,num_4,1.18343039462,,,2017_Apr_05_1133,60.0128386814,FEMA4ImagesEEG,001,100110,
AFNE01.JPG,AFNE01.JPG,AFNE01.JPG,AFNE01.JPG,AFNE01.JPG,AFNE01.JPG,0,1,1,4,,,,,,,,,,,,,,,,,,,,,,,AFSA02.jpg,AFSA05.jpg,AFNE06.jpg,AFNE14.jpg,AFNE06.jpg,FN,3,num_2,32,num_4,0.88344447501,,,2017_Apr_05_1133,60.0128386814,FEMA4ImagesEEG,001,100110,
AFNE01.JPG,AFNE01.JPG,AFNE01.JPG,AFNE01.JPG,AFNE01.JPG,AFNE01.JPG,0,2,2,2,,,,,,,,,,,,,,,,,,,,,,,AFSA05.jpg,AFNE16.jpg,AFNE12.jpg,AFSA20.jpg,AFNE16.jpg,FN,3,num_6,32,num_8,1.10006341035,,,2017_Apr_05_1133,60.0128386814,FEMA4ImagesEEG,001,100110,
AFNE01.JPG,AFNE01.JPG,AFNE01.JPG,AFNE01.JPG,AFNE01.JPG,AFNE01.JPG,0,3,3,0,,,,,,,,,,,,,,,,,,,,,,,AFSA11.jpg,AFNE13.jpg,AFSA02.jpg,AFNE09.jpg,AFNE13.jpg,FN,3,num_6,32,num_4,1.31683790428,,,2017_Apr_05_1133,60.0128386814,FEMA4ImagesEEG,001,100110,
AFNE01.JPG,AFNE01.JPG,AFNE01.JPG,AFNE01.JPG,AFNE01.JPG,AFNE01.JPG,0,4,4,8,,,,,,,,,,,,,,,,,,,,,,,AFNE18.jpg,AFNE14.jpg,AFSA08.jpg,AFSA06.jpg,AFNE14.jpg,FN,3,num_6,16,num_6,0.750178732211,,,2017_Apr_05_1133,60.0128386814,FEMA4ImagesEEG,001,100110,
AFNE01.JPG,AFNE01.JPG,AFNE01.JPG,AFNE01.JPG,AFNE01.JPG,AFNE01.JPG,0,5,5,5,,,,,,,,,,,,,,,,,,,,,,,AFNE11.jpg,AFNE16.jpg,AFSA04.jpg,AFSA11.jpg,AFNE11.jpg,FN,3,num_8,32,num_4,1.05011269194,,,2017_Apr_05_1133,60.0128386814,FEMA4ImagesEEG,001,100110,
AFNE01.JPG,AFNE01.JPG,AFNE01.JPG,AFNE01.JPG,AFNE01.JPG,AFNE01.JPG,0,6,6,1,,,,,,,,,,,,,,,,,,,,,,,AFNE14.jpg,AFNE17.jpg,AFSA15.jpg,AFSA02.jpg,AFSA02.jpg,FS,4,num_4,32,num_8,1.76667565806,,,2017_Apr_05_1133,60.0128386814,FEMA4ImagesEEG,001,100110,
AFNE01.JPG,AFNE01.JPG,AFNE01.JPG,AFNE01.JPG,AFNE01.JPG,AFNE01.JPG,0,7,7,6,,,,,,,,,,,,,,,,,,,,,,,AFSA18.jpg,AFNE06.jpg,AFSA12.jpg,AFNE19.jpg,AFSA18.jpg,FS,4,num_8,32,num_2,1.71668388508,,,2017_Apr_05_1133,60.0128386814,FEMA4ImagesEEG,001,100110,
AFNE01.JPG,AFNE01.JPG,AFNE01.JPG,AFNE01.JPG,AFNE01.JPG,AFNE01.JPG,0,8,8,3,,,,,,,,,,,,,,,,,,,,,,,AFNE04.jpg,AFNE14.jpg,AFSA04.jpg,AFSA07.jpg,AFSA07.jpg,FS,4,num_4,32,num_8,0.950122731039,,,2017_Apr_05_1133,60.0128386814,FEMA4ImagesEEG,001,100110,
AFNE01.JPG,AFNE01.JPG,AFNE01.JPG,AFNE01.JPG,AFNE01.JPG,AFNE01.JPG,0,9,9,9,,,,,,,,,,,,,,,,,,,,,,,AFSA18.jpg,AFNE11.jpg,AFSA16.jpg,AFNE10.jpg,AFSA18.jpg,FS,4,num_8,32,num_4,0.96678291331,,,2017_Apr_05_1133,60.0128386814,FEMA4ImagesEEG,001,100110,
AFNE01.JPG,AFNE01.JPG,AFNE01.JPG,AFNE01.JPG,AFNE01.JPG,AFNE01.JPG,1,0,10,6,,,,,,,,,,,,,,,,,,,,,,,AFSA11.jpg,AFNE02.jpg,AFNE14.jpg,AFSA09.jpg,AFNE02.jpg,FN,3,num_6,16,num_6,1.1167537421,,,2017_Apr_05_1133,60.0128386814,FEMA4ImagesEEG,001,100110,
AFNE01.JPG,AFNE01.JPG,AFNE01.JPG,AFNE01.JPG,AFNE01.JPG,AFNE01.JPG,1,1,11,0,,,,,,,,,,,,,,,,,,,,,,,AFSA15.jpg,AFNE11.jpg,AFSA09.jpg,AFNE16.jpg,AFSA09.jpg,FS,4,num_2,32,num_8,1.31671217433,,,2017_Apr_05_1133,60.0128386814,FEMA4ImagesEEG,001,100110,
AFNE01.JPG,AFNE01.JPG,AFNE01.JPG,AFNE01.JPG,AFNE01.JPG,AFNE01.JPG,1,2,12,1,,,,,,,,,,,,,,,,,,,,,,,AFNE15.jpg,AFSA11.jpg,AFSA02.jpg,AFNE14.jpg,AFNE14.jpg,FN,3,num_4,16,num_4,0.916765160626,,,2017_Apr_05_1133,60.0128386814,FEMA4ImagesEEG,001,100110,
AFNE01.JPG,AFNE01.JPG,AFNE01.JPG,AFNE01.JPG,AFNE01.JPG,AFNE01.JPG,1,3,13,7,,,,,,,,,,,,,,,,,,,,,,,AFNE15.jpg,AFSA09.jpg,AFNE06.jpg,AFSA14.jpg,AFSA09.jpg,FS,4,num_6,32,num_4,1.00011193799,,,2017_Apr_05_1133,60.0128386814,FEMA4ImagesEEG,001,100110,
AFNE01.JPG,AFNE01.JPG,AFNE01.JPG,AFNE01.JPG,AFNE01.JPG,AFNE01.JPG,1,4,14,3,,,,,,,,,,,,,,,,,,,,,,,AFNE19.jpg,AFSA18.jpg,AFSA01.jpg,AFNE01.jpg,AFNE01.jpg,FN,3,num_4,16,num_4,0.950019132113,,,2017_Apr_05_1133,60.0128386814,FEMA4ImagesEEG,001,100110,
AFNE01.JPG,AFNE01.JPG,AFNE01.JPG,AFNE01.JPG,AFNE01.JPG,AFNE01.JPG,1,5,15,8,,,,,,,,,,,,,,,,,,,,,,,AFSA18.jpg,AFNE10.jpg,AFSA11.jpg,AFNE09.jpg,AFNE09.jpg,FN,3,num_4,32,num_8,1.71675925888,,,2017_Apr_05_1133,60.0128386814,FEMA4ImagesEEG,001,100110,
AFNE01.JPG,AFNE01.JPG,AFNE01.JPG,AFNE01.JPG,AFNE01.JPG,AFNE01.JPG,1,6,16,2,,,,,,,,,,,,,,,,,,,,,,,AFNE17.jpg,AFNE08.jpg,AFSA03.jpg,AFSA04.jpg,AFNE17.jpg,FN,3,num_8,16,num_8,1.05012359703,,,2017_Apr_05_1133,60.0128386814,FEMA4ImagesEEG,001,100110,
AFNE01.JPG,AFNE01.JPG,AFNE01.JPG,AFNE01.JPG,AFNE01.JPG,AFNE01.JPG,1,7,17,5,,,,,,,,,,,,,,,,,,,,,,,AFSA11.jpg,AFNE14.jpg,AFSA13.jpg,AFNE04.jpg,AFNE14.jpg,FN,3,num_6,16,num_6,1.05009280588,,,2017_Apr_05_1133,60.0128386814,FEMA4ImagesEEG,001,100110,
AFNE01.JPG,AFNE01.JPG,AFNE01.JPG,AFNE01.JPG,AFNE01.JPG,AFNE01.JPG,1,8,18,9,,,,,,,,,,,,,,,,,,,,,,,AFSA07.jpg,AFNE04.jpg,AFNE13.jpg,AFSA06.jpg,AFSA07.jpg,FS,4,num_8,16,num_8,1.55007275962,,,2017_Apr_05_1133,60.0128386814,FEMA4ImagesEEG,001,100110,
AFNE01.JPG,AFNE01.JPG,AFNE01.JPG,AFNE01.JPG,AFNE01.JPG,AFNE01.JPG,1,9,19,4,,,,,,,,,,,,,,,,,,,,,,,AFNE08.jpg,AFSA11.jpg,AFNE05.jpg,AFSA08.jpg,AFNE08.jpg,FN,3,num_8,32,num_2,1.05010723951,,,2017_Apr_05_1133,60.0128386814,FEMA4ImagesEEG,001,100110,
AFNE01.JPG,AFNE01.JPG,AFNE01.JPG,AFNE01.JPG,AFNE01.JPG,AFNE01.JPG,2,0,20,7,,,,,,,,,,,,,,,,,,,,,,,AFNE18.jpg,AFNE16.jpg,AFSA20.jpg,AFSA19.jpg,AFSA20.jpg,FS,4,num_2,32,num_8,0.966732557165,,,2017_Apr_05_1133,60.0128386814,FEMA4ImagesEEG,001,100110,
AFNE01.JPG,AFNE01.JPG,AFNE01.JPG,AFNE01.JPG,AFNE01.JPG,AFNE01.JPG,2,1,21,6,,,,,,,,,,,,,,,,,,,,,,,AFSA01.jpg,AFSA16.jpg,AFNE11.jpg,AFNE17.jpg,AFSA16.jpg,FS,4,num_6,16,num_6,0.633474063361,,,2017_Apr_05_1133,60.0128386814,FEMA4ImagesEEG,001,100110,
AFNE01.JPG,AFNE01.JPG,AFNE01.JPG,AFNE01.JPG,AFNE01.JPG,AFNE01.JPG,2,2,22,0,,,,,,,,,,,,,,,,,,,,,,,AFNE16.jpg,AFSA16.jpg,AFNE04.jpg,AFSA17.jpg,AFNE16.jpg,FN,3,num_8,32,num_4,0.916743670823,,,2017_Apr_05_1133,60.0128386814,FEMA4ImagesEEG,001,100110,
AFNE01.JPG,AFNE01.JPG,AFNE01.JPG,AFNE01.JPG,AFNE01.JPG,AFNE01.JPG,2,3,23,3,,,,,,,,,,,,,,,,,,,,,,,AFNE07.jpg,AFSA15.jpg,AFNE03.jpg,AFSA02.jpg,AFNE03.jpg,FN,3,num_2,16,num_2,0.916768688709,,,2017_Apr_05_1133,60.0128386814,FEMA4ImagesEEG,001,100110,
AFNE01.JPG,AFNE01.JPG,AFNE01.JPG,AFNE01.JPG,AFNE01.JPG,AFNE01.JPG,2,4,24,2,,,,,,,,,,,,,,,,,,,,,,,AFNE20.jpg,AFSA19.jpg,AFSA04.jpg,AFNE05.jpg,AFNE05.jpg,FN,3,num_4,32,num_8,0.933417645283,,,2017_Apr_05_1133,60.0128386814,FEMA4ImagesEEG,001,100110,
AFNE01.JPG,AFNE01.JPG,AFNE01.JPG,AFNE01.JPG,AFNE01.JPG,AFNE01.JPG,2,5,25,8,,,,,,,,,,,,,,,,,,,,,,,AFSA02.jpg,AFSA06.jpg,AFNE20.jpg,AFNE05.jpg,AFNE20.jpg,FN,3,num_2,32,num_4,1.00012765452,,,2017_Apr_05_1133,60.0128386814,FEMA4ImagesEEG,001,100110,
AFNE01.JPG,AFNE01.JPG,AFNE01.JPG,AFNE01.JPG,AFNE01.JPG,AFNE01.JPG,2,6,26,4,,,,,,,,,,,,,,,,,,,,,,,AFSA07.jpg,AFNE03.jpg,AFSA20.jpg,AFNE19.jpg,AFNE19.jpg,FN,3,num_4,16,num_4,1.0999742446,,,2017_Apr_05_1133,60.0128386814,FEMA4ImagesEEG,001,100110,
AFNE01.JPG,AFNE01.JPG,AFNE01.JPG,AFNE01.JPG,AFNE01.JPG,AFNE01.JPG,2,7,27,1,,,,,,,,,,,,,,,,,,,,,,,AFSA06.jpg,AFSA17.jpg,AFNE13.jpg,AFNE04.jpg,AFSA06.jpg,FS,4,num_8,32,num_6,1.20020059054,,,2017_Apr_05_1133,60.0128386814,FEMA4ImagesEEG,001,100110,
AFNE01.JPG,AFNE01.JPG,AFNE01.JPG,AFNE01.JPG,AFNE01.JPG,AFNE01.JPG,2,8,28,9,,,,,,,,,,,,,,,,,,,,,,,AFSA15.jpg,AFNE10.jpg,AFSA16.jpg,AFNE06.jpg,AFSA16.jpg,FS,4,num_2,16,num_2,1.31675451179,,,2017_Apr_05_1133,60.0128386814,FEMA4ImagesEEG,001,100110,
AFNE01.JPG,AFNE01.JPG,AFNE01.JPG,AFNE01.JPG,AFNE01.JPG,AFNE01.JPG,2,9,29,5,,,,,,,,,,,,,,,,,,,,,,,AFSA19.jpg,AFNE12.jpg,AFNE18.jpg,AFSA08.jpg,AFNE18.jpg,FN,3,num_2,32,num_8,1.1333581158,,,2017_Apr_05_1133,60.0128386814,FEMA4ImagesEEG,001,100110,
AFNE01.JPG,AFNE01.JPG,AFNE01.JPG,AFNE01.JPG,AFNE01.JPG,AFNE01.JPG,3,0,30,8,,,,,,,,,,,,,,,,,,,,,,,AFNE13.jpg,AFSA06.jpg,AFNE19.jpg,AFSA04.jpg,AFNE19.jpg,FN,3,num_2,16,num_2,1.13349731686,,,2017_Apr_05_1133,60.0128386814,FEMA4ImagesEEG,001,100110,
AFNE01.JPG,AFNE01.JPG,AFNE01.JPG,AFNE01.JPG,AFNE01.JPG,AFNE01.JPG,3,1,31,6,,,,,,,,,,,,,,,,,,,,,,,AFNE07.jpg,AFSA08.jpg,AFSA06.jpg,AFNE02.jpg,AFSA08.jpg,FS,4,num_6,32,num_2,1.13347133691,,,2017_Apr_05_1133,60.0128386814,FEMA4ImagesEEG,001,100110,
AFNE01.JPG,AFNE01.JPG,AFNE01.JPG,AFNE01.JPG,AFNE01.JPG,AFNE01.JPG,3,2,32,5,,,,,,,,,,,,,,,,,,,,,,,AFSA05.jpg,AFNE19.jpg,AFNE10.jpg,AFSA07.jpg,AFNE10.jpg,FN,3,num_2,32,num_4,0.900204407517,,,2017_Apr_05_1133,60.0128386814,FEMA4ImagesEEG,001,100110,
AFNE01.JPG,AFNE01.JPG,AFNE01.JPG,AFNE01.JPG,AFNE01.JPG,AFNE01.JPG,3,3,33,3,,,,,,,,,,,,,,,,,,,,,,,AFNE02.jpg,AFSA14.jpg,AFSA17.jpg,AFNE15.jpg,AFNE15.jpg,FN,3,num_4,32,num_6,1.43342678621,,,2017_Apr_05_1133,60.0128386814,FEMA4ImagesEEG,001,100110,
AFNE01.JPG,AFNE01.JPG,AFNE01.JPG,AFNE01.JPG,AFNE01.JPG,AFNE01.JPG,3,4,34,4,,,,,,,,,,,,,,,,,,,,,,,AFSA12.jpg,AFNE17.jpg,AFSA05.jpg,AFNE06.jpg,AFSA05.jpg,FS,4,num_2,32,num_6,1.46645527775,,,2017_Apr_05_1133,60.0128386814,FEMA4ImagesEEG,001,100110,
AFNE01.JPG,AFNE01.JPG,AFNE01.JPG,AFNE01.JPG,AFNE01.JPG,AFNE01.JPG,3,5,35,9,,,,,,,,,,,,,,,,,,,,,,,AFNE02.jpg,AFNE05.jpg,AFSA07.jpg,AFSA03.jpg,AFSA07.jpg,FS,4,num_2,32,num_8,2.18333962536,,,2017_Apr_05_1133,60.0128386814,FEMA4ImagesEEG,001,100110,
AFNE01.JPG,AFNE01.JPG,AFNE01.JPG,AFNE01.JPG,AFNE01.JPG,AFNE01.JPG,3,6,36,0,,,,,,,,,,,,,,,,,,,,,,,AFNE03.jpg,AFSA18.jpg,AFSA20.jpg,AFNE01.jpg,AFSA18.jpg,FS,4,num_6,16,num_6,1.00032490934,,,2017_Apr_05_1133,60.0128386814,FEMA4ImagesEEG,001,100110,
AFNE01.JPG,AFNE01.JPG,AFNE01.JPG,AFNE01.JPG,AFNE01.JPG,AFNE01.JPG,3,7,37,1,,,,,,,,,,,,,,,,,,,,,,,AFNE20.jpg,AFNE10.jpg,AFSA16.jpg,AFSA20.jpg,AFNE20.jpg,FN,3,num_8,16,num_8,1.00016293582,,,2017_Apr_05_1133,60.0128386814,FEMA4ImagesEEG,001,100110,
AFNE01.JPG,AFNE01.JPG,AFNE01.JPG,AFNE01.JPG,AFNE01.JPG,AFNE01.JPG,3,8,38,2,,,,,,,,,,,,,,,,,,,,,,,AFSA18.jpg,AFSA20.jpg,AFNE15.jpg,AFNE18.jpg,AFNE15.jpg,FN,3,num_2,16,num_2,2.46668685181,,,2017_Apr_05_1133,60.0128386814,FEMA4ImagesEEG,001,100110,
AFNE01.JPG,AFNE01.JPG,AFNE01.JPG,AFNE01.JPG,AFNE01.JPG,AFNE01.JPG,3,9,39,7,,,,,,,,,,,,,,,,,,,,,,,AFNE16.jpg,AFNE20.jpg,AFSA07.jpg,AFSA15.jpg,AFSA07.jpg,FS,4,num_2,32,num_4,1.66668633861,,,2017_Apr_05_1133,60.0128386814,FEMA4ImagesEEG,001,100110,
AFNE01.JPG,AFNE01.JPG,AFNE01.JPG,AFNE01.JPG,AFNE01.JPG,AFNE01.JPG,4,0,40,4,,,,,,,,,,,,,,,,,,,,,,,AFNE06.jpg,AFNE12.jpg,AFSA07.jpg,AFSA18.jpg,AFNE06.jpg,FN,3,num_8,32,num_6,1.71666784817,,,2017_Apr_05_1133,60.0128386814,FEMA4ImagesEEG,001,100110,
AFNE01.JPG,AFNE01.JPG,AFNE01.JPG,AFNE01.JPG,AFNE01.JPG,AFNE01.JPG,4,1,41,6,,,,,,,,,,,,,,,,,,,,,,,AFSA01.jpg,AFNE07.jpg,AFNE20.jpg,AFSA12.jpg,AFSA12.jpg,FS,4,num_4,16,num_4,1.08346994175,,,2017_Apr_05_1133,60.0128386814,FEMA4ImagesEEG,001,100110,
AFNE01.JPG,AFNE01.JPG,AFNE01.JPG,AFNE01.JPG,AFNE01.JPG,AFNE01.JPG,4,2,42,2,,,,,,,,,,,,,,,,,,,,,,,AFSA10.jpg,AFNE18.jpg,AFNE15.jpg,AFSA19.jpg,AFNE18.jpg,FN,3,num_6,16,num_6,2.15000931732,,,2017_Apr_05_1133,60.0128386814,FEMA4ImagesEEG,001,100110,
AFNE01.JPG,AFNE01.JPG,AFNE01.JPG,AFNE01.JPG,AFNE01.JPG,AFNE01.JPG,4,3,43,7,,,,,,,,,,,,,,,,,,,,,,,AFNE05.jpg,AFSA07.jpg,AFNE16.jpg,AFSA04.jpg,AFSA07.jpg,FS,4,num_6,32,num_4,1.23342569568,,,2017_Apr_05_1133,60.0128386814,FEMA4ImagesEEG,001,100110,
AFNE01.JPG,AFNE01.JPG,AFNE01.JPG,AFNE01.JPG,AFNE01.JPG,AFNE01.JPG,4,4,44,1,,,,,,,,,,,,,,,,,,,,,,,AFSA06.jpg,AFSA14.jpg,AFNE08.jpg,AFNE13.jpg,AFNE08.jpg,FN,3,num_2,32,num_4,1.48339097551,,,2017_Apr_05_1133,60.0128386814,FEMA4ImagesEEG,001,100110,
AFNE01.JPG,AFNE01.JPG,AFNE01.JPG,AFNE01.JPG,AFNE01.JPG,AFNE01.JPG,4,5,45,5,,,,,,,,,,,,,,,,,,,,,,,AFSA02.jpg,AFNE03.jpg,AFSA06.jpg,AFNE14.jpg,AFNE03.jpg,FN,3,num_6,32,num_2,1.11682430492,,,2017_Apr_05_1133,60.0128386814,FEMA4ImagesEEG,001,100110,
AFNE01.JPG,AFNE01.JPG,AFNE01.JPG,AFNE01.JPG,AFNE01.JPG,AFNE01.JPG,4,6,46,3,,,,,,,,,,,,,,,,,,,,,,,AFNE06.jpg,AFSA17.jpg,AFSA05.jpg,AFNE01.jpg,AFSA17.jpg,FS,4,num_6,16,num_6,0.716835915577,,,2017_Apr_05_1133,60.0128386814,FEMA4ImagesEEG,001,100110,
AFNE01.JPG,AFNE01.JPG,AFNE01.JPG,AFNE01.JPG,AFNE01.JPG,AFNE01.JPG,4,7,47,8,,,,,,,,,,,,,,,,,,,,,,,AFNE13.jpg,AFSA16.jpg,AFNE04.jpg,AFSA13.jpg,AFSA16.jpg,FS,4,num_6,32,num_4,0.949822518742,,,2017_Apr_05_1133,60.0128386814,FEMA4ImagesEEG,001,100110,
AFNE01.JPG,AFNE01.JPG,AFNE01.JPG,AFNE01.JPG,AFNE01.JPG,AFNE01.JPG,4,8,48,9,,,,,,,,,,,,,,,,,,,,,,,AFNE10.jpg,AFSA04.jpg,AFSA10.jpg,AFNE07.jpg,AFSA04.jpg,FS,4,num_6,32,num_4,0.983482546872,,,2017_Apr_05_1133,60.0128386814,FEMA4ImagesEEG,001,100110,
AFNE01.JPG,AFNE01.JPG,AFNE01.JPG,AFNE01.JPG,AFNE01.JPG,AFNE01.JPG,4,9,49,0,,,,,,,,,,,,,,,,,,,,,,,AFSA03.jpg,AFSA10.jpg,AFNE03.jpg,AFNE14.jpg,AFNE03.jpg,FN,3,num_2,32,num_8,0.566777525004,,,2017_Apr_05_1133,60.0128386814,FEMA4ImagesEEG,001,100110,
AFNE01.JPG,AFNE01.JPG,AFNE01.JPG,AFNE01.JPG,AFNE01.JPG,AFNE01.JPG,5,0,50,2,,,,,,,,,,,,,,,,,,,,,,,AFNE04.jpg,AFSA08.jpg,AFSA19.jpg,AFNE19.jpg,AFNE19.jpg,FN,3,num_4,32,num_2,1.35014575999,,,2017_Apr_05_1133,60.0128386814,FEMA4ImagesEEG,001,100110,
AFNE01.JPG,AFNE01.JPG,AFNE01.JPG,AFNE01.JPG,AFNE01.JPG,AFNE01.JPG,5,1,51,9,,,,,,,,,,,,,,,,,,,,,,,AFNE19.jpg,AFNE17.jpg,AFSA09.jpg,AFSA01.jpg,AFSA01.jpg,FS,4,num_4,32,num_6,1.08351163799,,,2017_Apr_05_1133,60.0128386814,FEMA4ImagesEEG,001,100110,
AFNE01.JPG,AFNE01.JPG,AFNE01.JPG,AFNE01.JPG,AFNE01.JPG,AFNE01.JPG,5,2,52,8,,,,,,,,,,,,,,,,,,,,,,,AFSA06.jpg,AFSA12.jpg,AFNE19.jpg,AFNE07.jpg,AFSA06.jpg,FS,4,num_8,32,num_4,1.06676517637,,,2017_Apr_05_1133,60.0128386814,FEMA4ImagesEEG,001,100110,
AFNE01.JPG,AFNE01.JPG,AFNE01.JPG,AFNE01.JPG,AFNE01.JPG,AFNE01.JPG,5,3,53,0,,,,,,,,,,,,,,,,,,,,,,,AFSA19.jpg,AFSA18.jpg,AFNE14.jpg,AFNE03.jpg,AFNE03.jpg,FN,3,num_4,16,num_4,0.633455781266,,,2017_Apr_05_1133,60.0128386814,FEMA4ImagesEEG,001,100110,
AFNE01.JPG,AFNE01.JPG,AFNE01.JPG,AFNE01.JPG,AFNE01.JPG,AFNE01.JPG,5,4,54,7,,,,,,,,,,,,,,,,,,,,,,,AFNE10.jpg,AFNE19.jpg,AFSA10.jpg,AFSA08.jpg,AFSA10.jpg,FS,4,num_2,16,num_2,1.81667544972,,,2017_Apr_05_1133,60.0128386814,FEMA4ImagesEEG,001,100110,
AFNE01.JPG,AFNE01.JPG,AFNE01.JPG,AFNE01.JPG,AFNE01.JPG,AFNE01.JPG,5,5,55,1,,,,,,,,,,,,,,,,,,,,,,,AFNE10.jpg,AFSA13.jpg,AFSA20.jpg,AFNE01.jpg,AFSA20.jpg,FS,4,num_2,32,num_4,0.883443192113,,,2017_Apr_05_1133,60.0128386814,FEMA4ImagesEEG,001,100110,
AFNE01.JPG,AFNE01.JPG,AFNE01.JPG,AFNE01.JPG,AFNE01.JPG,AFNE01.JPG,5,6,56,5,,,,,,,,,,,,,,,,,,,,,,,AFSA18.jpg,AFNE14.jpg,AFNE01.jpg,AFSA10.jpg,AFSA18.jpg,FS,4,num_8,16,num_8,0.466837599408,,,2017_Apr_05_1133,60.0128386814,FEMA4ImagesEEG,001,100110,
AFNE01.JPG,AFNE01.JPG,AFNE01.JPG,AFNE01.JPG,AFNE01.JPG,AFNE01.JPG,5,7,57,6,,,,,,,,,,,,,,,,,,,,,,,AFSA15.jpg,AFNE20.jpg,AFNE12.jpg,AFSA02.jpg,AFNE20.jpg,FN,3,num_6,16,num_6,1.23345809057,,,2017_Apr_05_1133,60.0128386814,FEMA4ImagesEEG,001,100110,
AFNE01.JPG,AFNE01.JPG,AFNE01.JPG,AFNE01.JPG,AFNE01.JPG,AFNE01.JPG,5,8,58,3,,,,,,,,,,,,,,,,,,,,,,,AFNE02.jpg,AFNE06.jpg,AFSA10.jpg,AFSA02.jpg,AFNE02.jpg,FN,3,num_8,16,num_8,0.983490244485,,,2017_Apr_05_1133,60.0128386814,FEMA4ImagesEEG,001,100110,
AFNE01.JPG,AFNE01.JPG,AFNE01.JPG,AFNE01.JPG,AFNE01.JPG,AFNE01.JPG,5,9,59,4,,,,,,,,,,,,,,,,,,,,,,,AFSA04.jpg,AFNE11.jpg,AFNE01.jpg,AFSA16.jpg,AFNE01.jpg,FN,3,num_2,32,num_6,1.0667924392,,,2017_Apr_05_1133,60.0128386814,FEMA4ImagesEEG,001,100110,
,,,,,,,,,,,,,,,,,,,,,,,,,,,,,,,,,,,,,,,,,,,space,2.28334209486,2017_Apr_05_1133,60.0128386814,FEMA4ImagesEEG,001,100110,
AFNE01.JPG,AFNE01.JPG,AFNE01.JPG,AFNE01.JPG,AFNE01.JPG,AFNE01.JPG,,,,,0,0,0,2,,,,,,,,,,,,,,,,,,,AMSA17.jpg,AMNE02.jpg,AMSA02.jpg,AMNE16.jpg,AMNE02.jpg,MN,1,num_6,16,num_6,0.966783554992,,,2017_Apr_05_1133,60.0128386814,FEMA4ImagesEEG,001,100110,
AFNE01.JPG,AFNE01.JPG,AFNE01.JPG,AFNE01.JPG,AFNE01.JPG,AFNE01.JPG,,,,,0,1,1,9,,,,,,,,,,,,,,,,,,,AMSA16.jpg,AMSA05.jpg,AMNE20.jpg,AMNE06.jpg,AMNE06.jpg,MN,1,num_4,16,num_4,0.833509793738,,,2017_Apr_05_1133,60.0128386814,FEMA4ImagesEEG,001,100110,
AFNE01.JPG,AFNE01.JPG,AFNE01.JPG,AFNE01.JPG,AFNE01.JPG,AFNE01.JPG,,,,,0,2,2,7,,,,,,,,,,,,,,,,,,,AMSA12.jpg,AMNE20.jpg,AMNE18.jpg,AMSA04.jpg,AMNE20.jpg,MN,1,num_6,32,num_2,1.00011706981,,,2017_Apr_05_1133,60.0128386814,FEMA4ImagesEEG,001,100110,
AFNE01.JPG,AFNE01.JPG,AFNE01.JPG,AFNE01.JPG,AFNE01.JPG,AFNE01.JPG,,,,,0,3,3,1,,,,,,,,,,,,,,,,,,,AMNE06.jpg,AMSA08.jpg,AMNE19.jpg,AMSA13.jpg,AMSA08.jpg,MS,2,num_6,16,num_6,1.03345058509,,,2017_Apr_05_1133,60.0128386814,FEMA4ImagesEEG,001,100110,
AFNE01.JPG,AFNE01.JPG,AFNE01.JPG,AFNE01.JPG,AFNE01.JPG,AFNE01.JPG,,,,,0,4,4,5,,,,,,,,,,,,,,,,,,,AMNE17.jpg,AMSA04.jpg,AMSA10.jpg,AMNE14.jpg,AMSA04.jpg,MS,2,num_6,32,num_4,1.11675727041,,,2017_Apr_05_1133,60.0128386814,FEMA4ImagesEEG,001,100110,
AFNE01.JPG,AFNE01.JPG,AFNE01.JPG,AFNE01.JPG,AFNE01.JPG,AFNE01.JPG,,,,,0,5,5,0,,,,,,,,,,,,,,,,,,,AMSA11.jpg,AMSA05.jpg,AMNE11.jpg,AMNE04.jpg,AMNE11.jpg,MN,1,num_2,32,num_8,1.31677086977,,,2017_Apr_05_1133,60.0128386814,FEMA4ImagesEEG,001,100110,
AFNE01.JPG,AFNE01.JPG,AFNE01.JPG,AFNE01.JPG,AFNE01.JPG,AFNE01.JPG,,,,,0,6,6,8,,,,,,,,,,,,,,,,,,,AMNE14.jpg,AMSA18.jpg,AMNE07.jpg,AMSA17.jpg,AMSA18.jpg,MS,2,num_6,16,num_6,0.883476549061,,,2017_Apr_05_1133,60.0128386814,FEMA4ImagesEEG,001,100110,
AFNE01.JPG,AFNE01.JPG,AFNE01.JPG,AFNE01.JPG,AFNE01.JPG,AFNE01.JPG,,,,,0,7,7,6,,,,,,,,,,,,,,,,,,,AMSA16.jpg,AMSA19.jpg,AMNE13.jpg,AMNE12.jpg,AMNE13.jpg,MN,1,num_2,16,num_2,0.68348443904,,,2017_Apr_05_1133,60.0128386814,FEMA4ImagesEEG,001,100110,
AFNE01.JPG,AFNE01.JPG,AFNE01.JPG,AFNE01.JPG,AFNE01.JPG,AFNE01.JPG,,,,,0,8,8,4,,,,,,,,,,,,,,,,,,,AMSA01.jpg,AMNE17.jpg,AMSA20.jpg,AMNE12.jpg,AMNE17.jpg,MN,1,num_6,16,num_6,0.900134486146,,,2017_Apr_05_1133,60.0128386814,FEMA4ImagesEEG,001,100110,
AFNE01.JPG,AFNE01.JPG,AFNE01.JPG,AFNE01.JPG,AFNE01.JPG,AFNE01.JPG,,,,,0,9,9,3,,,,,,,,,,,,,,,,,,,AMSA06.jpg,AMSA14.jpg,AMNE12.jpg,AMNE01.jpg,AMSA06.jpg,MS,2,num_8,32,num_4,0.683531587943,,,2017_Apr_05_1133,60.0128386814,FEMA4ImagesEEG,001,100110,
AFNE01.JPG,AFNE01.JPG,AFNE01.JPG,AFNE01.JPG,AFNE01.JPG,AFNE01.JPG,,,,,1,0,10,4,,,,,,,,,,,,,,,,,,,AMSA16.jpg,AMNE13.jpg,AMNE04.jpg,AMSA06.jpg,AMNE13.jpg,MN,1,num_6,32,num_2,2.10011889832,,,2017_Apr_05_1133,60.0128386814,FEMA4ImagesEEG,001,100110,
AFNE01.JPG,AFNE01.JPG,AFNE01.JPG,AFNE01.JPG,AFNE01.JPG,AFNE01.JPG,,,,,1,1,11,0,,,,,,,,,,,,,,,,,,,AMNE08.jpg,AMSA15.jpg,AMNE01.jpg,AMSA19.jpg,AMNE08.jpg,MN,1,num_8,32,num_6,1.03345379257,,,2017_Apr_05_1133,60.0128386814,FEMA4ImagesEEG,001,100110,
AFNE01.JPG,AFNE01.JPG,AFNE01.JPG,AFNE01.JPG,AFNE01.JPG,AFNE01.JPG,,,,,1,2,12,2,,,,,,,,,,,,,,,,,,,AMSA18.jpg,AMSA14.jpg,AMNE18.jpg,AMNE06.jpg,AMNE06.jpg,MN,1,num_4,32,num_8,3.98319740919,,,2017_Apr_05_1133,60.0128386814,FEMA4ImagesEEG,001,100110,
AFNE01.JPG,AFNE01.JPG,AFNE01.JPG,AFNE01.JPG,AFNE01.JPG,AFNE01.JPG,,,,,1,3,13,9,,,,,,,,,,,,,,,,,,,AMNE08.jpg,AMSA04.jpg,AMSA01.jpg,AMNE14.jpg,AMNE08.jpg,MN,1,num_8,32,num_6,1.23342537507,,,2017_Apr_05_1133,60.0128386814,FEMA4ImagesEEG,001,100110,
AFNE01.JPG,AFNE01.JPG,AFNE01.JPG,AFNE01.JPG,AFNE01.JPG,AFNE01.JPG,,,,,1,4,14,5,,,,,,,,,,,,,,,,,,,AMSA16.jpg,AMSA18.jpg,AMNE11.jpg,AMNE18.jpg,AMSA18.jpg,MS,2,num_6,16,num_6,0.666787692579,,,2017_Apr_05_1133,60.0128386814,FEMA4ImagesEEG,001,100110,
AFNE01.JPG,AFNE01.JPG,AFNE01.JPG,AFNE01.JPG,AFNE01.JPG,AFNE01.JPG,,,,,1,5,15,3,,,,,,,,,,,,,,,,,,,AMSA09.jpg,AMSA17.jpg,AMNE16.jpg,AMNE19.jpg,AMSA09.jpg,MS,2,num_8,16,num_8,1.10016091517,,,2017_Apr_05_1133,60.0128386814,FEMA4ImagesEEG,001,100110,
AFNE01.JPG,AFNE01.JPG,AFNE01.JPG,AFNE01.JPG,AFNE01.JPG,AFNE01.JPG,,,,,1,6,16,1,,,,,,,,,,,,,,,,,,,AMNE20.jpg,AMSA13.jpg,AMNE04.jpg,AMSA15.jpg,AMNE20.jpg,MN,1,num_8,32,num_2,0.966741217067,,,2017_Apr_05_1133,60.0128386814,FEMA4ImagesEEG,001,100110,
AFNE01.JPG,AFNE01.JPG,AFNE01.JPG,AFNE01.JPG,AFNE01.JPG,AFNE01.JPG,,,,,1,7,17,7,,,,,,,,,,,,,,,,,,,AMNE15.jpg,AMSA06.jpg,AMNE17.jpg,AMSA15.jpg,AMSA06.jpg,MS,2,num_6,32,num_4,0.850147203542,,,2017_Apr_05_1133,60.0128386814,FEMA4ImagesEEG,001,100110,
AFNE01.JPG,AFNE01.JPG,AFNE01.JPG,AFNE01.JPG,AFNE01.JPG,AFNE01.JPG,,,,,1,8,18,6,,,,,,,,,,,,,,,,,,,AMSA17.jpg,AMSA04.jpg,AMNE13.jpg,AMNE19.jpg,AMSA04.jpg,MS,2,num_6,16,num_6,0.816852818709,,,2017_Apr_05_1133,60.0128386814,FEMA4ImagesEEG,001,100110,
AFNE01.JPG,AFNE01.JPG,AFNE01.JPG,AFNE01.JPG,AFNE01.JPG,AFNE01.JPG,,,,,1,9,19,8,,,,,,,,,,,,,,,,,,,AMNE03.jpg,AMNE06.jpg,AMSA07.jpg,AMSA05.jpg,AMSA07.jpg,MS,2,num_2,16,num_2,1.0502801179,,,2017_Apr_05_1133,60.0128386814,FEMA4ImagesEEG,001,100110,
AFNE01.JPG,AFNE01.JPG,AFNE01.JPG,AFNE01.JPG,AFNE01.JPG,AFNE01.JPG,,,,,2,0,20,8,,,,,,,,,,,,,,,,,,,AMSA06.jpg,AMNE07.jpg,AMSA14.jpg,AMNE06.jpg,AMSA14.jpg,MS,2,num_2,16,num_2,1.78336310317,,,2017_Apr_05_1133,60.0128386814,FEMA4ImagesEEG,001,100110,
AFNE01.JPG,AFNE01.JPG,AFNE01.JPG,AFNE01.JPG,AFNE01.JPG,AFNE01.JPG,,,,,2,1,21,7,,,,,,,,,,,,,,,,,,,AMSA15.jpg,AMNE10.jpg,AMSA16.jpg,AMNE08.jpg,AMNE08.jpg,MN,1,num_4,16,num_4,0.833538018633,,,2017_Apr_05_1133,60.0128386814,FEMA4ImagesEEG,001,100110,
AFNE01.JPG,AFNE01.JPG,AFNE01.JPG,AFNE01.JPG,AFNE01.JPG,AFNE01.JPG,,,,,2,2,22,5,,,,,,,,,,,,,,,,,,,AMSA07.jpg,AMSA05.jpg,AMNE10.jpg,AMNE03.jpg,AMNE03.jpg,MN,1,num_4,32,num_6,0.833464569412,,,2017_Apr_05_1133,60.0128386814,FEMA4ImagesEEG,001,100110,
AFNE01.JPG,AFNE01.JPG,AFNE01.JPG,AFNE01.JPG,AFNE01.JPG,AFNE01.JPG,,,,,2,3,23,6,,,,,,,,,,,,,,,,,,,AMSA14.jpg,AMNE12.jpg,AMNE03.jpg,AMSA04.jpg,AMNE03.jpg,MN,1,num_2,32,num_6,0.933308593463,,,2017_Apr_05_1133,60.0128386814,FEMA4ImagesEEG,001,100110,
AFNE01.JPG,AFNE01.JPG,AFNE01.JPG,AFNE01.JPG,AFNE01.JPG,AFNE01.JPG,,,,,2,4,24,3,,,,,,,,,,,,,,,,,,,AMNE07.jpg,AMSA15.jpg,AMSA12.jpg,AMNE10.jpg,AMNE07.jpg,MN,1,num_8,16,num_8,0.816751464969,,,2017_Apr_05_1133,60.0128386814,FEMA4ImagesEEG,001,100110,
AFNE01.JPG,AFNE01.JPG,AFNE01.JPG,AFNE01.JPG,AFNE01.JPG,AFNE01.JPG,,,,,2,5,25,2,,,,,,,,,,,,,,,,,,,AMSA16.jpg,AMNE05.jpg,AMSA11.jpg,AMNE11.jpg,AMNE11.jpg,MN,1,num_4,32,num_6,1.750074171,,,2017_Apr_05_1133,60.0128386814,FEMA4ImagesEEG,001,100110,
AFNE01.JPG,AFNE01.JPG,AFNE01.JPG,AFNE01.JPG,AFNE01.JPG,AFNE01.JPG,,,,,2,6,26,0,,,,,,,,,,,,,,,,,,,AMNE08.jpg,AMSA13.jpg,AMSA14.jpg,AMNE11.jpg,AMNE08.jpg,MN,1,num_8,32,num_4,0.716753164772,,,2017_Apr_05_1133,60.0128386814,FEMA4ImagesEEG,001,100110,
AFNE01.JPG,AFNE01.JPG,AFNE01.JPG,AFNE01.JPG,AFNE01.JPG,AFNE01.JPG,,,,,2,7,27,9,,,,,,,,,,,,,,,,,,,AMNE12.jpg,AMSA15.jpg,AMSA19.jpg,AMNE02.jpg,AMSA19.jpg,MS,2,num_2,32,num_8,1.16675738245,,,2017_Apr_05_1133,60.0128386814,FEMA4ImagesEEG,001,100110,
AFNE01.JPG,AFNE01.JPG,AFNE01.JPG,AFNE01.JPG,AFNE01.JPG,AFNE01.JPG,,,,,2,8,28,4,,,,,,,,,,,,,,,,,,,AMSA12.jpg,AMNE02.jpg,AMNE01.jpg,AMSA15.jpg,AMSA15.jpg,MS,2,num_4,16,num_4,0.716875366634,,,2017_Apr_05_1133,60.0128386814,FEMA4ImagesEEG,001,100110,
AFNE01.JPG,AFNE01.JPG,AFNE01.JPG,AFNE01.JPG,AFNE01.JPG,AFNE01.JPG,,,,,2,9,29,1,,,,,,,,,,,,,,,,,,,AMNE17.jpg,AMNE16.jpg,AMSA05.jpg,AMSA03.jpg,AMSA05.jpg,MS,2,num_2,16,num_2,0.766810047906,,,2017_Apr_05_1133,60.0128386814,FEMA4ImagesEEG,001,100110,
AFNE01.JPG,AFNE01.JPG,AFNE01.JPG,AFNE01.JPG,AFNE01.JPG,AFNE01.JPG,,,,,3,0,30,6,,,,,,,,,,,,,,,,,,,AMSA12.jpg,AMNE12.jpg,AMSA03.jpg,AMNE07.jpg,AMSA03.jpg,MS,2,num_2,32,num_8,0.76681934949,,,2017_Apr_05_1133,60.0128386814,FEMA4ImagesEEG,001,100110,
AFNE01.JPG,AFNE01.JPG,AFNE01.JPG,AFNE01.JPG,AFNE01.JPG,AFNE01.JPG,,,,,3,1,31,1,,,,,,,,,,,,,,,,,,,AMSA15.jpg,AMSA04.jpg,AMNE03.jpg,AMNE13.jpg,AMNE03.jpg,MN,1,num_2,32,num_4,0.883500604425,,,2017_Apr_05_1133,60.0128386814,FEMA4ImagesEEG,001,100110,
AFNE01.JPG,AFNE01.JPG,AFNE01.JPG,AFNE01.JPG,AFNE01.JPG,AFNE01.JPG,,,,,3,2,32,2,,,,,,,,,,,,,,,,,,,AMNE09.jpg,AMSA09.jpg,AMNE17.jpg,AMSA06.jpg,AMNE17.jpg,MN,1,num_2,32,num_8,1.31674296549,,,2017_Apr_05_1133,60.0128386814,FEMA4ImagesEEG,001,100110,
AFNE01.JPG,AFNE01.JPG,AFNE01.JPG,AFNE01.JPG,AFNE01.JPG,AFNE01.JPG,,,,,3,3,33,8,,,,,,,,,,,,,,,,,,,AMSA12.jpg,AMNE07.jpg,AMNE12.jpg,AMSA18.jpg,AMNE07.jpg,MN,1,num_6,32,num_2,0.850262028165,,,2017_Apr_05_1133,60.0128386814,FEMA4ImagesEEG,001,100110,
AFNE01.JPG,AFNE01.JPG,AFNE01.JPG,AFNE01.JPG,AFNE01.JPG,AFNE01.JPG,,,,,3,4,34,9,,,,,,,,,,,,,,,,,,,AMSA05.jpg,AMSA11.jpg,AMNE05.jpg,AMNE19.jpg,AMSA05.jpg,MS,2,num_8,32,num_4,0.916742708767,,,2017_Apr_05_1133,60.0128386814,FEMA4ImagesEEG,001,100110,
AFNE01.JPG,AFNE01.JPG,AFNE01.JPG,AFNE01.JPG,AFNE01.JPG,AFNE01.JPG,,,,,3,5,35,7,,,,,,,,,,,,,,,,,,,AMSA09.jpg,AMSA07.jpg,AMNE09.jpg,AMNE06.jpg,AMSA09.jpg,MS,2,num_8,16,num_8,0.533507837215,,,2017_Apr_05_1133,60.0128386814,FEMA4ImagesEEG,001,100110,
AFNE01.JPG,AFNE01.JPG,AFNE01.JPG,AFNE01.JPG,AFNE01.JPG,AFNE01.JPG,,,,,3,6,36,0,,,,,,,,,,,,,,,,,,,AMNE02.jpg,AMSA11.jpg,AMNE04.jpg,AMSA03.jpg,AMNE04.jpg,MN,1,num_2,16,num_2,1.01682247664,,,2017_Apr_05_1133,60.0128386814,FEMA4ImagesEEG,001,100110,
AFNE01.JPG,AFNE01.JPG,AFNE01.JPG,AFNE01.JPG,AFNE01.JPG,AFNE01.JPG,,,,,3,7,37,4,,,,,,,,,,,,,,,,,,,AMSA09.jpg,AMNE02.jpg,AMNE01.jpg,AMSA03.jpg,AMSA09.jpg,MS,2,num_8,16,num_8,0.766836348688,,,2017_Apr_05_1133,60.0128386814,FEMA4ImagesEEG,001,100110,
AFNE01.JPG,AFNE01.JPG,AFNE01.JPG,AFNE01.JPG,AFNE01.JPG,AFNE01.JPG,,,,,3,8,38,3,,,,,,,,,,,,,,,,,,,AMSA08.jpg,AMSA18.jpg,AMNE05.jpg,AMNE01.jpg,AMSA18.jpg,MS,2,num_6,16,num_6,0.516807562206,,,2017_Apr_05_1133,60.0128386814,FEMA4ImagesEEG,001,100110,
AFNE01.JPG,AFNE01.JPG,AFNE01.JPG,AFNE01.JPG,AFNE01.JPG,AFNE01.JPG,,,,,3,9,39,5,,,,,,,,,,,,,,,,,,,AMSA07.jpg,AMNE10.jpg,AMNE16.jpg,AMSA03.jpg,AMSA03.jpg,MS,2,num_4,32,num_2,1.33347563492,,,2017_Apr_05_1133,60.0128386814,FEMA4ImagesEEG,001,100110,
AFNE01.JPG,AFNE01.JPG,AFNE01.JPG,AFNE01.JPG,AFNE01.JPG,AFNE01.JPG,,,,,4,0,40,2,,,,,,,,,,,,,,,,,,,AMNE17.jpg,AMNE05.jpg,AMSA04.jpg,AMSA15.jpg,AMNE17.jpg,MN,1,num_8,32,num_6,0.849963098764,,,2017_Apr_05_1133,60.0128386814,FEMA4ImagesEEG,001,100110,
AFNE01.JPG,AFNE01.JPG,AFNE01.JPG,AFNE01.JPG,AFNE01.JPG,AFNE01.JPG,,,,,4,1,41,3,,,,,,,,,,,,,,,,,,,AMNE03.jpg,AMSA10.jpg,AMSA13.jpg,AMNE12.jpg,AMSA13.jpg,MS,2,num_2,32,num_4,0.933688990772,,,2017_Apr_05_1133,60.0128386814,FEMA4ImagesEEG,001,100110,
AFNE01.JPG,AFNE01.JPG,AFNE01.JPG,AFNE01.JPG,AFNE01.JPG,AFNE01.JPG,,,,,4,2,42,5,,,,,,,,,,,,,,,,,,,AMNE09.jpg,AMNE18.jpg,AMSA20.jpg,AMSA07.jpg,AMSA07.jpg,MS,2,num_4,32,num_2,0.61676416616,,,2017_Apr_05_1133,60.0128386814,FEMA4ImagesEEG,001,100110,
AFNE01.JPG,AFNE01.JPG,AFNE01.JPG,AFNE01.JPG,AFNE01.JPG,AFNE01.JPG,,,,,4,3,43,8,,,,,,,,,,,,,,,,,,,AMSA05.jpg,AMSA12.jpg,AMNE14.jpg,AMNE07.jpg,AMNE07.jpg,MN,1,num_4,32,num_8,2.16669451748,,,2017_Apr_05_1133,60.0128386814,FEMA4ImagesEEG,001,100110,
AFNE01.JPG,AFNE01.JPG,AFNE01.JPG,AFNE01.JPG,AFNE01.JPG,AFNE01.JPG,,,,,4,4,44,6,,,,,,,,,,,,,,,,,,,AMSA11.jpg,AMNE13.jpg,AMNE07.jpg,AMSA14.jpg,AMSA11.jpg,MS,2,num_8,32,num_4,0.466816430679,,,2017_Apr_05_1133,60.0128386814,FEMA4ImagesEEG,001,100110,
AFNE01.JPG,AFNE01.JPG,AFNE01.JPG,AFNE01.JPG,AFNE01.JPG,AFNE01.JPG,,,,,4,5,45,7,,,,,,,,,,,,,,,,,,,AMSA18.jpg,AMNE15.jpg,AMSA15.jpg,AMNE10.jpg,AMNE10.jpg,MN,1,num_4,32,num_6,0.900144429179,,,2017_Apr_05_1133,60.0128386814,FEMA4ImagesEEG,001,100110,
AFNE01.JPG,AFNE01.JPG,AFNE01.JPG,AFNE01.JPG,AFNE01.JPG,AFNE01.JPG,,,,,4,6,46,4,,,,,,,,,,,,,,,,,,,AMNE11.jpg,AMSA06.jpg,AMSA18.jpg,AMNE19.jpg,AMSA06.jpg,MS,2,num_6,16,num_6,0.800128488336,,,2017_Apr_05_1133,60.0128386814,FEMA4ImagesEEG,001,100110,
AFNE01.JPG,AFNE01.JPG,AFNE01.JPG,AFNE01.JPG,AFNE01.JPG,AFNE01.JPG,,,,,4,7,47,1,,,,,,,,,,,,,,,,,,,AMSA06.jpg,AMNE06.jpg,AMNE08.jpg,AMSA19.jpg,AMNE08.jpg,MN,1,num_2,32,num_4,1.01680964697,,,2017_Apr_05_1133,60.0128386814,FEMA4ImagesEEG,001,100110,
AFNE01.JPG,AFNE01.JPG,AFNE01.JPG,AFNE01.JPG,AFNE01.JPG,AFNE01.JPG,,,,,4,8,48,9,,,,,,,,,,,,,,,,,,,AMSA13.jpg,AMNE12.jpg,AMSA15.jpg,AMNE14.jpg,AMSA15.jpg,MS,2,num_2,16,num_2,1.13341969787,,,2017_Apr_05_1133,60.0128386814,FEMA4ImagesEEG,001,100110,
AFNE01.JPG,AFNE01.JPG,AFNE01.JPG,AFNE01.JPG,AFNE01.JPG,AFNE01.JPG,,,,,4,9,49,0,,,,,,,,,,,,,,,,,,,AMNE14.jpg,AMNE04.jpg,AMSA02.jpg,AMSA01.jpg,AMSA02.jpg,MS,2,num_2,32,num_6,0.583501855377,,,2017_Apr_05_1133,60.0128386814,FEMA4ImagesEEG,001,100110,
AFNE01.JPG,AFNE01.JPG,AFNE01.JPG,AFNE01.JPG,AFNE01.JPG,AFNE01.JPG,,,,,5,0,50,4,,,,,,,,,,,,,,,,,,,AMNE19.jpg,AMSA01.jpg,AMNE05.jpg,AMSA10.jpg,AMNE19.jpg,MN,1,num_8,32,num_6,0.933472491568,,,2017_Apr_05_1133,60.0128386814,FEMA4ImagesEEG,001,100110,
AFNE01.JPG,AFNE01.JPG,AFNE01.JPG,AFNE01.JPG,AFNE01.JPG,AFNE01.JPG,,,,,5,1,51,7,,,,,,,,,,,,,,,,,,,AMSA19.jpg,AMNE17.jpg,AMSA09.jpg,AMNE14.jpg,AMSA09.jpg,MS,2,num_2,16,num_2,1.03346565971,,,2017_Apr_05_1133,60.0128386814,FEMA4ImagesEEG,001,100110,
AFNE01.JPG,AFNE01.JPG,AFNE01.JPG,AFNE01.JPG,AFNE01.JPG,AFNE01.JPG,,,,,5,2,52,1,,,,,,,,,,,,,,,,,,,AMNE03.jpg,AMNE17.jpg,AMSA01.jpg,AMSA05.jpg,AMSA01.jpg,MS,2,num_2,16,num_2,1.25010800897,,,2017_Apr_05_1133,60.0128386814,FEMA4ImagesEEG,001,100110,
AFNE01.JPG,AFNE01.JPG,AFNE01.JPG,AFNE01.JPG,AFNE01.JPG,AFNE01.JPG,,,,,5,3,53,5,,,,,,,,,,,,,,,,,,,AMSA04.jpg,AMSA05.jpg,AMNE03.jpg,AMNE20.jpg,AMSA05.jpg,MS,2,num_6,16,num_6,0.56679612794,,,2017_Apr_05_1133,60.0128386814,FEMA4ImagesEEG,001,100110,
AFNE01.JPG,AFNE01.JPG,AFNE01.JPG,AFNE01.JPG,AFNE01.JPG,AFNE01.JPG,,,,,5,4,54,8,,,,,,,,,,,,,,,,,,,AMSA02.jpg,AMNE02.jpg,AMSA17.jpg,AMNE12.jpg,AMSA02.jpg,MS,2,num_8,16,num_8,1.56672492367,,,2017_Apr_05_1133,60.0128386814,FEMA4ImagesEEG,001,100110,
AFNE01.JPG,AFNE01.JPG,AFNE01.JPG,AFNE01.JPG,AFNE01.JPG,AFNE01.JPG,,,,,5,5,55,6,,,,,,,,,,,,,,,,,,,AMNE05.jpg,AMSA01.jpg,AMSA12.jpg,AMNE19.jpg,AMSA01.jpg,MS,2,num_6,32,num_4,0.650171130663,,,2017_Apr_05_1133,60.0128386814,FEMA4ImagesEEG,001,100110,
AFNE01.JPG,AFNE01.JPG,AFNE01.JPG,AFNE01.JPG,AFNE01.JPG,AFNE01.JPG,,,,,5,6,56,0,,,,,,,,,,,,,,,,,,,AMSA04.jpg,AMNE18.jpg,AMSA20.jpg,AMNE14.jpg,AMSA04.jpg,MS,2,num_8,32,num_2,1.15007699351,,,2017_Apr_05_1133,60.0128386814,FEMA4ImagesEEG,001,100110,
AFNE01.JPG,AFNE01.JPG,AFNE01.JPG,AFNE01.JPG,AFNE01.JPG,AFNE01.JPG,,,,,5,7,57,3,,,,,,,,,,,,,,,,,,,AMNE13.jpg,AMNE01.jpg,AMSA07.jpg,AMSA10.jpg,AMNE01.jpg,MN,1,num_6,32,num_8,0.733493852662,,,2017_Apr_05_1133,60.0128386814,FEMA4ImagesEEG,001,100110,
AFNE01.JPG,AFNE01.JPG,AFNE01.JPG,AFNE01.JPG,AFNE01.JPG,AFNE01.JPG,,,,,5,8,58,9,,,,,,,,,,,,,,,,,,,AMNE17.jpg,AMSA06.jpg,AMNE11.jpg,AMSA03.jpg,AMSA06.jpg,MS,2,num_6,16,num_6,0.85009941319,,,2017_Apr_05_1133,60.0128386814,FEMA4ImagesEEG,001,100110,
AFNE01.JPG,AFNE01.JPG,AFNE01.JPG,AFNE01.JPG,AFNE01.JPG,AFNE01.JPG,,,,,5,9,59,2,,,,,,,,,,,,,,,,,,,AMNE03.jpg,AMSA17.jpg,AMSA03.jpg,AMNE06.jpg,AMNE06.jpg,MN,1,num_4,32,num_2,1.20008287905,,,2017_Apr_05_1133,60.0128386814,FEMA4ImagesEEG,001,100110,
,,,,,,,,,,,,,,,,,,,,,,,,,,,,,,,,,,,,,,,,,,,space,4.28286868311,2017_Apr_05_1133,60.0128386814,FEMA4ImagesEEG,001,100110,
AFNE01.JPG,AFNE01.JPG,AFNE01.JPG,AFNE01.JPG,AFNE01.JPG,AFNE01.JPG,,,,,,,,,0,0,0,0,,,,,,,,,,,,,,,AFSA19.jpg,AFNE18.jpg,AFNE10.jpg,AFSA08.jpg,AFNE10.jpg,FN,3,num_2,16,num_2,0.916777669219,,,2017_Apr_05_1133,60.0128386814,FEMA4ImagesEEG,001,100110,
AFNE01.JPG,AFNE01.JPG,AFNE01.JPG,AFNE01.JPG,AFNE01.JPG,AFNE01.JPG,,,,,,,,,0,1,1,8,,,,,,,,,,,,,,,AFSA11.jpg,AFNE14.jpg,AFSA18.jpg,AFNE19.jpg,AFSA18.jpg,FS,4,num_2,32,num_4,0.766839235323,,,2017_Apr_05_1133,60.0128386814,FEMA4ImagesEEG,001,100110,
AFNE01.JPG,AFNE01.JPG,AFNE01.JPG,AFNE01.JPG,AFNE01.JPG,AFNE01.JPG,,,,,,,,,0,2,2,1,,,,,,,,,,,,,,,AFNE06.jpg,AFSA08.jpg,AFSA17.jpg,AFNE11.jpg,AFSA17.jpg,FS,4,num_2,32,num_4,0.866839139257,,,2017_Apr_05_1133,60.0128386814,FEMA4ImagesEEG,001,100110,
AFNE01.JPG,AFNE01.JPG,AFNE01.JPG,AFNE01.JPG,AFNE01.JPG,AFNE01.JPG,,,,,,,,,0,3,3,4,,,,,,,,,,,,,,,AFSA06.jpg,AFSA15.jpg,AFNE14.jpg,AFNE17.jpg,AFNE14.jpg,FN,3,num_2,16,num_2,1.56672556512,,,2017_Apr_05_1133,60.0128386814,FEMA4ImagesEEG,001,100110,
AFNE01.JPG,AFNE01.JPG,AFNE01.JPG,AFNE01.JPG,AFNE01.JPG,AFNE01.JPG,,,,,,,,,0,4,4,3,,,,,,,,,,,,,,,AFNE14.jpg,AFSA14.jpg,AFSA09.jpg,AFNE02.jpg,AFNE14.jpg,FN,3,num_8,32,num_6,0.883521773154,,,2017_Apr_05_1133,60.0128386814,FEMA4ImagesEEG,001,100110,
AFNE01.JPG,AFNE01.JPG,AFNE01.JPG,AFNE01.JPG,AFNE01.JPG,AFNE01.JPG,,,,,,,,,0,5,5,9,,,,,,,,,,,,,,,AFSA02.jpg,AFSA17.jpg,AFNE17.jpg,AFNE12.jpg,AFNE12.jpg,FN,3,num_4,16,num_4,1.0835106757,,,2017_Apr_05_1133,60.0128386814,FEMA4ImagesEEG,001,100110,
AFNE01.JPG,AFNE01.JPG,AFNE01.JPG,AFNE01.JPG,AFNE01.JPG,AFNE01.JPG,,,,,,,,,0,6,6,6,,,,,,,,,,,,,,,AFSA08.jpg,AFNE15.jpg,AFNE04.jpg,AFSA10.jpg,AFNE04.jpg,FN,3,num_2,32,num_4,0.950099637732,,,2017_Apr_05_1133,60.0128386814,FEMA4ImagesEEG,001,100110,
AFNE01.JPG,AFNE01.JPG,AFNE01.JPG,AFNE01.JPG,AFNE01.JPG,AFNE01.JPG,,,,,,,,,0,7,7,7,,,,,,,,,,,,,,,AFSA08.jpg,AFNE18.jpg,AFNE06.jpg,AFSA18.jpg,AFNE18.jpg,FN,3,num_6,32,num_4,0.833473549923,,,2017_Apr_05_1133,60.0128386814,FEMA4ImagesEEG,001,100110,
AFNE01.JPG,AFNE01.JPG,AFNE01.JPG,AFNE01.JPG,AFNE01.JPG,AFNE01.JPG,,,,,,,,,0,8,8,2,,,,,,,,,,,,,,,AFSA12.jpg,AFNE03.jpg,AFSA02.jpg,AFNE19.jpg,AFNE19.jpg,FN,3,num_4,16,num_4,0.816787708318,,,2017_Apr_05_1133,60.0128386814,FEMA4ImagesEEG,001,100110,
AFNE01.JPG,AFNE01.JPG,AFNE01.JPG,AFNE01.JPG,AFNE01.JPG,AFNE01.JPG,,,,,,,,,0,9,9,5,,,,,,,,,,,,,,,AFNE02.jpg,AFNE20.jpg,AFSA14.jpg,AFSA01.jpg,AFNE02.jpg,FN,3,num_8,16,num_8,1.11674027122,,,2017_Apr_05_1133,60.0128386814,FEMA4ImagesEEG,001,100110,
AFNE01.JPG,AFNE01.JPG,AFNE01.JPG,AFNE01.JPG,AFNE01.JPG,AFNE01.JPG,,,,,,,,,1,0,10,0,,,,,,,,,,,,,,,AFNE01.jpg,AFSA02.jpg,AFNE13.jpg,AFSA17.jpg,AFSA17.jpg,FS,4,num_4,16,num_4,0.566786184907,,,2017_Apr_05_1133,60.0128386814,FEMA4ImagesEEG,001,100110,
AFNE01.JPG,AFNE01.JPG,AFNE01.JPG,AFNE01.JPG,AFNE01.JPG,AFNE01.JPG,,,,,,,,,1,1,11,2,,,,,,,,,,,,,,,AFSA05.jpg,AFNE12.jpg,AFSA20.jpg,AFNE18.jpg,AFNE12.jpg,FN,3,num_6,16,num_6,0.833482851507,,,2017_Apr_05_1133,60.0128386814,FEMA4ImagesEEG,001,100110,
AFNE01.JPG,AFNE01.JPG,AFNE01.JPG,AFNE01.JPG,AFNE01.JPG,AFNE01.JPG,,,,,,,,,1,2,12,7,,,,,,,,,,,,,,,AFNE19.jpg,AFNE01.jpg,AFSA05.jpg,AFSA16.jpg,AFNE19.jpg,FN,3,num_8,16,num_8,0.650160867022,,,2017_Apr_05_1133,60.0128386814,FEMA4ImagesEEG,001,100110,
AFNE01.JPG,AFNE01.JPG,AFNE01.JPG,AFNE01.JPG,AFNE01.JPG,AFNE01.JPG,,,,,,,,,1,3,13,6,,,,,,,,,,,,,,,AFNE08.jpg,AFSA08.jpg,AFNE16.jpg,AFSA15.jpg,AFSA15.jpg,FS,4,num_4,32,num_2,1.1335303532,,,2017_Apr_05_1133,60.0128386814,FEMA4ImagesEEG,001,100110,
AFNE01.JPG,AFNE01.JPG,AFNE01.JPG,AFNE01.JPG,AFNE01.JPG,AFNE01.JPG,,,,,,,,,1,4,14,5,,,,,,,,,,,,,,,AFSA07.jpg,AFSA13.jpg,AFNE13.jpg,AFNE17.jpg,AFSA13.jpg,FS,4,num_6,32,num_2,1.01676153601,,,2017_Apr_05_1133,60.0128386814,FEMA4ImagesEEG,001,100110,
AFNE01.JPG,AFNE01.JPG,AFNE01.JPG,AFNE01.JPG,AFNE01.JPG,AFNE01.JPG,,,,,,,,,1,5,15,9,,,,,,,,,,,,,,,AFSA18.jpg,AFNE05.jpg,AFSA15.jpg,AFNE03.jpg,AFSA15.jpg,FS,4,num_2,32,num_8,0.966780026909,,,2017_Apr_05_1133,60.0128386814,FEMA4ImagesEEG,001,100110,
AFNE01.JPG,AFNE01.JPG,AFNE01.JPG,AFNE01.JPG,AFNE01.JPG,AFNE01.JPG,,,,,,,,,1,6,16,4,,,,,,,,,,,,,,,AFNE16.jpg,AFSA08.jpg,AFSA13.jpg,AFNE04.jpg,AFSA08.jpg,FS,4,num_6,32,num_4,0.916760670021,,,2017_Apr_05_1133,60.0128386814,FEMA4ImagesEEG,001,100110,
AFNE01.JPG,AFNE01.JPG,AFNE01.JPG,AFNE01.JPG,AFNE01.JPG,AFNE01.JPG,,,,,,,,,1,7,17,3,,,,,,,,,,,,,,,AFSA17.jpg,AFSA12.jpg,AFNE02.jpg,AFNE14.jpg,AFNE02.jpg,FN,3,num_2,16,num_2,0.933471208671,,,2017_Apr_05_1133,60.0128386814,FEMA4ImagesEEG,001,100110,
AFNE01.JPG,AFNE01.JPG,AFNE01.JPG,AFNE01.JPG,AFNE01.JPG,AFNE01.JPG,,,,,,,,,1,8,18,8,,,,,,,,,,,,,,,AFSA10.jpg,AFSA20.jpg,AFNE01.jpg,AFNE11.jpg,AFNE11.jpg,FN,3,num_4,32,num_6,1.30006418005,,,2017_Apr_05_1133,60.0128386814,FEMA4ImagesEEG,001,100110,
AFNE01.JPG,AFNE01.JPG,AFNE01.JPG,AFNE01.JPG,AFNE01.JPG,AFNE01.JPG,,,,,,,,,1,9,19,1,,,,,,,,,,,,,,,AFNE07.jpg,AFSA18.jpg,AFNE12.jpg,AFSA20.jpg,AFNE07.jpg,FN,3,num_8,16,num_8,0.783499417594,,,2017_Apr_05_1133,60.0128386814,FEMA4ImagesEEG,001,100110,
AFNE01.JPG,AFNE01.JPG,AFNE01.JPG,AFNE01.JPG,AFNE01.JPG,AFNE01.JPG,,,,,,,,,2,0,20,0,,,,,,,,,,,,,,,AFSA01.jpg,AFNE01.jpg,AFSA16.jpg,AFNE05.jpg,AFNE01.jpg,FN,3,num_6,32,num_4,0.866792310961,,,2017_Apr_05_1133,60.0128386814,FEMA4ImagesEEG,001,100110,
AFNE01.JPG,AFNE01.JPG,AFNE01.JPG,AFNE01.JPG,AFNE01.JPG,AFNE01.JPG,,,,,,,,,2,1,21,2,,,,,,,,,,,,,,,AFNE01.jpg,AFSA18.jpg,AFSA10.jpg,AFNE15.jpg,AFSA18.jpg,FS,4,num_6,32,num_8,0.816761087161,,,2017_Apr_05_1133,60.0128386814,FEMA4ImagesEEG,001,100110,
AFNE01.JPG,AFNE01.JPG,AFNE01.JPG,AFNE01.JPG,AFNE01.JPG,AFNE01.JPG,,,,,,,,,2,2,22,7,,,,,,,,,,,,,,,AFSA07.jpg,AFSA18.jpg,AFNE14.jpg,AFNE12.jpg,AFSA07.jpg,FS,4,num_8,32,num_4,0.733459854499,,,2017_Apr_05_1133,60.0128386814,FEMA4ImagesEEG,001,100110,
AFNE01.JPG,AFNE01.JPG,AFNE01.JPG,AFNE01.JPG,AFNE01.JPG,AFNE01.JPG,,,,,,,,,2,3,23,8,,,,,,,,,,,,,,,AFNE20.jpg,AFNE09.jpg,AFSA14.jpg,AFSA09.jpg,AFSA14.jpg,FS,4,num_2,32,num_8,0.650145792169,,,2017_Apr_05_1133,60.0128386814,FEMA4ImagesEEG,001,100110,
AFNE01.JPG,AFNE01.JPG,AFNE01.JPG,AFNE01.JPG,AFNE01.JPG,AFNE01.JPG,,,,,,,,,2,4,24,9,,,,,,,,,,,,,,,AFNE02.jpg,AFSA03.jpg,AFNE07.jpg,AFSA16.jpg,AFSA16.jpg,FS,4,num_4,16,num_4,0.75011522579,,,2017_Apr_05_1133,60.0128386814,FEMA4ImagesEEG,001,100110,
AFNE01.JPG,AFNE01.JPG,AFNE01.JPG,AFNE01.JPG,AFNE01.JPG,AFNE01.JPG,,,,,,,,,2,5,25,4,,,,,,,,,,,,,,,AFSA11.jpg,AFSA17.jpg,AFNE10.jpg,AFNE09.jpg,AFNE09.jpg,FN,3,num_4,16,num_4,0.750185147161,,,2017_Apr_05_1133,60.0128386814,FEMA4ImagesEEG,001,100110,
AFNE01.JPG,AFNE01.JPG,AFNE01.JPG,AFNE01.JPG,AFNE01.JPG,AFNE01.JPG,,,,,,,,,2,6,26,1,,,,,,,,,,,,,,,AFNE14.jpg,AFSA04.jpg,AFNE07.jpg,AFSA18.jpg,AFSA18.jpg,FS,4,num_4,32,num_2,1.03348779096,,,2017_Apr_05_1133,60.0128386814,FEMA4ImagesEEG,001,100110,
AFNE01.JPG,AFNE01.JPG,AFNE01.JPG,AFNE01.JPG,AFNE01.JPG,AFNE01.JPG,,,,,,,,,2,7,27,3,,,,,,,,,,,,,,,AFSA11.jpg,AFNE18.jpg,AFSA13.jpg,AFNE12.jpg,AFSA11.jpg,FS,4,num_8,16,num_8,0.766804595478,,,2017_Apr_05_1133,60.0128386814,FEMA4ImagesEEG,001,100110,
AFNE01.JPG,AFNE01.JPG,AFNE01.JPG,AFNE01.JPG,AFNE01.JPG,AFNE01.JPG,,,,,,,,,2,8,28,5,,,,,,,,,,,,,,,AFNE03.jpg,AFSA04.jpg,AFSA08.jpg,AFNE19.jpg,AFSA04.jpg,FS,4,num_6,32,num_2,1.25012821564,,,2017_Apr_05_1133,60.0128386814,FEMA4ImagesEEG,001,100110,
AFNE01.JPG,AFNE01.JPG,AFNE01.JPG,AFNE01.JPG,AFNE01.JPG,AFNE01.JPG,,,,,,,,,2,9,29,6,,,,,,,,,,,,,,,AFSA03.jpg,AFNE17.jpg,AFNE10.jpg,AFSA02.jpg,AFSA03.jpg,FS,4,num_8,32,num_4,0.750102075282,,,2017_Apr_05_1133,60.0128386814,FEMA4ImagesEEG,001,100110,
AFNE01.JPG,AFNE01.JPG,AFNE01.JPG,AFNE01.JPG,AFNE01.JPG,AFNE01.JPG,,,,,,,,,3,0,30,9,,,,,,,,,,,,,,,AFSA05.jpg,AFNE08.jpg,AFNE01.jpg,AFSA19.jpg,AFSA19.jpg,FS,4,num_4,16,num_4,1.83339015767,,,2017_Apr_05_1133,60.0128386814,FEMA4ImagesEEG,001,100110,
AFNE01.JPG,AFNE01.JPG,AFNE01.JPG,AFNE01.JPG,AFNE01.JPG,AFNE01.JPG,,,,,,,,,3,1,31,1,,,,,,,,,,,,,,,AFNE09.jpg,AFNE08.jpg,AFSA13.jpg,AFSA07.jpg,AFNE09.jpg,FN,3,num_8,16,num_8,0.949805198703,,,2017_Apr_05_1133,60.0128386814,FEMA4ImagesEEG,001,100110,
AFNE01.JPG,AFNE01.JPG,AFNE01.JPG,AFNE01.JPG,AFNE01.JPG,AFNE01.JPG,,,,,,,,,3,2,32,5,,,,,,,,,,,,,,,AFSA02.jpg,AFNE19.jpg,AFNE03.jpg,AFSA11.jpg,AFSA02.jpg,FS,4,num_8,32,num_4,0.916749123484,,,2017_Apr_05_1133,60.0128386814,FEMA4ImagesEEG,001,100110,
AFNE01.JPG,AFNE01.JPG,AFNE01.JPG,AFNE01.JPG,AFNE01.JPG,AFNE01.JPG,,,,,,,,,3,3,33,6,,,,,,,,,,,,,,,AFNE14.jpg,AFSA03.jpg,AFNE16.jpg,AFSA06.jpg,AFSA06.jpg,FS,4,num_4,32,num_6,0.850177994464,,,2017_Apr_05_1133,60.0128386814,FEMA4ImagesEEG,001,100110,
AFNE01.JPG,AFNE01.JPG,AFNE01.JPG,AFNE01.JPG,AFNE01.JPG,AFNE01.JPG,,,,,,,,,3,4,34,0,,,,,,,,,,,,,,,AFSA02.jpg,AFSA10.jpg,AFNE18.jpg,AFNE06.jpg,AFSA10.jpg,FS,4,num_6,32,num_4,0.750103037572,,,2017_Apr_05_1133,60.0128386814,FEMA4ImagesEEG,001,100110,
AFNE01.JPG,AFNE01.JPG,AFNE01.JPG,AFNE01.JPG,AFNE01.JPG,AFNE01.JPG,,,,,,,,,3,5,35,4,,,,,,,,,,,,,,,AFSA14.jpg,AFNE13.jpg,AFSA12.jpg,AFNE19.jpg,AFSA12.jpg,FS,4,num_2,16,num_2,1.10028055101,,,2017_Apr_05_1133,60.0128386814,FEMA4ImagesEEG,001,100110,
AFNE01.JPG,AFNE01.JPG,AFNE01.JPG,AFNE01.JPG,AFNE01.JPG,AFNE01.JPG,,,,,,,,,3,6,36,8,,,,,,,,,,,,,,,AFNE16.jpg,AFSA04.jpg,AFSA15.jpg,AFNE11.jpg,AFNE11.jpg,FN,3,num_4,32,num_6,0.850258179475,,,2017_Apr_05_1133,60.0128386814,FEMA4ImagesEEG,001,100110,
AFNE01.JPG,AFNE01.JPG,AFNE01.JPG,AFNE01.JPG,AFNE01.JPG,AFNE01.JPG,,,,,,,,,3,7,37,7,,,,,,,,,,,,,,,AFNE19.jpg,AFSA04.jpg,AFSA01.jpg,AFNE09.jpg,AFNE09.jpg,FN,3,num_4,32,num_2,0.750131904148,,,2017_Apr_05_1133,60.0128386814,FEMA4ImagesEEG,001,100110,
AFNE01.JPG,AFNE01.JPG,AFNE01.JPG,AFNE01.JPG,AFNE01.JPG,AFNE01.JPG,,,,,,,,,3,8,38,3,,,,,,,,,,,,,,,AFNE04.jpg,AFSA07.jpg,AFNE11.jpg,AFSA16.jpg,AFSA07.jpg,FS,4,num_6,32,num_8,0.950130749494,,,2017_Apr_05_1133,60.0128386814,FEMA4ImagesEEG,001,100110,
AFNE01.JPG,AFNE01.JPG,AFNE01.JPG,AFNE01.JPG,AFNE01.JPG,AFNE01.JPG,,,,,,,,,3,9,39,2,,,,,,,,,,,,,,,AFSA11.jpg,AFNE06.jpg,AFNE09.jpg,AFSA12.jpg,AFNE09.jpg,FN,3,num_2,32,num_6,0.850189220393,,,2017_Apr_05_1133,60.0128386814,FEMA4ImagesEEG,001,100110,
AFNE01.JPG,AFNE01.JPG,AFNE01.JPG,AFNE01.JPG,AFNE01.JPG,AFNE01.JPG,,,,,,,,,4,0,40,7,,,,,,,,,,,,,,,AFSA11.jpg,AFNE09.jpg,AFNE19.jpg,AFSA05.jpg,AFNE09.jpg,FN,3,num_6,16,num_6,0.783571263542,,,2017_Apr_05_1133,60.0128386814,FEMA4ImagesEEG,001,100110,
AFNE01.JPG,AFNE01.JPG,AFNE01.JPG,AFNE01.JPG,AFNE01.JPG,AFNE01.JPG,,,,,,,,,4,1,41,0,,,,,,,,,,,,,,,AFNE02.jpg,AFSA19.jpg,AFSA10.jpg,AFNE04.jpg,AFSA10.jpg,FS,4,num_2,32,num_6,1.10016027372,,,2017_Apr_05_1133,60.0128386814,FEMA4ImagesEEG,001,100110,
AFNE01.JPG,AFNE01.JPG,AFNE01.JPG,AFNE01.JPG,AFNE01.JPG,AFNE01.JPG,,,,,,,,,4,2,42,3,,,,,,,,,,,,,,,AFSA12.jpg,AFSA15.jpg,AFNE16.jpg,AFNE01.jpg,AFNE16.jpg,FN,3,num_2,16,num_2,0.700148470234,,,2017_Apr_05_1133,60.0128386814,FEMA4ImagesEEG,001,100110,
AFNE01.JPG,AFNE01.JPG,AFNE01.JPG,AFNE01.JPG,AFNE01.JPG,AFNE01.JPG,,,,,,,,,4,3,43,9,,,,,,,,,,,,,,,AFSA18.jpg,AFNE05.jpg,AFNE03.jpg,AFSA14.jpg,AFNE03.jpg,FN,3,num_2,16,num_2,0.783454193268,,,2017_Apr_05_1133,60.0128386814,FEMA4ImagesEEG,001,100110,
AFNE01.JPG,AFNE01.JPG,AFNE01.JPG,AFNE01.JPG,AFNE01.JPG,AFNE01.JPG,,,,,,,,,4,4,44,8,,,,,,,,,,,,,,,AFNE16.jpg,AFNE09.jpg,AFSA07.jpg,AFSA08.jpg,AFSA07.jpg,FS,4,num_2,32,num_4,1.48309429153,,,2017_Apr_05_1133,60.0128386814,FEMA4ImagesEEG,001,100110,
AFNE01.JPG,AFNE01.JPG,AFNE01.JPG,AFNE01.JPG,AFNE01.JPG,AFNE01.JPG,,,,,,,,,4,5,45,5,,,,,,,,,,,,,,,AFNE20.jpg,AFNE17.jpg,AFSA03.jpg,AFSA09.jpg,AFNE17.jpg,FN,3,num_6,16,num_6,0.700116396416,,,2017_Apr_05_1133,60.0128386814,FEMA4ImagesEEG,001,100110,
AFNE01.JPG,AFNE01.JPG,AFNE01.JPG,AFNE01.JPG,AFNE01.JPG,AFNE01.JPG,,,,,,,,,4,6,46,4,,,,,,,,,,,,,,,AFSA18.jpg,AFSA08.jpg,AFNE15.jpg,AFNE05.jpg,AFSA08.jpg,FS,4,num_6,32,num_4,2.21670906292,,,2017_Apr_05_1133,60.0128386814,FEMA4ImagesEEG,001,100110,
AFNE01.JPG,AFNE01.JPG,AFNE01.JPG,AFNE01.JPG,AFNE01.JPG,AFNE01.JPG,,,,,,,,,4,7,47,2,,,,,,,,,,,,,,,AFNE12.jpg,AFSA11.jpg,AFNE18.jpg,AFSA05.jpg,AFSA11.jpg,FS,4,num_6,16,num_6,0.500142247882,,,2017_Apr_05_1133,60.0128386814,FEMA4ImagesEEG,001,100110,
AFNE01.JPG,AFNE01.JPG,AFNE01.JPG,AFNE01.JPG,AFNE01.JPG,AFNE01.JPG,,,,,,,,,4,8,48,1,,,,,,,,,,,,,,,AFNE15.jpg,AFSA09.jpg,AFSA10.jpg,AFNE17.jpg,AFNE17.jpg,FN,3,num_4,16,num_4,1.11670082016,,,2017_Apr_05_1133,60.0128386814,FEMA4ImagesEEG,001,100110,
AFNE01.JPG,AFNE01.JPG,AFNE01.JPG,AFNE01.JPG,AFNE01.JPG,AFNE01.JPG,,,,,,,,,4,9,49,6,,,,,,,,,,,,,,,AFNE02.jpg,AFSA20.jpg,AFSA05.jpg,AFNE06.jpg,AFNE06.jpg,FN,3,num_4,32,num_6,0.666771976277,,,2017_Apr_05_1133,60.0128386814,FEMA4ImagesEEG,001,100110,
AFNE01.JPG,AFNE01.JPG,AFNE01.JPG,AFNE01.JPG,AFNE01.JPG,AFNE01.JPG,,,,,,,,,5,0,50,5,,,,,,,,,,,,,,,AFSA14.jpg,AFNE11.jpg,AFSA01.jpg,AFNE18.jpg,AFSA01.jpg,FS,4,num_2,32,num_8,0.733484872151,,,2017_Apr_05_1133,60.0128386814,FEMA4ImagesEEG,001,100110,
AFNE01.JPG,AFNE01.JPG,AFNE01.JPG,AFNE01.JPG,AFNE01.JPG,AFNE01.JPG,,,,,,,,,5,1,51,7,,,,,,,,,,,,,,,AFSA12.jpg,AFNE14.jpg,AFNE06.jpg,AFSA06.jpg,AFNE14.jpg,FN,3,num_6,16,num_6,0.833296181168,,,2017_Apr_05_1133,60.0128386814,FEMA4ImagesEEG,001,100110,
AFNE01.JPG,AFNE01.JPG,AFNE01.JPG,AFNE01.JPG,AFNE01.JPG,AFNE01.JPG,,,,,,,,,5,2,52,0,,,,,,,,,,,,,,,AFSA09.jpg,AFNE15.jpg,AFSA14.jpg,AFNE03.jpg,AFSA14.jpg,FS,4,num_2,32,num_6,0.88347622822,,,2017_Apr_05_1133,60.0128386814,FEMA4ImagesEEG,001,100110,
AFNE01.JPG,AFNE01.JPG,AFNE01.JPG,AFNE01.JPG,AFNE01.JPG,AFNE01.JPG,,,,,,,,,5,3,53,1,,,,,,,,,,,,,,,AFSA18.jpg,AFSA13.jpg,AFNE12.jpg,AFNE17.jpg,AFNE12.jpg,FN,3,num_2,16,num_2,0.883491303073,,,2017_Apr_05_1133,60.0128386814,FEMA4ImagesEEG,001,100110,
AFNE01.JPG,AFNE01.JPG,AFNE01.JPG,AFNE01.JPG,AFNE01.JPG,AFNE01.JPG,,,,,,,,,5,4,54,9,,,,,,,,,,,,,,,AFNE04.jpg,AFSA05.jpg,AFNE08.jpg,AFSA09.jpg,AFSA05.jpg,FS,4,num_6,32,num_2,0.966761423973,,,2017_Apr_05_1133,60.0128386814,FEMA4ImagesEEG,001,100110,
AFNE01.JPG,AFNE01.JPG,AFNE01.JPG,AFNE01.JPG,AFNE01.JPG,AFNE01.JPG,,,,,,,,,5,5,55,8,,,,,,,,,,,,,,,AFSA10.jpg,AFNE17.jpg,AFSA19.jpg,AFNE11.jpg,AFNE17.jpg,FN,3,num_6,32,num_2,1.11645769933,,,2017_Apr_05_1133,60.0128386814,FEMA4ImagesEEG,001,100110,
AFNE01.JPG,AFNE01.JPG,AFNE01.JPG,AFNE01.JPG,AFNE01.JPG,AFNE01.JPG,,,,,,,,,5,6,56,6,,,,,,,,,,,,,,,AFNE07.jpg,AFNE18.jpg,AFSA19.jpg,AFSA05.jpg,AFNE07.jpg,FN,3,num_8,32,num_2,0.966796063585,,,2017_Apr_05_1133,60.0128386814,FEMA4ImagesEEG,001,100110,
AFNE01.JPG,AFNE01.JPG,AFNE01.JPG,AFNE01.JPG,AFNE01.JPG,AFNE01.JPG,,,,,,,,,5,7,57,4,,,,,,,,,,,,,,,AFNE10.jpg,AFNE19.jpg,AFSA17.jpg,AFSA02.jpg,AFNE10.jpg,FN,3,num_8,16,num_8,0.783486267319,,,2017_Apr_05_1133,60.0128386814,FEMA4ImagesEEG,001,100110,
AFNE01.JPG,AFNE01.JPG,AFNE01.JPG,AFNE01.JPG,AFNE01.JPG,AFNE01.JPG,,,,,,,,,5,8,58,2,,,,,,,,,,,,,,,AFNE03.jpg,AFNE07.jpg,AFSA11.jpg,AFSA13.jpg,AFNE07.jpg,FN,3,num_6,16,num_6,0.716798389331,,,2017_Apr_05_1133,60.0128386814,FEMA4ImagesEEG,001,100110,
AFNE01.JPG,AFNE01.JPG,AFNE01.JPG,AFNE01.JPG,AFNE01.JPG,AFNE01.JPG,,,,,,,,,5,9,59,3,,,,,,,,,,,,,,,AFNE18.jpg,AFSA07.jpg,AFSA17.jpg,AFNE01.jpg,AFNE18.jpg,FN,3,num_8,32,num_4,0.783479211153,,,2017_Apr_05_1133,60.0128386814,FEMA4ImagesEEG,001,100110,
,,,,,,,,,,,,,,,,,,,,,,,,,,,,,,,,,,,,,,,,,,,space,3.33325849404,2017_Apr_05_1133,60.0128386814,FEMA4ImagesEEG,001,100110,
AFNE01.JPG,AFNE01.JPG,AFNE01.JPG,AFNE01.JPG,AFNE01.JPG,AFNE01.JPG,,,,,,,,,,,,,0,0,0,4,,,,,,,,,,,AMNE03.jpg,AMSA15.jpg,AMNE15.jpg,AMSA05.jpg,AMNE03.jpg,MN,1,num_8,32,num_4,0.583496723557,,,2017_Apr_05_1133,60.0128386814,FEMA4ImagesEEG,001,100110,
AFNE01.JPG,AFNE01.JPG,AFNE01.JPG,AFNE01.JPG,AFNE01.JPG,AFNE01.JPG,,,,,,,,,,,,,0,1,1,9,,,,,,,,,,,AMNE20.jpg,AMNE14.jpg,AMSA11.jpg,AMSA16.jpg,AMSA16.jpg,MS,2,num_4,32,num_6,0.916624034988,,,2017_Apr_05_1133,60.0128386814,FEMA4ImagesEEG,001,100110,
AFNE01.JPG,AFNE01.JPG,AFNE01.JPG,AFNE01.JPG,AFNE01.JPG,AFNE01.JPG,,,,,,,,,,,,,0,2,2,1,,,,,,,,,,,AMSA01.jpg,AMSA13.jpg,AMNE10.jpg,AMNE17.jpg,AMNE17.jpg,MN,1,num_4,16,num_4,1.10013461462,,,2017_Apr_05_1133,60.0128386814,FEMA4ImagesEEG,001,100110,
AFNE01.JPG,AFNE01.JPG,AFNE01.JPG,AFNE01.JPG,AFNE01.JPG,AFNE01.JPG,,,,,,,,,,,,,0,3,3,5,,,,,,,,,,,AMNE09.jpg,AMNE07.jpg,AMSA20.jpg,AMSA06.jpg,AMNE09.jpg,MN,1,num_8,16,num_8,1.84993262868,,,2017_Apr_05_1133,60.0128386814,FEMA4ImagesEEG,001,100110,
AFNE01.JPG,AFNE01.JPG,AFNE01.JPG,AFNE01.JPG,AFNE01.JPG,AFNE01.JPG,,,,,,,,,,,,,0,4,4,6,,,,,,,,,,,AMNE19.jpg,AMSA10.jpg,AMNE03.jpg,AMSA18.jpg,AMNE03.jpg,MN,1,num_2,32,num_8,0.833437306341,,,2017_Apr_05_1133,60.0128386814,FEMA4ImagesEEG,001,100110,
AFNE01.JPG,AFNE01.JPG,AFNE01.JPG,AFNE01.JPG,AFNE01.JPG,AFNE01.JPG,,,,,,,,,,,,,0,5,5,3,,,,,,,,,,,AMSA12.jpg,AMNE13.jpg,AMSA01.jpg,AMNE08.jpg,AMNE13.jpg,MN,1,num_6,16,num_6,0.666852802737,,,2017_Apr_05_1133,60.0128386814,FEMA4ImagesEEG,001,100110,
AFNE01.JPG,AFNE01.JPG,AFNE01.JPG,AFNE01.JPG,AFNE01.JPG,AFNE01.JPG,,,,,,,,,,,,,0,6,6,8,,,,,,,,,,,AMSA06.jpg,AMNE03.jpg,AMSA09.jpg,AMNE10.jpg,AMSA09.jpg,MS,2,num_2,32,num_4,1.06682066456,,,2017_Apr_05_1133,60.0128386814,FEMA4ImagesEEG,001,100110,
AFNE01.JPG,AFNE01.JPG,AFNE01.JPG,AFNE01.JPG,AFNE01.JPG,AFNE01.JPG,,,,,,,,,,,,,0,7,7,2,,,,,,,,,,,AMSA14.jpg,AMNE08.jpg,AMSA17.jpg,AMNE02.jpg,AMSA17.jpg,MS,2,num_2,32,num_8,0.933424701449,,,2017_Apr_05_1133,60.0128386814,FEMA4ImagesEEG,001,100110,
AFNE01.JPG,AFNE01.JPG,AFNE01.JPG,AFNE01.JPG,AFNE01.JPG,AFNE01.JPG,,,,,,,,,,,,,0,8,8,0,,,,,,,,,,,AMSA10.jpg,AMNE15.jpg,AMSA19.jpg,AMNE17.jpg,AMSA19.jpg,MS,2,num_2,16,num_2,1.20041003381,,,2017_Apr_05_1133,60.0128386814,FEMA4ImagesEEG,001,100110,
AFNE01.JPG,AFNE01.JPG,AFNE01.JPG,AFNE01.JPG,AFNE01.JPG,AFNE01.JPG,,,,,,,,,,,,,0,9,9,7,,,,,,,,,,,AMNE14.jpg,AMNE20.jpg,AMSA08.jpg,AMSA03.jpg,AMSA03.jpg,MS,2,num_4,16,num_4,1.14998494135,,,2017_Apr_05_1133,60.0128386814,FEMA4ImagesEEG,001,100110,
AFNE01.JPG,AFNE01.JPG,AFNE01.JPG,AFNE01.JPG,AFNE01.JPG,AFNE01.JPG,,,,,,,,,,,,,1,0,10,6,,,,,,,,,,,AMSA05.jpg,AMNE06.jpg,AMNE16.jpg,AMSA15.jpg,AMNE16.jpg,MN,1,num_2,16,num_2,1.41671528551,,,2017_Apr_05_1133,60.0128386814,FEMA4ImagesEEG,001,100110,
AFNE01.JPG,AFNE01.JPG,AFNE01.JPG,AFNE01.JPG,AFNE01.JPG,AFNE01.JPG,,,,,,,,,,,,,1,1,11,2,,,,,,,,,,,AMNE20.jpg,AMSA10.jpg,AMNE15.jpg,AMSA09.jpg,AMSA10.jpg,MS,2,num_6,16,num_6,0.600151774008,,,2017_Apr_05_1133,60.0128386814,FEMA4ImagesEEG,001,100110,
AFNE01.JPG,AFNE01.JPG,AFNE01.JPG,AFNE01.JPG,AFNE01.JPG,AFNE01.JPG,,,,,,,,,,,,,1,2,12,9,,,,,,,,,,,AMNE13.jpg,AMSA09.jpg,AMNE19.jpg,AMSA20.jpg,AMSA20.jpg,MS,2,num_4,16,num_4,2.16663870867,,,2017_Apr_05_1133,60.0128386814,FEMA4ImagesEEG,001,100110,
AFNE01.JPG,AFNE01.JPG,AFNE01.JPG,AFNE01.JPG,AFNE01.JPG,AFNE01.JPG,,,,,,,,,,,,,1,3,13,1,,,,,,,,,,,AMSA09.jpg,AMSA17.jpg,AMNE01.jpg,AMNE20.jpg,AMNE01.jpg,MN,1,num_2,16,num_2,0.633497797884,,,2017_Apr_05_1133,60.0128386814,FEMA4ImagesEEG,001,100110,
AFNE01.JPG,AFNE01.JPG,AFNE01.JPG,AFNE01.JPG,AFNE01.JPG,AFNE01.JPG,,,,,,,,,,,,,1,4,14,0,,,,,,,,,,,AMSA16.jpg,AMNE12.jpg,AMSA15.jpg,AMNE09.jpg,AMSA16.jpg,MS,2,num_8,16,num_8,1.20010629296,,,2017_Apr_05_1133,60.0128386814,FEMA4ImagesEEG,001,100110,
AFNE01.JPG,AFNE01.JPG,AFNE01.JPG,AFNE01.JPG,AFNE01.JPG,AFNE01.JPG,,,,,,,,,,,,,1,5,15,4,,,,,,,,,,,AMNE04.jpg,AMSA16.jpg,AMSA09.jpg,AMNE03.jpg,AMSA09.jpg,MS,2,num_2,32,num_4,0.750159166986,,,2017_Apr_05_1133,60.0128386814,FEMA4ImagesEEG,001,100110,
AFNE01.JPG,AFNE01.JPG,AFNE01.JPG,AFNE01.JPG,AFNE01.JPG,AFNE01.JPG,,,,,,,,,,,,,1,6,16,7,,,,,,,,,,,AMNE13.jpg,AMSA19.jpg,AMSA20.jpg,AMNE19.jpg,AMNE13.jpg,MN,1,num_8,32,num_6,0.916764198337,,,2017_Apr_05_1133,60.0128386814,FEMA4ImagesEEG,001,100110,
AFNE01.JPG,AFNE01.JPG,AFNE01.JPG,AFNE01.JPG,AFNE01.JPG,AFNE01.JPG,,,,,,,,,,,,,1,7,17,5,,,,,,,,,,,AMNE09.jpg,AMNE01.jpg,AMSA09.jpg,AMSA19.jpg,AMNE01.jpg,MN,1,num_6,16,num_6,0.666831633775,,,2017_Apr_05_1133,60.0128386814,FEMA4ImagesEEG,001,100110,
AFNE01.JPG,AFNE01.JPG,AFNE01.JPG,AFNE01.JPG,AFNE01.JPG,AFNE01.JPG,,,,,,,,,,,,,1,8,18,3,,,,,,,,,,,AMSA04.jpg,AMSA08.jpg,AMNE20.jpg,AMNE02.jpg,AMNE20.jpg,MN,1,num_2,32,num_4,1.21677353187,,,2017_Apr_05_1133,60.0128386814,FEMA4ImagesEEG,001,100110,
AFNE01.JPG,AFNE01.JPG,AFNE01.JPG,AFNE01.JPG,AFNE01.JPG,AFNE01.JPG,,,,,,,,,,,,,1,9,19,8,,,,,,,,,,,AMNE08.jpg,AMNE01.jpg,AMSA13.jpg,AMSA18.jpg,AMSA18.jpg,MS,2,num_4,16,num_4,0.966792214895,,,2017_Apr_05_1133,60.0128386814,FEMA4ImagesEEG,001,100110,
AFNE01.JPG,AFNE01.JPG,AFNE01.JPG,AFNE01.JPG,AFNE01.JPG,AFNE01.JPG,,,,,,,,,,,,,2,0,20,5,,,,,,,,,,,AMSA03.jpg,AMSA15.jpg,AMNE07.jpg,AMNE06.jpg,AMSA15.jpg,MS,2,num_6,16,num_6,0.600246071583,,,2017_Apr_05_1133,60.0128386814,FEMA4ImagesEEG,001,100110,
AFNE01.JPG,AFNE01.JPG,AFNE01.JPG,AFNE01.JPG,AFNE01.JPG,AFNE01.JPG,,,,,,,,,,,,,2,1,21,3,,,,,,,,,,,AMSA15.jpg,AMNE12.jpg,AMSA04.jpg,AMNE03.jpg,AMSA04.jpg,MS,2,num_2,32,num_4,0.800176278688,,,2017_Apr_05_1133,60.0128386814,FEMA4ImagesEEG,001,100110,
AFNE01.JPG,AFNE01.JPG,AFNE01.JPG,AFNE01.JPG,AFNE01.JPG,AFNE01.JPG,,,,,,,,,,,,,2,2,22,7,,,,,,,,,,,AMNE18.jpg,AMSA14.jpg,AMSA13.jpg,AMNE10.jpg,AMSA13.jpg,MS,2,num_2,16,num_2,1.48347725463,,,2017_Apr_05_1133,60.0128386814,FEMA4ImagesEEG,001,100110,
AFNE01.JPG,AFNE01.JPG,AFNE01.JPG,AFNE01.JPG,AFNE01.JPG,AFNE01.JPG,,,,,,,,,,,,,2,3,23,1,,,,,,,,,,,AMNE02.jpg,AMNE12.jpg,AMSA05.jpg,AMSA18.jpg,AMNE02.jpg,MN,1,num_8,16,num_8,1.03345828271,,,2017_Apr_05_1133,60.0128386814,FEMA4ImagesEEG,001,100110,
AFNE01.JPG,AFNE01.JPG,AFNE01.JPG,AFNE01.JPG,AFNE01.JPG,AFNE01.JPG,,,,,,,,,,,,,2,4,24,0,,,,,,,,,,,AMNE13.jpg,AMSA13.jpg,AMSA11.jpg,AMNE11.jpg,AMSA13.jpg,MS,2,num_6,16,num_6,0.78350839857,,,2017_Apr_05_1133,60.0128386814,FEMA4ImagesEEG,001,100110,
AFNE01.JPG,AFNE01.JPG,AFNE01.JPG,AFNE01.JPG,AFNE01.JPG,AFNE01.JPG,,,,,,,,,,,,,2,5,25,2,,,,,,,,,,,AMSA09.jpg,AMNE09.jpg,AMSA06.jpg,AMNE05.jpg,AMSA06.jpg,MS,2,num_2,16,num_2,1.81666839332,,,2017_Apr_05_1133,60.0128386814,FEMA4ImagesEEG,001,100110,
AFNE01.JPG,AFNE01.JPG,AFNE01.JPG,AFNE01.JPG,AFNE01.JPG,AFNE01.JPG,,,,,,,,,,,,,2,6,26,8,,,,,,,,,,,AMSA10.jpg,AMNE20.jpg,AMSA04.jpg,AMNE07.jpg,AMSA10.jpg,MS,2,num_8,16,num_8,0.85014367546,,,2017_Apr_05_1133,60.0128386814,FEMA4ImagesEEG,001,100110,
AFNE01.JPG,AFNE01.JPG,AFNE01.JPG,AFNE01.JPG,AFNE01.JPG,AFNE01.JPG,,,,,,,,,,,,,2,7,27,4,,,,,,,,,,,AMSA05.jpg,AMNE20.jpg,AMSA12.jpg,AMNE03.jpg,AMSA05.jpg,MS,2,num_8,16,num_8,0.683473213343,,,2017_Apr_05_1133,60.0128386814,FEMA4ImagesEEG,001,100110,
AFNE01.JPG,AFNE01.JPG,AFNE01.JPG,AFNE01.JPG,AFNE01.JPG,AFNE01.JPG,,,,,,,,,,,,,2,8,28,9,,,,,,,,,,,AMSA20.jpg,AMSA04.jpg,AMNE19.jpg,AMNE16.jpg,AMNE16.jpg,MN,1,num_4,32,num_6,0.883501245873,,,2017_Apr_05_1133,60.0128386814,FEMA4ImagesEEG,001,100110,
AFNE01.JPG,AFNE01.JPG,AFNE01.JPG,AFNE01.JPG,AFNE01.JPG,AFNE01.JPG,,,,,,,,,,,,,2,9,29,6,,,,,,,,,,,AMNE17.jpg,AMNE11.jpg,AMSA01.jpg,AMSA05.jpg,AMNE11.jpg,MN,1,num_6,16,num_6,1.00013182405,,,2017_Apr_05_1133,60.0128386814,FEMA4ImagesEEG,001,100110,
AFNE01.JPG,AFNE01.JPG,AFNE01.JPG,AFNE01.JPG,AFNE01.JPG,AFNE01.JPG,,,,,,,,,,,,,3,0,30,2,,,,,,,,,,,AMSA01.jpg,AMNE08.jpg,AMSA09.jpg,AMNE05.jpg,AMNE08.jpg,MN,1,num_6,32,num_2,1.11662929528,,,2017_Apr_05_1133,60.0128386814,FEMA4ImagesEEG,001,100110,
AFNE01.JPG,AFNE01.JPG,AFNE01.JPG,AFNE01.JPG,AFNE01.JPG,AFNE01.JPG,,,,,,,,,,,,,3,1,31,5,,,,,,,,,,,AMSA16.jpg,AMSA03.jpg,AMNE15.jpg,AMNE07.jpg,AMNE07.jpg,MN,1,num_4,32,num_2,0.866737785516,,,2017_Apr_05_1133,60.0128386814,FEMA4ImagesEEG,001,100110,
AFNE01.JPG,AFNE01.JPG,AFNE01.JPG,AFNE01.JPG,AFNE01.JPG,AFNE01.JPG,,,,,,,,,,,,,3,2,32,7,,,,,,,,,,,AMNE05.jpg,AMSA03.jpg,AMSA04.jpg,AMNE06.jpg,AMSA03.jpg,MS,2,num_6,16,num_6,0.833468738943,,,2017_Apr_05_1133,60.0128386814,FEMA4ImagesEEG,001,100110,
AFNE01.JPG,AFNE01.JPG,AFNE01.JPG,AFNE01.JPG,AFNE01.JPG,AFNE01.JPG,,,,,,,,,,,,,3,3,33,4,,,,,,,,,,,AMSA14.jpg,AMSA20.jpg,AMNE09.jpg,AMNE05.jpg,AMNE05.jpg,MN,1,num_4,32,num_6,0.866734578041,,,2017_Apr_05_1133,60.0128386814,FEMA4ImagesEEG,001,100110,
AFNE01.JPG,AFNE01.JPG,AFNE01.JPG,AFNE01.JPG,AFNE01.JPG,AFNE01.JPG,,,,,,,,,,,,,3,4,34,9,,,,,,,,,,,AMNE11.jpg,AMNE20.jpg,AMSA14.jpg,AMSA20.jpg,AMSA20.jpg,MS,2,num_4,16,num_4,0.733477815986,,,2017_Apr_05_1133,60.0128386814,FEMA4ImagesEEG,001,100110,
AFNE01.JPG,AFNE01.JPG,AFNE01.JPG,AFNE01.JPG,AFNE01.JPG,AFNE01.JPG,,,,,,,,,,,,,3,5,35,6,,,,,,,,,,,AMSA18.jpg,AMSA09.jpg,AMNE04.jpg,AMNE06.jpg,AMSA18.jpg,MS,2,num_8,32,num_2,1.20018423279,,,2017_Apr_05_1133,60.0128386814,FEMA4ImagesEEG,001,100110,
AFNE01.JPG,AFNE01.JPG,AFNE01.JPG,AFNE01.JPG,AFNE01.JPG,AFNE01.JPG,,,,,,,,,,,,,3,6,36,3,,,,,,,,,,,AMSA12.jpg,AMSA06.jpg,AMNE20.jpg,AMNE02.jpg,AMNE20.jpg,MN,1,num_2,32,num_8,0.950030678883,,,2017_Apr_05_1133,60.0128386814,FEMA4ImagesEEG,001,100110,
AFNE01.JPG,AFNE01.JPG,AFNE01.JPG,AFNE01.JPG,AFNE01.JPG,AFNE01.JPG,,,,,,,,,,,,,3,7,37,8,,,,,,,,,,,AMNE16.jpg,AMSA18.jpg,AMSA10.jpg,AMNE07.jpg,AMNE16.jpg,MN,1,num_8,32,num_2,1.08340322785,,,2017_Apr_05_1133,60.0128386814,FEMA4ImagesEEG,001,100110,
AFNE01.JPG,AFNE01.JPG,AFNE01.JPG,AFNE01.JPG,AFNE01.JPG,AFNE01.JPG,,,,,,,,,,,,,3,8,38,0,,,,,,,,,,,AMSA15.jpg,AMSA18.jpg,AMNE20.jpg,AMNE07.jpg,AMSA18.jpg,MS,2,num_6,16,num_6,0.466712510912,,,2017_Apr_05_1133,60.0128386814,FEMA4ImagesEEG,001,100110,
AFNE01.JPG,AFNE01.JPG,AFNE01.JPG,AFNE01.JPG,AFNE01.JPG,AFNE01.JPG,,,,,,,,,,,,,3,9,39,1,,,,,,,,,,,AMSA05.jpg,AMSA10.jpg,AMNE09.jpg,AMNE20.jpg,AMSA05.jpg,MS,2,num_8,32,num_6,0.783493644325,,,2017_Apr_05_1133,60.0128386814,FEMA4ImagesEEG,001,100110,
AFNE01.JPG,AFNE01.JPG,AFNE01.JPG,AFNE01.JPG,AFNE01.JPG,AFNE01.JPG,,,,,,,,,,,,,4,0,40,0,,,,,,,,,,,AMSA02.jpg,AMNE01.jpg,AMNE13.jpg,AMSA16.jpg,AMSA16.jpg,MS,2,num_4,16,num_4,0.900144108338,,,2017_Apr_05_1133,60.0128386814,FEMA4ImagesEEG,001,100110,
AFNE01.JPG,AFNE01.JPG,AFNE01.JPG,AFNE01.JPG,AFNE01.JPG,AFNE01.JPG,,,,,,,,,,,,,4,1,41,4,,,,,,,,,,,AMNE16.jpg,AMNE08.jpg,AMSA18.jpg,AMSA03.jpg,AMSA03.jpg,MS,2,num_4,16,num_4,0.866777236341,,,2017_Apr_05_1133,60.0128386814,FEMA4ImagesEEG,001,100110,
AFNE01.JPG,AFNE01.JPG,AFNE01.JPG,AFNE01.JPG,AFNE01.JPG,AFNE01.JPG,,,,,,,,,,,,,4,2,42,2,,,,,,,,,,,AMNE20.jpg,AMSA05.jpg,AMSA17.jpg,AMNE10.jpg,AMSA17.jpg,MS,2,num_2,32,num_8,0.866807385813,,,2017_Apr_05_1133,60.0128386814,FEMA4ImagesEEG,001,100110,
AFNE01.JPG,AFNE01.JPG,AFNE01.JPG,AFNE01.JPG,AFNE01.JPG,AFNE01.JPG,,,,,,,,,,,,,4,3,43,9,,,,,,,,,,,AMNE13.jpg,AMSA19.jpg,AMNE17.jpg,AMSA06.jpg,AMSA19.jpg,MS,2,num_6,32,num_4,1.26643365994,,,2017_Apr_05_1133,60.0128386814,FEMA4ImagesEEG,001,100110,
AFNE01.JPG,AFNE01.JPG,AFNE01.JPG,AFNE01.JPG,AFNE01.JPG,AFNE01.JPG,,,,,,,,,,,,,4,4,44,7,,,,,,,,,,,AMNE19.jpg,AMSA11.jpg,AMNE02.jpg,AMSA10.jpg,AMNE02.jpg,MN,1,num_2,32,num_6,0.833475795342,,,2017_Apr_05_1133,60.0128386814,FEMA4ImagesEEG,001,100110,
AFNE01.JPG,AFNE01.JPG,AFNE01.JPG,AFNE01.JPG,AFNE01.JPG,AFNE01.JPG,,,,,,,,,,,,,4,5,45,6,,,,,,,,,,,AMNE09.jpg,AMSA11.jpg,AMNE13.jpg,AMSA02.jpg,AMNE13.jpg,MN,1,num_2,16,num_2,0.700169959804,,,2017_Apr_05_1133,60.0128386814,FEMA4ImagesEEG,001,100110,
AFNE01.JPG,AFNE01.JPG,AFNE01.JPG,AFNE01.JPG,AFNE01.JPG,AFNE01.JPG,,,,,,,,,,,,,4,6,46,5,,,,,,,,,,,AMNE05.jpg,AMNE13.jpg,AMSA07.jpg,AMSA10.jpg,AMSA10.jpg,MS,2,num_4,32,num_8,1.33345157956,,,2017_Apr_05_1133,60.0128386814,FEMA4ImagesEEG,001,100110,
AFNE01.JPG,AFNE01.JPG,AFNE01.JPG,AFNE01.JPG,AFNE01.JPG,AFNE01.JPG,,,,,,,,,,,,,4,7,47,3,,,,,,,,,,,AMSA12.jpg,AMNE17.jpg,AMSA10.jpg,AMNE11.jpg,AMNE11.jpg,MN,1,num_4,32,num_6,0.950445715804,,,2017_Apr_05_1133,60.0128386814,FEMA4ImagesEEG,001,100110,
AFNE01.JPG,AFNE01.JPG,AFNE01.JPG,AFNE01.JPG,AFNE01.JPG,AFNE01.JPG,,,,,,,,,,,,,4,8,48,1,,,,,,,,,,,AMSA19.jpg,AMNE12.jpg,AMNE18.jpg,AMSA10.jpg,AMSA19.jpg,MS,2,num_8,16,num_8,1.25008363277,,,2017_Apr_05_1133,60.0128386814,FEMA4ImagesEEG,001,100110,
AFNE01.JPG,AFNE01.JPG,AFNE01.JPG,AFNE01.JPG,AFNE01.JPG,AFNE01.JPG,,,,,,,,,,,,,4,9,49,8,,,,,,,,,,,AMNE10.jpg,AMSA04.jpg,AMNE20.jpg,AMSA12.jpg,AMSA12.jpg,MS,2,num_4,16,num_4,0.800150619354,,,2017_Apr_05_1133,60.0128386814,FEMA4ImagesEEG,001,100110,
AFNE01.JPG,AFNE01.JPG,AFNE01.JPG,AFNE01.JPG,AFNE01.JPG,AFNE01.JPG,,,,,,,,,,,,,5,0,50,1,,,,,,,,,,,AMNE08.jpg,AMSA15.jpg,AMSA16.jpg,AMNE07.jpg,AMSA16.jpg,MS,2,num_2,16,num_2,0.783506473992,,,2017_Apr_05_1133,60.0128386814,FEMA4ImagesEEG,001,100110,
AFNE01.JPG,AFNE01.JPG,AFNE01.JPG,AFNE01.JPG,AFNE01.JPG,AFNE01.JPG,,,,,,,,,,,,,5,1,51,0,,,,,,,,,,,AMNE05.jpg,AMSA12.jpg,AMNE06.jpg,AMSA17.jpg,AMSA12.jpg,MS,2,num_6,16,num_6,1.1167537421,,,2017_Apr_05_1133,60.0128386814,FEMA4ImagesEEG,001,100110,
AFNE01.JPG,AFNE01.JPG,AFNE01.JPG,AFNE01.JPG,AFNE01.JPG,AFNE01.JPG,,,,,,,,,,,,,5,2,52,4,,,,,,,,,,,AMSA14.jpg,AMNE13.jpg,AMNE15.jpg,AMSA13.jpg,AMNE15.jpg,MN,1,num_2,16,num_2,1.066772233,,,2017_Apr_05_1133,60.0128386814,FEMA4ImagesEEG,001,100110,
AFNE01.JPG,AFNE01.JPG,AFNE01.JPG,AFNE01.JPG,AFNE01.JPG,AFNE01.JPG,,,,,,,,,,,,,5,3,53,9,,,,,,,,,,,AMNE09.jpg,AMSA14.jpg,AMNE18.jpg,AMSA07.jpg,AMNE18.jpg,MN,1,num_2,32,num_8,0.86678204732,,,2017_Apr_05_1133,60.0128386814,FEMA4ImagesEEG,001,100110,
AFNE01.JPG,AFNE01.JPG,AFNE01.JPG,AFNE01.JPG,AFNE01.JPG,AFNE01.JPG,,,,,,,,,,,,,5,4,54,3,,,,,,,,,,,AMNE15.jpg,AMSA13.jpg,AMSA03.jpg,AMNE05.jpg,AMSA13.jpg,MS,2,num_6,16,num_6,0.683492778335,,,2017_Apr_05_1133,60.0128386814,FEMA4ImagesEEG,001,100110,
AFNE01.JPG,AFNE01.JPG,AFNE01.JPG,AFNE01.JPG,AFNE01.JPG,AFNE01.JPG,,,,,,,,,,,,,5,5,55,5,,,,,,,,,,,AMNE18.jpg,AMSA01.jpg,AMNE08.jpg,AMSA11.jpg,AMSA11.jpg,MS,2,num_4,16,num_4,0.750141205732,,,2017_Apr_05_1133,60.0128386814,FEMA4ImagesEEG,001,100110,
AFNE01.JPG,AFNE01.JPG,AFNE01.JPG,AFNE01.JPG,AFNE01.JPG,AFNE01.JPG,,,,,,,,,,,,,5,6,56,2,,,,,,,,,,,AMSA13.jpg,AMSA04.jpg,AMNE15.jpg,AMNE17.jpg,AMSA13.jpg,MS,2,num_8,16,num_8,1.4834147105,,,2017_Apr_05_1133,60.0128386814,FEMA4ImagesEEG,001,100110,
AFNE01.JPG,AFNE01.JPG,AFNE01.JPG,AFNE01.JPG,AFNE01.JPG,AFNE01.JPG,,,,,,,,,,,,,5,7,57,7,,,,,,,,,,,AMSA10.jpg,AMNE08.jpg,AMSA05.jpg,AMNE14.jpg,AMSA10.jpg,MS,2,num_8,32,num_2,0.666799239116,,,2017_Apr_05_1133,60.0128386814,FEMA4ImagesEEG,001,100110,
AFNE01.JPG,AFNE01.JPG,AFNE01.JPG,AFNE01.JPG,AFNE01.JPG,AFNE01.JPG,,,,,,,,,,,,,5,8,58,8,,,,,,,,,,,AMNE07.jpg,AMSA13.jpg,AMSA12.jpg,AMNE17.jpg,AMSA12.jpg,MS,2,num_2,32,num_6,1.05008382536,,,2017_Apr_05_1133,60.0128386814,FEMA4ImagesEEG,001,100110,
AFNE01.JPG,AFNE01.JPG,AFNE01.JPG,AFNE01.JPG,AFNE01.JPG,AFNE01.JPG,,,,,,,,,,,,,5,9,59,6,,,,,,,,,,,AMNE14.jpg,AMSA01.jpg,AMSA16.jpg,AMNE16.jpg,AMNE16.jpg,MN,1,num_4,16,num_4,0.733456967631,,,2017_Apr_05_1133,60.0128386814,FEMA4ImagesEEG,001,100110,
,,,,,,,,,,,,,,,,,,,,,,,,,,,,,,,,,,,,,,,,,,,space,3.03324563242,2017_Apr_05_1133,60.0128386814,FEMA4ImagesEEG,001,100110,
AFNE01.JPG,AFNE01.JPG,AFNE01.JPG,AFNE01.JPG,AFNE01.JPG,AFNE01.JPG,,,,,,,,,,,,,,,,,0,0,0,4,,,,,,,AFSA16.jpg,AFNE01.jpg,AFSA08.jpg,AFNE18.jpg,AFNE01.jpg,FN,3,num_6,16,num_6,1.10009484272,,,2017_Apr_05_1133,60.0128386814,FEMA4ImagesEEG,001,100110,
AFNE01.JPG,AFNE01.JPG,AFNE01.JPG,AFNE01.JPG,AFNE01.JPG,AFNE01.JPG,,,,,,,,,,,,,,,,,0,1,1,3,,,,,,,AFNE19.jpg,AFSA10.jpg,AFNE05.jpg,AFSA07.jpg,AFSA07.jpg,FS,4,num_4,32,num_2,0.866819253191,,,2017_Apr_05_1133,60.0128386814,FEMA4ImagesEEG,001,100110,
AFNE01.JPG,AFNE01.JPG,AFNE01.JPG,AFNE01.JPG,AFNE01.JPG,AFNE01.JPG,,,,,,,,,,,,,,,,,0,2,2,8,,,,,,,AFNE03.jpg,AFSA11.jpg,AFSA07.jpg,AFNE15.jpg,AFSA11.jpg,FS,4,num_6,16,num_6,0.900152127026,,,2017_Apr_05_1133,60.0128386814,FEMA4ImagesEEG,001,100110,
AFNE01.JPG,AFNE01.JPG,AFNE01.JPG,AFNE01.JPG,AFNE01.JPG,AFNE01.JPG,,,,,,,,,,,,,,,,,0,3,3,0,,,,,,,AFSA06.jpg,AFSA15.jpg,AFNE17.jpg,AFNE18.jpg,AFNE17.jpg,FN,3,num_2,32,num_4,0.983458170667,,,2017_Apr_05_1133,60.0128386814,FEMA4ImagesEEG,001,100110,
AFNE01.JPG,AFNE01.JPG,AFNE01.JPG,AFNE01.JPG,AFNE01.JPG,AFNE01.JPG,,,,,,,,,,,,,,,,,0,4,4,7,,,,,,,AFSA13.jpg,AFNE12.jpg,AFNE15.jpg,AFSA10.jpg,AFSA10.jpg,FS,4,num_4,32,num_6,0.83349279454,,,2017_Apr_05_1133,60.0128386814,FEMA4ImagesEEG,001,100110,
AFNE01.JPG,AFNE01.JPG,AFNE01.JPG,AFNE01.JPG,AFNE01.JPG,AFNE01.JPG,,,,,,,,,,,,,,,,,0,5,5,5,,,,,,,AFNE03.jpg,AFSA19.jpg,AFSA05.jpg,AFNE09.jpg,AFSA19.jpg,FS,4,num_6,32,num_4,1.30011517764,,,2017_Apr_05_1133,60.0128386814,FEMA4ImagesEEG,001,100110,
AFNE01.JPG,AFNE01.JPG,AFNE01.JPG,AFNE01.JPG,AFNE01.JPG,AFNE01.JPG,,,,,,,,,,,,,,,,,0,6,6,1,,,,,,,AFSA14.jpg,AFNE18.jpg,AFNE05.jpg,AFSA06.jpg,AFSA06.jpg,FS,4,num_4,32,num_8,0.783475683071,,,2017_Apr_05_1133,60.0128386814,FEMA4ImagesEEG,001,100110,
AFNE01.JPG,AFNE01.JPG,AFNE01.JPG,AFNE01.JPG,AFNE01.JPG,AFNE01.JPG,,,,,,,,,,,,,,,,,0,7,7,2,,,,,,,AFNE08.jpg,AFSA13.jpg,AFSA08.jpg,AFNE11.jpg,AFSA08.jpg,FS,4,num_2,16,num_2,0.816646583145,,,2017_Apr_05_1133,60.0128386814,FEMA4ImagesEEG,001,100110,
AFNE01.JPG,AFNE01.JPG,AFNE01.JPG,AFNE01.JPG,AFNE01.JPG,AFNE01.JPG,,,,,,,,,,,,,,,,,0,8,8,6,,,,,,,AFNE09.jpg,AFSA04.jpg,AFSA08.jpg,AFNE10.jpg,AFSA04.jpg,FS,4,num_6,32,num_8,0.80015927949,,,2017_Apr_05_1133,60.0128386814,FEMA4ImagesEEG,001,100110,
AFNE01.JPG,AFNE01.JPG,AFNE01.JPG,AFNE01.JPG,AFNE01.JPG,AFNE01.JPG,,,,,,,,,,,,,,,,,0,9,9,9,,,,,,,AFNE11.jpg,AFNE14.jpg,AFSA18.jpg,AFSA04.jpg,AFNE14.jpg,FN,3,num_6,16,num_6,0.583489346551,,,2017_Apr_05_1133,60.0128386814,FEMA4ImagesEEG,001,100110,
AFNE01.JPG,AFNE01.JPG,AFNE01.JPG,AFNE01.JPG,AFNE01.JPG,AFNE01.JPG,,,,,,,,,,,,,,,,,1,0,10,1,,,,,,,AFSA11.jpg,AFSA14.jpg,AFNE19.jpg,AFNE20.jpg,AFSA14.jpg,FS,4,num_6,32,num_4,0.750153714558,,,2017_Apr_05_1133,60.0128386814,FEMA4ImagesEEG,001,100110,
AFNE01.JPG,AFNE01.JPG,AFNE01.JPG,AFNE01.JPG,AFNE01.JPG,AFNE01.JPG,,,,,,,,,,,,,,,,,1,1,11,2,,,,,,,AFNE07.jpg,AFSA13.jpg,AFSA12.jpg,AFNE04.jpg,AFSA12.jpg,FS,4,num_2,16,num_2,0.866719823796,,,2017_Apr_05_1133,60.0128386814,FEMA4ImagesEEG,001,100110,
AFNE01.JPG,AFNE01.JPG,AFNE01.JPG,AFNE01.JPG,AFNE01.JPG,AFNE01.JPG,,,,,,,,,,,,,,,,,1,2,12,3,,,,,,,AFNE20.jpg,AFSA03.jpg,AFNE05.jpg,AFSA15.jpg,AFSA03.jpg,FS,4,num_6,16,num_6,0.43351883837,,,2017_Apr_05_1133,60.0128386814,FEMA4ImagesEEG,001,100110,
AFNE01.JPG,AFNE01.JPG,AFNE01.JPG,AFNE01.JPG,AFNE01.JPG,AFNE01.JPG,,,,,,,,,,,,,,,,,1,3,13,5,,,,,,,AFNE12.jpg,AFSA01.jpg,AFSA11.jpg,AFNE11.jpg,AFNE11.jpg,FN,3,num_4,16,num_4,0.716817312874,,,2017_Apr_05_1133,60.0128386814,FEMA4ImagesEEG,001,100110,
AFNE01.JPG,AFNE01.JPG,AFNE01.JPG,AFNE01.JPG,AFNE01.JPG,AFNE01.JPG,,,,,,,,,,,,,,,,,1,4,14,7,,,,,,,AFSA05.jpg,AFNE19.jpg,AFSA14.jpg,AFNE08.jpg,AFSA05.jpg,FS,4,num_8,16,num_8,0.8835038119,,,2017_Apr_05_1133,60.0128386814,FEMA4ImagesEEG,001,100110,
AFNE01.JPG,AFNE01.JPG,AFNE01.JPG,AFNE01.JPG,AFNE01.JPG,AFNE01.JPG,,,,,,,,,,,,,,,,,1,5,15,9,,,,,,,AFNE13.jpg,AFSA19.jpg,AFSA05.jpg,AFNE05.jpg,AFNE05.jpg,FN,3,num_4,16,num_4,0.56674160203,,,2017_Apr_05_1133,60.0128386814,FEMA4ImagesEEG,001,100110,
AFNE01.JPG,AFNE01.JPG,AFNE01.JPG,AFNE01.JPG,AFNE01.JPG,AFNE01.JPG,,,,,,,,,,,,,,,,,1,6,16,8,,,,,,,AFNE07.jpg,AFSA08.jpg,AFNE15.jpg,AFSA03.jpg,AFSA08.jpg,FS,4,num_6,16,num_6,0.683533191681,,,2017_Apr_05_1133,60.0128386814,FEMA4ImagesEEG,001,100110,
AFNE01.JPG,AFNE01.JPG,AFNE01.JPG,AFNE01.JPG,AFNE01.JPG,AFNE01.JPG,,,,,,,,,,,,,,,,,1,7,17,4,,,,,,,AFSA17.jpg,AFNE16.jpg,AFSA03.jpg,AFNE03.jpg,AFNE16.jpg,FN,3,num_6,32,num_8,0.933447794523,,,2017_Apr_05_1133,60.0128386814,FEMA4ImagesEEG,001,100110,
AFNE01.JPG,AFNE01.JPG,AFNE01.JPG,AFNE01.JPG,AFNE01.JPG,AFNE01.JPG,,,,,,,,,,,,,,,,,1,8,18,0,,,,,,,AFSA02.jpg,AFNE01.jpg,AFSA03.jpg,AFNE18.jpg,AFNE01.jpg,FN,3,num_6,32,num_8,1.06675010175,,,2017_Apr_05_1133,60.0128386814,FEMA4ImagesEEG,001,100110,
AFNE01.JPG,AFNE01.JPG,AFNE01.JPG,AFNE01.JPG,AFNE01.JPG,AFNE01.JPG,,,,,,,,,,,,,,,,,1,9,19,6,,,,,,,AFNE12.jpg,AFNE19.jpg,AFSA09.jpg,AFSA18.jpg,AFSA18.jpg,FS,4,num_4,32,num_6,0.650200638687,,,2017_Apr_05_1133,60.0128386814,FEMA4ImagesEEG,001,100110,
AFNE01.JPG,AFNE01.JPG,AFNE01.JPG,AFNE01.JPG,AFNE01.JPG,AFNE01.JPG,,,,,,,,,,,,,,,,,2,0,20,2,,,,,,,AFNE13.jpg,AFSA20.jpg,AFNE01.jpg,AFSA01.jpg,AFNE13.jpg,FN,3,num_8,32,num_6,0.583512760466,,,2017_Apr_05_1133,60.0128386814,FEMA4ImagesEEG,001,100110,
AFNE01.JPG,AFNE01.JPG,AFNE01.JPG,AFNE01.JPG,AFNE01.JPG,AFNE01.JPG,,,,,,,,,,,,,,,,,2,1,21,4,,,,,,,AFNE02.jpg,AFSA20.jpg,AFSA07.jpg,AFNE05.jpg,AFSA20.jpg,FS,4,num_6,16,num_6,0.600160754519,,,2017_Apr_05_1133,60.0128386814,FEMA4ImagesEEG,001,100110,
AFNE01.JPG,AFNE01.JPG,AFNE01.JPG,AFNE01.JPG,AFNE01.JPG,AFNE01.JPG,,,,,,,,,,,,,,,,,2,2,22,6,,,,,,,AFNE15.jpg,AFSA10.jpg,AFSA05.jpg,AFNE08.jpg,AFNE08.jpg,FN,3,num_4,16,num_4,0.700139168883,,,2017_Apr_05_1133,60.0128386814,FEMA4ImagesEEG,001,100110,
AFNE01.JPG,AFNE01.JPG,AFNE01.JPG,AFNE01.JPG,AFNE01.JPG,AFNE01.JPG,,,,,,,,,,,,,,,,,2,3,23,1,,,,,,,AFNE16.jpg,AFSA02.jpg,AFNE06.jpg,AFSA13.jpg,AFNE16.jpg,FN,3,num_8,32,num_4,0.900146674132,,,2017_Apr_05_1133,60.0128386814,FEMA4ImagesEEG,001,100110,
AFNE01.JPG,AFNE01.JPG,AFNE01.JPG,AFNE01.JPG,AFNE01.JPG,AFNE01.JPG,,,,,,,,,,,,,,,,,2,4,24,8,,,,,,,AFSA18.jpg,AFSA11.jpg,AFNE01.jpg,AFNE12.jpg,AFNE01.jpg,FN,3,num_2,32,num_4,0.749801542144,,,2017_Apr_05_1133,60.0128386814,FEMA4ImagesEEG,001,100110,
AFNE01.JPG,AFNE01.JPG,AFNE01.JPG,AFNE01.JPG,AFNE01.JPG,AFNE01.JPG,,,,,,,,,,,,,,,,,2,5,25,7,,,,,,,AFSA11.jpg,AFNE14.jpg,AFSA08.jpg,AFNE05.jpg,AFNE05.jpg,FN,3,num_4,32,num_2,1.2500948587,,,2017_Apr_05_1133,60.0128386814,FEMA4ImagesEEG,001,100110,
AFNE01.JPG,AFNE01.JPG,AFNE01.JPG,AFNE01.JPG,AFNE01.JPG,AFNE01.JPG,,,,,,,,,,,,,,,,,2,6,26,5,,,,,,,AFNE09.jpg,AFNE12.jpg,AFSA08.jpg,AFSA02.jpg,AFSA08.jpg,FS,4,num_2,32,num_4,1.20012778277,,,2017_Apr_05_1133,60.0128386814,FEMA4ImagesEEG,001,100110,
AFNE01.JPG,AFNE01.JPG,AFNE01.JPG,AFNE01.JPG,AFNE01.JPG,AFNE01.JPG,,,,,,,,,,,,,,,,,2,7,27,0,,,,,,,AFSA20.jpg,AFSA13.jpg,AFNE14.jpg,AFNE15.jpg,AFNE15.jpg,FN,3,num_4,32,num_6,0.550164812244,,,2017_Apr_05_1133,60.0128386814,FEMA4ImagesEEG,001,100110,
AFNE01.JPG,AFNE01.JPG,AFNE01.JPG,AFNE01.JPG,AFNE01.JPG,AFNE01.JPG,,,,,,,,,,,,,,,,,2,8,28,9,,,,,,,AFNE12.jpg,AFSA20.jpg,AFNE01.jpg,AFSA06.jpg,AFSA06.jpg,FS,4,num_4,32,num_6,1.16679490916,,,2017_Apr_05_1133,60.0128386814,FEMA4ImagesEEG,001,100110,
AFNE01.JPG,AFNE01.JPG,AFNE01.JPG,AFNE01.JPG,AFNE01.JPG,AFNE01.JPG,,,,,,,,,,,,,,,,,2,9,29,3,,,,,,,AFSA15.jpg,AFNE05.jpg,AFNE02.jpg,AFSA20.jpg,AFSA20.jpg,FS,4,num_4,16,num_4,0.483499385649,,,2017_Apr_05_1133,60.0128386814,FEMA4ImagesEEG,001,100110,
AFNE01.JPG,AFNE01.JPG,AFNE01.JPG,AFNE01.JPG,AFNE01.JPG,AFNE01.JPG,,,,,,,,,,,,,,,,,3,0,30,1,,,,,,,AFNE19.jpg,AFSA19.jpg,AFSA08.jpg,AFNE14.jpg,AFNE14.jpg,FN,3,num_4,32,num_2,1.06679340173,,,2017_Apr_05_1133,60.0128386814,FEMA4ImagesEEG,001,100110,
AFNE01.JPG,AFNE01.JPG,AFNE01.JPG,AFNE01.JPG,AFNE01.JPG,AFNE01.JPG,,,,,,,,,,,,,,,,,3,1,31,9,,,,,,,AFNE12.jpg,AFSA12.jpg,AFSA19.jpg,AFNE17.jpg,AFNE17.jpg,FN,3,num_4,16,num_4,0.650160225574,,,2017_Apr_05_1133,60.0128386814,FEMA4ImagesEEG,001,100110,
AFNE01.JPG,AFNE01.JPG,AFNE01.JPG,AFNE01.JPG,AFNE01.JPG,AFNE01.JPG,,,,,,,,,,,,,,,,,3,2,32,4,,,,,,,AFSA19.jpg,AFSA03.jpg,AFNE06.jpg,AFNE10.jpg,AFNE06.jpg,FN,3,num_2,32,num_4,0.983488961589,,,2017_Apr_05_1133,60.0128386814,FEMA4ImagesEEG,001,100110,
AFNE01.JPG,AFNE01.JPG,AFNE01.JPG,AFNE01.JPG,AFNE01.JPG,AFNE01.JPG,,,,,,,,,,,,,,,,,3,3,33,3,,,,,,,AFNE15.jpg,AFSA13.jpg,AFNE11.jpg,AFSA19.jpg,AFNE11.jpg,FN,3,num_2,16,num_2,0.750214654952,,,2017_Apr_05_1133,60.0128386814,FEMA4ImagesEEG,001,100110,
AFNE01.JPG,AFNE01.JPG,AFNE01.JPG,AFNE01.JPG,AFNE01.JPG,AFNE01.JPG,,,,,,,,,,,,,,,,,3,4,34,5,,,,,,,AFSA10.jpg,AFNE01.jpg,AFSA14.jpg,AFNE12.jpg,AFNE12.jpg,FN,3,num_4,16,num_4,0.833395289723,,,2017_Apr_05_1133,60.0128386814,FEMA4ImagesEEG,001,100110,
AFNE01.JPG,AFNE01.JPG,AFNE01.JPG,AFNE01.JPG,AFNE01.JPG,AFNE01.JPG,,,,,,,,,,,,,,,,,3,5,35,0,,,,,,,AFNE01.jpg,AFNE04.jpg,AFSA05.jpg,AFSA12.jpg,AFSA12.jpg,FS,4,num_4,16,num_4,0.616813880857,,,2017_Apr_05_1133,60.0128386814,FEMA4ImagesEEG,001,100110,
AFNE01.JPG,AFNE01.JPG,AFNE01.JPG,AFNE01.JPG,AFNE01.JPG,AFNE01.JPG,,,,,,,,,,,,,,,,,3,6,36,2,,,,,,,AFNE03.jpg,AFSA04.jpg,AFSA16.jpg,AFNE17.jpg,AFSA04.jpg,FS,4,num_6,32,num_2,0.76678631315,,,2017_Apr_05_1133,60.0128386814,FEMA4ImagesEEG,001,100110,
AFNE01.JPG,AFNE01.JPG,AFNE01.JPG,AFNE01.JPG,AFNE01.JPG,AFNE01.JPG,,,,,,,,,,,,,,,,,3,7,37,8,,,,,,,AFSA12.jpg,AFNE11.jpg,AFNE12.jpg,AFSA03.jpg,AFNE12.jpg,FN,3,num_2,32,num_8,0.866789745167,,,2017_Apr_05_1133,60.0128386814,FEMA4ImagesEEG,001,100110,
AFNE01.JPG,AFNE01.JPG,AFNE01.JPG,AFNE01.JPG,AFNE01.JPG,AFNE01.JPG,,,,,,,,,,,,,,,,,3,8,38,6,,,,,,,AFSA15.jpg,AFNE06.jpg,AFSA01.jpg,AFNE12.jpg,AFSA01.jpg,FS,4,num_2,32,num_6,0.700142376358,,,2017_Apr_05_1133,60.0128386814,FEMA4ImagesEEG,001,100110,
AFNE01.JPG,AFNE01.JPG,AFNE01.JPG,AFNE01.JPG,AFNE01.JPG,AFNE01.JPG,,,,,,,,,,,,,,,,,3,9,39,7,,,,,,,AFNE14.jpg,AFSA12.jpg,AFNE16.jpg,AFSA10.jpg,AFNE16.jpg,FN,3,num_2,16,num_2,0.750095339958,,,2017_Apr_05_1133,60.0128386814,FEMA4ImagesEEG,001,100110,
AFNE01.JPG,AFNE01.JPG,AFNE01.JPG,AFNE01.JPG,AFNE01.JPG,AFNE01.JPG,,,,,,,,,,,,,,,,,4,0,40,5,,,,,,,AFNE10.jpg,AFSA05.jpg,AFNE08.jpg,AFSA10.jpg,AFNE08.jpg,FN,3,num_2,32,num_8,0.766608623555,,,2017_Apr_05_1133,60.0128386814,FEMA4ImagesEEG,001,100110,
AFNE01.JPG,AFNE01.JPG,AFNE01.JPG,AFNE01.JPG,AFNE01.JPG,AFNE01.JPG,,,,,,,,,,,,,,,,,4,1,41,9,,,,,,,AFSA03.jpg,AFNE15.jpg,AFNE06.jpg,AFSA16.jpg,AFNE06.jpg,FN,3,num_2,32,num_4,0.700146225281,,,2017_Apr_05_1133,60.0128386814,FEMA4ImagesEEG,001,100110,
AFNE01.JPG,AFNE01.JPG,AFNE01.JPG,AFNE01.JPG,AFNE01.JPG,AFNE01.JPG,,,,,,,,,,,,,,,,,4,2,42,2,,,,,,,AFNE02.jpg,AFNE07.jpg,AFSA06.jpg,AFSA04.jpg,AFNE02.jpg,FN,3,num_8,32,num_6,0.7835552264,,,2017_Apr_05_1133,60.0128386814,FEMA4ImagesEEG,001,100110,
AFNE01.JPG,AFNE01.JPG,AFNE01.JPG,AFNE01.JPG,AFNE01.JPG,AFNE01.JPG,,,,,,,,,,,,,,,,,4,3,43,8,,,,,,,AFSA11.jpg,AFSA16.jpg,AFNE13.jpg,AFNE01.jpg,AFSA11.jpg,FS,4,num_8,16,num_8,0.750118753873,,,2017_Apr_05_1133,60.0128386814,FEMA4ImagesEEG,001,100110,
AFNE01.JPG,AFNE01.JPG,AFNE01.JPG,AFNE01.JPG,AFNE01.JPG,AFNE01.JPG,,,,,,,,,,,,,,,,,4,4,44,0,,,,,,,AFNE15.jpg,AFSA03.jpg,AFSA12.jpg,AFNE19.jpg,AFNE15.jpg,FN,3,num_8,16,num_8,0.966770083876,,,2017_Apr_05_1133,60.0128386814,FEMA4ImagesEEG,001,100110,
AFNE01.JPG,AFNE01.JPG,AFNE01.JPG,AFNE01.JPG,AFNE01.JPG,AFNE01.JPG,,,,,,,,,,,,,,,,,4,5,45,1,,,,,,,AFNE18.jpg,AFSA08.jpg,AFNE09.jpg,AFSA19.jpg,AFSA19.jpg,FS,4,num_4,16,num_4,0.683510739822,,,2017_Apr_05_1133,60.0128386814,FEMA4ImagesEEG,001,100110,
AFNE01.JPG,AFNE01.JPG,AFNE01.JPG,AFNE01.JPG,AFNE01.JPG,AFNE01.JPG,,,,,,,,,,,,,,,,,4,6,46,4,,,,,,,AFSA14.jpg,AFSA15.jpg,AFNE13.jpg,AFNE01.jpg,AFNE01.jpg,FN,3,num_4,32,num_6,0.950137805892,,,2017_Apr_05_1133,60.0128386814,FEMA4ImagesEEG,001,100110,
AFNE01.JPG,AFNE01.JPG,AFNE01.JPG,AFNE01.JPG,AFNE01.JPG,AFNE01.JPG,,,,,,,,,,,,,,,,,4,7,47,7,,,,,,,AFSA08.jpg,AFSA16.jpg,AFNE13.jpg,AFNE04.jpg,AFNE04.jpg,FN,3,num_4,32,num_6,1.00011610775,,,2017_Apr_05_1133,60.0128386814,FEMA4ImagesEEG,001,100110,
AFNE01.JPG,AFNE01.JPG,AFNE01.JPG,AFNE01.JPG,AFNE01.JPG,AFNE01.JPG,,,,,,,,,,,,,,,,,4,8,48,3,,,,,,,AFNE09.jpg,AFNE04.jpg,AFSA08.jpg,AFSA05.jpg,AFSA08.jpg,FS,4,num_2,32,num_6,0.666788333794,,,2017_Apr_05_1133,60.0128386814,FEMA4ImagesEEG,001,100110,
AFNE01.JPG,AFNE01.JPG,AFNE01.JPG,AFNE01.JPG,AFNE01.JPG,AFNE01.JPG,,,,,,,,,,,,,,,,,4,9,49,6,,,,,,,AFNE09.jpg,AFSA04.jpg,AFSA13.jpg,AFNE02.jpg,AFNE02.jpg,FN,3,num_4,32,num_8,0.883474303875,,,2017_Apr_05_1133,60.0128386814,FEMA4ImagesEEG,001,100110,
AFNE01.JPG,AFNE01.JPG,AFNE01.JPG,AFNE01.JPG,AFNE01.JPG,AFNE01.JPG,,,,,,,,,,,,,,,,,5,0,50,1,,,,,,,AFSA05.jpg,AFNE03.jpg,AFSA19.jpg,AFNE19.jpg,AFSA19.jpg,FS,4,num_2,16,num_2,0.800167939393,,,2017_Apr_05_1133,60.0128386814,FEMA4ImagesEEG,001,100110,
AFNE01.JPG,AFNE01.JPG,AFNE01.JPG,AFNE01.JPG,AFNE01.JPG,AFNE01.JPG,,,,,,,,,,,,,,,,,5,1,51,9,,,,,,,AFNE06.jpg,AFSA16.jpg,AFNE02.jpg,AFSA03.jpg,AFSA03.jpg,FS,4,num_4,16,num_4,0.766721202992,,,2017_Apr_05_1133,60.0128386814,FEMA4ImagesEEG,001,100110,
AFNE01.JPG,AFNE01.JPG,AFNE01.JPG,AFNE01.JPG,AFNE01.JPG,AFNE01.JPG,,,,,,,,,,,,,,,,,5,2,52,7,,,,,,,AFSA19.jpg,AFSA11.jpg,AFNE06.jpg,AFNE02.jpg,AFNE02.jpg,FN,3,num_4,16,num_4,0.883455059491,,,2017_Apr_05_1133,60.0128386814,FEMA4ImagesEEG,001,100110,
AFNE01.JPG,AFNE01.JPG,AFNE01.JPG,AFNE01.JPG,AFNE01.JPG,AFNE01.JPG,,,,,,,,,,,,,,,,,5,3,53,8,,,,,,,AFNE18.jpg,AFSA11.jpg,AFSA04.jpg,AFNE04.jpg,AFSA11.jpg,FS,4,num_6,16,num_6,0.616834408371,,,2017_Apr_05_1133,60.0128386814,FEMA4ImagesEEG,001,100110,
AFNE01.JPG,AFNE01.JPG,AFNE01.JPG,AFNE01.JPG,AFNE01.JPG,AFNE01.JPG,,,,,,,,,,,,,,,,,5,4,54,4,,,,,,,AFSA03.jpg,AFNE20.jpg,AFSA11.jpg,AFNE05.jpg,AFSA11.jpg,FS,4,num_2,16,num_2,0.816767822718,,,2017_Apr_05_1133,60.0128386814,FEMA4ImagesEEG,001,100110,
AFNE01.JPG,AFNE01.JPG,AFNE01.JPG,AFNE01.JPG,AFNE01.JPG,AFNE01.JPG,,,,,,,,,,,,,,,,,5,5,55,2,,,,,,,AFNE03.jpg,AFSA18.jpg,AFNE09.jpg,AFSA13.jpg,AFNE03.jpg,FN,3,num_8,16,num_8,0.733409498353,,,2017_Apr_05_1133,60.0128386814,FEMA4ImagesEEG,001,100110,
AFNE01.JPG,AFNE01.JPG,AFNE01.JPG,AFNE01.JPG,AFNE01.JPG,AFNE01.JPG,,,,,,,,,,,,,,,,,5,6,56,5,,,,,,,AFNE10.jpg,AFSA05.jpg,AFNE03.jpg,AFSA08.jpg,AFSA05.jpg,FS,4,num_6,32,num_8,0.900150523055,,,2017_Apr_05_1133,60.0128386814,FEMA4ImagesEEG,001,100110,
AFNE01.JPG,AFNE01.JPG,AFNE01.JPG,AFNE01.JPG,AFNE01.JPG,AFNE01.JPG,,,,,,,,,,,,,,,,,5,7,57,3,,,,,,,AFNE15.jpg,AFNE09.jpg,AFSA03.jpg,AFSA06.jpg,AFSA03.jpg,FS,4,num_2,16,num_2,0.783443288179,,,2017_Apr_05_1133,60.0128386814,FEMA4ImagesEEG,001,100110,
AFNE01.JPG,AFNE01.JPG,AFNE01.JPG,AFNE01.JPG,AFNE01.JPG,AFNE01.JPG,,,,,,,,,,,,,,,,,5,8,58,0,,,,,,,AFNE20.jpg,AFSA12.jpg,AFNE01.jpg,AFSA06.jpg,AFSA06.jpg,FS,4,num_4,16,num_4,0.666821370134,,,2017_Apr_05_1133,60.0128386814,FEMA4ImagesEEG,001,100110,
AFNE01.JPG,AFNE01.JPG,AFNE01.JPG,AFNE01.JPG,AFNE01.JPG,AFNE01.JPG,,,,,,,,,,,,,,,,,5,9,59,6,,,,,,,AFNE13.jpg,AFSA14.jpg,AFSA20.jpg,AFNE09.jpg,AFSA20.jpg,FS,4,num_2,32,num_6,0.683483797824,,,2017_Apr_05_1133,60.0128386814,FEMA4ImagesEEG,001,100110,
,,,,,,,,,,,,,,,,,,,,,,,,,,,,,,,,,,,,,,,,,,,space,2.35004055756,2017_Apr_05_1133,60.0128386814,FEMA4ImagesEEG,001,100110,
AFNE01.JPG,AFNE01.JPG,AFNE01.JPG,AFNE01.JPG,AFNE01.JPG,AFNE01.JPG,,,,,,,,,,,,,,,,,,,,,0,0,0,1,,,AMSA08.jpg,AMSA20.jpg,AMNE18.jpg,AMNE15.jpg,AMSA08.jpg,MS,2,num_8,32,num_4,1.51705773943,,,2017_Apr_05_1133,60.0128386814,FEMA4ImagesEEG,001,100110,
AFNE01.JPG,AFNE01.JPG,AFNE01.JPG,AFNE01.JPG,AFNE01.JPG,AFNE01.JPG,,,,,,,,,,,,,,,,,,,,,0,1,1,4,,,AMSA19.jpg,AMNE07.jpg,AMNE11.jpg,AMSA17.jpg,AMNE11.jpg,MN,1,num_2,16,num_2,1.06658716616,,,2017_Apr_05_1133,60.0128386814,FEMA4ImagesEEG,001,100110,
AFNE01.JPG,AFNE01.JPG,AFNE01.JPG,AFNE01.JPG,AFNE01.JPG,AFNE01.JPG,,,,,,,,,,,,,,,,,,,,,0,2,2,5,,,AMNE17.jpg,AMSA15.jpg,AMNE04.jpg,AMSA06.jpg,AMNE04.jpg,MN,1,num_2,32,num_4,0.683442422422,,,2017_Apr_05_1133,60.0128386814,FEMA4ImagesEEG,001,100110,
AFNE01.JPG,AFNE01.JPG,AFNE01.JPG,AFNE01.JPG,AFNE01.JPG,AFNE01.JPG,,,,,,,,,,,,,,,,,,,,,0,3,3,3,,,AMNE07.jpg,AMSA11.jpg,AMSA02.jpg,AMNE04.jpg,AMSA11.jpg,MS,2,num_6,32,num_4,0.516849899897,,,2017_Apr_05_1133,60.0128386814,FEMA4ImagesEEG,001,100110,
AFNE01.JPG,AFNE01.JPG,AFNE01.JPG,AFNE01.JPG,AFNE01.JPG,AFNE01.JPG,,,,,,,,,,,,,,,,,,,,,0,4,4,2,,,AMNE08.jpg,AMNE15.jpg,AMSA18.jpg,AMSA19.jpg,AMSA18.jpg,MS,2,num_2,16,num_2,0.950132032391,,,2017_Apr_05_1133,60.0128386814,FEMA4ImagesEEG,001,100110,
AFNE01.JPG,AFNE01.JPG,AFNE01.JPG,AFNE01.JPG,AFNE01.JPG,AFNE01.JPG,,,,,,,,,,,,,,,,,,,,,0,5,5,6,,,AMNE20.jpg,AMSA07.jpg,AMSA19.jpg,AMNE13.jpg,AMSA19.jpg,MS,2,num_2,32,num_8,0.95009995834,,,2017_Apr_05_1133,60.0128386814,FEMA4ImagesEEG,001,100110,
AFNE01.JPG,AFNE01.JPG,AFNE01.JPG,AFNE01.JPG,AFNE01.JPG,AFNE01.JPG,,,,,,,,,,,,,,,,,,,,,0,6,6,7,,,AMNE07.jpg,AMSA12.jpg,AMSA07.jpg,AMNE13.jpg,AMNE07.jpg,MN,1,num_8,32,num_4,0.666803088039,,,2017_Apr_05_1133,60.0128386814,FEMA4ImagesEEG,001,100110,
AFNE01.JPG,AFNE01.JPG,AFNE01.JPG,AFNE01.JPG,AFNE01.JPG,AFNE01.JPG,,,,,,,,,,,,,,,,,,,,,0,7,7,9,,,AMNE05.jpg,AMSA20.jpg,AMSA14.jpg,AMNE06.jpg,AMNE05.jpg,MN,1,num_8,16,num_8,0.750169751467,,,2017_Apr_05_1133,60.0128386814,FEMA4ImagesEEG,001,100110,
AFNE01.JPG,AFNE01.JPG,AFNE01.JPG,AFNE01.JPG,AFNE01.JPG,AFNE01.JPG,,,,,,,,,,,,,,,,,,,,,0,8,8,8,,,AMSA06.jpg,AMNE10.jpg,AMSA08.jpg,AMNE03.jpg,AMNE10.jpg,MN,1,num_6,16,num_6,0.85010069632,,,2017_Apr_05_1133,60.0128386814,FEMA4ImagesEEG,001,100110,
AFNE01.JPG,AFNE01.JPG,AFNE01.JPG,AFNE01.JPG,AFNE01.JPG,AFNE01.JPG,,,,,,,,,,,,,,,,,,,,,0,9,9,0,,,AMNE02.jpg,AMSA13.jpg,AMSA08.jpg,AMNE14.jpg,AMSA08.jpg,MS,2,num_2,16,num_2,1.78339325287,,,2017_Apr_05_1133,60.0128386814,FEMA4ImagesEEG,001,100110,
AFNE01.JPG,AFNE01.JPG,AFNE01.JPG,AFNE01.JPG,AFNE01.JPG,AFNE01.JPG,,,,,,,,,,,,,,,,,,,,,1,0,10,1,,,AMNE01.jpg,AMSA19.jpg,AMNE15.jpg,AMSA08.jpg,AMSA08.jpg,MS,2,num_4,16,num_4,0.466824128525,,,2017_Apr_05_1133,60.0128386814,FEMA4ImagesEEG,001,100110,
AFNE01.JPG,AFNE01.JPG,AFNE01.JPG,AFNE01.JPG,AFNE01.JPG,AFNE01.JPG,,,,,,,,,,,,,,,,,,,,,1,1,11,0,,,AMNE10.jpg,AMSA06.jpg,AMNE20.jpg,AMSA13.jpg,AMNE20.jpg,MN,1,num_2,16,num_2,1.25009774556,,,2017_Apr_05_1133,60.0128386814,FEMA4ImagesEEG,001,100110,
AFNE01.JPG,AFNE01.JPG,AFNE01.JPG,AFNE01.JPG,AFNE01.JPG,AFNE01.JPG,,,,,,,,,,,,,,,,,,,,,1,2,12,3,,,AMNE03.jpg,AMSA10.jpg,AMNE17.jpg,AMSA05.jpg,AMSA05.jpg,MS,2,num_4,32,num_6,0.90018676687,,,2017_Apr_05_1133,60.0128386814,FEMA4ImagesEEG,001,100110,
AFNE01.JPG,AFNE01.JPG,AFNE01.JPG,AFNE01.JPG,AFNE01.JPG,AFNE01.JPG,,,,,,,,,,,,,,,,,,,,,1,3,13,5,,,AMNE10.jpg,AMSA13.jpg,AMNE03.jpg,AMSA07.jpg,AMNE10.jpg,MN,1,num_8,32,num_6,1.26677011582,,,2017_Apr_05_1133,60.0128386814,FEMA4ImagesEEG,001,100110,
AFNE01.JPG,AFNE01.JPG,AFNE01.JPG,AFNE01.JPG,AFNE01.JPG,AFNE01.JPG,,,,,,,,,,,,,,,,,,,,,1,4,14,6,,,AMSA18.jpg,AMNE12.jpg,AMNE14.jpg,AMSA03.jpg,AMSA03.jpg,MS,2,num_4,16,num_4,0.516802430386,,,2017_Apr_05_1133,60.0128386814,FEMA4ImagesEEG,001,100110,
AFNE01.JPG,AFNE01.JPG,AFNE01.JPG,AFNE01.JPG,AFNE01.JPG,AFNE01.JPG,,,,,,,,,,,,,,,,,,,,,1,5,15,8,,,AMSA01.jpg,AMNE12.jpg,AMNE09.jpg,AMSA16.jpg,AMSA16.jpg,MS,2,num_4,32,num_2,0.866781085031,,,2017_Apr_05_1133,60.0128386814,FEMA4ImagesEEG,001,100110,
AFNE01.JPG,AFNE01.JPG,AFNE01.JPG,AFNE01.JPG,AFNE01.JPG,AFNE01.JPG,,,,,,,,,,,,,,,,,,,,,1,6,16,2,,,AMNE01.jpg,AMSA04.jpg,AMSA14.jpg,AMNE02.jpg,AMNE02.jpg,MN,1,num_4,32,num_6,1.03347079153,,,2017_Apr_05_1133,60.0128386814,FEMA4ImagesEEG,001,100110,
AFNE01.JPG,AFNE01.JPG,AFNE01.JPG,AFNE01.JPG,AFNE01.JPG,AFNE01.JPG,,,,,,,,,,,,,,,,,,,,,1,7,17,7,,,AMSA19.jpg,AMNE03.jpg,AMSA03.jpg,AMNE11.jpg,AMSA19.jpg,MS,2,num_8,32,num_4,0.833512359532,,,2017_Apr_05_1133,60.0128386814,FEMA4ImagesEEG,001,100110,
AFNE01.JPG,AFNE01.JPG,AFNE01.JPG,AFNE01.JPG,AFNE01.JPG,AFNE01.JPG,,,,,,,,,,,,,,,,,,,,,1,8,18,9,,,AMSA17.jpg,AMNE13.jpg,AMSA09.jpg,AMNE15.jpg,AMSA17.jpg,MS,2,num_8,32,num_6,1.08344364096,,,2017_Apr_05_1133,60.0128386814,FEMA4ImagesEEG,001,100110,
AFNE01.JPG,AFNE01.JPG,AFNE01.JPG,AFNE01.JPG,AFNE01.JPG,AFNE01.JPG,,,,,,,,,,,,,,,,,,,,,1,9,19,4,,,AMNE13.jpg,AMSA10.jpg,AMNE19.jpg,AMSA06.jpg,AMNE13.jpg,MN,1,num_8,32,num_2,0.800113092875,,,2017_Apr_05_1133,60.0128386814,FEMA4ImagesEEG,001,100110,
AFNE01.JPG,AFNE01.JPG,AFNE01.JPG,AFNE01.JPG,AFNE01.JPG,AFNE01.JPG,,,,,,,,,,,,,,,,,,,,,2,0,20,8,,,AMSA16.jpg,AMSA09.jpg,AMNE16.jpg,AMNE17.jpg,AMNE17.jpg,MN,1,num_4,32,num_8,0.766794331837,,,2017_Apr_05_1133,60.0128386814,FEMA4ImagesEEG,001,100110,
AFNE01.JPG,AFNE01.JPG,AFNE01.JPG,AFNE01.JPG,AFNE01.JPG,AFNE01.JPG,,,,,,,,,,,,,,,,,,,,,2,1,21,9,,,AMSA10.jpg,AMNE17.jpg,AMNE15.jpg,AMSA11.jpg,AMSA10.jpg,MS,2,num_8,16,num_8,0.616825427627,,,2017_Apr_05_1133,60.0128386814,FEMA4ImagesEEG,001,100110,
AFNE01.JPG,AFNE01.JPG,AFNE01.JPG,AFNE01.JPG,AFNE01.JPG,AFNE01.JPG,,,,,,,,,,,,,,,,,,,,,2,2,22,0,,,AMSA13.jpg,AMNE09.jpg,AMNE18.jpg,AMSA14.jpg,AMNE09.jpg,MN,1,num_6,32,num_2,0.916790178278,,,2017_Apr_05_1133,60.0128386814,FEMA4ImagesEEG,001,100110,
AFNE01.JPG,AFNE01.JPG,AFNE01.JPG,AFNE01.JPG,AFNE01.JPG,AFNE01.JPG,,,,,,,,,,,,,,,,,,,,,2,3,23,6,,,AMNE06.jpg,AMSA07.jpg,AMSA11.jpg,AMNE11.jpg,AMNE11.jpg,MN,1,num_4,16,num_4,0.633491383167,,,2017_Apr_05_1133,60.0128386814,FEMA4ImagesEEG,001,100110,
AFNE01.JPG,AFNE01.JPG,AFNE01.JPG,AFNE01.JPG,AFNE01.JPG,AFNE01.JPG,,,,,,,,,,,,,,,,,,,,,2,4,24,1,,,AMSA01.jpg,AMNE01.jpg,AMNE04.jpg,AMSA03.jpg,AMNE01.jpg,MN,1,num_6,16,num_6,0.516823919956,,,2017_Apr_05_1133,60.0128386814,FEMA4ImagesEEG,001,100110,
AFNE01.JPG,AFNE01.JPG,AFNE01.JPG,AFNE01.JPG,AFNE01.JPG,AFNE01.JPG,,,,,,,,,,,,,,,,,,,,,2,5,25,3,,,AMNE19.jpg,AMNE03.jpg,AMSA05.jpg,AMSA03.jpg,AMSA03.jpg,MS,2,num_4,16,num_4,0.733498984715,,,2017_Apr_05_1133,60.0128386814,FEMA4ImagesEEG,001,100110,
AFNE01.JPG,AFNE01.JPG,AFNE01.JPG,AFNE01.JPG,AFNE01.JPG,AFNE01.JPG,,,,,,,,,,,,,,,,,,,,,2,6,26,2,,,AMSA14.jpg,AMNE12.jpg,AMNE19.jpg,AMSA08.jpg,AMNE19.jpg,MN,1,num_2,16,num_2,0.950122731039,,,2017_Apr_05_1133,60.0128386814,FEMA4ImagesEEG,001,100110,
AFNE01.JPG,AFNE01.JPG,AFNE01.JPG,AFNE01.JPG,AFNE01.JPG,AFNE01.JPG,,,,,,,,,,,,,,,,,,,,,2,7,27,5,,,AMSA18.jpg,AMNE08.jpg,AMSA11.jpg,AMNE06.jpg,AMSA11.jpg,MS,2,num_2,16,num_2,0.616824144498,,,2017_Apr_05_1133,60.0128386814,FEMA4ImagesEEG,001,100110,
AFNE01.JPG,AFNE01.JPG,AFNE01.JPG,AFNE01.JPG,AFNE01.JPG,AFNE01.JPG,,,,,,,,,,,,,,,,,,,,,2,8,28,4,,,AMSA17.jpg,AMSA08.jpg,AMNE06.jpg,AMNE18.jpg,AMSA17.jpg,MS,2,num_8,16,num_8,0.800129771233,,,2017_Apr_05_1133,60.0128386814,FEMA4ImagesEEG,001,100110,
AFNE01.JPG,AFNE01.JPG,AFNE01.JPG,AFNE01.JPG,AFNE01.JPG,AFNE01.JPG,,,,,,,,,,,,,,,,,,,,,2,9,29,7,,,AMNE11.jpg,AMSA10.jpg,AMNE08.jpg,AMSA06.jpg,AMSA10.jpg,MS,2,num_6,16,num_6,0.783529246459,,,2017_Apr_05_1133,60.0128386814,FEMA4ImagesEEG,001,100110,
AFNE01.JPG,AFNE01.JPG,AFNE01.JPG,AFNE01.JPG,AFNE01.JPG,AFNE01.JPG,,,,,,,,,,,,,,,,,,,,,3,0,30,4,,,AMSA14.jpg,AMNE06.jpg,AMSA01.jpg,AMNE20.jpg,AMSA14.jpg,MS,2,num_8,16,num_8,0.95013684337,,,2017_Apr_05_1133,60.0128386814,FEMA4ImagesEEG,001,100110,
AFNE01.JPG,AFNE01.JPG,AFNE01.JPG,AFNE01.JPG,AFNE01.JPG,AFNE01.JPG,,,,,,,,,,,,,,,,,,,,,3,1,31,7,,,AMSA09.jpg,AMNE16.jpg,AMNE17.jpg,AMSA19.jpg,AMSA19.jpg,MS,2,num_4,16,num_4,0.900187408319,,,2017_Apr_05_1133,60.0128386814,FEMA4ImagesEEG,001,100110,
AFNE01.JPG,AFNE01.JPG,AFNE01.JPG,AFNE01.JPG,AFNE01.JPG,AFNE01.JPG,,,,,,,,,,,,,,,,,,,,,3,2,32,1,,,AMNE08.jpg,AMSA12.jpg,AMSA08.jpg,AMNE12.jpg,AMNE08.jpg,MN,1,num_8,32,num_2,0.616825748235,,,2017_Apr_05_1133,60.0128386814,FEMA4ImagesEEG,001,100110,
AFNE01.JPG,AFNE01.JPG,AFNE01.JPG,AFNE01.JPG,AFNE01.JPG,AFNE01.JPG,,,,,,,,,,,,,,,,,,,,,3,3,33,6,,,AMSA18.jpg,AMNE18.jpg,AMNE02.jpg,AMSA07.jpg,AMNE02.jpg,MN,1,num_2,32,num_8,0.866814121604,,,2017_Apr_05_1133,60.0128386814,FEMA4ImagesEEG,001,100110,
AFNE01.JPG,AFNE01.JPG,AFNE01.JPG,AFNE01.JPG,AFNE01.JPG,AFNE01.JPG,,,,,,,,,,,,,,,,,,,,,3,4,34,5,,,AMSA09.jpg,AMNE17.jpg,AMSA16.jpg,AMNE13.jpg,AMNE17.jpg,MN,1,num_6,32,num_2,0.900199596304,,,2017_Apr_05_1133,60.0128386814,FEMA4ImagesEEG,001,100110,
AFNE01.JPG,AFNE01.JPG,AFNE01.JPG,AFNE01.JPG,AFNE01.JPG,AFNE01.JPG,,,,,,,,,,,,,,,,,,,,,3,5,35,9,,,AMSA04.jpg,AMNE19.jpg,AMSA19.jpg,AMNE11.jpg,AMSA04.jpg,MS,2,num_8,32,num_4,0.550151661737,,,2017_Apr_05_1133,60.0128386814,FEMA4ImagesEEG,001,100110,
AFNE01.JPG,AFNE01.JPG,AFNE01.JPG,AFNE01.JPG,AFNE01.JPG,AFNE01.JPG,,,,,,,,,,,,,,,,,,,,,3,6,36,2,,,AMSA15.jpg,AMNE14.jpg,AMNE10.jpg,AMSA05.jpg,AMSA15.jpg,MS,2,num_8,16,num_8,0.500183623517,,,2017_Apr_05_1133,60.0128386814,FEMA4ImagesEEG,001,100110,
AFNE01.JPG,AFNE01.JPG,AFNE01.JPG,AFNE01.JPG,AFNE01.JPG,AFNE01.JPG,,,,,,,,,,,,,,,,,,,,,3,7,37,0,,,AMSA05.jpg,AMNE15.jpg,AMSA13.jpg,AMNE09.jpg,AMSA13.jpg,MS,2,num_2,16,num_2,0.900132882409,,,2017_Apr_05_1133,60.0128386814,FEMA4ImagesEEG,001,100110,
AFNE01.JPG,AFNE01.JPG,AFNE01.JPG,AFNE01.JPG,AFNE01.JPG,AFNE01.JPG,,,,,,,,,,,,,,,,,,,,,3,8,38,8,,,AMNE06.jpg,AMSA17.jpg,AMSA20.jpg,AMNE13.jpg,AMSA20.jpg,MS,2,num_2,32,num_4,0.983456887538,,,2017_Apr_05_1133,60.0128386814,FEMA4ImagesEEG,001,100110,
