IPosition2,IPosition3,IPosition1,IPosition6,IPosition4,IPosition5,TrialsF1.thisRepN,TrialsF1.thisTrialN,TrialsF1.thisN,TrialsF1.thisIndex,TrialsM1.thisRepN,TrialsM1.thisTrialN,TrialsM1.thisN,TrialsM1.thisIndex,TrialsF2.thisRepN,TrialsF2.thisTrialN,TrialsF2.thisN,TrialsF2.thisIndex,TrialsM2.thisRepN,TrialsM2.thisTrialN,TrialsM2.thisN,TrialsM2.thisIndex,TrialsF3.thisRepN,TrialsF3.thisTrialN,TrialsF3.thisN,TrialsF3.thisIndex,TrialsM3.thisRepN,TrialsM3.thisTrialN,TrialsM3.thisN,TrialsM3.thisIndex,InstrKey_resp.keys,InstrKey_resp.rt,Image0 _Position,Image1 _Position,Image2 _Position,Image3 _Position,Center_image,condition,code,correct_answer,accuracy,Key_Resp.keys,Key_Resp.rt,BreakKey_resp.keys,BreakKey_resp.rt,date,frameRate,expName,session,participant,
,,,,,,,,,,,,,,,,,,,,,,,,,,,,,,space,6.09979238547,,,,,,,,,,,,,,2017_Apr_13_1415,60.0041763784,FEMA4ImagesEEG,001,100192,
AFSA21.JPG,AFNE23.JPG,AFNE21.JPG,AFSA25.JPG,AFNE25.JPG,AFSA23.JPG,0,0,0,4,,,,,,,,,,,,,,,,,,,,,,,AFSA16.jpg,AFNE07.jpg,AFNE05.jpg,AFSA18.jpg,AFNE07.jpg,FN,3,num_6,32,num_2,2.59986984404,,,2017_Apr_13_1415,60.0041763784,FEMA4ImagesEEG,001,100192,
AMSA21.JPG,AMNE22.JPG,AMNE21.JPG,AMSA23.JPG,AMSA22.JPG,AMNE23.JPG,0,1,1,1,,,,,,,,,,,,,,,,,,,,,,,AFSA12.jpg,AFSA08.jpg,AFNE16.jpg,AFNE15.jpg,AFSA12.jpg,FS,4,num_8,32,num_4,2.0333954175,,,2017_Apr_13_1415,60.0041763784,FEMA4ImagesEEG,001,100192,
AFSA21.JPG,AFNE22.JPG,AFNE21.JPG,AFSA23.JPG,AFSA22.JPG,AFNE23.JPG,0,2,2,0,,,,,,,,,,,,,,,,,,,,,,,AFNE10.jpg,AFSA08.jpg,AFSA01.jpg,AFNE15.jpg,AFSA01.jpg,FS,4,num_2,16,num_2,0.883513433859,,,2017_Apr_13_1415,60.0041763784,FEMA4ImagesEEG,001,100192,
AFNE23.JPG,AFNE24.JPG,AFNE22.JPG,AFSA24.JPG,AFSA22.JPG,AFSA23.JPG,0,3,3,8,,,,,,,,,,,,,,,,,,,,,,,AFSA05.jpg,AFSA07.jpg,AFNE11.jpg,AFNE13.jpg,AFNE11.jpg,FN,3,num_2,32,num_4,1.31598409545,,,2017_Apr_13_1415,60.0041763784,FEMA4ImagesEEG,001,100192,
AMSA25.JPG,AMNE24.JPG,AMSA24.JPG,AMNE26.JPG,AMSA21.JPG,AMNE25.JPG,0,4,4,3,,,,,,,,,,,,,,,,,,,,,,,AFNE02.jpg,AFNE10.jpg,AFSA01.jpg,AFSA02.jpg,AFNE10.jpg,FN,3,num_6,32,num_8,1.48331463942,,,2017_Apr_13_1415,60.0041763784,FEMA4ImagesEEG,001,100192,
AMNE22.JPG,AMSA24.JPG,AMSA22.JPG,AMNE25.JPG,AMNE24.JPG,AMSA25.JPG,0,5,5,7,,,,,,,,,,,,,,,,,,,,,,,AFNE02.jpg,AFNE06.jpg,AFSA14.jpg,AFSA06.jpg,AFSA06.jpg,FS,4,num_4,32,num_2,1.66654425068,,,2017_Apr_13_1415,60.0041763784,FEMA4ImagesEEG,001,100192,
AMNE23.JPG,AMNE24.JPG,AMNE22.JPG,AMSA24.JPG,AMSA22.JPG,AMSA23.JPG,0,6,6,9,,,,,,,,,,,,,,,,,,,,,,,AFNE11.jpg,AFSA06.jpg,AFNE14.jpg,AFSA04.jpg,AFSA06.jpg,FS,4,num_6,16,num_6,0.833469380159,,,2017_Apr_13_1415,60.0041763784,FEMA4ImagesEEG,001,100192,
AMSA21.JPG,AMNE23.JPG,AMNE21.JPG,AMSA25.JPG,AMNE25.JPG,AMSA23.JPG,0,7,7,5,,,,,,,,,,,,,,,,,,,,,,,AFSA12.jpg,AFNE18.jpg,AFSA13.jpg,AFNE19.jpg,AFSA13.jpg,FS,4,num_2,16,num_2,1.11673546024,,,2017_Apr_13_1415,60.0041763784,FEMA4ImagesEEG,001,100192,
AFSA25.JPG,AFNE24.JPG,AFSA24.JPG,AFNE21.JPG,AFSA21.JPG,AFNE25.JPG,0,8,8,2,,,,,,,,,,,,,,,,,,,,,,,AFSA17.jpg,AFNE01.jpg,AFNE16.jpg,AFSA06.jpg,AFSA06.jpg,FS,4,num_4,16,num_4,0.85017542867,,,2017_Apr_13_1415,60.0041763784,FEMA4ImagesEEG,001,100192,
AFNE22.JPG,AFSA24.JPG,AFSA22.JPG,AFNE25.JPG,AFNE24.JPG,AFSA25.JPG,0,9,9,6,,,,,,,,,,,,,,,,,,,,,,,AFSA13.jpg,AFNE14.jpg,AFSA16.jpg,AFNE11.jpg,AFSA13.jpg,FS,4,num_8,32,num_2,1.03348522494,,,2017_Apr_13_1415,60.0041763784,FEMA4ImagesEEG,001,100192,
AMNE22.JPG,AMSA24.JPG,AMSA22.JPG,AMNE25.JPG,AMNE24.JPG,AMSA25.JPG,,,,,0,0,0,7,,,,,,,,,,,,,,,,,,,AMSA08.jpg,AMNE01.jpg,AMSA03.jpg,AMNE12.jpg,AMSA03.jpg,MS,2,num_2,16,num_2,0.866739709862,,,2017_Apr_13_1415,60.0041763784,FEMA4ImagesEEG,001,100192,
AMSA25.JPG,AMNE24.JPG,AMSA24.JPG,AMNE26.JPG,AMSA21.JPG,AMNE25.JPG,,,,,0,1,1,3,,,,,,,,,,,,,,,,,,,AMSA17.jpg,AMNE04.jpg,AMNE13.jpg,AMSA07.jpg,AMNE04.jpg,MN,1,num_6,16,num_6,1.06679276051,,,2017_Apr_13_1415,60.0041763784,FEMA4ImagesEEG,001,100192,
AMNE23.JPG,AMNE24.JPG,AMNE22.JPG,AMSA24.JPG,AMSA22.JPG,AMSA23.JPG,,,,,0,2,2,9,,,,,,,,,,,,,,,,,,,AMNE12.jpg,AMNE11.jpg,AMSA07.jpg,AMSA10.jpg,AMSA10.jpg,MS,2,num_4,16,num_4,1.1501279911,,,2017_Apr_13_1415,60.0041763784,FEMA4ImagesEEG,001,100192,
AFNE23.JPG,AFNE24.JPG,AFNE22.JPG,AFSA24.JPG,AFSA22.JPG,AFSA23.JPG,,,,,0,3,3,8,,,,,,,,,,,,,,,,,,,AMSA12.jpg,AMSA19.jpg,AMNE18.jpg,AMNE09.jpg,AMSA12.jpg,MS,2,num_8,32,num_4,1.65010794485,,,2017_Apr_13_1415,60.0041763784,FEMA4ImagesEEG,001,100192,
AFSA25.JPG,AFNE24.JPG,AFSA24.JPG,AFNE21.JPG,AFSA21.JPG,AFNE25.JPG,,,,,0,4,4,2,,,,,,,,,,,,,,,,,,,AMSA15.jpg,AMNE16.jpg,AMNE12.jpg,AMSA11.jpg,AMSA11.jpg,MS,2,num_4,16,num_4,0.983434756286,,,2017_Apr_13_1415,60.0041763784,FEMA4ImagesEEG,001,100192,
AFSA21.JPG,AFNE23.JPG,AFNE21.JPG,AFSA25.JPG,AFNE25.JPG,AFSA23.JPG,,,,,0,5,5,4,,,,,,,,,,,,,,,,,,,AMSA14.jpg,AMNE05.jpg,AMSA10.jpg,AMNE17.jpg,AMSA14.jpg,MS,2,num_8,16,num_8,3.43330041505,,,2017_Apr_13_1415,60.0041763784,FEMA4ImagesEEG,001,100192,
AFSA21.JPG,AFNE22.JPG,AFNE21.JPG,AFSA23.JPG,AFSA22.JPG,AFNE23.JPG,,,,,0,6,6,0,,,,,,,,,,,,,,,,,,,AMNE11.jpg,AMSA18.jpg,AMNE09.jpg,AMSA13.jpg,AMNE11.jpg,MN,1,num_8,32,num_4,1.21681330353,,,2017_Apr_13_1415,60.0041763784,FEMA4ImagesEEG,001,100192,
AMSA21.JPG,AMNE23.JPG,AMNE21.JPG,AMSA25.JPG,AMNE25.JPG,AMSA23.JPG,,,,,0,7,7,5,,,,,,,,,,,,,,,,,,,AMNE09.jpg,AMSA05.jpg,AMSA13.jpg,AMNE17.jpg,AMNE17.jpg,MN,1,num_4,16,num_4,1.15005614562,,,2017_Apr_13_1415,60.0041763784,FEMA4ImagesEEG,001,100192,
AMSA21.JPG,AMNE22.JPG,AMNE21.JPG,AMSA23.JPG,AMSA22.JPG,AMNE23.JPG,,,,,0,8,8,1,,,,,,,,,,,,,,,,,,,AMSA16.jpg,AMSA09.jpg,AMNE06.jpg,AMNE16.jpg,AMNE16.jpg,MN,1,num_4,32,num_8,1.20008897316,,,2017_Apr_13_1415,60.0041763784,FEMA4ImagesEEG,001,100192,
AFNE22.JPG,AFSA24.JPG,AFSA22.JPG,AFNE25.JPG,AFNE24.JPG,AFSA25.JPG,,,,,0,9,9,6,,,,,,,,,,,,,,,,,,,AMNE09.jpg,AMNE19.jpg,AMSA05.jpg,AMSA07.jpg,AMNE19.jpg,MN,1,num_6,16,num_6,1.88341592951,,,2017_Apr_13_1415,60.0041763784,FEMA4ImagesEEG,001,100192,
AMSA25.JPG,AMNE24.JPG,AMSA24.JPG,AMNE26.JPG,AMSA21.JPG,AMNE25.JPG,,,,,,,,,0,0,0,3,,,,,,,,,,,,,,,AFSA10.jpg,AFNE04.jpg,AFNE11.jpg,AFSA18.jpg,AFNE11.jpg,FN,3,num_2,32,num_4,1.2667736439,,,2017_Apr_13_1415,60.0041763784,FEMA4ImagesEEG,001,100192,
AMSA21.JPG,AMNE23.JPG,AMNE21.JPG,AMSA25.JPG,AMNE25.JPG,AMSA23.JPG,,,,,,,,,0,1,1,5,,,,,,,,,,,,,,,AFNE19.jpg,AFNE11.jpg,AFSA05.jpg,AFSA03.jpg,AFSA03.jpg,FS,4,num_4,32,num_6,1.71658060653,,,2017_Apr_13_1415,60.0041763784,FEMA4ImagesEEG,001,100192,
AFSA21.JPG,AFNE22.JPG,AFNE21.JPG,AFSA23.JPG,AFSA22.JPG,AFNE23.JPG,,,,,,,,,0,2,2,0,,,,,,,,,,,,,,,AFNE02.jpg,AFSA09.jpg,AFSA17.jpg,AFNE16.jpg,AFNE16.jpg,FN,3,num_4,32,num_8,0.916822572704,,,2017_Apr_13_1415,60.0041763784,FEMA4ImagesEEG,001,100192,
AFSA21.JPG,AFNE23.JPG,AFNE21.JPG,AFSA25.JPG,AFNE25.JPG,AFSA23.JPG,,,,,,,,,0,3,3,4,,,,,,,,,,,,,,,AFSA11.jpg,AFSA08.jpg,AFNE19.jpg,AFNE11.jpg,AFNE11.jpg,FN,3,num_4,16,num_4,1.18346792087,,,2017_Apr_13_1415,60.0041763784,FEMA4ImagesEEG,001,100192,
AFNE23.JPG,AFNE24.JPG,AFNE22.JPG,AFSA24.JPG,AFSA22.JPG,AFSA23.JPG,,,,,,,,,0,4,4,8,,,,,,,,,,,,,,,AFSA10.jpg,AFSA03.jpg,AFNE10.jpg,AFNE17.jpg,AFNE10.jpg,FN,3,num_2,32,num_8,1.46696781972,,,2017_Apr_13_1415,60.0041763784,FEMA4ImagesEEG,001,100192,
AFNE22.JPG,AFSA24.JPG,AFSA22.JPG,AFNE25.JPG,AFNE24.JPG,AFSA25.JPG,,,,,,,,,0,5,5,6,,,,,,,,,,,,,,,AFNE20.jpg,AFSA18.jpg,AFSA07.jpg,AFNE02.jpg,AFSA07.jpg,FS,4,num_2,32,num_8,1.50009991042,,,2017_Apr_13_1415,60.0041763784,FEMA4ImagesEEG,001,100192,
AMNE22.JPG,AMSA24.JPG,AMSA22.JPG,AMNE25.JPG,AMNE24.JPG,AMSA25.JPG,,,,,,,,,0,6,6,7,,,,,,,,,,,,,,,AFSA12.jpg,AFNE12.jpg,AFSA05.jpg,AFNE18.jpg,AFSA12.jpg,FS,4,num_8,16,num_8,1.56674962072,,,2017_Apr_13_1415,60.0041763784,FEMA4ImagesEEG,001,100192,
AFSA25.JPG,AFNE24.JPG,AFSA24.JPG,AFNE21.JPG,AFSA21.JPG,AFNE25.JPG,,,,,,,,,0,7,7,2,,,,,,,,,,,,,,,AFSA01.jpg,AFSA16.jpg,AFNE10.jpg,AFNE17.jpg,AFNE17.jpg,FN,3,num_4,16,num_4,1.31673687091,,,2017_Apr_13_1415,60.0041763784,FEMA4ImagesEEG,001,100192,
AMSA21.JPG,AMNE22.JPG,AMNE21.JPG,AMSA23.JPG,AMSA22.JPG,AMNE23.JPG,,,,,,,,,0,8,8,1,,,,,,,,,,,,,,,AFNE19.jpg,AFSA03.jpg,AFSA17.jpg,AFNE20.jpg,AFNE19.jpg,FN,3,num_8,32,num_2,1.21646690462,,,2017_Apr_13_1415,60.0041763784,FEMA4ImagesEEG,001,100192,
AMNE23.JPG,AMNE24.JPG,AMNE22.JPG,AMSA24.JPG,AMSA22.JPG,AMSA23.JPG,,,,,,,,,0,9,9,9,,,,,,,,,,,,,,,AFNE09.jpg,AFSA02.jpg,AFNE19.jpg,AFSA01.jpg,AFNE09.jpg,FN,3,num_8,16,num_8,1.0168038737,,,2017_Apr_13_1415,60.0041763784,FEMA4ImagesEEG,001,100192,
AFSA21.JPG,AFNE23.JPG,AFNE21.JPG,AFSA25.JPG,AFNE25.JPG,AFSA23.JPG,,,,,,,,,,,,,0,0,0,4,,,,,,,,,,,AMSA20.jpg,AMSA02.jpg,AMNE15.jpg,AMNE11.jpg,AMSA20.jpg,MS,2,num_8,16,num_8,0.816772633698,,,2017_Apr_13_1415,60.0041763784,FEMA4ImagesEEG,001,100192,
AFNE22.JPG,AFSA24.JPG,AFSA22.JPG,AFNE25.JPG,AFNE24.JPG,AFSA25.JPG,,,,,,,,,,,,,0,1,1,6,,,,,,,,,,,AMSA12.jpg,AMNE13.jpg,AMSA04.jpg,AMNE08.jpg,AMSA12.jpg,MS,2,num_8,16,num_8,0.800144204404,,,2017_Apr_13_1415,60.0041763784,FEMA4ImagesEEG,001,100192,
AFSA21.JPG,AFNE22.JPG,AFNE21.JPG,AFSA23.JPG,AFSA22.JPG,AFNE23.JPG,,,,,,,,,,,,,0,2,2,0,,,,,,,,,,,AMSA02.jpg,AMNE09.jpg,AMSA06.jpg,AMNE12.jpg,AMNE12.jpg,MN,1,num_4,16,num_4,1.25013014022,,,2017_Apr_13_1415,60.0041763784,FEMA4ImagesEEG,001,100192,
AMSA21.JPG,AMNE22.JPG,AMNE21.JPG,AMSA23.JPG,AMSA22.JPG,AMNE23.JPG,,,,,,,,,,,,,0,3,3,1,,,,,,,,,,,AMSA02.jpg,AMNE13.jpg,AMNE02.jpg,AMSA13.jpg,AMSA13.jpg,MS,2,num_4,32,num_8,1.15012606699,,,2017_Apr_13_1415,60.0041763784,FEMA4ImagesEEG,001,100192,
AMNE23.JPG,AMNE24.JPG,AMNE22.JPG,AMSA24.JPG,AMSA22.JPG,AMSA23.JPG,,,,,,,,,,,,,0,4,4,9,,,,,,,,,,,AMNE19.jpg,AMSA11.jpg,AMSA19.jpg,AMNE03.jpg,AMSA11.jpg,MS,2,num_6,32,num_4,1.13344792277,,,2017_Apr_13_1415,60.0041763784,FEMA4ImagesEEG,001,100192,
AFNE23.JPG,AFNE24.JPG,AFNE22.JPG,AFSA24.JPG,AFSA22.JPG,AFSA23.JPG,,,,,,,,,,,,,0,5,5,8,,,,,,,,,,,AMSA10.jpg,AMSA13.jpg,AMNE19.jpg,AMNE20.jpg,AMSA13.jpg,MS,2,num_6,32,num_2,1.5667188298,,,2017_Apr_13_1415,60.0041763784,FEMA4ImagesEEG,001,100192,
AMSA21.JPG,AMNE23.JPG,AMNE21.JPG,AMSA25.JPG,AMNE25.JPG,AMSA23.JPG,,,,,,,,,,,,,0,6,6,5,,,,,,,,,,,AMSA17.jpg,AMNE19.jpg,AMSA05.jpg,AMNE04.jpg,AMNE04.jpg,MN,1,num_4,16,num_4,0.833415816538,,,2017_Apr_13_1415,60.0041763784,FEMA4ImagesEEG,001,100192,
AMNE22.JPG,AMSA24.JPG,AMSA22.JPG,AMNE25.JPG,AMNE24.JPG,AMSA25.JPG,,,,,,,,,,,,,0,7,7,7,,,,,,,,,,,AMNE20.jpg,AMNE12.jpg,AMSA18.jpg,AMSA10.jpg,AMSA10.jpg,MS,2,num_4,32,num_8,0.833518133033,,,2017_Apr_13_1415,60.0041763784,FEMA4ImagesEEG,001,100192,
AMSA25.JPG,AMNE24.JPG,AMSA24.JPG,AMNE26.JPG,AMSA21.JPG,AMNE25.JPG,,,,,,,,,,,,,0,8,8,3,,,,,,,,,,,AMNE14.jpg,AMSA15.jpg,AMNE20.jpg,AMSA17.jpg,AMNE14.jpg,MN,1,num_8,32,num_6,1.53343502898,,,2017_Apr_13_1415,60.0041763784,FEMA4ImagesEEG,001,100192,
AFSA25.JPG,AFNE24.JPG,AFSA24.JPG,AFNE21.JPG,AFSA21.JPG,AFNE25.JPG,,,,,,,,,,,,,0,9,9,2,,,,,,,,,,,AMSA20.jpg,AMSA12.jpg,AMNE03.jpg,AMNE16.jpg,AMNE03.jpg,MN,1,num_2,16,num_2,1.13344503613,,,2017_Apr_13_1415,60.0041763784,FEMA4ImagesEEG,001,100192,
AMNE23.JPG,AMNE24.JPG,AMNE22.JPG,AMSA24.JPG,AMSA22.JPG,AMSA23.JPG,,,,,,,,,,,,,,,,,0,0,0,9,,,,,,,AFNE16.jpg,AFNE15.jpg,AFSA15.jpg,AFSA11.jpg,AFSA15.jpg,FS,4,num_2,32,num_8,1.05012359703,,,2017_Apr_13_1415,60.0041763784,FEMA4ImagesEEG,001,100192,
AFSA21.JPG,AFNE22.JPG,AFNE21.JPG,AFSA23.JPG,AFSA22.JPG,AFNE23.JPG,,,,,,,,,,,,,,,,,0,1,1,0,,,,,,,AFNE06.jpg,AFSA09.jpg,AFSA19.jpg,AFNE20.jpg,AFSA19.jpg,FS,4,num_2,32,num_6,0.916792423464,,,2017_Apr_13_1415,60.0041763784,FEMA4ImagesEEG,001,100192,
AFSA21.JPG,AFNE23.JPG,AFNE21.JPG,AFSA25.JPG,AFNE25.JPG,AFSA23.JPG,,,,,,,,,,,,,,,,,0,2,2,4,,,,,,,AFNE13.jpg,AFSA12.jpg,AFSA07.jpg,AFNE17.jpg,AFSA12.jpg,FS,4,num_6,16,num_6,1.65009415336,,,2017_Apr_13_1415,60.0041763784,FEMA4ImagesEEG,001,100192,
AMSA21.JPG,AMNE22.JPG,AMNE21.JPG,AMSA23.JPG,AMSA22.JPG,AMNE23.JPG,,,,,,,,,,,,,,,,,0,3,3,1,,,,,,,AFNE01.jpg,AFSA11.jpg,AFNE05.jpg,AFSA02.jpg,AFNE01.jpg,FN,3,num_8,32,num_4,1.23344301572,,,2017_Apr_13_1415,60.0041763784,FEMA4ImagesEEG,001,100192,
AFSA25.JPG,AFNE24.JPG,AFSA24.JPG,AFNE21.JPG,AFSA21.JPG,AFNE25.JPG,,,,,,,,,,,,,,,,,0,4,4,2,,,,,,,AFSA17.jpg,AFSA20.jpg,AFNE09.jpg,AFNE17.jpg,AFNE09.jpg,FN,3,num_2,32,num_8,1.31675836071,,,2017_Apr_13_1415,60.0041763784,FEMA4ImagesEEG,001,100192,
AMSA25.JPG,AMNE24.JPG,AMSA24.JPG,AMNE26.JPG,AMSA21.JPG,AMNE25.JPG,,,,,,,,,,,,,,,,,0,5,5,3,,,,,,,AFSA19.jpg,AFNE18.jpg,AFNE03.jpg,AFSA05.jpg,AFSA19.jpg,FS,4,num_8,32,num_2,1.60002636444,,,2017_Apr_13_1415,60.0041763784,FEMA4ImagesEEG,001,100192,
AFNE22.JPG,AFSA24.JPG,AFSA22.JPG,AFNE25.JPG,AFNE24.JPG,AFSA25.JPG,,,,,,,,,,,,,,,,,0,6,6,6,,,,,,,AFNE14.jpg,AFSA11.jpg,AFSA03.jpg,AFNE12.jpg,AFNE12.jpg,FN,3,num_4,32,num_2,1.98338664602,,,2017_Apr_13_1415,60.0041763784,FEMA4ImagesEEG,001,100192,
AMSA21.JPG,AMNE23.JPG,AMNE21.JPG,AMSA25.JPG,AMNE25.JPG,AMSA23.JPG,,,,,,,,,,,,,,,,,0,7,7,5,,,,,,,AFNE05.jpg,AFSA04.jpg,AFSA17.jpg,AFNE14.jpg,AFNE14.jpg,FN,3,num_4,32,num_6,1.20011591539,,,2017_Apr_13_1415,60.0041763784,FEMA4ImagesEEG,001,100192,
AFNE23.JPG,AFNE24.JPG,AFNE22.JPG,AFSA24.JPG,AFSA22.JPG,AFSA23.JPG,,,,,,,,,,,,,,,,,0,8,8,8,,,,,,,AFNE10.jpg,AFSA07.jpg,AFNE16.jpg,AFSA01.jpg,AFSA01.jpg,FS,4,num_4,16,num_4,0.833465210628,,,2017_Apr_13_1415,60.0041763784,FEMA4ImagesEEG,001,100192,
AMNE22.JPG,AMSA24.JPG,AMSA22.JPG,AMNE25.JPG,AMNE24.JPG,AMSA25.JPG,,,,,,,,,,,,,,,,,0,9,9,7,,,,,,,AFSA14.jpg,AFSA05.jpg,AFNE09.jpg,AFNE15.jpg,AFNE09.jpg,FN,3,num_2,16,num_2,1.79982057819,,,2017_Apr_13_1415,60.0041763784,FEMA4ImagesEEG,001,100192,
AFSA21.JPG,AFNE22.JPG,AFNE21.JPG,AFSA23.JPG,AFSA22.JPG,AFNE23.JPG,,,,,,,,,,,,,,,,,,,,,0,0,0,0,,,AMSA14.jpg,AMSA17.jpg,AMNE10.jpg,AMNE09.jpg,AMSA14.jpg,MS,2,num_8,16,num_8,0.700161941815,,,2017_Apr_13_1415,60.0041763784,FEMA4ImagesEEG,001,100192,
AMNE22.JPG,AMSA24.JPG,AMSA22.JPG,AMNE25.JPG,AMNE24.JPG,AMSA25.JPG,,,,,,,,,,,,,,,,,,,,,0,1,1,7,,,AMSA15.jpg,AMSA07.jpg,AMNE18.jpg,AMNE02.jpg,AMSA07.jpg,MS,2,num_6,16,num_6,1.43342165463,,,2017_Apr_13_1415,60.0041763784,FEMA4ImagesEEG,001,100192,
AMSA25.JPG,AMNE24.JPG,AMSA24.JPG,AMNE26.JPG,AMSA21.JPG,AMNE25.JPG,,,,,,,,,,,,,,,,,,,,,0,2,2,3,,,AMNE13.jpg,AMSA16.jpg,AMNE20.jpg,AMSA03.jpg,AMSA03.jpg,MS,2,num_4,16,num_4,0.800042850897,,,2017_Apr_13_1415,60.0041763784,FEMA4ImagesEEG,001,100192,
AMSA21.JPG,AMNE22.JPG,AMNE21.JPG,AMSA23.JPG,AMSA22.JPG,AMNE23.JPG,,,,,,,,,,,,,,,,,,,,,0,3,3,1,,,AMSA13.jpg,AMSA06.jpg,AMNE01.jpg,AMNE08.jpg,AMNE08.jpg,MN,1,num_4,16,num_4,1.31676862435,,,2017_Apr_13_1415,60.0041763784,FEMA4ImagesEEG,001,100192,
AMNE23.JPG,AMNE24.JPG,AMNE22.JPG,AMSA24.JPG,AMSA22.JPG,AMSA23.JPG,,,,,,,,,,,,,,,,,,,,,0,4,4,9,,,AMNE16.jpg,AMNE08.jpg,AMSA16.jpg,AMSA04.jpg,AMSA16.jpg,MS,2,num_2,16,num_2,3.96659752587,,,2017_Apr_13_1415,60.0041763784,FEMA4ImagesEEG,001,100192,
AFNE23.JPG,AFNE24.JPG,AFNE22.JPG,AFSA24.JPG,AFSA22.JPG,AFSA23.JPG,,,,,,,,,,,,,,,,,,,,,0,5,5,8,,,AMSA13.jpg,AMNE19.jpg,AMSA17.jpg,AMNE02.jpg,AMSA13.jpg,MS,2,num_8,16,num_8,0.850313667674,,,2017_Apr_13_1415,60.0041763784,FEMA4ImagesEEG,001,100192,
AFSA21.JPG,AFNE23.JPG,AFNE21.JPG,AFSA25.JPG,AFNE25.JPG,AFSA23.JPG,,,,,,,,,,,,,,,,,,,,,0,6,6,4,,,AMSA18.jpg,AMNE19.jpg,AMNE13.jpg,AMSA17.jpg,AMSA18.jpg,MS,2,num_8,16,num_8,1.05027723126,,,2017_Apr_13_1415,60.0041763784,FEMA4ImagesEEG,001,100192,
AFNE22.JPG,AFSA24.JPG,AFSA22.JPG,AFNE25.JPG,AFNE24.JPG,AFSA25.JPG,,,,,,,,,,,,,,,,,,,,,0,7,7,6,,,AMNE04.jpg,AMNE17.jpg,AMSA12.jpg,AMSA06.jpg,AMSA12.jpg,MS,2,num_2,32,num_4,1.51672192477,,,2017_Apr_13_1415,60.0041763784,FEMA4ImagesEEG,001,100192,
AMSA21.JPG,AMNE23.JPG,AMNE21.JPG,AMSA25.JPG,AMNE25.JPG,AMSA23.JPG,,,,,,,,,,,,,,,,,,,,,0,8,8,5,,,AMNE17.jpg,AMSA10.jpg,AMSA04.jpg,AMNE15.jpg,AMNE17.jpg,MN,1,num_8,32,num_4,0.966878172942,,,2017_Apr_13_1415,60.0041763784,FEMA4ImagesEEG,001,100192,
AFSA25.JPG,AFNE24.JPG,AFSA24.JPG,AFNE21.JPG,AFSA21.JPG,AFNE25.JPG,,,,,,,,,,,,,,,,,,,,,0,9,9,2,,,AMSA18.jpg,AMNE17.jpg,AMSA05.jpg,AMNE06.jpg,AMNE06.jpg,MN,1,num_4,32,num_6,1.05018004728,,,2017_Apr_13_1415,60.0041763784,FEMA4ImagesEEG,001,100192,
,,,,,,,,,,,,,,,,,,,,,,,,,,,,,,,,,,,,,,,,,,,space,10.4824207379,2017_Apr_13_1415,60.0041763784,FEMA4ImagesEEG,001,100192,
AFNE01.JPG,AFNE01.JPG,AFNE01.JPG,AFNE01.JPG,AFNE01.JPG,AFNE01.JPG,0,0,0,0,,,,,,,,,,,,,,,,,,,,,,,AFSA13.jpg,AFNE17.jpg,AFNE12.jpg,AFSA01.jpg,AFSA01.jpg,FS,4,num_4,16,num_4,0.883487133309,,,2017_Apr_13_1415,60.0041763784,FEMA4ImagesEEG,001,100192,
AFNE01.JPG,AFNE01.JPG,AFNE01.JPG,AFNE01.JPG,AFNE01.JPG,AFNE01.JPG,0,1,1,8,,,,,,,,,,,,,,,,,,,,,,,AFSA03.jpg,AFSA09.jpg,AFNE09.jpg,AFNE04.jpg,AFNE04.jpg,FN,3,num_4,32,num_8,1.00009333529,,,2017_Apr_13_1415,60.0041763784,FEMA4ImagesEEG,001,100192,
AFNE01.JPG,AFNE01.JPG,AFNE01.JPG,AFNE01.JPG,AFNE01.JPG,AFNE01.JPG,0,2,2,7,,,,,,,,,,,,,,,,,,,,,,,AFSA14.jpg,AFNE16.jpg,AFSA04.jpg,AFNE14.jpg,AFNE16.jpg,FN,3,num_6,32,num_8,0.783434628043,,,2017_Apr_13_1415,60.0041763784,FEMA4ImagesEEG,001,100192,
AFNE01.JPG,AFNE01.JPG,AFNE01.JPG,AFNE01.JPG,AFNE01.JPG,AFNE01.JPG,0,3,3,9,,,,,,,,,,,,,,,,,,,,,,,AFNE09.jpg,AFSA06.jpg,AFNE19.jpg,AFSA10.jpg,AFSA10.jpg,FS,4,num_4,32,num_8,0.983436680865,,,2017_Apr_13_1415,60.0041763784,FEMA4ImagesEEG,001,100192,
AFNE01.JPG,AFNE01.JPG,AFNE01.JPG,AFNE01.JPG,AFNE01.JPG,AFNE01.JPG,0,4,4,5,,,,,,,,,,,,,,,,,,,,,,,AFSA07.jpg,AFNE17.jpg,AFSA15.jpg,AFNE09.jpg,AFNE17.jpg,FN,3,num_6,32,num_4,1.01678078063,,,2017_Apr_13_1415,60.0041763784,FEMA4ImagesEEG,001,100192,
AFNE01.JPG,AFNE01.JPG,AFNE01.JPG,AFNE01.JPG,AFNE01.JPG,AFNE01.JPG,0,5,5,1,,,,,,,,,,,,,,,,,,,,,,,AFNE20.jpg,AFNE18.jpg,AFSA13.jpg,AFSA01.jpg,AFNE18.jpg,FN,3,num_6,32,num_8,0.766848216299,,,2017_Apr_13_1415,60.0041763784,FEMA4ImagesEEG,001,100192,
AFNE01.JPG,AFNE01.JPG,AFNE01.JPG,AFNE01.JPG,AFNE01.JPG,AFNE01.JPG,0,6,6,6,,,,,,,,,,,,,,,,,,,,,,,AFNE17.jpg,AFSA08.jpg,AFSA19.jpg,AFNE15.jpg,AFNE17.jpg,FN,3,num_8,32,num_6,0.966784516815,,,2017_Apr_13_1415,60.0041763784,FEMA4ImagesEEG,001,100192,
AFNE01.JPG,AFNE01.JPG,AFNE01.JPG,AFNE01.JPG,AFNE01.JPG,AFNE01.JPG,0,7,7,2,,,,,,,,,,,,,,,,,,,,,,,AFNE10.jpg,AFSA15.jpg,AFNE15.jpg,AFSA12.jpg,AFNE10.jpg,FN,3,num_8,16,num_8,0.850124110002,,,2017_Apr_13_1415,60.0041763784,FEMA4ImagesEEG,001,100192,
AFNE01.JPG,AFNE01.JPG,AFNE01.JPG,AFNE01.JPG,AFNE01.JPG,AFNE01.JPG,0,8,8,3,,,,,,,,,,,,,,,,,,,,,,,AFSA11.jpg,AFSA20.jpg,AFNE17.jpg,AFNE02.jpg,AFNE02.jpg,FN,3,num_4,16,num_4,0.933503603097,,,2017_Apr_13_1415,60.0041763784,FEMA4ImagesEEG,001,100192,
AFNE01.JPG,AFNE01.JPG,AFNE01.JPG,AFNE01.JPG,AFNE01.JPG,AFNE01.JPG,0,9,9,4,,,,,,,,,,,,,,,,,,,,,,,AFSA03.jpg,AFNE04.jpg,AFNE11.jpg,AFSA20.jpg,AFSA20.jpg,FS,4,num_4,32,num_8,1.00015106844,,,2017_Apr_13_1415,60.0041763784,FEMA4ImagesEEG,001,100192,
AFNE01.JPG,AFNE01.JPG,AFNE01.JPG,AFNE01.JPG,AFNE01.JPG,AFNE01.JPG,1,0,10,6,,,,,,,,,,,,,,,,,,,,,,,AFSA10.jpg,AFSA19.jpg,AFNE10.jpg,AFNE13.jpg,AFSA10.jpg,FS,4,num_8,32,num_6,1.23340965854,,,2017_Apr_13_1415,60.0041763784,FEMA4ImagesEEG,001,100192,
AFNE01.JPG,AFNE01.JPG,AFNE01.JPG,AFNE01.JPG,AFNE01.JPG,AFNE01.JPG,1,1,11,2,,,,,,,,,,,,,,,,,,,,,,,AFNE20.jpg,AFSA05.jpg,AFNE13.jpg,AFSA03.jpg,AFNE13.jpg,FN,3,num_2,32,num_8,0.966798629612,,,2017_Apr_13_1415,60.0041763784,FEMA4ImagesEEG,001,100192,
AFNE01.JPG,AFNE01.JPG,AFNE01.JPG,AFNE01.JPG,AFNE01.JPG,AFNE01.JPG,1,2,12,4,,,,,,,,,,,,,,,,,,,,,,,AFNE03.jpg,AFNE02.jpg,AFSA18.jpg,AFSA17.jpg,AFNE02.jpg,FN,3,num_6,32,num_8,1.18345284648,,,2017_Apr_13_1415,60.0041763784,FEMA4ImagesEEG,001,100192,
AFNE01.JPG,AFNE01.JPG,AFNE01.JPG,AFNE01.JPG,AFNE01.JPG,AFNE01.JPG,1,3,13,8,,,,,,,,,,,,,,,,,,,,,,,AFNE07.jpg,AFSA13.jpg,AFSA01.jpg,AFNE14.jpg,AFNE14.jpg,FN,3,num_4,32,num_2,0.833514604717,,,2017_Apr_13_1415,60.0041763784,FEMA4ImagesEEG,001,100192,
AFNE01.JPG,AFNE01.JPG,AFNE01.JPG,AFNE01.JPG,AFNE01.JPG,AFNE01.JPG,1,4,14,7,,,,,,,,,,,,,,,,,,,,,,,AFSA06.jpg,AFNE03.jpg,AFSA03.jpg,AFNE16.jpg,AFNE16.jpg,FN,3,num_4,16,num_4,1.0334810554,,,2017_Apr_13_1415,60.0041763784,FEMA4ImagesEEG,001,100192,
AFNE01.JPG,AFNE01.JPG,AFNE01.JPG,AFNE01.JPG,AFNE01.JPG,AFNE01.JPG,1,5,15,3,,,,,,,,,,,,,,,,,,,,,,,AFNE01.jpg,AFSA13.jpg,AFNE04.jpg,AFSA07.jpg,AFSA13.jpg,FS,4,num_6,16,num_6,0.700125056319,,,2017_Apr_13_1415,60.0041763784,FEMA4ImagesEEG,001,100192,
AFNE01.JPG,AFNE01.JPG,AFNE01.JPG,AFNE01.JPG,AFNE01.JPG,AFNE01.JPG,1,6,16,0,,,,,,,,,,,,,,,,,,,,,,,AFSA15.jpg,AFNE18.jpg,AFNE12.jpg,AFSA17.jpg,AFNE18.jpg,FN,3,num_6,32,num_8,1.00014882302,,,2017_Apr_13_1415,60.0041763784,FEMA4ImagesEEG,001,100192,
AFNE01.JPG,AFNE01.JPG,AFNE01.JPG,AFNE01.JPG,AFNE01.JPG,AFNE01.JPG,1,7,17,9,,,,,,,,,,,,,,,,,,,,,,,AFSA18.jpg,AFNE13.jpg,AFSA19.jpg,AFNE08.jpg,AFSA18.jpg,FS,4,num_8,32,num_6,1.3167891521,,,2017_Apr_13_1415,60.0041763784,FEMA4ImagesEEG,001,100192,
AFNE01.JPG,AFNE01.JPG,AFNE01.JPG,AFNE01.JPG,AFNE01.JPG,AFNE01.JPG,1,8,18,5,,,,,,,,,,,,,,,,,,,,,,,AFSA01.jpg,AFNE16.jpg,AFSA19.jpg,AFNE20.jpg,AFNE20.jpg,FN,3,num_4,32,num_8,1.13342001848,,,2017_Apr_13_1415,60.0041763784,FEMA4ImagesEEG,001,100192,
AFNE01.JPG,AFNE01.JPG,AFNE01.JPG,AFNE01.JPG,AFNE01.JPG,AFNE01.JPG,1,9,19,1,,,,,,,,,,,,,,,,,,,,,,,AFSA01.jpg,AFSA03.jpg,AFNE13.jpg,AFNE08.jpg,AFNE13.jpg,FN,3,num_2,32,num_4,0.683507532347,,,2017_Apr_13_1415,60.0041763784,FEMA4ImagesEEG,001,100192,
AFNE01.JPG,AFNE01.JPG,AFNE01.JPG,AFNE01.JPG,AFNE01.JPG,AFNE01.JPG,2,0,20,5,,,,,,,,,,,,,,,,,,,,,,,AFNE11.jpg,AFNE12.jpg,AFSA05.jpg,AFSA04.jpg,AFNE11.jpg,FN,3,num_8,32,num_6,1.73336684005,,,2017_Apr_13_1415,60.0041763784,FEMA4ImagesEEG,001,100192,
AFNE01.JPG,AFNE01.JPG,AFNE01.JPG,AFNE01.JPG,AFNE01.JPG,AFNE01.JPG,2,1,21,0,,,,,,,,,,,,,,,,,,,,,,,AFNE15.jpg,AFSA08.jpg,AFSA10.jpg,AFNE18.jpg,AFSA10.jpg,FS,4,num_2,32,num_6,1.9333429127,,,2017_Apr_13_1415,60.0041763784,FEMA4ImagesEEG,001,100192,
AFNE01.JPG,AFNE01.JPG,AFNE01.JPG,AFNE01.JPG,AFNE01.JPG,AFNE01.JPG,2,2,22,3,,,,,,,,,,,,,,,,,,,,,,,AFNE06.jpg,AFSA07.jpg,AFSA03.jpg,AFNE05.jpg,AFNE05.jpg,FN,3,num_4,16,num_4,0.866803216282,,,2017_Apr_13_1415,60.0041763784,FEMA4ImagesEEG,001,100192,
AFNE01.JPG,AFNE01.JPG,AFNE01.JPG,AFNE01.JPG,AFNE01.JPG,AFNE01.JPG,2,3,23,2,,,,,,,,,,,,,,,,,,,,,,,AFSA04.jpg,AFNE17.jpg,AFNE13.jpg,AFSA07.jpg,AFSA04.jpg,FS,4,num_8,32,num_6,0.70018246863,,,2017_Apr_13_1415,60.0041763784,FEMA4ImagesEEG,001,100192,
AFNE01.JPG,AFNE01.JPG,AFNE01.JPG,AFNE01.JPG,AFNE01.JPG,AFNE01.JPG,2,4,24,6,,,,,,,,,,,,,,,,,,,,,,,AFNE03.jpg,AFSA20.jpg,AFNE13.jpg,AFSA08.jpg,AFSA08.jpg,FS,4,num_4,32,num_8,1.11676945863,,,2017_Apr_13_1415,60.0041763784,FEMA4ImagesEEG,001,100192,
AFNE01.JPG,AFNE01.JPG,AFNE01.JPG,AFNE01.JPG,AFNE01.JPG,AFNE01.JPG,2,5,25,4,,,,,,,,,,,,,,,,,,,,,,,AFNE15.jpg,AFNE07.jpg,AFSA13.jpg,AFSA06.jpg,AFNE15.jpg,FN,3,num_8,16,num_8,0.66661481373,,,2017_Apr_13_1415,60.0041763784,FEMA4ImagesEEG,001,100192,
AFNE01.JPG,AFNE01.JPG,AFNE01.JPG,AFNE01.JPG,AFNE01.JPG,AFNE01.JPG,2,6,26,9,,,,,,,,,,,,,,,,,,,,,,,AFSA17.jpg,AFSA05.jpg,AFNE03.jpg,AFNE05.jpg,AFSA17.jpg,FS,4,num_8,32,num_4,1.20014831005,,,2017_Apr_13_1415,60.0041763784,FEMA4ImagesEEG,001,100192,
AFNE01.JPG,AFNE01.JPG,AFNE01.JPG,AFNE01.JPG,AFNE01.JPG,AFNE01.JPG,2,7,27,8,,,,,,,,,,,,,,,,,,,,,,,AFSA10.jpg,AFSA20.jpg,AFNE15.jpg,AFNE11.jpg,AFNE11.jpg,FN,3,num_4,32,num_2,0.966789969709,,,2017_Apr_13_1415,60.0041763784,FEMA4ImagesEEG,001,100192,
AFNE01.JPG,AFNE01.JPG,AFNE01.JPG,AFNE01.JPG,AFNE01.JPG,AFNE01.JPG,2,8,28,1,,,,,,,,,,,,,,,,,,,,,,,AFNE14.jpg,AFSA15.jpg,AFSA16.jpg,AFNE17.jpg,AFSA16.jpg,FS,4,num_2,16,num_2,0.666686017998,,,2017_Apr_13_1415,60.0041763784,FEMA4ImagesEEG,001,100192,
AFNE01.JPG,AFNE01.JPG,AFNE01.JPG,AFNE01.JPG,AFNE01.JPG,AFNE01.JPG,2,9,29,7,,,,,,,,,,,,,,,,,,,,,,,AFNE01.jpg,AFNE04.jpg,AFSA04.jpg,AFSA10.jpg,AFNE04.jpg,FN,3,num_6,32,num_4,1.43345629424,,,2017_Apr_13_1415,60.0041763784,FEMA4ImagesEEG,001,100192,
AFNE01.JPG,AFNE01.JPG,AFNE01.JPG,AFNE01.JPG,AFNE01.JPG,AFNE01.JPG,3,0,30,8,,,,,,,,,,,,,,,,,,,,,,,AFSA08.jpg,AFNE14.jpg,AFSA11.jpg,AFNE03.jpg,AFSA11.jpg,FS,4,num_2,32,num_8,0.800125922542,,,2017_Apr_13_1415,60.0041763784,FEMA4ImagesEEG,001,100192,
AFNE01.JPG,AFNE01.JPG,AFNE01.JPG,AFNE01.JPG,AFNE01.JPG,AFNE01.JPG,3,1,31,0,,,,,,,,,,,,,,,,,,,,,,,AFSA18.jpg,AFSA16.jpg,AFNE17.jpg,AFNE13.jpg,AFNE17.jpg,FN,3,num_2,16,num_2,1.03347047092,,,2017_Apr_13_1415,60.0041763784,FEMA4ImagesEEG,001,100192,
AFNE01.JPG,AFNE01.JPG,AFNE01.JPG,AFNE01.JPG,AFNE01.JPG,AFNE01.JPG,3,2,32,6,,,,,,,,,,,,,,,,,,,,,,,AFNE11.jpg,AFSA18.jpg,AFSA01.jpg,AFNE05.jpg,AFNE11.jpg,FN,3,num_8,16,num_8,0.749898726586,,,2017_Apr_13_1415,60.0041763784,FEMA4ImagesEEG,001,100192,
AFNE01.JPG,AFNE01.JPG,AFNE01.JPG,AFNE01.JPG,AFNE01.JPG,AFNE01.JPG,3,3,33,4,,,,,,,,,,,,,,,,,,,,,,,AFSA20.jpg,AFNE06.jpg,AFSA18.jpg,AFNE19.jpg,AFNE06.jpg,FN,3,num_6,32,num_4,1.41701485636,,,2017_Apr_13_1415,60.0041763784,FEMA4ImagesEEG,001,100192,
AFNE01.JPG,AFNE01.JPG,AFNE01.JPG,AFNE01.JPG,AFNE01.JPG,AFNE01.JPG,3,4,34,5,,,,,,,,,,,,,,,,,,,,,,,AFNE02.jpg,AFSA09.jpg,AFNE05.jpg,AFSA07.jpg,AFNE05.jpg,FN,3,num_2,32,num_8,0.766957588494,,,2017_Apr_13_1415,60.0041763784,FEMA4ImagesEEG,001,100192,
AFNE01.JPG,AFNE01.JPG,AFNE01.JPG,AFNE01.JPG,AFNE01.JPG,AFNE01.JPG,3,5,35,7,,,,,,,,,,,,,,,,,,,,,,,AFSA11.jpg,AFSA07.jpg,AFNE12.jpg,AFNE03.jpg,AFNE03.jpg,FN,3,num_4,32,num_2,1.26674253214,,,2017_Apr_13_1415,60.0041763784,FEMA4ImagesEEG,001,100192,
AFNE01.JPG,AFNE01.JPG,AFNE01.JPG,AFNE01.JPG,AFNE01.JPG,AFNE01.JPG,3,6,36,1,,,,,,,,,,,,,,,,,,,,,,,AFNE16.jpg,AFNE01.jpg,AFSA08.jpg,AFSA01.jpg,AFSA01.jpg,FS,4,num_4,16,num_4,0.883507339749,,,2017_Apr_13_1415,60.0041763784,FEMA4ImagesEEG,001,100192,
AFNE01.JPG,AFNE01.JPG,AFNE01.JPG,AFNE01.JPG,AFNE01.JPG,AFNE01.JPG,3,7,37,3,,,,,,,,,,,,,,,,,,,,,,,AFSA08.jpg,AFNE18.jpg,AFSA04.jpg,AFNE19.jpg,AFSA08.jpg,FS,4,num_8,32,num_4,1.30021043774,,,2017_Apr_13_1415,60.0041763784,FEMA4ImagesEEG,001,100192,
AFNE01.JPG,AFNE01.JPG,AFNE01.JPG,AFNE01.JPG,AFNE01.JPG,AFNE01.JPG,3,8,38,9,,,,,,,,,,,,,,,,,,,,,,,AFNE15.jpg,AFSA09.jpg,AFNE13.jpg,AFSA11.jpg,AFNE15.jpg,FN,3,num_8,32,num_2,1.46678563999,,,2017_Apr_13_1415,60.0041763784,FEMA4ImagesEEG,001,100192,
AFNE01.JPG,AFNE01.JPG,AFNE01.JPG,AFNE01.JPG,AFNE01.JPG,AFNE01.JPG,3,9,39,2,,,,,,,,,,,,,,,,,,,,,,,AFSA11.jpg,AFSA18.jpg,AFNE15.jpg,AFNE16.jpg,AFSA18.jpg,FS,4,num_6,16,num_6,1.21677096607,,,2017_Apr_13_1415,60.0041763784,FEMA4ImagesEEG,001,100192,
AFNE01.JPG,AFNE01.JPG,AFNE01.JPG,AFNE01.JPG,AFNE01.JPG,AFNE01.JPG,4,0,40,6,,,,,,,,,,,,,,,,,,,,,,,AFNE17.jpg,AFSA09.jpg,AFNE01.jpg,AFSA04.jpg,AFSA04.jpg,FS,4,num_4,32,num_2,1.18346695881,,,2017_Apr_13_1415,60.0041763784,FEMA4ImagesEEG,001,100192,
AFNE01.JPG,AFNE01.JPG,AFNE01.JPG,AFNE01.JPG,AFNE01.JPG,AFNE01.JPG,4,1,41,8,,,,,,,,,,,,,,,,,,,,,,,AFNE17.jpg,AFSA12.jpg,AFSA17.jpg,AFNE02.jpg,AFNE02.jpg,FN,3,num_4,16,num_4,0.933532469906,,,2017_Apr_13_1415,60.0041763784,FEMA4ImagesEEG,001,100192,
AFNE01.JPG,AFNE01.JPG,AFNE01.JPG,AFNE01.JPG,AFNE01.JPG,AFNE01.JPG,4,2,42,9,,,,,,,,,,,,,,,,,,,,,,,AFSA01.jpg,AFNE13.jpg,AFSA10.jpg,AFNE16.jpg,AFNE13.jpg,FN,3,num_6,32,num_4,2.38333237683,,,2017_Apr_13_1415,60.0041763784,FEMA4ImagesEEG,001,100192,
AFNE01.JPG,AFNE01.JPG,AFNE01.JPG,AFNE01.JPG,AFNE01.JPG,AFNE01.JPG,4,3,43,2,,,,,,,,,,,,,,,,,,,,,,,AFSA01.jpg,AFSA02.jpg,AFNE06.jpg,AFNE15.jpg,AFSA01.jpg,FS,4,num_8,16,num_8,0.617055397946,,,2017_Apr_13_1415,60.0041763784,FEMA4ImagesEEG,001,100192,
AFNE01.JPG,AFNE01.JPG,AFNE01.JPG,AFNE01.JPG,AFNE01.JPG,AFNE01.JPG,4,4,44,5,,,,,,,,,,,,,,,,,,,,,,,AFNE08.jpg,AFSA20.jpg,AFNE09.jpg,AFSA14.jpg,AFNE08.jpg,FN,3,num_8,32,num_4,1.11674828967,,,2017_Apr_13_1415,60.0041763784,FEMA4ImagesEEG,001,100192,
AFNE01.JPG,AFNE01.JPG,AFNE01.JPG,AFNE01.JPG,AFNE01.JPG,AFNE01.JPG,4,5,45,1,,,,,,,,,,,,,,,,,,,,,,,AFNE09.jpg,AFSA17.jpg,AFNE19.jpg,AFSA10.jpg,AFSA10.jpg,FS,4,num_4,16,num_4,0.750112018548,,,2017_Apr_13_1415,60.0041763784,FEMA4ImagesEEG,001,100192,
AFNE01.JPG,AFNE01.JPG,AFNE01.JPG,AFNE01.JPG,AFNE01.JPG,AFNE01.JPG,4,6,46,4,,,,,,,,,,,,,,,,,,,,,,,AFSA14.jpg,AFNE07.jpg,AFNE20.jpg,AFSA17.jpg,AFSA17.jpg,FS,4,num_4,16,num_4,1.05011686124,,,2017_Apr_13_1415,60.0041763784,FEMA4ImagesEEG,001,100192,
AFNE01.JPG,AFNE01.JPG,AFNE01.JPG,AFNE01.JPG,AFNE01.JPG,AFNE01.JPG,4,7,47,0,,,,,,,,,,,,,,,,,,,,,,,AFNE08.jpg,AFSA13.jpg,AFNE16.jpg,AFSA14.jpg,AFSA13.jpg,FS,4,num_6,32,num_8,0.900130637456,,,2017_Apr_13_1415,60.0041763784,FEMA4ImagesEEG,001,100192,
AFNE01.JPG,AFNE01.JPG,AFNE01.JPG,AFNE01.JPG,AFNE01.JPG,AFNE01.JPG,4,8,48,7,,,,,,,,,,,,,,,,,,,,,,,AFNE07.jpg,AFSA06.jpg,AFSA12.jpg,AFNE13.jpg,AFNE13.jpg,FN,3,num_4,32,num_6,1.16676828731,,,2017_Apr_13_1415,60.0041763784,FEMA4ImagesEEG,001,100192,
AFNE01.JPG,AFNE01.JPG,AFNE01.JPG,AFNE01.JPG,AFNE01.JPG,AFNE01.JPG,4,9,49,3,,,,,,,,,,,,,,,,,,,,,,,AFSA02.jpg,AFSA17.jpg,AFNE05.jpg,AFNE10.jpg,AFSA17.jpg,FS,4,num_6,32,num_8,2.31667785533,,,2017_Apr_13_1415,60.0041763784,FEMA4ImagesEEG,001,100192,
AFNE01.JPG,AFNE01.JPG,AFNE01.JPG,AFNE01.JPG,AFNE01.JPG,AFNE01.JPG,5,0,50,3,,,,,,,,,,,,,,,,,,,,,,,AFSA03.jpg,AFSA12.jpg,AFNE18.jpg,AFNE08.jpg,AFNE08.jpg,FN,3,num_4,32,num_8,0.766768351663,,,2017_Apr_13_1415,60.0041763784,FEMA4ImagesEEG,001,100192,
AFNE01.JPG,AFNE01.JPG,AFNE01.JPG,AFNE01.JPG,AFNE01.JPG,AFNE01.JPG,5,1,51,1,,,,,,,,,,,,,,,,,,,,,,,AFNE01.jpg,AFNE08.jpg,AFSA19.jpg,AFSA16.jpg,AFSA19.jpg,FS,4,num_2,16,num_2,0.750152431428,,,2017_Apr_13_1415,60.0041763784,FEMA4ImagesEEG,001,100192,
AFNE01.JPG,AFNE01.JPG,AFNE01.JPG,AFNE01.JPG,AFNE01.JPG,AFNE01.JPG,5,2,52,8,,,,,,,,,,,,,,,,,,,,,,,AFNE07.jpg,AFSA11.jpg,AFSA15.jpg,AFNE04.jpg,AFSA15.jpg,FS,4,num_2,32,num_8,1.31673526764,,,2017_Apr_13_1415,60.0041763784,FEMA4ImagesEEG,001,100192,
AFNE01.JPG,AFNE01.JPG,AFNE01.JPG,AFNE01.JPG,AFNE01.JPG,AFNE01.JPG,5,3,53,4,,,,,,,,,,,,,,,,,,,,,,,AFSA20.jpg,AFSA12.jpg,AFNE19.jpg,AFNE04.jpg,AFNE19.jpg,FN,3,num_2,16,num_2,0.916730199941,,,2017_Apr_13_1415,60.0041763784,FEMA4ImagesEEG,001,100192,
AFNE01.JPG,AFNE01.JPG,AFNE01.JPG,AFNE01.JPG,AFNE01.JPG,AFNE01.JPG,5,4,54,5,,,,,,,,,,,,,,,,,,,,,,,AFSA03.jpg,AFNE12.jpg,AFNE10.jpg,AFSA05.jpg,AFSA03.jpg,FS,4,num_8,32,num_4,1.38343822025,,,2017_Apr_13_1415,60.0041763784,FEMA4ImagesEEG,001,100192,
AFNE01.JPG,AFNE01.JPG,AFNE01.JPG,AFNE01.JPG,AFNE01.JPG,AFNE01.JPG,5,5,55,6,,,,,,,,,,,,,,,,,,,,,,,AFSA01.jpg,AFSA12.jpg,AFNE04.jpg,AFNE12.jpg,AFNE12.jpg,FN,3,num_4,32,num_6,0.6501243026,,,2017_Apr_13_1415,60.0041763784,FEMA4ImagesEEG,001,100192,
AFNE01.JPG,AFNE01.JPG,AFNE01.JPG,AFNE01.JPG,AFNE01.JPG,AFNE01.JPG,5,6,56,2,,,,,,,,,,,,,,,,,,,,,,,AFNE12.jpg,AFNE06.jpg,AFSA17.jpg,AFSA03.jpg,AFSA03.jpg,FS,4,num_4,16,num_4,1.46677184803,,,2017_Apr_13_1415,60.0041763784,FEMA4ImagesEEG,001,100192,
AFNE01.JPG,AFNE01.JPG,AFNE01.JPG,AFNE01.JPG,AFNE01.JPG,AFNE01.JPG,5,7,57,7,,,,,,,,,,,,,,,,,,,,,,,AFNE20.jpg,AFSA12.jpg,AFNE03.jpg,AFSA16.jpg,AFNE20.jpg,FN,3,num_8,16,num_8,0.950091939885,,,2017_Apr_13_1415,60.0041763784,FEMA4ImagesEEG,001,100192,
AFNE01.JPG,AFNE01.JPG,AFNE01.JPG,AFNE01.JPG,AFNE01.JPG,AFNE01.JPG,5,8,58,9,,,,,,,,,,,,,,,,,,,,,,,AFNE06.jpg,AFSA10.jpg,AFSA17.jpg,AFNE17.jpg,AFSA10.jpg,FS,4,num_6,16,num_6,0.550101305824,,,2017_Apr_13_1415,60.0041763784,FEMA4ImagesEEG,001,100192,
AFNE01.JPG,AFNE01.JPG,AFNE01.JPG,AFNE01.JPG,AFNE01.JPG,AFNE01.JPG,5,9,59,0,,,,,,,,,,,,,,,,,,,,,,,AFNE18.jpg,AFSA07.jpg,AFNE03.jpg,AFSA01.jpg,AFSA07.jpg,FS,4,num_6,32,num_4,1.21671868535,,,2017_Apr_13_1415,60.0041763784,FEMA4ImagesEEG,001,100192,
,,,,,,,,,,,,,,,,,,,,,,,,,,,,,,,,,,,,,,,,,,,space,14.3654059139,2017_Apr_13_1415,60.0041763784,FEMA4ImagesEEG,001,100192,
AFNE01.JPG,AFNE01.JPG,AFNE01.JPG,AFNE01.JPG,AFNE01.JPG,AFNE01.JPG,,,,,0,0,0,3,,,,,,,,,,,,,,,,,,,AMSA03.jpg,AMSA19.jpg,AMNE18.jpg,AMNE15.jpg,AMSA19.jpg,MS,2,num_6,16,num_6,0.78368416382,,,2017_Apr_13_1415,60.0041763784,FEMA4ImagesEEG,001,100192,
AFNE01.JPG,AFNE01.JPG,AFNE01.JPG,AFNE01.JPG,AFNE01.JPG,AFNE01.JPG,,,,,0,1,1,2,,,,,,,,,,,,,,,,,,,AMSA11.jpg,AMNE01.jpg,AMSA16.jpg,AMNE15.jpg,AMSA11.jpg,MS,2,num_8,32,num_2,2.73330429569,,,2017_Apr_13_1415,60.0041763784,FEMA4ImagesEEG,001,100192,
AFNE01.JPG,AFNE01.JPG,AFNE01.JPG,AFNE01.JPG,AFNE01.JPG,AFNE01.JPG,,,,,0,2,2,0,,,,,,,,,,,,,,,,,,,AMSA09.jpg,AMNE08.jpg,AMSA20.jpg,AMNE19.jpg,AMSA09.jpg,MS,2,num_8,32,num_4,0.850380060263,,,2017_Apr_13_1415,60.0041763784,FEMA4ImagesEEG,001,100192,
AFNE01.JPG,AFNE01.JPG,AFNE01.JPG,AFNE01.JPG,AFNE01.JPG,AFNE01.JPG,,,,,0,3,3,9,,,,,,,,,,,,,,,,,,,AMSA19.jpg,AMNE05.jpg,AMNE12.jpg,AMSA01.jpg,AMNE05.jpg,MN,1,num_6,32,num_4,0.950090015773,,,2017_Apr_13_1415,60.0041763784,FEMA4ImagesEEG,001,100192,
AFNE01.JPG,AFNE01.JPG,AFNE01.JPG,AFNE01.JPG,AFNE01.JPG,AFNE01.JPG,,,,,0,4,4,7,,,,,,,,,,,,,,,,,,,AMSA01.jpg,AMNE10.jpg,AMSA03.jpg,AMNE08.jpg,AMSA03.jpg,MS,2,num_2,32,num_6,0.883432286792,,,2017_Apr_13_1415,60.0041763784,FEMA4ImagesEEG,001,100192,
AFNE01.JPG,AFNE01.JPG,AFNE01.JPG,AFNE01.JPG,AFNE01.JPG,AFNE01.JPG,,,,,0,5,5,1,,,,,,,,,,,,,,,,,,,AMSA19.jpg,AMNE20.jpg,AMNE18.jpg,AMSA15.jpg,AMNE20.jpg,MN,1,num_6,32,num_8,1.10014455765,,,2017_Apr_13_1415,60.0041763784,FEMA4ImagesEEG,001,100192,
AFNE01.JPG,AFNE01.JPG,AFNE01.JPG,AFNE01.JPG,AFNE01.JPG,AFNE01.JPG,,,,,0,6,6,6,,,,,,,,,,,,,,,,,,,AMSA06.jpg,AMSA19.jpg,AMNE05.jpg,AMNE11.jpg,AMNE11.jpg,MN,1,num_4,32,num_6,1.30013570515,,,2017_Apr_13_1415,60.0041763784,FEMA4ImagesEEG,001,100192,
AFNE01.JPG,AFNE01.JPG,AFNE01.JPG,AFNE01.JPG,AFNE01.JPG,AFNE01.JPG,,,,,0,7,7,4,,,,,,,,,,,,,,,,,,,AMNE18.jpg,AMNE14.jpg,AMSA08.jpg,AMSA10.jpg,AMSA10.jpg,MS,2,num_4,16,num_4,0.7167813899,,,2017_Apr_13_1415,60.0041763784,FEMA4ImagesEEG,001,100192,
AFNE01.JPG,AFNE01.JPG,AFNE01.JPG,AFNE01.JPG,AFNE01.JPG,AFNE01.JPG,,,,,0,8,8,8,,,,,,,,,,,,,,,,,,,AMNE20.jpg,AMSA06.jpg,AMNE18.jpg,AMSA13.jpg,AMSA06.jpg,MS,2,num_6,32,num_4,0.950152239297,,,2017_Apr_13_1415,60.0041763784,FEMA4ImagesEEG,001,100192,
AFNE01.JPG,AFNE01.JPG,AFNE01.JPG,AFNE01.JPG,AFNE01.JPG,AFNE01.JPG,,,,,0,9,9,5,,,,,,,,,,,,,,,,,,,AMNE12.jpg,AMNE03.jpg,AMSA06.jpg,AMSA02.jpg,AMNE12.jpg,MN,1,num_8,32,num_6,0.783583451528,,,2017_Apr_13_1415,60.0041763784,FEMA4ImagesEEG,001,100192,
AFNE01.JPG,AFNE01.JPG,AFNE01.JPG,AFNE01.JPG,AFNE01.JPG,AFNE01.JPG,,,,,1,0,10,0,,,,,,,,,,,,,,,,,,,AMNE09.jpg,AMSA13.jpg,AMSA18.jpg,AMNE17.jpg,AMNE17.jpg,MN,1,num_4,32,num_8,1.16679234337,,,2017_Apr_13_1415,60.0041763784,FEMA4ImagesEEG,001,100192,
AFNE01.JPG,AFNE01.JPG,AFNE01.JPG,AFNE01.JPG,AFNE01.JPG,AFNE01.JPG,,,,,1,1,11,6,,,,,,,,,,,,,,,,,,,AMSA13.jpg,AMNE04.jpg,AMNE02.jpg,AMSA06.jpg,AMNE04.jpg,MN,1,num_6,32,num_2,0.73346402403,,,2017_Apr_13_1415,60.0041763784,FEMA4ImagesEEG,001,100192,
AFNE01.JPG,AFNE01.JPG,AFNE01.JPG,AFNE01.JPG,AFNE01.JPG,AFNE01.JPG,,,,,1,2,12,4,,,,,,,,,,,,,,,,,,,AMSA09.jpg,AMSA19.jpg,AMNE10.jpg,AMNE17.jpg,AMNE17.jpg,MN,1,num_4,32,num_8,1.26674445672,,,2017_Apr_13_1415,60.0041763784,FEMA4ImagesEEG,001,100192,
AFNE01.JPG,AFNE01.JPG,AFNE01.JPG,AFNE01.JPG,AFNE01.JPG,AFNE01.JPG,,,,,1,3,13,5,,,,,,,,,,,,,,,,,,,AMNE18.jpg,AMNE09.jpg,AMSA14.jpg,AMSA06.jpg,AMSA06.jpg,MS,2,num_4,16,num_4,1.21671387414,,,2017_Apr_13_1415,60.0041763784,FEMA4ImagesEEG,001,100192,
AFNE01.JPG,AFNE01.JPG,AFNE01.JPG,AFNE01.JPG,AFNE01.JPG,AFNE01.JPG,,,,,1,4,14,1,,,,,,,,,,,,,,,,,,,AMNE02.jpg,AMSA09.jpg,AMSA17.jpg,AMNE08.jpg,AMSA17.jpg,MS,2,num_2,16,num_2,1.08347956371,,,2017_Apr_13_1415,60.0041763784,FEMA4ImagesEEG,001,100192,
AFNE01.JPG,AFNE01.JPG,AFNE01.JPG,AFNE01.JPG,AFNE01.JPG,AFNE01.JPG,,,,,1,5,15,7,,,,,,,,,,,,,,,,,,,AMSA03.jpg,AMNE01.jpg,AMSA12.jpg,AMNE04.jpg,AMSA03.jpg,MS,2,num_8,32,num_4,0.866754784249,,,2017_Apr_13_1415,60.0041763784,FEMA4ImagesEEG,001,100192,
AFNE01.JPG,AFNE01.JPG,AFNE01.JPG,AFNE01.JPG,AFNE01.JPG,AFNE01.JPG,,,,,1,6,16,2,,,,,,,,,,,,,,,,,,,AMSA20.jpg,AMSA19.jpg,AMNE04.jpg,AMNE19.jpg,AMNE04.jpg,MN,1,num_2,32,num_8,1.11679479713,,,2017_Apr_13_1415,60.0041763784,FEMA4ImagesEEG,001,100192,
AFNE01.JPG,AFNE01.JPG,AFNE01.JPG,AFNE01.JPG,AFNE01.JPG,AFNE01.JPG,,,,,1,7,17,3,,,,,,,,,,,,,,,,,,,AMNE13.jpg,AMNE08.jpg,AMSA13.jpg,AMSA11.jpg,AMNE13.jpg,MN,1,num_8,32,num_6,1.03343198216,,,2017_Apr_13_1415,60.0041763784,FEMA4ImagesEEG,001,100192,
AFNE01.JPG,AFNE01.JPG,AFNE01.JPG,AFNE01.JPG,AFNE01.JPG,AFNE01.JPG,,,,,1,8,18,8,,,,,,,,,,,,,,,,,,,AMNE15.jpg,AMNE06.jpg,AMSA15.jpg,AMSA08.jpg,AMSA08.jpg,MS,2,num_4,16,num_4,0.833455909044,,,2017_Apr_13_1415,60.0041763784,FEMA4ImagesEEG,001,100192,
AFNE01.JPG,AFNE01.JPG,AFNE01.JPG,AFNE01.JPG,AFNE01.JPG,AFNE01.JPG,,,,,1,9,19,9,,,,,,,,,,,,,,,,,,,AMNE13.jpg,AMSA20.jpg,AMNE08.jpg,AMSA10.jpg,AMSA20.jpg,MS,2,num_6,16,num_6,0.683477703482,,,2017_Apr_13_1415,60.0041763784,FEMA4ImagesEEG,001,100192,
AFNE01.JPG,AFNE01.JPG,AFNE01.JPG,AFNE01.JPG,AFNE01.JPG,AFNE01.JPG,,,,,2,0,20,7,,,,,,,,,,,,,,,,,,,AMSA16.jpg,AMNE08.jpg,AMSA20.jpg,AMNE14.jpg,AMSA16.jpg,MS,2,num_8,16,num_8,1.31674521044,,,2017_Apr_13_1415,60.0041763784,FEMA4ImagesEEG,001,100192,
AFNE01.JPG,AFNE01.JPG,AFNE01.JPG,AFNE01.JPG,AFNE01.JPG,AFNE01.JPG,,,,,2,1,21,3,,,,,,,,,,,,,,,,,,,AMNE20.jpg,AMSA07.jpg,AMSA13.jpg,AMNE18.jpg,AMSA07.jpg,MS,2,num_6,32,num_4,1.00013310695,,,2017_Apr_13_1415,60.0041763784,FEMA4ImagesEEG,001,100192,
AFNE01.JPG,AFNE01.JPG,AFNE01.JPG,AFNE01.JPG,AFNE01.JPG,AFNE01.JPG,,,,,2,2,22,1,,,,,,,,,,,,,,,,,,,AMSA15.jpg,AMSA01.jpg,AMNE12.jpg,AMNE11.jpg,AMNE12.jpg,MN,1,num_2,32,num_8,1.25009582099,,,2017_Apr_13_1415,60.0041763784,FEMA4ImagesEEG,001,100192,
AFNE01.JPG,AFNE01.JPG,AFNE01.JPG,AFNE01.JPG,AFNE01.JPG,AFNE01.JPG,,,,,2,3,23,2,,,,,,,,,,,,,,,,,,,AMNE11.jpg,AMSA15.jpg,AMNE10.jpg,AMSA06.jpg,AMSA06.jpg,MS,2,num_4,16,num_4,0.750136073679,,,2017_Apr_13_1415,60.0041763784,FEMA4ImagesEEG,001,100192,
AFNE01.JPG,AFNE01.JPG,AFNE01.JPG,AFNE01.JPG,AFNE01.JPG,AFNE01.JPG,,,,,2,4,24,4,,,,,,,,,,,,,,,,,,,AMNE17.jpg,AMSA14.jpg,AMSA12.jpg,AMNE08.jpg,AMNE17.jpg,MN,1,num_8,16,num_8,0.917050618678,,,2017_Apr_13_1415,60.0041763784,FEMA4ImagesEEG,001,100192,
AFNE01.JPG,AFNE01.JPG,AFNE01.JPG,AFNE01.JPG,AFNE01.JPG,AFNE01.JPG,,,,,2,5,25,6,,,,,,,,,,,,,,,,,,,AMSA01.jpg,AMSA03.jpg,AMNE14.jpg,AMNE03.jpg,AMNE14.jpg,MN,1,num_2,16,num_2,1.06673791399,,,2017_Apr_13_1415,60.0041763784,FEMA4ImagesEEG,001,100192,
AFNE01.JPG,AFNE01.JPG,AFNE01.JPG,AFNE01.JPG,AFNE01.JPG,AFNE01.JPG,,,,,2,6,26,9,,,,,,,,,,,,,,,,,,,AMNE01.jpg,AMSA11.jpg,AMSA09.jpg,AMNE12.jpg,AMNE01.jpg,MN,1,num_8,32,num_6,1.08348373324,,,2017_Apr_13_1415,60.0041763784,FEMA4ImagesEEG,001,100192,
AFNE01.JPG,AFNE01.JPG,AFNE01.JPG,AFNE01.JPG,AFNE01.JPG,AFNE01.JPG,,,,,2,7,27,5,,,,,,,,,,,,,,,,,,,AMNE05.jpg,AMSA16.jpg,AMSA06.jpg,AMNE06.jpg,AMNE05.jpg,MN,1,num_8,32,num_2,1.85008979123,,,2017_Apr_13_1415,60.0041763784,FEMA4ImagesEEG,001,100192,
AFNE01.JPG,AFNE01.JPG,AFNE01.JPG,AFNE01.JPG,AFNE01.JPG,AFNE01.JPG,,,,,2,8,28,0,,,,,,,,,,,,,,,,,,,AMNE04.jpg,AMNE15.jpg,AMSA14.jpg,AMSA03.jpg,AMNE15.jpg,MN,1,num_6,32,num_8,1.08345262147,,,2017_Apr_13_1415,60.0041763784,FEMA4ImagesEEG,001,100192,
AFNE01.JPG,AFNE01.JPG,AFNE01.JPG,AFNE01.JPG,AFNE01.JPG,AFNE01.JPG,,,,,2,9,29,8,,,,,,,,,,,,,,,,,,,AMSA08.jpg,AMNE10.jpg,AMNE04.jpg,AMSA13.jpg,AMSA13.jpg,MS,2,num_4,32,num_8,1.25013944134,,,2017_Apr_13_1415,60.0041763784,FEMA4ImagesEEG,001,100192,
AFNE01.JPG,AFNE01.JPG,AFNE01.JPG,AFNE01.JPG,AFNE01.JPG,AFNE01.JPG,,,,,3,0,30,6,,,,,,,,,,,,,,,,,,,AMNE09.jpg,AMSA13.jpg,AMSA15.jpg,AMNE08.jpg,AMSA15.jpg,MS,2,num_2,16,num_2,0.766684638802,,,2017_Apr_13_1415,60.0041763784,FEMA4ImagesEEG,001,100192,
AFNE01.JPG,AFNE01.JPG,AFNE01.JPG,AFNE01.JPG,AFNE01.JPG,AFNE01.JPG,,,,,3,1,31,3,,,,,,,,,,,,,,,,,,,AMNE05.jpg,AMNE20.jpg,AMSA01.jpg,AMSA12.jpg,AMNE05.jpg,MN,1,num_8,16,num_8,0.733465306927,,,2017_Apr_13_1415,60.0041763784,FEMA4ImagesEEG,001,100192,
AFNE01.JPG,AFNE01.JPG,AFNE01.JPG,AFNE01.JPG,AFNE01.JPG,AFNE01.JPG,,,,,3,2,32,0,,,,,,,,,,,,,,,,,,,AMNE10.jpg,AMSA03.jpg,AMSA19.jpg,AMNE07.jpg,AMNE10.jpg,MN,1,num_8,32,num_4,1.33343105204,,,2017_Apr_13_1415,60.0041763784,FEMA4ImagesEEG,001,100192,
AFNE01.JPG,AFNE01.JPG,AFNE01.JPG,AFNE01.JPG,AFNE01.JPG,AFNE01.JPG,,,,,3,3,33,9,,,,,,,,,,,,,,,,,,,AMSA19.jpg,AMNE11.jpg,AMNE10.jpg,AMSA14.jpg,AMSA14.jpg,MS,2,num_4,32,num_8,1.13346973341,,,2017_Apr_13_1415,60.0041763784,FEMA4ImagesEEG,001,100192,
AFNE01.JPG,AFNE01.JPG,AFNE01.JPG,AFNE01.JPG,AFNE01.JPG,AFNE01.JPG,,,,,3,4,34,8,,,,,,,,,,,,,,,,,,,AMSA01.jpg,AMSA19.jpg,AMNE15.jpg,AMNE02.jpg,AMNE02.jpg,MN,1,num_4,32,num_2,1.1000040737,,,2017_Apr_13_1415,60.0041763784,FEMA4ImagesEEG,001,100192,
AFNE01.JPG,AFNE01.JPG,AFNE01.JPG,AFNE01.JPG,AFNE01.JPG,AFNE01.JPG,,,,,3,5,35,1,,,,,,,,,,,,,,,,,,,AMNE15.jpg,AMSA04.jpg,AMNE12.jpg,AMSA08.jpg,AMSA08.jpg,MS,2,num_4,16,num_4,0.933487887494,,,2017_Apr_13_1415,60.0041763784,FEMA4ImagesEEG,001,100192,
AFNE01.JPG,AFNE01.JPG,AFNE01.JPG,AFNE01.JPG,AFNE01.JPG,AFNE01.JPG,,,,,3,6,36,4,,,,,,,,,,,,,,,,,,,AMNE18.jpg,AMNE19.jpg,AMSA04.jpg,AMSA15.jpg,AMSA15.jpg,MS,2,num_4,32,num_6,0.88347462425,,,2017_Apr_13_1415,60.0041763784,FEMA4ImagesEEG,001,100192,
AFNE01.JPG,AFNE01.JPG,AFNE01.JPG,AFNE01.JPG,AFNE01.JPG,AFNE01.JPG,,,,,3,7,37,5,,,,,,,,,,,,,,,,,,,AMNE13.jpg,AMSA14.jpg,AMNE16.jpg,AMSA09.jpg,AMNE16.jpg,MN,1,num_2,32,num_8,1.08344556531,,,2017_Apr_13_1415,60.0041763784,FEMA4ImagesEEG,001,100192,
AFNE01.JPG,AFNE01.JPG,AFNE01.JPG,AFNE01.JPG,AFNE01.JPG,AFNE01.JPG,,,,,3,8,38,7,,,,,,,,,,,,,,,,,,,AMSA12.jpg,AMSA14.jpg,AMNE08.jpg,AMNE17.jpg,AMSA12.jpg,MS,2,num_8,32,num_6,1.26676402194,,,2017_Apr_13_1415,60.0041763784,FEMA4ImagesEEG,001,100192,
AFNE01.JPG,AFNE01.JPG,AFNE01.JPG,AFNE01.JPG,AFNE01.JPG,AFNE01.JPG,,,,,3,9,39,2,,,,,,,,,,,,,,,,,,,AMNE15.jpg,AMNE04.jpg,AMSA06.jpg,AMSA01.jpg,AMSA01.jpg,MS,2,num_4,32,num_8,1.03344866028,,,2017_Apr_13_1415,60.0041763784,FEMA4ImagesEEG,001,100192,
AFNE01.JPG,AFNE01.JPG,AFNE01.JPG,AFNE01.JPG,AFNE01.JPG,AFNE01.JPG,,,,,4,0,40,4,,,,,,,,,,,,,,,,,,,AMNE06.jpg,AMNE08.jpg,AMSA11.jpg,AMSA05.jpg,AMNE06.jpg,MN,1,num_8,32,num_6,0.950209009927,,,2017_Apr_13_1415,60.0041763784,FEMA4ImagesEEG,001,100192,
AFNE01.JPG,AFNE01.JPG,AFNE01.JPG,AFNE01.JPG,AFNE01.JPG,AFNE01.JPG,,,,,4,1,41,9,,,,,,,,,,,,,,,,,,,AMNE04.jpg,AMNE01.jpg,AMSA14.jpg,AMSA09.jpg,AMNE04.jpg,MN,1,num_8,32,num_4,1.16678817337,,,2017_Apr_13_1415,60.0041763784,FEMA4ImagesEEG,001,100192,
AFNE01.JPG,AFNE01.JPG,AFNE01.JPG,AFNE01.JPG,AFNE01.JPG,AFNE01.JPG,,,,,4,2,42,1,,,,,,,,,,,,,,,,,,,AMNE13.jpg,AMNE14.jpg,AMSA04.jpg,AMSA10.jpg,AMSA10.jpg,MS,2,num_4,32,num_6,1.15007923869,,,2017_Apr_13_1415,60.0041763784,FEMA4ImagesEEG,001,100192,
AFNE01.JPG,AFNE01.JPG,AFNE01.JPG,AFNE01.JPG,AFNE01.JPG,AFNE01.JPG,,,,,4,3,43,3,,,,,,,,,,,,,,,,,,,AMSA12.jpg,AMNE14.jpg,AMSA18.jpg,AMNE18.jpg,AMNE14.jpg,MN,1,num_6,32,num_8,2.53337665461,,,2017_Apr_13_1415,60.0041763784,FEMA4ImagesEEG,001,100192,
AFNE01.JPG,AFNE01.JPG,AFNE01.JPG,AFNE01.JPG,AFNE01.JPG,AFNE01.JPG,,,,,4,4,44,2,,,,,,,,,,,,,,,,,,,AMNE16.jpg,AMSA10.jpg,AMSA04.jpg,AMNE17.jpg,AMNE17.jpg,MN,1,num_4,32,num_2,1.08346577175,,,2017_Apr_13_1415,60.0041763784,FEMA4ImagesEEG,001,100192,
AFNE01.JPG,AFNE01.JPG,AFNE01.JPG,AFNE01.JPG,AFNE01.JPG,AFNE01.JPG,,,,,4,5,45,7,,,,,,,,,,,,,,,,,,,AMSA11.jpg,AMNE11.jpg,AMNE08.jpg,AMSA20.jpg,AMSA11.jpg,MS,2,num_8,16,num_8,0.78341217665,,,2017_Apr_13_1415,60.0041763784,FEMA4ImagesEEG,001,100192,
AFNE01.JPG,AFNE01.JPG,AFNE01.JPG,AFNE01.JPG,AFNE01.JPG,AFNE01.JPG,,,,,4,6,46,8,,,,,,,,,,,,,,,,,,,AMNE16.jpg,AMSA10.jpg,AMSA08.jpg,AMNE13.jpg,AMSA08.jpg,MS,2,num_2,32,num_6,1.43344923807,,,2017_Apr_13_1415,60.0041763784,FEMA4ImagesEEG,001,100192,
AFNE01.JPG,AFNE01.JPG,AFNE01.JPG,AFNE01.JPG,AFNE01.JPG,AFNE01.JPG,,,,,4,7,47,6,,,,,,,,,,,,,,,,,,,AMNE20.jpg,AMSA01.jpg,AMNE08.jpg,AMSA12.jpg,AMSA01.jpg,MS,2,num_6,32,num_2,1.68326056283,,,2017_Apr_13_1415,60.0041763784,FEMA4ImagesEEG,001,100192,
AFNE01.JPG,AFNE01.JPG,AFNE01.JPG,AFNE01.JPG,AFNE01.JPG,AFNE01.JPG,,,,,4,8,48,5,,,,,,,,,,,,,,,,,,,AMNE14.jpg,AMNE03.jpg,AMSA07.jpg,AMSA13.jpg,AMSA13.jpg,MS,2,num_4,32,num_6,0.783474078868,,,2017_Apr_13_1415,60.0041763784,FEMA4ImagesEEG,001,100192,
AFNE01.JPG,AFNE01.JPG,AFNE01.JPG,AFNE01.JPG,AFNE01.JPG,AFNE01.JPG,,,,,4,9,49,0,,,,,,,,,,,,,,,,,,,AMNE10.jpg,AMSA14.jpg,AMNE07.jpg,AMSA05.jpg,AMNE07.jpg,MN,1,num_2,16,num_2,0.700149111915,,,2017_Apr_13_1415,60.0041763784,FEMA4ImagesEEG,001,100192,
AFNE01.JPG,AFNE01.JPG,AFNE01.JPG,AFNE01.JPG,AFNE01.JPG,AFNE01.JPG,,,,,5,0,50,7,,,,,,,,,,,,,,,,,,,AMNE17.jpg,AMSA07.jpg,AMSA03.jpg,AMNE07.jpg,AMNE07.jpg,MN,1,num_4,16,num_4,1.11670146137,,,2017_Apr_13_1415,60.0041763784,FEMA4ImagesEEG,001,100192,
AFNE01.JPG,AFNE01.JPG,AFNE01.JPG,AFNE01.JPG,AFNE01.JPG,AFNE01.JPG,,,,,5,1,51,8,,,,,,,,,,,,,,,,,,,AMSA19.jpg,AMNE11.jpg,AMSA12.jpg,AMNE01.jpg,AMNE11.jpg,MN,1,num_6,16,num_6,0.966728067026,,,2017_Apr_13_1415,60.0041763784,FEMA4ImagesEEG,001,100192,
AFNE01.JPG,AFNE01.JPG,AFNE01.JPG,AFNE01.JPG,AFNE01.JPG,AFNE01.JPG,,,,,5,2,52,5,,,,,,,,,,,,,,,,,,,AMSA14.jpg,AMNE15.jpg,AMNE04.jpg,AMSA04.jpg,AMNE15.jpg,MN,1,num_6,16,num_6,0.81680759415,,,2017_Apr_13_1415,60.0041763784,FEMA4ImagesEEG,001,100192,
AFNE01.JPG,AFNE01.JPG,AFNE01.JPG,AFNE01.JPG,AFNE01.JPG,AFNE01.JPG,,,,,5,3,53,3,,,,,,,,,,,,,,,,,,,AMNE12.jpg,AMSA11.jpg,AMNE18.jpg,AMSA03.jpg,AMNE18.jpg,MN,1,num_2,16,num_2,1.00015042676,,,2017_Apr_13_1415,60.0041763784,FEMA4ImagesEEG,001,100192,
AFNE01.JPG,AFNE01.JPG,AFNE01.JPG,AFNE01.JPG,AFNE01.JPG,AFNE01.JPG,,,,,5,4,54,4,,,,,,,,,,,,,,,,,,,AMNE05.jpg,AMNE14.jpg,AMSA13.jpg,AMSA08.jpg,AMSA08.jpg,MS,2,num_4,16,num_4,1.0334948469,,,2017_Apr_13_1415,60.0041763784,FEMA4ImagesEEG,001,100192,
AFNE01.JPG,AFNE01.JPG,AFNE01.JPG,AFNE01.JPG,AFNE01.JPG,AFNE01.JPG,,,,,5,5,55,9,,,,,,,,,,,,,,,,,,,AMSA20.jpg,AMNE04.jpg,AMSA07.jpg,AMNE17.jpg,AMNE17.jpg,MN,1,num_4,32,num_6,1.25008042576,,,2017_Apr_13_1415,60.0041763784,FEMA4ImagesEEG,001,100192,
AFNE01.JPG,AFNE01.JPG,AFNE01.JPG,AFNE01.JPG,AFNE01.JPG,AFNE01.JPG,,,,,5,6,56,2,,,,,,,,,,,,,,,,,,,AMSA08.jpg,AMSA07.jpg,AMNE13.jpg,AMNE14.jpg,AMNE14.jpg,MN,1,num_4,32,num_8,0.883474624716,,,2017_Apr_13_1415,60.0041763784,FEMA4ImagesEEG,001,100192,
AFNE01.JPG,AFNE01.JPG,AFNE01.JPG,AFNE01.JPG,AFNE01.JPG,AFNE01.JPG,,,,,5,7,57,0,,,,,,,,,,,,,,,,,,,AMSA10.jpg,AMNE09.jpg,AMSA08.jpg,AMNE11.jpg,AMNE09.jpg,MN,1,num_6,32,num_4,0.750164298806,,,2017_Apr_13_1415,60.0041763784,FEMA4ImagesEEG,001,100192,
AFNE01.JPG,AFNE01.JPG,AFNE01.JPG,AFNE01.JPG,AFNE01.JPG,AFNE01.JPG,,,,,5,8,58,6,,,,,,,,,,,,,,,,,,,AMNE17.jpg,AMSA09.jpg,AMNE14.jpg,AMSA02.jpg,AMSA09.jpg,MS,2,num_6,32,num_8,0.983525525779,,,2017_Apr_13_1415,60.0041763784,FEMA4ImagesEEG,001,100192,
AFNE01.JPG,AFNE01.JPG,AFNE01.JPG,AFNE01.JPG,AFNE01.JPG,AFNE01.JPG,,,,,5,9,59,1,,,,,,,,,,,,,,,,,,,AMSA17.jpg,AMNE20.jpg,AMNE02.jpg,AMSA18.jpg,AMNE02.jpg,MN,1,num_2,16,num_2,0.93349847151,,,2017_Apr_13_1415,60.0041763784,FEMA4ImagesEEG,001,100192,
,,,,,,,,,,,,,,,,,,,,,,,,,,,,,,,,,,,,,,,,,,,space,15.1989981374,2017_Apr_13_1415,60.0041763784,FEMA4ImagesEEG,001,100192,
AFNE01.JPG,AFNE01.JPG,AFNE01.JPG,AFNE01.JPG,AFNE01.JPG,AFNE01.JPG,,,,,,,,,0,0,0,1,,,,,,,,,,,,,,,AFNE06.jpg,AFNE14.jpg,AFSA20.jpg,AFSA01.jpg,AFNE06.jpg,FN,3,num_8,32,num_4,0.80015799636,,,2017_Apr_13_1415,60.0041763784,FEMA4ImagesEEG,001,100192,
AFNE01.JPG,AFNE01.JPG,AFNE01.JPG,AFNE01.JPG,AFNE01.JPG,AFNE01.JPG,,,,,,,,,0,1,1,0,,,,,,,,,,,,,,,AFNE09.jpg,AFNE11.jpg,AFSA19.jpg,AFSA01.jpg,AFNE09.jpg,FN,3,num_8,32,num_4,0.733185301069,,,2017_Apr_13_1415,60.0041763784,FEMA4ImagesEEG,001,100192,
AFNE01.JPG,AFNE01.JPG,AFNE01.JPG,AFNE01.JPG,AFNE01.JPG,AFNE01.JPG,,,,,,,,,0,2,2,9,,,,,,,,,,,,,,,AFSA11.jpg,AFSA08.jpg,AFNE04.jpg,AFNE02.jpg,AFSA11.jpg,FS,4,num_8,32,num_6,1.53350719577,,,2017_Apr_13_1415,60.0041763784,FEMA4ImagesEEG,001,100192,
AFNE01.JPG,AFNE01.JPG,AFNE01.JPG,AFNE01.JPG,AFNE01.JPG,AFNE01.JPG,,,,,,,,,0,3,3,6,,,,,,,,,,,,,,,AFSA15.jpg,AFSA19.jpg,AFNE18.jpg,AFNE13.jpg,AFNE13.jpg,FN,3,num_4,32,num_8,0.633440385573,,,2017_Apr_13_1415,60.0041763784,FEMA4ImagesEEG,001,100192,
AFNE01.JPG,AFNE01.JPG,AFNE01.JPG,AFNE01.JPG,AFNE01.JPG,AFNE01.JPG,,,,,,,,,0,4,4,2,,,,,,,,,,,,,,,AFNE17.jpg,AFSA04.jpg,AFSA15.jpg,AFNE19.jpg,AFSA04.jpg,FS,4,num_6,32,num_8,1.0670413333,,,2017_Apr_13_1415,60.0041763784,FEMA4ImagesEEG,001,100192,
AFNE01.JPG,AFNE01.JPG,AFNE01.JPG,AFNE01.JPG,AFNE01.JPG,AFNE01.JPG,,,,,,,,,0,5,5,7,,,,,,,,,,,,,,,AFNE17.jpg,AFSA04.jpg,AFSA14.jpg,AFNE04.jpg,AFSA04.jpg,FS,4,num_6,32,num_8,1.08346673427,,,2017_Apr_13_1415,60.0041763784,FEMA4ImagesEEG,001,100192,
AFNE01.JPG,AFNE01.JPG,AFNE01.JPG,AFNE01.JPG,AFNE01.JPG,AFNE01.JPG,,,,,,,,,0,6,6,8,,,,,,,,,,,,,,,AFSA10.jpg,AFNE05.jpg,AFSA01.jpg,AFNE17.jpg,AFNE17.jpg,FN,3,num_4,16,num_4,0.650165357161,,,2017_Apr_13_1415,60.0041763784,FEMA4ImagesEEG,001,100192,
AFNE01.JPG,AFNE01.JPG,AFNE01.JPG,AFNE01.JPG,AFNE01.JPG,AFNE01.JPG,,,,,,,,,0,7,7,4,,,,,,,,,,,,,,,AFSA03.jpg,AFNE04.jpg,AFNE20.jpg,AFSA18.jpg,AFNE20.jpg,FN,3,num_2,32,num_8,0.800003400072,,,2017_Apr_13_1415,60.0041763784,FEMA4ImagesEEG,001,100192,
AFNE01.JPG,AFNE01.JPG,AFNE01.JPG,AFNE01.JPG,AFNE01.JPG,AFNE01.JPG,,,,,,,,,0,8,8,3,,,,,,,,,,,,,,,AFSA18.jpg,AFNE19.jpg,AFSA20.jpg,AFNE01.jpg,AFNE19.jpg,FN,3,num_6,32,num_4,0.633511910215,,,2017_Apr_13_1415,60.0041763784,FEMA4ImagesEEG,001,100192,
AFNE01.JPG,AFNE01.JPG,AFNE01.JPG,AFNE01.JPG,AFNE01.JPG,AFNE01.JPG,,,,,,,,,0,9,9,5,,,,,,,,,,,,,,,AFSA03.jpg,AFNE03.jpg,AFSA11.jpg,AFNE11.jpg,AFNE03.jpg,FN,3,num_6,32,num_8,0.583544834517,,,2017_Apr_13_1415,60.0041763784,FEMA4ImagesEEG,001,100192,
AFNE01.JPG,AFNE01.JPG,AFNE01.JPG,AFNE01.JPG,AFNE01.JPG,AFNE01.JPG,,,,,,,,,1,0,10,3,,,,,,,,,,,,,,,AFNE13.jpg,AFSA04.jpg,AFNE17.jpg,AFSA14.jpg,AFSA14.jpg,FS,4,num_4,16,num_4,0.750177449081,,,2017_Apr_13_1415,60.0041763784,FEMA4ImagesEEG,001,100192,
AFNE01.JPG,AFNE01.JPG,AFNE01.JPG,AFNE01.JPG,AFNE01.JPG,AFNE01.JPG,,,,,,,,,1,1,11,0,,,,,,,,,,,,,,,AFSA10.jpg,AFNE18.jpg,AFSA20.jpg,AFNE06.jpg,AFNE06.jpg,FN,3,num_4,32,num_8,1.63339836849,,,2017_Apr_13_1415,60.0041763784,FEMA4ImagesEEG,001,100192,
AFNE01.JPG,AFNE01.JPG,AFNE01.JPG,AFNE01.JPG,AFNE01.JPG,AFNE01.JPG,,,,,,,,,1,2,12,4,,,,,,,,,,,,,,,AFNE04.jpg,AFSA18.jpg,AFNE06.jpg,AFSA07.jpg,AFSA07.jpg,FS,4,num_4,32,num_6,1.34978685249,,,2017_Apr_13_1415,60.0041763784,FEMA4ImagesEEG,001,100192,
AFNE01.JPG,AFNE01.JPG,AFNE01.JPG,AFNE01.JPG,AFNE01.JPG,AFNE01.JPG,,,,,,,,,1,3,13,7,,,,,,,,,,,,,,,AFNE12.jpg,AFSA20.jpg,AFNE09.jpg,AFSA05.jpg,AFSA05.jpg,FS,4,num_4,16,num_4,0.816811443307,,,2017_Apr_13_1415,60.0041763784,FEMA4ImagesEEG,001,100192,
AFNE01.JPG,AFNE01.JPG,AFNE01.JPG,AFNE01.JPG,AFNE01.JPG,AFNE01.JPG,,,,,,,,,1,4,14,2,,,,,,,,,,,,,,,AFNE12.jpg,AFNE08.jpg,AFSA09.jpg,AFSA05.jpg,AFSA05.jpg,FS,4,num_4,16,num_4,0.683530305047,,,2017_Apr_13_1415,60.0041763784,FEMA4ImagesEEG,001,100192,
AFNE01.JPG,AFNE01.JPG,AFNE01.JPG,AFNE01.JPG,AFNE01.JPG,AFNE01.JPG,,,,,,,,,1,5,15,9,,,,,,,,,,,,,,,AFSA02.jpg,AFSA12.jpg,AFNE08.jpg,AFNE15.jpg,AFNE08.jpg,FN,3,num_2,32,num_8,1.01676666783,,,2017_Apr_13_1415,60.0041763784,FEMA4ImagesEEG,001,100192,
AFNE01.JPG,AFNE01.JPG,AFNE01.JPG,AFNE01.JPG,AFNE01.JPG,AFNE01.JPG,,,,,,,,,1,6,16,1,,,,,,,,,,,,,,,AFNE14.jpg,AFNE17.jpg,AFSA02.jpg,AFSA01.jpg,AFSA01.jpg,FS,4,num_4,32,num_6,1.5334045589,,,2017_Apr_13_1415,60.0041763784,FEMA4ImagesEEG,001,100192,
AFNE01.JPG,AFNE01.JPG,AFNE01.JPG,AFNE01.JPG,AFNE01.JPG,AFNE01.JPG,,,,,,,,,1,7,17,5,,,,,,,,,,,,,,,AFNE17.jpg,AFNE16.jpg,AFSA14.jpg,AFSA04.jpg,AFSA14.jpg,FS,4,num_2,32,num_4,1.36672992725,,,2017_Apr_13_1415,60.0041763784,FEMA4ImagesEEG,001,100192,
AFNE01.JPG,AFNE01.JPG,AFNE01.JPG,AFNE01.JPG,AFNE01.JPG,AFNE01.JPG,,,,,,,,,1,8,18,8,,,,,,,,,,,,,,,AFNE01.jpg,AFSA10.jpg,AFNE15.jpg,AFSA06.jpg,AFNE01.jpg,FN,3,num_8,32,num_6,1.0000926936,,,2017_Apr_13_1415,60.0041763784,FEMA4ImagesEEG,001,100192,
AFNE01.JPG,AFNE01.JPG,AFNE01.JPG,AFNE01.JPG,AFNE01.JPG,AFNE01.JPG,,,,,,,,,1,9,19,6,,,,,,,,,,,,,,,AFNE17.jpg,AFNE18.jpg,AFSA10.jpg,AFSA05.jpg,AFNE17.jpg,FN,3,num_8,32,num_2,0.816746974364,,,2017_Apr_13_1415,60.0041763784,FEMA4ImagesEEG,001,100192,
AFNE01.JPG,AFNE01.JPG,AFNE01.JPG,AFNE01.JPG,AFNE01.JPG,AFNE01.JPG,,,,,,,,,2,0,20,6,,,,,,,,,,,,,,,AFNE20.jpg,AFSA15.jpg,AFNE03.jpg,AFSA09.jpg,AFSA09.jpg,FS,4,num_4,16,num_4,0.583491912577,,,2017_Apr_13_1415,60.0041763784,FEMA4ImagesEEG,001,100192,
AFNE01.JPG,AFNE01.JPG,AFNE01.JPG,AFNE01.JPG,AFNE01.JPG,AFNE01.JPG,,,,,,,,,2,1,21,9,,,,,,,,,,,,,,,AFNE03.jpg,AFSA10.jpg,AFSA05.jpg,AFNE14.jpg,AFNE14.jpg,FN,3,num_4,32,num_6,1.56667136028,,,2017_Apr_13_1415,60.0041763784,FEMA4ImagesEEG,001,100192,
AFNE01.JPG,AFNE01.JPG,AFNE01.JPG,AFNE01.JPG,AFNE01.JPG,AFNE01.JPG,,,,,,,,,2,2,22,4,,,,,,,,,,,,,,,AFSA20.jpg,AFSA17.jpg,AFNE20.jpg,AFNE13.jpg,AFSA17.jpg,FS,4,num_6,16,num_6,0.850179598201,,,2017_Apr_13_1415,60.0041763784,FEMA4ImagesEEG,001,100192,
AFNE01.JPG,AFNE01.JPG,AFNE01.JPG,AFNE01.JPG,AFNE01.JPG,AFNE01.JPG,,,,,,,,,2,3,23,2,,,,,,,,,,,,,,,AFSA05.jpg,AFNE03.jpg,AFSA10.jpg,AFNE01.jpg,AFSA05.jpg,FS,4,num_8,16,num_8,1.0330451699,,,2017_Apr_13_1415,60.0041763784,FEMA4ImagesEEG,001,100192,
AFNE01.JPG,AFNE01.JPG,AFNE01.JPG,AFNE01.JPG,AFNE01.JPG,AFNE01.JPG,,,,,,,,,2,4,24,0,,,,,,,,,,,,,,,AFSA02.jpg,AFNE01.jpg,AFNE06.jpg,AFSA16.jpg,AFSA02.jpg,FS,4,num_8,32,num_6,0.616813880857,,,2017_Apr_13_1415,60.0041763784,FEMA4ImagesEEG,001,100192,
AFNE01.JPG,AFNE01.JPG,AFNE01.JPG,AFNE01.JPG,AFNE01.JPG,AFNE01.JPG,,,,,,,,,2,5,25,5,,,,,,,,,,,,,,,AFSA06.jpg,AFNE14.jpg,AFSA15.jpg,AFNE20.jpg,AFNE14.jpg,FN,3,num_6,32,num_8,0.90014346689,,,2017_Apr_13_1415,60.0041763784,FEMA4ImagesEEG,001,100192,
AFNE01.JPG,AFNE01.JPG,AFNE01.JPG,AFNE01.JPG,AFNE01.JPG,AFNE01.JPG,,,,,,,,,2,6,26,1,,,,,,,,,,,,,,,AFSA03.jpg,AFNE13.jpg,AFSA16.jpg,AFNE07.jpg,AFNE13.jpg,FN,3,num_6,16,num_6,0.68347321311,,,2017_Apr_13_1415,60.0041763784,FEMA4ImagesEEG,001,100192,
AFNE01.JPG,AFNE01.JPG,AFNE01.JPG,AFNE01.JPG,AFNE01.JPG,AFNE01.JPG,,,,,,,,,2,7,27,7,,,,,,,,,,,,,,,AFSA06.jpg,AFSA11.jpg,AFNE11.jpg,AFNE20.jpg,AFSA11.jpg,FS,4,num_6,16,num_6,0.683466798626,,,2017_Apr_13_1415,60.0041763784,FEMA4ImagesEEG,001,100192,
AFNE01.JPG,AFNE01.JPG,AFNE01.JPG,AFNE01.JPG,AFNE01.JPG,AFNE01.JPG,,,,,,,,,2,8,28,3,,,,,,,,,,,,,,,AFNE17.jpg,AFSA19.jpg,AFSA08.jpg,AFNE02.jpg,AFNE17.jpg,FN,3,num_8,16,num_8,1.21675557038,,,2017_Apr_13_1415,60.0041763784,FEMA4ImagesEEG,001,100192,
AFNE01.JPG,AFNE01.JPG,AFNE01.JPG,AFNE01.JPG,AFNE01.JPG,AFNE01.JPG,,,,,,,,,2,9,29,8,,,,,,,,,,,,,,,AFNE05.jpg,AFSA05.jpg,AFNE03.jpg,AFSA09.jpg,AFNE03.jpg,FN,3,num_2,16,num_2,0.716746108606,,,2017_Apr_13_1415,60.0041763784,FEMA4ImagesEEG,001,100192,
AFNE01.JPG,AFNE01.JPG,AFNE01.JPG,AFNE01.JPG,AFNE01.JPG,AFNE01.JPG,,,,,,,,,3,0,30,4,,,,,,,,,,,,,,,AFNE14.jpg,AFSA12.jpg,AFSA07.jpg,AFNE06.jpg,AFSA12.jpg,FS,4,num_6,16,num_6,1.33340795897,,,2017_Apr_13_1415,60.0041763784,FEMA4ImagesEEG,001,100192,
AFNE01.JPG,AFNE01.JPG,AFNE01.JPG,AFNE01.JPG,AFNE01.JPG,AFNE01.JPG,,,,,,,,,3,1,31,7,,,,,,,,,,,,,,,AFNE09.jpg,AFSA11.jpg,AFSA06.jpg,AFNE18.jpg,AFSA06.jpg,FS,4,num_2,32,num_8,0.900135127828,,,2017_Apr_13_1415,60.0041763784,FEMA4ImagesEEG,001,100192,
AFNE01.JPG,AFNE01.JPG,AFNE01.JPG,AFNE01.JPG,AFNE01.JPG,AFNE01.JPG,,,,,,,,,3,2,32,5,,,,,,,,,,,,,,,AFSA12.jpg,AFSA11.jpg,AFNE17.jpg,AFNE14.jpg,AFNE17.jpg,FN,3,num_2,32,num_4,0.800019757822,,,2017_Apr_13_1415,60.0041763784,FEMA4ImagesEEG,001,100192,
AFNE01.JPG,AFNE01.JPG,AFNE01.JPG,AFNE01.JPG,AFNE01.JPG,AFNE01.JPG,,,,,,,,,3,3,33,8,,,,,,,,,,,,,,,AFSA02.jpg,AFSA01.jpg,AFNE02.jpg,AFNE17.jpg,AFNE02.jpg,FN,3,num_2,32,num_8,0.733781556133,,,2017_Apr_13_1415,60.0041763784,FEMA4ImagesEEG,001,100192,
AFNE01.JPG,AFNE01.JPG,AFNE01.JPG,AFNE01.JPG,AFNE01.JPG,AFNE01.JPG,,,,,,,,,3,4,34,9,,,,,,,,,,,,,,,AFSA15.jpg,AFNE05.jpg,AFNE12.jpg,AFSA08.jpg,AFNE12.jpg,FN,3,num_2,32,num_6,0.966744424775,,,2017_Apr_13_1415,60.0041763784,FEMA4ImagesEEG,001,100192,
AFNE01.JPG,AFNE01.JPG,AFNE01.JPG,AFNE01.JPG,AFNE01.JPG,AFNE01.JPG,,,,,,,,,3,5,35,3,,,,,,,,,,,,,,,AFSA07.jpg,AFNE01.jpg,AFSA10.jpg,AFNE11.jpg,AFSA10.jpg,FS,4,num_2,32,num_8,1.55011670152,,,2017_Apr_13_1415,60.0041763784,FEMA4ImagesEEG,001,100192,
AFNE01.JPG,AFNE01.JPG,AFNE01.JPG,AFNE01.JPG,AFNE01.JPG,AFNE01.JPG,,,,,,,,,3,6,36,6,,,,,,,,,,,,,,,AFNE10.jpg,AFNE20.jpg,AFSA18.jpg,AFSA06.jpg,AFNE20.jpg,FN,3,num_6,16,num_6,1.11676945817,,,2017_Apr_13_1415,60.0041763784,FEMA4ImagesEEG,001,100192,
AFNE01.JPG,AFNE01.JPG,AFNE01.JPG,AFNE01.JPG,AFNE01.JPG,AFNE01.JPG,,,,,,,,,3,7,37,2,,,,,,,,,,,,,,,AFNE15.jpg,AFSA09.jpg,AFSA18.jpg,AFNE08.jpg,AFSA18.jpg,FS,4,num_2,32,num_8,0.7167813899,,,2017_Apr_13_1415,60.0041763784,FEMA4ImagesEEG,001,100192,
AFNE01.JPG,AFNE01.JPG,AFNE01.JPG,AFNE01.JPG,AFNE01.JPG,AFNE01.JPG,,,,,,,,,3,8,38,1,,,,,,,,,,,,,,,AFNE06.jpg,AFNE17.jpg,AFSA09.jpg,AFSA08.jpg,AFNE06.jpg,FN,3,num_8,32,num_4,1.23347957991,,,2017_Apr_13_1415,60.0041763784,FEMA4ImagesEEG,001,100192,
AFNE01.JPG,AFNE01.JPG,AFNE01.JPG,AFNE01.JPG,AFNE01.JPG,AFNE01.JPG,,,,,,,,,3,9,39,0,,,,,,,,,,,,,,,AFNE02.jpg,AFSA12.jpg,AFNE12.jpg,AFSA07.jpg,AFNE02.jpg,FN,3,num_8,32,num_2,1.08342600055,,,2017_Apr_13_1415,60.0041763784,FEMA4ImagesEEG,001,100192,
AFNE01.JPG,AFNE01.JPG,AFNE01.JPG,AFNE01.JPG,AFNE01.JPG,AFNE01.JPG,,,,,,,,,4,0,40,7,,,,,,,,,,,,,,,AFSA14.jpg,AFSA18.jpg,AFNE07.jpg,AFNE04.jpg,AFSA18.jpg,FS,4,num_6,16,num_6,1.46671956731,,,2017_Apr_13_1415,60.0041763784,FEMA4ImagesEEG,001,100192,
AFNE01.JPG,AFNE01.JPG,AFNE01.JPG,AFNE01.JPG,AFNE01.JPG,AFNE01.JPG,,,,,,,,,4,1,41,8,,,,,,,,,,,,,,,AFSA15.jpg,AFSA09.jpg,AFNE14.jpg,AFNE15.jpg,AFNE15.jpg,FN,3,num_4,32,num_8,0.750179373659,,,2017_Apr_13_1415,60.0041763784,FEMA4ImagesEEG,001,100192,
AFNE01.JPG,AFNE01.JPG,AFNE01.JPG,AFNE01.JPG,AFNE01.JPG,AFNE01.JPG,,,,,,,,,4,2,42,0,,,,,,,,,,,,,,,AFNE03.jpg,AFSA08.jpg,AFNE19.jpg,AFSA13.jpg,AFSA13.jpg,FS,4,num_4,32,num_8,0.816753068473,,,2017_Apr_13_1415,60.0041763784,FEMA4ImagesEEG,001,100192,
AFNE01.JPG,AFNE01.JPG,AFNE01.JPG,AFNE01.JPG,AFNE01.JPG,AFNE01.JPG,,,,,,,,,4,3,43,5,,,,,,,,,,,,,,,AFNE03.jpg,AFSA14.jpg,AFNE11.jpg,AFSA01.jpg,AFNE03.jpg,FN,3,num_8,32,num_4,1.20014414052,,,2017_Apr_13_1415,60.0041763784,FEMA4ImagesEEG,001,100192,
AFNE01.JPG,AFNE01.JPG,AFNE01.JPG,AFNE01.JPG,AFNE01.JPG,AFNE01.JPG,,,,,,,,,4,4,44,9,,,,,,,,,,,,,,,AFNE17.jpg,AFSA02.jpg,AFNE18.jpg,AFSA15.jpg,AFSA15.jpg,FS,4,num_4,32,num_6,0.88337487448,,,2017_Apr_13_1415,60.0041763784,FEMA4ImagesEEG,001,100192,
AFNE01.JPG,AFNE01.JPG,AFNE01.JPG,AFNE01.JPG,AFNE01.JPG,AFNE01.JPG,,,,,,,,,4,5,45,2,,,,,,,,,,,,,,,AFSA14.jpg,AFSA10.jpg,AFNE20.jpg,AFNE19.jpg,AFSA14.jpg,FS,4,num_8,32,num_4,0.716815388296,,,2017_Apr_13_1415,60.0041763784,FEMA4ImagesEEG,001,100192,
AFNE01.JPG,AFNE01.JPG,AFNE01.JPG,AFNE01.JPG,AFNE01.JPG,AFNE01.JPG,,,,,,,,,4,6,46,4,,,,,,,,,,,,,,,AFSA12.jpg,AFSA19.jpg,AFNE05.jpg,AFNE16.jpg,AFSA12.jpg,FS,4,num_8,32,num_4,0.733440610114,,,2017_Apr_13_1415,60.0041763784,FEMA4ImagesEEG,001,100192,
AFNE01.JPG,AFNE01.JPG,AFNE01.JPG,AFNE01.JPG,AFNE01.JPG,AFNE01.JPG,,,,,,,,,4,7,47,1,,,,,,,,,,,,,,,AFNE05.jpg,AFSA09.jpg,AFNE08.jpg,AFSA13.jpg,AFSA09.jpg,FS,4,num_6,32,num_4,0.833477719687,,,2017_Apr_13_1415,60.0041763784,FEMA4ImagesEEG,001,100192,
AFNE01.JPG,AFNE01.JPG,AFNE01.JPG,AFNE01.JPG,AFNE01.JPG,AFNE01.JPG,,,,,,,,,4,8,48,6,,,,,,,,,,,,,,,AFSA17.jpg,AFSA12.jpg,AFNE13.jpg,AFNE19.jpg,AFNE19.jpg,FN,3,num_4,32,num_8,0.700202996377,,,2017_Apr_13_1415,60.0041763784,FEMA4ImagesEEG,001,100192,
AFNE01.JPG,AFNE01.JPG,AFNE01.JPG,AFNE01.JPG,AFNE01.JPG,AFNE01.JPG,,,,,,,,,4,9,49,3,,,,,,,,,,,,,,,AFNE09.jpg,AFNE13.jpg,AFSA11.jpg,AFSA02.jpg,AFSA02.jpg,FS,4,num_4,32,num_8,0.85010935599,,,2017_Apr_13_1415,60.0041763784,FEMA4ImagesEEG,001,100192,
AFNE01.JPG,AFNE01.JPG,AFNE01.JPG,AFNE01.JPG,AFNE01.JPG,AFNE01.JPG,,,,,,,,,5,0,50,8,,,,,,,,,,,,,,,AFSA20.jpg,AFSA12.jpg,AFNE14.jpg,AFNE20.jpg,AFNE14.jpg,FN,3,num_2,16,num_2,0.833465531468,,,2017_Apr_13_1415,60.0041763784,FEMA4ImagesEEG,001,100192,
AFNE01.JPG,AFNE01.JPG,AFNE01.JPG,AFNE01.JPG,AFNE01.JPG,AFNE01.JPG,,,,,,,,,5,1,51,9,,,,,,,,,,,,,,,AFNE17.jpg,AFSA03.jpg,AFNE08.jpg,AFSA18.jpg,AFNE08.jpg,FN,3,num_2,32,num_8,0.700170280412,,,2017_Apr_13_1415,60.0041763784,FEMA4ImagesEEG,001,100192,
AFNE01.JPG,AFNE01.JPG,AFNE01.JPG,AFNE01.JPG,AFNE01.JPG,AFNE01.JPG,,,,,,,,,5,2,52,6,,,,,,,,,,,,,,,AFNE10.jpg,AFNE11.jpg,AFSA13.jpg,AFSA20.jpg,AFSA20.jpg,FS,4,num_4,16,num_4,1.3503795797,,,2017_Apr_13_1415,60.0041763784,FEMA4ImagesEEG,001,100192,
AFNE01.JPG,AFNE01.JPG,AFNE01.JPG,AFNE01.JPG,AFNE01.JPG,AFNE01.JPG,,,,,,,,,5,3,53,0,,,,,,,,,,,,,,,AFSA12.jpg,AFSA15.jpg,AFNE15.jpg,AFNE04.jpg,AFSA15.jpg,FS,4,num_6,16,num_6,0.566807995085,,,2017_Apr_13_1415,60.0041763784,FEMA4ImagesEEG,001,100192,
AFNE01.JPG,AFNE01.JPG,AFNE01.JPG,AFNE01.JPG,AFNE01.JPG,AFNE01.JPG,,,,,,,,,5,4,54,3,,,,,,,,,,,,,,,AFSA08.jpg,AFNE16.jpg,AFNE15.jpg,AFSA20.jpg,AFNE16.jpg,FN,3,num_6,32,num_8,0.933442021254,,,2017_Apr_13_1415,60.0041763784,FEMA4ImagesEEG,001,100192,
AFNE01.JPG,AFNE01.JPG,AFNE01.JPG,AFNE01.JPG,AFNE01.JPG,AFNE01.JPG,,,,,,,,,5,5,55,7,,,,,,,,,,,,,,,AFNE11.jpg,AFSA03.jpg,AFSA08.jpg,AFNE17.jpg,AFNE17.jpg,FN,3,num_4,32,num_6,0.733571792487,,,2017_Apr_13_1415,60.0041763784,FEMA4ImagesEEG,001,100192,
AFNE01.JPG,AFNE01.JPG,AFNE01.JPG,AFNE01.JPG,AFNE01.JPG,AFNE01.JPG,,,,,,,,,5,6,56,4,,,,,,,,,,,,,,,AFSA09.jpg,AFNE01.jpg,AFSA02.jpg,AFNE06.jpg,AFNE01.jpg,FN,3,num_6,32,num_8,0.766774766613,,,2017_Apr_13_1415,60.0041763784,FEMA4ImagesEEG,001,100192,
AFNE01.JPG,AFNE01.JPG,AFNE01.JPG,AFNE01.JPG,AFNE01.JPG,AFNE01.JPG,,,,,,,,,5,7,57,1,,,,,,,,,,,,,,,AFNE02.jpg,AFSA05.jpg,AFSA18.jpg,AFNE17.jpg,AFNE17.jpg,FN,3,num_4,16,num_4,0.76691525057,,,2017_Apr_13_1415,60.0041763784,FEMA4ImagesEEG,001,100192,
AFNE01.JPG,AFNE01.JPG,AFNE01.JPG,AFNE01.JPG,AFNE01.JPG,AFNE01.JPG,,,,,,,,,5,8,58,2,,,,,,,,,,,,,,,AFSA18.jpg,AFNE19.jpg,AFNE11.jpg,AFSA14.jpg,AFSA18.jpg,FS,4,num_8,16,num_8,0.633518004324,,,2017_Apr_13_1415,60.0041763784,FEMA4ImagesEEG,001,100192,
AFNE01.JPG,AFNE01.JPG,AFNE01.JPG,AFNE01.JPG,AFNE01.JPG,AFNE01.JPG,,,,,,,,,5,9,59,5,,,,,,,,,,,,,,,AFSA05.jpg,AFSA20.jpg,AFNE10.jpg,AFNE16.jpg,AFNE10.jpg,FN,3,num_2,32,num_6,0.98348318832,,,2017_Apr_13_1415,60.0041763784,FEMA4ImagesEEG,001,100192,
,,,,,,,,,,,,,,,,,,,,,,,,,,,,,,,,,,,,,,,,,,,space,21.6821225784,2017_Apr_13_1415,60.0041763784,FEMA4ImagesEEG,001,100192,
AFNE01.JPG,AFNE01.JPG,AFNE01.JPG,AFNE01.JPG,AFNE01.JPG,AFNE01.JPG,,,,,,,,,,,,,0,0,0,8,,,,,,,,,,,AMSA12.jpg,AMNE18.jpg,AMSA05.jpg,AMNE05.jpg,AMNE18.jpg,MN,1,num_6,32,num_2,1.55012824805,,,2017_Apr_13_1415,60.0041763784,FEMA4ImagesEEG,001,100192,
AFNE01.JPG,AFNE01.JPG,AFNE01.JPG,AFNE01.JPG,AFNE01.JPG,AFNE01.JPG,,,,,,,,,,,,,0,1,1,7,,,,,,,,,,,AMNE17.jpg,AMNE12.jpg,AMSA13.jpg,AMSA03.jpg,AMSA13.jpg,MS,2,num_2,32,num_8,0.950128825381,,,2017_Apr_13_1415,60.0041763784,FEMA4ImagesEEG,001,100192,
AFNE01.JPG,AFNE01.JPG,AFNE01.JPG,AFNE01.JPG,AFNE01.JPG,AFNE01.JPG,,,,,,,,,,,,,0,2,2,1,,,,,,,,,,,AMSA10.jpg,AMNE12.jpg,AMNE16.jpg,AMSA15.jpg,AMNE16.jpg,MN,1,num_2,16,num_2,0.666802125983,,,2017_Apr_13_1415,60.0041763784,FEMA4ImagesEEG,001,100192,
AFNE01.JPG,AFNE01.JPG,AFNE01.JPG,AFNE01.JPG,AFNE01.JPG,AFNE01.JPG,,,,,,,,,,,,,0,3,3,3,,,,,,,,,,,AMSA08.jpg,AMNE10.jpg,AMSA19.jpg,AMNE04.jpg,AMNE10.jpg,MN,1,num_6,16,num_6,0.950135881547,,,2017_Apr_13_1415,60.0041763784,FEMA4ImagesEEG,001,100192,
AFNE01.JPG,AFNE01.JPG,AFNE01.JPG,AFNE01.JPG,AFNE01.JPG,AFNE01.JPG,,,,,,,,,,,,,0,4,4,0,,,,,,,,,,,AMSA12.jpg,AMNE19.jpg,AMNE20.jpg,AMSA18.jpg,AMSA12.jpg,MS,2,num_8,32,num_4,1.16679490916,,,2017_Apr_13_1415,60.0041763784,FEMA4ImagesEEG,001,100192,
AFNE01.JPG,AFNE01.JPG,AFNE01.JPG,AFNE01.JPG,AFNE01.JPG,AFNE01.JPG,,,,,,,,,,,,,0,5,5,4,,,,,,,,,,,AMSA18.jpg,AMSA09.jpg,AMNE03.jpg,AMNE12.jpg,AMNE03.jpg,MN,1,num_2,32,num_8,0.800114055164,,,2017_Apr_13_1415,60.0041763784,FEMA4ImagesEEG,001,100192,
AFNE01.JPG,AFNE01.JPG,AFNE01.JPG,AFNE01.JPG,AFNE01.JPG,AFNE01.JPG,,,,,,,,,,,,,0,6,6,6,,,,,,,,,,,AMNE13.jpg,AMNE12.jpg,AMSA14.jpg,AMSA12.jpg,AMNE12.jpg,MN,1,num_6,16,num_6,1.33345863549,,,2017_Apr_13_1415,60.0041763784,FEMA4ImagesEEG,001,100192,
AFNE01.JPG,AFNE01.JPG,AFNE01.JPG,AFNE01.JPG,AFNE01.JPG,AFNE01.JPG,,,,,,,,,,,,,0,7,7,2,,,,,,,,,,,AMNE13.jpg,AMSA11.jpg,AMSA14.jpg,AMNE16.jpg,AMNE16.jpg,MN,1,num_4,32,num_8,0.783432703931,,,2017_Apr_13_1415,60.0041763784,FEMA4ImagesEEG,001,100192,
AFNE01.JPG,AFNE01.JPG,AFNE01.JPG,AFNE01.JPG,AFNE01.JPG,AFNE01.JPG,,,,,,,,,,,,,0,8,8,5,,,,,,,,,,,AMNE06.jpg,AMSA03.jpg,AMSA07.jpg,AMNE07.jpg,AMNE07.jpg,MN,1,num_4,16,num_4,1.18344675237,,,2017_Apr_13_1415,60.0041763784,FEMA4ImagesEEG,001,100192,
AFNE01.JPG,AFNE01.JPG,AFNE01.JPG,AFNE01.JPG,AFNE01.JPG,AFNE01.JPG,,,,,,,,,,,,,0,9,9,9,,,,,,,,,,,AMSA08.jpg,AMNE06.jpg,AMNE08.jpg,AMSA16.jpg,AMSA16.jpg,MS,2,num_4,16,num_4,1.11666906672,,,2017_Apr_13_1415,60.0041763784,FEMA4ImagesEEG,001,100192,
AFNE01.JPG,AFNE01.JPG,AFNE01.JPG,AFNE01.JPG,AFNE01.JPG,AFNE01.JPG,,,,,,,,,,,,,1,0,10,2,,,,,,,,,,,AMNE04.jpg,AMSA07.jpg,AMNE03.jpg,AMSA01.jpg,AMSA07.jpg,MS,2,num_6,16,num_6,1.40014394792,,,2017_Apr_13_1415,60.0041763784,FEMA4ImagesEEG,001,100192,
AFNE01.JPG,AFNE01.JPG,AFNE01.JPG,AFNE01.JPG,AFNE01.JPG,AFNE01.JPG,,,,,,,,,,,,,1,1,11,5,,,,,,,,,,,AMSA03.jpg,AMNE07.jpg,AMSA08.jpg,AMNE05.jpg,AMSA08.jpg,MS,2,num_2,32,num_4,0.833467776887,,,2017_Apr_13_1415,60.0041763784,FEMA4ImagesEEG,001,100192,
AFNE01.JPG,AFNE01.JPG,AFNE01.JPG,AFNE01.JPG,AFNE01.JPG,AFNE01.JPG,,,,,,,,,,,,,1,2,12,7,,,,,,,,,,,AMNE10.jpg,AMNE18.jpg,AMSA05.jpg,AMSA19.jpg,AMSA05.jpg,MS,2,num_2,32,num_6,1.43342999322,,,2017_Apr_13_1415,60.0041763784,FEMA4ImagesEEG,001,100192,
AFNE01.JPG,AFNE01.JPG,AFNE01.JPG,AFNE01.JPG,AFNE01.JPG,AFNE01.JPG,,,,,,,,,,,,,1,3,13,3,,,,,,,,,,,AMSA01.jpg,AMNE12.jpg,AMSA02.jpg,AMNE18.jpg,AMNE18.jpg,MN,1,num_4,32,num_6,1.433426145,,,2017_Apr_13_1415,60.0041763784,FEMA4ImagesEEG,001,100192,
AFNE01.JPG,AFNE01.JPG,AFNE01.JPG,AFNE01.JPG,AFNE01.JPG,AFNE01.JPG,,,,,,,,,,,,,1,4,14,0,,,,,,,,,,,AMNE13.jpg,AMSA16.jpg,AMNE15.jpg,AMSA17.jpg,AMSA17.jpg,MS,2,num_4,16,num_4,0.983448548708,,,2017_Apr_13_1415,60.0041763784,FEMA4ImagesEEG,001,100192,
AFNE01.JPG,AFNE01.JPG,AFNE01.JPG,AFNE01.JPG,AFNE01.JPG,AFNE01.JPG,,,,,,,,,,,,,1,5,15,1,,,,,,,,,,,AMSA03.jpg,AMNE20.jpg,AMSA20.jpg,AMNE19.jpg,AMNE19.jpg,MN,1,num_4,32,num_8,0.766793048941,,,2017_Apr_13_1415,60.0041763784,FEMA4ImagesEEG,001,100192,
AFNE01.JPG,AFNE01.JPG,AFNE01.JPG,AFNE01.JPG,AFNE01.JPG,AFNE01.JPG,,,,,,,,,,,,,1,6,16,6,,,,,,,,,,,AMNE12.jpg,AMSA13.jpg,AMSA11.jpg,AMNE15.jpg,AMNE12.jpg,MN,1,num_8,16,num_8,1.05012648366,,,2017_Apr_13_1415,60.0041763784,FEMA4ImagesEEG,001,100192,
AFNE01.JPG,AFNE01.JPG,AFNE01.JPG,AFNE01.JPG,AFNE01.JPG,AFNE01.JPG,,,,,,,,,,,,,1,7,17,9,,,,,,,,,,,AMSA04.jpg,AMSA03.jpg,AMNE03.jpg,AMNE04.jpg,AMNE03.jpg,MN,1,num_2,16,num_2,0.783484663814,,,2017_Apr_13_1415,60.0041763784,FEMA4ImagesEEG,001,100192,
AFNE01.JPG,AFNE01.JPG,AFNE01.JPG,AFNE01.JPG,AFNE01.JPG,AFNE01.JPG,,,,,,,,,,,,,1,8,18,4,,,,,,,,,,,AMSA01.jpg,AMNE17.jpg,AMSA16.jpg,AMNE11.jpg,AMNE11.jpg,MN,1,num_4,16,num_4,1.35013164766,,,2017_Apr_13_1415,60.0041763784,FEMA4ImagesEEG,001,100192,
AFNE01.JPG,AFNE01.JPG,AFNE01.JPG,AFNE01.JPG,AFNE01.JPG,AFNE01.JPG,,,,,,,,,,,,,1,9,19,8,,,,,,,,,,,AMSA08.jpg,AMNE02.jpg,AMSA10.jpg,AMNE11.jpg,AMSA10.jpg,MS,2,num_2,16,num_2,1.21676198533,,,2017_Apr_13_1415,60.0041763784,FEMA4ImagesEEG,001,100192,
AFNE01.JPG,AFNE01.JPG,AFNE01.JPG,AFNE01.JPG,AFNE01.JPG,AFNE01.JPG,,,,,,,,,,,,,2,0,20,8,,,,,,,,,,,AMNE01.jpg,AMSA07.jpg,AMNE14.jpg,AMSA08.jpg,AMSA07.jpg,MS,2,num_6,32,num_4,1.30007861322,,,2017_Apr_13_1415,60.0041763784,FEMA4ImagesEEG,001,100192,
AFNE01.JPG,AFNE01.JPG,AFNE01.JPG,AFNE01.JPG,AFNE01.JPG,AFNE01.JPG,,,,,,,,,,,,,2,1,21,9,,,,,,,,,,,AMNE16.jpg,AMSA14.jpg,AMSA11.jpg,AMNE01.jpg,AMSA11.jpg,MS,2,num_2,32,num_4,0.900152126793,,,2017_Apr_13_1415,60.0041763784,FEMA4ImagesEEG,001,100192,
AFNE01.JPG,AFNE01.JPG,AFNE01.JPG,AFNE01.JPG,AFNE01.JPG,AFNE01.JPG,,,,,,,,,,,,,2,2,22,7,,,,,,,,,,,AMNE10.jpg,AMSA06.jpg,AMSA14.jpg,AMNE03.jpg,AMNE03.jpg,MN,1,num_4,16,num_4,0.800130092073,,,2017_Apr_13_1415,60.0041763784,FEMA4ImagesEEG,001,100192,
AFNE01.JPG,AFNE01.JPG,AFNE01.JPG,AFNE01.JPG,AFNE01.JPG,AFNE01.JPG,,,,,,,,,,,,,2,3,23,2,,,,,,,,,,,AMNE11.jpg,AMNE19.jpg,AMSA01.jpg,AMSA20.jpg,AMNE19.jpg,MN,1,num_6,16,num_6,0.833485417068,,,2017_Apr_13_1415,60.0041763784,FEMA4ImagesEEG,001,100192,
AFNE01.JPG,AFNE01.JPG,AFNE01.JPG,AFNE01.JPG,AFNE01.JPG,AFNE01.JPG,,,,,,,,,,,,,2,4,24,4,,,,,,,,,,,AMNE06.jpg,AMNE18.jpg,AMSA18.jpg,AMSA04.jpg,AMNE06.jpg,MN,1,num_8,16,num_8,0.666784806177,,,2017_Apr_13_1415,60.0041763784,FEMA4ImagesEEG,001,100192,
AFNE01.JPG,AFNE01.JPG,AFNE01.JPG,AFNE01.JPG,AFNE01.JPG,AFNE01.JPG,,,,,,,,,,,,,2,5,25,3,,,,,,,,,,,AMSA05.jpg,AMNE01.jpg,AMSA09.jpg,AMNE09.jpg,AMNE01.jpg,MN,1,num_6,32,num_4,1.03315197676,,,2017_Apr_13_1415,60.0041763784,FEMA4ImagesEEG,001,100192,
AFNE01.JPG,AFNE01.JPG,AFNE01.JPG,AFNE01.JPG,AFNE01.JPG,AFNE01.JPG,,,,,,,,,,,,,2,6,26,1,,,,,,,,,,,AMNE05.jpg,AMNE03.jpg,AMSA02.jpg,AMSA03.jpg,AMNE05.jpg,MN,1,num_8,32,num_6,0.900137372781,,,2017_Apr_13_1415,60.0041763784,FEMA4ImagesEEG,001,100192,
AFNE01.JPG,AFNE01.JPG,AFNE01.JPG,AFNE01.JPG,AFNE01.JPG,AFNE01.JPG,,,,,,,,,,,,,2,7,27,0,,,,,,,,,,,AMSA11.jpg,AMNE05.jpg,AMNE08.jpg,AMSA17.jpg,AMSA11.jpg,MS,2,num_8,32,num_4,1.48326781159,,,2017_Apr_13_1415,60.0041763784,FEMA4ImagesEEG,001,100192,
AFNE01.JPG,AFNE01.JPG,AFNE01.JPG,AFNE01.JPG,AFNE01.JPG,AFNE01.JPG,,,,,,,,,,,,,2,8,28,6,,,,,,,,,,,AMSA10.jpg,AMNE08.jpg,AMSA01.jpg,AMNE02.jpg,AMNE08.jpg,MN,1,num_6,16,num_6,0.783717199694,,,2017_Apr_13_1415,60.0041763784,FEMA4ImagesEEG,001,100192,
AFNE01.JPG,AFNE01.JPG,AFNE01.JPG,AFNE01.JPG,AFNE01.JPG,AFNE01.JPG,,,,,,,,,,,,,2,9,29,5,,,,,,,,,,,AMSA20.jpg,AMSA13.jpg,AMNE03.jpg,AMNE11.jpg,AMSA20.jpg,MS,2,num_8,32,num_4,0.983435718808,,,2017_Apr_13_1415,60.0041763784,FEMA4ImagesEEG,001,100192,
AFNE01.JPG,AFNE01.JPG,AFNE01.JPG,AFNE01.JPG,AFNE01.JPG,AFNE01.JPG,,,,,,,,,,,,,3,0,30,6,,,,,,,,,,,AMNE17.jpg,AMSA14.jpg,AMNE02.jpg,AMSA11.jpg,AMNE02.jpg,MN,1,num_2,32,num_6,0.650181714911,,,2017_Apr_13_1415,60.0041763784,FEMA4ImagesEEG,001,100192,
AFNE01.JPG,AFNE01.JPG,AFNE01.JPG,AFNE01.JPG,AFNE01.JPG,AFNE01.JPG,,,,,,,,,,,,,3,1,31,0,,,,,,,,,,,AMSA10.jpg,AMSA16.jpg,AMNE18.jpg,AMNE11.jpg,AMSA10.jpg,MS,2,num_8,32,num_2,0.933481472079,,,2017_Apr_13_1415,60.0041763784,FEMA4ImagesEEG,001,100192,
AFNE01.JPG,AFNE01.JPG,AFNE01.JPG,AFNE01.JPG,AFNE01.JPG,AFNE01.JPG,,,,,,,,,,,,,3,2,32,5,,,,,,,,,,,AMNE10.jpg,AMSA16.jpg,AMSA12.jpg,AMNE06.jpg,AMNE10.jpg,MN,1,num_8,32,num_6,0.85015907092,,,2017_Apr_13_1415,60.0041763784,FEMA4ImagesEEG,001,100192,
AFNE01.JPG,AFNE01.JPG,AFNE01.JPG,AFNE01.JPG,AFNE01.JPG,AFNE01.JPG,,,,,,,,,,,,,3,3,33,9,,,,,,,,,,,AMNE20.jpg,AMSA08.jpg,AMSA01.jpg,AMNE14.jpg,AMSA01.jpg,MS,2,num_2,32,num_8,1.08347443212,,,2017_Apr_13_1415,60.0041763784,FEMA4ImagesEEG,001,100192,
AFNE01.JPG,AFNE01.JPG,AFNE01.JPG,AFNE01.JPG,AFNE01.JPG,AFNE01.JPG,,,,,,,,,,,,,3,4,34,3,,,,,,,,,,,AMNE11.jpg,AMNE03.jpg,AMSA06.jpg,AMSA20.jpg,AMSA20.jpg,MS,2,num_4,32,num_2,0.966798950452,,,2017_Apr_13_1415,60.0041763784,FEMA4ImagesEEG,001,100192,
AFNE01.JPG,AFNE01.JPG,AFNE01.JPG,AFNE01.JPG,AFNE01.JPG,AFNE01.JPG,,,,,,,,,,,,,3,5,35,1,,,,,,,,,,,AMSA08.jpg,AMSA06.jpg,AMNE03.jpg,AMNE06.jpg,AMSA08.jpg,MS,2,num_8,16,num_8,0.74972552713,,,2017_Apr_13_1415,60.0041763784,FEMA4ImagesEEG,001,100192,
AFNE01.JPG,AFNE01.JPG,AFNE01.JPG,AFNE01.JPG,AFNE01.JPG,AFNE01.JPG,,,,,,,,,,,,,3,6,36,8,,,,,,,,,,,AMSA15.jpg,AMSA07.jpg,AMNE07.jpg,AMNE13.jpg,AMNE07.jpg,MN,1,num_2,32,num_6,1.26650935458,,,2017_Apr_13_1415,60.0041763784,FEMA4ImagesEEG,001,100192,
AFNE01.JPG,AFNE01.JPG,AFNE01.JPG,AFNE01.JPG,AFNE01.JPG,AFNE01.JPG,,,,,,,,,,,,,3,7,37,4,,,,,,,,,,,AMSA11.jpg,AMSA05.jpg,AMNE18.jpg,AMNE04.jpg,AMSA11.jpg,MS,2,num_8,32,num_4,1.01679264801,,,2017_Apr_13_1415,60.0041763784,FEMA4ImagesEEG,001,100192,
AFNE01.JPG,AFNE01.JPG,AFNE01.JPG,AFNE01.JPG,AFNE01.JPG,AFNE01.JPG,,,,,,,,,,,,,3,8,38,7,,,,,,,,,,,AMSA09.jpg,AMNE15.jpg,AMSA19.jpg,AMNE05.jpg,AMSA19.jpg,MS,2,num_2,32,num_8,0.733455684502,,,2017_Apr_13_1415,60.0041763784,FEMA4ImagesEEG,001,100192,
AFNE01.JPG,AFNE01.JPG,AFNE01.JPG,AFNE01.JPG,AFNE01.JPG,AFNE01.JPG,,,,,,,,,,,,,3,9,39,2,,,,,,,,,,,AMSA12.jpg,AMNE10.jpg,AMNE02.jpg,AMSA14.jpg,AMNE02.jpg,MN,1,num_2,32,num_6,1.06661218358,,,2017_Apr_13_1415,60.0041763784,FEMA4ImagesEEG,001,100192,
AFNE01.JPG,AFNE01.JPG,AFNE01.JPG,AFNE01.JPG,AFNE01.JPG,AFNE01.JPG,,,,,,,,,,,,,4,0,40,6,,,,,,,,,,,AMNE03.jpg,AMSA18.jpg,AMNE08.jpg,AMSA04.jpg,AMSA18.jpg,MS,2,num_6,32,num_8,0.900214029476,,,2017_Apr_13_1415,60.0041763784,FEMA4ImagesEEG,001,100192,
AFNE01.JPG,AFNE01.JPG,AFNE01.JPG,AFNE01.JPG,AFNE01.JPG,AFNE01.JPG,,,,,,,,,,,,,4,1,41,4,,,,,,,,,,,AMNE05.jpg,AMSA12.jpg,AMNE09.jpg,AMSA09.jpg,AMSA09.jpg,MS,2,num_4,16,num_4,1.58341493458,,,2017_Apr_13_1415,60.0041763784,FEMA4ImagesEEG,001,100192,
AFNE01.JPG,AFNE01.JPG,AFNE01.JPG,AFNE01.JPG,AFNE01.JPG,AFNE01.JPG,,,,,,,,,,,,,4,2,42,8,,,,,,,,,,,AMSA12.jpg,AMSA06.jpg,AMNE18.jpg,AMNE08.jpg,AMNE18.jpg,MN,1,num_2,16,num_2,1.36675815238,,,2017_Apr_13_1415,60.0041763784,FEMA4ImagesEEG,001,100192,
AFNE01.JPG,AFNE01.JPG,AFNE01.JPG,AFNE01.JPG,AFNE01.JPG,AFNE01.JPG,,,,,,,,,,,,,4,3,43,9,,,,,,,,,,,AMSA07.jpg,AMSA12.jpg,AMNE16.jpg,AMNE09.jpg,AMSA07.jpg,MS,2,num_8,32,num_6,1.05012263497,,,2017_Apr_13_1415,60.0041763784,FEMA4ImagesEEG,001,100192,
AFNE01.JPG,AFNE01.JPG,AFNE01.JPG,AFNE01.JPG,AFNE01.JPG,AFNE01.JPG,,,,,,,,,,,,,4,4,44,5,,,,,,,,,,,AMNE04.jpg,AMSA10.jpg,AMSA20.jpg,AMNE12.jpg,AMSA20.jpg,MS,2,num_2,32,num_6,1.01675800793,,,2017_Apr_13_1415,60.0041763784,FEMA4ImagesEEG,001,100192,
AFNE01.JPG,AFNE01.JPG,AFNE01.JPG,AFNE01.JPG,AFNE01.JPG,AFNE01.JPG,,,,,,,,,,,,,4,5,45,3,,,,,,,,,,,AMSA13.jpg,AMSA17.jpg,AMNE13.jpg,AMNE16.jpg,AMSA13.jpg,MS,2,num_8,32,num_6,0.616754223127,,,2017_Apr_13_1415,60.0041763784,FEMA4ImagesEEG,001,100192,
AFNE01.JPG,AFNE01.JPG,AFNE01.JPG,AFNE01.JPG,AFNE01.JPG,AFNE01.JPG,,,,,,,,,,,,,4,6,46,2,,,,,,,,,,,AMNE01.jpg,AMSA19.jpg,AMNE05.jpg,AMSA04.jpg,AMSA04.jpg,MS,2,num_4,16,num_4,0.700127622113,,,2017_Apr_13_1415,60.0041763784,FEMA4ImagesEEG,001,100192,
AFNE01.JPG,AFNE01.JPG,AFNE01.JPG,AFNE01.JPG,AFNE01.JPG,AFNE01.JPG,,,,,,,,,,,,,4,7,47,1,,,,,,,,,,,AMSA14.jpg,AMSA19.jpg,AMNE02.jpg,AMNE14.jpg,AMSA14.jpg,MS,2,num_8,32,num_4,0.816467610188,,,2017_Apr_13_1415,60.0041763784,FEMA4ImagesEEG,001,100192,
AFNE01.JPG,AFNE01.JPG,AFNE01.JPG,AFNE01.JPG,AFNE01.JPG,AFNE01.JPG,,,,,,,,,,,,,4,8,48,7,,,,,,,,,,,AMSA11.jpg,AMNE18.jpg,AMSA02.jpg,AMNE11.jpg,AMSA02.jpg,MS,2,num_2,32,num_8,0.616863274481,,,2017_Apr_13_1415,60.0041763784,FEMA4ImagesEEG,001,100192,
AFNE01.JPG,AFNE01.JPG,AFNE01.JPG,AFNE01.JPG,AFNE01.JPG,AFNE01.JPG,,,,,,,,,,,,,4,9,49,0,,,,,,,,,,,AMNE17.jpg,AMSA11.jpg,AMNE13.jpg,AMSA17.jpg,AMNE13.jpg,MN,1,num_2,32,num_6,0.633503250778,,,2017_Apr_13_1415,60.0041763784,FEMA4ImagesEEG,001,100192,
AFNE01.JPG,AFNE01.JPG,AFNE01.JPG,AFNE01.JPG,AFNE01.JPG,AFNE01.JPG,,,,,,,,,,,,,5,0,50,0,,,,,,,,,,,AMSA06.jpg,AMNE15.jpg,AMSA17.jpg,AMNE14.jpg,AMNE14.jpg,MN,1,num_4,16,num_4,0.66681367252,,,2017_Apr_13_1415,60.0041763784,FEMA4ImagesEEG,001,100192,
AFNE01.JPG,AFNE01.JPG,AFNE01.JPG,AFNE01.JPG,AFNE01.JPG,AFNE01.JPG,,,,,,,,,,,,,5,1,51,6,,,,,,,,,,,AMSA07.jpg,AMNE10.jpg,AMSA13.jpg,AMNE02.jpg,AMSA13.jpg,MS,2,num_2,16,num_2,1.01676346082,,,2017_Apr_13_1415,60.0041763784,FEMA4ImagesEEG,001,100192,
AFNE01.JPG,AFNE01.JPG,AFNE01.JPG,AFNE01.JPG,AFNE01.JPG,AFNE01.JPG,,,,,,,,,,,,,5,2,52,1,,,,,,,,,,,AMNE20.jpg,AMSA08.jpg,AMSA09.jpg,AMNE15.jpg,AMNE15.jpg,MN,1,num_4,32,num_6,0.633510627318,,,2017_Apr_13_1415,60.0041763784,FEMA4ImagesEEG,001,100192,
AFNE01.JPG,AFNE01.JPG,AFNE01.JPG,AFNE01.JPG,AFNE01.JPG,AFNE01.JPG,,,,,,,,,,,,,5,3,53,9,,,,,,,,,,,AMSA12.jpg,AMNE17.jpg,AMNE05.jpg,AMSA11.jpg,AMNE05.jpg,MN,1,num_2,32,num_8,0.383460672572,,,2017_Apr_13_1415,60.0041763784,FEMA4ImagesEEG,001,100192,
AFNE01.JPG,AFNE01.JPG,AFNE01.JPG,AFNE01.JPG,AFNE01.JPG,AFNE01.JPG,,,,,,,,,,,,,5,4,54,8,,,,,,,,,,,AMNE04.jpg,AMNE20.jpg,AMSA13.jpg,AMSA14.jpg,AMSA14.jpg,MS,2,num_4,16,num_4,1.33347820072,,,2017_Apr_13_1415,60.0041763784,FEMA4ImagesEEG,001,100192,
AFNE01.JPG,AFNE01.JPG,AFNE01.JPG,AFNE01.JPG,AFNE01.JPG,AFNE01.JPG,,,,,,,,,,,,,5,5,55,2,,,,,,,,,,,AMSA01.jpg,AMNE06.jpg,AMSA11.jpg,AMNE18.jpg,AMNE18.jpg,MN,1,num_4,32,num_6,0.483508687001,,,2017_Apr_13_1415,60.0041763784,FEMA4ImagesEEG,001,100192,
AFNE01.JPG,AFNE01.JPG,AFNE01.JPG,AFNE01.JPG,AFNE01.JPG,AFNE01.JPG,,,,,,,,,,,,,5,6,56,4,,,,,,,,,,,AMNE07.jpg,AMSA10.jpg,AMNE06.jpg,AMSA05.jpg,AMSA05.jpg,MS,2,num_4,32,num_6,0.633557134774,,,2017_Apr_13_1415,60.0041763784,FEMA4ImagesEEG,001,100192,
AFNE01.JPG,AFNE01.JPG,AFNE01.JPG,AFNE01.JPG,AFNE01.JPG,AFNE01.JPG,,,,,,,,,,,,,5,7,57,3,,,,,,,,,,,AMSA17.jpg,AMSA02.jpg,AMNE17.jpg,AMNE01.jpg,AMNE17.jpg,MN,1,num_2,16,num_2,0.883511188906,,,2017_Apr_13_1415,60.0041763784,FEMA4ImagesEEG,001,100192,
AFNE01.JPG,AFNE01.JPG,AFNE01.JPG,AFNE01.JPG,AFNE01.JPG,AFNE01.JPG,,,,,,,,,,,,,5,8,58,7,,,,,,,,,,,AMSA01.jpg,AMSA05.jpg,AMNE15.jpg,AMNE09.jpg,AMSA05.jpg,MS,2,num_6,16,num_6,0.783514813054,,,2017_Apr_13_1415,60.0041763784,FEMA4ImagesEEG,001,100192,
AFNE01.JPG,AFNE01.JPG,AFNE01.JPG,AFNE01.JPG,AFNE01.JPG,AFNE01.JPG,,,,,,,,,,,,,5,9,59,5,,,,,,,,,,,AMNE05.jpg,AMSA12.jpg,AMSA10.jpg,AMNE06.jpg,AMNE05.jpg,MN,1,num_8,32,num_4,1.03349324362,,,2017_Apr_13_1415,60.0041763784,FEMA4ImagesEEG,001,100192,
,,,,,,,,,,,,,,,,,,,,,,,,,,,,,,,,,,,,,,,,,,,space,17.4658481176,2017_Apr_13_1415,60.0041763784,FEMA4ImagesEEG,001,100192,
AFNE01.JPG,AFNE01.JPG,AFNE01.JPG,AFNE01.JPG,AFNE01.JPG,AFNE01.JPG,,,,,,,,,,,,,,,,,0,0,0,4,,,,,,,AFNE06.jpg,AFSA03.jpg,AFNE11.jpg,AFSA12.jpg,AFNE11.jpg,FN,3,num_2,32,num_8,0.800124318805,,,2017_Apr_13_1415,60.0041763784,FEMA4ImagesEEG,001,100192,
AFNE01.JPG,AFNE01.JPG,AFNE01.JPG,AFNE01.JPG,AFNE01.JPG,AFNE01.JPG,,,,,,,,,,,,,,,,,0,1,1,1,,,,,,,AFSA15.jpg,AFNE18.jpg,AFNE11.jpg,AFSA04.jpg,AFNE18.jpg,FN,3,num_6,32,num_8,0.750112018548,,,2017_Apr_13_1415,60.0041763784,FEMA4ImagesEEG,001,100192,
AFNE01.JPG,AFNE01.JPG,AFNE01.JPG,AFNE01.JPG,AFNE01.JPG,AFNE01.JPG,,,,,,,,,,,,,,,,,0,2,2,0,,,,,,,AFNE20.jpg,AFNE08.jpg,AFSA19.jpg,AFSA20.jpg,AFSA20.jpg,FS,4,num_4,32,num_8,0.866774029098,,,2017_Apr_13_1415,60.0041763784,FEMA4ImagesEEG,001,100192,
AFNE01.JPG,AFNE01.JPG,AFNE01.JPG,AFNE01.JPG,AFNE01.JPG,AFNE01.JPG,,,,,,,,,,,,,,,,,0,3,3,9,,,,,,,AFNE07.jpg,AFNE15.jpg,AFSA06.jpg,AFSA04.jpg,AFNE07.jpg,FN,3,num_8,32,num_6,1.20011495333,,,2017_Apr_13_1415,60.0041763784,FEMA4ImagesEEG,001,100192,
AFNE01.JPG,AFNE01.JPG,AFNE01.JPG,AFNE01.JPG,AFNE01.JPG,AFNE01.JPG,,,,,,,,,,,,,,,,,0,4,4,6,,,,,,,AFNE06.jpg,AFNE19.jpg,AFSA20.jpg,AFSA19.jpg,AFNE19.jpg,FN,3,num_6,32,num_4,1.10010350263,,,2017_Apr_13_1415,60.0041763784,FEMA4ImagesEEG,001,100192,
AFNE01.JPG,AFNE01.JPG,AFNE01.JPG,AFNE01.JPG,AFNE01.JPG,AFNE01.JPG,,,,,,,,,,,,,,,,,0,5,5,3,,,,,,,AFSA17.jpg,AFSA19.jpg,AFNE17.jpg,AFNE16.jpg,AFSA17.jpg,FS,4,num_8,16,num_8,1.10010991758,,,2017_Apr_13_1415,60.0041763784,FEMA4ImagesEEG,001,100192,
AFNE01.JPG,AFNE01.JPG,AFNE01.JPG,AFNE01.JPG,AFNE01.JPG,AFNE01.JPG,,,,,,,,,,,,,,,,,0,6,6,2,,,,,,,AFNE12.jpg,AFSA11.jpg,AFSA13.jpg,AFNE20.jpg,AFSA13.jpg,FS,4,num_2,32,num_8,1.46647195611,,,2017_Apr_13_1415,60.0041763784,FEMA4ImagesEEG,001,100192,
AFNE01.JPG,AFNE01.JPG,AFNE01.JPG,AFNE01.JPG,AFNE01.JPG,AFNE01.JPG,,,,,,,,,,,,,,,,,0,7,7,7,,,,,,,AFNE19.jpg,AFSA13.jpg,AFSA18.jpg,AFNE04.jpg,AFNE04.jpg,FN,3,num_4,16,num_4,1.06687647337,,,2017_Apr_13_1415,60.0041763784,FEMA4ImagesEEG,001,100192,
AFNE01.JPG,AFNE01.JPG,AFNE01.JPG,AFNE01.JPG,AFNE01.JPG,AFNE01.JPG,,,,,,,,,,,,,,,,,0,8,8,8,,,,,,,AFNE03.jpg,AFSA03.jpg,AFSA13.jpg,AFNE17.jpg,AFSA13.jpg,FS,4,num_2,32,num_8,0.600123228505,,,2017_Apr_13_1415,60.0041763784,FEMA4ImagesEEG,001,100192,
AFNE01.JPG,AFNE01.JPG,AFNE01.JPG,AFNE01.JPG,AFNE01.JPG,AFNE01.JPG,,,,,,,,,,,,,,,,,0,9,9,5,,,,,,,AFNE01.jpg,AFSA11.jpg,AFSA01.jpg,AFNE07.jpg,AFSA01.jpg,FS,4,num_2,16,num_2,1.03370781848,,,2017_Apr_13_1415,60.0041763784,FEMA4ImagesEEG,001,100192,
AFNE01.JPG,AFNE01.JPG,AFNE01.JPG,AFNE01.JPG,AFNE01.JPG,AFNE01.JPG,,,,,,,,,,,,,,,,,1,0,10,5,,,,,,,AFNE08.jpg,AFSA06.jpg,AFNE15.jpg,AFSA17.jpg,AFSA17.jpg,FS,4,num_4,32,num_8,0.816824914422,,,2017_Apr_13_1415,60.0041763784,FEMA4ImagesEEG,001,100192,
AFNE01.JPG,AFNE01.JPG,AFNE01.JPG,AFNE01.JPG,AFNE01.JPG,AFNE01.JPG,,,,,,,,,,,,,,,,,1,1,11,2,,,,,,,AFSA13.jpg,AFNE05.jpg,AFNE20.jpg,AFSA02.jpg,AFNE05.jpg,FN,3,num_6,32,num_8,0.766799784731,,,2017_Apr_13_1415,60.0041763784,FEMA4ImagesEEG,001,100192,
AFNE01.JPG,AFNE01.JPG,AFNE01.JPG,AFNE01.JPG,AFNE01.JPG,AFNE01.JPG,,,,,,,,,,,,,,,,,1,2,12,9,,,,,,,AFSA20.jpg,AFNE15.jpg,AFNE19.jpg,AFSA17.jpg,AFNE15.jpg,FN,3,num_6,16,num_6,0.716728788801,,,2017_Apr_13_1415,60.0041763784,FEMA4ImagesEEG,001,100192,
AFNE01.JPG,AFNE01.JPG,AFNE01.JPG,AFNE01.JPG,AFNE01.JPG,AFNE01.JPG,,,,,,,,,,,,,,,,,1,3,13,7,,,,,,,AFSA09.jpg,AFSA12.jpg,AFNE13.jpg,AFNE03.jpg,AFNE13.jpg,FN,3,num_2,16,num_2,2.55001278128,,,2017_Apr_13_1415,60.0041763784,FEMA4ImagesEEG,001,100192,
AFNE01.JPG,AFNE01.JPG,AFNE01.JPG,AFNE01.JPG,AFNE01.JPG,AFNE01.JPG,,,,,,,,,,,,,,,,,1,4,14,0,,,,,,,AFSA02.jpg,AFNE02.jpg,AFNE20.jpg,AFSA06.jpg,AFNE20.jpg,FN,3,num_2,32,num_4,0.700157450978,,,2017_Apr_13_1415,60.0041763784,FEMA4ImagesEEG,001,100192,
AFNE01.JPG,AFNE01.JPG,AFNE01.JPG,AFNE01.JPG,AFNE01.JPG,AFNE01.JPG,,,,,,,,,,,,,,,,,1,5,15,1,,,,,,,AFSA06.jpg,AFNE11.jpg,AFSA02.jpg,AFNE16.jpg,AFSA06.jpg,FS,4,num_8,32,num_6,1.44980311394,,,2017_Apr_13_1415,60.0041763784,FEMA4ImagesEEG,001,100192,
AFNE01.JPG,AFNE01.JPG,AFNE01.JPG,AFNE01.JPG,AFNE01.JPG,AFNE01.JPG,,,,,,,,,,,,,,,,,1,6,16,3,,,,,,,AFSA05.jpg,AFNE08.jpg,AFNE02.jpg,AFSA15.jpg,AFNE08.jpg,FN,3,num_6,32,num_8,0.750149223953,,,2017_Apr_13_1415,60.0041763784,FEMA4ImagesEEG,001,100192,
AFNE01.JPG,AFNE01.JPG,AFNE01.JPG,AFNE01.JPG,AFNE01.JPG,AFNE01.JPG,,,,,,,,,,,,,,,,,1,7,17,4,,,,,,,AFSA07.jpg,AFSA17.jpg,AFNE08.jpg,AFNE20.jpg,AFNE20.jpg,FN,3,num_4,32,num_2,2.84996309876,,,2017_Apr_13_1415,60.0041763784,FEMA4ImagesEEG,001,100192,
AFNE01.JPG,AFNE01.JPG,AFNE01.JPG,AFNE01.JPG,AFNE01.JPG,AFNE01.JPG,,,,,,,,,,,,,,,,,1,8,18,6,,,,,,,AFNE20.jpg,AFNE06.jpg,AFSA08.jpg,AFSA03.jpg,AFSA03.jpg,FS,4,num_4,16,num_4,0.733492890839,,,2017_Apr_13_1415,60.0041763784,FEMA4ImagesEEG,001,100192,
AFNE01.JPG,AFNE01.JPG,AFNE01.JPG,AFNE01.JPG,AFNE01.JPG,AFNE01.JPG,,,,,,,,,,,,,,,,,1,9,19,8,,,,,,,AFSA01.jpg,AFSA04.jpg,AFNE09.jpg,AFNE04.jpg,AFSA01.jpg,FS,4,num_8,16,num_8,0.883717745077,,,2017_Apr_13_1415,60.0041763784,FEMA4ImagesEEG,001,100192,
AFNE01.JPG,AFNE01.JPG,AFNE01.JPG,AFNE01.JPG,AFNE01.JPG,AFNE01.JPG,,,,,,,,,,,,,,,,,2,0,20,4,,,,,,,AFSA06.jpg,AFNE10.jpg,AFNE09.jpg,AFSA07.jpg,AFSA06.jpg,FS,4,num_8,16,num_8,0.866763764992,,,2017_Apr_13_1415,60.0041763784,FEMA4ImagesEEG,001,100192,
AFNE01.JPG,AFNE01.JPG,AFNE01.JPG,AFNE01.JPG,AFNE01.JPG,AFNE01.JPG,,,,,,,,,,,,,,,,,2,1,21,9,,,,,,,AFSA18.jpg,AFSA05.jpg,AFNE01.jpg,AFNE20.jpg,AFSA05.jpg,FS,4,num_6,16,num_6,1.09994184971,,,2017_Apr_13_1415,60.0041763784,FEMA4ImagesEEG,001,100192,
AFNE01.JPG,AFNE01.JPG,AFNE01.JPG,AFNE01.JPG,AFNE01.JPG,AFNE01.JPG,,,,,,,,,,,,,,,,,2,2,22,7,,,,,,,AFSA17.jpg,AFNE07.jpg,AFNE16.jpg,AFSA15.jpg,AFNE07.jpg,FN,3,num_6,16,num_6,0.900146353524,,,2017_Apr_13_1415,60.0041763784,FEMA4ImagesEEG,001,100192,
AFNE01.JPG,AFNE01.JPG,AFNE01.JPG,AFNE01.JPG,AFNE01.JPG,AFNE01.JPG,,,,,,,,,,,,,,,,,2,3,23,5,,,,,,,AFSA20.jpg,AFNE10.jpg,AFNE09.jpg,AFSA15.jpg,AFSA20.jpg,FS,4,num_8,32,num_2,1.0168163823,,,2017_Apr_13_1415,60.0041763784,FEMA4ImagesEEG,001,100192,
AFNE01.JPG,AFNE01.JPG,AFNE01.JPG,AFNE01.JPG,AFNE01.JPG,AFNE01.JPG,,,,,,,,,,,,,,,,,2,4,24,6,,,,,,,AFSA12.jpg,AFNE15.jpg,AFNE20.jpg,AFSA16.jpg,AFSA16.jpg,FS,4,num_4,16,num_4,0.650107303169,,,2017_Apr_13_1415,60.0041763784,FEMA4ImagesEEG,001,100192,
AFNE01.JPG,AFNE01.JPG,AFNE01.JPG,AFNE01.JPG,AFNE01.JPG,AFNE01.JPG,,,,,,,,,,,,,,,,,2,5,25,0,,,,,,,AFSA16.jpg,AFNE05.jpg,AFSA18.jpg,AFNE17.jpg,AFSA18.jpg,FS,4,num_2,32,num_6,0.983468755148,,,2017_Apr_13_1415,60.0041763784,FEMA4ImagesEEG,001,100192,
AFNE01.JPG,AFNE01.JPG,AFNE01.JPG,AFNE01.JPG,AFNE01.JPG,AFNE01.JPG,,,,,,,,,,,,,,,,,2,6,26,8,,,,,,,AFSA09.jpg,AFSA10.jpg,AFNE15.jpg,AFNE09.jpg,AFSA09.jpg,FS,4,num_8,32,num_6,1.05015663337,,,2017_Apr_13_1415,60.0041763784,FEMA4ImagesEEG,001,100192,
AFNE01.JPG,AFNE01.JPG,AFNE01.JPG,AFNE01.JPG,AFNE01.JPG,AFNE01.JPG,,,,,,,,,,,,,,,,,2,7,27,1,,,,,,,AFSA19.jpg,AFSA03.jpg,AFNE03.jpg,AFNE04.jpg,AFSA19.jpg,FS,4,num_8,32,num_4,0.616778599564,,,2017_Apr_13_1415,60.0041763784,FEMA4ImagesEEG,001,100192,
AFNE01.JPG,AFNE01.JPG,AFNE01.JPG,AFNE01.JPG,AFNE01.JPG,AFNE01.JPG,,,,,,,,,,,,,,,,,2,8,28,3,,,,,,,AFSA19.jpg,AFNE15.jpg,AFNE09.jpg,AFSA07.jpg,AFSA07.jpg,FS,4,num_4,32,num_2,0.850125072524,,,2017_Apr_13_1415,60.0041763784,FEMA4ImagesEEG,001,100192,
AFNE01.JPG,AFNE01.JPG,AFNE01.JPG,AFNE01.JPG,AFNE01.JPG,AFNE01.JPG,,,,,,,,,,,,,,,,,2,9,29,2,,,,,,,AFNE01.jpg,AFSA01.jpg,AFNE06.jpg,AFSA14.jpg,AFSA14.jpg,FS,4,num_4,32,num_6,0.700135319959,,,2017_Apr_13_1415,60.0041763784,FEMA4ImagesEEG,001,100192,
AFNE01.JPG,AFNE01.JPG,AFNE01.JPG,AFNE01.JPG,AFNE01.JPG,AFNE01.JPG,,,,,,,,,,,,,,,,,3,0,30,2,,,,,,,AFNE05.jpg,AFSA20.jpg,AFSA17.jpg,AFNE19.jpg,AFSA17.jpg,FS,4,num_2,32,num_4,0.716674904339,,,2017_Apr_13_1415,60.0041763784,FEMA4ImagesEEG,001,100192,
AFNE01.JPG,AFNE01.JPG,AFNE01.JPG,AFNE01.JPG,AFNE01.JPG,AFNE01.JPG,,,,,,,,,,,,,,,,,3,1,31,5,,,,,,,AFSA08.jpg,AFNE14.jpg,AFNE20.jpg,AFSA04.jpg,AFNE20.jpg,FN,3,num_2,16,num_2,0.433514347766,,,2017_Apr_13_1415,60.0041763784,FEMA4ImagesEEG,001,100192,
AFNE01.JPG,AFNE01.JPG,AFNE01.JPG,AFNE01.JPG,AFNE01.JPG,AFNE01.JPG,,,,,,,,,,,,,,,,,3,2,32,0,,,,,,,AFSA02.jpg,AFNE11.jpg,AFNE16.jpg,AFSA12.jpg,AFSA12.jpg,FS,4,num_4,32,num_8,1.38343854155,,,2017_Apr_13_1415,60.0041763784,FEMA4ImagesEEG,001,100192,
AFNE01.JPG,AFNE01.JPG,AFNE01.JPG,AFNE01.JPG,AFNE01.JPG,AFNE01.JPG,,,,,,,,,,,,,,,,,3,3,33,9,,,,,,,AFSA12.jpg,AFNE02.jpg,AFNE12.jpg,AFSA06.jpg,AFNE02.jpg,FN,3,num_6,16,num_6,1.03344417037,,,2017_Apr_13_1415,60.0041763784,FEMA4ImagesEEG,001,100192,
AFNE01.JPG,AFNE01.JPG,AFNE01.JPG,AFNE01.JPG,AFNE01.JPG,AFNE01.JPG,,,,,,,,,,,,,,,,,3,4,34,1,,,,,,,AFNE17.jpg,AFSA02.jpg,AFNE12.jpg,AFSA06.jpg,AFNE12.jpg,FN,3,num_2,32,num_6,0.900102091487,,,2017_Apr_13_1415,60.0041763784,FEMA4ImagesEEG,001,100192,
AFNE01.JPG,AFNE01.JPG,AFNE01.JPG,AFNE01.JPG,AFNE01.JPG,AFNE01.JPG,,,,,,,,,,,,,,,,,3,5,35,4,,,,,,,AFNE13.jpg,AFSA14.jpg,AFSA08.jpg,AFNE15.jpg,AFSA08.jpg,FS,4,num_2,32,num_6,0.666799238883,,,2017_Apr_13_1415,60.0041763784,FEMA4ImagesEEG,001,100192,
AFNE01.JPG,AFNE01.JPG,AFNE01.JPG,AFNE01.JPG,AFNE01.JPG,AFNE01.JPG,,,,,,,,,,,,,,,,,3,6,36,3,,,,,,,AFSA12.jpg,AFNE16.jpg,AFNE05.jpg,AFSA20.jpg,AFNE16.jpg,FN,3,num_6,32,num_8,0.983416474424,,,2017_Apr_13_1415,60.0041763784,FEMA4ImagesEEG,001,100192,
AFNE01.JPG,AFNE01.JPG,AFNE01.JPG,AFNE01.JPG,AFNE01.JPG,AFNE01.JPG,,,,,,,,,,,,,,,,,3,7,37,6,,,,,,,AFNE12.jpg,AFSA14.jpg,AFSA11.jpg,AFNE11.jpg,AFSA11.jpg,FS,4,num_2,32,num_6,0.783471192233,,,2017_Apr_13_1415,60.0041763784,FEMA4ImagesEEG,001,100192,
AFNE01.JPG,AFNE01.JPG,AFNE01.JPG,AFNE01.JPG,AFNE01.JPG,AFNE01.JPG,,,,,,,,,,,,,,,,,3,8,38,7,,,,,,,AFNE11.jpg,AFSA06.jpg,AFSA01.jpg,AFNE09.jpg,AFSA01.jpg,FS,4,num_2,16,num_2,1.31675707782,,,2017_Apr_13_1415,60.0041763784,FEMA4ImagesEEG,001,100192,
AFNE01.JPG,AFNE01.JPG,AFNE01.JPG,AFNE01.JPG,AFNE01.JPG,AFNE01.JPG,,,,,,,,,,,,,,,,,3,9,39,8,,,,,,,AFNE17.jpg,AFSA14.jpg,AFSA12.jpg,AFNE19.jpg,AFNE17.jpg,FN,3,num_8,16,num_8,0.816548757255,,,2017_Apr_13_1415,60.0041763784,FEMA4ImagesEEG,001,100192,
AFNE01.JPG,AFNE01.JPG,AFNE01.JPG,AFNE01.JPG,AFNE01.JPG,AFNE01.JPG,,,,,,,,,,,,,,,,,4,0,40,9,,,,,,,AFSA16.jpg,AFNE20.jpg,AFNE02.jpg,AFSA07.jpg,AFSA16.jpg,FS,4,num_8,32,num_2,1.35007455572,,,2017_Apr_13_1415,60.0041763784,FEMA4ImagesEEG,001,100192,
AFNE01.JPG,AFNE01.JPG,AFNE01.JPG,AFNE01.JPG,AFNE01.JPG,AFNE01.JPG,,,,,,,,,,,,,,,,,4,1,41,1,,,,,,,AFSA16.jpg,AFNE06.jpg,AFSA03.jpg,AFNE12.jpg,AFSA03.jpg,FS,4,num_2,16,num_2,0.666806295048,,,2017_Apr_13_1415,60.0041763784,FEMA4ImagesEEG,001,100192,
AFNE01.JPG,AFNE01.JPG,AFNE01.JPG,AFNE01.JPG,AFNE01.JPG,AFNE01.JPG,,,,,,,,,,,,,,,,,4,2,42,4,,,,,,,AFSA10.jpg,AFNE18.jpg,AFSA02.jpg,AFNE15.jpg,AFSA10.jpg,FS,4,num_8,16,num_8,0.600174546242,,,2017_Apr_13_1415,60.0041763784,FEMA4ImagesEEG,001,100192,
AFNE01.JPG,AFNE01.JPG,AFNE01.JPG,AFNE01.JPG,AFNE01.JPG,AFNE01.JPG,,,,,,,,,,,,,,,,,4,3,43,6,,,,,,,AFNE17.jpg,AFSA12.jpg,AFNE19.jpg,AFSA06.jpg,AFSA12.jpg,FS,4,num_6,16,num_6,0.883449606597,,,2017_Apr_13_1415,60.0041763784,FEMA4ImagesEEG,001,100192,
AFNE01.JPG,AFNE01.JPG,AFNE01.JPG,AFNE01.JPG,AFNE01.JPG,AFNE01.JPG,,,,,,,,,,,,,,,,,4,4,44,5,,,,,,,AFNE10.jpg,AFSA11.jpg,AFSA01.jpg,AFNE09.jpg,AFSA11.jpg,FS,4,num_6,32,num_4,1.26678390801,,,2017_Apr_13_1415,60.0041763784,FEMA4ImagesEEG,001,100192,
AFNE01.JPG,AFNE01.JPG,AFNE01.JPG,AFNE01.JPG,AFNE01.JPG,AFNE01.JPG,,,,,,,,,,,,,,,,,4,5,45,8,,,,,,,AFNE18.jpg,AFSA19.jpg,AFSA16.jpg,AFNE17.jpg,AFSA16.jpg,FS,4,num_2,32,num_4,1.11674315762,,,2017_Apr_13_1415,60.0041763784,FEMA4ImagesEEG,001,100192,
AFNE01.JPG,AFNE01.JPG,AFNE01.JPG,AFNE01.JPG,AFNE01.JPG,AFNE01.JPG,,,,,,,,,,,,,,,,,4,6,46,0,,,,,,,AFNE12.jpg,AFNE01.jpg,AFSA18.jpg,AFSA09.jpg,AFNE12.jpg,FN,3,num_8,32,num_6,0.650172734633,,,2017_Apr_13_1415,60.0041763784,FEMA4ImagesEEG,001,100192,
AFNE01.JPG,AFNE01.JPG,AFNE01.JPG,AFNE01.JPG,AFNE01.JPG,AFNE01.JPG,,,,,,,,,,,,,,,,,4,7,47,3,,,,,,,AFSA17.jpg,AFNE10.jpg,AFSA08.jpg,AFNE05.jpg,AFSA08.jpg,FS,4,num_2,32,num_8,1.01680515707,,,2017_Apr_13_1415,60.0041763784,FEMA4ImagesEEG,001,100192,
AFNE01.JPG,AFNE01.JPG,AFNE01.JPG,AFNE01.JPG,AFNE01.JPG,AFNE01.JPG,,,,,,,,,,,,,,,,,4,8,48,7,,,,,,,AFNE08.jpg,AFNE04.jpg,AFSA03.jpg,AFSA10.jpg,AFNE08.jpg,FN,3,num_8,16,num_8,1.5833831816,,,2017_Apr_13_1415,60.0041763784,FEMA4ImagesEEG,001,100192,
AFNE01.JPG,AFNE01.JPG,AFNE01.JPG,AFNE01.JPG,AFNE01.JPG,AFNE01.JPG,,,,,,,,,,,,,,,,,4,9,49,2,,,,,,,AFSA12.jpg,AFSA16.jpg,AFNE11.jpg,AFNE15.jpg,AFNE15.jpg,FN,3,num_4,32,num_8,0.80012496002,,,2017_Apr_13_1415,60.0041763784,FEMA4ImagesEEG,001,100192,
AFNE01.JPG,AFNE01.JPG,AFNE01.JPG,AFNE01.JPG,AFNE01.JPG,AFNE01.JPG,,,,,,,,,,,,,,,,,5,0,50,0,,,,,,,AFSA19.jpg,AFNE15.jpg,AFSA16.jpg,AFNE11.jpg,AFNE15.jpg,FN,3,num_6,32,num_8,0.783483380452,,,2017_Apr_13_1415,60.0041763784,FEMA4ImagesEEG,001,100192,
AFNE01.JPG,AFNE01.JPG,AFNE01.JPG,AFNE01.JPG,AFNE01.JPG,AFNE01.JPG,,,,,,,,,,,,,,,,,5,1,51,8,,,,,,,AFNE09.jpg,AFNE05.jpg,AFSA09.jpg,AFSA02.jpg,AFNE09.jpg,FN,3,num_8,16,num_8,0.716805445496,,,2017_Apr_13_1415,60.0041763784,FEMA4ImagesEEG,001,100192,
AFNE01.JPG,AFNE01.JPG,AFNE01.JPG,AFNE01.JPG,AFNE01.JPG,AFNE01.JPG,,,,,,,,,,,,,,,,,5,2,52,4,,,,,,,AFNE18.jpg,AFSA01.jpg,AFNE01.jpg,AFSA19.jpg,AFSA19.jpg,FS,4,num_4,32,num_6,0.816813046578,,,2017_Apr_13_1415,60.0041763784,FEMA4ImagesEEG,001,100192,
AFNE01.JPG,AFNE01.JPG,AFNE01.JPG,AFNE01.JPG,AFNE01.JPG,AFNE01.JPG,,,,,,,,,,,,,,,,,5,3,53,5,,,,,,,AFNE10.jpg,AFSA17.jpg,AFNE09.jpg,AFSA08.jpg,AFNE10.jpg,FN,3,num_8,16,num_8,0.850167730823,,,2017_Apr_13_1415,60.0041763784,FEMA4ImagesEEG,001,100192,
AFNE01.JPG,AFNE01.JPG,AFNE01.JPG,AFNE01.JPG,AFNE01.JPG,AFNE01.JPG,,,,,,,,,,,,,,,,,5,4,54,9,,,,,,,AFNE11.jpg,AFNE15.jpg,AFSA08.jpg,AFSA05.jpg,AFNE15.jpg,FN,3,num_6,32,num_8,0.683434403501,,,2017_Apr_13_1415,60.0041763784,FEMA4ImagesEEG,001,100192,
AFNE01.JPG,AFNE01.JPG,AFNE01.JPG,AFNE01.JPG,AFNE01.JPG,AFNE01.JPG,,,,,,,,,,,,,,,,,5,5,55,1,,,,,,,AFSA05.jpg,AFSA11.jpg,AFNE16.jpg,AFNE20.jpg,AFSA11.jpg,FS,4,num_6,32,num_2,1.15015429212,,,2017_Apr_13_1415,60.0041763784,FEMA4ImagesEEG,001,100192,
AFNE01.JPG,AFNE01.JPG,AFNE01.JPG,AFNE01.JPG,AFNE01.JPG,AFNE01.JPG,,,,,,,,,,,,,,,,,5,6,56,6,,,,,,,AFNE04.jpg,AFSA13.jpg,AFNE03.jpg,AFSA04.jpg,AFNE04.jpg,FN,3,num_8,32,num_2,0.916722502094,,,2017_Apr_13_1415,60.0041763784,FEMA4ImagesEEG,001,100192,
AFNE01.JPG,AFNE01.JPG,AFNE01.JPG,AFNE01.JPG,AFNE01.JPG,AFNE01.JPG,,,,,,,,,,,,,,,,,5,7,57,7,,,,,,,AFSA18.jpg,AFNE09.jpg,AFNE02.jpg,AFSA01.jpg,AFSA01.jpg,FS,4,num_4,32,num_8,0.566809599288,,,2017_Apr_13_1415,60.0041763784,FEMA4ImagesEEG,001,100192,
AFNE01.JPG,AFNE01.JPG,AFNE01.JPG,AFNE01.JPG,AFNE01.JPG,AFNE01.JPG,,,,,,,,,,,,,,,,,5,8,58,2,,,,,,,AFNE07.jpg,AFNE12.jpg,AFSA12.jpg,AFSA15.jpg,AFNE12.jpg,FN,3,num_6,32,num_8,1.11673898809,,,2017_Apr_13_1415,60.0041763784,FEMA4ImagesEEG,001,100192,
AFNE01.JPG,AFNE01.JPG,AFNE01.JPG,AFNE01.JPG,AFNE01.JPG,AFNE01.JPG,,,,,,,,,,,,,,,,,5,9,59,3,,,,,,,AFSA13.jpg,AFNE11.jpg,AFNE06.jpg,AFSA10.jpg,AFNE06.jpg,FN,3,num_2,32,num_4,0.71681185998,,,2017_Apr_13_1415,60.0041763784,FEMA4ImagesEEG,001,100192,
,,,,,,,,,,,,,,,,,,,,,,,,,,,,,,,,,,,,,,,,,,,space,63.7616288187,2017_Apr_13_1415,60.0041763784,FEMA4ImagesEEG,001,100192,
AFNE01.JPG,AFNE01.JPG,AFNE01.JPG,AFNE01.JPG,AFNE01.JPG,AFNE01.JPG,,,,,,,,,,,,,,,,,,,,,0,0,0,3,,,AMSA03.jpg,AMNE16.jpg,AMNE17.jpg,AMSA12.jpg,AMNE16.jpg,MN,1,num_6,32,num_4,1.10009965347,,,2017_Apr_13_1415,60.0041763784,FEMA4ImagesEEG,001,100192,
AFNE01.JPG,AFNE01.JPG,AFNE01.JPG,AFNE01.JPG,AFNE01.JPG,AFNE01.JPG,,,,,,,,,,,,,,,,,,,,,0,1,1,9,,,AMSA06.jpg,AMNE15.jpg,AMNE14.jpg,AMSA20.jpg,AMNE15.jpg,MN,1,num_6,32,num_4,0.833774724975,,,2017_Apr_13_1415,60.0041763784,FEMA4ImagesEEG,001,100192,
AFNE01.JPG,AFNE01.JPG,AFNE01.JPG,AFNE01.JPG,AFNE01.JPG,AFNE01.JPG,,,,,,,,,,,,,,,,,,,,,0,2,2,1,,,AMSA09.jpg,AMSA08.jpg,AMNE19.jpg,AMNE08.jpg,AMNE08.jpg,MN,1,num_4,32,num_2,0.43350376375,,,2017_Apr_13_1415,60.0041763784,FEMA4ImagesEEG,001,100192,
AFNE01.JPG,AFNE01.JPG,AFNE01.JPG,AFNE01.JPG,AFNE01.JPG,AFNE01.JPG,,,,,,,,,,,,,,,,,,,,,0,3,3,5,,,AMSA20.jpg,AMNE17.jpg,AMSA05.jpg,AMNE15.jpg,AMNE17.jpg,MN,1,num_6,32,num_8,0.783503266517,,,2017_Apr_13_1415,60.0041763784,FEMA4ImagesEEG,001,100192,
AFNE01.JPG,AFNE01.JPG,AFNE01.JPG,AFNE01.JPG,AFNE01.JPG,AFNE01.JPG,,,,,,,,,,,,,,,,,,,,,0,4,4,4,,,AMNE04.jpg,AMSA08.jpg,AMNE09.jpg,AMSA03.jpg,AMSA03.jpg,MS,2,num_4,16,num_4,0.766768672504,,,2017_Apr_13_1415,60.0041763784,FEMA4ImagesEEG,001,100192,
AFNE01.JPG,AFNE01.JPG,AFNE01.JPG,AFNE01.JPG,AFNE01.JPG,AFNE01.JPG,,,,,,,,,,,,,,,,,,,,,0,5,5,8,,,AMSA11.jpg,AMSA18.jpg,AMNE13.jpg,AMNE16.jpg,AMNE16.jpg,MN,1,num_4,32,num_8,1.41670598369,,,2017_Apr_13_1415,60.0041763784,FEMA4ImagesEEG,001,100192,
AFNE01.JPG,AFNE01.JPG,AFNE01.JPG,AFNE01.JPG,AFNE01.JPG,AFNE01.JPG,,,,,,,,,,,,,,,,,,,,,0,6,6,0,,,AMSA02.jpg,AMNE08.jpg,AMNE10.jpg,AMSA14.jpg,AMSA14.jpg,MS,2,num_4,16,num_4,1.216804964,,,2017_Apr_13_1415,60.0041763784,FEMA4ImagesEEG,001,100192,
AFNE01.JPG,AFNE01.JPG,AFNE01.JPG,AFNE01.JPG,AFNE01.JPG,AFNE01.JPG,,,,,,,,,,,,,,,,,,,,,0,7,7,7,,,AMSA16.jpg,AMNE11.jpg,AMNE02.jpg,AMSA07.jpg,AMNE02.jpg,MN,1,num_2,16,num_2,0.600165245123,,,2017_Apr_13_1415,60.0041763784,FEMA4ImagesEEG,001,100192,
AFNE01.JPG,AFNE01.JPG,AFNE01.JPG,AFNE01.JPG,AFNE01.JPG,AFNE01.JPG,,,,,,,,,,,,,,,,,,,,,0,8,8,6,,,AMNE07.jpg,AMNE14.jpg,AMSA03.jpg,AMSA18.jpg,AMNE14.jpg,MN,1,num_6,16,num_6,1.41670822958,,,2017_Apr_13_1415,60.0041763784,FEMA4ImagesEEG,001,100192,
AFNE01.JPG,AFNE01.JPG,AFNE01.JPG,AFNE01.JPG,AFNE01.JPG,AFNE01.JPG,,,,,,,,,,,,,,,,,,,,,0,9,9,2,,,AMNE07.jpg,AMSA17.jpg,AMNE16.jpg,AMSA16.jpg,AMSA17.jpg,MS,2,num_6,32,num_2,1.08348565828,,,2017_Apr_13_1415,60.0041763784,FEMA4ImagesEEG,001,100192,
AFNE01.JPG,AFNE01.JPG,AFNE01.JPG,AFNE01.JPG,AFNE01.JPG,AFNE01.JPG,,,,,,,,,,,,,,,,,,,,,1,0,10,0,,,AMSA05.jpg,AMNE07.jpg,AMSA09.jpg,AMNE04.jpg,AMNE07.jpg,MN,1,num_6,32,num_2,2.33334894292,,,2017_Apr_13_1415,60.0041763784,FEMA4ImagesEEG,001,100192,
AFNE01.JPG,AFNE01.JPG,AFNE01.JPG,AFNE01.JPG,AFNE01.JPG,AFNE01.JPG,,,,,,,,,,,,,,,,,,,,,1,1,11,5,,,AMSA03.jpg,AMNE02.jpg,AMNE04.jpg,AMSA11.jpg,AMSA03.jpg,MS,2,num_8,32,num_4,0.85001345491,,,2017_Apr_13_1415,60.0041763784,FEMA4ImagesEEG,001,100192,
AFNE01.JPG,AFNE01.JPG,AFNE01.JPG,AFNE01.JPG,AFNE01.JPG,AFNE01.JPG,,,,,,,,,,,,,,,,,,,,,1,2,12,8,,,AMNE07.jpg,AMSA20.jpg,AMNE05.jpg,AMSA05.jpg,AMNE05.jpg,MN,1,num_2,32,num_4,0.850155863445,,,2017_Apr_13_1415,60.0041763784,FEMA4ImagesEEG,001,100192,
AFNE01.JPG,AFNE01.JPG,AFNE01.JPG,AFNE01.JPG,AFNE01.JPG,AFNE01.JPG,,,,,,,,,,,,,,,,,,,,,1,3,13,4,,,AMSA13.jpg,AMSA12.jpg,AMNE14.jpg,AMNE11.jpg,AMNE14.jpg,MN,1,num_2,32,num_4,1.18336432241,,,2017_Apr_13_1415,60.0041763784,FEMA4ImagesEEG,001,100192,
AFNE01.JPG,AFNE01.JPG,AFNE01.JPG,AFNE01.JPG,AFNE01.JPG,AFNE01.JPG,,,,,,,,,,,,,,,,,,,,,1,4,14,7,,,AMSA01.jpg,AMSA04.jpg,AMNE12.jpg,AMNE15.jpg,AMNE15.jpg,MN,1,num_4,16,num_4,1.0501194275,,,2017_Apr_13_1415,60.0041763784,FEMA4ImagesEEG,001,100192,
AFNE01.JPG,AFNE01.JPG,AFNE01.JPG,AFNE01.JPG,AFNE01.JPG,AFNE01.JPG,,,,,,,,,,,,,,,,,,,,,1,5,15,9,,,AMSA05.jpg,AMSA15.jpg,AMNE15.jpg,AMNE11.jpg,AMSA15.jpg,MS,2,num_6,16,num_6,1.08348437492,,,2017_Apr_13_1415,60.0041763784,FEMA4ImagesEEG,001,100192,
AFNE01.JPG,AFNE01.JPG,AFNE01.JPG,AFNE01.JPG,AFNE01.JPG,AFNE01.JPG,,,,,,,,,,,,,,,,,,,,,1,6,16,1,,,AMNE08.jpg,AMSA10.jpg,AMSA16.jpg,AMNE04.jpg,AMNE08.jpg,MN,1,num_8,32,num_4,0.933470567223,,,2017_Apr_13_1415,60.0041763784,FEMA4ImagesEEG,001,100192,
AFNE01.JPG,AFNE01.JPG,AFNE01.JPG,AFNE01.JPG,AFNE01.JPG,AFNE01.JPG,,,,,,,,,,,,,,,,,,,,,1,7,17,3,,,AMNE03.jpg,AMNE04.jpg,AMSA04.jpg,AMSA09.jpg,AMNE04.jpg,MN,1,num_6,32,num_4,0.616770901717,,,2017_Apr_13_1415,60.0041763784,FEMA4ImagesEEG,001,100192,
AFNE01.JPG,AFNE01.JPG,AFNE01.JPG,AFNE01.JPG,AFNE01.JPG,AFNE01.JPG,,,,,,,,,,,,,,,,,,,,,1,8,18,6,,,AMSA09.jpg,AMNE09.jpg,AMNE20.jpg,AMSA10.jpg,AMNE20.jpg,MN,1,num_2,32,num_6,1.06676645949,,,2017_Apr_13_1415,60.0041763784,FEMA4ImagesEEG,001,100192,
AFNE01.JPG,AFNE01.JPG,AFNE01.JPG,AFNE01.JPG,AFNE01.JPG,AFNE01.JPG,,,,,,,,,,,,,,,,,,,,,1,9,19,2,,,AMNE07.jpg,AMNE05.jpg,AMSA05.jpg,AMSA02.jpg,AMNE07.jpg,MN,1,num_8,32,num_4,0.666762353852,,,2017_Apr_13_1415,60.0041763784,FEMA4ImagesEEG,001,100192,
AFNE01.JPG,AFNE01.JPG,AFNE01.JPG,AFNE01.JPG,AFNE01.JPG,AFNE01.JPG,,,,,,,,,,,,,,,,,,,,,2,0,20,5,,,AMNE17.jpg,AMNE18.jpg,AMSA06.jpg,AMSA17.jpg,AMSA06.jpg,MS,2,num_2,16,num_2,0.816755955573,,,2017_Apr_13_1415,60.0041763784,FEMA4ImagesEEG,001,100192,
AFNE01.JPG,AFNE01.JPG,AFNE01.JPG,AFNE01.JPG,AFNE01.JPG,AFNE01.JPG,,,,,,,,,,,,,,,,,,,,,2,1,21,7,,,AMNE16.jpg,AMSA02.jpg,AMSA01.jpg,AMNE19.jpg,AMSA02.jpg,MS,2,num_6,32,num_2,0.866871213075,,,2017_Apr_13_1415,60.0041763784,FEMA4ImagesEEG,001,100192,
AFNE01.JPG,AFNE01.JPG,AFNE01.JPG,AFNE01.JPG,AFNE01.JPG,AFNE01.JPG,,,,,,,,,,,,,,,,,,,,,2,2,22,4,,,AMNE13.jpg,AMNE16.jpg,AMSA17.jpg,AMSA13.jpg,AMSA13.jpg,MS,2,num_4,32,num_8,0.566803183872,,,2017_Apr_13_1415,60.0041763784,FEMA4ImagesEEG,001,100192,
AFNE01.JPG,AFNE01.JPG,AFNE01.JPG,AFNE01.JPG,AFNE01.JPG,AFNE01.JPG,,,,,,,,,,,,,,,,,,,,,2,3,23,2,,,AMNE14.jpg,AMSA05.jpg,AMNE19.jpg,AMSA06.jpg,AMSA05.jpg,MS,2,num_6,32,num_8,0.833525510039,,,2017_Apr_13_1415,60.0041763784,FEMA4ImagesEEG,001,100192,
AFNE01.JPG,AFNE01.JPG,AFNE01.JPG,AFNE01.JPG,AFNE01.JPG,AFNE01.JPG,,,,,,,,,,,,,,,,,,,,,2,4,24,1,,,AMNE18.jpg,AMSA11.jpg,AMNE03.jpg,AMSA16.jpg,AMSA16.jpg,MS,2,num_4,32,num_6,0.950101241469,,,2017_Apr_13_1415,60.0041763784,FEMA4ImagesEEG,001,100192,
AFNE01.JPG,AFNE01.JPG,AFNE01.JPG,AFNE01.JPG,AFNE01.JPG,AFNE01.JPG,,,,,,,,,,,,,,,,,,,,,2,5,25,8,,,AMNE15.jpg,AMSA11.jpg,AMSA09.jpg,AMNE12.jpg,AMNE12.jpg,MN,1,num_4,48,None,,,,2017_Apr_13_1415,60.0041763784,FEMA4ImagesEEG,001,100192,
AFNE01.JPG,AFNE01.JPG,AFNE01.JPG,AFNE01.JPG,AFNE01.JPG,AFNE01.JPG,,,,,,,,,,,,,,,,,,,,,2,6,26,9,,,AMSA05.jpg,AMSA12.jpg,AMNE09.jpg,AMNE03.jpg,AMSA12.jpg,MS,2,num_6,16,num_6,1.26658504922,,,2017_Apr_13_1415,60.0041763784,FEMA4ImagesEEG,001,100192,
AFNE01.JPG,AFNE01.JPG,AFNE01.JPG,AFNE01.JPG,AFNE01.JPG,AFNE01.JPG,,,,,,,,,,,,,,,,,,,,,2,7,27,0,,,AMNE04.jpg,AMSA05.jpg,AMNE06.jpg,AMSA01.jpg,AMSA05.jpg,MS,2,num_6,32,num_2,0.816787067335,,,2017_Apr_13_1415,60.0041763784,FEMA4ImagesEEG,001,100192,
AFNE01.JPG,AFNE01.JPG,AFNE01.JPG,AFNE01.JPG,AFNE01.JPG,AFNE01.JPG,,,,,,,,,,,,,,,,,,,,,2,8,28,6,,,AMNE15.jpg,AMSA12.jpg,AMNE17.jpg,AMSA17.jpg,AMSA17.jpg,MS,2,num_4,32,num_6,1.13331321208,,,2017_Apr_13_1415,60.0041763784,FEMA4ImagesEEG,001,100192,
AFNE01.JPG,AFNE01.JPG,AFNE01.JPG,AFNE01.JPG,AFNE01.JPG,AFNE01.JPG,,,,,,,,,,,,,,,,,,,,,2,9,29,3,,,AMSA07.jpg,AMNE04.jpg,AMSA02.jpg,AMNE15.jpg,AMSA07.jpg,MS,2,num_8,16,num_8,0.766790162306,,,2017_Apr_13_1415,60.0041763784,FEMA4ImagesEEG,001,100192,
AFNE01.JPG,AFNE01.JPG,AFNE01.JPG,AFNE01.JPG,AFNE01.JPG,AFNE01.JPG,,,,,,,,,,,,,,,,,,,,,3,0,30,6,,,AMSA03.jpg,AMNE01.jpg,AMNE09.jpg,AMSA15.jpg,AMSA15.jpg,MS,2,num_4,32,num_8,0.900096638594,,,2017_Apr_13_1415,60.0041763784,FEMA4ImagesEEG,001,100192,
AFNE01.JPG,AFNE01.JPG,AFNE01.JPG,AFNE01.JPG,AFNE01.JPG,AFNE01.JPG,,,,,,,,,,,,,,,,,,,,,3,1,31,9,,,AMNE04.jpg,AMNE16.jpg,AMSA14.jpg,AMSA18.jpg,AMSA14.jpg,MS,2,num_2,16,num_2,0.683483797591,,,2017_Apr_13_1415,60.0041763784,FEMA4ImagesEEG,001,100192,
AFNE01.JPG,AFNE01.JPG,AFNE01.JPG,AFNE01.JPG,AFNE01.JPG,AFNE01.JPG,,,,,,,,,,,,,,,,,,,,,3,2,32,7,,,AMNE12.jpg,AMSA15.jpg,AMNE08.jpg,AMSA01.jpg,AMSA01.jpg,MS,2,num_4,32,num_2,1.03344769869,,,2017_Apr_13_1415,60.0041763784,FEMA4ImagesEEG,001,100192,
AFNE01.JPG,AFNE01.JPG,AFNE01.JPG,AFNE01.JPG,AFNE01.JPG,AFNE01.JPG,,,,,,,,,,,,,,,,,,,,,3,3,33,1,,,AMSA06.jpg,AMSA20.jpg,AMNE16.jpg,AMNE17.jpg,AMNE16.jpg,MN,1,num_2,16,num_2,0.850123789627,,,2017_Apr_13_1415,60.0041763784,FEMA4ImagesEEG,001,100192,
AFNE01.JPG,AFNE01.JPG,AFNE01.JPG,AFNE01.JPG,AFNE01.JPG,AFNE01.JPG,,,,,,,,,,,,,,,,,,,,,3,4,34,4,,,AMSA14.jpg,AMSA12.jpg,AMNE07.jpg,AMNE01.jpg,AMSA14.jpg,MS,2,num_8,32,num_2,0.666798597667,,,2017_Apr_13_1415,60.0041763784,FEMA4ImagesEEG,001,100192,
AFNE01.JPG,AFNE01.JPG,AFNE01.JPG,AFNE01.JPG,AFNE01.JPG,AFNE01.JPG,,,,,,,,,,,,,,,,,,,,,3,5,35,5,,,AMSA13.jpg,AMNE20.jpg,AMNE14.jpg,AMSA10.jpg,AMSA10.jpg,MS,2,num_4,16,num_4,0.683514909353,,,2017_Apr_13_1415,60.0041763784,FEMA4ImagesEEG,001,100192,
AFNE01.JPG,AFNE01.JPG,AFNE01.JPG,AFNE01.JPG,AFNE01.JPG,AFNE01.JPG,,,,,,,,,,,,,,,,,,,,,3,6,36,3,,,AMNE19.jpg,AMNE10.jpg,AMSA08.jpg,AMSA19.jpg,AMSA08.jpg,MS,2,num_2,32,num_4,0.716813785024,,,2017_Apr_13_1415,60.0041763784,FEMA4ImagesEEG,001,100192,
AFNE01.JPG,AFNE01.JPG,AFNE01.JPG,AFNE01.JPG,AFNE01.JPG,AFNE01.JPG,,,,,,,,,,,,,,,,,,,,,3,7,37,0,,,AMSA17.jpg,AMNE02.jpg,AMSA10.jpg,AMNE04.jpg,AMSA17.jpg,MS,2,num_8,32,num_6,0.833406194579,,,2017_Apr_13_1415,60.0041763784,FEMA4ImagesEEG,001,100192,
AFNE01.JPG,AFNE01.JPG,AFNE01.JPG,AFNE01.JPG,AFNE01.JPG,AFNE01.JPG,,,,,,,,,,,,,,,,,,,,,3,8,38,2,,,AMNE14.jpg,AMSA06.jpg,AMNE13.jpg,AMSA18.jpg,AMSA06.jpg,MS,2,num_6,16,num_6,0.700153281447,,,2017_Apr_13_1415,60.0041763784,FEMA4ImagesEEG,001,100192,
