IPosition2,IPosition3,IPosition1,IPosition6,IPosition4,IPosition5,TrialsM1.thisRepN,TrialsM1.thisTrialN,TrialsM1.thisN,TrialsM1.thisIndex,TrialsF1.thisRepN,TrialsF1.thisTrialN,TrialsF1.thisN,TrialsF1.thisIndex,TrialsM2.thisRepN,TrialsM2.thisTrialN,TrialsM2.thisN,TrialsM2.thisIndex,TrialsF2.thisRepN,TrialsF2.thisTrialN,TrialsF2.thisN,TrialsF2.thisIndex,TrialsM3.thisRepN,TrialsM3.thisTrialN,TrialsM3.thisN,TrialsM3.thisIndex,TrialsF3.thisRepN,TrialsF3.thisTrialN,TrialsF3.thisN,TrialsF3.thisIndex,InstrKey_resp.keys,InstrKey_resp.rt,Image0 _Position,Image1 _Position,Image2 _Position,Image3 _Position,Center_image,condition,code,correct_answer,accuracy,Key_Resp.keys,Key_Resp.rt,BreakKey_resp.keys,BreakKey_resp.rt,date,frameRate,expName,session,participant,
,,,,,,,,,,,,,,,,,,,,,,,,,,,,,,space,83.7441667872,,,,,,,,,,,,,,2017_Apr_11_1847,60.0094890325,MAFE4ImagesEEG,001,100132,
AFNE22.JPG,AFSA24.JPG,AFSA22.JPG,AFNE25.JPG,AFNE24.JPG,AFSA25.JPG,0,0,0,6,,,,,,,,,,,,,,,,,,,,,,,AMSA12.jpg,AMNE02.jpg,AMSA04.jpg,AMNE18.jpg,AMSA04.jpg,MS,2,num_2,16,num_2,0.866742596496,,,2017_Apr_11_1847,60.0094890325,MAFE4ImagesEEG,001,100132,
AFNE23.JPG,AFNE24.JPG,AFNE22.JPG,AFSA24.JPG,AFSA22.JPG,AFSA23.JPG,0,1,1,8,,,,,,,,,,,,,,,,,,,,,,,AMSA01.jpg,AMNE03.jpg,AMSA17.jpg,AMNE14.jpg,AMSA17.jpg,MS,2,num_2,32,num_6,1.25017728843,,,2017_Apr_11_1847,60.0094890325,MAFE4ImagesEEG,001,100132,
AMSA21.JPG,AMNE22.JPG,AMNE21.JPG,AMSA23.JPG,AMSA22.JPG,AMNE23.JPG,0,2,2,1,,,,,,,,,,,,,,,,,,,,,,,AMSA14.jpg,AMNE13.jpg,AMSA05.jpg,AMNE11.jpg,AMNE13.jpg,MN,1,num_6,16,num_6,1.5000845152,,,2017_Apr_11_1847,60.0094890325,MAFE4ImagesEEG,001,100132,
AFSA21.JPG,AFNE23.JPG,AFNE21.JPG,AFSA25.JPG,AFNE25.JPG,AFSA23.JPG,0,3,3,4,,,,,,,,,,,,,,,,,,,,,,,AMSA05.jpg,AMNE03.jpg,AMSA09.jpg,AMNE20.jpg,AMNE20.jpg,MN,1,num_4,16,num_4,1.66671039443,,,2017_Apr_11_1847,60.0094890325,MAFE4ImagesEEG,001,100132,
AFSA21.JPG,AFNE22.JPG,AFNE21.JPG,AFSA23.JPG,AFSA22.JPG,AFNE23.JPG,0,4,4,0,,,,,,,,,,,,,,,,,,,,,,,AMSA16.jpg,AMSA04.jpg,AMNE13.jpg,AMNE04.jpg,AMSA04.jpg,MS,2,num_6,32,num_4,0.966673861723,,,2017_Apr_11_1847,60.0094890325,MAFE4ImagesEEG,001,100132,
AMNE22.JPG,AMSA24.JPG,AMSA22.JPG,AMNE25.JPG,AMNE24.JPG,AMSA25.JPG,0,5,5,7,,,,,,,,,,,,,,,,,,,,,,,AMSA06.jpg,AMSA18.jpg,AMNE11.jpg,AMNE13.jpg,AMSA18.jpg,MS,2,num_6,32,num_8,1.45032303315,,,2017_Apr_11_1847,60.0094890325,MAFE4ImagesEEG,001,100132,
AMSA25.JPG,AMNE24.JPG,AMSA24.JPG,AMNE26.JPG,AMSA21.JPG,AMNE25.JPG,0,6,6,3,,,,,,,,,,,,,,,,,,,,,,,AMNE16.jpg,AMSA15.jpg,AMSA17.jpg,AMNE03.jpg,AMNE03.jpg,MN,1,num_4,32,num_2,2.1500555044,,,2017_Apr_11_1847,60.0094890325,MAFE4ImagesEEG,001,100132,
AMSA21.JPG,AMNE23.JPG,AMNE21.JPG,AMSA25.JPG,AMNE25.JPG,AMSA23.JPG,0,7,7,5,,,,,,,,,,,,,,,,,,,,,,,AMSA02.jpg,AMNE02.jpg,AMSA03.jpg,AMNE11.jpg,AMSA02.jpg,MS,2,num_8,32,num_2,1.40007178159,,,2017_Apr_11_1847,60.0094890325,MAFE4ImagesEEG,001,100132,
AMNE23.JPG,AMNE24.JPG,AMNE22.JPG,AMSA24.JPG,AMSA22.JPG,AMSA23.JPG,0,8,8,9,,,,,,,,,,,,,,,,,,,,,,,AMNE20.jpg,AMSA12.jpg,AMNE11.jpg,AMSA08.jpg,AMNE20.jpg,MN,1,num_8,32,num_4,1.91677285824,,,2017_Apr_11_1847,60.0094890325,MAFE4ImagesEEG,001,100132,
AFSA25.JPG,AFNE24.JPG,AFSA24.JPG,AFNE21.JPG,AFSA21.JPG,AFNE25.JPG,0,9,9,2,,,,,,,,,,,,,,,,,,,,,,,AMSA12.jpg,AMNE15.jpg,AMSA07.jpg,AMNE05.jpg,AMSA12.jpg,MS,2,num_8,32,num_2,1.35010887496,,,2017_Apr_11_1847,60.0094890325,MAFE4ImagesEEG,001,100132,
AMNE23.JPG,AMNE24.JPG,AMNE22.JPG,AMSA24.JPG,AMSA22.JPG,AMSA23.JPG,,,,,0,0,0,9,,,,,,,,,,,,,,,,,,,AFSA11.jpg,AFNE14.jpg,AFNE07.jpg,AFSA01.jpg,AFNE07.jpg,FN,3,num_2,32,num_6,1.78325437242,,,2017_Apr_11_1847,60.0094890325,MAFE4ImagesEEG,001,100132,
AFSA21.JPG,AFNE22.JPG,AFNE21.JPG,AFSA23.JPG,AFSA22.JPG,AFNE23.JPG,,,,,0,1,1,0,,,,,,,,,,,,,,,,,,,AFNE18.jpg,AFSA03.jpg,AFSA12.jpg,AFNE10.jpg,AFNE10.jpg,FN,3,num_4,16,num_4,1.08340643533,,,2017_Apr_11_1847,60.0094890325,MAFE4ImagesEEG,001,100132,
AFSA25.JPG,AFNE24.JPG,AFSA24.JPG,AFNE21.JPG,AFSA21.JPG,AFNE25.JPG,,,,,0,2,2,2,,,,,,,,,,,,,,,,,,,AFSA16.jpg,AFSA15.jpg,AFNE04.jpg,AFNE02.jpg,AFSA15.jpg,FS,4,num_6,16,num_6,1.41641860129,,,2017_Apr_11_1847,60.0094890325,MAFE4ImagesEEG,001,100132,
AMNE22.JPG,AMSA24.JPG,AMSA22.JPG,AMNE25.JPG,AMNE24.JPG,AMSA25.JPG,,,,,0,3,3,7,,,,,,,,,,,,,,,,,,,AFNE10.jpg,AFSA04.jpg,AFNE02.jpg,AFSA02.jpg,AFSA04.jpg,FS,4,num_6,32,num_8,1.50010568369,,,2017_Apr_11_1847,60.0094890325,MAFE4ImagesEEG,001,100132,
AFNE23.JPG,AFNE24.JPG,AFNE22.JPG,AFSA24.JPG,AFSA22.JPG,AFSA23.JPG,,,,,0,4,4,8,,,,,,,,,,,,,,,,,,,AFNE13.jpg,AFSA13.jpg,AFNE11.jpg,AFSA20.jpg,AFNE11.jpg,FN,3,num_2,16,num_2,1.10022602556,,,2017_Apr_11_1847,60.0094890325,MAFE4ImagesEEG,001,100132,
AMSA25.JPG,AMNE24.JPG,AMSA24.JPG,AMNE26.JPG,AMSA21.JPG,AMNE25.JPG,,,,,0,5,5,3,,,,,,,,,,,,,,,,,,,AFNE01.jpg,AFSA08.jpg,AFSA04.jpg,AFNE13.jpg,AFSA08.jpg,FS,4,num_6,32,num_2,0.716823406983,,,2017_Apr_11_1847,60.0094890325,MAFE4ImagesEEG,001,100132,
AFNE22.JPG,AFSA24.JPG,AFSA22.JPG,AFNE25.JPG,AFNE24.JPG,AFSA25.JPG,,,,,0,6,6,6,,,,,,,,,,,,,,,,,,,AFSA08.jpg,AFNE14.jpg,AFNE12.jpg,AFSA07.jpg,AFNE14.jpg,FN,3,num_6,16,num_6,1.0502448366,,,2017_Apr_11_1847,60.0094890325,MAFE4ImagesEEG,001,100132,
AMSA21.JPG,AMNE22.JPG,AMNE21.JPG,AMSA23.JPG,AMSA22.JPG,AMNE23.JPG,,,,,0,7,7,1,,,,,,,,,,,,,,,,,,,AFNE03.jpg,AFNE07.jpg,AFSA14.jpg,AFSA16.jpg,AFSA16.jpg,FS,4,num_4,16,num_4,1.18343392247,,,2017_Apr_11_1847,60.0094890325,MAFE4ImagesEEG,001,100132,
AFSA21.JPG,AFNE23.JPG,AFNE21.JPG,AFSA25.JPG,AFNE25.JPG,AFSA23.JPG,,,,,0,8,8,4,,,,,,,,,,,,,,,,,,,AFNE13.jpg,AFNE02.jpg,AFSA11.jpg,AFSA19.jpg,AFSA11.jpg,FS,4,num_2,32,num_4,1.38343276782,,,2017_Apr_11_1847,60.0094890325,MAFE4ImagesEEG,001,100132,
AMSA21.JPG,AMNE23.JPG,AMNE21.JPG,AMSA25.JPG,AMNE25.JPG,AMSA23.JPG,,,,,0,9,9,5,,,,,,,,,,,,,,,,,,,AFSA17.jpg,AFNE12.jpg,AFSA16.jpg,AFNE10.jpg,AFSA16.jpg,FS,4,num_2,32,num_8,1.30011774367,,,2017_Apr_11_1847,60.0094890325,MAFE4ImagesEEG,001,100132,
AMSA21.JPG,AMNE22.JPG,AMNE21.JPG,AMSA23.JPG,AMSA22.JPG,AMNE23.JPG,,,,,,,,,0,0,0,1,,,,,,,,,,,,,,,AMNE14.jpg,AMNE16.jpg,AMSA20.jpg,AMSA17.jpg,AMNE14.jpg,MN,1,num_8,16,num_8,1.63341953745,,,2017_Apr_11_1847,60.0094890325,MAFE4ImagesEEG,001,100132,
AFSA25.JPG,AFNE24.JPG,AFSA24.JPG,AFNE21.JPG,AFSA21.JPG,AFNE25.JPG,,,,,,,,,0,1,1,2,,,,,,,,,,,,,,,AMNE18.jpg,AMNE17.jpg,AMSA02.jpg,AMSA06.jpg,AMSA06.jpg,MS,2,num_4,16,num_4,0.916776065249,,,2017_Apr_11_1847,60.0094890325,MAFE4ImagesEEG,001,100132,
AMNE23.JPG,AMNE24.JPG,AMNE22.JPG,AMSA24.JPG,AMSA22.JPG,AMSA23.JPG,,,,,,,,,0,2,2,9,,,,,,,,,,,,,,,AMSA18.jpg,AMNE04.jpg,AMSA08.jpg,AMNE20.jpg,AMNE04.jpg,MN,1,num_6,16,num_6,1.08349560108,,,2017_Apr_11_1847,60.0094890325,MAFE4ImagesEEG,001,100132,
AFNE22.JPG,AFSA24.JPG,AFSA22.JPG,AFNE25.JPG,AFNE24.JPG,AFSA25.JPG,,,,,,,,,0,3,3,6,,,,,,,,,,,,,,,AMNE20.jpg,AMSA10.jpg,AMNE18.jpg,AMSA18.jpg,AMNE20.jpg,MN,1,num_8,16,num_8,1.18345733685,,,2017_Apr_11_1847,60.0094890325,MAFE4ImagesEEG,001,100132,
AFSA21.JPG,AFNE23.JPG,AFNE21.JPG,AFSA25.JPG,AFNE25.JPG,AFSA23.JPG,,,,,,,,,0,4,4,4,,,,,,,,,,,,,,,AMNE11.jpg,AMSA07.jpg,AMSA15.jpg,AMNE09.jpg,AMSA15.jpg,MS,2,num_2,16,num_2,0.916812950745,,,2017_Apr_11_1847,60.0094890325,MAFE4ImagesEEG,001,100132,
AMSA25.JPG,AMNE24.JPG,AMSA24.JPG,AMNE26.JPG,AMSA21.JPG,AMNE25.JPG,,,,,,,,,0,5,5,3,,,,,,,,,,,,,,,AMSA16.jpg,AMSA13.jpg,AMNE08.jpg,AMNE15.jpg,AMSA16.jpg,MS,2,num_8,16,num_8,1.33350321837,,,2017_Apr_11_1847,60.0094890325,MAFE4ImagesEEG,001,100132,
AFNE23.JPG,AFNE24.JPG,AFNE22.JPG,AFSA24.JPG,AFSA22.JPG,AFSA23.JPG,,,,,,,,,0,6,6,8,,,,,,,,,,,,,,,AMSA12.jpg,AMSA17.jpg,AMNE05.jpg,AMNE18.jpg,AMSA17.jpg,MS,2,num_6,16,num_6,1.26675055083,,,2017_Apr_11_1847,60.0094890325,MAFE4ImagesEEG,001,100132,
AMSA21.JPG,AMNE23.JPG,AMNE21.JPG,AMSA25.JPG,AMNE25.JPG,AMSA23.JPG,,,,,,,,,0,7,7,5,,,,,,,,,,,,,,,AMNE15.jpg,AMSA13.jpg,AMSA10.jpg,AMNE10.jpg,AMNE10.jpg,MN,1,num_4,16,num_4,0.933467359748,,,2017_Apr_11_1847,60.0094890325,MAFE4ImagesEEG,001,100132,
AMNE22.JPG,AMSA24.JPG,AMSA22.JPG,AMNE25.JPG,AMNE24.JPG,AMSA25.JPG,,,,,,,,,0,8,8,7,,,,,,,,,,,,,,,AMNE03.jpg,AMNE20.jpg,AMSA12.jpg,AMSA15.jpg,AMSA12.jpg,MS,2,num_2,32,num_4,0.633466686122,,,2017_Apr_11_1847,60.0094890325,MAFE4ImagesEEG,001,100132,
AFSA21.JPG,AFNE22.JPG,AFNE21.JPG,AFSA23.JPG,AFSA22.JPG,AFNE23.JPG,,,,,,,,,0,9,9,0,,,,,,,,,,,,,,,AMNE09.jpg,AMSA04.jpg,AMSA16.jpg,AMNE08.jpg,AMNE09.jpg,MN,1,num_8,32,num_4,0.950095468201,,,2017_Apr_11_1847,60.0094890325,MAFE4ImagesEEG,001,100132,
AMSA25.JPG,AMNE24.JPG,AMSA24.JPG,AMNE26.JPG,AMSA21.JPG,AMNE25.JPG,,,,,,,,,,,,,0,0,0,3,,,,,,,,,,,AFNE04.jpg,AFNE10.jpg,AFSA19.jpg,AFSA18.jpg,AFNE04.jpg,FN,3,num_8,32,num_6,0.983469717205,,,2017_Apr_11_1847,60.0094890325,MAFE4ImagesEEG,001,100132,
AMSA21.JPG,AMNE22.JPG,AMNE21.JPG,AMSA23.JPG,AMSA22.JPG,AMNE23.JPG,,,,,,,,,,,,,0,1,1,1,,,,,,,,,,,AFSA11.jpg,AFNE12.jpg,AFSA18.jpg,AFNE14.jpg,AFSA18.jpg,FS,4,num_2,32,num_6,0.783350915182,,,2017_Apr_11_1847,60.0094890325,MAFE4ImagesEEG,001,100132,
AMSA21.JPG,AMNE23.JPG,AMNE21.JPG,AMSA25.JPG,AMNE25.JPG,AMSA23.JPG,,,,,,,,,,,,,0,2,2,5,,,,,,,,,,,AFNE01.jpg,AFSA17.jpg,AFSA07.jpg,AFNE19.jpg,AFSA17.jpg,FS,4,num_6,32,num_4,0.816745050251,,,2017_Apr_11_1847,60.0094890325,MAFE4ImagesEEG,001,100132,
AFNE23.JPG,AFNE24.JPG,AFNE22.JPG,AFSA24.JPG,AFSA22.JPG,AFSA23.JPG,,,,,,,,,,,,,0,3,3,8,,,,,,,,,,,AFSA08.jpg,AFNE14.jpg,AFNE13.jpg,AFSA04.jpg,AFNE13.jpg,FN,3,num_2,32,num_8,0.983425776009,,,2017_Apr_11_1847,60.0094890325,MAFE4ImagesEEG,001,100132,
AFNE22.JPG,AFSA24.JPG,AFSA22.JPG,AFNE25.JPG,AFNE24.JPG,AFSA25.JPG,,,,,,,,,,,,,0,4,4,6,,,,,,,,,,,AFNE09.jpg,AFSA04.jpg,AFNE05.jpg,AFSA06.jpg,AFSA04.jpg,FS,4,num_6,16,num_6,0.933480830863,,,2017_Apr_11_1847,60.0094890325,MAFE4ImagesEEG,001,100132,
AFSA21.JPG,AFNE23.JPG,AFNE21.JPG,AFSA25.JPG,AFNE25.JPG,AFSA23.JPG,,,,,,,,,,,,,0,5,5,4,,,,,,,,,,,AFSA03.jpg,AFNE16.jpg,AFSA13.jpg,AFNE11.jpg,AFSA03.jpg,FS,4,num_8,32,num_2,1.68338372698,,,2017_Apr_11_1847,60.0094890325,MAFE4ImagesEEG,001,100132,
AMNE22.JPG,AMSA24.JPG,AMSA22.JPG,AMNE25.JPG,AMNE24.JPG,AMSA25.JPG,,,,,,,,,,,,,0,6,6,7,,,,,,,,,,,AFNE11.jpg,AFSA17.jpg,AFSA03.jpg,AFNE20.jpg,AFNE20.jpg,FN,3,num_4,32,num_6,1.28374077426,,,2017_Apr_11_1847,60.0094890325,MAFE4ImagesEEG,001,100132,
AFSA21.JPG,AFNE22.JPG,AFNE21.JPG,AFSA23.JPG,AFSA22.JPG,AFNE23.JPG,,,,,,,,,,,,,0,7,7,0,,,,,,,,,,,AFNE01.jpg,AFSA05.jpg,AFSA16.jpg,AFNE07.jpg,AFSA05.jpg,FS,4,num_6,16,num_6,0.733488079626,,,2017_Apr_11_1847,60.0094890325,MAFE4ImagesEEG,001,100132,
AFSA25.JPG,AFNE24.JPG,AFSA24.JPG,AFNE21.JPG,AFSA21.JPG,AFNE25.JPG,,,,,,,,,,,,,0,8,8,2,,,,,,,,,,,AFSA09.jpg,AFNE19.jpg,AFSA15.jpg,AFNE13.jpg,AFSA15.jpg,FS,4,num_2,16,num_2,0.85016548587,,,2017_Apr_11_1847,60.0094890325,MAFE4ImagesEEG,001,100132,
AMNE23.JPG,AMNE24.JPG,AMNE22.JPG,AMSA24.JPG,AMSA22.JPG,AMSA23.JPG,,,,,,,,,,,,,0,9,9,9,,,,,,,,,,,AFSA03.jpg,AFNE11.jpg,AFNE01.jpg,AFSA20.jpg,AFSA20.jpg,FS,4,num_4,16,num_4,0.583495761268,,,2017_Apr_11_1847,60.0094890325,MAFE4ImagesEEG,001,100132,
AMNE22.JPG,AMSA24.JPG,AMSA22.JPG,AMNE25.JPG,AMNE24.JPG,AMSA25.JPG,,,,,,,,,,,,,,,,,0,0,0,7,,,,,,,AMNE09.jpg,AMSA19.jpg,AMNE04.jpg,AMSA04.jpg,AMNE04.jpg,MN,1,num_2,16,num_2,1.41675986815,,,2017_Apr_11_1847,60.0094890325,MAFE4ImagesEEG,001,100132,
AMNE23.JPG,AMNE24.JPG,AMNE22.JPG,AMSA24.JPG,AMSA22.JPG,AMSA23.JPG,,,,,,,,,,,,,,,,,0,1,1,9,,,,,,,AMSA10.jpg,AMSA14.jpg,AMNE07.jpg,AMNE13.jpg,AMNE07.jpg,MN,1,num_2,16,num_2,0.750193165615,,,2017_Apr_11_1847,60.0094890325,MAFE4ImagesEEG,001,100132,
AMSA21.JPG,AMNE22.JPG,AMNE21.JPG,AMSA23.JPG,AMSA22.JPG,AMNE23.JPG,,,,,,,,,,,,,,,,,0,2,2,1,,,,,,,AMNE07.jpg,AMSA08.jpg,AMNE20.jpg,AMSA11.jpg,AMNE20.jpg,MN,1,num_2,32,num_8,1.41672041733,,,2017_Apr_11_1847,60.0094890325,MAFE4ImagesEEG,001,100132,
AFNE23.JPG,AFNE24.JPG,AFNE22.JPG,AFSA24.JPG,AFSA22.JPG,AFSA23.JPG,,,,,,,,,,,,,,,,,0,3,3,8,,,,,,,AMSA16.jpg,AMSA02.jpg,AMNE15.jpg,AMNE12.jpg,AMNE15.jpg,MN,1,num_2,16,num_2,0.700180223677,,,2017_Apr_11_1847,60.0094890325,MAFE4ImagesEEG,001,100132,
AMSA25.JPG,AMNE24.JPG,AMSA24.JPG,AMNE26.JPG,AMSA21.JPG,AMNE25.JPG,,,,,,,,,,,,,,,,,0,4,4,3,,,,,,,AMSA03.jpg,AMNE17.jpg,AMSA18.jpg,AMNE13.jpg,AMSA18.jpg,MS,2,num_2,32,num_8,0.983404286206,,,2017_Apr_11_1847,60.0094890325,MAFE4ImagesEEG,001,100132,
AFNE22.JPG,AFSA24.JPG,AFSA22.JPG,AFNE25.JPG,AFNE24.JPG,AFSA25.JPG,,,,,,,,,,,,,,,,,0,5,5,6,,,,,,,AMNE11.jpg,AMSA03.jpg,AMNE03.jpg,AMSA17.jpg,AMSA17.jpg,MS,2,num_4,16,num_4,1.13347582752,,,2017_Apr_11_1847,60.0094890325,MAFE4ImagesEEG,001,100132,
AFSA21.JPG,AFNE22.JPG,AFNE21.JPG,AFSA23.JPG,AFSA22.JPG,AFNE23.JPG,,,,,,,,,,,,,,,,,0,6,6,0,,,,,,,AMNE03.jpg,AMSA01.jpg,AMNE20.jpg,AMSA14.jpg,AMNE20.jpg,MN,1,num_2,16,num_2,0.666839652229,,,2017_Apr_11_1847,60.0094890325,MAFE4ImagesEEG,001,100132,
AMSA21.JPG,AMNE23.JPG,AMNE21.JPG,AMSA25.JPG,AMNE25.JPG,AMSA23.JPG,,,,,,,,,,,,,,,,,0,7,7,5,,,,,,,AMSA14.jpg,AMNE04.jpg,AMNE16.jpg,AMSA16.jpg,AMNE16.jpg,MN,1,num_2,16,num_2,1.28343671327,,,2017_Apr_11_1847,60.0094890325,MAFE4ImagesEEG,001,100132,
AFSA21.JPG,AFNE23.JPG,AFNE21.JPG,AFSA25.JPG,AFNE25.JPG,AFSA23.JPG,,,,,,,,,,,,,,,,,0,8,8,4,,,,,,,AMNE17.jpg,AMSA11.jpg,AMSA10.jpg,AMNE05.jpg,AMSA11.jpg,MS,2,num_6,16,num_6,1.4334174851,,,2017_Apr_11_1847,60.0094890325,MAFE4ImagesEEG,001,100132,
AFSA25.JPG,AFNE24.JPG,AFSA24.JPG,AFNE21.JPG,AFSA21.JPG,AFNE25.JPG,,,,,,,,,,,,,,,,,0,9,9,2,,,,,,,AMNE04.jpg,AMSA20.jpg,AMSA05.jpg,AMNE12.jpg,AMNE12.jpg,MN,1,num_4,32,num_8,1.26671430701,,,2017_Apr_11_1847,60.0094890325,MAFE4ImagesEEG,001,100132,
AFSA21.JPG,AFNE23.JPG,AFNE21.JPG,AFSA25.JPG,AFNE25.JPG,AFSA23.JPG,,,,,,,,,,,,,,,,,,,,,0,0,0,4,,,AFNE11.jpg,AFNE09.jpg,AFSA09.jpg,AFSA07.jpg,AFNE09.jpg,FN,3,num_6,16,num_6,0.966441967059,,,2017_Apr_11_1847,60.0094890325,MAFE4ImagesEEG,001,100132,
AFSA25.JPG,AFNE24.JPG,AFSA24.JPG,AFNE21.JPG,AFSA21.JPG,AFNE25.JPG,,,,,,,,,,,,,,,,,,,,,0,1,1,2,,,AFNE10.jpg,AFSA08.jpg,AFNE06.jpg,AFSA19.jpg,AFNE10.jpg,FN,3,num_8,32,num_6,2.08334934385,,,2017_Apr_11_1847,60.0094890325,MAFE4ImagesEEG,001,100132,
AMNE23.JPG,AMNE24.JPG,AMNE22.JPG,AMSA24.JPG,AMSA22.JPG,AMSA23.JPG,,,,,,,,,,,,,,,,,,,,,0,2,2,9,,,AFSA06.jpg,AFSA02.jpg,AFNE12.jpg,AFNE15.jpg,AFSA06.jpg,FS,4,num_8,32,num_4,1.08353601396,,,2017_Apr_11_1847,60.0094890325,MAFE4ImagesEEG,001,100132,
AMSA25.JPG,AMNE24.JPG,AMSA24.JPG,AMNE26.JPG,AMSA21.JPG,AMNE25.JPG,,,,,,,,,,,,,,,,,,,,,0,3,3,3,,,AFSA04.jpg,AFNE01.jpg,AFSA14.jpg,AFNE17.jpg,AFNE17.jpg,FN,3,num_4,32,num_6,1.33338454459,,,2017_Apr_11_1847,60.0094890325,MAFE4ImagesEEG,001,100132,
AFNE22.JPG,AFSA24.JPG,AFSA22.JPG,AFNE25.JPG,AFNE24.JPG,AFSA25.JPG,,,,,,,,,,,,,,,,,,,,,0,4,4,6,,,AFSA04.jpg,AFNE09.jpg,AFSA09.jpg,AFNE02.jpg,AFNE02.jpg,FN,3,num_4,16,num_4,0.766867460683,,,2017_Apr_11_1847,60.0094890325,MAFE4ImagesEEG,001,100132,
AMSA21.JPG,AMNE22.JPG,AMNE21.JPG,AMSA23.JPG,AMSA22.JPG,AMNE23.JPG,,,,,,,,,,,,,,,,,,,,,0,5,5,1,,,AFSA03.jpg,AFSA18.jpg,AFNE12.jpg,AFNE20.jpg,AFNE12.jpg,FN,3,num_2,16,num_2,0.633554248139,,,2017_Apr_11_1847,60.0094890325,MAFE4ImagesEEG,001,100132,
AFNE23.JPG,AFNE24.JPG,AFNE22.JPG,AFSA24.JPG,AFSA22.JPG,AFSA23.JPG,,,,,,,,,,,,,,,,,,,,,0,6,6,8,,,AFSA17.jpg,AFNE01.jpg,AFSA03.jpg,AFNE16.jpg,AFSA03.jpg,FS,4,num_2,16,num_2,0.700154243503,,,2017_Apr_11_1847,60.0094890325,MAFE4ImagesEEG,001,100132,
AMSA21.JPG,AMNE23.JPG,AMNE21.JPG,AMSA25.JPG,AMNE25.JPG,AMSA23.JPG,,,,,,,,,,,,,,,,,,,,,0,7,7,5,,,AFSA19.jpg,AFSA10.jpg,AFNE15.jpg,AFNE06.jpg,AFSA10.jpg,FS,4,num_6,16,num_6,0.716802558862,,,2017_Apr_11_1847,60.0094890325,MAFE4ImagesEEG,001,100132,
AFSA21.JPG,AFNE22.JPG,AFNE21.JPG,AFSA23.JPG,AFSA22.JPG,AFNE23.JPG,,,,,,,,,,,,,,,,,,,,,0,8,8,0,,,AFSA09.jpg,AFNE14.jpg,AFSA11.jpg,AFNE02.jpg,AFNE02.jpg,FN,3,num_4,16,num_4,1.36683801655,,,2017_Apr_11_1847,60.0094890325,MAFE4ImagesEEG,001,100132,
AMNE22.JPG,AMSA24.JPG,AMSA22.JPG,AMNE25.JPG,AMNE24.JPG,AMSA25.JPG,,,,,,,,,,,,,,,,,,,,,0,9,9,7,,,AFNE13.jpg,AFNE18.jpg,AFSA19.jpg,AFSA20.jpg,AFNE18.jpg,FN,3,num_6,16,num_6,1.28344088281,,,2017_Apr_11_1847,60.0094890325,MAFE4ImagesEEG,001,100132,
,,,,,,,,,,,,,,,,,,,,,,,,,,,,,,,,,,,,,,,,,,,space,13.449147522,2017_Apr_11_1847,60.0094890325,MAFE4ImagesEEG,001,100132,
AFNE01.JPG,AFNE01.JPG,AFNE01.JPG,AFNE01.JPG,AFNE01.JPG,AFNE01.JPG,0,0,0,3,,,,,,,,,,,,,,,,,,,,,,,AMSA06.jpg,AMSA02.jpg,AMNE13.jpg,AMNE14.jpg,AMNE14.jpg,MN,1,num_4,32,num_8,1.40004708478,,,2017_Apr_11_1847,60.0094890325,MAFE4ImagesEEG,001,100132,
AFNE01.JPG,AFNE01.JPG,AFNE01.JPG,AFNE01.JPG,AFNE01.JPG,AFNE01.JPG,0,1,1,6,,,,,,,,,,,,,,,,,,,,,,,AMNE16.jpg,AMSA11.jpg,AMNE13.jpg,AMSA16.jpg,AMSA11.jpg,MS,2,num_6,32,num_4,0.866779160686,,,2017_Apr_11_1847,60.0094890325,MAFE4ImagesEEG,001,100132,
AFNE01.JPG,AFNE01.JPG,AFNE01.JPG,AFNE01.JPG,AFNE01.JPG,AFNE01.JPG,0,2,2,2,,,,,,,,,,,,,,,,,,,,,,,AMNE09.jpg,AMSA11.jpg,AMNE18.jpg,AMSA08.jpg,AMSA08.jpg,MS,2,num_4,32,num_8,1.31669774093,,,2017_Apr_11_1847,60.0094890325,MAFE4ImagesEEG,001,100132,
AFNE01.JPG,AFNE01.JPG,AFNE01.JPG,AFNE01.JPG,AFNE01.JPG,AFNE01.JPG,0,3,3,8,,,,,,,,,,,,,,,,,,,,,,,AMSA06.jpg,AMSA05.jpg,AMNE01.jpg,AMNE12.jpg,AMNE01.jpg,MN,1,num_2,16,num_2,0.750173921231,,,2017_Apr_11_1847,60.0094890325,MAFE4ImagesEEG,001,100132,
AFNE01.JPG,AFNE01.JPG,AFNE01.JPG,AFNE01.JPG,AFNE01.JPG,AFNE01.JPG,0,4,4,4,,,,,,,,,,,,,,,,,,,,,,,AMNE14.jpg,AMSA06.jpg,AMSA07.jpg,AMNE05.jpg,AMSA07.jpg,MS,2,num_2,32,num_8,1.48347661318,,,2017_Apr_11_1847,60.0094890325,MAFE4ImagesEEG,001,100132,
AFNE01.JPG,AFNE01.JPG,AFNE01.JPG,AFNE01.JPG,AFNE01.JPG,AFNE01.JPG,0,5,5,1,,,,,,,,,,,,,,,,,,,,,,,AMNE03.jpg,AMNE13.jpg,AMSA13.jpg,AMSA07.jpg,AMNE03.jpg,MN,1,num_8,32,num_6,1.48339931481,,,2017_Apr_11_1847,60.0094890325,MAFE4ImagesEEG,001,100132,
AFNE01.JPG,AFNE01.JPG,AFNE01.JPG,AFNE01.JPG,AFNE01.JPG,AFNE01.JPG,0,6,6,0,,,,,,,,,,,,,,,,,,,,,,,AMNE02.jpg,AMSA05.jpg,AMSA17.jpg,AMNE10.jpg,AMNE02.jpg,MN,1,num_8,32,num_2,1.30013378058,,,2017_Apr_11_1847,60.0094890325,MAFE4ImagesEEG,001,100132,
AFNE01.JPG,AFNE01.JPG,AFNE01.JPG,AFNE01.JPG,AFNE01.JPG,AFNE01.JPG,0,7,7,5,,,,,,,,,,,,,,,,,,,,,,,AMNE02.jpg,AMSA12.jpg,AMSA19.jpg,AMNE08.jpg,AMNE02.jpg,MN,1,num_8,32,num_4,1.70007053064,,,2017_Apr_11_1847,60.0094890325,MAFE4ImagesEEG,001,100132,
AFNE01.JPG,AFNE01.JPG,AFNE01.JPG,AFNE01.JPG,AFNE01.JPG,AFNE01.JPG,0,8,8,9,,,,,,,,,,,,,,,,,,,,,,,AMNE01.jpg,AMSA08.jpg,AMSA10.jpg,AMNE17.jpg,AMSA10.jpg,MS,2,num_2,32,num_6,1.55007211817,,,2017_Apr_11_1847,60.0094890325,MAFE4ImagesEEG,001,100132,
AFNE01.JPG,AFNE01.JPG,AFNE01.JPG,AFNE01.JPG,AFNE01.JPG,AFNE01.JPG,0,9,9,7,,,,,,,,,,,,,,,,,,,,,,,AMNE08.jpg,AMSA12.jpg,AMSA04.jpg,AMNE06.jpg,AMNE08.jpg,MN,1,num_8,32,num_6,1.06675779959,,,2017_Apr_11_1847,60.0094890325,MAFE4ImagesEEG,001,100132,
AFNE01.JPG,AFNE01.JPG,AFNE01.JPG,AFNE01.JPG,AFNE01.JPG,AFNE01.JPG,1,0,10,1,,,,,,,,,,,,,,,,,,,,,,,AMSA13.jpg,AMNE12.jpg,AMSA06.jpg,AMNE09.jpg,AMNE09.jpg,MN,1,num_4,16,num_4,0.783748311922,,,2017_Apr_11_1847,60.0094890325,MAFE4ImagesEEG,001,100132,
AFNE01.JPG,AFNE01.JPG,AFNE01.JPG,AFNE01.JPG,AFNE01.JPG,AFNE01.JPG,1,1,11,8,,,,,,,,,,,,,,,,,,,,,,,AMNE07.jpg,AMSA07.jpg,AMNE18.jpg,AMSA06.jpg,AMNE18.jpg,MN,1,num_2,16,num_2,0.733473646455,,,2017_Apr_11_1847,60.0094890325,MAFE4ImagesEEG,001,100132,
AFNE01.JPG,AFNE01.JPG,AFNE01.JPG,AFNE01.JPG,AFNE01.JPG,AFNE01.JPG,1,2,12,9,,,,,,,,,,,,,,,,,,,,,,,AMNE06.jpg,AMSA14.jpg,AMSA18.jpg,AMNE12.jpg,AMSA18.jpg,MS,2,num_2,16,num_2,0.833456871565,,,2017_Apr_11_1847,60.0094890325,MAFE4ImagesEEG,001,100132,
AFNE01.JPG,AFNE01.JPG,AFNE01.JPG,AFNE01.JPG,AFNE01.JPG,AFNE01.JPG,1,3,13,6,,,,,,,,,,,,,,,,,,,,,,,AMSA20.jpg,AMSA03.jpg,AMNE11.jpg,AMNE03.jpg,AMSA03.jpg,MS,2,num_6,16,num_6,0.366806904785,,,2017_Apr_11_1847,60.0094890325,MAFE4ImagesEEG,001,100132,
AFNE01.JPG,AFNE01.JPG,AFNE01.JPG,AFNE01.JPG,AFNE01.JPG,AFNE01.JPG,1,4,14,7,,,,,,,,,,,,,,,,,,,,,,,AMNE12.jpg,AMNE14.jpg,AMSA18.jpg,AMSA14.jpg,AMSA18.jpg,MS,2,num_2,16,num_2,0.883446719963,,,2017_Apr_11_1847,60.0094890325,MAFE4ImagesEEG,001,100132,
AFNE01.JPG,AFNE01.JPG,AFNE01.JPG,AFNE01.JPG,AFNE01.JPG,AFNE01.JPG,1,5,15,0,,,,,,,,,,,,,,,,,,,,,,,AMSA20.jpg,AMNE13.jpg,AMSA03.jpg,AMNE19.jpg,AMNE13.jpg,MN,1,num_6,16,num_6,1.43340657931,,,2017_Apr_11_1847,60.0094890325,MAFE4ImagesEEG,001,100132,
AFNE01.JPG,AFNE01.JPG,AFNE01.JPG,AFNE01.JPG,AFNE01.JPG,AFNE01.JPG,1,6,16,3,,,,,,,,,,,,,,,,,,,,,,,AMSA05.jpg,AMNE01.jpg,AMNE15.jpg,AMSA20.jpg,AMSA20.jpg,MS,2,num_4,16,num_4,0.5834344998,,,2017_Apr_11_1847,60.0094890325,MAFE4ImagesEEG,001,100132,
AFNE01.JPG,AFNE01.JPG,AFNE01.JPG,AFNE01.JPG,AFNE01.JPG,AFNE01.JPG,1,7,17,5,,,,,,,,,,,,,,,,,,,,,,,AMSA15.jpg,AMNE16.jpg,AMNE02.jpg,AMSA13.jpg,AMSA13.jpg,MS,2,num_4,32,num_8,1.16682281345,,,2017_Apr_11_1847,60.0094890325,MAFE4ImagesEEG,001,100132,
AFNE01.JPG,AFNE01.JPG,AFNE01.JPG,AFNE01.JPG,AFNE01.JPG,AFNE01.JPG,1,8,18,4,,,,,,,,,,,,,,,,,,,,,,,AMSA19.jpg,AMNE17.jpg,AMNE12.jpg,AMSA15.jpg,AMNE12.jpg,MN,1,num_2,16,num_2,0.750175845344,,,2017_Apr_11_1847,60.0094890325,MAFE4ImagesEEG,001,100132,
AFNE01.JPG,AFNE01.JPG,AFNE01.JPG,AFNE01.JPG,AFNE01.JPG,AFNE01.JPG,1,9,19,2,,,,,,,,,,,,,,,,,,,,,,,AMNE17.jpg,AMNE03.jpg,AMSA16.jpg,AMSA02.jpg,AMSA16.jpg,MS,2,num_2,16,num_2,1.40005542384,,,2017_Apr_11_1847,60.0094890325,MAFE4ImagesEEG,001,100132,
AFNE01.JPG,AFNE01.JPG,AFNE01.JPG,AFNE01.JPG,AFNE01.JPG,AFNE01.JPG,2,0,20,0,,,,,,,,,,,,,,,,,,,,,,,AMNE18.jpg,AMSA01.jpg,AMSA10.jpg,AMNE03.jpg,AMSA01.jpg,MS,2,num_6,16,num_6,0.633432046045,,,2017_Apr_11_1847,60.0094890325,MAFE4ImagesEEG,001,100132,
AFNE01.JPG,AFNE01.JPG,AFNE01.JPG,AFNE01.JPG,AFNE01.JPG,AFNE01.JPG,2,1,21,2,,,,,,,,,,,,,,,,,,,,,,,AMSA02.jpg,AMSA05.jpg,AMNE01.jpg,AMNE04.jpg,AMSA05.jpg,MS,2,num_6,16,num_6,0.433361676056,,,2017_Apr_11_1847,60.0094890325,MAFE4ImagesEEG,001,100132,
AFNE01.JPG,AFNE01.JPG,AFNE01.JPG,AFNE01.JPG,AFNE01.JPG,AFNE01.JPG,2,2,22,8,,,,,,,,,,,,,,,,,,,,,,,AMNE07.jpg,AMSA01.jpg,AMSA11.jpg,AMNE10.jpg,AMNE07.jpg,MN,1,num_8,32,num_4,0.983468434308,,,2017_Apr_11_1847,60.0094890325,MAFE4ImagesEEG,001,100132,
AFNE01.JPG,AFNE01.JPG,AFNE01.JPG,AFNE01.JPG,AFNE01.JPG,AFNE01.JPG,2,3,23,5,,,,,,,,,,,,,,,,,,,,,,,AMSA05.jpg,AMNE07.jpg,AMNE20.jpg,AMSA15.jpg,AMSA15.jpg,MS,2,num_4,16,num_4,0.616824465338,,,2017_Apr_11_1847,60.0094890325,MAFE4ImagesEEG,001,100132,
AFNE01.JPG,AFNE01.JPG,AFNE01.JPG,AFNE01.JPG,AFNE01.JPG,AFNE01.JPG,2,4,24,3,,,,,,,,,,,,,,,,,,,,,,,AMSA18.jpg,AMNE14.jpg,AMSA12.jpg,AMNE01.jpg,AMNE01.jpg,MN,1,num_4,16,num_4,1.10007271171,,,2017_Apr_11_1847,60.0094890325,MAFE4ImagesEEG,001,100132,
AFNE01.JPG,AFNE01.JPG,AFNE01.JPG,AFNE01.JPG,AFNE01.JPG,AFNE01.JPG,2,5,25,1,,,,,,,,,,,,,,,,,,,,,,,AMSA07.jpg,AMNE18.jpg,AMNE15.jpg,AMSA19.jpg,AMNE15.jpg,MN,1,num_2,32,num_8,1.11678998545,,,2017_Apr_11_1847,60.0094890325,MAFE4ImagesEEG,001,100132,
AFNE01.JPG,AFNE01.JPG,AFNE01.JPG,AFNE01.JPG,AFNE01.JPG,AFNE01.JPG,2,6,26,6,,,,,,,,,,,,,,,,,,,,,,,AMSA16.jpg,AMNE13.jpg,AMNE17.jpg,AMSA08.jpg,AMNE13.jpg,MN,1,num_6,16,num_6,1.78336823499,,,2017_Apr_11_1847,60.0094890325,MAFE4ImagesEEG,001,100132,
AFNE01.JPG,AFNE01.JPG,AFNE01.JPG,AFNE01.JPG,AFNE01.JPG,AFNE01.JPG,2,7,27,4,,,,,,,,,,,,,,,,,,,,,,,AMSA18.jpg,AMNE02.jpg,AMNE20.jpg,AMSA11.jpg,AMSA18.jpg,MS,2,num_8,16,num_8,1.93335798755,,,2017_Apr_11_1847,60.0094890325,MAFE4ImagesEEG,001,100132,
AFNE01.JPG,AFNE01.JPG,AFNE01.JPG,AFNE01.JPG,AFNE01.JPG,AFNE01.JPG,2,8,28,9,,,,,,,,,,,,,,,,,,,,,,,AMSA16.jpg,AMNE06.jpg,AMSA08.jpg,AMNE17.jpg,AMNE06.jpg,MN,1,num_6,16,num_6,0.583812331315,,,2017_Apr_11_1847,60.0094890325,MAFE4ImagesEEG,001,100132,
AFNE01.JPG,AFNE01.JPG,AFNE01.JPG,AFNE01.JPG,AFNE01.JPG,AFNE01.JPG,2,9,29,7,,,,,,,,,,,,,,,,,,,,,,,AMNE10.jpg,AMSA03.jpg,AMNE04.jpg,AMSA07.jpg,AMNE10.jpg,MN,1,num_8,16,num_8,0.916782480199,,,2017_Apr_11_1847,60.0094890325,MAFE4ImagesEEG,001,100132,
AFNE01.JPG,AFNE01.JPG,AFNE01.JPG,AFNE01.JPG,AFNE01.JPG,AFNE01.JPG,3,0,30,1,,,,,,,,,,,,,,,,,,,,,,,AMNE17.jpg,AMSA05.jpg,AMNE10.jpg,AMSA04.jpg,AMSA05.jpg,MS,2,num_6,32,num_2,1.53341738833,,,2017_Apr_11_1847,60.0094890325,MAFE4ImagesEEG,001,100132,
AFNE01.JPG,AFNE01.JPG,AFNE01.JPG,AFNE01.JPG,AFNE01.JPG,AFNE01.JPG,3,1,31,8,,,,,,,,,,,,,,,,,,,,,,,AMNE05.jpg,AMSA12.jpg,AMSA10.jpg,AMNE12.jpg,AMSA10.jpg,MS,2,num_2,16,num_2,0.90012358129,,,2017_Apr_11_1847,60.0094890325,MAFE4ImagesEEG,001,100132,
AFNE01.JPG,AFNE01.JPG,AFNE01.JPG,AFNE01.JPG,AFNE01.JPG,AFNE01.JPG,3,2,32,0,,,,,,,,,,,,,,,,,,,,,,,AMNE13.jpg,AMSA16.jpg,AMNE07.jpg,AMSA06.jpg,AMSA16.jpg,MS,2,num_6,16,num_6,0.700118320994,,,2017_Apr_11_1847,60.0094890325,MAFE4ImagesEEG,001,100132,
AFNE01.JPG,AFNE01.JPG,AFNE01.JPG,AFNE01.JPG,AFNE01.JPG,AFNE01.JPG,3,3,33,7,,,,,,,,,,,,,,,,,,,,,,,AMNE19.jpg,AMSA08.jpg,AMNE14.jpg,AMSA19.jpg,AMSA08.jpg,MS,2,num_6,32,num_2,0.733312314376,,,2017_Apr_11_1847,60.0094890325,MAFE4ImagesEEG,001,100132,
AFNE01.JPG,AFNE01.JPG,AFNE01.JPG,AFNE01.JPG,AFNE01.JPG,AFNE01.JPG,3,4,34,4,,,,,,,,,,,,,,,,,,,,,,,AMSA17.jpg,AMSA08.jpg,AMNE16.jpg,AMNE17.jpg,AMSA17.jpg,MS,2,num_8,16,num_8,0.833472908475,,,2017_Apr_11_1847,60.0094890325,MAFE4ImagesEEG,001,100132,
AFNE01.JPG,AFNE01.JPG,AFNE01.JPG,AFNE01.JPG,AFNE01.JPG,AFNE01.JPG,3,5,35,3,,,,,,,,,,,,,,,,,,,,,,,AMNE14.jpg,AMSA17.jpg,AMSA14.jpg,AMNE16.jpg,AMSA14.jpg,MS,2,num_2,16,num_2,1.25011955574,,,2017_Apr_11_1847,60.0094890325,MAFE4ImagesEEG,001,100132,
AFNE01.JPG,AFNE01.JPG,AFNE01.JPG,AFNE01.JPG,AFNE01.JPG,AFNE01.JPG,3,6,36,2,,,,,,,,,,,,,,,,,,,,,,,AMNE20.jpg,AMSA09.jpg,AMSA19.jpg,AMNE14.jpg,AMSA19.jpg,MS,2,num_2,32,num_4,1.15014050016,,,2017_Apr_11_1847,60.0094890325,MAFE4ImagesEEG,001,100132,
AFNE01.JPG,AFNE01.JPG,AFNE01.JPG,AFNE01.JPG,AFNE01.JPG,AFNE01.JPG,3,7,37,9,,,,,,,,,,,,,,,,,,,,,,,AMSA08.jpg,AMNE19.jpg,AMSA05.jpg,AMNE09.jpg,AMNE09.jpg,MN,1,num_4,32,num_8,0.883476227988,,,2017_Apr_11_1847,60.0094890325,MAFE4ImagesEEG,001,100132,
AFNE01.JPG,AFNE01.JPG,AFNE01.JPG,AFNE01.JPG,AFNE01.JPG,AFNE01.JPG,3,8,38,5,,,,,,,,,,,,,,,,,,,,,,,AMSA02.jpg,AMSA06.jpg,AMNE07.jpg,AMNE02.jpg,AMNE02.jpg,MN,1,num_4,32,num_8,1.18343392294,,,2017_Apr_11_1847,60.0094890325,MAFE4ImagesEEG,001,100132,
AFNE01.JPG,AFNE01.JPG,AFNE01.JPG,AFNE01.JPG,AFNE01.JPG,AFNE01.JPG,3,9,39,6,,,,,,,,,,,,,,,,,,,,,,,AMNE17.jpg,AMSA10.jpg,AMNE12.jpg,AMSA20.jpg,AMNE12.jpg,MN,1,num_2,32,num_6,1.2668105294,,,2017_Apr_11_1847,60.0094890325,MAFE4ImagesEEG,001,100132,
AFNE01.JPG,AFNE01.JPG,AFNE01.JPG,AFNE01.JPG,AFNE01.JPG,AFNE01.JPG,4,0,40,1,,,,,,,,,,,,,,,,,,,,,,,AMNE07.jpg,AMSA12.jpg,AMSA17.jpg,AMNE15.jpg,AMNE15.jpg,MN,1,num_4,16,num_4,1.43349670712,,,2017_Apr_11_1847,60.0094890325,MAFE4ImagesEEG,001,100132,
AFNE01.JPG,AFNE01.JPG,AFNE01.JPG,AFNE01.JPG,AFNE01.JPG,AFNE01.JPG,4,1,41,7,,,,,,,,,,,,,,,,,,,,,,,AMSA01.jpg,AMNE15.jpg,AMNE10.jpg,AMSA08.jpg,AMSA08.jpg,MS,2,num_4,32,num_8,1.33336914936,,,2017_Apr_11_1847,60.0094890325,MAFE4ImagesEEG,001,100132,
AFNE01.JPG,AFNE01.JPG,AFNE01.JPG,AFNE01.JPG,AFNE01.JPG,AFNE01.JPG,4,2,42,2,,,,,,,,,,,,,,,,,,,,,,,AMNE16.jpg,AMSA19.jpg,AMSA04.jpg,AMNE12.jpg,AMSA04.jpg,MS,2,num_2,16,num_2,0.783479210921,,,2017_Apr_11_1847,60.0094890325,MAFE4ImagesEEG,001,100132,
AFNE01.JPG,AFNE01.JPG,AFNE01.JPG,AFNE01.JPG,AFNE01.JPG,AFNE01.JPG,4,3,43,6,,,,,,,,,,,,,,,,,,,,,,,AMSA05.jpg,AMSA04.jpg,AMNE08.jpg,AMNE16.jpg,AMNE08.jpg,MN,1,num_2,32,num_4,0.650133604184,,,2017_Apr_11_1847,60.0094890325,MAFE4ImagesEEG,001,100132,
AFNE01.JPG,AFNE01.JPG,AFNE01.JPG,AFNE01.JPG,AFNE01.JPG,AFNE01.JPG,4,4,44,0,,,,,,,,,,,,,,,,,,,,,,,AMNE02.jpg,AMSA03.jpg,AMNE04.jpg,AMSA04.jpg,AMNE02.jpg,MN,1,num_8,32,num_2,1.03347399924,,,2017_Apr_11_1847,60.0094890325,MAFE4ImagesEEG,001,100132,
AFNE01.JPG,AFNE01.JPG,AFNE01.JPG,AFNE01.JPG,AFNE01.JPG,AFNE01.JPG,4,5,45,9,,,,,,,,,,,,,,,,,,,,,,,AMNE16.jpg,AMSA19.jpg,AMNE14.jpg,AMSA15.jpg,AMSA19.jpg,MS,2,num_6,16,num_6,2.01663131546,,,2017_Apr_11_1847,60.0094890325,MAFE4ImagesEEG,001,100132,
AFNE01.JPG,AFNE01.JPG,AFNE01.JPG,AFNE01.JPG,AFNE01.JPG,AFNE01.JPG,4,6,46,5,,,,,,,,,,,,,,,,,,,,,,,AMNE14.jpg,AMSA04.jpg,AMNE06.jpg,AMSA15.jpg,AMNE06.jpg,MN,1,num_2,16,num_2,0.916784404777,,,2017_Apr_11_1847,60.0094890325,MAFE4ImagesEEG,001,100132,
AFNE01.JPG,AFNE01.JPG,AFNE01.JPG,AFNE01.JPG,AFNE01.JPG,AFNE01.JPG,4,7,47,8,,,,,,,,,,,,,,,,,,,,,,,AMNE17.jpg,AMSA03.jpg,AMNE10.jpg,AMSA07.jpg,AMNE10.jpg,MN,1,num_2,32,num_4,0.967202120461,,,2017_Apr_11_1847,60.0094890325,MAFE4ImagesEEG,001,100132,
AFNE01.JPG,AFNE01.JPG,AFNE01.JPG,AFNE01.JPG,AFNE01.JPG,AFNE01.JPG,4,8,48,4,,,,,,,,,,,,,,,,,,,,,,,AMNE15.jpg,AMSA07.jpg,AMSA18.jpg,AMNE05.jpg,AMSA18.jpg,MS,2,num_2,32,num_6,1.10015193466,,,2017_Apr_11_1847,60.0094890325,MAFE4ImagesEEG,001,100132,
AFNE01.JPG,AFNE01.JPG,AFNE01.JPG,AFNE01.JPG,AFNE01.JPG,AFNE01.JPG,4,9,49,3,,,,,,,,,,,,,,,,,,,,,,,AMSA14.jpg,AMSA01.jpg,AMNE03.jpg,AMNE07.jpg,AMNE03.jpg,MN,1,num_2,32,num_6,0.71682468988,,,2017_Apr_11_1847,60.0094890325,MAFE4ImagesEEG,001,100132,
AFNE01.JPG,AFNE01.JPG,AFNE01.JPG,AFNE01.JPG,AFNE01.JPG,AFNE01.JPG,5,0,50,6,,,,,,,,,,,,,,,,,,,,,,,AMNE18.jpg,AMNE12.jpg,AMSA10.jpg,AMSA18.jpg,AMNE18.jpg,MN,1,num_8,32,num_2,1.25005444558,,,2017_Apr_11_1847,60.0094890325,MAFE4ImagesEEG,001,100132,
AFNE01.JPG,AFNE01.JPG,AFNE01.JPG,AFNE01.JPG,AFNE01.JPG,AFNE01.JPG,5,1,51,9,,,,,,,,,,,,,,,,,,,,,,,AMNE15.jpg,AMNE19.jpg,AMSA06.jpg,AMSA05.jpg,AMNE15.jpg,MN,1,num_8,16,num_8,0.883454418276,,,2017_Apr_11_1847,60.0094890325,MAFE4ImagesEEG,001,100132,
AFNE01.JPG,AFNE01.JPG,AFNE01.JPG,AFNE01.JPG,AFNE01.JPG,AFNE01.JPG,5,2,52,4,,,,,,,,,,,,,,,,,,,,,,,AMSA20.jpg,AMNE04.jpg,AMSA18.jpg,AMNE19.jpg,AMSA20.jpg,MS,2,num_8,16,num_8,1.4334120322,,,2017_Apr_11_1847,60.0094890325,MAFE4ImagesEEG,001,100132,
AFNE01.JPG,AFNE01.JPG,AFNE01.JPG,AFNE01.JPG,AFNE01.JPG,AFNE01.JPG,5,3,53,2,,,,,,,,,,,,,,,,,,,,,,,AMSA08.jpg,AMNE16.jpg,AMNE04.jpg,AMSA05.jpg,AMNE04.jpg,MN,1,num_2,32,num_4,1.28343542991,,,2017_Apr_11_1847,60.0094890325,MAFE4ImagesEEG,001,100132,
AFNE01.JPG,AFNE01.JPG,AFNE01.JPG,AFNE01.JPG,AFNE01.JPG,AFNE01.JPG,5,4,54,1,,,,,,,,,,,,,,,,,,,,,,,AMSA09.jpg,AMSA16.jpg,AMNE19.jpg,AMNE14.jpg,AMSA16.jpg,MS,2,num_6,16,num_6,0.583547079936,,,2017_Apr_11_1847,60.0094890325,MAFE4ImagesEEG,001,100132,
AFNE01.JPG,AFNE01.JPG,AFNE01.JPG,AFNE01.JPG,AFNE01.JPG,AFNE01.JPG,5,5,55,7,,,,,,,,,,,,,,,,,,,,,,,AMSA12.jpg,AMSA16.jpg,AMNE20.jpg,AMNE14.jpg,AMSA16.jpg,MS,2,num_6,16,num_6,0.850137901958,,,2017_Apr_11_1847,60.0094890325,MAFE4ImagesEEG,001,100132,
AFNE01.JPG,AFNE01.JPG,AFNE01.JPG,AFNE01.JPG,AFNE01.JPG,AFNE01.JPG,5,6,56,5,,,,,,,,,,,,,,,,,,,,,,,AMNE12.jpg,AMSA13.jpg,AMNE01.jpg,AMSA04.jpg,AMNE01.jpg,MN,1,num_2,32,num_4,1.16671536583,,,2017_Apr_11_1847,60.0094890325,MAFE4ImagesEEG,001,100132,
AFNE01.JPG,AFNE01.JPG,AFNE01.JPG,AFNE01.JPG,AFNE01.JPG,AFNE01.JPG,5,7,57,8,,,,,,,,,,,,,,,,,,,,,,,AMSA06.jpg,AMNE10.jpg,AMSA14.jpg,AMNE18.jpg,AMNE10.jpg,MN,1,num_6,16,num_6,0.900152768008,,,2017_Apr_11_1847,60.0094890325,MAFE4ImagesEEG,001,100132,
AFNE01.JPG,AFNE01.JPG,AFNE01.JPG,AFNE01.JPG,AFNE01.JPG,AFNE01.JPG,5,8,58,0,,,,,,,,,,,,,,,,,,,,,,,AMSA15.jpg,AMNE16.jpg,AMSA19.jpg,AMNE01.jpg,AMNE01.jpg,MN,1,num_4,32,num_8,1.28346141009,,,2017_Apr_11_1847,60.0094890325,MAFE4ImagesEEG,001,100132,
AFNE01.JPG,AFNE01.JPG,AFNE01.JPG,AFNE01.JPG,AFNE01.JPG,AFNE01.JPG,5,9,59,3,,,,,,,,,,,,,,,,,,,,,,,AMSA01.jpg,AMNE14.jpg,AMSA16.jpg,AMNE03.jpg,AMNE03.jpg,MN,1,num_4,16,num_4,0.799991853535,,,2017_Apr_11_1847,60.0094890325,MAFE4ImagesEEG,001,100132,
,,,,,,,,,,,,,,,,,,,,,,,,,,,,,,,,,,,,,,,,,,,space,6.14967382373,2017_Apr_11_1847,60.0094890325,MAFE4ImagesEEG,001,100132,
AFNE01.JPG,AFNE01.JPG,AFNE01.JPG,AFNE01.JPG,AFNE01.JPG,AFNE01.JPG,,,,,0,0,0,2,,,,,,,,,,,,,,,,,,,AFSA13.jpg,AFNE18.jpg,AFSA05.jpg,AFNE17.jpg,AFNE17.jpg,FN,3,num_4,32,num_8,0.96673095366,,,2017_Apr_11_1847,60.0094890325,MAFE4ImagesEEG,001,100132,
AFNE01.JPG,AFNE01.JPG,AFNE01.JPG,AFNE01.JPG,AFNE01.JPG,AFNE01.JPG,,,,,0,1,1,1,,,,,,,,,,,,,,,,,,,AFNE16.jpg,AFSA05.jpg,AFSA02.jpg,AFNE09.jpg,AFSA02.jpg,FS,4,num_2,32,num_4,0.716789729428,,,2017_Apr_11_1847,60.0094890325,MAFE4ImagesEEG,001,100132,
AFNE01.JPG,AFNE01.JPG,AFNE01.JPG,AFNE01.JPG,AFNE01.JPG,AFNE01.JPG,,,,,0,2,2,0,,,,,,,,,,,,,,,,,,,AFSA09.jpg,AFNE04.jpg,AFNE16.jpg,AFSA04.jpg,AFSA09.jpg,FS,4,num_8,16,num_8,1.61675775144,,,2017_Apr_11_1847,60.0094890325,MAFE4ImagesEEG,001,100132,
AFNE01.JPG,AFNE01.JPG,AFNE01.JPG,AFNE01.JPG,AFNE01.JPG,AFNE01.JPG,,,,,0,3,3,8,,,,,,,,,,,,,,,,,,,AFNE20.jpg,AFNE02.jpg,AFSA04.jpg,AFSA06.jpg,AFNE02.jpg,FN,3,num_6,32,num_2,1.76668367628,,,2017_Apr_11_1847,60.0094890325,MAFE4ImagesEEG,001,100132,
AFNE01.JPG,AFNE01.JPG,AFNE01.JPG,AFNE01.JPG,AFNE01.JPG,AFNE01.JPG,,,,,0,4,4,4,,,,,,,,,,,,,,,,,,,AFSA10.jpg,AFNE17.jpg,AFSA01.jpg,AFNE19.jpg,AFNE17.jpg,FN,3,num_6,16,num_6,0.71679806849,,,2017_Apr_11_1847,60.0094890325,MAFE4ImagesEEG,001,100132,
AFNE01.JPG,AFNE01.JPG,AFNE01.JPG,AFNE01.JPG,AFNE01.JPG,AFNE01.JPG,,,,,0,5,5,9,,,,,,,,,,,,,,,,,,,AFSA13.jpg,AFSA06.jpg,AFNE13.jpg,AFNE17.jpg,AFNE13.jpg,FN,3,num_2,16,num_2,0.766777653247,,,2017_Apr_11_1847,60.0094890325,MAFE4ImagesEEG,001,100132,
AFNE01.JPG,AFNE01.JPG,AFNE01.JPG,AFNE01.JPG,AFNE01.JPG,AFNE01.JPG,,,,,0,6,6,5,,,,,,,,,,,,,,,,,,,AFSA19.jpg,AFNE16.jpg,AFNE04.jpg,AFSA14.jpg,AFSA14.jpg,FS,4,num_4,32,num_8,2.5665565352,,,2017_Apr_11_1847,60.0094890325,MAFE4ImagesEEG,001,100132,
AFNE01.JPG,AFNE01.JPG,AFNE01.JPG,AFNE01.JPG,AFNE01.JPG,AFNE01.JPG,,,,,0,7,7,6,,,,,,,,,,,,,,,,,,,AFNE14.jpg,AFSA01.jpg,AFNE02.jpg,AFSA05.jpg,AFNE02.jpg,FN,3,num_2,16,num_2,1.11650035763,,,2017_Apr_11_1847,60.0094890325,MAFE4ImagesEEG,001,100132,
AFNE01.JPG,AFNE01.JPG,AFNE01.JPG,AFNE01.JPG,AFNE01.JPG,AFNE01.JPG,,,,,0,8,8,3,,,,,,,,,,,,,,,,,,,AFNE20.jpg,AFSA19.jpg,AFSA02.jpg,AFNE16.jpg,AFSA19.jpg,FS,4,num_6,32,num_4,1.16677341983,,,2017_Apr_11_1847,60.0094890325,MAFE4ImagesEEG,001,100132,
AFNE01.JPG,AFNE01.JPG,AFNE01.JPG,AFNE01.JPG,AFNE01.JPG,AFNE01.JPG,,,,,0,9,9,7,,,,,,,,,,,,,,,,,,,AFNE04.jpg,AFSA17.jpg,AFNE13.jpg,AFSA16.jpg,AFNE04.jpg,FN,3,num_8,16,num_8,0.666813351214,,,2017_Apr_11_1847,60.0094890325,MAFE4ImagesEEG,001,100132,
AFNE01.JPG,AFNE01.JPG,AFNE01.JPG,AFNE01.JPG,AFNE01.JPG,AFNE01.JPG,,,,,1,0,10,8,,,,,,,,,,,,,,,,,,,AFNE18.jpg,AFSA06.jpg,AFNE12.jpg,AFSA02.jpg,AFSA02.jpg,FS,4,num_4,32,num_6,1.4000493302,,,2017_Apr_11_1847,60.0094890325,MAFE4ImagesEEG,001,100132,
AFNE01.JPG,AFNE01.JPG,AFNE01.JPG,AFNE01.JPG,AFNE01.JPG,AFNE01.JPG,,,,,1,1,11,5,,,,,,,,,,,,,,,,,,,AFSA07.jpg,AFSA13.jpg,AFNE05.jpg,AFNE10.jpg,AFSA13.jpg,FS,4,num_6,16,num_6,0.900160465855,,,2017_Apr_11_1847,60.0094890325,MAFE4ImagesEEG,001,100132,
AFNE01.JPG,AFNE01.JPG,AFNE01.JPG,AFNE01.JPG,AFNE01.JPG,AFNE01.JPG,,,,,1,2,12,0,,,,,,,,,,,,,,,,,,,AFNE10.jpg,AFNE12.jpg,AFSA11.jpg,AFSA10.jpg,AFSA10.jpg,FS,4,num_4,16,num_4,1.78335700929,,,2017_Apr_11_1847,60.0094890325,MAFE4ImagesEEG,001,100132,
AFNE01.JPG,AFNE01.JPG,AFNE01.JPG,AFNE01.JPG,AFNE01.JPG,AFNE01.JPG,,,,,1,3,13,6,,,,,,,,,,,,,,,,,,,AFNE02.jpg,AFNE14.jpg,AFSA04.jpg,AFSA01.jpg,AFNE14.jpg,FN,3,num_6,16,num_6,1.00007505296,,,2017_Apr_11_1847,60.0094890325,MAFE4ImagesEEG,001,100132,
AFNE01.JPG,AFNE01.JPG,AFNE01.JPG,AFNE01.JPG,AFNE01.JPG,AFNE01.JPG,,,,,1,4,14,3,,,,,,,,,,,,,,,,,,,AFNE06.jpg,AFSA10.jpg,AFNE20.jpg,AFSA13.jpg,AFNE20.jpg,FN,3,num_2,16,num_2,1.30014308169,,,2017_Apr_11_1847,60.0094890325,MAFE4ImagesEEG,001,100132,
AFNE01.JPG,AFNE01.JPG,AFNE01.JPG,AFNE01.JPG,AFNE01.JPG,AFNE01.JPG,,,,,1,5,15,1,,,,,,,,,,,,,,,,,,,AFSA17.jpg,AFSA07.jpg,AFNE15.jpg,AFNE18.jpg,AFSA17.jpg,FS,4,num_8,32,num_4,0.900146674365,,,2017_Apr_11_1847,60.0094890325,MAFE4ImagesEEG,001,100132,
AFNE01.JPG,AFNE01.JPG,AFNE01.JPG,AFNE01.JPG,AFNE01.JPG,AFNE01.JPG,,,,,1,6,16,7,,,,,,,,,,,,,,,,,,,AFSA05.jpg,AFSA02.jpg,AFNE09.jpg,AFNE15.jpg,AFSA02.jpg,FS,4,num_6,32,num_8,1.08344973531,,,2017_Apr_11_1847,60.0094890325,MAFE4ImagesEEG,001,100132,
AFNE01.JPG,AFNE01.JPG,AFNE01.JPG,AFNE01.JPG,AFNE01.JPG,AFNE01.JPG,,,,,1,7,17,2,,,,,,,,,,,,,,,,,,,AFNE14.jpg,AFNE02.jpg,AFSA10.jpg,AFSA11.jpg,AFNE02.jpg,FN,3,num_6,32,num_8,0.916796592996,,,2017_Apr_11_1847,60.0094890325,MAFE4ImagesEEG,001,100132,
AFNE01.JPG,AFNE01.JPG,AFNE01.JPG,AFNE01.JPG,AFNE01.JPG,AFNE01.JPG,,,,,1,8,18,9,,,,,,,,,,,,,,,,,,,AFNE20.jpg,AFNE01.jpg,AFSA18.jpg,AFSA06.jpg,AFNE01.jpg,FN,3,num_6,32,num_2,1.31674745539,,,2017_Apr_11_1847,60.0094890325,MAFE4ImagesEEG,001,100132,
AFNE01.JPG,AFNE01.JPG,AFNE01.JPG,AFNE01.JPG,AFNE01.JPG,AFNE01.JPG,,,,,1,9,19,4,,,,,,,,,,,,,,,,,,,AFSA01.jpg,AFNE17.jpg,AFNE08.jpg,AFSA20.jpg,AFSA20.jpg,FS,4,num_4,16,num_4,0.483572193887,,,2017_Apr_11_1847,60.0094890325,MAFE4ImagesEEG,001,100132,
AFNE01.JPG,AFNE01.JPG,AFNE01.JPG,AFNE01.JPG,AFNE01.JPG,AFNE01.JPG,,,,,2,0,20,0,,,,,,,,,,,,,,,,,,,AFNE19.jpg,AFSA11.jpg,AFNE01.jpg,AFSA01.jpg,AFSA11.jpg,FS,4,num_6,16,num_6,1.21678668214,,,2017_Apr_11_1847,60.0094890325,MAFE4ImagesEEG,001,100132,
AFNE01.JPG,AFNE01.JPG,AFNE01.JPG,AFNE01.JPG,AFNE01.JPG,AFNE01.JPG,,,,,2,1,21,9,,,,,,,,,,,,,,,,,,,AFNE02.jpg,AFNE17.jpg,AFSA11.jpg,AFSA08.jpg,AFNE17.jpg,FN,3,num_6,32,num_4,0.767037773505,,,2017_Apr_11_1847,60.0094890325,MAFE4ImagesEEG,001,100132,
AFNE01.JPG,AFNE01.JPG,AFNE01.JPG,AFNE01.JPG,AFNE01.JPG,AFNE01.JPG,,,,,2,2,22,6,,,,,,,,,,,,,,,,,,,AFNE03.jpg,AFNE01.jpg,AFSA06.jpg,AFSA15.jpg,AFSA06.jpg,FS,4,num_2,16,num_2,1.1000839374,,,2017_Apr_11_1847,60.0094890325,MAFE4ImagesEEG,001,100132,
AFNE01.JPG,AFNE01.JPG,AFNE01.JPG,AFNE01.JPG,AFNE01.JPG,AFNE01.JPG,,,,,2,3,23,1,,,,,,,,,,,,,,,,,,,AFNE11.jpg,AFSA03.jpg,AFSA14.jpg,AFNE12.jpg,AFNE12.jpg,FN,3,num_4,32,num_6,1.06679853378,,,2017_Apr_11_1847,60.0094890325,MAFE4ImagesEEG,001,100132,
AFNE01.JPG,AFNE01.JPG,AFNE01.JPG,AFNE01.JPG,AFNE01.JPG,AFNE01.JPG,,,,,2,4,24,8,,,,,,,,,,,,,,,,,,,AFNE14.jpg,AFSA03.jpg,AFNE19.jpg,AFSA15.jpg,AFNE19.jpg,FN,3,num_2,32,num_4,0.633522494696,,,2017_Apr_11_1847,60.0094890325,MAFE4ImagesEEG,001,100132,
AFNE01.JPG,AFNE01.JPG,AFNE01.JPG,AFNE01.JPG,AFNE01.JPG,AFNE01.JPG,,,,,2,5,25,3,,,,,,,,,,,,,,,,,,,AFSA02.jpg,AFSA09.jpg,AFNE16.jpg,AFNE08.jpg,AFSA09.jpg,FS,4,num_6,16,num_6,0.783500059508,,,2017_Apr_11_1847,60.0094890325,MAFE4ImagesEEG,001,100132,
AFNE01.JPG,AFNE01.JPG,AFNE01.JPG,AFNE01.JPG,AFNE01.JPG,AFNE01.JPG,,,,,2,6,26,7,,,,,,,,,,,,,,,,,,,AFNE05.jpg,AFSA04.jpg,AFSA07.jpg,AFNE19.jpg,AFSA04.jpg,FS,4,num_6,32,num_2,1.14999744995,,,2017_Apr_11_1847,60.0094890325,MAFE4ImagesEEG,001,100132,
AFNE01.JPG,AFNE01.JPG,AFNE01.JPG,AFNE01.JPG,AFNE01.JPG,AFNE01.JPG,,,,,2,7,27,4,,,,,,,,,,,,,,,,,,,AFNE07.jpg,AFSA09.jpg,AFSA07.jpg,AFNE09.jpg,AFSA09.jpg,FS,4,num_6,32,num_2,0.866861911491,,,2017_Apr_11_1847,60.0094890325,MAFE4ImagesEEG,001,100132,
AFNE01.JPG,AFNE01.JPG,AFNE01.JPG,AFNE01.JPG,AFNE01.JPG,AFNE01.JPG,,,,,2,8,28,5,,,,,,,,,,,,,,,,,,,AFSA20.jpg,AFNE07.jpg,AFSA17.jpg,AFNE11.jpg,AFNE11.jpg,FN,3,num_4,32,num_8,0.883536206558,,,2017_Apr_11_1847,60.0094890325,MAFE4ImagesEEG,001,100132,
AFNE01.JPG,AFNE01.JPG,AFNE01.JPG,AFNE01.JPG,AFNE01.JPG,AFNE01.JPG,,,,,2,9,29,2,,,,,,,,,,,,,,,,,,,AFNE19.jpg,AFNE20.jpg,AFSA04.jpg,AFSA11.jpg,AFNE20.jpg,FN,3,num_6,32,num_4,1.59980697883,,,2017_Apr_11_1847,60.0094890325,MAFE4ImagesEEG,001,100132,
AFNE01.JPG,AFNE01.JPG,AFNE01.JPG,AFNE01.JPG,AFNE01.JPG,AFNE01.JPG,,,,,3,0,30,6,,,,,,,,,,,,,,,,,,,AFSA04.jpg,AFNE17.jpg,AFSA01.jpg,AFNE04.jpg,AFNE04.jpg,FN,3,num_4,32,num_2,1.36663979944,,,2017_Apr_11_1847,60.0094890325,MAFE4ImagesEEG,001,100132,
AFNE01.JPG,AFNE01.JPG,AFNE01.JPG,AFNE01.JPG,AFNE01.JPG,AFNE01.JPG,,,,,3,1,31,8,,,,,,,,,,,,,,,,,,,AFSA15.jpg,AFNE08.jpg,AFSA17.jpg,AFNE14.jpg,AFNE08.jpg,FN,3,num_6,16,num_6,0.966801195871,,,2017_Apr_11_1847,60.0094890325,MAFE4ImagesEEG,001,100132,
AFNE01.JPG,AFNE01.JPG,AFNE01.JPG,AFNE01.JPG,AFNE01.JPG,AFNE01.JPG,,,,,3,2,32,3,,,,,,,,,,,,,,,,,,,AFNE12.jpg,AFSA15.jpg,AFNE18.jpg,AFSA19.jpg,AFNE12.jpg,FN,3,num_8,16,num_8,0.816746333148,,,2017_Apr_11_1847,60.0094890325,MAFE4ImagesEEG,001,100132,
AFNE01.JPG,AFNE01.JPG,AFNE01.JPG,AFNE01.JPG,AFNE01.JPG,AFNE01.JPG,,,,,3,3,33,4,,,,,,,,,,,,,,,,,,,AFSA06.jpg,AFNE05.jpg,AFSA18.jpg,AFNE16.jpg,AFNE16.jpg,FN,3,num_4,32,num_6,1.16671889368,,,2017_Apr_11_1847,60.0094890325,MAFE4ImagesEEG,001,100132,
AFNE01.JPG,AFNE01.JPG,AFNE01.JPG,AFNE01.JPG,AFNE01.JPG,AFNE01.JPG,,,,,3,4,34,1,,,,,,,,,,,,,,,,,,,AFNE17.jpg,AFSA11.jpg,AFSA03.jpg,AFNE18.jpg,AFNE17.jpg,FN,3,num_8,32,num_4,0.683453647885,,,2017_Apr_11_1847,60.0094890325,MAFE4ImagesEEG,001,100132,
AFNE01.JPG,AFNE01.JPG,AFNE01.JPG,AFNE01.JPG,AFNE01.JPG,AFNE01.JPG,,,,,3,5,35,0,,,,,,,,,,,,,,,,,,,AFSA11.jpg,AFSA06.jpg,AFNE03.jpg,AFNE02.jpg,AFNE02.jpg,FN,3,num_4,16,num_4,0.783442646731,,,2017_Apr_11_1847,60.0094890325,MAFE4ImagesEEG,001,100132,
AFNE01.JPG,AFNE01.JPG,AFNE01.JPG,AFNE01.JPG,AFNE01.JPG,AFNE01.JPG,,,,,3,6,36,7,,,,,,,,,,,,,,,,,,,AFNE15.jpg,AFNE13.jpg,AFSA01.jpg,AFSA17.jpg,AFNE13.jpg,FN,3,num_6,32,num_8,1.20012906566,,,2017_Apr_11_1847,60.0094890325,MAFE4ImagesEEG,001,100132,
AFNE01.JPG,AFNE01.JPG,AFNE01.JPG,AFNE01.JPG,AFNE01.JPG,AFNE01.JPG,,,,,3,7,37,5,,,,,,,,,,,,,,,,,,,AFNE04.jpg,AFSA14.jpg,AFNE05.jpg,AFSA03.jpg,AFSA14.jpg,FS,4,num_6,16,num_6,0.933441700879,,,2017_Apr_11_1847,60.0094890325,MAFE4ImagesEEG,001,100132,
AFNE01.JPG,AFNE01.JPG,AFNE01.JPG,AFNE01.JPG,AFNE01.JPG,AFNE01.JPG,,,,,3,8,38,2,,,,,,,,,,,,,,,,,,,AFSA05.jpg,AFNE17.jpg,AFSA03.jpg,AFNE11.jpg,AFNE17.jpg,FN,3,num_6,32,num_8,0.633557775989,,,2017_Apr_11_1847,60.0094890325,MAFE4ImagesEEG,001,100132,
AFNE01.JPG,AFNE01.JPG,AFNE01.JPG,AFNE01.JPG,AFNE01.JPG,AFNE01.JPG,,,,,3,9,39,9,,,,,,,,,,,,,,,,,,,AFNE04.jpg,AFSA13.jpg,AFNE12.jpg,AFSA20.jpg,AFSA13.jpg,FS,4,num_6,16,num_6,0.700047758408,,,2017_Apr_11_1847,60.0094890325,MAFE4ImagesEEG,001,100132,
AFNE01.JPG,AFNE01.JPG,AFNE01.JPG,AFNE01.JPG,AFNE01.JPG,AFNE01.JPG,,,,,4,0,40,8,,,,,,,,,,,,,,,,,,,AFNE08.jpg,AFSA13.jpg,AFNE19.jpg,AFSA03.jpg,AFSA13.jpg,FS,4,num_6,16,num_6,1.06649383111,,,2017_Apr_11_1847,60.0094890325,MAFE4ImagesEEG,001,100132,
AFNE01.JPG,AFNE01.JPG,AFNE01.JPG,AFNE01.JPG,AFNE01.JPG,AFNE01.JPG,,,,,4,1,41,4,,,,,,,,,,,,,,,,,,,AFSA11.jpg,AFNE15.jpg,AFNE08.jpg,AFSA07.jpg,AFNE15.jpg,FN,3,num_6,32,num_8,1.03351473296,,,2017_Apr_11_1847,60.0094890325,MAFE4ImagesEEG,001,100132,
AFNE01.JPG,AFNE01.JPG,AFNE01.JPG,AFNE01.JPG,AFNE01.JPG,AFNE01.JPG,,,,,4,2,42,1,,,,,,,,,,,,,,,,,,,AFNE11.jpg,AFNE05.jpg,AFSA10.jpg,AFSA14.jpg,AFNE11.jpg,FN,3,num_8,16,num_8,1.20012104698,,,2017_Apr_11_1847,60.0094890325,MAFE4ImagesEEG,001,100132,
AFNE01.JPG,AFNE01.JPG,AFNE01.JPG,AFNE01.JPG,AFNE01.JPG,AFNE01.JPG,,,,,4,3,43,5,,,,,,,,,,,,,,,,,,,AFNE19.jpg,AFNE06.jpg,AFSA16.jpg,AFSA17.jpg,AFNE19.jpg,FN,3,num_8,16,num_8,1.41680862056,,,2017_Apr_11_1847,60.0094890325,MAFE4ImagesEEG,001,100132,
AFNE01.JPG,AFNE01.JPG,AFNE01.JPG,AFNE01.JPG,AFNE01.JPG,AFNE01.JPG,,,,,4,4,44,9,,,,,,,,,,,,,,,,,,,AFSA04.jpg,AFNE17.jpg,AFNE08.jpg,AFSA07.jpg,AFNE08.jpg,FN,3,num_2,16,num_2,0.766829613131,,,2017_Apr_11_1847,60.0094890325,MAFE4ImagesEEG,001,100132,
AFNE01.JPG,AFNE01.JPG,AFNE01.JPG,AFNE01.JPG,AFNE01.JPG,AFNE01.JPG,,,,,4,5,45,0,,,,,,,,,,,,,,,,,,,AFNE07.jpg,AFSA02.jpg,AFSA10.jpg,AFNE16.jpg,AFNE07.jpg,FN,3,num_8,16,num_8,0.750138319097,,,2017_Apr_11_1847,60.0094890325,MAFE4ImagesEEG,001,100132,
AFNE01.JPG,AFNE01.JPG,AFNE01.JPG,AFNE01.JPG,AFNE01.JPG,AFNE01.JPG,,,,,4,6,46,7,,,,,,,,,,,,,,,,,,,AFSA10.jpg,AFSA09.jpg,AFNE06.jpg,AFNE02.jpg,AFSA10.jpg,FS,4,num_8,32,num_2,0.716837840155,,,2017_Apr_11_1847,60.0094890325,MAFE4ImagesEEG,001,100132,
AFNE01.JPG,AFNE01.JPG,AFNE01.JPG,AFNE01.JPG,AFNE01.JPG,AFNE01.JPG,,,,,4,7,47,2,,,,,,,,,,,,,,,,,,,AFSA04.jpg,AFNE16.jpg,AFSA14.jpg,AFNE05.jpg,AFNE16.jpg,FN,3,num_6,16,num_6,1.03336655116,,,2017_Apr_11_1847,60.0094890325,MAFE4ImagesEEG,001,100132,
AFNE01.JPG,AFNE01.JPG,AFNE01.JPG,AFNE01.JPG,AFNE01.JPG,AFNE01.JPG,,,,,4,8,48,6,,,,,,,,,,,,,,,,,,,AFSA10.jpg,AFSA03.jpg,AFNE02.jpg,AFNE01.jpg,AFNE01.jpg,FN,3,num_4,32,num_8,0.900128392503,,,2017_Apr_11_1847,60.0094890325,MAFE4ImagesEEG,001,100132,
AFNE01.JPG,AFNE01.JPG,AFNE01.JPG,AFNE01.JPG,AFNE01.JPG,AFNE01.JPG,,,,,4,9,49,3,,,,,,,,,,,,,,,,,,,AFSA01.jpg,AFNE18.jpg,AFNE17.jpg,AFSA11.jpg,AFSA01.jpg,FS,4,num_8,16,num_8,1.21678443672,,,2017_Apr_11_1847,60.0094890325,MAFE4ImagesEEG,001,100132,
AFNE01.JPG,AFNE01.JPG,AFNE01.JPG,AFNE01.JPG,AFNE01.JPG,AFNE01.JPG,,,,,5,0,50,3,,,,,,,,,,,,,,,,,,,AFNE18.jpg,AFSA15.jpg,AFSA13.jpg,AFNE10.jpg,AFSA15.jpg,FS,4,num_6,16,num_6,0.750364761334,,,2017_Apr_11_1847,60.0094890325,MAFE4ImagesEEG,001,100132,
AFNE01.JPG,AFNE01.JPG,AFNE01.JPG,AFNE01.JPG,AFNE01.JPG,AFNE01.JPG,,,,,5,1,51,9,,,,,,,,,,,,,,,,,,,AFNE14.jpg,AFNE20.jpg,AFSA13.jpg,AFSA20.jpg,AFSA13.jpg,FS,4,num_2,16,num_2,0.804105660412,,,2017_Apr_11_1847,60.0094890325,MAFE4ImagesEEG,001,100132,
AFNE01.JPG,AFNE01.JPG,AFNE01.JPG,AFNE01.JPG,AFNE01.JPG,AFNE01.JPG,,,,,5,2,52,2,,,,,,,,,,,,,,,,,,,AFNE12.jpg,AFNE19.jpg,AFSA19.jpg,AFSA09.jpg,AFNE19.jpg,FN,3,num_6,16,num_6,0.846282290295,,,2017_Apr_11_1847,60.0094890325,MAFE4ImagesEEG,001,100132,
AFNE01.JPG,AFNE01.JPG,AFNE01.JPG,AFNE01.JPG,AFNE01.JPG,AFNE01.JPG,,,,,5,3,53,7,,,,,,,,,,,,,,,,,,,AFNE03.jpg,AFSA06.jpg,AFSA10.jpg,AFNE08.jpg,AFSA10.jpg,FS,4,num_2,16,num_2,0.707106918097,,,2017_Apr_11_1847,60.0094890325,MAFE4ImagesEEG,001,100132,
AFNE01.JPG,AFNE01.JPG,AFNE01.JPG,AFNE01.JPG,AFNE01.JPG,AFNE01.JPG,,,,,5,4,54,1,,,,,,,,,,,,,,,,,,,AFNE11.jpg,AFSA04.jpg,AFNE09.jpg,AFSA15.jpg,AFNE11.jpg,FN,3,num_8,16,num_8,0.816842875443,,,2017_Apr_11_1847,60.0094890325,MAFE4ImagesEEG,001,100132,
AFNE01.JPG,AFNE01.JPG,AFNE01.JPG,AFNE01.JPG,AFNE01.JPG,AFNE01.JPG,,,,,5,5,55,5,,,,,,,,,,,,,,,,,,,AFSA16.jpg,AFNE14.jpg,AFNE03.jpg,AFSA08.jpg,AFSA16.jpg,FS,4,num_8,32,num_4,0.750159167219,,,2017_Apr_11_1847,60.0094890325,MAFE4ImagesEEG,001,100132,
AFNE01.JPG,AFNE01.JPG,AFNE01.JPG,AFNE01.JPG,AFNE01.JPG,AFNE01.JPG,,,,,5,6,56,4,,,,,,,,,,,,,,,,,,,AFNE15.jpg,AFSA01.jpg,AFNE01.jpg,AFSA20.jpg,AFNE01.jpg,FN,3,num_2,32,num_4,1.08342920756,,,2017_Apr_11_1847,60.0094890325,MAFE4ImagesEEG,001,100132,
AFNE01.JPG,AFNE01.JPG,AFNE01.JPG,AFNE01.JPG,AFNE01.JPG,AFNE01.JPG,,,,,5,7,57,0,,,,,,,,,,,,,,,,,,,AFNE17.jpg,AFSA16.jpg,AFSA19.jpg,AFNE12.jpg,AFNE17.jpg,FN,3,num_8,16,num_8,1.01681125071,,,2017_Apr_11_1847,60.0094890325,MAFE4ImagesEEG,001,100132,
AFNE01.JPG,AFNE01.JPG,AFNE01.JPG,AFNE01.JPG,AFNE01.JPG,AFNE01.JPG,,,,,5,8,58,8,,,,,,,,,,,,,,,,,,,AFSA14.jpg,AFSA18.jpg,AFNE03.jpg,AFNE19.jpg,AFSA14.jpg,FS,4,num_8,32,num_4,0.350226586685,,,2017_Apr_11_1847,60.0094890325,MAFE4ImagesEEG,001,100132,
AFNE01.JPG,AFNE01.JPG,AFNE01.JPG,AFNE01.JPG,AFNE01.JPG,AFNE01.JPG,,,,,5,9,59,6,,,,,,,,,,,,,,,,,,,AFSA14.jpg,AFNE08.jpg,AFNE20.jpg,AFSA07.jpg,AFSA07.jpg,FS,4,num_4,32,num_8,1.45010525081,,,2017_Apr_11_1847,60.0094890325,MAFE4ImagesEEG,001,100132,
,,,,,,,,,,,,,,,,,,,,,,,,,,,,,,,,,,,,,,,,,,,space,8.83280160045,2017_Apr_11_1847,60.0094890325,MAFE4ImagesEEG,001,100132,
AFNE01.JPG,AFNE01.JPG,AFNE01.JPG,AFNE01.JPG,AFNE01.JPG,AFNE01.JPG,,,,,,,,,0,0,0,8,,,,,,,,,,,,,,,AMNE18.jpg,AMSA04.jpg,AMSA20.jpg,AMNE15.jpg,AMNE15.jpg,MN,1,num_4,32,num_8,1.19995233789,,,2017_Apr_11_1847,60.0094890325,MAFE4ImagesEEG,001,100132,
AFNE01.JPG,AFNE01.JPG,AFNE01.JPG,AFNE01.JPG,AFNE01.JPG,AFNE01.JPG,,,,,,,,,0,1,1,3,,,,,,,,,,,,,,,AMNE03.jpg,AMSA13.jpg,AMNE09.jpg,AMSA14.jpg,AMNE03.jpg,MN,1,num_8,16,num_8,1.10009035235,,,2017_Apr_11_1847,60.0094890325,MAFE4ImagesEEG,001,100132,
AFNE01.JPG,AFNE01.JPG,AFNE01.JPG,AFNE01.JPG,AFNE01.JPG,AFNE01.JPG,,,,,,,,,0,2,2,6,,,,,,,,,,,,,,,AMSA06.jpg,AMNE16.jpg,AMSA04.jpg,AMNE14.jpg,AMNE14.jpg,MN,1,num_4,16,num_4,0.566866369918,,,2017_Apr_11_1847,60.0094890325,MAFE4ImagesEEG,001,100132,
AFNE01.JPG,AFNE01.JPG,AFNE01.JPG,AFNE01.JPG,AFNE01.JPG,AFNE01.JPG,,,,,,,,,0,3,3,0,,,,,,,,,,,,,,,AMNE01.jpg,AMSA14.jpg,AMNE04.jpg,AMSA16.jpg,AMNE04.jpg,MN,1,num_2,32,num_4,0.833468738943,,,2017_Apr_11_1847,60.0094890325,MAFE4ImagesEEG,001,100132,
AFNE01.JPG,AFNE01.JPG,AFNE01.JPG,AFNE01.JPG,AFNE01.JPG,AFNE01.JPG,,,,,,,,,0,4,4,5,,,,,,,,,,,,,,,AMSA04.jpg,AMNE07.jpg,AMSA07.jpg,AMNE11.jpg,AMSA04.jpg,MS,2,num_8,16,num_8,1.15011868952,,,2017_Apr_11_1847,60.0094890325,MAFE4ImagesEEG,001,100132,
AFNE01.JPG,AFNE01.JPG,AFNE01.JPG,AFNE01.JPG,AFNE01.JPG,AFNE01.JPG,,,,,,,,,0,5,5,1,,,,,,,,,,,,,,,AMSA20.jpg,AMNE03.jpg,AMSA02.jpg,AMNE18.jpg,AMSA20.jpg,MS,2,num_8,32,num_6,0.833676578011,,,2017_Apr_11_1847,60.0094890325,MAFE4ImagesEEG,001,100132,
AFNE01.JPG,AFNE01.JPG,AFNE01.JPG,AFNE01.JPG,AFNE01.JPG,AFNE01.JPG,,,,,,,,,0,6,6,2,,,,,,,,,,,,,,,AMSA03.jpg,AMNE19.jpg,AMNE02.jpg,AMSA19.jpg,AMSA03.jpg,MS,2,num_8,16,num_8,1.01675159344,,,2017_Apr_11_1847,60.0094890325,MAFE4ImagesEEG,001,100132,
AFNE01.JPG,AFNE01.JPG,AFNE01.JPG,AFNE01.JPG,AFNE01.JPG,AFNE01.JPG,,,,,,,,,0,7,7,7,,,,,,,,,,,,,,,AMSA02.jpg,AMNE06.jpg,AMNE10.jpg,AMSA17.jpg,AMSA17.jpg,MS,2,num_4,16,num_4,0.616800409742,,,2017_Apr_11_1847,60.0094890325,MAFE4ImagesEEG,001,100132,
AFNE01.JPG,AFNE01.JPG,AFNE01.JPG,AFNE01.JPG,AFNE01.JPG,AFNE01.JPG,,,,,,,,,0,8,8,4,,,,,,,,,,,,,,,AMSA08.jpg,AMNE07.jpg,AMNE19.jpg,AMSA19.jpg,AMSA08.jpg,MS,2,num_8,16,num_8,0.85013886448,,,2017_Apr_11_1847,60.0094890325,MAFE4ImagesEEG,001,100132,
AFNE01.JPG,AFNE01.JPG,AFNE01.JPG,AFNE01.JPG,AFNE01.JPG,AFNE01.JPG,,,,,,,,,0,9,9,9,,,,,,,,,,,,,,,AMSA20.jpg,AMSA01.jpg,AMNE10.jpg,AMNE20.jpg,AMSA01.jpg,MS,2,num_6,16,num_6,0.83350658603,,,2017_Apr_11_1847,60.0094890325,MAFE4ImagesEEG,001,100132,
AFNE01.JPG,AFNE01.JPG,AFNE01.JPG,AFNE01.JPG,AFNE01.JPG,AFNE01.JPG,,,,,,,,,1,0,10,6,,,,,,,,,,,,,,,AMNE16.jpg,AMSA02.jpg,AMNE10.jpg,AMSA15.jpg,AMSA15.jpg,MS,2,num_4,32,num_8,1.70005962579,,,2017_Apr_11_1847,60.0094890325,MAFE4ImagesEEG,001,100132,
AFNE01.JPG,AFNE01.JPG,AFNE01.JPG,AFNE01.JPG,AFNE01.JPG,AFNE01.JPG,,,,,,,,,1,1,11,0,,,,,,,,,,,,,,,AMSA12.jpg,AMNE03.jpg,AMNE07.jpg,AMSA02.jpg,AMSA12.jpg,MS,2,num_8,32,num_2,1.35010117711,,,2017_Apr_11_1847,60.0094890325,MAFE4ImagesEEG,001,100132,
AFNE01.JPG,AFNE01.JPG,AFNE01.JPG,AFNE01.JPG,AFNE01.JPG,AFNE01.JPG,,,,,,,,,1,2,12,5,,,,,,,,,,,,,,,AMNE02.jpg,AMSA01.jpg,AMSA11.jpg,AMNE08.jpg,AMSA01.jpg,MS,2,num_6,16,num_6,0.900153089315,,,2017_Apr_11_1847,60.0094890325,MAFE4ImagesEEG,001,100132,
AFNE01.JPG,AFNE01.JPG,AFNE01.JPG,AFNE01.JPG,AFNE01.JPG,AFNE01.JPG,,,,,,,,,1,3,13,1,,,,,,,,,,,,,,,AMSA09.jpg,AMNE08.jpg,AMNE10.jpg,AMSA20.jpg,AMNE10.jpg,MN,1,num_2,32,num_8,0.883531716187,,,2017_Apr_11_1847,60.0094890325,MAFE4ImagesEEG,001,100132,
AFNE01.JPG,AFNE01.JPG,AFNE01.JPG,AFNE01.JPG,AFNE01.JPG,AFNE01.JPG,,,,,,,,,1,4,14,4,,,,,,,,,,,,,,,AMNE08.jpg,AMSA15.jpg,AMSA14.jpg,AMNE09.jpg,AMSA14.jpg,MS,2,num_2,16,num_2,0.666759788059,,,2017_Apr_11_1847,60.0094890325,MAFE4ImagesEEG,001,100132,
AFNE01.JPG,AFNE01.JPG,AFNE01.JPG,AFNE01.JPG,AFNE01.JPG,AFNE01.JPG,,,,,,,,,1,5,15,3,,,,,,,,,,,,,,,AMSA02.jpg,AMSA06.jpg,AMNE20.jpg,AMNE17.jpg,AMSA06.jpg,MS,2,num_6,32,num_8,1.11675598705,,,2017_Apr_11_1847,60.0094890325,MAFE4ImagesEEG,001,100132,
AFNE01.JPG,AFNE01.JPG,AFNE01.JPG,AFNE01.JPG,AFNE01.JPG,AFNE01.JPG,,,,,,,,,1,6,16,2,,,,,,,,,,,,,,,AMNE01.jpg,AMSA02.jpg,AMSA19.jpg,AMNE09.jpg,AMSA19.jpg,MS,2,num_2,16,num_2,1.0167538384,,,2017_Apr_11_1847,60.0094890325,MAFE4ImagesEEG,001,100132,
AFNE01.JPG,AFNE01.JPG,AFNE01.JPG,AFNE01.JPG,AFNE01.JPG,AFNE01.JPG,,,,,,,,,1,7,17,7,,,,,,,,,,,,,,,AMNE13.jpg,AMSA15.jpg,AMNE03.jpg,AMSA02.jpg,AMSA15.jpg,MS,2,num_6,32,num_8,0.633477912284,,,2017_Apr_11_1847,60.0094890325,MAFE4ImagesEEG,001,100132,
AFNE01.JPG,AFNE01.JPG,AFNE01.JPG,AFNE01.JPG,AFNE01.JPG,AFNE01.JPG,,,,,,,,,1,8,18,9,,,,,,,,,,,,,,,AMSA15.jpg,AMNE11.jpg,AMNE12.jpg,AMSA07.jpg,AMSA07.jpg,MS,2,num_4,32,num_6,1.1000967673,,,2017_Apr_11_1847,60.0094890325,MAFE4ImagesEEG,001,100132,
AFNE01.JPG,AFNE01.JPG,AFNE01.JPG,AFNE01.JPG,AFNE01.JPG,AFNE01.JPG,,,,,,,,,1,9,19,8,,,,,,,,,,,,,,,AMSA04.jpg,AMNE04.jpg,AMSA01.jpg,AMNE09.jpg,AMSA01.jpg,MS,2,num_2,16,num_2,1.08343562298,,,2017_Apr_11_1847,60.0094890325,MAFE4ImagesEEG,001,100132,
AFNE01.JPG,AFNE01.JPG,AFNE01.JPG,AFNE01.JPG,AFNE01.JPG,AFNE01.JPG,,,,,,,,,2,0,20,7,,,,,,,,,,,,,,,AMNE09.jpg,AMNE12.jpg,AMSA17.jpg,AMSA08.jpg,AMSA08.jpg,MS,2,num_4,32,num_8,1.13343445212,,,2017_Apr_11_1847,60.0094890325,MAFE4ImagesEEG,001,100132,
AFNE01.JPG,AFNE01.JPG,AFNE01.JPG,AFNE01.JPG,AFNE01.JPG,AFNE01.JPG,,,,,,,,,2,1,21,0,,,,,,,,,,,,,,,AMSA01.jpg,AMNE16.jpg,AMSA16.jpg,AMNE03.jpg,AMSA16.jpg,MS,2,num_2,32,num_6,0.833454305306,,,2017_Apr_11_1847,60.0094890325,MAFE4ImagesEEG,001,100132,
AFNE01.JPG,AFNE01.JPG,AFNE01.JPG,AFNE01.JPG,AFNE01.JPG,AFNE01.JPG,,,,,,,,,2,2,22,8,,,,,,,,,,,,,,,AMSA16.jpg,AMNE06.jpg,AMSA04.jpg,AMNE01.jpg,AMNE06.jpg,MN,1,num_6,16,num_6,0.950139088556,,,2017_Apr_11_1847,60.0094890325,MAFE4ImagesEEG,001,100132,
AFNE01.JPG,AFNE01.JPG,AFNE01.JPG,AFNE01.JPG,AFNE01.JPG,AFNE01.JPG,,,,,,,,,2,3,23,4,,,,,,,,,,,,,,,AMSA13.jpg,AMSA17.jpg,AMNE17.jpg,AMNE11.jpg,AMNE17.jpg,MN,1,num_2,32,num_6,1.01676987531,,,2017_Apr_11_1847,60.0094890325,MAFE4ImagesEEG,001,100132,
AFNE01.JPG,AFNE01.JPG,AFNE01.JPG,AFNE01.JPG,AFNE01.JPG,AFNE01.JPG,,,,,,,,,2,4,24,5,,,,,,,,,,,,,,,AMSA10.jpg,AMNE19.jpg,AMSA14.jpg,AMNE20.jpg,AMSA10.jpg,MS,2,num_8,16,num_8,1.11671910249,,,2017_Apr_11_1847,60.0094890325,MAFE4ImagesEEG,001,100132,
AFNE01.JPG,AFNE01.JPG,AFNE01.JPG,AFNE01.JPG,AFNE01.JPG,AFNE01.JPG,,,,,,,,,2,5,25,1,,,,,,,,,,,,,,,AMSA08.jpg,AMNE08.jpg,AMNE16.jpg,AMSA11.jpg,AMSA08.jpg,MS,2,num_8,32,num_4,0.866790386382,,,2017_Apr_11_1847,60.0094890325,MAFE4ImagesEEG,001,100132,
AFNE01.JPG,AFNE01.JPG,AFNE01.JPG,AFNE01.JPG,AFNE01.JPG,AFNE01.JPG,,,,,,,,,2,6,26,6,,,,,,,,,,,,,,,AMNE19.jpg,AMSA14.jpg,AMSA02.jpg,AMNE04.jpg,AMSA02.jpg,MS,2,num_2,32,num_4,0.683482514694,,,2017_Apr_11_1847,60.0094890325,MAFE4ImagesEEG,001,100132,
AFNE01.JPG,AFNE01.JPG,AFNE01.JPG,AFNE01.JPG,AFNE01.JPG,AFNE01.JPG,,,,,,,,,2,7,27,2,,,,,,,,,,,,,,,AMSA09.jpg,AMNE09.jpg,AMSA04.jpg,AMNE07.jpg,AMSA09.jpg,MS,2,num_8,32,num_6,0.900118128397,,,2017_Apr_11_1847,60.0094890325,MAFE4ImagesEEG,001,100132,
AFNE01.JPG,AFNE01.JPG,AFNE01.JPG,AFNE01.JPG,AFNE01.JPG,AFNE01.JPG,,,,,,,,,2,8,28,3,,,,,,,,,,,,,,,AMSA04.jpg,AMSA10.jpg,AMNE08.jpg,AMNE19.jpg,AMNE08.jpg,MN,1,num_2,16,num_2,0.800170505419,,,2017_Apr_11_1847,60.0094890325,MAFE4ImagesEEG,001,100132,
AFNE01.JPG,AFNE01.JPG,AFNE01.JPG,AFNE01.JPG,AFNE01.JPG,AFNE01.JPG,,,,,,,,,2,9,29,9,,,,,,,,,,,,,,,AMNE10.jpg,AMNE12.jpg,AMSA06.jpg,AMSA18.jpg,AMNE10.jpg,MN,1,num_8,32,num_6,1.11671012174,,,2017_Apr_11_1847,60.0094890325,MAFE4ImagesEEG,001,100132,
AFNE01.JPG,AFNE01.JPG,AFNE01.JPG,AFNE01.JPG,AFNE01.JPG,AFNE01.JPG,,,,,,,,,3,0,30,7,,,,,,,,,,,,,,,AMNE11.jpg,AMSA07.jpg,AMNE04.jpg,AMSA06.jpg,AMNE11.jpg,MN,1,num_8,32,num_2,1.46674009459,,,2017_Apr_11_1847,60.0094890325,MAFE4ImagesEEG,001,100132,
AFNE01.JPG,AFNE01.JPG,AFNE01.JPG,AFNE01.JPG,AFNE01.JPG,AFNE01.JPG,,,,,,,,,3,1,31,8,,,,,,,,,,,,,,,AMSA11.jpg,AMNE01.jpg,AMNE17.jpg,AMSA08.jpg,AMNE17.jpg,MN,1,num_2,16,num_2,1.21651052544,,,2017_Apr_11_1847,60.0094890325,MAFE4ImagesEEG,001,100132,
AFNE01.JPG,AFNE01.JPG,AFNE01.JPG,AFNE01.JPG,AFNE01.JPG,AFNE01.JPG,,,,,,,,,3,2,32,4,,,,,,,,,,,,,,,AMSA16.jpg,AMSA04.jpg,AMNE06.jpg,AMNE10.jpg,AMNE10.jpg,MN,1,num_4,16,num_4,0.516862729099,,,2017_Apr_11_1847,60.0094890325,MAFE4ImagesEEG,001,100132,
AFNE01.JPG,AFNE01.JPG,AFNE01.JPG,AFNE01.JPG,AFNE01.JPG,AFNE01.JPG,,,,,,,,,3,3,33,6,,,,,,,,,,,,,,,AMSA19.jpg,AMNE03.jpg,AMNE07.jpg,AMSA06.jpg,AMNE07.jpg,MN,1,num_2,32,num_8,0.76678246446,,,2017_Apr_11_1847,60.0094890325,MAFE4ImagesEEG,001,100132,
AFNE01.JPG,AFNE01.JPG,AFNE01.JPG,AFNE01.JPG,AFNE01.JPG,AFNE01.JPG,,,,,,,,,3,4,34,1,,,,,,,,,,,,,,,AMNE15.jpg,AMNE07.jpg,AMSA15.jpg,AMSA06.jpg,AMNE07.jpg,MN,1,num_6,16,num_6,0.833441155497,,,2017_Apr_11_1847,60.0094890325,MAFE4ImagesEEG,001,100132,
AFNE01.JPG,AFNE01.JPG,AFNE01.JPG,AFNE01.JPG,AFNE01.JPG,AFNE01.JPG,,,,,,,,,3,5,35,0,,,,,,,,,,,,,,,AMSA07.jpg,AMSA05.jpg,AMNE11.jpg,AMNE16.jpg,AMSA05.jpg,MS,2,num_6,32,num_4,1.3501217044,,,2017_Apr_11_1847,60.0094890325,MAFE4ImagesEEG,001,100132,
AFNE01.JPG,AFNE01.JPG,AFNE01.JPG,AFNE01.JPG,AFNE01.JPG,AFNE01.JPG,,,,,,,,,3,6,36,2,,,,,,,,,,,,,,,AMNE16.jpg,AMNE17.jpg,AMSA19.jpg,AMSA02.jpg,AMNE16.jpg,MN,1,num_8,16,num_8,0.716785239056,,,2017_Apr_11_1847,60.0094890325,MAFE4ImagesEEG,001,100132,
AFNE01.JPG,AFNE01.JPG,AFNE01.JPG,AFNE01.JPG,AFNE01.JPG,AFNE01.JPG,,,,,,,,,3,7,37,9,,,,,,,,,,,,,,,AMSA18.jpg,AMSA19.jpg,AMNE15.jpg,AMNE11.jpg,AMNE11.jpg,MN,1,num_4,32,num_8,0.966696313582,,,2017_Apr_11_1847,60.0094890325,MAFE4ImagesEEG,001,100132,
AFNE01.JPG,AFNE01.JPG,AFNE01.JPG,AFNE01.JPG,AFNE01.JPG,AFNE01.JPG,,,,,,,,,3,8,38,5,,,,,,,,,,,,,,,AMNE20.jpg,AMSA03.jpg,AMSA18.jpg,AMNE13.jpg,AMSA18.jpg,MS,2,num_2,16,num_2,0.916840855032,,,2017_Apr_11_1847,60.0094890325,MAFE4ImagesEEG,001,100132,
AFNE01.JPG,AFNE01.JPG,AFNE01.JPG,AFNE01.JPG,AFNE01.JPG,AFNE01.JPG,,,,,,,,,3,9,39,3,,,,,,,,,,,,,,,AMSA20.jpg,AMNE09.jpg,AMNE08.jpg,AMSA11.jpg,AMNE09.jpg,MN,1,num_6,16,num_6,0.766752314754,,,2017_Apr_11_1847,60.0094890325,MAFE4ImagesEEG,001,100132,
AFNE01.JPG,AFNE01.JPG,AFNE01.JPG,AFNE01.JPG,AFNE01.JPG,AFNE01.JPG,,,,,,,,,4,0,40,2,,,,,,,,,,,,,,,AMNE16.jpg,AMSA19.jpg,AMNE07.jpg,AMSA17.jpg,AMNE16.jpg,MN,1,num_8,16,num_8,0.83345334325,,,2017_Apr_11_1847,60.0094890325,MAFE4ImagesEEG,001,100132,
AFNE01.JPG,AFNE01.JPG,AFNE01.JPG,AFNE01.JPG,AFNE01.JPG,AFNE01.JPG,,,,,,,,,4,1,41,6,,,,,,,,,,,,,,,AMNE07.jpg,AMSA09.jpg,AMSA04.jpg,AMNE05.jpg,AMNE07.jpg,MN,1,num_8,32,num_4,1.20009570848,,,2017_Apr_11_1847,60.0094890325,MAFE4ImagesEEG,001,100132,
AFNE01.JPG,AFNE01.JPG,AFNE01.JPG,AFNE01.JPG,AFNE01.JPG,AFNE01.JPG,,,,,,,,,4,2,42,7,,,,,,,,,,,,,,,AMSA12.jpg,AMNE19.jpg,AMSA02.jpg,AMNE02.jpg,AMSA02.jpg,MS,2,num_2,32,num_4,0.466780507471,,,2017_Apr_11_1847,60.0094890325,MAFE4ImagesEEG,001,100132,
AFNE01.JPG,AFNE01.JPG,AFNE01.JPG,AFNE01.JPG,AFNE01.JPG,AFNE01.JPG,,,,,,,,,4,3,43,4,,,,,,,,,,,,,,,AMNE02.jpg,AMSA10.jpg,AMSA05.jpg,AMNE03.jpg,AMNE03.jpg,MN,1,num_4,16,num_4,1.71670633694,,,2017_Apr_11_1847,60.0094890325,MAFE4ImagesEEG,001,100132,
AFNE01.JPG,AFNE01.JPG,AFNE01.JPG,AFNE01.JPG,AFNE01.JPG,AFNE01.JPG,,,,,,,,,4,4,44,3,,,,,,,,,,,,,,,AMNE17.jpg,AMSA19.jpg,AMNE18.jpg,AMSA20.jpg,AMSA20.jpg,MS,2,num_4,16,num_4,1.80002104025,,,2017_Apr_11_1847,60.0094890325,MAFE4ImagesEEG,001,100132,
AFNE01.JPG,AFNE01.JPG,AFNE01.JPG,AFNE01.JPG,AFNE01.JPG,AFNE01.JPG,,,,,,,,,4,5,45,8,,,,,,,,,,,,,,,AMNE11.jpg,AMSA10.jpg,AMSA02.jpg,AMNE06.jpg,AMSA02.jpg,MS,2,num_2,16,num_2,1.00000513159,,,2017_Apr_11_1847,60.0094890325,MAFE4ImagesEEG,001,100132,
AFNE01.JPG,AFNE01.JPG,AFNE01.JPG,AFNE01.JPG,AFNE01.JPG,AFNE01.JPG,,,,,,,,,4,6,46,9,,,,,,,,,,,,,,,AMNE06.jpg,AMSA11.jpg,AMNE03.jpg,AMSA07.jpg,AMNE03.jpg,MN,1,num_2,32,num_8,0.766797218472,,,2017_Apr_11_1847,60.0094890325,MAFE4ImagesEEG,001,100132,
AFNE01.JPG,AFNE01.JPG,AFNE01.JPG,AFNE01.JPG,AFNE01.JPG,AFNE01.JPG,,,,,,,,,4,7,47,1,,,,,,,,,,,,,,,AMNE07.jpg,AMNE11.jpg,AMSA16.jpg,AMSA05.jpg,AMNE11.jpg,MN,1,num_6,32,num_2,1.5493517369,,,2017_Apr_11_1847,60.0094890325,MAFE4ImagesEEG,001,100132,
AFNE01.JPG,AFNE01.JPG,AFNE01.JPG,AFNE01.JPG,AFNE01.JPG,AFNE01.JPG,,,,,,,,,4,8,48,5,,,,,,,,,,,,,,,AMSA20.jpg,AMNE15.jpg,AMSA07.jpg,AMNE19.jpg,AMNE15.jpg,MN,1,num_6,32,num_4,0.950107335579,,,2017_Apr_11_1847,60.0094890325,MAFE4ImagesEEG,001,100132,
AFNE01.JPG,AFNE01.JPG,AFNE01.JPG,AFNE01.JPG,AFNE01.JPG,AFNE01.JPG,,,,,,,,,4,9,49,0,,,,,,,,,,,,,,,AMSA20.jpg,AMNE19.jpg,AMSA06.jpg,AMNE20.jpg,AMNE19.jpg,MN,1,num_6,32,num_8,1.13344054623,,,2017_Apr_11_1847,60.0094890325,MAFE4ImagesEEG,001,100132,
AFNE01.JPG,AFNE01.JPG,AFNE01.JPG,AFNE01.JPG,AFNE01.JPG,AFNE01.JPG,,,,,,,,,5,0,50,1,,,,,,,,,,,,,,,AMNE20.jpg,AMNE12.jpg,AMSA04.jpg,AMSA17.jpg,AMSA17.jpg,MS,2,num_4,16,num_4,0.666777749546,,,2017_Apr_11_1847,60.0094890325,MAFE4ImagesEEG,001,100132,
AFNE01.JPG,AFNE01.JPG,AFNE01.JPG,AFNE01.JPG,AFNE01.JPG,AFNE01.JPG,,,,,,,,,5,1,51,7,,,,,,,,,,,,,,,AMNE14.jpg,AMNE17.jpg,AMSA19.jpg,AMSA02.jpg,AMSA02.jpg,MS,2,num_4,16,num_4,0.800230483525,,,2017_Apr_11_1847,60.0094890325,MAFE4ImagesEEG,001,100132,
AFNE01.JPG,AFNE01.JPG,AFNE01.JPG,AFNE01.JPG,AFNE01.JPG,AFNE01.JPG,,,,,,,,,5,2,52,9,,,,,,,,,,,,,,,AMSA05.jpg,AMSA03.jpg,AMNE03.jpg,AMNE10.jpg,AMSA03.jpg,MS,2,num_6,16,num_6,0.900158541743,,,2017_Apr_11_1847,60.0094890325,MAFE4ImagesEEG,001,100132,
AFNE01.JPG,AFNE01.JPG,AFNE01.JPG,AFNE01.JPG,AFNE01.JPG,AFNE01.JPG,,,,,,,,,5,3,53,2,,,,,,,,,,,,,,,AMSA11.jpg,AMNE13.jpg,AMSA05.jpg,AMNE07.jpg,AMSA11.jpg,MS,2,num_8,32,num_2,1.40011989279,,,2017_Apr_11_1847,60.0094890325,MAFE4ImagesEEG,001,100132,
AFNE01.JPG,AFNE01.JPG,AFNE01.JPG,AFNE01.JPG,AFNE01.JPG,AFNE01.JPG,,,,,,,,,5,4,54,3,,,,,,,,,,,,,,,AMNE13.jpg,AMSA14.jpg,AMNE03.jpg,AMSA19.jpg,AMSA14.jpg,MS,2,num_6,16,num_6,0.683491495438,,,2017_Apr_11_1847,60.0094890325,MAFE4ImagesEEG,001,100132,
AFNE01.JPG,AFNE01.JPG,AFNE01.JPG,AFNE01.JPG,AFNE01.JPG,AFNE01.JPG,,,,,,,,,5,5,55,0,,,,,,,,,,,,,,,AMNE20.jpg,AMNE07.jpg,AMSA06.jpg,AMSA04.jpg,AMNE07.jpg,MN,1,num_6,32,num_8,0.766809406225,,,2017_Apr_11_1847,60.0094890325,MAFE4ImagesEEG,001,100132,
AFNE01.JPG,AFNE01.JPG,AFNE01.JPG,AFNE01.JPG,AFNE01.JPG,AFNE01.JPG,,,,,,,,,5,6,56,6,,,,,,,,,,,,,,,AMNE20.jpg,AMSA17.jpg,AMSA02.jpg,AMNE05.jpg,AMNE20.jpg,MN,1,num_8,32,num_6,0.716803200543,,,2017_Apr_11_1847,60.0094890325,MAFE4ImagesEEG,001,100132,
AFNE01.JPG,AFNE01.JPG,AFNE01.JPG,AFNE01.JPG,AFNE01.JPG,AFNE01.JPG,,,,,,,,,5,7,57,5,,,,,,,,,,,,,,,AMNE14.jpg,AMNE01.jpg,AMSA04.jpg,AMSA01.jpg,AMSA04.jpg,MS,2,num_2,16,num_2,0.650168885477,,,2017_Apr_11_1847,60.0094890325,MAFE4ImagesEEG,001,100132,
AFNE01.JPG,AFNE01.JPG,AFNE01.JPG,AFNE01.JPG,AFNE01.JPG,AFNE01.JPG,,,,,,,,,5,8,58,4,,,,,,,,,,,,,,,AMNE14.jpg,AMSA20.jpg,AMSA10.jpg,AMNE01.jpg,AMSA20.jpg,MS,2,num_6,16,num_6,0.666745996568,,,2017_Apr_11_1847,60.0094890325,MAFE4ImagesEEG,001,100132,
AFNE01.JPG,AFNE01.JPG,AFNE01.JPG,AFNE01.JPG,AFNE01.JPG,AFNE01.JPG,,,,,,,,,5,9,59,8,,,,,,,,,,,,,,,AMNE02.jpg,AMNE15.jpg,AMSA11.jpg,AMSA09.jpg,AMNE15.jpg,MN,1,num_6,16,num_6,0.683463590685,,,2017_Apr_11_1847,60.0094890325,MAFE4ImagesEEG,001,100132,
,,,,,,,,,,,,,,,,,,,,,,,,,,,,,,,,,,,,,,,,,,,space,5.48310776241,2017_Apr_11_1847,60.0094890325,MAFE4ImagesEEG,001,100132,
AFNE01.JPG,AFNE01.JPG,AFNE01.JPG,AFNE01.JPG,AFNE01.JPG,AFNE01.JPG,,,,,,,,,,,,,0,0,0,3,,,,,,,,,,,AFSA06.jpg,AFSA03.jpg,AFNE15.jpg,AFNE04.jpg,AFSA03.jpg,FS,4,num_6,16,num_6,0.833485738374,,,2017_Apr_11_1847,60.0094890325,MAFE4ImagesEEG,001,100132,
AFNE01.JPG,AFNE01.JPG,AFNE01.JPG,AFNE01.JPG,AFNE01.JPG,AFNE01.JPG,,,,,,,,,,,,,0,1,1,0,,,,,,,,,,,AFSA11.jpg,AFNE11.jpg,AFSA19.jpg,AFNE01.jpg,AFNE01.jpg,FN,3,num_4,32,num_2,1.21673343936,,,2017_Apr_11_1847,60.0094890325,MAFE4ImagesEEG,001,100132,
AFNE01.JPG,AFNE01.JPG,AFNE01.JPG,AFNE01.JPG,AFNE01.JPG,AFNE01.JPG,,,,,,,,,,,,,0,2,2,1,,,,,,,,,,,AFSA02.jpg,AFNE20.jpg,AFSA10.jpg,AFNE02.jpg,AFSA02.jpg,FS,4,num_8,32,num_4,0.650074267294,,,2017_Apr_11_1847,60.0094890325,MAFE4ImagesEEG,001,100132,
AFNE01.JPG,AFNE01.JPG,AFNE01.JPG,AFNE01.JPG,AFNE01.JPG,AFNE01.JPG,,,,,,,,,,,,,0,3,3,9,,,,,,,,,,,AFNE03.jpg,AFSA18.jpg,AFNE18.jpg,AFSA07.jpg,AFNE03.jpg,FN,3,num_8,16,num_8,0.583466574084,,,2017_Apr_11_1847,60.0094890325,MAFE4ImagesEEG,001,100132,
AFNE01.JPG,AFNE01.JPG,AFNE01.JPG,AFNE01.JPG,AFNE01.JPG,AFNE01.JPG,,,,,,,,,,,,,0,4,4,7,,,,,,,,,,,AFSA07.jpg,AFNE11.jpg,AFNE20.jpg,AFSA03.jpg,AFSA07.jpg,FS,4,num_8,16,num_8,0.866752218921,,,2017_Apr_11_1847,60.0094890325,MAFE4ImagesEEG,001,100132,
AFNE01.JPG,AFNE01.JPG,AFNE01.JPG,AFNE01.JPG,AFNE01.JPG,AFNE01.JPG,,,,,,,,,,,,,0,5,5,4,,,,,,,,,,,AFNE15.jpg,AFNE02.jpg,AFSA20.jpg,AFSA18.jpg,AFSA18.jpg,FS,4,num_4,16,num_4,1.0667751194,,,2017_Apr_11_1847,60.0094890325,MAFE4ImagesEEG,001,100132,
AFNE01.JPG,AFNE01.JPG,AFNE01.JPG,AFNE01.JPG,AFNE01.JPG,AFNE01.JPG,,,,,,,,,,,,,0,6,6,2,,,,,,,,,,,AFSA08.jpg,AFSA03.jpg,AFNE19.jpg,AFNE04.jpg,AFSA08.jpg,FS,4,num_8,16,num_8,0.516671889462,,,2017_Apr_11_1847,60.0094890325,MAFE4ImagesEEG,001,100132,
AFNE01.JPG,AFNE01.JPG,AFNE01.JPG,AFNE01.JPG,AFNE01.JPG,AFNE01.JPG,,,,,,,,,,,,,0,7,7,8,,,,,,,,,,,AFSA15.jpg,AFNE06.jpg,AFSA07.jpg,AFNE10.jpg,AFNE10.jpg,FN,3,num_4,16,num_4,1.48339931481,,,2017_Apr_11_1847,60.0094890325,MAFE4ImagesEEG,001,100132,
AFNE01.JPG,AFNE01.JPG,AFNE01.JPG,AFNE01.JPG,AFNE01.JPG,AFNE01.JPG,,,,,,,,,,,,,0,8,8,6,,,,,,,,,,,AFSA17.jpg,AFNE09.jpg,AFSA02.jpg,AFNE11.jpg,AFNE09.jpg,FN,3,num_6,16,num_6,1.20015600789,,,2017_Apr_11_1847,60.0094890325,MAFE4ImagesEEG,001,100132,
AFNE01.JPG,AFNE01.JPG,AFNE01.JPG,AFNE01.JPG,AFNE01.JPG,AFNE01.JPG,,,,,,,,,,,,,0,9,9,5,,,,,,,,,,,AFSA10.jpg,AFNE09.jpg,AFSA01.jpg,AFNE17.jpg,AFSA01.jpg,FS,4,num_2,16,num_2,0.716787163168,,,2017_Apr_11_1847,60.0094890325,MAFE4ImagesEEG,001,100132,
AFNE01.JPG,AFNE01.JPG,AFNE01.JPG,AFNE01.JPG,AFNE01.JPG,AFNE01.JPG,,,,,,,,,,,,,1,0,10,1,,,,,,,,,,,AFSA05.jpg,AFNE05.jpg,AFSA20.jpg,AFNE14.jpg,AFNE14.jpg,FN,3,num_4,32,num_6,1.48341663508,,,2017_Apr_11_1847,60.0094890325,MAFE4ImagesEEG,001,100132,
AFNE01.JPG,AFNE01.JPG,AFNE01.JPG,AFNE01.JPG,AFNE01.JPG,AFNE01.JPG,,,,,,,,,,,,,1,1,11,8,,,,,,,,,,,AFNE07.jpg,AFNE15.jpg,AFSA10.jpg,AFSA05.jpg,AFNE07.jpg,FN,3,num_8,16,num_8,0.58347395109,,,2017_Apr_11_1847,60.0094890325,MAFE4ImagesEEG,001,100132,
AFNE01.JPG,AFNE01.JPG,AFNE01.JPG,AFNE01.JPG,AFNE01.JPG,AFNE01.JPG,,,,,,,,,,,,,1,2,12,3,,,,,,,,,,,AFSA12.jpg,AFNE03.jpg,AFSA04.jpg,AFNE12.jpg,AFNE03.jpg,FN,3,num_6,32,num_2,1.21676455112,,,2017_Apr_11_1847,60.0094890325,MAFE4ImagesEEG,001,100132,
AFNE01.JPG,AFNE01.JPG,AFNE01.JPG,AFNE01.JPG,AFNE01.JPG,AFNE01.JPG,,,,,,,,,,,,,1,3,13,0,,,,,,,,,,,AFSA20.jpg,AFNE01.jpg,AFNE10.jpg,AFSA03.jpg,AFSA03.jpg,FS,4,num_4,16,num_4,0.616789184045,,,2017_Apr_11_1847,60.0094890325,MAFE4ImagesEEG,001,100132,
AFNE01.JPG,AFNE01.JPG,AFNE01.JPG,AFNE01.JPG,AFNE01.JPG,AFNE01.JPG,,,,,,,,,,,,,1,4,14,2,,,,,,,,,,,AFNE14.jpg,AFSA19.jpg,AFSA03.jpg,AFNE06.jpg,AFSA03.jpg,FS,4,num_2,16,num_2,1.06672668736,,,2017_Apr_11_1847,60.0094890325,MAFE4ImagesEEG,001,100132,
AFNE01.JPG,AFNE01.JPG,AFNE01.JPG,AFNE01.JPG,AFNE01.JPG,AFNE01.JPG,,,,,,,,,,,,,1,5,15,5,,,,,,,,,,,AFNE11.jpg,AFSA17.jpg,AFSA20.jpg,AFNE14.jpg,AFNE11.jpg,FN,3,num_8,16,num_8,0.600169093814,,,2017_Apr_11_1847,60.0094890325,MAFE4ImagesEEG,001,100132,
AFNE01.JPG,AFNE01.JPG,AFNE01.JPG,AFNE01.JPG,AFNE01.JPG,AFNE01.JPG,,,,,,,,,,,,,1,6,16,7,,,,,,,,,,,AFNE02.jpg,AFSA02.jpg,AFNE09.jpg,AFSA17.jpg,AFSA17.jpg,FS,4,num_4,16,num_4,1.16677502356,,,2017_Apr_11_1847,60.0094890325,MAFE4ImagesEEG,001,100132,
AFNE01.JPG,AFNE01.JPG,AFNE01.JPG,AFNE01.JPG,AFNE01.JPG,AFNE01.JPG,,,,,,,,,,,,,1,7,17,6,,,,,,,,,,,AFNE14.jpg,AFSA16.jpg,AFSA03.jpg,AFNE12.jpg,AFSA03.jpg,FS,4,num_2,32,num_6,0.866754143033,,,2017_Apr_11_1847,60.0094890325,MAFE4ImagesEEG,001,100132,
AFNE01.JPG,AFNE01.JPG,AFNE01.JPG,AFNE01.JPG,AFNE01.JPG,AFNE01.JPG,,,,,,,,,,,,,1,8,18,9,,,,,,,,,,,AFSA20.jpg,AFNE20.jpg,AFSA05.jpg,AFNE07.jpg,AFSA05.jpg,FS,4,num_2,16,num_2,0.666798276827,,,2017_Apr_11_1847,60.0094890325,MAFE4ImagesEEG,001,100132,
AFNE01.JPG,AFNE01.JPG,AFNE01.JPG,AFNE01.JPG,AFNE01.JPG,AFNE01.JPG,,,,,,,,,,,,,1,9,19,4,,,,,,,,,,,AFNE11.jpg,AFNE08.jpg,AFSA19.jpg,AFSA12.jpg,AFNE08.jpg,FN,3,num_6,16,num_6,1.28340014908,,,2017_Apr_11_1847,60.0094890325,MAFE4ImagesEEG,001,100132,
AFNE01.JPG,AFNE01.JPG,AFNE01.JPG,AFNE01.JPG,AFNE01.JPG,AFNE01.JPG,,,,,,,,,,,,,2,0,20,2,,,,,,,,,,,AFSA18.jpg,AFNE08.jpg,AFNE03.jpg,AFSA09.jpg,AFNE08.jpg,FN,3,num_6,16,num_6,0.800145166926,,,2017_Apr_11_1847,60.0094890325,MAFE4ImagesEEG,001,100132,
AFNE01.JPG,AFNE01.JPG,AFNE01.JPG,AFNE01.JPG,AFNE01.JPG,AFNE01.JPG,,,,,,,,,,,,,2,1,21,1,,,,,,,,,,,AFNE01.jpg,AFNE13.jpg,AFSA04.jpg,AFSA10.jpg,AFNE01.jpg,FN,3,num_8,16,num_8,0.950098675676,,,2017_Apr_11_1847,60.0094890325,MAFE4ImagesEEG,001,100132,
AFNE01.JPG,AFNE01.JPG,AFNE01.JPG,AFNE01.JPG,AFNE01.JPG,AFNE01.JPG,,,,,,,,,,,,,2,2,22,6,,,,,,,,,,,AFNE20.jpg,AFSA09.jpg,AFNE04.jpg,AFSA07.jpg,AFNE04.jpg,FN,3,num_2,16,num_2,0.616835691035,,,2017_Apr_11_1847,60.0094890325,MAFE4ImagesEEG,001,100132,
AFNE01.JPG,AFNE01.JPG,AFNE01.JPG,AFNE01.JPG,AFNE01.JPG,AFNE01.JPG,,,,,,,,,,,,,2,3,23,5,,,,,,,,,,,AFNE03.jpg,AFSA09.jpg,AFSA16.jpg,AFNE14.jpg,AFNE14.jpg,FN,3,num_4,32,num_8,0.73346434487,,,2017_Apr_11_1847,60.0094890325,MAFE4ImagesEEG,001,100132,
AFNE01.JPG,AFNE01.JPG,AFNE01.JPG,AFNE01.JPG,AFNE01.JPG,AFNE01.JPG,,,,,,,,,,,,,2,4,24,4,,,,,,,,,,,AFSA12.jpg,AFSA02.jpg,AFNE14.jpg,AFNE11.jpg,AFSA12.jpg,FS,4,num_8,16,num_8,0.833459437359,,,2017_Apr_11_1847,60.0094890325,MAFE4ImagesEEG,001,100132,
AFNE01.JPG,AFNE01.JPG,AFNE01.JPG,AFNE01.JPG,AFNE01.JPG,AFNE01.JPG,,,,,,,,,,,,,2,5,25,3,,,,,,,,,,,AFNE07.jpg,AFSA02.jpg,AFSA11.jpg,AFNE05.jpg,AFNE05.jpg,FN,3,num_4,16,num_4,1.43342005089,,,2017_Apr_11_1847,60.0094890325,MAFE4ImagesEEG,001,100132,
AFNE01.JPG,AFNE01.JPG,AFNE01.JPG,AFNE01.JPG,AFNE01.JPG,AFNE01.JPG,,,,,,,,,,,,,2,6,26,8,,,,,,,,,,,AFSA08.jpg,AFNE12.jpg,AFNE11.jpg,AFSA10.jpg,AFSA10.jpg,FS,4,num_4,32,num_8,0.633505495731,,,2017_Apr_11_1847,60.0094890325,MAFE4ImagesEEG,001,100132,
AFNE01.JPG,AFNE01.JPG,AFNE01.JPG,AFNE01.JPG,AFNE01.JPG,AFNE01.JPG,,,,,,,,,,,,,2,7,27,9,,,,,,,,,,,AFNE07.jpg,AFNE14.jpg,AFSA11.jpg,AFSA13.jpg,AFNE14.jpg,FN,3,num_6,16,num_6,0.650188450702,,,2017_Apr_11_1847,60.0094890325,MAFE4ImagesEEG,001,100132,
AFNE01.JPG,AFNE01.JPG,AFNE01.JPG,AFNE01.JPG,AFNE01.JPG,AFNE01.JPG,,,,,,,,,,,,,2,8,28,7,,,,,,,,,,,AFSA18.jpg,AFSA19.jpg,AFNE03.jpg,AFNE16.jpg,AFSA18.jpg,FS,4,num_8,16,num_8,0.41681471467,,,2017_Apr_11_1847,60.0094890325,MAFE4ImagesEEG,001,100132,
AFNE01.JPG,AFNE01.JPG,AFNE01.JPG,AFNE01.JPG,AFNE01.JPG,AFNE01.JPG,,,,,,,,,,,,,2,9,29,0,,,,,,,,,,,AFNE11.jpg,AFSA10.jpg,AFSA15.jpg,AFNE09.jpg,AFNE11.jpg,FN,3,num_8,16,num_8,0.533550816588,,,2017_Apr_11_1847,60.0094890325,MAFE4ImagesEEG,001,100132,
AFNE01.JPG,AFNE01.JPG,AFNE01.JPG,AFNE01.JPG,AFNE01.JPG,AFNE01.JPG,,,,,,,,,,,,,3,0,30,6,,,,,,,,,,,AFSA20.jpg,AFNE09.jpg,AFSA19.jpg,AFNE13.jpg,AFNE09.jpg,FN,3,num_6,16,num_6,0.666757863481,,,2017_Apr_11_1847,60.0094890325,MAFE4ImagesEEG,001,100132,
AFNE01.JPG,AFNE01.JPG,AFNE01.JPG,AFNE01.JPG,AFNE01.JPG,AFNE01.JPG,,,,,,,,,,,,,3,1,31,1,,,,,,,,,,,AFSA08.jpg,AFSA17.jpg,AFNE01.jpg,AFNE06.jpg,AFNE06.jpg,FN,3,num_4,32,num_6,1.35009797011,,,2017_Apr_11_1847,60.0094890325,MAFE4ImagesEEG,001,100132,
AFNE01.JPG,AFNE01.JPG,AFNE01.JPG,AFNE01.JPG,AFNE01.JPG,AFNE01.JPG,,,,,,,,,,,,,3,2,32,5,,,,,,,,,,,AFNE11.jpg,AFNE06.jpg,AFSA08.jpg,AFSA02.jpg,AFNE11.jpg,FN,3,num_8,16,num_8,0.550430063624,,,2017_Apr_11_1847,60.0094890325,MAFE4ImagesEEG,001,100132,
AFNE01.JPG,AFNE01.JPG,AFNE01.JPG,AFNE01.JPG,AFNE01.JPG,AFNE01.JPG,,,,,,,,,,,,,3,3,33,2,,,,,,,,,,,AFNE19.jpg,AFSA03.jpg,AFSA13.jpg,AFNE16.jpg,AFSA03.jpg,FS,4,num_6,32,num_2,1.38346676668,,,2017_Apr_11_1847,60.0094890325,MAFE4ImagesEEG,001,100132,
AFNE01.JPG,AFNE01.JPG,AFNE01.JPG,AFNE01.JPG,AFNE01.JPG,AFNE01.JPG,,,,,,,,,,,,,3,4,34,8,,,,,,,,,,,AFNE06.jpg,AFNE04.jpg,AFSA15.jpg,AFSA19.jpg,AFNE06.jpg,FN,3,num_8,32,num_2,1.28340399778,,,2017_Apr_11_1847,60.0094890325,MAFE4ImagesEEG,001,100132,
AFNE01.JPG,AFNE01.JPG,AFNE01.JPG,AFNE01.JPG,AFNE01.JPG,AFNE01.JPG,,,,,,,,,,,,,3,5,35,4,,,,,,,,,,,AFNE20.jpg,AFSA20.jpg,AFNE14.jpg,AFSA01.jpg,AFNE20.jpg,FN,3,num_8,16,num_8,1.56702192873,,,2017_Apr_11_1847,60.0094890325,MAFE4ImagesEEG,001,100132,
AFNE01.JPG,AFNE01.JPG,AFNE01.JPG,AFNE01.JPG,AFNE01.JPG,AFNE01.JPG,,,,,,,,,,,,,3,6,36,0,,,,,,,,,,,AFSA20.jpg,AFNE02.jpg,AFSA07.jpg,AFNE12.jpg,AFSA20.jpg,FS,4,num_8,32,num_6,0.850173504092,,,2017_Apr_11_1847,60.0094890325,MAFE4ImagesEEG,001,100132,
AFNE01.JPG,AFNE01.JPG,AFNE01.JPG,AFNE01.JPG,AFNE01.JPG,AFNE01.JPG,,,,,,,,,,,,,3,7,37,3,,,,,,,,,,,AFSA09.jpg,AFNE08.jpg,AFNE15.jpg,AFSA04.jpg,AFNE08.jpg,FN,3,num_6,32,num_4,0.933347723912,,,2017_Apr_11_1847,60.0094890325,MAFE4ImagesEEG,001,100132,
AFNE01.JPG,AFNE01.JPG,AFNE01.JPG,AFNE01.JPG,AFNE01.JPG,AFNE01.JPG,,,,,,,,,,,,,3,8,38,9,,,,,,,,,,,AFSA10.jpg,AFNE18.jpg,AFNE06.jpg,AFSA01.jpg,AFSA10.jpg,FS,4,num_8,16,num_8,0.766806199215,,,2017_Apr_11_1847,60.0094890325,MAFE4ImagesEEG,001,100132,
AFNE01.JPG,AFNE01.JPG,AFNE01.JPG,AFNE01.JPG,AFNE01.JPG,AFNE01.JPG,,,,,,,,,,,,,3,9,39,7,,,,,,,,,,,AFSA15.jpg,AFSA02.jpg,AFNE04.jpg,AFNE05.jpg,AFSA02.jpg,FS,4,num_6,32,num_2,0.850115129724,,,2017_Apr_11_1847,60.0094890325,MAFE4ImagesEEG,001,100132,
AFNE01.JPG,AFNE01.JPG,AFNE01.JPG,AFNE01.JPG,AFNE01.JPG,AFNE01.JPG,,,,,,,,,,,,,4,0,40,9,,,,,,,,,,,AFSA08.jpg,AFSA05.jpg,AFNE17.jpg,AFNE12.jpg,AFSA05.jpg,FS,4,num_6,16,num_6,1.00033902191,,,2017_Apr_11_1847,60.0094890325,MAFE4ImagesEEG,001,100132,
AFNE01.JPG,AFNE01.JPG,AFNE01.JPG,AFNE01.JPG,AFNE01.JPG,AFNE01.JPG,,,,,,,,,,,,,4,1,41,8,,,,,,,,,,,AFNE06.jpg,AFSA12.jpg,AFSA06.jpg,AFNE20.jpg,AFNE06.jpg,FN,3,num_8,32,num_4,0.550182452891,,,2017_Apr_11_1847,60.0094890325,MAFE4ImagesEEG,001,100132,
AFNE01.JPG,AFNE01.JPG,AFNE01.JPG,AFNE01.JPG,AFNE01.JPG,AFNE01.JPG,,,,,,,,,,,,,4,2,42,1,,,,,,,,,,,AFNE13.jpg,AFSA19.jpg,AFNE10.jpg,AFSA12.jpg,AFNE10.jpg,FN,3,num_2,32,num_8,0.850138222799,,,2017_Apr_11_1847,60.0094890325,MAFE4ImagesEEG,001,100132,
AFNE01.JPG,AFNE01.JPG,AFNE01.JPG,AFNE01.JPG,AFNE01.JPG,AFNE01.JPG,,,,,,,,,,,,,4,3,43,5,,,,,,,,,,,AFNE18.jpg,AFNE04.jpg,AFSA07.jpg,AFSA01.jpg,AFNE18.jpg,FN,3,num_8,16,num_8,0.950141333975,,,2017_Apr_11_1847,60.0094890325,MAFE4ImagesEEG,001,100132,
AFNE01.JPG,AFNE01.JPG,AFNE01.JPG,AFNE01.JPG,AFNE01.JPG,AFNE01.JPG,,,,,,,,,,,,,4,4,44,4,,,,,,,,,,,AFNE20.jpg,AFSA15.jpg,AFNE09.jpg,AFSA18.jpg,AFSA18.jpg,FS,4,num_4,16,num_4,0.95001817029,,,2017_Apr_11_1847,60.0094890325,MAFE4ImagesEEG,001,100132,
AFNE01.JPG,AFNE01.JPG,AFNE01.JPG,AFNE01.JPG,AFNE01.JPG,AFNE01.JPG,,,,,,,,,,,,,4,5,45,2,,,,,,,,,,,AFSA03.jpg,AFNE15.jpg,AFNE19.jpg,AFSA11.jpg,AFNE15.jpg,FN,3,num_6,16,num_6,1.0669030943,,,2017_Apr_11_1847,60.0094890325,MAFE4ImagesEEG,001,100132,
AFNE01.JPG,AFNE01.JPG,AFNE01.JPG,AFNE01.JPG,AFNE01.JPG,AFNE01.JPG,,,,,,,,,,,,,4,6,46,3,,,,,,,,,,,AFSA04.jpg,AFNE05.jpg,AFNE01.jpg,AFSA18.jpg,AFSA18.jpg,FS,4,num_4,32,num_8,0.71680544503,,,2017_Apr_11_1847,60.0094890325,MAFE4ImagesEEG,001,100132,
AFNE01.JPG,AFNE01.JPG,AFNE01.JPG,AFNE01.JPG,AFNE01.JPG,AFNE01.JPG,,,,,,,,,,,,,4,7,47,6,,,,,,,,,,,AFSA16.jpg,AFNE20.jpg,AFSA11.jpg,AFNE15.jpg,AFSA11.jpg,FS,4,num_2,16,num_2,0.983561448753,,,2017_Apr_11_1847,60.0094890325,MAFE4ImagesEEG,001,100132,
AFNE01.JPG,AFNE01.JPG,AFNE01.JPG,AFNE01.JPG,AFNE01.JPG,AFNE01.JPG,,,,,,,,,,,,,4,8,48,7,,,,,,,,,,,AFSA03.jpg,AFSA06.jpg,AFNE02.jpg,AFNE04.jpg,AFSA03.jpg,FS,4,num_8,16,num_8,0.55010226788,,,2017_Apr_11_1847,60.0094890325,MAFE4ImagesEEG,001,100132,
AFNE01.JPG,AFNE01.JPG,AFNE01.JPG,AFNE01.JPG,AFNE01.JPG,AFNE01.JPG,,,,,,,,,,,,,4,9,49,0,,,,,,,,,,,AFSA03.jpg,AFNE03.jpg,AFNE14.jpg,AFSA09.jpg,AFSA03.jpg,FS,4,num_8,16,num_8,0.550119908527,,,2017_Apr_11_1847,60.0094890325,MAFE4ImagesEEG,001,100132,
AFNE01.JPG,AFNE01.JPG,AFNE01.JPG,AFNE01.JPG,AFNE01.JPG,AFNE01.JPG,,,,,,,,,,,,,5,0,50,9,,,,,,,,,,,AFNE01.jpg,AFNE17.jpg,AFSA08.jpg,AFSA13.jpg,AFSA13.jpg,FS,4,num_4,32,num_8,0.950092581566,,,2017_Apr_11_1847,60.0094890325,MAFE4ImagesEEG,001,100132,
AFNE01.JPG,AFNE01.JPG,AFNE01.JPG,AFNE01.JPG,AFNE01.JPG,AFNE01.JPG,,,,,,,,,,,,,5,1,51,1,,,,,,,,,,,AFSA18.jpg,AFNE03.jpg,AFSA07.jpg,AFNE01.jpg,AFNE01.jpg,FN,3,num_4,16,num_4,1.00015010638,,,2017_Apr_11_1847,60.0094890325,MAFE4ImagesEEG,001,100132,
AFNE01.JPG,AFNE01.JPG,AFNE01.JPG,AFNE01.JPG,AFNE01.JPG,AFNE01.JPG,,,,,,,,,,,,,5,2,52,8,,,,,,,,,,,AFSA15.jpg,AFNE13.jpg,AFNE19.jpg,AFSA12.jpg,AFSA12.jpg,FS,4,num_4,32,num_6,0.999971454032,,,2017_Apr_11_1847,60.0094890325,MAFE4ImagesEEG,001,100132,
AFNE01.JPG,AFNE01.JPG,AFNE01.JPG,AFNE01.JPG,AFNE01.JPG,AFNE01.JPG,,,,,,,,,,,,,5,3,53,4,,,,,,,,,,,AFNE09.jpg,AFSA17.jpg,AFNE01.jpg,AFSA05.jpg,AFSA05.jpg,FS,4,num_4,16,num_4,0.383520008996,,,2017_Apr_11_1847,60.0094890325,MAFE4ImagesEEG,001,100132,
AFNE01.JPG,AFNE01.JPG,AFNE01.JPG,AFNE01.JPG,AFNE01.JPG,AFNE01.JPG,,,,,,,,,,,,,5,4,54,3,,,,,,,,,,,AFSA04.jpg,AFNE20.jpg,AFSA03.jpg,AFNE01.jpg,AFNE20.jpg,FN,3,num_6,32,num_4,1.28349059727,,,2017_Apr_11_1847,60.0094890325,MAFE4ImagesEEG,001,100132,
AFNE01.JPG,AFNE01.JPG,AFNE01.JPG,AFNE01.JPG,AFNE01.JPG,AFNE01.JPG,,,,,,,,,,,,,5,5,55,2,,,,,,,,,,,AFNE08.jpg,AFSA15.jpg,AFNE05.jpg,AFSA17.jpg,AFNE08.jpg,FN,3,num_8,16,num_8,0.58346753614,,,2017_Apr_11_1847,60.0094890325,MAFE4ImagesEEG,001,100132,
AFNE01.JPG,AFNE01.JPG,AFNE01.JPG,AFNE01.JPG,AFNE01.JPG,AFNE01.JPG,,,,,,,,,,,,,5,6,56,7,,,,,,,,,,,AFSA03.jpg,AFSA19.jpg,AFNE20.jpg,AFNE04.jpg,AFSA03.jpg,FS,4,num_8,16,num_8,1.05013610609,,,2017_Apr_11_1847,60.0094890325,MAFE4ImagesEEG,001,100132,
AFNE01.JPG,AFNE01.JPG,AFNE01.JPG,AFNE01.JPG,AFNE01.JPG,AFNE01.JPG,,,,,,,,,,,,,5,7,57,6,,,,,,,,,,,AFSA03.jpg,AFSA01.jpg,AFNE08.jpg,AFNE05.jpg,AFSA03.jpg,FS,4,num_8,16,num_8,0.86677851947,,,2017_Apr_11_1847,60.0094890325,MAFE4ImagesEEG,001,100132,
AFNE01.JPG,AFNE01.JPG,AFNE01.JPG,AFNE01.JPG,AFNE01.JPG,AFNE01.JPG,,,,,,,,,,,,,5,8,58,5,,,,,,,,,,,AFSA15.jpg,AFSA19.jpg,AFNE05.jpg,AFNE01.jpg,AFNE01.jpg,FN,3,num_4,16,num_4,0.833462003618,,,2017_Apr_11_1847,60.0094890325,MAFE4ImagesEEG,001,100132,
AFNE01.JPG,AFNE01.JPG,AFNE01.JPG,AFNE01.JPG,AFNE01.JPG,AFNE01.JPG,,,,,,,,,,,,,5,9,59,0,,,,,,,,,,,AFSA19.jpg,AFSA17.jpg,AFNE07.jpg,AFNE10.jpg,AFSA17.jpg,FS,4,num_6,32,num_8,1.40005798964,,,2017_Apr_11_1847,60.0094890325,MAFE4ImagesEEG,001,100132,
,,,,,,,,,,,,,,,,,,,,,,,,,,,,,,,,,,,,,,,,,,,space,6.4496661583,2017_Apr_11_1847,60.0094890325,MAFE4ImagesEEG,001,100132,
AFNE01.JPG,AFNE01.JPG,AFNE01.JPG,AFNE01.JPG,AFNE01.JPG,AFNE01.JPG,,,,,,,,,,,,,,,,,0,0,0,2,,,,,,,AMSA08.jpg,AMNE13.jpg,AMSA13.jpg,AMNE16.jpg,AMSA08.jpg,MS,2,num_8,16,num_8,0.850118336733,,,2017_Apr_11_1847,60.0094890325,MAFE4ImagesEEG,001,100132,
AFNE01.JPG,AFNE01.JPG,AFNE01.JPG,AFNE01.JPG,AFNE01.JPG,AFNE01.JPG,,,,,,,,,,,,,,,,,0,1,1,1,,,,,,,AMSA20.jpg,AMNE15.jpg,AMNE10.jpg,AMSA05.jpg,AMSA05.jpg,MS,2,num_4,16,num_4,0.633212980814,,,2017_Apr_11_1847,60.0094890325,MAFE4ImagesEEG,001,100132,
AFNE01.JPG,AFNE01.JPG,AFNE01.JPG,AFNE01.JPG,AFNE01.JPG,AFNE01.JPG,,,,,,,,,,,,,,,,,0,2,2,3,,,,,,,AMNE09.jpg,AMSA10.jpg,AMNE18.jpg,AMSA11.jpg,AMNE18.jpg,MN,1,num_2,16,num_2,0.88357373327,,,2017_Apr_11_1847,60.0094890325,MAFE4ImagesEEG,001,100132,
AFNE01.JPG,AFNE01.JPG,AFNE01.JPG,AFNE01.JPG,AFNE01.JPG,AFNE01.JPG,,,,,,,,,,,,,,,,,0,3,3,9,,,,,,,AMNE16.jpg,AMSA02.jpg,AMSA10.jpg,AMNE05.jpg,AMNE16.jpg,MN,1,num_8,16,num_8,0.783462853171,,,2017_Apr_11_1847,60.0094890325,MAFE4ImagesEEG,001,100132,
AFNE01.JPG,AFNE01.JPG,AFNE01.JPG,AFNE01.JPG,AFNE01.JPG,AFNE01.JPG,,,,,,,,,,,,,,,,,0,4,4,5,,,,,,,AMNE17.jpg,AMSA15.jpg,AMSA11.jpg,AMNE18.jpg,AMSA15.jpg,MS,2,num_6,16,num_6,0.466786281206,,,2017_Apr_11_1847,60.0094890325,MAFE4ImagesEEG,001,100132,
AFNE01.JPG,AFNE01.JPG,AFNE01.JPG,AFNE01.JPG,AFNE01.JPG,AFNE01.JPG,,,,,,,,,,,,,,,,,0,5,5,4,,,,,,,AMNE16.jpg,AMSA20.jpg,AMSA08.jpg,AMNE19.jpg,AMNE19.jpg,MN,1,num_4,32,num_8,1.28337513097,,,2017_Apr_11_1847,60.0094890325,MAFE4ImagesEEG,001,100132,
AFNE01.JPG,AFNE01.JPG,AFNE01.JPG,AFNE01.JPG,AFNE01.JPG,AFNE01.JPG,,,,,,,,,,,,,,,,,0,6,6,7,,,,,,,AMSA18.jpg,AMNE06.jpg,AMNE05.jpg,AMSA09.jpg,AMSA18.jpg,MS,2,num_8,16,num_8,0.700073417276,,,2017_Apr_11_1847,60.0094890325,MAFE4ImagesEEG,001,100132,
AFNE01.JPG,AFNE01.JPG,AFNE01.JPG,AFNE01.JPG,AFNE01.JPG,AFNE01.JPG,,,,,,,,,,,,,,,,,0,7,7,0,,,,,,,AMSA14.jpg,AMSA16.jpg,AMNE06.jpg,AMNE04.jpg,AMNE04.jpg,MN,1,num_4,16,num_4,0.600178395398,,,2017_Apr_11_1847,60.0094890325,MAFE4ImagesEEG,001,100132,
AFNE01.JPG,AFNE01.JPG,AFNE01.JPG,AFNE01.JPG,AFNE01.JPG,AFNE01.JPG,,,,,,,,,,,,,,,,,0,8,8,8,,,,,,,AMNE16.jpg,AMSA04.jpg,AMNE06.jpg,AMSA05.jpg,AMNE16.jpg,MN,1,num_8,16,num_8,0.78353822697,,,2017_Apr_11_1847,60.0094890325,MAFE4ImagesEEG,001,100132,
AFNE01.JPG,AFNE01.JPG,AFNE01.JPG,AFNE01.JPG,AFNE01.JPG,AFNE01.JPG,,,,,,,,,,,,,,,,,0,9,9,6,,,,,,,AMNE19.jpg,AMSA13.jpg,AMSA08.jpg,AMNE17.jpg,AMNE19.jpg,MN,1,num_8,16,num_8,0.516855352093,,,2017_Apr_11_1847,60.0094890325,MAFE4ImagesEEG,001,100132,
AFNE01.JPG,AFNE01.JPG,AFNE01.JPG,AFNE01.JPG,AFNE01.JPG,AFNE01.JPG,,,,,,,,,,,,,,,,,1,0,10,2,,,,,,,AMNE13.jpg,AMNE18.jpg,AMSA01.jpg,AMSA08.jpg,AMSA08.jpg,MS,2,num_4,16,num_4,1.20014381967,,,2017_Apr_11_1847,60.0094890325,MAFE4ImagesEEG,001,100132,
AFNE01.JPG,AFNE01.JPG,AFNE01.JPG,AFNE01.JPG,AFNE01.JPG,AFNE01.JPG,,,,,,,,,,,,,,,,,1,1,11,3,,,,,,,AMSA18.jpg,AMNE06.jpg,AMNE10.jpg,AMSA19.jpg,AMSA18.jpg,MS,2,num_8,16,num_8,0.733496098313,,,2017_Apr_11_1847,60.0094890325,MAFE4ImagesEEG,001,100132,
AFNE01.JPG,AFNE01.JPG,AFNE01.JPG,AFNE01.JPG,AFNE01.JPG,AFNE01.JPG,,,,,,,,,,,,,,,,,1,2,12,6,,,,,,,AMNE08.jpg,AMNE18.jpg,AMSA17.jpg,AMSA09.jpg,AMSA17.jpg,MS,2,num_2,32,num_6,0.933554921765,,,2017_Apr_11_1847,60.0094890325,MAFE4ImagesEEG,001,100132,
AFNE01.JPG,AFNE01.JPG,AFNE01.JPG,AFNE01.JPG,AFNE01.JPG,AFNE01.JPG,,,,,,,,,,,,,,,,,1,3,13,9,,,,,,,AMSA05.jpg,AMNE01.jpg,AMNE17.jpg,AMSA09.jpg,AMSA09.jpg,MS,2,num_4,32,num_8,1.45015111659,,,2017_Apr_11_1847,60.0094890325,MAFE4ImagesEEG,001,100132,
AFNE01.JPG,AFNE01.JPG,AFNE01.JPG,AFNE01.JPG,AFNE01.JPG,AFNE01.JPG,,,,,,,,,,,,,,,,,1,4,14,0,,,,,,,AMSA15.jpg,AMNE15.jpg,AMNE17.jpg,AMSA11.jpg,AMNE17.jpg,MN,1,num_2,32,num_8,1.80005760491,,,2017_Apr_11_1847,60.0094890325,MAFE4ImagesEEG,001,100132,
AFNE01.JPG,AFNE01.JPG,AFNE01.JPG,AFNE01.JPG,AFNE01.JPG,AFNE01.JPG,,,,,,,,,,,,,,,,,1,5,15,1,,,,,,,AMNE06.jpg,AMSA02.jpg,AMSA14.jpg,AMNE11.jpg,AMNE11.jpg,MN,1,num_4,32,num_8,1.05038820766,,,2017_Apr_11_1847,60.0094890325,MAFE4ImagesEEG,001,100132,
AFNE01.JPG,AFNE01.JPG,AFNE01.JPG,AFNE01.JPG,AFNE01.JPG,AFNE01.JPG,,,,,,,,,,,,,,,,,1,6,16,4,,,,,,,AMNE10.jpg,AMSA08.jpg,AMNE08.jpg,AMSA10.jpg,AMNE10.jpg,MN,1,num_8,32,num_4,1.30014532711,,,2017_Apr_11_1847,60.0094890325,MAFE4ImagesEEG,001,100132,
AFNE01.JPG,AFNE01.JPG,AFNE01.JPG,AFNE01.JPG,AFNE01.JPG,AFNE01.JPG,,,,,,,,,,,,,,,,,1,7,17,8,,,,,,,AMSA07.jpg,AMNE17.jpg,AMNE01.jpg,AMSA02.jpg,AMNE17.jpg,MN,1,num_6,16,num_6,0.850165165029,,,2017_Apr_11_1847,60.0094890325,MAFE4ImagesEEG,001,100132,
AFNE01.JPG,AFNE01.JPG,AFNE01.JPG,AFNE01.JPG,AFNE01.JPG,AFNE01.JPG,,,,,,,,,,,,,,,,,1,8,18,7,,,,,,,AMSA17.jpg,AMNE11.jpg,AMNE14.jpg,AMSA16.jpg,AMNE14.jpg,MN,1,num_2,16,num_2,1.58342134999,,,2017_Apr_11_1847,60.0094890325,MAFE4ImagesEEG,001,100132,
AFNE01.JPG,AFNE01.JPG,AFNE01.JPG,AFNE01.JPG,AFNE01.JPG,AFNE01.JPG,,,,,,,,,,,,,,,,,1,9,19,5,,,,,,,AMNE04.jpg,AMSA07.jpg,AMSA05.jpg,AMNE06.jpg,AMSA07.jpg,MS,2,num_6,32,num_4,1.05009569228,,,2017_Apr_11_1847,60.0094890325,MAFE4ImagesEEG,001,100132,
AFNE01.JPG,AFNE01.JPG,AFNE01.JPG,AFNE01.JPG,AFNE01.JPG,AFNE01.JPG,,,,,,,,,,,,,,,,,2,0,20,6,,,,,,,AMNE20.jpg,AMSA18.jpg,AMNE07.jpg,AMSA07.jpg,AMNE07.jpg,MN,1,num_2,32,num_8,1.53342797281,,,2017_Apr_11_1847,60.0094890325,MAFE4ImagesEEG,001,100132,
AFNE01.JPG,AFNE01.JPG,AFNE01.JPG,AFNE01.JPG,AFNE01.JPG,AFNE01.JPG,,,,,,,,,,,,,,,,,2,1,21,7,,,,,,,AMNE09.jpg,AMSA13.jpg,AMNE16.jpg,AMSA06.jpg,AMNE16.jpg,MN,1,num_2,32,num_8,0.800171467476,,,2017_Apr_11_1847,60.0094890325,MAFE4ImagesEEG,001,100132,
AFNE01.JPG,AFNE01.JPG,AFNE01.JPG,AFNE01.JPG,AFNE01.JPG,AFNE01.JPG,,,,,,,,,,,,,,,,,2,2,22,2,,,,,,,AMNE18.jpg,AMSA07.jpg,AMSA01.jpg,AMNE03.jpg,AMSA01.jpg,MS,2,num_2,16,num_2,0.916783442721,,,2017_Apr_11_1847,60.0094890325,MAFE4ImagesEEG,001,100132,
AFNE01.JPG,AFNE01.JPG,AFNE01.JPG,AFNE01.JPG,AFNE01.JPG,AFNE01.JPG,,,,,,,,,,,,,,,,,2,3,23,9,,,,,,,AMSA12.jpg,AMNE05.jpg,AMNE06.jpg,AMSA05.jpg,AMSA05.jpg,MS,2,num_4,32,num_8,1.24985237932,,,2017_Apr_11_1847,60.0094890325,MAFE4ImagesEEG,001,100132,
AFNE01.JPG,AFNE01.JPG,AFNE01.JPG,AFNE01.JPG,AFNE01.JPG,AFNE01.JPG,,,,,,,,,,,,,,,,,2,4,24,3,,,,,,,AMSA14.jpg,AMNE10.jpg,AMSA18.jpg,AMNE12.jpg,AMNE12.jpg,MN,1,num_4,16,num_4,0.817038526759,,,2017_Apr_11_1847,60.0094890325,MAFE4ImagesEEG,001,100132,
AFNE01.JPG,AFNE01.JPG,AFNE01.JPG,AFNE01.JPG,AFNE01.JPG,AFNE01.JPG,,,,,,,,,,,,,,,,,2,5,25,0,,,,,,,AMNE18.jpg,AMSA12.jpg,AMNE19.jpg,AMSA16.jpg,AMSA12.jpg,MS,2,num_6,32,num_4,1.10009837057,,,2017_Apr_11_1847,60.0094890325,MAFE4ImagesEEG,001,100132,
AFNE01.JPG,AFNE01.JPG,AFNE01.JPG,AFNE01.JPG,AFNE01.JPG,AFNE01.JPG,,,,,,,,,,,,,,,,,2,6,26,8,,,,,,,AMSA11.jpg,AMSA06.jpg,AMNE05.jpg,AMNE01.jpg,AMSA06.jpg,MS,2,num_6,32,num_8,0.78345900448,,,2017_Apr_11_1847,60.0094890325,MAFE4ImagesEEG,001,100132,
AFNE01.JPG,AFNE01.JPG,AFNE01.JPG,AFNE01.JPG,AFNE01.JPG,AFNE01.JPG,,,,,,,,,,,,,,,,,2,7,27,5,,,,,,,AMSA16.jpg,AMSA10.jpg,AMNE15.jpg,AMNE19.jpg,AMSA10.jpg,MS,2,num_6,32,num_8,0.383457144257,,,2017_Apr_11_1847,60.0094890325,MAFE4ImagesEEG,001,100132,
AFNE01.JPG,AFNE01.JPG,AFNE01.JPG,AFNE01.JPG,AFNE01.JPG,AFNE01.JPG,,,,,,,,,,,,,,,,,2,8,28,1,,,,,,,AMNE05.jpg,AMNE17.jpg,AMSA08.jpg,AMSA16.jpg,AMSA16.jpg,MS,2,num_4,16,num_4,0.416690588929,,,2017_Apr_11_1847,60.0094890325,MAFE4ImagesEEG,001,100132,
AFNE01.JPG,AFNE01.JPG,AFNE01.JPG,AFNE01.JPG,AFNE01.JPG,AFNE01.JPG,,,,,,,,,,,,,,,,,2,9,29,4,,,,,,,AMSA09.jpg,AMSA08.jpg,AMNE11.jpg,AMNE12.jpg,AMSA09.jpg,MS,2,num_8,32,num_6,0.983482546639,,,2017_Apr_11_1847,60.0094890325,MAFE4ImagesEEG,001,100132,
AFNE01.JPG,AFNE01.JPG,AFNE01.JPG,AFNE01.JPG,AFNE01.JPG,AFNE01.JPG,,,,,,,,,,,,,,,,,3,0,30,5,,,,,,,AMNE05.jpg,AMNE01.jpg,AMSA15.jpg,AMSA12.jpg,AMNE05.jpg,MN,1,num_8,16,num_8,0.866775632836,,,2017_Apr_11_1847,60.0094890325,MAFE4ImagesEEG,001,100132,
AFNE01.JPG,AFNE01.JPG,AFNE01.JPG,AFNE01.JPG,AFNE01.JPG,AFNE01.JPG,,,,,,,,,,,,,,,,,3,1,31,4,,,,,,,AMSA02.jpg,AMNE10.jpg,AMSA04.jpg,AMNE01.jpg,AMSA04.jpg,MS,2,num_2,32,num_4,0.683449478354,,,2017_Apr_11_1847,60.0094890325,MAFE4ImagesEEG,001,100132,
AFNE01.JPG,AFNE01.JPG,AFNE01.JPG,AFNE01.JPG,AFNE01.JPG,AFNE01.JPG,,,,,,,,,,,,,,,,,3,2,32,7,,,,,,,AMNE18.jpg,AMSA03.jpg,AMNE08.jpg,AMSA15.jpg,AMNE08.jpg,MN,1,num_2,32,num_8,1.20012104698,,,2017_Apr_11_1847,60.0094890325,MAFE4ImagesEEG,001,100132,
AFNE01.JPG,AFNE01.JPG,AFNE01.JPG,AFNE01.JPG,AFNE01.JPG,AFNE01.JPG,,,,,,,,,,,,,,,,,3,3,33,9,,,,,,,AMSA02.jpg,AMNE10.jpg,AMSA14.jpg,AMNE04.jpg,AMNE04.jpg,MN,1,num_4,16,num_4,0.800168260001,,,2017_Apr_11_1847,60.0094890325,MAFE4ImagesEEG,001,100132,
AFNE01.JPG,AFNE01.JPG,AFNE01.JPG,AFNE01.JPG,AFNE01.JPG,AFNE01.JPG,,,,,,,,,,,,,,,,,3,4,34,2,,,,,,,AMNE16.jpg,AMNE10.jpg,AMSA04.jpg,AMSA12.jpg,AMSA04.jpg,MS,2,num_2,16,num_2,1.05015727459,,,2017_Apr_11_1847,60.0094890325,MAFE4ImagesEEG,001,100132,
AFNE01.JPG,AFNE01.JPG,AFNE01.JPG,AFNE01.JPG,AFNE01.JPG,AFNE01.JPG,,,,,,,,,,,,,,,,,3,5,35,6,,,,,,,AMNE18.jpg,AMSA02.jpg,AMSA03.jpg,AMNE04.jpg,AMSA02.jpg,MS,2,num_6,32,num_4,0.833507548552,,,2017_Apr_11_1847,60.0094890325,MAFE4ImagesEEG,001,100132,
AFNE01.JPG,AFNE01.JPG,AFNE01.JPG,AFNE01.JPG,AFNE01.JPG,AFNE01.JPG,,,,,,,,,,,,,,,,,3,6,36,1,,,,,,,AMNE12.jpg,AMNE10.jpg,AMSA09.jpg,AMSA20.jpg,AMNE12.jpg,MN,1,num_8,16,num_8,1.01676955447,,,2017_Apr_11_1847,60.0094890325,MAFE4ImagesEEG,001,100132,
AFNE01.JPG,AFNE01.JPG,AFNE01.JPG,AFNE01.JPG,AFNE01.JPG,AFNE01.JPG,,,,,,,,,,,,,,,,,3,7,37,8,,,,,,,AMNE09.jpg,AMSA13.jpg,AMSA12.jpg,AMNE05.jpg,AMSA12.jpg,MS,2,num_2,16,num_2,0.866771463305,,,2017_Apr_11_1847,60.0094890325,MAFE4ImagesEEG,001,100132,
AFNE01.JPG,AFNE01.JPG,AFNE01.JPG,AFNE01.JPG,AFNE01.JPG,AFNE01.JPG,,,,,,,,,,,,,,,,,3,8,38,3,,,,,,,AMSA17.jpg,AMSA15.jpg,AMNE14.jpg,AMNE19.jpg,AMNE19.jpg,MN,1,num_4,16,num_4,0.833442438394,,,2017_Apr_11_1847,60.0094890325,MAFE4ImagesEEG,001,100132,
AFNE01.JPG,AFNE01.JPG,AFNE01.JPG,AFNE01.JPG,AFNE01.JPG,AFNE01.JPG,,,,,,,,,,,,,,,,,3,9,39,0,,,,,,,AMNE14.jpg,AMSA04.jpg,AMNE20.jpg,AMSA14.jpg,AMSA04.jpg,MS,2,num_6,16,num_6,0.816818499472,,,2017_Apr_11_1847,60.0094890325,MAFE4ImagesEEG,001,100132,
AFNE01.JPG,AFNE01.JPG,AFNE01.JPG,AFNE01.JPG,AFNE01.JPG,AFNE01.JPG,,,,,,,,,,,,,,,,,4,0,40,1,,,,,,,AMSA11.jpg,AMNE20.jpg,AMSA09.jpg,AMNE06.jpg,AMSA09.jpg,MS,2,num_2,16,num_2,1.46680841222,,,2017_Apr_11_1847,60.0094890325,MAFE4ImagesEEG,001,100132,
AFNE01.JPG,AFNE01.JPG,AFNE01.JPG,AFNE01.JPG,AFNE01.JPG,AFNE01.JPG,,,,,,,,,,,,,,,,,4,1,41,0,,,,,,,AMNE05.jpg,AMSA09.jpg,AMNE12.jpg,AMSA19.jpg,AMNE12.jpg,MN,1,num_2,16,num_2,1.00017031282,,,2017_Apr_11_1847,60.0094890325,MAFE4ImagesEEG,001,100132,
AFNE01.JPG,AFNE01.JPG,AFNE01.JPG,AFNE01.JPG,AFNE01.JPG,AFNE01.JPG,,,,,,,,,,,,,,,,,4,2,42,4,,,,,,,AMNE08.jpg,AMSA01.jpg,AMSA02.jpg,AMNE14.jpg,AMNE08.jpg,MN,1,num_8,16,num_8,0.633450328838,,,2017_Apr_11_1847,60.0094890325,MAFE4ImagesEEG,001,100132,
AFNE01.JPG,AFNE01.JPG,AFNE01.JPG,AFNE01.JPG,AFNE01.JPG,AFNE01.JPG,,,,,,,,,,,,,,,,,4,3,43,6,,,,,,,AMNE17.jpg,AMNE08.jpg,AMSA17.jpg,AMSA11.jpg,AMNE17.jpg,MN,1,num_8,16,num_8,1.25012564985,,,2017_Apr_11_1847,60.0094890325,MAFE4ImagesEEG,001,100132,
AFNE01.JPG,AFNE01.JPG,AFNE01.JPG,AFNE01.JPG,AFNE01.JPG,AFNE01.JPG,,,,,,,,,,,,,,,,,4,4,44,3,,,,,,,AMSA17.jpg,AMNE18.jpg,AMNE08.jpg,AMSA16.jpg,AMSA16.jpg,MS,2,num_4,32,num_6,1.18347529788,,,2017_Apr_11_1847,60.0094890325,MAFE4ImagesEEG,001,100132,
AFNE01.JPG,AFNE01.JPG,AFNE01.JPG,AFNE01.JPG,AFNE01.JPG,AFNE01.JPG,,,,,,,,,,,,,,,,,4,5,45,5,,,,,,,AMNE03.jpg,AMSA14.jpg,AMNE15.jpg,AMSA18.jpg,AMSA18.jpg,MS,2,num_4,16,num_4,0.716783956159,,,2017_Apr_11_1847,60.0094890325,MAFE4ImagesEEG,001,100132,
AFNE01.JPG,AFNE01.JPG,AFNE01.JPG,AFNE01.JPG,AFNE01.JPG,AFNE01.JPG,,,,,,,,,,,,,,,,,4,6,46,8,,,,,,,AMSA01.jpg,AMSA18.jpg,AMNE07.jpg,AMNE16.jpg,AMSA01.jpg,MS,2,num_8,32,num_6,1.11673642229,,,2017_Apr_11_1847,60.0094890325,MAFE4ImagesEEG,001,100132,
AFNE01.JPG,AFNE01.JPG,AFNE01.JPG,AFNE01.JPG,AFNE01.JPG,AFNE01.JPG,,,,,,,,,,,,,,,,,4,7,47,2,,,,,,,AMNE10.jpg,AMSA13.jpg,AMNE06.jpg,AMSA17.jpg,AMNE10.jpg,MN,1,num_8,16,num_8,0.650132320821,,,2017_Apr_11_1847,60.0094890325,MAFE4ImagesEEG,001,100132,
AFNE01.JPG,AFNE01.JPG,AFNE01.JPG,AFNE01.JPG,AFNE01.JPG,AFNE01.JPG,,,,,,,,,,,,,,,,,4,8,48,7,,,,,,,AMSA06.jpg,AMNE09.jpg,AMSA20.jpg,AMNE12.jpg,AMSA06.jpg,MS,2,num_8,16,num_8,0.733453760389,,,2017_Apr_11_1847,60.0094890325,MAFE4ImagesEEG,001,100132,
AFNE01.JPG,AFNE01.JPG,AFNE01.JPG,AFNE01.JPG,AFNE01.JPG,AFNE01.JPG,,,,,,,,,,,,,,,,,4,9,49,9,,,,,,,AMSA09.jpg,AMSA13.jpg,AMNE03.jpg,AMNE11.jpg,AMNE11.jpg,MN,1,num_4,32,num_8,0.800413946621,,,2017_Apr_11_1847,60.0094890325,MAFE4ImagesEEG,001,100132,
AFNE01.JPG,AFNE01.JPG,AFNE01.JPG,AFNE01.JPG,AFNE01.JPG,AFNE01.JPG,,,,,,,,,,,,,,,,,5,0,50,2,,,,,,,AMSA03.jpg,AMSA09.jpg,AMNE16.jpg,AMNE08.jpg,AMNE08.jpg,MN,1,num_4,16,num_4,1.40010994952,,,2017_Apr_11_1847,60.0094890325,MAFE4ImagesEEG,001,100132,
AFNE01.JPG,AFNE01.JPG,AFNE01.JPG,AFNE01.JPG,AFNE01.JPG,AFNE01.JPG,,,,,,,,,,,,,,,,,5,1,51,1,,,,,,,AMNE11.jpg,AMSA09.jpg,AMNE08.jpg,AMSA19.jpg,AMNE08.jpg,MN,1,num_2,16,num_2,0.633588567376,,,2017_Apr_11_1847,60.0094890325,MAFE4ImagesEEG,001,100132,
AFNE01.JPG,AFNE01.JPG,AFNE01.JPG,AFNE01.JPG,AFNE01.JPG,AFNE01.JPG,,,,,,,,,,,,,,,,,5,2,52,9,,,,,,,AMNE12.jpg,AMNE20.jpg,AMSA10.jpg,AMSA09.jpg,AMSA09.jpg,MS,2,num_4,32,num_6,0.90012037335,,,2017_Apr_11_1847,60.0094890325,MAFE4ImagesEEG,001,100132,
AFNE01.JPG,AFNE01.JPG,AFNE01.JPG,AFNE01.JPG,AFNE01.JPG,AFNE01.JPG,,,,,,,,,,,,,,,,,5,3,53,7,,,,,,,AMSA03.jpg,AMSA08.jpg,AMNE01.jpg,AMNE10.jpg,AMSA03.jpg,MS,2,num_8,32,num_2,0.900109789334,,,2017_Apr_11_1847,60.0094890325,MAFE4ImagesEEG,001,100132,
AFNE01.JPG,AFNE01.JPG,AFNE01.JPG,AFNE01.JPG,AFNE01.JPG,AFNE01.JPG,,,,,,,,,,,,,,,,,5,4,54,8,,,,,,,AMNE13.jpg,AMSA20.jpg,AMSA01.jpg,AMNE16.jpg,AMNE16.jpg,MN,1,num_4,32,num_8,0.983468113467,,,2017_Apr_11_1847,60.0094890325,MAFE4ImagesEEG,001,100132,
AFNE01.JPG,AFNE01.JPG,AFNE01.JPG,AFNE01.JPG,AFNE01.JPG,AFNE01.JPG,,,,,,,,,,,,,,,,,5,5,55,6,,,,,,,AMSA16.jpg,AMNE03.jpg,AMSA13.jpg,AMNE11.jpg,AMNE03.jpg,MN,1,num_6,16,num_6,0.816799896769,,,2017_Apr_11_1847,60.0094890325,MAFE4ImagesEEG,001,100132,
AFNE01.JPG,AFNE01.JPG,AFNE01.JPG,AFNE01.JPG,AFNE01.JPG,AFNE01.JPG,,,,,,,,,,,,,,,,,5,6,56,0,,,,,,,AMSA15.jpg,AMSA13.jpg,AMNE05.jpg,AMNE08.jpg,AMSA15.jpg,MS,2,num_8,16,num_8,0.749961912166,,,2017_Apr_11_1847,60.0094890325,MAFE4ImagesEEG,001,100132,
AFNE01.JPG,AFNE01.JPG,AFNE01.JPG,AFNE01.JPG,AFNE01.JPG,AFNE01.JPG,,,,,,,,,,,,,,,,,5,7,57,3,,,,,,,AMSA10.jpg,AMNE02.jpg,AMNE19.jpg,AMSA11.jpg,AMNE02.jpg,MN,1,num_6,16,num_6,0.566425994504,,,2017_Apr_11_1847,60.0094890325,MAFE4ImagesEEG,001,100132,
AFNE01.JPG,AFNE01.JPG,AFNE01.JPG,AFNE01.JPG,AFNE01.JPG,AFNE01.JPG,,,,,,,,,,,,,,,,,5,8,58,4,,,,,,,AMSA19.jpg,AMNE10.jpg,AMSA18.jpg,AMNE02.jpg,AMSA19.jpg,MS,2,num_8,16,num_8,1.05013129488,,,2017_Apr_11_1847,60.0094890325,MAFE4ImagesEEG,001,100132,
AFNE01.JPG,AFNE01.JPG,AFNE01.JPG,AFNE01.JPG,AFNE01.JPG,AFNE01.JPG,,,,,,,,,,,,,,,,,5,9,59,5,,,,,,,AMSA09.jpg,AMNE08.jpg,AMSA05.jpg,AMNE12.jpg,AMSA05.jpg,MS,2,num_2,32,num_6,1.26678487007,,,2017_Apr_11_1847,60.0094890325,MAFE4ImagesEEG,001,100132,
,,,,,,,,,,,,,,,,,,,,,,,,,,,,,,,,,,,,,,,,,,,space,7.56648789672,2017_Apr_11_1847,60.0094890325,MAFE4ImagesEEG,001,100132,
AFNE01.JPG,AFNE01.JPG,AFNE01.JPG,AFNE01.JPG,AFNE01.JPG,AFNE01.JPG,,,,,,,,,,,,,,,,,,,,,0,0,0,0,,,AFNE14.jpg,AFNE19.jpg,AFSA02.jpg,AFSA17.jpg,AFSA17.jpg,FS,4,num_4,32,num_8,0.783460287377,,,2017_Apr_11_1847,60.0094890325,MAFE4ImagesEEG,001,100132,
AFNE01.JPG,AFNE01.JPG,AFNE01.JPG,AFNE01.JPG,AFNE01.JPG,AFNE01.JPG,,,,,,,,,,,,,,,,,,,,,0,1,1,2,,,AFNE02.jpg,AFNE16.jpg,AFSA10.jpg,AFSA19.jpg,AFNE02.jpg,FN,3,num_8,16,num_8,0.833482210059,,,2017_Apr_11_1847,60.0094890325,MAFE4ImagesEEG,001,100132,
AFNE01.JPG,AFNE01.JPG,AFNE01.JPG,AFNE01.JPG,AFNE01.JPG,AFNE01.JPG,,,,,,,,,,,,,,,,,,,,,0,2,2,4,,,AFSA10.jpg,AFNE10.jpg,AFSA09.jpg,AFNE11.jpg,AFSA10.jpg,FS,4,num_8,32,num_6,0.900111713912,,,2017_Apr_11_1847,60.0094890325,MAFE4ImagesEEG,001,100132,
AFNE01.JPG,AFNE01.JPG,AFNE01.JPG,AFNE01.JPG,AFNE01.JPG,AFNE01.JPG,,,,,,,,,,,,,,,,,,,,,0,3,3,6,,,AFSA01.jpg,AFNE05.jpg,AFSA20.jpg,AFNE19.jpg,AFNE05.jpg,FN,3,num_6,16,num_6,0.85009299824,,,2017_Apr_11_1847,60.0094890325,MAFE4ImagesEEG,001,100132,
AFNE01.JPG,AFNE01.JPG,AFNE01.JPG,AFNE01.JPG,AFNE01.JPG,AFNE01.JPG,,,,,,,,,,,,,,,,,,,,,0,4,4,8,,,AFSA11.jpg,AFSA17.jpg,AFNE01.jpg,AFNE16.jpg,AFNE16.jpg,FN,3,num_4,16,num_4,0.716798388865,,,2017_Apr_11_1847,60.0094890325,MAFE4ImagesEEG,001,100132,
AFNE01.JPG,AFNE01.JPG,AFNE01.JPG,AFNE01.JPG,AFNE01.JPG,AFNE01.JPG,,,,,,,,,,,,,,,,,,,,,0,5,5,5,,,AFSA06.jpg,AFNE17.jpg,AFSA07.jpg,AFNE07.jpg,AFSA07.jpg,FS,4,num_2,16,num_2,0.816750502679,,,2017_Apr_11_1847,60.0094890325,MAFE4ImagesEEG,001,100132,
AFNE01.JPG,AFNE01.JPG,AFNE01.JPG,AFNE01.JPG,AFNE01.JPG,AFNE01.JPG,,,,,,,,,,,,,,,,,,,,,0,6,6,7,,,AFNE19.jpg,AFNE14.jpg,AFSA19.jpg,AFSA15.jpg,AFNE14.jpg,FN,3,num_6,16,num_6,0.933408343699,,,2017_Apr_11_1847,60.0094890325,MAFE4ImagesEEG,001,100132,
AFNE01.JPG,AFNE01.JPG,AFNE01.JPG,AFNE01.JPG,AFNE01.JPG,AFNE01.JPG,,,,,,,,,,,,,,,,,,,,,0,7,7,3,,,AFSA10.jpg,AFNE05.jpg,AFSA03.jpg,AFNE06.jpg,AFNE06.jpg,FN,3,num_4,32,num_8,0.550005083904,,,2017_Apr_11_1847,60.0094890325,MAFE4ImagesEEG,001,100132,
AFNE01.JPG,AFNE01.JPG,AFNE01.JPG,AFNE01.JPG,AFNE01.JPG,AFNE01.JPG,,,,,,,,,,,,,,,,,,,,,0,8,8,1,,,AFNE10.jpg,AFSA20.jpg,AFSA12.jpg,AFNE13.jpg,AFSA20.jpg,FS,4,num_6,16,num_6,0.566783939488,,,2017_Apr_11_1847,60.0094890325,MAFE4ImagesEEG,001,100132,
AFNE01.JPG,AFNE01.JPG,AFNE01.JPG,AFNE01.JPG,AFNE01.JPG,AFNE01.JPG,,,,,,,,,,,,,,,,,,,,,0,9,9,9,,,AFNE07.jpg,AFSA01.jpg,AFNE01.jpg,AFSA06.jpg,AFSA06.jpg,FS,4,num_4,16,num_4,0.866793914698,,,2017_Apr_11_1847,60.0094890325,MAFE4ImagesEEG,001,100132,
AFNE01.JPG,AFNE01.JPG,AFNE01.JPG,AFNE01.JPG,AFNE01.JPG,AFNE01.JPG,,,,,,,,,,,,,,,,,,,,,1,0,10,4,,,AFSA05.jpg,AFNE07.jpg,AFSA09.jpg,AFNE05.jpg,AFSA09.jpg,FS,4,num_2,16,num_2,1.53365601879,,,2017_Apr_11_1847,60.0094890325,MAFE4ImagesEEG,001,100132,
AFNE01.JPG,AFNE01.JPG,AFNE01.JPG,AFNE01.JPG,AFNE01.JPG,AFNE01.JPG,,,,,,,,,,,,,,,,,,,,,1,1,11,0,,,AFNE14.jpg,AFSA06.jpg,AFNE08.jpg,AFSA03.jpg,AFSA03.jpg,FS,4,num_4,16,num_4,1.13330391096,,,2017_Apr_11_1847,60.0094890325,MAFE4ImagesEEG,001,100132,
AFNE01.JPG,AFNE01.JPG,AFNE01.JPG,AFNE01.JPG,AFNE01.JPG,AFNE01.JPG,,,,,,,,,,,,,,,,,,,,,1,2,12,9,,,AFNE20.jpg,AFSA02.jpg,AFSA16.jpg,AFNE18.jpg,AFSA02.jpg,FS,4,num_6,16,num_6,0.516803392675,,,2017_Apr_11_1847,60.0094890325,MAFE4ImagesEEG,001,100132,
AFNE01.JPG,AFNE01.JPG,AFNE01.JPG,AFNE01.JPG,AFNE01.JPG,AFNE01.JPG,,,,,,,,,,,,,,,,,,,,,1,3,13,2,,,AFSA08.jpg,AFSA20.jpg,AFNE18.jpg,AFNE09.jpg,AFNE09.jpg,FN,3,num_4,16,num_4,0.600134453736,,,2017_Apr_11_1847,60.0094890325,MAFE4ImagesEEG,001,100132,
AFNE01.JPG,AFNE01.JPG,AFNE01.JPG,AFNE01.JPG,AFNE01.JPG,AFNE01.JPG,,,,,,,,,,,,,,,,,,,,,1,4,14,8,,,AFSA02.jpg,AFNE10.jpg,AFNE13.jpg,AFSA11.jpg,AFNE13.jpg,FN,3,num_2,32,num_6,0.833500492387,,,2017_Apr_11_1847,60.0094890325,MAFE4ImagesEEG,001,100132,
AFNE01.JPG,AFNE01.JPG,AFNE01.JPG,AFNE01.JPG,AFNE01.JPG,AFNE01.JPG,,,,,,,,,,,,,,,,,,,,,1,5,15,7,,,AFSA06.jpg,AFSA03.jpg,AFNE17.jpg,AFNE01.jpg,AFNE17.jpg,FN,3,num_2,32,num_6,0.666834199801,,,2017_Apr_11_1847,60.0094890325,MAFE4ImagesEEG,001,100132,
AFNE01.JPG,AFNE01.JPG,AFNE01.JPG,AFNE01.JPG,AFNE01.JPG,AFNE01.JPG,,,,,,,,,,,,,,,,,,,,,1,6,16,1,,,AFSA13.jpg,AFSA20.jpg,AFNE15.jpg,AFNE11.jpg,AFNE11.jpg,FN,3,num_4,16,num_4,0.883478153031,,,2017_Apr_11_1847,60.0094890325,MAFE4ImagesEEG,001,100132,
AFNE01.JPG,AFNE01.JPG,AFNE01.JPG,AFNE01.JPG,AFNE01.JPG,AFNE01.JPG,,,,,,,,,,,,,,,,,,,,,1,7,17,5,,,AFSA14.jpg,AFNE06.jpg,AFSA19.jpg,AFNE11.jpg,AFNE11.jpg,FN,3,num_4,16,num_4,0.650192941073,,,2017_Apr_11_1847,60.0094890325,MAFE4ImagesEEG,001,100132,
AFNE01.JPG,AFNE01.JPG,AFNE01.JPG,AFNE01.JPG,AFNE01.JPG,AFNE01.JPG,,,,,,,,,,,,,,,,,,,,,1,8,18,6,,,AFNE20.jpg,AFSA10.jpg,AFNE07.jpg,AFSA19.jpg,AFNE07.jpg,FN,3,num_2,32,num_8,0.733428742737,,,2017_Apr_11_1847,60.0094890325,MAFE4ImagesEEG,001,100132,
AFNE01.JPG,AFNE01.JPG,AFNE01.JPG,AFNE01.JPG,AFNE01.JPG,AFNE01.JPG,,,,,,,,,,,,,,,,,,,,,1,9,19,3,,,AFSA16.jpg,AFNE20.jpg,AFSA11.jpg,AFNE17.jpg,AFSA11.jpg,FS,4,num_2,16,num_2,0.483564495575,,,2017_Apr_11_1847,60.0094890325,MAFE4ImagesEEG,001,100132,
AFNE01.JPG,AFNE01.JPG,AFNE01.JPG,AFNE01.JPG,AFNE01.JPG,AFNE01.JPG,,,,,,,,,,,,,,,,,,,,,2,0,20,3,,,AFNE20.jpg,AFSA07.jpg,AFSA08.jpg,AFNE01.jpg,AFSA08.jpg,FS,4,num_2,16,num_2,1.11681275815,,,2017_Apr_11_1847,60.0094890325,MAFE4ImagesEEG,001,100132,
AFNE01.JPG,AFNE01.JPG,AFNE01.JPG,AFNE01.JPG,AFNE01.JPG,AFNE01.JPG,,,,,,,,,,,,,,,,,,,,,2,1,21,5,,,AFSA07.jpg,AFNE14.jpg,AFSA13.jpg,AFNE17.jpg,AFSA07.jpg,FS,4,num_8,16,num_8,0.766838914249,,,2017_Apr_11_1847,60.0094890325,MAFE4ImagesEEG,001,100132,
AFNE01.JPG,AFNE01.JPG,AFNE01.JPG,AFNE01.JPG,AFNE01.JPG,AFNE01.JPG,,,,,,,,,,,,,,,,,,,,,2,2,22,6,,,AFSA05.jpg,AFNE17.jpg,AFNE04.jpg,AFSA01.jpg,AFNE17.jpg,FN,3,num_6,16,num_6,1.03344930196,,,2017_Apr_11_1847,60.0094890325,MAFE4ImagesEEG,001,100132,
AFNE01.JPG,AFNE01.JPG,AFNE01.JPG,AFNE01.JPG,AFNE01.JPG,AFNE01.JPG,,,,,,,,,,,,,,,,,,,,,2,3,23,2,,,AFSA16.jpg,AFNE01.jpg,AFNE13.jpg,AFSA13.jpg,AFNE13.jpg,FN,3,num_2,16,num_2,1.31677183183,,,2017_Apr_11_1847,60.0094890325,MAFE4ImagesEEG,001,100132,
AFNE01.JPG,AFNE01.JPG,AFNE01.JPG,AFNE01.JPG,AFNE01.JPG,AFNE01.JPG,,,,,,,,,,,,,,,,,,,,,2,4,24,7,,,AFNE15.jpg,AFSA19.jpg,AFSA12.jpg,AFNE10.jpg,AFSA12.jpg,FS,4,num_2,16,num_2,0.600138944108,,,2017_Apr_11_1847,60.0094890325,MAFE4ImagesEEG,001,100132,
AFNE01.JPG,AFNE01.JPG,AFNE01.JPG,AFNE01.JPG,AFNE01.JPG,AFNE01.JPG,,,,,,,,,,,,,,,,,,,,,2,5,25,4,,,AFSA20.jpg,AFNE08.jpg,AFNE01.jpg,AFSA19.jpg,AFSA20.jpg,FS,4,num_8,16,num_8,0.566756356042,,,2017_Apr_11_1847,60.0094890325,MAFE4ImagesEEG,001,100132,
AFNE01.JPG,AFNE01.JPG,AFNE01.JPG,AFNE01.JPG,AFNE01.JPG,AFNE01.JPG,,,,,,,,,,,,,,,,,,,,,2,6,26,1,,,AFNE13.jpg,AFNE19.jpg,AFSA01.jpg,AFSA12.jpg,AFSA12.jpg,FS,4,num_4,16,num_4,0.433517234866,,,2017_Apr_11_1847,60.0094890325,MAFE4ImagesEEG,001,100132,
AFNE01.JPG,AFNE01.JPG,AFNE01.JPG,AFNE01.JPG,AFNE01.JPG,AFNE01.JPG,,,,,,,,,,,,,,,,,,,,,2,7,27,8,,,AFSA18.jpg,AFNE13.jpg,AFNE19.jpg,AFSA16.jpg,AFNE19.jpg,FN,3,num_2,16,num_2,0.783453872427,,,2017_Apr_11_1847,60.0094890325,MAFE4ImagesEEG,001,100132,
AFNE01.JPG,AFNE01.JPG,AFNE01.JPG,AFNE01.JPG,AFNE01.JPG,AFNE01.JPG,,,,,,,,,,,,,,,,,,,,,2,8,28,9,,,AFNE12.jpg,AFSA20.jpg,AFSA13.jpg,AFNE09.jpg,AFNE09.jpg,FN,3,num_4,16,num_4,0.916763235815,,,2017_Apr_11_1847,60.0094890325,MAFE4ImagesEEG,001,100132,
AFNE01.JPG,AFNE01.JPG,AFNE01.JPG,AFNE01.JPG,AFNE01.JPG,AFNE01.JPG,,,,,,,,,,,,,,,,,,,,,2,9,29,0,,,AFSA10.jpg,AFNE18.jpg,AFSA16.jpg,AFNE03.jpg,AFNE18.jpg,FN,3,num_6,16,num_6,0.650198073126,,,2017_Apr_11_1847,60.0094890325,MAFE4ImagesEEG,001,100132,
AFNE01.JPG,AFNE01.JPG,AFNE01.JPG,AFNE01.JPG,AFNE01.JPG,AFNE01.JPG,,,,,,,,,,,,,,,,,,,,,3,0,30,1,,,AFNE11.jpg,AFSA08.jpg,AFSA19.jpg,AFNE07.jpg,AFNE07.jpg,FN,3,num_4,32,num_8,0.933415720705,,,2017_Apr_11_1847,60.0094890325,MAFE4ImagesEEG,001,100132,
AFNE01.JPG,AFNE01.JPG,AFNE01.JPG,AFNE01.JPG,AFNE01.JPG,AFNE01.JPG,,,,,,,,,,,,,,,,,,,,,3,1,31,9,,,AFSA10.jpg,AFNE17.jpg,AFNE18.jpg,AFSA19.jpg,AFNE18.jpg,FN,3,num_2,32,num_8,0.766773483716,,,2017_Apr_11_1847,60.0094890325,MAFE4ImagesEEG,001,100132,
AFNE01.JPG,AFNE01.JPG,AFNE01.JPG,AFNE01.JPG,AFNE01.JPG,AFNE01.JPG,,,,,,,,,,,,,,,,,,,,,3,2,32,0,,,AFSA11.jpg,AFNE07.jpg,AFSA03.jpg,AFNE20.jpg,AFNE20.jpg,FN,3,num_4,32,num_2,0.666802767199,,,2017_Apr_11_1847,60.0094890325,MAFE4ImagesEEG,001,100132,
AFNE01.JPG,AFNE01.JPG,AFNE01.JPG,AFNE01.JPG,AFNE01.JPG,AFNE01.JPG,,,,,,,,,,,,,,,,,,,,,3,3,33,8,,,AFSA16.jpg,AFSA09.jpg,AFNE08.jpg,AFNE11.jpg,AFSA16.jpg,FS,4,num_8,16,num_8,1.01722147688,,,2017_Apr_11_1847,60.0094890325,MAFE4ImagesEEG,001,100132,
AFNE01.JPG,AFNE01.JPG,AFNE01.JPG,AFNE01.JPG,AFNE01.JPG,AFNE01.JPG,,,,,,,,,,,,,,,,,,,,,3,4,34,6,,,AFNE12.jpg,AFNE18.jpg,AFSA16.jpg,AFSA06.jpg,AFSA16.jpg,FS,4,num_2,16,num_2,0.883458266966,,,2017_Apr_11_1847,60.0094890325,MAFE4ImagesEEG,001,100132,
AFNE01.JPG,AFNE01.JPG,AFNE01.JPG,AFNE01.JPG,AFNE01.JPG,AFNE01.JPG,,,,,,,,,,,,,,,,,,,,,3,5,35,3,,,AFNE01.jpg,AFSA03.jpg,AFSA10.jpg,AFNE06.jpg,AFNE01.jpg,FN,3,num_8,16,num_8,0.850160674658,,,2017_Apr_11_1847,60.0094890325,MAFE4ImagesEEG,001,100132,
AFNE01.JPG,AFNE01.JPG,AFNE01.JPG,AFNE01.JPG,AFNE01.JPG,AFNE01.JPG,,,,,,,,,,,,,,,,,,,,,3,6,36,2,,,AFSA14.jpg,AFSA05.jpg,AFNE07.jpg,AFNE02.jpg,AFNE07.jpg,FN,3,num_2,16,num_2,0.633484647609,,,2017_Apr_11_1847,60.0094890325,MAFE4ImagesEEG,001,100132,
AFNE01.JPG,AFNE01.JPG,AFNE01.JPG,AFNE01.JPG,AFNE01.JPG,AFNE01.JPG,,,,,,,,,,,,,,,,,,,,,3,7,37,7,,,AFSA17.jpg,AFSA02.jpg,AFNE20.jpg,AFNE12.jpg,AFSA02.jpg,FS,4,num_6,16,num_6,0.80013137497,,,2017_Apr_11_1847,60.0094890325,MAFE4ImagesEEG,001,100132,
AFNE01.JPG,AFNE01.JPG,AFNE01.JPG,AFNE01.JPG,AFNE01.JPG,AFNE01.JPG,,,,,,,,,,,,,,,,,,,,,3,8,38,5,,,AFSA11.jpg,AFSA19.jpg,AFNE09.jpg,AFNE07.jpg,AFSA11.jpg,FS,4,num_8,16,num_8,0.516832579859,,,2017_Apr_11_1847,60.0094890325,MAFE4ImagesEEG,001,100132,
