IPosition2,IPosition3,IPosition1,IPosition6,IPosition4,IPosition5,TrialsF1.thisRepN,TrialsF1.thisTrialN,TrialsF1.thisN,TrialsF1.thisIndex,TrialsM1.thisRepN,TrialsM1.thisTrialN,TrialsM1.thisN,TrialsM1.thisIndex,TrialsF2.thisRepN,TrialsF2.thisTrialN,TrialsF2.thisN,TrialsF2.thisIndex,TrialsM2.thisRepN,TrialsM2.thisTrialN,TrialsM2.thisN,TrialsM2.thisIndex,TrialsF3.thisRepN,TrialsF3.thisTrialN,TrialsF3.thisN,TrialsF3.thisIndex,TrialsM3.thisRepN,TrialsM3.thisTrialN,TrialsM3.thisN,TrialsM3.thisIndex,InstrKey_resp.keys,InstrKey_resp.rt,Image0 _Position,Image1 _Position,Image2 _Position,Image3 _Position,Center_image,condition,code,correct_answer,accuracy,Key_Resp.keys,Key_Resp.rt,BreakKey_resp.keys,BreakKey_resp.rt,date,frameRate,expName,session,participant,
,,,,,,,,,,,,,,,,,,,,,,,,,,,,,,space,92.2100562803,,,,,,,,,,,,,,2017_Apr_14_1209,60.003598958,FEMA4ImagesEEG,001,100173,
AMSA25.JPG,AMNE24.JPG,AMSA24.JPG,AMNE26.JPG,AMSA21.JPG,AMNE25.JPG,0,0,0,3,,,,,,,,,,,,,,,,,,,,,,,AFSA13.jpg,AFNE10.jpg,AFNE11.jpg,AFSA08.jpg,AFNE11.jpg,FN,3,num_2,32,num_4,2.133090619,,,2017_Apr_14_1209,60.003598958,FEMA4ImagesEEG,001,100173,
AFSA21.JPG,AFNE23.JPG,AFNE21.JPG,AFSA25.JPG,AFNE25.JPG,AFSA23.JPG,0,1,1,4,,,,,,,,,,,,,,,,,,,,,,,AFSA17.jpg,AFNE09.jpg,AFNE02.jpg,AFSA02.jpg,AFSA02.jpg,FS,4,num_4,32,num_8,1.30014500627,,,2017_Apr_14_1209,60.003598958,FEMA4ImagesEEG,001,100173,
AMNE23.JPG,AMNE24.JPG,AMNE22.JPG,AMSA24.JPG,AMSA22.JPG,AMSA23.JPG,0,2,2,9,,,,,,,,,,,,,,,,,,,,,,,AFNE15.jpg,AFNE10.jpg,AFSA02.jpg,AFSA19.jpg,AFSA19.jpg,FS,4,num_4,16,num_4,1.03347624419,,,2017_Apr_14_1209,60.003598958,FEMA4ImagesEEG,001,100173,
AFNE23.JPG,AFNE24.JPG,AFNE22.JPG,AFSA24.JPG,AFSA22.JPG,AFSA23.JPG,0,3,3,8,,,,,,,,,,,,,,,,,,,,,,,AFNE02.jpg,AFSA03.jpg,AFNE18.jpg,AFSA16.jpg,AFSA16.jpg,FS,4,num_4,16,num_4,0.93350135861,,,2017_Apr_14_1209,60.003598958,FEMA4ImagesEEG,001,100173,
AMSA21.JPG,AMNE22.JPG,AMNE21.JPG,AMSA23.JPG,AMSA22.JPG,AMNE23.JPG,0,4,4,1,,,,,,,,,,,,,,,,,,,,,,,AFSA11.jpg,AFSA03.jpg,AFNE04.jpg,AFNE17.jpg,AFNE04.jpg,FN,3,num_2,16,num_2,2.51666098414,,,2017_Apr_14_1209,60.003598958,FEMA4ImagesEEG,001,100173,
AFSA25.JPG,AFNE24.JPG,AFSA24.JPG,AFNE21.JPG,AFSA21.JPG,AFNE25.JPG,0,5,5,2,,,,,,,,,,,,,,,,,,,,,,,AFNE03.jpg,AFNE17.jpg,AFSA20.jpg,AFSA08.jpg,AFNE17.jpg,FN,3,num_6,16,num_6,1.06677030819,,,2017_Apr_14_1209,60.003598958,FEMA4ImagesEEG,001,100173,
AMNE22.JPG,AMSA24.JPG,AMSA22.JPG,AMNE25.JPG,AMNE24.JPG,AMSA25.JPG,0,6,6,7,,,,,,,,,,,,,,,,,,,,,,,AFNE07.jpg,AFSA17.jpg,AFSA08.jpg,AFNE03.jpg,AFNE03.jpg,FN,3,num_4,32,num_2,1.85005034041,,,2017_Apr_14_1209,60.003598958,FEMA4ImagesEEG,001,100173,
AMSA21.JPG,AMNE23.JPG,AMNE21.JPG,AMSA25.JPG,AMNE25.JPG,AMSA23.JPG,0,7,7,5,,,,,,,,,,,,,,,,,,,,,,,AFSA20.jpg,AFSA05.jpg,AFNE10.jpg,AFNE04.jpg,AFSA05.jpg,FS,4,num_6,16,num_6,0.783441363834,,,2017_Apr_14_1209,60.003598958,FEMA4ImagesEEG,001,100173,
AFSA21.JPG,AFNE22.JPG,AFNE21.JPG,AFSA23.JPG,AFSA22.JPG,AFNE23.JPG,0,8,8,0,,,,,,,,,,,,,,,,,,,,,,,AFSA12.jpg,AFNE12.jpg,AFSA20.jpg,AFNE19.jpg,AFSA12.jpg,FS,4,num_8,16,num_8,0.983431228437,,,2017_Apr_14_1209,60.003598958,FEMA4ImagesEEG,001,100173,
AFNE22.JPG,AFSA24.JPG,AFSA22.JPG,AFNE25.JPG,AFNE24.JPG,AFSA25.JPG,0,9,9,6,,,,,,,,,,,,,,,,,,,,,,,AFSA11.jpg,AFNE01.jpg,AFSA19.jpg,AFNE14.jpg,AFSA19.jpg,FS,4,num_2,16,num_2,2.31665861094,,,2017_Apr_14_1209,60.003598958,FEMA4ImagesEEG,001,100173,
AMNE22.JPG,AMSA24.JPG,AMSA22.JPG,AMNE25.JPG,AMNE24.JPG,AMSA25.JPG,,,,,0,0,0,7,,,,,,,,,,,,,,,,,,,AMNE15.jpg,AMNE08.jpg,AMSA08.jpg,AMSA07.jpg,AMNE08.jpg,MN,1,num_6,16,num_6,2.44965012139,,,2017_Apr_14_1209,60.003598958,FEMA4ImagesEEG,001,100173,
AFSA25.JPG,AFNE24.JPG,AFSA24.JPG,AFNE21.JPG,AFSA21.JPG,AFNE25.JPG,,,,,0,1,1,2,,,,,,,,,,,,,,,,,,,AMSA01.jpg,AMSA15.jpg,AMNE15.jpg,AMNE09.jpg,AMNE09.jpg,MN,1,num_4,32,num_8,1.60001161089,,,2017_Apr_14_1209,60.003598958,FEMA4ImagesEEG,001,100173,
AFNE22.JPG,AFSA24.JPG,AFSA22.JPG,AFNE25.JPG,AFNE24.JPG,AFSA25.JPG,,,,,0,2,2,6,,,,,,,,,,,,,,,,,,,AMSA19.jpg,AMNE02.jpg,AMSA11.jpg,AMNE14.jpg,AMNE14.jpg,MN,1,num_4,32,num_2,1.96671812423,,,2017_Apr_14_1209,60.003598958,FEMA4ImagesEEG,001,100173,
AMSA21.JPG,AMNE23.JPG,AMNE21.JPG,AMSA25.JPG,AMNE25.JPG,AMSA23.JPG,,,,,0,3,3,5,,,,,,,,,,,,,,,,,,,AMSA08.jpg,AMNE16.jpg,AMSA12.jpg,AMNE07.jpg,AMNE16.jpg,MN,1,num_6,32,num_4,2.9999913401,,,2017_Apr_14_1209,60.003598958,FEMA4ImagesEEG,001,100173,
AMNE23.JPG,AMNE24.JPG,AMNE22.JPG,AMSA24.JPG,AMSA22.JPG,AMSA23.JPG,,,,,0,4,4,9,,,,,,,,,,,,,,,,,,,AMSA16.jpg,AMNE19.jpg,AMNE02.jpg,AMSA11.jpg,AMNE02.jpg,MN,1,num_2,32,num_6,1.26672874065,,,2017_Apr_14_1209,60.003598958,FEMA4ImagesEEG,001,100173,
AMSA25.JPG,AMNE24.JPG,AMSA24.JPG,AMNE26.JPG,AMSA21.JPG,AMNE25.JPG,,,,,0,5,5,3,,,,,,,,,,,,,,,,,,,AMNE09.jpg,AMSA20.jpg,AMSA05.jpg,AMNE04.jpg,AMSA20.jpg,MS,2,num_6,32,num_8,1.63338297326,,,2017_Apr_14_1209,60.003598958,FEMA4ImagesEEG,001,100173,
AFSA21.JPG,AFNE22.JPG,AFNE21.JPG,AFSA23.JPG,AFSA22.JPG,AFNE23.JPG,,,,,0,6,6,0,,,,,,,,,,,,,,,,,,,AMSA11.jpg,AMNE08.jpg,AMSA18.jpg,AMNE07.jpg,AMNE08.jpg,MN,1,num_6,32,num_4,2.13335009757,,,2017_Apr_14_1209,60.003598958,FEMA4ImagesEEG,001,100173,
AMSA21.JPG,AMNE22.JPG,AMNE21.JPG,AMSA23.JPG,AMSA22.JPG,AMNE23.JPG,,,,,0,7,7,1,,,,,,,,,,,,,,,,,,,AMSA13.jpg,AMSA01.jpg,AMNE02.jpg,AMNE16.jpg,AMSA13.jpg,MS,2,num_8,16,num_8,2.63330150535,,,2017_Apr_14_1209,60.003598958,FEMA4ImagesEEG,001,100173,
AFSA21.JPG,AFNE23.JPG,AFNE21.JPG,AFSA25.JPG,AFNE25.JPG,AFSA23.JPG,,,,,0,8,8,4,,,,,,,,,,,,,,,,,,,AMSA08.jpg,AMNE09.jpg,AMNE16.jpg,AMSA10.jpg,AMNE09.jpg,MN,1,num_6,32,num_2,2.01666242722,,,2017_Apr_14_1209,60.003598958,FEMA4ImagesEEG,001,100173,
AFNE23.JPG,AFNE24.JPG,AFNE22.JPG,AFSA24.JPG,AFSA22.JPG,AFSA23.JPG,,,,,0,9,9,8,,,,,,,,,,,,,,,,,,,AMSA15.jpg,AMSA09.jpg,AMNE20.jpg,AMNE02.jpg,AMNE20.jpg,MN,1,num_2,16,num_2,2.44971972145,,,2017_Apr_14_1209,60.003598958,FEMA4ImagesEEG,001,100173,
AFSA21.JPG,AFNE22.JPG,AFNE21.JPG,AFSA23.JPG,AFSA22.JPG,AFNE23.JPG,,,,,,,,,0,0,0,0,,,,,,,,,,,,,,,AFNE08.jpg,AFNE16.jpg,AFSA14.jpg,AFSA01.jpg,AFNE16.jpg,FN,3,num_6,32,num_2,3.11657508975,,,2017_Apr_14_1209,60.003598958,FEMA4ImagesEEG,001,100173,
AMSA25.JPG,AMNE24.JPG,AMSA24.JPG,AMNE26.JPG,AMSA21.JPG,AMNE25.JPG,,,,,,,,,0,1,1,3,,,,,,,,,,,,,,,AFNE01.jpg,AFSA06.jpg,AFSA18.jpg,AFNE06.jpg,AFSA06.jpg,FS,4,num_6,32,num_2,1.91670806892,,,2017_Apr_14_1209,60.003598958,FEMA4ImagesEEG,001,100173,
AMSA21.JPG,AMNE22.JPG,AMNE21.JPG,AMSA23.JPG,AMSA22.JPG,AMNE23.JPG,,,,,,,,,0,2,2,1,,,,,,,,,,,,,,,AFNE04.jpg,AFSA06.jpg,AFNE13.jpg,AFSA10.jpg,AFNE04.jpg,FN,3,num_8,32,num_4,1.2334308275,,,2017_Apr_14_1209,60.003598958,FEMA4ImagesEEG,001,100173,
AFNE23.JPG,AFNE24.JPG,AFNE22.JPG,AFSA24.JPG,AFSA22.JPG,AFSA23.JPG,,,,,,,,,0,3,3,8,,,,,,,,,,,,,,,AFNE07.jpg,AFSA02.jpg,AFSA18.jpg,AFNE08.jpg,AFNE07.jpg,FN,3,num_8,16,num_8,1.8501055073,,,2017_Apr_14_1209,60.003598958,FEMA4ImagesEEG,001,100173,
AFSA25.JPG,AFNE24.JPG,AFSA24.JPG,AFNE21.JPG,AFSA21.JPG,AFNE25.JPG,,,,,,,,,0,4,4,2,,,,,,,,,,,,,,,AFSA10.jpg,AFNE02.jpg,AFNE13.jpg,AFSA19.jpg,AFNE02.jpg,FN,3,num_6,32,num_2,2.03335340088,,,2017_Apr_14_1209,60.003598958,FEMA4ImagesEEG,001,100173,
AMNE23.JPG,AMNE24.JPG,AMNE22.JPG,AMSA24.JPG,AMSA22.JPG,AMSA23.JPG,,,,,,,,,0,5,5,9,,,,,,,,,,,,,,,AFSA01.jpg,AFNE15.jpg,AFSA08.jpg,AFNE04.jpg,AFNE04.jpg,FN,3,num_4,32,num_6,2.99998428393,,,2017_Apr_14_1209,60.003598958,FEMA4ImagesEEG,001,100173,
AFNE22.JPG,AFSA24.JPG,AFSA22.JPG,AFNE25.JPG,AFNE24.JPG,AFSA25.JPG,,,,,,,,,0,6,6,6,,,,,,,,,,,,,,,AFNE04.jpg,AFNE13.jpg,AFSA15.jpg,AFSA01.jpg,AFSA15.jpg,FS,4,num_2,32,num_8,2.30004686024,,,2017_Apr_14_1209,60.003598958,FEMA4ImagesEEG,001,100173,
AMSA21.JPG,AMNE23.JPG,AMNE21.JPG,AMSA25.JPG,AMNE25.JPG,AMSA23.JPG,,,,,,,,,0,7,7,5,,,,,,,,,,,,,,,AFNE02.jpg,AFNE09.jpg,AFSA10.jpg,AFSA11.jpg,AFSA11.jpg,FS,4,num_4,16,num_4,1.0667324611,,,2017_Apr_14_1209,60.003598958,FEMA4ImagesEEG,001,100173,
AFSA21.JPG,AFNE23.JPG,AFNE21.JPG,AFSA25.JPG,AFNE25.JPG,AFSA23.JPG,,,,,,,,,0,8,8,4,,,,,,,,,,,,,,,AFNE07.jpg,AFNE17.jpg,AFSA03.jpg,AFSA09.jpg,AFSA09.jpg,FS,4,num_4,16,num_4,2.05001775315,,,2017_Apr_14_1209,60.003598958,FEMA4ImagesEEG,001,100173,
AMNE22.JPG,AMSA24.JPG,AMSA22.JPG,AMNE25.JPG,AMNE24.JPG,AMSA25.JPG,,,,,,,,,0,9,9,7,,,,,,,,,,,,,,,AFSA16.jpg,AFNE14.jpg,AFSA20.jpg,AFNE10.jpg,AFSA16.jpg,FS,4,num_8,32,num_2,3.8999247225,,,2017_Apr_14_1209,60.003598958,FEMA4ImagesEEG,001,100173,
AMSA21.JPG,AMNE23.JPG,AMNE21.JPG,AMSA25.JPG,AMNE25.JPG,AMSA23.JPG,,,,,,,,,,,,,0,0,0,5,,,,,,,,,,,AMSA04.jpg,AMSA09.jpg,AMNE02.jpg,AMNE10.jpg,AMNE10.jpg,MN,1,num_4,16,num_4,1.73362728069,,,2017_Apr_14_1209,60.003598958,FEMA4ImagesEEG,001,100173,
AFNE23.JPG,AFNE24.JPG,AFNE22.JPG,AFSA24.JPG,AFSA22.JPG,AFSA23.JPG,,,,,,,,,,,,,0,1,1,8,,,,,,,,,,,AMSA18.jpg,AMNE19.jpg,AMSA03.jpg,AMNE10.jpg,AMSA18.jpg,MS,2,num_8,16,num_8,1.18348556198,,,2017_Apr_14_1209,60.003598958,FEMA4ImagesEEG,001,100173,
AMNE23.JPG,AMNE24.JPG,AMNE22.JPG,AMSA24.JPG,AMSA22.JPG,AMSA23.JPG,,,,,,,,,,,,,0,2,2,9,,,,,,,,,,,AMSA05.jpg,AMNE08.jpg,AMSA20.jpg,AMNE05.jpg,AMNE08.jpg,MN,1,num_6,32,num_4,1.78336342424,,,2017_Apr_14_1209,60.003598958,FEMA4ImagesEEG,001,100173,
AFNE22.JPG,AFSA24.JPG,AFSA22.JPG,AFNE25.JPG,AFNE24.JPG,AFSA25.JPG,,,,,,,,,,,,,0,3,3,6,,,,,,,,,,,AMSA07.jpg,AMSA12.jpg,AMNE17.jpg,AMNE19.jpg,AMSA12.jpg,MS,2,num_6,16,num_6,2.03342043562,,,2017_Apr_14_1209,60.003598958,FEMA4ImagesEEG,001,100173,
AMNE22.JPG,AMSA24.JPG,AMSA22.JPG,AMNE25.JPG,AMNE24.JPG,AMSA25.JPG,,,,,,,,,,,,,0,4,4,7,,,,,,,,,,,AMSA06.jpg,AMNE16.jpg,AMNE09.jpg,AMSA04.jpg,AMSA06.jpg,MS,2,num_8,16,num_8,1.5334019931,,,2017_Apr_14_1209,60.003598958,FEMA4ImagesEEG,001,100173,
AFSA21.JPG,AFNE23.JPG,AFNE21.JPG,AFSA25.JPG,AFNE25.JPG,AFSA23.JPG,,,,,,,,,,,,,0,5,5,4,,,,,,,,,,,AMNE09.jpg,AMSA17.jpg,AMSA10.jpg,AMNE07.jpg,AMSA17.jpg,MS,2,num_6,16,num_6,1.88328987826,,,2017_Apr_14_1209,60.003598958,FEMA4ImagesEEG,001,100173,
AFSA25.JPG,AFNE24.JPG,AFSA24.JPG,AFNE21.JPG,AFSA21.JPG,AFNE25.JPG,,,,,,,,,,,,,0,6,6,2,,,,,,,,,,,AMNE18.jpg,AMSA12.jpg,AMSA09.jpg,AMNE07.jpg,AMSA09.jpg,MS,2,num_2,16,num_2,2.00003079139,,,2017_Apr_14_1209,60.003598958,FEMA4ImagesEEG,001,100173,
AMSA25.JPG,AMNE24.JPG,AMSA24.JPG,AMNE26.JPG,AMSA21.JPG,AMNE25.JPG,,,,,,,,,,,,,0,7,7,3,,,,,,,,,,,AMSA02.jpg,AMNE02.jpg,AMSA03.jpg,AMNE13.jpg,AMNE13.jpg,MN,1,num_4,16,num_4,1.13342547091,,,2017_Apr_14_1209,60.003598958,FEMA4ImagesEEG,001,100173,
AFSA21.JPG,AFNE22.JPG,AFNE21.JPG,AFSA23.JPG,AFSA22.JPG,AFNE23.JPG,,,,,,,,,,,,,0,8,8,0,,,,,,,,,,,AMNE04.jpg,AMSA10.jpg,AMNE03.jpg,AMSA07.jpg,AMSA07.jpg,MS,2,num_4,32,num_6,2.51664141892,,,2017_Apr_14_1209,60.003598958,FEMA4ImagesEEG,001,100173,
AMSA21.JPG,AMNE22.JPG,AMNE21.JPG,AMSA23.JPG,AMSA22.JPG,AMNE23.JPG,,,,,,,,,,,,,0,9,9,1,,,,,,,,,,,AMNE12.jpg,AMSA13.jpg,AMNE07.jpg,AMSA11.jpg,AMNE07.jpg,MN,1,num_2,32,num_8,1.25009036856,,,2017_Apr_14_1209,60.003598958,FEMA4ImagesEEG,001,100173,
AFNE23.JPG,AFNE24.JPG,AFNE22.JPG,AFSA24.JPG,AFSA22.JPG,AFSA23.JPG,,,,,,,,,,,,,,,,,0,0,0,8,,,,,,,AFSA07.jpg,AFNE14.jpg,AFNE02.jpg,AFSA06.jpg,AFSA06.jpg,FS,4,num_4,16,num_4,1.25010255631,,,2017_Apr_14_1209,60.003598958,FEMA4ImagesEEG,001,100173,
AMSA21.JPG,AMNE22.JPG,AMNE21.JPG,AMSA23.JPG,AMSA22.JPG,AMNE23.JPG,,,,,,,,,,,,,,,,,0,1,1,1,,,,,,,AFNE17.jpg,AFSA05.jpg,AFSA02.jpg,AFNE12.jpg,AFSA02.jpg,FS,4,num_2,16,num_2,2.11667580251,,,2017_Apr_14_1209,60.003598958,FEMA4ImagesEEG,001,100173,
AMNE22.JPG,AMSA24.JPG,AMSA22.JPG,AMNE25.JPG,AMNE24.JPG,AMSA25.JPG,,,,,,,,,,,,,,,,,0,2,2,7,,,,,,,AFNE18.jpg,AFNE06.jpg,AFSA02.jpg,AFSA08.jpg,AFSA02.jpg,FS,4,num_2,32,num_4,2.33329762425,,,2017_Apr_14_1209,60.003598958,FEMA4ImagesEEG,001,100173,
AFSA21.JPG,AFNE23.JPG,AFNE21.JPG,AFSA25.JPG,AFNE25.JPG,AFSA23.JPG,,,,,,,,,,,,,,,,,0,3,3,4,,,,,,,AFSA20.jpg,AFNE09.jpg,AFSA04.jpg,AFNE11.jpg,AFNE09.jpg,FN,3,num_6,16,num_6,2.33333899966,,,2017_Apr_14_1209,60.003598958,FEMA4ImagesEEG,001,100173,
AMSA21.JPG,AMNE23.JPG,AMNE21.JPG,AMSA25.JPG,AMNE25.JPG,AMSA23.JPG,,,,,,,,,,,,,,,,,0,4,4,5,,,,,,,AFNE07.jpg,AFSA17.jpg,AFNE11.jpg,AFSA16.jpg,AFNE07.jpg,FN,3,num_8,16,num_8,2.36664589355,,,2017_Apr_14_1209,60.003598958,FEMA4ImagesEEG,001,100173,
AMSA25.JPG,AMNE24.JPG,AMSA24.JPG,AMNE26.JPG,AMSA21.JPG,AMNE25.JPG,,,,,,,,,,,,,,,,,0,5,5,3,,,,,,,AFNE08.jpg,AFSA13.jpg,AFSA10.jpg,AFNE06.jpg,AFNE06.jpg,FN,3,num_4,16,num_4,2.71664026426,,,2017_Apr_14_1209,60.003598958,FEMA4ImagesEEG,001,100173,
AMNE23.JPG,AMNE24.JPG,AMNE22.JPG,AMSA24.JPG,AMSA22.JPG,AMSA23.JPG,,,,,,,,,,,,,,,,,0,6,6,9,,,,,,,AFSA17.jpg,AFNE15.jpg,AFSA05.jpg,AFNE10.jpg,AFNE15.jpg,FN,3,num_6,16,num_6,2.83331285976,,,2017_Apr_14_1209,60.003598958,FEMA4ImagesEEG,001,100173,
AFNE22.JPG,AFSA24.JPG,AFSA22.JPG,AFNE25.JPG,AFNE24.JPG,AFSA25.JPG,,,,,,,,,,,,,,,,,0,7,7,6,,,,,,,AFNE18.jpg,AFSA11.jpg,AFSA10.jpg,AFNE16.jpg,AFSA11.jpg,FS,4,num_6,16,num_6,1.06676196912,,,2017_Apr_14_1209,60.003598958,FEMA4ImagesEEG,001,100173,
AFSA21.JPG,AFNE22.JPG,AFNE21.JPG,AFSA23.JPG,AFSA22.JPG,AFNE23.JPG,,,,,,,,,,,,,,,,,0,8,8,0,,,,,,,AFSA06.jpg,AFNE20.jpg,AFNE13.jpg,AFSA16.jpg,AFNE20.jpg,FN,3,num_6,32,num_2,1.73340404546,,,2017_Apr_14_1209,60.003598958,FEMA4ImagesEEG,001,100173,
AFSA25.JPG,AFNE24.JPG,AFSA24.JPG,AFNE21.JPG,AFSA21.JPG,AFNE25.JPG,,,,,,,,,,,,,,,,,0,9,9,2,,,,,,,AFNE14.jpg,AFSA12.jpg,AFNE03.jpg,AFSA07.jpg,AFSA12.jpg,FS,4,num_6,16,num_6,1.10010221973,,,2017_Apr_14_1209,60.003598958,FEMA4ImagesEEG,001,100173,
AMSA21.JPG,AMNE22.JPG,AMNE21.JPG,AMSA23.JPG,AMSA22.JPG,AMNE23.JPG,,,,,,,,,,,,,,,,,,,,,0,0,0,1,,,AMNE19.jpg,AMSA07.jpg,AMNE11.jpg,AMSA16.jpg,AMSA07.jpg,MS,2,num_6,16,num_6,0.96673480235,,,2017_Apr_14_1209,60.003598958,FEMA4ImagesEEG,001,100173,
AFSA21.JPG,AFNE23.JPG,AFNE21.JPG,AFSA25.JPG,AFNE25.JPG,AFSA23.JPG,,,,,,,,,,,,,,,,,,,,,0,1,1,4,,,AMSA01.jpg,AMNE01.jpg,AMSA17.jpg,AMNE10.jpg,AMSA01.jpg,MS,2,num_8,16,num_8,3.74990129238,,,2017_Apr_14_1209,60.003598958,FEMA4ImagesEEG,001,100173,
AFSA21.JPG,AFNE22.JPG,AFNE21.JPG,AFSA23.JPG,AFSA22.JPG,AFNE23.JPG,,,,,,,,,,,,,,,,,,,,,0,2,2,0,,,AMNE09.jpg,AMNE12.jpg,AMSA11.jpg,AMSA06.jpg,AMNE09.jpg,MN,1,num_8,32,num_4,1.83334685769,,,2017_Apr_14_1209,60.003598958,FEMA4ImagesEEG,001,100173,
AMSA25.JPG,AMNE24.JPG,AMSA24.JPG,AMNE26.JPG,AMSA21.JPG,AMNE25.JPG,,,,,,,,,,,,,,,,,,,,,0,3,3,3,,,AMSA08.jpg,AMNE03.jpg,AMNE07.jpg,AMSA18.jpg,AMSA18.jpg,MS,2,num_4,16,num_4,1.76673178747,,,2017_Apr_14_1209,60.003598958,FEMA4ImagesEEG,001,100173,
AFNE22.JPG,AFSA24.JPG,AFSA22.JPG,AFNE25.JPG,AFNE24.JPG,AFSA25.JPG,,,,,,,,,,,,,,,,,,,,,0,4,4,6,,,AMNE11.jpg,AMSA19.jpg,AMSA11.jpg,AMNE10.jpg,AMSA11.jpg,MS,2,num_2,16,num_2,2.45000101021,,,2017_Apr_14_1209,60.003598958,FEMA4ImagesEEG,001,100173,
AMSA21.JPG,AMNE23.JPG,AMNE21.JPG,AMSA25.JPG,AMNE25.JPG,AMSA23.JPG,,,,,,,,,,,,,,,,,,,,,0,5,5,5,,,AMSA05.jpg,AMNE20.jpg,AMNE16.jpg,AMSA15.jpg,AMNE16.jpg,MN,1,num_2,16,num_2,1.48293199716,,,2017_Apr_14_1209,60.003598958,FEMA4ImagesEEG,001,100173,
AMNE23.JPG,AMNE24.JPG,AMNE22.JPG,AMSA24.JPG,AMSA22.JPG,AMSA23.JPG,,,,,,,,,,,,,,,,,,,,,0,6,6,9,,,AMNE01.jpg,AMNE03.jpg,AMSA10.jpg,AMSA08.jpg,AMNE03.jpg,MN,1,num_6,16,num_6,1.91670101276,,,2017_Apr_14_1209,60.003598958,FEMA4ImagesEEG,001,100173,
AFNE23.JPG,AFNE24.JPG,AFNE22.JPG,AFSA24.JPG,AFSA22.JPG,AFSA23.JPG,,,,,,,,,,,,,,,,,,,,,0,7,7,8,,,AMSA14.jpg,AMSA18.jpg,AMNE14.jpg,AMNE10.jpg,AMSA14.jpg,MS,2,num_8,16,num_8,4.38319477905,,,2017_Apr_14_1209,60.003598958,FEMA4ImagesEEG,001,100173,
AFSA25.JPG,AFNE24.JPG,AFSA24.JPG,AFNE21.JPG,AFSA21.JPG,AFNE25.JPG,,,,,,,,,,,,,,,,,,,,,0,8,8,2,,,AMNE13.jpg,AMSA06.jpg,AMNE10.jpg,AMSA04.jpg,AMSA06.jpg,MS,2,num_6,16,num_6,2.38334456412,,,2017_Apr_14_1209,60.003598958,FEMA4ImagesEEG,001,100173,
AMNE22.JPG,AMSA24.JPG,AMSA22.JPG,AMNE25.JPG,AMNE24.JPG,AMSA25.JPG,,,,,,,,,,,,,,,,,,,,,0,9,9,7,,,AMNE16.jpg,AMNE04.jpg,AMSA04.jpg,AMSA17.jpg,AMSA17.jpg,MS,2,num_4,16,num_4,2.93331693253,,,2017_Apr_14_1209,60.003598958,FEMA4ImagesEEG,001,100173,
,,,,,,,,,,,,,,,,,,,,,,,,,,,,,,,,,,,,,,,,,,,space,15.8322704555,2017_Apr_14_1209,60.003598958,FEMA4ImagesEEG,001,100173,
AFNE01.JPG,AFNE01.JPG,AFNE01.JPG,AFNE01.JPG,AFNE01.JPG,AFNE01.JPG,0,0,0,8,,,,,,,,,,,,,,,,,,,,,,,AFSA05.jpg,AFNE15.jpg,AFNE01.jpg,AFSA08.jpg,AFSA05.jpg,FS,4,num_8,32,num_4,1.70005224831,,,2017_Apr_14_1209,60.003598958,FEMA4ImagesEEG,001,100173,
AFNE01.JPG,AFNE01.JPG,AFNE01.JPG,AFNE01.JPG,AFNE01.JPG,AFNE01.JPG,0,1,1,5,,,,,,,,,,,,,,,,,,,,,,,AFSA16.jpg,AFNE05.jpg,AFSA14.jpg,AFNE07.jpg,AFSA16.jpg,FS,4,num_8,16,num_8,1.0167823839,,,2017_Apr_14_1209,60.003598958,FEMA4ImagesEEG,001,100173,
AFNE01.JPG,AFNE01.JPG,AFNE01.JPG,AFNE01.JPG,AFNE01.JPG,AFNE01.JPG,0,2,2,3,,,,,,,,,,,,,,,,,,,,,,,AFSA01.jpg,AFNE01.jpg,AFSA08.jpg,AFNE02.jpg,AFSA01.jpg,FS,4,num_8,32,num_6,1.88338513812,,,2017_Apr_14_1209,60.003598958,FEMA4ImagesEEG,001,100173,
AFNE01.JPG,AFNE01.JPG,AFNE01.JPG,AFNE01.JPG,AFNE01.JPG,AFNE01.JPG,0,3,3,7,,,,,,,,,,,,,,,,,,,,,,,AFNE15.jpg,AFSA16.jpg,AFNE10.jpg,AFSA11.jpg,AFNE10.jpg,FN,3,num_2,32,num_8,1.25042137178,,,2017_Apr_14_1209,60.003598958,FEMA4ImagesEEG,001,100173,
AFNE01.JPG,AFNE01.JPG,AFNE01.JPG,AFNE01.JPG,AFNE01.JPG,AFNE01.JPG,0,4,4,1,,,,,,,,,,,,,,,,,,,,,,,AFNE14.jpg,AFNE15.jpg,AFSA17.jpg,AFSA05.jpg,AFNE15.jpg,FN,3,num_6,16,num_6,1.75003343727,,,2017_Apr_14_1209,60.003598958,FEMA4ImagesEEG,001,100173,
AFNE01.JPG,AFNE01.JPG,AFNE01.JPG,AFNE01.JPG,AFNE01.JPG,AFNE01.JPG,0,5,5,6,,,,,,,,,,,,,,,,,,,,,,,AFSA05.jpg,AFSA20.jpg,AFNE06.jpg,AFNE12.jpg,AFNE12.jpg,FN,3,num_4,16,num_4,1.21671483619,,,2017_Apr_14_1209,60.003598958,FEMA4ImagesEEG,001,100173,
AFNE01.JPG,AFNE01.JPG,AFNE01.JPG,AFNE01.JPG,AFNE01.JPG,AFNE01.JPG,0,6,6,0,,,,,,,,,,,,,,,,,,,,,,,AFSA14.jpg,AFNE18.jpg,AFNE17.jpg,AFSA17.jpg,AFNE18.jpg,FN,3,num_6,16,num_6,1.78335829219,,,2017_Apr_14_1209,60.003598958,FEMA4ImagesEEG,001,100173,
AFNE01.JPG,AFNE01.JPG,AFNE01.JPG,AFNE01.JPG,AFNE01.JPG,AFNE01.JPG,0,7,7,2,,,,,,,,,,,,,,,,,,,,,,,AFSA20.jpg,AFSA17.jpg,AFNE13.jpg,AFNE04.jpg,AFSA17.jpg,FS,4,num_6,32,num_2,2.5833918415,,,2017_Apr_14_1209,60.003598958,FEMA4ImagesEEG,001,100173,
AFNE01.JPG,AFNE01.JPG,AFNE01.JPG,AFNE01.JPG,AFNE01.JPG,AFNE01.JPG,0,8,8,9,,,,,,,,,,,,,,,,,,,,,,,AFSA02.jpg,AFNE13.jpg,AFNE18.jpg,AFSA09.jpg,AFSA09.jpg,FS,4,num_4,32,num_2,2.26662450051,,,2017_Apr_14_1209,60.003598958,FEMA4ImagesEEG,001,100173,
AFNE01.JPG,AFNE01.JPG,AFNE01.JPG,AFNE01.JPG,AFNE01.JPG,AFNE01.JPG,0,9,9,4,,,,,,,,,,,,,,,,,,,,,,,AFSA15.jpg,AFSA13.jpg,AFNE02.jpg,AFNE16.jpg,AFNE16.jpg,FN,3,num_4,16,num_4,1.58346817736,,,2017_Apr_14_1209,60.003598958,FEMA4ImagesEEG,001,100173,
AFNE01.JPG,AFNE01.JPG,AFNE01.JPG,AFNE01.JPG,AFNE01.JPG,AFNE01.JPG,1,0,10,2,,,,,,,,,,,,,,,,,,,,,,,AFNE04.jpg,AFSA17.jpg,AFNE01.jpg,AFSA05.jpg,AFSA17.jpg,FS,4,num_6,32,num_2,2.73305764701,,,2017_Apr_14_1209,60.003598958,FEMA4ImagesEEG,001,100173,
AFNE01.JPG,AFNE01.JPG,AFNE01.JPG,AFNE01.JPG,AFNE01.JPG,AFNE01.JPG,1,1,11,9,,,,,,,,,,,,,,,,,,,,,,,AFSA05.jpg,AFSA11.jpg,AFNE16.jpg,AFNE04.jpg,AFNE04.jpg,FN,3,num_4,16,num_4,1.43339439109,,,2017_Apr_14_1209,60.003598958,FEMA4ImagesEEG,001,100173,
AFNE01.JPG,AFNE01.JPG,AFNE01.JPG,AFNE01.JPG,AFNE01.JPG,AFNE01.JPG,1,2,12,3,,,,,,,,,,,,,,,,,,,,,,,AFNE14.jpg,AFNE15.jpg,AFSA06.jpg,AFSA10.jpg,AFNE15.jpg,FN,3,num_6,16,num_6,1.10018464969,,,2017_Apr_14_1209,60.003598958,FEMA4ImagesEEG,001,100173,
AFNE01.JPG,AFNE01.JPG,AFNE01.JPG,AFNE01.JPG,AFNE01.JPG,AFNE01.JPG,1,3,13,7,,,,,,,,,,,,,,,,,,,,,,,AFNE06.jpg,AFSA19.jpg,AFNE11.jpg,AFSA10.jpg,AFSA10.jpg,FS,4,num_4,32,num_8,1.78350903979,,,2017_Apr_14_1209,60.003598958,FEMA4ImagesEEG,001,100173,
AFNE01.JPG,AFNE01.JPG,AFNE01.JPG,AFNE01.JPG,AFNE01.JPG,AFNE01.JPG,1,4,14,1,,,,,,,,,,,,,,,,,,,,,,,AFNE04.jpg,AFSA08.jpg,AFNE11.jpg,AFSA06.jpg,AFSA06.jpg,FS,4,num_4,32,num_6,1.71669671452,,,2017_Apr_14_1209,60.003598958,FEMA4ImagesEEG,001,100173,
AFNE01.JPG,AFNE01.JPG,AFNE01.JPG,AFNE01.JPG,AFNE01.JPG,AFNE01.JPG,1,5,15,5,,,,,,,,,,,,,,,,,,,,,,,AFSA20.jpg,AFNE17.jpg,AFNE15.jpg,AFSA02.jpg,AFNE17.jpg,FN,3,num_6,16,num_6,2.40003842488,,,2017_Apr_14_1209,60.003598958,FEMA4ImagesEEG,001,100173,
AFNE01.JPG,AFNE01.JPG,AFNE01.JPG,AFNE01.JPG,AFNE01.JPG,AFNE01.JPG,1,6,16,4,,,,,,,,,,,,,,,,,,,,,,,AFSA19.jpg,AFNE19.jpg,AFSA03.jpg,AFNE08.jpg,AFNE08.jpg,FN,3,num_4,16,num_4,2.04999530129,,,2017_Apr_14_1209,60.003598958,FEMA4ImagesEEG,001,100173,
AFNE01.JPG,AFNE01.JPG,AFNE01.JPG,AFNE01.JPG,AFNE01.JPG,AFNE01.JPG,1,7,17,0,,,,,,,,,,,,,,,,,,,,,,,AFSA18.jpg,AFNE19.jpg,AFSA16.jpg,AFNE12.jpg,AFSA18.jpg,FS,4,num_8,16,num_8,1.16669227229,,,2017_Apr_14_1209,60.003598958,FEMA4ImagesEEG,001,100173,
AFNE01.JPG,AFNE01.JPG,AFNE01.JPG,AFNE01.JPG,AFNE01.JPG,AFNE01.JPG,1,8,18,8,,,,,,,,,,,,,,,,,,,,,,,AFNE20.jpg,AFSA03.jpg,AFSA10.jpg,AFNE18.jpg,AFSA03.jpg,FS,4,num_6,32,num_8,1.88341464614,,,2017_Apr_14_1209,60.003598958,FEMA4ImagesEEG,001,100173,
AFNE01.JPG,AFNE01.JPG,AFNE01.JPG,AFNE01.JPG,AFNE01.JPG,AFNE01.JPG,1,9,19,6,,,,,,,,,,,,,,,,,,,,,,,AFNE15.jpg,AFSA03.jpg,AFNE13.jpg,AFSA07.jpg,AFSA07.jpg,FS,4,num_4,16,num_4,2.63340157596,,,2017_Apr_14_1209,60.003598958,FEMA4ImagesEEG,001,100173,
AFNE01.JPG,AFNE01.JPG,AFNE01.JPG,AFNE01.JPG,AFNE01.JPG,AFNE01.JPG,2,0,20,8,,,,,,,,,,,,,,,,,,,,,,,AFNE20.jpg,AFSA11.jpg,AFNE10.jpg,AFSA09.jpg,AFSA11.jpg,FS,4,num_6,16,num_6,1.06677768566,,,2017_Apr_14_1209,60.003598958,FEMA4ImagesEEG,001,100173,
AFNE01.JPG,AFNE01.JPG,AFNE01.JPG,AFNE01.JPG,AFNE01.JPG,AFNE01.JPG,2,1,21,5,,,,,,,,,,,,,,,,,,,,,,,AFNE15.jpg,AFSA17.jpg,AFSA08.jpg,AFNE02.jpg,AFSA17.jpg,FS,4,num_6,16,num_6,1.53345042514,,,2017_Apr_14_1209,60.003598958,FEMA4ImagesEEG,001,100173,
AFNE01.JPG,AFNE01.JPG,AFNE01.JPG,AFNE01.JPG,AFNE01.JPG,AFNE01.JPG,2,2,22,7,,,,,,,,,,,,,,,,,,,,,,,AFNE15.jpg,AFSA05.jpg,AFNE01.jpg,AFSA19.jpg,AFNE15.jpg,FN,3,num_8,16,num_8,0.833298746962,,,2017_Apr_14_1209,60.003598958,FEMA4ImagesEEG,001,100173,
AFNE01.JPG,AFNE01.JPG,AFNE01.JPG,AFNE01.JPG,AFNE01.JPG,AFNE01.JPG,2,3,23,3,,,,,,,,,,,,,,,,,,,,,,,AFNE19.jpg,AFSA16.jpg,AFNE20.jpg,AFSA07.jpg,AFNE19.jpg,FN,3,num_8,32,num_4,2.73329531495,,,2017_Apr_14_1209,60.003598958,FEMA4ImagesEEG,001,100173,
AFNE01.JPG,AFNE01.JPG,AFNE01.JPG,AFNE01.JPG,AFNE01.JPG,AFNE01.JPG,2,4,24,4,,,,,,,,,,,,,,,,,,,,,,,AFSA19.jpg,AFSA06.jpg,AFNE05.jpg,AFNE20.jpg,AFNE20.jpg,FN,3,num_4,32,num_2,3.23326821253,,,2017_Apr_14_1209,60.003598958,FEMA4ImagesEEG,001,100173,
AFNE01.JPG,AFNE01.JPG,AFNE01.JPG,AFNE01.JPG,AFNE01.JPG,AFNE01.JPG,2,5,25,6,,,,,,,,,,,,,,,,,,,,,,,AFNE19.jpg,AFSA19.jpg,AFNE12.jpg,AFSA04.jpg,AFNE12.jpg,FN,3,num_2,16,num_2,2.26669794973,,,2017_Apr_14_1209,60.003598958,FEMA4ImagesEEG,001,100173,
AFNE01.JPG,AFNE01.JPG,AFNE01.JPG,AFNE01.JPG,AFNE01.JPG,AFNE01.JPG,2,6,26,0,,,,,,,,,,,,,,,,,,,,,,,AFSA15.jpg,AFSA16.jpg,AFNE10.jpg,AFNE02.jpg,AFSA15.jpg,FS,4,num_8,32,num_4,3.91653551115,,,2017_Apr_14_1209,60.003598958,FEMA4ImagesEEG,001,100173,
AFNE01.JPG,AFNE01.JPG,AFNE01.JPG,AFNE01.JPG,AFNE01.JPG,AFNE01.JPG,2,7,27,2,,,,,,,,,,,,,,,,,,,,,,,AFNE09.jpg,AFNE06.jpg,AFSA16.jpg,AFSA06.jpg,AFSA06.jpg,FS,4,num_4,16,num_4,2.25006631296,,,2017_Apr_14_1209,60.003598958,FEMA4ImagesEEG,001,100173,
AFNE01.JPG,AFNE01.JPG,AFNE01.JPG,AFNE01.JPG,AFNE01.JPG,AFNE01.JPG,2,8,28,1,,,,,,,,,,,,,,,,,,,,,,,AFSA03.jpg,AFNE12.jpg,AFNE05.jpg,AFSA02.jpg,AFSA03.jpg,FS,4,num_8,32,num_6,3.44964819681,,,2017_Apr_14_1209,60.003598958,FEMA4ImagesEEG,001,100173,
AFNE01.JPG,AFNE01.JPG,AFNE01.JPG,AFNE01.JPG,AFNE01.JPG,AFNE01.JPG,2,9,29,9,,,,,,,,,,,,,,,,,,,,,,,AFSA16.jpg,AFNE18.jpg,AFSA10.jpg,AFNE05.jpg,AFSA16.jpg,FS,4,num_8,16,num_8,1.26671398617,,,2017_Apr_14_1209,60.003598958,FEMA4ImagesEEG,001,100173,
AFNE01.JPG,AFNE01.JPG,AFNE01.JPG,AFNE01.JPG,AFNE01.JPG,AFNE01.JPG,3,0,30,6,,,,,,,,,,,,,,,,,,,,,,,AFNE14.jpg,AFNE01.jpg,AFSA08.jpg,AFSA01.jpg,AFNE14.jpg,FN,3,num_8,16,num_8,2.73337389622,,,2017_Apr_14_1209,60.003598958,FEMA4ImagesEEG,001,100173,
AFNE01.JPG,AFNE01.JPG,AFNE01.JPG,AFNE01.JPG,AFNE01.JPG,AFNE01.JPG,3,1,31,2,,,,,,,,,,,,,,,,,,,,,,,AFSA14.jpg,AFNE13.jpg,AFSA17.jpg,AFNE14.jpg,AFNE14.jpg,FN,3,num_4,16,num_4,1.00012027705,,,2017_Apr_14_1209,60.003598958,FEMA4ImagesEEG,001,100173,
AFNE01.JPG,AFNE01.JPG,AFNE01.JPG,AFNE01.JPG,AFNE01.JPG,AFNE01.JPG,3,2,32,5,,,,,,,,,,,,,,,,,,,,,,,AFSA09.jpg,AFNE06.jpg,AFNE07.jpg,AFSA02.jpg,AFNE06.jpg,FN,3,num_6,32,num_8,2.06665869104,,,2017_Apr_14_1209,60.003598958,FEMA4ImagesEEG,001,100173,
AFNE01.JPG,AFNE01.JPG,AFNE01.JPG,AFNE01.JPG,AFNE01.JPG,AFNE01.JPG,3,3,33,7,,,,,,,,,,,,,,,,,,,,,,,AFSA15.jpg,AFNE17.jpg,AFNE16.jpg,AFSA01.jpg,AFSA01.jpg,FS,4,num_4,16,num_4,1.40008300729,,,2017_Apr_14_1209,60.003598958,FEMA4ImagesEEG,001,100173,
AFNE01.JPG,AFNE01.JPG,AFNE01.JPG,AFNE01.JPG,AFNE01.JPG,AFNE01.JPG,3,4,34,0,,,,,,,,,,,,,,,,,,,,,,,AFSA16.jpg,AFSA01.jpg,AFNE14.jpg,AFNE12.jpg,AFSA01.jpg,FS,4,num_6,16,num_6,1.48346346291,,,2017_Apr_14_1209,60.003598958,FEMA4ImagesEEG,001,100173,
AFNE01.JPG,AFNE01.JPG,AFNE01.JPG,AFNE01.JPG,AFNE01.JPG,AFNE01.JPG,3,5,35,9,,,,,,,,,,,,,,,,,,,,,,,AFNE18.jpg,AFSA03.jpg,AFNE10.jpg,AFSA16.jpg,AFNE10.jpg,FN,3,num_2,16,num_2,2.23339330126,,,2017_Apr_14_1209,60.003598958,FEMA4ImagesEEG,001,100173,
AFNE01.JPG,AFNE01.JPG,AFNE01.JPG,AFNE01.JPG,AFNE01.JPG,AFNE01.JPG,3,6,36,1,,,,,,,,,,,,,,,,,,,,,,,AFNE12.jpg,AFSA06.jpg,AFNE01.jpg,AFSA02.jpg,AFNE12.jpg,FN,3,num_8,16,num_8,0.916759707965,,,2017_Apr_14_1209,60.003598958,FEMA4ImagesEEG,001,100173,
AFNE01.JPG,AFNE01.JPG,AFNE01.JPG,AFNE01.JPG,AFNE01.JPG,AFNE01.JPG,3,7,37,3,,,,,,,,,,,,,,,,,,,,,,,AFSA09.jpg,AFSA18.jpg,AFNE14.jpg,AFNE16.jpg,AFNE16.jpg,FN,3,num_4,16,num_4,1.18342718715,,,2017_Apr_14_1209,60.003598958,FEMA4ImagesEEG,001,100173,
AFNE01.JPG,AFNE01.JPG,AFNE01.JPG,AFNE01.JPG,AFNE01.JPG,AFNE01.JPG,3,8,38,8,,,,,,,,,,,,,,,,,,,,,,,AFNE03.jpg,AFNE02.jpg,AFSA05.jpg,AFSA15.jpg,AFNE02.jpg,FN,3,num_6,16,num_6,2.33337171515,,,2017_Apr_14_1209,60.003598958,FEMA4ImagesEEG,001,100173,
AFNE01.JPG,AFNE01.JPG,AFNE01.JPG,AFNE01.JPG,AFNE01.JPG,AFNE01.JPG,3,9,39,4,,,,,,,,,,,,,,,,,,,,,,,AFNE01.jpg,AFSA12.jpg,AFNE15.jpg,AFSA18.jpg,AFNE15.jpg,FN,3,num_2,32,num_6,2.31671024999,,,2017_Apr_14_1209,60.003598958,FEMA4ImagesEEG,001,100173,
AFNE01.JPG,AFNE01.JPG,AFNE01.JPG,AFNE01.JPG,AFNE01.JPG,AFNE01.JPG,4,0,40,8,,,,,,,,,,,,,,,,,,,,,,,AFNE18.jpg,AFNE15.jpg,AFSA14.jpg,AFSA05.jpg,AFNE15.jpg,FN,3,num_6,16,num_6,1.4164359211,,,2017_Apr_14_1209,60.003598958,FEMA4ImagesEEG,001,100173,
AFNE01.JPG,AFNE01.JPG,AFNE01.JPG,AFNE01.JPG,AFNE01.JPG,AFNE01.JPG,4,1,41,2,,,,,,,,,,,,,,,,,,,,,,,AFSA02.jpg,AFNE17.jpg,AFNE18.jpg,AFSA15.jpg,AFNE17.jpg,FN,3,num_6,32,num_2,3.43326673703,,,2017_Apr_14_1209,60.003598958,FEMA4ImagesEEG,001,100173,
AFNE01.JPG,AFNE01.JPG,AFNE01.JPG,AFNE01.JPG,AFNE01.JPG,AFNE01.JPG,4,2,42,6,,,,,,,,,,,,,,,,,,,,,,,AFNE10.jpg,AFSA07.jpg,AFNE08.jpg,AFSA16.jpg,AFNE10.jpg,FN,3,num_8,16,num_8,0.950103486422,,,2017_Apr_14_1209,60.003598958,FEMA4ImagesEEG,001,100173,
AFNE01.JPG,AFNE01.JPG,AFNE01.JPG,AFNE01.JPG,AFNE01.JPG,AFNE01.JPG,4,3,43,3,,,,,,,,,,,,,,,,,,,,,,,AFSA16.jpg,AFNE19.jpg,AFSA12.jpg,AFNE16.jpg,AFNE16.jpg,FN,3,num_4,16,num_4,3.56655172445,,,2017_Apr_14_1209,60.003598958,FEMA4ImagesEEG,001,100173,
AFNE01.JPG,AFNE01.JPG,AFNE01.JPG,AFNE01.JPG,AFNE01.JPG,AFNE01.JPG,4,4,44,5,,,,,,,,,,,,,,,,,,,,,,,AFNE04.jpg,AFSA17.jpg,AFSA12.jpg,AFNE06.jpg,AFSA17.jpg,FS,4,num_6,16,num_6,1.01679938333,,,2017_Apr_14_1209,60.003598958,FEMA4ImagesEEG,001,100173,
AFNE01.JPG,AFNE01.JPG,AFNE01.JPG,AFNE01.JPG,AFNE01.JPG,AFNE01.JPG,4,5,45,1,,,,,,,,,,,,,,,,,,,,,,,AFNE15.jpg,AFSA14.jpg,AFNE05.jpg,AFSA01.jpg,AFSA01.jpg,FS,4,num_4,16,num_4,1.60002411995,,,2017_Apr_14_1209,60.003598958,FEMA4ImagesEEG,001,100173,
AFNE01.JPG,AFNE01.JPG,AFNE01.JPG,AFNE01.JPG,AFNE01.JPG,AFNE01.JPG,4,6,46,4,,,,,,,,,,,,,,,,,,,,,,,AFSA17.jpg,AFSA03.jpg,AFNE11.jpg,AFNE07.jpg,AFNE07.jpg,FN,3,num_4,16,num_4,1.31669870298,,,2017_Apr_14_1209,60.003598958,FEMA4ImagesEEG,001,100173,
AFNE01.JPG,AFNE01.JPG,AFNE01.JPG,AFNE01.JPG,AFNE01.JPG,AFNE01.JPG,4,7,47,0,,,,,,,,,,,,,,,,,,,,,,,AFNE07.jpg,AFSA19.jpg,AFSA07.jpg,AFNE17.jpg,AFSA19.jpg,FS,4,num_6,32,num_4,1.56679644855,,,2017_Apr_14_1209,60.003598958,FEMA4ImagesEEG,001,100173,
AFNE01.JPG,AFNE01.JPG,AFNE01.JPG,AFNE01.JPG,AFNE01.JPG,AFNE01.JPG,4,8,48,7,,,,,,,,,,,,,,,,,,,,,,,AFSA09.jpg,AFNE12.jpg,AFNE10.jpg,AFSA10.jpg,AFSA09.jpg,FS,4,num_8,16,num_8,2.83332344377,,,2017_Apr_14_1209,60.003598958,FEMA4ImagesEEG,001,100173,
AFNE01.JPG,AFNE01.JPG,AFNE01.JPG,AFNE01.JPG,AFNE01.JPG,AFNE01.JPG,4,9,49,9,,,,,,,,,,,,,,,,,,,,,,,AFSA10.jpg,AFSA12.jpg,AFNE10.jpg,AFNE18.jpg,AFNE18.jpg,FN,3,num_4,32,num_8,1.90028715832,,,2017_Apr_14_1209,60.003598958,FEMA4ImagesEEG,001,100173,
AFNE01.JPG,AFNE01.JPG,AFNE01.JPG,AFNE01.JPG,AFNE01.JPG,AFNE01.JPG,5,0,50,6,,,,,,,,,,,,,,,,,,,,,,,AFSA11.jpg,AFNE14.jpg,AFSA10.jpg,AFNE06.jpg,AFSA11.jpg,FS,4,num_8,32,num_2,3.21657242766,,,2017_Apr_14_1209,60.003598958,FEMA4ImagesEEG,001,100173,
AFNE01.JPG,AFNE01.JPG,AFNE01.JPG,AFNE01.JPG,AFNE01.JPG,AFNE01.JPG,5,1,51,0,,,,,,,,,,,,,,,,,,,,,,,AFSA01.jpg,AFNE07.jpg,AFNE16.jpg,AFSA18.jpg,AFSA18.jpg,FS,4,num_4,16,num_4,1.20013323566,,,2017_Apr_14_1209,60.003598958,FEMA4ImagesEEG,001,100173,
AFNE01.JPG,AFNE01.JPG,AFNE01.JPG,AFNE01.JPG,AFNE01.JPG,AFNE01.JPG,5,2,52,9,,,,,,,,,,,,,,,,,,,,,,,AFSA14.jpg,AFNE10.jpg,AFNE03.jpg,AFSA18.jpg,AFNE03.jpg,FN,3,num_2,16,num_2,2.13338634092,,,2017_Apr_14_1209,60.003598958,FEMA4ImagesEEG,001,100173,
AFNE01.JPG,AFNE01.JPG,AFNE01.JPG,AFNE01.JPG,AFNE01.JPG,AFNE01.JPG,5,3,53,1,,,,,,,,,,,,,,,,,,,,,,,AFNE01.jpg,AFNE15.jpg,AFSA20.jpg,AFSA12.jpg,AFNE01.jpg,FN,3,num_8,16,num_8,3.04995168047,,,2017_Apr_14_1209,60.003598958,FEMA4ImagesEEG,001,100173,
AFNE01.JPG,AFNE01.JPG,AFNE01.JPG,AFNE01.JPG,AFNE01.JPG,AFNE01.JPG,5,4,54,7,,,,,,,,,,,,,,,,,,,,,,,AFNE10.jpg,AFNE09.jpg,AFSA06.jpg,AFSA13.jpg,AFSA13.jpg,FS,4,num_4,32,num_2,2.41665691091,,,2017_Apr_14_1209,60.003598958,FEMA4ImagesEEG,001,100173,
AFNE01.JPG,AFNE01.JPG,AFNE01.JPG,AFNE01.JPG,AFNE01.JPG,AFNE01.JPG,5,5,55,2,,,,,,,,,,,,,,,,,,,,,,,AFNE09.jpg,AFSA02.jpg,AFNE08.jpg,AFSA09.jpg,AFSA02.jpg,FS,4,num_6,16,num_6,1.05017106654,,,2017_Apr_14_1209,60.003598958,FEMA4ImagesEEG,001,100173,
AFNE01.JPG,AFNE01.JPG,AFNE01.JPG,AFNE01.JPG,AFNE01.JPG,AFNE01.JPG,5,6,56,3,,,,,,,,,,,,,,,,,,,,,,,AFSA03.jpg,AFNE16.jpg,AFNE15.jpg,AFSA09.jpg,AFNE16.jpg,FN,3,num_6,16,num_6,2.00008980697,,,2017_Apr_14_1209,60.003598958,FEMA4ImagesEEG,001,100173,
AFNE01.JPG,AFNE01.JPG,AFNE01.JPG,AFNE01.JPG,AFNE01.JPG,AFNE01.JPG,5,7,57,5,,,,,,,,,,,,,,,,,,,,,,,AFNE13.jpg,AFSA13.jpg,AFNE06.jpg,AFSA17.jpg,AFNE06.jpg,FN,3,num_2,16,num_2,2.19999403413,,,2017_Apr_14_1209,60.003598958,FEMA4ImagesEEG,001,100173,
AFNE01.JPG,AFNE01.JPG,AFNE01.JPG,AFNE01.JPG,AFNE01.JPG,AFNE01.JPG,5,8,58,8,,,,,,,,,,,,,,,,,,,,,,,AFSA16.jpg,AFNE11.jpg,AFSA18.jpg,AFNE10.jpg,AFSA16.jpg,FS,4,num_8,16,num_8,1.00012348499,,,2017_Apr_14_1209,60.003598958,FEMA4ImagesEEG,001,100173,
AFNE01.JPG,AFNE01.JPG,AFNE01.JPG,AFNE01.JPG,AFNE01.JPG,AFNE01.JPG,5,9,59,4,,,,,,,,,,,,,,,,,,,,,,,AFNE03.jpg,AFNE17.jpg,AFSA11.jpg,AFSA04.jpg,AFSA04.jpg,FS,4,num_4,32,num_2,3.43325294554,,,2017_Apr_14_1209,60.003598958,FEMA4ImagesEEG,001,100173,
,,,,,,,,,,,,,,,,,,,,,,,,,,,,,,,,,,,,,,,,,,,space,9.01612166036,2017_Apr_14_1209,60.003598958,FEMA4ImagesEEG,001,100173,
AFNE01.JPG,AFNE01.JPG,AFNE01.JPG,AFNE01.JPG,AFNE01.JPG,AFNE01.JPG,,,,,0,0,0,8,,,,,,,,,,,,,,,,,,,AMSA19.jpg,AMNE18.jpg,AMSA16.jpg,AMNE11.jpg,AMSA16.jpg,MS,2,num_2,32,num_8,1.10012210533,,,2017_Apr_14_1209,60.003598958,FEMA4ImagesEEG,001,100173,
AFNE01.JPG,AFNE01.JPG,AFNE01.JPG,AFNE01.JPG,AFNE01.JPG,AFNE01.JPG,,,,,0,1,1,4,,,,,,,,,,,,,,,,,,,AMNE19.jpg,AMNE17.jpg,AMSA09.jpg,AMSA14.jpg,AMNE17.jpg,MN,1,num_6,16,num_6,0.900100166909,,,2017_Apr_14_1209,60.003598958,FEMA4ImagesEEG,001,100173,
AFNE01.JPG,AFNE01.JPG,AFNE01.JPG,AFNE01.JPG,AFNE01.JPG,AFNE01.JPG,,,,,0,2,2,6,,,,,,,,,,,,,,,,,,,AMNE16.jpg,AMSA14.jpg,AMNE08.jpg,AMSA10.jpg,AMNE08.jpg,MN,1,num_2,16,num_2,2.666632134,,,2017_Apr_14_1209,60.003598958,FEMA4ImagesEEG,001,100173,
AFNE01.JPG,AFNE01.JPG,AFNE01.JPG,AFNE01.JPG,AFNE01.JPG,AFNE01.JPG,,,,,0,3,3,0,,,,,,,,,,,,,,,,,,,AMNE10.jpg,AMSA01.jpg,AMSA05.jpg,AMNE05.jpg,AMSA01.jpg,MS,2,num_6,16,num_6,0.783073795959,,,2017_Apr_14_1209,60.003598958,FEMA4ImagesEEG,001,100173,
AFNE01.JPG,AFNE01.JPG,AFNE01.JPG,AFNE01.JPG,AFNE01.JPG,AFNE01.JPG,,,,,0,4,4,3,,,,,,,,,,,,,,,,,,,AMSA14.jpg,AMNE11.jpg,AMNE06.jpg,AMSA02.jpg,AMSA14.jpg,MS,2,num_8,32,num_4,3.18323602667,,,2017_Apr_14_1209,60.003598958,FEMA4ImagesEEG,001,100173,
AFNE01.JPG,AFNE01.JPG,AFNE01.JPG,AFNE01.JPG,AFNE01.JPG,AFNE01.JPG,,,,,0,5,5,5,,,,,,,,,,,,,,,,,,,AMSA19.jpg,AMSA14.jpg,AMNE20.jpg,AMNE10.jpg,AMNE20.jpg,MN,1,num_2,16,num_2,2.58334469283,,,2017_Apr_14_1209,60.003598958,FEMA4ImagesEEG,001,100173,
AFNE01.JPG,AFNE01.JPG,AFNE01.JPG,AFNE01.JPG,AFNE01.JPG,AFNE01.JPG,,,,,0,6,6,2,,,,,,,,,,,,,,,,,,,AMNE08.jpg,AMNE10.jpg,AMSA17.jpg,AMSA11.jpg,AMNE10.jpg,MN,1,num_6,16,num_6,1.06676678034,,,2017_Apr_14_1209,60.003598958,FEMA4ImagesEEG,001,100173,
AFNE01.JPG,AFNE01.JPG,AFNE01.JPG,AFNE01.JPG,AFNE01.JPG,AFNE01.JPG,,,,,0,7,7,1,,,,,,,,,,,,,,,,,,,AMSA07.jpg,AMNE19.jpg,AMSA19.jpg,AMNE18.jpg,AMSA07.jpg,MS,2,num_8,16,num_8,2.83332536835,,,2017_Apr_14_1209,60.003598958,FEMA4ImagesEEG,001,100173,
AFNE01.JPG,AFNE01.JPG,AFNE01.JPG,AFNE01.JPG,AFNE01.JPG,AFNE01.JPG,,,,,0,8,8,7,,,,,,,,,,,,,,,,,,,AMSA12.jpg,AMNE08.jpg,AMNE17.jpg,AMSA09.jpg,AMSA09.jpg,MS,2,num_4,16,num_4,0.816747616045,,,2017_Apr_14_1209,60.003598958,FEMA4ImagesEEG,001,100173,
AFNE01.JPG,AFNE01.JPG,AFNE01.JPG,AFNE01.JPG,AFNE01.JPG,AFNE01.JPG,,,,,0,9,9,9,,,,,,,,,,,,,,,,,,,AMNE12.jpg,AMSA11.jpg,AMNE16.jpg,AMSA20.jpg,AMNE12.jpg,MN,1,num_8,16,num_8,1.56672813138,,,2017_Apr_14_1209,60.003598958,FEMA4ImagesEEG,001,100173,
AFNE01.JPG,AFNE01.JPG,AFNE01.JPG,AFNE01.JPG,AFNE01.JPG,AFNE01.JPG,,,,,1,0,10,1,,,,,,,,,,,,,,,,,,,AMNE05.jpg,AMSA04.jpg,AMSA12.jpg,AMNE03.jpg,AMSA04.jpg,MS,2,num_6,16,num_6,0.916814554017,,,2017_Apr_14_1209,60.003598958,FEMA4ImagesEEG,001,100173,
AFNE01.JPG,AFNE01.JPG,AFNE01.JPG,AFNE01.JPG,AFNE01.JPG,AFNE01.JPG,,,,,1,1,11,0,,,,,,,,,,,,,,,,,,,AMNE15.jpg,AMNE11.jpg,AMSA08.jpg,AMSA17.jpg,AMSA08.jpg,MS,2,num_2,16,num_2,3.89991766633,,,2017_Apr_14_1209,60.003598958,FEMA4ImagesEEG,001,100173,
AFNE01.JPG,AFNE01.JPG,AFNE01.JPG,AFNE01.JPG,AFNE01.JPG,AFNE01.JPG,,,,,1,2,12,6,,,,,,,,,,,,,,,,,,,AMNE05.jpg,AMNE13.jpg,AMSA09.jpg,AMSA02.jpg,AMNE05.jpg,MN,1,num_8,32,num_6,1.61646267073,,,2017_Apr_14_1209,60.003598958,FEMA4ImagesEEG,001,100173,
AFNE01.JPG,AFNE01.JPG,AFNE01.JPG,AFNE01.JPG,AFNE01.JPG,AFNE01.JPG,,,,,1,3,13,5,,,,,,,,,,,,,,,,,,,AMNE09.jpg,AMSA03.jpg,AMSA02.jpg,AMNE10.jpg,AMNE10.jpg,MN,1,num_4,16,num_4,1.45008376101,,,2017_Apr_14_1209,60.003598958,FEMA4ImagesEEG,001,100173,
AFNE01.JPG,AFNE01.JPG,AFNE01.JPG,AFNE01.JPG,AFNE01.JPG,AFNE01.JPG,,,,,1,4,14,7,,,,,,,,,,,,,,,,,,,AMNE06.jpg,AMSA06.jpg,AMNE14.jpg,AMSA10.jpg,AMNE06.jpg,MN,1,num_8,32,num_6,2.0833570417,,,2017_Apr_14_1209,60.003598958,FEMA4ImagesEEG,001,100173,
AFNE01.JPG,AFNE01.JPG,AFNE01.JPG,AFNE01.JPG,AFNE01.JPG,AFNE01.JPG,,,,,1,5,15,3,,,,,,,,,,,,,,,,,,,AMNE06.jpg,AMSA11.jpg,AMNE20.jpg,AMSA03.jpg,AMSA03.jpg,MS,2,num_4,16,num_4,1.93345773779,,,2017_Apr_14_1209,60.003598958,FEMA4ImagesEEG,001,100173,
AFNE01.JPG,AFNE01.JPG,AFNE01.JPG,AFNE01.JPG,AFNE01.JPG,AFNE01.JPG,,,,,1,6,16,2,,,,,,,,,,,,,,,,,,,AMNE17.jpg,AMSA09.jpg,AMSA06.jpg,AMNE20.jpg,AMNE17.jpg,MN,1,num_8,32,num_2,2.28335203743,,,2017_Apr_14_1209,60.003598958,FEMA4ImagesEEG,001,100173,
AFNE01.JPG,AFNE01.JPG,AFNE01.JPG,AFNE01.JPG,AFNE01.JPG,AFNE01.JPG,,,,,1,7,17,9,,,,,,,,,,,,,,,,,,,AMSA03.jpg,AMNE08.jpg,AMSA09.jpg,AMNE13.jpg,AMSA03.jpg,MS,2,num_8,16,num_8,0.733423931524,,,2017_Apr_14_1209,60.003598958,FEMA4ImagesEEG,001,100173,
AFNE01.JPG,AFNE01.JPG,AFNE01.JPG,AFNE01.JPG,AFNE01.JPG,AFNE01.JPG,,,,,1,8,18,8,,,,,,,,,,,,,,,,,,,AMSA13.jpg,AMNE13.jpg,AMNE18.jpg,AMSA16.jpg,AMSA16.jpg,MS,2,num_4,16,num_4,0.933499434032,,,2017_Apr_14_1209,60.003598958,FEMA4ImagesEEG,001,100173,
AFNE01.JPG,AFNE01.JPG,AFNE01.JPG,AFNE01.JPG,AFNE01.JPG,AFNE01.JPG,,,,,1,9,19,4,,,,,,,,,,,,,,,,,,,AMSA11.jpg,AMNE05.jpg,AMSA14.jpg,AMNE19.jpg,AMSA11.jpg,MS,2,num_8,16,num_8,3.63327392144,,,2017_Apr_14_1209,60.003598958,FEMA4ImagesEEG,001,100173,
AFNE01.JPG,AFNE01.JPG,AFNE01.JPG,AFNE01.JPG,AFNE01.JPG,AFNE01.JPG,,,,,2,0,20,0,,,,,,,,,,,,,,,,,,,AMNE18.jpg,AMNE12.jpg,AMSA07.jpg,AMSA09.jpg,AMSA07.jpg,MS,2,num_2,16,num_2,3.56653408334,,,2017_Apr_14_1209,60.003598958,FEMA4ImagesEEG,001,100173,
AFNE01.JPG,AFNE01.JPG,AFNE01.JPG,AFNE01.JPG,AFNE01.JPG,AFNE01.JPG,,,,,2,1,21,6,,,,,,,,,,,,,,,,,,,AMNE20.jpg,AMSA13.jpg,AMSA11.jpg,AMNE19.jpg,AMNE19.jpg,MN,1,num_4,32,num_8,3.78290893603,,,2017_Apr_14_1209,60.003598958,FEMA4ImagesEEG,001,100173,
AFNE01.JPG,AFNE01.JPG,AFNE01.JPG,AFNE01.JPG,AFNE01.JPG,AFNE01.JPG,,,,,2,2,22,7,,,,,,,,,,,,,,,,,,,AMSA07.jpg,AMNE11.jpg,AMNE20.jpg,AMSA04.jpg,AMNE11.jpg,MN,1,num_6,16,num_6,0.966755330097,,,2017_Apr_14_1209,60.003598958,FEMA4ImagesEEG,001,100173,
AFNE01.JPG,AFNE01.JPG,AFNE01.JPG,AFNE01.JPG,AFNE01.JPG,AFNE01.JPG,,,,,2,3,23,1,,,,,,,,,,,,,,,,,,,AMNE19.jpg,AMSA18.jpg,AMNE13.jpg,AMSA15.jpg,AMSA18.jpg,MS,2,num_6,16,num_6,1.21680400195,,,2017_Apr_14_1209,60.003598958,FEMA4ImagesEEG,001,100173,
AFNE01.JPG,AFNE01.JPG,AFNE01.JPG,AFNE01.JPG,AFNE01.JPG,AFNE01.JPG,,,,,2,4,24,4,,,,,,,,,,,,,,,,,,,AMSA18.jpg,AMNE12.jpg,AMSA16.jpg,AMNE03.jpg,AMNE03.jpg,MN,1,num_4,16,num_4,1.15012253867,,,2017_Apr_14_1209,60.003598958,FEMA4ImagesEEG,001,100173,
AFNE01.JPG,AFNE01.JPG,AFNE01.JPG,AFNE01.JPG,AFNE01.JPG,AFNE01.JPG,,,,,2,5,25,5,,,,,,,,,,,,,,,,,,,AMNE04.jpg,AMSA09.jpg,AMNE01.jpg,AMSA04.jpg,AMSA09.jpg,MS,2,num_6,16,num_6,2.5833578431,,,2017_Apr_14_1209,60.003598958,FEMA4ImagesEEG,001,100173,
AFNE01.JPG,AFNE01.JPG,AFNE01.JPG,AFNE01.JPG,AFNE01.JPG,AFNE01.JPG,,,,,2,6,26,2,,,,,,,,,,,,,,,,,,,AMNE15.jpg,AMNE07.jpg,AMSA11.jpg,AMSA01.jpg,AMNE15.jpg,MN,1,num_8,16,num_8,1.76692808,,,2017_Apr_14_1209,60.003598958,FEMA4ImagesEEG,001,100173,
AFNE01.JPG,AFNE01.JPG,AFNE01.JPG,AFNE01.JPG,AFNE01.JPG,AFNE01.JPG,,,,,2,7,27,3,,,,,,,,,,,,,,,,,,,AMNE04.jpg,AMSA01.jpg,AMNE15.jpg,AMSA06.jpg,AMSA06.jpg,MS,2,num_4,16,num_4,1.60018833866,,,2017_Apr_14_1209,60.003598958,FEMA4ImagesEEG,001,100173,
AFNE01.JPG,AFNE01.JPG,AFNE01.JPG,AFNE01.JPG,AFNE01.JPG,AFNE01.JPG,,,,,2,8,28,9,,,,,,,,,,,,,,,,,,,AMNE18.jpg,AMSA03.jpg,AMNE16.jpg,AMSA17.jpg,AMSA17.jpg,MS,2,num_4,16,num_4,2.13333341852,,,2017_Apr_14_1209,60.003598958,FEMA4ImagesEEG,001,100173,
AFNE01.JPG,AFNE01.JPG,AFNE01.JPG,AFNE01.JPG,AFNE01.JPG,AFNE01.JPG,,,,,2,9,29,8,,,,,,,,,,,,,,,,,,,AMNE02.jpg,AMNE07.jpg,AMSA11.jpg,AMSA02.jpg,AMNE07.jpg,MN,1,num_6,16,num_6,1.68344274303,,,2017_Apr_14_1209,60.003598958,FEMA4ImagesEEG,001,100173,
AFNE01.JPG,AFNE01.JPG,AFNE01.JPG,AFNE01.JPG,AFNE01.JPG,AFNE01.JPG,,,,,3,0,30,6,,,,,,,,,,,,,,,,,,,AMSA20.jpg,AMNE04.jpg,AMNE08.jpg,AMSA04.jpg,AMSA20.jpg,MS,2,num_8,16,num_8,1.70007213438,,,2017_Apr_14_1209,60.003598958,FEMA4ImagesEEG,001,100173,
AFNE01.JPG,AFNE01.JPG,AFNE01.JPG,AFNE01.JPG,AFNE01.JPG,AFNE01.JPG,,,,,3,1,31,2,,,,,,,,,,,,,,,,,,,AMSA17.jpg,AMNE11.jpg,AMNE06.jpg,AMSA13.jpg,AMNE11.jpg,MN,1,num_6,32,num_8,2.30002408754,,,2017_Apr_14_1209,60.003598958,FEMA4ImagesEEG,001,100173,
AFNE01.JPG,AFNE01.JPG,AFNE01.JPG,AFNE01.JPG,AFNE01.JPG,AFNE01.JPG,,,,,3,2,32,7,,,,,,,,,,,,,,,,,,,AMSA09.jpg,AMSA01.jpg,AMNE03.jpg,AMNE17.jpg,AMNE17.jpg,MN,1,num_4,32,num_2,2.28334145341,,,2017_Apr_14_1209,60.003598958,FEMA4ImagesEEG,001,100173,
AFNE01.JPG,AFNE01.JPG,AFNE01.JPG,AFNE01.JPG,AFNE01.JPG,AFNE01.JPG,,,,,3,3,33,8,,,,,,,,,,,,,,,,,,,AMSA08.jpg,AMNE12.jpg,AMNE09.jpg,AMSA14.jpg,AMSA14.jpg,MS,2,num_4,16,num_4,1.23347124038,,,2017_Apr_14_1209,60.003598958,FEMA4ImagesEEG,001,100173,
AFNE01.JPG,AFNE01.JPG,AFNE01.JPG,AFNE01.JPG,AFNE01.JPG,AFNE01.JPG,,,,,3,4,34,0,,,,,,,,,,,,,,,,,,,AMNE05.jpg,AMSA18.jpg,AMSA07.jpg,AMNE09.jpg,AMSA07.jpg,MS,2,num_2,16,num_2,3.34993984504,,,2017_Apr_14_1209,60.003598958,FEMA4ImagesEEG,001,100173,
AFNE01.JPG,AFNE01.JPG,AFNE01.JPG,AFNE01.JPG,AFNE01.JPG,AFNE01.JPG,,,,,3,5,35,3,,,,,,,,,,,,,,,,,,,AMSA13.jpg,AMNE20.jpg,AMSA01.jpg,AMNE19.jpg,AMSA13.jpg,MS,2,num_8,32,num_4,2.6333505786,,,2017_Apr_14_1209,60.003598958,FEMA4ImagesEEG,001,100173,
AFNE01.JPG,AFNE01.JPG,AFNE01.JPG,AFNE01.JPG,AFNE01.JPG,AFNE01.JPG,,,,,3,6,36,9,,,,,,,,,,,,,,,,,,,AMNE07.jpg,AMNE16.jpg,AMSA18.jpg,AMSA06.jpg,AMNE07.jpg,MN,1,num_8,32,num_6,2.00003784755,,,2017_Apr_14_1209,60.003598958,FEMA4ImagesEEG,001,100173,
AFNE01.JPG,AFNE01.JPG,AFNE01.JPG,AFNE01.JPG,AFNE01.JPG,AFNE01.JPG,,,,,3,7,37,1,,,,,,,,,,,,,,,,,,,AMNE13.jpg,AMNE08.jpg,AMSA01.jpg,AMSA03.jpg,AMNE08.jpg,MN,1,num_6,16,num_6,1.41672298312,,,2017_Apr_14_1209,60.003598958,FEMA4ImagesEEG,001,100173,
AFNE01.JPG,AFNE01.JPG,AFNE01.JPG,AFNE01.JPG,AFNE01.JPG,AFNE01.JPG,,,,,3,8,38,4,,,,,,,,,,,,,,,,,,,AMNE17.jpg,AMSA11.jpg,AMNE04.jpg,AMSA08.jpg,AMNE04.jpg,MN,1,num_2,16,num_2,2.98339081509,,,2017_Apr_14_1209,60.003598958,FEMA4ImagesEEG,001,100173,
AFNE01.JPG,AFNE01.JPG,AFNE01.JPG,AFNE01.JPG,AFNE01.JPG,AFNE01.JPG,,,,,3,9,39,5,,,,,,,,,,,,,,,,,,,AMSA16.jpg,AMNE10.jpg,AMSA17.jpg,AMNE03.jpg,AMNE03.jpg,MN,1,num_4,16,num_4,0.966507077217,,,2017_Apr_14_1209,60.003598958,FEMA4ImagesEEG,001,100173,
AFNE01.JPG,AFNE01.JPG,AFNE01.JPG,AFNE01.JPG,AFNE01.JPG,AFNE01.JPG,,,,,4,0,40,6,,,,,,,,,,,,,,,,,,,AMNE04.jpg,AMSA16.jpg,AMSA01.jpg,AMNE12.jpg,AMSA16.jpg,MS,2,num_6,16,num_6,3.73319781013,,,2017_Apr_14_1209,60.003598958,FEMA4ImagesEEG,001,100173,
AFNE01.JPG,AFNE01.JPG,AFNE01.JPG,AFNE01.JPG,AFNE01.JPG,AFNE01.JPG,,,,,4,1,41,9,,,,,,,,,,,,,,,,,,,AMSA11.jpg,AMNE12.jpg,AMSA05.jpg,AMNE10.jpg,AMNE10.jpg,MN,1,num_4,16,num_4,1.60008409806,,,2017_Apr_14_1209,60.003598958,FEMA4ImagesEEG,001,100173,
AFNE01.JPG,AFNE01.JPG,AFNE01.JPG,AFNE01.JPG,AFNE01.JPG,AFNE01.JPG,,,,,4,2,42,1,,,,,,,,,,,,,,,,,,,AMSA15.jpg,AMNE07.jpg,AMNE10.jpg,AMSA12.jpg,AMNE07.jpg,MN,1,num_6,32,num_4,2.18334219093,,,2017_Apr_14_1209,60.003598958,FEMA4ImagesEEG,001,100173,
AFNE01.JPG,AFNE01.JPG,AFNE01.JPG,AFNE01.JPG,AFNE01.JPG,AFNE01.JPG,,,,,4,3,43,7,,,,,,,,,,,,,,,,,,,AMNE13.jpg,AMSA14.jpg,AMSA03.jpg,AMNE20.jpg,AMSA14.jpg,MS,2,num_6,16,num_6,0.950124976225,,,2017_Apr_14_1209,60.003598958,FEMA4ImagesEEG,001,100173,
AFNE01.JPG,AFNE01.JPG,AFNE01.JPG,AFNE01.JPG,AFNE01.JPG,AFNE01.JPG,,,,,4,4,44,0,,,,,,,,,,,,,,,,,,,AMSA03.jpg,AMSA18.jpg,AMNE14.jpg,AMNE05.jpg,AMSA03.jpg,MS,2,num_8,32,num_6,1.11681019235,,,2017_Apr_14_1209,60.003598958,FEMA4ImagesEEG,001,100173,
AFNE01.JPG,AFNE01.JPG,AFNE01.JPG,AFNE01.JPG,AFNE01.JPG,AFNE01.JPG,,,,,4,5,45,5,,,,,,,,,,,,,,,,,,,AMNE17.jpg,AMSA05.jpg,AMNE07.jpg,AMSA14.jpg,AMSA14.jpg,MS,2,num_4,16,num_4,1.15008886065,,,2017_Apr_14_1209,60.003598958,FEMA4ImagesEEG,001,100173,
AFNE01.JPG,AFNE01.JPG,AFNE01.JPG,AFNE01.JPG,AFNE01.JPG,AFNE01.JPG,,,,,4,6,46,4,,,,,,,,,,,,,,,,,,,AMSA14.jpg,AMNE04.jpg,AMSA20.jpg,AMNE11.jpg,AMNE04.jpg,MN,1,num_6,16,num_6,1.01673491439,,,2017_Apr_14_1209,60.003598958,FEMA4ImagesEEG,001,100173,
AFNE01.JPG,AFNE01.JPG,AFNE01.JPG,AFNE01.JPG,AFNE01.JPG,AFNE01.JPG,,,,,4,7,47,8,,,,,,,,,,,,,,,,,,,AMSA02.jpg,AMNE15.jpg,AMNE16.jpg,AMSA06.jpg,AMSA06.jpg,MS,2,num_4,16,num_4,1.61666634027,,,2017_Apr_14_1209,60.003598958,FEMA4ImagesEEG,001,100173,
AFNE01.JPG,AFNE01.JPG,AFNE01.JPG,AFNE01.JPG,AFNE01.JPG,AFNE01.JPG,,,,,4,8,48,3,,,,,,,,,,,,,,,,,,,AMSA13.jpg,AMNE18.jpg,AMSA04.jpg,AMNE15.jpg,AMSA04.jpg,MS,2,num_2,32,num_6,1.64990587905,,,2017_Apr_14_1209,60.003598958,FEMA4ImagesEEG,001,100173,
AFNE01.JPG,AFNE01.JPG,AFNE01.JPG,AFNE01.JPG,AFNE01.JPG,AFNE01.JPG,,,,,4,9,49,2,,,,,,,,,,,,,,,,,,,AMSA17.jpg,AMNE13.jpg,AMSA11.jpg,AMNE16.jpg,AMSA11.jpg,MS,2,num_2,16,num_2,2.1500555044,,,2017_Apr_14_1209,60.003598958,FEMA4ImagesEEG,001,100173,
AFNE01.JPG,AFNE01.JPG,AFNE01.JPG,AFNE01.JPG,AFNE01.JPG,AFNE01.JPG,,,,,5,0,50,7,,,,,,,,,,,,,,,,,,,AMNE02.jpg,AMSA04.jpg,AMSA12.jpg,AMNE12.jpg,AMNE12.jpg,MN,1,num_4,16,num_4,1.16676604236,,,2017_Apr_14_1209,60.003598958,FEMA4ImagesEEG,001,100173,
AFNE01.JPG,AFNE01.JPG,AFNE01.JPG,AFNE01.JPG,AFNE01.JPG,AFNE01.JPG,,,,,5,1,51,5,,,,,,,,,,,,,,,,,,,AMNE07.jpg,AMNE01.jpg,AMSA16.jpg,AMSA20.jpg,AMNE07.jpg,MN,1,num_8,16,num_8,2.65028403094,,,2017_Apr_14_1209,60.003598958,FEMA4ImagesEEG,001,100173,
AFNE01.JPG,AFNE01.JPG,AFNE01.JPG,AFNE01.JPG,AFNE01.JPG,AFNE01.JPG,,,,,5,2,52,4,,,,,,,,,,,,,,,,,,,AMSA04.jpg,AMSA15.jpg,AMNE09.jpg,AMNE15.jpg,AMSA04.jpg,MS,2,num_8,16,num_8,2.1000765604,,,2017_Apr_14_1209,60.003598958,FEMA4ImagesEEG,001,100173,
AFNE01.JPG,AFNE01.JPG,AFNE01.JPG,AFNE01.JPG,AFNE01.JPG,AFNE01.JPG,,,,,5,3,53,8,,,,,,,,,,,,,,,,,,,AMSA10.jpg,AMSA17.jpg,AMNE02.jpg,AMNE08.jpg,AMNE02.jpg,MN,1,num_2,16,num_2,2.09988924861,,,2017_Apr_14_1209,60.003598958,FEMA4ImagesEEG,001,100173,
AFNE01.JPG,AFNE01.JPG,AFNE01.JPG,AFNE01.JPG,AFNE01.JPG,AFNE01.JPG,,,,,5,4,54,1,,,,,,,,,,,,,,,,,,,AMNE18.jpg,AMNE03.jpg,AMSA15.jpg,AMSA07.jpg,AMNE18.jpg,MN,1,num_8,32,num_6,2.74999783514,,,2017_Apr_14_1209,60.003598958,FEMA4ImagesEEG,001,100173,
AFNE01.JPG,AFNE01.JPG,AFNE01.JPG,AFNE01.JPG,AFNE01.JPG,AFNE01.JPG,,,,,5,5,55,9,,,,,,,,,,,,,,,,,,,AMSA02.jpg,AMSA13.jpg,AMNE13.jpg,AMNE20.jpg,AMSA02.jpg,MS,2,num_8,32,num_2,2.4499509749,,,2017_Apr_14_1209,60.003598958,FEMA4ImagesEEG,001,100173,
AFNE01.JPG,AFNE01.JPG,AFNE01.JPG,AFNE01.JPG,AFNE01.JPG,AFNE01.JPG,,,,,5,6,56,2,,,,,,,,,,,,,,,,,,,AMNE04.jpg,AMSA13.jpg,AMNE02.jpg,AMSA12.jpg,AMSA12.jpg,MS,2,num_4,32,num_6,1.3000551993,,,2017_Apr_14_1209,60.003598958,FEMA4ImagesEEG,001,100173,
AFNE01.JPG,AFNE01.JPG,AFNE01.JPG,AFNE01.JPG,AFNE01.JPG,AFNE01.JPG,,,,,5,7,57,0,,,,,,,,,,,,,,,,,,,AMNE14.jpg,AMSA11.jpg,AMSA07.jpg,AMNE01.jpg,AMNE01.jpg,MN,1,num_4,16,num_4,1.13342611259,,,2017_Apr_14_1209,60.003598958,FEMA4ImagesEEG,001,100173,
AFNE01.JPG,AFNE01.JPG,AFNE01.JPG,AFNE01.JPG,AFNE01.JPG,AFNE01.JPG,,,,,5,8,58,3,,,,,,,,,,,,,,,,,,,AMNE03.jpg,AMNE18.jpg,AMSA03.jpg,AMSA12.jpg,AMNE03.jpg,MN,1,num_8,16,num_8,2.26665464975,,,2017_Apr_14_1209,60.003598958,FEMA4ImagesEEG,001,100173,
AFNE01.JPG,AFNE01.JPG,AFNE01.JPG,AFNE01.JPG,AFNE01.JPG,AFNE01.JPG,,,,,5,9,59,6,,,,,,,,,,,,,,,,,,,AMSA11.jpg,AMSA09.jpg,AMNE15.jpg,AMNE10.jpg,AMNE15.jpg,MN,1,num_2,16,num_2,1.58343642438,,,2017_Apr_14_1209,60.003598958,FEMA4ImagesEEG,001,100173,
,,,,,,,,,,,,,,,,,,,,,,,,,,,,,,,,,,,,,,,,,,,space,21.0155106513,2017_Apr_14_1209,60.003598958,FEMA4ImagesEEG,001,100173,
AFNE01.JPG,AFNE01.JPG,AFNE01.JPG,AFNE01.JPG,AFNE01.JPG,AFNE01.JPG,,,,,,,,,0,0,0,1,,,,,,,,,,,,,,,AFNE06.jpg,AFNE15.jpg,AFSA01.jpg,AFSA06.jpg,AFNE06.jpg,FN,3,num_8,32,num_6,1.43344218191,,,2017_Apr_14_1209,60.003598958,FEMA4ImagesEEG,001,100173,
AFNE01.JPG,AFNE01.JPG,AFNE01.JPG,AFNE01.JPG,AFNE01.JPG,AFNE01.JPG,,,,,,,,,0,1,1,6,,,,,,,,,,,,,,,AFSA09.jpg,AFNE04.jpg,AFSA14.jpg,AFNE17.jpg,AFSA14.jpg,FS,4,num_2,16,num_2,3.25000408897,,,2017_Apr_14_1209,60.003598958,FEMA4ImagesEEG,001,100173,
AFNE01.JPG,AFNE01.JPG,AFNE01.JPG,AFNE01.JPG,AFNE01.JPG,AFNE01.JPG,,,,,,,,,0,2,2,2,,,,,,,,,,,,,,,AFSA02.jpg,AFNE11.jpg,AFSA04.jpg,AFNE16.jpg,AFNE11.jpg,FN,3,num_6,16,num_6,2.54985112837,,,2017_Apr_14_1209,60.003598958,FEMA4ImagesEEG,001,100173,
AFNE01.JPG,AFNE01.JPG,AFNE01.JPG,AFNE01.JPG,AFNE01.JPG,AFNE01.JPG,,,,,,,,,0,3,3,8,,,,,,,,,,,,,,,AFSA08.jpg,AFNE18.jpg,AFNE13.jpg,AFSA19.jpg,AFSA08.jpg,FS,4,num_8,32,num_4,2.69996981835,,,2017_Apr_14_1209,60.003598958,FEMA4ImagesEEG,001,100173,
AFNE01.JPG,AFNE01.JPG,AFNE01.JPG,AFNE01.JPG,AFNE01.JPG,AFNE01.JPG,,,,,,,,,0,4,4,7,,,,,,,,,,,,,,,AFSA18.jpg,AFSA20.jpg,AFNE01.jpg,AFNE02.jpg,AFSA20.jpg,FS,4,num_6,32,num_8,2.40003329283,,,2017_Apr_14_1209,60.003598958,FEMA4ImagesEEG,001,100173,
AFNE01.JPG,AFNE01.JPG,AFNE01.JPG,AFNE01.JPG,AFNE01.JPG,AFNE01.JPG,,,,,,,,,0,5,5,5,,,,,,,,,,,,,,,AFSA18.jpg,AFNE08.jpg,AFSA08.jpg,AFNE15.jpg,AFNE15.jpg,FN,3,num_4,16,num_4,1.18346150639,,,2017_Apr_14_1209,60.003598958,FEMA4ImagesEEG,001,100173,
AFNE01.JPG,AFNE01.JPG,AFNE01.JPG,AFNE01.JPG,AFNE01.JPG,AFNE01.JPG,,,,,,,,,0,6,6,3,,,,,,,,,,,,,,,AFSA09.jpg,AFSA16.jpg,AFNE13.jpg,AFNE15.jpg,AFNE13.jpg,FN,3,num_2,16,num_2,1.46674169833,,,2017_Apr_14_1209,60.003598958,FEMA4ImagesEEG,001,100173,
AFNE01.JPG,AFNE01.JPG,AFNE01.JPG,AFNE01.JPG,AFNE01.JPG,AFNE01.JPG,,,,,,,,,0,7,7,9,,,,,,,,,,,,,,,AFSA02.jpg,AFNE04.jpg,AFNE17.jpg,AFSA12.jpg,AFSA02.jpg,FS,4,num_8,16,num_8,2.21667827247,,,2017_Apr_14_1209,60.003598958,FEMA4ImagesEEG,001,100173,
AFNE01.JPG,AFNE01.JPG,AFNE01.JPG,AFNE01.JPG,AFNE01.JPG,AFNE01.JPG,,,,,,,,,0,8,8,4,,,,,,,,,,,,,,,AFSA05.jpg,AFNE04.jpg,AFNE05.jpg,AFSA08.jpg,AFSA05.jpg,FS,4,num_8,32,num_4,1.2999682785,,,2017_Apr_14_1209,60.003598958,FEMA4ImagesEEG,001,100173,
AFNE01.JPG,AFNE01.JPG,AFNE01.JPG,AFNE01.JPG,AFNE01.JPG,AFNE01.JPG,,,,,,,,,0,9,9,0,,,,,,,,,,,,,,,AFNE19.jpg,AFSA06.jpg,AFSA14.jpg,AFNE17.jpg,AFNE17.jpg,FN,3,num_4,32,num_8,2.56665307796,,,2017_Apr_14_1209,60.003598958,FEMA4ImagesEEG,001,100173,
AFNE01.JPG,AFNE01.JPG,AFNE01.JPG,AFNE01.JPG,AFNE01.JPG,AFNE01.JPG,,,,,,,,,1,0,10,8,,,,,,,,,,,,,,,AFNE11.jpg,AFSA16.jpg,AFSA13.jpg,AFNE03.jpg,AFNE03.jpg,FN,3,num_4,16,num_4,1.26679128502,,,2017_Apr_14_1209,60.003598958,FEMA4ImagesEEG,001,100173,
AFNE01.JPG,AFNE01.JPG,AFNE01.JPG,AFNE01.JPG,AFNE01.JPG,AFNE01.JPG,,,,,,,,,1,1,11,9,,,,,,,,,,,,,,,AFNE05.jpg,AFNE15.jpg,AFSA06.jpg,AFSA14.jpg,AFSA14.jpg,FS,4,num_4,16,num_4,2.86661975319,,,2017_Apr_14_1209,60.003598958,FEMA4ImagesEEG,001,100173,
AFNE01.JPG,AFNE01.JPG,AFNE01.JPG,AFNE01.JPG,AFNE01.JPG,AFNE01.JPG,,,,,,,,,1,2,12,6,,,,,,,,,,,,,,,AFSA20.jpg,AFNE14.jpg,AFSA12.jpg,AFNE16.jpg,AFSA12.jpg,FS,4,num_2,32,num_4,3.93289034907,,,2017_Apr_14_1209,60.003598958,FEMA4ImagesEEG,001,100173,
AFNE01.JPG,AFNE01.JPG,AFNE01.JPG,AFNE01.JPG,AFNE01.JPG,AFNE01.JPG,,,,,,,,,1,3,13,7,,,,,,,,,,,,,,,AFSA12.jpg,AFNE13.jpg,AFSA11.jpg,AFNE08.jpg,AFNE08.jpg,FN,3,num_4,16,num_4,1.98338055145,,,2017_Apr_14_1209,60.003598958,FEMA4ImagesEEG,001,100173,
AFNE01.JPG,AFNE01.JPG,AFNE01.JPG,AFNE01.JPG,AFNE01.JPG,AFNE01.JPG,,,,,,,,,1,4,14,3,,,,,,,,,,,,,,,AFSA05.jpg,AFSA15.jpg,AFNE17.jpg,AFNE01.jpg,AFSA05.jpg,FS,4,num_8,16,num_8,1.45001993421,,,2017_Apr_14_1209,60.003598958,FEMA4ImagesEEG,001,100173,
AFNE01.JPG,AFNE01.JPG,AFNE01.JPG,AFNE01.JPG,AFNE01.JPG,AFNE01.JPG,,,,,,,,,1,5,15,1,,,,,,,,,,,,,,,AFNE12.jpg,AFSA05.jpg,AFSA13.jpg,AFNE18.jpg,AFNE12.jpg,FN,3,num_8,16,num_8,0.933457416482,,,2017_Apr_14_1209,60.003598958,FEMA4ImagesEEG,001,100173,
AFNE01.JPG,AFNE01.JPG,AFNE01.JPG,AFNE01.JPG,AFNE01.JPG,AFNE01.JPG,,,,,,,,,1,6,16,0,,,,,,,,,,,,,,,AFSA09.jpg,AFNE06.jpg,AFSA17.jpg,AFNE09.jpg,AFNE09.jpg,FN,3,num_4,16,num_4,1.36672030529,,,2017_Apr_14_1209,60.003598958,FEMA4ImagesEEG,001,100173,
AFNE01.JPG,AFNE01.JPG,AFNE01.JPG,AFNE01.JPG,AFNE01.JPG,AFNE01.JPG,,,,,,,,,1,7,17,4,,,,,,,,,,,,,,,AFNE15.jpg,AFSA01.jpg,AFSA13.jpg,AFNE14.jpg,AFSA13.jpg,FS,4,num_2,16,num_2,1.70004647505,,,2017_Apr_14_1209,60.003598958,FEMA4ImagesEEG,001,100173,
AFNE01.JPG,AFNE01.JPG,AFNE01.JPG,AFNE01.JPG,AFNE01.JPG,AFNE01.JPG,,,,,,,,,1,8,18,5,,,,,,,,,,,,,,,AFSA06.jpg,AFNE10.jpg,AFSA05.jpg,AFNE18.jpg,AFSA06.jpg,FS,4,num_8,32,num_4,1.76670067571,,,2017_Apr_14_1209,60.003598958,FEMA4ImagesEEG,001,100173,
AFNE01.JPG,AFNE01.JPG,AFNE01.JPG,AFNE01.JPG,AFNE01.JPG,AFNE01.JPG,,,,,,,,,1,9,19,2,,,,,,,,,,,,,,,AFNE13.jpg,AFNE05.jpg,AFSA16.jpg,AFSA02.jpg,AFNE13.jpg,FN,3,num_8,16,num_8,2.38334520627,,,2017_Apr_14_1209,60.003598958,FEMA4ImagesEEG,001,100173,
AFNE01.JPG,AFNE01.JPG,AFNE01.JPG,AFNE01.JPG,AFNE01.JPG,AFNE01.JPG,,,,,,,,,2,0,20,2,,,,,,,,,,,,,,,AFSA08.jpg,AFNE18.jpg,AFNE17.jpg,AFSA02.jpg,AFNE17.jpg,FN,3,num_2,32,num_8,2.25002686167,,,2017_Apr_14_1209,60.003598958,FEMA4ImagesEEG,001,100173,
AFNE01.JPG,AFNE01.JPG,AFNE01.JPG,AFNE01.JPG,AFNE01.JPG,AFNE01.JPG,,,,,,,,,2,1,21,8,,,,,,,,,,,,,,,AFSA18.jpg,AFSA05.jpg,AFNE12.jpg,AFNE11.jpg,AFNE11.jpg,FN,3,num_4,16,num_4,1.03319367254,,,2017_Apr_14_1209,60.003598958,FEMA4ImagesEEG,001,100173,
AFNE01.JPG,AFNE01.JPG,AFNE01.JPG,AFNE01.JPG,AFNE01.JPG,AFNE01.JPG,,,,,,,,,2,2,22,9,,,,,,,,,,,,,,,AFSA16.jpg,AFNE02.jpg,AFNE16.jpg,AFSA18.jpg,AFSA18.jpg,FS,4,num_4,32,num_8,2.01669642609,,,2017_Apr_14_1209,60.003598958,FEMA4ImagesEEG,001,100173,
AFNE01.JPG,AFNE01.JPG,AFNE01.JPG,AFNE01.JPG,AFNE01.JPG,AFNE01.JPG,,,,,,,,,2,3,23,3,,,,,,,,,,,,,,,AFSA12.jpg,AFNE17.jpg,AFSA01.jpg,AFNE18.jpg,AFNE18.jpg,FN,3,num_4,16,num_4,1.25008908566,,,2017_Apr_14_1209,60.003598958,FEMA4ImagesEEG,001,100173,
AFNE01.JPG,AFNE01.JPG,AFNE01.JPG,AFNE01.JPG,AFNE01.JPG,AFNE01.JPG,,,,,,,,,2,4,24,5,,,,,,,,,,,,,,,AFNE16.jpg,AFNE01.jpg,AFSA03.jpg,AFSA13.jpg,AFNE01.jpg,FN,3,num_6,32,num_2,3.0001808973,,,2017_Apr_14_1209,60.003598958,FEMA4ImagesEEG,001,100173,
AFNE01.JPG,AFNE01.JPG,AFNE01.JPG,AFNE01.JPG,AFNE01.JPG,AFNE01.JPG,,,,,,,,,2,5,25,1,,,,,,,,,,,,,,,AFNE15.jpg,AFNE09.jpg,AFSA12.jpg,AFSA01.jpg,AFNE09.jpg,FN,3,num_6,16,num_6,1.20010789717,,,2017_Apr_14_1209,60.003598958,FEMA4ImagesEEG,001,100173,
AFNE01.JPG,AFNE01.JPG,AFNE01.JPG,AFNE01.JPG,AFNE01.JPG,AFNE01.JPG,,,,,,,,,2,6,26,7,,,,,,,,,,,,,,,AFSA14.jpg,AFNE12.jpg,AFNE17.jpg,AFSA07.jpg,AFNE12.jpg,FN,3,num_6,32,num_4,2.16669131024,,,2017_Apr_14_1209,60.003598958,FEMA4ImagesEEG,001,100173,
AFNE01.JPG,AFNE01.JPG,AFNE01.JPG,AFNE01.JPG,AFNE01.JPG,AFNE01.JPG,,,,,,,,,2,7,27,0,,,,,,,,,,,,,,,AFSA03.jpg,AFSA20.jpg,AFNE13.jpg,AFNE20.jpg,AFSA03.jpg,FS,4,num_8,16,num_8,1.4501090995,,,2017_Apr_14_1209,60.003598958,FEMA4ImagesEEG,001,100173,
AFNE01.JPG,AFNE01.JPG,AFNE01.JPG,AFNE01.JPG,AFNE01.JPG,AFNE01.JPG,,,,,,,,,2,8,28,4,,,,,,,,,,,,,,,AFNE10.jpg,AFSA12.jpg,AFSA13.jpg,AFNE14.jpg,AFNE14.jpg,FN,3,num_4,32,num_8,2.05013161572,,,2017_Apr_14_1209,60.003598958,FEMA4ImagesEEG,001,100173,
AFNE01.JPG,AFNE01.JPG,AFNE01.JPG,AFNE01.JPG,AFNE01.JPG,AFNE01.JPG,,,,,,,,,2,9,29,6,,,,,,,,,,,,,,,AFNE15.jpg,AFNE02.jpg,AFSA02.jpg,AFSA06.jpg,AFNE02.jpg,FN,3,num_6,16,num_6,3.44998946367,,,2017_Apr_14_1209,60.003598958,FEMA4ImagesEEG,001,100173,
AFNE01.JPG,AFNE01.JPG,AFNE01.JPG,AFNE01.JPG,AFNE01.JPG,AFNE01.JPG,,,,,,,,,3,0,30,0,,,,,,,,,,,,,,,AFSA14.jpg,AFNE11.jpg,AFNE03.jpg,AFSA04.jpg,AFNE11.jpg,FN,3,num_6,32,num_2,3.86628137249,,,2017_Apr_14_1209,60.003598958,FEMA4ImagesEEG,001,100173,
AFNE01.JPG,AFNE01.JPG,AFNE01.JPG,AFNE01.JPG,AFNE01.JPG,AFNE01.JPG,,,,,,,,,3,1,31,7,,,,,,,,,,,,,,,AFSA11.jpg,AFNE20.jpg,AFSA17.jpg,AFNE14.jpg,AFSA17.jpg,FS,4,num_2,32,num_8,1.58343033073,,,2017_Apr_14_1209,60.003598958,FEMA4ImagesEEG,001,100173,
AFNE01.JPG,AFNE01.JPG,AFNE01.JPG,AFNE01.JPG,AFNE01.JPG,AFNE01.JPG,,,,,,,,,3,2,32,5,,,,,,,,,,,,,,,AFSA15.jpg,AFNE04.jpg,AFNE01.jpg,AFSA20.jpg,AFNE01.jpg,FN,3,num_2,16,num_2,3.08356520161,,,2017_Apr_14_1209,60.003598958,FEMA4ImagesEEG,001,100173,
AFNE01.JPG,AFNE01.JPG,AFNE01.JPG,AFNE01.JPG,AFNE01.JPG,AFNE01.JPG,,,,,,,,,3,3,33,2,,,,,,,,,,,,,,,AFSA15.jpg,AFNE02.jpg,AFNE12.jpg,AFSA11.jpg,AFNE12.jpg,FN,3,num_2,32,num_8,1.46671668068,,,2017_Apr_14_1209,60.003598958,FEMA4ImagesEEG,001,100173,
AFNE01.JPG,AFNE01.JPG,AFNE01.JPG,AFNE01.JPG,AFNE01.JPG,AFNE01.JPG,,,,,,,,,3,4,34,3,,,,,,,,,,,,,,,AFNE12.jpg,AFSA13.jpg,AFNE19.jpg,AFSA15.jpg,AFNE12.jpg,FN,3,num_8,16,num_8,1.11671204586,,,2017_Apr_14_1209,60.003598958,FEMA4ImagesEEG,001,100173,
AFNE01.JPG,AFNE01.JPG,AFNE01.JPG,AFNE01.JPG,AFNE01.JPG,AFNE01.JPG,,,,,,,,,3,5,35,1,,,,,,,,,,,,,,,AFSA19.jpg,AFSA12.jpg,AFNE06.jpg,AFNE04.jpg,AFNE04.jpg,FN,3,num_4,32,num_2,2.5667034341,,,2017_Apr_14_1209,60.003598958,FEMA4ImagesEEG,001,100173,
AFNE01.JPG,AFNE01.JPG,AFNE01.JPG,AFNE01.JPG,AFNE01.JPG,AFNE01.JPG,,,,,,,,,3,6,36,6,,,,,,,,,,,,,,,AFNE06.jpg,AFSA16.jpg,AFNE13.jpg,AFSA20.jpg,AFNE06.jpg,FN,3,num_8,16,num_8,2.38337375177,,,2017_Apr_14_1209,60.003598958,FEMA4ImagesEEG,001,100173,
AFNE01.JPG,AFNE01.JPG,AFNE01.JPG,AFNE01.JPG,AFNE01.JPG,AFNE01.JPG,,,,,,,,,3,7,37,8,,,,,,,,,,,,,,,AFSA19.jpg,AFNE02.jpg,AFSA14.jpg,AFNE06.jpg,AFSA14.jpg,FS,4,num_2,32,num_8,1.75001964532,,,2017_Apr_14_1209,60.003598958,FEMA4ImagesEEG,001,100173,
AFNE01.JPG,AFNE01.JPG,AFNE01.JPG,AFNE01.JPG,AFNE01.JPG,AFNE01.JPG,,,,,,,,,3,8,38,4,,,,,,,,,,,,,,,AFSA09.jpg,AFNE03.jpg,AFSA08.jpg,AFNE10.jpg,AFNE03.jpg,FN,3,num_6,16,num_6,1.63343910268,,,2017_Apr_14_1209,60.003598958,FEMA4ImagesEEG,001,100173,
AFNE01.JPG,AFNE01.JPG,AFNE01.JPG,AFNE01.JPG,AFNE01.JPG,AFNE01.JPG,,,,,,,,,3,9,39,9,,,,,,,,,,,,,,,AFSA10.jpg,AFNE14.jpg,AFNE16.jpg,AFSA18.jpg,AFSA18.jpg,FS,4,num_4,16,num_4,0.950138768181,,,2017_Apr_14_1209,60.003598958,FEMA4ImagesEEG,001,100173,
AFNE01.JPG,AFNE01.JPG,AFNE01.JPG,AFNE01.JPG,AFNE01.JPG,AFNE01.JPG,,,,,,,,,4,0,40,8,,,,,,,,,,,,,,,AFSA03.jpg,AFNE20.jpg,AFNE03.jpg,AFSA15.jpg,AFSA15.jpg,FS,4,num_4,16,num_4,0.950112788007,,,2017_Apr_14_1209,60.003598958,FEMA4ImagesEEG,001,100173,
AFNE01.JPG,AFNE01.JPG,AFNE01.JPG,AFNE01.JPG,AFNE01.JPG,AFNE01.JPG,,,,,,,,,4,1,41,2,,,,,,,,,,,,,,,AFNE08.jpg,AFSA06.jpg,AFSA03.jpg,AFNE03.jpg,AFSA06.jpg,FS,4,num_6,32,num_4,1.56670984859,,,2017_Apr_14_1209,60.003598958,FEMA4ImagesEEG,001,100173,
AFNE01.JPG,AFNE01.JPG,AFNE01.JPG,AFNE01.JPG,AFNE01.JPG,AFNE01.JPG,,,,,,,,,4,2,42,7,,,,,,,,,,,,,,,AFNE07.jpg,AFSA14.jpg,AFSA12.jpg,AFNE13.jpg,AFSA12.jpg,FS,4,num_2,16,num_2,1.78366010822,,,2017_Apr_14_1209,60.003598958,FEMA4ImagesEEG,001,100173,
AFNE01.JPG,AFNE01.JPG,AFNE01.JPG,AFNE01.JPG,AFNE01.JPG,AFNE01.JPG,,,,,,,,,4,3,43,6,,,,,,,,,,,,,,,AFNE18.jpg,AFSA14.jpg,AFNE15.jpg,AFSA08.jpg,AFSA08.jpg,FS,4,num_4,16,num_4,2.11667291587,,,2017_Apr_14_1209,60.003598958,FEMA4ImagesEEG,001,100173,
AFNE01.JPG,AFNE01.JPG,AFNE01.JPG,AFNE01.JPG,AFNE01.JPG,AFNE01.JPG,,,,,,,,,4,4,44,4,,,,,,,,,,,,,,,AFSA09.jpg,AFNE16.jpg,AFSA03.jpg,AFNE01.jpg,AFSA09.jpg,FS,4,num_8,16,num_8,1.0666128248,,,2017_Apr_14_1209,60.003598958,FEMA4ImagesEEG,001,100173,
AFNE01.JPG,AFNE01.JPG,AFNE01.JPG,AFNE01.JPG,AFNE01.JPG,AFNE01.JPG,,,,,,,,,4,5,45,9,,,,,,,,,,,,,,,AFNE16.jpg,AFSA07.jpg,AFNE19.jpg,AFSA16.jpg,AFNE19.jpg,FN,3,num_2,16,num_2,2.10002588341,,,2017_Apr_14_1209,60.003598958,FEMA4ImagesEEG,001,100173,
AFNE01.JPG,AFNE01.JPG,AFNE01.JPG,AFNE01.JPG,AFNE01.JPG,AFNE01.JPG,,,,,,,,,4,6,46,1,,,,,,,,,,,,,,,AFNE02.jpg,AFNE07.jpg,AFSA04.jpg,AFSA06.jpg,AFNE02.jpg,FN,3,num_8,16,num_8,3.21659616288,,,2017_Apr_14_1209,60.003598958,FEMA4ImagesEEG,001,100173,
AFNE01.JPG,AFNE01.JPG,AFNE01.JPG,AFNE01.JPG,AFNE01.JPG,AFNE01.JPG,,,,,,,,,4,7,47,3,,,,,,,,,,,,,,,AFNE15.jpg,AFNE20.jpg,AFSA17.jpg,AFSA16.jpg,AFSA17.jpg,FS,4,num_2,16,num_2,1.81667577056,,,2017_Apr_14_1209,60.003598958,FEMA4ImagesEEG,001,100173,
AFNE01.JPG,AFNE01.JPG,AFNE01.JPG,AFNE01.JPG,AFNE01.JPG,AFNE01.JPG,,,,,,,,,4,8,48,5,,,,,,,,,,,,,,,AFNE17.jpg,AFSA06.jpg,AFSA07.jpg,AFNE11.jpg,AFSA07.jpg,FS,4,num_2,16,num_2,2.35001137014,,,2017_Apr_14_1209,60.003598958,FEMA4ImagesEEG,001,100173,
AFNE01.JPG,AFNE01.JPG,AFNE01.JPG,AFNE01.JPG,AFNE01.JPG,AFNE01.JPG,,,,,,,,,4,9,49,0,,,,,,,,,,,,,,,AFSA18.jpg,AFNE06.jpg,AFNE20.jpg,AFSA15.jpg,AFNE20.jpg,FN,3,num_2,16,num_2,2.89994204231,,,2017_Apr_14_1209,60.003598958,FEMA4ImagesEEG,001,100173,
AFNE01.JPG,AFNE01.JPG,AFNE01.JPG,AFNE01.JPG,AFNE01.JPG,AFNE01.JPG,,,,,,,,,5,0,50,4,,,,,,,,,,,,,,,AFSA06.jpg,AFSA01.jpg,AFNE08.jpg,AFNE14.jpg,AFNE14.jpg,FN,3,num_4,16,num_4,1.56694463035,,,2017_Apr_14_1209,60.003598958,FEMA4ImagesEEG,001,100173,
AFNE01.JPG,AFNE01.JPG,AFNE01.JPG,AFNE01.JPG,AFNE01.JPG,AFNE01.JPG,,,,,,,,,5,1,51,3,,,,,,,,,,,,,,,AFSA15.jpg,AFSA11.jpg,AFNE06.jpg,AFNE18.jpg,AFSA11.jpg,FS,4,num_6,16,num_6,1.50010728743,,,2017_Apr_14_1209,60.003598958,FEMA4ImagesEEG,001,100173,
AFNE01.JPG,AFNE01.JPG,AFNE01.JPG,AFNE01.JPG,AFNE01.JPG,AFNE01.JPG,,,,,,,,,5,2,52,5,,,,,,,,,,,,,,,AFNE06.jpg,AFSA14.jpg,AFSA04.jpg,AFNE05.jpg,AFSA04.jpg,FS,4,num_2,16,num_2,2.88329468947,,,2017_Apr_14_1209,60.003598958,FEMA4ImagesEEG,001,100173,
AFNE01.JPG,AFNE01.JPG,AFNE01.JPG,AFNE01.JPG,AFNE01.JPG,AFNE01.JPG,,,,,,,,,5,3,53,0,,,,,,,,,,,,,,,AFNE08.jpg,AFSA09.jpg,AFSA04.jpg,AFNE12.jpg,AFNE08.jpg,FN,3,num_8,16,num_8,1.38339427905,,,2017_Apr_14_1209,60.003598958,FEMA4ImagesEEG,001,100173,
AFNE01.JPG,AFNE01.JPG,AFNE01.JPG,AFNE01.JPG,AFNE01.JPG,AFNE01.JPG,,,,,,,,,5,4,54,1,,,,,,,,,,,,,,,AFSA11.jpg,AFNE05.jpg,AFNE04.jpg,AFSA01.jpg,AFSA01.jpg,FS,4,num_4,32,num_8,1.6501682438,,,2017_Apr_14_1209,60.003598958,FEMA4ImagesEEG,001,100173,
AFNE01.JPG,AFNE01.JPG,AFNE01.JPG,AFNE01.JPG,AFNE01.JPG,AFNE01.JPG,,,,,,,,,5,5,55,2,,,,,,,,,,,,,,,AFSA06.jpg,AFSA05.jpg,AFNE18.jpg,AFNE20.jpg,AFNE18.jpg,FN,3,num_2,32,num_4,1.96670593601,,,2017_Apr_14_1209,60.003598958,FEMA4ImagesEEG,001,100173,
AFNE01.JPG,AFNE01.JPG,AFNE01.JPG,AFNE01.JPG,AFNE01.JPG,AFNE01.JPG,,,,,,,,,5,6,56,9,,,,,,,,,,,,,,,AFSA13.jpg,AFSA10.jpg,AFNE01.jpg,AFNE16.jpg,AFSA10.jpg,FS,4,num_6,16,num_6,1.20012040576,,,2017_Apr_14_1209,60.003598958,FEMA4ImagesEEG,001,100173,
AFNE01.JPG,AFNE01.JPG,AFNE01.JPG,AFNE01.JPG,AFNE01.JPG,AFNE01.JPG,,,,,,,,,5,7,57,6,,,,,,,,,,,,,,,AFSA12.jpg,AFNE01.jpg,AFSA20.jpg,AFNE19.jpg,AFNE01.jpg,FN,3,num_6,16,num_6,1.31670672167,,,2017_Apr_14_1209,60.003598958,FEMA4ImagesEEG,001,100173,
AFNE01.JPG,AFNE01.JPG,AFNE01.JPG,AFNE01.JPG,AFNE01.JPG,AFNE01.JPG,,,,,,,,,5,8,58,8,,,,,,,,,,,,,,,AFSA06.jpg,AFNE14.jpg,AFNE13.jpg,AFSA20.jpg,AFSA20.jpg,FS,4,num_4,16,num_4,1.85003686883,,,2017_Apr_14_1209,60.003598958,FEMA4ImagesEEG,001,100173,
AFNE01.JPG,AFNE01.JPG,AFNE01.JPG,AFNE01.JPG,AFNE01.JPG,AFNE01.JPG,,,,,,,,,5,9,59,7,,,,,,,,,,,,,,,AFNE10.jpg,AFNE03.jpg,AFSA07.jpg,AFSA08.jpg,AFSA07.jpg,FS,4,num_2,16,num_2,2.64996810211,,,2017_Apr_14_1209,60.003598958,FEMA4ImagesEEG,001,100173,
,,,,,,,,,,,,,,,,,,,,,,,,,,,,,,,,,,,,,,,,,,,space,12.8661729628,2017_Apr_14_1209,60.003598958,FEMA4ImagesEEG,001,100173,
AFNE01.JPG,AFNE01.JPG,AFNE01.JPG,AFNE01.JPG,AFNE01.JPG,AFNE01.JPG,,,,,,,,,,,,,0,0,0,2,,,,,,,,,,,AMNE19.jpg,AMSA14.jpg,AMSA06.jpg,AMNE10.jpg,AMNE19.jpg,MN,1,num_8,16,num_8,1.56674416829,,,2017_Apr_14_1209,60.003598958,FEMA4ImagesEEG,001,100173,
AFNE01.JPG,AFNE01.JPG,AFNE01.JPG,AFNE01.JPG,AFNE01.JPG,AFNE01.JPG,,,,,,,,,,,,,0,1,1,9,,,,,,,,,,,AMSA19.jpg,AMSA14.jpg,AMNE06.jpg,AMNE20.jpg,AMSA14.jpg,MS,2,num_6,16,num_6,1.03345315065,,,2017_Apr_14_1209,60.003598958,FEMA4ImagesEEG,001,100173,
AFNE01.JPG,AFNE01.JPG,AFNE01.JPG,AFNE01.JPG,AFNE01.JPG,AFNE01.JPG,,,,,,,,,,,,,0,2,2,8,,,,,,,,,,,AMSA13.jpg,AMNE18.jpg,AMSA17.jpg,AMNE06.jpg,AMNE06.jpg,MN,1,num_4,16,num_4,1.95008295961,,,2017_Apr_14_1209,60.003598958,FEMA4ImagesEEG,001,100173,
AFNE01.JPG,AFNE01.JPG,AFNE01.JPG,AFNE01.JPG,AFNE01.JPG,AFNE01.JPG,,,,,,,,,,,,,0,3,3,1,,,,,,,,,,,AMSA16.jpg,AMNE20.jpg,AMNE19.jpg,AMSA13.jpg,AMSA16.jpg,MS,2,num_8,32,num_4,0.866762161721,,,2017_Apr_14_1209,60.003598958,FEMA4ImagesEEG,001,100173,
AFNE01.JPG,AFNE01.JPG,AFNE01.JPG,AFNE01.JPG,AFNE01.JPG,AFNE01.JPG,,,,,,,,,,,,,0,4,4,0,,,,,,,,,,,AMNE09.jpg,AMSA12.jpg,AMSA03.jpg,AMNE13.jpg,AMSA03.jpg,MS,2,num_2,16,num_2,1.31670191092,,,2017_Apr_14_1209,60.003598958,FEMA4ImagesEEG,001,100173,
AFNE01.JPG,AFNE01.JPG,AFNE01.JPG,AFNE01.JPG,AFNE01.JPG,AFNE01.JPG,,,,,,,,,,,,,0,5,5,4,,,,,,,,,,,AMNE09.jpg,AMSA08.jpg,AMNE03.jpg,AMSA02.jpg,AMSA08.jpg,MS,2,num_6,32,num_2,1.55006506201,,,2017_Apr_14_1209,60.003598958,FEMA4ImagesEEG,001,100173,
AFNE01.JPG,AFNE01.JPG,AFNE01.JPG,AFNE01.JPG,AFNE01.JPG,AFNE01.JPG,,,,,,,,,,,,,0,6,6,5,,,,,,,,,,,AMNE20.jpg,AMSA14.jpg,AMSA17.jpg,AMNE03.jpg,AMSA17.jpg,MS,2,num_2,32,num_8,0.966720369179,,,2017_Apr_14_1209,60.003598958,FEMA4ImagesEEG,001,100173,
AFNE01.JPG,AFNE01.JPG,AFNE01.JPG,AFNE01.JPG,AFNE01.JPG,AFNE01.JPG,,,,,,,,,,,,,0,7,7,6,,,,,,,,,,,AMNE06.jpg,AMSA16.jpg,AMSA14.jpg,AMNE20.jpg,AMNE20.jpg,MN,1,num_4,16,num_4,2.03369210195,,,2017_Apr_14_1209,60.003598958,FEMA4ImagesEEG,001,100173,
AFNE01.JPG,AFNE01.JPG,AFNE01.JPG,AFNE01.JPG,AFNE01.JPG,AFNE01.JPG,,,,,,,,,,,,,0,8,8,3,,,,,,,,,,,AMSA14.jpg,AMNE19.jpg,AMNE03.jpg,AMSA15.jpg,AMSA15.jpg,MS,2,num_4,16,num_4,0.96677746065,,,2017_Apr_14_1209,60.003598958,FEMA4ImagesEEG,001,100173,
AFNE01.JPG,AFNE01.JPG,AFNE01.JPG,AFNE01.JPG,AFNE01.JPG,AFNE01.JPG,,,,,,,,,,,,,0,9,9,7,,,,,,,,,,,AMNE18.jpg,AMSA08.jpg,AMNE02.jpg,AMSA04.jpg,AMNE02.jpg,MN,1,num_2,32,num_6,2.06666350178,,,2017_Apr_14_1209,60.003598958,FEMA4ImagesEEG,001,100173,
AFNE01.JPG,AFNE01.JPG,AFNE01.JPG,AFNE01.JPG,AFNE01.JPG,AFNE01.JPG,,,,,,,,,,,,,1,0,10,6,,,,,,,,,,,AMSA09.jpg,AMSA04.jpg,AMNE05.jpg,AMNE04.jpg,AMSA09.jpg,MS,2,num_8,16,num_8,0.883422664832,,,2017_Apr_14_1209,60.003598958,FEMA4ImagesEEG,001,100173,
AFNE01.JPG,AFNE01.JPG,AFNE01.JPG,AFNE01.JPG,AFNE01.JPG,AFNE01.JPG,,,,,,,,,,,,,1,1,11,2,,,,,,,,,,,AMSA10.jpg,AMNE17.jpg,AMSA19.jpg,AMNE20.jpg,AMSA19.jpg,MS,2,num_2,32,num_6,1.65139475279,,,2017_Apr_14_1209,60.003598958,FEMA4ImagesEEG,001,100173,
AFNE01.JPG,AFNE01.JPG,AFNE01.JPG,AFNE01.JPG,AFNE01.JPG,AFNE01.JPG,,,,,,,,,,,,,1,2,12,7,,,,,,,,,,,AMNE15.jpg,AMSA20.jpg,AMNE14.jpg,AMSA10.jpg,AMSA10.jpg,MS,2,num_4,32,num_6,1.48338007042,,,2017_Apr_14_1209,60.003598958,FEMA4ImagesEEG,001,100173,
AFNE01.JPG,AFNE01.JPG,AFNE01.JPG,AFNE01.JPG,AFNE01.JPG,AFNE01.JPG,,,,,,,,,,,,,1,3,13,5,,,,,,,,,,,AMNE12.jpg,AMSA01.jpg,AMSA15.jpg,AMNE11.jpg,AMNE12.jpg,MN,1,num_8,16,num_8,1.13347486546,,,2017_Apr_14_1209,60.003598958,FEMA4ImagesEEG,001,100173,
AFNE01.JPG,AFNE01.JPG,AFNE01.JPG,AFNE01.JPG,AFNE01.JPG,AFNE01.JPG,,,,,,,,,,,,,1,4,14,0,,,,,,,,,,,AMNE03.jpg,AMNE10.jpg,AMSA19.jpg,AMSA12.jpg,AMSA19.jpg,MS,2,num_2,32,num_4,2.21656793775,,,2017_Apr_14_1209,60.003598958,FEMA4ImagesEEG,001,100173,
AFNE01.JPG,AFNE01.JPG,AFNE01.JPG,AFNE01.JPG,AFNE01.JPG,AFNE01.JPG,,,,,,,,,,,,,1,5,15,1,,,,,,,,,,,AMSA07.jpg,AMNE11.jpg,AMSA02.jpg,AMNE12.jpg,AMNE12.jpg,MN,1,num_4,16,num_4,1.36675366201,,,2017_Apr_14_1209,60.003598958,FEMA4ImagesEEG,001,100173,
AFNE01.JPG,AFNE01.JPG,AFNE01.JPG,AFNE01.JPG,AFNE01.JPG,AFNE01.JPG,,,,,,,,,,,,,1,6,16,4,,,,,,,,,,,AMSA15.jpg,AMSA03.jpg,AMNE12.jpg,AMNE15.jpg,AMSA03.jpg,MS,2,num_6,32,num_8,1.06675715791,,,2017_Apr_14_1209,60.003598958,FEMA4ImagesEEG,001,100173,
AFNE01.JPG,AFNE01.JPG,AFNE01.JPG,AFNE01.JPG,AFNE01.JPG,AFNE01.JPG,,,,,,,,,,,,,1,7,17,9,,,,,,,,,,,AMSA07.jpg,AMNE03.jpg,AMSA19.jpg,AMNE17.jpg,AMNE03.jpg,MN,1,num_6,16,num_6,1.90006103646,,,2017_Apr_14_1209,60.003598958,FEMA4ImagesEEG,001,100173,
AFNE01.JPG,AFNE01.JPG,AFNE01.JPG,AFNE01.JPG,AFNE01.JPG,AFNE01.JPG,,,,,,,,,,,,,1,8,18,8,,,,,,,,,,,AMSA19.jpg,AMNE20.jpg,AMSA01.jpg,AMNE02.jpg,AMNE20.jpg,MN,1,num_6,16,num_6,1.63338233158,,,2017_Apr_14_1209,60.003598958,FEMA4ImagesEEG,001,100173,
AFNE01.JPG,AFNE01.JPG,AFNE01.JPG,AFNE01.JPG,AFNE01.JPG,AFNE01.JPG,,,,,,,,,,,,,1,9,19,3,,,,,,,,,,,AMSA09.jpg,AMNE11.jpg,AMSA10.jpg,AMNE03.jpg,AMSA10.jpg,MS,2,num_2,16,num_2,1.81652630586,,,2017_Apr_14_1209,60.003598958,FEMA4ImagesEEG,001,100173,
AFNE01.JPG,AFNE01.JPG,AFNE01.JPG,AFNE01.JPG,AFNE01.JPG,AFNE01.JPG,,,,,,,,,,,,,2,0,20,1,,,,,,,,,,,AMSA06.jpg,AMSA07.jpg,AMNE16.jpg,AMNE10.jpg,AMNE16.jpg,MN,1,num_2,16,num_2,2.46651493525,,,2017_Apr_14_1209,60.003598958,FEMA4ImagesEEG,001,100173,
AFNE01.JPG,AFNE01.JPG,AFNE01.JPG,AFNE01.JPG,AFNE01.JPG,AFNE01.JPG,,,,,,,,,,,,,2,1,21,6,,,,,,,,,,,AMSA13.jpg,AMNE17.jpg,AMSA05.jpg,AMNE04.jpg,AMSA05.jpg,MS,2,num_2,32,num_6,1.4500564984,,,2017_Apr_14_1209,60.003598958,FEMA4ImagesEEG,001,100173,
AFNE01.JPG,AFNE01.JPG,AFNE01.JPG,AFNE01.JPG,AFNE01.JPG,AFNE01.JPG,,,,,,,,,,,,,2,2,22,8,,,,,,,,,,,AMSA18.jpg,AMNE09.jpg,AMSA12.jpg,AMNE02.jpg,AMSA12.jpg,MS,2,num_2,16,num_2,2.73351181392,,,2017_Apr_14_1209,60.003598958,FEMA4ImagesEEG,001,100173,
AFNE01.JPG,AFNE01.JPG,AFNE01.JPG,AFNE01.JPG,AFNE01.JPG,AFNE01.JPG,,,,,,,,,,,,,2,3,23,9,,,,,,,,,,,AMNE16.jpg,AMSA02.jpg,AMNE19.jpg,AMSA07.jpg,AMNE19.jpg,MN,1,num_2,32,num_8,1.20011399081,,,2017_Apr_14_1209,60.003598958,FEMA4ImagesEEG,001,100173,
AFNE01.JPG,AFNE01.JPG,AFNE01.JPG,AFNE01.JPG,AFNE01.JPG,AFNE01.JPG,,,,,,,,,,,,,2,4,24,2,,,,,,,,,,,AMSA09.jpg,AMNE18.jpg,AMNE20.jpg,AMSA04.jpg,AMSA04.jpg,MS,2,num_4,16,num_4,0.93342245603,,,2017_Apr_14_1209,60.003598958,FEMA4ImagesEEG,001,100173,
AFNE01.JPG,AFNE01.JPG,AFNE01.JPG,AFNE01.JPG,AFNE01.JPG,AFNE01.JPG,,,,,,,,,,,,,2,5,25,7,,,,,,,,,,,AMNE14.jpg,AMNE20.jpg,AMSA03.jpg,AMSA04.jpg,AMNE14.jpg,MN,1,num_8,16,num_8,0.916747519746,,,2017_Apr_14_1209,60.003598958,FEMA4ImagesEEG,001,100173,
AFNE01.JPG,AFNE01.JPG,AFNE01.JPG,AFNE01.JPG,AFNE01.JPG,AFNE01.JPG,,,,,,,,,,,,,2,6,26,4,,,,,,,,,,,AMSA02.jpg,AMSA13.jpg,AMNE04.jpg,AMNE01.jpg,AMNE01.jpg,MN,1,num_4,16,num_4,2.31685971469,,,2017_Apr_14_1209,60.003598958,FEMA4ImagesEEG,001,100173,
AFNE01.JPG,AFNE01.JPG,AFNE01.JPG,AFNE01.JPG,AFNE01.JPG,AFNE01.JPG,,,,,,,,,,,,,2,7,27,0,,,,,,,,,,,AMSA18.jpg,AMNE06.jpg,AMSA12.jpg,AMNE12.jpg,AMNE06.jpg,MN,1,num_6,16,num_6,1.45010268455,,,2017_Apr_14_1209,60.003598958,FEMA4ImagesEEG,001,100173,
AFNE01.JPG,AFNE01.JPG,AFNE01.JPG,AFNE01.JPG,AFNE01.JPG,AFNE01.JPG,,,,,,,,,,,,,2,8,28,3,,,,,,,,,,,AMNE03.jpg,AMNE15.jpg,AMSA13.jpg,AMSA18.jpg,AMNE15.jpg,MN,1,num_6,16,num_6,2.4165286147,,,2017_Apr_14_1209,60.003598958,FEMA4ImagesEEG,001,100173,
AFNE01.JPG,AFNE01.JPG,AFNE01.JPG,AFNE01.JPG,AFNE01.JPG,AFNE01.JPG,,,,,,,,,,,,,2,9,29,5,,,,,,,,,,,AMSA08.jpg,AMNE18.jpg,AMSA02.jpg,AMNE03.jpg,AMSA02.jpg,MS,2,num_2,32,num_4,2.39998550247,,,2017_Apr_14_1209,60.003598958,FEMA4ImagesEEG,001,100173,
AFNE01.JPG,AFNE01.JPG,AFNE01.JPG,AFNE01.JPG,AFNE01.JPG,AFNE01.JPG,,,,,,,,,,,,,3,0,30,2,,,,,,,,,,,AMNE20.jpg,AMSA06.jpg,AMNE04.jpg,AMSA09.jpg,AMSA09.jpg,MS,2,num_4,16,num_4,1.58342102868,,,2017_Apr_14_1209,60.003598958,FEMA4ImagesEEG,001,100173,
AFNE01.JPG,AFNE01.JPG,AFNE01.JPG,AFNE01.JPG,AFNE01.JPG,AFNE01.JPG,,,,,,,,,,,,,3,1,31,4,,,,,,,,,,,AMSA15.jpg,AMSA11.jpg,AMNE05.jpg,AMNE19.jpg,AMNE05.jpg,MN,1,num_2,16,num_2,2.59999653604,,,2017_Apr_14_1209,60.003598958,FEMA4ImagesEEG,001,100173,
AFNE01.JPG,AFNE01.JPG,AFNE01.JPG,AFNE01.JPG,AFNE01.JPG,AFNE01.JPG,,,,,,,,,,,,,3,2,32,0,,,,,,,,,,,AMSA18.jpg,AMSA03.jpg,AMNE05.jpg,AMNE02.jpg,AMNE02.jpg,MN,1,num_4,16,num_4,1.40009904467,,,2017_Apr_14_1209,60.003598958,FEMA4ImagesEEG,001,100173,
AFNE01.JPG,AFNE01.JPG,AFNE01.JPG,AFNE01.JPG,AFNE01.JPG,AFNE01.JPG,,,,,,,,,,,,,3,3,33,5,,,,,,,,,,,AMSA10.jpg,AMSA09.jpg,AMNE01.jpg,AMNE05.jpg,AMNE05.jpg,MN,1,num_4,16,num_4,1.55006538285,,,2017_Apr_14_1209,60.003598958,FEMA4ImagesEEG,001,100173,
AFNE01.JPG,AFNE01.JPG,AFNE01.JPG,AFNE01.JPG,AFNE01.JPG,AFNE01.JPG,,,,,,,,,,,,,3,4,34,9,,,,,,,,,,,AMSA20.jpg,AMNE19.jpg,AMNE17.jpg,AMSA12.jpg,AMNE19.jpg,MN,1,num_6,16,num_6,3.11659401376,,,2017_Apr_14_1209,60.003598958,FEMA4ImagesEEG,001,100173,
AFNE01.JPG,AFNE01.JPG,AFNE01.JPG,AFNE01.JPG,AFNE01.JPG,AFNE01.JPG,,,,,,,,,,,,,3,5,35,8,,,,,,,,,,,AMSA20.jpg,AMSA04.jpg,AMNE11.jpg,AMNE07.jpg,AMSA20.jpg,MS,2,num_8,32,num_4,2.38331024535,,,2017_Apr_14_1209,60.003598958,FEMA4ImagesEEG,001,100173,
AFNE01.JPG,AFNE01.JPG,AFNE01.JPG,AFNE01.JPG,AFNE01.JPG,AFNE01.JPG,,,,,,,,,,,,,3,6,36,1,,,,,,,,,,,AMSA05.jpg,AMNE03.jpg,AMNE12.jpg,AMSA13.jpg,AMSA13.jpg,MS,2,num_4,16,num_4,2.93359469343,,,2017_Apr_14_1209,60.003598958,FEMA4ImagesEEG,001,100173,
AFNE01.JPG,AFNE01.JPG,AFNE01.JPG,AFNE01.JPG,AFNE01.JPG,AFNE01.JPG,,,,,,,,,,,,,3,7,37,6,,,,,,,,,,,AMSA03.jpg,AMNE20.jpg,AMNE05.jpg,AMSA11.jpg,AMNE20.jpg,MN,1,num_6,16,num_6,1.11676593032,,,2017_Apr_14_1209,60.003598958,FEMA4ImagesEEG,001,100173,
AFNE01.JPG,AFNE01.JPG,AFNE01.JPG,AFNE01.JPG,AFNE01.JPG,AFNE01.JPG,,,,,,,,,,,,,3,8,38,3,,,,,,,,,,,AMNE20.jpg,AMNE02.jpg,AMSA19.jpg,AMSA03.jpg,AMNE20.jpg,MN,1,num_8,32,num_2,2.50006013876,,,2017_Apr_14_1209,60.003598958,FEMA4ImagesEEG,001,100173,
AFNE01.JPG,AFNE01.JPG,AFNE01.JPG,AFNE01.JPG,AFNE01.JPG,AFNE01.JPG,,,,,,,,,,,,,3,9,39,7,,,,,,,,,,,AMSA11.jpg,AMNE07.jpg,AMSA12.jpg,AMNE09.jpg,AMNE09.jpg,MN,1,num_4,16,num_4,1.10009965394,,,2017_Apr_14_1209,60.003598958,FEMA4ImagesEEG,001,100173,
AFNE01.JPG,AFNE01.JPG,AFNE01.JPG,AFNE01.JPG,AFNE01.JPG,AFNE01.JPG,,,,,,,,,,,,,4,0,40,2,,,,,,,,,,,AMSA19.jpg,AMNE19.jpg,AMNE13.jpg,AMSA06.jpg,AMNE13.jpg,MN,1,num_2,32,num_6,1.50009189174,,,2017_Apr_14_1209,60.003598958,FEMA4ImagesEEG,001,100173,
AFNE01.JPG,AFNE01.JPG,AFNE01.JPG,AFNE01.JPG,AFNE01.JPG,AFNE01.JPG,,,,,,,,,,,,,4,1,41,7,,,,,,,,,,,AMNE20.jpg,AMNE16.jpg,AMSA20.jpg,AMSA14.jpg,AMSA20.jpg,MS,2,num_2,16,num_2,2.13337639812,,,2017_Apr_14_1209,60.003598958,FEMA4ImagesEEG,001,100173,
AFNE01.JPG,AFNE01.JPG,AFNE01.JPG,AFNE01.JPG,AFNE01.JPG,AFNE01.JPG,,,,,,,,,,,,,4,2,42,8,,,,,,,,,,,AMNE18.jpg,AMSA01.jpg,AMNE01.jpg,AMSA11.jpg,AMNE18.jpg,MN,1,num_8,16,num_8,1.46672662394,,,2017_Apr_14_1209,60.003598958,FEMA4ImagesEEG,001,100173,
AFNE01.JPG,AFNE01.JPG,AFNE01.JPG,AFNE01.JPG,AFNE01.JPG,AFNE01.JPG,,,,,,,,,,,,,4,3,43,9,,,,,,,,,,,AMSA11.jpg,AMNE07.jpg,AMSA07.jpg,AMNE14.jpg,AMNE14.jpg,MN,1,num_4,32,num_6,2.9499274008,,,2017_Apr_14_1209,60.003598958,FEMA4ImagesEEG,001,100173,
AFNE01.JPG,AFNE01.JPG,AFNE01.JPG,AFNE01.JPG,AFNE01.JPG,AFNE01.JPG,,,,,,,,,,,,,4,4,44,6,,,,,,,,,,,AMNE04.jpg,AMNE08.jpg,AMSA17.jpg,AMSA07.jpg,AMNE08.jpg,MN,1,num_6,32,num_8,1.10000728071,,,2017_Apr_14_1209,60.003598958,FEMA4ImagesEEG,001,100173,
AFNE01.JPG,AFNE01.JPG,AFNE01.JPG,AFNE01.JPG,AFNE01.JPG,AFNE01.JPG,,,,,,,,,,,,,4,5,45,5,,,,,,,,,,,AMNE09.jpg,AMNE13.jpg,AMSA15.jpg,AMSA16.jpg,AMSA15.jpg,MS,2,num_2,16,num_2,1.65007490898,,,2017_Apr_14_1209,60.003598958,FEMA4ImagesEEG,001,100173,
AFNE01.JPG,AFNE01.JPG,AFNE01.JPG,AFNE01.JPG,AFNE01.JPG,AFNE01.JPG,,,,,,,,,,,,,4,6,46,3,,,,,,,,,,,AMNE06.jpg,AMNE15.jpg,AMSA07.jpg,AMSA15.jpg,AMNE15.jpg,MN,1,num_6,32,num_8,2.00005741231,,,2017_Apr_14_1209,60.003598958,FEMA4ImagesEEG,001,100173,
AFNE01.JPG,AFNE01.JPG,AFNE01.JPG,AFNE01.JPG,AFNE01.JPG,AFNE01.JPG,,,,,,,,,,,,,4,7,47,1,,,,,,,,,,,AMSA11.jpg,AMSA03.jpg,AMNE09.jpg,AMNE08.jpg,AMNE08.jpg,MN,1,num_4,16,num_4,0.766666998155,,,2017_Apr_14_1209,60.003598958,FEMA4ImagesEEG,001,100173,
AFNE01.JPG,AFNE01.JPG,AFNE01.JPG,AFNE01.JPG,AFNE01.JPG,AFNE01.JPG,,,,,,,,,,,,,4,8,48,4,,,,,,,,,,,AMNE09.jpg,AMSA02.jpg,AMNE01.jpg,AMSA13.jpg,AMSA02.jpg,MS,2,num_6,32,num_2,2.10002812883,,,2017_Apr_14_1209,60.003598958,FEMA4ImagesEEG,001,100173,
AFNE01.JPG,AFNE01.JPG,AFNE01.JPG,AFNE01.JPG,AFNE01.JPG,AFNE01.JPG,,,,,,,,,,,,,4,9,49,0,,,,,,,,,,,AMSA02.jpg,AMNE09.jpg,AMSA11.jpg,AMNE15.jpg,AMNE09.jpg,MN,1,num_6,16,num_6,1.38341961754,,,2017_Apr_14_1209,60.003598958,FEMA4ImagesEEG,001,100173,
AFNE01.JPG,AFNE01.JPG,AFNE01.JPG,AFNE01.JPG,AFNE01.JPG,AFNE01.JPG,,,,,,,,,,,,,5,0,50,7,,,,,,,,,,,AMSA06.jpg,AMNE18.jpg,AMNE01.jpg,AMSA20.jpg,AMNE01.jpg,MN,1,num_2,16,num_2,1.78340479918,,,2017_Apr_14_1209,60.003598958,FEMA4ImagesEEG,001,100173,
AFNE01.JPG,AFNE01.JPG,AFNE01.JPG,AFNE01.JPG,AFNE01.JPG,AFNE01.JPG,,,,,,,,,,,,,5,1,51,6,,,,,,,,,,,AMNE02.jpg,AMNE15.jpg,AMSA09.jpg,AMSA10.jpg,AMNE15.jpg,MN,1,num_6,16,num_6,0.966746028513,,,2017_Apr_14_1209,60.003598958,FEMA4ImagesEEG,001,100173,
AFNE01.JPG,AFNE01.JPG,AFNE01.JPG,AFNE01.JPG,AFNE01.JPG,AFNE01.JPG,,,,,,,,,,,,,5,2,52,3,,,,,,,,,,,AMNE06.jpg,AMNE04.jpg,AMSA07.jpg,AMSA10.jpg,AMNE04.jpg,MN,1,num_6,16,num_6,1.71673295833,,,2017_Apr_14_1209,60.003598958,FEMA4ImagesEEG,001,100173,
AFNE01.JPG,AFNE01.JPG,AFNE01.JPG,AFNE01.JPG,AFNE01.JPG,AFNE01.JPG,,,,,,,,,,,,,5,3,53,0,,,,,,,,,,,AMNE17.jpg,AMSA05.jpg,AMNE06.jpg,AMSA02.jpg,AMNE17.jpg,MN,1,num_8,32,num_2,1.86671565427,,,2017_Apr_14_1209,60.003598958,FEMA4ImagesEEG,001,100173,
AFNE01.JPG,AFNE01.JPG,AFNE01.JPG,AFNE01.JPG,AFNE01.JPG,AFNE01.JPG,,,,,,,,,,,,,5,4,54,1,,,,,,,,,,,AMNE09.jpg,AMNE10.jpg,AMSA12.jpg,AMSA03.jpg,AMNE10.jpg,MN,1,num_6,32,num_8,1.21671804367,,,2017_Apr_14_1209,60.003598958,FEMA4ImagesEEG,001,100173,
AFNE01.JPG,AFNE01.JPG,AFNE01.JPG,AFNE01.JPG,AFNE01.JPG,AFNE01.JPG,,,,,,,,,,,,,5,5,55,9,,,,,,,,,,,AMNE20.jpg,AMSA06.jpg,AMSA13.jpg,AMNE07.jpg,AMSA06.jpg,MS,2,num_6,16,num_6,1.56730161328,,,2017_Apr_14_1209,60.003598958,FEMA4ImagesEEG,001,100173,
AFNE01.JPG,AFNE01.JPG,AFNE01.JPG,AFNE01.JPG,AFNE01.JPG,AFNE01.JPG,,,,,,,,,,,,,5,6,56,8,,,,,,,,,,,AMNE20.jpg,AMSA08.jpg,AMSA06.jpg,AMNE09.jpg,AMSA08.jpg,MS,2,num_6,32,num_4,1.68338308576,,,2017_Apr_14_1209,60.003598958,FEMA4ImagesEEG,001,100173,
AFNE01.JPG,AFNE01.JPG,AFNE01.JPG,AFNE01.JPG,AFNE01.JPG,AFNE01.JPG,,,,,,,,,,,,,5,7,57,2,,,,,,,,,,,AMNE17.jpg,AMNE01.jpg,AMSA04.jpg,AMSA01.jpg,AMNE01.jpg,MN,1,num_6,16,num_6,1.1500965585,,,2017_Apr_14_1209,60.003598958,FEMA4ImagesEEG,001,100173,
AFNE01.JPG,AFNE01.JPG,AFNE01.JPG,AFNE01.JPG,AFNE01.JPG,AFNE01.JPG,,,,,,,,,,,,,5,8,58,4,,,,,,,,,,,AMNE15.jpg,AMSA06.jpg,AMSA03.jpg,AMNE04.jpg,AMSA03.jpg,MS,2,num_2,16,num_2,2.89999913378,,,2017_Apr_14_1209,60.003598958,FEMA4ImagesEEG,001,100173,
AFNE01.JPG,AFNE01.JPG,AFNE01.JPG,AFNE01.JPG,AFNE01.JPG,AFNE01.JPG,,,,,,,,,,,,,5,9,59,5,,,,,,,,,,,AMSA10.jpg,AMNE05.jpg,AMSA09.jpg,AMNE19.jpg,AMNE19.jpg,MN,1,num_4,32,num_6,1.06668434991,,,2017_Apr_14_1209,60.003598958,FEMA4ImagesEEG,001,100173,
,,,,,,,,,,,,,,,,,,,,,,,,,,,,,,,,,,,,,,,,,,,space,11.0493182195,2017_Apr_14_1209,60.003598958,FEMA4ImagesEEG,001,100173,
AFNE01.JPG,AFNE01.JPG,AFNE01.JPG,AFNE01.JPG,AFNE01.JPG,AFNE01.JPG,,,,,,,,,,,,,,,,,0,0,0,3,,,,,,,AFSA11.jpg,AFNE09.jpg,AFNE20.jpg,AFSA19.jpg,AFNE09.jpg,FN,3,num_6,16,num_6,1.8497510897,,,2017_Apr_14_1209,60.003598958,FEMA4ImagesEEG,001,100173,
AFNE01.JPG,AFNE01.JPG,AFNE01.JPG,AFNE01.JPG,AFNE01.JPG,AFNE01.JPG,,,,,,,,,,,,,,,,,0,1,1,4,,,,,,,AFNE10.jpg,AFSA01.jpg,AFSA06.jpg,AFNE13.jpg,AFSA01.jpg,FS,4,num_6,32,num_2,1.56678169454,,,2017_Apr_14_1209,60.003598958,FEMA4ImagesEEG,001,100173,
AFNE01.JPG,AFNE01.JPG,AFNE01.JPG,AFNE01.JPG,AFNE01.JPG,AFNE01.JPG,,,,,,,,,,,,,,,,,0,2,2,6,,,,,,,AFSA17.jpg,AFNE19.jpg,AFNE12.jpg,AFSA16.jpg,AFNE19.jpg,FN,3,num_6,16,num_6,0.966808251571,,,2017_Apr_14_1209,60.003598958,FEMA4ImagesEEG,001,100173,
AFNE01.JPG,AFNE01.JPG,AFNE01.JPG,AFNE01.JPG,AFNE01.JPG,AFNE01.JPG,,,,,,,,,,,,,,,,,0,3,3,0,,,,,,,AFSA01.jpg,AFSA08.jpg,AFNE18.jpg,AFNE07.jpg,AFNE07.jpg,FN,3,num_4,16,num_4,1.00007665716,,,2017_Apr_14_1209,60.003598958,FEMA4ImagesEEG,001,100173,
AFNE01.JPG,AFNE01.JPG,AFNE01.JPG,AFNE01.JPG,AFNE01.JPG,AFNE01.JPG,,,,,,,,,,,,,,,,,0,4,4,5,,,,,,,AFNE20.jpg,AFSA03.jpg,AFNE02.jpg,AFSA05.jpg,AFSA03.jpg,FS,4,num_6,16,num_6,0.900119411293,,,2017_Apr_14_1209,60.003598958,FEMA4ImagesEEG,001,100173,
AFNE01.JPG,AFNE01.JPG,AFNE01.JPG,AFNE01.JPG,AFNE01.JPG,AFNE01.JPG,,,,,,,,,,,,,,,,,0,5,5,2,,,,,,,AFNE09.jpg,AFSA03.jpg,AFSA14.jpg,AFNE19.jpg,AFSA14.jpg,FS,4,num_2,16,num_2,1.26673900429,,,2017_Apr_14_1209,60.003598958,FEMA4ImagesEEG,001,100173,
AFNE01.JPG,AFNE01.JPG,AFNE01.JPG,AFNE01.JPG,AFNE01.JPG,AFNE01.JPG,,,,,,,,,,,,,,,,,0,6,6,1,,,,,,,AFNE13.jpg,AFNE18.jpg,AFSA15.jpg,AFSA16.jpg,AFSA15.jpg,FS,4,num_2,16,num_2,2.11673000781,,,2017_Apr_14_1209,60.003598958,FEMA4ImagesEEG,001,100173,
AFNE01.JPG,AFNE01.JPG,AFNE01.JPG,AFNE01.JPG,AFNE01.JPG,AFNE01.JPG,,,,,,,,,,,,,,,,,0,7,7,9,,,,,,,AFNE02.jpg,AFSA13.jpg,AFNE12.jpg,AFSA08.jpg,AFNE12.jpg,FN,3,num_2,16,num_2,2.46667722985,,,2017_Apr_14_1209,60.003598958,FEMA4ImagesEEG,001,100173,
AFNE01.JPG,AFNE01.JPG,AFNE01.JPG,AFNE01.JPG,AFNE01.JPG,AFNE01.JPG,,,,,,,,,,,,,,,,,0,8,8,7,,,,,,,AFSA05.jpg,AFSA04.jpg,AFNE13.jpg,AFNE12.jpg,AFSA05.jpg,FS,4,num_8,32,num_2,2.18342558341,,,2017_Apr_14_1209,60.003598958,FEMA4ImagesEEG,001,100173,
AFNE01.JPG,AFNE01.JPG,AFNE01.JPG,AFNE01.JPG,AFNE01.JPG,AFNE01.JPG,,,,,,,,,,,,,,,,,0,9,9,8,,,,,,,AFNE04.jpg,AFSA10.jpg,AFSA18.jpg,AFNE18.jpg,AFSA18.jpg,FS,4,num_2,16,num_2,2.3833266031,,,2017_Apr_14_1209,60.003598958,FEMA4ImagesEEG,001,100173,
AFNE01.JPG,AFNE01.JPG,AFNE01.JPG,AFNE01.JPG,AFNE01.JPG,AFNE01.JPG,,,,,,,,,,,,,,,,,1,0,10,8,,,,,,,AFSA10.jpg,AFNE06.jpg,AFSA16.jpg,AFNE15.jpg,AFSA10.jpg,FS,4,num_8,16,num_8,0.933476660866,,,2017_Apr_14_1209,60.003598958,FEMA4ImagesEEG,001,100173,
AFNE01.JPG,AFNE01.JPG,AFNE01.JPG,AFNE01.JPG,AFNE01.JPG,AFNE01.JPG,,,,,,,,,,,,,,,,,1,1,11,3,,,,,,,AFNE02.jpg,AFNE17.jpg,AFSA14.jpg,AFSA15.jpg,AFNE02.jpg,FN,3,num_8,16,num_8,0.750137998257,,,2017_Apr_14_1209,60.003598958,FEMA4ImagesEEG,001,100173,
AFNE01.JPG,AFNE01.JPG,AFNE01.JPG,AFNE01.JPG,AFNE01.JPG,AFNE01.JPG,,,,,,,,,,,,,,,,,1,2,12,0,,,,,,,AFSA14.jpg,AFNE15.jpg,AFNE05.jpg,AFSA07.jpg,AFSA14.jpg,FS,4,num_8,16,num_8,0.933426626027,,,2017_Apr_14_1209,60.003598958,FEMA4ImagesEEG,001,100173,
AFNE01.JPG,AFNE01.JPG,AFNE01.JPG,AFNE01.JPG,AFNE01.JPG,AFNE01.JPG,,,,,,,,,,,,,,,,,1,3,13,7,,,,,,,AFNE14.jpg,AFSA13.jpg,AFSA05.jpg,AFNE05.jpg,AFSA13.jpg,FS,4,num_6,32,num_2,2.4333918253,,,2017_Apr_14_1209,60.003598958,FEMA4ImagesEEG,001,100173,
AFNE01.JPG,AFNE01.JPG,AFNE01.JPG,AFNE01.JPG,AFNE01.JPG,AFNE01.JPG,,,,,,,,,,,,,,,,,1,4,14,4,,,,,,,AFSA04.jpg,AFSA16.jpg,AFNE03.jpg,AFNE06.jpg,AFSA16.jpg,FS,4,num_6,16,num_6,1.30011100788,,,2017_Apr_14_1209,60.003598958,FEMA4ImagesEEG,001,100173,
AFNE01.JPG,AFNE01.JPG,AFNE01.JPG,AFNE01.JPG,AFNE01.JPG,AFNE01.JPG,,,,,,,,,,,,,,,,,1,5,15,6,,,,,,,AFNE20.jpg,AFSA07.jpg,AFNE09.jpg,AFSA05.jpg,AFNE20.jpg,FN,3,num_8,16,num_8,1.55006442033,,,2017_Apr_14_1209,60.003598958,FEMA4ImagesEEG,001,100173,
AFNE01.JPG,AFNE01.JPG,AFNE01.JPG,AFNE01.JPG,AFNE01.JPG,AFNE01.JPG,,,,,,,,,,,,,,,,,1,6,16,2,,,,,,,AFSA07.jpg,AFNE18.jpg,AFSA13.jpg,AFNE08.jpg,AFNE08.jpg,FN,3,num_4,16,num_4,1.15007442748,,,2017_Apr_14_1209,60.003598958,FEMA4ImagesEEG,001,100173,
AFNE01.JPG,AFNE01.JPG,AFNE01.JPG,AFNE01.JPG,AFNE01.JPG,AFNE01.JPG,,,,,,,,,,,,,,,,,1,7,17,9,,,,,,,AFSA14.jpg,AFSA18.jpg,AFNE04.jpg,AFNE16.jpg,AFNE04.jpg,FN,3,num_2,16,num_2,1.78335540555,,,2017_Apr_14_1209,60.003598958,FEMA4ImagesEEG,001,100173,
AFNE01.JPG,AFNE01.JPG,AFNE01.JPG,AFNE01.JPG,AFNE01.JPG,AFNE01.JPG,,,,,,,,,,,,,,,,,1,8,18,5,,,,,,,AFSA11.jpg,AFNE13.jpg,AFNE15.jpg,AFSA02.jpg,AFNE13.jpg,FN,3,num_6,32,num_2,2.84997689072,,,2017_Apr_14_1209,60.003598958,FEMA4ImagesEEG,001,100173,
AFNE01.JPG,AFNE01.JPG,AFNE01.JPG,AFNE01.JPG,AFNE01.JPG,AFNE01.JPG,,,,,,,,,,,,,,,,,1,9,19,1,,,,,,,AFSA18.jpg,AFSA17.jpg,AFNE04.jpg,AFNE16.jpg,AFNE04.jpg,FN,3,num_2,16,num_2,1.83341036411,,,2017_Apr_14_1209,60.003598958,FEMA4ImagesEEG,001,100173,
AFNE01.JPG,AFNE01.JPG,AFNE01.JPG,AFNE01.JPG,AFNE01.JPG,AFNE01.JPG,,,,,,,,,,,,,,,,,2,0,20,8,,,,,,,AFNE10.jpg,AFSA18.jpg,AFNE09.jpg,AFSA10.jpg,AFSA18.jpg,FS,4,num_6,16,num_6,1.2334362804,,,2017_Apr_14_1209,60.003598958,FEMA4ImagesEEG,001,100173,
AFNE01.JPG,AFNE01.JPG,AFNE01.JPG,AFNE01.JPG,AFNE01.JPG,AFNE01.JPG,,,,,,,,,,,,,,,,,2,1,21,6,,,,,,,AFNE12.jpg,AFNE15.jpg,AFSA14.jpg,AFSA02.jpg,AFNE15.jpg,FN,3,num_6,32,num_8,0.983465226833,,,2017_Apr_14_1209,60.003598958,FEMA4ImagesEEG,001,100173,
AFNE01.JPG,AFNE01.JPG,AFNE01.JPG,AFNE01.JPG,AFNE01.JPG,AFNE01.JPG,,,,,,,,,,,,,,,,,2,2,22,9,,,,,,,AFSA11.jpg,AFSA18.jpg,AFNE17.jpg,AFNE03.jpg,AFNE17.jpg,FN,3,num_2,16,num_2,1.90008541336,,,2017_Apr_14_1209,60.003598958,FEMA4ImagesEEG,001,100173,
AFNE01.JPG,AFNE01.JPG,AFNE01.JPG,AFNE01.JPG,AFNE01.JPG,AFNE01.JPG,,,,,,,,,,,,,,,,,2,3,23,4,,,,,,,AFSA13.jpg,AFSA09.jpg,AFNE17.jpg,AFNE03.jpg,AFNE17.jpg,FN,3,num_2,32,num_4,1.81666005403,,,2017_Apr_14_1209,60.003598958,FEMA4ImagesEEG,001,100173,
AFNE01.JPG,AFNE01.JPG,AFNE01.JPG,AFNE01.JPG,AFNE01.JPG,AFNE01.JPG,,,,,,,,,,,,,,,,,2,4,24,3,,,,,,,AFNE17.jpg,AFSA07.jpg,AFNE10.jpg,AFSA20.jpg,AFNE17.jpg,FN,3,num_8,16,num_8,1.16677790973,,,2017_Apr_14_1209,60.003598958,FEMA4ImagesEEG,001,100173,
AFNE01.JPG,AFNE01.JPG,AFNE01.JPG,AFNE01.JPG,AFNE01.JPG,AFNE01.JPG,,,,,,,,,,,,,,,,,2,5,25,7,,,,,,,AFSA09.jpg,AFNE15.jpg,AFSA01.jpg,AFNE18.jpg,AFSA01.jpg,FS,4,num_2,32,num_8,1.01678013895,,,2017_Apr_14_1209,60.003598958,FEMA4ImagesEEG,001,100173,
AFNE01.JPG,AFNE01.JPG,AFNE01.JPG,AFNE01.JPG,AFNE01.JPG,AFNE01.JPG,,,,,,,,,,,,,,,,,2,6,26,5,,,,,,,AFSA09.jpg,AFNE04.jpg,AFSA17.jpg,AFNE10.jpg,AFSA17.jpg,FS,4,num_2,16,num_2,2.05003635585,,,2017_Apr_14_1209,60.003598958,FEMA4ImagesEEG,001,100173,
AFNE01.JPG,AFNE01.JPG,AFNE01.JPG,AFNE01.JPG,AFNE01.JPG,AFNE01.JPG,,,,,,,,,,,,,,,,,2,7,27,1,,,,,,,AFNE10.jpg,AFSA02.jpg,AFNE02.jpg,AFSA10.jpg,AFSA10.jpg,FS,4,num_4,32,num_8,0.833366422914,,,2017_Apr_14_1209,60.003598958,FEMA4ImagesEEG,001,100173,
AFNE01.JPG,AFNE01.JPG,AFNE01.JPG,AFNE01.JPG,AFNE01.JPG,AFNE01.JPG,,,,,,,,,,,,,,,,,2,8,28,0,,,,,,,AFSA19.jpg,AFNE20.jpg,AFNE11.jpg,AFSA11.jpg,AFSA11.jpg,FS,4,num_4,16,num_4,1.78337336704,,,2017_Apr_14_1209,60.003598958,FEMA4ImagesEEG,001,100173,
AFNE01.JPG,AFNE01.JPG,AFNE01.JPG,AFNE01.JPG,AFNE01.JPG,AFNE01.JPG,,,,,,,,,,,,,,,,,2,9,29,2,,,,,,,AFSA10.jpg,AFNE20.jpg,AFSA11.jpg,AFNE09.jpg,AFNE09.jpg,FN,3,num_4,16,num_4,1.56670279289,,,2017_Apr_14_1209,60.003598958,FEMA4ImagesEEG,001,100173,
AFNE01.JPG,AFNE01.JPG,AFNE01.JPG,AFNE01.JPG,AFNE01.JPG,AFNE01.JPG,,,,,,,,,,,,,,,,,3,0,30,3,,,,,,,AFNE10.jpg,AFSA08.jpg,AFSA13.jpg,AFNE02.jpg,AFNE02.jpg,FN,3,num_4,16,num_4,0.833515246399,,,2017_Apr_14_1209,60.003598958,FEMA4ImagesEEG,001,100173,
AFNE01.JPG,AFNE01.JPG,AFNE01.JPG,AFNE01.JPG,AFNE01.JPG,AFNE01.JPG,,,,,,,,,,,,,,,,,3,1,31,9,,,,,,,AFNE01.jpg,AFNE05.jpg,AFSA11.jpg,AFSA05.jpg,AFNE01.jpg,FN,3,num_8,16,num_8,1.15005742852,,,2017_Apr_14_1209,60.003598958,FEMA4ImagesEEG,001,100173,
AFNE01.JPG,AFNE01.JPG,AFNE01.JPG,AFNE01.JPG,AFNE01.JPG,AFNE01.JPG,,,,,,,,,,,,,,,,,3,2,32,7,,,,,,,AFNE10.jpg,AFSA13.jpg,AFNE09.jpg,AFSA07.jpg,AFSA13.jpg,FS,4,num_6,16,num_6,1.0002549882,,,2017_Apr_14_1209,60.003598958,FEMA4ImagesEEG,001,100173,
AFNE01.JPG,AFNE01.JPG,AFNE01.JPG,AFNE01.JPG,AFNE01.JPG,AFNE01.JPG,,,,,,,,,,,,,,,,,3,3,33,5,,,,,,,AFNE20.jpg,AFSA07.jpg,AFNE08.jpg,AFSA05.jpg,AFNE20.jpg,FN,3,num_8,16,num_8,1.0667552338,,,2017_Apr_14_1209,60.003598958,FEMA4ImagesEEG,001,100173,
AFNE01.JPG,AFNE01.JPG,AFNE01.JPG,AFNE01.JPG,AFNE01.JPG,AFNE01.JPG,,,,,,,,,,,,,,,,,3,4,34,2,,,,,,,AFNE16.jpg,AFNE17.jpg,AFSA01.jpg,AFSA03.jpg,AFNE16.jpg,FN,3,num_8,16,num_8,1.13342932006,,,2017_Apr_14_1209,60.003598958,FEMA4ImagesEEG,001,100173,
AFNE01.JPG,AFNE01.JPG,AFNE01.JPG,AFNE01.JPG,AFNE01.JPG,AFNE01.JPG,,,,,,,,,,,,,,,,,3,5,35,1,,,,,,,AFNE18.jpg,AFNE12.jpg,AFSA07.jpg,AFSA08.jpg,AFSA07.jpg,FS,4,num_2,32,num_6,1.83338406403,,,2017_Apr_14_1209,60.003598958,FEMA4ImagesEEG,001,100173,
AFNE01.JPG,AFNE01.JPG,AFNE01.JPG,AFNE01.JPG,AFNE01.JPG,AFNE01.JPG,,,,,,,,,,,,,,,,,3,6,36,4,,,,,,,AFSA18.jpg,AFSA06.jpg,AFNE19.jpg,AFNE15.jpg,AFNE15.jpg,FN,3,num_4,16,num_4,1.16673076106,,,2017_Apr_14_1209,60.003598958,FEMA4ImagesEEG,001,100173,
AFNE01.JPG,AFNE01.JPG,AFNE01.JPG,AFNE01.JPG,AFNE01.JPG,AFNE01.JPG,,,,,,,,,,,,,,,,,3,7,37,0,,,,,,,AFSA10.jpg,AFNE02.jpg,AFNE08.jpg,AFSA06.jpg,AFNE02.jpg,FN,3,num_6,16,num_6,1.36671966314,,,2017_Apr_14_1209,60.003598958,FEMA4ImagesEEG,001,100173,
AFNE01.JPG,AFNE01.JPG,AFNE01.JPG,AFNE01.JPG,AFNE01.JPG,AFNE01.JPG,,,,,,,,,,,,,,,,,3,8,38,6,,,,,,,AFSA12.jpg,AFSA13.jpg,AFNE13.jpg,AFNE07.jpg,AFSA12.jpg,FS,4,num_8,16,num_8,0.916845025029,,,2017_Apr_14_1209,60.003598958,FEMA4ImagesEEG,001,100173,
AFNE01.JPG,AFNE01.JPG,AFNE01.JPG,AFNE01.JPG,AFNE01.JPG,AFNE01.JPG,,,,,,,,,,,,,,,,,3,9,39,8,,,,,,,AFNE08.jpg,AFNE13.jpg,AFSA02.jpg,AFSA08.jpg,AFSA02.jpg,FS,4,num_2,32,num_6,1.93337979773,,,2017_Apr_14_1209,60.003598958,FEMA4ImagesEEG,001,100173,
AFNE01.JPG,AFNE01.JPG,AFNE01.JPG,AFNE01.JPG,AFNE01.JPG,AFNE01.JPG,,,,,,,,,,,,,,,,,4,0,40,9,,,,,,,AFNE10.jpg,AFSA20.jpg,AFSA12.jpg,AFNE15.jpg,AFNE15.jpg,FN,3,num_4,16,num_4,2.39998806827,,,2017_Apr_14_1209,60.003598958,FEMA4ImagesEEG,001,100173,
AFNE01.JPG,AFNE01.JPG,AFNE01.JPG,AFNE01.JPG,AFNE01.JPG,AFNE01.JPG,,,,,,,,,,,,,,,,,4,1,41,0,,,,,,,AFSA05.jpg,AFNE08.jpg,AFSA15.jpg,AFNE14.jpg,AFNE14.jpg,FN,3,num_4,32,num_2,2.350026445,,,2017_Apr_14_1209,60.003598958,FEMA4ImagesEEG,001,100173,
AFNE01.JPG,AFNE01.JPG,AFNE01.JPG,AFNE01.JPG,AFNE01.JPG,AFNE01.JPG,,,,,,,,,,,,,,,,,4,2,42,6,,,,,,,AFSA08.jpg,AFSA04.jpg,AFNE04.jpg,AFNE19.jpg,AFSA08.jpg,FS,4,num_8,16,num_8,1.31673173979,,,2017_Apr_14_1209,60.003598958,FEMA4ImagesEEG,001,100173,
AFNE01.JPG,AFNE01.JPG,AFNE01.JPG,AFNE01.JPG,AFNE01.JPG,AFNE01.JPG,,,,,,,,,,,,,,,,,4,3,43,5,,,,,,,AFSA10.jpg,AFSA16.jpg,AFNE08.jpg,AFNE16.jpg,AFSA10.jpg,FS,4,num_8,16,num_8,0.950123372488,,,2017_Apr_14_1209,60.003598958,FEMA4ImagesEEG,001,100173,
AFNE01.JPG,AFNE01.JPG,AFNE01.JPG,AFNE01.JPG,AFNE01.JPG,AFNE01.JPG,,,,,,,,,,,,,,,,,4,4,44,3,,,,,,,AFNE11.jpg,AFSA15.jpg,AFSA05.jpg,AFNE19.jpg,AFSA15.jpg,FS,4,num_6,16,num_6,1.63339259522,,,2017_Apr_14_1209,60.003598958,FEMA4ImagesEEG,001,100173,
AFNE01.JPG,AFNE01.JPG,AFNE01.JPG,AFNE01.JPG,AFNE01.JPG,AFNE01.JPG,,,,,,,,,,,,,,,,,4,5,45,8,,,,,,,AFSA18.jpg,AFNE07.jpg,AFNE03.jpg,AFSA08.jpg,AFNE03.jpg,FN,3,num_2,32,num_8,1.56657610042,,,2017_Apr_14_1209,60.003598958,FEMA4ImagesEEG,001,100173,
AFNE01.JPG,AFNE01.JPG,AFNE01.JPG,AFNE01.JPG,AFNE01.JPG,AFNE01.JPG,,,,,,,,,,,,,,,,,4,6,46,2,,,,,,,AFSA19.jpg,AFNE02.jpg,AFNE10.jpg,AFSA08.jpg,AFSA19.jpg,FS,4,num_8,32,num_4,1.86655688798,,,2017_Apr_14_1209,60.003598958,FEMA4ImagesEEG,001,100173,
AFNE01.JPG,AFNE01.JPG,AFNE01.JPG,AFNE01.JPG,AFNE01.JPG,AFNE01.JPG,,,,,,,,,,,,,,,,,4,7,47,7,,,,,,,AFNE19.jpg,AFNE18.jpg,AFSA14.jpg,AFSA03.jpg,AFSA14.jpg,FS,4,num_2,16,num_2,2.46661436465,,,2017_Apr_14_1209,60.003598958,FEMA4ImagesEEG,001,100173,
AFNE01.JPG,AFNE01.JPG,AFNE01.JPG,AFNE01.JPG,AFNE01.JPG,AFNE01.JPG,,,,,,,,,,,,,,,,,4,8,48,1,,,,,,,AFNE12.jpg,AFNE13.jpg,AFSA09.jpg,AFSA18.jpg,AFNE12.jpg,FN,3,num_8,16,num_8,1.1001221058,,,2017_Apr_14_1209,60.003598958,FEMA4ImagesEEG,001,100173,
AFNE01.JPG,AFNE01.JPG,AFNE01.JPG,AFNE01.JPG,AFNE01.JPG,AFNE01.JPG,,,,,,,,,,,,,,,,,4,9,49,4,,,,,,,AFSA08.jpg,AFSA19.jpg,AFNE18.jpg,AFNE10.jpg,AFNE18.jpg,FN,3,num_2,16,num_2,1.80001173913,,,2017_Apr_14_1209,60.003598958,FEMA4ImagesEEG,001,100173,
AFNE01.JPG,AFNE01.JPG,AFNE01.JPG,AFNE01.JPG,AFNE01.JPG,AFNE01.JPG,,,,,,,,,,,,,,,,,5,0,50,9,,,,,,,AFSA16.jpg,AFNE10.jpg,AFSA15.jpg,AFNE03.jpg,AFSA16.jpg,FS,4,num_8,16,num_8,0.816756596789,,,2017_Apr_14_1209,60.003598958,FEMA4ImagesEEG,001,100173,
AFNE01.JPG,AFNE01.JPG,AFNE01.JPG,AFNE01.JPG,AFNE01.JPG,AFNE01.JPG,,,,,,,,,,,,,,,,,5,1,51,8,,,,,,,AFNE08.jpg,AFNE02.jpg,AFSA05.jpg,AFSA19.jpg,AFNE08.jpg,FN,3,num_8,32,num_6,1.88340213709,,,2017_Apr_14_1209,60.003598958,FEMA4ImagesEEG,001,100173,
AFNE01.JPG,AFNE01.JPG,AFNE01.JPG,AFNE01.JPG,AFNE01.JPG,AFNE01.JPG,,,,,,,,,,,,,,,,,5,2,52,6,,,,,,,AFSA17.jpg,AFSA16.jpg,AFNE02.jpg,AFNE08.jpg,AFNE02.jpg,FN,3,num_2,16,num_2,1.46677794168,,,2017_Apr_14_1209,60.003598958,FEMA4ImagesEEG,001,100173,
AFNE01.JPG,AFNE01.JPG,AFNE01.JPG,AFNE01.JPG,AFNE01.JPG,AFNE01.JPG,,,,,,,,,,,,,,,,,5,3,53,0,,,,,,,AFSA08.jpg,AFSA06.jpg,AFNE03.jpg,AFNE12.jpg,AFNE12.jpg,FN,3,num_4,16,num_4,0.933462227695,,,2017_Apr_14_1209,60.003598958,FEMA4ImagesEEG,001,100173,
AFNE01.JPG,AFNE01.JPG,AFNE01.JPG,AFNE01.JPG,AFNE01.JPG,AFNE01.JPG,,,,,,,,,,,,,,,,,5,4,54,5,,,,,,,AFSA20.jpg,AFNE01.jpg,AFSA02.jpg,AFNE06.jpg,AFSA20.jpg,FS,4,num_8,16,num_8,0.866780444048,,,2017_Apr_14_1209,60.003598958,FEMA4ImagesEEG,001,100173,
AFNE01.JPG,AFNE01.JPG,AFNE01.JPG,AFNE01.JPG,AFNE01.JPG,AFNE01.JPG,,,,,,,,,,,,,,,,,5,5,55,7,,,,,,,AFSA06.jpg,AFNE07.jpg,AFNE08.jpg,AFSA07.jpg,AFNE07.jpg,FN,3,num_6,16,num_6,1.18346311012,,,2017_Apr_14_1209,60.003598958,FEMA4ImagesEEG,001,100173,
AFNE01.JPG,AFNE01.JPG,AFNE01.JPG,AFNE01.JPG,AFNE01.JPG,AFNE01.JPG,,,,,,,,,,,,,,,,,5,6,56,2,,,,,,,AFNE09.jpg,AFSA16.jpg,AFSA06.jpg,AFNE04.jpg,AFNE04.jpg,FN,3,num_4,16,num_4,1.10010029515,,,2017_Apr_14_1209,60.003598958,FEMA4ImagesEEG,001,100173,
AFNE01.JPG,AFNE01.JPG,AFNE01.JPG,AFNE01.JPG,AFNE01.JPG,AFNE01.JPG,,,,,,,,,,,,,,,,,5,7,57,4,,,,,,,AFNE02.jpg,AFSA07.jpg,AFSA15.jpg,AFNE14.jpg,AFSA15.jpg,FS,4,num_2,16,num_2,1.75007737847,,,2017_Apr_14_1209,60.003598958,FEMA4ImagesEEG,001,100173,
AFNE01.JPG,AFNE01.JPG,AFNE01.JPG,AFNE01.JPG,AFNE01.JPG,AFNE01.JPG,,,,,,,,,,,,,,,,,5,8,58,3,,,,,,,AFSA13.jpg,AFNE12.jpg,AFSA11.jpg,AFNE04.jpg,AFSA13.jpg,FS,4,num_8,32,num_2,2.60010687076,,,2017_Apr_14_1209,60.003598958,FEMA4ImagesEEG,001,100173,
AFNE01.JPG,AFNE01.JPG,AFNE01.JPG,AFNE01.JPG,AFNE01.JPG,AFNE01.JPG,,,,,,,,,,,,,,,,,5,9,59,1,,,,,,,AFNE13.jpg,AFSA14.jpg,AFNE18.jpg,AFSA16.jpg,AFSA14.jpg,FS,4,num_6,32,num_8,1.06676036539,,,2017_Apr_14_1209,60.003598958,FEMA4ImagesEEG,001,100173,
,,,,,,,,,,,,,,,,,,,,,,,,,,,,,,,,,,,,,,,,,,,space,8.43270480121,2017_Apr_14_1209,60.003598958,FEMA4ImagesEEG,001,100173,
AFNE01.JPG,AFNE01.JPG,AFNE01.JPG,AFNE01.JPG,AFNE01.JPG,AFNE01.JPG,,,,,,,,,,,,,,,,,,,,,0,0,0,7,,,AMSA03.jpg,AMNE09.jpg,AMSA16.jpg,AMNE11.jpg,AMSA16.jpg,MS,2,num_2,32,num_8,2.5166847189,,,2017_Apr_14_1209,60.003598958,FEMA4ImagesEEG,001,100173,
AFNE01.JPG,AFNE01.JPG,AFNE01.JPG,AFNE01.JPG,AFNE01.JPG,AFNE01.JPG,,,,,,,,,,,,,,,,,,,,,0,1,1,6,,,AMSA19.jpg,AMNE08.jpg,AMNE06.jpg,AMSA04.jpg,AMNE06.jpg,MN,1,num_2,16,num_2,1.43340016482,,,2017_Apr_14_1209,60.003598958,FEMA4ImagesEEG,001,100173,
AFNE01.JPG,AFNE01.JPG,AFNE01.JPG,AFNE01.JPG,AFNE01.JPG,AFNE01.JPG,,,,,,,,,,,,,,,,,,,,,0,2,2,8,,,AMNE19.jpg,AMNE10.jpg,AMSA06.jpg,AMSA09.jpg,AMNE19.jpg,MN,1,num_8,16,num_8,1.3834135239,,,2017_Apr_14_1209,60.003598958,FEMA4ImagesEEG,001,100173,
AFNE01.JPG,AFNE01.JPG,AFNE01.JPG,AFNE01.JPG,AFNE01.JPG,AFNE01.JPG,,,,,,,,,,,,,,,,,,,,,0,3,3,5,,,AMSA17.jpg,AMNE20.jpg,AMSA08.jpg,AMNE06.jpg,AMNE06.jpg,MN,1,num_4,16,num_4,1.9334070608,,,2017_Apr_14_1209,60.003598958,FEMA4ImagesEEG,001,100173,
AFNE01.JPG,AFNE01.JPG,AFNE01.JPG,AFNE01.JPG,AFNE01.JPG,AFNE01.JPG,,,,,,,,,,,,,,,,,,,,,0,4,4,0,,,AMSA19.jpg,AMNE16.jpg,AMSA15.jpg,AMNE01.jpg,AMNE01.jpg,MN,1,num_4,16,num_4,0.950173086952,,,2017_Apr_14_1209,60.003598958,FEMA4ImagesEEG,001,100173,
AFNE01.JPG,AFNE01.JPG,AFNE01.JPG,AFNE01.JPG,AFNE01.JPG,AFNE01.JPG,,,,,,,,,,,,,,,,,,,,,0,5,5,4,,,AMSA12.jpg,AMSA16.jpg,AMNE05.jpg,AMNE08.jpg,AMNE08.jpg,MN,1,num_4,32,num_2,2.86666209111,,,2017_Apr_14_1209,60.003598958,FEMA4ImagesEEG,001,100173,
AFNE01.JPG,AFNE01.JPG,AFNE01.JPG,AFNE01.JPG,AFNE01.JPG,AFNE01.JPG,,,,,,,,,,,,,,,,,,,,,0,6,6,9,,,AMSA13.jpg,AMNE14.jpg,AMSA10.jpg,AMNE03.jpg,AMNE03.jpg,MN,1,num_4,16,num_4,1.33342912747,,,2017_Apr_14_1209,60.003598958,FEMA4ImagesEEG,001,100173,
AFNE01.JPG,AFNE01.JPG,AFNE01.JPG,AFNE01.JPG,AFNE01.JPG,AFNE01.JPG,,,,,,,,,,,,,,,,,,,,,0,7,7,1,,,AMSA17.jpg,AMNE20.jpg,AMNE04.jpg,AMSA08.jpg,AMNE04.jpg,MN,1,num_2,16,num_2,1.66671680892,,,2017_Apr_14_1209,60.003598958,FEMA4ImagesEEG,001,100173,
AFNE01.JPG,AFNE01.JPG,AFNE01.JPG,AFNE01.JPG,AFNE01.JPG,AFNE01.JPG,,,,,,,,,,,,,,,,,,,,,0,8,8,3,,,AMSA02.jpg,AMNE04.jpg,AMSA15.jpg,AMNE14.jpg,AMSA15.jpg,MS,2,num_2,32,num_8,2.14997596061,,,2017_Apr_14_1209,60.003598958,FEMA4ImagesEEG,001,100173,
AFNE01.JPG,AFNE01.JPG,AFNE01.JPG,AFNE01.JPG,AFNE01.JPG,AFNE01.JPG,,,,,,,,,,,,,,,,,,,,,0,9,9,2,,,AMSA16.jpg,AMNE11.jpg,AMSA08.jpg,AMNE13.jpg,AMSA08.jpg,MS,2,num_2,32,num_6,2.21669398854,,,2017_Apr_14_1209,60.003598958,FEMA4ImagesEEG,001,100173,
AFNE01.JPG,AFNE01.JPG,AFNE01.JPG,AFNE01.JPG,AFNE01.JPG,AFNE01.JPG,,,,,,,,,,,,,,,,,,,,,1,0,10,0,,,AMSA20.jpg,AMNE14.jpg,AMSA01.jpg,AMNE10.jpg,AMSA01.jpg,MS,2,num_2,32,num_6,2.54996851925,,,2017_Apr_14_1209,60.003598958,FEMA4ImagesEEG,001,100173,
AFNE01.JPG,AFNE01.JPG,AFNE01.JPG,AFNE01.JPG,AFNE01.JPG,AFNE01.JPG,,,,,,,,,,,,,,,,,,,,,1,1,11,6,,,AMNE08.jpg,AMSA20.jpg,AMNE05.jpg,AMSA08.jpg,AMSA20.jpg,MS,2,num_6,32,num_8,2.56664858758,,,2017_Apr_14_1209,60.003598958,FEMA4ImagesEEG,001,100173,
AFNE01.JPG,AFNE01.JPG,AFNE01.JPG,AFNE01.JPG,AFNE01.JPG,AFNE01.JPG,,,,,,,,,,,,,,,,,,,,,1,2,12,3,,,AMSA14.jpg,AMNE16.jpg,AMNE09.jpg,AMSA12.jpg,AMSA14.jpg,MS,2,num_8,16,num_8,0.833425118588,,,2017_Apr_14_1209,60.003598958,FEMA4ImagesEEG,001,100173,
AFNE01.JPG,AFNE01.JPG,AFNE01.JPG,AFNE01.JPG,AFNE01.JPG,AFNE01.JPG,,,,,,,,,,,,,,,,,,,,,1,3,13,9,,,AMNE02.jpg,AMNE14.jpg,AMSA08.jpg,AMSA09.jpg,AMSA09.jpg,MS,2,num_4,16,num_4,1.4167874516,,,2017_Apr_14_1209,60.003598958,FEMA4ImagesEEG,001,100173,
AFNE01.JPG,AFNE01.JPG,AFNE01.JPG,AFNE01.JPG,AFNE01.JPG,AFNE01.JPG,,,,,,,,,,,,,,,,,,,,,1,4,14,2,,,AMSA16.jpg,AMNE18.jpg,AMSA18.jpg,AMNE01.jpg,AMNE01.jpg,MN,1,num_4,16,num_4,0.850109035615,,,2017_Apr_14_1209,60.003598958,FEMA4ImagesEEG,001,100173,
AFNE01.JPG,AFNE01.JPG,AFNE01.JPG,AFNE01.JPG,AFNE01.JPG,AFNE01.JPG,,,,,,,,,,,,,,,,,,,,,1,5,15,8,,,AMSA13.jpg,AMNE01.jpg,AMSA10.jpg,AMNE12.jpg,AMSA13.jpg,MS,2,num_8,16,num_8,0.950110863429,,,2017_Apr_14_1209,60.003598958,FEMA4ImagesEEG,001,100173,
AFNE01.JPG,AFNE01.JPG,AFNE01.JPG,AFNE01.JPG,AFNE01.JPG,AFNE01.JPG,,,,,,,,,,,,,,,,,,,,,1,6,16,5,,,AMNE12.jpg,AMSA16.jpg,AMNE19.jpg,AMSA08.jpg,AMSA16.jpg,MS,2,num_6,32,num_2,2.59997953707,,,2017_Apr_14_1209,60.003598958,FEMA4ImagesEEG,001,100173,
AFNE01.JPG,AFNE01.JPG,AFNE01.JPG,AFNE01.JPG,AFNE01.JPG,AFNE01.JPG,,,,,,,,,,,,,,,,,,,,,1,7,17,4,,,AMNE07.jpg,AMSA10.jpg,AMSA03.jpg,AMNE14.jpg,AMSA03.jpg,MS,2,num_2,32,num_8,4.5998454676,,,2017_Apr_14_1209,60.003598958,FEMA4ImagesEEG,001,100173,
AFNE01.JPG,AFNE01.JPG,AFNE01.JPG,AFNE01.JPG,AFNE01.JPG,AFNE01.JPG,,,,,,,,,,,,,,,,,,,,,1,8,18,7,,,AMNE12.jpg,AMNE06.jpg,AMSA07.jpg,AMSA01.jpg,AMNE12.jpg,MN,1,num_8,16,num_8,0.75018354319,,,2017_Apr_14_1209,60.003598958,FEMA4ImagesEEG,001,100173,
AFNE01.JPG,AFNE01.JPG,AFNE01.JPG,AFNE01.JPG,AFNE01.JPG,AFNE01.JPG,,,,,,,,,,,,,,,,,,,,,1,9,19,1,,,AMSA10.jpg,AMSA14.jpg,AMNE19.jpg,AMNE17.jpg,AMSA10.jpg,MS,2,num_8,16,num_8,0.866769859567,,,2017_Apr_14_1209,60.003598958,FEMA4ImagesEEG,001,100173,
AFNE01.JPG,AFNE01.JPG,AFNE01.JPG,AFNE01.JPG,AFNE01.JPG,AFNE01.JPG,,,,,,,,,,,,,,,,,,,,,2,0,20,4,,,AMSA17.jpg,AMNE15.jpg,AMSA01.jpg,AMNE10.jpg,AMSA17.jpg,MS,2,num_8,16,num_8,0.700056417845,,,2017_Apr_14_1209,60.003598958,FEMA4ImagesEEG,001,100173,
AFNE01.JPG,AFNE01.JPG,AFNE01.JPG,AFNE01.JPG,AFNE01.JPG,AFNE01.JPG,,,,,,,,,,,,,,,,,,,,,2,1,21,5,,,AMNE06.jpg,AMSA17.jpg,AMSA20.jpg,AMNE10.jpg,AMNE10.jpg,MN,1,num_4,16,num_4,0.950093864463,,,2017_Apr_14_1209,60.003598958,FEMA4ImagesEEG,001,100173,
AFNE01.JPG,AFNE01.JPG,AFNE01.JPG,AFNE01.JPG,AFNE01.JPG,AFNE01.JPG,,,,,,,,,,,,,,,,,,,,,2,2,22,6,,,AMSA07.jpg,AMNE20.jpg,AMNE06.jpg,AMSA19.jpg,AMSA07.jpg,MS,2,num_8,16,num_8,1.11675310042,,,2017_Apr_14_1209,60.003598958,FEMA4ImagesEEG,001,100173,
AFNE01.JPG,AFNE01.JPG,AFNE01.JPG,AFNE01.JPG,AFNE01.JPG,AFNE01.JPG,,,,,,,,,,,,,,,,,,,,,2,3,23,0,,,AMNE16.jpg,AMSA20.jpg,AMSA08.jpg,AMNE18.jpg,AMNE18.jpg,MN,1,num_4,32,num_2,2.26664727228,,,2017_Apr_14_1209,60.003598958,FEMA4ImagesEEG,001,100173,
AFNE01.JPG,AFNE01.JPG,AFNE01.JPG,AFNE01.JPG,AFNE01.JPG,AFNE01.JPG,,,,,,,,,,,,,,,,,,,,,2,4,24,3,,,AMNE01.jpg,AMSA10.jpg,AMNE18.jpg,AMSA12.jpg,AMSA10.jpg,MS,2,num_6,32,num_4,1.31676605856,,,2017_Apr_14_1209,60.003598958,FEMA4ImagesEEG,001,100173,
AFNE01.JPG,AFNE01.JPG,AFNE01.JPG,AFNE01.JPG,AFNE01.JPG,AFNE01.JPG,,,,,,,,,,,,,,,,,,,,,2,5,25,2,,,AMNE07.jpg,AMNE06.jpg,AMSA03.jpg,AMSA06.jpg,AMSA03.jpg,MS,2,num_2,16,num_2,1.40006921533,,,2017_Apr_14_1209,60.003598958,FEMA4ImagesEEG,001,100173,
AFNE01.JPG,AFNE01.JPG,AFNE01.JPG,AFNE01.JPG,AFNE01.JPG,AFNE01.JPG,,,,,,,,,,,,,,,,,,,,,2,6,26,9,,,AMNE11.jpg,AMSA09.jpg,AMSA19.jpg,AMNE17.jpg,AMSA19.jpg,MS,2,num_2,32,num_6,1.70009747287,,,2017_Apr_14_1209,60.003598958,FEMA4ImagesEEG,001,100173,
AFNE01.JPG,AFNE01.JPG,AFNE01.JPG,AFNE01.JPG,AFNE01.JPG,AFNE01.JPG,,,,,,,,,,,,,,,,,,,,,2,7,27,7,,,AMSA14.jpg,AMNE03.jpg,AMSA08.jpg,AMNE15.jpg,AMNE03.jpg,MN,1,num_6,32,num_2,1.46673688712,,,2017_Apr_14_1209,60.003598958,FEMA4ImagesEEG,001,100173,
AFNE01.JPG,AFNE01.JPG,AFNE01.JPG,AFNE01.JPG,AFNE01.JPG,AFNE01.JPG,,,,,,,,,,,,,,,,,,,,,2,8,28,1,,,AMNE08.jpg,AMNE13.jpg,AMSA15.jpg,AMSA17.jpg,AMNE13.jpg,MN,1,num_6,16,num_6,1.11675983621,,,2017_Apr_14_1209,60.003598958,FEMA4ImagesEEG,001,100173,
AFNE01.JPG,AFNE01.JPG,AFNE01.JPG,AFNE01.JPG,AFNE01.JPG,AFNE01.JPG,,,,,,,,,,,,,,,,,,,,,2,9,29,8,,,AMSA06.jpg,AMSA01.jpg,AMNE13.jpg,AMNE06.jpg,AMNE13.jpg,MN,1,num_2,32,num_8,0.983714441303,,,2017_Apr_14_1209,60.003598958,FEMA4ImagesEEG,001,100173,
AFNE01.JPG,AFNE01.JPG,AFNE01.JPG,AFNE01.JPG,AFNE01.JPG,AFNE01.JPG,,,,,,,,,,,,,,,,,,,,,3,0,30,7,,,AMNE17.jpg,AMSA13.jpg,AMSA05.jpg,AMNE20.jpg,AMSA13.jpg,MS,2,num_6,32,num_8,1.55005319463,,,2017_Apr_14_1209,60.003598958,FEMA4ImagesEEG,001,100173,
AFNE01.JPG,AFNE01.JPG,AFNE01.JPG,AFNE01.JPG,AFNE01.JPG,AFNE01.JPG,,,,,,,,,,,,,,,,,,,,,3,1,31,4,,,AMNE20.jpg,AMSA10.jpg,AMNE01.jpg,AMSA06.jpg,AMNE01.jpg,MN,1,num_2,32,num_8,2.80000789044,,,2017_Apr_14_1209,60.003598958,FEMA4ImagesEEG,001,100173,
AFNE01.JPG,AFNE01.JPG,AFNE01.JPG,AFNE01.JPG,AFNE01.JPG,AFNE01.JPG,,,,,,,,,,,,,,,,,,,,,3,2,32,2,,,AMSA10.jpg,AMNE02.jpg,AMSA06.jpg,AMNE17.jpg,AMSA10.jpg,MS,2,num_8,32,num_2,1.88338674186,,,2017_Apr_14_1209,60.003598958,FEMA4ImagesEEG,001,100173,
AFNE01.JPG,AFNE01.JPG,AFNE01.JPG,AFNE01.JPG,AFNE01.JPG,AFNE01.JPG,,,,,,,,,,,,,,,,,,,,,3,3,33,8,,,AMNE14.jpg,AMSA20.jpg,AMNE19.jpg,AMSA18.jpg,AMSA18.jpg,MS,2,num_4,16,num_4,0.933457096107,,,2017_Apr_14_1209,60.003598958,FEMA4ImagesEEG,001,100173,
AFNE01.JPG,AFNE01.JPG,AFNE01.JPG,AFNE01.JPG,AFNE01.JPG,AFNE01.JPG,,,,,,,,,,,,,,,,,,,,,3,4,34,5,,,AMNE20.jpg,AMSA05.jpg,AMNE07.jpg,AMSA11.jpg,AMNE07.jpg,MN,1,num_2,32,num_8,1.06675587501,,,2017_Apr_14_1209,60.003598958,FEMA4ImagesEEG,001,100173,
AFNE01.JPG,AFNE01.JPG,AFNE01.JPG,AFNE01.JPG,AFNE01.JPG,AFNE01.JPG,,,,,,,,,,,,,,,,,,,,,3,5,35,9,,,AMSA06.jpg,AMSA08.jpg,AMNE08.jpg,AMNE07.jpg,AMNE08.jpg,MN,1,num_2,32,num_8,0.96670433227,,,2017_Apr_14_1209,60.003598958,FEMA4ImagesEEG,001,100173,
AFNE01.JPG,AFNE01.JPG,AFNE01.JPG,AFNE01.JPG,AFNE01.JPG,AFNE01.JPG,,,,,,,,,,,,,,,,,,,,,3,6,36,3,,,AMNE10.jpg,AMNE04.jpg,AMSA20.jpg,AMSA01.jpg,AMNE04.jpg,MN,1,num_6,16,num_6,2.3499825038,,,2017_Apr_14_1209,60.003598958,FEMA4ImagesEEG,001,100173,
AFNE01.JPG,AFNE01.JPG,AFNE01.JPG,AFNE01.JPG,AFNE01.JPG,AFNE01.JPG,,,,,,,,,,,,,,,,,,,,,3,7,37,6,,,AMSA18.jpg,AMNE05.jpg,AMNE06.jpg,AMSA10.jpg,AMNE05.jpg,MN,1,num_6,16,num_6,1.98337958939,,,2017_Apr_14_1209,60.003598958,FEMA4ImagesEEG,001,100173,
AFNE01.JPG,AFNE01.JPG,AFNE01.JPG,AFNE01.JPG,AFNE01.JPG,AFNE01.JPG,,,,,,,,,,,,,,,,,,,,,3,8,38,1,,,AMSA13.jpg,AMSA20.jpg,AMNE01.jpg,AMNE03.jpg,AMSA13.jpg,MS,2,num_8,16,num_8,1.25010704715,,,2017_Apr_14_1209,60.003598958,FEMA4ImagesEEG,001,100173,
AFNE01.JPG,AFNE01.JPG,AFNE01.JPG,AFNE01.JPG,AFNE01.JPG,AFNE01.JPG,,,,,,,,,,,,,,,,,,,,,3,9,39,0,,,AMNE13.jpg,AMSA15.jpg,AMSA01.jpg,AMNE03.jpg,AMNE03.jpg,MN,1,num_4,32,num_8,2.06668146327,,,2017_Apr_14_1209,60.003598958,FEMA4ImagesEEG,001,100173,
AFNE01.JPG,AFNE01.JPG,AFNE01.JPG,AFNE01.JPG,AFNE01.JPG,AFNE01.JPG,,,,,,,,,,,,,,,,,,,,,4,0,40,2,,,AMNE04.jpg,AMSA02.jpg,AMSA06.jpg,AMNE11.jpg,AMNE04.jpg,MN,1,num_8,32,num_6,1.06673566857,,,2017_Apr_14_1209,60.003598958,FEMA4ImagesEEG,001,100173,
AFNE01.JPG,AFNE01.JPG,AFNE01.JPG,AFNE01.JPG,AFNE01.JPG,AFNE01.JPG,,,,,,,,,,,,,,,,,,,,,4,1,41,4,,,AMSA09.jpg,AMNE19.jpg,AMSA19.jpg,AMNE15.jpg,AMNE15.jpg,MN,1,num_4,16,num_4,1.08344171662,,,2017_Apr_14_1209,60.003598958,FEMA4ImagesEEG,001,100173,
