IPosition2,IPosition3,IPosition1,IPosition6,IPosition4,IPosition5,TrialsF1.thisRepN,TrialsF1.thisTrialN,TrialsF1.thisN,TrialsF1.thisIndex,TrialsM1.thisRepN,TrialsM1.thisTrialN,TrialsM1.thisN,TrialsM1.thisIndex,TrialsF2.thisRepN,TrialsF2.thisTrialN,TrialsF2.thisN,TrialsF2.thisIndex,TrialsM2.thisRepN,TrialsM2.thisTrialN,TrialsM2.thisN,TrialsM2.thisIndex,TrialsF3.thisRepN,TrialsF3.thisTrialN,TrialsF3.thisN,TrialsF3.thisIndex,TrialsM3.thisRepN,TrialsM3.thisTrialN,TrialsM3.thisN,TrialsM3.thisIndex,InstrKey_resp.keys,InstrKey_resp.rt,Image0 _Position,Image1 _Position,Image2 _Position,Image3 _Position,Center_image,condition,code,correct_answer,accuracy,Key_Resp.keys,Key_Resp.rt,BreakKey_resp.keys,BreakKey_resp.rt,date,frameRate,expName,session,participant,
,,,,,,,,,,,,,,,,,,,,,,,,,,,,,,space,95.6764153359,,,,,,,,,,,,,,2017_Apr_11_1143,59.9999038318,FEMA4ImagesEEG,001,100163,
AMNE22.JPG,AMSA24.JPG,AMSA22.JPG,AMNE25.JPG,AMNE24.JPG,AMSA25.JPG,0,0,0,7,,,,,,,,,,,,,,,,,,,,,,,AFNE19.jpg,AFSA18.jpg,AFSA15.jpg,AFNE14.jpg,AFSA18.jpg,FS,4,num_6,16,num_6,1.66669275332,,,2017_Apr_11_1143,59.9999038318,FEMA4ImagesEEG,001,100163,
AMNE23.JPG,AMNE24.JPG,AMNE22.JPG,AMSA24.JPG,AMSA22.JPG,AMSA23.JPG,0,1,1,9,,,,,,,,,,,,,,,,,,,,,,,AFNE04.jpg,AFSA03.jpg,AFNE03.jpg,AFSA11.jpg,AFNE04.jpg,FN,3,num_8,16,num_8,1.15379917761,,,2017_Apr_11_1143,59.9999038318,FEMA4ImagesEEG,001,100163,
AFNE22.JPG,AFSA24.JPG,AFSA22.JPG,AFNE25.JPG,AFNE24.JPG,AFSA25.JPG,0,2,2,6,,,,,,,,,,,,,,,,,,,,,,,AFNE10.jpg,AFSA02.jpg,AFNE01.jpg,AFSA13.jpg,AFSA13.jpg,FS,4,num_4,16,num_4,0.950124013703,,,2017_Apr_11_1143,59.9999038318,FEMA4ImagesEEG,001,100163,
AFSA25.JPG,AFNE24.JPG,AFSA24.JPG,AFNE21.JPG,AFSA21.JPG,AFNE25.JPG,0,3,3,2,,,,,,,,,,,,,,,,,,,,,,,AFSA13.jpg,AFNE03.jpg,AFNE07.jpg,AFSA17.jpg,AFSA13.jpg,FS,4,num_8,16,num_8,1.30005712388,,,2017_Apr_11_1143,59.9999038318,FEMA4ImagesEEG,001,100163,
AFSA21.JPG,AFNE23.JPG,AFNE21.JPG,AFSA25.JPG,AFNE25.JPG,AFSA23.JPG,0,4,4,4,,,,,,,,,,,,,,,,,,,,,,,AFSA12.jpg,AFNE05.jpg,AFNE09.jpg,AFSA15.jpg,AFSA15.jpg,FS,4,num_4,16,num_4,1.01660501491,,,2017_Apr_11_1143,59.9999038318,FEMA4ImagesEEG,001,100163,
AFNE23.JPG,AFNE24.JPG,AFNE22.JPG,AFSA24.JPG,AFSA22.JPG,AFSA23.JPG,0,5,5,8,,,,,,,,,,,,,,,,,,,,,,,AFSA02.jpg,AFNE20.jpg,AFNE14.jpg,AFSA09.jpg,AFSA09.jpg,FS,4,num_4,16,num_4,0.566775921267,,,2017_Apr_11_1143,59.9999038318,FEMA4ImagesEEG,001,100163,
AMSA21.JPG,AMNE23.JPG,AMNE21.JPG,AMSA25.JPG,AMNE25.JPG,AMSA23.JPG,0,6,6,5,,,,,,,,,,,,,,,,,,,,,,,AFNE09.jpg,AFSA15.jpg,AFNE04.jpg,AFSA11.jpg,AFSA11.jpg,FS,4,num_4,16,num_4,1.86669159867,,,2017_Apr_11_1143,59.9999038318,FEMA4ImagesEEG,001,100163,
AMSA21.JPG,AMNE22.JPG,AMNE21.JPG,AMSA23.JPG,AMSA22.JPG,AMNE23.JPG,0,7,7,1,,,,,,,,,,,,,,,,,,,,,,,AFNE07.jpg,AFNE15.jpg,AFSA20.jpg,AFSA09.jpg,AFNE07.jpg,FN,3,num_8,16,num_8,0.749239927158,,,2017_Apr_11_1143,59.9999038318,FEMA4ImagesEEG,001,100163,
AFSA21.JPG,AFNE22.JPG,AFNE21.JPG,AFSA23.JPG,AFSA22.JPG,AFNE23.JPG,0,8,8,0,,,,,,,,,,,,,,,,,,,,,,,AFSA02.jpg,AFNE11.jpg,AFSA15.jpg,AFNE18.jpg,AFNE11.jpg,FN,3,num_6,16,num_6,1.300136026,,,2017_Apr_11_1143,59.9999038318,FEMA4ImagesEEG,001,100163,
AMSA25.JPG,AMNE24.JPG,AMSA24.JPG,AMNE26.JPG,AMSA21.JPG,AMNE25.JPG,0,9,9,3,,,,,,,,,,,,,,,,,,,,,,,AFNE13.jpg,AFNE06.jpg,AFSA17.jpg,AFSA12.jpg,AFNE06.jpg,FN,3,num_6,16,num_6,1.08343658457,,,2017_Apr_11_1143,59.9999038318,FEMA4ImagesEEG,001,100163,
AMSA25.JPG,AMNE24.JPG,AMSA24.JPG,AMNE26.JPG,AMSA21.JPG,AMNE25.JPG,,,,,0,0,0,3,,,,,,,,,,,,,,,,,,,AMNE10.jpg,AMNE02.jpg,AMSA12.jpg,AMSA18.jpg,AMNE02.jpg,MN,1,num_6,16,num_6,1.06644315412,,,2017_Apr_11_1143,59.9999038318,FEMA4ImagesEEG,001,100163,
AMSA21.JPG,AMNE23.JPG,AMNE21.JPG,AMSA25.JPG,AMNE25.JPG,AMSA23.JPG,,,,,0,1,1,5,,,,,,,,,,,,,,,,,,,AMNE11.jpg,AMSA13.jpg,AMNE15.jpg,AMSA16.jpg,AMSA13.jpg,MS,2,num_6,32,num_8,0.750169110019,,,2017_Apr_11_1143,59.9999038318,FEMA4ImagesEEG,001,100163,
AFSA21.JPG,AFNE22.JPG,AFNE21.JPG,AFSA23.JPG,AFSA22.JPG,AFNE23.JPG,,,,,0,2,2,0,,,,,,,,,,,,,,,,,,,AMNE08.jpg,AMSA11.jpg,AMSA15.jpg,AMNE04.jpg,AMNE08.jpg,MN,1,num_8,32,num_6,1.41674222797,,,2017_Apr_11_1143,59.9999038318,FEMA4ImagesEEG,001,100163,
AFNE22.JPG,AFSA24.JPG,AFSA22.JPG,AFNE25.JPG,AFNE24.JPG,AFSA25.JPG,,,,,0,3,3,6,,,,,,,,,,,,,,,,,,,AMSA11.jpg,AMNE01.jpg,AMSA16.jpg,AMNE04.jpg,AMNE04.jpg,MN,1,num_4,16,num_4,1.36702051759,,,2017_Apr_11_1143,59.9999038318,FEMA4ImagesEEG,001,100163,
AFSA21.JPG,AFNE23.JPG,AFNE21.JPG,AFSA25.JPG,AFNE25.JPG,AFSA23.JPG,,,,,0,4,4,4,,,,,,,,,,,,,,,,,,,AMSA02.jpg,AMNE16.jpg,AMNE05.jpg,AMSA14.jpg,AMSA02.jpg,MS,2,num_8,16,num_8,1.00011257967,,,2017_Apr_11_1143,59.9999038318,FEMA4ImagesEEG,001,100163,
AFNE23.JPG,AFNE24.JPG,AFNE22.JPG,AFSA24.JPG,AFSA22.JPG,AFSA23.JPG,,,,,0,5,5,8,,,,,,,,,,,,,,,,,,,AMSA20.jpg,AMNE15.jpg,AMNE18.jpg,AMSA02.jpg,AMSA02.jpg,MS,2,num_4,32,num_8,1.56676116725,,,2017_Apr_11_1143,59.9999038318,FEMA4ImagesEEG,001,100163,
AFSA25.JPG,AFNE24.JPG,AFSA24.JPG,AFNE21.JPG,AFSA21.JPG,AFNE25.JPG,,,,,0,6,6,2,,,,,,,,,,,,,,,,,,,AMSA01.jpg,AMNE02.jpg,AMSA06.jpg,AMNE11.jpg,AMSA01.jpg,MS,2,num_8,32,num_6,0.96684353333,,,2017_Apr_11_1143,59.9999038318,FEMA4ImagesEEG,001,100163,
AMNE22.JPG,AMSA24.JPG,AMSA22.JPG,AMNE25.JPG,AMNE24.JPG,AMSA25.JPG,,,,,0,7,7,7,,,,,,,,,,,,,,,,,,,AMSA04.jpg,AMSA02.jpg,AMNE01.jpg,AMNE11.jpg,AMNE11.jpg,MN,1,num_4,16,num_4,0.800166335423,,,2017_Apr_11_1143,59.9999038318,FEMA4ImagesEEG,001,100163,
AMSA21.JPG,AMNE22.JPG,AMNE21.JPG,AMSA23.JPG,AMSA22.JPG,AMNE23.JPG,,,,,0,8,8,1,,,,,,,,,,,,,,,,,,,AMSA03.jpg,AMNE05.jpg,AMNE10.jpg,AMSA19.jpg,AMNE05.jpg,MN,1,num_6,16,num_6,1.20010918006,,,2017_Apr_11_1143,59.9999038318,FEMA4ImagesEEG,001,100163,
AMNE23.JPG,AMNE24.JPG,AMNE22.JPG,AMSA24.JPG,AMSA22.JPG,AMSA23.JPG,,,,,0,9,9,9,,,,,,,,,,,,,,,,,,,AMNE01.jpg,AMSA01.jpg,AMSA12.jpg,AMNE05.jpg,AMSA01.jpg,MS,2,num_6,16,num_6,1.03347720625,,,2017_Apr_11_1143,59.9999038318,FEMA4ImagesEEG,001,100163,
AMSA21.JPG,AMNE22.JPG,AMNE21.JPG,AMSA23.JPG,AMSA22.JPG,AMNE23.JPG,,,,,,,,,0,0,0,1,,,,,,,,,,,,,,,AFSA04.jpg,AFNE10.jpg,AFNE11.jpg,AFSA03.jpg,AFNE10.jpg,FN,3,num_6,16,num_6,0.716786842793,,,2017_Apr_11_1143,59.9999038318,FEMA4ImagesEEG,001,100163,
AMNE22.JPG,AMSA24.JPG,AMSA22.JPG,AMNE25.JPG,AMNE24.JPG,AMSA25.JPG,,,,,,,,,0,1,1,7,,,,,,,,,,,,,,,AFNE03.jpg,AFNE06.jpg,AFSA11.jpg,AFSA15.jpg,AFSA11.jpg,FS,4,num_2,16,num_2,2.38335129991,,,2017_Apr_11_1143,59.9999038318,FEMA4ImagesEEG,001,100163,
AFSA21.JPG,AFNE22.JPG,AFNE21.JPG,AFSA23.JPG,AFSA22.JPG,AFNE23.JPG,,,,,,,,,0,2,2,0,,,,,,,,,,,,,,,AFSA10.jpg,AFNE16.jpg,AFSA20.jpg,AFNE20.jpg,AFNE16.jpg,FN,3,num_6,32,num_4,1.01683498546,,,2017_Apr_11_1143,59.9999038318,FEMA4ImagesEEG,001,100163,
AFNE22.JPG,AFSA24.JPG,AFSA22.JPG,AFNE25.JPG,AFNE24.JPG,AFSA25.JPG,,,,,,,,,0,3,3,6,,,,,,,,,,,,,,,AFSA10.jpg,AFSA18.jpg,AFNE10.jpg,AFNE08.jpg,AFSA18.jpg,FS,4,num_6,16,num_6,0.967156254686,,,2017_Apr_11_1143,59.9999038318,FEMA4ImagesEEG,001,100163,
AMSA25.JPG,AMNE24.JPG,AMSA24.JPG,AMNE26.JPG,AMSA21.JPG,AMNE25.JPG,,,,,,,,,0,4,4,3,,,,,,,,,,,,,,,AFSA18.jpg,AFSA08.jpg,AFNE10.jpg,AFNE13.jpg,AFNE13.jpg,FN,3,num_4,16,num_4,1.08345615026,,,2017_Apr_11_1143,59.9999038318,FEMA4ImagesEEG,001,100163,
AFNE23.JPG,AFNE24.JPG,AFNE22.JPG,AFSA24.JPG,AFSA22.JPG,AFSA23.JPG,,,,,,,,,0,5,5,8,,,,,,,,,,,,,,,AFNE18.jpg,AFSA19.jpg,AFSA20.jpg,AFNE17.jpg,AFNE17.jpg,FN,3,num_4,16,num_4,1.58342070831,,,2017_Apr_11_1143,59.9999038318,FEMA4ImagesEEG,001,100163,
AFSA25.JPG,AFNE24.JPG,AFSA24.JPG,AFNE21.JPG,AFSA21.JPG,AFNE25.JPG,,,,,,,,,0,6,6,2,,,,,,,,,,,,,,,AFNE14.jpg,AFSA07.jpg,AFNE13.jpg,AFSA19.jpg,AFSA07.jpg,FS,4,num_6,32,num_4,1.16692961985,,,2017_Apr_11_1143,59.9999038318,FEMA4ImagesEEG,001,100163,
AMSA21.JPG,AMNE23.JPG,AMNE21.JPG,AMSA25.JPG,AMNE25.JPG,AMSA23.JPG,,,,,,,,,0,7,7,5,,,,,,,,,,,,,,,AFNE01.jpg,AFSA04.jpg,AFSA06.jpg,AFNE18.jpg,AFNE18.jpg,FN,3,num_4,32,num_8,1.10016412241,,,2017_Apr_11_1143,59.9999038318,FEMA4ImagesEEG,001,100163,
AMNE23.JPG,AMNE24.JPG,AMNE22.JPG,AMSA24.JPG,AMSA22.JPG,AMSA23.JPG,,,,,,,,,0,8,8,9,,,,,,,,,,,,,,,AFNE01.jpg,AFSA11.jpg,AFSA20.jpg,AFNE20.jpg,AFNE20.jpg,FN,3,num_4,32,num_8,1.13344054576,,,2017_Apr_11_1143,59.9999038318,FEMA4ImagesEEG,001,100163,
AFSA21.JPG,AFNE23.JPG,AFNE21.JPG,AFSA25.JPG,AFNE25.JPG,AFSA23.JPG,,,,,,,,,0,9,9,4,,,,,,,,,,,,,,,AFNE05.jpg,AFSA11.jpg,AFSA04.jpg,AFNE19.jpg,AFSA11.jpg,FS,4,num_6,16,num_6,0.550146850757,,,2017_Apr_11_1143,59.9999038318,FEMA4ImagesEEG,001,100163,
AFSA21.JPG,AFNE22.JPG,AFNE21.JPG,AFSA23.JPG,AFSA22.JPG,AFNE23.JPG,,,,,,,,,,,,,0,0,0,0,,,,,,,,,,,AMSA03.jpg,AMNE14.jpg,AMNE19.jpg,AMSA20.jpg,AMSA03.jpg,MS,2,num_8,16,num_8,0.716797426809,,,2017_Apr_11_1143,59.9999038318,FEMA4ImagesEEG,001,100163,
AMSA21.JPG,AMNE22.JPG,AMNE21.JPG,AMSA23.JPG,AMSA22.JPG,AMNE23.JPG,,,,,,,,,,,,,0,1,1,1,,,,,,,,,,,AMSA18.jpg,AMNE04.jpg,AMNE05.jpg,AMSA02.jpg,AMNE04.jpg,MN,1,num_6,16,num_6,1.08343786746,,,2017_Apr_11_1143,59.9999038318,FEMA4ImagesEEG,001,100163,
AMNE22.JPG,AMSA24.JPG,AMSA22.JPG,AMNE25.JPG,AMNE24.JPG,AMSA25.JPG,,,,,,,,,,,,,0,2,2,7,,,,,,,,,,,AMNE03.jpg,AMSA10.jpg,AMSA01.jpg,AMNE18.jpg,AMNE03.jpg,MN,1,num_8,32,num_6,1.28342805337,,,2017_Apr_11_1143,59.9999038318,FEMA4ImagesEEG,001,100163,
AFNE23.JPG,AFNE24.JPG,AFNE22.JPG,AFSA24.JPG,AFSA22.JPG,AFSA23.JPG,,,,,,,,,,,,,0,3,3,8,,,,,,,,,,,AMNE06.jpg,AMSA14.jpg,AMNE13.jpg,AMSA09.jpg,AMSA14.jpg,MS,2,num_6,16,num_6,0.500129418448,,,2017_Apr_11_1143,59.9999038318,FEMA4ImagesEEG,001,100163,
AMSA25.JPG,AMNE24.JPG,AMSA24.JPG,AMNE26.JPG,AMSA21.JPG,AMNE25.JPG,,,,,,,,,,,,,0,4,4,3,,,,,,,,,,,AMSA12.jpg,AMSA19.jpg,AMNE07.jpg,AMNE09.jpg,AMSA19.jpg,MS,2,num_6,32,num_2,1.15022325097,,,2017_Apr_11_1143,59.9999038318,FEMA4ImagesEEG,001,100163,
AFNE22.JPG,AFSA24.JPG,AFSA22.JPG,AFNE25.JPG,AFNE24.JPG,AFSA25.JPG,,,,,,,,,,,,,0,5,5,6,,,,,,,,,,,AMNE14.jpg,AMNE08.jpg,AMSA17.jpg,AMSA16.jpg,AMSA17.jpg,MS,2,num_2,32,num_4,1.65009511542,,,2017_Apr_11_1143,59.9999038318,FEMA4ImagesEEG,001,100163,
AMSA21.JPG,AMNE23.JPG,AMNE21.JPG,AMSA25.JPG,AMNE25.JPG,AMSA23.JPG,,,,,,,,,,,,,0,6,6,5,,,,,,,,,,,AMSA18.jpg,AMNE13.jpg,AMNE17.jpg,AMSA11.jpg,AMNE13.jpg,MN,1,num_6,32,num_8,1.05006682593,,,2017_Apr_11_1143,59.9999038318,FEMA4ImagesEEG,001,100163,
AFSA25.JPG,AFNE24.JPG,AFSA24.JPG,AFNE21.JPG,AFSA21.JPG,AFNE25.JPG,,,,,,,,,,,,,0,7,7,2,,,,,,,,,,,AMSA01.jpg,AMNE15.jpg,AMNE16.jpg,AMSA16.jpg,AMSA16.jpg,MS,2,num_4,32,num_8,1.13355120085,,,2017_Apr_11_1143,59.9999038318,FEMA4ImagesEEG,001,100163,
AFSA21.JPG,AFNE23.JPG,AFNE21.JPG,AFSA25.JPG,AFNE25.JPG,AFSA23.JPG,,,,,,,,,,,,,0,8,8,4,,,,,,,,,,,AMNE16.jpg,AMSA07.jpg,AMSA11.jpg,AMNE18.jpg,AMNE18.jpg,MN,1,num_4,16,num_4,0.800183655694,,,2017_Apr_11_1143,59.9999038318,FEMA4ImagesEEG,001,100163,
AMNE23.JPG,AMNE24.JPG,AMNE22.JPG,AMSA24.JPG,AMSA22.JPG,AMSA23.JPG,,,,,,,,,,,,,0,9,9,9,,,,,,,,,,,AMNE02.jpg,AMSA11.jpg,AMSA18.jpg,AMNE05.jpg,AMNE02.jpg,MN,1,num_8,16,num_8,1.08345037652,,,2017_Apr_11_1143,59.9999038318,FEMA4ImagesEEG,001,100163,
AFSA21.JPG,AFNE23.JPG,AFNE21.JPG,AFSA25.JPG,AFNE25.JPG,AFSA23.JPG,,,,,,,,,,,,,,,,,0,0,0,4,,,,,,,AFNE15.jpg,AFSA07.jpg,AFSA16.jpg,AFNE18.jpg,AFSA07.jpg,FS,4,num_6,16,num_6,0.616658322047,,,2017_Apr_11_1143,59.9999038318,FEMA4ImagesEEG,001,100163,
AFNE22.JPG,AFSA24.JPG,AFSA22.JPG,AFNE25.JPG,AFNE24.JPG,AFSA25.JPG,,,,,,,,,,,,,,,,,0,1,1,6,,,,,,,AFSA11.jpg,AFNE12.jpg,AFSA07.jpg,AFNE06.jpg,AFNE06.jpg,FN,3,num_4,32,num_6,1.13348961901,,,2017_Apr_11_1143,59.9999038318,FEMA4ImagesEEG,001,100163,
AMSA21.JPG,AMNE22.JPG,AMNE21.JPG,AMSA23.JPG,AMSA22.JPG,AMNE23.JPG,,,,,,,,,,,,,,,,,0,2,2,1,,,,,,,AFNE03.jpg,AFNE20.jpg,AFSA17.jpg,AFSA06.jpg,AFSA06.jpg,FS,4,num_4,32,num_8,0.833457833622,,,2017_Apr_11_1143,59.9999038318,FEMA4ImagesEEG,001,100163,
AMNE23.JPG,AMNE24.JPG,AMNE22.JPG,AMSA24.JPG,AMSA22.JPG,AMSA23.JPG,,,,,,,,,,,,,,,,,0,3,3,9,,,,,,,AFSA05.jpg,AFNE14.jpg,AFSA08.jpg,AFNE09.jpg,AFSA05.jpg,FS,4,num_8,32,num_2,1.46661436511,,,2017_Apr_11_1143,59.9999038318,FEMA4ImagesEEG,001,100163,
AMNE22.JPG,AMSA24.JPG,AMSA22.JPG,AMNE25.JPG,AMNE24.JPG,AMSA25.JPG,,,,,,,,,,,,,,,,,0,4,4,7,,,,,,,AFNE12.jpg,AFSA07.jpg,AFSA18.jpg,AFNE03.jpg,AFSA18.jpg,FS,4,num_2,32,num_6,1.18338196306,,,2017_Apr_11_1143,59.9999038318,FEMA4ImagesEEG,001,100163,
AMSA21.JPG,AMNE23.JPG,AMNE21.JPG,AMSA25.JPG,AMNE25.JPG,AMSA23.JPG,,,,,,,,,,,,,,,,,0,5,5,5,,,,,,,AFNE17.jpg,AFSA17.jpg,AFNE19.jpg,AFSA03.jpg,AFNE19.jpg,FN,3,num_2,32,num_8,0.766804274637,,,2017_Apr_11_1143,59.9999038318,FEMA4ImagesEEG,001,100163,
AFSA21.JPG,AFNE22.JPG,AFNE21.JPG,AFSA23.JPG,AFSA22.JPG,AFNE23.JPG,,,,,,,,,,,,,,,,,0,6,6,0,,,,,,,AFSA20.jpg,AFSA05.jpg,AFNE04.jpg,AFNE03.jpg,AFSA20.jpg,FS,4,num_8,32,num_4,0.766845329665,,,2017_Apr_11_1143,59.9999038318,FEMA4ImagesEEG,001,100163,
AFNE23.JPG,AFNE24.JPG,AFNE22.JPG,AFSA24.JPG,AFSA22.JPG,AFSA23.JPG,,,,,,,,,,,,,,,,,0,7,7,8,,,,,,,AFNE07.jpg,AFSA20.jpg,AFSA01.jpg,AFNE03.jpg,AFSA20.jpg,FS,4,num_6,16,num_6,0.666807578411,,,2017_Apr_11_1143,59.9999038318,FEMA4ImagesEEG,001,100163,
AMSA25.JPG,AMNE24.JPG,AMSA24.JPG,AMNE26.JPG,AMSA21.JPG,AMNE25.JPG,,,,,,,,,,,,,,,,,0,8,8,3,,,,,,,AFNE06.jpg,AFSA05.jpg,AFNE04.jpg,AFSA17.jpg,AFNE06.jpg,FN,3,num_8,16,num_8,0.766761936713,,,2017_Apr_11_1143,59.9999038318,FEMA4ImagesEEG,001,100163,
AFSA25.JPG,AFNE24.JPG,AFSA24.JPG,AFNE21.JPG,AFSA21.JPG,AFNE25.JPG,,,,,,,,,,,,,,,,,0,9,9,2,,,,,,,AFNE12.jpg,AFNE17.jpg,AFSA18.jpg,AFSA03.jpg,AFNE17.jpg,FN,3,num_6,16,num_6,0.800088716671,,,2017_Apr_11_1143,59.9999038318,FEMA4ImagesEEG,001,100163,
AMSA25.JPG,AMNE24.JPG,AMSA24.JPG,AMNE26.JPG,AMSA21.JPG,AMNE25.JPG,,,,,,,,,,,,,,,,,,,,,0,0,0,3,,,AMSA14.jpg,AMSA01.jpg,AMNE06.jpg,AMNE17.jpg,AMSA14.jpg,MS,2,num_8,16,num_8,0.616805220954,,,2017_Apr_11_1143,59.9999038318,FEMA4ImagesEEG,001,100163,
AFNE23.JPG,AFNE24.JPG,AFNE22.JPG,AFSA24.JPG,AFSA22.JPG,AFSA23.JPG,,,,,,,,,,,,,,,,,,,,,0,1,1,8,,,AMSA11.jpg,AMNE19.jpg,AMSA20.jpg,AMNE11.jpg,AMNE11.jpg,MN,1,num_4,32,num_6,1.08350009145,,,2017_Apr_11_1143,59.9999038318,FEMA4ImagesEEG,001,100163,
AMNE23.JPG,AMNE24.JPG,AMNE22.JPG,AMSA24.JPG,AMSA22.JPG,AMSA23.JPG,,,,,,,,,,,,,,,,,,,,,0,2,2,9,,,AMSA16.jpg,AMNE18.jpg,AMSA12.jpg,AMNE01.jpg,AMSA12.jpg,MS,2,num_2,32,num_8,0.683507532347,,,2017_Apr_11_1143,59.9999038318,FEMA4ImagesEEG,001,100163,
AFSA21.JPG,AFNE23.JPG,AFNE21.JPG,AFSA25.JPG,AFNE25.JPG,AFSA23.JPG,,,,,,,,,,,,,,,,,,,,,0,3,3,4,,,AMNE12.jpg,AMSA03.jpg,AMSA14.jpg,AMNE17.jpg,AMSA03.jpg,MS,2,num_6,32,num_2,1.06679276004,,,2017_Apr_11_1143,59.9999038318,FEMA4ImagesEEG,001,100163,
AMSA21.JPG,AMNE22.JPG,AMNE21.JPG,AMSA23.JPG,AMSA22.JPG,AMNE23.JPG,,,,,,,,,,,,,,,,,,,,,0,4,4,1,,,AMSA06.jpg,AMSA01.jpg,AMNE07.jpg,AMNE16.jpg,AMSA01.jpg,MS,2,num_6,16,num_6,0.983385362662,,,2017_Apr_11_1143,59.9999038318,FEMA4ImagesEEG,001,100163,
AMNE22.JPG,AMSA24.JPG,AMSA22.JPG,AMNE25.JPG,AMNE24.JPG,AMSA25.JPG,,,,,,,,,,,,,,,,,,,,,0,5,5,7,,,AMNE04.jpg,AMSA09.jpg,AMNE17.jpg,AMSA03.jpg,AMSA09.jpg,MS,2,num_6,16,num_6,0.983444057871,,,2017_Apr_11_1143,59.9999038318,FEMA4ImagesEEG,001,100163,
AFSA21.JPG,AFNE22.JPG,AFNE21.JPG,AFSA23.JPG,AFSA22.JPG,AFNE23.JPG,,,,,,,,,,,,,,,,,,,,,0,6,6,0,,,AMNE12.jpg,AMSA11.jpg,AMNE09.jpg,AMSA19.jpg,AMNE09.jpg,MN,1,num_2,32,num_8,0.650254523382,,,2017_Apr_11_1143,59.9999038318,FEMA4ImagesEEG,001,100163,
AFNE22.JPG,AFSA24.JPG,AFSA22.JPG,AFNE25.JPG,AFNE24.JPG,AFSA25.JPG,,,,,,,,,,,,,,,,,,,,,0,7,7,6,,,AMSA17.jpg,AMNE12.jpg,AMSA11.jpg,AMNE16.jpg,AMNE16.jpg,MN,1,num_4,32,num_8,0.616874821484,,,2017_Apr_11_1143,59.9999038318,FEMA4ImagesEEG,001,100163,
AMSA21.JPG,AMNE23.JPG,AMNE21.JPG,AMSA25.JPG,AMNE25.JPG,AMSA23.JPG,,,,,,,,,,,,,,,,,,,,,0,8,8,5,,,AMSA03.jpg,AMNE01.jpg,AMSA12.jpg,AMNE09.jpg,AMNE09.jpg,MN,1,num_4,16,num_4,1.41672426602,,,2017_Apr_11_1143,59.9999038318,FEMA4ImagesEEG,001,100163,
AFSA25.JPG,AFNE24.JPG,AFSA24.JPG,AFNE21.JPG,AFSA21.JPG,AFNE25.JPG,,,,,,,,,,,,,,,,,,,,,0,9,9,2,,,AMNE04.jpg,AMSA19.jpg,AMSA13.jpg,AMNE09.jpg,AMNE09.jpg,MN,1,num_4,16,num_4,0.950094506145,,,2017_Apr_11_1143,59.9999038318,FEMA4ImagesEEG,001,100163,
,,,,,,,,,,,,,,,,,,,,,,,,,,,,,,,,,,,,,,,,,,,space,12.6825366537,2017_Apr_11_1143,59.9999038318,FEMA4ImagesEEG,001,100163,
AFNE01.JPG,AFNE01.JPG,AFNE01.JPG,AFNE01.JPG,AFNE01.JPG,AFNE01.JPG,0,0,0,2,,,,,,,,,,,,,,,,,,,,,,,AFSA16.jpg,AFNE19.jpg,AFNE14.jpg,AFSA04.jpg,AFSA16.jpg,FS,4,num_8,32,num_6,0.983392739668,,,2017_Apr_11_1143,59.9999038318,FEMA4ImagesEEG,001,100163,
AFNE01.JPG,AFNE01.JPG,AFNE01.JPG,AFNE01.JPG,AFNE01.JPG,AFNE01.JPG,0,1,1,4,,,,,,,,,,,,,,,,,,,,,,,AFSA08.jpg,AFSA17.jpg,AFNE14.jpg,AFNE12.jpg,AFNE14.jpg,FN,3,num_2,32,num_4,0.78345515579,,,2017_Apr_11_1143,59.9999038318,FEMA4ImagesEEG,001,100163,
AFNE01.JPG,AFNE01.JPG,AFNE01.JPG,AFNE01.JPG,AFNE01.JPG,AFNE01.JPG,0,2,2,3,,,,,,,,,,,,,,,,,,,,,,,AFNE02.jpg,AFSA10.jpg,AFSA19.jpg,AFNE14.jpg,AFSA10.jpg,FS,4,num_6,16,num_6,1.08367297007,,,2017_Apr_11_1143,59.9999038318,FEMA4ImagesEEG,001,100163,
AFNE01.JPG,AFNE01.JPG,AFNE01.JPG,AFNE01.JPG,AFNE01.JPG,AFNE01.JPG,0,3,3,8,,,,,,,,,,,,,,,,,,,,,,,AFNE13.jpg,AFNE09.jpg,AFSA12.jpg,AFSA05.jpg,AFSA05.jpg,FS,4,num_4,16,num_4,0.733439006377,,,2017_Apr_11_1143,59.9999038318,FEMA4ImagesEEG,001,100163,
AFNE01.JPG,AFNE01.JPG,AFNE01.JPG,AFNE01.JPG,AFNE01.JPG,AFNE01.JPG,0,4,4,5,,,,,,,,,,,,,,,,,,,,,,,AFSA13.jpg,AFNE18.jpg,AFNE11.jpg,AFSA03.jpg,AFSA03.jpg,FS,4,num_4,16,num_4,0.716855480336,,,2017_Apr_11_1143,59.9999038318,FEMA4ImagesEEG,001,100163,
AFNE01.JPG,AFNE01.JPG,AFNE01.JPG,AFNE01.JPG,AFNE01.JPG,AFNE01.JPG,0,5,5,1,,,,,,,,,,,,,,,,,,,,,,,AFSA09.jpg,AFNE11.jpg,AFNE08.jpg,AFSA16.jpg,AFNE11.jpg,FN,3,num_6,16,num_6,0.866756709293,,,2017_Apr_11_1143,59.9999038318,FEMA4ImagesEEG,001,100163,
AFNE01.JPG,AFNE01.JPG,AFNE01.JPG,AFNE01.JPG,AFNE01.JPG,AFNE01.JPG,0,6,6,0,,,,,,,,,,,,,,,,,,,,,,,AFSA07.jpg,AFNE03.jpg,AFSA08.jpg,AFNE18.jpg,AFNE18.jpg,FN,3,num_4,32,num_8,0.850105186459,,,2017_Apr_11_1143,59.9999038318,FEMA4ImagesEEG,001,100163,
AFNE01.JPG,AFNE01.JPG,AFNE01.JPG,AFNE01.JPG,AFNE01.JPG,AFNE01.JPG,0,7,7,9,,,,,,,,,,,,,,,,,,,,,,,AFSA09.jpg,AFNE10.jpg,AFSA03.jpg,AFNE03.jpg,AFNE10.jpg,FN,3,num_6,16,num_6,0.850188258104,,,2017_Apr_11_1143,59.9999038318,FEMA4ImagesEEG,001,100163,
AFNE01.JPG,AFNE01.JPG,AFNE01.JPG,AFNE01.JPG,AFNE01.JPG,AFNE01.JPG,0,8,8,6,,,,,,,,,,,,,,,,,,,,,,,AFSA01.jpg,AFSA18.jpg,AFNE10.jpg,AFNE20.jpg,AFNE10.jpg,FN,3,num_2,16,num_2,1.15011644457,,,2017_Apr_11_1143,59.9999038318,FEMA4ImagesEEG,001,100163,
AFNE01.JPG,AFNE01.JPG,AFNE01.JPG,AFNE01.JPG,AFNE01.JPG,AFNE01.JPG,0,9,9,7,,,,,,,,,,,,,,,,,,,,,,,AFSA14.jpg,AFNE01.jpg,AFNE17.jpg,AFSA19.jpg,AFSA19.jpg,FS,4,num_4,16,num_4,0.616777637042,,,2017_Apr_11_1143,59.9999038318,FEMA4ImagesEEG,001,100163,
AFNE01.JPG,AFNE01.JPG,AFNE01.JPG,AFNE01.JPG,AFNE01.JPG,AFNE01.JPG,1,0,10,7,,,,,,,,,,,,,,,,,,,,,,,AFSA16.jpg,AFNE03.jpg,AFNE13.jpg,AFSA07.jpg,AFSA16.jpg,FS,4,num_8,32,num_6,0.400156136137,,,2017_Apr_11_1143,59.9999038318,FEMA4ImagesEEG,001,100163,
AFNE01.JPG,AFNE01.JPG,AFNE01.JPG,AFNE01.JPG,AFNE01.JPG,AFNE01.JPG,1,1,11,9,,,,,,,,,,,,,,,,,,,,,,,AFNE04.jpg,AFNE08.jpg,AFSA18.jpg,AFSA19.jpg,AFNE08.jpg,FN,3,num_6,32,num_2,2.28335588705,,,2017_Apr_11_1143,59.9999038318,FEMA4ImagesEEG,001,100163,
AFNE01.JPG,AFNE01.JPG,AFNE01.JPG,AFNE01.JPG,AFNE01.JPG,AFNE01.JPG,1,2,12,6,,,,,,,,,,,,,,,,,,,,,,,AFSA18.jpg,AFNE02.jpg,AFNE10.jpg,AFSA10.jpg,AFNE10.jpg,FN,3,num_2,16,num_2,1.066752668,,,2017_Apr_11_1143,59.9999038318,FEMA4ImagesEEG,001,100163,
AFNE01.JPG,AFNE01.JPG,AFNE01.JPG,AFNE01.JPG,AFNE01.JPG,AFNE01.JPG,1,3,13,4,,,,,,,,,,,,,,,,,,,,,,,AFNE05.jpg,AFNE09.jpg,AFSA05.jpg,AFSA20.jpg,AFNE05.jpg,FN,3,num_8,32,num_4,1.4500577813,,,2017_Apr_11_1143,59.9999038318,FEMA4ImagesEEG,001,100163,
AFNE01.JPG,AFNE01.JPG,AFNE01.JPG,AFNE01.JPG,AFNE01.JPG,AFNE01.JPG,1,4,14,1,,,,,,,,,,,,,,,,,,,,,,,AFSA14.jpg,AFNE04.jpg,AFSA11.jpg,AFNE17.jpg,AFNE17.jpg,FN,3,num_4,16,num_4,0.733455043286,,,2017_Apr_11_1143,59.9999038318,FEMA4ImagesEEG,001,100163,
AFNE01.JPG,AFNE01.JPG,AFNE01.JPG,AFNE01.JPG,AFNE01.JPG,AFNE01.JPG,1,5,15,8,,,,,,,,,,,,,,,,,,,,,,,AFSA03.jpg,AFSA09.jpg,AFNE07.jpg,AFNE06.jpg,AFNE07.jpg,FN,3,num_2,32,num_4,1.03342652973,,,2017_Apr_11_1143,59.9999038318,FEMA4ImagesEEG,001,100163,
AFNE01.JPG,AFNE01.JPG,AFNE01.JPG,AFNE01.JPG,AFNE01.JPG,AFNE01.JPG,1,6,16,0,,,,,,,,,,,,,,,,,,,,,,,AFNE18.jpg,AFNE15.jpg,AFSA12.jpg,AFSA07.jpg,AFSA07.jpg,FS,4,num_4,32,num_2,1.20005112607,,,2017_Apr_11_1143,59.9999038318,FEMA4ImagesEEG,001,100163,
AFNE01.JPG,AFNE01.JPG,AFNE01.JPG,AFNE01.JPG,AFNE01.JPG,AFNE01.JPG,1,7,17,5,,,,,,,,,,,,,,,,,,,,,,,AFSA14.jpg,AFNE18.jpg,AFSA04.jpg,AFNE09.jpg,AFSA04.jpg,FS,4,num_2,32,num_6,1.56671081111,,,2017_Apr_11_1143,59.9999038318,FEMA4ImagesEEG,001,100163,
AFNE01.JPG,AFNE01.JPG,AFNE01.JPG,AFNE01.JPG,AFNE01.JPG,AFNE01.JPG,1,8,18,3,,,,,,,,,,,,,,,,,,,,,,,AFNE19.jpg,AFSA15.jpg,AFSA18.jpg,AFNE12.jpg,AFNE19.jpg,FN,3,num_8,16,num_8,1.71670633694,,,2017_Apr_11_1143,59.9999038318,FEMA4ImagesEEG,001,100163,
AFNE01.JPG,AFNE01.JPG,AFNE01.JPG,AFNE01.JPG,AFNE01.JPG,AFNE01.JPG,1,9,19,2,,,,,,,,,,,,,,,,,,,,,,,AFNE19.jpg,AFNE01.jpg,AFSA01.jpg,AFSA05.jpg,AFSA01.jpg,FS,4,num_2,32,num_4,1.35007615946,,,2017_Apr_11_1143,59.9999038318,FEMA4ImagesEEG,001,100163,
AFNE01.JPG,AFNE01.JPG,AFNE01.JPG,AFNE01.JPG,AFNE01.JPG,AFNE01.JPG,2,0,20,7,,,,,,,,,,,,,,,,,,,,,,,AFSA14.jpg,AFNE08.jpg,AFNE05.jpg,AFSA06.jpg,AFSA06.jpg,FS,4,num_4,16,num_4,0.833453022409,,,2017_Apr_11_1143,59.9999038318,FEMA4ImagesEEG,001,100163,
AFNE01.JPG,AFNE01.JPG,AFNE01.JPG,AFNE01.JPG,AFNE01.JPG,AFNE01.JPG,2,1,21,8,,,,,,,,,,,,,,,,,,,,,,,AFSA03.jpg,AFSA13.jpg,AFNE12.jpg,AFNE15.jpg,AFSA03.jpg,FS,4,num_8,32,num_2,1.13341488643,,,2017_Apr_11_1143,59.9999038318,FEMA4ImagesEEG,001,100163,
AFNE01.JPG,AFNE01.JPG,AFNE01.JPG,AFNE01.JPG,AFNE01.JPG,AFNE01.JPG,2,2,22,5,,,,,,,,,,,,,,,,,,,,,,,AFSA04.jpg,AFNE15.jpg,AFSA18.jpg,AFNE11.jpg,AFSA04.jpg,FS,4,num_8,16,num_8,0.566884331405,,,2017_Apr_11_1143,59.9999038318,FEMA4ImagesEEG,001,100163,
AFNE01.JPG,AFNE01.JPG,AFNE01.JPG,AFNE01.JPG,AFNE01.JPG,AFNE01.JPG,2,3,23,0,,,,,,,,,,,,,,,,,,,,,,,AFNE16.jpg,AFNE09.jpg,AFSA06.jpg,AFSA09.jpg,AFSA06.jpg,FS,4,num_2,32,num_6,0.966793177184,,,2017_Apr_11_1143,59.9999038318,FEMA4ImagesEEG,001,100163,
AFNE01.JPG,AFNE01.JPG,AFNE01.JPG,AFNE01.JPG,AFNE01.JPG,AFNE01.JPG,2,4,24,1,,,,,,,,,,,,,,,,,,,,,,,AFNE12.jpg,AFSA18.jpg,AFNE10.jpg,AFSA09.jpg,AFSA09.jpg,FS,4,num_4,16,num_4,0.849812992848,,,2017_Apr_11_1143,59.9999038318,FEMA4ImagesEEG,001,100163,
AFNE01.JPG,AFNE01.JPG,AFNE01.JPG,AFNE01.JPG,AFNE01.JPG,AFNE01.JPG,2,5,25,6,,,,,,,,,,,,,,,,,,,,,,,AFNE14.jpg,AFNE13.jpg,AFSA03.jpg,AFSA05.jpg,AFNE13.jpg,FN,3,num_6,32,num_8,0.700105170719,,,2017_Apr_11_1143,59.9999038318,FEMA4ImagesEEG,001,100163,
AFNE01.JPG,AFNE01.JPG,AFNE01.JPG,AFNE01.JPG,AFNE01.JPG,AFNE01.JPG,2,6,26,9,,,,,,,,,,,,,,,,,,,,,,,AFNE06.jpg,AFNE07.jpg,AFSA16.jpg,AFSA02.jpg,AFSA02.jpg,FS,4,num_4,32,num_2,1.2167536458,,,2017_Apr_11_1143,59.9999038318,FEMA4ImagesEEG,001,100163,
AFNE01.JPG,AFNE01.JPG,AFNE01.JPG,AFNE01.JPG,AFNE01.JPG,AFNE01.JPG,2,7,27,3,,,,,,,,,,,,,,,,,,,,,,,AFNE03.jpg,AFSA18.jpg,AFNE04.jpg,AFSA14.jpg,AFNE03.jpg,FN,3,num_8,16,num_8,1.23372270027,,,2017_Apr_11_1143,59.9999038318,FEMA4ImagesEEG,001,100163,
AFNE01.JPG,AFNE01.JPG,AFNE01.JPG,AFNE01.JPG,AFNE01.JPG,AFNE01.JPG,2,8,28,2,,,,,,,,,,,,,,,,,,,,,,,AFSA20.jpg,AFNE12.jpg,AFSA05.jpg,AFNE01.jpg,AFNE12.jpg,FN,3,num_6,16,num_6,0.516836108174,,,2017_Apr_11_1143,59.9999038318,FEMA4ImagesEEG,001,100163,
AFNE01.JPG,AFNE01.JPG,AFNE01.JPG,AFNE01.JPG,AFNE01.JPG,AFNE01.JPG,2,9,29,4,,,,,,,,,,,,,,,,,,,,,,,AFSA14.jpg,AFNE15.jpg,AFNE01.jpg,AFSA18.jpg,AFSA18.jpg,FS,4,num_4,32,num_8,1.31670479756,,,2017_Apr_11_1143,59.9999038318,FEMA4ImagesEEG,001,100163,
AFNE01.JPG,AFNE01.JPG,AFNE01.JPG,AFNE01.JPG,AFNE01.JPG,AFNE01.JPG,3,0,30,9,,,,,,,,,,,,,,,,,,,,,,,AFSA01.jpg,AFSA20.jpg,AFNE07.jpg,AFNE16.jpg,AFSA01.jpg,FS,4,num_8,16,num_8,1.53343567066,,,2017_Apr_11_1143,59.9999038318,FEMA4ImagesEEG,001,100163,
AFNE01.JPG,AFNE01.JPG,AFNE01.JPG,AFNE01.JPG,AFNE01.JPG,AFNE01.JPG,3,1,31,4,,,,,,,,,,,,,,,,,,,,,,,AFSA16.jpg,AFNE20.jpg,AFSA10.jpg,AFNE07.jpg,AFNE20.jpg,FN,3,num_6,32,num_2,1.21675140085,,,2017_Apr_11_1143,59.9999038318,FEMA4ImagesEEG,001,100163,
AFNE01.JPG,AFNE01.JPG,AFNE01.JPG,AFNE01.JPG,AFNE01.JPG,AFNE01.JPG,3,2,32,0,,,,,,,,,,,,,,,,,,,,,,,AFNE11.jpg,AFNE06.jpg,AFSA01.jpg,AFSA09.jpg,AFSA01.jpg,FS,4,num_2,16,num_2,1.28343254328,,,2017_Apr_11_1143,59.9999038318,FEMA4ImagesEEG,001,100163,
AFNE01.JPG,AFNE01.JPG,AFNE01.JPG,AFNE01.JPG,AFNE01.JPG,AFNE01.JPG,3,3,33,7,,,,,,,,,,,,,,,,,,,,,,,AFSA16.jpg,AFNE20.jpg,AFSA15.jpg,AFNE07.jpg,AFNE07.jpg,FN,3,num_4,16,num_4,0.75010015117,,,2017_Apr_11_1143,59.9999038318,FEMA4ImagesEEG,001,100163,
AFNE01.JPG,AFNE01.JPG,AFNE01.JPG,AFNE01.JPG,AFNE01.JPG,AFNE01.JPG,3,4,34,3,,,,,,,,,,,,,,,,,,,,,,,AFSA04.jpg,AFNE18.jpg,AFSA08.jpg,AFNE15.jpg,AFNE18.jpg,FN,3,num_6,16,num_6,0.966729991138,,,2017_Apr_11_1143,59.9999038318,FEMA4ImagesEEG,001,100163,
AFNE01.JPG,AFNE01.JPG,AFNE01.JPG,AFNE01.JPG,AFNE01.JPG,AFNE01.JPG,3,5,35,5,,,,,,,,,,,,,,,,,,,,,,,AFSA06.jpg,AFNE10.jpg,AFSA01.jpg,AFNE08.jpg,AFNE10.jpg,FN,3,num_6,16,num_6,1.26675536204,,,2017_Apr_11_1143,59.9999038318,FEMA4ImagesEEG,001,100163,
AFNE01.JPG,AFNE01.JPG,AFNE01.JPG,AFNE01.JPG,AFNE01.JPG,AFNE01.JPG,3,6,36,6,,,,,,,,,,,,,,,,,,,,,,,AFNE05.jpg,AFSA15.jpg,AFSA02.jpg,AFNE07.jpg,AFNE07.jpg,FN,3,num_4,16,num_4,0.783472154755,,,2017_Apr_11_1143,59.9999038318,FEMA4ImagesEEG,001,100163,
AFNE01.JPG,AFNE01.JPG,AFNE01.JPG,AFNE01.JPG,AFNE01.JPG,AFNE01.JPG,3,7,37,8,,,,,,,,,,,,,,,,,,,,,,,AFSA07.jpg,AFSA12.jpg,AFNE02.jpg,AFNE01.jpg,AFNE02.jpg,FN,3,num_2,32,num_6,0.933416041546,,,2017_Apr_11_1143,59.9999038318,FEMA4ImagesEEG,001,100163,
AFNE01.JPG,AFNE01.JPG,AFNE01.JPG,AFNE01.JPG,AFNE01.JPG,AFNE01.JPG,3,8,38,1,,,,,,,,,,,,,,,,,,,,,,,AFSA20.jpg,AFNE18.jpg,AFSA10.jpg,AFNE02.jpg,AFNE18.jpg,FN,3,num_6,32,num_8,1.45006259205,,,2017_Apr_11_1143,59.9999038318,FEMA4ImagesEEG,001,100163,
AFNE01.JPG,AFNE01.JPG,AFNE01.JPG,AFNE01.JPG,AFNE01.JPG,AFNE01.JPG,3,9,39,2,,,,,,,,,,,,,,,,,,,,,,,AFSA16.jpg,AFNE20.jpg,AFNE04.jpg,AFSA13.jpg,AFNE20.jpg,FN,3,num_6,16,num_6,0.566770468373,,,2017_Apr_11_1143,59.9999038318,FEMA4ImagesEEG,001,100163,
AFNE01.JPG,AFNE01.JPG,AFNE01.JPG,AFNE01.JPG,AFNE01.JPG,AFNE01.JPG,4,0,40,6,,,,,,,,,,,,,,,,,,,,,,,AFNE08.jpg,AFSA19.jpg,AFSA07.jpg,AFNE10.jpg,AFSA07.jpg,FS,4,num_2,16,num_2,1.00011129677,,,2017_Apr_11_1143,59.9999038318,FEMA4ImagesEEG,001,100163,
AFNE01.JPG,AFNE01.JPG,AFNE01.JPG,AFNE01.JPG,AFNE01.JPG,AFNE01.JPG,4,1,41,2,,,,,,,,,,,,,,,,,,,,,,,AFNE15.jpg,AFSA15.jpg,AFNE13.jpg,AFSA13.jpg,AFSA13.jpg,FS,4,num_4,16,num_4,0.900214991532,,,2017_Apr_11_1143,59.9999038318,FEMA4ImagesEEG,001,100163,
AFNE01.JPG,AFNE01.JPG,AFNE01.JPG,AFNE01.JPG,AFNE01.JPG,AFNE01.JPG,4,2,42,0,,,,,,,,,,,,,,,,,,,,,,,AFSA20.jpg,AFNE11.jpg,AFSA16.jpg,AFNE10.jpg,AFSA16.jpg,FS,4,num_2,16,num_2,0.500170473009,,,2017_Apr_11_1143,59.9999038318,FEMA4ImagesEEG,001,100163,
AFNE01.JPG,AFNE01.JPG,AFNE01.JPG,AFNE01.JPG,AFNE01.JPG,AFNE01.JPG,4,3,43,7,,,,,,,,,,,,,,,,,,,,,,,AFNE20.jpg,AFSA16.jpg,AFSA12.jpg,AFNE10.jpg,AFNE20.jpg,FN,3,num_8,32,num_4,1.2001078967,,,2017_Apr_11_1143,59.9999038318,FEMA4ImagesEEG,001,100163,
AFNE01.JPG,AFNE01.JPG,AFNE01.JPG,AFNE01.JPG,AFNE01.JPG,AFNE01.JPG,4,4,44,5,,,,,,,,,,,,,,,,,,,,,,,AFSA15.jpg,AFNE07.jpg,AFNE01.jpg,AFSA17.jpg,AFNE01.jpg,FN,3,num_2,32,num_6,1.06679340173,,,2017_Apr_11_1143,59.9999038318,FEMA4ImagesEEG,001,100163,
AFNE01.JPG,AFNE01.JPG,AFNE01.JPG,AFNE01.JPG,AFNE01.JPG,AFNE01.JPG,4,5,45,4,,,,,,,,,,,,,,,,,,,,,,,AFNE09.jpg,AFSA10.jpg,AFNE17.jpg,AFSA13.jpg,AFNE09.jpg,FN,3,num_8,32,num_6,1.05005880771,,,2017_Apr_11_1143,59.9999038318,FEMA4ImagesEEG,001,100163,
AFNE01.JPG,AFNE01.JPG,AFNE01.JPG,AFNE01.JPG,AFNE01.JPG,AFNE01.JPG,4,6,46,1,,,,,,,,,,,,,,,,,,,,,,,AFSA15.jpg,AFNE09.jpg,AFNE17.jpg,AFSA04.jpg,AFSA04.jpg,FS,4,num_4,16,num_4,0.616451445036,,,2017_Apr_11_1143,59.9999038318,FEMA4ImagesEEG,001,100163,
AFNE01.JPG,AFNE01.JPG,AFNE01.JPG,AFNE01.JPG,AFNE01.JPG,AFNE01.JPG,4,7,47,8,,,,,,,,,,,,,,,,,,,,,,,AFNE10.jpg,AFSA13.jpg,AFNE08.jpg,AFSA09.jpg,AFNE08.jpg,FN,3,num_2,16,num_2,1.350099253,,,2017_Apr_11_1143,59.9999038318,FEMA4ImagesEEG,001,100163,
AFNE01.JPG,AFNE01.JPG,AFNE01.JPG,AFNE01.JPG,AFNE01.JPG,AFNE01.JPG,4,8,48,3,,,,,,,,,,,,,,,,,,,,,,,AFNE11.jpg,AFSA01.jpg,AFNE18.jpg,AFSA10.jpg,AFNE18.jpg,FN,3,num_2,16,num_2,1.53345299093,,,2017_Apr_11_1143,59.9999038318,FEMA4ImagesEEG,001,100163,
AFNE01.JPG,AFNE01.JPG,AFNE01.JPG,AFNE01.JPG,AFNE01.JPG,AFNE01.JPG,4,9,49,9,,,,,,,,,,,,,,,,,,,,,,,AFSA09.jpg,AFSA11.jpg,AFNE08.jpg,AFNE14.jpg,AFNE14.jpg,FN,3,num_4,32,num_8,0.817078940105,,,2017_Apr_11_1143,59.9999038318,FEMA4ImagesEEG,001,100163,
AFNE01.JPG,AFNE01.JPG,AFNE01.JPG,AFNE01.JPG,AFNE01.JPG,AFNE01.JPG,5,0,50,9,,,,,,,,,,,,,,,,,,,,,,,AFSA19.jpg,AFNE14.jpg,AFSA14.jpg,AFNE06.jpg,AFNE06.jpg,FN,3,num_4,32,num_6,1.18361353688,,,2017_Apr_11_1143,59.9999038318,FEMA4ImagesEEG,001,100163,
AFNE01.JPG,AFNE01.JPG,AFNE01.JPG,AFNE01.JPG,AFNE01.JPG,AFNE01.JPG,5,1,51,0,,,,,,,,,,,,,,,,,,,,,,,AFNE01.jpg,AFNE10.jpg,AFSA08.jpg,AFSA01.jpg,AFNE10.jpg,FN,3,num_6,16,num_6,0.816746653523,,,2017_Apr_11_1143,59.9999038318,FEMA4ImagesEEG,001,100163,
AFNE01.JPG,AFNE01.JPG,AFNE01.JPG,AFNE01.JPG,AFNE01.JPG,AFNE01.JPG,5,2,52,1,,,,,,,,,,,,,,,,,,,,,,,AFSA16.jpg,AFSA02.jpg,AFNE02.jpg,AFNE06.jpg,AFSA02.jpg,FS,4,num_6,32,num_8,0.866780764423,,,2017_Apr_11_1143,59.9999038318,FEMA4ImagesEEG,001,100163,
AFNE01.JPG,AFNE01.JPG,AFNE01.JPG,AFNE01.JPG,AFNE01.JPG,AFNE01.JPG,5,3,53,3,,,,,,,,,,,,,,,,,,,,,,,AFNE16.jpg,AFSA19.jpg,AFNE17.jpg,AFSA09.jpg,AFNE17.jpg,FN,3,num_2,32,num_6,0.733468835242,,,2017_Apr_11_1143,59.9999038318,FEMA4ImagesEEG,001,100163,
AFNE01.JPG,AFNE01.JPG,AFNE01.JPG,AFNE01.JPG,AFNE01.JPG,AFNE01.JPG,5,4,54,5,,,,,,,,,,,,,,,,,,,,,,,AFSA13.jpg,AFNE10.jpg,AFSA15.jpg,AFNE20.jpg,AFSA13.jpg,FS,4,num_8,16,num_8,0.883408552036,,,2017_Apr_11_1143,59.9999038318,FEMA4ImagesEEG,001,100163,
AFNE01.JPG,AFNE01.JPG,AFNE01.JPG,AFNE01.JPG,AFNE01.JPG,AFNE01.JPG,5,5,55,8,,,,,,,,,,,,,,,,,,,,,,,AFNE13.jpg,AFSA09.jpg,AFNE06.jpg,AFSA01.jpg,AFSA09.jpg,FS,4,num_6,16,num_6,0.966766555328,,,2017_Apr_11_1143,59.9999038318,FEMA4ImagesEEG,001,100163,
AFNE01.JPG,AFNE01.JPG,AFNE01.JPG,AFNE01.JPG,AFNE01.JPG,AFNE01.JPG,5,6,56,6,,,,,,,,,,,,,,,,,,,,,,,AFSA11.jpg,AFNE01.jpg,AFSA07.jpg,AFNE12.jpg,AFSA07.jpg,FS,4,num_2,32,num_6,0.650138094556,,,2017_Apr_11_1143,59.9999038318,FEMA4ImagesEEG,001,100163,
AFNE01.JPG,AFNE01.JPG,AFNE01.JPG,AFNE01.JPG,AFNE01.JPG,AFNE01.JPG,5,7,57,7,,,,,,,,,,,,,,,,,,,,,,,AFNE01.jpg,AFNE09.jpg,AFSA07.jpg,AFSA14.jpg,AFNE01.jpg,FN,3,num_8,16,num_8,1.03316640994,,,2017_Apr_11_1143,59.9999038318,FEMA4ImagesEEG,001,100163,
AFNE01.JPG,AFNE01.JPG,AFNE01.JPG,AFNE01.JPG,AFNE01.JPG,AFNE01.JPG,5,8,58,4,,,,,,,,,,,,,,,,,,,,,,,AFSA20.jpg,AFSA15.jpg,AFNE05.jpg,AFNE02.jpg,AFNE02.jpg,FN,3,num_4,32,num_2,1.2665828038,,,2017_Apr_11_1143,59.9999038318,FEMA4ImagesEEG,001,100163,
AFNE01.JPG,AFNE01.JPG,AFNE01.JPG,AFNE01.JPG,AFNE01.JPG,AFNE01.JPG,5,9,59,2,,,,,,,,,,,,,,,,,,,,,,,AFSA04.jpg,AFNE19.jpg,AFSA16.jpg,AFNE12.jpg,AFSA04.jpg,FS,4,num_8,16,num_8,0.733454401605,,,2017_Apr_11_1143,59.9999038318,FEMA4ImagesEEG,001,100163,
,,,,,,,,,,,,,,,,,,,,,,,,,,,,,,,,,,,,,,,,,,,space,22.6820225078,2017_Apr_11_1143,59.9999038318,FEMA4ImagesEEG,001,100163,
AFNE01.JPG,AFNE01.JPG,AFNE01.JPG,AFNE01.JPG,AFNE01.JPG,AFNE01.JPG,,,,,0,0,0,3,,,,,,,,,,,,,,,,,,,AMNE06.jpg,AMSA08.jpg,AMNE12.jpg,AMSA01.jpg,AMNE06.jpg,MN,1,num_8,16,num_8,0.950087128673,,,2017_Apr_11_1143,59.9999038318,FEMA4ImagesEEG,001,100163,
AFNE01.JPG,AFNE01.JPG,AFNE01.JPG,AFNE01.JPG,AFNE01.JPG,AFNE01.JPG,,,,,0,1,1,5,,,,,,,,,,,,,,,,,,,AMNE03.jpg,AMNE07.jpg,AMSA07.jpg,AMSA12.jpg,AMSA07.jpg,MS,2,num_2,16,num_2,0.633481119294,,,2017_Apr_11_1143,59.9999038318,FEMA4ImagesEEG,001,100163,
AFNE01.JPG,AFNE01.JPG,AFNE01.JPG,AFNE01.JPG,AFNE01.JPG,AFNE01.JPG,,,,,0,2,2,1,,,,,,,,,,,,,,,,,,,AMNE08.jpg,AMNE10.jpg,AMSA12.jpg,AMSA09.jpg,AMSA12.jpg,MS,2,num_2,16,num_2,0.98345367983,,,2017_Apr_11_1143,59.9999038318,FEMA4ImagesEEG,001,100163,
AFNE01.JPG,AFNE01.JPG,AFNE01.JPG,AFNE01.JPG,AFNE01.JPG,AFNE01.JPG,,,,,0,3,3,6,,,,,,,,,,,,,,,,,,,AMSA13.jpg,AMNE08.jpg,AMSA05.jpg,AMNE17.jpg,AMNE08.jpg,MN,1,num_6,16,num_6,1.18345541228,,,2017_Apr_11_1143,59.9999038318,FEMA4ImagesEEG,001,100163,
AFNE01.JPG,AFNE01.JPG,AFNE01.JPG,AFNE01.JPG,AFNE01.JPG,AFNE01.JPG,,,,,0,4,4,2,,,,,,,,,,,,,,,,,,,AMSA14.jpg,AMNE02.jpg,AMNE19.jpg,AMSA09.jpg,AMSA09.jpg,MS,2,num_4,16,num_4,0.550160642248,,,2017_Apr_11_1143,59.9999038318,FEMA4ImagesEEG,001,100163,
AFNE01.JPG,AFNE01.JPG,AFNE01.JPG,AFNE01.JPG,AFNE01.JPG,AFNE01.JPG,,,,,0,5,5,9,,,,,,,,,,,,,,,,,,,AMSA16.jpg,AMSA10.jpg,AMNE10.jpg,AMNE03.jpg,AMNE03.jpg,MN,1,num_4,16,num_4,0.550137228332,,,2017_Apr_11_1143,59.9999038318,FEMA4ImagesEEG,001,100163,
AFNE01.JPG,AFNE01.JPG,AFNE01.JPG,AFNE01.JPG,AFNE01.JPG,AFNE01.JPG,,,,,0,6,6,7,,,,,,,,,,,,,,,,,,,AMSA09.jpg,AMNE02.jpg,AMNE17.jpg,AMSA03.jpg,AMSA09.jpg,MS,2,num_8,16,num_8,0.883544546086,,,2017_Apr_11_1143,59.9999038318,FEMA4ImagesEEG,001,100163,
AFNE01.JPG,AFNE01.JPG,AFNE01.JPG,AFNE01.JPG,AFNE01.JPG,AFNE01.JPG,,,,,0,7,7,8,,,,,,,,,,,,,,,,,,,AMSA20.jpg,AMNE14.jpg,AMSA07.jpg,AMNE15.jpg,AMNE14.jpg,MN,1,num_6,16,num_6,0.550157755613,,,2017_Apr_11_1143,59.9999038318,FEMA4ImagesEEG,001,100163,
AFNE01.JPG,AFNE01.JPG,AFNE01.JPG,AFNE01.JPG,AFNE01.JPG,AFNE01.JPG,,,,,0,8,8,0,,,,,,,,,,,,,,,,,,,AMNE13.jpg,AMSA17.jpg,AMSA09.jpg,AMNE10.jpg,AMNE13.jpg,MN,1,num_8,32,num_4,0.849998059683,,,2017_Apr_11_1143,59.9999038318,FEMA4ImagesEEG,001,100163,
AFNE01.JPG,AFNE01.JPG,AFNE01.JPG,AFNE01.JPG,AFNE01.JPG,AFNE01.JPG,,,,,0,9,9,4,,,,,,,,,,,,,,,,,,,AMNE02.jpg,AMSA04.jpg,AMNE20.jpg,AMSA02.jpg,AMNE02.jpg,MN,1,num_8,32,num_6,0.800133619923,,,2017_Apr_11_1143,59.9999038318,FEMA4ImagesEEG,001,100163,
AFNE01.JPG,AFNE01.JPG,AFNE01.JPG,AFNE01.JPG,AFNE01.JPG,AFNE01.JPG,,,,,1,0,10,7,,,,,,,,,,,,,,,,,,,AMSA12.jpg,AMNE18.jpg,AMNE17.jpg,AMSA10.jpg,AMNE18.jpg,MN,1,num_6,32,num_2,0.900107223075,,,2017_Apr_11_1143,59.9999038318,FEMA4ImagesEEG,001,100163,
AFNE01.JPG,AFNE01.JPG,AFNE01.JPG,AFNE01.JPG,AFNE01.JPG,AFNE01.JPG,,,,,1,1,11,4,,,,,,,,,,,,,,,,,,,AMNE05.jpg,AMSA11.jpg,AMNE11.jpg,AMSA20.jpg,AMNE11.jpg,MN,1,num_2,32,num_4,0.733501550741,,,2017_Apr_11_1143,59.9999038318,FEMA4ImagesEEG,001,100163,
AFNE01.JPG,AFNE01.JPG,AFNE01.JPG,AFNE01.JPG,AFNE01.JPG,AFNE01.JPG,,,,,1,2,12,1,,,,,,,,,,,,,,,,,,,AMSA09.jpg,AMNE16.jpg,AMNE02.jpg,AMSA10.jpg,AMSA10.jpg,MS,2,num_4,32,num_8,1.3000551993,,,2017_Apr_11_1143,59.9999038318,FEMA4ImagesEEG,001,100163,
AFNE01.JPG,AFNE01.JPG,AFNE01.JPG,AFNE01.JPG,AFNE01.JPG,AFNE01.JPG,,,,,1,3,13,5,,,,,,,,,,,,,,,,,,,AMNE04.jpg,AMSA03.jpg,AMNE02.jpg,AMSA20.jpg,AMSA20.jpg,MS,2,num_4,32,num_6,1.2500765766,,,2017_Apr_11_1143,59.9999038318,FEMA4ImagesEEG,001,100163,
AFNE01.JPG,AFNE01.JPG,AFNE01.JPG,AFNE01.JPG,AFNE01.JPG,AFNE01.JPG,,,,,1,4,14,9,,,,,,,,,,,,,,,,,,,AMSA12.jpg,AMNE15.jpg,AMNE18.jpg,AMSA11.jpg,AMSA12.jpg,MS,2,num_8,16,num_8,0.88333189534,,,2017_Apr_11_1143,59.9999038318,FEMA4ImagesEEG,001,100163,
AFNE01.JPG,AFNE01.JPG,AFNE01.JPG,AFNE01.JPG,AFNE01.JPG,AFNE01.JPG,,,,,1,5,15,2,,,,,,,,,,,,,,,,,,,AMNE06.jpg,AMNE11.jpg,AMSA01.jpg,AMSA08.jpg,AMSA08.jpg,MS,2,num_4,32,num_6,0.933440417517,,,2017_Apr_11_1143,59.9999038318,FEMA4ImagesEEG,001,100163,
AFNE01.JPG,AFNE01.JPG,AFNE01.JPG,AFNE01.JPG,AFNE01.JPG,AFNE01.JPG,,,,,1,6,16,0,,,,,,,,,,,,,,,,,,,AMNE02.jpg,AMSA17.jpg,AMNE01.jpg,AMSA09.jpg,AMNE01.jpg,MN,1,num_2,16,num_2,1.20009282185,,,2017_Apr_11_1143,59.9999038318,FEMA4ImagesEEG,001,100163,
AFNE01.JPG,AFNE01.JPG,AFNE01.JPG,AFNE01.JPG,AFNE01.JPG,AFNE01.JPG,,,,,1,7,17,8,,,,,,,,,,,,,,,,,,,AMNE17.jpg,AMSA10.jpg,AMSA01.jpg,AMNE15.jpg,AMSA10.jpg,MS,2,num_6,16,num_6,0.6334814406,,,2017_Apr_11_1143,59.9999038318,FEMA4ImagesEEG,001,100163,
AFNE01.JPG,AFNE01.JPG,AFNE01.JPG,AFNE01.JPG,AFNE01.JPG,AFNE01.JPG,,,,,1,8,18,6,,,,,,,,,,,,,,,,,,,AMSA19.jpg,AMNE14.jpg,AMNE09.jpg,AMSA12.jpg,AMNE09.jpg,MN,1,num_2,16,num_2,0.683452044614,,,2017_Apr_11_1143,59.9999038318,FEMA4ImagesEEG,001,100163,
AFNE01.JPG,AFNE01.JPG,AFNE01.JPG,AFNE01.JPG,AFNE01.JPG,AFNE01.JPG,,,,,1,9,19,3,,,,,,,,,,,,,,,,,,,AMSA08.jpg,AMSA02.jpg,AMNE13.jpg,AMNE16.jpg,AMNE16.jpg,MN,1,num_4,16,num_4,1.05009857938,,,2017_Apr_11_1143,59.9999038318,FEMA4ImagesEEG,001,100163,
AFNE01.JPG,AFNE01.JPG,AFNE01.JPG,AFNE01.JPG,AFNE01.JPG,AFNE01.JPG,,,,,2,0,20,5,,,,,,,,,,,,,,,,,,,AMSA06.jpg,AMSA13.jpg,AMNE07.jpg,AMNE14.jpg,AMNE14.jpg,MN,1,num_4,16,num_4,1.23341607349,,,2017_Apr_11_1143,59.9999038318,FEMA4ImagesEEG,001,100163,
AFNE01.JPG,AFNE01.JPG,AFNE01.JPG,AFNE01.JPG,AFNE01.JPG,AFNE01.JPG,,,,,2,1,21,6,,,,,,,,,,,,,,,,,,,AMSA05.jpg,AMNE03.jpg,AMSA07.jpg,AMNE09.jpg,AMNE09.jpg,MN,1,num_4,32,num_8,0.90011043055,,,2017_Apr_11_1143,59.9999038318,FEMA4ImagesEEG,001,100163,
AFNE01.JPG,AFNE01.JPG,AFNE01.JPG,AFNE01.JPG,AFNE01.JPG,AFNE01.JPG,,,,,2,2,22,1,,,,,,,,,,,,,,,,,,,AMSA02.jpg,AMSA06.jpg,AMNE20.jpg,AMNE16.jpg,AMNE16.jpg,MN,1,num_4,32,num_8,0.733491287101,,,2017_Apr_11_1143,59.9999038318,FEMA4ImagesEEG,001,100163,
AFNE01.JPG,AFNE01.JPG,AFNE01.JPG,AFNE01.JPG,AFNE01.JPG,AFNE01.JPG,,,,,2,3,23,0,,,,,,,,,,,,,,,,,,,AMSA01.jpg,AMNE01.jpg,AMSA12.jpg,AMNE04.jpg,AMNE01.jpg,MN,1,num_6,32,num_4,1.08342760382,,,2017_Apr_11_1143,59.9999038318,FEMA4ImagesEEG,001,100163,
AFNE01.JPG,AFNE01.JPG,AFNE01.JPG,AFNE01.JPG,AFNE01.JPG,AFNE01.JPG,,,,,2,4,24,3,,,,,,,,,,,,,,,,,,,AMSA12.jpg,AMNE11.jpg,AMSA06.jpg,AMNE16.jpg,AMSA06.jpg,MS,2,num_2,16,num_2,0.766793690622,,,2017_Apr_11_1143,59.9999038318,FEMA4ImagesEEG,001,100163,
AFNE01.JPG,AFNE01.JPG,AFNE01.JPG,AFNE01.JPG,AFNE01.JPG,AFNE01.JPG,,,,,2,5,25,9,,,,,,,,,,,,,,,,,,,AMNE04.jpg,AMNE09.jpg,AMSA19.jpg,AMSA14.jpg,AMNE09.jpg,MN,1,num_6,32,num_8,0.883432928473,,,2017_Apr_11_1143,59.9999038318,FEMA4ImagesEEG,001,100163,
AFNE01.JPG,AFNE01.JPG,AFNE01.JPG,AFNE01.JPG,AFNE01.JPG,AFNE01.JPG,,,,,2,6,26,8,,,,,,,,,,,,,,,,,,,AMNE13.jpg,AMSA05.jpg,AMNE17.jpg,AMSA04.jpg,AMNE13.jpg,MN,1,num_8,32,num_6,0.833492473699,,,2017_Apr_11_1143,59.9999038318,FEMA4ImagesEEG,001,100163,
AFNE01.JPG,AFNE01.JPG,AFNE01.JPG,AFNE01.JPG,AFNE01.JPG,AFNE01.JPG,,,,,2,7,27,2,,,,,,,,,,,,,,,,,,,AMSA06.jpg,AMNE15.jpg,AMNE19.jpg,AMSA19.jpg,AMSA06.jpg,MS,2,num_8,32,num_6,1.06675555464,,,2017_Apr_11_1143,59.9999038318,FEMA4ImagesEEG,001,100163,
AFNE01.JPG,AFNE01.JPG,AFNE01.JPG,AFNE01.JPG,AFNE01.JPG,AFNE01.JPG,,,,,2,8,28,4,,,,,,,,,,,,,,,,,,,AMNE08.jpg,AMSA20.jpg,AMSA17.jpg,AMNE10.jpg,AMNE08.jpg,MN,1,num_8,32,num_4,1.41679130075,,,2017_Apr_11_1143,59.9999038318,FEMA4ImagesEEG,001,100163,
AFNE01.JPG,AFNE01.JPG,AFNE01.JPG,AFNE01.JPG,AFNE01.JPG,AFNE01.JPG,,,,,2,9,29,7,,,,,,,,,,,,,,,,,,,AMNE19.jpg,AMSA17.jpg,AMNE10.jpg,AMSA12.jpg,AMSA17.jpg,MS,2,num_6,32,num_2,2.34997608885,,,2017_Apr_11_1143,59.9999038318,FEMA4ImagesEEG,001,100163,
AFNE01.JPG,AFNE01.JPG,AFNE01.JPG,AFNE01.JPG,AFNE01.JPG,AFNE01.JPG,,,,,3,0,30,7,,,,,,,,,,,,,,,,,,,AMNE14.jpg,AMNE04.jpg,AMSA17.jpg,AMSA07.jpg,AMSA17.jpg,MS,2,num_2,32,num_6,1.08344973531,,,2017_Apr_11_1143,59.9999038318,FEMA4ImagesEEG,001,100163,
AFNE01.JPG,AFNE01.JPG,AFNE01.JPG,AFNE01.JPG,AFNE01.JPG,AFNE01.JPG,,,,,3,1,31,9,,,,,,,,,,,,,,,,,,,AMSA07.jpg,AMNE18.jpg,AMSA01.jpg,AMNE15.jpg,AMNE15.jpg,MN,1,num_4,16,num_4,1.21672702441,,,2017_Apr_11_1143,59.9999038318,FEMA4ImagesEEG,001,100163,
AFNE01.JPG,AFNE01.JPG,AFNE01.JPG,AFNE01.JPG,AFNE01.JPG,AFNE01.JPG,,,,,3,2,32,0,,,,,,,,,,,,,,,,,,,AMNE03.jpg,AMSA10.jpg,AMNE05.jpg,AMSA19.jpg,AMSA10.jpg,MS,2,num_6,16,num_6,0.566777204163,,,2017_Apr_11_1143,59.9999038318,FEMA4ImagesEEG,001,100163,
AFNE01.JPG,AFNE01.JPG,AFNE01.JPG,AFNE01.JPG,AFNE01.JPG,AFNE01.JPG,,,,,3,3,33,8,,,,,,,,,,,,,,,,,,,AMNE13.jpg,AMSA13.jpg,AMSA05.jpg,AMNE06.jpg,AMNE06.jpg,MN,1,num_4,16,num_4,0.766873233952,,,2017_Apr_11_1143,59.9999038318,FEMA4ImagesEEG,001,100163,
AFNE01.JPG,AFNE01.JPG,AFNE01.JPG,AFNE01.JPG,AFNE01.JPG,AFNE01.JPG,,,,,3,4,34,2,,,,,,,,,,,,,,,,,,,AMNE12.jpg,AMSA10.jpg,AMNE18.jpg,AMSA01.jpg,AMSA01.jpg,MS,2,num_4,16,num_4,0.483462821227,,,2017_Apr_11_1143,59.9999038318,FEMA4ImagesEEG,001,100163,
AFNE01.JPG,AFNE01.JPG,AFNE01.JPG,AFNE01.JPG,AFNE01.JPG,AFNE01.JPG,,,,,3,5,35,6,,,,,,,,,,,,,,,,,,,AMNE01.jpg,AMSA20.jpg,AMNE06.jpg,AMSA07.jpg,AMSA07.jpg,MS,2,num_4,16,num_4,1.75001098542,,,2017_Apr_11_1143,59.9999038318,FEMA4ImagesEEG,001,100163,
AFNE01.JPG,AFNE01.JPG,AFNE01.JPG,AFNE01.JPG,AFNE01.JPG,AFNE01.JPG,,,,,3,6,36,3,,,,,,,,,,,,,,,,,,,AMNE14.jpg,AMSA02.jpg,AMSA18.jpg,AMNE08.jpg,AMNE14.jpg,MN,1,num_8,16,num_8,0.766834103502,,,2017_Apr_11_1143,59.9999038318,FEMA4ImagesEEG,001,100163,
AFNE01.JPG,AFNE01.JPG,AFNE01.JPG,AFNE01.JPG,AFNE01.JPG,AFNE01.JPG,,,,,3,7,37,4,,,,,,,,,,,,,,,,,,,AMSA05.jpg,AMSA14.jpg,AMNE04.jpg,AMNE17.jpg,AMSA14.jpg,MS,2,num_6,16,num_6,1.06682387227,,,2017_Apr_11_1143,59.9999038318,FEMA4ImagesEEG,001,100163,
AFNE01.JPG,AFNE01.JPG,AFNE01.JPG,AFNE01.JPG,AFNE01.JPG,AFNE01.JPG,,,,,3,8,38,1,,,,,,,,,,,,,,,,,,,AMSA05.jpg,AMNE12.jpg,AMNE08.jpg,AMSA03.jpg,AMSA05.jpg,MS,2,num_8,16,num_8,0.716745787766,,,2017_Apr_11_1143,59.9999038318,FEMA4ImagesEEG,001,100163,
AFNE01.JPG,AFNE01.JPG,AFNE01.JPG,AFNE01.JPG,AFNE01.JPG,AFNE01.JPG,,,,,3,9,39,5,,,,,,,,,,,,,,,,,,,AMSA07.jpg,AMNE02.jpg,AMNE12.jpg,AMSA05.jpg,AMNE02.jpg,MN,1,num_6,16,num_6,0.850127638318,,,2017_Apr_11_1143,59.9999038318,FEMA4ImagesEEG,001,100163,
AFNE01.JPG,AFNE01.JPG,AFNE01.JPG,AFNE01.JPG,AFNE01.JPG,AFNE01.JPG,,,,,4,0,40,0,,,,,,,,,,,,,,,,,,,AMNE16.jpg,AMNE06.jpg,AMSA09.jpg,AMSA01.jpg,AMNE06.jpg,MN,1,num_6,16,num_6,1.00030983472,,,2017_Apr_11_1143,59.9999038318,FEMA4ImagesEEG,001,100163,
AFNE01.JPG,AFNE01.JPG,AFNE01.JPG,AFNE01.JPG,AFNE01.JPG,AFNE01.JPG,,,,,4,1,41,8,,,,,,,,,,,,,,,,,,,AMSA17.jpg,AMSA01.jpg,AMNE12.jpg,AMNE15.jpg,AMSA01.jpg,MS,2,num_6,16,num_6,1.28346429672,,,2017_Apr_11_1143,59.9999038318,FEMA4ImagesEEG,001,100163,
AFNE01.JPG,AFNE01.JPG,AFNE01.JPG,AFNE01.JPG,AFNE01.JPG,AFNE01.JPG,,,,,4,2,42,5,,,,,,,,,,,,,,,,,,,AMSA19.jpg,AMNE06.jpg,AMSA17.jpg,AMNE10.jpg,AMSA19.jpg,MS,2,num_8,32,num_4,1.26672328822,,,2017_Apr_11_1143,59.9999038318,FEMA4ImagesEEG,001,100163,
AFNE01.JPG,AFNE01.JPG,AFNE01.JPG,AFNE01.JPG,AFNE01.JPG,AFNE01.JPG,,,,,4,3,43,6,,,,,,,,,,,,,,,,,,,AMSA17.jpg,AMNE07.jpg,AMSA01.jpg,AMNE14.jpg,AMSA01.jpg,MS,2,num_2,16,num_2,1.11680024955,,,2017_Apr_11_1143,59.9999038318,FEMA4ImagesEEG,001,100163,
AFNE01.JPG,AFNE01.JPG,AFNE01.JPG,AFNE01.JPG,AFNE01.JPG,AFNE01.JPG,,,,,4,4,44,2,,,,,,,,,,,,,,,,,,,AMSA16.jpg,AMNE09.jpg,AMSA13.jpg,AMNE12.jpg,AMNE09.jpg,MN,1,num_6,16,num_6,0.8500926774,,,2017_Apr_11_1143,59.9999038318,FEMA4ImagesEEG,001,100163,
AFNE01.JPG,AFNE01.JPG,AFNE01.JPG,AFNE01.JPG,AFNE01.JPG,AFNE01.JPG,,,,,4,5,45,1,,,,,,,,,,,,,,,,,,,AMSA09.jpg,AMNE02.jpg,AMNE18.jpg,AMSA06.jpg,AMSA09.jpg,MS,2,num_8,32,num_2,0.900134806987,,,2017_Apr_11_1143,59.9999038318,FEMA4ImagesEEG,001,100163,
AFNE01.JPG,AFNE01.JPG,AFNE01.JPG,AFNE01.JPG,AFNE01.JPG,AFNE01.JPG,,,,,4,6,46,4,,,,,,,,,,,,,,,,,,,AMSA08.jpg,AMNE19.jpg,AMNE04.jpg,AMSA13.jpg,AMSA08.jpg,MS,2,num_8,16,num_8,1.03340664366,,,2017_Apr_11_1143,59.9999038318,FEMA4ImagesEEG,001,100163,
AFNE01.JPG,AFNE01.JPG,AFNE01.JPG,AFNE01.JPG,AFNE01.JPG,AFNE01.JPG,,,,,4,7,47,3,,,,,,,,,,,,,,,,,,,AMNE14.jpg,AMSA01.jpg,AMNE01.jpg,AMSA04.jpg,AMSA01.jpg,MS,2,num_6,16,num_6,0.950073337182,,,2017_Apr_11_1143,59.9999038318,FEMA4ImagesEEG,001,100163,
AFNE01.JPG,AFNE01.JPG,AFNE01.JPG,AFNE01.JPG,AFNE01.JPG,AFNE01.JPG,,,,,4,8,48,7,,,,,,,,,,,,,,,,,,,AMSA10.jpg,AMSA12.jpg,AMNE17.jpg,AMNE04.jpg,AMSA10.jpg,MS,2,num_8,16,num_8,1.01670476515,,,2017_Apr_11_1143,59.9999038318,FEMA4ImagesEEG,001,100163,
AFNE01.JPG,AFNE01.JPG,AFNE01.JPG,AFNE01.JPG,AFNE01.JPG,AFNE01.JPG,,,,,4,9,49,9,,,,,,,,,,,,,,,,,,,AMSA04.jpg,AMNE19.jpg,AMNE01.jpg,AMSA09.jpg,AMNE01.jpg,MN,1,num_2,16,num_2,0.850120261312,,,2017_Apr_11_1143,59.9999038318,FEMA4ImagesEEG,001,100163,
AFNE01.JPG,AFNE01.JPG,AFNE01.JPG,AFNE01.JPG,AFNE01.JPG,AFNE01.JPG,,,,,5,0,50,8,,,,,,,,,,,,,,,,,,,AMNE03.jpg,AMSA08.jpg,AMNE10.jpg,AMSA14.jpg,AMSA08.jpg,MS,2,num_6,32,num_8,0.88345441781,,,2017_Apr_11_1143,59.9999038318,FEMA4ImagesEEG,001,100163,
AFNE01.JPG,AFNE01.JPG,AFNE01.JPG,AFNE01.JPG,AFNE01.JPG,AFNE01.JPG,,,,,5,1,51,7,,,,,,,,,,,,,,,,,,,AMSA13.jpg,AMNE10.jpg,AMSA12.jpg,AMNE18.jpg,AMNE18.jpg,MN,1,num_4,16,num_4,0.750129659194,,,2017_Apr_11_1143,59.9999038318,FEMA4ImagesEEG,001,100163,
AFNE01.JPG,AFNE01.JPG,AFNE01.JPG,AFNE01.JPG,AFNE01.JPG,AFNE01.JPG,,,,,5,2,52,9,,,,,,,,,,,,,,,,,,,AMNE19.jpg,AMNE10.jpg,AMSA13.jpg,AMSA07.jpg,AMSA07.jpg,MS,2,num_4,32,num_8,0.750185467768,,,2017_Apr_11_1143,59.9999038318,FEMA4ImagesEEG,001,100163,
AFNE01.JPG,AFNE01.JPG,AFNE01.JPG,AFNE01.JPG,AFNE01.JPG,AFNE01.JPG,,,,,5,3,53,3,,,,,,,,,,,,,,,,,,,AMSA20.jpg,AMSA18.jpg,AMNE02.jpg,AMNE09.jpg,AMSA20.jpg,MS,2,num_8,32,num_4,0.783559716772,,,2017_Apr_11_1143,59.9999038318,FEMA4ImagesEEG,001,100163,
AFNE01.JPG,AFNE01.JPG,AFNE01.JPG,AFNE01.JPG,AFNE01.JPG,AFNE01.JPG,,,,,5,4,54,6,,,,,,,,,,,,,,,,,,,AMNE01.jpg,AMSA18.jpg,AMNE08.jpg,AMSA11.jpg,AMSA11.jpg,MS,2,num_4,16,num_4,0.76677893661,,,2017_Apr_11_1143,59.9999038318,FEMA4ImagesEEG,001,100163,
AFNE01.JPG,AFNE01.JPG,AFNE01.JPG,AFNE01.JPG,AFNE01.JPG,AFNE01.JPG,,,,,5,5,55,2,,,,,,,,,,,,,,,,,,,AMSA10.jpg,AMNE06.jpg,AMSA01.jpg,AMNE05.jpg,AMSA10.jpg,MS,2,num_8,16,num_8,0.783605262171,,,2017_Apr_11_1143,59.9999038318,FEMA4ImagesEEG,001,100163,
AFNE01.JPG,AFNE01.JPG,AFNE01.JPG,AFNE01.JPG,AFNE01.JPG,AFNE01.JPG,,,,,5,6,56,1,,,,,,,,,,,,,,,,,,,AMSA14.jpg,AMNE13.jpg,AMNE02.jpg,AMSA04.jpg,AMSA04.jpg,MS,2,num_4,32,num_8,0.900087016635,,,2017_Apr_11_1143,59.9999038318,FEMA4ImagesEEG,001,100163,
AFNE01.JPG,AFNE01.JPG,AFNE01.JPG,AFNE01.JPG,AFNE01.JPG,AFNE01.JPG,,,,,5,7,57,5,,,,,,,,,,,,,,,,,,,AMSA20.jpg,AMNE02.jpg,AMSA01.jpg,AMNE10.jpg,AMSA01.jpg,MS,2,num_2,32,num_4,0.716816992033,,,2017_Apr_11_1143,59.9999038318,FEMA4ImagesEEG,001,100163,
AFNE01.JPG,AFNE01.JPG,AFNE01.JPG,AFNE01.JPG,AFNE01.JPG,AFNE01.JPG,,,,,5,8,58,0,,,,,,,,,,,,,,,,,,,AMNE18.jpg,AMSA06.jpg,AMNE16.jpg,AMSA10.jpg,AMSA10.jpg,MS,2,num_4,32,num_8,1.10264087468,,,2017_Apr_11_1143,59.9999038318,FEMA4ImagesEEG,001,100163,
AFNE01.JPG,AFNE01.JPG,AFNE01.JPG,AFNE01.JPG,AFNE01.JPG,AFNE01.JPG,,,,,5,9,59,4,,,,,,,,,,,,,,,,,,,AMNE07.jpg,AMSA06.jpg,AMNE02.jpg,AMSA19.jpg,AMSA06.jpg,MS,2,num_6,16,num_6,0.6331369658,,,2017_Apr_11_1143,59.9999038318,FEMA4ImagesEEG,001,100163,
,,,,,,,,,,,,,,,,,,,,,,,,,,,,,,,,,,,,,,,,,,,space,17.1824383466,2017_Apr_11_1143,59.9999038318,FEMA4ImagesEEG,001,100163,
AFNE01.JPG,AFNE01.JPG,AFNE01.JPG,AFNE01.JPG,AFNE01.JPG,AFNE01.JPG,,,,,,,,,0,0,0,9,,,,,,,,,,,,,,,AFSA20.jpg,AFNE17.jpg,AFSA05.jpg,AFNE05.jpg,AFNE05.jpg,FN,3,num_4,32,num_6,1.16672145994,,,2017_Apr_11_1143,59.9999038318,FEMA4ImagesEEG,001,100163,
AFNE01.JPG,AFNE01.JPG,AFNE01.JPG,AFNE01.JPG,AFNE01.JPG,AFNE01.JPG,,,,,,,,,0,1,1,6,,,,,,,,,,,,,,,AFNE03.jpg,AFSA04.jpg,AFNE08.jpg,AFSA03.jpg,AFNE03.jpg,FN,3,num_8,16,num_8,0.750120678451,,,2017_Apr_11_1143,59.9999038318,FEMA4ImagesEEG,001,100163,
AFNE01.JPG,AFNE01.JPG,AFNE01.JPG,AFNE01.JPG,AFNE01.JPG,AFNE01.JPG,,,,,,,,,0,2,2,1,,,,,,,,,,,,,,,AFNE01.jpg,AFNE05.jpg,AFSA12.jpg,AFSA18.jpg,AFSA12.jpg,FS,4,num_2,16,num_2,0.583493516315,,,2017_Apr_11_1143,59.9999038318,FEMA4ImagesEEG,001,100163,
AFNE01.JPG,AFNE01.JPG,AFNE01.JPG,AFNE01.JPG,AFNE01.JPG,AFNE01.JPG,,,,,,,,,0,3,3,5,,,,,,,,,,,,,,,AFSA02.jpg,AFNE07.jpg,AFNE01.jpg,AFSA17.jpg,AFNE07.jpg,FN,3,num_6,16,num_6,0.500165982638,,,2017_Apr_11_1143,59.9999038318,FEMA4ImagesEEG,001,100163,
AFNE01.JPG,AFNE01.JPG,AFNE01.JPG,AFNE01.JPG,AFNE01.JPG,AFNE01.JPG,,,,,,,,,0,4,4,2,,,,,,,,,,,,,,,AFSA19.jpg,AFSA20.jpg,AFNE19.jpg,AFNE17.jpg,AFSA20.jpg,FS,4,num_6,32,num_4,1.19994496088,,,2017_Apr_11_1143,59.9999038318,FEMA4ImagesEEG,001,100163,
AFNE01.JPG,AFNE01.JPG,AFNE01.JPG,AFNE01.JPG,AFNE01.JPG,AFNE01.JPG,,,,,,,,,0,5,5,0,,,,,,,,,,,,,,,AFNE06.jpg,AFSA11.jpg,AFNE15.jpg,AFSA10.jpg,AFNE15.jpg,FN,3,num_2,32,num_8,1.21673408104,,,2017_Apr_11_1143,59.9999038318,FEMA4ImagesEEG,001,100163,
AFNE01.JPG,AFNE01.JPG,AFNE01.JPG,AFNE01.JPG,AFNE01.JPG,AFNE01.JPG,,,,,,,,,0,6,6,3,,,,,,,,,,,,,,,AFSA06.jpg,AFSA10.jpg,AFNE07.jpg,AFNE12.jpg,AFNE07.jpg,FN,3,num_2,32,num_6,0.966712671332,,,2017_Apr_11_1143,59.9999038318,FEMA4ImagesEEG,001,100163,
AFNE01.JPG,AFNE01.JPG,AFNE01.JPG,AFNE01.JPG,AFNE01.JPG,AFNE01.JPG,,,,,,,,,0,7,7,4,,,,,,,,,,,,,,,AFNE12.jpg,AFSA08.jpg,AFSA04.jpg,AFNE02.jpg,AFSA08.jpg,FS,4,num_6,16,num_6,0.866763765458,,,2017_Apr_11_1143,59.9999038318,FEMA4ImagesEEG,001,100163,
AFNE01.JPG,AFNE01.JPG,AFNE01.JPG,AFNE01.JPG,AFNE01.JPG,AFNE01.JPG,,,,,,,,,0,8,8,7,,,,,,,,,,,,,,,AFSA12.jpg,AFNE10.jpg,AFNE16.jpg,AFSA07.jpg,AFNE10.jpg,FN,3,num_6,32,num_4,1.58336137095,,,2017_Apr_11_1143,59.9999038318,FEMA4ImagesEEG,001,100163,
AFNE01.JPG,AFNE01.JPG,AFNE01.JPG,AFNE01.JPG,AFNE01.JPG,AFNE01.JPG,,,,,,,,,0,9,9,8,,,,,,,,,,,,,,,AFNE07.jpg,AFNE01.jpg,AFSA06.jpg,AFSA12.jpg,AFSA06.jpg,FS,4,num_2,16,num_2,1.10003518499,,,2017_Apr_11_1143,59.9999038318,FEMA4ImagesEEG,001,100163,
AFNE01.JPG,AFNE01.JPG,AFNE01.JPG,AFNE01.JPG,AFNE01.JPG,AFNE01.JPG,,,,,,,,,1,0,10,0,,,,,,,,,,,,,,,AFNE01.jpg,AFNE15.jpg,AFSA18.jpg,AFSA10.jpg,AFNE15.jpg,FN,3,num_6,16,num_6,0.783429176081,,,2017_Apr_11_1143,59.9999038318,FEMA4ImagesEEG,001,100163,
AFNE01.JPG,AFNE01.JPG,AFNE01.JPG,AFNE01.JPG,AFNE01.JPG,AFNE01.JPG,,,,,,,,,1,1,11,5,,,,,,,,,,,,,,,AFNE03.jpg,AFSA11.jpg,AFNE04.jpg,AFSA02.jpg,AFSA11.jpg,FS,4,num_6,16,num_6,1.1500551831,,,2017_Apr_11_1143,59.9999038318,FEMA4ImagesEEG,001,100163,
AFNE01.JPG,AFNE01.JPG,AFNE01.JPG,AFNE01.JPG,AFNE01.JPG,AFNE01.JPG,,,,,,,,,1,2,12,7,,,,,,,,,,,,,,,AFSA20.jpg,AFSA04.jpg,AFNE20.jpg,AFNE08.jpg,AFSA20.jpg,FS,4,num_8,16,num_8,0.58349383669,,,2017_Apr_11_1143,59.9999038318,FEMA4ImagesEEG,001,100163,
AFNE01.JPG,AFNE01.JPG,AFNE01.JPG,AFNE01.JPG,AFNE01.JPG,AFNE01.JPG,,,,,,,,,1,3,13,1,,,,,,,,,,,,,,,AFNE20.jpg,AFSA18.jpg,AFNE17.jpg,AFSA19.jpg,AFSA19.jpg,FS,4,num_4,16,num_4,0.850004153792,,,2017_Apr_11_1143,59.9999038318,FEMA4ImagesEEG,001,100163,
AFNE01.JPG,AFNE01.JPG,AFNE01.JPG,AFNE01.JPG,AFNE01.JPG,AFNE01.JPG,,,,,,,,,1,4,14,3,,,,,,,,,,,,,,,AFNE07.jpg,AFSA06.jpg,AFSA10.jpg,AFNE10.jpg,AFNE07.jpg,FN,3,num_8,16,num_8,0.78313345369,,,2017_Apr_11_1143,59.9999038318,FEMA4ImagesEEG,001,100163,
AFNE01.JPG,AFNE01.JPG,AFNE01.JPG,AFNE01.JPG,AFNE01.JPG,AFNE01.JPG,,,,,,,,,1,5,15,8,,,,,,,,,,,,,,,AFNE02.jpg,AFNE03.jpg,AFSA12.jpg,AFSA01.jpg,AFNE03.jpg,FN,3,num_6,16,num_6,0.733461137861,,,2017_Apr_11_1143,59.9999038318,FEMA4ImagesEEG,001,100163,
AFNE01.JPG,AFNE01.JPG,AFNE01.JPG,AFNE01.JPG,AFNE01.JPG,AFNE01.JPG,,,,,,,,,1,6,16,2,,,,,,,,,,,,,,,AFNE01.jpg,AFSA18.jpg,AFNE06.jpg,AFSA06.jpg,AFSA18.jpg,FS,4,num_6,16,num_6,0.850165806245,,,2017_Apr_11_1143,59.9999038318,FEMA4ImagesEEG,001,100163,
AFNE01.JPG,AFNE01.JPG,AFNE01.JPG,AFNE01.JPG,AFNE01.JPG,AFNE01.JPG,,,,,,,,,1,7,17,4,,,,,,,,,,,,,,,AFSA19.jpg,AFSA20.jpg,AFNE08.jpg,AFNE11.jpg,AFNE08.jpg,FN,3,num_2,16,num_2,0.683481552172,,,2017_Apr_11_1143,59.9999038318,FEMA4ImagesEEG,001,100163,
AFNE01.JPG,AFNE01.JPG,AFNE01.JPG,AFNE01.JPG,AFNE01.JPG,AFNE01.JPG,,,,,,,,,1,8,18,9,,,,,,,,,,,,,,,AFNE14.jpg,AFSA02.jpg,AFNE07.jpg,AFSA17.jpg,AFNE07.jpg,FN,3,num_2,32,num_8,0.800104111899,,,2017_Apr_11_1143,59.9999038318,FEMA4ImagesEEG,001,100163,
AFNE01.JPG,AFNE01.JPG,AFNE01.JPG,AFNE01.JPG,AFNE01.JPG,AFNE01.JPG,,,,,,,,,1,9,19,6,,,,,,,,,,,,,,,AFNE18.jpg,AFSA19.jpg,AFNE13.jpg,AFSA10.jpg,AFSA10.jpg,FS,4,num_4,16,num_4,0.633446479682,,,2017_Apr_11_1143,59.9999038318,FEMA4ImagesEEG,001,100163,
AFNE01.JPG,AFNE01.JPG,AFNE01.JPG,AFNE01.JPG,AFNE01.JPG,AFNE01.JPG,,,,,,,,,2,0,20,5,,,,,,,,,,,,,,,AFNE07.jpg,AFSA08.jpg,AFSA17.jpg,AFNE14.jpg,AFSA08.jpg,FS,4,num_6,32,num_8,0.766772521194,,,2017_Apr_11_1143,59.9999038318,FEMA4ImagesEEG,001,100163,
AFNE01.JPG,AFNE01.JPG,AFNE01.JPG,AFNE01.JPG,AFNE01.JPG,AFNE01.JPG,,,,,,,,,2,1,21,6,,,,,,,,,,,,,,,AFSA07.jpg,AFNE01.jpg,AFSA02.jpg,AFNE19.jpg,AFSA02.jpg,FS,4,num_2,32,num_4,0.416790017392,,,2017_Apr_11_1143,59.9999038318,FEMA4ImagesEEG,001,100163,
AFNE01.JPG,AFNE01.JPG,AFNE01.JPG,AFNE01.JPG,AFNE01.JPG,AFNE01.JPG,,,,,,,,,2,2,22,2,,,,,,,,,,,,,,,AFSA10.jpg,AFNE01.jpg,AFSA01.jpg,AFNE03.jpg,AFNE01.jpg,FN,3,num_6,16,num_6,0.71679806849,,,2017_Apr_11_1143,59.9999038318,FEMA4ImagesEEG,001,100163,
AFNE01.JPG,AFNE01.JPG,AFNE01.JPG,AFNE01.JPG,AFNE01.JPG,AFNE01.JPG,,,,,,,,,2,3,23,7,,,,,,,,,,,,,,,AFNE13.jpg,AFNE06.jpg,AFSA10.jpg,AFSA17.jpg,AFNE06.jpg,FN,3,num_6,16,num_6,1.21675492916,,,2017_Apr_11_1143,59.9999038318,FEMA4ImagesEEG,001,100163,
AFNE01.JPG,AFNE01.JPG,AFNE01.JPG,AFNE01.JPG,AFNE01.JPG,AFNE01.JPG,,,,,,,,,2,4,24,9,,,,,,,,,,,,,,,AFNE16.jpg,AFSA07.jpg,AFSA20.jpg,AFNE02.jpg,AFSA07.jpg,FS,4,num_6,16,num_6,1.01677147904,,,2017_Apr_11_1143,59.9999038318,FEMA4ImagesEEG,001,100163,
AFNE01.JPG,AFNE01.JPG,AFNE01.JPG,AFNE01.JPG,AFNE01.JPG,AFNE01.JPG,,,,,,,,,2,5,25,8,,,,,,,,,,,,,,,AFSA03.jpg,AFSA17.jpg,AFNE10.jpg,AFNE08.jpg,AFSA17.jpg,FS,4,num_6,16,num_6,0.883458908182,,,2017_Apr_11_1143,59.9999038318,FEMA4ImagesEEG,001,100163,
AFNE01.JPG,AFNE01.JPG,AFNE01.JPG,AFNE01.JPG,AFNE01.JPG,AFNE01.JPG,,,,,,,,,2,6,26,4,,,,,,,,,,,,,,,AFNE05.jpg,AFSA05.jpg,AFNE18.jpg,AFSA09.jpg,AFSA09.jpg,FS,4,num_4,16,num_4,0.583319354337,,,2017_Apr_11_1143,59.9999038318,FEMA4ImagesEEG,001,100163,
AFNE01.JPG,AFNE01.JPG,AFNE01.JPG,AFNE01.JPG,AFNE01.JPG,AFNE01.JPG,,,,,,,,,2,7,27,3,,,,,,,,,,,,,,,AFNE19.jpg,AFSA08.jpg,AFNE10.jpg,AFSA06.jpg,AFSA08.jpg,FS,4,num_6,16,num_6,1.20013772557,,,2017_Apr_11_1143,59.9999038318,FEMA4ImagesEEG,001,100163,
AFNE01.JPG,AFNE01.JPG,AFNE01.JPG,AFNE01.JPG,AFNE01.JPG,AFNE01.JPG,,,,,,,,,2,8,28,0,,,,,,,,,,,,,,,AFNE18.jpg,AFNE16.jpg,AFSA04.jpg,AFSA01.jpg,AFSA01.jpg,FS,4,num_4,16,num_4,0.716769843362,,,2017_Apr_11_1143,59.9999038318,FEMA4ImagesEEG,001,100163,
AFNE01.JPG,AFNE01.JPG,AFNE01.JPG,AFNE01.JPG,AFNE01.JPG,AFNE01.JPG,,,,,,,,,2,9,29,1,,,,,,,,,,,,,,,AFNE20.jpg,AFNE09.jpg,AFSA03.jpg,AFSA16.jpg,AFNE09.jpg,FN,3,num_6,16,num_6,0.700159375556,,,2017_Apr_11_1143,59.9999038318,FEMA4ImagesEEG,001,100163,
AFNE01.JPG,AFNE01.JPG,AFNE01.JPG,AFNE01.JPG,AFNE01.JPG,AFNE01.JPG,,,,,,,,,3,0,30,8,,,,,,,,,,,,,,,AFSA16.jpg,AFNE19.jpg,AFSA11.jpg,AFNE07.jpg,AFSA16.jpg,FS,4,num_8,32,num_6,1.46671090741,,,2017_Apr_11_1143,59.9999038318,FEMA4ImagesEEG,001,100163,
AFNE01.JPG,AFNE01.JPG,AFNE01.JPG,AFNE01.JPG,AFNE01.JPG,AFNE01.JPG,,,,,,,,,3,1,31,3,,,,,,,,,,,,,,,AFNE18.jpg,AFNE03.jpg,AFSA20.jpg,AFSA01.jpg,AFNE18.jpg,FN,3,num_8,16,num_8,0.800153505988,,,2017_Apr_11_1143,59.9999038318,FEMA4ImagesEEG,001,100163,
AFNE01.JPG,AFNE01.JPG,AFNE01.JPG,AFNE01.JPG,AFNE01.JPG,AFNE01.JPG,,,,,,,,,3,2,32,0,,,,,,,,,,,,,,,AFSA02.jpg,AFSA05.jpg,AFNE09.jpg,AFNE14.jpg,AFSA05.jpg,FS,4,num_6,16,num_6,0.600146000739,,,2017_Apr_11_1143,59.9999038318,FEMA4ImagesEEG,001,100163,
AFNE01.JPG,AFNE01.JPG,AFNE01.JPG,AFNE01.JPG,AFNE01.JPG,AFNE01.JPG,,,,,,,,,3,3,33,9,,,,,,,,,,,,,,,AFSA20.jpg,AFSA04.jpg,AFNE20.jpg,AFNE02.jpg,AFSA04.jpg,FS,4,num_6,16,num_6,0.450111024082,,,2017_Apr_11_1143,59.9999038318,FEMA4ImagesEEG,001,100163,
AFNE01.JPG,AFNE01.JPG,AFNE01.JPG,AFNE01.JPG,AFNE01.JPG,AFNE01.JPG,,,,,,,,,3,4,34,4,,,,,,,,,,,,,,,AFSA08.jpg,AFSA14.jpg,AFNE03.jpg,AFNE02.jpg,AFNE02.jpg,FN,3,num_4,32,num_2,1.55005800538,,,2017_Apr_11_1143,59.9999038318,FEMA4ImagesEEG,001,100163,
AFNE01.JPG,AFNE01.JPG,AFNE01.JPG,AFNE01.JPG,AFNE01.JPG,AFNE01.JPG,,,,,,,,,3,5,35,6,,,,,,,,,,,,,,,AFSA19.jpg,AFSA16.jpg,AFNE13.jpg,AFNE10.jpg,AFSA19.jpg,FS,4,num_8,16,num_8,1.30008951854,,,2017_Apr_11_1143,59.9999038318,FEMA4ImagesEEG,001,100163,
AFNE01.JPG,AFNE01.JPG,AFNE01.JPG,AFNE01.JPG,AFNE01.JPG,AFNE01.JPG,,,,,,,,,3,6,36,1,,,,,,,,,,,,,,,AFNE06.jpg,AFSA05.jpg,AFNE02.jpg,AFSA13.jpg,AFSA13.jpg,FS,4,num_4,16,num_4,0.750151790213,,,2017_Apr_11_1143,59.9999038318,FEMA4ImagesEEG,001,100163,
AFNE01.JPG,AFNE01.JPG,AFNE01.JPG,AFNE01.JPG,AFNE01.JPG,AFNE01.JPG,,,,,,,,,3,7,37,2,,,,,,,,,,,,,,,AFSA19.jpg,AFNE04.jpg,AFNE10.jpg,AFSA18.jpg,AFSA19.jpg,FS,4,num_8,16,num_8,0.866785896011,,,2017_Apr_11_1143,59.9999038318,FEMA4ImagesEEG,001,100163,
AFNE01.JPG,AFNE01.JPG,AFNE01.JPG,AFNE01.JPG,AFNE01.JPG,AFNE01.JPG,,,,,,,,,3,8,38,7,,,,,,,,,,,,,,,AFSA13.jpg,AFSA14.jpg,AFNE15.jpg,AFNE11.jpg,AFSA14.jpg,FS,4,num_6,16,num_6,1.03346886719,,,2017_Apr_11_1143,59.9999038318,FEMA4ImagesEEG,001,100163,
AFNE01.JPG,AFNE01.JPG,AFNE01.JPG,AFNE01.JPG,AFNE01.JPG,AFNE01.JPG,,,,,,,,,3,9,39,5,,,,,,,,,,,,,,,AFSA01.jpg,AFSA07.jpg,AFNE18.jpg,AFNE05.jpg,AFNE05.jpg,FN,3,num_4,32,num_6,0.733461779077,,,2017_Apr_11_1143,59.9999038318,FEMA4ImagesEEG,001,100163,
AFNE01.JPG,AFNE01.JPG,AFNE01.JPG,AFNE01.JPG,AFNE01.JPG,AFNE01.JPG,,,,,,,,,4,0,40,1,,,,,,,,,,,,,,,AFSA17.jpg,AFSA06.jpg,AFNE11.jpg,AFNE08.jpg,AFSA17.jpg,FS,4,num_8,32,num_2,1.06673887558,,,2017_Apr_11_1143,59.9999038318,FEMA4ImagesEEG,001,100163,
AFNE01.JPG,AFNE01.JPG,AFNE01.JPG,AFNE01.JPG,AFNE01.JPG,AFNE01.JPG,,,,,,,,,4,1,41,3,,,,,,,,,,,,,,,AFNE17.jpg,AFSA14.jpg,AFNE09.jpg,AFSA15.jpg,AFNE09.jpg,FN,3,num_2,32,num_6,0.666793786921,,,2017_Apr_11_1143,59.9999038318,FEMA4ImagesEEG,001,100163,
AFNE01.JPG,AFNE01.JPG,AFNE01.JPG,AFNE01.JPG,AFNE01.JPG,AFNE01.JPG,,,,,,,,,4,2,42,4,,,,,,,,,,,,,,,AFSA12.jpg,AFSA05.jpg,AFNE08.jpg,AFNE06.jpg,AFNE06.jpg,FN,3,num_4,32,num_2,0.883445437066,,,2017_Apr_11_1143,59.9999038318,FEMA4ImagesEEG,001,100163,
AFNE01.JPG,AFNE01.JPG,AFNE01.JPG,AFNE01.JPG,AFNE01.JPG,AFNE01.JPG,,,,,,,,,4,3,43,9,,,,,,,,,,,,,,,AFSA14.jpg,AFNE20.jpg,AFSA11.jpg,AFNE03.jpg,AFSA14.jpg,FS,4,num_8,16,num_8,0.933476981707,,,2017_Apr_11_1143,59.9999038318,FEMA4ImagesEEG,001,100163,
AFNE01.JPG,AFNE01.JPG,AFNE01.JPG,AFNE01.JPG,AFNE01.JPG,AFNE01.JPG,,,,,,,,,4,4,44,6,,,,,,,,,,,,,,,AFSA05.jpg,AFNE09.jpg,AFNE03.jpg,AFSA15.jpg,AFSA05.jpg,FS,4,num_8,32,num_6,0.916949265171,,,2017_Apr_11_1143,59.9999038318,FEMA4ImagesEEG,001,100163,
AFNE01.JPG,AFNE01.JPG,AFNE01.JPG,AFNE01.JPG,AFNE01.JPG,AFNE01.JPG,,,,,,,,,4,5,45,7,,,,,,,,,,,,,,,AFNE20.jpg,AFNE02.jpg,AFSA04.jpg,AFSA19.jpg,AFSA04.jpg,FS,4,num_2,32,num_8,1.51670588786,,,2017_Apr_11_1143,59.9999038318,FEMA4ImagesEEG,001,100163,
AFNE01.JPG,AFNE01.JPG,AFNE01.JPG,AFNE01.JPG,AFNE01.JPG,AFNE01.JPG,,,,,,,,,4,6,46,2,,,,,,,,,,,,,,,AFSA11.jpg,AFSA19.jpg,AFNE06.jpg,AFNE03.jpg,AFNE06.jpg,FN,3,num_2,32,num_4,1.55021805502,,,2017_Apr_11_1143,59.9999038318,FEMA4ImagesEEG,001,100163,
AFNE01.JPG,AFNE01.JPG,AFNE01.JPG,AFNE01.JPG,AFNE01.JPG,AFNE01.JPG,,,,,,,,,4,7,47,8,,,,,,,,,,,,,,,AFNE11.jpg,AFSA19.jpg,AFNE05.jpg,AFSA13.jpg,AFNE05.jpg,FN,3,num_2,32,num_6,1.01673299028,,,2017_Apr_11_1143,59.9999038318,FEMA4ImagesEEG,001,100163,
AFNE01.JPG,AFNE01.JPG,AFNE01.JPG,AFNE01.JPG,AFNE01.JPG,AFNE01.JPG,,,,,,,,,4,8,48,0,,,,,,,,,,,,,,,AFNE19.jpg,AFSA16.jpg,AFSA19.jpg,AFNE07.jpg,AFNE07.jpg,FN,3,num_4,16,num_4,0.700139810331,,,2017_Apr_11_1143,59.9999038318,FEMA4ImagesEEG,001,100163,
AFNE01.JPG,AFNE01.JPG,AFNE01.JPG,AFNE01.JPG,AFNE01.JPG,AFNE01.JPG,,,,,,,,,4,9,49,5,,,,,,,,,,,,,,,AFSA08.jpg,AFNE17.jpg,AFSA09.jpg,AFNE05.jpg,AFNE05.jpg,FN,3,num_4,32,num_6,0.766751993913,,,2017_Apr_11_1143,59.9999038318,FEMA4ImagesEEG,001,100163,
AFNE01.JPG,AFNE01.JPG,AFNE01.JPG,AFNE01.JPG,AFNE01.JPG,AFNE01.JPG,,,,,,,,,5,0,50,4,,,,,,,,,,,,,,,AFSA14.jpg,AFNE15.jpg,AFNE20.jpg,AFSA09.jpg,AFSA09.jpg,FS,4,num_4,16,num_4,0.783473116811,,,2017_Apr_11_1143,59.9999038318,FEMA4ImagesEEG,001,100163,
AFNE01.JPG,AFNE01.JPG,AFNE01.JPG,AFNE01.JPG,AFNE01.JPG,AFNE01.JPG,,,,,,,,,5,1,51,1,,,,,,,,,,,,,,,AFNE16.jpg,AFSA14.jpg,AFSA16.jpg,AFNE19.jpg,AFNE19.jpg,FN,3,num_4,32,num_8,0.650138094556,,,2017_Apr_11_1143,59.9999038318,FEMA4ImagesEEG,001,100163,
AFNE01.JPG,AFNE01.JPG,AFNE01.JPG,AFNE01.JPG,AFNE01.JPG,AFNE01.JPG,,,,,,,,,5,2,52,2,,,,,,,,,,,,,,,AFSA02.jpg,AFNE17.jpg,AFNE07.jpg,AFSA14.jpg,AFNE17.jpg,FN,3,num_6,16,num_6,0.616833125241,,,2017_Apr_11_1143,59.9999038318,FEMA4ImagesEEG,001,100163,
AFNE01.JPG,AFNE01.JPG,AFNE01.JPG,AFNE01.JPG,AFNE01.JPG,AFNE01.JPG,,,,,,,,,5,3,53,3,,,,,,,,,,,,,,,AFNE01.jpg,AFNE19.jpg,AFSA02.jpg,AFSA08.jpg,AFNE01.jpg,FN,3,num_8,16,num_8,0.683350370266,,,2017_Apr_11_1143,59.9999038318,FEMA4ImagesEEG,001,100163,
AFNE01.JPG,AFNE01.JPG,AFNE01.JPG,AFNE01.JPG,AFNE01.JPG,AFNE01.JPG,,,,,,,,,5,4,54,5,,,,,,,,,,,,,,,AFSA05.jpg,AFSA03.jpg,AFNE02.jpg,AFNE13.jpg,AFNE13.jpg,FN,3,num_4,32,num_8,0.866673316341,,,2017_Apr_11_1143,59.9999038318,FEMA4ImagesEEG,001,100163,
AFNE01.JPG,AFNE01.JPG,AFNE01.JPG,AFNE01.JPG,AFNE01.JPG,AFNE01.JPG,,,,,,,,,5,5,55,7,,,,,,,,,,,,,,,AFNE12.jpg,AFSA04.jpg,AFNE04.jpg,AFSA15.jpg,AFNE12.jpg,FN,3,num_8,16,num_8,0.783431741409,,,2017_Apr_11_1143,59.9999038318,FEMA4ImagesEEG,001,100163,
AFNE01.JPG,AFNE01.JPG,AFNE01.JPG,AFNE01.JPG,AFNE01.JPG,AFNE01.JPG,,,,,,,,,5,6,56,9,,,,,,,,,,,,,,,AFSA01.jpg,AFSA10.jpg,AFNE20.jpg,AFNE06.jpg,AFNE20.jpg,FN,3,num_2,32,num_4,0.683617867064,,,2017_Apr_11_1143,59.9999038318,FEMA4ImagesEEG,001,100163,
AFNE01.JPG,AFNE01.JPG,AFNE01.JPG,AFNE01.JPG,AFNE01.JPG,AFNE01.JPG,,,,,,,,,5,7,57,8,,,,,,,,,,,,,,,AFSA04.jpg,AFNE04.jpg,AFSA03.jpg,AFNE01.jpg,AFNE04.jpg,FN,3,num_6,16,num_6,0.916737897322,,,2017_Apr_11_1143,59.9999038318,FEMA4ImagesEEG,001,100163,
AFNE01.JPG,AFNE01.JPG,AFNE01.JPG,AFNE01.JPG,AFNE01.JPG,AFNE01.JPG,,,,,,,,,5,8,58,6,,,,,,,,,,,,,,,AFNE14.jpg,AFSA08.jpg,AFNE10.jpg,AFSA17.jpg,AFSA17.jpg,FS,4,num_4,32,num_6,0.883448003326,,,2017_Apr_11_1143,59.9999038318,FEMA4ImagesEEG,001,100163,
AFNE01.JPG,AFNE01.JPG,AFNE01.JPG,AFNE01.JPG,AFNE01.JPG,AFNE01.JPG,,,,,,,,,5,9,59,0,,,,,,,,,,,,,,,AFSA10.jpg,AFNE17.jpg,AFSA15.jpg,AFNE13.jpg,AFSA15.jpg,FS,4,num_2,16,num_2,1.01671021758,,,2017_Apr_11_1143,59.9999038318,FEMA4ImagesEEG,001,100163,
,,,,,,,,,,,,,,,,,,,,,,,,,,,,,,,,,,,,,,,,,,,space,31.6644199924,2017_Apr_11_1143,59.9999038318,FEMA4ImagesEEG,001,100163,
AFNE01.JPG,AFNE01.JPG,AFNE01.JPG,AFNE01.JPG,AFNE01.JPG,AFNE01.JPG,,,,,,,,,,,,,0,0,0,4,,,,,,,,,,,AMSA04.jpg,AMNE20.jpg,AMSA13.jpg,AMNE10.jpg,AMNE20.jpg,MN,1,num_6,16,num_6,1.1167838918,,,2017_Apr_11_1143,59.9999038318,FEMA4ImagesEEG,001,100163,
AFNE01.JPG,AFNE01.JPG,AFNE01.JPG,AFNE01.JPG,AFNE01.JPG,AFNE01.JPG,,,,,,,,,,,,,0,1,1,0,,,,,,,,,,,AMNE09.jpg,AMSA05.jpg,AMSA13.jpg,AMNE11.jpg,AMSA13.jpg,MS,2,num_2,32,num_6,0.783467985224,,,2017_Apr_11_1143,59.9999038318,FEMA4ImagesEEG,001,100163,
AFNE01.JPG,AFNE01.JPG,AFNE01.JPG,AFNE01.JPG,AFNE01.JPG,AFNE01.JPG,,,,,,,,,,,,,0,2,2,9,,,,,,,,,,,AMNE07.jpg,AMSA04.jpg,AMNE09.jpg,AMSA08.jpg,AMNE07.jpg,MN,1,num_8,16,num_8,0.800135865342,,,2017_Apr_11_1143,59.9999038318,FEMA4ImagesEEG,001,100163,
AFNE01.JPG,AFNE01.JPG,AFNE01.JPG,AFNE01.JPG,AFNE01.JPG,AFNE01.JPG,,,,,,,,,,,,,0,3,3,3,,,,,,,,,,,AMSA16.jpg,AMSA03.jpg,AMNE12.jpg,AMNE14.jpg,AMNE14.jpg,MN,1,num_4,16,num_4,1.1834194893,,,2017_Apr_11_1143,59.9999038318,FEMA4ImagesEEG,001,100163,
AFNE01.JPG,AFNE01.JPG,AFNE01.JPG,AFNE01.JPG,AFNE01.JPG,AFNE01.JPG,,,,,,,,,,,,,0,4,4,8,,,,,,,,,,,AMNE05.jpg,AMSA18.jpg,AMSA02.jpg,AMNE20.jpg,AMNE20.jpg,MN,1,num_4,32,num_8,0.683495023753,,,2017_Apr_11_1143,59.9999038318,FEMA4ImagesEEG,001,100163,
AFNE01.JPG,AFNE01.JPG,AFNE01.JPG,AFNE01.JPG,AFNE01.JPG,AFNE01.JPG,,,,,,,,,,,,,0,5,5,5,,,,,,,,,,,AMSA04.jpg,AMSA20.jpg,AMNE11.jpg,AMNE20.jpg,AMNE20.jpg,MN,1,num_4,16,num_4,0.60015017027,,,2017_Apr_11_1143,59.9999038318,FEMA4ImagesEEG,001,100163,
AFNE01.JPG,AFNE01.JPG,AFNE01.JPG,AFNE01.JPG,AFNE01.JPG,AFNE01.JPG,,,,,,,,,,,,,0,6,6,6,,,,,,,,,,,AMNE10.jpg,AMSA10.jpg,AMNE02.jpg,AMSA02.jpg,AMNE02.jpg,MN,1,num_2,16,num_2,1.66677293833,,,2017_Apr_11_1143,59.9999038318,FEMA4ImagesEEG,001,100163,
AFNE01.JPG,AFNE01.JPG,AFNE01.JPG,AFNE01.JPG,AFNE01.JPG,AFNE01.JPG,,,,,,,,,,,,,0,7,7,2,,,,,,,,,,,AMNE08.jpg,AMSA08.jpg,AMSA06.jpg,AMNE05.jpg,AMNE05.jpg,MN,1,num_4,16,num_4,1.08314407011,,,2017_Apr_11_1143,59.9999038318,FEMA4ImagesEEG,001,100163,
AFNE01.JPG,AFNE01.JPG,AFNE01.JPG,AFNE01.JPG,AFNE01.JPG,AFNE01.JPG,,,,,,,,,,,,,0,8,8,1,,,,,,,,,,,AMNE01.jpg,AMNE12.jpg,AMSA18.jpg,AMSA06.jpg,AMNE01.jpg,MN,1,num_8,16,num_8,0.500133587979,,,2017_Apr_11_1143,59.9999038318,FEMA4ImagesEEG,001,100163,
AFNE01.JPG,AFNE01.JPG,AFNE01.JPG,AFNE01.JPG,AFNE01.JPG,AFNE01.JPG,,,,,,,,,,,,,0,9,9,7,,,,,,,,,,,AMSA14.jpg,AMSA06.jpg,AMNE03.jpg,AMNE19.jpg,AMSA14.jpg,MS,2,num_8,16,num_8,0.950103486422,,,2017_Apr_11_1143,59.9999038318,FEMA4ImagesEEG,001,100163,
AFNE01.JPG,AFNE01.JPG,AFNE01.JPG,AFNE01.JPG,AFNE01.JPG,AFNE01.JPG,,,,,,,,,,,,,1,0,10,0,,,,,,,,,,,AMNE04.jpg,AMSA08.jpg,AMNE14.jpg,AMSA17.jpg,AMSA17.jpg,MS,2,num_4,32,num_6,1.05018165102,,,2017_Apr_11_1143,59.9999038318,FEMA4ImagesEEG,001,100163,
AFNE01.JPG,AFNE01.JPG,AFNE01.JPG,AFNE01.JPG,AFNE01.JPG,AFNE01.JPG,,,,,,,,,,,,,1,1,11,1,,,,,,,,,,,AMSA13.jpg,AMSA11.jpg,AMNE14.jpg,AMNE09.jpg,AMSA11.jpg,MS,2,num_6,16,num_6,0.550123116001,,,2017_Apr_11_1143,59.9999038318,FEMA4ImagesEEG,001,100163,
AFNE01.JPG,AFNE01.JPG,AFNE01.JPG,AFNE01.JPG,AFNE01.JPG,AFNE01.JPG,,,,,,,,,,,,,1,2,12,4,,,,,,,,,,,AMNE20.jpg,AMNE17.jpg,AMSA19.jpg,AMSA04.jpg,AMSA19.jpg,MS,2,num_2,16,num_2,1.15007699374,,,2017_Apr_11_1143,59.9999038318,FEMA4ImagesEEG,001,100163,
AFNE01.JPG,AFNE01.JPG,AFNE01.JPG,AFNE01.JPG,AFNE01.JPG,AFNE01.JPG,,,,,,,,,,,,,1,3,13,2,,,,,,,,,,,AMNE20.jpg,AMSA19.jpg,AMSA20.jpg,AMNE12.jpg,AMNE20.jpg,MN,1,num_8,16,num_8,0.750137356576,,,2017_Apr_11_1143,59.9999038318,FEMA4ImagesEEG,001,100163,
AFNE01.JPG,AFNE01.JPG,AFNE01.JPG,AFNE01.JPG,AFNE01.JPG,AFNE01.JPG,,,,,,,,,,,,,1,4,14,7,,,,,,,,,,,AMNE12.jpg,AMNE18.jpg,AMSA04.jpg,AMSA07.jpg,AMSA04.jpg,MS,2,num_2,16,num_2,1.31751915533,,,2017_Apr_11_1143,59.9999038318,FEMA4ImagesEEG,001,100163,
AFNE01.JPG,AFNE01.JPG,AFNE01.JPG,AFNE01.JPG,AFNE01.JPG,AFNE01.JPG,,,,,,,,,,,,,1,5,15,9,,,,,,,,,,,AMSA13.jpg,AMSA02.jpg,AMNE05.jpg,AMNE16.jpg,AMSA13.jpg,MS,2,num_8,16,num_8,0.900100808125,,,2017_Apr_11_1143,59.9999038318,FEMA4ImagesEEG,001,100163,
AFNE01.JPG,AFNE01.JPG,AFNE01.JPG,AFNE01.JPG,AFNE01.JPG,AFNE01.JPG,,,,,,,,,,,,,1,6,16,6,,,,,,,,,,,AMSA11.jpg,AMSA20.jpg,AMNE17.jpg,AMNE11.jpg,AMSA20.jpg,MS,2,num_6,16,num_6,0.733492890373,,,2017_Apr_11_1143,59.9999038318,FEMA4ImagesEEG,001,100163,
AFNE01.JPG,AFNE01.JPG,AFNE01.JPG,AFNE01.JPG,AFNE01.JPG,AFNE01.JPG,,,,,,,,,,,,,1,7,17,5,,,,,,,,,,,AMSA17.jpg,AMSA11.jpg,AMNE12.jpg,AMNE02.jpg,AMNE12.jpg,MN,1,num_2,16,num_2,0.616784693208,,,2017_Apr_11_1143,59.9999038318,FEMA4ImagesEEG,001,100163,
AFNE01.JPG,AFNE01.JPG,AFNE01.JPG,AFNE01.JPG,AFNE01.JPG,AFNE01.JPG,,,,,,,,,,,,,1,8,18,8,,,,,,,,,,,AMSA18.jpg,AMNE18.jpg,AMNE03.jpg,AMSA03.jpg,AMNE03.jpg,MN,1,num_2,16,num_2,0.833458154462,,,2017_Apr_11_1143,59.9999038318,FEMA4ImagesEEG,001,100163,
AFNE01.JPG,AFNE01.JPG,AFNE01.JPG,AFNE01.JPG,AFNE01.JPG,AFNE01.JPG,,,,,,,,,,,,,1,9,19,3,,,,,,,,,,,AMNE07.jpg,AMSA17.jpg,AMSA19.jpg,AMNE19.jpg,AMNE07.jpg,MN,1,num_8,16,num_8,0.766802029684,,,2017_Apr_11_1143,59.9999038318,FEMA4ImagesEEG,001,100163,
AFNE01.JPG,AFNE01.JPG,AFNE01.JPG,AFNE01.JPG,AFNE01.JPG,AFNE01.JPG,,,,,,,,,,,,,2,0,20,5,,,,,,,,,,,AMSA07.jpg,AMSA19.jpg,AMNE07.jpg,AMNE14.jpg,AMSA07.jpg,MS,2,num_8,16,num_8,0.883416249882,,,2017_Apr_11_1143,59.9999038318,FEMA4ImagesEEG,001,100163,
AFNE01.JPG,AFNE01.JPG,AFNE01.JPG,AFNE01.JPG,AFNE01.JPG,AFNE01.JPG,,,,,,,,,,,,,2,1,21,3,,,,,,,,,,,AMSA09.jpg,AMNE02.jpg,AMSA02.jpg,AMNE03.jpg,AMSA09.jpg,MS,2,num_8,16,num_8,1.13345914893,,,2017_Apr_11_1143,59.9999038318,FEMA4ImagesEEG,001,100163,
AFNE01.JPG,AFNE01.JPG,AFNE01.JPG,AFNE01.JPG,AFNE01.JPG,AFNE01.JPG,,,,,,,,,,,,,2,2,22,1,,,,,,,,,,,AMSA16.jpg,AMSA07.jpg,AMNE05.jpg,AMNE15.jpg,AMNE05.jpg,MN,1,num_2,32,num_8,1.56671401858,,,2017_Apr_11_1143,59.9999038318,FEMA4ImagesEEG,001,100163,
AFNE01.JPG,AFNE01.JPG,AFNE01.JPG,AFNE01.JPG,AFNE01.JPG,AFNE01.JPG,,,,,,,,,,,,,2,3,23,7,,,,,,,,,,,AMNE06.jpg,AMNE16.jpg,AMSA14.jpg,AMSA12.jpg,AMSA14.jpg,MS,2,num_2,16,num_2,0.550168981776,,,2017_Apr_11_1143,59.9999038318,FEMA4ImagesEEG,001,100163,
AFNE01.JPG,AFNE01.JPG,AFNE01.JPG,AFNE01.JPG,AFNE01.JPG,AFNE01.JPG,,,,,,,,,,,,,2,4,24,4,,,,,,,,,,,AMSA02.jpg,AMNE18.jpg,AMNE02.jpg,AMSA18.jpg,AMNE18.jpg,MN,1,num_6,16,num_6,1.01677244157,,,2017_Apr_11_1143,59.9999038318,FEMA4ImagesEEG,001,100163,
AFNE01.JPG,AFNE01.JPG,AFNE01.JPG,AFNE01.JPG,AFNE01.JPG,AFNE01.JPG,,,,,,,,,,,,,2,5,25,9,,,,,,,,,,,AMNE14.jpg,AMNE07.jpg,AMSA06.jpg,AMSA19.jpg,AMSA19.jpg,MS,2,num_4,32,num_6,0.983425134793,,,2017_Apr_11_1143,59.9999038318,FEMA4ImagesEEG,001,100163,
AFNE01.JPG,AFNE01.JPG,AFNE01.JPG,AFNE01.JPG,AFNE01.JPG,AFNE01.JPG,,,,,,,,,,,,,2,6,26,2,,,,,,,,,,,AMNE19.jpg,AMNE18.jpg,AMSA20.jpg,AMSA15.jpg,AMNE19.jpg,MN,1,num_8,32,num_4,0.883456021547,,,2017_Apr_11_1143,59.9999038318,FEMA4ImagesEEG,001,100163,
AFNE01.JPG,AFNE01.JPG,AFNE01.JPG,AFNE01.JPG,AFNE01.JPG,AFNE01.JPG,,,,,,,,,,,,,2,7,27,0,,,,,,,,,,,AMSA12.jpg,AMNE19.jpg,AMNE09.jpg,AMSA03.jpg,AMNE19.jpg,MN,1,num_6,16,num_6,1.28339245124,,,2017_Apr_11_1143,59.9999038318,FEMA4ImagesEEG,001,100163,
AFNE01.JPG,AFNE01.JPG,AFNE01.JPG,AFNE01.JPG,AFNE01.JPG,AFNE01.JPG,,,,,,,,,,,,,2,8,28,6,,,,,,,,,,,AMNE01.jpg,AMSA04.jpg,AMSA03.jpg,AMNE19.jpg,AMSA04.jpg,MS,2,num_6,16,num_6,0.633518646006,,,2017_Apr_11_1143,59.9999038318,FEMA4ImagesEEG,001,100163,
AFNE01.JPG,AFNE01.JPG,AFNE01.JPG,AFNE01.JPG,AFNE01.JPG,AFNE01.JPG,,,,,,,,,,,,,2,9,29,8,,,,,,,,,,,AMNE09.jpg,AMNE03.jpg,AMSA07.jpg,AMSA06.jpg,AMSA07.jpg,MS,2,num_2,16,num_2,1.60007864516,,,2017_Apr_11_1143,59.9999038318,FEMA4ImagesEEG,001,100163,
AFNE01.JPG,AFNE01.JPG,AFNE01.JPG,AFNE01.JPG,AFNE01.JPG,AFNE01.JPG,,,,,,,,,,,,,3,0,30,7,,,,,,,,,,,AMSA14.jpg,AMSA13.jpg,AMNE12.jpg,AMNE02.jpg,AMNE12.jpg,MN,1,num_2,32,num_6,0.766860404052,,,2017_Apr_11_1143,59.9999038318,FEMA4ImagesEEG,001,100163,
AFNE01.JPG,AFNE01.JPG,AFNE01.JPG,AFNE01.JPG,AFNE01.JPG,AFNE01.JPG,,,,,,,,,,,,,3,1,31,2,,,,,,,,,,,AMSA12.jpg,AMNE19.jpg,AMSA13.jpg,AMNE14.jpg,AMNE19.jpg,MN,1,num_6,16,num_6,0.766803632956,,,2017_Apr_11_1143,59.9999038318,FEMA4ImagesEEG,001,100163,
AFNE01.JPG,AFNE01.JPG,AFNE01.JPG,AFNE01.JPG,AFNE01.JPG,AFNE01.JPG,,,,,,,,,,,,,3,2,32,4,,,,,,,,,,,AMSA05.jpg,AMNE09.jpg,AMSA09.jpg,AMNE08.jpg,AMSA09.jpg,MS,2,num_2,32,num_6,1.25039988244,,,2017_Apr_11_1143,59.9999038318,FEMA4ImagesEEG,001,100163,
AFNE01.JPG,AFNE01.JPG,AFNE01.JPG,AFNE01.JPG,AFNE01.JPG,AFNE01.JPG,,,,,,,,,,,,,3,3,33,8,,,,,,,,,,,AMNE19.jpg,AMSA05.jpg,AMSA07.jpg,AMNE18.jpg,AMSA05.jpg,MS,2,num_6,16,num_6,0.950112146791,,,2017_Apr_11_1143,59.9999038318,FEMA4ImagesEEG,001,100163,
AFNE01.JPG,AFNE01.JPG,AFNE01.JPG,AFNE01.JPG,AFNE01.JPG,AFNE01.JPG,,,,,,,,,,,,,3,4,34,3,,,,,,,,,,,AMNE15.jpg,AMSA05.jpg,AMNE01.jpg,AMSA17.jpg,AMNE01.jpg,MN,1,num_2,16,num_2,1.13346460136,,,2017_Apr_11_1143,59.9999038318,FEMA4ImagesEEG,001,100163,
AFNE01.JPG,AFNE01.JPG,AFNE01.JPG,AFNE01.JPG,AFNE01.JPG,AFNE01.JPG,,,,,,,,,,,,,3,5,35,6,,,,,,,,,,,AMSA20.jpg,AMSA05.jpg,AMNE03.jpg,AMNE11.jpg,AMSA05.jpg,MS,2,num_6,16,num_6,0.866784933954,,,2017_Apr_11_1143,59.9999038318,FEMA4ImagesEEG,001,100163,
AFNE01.JPG,AFNE01.JPG,AFNE01.JPG,AFNE01.JPG,AFNE01.JPG,AFNE01.JPG,,,,,,,,,,,,,3,6,36,0,,,,,,,,,,,AMNE09.jpg,AMSA01.jpg,AMSA04.jpg,AMNE08.jpg,AMNE08.jpg,MN,1,num_4,32,num_6,0.866866722703,,,2017_Apr_11_1143,59.9999038318,FEMA4ImagesEEG,001,100163,
AFNE01.JPG,AFNE01.JPG,AFNE01.JPG,AFNE01.JPG,AFNE01.JPG,AFNE01.JPG,,,,,,,,,,,,,3,7,37,5,,,,,,,,,,,AMSA09.jpg,AMNE12.jpg,AMNE11.jpg,AMSA20.jpg,AMNE12.jpg,MN,1,num_6,16,num_6,1.00007793959,,,2017_Apr_11_1143,59.9999038318,FEMA4ImagesEEG,001,100163,
AFNE01.JPG,AFNE01.JPG,AFNE01.JPG,AFNE01.JPG,AFNE01.JPG,AFNE01.JPG,,,,,,,,,,,,,3,8,38,1,,,,,,,,,,,AMNE11.jpg,AMNE06.jpg,AMSA19.jpg,AMSA11.jpg,AMNE11.jpg,MN,1,num_8,32,num_6,0.700132754166,,,2017_Apr_11_1143,59.9999038318,FEMA4ImagesEEG,001,100163,
AFNE01.JPG,AFNE01.JPG,AFNE01.JPG,AFNE01.JPG,AFNE01.JPG,AFNE01.JPG,,,,,,,,,,,,,3,9,39,9,,,,,,,,,,,AMSA15.jpg,AMNE15.jpg,AMNE04.jpg,AMSA12.jpg,AMSA15.jpg,MS,2,num_8,32,num_6,0.80007813219,,,2017_Apr_11_1143,59.9999038318,FEMA4ImagesEEG,001,100163,
AFNE01.JPG,AFNE01.JPG,AFNE01.JPG,AFNE01.JPG,AFNE01.JPG,AFNE01.JPG,,,,,,,,,,,,,4,0,40,7,,,,,,,,,,,AMSA16.jpg,AMSA05.jpg,AMNE19.jpg,AMNE02.jpg,AMSA16.jpg,MS,2,num_8,32,num_2,1.33343008952,,,2017_Apr_11_1143,59.9999038318,FEMA4ImagesEEG,001,100163,
AFNE01.JPG,AFNE01.JPG,AFNE01.JPG,AFNE01.JPG,AFNE01.JPG,AFNE01.JPG,,,,,,,,,,,,,4,1,41,8,,,,,,,,,,,AMNE08.jpg,AMSA14.jpg,AMSA03.jpg,AMNE07.jpg,AMNE07.jpg,MN,1,num_4,32,num_8,0.850106148515,,,2017_Apr_11_1143,59.9999038318,FEMA4ImagesEEG,001,100163,
AFNE01.JPG,AFNE01.JPG,AFNE01.JPG,AFNE01.JPG,AFNE01.JPG,AFNE01.JPG,,,,,,,,,,,,,4,2,42,0,,,,,,,,,,,AMNE13.jpg,AMSA13.jpg,AMNE02.jpg,AMSA09.jpg,AMNE13.jpg,MN,1,num_8,32,num_6,0.649972592946,,,2017_Apr_11_1143,59.9999038318,FEMA4ImagesEEG,001,100163,
AFNE01.JPG,AFNE01.JPG,AFNE01.JPG,AFNE01.JPG,AFNE01.JPG,AFNE01.JPG,,,,,,,,,,,,,4,3,43,5,,,,,,,,,,,AMSA14.jpg,AMNE01.jpg,AMNE15.jpg,AMSA11.jpg,AMNE01.jpg,MN,1,num_6,16,num_6,0.933509376831,,,2017_Apr_11_1143,59.9999038318,FEMA4ImagesEEG,001,100163,
AFNE01.JPG,AFNE01.JPG,AFNE01.JPG,AFNE01.JPG,AFNE01.JPG,AFNE01.JPG,,,,,,,,,,,,,4,4,44,4,,,,,,,,,,,AMNE11.jpg,AMSA02.jpg,AMNE18.jpg,AMSA09.jpg,AMNE18.jpg,MN,1,num_2,32,num_4,0.666745034046,,,2017_Apr_11_1143,59.9999038318,FEMA4ImagesEEG,001,100163,
AFNE01.JPG,AFNE01.JPG,AFNE01.JPG,AFNE01.JPG,AFNE01.JPG,AFNE01.JPG,,,,,,,,,,,,,4,5,45,3,,,,,,,,,,,AMSA02.jpg,AMNE01.jpg,AMSA19.jpg,AMNE11.jpg,AMNE11.jpg,MN,1,num_4,32,num_2,0.966817873996,,,2017_Apr_11_1143,59.9999038318,FEMA4ImagesEEG,001,100163,
AFNE01.JPG,AFNE01.JPG,AFNE01.JPG,AFNE01.JPG,AFNE01.JPG,AFNE01.JPG,,,,,,,,,,,,,4,6,46,9,,,,,,,,,,,AMNE05.jpg,AMSA02.jpg,AMNE17.jpg,AMSA08.jpg,AMNE17.jpg,MN,1,num_2,32,num_8,0.850133732427,,,2017_Apr_11_1143,59.9999038318,FEMA4ImagesEEG,001,100163,
AFNE01.JPG,AFNE01.JPG,AFNE01.JPG,AFNE01.JPG,AFNE01.JPG,AFNE01.JPG,,,,,,,,,,,,,4,7,47,2,,,,,,,,,,,AMNE18.jpg,AMSA11.jpg,AMSA03.jpg,AMNE11.jpg,AMSA03.jpg,MS,2,num_2,32,num_6,1.00022291439,,,2017_Apr_11_1143,59.9999038318,FEMA4ImagesEEG,001,100163,
AFNE01.JPG,AFNE01.JPG,AFNE01.JPG,AFNE01.JPG,AFNE01.JPG,AFNE01.JPG,,,,,,,,,,,,,4,8,48,1,,,,,,,,,,,AMSA12.jpg,AMNE13.jpg,AMSA08.jpg,AMNE10.jpg,AMNE10.jpg,MN,1,num_4,32,num_8,0.683491174597,,,2017_Apr_11_1143,59.9999038318,FEMA4ImagesEEG,001,100163,
AFNE01.JPG,AFNE01.JPG,AFNE01.JPG,AFNE01.JPG,AFNE01.JPG,AFNE01.JPG,,,,,,,,,,,,,4,9,49,6,,,,,,,,,,,AMNE17.jpg,AMSA18.jpg,AMNE20.jpg,AMSA05.jpg,AMNE20.jpg,MN,1,num_2,16,num_2,0.466782111675,,,2017_Apr_11_1143,59.9999038318,FEMA4ImagesEEG,001,100163,
AFNE01.JPG,AFNE01.JPG,AFNE01.JPG,AFNE01.JPG,AFNE01.JPG,AFNE01.JPG,,,,,,,,,,,,,5,0,50,2,,,,,,,,,,,AMSA02.jpg,AMNE01.jpg,AMSA11.jpg,AMNE08.jpg,AMNE08.jpg,MN,1,num_4,32,num_8,1.23345456226,,,2017_Apr_11_1143,59.9999038318,FEMA4ImagesEEG,001,100163,
AFNE01.JPG,AFNE01.JPG,AFNE01.JPG,AFNE01.JPG,AFNE01.JPG,AFNE01.JPG,,,,,,,,,,,,,5,1,51,5,,,,,,,,,,,AMNE18.jpg,AMSA16.jpg,AMNE17.jpg,AMSA07.jpg,AMSA16.jpg,MS,2,num_6,32,num_2,1.30009015976,,,2017_Apr_11_1143,59.9999038318,FEMA4ImagesEEG,001,100163,
AFNE01.JPG,AFNE01.JPG,AFNE01.JPG,AFNE01.JPG,AFNE01.JPG,AFNE01.JPG,,,,,,,,,,,,,5,2,52,6,,,,,,,,,,,AMNE11.jpg,AMSA08.jpg,AMSA03.jpg,AMNE10.jpg,AMSA08.jpg,MS,2,num_6,32,num_4,0.950096751098,,,2017_Apr_11_1143,59.9999038318,FEMA4ImagesEEG,001,100163,
AFNE01.JPG,AFNE01.JPG,AFNE01.JPG,AFNE01.JPG,AFNE01.JPG,AFNE01.JPG,,,,,,,,,,,,,5,3,53,9,,,,,,,,,,,AMSA05.jpg,AMSA03.jpg,AMNE19.jpg,AMNE07.jpg,AMSA03.jpg,MS,2,num_6,16,num_6,0.583451820072,,,2017_Apr_11_1143,59.9999038318,FEMA4ImagesEEG,001,100163,
AFNE01.JPG,AFNE01.JPG,AFNE01.JPG,AFNE01.JPG,AFNE01.JPG,AFNE01.JPG,,,,,,,,,,,,,5,4,54,4,,,,,,,,,,,AMSA07.jpg,AMSA16.jpg,AMNE18.jpg,AMNE05.jpg,AMSA07.jpg,MS,2,num_8,16,num_8,0.683523569256,,,2017_Apr_11_1143,59.9999038318,FEMA4ImagesEEG,001,100163,
AFNE01.JPG,AFNE01.JPG,AFNE01.JPG,AFNE01.JPG,AFNE01.JPG,AFNE01.JPG,,,,,,,,,,,,,5,5,55,7,,,,,,,,,,,AMNE14.jpg,AMSA13.jpg,AMNE11.jpg,AMSA14.jpg,AMSA13.jpg,MS,2,num_6,16,num_6,0.700148791075,,,2017_Apr_11_1143,59.9999038318,FEMA4ImagesEEG,001,100163,
AFNE01.JPG,AFNE01.JPG,AFNE01.JPG,AFNE01.JPG,AFNE01.JPG,AFNE01.JPG,,,,,,,,,,,,,5,6,56,1,,,,,,,,,,,AMNE02.jpg,AMSA03.jpg,AMNE14.jpg,AMSA17.jpg,AMNE02.jpg,MN,1,num_8,32,num_6,0.683442743029,,,2017_Apr_11_1143,59.9999038318,FEMA4ImagesEEG,001,100163,
AFNE01.JPG,AFNE01.JPG,AFNE01.JPG,AFNE01.JPG,AFNE01.JPG,AFNE01.JPG,,,,,,,,,,,,,5,7,57,3,,,,,,,,,,,AMSA10.jpg,AMNE03.jpg,AMSA16.jpg,AMNE08.jpg,AMSA10.jpg,MS,2,num_8,32,num_2,1.36688035447,,,2017_Apr_11_1143,59.9999038318,FEMA4ImagesEEG,001,100163,
AFNE01.JPG,AFNE01.JPG,AFNE01.JPG,AFNE01.JPG,AFNE01.JPG,AFNE01.JPG,,,,,,,,,,,,,5,8,58,0,,,,,,,,,,,AMSA16.jpg,AMSA02.jpg,AMNE15.jpg,AMNE11.jpg,AMSA02.jpg,MS,2,num_6,16,num_6,0.633463478647,,,2017_Apr_11_1143,59.9999038318,FEMA4ImagesEEG,001,100163,
AFNE01.JPG,AFNE01.JPG,AFNE01.JPG,AFNE01.JPG,AFNE01.JPG,AFNE01.JPG,,,,,,,,,,,,,5,9,59,8,,,,,,,,,,,AMNE07.jpg,AMSA18.jpg,AMNE01.jpg,AMSA19.jpg,AMSA19.jpg,MS,2,num_4,32,num_8,0.683454610407,,,2017_Apr_11_1143,59.9999038318,FEMA4ImagesEEG,001,100163,
,,,,,,,,,,,,,,,,,,,,,,,,,,,,,,,,,,,,,,,,,,,space,40.630384698,2017_Apr_11_1143,59.9999038318,FEMA4ImagesEEG,001,100163,
AFNE01.JPG,AFNE01.JPG,AFNE01.JPG,AFNE01.JPG,AFNE01.JPG,AFNE01.JPG,,,,,,,,,,,,,,,,,0,0,0,8,,,,,,,AFNE10.jpg,AFSA07.jpg,AFSA19.jpg,AFNE01.jpg,AFSA07.jpg,FS,4,num_6,16,num_6,0.766648715828,,,2017_Apr_11_1143,59.9999038318,FEMA4ImagesEEG,001,100163,
AFNE01.JPG,AFNE01.JPG,AFNE01.JPG,AFNE01.JPG,AFNE01.JPG,AFNE01.JPG,,,,,,,,,,,,,,,,,0,1,1,6,,,,,,,AFSA14.jpg,AFSA18.jpg,AFNE05.jpg,AFNE07.jpg,AFNE05.jpg,FN,3,num_2,32,num_8,0.933441700414,,,2017_Apr_11_1143,59.9999038318,FEMA4ImagesEEG,001,100163,
AFNE01.JPG,AFNE01.JPG,AFNE01.JPG,AFNE01.JPG,AFNE01.JPG,AFNE01.JPG,,,,,,,,,,,,,,,,,0,2,2,9,,,,,,,AFSA18.jpg,AFNE03.jpg,AFNE04.jpg,AFSA02.jpg,AFSA18.jpg,FS,4,num_8,32,num_6,0.716779465321,,,2017_Apr_11_1143,59.9999038318,FEMA4ImagesEEG,001,100163,
AFNE01.JPG,AFNE01.JPG,AFNE01.JPG,AFNE01.JPG,AFNE01.JPG,AFNE01.JPG,,,,,,,,,,,,,,,,,0,3,3,0,,,,,,,AFNE01.jpg,AFSA15.jpg,AFNE04.jpg,AFSA20.jpg,AFNE01.jpg,FN,3,num_8,16,num_8,0.866734578274,,,2017_Apr_11_1143,59.9999038318,FEMA4ImagesEEG,001,100163,
AFNE01.JPG,AFNE01.JPG,AFNE01.JPG,AFNE01.JPG,AFNE01.JPG,AFNE01.JPG,,,,,,,,,,,,,,,,,0,4,4,5,,,,,,,AFNE07.jpg,AFSA11.jpg,AFNE17.jpg,AFSA05.jpg,AFSA11.jpg,FS,4,num_6,16,num_6,0.599983064923,,,2017_Apr_11_1143,59.9999038318,FEMA4ImagesEEG,001,100163,
AFNE01.JPG,AFNE01.JPG,AFNE01.JPG,AFNE01.JPG,AFNE01.JPG,AFNE01.JPG,,,,,,,,,,,,,,,,,0,5,5,7,,,,,,,AFSA03.jpg,AFSA02.jpg,AFNE17.jpg,AFNE08.jpg,AFNE17.jpg,FN,3,num_2,16,num_2,0.966768800747,,,2017_Apr_11_1143,59.9999038318,FEMA4ImagesEEG,001,100163,
AFNE01.JPG,AFNE01.JPG,AFNE01.JPG,AFNE01.JPG,AFNE01.JPG,AFNE01.JPG,,,,,,,,,,,,,,,,,0,6,6,1,,,,,,,AFNE04.jpg,AFSA11.jpg,AFSA17.jpg,AFNE12.jpg,AFSA11.jpg,FS,4,num_6,16,num_6,0.600118417293,,,2017_Apr_11_1143,59.9999038318,FEMA4ImagesEEG,001,100163,
AFNE01.JPG,AFNE01.JPG,AFNE01.JPG,AFNE01.JPG,AFNE01.JPG,AFNE01.JPG,,,,,,,,,,,,,,,,,0,7,7,2,,,,,,,AFNE06.jpg,AFSA19.jpg,AFSA06.jpg,AFNE10.jpg,AFNE06.jpg,FN,3,num_8,32,num_2,0.966801837087,,,2017_Apr_11_1143,59.9999038318,FEMA4ImagesEEG,001,100163,
AFNE01.JPG,AFNE01.JPG,AFNE01.JPG,AFNE01.JPG,AFNE01.JPG,AFNE01.JPG,,,,,,,,,,,,,,,,,0,8,8,4,,,,,,,AFSA06.jpg,AFSA07.jpg,AFNE19.jpg,AFNE16.jpg,AFSA07.jpg,FS,4,num_6,32,num_8,0.816868214402,,,2017_Apr_11_1143,59.9999038318,FEMA4ImagesEEG,001,100163,
AFNE01.JPG,AFNE01.JPG,AFNE01.JPG,AFNE01.JPG,AFNE01.JPG,AFNE01.JPG,,,,,,,,,,,,,,,,,0,9,9,3,,,,,,,AFNE17.jpg,AFSA13.jpg,AFSA07.jpg,AFNE12.jpg,AFNE12.jpg,FN,3,num_4,16,num_4,0.983493772801,,,2017_Apr_11_1143,59.9999038318,FEMA4ImagesEEG,001,100163,
AFNE01.JPG,AFNE01.JPG,AFNE01.JPG,AFNE01.JPG,AFNE01.JPG,AFNE01.JPG,,,,,,,,,,,,,,,,,1,0,10,9,,,,,,,AFSA14.jpg,AFNE01.jpg,AFNE19.jpg,AFSA08.jpg,AFSA08.jpg,FS,4,num_4,32,num_6,0.850159712601,,,2017_Apr_11_1143,59.9999038318,FEMA4ImagesEEG,001,100163,
AFNE01.JPG,AFNE01.JPG,AFNE01.JPG,AFNE01.JPG,AFNE01.JPG,AFNE01.JPG,,,,,,,,,,,,,,,,,1,1,11,3,,,,,,,AFNE03.jpg,AFSA17.jpg,AFNE09.jpg,AFSA12.jpg,AFSA17.jpg,FS,4,num_6,16,num_6,0.533412897959,,,2017_Apr_11_1143,59.9999038318,FEMA4ImagesEEG,001,100163,
AFNE01.JPG,AFNE01.JPG,AFNE01.JPG,AFNE01.JPG,AFNE01.JPG,AFNE01.JPG,,,,,,,,,,,,,,,,,1,2,12,6,,,,,,,AFNE06.jpg,AFSA14.jpg,AFNE19.jpg,AFSA06.jpg,AFSA06.jpg,FS,4,num_4,32,num_8,0.666920799762,,,2017_Apr_11_1143,59.9999038318,FEMA4ImagesEEG,001,100163,
AFNE01.JPG,AFNE01.JPG,AFNE01.JPG,AFNE01.JPG,AFNE01.JPG,AFNE01.JPG,,,,,,,,,,,,,,,,,1,3,13,2,,,,,,,AFSA03.jpg,AFNE13.jpg,AFNE16.jpg,AFSA13.jpg,AFSA13.jpg,FS,4,num_4,32,num_6,0.583684998099,,,2017_Apr_11_1143,59.9999038318,FEMA4ImagesEEG,001,100163,
AFNE01.JPG,AFNE01.JPG,AFNE01.JPG,AFNE01.JPG,AFNE01.JPG,AFNE01.JPG,,,,,,,,,,,,,,,,,1,4,14,1,,,,,,,AFSA12.jpg,AFSA18.jpg,AFNE06.jpg,AFNE09.jpg,AFSA18.jpg,FS,4,num_6,16,num_6,0.666757543106,,,2017_Apr_11_1143,59.9999038318,FEMA4ImagesEEG,001,100163,
AFNE01.JPG,AFNE01.JPG,AFNE01.JPG,AFNE01.JPG,AFNE01.JPG,AFNE01.JPG,,,,,,,,,,,,,,,,,1,5,15,5,,,,,,,AFSA13.jpg,AFNE16.jpg,AFSA15.jpg,AFNE01.jpg,AFNE01.jpg,FN,3,num_4,32,num_6,1.00021874439,,,2017_Apr_11_1143,59.9999038318,FEMA4ImagesEEG,001,100163,
AFNE01.JPG,AFNE01.JPG,AFNE01.JPG,AFNE01.JPG,AFNE01.JPG,AFNE01.JPG,,,,,,,,,,,,,,,,,1,6,16,0,,,,,,,AFSA19.jpg,AFSA15.jpg,AFNE17.jpg,AFNE20.jpg,AFNE17.jpg,FN,3,num_2,32,num_8,0.766932570841,,,2017_Apr_11_1143,59.9999038318,FEMA4ImagesEEG,001,100163,
AFNE01.JPG,AFNE01.JPG,AFNE01.JPG,AFNE01.JPG,AFNE01.JPG,AFNE01.JPG,,,,,,,,,,,,,,,,,1,7,17,7,,,,,,,AFSA16.jpg,AFNE16.jpg,AFNE12.jpg,AFSA14.jpg,AFNE16.jpg,FN,3,num_6,16,num_6,0.700106132776,,,2017_Apr_11_1143,59.9999038318,FEMA4ImagesEEG,001,100163,
AFNE01.JPG,AFNE01.JPG,AFNE01.JPG,AFNE01.JPG,AFNE01.JPG,AFNE01.JPG,,,,,,,,,,,,,,,,,1,8,18,4,,,,,,,AFSA02.jpg,AFNE07.jpg,AFNE14.jpg,AFSA07.jpg,AFSA07.jpg,FS,4,num_4,32,num_6,0.916922002099,,,2017_Apr_11_1143,59.9999038318,FEMA4ImagesEEG,001,100163,
AFNE01.JPG,AFNE01.JPG,AFNE01.JPG,AFNE01.JPG,AFNE01.JPG,AFNE01.JPG,,,,,,,,,,,,,,,,,1,9,19,8,,,,,,,AFSA13.jpg,AFNE20.jpg,AFSA15.jpg,AFNE07.jpg,AFNE07.jpg,FN,3,num_4,32,num_6,0.900096639059,,,2017_Apr_11_1143,59.9999038318,FEMA4ImagesEEG,001,100163,
AFNE01.JPG,AFNE01.JPG,AFNE01.JPG,AFNE01.JPG,AFNE01.JPG,AFNE01.JPG,,,,,,,,,,,,,,,,,2,0,20,2,,,,,,,AFNE12.jpg,AFNE07.jpg,AFSA12.jpg,AFSA19.jpg,AFNE07.jpg,FN,3,num_6,16,num_6,0.650186205748,,,2017_Apr_11_1143,59.9999038318,FEMA4ImagesEEG,001,100163,
AFNE01.JPG,AFNE01.JPG,AFNE01.JPG,AFNE01.JPG,AFNE01.JPG,AFNE01.JPG,,,,,,,,,,,,,,,,,2,1,21,1,,,,,,,AFNE09.jpg,AFNE05.jpg,AFSA11.jpg,AFSA18.jpg,AFSA11.jpg,FS,4,num_2,16,num_2,0.850108073093,,,2017_Apr_11_1143,59.9999038318,FEMA4ImagesEEG,001,100163,
AFNE01.JPG,AFNE01.JPG,AFNE01.JPG,AFNE01.JPG,AFNE01.JPG,AFNE01.JPG,,,,,,,,,,,,,,,,,2,2,22,0,,,,,,,AFNE05.jpg,AFSA17.jpg,AFSA20.jpg,AFNE11.jpg,AFSA17.jpg,FS,4,num_6,32,num_2,1.35012908187,,,2017_Apr_11_1143,59.9999038318,FEMA4ImagesEEG,001,100163,
AFNE01.JPG,AFNE01.JPG,AFNE01.JPG,AFNE01.JPG,AFNE01.JPG,AFNE01.JPG,,,,,,,,,,,,,,,,,2,3,23,4,,,,,,,AFSA04.jpg,AFSA14.jpg,AFNE15.jpg,AFNE03.jpg,AFNE03.jpg,FN,3,num_4,32,num_6,0.750100471545,,,2017_Apr_11_1143,59.9999038318,FEMA4ImagesEEG,001,100163,
AFNE01.JPG,AFNE01.JPG,AFNE01.JPG,AFNE01.JPG,AFNE01.JPG,AFNE01.JPG,,,,,,,,,,,,,,,,,2,4,24,9,,,,,,,AFSA14.jpg,AFSA17.jpg,AFNE09.jpg,AFNE07.jpg,AFSA17.jpg,FS,4,num_6,16,num_6,0.650118529331,,,2017_Apr_11_1143,59.9999038318,FEMA4ImagesEEG,001,100163,
AFNE01.JPG,AFNE01.JPG,AFNE01.JPG,AFNE01.JPG,AFNE01.JPG,AFNE01.JPG,,,,,,,,,,,,,,,,,2,5,25,8,,,,,,,AFNE02.jpg,AFSA14.jpg,AFSA16.jpg,AFNE01.jpg,AFSA14.jpg,FS,4,num_6,16,num_6,0.700149753597,,,2017_Apr_11_1143,59.9999038318,FEMA4ImagesEEG,001,100163,
AFNE01.JPG,AFNE01.JPG,AFNE01.JPG,AFNE01.JPG,AFNE01.JPG,AFNE01.JPG,,,,,,,,,,,,,,,,,2,6,26,7,,,,,,,AFSA04.jpg,AFNE19.jpg,AFNE16.jpg,AFSA18.jpg,AFSA04.jpg,FS,4,num_8,16,num_8,0.666792503558,,,2017_Apr_11_1143,59.9999038318,FEMA4ImagesEEG,001,100163,
AFNE01.JPG,AFNE01.JPG,AFNE01.JPG,AFNE01.JPG,AFNE01.JPG,AFNE01.JPG,,,,,,,,,,,,,,,,,2,7,27,5,,,,,,,AFSA11.jpg,AFNE10.jpg,AFNE16.jpg,AFSA07.jpg,AFSA07.jpg,FS,4,num_4,32,num_6,1.06672829157,,,2017_Apr_11_1143,59.9999038318,FEMA4ImagesEEG,001,100163,
AFNE01.JPG,AFNE01.JPG,AFNE01.JPG,AFNE01.JPG,AFNE01.JPG,AFNE01.JPG,,,,,,,,,,,,,,,,,2,8,28,3,,,,,,,AFNE10.jpg,AFSA13.jpg,AFNE06.jpg,AFSA17.jpg,AFSA17.jpg,FS,4,num_4,16,num_4,0.733475570567,,,2017_Apr_11_1143,59.9999038318,FEMA4ImagesEEG,001,100163,
AFNE01.JPG,AFNE01.JPG,AFNE01.JPG,AFNE01.JPG,AFNE01.JPG,AFNE01.JPG,,,,,,,,,,,,,,,,,2,9,29,6,,,,,,,AFSA19.jpg,AFSA10.jpg,AFNE20.jpg,AFNE18.jpg,AFNE18.jpg,FN,3,num_4,32,num_6,0.833448211197,,,2017_Apr_11_1143,59.9999038318,FEMA4ImagesEEG,001,100163,
AFNE01.JPG,AFNE01.JPG,AFNE01.JPG,AFNE01.JPG,AFNE01.JPG,AFNE01.JPG,,,,,,,,,,,,,,,,,3,0,30,6,,,,,,,AFNE16.jpg,AFNE01.jpg,AFSA01.jpg,AFSA13.jpg,AFNE16.jpg,FN,3,num_8,32,num_6,0.716785559431,,,2017_Apr_11_1143,59.9999038318,FEMA4ImagesEEG,001,100163,
AFNE01.JPG,AFNE01.JPG,AFNE01.JPG,AFNE01.JPG,AFNE01.JPG,AFNE01.JPG,,,,,,,,,,,,,,,,,3,1,31,5,,,,,,,AFSA03.jpg,AFSA08.jpg,AFNE15.jpg,AFNE07.jpg,AFSA08.jpg,FS,4,num_6,16,num_6,0.866774349939,,,2017_Apr_11_1143,59.9999038318,FEMA4ImagesEEG,001,100163,
AFNE01.JPG,AFNE01.JPG,AFNE01.JPG,AFNE01.JPG,AFNE01.JPG,AFNE01.JPG,,,,,,,,,,,,,,,,,3,2,32,2,,,,,,,AFSA03.jpg,AFNE04.jpg,AFSA04.jpg,AFNE16.jpg,AFSA03.jpg,FS,4,num_8,32,num_4,1.13343028259,,,2017_Apr_11_1143,59.9999038318,FEMA4ImagesEEG,001,100163,
AFNE01.JPG,AFNE01.JPG,AFNE01.JPG,AFNE01.JPG,AFNE01.JPG,AFNE01.JPG,,,,,,,,,,,,,,,,,3,3,33,0,,,,,,,AFSA15.jpg,AFNE08.jpg,AFNE15.jpg,AFSA10.jpg,AFNE08.jpg,FN,3,num_6,16,num_6,0.816733503249,,,2017_Apr_11_1143,59.9999038318,FEMA4ImagesEEG,001,100163,
AFNE01.JPG,AFNE01.JPG,AFNE01.JPG,AFNE01.JPG,AFNE01.JPG,AFNE01.JPG,,,,,,,,,,,,,,,,,3,4,34,4,,,,,,,AFSA17.jpg,AFNE08.jpg,AFSA05.jpg,AFNE17.jpg,AFSA05.jpg,FS,4,num_2,16,num_2,0.766820632387,,,2017_Apr_11_1143,59.9999038318,FEMA4ImagesEEG,001,100163,
AFNE01.JPG,AFNE01.JPG,AFNE01.JPG,AFNE01.JPG,AFNE01.JPG,AFNE01.JPG,,,,,,,,,,,,,,,,,3,5,35,7,,,,,,,AFNE19.jpg,AFNE05.jpg,AFSA03.jpg,AFSA02.jpg,AFSA02.jpg,FS,4,num_4,32,num_8,0.900151164737,,,2017_Apr_11_1143,59.9999038318,FEMA4ImagesEEG,001,100163,
AFNE01.JPG,AFNE01.JPG,AFNE01.JPG,AFNE01.JPG,AFNE01.JPG,AFNE01.JPG,,,,,,,,,,,,,,,,,3,6,36,3,,,,,,,AFNE05.jpg,AFSA17.jpg,AFSA12.jpg,AFNE09.jpg,AFSA12.jpg,FS,4,num_2,16,num_2,0.583467856981,,,2017_Apr_11_1143,59.9999038318,FEMA4ImagesEEG,001,100163,
AFNE01.JPG,AFNE01.JPG,AFNE01.JPG,AFNE01.JPG,AFNE01.JPG,AFNE01.JPG,,,,,,,,,,,,,,,,,3,7,37,1,,,,,,,AFNE09.jpg,AFSA04.jpg,AFSA19.jpg,AFNE03.jpg,AFSA19.jpg,FS,4,num_2,32,num_6,0.71677529579,,,2017_Apr_11_1143,59.9999038318,FEMA4ImagesEEG,001,100163,
AFNE01.JPG,AFNE01.JPG,AFNE01.JPG,AFNE01.JPG,AFNE01.JPG,AFNE01.JPG,,,,,,,,,,,,,,,,,3,8,38,9,,,,,,,AFNE18.jpg,AFSA18.jpg,AFNE03.jpg,AFSA10.jpg,AFSA18.jpg,FS,4,num_6,32,num_2,0.916792423464,,,2017_Apr_11_1143,59.9999038318,FEMA4ImagesEEG,001,100163,
AFNE01.JPG,AFNE01.JPG,AFNE01.JPG,AFNE01.JPG,AFNE01.JPG,AFNE01.JPG,,,,,,,,,,,,,,,,,3,9,39,8,,,,,,,AFNE04.jpg,AFSA08.jpg,AFSA17.jpg,AFNE14.jpg,AFNE14.jpg,FN,3,num_4,16,num_4,0.633488496765,,,2017_Apr_11_1143,59.9999038318,FEMA4ImagesEEG,001,100163,
AFNE01.JPG,AFNE01.JPG,AFNE01.JPG,AFNE01.JPG,AFNE01.JPG,AFNE01.JPG,,,,,,,,,,,,,,,,,4,0,40,0,,,,,,,AFNE09.jpg,AFNE06.jpg,AFSA17.jpg,AFSA01.jpg,AFNE09.jpg,FN,3,num_8,32,num_6,0.61678597657,,,2017_Apr_11_1143,59.9999038318,FEMA4ImagesEEG,001,100163,
AFNE01.JPG,AFNE01.JPG,AFNE01.JPG,AFNE01.JPG,AFNE01.JPG,AFNE01.JPG,,,,,,,,,,,,,,,,,4,1,41,9,,,,,,,AFSA02.jpg,AFNE17.jpg,AFNE14.jpg,AFSA06.jpg,AFSA02.jpg,FS,4,num_8,32,num_6,0.733305258211,,,2017_Apr_11_1143,59.9999038318,FEMA4ImagesEEG,001,100163,
AFNE01.JPG,AFNE01.JPG,AFNE01.JPG,AFNE01.JPG,AFNE01.JPG,AFNE01.JPG,,,,,,,,,,,,,,,,,4,2,42,8,,,,,,,AFSA13.jpg,AFSA18.jpg,AFNE13.jpg,AFNE16.jpg,AFNE13.jpg,FN,3,num_2,32,num_4,0.85012860084,,,2017_Apr_11_1143,59.9999038318,FEMA4ImagesEEG,001,100163,
AFNE01.JPG,AFNE01.JPG,AFNE01.JPG,AFNE01.JPG,AFNE01.JPG,AFNE01.JPG,,,,,,,,,,,,,,,,,4,3,43,4,,,,,,,AFSA10.jpg,AFSA05.jpg,AFNE05.jpg,AFNE15.jpg,AFNE15.jpg,FN,3,num_4,32,num_8,0.633408632595,,,2017_Apr_11_1143,59.9999038318,FEMA4ImagesEEG,001,100163,
AFNE01.JPG,AFNE01.JPG,AFNE01.JPG,AFNE01.JPG,AFNE01.JPG,AFNE01.JPG,,,,,,,,,,,,,,,,,4,4,44,5,,,,,,,AFNE20.jpg,AFSA01.jpg,AFNE13.jpg,AFSA03.jpg,AFSA01.jpg,FS,4,num_6,16,num_6,0.583477799781,,,2017_Apr_11_1143,59.9999038318,FEMA4ImagesEEG,001,100163,
AFNE01.JPG,AFNE01.JPG,AFNE01.JPG,AFNE01.JPG,AFNE01.JPG,AFNE01.JPG,,,,,,,,,,,,,,,,,4,5,45,2,,,,,,,AFSA15.jpg,AFNE07.jpg,AFNE08.jpg,AFSA13.jpg,AFNE08.jpg,FN,3,num_2,32,num_6,0.783474720549,,,2017_Apr_11_1143,59.9999038318,FEMA4ImagesEEG,001,100163,
AFNE01.JPG,AFNE01.JPG,AFNE01.JPG,AFNE01.JPG,AFNE01.JPG,AFNE01.JPG,,,,,,,,,,,,,,,,,4,6,46,3,,,,,,,AFSA15.jpg,AFNE18.jpg,AFSA14.jpg,AFNE12.jpg,AFNE18.jpg,FN,3,num_6,32,num_8,0.583437386435,,,2017_Apr_11_1143,59.9999038318,FEMA4ImagesEEG,001,100163,
AFNE01.JPG,AFNE01.JPG,AFNE01.JPG,AFNE01.JPG,AFNE01.JPG,AFNE01.JPG,,,,,,,,,,,,,,,,,4,7,47,6,,,,,,,AFSA14.jpg,AFNE19.jpg,AFNE01.jpg,AFSA03.jpg,AFNE19.jpg,FN,3,num_6,16,num_6,0.700116716791,,,2017_Apr_11_1143,59.9999038318,FEMA4ImagesEEG,001,100163,
AFNE01.JPG,AFNE01.JPG,AFNE01.JPG,AFNE01.JPG,AFNE01.JPG,AFNE01.JPG,,,,,,,,,,,,,,,,,4,8,48,7,,,,,,,AFNE06.jpg,AFNE02.jpg,AFSA17.jpg,AFSA10.jpg,AFSA17.jpg,FS,4,num_2,32,num_8,0.850170617457,,,2017_Apr_11_1143,59.9999038318,FEMA4ImagesEEG,001,100163,
AFNE01.JPG,AFNE01.JPG,AFNE01.JPG,AFNE01.JPG,AFNE01.JPG,AFNE01.JPG,,,,,,,,,,,,,,,,,4,9,49,1,,,,,,,AFSA02.jpg,AFNE02.jpg,AFNE07.jpg,AFSA13.jpg,AFNE07.jpg,FN,3,num_2,16,num_2,0.916728275362,,,2017_Apr_11_1143,59.9999038318,FEMA4ImagesEEG,001,100163,
AFNE01.JPG,AFNE01.JPG,AFNE01.JPG,AFNE01.JPG,AFNE01.JPG,AFNE01.JPG,,,,,,,,,,,,,,,,,5,0,50,3,,,,,,,AFSA18.jpg,AFSA14.jpg,AFNE11.jpg,AFNE03.jpg,AFSA18.jpg,FS,4,num_8,32,num_6,1.00011001388,,,2017_Apr_11_1143,59.9999038318,FEMA4ImagesEEG,001,100163,
AFNE01.JPG,AFNE01.JPG,AFNE01.JPG,AFNE01.JPG,AFNE01.JPG,AFNE01.JPG,,,,,,,,,,,,,,,,,5,1,51,9,,,,,,,AFNE14.jpg,AFNE17.jpg,AFSA19.jpg,AFSA07.jpg,AFNE14.jpg,FN,3,num_8,16,num_8,0.550109644886,,,2017_Apr_11_1143,59.9999038318,FEMA4ImagesEEG,001,100163,
AFNE01.JPG,AFNE01.JPG,AFNE01.JPG,AFNE01.JPG,AFNE01.JPG,AFNE01.JPG,,,,,,,,,,,,,,,,,5,2,52,0,,,,,,,AFNE08.jpg,AFSA04.jpg,AFSA19.jpg,AFNE19.jpg,AFNE19.jpg,FN,3,num_4,32,num_2,1.23314119922,,,2017_Apr_11_1143,59.9999038318,FEMA4ImagesEEG,001,100163,
AFNE01.JPG,AFNE01.JPG,AFNE01.JPG,AFNE01.JPG,AFNE01.JPG,AFNE01.JPG,,,,,,,,,,,,,,,,,5,3,53,7,,,,,,,AFNE17.jpg,AFSA14.jpg,AFSA07.jpg,AFNE02.jpg,AFSA14.jpg,FS,4,num_6,16,num_6,0.750131904148,,,2017_Apr_11_1143,59.9999038318,FEMA4ImagesEEG,001,100163,
AFNE01.JPG,AFNE01.JPG,AFNE01.JPG,AFNE01.JPG,AFNE01.JPG,AFNE01.JPG,,,,,,,,,,,,,,,,,5,4,54,8,,,,,,,AFSA17.jpg,AFNE09.jpg,AFNE06.jpg,AFSA05.jpg,AFSA17.jpg,FS,4,num_8,16,num_8,0.800140034873,,,2017_Apr_11_1143,59.9999038318,FEMA4ImagesEEG,001,100163,
AFNE01.JPG,AFNE01.JPG,AFNE01.JPG,AFNE01.JPG,AFNE01.JPG,AFNE01.JPG,,,,,,,,,,,,,,,,,5,5,55,6,,,,,,,AFSA13.jpg,AFSA04.jpg,AFNE07.jpg,AFNE19.jpg,AFNE07.jpg,FN,3,num_2,32,num_6,0.700132754166,,,2017_Apr_11_1143,59.9999038318,FEMA4ImagesEEG,001,100163,
AFNE01.JPG,AFNE01.JPG,AFNE01.JPG,AFNE01.JPG,AFNE01.JPG,AFNE01.JPG,,,,,,,,,,,,,,,,,5,6,56,4,,,,,,,AFSA01.jpg,AFSA03.jpg,AFNE16.jpg,AFNE01.jpg,AFNE01.jpg,FN,3,num_4,32,num_6,0.650099284947,,,2017_Apr_11_1143,59.9999038318,FEMA4ImagesEEG,001,100163,
AFNE01.JPG,AFNE01.JPG,AFNE01.JPG,AFNE01.JPG,AFNE01.JPG,AFNE01.JPG,,,,,,,,,,,,,,,,,5,7,57,1,,,,,,,AFSA19.jpg,AFNE04.jpg,AFSA13.jpg,AFNE17.jpg,AFNE17.jpg,FN,3,num_4,32,num_8,0.68343632808,,,2017_Apr_11_1143,59.9999038318,FEMA4ImagesEEG,001,100163,
AFNE01.JPG,AFNE01.JPG,AFNE01.JPG,AFNE01.JPG,AFNE01.JPG,AFNE01.JPG,,,,,,,,,,,,,,,,,5,8,58,5,,,,,,,AFSA08.jpg,AFNE06.jpg,AFNE02.jpg,AFSA10.jpg,AFNE06.jpg,FN,3,num_6,16,num_6,0.56680125976,,,2017_Apr_11_1143,59.9999038318,FEMA4ImagesEEG,001,100163,
AFNE01.JPG,AFNE01.JPG,AFNE01.JPG,AFNE01.JPG,AFNE01.JPG,AFNE01.JPG,,,,,,,,,,,,,,,,,5,9,59,2,,,,,,,AFNE08.jpg,AFSA13.jpg,AFNE19.jpg,AFSA03.jpg,AFSA13.jpg,FS,4,num_6,16,num_6,0.583465932403,,,2017_Apr_11_1143,59.9999038318,FEMA4ImagesEEG,001,100163,
,,,,,,,,,,,,,,,,,,,,,,,,,,,,,,,,,,,,,,,,,,,space,48.1298537138,2017_Apr_11_1143,59.9999038318,FEMA4ImagesEEG,001,100163,
AFNE01.JPG,AFNE01.JPG,AFNE01.JPG,AFNE01.JPG,AFNE01.JPG,AFNE01.JPG,,,,,,,,,,,,,,,,,,,,,0,0,0,3,,,AMSA19.jpg,AMNE20.jpg,AMNE13.jpg,AMSA07.jpg,AMNE13.jpg,MN,1,num_2,32,num_8,0.566756997723,,,2017_Apr_11_1143,59.9999038318,FEMA4ImagesEEG,001,100163,
AFNE01.JPG,AFNE01.JPG,AFNE01.JPG,AFNE01.JPG,AFNE01.JPG,AFNE01.JPG,,,,,,,,,,,,,,,,,,,,,0,1,1,7,,,AMNE11.jpg,AMSA17.jpg,AMNE04.jpg,AMSA02.jpg,AMNE04.jpg,MN,1,num_2,32,num_4,0.666792183183,,,2017_Apr_11_1143,59.9999038318,FEMA4ImagesEEG,001,100163,
AFNE01.JPG,AFNE01.JPG,AFNE01.JPG,AFNE01.JPG,AFNE01.JPG,AFNE01.JPG,,,,,,,,,,,,,,,,,,,,,0,2,2,1,,,AMSA18.jpg,AMNE03.jpg,AMSA14.jpg,AMNE11.jpg,AMNE03.jpg,MN,1,num_6,16,num_6,0.750107207336,,,2017_Apr_11_1143,59.9999038318,FEMA4ImagesEEG,001,100163,
AFNE01.JPG,AFNE01.JPG,AFNE01.JPG,AFNE01.JPG,AFNE01.JPG,AFNE01.JPG,,,,,,,,,,,,,,,,,,,,,0,3,3,5,,,AMNE08.jpg,AMNE19.jpg,AMSA20.jpg,AMSA10.jpg,AMSA20.jpg,MS,2,num_2,16,num_2,0.616764807608,,,2017_Apr_11_1143,59.9999038318,FEMA4ImagesEEG,001,100163,
AFNE01.JPG,AFNE01.JPG,AFNE01.JPG,AFNE01.JPG,AFNE01.JPG,AFNE01.JPG,,,,,,,,,,,,,,,,,,,,,0,4,4,6,,,AMSA08.jpg,AMSA20.jpg,AMNE10.jpg,AMNE14.jpg,AMNE10.jpg,MN,1,num_2,32,num_6,0.816762049217,,,2017_Apr_11_1143,59.9999038318,FEMA4ImagesEEG,001,100163,
AFNE01.JPG,AFNE01.JPG,AFNE01.JPG,AFNE01.JPG,AFNE01.JPG,AFNE01.JPG,,,,,,,,,,,,,,,,,,,,,0,5,5,8,,,AMSA03.jpg,AMNE17.jpg,AMNE15.jpg,AMSA09.jpg,AMNE17.jpg,MN,1,num_6,16,num_6,0.733460175339,,,2017_Apr_11_1143,59.9999038318,FEMA4ImagesEEG,001,100163,
AFNE01.JPG,AFNE01.JPG,AFNE01.JPG,AFNE01.JPG,AFNE01.JPG,AFNE01.JPG,,,,,,,,,,,,,,,,,,,,,0,6,6,4,,,AMNE20.jpg,AMSA01.jpg,AMSA14.jpg,AMNE03.jpg,AMNE20.jpg,MN,1,num_8,16,num_8,1.05020121625,,,2017_Apr_11_1143,59.9999038318,FEMA4ImagesEEG,001,100163,
AFNE01.JPG,AFNE01.JPG,AFNE01.JPG,AFNE01.JPG,AFNE01.JPG,AFNE01.JPG,,,,,,,,,,,,,,,,,,,,,0,7,7,0,,,AMSA09.jpg,AMNE11.jpg,AMSA11.jpg,AMNE17.jpg,AMNE17.jpg,MN,1,num_4,32,num_6,1.04998022644,,,2017_Apr_11_1143,59.9999038318,FEMA4ImagesEEG,001,100163,
AFNE01.JPG,AFNE01.JPG,AFNE01.JPG,AFNE01.JPG,AFNE01.JPG,AFNE01.JPG,,,,,,,,,,,,,,,,,,,,,0,8,8,2,,,AMNE12.jpg,AMSA05.jpg,AMNE08.jpg,AMSA16.jpg,AMSA05.jpg,MS,2,num_6,16,num_6,0.683373142499,,,2017_Apr_11_1143,59.9999038318,FEMA4ImagesEEG,001,100163,
AFNE01.JPG,AFNE01.JPG,AFNE01.JPG,AFNE01.JPG,AFNE01.JPG,AFNE01.JPG,,,,,,,,,,,,,,,,,,,,,0,9,9,9,,,AMSA17.jpg,AMNE06.jpg,AMNE14.jpg,AMSA05.jpg,AMSA17.jpg,MS,2,num_8,16,num_8,0.800357496832,,,2017_Apr_11_1143,59.9999038318,FEMA4ImagesEEG,001,100163,
AFNE01.JPG,AFNE01.JPG,AFNE01.JPG,AFNE01.JPG,AFNE01.JPG,AFNE01.JPG,,,,,,,,,,,,,,,,,,,,,1,0,10,3,,,AMSA13.jpg,AMSA14.jpg,AMNE05.jpg,AMNE17.jpg,AMNE17.jpg,MN,1,num_4,16,num_4,1.13339724578,,,2017_Apr_11_1143,59.9999038318,FEMA4ImagesEEG,001,100163,
AFNE01.JPG,AFNE01.JPG,AFNE01.JPG,AFNE01.JPG,AFNE01.JPG,AFNE01.JPG,,,,,,,,,,,,,,,,,,,,,1,1,11,8,,,AMNE18.jpg,AMSA16.jpg,AMSA13.jpg,AMNE09.jpg,AMNE09.jpg,MN,1,num_4,32,num_8,0.9167398219,,,2017_Apr_11_1143,59.9999038318,FEMA4ImagesEEG,001,100163,
AFNE01.JPG,AFNE01.JPG,AFNE01.JPG,AFNE01.JPG,AFNE01.JPG,AFNE01.JPG,,,,,,,,,,,,,,,,,,,,,1,2,12,5,,,AMNE09.jpg,AMSA18.jpg,AMSA12.jpg,AMNE20.jpg,AMNE20.jpg,MN,1,num_4,32,num_8,0.933501358144,,,2017_Apr_11_1143,59.9999038318,FEMA4ImagesEEG,001,100163,
AFNE01.JPG,AFNE01.JPG,AFNE01.JPG,AFNE01.JPG,AFNE01.JPG,AFNE01.JPG,,,,,,,,,,,,,,,,,,,,,1,3,13,0,,,AMSA07.jpg,AMNE08.jpg,AMSA02.jpg,AMNE07.jpg,AMSA02.jpg,MS,2,num_2,16,num_2,0.733468835242,,,2017_Apr_11_1143,59.9999038318,FEMA4ImagesEEG,001,100163,
AFNE01.JPG,AFNE01.JPG,AFNE01.JPG,AFNE01.JPG,AFNE01.JPG,AFNE01.JPG,,,,,,,,,,,,,,,,,,,,,1,4,14,4,,,AMSA06.jpg,AMNE10.jpg,AMSA10.jpg,AMNE04.jpg,AMSA10.jpg,MS,2,num_2,32,num_8,1.03342909552,,,2017_Apr_11_1143,59.9999038318,FEMA4ImagesEEG,001,100163,
AFNE01.JPG,AFNE01.JPG,AFNE01.JPG,AFNE01.JPG,AFNE01.JPG,AFNE01.JPG,,,,,,,,,,,,,,,,,,,,,1,5,15,1,,,AMSA02.jpg,AMNE16.jpg,AMNE13.jpg,AMSA06.jpg,AMSA02.jpg,MS,2,num_8,16,num_8,1.58333763666,,,2017_Apr_11_1143,59.9999038318,FEMA4ImagesEEG,001,100163,
AFNE01.JPG,AFNE01.JPG,AFNE01.JPG,AFNE01.JPG,AFNE01.JPG,AFNE01.JPG,,,,,,,,,,,,,,,,,,,,,1,6,16,6,,,AMNE20.jpg,AMSA02.jpg,AMSA15.jpg,AMNE10.jpg,AMSA15.jpg,MS,2,num_2,16,num_2,0.950095788576,,,2017_Apr_11_1143,59.9999038318,FEMA4ImagesEEG,001,100163,
AFNE01.JPG,AFNE01.JPG,AFNE01.JPG,AFNE01.JPG,AFNE01.JPG,AFNE01.JPG,,,,,,,,,,,,,,,,,,,,,1,7,17,7,,,AMNE14.jpg,AMNE15.jpg,AMSA20.jpg,AMSA11.jpg,AMNE14.jpg,MN,1,num_8,16,num_8,0.500157001894,,,2017_Apr_11_1143,59.9999038318,FEMA4ImagesEEG,001,100163,
AFNE01.JPG,AFNE01.JPG,AFNE01.JPG,AFNE01.JPG,AFNE01.JPG,AFNE01.JPG,,,,,,,,,,,,,,,,,,,,,1,8,18,2,,,AMSA05.jpg,AMNE08.jpg,AMNE06.jpg,AMSA15.jpg,AMSA15.jpg,MS,2,num_4,32,num_8,0.700123773422,,,2017_Apr_11_1143,59.9999038318,FEMA4ImagesEEG,001,100163,
AFNE01.JPG,AFNE01.JPG,AFNE01.JPG,AFNE01.JPG,AFNE01.JPG,AFNE01.JPG,,,,,,,,,,,,,,,,,,,,,1,9,19,9,,,AMSA14.jpg,AMNE19.jpg,AMNE09.jpg,AMSA05.jpg,AMSA14.jpg,MS,2,num_8,16,num_8,0.416858656332,,,2017_Apr_11_1143,59.9999038318,FEMA4ImagesEEG,001,100163,
AFNE01.JPG,AFNE01.JPG,AFNE01.JPG,AFNE01.JPG,AFNE01.JPG,AFNE01.JPG,,,,,,,,,,,,,,,,,,,,,2,0,20,2,,,AMSA11.jpg,AMNE20.jpg,AMSA04.jpg,AMNE18.jpg,AMSA04.jpg,MS,2,num_2,16,num_2,0.566791958641,,,2017_Apr_11_1143,59.9999038318,FEMA4ImagesEEG,001,100163,
AFNE01.JPG,AFNE01.JPG,AFNE01.JPG,AFNE01.JPG,AFNE01.JPG,AFNE01.JPG,,,,,,,,,,,,,,,,,,,,,2,1,21,8,,,AMNE10.jpg,AMSA07.jpg,AMSA08.jpg,AMNE13.jpg,AMSA07.jpg,MS,2,num_6,16,num_6,0.666715846863,,,2017_Apr_11_1143,59.9999038318,FEMA4ImagesEEG,001,100163,
AFNE01.JPG,AFNE01.JPG,AFNE01.JPG,AFNE01.JPG,AFNE01.JPG,AFNE01.JPG,,,,,,,,,,,,,,,,,,,,,2,2,22,4,,,AMNE07.jpg,AMSA01.jpg,AMSA13.jpg,AMNE04.jpg,AMNE07.jpg,MN,1,num_8,16,num_8,0.583464007825,,,2017_Apr_11_1143,59.9999038318,FEMA4ImagesEEG,001,100163,
AFNE01.JPG,AFNE01.JPG,AFNE01.JPG,AFNE01.JPG,AFNE01.JPG,AFNE01.JPG,,,,,,,,,,,,,,,,,,,,,2,3,23,3,,,AMSA10.jpg,AMNE08.jpg,AMNE01.jpg,AMSA03.jpg,AMNE08.jpg,MN,1,num_6,16,num_6,0.966714916751,,,2017_Apr_11_1143,59.9999038318,FEMA4ImagesEEG,001,100163,
AFNE01.JPG,AFNE01.JPG,AFNE01.JPG,AFNE01.JPG,AFNE01.JPG,AFNE01.JPG,,,,,,,,,,,,,,,,,,,,,2,4,24,7,,,AMNE20.jpg,AMSA13.jpg,AMNE18.jpg,AMSA03.jpg,AMNE20.jpg,MN,1,num_8,16,num_8,0.750139281154,,,2017_Apr_11_1143,59.9999038318,FEMA4ImagesEEG,001,100163,
AFNE01.JPG,AFNE01.JPG,AFNE01.JPG,AFNE01.JPG,AFNE01.JPG,AFNE01.JPG,,,,,,,,,,,,,,,,,,,,,2,5,25,9,,,AMSA20.jpg,AMNE10.jpg,AMSA06.jpg,AMNE11.jpg,AMNE11.jpg,MN,1,num_4,32,num_6,0.950145503506,,,2017_Apr_11_1143,59.9999038318,FEMA4ImagesEEG,001,100163,
AFNE01.JPG,AFNE01.JPG,AFNE01.JPG,AFNE01.JPG,AFNE01.JPG,AFNE01.JPG,,,,,,,,,,,,,,,,,,,,,2,6,26,1,,,AMNE10.jpg,AMSA15.jpg,AMSA07.jpg,AMNE11.jpg,AMSA07.jpg,MS,2,num_2,16,num_2,0.616833766922,,,2017_Apr_11_1143,59.9999038318,FEMA4ImagesEEG,001,100163,
AFNE01.JPG,AFNE01.JPG,AFNE01.JPG,AFNE01.JPG,AFNE01.JPG,AFNE01.JPG,,,,,,,,,,,,,,,,,,,,,2,7,27,5,,,AMNE08.jpg,AMSA04.jpg,AMSA14.jpg,AMNE12.jpg,AMSA04.jpg,MS,2,num_6,32,num_2,0.899800916668,,,2017_Apr_11_1143,59.9999038318,FEMA4ImagesEEG,001,100163,
AFNE01.JPG,AFNE01.JPG,AFNE01.JPG,AFNE01.JPG,AFNE01.JPG,AFNE01.JPG,,,,,,,,,,,,,,,,,,,,,2,8,28,6,,,AMNE06.jpg,AMSA05.jpg,AMSA07.jpg,AMNE16.jpg,AMSA05.jpg,MS,2,num_6,16,num_6,0.6334586679,,,2017_Apr_11_1143,59.9999038318,FEMA4ImagesEEG,001,100163,
AFNE01.JPG,AFNE01.JPG,AFNE01.JPG,AFNE01.JPG,AFNE01.JPG,AFNE01.JPG,,,,,,,,,,,,,,,,,,,,,2,9,29,0,,,AMNE04.jpg,AMNE01.jpg,AMSA05.jpg,AMSA12.jpg,AMSA05.jpg,MS,2,num_2,16,num_2,0.683509456925,,,2017_Apr_11_1143,59.9999038318,FEMA4ImagesEEG,001,100163,
AFNE01.JPG,AFNE01.JPG,AFNE01.JPG,AFNE01.JPG,AFNE01.JPG,AFNE01.JPG,,,,,,,,,,,,,,,,,,,,,3,0,30,9,,,AMSA20.jpg,AMNE02.jpg,AMNE19.jpg,AMSA03.jpg,AMNE02.jpg,MN,1,num_6,16,num_6,0.550097777508,,,2017_Apr_11_1143,59.9999038318,FEMA4ImagesEEG,001,100163,
AFNE01.JPG,AFNE01.JPG,AFNE01.JPG,AFNE01.JPG,AFNE01.JPG,AFNE01.JPG,,,,,,,,,,,,,,,,,,,,,3,1,31,6,,,AMSA11.jpg,AMNE06.jpg,AMSA12.jpg,AMNE18.jpg,AMSA11.jpg,MS,2,num_8,16,num_8,0.500129739288,,,2017_Apr_11_1143,59.9999038318,FEMA4ImagesEEG,001,100163,
AFNE01.JPG,AFNE01.JPG,AFNE01.JPG,AFNE01.JPG,AFNE01.JPG,AFNE01.JPG,,,,,,,,,,,,,,,,,,,,,3,2,32,1,,,AMNE18.jpg,AMNE15.jpg,AMSA06.jpg,AMSA11.jpg,AMNE18.jpg,MN,1,num_8,32,num_6,1.05009312648,,,2017_Apr_11_1143,59.9999038318,FEMA4ImagesEEG,001,100163,
AFNE01.JPG,AFNE01.JPG,AFNE01.JPG,AFNE01.JPG,AFNE01.JPG,AFNE01.JPG,,,,,,,,,,,,,,,,,,,,,3,3,33,7,,,AMNE03.jpg,AMSA01.jpg,AMSA06.jpg,AMNE14.jpg,AMSA01.jpg,MS,2,num_6,16,num_6,1.03343005804,,,2017_Apr_11_1143,59.9999038318,FEMA4ImagesEEG,001,100163,
AFNE01.JPG,AFNE01.JPG,AFNE01.JPG,AFNE01.JPG,AFNE01.JPG,AFNE01.JPG,,,,,,,,,,,,,,,,,,,,,3,4,34,3,,,AMSA15.jpg,AMNE19.jpg,AMNE13.jpg,AMSA05.jpg,AMNE19.jpg,MN,1,num_6,16,num_6,0.783506473992,,,2017_Apr_11_1143,59.9999038318,FEMA4ImagesEEG,001,100163,
AFNE01.JPG,AFNE01.JPG,AFNE01.JPG,AFNE01.JPG,AFNE01.JPG,AFNE01.JPG,,,,,,,,,,,,,,,,,,,,,3,5,35,0,,,AMNE10.jpg,AMSA13.jpg,AMNE02.jpg,AMSA03.jpg,AMNE02.jpg,MN,1,num_2,16,num_2,0.833450777456,,,2017_Apr_11_1143,59.9999038318,FEMA4ImagesEEG,001,100163,
AFNE01.JPG,AFNE01.JPG,AFNE01.JPG,AFNE01.JPG,AFNE01.JPG,AFNE01.JPG,,,,,,,,,,,,,,,,,,,,,3,6,36,2,,,AMSA08.jpg,AMNE11.jpg,AMNE07.jpg,AMSA17.jpg,AMNE07.jpg,MN,1,num_2,16,num_2,1.15010104934,,,2017_Apr_11_1143,59.9999038318,FEMA4ImagesEEG,001,100163,
AFNE01.JPG,AFNE01.JPG,AFNE01.JPG,AFNE01.JPG,AFNE01.JPG,AFNE01.JPG,,,,,,,,,,,,,,,,,,,,,3,7,37,5,,,AMSA11.jpg,AMNE12.jpg,AMNE15.jpg,AMSA20.jpg,AMNE12.jpg,MN,1,num_6,32,num_2,0.433451162186,,,2017_Apr_11_1143,59.9999038318,FEMA4ImagesEEG,001,100163,
AFNE01.JPG,AFNE01.JPG,AFNE01.JPG,AFNE01.JPG,AFNE01.JPG,AFNE01.JPG,,,,,,,,,,,,,,,,,,,,,3,8,38,4,,,AMNE04.jpg,AMNE11.jpg,AMSA09.jpg,AMSA15.jpg,AMSA15.jpg,MS,2,num_4,32,num_2,0.766777974088,,,2017_Apr_11_1143,59.9999038318,FEMA4ImagesEEG,001,100163,
