IPosition2,IPosition3,IPosition1,IPosition6,IPosition4,IPosition5,TrialsM1.thisRepN,TrialsM1.thisTrialN,TrialsM1.thisN,TrialsM1.thisIndex,TrialsF1.thisRepN,TrialsF1.thisTrialN,TrialsF1.thisN,TrialsF1.thisIndex,TrialsM2.thisRepN,TrialsM2.thisTrialN,TrialsM2.thisN,TrialsM2.thisIndex,TrialsF2.thisRepN,TrialsF2.thisTrialN,TrialsF2.thisN,TrialsF2.thisIndex,TrialsM3.thisRepN,TrialsM3.thisTrialN,TrialsM3.thisN,TrialsM3.thisIndex,TrialsF3.thisRepN,TrialsF3.thisTrialN,TrialsF3.thisN,TrialsF3.thisIndex,InstrKey_resp.keys,InstrKey_resp.rt,Image0 _Position,Image1 _Position,Image2 _Position,Image3 _Position,Center_image,condition,code,correct_answer,accuracy,Key_Resp.keys,Key_Resp.rt,BreakKey_resp.keys,BreakKey_resp.rt,date,frameRate,expName,session,participant,
,,,,,,,,,,,,,,,,,,,,,,,,,,,,,,space,65.9121017744,,,,,,,,,,,,,,2017_Apr_24_1715,60.0087959313,MAFE4ImagesEEG,001,100187,
AFSA21.JPG,AFNE23.JPG,AFNE21.JPG,AFSA25.JPG,AFNE25.JPG,AFSA23.JPG,0,0,0,4,,,,,,,,,,,,,,,,,,,,,,,AMSA14.jpg,AMSA16.jpg,AMNE20.jpg,AMNE01.jpg,AMSA14.jpg,MS,2,num_8,48,None,,,,2017_Apr_24_1715,60.0087959313,MAFE4ImagesEEG,001,100187,
AFSA21.JPG,AFNE22.JPG,AFNE21.JPG,AFSA23.JPG,AFSA22.JPG,AFNE23.JPG,0,1,1,0,,,,,,,,,,,,,,,,,,,,,,,AMNE11.jpg,AMSA01.jpg,AMSA05.jpg,AMNE07.jpg,AMSA05.jpg,MS,2,num_2,48,None,,,,2017_Apr_24_1715,60.0087959313,MAFE4ImagesEEG,001,100187,
AMSA21.JPG,AMNE23.JPG,AMNE21.JPG,AMSA25.JPG,AMNE25.JPG,AMSA23.JPG,0,2,2,5,,,,,,,,,,,,,,,,,,,,,,,AMNE14.jpg,AMNE08.jpg,AMSA07.jpg,AMSA01.jpg,AMNE14.jpg,MN,1,num_8,48,None,,,,2017_Apr_24_1715,60.0087959313,MAFE4ImagesEEG,001,100187,
AFSA25.JPG,AFNE24.JPG,AFSA24.JPG,AFNE21.JPG,AFSA21.JPG,AFNE25.JPG,0,3,3,2,,,,,,,,,,,,,,,,,,,,,,,AMNE10.jpg,AMSA05.jpg,AMSA14.jpg,AMNE07.jpg,AMNE07.jpg,MN,1,num_4,48,None,,,,2017_Apr_24_1715,60.0087959313,MAFE4ImagesEEG,001,100187,
AFNE23.JPG,AFNE24.JPG,AFNE22.JPG,AFSA24.JPG,AFSA22.JPG,AFSA23.JPG,0,4,4,8,,,,,,,,,,,,,,,,,,,,,,,AMSA10.jpg,AMSA04.jpg,AMNE05.jpg,AMNE07.jpg,AMSA10.jpg,MS,2,num_8,48,None,,,,2017_Apr_24_1715,60.0087959313,MAFE4ImagesEEG,001,100187,
AMSA21.JPG,AMNE22.JPG,AMNE21.JPG,AMSA23.JPG,AMSA22.JPG,AMNE23.JPG,0,5,5,1,,,,,,,,,,,,,,,,,,,,,,,AMNE08.jpg,AMSA13.jpg,AMNE19.jpg,AMSA16.jpg,AMNE19.jpg,MN,1,num_2,48,None,,,,2017_Apr_24_1715,60.0087959313,MAFE4ImagesEEG,001,100187,
AFNE22.JPG,AFSA24.JPG,AFSA22.JPG,AFNE25.JPG,AFNE24.JPG,AFSA25.JPG,0,6,6,6,,,,,,,,,,,,,,,,,,,,,,,AMSA04.jpg,AMNE01.jpg,AMNE02.jpg,AMSA03.jpg,AMNE01.jpg,MN,1,num_6,48,None,,,,2017_Apr_24_1715,60.0087959313,MAFE4ImagesEEG,001,100187,
AMNE22.JPG,AMSA24.JPG,AMSA22.JPG,AMNE25.JPG,AMNE24.JPG,AMSA25.JPG,0,7,7,7,,,,,,,,,,,,,,,,,,,,,,,AMNE05.jpg,AMSA17.jpg,AMNE19.jpg,AMSA10.jpg,AMNE19.jpg,MN,1,num_2,48,None,,,,2017_Apr_24_1715,60.0087959313,MAFE4ImagesEEG,001,100187,
AMNE23.JPG,AMNE24.JPG,AMNE22.JPG,AMSA24.JPG,AMSA22.JPG,AMSA23.JPG,0,8,8,9,,,,,,,,,,,,,,,,,,,,,,,AMSA15.jpg,AMNE07.jpg,AMSA08.jpg,AMNE05.jpg,AMNE07.jpg,MN,1,num_6,48,None,,,,2017_Apr_24_1715,60.0087959313,MAFE4ImagesEEG,001,100187,
AMSA25.JPG,AMNE24.JPG,AMSA24.JPG,AMNE26.JPG,AMSA21.JPG,AMNE25.JPG,0,9,9,3,,,,,,,,,,,,,,,,,,,,,,,AMNE10.jpg,AMSA15.jpg,AMSA16.jpg,AMNE01.jpg,AMNE01.jpg,MN,1,num_4,48,None,,,,2017_Apr_24_1715,60.0087959313,MAFE4ImagesEEG,001,100187,
AFNE23.JPG,AFNE24.JPG,AFNE22.JPG,AFSA24.JPG,AFSA22.JPG,AFSA23.JPG,,,,,0,0,0,8,,,,,,,,,,,,,,,,,,,AFSA01.jpg,AFNE02.jpg,AFSA13.jpg,AFNE17.jpg,AFNE17.jpg,FN,3,num_4,48,None,,,,2017_Apr_24_1715,60.0087959313,MAFE4ImagesEEG,001,100187,
AFSA21.JPG,AFNE23.JPG,AFNE21.JPG,AFSA25.JPG,AFNE25.JPG,AFSA23.JPG,,,,,0,1,1,4,,,,,,,,,,,,,,,,,,,AFNE06.jpg,AFSA07.jpg,AFNE19.jpg,AFSA05.jpg,AFNE06.jpg,FN,3,num_8,48,None,,,,2017_Apr_24_1715,60.0087959313,MAFE4ImagesEEG,001,100187,
AMNE23.JPG,AMNE24.JPG,AMNE22.JPG,AMSA24.JPG,AMSA22.JPG,AMSA23.JPG,,,,,0,2,2,9,,,,,,,,,,,,,,,,,,,AFNE17.jpg,AFSA11.jpg,AFNE12.jpg,AFSA15.jpg,AFNE17.jpg,FN,3,num_8,48,None,,,,2017_Apr_24_1715,60.0087959313,MAFE4ImagesEEG,001,100187,
AMSA21.JPG,AMNE22.JPG,AMNE21.JPG,AMSA23.JPG,AMSA22.JPG,AMNE23.JPG,,,,,0,3,3,1,,,,,,,,,,,,,,,,,,,AFNE03.jpg,AFSA04.jpg,AFSA05.jpg,AFNE18.jpg,AFNE18.jpg,FN,3,num_4,32,num_8,3.00003431912,,,2017_Apr_24_1715,60.0087959313,MAFE4ImagesEEG,001,100187,
AFSA21.JPG,AFNE22.JPG,AFNE21.JPG,AFSA23.JPG,AFSA22.JPG,AFNE23.JPG,,,,,0,4,4,0,,,,,,,,,,,,,,,,,,,AFSA15.jpg,AFNE12.jpg,AFNE15.jpg,AFSA12.jpg,AFSA15.jpg,FS,4,num_8,32,num_2,2.05048818095,,,2017_Apr_24_1715,60.0087959313,MAFE4ImagesEEG,001,100187,
AMSA25.JPG,AMNE24.JPG,AMSA24.JPG,AMNE26.JPG,AMSA21.JPG,AMNE25.JPG,,,,,0,5,5,3,,,,,,,,,,,,,,,,,,,AFSA07.jpg,AFSA04.jpg,AFNE04.jpg,AFNE18.jpg,AFSA07.jpg,FS,4,num_8,16,num_8,0.733463895507,,,2017_Apr_24_1715,60.0087959313,MAFE4ImagesEEG,001,100187,
AFNE22.JPG,AFSA24.JPG,AFSA22.JPG,AFNE25.JPG,AFNE24.JPG,AFSA25.JPG,,,,,0,6,6,6,,,,,,,,,,,,,,,,,,,AFSA15.jpg,AFNE17.jpg,AFNE07.jpg,AFSA16.jpg,AFSA16.jpg,FS,4,num_4,32,num_8,2.06646836444,,,2017_Apr_24_1715,60.0087959313,MAFE4ImagesEEG,001,100187,
AMNE22.JPG,AMSA24.JPG,AMSA22.JPG,AMNE25.JPG,AMNE24.JPG,AMSA25.JPG,,,,,0,7,7,7,,,,,,,,,,,,,,,,,,,AFSA18.jpg,AFSA01.jpg,AFNE11.jpg,AFNE01.jpg,AFSA01.jpg,FS,4,num_6,32,num_8,0.950122506241,,,2017_Apr_24_1715,60.0087959313,MAFE4ImagesEEG,001,100187,
AFSA25.JPG,AFNE24.JPG,AFSA24.JPG,AFNE21.JPG,AFSA21.JPG,AFNE25.JPG,,,,,0,8,8,2,,,,,,,,,,,,,,,,,,,AFSA09.jpg,AFNE17.jpg,AFNE16.jpg,AFSA19.jpg,AFNE17.jpg,FN,3,num_6,32,num_2,1.66677646642,,,2017_Apr_24_1715,60.0087959313,MAFE4ImagesEEG,001,100187,
AMSA21.JPG,AMNE23.JPG,AMNE21.JPG,AMSA25.JPG,AMNE25.JPG,AMSA23.JPG,,,,,0,9,9,5,,,,,,,,,,,,,,,,,,,AFNE13.jpg,AFNE09.jpg,AFSA06.jpg,AFSA01.jpg,AFSA06.jpg,FS,4,num_2,32,num_4,1.20006677788,,,2017_Apr_24_1715,60.0087959313,MAFE4ImagesEEG,001,100187,
AMNE23.JPG,AMNE24.JPG,AMNE22.JPG,AMSA24.JPG,AMSA22.JPG,AMSA23.JPG,,,,,,,,,0,0,0,9,,,,,,,,,,,,,,,AMNE15.jpg,AMSA05.jpg,AMSA07.jpg,AMNE04.jpg,AMNE04.jpg,MN,1,num_4,32,num_6,1.90005770093,,,2017_Apr_24_1715,60.0087959313,MAFE4ImagesEEG,001,100187,
AMSA21.JPG,AMNE23.JPG,AMNE21.JPG,AMSA25.JPG,AMNE25.JPG,AMSA23.JPG,,,,,,,,,0,1,1,5,,,,,,,,,,,,,,,AMSA01.jpg,AMNE13.jpg,AMSA16.jpg,AMNE07.jpg,AMSA01.jpg,MS,2,num_8,16,num_8,0.900148790912,,,2017_Apr_24_1715,60.0087959313,MAFE4ImagesEEG,001,100187,
AMSA25.JPG,AMNE24.JPG,AMSA24.JPG,AMNE26.JPG,AMSA21.JPG,AMNE25.JPG,,,,,,,,,0,2,2,3,,,,,,,,,,,,,,,AMNE01.jpg,AMSA14.jpg,AMSA10.jpg,AMNE20.jpg,AMNE20.jpg,MN,1,num_4,32,num_6,1.11678078026,,,2017_Apr_24_1715,60.0087959313,MAFE4ImagesEEG,001,100187,
AFSA25.JPG,AFNE24.JPG,AFSA24.JPG,AFNE21.JPG,AFSA21.JPG,AFNE25.JPG,,,,,,,,,0,3,3,2,,,,,,,,,,,,,,,AMSA14.jpg,AMNE13.jpg,AMNE18.jpg,AMSA17.jpg,AMSA17.jpg,MS,2,num_4,16,num_4,1.0334444266,,,2017_Apr_24_1715,60.0087959313,MAFE4ImagesEEG,001,100187,
AMSA21.JPG,AMNE22.JPG,AMNE21.JPG,AMSA23.JPG,AMSA22.JPG,AMNE23.JPG,,,,,,,,,0,4,4,1,,,,,,,,,,,,,,,AMNE01.jpg,AMSA16.jpg,AMNE12.jpg,AMSA01.jpg,AMNE01.jpg,MN,1,num_8,32,num_6,1.35014252039,,,2017_Apr_24_1715,60.0087959313,MAFE4ImagesEEG,001,100187,
AFSA21.JPG,AFNE23.JPG,AFNE21.JPG,AFSA25.JPG,AFNE25.JPG,AFSA23.JPG,,,,,,,,,0,5,5,4,,,,,,,,,,,,,,,AMSA06.jpg,AMNE17.jpg,AMSA03.jpg,AMNE07.jpg,AMNE07.jpg,MN,1,num_4,16,num_4,0.716765256482,,,2017_Apr_24_1715,60.0087959313,MAFE4ImagesEEG,001,100187,
AFSA21.JPG,AFNE22.JPG,AFNE21.JPG,AFSA23.JPG,AFSA22.JPG,AFNE23.JPG,,,,,,,,,0,6,6,0,,,,,,,,,,,,,,,AMNE18.jpg,AMSA19.jpg,AMNE17.jpg,AMSA08.jpg,AMSA19.jpg,MS,2,num_6,16,num_6,1.03158510209,,,2017_Apr_24_1715,60.0087959313,MAFE4ImagesEEG,001,100187,
AFNE22.JPG,AFSA24.JPG,AFSA22.JPG,AFNE25.JPG,AFNE24.JPG,AFSA25.JPG,,,,,,,,,0,7,7,6,,,,,,,,,,,,,,,AMSA20.jpg,AMSA13.jpg,AMNE07.jpg,AMNE02.jpg,AMSA20.jpg,MS,2,num_8,16,num_8,0.683474784601,,,2017_Apr_24_1715,60.0087959313,MAFE4ImagesEEG,001,100187,
AMNE22.JPG,AMSA24.JPG,AMSA22.JPG,AMNE25.JPG,AMNE24.JPG,AMSA25.JPG,,,,,,,,,0,8,8,7,,,,,,,,,,,,,,,AMNE09.jpg,AMNE04.jpg,AMSA20.jpg,AMSA13.jpg,AMSA20.jpg,MS,2,num_2,32,num_8,1.46672797063,,,2017_Apr_24_1715,60.0087959313,MAFE4ImagesEEG,001,100187,
AFNE23.JPG,AFNE24.JPG,AFNE22.JPG,AFSA24.JPG,AFSA22.JPG,AFSA23.JPG,,,,,,,,,0,9,9,8,,,,,,,,,,,,,,,AMSA19.jpg,AMNE10.jpg,AMSA07.jpg,AMNE16.jpg,AMSA07.jpg,MS,2,num_2,16,num_2,2.48337432905,,,2017_Apr_24_1715,60.0087959313,MAFE4ImagesEEG,001,100187,
AFSA25.JPG,AFNE24.JPG,AFSA24.JPG,AFNE21.JPG,AFSA21.JPG,AFNE25.JPG,,,,,,,,,,,,,0,0,0,2,,,,,,,,,,,AFNE16.jpg,AFSA02.jpg,AFNE15.jpg,AFSA15.jpg,AFSA15.jpg,FS,4,num_4,16,num_4,0.666794427787,,,2017_Apr_24_1715,60.0087959313,MAFE4ImagesEEG,001,100187,
AFSA21.JPG,AFNE22.JPG,AFNE21.JPG,AFSA23.JPG,AFSA22.JPG,AFNE23.JPG,,,,,,,,,,,,,0,1,1,0,,,,,,,,,,,AFSA07.jpg,AFSA11.jpg,AFNE07.jpg,AFNE03.jpg,AFSA07.jpg,FS,4,num_8,32,num_6,0.733537986176,,,2017_Apr_24_1715,60.0087959313,MAFE4ImagesEEG,001,100187,
AFNE23.JPG,AFNE24.JPG,AFNE22.JPG,AFSA24.JPG,AFSA22.JPG,AFSA23.JPG,,,,,,,,,,,,,0,2,2,8,,,,,,,,,,,AFSA04.jpg,AFNE06.jpg,AFNE10.jpg,AFSA02.jpg,AFNE10.jpg,FN,3,num_2,16,num_2,1.06674420007,,,2017_Apr_24_1715,60.0087959313,MAFE4ImagesEEG,001,100187,
AMNE22.JPG,AMSA24.JPG,AMSA22.JPG,AMNE25.JPG,AMNE24.JPG,AMSA25.JPG,,,,,,,,,,,,,0,3,3,7,,,,,,,,,,,AFNE06.jpg,AFSA15.jpg,AFNE01.jpg,AFSA05.jpg,AFSA15.jpg,FS,4,num_6,32,num_4,1.06678172643,,,2017_Apr_24_1715,60.0087959313,MAFE4ImagesEEG,001,100187,
AMSA21.JPG,AMNE23.JPG,AMNE21.JPG,AMSA25.JPG,AMNE25.JPG,AMSA23.JPG,,,,,,,,,,,,,0,4,4,5,,,,,,,,,,,AFSA07.jpg,AFSA14.jpg,AFNE16.jpg,AFNE07.jpg,AFSA07.jpg,FS,4,num_8,16,num_8,0.733482819167,,,2017_Apr_24_1715,60.0087959313,MAFE4ImagesEEG,001,100187,
AMSA21.JPG,AMNE22.JPG,AMNE21.JPG,AMSA23.JPG,AMSA22.JPG,AMNE23.JPG,,,,,,,,,,,,,0,5,5,1,,,,,,,,,,,AFNE15.jpg,AFNE19.jpg,AFSA05.jpg,AFSA15.jpg,AFNE19.jpg,FN,3,num_6,16,num_6,1.05011035025,,,2017_Apr_24_1715,60.0087959313,MAFE4ImagesEEG,001,100187,
AMSA25.JPG,AMNE24.JPG,AMSA24.JPG,AMNE26.JPG,AMSA21.JPG,AMNE25.JPG,,,,,,,,,,,,,0,6,6,3,,,,,,,,,,,AFSA13.jpg,AFNE06.jpg,AFSA18.jpg,AFNE04.jpg,AFSA18.jpg,FS,4,num_2,32,num_8,0.816810833523,,,2017_Apr_24_1715,60.0087959313,MAFE4ImagesEEG,001,100187,
AMNE23.JPG,AMNE24.JPG,AMNE22.JPG,AMSA24.JPG,AMSA22.JPG,AMSA23.JPG,,,,,,,,,,,,,0,7,7,9,,,,,,,,,,,AFSA10.jpg,AFNE02.jpg,AFSA19.jpg,AFNE12.jpg,AFSA10.jpg,FS,4,num_8,32,num_6,1.3334150149,,,2017_Apr_24_1715,60.0087959313,MAFE4ImagesEEG,001,100187,
AFNE22.JPG,AFSA24.JPG,AFSA22.JPG,AFNE25.JPG,AFNE24.JPG,AFSA25.JPG,,,,,,,,,,,,,0,8,8,6,,,,,,,,,,,AFSA11.jpg,AFNE05.jpg,AFSA14.jpg,AFNE19.jpg,AFSA14.jpg,FS,4,num_2,16,num_2,0.916799639817,,,2017_Apr_24_1715,60.0087959313,MAFE4ImagesEEG,001,100187,
AFSA21.JPG,AFNE23.JPG,AFNE21.JPG,AFSA25.JPG,AFNE25.JPG,AFSA23.JPG,,,,,,,,,,,,,0,9,9,4,,,,,,,,,,,AFNE13.jpg,AFSA02.jpg,AFSA10.jpg,AFNE18.jpg,AFNE13.jpg,FN,3,num_8,32,num_6,0.883473565802,,,2017_Apr_24_1715,60.0087959313,MAFE4ImagesEEG,001,100187,
AFNE23.JPG,AFNE24.JPG,AFNE22.JPG,AFSA24.JPG,AFSA22.JPG,AFSA23.JPG,,,,,,,,,,,,,,,,,0,0,0,8,,,,,,,AMNE03.jpg,AMSA04.jpg,AMSA17.jpg,AMNE01.jpg,AMSA04.jpg,MS,2,num_6,16,num_6,0.800491628819,,,2017_Apr_24_1715,60.0087959313,MAFE4ImagesEEG,001,100187,
AMSA21.JPG,AMNE22.JPG,AMNE21.JPG,AMSA23.JPG,AMSA22.JPG,AMNE23.JPG,,,,,,,,,,,,,,,,,0,1,1,1,,,,,,,AMSA11.jpg,AMNE09.jpg,AMNE19.jpg,AMSA12.jpg,AMSA11.jpg,MS,2,num_8,16,num_8,0.850140435621,,,2017_Apr_24_1715,60.0087959313,MAFE4ImagesEEG,001,100187,
AMSA21.JPG,AMNE23.JPG,AMNE21.JPG,AMSA25.JPG,AMNE25.JPG,AMSA23.JPG,,,,,,,,,,,,,,,,,0,2,2,5,,,,,,,AMNE18.jpg,AMNE14.jpg,AMSA18.jpg,AMSA13.jpg,AMNE18.jpg,MN,1,num_8,32,num_4,1.20010879473,,,2017_Apr_24_1715,60.0087959313,MAFE4ImagesEEG,001,100187,
AFSA21.JPG,AFNE22.JPG,AFNE21.JPG,AFSA23.JPG,AFSA22.JPG,AFNE23.JPG,,,,,,,,,,,,,,,,,0,3,3,0,,,,,,,AMSA04.jpg,AMSA17.jpg,AMNE20.jpg,AMNE06.jpg,AMSA17.jpg,MS,2,num_6,16,num_6,0.883450151887,,,2017_Apr_24_1715,60.0087959313,MAFE4ImagesEEG,001,100187,
AMSA25.JPG,AMNE24.JPG,AMSA24.JPG,AMNE26.JPG,AMSA21.JPG,AMNE25.JPG,,,,,,,,,,,,,,,,,0,4,4,3,,,,,,,AMSA03.jpg,AMSA17.jpg,AMNE02.jpg,AMNE12.jpg,AMSA03.jpg,MS,2,num_8,16,num_8,0.683452653699,,,2017_Apr_24_1715,60.0087959313,MAFE4ImagesEEG,001,100187,
AFSA21.JPG,AFNE23.JPG,AFNE21.JPG,AFSA25.JPG,AFNE25.JPG,AFSA23.JPG,,,,,,,,,,,,,,,,,0,5,5,4,,,,,,,AMNE05.jpg,AMSA18.jpg,AMNE08.jpg,AMSA10.jpg,AMSA10.jpg,MS,2,num_4,32,num_6,0.716784500866,,,2017_Apr_24_1715,60.0087959313,MAFE4ImagesEEG,001,100187,
AMNE23.JPG,AMNE24.JPG,AMNE22.JPG,AMSA24.JPG,AMSA22.JPG,AMSA23.JPG,,,,,,,,,,,,,,,,,0,6,6,9,,,,,,,AMSA12.jpg,AMNE10.jpg,AMNE08.jpg,AMSA01.jpg,AMNE08.jpg,MN,1,num_2,16,num_2,0.900129867252,,,2017_Apr_24_1715,60.0087959313,MAFE4ImagesEEG,001,100187,
AFSA25.JPG,AFNE24.JPG,AFSA24.JPG,AFNE21.JPG,AFSA21.JPG,AFNE25.JPG,,,,,,,,,,,,,,,,,0,7,7,2,,,,,,,AMSA04.jpg,AMNE04.jpg,AMSA12.jpg,AMNE20.jpg,AMNE04.jpg,MN,1,num_6,16,num_6,0.750376467477,,,2017_Apr_24_1715,60.0087959313,MAFE4ImagesEEG,001,100187,
AFNE22.JPG,AFSA24.JPG,AFSA22.JPG,AFNE25.JPG,AFNE24.JPG,AFSA25.JPG,,,,,,,,,,,,,,,,,0,8,8,6,,,,,,,AMNE15.jpg,AMNE17.jpg,AMSA08.jpg,AMSA16.jpg,AMNE17.jpg,MN,1,num_6,32,num_2,0.950109997531,,,2017_Apr_24_1715,60.0087959313,MAFE4ImagesEEG,001,100187,
AMNE22.JPG,AMSA24.JPG,AMSA22.JPG,AMNE25.JPG,AMNE24.JPG,AMSA25.JPG,,,,,,,,,,,,,,,,,0,9,9,7,,,,,,,AMNE18.jpg,AMSA18.jpg,AMSA17.jpg,AMNE19.jpg,AMSA17.jpg,MS,2,num_2,32,num_4,1.11677019589,,,2017_Apr_24_1715,60.0087959313,MAFE4ImagesEEG,001,100187,
AMSA25.JPG,AMNE24.JPG,AMSA24.JPG,AMNE26.JPG,AMSA21.JPG,AMNE25.JPG,,,,,,,,,,,,,,,,,,,,,0,0,0,3,,,AFNE19.jpg,AFNE14.jpg,AFSA18.jpg,AFSA10.jpg,AFNE19.jpg,FN,3,num_8,16,num_8,0.850114455796,,,2017_Apr_24_1715,60.0087959313,MAFE4ImagesEEG,001,100187,
AMSA21.JPG,AMNE23.JPG,AMNE21.JPG,AMSA25.JPG,AMNE25.JPG,AMSA23.JPG,,,,,,,,,,,,,,,,,,,,,0,1,1,5,,,AFNE17.jpg,AFNE11.jpg,AFSA13.jpg,AFSA06.jpg,AFNE11.jpg,FN,3,num_6,16,num_6,1.08343033027,,,2017_Apr_24_1715,60.0087959313,MAFE4ImagesEEG,001,100187,
AFSA21.JPG,AFNE22.JPG,AFNE21.JPG,AFSA23.JPG,AFSA22.JPG,AFNE23.JPG,,,,,,,,,,,,,,,,,,,,,0,2,2,0,,,AFNE15.jpg,AFSA02.jpg,AFSA05.jpg,AFNE02.jpg,AFSA02.jpg,FS,4,num_6,32,num_8,1.23373508034,,,2017_Apr_24_1715,60.0087959313,MAFE4ImagesEEG,001,100187,
AMSA21.JPG,AMNE22.JPG,AMNE21.JPG,AMSA23.JPG,AMSA22.JPG,AMNE23.JPG,,,,,,,,,,,,,,,,,,,,,0,3,3,1,,,AFSA03.jpg,AFSA16.jpg,AFNE10.jpg,AFNE08.jpg,AFNE08.jpg,FN,3,num_4,16,num_4,1.7000839375,,,2017_Apr_24_1715,60.0087959313,MAFE4ImagesEEG,001,100187,
AMNE22.JPG,AMSA24.JPG,AMSA22.JPG,AMNE25.JPG,AMNE24.JPG,AMSA25.JPG,,,,,,,,,,,,,,,,,,,,,0,4,4,7,,,AFNE16.jpg,AFNE13.jpg,AFSA11.jpg,AFSA17.jpg,AFNE13.jpg,FN,3,num_6,16,num_6,1.51670649718,,,2017_Apr_24_1715,60.0087959313,MAFE4ImagesEEG,001,100187,
AFSA21.JPG,AFNE23.JPG,AFNE21.JPG,AFSA25.JPG,AFNE25.JPG,AFSA23.JPG,,,,,,,,,,,,,,,,,,,,,0,5,5,4,,,AFNE10.jpg,AFSA08.jpg,AFSA12.jpg,AFNE11.jpg,AFNE11.jpg,FN,3,num_4,16,num_4,1.50004474306,,,2017_Apr_24_1715,60.0087959313,MAFE4ImagesEEG,001,100187,
AMNE23.JPG,AMNE24.JPG,AMNE22.JPG,AMSA24.JPG,AMSA22.JPG,AMSA23.JPG,,,,,,,,,,,,,,,,,,,,,0,6,6,9,,,AFNE17.jpg,AFSA17.jpg,AFNE15.jpg,AFSA20.jpg,AFNE17.jpg,FN,3,num_8,16,num_8,0.733577116393,,,2017_Apr_24_1715,60.0087959313,MAFE4ImagesEEG,001,100187,
AFNE23.JPG,AFNE24.JPG,AFNE22.JPG,AFSA24.JPG,AFSA22.JPG,AFSA23.JPG,,,,,,,,,,,,,,,,,,,,,0,7,7,8,,,AFNE01.jpg,AFSA19.jpg,AFSA04.jpg,AFNE14.jpg,AFNE01.jpg,FN,3,num_8,32,num_4,0.950112563442,,,2017_Apr_24_1715,60.0087959313,MAFE4ImagesEEG,001,100187,
AFSA25.JPG,AFNE24.JPG,AFSA24.JPG,AFNE21.JPG,AFSA21.JPG,AFNE25.JPG,,,,,,,,,,,,,,,,,,,,,0,8,8,2,,,AFNE04.jpg,AFSA02.jpg,AFSA09.jpg,AFNE16.jpg,AFSA02.jpg,FS,4,num_6,32,num_8,1.21673270152,,,2017_Apr_24_1715,60.0087959313,MAFE4ImagesEEG,001,100187,
AFNE22.JPG,AFSA24.JPG,AFSA22.JPG,AFNE25.JPG,AFNE24.JPG,AFSA25.JPG,,,,,,,,,,,,,,,,,,,,,0,9,9,6,,,AFSA19.jpg,AFNE15.jpg,AFNE03.jpg,AFSA01.jpg,AFNE03.jpg,FN,3,num_2,16,num_2,1.45006397134,,,2017_Apr_24_1715,60.0087959313,MAFE4ImagesEEG,001,100187,
,,,,,,,,,,,,,,,,,,,,,,,,,,,,,,,,,,,,,,,,,,,space,12.3488826572,2017_Apr_24_1715,60.0087959313,MAFE4ImagesEEG,001,100187,
AFNE01.JPG,AFNE01.JPG,AFNE01.JPG,AFNE01.JPG,AFNE01.JPG,AFNE01.JPG,0,0,0,5,,,,,,,,,,,,,,,,,,,,,,,AMSA14.jpg,AMNE17.jpg,AMSA19.jpg,AMNE01.jpg,AMNE01.jpg,MN,1,num_4,32,num_2,2.66680918168,,,2017_Apr_24_1715,60.0087959313,MAFE4ImagesEEG,001,100187,
AFNE01.JPG,AFNE01.JPG,AFNE01.JPG,AFNE01.JPG,AFNE01.JPG,AFNE01.JPG,0,1,1,4,,,,,,,,,,,,,,,,,,,,,,,AMNE20.jpg,AMSA03.jpg,AMNE11.jpg,AMSA12.jpg,AMSA03.jpg,MS,2,num_6,16,num_6,0.950122185517,,,2017_Apr_24_1715,60.0087959313,MAFE4ImagesEEG,001,100187,
AFNE01.JPG,AFNE01.JPG,AFNE01.JPG,AFNE01.JPG,AFNE01.JPG,AFNE01.JPG,0,2,2,7,,,,,,,,,,,,,,,,,,,,,,,AMNE02.jpg,AMSA02.jpg,AMNE20.jpg,AMSA08.jpg,AMSA08.jpg,MS,2,num_4,16,num_4,0.900104849599,,,2017_Apr_24_1715,60.0087959313,MAFE4ImagesEEG,001,100187,
AFNE01.JPG,AFNE01.JPG,AFNE01.JPG,AFNE01.JPG,AFNE01.JPG,AFNE01.JPG,0,3,3,8,,,,,,,,,,,,,,,,,,,,,,,AMNE18.jpg,AMSA06.jpg,AMSA11.jpg,AMNE15.jpg,AMNE18.jpg,MN,1,num_8,16,num_8,1.40010436857,,,2017_Apr_24_1715,60.0087959313,MAFE4ImagesEEG,001,100187,
AFNE01.JPG,AFNE01.JPG,AFNE01.JPG,AFNE01.JPG,AFNE01.JPG,AFNE01.JPG,0,4,4,1,,,,,,,,,,,,,,,,,,,,,,,AMSA08.jpg,AMNE09.jpg,AMNE17.jpg,AMSA19.jpg,AMSA19.jpg,MS,2,num_4,16,num_4,0.666786730057,,,2017_Apr_24_1715,60.0087959313,MAFE4ImagesEEG,001,100187,
AFNE01.JPG,AFNE01.JPG,AFNE01.JPG,AFNE01.JPG,AFNE01.JPG,AFNE01.JPG,0,5,5,9,,,,,,,,,,,,,,,,,,,,,,,AMSA15.jpg,AMSA04.jpg,AMNE18.jpg,AMNE09.jpg,AMSA04.jpg,MS,2,num_6,16,num_6,0.750185306999,,,2017_Apr_24_1715,60.0087959313,MAFE4ImagesEEG,001,100187,
AFNE01.JPG,AFNE01.JPG,AFNE01.JPG,AFNE01.JPG,AFNE01.JPG,AFNE01.JPG,0,6,6,0,,,,,,,,,,,,,,,,,,,,,,,AMSA11.jpg,AMSA02.jpg,AMNE06.jpg,AMNE16.jpg,AMNE16.jpg,MN,1,num_4,16,num_4,0.633440770209,,,2017_Apr_24_1715,60.0087959313,MAFE4ImagesEEG,001,100187,
AFNE01.JPG,AFNE01.JPG,AFNE01.JPG,AFNE01.JPG,AFNE01.JPG,AFNE01.JPG,0,7,7,6,,,,,,,,,,,,,,,,,,,,,,,AMNE13.jpg,AMNE06.jpg,AMSA17.jpg,AMSA13.jpg,AMNE13.jpg,MN,1,num_8,32,num_4,0.833461682429,,,2017_Apr_24_1715,60.0087959313,MAFE4ImagesEEG,001,100187,
AFNE01.JPG,AFNE01.JPG,AFNE01.JPG,AFNE01.JPG,AFNE01.JPG,AFNE01.JPG,0,8,8,3,,,,,,,,,,,,,,,,,,,,,,,AMNE03.jpg,AMNE13.jpg,AMSA18.jpg,AMSA05.jpg,AMSA05.jpg,MS,2,num_4,32,num_2,1.45006076398,,,2017_Apr_24_1715,60.0087959313,MAFE4ImagesEEG,001,100187,
AFNE01.JPG,AFNE01.JPG,AFNE01.JPG,AFNE01.JPG,AFNE01.JPG,AFNE01.JPG,0,9,9,2,,,,,,,,,,,,,,,,,,,,,,,AMSA19.jpg,AMSA13.jpg,AMNE14.jpg,AMNE04.jpg,AMNE04.jpg,MN,1,num_4,16,num_4,1.48337978171,,,2017_Apr_24_1715,60.0087959313,MAFE4ImagesEEG,001,100187,
AFNE01.JPG,AFNE01.JPG,AFNE01.JPG,AFNE01.JPG,AFNE01.JPG,AFNE01.JPG,1,0,10,6,,,,,,,,,,,,,,,,,,,,,,,AMNE20.jpg,AMSA10.jpg,AMNE05.jpg,AMSA06.jpg,AMNE20.jpg,MN,1,num_8,16,num_8,1.35006073199,,,2017_Apr_24_1715,60.0087959313,MAFE4ImagesEEG,001,100187,
AFNE01.JPG,AFNE01.JPG,AFNE01.JPG,AFNE01.JPG,AFNE01.JPG,AFNE01.JPG,1,1,11,9,,,,,,,,,,,,,,,,,,,,,,,AMSA04.jpg,AMNE14.jpg,AMSA15.jpg,AMNE08.jpg,AMSA04.jpg,MS,2,num_8,16,num_8,0.766779064434,,,2017_Apr_24_1715,60.0087959313,MAFE4ImagesEEG,001,100187,
AFNE01.JPG,AFNE01.JPG,AFNE01.JPG,AFNE01.JPG,AFNE01.JPG,AFNE01.JPG,1,2,12,1,,,,,,,,,,,,,,,,,,,,,,,AMNE07.jpg,AMNE03.jpg,AMSA12.jpg,AMSA02.jpg,AMNE03.jpg,MN,1,num_6,16,num_6,1.33349808631,,,2017_Apr_24_1715,60.0087959313,MAFE4ImagesEEG,001,100187,
AFNE01.JPG,AFNE01.JPG,AFNE01.JPG,AFNE01.JPG,AFNE01.JPG,AFNE01.JPG,1,3,13,2,,,,,,,,,,,,,,,,,,,,,,,AMNE18.jpg,AMSA12.jpg,AMSA05.jpg,AMNE16.jpg,AMSA12.jpg,MS,2,num_6,32,num_8,1.80012406188,,,2017_Apr_24_1715,60.0087959313,MAFE4ImagesEEG,001,100187,
AFNE01.JPG,AFNE01.JPG,AFNE01.JPG,AFNE01.JPG,AFNE01.JPG,AFNE01.JPG,1,4,14,5,,,,,,,,,,,,,,,,,,,,,,,AMNE12.jpg,AMSA08.jpg,AMNE03.jpg,AMSA09.jpg,AMNE12.jpg,MN,1,num_8,32,num_6,1.01679325697,,,2017_Apr_24_1715,60.0087959313,MAFE4ImagesEEG,001,100187,
AFNE01.JPG,AFNE01.JPG,AFNE01.JPG,AFNE01.JPG,AFNE01.JPG,AFNE01.JPG,1,5,15,7,,,,,,,,,,,,,,,,,,,,,,,AMNE11.jpg,AMNE10.jpg,AMSA09.jpg,AMSA08.jpg,AMNE11.jpg,MN,1,num_8,32,num_6,0.750142007251,,,2017_Apr_24_1715,60.0087959313,MAFE4ImagesEEG,001,100187,
AFNE01.JPG,AFNE01.JPG,AFNE01.JPG,AFNE01.JPG,AFNE01.JPG,AFNE01.JPG,1,6,16,0,,,,,,,,,,,,,,,,,,,,,,,AMNE09.jpg,AMNE01.jpg,AMSA03.jpg,AMSA17.jpg,AMSA17.jpg,MS,2,num_4,16,num_4,1.1667179314,,,2017_Apr_24_1715,60.0087959313,MAFE4ImagesEEG,001,100187,
AFNE01.JPG,AFNE01.JPG,AFNE01.JPG,AFNE01.JPG,AFNE01.JPG,AFNE01.JPG,1,7,17,8,,,,,,,,,,,,,,,,,,,,,,,AMSA15.jpg,AMNE19.jpg,AMNE05.jpg,AMSA10.jpg,AMSA10.jpg,MS,2,num_4,32,num_8,0.683468369883,,,2017_Apr_24_1715,60.0087959313,MAFE4ImagesEEG,001,100187,
AFNE01.JPG,AFNE01.JPG,AFNE01.JPG,AFNE01.JPG,AFNE01.JPG,AFNE01.JPG,1,8,18,4,,,,,,,,,,,,,,,,,,,,,,,AMSA19.jpg,AMSA11.jpg,AMNE03.jpg,AMNE15.jpg,AMSA19.jpg,MS,2,num_8,16,num_8,1.04980853479,,,2017_Apr_24_1715,60.0087959313,MAFE4ImagesEEG,001,100187,
AFNE01.JPG,AFNE01.JPG,AFNE01.JPG,AFNE01.JPG,AFNE01.JPG,AFNE01.JPG,1,9,19,3,,,,,,,,,,,,,,,,,,,,,,,AMSA19.jpg,AMSA09.jpg,AMNE01.jpg,AMNE09.jpg,AMSA09.jpg,MS,2,num_6,16,num_6,0.950018586824,,,2017_Apr_24_1715,60.0087959313,MAFE4ImagesEEG,001,100187,
AFNE01.JPG,AFNE01.JPG,AFNE01.JPG,AFNE01.JPG,AFNE01.JPG,AFNE01.JPG,2,0,20,9,,,,,,,,,,,,,,,,,,,,,,,AMSA03.jpg,AMNE20.jpg,AMSA02.jpg,AMNE17.jpg,AMNE20.jpg,MN,1,num_6,16,num_6,1.06692221016,,,2017_Apr_24_1715,60.0087959313,MAFE4ImagesEEG,001,100187,
AFNE01.JPG,AFNE01.JPG,AFNE01.JPG,AFNE01.JPG,AFNE01.JPG,AFNE01.JPG,2,1,21,1,,,,,,,,,,,,,,,,,,,,,,,AMSA06.jpg,AMNE13.jpg,AMNE10.jpg,AMSA02.jpg,AMNE13.jpg,MN,1,num_6,32,num_8,0.0833450136706,,,2017_Apr_24_1715,60.0087959313,MAFE4ImagesEEG,001,100187,
AFNE01.JPG,AFNE01.JPG,AFNE01.JPG,AFNE01.JPG,AFNE01.JPG,AFNE01.JPG,2,2,22,6,,,,,,,,,,,,,,,,,,,,,,,AMSA20.jpg,AMSA03.jpg,AMNE15.jpg,AMNE06.jpg,AMSA20.jpg,MS,2,num_8,32,num_2,2.50005179935,,,2017_Apr_24_1715,60.0087959313,MAFE4ImagesEEG,001,100187,
AFNE01.JPG,AFNE01.JPG,AFNE01.JPG,AFNE01.JPG,AFNE01.JPG,AFNE01.JPG,2,3,23,5,,,,,,,,,,,,,,,,,,,,,,,AMNE18.jpg,AMSA06.jpg,AMNE03.jpg,AMSA08.jpg,AMSA06.jpg,MS,2,num_6,16,num_6,3.03334082791,,,2017_Apr_24_1715,60.0087959313,MAFE4ImagesEEG,001,100187,
AFNE01.JPG,AFNE01.JPG,AFNE01.JPG,AFNE01.JPG,AFNE01.JPG,AFNE01.JPG,2,4,24,7,,,,,,,,,,,,,,,,,,,,,,,AMNE04.jpg,AMSA03.jpg,AMSA06.jpg,AMNE20.jpg,AMNE04.jpg,MN,1,num_8,16,num_8,1.01675990026,,,2017_Apr_24_1715,60.0087959313,MAFE4ImagesEEG,001,100187,
AFNE01.JPG,AFNE01.JPG,AFNE01.JPG,AFNE01.JPG,AFNE01.JPG,AFNE01.JPG,2,5,25,2,,,,,,,,,,,,,,,,,,,,,,,AMSA13.jpg,AMSA05.jpg,AMNE12.jpg,AMNE08.jpg,AMNE12.jpg,MN,1,num_2,32,num_6,0.766753084492,,,2017_Apr_24_1715,60.0087959313,MAFE4ImagesEEG,001,100187,
AFNE01.JPG,AFNE01.JPG,AFNE01.JPG,AFNE01.JPG,AFNE01.JPG,AFNE01.JPG,2,6,26,3,,,,,,,,,,,,,,,,,,,,,,,AMNE01.jpg,AMNE14.jpg,AMSA03.jpg,AMSA14.jpg,AMSA14.jpg,MS,2,num_4,32,num_2,1.03341523942,,,2017_Apr_24_1715,60.0087959313,MAFE4ImagesEEG,001,100187,
AFNE01.JPG,AFNE01.JPG,AFNE01.JPG,AFNE01.JPG,AFNE01.JPG,AFNE01.JPG,2,7,27,4,,,,,,,,,,,,,,,,,,,,,,,AMNE05.jpg,AMNE11.jpg,AMSA10.jpg,AMSA13.jpg,AMSA10.jpg,MS,2,num_2,32,num_4,1.18340117496,,,2017_Apr_24_1715,60.0087959313,MAFE4ImagesEEG,001,100187,
AFNE01.JPG,AFNE01.JPG,AFNE01.JPG,AFNE01.JPG,AFNE01.JPG,AFNE01.JPG,2,8,28,0,,,,,,,,,,,,,,,,,,,,,,,AMNE03.jpg,AMSA16.jpg,AMNE10.jpg,AMSA06.jpg,AMSA06.jpg,MS,2,num_4,16,num_4,0.866795454058,,,2017_Apr_24_1715,60.0087959313,MAFE4ImagesEEG,001,100187,
AFNE01.JPG,AFNE01.JPG,AFNE01.JPG,AFNE01.JPG,AFNE01.JPG,AFNE01.JPG,2,9,29,8,,,,,,,,,,,,,,,,,,,,,,,AMNE01.jpg,AMNE12.jpg,AMSA19.jpg,AMSA17.jpg,AMNE12.jpg,MN,1,num_6,32,num_8,0.983489955659,,,2017_Apr_24_1715,60.0087959313,MAFE4ImagesEEG,001,100187,
AFNE01.JPG,AFNE01.JPG,AFNE01.JPG,AFNE01.JPG,AFNE01.JPG,AFNE01.JPG,3,0,30,7,,,,,,,,,,,,,,,,,,,,,,,AMNE19.jpg,AMNE16.jpg,AMSA01.jpg,AMSA05.jpg,AMSA05.jpg,MS,2,num_4,16,num_4,0.683448163327,,,2017_Apr_24_1715,60.0087959313,MAFE4ImagesEEG,001,100187,
AFNE01.JPG,AFNE01.JPG,AFNE01.JPG,AFNE01.JPG,AFNE01.JPG,AFNE01.JPG,3,1,31,9,,,,,,,,,,,,,,,,,,,,,,,AMSA13.jpg,AMSA19.jpg,AMNE09.jpg,AMNE01.jpg,AMSA13.jpg,MS,2,num_8,32,num_6,0.966797731351,,,2017_Apr_24_1715,60.0087959313,MAFE4ImagesEEG,001,100187,
AFNE01.JPG,AFNE01.JPG,AFNE01.JPG,AFNE01.JPG,AFNE01.JPG,AFNE01.JPG,3,2,32,8,,,,,,,,,,,,,,,,,,,,,,,AMNE20.jpg,AMNE19.jpg,AMSA08.jpg,AMSA12.jpg,AMSA12.jpg,MS,2,num_4,16,num_4,0.566789263859,,,2017_Apr_24_1715,60.0087959313,MAFE4ImagesEEG,001,100187,
AFNE01.JPG,AFNE01.JPG,AFNE01.JPG,AFNE01.JPG,AFNE01.JPG,AFNE01.JPG,3,3,33,1,,,,,,,,,,,,,,,,,,,,,,,AMSA03.jpg,AMNE09.jpg,AMSA09.jpg,AMNE02.jpg,AMNE02.jpg,MN,1,num_4,16,num_4,0.78344017698,,,2017_Apr_24_1715,60.0087959313,MAFE4ImagesEEG,001,100187,
AFNE01.JPG,AFNE01.JPG,AFNE01.JPG,AFNE01.JPG,AFNE01.JPG,AFNE01.JPG,3,4,34,0,,,,,,,,,,,,,,,,,,,,,,,AMSA10.jpg,AMSA05.jpg,AMNE19.jpg,AMNE14.jpg,AMSA10.jpg,MS,2,num_8,32,num_4,0.583441716386,,,2017_Apr_24_1715,60.0087959313,MAFE4ImagesEEG,001,100187,
AFNE01.JPG,AFNE01.JPG,AFNE01.JPG,AFNE01.JPG,AFNE01.JPG,AFNE01.JPG,3,5,35,6,,,,,,,,,,,,,,,,,,,,,,,AMSA06.jpg,AMSA11.jpg,AMNE18.jpg,AMNE08.jpg,AMNE08.jpg,MN,1,num_4,16,num_4,0.650145182502,,,2017_Apr_24_1715,60.0087959313,MAFE4ImagesEEG,001,100187,
AFNE01.JPG,AFNE01.JPG,AFNE01.JPG,AFNE01.JPG,AFNE01.JPG,AFNE01.JPG,3,6,36,2,,,,,,,,,,,,,,,,,,,,,,,AMNE20.jpg,AMNE18.jpg,AMSA02.jpg,AMSA07.jpg,AMSA07.jpg,MS,2,num_4,16,num_4,0.916832996649,,,2017_Apr_24_1715,60.0087959313,MAFE4ImagesEEG,001,100187,
AFNE01.JPG,AFNE01.JPG,AFNE01.JPG,AFNE01.JPG,AFNE01.JPG,AFNE01.JPG,3,7,37,3,,,,,,,,,,,,,,,,,,,,,,,AMSA18.jpg,AMSA10.jpg,AMNE16.jpg,AMNE20.jpg,AMNE20.jpg,MN,1,num_4,16,num_4,0.516787323402,,,2017_Apr_24_1715,60.0087959313,MAFE4ImagesEEG,001,100187,
AFNE01.JPG,AFNE01.JPG,AFNE01.JPG,AFNE01.JPG,AFNE01.JPG,AFNE01.JPG,3,8,38,5,,,,,,,,,,,,,,,,,,,,,,,AMSA08.jpg,AMNE20.jpg,AMNE07.jpg,AMSA03.jpg,AMNE20.jpg,MN,1,num_6,16,num_6,0.533485320862,,,2017_Apr_24_1715,60.0087959313,MAFE4ImagesEEG,001,100187,
AFNE01.JPG,AFNE01.JPG,AFNE01.JPG,AFNE01.JPG,AFNE01.JPG,AFNE01.JPG,3,9,39,4,,,,,,,,,,,,,,,,,,,,,,,AMNE12.jpg,AMSA15.jpg,AMSA19.jpg,AMNE09.jpg,AMNE09.jpg,MN,1,num_4,16,num_4,0.583488544333,,,2017_Apr_24_1715,60.0087959313,MAFE4ImagesEEG,001,100187,
AFNE01.JPG,AFNE01.JPG,AFNE01.JPG,AFNE01.JPG,AFNE01.JPG,AFNE01.JPG,4,0,40,8,,,,,,,,,,,,,,,,,,,,,,,AMNE14.jpg,AMSA09.jpg,AMNE08.jpg,AMSA12.jpg,AMSA09.jpg,MS,2,num_6,16,num_6,0.483500379603,,,2017_Apr_24_1715,60.0087959313,MAFE4ImagesEEG,001,100187,
AFNE01.JPG,AFNE01.JPG,AFNE01.JPG,AFNE01.JPG,AFNE01.JPG,AFNE01.JPG,4,1,41,3,,,,,,,,,,,,,,,,,,,,,,,AMNE12.jpg,AMNE17.jpg,AMSA20.jpg,AMSA01.jpg,AMSA01.jpg,MS,2,num_4,32,num_6,0.850132737891,,,2017_Apr_24_1715,60.0087959313,MAFE4ImagesEEG,001,100187,
AFNE01.JPG,AFNE01.JPG,AFNE01.JPG,AFNE01.JPG,AFNE01.JPG,AFNE01.JPG,4,2,42,2,,,,,,,,,,,,,,,,,,,,,,,AMNE15.jpg,AMSA12.jpg,AMNE17.jpg,AMSA17.jpg,AMNE17.jpg,MN,1,num_2,32,num_4,0.450128440047,,,2017_Apr_24_1715,60.0087959313,MAFE4ImagesEEG,001,100187,
AFNE01.JPG,AFNE01.JPG,AFNE01.JPG,AFNE01.JPG,AFNE01.JPG,AFNE01.JPG,4,3,43,4,,,,,,,,,,,,,,,,,,,,,,,AMNE10.jpg,AMNE13.jpg,AMSA13.jpg,AMSA10.jpg,AMSA10.jpg,MS,2,num_4,16,num_4,0.616825523437,,,2017_Apr_24_1715,60.0087959313,MAFE4ImagesEEG,001,100187,
AFNE01.JPG,AFNE01.JPG,AFNE01.JPG,AFNE01.JPG,AFNE01.JPG,AFNE01.JPG,4,4,44,0,,,,,,,,,,,,,,,,,,,,,,,AMSA19.jpg,AMSA08.jpg,AMNE05.jpg,AMNE11.jpg,AMNE05.jpg,MN,1,num_2,16,num_2,1.78341964958,,,2017_Apr_24_1715,60.0087959313,MAFE4ImagesEEG,001,100187,
AFNE01.JPG,AFNE01.JPG,AFNE01.JPG,AFNE01.JPG,AFNE01.JPG,AFNE01.JPG,4,5,45,6,,,,,,,,,,,,,,,,,,,,,,,AMNE19.jpg,AMSA19.jpg,AMNE02.jpg,AMSA05.jpg,AMSA05.jpg,MS,2,num_4,16,num_4,0.850165773998,,,2017_Apr_24_1715,60.0087959313,MAFE4ImagesEEG,001,100187,
AFNE01.JPG,AFNE01.JPG,AFNE01.JPG,AFNE01.JPG,AFNE01.JPG,AFNE01.JPG,4,6,46,5,,,,,,,,,,,,,,,,,,,,,,,AMSA07.jpg,AMSA13.jpg,AMNE17.jpg,AMNE15.jpg,AMSA13.jpg,MS,2,num_6,32,num_2,1.36670227943,,,2017_Apr_24_1715,60.0087959313,MAFE4ImagesEEG,001,100187,
AFNE01.JPG,AFNE01.JPG,AFNE01.JPG,AFNE01.JPG,AFNE01.JPG,AFNE01.JPG,4,7,47,7,,,,,,,,,,,,,,,,,,,,,,,AMNE16.jpg,AMNE18.jpg,AMSA20.jpg,AMSA12.jpg,AMNE16.jpg,MN,1,num_8,32,num_2,1.33341790154,,,2017_Apr_24_1715,60.0087959313,MAFE4ImagesEEG,001,100187,
AFNE01.JPG,AFNE01.JPG,AFNE01.JPG,AFNE01.JPG,AFNE01.JPG,AFNE01.JPG,4,8,48,9,,,,,,,,,,,,,,,,,,,,,,,AMSA11.jpg,AMNE09.jpg,AMSA14.jpg,AMNE04.jpg,AMNE04.jpg,MN,1,num_4,16,num_4,0.616811731597,,,2017_Apr_24_1715,60.0087959313,MAFE4ImagesEEG,001,100187,
AFNE01.JPG,AFNE01.JPG,AFNE01.JPG,AFNE01.JPG,AFNE01.JPG,AFNE01.JPG,4,9,49,1,,,,,,,,,,,,,,,,,,,,,,,AMSA09.jpg,AMSA08.jpg,AMNE02.jpg,AMNE09.jpg,AMSA09.jpg,MS,2,num_8,16,num_8,0.883469396271,,,2017_Apr_24_1715,60.0087959313,MAFE4ImagesEEG,001,100187,
AFNE01.JPG,AFNE01.JPG,AFNE01.JPG,AFNE01.JPG,AFNE01.JPG,AFNE01.JPG,5,0,50,5,,,,,,,,,,,,,,,,,,,,,,,AMNE15.jpg,AMSA18.jpg,AMSA11.jpg,AMNE08.jpg,AMNE08.jpg,MN,1,num_4,32,num_8,0.98345467425,,,2017_Apr_24_1715,60.0087959313,MAFE4ImagesEEG,001,100187,
AFNE01.JPG,AFNE01.JPG,AFNE01.JPG,AFNE01.JPG,AFNE01.JPG,AFNE01.JPG,5,1,51,1,,,,,,,,,,,,,,,,,,,,,,,AMSA13.jpg,AMNE07.jpg,AMNE16.jpg,AMSA08.jpg,AMNE07.jpg,MN,1,num_6,32,num_4,1.28339254716,,,2017_Apr_24_1715,60.0087959313,MAFE4ImagesEEG,001,100187,
AFNE01.JPG,AFNE01.JPG,AFNE01.JPG,AFNE01.JPG,AFNE01.JPG,AFNE01.JPG,5,2,52,8,,,,,,,,,,,,,,,,,,,,,,,AMNE20.jpg,AMSA15.jpg,AMSA13.jpg,AMNE17.jpg,AMSA13.jpg,MS,2,num_2,16,num_2,0.983459485346,,,2017_Apr_24_1715,60.0087959313,MAFE4ImagesEEG,001,100187,
AFNE01.JPG,AFNE01.JPG,AFNE01.JPG,AFNE01.JPG,AFNE01.JPG,AFNE01.JPG,5,3,53,3,,,,,,,,,,,,,,,,,,,,,,,AMSA08.jpg,AMNE08.jpg,AMNE16.jpg,AMSA13.jpg,AMNE08.jpg,MN,1,num_6,32,num_8,1.55007041828,,,2017_Apr_24_1715,60.0087959313,MAFE4ImagesEEG,001,100187,
AFNE01.JPG,AFNE01.JPG,AFNE01.JPG,AFNE01.JPG,AFNE01.JPG,AFNE01.JPG,5,4,54,7,,,,,,,,,,,,,,,,,,,,,,,AMSA09.jpg,AMSA10.jpg,AMNE10.jpg,AMNE07.jpg,AMSA10.jpg,MS,2,num_6,32,num_8,1.13347428746,,,2017_Apr_24_1715,60.0087959313,MAFE4ImagesEEG,001,100187,
AFNE01.JPG,AFNE01.JPG,AFNE01.JPG,AFNE01.JPG,AFNE01.JPG,AFNE01.JPG,5,5,55,9,,,,,,,,,,,,,,,,,,,,,,,AMSA08.jpg,AMNE14.jpg,AMSA14.jpg,AMNE03.jpg,AMSA14.jpg,MS,2,num_2,32,num_8,1.20015145303,,,2017_Apr_24_1715,60.0087959313,MAFE4ImagesEEG,001,100187,
AFNE01.JPG,AFNE01.JPG,AFNE01.JPG,AFNE01.JPG,AFNE01.JPG,AFNE01.JPG,5,6,56,6,,,,,,,,,,,,,,,,,,,,,,,AMSA02.jpg,AMNE19.jpg,AMSA18.jpg,AMNE13.jpg,AMSA02.jpg,MS,2,num_8,32,num_6,0.85013498296,,,2017_Apr_24_1715,60.0087959313,MAFE4ImagesEEG,001,100187,
AFNE01.JPG,AFNE01.JPG,AFNE01.JPG,AFNE01.JPG,AFNE01.JPG,AFNE01.JPG,5,7,57,2,,,,,,,,,,,,,,,,,,,,,,,AMNE12.jpg,AMSA18.jpg,AMSA12.jpg,AMNE19.jpg,AMNE12.jpg,MN,1,num_8,32,num_4,1.58339841664,,,2017_Apr_24_1715,60.0087959313,MAFE4ImagesEEG,001,100187,
AFNE01.JPG,AFNE01.JPG,AFNE01.JPG,AFNE01.JPG,AFNE01.JPG,AFNE01.JPG,5,8,58,4,,,,,,,,,,,,,,,,,,,,,,,AMNE04.jpg,AMNE15.jpg,AMSA07.jpg,AMSA11.jpg,AMNE04.jpg,MN,1,num_8,16,num_8,1.38342048344,,,2017_Apr_24_1715,60.0087959313,MAFE4ImagesEEG,001,100187,
AFNE01.JPG,AFNE01.JPG,AFNE01.JPG,AFNE01.JPG,AFNE01.JPG,AFNE01.JPG,5,9,59,0,,,,,,,,,,,,,,,,,,,,,,,AMSA20.jpg,AMNE15.jpg,AMSA11.jpg,AMNE07.jpg,AMSA11.jpg,MS,2,num_2,16,num_2,1.28351795604,,,2017_Apr_24_1715,60.0087959313,MAFE4ImagesEEG,001,100187,
,,,,,,,,,,,,,,,,,,,,,,,,,,,,,,,,,,,,,,,,,,,space,16.1319459657,2017_Apr_24_1715,60.0087959313,MAFE4ImagesEEG,001,100187,
AFNE01.JPG,AFNE01.JPG,AFNE01.JPG,AFNE01.JPG,AFNE01.JPG,AFNE01.JPG,,,,,0,0,0,0,,,,,,,,,,,,,,,,,,,AFNE07.jpg,AFSA16.jpg,AFNE15.jpg,AFSA20.jpg,AFNE15.jpg,FN,3,num_2,32,num_6,1.16670029075,,,2017_Apr_24_1715,60.0087959313,MAFE4ImagesEEG,001,100187,
AFNE01.JPG,AFNE01.JPG,AFNE01.JPG,AFNE01.JPG,AFNE01.JPG,AFNE01.JPG,,,,,0,1,1,5,,,,,,,,,,,,,,,,,,,AFNE07.jpg,AFSA06.jpg,AFSA16.jpg,AFNE02.jpg,AFSA16.jpg,FS,4,num_2,32,num_4,1.18321963667,,,2017_Apr_24_1715,60.0087959313,MAFE4ImagesEEG,001,100187,
AFNE01.JPG,AFNE01.JPG,AFNE01.JPG,AFNE01.JPG,AFNE01.JPG,AFNE01.JPG,,,,,0,2,2,8,,,,,,,,,,,,,,,,,,,AFNE07.jpg,AFSA03.jpg,AFNE11.jpg,AFSA12.jpg,AFSA03.jpg,FS,4,num_6,32,num_2,0.900150715373,,,2017_Apr_24_1715,60.0087959313,MAFE4ImagesEEG,001,100187,
AFNE01.JPG,AFNE01.JPG,AFNE01.JPG,AFNE01.JPG,AFNE01.JPG,AFNE01.JPG,,,,,0,3,3,9,,,,,,,,,,,,,,,,,,,AFNE09.jpg,AFSA02.jpg,AFSA18.jpg,AFNE18.jpg,AFSA02.jpg,FS,4,num_6,16,num_6,1.03352525283,,,2017_Apr_24_1715,60.0087959313,MAFE4ImagesEEG,001,100187,
AFNE01.JPG,AFNE01.JPG,AFNE01.JPG,AFNE01.JPG,AFNE01.JPG,AFNE01.JPG,,,,,0,4,4,4,,,,,,,,,,,,,,,,,,,AFNE12.jpg,AFSA04.jpg,AFNE20.jpg,AFSA07.jpg,AFNE12.jpg,FN,3,num_8,32,num_4,1.01674450468,,,2017_Apr_24_1715,60.0087959313,MAFE4ImagesEEG,001,100187,
AFNE01.JPG,AFNE01.JPG,AFNE01.JPG,AFNE01.JPG,AFNE01.JPG,AFNE01.JPG,,,,,0,5,5,3,,,,,,,,,,,,,,,,,,,AFSA14.jpg,AFSA17.jpg,AFNE07.jpg,AFNE17.jpg,AFNE17.jpg,FN,3,num_4,16,num_4,1.38342818117,,,2017_Apr_24_1715,60.0087959313,MAFE4ImagesEEG,001,100187,
AFNE01.JPG,AFNE01.JPG,AFNE01.JPG,AFNE01.JPG,AFNE01.JPG,AFNE01.JPG,,,,,0,6,6,7,,,,,,,,,,,,,,,,,,,AFNE17.jpg,AFSA16.jpg,AFSA15.jpg,AFNE05.jpg,AFSA16.jpg,FS,4,num_6,32,num_2,1.183725763,,,2017_Apr_24_1715,60.0087959313,MAFE4ImagesEEG,001,100187,
AFNE01.JPG,AFNE01.JPG,AFNE01.JPG,AFNE01.JPG,AFNE01.JPG,AFNE01.JPG,,,,,0,7,7,1,,,,,,,,,,,,,,,,,,,AFNE09.jpg,AFNE01.jpg,AFSA11.jpg,AFSA18.jpg,AFSA18.jpg,FS,4,num_4,32,num_6,1.48343655246,,,2017_Apr_24_1715,60.0087959313,MAFE4ImagesEEG,001,100187,
AFNE01.JPG,AFNE01.JPG,AFNE01.JPG,AFNE01.JPG,AFNE01.JPG,AFNE01.JPG,,,,,0,8,8,6,,,,,,,,,,,,,,,,,,,AFSA03.jpg,AFNE14.jpg,AFSA16.jpg,AFNE01.jpg,AFSA16.jpg,FS,4,num_2,32,num_8,1.66672322364,,,2017_Apr_24_1715,60.0087959313,MAFE4ImagesEEG,001,100187,
AFNE01.JPG,AFNE01.JPG,AFNE01.JPG,AFNE01.JPG,AFNE01.JPG,AFNE01.JPG,,,,,0,9,9,2,,,,,,,,,,,,,,,,,,,AFSA07.jpg,AFNE16.jpg,AFNE14.jpg,AFSA09.jpg,AFNE16.jpg,FN,3,num_6,16,num_6,0.916508729453,,,2017_Apr_24_1715,60.0087959313,MAFE4ImagesEEG,001,100187,
AFNE01.JPG,AFNE01.JPG,AFNE01.JPG,AFNE01.JPG,AFNE01.JPG,AFNE01.JPG,,,,,1,0,10,1,,,,,,,,,,,,,,,,,,,AFSA09.jpg,AFNE08.jpg,AFNE04.jpg,AFSA20.jpg,AFSA20.jpg,FS,4,num_4,16,num_4,0.950186974951,,,2017_Apr_24_1715,60.0087959313,MAFE4ImagesEEG,001,100187,
AFNE01.JPG,AFNE01.JPG,AFNE01.JPG,AFNE01.JPG,AFNE01.JPG,AFNE01.JPG,,,,,1,1,11,8,,,,,,,,,,,,,,,,,,,AFSA13.jpg,AFNE07.jpg,AFNE12.jpg,AFSA08.jpg,AFSA13.jpg,FS,4,num_8,32,num_4,1.1167092555,,,2017_Apr_24_1715,60.0087959313,MAFE4ImagesEEG,001,100187,
AFNE01.JPG,AFNE01.JPG,AFNE01.JPG,AFNE01.JPG,AFNE01.JPG,AFNE01.JPG,,,,,1,2,12,2,,,,,,,,,,,,,,,,,,,AFNE20.jpg,AFSA06.jpg,AFSA13.jpg,AFNE11.jpg,AFNE11.jpg,FN,3,num_4,16,num_4,0.733501101262,,,2017_Apr_24_1715,60.0087959313,MAFE4ImagesEEG,001,100187,
AFNE01.JPG,AFNE01.JPG,AFNE01.JPG,AFNE01.JPG,AFNE01.JPG,AFNE01.JPG,,,,,1,3,13,7,,,,,,,,,,,,,,,,,,,AFSA03.jpg,AFNE08.jpg,AFNE01.jpg,AFSA08.jpg,AFSA03.jpg,FS,4,num_8,16,num_8,1.15009530762,,,2017_Apr_24_1715,60.0087959313,MAFE4ImagesEEG,001,100187,
AFNE01.JPG,AFNE01.JPG,AFNE01.JPG,AFNE01.JPG,AFNE01.JPG,AFNE01.JPG,,,,,1,4,14,3,,,,,,,,,,,,,,,,,,,AFSA16.jpg,AFSA12.jpg,AFNE02.jpg,AFNE20.jpg,AFSA16.jpg,FS,4,num_8,16,num_8,1.33343393856,,,2017_Apr_24_1715,60.0087959313,MAFE4ImagesEEG,001,100187,
AFNE01.JPG,AFNE01.JPG,AFNE01.JPG,AFNE01.JPG,AFNE01.JPG,AFNE01.JPG,,,,,1,5,15,6,,,,,,,,,,,,,,,,,,,AFNE20.jpg,AFNE06.jpg,AFSA02.jpg,AFSA06.jpg,AFSA06.jpg,FS,4,num_4,16,num_4,1.41674527444,,,2017_Apr_24_1715,60.0087959313,MAFE4ImagesEEG,001,100187,
AFNE01.JPG,AFNE01.JPG,AFNE01.JPG,AFNE01.JPG,AFNE01.JPG,AFNE01.JPG,,,,,1,6,16,9,,,,,,,,,,,,,,,,,,,AFNE11.jpg,AFSA02.jpg,AFNE19.jpg,AFSA03.jpg,AFSA03.jpg,FS,4,num_4,16,num_4,0.683460672153,,,2017_Apr_24_1715,60.0087959313,MAFE4ImagesEEG,001,100187,
AFNE01.JPG,AFNE01.JPG,AFNE01.JPG,AFNE01.JPG,AFNE01.JPG,AFNE01.JPG,,,,,1,7,17,5,,,,,,,,,,,,,,,,,,,AFNE15.jpg,AFSA12.jpg,AFNE08.jpg,AFSA09.jpg,AFSA12.jpg,FS,4,num_6,16,num_6,1.38343395456,,,2017_Apr_24_1715,60.0087959313,MAFE4ImagesEEG,001,100187,
AFNE01.JPG,AFNE01.JPG,AFNE01.JPG,AFNE01.JPG,AFNE01.JPG,AFNE01.JPG,,,,,1,8,18,4,,,,,,,,,,,,,,,,,,,AFNE13.jpg,AFSA03.jpg,AFNE11.jpg,AFSA14.jpg,AFNE11.jpg,FN,3,num_2,16,num_2,1.61678446888,,,2017_Apr_24_1715,60.0087959313,MAFE4ImagesEEG,001,100187,
AFNE01.JPG,AFNE01.JPG,AFNE01.JPG,AFNE01.JPG,AFNE01.JPG,AFNE01.JPG,,,,,1,9,19,0,,,,,,,,,,,,,,,,,,,AFSA05.jpg,AFSA04.jpg,AFNE06.jpg,AFNE13.jpg,AFSA04.jpg,FS,4,num_6,32,num_4,1.08341365168,,,2017_Apr_24_1715,60.0087959313,MAFE4ImagesEEG,001,100187,
AFNE01.JPG,AFNE01.JPG,AFNE01.JPG,AFNE01.JPG,AFNE01.JPG,AFNE01.JPG,,,,,2,0,20,8,,,,,,,,,,,,,,,,,,,AFNE11.jpg,AFSA01.jpg,AFSA10.jpg,AFNE10.jpg,AFNE10.jpg,FN,3,num_4,16,num_4,1.5501473957,,,2017_Apr_24_1715,60.0087959313,MAFE4ImagesEEG,001,100187,
AFNE01.JPG,AFNE01.JPG,AFNE01.JPG,AFNE01.JPG,AFNE01.JPG,AFNE01.JPG,,,,,2,1,21,4,,,,,,,,,,,,,,,,,,,AFSA13.jpg,AFNE14.jpg,AFSA15.jpg,AFNE15.jpg,AFNE14.jpg,FN,3,num_6,32,num_8,1.73340103065,,,2017_Apr_24_1715,60.0087959313,MAFE4ImagesEEG,001,100187,
AFNE01.JPG,AFNE01.JPG,AFNE01.JPG,AFNE01.JPG,AFNE01.JPG,AFNE01.JPG,,,,,2,2,22,9,,,,,,,,,,,,,,,,,,,AFSA13.jpg,AFNE10.jpg,AFSA20.jpg,AFNE08.jpg,AFNE10.jpg,FN,3,num_6,32,num_8,1.0834527819,,,2017_Apr_24_1715,60.0087959313,MAFE4ImagesEEG,001,100187,
AFNE01.JPG,AFNE01.JPG,AFNE01.JPG,AFNE01.JPG,AFNE01.JPG,AFNE01.JPG,,,,,2,3,23,5,,,,,,,,,,,,,,,,,,,AFSA05.jpg,AFNE04.jpg,AFSA13.jpg,AFNE06.jpg,AFNE04.jpg,FN,3,num_6,32,num_2,1.61668119079,,,2017_Apr_24_1715,60.0087959313,MAFE4ImagesEEG,001,100187,
AFNE01.JPG,AFNE01.JPG,AFNE01.JPG,AFNE01.JPG,AFNE01.JPG,AFNE01.JPG,,,,,2,4,24,7,,,,,,,,,,,,,,,,,,,AFSA01.jpg,AFSA13.jpg,AFNE13.jpg,AFNE16.jpg,AFSA01.jpg,FS,4,num_8,16,num_8,0.533497829689,,,2017_Apr_24_1715,60.0087959313,MAFE4ImagesEEG,001,100187,
AFNE01.JPG,AFNE01.JPG,AFNE01.JPG,AFNE01.JPG,AFNE01.JPG,AFNE01.JPG,,,,,2,5,25,2,,,,,,,,,,,,,,,,,,,AFSA06.jpg,AFNE11.jpg,AFNE09.jpg,AFSA09.jpg,AFNE11.jpg,FN,3,num_6,32,num_4,1.78336512391,,,2017_Apr_24_1715,60.0087959313,MAFE4ImagesEEG,001,100187,
AFNE01.JPG,AFNE01.JPG,AFNE01.JPG,AFNE01.JPG,AFNE01.JPG,AFNE01.JPG,,,,,2,6,26,0,,,,,,,,,,,,,,,,,,,AFSA09.jpg,AFNE09.jpg,AFSA11.jpg,AFNE07.jpg,AFNE09.jpg,FN,3,num_6,32,num_4,1.23342396354,,,2017_Apr_24_1715,60.0087959313,MAFE4ImagesEEG,001,100187,
AFNE01.JPG,AFNE01.JPG,AFNE01.JPG,AFNE01.JPG,AFNE01.JPG,AFNE01.JPG,,,,,2,7,27,3,,,,,,,,,,,,,,,,,,,AFSA06.jpg,AFSA18.jpg,AFNE03.jpg,AFNE20.jpg,AFNE03.jpg,FN,3,num_2,32,num_8,1.66669884755,,,2017_Apr_24_1715,60.0087959313,MAFE4ImagesEEG,001,100187,
AFNE01.JPG,AFNE01.JPG,AFNE01.JPG,AFNE01.JPG,AFNE01.JPG,AFNE01.JPG,,,,,2,8,28,1,,,,,,,,,,,,,,,,,,,AFSA14.jpg,AFNE11.jpg,AFSA12.jpg,AFNE13.jpg,AFSA14.jpg,FS,4,num_8,32,num_4,1.78335999209,,,2017_Apr_24_1715,60.0087959313,MAFE4ImagesEEG,001,100187,
AFNE01.JPG,AFNE01.JPG,AFNE01.JPG,AFNE01.JPG,AFNE01.JPG,AFNE01.JPG,,,,,2,9,29,6,,,,,,,,,,,,,,,,,,,AFNE12.jpg,AFSA13.jpg,AFSA10.jpg,AFNE10.jpg,AFNE12.jpg,FN,3,num_8,32,num_2,1.18341208016,,,2017_Apr_24_1715,60.0087959313,MAFE4ImagesEEG,001,100187,
AFNE01.JPG,AFNE01.JPG,AFNE01.JPG,AFNE01.JPG,AFNE01.JPG,AFNE01.JPG,,,,,3,0,30,7,,,,,,,,,,,,,,,,,,,AFNE13.jpg,AFSA19.jpg,AFNE07.jpg,AFSA15.jpg,AFSA15.jpg,FS,4,num_4,32,num_8,1.09977487323,,,2017_Apr_24_1715,60.0087959313,MAFE4ImagesEEG,001,100187,
AFNE01.JPG,AFNE01.JPG,AFNE01.JPG,AFNE01.JPG,AFNE01.JPG,AFNE01.JPG,,,,,3,1,31,8,,,,,,,,,,,,,,,,,,,AFNE06.jpg,AFSA04.jpg,AFNE16.jpg,AFSA16.jpg,AFSA04.jpg,FS,4,num_6,16,num_6,0.950115129352,,,2017_Apr_24_1715,60.0087959313,MAFE4ImagesEEG,001,100187,
AFNE01.JPG,AFNE01.JPG,AFNE01.JPG,AFNE01.JPG,AFNE01.JPG,AFNE01.JPG,,,,,3,2,32,5,,,,,,,,,,,,,,,,,,,AFNE10.jpg,AFSA07.jpg,AFSA08.jpg,AFNE07.jpg,AFNE07.jpg,FN,3,num_4,32,num_2,1.05010746361,,,2017_Apr_24_1715,60.0087959313,MAFE4ImagesEEG,001,100187,
AFNE01.JPG,AFNE01.JPG,AFNE01.JPG,AFNE01.JPG,AFNE01.JPG,AFNE01.JPG,,,,,3,3,33,1,,,,,,,,,,,,,,,,,,,AFSA15.jpg,AFNE02.jpg,AFNE17.jpg,AFSA14.jpg,AFNE17.jpg,FN,3,num_2,32,num_4,1.18341432535,,,2017_Apr_24_1715,60.0087959313,MAFE4ImagesEEG,001,100187,
AFNE01.JPG,AFNE01.JPG,AFNE01.JPG,AFNE01.JPG,AFNE01.JPG,AFNE01.JPG,,,,,3,4,34,0,,,,,,,,,,,,,,,,,,,AFNE15.jpg,AFSA13.jpg,AFNE08.jpg,AFSA06.jpg,AFSA13.jpg,FS,4,num_6,16,num_6,0.800132080331,,,2017_Apr_24_1715,60.0087959313,MAFE4ImagesEEG,001,100187,
AFNE01.JPG,AFNE01.JPG,AFNE01.JPG,AFNE01.JPG,AFNE01.JPG,AFNE01.JPG,,,,,3,5,35,9,,,,,,,,,,,,,,,,,,,AFSA10.jpg,AFNE18.jpg,AFNE02.jpg,AFSA08.jpg,AFSA08.jpg,FS,4,num_4,32,num_8,2.46668948187,,,2017_Apr_24_1715,60.0087959313,MAFE4ImagesEEG,001,100187,
AFNE01.JPG,AFNE01.JPG,AFNE01.JPG,AFNE01.JPG,AFNE01.JPG,AFNE01.JPG,,,,,3,6,36,4,,,,,,,,,,,,,,,,,,,AFNE18.jpg,AFSA09.jpg,AFNE01.jpg,AFSA03.jpg,AFSA09.jpg,FS,4,num_6,32,num_4,1.03348355682,,,2017_Apr_24_1715,60.0087959313,MAFE4ImagesEEG,001,100187,
AFNE01.JPG,AFNE01.JPG,AFNE01.JPG,AFNE01.JPG,AFNE01.JPG,AFNE01.JPG,,,,,3,7,37,2,,,,,,,,,,,,,,,,,,,AFNE20.jpg,AFSA10.jpg,AFSA20.jpg,AFNE02.jpg,AFSA10.jpg,FS,4,num_6,32,num_4,1.13347909856,,,2017_Apr_24_1715,60.0087959313,MAFE4ImagesEEG,001,100187,
AFNE01.JPG,AFNE01.JPG,AFNE01.JPG,AFNE01.JPG,AFNE01.JPG,AFNE01.JPG,,,,,3,8,38,6,,,,,,,,,,,,,,,,,,,AFNE06.jpg,AFNE07.jpg,AFSA10.jpg,AFSA15.jpg,AFNE07.jpg,FN,3,num_6,16,num_6,1.16676251427,,,2017_Apr_24_1715,60.0087959313,MAFE4ImagesEEG,001,100187,
AFNE01.JPG,AFNE01.JPG,AFNE01.JPG,AFNE01.JPG,AFNE01.JPG,AFNE01.JPG,,,,,3,9,39,3,,,,,,,,,,,,,,,,,,,AFSA04.jpg,AFSA17.jpg,AFNE20.jpg,AFNE02.jpg,AFSA17.jpg,FS,4,num_6,32,num_8,0.833552772296,,,2017_Apr_24_1715,60.0087959313,MAFE4ImagesEEG,001,100187,
AFNE01.JPG,AFNE01.JPG,AFNE01.JPG,AFNE01.JPG,AFNE01.JPG,AFNE01.JPG,,,,,4,0,40,1,,,,,,,,,,,,,,,,,,,AFNE08.jpg,AFNE15.jpg,AFSA13.jpg,AFSA01.jpg,AFNE15.jpg,FN,3,num_6,32,num_8,0.883450472611,,,2017_Apr_24_1715,60.0087959313,MAFE4ImagesEEG,001,100187,
AFNE01.JPG,AFNE01.JPG,AFNE01.JPG,AFNE01.JPG,AFNE01.JPG,AFNE01.JPG,,,,,4,1,41,6,,,,,,,,,,,,,,,,,,,AFSA10.jpg,AFNE09.jpg,AFSA02.jpg,AFNE19.jpg,AFNE09.jpg,FN,3,num_6,32,num_8,1.48338812089,,,2017_Apr_24_1715,60.0087959313,MAFE4ImagesEEG,001,100187,
AFNE01.JPG,AFNE01.JPG,AFNE01.JPG,AFNE01.JPG,AFNE01.JPG,AFNE01.JPG,,,,,4,2,42,5,,,,,,,,,,,,,,,,,,,AFNE05.jpg,AFSA02.jpg,AFNE07.jpg,AFSA13.jpg,AFNE05.jpg,FN,3,num_8,32,num_6,1.13344349654,,,2017_Apr_24_1715,60.0087959313,MAFE4ImagesEEG,001,100187,
AFNE01.JPG,AFNE01.JPG,AFNE01.JPG,AFNE01.JPG,AFNE01.JPG,AFNE01.JPG,,,,,4,3,43,0,,,,,,,,,,,,,,,,,,,AFSA07.jpg,AFSA13.jpg,AFNE02.jpg,AFNE09.jpg,AFNE02.jpg,FN,3,num_2,32,num_8,0.833473870531,,,2017_Apr_24_1715,60.0087959313,MAFE4ImagesEEG,001,100187,
AFNE01.JPG,AFNE01.JPG,AFNE01.JPG,AFNE01.JPG,AFNE01.JPG,AFNE01.JPG,,,,,4,4,44,8,,,,,,,,,,,,,,,,,,,AFSA11.jpg,AFSA16.jpg,AFNE17.jpg,AFNE01.jpg,AFSA16.jpg,FS,4,num_6,16,num_6,1.13345343946,,,2017_Apr_24_1715,60.0087959313,MAFE4ImagesEEG,001,100187,
AFNE01.JPG,AFNE01.JPG,AFNE01.JPG,AFNE01.JPG,AFNE01.JPG,AFNE01.JPG,,,,,4,5,45,3,,,,,,,,,,,,,,,,,,,AFNE08.jpg,AFSA14.jpg,AFNE03.jpg,AFSA06.jpg,AFSA06.jpg,FS,4,num_4,16,num_4,0.866814698442,,,2017_Apr_24_1715,60.0087959313,MAFE4ImagesEEG,001,100187,
AFNE01.JPG,AFNE01.JPG,AFNE01.JPG,AFNE01.JPG,AFNE01.JPG,AFNE01.JPG,,,,,4,6,46,7,,,,,,,,,,,,,,,,,,,AFSA04.jpg,AFNE02.jpg,AFSA09.jpg,AFNE01.jpg,AFNE02.jpg,FN,3,num_6,16,num_6,0.850129530416,,,2017_Apr_24_1715,60.0087959313,MAFE4ImagesEEG,001,100187,
AFNE01.JPG,AFNE01.JPG,AFNE01.JPG,AFNE01.JPG,AFNE01.JPG,AFNE01.JPG,,,,,4,7,47,2,,,,,,,,,,,,,,,,,,,AFNE14.jpg,AFNE20.jpg,AFSA03.jpg,AFSA16.jpg,AFNE20.jpg,FN,3,num_6,32,num_4,1.03343865334,,,2017_Apr_24_1715,60.0087959313,MAFE4ImagesEEG,001,100187,
AFNE01.JPG,AFNE01.JPG,AFNE01.JPG,AFNE01.JPG,AFNE01.JPG,AFNE01.JPG,,,,,4,8,48,4,,,,,,,,,,,,,,,,,,,AFSA01.jpg,AFNE12.jpg,AFNE20.jpg,AFSA16.jpg,AFNE12.jpg,FN,3,num_6,16,num_6,0.666792182601,,,2017_Apr_24_1715,60.0087959313,MAFE4ImagesEEG,001,100187,
AFNE01.JPG,AFNE01.JPG,AFNE01.JPG,AFNE01.JPG,AFNE01.JPG,AFNE01.JPG,,,,,4,9,49,9,,,,,,,,,,,,,,,,,,,AFNE01.jpg,AFSA04.jpg,AFNE04.jpg,AFSA07.jpg,AFNE01.jpg,FN,3,num_8,32,num_2,1.750045144,,,2017_Apr_24_1715,60.0087959313,MAFE4ImagesEEG,001,100187,
AFNE01.JPG,AFNE01.JPG,AFNE01.JPG,AFNE01.JPG,AFNE01.JPG,AFNE01.JPG,,,,,5,0,50,1,,,,,,,,,,,,,,,,,,,AFSA16.jpg,AFSA09.jpg,AFNE05.jpg,AFNE20.jpg,AFSA09.jpg,FS,4,num_6,16,num_6,1.650078148,,,2017_Apr_24_1715,60.0087959313,MAFE4ImagesEEG,001,100187,
AFNE01.JPG,AFNE01.JPG,AFNE01.JPG,AFNE01.JPG,AFNE01.JPG,AFNE01.JPG,,,,,5,1,51,2,,,,,,,,,,,,,,,,,,,AFSA20.jpg,AFSA08.jpg,AFNE12.jpg,AFNE07.jpg,AFNE07.jpg,FN,3,num_4,16,num_4,1.14976302197,,,2017_Apr_24_1715,60.0087959313,MAFE4ImagesEEG,001,100187,
AFNE01.JPG,AFNE01.JPG,AFNE01.JPG,AFNE01.JPG,AFNE01.JPG,AFNE01.JPG,,,,,5,2,52,4,,,,,,,,,,,,,,,,,,,AFNE18.jpg,AFSA02.jpg,AFSA07.jpg,AFNE11.jpg,AFNE11.jpg,FN,3,num_4,16,num_4,0.750090368208,,,2017_Apr_24_1715,60.0087959313,MAFE4ImagesEEG,001,100187,
AFNE01.JPG,AFNE01.JPG,AFNE01.JPG,AFNE01.JPG,AFNE01.JPG,AFNE01.JPG,,,,,5,3,53,9,,,,,,,,,,,,,,,,,,,AFSA01.jpg,AFNE07.jpg,AFNE11.jpg,AFSA05.jpg,AFSA01.jpg,FS,4,num_8,16,num_8,1.06677082134,,,2017_Apr_24_1715,60.0087959313,MAFE4ImagesEEG,001,100187,
AFNE01.JPG,AFNE01.JPG,AFNE01.JPG,AFNE01.JPG,AFNE01.JPG,AFNE01.JPG,,,,,5,4,54,8,,,,,,,,,,,,,,,,,,,AFSA07.jpg,AFSA14.jpg,AFNE11.jpg,AFNE08.jpg,AFNE11.jpg,FN,3,num_2,16,num_2,0.600264160777,,,2017_Apr_24_1715,60.0087959313,MAFE4ImagesEEG,001,100187,
AFNE01.JPG,AFNE01.JPG,AFNE01.JPG,AFNE01.JPG,AFNE01.JPG,AFNE01.JPG,,,,,5,5,55,3,,,,,,,,,,,,,,,,,,,AFNE12.jpg,AFSA06.jpg,AFNE04.jpg,AFSA19.jpg,AFSA19.jpg,FS,4,num_4,32,num_6,1.23342203908,,,2017_Apr_24_1715,60.0087959313,MAFE4ImagesEEG,001,100187,
AFNE01.JPG,AFNE01.JPG,AFNE01.JPG,AFNE01.JPG,AFNE01.JPG,AFNE01.JPG,,,,,5,6,56,0,,,,,,,,,,,,,,,,,,,AFSA19.jpg,AFNE15.jpg,AFSA08.jpg,AFNE04.jpg,AFSA19.jpg,FS,4,num_8,32,num_2,1.30009952537,,,2017_Apr_24_1715,60.0087959313,MAFE4ImagesEEG,001,100187,
AFNE01.JPG,AFNE01.JPG,AFNE01.JPG,AFNE01.JPG,AFNE01.JPG,AFNE01.JPG,,,,,5,7,57,5,,,,,,,,,,,,,,,,,,,AFNE11.jpg,AFNE05.jpg,AFSA20.jpg,AFSA02.jpg,AFNE11.jpg,FN,3,num_8,16,num_8,0.516778342659,,,2017_Apr_24_1715,60.0087959313,MAFE4ImagesEEG,001,100187,
AFNE01.JPG,AFNE01.JPG,AFNE01.JPG,AFNE01.JPG,AFNE01.JPG,AFNE01.JPG,,,,,5,8,58,6,,,,,,,,,,,,,,,,,,,AFSA15.jpg,AFNE15.jpg,AFSA18.jpg,AFNE08.jpg,AFSA18.jpg,FS,4,num_2,32,num_4,1.1787238369,,,2017_Apr_24_1715,60.0087959313,MAFE4ImagesEEG,001,100187,
AFNE01.JPG,AFNE01.JPG,AFNE01.JPG,AFNE01.JPG,AFNE01.JPG,AFNE01.JPG,,,,,5,9,59,7,,,,,,,,,,,,,,,,,,,AFNE05.jpg,AFSA01.jpg,AFNE01.jpg,AFSA09.jpg,AFSA09.jpg,FS,4,num_4,32,num_6,0.866876280284,,,2017_Apr_24_1715,60.0087959313,MAFE4ImagesEEG,001,100187,
,,,,,,,,,,,,,,,,,,,,,,,,,,,,,,,,,,,,,,,,,,,space,11.482651704,2017_Apr_24_1715,60.0087959313,MAFE4ImagesEEG,001,100187,
AFNE01.JPG,AFNE01.JPG,AFNE01.JPG,AFNE01.JPG,AFNE01.JPG,AFNE01.JPG,,,,,,,,,0,0,0,9,,,,,,,,,,,,,,,AMNE07.jpg,AMSA09.jpg,AMNE03.jpg,AMSA19.jpg,AMSA19.jpg,MS,2,num_4,16,num_4,1.10009721597,,,2017_Apr_24_1715,60.0087959313,MAFE4ImagesEEG,001,100187,
AFNE01.JPG,AFNE01.JPG,AFNE01.JPG,AFNE01.JPG,AFNE01.JPG,AFNE01.JPG,,,,,,,,,0,1,1,0,,,,,,,,,,,,,,,AMSA15.jpg,AMNE05.jpg,AMNE13.jpg,AMSA12.jpg,AMNE05.jpg,MN,1,num_6,16,num_6,0.633468353772,,,2017_Apr_24_1715,60.0087959313,MAFE4ImagesEEG,001,100187,
AFNE01.JPG,AFNE01.JPG,AFNE01.JPG,AFNE01.JPG,AFNE01.JPG,AFNE01.JPG,,,,,,,,,0,2,2,3,,,,,,,,,,,,,,,AMNE15.jpg,AMSA10.jpg,AMNE02.jpg,AMSA13.jpg,AMNE15.jpg,MN,1,num_8,32,num_4,0.933483203989,,,2017_Apr_24_1715,60.0087959313,MAFE4ImagesEEG,001,100187,
AFNE01.JPG,AFNE01.JPG,AFNE01.JPG,AFNE01.JPG,AFNE01.JPG,AFNE01.JPG,,,,,,,,,0,3,3,2,,,,,,,,,,,,,,,AMNE12.jpg,AMSA15.jpg,AMSA09.jpg,AMNE06.jpg,AMSA09.jpg,MS,2,num_2,32,num_8,1.11691067962,,,2017_Apr_24_1715,60.0087959313,MAFE4ImagesEEG,001,100187,
AFNE01.JPG,AFNE01.JPG,AFNE01.JPG,AFNE01.JPG,AFNE01.JPG,AFNE01.JPG,,,,,,,,,0,4,4,8,,,,,,,,,,,,,,,AMSA08.jpg,AMNE01.jpg,AMSA11.jpg,AMNE09.jpg,AMSA08.jpg,MS,2,num_8,32,num_2,0.816830398631,,,2017_Apr_24_1715,60.0087959313,MAFE4ImagesEEG,001,100187,
AFNE01.JPG,AFNE01.JPG,AFNE01.JPG,AFNE01.JPG,AFNE01.JPG,AFNE01.JPG,,,,,,,,,0,5,5,4,,,,,,,,,,,,,,,AMSA02.jpg,AMNE01.jpg,AMNE08.jpg,AMSA06.jpg,AMSA06.jpg,MS,2,num_4,16,num_4,0.500234299921,,,2017_Apr_24_1715,60.0087959313,MAFE4ImagesEEG,001,100187,
AFNE01.JPG,AFNE01.JPG,AFNE01.JPG,AFNE01.JPG,AFNE01.JPG,AFNE01.JPG,,,,,,,,,0,6,6,1,,,,,,,,,,,,,,,AMNE15.jpg,AMSA11.jpg,AMNE07.jpg,AMSA01.jpg,AMNE15.jpg,MN,1,num_8,32,num_6,1.08342840581,,,2017_Apr_24_1715,60.0087959313,MAFE4ImagesEEG,001,100187,
AFNE01.JPG,AFNE01.JPG,AFNE01.JPG,AFNE01.JPG,AFNE01.JPG,AFNE01.JPG,,,,,,,,,0,7,7,6,,,,,,,,,,,,,,,AMNE15.jpg,AMSA06.jpg,AMSA03.jpg,AMNE13.jpg,AMNE13.jpg,MN,1,num_4,16,num_4,0.683479916537,,,2017_Apr_24_1715,60.0087959313,MAFE4ImagesEEG,001,100187,
AFNE01.JPG,AFNE01.JPG,AFNE01.JPG,AFNE01.JPG,AFNE01.JPG,AFNE01.JPG,,,,,,,,,0,8,8,7,,,,,,,,,,,,,,,AMNE14.jpg,AMSA05.jpg,AMSA10.jpg,AMNE17.jpg,AMNE17.jpg,MN,1,num_4,16,num_4,0.683465803857,,,2017_Apr_24_1715,60.0087959313,MAFE4ImagesEEG,001,100187,
AFNE01.JPG,AFNE01.JPG,AFNE01.JPG,AFNE01.JPG,AFNE01.JPG,AFNE01.JPG,,,,,,,,,0,9,9,5,,,,,,,,,,,,,,,AMSA05.jpg,AMSA17.jpg,AMNE17.jpg,AMNE16.jpg,AMSA17.jpg,MS,2,num_6,32,num_8,1.01676182461,,,2017_Apr_24_1715,60.0087959313,MAFE4ImagesEEG,001,100187,
AFNE01.JPG,AFNE01.JPG,AFNE01.JPG,AFNE01.JPG,AFNE01.JPG,AFNE01.JPG,,,,,,,,,1,0,10,5,,,,,,,,,,,,,,,AMSA17.jpg,AMSA06.jpg,AMNE18.jpg,AMNE19.jpg,AMNE18.jpg,MN,1,num_2,16,num_2,0.933444394614,,,2017_Apr_24_1715,60.0087959313,MAFE4ImagesEEG,001,100187,
AFNE01.JPG,AFNE01.JPG,AFNE01.JPG,AFNE01.JPG,AFNE01.JPG,AFNE01.JPG,,,,,,,,,1,1,11,8,,,,,,,,,,,,,,,AMSA01.jpg,AMNE09.jpg,AMSA13.jpg,AMNE19.jpg,AMSA01.jpg,MS,2,num_8,16,num_8,1.23342556728,,,2017_Apr_24_1715,60.0087959313,MAFE4ImagesEEG,001,100187,
AFNE01.JPG,AFNE01.JPG,AFNE01.JPG,AFNE01.JPG,AFNE01.JPG,AFNE01.JPG,,,,,,,,,1,2,12,6,,,,,,,,,,,,,,,AMSA20.jpg,AMNE10.jpg,AMNE13.jpg,AMSA11.jpg,AMNE10.jpg,MN,1,num_6,32,num_2,1.08322024613,,,2017_Apr_24_1715,60.0087959313,MAFE4ImagesEEG,001,100187,
AFNE01.JPG,AFNE01.JPG,AFNE01.JPG,AFNE01.JPG,AFNE01.JPG,AFNE01.JPG,,,,,,,,,1,3,13,7,,,,,,,,,,,,,,,AMNE09.jpg,AMSA17.jpg,AMSA02.jpg,AMNE11.jpg,AMSA02.jpg,MS,2,num_2,16,num_2,0.483478248585,,,2017_Apr_24_1715,60.0087959313,MAFE4ImagesEEG,001,100187,
AFNE01.JPG,AFNE01.JPG,AFNE01.JPG,AFNE01.JPG,AFNE01.JPG,AFNE01.JPG,,,,,,,,,1,4,14,9,,,,,,,,,,,,,,,AMSA16.jpg,AMNE05.jpg,AMSA03.jpg,AMNE20.jpg,AMNE20.jpg,MN,1,num_4,16,num_4,1.44977241952,,,2017_Apr_24_1715,60.0087959313,MAFE4ImagesEEG,001,100187,
AFNE01.JPG,AFNE01.JPG,AFNE01.JPG,AFNE01.JPG,AFNE01.JPG,AFNE01.JPG,,,,,,,,,1,5,15,4,,,,,,,,,,,,,,,AMNE11.jpg,AMSA04.jpg,AMNE17.jpg,AMSA07.jpg,AMSA07.jpg,MS,2,num_4,16,num_4,0.73357358831,,,2017_Apr_24_1715,60.0087959313,MAFE4ImagesEEG,001,100187,
AFNE01.JPG,AFNE01.JPG,AFNE01.JPG,AFNE01.JPG,AFNE01.JPG,AFNE01.JPG,,,,,,,,,1,6,16,3,,,,,,,,,,,,,,,AMSA17.jpg,AMNE20.jpg,AMNE09.jpg,AMSA20.jpg,AMNE09.jpg,MN,1,num_2,16,num_2,0.983546084957,,,2017_Apr_24_1715,60.0087959313,MAFE4ImagesEEG,001,100187,
AFNE01.JPG,AFNE01.JPG,AFNE01.JPG,AFNE01.JPG,AFNE01.JPG,AFNE01.JPG,,,,,,,,,1,7,17,2,,,,,,,,,,,,,,,AMNE13.jpg,AMNE10.jpg,AMSA12.jpg,AMSA05.jpg,AMSA05.jpg,MS,2,num_4,32,num_2,1.28351154132,,,2017_Apr_24_1715,60.0087959313,MAFE4ImagesEEG,001,100187,
AFNE01.JPG,AFNE01.JPG,AFNE01.JPG,AFNE01.JPG,AFNE01.JPG,AFNE01.JPG,,,,,,,,,1,8,18,0,,,,,,,,,,,,,,,AMNE13.jpg,AMSA20.jpg,AMSA10.jpg,AMNE11.jpg,AMNE13.jpg,MN,1,num_8,16,num_8,1.03359806072,,,2017_Apr_24_1715,60.0087959313,MAFE4ImagesEEG,001,100187,
AFNE01.JPG,AFNE01.JPG,AFNE01.JPG,AFNE01.JPG,AFNE01.JPG,AFNE01.JPG,,,,,,,,,1,9,19,1,,,,,,,,,,,,,,,AMSA16.jpg,AMNE08.jpg,AMNE03.jpg,AMSA19.jpg,AMNE08.jpg,MN,1,num_6,32,num_8,2.25007352943,,,2017_Apr_24_1715,60.0087959313,MAFE4ImagesEEG,001,100187,
AFNE01.JPG,AFNE01.JPG,AFNE01.JPG,AFNE01.JPG,AFNE01.JPG,AFNE01.JPG,,,,,,,,,2,0,20,6,,,,,,,,,,,,,,,AMSA09.jpg,AMNE14.jpg,AMSA17.jpg,AMNE03.jpg,AMNE14.jpg,MN,1,num_6,16,num_6,0.850134983077,,,2017_Apr_24_1715,60.0087959313,MAFE4ImagesEEG,001,100187,
AFNE01.JPG,AFNE01.JPG,AFNE01.JPG,AFNE01.JPG,AFNE01.JPG,AFNE01.JPG,,,,,,,,,2,1,21,8,,,,,,,,,,,,,,,AMSA04.jpg,AMNE20.jpg,AMNE19.jpg,AMSA07.jpg,AMSA07.jpg,MS,2,num_4,32,num_6,0.516830943874,,,2017_Apr_24_1715,60.0087959313,MAFE4ImagesEEG,001,100187,
AFNE01.JPG,AFNE01.JPG,AFNE01.JPG,AFNE01.JPG,AFNE01.JPG,AFNE01.JPG,,,,,,,,,2,2,22,7,,,,,,,,,,,,,,,AMNE04.jpg,AMNE11.jpg,AMSA20.jpg,AMSA04.jpg,AMSA04.jpg,MS,2,num_4,16,num_4,0.516765192384,,,2017_Apr_24_1715,60.0087959313,MAFE4ImagesEEG,001,100187,
AFNE01.JPG,AFNE01.JPG,AFNE01.JPG,AFNE01.JPG,AFNE01.JPG,AFNE01.JPG,,,,,,,,,2,3,23,1,,,,,,,,,,,,,,,AMSA10.jpg,AMNE12.jpg,AMNE03.jpg,AMSA06.jpg,AMSA10.jpg,MS,2,num_8,32,num_2,1.00015427545,,,2017_Apr_24_1715,60.0087959313,MAFE4ImagesEEG,001,100187,
AFNE01.JPG,AFNE01.JPG,AFNE01.JPG,AFNE01.JPG,AFNE01.JPG,AFNE01.JPG,,,,,,,,,2,4,24,3,,,,,,,,,,,,,,,AMNE07.jpg,AMSA18.jpg,AMSA08.jpg,AMNE11.jpg,AMNE07.jpg,MN,1,num_8,16,num_8,0.716786104604,,,2017_Apr_24_1715,60.0087959313,MAFE4ImagesEEG,001,100187,
AFNE01.JPG,AFNE01.JPG,AFNE01.JPG,AFNE01.JPG,AFNE01.JPG,AFNE01.JPG,,,,,,,,,2,5,25,2,,,,,,,,,,,,,,,AMSA19.jpg,AMNE19.jpg,AMNE01.jpg,AMSA04.jpg,AMSA04.jpg,MS,2,num_4,32,num_2,1.36677669093,,,2017_Apr_24_1715,60.0087959313,MAFE4ImagesEEG,001,100187,
AFNE01.JPG,AFNE01.JPG,AFNE01.JPG,AFNE01.JPG,AFNE01.JPG,AFNE01.JPG,,,,,,,,,2,6,26,0,,,,,,,,,,,,,,,AMNE12.jpg,AMSA03.jpg,AMNE03.jpg,AMSA07.jpg,AMSA07.jpg,MS,2,num_4,32,num_8,1.5334625484,,,2017_Apr_24_1715,60.0087959313,MAFE4ImagesEEG,001,100187,
AFNE01.JPG,AFNE01.JPG,AFNE01.JPG,AFNE01.JPG,AFNE01.JPG,AFNE01.JPG,,,,,,,,,2,7,27,9,,,,,,,,,,,,,,,AMSA05.jpg,AMNE10.jpg,AMSA20.jpg,AMNE01.jpg,AMNE01.jpg,MN,1,num_4,32,num_8,0.916783923516,,,2017_Apr_24_1715,60.0087959313,MAFE4ImagesEEG,001,100187,
AFNE01.JPG,AFNE01.JPG,AFNE01.JPG,AFNE01.JPG,AFNE01.JPG,AFNE01.JPG,,,,,,,,,2,8,28,4,,,,,,,,,,,,,,,AMNE06.jpg,AMNE04.jpg,AMSA05.jpg,AMSA01.jpg,AMNE04.jpg,MN,1,num_6,32,num_8,1.68351487699,,,2017_Apr_24_1715,60.0087959313,MAFE4ImagesEEG,001,100187,
AFNE01.JPG,AFNE01.JPG,AFNE01.JPG,AFNE01.JPG,AFNE01.JPG,AFNE01.JPG,,,,,,,,,2,9,29,5,,,,,,,,,,,,,,,AMNE02.jpg,AMNE19.jpg,AMSA07.jpg,AMSA17.jpg,AMNE19.jpg,MN,1,num_6,16,num_6,0.733536382555,,,2017_Apr_24_1715,60.0087959313,MAFE4ImagesEEG,001,100187,
AFNE01.JPG,AFNE01.JPG,AFNE01.JPG,AFNE01.JPG,AFNE01.JPG,AFNE01.JPG,,,,,,,,,3,0,30,1,,,,,,,,,,,,,,,AMSA14.jpg,AMNE15.jpg,AMSA17.jpg,AMNE08.jpg,AMNE15.jpg,MN,1,num_6,32,num_2,0.950171258533,,,2017_Apr_24_1715,60.0087959313,MAFE4ImagesEEG,001,100187,
AFNE01.JPG,AFNE01.JPG,AFNE01.JPG,AFNE01.JPG,AFNE01.JPG,AFNE01.JPG,,,,,,,,,3,1,31,3,,,,,,,,,,,,,,,AMNE02.jpg,AMSA12.jpg,AMSA01.jpg,AMNE07.jpg,AMSA12.jpg,MS,2,num_6,32,num_8,1.01676182461,,,2017_Apr_24_1715,60.0087959313,MAFE4ImagesEEG,001,100187,
AFNE01.JPG,AFNE01.JPG,AFNE01.JPG,AFNE01.JPG,AFNE01.JPG,AFNE01.JPG,,,,,,,,,3,2,32,5,,,,,,,,,,,,,,,AMSA10.jpg,AMNE03.jpg,AMNE04.jpg,AMSA16.jpg,AMSA16.jpg,MS,2,num_4,16,num_4,0.716645941604,,,2017_Apr_24_1715,60.0087959313,MAFE4ImagesEEG,001,100187,
AFNE01.JPG,AFNE01.JPG,AFNE01.JPG,AFNE01.JPG,AFNE01.JPG,AFNE01.JPG,,,,,,,,,3,3,33,2,,,,,,,,,,,,,,,AMSA19.jpg,AMNE17.jpg,AMNE14.jpg,AMSA13.jpg,AMNE14.jpg,MN,1,num_2,16,num_2,0.783483476727,,,2017_Apr_24_1715,60.0087959313,MAFE4ImagesEEG,001,100187,
AFNE01.JPG,AFNE01.JPG,AFNE01.JPG,AFNE01.JPG,AFNE01.JPG,AFNE01.JPG,,,,,,,,,3,4,34,9,,,,,,,,,,,,,,,AMNE11.jpg,AMSA13.jpg,AMNE06.jpg,AMSA06.jpg,AMSA13.jpg,MS,2,num_6,32,num_4,0.816798966145,,,2017_Apr_24_1715,60.0087959313,MAFE4ImagesEEG,001,100187,
AFNE01.JPG,AFNE01.JPG,AFNE01.JPG,AFNE01.JPG,AFNE01.JPG,AFNE01.JPG,,,,,,,,,3,5,35,4,,,,,,,,,,,,,,,AMSA14.jpg,AMNE17.jpg,AMNE15.jpg,AMSA18.jpg,AMSA18.jpg,MS,2,num_4,16,num_4,0.883536430658,,,2017_Apr_24_1715,60.0087959313,MAFE4ImagesEEG,001,100187,
AFNE01.JPG,AFNE01.JPG,AFNE01.JPG,AFNE01.JPG,AFNE01.JPG,AFNE01.JPG,,,,,,,,,3,6,36,8,,,,,,,,,,,,,,,AMNE05.jpg,AMSA11.jpg,AMNE14.jpg,AMSA12.jpg,AMNE14.jpg,MN,1,num_2,32,num_4,1.46670616034,,,2017_Apr_24_1715,60.0087959313,MAFE4ImagesEEG,001,100187,
AFNE01.JPG,AFNE01.JPG,AFNE01.JPG,AFNE01.JPG,AFNE01.JPG,AFNE01.JPG,,,,,,,,,3,7,37,6,,,,,,,,,,,,,,,AMSA07.jpg,AMNE14.jpg,AMSA09.jpg,AMNE02.jpg,AMSA09.jpg,MS,2,num_2,32,num_6,1.01682725537,,,2017_Apr_24_1715,60.0087959313,MAFE4ImagesEEG,001,100187,
AFNE01.JPG,AFNE01.JPG,AFNE01.JPG,AFNE01.JPG,AFNE01.JPG,AFNE01.JPG,,,,,,,,,3,8,38,7,,,,,,,,,,,,,,,AMNE13.jpg,AMSA14.jpg,AMNE08.jpg,AMSA20.jpg,AMSA20.jpg,MS,2,num_4,16,num_4,0.850137869711,,,2017_Apr_24_1715,60.0087959313,MAFE4ImagesEEG,001,100187,
AFNE01.JPG,AFNE01.JPG,AFNE01.JPG,AFNE01.JPG,AFNE01.JPG,AFNE01.JPG,,,,,,,,,3,9,39,0,,,,,,,,,,,,,,,AMSA07.jpg,AMNE20.jpg,AMSA04.jpg,AMNE15.jpg,AMSA04.jpg,MS,2,num_2,32,num_8,0.916780716158,,,2017_Apr_24_1715,60.0087959313,MAFE4ImagesEEG,001,100187,
AFNE01.JPG,AFNE01.JPG,AFNE01.JPG,AFNE01.JPG,AFNE01.JPG,AFNE01.JPG,,,,,,,,,4,0,40,3,,,,,,,,,,,,,,,AMNE13.jpg,AMSA03.jpg,AMNE14.jpg,AMSA13.jpg,AMNE14.jpg,MN,1,num_2,16,num_2,1.15014245629,,,2017_Apr_24_1715,60.0087959313,MAFE4ImagesEEG,001,100187,
AFNE01.JPG,AFNE01.JPG,AFNE01.JPG,AFNE01.JPG,AFNE01.JPG,AFNE01.JPG,,,,,,,,,4,1,41,0,,,,,,,,,,,,,,,AMNE20.jpg,AMNE12.jpg,AMSA08.jpg,AMSA07.jpg,AMSA08.jpg,MS,2,num_2,32,num_8,0.799955353141,,,2017_Apr_24_1715,60.0087959313,MAFE4ImagesEEG,001,100187,
AFNE01.JPG,AFNE01.JPG,AFNE01.JPG,AFNE01.JPG,AFNE01.JPG,AFNE01.JPG,,,,,,,,,4,2,42,4,,,,,,,,,,,,,,,AMSA18.jpg,AMNE04.jpg,AMSA17.jpg,AMNE20.jpg,AMSA17.jpg,MS,2,num_2,32,num_6,0.716803424526,,,2017_Apr_24_1715,60.0087959313,MAFE4ImagesEEG,001,100187,
AFNE01.JPG,AFNE01.JPG,AFNE01.JPG,AFNE01.JPG,AFNE01.JPG,AFNE01.JPG,,,,,,,,,4,3,43,8,,,,,,,,,,,,,,,AMSA03.jpg,AMSA02.jpg,AMNE07.jpg,AMNE06.jpg,AMNE07.jpg,MN,1,num_2,32,num_8,1.05008052161,,,2017_Apr_24_1715,60.0087959313,MAFE4ImagesEEG,001,100187,
AFNE01.JPG,AFNE01.JPG,AFNE01.JPG,AFNE01.JPG,AFNE01.JPG,AFNE01.JPG,,,,,,,,,4,4,44,7,,,,,,,,,,,,,,,AMSA19.jpg,AMNE14.jpg,AMNE20.jpg,AMSA14.jpg,AMNE20.jpg,MN,1,num_2,32,num_4,0.933392755571,,,2017_Apr_24_1715,60.0087959313,MAFE4ImagesEEG,001,100187,
AFNE01.JPG,AFNE01.JPG,AFNE01.JPG,AFNE01.JPG,AFNE01.JPG,AFNE01.JPG,,,,,,,,,4,5,45,2,,,,,,,,,,,,,,,AMSA01.jpg,AMNE09.jpg,AMSA10.jpg,AMNE05.jpg,AMSA10.jpg,MS,2,num_2,32,num_8,1.13344670401,,,2017_Apr_24_1715,60.0087959313,MAFE4ImagesEEG,001,100187,
AFNE01.JPG,AFNE01.JPG,AFNE01.JPG,AFNE01.JPG,AFNE01.JPG,AFNE01.JPG,,,,,,,,,4,6,46,5,,,,,,,,,,,,,,,AMNE05.jpg,AMNE07.jpg,AMSA11.jpg,AMSA12.jpg,AMSA12.jpg,MS,2,num_4,32,num_8,0.750022371532,,,2017_Apr_24_1715,60.0087959313,MAFE4ImagesEEG,001,100187,
AFNE01.JPG,AFNE01.JPG,AFNE01.JPG,AFNE01.JPG,AFNE01.JPG,AFNE01.JPG,,,,,,,,,4,7,47,6,,,,,,,,,,,,,,,AMNE19.jpg,AMNE08.jpg,AMSA06.jpg,AMSA08.jpg,AMNE08.jpg,MN,1,num_6,16,num_6,1.13342553505,,,2017_Apr_24_1715,60.0087959313,MAFE4ImagesEEG,001,100187,
AFNE01.JPG,AFNE01.JPG,AFNE01.JPG,AFNE01.JPG,AFNE01.JPG,AFNE01.JPG,,,,,,,,,4,8,48,1,,,,,,,,,,,,,,,AMNE07.jpg,AMSA08.jpg,AMSA20.jpg,AMNE06.jpg,AMNE06.jpg,MN,1,num_4,32,num_8,0.68328234111,,,2017_Apr_24_1715,60.0087959313,MAFE4ImagesEEG,001,100187,
AFNE01.JPG,AFNE01.JPG,AFNE01.JPG,AFNE01.JPG,AFNE01.JPG,AFNE01.JPG,,,,,,,,,4,9,49,9,,,,,,,,,,,,,,,AMSA17.jpg,AMNE05.jpg,AMNE09.jpg,AMSA13.jpg,AMNE05.jpg,MN,1,num_6,32,num_8,1.3334454851,,,2017_Apr_24_1715,60.0087959313,MAFE4ImagesEEG,001,100187,
AFNE01.JPG,AFNE01.JPG,AFNE01.JPG,AFNE01.JPG,AFNE01.JPG,AFNE01.JPG,,,,,,,,,5,0,50,5,,,,,,,,,,,,,,,AMSA08.jpg,AMNE13.jpg,AMSA13.jpg,AMNE11.jpg,AMSA13.jpg,MS,2,num_2,16,num_2,1.33340731706,,,2017_Apr_24_1715,60.0087959313,MAFE4ImagesEEG,001,100187,
AFNE01.JPG,AFNE01.JPG,AFNE01.JPG,AFNE01.JPG,AFNE01.JPG,AFNE01.JPG,,,,,,,,,5,1,51,9,,,,,,,,,,,,,,,AMNE17.jpg,AMSA03.jpg,AMSA11.jpg,AMNE05.jpg,AMNE17.jpg,MN,1,num_8,16,num_8,1.15010396752,,,2017_Apr_24_1715,60.0087959313,MAFE4ImagesEEG,001,100187,
AFNE01.JPG,AFNE01.JPG,AFNE01.JPG,AFNE01.JPG,AFNE01.JPG,AFNE01.JPG,,,,,,,,,5,2,52,7,,,,,,,,,,,,,,,AMNE07.jpg,AMSA07.jpg,AMNE05.jpg,AMSA08.jpg,AMNE07.jpg,MN,1,num_8,32,num_2,1.00014721928,,,2017_Apr_24_1715,60.0087959313,MAFE4ImagesEEG,001,100187,
AFNE01.JPG,AFNE01.JPG,AFNE01.JPG,AFNE01.JPG,AFNE01.JPG,AFNE01.JPG,,,,,,,,,5,3,53,4,,,,,,,,,,,,,,,AMNE06.jpg,AMNE18.jpg,AMSA17.jpg,AMSA12.jpg,AMSA17.jpg,MS,2,num_2,32,num_8,1.13347492891,,,2017_Apr_24_1715,60.0087959313,MAFE4ImagesEEG,001,100187,
AFNE01.JPG,AFNE01.JPG,AFNE01.JPG,AFNE01.JPG,AFNE01.JPG,AFNE01.JPG,,,,,,,,,5,4,54,0,,,,,,,,,,,,,,,AMNE10.jpg,AMSA17.jpg,AMNE02.jpg,AMSA16.jpg,AMSA16.jpg,MS,2,num_4,16,num_4,0.900183109916,,,2017_Apr_24_1715,60.0087959313,MAFE4ImagesEEG,001,100187,
AFNE01.JPG,AFNE01.JPG,AFNE01.JPG,AFNE01.JPG,AFNE01.JPG,AFNE01.JPG,,,,,,,,,5,5,55,8,,,,,,,,,,,,,,,AMNE11.jpg,AMSA03.jpg,AMSA13.jpg,AMNE18.jpg,AMNE18.jpg,MN,1,num_4,32,num_8,1.05009174731,,,2017_Apr_24_1715,60.0087959313,MAFE4ImagesEEG,001,100187,
AFNE01.JPG,AFNE01.JPG,AFNE01.JPG,AFNE01.JPG,AFNE01.JPG,AFNE01.JPG,,,,,,,,,5,6,56,6,,,,,,,,,,,,,,,AMNE05.jpg,AMSA12.jpg,AMSA09.jpg,AMNE19.jpg,AMSA09.jpg,MS,2,num_2,32,num_4,1.73335933452,,,2017_Apr_24_1715,60.0087959313,MAFE4ImagesEEG,001,100187,
AFNE01.JPG,AFNE01.JPG,AFNE01.JPG,AFNE01.JPG,AFNE01.JPG,AFNE01.JPG,,,,,,,,,5,7,57,2,,,,,,,,,,,,,,,AMSA05.jpg,AMSA13.jpg,AMNE07.jpg,AMNE13.jpg,AMNE07.jpg,MN,1,num_2,32,num_4,0.56677290611,,,2017_Apr_24_1715,60.0087959313,MAFE4ImagesEEG,001,100187,
AFNE01.JPG,AFNE01.JPG,AFNE01.JPG,AFNE01.JPG,AFNE01.JPG,AFNE01.JPG,,,,,,,,,5,8,58,3,,,,,,,,,,,,,,,AMNE05.jpg,AMNE19.jpg,AMSA16.jpg,AMSA10.jpg,AMSA10.jpg,MS,2,num_4,32,num_6,0.350197687512,,,2017_Apr_24_1715,60.0087959313,MAFE4ImagesEEG,001,100187,
AFNE01.JPG,AFNE01.JPG,AFNE01.JPG,AFNE01.JPG,AFNE01.JPG,AFNE01.JPG,,,,,,,,,5,9,59,1,,,,,,,,,,,,,,,AMSA05.jpg,AMNE20.jpg,AMSA09.jpg,AMNE15.jpg,AMSA05.jpg,MS,2,num_8,16,num_8,1.11671663239,,,2017_Apr_24_1715,60.0087959313,MAFE4ImagesEEG,001,100187,
,,,,,,,,,,,,,,,,,,,,,,,,,,,,,,,,,,,,,,,,,,,space,12.4325009406,2017_Apr_24_1715,60.0087959313,MAFE4ImagesEEG,001,100187,
AFNE01.JPG,AFNE01.JPG,AFNE01.JPG,AFNE01.JPG,AFNE01.JPG,AFNE01.JPG,,,,,,,,,,,,,0,0,0,9,,,,,,,,,,,AFNE08.jpg,AFNE15.jpg,AFSA12.jpg,AFSA15.jpg,AFSA12.jpg,FS,4,num_2,32,num_4,1.25009950926,,,2017_Apr_24_1715,60.0087959313,MAFE4ImagesEEG,001,100187,
AFNE01.JPG,AFNE01.JPG,AFNE01.JPG,AFNE01.JPG,AFNE01.JPG,AFNE01.JPG,,,,,,,,,,,,,0,1,1,1,,,,,,,,,,,AFNE12.jpg,AFSA06.jpg,AFNE13.jpg,AFSA07.jpg,AFSA06.jpg,FS,4,num_6,32,num_8,1.06676985906,,,2017_Apr_24_1715,60.0087959313,MAFE4ImagesEEG,001,100187,
AFNE01.JPG,AFNE01.JPG,AFNE01.JPG,AFNE01.JPG,AFNE01.JPG,AFNE01.JPG,,,,,,,,,,,,,0,2,2,6,,,,,,,,,,,AFNE05.jpg,AFSA05.jpg,AFSA14.jpg,AFNE04.jpg,AFSA05.jpg,FS,4,num_6,16,num_6,0.85012504016,,,2017_Apr_24_1715,60.0087959313,MAFE4ImagesEEG,001,100187,
AFNE01.JPG,AFNE01.JPG,AFNE01.JPG,AFNE01.JPG,AFNE01.JPG,AFNE01.JPG,,,,,,,,,,,,,0,3,3,8,,,,,,,,,,,AFSA14.jpg,AFNE12.jpg,AFSA02.jpg,AFNE18.jpg,AFNE12.jpg,FN,3,num_6,16,num_6,0.5667995275,,,2017_Apr_24_1715,60.0087959313,MAFE4ImagesEEG,001,100187,
AFNE01.JPG,AFNE01.JPG,AFNE01.JPG,AFNE01.JPG,AFNE01.JPG,AFNE01.JPG,,,,,,,,,,,,,0,4,4,3,,,,,,,,,,,AFSA03.jpg,AFNE17.jpg,AFSA12.jpg,AFNE13.jpg,AFSA03.jpg,FS,4,num_8,16,num_8,1.41671704943,,,2017_Apr_24_1715,60.0087959313,MAFE4ImagesEEG,001,100187,
AFNE01.JPG,AFNE01.JPG,AFNE01.JPG,AFNE01.JPG,AFNE01.JPG,AFNE01.JPG,,,,,,,,,,,,,0,5,5,2,,,,,,,,,,,AFNE05.jpg,AFSA13.jpg,AFNE08.jpg,AFSA20.jpg,AFSA13.jpg,FS,4,num_6,16,num_6,0.900158092263,,,2017_Apr_24_1715,60.0087959313,MAFE4ImagesEEG,001,100187,
AFNE01.JPG,AFNE01.JPG,AFNE01.JPG,AFNE01.JPG,AFNE01.JPG,AFNE01.JPG,,,,,,,,,,,,,0,6,6,7,,,,,,,,,,,AFNE04.jpg,AFNE18.jpg,AFSA06.jpg,AFSA10.jpg,AFNE18.jpg,FN,3,num_6,32,num_4,1.15015528572,,,2017_Apr_24_1715,60.0087959313,MAFE4ImagesEEG,001,100187,
AFNE01.JPG,AFNE01.JPG,AFNE01.JPG,AFNE01.JPG,AFNE01.JPG,AFNE01.JPG,,,,,,,,,,,,,0,7,7,5,,,,,,,,,,,AFSA08.jpg,AFSA09.jpg,AFNE08.jpg,AFNE18.jpg,AFNE08.jpg,FN,3,num_2,32,num_6,0.8167643263,,,2017_Apr_24_1715,60.0087959313,MAFE4ImagesEEG,001,100187,
AFNE01.JPG,AFNE01.JPG,AFNE01.JPG,AFNE01.JPG,AFNE01.JPG,AFNE01.JPG,,,,,,,,,,,,,0,8,8,4,,,,,,,,,,,AFNE11.jpg,AFNE09.jpg,AFSA12.jpg,AFSA02.jpg,AFSA12.jpg,FS,4,num_2,32,num_8,0.466803985764,,,2017_Apr_24_1715,60.0087959313,MAFE4ImagesEEG,001,100187,
AFNE01.JPG,AFNE01.JPG,AFNE01.JPG,AFNE01.JPG,AFNE01.JPG,AFNE01.JPG,,,,,,,,,,,,,0,9,9,0,,,,,,,,,,,AFNE03.jpg,AFNE20.jpg,AFSA08.jpg,AFSA11.jpg,AFSA08.jpg,FS,4,num_2,16,num_2,0.950097167864,,,2017_Apr_24_1715,60.0087959313,MAFE4ImagesEEG,001,100187,
AFNE01.JPG,AFNE01.JPG,AFNE01.JPG,AFNE01.JPG,AFNE01.JPG,AFNE01.JPG,,,,,,,,,,,,,1,0,10,1,,,,,,,,,,,AFSA20.jpg,AFNE18.jpg,AFNE04.jpg,AFSA08.jpg,AFSA20.jpg,FS,4,num_8,32,num_4,1.01673873141,,,2017_Apr_24_1715,60.0087959313,MAFE4ImagesEEG,001,100187,
AFNE01.JPG,AFNE01.JPG,AFNE01.JPG,AFNE01.JPG,AFNE01.JPG,AFNE01.JPG,,,,,,,,,,,,,1,1,11,6,,,,,,,,,,,AFSA03.jpg,AFNE10.jpg,AFNE02.jpg,AFSA20.jpg,AFSA20.jpg,FS,4,num_4,16,num_4,0.783466798253,,,2017_Apr_24_1715,60.0087959313,MAFE4ImagesEEG,001,100187,
AFNE01.JPG,AFNE01.JPG,AFNE01.JPG,AFNE01.JPG,AFNE01.JPG,AFNE01.JPG,,,,,,,,,,,,,1,2,12,3,,,,,,,,,,,AFNE09.jpg,AFNE11.jpg,AFSA07.jpg,AFSA05.jpg,AFNE09.jpg,FN,3,num_8,16,num_8,1.16674166615,,,2017_Apr_24_1715,60.0087959313,MAFE4ImagesEEG,001,100187,
AFNE01.JPG,AFNE01.JPG,AFNE01.JPG,AFNE01.JPG,AFNE01.JPG,AFNE01.JPG,,,,,,,,,,,,,1,3,13,5,,,,,,,,,,,AFSA04.jpg,AFNE09.jpg,AFNE18.jpg,AFSA11.jpg,AFSA04.jpg,FS,4,num_8,32,num_6,1.08344829164,,,2017_Apr_24_1715,60.0087959313,MAFE4ImagesEEG,001,100187,
AFNE01.JPG,AFNE01.JPG,AFNE01.JPG,AFNE01.JPG,AFNE01.JPG,AFNE01.JPG,,,,,,,,,,,,,1,4,14,9,,,,,,,,,,,AFNE02.jpg,AFNE16.jpg,AFSA17.jpg,AFSA16.jpg,AFSA16.jpg,FS,4,num_4,32,num_8,0.750098386779,,,2017_Apr_24_1715,60.0087959313,MAFE4ImagesEEG,001,100187,
AFNE01.JPG,AFNE01.JPG,AFNE01.JPG,AFNE01.JPG,AFNE01.JPG,AFNE01.JPG,,,,,,,,,,,,,1,5,15,7,,,,,,,,,,,AFNE02.jpg,AFSA17.jpg,AFSA07.jpg,AFNE05.jpg,AFSA07.jpg,FS,4,num_2,16,num_2,0.816801852896,,,2017_Apr_24_1715,60.0087959313,MAFE4ImagesEEG,001,100187,
AFNE01.JPG,AFNE01.JPG,AFNE01.JPG,AFNE01.JPG,AFNE01.JPG,AFNE01.JPG,,,,,,,,,,,,,1,6,16,2,,,,,,,,,,,AFNE10.jpg,AFSA09.jpg,AFSA06.jpg,AFNE08.jpg,AFNE08.jpg,FN,3,num_4,32,num_8,0.800126627786,,,2017_Apr_24_1715,60.0087959313,MAFE4ImagesEEG,001,100187,
AFNE01.JPG,AFNE01.JPG,AFNE01.JPG,AFNE01.JPG,AFNE01.JPG,AFNE01.JPG,,,,,,,,,,,,,1,7,17,8,,,,,,,,,,,AFNE20.jpg,AFSA10.jpg,AFNE16.jpg,AFSA19.jpg,AFNE16.jpg,FN,3,num_2,32,num_4,0.76680921379,,,2017_Apr_24_1715,60.0087959313,MAFE4ImagesEEG,001,100187,
AFNE01.JPG,AFNE01.JPG,AFNE01.JPG,AFNE01.JPG,AFNE01.JPG,AFNE01.JPG,,,,,,,,,,,,,1,8,18,0,,,,,,,,,,,AFSA05.jpg,AFSA04.jpg,AFNE12.jpg,AFNE16.jpg,AFSA05.jpg,FS,4,num_8,32,num_6,0.716827159165,,,2017_Apr_24_1715,60.0087959313,MAFE4ImagesEEG,001,100187,
AFNE01.JPG,AFNE01.JPG,AFNE01.JPG,AFNE01.JPG,AFNE01.JPG,AFNE01.JPG,,,,,,,,,,,,,1,9,19,4,,,,,,,,,,,AFSA04.jpg,AFNE10.jpg,AFNE12.jpg,AFSA09.jpg,AFSA09.jpg,FS,4,num_4,32,num_6,0.883517507114,,,2017_Apr_24_1715,60.0087959313,MAFE4ImagesEEG,001,100187,
AFNE01.JPG,AFNE01.JPG,AFNE01.JPG,AFNE01.JPG,AFNE01.JPG,AFNE01.JPG,,,,,,,,,,,,,2,0,20,2,,,,,,,,,,,AFSA14.jpg,AFNE04.jpg,AFNE15.jpg,AFSA08.jpg,AFNE04.jpg,FN,3,num_6,32,num_4,0.666760750115,,,2017_Apr_24_1715,60.0087959313,MAFE4ImagesEEG,001,100187,
AFNE01.JPG,AFNE01.JPG,AFNE01.JPG,AFNE01.JPG,AFNE01.JPG,AFNE01.JPG,,,,,,,,,,,,,2,1,21,6,,,,,,,,,,,AFNE20.jpg,AFSA07.jpg,AFNE13.jpg,AFSA02.jpg,AFSA07.jpg,FS,4,num_6,32,num_8,0.683476067614,,,2017_Apr_24_1715,60.0087959313,MAFE4ImagesEEG,001,100187,
AFNE01.JPG,AFNE01.JPG,AFNE01.JPG,AFNE01.JPG,AFNE01.JPG,AFNE01.JPG,,,,,,,,,,,,,2,2,22,7,,,,,,,,,,,AFNE20.jpg,AFNE17.jpg,AFSA01.jpg,AFSA16.jpg,AFNE17.jpg,FN,3,num_6,32,num_4,0.850118625327,,,2017_Apr_24_1715,60.0087959313,MAFE4ImagesEEG,001,100187,
AFNE01.JPG,AFNE01.JPG,AFNE01.JPG,AFNE01.JPG,AFNE01.JPG,AFNE01.JPG,,,,,,,,,,,,,2,3,23,9,,,,,,,,,,,AFSA02.jpg,AFNE08.jpg,AFSA19.jpg,AFNE02.jpg,AFNE08.jpg,FN,3,num_6,32,num_4,0.750149063533,,,2017_Apr_24_1715,60.0087959313,MAFE4ImagesEEG,001,100187,
AFNE01.JPG,AFNE01.JPG,AFNE01.JPG,AFNE01.JPG,AFNE01.JPG,AFNE01.JPG,,,,,,,,,,,,,2,4,24,4,,,,,,,,,,,AFSA04.jpg,AFNE16.jpg,AFSA01.jpg,AFNE03.jpg,AFNE03.jpg,FN,3,num_4,32,num_8,0.800127589959,,,2017_Apr_24_1715,60.0087959313,MAFE4ImagesEEG,001,100187,
AFNE01.JPG,AFNE01.JPG,AFNE01.JPG,AFNE01.JPG,AFNE01.JPG,AFNE01.JPG,,,,,,,,,,,,,2,5,25,5,,,,,,,,,,,AFNE19.jpg,AFSA03.jpg,AFSA02.jpg,AFNE01.jpg,AFNE19.jpg,FN,3,num_8,32,num_4,0.80016960681,,,2017_Apr_24_1715,60.0087959313,MAFE4ImagesEEG,001,100187,
AFNE01.JPG,AFNE01.JPG,AFNE01.JPG,AFNE01.JPG,AFNE01.JPG,AFNE01.JPG,,,,,,,,,,,,,2,6,26,3,,,,,,,,,,,AFNE13.jpg,AFSA09.jpg,AFNE08.jpg,AFSA01.jpg,AFSA01.jpg,FS,4,num_4,32,num_8,0.400180383585,,,2017_Apr_24_1715,60.0087959313,MAFE4ImagesEEG,001,100187,
AFNE01.JPG,AFNE01.JPG,AFNE01.JPG,AFNE01.JPG,AFNE01.JPG,AFNE01.JPG,,,,,,,,,,,,,2,7,27,8,,,,,,,,,,,AFSA05.jpg,AFNE04.jpg,AFNE01.jpg,AFSA09.jpg,AFNE04.jpg,FN,3,num_6,32,num_2,0.94991755404,,,2017_Apr_24_1715,60.0087959313,MAFE4ImagesEEG,001,100187,
AFNE01.JPG,AFNE01.JPG,AFNE01.JPG,AFNE01.JPG,AFNE01.JPG,AFNE01.JPG,,,,,,,,,,,,,2,8,28,0,,,,,,,,,,,AFSA14.jpg,AFNE07.jpg,AFSA13.jpg,AFNE11.jpg,AFNE07.jpg,FN,3,num_6,16,num_6,1.61674918747,,,2017_Apr_24_1715,60.0087959313,MAFE4ImagesEEG,001,100187,
AFNE01.JPG,AFNE01.JPG,AFNE01.JPG,AFNE01.JPG,AFNE01.JPG,AFNE01.JPG,,,,,,,,,,,,,2,9,29,1,,,,,,,,,,,AFNE03.jpg,AFSA04.jpg,AFSA11.jpg,AFNE10.jpg,AFNE10.jpg,FN,3,num_4,16,num_4,0.716789311962,,,2017_Apr_24_1715,60.0087959313,MAFE4ImagesEEG,001,100187,
AFNE01.JPG,AFNE01.JPG,AFNE01.JPG,AFNE01.JPG,AFNE01.JPG,AFNE01.JPG,,,,,,,,,,,,,3,0,30,4,,,,,,,,,,,AFSA13.jpg,AFNE16.jpg,AFSA12.jpg,AFNE10.jpg,AFSA12.jpg,FS,4,num_2,16,num_2,1.3167885422,,,2017_Apr_24_1715,60.0087959313,MAFE4ImagesEEG,001,100187,
AFNE01.JPG,AFNE01.JPG,AFNE01.JPG,AFNE01.JPG,AFNE01.JPG,AFNE01.JPG,,,,,,,,,,,,,3,1,31,1,,,,,,,,,,,AFNE07.jpg,AFSA12.jpg,AFSA14.jpg,AFNE17.jpg,AFSA14.jpg,FS,4,num_2,32,num_8,1.18340374087,,,2017_Apr_24_1715,60.0087959313,MAFE4ImagesEEG,001,100187,
AFNE01.JPG,AFNE01.JPG,AFNE01.JPG,AFNE01.JPG,AFNE01.JPG,AFNE01.JPG,,,,,,,,,,,,,3,2,32,0,,,,,,,,,,,AFSA03.jpg,AFNE07.jpg,AFNE12.jpg,AFSA10.jpg,AFNE12.jpg,FN,3,num_2,16,num_2,0.883463302162,,,2017_Apr_24_1715,60.0087959313,MAFE4ImagesEEG,001,100187,
AFNE01.JPG,AFNE01.JPG,AFNE01.JPG,AFNE01.JPG,AFNE01.JPG,AFNE01.JPG,,,,,,,,,,,,,3,3,33,5,,,,,,,,,,,AFNE02.jpg,AFNE19.jpg,AFSA17.jpg,AFSA11.jpg,AFNE02.jpg,FN,3,num_8,16,num_8,0.983449221705,,,2017_Apr_24_1715,60.0087959313,MAFE4ImagesEEG,001,100187,
AFNE01.JPG,AFNE01.JPG,AFNE01.JPG,AFNE01.JPG,AFNE01.JPG,AFNE01.JPG,,,,,,,,,,,,,3,4,34,6,,,,,,,,,,,AFNE09.jpg,AFNE06.jpg,AFSA02.jpg,AFSA17.jpg,AFNE09.jpg,FN,3,num_8,32,num_2,0.550144188339,,,2017_Apr_24_1715,60.0087959313,MAFE4ImagesEEG,001,100187,
AFNE01.JPG,AFNE01.JPG,AFNE01.JPG,AFNE01.JPG,AFNE01.JPG,AFNE01.JPG,,,,,,,,,,,,,3,5,35,2,,,,,,,,,,,AFNE09.jpg,AFSA08.jpg,AFSA06.jpg,AFNE08.jpg,AFSA08.jpg,FS,4,num_6,32,num_4,1.01677914453,,,2017_Apr_24_1715,60.0087959313,MAFE4ImagesEEG,001,100187,
AFNE01.JPG,AFNE01.JPG,AFNE01.JPG,AFNE01.JPG,AFNE01.JPG,AFNE01.JPG,,,,,,,,,,,,,3,6,36,3,,,,,,,,,,,AFSA12.jpg,AFNE04.jpg,AFSA04.jpg,AFNE07.jpg,AFSA12.jpg,FS,4,num_8,32,num_4,0.816753421212,,,2017_Apr_24_1715,60.0087959313,MAFE4ImagesEEG,001,100187,
AFNE01.JPG,AFNE01.JPG,AFNE01.JPG,AFNE01.JPG,AFNE01.JPG,AFNE01.JPG,,,,,,,,,,,,,3,7,37,7,,,,,,,,,,,AFNE16.jpg,AFSA11.jpg,AFSA02.jpg,AFNE07.jpg,AFNE07.jpg,FN,3,num_4,32,num_6,1.23344449082,,,2017_Apr_24_1715,60.0087959313,MAFE4ImagesEEG,001,100187,
AFNE01.JPG,AFNE01.JPG,AFNE01.JPG,AFNE01.JPG,AFNE01.JPG,AFNE01.JPG,,,,,,,,,,,,,3,8,38,9,,,,,,,,,,,AFSA19.jpg,AFNE05.jpg,AFSA20.jpg,AFNE08.jpg,AFSA19.jpg,FS,4,num_8,16,num_8,0.797425042489,,,2017_Apr_24_1715,60.0087959313,MAFE4ImagesEEG,001,100187,
AFNE01.JPG,AFNE01.JPG,AFNE01.JPG,AFNE01.JPG,AFNE01.JPG,AFNE01.JPG,,,,,,,,,,,,,3,9,39,8,,,,,,,,,,,AFSA07.jpg,AFSA05.jpg,AFNE16.jpg,AFNE08.jpg,AFNE16.jpg,FN,3,num_2,32,num_6,1.48342660966,,,2017_Apr_24_1715,60.0087959313,MAFE4ImagesEEG,001,100187,
AFNE01.JPG,AFNE01.JPG,AFNE01.JPG,AFNE01.JPG,AFNE01.JPG,AFNE01.JPG,,,,,,,,,,,,,4,0,40,5,,,,,,,,,,,AFNE01.jpg,AFSA16.jpg,AFNE05.jpg,AFSA01.jpg,AFNE05.jpg,FN,3,num_2,32,num_4,0.866802189616,,,2017_Apr_24_1715,60.0087959313,MAFE4ImagesEEG,001,100187,
AFNE01.JPG,AFNE01.JPG,AFNE01.JPG,AFNE01.JPG,AFNE01.JPG,AFNE01.JPG,,,,,,,,,,,,,4,1,41,8,,,,,,,,,,,AFNE18.jpg,AFNE16.jpg,AFSA13.jpg,AFSA17.jpg,AFSA17.jpg,FS,4,num_4,32,num_6,1.40020764654,,,2017_Apr_24_1715,60.0087959313,MAFE4ImagesEEG,001,100187,
AFNE01.JPG,AFNE01.JPG,AFNE01.JPG,AFNE01.JPG,AFNE01.JPG,AFNE01.JPG,,,,,,,,,,,,,4,2,42,4,,,,,,,,,,,AFNE12.jpg,AFNE10.jpg,AFSA14.jpg,AFSA08.jpg,AFNE12.jpg,FN,3,num_8,32,num_2,1.45008064981,,,2017_Apr_24_1715,60.0087959313,MAFE4ImagesEEG,001,100187,
AFNE01.JPG,AFNE01.JPG,AFNE01.JPG,AFNE01.JPG,AFNE01.JPG,AFNE01.JPG,,,,,,,,,,,,,4,3,43,7,,,,,,,,,,,AFSA11.jpg,AFNE14.jpg,AFSA13.jpg,AFNE01.jpg,AFSA13.jpg,FS,4,num_2,32,num_6,1.11658192205,,,2017_Apr_24_1715,60.0087959313,MAFE4ImagesEEG,001,100187,
AFNE01.JPG,AFNE01.JPG,AFNE01.JPG,AFNE01.JPG,AFNE01.JPG,AFNE01.JPG,,,,,,,,,,,,,4,4,44,3,,,,,,,,,,,AFSA18.jpg,AFNE08.jpg,AFNE05.jpg,AFSA13.jpg,AFNE08.jpg,FN,3,num_6,32,num_2,2.11673619749,,,2017_Apr_24_1715,60.0087959313,MAFE4ImagesEEG,001,100187,
AFNE01.JPG,AFNE01.JPG,AFNE01.JPG,AFNE01.JPG,AFNE01.JPG,AFNE01.JPG,,,,,,,,,,,,,4,5,45,6,,,,,,,,,,,AFSA15.jpg,AFNE19.jpg,AFSA16.jpg,AFNE07.jpg,AFSA16.jpg,FS,4,num_2,32,num_6,0.850106437341,,,2017_Apr_24_1715,60.0087959313,MAFE4ImagesEEG,001,100187,
AFNE01.JPG,AFNE01.JPG,AFNE01.JPG,AFNE01.JPG,AFNE01.JPG,AFNE01.JPG,,,,,,,,,,,,,4,6,46,2,,,,,,,,,,,AFNE18.jpg,AFNE17.jpg,AFSA03.jpg,AFSA10.jpg,AFNE17.jpg,FN,3,num_6,32,num_4,1.18348071829,,,2017_Apr_24_1715,60.0087959313,MAFE4ImagesEEG,001,100187,
AFNE01.JPG,AFNE01.JPG,AFNE01.JPG,AFNE01.JPG,AFNE01.JPG,AFNE01.JPG,,,,,,,,,,,,,4,7,47,0,,,,,,,,,,,AFSA20.jpg,AFSA09.jpg,AFNE15.jpg,AFNE12.jpg,AFNE15.jpg,FN,3,num_2,32,num_4,1.40008191683,,,2017_Apr_24_1715,60.0087959313,MAFE4ImagesEEG,001,100187,
AFNE01.JPG,AFNE01.JPG,AFNE01.JPG,AFNE01.JPG,AFNE01.JPG,AFNE01.JPG,,,,,,,,,,,,,4,8,48,9,,,,,,,,,,,AFSA19.jpg,AFSA05.jpg,AFNE02.jpg,AFNE20.jpg,AFNE02.jpg,FN,3,num_2,16,num_2,4.01655238192,,,2017_Apr_24_1715,60.0087959313,MAFE4ImagesEEG,001,100187,
AFNE01.JPG,AFNE01.JPG,AFNE01.JPG,AFNE01.JPG,AFNE01.JPG,AFNE01.JPG,,,,,,,,,,,,,4,9,49,1,,,,,,,,,,,AFSA05.jpg,AFNE11.jpg,AFSA01.jpg,AFNE19.jpg,AFNE11.jpg,FN,3,num_6,32,num_8,1.53344747366,,,2017_Apr_24_1715,60.0087959313,MAFE4ImagesEEG,001,100187,
AFNE01.JPG,AFNE01.JPG,AFNE01.JPG,AFNE01.JPG,AFNE01.JPG,AFNE01.JPG,,,,,,,,,,,,,5,0,50,8,,,,,,,,,,,AFNE05.jpg,AFNE09.jpg,AFSA05.jpg,AFSA01.jpg,AFSA05.jpg,FS,4,num_2,16,num_2,0.900126659893,,,2017_Apr_24_1715,60.0087959313,MAFE4ImagesEEG,001,100187,
AFNE01.JPG,AFNE01.JPG,AFNE01.JPG,AFNE01.JPG,AFNE01.JPG,AFNE01.JPG,,,,,,,,,,,,,5,1,51,7,,,,,,,,,,,AFNE17.jpg,AFSA02.jpg,AFNE03.jpg,AFSA05.jpg,AFNE17.jpg,FN,3,num_8,16,num_8,0.850104833604,,,2017_Apr_24_1715,60.0087959313,MAFE4ImagesEEG,001,100187,
AFNE01.JPG,AFNE01.JPG,AFNE01.JPG,AFNE01.JPG,AFNE01.JPG,AFNE01.JPG,,,,,,,,,,,,,5,2,52,0,,,,,,,,,,,AFNE20.jpg,AFSA07.jpg,AFNE09.jpg,AFSA10.jpg,AFSA07.jpg,FS,4,num_6,16,num_6,1.98331483197,,,2017_Apr_24_1715,60.0087959313,MAFE4ImagesEEG,001,100187,
AFNE01.JPG,AFNE01.JPG,AFNE01.JPG,AFNE01.JPG,AFNE01.JPG,AFNE01.JPG,,,,,,,,,,,,,5,3,53,2,,,,,,,,,,,AFNE10.jpg,AFNE11.jpg,AFSA14.jpg,AFSA05.jpg,AFSA05.jpg,FS,4,num_4,16,num_4,0.733481215546,,,2017_Apr_24_1715,60.0087959313,MAFE4ImagesEEG,001,100187,
AFNE01.JPG,AFNE01.JPG,AFNE01.JPG,AFNE01.JPG,AFNE01.JPG,AFNE01.JPG,,,,,,,,,,,,,5,4,54,4,,,,,,,,,,,AFSA02.jpg,AFNE14.jpg,AFSA13.jpg,AFNE18.jpg,AFNE14.jpg,FN,3,num_6,32,num_8,0.783451723517,,,2017_Apr_24_1715,60.0087959313,MAFE4ImagesEEG,001,100187,
AFNE01.JPG,AFNE01.JPG,AFNE01.JPG,AFNE01.JPG,AFNE01.JPG,AFNE01.JPG,,,,,,,,,,,,,5,5,55,9,,,,,,,,,,,AFNE19.jpg,AFSA17.jpg,AFSA06.jpg,AFNE10.jpg,AFNE10.jpg,FN,3,num_4,16,num_4,0.633469957509,,,2017_Apr_24_1715,60.0087959313,MAFE4ImagesEEG,001,100187,
AFNE01.JPG,AFNE01.JPG,AFNE01.JPG,AFNE01.JPG,AFNE01.JPG,AFNE01.JPG,,,,,,,,,,,,,5,6,56,3,,,,,,,,,,,AFNE04.jpg,AFNE14.jpg,AFSA03.jpg,AFSA06.jpg,AFSA06.jpg,FS,4,num_4,32,num_2,0.800179549726,,,2017_Apr_24_1715,60.0087959313,MAFE4ImagesEEG,001,100187,
AFNE01.JPG,AFNE01.JPG,AFNE01.JPG,AFNE01.JPG,AFNE01.JPG,AFNE01.JPG,,,,,,,,,,,,,5,7,57,1,,,,,,,,,,,AFSA06.jpg,AFSA07.jpg,AFNE08.jpg,AFNE18.jpg,AFSA06.jpg,FS,4,num_8,16,num_8,0.833503699279,,,2017_Apr_24_1715,60.0087959313,MAFE4ImagesEEG,001,100187,
AFNE01.JPG,AFNE01.JPG,AFNE01.JPG,AFNE01.JPG,AFNE01.JPG,AFNE01.JPG,,,,,,,,,,,,,5,8,58,5,,,,,,,,,,,AFNE14.jpg,AFSA10.jpg,AFNE12.jpg,AFSA01.jpg,AFSA01.jpg,FS,4,num_4,16,num_4,1.16678143782,,,2017_Apr_24_1715,60.0087959313,MAFE4ImagesEEG,001,100187,
AFNE01.JPG,AFNE01.JPG,AFNE01.JPG,AFNE01.JPG,AFNE01.JPG,AFNE01.JPG,,,,,,,,,,,,,5,9,59,6,,,,,,,,,,,AFNE14.jpg,AFSA08.jpg,AFSA03.jpg,AFNE13.jpg,AFSA03.jpg,FS,4,num_2,32,num_6,0.766784516862,,,2017_Apr_24_1715,60.0087959313,MAFE4ImagesEEG,001,100187,
,,,,,,,,,,,,,,,,,,,,,,,,,,,,,,,,,,,,,,,,,,,space,9.71632808913,2017_Apr_24_1715,60.0087959313,MAFE4ImagesEEG,001,100187,
AFNE01.JPG,AFNE01.JPG,AFNE01.JPG,AFNE01.JPG,AFNE01.JPG,AFNE01.JPG,,,,,,,,,,,,,,,,,0,0,0,5,,,,,,,AMNE11.jpg,AMSA16.jpg,AMNE04.jpg,AMSA20.jpg,AMSA20.jpg,MS,2,num_4,16,num_4,0.800150041701,,,2017_Apr_24_1715,60.0087959313,MAFE4ImagesEEG,001,100187,
AFNE01.JPG,AFNE01.JPG,AFNE01.JPG,AFNE01.JPG,AFNE01.JPG,AFNE01.JPG,,,,,,,,,,,,,,,,,0,1,1,1,,,,,,,AMSA01.jpg,AMNE13.jpg,AMSA17.jpg,AMNE10.jpg,AMNE10.jpg,MN,1,num_4,16,num_4,0.883458491066,,,2017_Apr_24_1715,60.0087959313,MAFE4ImagesEEG,001,100187,
AFNE01.JPG,AFNE01.JPG,AFNE01.JPG,AFNE01.JPG,AFNE01.JPG,AFNE01.JPG,,,,,,,,,,,,,,,,,0,2,2,9,,,,,,,AMSA18.jpg,AMNE12.jpg,AMSA20.jpg,AMNE02.jpg,AMNE02.jpg,MN,1,num_4,32,num_2,1.8000217462,,,2017_Apr_24_1715,60.0087959313,MAFE4ImagesEEG,001,100187,
AFNE01.JPG,AFNE01.JPG,AFNE01.JPG,AFNE01.JPG,AFNE01.JPG,AFNE01.JPG,,,,,,,,,,,,,,,,,0,3,3,6,,,,,,,AMNE16.jpg,AMNE12.jpg,AMSA16.jpg,AMSA07.jpg,AMSA16.jpg,MS,2,num_2,32,num_4,1.08346432855,,,2017_Apr_24_1715,60.0087959313,MAFE4ImagesEEG,001,100187,
AFNE01.JPG,AFNE01.JPG,AFNE01.JPG,AFNE01.JPG,AFNE01.JPG,AFNE01.JPG,,,,,,,,,,,,,,,,,0,4,4,3,,,,,,,AMNE16.jpg,AMSA03.jpg,AMNE08.jpg,AMSA07.jpg,AMNE16.jpg,MN,1,num_8,32,num_2,1.26675805589,,,2017_Apr_24_1715,60.0087959313,MAFE4ImagesEEG,001,100187,
AFNE01.JPG,AFNE01.JPG,AFNE01.JPG,AFNE01.JPG,AFNE01.JPG,AFNE01.JPG,,,,,,,,,,,,,,,,,0,5,5,8,,,,,,,AMSA11.jpg,AMNE19.jpg,AMSA04.jpg,AMNE09.jpg,AMNE09.jpg,MN,1,num_4,32,num_6,1.03350215976,,,2017_Apr_24_1715,60.0087959313,MAFE4ImagesEEG,001,100187,
AFNE01.JPG,AFNE01.JPG,AFNE01.JPG,AFNE01.JPG,AFNE01.JPG,AFNE01.JPG,,,,,,,,,,,,,,,,,0,6,6,2,,,,,,,AMNE04.jpg,AMNE17.jpg,AMSA08.jpg,AMSA05.jpg,AMNE04.jpg,MN,1,num_8,16,num_8,0.833499208908,,,2017_Apr_24_1715,60.0087959313,MAFE4ImagesEEG,001,100187,
AFNE01.JPG,AFNE01.JPG,AFNE01.JPG,AFNE01.JPG,AFNE01.JPG,AFNE01.JPG,,,,,,,,,,,,,,,,,0,7,7,7,,,,,,,AMNE16.jpg,AMSA15.jpg,AMNE17.jpg,AMSA08.jpg,AMNE16.jpg,MN,1,num_8,32,num_6,2.79969074333,,,2017_Apr_24_1715,60.0087959313,MAFE4ImagesEEG,001,100187,
AFNE01.JPG,AFNE01.JPG,AFNE01.JPG,AFNE01.JPG,AFNE01.JPG,AFNE01.JPG,,,,,,,,,,,,,,,,,0,8,8,0,,,,,,,AMSA18.jpg,AMNE14.jpg,AMSA06.jpg,AMNE10.jpg,AMSA06.jpg,MS,2,num_2,16,num_2,0.933534522192,,,2017_Apr_24_1715,60.0087959313,MAFE4ImagesEEG,001,100187,
AFNE01.JPG,AFNE01.JPG,AFNE01.JPG,AFNE01.JPG,AFNE01.JPG,AFNE01.JPG,,,,,,,,,,,,,,,,,0,9,9,4,,,,,,,AMSA18.jpg,AMSA16.jpg,AMNE17.jpg,AMNE01.jpg,AMSA18.jpg,MS,2,num_8,32,num_6,1.45027245185,,,2017_Apr_24_1715,60.0087959313,MAFE4ImagesEEG,001,100187,
AFNE01.JPG,AFNE01.JPG,AFNE01.JPG,AFNE01.JPG,AFNE01.JPG,AFNE01.JPG,,,,,,,,,,,,,,,,,1,0,10,3,,,,,,,AMSA08.jpg,AMNE19.jpg,AMSA01.jpg,AMNE12.jpg,AMSA01.jpg,MS,2,num_2,16,num_2,2.13336844358,,,2017_Apr_24_1715,60.0087959313,MAFE4ImagesEEG,001,100187,
AFNE01.JPG,AFNE01.JPG,AFNE01.JPG,AFNE01.JPG,AFNE01.JPG,AFNE01.JPG,,,,,,,,,,,,,,,,,1,1,11,7,,,,,,,AMSA20.jpg,AMNE03.jpg,AMSA08.jpg,AMNE16.jpg,AMNE03.jpg,MN,1,num_6,16,num_6,1.15011166525,,,2017_Apr_24_1715,60.0087959313,MAFE4ImagesEEG,001,100187,
AFNE01.JPG,AFNE01.JPG,AFNE01.JPG,AFNE01.JPG,AFNE01.JPG,AFNE01.JPG,,,,,,,,,,,,,,,,,1,2,12,6,,,,,,,AMNE04.jpg,AMSA18.jpg,AMSA01.jpg,AMNE03.jpg,AMNE04.jpg,MN,1,num_8,16,num_8,1.58326242317,,,2017_Apr_24_1715,60.0087959313,MAFE4ImagesEEG,001,100187,
AFNE01.JPG,AFNE01.JPG,AFNE01.JPG,AFNE01.JPG,AFNE01.JPG,AFNE01.JPG,,,,,,,,,,,,,,,,,1,3,13,2,,,,,,,AMNE04.jpg,AMSA15.jpg,AMNE10.jpg,AMSA06.jpg,AMNE10.jpg,MN,1,num_2,32,num_6,1.10017515568,,,2017_Apr_24_1715,60.0087959313,MAFE4ImagesEEG,001,100187,
AFNE01.JPG,AFNE01.JPG,AFNE01.JPG,AFNE01.JPG,AFNE01.JPG,AFNE01.JPG,,,,,,,,,,,,,,,,,1,4,14,0,,,,,,,AMNE14.jpg,AMSA18.jpg,AMNE18.jpg,AMSA10.jpg,AMNE14.jpg,MN,1,num_8,32,num_2,0.86678102077,,,2017_Apr_24_1715,60.0087959313,MAFE4ImagesEEG,001,100187,
AFNE01.JPG,AFNE01.JPG,AFNE01.JPG,AFNE01.JPG,AFNE01.JPG,AFNE01.JPG,,,,,,,,,,,,,,,,,1,5,15,4,,,,,,,AMSA18.jpg,AMNE17.jpg,AMNE04.jpg,AMSA03.jpg,AMNE04.jpg,MN,1,num_2,32,num_4,2.71693877631,,,2017_Apr_24_1715,60.0087959313,MAFE4ImagesEEG,001,100187,
AFNE01.JPG,AFNE01.JPG,AFNE01.JPG,AFNE01.JPG,AFNE01.JPG,AFNE01.JPG,,,,,,,,,,,,,,,,,1,6,16,1,,,,,,,AMSA01.jpg,AMNE13.jpg,AMNE16.jpg,AMSA06.jpg,AMSA01.jpg,MS,2,num_8,32,num_4,1.40011206619,,,2017_Apr_24_1715,60.0087959313,MAFE4ImagesEEG,001,100187,
AFNE01.JPG,AFNE01.JPG,AFNE01.JPG,AFNE01.JPG,AFNE01.JPG,AFNE01.JPG,,,,,,,,,,,,,,,,,1,7,17,5,,,,,,,AMSA02.jpg,AMNE07.jpg,AMSA15.jpg,AMNE13.jpg,AMNE13.jpg,MN,1,num_4,32,num_2,1.31675422308,,,2017_Apr_24_1715,60.0087959313,MAFE4ImagesEEG,001,100187,
AFNE01.JPG,AFNE01.JPG,AFNE01.JPG,AFNE01.JPG,AFNE01.JPG,AFNE01.JPG,,,,,,,,,,,,,,,,,1,8,18,9,,,,,,,AMNE19.jpg,AMSA14.jpg,AMSA06.jpg,AMNE10.jpg,AMSA14.jpg,MS,2,num_6,32,num_8,1.40009538771,,,2017_Apr_24_1715,60.0087959313,MAFE4ImagesEEG,001,100187,
AFNE01.JPG,AFNE01.JPG,AFNE01.JPG,AFNE01.JPG,AFNE01.JPG,AFNE01.JPG,,,,,,,,,,,,,,,,,1,9,19,8,,,,,,,AMSA04.jpg,AMSA17.jpg,AMNE15.jpg,AMNE07.jpg,AMNE07.jpg,MN,1,num_4,16,num_4,1.00039033953,,,2017_Apr_24_1715,60.0087959313,MAFE4ImagesEEG,001,100187,
AFNE01.JPG,AFNE01.JPG,AFNE01.JPG,AFNE01.JPG,AFNE01.JPG,AFNE01.JPG,,,,,,,,,,,,,,,,,2,0,20,8,,,,,,,AMSA01.jpg,AMNE17.jpg,AMNE06.jpg,AMSA04.jpg,AMNE17.jpg,MN,1,num_6,16,num_6,1.71671682491,,,2017_Apr_24_1715,60.0087959313,MAFE4ImagesEEG,001,100187,
AFNE01.JPG,AFNE01.JPG,AFNE01.JPG,AFNE01.JPG,AFNE01.JPG,AFNE01.JPG,,,,,,,,,,,,,,,,,2,1,21,5,,,,,,,AMNE18.jpg,AMSA10.jpg,AMSA07.jpg,AMNE20.jpg,AMSA07.jpg,MS,2,num_2,16,num_2,1.2333675134,,,2017_Apr_24_1715,60.0087959313,MAFE4ImagesEEG,001,100187,
AFNE01.JPG,AFNE01.JPG,AFNE01.JPG,AFNE01.JPG,AFNE01.JPG,AFNE01.JPG,,,,,,,,,,,,,,,,,2,2,22,2,,,,,,,AMNE14.jpg,AMSA19.jpg,AMSA01.jpg,AMNE13.jpg,AMNE14.jpg,MN,1,num_8,32,num_4,1.56672126718,,,2017_Apr_24_1715,60.0087959313,MAFE4ImagesEEG,001,100187,
AFNE01.JPG,AFNE01.JPG,AFNE01.JPG,AFNE01.JPG,AFNE01.JPG,AFNE01.JPG,,,,,,,,,,,,,,,,,2,3,23,4,,,,,,,AMNE16.jpg,AMNE10.jpg,AMSA05.jpg,AMSA01.jpg,AMNE16.jpg,MN,1,num_8,32,num_2,1.31673914834,,,2017_Apr_24_1715,60.0087959313,MAFE4ImagesEEG,001,100187,
AFNE01.JPG,AFNE01.JPG,AFNE01.JPG,AFNE01.JPG,AFNE01.JPG,AFNE01.JPG,,,,,,,,,,,,,,,,,2,4,24,1,,,,,,,AMNE17.jpg,AMNE14.jpg,AMSA14.jpg,AMSA07.jpg,AMNE17.jpg,MN,1,num_8,16,num_8,1.01679069106,,,2017_Apr_24_1715,60.0087959313,MAFE4ImagesEEG,001,100187,
AFNE01.JPG,AFNE01.JPG,AFNE01.JPG,AFNE01.JPG,AFNE01.JPG,AFNE01.JPG,,,,,,,,,,,,,,,,,2,5,25,6,,,,,,,AMSA19.jpg,AMNE02.jpg,AMSA16.jpg,AMNE19.jpg,AMNE19.jpg,MN,1,num_4,32,num_2,1.31670643296,,,2017_Apr_24_1715,60.0087959313,MAFE4ImagesEEG,001,100187,
AFNE01.JPG,AFNE01.JPG,AFNE01.JPG,AFNE01.JPG,AFNE01.JPG,AFNE01.JPG,,,,,,,,,,,,,,,,,2,6,26,3,,,,,,,AMNE11.jpg,AMSA19.jpg,AMNE05.jpg,AMSA05.jpg,AMSA19.jpg,MS,2,num_6,16,num_6,1.63344975084,,,2017_Apr_24_1715,60.0087959313,MAFE4ImagesEEG,001,100187,
AFNE01.JPG,AFNE01.JPG,AFNE01.JPG,AFNE01.JPG,AFNE01.JPG,AFNE01.JPG,,,,,,,,,,,,,,,,,2,7,27,0,,,,,,,AMNE14.jpg,AMNE18.jpg,AMSA15.jpg,AMSA02.jpg,AMNE18.jpg,MN,1,num_6,32,num_8,0.750167987077,,,2017_Apr_24_1715,60.0087959313,MAFE4ImagesEEG,001,100187,
AFNE01.JPG,AFNE01.JPG,AFNE01.JPG,AFNE01.JPG,AFNE01.JPG,AFNE01.JPG,,,,,,,,,,,,,,,,,2,8,28,7,,,,,,,AMNE12.jpg,AMNE18.jpg,AMSA12.jpg,AMSA15.jpg,AMNE18.jpg,MN,1,num_6,32,num_2,0.86681020807,,,2017_Apr_24_1715,60.0087959313,MAFE4ImagesEEG,001,100187,
AFNE01.JPG,AFNE01.JPG,AFNE01.JPG,AFNE01.JPG,AFNE01.JPG,AFNE01.JPG,,,,,,,,,,,,,,,,,2,9,29,9,,,,,,,AMSA02.jpg,AMNE05.jpg,AMSA10.jpg,AMNE01.jpg,AMSA02.jpg,MS,2,num_8,16,num_8,0.950175107457,,,2017_Apr_24_1715,60.0087959313,MAFE4ImagesEEG,001,100187,
AFNE01.JPG,AFNE01.JPG,AFNE01.JPG,AFNE01.JPG,AFNE01.JPG,AFNE01.JPG,,,,,,,,,,,,,,,,,3,0,30,6,,,,,,,AMSA10.jpg,AMNE07.jpg,AMNE08.jpg,AMSA19.jpg,AMNE07.jpg,MN,1,num_6,32,num_4,0.7999842196,,,2017_Apr_24_1715,60.0087959313,MAFE4ImagesEEG,001,100187,
AFNE01.JPG,AFNE01.JPG,AFNE01.JPG,AFNE01.JPG,AFNE01.JPG,AFNE01.JPG,,,,,,,,,,,,,,,,,3,1,31,5,,,,,,,AMNE07.jpg,AMSA15.jpg,AMNE19.jpg,AMSA13.jpg,AMSA13.jpg,MS,2,num_4,16,num_4,1.48342628893,,,2017_Apr_24_1715,60.0087959313,MAFE4ImagesEEG,001,100187,
AFNE01.JPG,AFNE01.JPG,AFNE01.JPG,AFNE01.JPG,AFNE01.JPG,AFNE01.JPG,,,,,,,,,,,,,,,,,3,2,32,2,,,,,,,AMSA18.jpg,AMNE06.jpg,AMSA07.jpg,AMNE10.jpg,AMNE06.jpg,MN,1,num_6,32,num_8,1.50014064414,,,2017_Apr_24_1715,60.0087959313,MAFE4ImagesEEG,001,100187,
AFNE01.JPG,AFNE01.JPG,AFNE01.JPG,AFNE01.JPG,AFNE01.JPG,AFNE01.JPG,,,,,,,,,,,,,,,,,3,3,33,0,,,,,,,AMSA19.jpg,AMNE19.jpg,AMNE02.jpg,AMSA01.jpg,AMNE19.jpg,MN,1,num_6,32,num_4,1.01665020746,,,2017_Apr_24_1715,60.0087959313,MAFE4ImagesEEG,001,100187,
AFNE01.JPG,AFNE01.JPG,AFNE01.JPG,AFNE01.JPG,AFNE01.JPG,AFNE01.JPG,,,,,,,,,,,,,,,,,3,4,34,1,,,,,,,AMSA17.jpg,AMSA07.jpg,AMNE12.jpg,AMNE14.jpg,AMNE14.jpg,MN,1,num_4,32,num_6,0.716809197795,,,2017_Apr_24_1715,60.0087959313,MAFE4ImagesEEG,001,100187,
AFNE01.JPG,AFNE01.JPG,AFNE01.JPG,AFNE01.JPG,AFNE01.JPG,AFNE01.JPG,,,,,,,,,,,,,,,,,3,5,35,8,,,,,,,AMNE04.jpg,AMNE01.jpg,AMSA02.jpg,AMSA16.jpg,AMNE04.jpg,MN,1,num_8,32,num_4,0.816780042602,,,2017_Apr_24_1715,60.0087959313,MAFE4ImagesEEG,001,100187,
AFNE01.JPG,AFNE01.JPG,AFNE01.JPG,AFNE01.JPG,AFNE01.JPG,AFNE01.JPG,,,,,,,,,,,,,,,,,3,6,36,9,,,,,,,AMNE01.jpg,AMSA06.jpg,AMSA01.jpg,AMNE02.jpg,AMSA01.jpg,MS,2,num_2,16,num_2,0.450164042064,,,2017_Apr_24_1715,60.0087959313,MAFE4ImagesEEG,001,100187,
AFNE01.JPG,AFNE01.JPG,AFNE01.JPG,AFNE01.JPG,AFNE01.JPG,AFNE01.JPG,,,,,,,,,,,,,,,,,3,7,37,7,,,,,,,AMNE18.jpg,AMSA13.jpg,AMNE13.jpg,AMSA03.jpg,AMSA03.jpg,MS,2,num_4,32,num_2,0.516818435048,,,2017_Apr_24_1715,60.0087959313,MAFE4ImagesEEG,001,100187,
AFNE01.JPG,AFNE01.JPG,AFNE01.JPG,AFNE01.JPG,AFNE01.JPG,AFNE01.JPG,,,,,,,,,,,,,,,,,3,8,38,4,,,,,,,AMNE19.jpg,AMNE13.jpg,AMSA13.jpg,AMSA01.jpg,AMNE13.jpg,MN,1,num_6,32,num_8,0.683328527492,,,2017_Apr_24_1715,60.0087959313,MAFE4ImagesEEG,001,100187,
AFNE01.JPG,AFNE01.JPG,AFNE01.JPG,AFNE01.JPG,AFNE01.JPG,AFNE01.JPG,,,,,,,,,,,,,,,,,3,9,39,3,,,,,,,AMSA08.jpg,AMNE01.jpg,AMNE15.jpg,AMSA06.jpg,AMNE15.jpg,MN,1,num_2,16,num_2,1.08330844925,,,2017_Apr_24_1715,60.0087959313,MAFE4ImagesEEG,001,100187,
AFNE01.JPG,AFNE01.JPG,AFNE01.JPG,AFNE01.JPG,AFNE01.JPG,AFNE01.JPG,,,,,,,,,,,,,,,,,4,0,40,8,,,,,,,AMSA19.jpg,AMSA18.jpg,AMNE15.jpg,AMNE13.jpg,AMNE13.jpg,MN,1,num_4,32,num_6,0.900141093181,,,2017_Apr_24_1715,60.0087959313,MAFE4ImagesEEG,001,100187,
AFNE01.JPG,AFNE01.JPG,AFNE01.JPG,AFNE01.JPG,AFNE01.JPG,AFNE01.JPG,,,,,,,,,,,,,,,,,4,1,41,1,,,,,,,AMNE05.jpg,AMSA17.jpg,AMSA10.jpg,AMNE19.jpg,AMNE19.jpg,MN,1,num_4,16,num_4,0.733495969442,,,2017_Apr_24_1715,60.0087959313,MAFE4ImagesEEG,001,100187,
AFNE01.JPG,AFNE01.JPG,AFNE01.JPG,AFNE01.JPG,AFNE01.JPG,AFNE01.JPG,,,,,,,,,,,,,,,,,4,2,42,5,,,,,,,AMNE14.jpg,AMSA18.jpg,AMNE08.jpg,AMSA12.jpg,AMNE14.jpg,MN,1,num_8,32,num_2,1.00014240819,,,2017_Apr_24_1715,60.0087959313,MAFE4ImagesEEG,001,100187,
AFNE01.JPG,AFNE01.JPG,AFNE01.JPG,AFNE01.JPG,AFNE01.JPG,AFNE01.JPG,,,,,,,,,,,,,,,,,4,3,43,4,,,,,,,AMSA14.jpg,AMNE19.jpg,AMNE17.jpg,AMSA06.jpg,AMSA14.jpg,MS,2,num_8,16,num_8,0.933449847158,,,2017_Apr_24_1715,60.0087959313,MAFE4ImagesEEG,001,100187,
AFNE01.JPG,AFNE01.JPG,AFNE01.JPG,AFNE01.JPG,AFNE01.JPG,AFNE01.JPG,,,,,,,,,,,,,,,,,4,4,44,7,,,,,,,AMNE16.jpg,AMSA09.jpg,AMSA13.jpg,AMNE17.jpg,AMNE16.jpg,MN,1,num_8,16,num_8,1.4001851948,,,2017_Apr_24_1715,60.0087959313,MAFE4ImagesEEG,001,100187,
AFNE01.JPG,AFNE01.JPG,AFNE01.JPG,AFNE01.JPG,AFNE01.JPG,AFNE01.JPG,,,,,,,,,,,,,,,,,4,5,45,2,,,,,,,AMNE05.jpg,AMNE12.jpg,AMSA03.jpg,AMSA16.jpg,AMNE12.jpg,MN,1,num_6,32,num_4,1.26674522646,,,2017_Apr_24_1715,60.0087959313,MAFE4ImagesEEG,001,100187,
AFNE01.JPG,AFNE01.JPG,AFNE01.JPG,AFNE01.JPG,AFNE01.JPG,AFNE01.JPG,,,,,,,,,,,,,,,,,4,6,46,6,,,,,,,AMSA03.jpg,AMNE02.jpg,AMSA08.jpg,AMNE10.jpg,AMNE02.jpg,MN,1,num_6,32,num_8,1.89992748096,,,2017_Apr_24_1715,60.0087959313,MAFE4ImagesEEG,001,100187,
AFNE01.JPG,AFNE01.JPG,AFNE01.JPG,AFNE01.JPG,AFNE01.JPG,AFNE01.JPG,,,,,,,,,,,,,,,,,4,7,47,3,,,,,,,AMSA10.jpg,AMSA03.jpg,AMNE06.jpg,AMNE09.jpg,AMNE06.jpg,MN,1,num_2,32,num_4,0.833453022526,,,2017_Apr_24_1715,60.0087959313,MAFE4ImagesEEG,001,100187,
AFNE01.JPG,AFNE01.JPG,AFNE01.JPG,AFNE01.JPG,AFNE01.JPG,AFNE01.JPG,,,,,,,,,,,,,,,,,4,8,48,0,,,,,,,AMSA04.jpg,AMNE03.jpg,AMSA01.jpg,AMNE13.jpg,AMSA04.jpg,MS,2,num_8,32,num_2,0.716588529292,,,2017_Apr_24_1715,60.0087959313,MAFE4ImagesEEG,001,100187,
AFNE01.JPG,AFNE01.JPG,AFNE01.JPG,AFNE01.JPG,AFNE01.JPG,AFNE01.JPG,,,,,,,,,,,,,,,,,4,9,49,9,,,,,,,AMNE14.jpg,AMNE02.jpg,AMSA17.jpg,AMSA02.jpg,AMNE02.jpg,MN,1,num_6,32,num_2,2.06639683957,,,2017_Apr_24_1715,60.0087959313,MAFE4ImagesEEG,001,100187,
AFNE01.JPG,AFNE01.JPG,AFNE01.JPG,AFNE01.JPG,AFNE01.JPG,AFNE01.JPG,,,,,,,,,,,,,,,,,5,0,50,7,,,,,,,AMNE05.jpg,AMSA02.jpg,AMSA07.jpg,AMNE09.jpg,AMNE05.jpg,MN,1,num_8,32,num_4,0.950110959704,,,2017_Apr_24_1715,60.0087959313,MAFE4ImagesEEG,001,100187,
AFNE01.JPG,AFNE01.JPG,AFNE01.JPG,AFNE01.JPG,AFNE01.JPG,AFNE01.JPG,,,,,,,,,,,,,,,,,5,1,51,9,,,,,,,AMSA01.jpg,AMSA09.jpg,AMNE14.jpg,AMNE18.jpg,AMSA09.jpg,MS,2,num_6,16,num_6,1.38349970605,,,2017_Apr_24_1715,60.0087959313,MAFE4ImagesEEG,001,100187,
AFNE01.JPG,AFNE01.JPG,AFNE01.JPG,AFNE01.JPG,AFNE01.JPG,AFNE01.JPG,,,,,,,,,,,,,,,,,5,2,52,0,,,,,,,AMNE07.jpg,AMNE03.jpg,AMSA17.jpg,AMSA16.jpg,AMNE07.jpg,MN,1,num_8,16,num_8,1.33338037506,,,2017_Apr_24_1715,60.0087959313,MAFE4ImagesEEG,001,100187,
AFNE01.JPG,AFNE01.JPG,AFNE01.JPG,AFNE01.JPG,AFNE01.JPG,AFNE01.JPG,,,,,,,,,,,,,,,,,5,3,53,4,,,,,,,AMNE12.jpg,AMSA20.jpg,AMNE01.jpg,AMSA08.jpg,AMSA20.jpg,MS,2,num_6,16,num_6,0.883468113258,,,2017_Apr_24_1715,60.0087959313,MAFE4ImagesEEG,001,100187,
AFNE01.JPG,AFNE01.JPG,AFNE01.JPG,AFNE01.JPG,AFNE01.JPG,AFNE01.JPG,,,,,,,,,,,,,,,,,5,4,54,5,,,,,,,AMSA11.jpg,AMNE14.jpg,AMNE07.jpg,AMSA16.jpg,AMSA16.jpg,MS,2,num_4,32,num_8,1.11680226983,,,2017_Apr_24_1715,60.0087959313,MAFE4ImagesEEG,001,100187,
AFNE01.JPG,AFNE01.JPG,AFNE01.JPG,AFNE01.JPG,AFNE01.JPG,AFNE01.JPG,,,,,,,,,,,,,,,,,5,5,55,8,,,,,,,AMNE05.jpg,AMNE15.jpg,AMSA09.jpg,AMSA08.jpg,AMSA09.jpg,MS,2,num_2,32,num_6,1.08345631009,,,2017_Apr_24_1715,60.0087959313,MAFE4ImagesEEG,001,100187,
AFNE01.JPG,AFNE01.JPG,AFNE01.JPG,AFNE01.JPG,AFNE01.JPG,AFNE01.JPG,,,,,,,,,,,,,,,,,5,6,56,1,,,,,,,AMNE06.jpg,AMSA02.jpg,AMNE12.jpg,AMSA16.jpg,AMSA02.jpg,MS,2,num_6,32,num_4,0.81674668577,,,2017_Apr_24_1715,60.0087959313,MAFE4ImagesEEG,001,100187,
AFNE01.JPG,AFNE01.JPG,AFNE01.JPG,AFNE01.JPG,AFNE01.JPG,AFNE01.JPG,,,,,,,,,,,,,,,,,5,7,57,6,,,,,,,AMNE08.jpg,AMNE09.jpg,AMSA04.jpg,AMSA06.jpg,AMNE09.jpg,MN,1,num_6,16,num_6,0.633397149737,,,2017_Apr_24_1715,60.0087959313,MAFE4ImagesEEG,001,100187,
AFNE01.JPG,AFNE01.JPG,AFNE01.JPG,AFNE01.JPG,AFNE01.JPG,AFNE01.JPG,,,,,,,,,,,,,,,,,5,8,58,2,,,,,,,AMNE08.jpg,AMSA06.jpg,AMNE03.jpg,AMSA09.jpg,AMSA06.jpg,MS,2,num_6,16,num_6,0.700100295129,,,2017_Apr_24_1715,60.0087959313,MAFE4ImagesEEG,001,100187,
AFNE01.JPG,AFNE01.JPG,AFNE01.JPG,AFNE01.JPG,AFNE01.JPG,AFNE01.JPG,,,,,,,,,,,,,,,,,5,9,59,3,,,,,,,AMNE16.jpg,AMNE12.jpg,AMSA19.jpg,AMSA14.jpg,AMNE16.jpg,MN,1,num_8,32,num_2,1.70007495675,,,2017_Apr_24_1715,60.0087959313,MAFE4ImagesEEG,001,100187,
,,,,,,,,,,,,,,,,,,,,,,,,,,,,,,,,,,,,,,,,,,,space,38.0804926809,2017_Apr_24_1715,60.0087959313,MAFE4ImagesEEG,001,100187,
AFNE01.JPG,AFNE01.JPG,AFNE01.JPG,AFNE01.JPG,AFNE01.JPG,AFNE01.JPG,,,,,,,,,,,,,,,,,,,,,0,0,0,7,,,AFSA13.jpg,AFNE16.jpg,AFSA14.jpg,AFNE07.jpg,AFNE16.jpg,FN,3,num_6,32,num_8,1.15014726738,,,2017_Apr_24_1715,60.0087959313,MAFE4ImagesEEG,001,100187,
AFNE01.JPG,AFNE01.JPG,AFNE01.JPG,AFNE01.JPG,AFNE01.JPG,AFNE01.JPG,,,,,,,,,,,,,,,,,,,,,0,1,1,8,,,AFSA13.jpg,AFSA15.jpg,AFNE08.jpg,AFNE14.jpg,AFNE08.jpg,FN,3,num_2,32,num_4,2.15002089611,,,2017_Apr_24_1715,60.0087959313,MAFE4ImagesEEG,001,100187,
AFNE01.JPG,AFNE01.JPG,AFNE01.JPG,AFNE01.JPG,AFNE01.JPG,AFNE01.JPG,,,,,,,,,,,,,,,,,,,,,0,2,2,1,,,AFSA17.jpg,AFSA10.jpg,AFNE04.jpg,AFNE03.jpg,AFSA17.jpg,FS,4,num_8,32,num_2,1.2831956133,,,2017_Apr_24_1715,60.0087959313,MAFE4ImagesEEG,001,100187,
AFNE01.JPG,AFNE01.JPG,AFNE01.JPG,AFNE01.JPG,AFNE01.JPG,AFNE01.JPG,,,,,,,,,,,,,,,,,,,,,0,3,3,5,,,AFSA17.jpg,AFNE18.jpg,AFNE05.jpg,AFSA10.jpg,AFSA17.jpg,FS,4,num_8,16,num_8,0.61678607238,,,2017_Apr_24_1715,60.0087959313,MAFE4ImagesEEG,001,100187,
AFNE01.JPG,AFNE01.JPG,AFNE01.JPG,AFNE01.JPG,AFNE01.JPG,AFNE01.JPG,,,,,,,,,,,,,,,,,,,,,0,4,4,6,,,AFNE09.jpg,AFSA01.jpg,AFNE12.jpg,AFSA06.jpg,AFSA01.jpg,FS,4,num_6,32,num_4,0.883534827037,,,2017_Apr_24_1715,60.0087959313,MAFE4ImagesEEG,001,100187,
AFNE01.JPG,AFNE01.JPG,AFNE01.JPG,AFNE01.JPG,AFNE01.JPG,AFNE01.JPG,,,,,,,,,,,,,,,,,,,,,0,5,5,3,,,AFSA12.jpg,AFNE09.jpg,AFNE10.jpg,AFSA15.jpg,AFSA15.jpg,FS,4,num_4,32,num_8,1.45012298739,,,2017_Apr_24_1715,60.0087959313,MAFE4ImagesEEG,001,100187,
AFNE01.JPG,AFNE01.JPG,AFNE01.JPG,AFNE01.JPG,AFNE01.JPG,AFNE01.JPG,,,,,,,,,,,,,,,,,,,,,0,6,6,9,,,AFSA17.jpg,AFSA14.jpg,AFNE07.jpg,AFNE20.jpg,AFSA17.jpg,FS,4,num_8,16,num_8,0.78350079665,,,2017_Apr_24_1715,60.0087959313,MAFE4ImagesEEG,001,100187,
AFNE01.JPG,AFNE01.JPG,AFNE01.JPG,AFNE01.JPG,AFNE01.JPG,AFNE01.JPG,,,,,,,,,,,,,,,,,,,,,0,7,7,2,,,AFNE20.jpg,AFNE04.jpg,AFSA14.jpg,AFSA12.jpg,AFSA14.jpg,FS,4,num_2,32,num_4,1.61658047873,,,2017_Apr_24_1715,60.0087959313,MAFE4ImagesEEG,001,100187,
AFNE01.JPG,AFNE01.JPG,AFNE01.JPG,AFNE01.JPG,AFNE01.JPG,AFNE01.JPG,,,,,,,,,,,,,,,,,,,,,0,8,8,0,,,AFSA01.jpg,AFNE20.jpg,AFSA08.jpg,AFNE18.jpg,AFSA01.jpg,FS,4,num_8,16,num_8,1.2665996108,,,2017_Apr_24_1715,60.0087959313,MAFE4ImagesEEG,001,100187,
AFNE01.JPG,AFNE01.JPG,AFNE01.JPG,AFNE01.JPG,AFNE01.JPG,AFNE01.JPG,,,,,,,,,,,,,,,,,,,,,0,9,9,4,,,AFNE15.jpg,AFNE19.jpg,AFSA10.jpg,AFSA09.jpg,AFNE15.jpg,FN,3,num_8,32,num_2,1.25015531795,,,2017_Apr_24_1715,60.0087959313,MAFE4ImagesEEG,001,100187,
AFNE01.JPG,AFNE01.JPG,AFNE01.JPG,AFNE01.JPG,AFNE01.JPG,AFNE01.JPG,,,,,,,,,,,,,,,,,,,,,1,0,10,6,,,AFSA08.jpg,AFNE04.jpg,AFNE11.jpg,AFSA11.jpg,AFNE04.jpg,FN,3,num_6,32,num_4,1.66670750745,,,2017_Apr_24_1715,60.0087959313,MAFE4ImagesEEG,001,100187,
AFNE01.JPG,AFNE01.JPG,AFNE01.JPG,AFNE01.JPG,AFNE01.JPG,AFNE01.JPG,,,,,,,,,,,,,,,,,,,,,1,1,11,3,,,AFNE06.jpg,AFSA18.jpg,AFSA05.jpg,AFNE13.jpg,AFNE06.jpg,FN,3,num_8,32,num_2,1.90009747271,,,2017_Apr_24_1715,60.0087959313,MAFE4ImagesEEG,001,100187,
AFNE01.JPG,AFNE01.JPG,AFNE01.JPG,AFNE01.JPG,AFNE01.JPG,AFNE01.JPG,,,,,,,,,,,,,,,,,,,,,1,2,12,5,,,AFNE19.jpg,AFSA06.jpg,AFSA14.jpg,AFNE11.jpg,AFSA14.jpg,FS,4,num_2,32,num_8,1.05008597416,,,2017_Apr_24_1715,60.0087959313,MAFE4ImagesEEG,001,100187,
AFNE01.JPG,AFNE01.JPG,AFNE01.JPG,AFNE01.JPG,AFNE01.JPG,AFNE01.JPG,,,,,,,,,,,,,,,,,,,,,1,3,13,2,,,AFSA11.jpg,AFNE09.jpg,AFNE03.jpg,AFSA15.jpg,AFSA11.jpg,FS,4,num_8,32,num_2,1.88337413676,,,2017_Apr_24_1715,60.0087959313,MAFE4ImagesEEG,001,100187,
AFNE01.JPG,AFNE01.JPG,AFNE01.JPG,AFNE01.JPG,AFNE01.JPG,AFNE01.JPG,,,,,,,,,,,,,,,,,,,,,1,4,14,0,,,AFSA08.jpg,AFSA18.jpg,AFNE15.jpg,AFNE14.jpg,AFNE15.jpg,FN,3,num_2,32,num_8,0.800154211349,,,2017_Apr_24_1715,60.0087959313,MAFE4ImagesEEG,001,100187,
AFNE01.JPG,AFNE01.JPG,AFNE01.JPG,AFNE01.JPG,AFNE01.JPG,AFNE01.JPG,,,,,,,,,,,,,,,,,,,,,1,5,15,8,,,AFNE08.jpg,AFSA12.jpg,AFSA08.jpg,AFNE19.jpg,AFSA08.jpg,FS,4,num_2,16,num_2,0.916752811871,,,2017_Apr_24_1715,60.0087959313,MAFE4ImagesEEG,001,100187,
AFNE01.JPG,AFNE01.JPG,AFNE01.JPG,AFNE01.JPG,AFNE01.JPG,AFNE01.JPG,,,,,,,,,,,,,,,,,,,,,1,6,16,4,,,AFNE18.jpg,AFSA03.jpg,AFNE01.jpg,AFSA12.jpg,AFSA03.jpg,FS,4,num_6,32,num_8,0.816758873872,,,2017_Apr_24_1715,60.0087959313,MAFE4ImagesEEG,001,100187,
AFNE01.JPG,AFNE01.JPG,AFNE01.JPG,AFNE01.JPG,AFNE01.JPG,AFNE01.JPG,,,,,,,,,,,,,,,,,,,,,1,7,17,9,,,AFSA10.jpg,AFNE08.jpg,AFSA15.jpg,AFNE03.jpg,AFSA15.jpg,FS,4,num_2,16,num_2,1.00011835282,,,2017_Apr_24_1715,60.0087959313,MAFE4ImagesEEG,001,100187,
AFNE01.JPG,AFNE01.JPG,AFNE01.JPG,AFNE01.JPG,AFNE01.JPG,AFNE01.JPG,,,,,,,,,,,,,,,,,,,,,1,8,18,1,,,AFNE04.jpg,AFNE05.jpg,AFSA15.jpg,AFSA10.jpg,AFNE05.jpg,FN,3,num_6,32,num_2,1.08346336626,,,2017_Apr_24_1715,60.0087959313,MAFE4ImagesEEG,001,100187,
AFNE01.JPG,AFNE01.JPG,AFNE01.JPG,AFNE01.JPG,AFNE01.JPG,AFNE01.JPG,,,,,,,,,,,,,,,,,,,,,1,9,19,7,,,AFSA18.jpg,AFSA08.jpg,AFNE17.jpg,AFNE01.jpg,AFSA08.jpg,FS,4,num_6,32,num_8,1.16671344102,,,2017_Apr_24_1715,60.0087959313,MAFE4ImagesEEG,001,100187,
AFNE01.JPG,AFNE01.JPG,AFNE01.JPG,AFNE01.JPG,AFNE01.JPG,AFNE01.JPG,,,,,,,,,,,,,,,,,,,,,2,0,20,6,,,AFNE10.jpg,AFNE11.jpg,AFSA19.jpg,AFSA11.jpg,AFNE10.jpg,FN,3,num_8,32,num_4,2.21668651502,,,2017_Apr_24_1715,60.0087959313,MAFE4ImagesEEG,001,100187,
AFNE01.JPG,AFNE01.JPG,AFNE01.JPG,AFNE01.JPG,AFNE01.JPG,AFNE01.JPG,,,,,,,,,,,,,,,,,,,,,2,1,21,4,,,AFSA04.jpg,AFSA13.jpg,AFNE19.jpg,AFNE05.jpg,AFSA04.jpg,FS,4,num_8,32,num_6,1.01677625778,,,2017_Apr_24_1715,60.0087959313,MAFE4ImagesEEG,001,100187,
AFNE01.JPG,AFNE01.JPG,AFNE01.JPG,AFNE01.JPG,AFNE01.JPG,AFNE01.JPG,,,,,,,,,,,,,,,,,,,,,2,2,22,7,,,AFNE12.jpg,AFSA13.jpg,AFSA02.jpg,AFNE02.jpg,AFNE12.jpg,FN,3,num_8,32,num_2,1.1334053285,,,2017_Apr_24_1715,60.0087959313,MAFE4ImagesEEG,001,100187,
AFNE01.JPG,AFNE01.JPG,AFNE01.JPG,AFNE01.JPG,AFNE01.JPG,AFNE01.JPG,,,,,,,,,,,,,,,,,,,,,2,3,23,5,,,AFNE09.jpg,AFSA03.jpg,AFNE08.jpg,AFSA14.jpg,AFNE08.jpg,FN,3,num_2,32,num_8,1.16649277264,,,2017_Apr_24_1715,60.0087959313,MAFE4ImagesEEG,001,100187,
AFNE01.JPG,AFNE01.JPG,AFNE01.JPG,AFNE01.JPG,AFNE01.JPG,AFNE01.JPG,,,,,,,,,,,,,,,,,,,,,2,4,24,9,,,AFNE06.jpg,AFSA15.jpg,AFNE18.jpg,AFSA01.jpg,AFSA01.jpg,FS,4,num_4,32,num_6,0.783467118978,,,2017_Apr_24_1715,60.0087959313,MAFE4ImagesEEG,001,100187,
AFNE01.JPG,AFNE01.JPG,AFNE01.JPG,AFNE01.JPG,AFNE01.JPG,AFNE01.JPG,,,,,,,,,,,,,,,,,,,,,2,5,25,8,,,AFSA18.jpg,AFSA03.jpg,AFNE20.jpg,AFNE14.jpg,AFNE14.jpg,FN,3,num_4,32,num_8,1.08341589698,,,2017_Apr_24_1715,60.0087959313,MAFE4ImagesEEG,001,100187,
AFNE01.JPG,AFNE01.JPG,AFNE01.JPG,AFNE01.JPG,AFNE01.JPG,AFNE01.JPG,,,,,,,,,,,,,,,,,,,,,2,6,26,0,,,AFNE04.jpg,AFSA02.jpg,AFSA11.jpg,AFNE01.jpg,AFSA02.jpg,FS,4,num_6,32,num_4,1.41673340718,,,2017_Apr_24_1715,60.0087959313,MAFE4ImagesEEG,001,100187,
AFNE01.JPG,AFNE01.JPG,AFNE01.JPG,AFNE01.JPG,AFNE01.JPG,AFNE01.JPG,,,,,,,,,,,,,,,,,,,,,2,7,27,1,,,AFSA13.jpg,AFNE08.jpg,AFSA12.jpg,AFNE12.jpg,AFNE12.jpg,FN,3,num_4,16,num_4,0.783472250798,,,2017_Apr_24_1715,60.0087959313,MAFE4ImagesEEG,001,100187,
AFNE01.JPG,AFNE01.JPG,AFNE01.JPG,AFNE01.JPG,AFNE01.JPG,AFNE01.JPG,,,,,,,,,,,,,,,,,,,,,2,8,28,3,,,AFSA01.jpg,AFNE05.jpg,AFSA09.jpg,AFNE20.jpg,AFNE05.jpg,FN,3,num_6,16,num_6,0.900077907485,,,2017_Apr_24_1715,60.0087959313,MAFE4ImagesEEG,001,100187,
AFNE01.JPG,AFNE01.JPG,AFNE01.JPG,AFNE01.JPG,AFNE01.JPG,AFNE01.JPG,,,,,,,,,,,,,,,,,,,,,2,9,29,2,,,AFSA18.jpg,AFNE08.jpg,AFNE17.jpg,AFSA08.jpg,AFNE08.jpg,FN,3,num_6,16,num_6,0.750141365803,,,2017_Apr_24_1715,60.0087959313,MAFE4ImagesEEG,001,100187,
AFNE01.JPG,AFNE01.JPG,AFNE01.JPG,AFNE01.JPG,AFNE01.JPG,AFNE01.JPG,,,,,,,,,,,,,,,,,,,,,3,0,30,4,,,AFSA05.jpg,AFNE04.jpg,AFNE12.jpg,AFSA15.jpg,AFNE04.jpg,FN,3,num_6,32,num_4,1.11672625458,,,2017_Apr_24_1715,60.0087959313,MAFE4ImagesEEG,001,100187,
AFNE01.JPG,AFNE01.JPG,AFNE01.JPG,AFNE01.JPG,AFNE01.JPG,AFNE01.JPG,,,,,,,,,,,,,,,,,,,,,3,1,31,0,,,AFNE17.jpg,AFSA12.jpg,AFSA17.jpg,AFNE13.jpg,AFNE17.jpg,FN,3,num_8,32,num_4,1.58340675593,,,2017_Apr_24_1715,60.0087959313,MAFE4ImagesEEG,001,100187,
AFNE01.JPG,AFNE01.JPG,AFNE01.JPG,AFNE01.JPG,AFNE01.JPG,AFNE01.JPG,,,,,,,,,,,,,,,,,,,,,3,2,32,7,,,AFSA10.jpg,AFNE17.jpg,AFSA09.jpg,AFNE16.jpg,AFSA10.jpg,FS,4,num_8,32,num_6,1.46673149872,,,2017_Apr_24_1715,60.0087959313,MAFE4ImagesEEG,001,100187,
AFNE01.JPG,AFNE01.JPG,AFNE01.JPG,AFNE01.JPG,AFNE01.JPG,AFNE01.JPG,,,,,,,,,,,,,,,,,,,,,3,3,33,5,,,AFSA12.jpg,AFSA15.jpg,AFNE19.jpg,AFNE07.jpg,AFNE07.jpg,FN,3,num_4,16,num_4,0.683499802253,,,2017_Apr_24_1715,60.0087959313,MAFE4ImagesEEG,001,100187,
AFNE01.JPG,AFNE01.JPG,AFNE01.JPG,AFNE01.JPG,AFNE01.JPG,AFNE01.JPG,,,,,,,,,,,,,,,,,,,,,3,4,34,3,,,AFNE15.jpg,AFNE02.jpg,AFSA04.jpg,AFSA06.jpg,AFSA06.jpg,FS,4,num_4,32,num_6,0.966510028346,,,2017_Apr_24_1715,60.0087959313,MAFE4ImagesEEG,001,100187,
AFNE01.JPG,AFNE01.JPG,AFNE01.JPG,AFNE01.JPG,AFNE01.JPG,AFNE01.JPG,,,,,,,,,,,,,,,,,,,,,3,5,35,1,,,AFNE07.jpg,AFSA17.jpg,AFSA18.jpg,AFNE11.jpg,AFSA18.jpg,FS,4,num_2,16,num_2,1.05003690103,,,2017_Apr_24_1715,60.0087959313,MAFE4ImagesEEG,001,100187,
AFNE01.JPG,AFNE01.JPG,AFNE01.JPG,AFNE01.JPG,AFNE01.JPG,AFNE01.JPG,,,,,,,,,,,,,,,,,,,,,3,6,36,9,,,AFSA05.jpg,AFNE06.jpg,AFNE02.jpg,AFSA09.jpg,AFSA09.jpg,FS,4,num_4,32,num_8,1.78338436829,,,2017_Apr_24_1715,60.0087959313,MAFE4ImagesEEG,001,100187,
AFNE01.JPG,AFNE01.JPG,AFNE01.JPG,AFNE01.JPG,AFNE01.JPG,AFNE01.JPG,,,,,,,,,,,,,,,,,,,,,3,7,37,2,,,AFSA17.jpg,AFNE07.jpg,AFNE13.jpg,AFSA20.jpg,AFNE07.jpg,FN,3,num_6,16,num_6,0.800117326318,,,2017_Apr_24_1715,60.0087959313,MAFE4ImagesEEG,001,100187,
AFNE01.JPG,AFNE01.JPG,AFNE01.JPG,AFNE01.JPG,AFNE01.JPG,AFNE01.JPG,,,,,,,,,,,,,,,,,,,,,3,8,38,8,,,AFSA01.jpg,AFNE13.jpg,AFNE01.jpg,AFSA19.jpg,AFSA01.jpg,FS,4,num_8,32,num_4,1.03346912353,,,2017_Apr_24_1715,60.0087959313,MAFE4ImagesEEG,001,100187,
AFNE01.JPG,AFNE01.JPG,AFNE01.JPG,AFNE01.JPG,AFNE01.JPG,AFNE01.JPG,,,,,,,,,,,,,,,,,,,,,3,9,39,6,,,AFSA15.jpg,AFNE04.jpg,AFSA09.jpg,AFNE05.jpg,AFSA15.jpg,FS,4,num_8,32,num_2,1.20014600037,,,2017_Apr_24_1715,60.0087959313,MAFE4ImagesEEG,001,100187,
