IPosition2,IPosition3,IPosition1,IPosition6,IPosition4,IPosition5,TrialsM1.thisRepN,TrialsM1.thisTrialN,TrialsM1.thisN,TrialsM1.thisIndex,TrialsF1.thisRepN,TrialsF1.thisTrialN,TrialsF1.thisN,TrialsF1.thisIndex,TrialsM2.thisRepN,TrialsM2.thisTrialN,TrialsM2.thisN,TrialsM2.thisIndex,TrialsF2.thisRepN,TrialsF2.thisTrialN,TrialsF2.thisN,TrialsF2.thisIndex,TrialsM3.thisRepN,TrialsM3.thisTrialN,TrialsM3.thisN,TrialsM3.thisIndex,TrialsF3.thisRepN,TrialsF3.thisTrialN,TrialsF3.thisN,TrialsF3.thisIndex,InstrKey_resp.keys,InstrKey_resp.rt,Image0 _Position,Image1 _Position,Image2 _Position,Image3 _Position,Center_image,condition,code,correct_answer,accuracy,Key_Resp.keys,Key_Resp.rt,BreakKey_resp.keys,BreakKey_resp.rt,date,frameRate,expName,session,participant,
,,,,,,,,,,,,,,,,,,,,,,,,,,,,,,space,18.6657382324,,,,,,,,,,,,,,2017_Apr_13_1910,60.007179009,MAFE4ImagesEEG,001,100136,
AFSA21.JPG,AFNE23.JPG,AFNE21.JPG,AFSA25.JPG,AFNE25.JPG,AFSA23.JPG,0,0,0,4,,,,,,,,,,,,,,,,,,,,,,,AMNE15.jpg,AMSA07.jpg,AMSA05.jpg,AMNE09.jpg,AMSA07.jpg,MS,2,num_6,48,None,,,,2017_Apr_13_1910,60.007179009,MAFE4ImagesEEG,001,100136,
AMNE22.JPG,AMSA24.JPG,AMSA22.JPG,AMNE25.JPG,AMNE24.JPG,AMSA25.JPG,0,1,1,7,,,,,,,,,,,,,,,,,,,,,,,AMSA20.jpg,AMSA18.jpg,AMNE18.jpg,AMNE17.jpg,AMSA20.jpg,MS,2,num_8,32,num_2,4.54982643155,,,2017_Apr_13_1910,60.007179009,MAFE4ImagesEEG,001,100136,
AFNE22.JPG,AFSA24.JPG,AFSA22.JPG,AFNE25.JPG,AFNE24.JPG,AFSA25.JPG,0,2,2,6,,,,,,,,,,,,,,,,,,,,,,,AMNE16.jpg,AMSA05.jpg,AMSA09.jpg,AMNE13.jpg,AMNE16.jpg,MN,1,num_8,48,None,,,,2017_Apr_13_1910,60.007179009,MAFE4ImagesEEG,001,100136,
AMSA25.JPG,AMNE24.JPG,AMSA24.JPG,AMNE26.JPG,AMSA21.JPG,AMNE25.JPG,0,3,3,3,,,,,,,,,,,,,,,,,,,,,,,AMNE08.jpg,AMNE16.jpg,AMSA20.jpg,AMSA18.jpg,AMSA20.jpg,MS,2,num_2,48,None,,,,2017_Apr_13_1910,60.007179009,MAFE4ImagesEEG,001,100136,
AMSA21.JPG,AMNE23.JPG,AMNE21.JPG,AMSA25.JPG,AMNE25.JPG,AMSA23.JPG,0,4,4,5,,,,,,,,,,,,,,,,,,,,,,,AMNE10.jpg,AMSA03.jpg,AMSA19.jpg,AMNE15.jpg,AMNE15.jpg,MN,1,num_4,48,None,,,,2017_Apr_13_1910,60.007179009,MAFE4ImagesEEG,001,100136,
AFSA25.JPG,AFNE24.JPG,AFSA24.JPG,AFNE21.JPG,AFSA21.JPG,AFNE25.JPG,0,5,5,2,,,,,,,,,,,,,,,,,,,,,,,AMNE09.jpg,AMSA07.jpg,AMNE10.jpg,AMSA16.jpg,AMSA16.jpg,MS,2,num_4,48,None,,,,2017_Apr_13_1910,60.007179009,MAFE4ImagesEEG,001,100136,
AMSA21.JPG,AMNE22.JPG,AMNE21.JPG,AMSA23.JPG,AMSA22.JPG,AMNE23.JPG,0,6,6,1,,,,,,,,,,,,,,,,,,,,,,,AMNE02.jpg,AMSA12.jpg,AMNE19.jpg,AMSA02.jpg,AMNE19.jpg,MN,1,num_2,48,None,,,,2017_Apr_13_1910,60.007179009,MAFE4ImagesEEG,001,100136,
AFNE23.JPG,AFNE24.JPG,AFNE22.JPG,AFSA24.JPG,AFSA22.JPG,AFSA23.JPG,0,7,7,8,,,,,,,,,,,,,,,,,,,,,,,AMSA12.jpg,AMNE19.jpg,AMNE02.jpg,AMSA16.jpg,AMSA12.jpg,MS,2,num_8,48,None,,,,2017_Apr_13_1910,60.007179009,MAFE4ImagesEEG,001,100136,
AMNE23.JPG,AMNE24.JPG,AMNE22.JPG,AMSA24.JPG,AMSA22.JPG,AMSA23.JPG,0,8,8,9,,,,,,,,,,,,,,,,,,,,,,,AMNE20.jpg,AMSA20.jpg,AMSA09.jpg,AMNE06.jpg,AMSA09.jpg,MS,2,num_2,48,None,,,,2017_Apr_13_1910,60.007179009,MAFE4ImagesEEG,001,100136,
AFSA21.JPG,AFNE22.JPG,AFNE21.JPG,AFSA23.JPG,AFSA22.JPG,AFNE23.JPG,0,9,9,0,,,,,,,,,,,,,,,,,,,,,,,AMNE20.jpg,AMSA13.jpg,AMNE13.jpg,AMSA03.jpg,AMSA13.jpg,MS,2,num_6,48,None,,,,2017_Apr_13_1910,60.007179009,MAFE4ImagesEEG,001,100136,
AFSA21.JPG,AFNE22.JPG,AFNE21.JPG,AFSA23.JPG,AFSA22.JPG,AFNE23.JPG,,,,,0,0,0,0,,,,,,,,,,,,,,,,,,,AFSA08.jpg,AFNE02.jpg,AFNE01.jpg,AFSA14.jpg,AFNE01.jpg,FN,3,num_2,48,None,,,,2017_Apr_13_1910,60.007179009,MAFE4ImagesEEG,001,100136,
AMNE22.JPG,AMSA24.JPG,AMSA22.JPG,AMNE25.JPG,AMNE24.JPG,AMSA25.JPG,,,,,0,1,1,7,,,,,,,,,,,,,,,,,,,AFNE13.jpg,AFSA10.jpg,AFNE09.jpg,AFSA19.jpg,AFSA19.jpg,FS,4,num_4,48,None,,,,2017_Apr_13_1910,60.007179009,MAFE4ImagesEEG,001,100136,
AFSA21.JPG,AFNE23.JPG,AFNE21.JPG,AFSA25.JPG,AFNE25.JPG,AFSA23.JPG,,,,,0,2,2,4,,,,,,,,,,,,,,,,,,,AFNE07.jpg,AFSA01.jpg,AFSA19.jpg,AFNE16.jpg,AFNE16.jpg,FN,3,num_4,48,None,,,,2017_Apr_13_1910,60.007179009,MAFE4ImagesEEG,001,100136,
AFNE23.JPG,AFNE24.JPG,AFNE22.JPG,AFSA24.JPG,AFSA22.JPG,AFSA23.JPG,,,,,0,3,3,8,,,,,,,,,,,,,,,,,,,AFNE16.jpg,AFSA17.jpg,AFSA13.jpg,AFNE03.jpg,AFSA17.jpg,FS,4,num_6,48,None,,,,2017_Apr_13_1910,60.007179009,MAFE4ImagesEEG,001,100136,
AMSA21.JPG,AMNE22.JPG,AMNE21.JPG,AMSA23.JPG,AMSA22.JPG,AMNE23.JPG,,,,,0,4,4,1,,,,,,,,,,,,,,,,,,,AFSA18.jpg,AFSA08.jpg,AFNE02.jpg,AFNE01.jpg,AFNE02.jpg,FN,3,num_2,48,None,,,,2017_Apr_13_1910,60.007179009,MAFE4ImagesEEG,001,100136,
AFNE22.JPG,AFSA24.JPG,AFSA22.JPG,AFNE25.JPG,AFNE24.JPG,AFSA25.JPG,,,,,0,5,5,6,,,,,,,,,,,,,,,,,,,AFSA01.jpg,AFNE14.jpg,AFSA04.jpg,AFNE05.jpg,AFNE14.jpg,FN,3,num_6,48,None,,,,2017_Apr_13_1910,60.007179009,MAFE4ImagesEEG,001,100136,
AFSA25.JPG,AFNE24.JPG,AFSA24.JPG,AFNE21.JPG,AFSA21.JPG,AFNE25.JPG,,,,,0,6,6,2,,,,,,,,,,,,,,,,,,,AFNE07.jpg,AFNE06.jpg,AFSA06.jpg,AFSA10.jpg,AFSA10.jpg,FS,4,num_4,48,None,,,,2017_Apr_13_1910,60.007179009,MAFE4ImagesEEG,001,100136,
AMNE23.JPG,AMNE24.JPG,AMNE22.JPG,AMSA24.JPG,AMSA22.JPG,AMSA23.JPG,,,,,0,7,7,9,,,,,,,,,,,,,,,,,,,AFNE14.jpg,AFSA09.jpg,AFSA01.jpg,AFNE01.jpg,AFSA01.jpg,FS,4,num_2,48,None,,,,2017_Apr_13_1910,60.007179009,MAFE4ImagesEEG,001,100136,
AMSA25.JPG,AMNE24.JPG,AMSA24.JPG,AMNE26.JPG,AMSA21.JPG,AMNE25.JPG,,,,,0,8,8,3,,,,,,,,,,,,,,,,,,,AFNE16.jpg,AFSA08.jpg,AFNE02.jpg,AFSA05.jpg,AFNE16.jpg,FN,3,num_8,48,None,,,,2017_Apr_13_1910,60.007179009,MAFE4ImagesEEG,001,100136,
AMSA21.JPG,AMNE23.JPG,AMNE21.JPG,AMSA25.JPG,AMNE25.JPG,AMSA23.JPG,,,,,0,9,9,5,,,,,,,,,,,,,,,,,,,AFNE01.jpg,AFSA11.jpg,AFSA06.jpg,AFNE10.jpg,AFNE10.jpg,FN,3,num_4,48,None,,,,2017_Apr_13_1910,60.007179009,MAFE4ImagesEEG,001,100136,
AFSA21.JPG,AFNE23.JPG,AFNE21.JPG,AFSA25.JPG,AFNE25.JPG,AFSA23.JPG,,,,,,,,,0,0,0,4,,,,,,,,,,,,,,,AMNE08.jpg,AMSA17.jpg,AMSA11.jpg,AMNE18.jpg,AMSA11.jpg,MS,2,num_2,48,None,,,,2017_Apr_13_1910,60.007179009,MAFE4ImagesEEG,001,100136,
AFNE23.JPG,AFNE24.JPG,AFNE22.JPG,AFSA24.JPG,AFSA22.JPG,AFSA23.JPG,,,,,,,,,0,1,1,8,,,,,,,,,,,,,,,AMNE01.jpg,AMSA03.jpg,AMSA17.jpg,AMNE15.jpg,AMSA03.jpg,MS,2,num_6,48,None,,,,2017_Apr_13_1910,60.007179009,MAFE4ImagesEEG,001,100136,
AFNE22.JPG,AFSA24.JPG,AFSA22.JPG,AFNE25.JPG,AFNE24.JPG,AFSA25.JPG,,,,,,,,,0,2,2,6,,,,,,,,,,,,,,,AMSA07.jpg,AMNE03.jpg,AMSA05.jpg,AMNE16.jpg,AMSA07.jpg,MS,2,num_8,48,None,,,,2017_Apr_13_1910,60.007179009,MAFE4ImagesEEG,001,100136,
AFSA25.JPG,AFNE24.JPG,AFSA24.JPG,AFNE21.JPG,AFSA21.JPG,AFNE25.JPG,,,,,,,,,0,3,3,2,,,,,,,,,,,,,,,AMNE13.jpg,AMNE10.jpg,AMSA02.jpg,AMSA14.jpg,AMNE13.jpg,MN,1,num_8,48,None,,,,2017_Apr_13_1910,60.007179009,MAFE4ImagesEEG,001,100136,
AMSA21.JPG,AMNE23.JPG,AMNE21.JPG,AMSA25.JPG,AMNE25.JPG,AMSA23.JPG,,,,,,,,,0,4,4,5,,,,,,,,,,,,,,,AMNE02.jpg,AMSA06.jpg,AMSA14.jpg,AMNE16.jpg,AMNE16.jpg,MN,1,num_4,48,None,,,,2017_Apr_13_1910,60.007179009,MAFE4ImagesEEG,001,100136,
AFSA21.JPG,AFNE22.JPG,AFNE21.JPG,AFSA23.JPG,AFSA22.JPG,AFNE23.JPG,,,,,,,,,0,5,5,0,,,,,,,,,,,,,,,AMSA10.jpg,AMSA11.jpg,AMNE04.jpg,AMNE09.jpg,AMSA11.jpg,MS,2,num_6,48,None,,,,2017_Apr_13_1910,60.007179009,MAFE4ImagesEEG,001,100136,
AMNE23.JPG,AMNE24.JPG,AMNE22.JPG,AMSA24.JPG,AMSA22.JPG,AMSA23.JPG,,,,,,,,,0,6,6,9,,,,,,,,,,,,,,,AMNE02.jpg,AMNE09.jpg,AMSA18.jpg,AMSA15.jpg,AMSA15.jpg,MS,2,num_4,48,None,,,,2017_Apr_13_1910,60.007179009,MAFE4ImagesEEG,001,100136,
AMSA25.JPG,AMNE24.JPG,AMSA24.JPG,AMNE26.JPG,AMSA21.JPG,AMNE25.JPG,,,,,,,,,0,7,7,3,,,,,,,,,,,,,,,AMNE08.jpg,AMSA15.jpg,AMSA18.jpg,AMNE04.jpg,AMSA18.jpg,MS,2,num_2,48,None,,,,2017_Apr_13_1910,60.007179009,MAFE4ImagesEEG,001,100136,
AMNE22.JPG,AMSA24.JPG,AMSA22.JPG,AMNE25.JPG,AMNE24.JPG,AMSA25.JPG,,,,,,,,,0,8,8,7,,,,,,,,,,,,,,,AMSA09.jpg,AMNE18.jpg,AMSA01.jpg,AMNE07.jpg,AMNE18.jpg,MN,1,num_6,48,None,,,,2017_Apr_13_1910,60.007179009,MAFE4ImagesEEG,001,100136,
AMSA21.JPG,AMNE22.JPG,AMNE21.JPG,AMSA23.JPG,AMSA22.JPG,AMNE23.JPG,,,,,,,,,0,9,9,1,,,,,,,,,,,,,,,AMSA18.jpg,AMSA09.jpg,AMNE17.jpg,AMNE16.jpg,AMSA18.jpg,MS,2,num_8,48,None,,,,2017_Apr_13_1910,60.007179009,MAFE4ImagesEEG,001,100136,
AMSA25.JPG,AMNE24.JPG,AMSA24.JPG,AMNE26.JPG,AMSA21.JPG,AMNE25.JPG,,,,,,,,,,,,,0,0,0,3,,,,,,,,,,,AFSA19.jpg,AFSA11.jpg,AFNE09.jpg,AFNE11.jpg,AFSA11.jpg,FS,4,num_6,48,None,,,,2017_Apr_13_1910,60.007179009,MAFE4ImagesEEG,001,100136,
AMSA21.JPG,AMNE23.JPG,AMNE21.JPG,AMSA25.JPG,AMNE25.JPG,AMSA23.JPG,,,,,,,,,,,,,0,1,1,5,,,,,,,,,,,AFSA12.jpg,AFNE20.jpg,AFNE18.jpg,AFSA09.jpg,AFNE18.jpg,FN,3,num_2,48,None,,,,2017_Apr_13_1910,60.007179009,MAFE4ImagesEEG,001,100136,
AFSA21.JPG,AFNE22.JPG,AFNE21.JPG,AFSA23.JPG,AFSA22.JPG,AFNE23.JPG,,,,,,,,,,,,,0,2,2,0,,,,,,,,,,,AFNE17.jpg,AFSA13.jpg,AFNE15.jpg,AFSA12.jpg,AFSA12.jpg,FS,4,num_4,48,None,,,,2017_Apr_13_1910,60.007179009,MAFE4ImagesEEG,001,100136,
AFNE23.JPG,AFNE24.JPG,AFNE22.JPG,AFSA24.JPG,AFSA22.JPG,AFSA23.JPG,,,,,,,,,,,,,0,3,3,8,,,,,,,,,,,AFNE03.jpg,AFSA14.jpg,AFNE16.jpg,AFSA03.jpg,AFSA03.jpg,FS,4,num_4,48,None,,,,2017_Apr_13_1910,60.007179009,MAFE4ImagesEEG,001,100136,
AMNE22.JPG,AMSA24.JPG,AMSA22.JPG,AMNE25.JPG,AMNE24.JPG,AMSA25.JPG,,,,,,,,,,,,,0,4,4,7,,,,,,,,,,,AFSA01.jpg,AFSA02.jpg,AFNE15.jpg,AFNE11.jpg,AFNE15.jpg,FN,3,num_2,48,None,,,,2017_Apr_13_1910,60.007179009,MAFE4ImagesEEG,001,100136,
AMNE23.JPG,AMNE24.JPG,AMNE22.JPG,AMSA24.JPG,AMSA22.JPG,AMSA23.JPG,,,,,,,,,,,,,0,5,5,9,,,,,,,,,,,AFSA03.jpg,AFNE01.jpg,AFNE14.jpg,AFSA12.jpg,AFSA03.jpg,FS,4,num_8,48,None,,,,2017_Apr_13_1910,60.007179009,MAFE4ImagesEEG,001,100136,
AFSA25.JPG,AFNE24.JPG,AFSA24.JPG,AFNE21.JPG,AFSA21.JPG,AFNE25.JPG,,,,,,,,,,,,,0,6,6,2,,,,,,,,,,,AFNE15.jpg,AFSA02.jpg,AFSA19.jpg,AFNE16.jpg,AFSA02.jpg,FS,4,num_6,48,None,,,,2017_Apr_13_1910,60.007179009,MAFE4ImagesEEG,001,100136,
AFSA21.JPG,AFNE23.JPG,AFNE21.JPG,AFSA25.JPG,AFNE25.JPG,AFSA23.JPG,,,,,,,,,,,,,0,7,7,4,,,,,,,,,,,AFNE11.jpg,AFSA12.jpg,AFSA18.jpg,AFNE02.jpg,AFSA18.jpg,FS,4,num_2,48,None,,,,2017_Apr_13_1910,60.007179009,MAFE4ImagesEEG,001,100136,
AFNE22.JPG,AFSA24.JPG,AFSA22.JPG,AFNE25.JPG,AFNE24.JPG,AFSA25.JPG,,,,,,,,,,,,,0,8,8,6,,,,,,,,,,,AFNE03.jpg,AFSA18.jpg,AFSA07.jpg,AFNE07.jpg,AFNE07.jpg,FN,3,num_4,48,None,,,,2017_Apr_13_1910,60.007179009,MAFE4ImagesEEG,001,100136,
AMSA21.JPG,AMNE22.JPG,AMNE21.JPG,AMSA23.JPG,AMSA22.JPG,AMNE23.JPG,,,,,,,,,,,,,0,9,9,1,,,,,,,,,,,AFSA14.jpg,AFNE03.jpg,AFSA04.jpg,AFNE14.jpg,AFNE03.jpg,FN,3,num_6,48,None,,,,2017_Apr_13_1910,60.007179009,MAFE4ImagesEEG,001,100136,
AFSA25.JPG,AFNE24.JPG,AFSA24.JPG,AFNE21.JPG,AFSA21.JPG,AFNE25.JPG,,,,,,,,,,,,,,,,,0,0,0,2,,,,,,,AMSA03.jpg,AMNE01.jpg,AMSA19.jpg,AMNE03.jpg,AMSA19.jpg,MS,2,num_2,48,None,,,,2017_Apr_13_1910,60.007179009,MAFE4ImagesEEG,001,100136,
AMSA25.JPG,AMNE24.JPG,AMSA24.JPG,AMNE26.JPG,AMSA21.JPG,AMNE25.JPG,,,,,,,,,,,,,,,,,0,1,1,3,,,,,,,AMNE01.jpg,AMSA05.jpg,AMNE05.jpg,AMSA13.jpg,AMSA13.jpg,MS,2,num_4,48,None,,,,2017_Apr_13_1910,60.007179009,MAFE4ImagesEEG,001,100136,
AMNE23.JPG,AMNE24.JPG,AMNE22.JPG,AMSA24.JPG,AMSA22.JPG,AMSA23.JPG,,,,,,,,,,,,,,,,,0,2,2,9,,,,,,,AMSA07.jpg,AMSA20.jpg,AMNE06.jpg,AMNE05.jpg,AMSA07.jpg,MS,2,num_8,48,None,,,,2017_Apr_13_1910,60.007179009,MAFE4ImagesEEG,001,100136,
AMSA21.JPG,AMNE23.JPG,AMNE21.JPG,AMSA25.JPG,AMNE25.JPG,AMSA23.JPG,,,,,,,,,,,,,,,,,0,3,3,5,,,,,,,AMNE18.jpg,AMNE05.jpg,AMSA12.jpg,AMSA05.jpg,AMNE05.jpg,MN,1,num_6,48,None,,,,2017_Apr_13_1910,60.007179009,MAFE4ImagesEEG,001,100136,
AFNE22.JPG,AFSA24.JPG,AFSA22.JPG,AFNE25.JPG,AFNE24.JPG,AFSA25.JPG,,,,,,,,,,,,,,,,,0,4,4,6,,,,,,,AMSA20.jpg,AMSA03.jpg,AMNE11.jpg,AMNE03.jpg,AMNE03.jpg,MN,1,num_4,48,None,,,,2017_Apr_13_1910,60.007179009,MAFE4ImagesEEG,001,100136,
AMSA21.JPG,AMNE22.JPG,AMNE21.JPG,AMSA23.JPG,AMSA22.JPG,AMNE23.JPG,,,,,,,,,,,,,,,,,0,5,5,1,,,,,,,AMSA09.jpg,AMNE07.jpg,AMSA06.jpg,AMNE18.jpg,AMNE18.jpg,MN,1,num_4,48,None,,,,2017_Apr_13_1910,60.007179009,MAFE4ImagesEEG,001,100136,
AFSA21.JPG,AFNE22.JPG,AFNE21.JPG,AFSA23.JPG,AFSA22.JPG,AFNE23.JPG,,,,,,,,,,,,,,,,,0,6,6,0,,,,,,,AMSA10.jpg,AMSA05.jpg,AMNE15.jpg,AMNE18.jpg,AMSA05.jpg,MS,2,num_6,48,None,,,,2017_Apr_13_1910,60.007179009,MAFE4ImagesEEG,001,100136,
AFSA21.JPG,AFNE23.JPG,AFNE21.JPG,AFSA25.JPG,AFNE25.JPG,AFSA23.JPG,,,,,,,,,,,,,,,,,0,7,7,4,,,,,,,AMNE20.jpg,AMSA09.jpg,AMNE18.jpg,AMSA11.jpg,AMSA11.jpg,MS,2,num_4,48,None,,,,2017_Apr_13_1910,60.007179009,MAFE4ImagesEEG,001,100136,
AFNE23.JPG,AFNE24.JPG,AFNE22.JPG,AFSA24.JPG,AFSA22.JPG,AFSA23.JPG,,,,,,,,,,,,,,,,,0,8,8,8,,,,,,,AMSA08.jpg,AMNE08.jpg,AMNE09.jpg,AMSA15.jpg,AMSA08.jpg,MS,2,num_8,48,None,,,,2017_Apr_13_1910,60.007179009,MAFE4ImagesEEG,001,100136,
AMNE22.JPG,AMSA24.JPG,AMSA22.JPG,AMNE25.JPG,AMNE24.JPG,AMSA25.JPG,,,,,,,,,,,,,,,,,0,9,9,7,,,,,,,AMSA01.jpg,AMNE03.jpg,AMNE17.jpg,AMSA17.jpg,AMNE03.jpg,MN,1,num_6,48,None,,,,2017_Apr_13_1910,60.007179009,MAFE4ImagesEEG,001,100136,
AFNE22.JPG,AFSA24.JPG,AFSA22.JPG,AFNE25.JPG,AFNE24.JPG,AFSA25.JPG,,,,,,,,,,,,,,,,,,,,,0,0,0,6,,,AFNE11.jpg,AFSA08.jpg,AFNE03.jpg,AFSA03.jpg,AFSA03.jpg,FS,4,num_4,48,None,,,,2017_Apr_13_1910,60.007179009,MAFE4ImagesEEG,001,100136,
AFSA21.JPG,AFNE22.JPG,AFNE21.JPG,AFSA23.JPG,AFSA22.JPG,AFNE23.JPG,,,,,,,,,,,,,,,,,,,,,0,1,1,0,,,AFNE16.jpg,AFSA08.jpg,AFNE17.jpg,AFSA01.jpg,AFSA01.jpg,FS,4,num_4,48,None,,,,2017_Apr_13_1910,60.007179009,MAFE4ImagesEEG,001,100136,
AFSA21.JPG,AFNE23.JPG,AFNE21.JPG,AFSA25.JPG,AFNE25.JPG,AFSA23.JPG,,,,,,,,,,,,,,,,,,,,,0,2,2,4,,,AFSA05.jpg,AFSA13.jpg,AFNE01.jpg,AFNE17.jpg,AFNE01.jpg,FN,3,num_2,48,None,,,,2017_Apr_13_1910,60.007179009,MAFE4ImagesEEG,001,100136,
AMSA25.JPG,AMNE24.JPG,AMSA24.JPG,AMNE26.JPG,AMSA21.JPG,AMNE25.JPG,,,,,,,,,,,,,,,,,,,,,0,3,3,3,,,AFNE11.jpg,AFNE19.jpg,AFSA19.jpg,AFSA16.jpg,AFSA19.jpg,FS,4,num_2,48,None,,,,2017_Apr_13_1910,60.007179009,MAFE4ImagesEEG,001,100136,
AMSA21.JPG,AMNE23.JPG,AMNE21.JPG,AMSA25.JPG,AMNE25.JPG,AMSA23.JPG,,,,,,,,,,,,,,,,,,,,,0,4,4,5,,,AFNE02.jpg,AFSA13.jpg,AFSA10.jpg,AFNE10.jpg,AFNE02.jpg,FN,3,num_8,48,None,,,,2017_Apr_13_1910,60.007179009,MAFE4ImagesEEG,001,100136,
AMNE22.JPG,AMSA24.JPG,AMSA22.JPG,AMNE25.JPG,AMNE24.JPG,AMSA25.JPG,,,,,,,,,,,,,,,,,,,,,0,5,5,7,,,AFNE09.jpg,AFNE20.jpg,AFSA14.jpg,AFSA07.jpg,AFSA14.jpg,FS,4,num_2,48,None,,,,2017_Apr_13_1910,60.007179009,MAFE4ImagesEEG,001,100136,
AFSA25.JPG,AFNE24.JPG,AFSA24.JPG,AFNE21.JPG,AFSA21.JPG,AFNE25.JPG,,,,,,,,,,,,,,,,,,,,,0,6,6,2,,,AFSA03.jpg,AFNE05.jpg,AFSA15.jpg,AFNE03.jpg,AFNE03.jpg,FN,3,num_4,48,None,,,,2017_Apr_13_1910,60.007179009,MAFE4ImagesEEG,001,100136,
AMNE23.JPG,AMNE24.JPG,AMNE22.JPG,AMSA24.JPG,AMSA22.JPG,AMSA23.JPG,,,,,,,,,,,,,,,,,,,,,0,7,7,9,,,AFSA06.jpg,AFNE05.jpg,AFSA05.jpg,AFNE11.jpg,AFNE11.jpg,FN,3,num_4,48,None,,,,2017_Apr_13_1910,60.007179009,MAFE4ImagesEEG,001,100136,
AMSA21.JPG,AMNE22.JPG,AMNE21.JPG,AMSA23.JPG,AMSA22.JPG,AMNE23.JPG,,,,,,,,,,,,,,,,,,,,,0,8,8,1,,,AFNE14.jpg,AFSA19.jpg,AFSA05.jpg,AFNE02.jpg,AFSA05.jpg,FS,4,num_2,48,None,,,,2017_Apr_13_1910,60.007179009,MAFE4ImagesEEG,001,100136,
AFNE23.JPG,AFNE24.JPG,AFNE22.JPG,AFSA24.JPG,AFSA22.JPG,AFSA23.JPG,,,,,,,,,,,,,,,,,,,,,0,9,9,8,,,AFSA02.jpg,AFNE11.jpg,AFSA03.jpg,AFNE02.jpg,AFSA03.jpg,FS,4,num_2,48,None,,,,2017_Apr_13_1910,60.007179009,MAFE4ImagesEEG,001,100136,
,,,,,,,,,,,,,,,,,,,,,,,,,,,,,,,,,,,,,,,,,,,space,6.76627537468,2017_Apr_13_1910,60.007179009,MAFE4ImagesEEG,001,100136,
AFNE01.JPG,AFNE01.JPG,AFNE01.JPG,AFNE01.JPG,AFNE01.JPG,AFNE01.JPG,0,0,0,4,,,,,,,,,,,,,,,,,,,,,,,AMSA14.jpg,AMSA10.jpg,AMNE09.jpg,AMNE13.jpg,AMNE09.jpg,MN,1,num_2,32,num_6,2.65001044003,,,2017_Apr_13_1910,60.007179009,MAFE4ImagesEEG,001,100136,
AFNE01.JPG,AFNE01.JPG,AFNE01.JPG,AFNE01.JPG,AFNE01.JPG,AFNE01.JPG,0,1,1,8,,,,,,,,,,,,,,,,,,,,,,,AMSA13.jpg,AMNE07.jpg,AMSA15.jpg,AMNE02.jpg,AMNE02.jpg,MN,1,num_4,48,None,,,,2017_Apr_13_1910,60.007179009,MAFE4ImagesEEG,001,100136,
AFNE01.JPG,AFNE01.JPG,AFNE01.JPG,AFNE01.JPG,AFNE01.JPG,AFNE01.JPG,0,2,2,2,,,,,,,,,,,,,,,,,,,,,,,AMNE06.jpg,AMSA19.jpg,AMNE01.jpg,AMSA06.jpg,AMSA19.jpg,MS,2,num_6,48,None,,,,2017_Apr_13_1910,60.007179009,MAFE4ImagesEEG,001,100136,
AFNE01.JPG,AFNE01.JPG,AFNE01.JPG,AFNE01.JPG,AFNE01.JPG,AFNE01.JPG,0,3,3,5,,,,,,,,,,,,,,,,,,,,,,,AMSA05.jpg,AMSA09.jpg,AMNE01.jpg,AMNE16.jpg,AMNE16.jpg,MN,1,num_4,48,None,,,,2017_Apr_13_1910,60.007179009,MAFE4ImagesEEG,001,100136,
AFNE01.JPG,AFNE01.JPG,AFNE01.JPG,AFNE01.JPG,AFNE01.JPG,AFNE01.JPG,0,4,4,7,,,,,,,,,,,,,,,,,,,,,,,AMSA09.jpg,AMSA11.jpg,AMNE10.jpg,AMNE06.jpg,AMSA11.jpg,MS,2,num_6,48,None,,,,2017_Apr_13_1910,60.007179009,MAFE4ImagesEEG,001,100136,
AFNE01.JPG,AFNE01.JPG,AFNE01.JPG,AFNE01.JPG,AFNE01.JPG,AFNE01.JPG,0,5,5,1,,,,,,,,,,,,,,,,,,,,,,,AMSA09.jpg,AMSA11.jpg,AMNE13.jpg,AMNE06.jpg,AMSA09.jpg,MS,2,num_8,48,None,,,,2017_Apr_13_1910,60.007179009,MAFE4ImagesEEG,001,100136,
AFNE01.JPG,AFNE01.JPG,AFNE01.JPG,AFNE01.JPG,AFNE01.JPG,AFNE01.JPG,0,6,6,9,,,,,,,,,,,,,,,,,,,,,,,AMNE03.jpg,AMSA09.jpg,AMNE20.jpg,AMSA14.jpg,AMSA09.jpg,MS,2,num_6,48,None,,,,2017_Apr_13_1910,60.007179009,MAFE4ImagesEEG,001,100136,
AFNE01.JPG,AFNE01.JPG,AFNE01.JPG,AFNE01.JPG,AFNE01.JPG,AFNE01.JPG,0,7,7,0,,,,,,,,,,,,,,,,,,,,,,,AMNE13.jpg,AMSA16.jpg,AMNE08.jpg,AMSA01.jpg,AMNE08.jpg,MN,1,num_2,48,None,,,,2017_Apr_13_1910,60.007179009,MAFE4ImagesEEG,001,100136,
AFNE01.JPG,AFNE01.JPG,AFNE01.JPG,AFNE01.JPG,AFNE01.JPG,AFNE01.JPG,0,8,8,6,,,,,,,,,,,,,,,,,,,,,,,AMNE13.jpg,AMSA20.jpg,AMSA09.jpg,AMNE19.jpg,AMSA09.jpg,MS,2,num_2,48,None,,,,2017_Apr_13_1910,60.007179009,MAFE4ImagesEEG,001,100136,
AFNE01.JPG,AFNE01.JPG,AFNE01.JPG,AFNE01.JPG,AFNE01.JPG,AFNE01.JPG,0,9,9,3,,,,,,,,,,,,,,,,,,,,,,,AMSA03.jpg,AMNE08.jpg,AMNE07.jpg,AMSA13.jpg,AMSA03.jpg,MS,2,num_8,48,None,,,,2017_Apr_13_1910,60.007179009,MAFE4ImagesEEG,001,100136,
AFNE01.JPG,AFNE01.JPG,AFNE01.JPG,AFNE01.JPG,AFNE01.JPG,AFNE01.JPG,1,0,10,1,,,,,,,,,,,,,,,,,,,,,,,AMNE02.jpg,AMSA09.jpg,AMNE10.jpg,AMSA16.jpg,AMNE02.jpg,MN,1,num_8,48,None,,,,2017_Apr_13_1910,60.007179009,MAFE4ImagesEEG,001,100136,
AFNE01.JPG,AFNE01.JPG,AFNE01.JPG,AFNE01.JPG,AFNE01.JPG,AFNE01.JPG,1,1,11,7,,,,,,,,,,,,,,,,,,,,,,,AMSA16.jpg,AMSA14.jpg,AMNE18.jpg,AMNE03.jpg,AMNE18.jpg,MN,1,num_2,48,None,,,,2017_Apr_13_1910,60.007179009,MAFE4ImagesEEG,001,100136,
AFNE01.JPG,AFNE01.JPG,AFNE01.JPG,AFNE01.JPG,AFNE01.JPG,AFNE01.JPG,1,2,12,8,,,,,,,,,,,,,,,,,,,,,,,AMSA01.jpg,AMNE05.jpg,AMNE10.jpg,AMSA08.jpg,AMSA08.jpg,MS,2,num_4,48,None,,,,2017_Apr_13_1910,60.007179009,MAFE4ImagesEEG,001,100136,
AFNE01.JPG,AFNE01.JPG,AFNE01.JPG,AFNE01.JPG,AFNE01.JPG,AFNE01.JPG,1,3,13,5,,,,,,,,,,,,,,,,,,,,,,,AMNE06.jpg,AMNE13.jpg,AMSA03.jpg,AMSA05.jpg,AMNE13.jpg,MN,1,num_6,48,None,,,,2017_Apr_13_1910,60.007179009,MAFE4ImagesEEG,001,100136,
AFNE01.JPG,AFNE01.JPG,AFNE01.JPG,AFNE01.JPG,AFNE01.JPG,AFNE01.JPG,1,4,14,3,,,,,,,,,,,,,,,,,,,,,,,AMNE07.jpg,AMNE12.jpg,AMSA17.jpg,AMSA11.jpg,AMNE07.jpg,MN,1,num_8,48,None,,,,2017_Apr_13_1910,60.007179009,MAFE4ImagesEEG,001,100136,
AFNE01.JPG,AFNE01.JPG,AFNE01.JPG,AFNE01.JPG,AFNE01.JPG,AFNE01.JPG,1,5,15,9,,,,,,,,,,,,,,,,,,,,,,,AMNE03.jpg,AMSA10.jpg,AMSA18.jpg,AMNE20.jpg,AMSA18.jpg,MS,2,num_2,48,None,,,,2017_Apr_13_1910,60.007179009,MAFE4ImagesEEG,001,100136,
AFNE01.JPG,AFNE01.JPG,AFNE01.JPG,AFNE01.JPG,AFNE01.JPG,AFNE01.JPG,1,6,16,4,,,,,,,,,,,,,,,,,,,,,,,AMSA16.jpg,AMNE09.jpg,AMSA07.jpg,AMNE04.jpg,AMSA07.jpg,MS,2,num_2,48,None,,,,2017_Apr_13_1910,60.007179009,MAFE4ImagesEEG,001,100136,
AFNE01.JPG,AFNE01.JPG,AFNE01.JPG,AFNE01.JPG,AFNE01.JPG,AFNE01.JPG,1,7,17,2,,,,,,,,,,,,,,,,,,,,,,,AMNE09.jpg,AMSA15.jpg,AMSA20.jpg,AMNE02.jpg,AMSA20.jpg,MS,2,num_2,48,None,,,,2017_Apr_13_1910,60.007179009,MAFE4ImagesEEG,001,100136,
AFNE01.JPG,AFNE01.JPG,AFNE01.JPG,AFNE01.JPG,AFNE01.JPG,AFNE01.JPG,1,8,18,6,,,,,,,,,,,,,,,,,,,,,,,AMSA07.jpg,AMNE13.jpg,AMSA12.jpg,AMNE01.jpg,AMSA07.jpg,MS,2,num_8,48,None,,,,2017_Apr_13_1910,60.007179009,MAFE4ImagesEEG,001,100136,
AFNE01.JPG,AFNE01.JPG,AFNE01.JPG,AFNE01.JPG,AFNE01.JPG,AFNE01.JPG,1,9,19,0,,,,,,,,,,,,,,,,,,,,,,,AMSA10.jpg,AMNE16.jpg,AMNE05.jpg,AMSA07.jpg,AMSA07.jpg,MS,2,num_4,48,None,,,,2017_Apr_13_1910,60.007179009,MAFE4ImagesEEG,001,100136,
AFNE01.JPG,AFNE01.JPG,AFNE01.JPG,AFNE01.JPG,AFNE01.JPG,AFNE01.JPG,2,0,20,2,,,,,,,,,,,,,,,,,,,,,,,AMNE02.jpg,AMSA18.jpg,AMSA13.jpg,AMNE14.jpg,AMSA13.jpg,MS,2,num_2,48,None,,,,2017_Apr_13_1910,60.007179009,MAFE4ImagesEEG,001,100136,
AFNE01.JPG,AFNE01.JPG,AFNE01.JPG,AFNE01.JPG,AFNE01.JPG,AFNE01.JPG,2,1,21,1,,,,,,,,,,,,,,,,,,,,,,,AMNE20.jpg,AMSA13.jpg,AMSA06.jpg,AMNE02.jpg,AMSA06.jpg,MS,2,num_2,48,None,,,,2017_Apr_13_1910,60.007179009,MAFE4ImagesEEG,001,100136,
AFNE01.JPG,AFNE01.JPG,AFNE01.JPG,AFNE01.JPG,AFNE01.JPG,AFNE01.JPG,2,2,22,8,,,,,,,,,,,,,,,,,,,,,,,AMSA20.jpg,AMNE18.jpg,AMSA17.jpg,AMNE02.jpg,AMNE02.jpg,MN,1,num_4,48,None,,,,2017_Apr_13_1910,60.007179009,MAFE4ImagesEEG,001,100136,
AFNE01.JPG,AFNE01.JPG,AFNE01.JPG,AFNE01.JPG,AFNE01.JPG,AFNE01.JPG,2,3,23,5,,,,,,,,,,,,,,,,,,,,,,,AMSA02.jpg,AMNE02.jpg,AMNE16.jpg,AMSA08.jpg,AMNE02.jpg,MN,1,num_6,32,num_8,1.23344301526,,,2017_Apr_13_1910,60.007179009,MAFE4ImagesEEG,001,100136,
AFNE01.JPG,AFNE01.JPG,AFNE01.JPG,AFNE01.JPG,AFNE01.JPG,AFNE01.JPG,2,4,24,7,,,,,,,,,,,,,,,,,,,,,,,AMNE12.jpg,AMSA09.jpg,AMNE20.jpg,AMSA04.jpg,AMSA09.jpg,MS,2,num_6,48,None,,,,2017_Apr_13_1910,60.007179009,MAFE4ImagesEEG,001,100136,
AFNE01.JPG,AFNE01.JPG,AFNE01.JPG,AFNE01.JPG,AFNE01.JPG,AFNE01.JPG,2,5,25,3,,,,,,,,,,,,,,,,,,,,,,,AMNE19.jpg,AMSA19.jpg,AMSA13.jpg,AMNE06.jpg,AMNE06.jpg,MN,1,num_4,48,None,,,,2017_Apr_13_1910,60.007179009,MAFE4ImagesEEG,001,100136,
AFNE01.JPG,AFNE01.JPG,AFNE01.JPG,AFNE01.JPG,AFNE01.JPG,AFNE01.JPG,2,6,26,9,,,,,,,,,,,,,,,,,,,,,,,AMSA20.jpg,AMNE09.jpg,AMSA17.jpg,AMNE12.jpg,AMNE09.jpg,MN,1,num_6,48,None,,,,2017_Apr_13_1910,60.007179009,MAFE4ImagesEEG,001,100136,
AFNE01.JPG,AFNE01.JPG,AFNE01.JPG,AFNE01.JPG,AFNE01.JPG,AFNE01.JPG,2,7,27,0,,,,,,,,,,,,,,,,,,,,,,,AMNE18.jpg,AMSA13.jpg,AMSA14.jpg,AMNE17.jpg,AMSA14.jpg,MS,2,num_2,48,None,,,,2017_Apr_13_1910,60.007179009,MAFE4ImagesEEG,001,100136,
AFNE01.JPG,AFNE01.JPG,AFNE01.JPG,AFNE01.JPG,AFNE01.JPG,AFNE01.JPG,2,8,28,4,,,,,,,,,,,,,,,,,,,,,,,AMNE04.jpg,AMSA19.jpg,AMSA05.jpg,AMNE07.jpg,AMSA05.jpg,MS,2,num_2,48,None,,,,2017_Apr_13_1910,60.007179009,MAFE4ImagesEEG,001,100136,
AFNE01.JPG,AFNE01.JPG,AFNE01.JPG,AFNE01.JPG,AFNE01.JPG,AFNE01.JPG,2,9,29,6,,,,,,,,,,,,,,,,,,,,,,,AMSA14.jpg,AMNE09.jpg,AMNE19.jpg,AMSA15.jpg,AMSA14.jpg,MS,2,num_8,48,None,,,,2017_Apr_13_1910,60.007179009,MAFE4ImagesEEG,001,100136,
AFNE01.JPG,AFNE01.JPG,AFNE01.JPG,AFNE01.JPG,AFNE01.JPG,AFNE01.JPG,3,0,30,8,,,,,,,,,,,,,,,,,,,,,,,AMNE15.jpg,AMSA09.jpg,AMNE16.jpg,AMSA12.jpg,AMSA12.jpg,MS,2,num_4,48,None,,,,2017_Apr_13_1910,60.007179009,MAFE4ImagesEEG,001,100136,
AFNE01.JPG,AFNE01.JPG,AFNE01.JPG,AFNE01.JPG,AFNE01.JPG,AFNE01.JPG,3,1,31,4,,,,,,,,,,,,,,,,,,,,,,,AMNE13.jpg,AMSA20.jpg,AMSA09.jpg,AMNE19.jpg,AMSA20.jpg,MS,2,num_6,48,None,,,,2017_Apr_13_1910,60.007179009,MAFE4ImagesEEG,001,100136,
AFNE01.JPG,AFNE01.JPG,AFNE01.JPG,AFNE01.JPG,AFNE01.JPG,AFNE01.JPG,3,2,32,0,,,,,,,,,,,,,,,,,,,,,,,AMNE16.jpg,AMSA02.jpg,AMNE14.jpg,AMSA08.jpg,AMSA02.jpg,MS,2,num_6,48,None,,,,2017_Apr_13_1910,60.007179009,MAFE4ImagesEEG,001,100136,
AFNE01.JPG,AFNE01.JPG,AFNE01.JPG,AFNE01.JPG,AFNE01.JPG,AFNE01.JPG,3,3,33,6,,,,,,,,,,,,,,,,,,,,,,,AMSA12.jpg,AMNE16.jpg,AMSA11.jpg,AMNE12.jpg,AMNE16.jpg,MN,1,num_6,48,None,,,,2017_Apr_13_1910,60.007179009,MAFE4ImagesEEG,001,100136,
AFNE01.JPG,AFNE01.JPG,AFNE01.JPG,AFNE01.JPG,AFNE01.JPG,AFNE01.JPG,3,4,34,2,,,,,,,,,,,,,,,,,,,,,,,AMNE12.jpg,AMNE05.jpg,AMSA04.jpg,AMSA01.jpg,AMSA04.jpg,MS,2,num_2,48,None,,,,2017_Apr_13_1910,60.007179009,MAFE4ImagesEEG,001,100136,
AFNE01.JPG,AFNE01.JPG,AFNE01.JPG,AFNE01.JPG,AFNE01.JPG,AFNE01.JPG,3,5,35,7,,,,,,,,,,,,,,,,,,,,,,,AMSA08.jpg,AMNE08.jpg,AMSA05.jpg,AMNE11.jpg,AMSA08.jpg,MS,2,num_8,48,None,,,,2017_Apr_13_1910,60.007179009,MAFE4ImagesEEG,001,100136,
AFNE01.JPG,AFNE01.JPG,AFNE01.JPG,AFNE01.JPG,AFNE01.JPG,AFNE01.JPG,3,6,36,5,,,,,,,,,,,,,,,,,,,,,,,AMNE06.jpg,AMSA17.jpg,AMSA20.jpg,AMNE13.jpg,AMSA17.jpg,MS,2,num_6,48,None,,,,2017_Apr_13_1910,60.007179009,MAFE4ImagesEEG,001,100136,
AFNE01.JPG,AFNE01.JPG,AFNE01.JPG,AFNE01.JPG,AFNE01.JPG,AFNE01.JPG,3,7,37,9,,,,,,,,,,,,,,,,,,,,,,,AMNE02.jpg,AMNE06.jpg,AMSA06.jpg,AMSA12.jpg,AMNE06.jpg,MN,1,num_6,48,None,,,,2017_Apr_13_1910,60.007179009,MAFE4ImagesEEG,001,100136,
AFNE01.JPG,AFNE01.JPG,AFNE01.JPG,AFNE01.JPG,AFNE01.JPG,AFNE01.JPG,3,8,38,1,,,,,,,,,,,,,,,,,,,,,,,AMNE08.jpg,AMSA04.jpg,AMNE20.jpg,AMSA17.jpg,AMNE20.jpg,MN,1,num_2,48,None,,,,2017_Apr_13_1910,60.007179009,MAFE4ImagesEEG,001,100136,
AFNE01.JPG,AFNE01.JPG,AFNE01.JPG,AFNE01.JPG,AFNE01.JPG,AFNE01.JPG,3,9,39,3,,,,,,,,,,,,,,,,,,,,,,,AMNE19.jpg,AMNE03.jpg,AMSA10.jpg,AMSA03.jpg,AMNE03.jpg,MN,1,num_6,48,None,,,,2017_Apr_13_1910,60.007179009,MAFE4ImagesEEG,001,100136,
AFNE01.JPG,AFNE01.JPG,AFNE01.JPG,AFNE01.JPG,AFNE01.JPG,AFNE01.JPG,4,0,40,3,,,,,,,,,,,,,,,,,,,,,,,AMNE05.jpg,AMSA09.jpg,AMNE12.jpg,AMSA20.jpg,AMSA09.jpg,MS,2,num_6,48,None,,,,2017_Apr_13_1910,60.007179009,MAFE4ImagesEEG,001,100136,
AFNE01.JPG,AFNE01.JPG,AFNE01.JPG,AFNE01.JPG,AFNE01.JPG,AFNE01.JPG,4,1,41,0,,,,,,,,,,,,,,,,,,,,,,,AMSA19.jpg,AMNE05.jpg,AMNE03.jpg,AMSA10.jpg,AMNE03.jpg,MN,1,num_2,48,None,,,,2017_Apr_13_1910,60.007179009,MAFE4ImagesEEG,001,100136,
AFNE01.JPG,AFNE01.JPG,AFNE01.JPG,AFNE01.JPG,AFNE01.JPG,AFNE01.JPG,4,2,42,6,,,,,,,,,,,,,,,,,,,,,,,AMSA18.jpg,AMSA12.jpg,AMNE13.jpg,AMNE20.jpg,AMNE13.jpg,MN,1,num_2,48,None,,,,2017_Apr_13_1910,60.007179009,MAFE4ImagesEEG,001,100136,
AFNE01.JPG,AFNE01.JPG,AFNE01.JPG,AFNE01.JPG,AFNE01.JPG,AFNE01.JPG,4,3,43,8,,,,,,,,,,,,,,,,,,,,,,,AMNE08.jpg,AMSA05.jpg,AMSA03.jpg,AMNE17.jpg,AMSA03.jpg,MS,2,num_2,48,None,,,,2017_Apr_13_1910,60.007179009,MAFE4ImagesEEG,001,100136,
AFNE01.JPG,AFNE01.JPG,AFNE01.JPG,AFNE01.JPG,AFNE01.JPG,AFNE01.JPG,4,4,44,1,,,,,,,,,,,,,,,,,,,,,,,AMSA02.jpg,AMNE19.jpg,AMNE10.jpg,AMSA18.jpg,AMNE10.jpg,MN,1,num_2,48,None,,,,2017_Apr_13_1910,60.007179009,MAFE4ImagesEEG,001,100136,
AFNE01.JPG,AFNE01.JPG,AFNE01.JPG,AFNE01.JPG,AFNE01.JPG,AFNE01.JPG,4,5,45,4,,,,,,,,,,,,,,,,,,,,,,,AMNE12.jpg,AMSA03.jpg,AMNE11.jpg,AMSA13.jpg,AMSA03.jpg,MS,2,num_6,48,None,,,,2017_Apr_13_1910,60.007179009,MAFE4ImagesEEG,001,100136,
AFNE01.JPG,AFNE01.JPG,AFNE01.JPG,AFNE01.JPG,AFNE01.JPG,AFNE01.JPG,4,6,46,9,,,,,,,,,,,,,,,,,,,,,,,AMSA11.jpg,AMNE01.jpg,AMNE08.jpg,AMSA02.jpg,AMNE08.jpg,MN,1,num_2,48,None,,,,2017_Apr_13_1910,60.007179009,MAFE4ImagesEEG,001,100136,
AFNE01.JPG,AFNE01.JPG,AFNE01.JPG,AFNE01.JPG,AFNE01.JPG,AFNE01.JPG,4,7,47,5,,,,,,,,,,,,,,,,,,,,,,,AMSA16.jpg,AMNE20.jpg,AMSA01.jpg,AMNE11.jpg,AMSA16.jpg,MS,2,num_8,48,None,,,,2017_Apr_13_1910,60.007179009,MAFE4ImagesEEG,001,100136,
AFNE01.JPG,AFNE01.JPG,AFNE01.JPG,AFNE01.JPG,AFNE01.JPG,AFNE01.JPG,4,8,48,2,,,,,,,,,,,,,,,,,,,,,,,AMNE11.jpg,AMNE16.jpg,AMSA17.jpg,AMSA01.jpg,AMSA17.jpg,MS,2,num_2,48,None,,,,2017_Apr_13_1910,60.007179009,MAFE4ImagesEEG,001,100136,
AFNE01.JPG,AFNE01.JPG,AFNE01.JPG,AFNE01.JPG,AFNE01.JPG,AFNE01.JPG,4,9,49,7,,,,,,,,,,,,,,,,,,,,,,,AMNE14.jpg,AMSA03.jpg,AMSA01.jpg,AMNE11.jpg,AMSA01.jpg,MS,2,num_2,48,None,,,,2017_Apr_13_1910,60.007179009,MAFE4ImagesEEG,001,100136,
AFNE01.JPG,AFNE01.JPG,AFNE01.JPG,AFNE01.JPG,AFNE01.JPG,AFNE01.JPG,5,0,50,6,,,,,,,,,,,,,,,,,,,,,,,AMNE14.jpg,AMNE08.jpg,AMSA09.jpg,AMSA05.jpg,AMNE08.jpg,MN,1,num_6,48,None,,,,2017_Apr_13_1910,60.007179009,MAFE4ImagesEEG,001,100136,
AFNE01.JPG,AFNE01.JPG,AFNE01.JPG,AFNE01.JPG,AFNE01.JPG,AFNE01.JPG,5,1,51,7,,,,,,,,,,,,,,,,,,,,,,,AMSA19.jpg,AMNE09.jpg,AMNE14.jpg,AMSA10.jpg,AMNE14.jpg,MN,1,num_2,48,None,,,,2017_Apr_13_1910,60.007179009,MAFE4ImagesEEG,001,100136,
AFNE01.JPG,AFNE01.JPG,AFNE01.JPG,AFNE01.JPG,AFNE01.JPG,AFNE01.JPG,5,2,52,9,,,,,,,,,,,,,,,,,,,,,,,AMSA08.jpg,AMSA10.jpg,AMNE18.jpg,AMNE09.jpg,AMSA08.jpg,MS,2,num_8,48,None,,,,2017_Apr_13_1910,60.007179009,MAFE4ImagesEEG,001,100136,
AFNE01.JPG,AFNE01.JPG,AFNE01.JPG,AFNE01.JPG,AFNE01.JPG,AFNE01.JPG,5,3,53,5,,,,,,,,,,,,,,,,,,,,,,,AMNE17.jpg,AMNE16.jpg,AMSA11.jpg,AMSA08.jpg,AMNE17.jpg,MN,1,num_8,48,None,,,,2017_Apr_13_1910,60.007179009,MAFE4ImagesEEG,001,100136,
AFNE01.JPG,AFNE01.JPG,AFNE01.JPG,AFNE01.JPG,AFNE01.JPG,AFNE01.JPG,5,4,54,3,,,,,,,,,,,,,,,,,,,,,,,AMSA04.jpg,AMNE07.jpg,AMNE15.jpg,AMSA14.jpg,AMSA04.jpg,MS,2,num_8,48,None,,,,2017_Apr_13_1910,60.007179009,MAFE4ImagesEEG,001,100136,
AFNE01.JPG,AFNE01.JPG,AFNE01.JPG,AFNE01.JPG,AFNE01.JPG,AFNE01.JPG,5,5,55,2,,,,,,,,,,,,,,,,,,,,,,,AMNE09.jpg,AMNE10.jpg,AMSA10.jpg,AMSA19.jpg,AMSA10.jpg,MS,2,num_2,48,None,,,,2017_Apr_13_1910,60.007179009,MAFE4ImagesEEG,001,100136,
AFNE01.JPG,AFNE01.JPG,AFNE01.JPG,AFNE01.JPG,AFNE01.JPG,AFNE01.JPG,5,6,56,1,,,,,,,,,,,,,,,,,,,,,,,AMNE02.jpg,AMSA15.jpg,AMNE09.jpg,AMSA03.jpg,AMNE09.jpg,MN,1,num_2,48,None,,,,2017_Apr_13_1910,60.007179009,MAFE4ImagesEEG,001,100136,
AFNE01.JPG,AFNE01.JPG,AFNE01.JPG,AFNE01.JPG,AFNE01.JPG,AFNE01.JPG,5,7,57,8,,,,,,,,,,,,,,,,,,,,,,,AMSA20.jpg,AMSA16.jpg,AMNE09.jpg,AMNE14.jpg,AMNE09.jpg,MN,1,num_2,48,None,,,,2017_Apr_13_1910,60.007179009,MAFE4ImagesEEG,001,100136,
AFNE01.JPG,AFNE01.JPG,AFNE01.JPG,AFNE01.JPG,AFNE01.JPG,AFNE01.JPG,5,8,58,4,,,,,,,,,,,,,,,,,,,,,,,AMSA18.jpg,AMNE16.jpg,AMNE11.jpg,AMSA11.jpg,AMSA11.jpg,MS,2,num_4,48,None,,,,2017_Apr_13_1910,60.007179009,MAFE4ImagesEEG,001,100136,
AFNE01.JPG,AFNE01.JPG,AFNE01.JPG,AFNE01.JPG,AFNE01.JPG,AFNE01.JPG,5,9,59,0,,,,,,,,,,,,,,,,,,,,,,,AMSA08.jpg,AMNE09.jpg,AMNE05.jpg,AMSA02.jpg,AMSA02.jpg,MS,2,num_4,48,None,,,,2017_Apr_13_1910,60.007179009,MAFE4ImagesEEG,001,100136,
,,,,,,,,,,,,,,,,,,,,,,,,,,,,,,,,,,,,,,,,,,,space,3.64988823794,2017_Apr_13_1910,60.007179009,MAFE4ImagesEEG,001,100136,
AFNE01.JPG,AFNE01.JPG,AFNE01.JPG,AFNE01.JPG,AFNE01.JPG,AFNE01.JPG,,,,,0,0,0,9,,,,,,,,,,,,,,,,,,,AFNE19.jpg,AFNE16.jpg,AFSA06.jpg,AFSA13.jpg,AFSA06.jpg,FS,4,num_2,48,None,,,,2017_Apr_13_1910,60.007179009,MAFE4ImagesEEG,001,100136,
AFNE01.JPG,AFNE01.JPG,AFNE01.JPG,AFNE01.JPG,AFNE01.JPG,AFNE01.JPG,,,,,0,1,1,0,,,,,,,,,,,,,,,,,,,AFNE19.jpg,AFSA07.jpg,AFSA04.jpg,AFNE13.jpg,AFSA04.jpg,FS,4,num_2,48,None,,,,2017_Apr_13_1910,60.007179009,MAFE4ImagesEEG,001,100136,
AFNE01.JPG,AFNE01.JPG,AFNE01.JPG,AFNE01.JPG,AFNE01.JPG,AFNE01.JPG,,,,,0,2,2,7,,,,,,,,,,,,,,,,,,,AFNE20.jpg,AFNE07.jpg,AFSA20.jpg,AFSA19.jpg,AFSA19.jpg,FS,4,num_4,48,None,,,,2017_Apr_13_1910,60.007179009,MAFE4ImagesEEG,001,100136,
AFNE01.JPG,AFNE01.JPG,AFNE01.JPG,AFNE01.JPG,AFNE01.JPG,AFNE01.JPG,,,,,0,3,3,1,,,,,,,,,,,,,,,,,,,AFNE17.jpg,AFSA12.jpg,AFNE15.jpg,AFSA01.jpg,AFNE17.jpg,FN,3,num_8,48,None,,,,2017_Apr_13_1910,60.007179009,MAFE4ImagesEEG,001,100136,
AFNE01.JPG,AFNE01.JPG,AFNE01.JPG,AFNE01.JPG,AFNE01.JPG,AFNE01.JPG,,,,,0,4,4,4,,,,,,,,,,,,,,,,,,,AFSA03.jpg,AFNE16.jpg,AFNE19.jpg,AFSA07.jpg,AFNE16.jpg,FN,3,num_6,48,None,,,,2017_Apr_13_1910,60.007179009,MAFE4ImagesEEG,001,100136,
AFNE01.JPG,AFNE01.JPG,AFNE01.JPG,AFNE01.JPG,AFNE01.JPG,AFNE01.JPG,,,,,0,5,5,8,,,,,,,,,,,,,,,,,,,AFNE07.jpg,AFSA14.jpg,AFNE09.jpg,AFSA02.jpg,AFNE07.jpg,FN,3,num_8,48,None,,,,2017_Apr_13_1910,60.007179009,MAFE4ImagesEEG,001,100136,
AFNE01.JPG,AFNE01.JPG,AFNE01.JPG,AFNE01.JPG,AFNE01.JPG,AFNE01.JPG,,,,,0,6,6,3,,,,,,,,,,,,,,,,,,,AFNE20.jpg,AFSA17.jpg,AFSA20.jpg,AFNE02.jpg,AFNE02.jpg,FN,3,num_4,48,None,,,,2017_Apr_13_1910,60.007179009,MAFE4ImagesEEG,001,100136,
AFNE01.JPG,AFNE01.JPG,AFNE01.JPG,AFNE01.JPG,AFNE01.JPG,AFNE01.JPG,,,,,0,7,7,6,,,,,,,,,,,,,,,,,,,AFSA09.jpg,AFNE02.jpg,AFNE13.jpg,AFSA01.jpg,AFNE02.jpg,FN,3,num_6,48,None,,,,2017_Apr_13_1910,60.007179009,MAFE4ImagesEEG,001,100136,
AFNE01.JPG,AFNE01.JPG,AFNE01.JPG,AFNE01.JPG,AFNE01.JPG,AFNE01.JPG,,,,,0,8,8,2,,,,,,,,,,,,,,,,,,,AFSA08.jpg,AFNE14.jpg,AFSA01.jpg,AFNE17.jpg,AFSA01.jpg,FS,4,num_2,48,None,,,,2017_Apr_13_1910,60.007179009,MAFE4ImagesEEG,001,100136,
AFNE01.JPG,AFNE01.JPG,AFNE01.JPG,AFNE01.JPG,AFNE01.JPG,AFNE01.JPG,,,,,0,9,9,5,,,,,,,,,,,,,,,,,,,AFSA08.jpg,AFSA11.jpg,AFNE12.jpg,AFNE07.jpg,AFSA11.jpg,FS,4,num_6,48,None,,,,2017_Apr_13_1910,60.007179009,MAFE4ImagesEEG,001,100136,
AFNE01.JPG,AFNE01.JPG,AFNE01.JPG,AFNE01.JPG,AFNE01.JPG,AFNE01.JPG,,,,,1,0,10,9,,,,,,,,,,,,,,,,,,,AFSA14.jpg,AFNE05.jpg,AFSA08.jpg,AFNE20.jpg,AFNE20.jpg,FN,3,num_4,48,None,,,,2017_Apr_13_1910,60.007179009,MAFE4ImagesEEG,001,100136,
AFNE01.JPG,AFNE01.JPG,AFNE01.JPG,AFNE01.JPG,AFNE01.JPG,AFNE01.JPG,,,,,1,1,11,0,,,,,,,,,,,,,,,,,,,AFNE03.jpg,AFSA09.jpg,AFSA15.jpg,AFNE13.jpg,AFNE03.jpg,FN,3,num_8,48,None,,,,2017_Apr_13_1910,60.007179009,MAFE4ImagesEEG,001,100136,
AFNE01.JPG,AFNE01.JPG,AFNE01.JPG,AFNE01.JPG,AFNE01.JPG,AFNE01.JPG,,,,,1,2,12,4,,,,,,,,,,,,,,,,,,,AFSA16.jpg,AFNE11.jpg,AFSA03.jpg,AFNE17.jpg,AFSA03.jpg,FS,4,num_2,48,None,,,,2017_Apr_13_1910,60.007179009,MAFE4ImagesEEG,001,100136,
AFNE01.JPG,AFNE01.JPG,AFNE01.JPG,AFNE01.JPG,AFNE01.JPG,AFNE01.JPG,,,,,1,3,13,5,,,,,,,,,,,,,,,,,,,AFNE08.jpg,AFSA06.jpg,AFNE05.jpg,AFSA10.jpg,AFSA06.jpg,FS,4,num_6,48,None,,,,2017_Apr_13_1910,60.007179009,MAFE4ImagesEEG,001,100136,
AFNE01.JPG,AFNE01.JPG,AFNE01.JPG,AFNE01.JPG,AFNE01.JPG,AFNE01.JPG,,,,,1,4,14,8,,,,,,,,,,,,,,,,,,,AFNE08.jpg,AFNE13.jpg,AFSA08.jpg,AFSA01.jpg,AFNE13.jpg,FN,3,num_6,48,None,,,,2017_Apr_13_1910,60.007179009,MAFE4ImagesEEG,001,100136,
AFNE01.JPG,AFNE01.JPG,AFNE01.JPG,AFNE01.JPG,AFNE01.JPG,AFNE01.JPG,,,,,1,5,15,6,,,,,,,,,,,,,,,,,,,AFSA19.jpg,AFSA15.jpg,AFNE05.jpg,AFNE19.jpg,AFNE05.jpg,FN,3,num_2,48,None,,,,2017_Apr_13_1910,60.007179009,MAFE4ImagesEEG,001,100136,
AFNE01.JPG,AFNE01.JPG,AFNE01.JPG,AFNE01.JPG,AFNE01.JPG,AFNE01.JPG,,,,,1,6,16,7,,,,,,,,,,,,,,,,,,,AFSA09.jpg,AFSA11.jpg,AFNE02.jpg,AFNE03.jpg,AFSA09.jpg,FS,4,num_8,48,None,,,,2017_Apr_13_1910,60.007179009,MAFE4ImagesEEG,001,100136,
AFNE01.JPG,AFNE01.JPG,AFNE01.JPG,AFNE01.JPG,AFNE01.JPG,AFNE01.JPG,,,,,1,7,17,1,,,,,,,,,,,,,,,,,,,AFNE18.jpg,AFSA13.jpg,AFNE20.jpg,AFSA11.jpg,AFSA13.jpg,FS,4,num_6,48,None,,,,2017_Apr_13_1910,60.007179009,MAFE4ImagesEEG,001,100136,
AFNE01.JPG,AFNE01.JPG,AFNE01.JPG,AFNE01.JPG,AFNE01.JPG,AFNE01.JPG,,,,,1,8,18,3,,,,,,,,,,,,,,,,,,,AFNE16.jpg,AFSA08.jpg,AFSA06.jpg,AFNE08.jpg,AFNE16.jpg,FN,3,num_8,48,None,,,,2017_Apr_13_1910,60.007179009,MAFE4ImagesEEG,001,100136,
AFNE01.JPG,AFNE01.JPG,AFNE01.JPG,AFNE01.JPG,AFNE01.JPG,AFNE01.JPG,,,,,1,9,19,2,,,,,,,,,,,,,,,,,,,AFNE03.jpg,AFSA13.jpg,AFSA04.jpg,AFNE01.jpg,AFNE03.jpg,FN,3,num_8,48,None,,,,2017_Apr_13_1910,60.007179009,MAFE4ImagesEEG,001,100136,
AFNE01.JPG,AFNE01.JPG,AFNE01.JPG,AFNE01.JPG,AFNE01.JPG,AFNE01.JPG,,,,,2,0,20,4,,,,,,,,,,,,,,,,,,,AFNE16.jpg,AFSA09.jpg,AFSA13.jpg,AFNE15.jpg,AFNE16.jpg,FN,3,num_8,48,None,,,,2017_Apr_13_1910,60.007179009,MAFE4ImagesEEG,001,100136,
AFNE01.JPG,AFNE01.JPG,AFNE01.JPG,AFNE01.JPG,AFNE01.JPG,AFNE01.JPG,,,,,2,1,21,2,,,,,,,,,,,,,,,,,,,AFSA08.jpg,AFNE12.jpg,AFSA16.jpg,AFNE02.jpg,AFSA08.jpg,FS,4,num_8,48,None,,,,2017_Apr_13_1910,60.007179009,MAFE4ImagesEEG,001,100136,
AFNE01.JPG,AFNE01.JPG,AFNE01.JPG,AFNE01.JPG,AFNE01.JPG,AFNE01.JPG,,,,,2,2,22,8,,,,,,,,,,,,,,,,,,,AFNE06.jpg,AFSA06.jpg,AFNE16.jpg,AFSA03.jpg,AFNE16.jpg,FN,3,num_2,48,None,,,,2017_Apr_13_1910,60.007179009,MAFE4ImagesEEG,001,100136,
AFNE01.JPG,AFNE01.JPG,AFNE01.JPG,AFNE01.JPG,AFNE01.JPG,AFNE01.JPG,,,,,2,3,23,7,,,,,,,,,,,,,,,,,,,AFSA07.jpg,AFNE07.jpg,AFNE15.jpg,AFSA12.jpg,AFSA12.jpg,FS,4,num_4,48,None,,,,2017_Apr_13_1910,60.007179009,MAFE4ImagesEEG,001,100136,
AFNE01.JPG,AFNE01.JPG,AFNE01.JPG,AFNE01.JPG,AFNE01.JPG,AFNE01.JPG,,,,,2,4,24,1,,,,,,,,,,,,,,,,,,,AFNE16.jpg,AFSA09.jpg,AFSA17.jpg,AFNE13.jpg,AFSA09.jpg,FS,4,num_6,48,None,,,,2017_Apr_13_1910,60.007179009,MAFE4ImagesEEG,001,100136,
AFNE01.JPG,AFNE01.JPG,AFNE01.JPG,AFNE01.JPG,AFNE01.JPG,AFNE01.JPG,,,,,2,5,25,5,,,,,,,,,,,,,,,,,,,AFNE03.jpg,AFNE07.jpg,AFSA01.jpg,AFSA03.jpg,AFNE03.jpg,FN,3,num_8,48,None,,,,2017_Apr_13_1910,60.007179009,MAFE4ImagesEEG,001,100136,
AFNE01.JPG,AFNE01.JPG,AFNE01.JPG,AFNE01.JPG,AFNE01.JPG,AFNE01.JPG,,,,,2,6,26,3,,,,,,,,,,,,,,,,,,,AFSA13.jpg,AFNE06.jpg,AFNE08.jpg,AFSA08.jpg,AFNE08.jpg,FN,3,num_2,48,None,,,,2017_Apr_13_1910,60.007179009,MAFE4ImagesEEG,001,100136,
AFNE01.JPG,AFNE01.JPG,AFNE01.JPG,AFNE01.JPG,AFNE01.JPG,AFNE01.JPG,,,,,2,7,27,9,,,,,,,,,,,,,,,,,,,AFSA17.jpg,AFNE15.jpg,AFSA09.jpg,AFNE12.jpg,AFSA09.jpg,FS,4,num_2,48,None,,,,2017_Apr_13_1910,60.007179009,MAFE4ImagesEEG,001,100136,
AFNE01.JPG,AFNE01.JPG,AFNE01.JPG,AFNE01.JPG,AFNE01.JPG,AFNE01.JPG,,,,,2,8,28,0,,,,,,,,,,,,,,,,,,,AFSA12.jpg,AFSA04.jpg,AFNE01.jpg,AFNE03.jpg,AFNE01.jpg,FN,3,num_2,48,None,,,,2017_Apr_13_1910,60.007179009,MAFE4ImagesEEG,001,100136,
AFNE01.JPG,AFNE01.JPG,AFNE01.JPG,AFNE01.JPG,AFNE01.JPG,AFNE01.JPG,,,,,2,9,29,6,,,,,,,,,,,,,,,,,,,AFNE02.jpg,AFSA19.jpg,AFSA16.jpg,AFNE09.jpg,AFNE02.jpg,FN,3,num_8,48,None,,,,2017_Apr_13_1910,60.007179009,MAFE4ImagesEEG,001,100136,
AFNE01.JPG,AFNE01.JPG,AFNE01.JPG,AFNE01.JPG,AFNE01.JPG,AFNE01.JPG,,,,,3,0,30,7,,,,,,,,,,,,,,,,,,,AFNE18.jpg,AFSA01.jpg,AFNE20.jpg,AFSA05.jpg,AFNE20.jpg,FN,3,num_2,48,None,,,,2017_Apr_13_1910,60.007179009,MAFE4ImagesEEG,001,100136,
AFNE01.JPG,AFNE01.JPG,AFNE01.JPG,AFNE01.JPG,AFNE01.JPG,AFNE01.JPG,,,,,3,1,31,5,,,,,,,,,,,,,,,,,,,AFNE06.jpg,AFNE14.jpg,AFSA13.jpg,AFSA19.jpg,AFSA13.jpg,FS,4,num_2,48,None,,,,2017_Apr_13_1910,60.007179009,MAFE4ImagesEEG,001,100136,
AFNE01.JPG,AFNE01.JPG,AFNE01.JPG,AFNE01.JPG,AFNE01.JPG,AFNE01.JPG,,,,,3,2,32,3,,,,,,,,,,,,,,,,,,,AFSA15.jpg,AFSA18.jpg,AFNE14.jpg,AFNE08.jpg,AFNE08.jpg,FN,3,num_4,48,None,,,,2017_Apr_13_1910,60.007179009,MAFE4ImagesEEG,001,100136,
AFNE01.JPG,AFNE01.JPG,AFNE01.JPG,AFNE01.JPG,AFNE01.JPG,AFNE01.JPG,,,,,3,3,33,4,,,,,,,,,,,,,,,,,,,AFNE02.jpg,AFSA18.jpg,AFSA13.jpg,AFNE01.jpg,AFSA13.jpg,FS,4,num_2,48,None,,,,2017_Apr_13_1910,60.007179009,MAFE4ImagesEEG,001,100136,
AFNE01.JPG,AFNE01.JPG,AFNE01.JPG,AFNE01.JPG,AFNE01.JPG,AFNE01.JPG,,,,,3,4,34,6,,,,,,,,,,,,,,,,,,,AFNE02.jpg,AFNE01.jpg,AFSA06.jpg,AFSA03.jpg,AFNE02.jpg,FN,3,num_8,48,None,,,,2017_Apr_13_1910,60.007179009,MAFE4ImagesEEG,001,100136,
AFNE01.JPG,AFNE01.JPG,AFNE01.JPG,AFNE01.JPG,AFNE01.JPG,AFNE01.JPG,,,,,3,5,35,1,,,,,,,,,,,,,,,,,,,AFSA12.jpg,AFSA02.jpg,AFNE09.jpg,AFNE04.jpg,AFSA12.jpg,FS,4,num_8,48,None,,,,2017_Apr_13_1910,60.007179009,MAFE4ImagesEEG,001,100136,
AFNE01.JPG,AFNE01.JPG,AFNE01.JPG,AFNE01.JPG,AFNE01.JPG,AFNE01.JPG,,,,,3,6,36,8,,,,,,,,,,,,,,,,,,,AFSA01.jpg,AFSA09.jpg,AFNE17.jpg,AFNE13.jpg,AFSA09.jpg,FS,4,num_6,48,None,,,,2017_Apr_13_1910,60.007179009,MAFE4ImagesEEG,001,100136,
AFNE01.JPG,AFNE01.JPG,AFNE01.JPG,AFNE01.JPG,AFNE01.JPG,AFNE01.JPG,,,,,3,7,37,9,,,,,,,,,,,,,,,,,,,AFSA07.jpg,AFNE05.jpg,AFNE19.jpg,AFSA09.jpg,AFSA09.jpg,FS,4,num_4,48,None,,,,2017_Apr_13_1910,60.007179009,MAFE4ImagesEEG,001,100136,
AFNE01.JPG,AFNE01.JPG,AFNE01.JPG,AFNE01.JPG,AFNE01.JPG,AFNE01.JPG,,,,,3,8,38,0,,,,,,,,,,,,,,,,,,,AFSA20.jpg,AFSA16.jpg,AFNE17.jpg,AFNE20.jpg,AFNE17.jpg,FN,3,num_2,48,None,,,,2017_Apr_13_1910,60.007179009,MAFE4ImagesEEG,001,100136,
AFNE01.JPG,AFNE01.JPG,AFNE01.JPG,AFNE01.JPG,AFNE01.JPG,AFNE01.JPG,,,,,3,9,39,2,,,,,,,,,,,,,,,,,,,AFNE13.jpg,AFNE14.jpg,AFSA18.jpg,AFSA11.jpg,AFNE13.jpg,FN,3,num_8,48,None,,,,2017_Apr_13_1910,60.007179009,MAFE4ImagesEEG,001,100136,
AFNE01.JPG,AFNE01.JPG,AFNE01.JPG,AFNE01.JPG,AFNE01.JPG,AFNE01.JPG,,,,,4,0,40,1,,,,,,,,,,,,,,,,,,,AFSA01.jpg,AFSA03.jpg,AFNE08.jpg,AFNE06.jpg,AFSA01.jpg,FS,4,num_8,48,None,,,,2017_Apr_13_1910,60.007179009,MAFE4ImagesEEG,001,100136,
AFNE01.JPG,AFNE01.JPG,AFNE01.JPG,AFNE01.JPG,AFNE01.JPG,AFNE01.JPG,,,,,4,1,41,5,,,,,,,,,,,,,,,,,,,AFSA03.jpg,AFSA11.jpg,AFNE03.jpg,AFNE15.jpg,AFNE03.jpg,FN,3,num_2,48,None,,,,2017_Apr_13_1910,60.007179009,MAFE4ImagesEEG,001,100136,
AFNE01.JPG,AFNE01.JPG,AFNE01.JPG,AFNE01.JPG,AFNE01.JPG,AFNE01.JPG,,,,,4,2,42,0,,,,,,,,,,,,,,,,,,,AFSA09.jpg,AFNE18.jpg,AFSA17.jpg,AFNE06.jpg,AFSA17.jpg,FS,4,num_2,48,None,,,,2017_Apr_13_1910,60.007179009,MAFE4ImagesEEG,001,100136,
AFNE01.JPG,AFNE01.JPG,AFNE01.JPG,AFNE01.JPG,AFNE01.JPG,AFNE01.JPG,,,,,4,3,43,4,,,,,,,,,,,,,,,,,,,AFNE15.jpg,AFSA12.jpg,AFNE11.jpg,AFSA17.jpg,AFSA12.jpg,FS,4,num_6,48,None,,,,2017_Apr_13_1910,60.007179009,MAFE4ImagesEEG,001,100136,
AFNE01.JPG,AFNE01.JPG,AFNE01.JPG,AFNE01.JPG,AFNE01.JPG,AFNE01.JPG,,,,,4,4,44,7,,,,,,,,,,,,,,,,,,,AFSA14.jpg,AFNE20.jpg,AFNE08.jpg,AFSA02.jpg,AFSA14.jpg,FS,4,num_8,48,None,,,,2017_Apr_13_1910,60.007179009,MAFE4ImagesEEG,001,100136,
AFNE01.JPG,AFNE01.JPG,AFNE01.JPG,AFNE01.JPG,AFNE01.JPG,AFNE01.JPG,,,,,4,5,45,6,,,,,,,,,,,,,,,,,,,AFNE05.jpg,AFSA15.jpg,AFSA01.jpg,AFNE03.jpg,AFNE03.jpg,FN,3,num_4,48,None,,,,2017_Apr_13_1910,60.007179009,MAFE4ImagesEEG,001,100136,
AFNE01.JPG,AFNE01.JPG,AFNE01.JPG,AFNE01.JPG,AFNE01.JPG,AFNE01.JPG,,,,,4,6,46,8,,,,,,,,,,,,,,,,,,,AFNE17.jpg,AFSA20.jpg,AFNE15.jpg,AFSA07.jpg,AFNE15.jpg,FN,3,num_2,48,None,,,,2017_Apr_13_1910,60.007179009,MAFE4ImagesEEG,001,100136,
AFNE01.JPG,AFNE01.JPG,AFNE01.JPG,AFNE01.JPG,AFNE01.JPG,AFNE01.JPG,,,,,4,7,47,2,,,,,,,,,,,,,,,,,,,AFSA15.jpg,AFSA05.jpg,AFNE17.jpg,AFNE06.jpg,AFNE06.jpg,FN,3,num_4,48,None,,,,2017_Apr_13_1910,60.007179009,MAFE4ImagesEEG,001,100136,
AFNE01.JPG,AFNE01.JPG,AFNE01.JPG,AFNE01.JPG,AFNE01.JPG,AFNE01.JPG,,,,,4,8,48,9,,,,,,,,,,,,,,,,,,,AFNE09.jpg,AFNE17.jpg,AFSA14.jpg,AFSA02.jpg,AFSA02.jpg,FS,4,num_4,48,None,,,,2017_Apr_13_1910,60.007179009,MAFE4ImagesEEG,001,100136,
AFNE01.JPG,AFNE01.JPG,AFNE01.JPG,AFNE01.JPG,AFNE01.JPG,AFNE01.JPG,,,,,4,9,49,3,,,,,,,,,,,,,,,,,,,AFSA18.jpg,AFNE07.jpg,AFNE17.jpg,AFSA14.jpg,AFSA18.jpg,FS,4,num_8,48,None,,,,2017_Apr_13_1910,60.007179009,MAFE4ImagesEEG,001,100136,
AFNE01.JPG,AFNE01.JPG,AFNE01.JPG,AFNE01.JPG,AFNE01.JPG,AFNE01.JPG,,,,,5,0,50,9,,,,,,,,,,,,,,,,,,,AFNE16.jpg,AFNE06.jpg,AFSA17.jpg,AFSA05.jpg,AFSA17.jpg,FS,4,num_2,48,None,,,,2017_Apr_13_1910,60.007179009,MAFE4ImagesEEG,001,100136,
AFNE01.JPG,AFNE01.JPG,AFNE01.JPG,AFNE01.JPG,AFNE01.JPG,AFNE01.JPG,,,,,5,1,51,4,,,,,,,,,,,,,,,,,,,AFNE02.jpg,AFSA11.jpg,AFSA06.jpg,AFNE08.jpg,AFSA11.jpg,FS,4,num_6,48,None,,,,2017_Apr_13_1910,60.007179009,MAFE4ImagesEEG,001,100136,
AFNE01.JPG,AFNE01.JPG,AFNE01.JPG,AFNE01.JPG,AFNE01.JPG,AFNE01.JPG,,,,,5,2,52,0,,,,,,,,,,,,,,,,,,,AFSA12.jpg,AFSA18.jpg,AFNE13.jpg,AFNE19.jpg,AFNE19.jpg,FN,3,num_4,48,None,,,,2017_Apr_13_1910,60.007179009,MAFE4ImagesEEG,001,100136,
AFNE01.JPG,AFNE01.JPG,AFNE01.JPG,AFNE01.JPG,AFNE01.JPG,AFNE01.JPG,,,,,5,3,53,7,,,,,,,,,,,,,,,,,,,AFNE20.jpg,AFNE03.jpg,AFSA02.jpg,AFSA13.jpg,AFSA13.jpg,FS,4,num_4,48,None,,,,2017_Apr_13_1910,60.007179009,MAFE4ImagesEEG,001,100136,
AFNE01.JPG,AFNE01.JPG,AFNE01.JPG,AFNE01.JPG,AFNE01.JPG,AFNE01.JPG,,,,,5,4,54,8,,,,,,,,,,,,,,,,,,,AFSA06.jpg,AFNE20.jpg,AFSA20.jpg,AFNE18.jpg,AFSA06.jpg,FS,4,num_8,48,None,,,,2017_Apr_13_1910,60.007179009,MAFE4ImagesEEG,001,100136,
AFNE01.JPG,AFNE01.JPG,AFNE01.JPG,AFNE01.JPG,AFNE01.JPG,AFNE01.JPG,,,,,5,5,55,3,,,,,,,,,,,,,,,,,,,AFNE03.jpg,AFSA13.jpg,AFSA07.jpg,AFNE20.jpg,AFNE03.jpg,FN,3,num_8,48,None,,,,2017_Apr_13_1910,60.007179009,MAFE4ImagesEEG,001,100136,
AFNE01.JPG,AFNE01.JPG,AFNE01.JPG,AFNE01.JPG,AFNE01.JPG,AFNE01.JPG,,,,,5,6,56,5,,,,,,,,,,,,,,,,,,,AFNE04.jpg,AFSA05.jpg,AFSA08.jpg,AFNE14.jpg,AFSA05.jpg,FS,4,num_6,48,None,,,,2017_Apr_13_1910,60.007179009,MAFE4ImagesEEG,001,100136,
AFNE01.JPG,AFNE01.JPG,AFNE01.JPG,AFNE01.JPG,AFNE01.JPG,AFNE01.JPG,,,,,5,7,57,2,,,,,,,,,,,,,,,,,,,AFNE03.jpg,AFSA13.jpg,AFNE05.jpg,AFSA11.jpg,AFNE05.jpg,FN,3,num_2,48,None,,,,2017_Apr_13_1910,60.007179009,MAFE4ImagesEEG,001,100136,
AFNE01.JPG,AFNE01.JPG,AFNE01.JPG,AFNE01.JPG,AFNE01.JPG,AFNE01.JPG,,,,,5,8,58,6,,,,,,,,,,,,,,,,,,,AFSA15.jpg,AFNE06.jpg,AFNE15.jpg,AFSA03.jpg,AFNE15.jpg,FN,3,num_2,48,None,,,,2017_Apr_13_1910,60.007179009,MAFE4ImagesEEG,001,100136,
AFNE01.JPG,AFNE01.JPG,AFNE01.JPG,AFNE01.JPG,AFNE01.JPG,AFNE01.JPG,,,,,5,9,59,1,,,,,,,,,,,,,,,,,,,AFSA09.jpg,AFNE19.jpg,AFSA14.jpg,AFNE01.jpg,AFSA14.jpg,FS,4,num_2,48,None,,,,2017_Apr_13_1910,60.007179009,MAFE4ImagesEEG,001,100136,
,,,,,,,,,,,,,,,,,,,,,,,,,,,,,,,,,,,,,,,,,,,space,3.38324449398,2017_Apr_13_1910,60.007179009,MAFE4ImagesEEG,001,100136,
AFNE01.JPG,AFNE01.JPG,AFNE01.JPG,AFNE01.JPG,AFNE01.JPG,AFNE01.JPG,,,,,,,,,0,0,0,1,,,,,,,,,,,,,,,AMSA03.jpg,AMNE16.jpg,AMNE01.jpg,AMSA12.jpg,AMNE16.jpg,MN,1,num_6,48,None,,,,2017_Apr_13_1910,60.007179009,MAFE4ImagesEEG,001,100136,
AFNE01.JPG,AFNE01.JPG,AFNE01.JPG,AFNE01.JPG,AFNE01.JPG,AFNE01.JPG,,,,,,,,,0,1,1,5,,,,,,,,,,,,,,,AMNE14.jpg,AMSA17.jpg,AMSA14.jpg,AMNE03.jpg,AMSA17.jpg,MS,2,num_6,48,None,,,,2017_Apr_13_1910,60.007179009,MAFE4ImagesEEG,001,100136,
AFNE01.JPG,AFNE01.JPG,AFNE01.JPG,AFNE01.JPG,AFNE01.JPG,AFNE01.JPG,,,,,,,,,0,2,2,8,,,,,,,,,,,,,,,AMSA06.jpg,AMSA07.jpg,AMNE02.jpg,AMNE05.jpg,AMNE05.jpg,MN,1,num_4,48,None,,,,2017_Apr_13_1910,60.007179009,MAFE4ImagesEEG,001,100136,
AFNE01.JPG,AFNE01.JPG,AFNE01.JPG,AFNE01.JPG,AFNE01.JPG,AFNE01.JPG,,,,,,,,,0,3,3,6,,,,,,,,,,,,,,,AMSA16.jpg,AMNE04.jpg,AMNE19.jpg,AMSA19.jpg,AMSA19.jpg,MS,2,num_4,48,None,,,,2017_Apr_13_1910,60.007179009,MAFE4ImagesEEG,001,100136,
AFNE01.JPG,AFNE01.JPG,AFNE01.JPG,AFNE01.JPG,AFNE01.JPG,AFNE01.JPG,,,,,,,,,0,4,4,0,,,,,,,,,,,,,,,AMNE12.jpg,AMSA08.jpg,AMSA05.jpg,AMNE07.jpg,AMNE12.jpg,MN,1,num_8,48,None,,,,2017_Apr_13_1910,60.007179009,MAFE4ImagesEEG,001,100136,
AFNE01.JPG,AFNE01.JPG,AFNE01.JPG,AFNE01.JPG,AFNE01.JPG,AFNE01.JPG,,,,,,,,,0,5,5,2,,,,,,,,,,,,,,,AMSA15.jpg,AMSA05.jpg,AMNE04.jpg,AMNE09.jpg,AMSA05.jpg,MS,2,num_6,48,None,,,,2017_Apr_13_1910,60.007179009,MAFE4ImagesEEG,001,100136,
AFNE01.JPG,AFNE01.JPG,AFNE01.JPG,AFNE01.JPG,AFNE01.JPG,AFNE01.JPG,,,,,,,,,0,6,6,3,,,,,,,,,,,,,,,AMSA16.jpg,AMNE04.jpg,AMNE14.jpg,AMSA07.jpg,AMSA16.jpg,MS,2,num_8,48,None,,,,2017_Apr_13_1910,60.007179009,MAFE4ImagesEEG,001,100136,
AFNE01.JPG,AFNE01.JPG,AFNE01.JPG,AFNE01.JPG,AFNE01.JPG,AFNE01.JPG,,,,,,,,,0,7,7,4,,,,,,,,,,,,,,,AMSA10.jpg,AMNE15.jpg,AMNE02.jpg,AMSA06.jpg,AMNE02.jpg,MN,1,num_2,48,None,,,,2017_Apr_13_1910,60.007179009,MAFE4ImagesEEG,001,100136,
AFNE01.JPG,AFNE01.JPG,AFNE01.JPG,AFNE01.JPG,AFNE01.JPG,AFNE01.JPG,,,,,,,,,0,8,8,7,,,,,,,,,,,,,,,AMNE11.jpg,AMSA08.jpg,AMNE06.jpg,AMSA16.jpg,AMSA08.jpg,MS,2,num_6,48,None,,,,2017_Apr_13_1910,60.007179009,MAFE4ImagesEEG,001,100136,
AFNE01.JPG,AFNE01.JPG,AFNE01.JPG,AFNE01.JPG,AFNE01.JPG,AFNE01.JPG,,,,,,,,,0,9,9,9,,,,,,,,,,,,,,,AMNE08.jpg,AMSA12.jpg,AMNE15.jpg,AMSA18.jpg,AMNE08.jpg,MN,1,num_8,48,None,,,,2017_Apr_13_1910,60.007179009,MAFE4ImagesEEG,001,100136,
AFNE01.JPG,AFNE01.JPG,AFNE01.JPG,AFNE01.JPG,AFNE01.JPG,AFNE01.JPG,,,,,,,,,1,0,10,5,,,,,,,,,,,,,,,AMSA04.jpg,AMSA14.jpg,AMNE17.jpg,AMNE03.jpg,AMNE17.jpg,MN,1,num_2,48,None,,,,2017_Apr_13_1910,60.007179009,MAFE4ImagesEEG,001,100136,
AFNE01.JPG,AFNE01.JPG,AFNE01.JPG,AFNE01.JPG,AFNE01.JPG,AFNE01.JPG,,,,,,,,,1,1,11,3,,,,,,,,,,,,,,,AMSA17.jpg,AMSA07.jpg,AMNE17.jpg,AMNE01.jpg,AMNE01.jpg,MN,1,num_4,48,None,,,,2017_Apr_13_1910,60.007179009,MAFE4ImagesEEG,001,100136,
AFNE01.JPG,AFNE01.JPG,AFNE01.JPG,AFNE01.JPG,AFNE01.JPG,AFNE01.JPG,,,,,,,,,1,2,12,9,,,,,,,,,,,,,,,AMNE19.jpg,AMSA20.jpg,AMNE09.jpg,AMSA17.jpg,AMNE19.jpg,MN,1,num_8,48,None,,,,2017_Apr_13_1910,60.007179009,MAFE4ImagesEEG,001,100136,
AFNE01.JPG,AFNE01.JPG,AFNE01.JPG,AFNE01.JPG,AFNE01.JPG,AFNE01.JPG,,,,,,,,,1,3,13,0,,,,,,,,,,,,,,,AMNE20.jpg,AMSA03.jpg,AMNE01.jpg,AMSA06.jpg,AMSA06.jpg,MS,2,num_4,48,None,,,,2017_Apr_13_1910,60.007179009,MAFE4ImagesEEG,001,100136,
AFNE01.JPG,AFNE01.JPG,AFNE01.JPG,AFNE01.JPG,AFNE01.JPG,AFNE01.JPG,,,,,,,,,1,4,14,1,,,,,,,,,,,,,,,AMNE11.jpg,AMNE04.jpg,AMSA18.jpg,AMSA15.jpg,AMSA15.jpg,MS,2,num_4,48,None,,,,2017_Apr_13_1910,60.007179009,MAFE4ImagesEEG,001,100136,
AFNE01.JPG,AFNE01.JPG,AFNE01.JPG,AFNE01.JPG,AFNE01.JPG,AFNE01.JPG,,,,,,,,,1,5,15,4,,,,,,,,,,,,,,,AMNE10.jpg,AMNE03.jpg,AMSA18.jpg,AMSA04.jpg,AMSA18.jpg,MS,2,num_2,48,None,,,,2017_Apr_13_1910,60.007179009,MAFE4ImagesEEG,001,100136,
AFNE01.JPG,AFNE01.JPG,AFNE01.JPG,AFNE01.JPG,AFNE01.JPG,AFNE01.JPG,,,,,,,,,1,6,16,6,,,,,,,,,,,,,,,AMSA14.jpg,AMNE10.jpg,AMSA03.jpg,AMNE18.jpg,AMNE18.jpg,MN,1,num_4,48,None,,,,2017_Apr_13_1910,60.007179009,MAFE4ImagesEEG,001,100136,
AFNE01.JPG,AFNE01.JPG,AFNE01.JPG,AFNE01.JPG,AFNE01.JPG,AFNE01.JPG,,,,,,,,,1,7,17,2,,,,,,,,,,,,,,,AMSA16.jpg,AMSA04.jpg,AMNE09.jpg,AMNE07.jpg,AMNE09.jpg,MN,1,num_2,48,None,,,,2017_Apr_13_1910,60.007179009,MAFE4ImagesEEG,001,100136,
AFNE01.JPG,AFNE01.JPG,AFNE01.JPG,AFNE01.JPG,AFNE01.JPG,AFNE01.JPG,,,,,,,,,1,8,18,7,,,,,,,,,,,,,,,AMSA05.jpg,AMNE19.jpg,AMNE04.jpg,AMSA13.jpg,AMSA13.jpg,MS,2,num_4,48,None,,,,2017_Apr_13_1910,60.007179009,MAFE4ImagesEEG,001,100136,
AFNE01.JPG,AFNE01.JPG,AFNE01.JPG,AFNE01.JPG,AFNE01.JPG,AFNE01.JPG,,,,,,,,,1,9,19,8,,,,,,,,,,,,,,,AMSA09.jpg,AMSA19.jpg,AMNE04.jpg,AMNE10.jpg,AMNE10.jpg,MN,1,num_4,48,None,,,,2017_Apr_13_1910,60.007179009,MAFE4ImagesEEG,001,100136,
AFNE01.JPG,AFNE01.JPG,AFNE01.JPG,AFNE01.JPG,AFNE01.JPG,AFNE01.JPG,,,,,,,,,2,0,20,7,,,,,,,,,,,,,,,AMNE16.jpg,AMSA03.jpg,AMSA16.jpg,AMNE05.jpg,AMNE16.jpg,MN,1,num_8,48,None,,,,2017_Apr_13_1910,60.007179009,MAFE4ImagesEEG,001,100136,
AFNE01.JPG,AFNE01.JPG,AFNE01.JPG,AFNE01.JPG,AFNE01.JPG,AFNE01.JPG,,,,,,,,,2,1,21,4,,,,,,,,,,,,,,,AMNE02.jpg,AMSA19.jpg,AMSA03.jpg,AMNE14.jpg,AMNE02.jpg,MN,1,num_8,48,None,,,,2017_Apr_13_1910,60.007179009,MAFE4ImagesEEG,001,100136,
AFNE01.JPG,AFNE01.JPG,AFNE01.JPG,AFNE01.JPG,AFNE01.JPG,AFNE01.JPG,,,,,,,,,2,2,22,5,,,,,,,,,,,,,,,AMSA07.jpg,AMNE15.jpg,AMNE11.jpg,AMSA06.jpg,AMSA06.jpg,MS,2,num_4,48,None,,,,2017_Apr_13_1910,60.007179009,MAFE4ImagesEEG,001,100136,
AFNE01.JPG,AFNE01.JPG,AFNE01.JPG,AFNE01.JPG,AFNE01.JPG,AFNE01.JPG,,,,,,,,,2,3,23,2,,,,,,,,,,,,,,,AMSA20.jpg,AMNE06.jpg,AMSA09.jpg,AMNE14.jpg,AMSA09.jpg,MS,2,num_2,48,None,,,,2017_Apr_13_1910,60.007179009,MAFE4ImagesEEG,001,100136,
AFNE01.JPG,AFNE01.JPG,AFNE01.JPG,AFNE01.JPG,AFNE01.JPG,AFNE01.JPG,,,,,,,,,2,4,24,1,,,,,,,,,,,,,,,AMSA13.jpg,AMSA08.jpg,AMNE01.jpg,AMNE18.jpg,AMSA08.jpg,MS,2,num_6,48,None,,,,2017_Apr_13_1910,60.007179009,MAFE4ImagesEEG,001,100136,
AFNE01.JPG,AFNE01.JPG,AFNE01.JPG,AFNE01.JPG,AFNE01.JPG,AFNE01.JPG,,,,,,,,,2,5,25,6,,,,,,,,,,,,,,,AMSA09.jpg,AMNE10.jpg,AMSA07.jpg,AMNE06.jpg,AMNE06.jpg,MN,1,num_4,48,None,,,,2017_Apr_13_1910,60.007179009,MAFE4ImagesEEG,001,100136,
AFNE01.JPG,AFNE01.JPG,AFNE01.JPG,AFNE01.JPG,AFNE01.JPG,AFNE01.JPG,,,,,,,,,2,6,26,9,,,,,,,,,,,,,,,AMNE02.jpg,AMNE13.jpg,AMSA09.jpg,AMSA15.jpg,AMNE13.jpg,MN,1,num_6,48,None,,,,2017_Apr_13_1910,60.007179009,MAFE4ImagesEEG,001,100136,
AFNE01.JPG,AFNE01.JPG,AFNE01.JPG,AFNE01.JPG,AFNE01.JPG,AFNE01.JPG,,,,,,,,,2,7,27,0,,,,,,,,,,,,,,,AMNE01.jpg,AMNE20.jpg,AMSA10.jpg,AMSA20.jpg,AMNE20.jpg,MN,1,num_6,48,None,,,,2017_Apr_13_1910,60.007179009,MAFE4ImagesEEG,001,100136,
AFNE01.JPG,AFNE01.JPG,AFNE01.JPG,AFNE01.JPG,AFNE01.JPG,AFNE01.JPG,,,,,,,,,2,8,28,8,,,,,,,,,,,,,,,AMNE15.jpg,AMSA12.jpg,AMNE16.jpg,AMSA10.jpg,AMNE15.jpg,MN,1,num_8,48,None,,,,2017_Apr_13_1910,60.007179009,MAFE4ImagesEEG,001,100136,
AFNE01.JPG,AFNE01.JPG,AFNE01.JPG,AFNE01.JPG,AFNE01.JPG,AFNE01.JPG,,,,,,,,,2,9,29,3,,,,,,,,,,,,,,,AMSA13.jpg,AMSA19.jpg,AMNE08.jpg,AMNE02.jpg,AMSA13.jpg,MS,2,num_8,48,None,,,,2017_Apr_13_1910,60.007179009,MAFE4ImagesEEG,001,100136,
AFNE01.JPG,AFNE01.JPG,AFNE01.JPG,AFNE01.JPG,AFNE01.JPG,AFNE01.JPG,,,,,,,,,3,0,30,6,,,,,,,,,,,,,,,AMSA02.jpg,AMSA03.jpg,AMNE16.jpg,AMNE11.jpg,AMNE11.jpg,MN,1,num_4,48,None,,,,2017_Apr_13_1910,60.007179009,MAFE4ImagesEEG,001,100136,
AFNE01.JPG,AFNE01.JPG,AFNE01.JPG,AFNE01.JPG,AFNE01.JPG,AFNE01.JPG,,,,,,,,,3,1,31,9,,,,,,,,,,,,,,,AMNE05.jpg,AMNE06.jpg,AMSA11.jpg,AMSA02.jpg,AMNE05.jpg,MN,1,num_8,48,None,,,,2017_Apr_13_1910,60.007179009,MAFE4ImagesEEG,001,100136,
AFNE01.JPG,AFNE01.JPG,AFNE01.JPG,AFNE01.JPG,AFNE01.JPG,AFNE01.JPG,,,,,,,,,3,2,32,3,,,,,,,,,,,,,,,AMSA15.jpg,AMNE08.jpg,AMSA08.jpg,AMNE07.jpg,AMNE08.jpg,MN,1,num_6,48,None,,,,2017_Apr_13_1910,60.007179009,MAFE4ImagesEEG,001,100136,
AFNE01.JPG,AFNE01.JPG,AFNE01.JPG,AFNE01.JPG,AFNE01.JPG,AFNE01.JPG,,,,,,,,,3,3,33,7,,,,,,,,,,,,,,,AMSA15.jpg,AMSA05.jpg,AMNE11.jpg,AMNE02.jpg,AMNE02.jpg,MN,1,num_4,48,None,,,,2017_Apr_13_1910,60.007179009,MAFE4ImagesEEG,001,100136,
AFNE01.JPG,AFNE01.JPG,AFNE01.JPG,AFNE01.JPG,AFNE01.JPG,AFNE01.JPG,,,,,,,,,3,4,34,4,,,,,,,,,,,,,,,AMNE11.jpg,AMSA17.jpg,AMNE03.jpg,AMSA14.jpg,AMSA17.jpg,MS,2,num_6,48,None,,,,2017_Apr_13_1910,60.007179009,MAFE4ImagesEEG,001,100136,
AFNE01.JPG,AFNE01.JPG,AFNE01.JPG,AFNE01.JPG,AFNE01.JPG,AFNE01.JPG,,,,,,,,,3,5,35,0,,,,,,,,,,,,,,,AMNE15.jpg,AMSA01.jpg,AMSA13.jpg,AMNE06.jpg,AMNE06.jpg,MN,1,num_4,48,None,,,,2017_Apr_13_1910,60.007179009,MAFE4ImagesEEG,001,100136,
AFNE01.JPG,AFNE01.JPG,AFNE01.JPG,AFNE01.JPG,AFNE01.JPG,AFNE01.JPG,,,,,,,,,3,6,36,8,,,,,,,,,,,,,,,AMNE13.jpg,AMNE15.jpg,AMSA04.jpg,AMSA05.jpg,AMSA04.jpg,MS,2,num_2,48,None,,,,2017_Apr_13_1910,60.007179009,MAFE4ImagesEEG,001,100136,
AFNE01.JPG,AFNE01.JPG,AFNE01.JPG,AFNE01.JPG,AFNE01.JPG,AFNE01.JPG,,,,,,,,,3,7,37,5,,,,,,,,,,,,,,,AMNE20.jpg,AMSA09.jpg,AMNE09.jpg,AMSA18.jpg,AMNE09.jpg,MN,1,num_2,48,None,,,,2017_Apr_13_1910,60.007179009,MAFE4ImagesEEG,001,100136,
AFNE01.JPG,AFNE01.JPG,AFNE01.JPG,AFNE01.JPG,AFNE01.JPG,AFNE01.JPG,,,,,,,,,3,8,38,2,,,,,,,,,,,,,,,AMSA17.jpg,AMSA05.jpg,AMNE14.jpg,AMNE16.jpg,AMNE14.jpg,MN,1,num_2,48,None,,,,2017_Apr_13_1910,60.007179009,MAFE4ImagesEEG,001,100136,
AFNE01.JPG,AFNE01.JPG,AFNE01.JPG,AFNE01.JPG,AFNE01.JPG,AFNE01.JPG,,,,,,,,,3,9,39,1,,,,,,,,,,,,,,,AMNE03.jpg,AMSA18.jpg,AMSA04.jpg,AMNE13.jpg,AMNE13.jpg,MN,1,num_4,48,None,,,,2017_Apr_13_1910,60.007179009,MAFE4ImagesEEG,001,100136,
AFNE01.JPG,AFNE01.JPG,AFNE01.JPG,AFNE01.JPG,AFNE01.JPG,AFNE01.JPG,,,,,,,,,4,0,40,9,,,,,,,,,,,,,,,AMSA09.jpg,AMNE01.jpg,AMSA01.jpg,AMNE20.jpg,AMNE01.jpg,MN,1,num_6,48,None,,,,2017_Apr_13_1910,60.007179009,MAFE4ImagesEEG,001,100136,
AFNE01.JPG,AFNE01.JPG,AFNE01.JPG,AFNE01.JPG,AFNE01.JPG,AFNE01.JPG,,,,,,,,,4,1,41,6,,,,,,,,,,,,,,,AMSA18.jpg,AMNE12.jpg,AMNE04.jpg,AMSA06.jpg,AMSA06.jpg,MS,2,num_4,48,None,,,,2017_Apr_13_1910,60.007179009,MAFE4ImagesEEG,001,100136,
AFNE01.JPG,AFNE01.JPG,AFNE01.JPG,AFNE01.JPG,AFNE01.JPG,AFNE01.JPG,,,,,,,,,4,2,42,1,,,,,,,,,,,,,,,AMSA20.jpg,AMNE20.jpg,AMNE01.jpg,AMSA14.jpg,AMSA20.jpg,MS,2,num_8,48,None,,,,2017_Apr_13_1910,60.007179009,MAFE4ImagesEEG,001,100136,
AFNE01.JPG,AFNE01.JPG,AFNE01.JPG,AFNE01.JPG,AFNE01.JPG,AFNE01.JPG,,,,,,,,,4,3,43,7,,,,,,,,,,,,,,,AMNE20.jpg,AMSA16.jpg,AMSA15.jpg,AMNE14.jpg,AMSA16.jpg,MS,2,num_6,48,None,,,,2017_Apr_13_1910,60.007179009,MAFE4ImagesEEG,001,100136,
AFNE01.JPG,AFNE01.JPG,AFNE01.JPG,AFNE01.JPG,AFNE01.JPG,AFNE01.JPG,,,,,,,,,4,4,44,4,,,,,,,,,,,,,,,AMNE11.jpg,AMSA13.jpg,AMSA10.jpg,AMNE15.jpg,AMNE15.jpg,MN,1,num_4,48,None,,,,2017_Apr_13_1910,60.007179009,MAFE4ImagesEEG,001,100136,
AFNE01.JPG,AFNE01.JPG,AFNE01.JPG,AFNE01.JPG,AFNE01.JPG,AFNE01.JPG,,,,,,,,,4,5,45,0,,,,,,,,,,,,,,,AMSA02.jpg,AMNE04.jpg,AMNE11.jpg,AMSA17.jpg,AMNE11.jpg,MN,1,num_2,48,None,,,,2017_Apr_13_1910,60.007179009,MAFE4ImagesEEG,001,100136,
AFNE01.JPG,AFNE01.JPG,AFNE01.JPG,AFNE01.JPG,AFNE01.JPG,AFNE01.JPG,,,,,,,,,4,6,46,2,,,,,,,,,,,,,,,AMNE14.jpg,AMSA10.jpg,AMNE08.jpg,AMSA01.jpg,AMSA10.jpg,MS,2,num_6,48,None,,,,2017_Apr_13_1910,60.007179009,MAFE4ImagesEEG,001,100136,
AFNE01.JPG,AFNE01.JPG,AFNE01.JPG,AFNE01.JPG,AFNE01.JPG,AFNE01.JPG,,,,,,,,,4,7,47,8,,,,,,,,,,,,,,,AMSA10.jpg,AMNE06.jpg,AMSA05.jpg,AMNE05.jpg,AMSA05.jpg,MS,2,num_2,48,None,,,,2017_Apr_13_1910,60.007179009,MAFE4ImagesEEG,001,100136,
AFNE01.JPG,AFNE01.JPG,AFNE01.JPG,AFNE01.JPG,AFNE01.JPG,AFNE01.JPG,,,,,,,,,4,8,48,3,,,,,,,,,,,,,,,AMNE09.jpg,AMNE12.jpg,AMSA11.jpg,AMSA14.jpg,AMNE09.jpg,MN,1,num_8,48,None,,,,2017_Apr_13_1910,60.007179009,MAFE4ImagesEEG,001,100136,
AFNE01.JPG,AFNE01.JPG,AFNE01.JPG,AFNE01.JPG,AFNE01.JPG,AFNE01.JPG,,,,,,,,,4,9,49,5,,,,,,,,,,,,,,,AMNE08.jpg,AMNE03.jpg,AMSA06.jpg,AMSA15.jpg,AMSA06.jpg,MS,2,num_2,48,None,,,,2017_Apr_13_1910,60.007179009,MAFE4ImagesEEG,001,100136,
AFNE01.JPG,AFNE01.JPG,AFNE01.JPG,AFNE01.JPG,AFNE01.JPG,AFNE01.JPG,,,,,,,,,5,0,50,3,,,,,,,,,,,,,,,AMNE15.jpg,AMSA20.jpg,AMSA17.jpg,AMNE14.jpg,AMSA17.jpg,MS,2,num_2,48,None,,,,2017_Apr_13_1910,60.007179009,MAFE4ImagesEEG,001,100136,
AFNE01.JPG,AFNE01.JPG,AFNE01.JPG,AFNE01.JPG,AFNE01.JPG,AFNE01.JPG,,,,,,,,,5,1,51,7,,,,,,,,,,,,,,,AMNE18.jpg,AMSA06.jpg,AMNE15.jpg,AMSA18.jpg,AMSA18.jpg,MS,2,num_4,48,None,,,,2017_Apr_13_1910,60.007179009,MAFE4ImagesEEG,001,100136,
AFNE01.JPG,AFNE01.JPG,AFNE01.JPG,AFNE01.JPG,AFNE01.JPG,AFNE01.JPG,,,,,,,,,5,2,52,8,,,,,,,,,,,,,,,AMNE09.jpg,AMSA13.jpg,AMNE17.jpg,AMSA09.jpg,AMNE09.jpg,MN,1,num_8,48,None,,,,2017_Apr_13_1910,60.007179009,MAFE4ImagesEEG,001,100136,
AFNE01.JPG,AFNE01.JPG,AFNE01.JPG,AFNE01.JPG,AFNE01.JPG,AFNE01.JPG,,,,,,,,,5,3,53,2,,,,,,,,,,,,,,,AMNE06.jpg,AMSA16.jpg,AMSA07.jpg,AMNE04.jpg,AMNE06.jpg,MN,1,num_8,48,None,,,,2017_Apr_13_1910,60.007179009,MAFE4ImagesEEG,001,100136,
AFNE01.JPG,AFNE01.JPG,AFNE01.JPG,AFNE01.JPG,AFNE01.JPG,AFNE01.JPG,,,,,,,,,5,4,54,5,,,,,,,,,,,,,,,AMNE20.jpg,AMNE05.jpg,AMSA12.jpg,AMSA05.jpg,AMSA05.jpg,MS,2,num_4,48,None,,,,2017_Apr_13_1910,60.007179009,MAFE4ImagesEEG,001,100136,
AFNE01.JPG,AFNE01.JPG,AFNE01.JPG,AFNE01.JPG,AFNE01.JPG,AFNE01.JPG,,,,,,,,,5,5,55,9,,,,,,,,,,,,,,,AMSA07.jpg,AMNE04.jpg,AMSA02.jpg,AMNE16.jpg,AMNE16.jpg,MN,1,num_4,48,None,,,,2017_Apr_13_1910,60.007179009,MAFE4ImagesEEG,001,100136,
AFNE01.JPG,AFNE01.JPG,AFNE01.JPG,AFNE01.JPG,AFNE01.JPG,AFNE01.JPG,,,,,,,,,5,6,56,4,,,,,,,,,,,,,,,AMSA11.jpg,AMNE16.jpg,AMNE15.jpg,AMSA10.jpg,AMSA10.jpg,MS,2,num_4,48,None,,,,2017_Apr_13_1910,60.007179009,MAFE4ImagesEEG,001,100136,
AFNE01.JPG,AFNE01.JPG,AFNE01.JPG,AFNE01.JPG,AFNE01.JPG,AFNE01.JPG,,,,,,,,,5,7,57,0,,,,,,,,,,,,,,,AMNE07.jpg,AMSA15.jpg,AMSA06.jpg,AMNE15.jpg,AMSA06.jpg,MS,2,num_2,48,None,,,,2017_Apr_13_1910,60.007179009,MAFE4ImagesEEG,001,100136,
AFNE01.JPG,AFNE01.JPG,AFNE01.JPG,AFNE01.JPG,AFNE01.JPG,AFNE01.JPG,,,,,,,,,5,8,58,1,,,,,,,,,,,,,,,AMSA08.jpg,AMNE08.jpg,AMSA04.jpg,AMNE12.jpg,AMNE08.jpg,MN,1,num_6,48,None,,,,2017_Apr_13_1910,60.007179009,MAFE4ImagesEEG,001,100136,
AFNE01.JPG,AFNE01.JPG,AFNE01.JPG,AFNE01.JPG,AFNE01.JPG,AFNE01.JPG,,,,,,,,,5,9,59,6,,,,,,,,,,,,,,,AMNE14.jpg,AMSA13.jpg,AMSA20.jpg,AMNE01.jpg,AMNE01.jpg,MN,1,num_4,48,None,,,,2017_Apr_13_1910,60.007179009,MAFE4ImagesEEG,001,100136,
,,,,,,,,,,,,,,,,,,,,,,,,,,,,,,,,,,,,,,,,,,,space,2.69997078041,2017_Apr_13_1910,60.007179009,MAFE4ImagesEEG,001,100136,
AFNE01.JPG,AFNE01.JPG,AFNE01.JPG,AFNE01.JPG,AFNE01.JPG,AFNE01.JPG,,,,,,,,,,,,,0,0,0,2,,,,,,,,,,,AFNE15.jpg,AFNE11.jpg,AFSA17.jpg,AFSA14.jpg,AFSA17.jpg,FS,4,num_2,48,None,,,,2017_Apr_13_1910,60.007179009,MAFE4ImagesEEG,001,100136,
AFNE01.JPG,AFNE01.JPG,AFNE01.JPG,AFNE01.JPG,AFNE01.JPG,AFNE01.JPG,,,,,,,,,,,,,0,1,1,6,,,,,,,,,,,AFSA04.jpg,AFSA05.jpg,AFNE13.jpg,AFNE02.jpg,AFSA05.jpg,FS,4,num_6,48,None,,,,2017_Apr_13_1910,60.007179009,MAFE4ImagesEEG,001,100136,
AFNE01.JPG,AFNE01.JPG,AFNE01.JPG,AFNE01.JPG,AFNE01.JPG,AFNE01.JPG,,,,,,,,,,,,,0,2,2,7,,,,,,,,,,,AFNE10.jpg,AFNE04.jpg,AFSA20.jpg,AFSA07.jpg,AFSA20.jpg,FS,4,num_2,48,None,,,,2017_Apr_13_1910,60.007179009,MAFE4ImagesEEG,001,100136,
AFNE01.JPG,AFNE01.JPG,AFNE01.JPG,AFNE01.JPG,AFNE01.JPG,AFNE01.JPG,,,,,,,,,,,,,0,3,3,1,,,,,,,,,,,AFSA16.jpg,AFNE06.jpg,AFNE20.jpg,AFSA02.jpg,AFSA16.jpg,FS,4,num_8,48,None,,,,2017_Apr_13_1910,60.007179009,MAFE4ImagesEEG,001,100136,
AFNE01.JPG,AFNE01.JPG,AFNE01.JPG,AFNE01.JPG,AFNE01.JPG,AFNE01.JPG,,,,,,,,,,,,,0,4,4,9,,,,,,,,,,,AFSA14.jpg,AFNE19.jpg,AFSA16.jpg,AFNE05.jpg,AFSA16.jpg,FS,4,num_2,48,None,,,,2017_Apr_13_1910,60.007179009,MAFE4ImagesEEG,001,100136,
AFNE01.JPG,AFNE01.JPG,AFNE01.JPG,AFNE01.JPG,AFNE01.JPG,AFNE01.JPG,,,,,,,,,,,,,0,5,5,0,,,,,,,,,,,AFSA15.jpg,AFSA02.jpg,AFNE01.jpg,AFNE08.jpg,AFSA15.jpg,FS,4,num_8,48,None,,,,2017_Apr_13_1910,60.007179009,MAFE4ImagesEEG,001,100136,
AFNE01.JPG,AFNE01.JPG,AFNE01.JPG,AFNE01.JPG,AFNE01.JPG,AFNE01.JPG,,,,,,,,,,,,,0,6,6,8,,,,,,,,,,,AFNE03.jpg,AFSA15.jpg,AFSA16.jpg,AFNE16.jpg,AFNE03.jpg,FN,3,num_8,48,None,,,,2017_Apr_13_1910,60.007179009,MAFE4ImagesEEG,001,100136,
AFNE01.JPG,AFNE01.JPG,AFNE01.JPG,AFNE01.JPG,AFNE01.JPG,AFNE01.JPG,,,,,,,,,,,,,0,7,7,4,,,,,,,,,,,AFNE19.jpg,AFNE02.jpg,AFSA05.jpg,AFSA18.jpg,AFNE02.jpg,FN,3,num_6,48,None,,,,2017_Apr_13_1910,60.007179009,MAFE4ImagesEEG,001,100136,
AFNE01.JPG,AFNE01.JPG,AFNE01.JPG,AFNE01.JPG,AFNE01.JPG,AFNE01.JPG,,,,,,,,,,,,,0,8,8,3,,,,,,,,,,,AFNE11.jpg,AFNE16.jpg,AFSA20.jpg,AFSA16.jpg,AFNE11.jpg,FN,3,num_8,48,None,,,,2017_Apr_13_1910,60.007179009,MAFE4ImagesEEG,001,100136,
AFNE01.JPG,AFNE01.JPG,AFNE01.JPG,AFNE01.JPG,AFNE01.JPG,AFNE01.JPG,,,,,,,,,,,,,0,9,9,5,,,,,,,,,,,AFSA17.jpg,AFNE06.jpg,AFSA06.jpg,AFNE17.jpg,AFNE06.jpg,FN,3,num_6,48,None,,,,2017_Apr_13_1910,60.007179009,MAFE4ImagesEEG,001,100136,
AFNE01.JPG,AFNE01.JPG,AFNE01.JPG,AFNE01.JPG,AFNE01.JPG,AFNE01.JPG,,,,,,,,,,,,,1,0,10,3,,,,,,,,,,,AFNE09.jpg,AFSA14.jpg,AFNE19.jpg,AFSA04.jpg,AFSA04.jpg,FS,4,num_4,48,None,,,,2017_Apr_13_1910,60.007179009,MAFE4ImagesEEG,001,100136,
AFNE01.JPG,AFNE01.JPG,AFNE01.JPG,AFNE01.JPG,AFNE01.JPG,AFNE01.JPG,,,,,,,,,,,,,1,1,11,6,,,,,,,,,,,AFNE08.jpg,AFSA02.jpg,AFSA11.jpg,AFNE04.jpg,AFSA02.jpg,FS,4,num_6,48,None,,,,2017_Apr_13_1910,60.007179009,MAFE4ImagesEEG,001,100136,
AFNE01.JPG,AFNE01.JPG,AFNE01.JPG,AFNE01.JPG,AFNE01.JPG,AFNE01.JPG,,,,,,,,,,,,,1,2,12,5,,,,,,,,,,,AFNE14.jpg,AFNE19.jpg,AFSA12.jpg,AFSA15.jpg,AFNE19.jpg,FN,3,num_6,48,None,,,,2017_Apr_13_1910,60.007179009,MAFE4ImagesEEG,001,100136,
AFNE01.JPG,AFNE01.JPG,AFNE01.JPG,AFNE01.JPG,AFNE01.JPG,AFNE01.JPG,,,,,,,,,,,,,1,3,13,0,,,,,,,,,,,AFSA17.jpg,AFNE16.jpg,AFSA18.jpg,AFNE06.jpg,AFSA18.jpg,FS,4,num_2,48,None,,,,2017_Apr_13_1910,60.007179009,MAFE4ImagesEEG,001,100136,
AFNE01.JPG,AFNE01.JPG,AFNE01.JPG,AFNE01.JPG,AFNE01.JPG,AFNE01.JPG,,,,,,,,,,,,,1,4,14,9,,,,,,,,,,,AFNE19.jpg,AFSA04.jpg,AFSA02.jpg,AFNE04.jpg,AFNE04.jpg,FN,3,num_4,48,None,,,,2017_Apr_13_1910,60.007179009,MAFE4ImagesEEG,001,100136,
AFNE01.JPG,AFNE01.JPG,AFNE01.JPG,AFNE01.JPG,AFNE01.JPG,AFNE01.JPG,,,,,,,,,,,,,1,5,15,1,,,,,,,,,,,AFNE15.jpg,AFSA19.jpg,AFSA04.jpg,AFNE18.jpg,AFSA19.jpg,FS,4,num_6,48,None,,,,2017_Apr_13_1910,60.007179009,MAFE4ImagesEEG,001,100136,
AFNE01.JPG,AFNE01.JPG,AFNE01.JPG,AFNE01.JPG,AFNE01.JPG,AFNE01.JPG,,,,,,,,,,,,,1,6,16,2,,,,,,,,,,,AFSA18.jpg,AFNE07.jpg,AFNE12.jpg,AFSA07.jpg,AFSA18.jpg,FS,4,num_8,48,None,,,,2017_Apr_13_1910,60.007179009,MAFE4ImagesEEG,001,100136,
AFNE01.JPG,AFNE01.JPG,AFNE01.JPG,AFNE01.JPG,AFNE01.JPG,AFNE01.JPG,,,,,,,,,,,,,1,7,17,7,,,,,,,,,,,AFSA07.jpg,AFSA20.jpg,AFNE02.jpg,AFNE01.jpg,AFNE01.jpg,FN,3,num_4,48,None,,,,2017_Apr_13_1910,60.007179009,MAFE4ImagesEEG,001,100136,
AFNE01.JPG,AFNE01.JPG,AFNE01.JPG,AFNE01.JPG,AFNE01.JPG,AFNE01.JPG,,,,,,,,,,,,,1,8,18,4,,,,,,,,,,,AFSA05.jpg,AFNE05.jpg,AFNE09.jpg,AFSA15.jpg,AFSA15.jpg,FS,4,num_4,48,None,,,,2017_Apr_13_1910,60.007179009,MAFE4ImagesEEG,001,100136,
AFNE01.JPG,AFNE01.JPG,AFNE01.JPG,AFNE01.JPG,AFNE01.JPG,AFNE01.JPG,,,,,,,,,,,,,1,9,19,8,,,,,,,,,,,AFSA06.jpg,AFNE19.jpg,AFNE08.jpg,AFSA20.jpg,AFSA20.jpg,FS,4,num_4,48,None,,,,2017_Apr_13_1910,60.007179009,MAFE4ImagesEEG,001,100136,
AFNE01.JPG,AFNE01.JPG,AFNE01.JPG,AFNE01.JPG,AFNE01.JPG,AFNE01.JPG,,,,,,,,,,,,,2,0,20,9,,,,,,,,,,,AFNE10.jpg,AFSA07.jpg,AFNE17.jpg,AFSA14.jpg,AFSA14.jpg,FS,4,num_4,48,None,,,,2017_Apr_13_1910,60.007179009,MAFE4ImagesEEG,001,100136,
AFNE01.JPG,AFNE01.JPG,AFNE01.JPG,AFNE01.JPG,AFNE01.JPG,AFNE01.JPG,,,,,,,,,,,,,2,1,21,2,,,,,,,,,,,AFNE05.jpg,AFSA16.jpg,AFSA12.jpg,AFNE17.jpg,AFSA16.jpg,FS,4,num_6,48,None,,,,2017_Apr_13_1910,60.007179009,MAFE4ImagesEEG,001,100136,
AFNE01.JPG,AFNE01.JPG,AFNE01.JPG,AFNE01.JPG,AFNE01.JPG,AFNE01.JPG,,,,,,,,,,,,,2,2,22,0,,,,,,,,,,,AFNE16.jpg,AFNE08.jpg,AFSA07.jpg,AFSA14.jpg,AFSA14.jpg,FS,4,num_4,48,None,,,,2017_Apr_13_1910,60.007179009,MAFE4ImagesEEG,001,100136,
AFNE01.JPG,AFNE01.JPG,AFNE01.JPG,AFNE01.JPG,AFNE01.JPG,AFNE01.JPG,,,,,,,,,,,,,2,3,23,6,,,,,,,,,,,AFSA10.jpg,AFSA09.jpg,AFNE18.jpg,AFNE17.jpg,AFSA09.jpg,FS,4,num_6,48,None,,,,2017_Apr_13_1910,60.007179009,MAFE4ImagesEEG,001,100136,
AFNE01.JPG,AFNE01.JPG,AFNE01.JPG,AFNE01.JPG,AFNE01.JPG,AFNE01.JPG,,,,,,,,,,,,,2,4,24,4,,,,,,,,,,,AFSA09.jpg,AFNE06.jpg,AFSA06.jpg,AFNE13.jpg,AFSA06.jpg,FS,4,num_2,48,None,,,,2017_Apr_13_1910,60.007179009,MAFE4ImagesEEG,001,100136,
AFNE01.JPG,AFNE01.JPG,AFNE01.JPG,AFNE01.JPG,AFNE01.JPG,AFNE01.JPG,,,,,,,,,,,,,2,5,25,7,,,,,,,,,,,AFSA01.jpg,AFSA04.jpg,AFNE16.jpg,AFNE03.jpg,AFNE03.jpg,FN,3,num_4,48,None,,,,2017_Apr_13_1910,60.007179009,MAFE4ImagesEEG,001,100136,
AFNE01.JPG,AFNE01.JPG,AFNE01.JPG,AFNE01.JPG,AFNE01.JPG,AFNE01.JPG,,,,,,,,,,,,,2,6,26,1,,,,,,,,,,,AFNE15.jpg,AFSA18.jpg,AFSA11.jpg,AFNE17.jpg,AFSA11.jpg,FS,4,num_2,48,None,,,,2017_Apr_13_1910,60.007179009,MAFE4ImagesEEG,001,100136,
AFNE01.JPG,AFNE01.JPG,AFNE01.JPG,AFNE01.JPG,AFNE01.JPG,AFNE01.JPG,,,,,,,,,,,,,2,7,27,5,,,,,,,,,,,AFSA20.jpg,AFNE14.jpg,AFNE06.jpg,AFSA18.jpg,AFNE06.jpg,FN,3,num_2,48,None,,,,2017_Apr_13_1910,60.007179009,MAFE4ImagesEEG,001,100136,
AFNE01.JPG,AFNE01.JPG,AFNE01.JPG,AFNE01.JPG,AFNE01.JPG,AFNE01.JPG,,,,,,,,,,,,,2,8,28,3,,,,,,,,,,,AFNE11.jpg,AFNE18.jpg,AFSA08.jpg,AFSA04.jpg,AFNE18.jpg,FN,3,num_6,48,None,,,,2017_Apr_13_1910,60.007179009,MAFE4ImagesEEG,001,100136,
AFNE01.JPG,AFNE01.JPG,AFNE01.JPG,AFNE01.JPG,AFNE01.JPG,AFNE01.JPG,,,,,,,,,,,,,2,9,29,8,,,,,,,,,,,AFSA08.jpg,AFSA13.jpg,AFNE07.jpg,AFNE04.jpg,AFNE07.jpg,FN,3,num_2,48,None,,,,2017_Apr_13_1910,60.007179009,MAFE4ImagesEEG,001,100136,
AFNE01.JPG,AFNE01.JPG,AFNE01.JPG,AFNE01.JPG,AFNE01.JPG,AFNE01.JPG,,,,,,,,,,,,,3,0,30,4,,,,,,,,,,,AFNE10.jpg,AFNE15.jpg,AFSA07.jpg,AFSA05.jpg,AFSA05.jpg,FS,4,num_4,48,None,,,,2017_Apr_13_1910,60.007179009,MAFE4ImagesEEG,001,100136,
AFNE01.JPG,AFNE01.JPG,AFNE01.JPG,AFNE01.JPG,AFNE01.JPG,AFNE01.JPG,,,,,,,,,,,,,3,1,31,5,,,,,,,,,,,AFNE06.jpg,AFNE01.jpg,AFSA11.jpg,AFSA13.jpg,AFNE06.jpg,FN,3,num_8,48,None,,,,2017_Apr_13_1910,60.007179009,MAFE4ImagesEEG,001,100136,
AFNE01.JPG,AFNE01.JPG,AFNE01.JPG,AFNE01.JPG,AFNE01.JPG,AFNE01.JPG,,,,,,,,,,,,,3,2,32,2,,,,,,,,,,,AFSA06.jpg,AFNE05.jpg,AFSA05.jpg,AFNE06.jpg,AFNE06.jpg,FN,3,num_4,48,None,,,,2017_Apr_13_1910,60.007179009,MAFE4ImagesEEG,001,100136,
AFNE01.JPG,AFNE01.JPG,AFNE01.JPG,AFNE01.JPG,AFNE01.JPG,AFNE01.JPG,,,,,,,,,,,,,3,3,33,0,,,,,,,,,,,AFSA12.jpg,AFNE16.jpg,AFSA01.jpg,AFNE11.jpg,AFSA01.jpg,FS,4,num_2,48,None,,,,2017_Apr_13_1910,60.007179009,MAFE4ImagesEEG,001,100136,
AFNE01.JPG,AFNE01.JPG,AFNE01.JPG,AFNE01.JPG,AFNE01.JPG,AFNE01.JPG,,,,,,,,,,,,,3,4,34,6,,,,,,,,,,,AFSA08.jpg,AFNE06.jpg,AFSA03.jpg,AFNE07.jpg,AFSA08.jpg,FS,4,num_8,48,None,,,,2017_Apr_13_1910,60.007179009,MAFE4ImagesEEG,001,100136,
AFNE01.JPG,AFNE01.JPG,AFNE01.JPG,AFNE01.JPG,AFNE01.JPG,AFNE01.JPG,,,,,,,,,,,,,3,5,35,1,,,,,,,,,,,AFSA08.jpg,AFNE16.jpg,AFNE07.jpg,AFSA10.jpg,AFNE16.jpg,FN,3,num_6,48,None,,,,2017_Apr_13_1910,60.007179009,MAFE4ImagesEEG,001,100136,
AFNE01.JPG,AFNE01.JPG,AFNE01.JPG,AFNE01.JPG,AFNE01.JPG,AFNE01.JPG,,,,,,,,,,,,,3,6,36,3,,,,,,,,,,,AFSA09.jpg,AFSA08.jpg,AFNE03.jpg,AFNE10.jpg,AFNE10.jpg,FN,3,num_4,48,None,,,,2017_Apr_13_1910,60.007179009,MAFE4ImagesEEG,001,100136,
AFNE01.JPG,AFNE01.JPG,AFNE01.JPG,AFNE01.JPG,AFNE01.JPG,AFNE01.JPG,,,,,,,,,,,,,3,7,37,8,,,,,,,,,,,AFNE06.jpg,AFSA10.jpg,AFNE04.jpg,AFSA18.jpg,AFNE04.jpg,FN,3,num_2,48,None,,,,2017_Apr_13_1910,60.007179009,MAFE4ImagesEEG,001,100136,
AFNE01.JPG,AFNE01.JPG,AFNE01.JPG,AFNE01.JPG,AFNE01.JPG,AFNE01.JPG,,,,,,,,,,,,,3,8,38,7,,,,,,,,,,,AFNE04.jpg,AFSA05.jpg,AFSA19.jpg,AFNE07.jpg,AFSA19.jpg,FS,4,num_2,48,None,,,,2017_Apr_13_1910,60.007179009,MAFE4ImagesEEG,001,100136,
AFNE01.JPG,AFNE01.JPG,AFNE01.JPG,AFNE01.JPG,AFNE01.JPG,AFNE01.JPG,,,,,,,,,,,,,3,9,39,9,,,,,,,,,,,AFNE15.jpg,AFNE19.jpg,AFSA06.jpg,AFSA01.jpg,AFSA01.jpg,FS,4,num_4,48,None,,,,2017_Apr_13_1910,60.007179009,MAFE4ImagesEEG,001,100136,
AFNE01.JPG,AFNE01.JPG,AFNE01.JPG,AFNE01.JPG,AFNE01.JPG,AFNE01.JPG,,,,,,,,,,,,,4,0,40,8,,,,,,,,,,,AFNE18.jpg,AFSA13.jpg,AFSA15.jpg,AFNE08.jpg,AFNE08.jpg,FN,3,num_4,48,None,,,,2017_Apr_13_1910,60.007179009,MAFE4ImagesEEG,001,100136,
AFNE01.JPG,AFNE01.JPG,AFNE01.JPG,AFNE01.JPG,AFNE01.JPG,AFNE01.JPG,,,,,,,,,,,,,4,1,41,5,,,,,,,,,,,AFNE08.jpg,AFNE02.jpg,AFSA09.jpg,AFSA17.jpg,AFSA09.jpg,FS,4,num_2,48,None,,,,2017_Apr_13_1910,60.007179009,MAFE4ImagesEEG,001,100136,
AFNE01.JPG,AFNE01.JPG,AFNE01.JPG,AFNE01.JPG,AFNE01.JPG,AFNE01.JPG,,,,,,,,,,,,,4,2,42,6,,,,,,,,,,,AFNE18.jpg,AFSA19.jpg,AFSA11.jpg,AFNE11.jpg,AFSA19.jpg,FS,4,num_6,48,None,,,,2017_Apr_13_1910,60.007179009,MAFE4ImagesEEG,001,100136,
AFNE01.JPG,AFNE01.JPG,AFNE01.JPG,AFNE01.JPG,AFNE01.JPG,AFNE01.JPG,,,,,,,,,,,,,4,3,43,1,,,,,,,,,,,AFNE04.jpg,AFSA09.jpg,AFSA04.jpg,AFNE13.jpg,AFSA04.jpg,FS,4,num_2,48,None,,,,2017_Apr_13_1910,60.007179009,MAFE4ImagesEEG,001,100136,
AFNE01.JPG,AFNE01.JPG,AFNE01.JPG,AFNE01.JPG,AFNE01.JPG,AFNE01.JPG,,,,,,,,,,,,,4,4,44,4,,,,,,,,,,,AFSA13.jpg,AFNE18.jpg,AFNE08.jpg,AFSA18.jpg,AFSA13.jpg,FS,4,num_8,48,None,,,,2017_Apr_13_1910,60.007179009,MAFE4ImagesEEG,001,100136,
AFNE01.JPG,AFNE01.JPG,AFNE01.JPG,AFNE01.JPG,AFNE01.JPG,AFNE01.JPG,,,,,,,,,,,,,4,5,45,3,,,,,,,,,,,AFSA04.jpg,AFSA12.jpg,AFNE11.jpg,AFNE12.jpg,AFSA04.jpg,FS,4,num_8,48,None,,,,2017_Apr_13_1910,60.007179009,MAFE4ImagesEEG,001,100136,
AFNE01.JPG,AFNE01.JPG,AFNE01.JPG,AFNE01.JPG,AFNE01.JPG,AFNE01.JPG,,,,,,,,,,,,,4,6,46,0,,,,,,,,,,,AFNE19.jpg,AFSA17.jpg,AFSA20.jpg,AFNE15.jpg,AFSA17.jpg,FS,4,num_6,48,None,,,,2017_Apr_13_1910,60.007179009,MAFE4ImagesEEG,001,100136,
AFNE01.JPG,AFNE01.JPG,AFNE01.JPG,AFNE01.JPG,AFNE01.JPG,AFNE01.JPG,,,,,,,,,,,,,4,7,47,9,,,,,,,,,,,AFSA01.jpg,AFNE07.jpg,AFNE15.jpg,AFSA15.jpg,AFSA15.jpg,FS,4,num_4,48,None,,,,2017_Apr_13_1910,60.007179009,MAFE4ImagesEEG,001,100136,
AFNE01.JPG,AFNE01.JPG,AFNE01.JPG,AFNE01.JPG,AFNE01.JPG,AFNE01.JPG,,,,,,,,,,,,,4,8,48,2,,,,,,,,,,,AFNE05.jpg,AFNE10.jpg,AFSA04.jpg,AFSA20.jpg,AFNE05.jpg,FN,3,num_8,48,None,,,,2017_Apr_13_1910,60.007179009,MAFE4ImagesEEG,001,100136,
AFNE01.JPG,AFNE01.JPG,AFNE01.JPG,AFNE01.JPG,AFNE01.JPG,AFNE01.JPG,,,,,,,,,,,,,4,9,49,7,,,,,,,,,,,AFSA12.jpg,AFSA01.jpg,AFNE12.jpg,AFNE17.jpg,AFNE12.jpg,FN,3,num_2,48,None,,,,2017_Apr_13_1910,60.007179009,MAFE4ImagesEEG,001,100136,
AFNE01.JPG,AFNE01.JPG,AFNE01.JPG,AFNE01.JPG,AFNE01.JPG,AFNE01.JPG,,,,,,,,,,,,,5,0,50,5,,,,,,,,,,,AFNE03.jpg,AFSA12.jpg,AFNE17.jpg,AFSA04.jpg,AFNE03.jpg,FN,3,num_8,48,None,,,,2017_Apr_13_1910,60.007179009,MAFE4ImagesEEG,001,100136,
AFNE01.JPG,AFNE01.JPG,AFNE01.JPG,AFNE01.JPG,AFNE01.JPG,AFNE01.JPG,,,,,,,,,,,,,5,1,51,6,,,,,,,,,,,AFSA15.jpg,AFNE09.jpg,AFNE13.jpg,AFSA06.jpg,AFSA15.jpg,FS,4,num_8,48,None,,,,2017_Apr_13_1910,60.007179009,MAFE4ImagesEEG,001,100136,
AFNE01.JPG,AFNE01.JPG,AFNE01.JPG,AFNE01.JPG,AFNE01.JPG,AFNE01.JPG,,,,,,,,,,,,,5,2,52,0,,,,,,,,,,,AFSA16.jpg,AFNE12.jpg,AFSA09.jpg,AFNE11.jpg,AFNE12.jpg,FN,3,num_6,48,None,,,,2017_Apr_13_1910,60.007179009,MAFE4ImagesEEG,001,100136,
AFNE01.JPG,AFNE01.JPG,AFNE01.JPG,AFNE01.JPG,AFNE01.JPG,AFNE01.JPG,,,,,,,,,,,,,5,3,53,3,,,,,,,,,,,AFSA15.jpg,AFNE04.jpg,AFNE11.jpg,AFSA01.jpg,AFNE11.jpg,FN,3,num_2,48,None,,,,2017_Apr_13_1910,60.007179009,MAFE4ImagesEEG,001,100136,
AFNE01.JPG,AFNE01.JPG,AFNE01.JPG,AFNE01.JPG,AFNE01.JPG,AFNE01.JPG,,,,,,,,,,,,,5,4,54,2,,,,,,,,,,,AFNE16.jpg,AFNE11.jpg,AFSA11.jpg,AFSA09.jpg,AFNE11.jpg,FN,3,num_6,48,None,,,,2017_Apr_13_1910,60.007179009,MAFE4ImagesEEG,001,100136,
AFNE01.JPG,AFNE01.JPG,AFNE01.JPG,AFNE01.JPG,AFNE01.JPG,AFNE01.JPG,,,,,,,,,,,,,5,5,55,9,,,,,,,,,,,AFNE13.jpg,AFNE15.jpg,AFSA09.jpg,AFSA06.jpg,AFNE15.jpg,FN,3,num_6,48,None,,,,2017_Apr_13_1910,60.007179009,MAFE4ImagesEEG,001,100136,
AFNE01.JPG,AFNE01.JPG,AFNE01.JPG,AFNE01.JPG,AFNE01.JPG,AFNE01.JPG,,,,,,,,,,,,,5,6,56,1,,,,,,,,,,,AFSA04.jpg,AFSA09.jpg,AFNE11.jpg,AFNE01.jpg,AFSA09.jpg,FS,4,num_6,48,None,,,,2017_Apr_13_1910,60.007179009,MAFE4ImagesEEG,001,100136,
AFNE01.JPG,AFNE01.JPG,AFNE01.JPG,AFNE01.JPG,AFNE01.JPG,AFNE01.JPG,,,,,,,,,,,,,5,7,57,8,,,,,,,,,,,AFNE05.jpg,AFSA13.jpg,AFNE12.jpg,AFSA03.jpg,AFNE12.jpg,FN,3,num_2,48,None,,,,2017_Apr_13_1910,60.007179009,MAFE4ImagesEEG,001,100136,
AFNE01.JPG,AFNE01.JPG,AFNE01.JPG,AFNE01.JPG,AFNE01.JPG,AFNE01.JPG,,,,,,,,,,,,,5,8,58,4,,,,,,,,,,,AFNE08.jpg,AFNE07.jpg,AFSA10.jpg,AFSA08.jpg,AFNE07.jpg,FN,3,num_6,48,None,,,,2017_Apr_13_1910,60.007179009,MAFE4ImagesEEG,001,100136,
AFNE01.JPG,AFNE01.JPG,AFNE01.JPG,AFNE01.JPG,AFNE01.JPG,AFNE01.JPG,,,,,,,,,,,,,5,9,59,7,,,,,,,,,,,AFNE06.jpg,AFSA16.jpg,AFSA11.jpg,AFNE10.jpg,AFNE10.jpg,FN,3,num_4,48,None,,,,2017_Apr_13_1910,60.007179009,MAFE4ImagesEEG,001,100136,
,,,,,,,,,,,,,,,,,,,,,,,,,,,,,,,,,,,,,,,,,,,space,1.80008999957,2017_Apr_13_1910,60.007179009,MAFE4ImagesEEG,001,100136,
AFNE01.JPG,AFNE01.JPG,AFNE01.JPG,AFNE01.JPG,AFNE01.JPG,AFNE01.JPG,,,,,,,,,,,,,,,,,0,0,0,9,,,,,,,AMSA03.jpg,AMSA06.jpg,AMNE01.jpg,AMNE06.jpg,AMSA03.jpg,MS,2,num_8,48,None,,,,2017_Apr_13_1910,60.007179009,MAFE4ImagesEEG,001,100136,
AFNE01.JPG,AFNE01.JPG,AFNE01.JPG,AFNE01.JPG,AFNE01.JPG,AFNE01.JPG,,,,,,,,,,,,,,,,,0,1,1,7,,,,,,,AMSA15.jpg,AMNE03.jpg,AMSA11.jpg,AMNE11.jpg,AMNE03.jpg,MN,1,num_6,48,None,,,,2017_Apr_13_1910,60.007179009,MAFE4ImagesEEG,001,100136,
AFNE01.JPG,AFNE01.JPG,AFNE01.JPG,AFNE01.JPG,AFNE01.JPG,AFNE01.JPG,,,,,,,,,,,,,,,,,0,2,2,2,,,,,,,AMSA03.jpg,AMSA20.jpg,AMNE16.jpg,AMNE17.jpg,AMSA03.jpg,MS,2,num_8,48,None,,,,2017_Apr_13_1910,60.007179009,MAFE4ImagesEEG,001,100136,
AFNE01.JPG,AFNE01.JPG,AFNE01.JPG,AFNE01.JPG,AFNE01.JPG,AFNE01.JPG,,,,,,,,,,,,,,,,,0,3,3,1,,,,,,,AMNE06.jpg,AMSA14.jpg,AMNE20.jpg,AMSA06.jpg,AMNE20.jpg,MN,1,num_2,48,None,,,,2017_Apr_13_1910,60.007179009,MAFE4ImagesEEG,001,100136,
AFNE01.JPG,AFNE01.JPG,AFNE01.JPG,AFNE01.JPG,AFNE01.JPG,AFNE01.JPG,,,,,,,,,,,,,,,,,0,4,4,6,,,,,,,AMSA14.jpg,AMNE15.jpg,AMSA12.jpg,AMNE02.jpg,AMNE15.jpg,MN,1,num_6,48,None,,,,2017_Apr_13_1910,60.007179009,MAFE4ImagesEEG,001,100136,
AFNE01.JPG,AFNE01.JPG,AFNE01.JPG,AFNE01.JPG,AFNE01.JPG,AFNE01.JPG,,,,,,,,,,,,,,,,,0,5,5,5,,,,,,,AMSA12.jpg,AMNE18.jpg,AMNE04.jpg,AMSA16.jpg,AMSA16.jpg,MS,2,num_4,48,None,,,,2017_Apr_13_1910,60.007179009,MAFE4ImagesEEG,001,100136,
AFNE01.JPG,AFNE01.JPG,AFNE01.JPG,AFNE01.JPG,AFNE01.JPG,AFNE01.JPG,,,,,,,,,,,,,,,,,0,6,6,3,,,,,,,AMSA06.jpg,AMSA10.jpg,AMNE07.jpg,AMNE12.jpg,AMSA10.jpg,MS,2,num_6,48,None,,,,2017_Apr_13_1910,60.007179009,MAFE4ImagesEEG,001,100136,
AFNE01.JPG,AFNE01.JPG,AFNE01.JPG,AFNE01.JPG,AFNE01.JPG,AFNE01.JPG,,,,,,,,,,,,,,,,,0,7,7,4,,,,,,,AMNE05.jpg,AMSA09.jpg,AMNE09.jpg,AMSA20.jpg,AMNE05.jpg,MN,1,num_8,48,None,,,,2017_Apr_13_1910,60.007179009,MAFE4ImagesEEG,001,100136,
AFNE01.JPG,AFNE01.JPG,AFNE01.JPG,AFNE01.JPG,AFNE01.JPG,AFNE01.JPG,,,,,,,,,,,,,,,,,0,8,8,0,,,,,,,AMNE18.jpg,AMSA04.jpg,AMNE02.jpg,AMSA17.jpg,AMSA17.jpg,MS,2,num_4,48,None,,,,2017_Apr_13_1910,60.007179009,MAFE4ImagesEEG,001,100136,
AFNE01.JPG,AFNE01.JPG,AFNE01.JPG,AFNE01.JPG,AFNE01.JPG,AFNE01.JPG,,,,,,,,,,,,,,,,,0,9,9,8,,,,,,,AMNE03.jpg,AMSA17.jpg,AMSA12.jpg,AMNE07.jpg,AMSA17.jpg,MS,2,num_6,48,None,,,,2017_Apr_13_1910,60.007179009,MAFE4ImagesEEG,001,100136,
AFNE01.JPG,AFNE01.JPG,AFNE01.JPG,AFNE01.JPG,AFNE01.JPG,AFNE01.JPG,,,,,,,,,,,,,,,,,1,0,10,8,,,,,,,AMSA20.jpg,AMNE18.jpg,AMNE20.jpg,AMSA09.jpg,AMNE18.jpg,MN,1,num_6,48,None,,,,2017_Apr_13_1910,60.007179009,MAFE4ImagesEEG,001,100136,
AFNE01.JPG,AFNE01.JPG,AFNE01.JPG,AFNE01.JPG,AFNE01.JPG,AFNE01.JPG,,,,,,,,,,,,,,,,,1,1,11,7,,,,,,,AMSA19.jpg,AMSA06.jpg,AMNE20.jpg,AMNE03.jpg,AMNE20.jpg,MN,1,num_2,48,None,,,,2017_Apr_13_1910,60.007179009,MAFE4ImagesEEG,001,100136,
AFNE01.JPG,AFNE01.JPG,AFNE01.JPG,AFNE01.JPG,AFNE01.JPG,AFNE01.JPG,,,,,,,,,,,,,,,,,1,2,12,9,,,,,,,AMNE07.jpg,AMNE19.jpg,AMSA19.jpg,AMSA18.jpg,AMNE19.jpg,MN,1,num_6,48,None,,,,2017_Apr_13_1910,60.007179009,MAFE4ImagesEEG,001,100136,
AFNE01.JPG,AFNE01.JPG,AFNE01.JPG,AFNE01.JPG,AFNE01.JPG,AFNE01.JPG,,,,,,,,,,,,,,,,,1,3,13,2,,,,,,,AMSA09.jpg,AMNE13.jpg,AMSA14.jpg,AMNE07.jpg,AMNE07.jpg,MN,1,num_4,48,None,,,,2017_Apr_13_1910,60.007179009,MAFE4ImagesEEG,001,100136,
AFNE01.JPG,AFNE01.JPG,AFNE01.JPG,AFNE01.JPG,AFNE01.JPG,AFNE01.JPG,,,,,,,,,,,,,,,,,1,4,14,1,,,,,,,AMSA03.jpg,AMNE13.jpg,AMSA05.jpg,AMNE16.jpg,AMNE13.jpg,MN,1,num_6,48,None,,,,2017_Apr_13_1910,60.007179009,MAFE4ImagesEEG,001,100136,
AFNE01.JPG,AFNE01.JPG,AFNE01.JPG,AFNE01.JPG,AFNE01.JPG,AFNE01.JPG,,,,,,,,,,,,,,,,,1,5,15,4,,,,,,,AMSA13.jpg,AMSA01.jpg,AMNE17.jpg,AMNE06.jpg,AMSA01.jpg,MS,2,num_6,48,None,,,,2017_Apr_13_1910,60.007179009,MAFE4ImagesEEG,001,100136,
AFNE01.JPG,AFNE01.JPG,AFNE01.JPG,AFNE01.JPG,AFNE01.JPG,AFNE01.JPG,,,,,,,,,,,,,,,,,1,6,16,6,,,,,,,AMSA02.jpg,AMNE01.jpg,AMSA01.jpg,AMNE14.jpg,AMNE01.jpg,MN,1,num_6,48,None,,,,2017_Apr_13_1910,60.007179009,MAFE4ImagesEEG,001,100136,
AFNE01.JPG,AFNE01.JPG,AFNE01.JPG,AFNE01.JPG,AFNE01.JPG,AFNE01.JPG,,,,,,,,,,,,,,,,,1,7,17,5,,,,,,,AMNE10.jpg,AMSA05.jpg,AMNE05.jpg,AMSA03.jpg,AMSA03.jpg,MS,2,num_4,48,None,,,,2017_Apr_13_1910,60.007179009,MAFE4ImagesEEG,001,100136,
AFNE01.JPG,AFNE01.JPG,AFNE01.JPG,AFNE01.JPG,AFNE01.JPG,AFNE01.JPG,,,,,,,,,,,,,,,,,1,8,18,3,,,,,,,AMNE07.jpg,AMNE10.jpg,AMSA08.jpg,AMSA19.jpg,AMSA19.jpg,MS,2,num_4,48,None,,,,2017_Apr_13_1910,60.007179009,MAFE4ImagesEEG,001,100136,
AFNE01.JPG,AFNE01.JPG,AFNE01.JPG,AFNE01.JPG,AFNE01.JPG,AFNE01.JPG,,,,,,,,,,,,,,,,,1,9,19,0,,,,,,,AMNE01.jpg,AMSA16.jpg,AMNE08.jpg,AMSA05.jpg,AMSA05.jpg,MS,2,num_4,48,None,,,,2017_Apr_13_1910,60.007179009,MAFE4ImagesEEG,001,100136,
AFNE01.JPG,AFNE01.JPG,AFNE01.JPG,AFNE01.JPG,AFNE01.JPG,AFNE01.JPG,,,,,,,,,,,,,,,,,2,0,20,5,,,,,,,AMSA11.jpg,AMSA19.jpg,AMNE05.jpg,AMNE17.jpg,AMSA11.jpg,MS,2,num_8,48,None,,,,2017_Apr_13_1910,60.007179009,MAFE4ImagesEEG,001,100136,
AFNE01.JPG,AFNE01.JPG,AFNE01.JPG,AFNE01.JPG,AFNE01.JPG,AFNE01.JPG,,,,,,,,,,,,,,,,,2,1,21,3,,,,,,,AMSA09.jpg,AMNE09.jpg,AMSA05.jpg,AMNE02.jpg,AMNE09.jpg,MN,1,num_6,48,None,,,,2017_Apr_13_1910,60.007179009,MAFE4ImagesEEG,001,100136,
AFNE01.JPG,AFNE01.JPG,AFNE01.JPG,AFNE01.JPG,AFNE01.JPG,AFNE01.JPG,,,,,,,,,,,,,,,,,2,2,22,2,,,,,,,AMSA10.jpg,AMNE07.jpg,AMNE01.jpg,AMSA14.jpg,AMNE01.jpg,MN,1,num_2,48,None,,,,2017_Apr_13_1910,60.007179009,MAFE4ImagesEEG,001,100136,
AFNE01.JPG,AFNE01.JPG,AFNE01.JPG,AFNE01.JPG,AFNE01.JPG,AFNE01.JPG,,,,,,,,,,,,,,,,,2,3,23,1,,,,,,,AMNE14.jpg,AMNE01.jpg,AMSA04.jpg,AMSA13.jpg,AMNE14.jpg,MN,1,num_8,48,None,,,,2017_Apr_13_1910,60.007179009,MAFE4ImagesEEG,001,100136,
AFNE01.JPG,AFNE01.JPG,AFNE01.JPG,AFNE01.JPG,AFNE01.JPG,AFNE01.JPG,,,,,,,,,,,,,,,,,2,4,24,4,,,,,,,AMSA20.jpg,AMNE02.jpg,AMNE12.jpg,AMSA03.jpg,AMSA20.jpg,MS,2,num_8,48,None,,,,2017_Apr_13_1910,60.007179009,MAFE4ImagesEEG,001,100136,
AFNE01.JPG,AFNE01.JPG,AFNE01.JPG,AFNE01.JPG,AFNE01.JPG,AFNE01.JPG,,,,,,,,,,,,,,,,,2,5,25,0,,,,,,,AMNE19.jpg,AMSA20.jpg,AMNE12.jpg,AMSA19.jpg,AMSA19.jpg,MS,2,num_4,48,None,,,,2017_Apr_13_1910,60.007179009,MAFE4ImagesEEG,001,100136,
AFNE01.JPG,AFNE01.JPG,AFNE01.JPG,AFNE01.JPG,AFNE01.JPG,AFNE01.JPG,,,,,,,,,,,,,,,,,2,6,26,6,,,,,,,AMSA14.jpg,AMSA08.jpg,AMNE01.jpg,AMNE16.jpg,AMNE16.jpg,MN,1,num_4,48,None,,,,2017_Apr_13_1910,60.007179009,MAFE4ImagesEEG,001,100136,
AFNE01.JPG,AFNE01.JPG,AFNE01.JPG,AFNE01.JPG,AFNE01.JPG,AFNE01.JPG,,,,,,,,,,,,,,,,,2,7,27,9,,,,,,,AMSA07.jpg,AMNE07.jpg,AMSA17.jpg,AMNE19.jpg,AMSA17.jpg,MS,2,num_2,48,None,,,,2017_Apr_13_1910,60.007179009,MAFE4ImagesEEG,001,100136,
AFNE01.JPG,AFNE01.JPG,AFNE01.JPG,AFNE01.JPG,AFNE01.JPG,AFNE01.JPG,,,,,,,,,,,,,,,,,2,8,28,7,,,,,,,AMNE10.jpg,AMSA18.jpg,AMNE06.jpg,AMSA19.jpg,AMSA19.jpg,MS,2,num_4,48,None,,,,2017_Apr_13_1910,60.007179009,MAFE4ImagesEEG,001,100136,
AFNE01.JPG,AFNE01.JPG,AFNE01.JPG,AFNE01.JPG,AFNE01.JPG,AFNE01.JPG,,,,,,,,,,,,,,,,,2,9,29,8,,,,,,,AMSA14.jpg,AMNE14.jpg,AMNE10.jpg,AMSA13.jpg,AMSA13.jpg,MS,2,num_4,48,None,,,,2017_Apr_13_1910,60.007179009,MAFE4ImagesEEG,001,100136,
AFNE01.JPG,AFNE01.JPG,AFNE01.JPG,AFNE01.JPG,AFNE01.JPG,AFNE01.JPG,,,,,,,,,,,,,,,,,3,0,30,0,,,,,,,AMSA10.jpg,AMNE16.jpg,AMNE11.jpg,AMSA19.jpg,AMNE11.jpg,MN,1,num_2,48,None,,,,2017_Apr_13_1910,60.007179009,MAFE4ImagesEEG,001,100136,
AFNE01.JPG,AFNE01.JPG,AFNE01.JPG,AFNE01.JPG,AFNE01.JPG,AFNE01.JPG,,,,,,,,,,,,,,,,,3,1,31,5,,,,,,,AMNE19.jpg,AMSA04.jpg,AMNE02.jpg,AMSA20.jpg,AMSA04.jpg,MS,2,num_6,48,None,,,,2017_Apr_13_1910,60.007179009,MAFE4ImagesEEG,001,100136,
AFNE01.JPG,AFNE01.JPG,AFNE01.JPG,AFNE01.JPG,AFNE01.JPG,AFNE01.JPG,,,,,,,,,,,,,,,,,3,2,32,1,,,,,,,AMNE04.jpg,AMNE01.jpg,AMSA11.jpg,AMSA06.jpg,AMNE01.jpg,MN,1,num_6,48,None,,,,2017_Apr_13_1910,60.007179009,MAFE4ImagesEEG,001,100136,
AFNE01.JPG,AFNE01.JPG,AFNE01.JPG,AFNE01.JPG,AFNE01.JPG,AFNE01.JPG,,,,,,,,,,,,,,,,,3,3,33,7,,,,,,,AMNE13.jpg,AMNE05.jpg,AMSA08.jpg,AMSA09.jpg,AMNE05.jpg,MN,1,num_6,48,None,,,,2017_Apr_13_1910,60.007179009,MAFE4ImagesEEG,001,100136,
AFNE01.JPG,AFNE01.JPG,AFNE01.JPG,AFNE01.JPG,AFNE01.JPG,AFNE01.JPG,,,,,,,,,,,,,,,,,3,4,34,9,,,,,,,AMNE08.jpg,AMSA13.jpg,AMSA07.jpg,AMNE15.jpg,AMSA07.jpg,MS,2,num_2,48,None,,,,2017_Apr_13_1910,60.007179009,MAFE4ImagesEEG,001,100136,
AFNE01.JPG,AFNE01.JPG,AFNE01.JPG,AFNE01.JPG,AFNE01.JPG,AFNE01.JPG,,,,,,,,,,,,,,,,,3,5,35,6,,,,,,,AMSA06.jpg,AMNE06.jpg,AMSA20.jpg,AMNE15.jpg,AMNE06.jpg,MN,1,num_6,48,None,,,,2017_Apr_13_1910,60.007179009,MAFE4ImagesEEG,001,100136,
AFNE01.JPG,AFNE01.JPG,AFNE01.JPG,AFNE01.JPG,AFNE01.JPG,AFNE01.JPG,,,,,,,,,,,,,,,,,3,6,36,3,,,,,,,AMSA10.jpg,AMSA14.jpg,AMNE01.jpg,AMNE11.jpg,AMNE11.jpg,MN,1,num_4,48,None,,,,2017_Apr_13_1910,60.007179009,MAFE4ImagesEEG,001,100136,
AFNE01.JPG,AFNE01.JPG,AFNE01.JPG,AFNE01.JPG,AFNE01.JPG,AFNE01.JPG,,,,,,,,,,,,,,,,,3,7,37,8,,,,,,,AMNE14.jpg,AMSA06.jpg,AMSA14.jpg,AMNE02.jpg,AMSA06.jpg,MS,2,num_6,48,None,,,,2017_Apr_13_1910,60.007179009,MAFE4ImagesEEG,001,100136,
AFNE01.JPG,AFNE01.JPG,AFNE01.JPG,AFNE01.JPG,AFNE01.JPG,AFNE01.JPG,,,,,,,,,,,,,,,,,3,8,38,4,,,,,,,AMNE12.jpg,AMSA10.jpg,AMSA20.jpg,AMNE18.jpg,AMNE12.jpg,MN,1,num_8,48,None,,,,2017_Apr_13_1910,60.007179009,MAFE4ImagesEEG,001,100136,
AFNE01.JPG,AFNE01.JPG,AFNE01.JPG,AFNE01.JPG,AFNE01.JPG,AFNE01.JPG,,,,,,,,,,,,,,,,,3,9,39,2,,,,,,,AMSA07.jpg,AMNE08.jpg,AMSA02.jpg,AMNE05.jpg,AMSA02.jpg,MS,2,num_2,48,None,,,,2017_Apr_13_1910,60.007179009,MAFE4ImagesEEG,001,100136,
AFNE01.JPG,AFNE01.JPG,AFNE01.JPG,AFNE01.JPG,AFNE01.JPG,AFNE01.JPG,,,,,,,,,,,,,,,,,4,0,40,9,,,,,,,AMSA01.jpg,AMNE14.jpg,AMNE08.jpg,AMSA14.jpg,AMNE14.jpg,MN,1,num_6,48,None,,,,2017_Apr_13_1910,60.007179009,MAFE4ImagesEEG,001,100136,
AFNE01.JPG,AFNE01.JPG,AFNE01.JPG,AFNE01.JPG,AFNE01.JPG,AFNE01.JPG,,,,,,,,,,,,,,,,,4,1,41,1,,,,,,,AMNE20.jpg,AMSA17.jpg,AMNE09.jpg,AMSA05.jpg,AMNE20.jpg,MN,1,num_8,48,None,,,,2017_Apr_13_1910,60.007179009,MAFE4ImagesEEG,001,100136,
AFNE01.JPG,AFNE01.JPG,AFNE01.JPG,AFNE01.JPG,AFNE01.JPG,AFNE01.JPG,,,,,,,,,,,,,,,,,4,2,42,8,,,,,,,AMSA17.jpg,AMSA09.jpg,AMNE18.jpg,AMNE04.jpg,AMSA17.jpg,MS,2,num_8,48,None,,,,2017_Apr_13_1910,60.007179009,MAFE4ImagesEEG,001,100136,
AFNE01.JPG,AFNE01.JPG,AFNE01.JPG,AFNE01.JPG,AFNE01.JPG,AFNE01.JPG,,,,,,,,,,,,,,,,,4,3,43,4,,,,,,,AMSA17.jpg,AMNE12.jpg,AMSA19.jpg,AMNE14.jpg,AMNE12.jpg,MN,1,num_6,48,None,,,,2017_Apr_13_1910,60.007179009,MAFE4ImagesEEG,001,100136,
AFNE01.JPG,AFNE01.JPG,AFNE01.JPG,AFNE01.JPG,AFNE01.JPG,AFNE01.JPG,,,,,,,,,,,,,,,,,4,4,44,6,,,,,,,AMNE06.jpg,AMSA05.jpg,AMSA04.jpg,AMNE02.jpg,AMSA05.jpg,MS,2,num_6,48,None,,,,2017_Apr_13_1910,60.007179009,MAFE4ImagesEEG,001,100136,
AFNE01.JPG,AFNE01.JPG,AFNE01.JPG,AFNE01.JPG,AFNE01.JPG,AFNE01.JPG,,,,,,,,,,,,,,,,,4,5,45,3,,,,,,,AMNE14.jpg,AMNE11.jpg,AMSA06.jpg,AMSA14.jpg,AMSA14.jpg,MS,2,num_4,48,None,,,,2017_Apr_13_1910,60.007179009,MAFE4ImagesEEG,001,100136,
AFNE01.JPG,AFNE01.JPG,AFNE01.JPG,AFNE01.JPG,AFNE01.JPG,AFNE01.JPG,,,,,,,,,,,,,,,,,4,6,46,7,,,,,,,AMSA15.jpg,AMSA04.jpg,AMNE09.jpg,AMNE10.jpg,AMSA15.jpg,MS,2,num_8,48,None,,,,2017_Apr_13_1910,60.007179009,MAFE4ImagesEEG,001,100136,
AFNE01.JPG,AFNE01.JPG,AFNE01.JPG,AFNE01.JPG,AFNE01.JPG,AFNE01.JPG,,,,,,,,,,,,,,,,,4,7,47,5,,,,,,,AMNE06.jpg,AMSA10.jpg,AMNE19.jpg,AMSA13.jpg,AMSA13.jpg,MS,2,num_4,48,None,,,,2017_Apr_13_1910,60.007179009,MAFE4ImagesEEG,001,100136,
AFNE01.JPG,AFNE01.JPG,AFNE01.JPG,AFNE01.JPG,AFNE01.JPG,AFNE01.JPG,,,,,,,,,,,,,,,,,4,8,48,2,,,,,,,AMNE11.jpg,AMNE07.jpg,AMSA03.jpg,AMSA08.jpg,AMSA03.jpg,MS,2,num_2,48,None,,,,2017_Apr_13_1910,60.007179009,MAFE4ImagesEEG,001,100136,
AFNE01.JPG,AFNE01.JPG,AFNE01.JPG,AFNE01.JPG,AFNE01.JPG,AFNE01.JPG,,,,,,,,,,,,,,,,,4,9,49,0,,,,,,,AMSA01.jpg,AMNE02.jpg,AMSA17.jpg,AMNE13.jpg,AMNE13.jpg,MN,1,num_4,48,None,,,,2017_Apr_13_1910,60.007179009,MAFE4ImagesEEG,001,100136,
AFNE01.JPG,AFNE01.JPG,AFNE01.JPG,AFNE01.JPG,AFNE01.JPG,AFNE01.JPG,,,,,,,,,,,,,,,,,5,0,50,0,,,,,,,AMSA14.jpg,AMSA20.jpg,AMNE13.jpg,AMNE19.jpg,AMSA14.jpg,MS,2,num_8,48,None,,,,2017_Apr_13_1910,60.007179009,MAFE4ImagesEEG,001,100136,
AFNE01.JPG,AFNE01.JPG,AFNE01.JPG,AFNE01.JPG,AFNE01.JPG,AFNE01.JPG,,,,,,,,,,,,,,,,,5,1,51,4,,,,,,,AMSA01.jpg,AMNE05.jpg,AMNE14.jpg,AMSA10.jpg,AMSA10.jpg,MS,2,num_4,48,None,,,,2017_Apr_13_1910,60.007179009,MAFE4ImagesEEG,001,100136,
AFNE01.JPG,AFNE01.JPG,AFNE01.JPG,AFNE01.JPG,AFNE01.JPG,AFNE01.JPG,,,,,,,,,,,,,,,,,5,2,52,9,,,,,,,AMNE18.jpg,AMSA13.jpg,AMNE06.jpg,AMSA05.jpg,AMSA05.jpg,MS,2,num_4,48,None,,,,2017_Apr_13_1910,60.007179009,MAFE4ImagesEEG,001,100136,
AFNE01.JPG,AFNE01.JPG,AFNE01.JPG,AFNE01.JPG,AFNE01.JPG,AFNE01.JPG,,,,,,,,,,,,,,,,,5,3,53,8,,,,,,,AMNE08.jpg,AMNE07.jpg,AMSA19.jpg,AMSA05.jpg,AMSA19.jpg,MS,2,num_2,48,None,,,,2017_Apr_13_1910,60.007179009,MAFE4ImagesEEG,001,100136,
AFNE01.JPG,AFNE01.JPG,AFNE01.JPG,AFNE01.JPG,AFNE01.JPG,AFNE01.JPG,,,,,,,,,,,,,,,,,5,4,54,6,,,,,,,AMNE09.jpg,AMNE07.jpg,AMSA18.jpg,AMSA03.jpg,AMNE09.jpg,MN,1,num_8,48,None,,,,2017_Apr_13_1910,60.007179009,MAFE4ImagesEEG,001,100136,
AFNE01.JPG,AFNE01.JPG,AFNE01.JPG,AFNE01.JPG,AFNE01.JPG,AFNE01.JPG,,,,,,,,,,,,,,,,,5,5,55,2,,,,,,,AMNE13.jpg,AMSA13.jpg,AMNE12.jpg,AMSA11.jpg,AMNE12.jpg,MN,1,num_2,48,None,,,,2017_Apr_13_1910,60.007179009,MAFE4ImagesEEG,001,100136,
AFNE01.JPG,AFNE01.JPG,AFNE01.JPG,AFNE01.JPG,AFNE01.JPG,AFNE01.JPG,,,,,,,,,,,,,,,,,5,6,56,7,,,,,,,AMSA17.jpg,AMNE12.jpg,AMSA19.jpg,AMNE03.jpg,AMNE03.jpg,MN,1,num_4,48,None,,,,2017_Apr_13_1910,60.007179009,MAFE4ImagesEEG,001,100136,
AFNE01.JPG,AFNE01.JPG,AFNE01.JPG,AFNE01.JPG,AFNE01.JPG,AFNE01.JPG,,,,,,,,,,,,,,,,,5,7,57,5,,,,,,,AMSA04.jpg,AMNE06.jpg,AMNE16.jpg,AMSA13.jpg,AMSA04.jpg,MS,2,num_8,48,None,,,,2017_Apr_13_1910,60.007179009,MAFE4ImagesEEG,001,100136,
AFNE01.JPG,AFNE01.JPG,AFNE01.JPG,AFNE01.JPG,AFNE01.JPG,AFNE01.JPG,,,,,,,,,,,,,,,,,5,8,58,1,,,,,,,AMNE19.jpg,AMSA06.jpg,AMNE20.jpg,AMSA14.jpg,AMNE19.jpg,MN,1,num_8,48,None,,,,2017_Apr_13_1910,60.007179009,MAFE4ImagesEEG,001,100136,
AFNE01.JPG,AFNE01.JPG,AFNE01.JPG,AFNE01.JPG,AFNE01.JPG,AFNE01.JPG,,,,,,,,,,,,,,,,,5,9,59,3,,,,,,,AMNE13.jpg,AMNE01.jpg,AMSA09.jpg,AMSA03.jpg,AMSA09.jpg,MS,2,num_2,48,None,,,,2017_Apr_13_1910,60.007179009,MAFE4ImagesEEG,001,100136,
,,,,,,,,,,,,,,,,,,,,,,,,,,,,,,,,,,,,,,,,,,,space,2.98321697442,2017_Apr_13_1910,60.007179009,MAFE4ImagesEEG,001,100136,
AFNE01.JPG,AFNE01.JPG,AFNE01.JPG,AFNE01.JPG,AFNE01.JPG,AFNE01.JPG,,,,,,,,,,,,,,,,,,,,,0,0,0,3,,,AFSA01.jpg,AFNE03.jpg,AFSA18.jpg,AFNE19.jpg,AFNE03.jpg,FN,3,num_6,48,None,,,,2017_Apr_13_1910,60.007179009,MAFE4ImagesEEG,001,100136,
AFNE01.JPG,AFNE01.JPG,AFNE01.JPG,AFNE01.JPG,AFNE01.JPG,AFNE01.JPG,,,,,,,,,,,,,,,,,,,,,0,1,1,2,,,AFSA19.jpg,AFSA14.jpg,AFNE12.jpg,AFNE08.jpg,AFSA14.jpg,FS,4,num_6,48,None,,,,2017_Apr_13_1910,60.007179009,MAFE4ImagesEEG,001,100136,
AFNE01.JPG,AFNE01.JPG,AFNE01.JPG,AFNE01.JPG,AFNE01.JPG,AFNE01.JPG,,,,,,,,,,,,,,,,,,,,,0,2,2,7,,,AFNE04.jpg,AFSA05.jpg,AFSA03.jpg,AFNE19.jpg,AFSA05.jpg,FS,4,num_6,48,None,,,,2017_Apr_13_1910,60.007179009,MAFE4ImagesEEG,001,100136,
AFNE01.JPG,AFNE01.JPG,AFNE01.JPG,AFNE01.JPG,AFNE01.JPG,AFNE01.JPG,,,,,,,,,,,,,,,,,,,,,0,3,3,5,,,AFNE08.jpg,AFSA07.jpg,AFSA06.jpg,AFNE03.jpg,AFNE03.jpg,FN,3,num_4,48,None,,,,2017_Apr_13_1910,60.007179009,MAFE4ImagesEEG,001,100136,
AFNE01.JPG,AFNE01.JPG,AFNE01.JPG,AFNE01.JPG,AFNE01.JPG,AFNE01.JPG,,,,,,,,,,,,,,,,,,,,,0,4,4,9,,,AFNE20.jpg,AFSA01.jpg,AFSA13.jpg,AFNE08.jpg,AFSA01.jpg,FS,4,num_6,48,None,,,,2017_Apr_13_1910,60.007179009,MAFE4ImagesEEG,001,100136,
AFNE01.JPG,AFNE01.JPG,AFNE01.JPG,AFNE01.JPG,AFNE01.JPG,AFNE01.JPG,,,,,,,,,,,,,,,,,,,,,0,5,5,4,,,AFNE07.jpg,AFSA04.jpg,AFSA06.jpg,AFNE18.jpg,AFSA06.jpg,FS,4,num_2,48,None,,,,2017_Apr_13_1910,60.007179009,MAFE4ImagesEEG,001,100136,
AFNE01.JPG,AFNE01.JPG,AFNE01.JPG,AFNE01.JPG,AFNE01.JPG,AFNE01.JPG,,,,,,,,,,,,,,,,,,,,,0,6,6,1,,,AFSA03.jpg,AFSA19.jpg,AFNE17.jpg,AFNE13.jpg,AFSA03.jpg,FS,4,num_8,48,None,,,,2017_Apr_13_1910,60.007179009,MAFE4ImagesEEG,001,100136,
AFNE01.JPG,AFNE01.JPG,AFNE01.JPG,AFNE01.JPG,AFNE01.JPG,AFNE01.JPG,,,,,,,,,,,,,,,,,,,,,0,7,7,0,,,AFNE14.jpg,AFSA14.jpg,AFSA13.jpg,AFNE12.jpg,AFSA14.jpg,FS,4,num_6,48,None,,,,2017_Apr_13_1910,60.007179009,MAFE4ImagesEEG,001,100136,
AFNE01.JPG,AFNE01.JPG,AFNE01.JPG,AFNE01.JPG,AFNE01.JPG,AFNE01.JPG,,,,,,,,,,,,,,,,,,,,,0,8,8,6,,,AFSA12.jpg,AFSA08.jpg,AFNE20.jpg,AFNE17.jpg,AFSA08.jpg,FS,4,num_6,48,None,,,,2017_Apr_13_1910,60.007179009,MAFE4ImagesEEG,001,100136,
AFNE01.JPG,AFNE01.JPG,AFNE01.JPG,AFNE01.JPG,AFNE01.JPG,AFNE01.JPG,,,,,,,,,,,,,,,,,,,,,0,9,9,8,,,AFNE17.jpg,AFSA19.jpg,AFSA07.jpg,AFNE20.jpg,AFNE20.jpg,FN,3,num_4,48,None,,,,2017_Apr_13_1910,60.007179009,MAFE4ImagesEEG,001,100136,
AFNE01.JPG,AFNE01.JPG,AFNE01.JPG,AFNE01.JPG,AFNE01.JPG,AFNE01.JPG,,,,,,,,,,,,,,,,,,,,,1,0,10,9,,,AFNE09.jpg,AFSA20.jpg,AFNE16.jpg,AFSA05.jpg,AFSA20.jpg,FS,4,num_6,48,None,,,,2017_Apr_13_1910,60.007179009,MAFE4ImagesEEG,001,100136,
AFNE01.JPG,AFNE01.JPG,AFNE01.JPG,AFNE01.JPG,AFNE01.JPG,AFNE01.JPG,,,,,,,,,,,,,,,,,,,,,1,1,11,0,,,AFNE07.jpg,AFSA10.jpg,AFSA09.jpg,AFNE12.jpg,AFSA09.jpg,FS,4,num_2,48,None,,,,2017_Apr_13_1910,60.007179009,MAFE4ImagesEEG,001,100136,
AFNE01.JPG,AFNE01.JPG,AFNE01.JPG,AFNE01.JPG,AFNE01.JPG,AFNE01.JPG,,,,,,,,,,,,,,,,,,,,,1,2,12,7,,,AFNE04.jpg,AFSA15.jpg,AFNE09.jpg,AFSA16.jpg,AFSA15.jpg,FS,4,num_6,48,None,,,,2017_Apr_13_1910,60.007179009,MAFE4ImagesEEG,001,100136,
AFNE01.JPG,AFNE01.JPG,AFNE01.JPG,AFNE01.JPG,AFNE01.JPG,AFNE01.JPG,,,,,,,,,,,,,,,,,,,,,1,3,13,3,,,AFNE14.jpg,AFSA01.jpg,AFSA05.jpg,AFNE17.jpg,AFSA05.jpg,FS,4,num_2,48,None,,,,2017_Apr_13_1910,60.007179009,MAFE4ImagesEEG,001,100136,
AFNE01.JPG,AFNE01.JPG,AFNE01.JPG,AFNE01.JPG,AFNE01.JPG,AFNE01.JPG,,,,,,,,,,,,,,,,,,,,,1,4,14,5,,,AFSA11.jpg,AFSA12.jpg,AFNE18.jpg,AFNE11.jpg,AFNE18.jpg,FN,3,num_2,48,None,,,,2017_Apr_13_1910,60.007179009,MAFE4ImagesEEG,001,100136,
AFNE01.JPG,AFNE01.JPG,AFNE01.JPG,AFNE01.JPG,AFNE01.JPG,AFNE01.JPG,,,,,,,,,,,,,,,,,,,,,1,5,15,1,,,AFSA04.jpg,AFNE01.jpg,AFSA05.jpg,AFNE12.jpg,AFNE01.jpg,FN,3,num_6,48,None,,,,2017_Apr_13_1910,60.007179009,MAFE4ImagesEEG,001,100136,
AFNE01.JPG,AFNE01.JPG,AFNE01.JPG,AFNE01.JPG,AFNE01.JPG,AFNE01.JPG,,,,,,,,,,,,,,,,,,,,,1,6,16,4,,,AFNE20.jpg,AFNE07.jpg,AFSA02.jpg,AFSA19.jpg,AFNE20.jpg,FN,3,num_8,48,None,,,,2017_Apr_13_1910,60.007179009,MAFE4ImagesEEG,001,100136,
AFNE01.JPG,AFNE01.JPG,AFNE01.JPG,AFNE01.JPG,AFNE01.JPG,AFNE01.JPG,,,,,,,,,,,,,,,,,,,,,1,7,17,2,,,AFSA08.jpg,AFSA19.jpg,AFNE17.jpg,AFNE20.jpg,AFSA19.jpg,FS,4,num_6,48,None,,,,2017_Apr_13_1910,60.007179009,MAFE4ImagesEEG,001,100136,
AFNE01.JPG,AFNE01.JPG,AFNE01.JPG,AFNE01.JPG,AFNE01.JPG,AFNE01.JPG,,,,,,,,,,,,,,,,,,,,,1,8,18,6,,,AFNE17.jpg,AFNE19.jpg,AFSA18.jpg,AFSA12.jpg,AFNE17.jpg,FN,3,num_8,48,None,,,,2017_Apr_13_1910,60.007179009,MAFE4ImagesEEG,001,100136,
AFNE01.JPG,AFNE01.JPG,AFNE01.JPG,AFNE01.JPG,AFNE01.JPG,AFNE01.JPG,,,,,,,,,,,,,,,,,,,,,1,9,19,8,,,AFSA10.jpg,AFNE16.jpg,AFNE05.jpg,AFSA07.jpg,AFSA10.jpg,FS,4,num_8,48,None,,,,2017_Apr_13_1910,60.007179009,MAFE4ImagesEEG,001,100136,
AFNE01.JPG,AFNE01.JPG,AFNE01.JPG,AFNE01.JPG,AFNE01.JPG,AFNE01.JPG,,,,,,,,,,,,,,,,,,,,,2,0,20,9,,,AFSA04.jpg,AFNE13.jpg,AFNE02.jpg,AFSA17.jpg,AFNE02.jpg,FN,3,num_2,48,None,,,,2017_Apr_13_1910,60.007179009,MAFE4ImagesEEG,001,100136,
AFNE01.JPG,AFNE01.JPG,AFNE01.JPG,AFNE01.JPG,AFNE01.JPG,AFNE01.JPG,,,,,,,,,,,,,,,,,,,,,2,1,21,5,,,AFNE09.jpg,AFSA19.jpg,AFNE17.jpg,AFSA17.jpg,AFSA17.jpg,FS,4,num_4,48,None,,,,2017_Apr_13_1910,60.007179009,MAFE4ImagesEEG,001,100136,
AFNE01.JPG,AFNE01.JPG,AFNE01.JPG,AFNE01.JPG,AFNE01.JPG,AFNE01.JPG,,,,,,,,,,,,,,,,,,,,,2,2,22,3,,,AFNE01.jpg,AFSA04.jpg,AFNE17.jpg,AFSA16.jpg,AFNE01.jpg,FN,3,num_8,48,None,,,,2017_Apr_13_1910,60.007179009,MAFE4ImagesEEG,001,100136,
AFNE01.JPG,AFNE01.JPG,AFNE01.JPG,AFNE01.JPG,AFNE01.JPG,AFNE01.JPG,,,,,,,,,,,,,,,,,,,,,2,3,23,0,,,AFNE04.jpg,AFSA19.jpg,AFSA11.jpg,AFNE02.jpg,AFNE04.jpg,FN,3,num_8,48,None,,,,2017_Apr_13_1910,60.007179009,MAFE4ImagesEEG,001,100136,
AFNE01.JPG,AFNE01.JPG,AFNE01.JPG,AFNE01.JPG,AFNE01.JPG,AFNE01.JPG,,,,,,,,,,,,,,,,,,,,,2,4,24,1,,,AFSA16.jpg,AFNE12.jpg,AFSA01.jpg,AFNE16.jpg,AFSA16.jpg,FS,4,num_8,48,None,,,,2017_Apr_13_1910,60.007179009,MAFE4ImagesEEG,001,100136,
AFNE01.JPG,AFNE01.JPG,AFNE01.JPG,AFNE01.JPG,AFNE01.JPG,AFNE01.JPG,,,,,,,,,,,,,,,,,,,,,2,5,25,8,,,AFSA18.jpg,AFNE10.jpg,AFSA15.jpg,AFNE06.jpg,AFSA18.jpg,FS,4,num_8,48,None,,,,2017_Apr_13_1910,60.007179009,MAFE4ImagesEEG,001,100136,
AFNE01.JPG,AFNE01.JPG,AFNE01.JPG,AFNE01.JPG,AFNE01.JPG,AFNE01.JPG,,,,,,,,,,,,,,,,,,,,,2,6,26,4,,,AFNE04.jpg,AFSA13.jpg,AFNE19.jpg,AFSA09.jpg,AFNE04.jpg,FN,3,num_8,48,None,,,,2017_Apr_13_1910,60.007179009,MAFE4ImagesEEG,001,100136,
AFNE01.JPG,AFNE01.JPG,AFNE01.JPG,AFNE01.JPG,AFNE01.JPG,AFNE01.JPG,,,,,,,,,,,,,,,,,,,,,2,7,27,7,,,AFNE17.jpg,AFSA12.jpg,AFSA16.jpg,AFNE05.jpg,AFNE17.jpg,FN,3,num_8,48,None,,,,2017_Apr_13_1910,60.007179009,MAFE4ImagesEEG,001,100136,
AFNE01.JPG,AFNE01.JPG,AFNE01.JPG,AFNE01.JPG,AFNE01.JPG,AFNE01.JPG,,,,,,,,,,,,,,,,,,,,,2,8,28,2,,,AFNE10.jpg,AFSA03.jpg,AFSA06.jpg,AFNE11.jpg,AFSA03.jpg,FS,4,num_6,48,None,,,,2017_Apr_13_1910,60.007179009,MAFE4ImagesEEG,001,100136,
AFNE01.JPG,AFNE01.JPG,AFNE01.JPG,AFNE01.JPG,AFNE01.JPG,AFNE01.JPG,,,,,,,,,,,,,,,,,,,,,2,9,29,6,,,AFNE20.jpg,AFSA01.jpg,AFSA19.jpg,AFNE18.jpg,AFSA19.jpg,FS,4,num_2,48,None,,,,2017_Apr_13_1910,60.007179009,MAFE4ImagesEEG,001,100136,
AFNE01.JPG,AFNE01.JPG,AFNE01.JPG,AFNE01.JPG,AFNE01.JPG,AFNE01.JPG,,,,,,,,,,,,,,,,,,,,,3,0,30,8,,,AFSA12.jpg,AFSA14.jpg,AFNE10.jpg,AFNE16.jpg,AFSA12.jpg,FS,4,num_8,48,None,,,,2017_Apr_13_1910,60.007179009,MAFE4ImagesEEG,001,100136,
AFNE01.JPG,AFNE01.JPG,AFNE01.JPG,AFNE01.JPG,AFNE01.JPG,AFNE01.JPG,,,,,,,,,,,,,,,,,,,,,3,1,31,1,,,AFSA16.jpg,AFNE15.jpg,AFSA02.jpg,AFNE06.jpg,AFSA16.jpg,FS,4,num_8,48,None,,,,2017_Apr_13_1910,60.007179009,MAFE4ImagesEEG,001,100136,
AFNE01.JPG,AFNE01.JPG,AFNE01.JPG,AFNE01.JPG,AFNE01.JPG,AFNE01.JPG,,,,,,,,,,,,,,,,,,,,,3,2,32,5,,,AFNE18.jpg,AFSA20.jpg,AFNE04.jpg,AFSA05.jpg,AFSA20.jpg,FS,4,num_6,48,None,,,,2017_Apr_13_1910,60.007179009,MAFE4ImagesEEG,001,100136,
AFNE01.JPG,AFNE01.JPG,AFNE01.JPG,AFNE01.JPG,AFNE01.JPG,AFNE01.JPG,,,,,,,,,,,,,,,,,,,,,3,3,33,3,,,AFNE18.jpg,AFSA08.jpg,AFSA05.jpg,AFNE07.jpg,AFSA08.jpg,FS,4,num_6,48,None,,,,2017_Apr_13_1910,60.007179009,MAFE4ImagesEEG,001,100136,
AFNE01.JPG,AFNE01.JPG,AFNE01.JPG,AFNE01.JPG,AFNE01.JPG,AFNE01.JPG,,,,,,,,,,,,,,,,,,,,,3,4,34,7,,,AFSA14.jpg,AFNE11.jpg,AFSA16.jpg,AFNE09.jpg,AFNE09.jpg,FN,3,num_4,48,None,,,,2017_Apr_13_1910,60.007179009,MAFE4ImagesEEG,001,100136,
AFNE01.JPG,AFNE01.JPG,AFNE01.JPG,AFNE01.JPG,AFNE01.JPG,AFNE01.JPG,,,,,,,,,,,,,,,,,,,,,3,5,35,9,,,AFSA20.jpg,AFNE19.jpg,AFNE17.jpg,AFSA01.jpg,AFNE17.jpg,FN,3,num_2,48,None,,,,2017_Apr_13_1910,60.007179009,MAFE4ImagesEEG,001,100136,
AFNE01.JPG,AFNE01.JPG,AFNE01.JPG,AFNE01.JPG,AFNE01.JPG,AFNE01.JPG,,,,,,,,,,,,,,,,,,,,,3,6,36,2,,,AFNE11.jpg,AFSA19.jpg,AFNE18.jpg,AFSA01.jpg,AFNE11.jpg,FN,3,num_8,48,None,,,,2017_Apr_13_1910,60.007179009,MAFE4ImagesEEG,001,100136,
AFNE01.JPG,AFNE01.JPG,AFNE01.JPG,AFNE01.JPG,AFNE01.JPG,AFNE01.JPG,,,,,,,,,,,,,,,,,,,,,3,7,37,0,,,AFNE05.jpg,AFSA14.jpg,AFNE14.jpg,AFSA17.jpg,AFSA17.jpg,FS,4,num_4,48,None,,,,2017_Apr_13_1910,60.007179009,MAFE4ImagesEEG,001,100136,
AFNE01.JPG,AFNE01.JPG,AFNE01.JPG,AFNE01.JPG,AFNE01.JPG,AFNE01.JPG,,,,,,,,,,,,,,,,,,,,,3,8,38,4,,,AFNE02.jpg,AFSA20.jpg,AFSA09.jpg,AFNE06.jpg,AFNE06.jpg,FN,3,num_4,48,None,,,,2017_Apr_13_1910,60.007179009,MAFE4ImagesEEG,001,100136,
AFNE01.JPG,AFNE01.JPG,AFNE01.JPG,AFNE01.JPG,AFNE01.JPG,AFNE01.JPG,,,,,,,,,,,,,,,,,,,,,3,9,39,6,,,AFSA04.jpg,AFSA03.jpg,AFNE16.jpg,AFNE02.jpg,AFSA04.jpg,FS,4,num_8,48,None,,,,2017_Apr_13_1910,60.007179009,MAFE4ImagesEEG,001,100136,
AFNE01.JPG,AFNE01.JPG,AFNE01.JPG,AFNE01.JPG,AFNE01.JPG,AFNE01.JPG,,,,,,,,,,,,,,,,,,,,,4,0,40,3,,,AFSA10.jpg,AFSA07.jpg,AFNE10.jpg,AFNE04.jpg,AFSA07.jpg,FS,4,num_6,48,None,,,,2017_Apr_13_1910,60.007179009,MAFE4ImagesEEG,001,100136,
AFNE01.JPG,AFNE01.JPG,AFNE01.JPG,AFNE01.JPG,AFNE01.JPG,AFNE01.JPG,,,,,,,,,,,,,,,,,,,,,4,1,41,2,,,AFNE18.jpg,AFSA08.jpg,AFSA14.jpg,AFNE17.jpg,AFSA08.jpg,FS,4,num_6,48,None,,,,2017_Apr_13_1910,60.007179009,MAFE4ImagesEEG,001,100136,
AFNE01.JPG,AFNE01.JPG,AFNE01.JPG,AFNE01.JPG,AFNE01.JPG,AFNE01.JPG,,,,,,,,,,,,,,,,,,,,,4,2,42,1,,,AFSA16.jpg,AFNE12.jpg,AFNE02.jpg,AFSA13.jpg,AFNE02.jpg,FN,3,num_2,48,None,,,,2017_Apr_13_1910,60.007179009,MAFE4ImagesEEG,001,100136,
AFNE01.JPG,AFNE01.JPG,AFNE01.JPG,AFNE01.JPG,AFNE01.JPG,AFNE01.JPG,,,,,,,,,,,,,,,,,,,,,4,3,43,6,,,AFSA17.jpg,AFSA19.jpg,AFNE03.jpg,AFNE09.jpg,AFSA17.jpg,FS,4,num_8,48,None,,,,2017_Apr_13_1910,60.007179009,MAFE4ImagesEEG,001,100136,
AFNE01.JPG,AFNE01.JPG,AFNE01.JPG,AFNE01.JPG,AFNE01.JPG,AFNE01.JPG,,,,,,,,,,,,,,,,,,,,,4,4,44,7,,,AFNE06.jpg,AFSA08.jpg,AFSA12.jpg,AFNE15.jpg,AFNE06.jpg,FN,3,num_8,48,None,,,,2017_Apr_13_1910,60.007179009,MAFE4ImagesEEG,001,100136,
AFNE01.JPG,AFNE01.JPG,AFNE01.JPG,AFNE01.JPG,AFNE01.JPG,AFNE01.JPG,,,,,,,,,,,,,,,,,,,,,4,5,45,8,,,AFSA02.jpg,AFNE17.jpg,AFNE05.jpg,AFSA20.jpg,AFNE05.jpg,FN,3,num_2,48,None,,,,2017_Apr_13_1910,60.007179009,MAFE4ImagesEEG,001,100136,
AFNE01.JPG,AFNE01.JPG,AFNE01.JPG,AFNE01.JPG,AFNE01.JPG,AFNE01.JPG,,,,,,,,,,,,,,,,,,,,,4,6,46,5,,,AFNE11.jpg,AFNE03.jpg,AFSA05.jpg,AFSA11.jpg,AFSA05.jpg,FS,4,num_2,48,None,,,,2017_Apr_13_1910,60.007179009,MAFE4ImagesEEG,001,100136,
AFNE01.JPG,AFNE01.JPG,AFNE01.JPG,AFNE01.JPG,AFNE01.JPG,AFNE01.JPG,,,,,,,,,,,,,,,,,,,,,4,7,47,4,,,AFNE16.jpg,AFNE07.jpg,AFSA03.jpg,AFSA14.jpg,AFSA14.jpg,FS,4,num_4,48,None,,,,2017_Apr_13_1910,60.007179009,MAFE4ImagesEEG,001,100136,
AFNE01.JPG,AFNE01.JPG,AFNE01.JPG,AFNE01.JPG,AFNE01.JPG,AFNE01.JPG,,,,,,,,,,,,,,,,,,,,,4,8,48,0,,,AFNE05.jpg,AFSA13.jpg,AFSA20.jpg,AFNE06.jpg,AFSA13.jpg,FS,4,num_6,48,None,,,,2017_Apr_13_1910,60.007179009,MAFE4ImagesEEG,001,100136,
AFNE01.JPG,AFNE01.JPG,AFNE01.JPG,AFNE01.JPG,AFNE01.JPG,AFNE01.JPG,,,,,,,,,,,,,,,,,,,,,4,9,49,9,,,AFSA16.jpg,AFNE20.jpg,AFNE19.jpg,AFSA09.jpg,AFNE19.jpg,FN,3,num_2,48,None,,,,2017_Apr_13_1910,60.007179009,MAFE4ImagesEEG,001,100136,
AFNE01.JPG,AFNE01.JPG,AFNE01.JPG,AFNE01.JPG,AFNE01.JPG,AFNE01.JPG,,,,,,,,,,,,,,,,,,,,,5,0,50,5,,,AFSA17.jpg,AFNE01.jpg,AFNE14.jpg,AFSA06.jpg,AFNE01.jpg,FN,3,num_6,48,None,,,,2017_Apr_13_1910,60.007179009,MAFE4ImagesEEG,001,100136,
AFNE01.JPG,AFNE01.JPG,AFNE01.JPG,AFNE01.JPG,AFNE01.JPG,AFNE01.JPG,,,,,,,,,,,,,,,,,,,,,5,1,51,0,,,AFSA06.jpg,AFSA14.jpg,AFNE05.jpg,AFNE12.jpg,AFSA14.jpg,FS,4,num_6,48,None,,,,2017_Apr_13_1910,60.007179009,MAFE4ImagesEEG,001,100136,
AFNE01.JPG,AFNE01.JPG,AFNE01.JPG,AFNE01.JPG,AFNE01.JPG,AFNE01.JPG,,,,,,,,,,,,,,,,,,,,,5,2,52,6,,,AFNE08.jpg,AFSA02.jpg,AFNE03.jpg,AFSA18.jpg,AFNE08.jpg,FN,3,num_8,48,None,,,,2017_Apr_13_1910,60.007179009,MAFE4ImagesEEG,001,100136,
AFNE01.JPG,AFNE01.JPG,AFNE01.JPG,AFNE01.JPG,AFNE01.JPG,AFNE01.JPG,,,,,,,,,,,,,,,,,,,,,5,3,53,8,,,AFSA04.jpg,AFSA20.jpg,AFNE15.jpg,AFNE18.jpg,AFSA04.jpg,FS,4,num_8,48,None,,,,2017_Apr_13_1910,60.007179009,MAFE4ImagesEEG,001,100136,
AFNE01.JPG,AFNE01.JPG,AFNE01.JPG,AFNE01.JPG,AFNE01.JPG,AFNE01.JPG,,,,,,,,,,,,,,,,,,,,,5,4,54,4,,,AFSA15.jpg,AFNE13.jpg,AFSA02.jpg,AFNE03.jpg,AFSA15.jpg,FS,4,num_8,48,None,,,,2017_Apr_13_1910,60.007179009,MAFE4ImagesEEG,001,100136,
AFNE01.JPG,AFNE01.JPG,AFNE01.JPG,AFNE01.JPG,AFNE01.JPG,AFNE01.JPG,,,,,,,,,,,,,,,,,,,,,5,5,55,2,,,AFSA08.jpg,AFNE12.jpg,AFNE08.jpg,AFSA07.jpg,AFNE08.jpg,FN,3,num_2,48,None,,,,2017_Apr_13_1910,60.007179009,MAFE4ImagesEEG,001,100136,
AFNE01.JPG,AFNE01.JPG,AFNE01.JPG,AFNE01.JPG,AFNE01.JPG,AFNE01.JPG,,,,,,,,,,,,,,,,,,,,,5,6,56,9,,,AFSA03.jpg,AFNE07.jpg,AFSA18.jpg,AFNE16.jpg,AFSA18.jpg,FS,4,num_2,48,None,,,,2017_Apr_13_1910,60.007179009,MAFE4ImagesEEG,001,100136,
AFNE01.JPG,AFNE01.JPG,AFNE01.JPG,AFNE01.JPG,AFNE01.JPG,AFNE01.JPG,,,,,,,,,,,,,,,,,,,,,5,7,57,1,,,AFSA14.jpg,AFNE05.jpg,AFNE13.jpg,AFSA15.jpg,AFSA14.jpg,FS,4,num_8,48,None,,,,2017_Apr_13_1910,60.007179009,MAFE4ImagesEEG,001,100136,
AFNE01.JPG,AFNE01.JPG,AFNE01.JPG,AFNE01.JPG,AFNE01.JPG,AFNE01.JPG,,,,,,,,,,,,,,,,,,,,,5,8,58,7,,,AFSA17.jpg,AFNE16.jpg,AFNE17.jpg,AFSA03.jpg,AFSA17.jpg,FS,4,num_8,48,None,,,,2017_Apr_13_1910,60.007179009,MAFE4ImagesEEG,001,100136,
AFNE01.JPG,AFNE01.JPG,AFNE01.JPG,AFNE01.JPG,AFNE01.JPG,AFNE01.JPG,,,,,,,,,,,,,,,,,,,,,5,9,59,3,,,AFNE01.jpg,AFSA20.jpg,AFSA16.jpg,AFNE07.jpg,AFNE07.jpg,FN,3,num_4,48,None,,,,2017_Apr_13_1910,60.007179009,MAFE4ImagesEEG,001,100136,
