IPosition2,IPosition3,IPosition1,IPosition6,IPosition4,IPosition5,TrialsM1.thisRepN,TrialsM1.thisTrialN,TrialsM1.thisN,TrialsM1.thisIndex,TrialsF1.thisRepN,TrialsF1.thisTrialN,TrialsF1.thisN,TrialsF1.thisIndex,TrialsM2.thisRepN,TrialsM2.thisTrialN,TrialsM2.thisN,TrialsM2.thisIndex,TrialsF2.thisRepN,TrialsF2.thisTrialN,TrialsF2.thisN,TrialsF2.thisIndex,TrialsM3.thisRepN,TrialsM3.thisTrialN,TrialsM3.thisN,TrialsM3.thisIndex,TrialsF3.thisRepN,TrialsF3.thisTrialN,TrialsF3.thisN,TrialsF3.thisIndex,InstrKey_resp.keys,InstrKey_resp.rt,Image0 _Position,Image1 _Position,Image2 _Position,Image3 _Position,Center_image,condition,code,correct_answer,accuracy,Key_Resp.keys,Key_Resp.rt,BreakKey_resp.keys,BreakKey_resp.rt,date,frameRate,expName,session,participant,
,,,,,,,,,,,,,,,,,,,,,,,,,,,,,,space,37.5474454896,,,,,,,,,,,,,,2017_Apr_18_1326,59.996670912,MAFE4ImagesEEG,001,100232,
AMSA21.JPG,AMNE23.JPG,AMNE21.JPG,AMSA25.JPG,AMNE25.JPG,AMSA23.JPG,0,0,0,5,,,,,,,,,,,,,,,,,,,,,,,AMSA01.jpg,AMSA20.jpg,AMNE02.jpg,AMNE07.jpg,AMNE07.jpg,MN,1,num_4,32,num_6,1.83336642291,,,2017_Apr_18_1326,59.996670912,MAFE4ImagesEEG,001,100232,
AFSA21.JPG,AFNE23.JPG,AFNE21.JPG,AFSA25.JPG,AFNE25.JPG,AFSA23.JPG,0,1,1,4,,,,,,,,,,,,,,,,,,,,,,,AMSA17.jpg,AMSA08.jpg,AMNE18.jpg,AMNE17.jpg,AMNE17.jpg,MN,1,num_4,32,num_6,1.53309049108,,,2017_Apr_18_1326,59.996670912,MAFE4ImagesEEG,001,100232,
AMSA21.JPG,AMNE22.JPG,AMNE21.JPG,AMSA23.JPG,AMSA22.JPG,AMNE23.JPG,0,2,2,1,,,,,,,,,,,,,,,,,,,,,,,AMSA05.jpg,AMNE02.jpg,AMSA02.jpg,AMNE14.jpg,AMSA05.jpg,MS,2,num_8,16,num_8,1.03342133346,,,2017_Apr_18_1326,59.996670912,MAFE4ImagesEEG,001,100232,
AMNE22.JPG,AMSA24.JPG,AMSA22.JPG,AMNE25.JPG,AMNE24.JPG,AMSA25.JPG,0,3,3,7,,,,,,,,,,,,,,,,,,,,,,,AMSA07.jpg,AMNE14.jpg,AMNE12.jpg,AMSA15.jpg,AMSA15.jpg,MS,2,num_4,16,num_4,0.749929998696,,,2017_Apr_18_1326,59.996670912,MAFE4ImagesEEG,001,100232,
AFNE23.JPG,AFNE24.JPG,AFNE22.JPG,AFSA24.JPG,AFSA22.JPG,AFSA23.JPG,0,4,4,8,,,,,,,,,,,,,,,,,,,,,,,AMSA13.jpg,AMNE03.jpg,AMNE13.jpg,AMSA10.jpg,AMNE03.jpg,MN,1,num_6,32,num_8,2.70023243962,,,2017_Apr_18_1326,59.996670912,MAFE4ImagesEEG,001,100232,
AMNE23.JPG,AMNE24.JPG,AMNE22.JPG,AMSA24.JPG,AMSA22.JPG,AMSA23.JPG,0,5,5,9,,,,,,,,,,,,,,,,,,,,,,,AMSA06.jpg,AMNE07.jpg,AMNE17.jpg,AMSA14.jpg,AMNE17.jpg,MN,1,num_2,32,num_8,1.16676315568,,,2017_Apr_18_1326,59.996670912,MAFE4ImagesEEG,001,100232,
AMSA25.JPG,AMNE24.JPG,AMSA24.JPG,AMNE26.JPG,AMSA21.JPG,AMNE25.JPG,0,6,6,3,,,,,,,,,,,,,,,,,,,,,,,AMSA19.jpg,AMSA20.jpg,AMNE16.jpg,AMNE13.jpg,AMNE16.jpg,MN,1,num_2,32,num_4,1.56676168028,,,2017_Apr_18_1326,59.996670912,MAFE4ImagesEEG,001,100232,
AFSA21.JPG,AFNE22.JPG,AFNE21.JPG,AFSA23.JPG,AFSA22.JPG,AFNE23.JPG,0,7,7,0,,,,,,,,,,,,,,,,,,,,,,,AMSA04.jpg,AMSA02.jpg,AMNE19.jpg,AMNE16.jpg,AMSA04.jpg,MS,2,num_8,32,num_6,1.39992699979,,,2017_Apr_18_1326,59.996670912,MAFE4ImagesEEG,001,100232,
AFSA25.JPG,AFNE24.JPG,AFSA24.JPG,AFNE21.JPG,AFSA21.JPG,AFNE25.JPG,0,8,8,2,,,,,,,,,,,,,,,,,,,,,,,AMNE17.jpg,AMNE04.jpg,AMSA12.jpg,AMSA09.jpg,AMNE17.jpg,MN,1,num_8,32,num_2,1.90008175639,,,2017_Apr_18_1326,59.996670912,MAFE4ImagesEEG,001,100232,
AFNE22.JPG,AFSA24.JPG,AFSA22.JPG,AFNE25.JPG,AFNE24.JPG,AFSA25.JPG,0,9,9,6,,,,,,,,,,,,,,,,,,,,,,,AMNE02.jpg,AMSA10.jpg,AMNE04.jpg,AMSA01.jpg,AMNE02.jpg,MN,1,num_8,32,num_6,1.48342981699,,,2017_Apr_18_1326,59.996670912,MAFE4ImagesEEG,001,100232,
AFNE22.JPG,AFSA24.JPG,AFSA22.JPG,AFNE25.JPG,AFNE24.JPG,AFSA25.JPG,,,,,0,0,0,6,,,,,,,,,,,,,,,,,,,AFSA20.jpg,AFNE05.jpg,AFSA13.jpg,AFNE09.jpg,AFNE05.jpg,FN,3,num_6,16,num_6,1.31681195613,,,2017_Apr_18_1326,59.996670912,MAFE4ImagesEEG,001,100232,
AMSA21.JPG,AMNE23.JPG,AMNE21.JPG,AMSA25.JPG,AMNE25.JPG,AMSA23.JPG,,,,,0,1,1,5,,,,,,,,,,,,,,,,,,,AFSA09.jpg,AFSA01.jpg,AFNE03.jpg,AFNE10.jpg,AFSA01.jpg,FS,4,num_6,32,num_8,1.24980090122,,,2017_Apr_18_1326,59.996670912,MAFE4ImagesEEG,001,100232,
AMNE23.JPG,AMNE24.JPG,AMNE22.JPG,AMSA24.JPG,AMSA22.JPG,AMSA23.JPG,,,,,0,2,2,9,,,,,,,,,,,,,,,,,,,AFNE08.jpg,AFSA11.jpg,AFNE05.jpg,AFSA15.jpg,AFSA15.jpg,FS,4,num_4,16,num_4,1.15009242097,,,2017_Apr_18_1326,59.996670912,MAFE4ImagesEEG,001,100232,
AFSA21.JPG,AFNE23.JPG,AFNE21.JPG,AFSA25.JPG,AFNE25.JPG,AFSA23.JPG,,,,,0,3,3,4,,,,,,,,,,,,,,,,,,,AFNE05.jpg,AFNE18.jpg,AFSA20.jpg,AFSA12.jpg,AFSA20.jpg,FS,4,num_2,16,num_2,0.983469749015,,,2017_Apr_18_1326,59.996670912,MAFE4ImagesEEG,001,100232,
AFSA25.JPG,AFNE24.JPG,AFSA24.JPG,AFNE21.JPG,AFSA21.JPG,AFNE25.JPG,,,,,0,4,4,2,,,,,,,,,,,,,,,,,,,AFSA01.jpg,AFNE14.jpg,AFSA10.jpg,AFNE12.jpg,AFNE12.jpg,FN,3,num_4,16,num_4,1.51676166423,,,2017_Apr_18_1326,59.996670912,MAFE4ImagesEEG,001,100232,
AMSA21.JPG,AMNE22.JPG,AMNE21.JPG,AMSA23.JPG,AMSA22.JPG,AMNE23.JPG,,,,,0,5,5,1,,,,,,,,,,,,,,,,,,,AFSA01.jpg,AFNE19.jpg,AFNE09.jpg,AFSA19.jpg,AFSA19.jpg,FS,4,num_4,32,num_2,1.50003191353,,,2017_Apr_18_1326,59.996670912,MAFE4ImagesEEG,001,100232,
AMSA25.JPG,AMNE24.JPG,AMSA24.JPG,AMNE26.JPG,AMSA21.JPG,AMNE25.JPG,,,,,0,6,6,3,,,,,,,,,,,,,,,,,,,AFSA10.jpg,AFNE13.jpg,AFNE03.jpg,AFSA02.jpg,AFSA02.jpg,FS,4,num_4,32,num_8,1.63338271646,,,2017_Apr_18_1326,59.996670912,MAFE4ImagesEEG,001,100232,
AFSA21.JPG,AFNE22.JPG,AFNE21.JPG,AFSA23.JPG,AFSA22.JPG,AFNE23.JPG,,,,,0,7,7,0,,,,,,,,,,,,,,,,,,,AFNE19.jpg,AFNE17.jpg,AFSA01.jpg,AFSA20.jpg,AFSA20.jpg,FS,4,num_4,32,num_2,0.81660812645,,,2017_Apr_18_1326,59.996670912,MAFE4ImagesEEG,001,100232,
AFNE23.JPG,AFNE24.JPG,AFNE22.JPG,AFSA24.JPG,AFSA22.JPG,AFSA23.JPG,,,,,0,8,8,8,,,,,,,,,,,,,,,,,,,AFNE08.jpg,AFNE04.jpg,AFSA15.jpg,AFSA07.jpg,AFNE08.jpg,FN,3,num_8,32,num_6,1.36673627775,,,2017_Apr_18_1326,59.996670912,MAFE4ImagesEEG,001,100232,
AMNE22.JPG,AMSA24.JPG,AMSA22.JPG,AMNE25.JPG,AMNE24.JPG,AMSA25.JPG,,,,,0,9,9,7,,,,,,,,,,,,,,,,,,,AFSA04.jpg,AFNE02.jpg,AFSA20.jpg,AFNE01.jpg,AFSA20.jpg,FS,4,num_2,16,num_2,0.833531603552,,,2017_Apr_18_1326,59.996670912,MAFE4ImagesEEG,001,100232,
AMSA21.JPG,AMNE23.JPG,AMNE21.JPG,AMSA25.JPG,AMNE25.JPG,AMSA23.JPG,,,,,,,,,0,0,0,5,,,,,,,,,,,,,,,AMSA11.jpg,AMNE07.jpg,AMNE15.jpg,AMSA15.jpg,AMSA11.jpg,MS,2,num_8,32,num_4,1.46675362973,,,2017_Apr_18_1326,59.996670912,MAFE4ImagesEEG,001,100232,
AFNE22.JPG,AFSA24.JPG,AFSA22.JPG,AFNE25.JPG,AFNE24.JPG,AFSA25.JPG,,,,,,,,,0,1,1,6,,,,,,,,,,,,,,,AMNE10.jpg,AMSA03.jpg,AMNE12.jpg,AMSA05.jpg,AMNE12.jpg,MN,1,num_2,32,num_8,1.18342074008,,,2017_Apr_18_1326,59.996670912,MAFE4ImagesEEG,001,100232,
AFSA21.JPG,AFNE22.JPG,AFNE21.JPG,AFSA23.JPG,AFSA22.JPG,AFNE23.JPG,,,,,,,,,0,2,2,0,,,,,,,,,,,,,,,AMNE02.jpg,AMSA11.jpg,AMSA01.jpg,AMNE06.jpg,AMNE02.jpg,MN,1,num_8,32,num_6,1.41672474718,,,2017_Apr_18_1326,59.996670912,MAFE4ImagesEEG,001,100232,
AFNE23.JPG,AFNE24.JPG,AFNE22.JPG,AFSA24.JPG,AFSA22.JPG,AFSA23.JPG,,,,,,,,,0,3,3,8,,,,,,,,,,,,,,,AMNE20.jpg,AMSA01.jpg,AMSA06.jpg,AMNE13.jpg,AMSA01.jpg,MS,2,num_6,16,num_6,0.616824881901,,,2017_Apr_18_1326,59.996670912,MAFE4ImagesEEG,001,100232,
AMNE23.JPG,AMNE24.JPG,AMNE22.JPG,AMSA24.JPG,AMSA22.JPG,AMSA23.JPG,,,,,,,,,0,4,4,9,,,,,,,,,,,,,,,AMSA06.jpg,AMNE20.jpg,AMNE11.jpg,AMSA11.jpg,AMNE11.jpg,MN,1,num_2,32,num_8,1.3001755405,,,2017_Apr_18_1326,59.996670912,MAFE4ImagesEEG,001,100232,
AMSA21.JPG,AMNE22.JPG,AMNE21.JPG,AMSA23.JPG,AMSA22.JPG,AMNE23.JPG,,,,,,,,,0,5,5,1,,,,,,,,,,,,,,,AMNE05.jpg,AMNE18.jpg,AMSA14.jpg,AMSA09.jpg,AMSA09.jpg,MS,2,num_4,16,num_4,1.30010016682,,,2017_Apr_18_1326,59.996670912,MAFE4ImagesEEG,001,100232,
AFSA25.JPG,AFNE24.JPG,AFSA24.JPG,AFNE21.JPG,AFSA21.JPG,AFNE25.JPG,,,,,,,,,0,6,6,2,,,,,,,,,,,,,,,AMSA18.jpg,AMSA15.jpg,AMNE05.jpg,AMNE09.jpg,AMSA18.jpg,MS,2,num_8,16,num_8,0.883153147472,,,2017_Apr_18_1326,59.996670912,MAFE4ImagesEEG,001,100232,
AFSA21.JPG,AFNE23.JPG,AFNE21.JPG,AFSA25.JPG,AFNE25.JPG,AFSA23.JPG,,,,,,,,,0,7,7,4,,,,,,,,,,,,,,,AMNE13.jpg,AMNE07.jpg,AMSA16.jpg,AMSA02.jpg,AMSA16.jpg,MS,2,num_2,32,num_4,1.56669753246,,,2017_Apr_18_1326,59.996670912,MAFE4ImagesEEG,001,100232,
AMSA25.JPG,AMNE24.JPG,AMSA24.JPG,AMNE26.JPG,AMSA21.JPG,AMNE25.JPG,,,,,,,,,0,8,8,3,,,,,,,,,,,,,,,AMSA11.jpg,AMSA06.jpg,AMNE17.jpg,AMNE15.jpg,AMNE17.jpg,MN,1,num_2,32,num_8,1.58339168111,,,2017_Apr_18_1326,59.996670912,MAFE4ImagesEEG,001,100232,
AMNE22.JPG,AMSA24.JPG,AMSA22.JPG,AMNE25.JPG,AMNE24.JPG,AMSA25.JPG,,,,,,,,,0,9,9,7,,,,,,,,,,,,,,,AMNE13.jpg,AMSA14.jpg,AMNE04.jpg,AMSA02.jpg,AMNE13.jpg,MN,1,num_8,16,num_8,1.13345343943,,,2017_Apr_18_1326,59.996670912,MAFE4ImagesEEG,001,100232,
AMNE23.JPG,AMNE24.JPG,AMNE22.JPG,AMSA24.JPG,AMSA22.JPG,AMSA23.JPG,,,,,,,,,,,,,0,0,0,9,,,,,,,,,,,AFNE05.jpg,AFSA05.jpg,AFSA02.jpg,AFNE08.jpg,AFSA02.jpg,FS,4,num_2,32,num_4,2.11665601277,,,2017_Apr_18_1326,59.996670912,MAFE4ImagesEEG,001,100232,
AMSA25.JPG,AMNE24.JPG,AMSA24.JPG,AMNE26.JPG,AMSA21.JPG,AMNE25.JPG,,,,,,,,,,,,,0,1,1,3,,,,,,,,,,,AFNE16.jpg,AFSA12.jpg,AFNE17.jpg,AFSA04.jpg,AFNE17.jpg,FN,3,num_2,32,num_8,1.15006804481,,,2017_Apr_18_1326,59.996670912,MAFE4ImagesEEG,001,100232,
AFNE22.JPG,AFSA24.JPG,AFSA22.JPG,AFNE25.JPG,AFNE24.JPG,AFSA25.JPG,,,,,,,,,,,,,0,2,2,6,,,,,,,,,,,AFNE05.jpg,AFNE08.jpg,AFSA18.jpg,AFSA12.jpg,AFSA12.jpg,FS,4,num_4,16,num_4,1.03344987924,,,2017_Apr_18_1326,59.996670912,MAFE4ImagesEEG,001,100232,
AMSA21.JPG,AMNE23.JPG,AMNE21.JPG,AMSA25.JPG,AMNE25.JPG,AMSA23.JPG,,,,,,,,,,,,,0,3,3,5,,,,,,,,,,,AFNE02.jpg,AFSA06.jpg,AFNE01.jpg,AFSA13.jpg,AFNE02.jpg,FN,3,num_8,16,num_8,1.50010311762,,,2017_Apr_18_1326,59.996670912,MAFE4ImagesEEG,001,100232,
AFSA25.JPG,AFNE24.JPG,AFSA24.JPG,AFNE21.JPG,AFSA21.JPG,AFNE25.JPG,,,,,,,,,,,,,0,4,4,2,,,,,,,,,,,AFSA09.jpg,AFNE20.jpg,AFSA19.jpg,AFNE16.jpg,AFSA19.jpg,FS,4,num_2,32,num_8,0.816763684896,,,2017_Apr_18_1326,59.996670912,MAFE4ImagesEEG,001,100232,
AMNE22.JPG,AMSA24.JPG,AMSA22.JPG,AMNE25.JPG,AMNE24.JPG,AMSA25.JPG,,,,,,,,,,,,,0,5,5,7,,,,,,,,,,,AFNE18.jpg,AFSA04.jpg,AFNE17.jpg,AFSA12.jpg,AFSA12.jpg,FS,4,num_4,16,num_4,0.700019789598,,,2017_Apr_18_1326,59.996670912,MAFE4ImagesEEG,001,100232,
AMSA21.JPG,AMNE22.JPG,AMNE21.JPG,AMSA23.JPG,AMSA22.JPG,AMNE23.JPG,,,,,,,,,,,,,0,6,6,1,,,,,,,,,,,AFSA01.jpg,AFNE06.jpg,AFSA12.jpg,AFNE02.jpg,AFNE02.jpg,FN,3,num_4,32,num_8,1.33344676805,,,2017_Apr_18_1326,59.996670912,MAFE4ImagesEEG,001,100232,
AFNE23.JPG,AFNE24.JPG,AFNE22.JPG,AFSA24.JPG,AFSA22.JPG,AFSA23.JPG,,,,,,,,,,,,,0,7,7,8,,,,,,,,,,,AFSA09.jpg,AFNE11.jpg,AFSA08.jpg,AFNE13.jpg,AFSA08.jpg,FS,4,num_2,32,num_4,1.13344317579,,,2017_Apr_18_1326,59.996670912,MAFE4ImagesEEG,001,100232,
AFSA21.JPG,AFNE23.JPG,AFNE21.JPG,AFSA25.JPG,AFNE25.JPG,AFSA23.JPG,,,,,,,,,,,,,0,8,8,4,,,,,,,,,,,AFNE08.jpg,AFSA14.jpg,AFNE15.jpg,AFSA02.jpg,AFSA14.jpg,FS,4,num_6,16,num_6,0.816812437246,,,2017_Apr_18_1326,59.996670912,MAFE4ImagesEEG,001,100232,
AFSA21.JPG,AFNE22.JPG,AFNE21.JPG,AFSA23.JPG,AFSA22.JPG,AFNE23.JPG,,,,,,,,,,,,,0,9,9,0,,,,,,,,,,,AFNE13.jpg,AFSA13.jpg,AFNE08.jpg,AFSA15.jpg,AFNE13.jpg,FN,3,num_8,32,num_6,0.883489602755,,,2017_Apr_18_1326,59.996670912,MAFE4ImagesEEG,001,100232,
AFSA21.JPG,AFNE22.JPG,AFNE21.JPG,AFSA23.JPG,AFSA22.JPG,AFNE23.JPG,,,,,,,,,,,,,,,,,0,0,0,0,,,,,,,AMNE05.jpg,AMSA16.jpg,AMSA08.jpg,AMNE06.jpg,AMNE06.jpg,MN,1,num_4,32,num_8,1.25019605177,,,2017_Apr_18_1326,59.996670912,MAFE4ImagesEEG,001,100232,
AMSA25.JPG,AMNE24.JPG,AMSA24.JPG,AMNE26.JPG,AMSA21.JPG,AMNE25.JPG,,,,,,,,,,,,,,,,,0,1,1,3,,,,,,,AMSA03.jpg,AMNE17.jpg,AMNE10.jpg,AMSA16.jpg,AMNE10.jpg,MN,1,num_2,32,num_6,1.05046604993,,,2017_Apr_18_1326,59.996670912,MAFE4ImagesEEG,001,100232,
AFNE23.JPG,AFNE24.JPG,AFNE22.JPG,AFSA24.JPG,AFSA22.JPG,AFSA23.JPG,,,,,,,,,,,,,,,,,0,2,2,8,,,,,,,AMNE19.jpg,AMSA18.jpg,AMNE20.jpg,AMSA14.jpg,AMNE19.jpg,MN,1,num_8,16,num_8,1.766678673,,,2017_Apr_18_1326,59.996670912,MAFE4ImagesEEG,001,100232,
AFNE22.JPG,AFSA24.JPG,AFSA22.JPG,AFNE25.JPG,AFNE24.JPG,AFSA25.JPG,,,,,,,,,,,,,,,,,0,3,3,6,,,,,,,AMNE15.jpg,AMSA01.jpg,AMNE20.jpg,AMSA08.jpg,AMSA01.jpg,MS,2,num_6,32,num_8,1.23338932368,,,2017_Apr_18_1326,59.996670912,MAFE4ImagesEEG,001,100232,
AFSA21.JPG,AFNE23.JPG,AFNE21.JPG,AFSA25.JPG,AFNE25.JPG,AFSA23.JPG,,,,,,,,,,,,,,,,,0,4,4,4,,,,,,,AMNE19.jpg,AMNE08.jpg,AMSA08.jpg,AMSA05.jpg,AMNE08.jpg,MN,1,num_6,16,num_6,1.11679457207,,,2017_Apr_18_1326,59.996670912,MAFE4ImagesEEG,001,100232,
AMSA21.JPG,AMNE23.JPG,AMNE21.JPG,AMSA25.JPG,AMNE25.JPG,AMSA23.JPG,,,,,,,,,,,,,,,,,0,5,5,5,,,,,,,AMSA20.jpg,AMNE20.jpg,AMSA18.jpg,AMNE12.jpg,AMSA18.jpg,MS,2,num_2,16,num_2,1.05014723528,,,2017_Apr_18_1326,59.996670912,MAFE4ImagesEEG,001,100232,
AMSA21.JPG,AMNE22.JPG,AMNE21.JPG,AMSA23.JPG,AMSA22.JPG,AMNE23.JPG,,,,,,,,,,,,,,,,,0,6,6,1,,,,,,,AMNE10.jpg,AMSA09.jpg,AMSA12.jpg,AMNE07.jpg,AMNE10.jpg,MN,1,num_8,16,num_8,1.05013248128,,,2017_Apr_18_1326,59.996670912,MAFE4ImagesEEG,001,100232,
AMNE22.JPG,AMSA24.JPG,AMSA22.JPG,AMNE25.JPG,AMNE24.JPG,AMSA25.JPG,,,,,,,,,,,,,,,,,0,7,7,7,,,,,,,AMSA07.jpg,AMSA19.jpg,AMNE08.jpg,AMNE14.jpg,AMSA19.jpg,MS,2,num_6,32,num_8,1.41679498904,,,2017_Apr_18_1326,59.996670912,MAFE4ImagesEEG,001,100232,
AFSA25.JPG,AFNE24.JPG,AFSA24.JPG,AFNE21.JPG,AFSA21.JPG,AFNE25.JPG,,,,,,,,,,,,,,,,,0,8,8,2,,,,,,,AMSA14.jpg,AMSA09.jpg,AMNE15.jpg,AMNE05.jpg,AMNE05.jpg,MN,1,num_4,16,num_4,1.65003901791,,,2017_Apr_18_1326,59.996670912,MAFE4ImagesEEG,001,100232,
AMNE23.JPG,AMNE24.JPG,AMNE22.JPG,AMSA24.JPG,AMSA22.JPG,AMSA23.JPG,,,,,,,,,,,,,,,,,0,9,9,9,,,,,,,AMNE06.jpg,AMNE11.jpg,AMSA03.jpg,AMSA06.jpg,AMNE11.jpg,MN,1,num_6,32,num_8,1.30004692412,,,2017_Apr_18_1326,59.996670912,MAFE4ImagesEEG,001,100232,
AFSA21.JPG,AFNE23.JPG,AFNE21.JPG,AFSA25.JPG,AFNE25.JPG,AFSA23.JPG,,,,,,,,,,,,,,,,,,,,,0,0,0,4,,,AFNE07.jpg,AFSA11.jpg,AFSA17.jpg,AFNE19.jpg,AFSA11.jpg,FS,4,num_6,16,num_6,0.750161251563,,,2017_Apr_18_1326,59.996670912,MAFE4ImagesEEG,001,100232,
AMNE22.JPG,AMSA24.JPG,AMSA22.JPG,AMNE25.JPG,AMNE24.JPG,AMSA25.JPG,,,,,,,,,,,,,,,,,,,,,0,1,1,7,,,AFSA15.jpg,AFNE04.jpg,AFNE01.jpg,AFSA01.jpg,AFSA01.jpg,FS,4,num_4,16,num_4,0.983490917803,,,2017_Apr_18_1326,59.996670912,MAFE4ImagesEEG,001,100232,
AFSA25.JPG,AFNE24.JPG,AFSA24.JPG,AFNE21.JPG,AFSA21.JPG,AFNE25.JPG,,,,,,,,,,,,,,,,,,,,,0,2,2,2,,,AFSA02.jpg,AFNE07.jpg,AFNE08.jpg,AFSA03.jpg,AFNE07.jpg,FN,3,num_6,16,num_6,0.883470679153,,,2017_Apr_18_1326,59.996670912,MAFE4ImagesEEG,001,100232,
AFNE22.JPG,AFSA24.JPG,AFSA22.JPG,AFNE25.JPG,AFNE24.JPG,AFSA25.JPG,,,,,,,,,,,,,,,,,,,,,0,3,3,6,,,AFSA10.jpg,AFNE20.jpg,AFNE17.jpg,AFSA08.jpg,AFSA08.jpg,FS,4,num_4,32,num_6,1.20007543782,,,2017_Apr_18_1326,59.996670912,MAFE4ImagesEEG,001,100232,
AMSA21.JPG,AMNE23.JPG,AMNE21.JPG,AMSA25.JPG,AMNE25.JPG,AMSA23.JPG,,,,,,,,,,,,,,,,,,,,,0,4,4,5,,,AFSA10.jpg,AFNE16.jpg,AFSA08.jpg,AFNE08.jpg,AFNE08.jpg,FN,3,num_4,32,num_8,1.31676416601,,,2017_Apr_18_1326,59.996670912,MAFE4ImagesEEG,001,100232,
AMSA21.JPG,AMNE22.JPG,AMNE21.JPG,AMSA23.JPG,AMSA22.JPG,AMNE23.JPG,,,,,,,,,,,,,,,,,,,,,0,5,5,1,,,AFSA01.jpg,AFSA17.jpg,AFNE05.jpg,AFNE17.jpg,AFSA17.jpg,FS,4,num_6,16,num_6,1.01678972891,,,2017_Apr_18_1326,59.996670912,MAFE4ImagesEEG,001,100232,
AFNE23.JPG,AFNE24.JPG,AFNE22.JPG,AFSA24.JPG,AFSA22.JPG,AFSA23.JPG,,,,,,,,,,,,,,,,,,,,,0,6,6,8,,,AFSA02.jpg,AFSA11.jpg,AFNE19.jpg,AFNE16.jpg,AFNE16.jpg,FN,3,num_4,32,num_8,1.16676508011,,,2017_Apr_18_1326,59.996670912,MAFE4ImagesEEG,001,100232,
AFSA21.JPG,AFNE22.JPG,AFNE21.JPG,AFSA23.JPG,AFSA22.JPG,AFNE23.JPG,,,,,,,,,,,,,,,,,,,,,0,7,7,0,,,AFNE13.jpg,AFSA14.jpg,AFNE07.jpg,AFSA07.jpg,AFNE07.jpg,FN,3,num_2,16,num_2,1.71672773005,,,2017_Apr_18_1326,59.996670912,MAFE4ImagesEEG,001,100232,
AMNE23.JPG,AMNE24.JPG,AMNE22.JPG,AMSA24.JPG,AMSA22.JPG,AMSA23.JPG,,,,,,,,,,,,,,,,,,,,,0,8,8,9,,,AFNE20.jpg,AFSA07.jpg,AFNE01.jpg,AFSA05.jpg,AFSA07.jpg,FS,4,num_6,16,num_6,0.683475426093,,,2017_Apr_18_1326,59.996670912,MAFE4ImagesEEG,001,100232,
AMSA25.JPG,AMNE24.JPG,AMSA24.JPG,AMNE26.JPG,AMSA21.JPG,AMNE25.JPG,,,,,,,,,,,,,,,,,,,,,0,9,9,3,,,AFSA09.jpg,AFNE05.jpg,AFSA17.jpg,AFNE11.jpg,AFNE11.jpg,FN,3,num_4,16,num_4,0.71677455795,,,2017_Apr_18_1326,59.996670912,MAFE4ImagesEEG,001,100232,
,,,,,,,,,,,,,,,,,,,,,,,,,,,,,,,,,,,,,,,,,,,space,9.84941364084,2017_Apr_18_1326,59.996670912,MAFE4ImagesEEG,001,100232,
AFNE01.JPG,AFNE01.JPG,AFNE01.JPG,AFNE01.JPG,AFNE01.JPG,AFNE01.JPG,0,0,0,8,,,,,,,,,,,,,,,,,,,,,,,AMSA10.jpg,AMSA09.jpg,AMNE14.jpg,AMNE11.jpg,AMNE11.jpg,MN,1,num_4,32,num_6,0.900046475086,,,2017_Apr_18_1326,59.996670912,MAFE4ImagesEEG,001,100232,
AFNE01.JPG,AFNE01.JPG,AFNE01.JPG,AFNE01.JPG,AFNE01.JPG,AFNE01.JPG,0,1,1,7,,,,,,,,,,,,,,,,,,,,,,,AMSA15.jpg,AMSA18.jpg,AMNE07.jpg,AMNE16.jpg,AMNE07.jpg,MN,1,num_2,32,num_8,0.966910310759,,,2017_Apr_18_1326,59.996670912,MAFE4ImagesEEG,001,100232,
AFNE01.JPG,AFNE01.JPG,AFNE01.JPG,AFNE01.JPG,AFNE01.JPG,AFNE01.JPG,0,2,2,1,,,,,,,,,,,,,,,,,,,,,,,AMNE20.jpg,AMSA16.jpg,AMNE04.jpg,AMSA20.jpg,AMNE20.jpg,MN,1,num_8,16,num_8,1.1164789648,,,2017_Apr_18_1326,59.996670912,MAFE4ImagesEEG,001,100232,
AFNE01.JPG,AFNE01.JPG,AFNE01.JPG,AFNE01.JPG,AFNE01.JPG,AFNE01.JPG,0,3,3,5,,,,,,,,,,,,,,,,,,,,,,,AMSA16.jpg,AMNE06.jpg,AMSA18.jpg,AMNE09.jpg,AMNE06.jpg,MN,1,num_6,32,num_4,1.50008708067,,,2017_Apr_18_1326,59.996670912,MAFE4ImagesEEG,001,100232,
AFNE01.JPG,AFNE01.JPG,AFNE01.JPG,AFNE01.JPG,AFNE01.JPG,AFNE01.JPG,0,4,4,4,,,,,,,,,,,,,,,,,,,,,,,AMNE12.jpg,AMNE11.jpg,AMSA11.jpg,AMSA12.jpg,AMNE11.jpg,MN,1,num_6,32,num_8,0.9501135256,,,2017_Apr_18_1326,59.996670912,MAFE4ImagesEEG,001,100232,
AFNE01.JPG,AFNE01.JPG,AFNE01.JPG,AFNE01.JPG,AFNE01.JPG,AFNE01.JPG,0,5,5,3,,,,,,,,,,,,,,,,,,,,,,,AMNE06.jpg,AMSA08.jpg,AMSA06.jpg,AMNE02.jpg,AMSA06.jpg,MS,2,num_2,32,num_8,1.11707233211,,,2017_Apr_18_1326,59.996670912,MAFE4ImagesEEG,001,100232,
AFNE01.JPG,AFNE01.JPG,AFNE01.JPG,AFNE01.JPG,AFNE01.JPG,AFNE01.JPG,0,6,6,9,,,,,,,,,,,,,,,,,,,,,,,AMSA04.jpg,AMSA20.jpg,AMNE19.jpg,AMNE02.jpg,AMNE02.jpg,MN,1,num_4,16,num_4,1.06674708665,,,2017_Apr_18_1326,59.996670912,MAFE4ImagesEEG,001,100232,
AFNE01.JPG,AFNE01.JPG,AFNE01.JPG,AFNE01.JPG,AFNE01.JPG,AFNE01.JPG,0,7,7,6,,,,,,,,,,,,,,,,,,,,,,,AMSA08.jpg,AMNE07.jpg,AMNE19.jpg,AMSA05.jpg,AMSA08.jpg,MS,2,num_8,32,num_4,1.25005653026,,,2017_Apr_18_1326,59.996670912,MAFE4ImagesEEG,001,100232,
AFNE01.JPG,AFNE01.JPG,AFNE01.JPG,AFNE01.JPG,AFNE01.JPG,AFNE01.JPG,0,8,8,2,,,,,,,,,,,,,,,,,,,,,,,AMSA19.jpg,AMNE19.jpg,AMNE06.jpg,AMSA01.jpg,AMNE06.jpg,MN,1,num_2,16,num_2,2.38348014097,,,2017_Apr_18_1326,59.996670912,MAFE4ImagesEEG,001,100232,
AFNE01.JPG,AFNE01.JPG,AFNE01.JPG,AFNE01.JPG,AFNE01.JPG,AFNE01.JPG,0,9,9,0,,,,,,,,,,,,,,,,,,,,,,,AMNE16.jpg,AMSA09.jpg,AMNE20.jpg,AMSA18.jpg,AMNE20.jpg,MN,1,num_2,16,num_2,1.18330751918,,,2017_Apr_18_1326,59.996670912,MAFE4ImagesEEG,001,100232,
AFNE01.JPG,AFNE01.JPG,AFNE01.JPG,AFNE01.JPG,AFNE01.JPG,AFNE01.JPG,1,0,10,0,,,,,,,,,,,,,,,,,,,,,,,AMSA20.jpg,AMSA02.jpg,AMNE19.jpg,AMNE08.jpg,AMNE08.jpg,MN,1,num_4,16,num_4,1.58340964251,,,2017_Apr_18_1326,59.996670912,MAFE4ImagesEEG,001,100232,
AFNE01.JPG,AFNE01.JPG,AFNE01.JPG,AFNE01.JPG,AFNE01.JPG,AFNE01.JPG,1,1,11,8,,,,,,,,,,,,,,,,,,,,,,,AMSA06.jpg,AMNE09.jpg,AMNE08.jpg,AMSA12.jpg,AMSA06.jpg,MS,2,num_8,32,num_6,1.05017000776,,,2017_Apr_18_1326,59.996670912,MAFE4ImagesEEG,001,100232,
AFNE01.JPG,AFNE01.JPG,AFNE01.JPG,AFNE01.JPG,AFNE01.JPG,AFNE01.JPG,1,2,12,3,,,,,,,,,,,,,,,,,,,,,,,AMSA19.jpg,AMSA03.jpg,AMNE10.jpg,AMNE19.jpg,AMSA03.jpg,MS,2,num_6,16,num_6,0.8834546422,,,2017_Apr_18_1326,59.996670912,MAFE4ImagesEEG,001,100232,
AFNE01.JPG,AFNE01.JPG,AFNE01.JPG,AFNE01.JPG,AFNE01.JPG,AFNE01.JPG,1,3,13,9,,,,,,,,,,,,,,,,,,,,,,,AMNE04.jpg,AMSA05.jpg,AMNE06.jpg,AMSA12.jpg,AMNE04.jpg,MN,1,num_8,16,num_8,1.38345961366,,,2017_Apr_18_1326,59.996670912,MAFE4ImagesEEG,001,100232,
AFNE01.JPG,AFNE01.JPG,AFNE01.JPG,AFNE01.JPG,AFNE01.JPG,AFNE01.JPG,1,4,14,4,,,,,,,,,,,,,,,,,,,,,,,AMSA07.jpg,AMNE03.jpg,AMNE14.jpg,AMSA06.jpg,AMNE14.jpg,MN,1,num_2,32,num_6,1.25009983004,,,2017_Apr_18_1326,59.996670912,MAFE4ImagesEEG,001,100232,
AFNE01.JPG,AFNE01.JPG,AFNE01.JPG,AFNE01.JPG,AFNE01.JPG,AFNE01.JPG,1,5,15,2,,,,,,,,,,,,,,,,,,,,,,,AMNE04.jpg,AMNE09.jpg,AMSA17.jpg,AMSA05.jpg,AMNE09.jpg,MN,1,num_6,16,num_6,1.18341336308,,,2017_Apr_18_1326,59.996670912,MAFE4ImagesEEG,001,100232,
AFNE01.JPG,AFNE01.JPG,AFNE01.JPG,AFNE01.JPG,AFNE01.JPG,AFNE01.JPG,1,6,16,7,,,,,,,,,,,,,,,,,,,,,,,AMSA19.jpg,AMSA12.jpg,AMNE14.jpg,AMNE01.jpg,AMNE01.jpg,MN,1,num_4,32,num_2,0.983666041328,,,2017_Apr_18_1326,59.996670912,MAFE4ImagesEEG,001,100232,
AFNE01.JPG,AFNE01.JPG,AFNE01.JPG,AFNE01.JPG,AFNE01.JPG,AFNE01.JPG,1,7,17,1,,,,,,,,,,,,,,,,,,,,,,,AMNE03.jpg,AMSA12.jpg,AMSA07.jpg,AMNE11.jpg,AMSA12.jpg,MS,2,num_6,32,num_2,1.13344510022,,,2017_Apr_18_1326,59.996670912,MAFE4ImagesEEG,001,100232,
AFNE01.JPG,AFNE01.JPG,AFNE01.JPG,AFNE01.JPG,AFNE01.JPG,AFNE01.JPG,1,8,18,6,,,,,,,,,,,,,,,,,,,,,,,AMNE14.jpg,AMNE06.jpg,AMSA03.jpg,AMSA10.jpg,AMSA03.jpg,MS,2,num_2,16,num_2,0.850138511174,,,2017_Apr_18_1326,59.996670912,MAFE4ImagesEEG,001,100232,
AFNE01.JPG,AFNE01.JPG,AFNE01.JPG,AFNE01.JPG,AFNE01.JPG,AFNE01.JPG,1,9,19,5,,,,,,,,,,,,,,,,,,,,,,,AMSA05.jpg,AMSA07.jpg,AMNE20.jpg,AMNE01.jpg,AMSA07.jpg,MS,2,num_6,16,num_6,0.98343126032,,,2017_Apr_18_1326,59.996670912,MAFE4ImagesEEG,001,100232,
AFNE01.JPG,AFNE01.JPG,AFNE01.JPG,AFNE01.JPG,AFNE01.JPG,AFNE01.JPG,2,0,20,0,,,,,,,,,,,,,,,,,,,,,,,AMSA03.jpg,AMNE17.jpg,AMSA14.jpg,AMNE05.jpg,AMNE17.jpg,MN,1,num_6,32,num_4,0.766793497605,,,2017_Apr_18_1326,59.996670912,MAFE4ImagesEEG,001,100232,
AFNE01.JPG,AFNE01.JPG,AFNE01.JPG,AFNE01.JPG,AFNE01.JPG,AFNE01.JPG,2,1,21,3,,,,,,,,,,,,,,,,,,,,,,,AMSA09.jpg,AMNE09.jpg,AMNE19.jpg,AMSA08.jpg,AMSA09.jpg,MS,2,num_8,16,num_8,1.28312986181,,,2017_Apr_18_1326,59.996670912,MAFE4ImagesEEG,001,100232,
AFNE01.JPG,AFNE01.JPG,AFNE01.JPG,AFNE01.JPG,AFNE01.JPG,AFNE01.JPG,2,2,22,5,,,,,,,,,,,,,,,,,,,,,,,AMSA09.jpg,AMSA06.jpg,AMNE09.jpg,AMNE10.jpg,AMSA09.jpg,MS,2,num_8,16,num_8,0.750132385059,,,2017_Apr_18_1326,59.996670912,MAFE4ImagesEEG,001,100232,
AFNE01.JPG,AFNE01.JPG,AFNE01.JPG,AFNE01.JPG,AFNE01.JPG,AFNE01.JPG,2,3,23,1,,,,,,,,,,,,,,,,,,,,,,,AMNE15.jpg,AMSA10.jpg,AMNE20.jpg,AMSA16.jpg,AMSA16.jpg,MS,2,num_4,16,num_4,0.583479563618,,,2017_Apr_18_1326,59.996670912,MAFE4ImagesEEG,001,100232,
AFNE01.JPG,AFNE01.JPG,AFNE01.JPG,AFNE01.JPG,AFNE01.JPG,AFNE01.JPG,2,4,24,9,,,,,,,,,,,,,,,,,,,,,,,AMNE10.jpg,AMNE02.jpg,AMSA02.jpg,AMSA03.jpg,AMNE02.jpg,MN,1,num_6,16,num_6,1.13344125134,,,2017_Apr_18_1326,59.996670912,MAFE4ImagesEEG,001,100232,
AFNE01.JPG,AFNE01.JPG,AFNE01.JPG,AFNE01.JPG,AFNE01.JPG,AFNE01.JPG,2,5,25,4,,,,,,,,,,,,,,,,,,,,,,,AMNE10.jpg,AMSA13.jpg,AMSA07.jpg,AMNE18.jpg,AMSA07.jpg,MS,2,num_2,32,num_6,1.00011803198,,,2017_Apr_18_1326,59.996670912,MAFE4ImagesEEG,001,100232,
AFNE01.JPG,AFNE01.JPG,AFNE01.JPG,AFNE01.JPG,AFNE01.JPG,AFNE01.JPG,2,6,26,7,,,,,,,,,,,,,,,,,,,,,,,AMSA04.jpg,AMNE01.jpg,AMNE05.jpg,AMSA14.jpg,AMSA14.jpg,MS,2,num_4,16,num_4,1.13346723121,,,2017_Apr_18_1326,59.996670912,MAFE4ImagesEEG,001,100232,
AFNE01.JPG,AFNE01.JPG,AFNE01.JPG,AFNE01.JPG,AFNE01.JPG,AFNE01.JPG,2,7,27,2,,,,,,,,,,,,,,,,,,,,,,,AMSA17.jpg,AMNE07.jpg,AMNE05.jpg,AMSA13.jpg,AMSA17.jpg,MS,2,num_8,32,num_4,1.08348004473,,,2017_Apr_18_1326,59.996670912,MAFE4ImagesEEG,001,100232,
AFNE01.JPG,AFNE01.JPG,AFNE01.JPG,AFNE01.JPG,AFNE01.JPG,AFNE01.JPG,2,8,28,8,,,,,,,,,,,,,,,,,,,,,,,AMSA02.jpg,AMSA19.jpg,AMNE18.jpg,AMNE02.jpg,AMSA19.jpg,MS,2,num_6,16,num_6,1.18343100374,,,2017_Apr_18_1326,59.996670912,MAFE4ImagesEEG,001,100232,
AFNE01.JPG,AFNE01.JPG,AFNE01.JPG,AFNE01.JPG,AFNE01.JPG,AFNE01.JPG,2,9,29,6,,,,,,,,,,,,,,,,,,,,,,,AMNE04.jpg,AMNE15.jpg,AMSA06.jpg,AMSA10.jpg,AMNE15.jpg,MN,1,num_6,16,num_6,0.683426994496,,,2017_Apr_18_1326,59.996670912,MAFE4ImagesEEG,001,100232,
AFNE01.JPG,AFNE01.JPG,AFNE01.JPG,AFNE01.JPG,AFNE01.JPG,AFNE01.JPG,3,0,30,8,,,,,,,,,,,,,,,,,,,,,,,AMNE11.jpg,AMNE17.jpg,AMSA14.jpg,AMSA10.jpg,AMSA10.jpg,MS,2,num_4,32,num_6,0.966759884133,,,2017_Apr_18_1326,59.996670912,MAFE4ImagesEEG,001,100232,
AFNE01.JPG,AFNE01.JPG,AFNE01.JPG,AFNE01.JPG,AFNE01.JPG,AFNE01.JPG,3,1,31,3,,,,,,,,,,,,,,,,,,,,,,,AMSA17.jpg,AMSA02.jpg,AMNE16.jpg,AMNE17.jpg,AMSA02.jpg,MS,2,num_6,32,num_4,1.10013891209,,,2017_Apr_18_1326,59.996670912,MAFE4ImagesEEG,001,100232,
AFNE01.JPG,AFNE01.JPG,AFNE01.JPG,AFNE01.JPG,AFNE01.JPG,AFNE01.JPG,3,2,32,7,,,,,,,,,,,,,,,,,,,,,,,AMNE04.jpg,AMSA01.jpg,AMNE10.jpg,AMSA11.jpg,AMSA01.jpg,MS,2,num_6,32,num_8,1.18339925056,,,2017_Apr_18_1326,59.996670912,MAFE4ImagesEEG,001,100232,
AFNE01.JPG,AFNE01.JPG,AFNE01.JPG,AFNE01.JPG,AFNE01.JPG,AFNE01.JPG,3,3,33,2,,,,,,,,,,,,,,,,,,,,,,,AMNE05.jpg,AMSA01.jpg,AMSA07.jpg,AMNE13.jpg,AMSA01.jpg,MS,2,num_6,16,num_6,1.00010520243,,,2017_Apr_18_1326,59.996670912,MAFE4ImagesEEG,001,100232,
AFNE01.JPG,AFNE01.JPG,AFNE01.JPG,AFNE01.JPG,AFNE01.JPG,AFNE01.JPG,3,4,34,1,,,,,,,,,,,,,,,,,,,,,,,AMSA18.jpg,AMNE16.jpg,AMNE04.jpg,AMSA19.jpg,AMSA19.jpg,MS,2,num_4,32,num_8,0.91674158597,,,2017_Apr_18_1326,59.996670912,MAFE4ImagesEEG,001,100232,
AFNE01.JPG,AFNE01.JPG,AFNE01.JPG,AFNE01.JPG,AFNE01.JPG,AFNE01.JPG,3,5,35,5,,,,,,,,,,,,,,,,,,,,,,,AMSA20.jpg,AMNE14.jpg,AMSA06.jpg,AMNE03.jpg,AMSA06.jpg,MS,2,num_2,32,num_8,0.983381866507,,,2017_Apr_18_1326,59.996670912,MAFE4ImagesEEG,001,100232,
AFNE01.JPG,AFNE01.JPG,AFNE01.JPG,AFNE01.JPG,AFNE01.JPG,AFNE01.JPG,3,6,36,0,,,,,,,,,,,,,,,,,,,,,,,AMSA13.jpg,AMSA07.jpg,AMNE10.jpg,AMNE20.jpg,AMSA13.jpg,MS,2,num_8,32,num_6,1.03343352153,,,2017_Apr_18_1326,59.996670912,MAFE4ImagesEEG,001,100232,
AFNE01.JPG,AFNE01.JPG,AFNE01.JPG,AFNE01.JPG,AFNE01.JPG,AFNE01.JPG,3,7,37,6,,,,,,,,,,,,,,,,,,,,,,,AMNE14.jpg,AMSA15.jpg,AMNE02.jpg,AMSA09.jpg,AMSA09.jpg,MS,2,num_4,16,num_4,0.966769506311,,,2017_Apr_18_1326,59.996670912,MAFE4ImagesEEG,001,100232,
AFNE01.JPG,AFNE01.JPG,AFNE01.JPG,AFNE01.JPG,AFNE01.JPG,AFNE01.JPG,3,8,38,4,,,,,,,,,,,,,,,,,,,,,,,AMNE14.jpg,AMSA08.jpg,AMNE11.jpg,AMSA05.jpg,AMNE11.jpg,MN,1,num_2,32,num_4,1.15013347557,,,2017_Apr_18_1326,59.996670912,MAFE4ImagesEEG,001,100232,
AFNE01.JPG,AFNE01.JPG,AFNE01.JPG,AFNE01.JPG,AFNE01.JPG,AFNE01.JPG,3,9,39,9,,,,,,,,,,,,,,,,,,,,,,,AMSA18.jpg,AMNE01.jpg,AMSA16.jpg,AMNE12.jpg,AMSA18.jpg,MS,2,num_8,16,num_8,0.983456277972,,,2017_Apr_18_1326,59.996670912,MAFE4ImagesEEG,001,100232,
AFNE01.JPG,AFNE01.JPG,AFNE01.JPG,AFNE01.JPG,AFNE01.JPG,AFNE01.JPG,4,0,40,6,,,,,,,,,,,,,,,,,,,,,,,AMSA10.jpg,AMNE12.jpg,AMNE10.jpg,AMSA07.jpg,AMSA07.jpg,MS,2,num_4,16,num_4,1.68329998181,,,2017_Apr_18_1326,59.996670912,MAFE4ImagesEEG,001,100232,
AFNE01.JPG,AFNE01.JPG,AFNE01.JPG,AFNE01.JPG,AFNE01.JPG,AFNE01.JPG,4,1,41,5,,,,,,,,,,,,,,,,,,,,,,,AMSA07.jpg,AMNE18.jpg,AMNE03.jpg,AMSA19.jpg,AMSA19.jpg,MS,2,num_4,32,num_8,0.816793834369,,,2017_Apr_18_1326,59.996670912,MAFE4ImagesEEG,001,100232,
AFNE01.JPG,AFNE01.JPG,AFNE01.JPG,AFNE01.JPG,AFNE01.JPG,AFNE01.JPG,4,2,42,7,,,,,,,,,,,,,,,,,,,,,,,AMNE20.jpg,AMSA09.jpg,AMNE07.jpg,AMSA15.jpg,AMSA09.jpg,MS,2,num_6,16,num_6,0.783457176032,,,2017_Apr_18_1326,59.996670912,MAFE4ImagesEEG,001,100232,
AFNE01.JPG,AFNE01.JPG,AFNE01.JPG,AFNE01.JPG,AFNE01.JPG,AFNE01.JPG,4,3,43,3,,,,,,,,,,,,,,,,,,,,,,,AMSA06.jpg,AMSA07.jpg,AMNE12.jpg,AMNE09.jpg,AMSA06.jpg,MS,2,num_8,16,num_8,1.45018873891,,,2017_Apr_18_1326,59.996670912,MAFE4ImagesEEG,001,100232,
AFNE01.JPG,AFNE01.JPG,AFNE01.JPG,AFNE01.JPG,AFNE01.JPG,AFNE01.JPG,4,4,44,1,,,,,,,,,,,,,,,,,,,,,,,AMNE15.jpg,AMSA06.jpg,AMSA01.jpg,AMNE04.jpg,AMNE04.jpg,MN,1,num_4,32,num_2,1.13344926982,,,2017_Apr_18_1326,59.996670912,MAFE4ImagesEEG,001,100232,
AFNE01.JPG,AFNE01.JPG,AFNE01.JPG,AFNE01.JPG,AFNE01.JPG,AFNE01.JPG,4,5,45,2,,,,,,,,,,,,,,,,,,,,,,,AMNE17.jpg,AMSA14.jpg,AMNE07.jpg,AMSA09.jpg,AMSA09.jpg,MS,2,num_4,16,num_4,0.833446928416,,,2017_Apr_18_1326,59.996670912,MAFE4ImagesEEG,001,100232,
AFNE01.JPG,AFNE01.JPG,AFNE01.JPG,AFNE01.JPG,AFNE01.JPG,AFNE01.JPG,4,6,46,4,,,,,,,,,,,,,,,,,,,,,,,AMSA19.jpg,AMNE16.jpg,AMNE13.jpg,AMSA02.jpg,AMNE13.jpg,MN,1,num_2,32,num_4,1.10008438646,,,2017_Apr_18_1326,59.996670912,MAFE4ImagesEEG,001,100232,
AFNE01.JPG,AFNE01.JPG,AFNE01.JPG,AFNE01.JPG,AFNE01.JPG,AFNE01.JPG,4,7,47,9,,,,,,,,,,,,,,,,,,,,,,,AMNE20.jpg,AMNE05.jpg,AMSA11.jpg,AMSA17.jpg,AMSA17.jpg,MS,2,num_4,16,num_4,0.750096141535,,,2017_Apr_18_1326,59.996670912,MAFE4ImagesEEG,001,100232,
AFNE01.JPG,AFNE01.JPG,AFNE01.JPG,AFNE01.JPG,AFNE01.JPG,AFNE01.JPG,4,8,48,0,,,,,,,,,,,,,,,,,,,,,,,AMSA08.jpg,AMSA19.jpg,AMNE20.jpg,AMNE16.jpg,AMNE16.jpg,MN,1,num_4,32,num_6,0.850171226572,,,2017_Apr_18_1326,59.996670912,MAFE4ImagesEEG,001,100232,
AFNE01.JPG,AFNE01.JPG,AFNE01.JPG,AFNE01.JPG,AFNE01.JPG,AFNE01.JPG,4,9,49,8,,,,,,,,,,,,,,,,,,,,,,,AMNE11.jpg,AMSA14.jpg,AMSA05.jpg,AMNE19.jpg,AMNE11.jpg,MN,1,num_8,32,num_4,1.10010298932,,,2017_Apr_18_1326,59.996670912,MAFE4ImagesEEG,001,100232,
AFNE01.JPG,AFNE01.JPG,AFNE01.JPG,AFNE01.JPG,AFNE01.JPG,AFNE01.JPG,5,0,50,4,,,,,,,,,,,,,,,,,,,,,,,AMSA11.jpg,AMNE16.jpg,AMSA03.jpg,AMNE06.jpg,AMSA11.jpg,MS,2,num_8,32,num_6,1.83338374284,,,2017_Apr_18_1326,59.996670912,MAFE4ImagesEEG,001,100232,
AFNE01.JPG,AFNE01.JPG,AFNE01.JPG,AFNE01.JPG,AFNE01.JPG,AFNE01.JPG,5,1,51,5,,,,,,,,,,,,,,,,,,,,,,,AMSA05.jpg,AMNE12.jpg,AMSA12.jpg,AMNE15.jpg,AMSA05.jpg,MS,2,num_8,32,num_6,0.883447265209,,,2017_Apr_18_1326,59.996670912,MAFE4ImagesEEG,001,100232,
AFNE01.JPG,AFNE01.JPG,AFNE01.JPG,AFNE01.JPG,AFNE01.JPG,AFNE01.JPG,5,2,52,3,,,,,,,,,,,,,,,,,,,,,,,AMNE05.jpg,AMNE03.jpg,AMSA07.jpg,AMSA04.jpg,AMSA07.jpg,MS,2,num_2,32,num_6,1.03345885992,,,2017_Apr_18_1326,59.996670912,MAFE4ImagesEEG,001,100232,
AFNE01.JPG,AFNE01.JPG,AFNE01.JPG,AFNE01.JPG,AFNE01.JPG,AFNE01.JPG,5,3,53,1,,,,,,,,,,,,,,,,,,,,,,,AMSA13.jpg,AMNE10.jpg,AMSA17.jpg,AMNE09.jpg,AMSA13.jpg,MS,2,num_8,32,num_6,1.0667483696,,,2017_Apr_18_1326,59.996670912,MAFE4ImagesEEG,001,100232,
AFNE01.JPG,AFNE01.JPG,AFNE01.JPG,AFNE01.JPG,AFNE01.JPG,AFNE01.JPG,5,4,54,6,,,,,,,,,,,,,,,,,,,,,,,AMNE15.jpg,AMSA03.jpg,AMSA20.jpg,AMNE07.jpg,AMSA20.jpg,MS,2,num_2,32,num_6,0.916770773241,,,2017_Apr_18_1326,59.996670912,MAFE4ImagesEEG,001,100232,
AFNE01.JPG,AFNE01.JPG,AFNE01.JPG,AFNE01.JPG,AFNE01.JPG,AFNE01.JPG,5,5,55,7,,,,,,,,,,,,,,,,,,,,,,,AMSA11.jpg,AMNE12.jpg,AMSA08.jpg,AMNE04.jpg,AMSA08.jpg,MS,2,num_2,32,num_4,2.15022424473,,,2017_Apr_18_1326,59.996670912,MAFE4ImagesEEG,001,100232,
AFNE01.JPG,AFNE01.JPG,AFNE01.JPG,AFNE01.JPG,AFNE01.JPG,AFNE01.JPG,5,6,56,8,,,,,,,,,,,,,,,,,,,,,,,AMSA13.jpg,AMSA02.jpg,AMNE12.jpg,AMNE13.jpg,AMSA02.jpg,MS,2,num_6,16,num_6,0.566818130348,,,2017_Apr_18_1326,59.996670912,MAFE4ImagesEEG,001,100232,
AFNE01.JPG,AFNE01.JPG,AFNE01.JPG,AFNE01.JPG,AFNE01.JPG,AFNE01.JPG,5,7,57,2,,,,,,,,,,,,,,,,,,,,,,,AMNE03.jpg,AMNE06.jpg,AMSA01.jpg,AMSA11.jpg,AMSA01.jpg,MS,2,num_2,16,num_2,1.61675880966,,,2017_Apr_18_1326,59.996670912,MAFE4ImagesEEG,001,100232,
AFNE01.JPG,AFNE01.JPG,AFNE01.JPG,AFNE01.JPG,AFNE01.JPG,AFNE01.JPG,5,8,58,0,,,,,,,,,,,,,,,,,,,,,,,AMSA10.jpg,AMNE07.jpg,AMNE05.jpg,AMSA19.jpg,AMNE05.jpg,MN,1,num_2,32,num_6,0.93346877076,,,2017_Apr_18_1326,59.996670912,MAFE4ImagesEEG,001,100232,
AFNE01.JPG,AFNE01.JPG,AFNE01.JPG,AFNE01.JPG,AFNE01.JPG,AFNE01.JPG,5,9,59,9,,,,,,,,,,,,,,,,,,,,,,,AMSA15.jpg,AMNE01.jpg,AMSA02.jpg,AMNE18.jpg,AMSA02.jpg,MS,2,num_2,16,num_2,0.70011569059,,,2017_Apr_18_1326,59.996670912,MAFE4ImagesEEG,001,100232,
,,,,,,,,,,,,,,,,,,,,,,,,,,,,,,,,,,,,,,,,,,,space,16.9155170041,2017_Apr_18_1326,59.996670912,MAFE4ImagesEEG,001,100232,
AFNE01.JPG,AFNE01.JPG,AFNE01.JPG,AFNE01.JPG,AFNE01.JPG,AFNE01.JPG,,,,,0,0,0,9,,,,,,,,,,,,,,,,,,,AFSA19.jpg,AFSA11.jpg,AFNE04.jpg,AFNE15.jpg,AFSA11.jpg,FS,4,num_6,16,num_6,0.716813046631,,,2017_Apr_18_1326,59.996670912,MAFE4ImagesEEG,001,100232,
AFNE01.JPG,AFNE01.JPG,AFNE01.JPG,AFNE01.JPG,AFNE01.JPG,AFNE01.JPG,,,,,0,1,1,3,,,,,,,,,,,,,,,,,,,AFNE03.jpg,AFSA08.jpg,AFSA09.jpg,AFNE15.jpg,AFNE15.jpg,FN,3,num_4,16,num_4,0.916833638097,,,2017_Apr_18_1326,59.996670912,MAFE4ImagesEEG,001,100232,
AFNE01.JPG,AFNE01.JPG,AFNE01.JPG,AFNE01.JPG,AFNE01.JPG,AFNE01.JPG,,,,,0,2,2,5,,,,,,,,,,,,,,,,,,,AFSA07.jpg,AFSA09.jpg,AFNE15.jpg,AFNE03.jpg,AFSA09.jpg,FS,4,num_6,16,num_6,1.08345566856,,,2017_Apr_18_1326,59.996670912,MAFE4ImagesEEG,001,100232,
AFNE01.JPG,AFNE01.JPG,AFNE01.JPG,AFNE01.JPG,AFNE01.JPG,AFNE01.JPG,,,,,0,3,3,4,,,,,,,,,,,,,,,,,,,AFSA02.jpg,AFNE02.jpg,AFSA14.jpg,AFNE09.jpg,AFNE02.jpg,FN,3,num_6,32,num_8,0.83346136169,,,2017_Apr_18_1326,59.996670912,MAFE4ImagesEEG,001,100232,
AFNE01.JPG,AFNE01.JPG,AFNE01.JPG,AFNE01.JPG,AFNE01.JPG,AFNE01.JPG,,,,,0,4,4,6,,,,,,,,,,,,,,,,,,,AFNE18.jpg,AFNE15.jpg,AFSA06.jpg,AFSA07.jpg,AFSA07.jpg,FS,4,num_4,32,num_8,1.35010018286,,,2017_Apr_18_1326,59.996670912,MAFE4ImagesEEG,001,100232,
AFNE01.JPG,AFNE01.JPG,AFNE01.JPG,AFNE01.JPG,AFNE01.JPG,AFNE01.JPG,,,,,0,5,5,2,,,,,,,,,,,,,,,,,,,AFNE11.jpg,AFSA20.jpg,AFSA17.jpg,AFNE14.jpg,AFSA17.jpg,FS,4,num_2,32,num_8,1.26674586785,,,2017_Apr_18_1326,59.996670912,MAFE4ImagesEEG,001,100232,
AFNE01.JPG,AFNE01.JPG,AFNE01.JPG,AFNE01.JPG,AFNE01.JPG,AFNE01.JPG,,,,,0,6,6,1,,,,,,,,,,,,,,,,,,,AFSA02.jpg,AFSA20.jpg,AFNE16.jpg,AFNE09.jpg,AFNE16.jpg,FN,3,num_2,16,num_2,0.849988405287,,,2017_Apr_18_1326,59.996670912,MAFE4ImagesEEG,001,100232,
AFNE01.JPG,AFNE01.JPG,AFNE01.JPG,AFNE01.JPG,AFNE01.JPG,AFNE01.JPG,,,,,0,7,7,8,,,,,,,,,,,,,,,,,,,AFNE06.jpg,AFSA06.jpg,AFSA14.jpg,AFNE10.jpg,AFSA14.jpg,FS,4,num_2,32,num_8,0.800243376812,,,2017_Apr_18_1326,59.996670912,MAFE4ImagesEEG,001,100232,
AFNE01.JPG,AFNE01.JPG,AFNE01.JPG,AFNE01.JPG,AFNE01.JPG,AFNE01.JPG,,,,,0,8,8,7,,,,,,,,,,,,,,,,,,,AFSA12.jpg,AFNE11.jpg,AFNE19.jpg,AFSA15.jpg,AFSA12.jpg,FS,4,num_8,32,num_4,0.800084931718,,,2017_Apr_18_1326,59.996670912,MAFE4ImagesEEG,001,100232,
AFNE01.JPG,AFNE01.JPG,AFNE01.JPG,AFNE01.JPG,AFNE01.JPG,AFNE01.JPG,,,,,0,9,9,0,,,,,,,,,,,,,,,,,,,AFNE18.jpg,AFSA06.jpg,AFSA16.jpg,AFNE13.jpg,AFSA16.jpg,FS,4,num_2,16,num_2,0.833491511163,,,2017_Apr_18_1326,59.996670912,MAFE4ImagesEEG,001,100232,
AFNE01.JPG,AFNE01.JPG,AFNE01.JPG,AFNE01.JPG,AFNE01.JPG,AFNE01.JPG,,,,,1,0,10,0,,,,,,,,,,,,,,,,,,,AFSA09.jpg,AFSA03.jpg,AFNE16.jpg,AFNE11.jpg,AFNE11.jpg,FN,3,num_4,32,num_6,0.683554007162,,,2017_Apr_18_1326,59.996670912,MAFE4ImagesEEG,001,100232,
AFNE01.JPG,AFNE01.JPG,AFNE01.JPG,AFNE01.JPG,AFNE01.JPG,AFNE01.JPG,,,,,1,1,11,3,,,,,,,,,,,,,,,,,,,AFNE03.jpg,AFSA10.jpg,AFNE07.jpg,AFSA06.jpg,AFSA10.jpg,FS,4,num_6,16,num_6,0.933451450852,,,2017_Apr_18_1326,59.996670912,MAFE4ImagesEEG,001,100232,
AFNE01.JPG,AFNE01.JPG,AFNE01.JPG,AFNE01.JPG,AFNE01.JPG,AFNE01.JPG,,,,,1,2,12,7,,,,,,,,,,,,,,,,,,,AFSA15.jpg,AFNE02.jpg,AFNE17.jpg,AFSA09.jpg,AFNE17.jpg,FN,3,num_2,32,num_4,0.866749267676,,,2017_Apr_18_1326,59.996670912,MAFE4ImagesEEG,001,100232,
AFNE01.JPG,AFNE01.JPG,AFNE01.JPG,AFNE01.JPG,AFNE01.JPG,AFNE01.JPG,,,,,1,3,13,2,,,,,,,,,,,,,,,,,,,AFSA17.jpg,AFNE09.jpg,AFSA04.jpg,AFNE02.jpg,AFNE09.jpg,FN,3,num_6,16,num_6,0.700174385842,,,2017_Apr_18_1326,59.996670912,MAFE4ImagesEEG,001,100232,
AFNE01.JPG,AFNE01.JPG,AFNE01.JPG,AFNE01.JPG,AFNE01.JPG,AFNE01.JPG,,,,,1,4,14,8,,,,,,,,,,,,,,,,,,,AFSA19.jpg,AFNE14.jpg,AFNE09.jpg,AFSA15.jpg,AFSA19.jpg,FS,4,num_8,16,num_8,1.11677628994,,,2017_Apr_18_1326,59.996670912,MAFE4ImagesEEG,001,100232,
AFNE01.JPG,AFNE01.JPG,AFNE01.JPG,AFNE01.JPG,AFNE01.JPG,AFNE01.JPG,,,,,1,5,15,9,,,,,,,,,,,,,,,,,,,AFSA15.jpg,AFNE10.jpg,AFSA14.jpg,AFNE04.jpg,AFSA14.jpg,FS,4,num_2,32,num_8,1.71673735222,,,2017_Apr_18_1326,59.996670912,MAFE4ImagesEEG,001,100232,
AFNE01.JPG,AFNE01.JPG,AFNE01.JPG,AFNE01.JPG,AFNE01.JPG,AFNE01.JPG,,,,,1,6,16,6,,,,,,,,,,,,,,,,,,,AFSA08.jpg,AFNE20.jpg,AFSA17.jpg,AFNE19.jpg,AFSA08.jpg,FS,4,num_8,16,num_8,1.20007864523,,,2017_Apr_18_1326,59.996670912,MAFE4ImagesEEG,001,100232,
AFNE01.JPG,AFNE01.JPG,AFNE01.JPG,AFNE01.JPG,AFNE01.JPG,AFNE01.JPG,,,,,1,7,17,5,,,,,,,,,,,,,,,,,,,AFNE14.jpg,AFSA15.jpg,AFSA16.jpg,AFNE04.jpg,AFSA16.jpg,FS,4,num_2,32,num_4,1.0001558792,,,2017_Apr_18_1326,59.996670912,MAFE4ImagesEEG,001,100232,
AFNE01.JPG,AFNE01.JPG,AFNE01.JPG,AFNE01.JPG,AFNE01.JPG,AFNE01.JPG,,,,,1,8,18,1,,,,,,,,,,,,,,,,,,,AFNE10.jpg,AFNE11.jpg,AFSA05.jpg,AFSA13.jpg,AFSA05.jpg,FS,4,num_2,32,num_6,0.849991612675,,,2017_Apr_18_1326,59.996670912,MAFE4ImagesEEG,001,100232,
AFNE01.JPG,AFNE01.JPG,AFNE01.JPG,AFNE01.JPG,AFNE01.JPG,AFNE01.JPG,,,,,1,9,19,4,,,,,,,,,,,,,,,,,,,AFNE16.jpg,AFSA09.jpg,AFSA14.jpg,AFNE17.jpg,AFNE16.jpg,FN,3,num_8,32,num_4,1.25010945222,,,2017_Apr_18_1326,59.996670912,MAFE4ImagesEEG,001,100232,
AFNE01.JPG,AFNE01.JPG,AFNE01.JPG,AFNE01.JPG,AFNE01.JPG,AFNE01.JPG,,,,,2,0,20,0,,,,,,,,,,,,,,,,,,,AFNE02.jpg,AFSA12.jpg,AFNE12.jpg,AFSA11.jpg,AFSA11.jpg,FS,4,num_4,32,num_8,1.6501054109,,,2017_Apr_18_1326,59.996670912,MAFE4ImagesEEG,001,100232,
AFNE01.JPG,AFNE01.JPG,AFNE01.JPG,AFNE01.JPG,AFNE01.JPG,AFNE01.JPG,,,,,2,1,21,1,,,,,,,,,,,,,,,,,,,AFNE09.jpg,AFSA09.jpg,AFNE08.jpg,AFSA04.jpg,AFSA09.jpg,FS,4,num_6,32,num_8,1.48340896895,,,2017_Apr_18_1326,59.996670912,MAFE4ImagesEEG,001,100232,
AFNE01.JPG,AFNE01.JPG,AFNE01.JPG,AFNE01.JPG,AFNE01.JPG,AFNE01.JPG,,,,,2,2,22,8,,,,,,,,,,,,,,,,,,,AFNE08.jpg,AFSA15.jpg,AFSA18.jpg,AFNE18.jpg,AFSA18.jpg,FS,4,num_2,16,num_2,1.53337434516,,,2017_Apr_18_1326,59.996670912,MAFE4ImagesEEG,001,100232,
AFNE01.JPG,AFNE01.JPG,AFNE01.JPG,AFNE01.JPG,AFNE01.JPG,AFNE01.JPG,,,,,2,3,23,9,,,,,,,,,,,,,,,,,,,AFNE01.jpg,AFSA01.jpg,AFNE06.jpg,AFSA04.jpg,AFNE06.jpg,FN,3,num_2,32,num_8,1.16677983411,,,2017_Apr_18_1326,59.996670912,MAFE4ImagesEEG,001,100232,
AFNE01.JPG,AFNE01.JPG,AFNE01.JPG,AFNE01.JPG,AFNE01.JPG,AFNE01.JPG,,,,,2,4,24,5,,,,,,,,,,,,,,,,,,,AFNE12.jpg,AFNE19.jpg,AFSA16.jpg,AFSA13.jpg,AFNE12.jpg,FN,3,num_8,32,num_4,0.833466814263,,,2017_Apr_18_1326,59.996670912,MAFE4ImagesEEG,001,100232,
AFNE01.JPG,AFNE01.JPG,AFNE01.JPG,AFNE01.JPG,AFNE01.JPG,AFNE01.JPG,,,,,2,5,25,3,,,,,,,,,,,,,,,,,,,AFSA17.jpg,AFSA19.jpg,AFNE13.jpg,AFNE20.jpg,AFSA19.jpg,FS,4,num_6,32,num_8,1.08315417383,,,2017_Apr_18_1326,59.996670912,MAFE4ImagesEEG,001,100232,
AFNE01.JPG,AFNE01.JPG,AFNE01.JPG,AFNE01.JPG,AFNE01.JPG,AFNE01.JPG,,,,,2,6,26,2,,,,,,,,,,,,,,,,,,,AFNE19.jpg,AFSA15.jpg,AFSA03.jpg,AFNE09.jpg,AFNE09.jpg,FN,3,num_4,16,num_4,1.30010722307,,,2017_Apr_18_1326,59.996670912,MAFE4ImagesEEG,001,100232,
AFNE01.JPG,AFNE01.JPG,AFNE01.JPG,AFNE01.JPG,AFNE01.JPG,AFNE01.JPG,,,,,2,7,27,4,,,,,,,,,,,,,,,,,,,AFSA05.jpg,AFNE13.jpg,AFSA01.jpg,AFNE04.jpg,AFSA05.jpg,FS,4,num_8,16,num_8,0.91685737278,,,2017_Apr_18_1326,59.996670912,MAFE4ImagesEEG,001,100232,
AFNE01.JPG,AFNE01.JPG,AFNE01.JPG,AFNE01.JPG,AFNE01.JPG,AFNE01.JPG,,,,,2,8,28,6,,,,,,,,,,,,,,,,,,,AFNE10.jpg,AFSA06.jpg,AFNE20.jpg,AFSA18.jpg,AFNE10.jpg,FN,3,num_8,16,num_8,0.850083664802,,,2017_Apr_18_1326,59.996670912,MAFE4ImagesEEG,001,100232,
AFNE01.JPG,AFNE01.JPG,AFNE01.JPG,AFNE01.JPG,AFNE01.JPG,AFNE01.JPG,,,,,2,9,29,7,,,,,,,,,,,,,,,,,,,AFSA05.jpg,AFNE19.jpg,AFSA13.jpg,AFNE04.jpg,AFNE04.jpg,FN,3,num_4,16,num_4,1.45008770611,,,2017_Apr_18_1326,59.996670912,MAFE4ImagesEEG,001,100232,
AFNE01.JPG,AFNE01.JPG,AFNE01.JPG,AFNE01.JPG,AFNE01.JPG,AFNE01.JPG,,,,,3,0,30,1,,,,,,,,,,,,,,,,,,,AFSA04.jpg,AFNE14.jpg,AFNE20.jpg,AFSA18.jpg,AFSA18.jpg,FS,4,num_4,32,num_2,3.93324585709,,,2017_Apr_18_1326,59.996670912,MAFE4ImagesEEG,001,100232,
AFNE01.JPG,AFNE01.JPG,AFNE01.JPG,AFNE01.JPG,AFNE01.JPG,AFNE01.JPG,,,,,3,1,31,5,,,,,,,,,,,,,,,,,,,AFSA14.jpg,AFNE06.jpg,AFSA09.jpg,AFNE20.jpg,AFSA09.jpg,FS,4,num_2,16,num_2,1.55008196487,,,2017_Apr_18_1326,59.996670912,MAFE4ImagesEEG,001,100232,
AFNE01.JPG,AFNE01.JPG,AFNE01.JPG,AFNE01.JPG,AFNE01.JPG,AFNE01.JPG,,,,,3,2,32,0,,,,,,,,,,,,,,,,,,,AFNE17.jpg,AFNE13.jpg,AFSA01.jpg,AFSA08.jpg,AFSA08.jpg,FS,4,num_4,32,num_2,0.55014835787,,,2017_Apr_18_1326,59.996670912,MAFE4ImagesEEG,001,100232,
AFNE01.JPG,AFNE01.JPG,AFNE01.JPG,AFNE01.JPG,AFNE01.JPG,AFNE01.JPG,,,,,3,3,33,4,,,,,,,,,,,,,,,,,,,AFNE20.jpg,AFSA03.jpg,AFNE01.jpg,AFSA13.jpg,AFNE20.jpg,FN,3,num_8,16,num_8,1.19999332863,,,2017_Apr_18_1326,59.996670912,MAFE4ImagesEEG,001,100232,
AFNE01.JPG,AFNE01.JPG,AFNE01.JPG,AFNE01.JPG,AFNE01.JPG,AFNE01.JPG,,,,,3,4,34,7,,,,,,,,,,,,,,,,,,,AFNE02.jpg,AFSA13.jpg,AFSA08.jpg,AFNE07.jpg,AFNE07.jpg,FN,3,num_4,32,num_8,1.86655489978,,,2017_Apr_18_1326,59.996670912,MAFE4ImagesEEG,001,100232,
AFNE01.JPG,AFNE01.JPG,AFNE01.JPG,AFNE01.JPG,AFNE01.JPG,AFNE01.JPG,,,,,3,5,35,9,,,,,,,,,,,,,,,,,,,AFSA03.jpg,AFNE17.jpg,AFSA19.jpg,AFNE05.jpg,AFSA03.jpg,FS,4,num_8,32,num_6,1.91636792493,,,2017_Apr_18_1326,59.996670912,MAFE4ImagesEEG,001,100232,
AFNE01.JPG,AFNE01.JPG,AFNE01.JPG,AFNE01.JPG,AFNE01.JPG,AFNE01.JPG,,,,,3,6,36,2,,,,,,,,,,,,,,,,,,,AFSA20.jpg,AFNE19.jpg,AFSA04.jpg,AFNE14.jpg,AFNE14.jpg,FN,3,num_4,32,num_8,1.51676423015,,,2017_Apr_18_1326,59.996670912,MAFE4ImagesEEG,001,100232,
AFNE01.JPG,AFNE01.JPG,AFNE01.JPG,AFNE01.JPG,AFNE01.JPG,AFNE01.JPG,,,,,3,7,37,3,,,,,,,,,,,,,,,,,,,AFNE10.jpg,AFNE01.jpg,AFSA02.jpg,AFSA18.jpg,AFNE01.jpg,FN,3,num_6,32,num_8,1.11678687434,,,2017_Apr_18_1326,59.996670912,MAFE4ImagesEEG,001,100232,
AFNE01.JPG,AFNE01.JPG,AFNE01.JPG,AFNE01.JPG,AFNE01.JPG,AFNE01.JPG,,,,,3,8,38,6,,,,,,,,,,,,,,,,,,,AFSA09.jpg,AFNE20.jpg,AFSA20.jpg,AFNE09.jpg,AFNE20.jpg,FN,3,num_6,32,num_8,0.783496947683,,,2017_Apr_18_1326,59.996670912,MAFE4ImagesEEG,001,100232,
AFNE01.JPG,AFNE01.JPG,AFNE01.JPG,AFNE01.JPG,AFNE01.JPG,AFNE01.JPG,,,,,3,9,39,8,,,,,,,,,,,,,,,,,,,AFNE08.jpg,AFSA10.jpg,AFSA11.jpg,AFNE13.jpg,AFNE13.jpg,FN,3,num_4,32,num_8,1.46673470612,,,2017_Apr_18_1326,59.996670912,MAFE4ImagesEEG,001,100232,
AFNE01.JPG,AFNE01.JPG,AFNE01.JPG,AFNE01.JPG,AFNE01.JPG,AFNE01.JPG,,,,,4,0,40,6,,,,,,,,,,,,,,,,,,,AFNE16.jpg,AFSA03.jpg,AFSA11.jpg,AFNE10.jpg,AFNE16.jpg,FN,3,num_8,16,num_8,0.866810528838,,,2017_Apr_18_1326,59.996670912,MAFE4ImagesEEG,001,100232,
AFNE01.JPG,AFNE01.JPG,AFNE01.JPG,AFNE01.JPG,AFNE01.JPG,AFNE01.JPG,,,,,4,1,41,9,,,,,,,,,,,,,,,,,,,AFSA07.jpg,AFNE02.jpg,AFSA11.jpg,AFNE07.jpg,AFNE02.jpg,FN,3,num_6,16,num_6,0.883460415498,,,2017_Apr_18_1326,59.996670912,MAFE4ImagesEEG,001,100232,
AFNE01.JPG,AFNE01.JPG,AFNE01.JPG,AFNE01.JPG,AFNE01.JPG,AFNE01.JPG,,,,,4,2,42,7,,,,,,,,,,,,,,,,,,,AFNE08.jpg,AFSA11.jpg,AFSA05.jpg,AFNE14.jpg,AFNE14.jpg,FN,3,num_4,32,num_8,0.966764053752,,,2017_Apr_18_1326,59.996670912,MAFE4ImagesEEG,001,100232,
AFNE01.JPG,AFNE01.JPG,AFNE01.JPG,AFNE01.JPG,AFNE01.JPG,AFNE01.JPG,,,,,4,3,43,2,,,,,,,,,,,,,,,,,,,AFNE09.jpg,AFSA16.jpg,AFSA03.jpg,AFNE06.jpg,AFSA03.jpg,FS,4,num_2,16,num_2,1.68341673084,,,2017_Apr_18_1326,59.996670912,MAFE4ImagesEEG,001,100232,
AFNE01.JPG,AFNE01.JPG,AFNE01.JPG,AFNE01.JPG,AFNE01.JPG,AFNE01.JPG,,,,,4,4,44,5,,,,,,,,,,,,,,,,,,,AFSA18.jpg,AFSA04.jpg,AFNE07.jpg,AFNE18.jpg,AFNE07.jpg,FN,3,num_2,32,num_8,1.11676057373,,,2017_Apr_18_1326,59.996670912,MAFE4ImagesEEG,001,100232,
AFNE01.JPG,AFNE01.JPG,AFNE01.JPG,AFNE01.JPG,AFNE01.JPG,AFNE01.JPG,,,,,4,5,45,8,,,,,,,,,,,,,,,,,,,AFSA12.jpg,AFNE20.jpg,AFNE09.jpg,AFSA01.jpg,AFNE09.jpg,FN,3,num_2,32,num_4,0.983426449238,,,2017_Apr_18_1326,59.996670912,MAFE4ImagesEEG,001,100232,
AFNE01.JPG,AFNE01.JPG,AFNE01.JPG,AFNE01.JPG,AFNE01.JPG,AFNE01.JPG,,,,,4,6,46,3,,,,,,,,,,,,,,,,,,,AFNE01.jpg,AFSA03.jpg,AFSA20.jpg,AFNE04.jpg,AFNE01.jpg,FN,3,num_8,16,num_8,0.733498214599,,,2017_Apr_18_1326,59.996670912,MAFE4ImagesEEG,001,100232,
AFNE01.JPG,AFNE01.JPG,AFNE01.JPG,AFNE01.JPG,AFNE01.JPG,AFNE01.JPG,,,,,4,7,47,0,,,,,,,,,,,,,,,,,,,AFNE01.jpg,AFNE20.jpg,AFSA12.jpg,AFSA07.jpg,AFSA12.jpg,FS,4,num_2,16,num_2,1.08345117822,,,2017_Apr_18_1326,59.996670912,MAFE4ImagesEEG,001,100232,
AFNE01.JPG,AFNE01.JPG,AFNE01.JPG,AFNE01.JPG,AFNE01.JPG,AFNE01.JPG,,,,,4,8,48,4,,,,,,,,,,,,,,,,,,,AFNE09.jpg,AFSA13.jpg,AFNE14.jpg,AFSA16.jpg,AFSA16.jpg,FS,4,num_4,16,num_4,0.950352796965,,,2017_Apr_18_1326,59.996670912,MAFE4ImagesEEG,001,100232,
AFNE01.JPG,AFNE01.JPG,AFNE01.JPG,AFNE01.JPG,AFNE01.JPG,AFNE01.JPG,,,,,4,9,49,1,,,,,,,,,,,,,,,,,,,AFSA16.jpg,AFNE19.jpg,AFNE02.jpg,AFSA03.jpg,AFNE02.jpg,FN,3,num_2,32,num_8,0.783520040903,,,2017_Apr_18_1326,59.996670912,MAFE4ImagesEEG,001,100232,
AFNE01.JPG,AFNE01.JPG,AFNE01.JPG,AFNE01.JPG,AFNE01.JPG,AFNE01.JPG,,,,,5,0,50,3,,,,,,,,,,,,,,,,,,,AFNE18.jpg,AFNE10.jpg,AFSA17.jpg,AFSA04.jpg,AFNE18.jpg,FN,3,num_8,16,num_8,1.21675707767,,,2017_Apr_18_1326,59.996670912,MAFE4ImagesEEG,001,100232,
AFNE01.JPG,AFNE01.JPG,AFNE01.JPG,AFNE01.JPG,AFNE01.JPG,AFNE01.JPG,,,,,5,1,51,8,,,,,,,,,,,,,,,,,,,AFNE10.jpg,AFNE17.jpg,AFSA04.jpg,AFSA07.jpg,AFNE10.jpg,FN,3,num_8,16,num_8,1.00013182376,,,2017_Apr_18_1326,59.996670912,MAFE4ImagesEEG,001,100232,
AFNE01.JPG,AFNE01.JPG,AFNE01.JPG,AFNE01.JPG,AFNE01.JPG,AFNE01.JPG,,,,,5,2,52,7,,,,,,,,,,,,,,,,,,,AFSA07.jpg,AFNE18.jpg,AFNE10.jpg,AFSA01.jpg,AFNE18.jpg,FN,3,num_6,32,num_2,0.966752507127,,,2017_Apr_18_1326,59.996670912,MAFE4ImagesEEG,001,100232,
AFNE01.JPG,AFNE01.JPG,AFNE01.JPG,AFNE01.JPG,AFNE01.JPG,AFNE01.JPG,,,,,5,3,53,1,,,,,,,,,,,,,,,,,,,AFNE11.jpg,AFSA20.jpg,AFSA05.jpg,AFNE20.jpg,AFSA20.jpg,FS,4,num_6,32,num_2,1.45006108476,,,2017_Apr_18_1326,59.996670912,MAFE4ImagesEEG,001,100232,
AFNE01.JPG,AFNE01.JPG,AFNE01.JPG,AFNE01.JPG,AFNE01.JPG,AFNE01.JPG,,,,,5,4,54,0,,,,,,,,,,,,,,,,,,,AFNE12.jpg,AFNE09.jpg,AFSA20.jpg,AFSA14.jpg,AFNE09.jpg,FN,3,num_6,16,num_6,1.06675061477,,,2017_Apr_18_1326,59.996670912,MAFE4ImagesEEG,001,100232,
AFNE01.JPG,AFNE01.JPG,AFNE01.JPG,AFNE01.JPG,AFNE01.JPG,AFNE01.JPG,,,,,5,5,55,6,,,,,,,,,,,,,,,,,,,AFNE16.jpg,AFSA11.jpg,AFSA01.jpg,AFNE19.jpg,AFSA11.jpg,FS,4,num_6,16,num_6,0.766793818329,,,2017_Apr_18_1326,59.996670912,MAFE4ImagesEEG,001,100232,
AFNE01.JPG,AFNE01.JPG,AFNE01.JPG,AFNE01.JPG,AFNE01.JPG,AFNE01.JPG,,,,,5,6,56,9,,,,,,,,,,,,,,,,,,,AFSA08.jpg,AFNE05.jpg,AFNE03.jpg,AFSA17.jpg,AFSA08.jpg,FS,4,num_8,32,num_2,1.55002423184,,,2017_Apr_18_1326,59.996670912,MAFE4ImagesEEG,001,100232,
AFNE01.JPG,AFNE01.JPG,AFNE01.JPG,AFNE01.JPG,AFNE01.JPG,AFNE01.JPG,,,,,5,7,57,5,,,,,,,,,,,,,,,,,,,AFSA11.jpg,AFNE01.jpg,AFSA16.jpg,AFNE06.jpg,AFSA11.jpg,FS,4,num_8,32,num_4,1.51673632585,,,2017_Apr_18_1326,59.996670912,MAFE4ImagesEEG,001,100232,
AFNE01.JPG,AFNE01.JPG,AFNE01.JPG,AFNE01.JPG,AFNE01.JPG,AFNE01.JPG,,,,,5,8,58,2,,,,,,,,,,,,,,,,,,,AFSA18.jpg,AFSA11.jpg,AFNE18.jpg,AFNE02.jpg,AFNE02.jpg,FN,3,num_4,16,num_4,1.06675638809,,,2017_Apr_18_1326,59.996670912,MAFE4ImagesEEG,001,100232,
AFNE01.JPG,AFNE01.JPG,AFNE01.JPG,AFNE01.JPG,AFNE01.JPG,AFNE01.JPG,,,,,5,9,59,4,,,,,,,,,,,,,,,,,,,AFSA06.jpg,AFNE18.jpg,AFSA18.jpg,AFNE04.jpg,AFSA18.jpg,FS,4,num_2,16,num_2,1.16676026901,,,2017_Apr_18_1326,59.996670912,MAFE4ImagesEEG,001,100232,
,,,,,,,,,,,,,,,,,,,,,,,,,,,,,,,,,,,,,,,,,,,space,16.0991917696,2017_Apr_18_1326,59.996670912,MAFE4ImagesEEG,001,100232,
AFNE01.JPG,AFNE01.JPG,AFNE01.JPG,AFNE01.JPG,AFNE01.JPG,AFNE01.JPG,,,,,,,,,0,0,0,8,,,,,,,,,,,,,,,AMNE18.jpg,AMNE16.jpg,AMSA13.jpg,AMSA03.jpg,AMNE18.jpg,MN,1,num_8,16,num_8,1.08346208335,,,2017_Apr_18_1326,59.996670912,MAFE4ImagesEEG,001,100232,
AFNE01.JPG,AFNE01.JPG,AFNE01.JPG,AFNE01.JPG,AFNE01.JPG,AFNE01.JPG,,,,,,,,,0,1,1,3,,,,,,,,,,,,,,,AMSA12.jpg,AMNE06.jpg,AMNE16.jpg,AMSA07.jpg,AMNE06.jpg,MN,1,num_6,16,num_6,0.866865695963,,,2017_Apr_18_1326,59.996670912,MAFE4ImagesEEG,001,100232,
AFNE01.JPG,AFNE01.JPG,AFNE01.JPG,AFNE01.JPG,AFNE01.JPG,AFNE01.JPG,,,,,,,,,0,2,2,4,,,,,,,,,,,,,,,AMNE08.jpg,AMSA12.jpg,AMSA19.jpg,AMNE13.jpg,AMSA19.jpg,MS,2,num_2,32,num_6,1.03345276587,,,2017_Apr_18_1326,59.996670912,MAFE4ImagesEEG,001,100232,
AFNE01.JPG,AFNE01.JPG,AFNE01.JPG,AFNE01.JPG,AFNE01.JPG,AFNE01.JPG,,,,,,,,,0,3,3,2,,,,,,,,,,,,,,,AMNE05.jpg,AMSA05.jpg,AMSA14.jpg,AMNE12.jpg,AMNE12.jpg,MN,1,num_4,16,num_4,1.05011836876,,,2017_Apr_18_1326,59.996670912,MAFE4ImagesEEG,001,100232,
AFNE01.JPG,AFNE01.JPG,AFNE01.JPG,AFNE01.JPG,AFNE01.JPG,AFNE01.JPG,,,,,,,,,0,4,4,0,,,,,,,,,,,,,,,AMNE02.jpg,AMSA14.jpg,AMSA11.jpg,AMNE15.jpg,AMNE15.jpg,MN,1,num_4,32,num_8,1.14997278529,,,2017_Apr_18_1326,59.996670912,MAFE4ImagesEEG,001,100232,
AFNE01.JPG,AFNE01.JPG,AFNE01.JPG,AFNE01.JPG,AFNE01.JPG,AFNE01.JPG,,,,,,,,,0,5,5,9,,,,,,,,,,,,,,,AMNE13.jpg,AMSA20.jpg,AMSA09.jpg,AMNE17.jpg,AMNE13.jpg,MN,1,num_8,16,num_8,0.966809919424,,,2017_Apr_18_1326,59.996670912,MAFE4ImagesEEG,001,100232,
AFNE01.JPG,AFNE01.JPG,AFNE01.JPG,AFNE01.JPG,AFNE01.JPG,AFNE01.JPG,,,,,,,,,0,6,6,5,,,,,,,,,,,,,,,AMNE14.jpg,AMNE15.jpg,AMSA08.jpg,AMSA19.jpg,AMNE15.jpg,MN,1,num_6,16,num_6,0.816834568235,,,2017_Apr_18_1326,59.996670912,MAFE4ImagesEEG,001,100232,
AFNE01.JPG,AFNE01.JPG,AFNE01.JPG,AFNE01.JPG,AFNE01.JPG,AFNE01.JPG,,,,,,,,,0,7,7,6,,,,,,,,,,,,,,,AMSA13.jpg,AMNE16.jpg,AMSA19.jpg,AMNE12.jpg,AMNE12.jpg,MN,1,num_4,32,num_8,0.933478713676,,,2017_Apr_18_1326,59.996670912,MAFE4ImagesEEG,001,100232,
AFNE01.JPG,AFNE01.JPG,AFNE01.JPG,AFNE01.JPG,AFNE01.JPG,AFNE01.JPG,,,,,,,,,0,8,8,1,,,,,,,,,,,,,,,AMNE19.jpg,AMNE15.jpg,AMSA09.jpg,AMSA03.jpg,AMNE19.jpg,MN,1,num_8,16,num_8,1.36670131718,,,2017_Apr_18_1326,59.996670912,MAFE4ImagesEEG,001,100232,
AFNE01.JPG,AFNE01.JPG,AFNE01.JPG,AFNE01.JPG,AFNE01.JPG,AFNE01.JPG,,,,,,,,,0,9,9,7,,,,,,,,,,,,,,,AMSA12.jpg,AMNE18.jpg,AMSA13.jpg,AMNE11.jpg,AMNE11.jpg,MN,1,num_4,32,num_2,1.71676333208,,,2017_Apr_18_1326,59.996670912,MAFE4ImagesEEG,001,100232,
AFNE01.JPG,AFNE01.JPG,AFNE01.JPG,AFNE01.JPG,AFNE01.JPG,AFNE01.JPG,,,,,,,,,1,0,10,9,,,,,,,,,,,,,,,AMSA05.jpg,AMNE01.jpg,AMSA12.jpg,AMNE10.jpg,AMSA05.jpg,MS,2,num_8,32,num_2,0.76682204337,,,2017_Apr_18_1326,59.996670912,MAFE4ImagesEEG,001,100232,
AFNE01.JPG,AFNE01.JPG,AFNE01.JPG,AFNE01.JPG,AFNE01.JPG,AFNE01.JPG,,,,,,,,,1,1,11,2,,,,,,,,,,,,,,,AMNE18.jpg,AMSA01.jpg,AMSA11.jpg,AMNE09.jpg,AMNE09.jpg,MN,1,num_4,16,num_4,0.933486411406,,,2017_Apr_18_1326,59.996670912,MAFE4ImagesEEG,001,100232,
AFNE01.JPG,AFNE01.JPG,AFNE01.JPG,AFNE01.JPG,AFNE01.JPG,AFNE01.JPG,,,,,,,,,1,2,12,8,,,,,,,,,,,,,,,AMSA15.jpg,AMNE19.jpg,AMNE10.jpg,AMSA17.jpg,AMNE19.jpg,MN,1,num_6,32,num_4,1.25013254542,,,2017_Apr_18_1326,59.996670912,MAFE4ImagesEEG,001,100232,
AFNE01.JPG,AFNE01.JPG,AFNE01.JPG,AFNE01.JPG,AFNE01.JPG,AFNE01.JPG,,,,,,,,,1,3,13,1,,,,,,,,,,,,,,,AMNE04.jpg,AMNE10.jpg,AMSA20.jpg,AMSA09.jpg,AMSA20.jpg,MS,2,num_2,32,num_4,1.13345696755,,,2017_Apr_18_1326,59.996670912,MAFE4ImagesEEG,001,100232,
AFNE01.JPG,AFNE01.JPG,AFNE01.JPG,AFNE01.JPG,AFNE01.JPG,AFNE01.JPG,,,,,,,,,1,4,14,4,,,,,,,,,,,,,,,AMNE07.jpg,AMSA08.jpg,AMSA19.jpg,AMNE19.jpg,AMNE19.jpg,MN,1,num_4,16,num_4,1.04999520494,,,2017_Apr_18_1326,59.996670912,MAFE4ImagesEEG,001,100232,
AFNE01.JPG,AFNE01.JPG,AFNE01.JPG,AFNE01.JPG,AFNE01.JPG,AFNE01.JPG,,,,,,,,,1,5,15,6,,,,,,,,,,,,,,,AMSA14.jpg,AMNE08.jpg,AMSA08.jpg,AMNE02.jpg,AMNE08.jpg,MN,1,num_6,16,num_6,0.883481263547,,,2017_Apr_18_1326,59.996670912,MAFE4ImagesEEG,001,100232,
AFNE01.JPG,AFNE01.JPG,AFNE01.JPG,AFNE01.JPG,AFNE01.JPG,AFNE01.JPG,,,,,,,,,1,6,16,3,,,,,,,,,,,,,,,AMNE14.jpg,AMSA19.jpg,AMNE18.jpg,AMSA20.jpg,AMSA19.jpg,MS,2,num_6,32,num_2,1.43361935776,,,2017_Apr_18_1326,59.996670912,MAFE4ImagesEEG,001,100232,
AFNE01.JPG,AFNE01.JPG,AFNE01.JPG,AFNE01.JPG,AFNE01.JPG,AFNE01.JPG,,,,,,,,,1,7,17,7,,,,,,,,,,,,,,,AMSA11.jpg,AMSA10.jpg,AMNE04.jpg,AMNE18.jpg,AMSA11.jpg,MS,2,num_8,32,num_2,0.966771110005,,,2017_Apr_18_1326,59.996670912,MAFE4ImagesEEG,001,100232,
AFNE01.JPG,AFNE01.JPG,AFNE01.JPG,AFNE01.JPG,AFNE01.JPG,AFNE01.JPG,,,,,,,,,1,8,18,0,,,,,,,,,,,,,,,AMSA20.jpg,AMSA05.jpg,AMNE15.jpg,AMNE06.jpg,AMNE06.jpg,MN,1,num_4,32,num_2,0.900131150207,,,2017_Apr_18_1326,59.996670912,MAFE4ImagesEEG,001,100232,
AFNE01.JPG,AFNE01.JPG,AFNE01.JPG,AFNE01.JPG,AFNE01.JPG,AFNE01.JPG,,,,,,,,,1,9,19,5,,,,,,,,,,,,,,,AMSA13.jpg,AMNE14.jpg,AMSA06.jpg,AMNE15.jpg,AMSA13.jpg,MS,2,num_8,32,num_4,1.19996349989,,,2017_Apr_18_1326,59.996670912,MAFE4ImagesEEG,001,100232,
AFNE01.JPG,AFNE01.JPG,AFNE01.JPG,AFNE01.JPG,AFNE01.JPG,AFNE01.JPG,,,,,,,,,2,0,20,0,,,,,,,,,,,,,,,AMSA13.jpg,AMSA05.jpg,AMNE01.jpg,AMNE18.jpg,AMNE18.jpg,MN,1,num_4,16,num_4,1.00019276419,,,2017_Apr_18_1326,59.996670912,MAFE4ImagesEEG,001,100232,
AFNE01.JPG,AFNE01.JPG,AFNE01.JPG,AFNE01.JPG,AFNE01.JPG,AFNE01.JPG,,,,,,,,,2,1,21,9,,,,,,,,,,,,,,,AMSA18.jpg,AMSA20.jpg,AMNE01.jpg,AMNE18.jpg,AMSA18.jpg,MS,2,num_8,32,num_6,1.20011649244,,,2017_Apr_18_1326,59.996670912,MAFE4ImagesEEG,001,100232,
AFNE01.JPG,AFNE01.JPG,AFNE01.JPG,AFNE01.JPG,AFNE01.JPG,AFNE01.JPG,,,,,,,,,2,2,22,5,,,,,,,,,,,,,,,AMSA03.jpg,AMNE09.jpg,AMNE19.jpg,AMSA09.jpg,AMSA03.jpg,MS,2,num_8,16,num_8,0.716751785469,,,2017_Apr_18_1326,59.996670912,MAFE4ImagesEEG,001,100232,
AFNE01.JPG,AFNE01.JPG,AFNE01.JPG,AFNE01.JPG,AFNE01.JPG,AFNE01.JPG,,,,,,,,,2,3,23,7,,,,,,,,,,,,,,,AMNE09.jpg,AMSA20.jpg,AMNE13.jpg,AMSA13.jpg,AMNE09.jpg,MN,1,num_8,32,num_4,1.10006385916,,,2017_Apr_18_1326,59.996670912,MAFE4ImagesEEG,001,100232,
AFNE01.JPG,AFNE01.JPG,AFNE01.JPG,AFNE01.JPG,AFNE01.JPG,AFNE01.JPG,,,,,,,,,2,4,24,1,,,,,,,,,,,,,,,AMNE06.jpg,AMSA05.jpg,AMNE15.jpg,AMSA15.jpg,AMNE15.jpg,MN,1,num_2,16,num_2,1.08347010183,,,2017_Apr_18_1326,59.996670912,MAFE4ImagesEEG,001,100232,
AFNE01.JPG,AFNE01.JPG,AFNE01.JPG,AFNE01.JPG,AFNE01.JPG,AFNE01.JPG,,,,,,,,,2,5,25,2,,,,,,,,,,,,,,,AMSA03.jpg,AMNE13.jpg,AMNE09.jpg,AMSA15.jpg,AMSA15.jpg,MS,2,num_4,32,num_8,1.33346376724,,,2017_Apr_18_1326,59.996670912,MAFE4ImagesEEG,001,100232,
AFNE01.JPG,AFNE01.JPG,AFNE01.JPG,AFNE01.JPG,AFNE01.JPG,AFNE01.JPG,,,,,,,,,2,6,26,8,,,,,,,,,,,,,,,AMNE19.jpg,AMSA10.jpg,AMSA11.jpg,AMNE12.jpg,AMNE12.jpg,MN,1,num_4,32,num_2,0.966807994992,,,2017_Apr_18_1326,59.996670912,MAFE4ImagesEEG,001,100232,
AFNE01.JPG,AFNE01.JPG,AFNE01.JPG,AFNE01.JPG,AFNE01.JPG,AFNE01.JPG,,,,,,,,,2,7,27,4,,,,,,,,,,,,,,,AMSA08.jpg,AMNE12.jpg,AMSA04.jpg,AMNE10.jpg,AMNE10.jpg,MN,1,num_4,32,num_8,1.05012157615,,,2017_Apr_18_1326,59.996670912,MAFE4ImagesEEG,001,100232,
AFNE01.JPG,AFNE01.JPG,AFNE01.JPG,AFNE01.JPG,AFNE01.JPG,AFNE01.JPG,,,,,,,,,2,8,28,3,,,,,,,,,,,,,,,AMSA16.jpg,AMSA15.jpg,AMNE20.jpg,AMNE15.jpg,AMNE20.jpg,MN,1,num_2,16,num_2,1.10010747967,,,2017_Apr_18_1326,59.996670912,MAFE4ImagesEEG,001,100232,
AFNE01.JPG,AFNE01.JPG,AFNE01.JPG,AFNE01.JPG,AFNE01.JPG,AFNE01.JPG,,,,,,,,,2,9,29,6,,,,,,,,,,,,,,,AMSA20.jpg,AMSA12.jpg,AMNE11.jpg,AMNE17.jpg,AMSA12.jpg,MS,2,num_6,32,num_4,1.58342279281,,,2017_Apr_18_1326,59.996670912,MAFE4ImagesEEG,001,100232,
AFNE01.JPG,AFNE01.JPG,AFNE01.JPG,AFNE01.JPG,AFNE01.JPG,AFNE01.JPG,,,,,,,,,3,0,30,6,,,,,,,,,,,,,,,AMSA17.jpg,AMNE02.jpg,AMSA11.jpg,AMNE15.jpg,AMNE02.jpg,MN,1,num_6,16,num_6,0.866729381858,,,2017_Apr_18_1326,59.996670912,MAFE4ImagesEEG,001,100232,
AFNE01.JPG,AFNE01.JPG,AFNE01.JPG,AFNE01.JPG,AFNE01.JPG,AFNE01.JPG,,,,,,,,,3,1,31,4,,,,,,,,,,,,,,,AMNE12.jpg,AMSA04.jpg,AMSA20.jpg,AMNE07.jpg,AMSA04.jpg,MS,2,num_6,16,num_6,0.683465803915,,,2017_Apr_18_1326,59.996670912,MAFE4ImagesEEG,001,100232,
AFNE01.JPG,AFNE01.JPG,AFNE01.JPG,AFNE01.JPG,AFNE01.JPG,AFNE01.JPG,,,,,,,,,3,2,32,9,,,,,,,,,,,,,,,AMNE07.jpg,AMSA08.jpg,AMNE02.jpg,AMSA01.jpg,AMNE07.jpg,MN,1,num_8,16,num_8,0.883421926817,,,2017_Apr_18_1326,59.996670912,MAFE4ImagesEEG,001,100232,
AFNE01.JPG,AFNE01.JPG,AFNE01.JPG,AFNE01.JPG,AFNE01.JPG,AFNE01.JPG,,,,,,,,,3,3,33,8,,,,,,,,,,,,,,,AMNE12.jpg,AMNE13.jpg,AMSA11.jpg,AMSA20.jpg,AMSA11.jpg,MS,2,num_2,32,num_8,1.18338962838,,,2017_Apr_18_1326,59.996670912,MAFE4ImagesEEG,001,100232,
AFNE01.JPG,AFNE01.JPG,AFNE01.JPG,AFNE01.JPG,AFNE01.JPG,AFNE01.JPG,,,,,,,,,3,4,34,0,,,,,,,,,,,,,,,AMNE16.jpg,AMSA09.jpg,AMSA03.jpg,AMNE08.jpg,AMNE16.jpg,MN,1,num_8,16,num_8,0.650073016252,,,2017_Apr_18_1326,59.996670912,MAFE4ImagesEEG,001,100232,
AFNE01.JPG,AFNE01.JPG,AFNE01.JPG,AFNE01.JPG,AFNE01.JPG,AFNE01.JPG,,,,,,,,,3,5,35,1,,,,,,,,,,,,,,,AMSA16.jpg,AMNE11.jpg,AMNE07.jpg,AMSA13.jpg,AMNE07.jpg,MN,1,num_2,32,num_6,1.30010594013,,,2017_Apr_18_1326,59.996670912,MAFE4ImagesEEG,001,100232,
AFNE01.JPG,AFNE01.JPG,AFNE01.JPG,AFNE01.JPG,AFNE01.JPG,AFNE01.JPG,,,,,,,,,3,6,36,5,,,,,,,,,,,,,,,AMNE10.jpg,AMSA19.jpg,AMNE07.jpg,AMSA15.jpg,AMNE10.jpg,MN,1,num_8,32,num_2,2.04977164981,,,2017_Apr_18_1326,59.996670912,MAFE4ImagesEEG,001,100232,
AFNE01.JPG,AFNE01.JPG,AFNE01.JPG,AFNE01.JPG,AFNE01.JPG,AFNE01.JPG,,,,,,,,,3,7,37,3,,,,,,,,,,,,,,,AMSA08.jpg,AMSA04.jpg,AMNE19.jpg,AMNE10.jpg,AMNE10.jpg,MN,1,num_4,32,num_2,1.18341560825,,,2017_Apr_18_1326,59.996670912,MAFE4ImagesEEG,001,100232,
AFNE01.JPG,AFNE01.JPG,AFNE01.JPG,AFNE01.JPG,AFNE01.JPG,AFNE01.JPG,,,,,,,,,3,8,38,2,,,,,,,,,,,,,,,AMSA15.jpg,AMNE02.jpg,AMNE09.jpg,AMSA19.jpg,AMNE02.jpg,MN,1,num_6,16,num_6,2.08334469284,,,2017_Apr_18_1326,59.996670912,MAFE4ImagesEEG,001,100232,
AFNE01.JPG,AFNE01.JPG,AFNE01.JPG,AFNE01.JPG,AFNE01.JPG,AFNE01.JPG,,,,,,,,,3,9,39,7,,,,,,,,,,,,,,,AMSA03.jpg,AMNE15.jpg,AMSA11.jpg,AMNE06.jpg,AMNE15.jpg,MN,1,num_6,16,num_6,0.716783859389,,,2017_Apr_18_1326,59.996670912,MAFE4ImagesEEG,001,100232,
AFNE01.JPG,AFNE01.JPG,AFNE01.JPG,AFNE01.JPG,AFNE01.JPG,AFNE01.JPG,,,,,,,,,4,0,40,1,,,,,,,,,,,,,,,AMSA02.jpg,AMSA13.jpg,AMNE02.jpg,AMNE08.jpg,AMSA02.jpg,MS,2,num_8,16,num_8,0.66680308769,,,2017_Apr_18_1326,59.996670912,MAFE4ImagesEEG,001,100232,
AFNE01.JPG,AFNE01.JPG,AFNE01.JPG,AFNE01.JPG,AFNE01.JPG,AFNE01.JPG,,,,,,,,,4,1,41,6,,,,,,,,,,,,,,,AMSA01.jpg,AMNE10.jpg,AMNE11.jpg,AMSA06.jpg,AMSA06.jpg,MS,2,num_4,32,num_6,1.08342680204,,,2017_Apr_18_1326,59.996670912,MAFE4ImagesEEG,001,100232,
AFNE01.JPG,AFNE01.JPG,AFNE01.JPG,AFNE01.JPG,AFNE01.JPG,AFNE01.JPG,,,,,,,,,4,2,42,5,,,,,,,,,,,,,,,AMSA09.jpg,AMSA05.jpg,AMNE17.jpg,AMNE13.jpg,AMNE17.jpg,MN,1,num_2,32,num_6,1.01679133261,,,2017_Apr_18_1326,59.996670912,MAFE4ImagesEEG,001,100232,
AFNE01.JPG,AFNE01.JPG,AFNE01.JPG,AFNE01.JPG,AFNE01.JPG,AFNE01.JPG,,,,,,,,,4,3,43,9,,,,,,,,,,,,,,,AMSA19.jpg,AMSA10.jpg,AMNE11.jpg,AMNE07.jpg,AMSA10.jpg,MS,2,num_6,32,num_4,1.05012702871,,,2017_Apr_18_1326,59.996670912,MAFE4ImagesEEG,001,100232,
AFNE01.JPG,AFNE01.JPG,AFNE01.JPG,AFNE01.JPG,AFNE01.JPG,AFNE01.JPG,,,,,,,,,4,4,44,0,,,,,,,,,,,,,,,AMNE15.jpg,AMSA13.jpg,AMNE10.jpg,AMSA19.jpg,AMNE10.jpg,MN,1,num_2,16,num_2,0.866803472585,,,2017_Apr_18_1326,59.996670912,MAFE4ImagesEEG,001,100232,
AFNE01.JPG,AFNE01.JPG,AFNE01.JPG,AFNE01.JPG,AFNE01.JPG,AFNE01.JPG,,,,,,,,,4,5,45,4,,,,,,,,,,,,,,,AMNE03.jpg,AMNE02.jpg,AMSA18.jpg,AMSA02.jpg,AMSA18.jpg,MS,2,num_2,16,num_2,1.00018217979,,,2017_Apr_18_1326,59.996670912,MAFE4ImagesEEG,001,100232,
AFNE01.JPG,AFNE01.JPG,AFNE01.JPG,AFNE01.JPG,AFNE01.JPG,AFNE01.JPG,,,,,,,,,4,6,46,3,,,,,,,,,,,,,,,AMSA05.jpg,AMNE03.jpg,AMSA11.jpg,AMNE18.jpg,AMNE03.jpg,MN,1,num_6,16,num_6,1.08346240409,,,2017_Apr_18_1326,59.996670912,MAFE4ImagesEEG,001,100232,
AFNE01.JPG,AFNE01.JPG,AFNE01.JPG,AFNE01.JPG,AFNE01.JPG,AFNE01.JPG,,,,,,,,,4,7,47,7,,,,,,,,,,,,,,,AMNE11.jpg,AMSA07.jpg,AMNE04.jpg,AMSA06.jpg,AMNE04.jpg,MN,1,num_2,32,num_8,1.69973946364,,,2017_Apr_18_1326,59.996670912,MAFE4ImagesEEG,001,100232,
AFNE01.JPG,AFNE01.JPG,AFNE01.JPG,AFNE01.JPG,AFNE01.JPG,AFNE01.JPG,,,,,,,,,4,8,48,2,,,,,,,,,,,,,,,AMNE01.jpg,AMSA02.jpg,AMSA10.jpg,AMNE05.jpg,AMNE05.jpg,MN,1,num_4,32,num_6,1.25005588878,,,2017_Apr_18_1326,59.996670912,MAFE4ImagesEEG,001,100232,
AFNE01.JPG,AFNE01.JPG,AFNE01.JPG,AFNE01.JPG,AFNE01.JPG,AFNE01.JPG,,,,,,,,,4,9,49,8,,,,,,,,,,,,,,,AMSA05.jpg,AMSA06.jpg,AMNE19.jpg,AMNE18.jpg,AMSA06.jpg,MS,2,num_6,32,num_2,1.18345666285,,,2017_Apr_18_1326,59.996670912,MAFE4ImagesEEG,001,100232,
AFNE01.JPG,AFNE01.JPG,AFNE01.JPG,AFNE01.JPG,AFNE01.JPG,AFNE01.JPG,,,,,,,,,5,0,50,0,,,,,,,,,,,,,,,AMNE10.jpg,AMSA14.jpg,AMNE08.jpg,AMSA04.jpg,AMNE10.jpg,MN,1,num_8,32,num_6,0.98346846606,,,2017_Apr_18_1326,59.996670912,MAFE4ImagesEEG,001,100232,
AFNE01.JPG,AFNE01.JPG,AFNE01.JPG,AFNE01.JPG,AFNE01.JPG,AFNE01.JPG,,,,,,,,,5,1,51,5,,,,,,,,,,,,,,,AMSA10.jpg,AMNE18.jpg,AMNE09.jpg,AMSA14.jpg,AMSA10.jpg,MS,2,num_8,32,num_4,1.16674198689,,,2017_Apr_18_1326,59.996670912,MAFE4ImagesEEG,001,100232,
AFNE01.JPG,AFNE01.JPG,AFNE01.JPG,AFNE01.JPG,AFNE01.JPG,AFNE01.JPG,,,,,,,,,5,2,52,2,,,,,,,,,,,,,,,AMSA11.jpg,AMNE09.jpg,AMSA19.jpg,AMNE16.jpg,AMSA19.jpg,MS,2,num_2,16,num_2,0.800111873788,,,2017_Apr_18_1326,59.996670912,MAFE4ImagesEEG,001,100232,
AFNE01.JPG,AFNE01.JPG,AFNE01.JPG,AFNE01.JPG,AFNE01.JPG,AFNE01.JPG,,,,,,,,,5,3,53,1,,,,,,,,,,,,,,,AMNE14.jpg,AMSA20.jpg,AMSA02.jpg,AMNE13.jpg,AMNE13.jpg,MN,1,num_4,32,num_8,1.31675390236,,,2017_Apr_18_1326,59.996670912,MAFE4ImagesEEG,001,100232,
AFNE01.JPG,AFNE01.JPG,AFNE01.JPG,AFNE01.JPG,AFNE01.JPG,AFNE01.JPG,,,,,,,,,5,4,54,4,,,,,,,,,,,,,,,AMNE03.jpg,AMNE01.jpg,AMSA17.jpg,AMSA09.jpg,AMNE01.jpg,MN,1,num_6,16,num_6,1.03342325789,,,2017_Apr_18_1326,59.996670912,MAFE4ImagesEEG,001,100232,
AFNE01.JPG,AFNE01.JPG,AFNE01.JPG,AFNE01.JPG,AFNE01.JPG,AFNE01.JPG,,,,,,,,,5,5,55,7,,,,,,,,,,,,,,,AMNE20.jpg,AMSA18.jpg,AMNE14.jpg,AMSA04.jpg,AMNE20.jpg,MN,1,num_8,16,num_8,0.783462949345,,,2017_Apr_18_1326,59.996670912,MAFE4ImagesEEG,001,100232,
AFNE01.JPG,AFNE01.JPG,AFNE01.JPG,AFNE01.JPG,AFNE01.JPG,AFNE01.JPG,,,,,,,,,5,6,56,8,,,,,,,,,,,,,,,AMNE18.jpg,AMSA19.jpg,AMSA17.jpg,AMNE13.jpg,AMNE18.jpg,MN,1,num_8,32,num_6,1.11672080208,,,2017_Apr_18_1326,59.996670912,MAFE4ImagesEEG,001,100232,
AFNE01.JPG,AFNE01.JPG,AFNE01.JPG,AFNE01.JPG,AFNE01.JPG,AFNE01.JPG,,,,,,,,,5,7,57,6,,,,,,,,,,,,,,,AMNE12.jpg,AMNE03.jpg,AMSA12.jpg,AMSA05.jpg,AMNE03.jpg,MN,1,num_6,32,num_8,0.933458827843,,,2017_Apr_18_1326,59.996670912,MAFE4ImagesEEG,001,100232,
AFNE01.JPG,AFNE01.JPG,AFNE01.JPG,AFNE01.JPG,AFNE01.JPG,AFNE01.JPG,,,,,,,,,5,8,58,9,,,,,,,,,,,,,,,AMNE09.jpg,AMSA01.jpg,AMNE10.jpg,AMSA02.jpg,AMNE09.jpg,MN,1,num_8,16,num_8,1.03341620162,,,2017_Apr_18_1326,59.996670912,MAFE4ImagesEEG,001,100232,
AFNE01.JPG,AFNE01.JPG,AFNE01.JPG,AFNE01.JPG,AFNE01.JPG,AFNE01.JPG,,,,,,,,,5,9,59,3,,,,,,,,,,,,,,,AMSA09.jpg,AMSA08.jpg,AMNE16.jpg,AMNE09.jpg,AMSA08.jpg,MS,2,num_6,32,num_8,1.26677120622,,,2017_Apr_18_1326,59.996670912,MAFE4ImagesEEG,001,100232,
,,,,,,,,,,,,,,,,,,,,,,,,,,,,,,,,,,,,,,,,,,,space,21.048832205,2017_Apr_18_1326,59.996670912,MAFE4ImagesEEG,001,100232,
AFNE01.JPG,AFNE01.JPG,AFNE01.JPG,AFNE01.JPG,AFNE01.JPG,AFNE01.JPG,,,,,,,,,,,,,0,0,0,1,,,,,,,,,,,AFNE12.jpg,AFNE11.jpg,AFSA07.jpg,AFSA08.jpg,AFNE11.jpg,FN,3,num_6,16,num_6,1.03349574491,,,2017_Apr_18_1326,59.996670912,MAFE4ImagesEEG,001,100232,
AFNE01.JPG,AFNE01.JPG,AFNE01.JPG,AFNE01.JPG,AFNE01.JPG,AFNE01.JPG,,,,,,,,,,,,,0,1,1,6,,,,,,,,,,,AFNE01.jpg,AFNE11.jpg,AFSA06.jpg,AFSA10.jpg,AFNE11.jpg,FN,3,num_6,16,num_6,0.750163496748,,,2017_Apr_18_1326,59.996670912,MAFE4ImagesEEG,001,100232,
AFNE01.JPG,AFNE01.JPG,AFNE01.JPG,AFNE01.JPG,AFNE01.JPG,AFNE01.JPG,,,,,,,,,,,,,0,2,2,5,,,,,,,,,,,AFSA07.jpg,AFNE05.jpg,AFSA20.jpg,AFNE06.jpg,AFNE06.jpg,FN,3,num_4,32,num_6,0.967094094274,,,2017_Apr_18_1326,59.996670912,MAFE4ImagesEEG,001,100232,
AFNE01.JPG,AFNE01.JPG,AFNE01.JPG,AFNE01.JPG,AFNE01.JPG,AFNE01.JPG,,,,,,,,,,,,,0,3,3,7,,,,,,,,,,,AFSA03.jpg,AFSA15.jpg,AFNE08.jpg,AFNE12.jpg,AFNE12.jpg,FN,3,num_4,16,num_4,1.38344069006,,,2017_Apr_18_1326,59.996670912,MAFE4ImagesEEG,001,100232,
AFNE01.JPG,AFNE01.JPG,AFNE01.JPG,AFNE01.JPG,AFNE01.JPG,AFNE01.JPG,,,,,,,,,,,,,0,4,4,3,,,,,,,,,,,AFNE16.jpg,AFSA20.jpg,AFNE20.jpg,AFSA03.jpg,AFSA03.jpg,FS,4,num_4,16,num_4,1.18314875333,,,2017_Apr_18_1326,59.996670912,MAFE4ImagesEEG,001,100232,
AFNE01.JPG,AFNE01.JPG,AFNE01.JPG,AFNE01.JPG,AFNE01.JPG,AFNE01.JPG,,,,,,,,,,,,,0,5,5,9,,,,,,,,,,,AFSA18.jpg,AFNE14.jpg,AFNE19.jpg,AFSA12.jpg,AFNE19.jpg,FN,3,num_2,16,num_2,0.883455925155,,,2017_Apr_18_1326,59.996670912,MAFE4ImagesEEG,001,100232,
AFNE01.JPG,AFNE01.JPG,AFNE01.JPG,AFNE01.JPG,AFNE01.JPG,AFNE01.JPG,,,,,,,,,,,,,0,6,6,8,,,,,,,,,,,AFSA18.jpg,AFNE10.jpg,AFNE11.jpg,AFSA06.jpg,AFNE10.jpg,FN,3,num_6,16,num_6,0.666897064249,,,2017_Apr_18_1326,59.996670912,MAFE4ImagesEEG,001,100232,
AFNE01.JPG,AFNE01.JPG,AFNE01.JPG,AFNE01.JPG,AFNE01.JPG,AFNE01.JPG,,,,,,,,,,,,,0,7,7,2,,,,,,,,,,,AFNE02.jpg,AFNE20.jpg,AFSA18.jpg,AFSA02.jpg,AFNE20.jpg,FN,3,num_6,16,num_6,0.833447890647,,,2017_Apr_18_1326,59.996670912,MAFE4ImagesEEG,001,100232,
AFNE01.JPG,AFNE01.JPG,AFNE01.JPG,AFNE01.JPG,AFNE01.JPG,AFNE01.JPG,,,,,,,,,,,,,0,8,8,0,,,,,,,,,,,AFNE05.jpg,AFNE13.jpg,AFSA03.jpg,AFSA02.jpg,AFNE05.jpg,FN,3,num_8,32,num_4,1.40008512416,,,2017_Apr_18_1326,59.996670912,MAFE4ImagesEEG,001,100232,
AFNE01.JPG,AFNE01.JPG,AFNE01.JPG,AFNE01.JPG,AFNE01.JPG,AFNE01.JPG,,,,,,,,,,,,,0,9,9,4,,,,,,,,,,,AFSA09.jpg,AFSA02.jpg,AFNE07.jpg,AFNE13.jpg,AFSA09.jpg,FS,4,num_8,32,num_6,0.966615230805,,,2017_Apr_18_1326,59.996670912,MAFE4ImagesEEG,001,100232,
AFNE01.JPG,AFNE01.JPG,AFNE01.JPG,AFNE01.JPG,AFNE01.JPG,AFNE01.JPG,,,,,,,,,,,,,1,0,10,5,,,,,,,,,,,AFNE12.jpg,AFSA06.jpg,AFSA03.jpg,AFNE05.jpg,AFSA06.jpg,FS,4,num_6,16,num_6,0.783481231469,,,2017_Apr_18_1326,59.996670912,MAFE4ImagesEEG,001,100232,
AFNE01.JPG,AFNE01.JPG,AFNE01.JPG,AFNE01.JPG,AFNE01.JPG,AFNE01.JPG,,,,,,,,,,,,,1,1,11,6,,,,,,,,,,,AFNE10.jpg,AFNE09.jpg,AFSA06.jpg,AFSA03.jpg,AFNE10.jpg,FN,3,num_8,16,num_8,1.18341945713,,,2017_Apr_18_1326,59.996670912,MAFE4ImagesEEG,001,100232,
AFNE01.JPG,AFNE01.JPG,AFNE01.JPG,AFNE01.JPG,AFNE01.JPG,AFNE01.JPG,,,,,,,,,,,,,1,2,12,1,,,,,,,,,,,AFNE13.jpg,AFNE02.jpg,AFSA06.jpg,AFSA09.jpg,AFSA09.jpg,FS,4,num_4,32,num_8,1.05008565338,,,2017_Apr_18_1326,59.996670912,MAFE4ImagesEEG,001,100232,
AFNE01.JPG,AFNE01.JPG,AFNE01.JPG,AFNE01.JPG,AFNE01.JPG,AFNE01.JPG,,,,,,,,,,,,,1,3,13,7,,,,,,,,,,,AFNE18.jpg,AFNE16.jpg,AFSA16.jpg,AFSA19.jpg,AFNE16.jpg,FN,3,num_6,16,num_6,0.633481183366,,,2017_Apr_18_1326,59.996670912,MAFE4ImagesEEG,001,100232,
AFNE01.JPG,AFNE01.JPG,AFNE01.JPG,AFNE01.JPG,AFNE01.JPG,AFNE01.JPG,,,,,,,,,,,,,1,4,14,9,,,,,,,,,,,AFNE03.jpg,AFNE18.jpg,AFSA17.jpg,AFSA08.jpg,AFSA08.jpg,FS,4,num_4,16,num_4,1.31673177135,,,2017_Apr_18_1326,59.996670912,MAFE4ImagesEEG,001,100232,
AFNE01.JPG,AFNE01.JPG,AFNE01.JPG,AFNE01.JPG,AFNE01.JPG,AFNE01.JPG,,,,,,,,,,,,,1,5,15,0,,,,,,,,,,,AFSA20.jpg,AFNE08.jpg,AFSA16.jpg,AFNE19.jpg,AFNE08.jpg,FN,3,num_6,16,num_6,0.749845965052,,,2017_Apr_18_1326,59.996670912,MAFE4ImagesEEG,001,100232,
AFNE01.JPG,AFNE01.JPG,AFNE01.JPG,AFNE01.JPG,AFNE01.JPG,AFNE01.JPG,,,,,,,,,,,,,1,6,16,8,,,,,,,,,,,AFNE11.jpg,AFNE14.jpg,AFSA19.jpg,AFSA17.jpg,AFSA17.jpg,FS,4,num_4,32,num_2,1.66672482736,,,2017_Apr_18_1326,59.996670912,MAFE4ImagesEEG,001,100232,
AFNE01.JPG,AFNE01.JPG,AFNE01.JPG,AFNE01.JPG,AFNE01.JPG,AFNE01.JPG,,,,,,,,,,,,,1,7,17,4,,,,,,,,,,,AFNE04.jpg,AFNE07.jpg,AFSA11.jpg,AFSA17.jpg,AFSA11.jpg,FS,4,num_2,16,num_2,0.88345849108,,,2017_Apr_18_1326,59.996670912,MAFE4ImagesEEG,001,100232,
AFNE01.JPG,AFNE01.JPG,AFNE01.JPG,AFNE01.JPG,AFNE01.JPG,AFNE01.JPG,,,,,,,,,,,,,1,8,18,3,,,,,,,,,,,AFSA18.jpg,AFNE04.jpg,AFSA02.jpg,AFNE17.jpg,AFSA18.jpg,FS,4,num_8,32,num_4,1.01689493132,,,2017_Apr_18_1326,59.996670912,MAFE4ImagesEEG,001,100232,
AFNE01.JPG,AFNE01.JPG,AFNE01.JPG,AFNE01.JPG,AFNE01.JPG,AFNE01.JPG,,,,,,,,,,,,,1,9,19,2,,,,,,,,,,,AFSA16.jpg,AFSA17.jpg,AFNE04.jpg,AFNE09.jpg,AFNE09.jpg,FN,3,num_4,32,num_2,1.11673940494,,,2017_Apr_18_1326,59.996670912,MAFE4ImagesEEG,001,100232,
AFNE01.JPG,AFNE01.JPG,AFNE01.JPG,AFNE01.JPG,AFNE01.JPG,AFNE01.JPG,,,,,,,,,,,,,2,0,20,8,,,,,,,,,,,AFSA02.jpg,AFSA06.jpg,AFNE02.jpg,AFNE13.jpg,AFSA06.jpg,FS,4,num_6,16,num_6,0.666825860171,,,2017_Apr_18_1326,59.996670912,MAFE4ImagesEEG,001,100232,
AFNE01.JPG,AFNE01.JPG,AFNE01.JPG,AFNE01.JPG,AFNE01.JPG,AFNE01.JPG,,,,,,,,,,,,,2,1,21,1,,,,,,,,,,,AFSA06.jpg,AFNE09.jpg,AFNE07.jpg,AFSA04.jpg,AFNE09.jpg,FN,3,num_6,32,num_8,1.50008611845,,,2017_Apr_18_1326,59.996670912,MAFE4ImagesEEG,001,100232,
AFNE01.JPG,AFNE01.JPG,AFNE01.JPG,AFNE01.JPG,AFNE01.JPG,AFNE01.JPG,,,,,,,,,,,,,2,2,22,2,,,,,,,,,,,AFNE10.jpg,AFSA04.jpg,AFNE01.jpg,AFSA11.jpg,AFNE10.jpg,FN,3,num_8,16,num_8,0.900120245089,,,2017_Apr_18_1326,59.996670912,MAFE4ImagesEEG,001,100232,
AFNE01.JPG,AFNE01.JPG,AFNE01.JPG,AFNE01.JPG,AFNE01.JPG,AFNE01.JPG,,,,,,,,,,,,,2,3,23,6,,,,,,,,,,,AFNE12.jpg,AFSA13.jpg,AFSA10.jpg,AFNE15.jpg,AFSA13.jpg,FS,4,num_6,16,num_6,0.933446319017,,,2017_Apr_18_1326,59.996670912,MAFE4ImagesEEG,001,100232,
AFNE01.JPG,AFNE01.JPG,AFNE01.JPG,AFNE01.JPG,AFNE01.JPG,AFNE01.JPG,,,,,,,,,,,,,2,4,24,3,,,,,,,,,,,AFSA02.jpg,AFNE17.jpg,AFNE13.jpg,AFSA08.jpg,AFSA02.jpg,FS,4,num_8,16,num_8,0.883593522216,,,2017_Apr_18_1326,59.996670912,MAFE4ImagesEEG,001,100232,
AFNE01.JPG,AFNE01.JPG,AFNE01.JPG,AFNE01.JPG,AFNE01.JPG,AFNE01.JPG,,,,,,,,,,,,,2,5,25,0,,,,,,,,,,,AFNE16.jpg,AFSA01.jpg,AFSA04.jpg,AFNE10.jpg,AFNE16.jpg,FN,3,num_8,16,num_8,1.18310128395,,,2017_Apr_18_1326,59.996670912,MAFE4ImagesEEG,001,100232,
AFNE01.JPG,AFNE01.JPG,AFNE01.JPG,AFNE01.JPG,AFNE01.JPG,AFNE01.JPG,,,,,,,,,,,,,2,6,26,9,,,,,,,,,,,AFSA08.jpg,AFNE04.jpg,AFNE05.jpg,AFSA12.jpg,AFNE04.jpg,FN,3,num_6,16,num_6,0.733139307573,,,2017_Apr_18_1326,59.996670912,MAFE4ImagesEEG,001,100232,
AFNE01.JPG,AFNE01.JPG,AFNE01.JPG,AFNE01.JPG,AFNE01.JPG,AFNE01.JPG,,,,,,,,,,,,,2,7,27,7,,,,,,,,,,,AFSA03.jpg,AFNE19.jpg,AFNE10.jpg,AFSA10.jpg,AFSA03.jpg,FS,4,num_8,32,num_6,1.23346854624,,,2017_Apr_18_1326,59.996670912,MAFE4ImagesEEG,001,100232,
AFNE01.JPG,AFNE01.JPG,AFNE01.JPG,AFNE01.JPG,AFNE01.JPG,AFNE01.JPG,,,,,,,,,,,,,2,8,28,4,,,,,,,,,,,AFNE02.jpg,AFNE03.jpg,AFSA08.jpg,AFSA03.jpg,AFNE03.jpg,FN,3,num_6,32,num_8,0.833471304592,,,2017_Apr_18_1326,59.996670912,MAFE4ImagesEEG,001,100232,
AFNE01.JPG,AFNE01.JPG,AFNE01.JPG,AFNE01.JPG,AFNE01.JPG,AFNE01.JPG,,,,,,,,,,,,,2,9,29,5,,,,,,,,,,,AFSA11.jpg,AFSA04.jpg,AFNE13.jpg,AFNE14.jpg,AFSA11.jpg,FS,4,num_8,16,num_8,0.750305263427,,,2017_Apr_18_1326,59.996670912,MAFE4ImagesEEG,001,100232,
AFNE01.JPG,AFNE01.JPG,AFNE01.JPG,AFNE01.JPG,AFNE01.JPG,AFNE01.JPG,,,,,,,,,,,,,3,0,30,1,,,,,,,,,,,AFSA18.jpg,AFNE20.jpg,AFNE18.jpg,AFSA12.jpg,AFSA18.jpg,FS,4,num_8,16,num_8,1.0834444427,,,2017_Apr_18_1326,59.996670912,MAFE4ImagesEEG,001,100232,
AFNE01.JPG,AFNE01.JPG,AFNE01.JPG,AFNE01.JPG,AFNE01.JPG,AFNE01.JPG,,,,,,,,,,,,,3,1,31,5,,,,,,,,,,,AFSA13.jpg,AFNE04.jpg,AFNE09.jpg,AFSA16.jpg,AFSA13.jpg,FS,4,num_8,32,num_4,0.749974581428,,,2017_Apr_18_1326,59.996670912,MAFE4ImagesEEG,001,100232,
AFNE01.JPG,AFNE01.JPG,AFNE01.JPG,AFNE01.JPG,AFNE01.JPG,AFNE01.JPG,,,,,,,,,,,,,3,2,32,0,,,,,,,,,,,AFSA14.jpg,AFNE16.jpg,AFSA16.jpg,AFNE02.jpg,AFNE02.jpg,FN,3,num_4,32,num_8,1.18340630682,,,2017_Apr_18_1326,59.996670912,MAFE4ImagesEEG,001,100232,
AFNE01.JPG,AFNE01.JPG,AFNE01.JPG,AFNE01.JPG,AFNE01.JPG,AFNE01.JPG,,,,,,,,,,,,,3,3,33,3,,,,,,,,,,,AFNE07.jpg,AFNE11.jpg,AFSA17.jpg,AFSA02.jpg,AFSA17.jpg,FS,4,num_2,32,num_4,1.21671730602,,,2017_Apr_18_1326,59.996670912,MAFE4ImagesEEG,001,100232,
AFNE01.JPG,AFNE01.JPG,AFNE01.JPG,AFNE01.JPG,AFNE01.JPG,AFNE01.JPG,,,,,,,,,,,,,3,4,34,2,,,,,,,,,,,AFNE07.jpg,AFNE19.jpg,AFSA18.jpg,AFSA14.jpg,AFSA18.jpg,FS,4,num_2,32,num_4,1.03342005049,,,2017_Apr_18_1326,59.996670912,MAFE4ImagesEEG,001,100232,
AFNE01.JPG,AFNE01.JPG,AFNE01.JPG,AFNE01.JPG,AFNE01.JPG,AFNE01.JPG,,,,,,,,,,,,,3,5,35,9,,,,,,,,,,,AFNE17.jpg,AFNE14.jpg,AFSA14.jpg,AFSA15.jpg,AFSA15.jpg,FS,4,num_4,16,num_4,0.666684734955,,,2017_Apr_18_1326,59.996670912,MAFE4ImagesEEG,001,100232,
AFNE01.JPG,AFNE01.JPG,AFNE01.JPG,AFNE01.JPG,AFNE01.JPG,AFNE01.JPG,,,,,,,,,,,,,3,6,36,8,,,,,,,,,,,AFSA03.jpg,AFNE13.jpg,AFSA15.jpg,AFNE07.jpg,AFNE07.jpg,FN,3,num_4,16,num_4,1.11673972568,,,2017_Apr_18_1326,59.996670912,MAFE4ImagesEEG,001,100232,
AFNE01.JPG,AFNE01.JPG,AFNE01.JPG,AFNE01.JPG,AFNE01.JPG,AFNE01.JPG,,,,,,,,,,,,,3,7,37,4,,,,,,,,,,,AFSA02.jpg,AFNE03.jpg,AFNE09.jpg,AFSA15.jpg,AFSA15.jpg,FS,4,num_4,16,num_4,0.600203861773,,,2017_Apr_18_1326,59.996670912,MAFE4ImagesEEG,001,100232,
AFNE01.JPG,AFNE01.JPG,AFNE01.JPG,AFNE01.JPG,AFNE01.JPG,AFNE01.JPG,,,,,,,,,,,,,3,8,38,6,,,,,,,,,,,AFNE19.jpg,AFSA08.jpg,AFNE10.jpg,AFSA17.jpg,AFNE10.jpg,FN,3,num_2,16,num_2,1.23348233802,,,2017_Apr_18_1326,59.996670912,MAFE4ImagesEEG,001,100232,
AFNE01.JPG,AFNE01.JPG,AFNE01.JPG,AFNE01.JPG,AFNE01.JPG,AFNE01.JPG,,,,,,,,,,,,,3,9,39,7,,,,,,,,,,,AFNE15.jpg,AFSA01.jpg,AFNE07.jpg,AFSA13.jpg,AFNE07.jpg,FN,3,num_2,32,num_8,0.900146224958,,,2017_Apr_18_1326,59.996670912,MAFE4ImagesEEG,001,100232,
AFNE01.JPG,AFNE01.JPG,AFNE01.JPG,AFNE01.JPG,AFNE01.JPG,AFNE01.JPG,,,,,,,,,,,,,4,0,40,3,,,,,,,,,,,AFNE19.jpg,AFSA20.jpg,AFNE15.jpg,AFSA18.jpg,AFSA20.jpg,FS,4,num_6,32,num_8,0.93353035266,,,2017_Apr_18_1326,59.996670912,MAFE4ImagesEEG,001,100232,
AFNE01.JPG,AFNE01.JPG,AFNE01.JPG,AFNE01.JPG,AFNE01.JPG,AFNE01.JPG,,,,,,,,,,,,,4,1,41,0,,,,,,,,,,,AFNE10.jpg,AFNE04.jpg,AFSA10.jpg,AFSA15.jpg,AFSA15.jpg,FS,4,num_4,16,num_4,1.10010523449,,,2017_Apr_18_1326,59.996670912,MAFE4ImagesEEG,001,100232,
AFNE01.JPG,AFNE01.JPG,AFNE01.JPG,AFNE01.JPG,AFNE01.JPG,AFNE01.JPG,,,,,,,,,,,,,4,2,42,5,,,,,,,,,,,AFNE19.jpg,AFNE20.jpg,AFSA16.jpg,AFSA03.jpg,AFSA16.jpg,FS,4,num_2,16,num_2,0.600186221112,,,2017_Apr_18_1326,59.996670912,MAFE4ImagesEEG,001,100232,
AFNE01.JPG,AFNE01.JPG,AFNE01.JPG,AFNE01.JPG,AFNE01.JPG,AFNE01.JPG,,,,,,,,,,,,,4,3,43,7,,,,,,,,,,,AFNE14.jpg,AFNE07.jpg,AFSA03.jpg,AFSA12.jpg,AFNE07.jpg,FN,3,num_6,16,num_6,0.81686054809,,,2017_Apr_18_1326,59.996670912,MAFE4ImagesEEG,001,100232,
AFNE01.JPG,AFNE01.JPG,AFNE01.JPG,AFNE01.JPG,AFNE01.JPG,AFNE01.JPG,,,,,,,,,,,,,4,4,44,9,,,,,,,,,,,AFSA01.jpg,AFNE12.jpg,AFNE13.jpg,AFSA19.jpg,AFSA19.jpg,FS,4,num_4,32,num_6,0.783444667206,,,2017_Apr_18_1326,59.996670912,MAFE4ImagesEEG,001,100232,
AFNE01.JPG,AFNE01.JPG,AFNE01.JPG,AFNE01.JPG,AFNE01.JPG,AFNE01.JPG,,,,,,,,,,,,,4,5,45,8,,,,,,,,,,,AFNE18.jpg,AFNE07.jpg,AFSA13.jpg,AFSA10.jpg,AFNE18.jpg,FN,3,num_8,16,num_8,1.00016261471,,,2017_Apr_18_1326,59.996670912,MAFE4ImagesEEG,001,100232,
AFNE01.JPG,AFNE01.JPG,AFNE01.JPG,AFNE01.JPG,AFNE01.JPG,AFNE01.JPG,,,,,,,,,,,,,4,6,46,6,,,,,,,,,,,AFNE10.jpg,AFNE20.jpg,AFSA09.jpg,AFSA20.jpg,AFSA09.jpg,FS,4,num_2,32,num_6,0.800127269264,,,2017_Apr_18_1326,59.996670912,MAFE4ImagesEEG,001,100232,
AFNE01.JPG,AFNE01.JPG,AFNE01.JPG,AFNE01.JPG,AFNE01.JPG,AFNE01.JPG,,,,,,,,,,,,,4,7,47,1,,,,,,,,,,,AFSA19.jpg,AFSA02.jpg,AFNE10.jpg,AFNE18.jpg,AFNE18.jpg,FN,3,num_4,16,num_4,0.783456534569,,,2017_Apr_18_1326,59.996670912,MAFE4ImagesEEG,001,100232,
AFNE01.JPG,AFNE01.JPG,AFNE01.JPG,AFNE01.JPG,AFNE01.JPG,AFNE01.JPG,,,,,,,,,,,,,4,8,48,4,,,,,,,,,,,AFSA17.jpg,AFNE14.jpg,AFSA06.jpg,AFNE11.jpg,AFSA06.jpg,FS,4,num_2,32,num_8,1.01675091947,,,2017_Apr_18_1326,59.996670912,MAFE4ImagesEEG,001,100232,
AFNE01.JPG,AFNE01.JPG,AFNE01.JPG,AFNE01.JPG,AFNE01.JPG,AFNE01.JPG,,,,,,,,,,,,,4,9,49,2,,,,,,,,,,,AFNE18.jpg,AFNE17.jpg,AFSA05.jpg,AFSA20.jpg,AFSA20.jpg,FS,4,num_4,16,num_4,0.816872415438,,,2017_Apr_18_1326,59.996670912,MAFE4ImagesEEG,001,100232,
AFNE01.JPG,AFNE01.JPG,AFNE01.JPG,AFNE01.JPG,AFNE01.JPG,AFNE01.JPG,,,,,,,,,,,,,5,0,50,1,,,,,,,,,,,AFNE14.jpg,AFNE04.jpg,AFSA02.jpg,AFSA07.jpg,AFNE04.jpg,FN,3,num_6,16,num_6,0.866774606053,,,2017_Apr_18_1326,59.996670912,MAFE4ImagesEEG,001,100232,
AFNE01.JPG,AFNE01.JPG,AFNE01.JPG,AFNE01.JPG,AFNE01.JPG,AFNE01.JPG,,,,,,,,,,,,,5,1,51,3,,,,,,,,,,,AFSA03.jpg,AFNE18.jpg,AFSA06.jpg,AFNE05.jpg,AFSA03.jpg,FS,4,num_8,16,num_8,1.01678203118,,,2017_Apr_18_1326,59.996670912,MAFE4ImagesEEG,001,100232,
AFNE01.JPG,AFNE01.JPG,AFNE01.JPG,AFNE01.JPG,AFNE01.JPG,AFNE01.JPG,,,,,,,,,,,,,5,2,52,0,,,,,,,,,,,AFNE07.jpg,AFNE12.jpg,AFSA05.jpg,AFSA12.jpg,AFNE12.jpg,FN,3,num_6,32,num_4,0.78352068238,,,2017_Apr_18_1326,59.996670912,MAFE4ImagesEEG,001,100232,
AFNE01.JPG,AFNE01.JPG,AFNE01.JPG,AFNE01.JPG,AFNE01.JPG,AFNE01.JPG,,,,,,,,,,,,,5,3,53,5,,,,,,,,,,,AFNE07.jpg,AFNE16.jpg,AFSA07.jpg,AFSA03.jpg,AFSA07.jpg,FS,4,num_2,32,num_4,1.13340564929,,,2017_Apr_18_1326,59.996670912,MAFE4ImagesEEG,001,100232,
AFNE01.JPG,AFNE01.JPG,AFNE01.JPG,AFNE01.JPG,AFNE01.JPG,AFNE01.JPG,,,,,,,,,,,,,5,4,54,8,,,,,,,,,,,AFSA19.jpg,AFNE16.jpg,AFNE09.jpg,AFSA16.jpg,AFSA16.jpg,FS,4,num_4,16,num_4,0.734457224477,,,2017_Apr_18_1326,59.996670912,MAFE4ImagesEEG,001,100232,
AFNE01.JPG,AFNE01.JPG,AFNE01.JPG,AFNE01.JPG,AFNE01.JPG,AFNE01.JPG,,,,,,,,,,,,,5,5,55,2,,,,,,,,,,,AFSA06.jpg,AFNE02.jpg,AFNE03.jpg,AFSA20.jpg,AFNE03.jpg,FN,3,num_2,32,num_6,1.03343480449,,,2017_Apr_18_1326,59.996670912,MAFE4ImagesEEG,001,100232,
AFNE01.JPG,AFNE01.JPG,AFNE01.JPG,AFNE01.JPG,AFNE01.JPG,AFNE01.JPG,,,,,,,,,,,,,5,6,56,6,,,,,,,,,,,AFNE15.jpg,AFSA18.jpg,AFNE04.jpg,AFSA20.jpg,AFSA20.jpg,FS,4,num_4,16,num_4,0.666782881133,,,2017_Apr_18_1326,59.996670912,MAFE4ImagesEEG,001,100232,
AFNE01.JPG,AFNE01.JPG,AFNE01.JPG,AFNE01.JPG,AFNE01.JPG,AFNE01.JPG,,,,,,,,,,,,,5,7,57,7,,,,,,,,,,,AFSA11.jpg,AFNE08.jpg,AFSA09.jpg,AFNE16.jpg,AFSA11.jpg,FS,4,num_8,16,num_8,1.31662175784,,,2017_Apr_18_1326,59.996670912,MAFE4ImagesEEG,001,100232,
AFNE01.JPG,AFNE01.JPG,AFNE01.JPG,AFNE01.JPG,AFNE01.JPG,AFNE01.JPG,,,,,,,,,,,,,5,8,58,9,,,,,,,,,,,AFNE20.jpg,AFSA03.jpg,AFSA05.jpg,AFNE17.jpg,AFSA05.jpg,FS,4,num_2,32,num_6,0.650196180053,,,2017_Apr_18_1326,59.996670912,MAFE4ImagesEEG,001,100232,
AFNE01.JPG,AFNE01.JPG,AFNE01.JPG,AFNE01.JPG,AFNE01.JPG,AFNE01.JPG,,,,,,,,,,,,,5,9,59,4,,,,,,,,,,,AFSA19.jpg,AFNE15.jpg,AFNE01.jpg,AFSA16.jpg,AFNE01.jpg,FN,3,num_2,32,num_8,1.23343326495,,,2017_Apr_18_1326,59.996670912,MAFE4ImagesEEG,001,100232,
,,,,,,,,,,,,,,,,,,,,,,,,,,,,,,,,,,,,,,,,,,,space,18.3320762499,2017_Apr_18_1326,59.996670912,MAFE4ImagesEEG,001,100232,
AFNE01.JPG,AFNE01.JPG,AFNE01.JPG,AFNE01.JPG,AFNE01.JPG,AFNE01.JPG,,,,,,,,,,,,,,,,,0,0,0,4,,,,,,,AMSA16.jpg,AMNE01.jpg,AMSA15.jpg,AMNE17.jpg,AMSA16.jpg,MS,2,num_8,16,num_8,1.05006640902,,,2017_Apr_18_1326,59.996670912,MAFE4ImagesEEG,001,100232,
AFNE01.JPG,AFNE01.JPG,AFNE01.JPG,AFNE01.JPG,AFNE01.JPG,AFNE01.JPG,,,,,,,,,,,,,,,,,0,1,1,2,,,,,,,AMNE18.jpg,AMNE01.jpg,AMSA05.jpg,AMSA10.jpg,AMSA05.jpg,MS,2,num_2,16,num_2,1.50009606135,,,2017_Apr_18_1326,59.996670912,MAFE4ImagesEEG,001,100232,
AFNE01.JPG,AFNE01.JPG,AFNE01.JPG,AFNE01.JPG,AFNE01.JPG,AFNE01.JPG,,,,,,,,,,,,,,,,,0,2,2,9,,,,,,,AMSA08.jpg,AMSA04.jpg,AMNE13.jpg,AMNE05.jpg,AMSA04.jpg,MS,2,num_6,16,num_6,0.516777059704,,,2017_Apr_18_1326,59.996670912,MAFE4ImagesEEG,001,100232,
AFNE01.JPG,AFNE01.JPG,AFNE01.JPG,AFNE01.JPG,AFNE01.JPG,AFNE01.JPG,,,,,,,,,,,,,,,,,0,3,3,3,,,,,,,AMNE10.jpg,AMSA10.jpg,AMSA20.jpg,AMNE02.jpg,AMSA20.jpg,MS,2,num_2,16,num_2,0.816906413791,,,2017_Apr_18_1326,59.996670912,MAFE4ImagesEEG,001,100232,
AFNE01.JPG,AFNE01.JPG,AFNE01.JPG,AFNE01.JPG,AFNE01.JPG,AFNE01.JPG,,,,,,,,,,,,,,,,,0,4,4,8,,,,,,,AMNE15.jpg,AMSA06.jpg,AMSA10.jpg,AMNE01.jpg,AMNE01.jpg,MN,1,num_4,32,num_6,0.983481616349,,,2017_Apr_18_1326,59.996670912,MAFE4ImagesEEG,001,100232,
AFNE01.JPG,AFNE01.JPG,AFNE01.JPG,AFNE01.JPG,AFNE01.JPG,AFNE01.JPG,,,,,,,,,,,,,,,,,0,5,5,1,,,,,,,AMSA13.jpg,AMSA09.jpg,AMNE20.jpg,AMNE19.jpg,AMNE20.jpg,MN,1,num_2,16,num_2,0.916823374442,,,2017_Apr_18_1326,59.996670912,MAFE4ImagesEEG,001,100232,
AFNE01.JPG,AFNE01.JPG,AFNE01.JPG,AFNE01.JPG,AFNE01.JPG,AFNE01.JPG,,,,,,,,,,,,,,,,,0,6,6,0,,,,,,,AMSA06.jpg,AMNE07.jpg,AMNE01.jpg,AMSA02.jpg,AMNE01.jpg,MN,1,num_2,32,num_8,0.883437322278,,,2017_Apr_18_1326,59.996670912,MAFE4ImagesEEG,001,100232,
AFNE01.JPG,AFNE01.JPG,AFNE01.JPG,AFNE01.JPG,AFNE01.JPG,AFNE01.JPG,,,,,,,,,,,,,,,,,0,7,7,7,,,,,,,AMNE07.jpg,AMSA11.jpg,AMSA01.jpg,AMNE18.jpg,AMSA01.jpg,MS,2,num_2,32,num_4,0.950121223344,,,2017_Apr_18_1326,59.996670912,MAFE4ImagesEEG,001,100232,
AFNE01.JPG,AFNE01.JPG,AFNE01.JPG,AFNE01.JPG,AFNE01.JPG,AFNE01.JPG,,,,,,,,,,,,,,,,,0,8,8,5,,,,,,,AMSA03.jpg,AMSA20.jpg,AMNE19.jpg,AMNE11.jpg,AMNE19.jpg,MN,1,num_2,32,num_4,1.55006817309,,,2017_Apr_18_1326,59.996670912,MAFE4ImagesEEG,001,100232,
AFNE01.JPG,AFNE01.JPG,AFNE01.JPG,AFNE01.JPG,AFNE01.JPG,AFNE01.JPG,,,,,,,,,,,,,,,,,0,9,9,6,,,,,,,AMSA10.jpg,AMNE14.jpg,AMNE06.jpg,AMSA19.jpg,AMSA10.jpg,MS,2,num_8,32,num_2,1.86695967252,,,2017_Apr_18_1326,59.996670912,MAFE4ImagesEEG,001,100232,
AFNE01.JPG,AFNE01.JPG,AFNE01.JPG,AFNE01.JPG,AFNE01.JPG,AFNE01.JPG,,,,,,,,,,,,,,,,,1,0,10,6,,,,,,,AMNE17.jpg,AMNE04.jpg,AMSA03.jpg,AMSA19.jpg,AMNE17.jpg,MN,1,num_8,16,num_8,0.850135945249,,,2017_Apr_18_1326,59.996670912,MAFE4ImagesEEG,001,100232,
AFNE01.JPG,AFNE01.JPG,AFNE01.JPG,AFNE01.JPG,AFNE01.JPG,AFNE01.JPG,,,,,,,,,,,,,,,,,1,1,11,3,,,,,,,AMSA13.jpg,AMNE08.jpg,AMNE09.jpg,AMSA05.jpg,AMSA05.jpg,MS,2,num_4,16,num_4,0.66680308769,,,2017_Apr_18_1326,59.996670912,MAFE4ImagesEEG,001,100232,
AFNE01.JPG,AFNE01.JPG,AFNE01.JPG,AFNE01.JPG,AFNE01.JPG,AFNE01.JPG,,,,,,,,,,,,,,,,,1,2,12,2,,,,,,,AMSA05.jpg,AMNE16.jpg,AMNE03.jpg,AMSA20.jpg,AMSA05.jpg,MS,2,num_8,32,num_4,0.88351654484,,,2017_Apr_18_1326,59.996670912,MAFE4ImagesEEG,001,100232,
AFNE01.JPG,AFNE01.JPG,AFNE01.JPG,AFNE01.JPG,AFNE01.JPG,AFNE01.JPG,,,,,,,,,,,,,,,,,1,3,13,5,,,,,,,AMNE02.jpg,AMNE05.jpg,AMSA14.jpg,AMSA17.jpg,AMNE05.jpg,MN,1,num_6,32,num_4,0.983446655795,,,2017_Apr_18_1326,59.996670912,MAFE4ImagesEEG,001,100232,
AFNE01.JPG,AFNE01.JPG,AFNE01.JPG,AFNE01.JPG,AFNE01.JPG,AFNE01.JPG,,,,,,,,,,,,,,,,,1,4,14,8,,,,,,,AMSA01.jpg,AMSA12.jpg,AMNE02.jpg,AMNE01.jpg,AMSA01.jpg,MS,2,num_8,32,num_4,1.18345826655,,,2017_Apr_18_1326,59.996670912,MAFE4ImagesEEG,001,100232,
AFNE01.JPG,AFNE01.JPG,AFNE01.JPG,AFNE01.JPG,AFNE01.JPG,AFNE01.JPG,,,,,,,,,,,,,,,,,1,5,15,4,,,,,,,AMNE07.jpg,AMSA06.jpg,AMNE12.jpg,AMSA07.jpg,AMSA06.jpg,MS,2,num_6,16,num_6,0.916773659876,,,2017_Apr_18_1326,59.996670912,MAFE4ImagesEEG,001,100232,
AFNE01.JPG,AFNE01.JPG,AFNE01.JPG,AFNE01.JPG,AFNE01.JPG,AFNE01.JPG,,,,,,,,,,,,,,,,,1,6,16,1,,,,,,,AMSA06.jpg,AMNE12.jpg,AMNE19.jpg,AMSA20.jpg,AMSA20.jpg,MS,2,num_4,16,num_4,0.816801211375,,,2017_Apr_18_1326,59.996670912,MAFE4ImagesEEG,001,100232,
AFNE01.JPG,AFNE01.JPG,AFNE01.JPG,AFNE01.JPG,AFNE01.JPG,AFNE01.JPG,,,,,,,,,,,,,,,,,1,7,17,7,,,,,,,AMSA02.jpg,AMSA08.jpg,AMNE19.jpg,AMNE18.jpg,AMSA02.jpg,MS,2,num_8,16,num_8,0.966781052906,,,2017_Apr_18_1326,59.996670912,MAFE4ImagesEEG,001,100232,
AFNE01.JPG,AFNE01.JPG,AFNE01.JPG,AFNE01.JPG,AFNE01.JPG,AFNE01.JPG,,,,,,,,,,,,,,,,,1,8,18,0,,,,,,,AMSA17.jpg,AMNE16.jpg,AMSA03.jpg,AMNE18.jpg,AMSA17.jpg,MS,2,num_8,16,num_8,1.41675842478,,,2017_Apr_18_1326,59.996670912,MAFE4ImagesEEG,001,100232,
AFNE01.JPG,AFNE01.JPG,AFNE01.JPG,AFNE01.JPG,AFNE01.JPG,AFNE01.JPG,,,,,,,,,,,,,,,,,1,9,19,9,,,,,,,AMSA02.jpg,AMSA03.jpg,AMNE18.jpg,AMNE15.jpg,AMSA03.jpg,MS,2,num_6,16,num_6,0.833474832732,,,2017_Apr_18_1326,59.996670912,MAFE4ImagesEEG,001,100232,
AFNE01.JPG,AFNE01.JPG,AFNE01.JPG,AFNE01.JPG,AFNE01.JPG,AFNE01.JPG,,,,,,,,,,,,,,,,,2,0,20,5,,,,,,,AMSA13.jpg,AMNE07.jpg,AMNE10.jpg,AMSA10.jpg,AMNE10.jpg,MN,1,num_2,16,num_2,1.03345661474,,,2017_Apr_18_1326,59.996670912,MAFE4ImagesEEG,001,100232,
AFNE01.JPG,AFNE01.JPG,AFNE01.JPG,AFNE01.JPG,AFNE01.JPG,AFNE01.JPG,,,,,,,,,,,,,,,,,2,1,21,2,,,,,,,AMSA15.jpg,AMNE03.jpg,AMNE12.jpg,AMSA14.jpg,AMNE12.jpg,MN,1,num_2,32,num_8,0.816738987982,,,2017_Apr_18_1326,59.996670912,MAFE4ImagesEEG,001,100232,
AFNE01.JPG,AFNE01.JPG,AFNE01.JPG,AFNE01.JPG,AFNE01.JPG,AFNE01.JPG,,,,,,,,,,,,,,,,,2,2,22,9,,,,,,,AMNE13.jpg,AMNE12.jpg,AMSA13.jpg,AMSA20.jpg,AMSA20.jpg,MS,2,num_4,16,num_4,0.650145503285,,,2017_Apr_18_1326,59.996670912,MAFE4ImagesEEG,001,100232,
AFNE01.JPG,AFNE01.JPG,AFNE01.JPG,AFNE01.JPG,AFNE01.JPG,AFNE01.JPG,,,,,,,,,,,,,,,,,2,3,23,1,,,,,,,AMNE15.jpg,AMSA15.jpg,AMNE18.jpg,AMSA04.jpg,AMNE15.jpg,MN,1,num_8,16,num_8,1.03343865335,,,2017_Apr_18_1326,59.996670912,MAFE4ImagesEEG,001,100232,
AFNE01.JPG,AFNE01.JPG,AFNE01.JPG,AFNE01.JPG,AFNE01.JPG,AFNE01.JPG,,,,,,,,,,,,,,,,,2,4,24,0,,,,,,,AMNE10.jpg,AMSA03.jpg,AMSA02.jpg,AMNE14.jpg,AMSA02.jpg,MS,2,num_2,32,num_6,0.700112162463,,,2017_Apr_18_1326,59.996670912,MAFE4ImagesEEG,001,100232,
AFNE01.JPG,AFNE01.JPG,AFNE01.JPG,AFNE01.JPG,AFNE01.JPG,AFNE01.JPG,,,,,,,,,,,,,,,,,2,5,25,8,,,,,,,AMSA11.jpg,AMNE15.jpg,AMNE03.jpg,AMSA01.jpg,AMSA11.jpg,MS,2,num_8,32,num_6,0.816768816716,,,2017_Apr_18_1326,59.996670912,MAFE4ImagesEEG,001,100232,
AFNE01.JPG,AFNE01.JPG,AFNE01.JPG,AFNE01.JPG,AFNE01.JPG,AFNE01.JPG,,,,,,,,,,,,,,,,,2,6,26,3,,,,,,,AMNE17.jpg,AMSA11.jpg,AMNE06.jpg,AMSA06.jpg,AMNE17.jpg,MN,1,num_8,16,num_8,0.81680506024,,,2017_Apr_18_1326,59.996670912,MAFE4ImagesEEG,001,100232,
AFNE01.JPG,AFNE01.JPG,AFNE01.JPG,AFNE01.JPG,AFNE01.JPG,AFNE01.JPG,,,,,,,,,,,,,,,,,2,7,27,7,,,,,,,AMNE07.jpg,AMNE01.jpg,AMSA03.jpg,AMSA13.jpg,AMSA03.jpg,MS,2,num_2,16,num_2,1.08356119173,,,2017_Apr_18_1326,59.996670912,MAFE4ImagesEEG,001,100232,
AFNE01.JPG,AFNE01.JPG,AFNE01.JPG,AFNE01.JPG,AFNE01.JPG,AFNE01.JPG,,,,,,,,,,,,,,,,,2,8,28,6,,,,,,,AMNE07.jpg,AMSA16.jpg,AMNE06.jpg,AMSA08.jpg,AMNE07.jpg,MN,1,num_8,16,num_8,1.05013857532,,,2017_Apr_18_1326,59.996670912,MAFE4ImagesEEG,001,100232,
AFNE01.JPG,AFNE01.JPG,AFNE01.JPG,AFNE01.JPG,AFNE01.JPG,AFNE01.JPG,,,,,,,,,,,,,,,,,2,9,29,4,,,,,,,AMSA14.jpg,AMSA20.jpg,AMNE05.jpg,AMNE01.jpg,AMNE05.jpg,MN,1,num_2,32,num_4,1.35020634749,,,2017_Apr_18_1326,59.996670912,MAFE4ImagesEEG,001,100232,
AFNE01.JPG,AFNE01.JPG,AFNE01.JPG,AFNE01.JPG,AFNE01.JPG,AFNE01.JPG,,,,,,,,,,,,,,,,,3,0,30,0,,,,,,,AMNE04.jpg,AMSA15.jpg,AMNE10.jpg,AMSA04.jpg,AMSA15.jpg,MS,2,num_6,16,num_6,0.683489859366,,,2017_Apr_18_1326,59.996670912,MAFE4ImagesEEG,001,100232,
AFNE01.JPG,AFNE01.JPG,AFNE01.JPG,AFNE01.JPG,AFNE01.JPG,AFNE01.JPG,,,,,,,,,,,,,,,,,3,1,31,3,,,,,,,AMSA17.jpg,AMNE06.jpg,AMNE03.jpg,AMSA07.jpg,AMSA07.jpg,MS,2,num_4,16,num_4,0.616801788696,,,2017_Apr_18_1326,59.996670912,MAFE4ImagesEEG,001,100232,
AFNE01.JPG,AFNE01.JPG,AFNE01.JPG,AFNE01.JPG,AFNE01.JPG,AFNE01.JPG,,,,,,,,,,,,,,,,,3,2,32,1,,,,,,,AMSA11.jpg,AMSA12.jpg,AMNE10.jpg,AMNE02.jpg,AMNE02.jpg,MN,1,num_4,32,num_8,1.03372667705,,,2017_Apr_18_1326,59.996670912,MAFE4ImagesEEG,001,100232,
AFNE01.JPG,AFNE01.JPG,AFNE01.JPG,AFNE01.JPG,AFNE01.JPG,AFNE01.JPG,,,,,,,,,,,,,,,,,3,3,33,5,,,,,,,AMSA13.jpg,AMNE12.jpg,AMNE06.jpg,AMSA09.jpg,AMSA13.jpg,MS,2,num_8,16,num_8,0.833455588378,,,2017_Apr_18_1326,59.996670912,MAFE4ImagesEEG,001,100232,
AFNE01.JPG,AFNE01.JPG,AFNE01.JPG,AFNE01.JPG,AFNE01.JPG,AFNE01.JPG,,,,,,,,,,,,,,,,,3,4,34,9,,,,,,,AMSA10.jpg,AMNE10.jpg,AMSA19.jpg,AMNE01.jpg,AMNE10.jpg,MN,1,num_6,16,num_6,1.48344906134,,,2017_Apr_18_1326,59.996670912,MAFE4ImagesEEG,001,100232,
AFNE01.JPG,AFNE01.JPG,AFNE01.JPG,AFNE01.JPG,AFNE01.JPG,AFNE01.JPG,,,,,,,,,,,,,,,,,3,5,35,8,,,,,,,AMSA11.jpg,AMNE18.jpg,AMSA17.jpg,AMNE08.jpg,AMNE18.jpg,MN,1,num_6,32,num_4,1.18343517334,,,2017_Apr_18_1326,59.996670912,MAFE4ImagesEEG,001,100232,
AFNE01.JPG,AFNE01.JPG,AFNE01.JPG,AFNE01.JPG,AFNE01.JPG,AFNE01.JPG,,,,,,,,,,,,,,,,,3,6,36,4,,,,,,,AMSA02.jpg,AMNE20.jpg,AMNE11.jpg,AMSA07.jpg,AMNE20.jpg,MN,1,num_6,32,num_4,1.23344288711,,,2017_Apr_18_1326,59.996670912,MAFE4ImagesEEG,001,100232,
AFNE01.JPG,AFNE01.JPG,AFNE01.JPG,AFNE01.JPG,AFNE01.JPG,AFNE01.JPG,,,,,,,,,,,,,,,,,3,7,37,6,,,,,,,AMNE16.jpg,AMNE18.jpg,AMSA13.jpg,AMSA03.jpg,AMNE16.jpg,MN,1,num_8,16,num_8,1.26672277463,,,2017_Apr_18_1326,59.996670912,MAFE4ImagesEEG,001,100232,
AFNE01.JPG,AFNE01.JPG,AFNE01.JPG,AFNE01.JPG,AFNE01.JPG,AFNE01.JPG,,,,,,,,,,,,,,,,,3,8,38,2,,,,,,,AMSA04.jpg,AMNE12.jpg,AMSA18.jpg,AMNE11.jpg,AMNE12.jpg,MN,1,num_6,32,num_4,1.1667240255,,,2017_Apr_18_1326,59.996670912,MAFE4ImagesEEG,001,100232,
AFNE01.JPG,AFNE01.JPG,AFNE01.JPG,AFNE01.JPG,AFNE01.JPG,AFNE01.JPG,,,,,,,,,,,,,,,,,3,9,39,7,,,,,,,AMSA08.jpg,AMNE20.jpg,AMNE17.jpg,AMSA07.jpg,AMNE20.jpg,MN,1,num_6,16,num_6,0.466793401371,,,2017_Apr_18_1326,59.996670912,MAFE4ImagesEEG,001,100232,
AFNE01.JPG,AFNE01.JPG,AFNE01.JPG,AFNE01.JPG,AFNE01.JPG,AFNE01.JPG,,,,,,,,,,,,,,,,,4,0,40,8,,,,,,,AMSA02.jpg,AMNE12.jpg,AMNE14.jpg,AMSA12.jpg,AMSA12.jpg,MS,2,num_4,32,num_8,0.883475810988,,,2017_Apr_18_1326,59.996670912,MAFE4ImagesEEG,001,100232,
AFNE01.JPG,AFNE01.JPG,AFNE01.JPG,AFNE01.JPG,AFNE01.JPG,AFNE01.JPG,,,,,,,,,,,,,,,,,4,1,41,3,,,,,,,AMSA08.jpg,AMNE20.jpg,AMNE08.jpg,AMSA18.jpg,AMSA18.jpg,MS,2,num_4,16,num_4,0.633527369791,,,2017_Apr_18_1326,59.996670912,MAFE4ImagesEEG,001,100232,
AFNE01.JPG,AFNE01.JPG,AFNE01.JPG,AFNE01.JPG,AFNE01.JPG,AFNE01.JPG,,,,,,,,,,,,,,,,,4,2,42,6,,,,,,,AMNE03.jpg,AMSA20.jpg,AMNE07.jpg,AMSA19.jpg,AMSA19.jpg,MS,2,num_4,32,num_8,1.08343770719,,,2017_Apr_18_1326,59.996670912,MAFE4ImagesEEG,001,100232,
AFNE01.JPG,AFNE01.JPG,AFNE01.JPG,AFNE01.JPG,AFNE01.JPG,AFNE01.JPG,,,,,,,,,,,,,,,,,4,3,43,5,,,,,,,AMNE16.jpg,AMSA08.jpg,AMSA03.jpg,AMNE20.jpg,AMSA03.jpg,MS,2,num_2,16,num_2,2.98329911582,,,2017_Apr_18_1326,59.996670912,MAFE4ImagesEEG,001,100232,
AFNE01.JPG,AFNE01.JPG,AFNE01.JPG,AFNE01.JPG,AFNE01.JPG,AFNE01.JPG,,,,,,,,,,,,,,,,,4,4,44,2,,,,,,,AMNE03.jpg,AMSA17.jpg,AMSA12.jpg,AMNE05.jpg,AMNE03.jpg,MN,1,num_8,16,num_8,2.41662018622,,,2017_Apr_18_1326,59.996670912,MAFE4ImagesEEG,001,100232,
AFNE01.JPG,AFNE01.JPG,AFNE01.JPG,AFNE01.JPG,AFNE01.JPG,AFNE01.JPG,,,,,,,,,,,,,,,,,4,5,45,7,,,,,,,AMNE12.jpg,AMSA01.jpg,AMSA10.jpg,AMNE19.jpg,AMNE12.jpg,MN,1,num_8,16,num_8,0.716804386684,,,2017_Apr_18_1326,59.996670912,MAFE4ImagesEEG,001,100232,
AFNE01.JPG,AFNE01.JPG,AFNE01.JPG,AFNE01.JPG,AFNE01.JPG,AFNE01.JPG,,,,,,,,,,,,,,,,,4,6,46,9,,,,,,,AMSA09.jpg,AMSA15.jpg,AMNE12.jpg,AMNE08.jpg,AMNE12.jpg,MN,1,num_2,32,num_4,1.18348841602,,,2017_Apr_18_1326,59.996670912,MAFE4ImagesEEG,001,100232,
AFNE01.JPG,AFNE01.JPG,AFNE01.JPG,AFNE01.JPG,AFNE01.JPG,AFNE01.JPG,,,,,,,,,,,,,,,,,4,7,47,1,,,,,,,AMSA07.jpg,AMNE14.jpg,AMNE05.jpg,AMSA11.jpg,AMNE05.jpg,MN,1,num_2,32,num_4,1.23343198199,,,2017_Apr_18_1326,59.996670912,MAFE4ImagesEEG,001,100232,
AFNE01.JPG,AFNE01.JPG,AFNE01.JPG,AFNE01.JPG,AFNE01.JPG,AFNE01.JPG,,,,,,,,,,,,,,,,,4,8,48,4,,,,,,,AMNE04.jpg,AMNE09.jpg,AMSA04.jpg,AMSA18.jpg,AMSA18.jpg,MS,2,num_4,32,num_2,0.866789680789,,,2017_Apr_18_1326,59.996670912,MAFE4ImagesEEG,001,100232,
AFNE01.JPG,AFNE01.JPG,AFNE01.JPG,AFNE01.JPG,AFNE01.JPG,AFNE01.JPG,,,,,,,,,,,,,,,,,4,9,49,0,,,,,,,AMNE05.jpg,AMSA06.jpg,AMNE10.jpg,AMSA10.jpg,AMNE05.jpg,MN,1,num_8,32,num_4,0.816820134976,,,2017_Apr_18_1326,59.996670912,MAFE4ImagesEEG,001,100232,
AFNE01.JPG,AFNE01.JPG,AFNE01.JPG,AFNE01.JPG,AFNE01.JPG,AFNE01.JPG,,,,,,,,,,,,,,,,,5,0,50,0,,,,,,,AMSA13.jpg,AMSA20.jpg,AMNE02.jpg,AMNE09.jpg,AMSA20.jpg,MS,2,num_6,16,num_6,0.66689064946,,,2017_Apr_18_1326,59.996670912,MAFE4ImagesEEG,001,100232,
AFNE01.JPG,AFNE01.JPG,AFNE01.JPG,AFNE01.JPG,AFNE01.JPG,AFNE01.JPG,,,,,,,,,,,,,,,,,5,1,51,6,,,,,,,AMNE13.jpg,AMSA17.jpg,AMSA11.jpg,AMNE12.jpg,AMSA17.jpg,MS,2,num_6,32,num_4,1.00010808907,,,2017_Apr_18_1326,59.996670912,MAFE4ImagesEEG,001,100232,
AFNE01.JPG,AFNE01.JPG,AFNE01.JPG,AFNE01.JPG,AFNE01.JPG,AFNE01.JPG,,,,,,,,,,,,,,,,,5,2,52,9,,,,,,,AMNE04.jpg,AMNE11.jpg,AMSA09.jpg,AMSA06.jpg,AMNE04.jpg,MN,1,num_8,16,num_8,1.06677370799,,,2017_Apr_18_1326,59.996670912,MAFE4ImagesEEG,001,100232,
AFNE01.JPG,AFNE01.JPG,AFNE01.JPG,AFNE01.JPG,AFNE01.JPG,AFNE01.JPG,,,,,,,,,,,,,,,,,5,3,53,8,,,,,,,AMNE19.jpg,AMSA09.jpg,AMNE16.jpg,AMSA18.jpg,AMSA09.jpg,MS,2,num_6,16,num_6,0.616692416676,,,2017_Apr_18_1326,59.996670912,MAFE4ImagesEEG,001,100232,
AFNE01.JPG,AFNE01.JPG,AFNE01.JPG,AFNE01.JPG,AFNE01.JPG,AFNE01.JPG,,,,,,,,,,,,,,,,,5,4,54,2,,,,,,,AMNE16.jpg,AMSA11.jpg,AMSA18.jpg,AMNE02.jpg,AMSA11.jpg,MS,2,num_6,32,num_2,2.40014317792,,,2017_Apr_18_1326,59.996670912,MAFE4ImagesEEG,001,100232,
AFNE01.JPG,AFNE01.JPG,AFNE01.JPG,AFNE01.JPG,AFNE01.JPG,AFNE01.JPG,,,,,,,,,,,,,,,,,5,5,55,4,,,,,,,AMSA10.jpg,AMSA03.jpg,AMNE17.jpg,AMNE10.jpg,AMSA10.jpg,MS,2,num_8,32,num_2,1.48342051556,,,2017_Apr_18_1326,59.996670912,MAFE4ImagesEEG,001,100232,
AFNE01.JPG,AFNE01.JPG,AFNE01.JPG,AFNE01.JPG,AFNE01.JPG,AFNE01.JPG,,,,,,,,,,,,,,,,,5,6,56,7,,,,,,,AMNE11.jpg,AMNE09.jpg,AMSA17.jpg,AMSA15.jpg,AMNE09.jpg,MN,1,num_6,32,num_8,1.01675316464,,,2017_Apr_18_1326,59.996670912,MAFE4ImagesEEG,001,100232,
AFNE01.JPG,AFNE01.JPG,AFNE01.JPG,AFNE01.JPG,AFNE01.JPG,AFNE01.JPG,,,,,,,,,,,,,,,,,5,7,57,5,,,,,,,AMSA01.jpg,AMNE07.jpg,AMSA20.jpg,AMNE15.jpg,AMNE07.jpg,MN,1,num_6,32,num_8,1.15013828667,,,2017_Apr_18_1326,59.996670912,MAFE4ImagesEEG,001,100232,
AFNE01.JPG,AFNE01.JPG,AFNE01.JPG,AFNE01.JPG,AFNE01.JPG,AFNE01.JPG,,,,,,,,,,,,,,,,,5,8,58,1,,,,,,,AMNE03.jpg,AMSA13.jpg,AMNE14.jpg,AMSA08.jpg,AMNE14.jpg,MN,1,num_2,32,num_8,1.01678171042,,,2017_Apr_18_1326,59.996670912,MAFE4ImagesEEG,001,100232,
AFNE01.JPG,AFNE01.JPG,AFNE01.JPG,AFNE01.JPG,AFNE01.JPG,AFNE01.JPG,,,,,,,,,,,,,,,,,5,9,59,3,,,,,,,AMSA04.jpg,AMNE01.jpg,AMNE14.jpg,AMSA02.jpg,AMSA02.jpg,MS,2,num_4,32,num_2,1.18348585011,,,2017_Apr_18_1326,59.996670912,MAFE4ImagesEEG,001,100232,
,,,,,,,,,,,,,,,,,,,,,,,,,,,,,,,,,,,,,,,,,,,space,29.5478278106,2017_Apr_18_1326,59.996670912,MAFE4ImagesEEG,001,100232,
AFNE01.JPG,AFNE01.JPG,AFNE01.JPG,AFNE01.JPG,AFNE01.JPG,AFNE01.JPG,,,,,,,,,,,,,,,,,,,,,0,0,0,6,,,AFSA03.jpg,AFNE13.jpg,AFSA20.jpg,AFNE14.jpg,AFSA03.jpg,FS,4,num_8,16,num_8,1.0668205359,,,2017_Apr_18_1326,59.996670912,MAFE4ImagesEEG,001,100232,
AFNE01.JPG,AFNE01.JPG,AFNE01.JPG,AFNE01.JPG,AFNE01.JPG,AFNE01.JPG,,,,,,,,,,,,,,,,,,,,,0,1,1,0,,,AFSA14.jpg,AFNE14.jpg,AFNE08.jpg,AFSA04.jpg,AFNE14.jpg,FN,3,num_6,16,num_6,0.766669692312,,,2017_Apr_18_1326,59.996670912,MAFE4ImagesEEG,001,100232,
AFNE01.JPG,AFNE01.JPG,AFNE01.JPG,AFNE01.JPG,AFNE01.JPG,AFNE01.JPG,,,,,,,,,,,,,,,,,,,,,0,2,2,5,,,AFNE02.jpg,AFSA09.jpg,AFNE19.jpg,AFSA18.jpg,AFNE19.jpg,FN,3,num_2,16,num_2,0.80014875879,,,2017_Apr_18_1326,59.996670912,MAFE4ImagesEEG,001,100232,
AFNE01.JPG,AFNE01.JPG,AFNE01.JPG,AFNE01.JPG,AFNE01.JPG,AFNE01.JPG,,,,,,,,,,,,,,,,,,,,,0,3,3,9,,,AFSA05.jpg,AFNE12.jpg,AFSA03.jpg,AFNE18.jpg,AFNE12.jpg,FN,3,num_6,32,num_8,0.866797699273,,,2017_Apr_18_1326,59.996670912,MAFE4ImagesEEG,001,100232,
AFNE01.JPG,AFNE01.JPG,AFNE01.JPG,AFNE01.JPG,AFNE01.JPG,AFNE01.JPG,,,,,,,,,,,,,,,,,,,,,0,4,4,3,,,AFSA03.jpg,AFNE04.jpg,AFSA15.jpg,AFNE20.jpg,AFNE20.jpg,FN,3,num_4,16,num_4,1.31682735161,,,2017_Apr_18_1326,59.996670912,MAFE4ImagesEEG,001,100232,
AFNE01.JPG,AFNE01.JPG,AFNE01.JPG,AFNE01.JPG,AFNE01.JPG,AFNE01.JPG,,,,,,,,,,,,,,,,,,,,,0,5,5,1,,,AFNE02.jpg,AFNE06.jpg,AFSA09.jpg,AFSA13.jpg,AFSA13.jpg,FS,4,num_4,32,num_8,1.06672784231,,,2017_Apr_18_1326,59.996670912,MAFE4ImagesEEG,001,100232,
AFNE01.JPG,AFNE01.JPG,AFNE01.JPG,AFNE01.JPG,AFNE01.JPG,AFNE01.JPG,,,,,,,,,,,,,,,,,,,,,0,6,6,2,,,AFSA13.jpg,AFSA12.jpg,AFNE15.jpg,AFNE17.jpg,AFSA13.jpg,FS,4,num_8,16,num_8,1.23343967971,,,2017_Apr_18_1326,59.996670912,MAFE4ImagesEEG,001,100232,
AFNE01.JPG,AFNE01.JPG,AFNE01.JPG,AFNE01.JPG,AFNE01.JPG,AFNE01.JPG,,,,,,,,,,,,,,,,,,,,,0,7,7,4,,,AFNE13.jpg,AFSA15.jpg,AFNE05.jpg,AFSA10.jpg,AFNE13.jpg,FN,3,num_8,32,num_4,1.11673363164,,,2017_Apr_18_1326,59.996670912,MAFE4ImagesEEG,001,100232,
AFNE01.JPG,AFNE01.JPG,AFNE01.JPG,AFNE01.JPG,AFNE01.JPG,AFNE01.JPG,,,,,,,,,,,,,,,,,,,,,0,8,8,8,,,AFSA20.jpg,AFSA18.jpg,AFNE18.jpg,AFNE04.jpg,AFNE18.jpg,FN,3,num_2,32,num_4,0.850225752205,,,2017_Apr_18_1326,59.996670912,MAFE4ImagesEEG,001,100232,
AFNE01.JPG,AFNE01.JPG,AFNE01.JPG,AFNE01.JPG,AFNE01.JPG,AFNE01.JPG,,,,,,,,,,,,,,,,,,,,,0,9,9,7,,,AFNE08.jpg,AFNE09.jpg,AFSA15.jpg,AFSA08.jpg,AFNE08.jpg,FN,3,num_8,16,num_8,1.01675027801,,,2017_Apr_18_1326,59.996670912,MAFE4ImagesEEG,001,100232,
AFNE01.JPG,AFNE01.JPG,AFNE01.JPG,AFNE01.JPG,AFNE01.JPG,AFNE01.JPG,,,,,,,,,,,,,,,,,,,,,1,0,10,3,,,AFNE03.jpg,AFNE04.jpg,AFSA17.jpg,AFSA01.jpg,AFNE03.jpg,FN,3,num_8,16,num_8,0.783486684042,,,2017_Apr_18_1326,59.996670912,MAFE4ImagesEEG,001,100232,
AFNE01.JPG,AFNE01.JPG,AFNE01.JPG,AFNE01.JPG,AFNE01.JPG,AFNE01.JPG,,,,,,,,,,,,,,,,,,,,,1,1,11,6,,,AFNE06.jpg,AFNE15.jpg,AFSA01.jpg,AFSA08.jpg,AFSA01.jpg,FS,4,num_2,32,num_8,0.716742804769,,,2017_Apr_18_1326,59.996670912,MAFE4ImagesEEG,001,100232,
AFNE01.JPG,AFNE01.JPG,AFNE01.JPG,AFNE01.JPG,AFNE01.JPG,AFNE01.JPG,,,,,,,,,,,,,,,,,,,,,1,2,12,7,,,AFNE14.jpg,AFNE17.jpg,AFSA05.jpg,AFSA04.jpg,AFNE14.jpg,FN,3,num_8,16,num_8,1.01676888087,,,2017_Apr_18_1326,59.996670912,MAFE4ImagesEEG,001,100232,
AFNE01.JPG,AFNE01.JPG,AFNE01.JPG,AFNE01.JPG,AFNE01.JPG,AFNE01.JPG,,,,,,,,,,,,,,,,,,,,,1,3,13,9,,,AFNE18.jpg,AFNE03.jpg,AFSA14.jpg,AFSA20.jpg,AFSA20.jpg,FS,4,num_4,16,num_4,0.95014944837,,,2017_Apr_18_1326,59.996670912,MAFE4ImagesEEG,001,100232,
AFNE01.JPG,AFNE01.JPG,AFNE01.JPG,AFNE01.JPG,AFNE01.JPG,AFNE01.JPG,,,,,,,,,,,,,,,,,,,,,1,4,14,4,,,AFNE11.jpg,AFSA13.jpg,AFSA07.jpg,AFNE13.jpg,AFNE11.jpg,FN,3,num_8,32,num_6,0.883458491066,,,2017_Apr_18_1326,59.996670912,MAFE4ImagesEEG,001,100232,
AFNE01.JPG,AFNE01.JPG,AFNE01.JPG,AFNE01.JPG,AFNE01.JPG,AFNE01.JPG,,,,,,,,,,,,,,,,,,,,,1,5,15,0,,,AFNE09.jpg,AFSA13.jpg,AFSA06.jpg,AFNE18.jpg,AFNE09.jpg,FN,3,num_8,16,num_8,0.733462291828,,,2017_Apr_18_1326,59.996670912,MAFE4ImagesEEG,001,100232,
AFNE01.JPG,AFNE01.JPG,AFNE01.JPG,AFNE01.JPG,AFNE01.JPG,AFNE01.JPG,,,,,,,,,,,,,,,,,,,,,1,6,16,2,,,AFNE20.jpg,AFSA01.jpg,AFSA04.jpg,AFNE15.jpg,AFNE15.jpg,FN,3,num_4,16,num_4,0.966672001625,,,2017_Apr_18_1326,59.996670912,MAFE4ImagesEEG,001,100232,
AFNE01.JPG,AFNE01.JPG,AFNE01.JPG,AFNE01.JPG,AFNE01.JPG,AFNE01.JPG,,,,,,,,,,,,,,,,,,,,,1,7,17,1,,,AFSA05.jpg,AFNE05.jpg,AFNE09.jpg,AFSA17.jpg,AFSA05.jpg,FS,4,num_8,16,num_8,0.883530978113,,,2017_Apr_18_1326,59.996670912,MAFE4ImagesEEG,001,100232,
AFNE01.JPG,AFNE01.JPG,AFNE01.JPG,AFNE01.JPG,AFNE01.JPG,AFNE01.JPG,,,,,,,,,,,,,,,,,,,,,1,8,18,5,,,AFSA13.jpg,AFSA20.jpg,AFNE01.jpg,AFNE12.jpg,AFSA20.jpg,FS,4,num_6,16,num_6,0.533604635828,,,2017_Apr_18_1326,59.996670912,MAFE4ImagesEEG,001,100232,
AFNE01.JPG,AFNE01.JPG,AFNE01.JPG,AFNE01.JPG,AFNE01.JPG,AFNE01.JPG,,,,,,,,,,,,,,,,,,,,,1,9,19,8,,,AFNE08.jpg,AFNE07.jpg,AFSA13.jpg,AFSA01.jpg,AFSA13.jpg,FS,4,num_2,16,num_2,0.816780042587,,,2017_Apr_18_1326,59.996670912,MAFE4ImagesEEG,001,100232,
AFNE01.JPG,AFNE01.JPG,AFNE01.JPG,AFNE01.JPG,AFNE01.JPG,AFNE01.JPG,,,,,,,,,,,,,,,,,,,,,2,0,20,6,,,AFSA18.jpg,AFNE14.jpg,AFNE04.jpg,AFSA11.jpg,AFNE14.jpg,FN,3,num_6,16,num_6,1.10011229075,,,2017_Apr_18_1326,59.996670912,MAFE4ImagesEEG,001,100232,
AFNE01.JPG,AFNE01.JPG,AFNE01.JPG,AFNE01.JPG,AFNE01.JPG,AFNE01.JPG,,,,,,,,,,,,,,,,,,,,,2,1,21,0,,,AFNE02.jpg,AFSA14.jpg,AFNE04.jpg,AFSA07.jpg,AFNE04.jpg,FN,3,num_2,16,num_2,1.06676985911,,,2017_Apr_18_1326,59.996670912,MAFE4ImagesEEG,001,100232,
AFNE01.JPG,AFNE01.JPG,AFNE01.JPG,AFNE01.JPG,AFNE01.JPG,AFNE01.JPG,,,,,,,,,,,,,,,,,,,,,2,2,22,7,,,AFSA14.jpg,AFNE06.jpg,AFNE19.jpg,AFSA20.jpg,AFNE06.jpg,FN,3,num_6,32,num_8,0.833465210555,,,2017_Apr_18_1326,59.996670912,MAFE4ImagesEEG,001,100232,
AFNE01.JPG,AFNE01.JPG,AFNE01.JPG,AFNE01.JPG,AFNE01.JPG,AFNE01.JPG,,,,,,,,,,,,,,,,,,,,,2,3,23,2,,,AFSA17.jpg,AFNE01.jpg,AFNE16.jpg,AFSA12.jpg,AFNE16.jpg,FN,3,num_2,16,num_2,1.10000227725,,,2017_Apr_18_1326,59.996670912,MAFE4ImagesEEG,001,100232,
AFNE01.JPG,AFNE01.JPG,AFNE01.JPG,AFNE01.JPG,AFNE01.JPG,AFNE01.JPG,,,,,,,,,,,,,,,,,,,,,2,4,24,5,,,AFNE15.jpg,AFSA20.jpg,AFNE14.jpg,AFSA03.jpg,AFSA03.jpg,FS,4,num_4,16,num_4,1.26676703662,,,2017_Apr_18_1326,59.996670912,MAFE4ImagesEEG,001,100232,
AFNE01.JPG,AFNE01.JPG,AFNE01.JPG,AFNE01.JPG,AFNE01.JPG,AFNE01.JPG,,,,,,,,,,,,,,,,,,,,,2,5,25,8,,,AFNE20.jpg,AFSA09.jpg,AFSA20.jpg,AFNE14.jpg,AFSA20.jpg,FS,4,num_2,32,num_8,0.833495039289,,,2017_Apr_18_1326,59.996670912,MAFE4ImagesEEG,001,100232,
AFNE01.JPG,AFNE01.JPG,AFNE01.JPG,AFNE01.JPG,AFNE01.JPG,AFNE01.JPG,,,,,,,,,,,,,,,,,,,,,2,6,26,3,,,AFSA19.jpg,AFNE09.jpg,AFNE19.jpg,AFSA08.jpg,AFSA08.jpg,FS,4,num_4,16,num_4,0.800131438868,,,2017_Apr_18_1326,59.996670912,MAFE4ImagesEEG,001,100232,
AFNE01.JPG,AFNE01.JPG,AFNE01.JPG,AFNE01.JPG,AFNE01.JPG,AFNE01.JPG,,,,,,,,,,,,,,,,,,,,,2,7,27,9,,,AFNE07.jpg,AFNE19.jpg,AFSA05.jpg,AFSA08.jpg,AFSA08.jpg,FS,4,num_4,16,num_4,0.99999486818,,,2017_Apr_18_1326,59.996670912,MAFE4ImagesEEG,001,100232,
AFNE01.JPG,AFNE01.JPG,AFNE01.JPG,AFNE01.JPG,AFNE01.JPG,AFNE01.JPG,,,,,,,,,,,,,,,,,,,,,2,8,28,1,,,AFNE15.jpg,AFNE09.jpg,AFSA20.jpg,AFSA01.jpg,AFNE09.jpg,FN,3,num_6,16,num_6,0.933440866458,,,2017_Apr_18_1326,59.996670912,MAFE4ImagesEEG,001,100232,
AFNE01.JPG,AFNE01.JPG,AFNE01.JPG,AFNE01.JPG,AFNE01.JPG,AFNE01.JPG,,,,,,,,,,,,,,,,,,,,,2,9,29,4,,,AFNE13.jpg,AFSA02.jpg,AFSA19.jpg,AFNE17.jpg,AFSA19.jpg,FS,4,num_2,16,num_2,1.03327571791,,,2017_Apr_18_1326,59.996670912,MAFE4ImagesEEG,001,100232,
AFNE01.JPG,AFNE01.JPG,AFNE01.JPG,AFNE01.JPG,AFNE01.JPG,AFNE01.JPG,,,,,,,,,,,,,,,,,,,,,3,0,30,8,,,AFSA03.jpg,AFSA08.jpg,AFNE19.jpg,AFNE08.jpg,AFNE19.jpg,FN,3,num_2,16,num_2,0.750155157526,,,2017_Apr_18_1326,59.996670912,MAFE4ImagesEEG,001,100232,
AFNE01.JPG,AFNE01.JPG,AFNE01.JPG,AFNE01.JPG,AFNE01.JPG,AFNE01.JPG,,,,,,,,,,,,,,,,,,,,,3,1,31,5,,,AFSA11.jpg,AFNE02.jpg,AFSA13.jpg,AFNE11.jpg,AFNE11.jpg,FN,3,num_4,32,num_8,0.666864990329,,,2017_Apr_18_1326,59.996670912,MAFE4ImagesEEG,001,100232,
AFNE01.JPG,AFNE01.JPG,AFNE01.JPG,AFNE01.JPG,AFNE01.JPG,AFNE01.JPG,,,,,,,,,,,,,,,,,,,,,3,2,32,9,,,AFNE02.jpg,AFSA16.jpg,AFSA10.jpg,AFNE01.jpg,AFSA16.jpg,FS,4,num_6,16,num_6,0.98345691945,,,2017_Apr_18_1326,59.996670912,MAFE4ImagesEEG,001,100232,
AFNE01.JPG,AFNE01.JPG,AFNE01.JPG,AFNE01.JPG,AFNE01.JPG,AFNE01.JPG,,,,,,,,,,,,,,,,,,,,,3,3,33,2,,,AFNE05.jpg,AFSA17.jpg,AFNE09.jpg,AFSA16.jpg,AFSA16.jpg,FS,4,num_4,16,num_4,0.950106790086,,,2017_Apr_18_1326,59.996670912,MAFE4ImagesEEG,001,100232,
AFNE01.JPG,AFNE01.JPG,AFNE01.JPG,AFNE01.JPG,AFNE01.JPG,AFNE01.JPG,,,,,,,,,,,,,,,,,,,,,3,4,34,7,,,AFSA10.jpg,AFNE14.jpg,AFNE03.jpg,AFSA20.jpg,AFNE14.jpg,FN,3,num_6,32,num_8,1.13346594825,,,2017_Apr_18_1326,59.996670912,MAFE4ImagesEEG,001,100232,
AFNE01.JPG,AFNE01.JPG,AFNE01.JPG,AFNE01.JPG,AFNE01.JPG,AFNE01.JPG,,,,,,,,,,,,,,,,,,,,,3,5,35,1,,,AFSA07.jpg,AFSA13.jpg,AFNE02.jpg,AFNE16.jpg,AFNE16.jpg,FN,3,num_4,32,num_2,0.750168307844,,,2017_Apr_18_1326,59.996670912,MAFE4ImagesEEG,001,100232,
AFNE01.JPG,AFNE01.JPG,AFNE01.JPG,AFNE01.JPG,AFNE01.JPG,AFNE01.JPG,,,,,,,,,,,,,,,,,,,,,3,6,36,6,,,AFSA09.jpg,AFNE20.jpg,AFSA20.jpg,AFNE11.jpg,AFSA20.jpg,FS,4,num_2,16,num_2,0.616827447826,,,2017_Apr_18_1326,59.996670912,MAFE4ImagesEEG,001,100232,
AFNE01.JPG,AFNE01.JPG,AFNE01.JPG,AFNE01.JPG,AFNE01.JPG,AFNE01.JPG,,,,,,,,,,,,,,,,,,,,,3,7,37,3,,,AFNE12.jpg,AFNE03.jpg,AFSA19.jpg,AFSA01.jpg,AFNE03.jpg,FN,3,num_6,16,num_6,1.30006937587,,,2017_Apr_18_1326,59.996670912,MAFE4ImagesEEG,001,100232,
AFNE01.JPG,AFNE01.JPG,AFNE01.JPG,AFNE01.JPG,AFNE01.JPG,AFNE01.JPG,,,,,,,,,,,,,,,,,,,,,3,8,38,4,,,AFNE17.jpg,AFNE16.jpg,AFSA12.jpg,AFSA06.jpg,AFNE17.jpg,FN,3,num_8,16,num_8,1.06676151991,,,2017_Apr_18_1326,59.996670912,MAFE4ImagesEEG,001,100232,
AFNE01.JPG,AFNE01.JPG,AFNE01.JPG,AFNE01.JPG,AFNE01.JPG,AFNE01.JPG,,,,,,,,,,,,,,,,,,,,,3,9,39,0,,,AFNE12.jpg,AFSA17.jpg,AFNE04.jpg,AFSA20.jpg,AFNE12.jpg,FN,3,num_8,16,num_8,1.19973866179,,,2017_Apr_18_1326,59.996670912,MAFE4ImagesEEG,001,100232,
AFNE01.JPG,AFNE01.JPG,AFNE01.JPG,AFNE01.JPG,AFNE01.JPG,AFNE01.JPG,,,,,,,,,,,,,,,,,,,,,4,0,40,0,,,AFSA18.jpg,AFNE13.jpg,AFSA13.jpg,AFNE10.jpg,AFSA13.jpg,FS,4,num_2,32,num_6,1.05013119831,,,2017_Apr_18_1326,59.996670912,MAFE4ImagesEEG,001,100232,
