IPosition2,IPosition3,IPosition1,IPosition6,IPosition4,IPosition5,TrialsM1.thisRepN,TrialsM1.thisTrialN,TrialsM1.thisN,TrialsM1.thisIndex,TrialsF1.thisRepN,TrialsF1.thisTrialN,TrialsF1.thisN,TrialsF1.thisIndex,TrialsM2.thisRepN,TrialsM2.thisTrialN,TrialsM2.thisN,TrialsM2.thisIndex,TrialsF2.thisRepN,TrialsF2.thisTrialN,TrialsF2.thisN,TrialsF2.thisIndex,TrialsM3.thisRepN,TrialsM3.thisTrialN,TrialsM3.thisN,TrialsM3.thisIndex,TrialsF3.thisRepN,TrialsF3.thisTrialN,TrialsF3.thisN,TrialsF3.thisIndex,InstrKey_resp.keys,InstrKey_resp.rt,Image0 _Position,Image1 _Position,Image2 _Position,Image3 _Position,Center_image,condition,code,correct_answer,accuracy,Key_Resp.keys,Key_Resp.rt,BreakKey_resp.keys,BreakKey_resp.rt,date,frameRate,expName,session,participant,
,,,,,,,,,,,,,,,,,,,,,,,,,,,,,,space,42.5305383701,,,,,,,,,,,,,,2017_Apr_27_1206,60.0808387896,MAFE4ImagesEEG,001,100277,
AMNE23.JPG,AMNE24.JPG,AMNE22.JPG,AMSA24.JPG,AMSA22.JPG,AMSA23.JPG,0,0,0,9,,,,,,,,,,,,,,,,,,,,,,,AMNE18.jpg,AMSA02.jpg,AMNE15.jpg,AMSA11.jpg,AMNE15.jpg,MN,1,num_2,48,None,,,,2017_Apr_27_1206,60.0808387896,MAFE4ImagesEEG,001,100277,
AFSA25.JPG,AFNE24.JPG,AFSA24.JPG,AFNE21.JPG,AFSA21.JPG,AFNE25.JPG,0,1,1,2,,,,,,,,,,,,,,,,,,,,,,,AMSA16.jpg,AMNE13.jpg,AMNE03.jpg,AMSA14.jpg,AMNE13.jpg,MN,1,num_6,48,None,,,,2017_Apr_27_1206,60.0808387896,MAFE4ImagesEEG,001,100277,
AFNE22.JPG,AFSA24.JPG,AFSA22.JPG,AFNE25.JPG,AFNE24.JPG,AFSA25.JPG,0,2,2,6,,,,,,,,,,,,,,,,,,,,,,,AMNE01.jpg,AMSA10.jpg,AMNE10.jpg,AMSA19.jpg,AMNE10.jpg,MN,1,num_2,16,num_2,2.21661723545,,,2017_Apr_27_1206,60.0808387896,MAFE4ImagesEEG,001,100277,
AMNE22.JPG,AMSA24.JPG,AMSA22.JPG,AMNE25.JPG,AMNE24.JPG,AMSA25.JPG,0,3,3,7,,,,,,,,,,,,,,,,,,,,,,,AMSA05.jpg,AMNE05.jpg,AMSA15.jpg,AMNE09.jpg,AMSA15.jpg,MS,2,num_2,48,None,,,,2017_Apr_27_1206,60.0808387896,MAFE4ImagesEEG,001,100277,
AMSA21.JPG,AMNE22.JPG,AMNE21.JPG,AMSA23.JPG,AMSA22.JPG,AMNE23.JPG,0,4,4,1,,,,,,,,,,,,,,,,,,,,,,,AMNE06.jpg,AMNE07.jpg,AMSA13.jpg,AMSA20.jpg,AMNE07.jpg,MN,1,num_6,32,num_2,3.233320044,,,2017_Apr_27_1206,60.0808387896,MAFE4ImagesEEG,001,100277,
AMSA25.JPG,AMNE24.JPG,AMSA24.JPG,AMNE26.JPG,AMSA21.JPG,AMNE25.JPG,0,5,5,3,,,,,,,,,,,,,,,,,,,,,,,AMSA18.jpg,AMSA06.jpg,AMNE06.jpg,AMNE05.jpg,AMSA18.jpg,MS,2,num_8,48,None,,,,2017_Apr_27_1206,60.0808387896,MAFE4ImagesEEG,001,100277,
AFSA21.JPG,AFNE23.JPG,AFNE21.JPG,AFSA25.JPG,AFNE25.JPG,AFSA23.JPG,0,6,6,4,,,,,,,,,,,,,,,,,,,,,,,AMSA06.jpg,AMSA09.jpg,AMNE20.jpg,AMNE16.jpg,AMNE20.jpg,MN,1,num_2,48,None,,,,2017_Apr_27_1206,60.0808387896,MAFE4ImagesEEG,001,100277,
AMSA21.JPG,AMNE23.JPG,AMNE21.JPG,AMSA25.JPG,AMNE25.JPG,AMSA23.JPG,0,7,7,5,,,,,,,,,,,,,,,,,,,,,,,AMSA04.jpg,AMSA03.jpg,AMNE13.jpg,AMNE05.jpg,AMSA03.jpg,MS,2,num_6,48,None,,,,2017_Apr_27_1206,60.0808387896,MAFE4ImagesEEG,001,100277,
AFNE23.JPG,AFNE24.JPG,AFNE22.JPG,AFSA24.JPG,AFSA22.JPG,AFSA23.JPG,0,8,8,8,,,,,,,,,,,,,,,,,,,,,,,AMNE04.jpg,AMNE13.jpg,AMSA04.jpg,AMSA18.jpg,AMSA04.jpg,MS,2,num_2,48,None,,,,2017_Apr_27_1206,60.0808387896,MAFE4ImagesEEG,001,100277,
AFSA21.JPG,AFNE22.JPG,AFNE21.JPG,AFSA23.JPG,AFSA22.JPG,AFNE23.JPG,0,9,9,0,,,,,,,,,,,,,,,,,,,,,,,AMNE09.jpg,AMSA11.jpg,AMSA10.jpg,AMNE20.jpg,AMSA11.jpg,MS,2,num_6,32,num_2,2.65000084997,,,2017_Apr_27_1206,60.0808387896,MAFE4ImagesEEG,001,100277,
AFSA21.JPG,AFNE23.JPG,AFNE21.JPG,AFSA25.JPG,AFNE25.JPG,AFSA23.JPG,,,,,0,0,0,4,,,,,,,,,,,,,,,,,,,AFSA12.jpg,AFNE02.jpg,AFSA14.jpg,AFNE13.jpg,AFNE02.jpg,FN,3,num_6,48,None,,,,2017_Apr_27_1206,60.0808387896,MAFE4ImagesEEG,001,100277,
AFNE22.JPG,AFSA24.JPG,AFSA22.JPG,AFNE25.JPG,AFNE24.JPG,AFSA25.JPG,,,,,0,1,1,6,,,,,,,,,,,,,,,,,,,AFSA18.jpg,AFNE07.jpg,AFSA15.jpg,AFNE18.jpg,AFSA15.jpg,FS,4,num_2,16,num_2,3.2000000641,,,2017_Apr_27_1206,60.0808387896,MAFE4ImagesEEG,001,100277,
AMSA25.JPG,AMNE24.JPG,AMSA24.JPG,AMNE26.JPG,AMSA21.JPG,AMNE25.JPG,,,,,0,2,2,3,,,,,,,,,,,,,,,,,,,AFSA19.jpg,AFSA01.jpg,AFNE17.jpg,AFNE02.jpg,AFNE17.jpg,FN,3,num_2,48,None,,,,2017_Apr_27_1206,60.0808387896,MAFE4ImagesEEG,001,100277,
AMNE22.JPG,AMSA24.JPG,AMSA22.JPG,AMNE25.JPG,AMNE24.JPG,AMSA25.JPG,,,,,0,3,3,7,,,,,,,,,,,,,,,,,,,AFNE05.jpg,AFSA04.jpg,AFNE16.jpg,AFSA11.jpg,AFNE05.jpg,FN,3,num_8,32,num_4,4.91629896604,,,2017_Apr_27_1206,60.0808387896,MAFE4ImagesEEG,001,100277,
AFSA25.JPG,AFNE24.JPG,AFSA24.JPG,AFNE21.JPG,AFSA21.JPG,AFNE25.JPG,,,,,0,4,4,2,,,,,,,,,,,,,,,,,,,AFNE07.jpg,AFSA06.jpg,AFNE02.jpg,AFSA15.jpg,AFNE07.jpg,FN,3,num_8,48,None,,,,2017_Apr_27_1206,60.0808387896,MAFE4ImagesEEG,001,100277,
AMSA21.JPG,AMNE22.JPG,AMNE21.JPG,AMSA23.JPG,AMSA22.JPG,AMNE23.JPG,,,,,0,5,5,1,,,,,,,,,,,,,,,,,,,AFSA16.jpg,AFNE20.jpg,AFNE16.jpg,AFSA19.jpg,AFSA16.jpg,FS,4,num_8,48,None,,,,2017_Apr_27_1206,60.0808387896,MAFE4ImagesEEG,001,100277,
AMNE23.JPG,AMNE24.JPG,AMNE22.JPG,AMSA24.JPG,AMSA22.JPG,AMSA23.JPG,,,,,0,6,6,9,,,,,,,,,,,,,,,,,,,AFNE13.jpg,AFSA19.jpg,AFSA04.jpg,AFNE04.jpg,AFSA04.jpg,FS,4,num_2,48,None,,,,2017_Apr_27_1206,60.0808387896,MAFE4ImagesEEG,001,100277,
AMSA21.JPG,AMNE23.JPG,AMNE21.JPG,AMSA25.JPG,AMNE25.JPG,AMSA23.JPG,,,,,0,7,7,5,,,,,,,,,,,,,,,,,,,AFNE16.jpg,AFSA03.jpg,AFNE02.jpg,AFSA13.jpg,AFNE02.jpg,FN,3,num_2,48,None,,,,2017_Apr_27_1206,60.0808387896,MAFE4ImagesEEG,001,100277,
AFSA21.JPG,AFNE22.JPG,AFNE21.JPG,AFSA23.JPG,AFSA22.JPG,AFNE23.JPG,,,,,0,8,8,0,,,,,,,,,,,,,,,,,,,AFNE01.jpg,AFSA07.jpg,AFNE16.jpg,AFSA10.jpg,AFNE16.jpg,FN,3,num_2,32,num_4,1.98340880848,,,2017_Apr_27_1206,60.0808387896,MAFE4ImagesEEG,001,100277,
AFNE23.JPG,AFNE24.JPG,AFNE22.JPG,AFSA24.JPG,AFSA22.JPG,AFSA23.JPG,,,,,0,9,9,8,,,,,,,,,,,,,,,,,,,AFSA07.jpg,AFNE10.jpg,AFNE18.jpg,AFSA17.jpg,AFSA07.jpg,FS,4,num_8,32,num_2,1.81639579718,,,2017_Apr_27_1206,60.0808387896,MAFE4ImagesEEG,001,100277,
AMSA21.JPG,AMNE22.JPG,AMNE21.JPG,AMSA23.JPG,AMSA22.JPG,AMNE23.JPG,,,,,,,,,0,0,0,1,,,,,,,,,,,,,,,AMNE18.jpg,AMSA06.jpg,AMSA11.jpg,AMNE06.jpg,AMNE06.jpg,MN,1,num_4,16,num_4,3.79999993579,,,2017_Apr_27_1206,60.0808387896,MAFE4ImagesEEG,001,100277,
AMSA25.JPG,AMNE24.JPG,AMSA24.JPG,AMNE26.JPG,AMSA21.JPG,AMNE25.JPG,,,,,,,,,0,1,1,3,,,,,,,,,,,,,,,AMSA15.jpg,AMSA10.jpg,AMNE07.jpg,AMNE10.jpg,AMSA10.jpg,MS,2,num_6,32,num_2,3.20022810961,,,2017_Apr_27_1206,60.0808387896,MAFE4ImagesEEG,001,100277,
AFSA21.JPG,AFNE23.JPG,AFNE21.JPG,AFSA25.JPG,AFNE25.JPG,AFSA23.JPG,,,,,,,,,0,2,2,4,,,,,,,,,,,,,,,AMNE15.jpg,AMSA03.jpg,AMSA07.jpg,AMNE03.jpg,AMNE03.jpg,MN,1,num_4,32,num_2,4.04987107893,,,2017_Apr_27_1206,60.0808387896,MAFE4ImagesEEG,001,100277,
AFSA25.JPG,AFNE24.JPG,AFSA24.JPG,AFNE21.JPG,AFSA21.JPG,AFNE25.JPG,,,,,,,,,0,3,3,2,,,,,,,,,,,,,,,AMSA13.jpg,AMSA05.jpg,AMNE09.jpg,AMNE16.jpg,AMSA13.jpg,MS,2,num_8,32,num_4,2.9665777043,,,2017_Apr_27_1206,60.0808387896,MAFE4ImagesEEG,001,100277,
AFNE22.JPG,AFSA24.JPG,AFSA22.JPG,AFNE25.JPG,AFNE24.JPG,AFSA25.JPG,,,,,,,,,0,4,4,6,,,,,,,,,,,,,,,AMNE12.jpg,AMSA16.jpg,AMNE07.jpg,AMSA09.jpg,AMSA09.jpg,MS,2,num_4,48,None,,,,2017_Apr_27_1206,60.0808387896,MAFE4ImagesEEG,001,100277,
AFSA21.JPG,AFNE22.JPG,AFNE21.JPG,AFSA23.JPG,AFSA22.JPG,AFNE23.JPG,,,,,,,,,0,5,5,0,,,,,,,,,,,,,,,AMSA02.jpg,AMSA11.jpg,AMNE18.jpg,AMNE01.jpg,AMSA02.jpg,MS,2,num_8,32,num_4,2.4832845222,,,2017_Apr_27_1206,60.0808387896,MAFE4ImagesEEG,001,100277,
AFNE23.JPG,AFNE24.JPG,AFNE22.JPG,AFSA24.JPG,AFSA22.JPG,AFSA23.JPG,,,,,,,,,0,6,6,8,,,,,,,,,,,,,,,AMNE02.jpg,AMNE05.jpg,AMSA12.jpg,AMSA03.jpg,AMNE05.jpg,MN,1,num_6,48,None,,,,2017_Apr_27_1206,60.0808387896,MAFE4ImagesEEG,001,100277,
AMSA21.JPG,AMNE23.JPG,AMNE21.JPG,AMSA25.JPG,AMNE25.JPG,AMSA23.JPG,,,,,,,,,0,7,7,5,,,,,,,,,,,,,,,AMNE10.jpg,AMSA02.jpg,AMSA10.jpg,AMNE12.jpg,AMSA02.jpg,MS,2,num_6,32,num_2,1.53339872137,,,2017_Apr_27_1206,60.0808387896,MAFE4ImagesEEG,001,100277,
AMNE22.JPG,AMSA24.JPG,AMSA22.JPG,AMNE25.JPG,AMNE24.JPG,AMSA25.JPG,,,,,,,,,0,8,8,7,,,,,,,,,,,,,,,AMNE05.jpg,AMNE17.jpg,AMSA08.jpg,AMSA20.jpg,AMNE05.jpg,MN,1,num_8,48,None,,,,2017_Apr_27_1206,60.0808387896,MAFE4ImagesEEG,001,100277,
AMNE23.JPG,AMNE24.JPG,AMNE22.JPG,AMSA24.JPG,AMSA22.JPG,AMSA23.JPG,,,,,,,,,0,9,9,9,,,,,,,,,,,,,,,AMSA17.jpg,AMSA15.jpg,AMNE19.jpg,AMNE06.jpg,AMNE06.jpg,MN,1,num_4,16,num_4,1.66670205491,,,2017_Apr_27_1206,60.0808387896,MAFE4ImagesEEG,001,100277,
AMSA21.JPG,AMNE22.JPG,AMNE21.JPG,AMSA23.JPG,AMSA22.JPG,AMNE23.JPG,,,,,,,,,,,,,0,0,0,1,,,,,,,,,,,AFNE06.jpg,AFNE03.jpg,AFSA12.jpg,AFSA04.jpg,AFSA04.jpg,FS,4,num_4,48,None,,,,2017_Apr_27_1206,60.0808387896,MAFE4ImagesEEG,001,100277,
AFNE22.JPG,AFSA24.JPG,AFSA22.JPG,AFNE25.JPG,AFNE24.JPG,AFSA25.JPG,,,,,,,,,,,,,0,1,1,6,,,,,,,,,,,AFSA20.jpg,AFSA05.jpg,AFNE13.jpg,AFNE03.jpg,AFNE03.jpg,FN,3,num_4,48,None,,,,2017_Apr_27_1206,60.0808387896,MAFE4ImagesEEG,001,100277,
AMSA21.JPG,AMNE23.JPG,AMNE21.JPG,AMSA25.JPG,AMNE25.JPG,AMSA23.JPG,,,,,,,,,,,,,0,2,2,5,,,,,,,,,,,AFNE01.jpg,AFSA01.jpg,AFSA13.jpg,AFNE08.jpg,AFNE01.jpg,FN,3,num_8,48,None,,,,2017_Apr_27_1206,60.0808387896,MAFE4ImagesEEG,001,100277,
AFSA21.JPG,AFNE23.JPG,AFNE21.JPG,AFSA25.JPG,AFNE25.JPG,AFSA23.JPG,,,,,,,,,,,,,0,3,3,4,,,,,,,,,,,AFSA03.jpg,AFNE08.jpg,AFNE14.jpg,AFSA12.jpg,AFSA12.jpg,FS,4,num_4,16,num_4,2.44970313995,,,2017_Apr_27_1206,60.0808387896,MAFE4ImagesEEG,001,100277,
AFSA25.JPG,AFNE24.JPG,AFSA24.JPG,AFNE21.JPG,AFSA21.JPG,AFNE25.JPG,,,,,,,,,,,,,0,4,4,2,,,,,,,,,,,AFSA04.jpg,AFNE14.jpg,AFSA19.jpg,AFNE17.jpg,AFSA04.jpg,FS,4,num_8,48,None,,,,2017_Apr_27_1206,60.0808387896,MAFE4ImagesEEG,001,100277,
AMNE22.JPG,AMSA24.JPG,AMSA22.JPG,AMNE25.JPG,AMNE24.JPG,AMSA25.JPG,,,,,,,,,,,,,0,5,5,7,,,,,,,,,,,AFSA01.jpg,AFNE13.jpg,AFNE20.jpg,AFSA16.jpg,AFNE13.jpg,FN,3,num_6,32,num_2,2.63356842438,,,2017_Apr_27_1206,60.0808387896,MAFE4ImagesEEG,001,100277,
AFNE23.JPG,AFNE24.JPG,AFNE22.JPG,AFSA24.JPG,AFSA22.JPG,AFSA23.JPG,,,,,,,,,,,,,0,6,6,8,,,,,,,,,,,AFSA06.jpg,AFNE08.jpg,AFNE02.jpg,AFSA02.jpg,AFSA06.jpg,FS,4,num_8,48,None,,,,2017_Apr_27_1206,60.0808387896,MAFE4ImagesEEG,001,100277,
AMSA25.JPG,AMNE24.JPG,AMSA24.JPG,AMNE26.JPG,AMSA21.JPG,AMNE25.JPG,,,,,,,,,,,,,0,7,7,3,,,,,,,,,,,AFNE12.jpg,AFSA09.jpg,AFNE01.jpg,AFSA01.jpg,AFNE12.jpg,FN,3,num_8,48,None,,,,2017_Apr_27_1206,60.0808387896,MAFE4ImagesEEG,001,100277,
AFSA21.JPG,AFNE22.JPG,AFNE21.JPG,AFSA23.JPG,AFSA22.JPG,AFNE23.JPG,,,,,,,,,,,,,0,8,8,0,,,,,,,,,,,AFNE17.jpg,AFNE11.jpg,AFSA17.jpg,AFSA14.jpg,AFNE11.jpg,FN,3,num_6,32,num_2,3.03329464153,,,2017_Apr_27_1206,60.0808387896,MAFE4ImagesEEG,001,100277,
AMNE23.JPG,AMNE24.JPG,AMNE22.JPG,AMSA24.JPG,AMSA22.JPG,AMSA23.JPG,,,,,,,,,,,,,0,9,9,9,,,,,,,,,,,AFNE20.jpg,AFNE13.jpg,AFSA04.jpg,AFSA05.jpg,AFSA04.jpg,FS,4,num_2,48,None,,,,2017_Apr_27_1206,60.0808387896,MAFE4ImagesEEG,001,100277,
AMSA25.JPG,AMNE24.JPG,AMSA24.JPG,AMNE26.JPG,AMSA21.JPG,AMNE25.JPG,,,,,,,,,,,,,,,,,0,0,0,3,,,,,,,AMSA11.jpg,AMNE14.jpg,AMNE16.jpg,AMSA03.jpg,AMSA03.jpg,MS,2,num_4,48,None,,,,2017_Apr_27_1206,60.0808387896,MAFE4ImagesEEG,001,100277,
AMNE23.JPG,AMNE24.JPG,AMNE22.JPG,AMSA24.JPG,AMSA22.JPG,AMSA23.JPG,,,,,,,,,,,,,,,,,0,1,1,9,,,,,,,AMSA12.jpg,AMSA18.jpg,AMNE11.jpg,AMNE02.jpg,AMSA12.jpg,MS,2,num_8,48,None,,,,2017_Apr_27_1206,60.0808387896,MAFE4ImagesEEG,001,100277,
AMSA21.JPG,AMNE22.JPG,AMNE21.JPG,AMSA23.JPG,AMSA22.JPG,AMNE23.JPG,,,,,,,,,,,,,,,,,0,2,2,1,,,,,,,AMNE03.jpg,AMSA06.jpg,AMSA16.jpg,AMNE11.jpg,AMNE03.jpg,MN,1,num_8,32,num_4,3.91653984098,,,2017_Apr_27_1206,60.0808387896,MAFE4ImagesEEG,001,100277,
AFNE22.JPG,AFSA24.JPG,AFSA22.JPG,AFNE25.JPG,AFNE24.JPG,AFSA25.JPG,,,,,,,,,,,,,,,,,0,3,3,6,,,,,,,AMNE07.jpg,AMSA16.jpg,AMSA09.jpg,AMNE02.jpg,AMNE02.jpg,MN,1,num_4,16,num_4,1.400075502,,,2017_Apr_27_1206,60.0808387896,MAFE4ImagesEEG,001,100277,
AMNE22.JPG,AMSA24.JPG,AMSA22.JPG,AMNE25.JPG,AMNE24.JPG,AMSA25.JPG,,,,,,,,,,,,,,,,,0,4,4,7,,,,,,,AMNE16.jpg,AMSA14.jpg,AMNE17.jpg,AMSA15.jpg,AMNE17.jpg,MN,1,num_2,48,None,,,,2017_Apr_27_1206,60.0808387896,MAFE4ImagesEEG,001,100277,
AFNE23.JPG,AFNE24.JPG,AFNE22.JPG,AFSA24.JPG,AFSA22.JPG,AFSA23.JPG,,,,,,,,,,,,,,,,,0,5,5,8,,,,,,,AMNE07.jpg,AMNE17.jpg,AMSA20.jpg,AMSA12.jpg,AMNE07.jpg,MN,1,num_8,48,None,,,,2017_Apr_27_1206,60.0808387896,MAFE4ImagesEEG,001,100277,
AFSA21.JPG,AFNE23.JPG,AFNE21.JPG,AFSA25.JPG,AFNE25.JPG,AFSA23.JPG,,,,,,,,,,,,,,,,,0,6,6,4,,,,,,,AMNE08.jpg,AMSA16.jpg,AMNE16.jpg,AMSA02.jpg,AMNE08.jpg,MN,1,num_8,32,num_2,1.2664472597,,,2017_Apr_27_1206,60.0808387896,MAFE4ImagesEEG,001,100277,
AFSA25.JPG,AFNE24.JPG,AFSA24.JPG,AFNE21.JPG,AFSA21.JPG,AFNE25.JPG,,,,,,,,,,,,,,,,,0,7,7,2,,,,,,,AMNE11.jpg,AMNE15.jpg,AMSA03.jpg,AMSA04.jpg,AMNE15.jpg,MN,1,num_6,32,num_2,1.25000874023,,,2017_Apr_27_1206,60.0808387896,MAFE4ImagesEEG,001,100277,
AFSA21.JPG,AFNE22.JPG,AFNE21.JPG,AFSA23.JPG,AFSA22.JPG,AFNE23.JPG,,,,,,,,,,,,,,,,,0,8,8,0,,,,,,,AMSA03.jpg,AMNE17.jpg,AMNE16.jpg,AMSA19.jpg,AMSA03.jpg,MS,2,num_8,32,num_4,1.76670753956,,,2017_Apr_27_1206,60.0808387896,MAFE4ImagesEEG,001,100277,
AMSA21.JPG,AMNE23.JPG,AMNE21.JPG,AMSA25.JPG,AMNE25.JPG,AMSA23.JPG,,,,,,,,,,,,,,,,,0,9,9,5,,,,,,,AMNE08.jpg,AMSA16.jpg,AMSA13.jpg,AMNE03.jpg,AMNE08.jpg,MN,1,num_8,48,None,,,,2017_Apr_27_1206,60.0808387896,MAFE4ImagesEEG,001,100277,
AMNE23.JPG,AMNE24.JPG,AMNE22.JPG,AMSA24.JPG,AMSA22.JPG,AMSA23.JPG,,,,,,,,,,,,,,,,,,,,,0,0,0,9,,,AFSA07.jpg,AFNE11.jpg,AFNE10.jpg,AFSA17.jpg,AFSA17.jpg,FS,4,num_4,48,None,,,,2017_Apr_27_1206,60.0808387896,MAFE4ImagesEEG,001,100277,
AFSA25.JPG,AFNE24.JPG,AFSA24.JPG,AFNE21.JPG,AFSA21.JPG,AFNE25.JPG,,,,,,,,,,,,,,,,,,,,,0,1,1,2,,,AFSA15.jpg,AFNE07.jpg,AFNE01.jpg,AFSA04.jpg,AFNE07.jpg,FN,3,num_6,32,num_2,1.46668563306,,,2017_Apr_27_1206,60.0808387896,MAFE4ImagesEEG,001,100277,
AMNE22.JPG,AMSA24.JPG,AMSA22.JPG,AMNE25.JPG,AMNE24.JPG,AMSA25.JPG,,,,,,,,,,,,,,,,,,,,,0,2,2,7,,,AFSA13.jpg,AFNE10.jpg,AFNE08.jpg,AFSA20.jpg,AFNE10.jpg,FN,3,num_6,32,num_2,2.48329125764,,,2017_Apr_27_1206,60.0808387896,MAFE4ImagesEEG,001,100277,
AMSA21.JPG,AMNE22.JPG,AMNE21.JPG,AMSA23.JPG,AMSA22.JPG,AMNE23.JPG,,,,,,,,,,,,,,,,,,,,,0,3,3,1,,,AFSA06.jpg,AFNE03.jpg,AFNE08.jpg,AFSA19.jpg,AFNE08.jpg,FN,3,num_2,48,None,,,,2017_Apr_27_1206,60.0808387896,MAFE4ImagesEEG,001,100277,
AMSA25.JPG,AMNE24.JPG,AMSA24.JPG,AMNE26.JPG,AMSA21.JPG,AMNE25.JPG,,,,,,,,,,,,,,,,,,,,,0,4,4,3,,,AFSA02.jpg,AFNE07.jpg,AFSA19.jpg,AFNE04.jpg,AFSA02.jpg,FS,4,num_8,48,None,,,,2017_Apr_27_1206,60.0808387896,MAFE4ImagesEEG,001,100277,
AFSA21.JPG,AFNE23.JPG,AFNE21.JPG,AFSA25.JPG,AFNE25.JPG,AFSA23.JPG,,,,,,,,,,,,,,,,,,,,,0,5,5,4,,,AFNE04.jpg,AFSA17.jpg,AFSA16.jpg,AFNE02.jpg,AFNE04.jpg,FN,3,num_8,48,None,,,,2017_Apr_27_1206,60.0808387896,MAFE4ImagesEEG,001,100277,
AFNE23.JPG,AFNE24.JPG,AFNE22.JPG,AFSA24.JPG,AFSA22.JPG,AFSA23.JPG,,,,,,,,,,,,,,,,,,,,,0,6,6,8,,,AFNE18.jpg,AFSA19.jpg,AFNE12.jpg,AFSA02.jpg,AFNE12.jpg,FN,3,num_2,48,None,,,,2017_Apr_27_1206,60.0808387896,MAFE4ImagesEEG,001,100277,
AMSA21.JPG,AMNE23.JPG,AMNE21.JPG,AMSA25.JPG,AMNE25.JPG,AMSA23.JPG,,,,,,,,,,,,,,,,,,,,,0,7,7,5,,,AFNE07.jpg,AFSA19.jpg,AFNE01.jpg,AFSA20.jpg,AFSA19.jpg,FS,4,num_6,32,num_2,1.93359450041,,,2017_Apr_27_1206,60.0808387896,MAFE4ImagesEEG,001,100277,
AFNE22.JPG,AFSA24.JPG,AFSA22.JPG,AFNE25.JPG,AFNE24.JPG,AFSA25.JPG,,,,,,,,,,,,,,,,,,,,,0,8,8,6,,,AFNE01.jpg,AFNE02.jpg,AFSA09.jpg,AFSA06.jpg,AFNE02.jpg,FN,3,num_6,48,None,,,,2017_Apr_27_1206,60.0808387896,MAFE4ImagesEEG,001,100277,
AFSA21.JPG,AFNE22.JPG,AFNE21.JPG,AFSA23.JPG,AFSA22.JPG,AFNE23.JPG,,,,,,,,,,,,,,,,,,,,,0,9,9,0,,,AFNE02.jpg,AFSA13.jpg,AFNE08.jpg,AFSA19.jpg,AFNE08.jpg,FN,3,num_2,16,num_2,2.91663798725,,,2017_Apr_27_1206,60.0808387896,MAFE4ImagesEEG,001,100277,
,,,,,,,,,,,,,,,,,,,,,,,,,,,,,,,,,,,,,,,,,,,space,21.3815358207,2017_Apr_27_1206,60.0808387896,MAFE4ImagesEEG,001,100277,
AFNE01.JPG,AFNE01.JPG,AFNE01.JPG,AFNE01.JPG,AFNE01.JPG,AFNE01.JPG,0,0,0,1,,,,,,,,,,,,,,,,,,,,,,,AMNE06.jpg,AMSA09.jpg,AMNE19.jpg,AMSA10.jpg,AMSA10.jpg,MS,2,num_4,48,None,,,,2017_Apr_27_1206,60.0808387896,MAFE4ImagesEEG,001,100277,
AFNE01.JPG,AFNE01.JPG,AFNE01.JPG,AFNE01.JPG,AFNE01.JPG,AFNE01.JPG,0,1,1,0,,,,,,,,,,,,,,,,,,,,,,,AMSA02.jpg,AMNE18.jpg,AMNE04.jpg,AMSA04.jpg,AMNE18.jpg,MN,1,num_6,32,num_2,1.43342274474,,,2017_Apr_27_1206,60.0808387896,MAFE4ImagesEEG,001,100277,
AFNE01.JPG,AFNE01.JPG,AFNE01.JPG,AFNE01.JPG,AFNE01.JPG,AFNE01.JPG,0,2,2,4,,,,,,,,,,,,,,,,,,,,,,,AMSA10.jpg,AMNE02.jpg,AMNE08.jpg,AMSA11.jpg,AMNE08.jpg,MN,1,num_2,48,None,,,,2017_Apr_27_1206,60.0808387896,MAFE4ImagesEEG,001,100277,
AFNE01.JPG,AFNE01.JPG,AFNE01.JPG,AFNE01.JPG,AFNE01.JPG,AFNE01.JPG,0,3,3,5,,,,,,,,,,,,,,,,,,,,,,,AMNE03.jpg,AMNE16.jpg,AMSA07.jpg,AMSA09.jpg,AMSA07.jpg,MS,2,num_2,32,num_4,3.0665556055,,,2017_Apr_27_1206,60.0808387896,MAFE4ImagesEEG,001,100277,
AFNE01.JPG,AFNE01.JPG,AFNE01.JPG,AFNE01.JPG,AFNE01.JPG,AFNE01.JPG,0,4,4,2,,,,,,,,,,,,,,,,,,,,,,,AMSA04.jpg,AMNE19.jpg,AMSA17.jpg,AMNE03.jpg,AMNE03.jpg,MN,1,num_4,32,num_2,1.78337057657,,,2017_Apr_27_1206,60.0808387896,MAFE4ImagesEEG,001,100277,
AFNE01.JPG,AFNE01.JPG,AFNE01.JPG,AFNE01.JPG,AFNE01.JPG,AFNE01.JPG,0,5,5,6,,,,,,,,,,,,,,,,,,,,,,,AMSA05.jpg,AMNE19.jpg,AMSA16.jpg,AMNE09.jpg,AMNE19.jpg,MN,1,num_6,48,None,,,,2017_Apr_27_1206,60.0808387896,MAFE4ImagesEEG,001,100277,
AFNE01.JPG,AFNE01.JPG,AFNE01.JPG,AFNE01.JPG,AFNE01.JPG,AFNE01.JPG,0,6,6,3,,,,,,,,,,,,,,,,,,,,,,,AMSA14.jpg,AMNE03.jpg,AMNE14.jpg,AMSA18.jpg,AMNE03.jpg,MN,1,num_6,48,None,,,,2017_Apr_27_1206,60.0808387896,MAFE4ImagesEEG,001,100277,
AFNE01.JPG,AFNE01.JPG,AFNE01.JPG,AFNE01.JPG,AFNE01.JPG,AFNE01.JPG,0,7,7,7,,,,,,,,,,,,,,,,,,,,,,,AMSA08.jpg,AMSA02.jpg,AMNE16.jpg,AMNE01.jpg,AMSA02.jpg,MS,2,num_6,32,num_2,1.61669369962,,,2017_Apr_27_1206,60.0808387896,MAFE4ImagesEEG,001,100277,
AFNE01.JPG,AFNE01.JPG,AFNE01.JPG,AFNE01.JPG,AFNE01.JPG,AFNE01.JPG,0,8,8,9,,,,,,,,,,,,,,,,,,,,,,,AMNE20.jpg,AMNE11.jpg,AMSA07.jpg,AMSA03.jpg,AMNE11.jpg,MN,1,num_6,48,None,,,,2017_Apr_27_1206,60.0808387896,MAFE4ImagesEEG,001,100277,
AFNE01.JPG,AFNE01.JPG,AFNE01.JPG,AFNE01.JPG,AFNE01.JPG,AFNE01.JPG,0,9,9,8,,,,,,,,,,,,,,,,,,,,,,,AMNE01.jpg,AMNE05.jpg,AMSA05.jpg,AMSA02.jpg,AMSA02.jpg,MS,2,num_4,48,None,,,,2017_Apr_27_1206,60.0808387896,MAFE4ImagesEEG,001,100277,
AFNE01.JPG,AFNE01.JPG,AFNE01.JPG,AFNE01.JPG,AFNE01.JPG,AFNE01.JPG,1,0,10,3,,,,,,,,,,,,,,,,,,,,,,,AMSA19.jpg,AMSA06.jpg,AMNE14.jpg,AMNE07.jpg,AMNE07.jpg,MN,1,num_4,16,num_4,3.03326385049,,,2017_Apr_27_1206,60.0808387896,MAFE4ImagesEEG,001,100277,
AFNE01.JPG,AFNE01.JPG,AFNE01.JPG,AFNE01.JPG,AFNE01.JPG,AFNE01.JPG,1,1,11,7,,,,,,,,,,,,,,,,,,,,,,,AMNE06.jpg,AMNE20.jpg,AMSA07.jpg,AMSA18.jpg,AMSA18.jpg,MS,2,num_4,48,None,,,,2017_Apr_27_1206,60.0808387896,MAFE4ImagesEEG,001,100277,
AFNE01.JPG,AFNE01.JPG,AFNE01.JPG,AFNE01.JPG,AFNE01.JPG,AFNE01.JPG,1,2,12,4,,,,,,,,,,,,,,,,,,,,,,,AMNE17.jpg,AMSA06.jpg,AMSA08.jpg,AMNE02.jpg,AMSA08.jpg,MS,2,num_2,48,None,,,,2017_Apr_27_1206,60.0808387896,MAFE4ImagesEEG,001,100277,
AFNE01.JPG,AFNE01.JPG,AFNE01.JPG,AFNE01.JPG,AFNE01.JPG,AFNE01.JPG,1,3,13,6,,,,,,,,,,,,,,,,,,,,,,,AMNE10.jpg,AMSA02.jpg,AMSA04.jpg,AMNE11.jpg,AMNE10.jpg,MN,1,num_8,48,None,,,,2017_Apr_27_1206,60.0808387896,MAFE4ImagesEEG,001,100277,
AFNE01.JPG,AFNE01.JPG,AFNE01.JPG,AFNE01.JPG,AFNE01.JPG,AFNE01.JPG,1,4,14,5,,,,,,,,,,,,,,,,,,,,,,,AMSA03.jpg,AMSA20.jpg,AMNE12.jpg,AMNE20.jpg,AMSA03.jpg,MS,2,num_8,48,None,,,,2017_Apr_27_1206,60.0808387896,MAFE4ImagesEEG,001,100277,
AFNE01.JPG,AFNE01.JPG,AFNE01.JPG,AFNE01.JPG,AFNE01.JPG,AFNE01.JPG,1,5,15,0,,,,,,,,,,,,,,,,,,,,,,,AMNE17.jpg,AMSA04.jpg,AMSA20.jpg,AMNE03.jpg,AMSA20.jpg,MS,2,num_2,16,num_2,2.24982720183,,,2017_Apr_27_1206,60.0808387896,MAFE4ImagesEEG,001,100277,
AFNE01.JPG,AFNE01.JPG,AFNE01.JPG,AFNE01.JPG,AFNE01.JPG,AFNE01.JPG,1,6,16,1,,,,,,,,,,,,,,,,,,,,,,,AMSA13.jpg,AMNE13.jpg,AMNE12.jpg,AMSA16.jpg,AMSA16.jpg,MS,2,num_4,48,None,,,,2017_Apr_27_1206,60.0808387896,MAFE4ImagesEEG,001,100277,
AFNE01.JPG,AFNE01.JPG,AFNE01.JPG,AFNE01.JPG,AFNE01.JPG,AFNE01.JPG,1,7,17,2,,,,,,,,,,,,,,,,,,,,,,,AMSA05.jpg,AMNE16.jpg,AMNE13.jpg,AMSA16.jpg,AMNE16.jpg,MN,1,num_6,32,num_2,3.69987802289,,,2017_Apr_27_1206,60.0808387896,MAFE4ImagesEEG,001,100277,
AFNE01.JPG,AFNE01.JPG,AFNE01.JPG,AFNE01.JPG,AFNE01.JPG,AFNE01.JPG,1,8,18,9,,,,,,,,,,,,,,,,,,,,,,,AMNE19.jpg,AMSA12.jpg,AMSA18.jpg,AMNE07.jpg,AMSA18.jpg,MS,2,num_2,48,None,,,,2017_Apr_27_1206,60.0808387896,MAFE4ImagesEEG,001,100277,
AFNE01.JPG,AFNE01.JPG,AFNE01.JPG,AFNE01.JPG,AFNE01.JPG,AFNE01.JPG,1,9,19,8,,,,,,,,,,,,,,,,,,,,,,,AMNE18.jpg,AMSA17.jpg,AMNE02.jpg,AMSA19.jpg,AMSA19.jpg,MS,2,num_4,16,num_4,3.91684229812,,,2017_Apr_27_1206,60.0808387896,MAFE4ImagesEEG,001,100277,
AFNE01.JPG,AFNE01.JPG,AFNE01.JPG,AFNE01.JPG,AFNE01.JPG,AFNE01.JPG,2,0,20,4,,,,,,,,,,,,,,,,,,,,,,,AMNE04.jpg,AMSA20.jpg,AMNE01.jpg,AMSA16.jpg,AMNE04.jpg,MN,1,num_8,32,num_2,4.33314751845,,,2017_Apr_27_1206,60.0808387896,MAFE4ImagesEEG,001,100277,
AFNE01.JPG,AFNE01.JPG,AFNE01.JPG,AFNE01.JPG,AFNE01.JPG,AFNE01.JPG,2,1,21,0,,,,,,,,,,,,,,,,,,,,,,,AMSA19.jpg,AMNE19.jpg,AMNE05.jpg,AMSA11.jpg,AMNE05.jpg,MN,1,num_2,48,None,,,,2017_Apr_27_1206,60.0808387896,MAFE4ImagesEEG,001,100277,
AFNE01.JPG,AFNE01.JPG,AFNE01.JPG,AFNE01.JPG,AFNE01.JPG,AFNE01.JPG,2,2,22,5,,,,,,,,,,,,,,,,,,,,,,,AMNE05.jpg,AMSA08.jpg,AMNE06.jpg,AMSA15.jpg,AMNE06.jpg,MN,1,num_2,48,None,,,,2017_Apr_27_1206,60.0808387896,MAFE4ImagesEEG,001,100277,
AFNE01.JPG,AFNE01.JPG,AFNE01.JPG,AFNE01.JPG,AFNE01.JPG,AFNE01.JPG,2,3,23,8,,,,,,,,,,,,,,,,,,,,,,,AMSA08.jpg,AMSA13.jpg,AMNE18.jpg,AMNE07.jpg,AMSA08.jpg,MS,2,num_8,48,None,,,,2017_Apr_27_1206,60.0808387896,MAFE4ImagesEEG,001,100277,
AFNE01.JPG,AFNE01.JPG,AFNE01.JPG,AFNE01.JPG,AFNE01.JPG,AFNE01.JPG,2,4,24,3,,,,,,,,,,,,,,,,,,,,,,,AMNE11.jpg,AMSA13.jpg,AMSA08.jpg,AMNE03.jpg,AMNE03.jpg,MN,1,num_4,32,num_2,2.23346309364,,,2017_Apr_27_1206,60.0808387896,MAFE4ImagesEEG,001,100277,
AFNE01.JPG,AFNE01.JPG,AFNE01.JPG,AFNE01.JPG,AFNE01.JPG,AFNE01.JPG,2,5,25,7,,,,,,,,,,,,,,,,,,,,,,,AMSA02.jpg,AMSA10.jpg,AMNE19.jpg,AMNE08.jpg,AMNE08.jpg,MN,1,num_4,48,None,,,,2017_Apr_27_1206,60.0808387896,MAFE4ImagesEEG,001,100277,
AFNE01.JPG,AFNE01.JPG,AFNE01.JPG,AFNE01.JPG,AFNE01.JPG,AFNE01.JPG,2,6,26,1,,,,,,,,,,,,,,,,,,,,,,,AMNE01.jpg,AMNE09.jpg,AMSA11.jpg,AMSA18.jpg,AMSA11.jpg,MS,2,num_2,48,None,,,,2017_Apr_27_1206,60.0808387896,MAFE4ImagesEEG,001,100277,
AFNE01.JPG,AFNE01.JPG,AFNE01.JPG,AFNE01.JPG,AFNE01.JPG,AFNE01.JPG,2,7,27,2,,,,,,,,,,,,,,,,,,,,,,,AMSA06.jpg,AMNE05.jpg,AMSA16.jpg,AMNE08.jpg,AMSA16.jpg,MS,2,num_2,48,None,,,,2017_Apr_27_1206,60.0808387896,MAFE4ImagesEEG,001,100277,
AFNE01.JPG,AFNE01.JPG,AFNE01.JPG,AFNE01.JPG,AFNE01.JPG,AFNE01.JPG,2,8,28,6,,,,,,,,,,,,,,,,,,,,,,,AMSA07.jpg,AMNE20.jpg,AMNE06.jpg,AMSA05.jpg,AMSA05.jpg,MS,2,num_4,16,num_4,2.56662761141,,,2017_Apr_27_1206,60.0808387896,MAFE4ImagesEEG,001,100277,
AFNE01.JPG,AFNE01.JPG,AFNE01.JPG,AFNE01.JPG,AFNE01.JPG,AFNE01.JPG,2,9,29,9,,,,,,,,,,,,,,,,,,,,,,,AMSA02.jpg,AMNE10.jpg,AMSA17.jpg,AMNE09.jpg,AMSA17.jpg,MS,2,num_2,48,None,,,,2017_Apr_27_1206,60.0808387896,MAFE4ImagesEEG,001,100277,
AFNE01.JPG,AFNE01.JPG,AFNE01.JPG,AFNE01.JPG,AFNE01.JPG,AFNE01.JPG,3,0,30,2,,,,,,,,,,,,,,,,,,,,,,,AMNE16.jpg,AMNE11.jpg,AMSA13.jpg,AMSA01.jpg,AMSA01.jpg,MS,2,num_4,48,None,,,,2017_Apr_27_1206,60.0808387896,MAFE4ImagesEEG,001,100277,
AFNE01.JPG,AFNE01.JPG,AFNE01.JPG,AFNE01.JPG,AFNE01.JPG,AFNE01.JPG,3,1,31,9,,,,,,,,,,,,,,,,,,,,,,,AMNE18.jpg,AMSA15.jpg,AMSA17.jpg,AMNE14.jpg,AMSA17.jpg,MS,2,num_2,48,None,,,,2017_Apr_27_1206,60.0808387896,MAFE4ImagesEEG,001,100277,
AFNE01.JPG,AFNE01.JPG,AFNE01.JPG,AFNE01.JPG,AFNE01.JPG,AFNE01.JPG,3,2,32,0,,,,,,,,,,,,,,,,,,,,,,,AMNE18.jpg,AMNE20.jpg,AMSA17.jpg,AMSA19.jpg,AMNE20.jpg,MN,1,num_6,48,None,,,,2017_Apr_27_1206,60.0808387896,MAFE4ImagesEEG,001,100277,
AFNE01.JPG,AFNE01.JPG,AFNE01.JPG,AFNE01.JPG,AFNE01.JPG,AFNE01.JPG,3,3,33,5,,,,,,,,,,,,,,,,,,,,,,,AMSA20.jpg,AMSA15.jpg,AMNE01.jpg,AMNE06.jpg,AMNE06.jpg,MN,1,num_4,48,None,,,,2017_Apr_27_1206,60.0808387896,MAFE4ImagesEEG,001,100277,
AFNE01.JPG,AFNE01.JPG,AFNE01.JPG,AFNE01.JPG,AFNE01.JPG,AFNE01.JPG,3,4,34,6,,,,,,,,,,,,,,,,,,,,,,,AMNE18.jpg,AMSA08.jpg,AMSA07.jpg,AMNE01.jpg,AMSA07.jpg,MS,2,num_2,48,None,,,,2017_Apr_27_1206,60.0808387896,MAFE4ImagesEEG,001,100277,
AFNE01.JPG,AFNE01.JPG,AFNE01.JPG,AFNE01.JPG,AFNE01.JPG,AFNE01.JPG,3,5,35,3,,,,,,,,,,,,,,,,,,,,,,,AMSA19.jpg,AMNE11.jpg,AMNE07.jpg,AMSA06.jpg,AMSA19.jpg,MS,2,num_8,32,num_2,4.93312044814,,,2017_Apr_27_1206,60.0808387896,MAFE4ImagesEEG,001,100277,
AFNE01.JPG,AFNE01.JPG,AFNE01.JPG,AFNE01.JPG,AFNE01.JPG,AFNE01.JPG,3,6,36,4,,,,,,,,,,,,,,,,,,,,,,,AMSA17.jpg,AMNE18.jpg,AMNE20.jpg,AMSA11.jpg,AMSA11.jpg,MS,2,num_4,48,None,,,,2017_Apr_27_1206,60.0808387896,MAFE4ImagesEEG,001,100277,
AFNE01.JPG,AFNE01.JPG,AFNE01.JPG,AFNE01.JPG,AFNE01.JPG,AFNE01.JPG,3,7,37,8,,,,,,,,,,,,,,,,,,,,,,,AMNE06.jpg,AMNE14.jpg,AMSA20.jpg,AMSA16.jpg,AMSA20.jpg,MS,2,num_2,48,None,,,,2017_Apr_27_1206,60.0808387896,MAFE4ImagesEEG,001,100277,
AFNE01.JPG,AFNE01.JPG,AFNE01.JPG,AFNE01.JPG,AFNE01.JPG,AFNE01.JPG,3,8,38,7,,,,,,,,,,,,,,,,,,,,,,,AMSA03.jpg,AMNE07.jpg,AMSA07.jpg,AMNE08.jpg,AMSA07.jpg,MS,2,num_2,32,num_4,2.46648901992,,,2017_Apr_27_1206,60.0808387896,MAFE4ImagesEEG,001,100277,
AFNE01.JPG,AFNE01.JPG,AFNE01.JPG,AFNE01.JPG,AFNE01.JPG,AFNE01.JPG,3,9,39,1,,,,,,,,,,,,,,,,,,,,,,,AMNE13.jpg,AMNE17.jpg,AMSA15.jpg,AMSA17.jpg,AMSA17.jpg,MS,2,num_4,48,None,,,,2017_Apr_27_1206,60.0808387896,MAFE4ImagesEEG,001,100277,
AFNE01.JPG,AFNE01.JPG,AFNE01.JPG,AFNE01.JPG,AFNE01.JPG,AFNE01.JPG,4,0,40,6,,,,,,,,,,,,,,,,,,,,,,,AMNE10.jpg,AMSA14.jpg,AMSA01.jpg,AMNE18.jpg,AMNE10.jpg,MN,1,num_8,32,num_2,2.45001489832,,,2017_Apr_27_1206,60.0808387896,MAFE4ImagesEEG,001,100277,
AFNE01.JPG,AFNE01.JPG,AFNE01.JPG,AFNE01.JPG,AFNE01.JPG,AFNE01.JPG,4,1,41,1,,,,,,,,,,,,,,,,,,,,,,,AMNE16.jpg,AMSA18.jpg,AMNE17.jpg,AMSA16.jpg,AMSA18.jpg,MS,2,num_6,48,None,,,,2017_Apr_27_1206,60.0808387896,MAFE4ImagesEEG,001,100277,
AFNE01.JPG,AFNE01.JPG,AFNE01.JPG,AFNE01.JPG,AFNE01.JPG,AFNE01.JPG,4,2,42,5,,,,,,,,,,,,,,,,,,,,,,,AMSA10.jpg,AMNE19.jpg,AMSA03.jpg,AMNE13.jpg,AMSA10.jpg,MS,2,num_8,32,num_2,2.73332052515,,,2017_Apr_27_1206,60.0808387896,MAFE4ImagesEEG,001,100277,
AFNE01.JPG,AFNE01.JPG,AFNE01.JPG,AFNE01.JPG,AFNE01.JPG,AFNE01.JPG,4,3,43,8,,,,,,,,,,,,,,,,,,,,,,,AMNE09.jpg,AMNE16.jpg,AMSA02.jpg,AMSA20.jpg,AMSA02.jpg,MS,2,num_2,48,None,,,,2017_Apr_27_1206,60.0808387896,MAFE4ImagesEEG,001,100277,
AFNE01.JPG,AFNE01.JPG,AFNE01.JPG,AFNE01.JPG,AFNE01.JPG,AFNE01.JPG,4,4,44,9,,,,,,,,,,,,,,,,,,,,,,,AMNE17.jpg,AMSA20.jpg,AMNE13.jpg,AMSA06.jpg,AMSA06.jpg,MS,2,num_4,16,num_4,2.95022546349,,,2017_Apr_27_1206,60.0808387896,MAFE4ImagesEEG,001,100277,
AFNE01.JPG,AFNE01.JPG,AFNE01.JPG,AFNE01.JPG,AFNE01.JPG,AFNE01.JPG,4,5,45,7,,,,,,,,,,,,,,,,,,,,,,,AMNE04.jpg,AMSA02.jpg,AMNE17.jpg,AMSA14.jpg,AMSA02.jpg,MS,2,num_6,32,num_2,3.86653469328,,,2017_Apr_27_1206,60.0808387896,MAFE4ImagesEEG,001,100277,
AFNE01.JPG,AFNE01.JPG,AFNE01.JPG,AFNE01.JPG,AFNE01.JPG,AFNE01.JPG,4,6,46,2,,,,,,,,,,,,,,,,,,,,,,,AMSA17.jpg,AMSA08.jpg,AMNE02.jpg,AMNE12.jpg,AMNE12.jpg,MN,1,num_4,32,num_2,3.6331979708,,,2017_Apr_27_1206,60.0808387896,MAFE4ImagesEEG,001,100277,
AFNE01.JPG,AFNE01.JPG,AFNE01.JPG,AFNE01.JPG,AFNE01.JPG,AFNE01.JPG,4,7,47,0,,,,,,,,,,,,,,,,,,,,,,,AMNE12.jpg,AMSA03.jpg,AMSA09.jpg,AMNE02.jpg,AMNE12.jpg,MN,1,num_8,48,None,,,,2017_Apr_27_1206,60.0808387896,MAFE4ImagesEEG,001,100277,
AFNE01.JPG,AFNE01.JPG,AFNE01.JPG,AFNE01.JPG,AFNE01.JPG,AFNE01.JPG,4,8,48,3,,,,,,,,,,,,,,,,,,,,,,,AMSA14.jpg,AMNE04.jpg,AMNE03.jpg,AMSA03.jpg,AMNE03.jpg,MN,1,num_2,32,num_4,4.03320034419,,,2017_Apr_27_1206,60.0808387896,MAFE4ImagesEEG,001,100277,
AFNE01.JPG,AFNE01.JPG,AFNE01.JPG,AFNE01.JPG,AFNE01.JPG,AFNE01.JPG,4,9,49,4,,,,,,,,,,,,,,,,,,,,,,,AMSA06.jpg,AMNE12.jpg,AMSA13.jpg,AMNE13.jpg,AMSA06.jpg,MS,2,num_8,48,None,,,,2017_Apr_27_1206,60.0808387896,MAFE4ImagesEEG,001,100277,
AFNE01.JPG,AFNE01.JPG,AFNE01.JPG,AFNE01.JPG,AFNE01.JPG,AFNE01.JPG,5,0,50,5,,,,,,,,,,,,,,,,,,,,,,,AMNE12.jpg,AMNE19.jpg,AMSA05.jpg,AMSA07.jpg,AMNE12.jpg,MN,1,num_8,48,None,,,,2017_Apr_27_1206,60.0808387896,MAFE4ImagesEEG,001,100277,
AFNE01.JPG,AFNE01.JPG,AFNE01.JPG,AFNE01.JPG,AFNE01.JPG,AFNE01.JPG,5,1,51,2,,,,,,,,,,,,,,,,,,,,,,,AMNE06.jpg,AMNE17.jpg,AMSA20.jpg,AMSA01.jpg,AMNE17.jpg,MN,1,num_6,48,None,,,,2017_Apr_27_1206,60.0808387896,MAFE4ImagesEEG,001,100277,
AFNE01.JPG,AFNE01.JPG,AFNE01.JPG,AFNE01.JPG,AFNE01.JPG,AFNE01.JPG,5,2,52,3,,,,,,,,,,,,,,,,,,,,,,,AMSA10.jpg,AMNE19.jpg,AMSA16.jpg,AMNE18.jpg,AMNE19.jpg,MN,1,num_6,48,None,,,,2017_Apr_27_1206,60.0808387896,MAFE4ImagesEEG,001,100277,
AFNE01.JPG,AFNE01.JPG,AFNE01.JPG,AFNE01.JPG,AFNE01.JPG,AFNE01.JPG,5,3,53,4,,,,,,,,,,,,,,,,,,,,,,,AMSA20.jpg,AMNE18.jpg,AMSA17.jpg,AMNE16.jpg,AMSA20.jpg,MS,2,num_8,48,None,,,,2017_Apr_27_1206,60.0808387896,MAFE4ImagesEEG,001,100277,
AFNE01.JPG,AFNE01.JPG,AFNE01.JPG,AFNE01.JPG,AFNE01.JPG,AFNE01.JPG,5,4,54,6,,,,,,,,,,,,,,,,,,,,,,,AMSA03.jpg,AMSA02.jpg,AMNE11.jpg,AMNE10.jpg,AMSA03.jpg,MS,2,num_8,48,None,,,,2017_Apr_27_1206,60.0808387896,MAFE4ImagesEEG,001,100277,
AFNE01.JPG,AFNE01.JPG,AFNE01.JPG,AFNE01.JPG,AFNE01.JPG,AFNE01.JPG,5,5,55,0,,,,,,,,,,,,,,,,,,,,,,,AMNE08.jpg,AMSA16.jpg,AMSA15.jpg,AMNE02.jpg,AMNE02.jpg,MN,1,num_4,16,num_4,2.31636548729,,,2017_Apr_27_1206,60.0808387896,MAFE4ImagesEEG,001,100277,
AFNE01.JPG,AFNE01.JPG,AFNE01.JPG,AFNE01.JPG,AFNE01.JPG,AFNE01.JPG,5,6,56,7,,,,,,,,,,,,,,,,,,,,,,,AMSA03.jpg,AMNE10.jpg,AMSA15.jpg,AMNE08.jpg,AMSA15.jpg,MS,2,num_2,48,None,,,,2017_Apr_27_1206,60.0808387896,MAFE4ImagesEEG,001,100277,
AFNE01.JPG,AFNE01.JPG,AFNE01.JPG,AFNE01.JPG,AFNE01.JPG,AFNE01.JPG,5,7,57,1,,,,,,,,,,,,,,,,,,,,,,,AMNE06.jpg,AMSA04.jpg,AMNE05.jpg,AMSA18.jpg,AMNE05.jpg,MN,1,num_2,48,None,,,,2017_Apr_27_1206,60.0808387896,MAFE4ImagesEEG,001,100277,
AFNE01.JPG,AFNE01.JPG,AFNE01.JPG,AFNE01.JPG,AFNE01.JPG,AFNE01.JPG,5,8,58,8,,,,,,,,,,,,,,,,,,,,,,,AMNE05.jpg,AMNE15.jpg,AMSA02.jpg,AMSA03.jpg,AMSA02.jpg,MS,2,num_2,32,num_4,2.38335601485,,,2017_Apr_27_1206,60.0808387896,MAFE4ImagesEEG,001,100277,
AFNE01.JPG,AFNE01.JPG,AFNE01.JPG,AFNE01.JPG,AFNE01.JPG,AFNE01.JPG,5,9,59,9,,,,,,,,,,,,,,,,,,,,,,,AMSA17.jpg,AMNE18.jpg,AMSA15.jpg,AMNE13.jpg,AMNE13.jpg,MN,1,num_4,48,None,,,,2017_Apr_27_1206,60.0808387896,MAFE4ImagesEEG,001,100277,
,,,,,,,,,,,,,,,,,,,,,,,,,,,,,,,,,,,,,,,,,,,space,29.7640842146,2017_Apr_27_1206,60.0808387896,MAFE4ImagesEEG,001,100277,
AFNE01.JPG,AFNE01.JPG,AFNE01.JPG,AFNE01.JPG,AFNE01.JPG,AFNE01.JPG,,,,,0,0,0,4,,,,,,,,,,,,,,,,,,,AFNE04.jpg,AFSA11.jpg,AFSA10.jpg,AFNE20.jpg,AFSA11.jpg,FS,4,num_6,48,None,,,,2017_Apr_27_1206,60.0808387896,MAFE4ImagesEEG,001,100277,
AFNE01.JPG,AFNE01.JPG,AFNE01.JPG,AFNE01.JPG,AFNE01.JPG,AFNE01.JPG,,,,,0,1,1,5,,,,,,,,,,,,,,,,,,,AFSA02.jpg,AFNE14.jpg,AFNE15.jpg,AFSA20.jpg,AFSA20.jpg,FS,4,num_4,48,None,,,,2017_Apr_27_1206,60.0808387896,MAFE4ImagesEEG,001,100277,
AFNE01.JPG,AFNE01.JPG,AFNE01.JPG,AFNE01.JPG,AFNE01.JPG,AFNE01.JPG,,,,,0,2,2,3,,,,,,,,,,,,,,,,,,,AFSA06.jpg,AFSA04.jpg,AFNE10.jpg,AFNE09.jpg,AFSA04.jpg,FS,4,num_6,32,num_4,2.69999188534,,,2017_Apr_27_1206,60.0808387896,MAFE4ImagesEEG,001,100277,
AFNE01.JPG,AFNE01.JPG,AFNE01.JPG,AFNE01.JPG,AFNE01.JPG,AFNE01.JPG,,,,,0,3,3,2,,,,,,,,,,,,,,,,,,,AFNE02.jpg,AFNE10.jpg,AFSA05.jpg,AFSA15.jpg,AFSA15.jpg,FS,4,num_4,48,None,,,,2017_Apr_27_1206,60.0808387896,MAFE4ImagesEEG,001,100277,
AFNE01.JPG,AFNE01.JPG,AFNE01.JPG,AFNE01.JPG,AFNE01.JPG,AFNE01.JPG,,,,,0,4,4,9,,,,,,,,,,,,,,,,,,,AFSA14.jpg,AFNE05.jpg,AFSA03.jpg,AFNE14.jpg,AFSA14.jpg,FS,4,num_8,48,None,,,,2017_Apr_27_1206,60.0808387896,MAFE4ImagesEEG,001,100277,
AFNE01.JPG,AFNE01.JPG,AFNE01.JPG,AFNE01.JPG,AFNE01.JPG,AFNE01.JPG,,,,,0,5,5,1,,,,,,,,,,,,,,,,,,,AFSA16.jpg,AFNE08.jpg,AFNE04.jpg,AFSA01.jpg,AFNE08.jpg,FN,3,num_6,48,None,,,,2017_Apr_27_1206,60.0808387896,MAFE4ImagesEEG,001,100277,
AFNE01.JPG,AFNE01.JPG,AFNE01.JPG,AFNE01.JPG,AFNE01.JPG,AFNE01.JPG,,,,,0,6,6,0,,,,,,,,,,,,,,,,,,,AFSA18.jpg,AFSA11.jpg,AFNE17.jpg,AFNE03.jpg,AFNE03.jpg,FN,3,num_4,16,num_4,1.81695324159,,,2017_Apr_27_1206,60.0808387896,MAFE4ImagesEEG,001,100277,
AFNE01.JPG,AFNE01.JPG,AFNE01.JPG,AFNE01.JPG,AFNE01.JPG,AFNE01.JPG,,,,,0,7,7,7,,,,,,,,,,,,,,,,,,,AFSA17.jpg,AFNE01.jpg,AFNE15.jpg,AFSA09.jpg,AFSA17.jpg,FS,4,num_8,48,None,,,,2017_Apr_27_1206,60.0808387896,MAFE4ImagesEEG,001,100277,
AFNE01.JPG,AFNE01.JPG,AFNE01.JPG,AFNE01.JPG,AFNE01.JPG,AFNE01.JPG,,,,,0,8,8,8,,,,,,,,,,,,,,,,,,,AFSA09.jpg,AFSA12.jpg,AFNE13.jpg,AFNE20.jpg,AFSA09.jpg,FS,4,num_8,48,None,,,,2017_Apr_27_1206,60.0808387896,MAFE4ImagesEEG,001,100277,
AFNE01.JPG,AFNE01.JPG,AFNE01.JPG,AFNE01.JPG,AFNE01.JPG,AFNE01.JPG,,,,,0,9,9,6,,,,,,,,,,,,,,,,,,,AFSA06.jpg,AFSA14.jpg,AFNE17.jpg,AFNE07.jpg,AFSA14.jpg,FS,4,num_6,32,num_4,1.68339588284,,,2017_Apr_27_1206,60.0808387896,MAFE4ImagesEEG,001,100277,
AFNE01.JPG,AFNE01.JPG,AFNE01.JPG,AFNE01.JPG,AFNE01.JPG,AFNE01.JPG,,,,,1,0,10,8,,,,,,,,,,,,,,,,,,,AFNE06.jpg,AFSA15.jpg,AFSA02.jpg,AFNE05.jpg,AFSA15.jpg,FS,4,num_6,32,num_2,1.81668414152,,,2017_Apr_27_1206,60.0808387896,MAFE4ImagesEEG,001,100277,
AFNE01.JPG,AFNE01.JPG,AFNE01.JPG,AFNE01.JPG,AFNE01.JPG,AFNE01.JPG,,,,,1,1,11,9,,,,,,,,,,,,,,,,,,,AFNE01.jpg,AFSA09.jpg,AFNE06.jpg,AFSA10.jpg,AFNE01.jpg,FN,3,num_8,48,None,,,,2017_Apr_27_1206,60.0808387896,MAFE4ImagesEEG,001,100277,
AFNE01.JPG,AFNE01.JPG,AFNE01.JPG,AFNE01.JPG,AFNE01.JPG,AFNE01.JPG,,,,,1,2,12,4,,,,,,,,,,,,,,,,,,,AFNE08.jpg,AFSA04.jpg,AFSA07.jpg,AFNE02.jpg,AFNE08.jpg,FN,3,num_8,48,None,,,,2017_Apr_27_1206,60.0808387896,MAFE4ImagesEEG,001,100277,
AFNE01.JPG,AFNE01.JPG,AFNE01.JPG,AFNE01.JPG,AFNE01.JPG,AFNE01.JPG,,,,,1,3,13,7,,,,,,,,,,,,,,,,,,,AFNE16.jpg,AFSA20.jpg,AFSA08.jpg,AFNE01.jpg,AFSA20.jpg,FS,4,num_6,48,None,,,,2017_Apr_27_1206,60.0808387896,MAFE4ImagesEEG,001,100277,
AFNE01.JPG,AFNE01.JPG,AFNE01.JPG,AFNE01.JPG,AFNE01.JPG,AFNE01.JPG,,,,,1,4,14,0,,,,,,,,,,,,,,,,,,,AFSA15.jpg,AFNE03.jpg,AFNE05.jpg,AFSA06.jpg,AFSA06.jpg,FS,4,num_4,48,None,,,,2017_Apr_27_1206,60.0808387896,MAFE4ImagesEEG,001,100277,
AFNE01.JPG,AFNE01.JPG,AFNE01.JPG,AFNE01.JPG,AFNE01.JPG,AFNE01.JPG,,,,,1,5,15,3,,,,,,,,,,,,,,,,,,,AFNE16.jpg,AFSA16.jpg,AFNE05.jpg,AFSA15.jpg,AFSA16.jpg,FS,4,num_6,48,None,,,,2017_Apr_27_1206,60.0808387896,MAFE4ImagesEEG,001,100277,
AFNE01.JPG,AFNE01.JPG,AFNE01.JPG,AFNE01.JPG,AFNE01.JPG,AFNE01.JPG,,,,,1,6,16,1,,,,,,,,,,,,,,,,,,,AFNE19.jpg,AFSA10.jpg,AFNE01.jpg,AFSA06.jpg,AFNE01.jpg,FN,3,num_2,48,None,,,,2017_Apr_27_1206,60.0808387896,MAFE4ImagesEEG,001,100277,
AFNE01.JPG,AFNE01.JPG,AFNE01.JPG,AFNE01.JPG,AFNE01.JPG,AFNE01.JPG,,,,,1,7,17,2,,,,,,,,,,,,,,,,,,,AFSA05.jpg,AFSA03.jpg,AFNE19.jpg,AFNE14.jpg,AFSA03.jpg,FS,4,num_6,48,None,,,,2017_Apr_27_1206,60.0808387896,MAFE4ImagesEEG,001,100277,
AFNE01.JPG,AFNE01.JPG,AFNE01.JPG,AFNE01.JPG,AFNE01.JPG,AFNE01.JPG,,,,,1,8,18,6,,,,,,,,,,,,,,,,,,,AFSA08.jpg,AFNE06.jpg,AFNE10.jpg,AFSA14.jpg,AFSA08.jpg,FS,4,num_8,32,num_2,2.41660190409,,,2017_Apr_27_1206,60.0808387896,MAFE4ImagesEEG,001,100277,
AFNE01.JPG,AFNE01.JPG,AFNE01.JPG,AFNE01.JPG,AFNE01.JPG,AFNE01.JPG,,,,,1,9,19,5,,,,,,,,,,,,,,,,,,,AFSA02.jpg,AFNE03.jpg,AFNE07.jpg,AFSA10.jpg,AFSA10.jpg,FS,4,num_4,48,None,,,,2017_Apr_27_1206,60.0808387896,MAFE4ImagesEEG,001,100277,
AFNE01.JPG,AFNE01.JPG,AFNE01.JPG,AFNE01.JPG,AFNE01.JPG,AFNE01.JPG,,,,,2,0,20,8,,,,,,,,,,,,,,,,,,,AFSA12.jpg,AFSA05.jpg,AFNE20.jpg,AFNE11.jpg,AFSA12.jpg,FS,4,num_8,48,None,,,,2017_Apr_27_1206,60.0808387896,MAFE4ImagesEEG,001,100277,
AFNE01.JPG,AFNE01.JPG,AFNE01.JPG,AFNE01.JPG,AFNE01.JPG,AFNE01.JPG,,,,,2,1,21,9,,,,,,,,,,,,,,,,,,,AFSA06.jpg,AFSA02.jpg,AFNE12.jpg,AFNE03.jpg,AFSA06.jpg,FS,4,num_8,48,None,,,,2017_Apr_27_1206,60.0808387896,MAFE4ImagesEEG,001,100277,
AFNE01.JPG,AFNE01.JPG,AFNE01.JPG,AFNE01.JPG,AFNE01.JPG,AFNE01.JPG,,,,,2,2,22,7,,,,,,,,,,,,,,,,,,,AFSA04.jpg,AFSA10.jpg,AFNE04.jpg,AFNE06.jpg,AFSA10.jpg,FS,4,num_6,48,None,,,,2017_Apr_27_1206,60.0808387896,MAFE4ImagesEEG,001,100277,
AFNE01.JPG,AFNE01.JPG,AFNE01.JPG,AFNE01.JPG,AFNE01.JPG,AFNE01.JPG,,,,,2,3,23,3,,,,,,,,,,,,,,,,,,,AFNE13.jpg,AFSA09.jpg,AFSA08.jpg,AFNE06.jpg,AFNE06.jpg,FN,3,num_4,48,None,,,,2017_Apr_27_1206,60.0808387896,MAFE4ImagesEEG,001,100277,
AFNE01.JPG,AFNE01.JPG,AFNE01.JPG,AFNE01.JPG,AFNE01.JPG,AFNE01.JPG,,,,,2,4,24,6,,,,,,,,,,,,,,,,,,,AFSA09.jpg,AFNE14.jpg,AFNE12.jpg,AFSA03.jpg,AFNE12.jpg,FN,3,num_2,48,None,,,,2017_Apr_27_1206,60.0808387896,MAFE4ImagesEEG,001,100277,
AFNE01.JPG,AFNE01.JPG,AFNE01.JPG,AFNE01.JPG,AFNE01.JPG,AFNE01.JPG,,,,,2,5,25,2,,,,,,,,,,,,,,,,,,,AFSA07.jpg,AFSA15.jpg,AFNE12.jpg,AFNE14.jpg,AFNE14.jpg,FN,3,num_4,32,num_2,1.64991264674,,,2017_Apr_27_1206,60.0808387896,MAFE4ImagesEEG,001,100277,
AFNE01.JPG,AFNE01.JPG,AFNE01.JPG,AFNE01.JPG,AFNE01.JPG,AFNE01.JPG,,,,,2,6,26,0,,,,,,,,,,,,,,,,,,,AFSA08.jpg,AFNE14.jpg,AFNE12.jpg,AFSA17.jpg,AFSA08.jpg,FS,4,num_8,48,None,,,,2017_Apr_27_1206,60.0808387896,MAFE4ImagesEEG,001,100277,
AFNE01.JPG,AFNE01.JPG,AFNE01.JPG,AFNE01.JPG,AFNE01.JPG,AFNE01.JPG,,,,,2,7,27,5,,,,,,,,,,,,,,,,,,,AFNE07.jpg,AFNE19.jpg,AFSA17.jpg,AFSA12.jpg,AFSA17.jpg,FS,4,num_2,32,num_4,3.59990621591,,,2017_Apr_27_1206,60.0808387896,MAFE4ImagesEEG,001,100277,
AFNE01.JPG,AFNE01.JPG,AFNE01.JPG,AFNE01.JPG,AFNE01.JPG,AFNE01.JPG,,,,,2,8,28,4,,,,,,,,,,,,,,,,,,,AFSA17.jpg,AFNE19.jpg,AFNE13.jpg,AFSA02.jpg,AFSA02.jpg,FS,4,num_4,16,num_4,2.83335583855,,,2017_Apr_27_1206,60.0808387896,MAFE4ImagesEEG,001,100277,
AFNE01.JPG,AFNE01.JPG,AFNE01.JPG,AFNE01.JPG,AFNE01.JPG,AFNE01.JPG,,,,,2,9,29,1,,,,,,,,,,,,,,,,,,,AFNE16.jpg,AFSA10.jpg,AFNE18.jpg,AFSA17.jpg,AFNE18.jpg,FN,3,num_2,16,num_2,2.73335131607,,,2017_Apr_27_1206,60.0808387896,MAFE4ImagesEEG,001,100277,
AFNE01.JPG,AFNE01.JPG,AFNE01.JPG,AFNE01.JPG,AFNE01.JPG,AFNE01.JPG,,,,,3,0,30,7,,,,,,,,,,,,,,,,,,,AFSA09.jpg,AFNE07.jpg,AFNE18.jpg,AFSA17.jpg,AFNE18.jpg,FN,3,num_2,48,None,,,,2017_Apr_27_1206,60.0808387896,MAFE4ImagesEEG,001,100277,
AFNE01.JPG,AFNE01.JPG,AFNE01.JPG,AFNE01.JPG,AFNE01.JPG,AFNE01.JPG,,,,,3,1,31,6,,,,,,,,,,,,,,,,,,,AFNE18.jpg,AFSA19.jpg,AFNE07.jpg,AFSA01.jpg,AFNE07.jpg,FN,3,num_2,48,None,,,,2017_Apr_27_1206,60.0808387896,MAFE4ImagesEEG,001,100277,
AFNE01.JPG,AFNE01.JPG,AFNE01.JPG,AFNE01.JPG,AFNE01.JPG,AFNE01.JPG,,,,,3,2,32,8,,,,,,,,,,,,,,,,,,,AFSA17.jpg,AFNE02.jpg,AFSA14.jpg,AFNE07.jpg,AFSA17.jpg,FS,4,num_8,48,None,,,,2017_Apr_27_1206,60.0808387896,MAFE4ImagesEEG,001,100277,
AFNE01.JPG,AFNE01.JPG,AFNE01.JPG,AFNE01.JPG,AFNE01.JPG,AFNE01.JPG,,,,,3,3,33,1,,,,,,,,,,,,,,,,,,,AFNE01.jpg,AFSA19.jpg,AFNE16.jpg,AFSA11.jpg,AFNE16.jpg,FN,3,num_2,48,None,,,,2017_Apr_27_1206,60.0808387896,MAFE4ImagesEEG,001,100277,
AFNE01.JPG,AFNE01.JPG,AFNE01.JPG,AFNE01.JPG,AFNE01.JPG,AFNE01.JPG,,,,,3,4,34,3,,,,,,,,,,,,,,,,,,,AFSA02.jpg,AFNE02.jpg,AFSA03.jpg,AFNE17.jpg,AFSA03.jpg,FS,4,num_2,16,num_2,2.01671211014,,,2017_Apr_27_1206,60.0808387896,MAFE4ImagesEEG,001,100277,
AFNE01.JPG,AFNE01.JPG,AFNE01.JPG,AFNE01.JPG,AFNE01.JPG,AFNE01.JPG,,,,,3,5,35,5,,,,,,,,,,,,,,,,,,,AFSA17.jpg,AFNE17.jpg,AFNE08.jpg,AFSA15.jpg,AFSA15.jpg,FS,4,num_4,48,None,,,,2017_Apr_27_1206,60.0808387896,MAFE4ImagesEEG,001,100277,
AFNE01.JPG,AFNE01.JPG,AFNE01.JPG,AFNE01.JPG,AFNE01.JPG,AFNE01.JPG,,,,,3,6,36,2,,,,,,,,,,,,,,,,,,,AFNE16.jpg,AFNE06.jpg,AFSA11.jpg,AFSA19.jpg,AFSA11.jpg,FS,4,num_2,48,None,,,,2017_Apr_27_1206,60.0808387896,MAFE4ImagesEEG,001,100277,
AFNE01.JPG,AFNE01.JPG,AFNE01.JPG,AFNE01.JPG,AFNE01.JPG,AFNE01.JPG,,,,,3,7,37,4,,,,,,,,,,,,,,,,,,,AFNE07.jpg,AFSA15.jpg,AFSA17.jpg,AFNE09.jpg,AFSA15.jpg,FS,4,num_6,32,num_2,3.06514659862,,,2017_Apr_27_1206,60.0808387896,MAFE4ImagesEEG,001,100277,
AFNE01.JPG,AFNE01.JPG,AFNE01.JPG,AFNE01.JPG,AFNE01.JPG,AFNE01.JPG,,,,,3,8,38,0,,,,,,,,,,,,,,,,,,,AFNE07.jpg,AFSA14.jpg,AFNE14.jpg,AFSA17.jpg,AFNE07.jpg,FN,3,num_8,32,num_4,4.56677547202,,,2017_Apr_27_1206,60.0808387896,MAFE4ImagesEEG,001,100277,
AFNE01.JPG,AFNE01.JPG,AFNE01.JPG,AFNE01.JPG,AFNE01.JPG,AFNE01.JPG,,,,,3,9,39,9,,,,,,,,,,,,,,,,,,,AFNE17.jpg,AFSA13.jpg,AFNE02.jpg,AFSA19.jpg,AFSA13.jpg,FS,4,num_6,32,num_4,3.71656607755,,,2017_Apr_27_1206,60.0808387896,MAFE4ImagesEEG,001,100277,
AFNE01.JPG,AFNE01.JPG,AFNE01.JPG,AFNE01.JPG,AFNE01.JPG,AFNE01.JPG,,,,,4,0,40,6,,,,,,,,,,,,,,,,,,,AFNE05.jpg,AFNE03.jpg,AFSA14.jpg,AFSA08.jpg,AFSA08.jpg,FS,4,num_4,48,None,,,,2017_Apr_27_1206,60.0808387896,MAFE4ImagesEEG,001,100277,
AFNE01.JPG,AFNE01.JPG,AFNE01.JPG,AFNE01.JPG,AFNE01.JPG,AFNE01.JPG,,,,,4,1,41,9,,,,,,,,,,,,,,,,,,,AFNE19.jpg,AFSA16.jpg,AFNE18.jpg,AFSA03.jpg,AFNE19.jpg,FN,3,num_8,48,None,,,,2017_Apr_27_1206,60.0808387896,MAFE4ImagesEEG,001,100277,
AFNE01.JPG,AFNE01.JPG,AFNE01.JPG,AFNE01.JPG,AFNE01.JPG,AFNE01.JPG,,,,,4,2,42,8,,,,,,,,,,,,,,,,,,,AFNE03.jpg,AFSA09.jpg,AFSA13.jpg,AFNE01.jpg,AFNE03.jpg,FN,3,num_8,32,num_4,2.20000712038,,,2017_Apr_27_1206,60.0808387896,MAFE4ImagesEEG,001,100277,
AFNE01.JPG,AFNE01.JPG,AFNE01.JPG,AFNE01.JPG,AFNE01.JPG,AFNE01.JPG,,,,,4,3,43,0,,,,,,,,,,,,,,,,,,,AFNE09.jpg,AFSA19.jpg,AFNE16.jpg,AFSA01.jpg,AFNE16.jpg,FN,3,num_2,48,None,,,,2017_Apr_27_1206,60.0808387896,MAFE4ImagesEEG,001,100277,
AFNE01.JPG,AFNE01.JPG,AFNE01.JPG,AFNE01.JPG,AFNE01.JPG,AFNE01.JPG,,,,,4,4,44,3,,,,,,,,,,,,,,,,,,,AFSA01.jpg,AFNE03.jpg,AFSA19.jpg,AFNE04.jpg,AFSA01.jpg,FS,4,num_8,48,None,,,,2017_Apr_27_1206,60.0808387896,MAFE4ImagesEEG,001,100277,
AFNE01.JPG,AFNE01.JPG,AFNE01.JPG,AFNE01.JPG,AFNE01.JPG,AFNE01.JPG,,,,,4,5,45,4,,,,,,,,,,,,,,,,,,,AFNE16.jpg,AFNE10.jpg,AFSA11.jpg,AFSA20.jpg,AFSA20.jpg,FS,4,num_4,48,None,,,,2017_Apr_27_1206,60.0808387896,MAFE4ImagesEEG,001,100277,
AFNE01.JPG,AFNE01.JPG,AFNE01.JPG,AFNE01.JPG,AFNE01.JPG,AFNE01.JPG,,,,,4,6,46,5,,,,,,,,,,,,,,,,,,,AFNE12.jpg,AFNE19.jpg,AFSA06.jpg,AFSA07.jpg,AFNE19.jpg,FN,3,num_6,48,None,,,,2017_Apr_27_1206,60.0808387896,MAFE4ImagesEEG,001,100277,
AFNE01.JPG,AFNE01.JPG,AFNE01.JPG,AFNE01.JPG,AFNE01.JPG,AFNE01.JPG,,,,,4,7,47,2,,,,,,,,,,,,,,,,,,,AFNE02.jpg,AFNE08.jpg,AFSA05.jpg,AFSA09.jpg,AFSA09.jpg,FS,4,num_4,48,None,,,,2017_Apr_27_1206,60.0808387896,MAFE4ImagesEEG,001,100277,
AFNE01.JPG,AFNE01.JPG,AFNE01.JPG,AFNE01.JPG,AFNE01.JPG,AFNE01.JPG,,,,,4,8,48,1,,,,,,,,,,,,,,,,,,,AFNE09.jpg,AFSA12.jpg,AFSA17.jpg,AFNE12.jpg,AFNE12.jpg,FN,3,num_4,16,num_4,3.14993429661,,,2017_Apr_27_1206,60.0808387896,MAFE4ImagesEEG,001,100277,
AFNE01.JPG,AFNE01.JPG,AFNE01.JPG,AFNE01.JPG,AFNE01.JPG,AFNE01.JPG,,,,,4,9,49,7,,,,,,,,,,,,,,,,,,,AFNE20.jpg,AFNE10.jpg,AFSA08.jpg,AFSA01.jpg,AFSA01.jpg,FS,4,num_4,16,num_4,1.56668534433,,,2017_Apr_27_1206,60.0808387896,MAFE4ImagesEEG,001,100277,
AFNE01.JPG,AFNE01.JPG,AFNE01.JPG,AFNE01.JPG,AFNE01.JPG,AFNE01.JPG,,,,,5,0,50,8,,,,,,,,,,,,,,,,,,,AFNE12.jpg,AFSA11.jpg,AFSA01.jpg,AFNE16.jpg,AFNE16.jpg,FN,3,num_4,48,None,,,,2017_Apr_27_1206,60.0808387896,MAFE4ImagesEEG,001,100277,
AFNE01.JPG,AFNE01.JPG,AFNE01.JPG,AFNE01.JPG,AFNE01.JPG,AFNE01.JPG,,,,,5,1,51,9,,,,,,,,,,,,,,,,,,,AFSA06.jpg,AFNE06.jpg,AFNE17.jpg,AFSA18.jpg,AFNE06.jpg,FN,3,num_6,48,None,,,,2017_Apr_27_1206,60.0808387896,MAFE4ImagesEEG,001,100277,
AFNE01.JPG,AFNE01.JPG,AFNE01.JPG,AFNE01.JPG,AFNE01.JPG,AFNE01.JPG,,,,,5,2,52,3,,,,,,,,,,,,,,,,,,,AFSA17.jpg,AFNE11.jpg,AFNE01.jpg,AFSA09.jpg,AFNE01.jpg,FN,3,num_2,48,None,,,,2017_Apr_27_1206,60.0808387896,MAFE4ImagesEEG,001,100277,
AFNE01.JPG,AFNE01.JPG,AFNE01.JPG,AFNE01.JPG,AFNE01.JPG,AFNE01.JPG,,,,,5,3,53,6,,,,,,,,,,,,,,,,,,,AFSA09.jpg,AFNE08.jpg,AFSA04.jpg,AFNE11.jpg,AFNE11.jpg,FN,3,num_4,16,num_4,1.70008297509,,,2017_Apr_27_1206,60.0808387896,MAFE4ImagesEEG,001,100277,
AFNE01.JPG,AFNE01.JPG,AFNE01.JPG,AFNE01.JPG,AFNE01.JPG,AFNE01.JPG,,,,,5,4,54,1,,,,,,,,,,,,,,,,,,,AFSA14.jpg,AFNE01.jpg,AFSA06.jpg,AFNE02.jpg,AFNE01.jpg,FN,3,num_6,32,num_4,1.51667923422,,,2017_Apr_27_1206,60.0808387896,MAFE4ImagesEEG,001,100277,
AFNE01.JPG,AFNE01.JPG,AFNE01.JPG,AFNE01.JPG,AFNE01.JPG,AFNE01.JPG,,,,,5,5,55,2,,,,,,,,,,,,,,,,,,,AFSA17.jpg,AFNE10.jpg,AFNE04.jpg,AFSA06.jpg,AFNE10.jpg,FN,3,num_6,32,num_2,4.84984054451,,,2017_Apr_27_1206,60.0808387896,MAFE4ImagesEEG,001,100277,
AFNE01.JPG,AFNE01.JPG,AFNE01.JPG,AFNE01.JPG,AFNE01.JPG,AFNE01.JPG,,,,,5,6,56,0,,,,,,,,,,,,,,,,,,,AFNE04.jpg,AFSA10.jpg,AFSA09.jpg,AFNE14.jpg,AFNE04.jpg,FN,3,num_8,48,None,,,,2017_Apr_27_1206,60.0808387896,MAFE4ImagesEEG,001,100277,
AFNE01.JPG,AFNE01.JPG,AFNE01.JPG,AFNE01.JPG,AFNE01.JPG,AFNE01.JPG,,,,,5,7,57,4,,,,,,,,,,,,,,,,,,,AFSA12.jpg,AFNE06.jpg,AFNE11.jpg,AFSA16.jpg,AFSA16.jpg,FS,4,num_4,32,num_2,1.91669155075,,,2017_Apr_27_1206,60.0808387896,MAFE4ImagesEEG,001,100277,
AFNE01.JPG,AFNE01.JPG,AFNE01.JPG,AFNE01.JPG,AFNE01.JPG,AFNE01.JPG,,,,,5,8,58,7,,,,,,,,,,,,,,,,,,,AFSA14.jpg,AFNE03.jpg,AFNE18.jpg,AFSA20.jpg,AFSA14.jpg,FS,4,num_8,32,num_4,2.10007380205,,,2017_Apr_27_1206,60.0808387896,MAFE4ImagesEEG,001,100277,
AFNE01.JPG,AFNE01.JPG,AFNE01.JPG,AFNE01.JPG,AFNE01.JPG,AFNE01.JPG,,,,,5,9,59,5,,,,,,,,,,,,,,,,,,,AFNE13.jpg,AFSA06.jpg,AFSA08.jpg,AFNE15.jpg,AFNE13.jpg,FN,3,num_8,48,None,,,,2017_Apr_27_1206,60.0808387896,MAFE4ImagesEEG,001,100277,
,,,,,,,,,,,,,,,,,,,,,,,,,,,,,,,,,,,,,,,,,,,space,6.18299479852,2017_Apr_27_1206,60.0808387896,MAFE4ImagesEEG,001,100277,
AFNE01.JPG,AFNE01.JPG,AFNE01.JPG,AFNE01.JPG,AFNE01.JPG,AFNE01.JPG,,,,,,,,,0,0,0,9,,,,,,,,,,,,,,,AMNE01.jpg,AMNE07.jpg,AMSA03.jpg,AMSA16.jpg,AMSA03.jpg,MS,2,num_2,48,None,,,,2017_Apr_27_1206,60.0808387896,MAFE4ImagesEEG,001,100277,
AFNE01.JPG,AFNE01.JPG,AFNE01.JPG,AFNE01.JPG,AFNE01.JPG,AFNE01.JPG,,,,,,,,,0,1,1,8,,,,,,,,,,,,,,,AMNE03.jpg,AMSA11.jpg,AMNE08.jpg,AMSA16.jpg,AMSA11.jpg,MS,2,num_6,48,None,,,,2017_Apr_27_1206,60.0808387896,MAFE4ImagesEEG,001,100277,
AFNE01.JPG,AFNE01.JPG,AFNE01.JPG,AFNE01.JPG,AFNE01.JPG,AFNE01.JPG,,,,,,,,,0,2,2,4,,,,,,,,,,,,,,,AMNE05.jpg,AMNE03.jpg,AMSA02.jpg,AMSA01.jpg,AMNE05.jpg,MN,1,num_8,32,num_4,2.01646257506,,,2017_Apr_27_1206,60.0808387896,MAFE4ImagesEEG,001,100277,
AFNE01.JPG,AFNE01.JPG,AFNE01.JPG,AFNE01.JPG,AFNE01.JPG,AFNE01.JPG,,,,,,,,,0,3,3,1,,,,,,,,,,,,,,,AMSA14.jpg,AMNE13.jpg,AMSA08.jpg,AMNE02.jpg,AMSA08.jpg,MS,2,num_2,16,num_2,1.23343294417,,,2017_Apr_27_1206,60.0808387896,MAFE4ImagesEEG,001,100277,
AFNE01.JPG,AFNE01.JPG,AFNE01.JPG,AFNE01.JPG,AFNE01.JPG,AFNE01.JPG,,,,,,,,,0,4,4,0,,,,,,,,,,,,,,,AMNE03.jpg,AMSA20.jpg,AMSA01.jpg,AMNE12.jpg,AMNE12.jpg,MN,1,num_4,16,num_4,1.10008085833,,,2017_Apr_27_1206,60.0808387896,MAFE4ImagesEEG,001,100277,
AFNE01.JPG,AFNE01.JPG,AFNE01.JPG,AFNE01.JPG,AFNE01.JPG,AFNE01.JPG,,,,,,,,,0,5,5,6,,,,,,,,,,,,,,,AMNE13.jpg,AMNE07.jpg,AMSA20.jpg,AMSA06.jpg,AMSA06.jpg,MS,2,num_4,32,num_2,2.64997005893,,,2017_Apr_27_1206,60.0808387896,MAFE4ImagesEEG,001,100277,
AFNE01.JPG,AFNE01.JPG,AFNE01.JPG,AFNE01.JPG,AFNE01.JPG,AFNE01.JPG,,,,,,,,,0,6,6,2,,,,,,,,,,,,,,,AMNE04.jpg,AMSA01.jpg,AMSA14.jpg,AMNE19.jpg,AMNE04.jpg,MN,1,num_8,32,num_4,1.5500280807,,,2017_Apr_27_1206,60.0808387896,MAFE4ImagesEEG,001,100277,
AFNE01.JPG,AFNE01.JPG,AFNE01.JPG,AFNE01.JPG,AFNE01.JPG,AFNE01.JPG,,,,,,,,,0,7,7,7,,,,,,,,,,,,,,,AMSA20.jpg,AMNE03.jpg,AMSA18.jpg,AMNE18.jpg,AMNE03.jpg,MN,1,num_6,48,None,,,,2017_Apr_27_1206,60.0808387896,MAFE4ImagesEEG,001,100277,
AFNE01.JPG,AFNE01.JPG,AFNE01.JPG,AFNE01.JPG,AFNE01.JPG,AFNE01.JPG,,,,,,,,,0,8,8,3,,,,,,,,,,,,,,,AMSA05.jpg,AMNE05.jpg,AMNE08.jpg,AMSA07.jpg,AMNE05.jpg,MN,1,num_6,32,num_2,1.18345858739,,,2017_Apr_27_1206,60.0808387896,MAFE4ImagesEEG,001,100277,
AFNE01.JPG,AFNE01.JPG,AFNE01.JPG,AFNE01.JPG,AFNE01.JPG,AFNE01.JPG,,,,,,,,,0,9,9,5,,,,,,,,,,,,,,,AMNE09.jpg,AMNE01.jpg,AMSA12.jpg,AMSA20.jpg,AMSA20.jpg,MS,2,num_4,16,num_4,1.61673539563,,,2017_Apr_27_1206,60.0808387896,MAFE4ImagesEEG,001,100277,
AFNE01.JPG,AFNE01.JPG,AFNE01.JPG,AFNE01.JPG,AFNE01.JPG,AFNE01.JPG,,,,,,,,,1,0,10,2,,,,,,,,,,,,,,,AMSA11.jpg,AMNE11.jpg,AMSA08.jpg,AMNE20.jpg,AMSA11.jpg,MS,2,num_8,32,num_2,0.883489281987,,,2017_Apr_27_1206,60.0808387896,MAFE4ImagesEEG,001,100277,
AFNE01.JPG,AFNE01.JPG,AFNE01.JPG,AFNE01.JPG,AFNE01.JPG,AFNE01.JPG,,,,,,,,,1,1,11,5,,,,,,,,,,,,,,,AMNE13.jpg,AMSA12.jpg,AMSA11.jpg,AMNE11.jpg,AMSA12.jpg,MS,2,num_6,32,num_2,1.0500452402,,,2017_Apr_27_1206,60.0808387896,MAFE4ImagesEEG,001,100277,
AFNE01.JPG,AFNE01.JPG,AFNE01.JPG,AFNE01.JPG,AFNE01.JPG,AFNE01.JPG,,,,,,,,,1,2,12,0,,,,,,,,,,,,,,,AMNE16.jpg,AMSA20.jpg,AMSA19.jpg,AMNE19.jpg,AMSA19.jpg,MS,2,num_2,48,None,,,,2017_Apr_27_1206,60.0808387896,MAFE4ImagesEEG,001,100277,
AFNE01.JPG,AFNE01.JPG,AFNE01.JPG,AFNE01.JPG,AFNE01.JPG,AFNE01.JPG,,,,,,,,,1,3,13,7,,,,,,,,,,,,,,,AMNE10.jpg,AMSA12.jpg,AMNE04.jpg,AMSA18.jpg,AMSA12.jpg,MS,2,num_6,32,num_2,3.91657865047,,,2017_Apr_27_1206,60.0808387896,MAFE4ImagesEEG,001,100277,
AFNE01.JPG,AFNE01.JPG,AFNE01.JPG,AFNE01.JPG,AFNE01.JPG,AFNE01.JPG,,,,,,,,,1,4,14,8,,,,,,,,,,,,,,,AMSA15.jpg,AMNE09.jpg,AMSA03.jpg,AMNE13.jpg,AMNE09.jpg,MN,1,num_6,32,num_4,1.88337798556,,,2017_Apr_27_1206,60.0808387896,MAFE4ImagesEEG,001,100277,
AFNE01.JPG,AFNE01.JPG,AFNE01.JPG,AFNE01.JPG,AFNE01.JPG,AFNE01.JPG,,,,,,,,,1,5,15,1,,,,,,,,,,,,,,,AMSA18.jpg,AMNE06.jpg,AMNE14.jpg,AMSA06.jpg,AMSA06.jpg,MS,2,num_4,16,num_4,1.28340441443,,,2017_Apr_27_1206,60.0808387896,MAFE4ImagesEEG,001,100277,
AFNE01.JPG,AFNE01.JPG,AFNE01.JPG,AFNE01.JPG,AFNE01.JPG,AFNE01.JPG,,,,,,,,,1,6,16,3,,,,,,,,,,,,,,,AMNE11.jpg,AMSA13.jpg,AMSA12.jpg,AMNE02.jpg,AMNE02.jpg,MN,1,num_4,16,num_4,1.3833932206,,,2017_Apr_27_1206,60.0808387896,MAFE4ImagesEEG,001,100277,
AFNE01.JPG,AFNE01.JPG,AFNE01.JPG,AFNE01.JPG,AFNE01.JPG,AFNE01.JPG,,,,,,,,,1,7,17,4,,,,,,,,,,,,,,,AMNE05.jpg,AMSA16.jpg,AMNE01.jpg,AMSA03.jpg,AMNE05.jpg,MN,1,num_8,48,None,,,,2017_Apr_27_1206,60.0808387896,MAFE4ImagesEEG,001,100277,
AFNE01.JPG,AFNE01.JPG,AFNE01.JPG,AFNE01.JPG,AFNE01.JPG,AFNE01.JPG,,,,,,,,,1,8,18,9,,,,,,,,,,,,,,,AMNE13.jpg,AMSA04.jpg,AMNE19.jpg,AMSA02.jpg,AMNE13.jpg,MN,1,num_8,32,num_2,3.01660466241,,,2017_Apr_27_1206,60.0808387896,MAFE4ImagesEEG,001,100277,
AFNE01.JPG,AFNE01.JPG,AFNE01.JPG,AFNE01.JPG,AFNE01.JPG,AFNE01.JPG,,,,,,,,,1,9,19,6,,,,,,,,,,,,,,,AMSA20.jpg,AMNE16.jpg,AMNE05.jpg,AMSA10.jpg,AMSA10.jpg,MS,2,num_4,48,None,,,,2017_Apr_27_1206,60.0808387896,MAFE4ImagesEEG,001,100277,
AFNE01.JPG,AFNE01.JPG,AFNE01.JPG,AFNE01.JPG,AFNE01.JPG,AFNE01.JPG,,,,,,,,,2,0,20,2,,,,,,,,,,,,,,,AMSA16.jpg,AMSA12.jpg,AMNE10.jpg,AMNE07.jpg,AMNE07.jpg,MN,1,num_4,16,num_4,1.40008191671,,,2017_Apr_27_1206,60.0808387896,MAFE4ImagesEEG,001,100277,
AFNE01.JPG,AFNE01.JPG,AFNE01.JPG,AFNE01.JPG,AFNE01.JPG,AFNE01.JPG,,,,,,,,,2,1,21,1,,,,,,,,,,,,,,,AMNE05.jpg,AMSA09.jpg,AMSA02.jpg,AMNE09.jpg,AMSA02.jpg,MS,2,num_2,16,num_2,2.9835528204,,,2017_Apr_27_1206,60.0808387896,MAFE4ImagesEEG,001,100277,
AFNE01.JPG,AFNE01.JPG,AFNE01.JPG,AFNE01.JPG,AFNE01.JPG,AFNE01.JPG,,,,,,,,,2,2,22,7,,,,,,,,,,,,,,,AMSA16.jpg,AMNE18.jpg,AMSA05.jpg,AMNE13.jpg,AMSA16.jpg,MS,2,num_8,48,None,,,,2017_Apr_27_1206,60.0808387896,MAFE4ImagesEEG,001,100277,
AFNE01.JPG,AFNE01.JPG,AFNE01.JPG,AFNE01.JPG,AFNE01.JPG,AFNE01.JPG,,,,,,,,,2,3,23,3,,,,,,,,,,,,,,,AMSA17.jpg,AMSA18.jpg,AMNE02.jpg,AMNE10.jpg,AMSA17.jpg,MS,2,num_8,32,num_4,1.98344922171,,,2017_Apr_27_1206,60.0808387896,MAFE4ImagesEEG,001,100277,
AFNE01.JPG,AFNE01.JPG,AFNE01.JPG,AFNE01.JPG,AFNE01.JPG,AFNE01.JPG,,,,,,,,,2,4,24,0,,,,,,,,,,,,,,,AMSA11.jpg,AMSA05.jpg,AMNE03.jpg,AMNE10.jpg,AMNE10.jpg,MN,1,num_4,48,None,,,,2017_Apr_27_1206,60.0808387896,MAFE4ImagesEEG,001,100277,
AFNE01.JPG,AFNE01.JPG,AFNE01.JPG,AFNE01.JPG,AFNE01.JPG,AFNE01.JPG,,,,,,,,,2,5,25,8,,,,,,,,,,,,,,,AMSA11.jpg,AMSA09.jpg,AMNE17.jpg,AMNE16.jpg,AMNE16.jpg,MN,1,num_4,48,None,,,,2017_Apr_27_1206,60.0808387896,MAFE4ImagesEEG,001,100277,
AFNE01.JPG,AFNE01.JPG,AFNE01.JPG,AFNE01.JPG,AFNE01.JPG,AFNE01.JPG,,,,,,,,,2,6,26,9,,,,,,,,,,,,,,,AMSA08.jpg,AMSA14.jpg,AMNE05.jpg,AMNE11.jpg,AMSA14.jpg,MS,2,num_6,48,None,,,,2017_Apr_27_1206,60.0808387896,MAFE4ImagesEEG,001,100277,
AFNE01.JPG,AFNE01.JPG,AFNE01.JPG,AFNE01.JPG,AFNE01.JPG,AFNE01.JPG,,,,,,,,,2,7,27,5,,,,,,,,,,,,,,,AMSA07.jpg,AMNE18.jpg,AMNE16.jpg,AMSA03.jpg,AMSA03.jpg,MS,2,num_4,48,None,,,,2017_Apr_27_1206,60.0808387896,MAFE4ImagesEEG,001,100277,
AFNE01.JPG,AFNE01.JPG,AFNE01.JPG,AFNE01.JPG,AFNE01.JPG,AFNE01.JPG,,,,,,,,,2,8,28,4,,,,,,,,,,,,,,,AMNE16.jpg,AMSA07.jpg,AMNE06.jpg,AMSA18.jpg,AMNE06.jpg,MN,1,num_2,48,None,,,,2017_Apr_27_1206,60.0808387896,MAFE4ImagesEEG,001,100277,
AFNE01.JPG,AFNE01.JPG,AFNE01.JPG,AFNE01.JPG,AFNE01.JPG,AFNE01.JPG,,,,,,,,,2,9,29,6,,,,,,,,,,,,,,,AMNE20.jpg,AMSA02.jpg,AMNE08.jpg,AMSA04.jpg,AMSA04.jpg,MS,2,num_4,48,None,,,,2017_Apr_27_1206,60.0808387896,MAFE4ImagesEEG,001,100277,
AFNE01.JPG,AFNE01.JPG,AFNE01.JPG,AFNE01.JPG,AFNE01.JPG,AFNE01.JPG,,,,,,,,,3,0,30,0,,,,,,,,,,,,,,,AMSA14.jpg,AMNE06.jpg,AMNE04.jpg,AMSA09.jpg,AMSA09.jpg,MS,2,num_4,48,None,,,,2017_Apr_27_1206,60.0808387896,MAFE4ImagesEEG,001,100277,
AFNE01.JPG,AFNE01.JPG,AFNE01.JPG,AFNE01.JPG,AFNE01.JPG,AFNE01.JPG,,,,,,,,,3,1,31,6,,,,,,,,,,,,,,,AMNE08.jpg,AMSA13.jpg,AMNE14.jpg,AMSA01.jpg,AMNE14.jpg,MN,1,num_2,48,None,,,,2017_Apr_27_1206,60.0808387896,MAFE4ImagesEEG,001,100277,
AFNE01.JPG,AFNE01.JPG,AFNE01.JPG,AFNE01.JPG,AFNE01.JPG,AFNE01.JPG,,,,,,,,,3,2,32,2,,,,,,,,,,,,,,,AMSA20.jpg,AMNE04.jpg,AMNE06.jpg,AMSA14.jpg,AMSA14.jpg,MS,2,num_4,16,num_4,3.73318805988,,,2017_Apr_27_1206,60.0808387896,MAFE4ImagesEEG,001,100277,
AFNE01.JPG,AFNE01.JPG,AFNE01.JPG,AFNE01.JPG,AFNE01.JPG,AFNE01.JPG,,,,,,,,,3,3,33,5,,,,,,,,,,,,,,,AMNE07.jpg,AMSA02.jpg,AMNE05.jpg,AMSA11.jpg,AMSA11.jpg,MS,2,num_4,48,None,,,,2017_Apr_27_1206,60.0808387896,MAFE4ImagesEEG,001,100277,
AFNE01.JPG,AFNE01.JPG,AFNE01.JPG,AFNE01.JPG,AFNE01.JPG,AFNE01.JPG,,,,,,,,,3,4,34,7,,,,,,,,,,,,,,,AMSA13.jpg,AMSA09.jpg,AMNE14.jpg,AMNE11.jpg,AMNE14.jpg,MN,1,num_2,16,num_2,1.66668730089,,,2017_Apr_27_1206,60.0808387896,MAFE4ImagesEEG,001,100277,
AFNE01.JPG,AFNE01.JPG,AFNE01.JPG,AFNE01.JPG,AFNE01.JPG,AFNE01.JPG,,,,,,,,,3,5,35,4,,,,,,,,,,,,,,,AMNE09.jpg,AMNE05.jpg,AMSA07.jpg,AMSA14.jpg,AMSA07.jpg,MS,2,num_2,16,num_2,2.18332932936,,,2017_Apr_27_1206,60.0808387896,MAFE4ImagesEEG,001,100277,
AFNE01.JPG,AFNE01.JPG,AFNE01.JPG,AFNE01.JPG,AFNE01.JPG,AFNE01.JPG,,,,,,,,,3,6,36,8,,,,,,,,,,,,,,,AMNE19.jpg,AMNE13.jpg,AMSA01.jpg,AMSA14.jpg,AMSA01.jpg,MS,2,num_2,32,num_4,1.61672320764,,,2017_Apr_27_1206,60.0808387896,MAFE4ImagesEEG,001,100277,
AFNE01.JPG,AFNE01.JPG,AFNE01.JPG,AFNE01.JPG,AFNE01.JPG,AFNE01.JPG,,,,,,,,,3,7,37,1,,,,,,,,,,,,,,,AMSA12.jpg,AMSA11.jpg,AMNE12.jpg,AMNE08.jpg,AMNE12.jpg,MN,1,num_2,32,num_4,1.70001465781,,,2017_Apr_27_1206,60.0808387896,MAFE4ImagesEEG,001,100277,
AFNE01.JPG,AFNE01.JPG,AFNE01.JPG,AFNE01.JPG,AFNE01.JPG,AFNE01.JPG,,,,,,,,,3,8,38,3,,,,,,,,,,,,,,,AMSA06.jpg,AMSA10.jpg,AMNE02.jpg,AMNE01.jpg,AMSA06.jpg,MS,2,num_8,48,None,,,,2017_Apr_27_1206,60.0808387896,MAFE4ImagesEEG,001,100277,
AFNE01.JPG,AFNE01.JPG,AFNE01.JPG,AFNE01.JPG,AFNE01.JPG,AFNE01.JPG,,,,,,,,,3,9,39,9,,,,,,,,,,,,,,,AMNE07.jpg,AMNE05.jpg,AMSA20.jpg,AMSA18.jpg,AMSA20.jpg,MS,2,num_2,16,num_2,2.11670668959,,,2017_Apr_27_1206,60.0808387896,MAFE4ImagesEEG,001,100277,
AFNE01.JPG,AFNE01.JPG,AFNE01.JPG,AFNE01.JPG,AFNE01.JPG,AFNE01.JPG,,,,,,,,,4,0,40,3,,,,,,,,,,,,,,,AMSA09.jpg,AMNE10.jpg,AMSA17.jpg,AMNE13.jpg,AMNE10.jpg,MN,1,num_6,32,num_4,2.83335712145,,,2017_Apr_27_1206,60.0808387896,MAFE4ImagesEEG,001,100277,
AFNE01.JPG,AFNE01.JPG,AFNE01.JPG,AFNE01.JPG,AFNE01.JPG,AFNE01.JPG,,,,,,,,,4,1,41,0,,,,,,,,,,,,,,,AMNE06.jpg,AMSA05.jpg,AMSA01.jpg,AMNE12.jpg,AMSA01.jpg,MS,2,num_2,48,None,,,,2017_Apr_27_1206,60.0808387896,MAFE4ImagesEEG,001,100277,
AFNE01.JPG,AFNE01.JPG,AFNE01.JPG,AFNE01.JPG,AFNE01.JPG,AFNE01.JPG,,,,,,,,,4,2,42,6,,,,,,,,,,,,,,,AMSA10.jpg,AMSA19.jpg,AMNE12.jpg,AMNE01.jpg,AMNE12.jpg,MN,1,num_2,48,None,,,,2017_Apr_27_1206,60.0808387896,MAFE4ImagesEEG,001,100277,
AFNE01.JPG,AFNE01.JPG,AFNE01.JPG,AFNE01.JPG,AFNE01.JPG,AFNE01.JPG,,,,,,,,,4,3,43,2,,,,,,,,,,,,,,,AMNE10.jpg,AMSA14.jpg,AMNE17.jpg,AMSA04.jpg,AMNE17.jpg,MN,1,num_2,48,None,,,,2017_Apr_27_1206,60.0808387896,MAFE4ImagesEEG,001,100277,
AFNE01.JPG,AFNE01.JPG,AFNE01.JPG,AFNE01.JPG,AFNE01.JPG,AFNE01.JPG,,,,,,,,,4,4,44,5,,,,,,,,,,,,,,,AMNE10.jpg,AMNE16.jpg,AMSA02.jpg,AMSA10.jpg,AMSA10.jpg,MS,2,num_4,48,None,,,,2017_Apr_27_1206,60.0808387896,MAFE4ImagesEEG,001,100277,
AFNE01.JPG,AFNE01.JPG,AFNE01.JPG,AFNE01.JPG,AFNE01.JPG,AFNE01.JPG,,,,,,,,,4,5,45,7,,,,,,,,,,,,,,,AMSA17.jpg,AMNE07.jpg,AMNE19.jpg,AMSA01.jpg,AMSA17.jpg,MS,2,num_8,32,num_2,1.7000294117,,,2017_Apr_27_1206,60.0808387896,MAFE4ImagesEEG,001,100277,
AFNE01.JPG,AFNE01.JPG,AFNE01.JPG,AFNE01.JPG,AFNE01.JPG,AFNE01.JPG,,,,,,,,,4,6,46,9,,,,,,,,,,,,,,,AMSA14.jpg,AMNE04.jpg,AMSA11.jpg,AMNE09.jpg,AMSA14.jpg,MS,2,num_8,48,None,,,,2017_Apr_27_1206,60.0808387896,MAFE4ImagesEEG,001,100277,
AFNE01.JPG,AFNE01.JPG,AFNE01.JPG,AFNE01.JPG,AFNE01.JPG,AFNE01.JPG,,,,,,,,,4,7,47,4,,,,,,,,,,,,,,,AMSA06.jpg,AMSA12.jpg,AMNE15.jpg,AMNE07.jpg,AMNE07.jpg,MN,1,num_4,16,num_4,2.68336605409,,,2017_Apr_27_1206,60.0808387896,MAFE4ImagesEEG,001,100277,
AFNE01.JPG,AFNE01.JPG,AFNE01.JPG,AFNE01.JPG,AFNE01.JPG,AFNE01.JPG,,,,,,,,,4,8,48,8,,,,,,,,,,,,,,,AMSA04.jpg,AMNE13.jpg,AMNE14.jpg,AMSA17.jpg,AMNE14.jpg,MN,1,num_2,16,num_2,2.59993957274,,,2017_Apr_27_1206,60.0808387896,MAFE4ImagesEEG,001,100277,
AFNE01.JPG,AFNE01.JPG,AFNE01.JPG,AFNE01.JPG,AFNE01.JPG,AFNE01.JPG,,,,,,,,,4,9,49,1,,,,,,,,,,,,,,,AMNE03.jpg,AMNE04.jpg,AMSA07.jpg,AMSA13.jpg,AMNE04.jpg,MN,1,num_6,48,None,,,,2017_Apr_27_1206,60.0808387896,MAFE4ImagesEEG,001,100277,
AFNE01.JPG,AFNE01.JPG,AFNE01.JPG,AFNE01.JPG,AFNE01.JPG,AFNE01.JPG,,,,,,,,,5,0,50,1,,,,,,,,,,,,,,,AMSA02.jpg,AMNE04.jpg,AMSA12.jpg,AMNE17.jpg,AMSA02.jpg,MS,2,num_8,32,num_2,1.23343967972,,,2017_Apr_27_1206,60.0808387896,MAFE4ImagesEEG,001,100277,
AFNE01.JPG,AFNE01.JPG,AFNE01.JPG,AFNE01.JPG,AFNE01.JPG,AFNE01.JPG,,,,,,,,,5,1,51,5,,,,,,,,,,,,,,,AMSA10.jpg,AMSA09.jpg,AMNE12.jpg,AMNE04.jpg,AMSA10.jpg,MS,2,num_8,48,None,,,,2017_Apr_27_1206,60.0808387896,MAFE4ImagesEEG,001,100277,
AFNE01.JPG,AFNE01.JPG,AFNE01.JPG,AFNE01.JPG,AFNE01.JPG,AFNE01.JPG,,,,,,,,,5,2,52,2,,,,,,,,,,,,,,,AMSA10.jpg,AMNE10.jpg,AMNE07.jpg,AMSA16.jpg,AMNE07.jpg,MN,1,num_2,32,num_4,2.48333519895,,,2017_Apr_27_1206,60.0808387896,MAFE4ImagesEEG,001,100277,
AFNE01.JPG,AFNE01.JPG,AFNE01.JPG,AFNE01.JPG,AFNE01.JPG,AFNE01.JPG,,,,,,,,,5,3,53,8,,,,,,,,,,,,,,,AMSA20.jpg,AMNE07.jpg,AMNE20.jpg,AMSA07.jpg,AMSA20.jpg,MS,2,num_8,32,num_2,1.50006013853,,,2017_Apr_27_1206,60.0808387896,MAFE4ImagesEEG,001,100277,
AFNE01.JPG,AFNE01.JPG,AFNE01.JPG,AFNE01.JPG,AFNE01.JPG,AFNE01.JPG,,,,,,,,,5,4,54,7,,,,,,,,,,,,,,,AMSA04.jpg,AMSA10.jpg,AMNE20.jpg,AMNE10.jpg,AMNE10.jpg,MN,1,num_4,16,num_4,2.03333537537,,,2017_Apr_27_1206,60.0808387896,MAFE4ImagesEEG,001,100277,
AFNE01.JPG,AFNE01.JPG,AFNE01.JPG,AFNE01.JPG,AFNE01.JPG,AFNE01.JPG,,,,,,,,,5,5,55,6,,,,,,,,,,,,,,,AMNE14.jpg,AMSA11.jpg,AMSA07.jpg,AMNE02.jpg,AMSA11.jpg,MS,2,num_6,48,None,,,,2017_Apr_27_1206,60.0808387896,MAFE4ImagesEEG,001,100277,
AFNE01.JPG,AFNE01.JPG,AFNE01.JPG,AFNE01.JPG,AFNE01.JPG,AFNE01.JPG,,,,,,,,,5,6,56,0,,,,,,,,,,,,,,,AMNE18.jpg,AMSA17.jpg,AMSA12.jpg,AMNE08.jpg,AMNE18.jpg,MN,1,num_8,32,num_2,3.48325308983,,,2017_Apr_27_1206,60.0808387896,MAFE4ImagesEEG,001,100277,
AFNE01.JPG,AFNE01.JPG,AFNE01.JPG,AFNE01.JPG,AFNE01.JPG,AFNE01.JPG,,,,,,,,,5,7,57,9,,,,,,,,,,,,,,,AMSA08.jpg,AMSA07.jpg,AMNE03.jpg,AMNE19.jpg,AMSA07.jpg,MS,2,num_6,32,num_4,1.65004030091,,,2017_Apr_27_1206,60.0808387896,MAFE4ImagesEEG,001,100277,
AFNE01.JPG,AFNE01.JPG,AFNE01.JPG,AFNE01.JPG,AFNE01.JPG,AFNE01.JPG,,,,,,,,,5,8,58,4,,,,,,,,,,,,,,,AMSA18.jpg,AMNE16.jpg,AMSA15.jpg,AMNE14.jpg,AMNE16.jpg,MN,1,num_6,48,None,,,,2017_Apr_27_1206,60.0808387896,MAFE4ImagesEEG,001,100277,
AFNE01.JPG,AFNE01.JPG,AFNE01.JPG,AFNE01.JPG,AFNE01.JPG,AFNE01.JPG,,,,,,,,,5,9,59,3,,,,,,,,,,,,,,,AMSA18.jpg,AMNE10.jpg,AMNE01.jpg,AMSA05.jpg,AMNE01.jpg,MN,1,num_2,48,None,,,,2017_Apr_27_1206,60.0808387896,MAFE4ImagesEEG,001,100277,
,,,,,,,,,,,,,,,,,,,,,,,,,,,,,,,,,,,,,,,,,,,space,20.5982399763,2017_Apr_27_1206,60.0808387896,MAFE4ImagesEEG,001,100277,
AFNE01.JPG,AFNE01.JPG,AFNE01.JPG,AFNE01.JPG,AFNE01.JPG,AFNE01.JPG,,,,,,,,,,,,,0,0,0,6,,,,,,,,,,,AFNE05.jpg,AFSA19.jpg,AFNE09.jpg,AFSA01.jpg,AFNE09.jpg,FN,3,num_2,48,None,,,,2017_Apr_27_1206,60.0808387896,MAFE4ImagesEEG,001,100277,
AFNE01.JPG,AFNE01.JPG,AFNE01.JPG,AFNE01.JPG,AFNE01.JPG,AFNE01.JPG,,,,,,,,,,,,,0,1,1,7,,,,,,,,,,,AFSA03.jpg,AFSA04.jpg,AFNE16.jpg,AFNE06.jpg,AFNE06.jpg,FN,3,num_4,16,num_4,2.16666404728,,,2017_Apr_27_1206,60.0808387896,MAFE4ImagesEEG,001,100277,
AFNE01.JPG,AFNE01.JPG,AFNE01.JPG,AFNE01.JPG,AFNE01.JPG,AFNE01.JPG,,,,,,,,,,,,,0,2,2,1,,,,,,,,,,,AFSA10.jpg,AFNE09.jpg,AFSA08.jpg,AFNE11.jpg,AFSA10.jpg,FS,4,num_8,48,None,,,,2017_Apr_27_1206,60.0808387896,MAFE4ImagesEEG,001,100277,
AFNE01.JPG,AFNE01.JPG,AFNE01.JPG,AFNE01.JPG,AFNE01.JPG,AFNE01.JPG,,,,,,,,,,,,,0,3,3,8,,,,,,,,,,,AFSA12.jpg,AFNE11.jpg,AFNE08.jpg,AFSA03.jpg,AFNE11.jpg,FN,3,num_6,32,num_2,2.58331855258,,,2017_Apr_27_1206,60.0808387896,MAFE4ImagesEEG,001,100277,
AFNE01.JPG,AFNE01.JPG,AFNE01.JPG,AFNE01.JPG,AFNE01.JPG,AFNE01.JPG,,,,,,,,,,,,,0,4,4,4,,,,,,,,,,,AFSA03.jpg,AFNE07.jpg,AFSA16.jpg,AFNE03.jpg,AFSA16.jpg,FS,4,num_2,32,num_4,2.6666093613,,,2017_Apr_27_1206,60.0808387896,MAFE4ImagesEEG,001,100277,
AFNE01.JPG,AFNE01.JPG,AFNE01.JPG,AFNE01.JPG,AFNE01.JPG,AFNE01.JPG,,,,,,,,,,,,,0,5,5,3,,,,,,,,,,,AFSA16.jpg,AFNE17.jpg,AFSA18.jpg,AFNE14.jpg,AFNE17.jpg,FN,3,num_6,48,None,,,,2017_Apr_27_1206,60.0808387896,MAFE4ImagesEEG,001,100277,
AFNE01.JPG,AFNE01.JPG,AFNE01.JPG,AFNE01.JPG,AFNE01.JPG,AFNE01.JPG,,,,,,,,,,,,,0,6,6,2,,,,,,,,,,,AFSA01.jpg,AFSA12.jpg,AFNE15.jpg,AFNE08.jpg,AFNE15.jpg,FN,3,num_2,48,None,,,,2017_Apr_27_1206,60.0808387896,MAFE4ImagesEEG,001,100277,
AFNE01.JPG,AFNE01.JPG,AFNE01.JPG,AFNE01.JPG,AFNE01.JPG,AFNE01.JPG,,,,,,,,,,,,,0,7,7,9,,,,,,,,,,,AFSA12.jpg,AFSA03.jpg,AFNE13.jpg,AFNE10.jpg,AFNE10.jpg,FN,3,num_4,48,None,,,,2017_Apr_27_1206,60.0808387896,MAFE4ImagesEEG,001,100277,
AFNE01.JPG,AFNE01.JPG,AFNE01.JPG,AFNE01.JPG,AFNE01.JPG,AFNE01.JPG,,,,,,,,,,,,,0,8,8,5,,,,,,,,,,,AFSA08.jpg,AFNE19.jpg,AFSA20.jpg,AFNE16.jpg,AFNE19.jpg,FN,3,num_6,48,None,,,,2017_Apr_27_1206,60.0808387896,MAFE4ImagesEEG,001,100277,
AFNE01.JPG,AFNE01.JPG,AFNE01.JPG,AFNE01.JPG,AFNE01.JPG,AFNE01.JPG,,,,,,,,,,,,,0,9,9,0,,,,,,,,,,,AFSA17.jpg,AFSA01.jpg,AFNE17.jpg,AFNE02.jpg,AFSA17.jpg,FS,4,num_8,32,num_4,2.03334884637,,,2017_Apr_27_1206,60.0808387896,MAFE4ImagesEEG,001,100277,
AFNE01.JPG,AFNE01.JPG,AFNE01.JPG,AFNE01.JPG,AFNE01.JPG,AFNE01.JPG,,,,,,,,,,,,,1,0,10,1,,,,,,,,,,,AFNE01.jpg,AFSA08.jpg,AFNE18.jpg,AFSA17.jpg,AFNE18.jpg,FN,3,num_2,48,None,,,,2017_Apr_27_1206,60.0808387896,MAFE4ImagesEEG,001,100277,
AFNE01.JPG,AFNE01.JPG,AFNE01.JPG,AFNE01.JPG,AFNE01.JPG,AFNE01.JPG,,,,,,,,,,,,,1,1,11,6,,,,,,,,,,,AFNE12.jpg,AFSA05.jpg,AFNE16.jpg,AFSA02.jpg,AFNE12.jpg,FN,3,num_8,32,num_4,2.44976857072,,,2017_Apr_27_1206,60.0808387896,MAFE4ImagesEEG,001,100277,
AFNE01.JPG,AFNE01.JPG,AFNE01.JPG,AFNE01.JPG,AFNE01.JPG,AFNE01.JPG,,,,,,,,,,,,,1,2,12,9,,,,,,,,,,,AFNE08.jpg,AFSA10.jpg,AFNE10.jpg,AFSA16.jpg,AFSA16.jpg,FS,4,num_4,48,None,,,,2017_Apr_27_1206,60.0808387896,MAFE4ImagesEEG,001,100277,
AFNE01.JPG,AFNE01.JPG,AFNE01.JPG,AFNE01.JPG,AFNE01.JPG,AFNE01.JPG,,,,,,,,,,,,,1,3,13,4,,,,,,,,,,,AFNE08.jpg,AFSA02.jpg,AFSA15.jpg,AFNE17.jpg,AFSA02.jpg,FS,4,num_6,32,num_2,2.66687140509,,,2017_Apr_27_1206,60.0808387896,MAFE4ImagesEEG,001,100277,
AFNE01.JPG,AFNE01.JPG,AFNE01.JPG,AFNE01.JPG,AFNE01.JPG,AFNE01.JPG,,,,,,,,,,,,,1,4,14,5,,,,,,,,,,,AFSA01.jpg,AFSA09.jpg,AFNE17.jpg,AFNE19.jpg,AFSA09.jpg,FS,4,num_6,32,num_2,1.31671830034,,,2017_Apr_27_1206,60.0808387896,MAFE4ImagesEEG,001,100277,
AFNE01.JPG,AFNE01.JPG,AFNE01.JPG,AFNE01.JPG,AFNE01.JPG,AFNE01.JPG,,,,,,,,,,,,,1,5,15,7,,,,,,,,,,,AFNE09.jpg,AFSA10.jpg,AFNE16.jpg,AFSA14.jpg,AFNE09.jpg,FN,3,num_8,48,None,,,,2017_Apr_27_1206,60.0808387896,MAFE4ImagesEEG,001,100277,
AFNE01.JPG,AFNE01.JPG,AFNE01.JPG,AFNE01.JPG,AFNE01.JPG,AFNE01.JPG,,,,,,,,,,,,,1,6,16,2,,,,,,,,,,,AFSA18.jpg,AFSA02.jpg,AFNE09.jpg,AFNE11.jpg,AFSA18.jpg,FS,4,num_8,32,num_4,2.7665946394,,,2017_Apr_27_1206,60.0808387896,MAFE4ImagesEEG,001,100277,
AFNE01.JPG,AFNE01.JPG,AFNE01.JPG,AFNE01.JPG,AFNE01.JPG,AFNE01.JPG,,,,,,,,,,,,,1,7,17,0,,,,,,,,,,,AFSA05.jpg,AFSA20.jpg,AFNE15.jpg,AFNE17.jpg,AFSA20.jpg,FS,4,num_6,32,num_2,2.06666273228,,,2017_Apr_27_1206,60.0808387896,MAFE4ImagesEEG,001,100277,
AFNE01.JPG,AFNE01.JPG,AFNE01.JPG,AFNE01.JPG,AFNE01.JPG,AFNE01.JPG,,,,,,,,,,,,,1,8,18,3,,,,,,,,,,,AFNE04.jpg,AFNE09.jpg,AFSA05.jpg,AFSA16.jpg,AFSA16.jpg,FS,4,num_4,32,num_2,2.2666958326,,,2017_Apr_27_1206,60.0808387896,MAFE4ImagesEEG,001,100277,
AFNE01.JPG,AFNE01.JPG,AFNE01.JPG,AFNE01.JPG,AFNE01.JPG,AFNE01.JPG,,,,,,,,,,,,,1,9,19,8,,,,,,,,,,,AFNE03.jpg,AFNE17.jpg,AFSA12.jpg,AFSA06.jpg,AFNE03.jpg,FN,3,num_8,48,None,,,,2017_Apr_27_1206,60.0808387896,MAFE4ImagesEEG,001,100277,
AFNE01.JPG,AFNE01.JPG,AFNE01.JPG,AFNE01.JPG,AFNE01.JPG,AFNE01.JPG,,,,,,,,,,,,,2,0,20,3,,,,,,,,,,,AFNE01.jpg,AFSA01.jpg,AFNE19.jpg,AFSA10.jpg,AFNE01.jpg,FN,3,num_8,48,None,,,,2017_Apr_27_1206,60.0808387896,MAFE4ImagesEEG,001,100277,
AFNE01.JPG,AFNE01.JPG,AFNE01.JPG,AFNE01.JPG,AFNE01.JPG,AFNE01.JPG,,,,,,,,,,,,,2,1,21,2,,,,,,,,,,,AFNE09.jpg,AFNE07.jpg,AFSA06.jpg,AFSA13.jpg,AFSA13.jpg,FS,4,num_4,16,num_4,2.99992911669,,,2017_Apr_27_1206,60.0808387896,MAFE4ImagesEEG,001,100277,
AFNE01.JPG,AFNE01.JPG,AFNE01.JPG,AFNE01.JPG,AFNE01.JPG,AFNE01.JPG,,,,,,,,,,,,,2,2,22,7,,,,,,,,,,,AFNE07.jpg,AFSA01.jpg,AFSA12.jpg,AFNE19.jpg,AFSA12.jpg,FS,4,num_2,48,None,,,,2017_Apr_27_1206,60.0808387896,MAFE4ImagesEEG,001,100277,
AFNE01.JPG,AFNE01.JPG,AFNE01.JPG,AFNE01.JPG,AFNE01.JPG,AFNE01.JPG,,,,,,,,,,,,,2,3,23,6,,,,,,,,,,,AFSA14.jpg,AFNE17.jpg,AFNE19.jpg,AFSA12.jpg,AFSA14.jpg,FS,4,num_8,48,None,,,,2017_Apr_27_1206,60.0808387896,MAFE4ImagesEEG,001,100277,
AFNE01.JPG,AFNE01.JPG,AFNE01.JPG,AFNE01.JPG,AFNE01.JPG,AFNE01.JPG,,,,,,,,,,,,,2,4,24,0,,,,,,,,,,,AFNE12.jpg,AFSA09.jpg,AFSA11.jpg,AFNE05.jpg,AFNE05.jpg,FN,3,num_4,16,num_4,4.11652675492,,,2017_Apr_27_1206,60.0808387896,MAFE4ImagesEEG,001,100277,
AFNE01.JPG,AFNE01.JPG,AFNE01.JPG,AFNE01.JPG,AFNE01.JPG,AFNE01.JPG,,,,,,,,,,,,,2,5,25,8,,,,,,,,,,,AFNE12.jpg,AFNE04.jpg,AFSA09.jpg,AFSA20.jpg,AFSA09.jpg,FS,4,num_2,32,num_4,2.21634236199,,,2017_Apr_27_1206,60.0808387896,MAFE4ImagesEEG,001,100277,
AFNE01.JPG,AFNE01.JPG,AFNE01.JPG,AFNE01.JPG,AFNE01.JPG,AFNE01.JPG,,,,,,,,,,,,,2,6,26,5,,,,,,,,,,,AFSA18.jpg,AFNE04.jpg,AFSA10.jpg,AFNE18.jpg,AFNE04.jpg,FN,3,num_6,48,None,,,,2017_Apr_27_1206,60.0808387896,MAFE4ImagesEEG,001,100277,
AFNE01.JPG,AFNE01.JPG,AFNE01.JPG,AFNE01.JPG,AFNE01.JPG,AFNE01.JPG,,,,,,,,,,,,,2,7,27,4,,,,,,,,,,,AFNE13.jpg,AFSA16.jpg,AFSA10.jpg,AFNE20.jpg,AFSA16.jpg,FS,4,num_6,48,None,,,,2017_Apr_27_1206,60.0808387896,MAFE4ImagesEEG,001,100277,
AFNE01.JPG,AFNE01.JPG,AFNE01.JPG,AFNE01.JPG,AFNE01.JPG,AFNE01.JPG,,,,,,,,,,,,,2,8,28,1,,,,,,,,,,,AFNE20.jpg,AFSA02.jpg,AFSA18.jpg,AFNE08.jpg,AFNE08.jpg,FN,3,num_4,16,num_4,2.58330572303,,,2017_Apr_27_1206,60.0808387896,MAFE4ImagesEEG,001,100277,
AFNE01.JPG,AFNE01.JPG,AFNE01.JPG,AFNE01.JPG,AFNE01.JPG,AFNE01.JPG,,,,,,,,,,,,,2,9,29,9,,,,,,,,,,,AFNE08.jpg,AFSA14.jpg,AFSA19.jpg,AFNE07.jpg,AFSA14.jpg,FS,4,num_6,48,None,,,,2017_Apr_27_1206,60.0808387896,MAFE4ImagesEEG,001,100277,
AFNE01.JPG,AFNE01.JPG,AFNE01.JPG,AFNE01.JPG,AFNE01.JPG,AFNE01.JPG,,,,,,,,,,,,,3,0,30,3,,,,,,,,,,,AFNE02.jpg,AFSA17.jpg,AFSA04.jpg,AFNE03.jpg,AFNE03.jpg,FN,3,num_4,48,None,,,,2017_Apr_27_1206,60.0808387896,MAFE4ImagesEEG,001,100277,
AFNE01.JPG,AFNE01.JPG,AFNE01.JPG,AFNE01.JPG,AFNE01.JPG,AFNE01.JPG,,,,,,,,,,,,,3,1,31,1,,,,,,,,,,,AFSA01.jpg,AFNE03.jpg,AFNE12.jpg,AFSA15.jpg,AFSA15.jpg,FS,4,num_4,32,num_2,2.13334470883,,,2017_Apr_27_1206,60.0808387896,MAFE4ImagesEEG,001,100277,
AFNE01.JPG,AFNE01.JPG,AFNE01.JPG,AFNE01.JPG,AFNE01.JPG,AFNE01.JPG,,,,,,,,,,,,,3,2,32,8,,,,,,,,,,,AFSA11.jpg,AFSA05.jpg,AFNE06.jpg,AFNE18.jpg,AFSA11.jpg,FS,4,num_8,48,None,,,,2017_Apr_27_1206,60.0808387896,MAFE4ImagesEEG,001,100277,
AFNE01.JPG,AFNE01.JPG,AFNE01.JPG,AFNE01.JPG,AFNE01.JPG,AFNE01.JPG,,,,,,,,,,,,,3,3,33,2,,,,,,,,,,,AFNE01.jpg,AFSA15.jpg,AFSA12.jpg,AFNE09.jpg,AFSA15.jpg,FS,4,num_6,48,None,,,,2017_Apr_27_1206,60.0808387896,MAFE4ImagesEEG,001,100277,
AFNE01.JPG,AFNE01.JPG,AFNE01.JPG,AFNE01.JPG,AFNE01.JPG,AFNE01.JPG,,,,,,,,,,,,,3,4,34,5,,,,,,,,,,,AFSA15.jpg,AFNE16.jpg,AFSA13.jpg,AFNE17.jpg,AFNE17.jpg,FN,3,num_4,32,num_2,1.33338903508,,,2017_Apr_27_1206,60.0808387896,MAFE4ImagesEEG,001,100277,
AFNE01.JPG,AFNE01.JPG,AFNE01.JPG,AFNE01.JPG,AFNE01.JPG,AFNE01.JPG,,,,,,,,,,,,,3,5,35,4,,,,,,,,,,,AFNE16.jpg,AFNE08.jpg,AFSA08.jpg,AFSA04.jpg,AFNE16.jpg,FN,3,num_8,32,num_4,4.49969064712,,,2017_Apr_27_1206,60.0808387896,MAFE4ImagesEEG,001,100277,
AFNE01.JPG,AFNE01.JPG,AFNE01.JPG,AFNE01.JPG,AFNE01.JPG,AFNE01.JPG,,,,,,,,,,,,,3,6,36,6,,,,,,,,,,,AFNE10.jpg,AFSA11.jpg,AFSA18.jpg,AFNE19.jpg,AFSA11.jpg,FS,4,num_6,48,None,,,,2017_Apr_27_1206,60.0808387896,MAFE4ImagesEEG,001,100277,
AFNE01.JPG,AFNE01.JPG,AFNE01.JPG,AFNE01.JPG,AFNE01.JPG,AFNE01.JPG,,,,,,,,,,,,,3,7,37,9,,,,,,,,,,,AFSA15.jpg,AFNE13.jpg,AFSA10.jpg,AFNE11.jpg,AFSA15.jpg,FS,4,num_8,48,None,,,,2017_Apr_27_1206,60.0808387896,MAFE4ImagesEEG,001,100277,
AFNE01.JPG,AFNE01.JPG,AFNE01.JPG,AFNE01.JPG,AFNE01.JPG,AFNE01.JPG,,,,,,,,,,,,,3,8,38,0,,,,,,,,,,,AFSA06.jpg,AFNE04.jpg,AFNE05.jpg,AFSA02.jpg,AFSA06.jpg,FS,4,num_8,48,None,,,,2017_Apr_27_1206,60.0808387896,MAFE4ImagesEEG,001,100277,
AFNE01.JPG,AFNE01.JPG,AFNE01.JPG,AFNE01.JPG,AFNE01.JPG,AFNE01.JPG,,,,,,,,,,,,,3,9,39,7,,,,,,,,,,,AFSA15.jpg,AFNE07.jpg,AFNE14.jpg,AFSA08.jpg,AFSA08.jpg,FS,4,num_4,48,None,,,,2017_Apr_27_1206,60.0808387896,MAFE4ImagesEEG,001,100277,
AFNE01.JPG,AFNE01.JPG,AFNE01.JPG,AFNE01.JPG,AFNE01.JPG,AFNE01.JPG,,,,,,,,,,,,,4,0,40,4,,,,,,,,,,,AFSA10.jpg,AFSA06.jpg,AFNE02.jpg,AFNE20.jpg,AFSA06.jpg,FS,4,num_6,48,None,,,,2017_Apr_27_1206,60.0808387896,MAFE4ImagesEEG,001,100277,
AFNE01.JPG,AFNE01.JPG,AFNE01.JPG,AFNE01.JPG,AFNE01.JPG,AFNE01.JPG,,,,,,,,,,,,,4,1,41,7,,,,,,,,,,,AFNE03.jpg,AFNE08.jpg,AFSA20.jpg,AFSA12.jpg,AFNE08.jpg,FN,3,num_6,32,num_2,1.55004475918,,,2017_Apr_27_1206,60.0808387896,MAFE4ImagesEEG,001,100277,
AFNE01.JPG,AFNE01.JPG,AFNE01.JPG,AFNE01.JPG,AFNE01.JPG,AFNE01.JPG,,,,,,,,,,,,,4,2,42,9,,,,,,,,,,,AFSA10.jpg,AFNE14.jpg,AFSA19.jpg,AFNE20.jpg,AFNE14.jpg,FN,3,num_6,32,num_2,0.983576875878,,,2017_Apr_27_1206,60.0808387896,MAFE4ImagesEEG,001,100277,
AFNE01.JPG,AFNE01.JPG,AFNE01.JPG,AFNE01.JPG,AFNE01.JPG,AFNE01.JPG,,,,,,,,,,,,,4,3,43,5,,,,,,,,,,,AFNE05.jpg,AFSA08.jpg,AFSA06.jpg,AFNE11.jpg,AFSA06.jpg,FS,4,num_2,48,None,,,,2017_Apr_27_1206,60.0808387896,MAFE4ImagesEEG,001,100277,
AFNE01.JPG,AFNE01.JPG,AFNE01.JPG,AFNE01.JPG,AFNE01.JPG,AFNE01.JPG,,,,,,,,,,,,,4,4,44,0,,,,,,,,,,,AFSA20.jpg,AFNE03.jpg,AFNE04.jpg,AFSA05.jpg,AFSA20.jpg,FS,4,num_8,32,num_2,1.80006312148,,,2017_Apr_27_1206,60.0808387896,MAFE4ImagesEEG,001,100277,
AFNE01.JPG,AFNE01.JPG,AFNE01.JPG,AFNE01.JPG,AFNE01.JPG,AFNE01.JPG,,,,,,,,,,,,,4,5,45,3,,,,,,,,,,,AFNE05.jpg,AFSA11.jpg,AFSA16.jpg,AFNE14.jpg,AFNE05.jpg,FN,3,num_8,48,None,,,,2017_Apr_27_1206,60.0808387896,MAFE4ImagesEEG,001,100277,
AFNE01.JPG,AFNE01.JPG,AFNE01.JPG,AFNE01.JPG,AFNE01.JPG,AFNE01.JPG,,,,,,,,,,,,,4,6,46,1,,,,,,,,,,,AFSA13.jpg,AFSA07.jpg,AFNE12.jpg,AFNE13.jpg,AFSA13.jpg,FS,4,num_8,32,num_4,2.08334276837,,,2017_Apr_27_1206,60.0808387896,MAFE4ImagesEEG,001,100277,
AFNE01.JPG,AFNE01.JPG,AFNE01.JPG,AFNE01.JPG,AFNE01.JPG,AFNE01.JPG,,,,,,,,,,,,,4,7,47,6,,,,,,,,,,,AFNE15.jpg,AFNE13.jpg,AFSA18.jpg,AFSA16.jpg,AFSA18.jpg,FS,4,num_2,48,None,,,,2017_Apr_27_1206,60.0808387896,MAFE4ImagesEEG,001,100277,
AFNE01.JPG,AFNE01.JPG,AFNE01.JPG,AFNE01.JPG,AFNE01.JPG,AFNE01.JPG,,,,,,,,,,,,,4,8,48,2,,,,,,,,,,,AFSA09.jpg,AFSA10.jpg,AFNE13.jpg,AFNE11.jpg,AFSA10.jpg,FS,4,num_6,48,None,,,,2017_Apr_27_1206,60.0808387896,MAFE4ImagesEEG,001,100277,
AFNE01.JPG,AFNE01.JPG,AFNE01.JPG,AFNE01.JPG,AFNE01.JPG,AFNE01.JPG,,,,,,,,,,,,,4,9,49,8,,,,,,,,,,,AFNE09.jpg,AFNE07.jpg,AFSA19.jpg,AFSA13.jpg,AFNE09.jpg,FN,3,num_8,48,None,,,,2017_Apr_27_1206,60.0808387896,MAFE4ImagesEEG,001,100277,
AFNE01.JPG,AFNE01.JPG,AFNE01.JPG,AFNE01.JPG,AFNE01.JPG,AFNE01.JPG,,,,,,,,,,,,,5,0,50,8,,,,,,,,,,,AFSA17.jpg,AFSA02.jpg,AFNE16.jpg,AFNE02.jpg,AFNE16.jpg,FN,3,num_2,16,num_2,1.41675072699,,,2017_Apr_27_1206,60.0808387896,MAFE4ImagesEEG,001,100277,
AFNE01.JPG,AFNE01.JPG,AFNE01.JPG,AFNE01.JPG,AFNE01.JPG,AFNE01.JPG,,,,,,,,,,,,,5,1,51,4,,,,,,,,,,,AFNE14.jpg,AFSA01.jpg,AFNE16.jpg,AFSA08.jpg,AFSA01.jpg,FS,4,num_6,32,num_2,2.06666241155,,,2017_Apr_27_1206,60.0808387896,MAFE4ImagesEEG,001,100277,
AFNE01.JPG,AFNE01.JPG,AFNE01.JPG,AFNE01.JPG,AFNE01.JPG,AFNE01.JPG,,,,,,,,,,,,,5,2,52,0,,,,,,,,,,,AFNE19.jpg,AFNE16.jpg,AFSA04.jpg,AFSA08.jpg,AFNE16.jpg,FN,3,num_6,32,num_2,2.7999829367,,,2017_Apr_27_1206,60.0808387896,MAFE4ImagesEEG,001,100277,
AFNE01.JPG,AFNE01.JPG,AFNE01.JPG,AFNE01.JPG,AFNE01.JPG,AFNE01.JPG,,,,,,,,,,,,,5,3,53,3,,,,,,,,,,,AFNE10.jpg,AFNE05.jpg,AFSA20.jpg,AFSA07.jpg,AFSA20.jpg,FS,4,num_2,32,num_4,2.21670736314,,,2017_Apr_27_1206,60.0808387896,MAFE4ImagesEEG,001,100277,
AFNE01.JPG,AFNE01.JPG,AFNE01.JPG,AFNE01.JPG,AFNE01.JPG,AFNE01.JPG,,,,,,,,,,,,,5,4,54,1,,,,,,,,,,,AFNE10.jpg,AFSA02.jpg,AFSA09.jpg,AFNE12.jpg,AFSA02.jpg,FS,4,num_6,48,None,,,,2017_Apr_27_1206,60.0808387896,MAFE4ImagesEEG,001,100277,
AFNE01.JPG,AFNE01.JPG,AFNE01.JPG,AFNE01.JPG,AFNE01.JPG,AFNE01.JPG,,,,,,,,,,,,,5,5,55,9,,,,,,,,,,,AFNE16.jpg,AFSA15.jpg,AFSA17.jpg,AFNE10.jpg,AFSA15.jpg,FS,4,num_6,32,num_2,1.23343294428,,,2017_Apr_27_1206,60.0808387896,MAFE4ImagesEEG,001,100277,
AFNE01.JPG,AFNE01.JPG,AFNE01.JPG,AFNE01.JPG,AFNE01.JPG,AFNE01.JPG,,,,,,,,,,,,,5,6,56,7,,,,,,,,,,,AFNE02.jpg,AFNE03.jpg,AFSA01.jpg,AFSA13.jpg,AFSA01.jpg,FS,4,num_2,16,num_2,2.00000962219,,,2017_Apr_27_1206,60.0808387896,MAFE4ImagesEEG,001,100277,
AFNE01.JPG,AFNE01.JPG,AFNE01.JPG,AFNE01.JPG,AFNE01.JPG,AFNE01.JPG,,,,,,,,,,,,,5,7,57,2,,,,,,,,,,,AFNE18.jpg,AFNE03.jpg,AFSA07.jpg,AFSA20.jpg,AFSA07.jpg,FS,4,num_2,32,num_4,2.44998025848,,,2017_Apr_27_1206,60.0808387896,MAFE4ImagesEEG,001,100277,
AFNE01.JPG,AFNE01.JPG,AFNE01.JPG,AFNE01.JPG,AFNE01.JPG,AFNE01.JPG,,,,,,,,,,,,,5,8,58,6,,,,,,,,,,,AFNE20.jpg,AFSA02.jpg,AFSA12.jpg,AFNE13.jpg,AFSA12.jpg,FS,4,num_2,16,num_2,1.06670731504,,,2017_Apr_27_1206,60.0808387896,MAFE4ImagesEEG,001,100277,
AFNE01.JPG,AFNE01.JPG,AFNE01.JPG,AFNE01.JPG,AFNE01.JPG,AFNE01.JPG,,,,,,,,,,,,,5,9,59,5,,,,,,,,,,,AFNE02.jpg,AFSA06.jpg,AFSA04.jpg,AFNE11.jpg,AFSA06.jpg,FS,4,num_6,32,num_4,1.36669875123,,,2017_Apr_27_1206,60.0808387896,MAFE4ImagesEEG,001,100277,
,,,,,,,,,,,,,,,,,,,,,,,,,,,,,,,,,,,,,,,,,,,space,30.9143315525,2017_Apr_27_1206,60.0808387896,MAFE4ImagesEEG,001,100277,
AFNE01.JPG,AFNE01.JPG,AFNE01.JPG,AFNE01.JPG,AFNE01.JPG,AFNE01.JPG,,,,,,,,,,,,,,,,,0,0,0,8,,,,,,,AMNE07.jpg,AMNE15.jpg,AMSA01.jpg,AMSA03.jpg,AMNE07.jpg,MN,1,num_8,48,None,,,,2017_Apr_27_1206,60.0808387896,MAFE4ImagesEEG,001,100277,
AFNE01.JPG,AFNE01.JPG,AFNE01.JPG,AFNE01.JPG,AFNE01.JPG,AFNE01.JPG,,,,,,,,,,,,,,,,,0,1,1,1,,,,,,,AMSA13.jpg,AMNE20.jpg,AMNE15.jpg,AMSA06.jpg,AMNE15.jpg,MN,1,num_2,48,None,,,,2017_Apr_27_1206,60.0808387896,MAFE4ImagesEEG,001,100277,
AFNE01.JPG,AFNE01.JPG,AFNE01.JPG,AFNE01.JPG,AFNE01.JPG,AFNE01.JPG,,,,,,,,,,,,,,,,,0,2,2,4,,,,,,,AMSA15.jpg,AMNE12.jpg,AMNE05.jpg,AMSA12.jpg,AMSA15.jpg,MS,2,num_8,48,None,,,,2017_Apr_27_1206,60.0808387896,MAFE4ImagesEEG,001,100277,
AFNE01.JPG,AFNE01.JPG,AFNE01.JPG,AFNE01.JPG,AFNE01.JPG,AFNE01.JPG,,,,,,,,,,,,,,,,,0,3,3,2,,,,,,,AMNE09.jpg,AMSA01.jpg,AMNE13.jpg,AMSA13.jpg,AMSA13.jpg,MS,2,num_4,32,num_2,3.23296241998,,,2017_Apr_27_1206,60.0808387896,MAFE4ImagesEEG,001,100277,
AFNE01.JPG,AFNE01.JPG,AFNE01.JPG,AFNE01.JPG,AFNE01.JPG,AFNE01.JPG,,,,,,,,,,,,,,,,,0,4,4,9,,,,,,,AMNE11.jpg,AMNE20.jpg,AMSA18.jpg,AMSA04.jpg,AMNE11.jpg,MN,1,num_8,48,None,,,,2017_Apr_27_1206,60.0808387896,MAFE4ImagesEEG,001,100277,
AFNE01.JPG,AFNE01.JPG,AFNE01.JPG,AFNE01.JPG,AFNE01.JPG,AFNE01.JPG,,,,,,,,,,,,,,,,,0,5,5,7,,,,,,,AMSA17.jpg,AMNE02.jpg,AMSA19.jpg,AMNE13.jpg,AMNE02.jpg,MN,1,num_6,48,None,,,,2017_Apr_27_1206,60.0808387896,MAFE4ImagesEEG,001,100277,
AFNE01.JPG,AFNE01.JPG,AFNE01.JPG,AFNE01.JPG,AFNE01.JPG,AFNE01.JPG,,,,,,,,,,,,,,,,,0,6,6,6,,,,,,,AMNE17.jpg,AMSA13.jpg,AMNE18.jpg,AMSA08.jpg,AMNE18.jpg,MN,1,num_2,48,None,,,,2017_Apr_27_1206,60.0808387896,MAFE4ImagesEEG,001,100277,
AFNE01.JPG,AFNE01.JPG,AFNE01.JPG,AFNE01.JPG,AFNE01.JPG,AFNE01.JPG,,,,,,,,,,,,,,,,,0,7,7,0,,,,,,,AMNE07.jpg,AMNE02.jpg,AMSA19.jpg,AMSA04.jpg,AMSA19.jpg,MS,2,num_2,48,None,,,,2017_Apr_27_1206,60.0808387896,MAFE4ImagesEEG,001,100277,
AFNE01.JPG,AFNE01.JPG,AFNE01.JPG,AFNE01.JPG,AFNE01.JPG,AFNE01.JPG,,,,,,,,,,,,,,,,,0,8,8,3,,,,,,,AMSA09.jpg,AMNE03.jpg,AMNE12.jpg,AMSA17.jpg,AMNE03.jpg,MN,1,num_6,32,num_4,2.3166897546,,,2017_Apr_27_1206,60.0808387896,MAFE4ImagesEEG,001,100277,
AFNE01.JPG,AFNE01.JPG,AFNE01.JPG,AFNE01.JPG,AFNE01.JPG,AFNE01.JPG,,,,,,,,,,,,,,,,,0,9,9,5,,,,,,,AMSA13.jpg,AMNE15.jpg,AMSA14.jpg,AMNE19.jpg,AMSA13.jpg,MS,2,num_8,32,num_2,1.75007080322,,,2017_Apr_27_1206,60.0808387896,MAFE4ImagesEEG,001,100277,
AFNE01.JPG,AFNE01.JPG,AFNE01.JPG,AFNE01.JPG,AFNE01.JPG,AFNE01.JPG,,,,,,,,,,,,,,,,,1,0,10,2,,,,,,,AMSA10.jpg,AMNE19.jpg,AMSA01.jpg,AMNE13.jpg,AMSA10.jpg,MS,2,num_8,48,None,,,,2017_Apr_27_1206,60.0808387896,MAFE4ImagesEEG,001,100277,
AFNE01.JPG,AFNE01.JPG,AFNE01.JPG,AFNE01.JPG,AFNE01.JPG,AFNE01.JPG,,,,,,,,,,,,,,,,,1,1,11,9,,,,,,,AMSA09.jpg,AMNE11.jpg,AMSA12.jpg,AMNE16.jpg,AMNE16.jpg,MN,1,num_4,32,num_2,1.15017998265,,,2017_Apr_27_1206,60.0808387896,MAFE4ImagesEEG,001,100277,
AFNE01.JPG,AFNE01.JPG,AFNE01.JPG,AFNE01.JPG,AFNE01.JPG,AFNE01.JPG,,,,,,,,,,,,,,,,,1,2,12,7,,,,,,,AMSA06.jpg,AMNE14.jpg,AMNE03.jpg,AMSA03.jpg,AMNE03.jpg,MN,1,num_2,32,num_4,2.63330124877,,,2017_Apr_27_1206,60.0808387896,MAFE4ImagesEEG,001,100277,
AFNE01.JPG,AFNE01.JPG,AFNE01.JPG,AFNE01.JPG,AFNE01.JPG,AFNE01.JPG,,,,,,,,,,,,,,,,,1,3,13,5,,,,,,,AMNE12.jpg,AMNE10.jpg,AMSA09.jpg,AMSA06.jpg,AMNE12.jpg,MN,1,num_8,48,None,,,,2017_Apr_27_1206,60.0808387896,MAFE4ImagesEEG,001,100277,
AFNE01.JPG,AFNE01.JPG,AFNE01.JPG,AFNE01.JPG,AFNE01.JPG,AFNE01.JPG,,,,,,,,,,,,,,,,,1,4,14,0,,,,,,,AMNE16.jpg,AMSA06.jpg,AMNE01.jpg,AMSA01.jpg,AMSA01.jpg,MS,2,num_4,16,num_4,1.88338119292,,,2017_Apr_27_1206,60.0808387896,MAFE4ImagesEEG,001,100277,
AFNE01.JPG,AFNE01.JPG,AFNE01.JPG,AFNE01.JPG,AFNE01.JPG,AFNE01.JPG,,,,,,,,,,,,,,,,,1,5,15,1,,,,,,,AMSA02.jpg,AMNE12.jpg,AMNE17.jpg,AMSA14.jpg,AMSA02.jpg,MS,2,num_8,32,num_4,2.33430057543,,,2017_Apr_27_1206,60.0808387896,MAFE4ImagesEEG,001,100277,
AFNE01.JPG,AFNE01.JPG,AFNE01.JPG,AFNE01.JPG,AFNE01.JPG,AFNE01.JPG,,,,,,,,,,,,,,,,,1,6,16,4,,,,,,,AMSA15.jpg,AMNE03.jpg,AMNE01.jpg,AMSA20.jpg,AMSA15.jpg,MS,2,num_8,32,num_2,2.25001419266,,,2017_Apr_27_1206,60.0808387896,MAFE4ImagesEEG,001,100277,
AFNE01.JPG,AFNE01.JPG,AFNE01.JPG,AFNE01.JPG,AFNE01.JPG,AFNE01.JPG,,,,,,,,,,,,,,,,,1,7,17,6,,,,,,,AMNE15.jpg,AMSA20.jpg,AMSA16.jpg,AMNE03.jpg,AMNE15.jpg,MN,1,num_8,48,None,,,,2017_Apr_27_1206,60.0808387896,MAFE4ImagesEEG,001,100277,
AFNE01.JPG,AFNE01.JPG,AFNE01.JPG,AFNE01.JPG,AFNE01.JPG,AFNE01.JPG,,,,,,,,,,,,,,,,,1,8,18,8,,,,,,,AMNE18.jpg,AMSA05.jpg,AMNE02.jpg,AMSA13.jpg,AMSA13.jpg,MS,2,num_4,48,None,,,,2017_Apr_27_1206,60.0808387896,MAFE4ImagesEEG,001,100277,
AFNE01.JPG,AFNE01.JPG,AFNE01.JPG,AFNE01.JPG,AFNE01.JPG,AFNE01.JPG,,,,,,,,,,,,,,,,,1,9,19,3,,,,,,,AMSA07.jpg,AMSA04.jpg,AMNE19.jpg,AMNE01.jpg,AMNE01.jpg,MN,1,num_4,32,num_2,1.51666480105,,,2017_Apr_27_1206,60.0808387896,MAFE4ImagesEEG,001,100277,
AFNE01.JPG,AFNE01.JPG,AFNE01.JPG,AFNE01.JPG,AFNE01.JPG,AFNE01.JPG,,,,,,,,,,,,,,,,,2,0,20,0,,,,,,,AMSA13.jpg,AMNE12.jpg,AMSA17.jpg,AMNE19.jpg,AMSA17.jpg,MS,2,num_2,32,num_4,2.06666946784,,,2017_Apr_27_1206,60.0808387896,MAFE4ImagesEEG,001,100277,
AFNE01.JPG,AFNE01.JPG,AFNE01.JPG,AFNE01.JPG,AFNE01.JPG,AFNE01.JPG,,,,,,,,,,,,,,,,,2,1,21,9,,,,,,,AMNE17.jpg,AMSA20.jpg,AMNE18.jpg,AMSA07.jpg,AMSA20.jpg,MS,2,num_6,48,None,,,,2017_Apr_27_1206,60.0808387896,MAFE4ImagesEEG,001,100277,
AFNE01.JPG,AFNE01.JPG,AFNE01.JPG,AFNE01.JPG,AFNE01.JPG,AFNE01.JPG,,,,,,,,,,,,,,,,,2,2,22,1,,,,,,,AMNE11.jpg,AMSA15.jpg,AMNE10.jpg,AMSA06.jpg,AMNE10.jpg,MN,1,num_2,48,None,,,,2017_Apr_27_1206,60.0808387896,MAFE4ImagesEEG,001,100277,
AFNE01.JPG,AFNE01.JPG,AFNE01.JPG,AFNE01.JPG,AFNE01.JPG,AFNE01.JPG,,,,,,,,,,,,,,,,,2,3,23,5,,,,,,,AMNE06.jpg,AMNE13.jpg,AMSA19.jpg,AMSA10.jpg,AMSA19.jpg,MS,2,num_2,16,num_2,3.74986392644,,,2017_Apr_27_1206,60.0808387896,MAFE4ImagesEEG,001,100277,
AFNE01.JPG,AFNE01.JPG,AFNE01.JPG,AFNE01.JPG,AFNE01.JPG,AFNE01.JPG,,,,,,,,,,,,,,,,,2,4,24,8,,,,,,,AMSA17.jpg,AMNE13.jpg,AMSA13.jpg,AMNE18.jpg,AMSA13.jpg,MS,2,num_2,48,None,,,,2017_Apr_27_1206,60.0808387896,MAFE4ImagesEEG,001,100277,
AFNE01.JPG,AFNE01.JPG,AFNE01.JPG,AFNE01.JPG,AFNE01.JPG,AFNE01.JPG,,,,,,,,,,,,,,,,,2,5,25,4,,,,,,,AMSA05.jpg,AMSA17.jpg,AMNE11.jpg,AMNE06.jpg,AMNE06.jpg,MN,1,num_4,32,num_2,0.866801868775,,,2017_Apr_27_1206,60.0808387896,MAFE4ImagesEEG,001,100277,
AFNE01.JPG,AFNE01.JPG,AFNE01.JPG,AFNE01.JPG,AFNE01.JPG,AFNE01.JPG,,,,,,,,,,,,,,,,,2,6,26,2,,,,,,,AMSA18.jpg,AMNE05.jpg,AMSA11.jpg,AMNE02.jpg,AMNE05.jpg,MN,1,num_6,48,None,,,,2017_Apr_27_1206,60.0808387896,MAFE4ImagesEEG,001,100277,
AFNE01.JPG,AFNE01.JPG,AFNE01.JPG,AFNE01.JPG,AFNE01.JPG,AFNE01.JPG,,,,,,,,,,,,,,,,,2,7,27,3,,,,,,,AMNE07.jpg,AMNE17.jpg,AMSA03.jpg,AMSA07.jpg,AMSA03.jpg,MS,2,num_2,16,num_2,2.50000625441,,,2017_Apr_27_1206,60.0808387896,MAFE4ImagesEEG,001,100277,
AFNE01.JPG,AFNE01.JPG,AFNE01.JPG,AFNE01.JPG,AFNE01.JPG,AFNE01.JPG,,,,,,,,,,,,,,,,,2,8,28,7,,,,,,,AMNE18.jpg,AMSA20.jpg,AMNE11.jpg,AMSA14.jpg,AMNE18.jpg,MN,1,num_8,48,None,,,,2017_Apr_27_1206,60.0808387896,MAFE4ImagesEEG,001,100277,
AFNE01.JPG,AFNE01.JPG,AFNE01.JPG,AFNE01.JPG,AFNE01.JPG,AFNE01.JPG,,,,,,,,,,,,,,,,,2,9,29,6,,,,,,,AMSA01.jpg,AMSA03.jpg,AMNE18.jpg,AMNE04.jpg,AMSA03.jpg,MS,2,num_6,32,num_2,2.58331470378,,,2017_Apr_27_1206,60.0808387896,MAFE4ImagesEEG,001,100277,
AFNE01.JPG,AFNE01.JPG,AFNE01.JPG,AFNE01.JPG,AFNE01.JPG,AFNE01.JPG,,,,,,,,,,,,,,,,,3,0,30,2,,,,,,,AMSA13.jpg,AMNE15.jpg,AMSA20.jpg,AMNE02.jpg,AMSA20.jpg,MS,2,num_2,48,None,,,,2017_Apr_27_1206,60.0808387896,MAFE4ImagesEEG,001,100277,
AFNE01.JPG,AFNE01.JPG,AFNE01.JPG,AFNE01.JPG,AFNE01.JPG,AFNE01.JPG,,,,,,,,,,,,,,,,,3,1,31,9,,,,,,,AMSA07.jpg,AMSA05.jpg,AMNE16.jpg,AMNE19.jpg,AMSA05.jpg,MS,2,num_6,32,num_2,1.63336732099,,,2017_Apr_27_1206,60.0808387896,MAFE4ImagesEEG,001,100277,
AFNE01.JPG,AFNE01.JPG,AFNE01.JPG,AFNE01.JPG,AFNE01.JPG,AFNE01.JPG,,,,,,,,,,,,,,,,,3,2,32,7,,,,,,,AMNE17.jpg,AMSA18.jpg,AMSA11.jpg,AMNE13.jpg,AMNE13.jpg,MN,1,num_4,32,num_2,2.15001031174,,,2017_Apr_27_1206,60.0808387896,MAFE4ImagesEEG,001,100277,
AFNE01.JPG,AFNE01.JPG,AFNE01.JPG,AFNE01.JPG,AFNE01.JPG,AFNE01.JPG,,,,,,,,,,,,,,,,,3,3,33,4,,,,,,,AMSA06.jpg,AMNE17.jpg,AMNE02.jpg,AMSA01.jpg,AMNE02.jpg,MN,1,num_2,48,None,,,,2017_Apr_27_1206,60.0808387896,MAFE4ImagesEEG,001,100277,
AFNE01.JPG,AFNE01.JPG,AFNE01.JPG,AFNE01.JPG,AFNE01.JPG,AFNE01.JPG,,,,,,,,,,,,,,,,,3,4,34,8,,,,,,,AMSA17.jpg,AMSA02.jpg,AMNE12.jpg,AMNE06.jpg,AMSA17.jpg,MS,2,num_8,48,None,,,,2017_Apr_27_1206,60.0808387896,MAFE4ImagesEEG,001,100277,
AFNE01.JPG,AFNE01.JPG,AFNE01.JPG,AFNE01.JPG,AFNE01.JPG,AFNE01.JPG,,,,,,,,,,,,,,,,,3,5,35,0,,,,,,,AMNE16.jpg,AMNE10.jpg,AMSA07.jpg,AMSA06.jpg,AMNE16.jpg,MN,1,num_8,48,None,,,,2017_Apr_27_1206,60.0808387896,MAFE4ImagesEEG,001,100277,
AFNE01.JPG,AFNE01.JPG,AFNE01.JPG,AFNE01.JPG,AFNE01.JPG,AFNE01.JPG,,,,,,,,,,,,,,,,,3,6,36,6,,,,,,,AMSA12.jpg,AMNE09.jpg,AMNE03.jpg,AMSA05.jpg,AMSA12.jpg,MS,2,num_8,48,None,,,,2017_Apr_27_1206,60.0808387896,MAFE4ImagesEEG,001,100277,
AFNE01.JPG,AFNE01.JPG,AFNE01.JPG,AFNE01.JPG,AFNE01.JPG,AFNE01.JPG,,,,,,,,,,,,,,,,,3,7,37,3,,,,,,,AMNE01.jpg,AMSA05.jpg,AMSA04.jpg,AMNE03.jpg,AMSA05.jpg,MS,2,num_6,32,num_4,2.8499877638,,,2017_Apr_27_1206,60.0808387896,MAFE4ImagesEEG,001,100277,
AFNE01.JPG,AFNE01.JPG,AFNE01.JPG,AFNE01.JPG,AFNE01.JPG,AFNE01.JPG,,,,,,,,,,,,,,,,,3,8,38,5,,,,,,,AMSA01.jpg,AMNE05.jpg,AMNE17.jpg,AMSA03.jpg,AMNE17.jpg,MN,1,num_2,48,None,,,,2017_Apr_27_1206,60.0808387896,MAFE4ImagesEEG,001,100277,
AFNE01.JPG,AFNE01.JPG,AFNE01.JPG,AFNE01.JPG,AFNE01.JPG,AFNE01.JPG,,,,,,,,,,,,,,,,,3,9,39,1,,,,,,,AMSA10.jpg,AMSA06.jpg,AMNE12.jpg,AMNE18.jpg,AMNE12.jpg,MN,1,num_2,48,None,,,,2017_Apr_27_1206,60.0808387896,MAFE4ImagesEEG,001,100277,
AFNE01.JPG,AFNE01.JPG,AFNE01.JPG,AFNE01.JPG,AFNE01.JPG,AFNE01.JPG,,,,,,,,,,,,,,,,,4,0,40,2,,,,,,,AMNE20.jpg,AMSA05.jpg,AMSA18.jpg,AMNE07.jpg,AMSA05.jpg,MS,2,num_6,32,num_4,3.29988559242,,,2017_Apr_27_1206,60.0808387896,MAFE4ImagesEEG,001,100277,
AFNE01.JPG,AFNE01.JPG,AFNE01.JPG,AFNE01.JPG,AFNE01.JPG,AFNE01.JPG,,,,,,,,,,,,,,,,,4,1,41,8,,,,,,,AMNE18.jpg,AMNE09.jpg,AMSA17.jpg,AMSA07.jpg,AMSA17.jpg,MS,2,num_2,16,num_2,3.04993266088,,,2017_Apr_27_1206,60.0808387896,MAFE4ImagesEEG,001,100277,
AFNE01.JPG,AFNE01.JPG,AFNE01.JPG,AFNE01.JPG,AFNE01.JPG,AFNE01.JPG,,,,,,,,,,,,,,,,,4,2,42,6,,,,,,,AMNE17.jpg,AMNE18.jpg,AMSA06.jpg,AMSA09.jpg,AMNE18.jpg,MN,1,num_6,32,num_2,1.45005050034,,,2017_Apr_27_1206,60.0808387896,MAFE4ImagesEEG,001,100277,
AFNE01.JPG,AFNE01.JPG,AFNE01.JPG,AFNE01.JPG,AFNE01.JPG,AFNE01.JPG,,,,,,,,,,,,,,,,,4,3,43,5,,,,,,,AMNE15.jpg,AMSA20.jpg,AMSA11.jpg,AMNE01.jpg,AMSA20.jpg,MS,2,num_6,32,num_2,1.96666654909,,,2017_Apr_27_1206,60.0808387896,MAFE4ImagesEEG,001,100277,
AFNE01.JPG,AFNE01.JPG,AFNE01.JPG,AFNE01.JPG,AFNE01.JPG,AFNE01.JPG,,,,,,,,,,,,,,,,,4,4,44,3,,,,,,,AMNE08.jpg,AMNE07.jpg,AMSA09.jpg,AMSA07.jpg,AMNE07.jpg,MN,1,num_6,32,num_2,3.08328022424,,,2017_Apr_27_1206,60.0808387896,MAFE4ImagesEEG,001,100277,
AFNE01.JPG,AFNE01.JPG,AFNE01.JPG,AFNE01.JPG,AFNE01.JPG,AFNE01.JPG,,,,,,,,,,,,,,,,,4,5,45,7,,,,,,,AMNE17.jpg,AMSA18.jpg,AMNE09.jpg,AMSA02.jpg,AMSA18.jpg,MS,2,num_6,32,num_2,1.40014093276,,,2017_Apr_27_1206,60.0808387896,MAFE4ImagesEEG,001,100277,
AFNE01.JPG,AFNE01.JPG,AFNE01.JPG,AFNE01.JPG,AFNE01.JPG,AFNE01.JPG,,,,,,,,,,,,,,,,,4,6,46,0,,,,,,,AMNE05.jpg,AMNE06.jpg,AMSA10.jpg,AMSA02.jpg,AMNE06.jpg,MN,1,num_6,48,None,,,,2017_Apr_27_1206,60.0808387896,MAFE4ImagesEEG,001,100277,
AFNE01.JPG,AFNE01.JPG,AFNE01.JPG,AFNE01.JPG,AFNE01.JPG,AFNE01.JPG,,,,,,,,,,,,,,,,,4,7,47,4,,,,,,,AMSA15.jpg,AMSA11.jpg,AMNE13.jpg,AMNE15.jpg,AMSA15.jpg,MS,2,num_8,48,None,,,,2017_Apr_27_1206,60.0808387896,MAFE4ImagesEEG,001,100277,
AFNE01.JPG,AFNE01.JPG,AFNE01.JPG,AFNE01.JPG,AFNE01.JPG,AFNE01.JPG,,,,,,,,,,,,,,,,,4,8,48,9,,,,,,,AMSA05.jpg,AMNE04.jpg,AMNE09.jpg,AMSA08.jpg,AMNE09.jpg,MN,1,num_2,48,None,,,,2017_Apr_27_1206,60.0808387896,MAFE4ImagesEEG,001,100277,
AFNE01.JPG,AFNE01.JPG,AFNE01.JPG,AFNE01.JPG,AFNE01.JPG,AFNE01.JPG,,,,,,,,,,,,,,,,,4,9,49,1,,,,,,,AMNE07.jpg,AMSA05.jpg,AMNE18.jpg,AMSA07.jpg,AMSA05.jpg,MS,2,num_6,48,None,,,,2017_Apr_27_1206,60.0808387896,MAFE4ImagesEEG,001,100277,
AFNE01.JPG,AFNE01.JPG,AFNE01.JPG,AFNE01.JPG,AFNE01.JPG,AFNE01.JPG,,,,,,,,,,,,,,,,,5,0,50,9,,,,,,,AMNE11.jpg,AMSA11.jpg,AMSA10.jpg,AMNE07.jpg,AMSA10.jpg,MS,2,num_2,32,num_4,2.68330832105,,,2017_Apr_27_1206,60.0808387896,MAFE4ImagesEEG,001,100277,
AFNE01.JPG,AFNE01.JPG,AFNE01.JPG,AFNE01.JPG,AFNE01.JPG,AFNE01.JPG,,,,,,,,,,,,,,,,,5,1,51,5,,,,,,,AMSA08.jpg,AMNE18.jpg,AMNE14.jpg,AMSA13.jpg,AMNE14.jpg,MN,1,num_2,48,None,,,,2017_Apr_27_1206,60.0808387896,MAFE4ImagesEEG,001,100277,
AFNE01.JPG,AFNE01.JPG,AFNE01.JPG,AFNE01.JPG,AFNE01.JPG,AFNE01.JPG,,,,,,,,,,,,,,,,,5,2,52,3,,,,,,,AMNE13.jpg,AMNE16.jpg,AMSA07.jpg,AMSA20.jpg,AMNE16.jpg,MN,1,num_6,48,None,,,,2017_Apr_27_1206,60.0808387896,MAFE4ImagesEEG,001,100277,
AFNE01.JPG,AFNE01.JPG,AFNE01.JPG,AFNE01.JPG,AFNE01.JPG,AFNE01.JPG,,,,,,,,,,,,,,,,,5,3,53,2,,,,,,,AMSA01.jpg,AMNE12.jpg,AMNE08.jpg,AMSA20.jpg,AMNE12.jpg,MN,1,num_6,32,num_2,0.916756019229,,,2017_Apr_27_1206,60.0808387896,MAFE4ImagesEEG,001,100277,
AFNE01.JPG,AFNE01.JPG,AFNE01.JPG,AFNE01.JPG,AFNE01.JPG,AFNE01.JPG,,,,,,,,,,,,,,,,,5,4,54,0,,,,,,,AMNE12.jpg,AMSA13.jpg,AMNE01.jpg,AMSA06.jpg,AMNE01.jpg,MN,1,num_2,16,num_2,3.48321684625,,,2017_Apr_27_1206,60.0808387896,MAFE4ImagesEEG,001,100277,
AFNE01.JPG,AFNE01.JPG,AFNE01.JPG,AFNE01.JPG,AFNE01.JPG,AFNE01.JPG,,,,,,,,,,,,,,,,,5,5,55,1,,,,,,,AMNE02.jpg,AMSA06.jpg,AMNE18.jpg,AMSA16.jpg,AMNE18.jpg,MN,1,num_2,48,None,,,,2017_Apr_27_1206,60.0808387896,MAFE4ImagesEEG,001,100277,
AFNE01.JPG,AFNE01.JPG,AFNE01.JPG,AFNE01.JPG,AFNE01.JPG,AFNE01.JPG,,,,,,,,,,,,,,,,,5,6,56,7,,,,,,,AMSA04.jpg,AMNE09.jpg,AMNE14.jpg,AMSA08.jpg,AMSA08.jpg,MS,2,num_4,48,None,,,,2017_Apr_27_1206,60.0808387896,MAFE4ImagesEEG,001,100277,
AFNE01.JPG,AFNE01.JPG,AFNE01.JPG,AFNE01.JPG,AFNE01.JPG,AFNE01.JPG,,,,,,,,,,,,,,,,,5,7,57,4,,,,,,,AMNE09.jpg,AMSA02.jpg,AMSA09.jpg,AMNE05.jpg,AMNE05.jpg,MN,1,num_4,32,num_2,2.10005327477,,,2017_Apr_27_1206,60.0808387896,MAFE4ImagesEEG,001,100277,
AFNE01.JPG,AFNE01.JPG,AFNE01.JPG,AFNE01.JPG,AFNE01.JPG,AFNE01.JPG,,,,,,,,,,,,,,,,,5,8,58,6,,,,,,,AMNE02.jpg,AMSA20.jpg,AMNE20.jpg,AMSA18.jpg,AMSA18.jpg,MS,2,num_4,16,num_4,1.96651163208,,,2017_Apr_27_1206,60.0808387896,MAFE4ImagesEEG,001,100277,
AFNE01.JPG,AFNE01.JPG,AFNE01.JPG,AFNE01.JPG,AFNE01.JPG,AFNE01.JPG,,,,,,,,,,,,,,,,,5,9,59,8,,,,,,,AMSA05.jpg,AMNE09.jpg,AMNE12.jpg,AMSA15.jpg,AMNE12.jpg,MN,1,num_2,16,num_2,1.30012229772,,,2017_Apr_27_1206,60.0808387896,MAFE4ImagesEEG,001,100277,
,,,,,,,,,,,,,,,,,,,,,,,,,,,,,,,,,,,,,,,,,,,space,24.5316250343,2017_Apr_27_1206,60.0808387896,MAFE4ImagesEEG,001,100277,
AFNE01.JPG,AFNE01.JPG,AFNE01.JPG,AFNE01.JPG,AFNE01.JPG,AFNE01.JPG,,,,,,,,,,,,,,,,,,,,,0,0,0,2,,,AFSA16.jpg,AFNE05.jpg,AFNE14.jpg,AFSA04.jpg,AFSA16.jpg,FS,4,num_8,48,None,,,,2017_Apr_27_1206,60.0808387896,MAFE4ImagesEEG,001,100277,
AFNE01.JPG,AFNE01.JPG,AFNE01.JPG,AFNE01.JPG,AFNE01.JPG,AFNE01.JPG,,,,,,,,,,,,,,,,,,,,,0,1,1,1,,,AFSA07.jpg,AFSA10.jpg,AFNE05.jpg,AFNE17.jpg,AFNE17.jpg,FN,3,num_4,16,num_4,1.96670022665,,,2017_Apr_27_1206,60.0808387896,MAFE4ImagesEEG,001,100277,
AFNE01.JPG,AFNE01.JPG,AFNE01.JPG,AFNE01.JPG,AFNE01.JPG,AFNE01.JPG,,,,,,,,,,,,,,,,,,,,,0,2,2,5,,,AFNE02.jpg,AFSA01.jpg,AFSA07.jpg,AFNE12.jpg,AFNE02.jpg,FN,3,num_8,48,None,,,,2017_Apr_27_1206,60.0808387896,MAFE4ImagesEEG,001,100277,
AFNE01.JPG,AFNE01.JPG,AFNE01.JPG,AFNE01.JPG,AFNE01.JPG,AFNE01.JPG,,,,,,,,,,,,,,,,,,,,,0,3,3,8,,,AFSA08.jpg,AFNE07.jpg,AFNE18.jpg,AFSA18.jpg,AFSA08.jpg,FS,4,num_8,32,num_2,1.15012770228,,,2017_Apr_27_1206,60.0808387896,MAFE4ImagesEEG,001,100277,
AFNE01.JPG,AFNE01.JPG,AFNE01.JPG,AFNE01.JPG,AFNE01.JPG,AFNE01.JPG,,,,,,,,,,,,,,,,,,,,,0,4,4,7,,,AFNE15.jpg,AFNE17.jpg,AFSA13.jpg,AFSA16.jpg,AFNE17.jpg,FN,3,num_6,32,num_4,1.16670638486,,,2017_Apr_27_1206,60.0808387896,MAFE4ImagesEEG,001,100277,
AFNE01.JPG,AFNE01.JPG,AFNE01.JPG,AFNE01.JPG,AFNE01.JPG,AFNE01.JPG,,,,,,,,,,,,,,,,,,,,,0,5,5,4,,,AFNE08.jpg,AFSA19.jpg,AFSA06.jpg,AFNE06.jpg,AFSA06.jpg,FS,4,num_2,16,num_2,0.75008459494,,,2017_Apr_27_1206,60.0808387896,MAFE4ImagesEEG,001,100277,
AFNE01.JPG,AFNE01.JPG,AFNE01.JPG,AFNE01.JPG,AFNE01.JPG,AFNE01.JPG,,,,,,,,,,,,,,,,,,,,,0,6,6,6,,,AFNE20.jpg,AFSA06.jpg,AFSA08.jpg,AFNE16.jpg,AFSA06.jpg,FS,4,num_6,32,num_2,0.733436311944,,,2017_Apr_27_1206,60.0808387896,MAFE4ImagesEEG,001,100277,
AFNE01.JPG,AFNE01.JPG,AFNE01.JPG,AFNE01.JPG,AFNE01.JPG,AFNE01.JPG,,,,,,,,,,,,,,,,,,,,,0,7,7,3,,,AFSA15.jpg,AFNE15.jpg,AFSA07.jpg,AFNE18.jpg,AFNE18.jpg,FN,3,num_4,32,num_2,0.949940326507,,,2017_Apr_27_1206,60.0808387896,MAFE4ImagesEEG,001,100277,
AFNE01.JPG,AFNE01.JPG,AFNE01.JPG,AFNE01.JPG,AFNE01.JPG,AFNE01.JPG,,,,,,,,,,,,,,,,,,,,,0,8,8,9,,,AFSA20.jpg,AFNE16.jpg,AFNE13.jpg,AFSA12.jpg,AFNE13.jpg,FN,3,num_2,16,num_2,0.733484102064,,,2017_Apr_27_1206,60.0808387896,MAFE4ImagesEEG,001,100277,
AFNE01.JPG,AFNE01.JPG,AFNE01.JPG,AFNE01.JPG,AFNE01.JPG,AFNE01.JPG,,,,,,,,,,,,,,,,,,,,,0,9,9,0,,,AFSA07.jpg,AFNE20.jpg,AFNE12.jpg,AFSA02.jpg,AFNE20.jpg,FN,3,num_6,32,num_2,0.883449189598,,,2017_Apr_27_1206,60.0808387896,MAFE4ImagesEEG,001,100277,
AFNE01.JPG,AFNE01.JPG,AFNE01.JPG,AFNE01.JPG,AFNE01.JPG,AFNE01.JPG,,,,,,,,,,,,,,,,,,,,,1,0,10,4,,,AFNE03.jpg,AFSA09.jpg,AFNE10.jpg,AFSA18.jpg,AFSA09.jpg,FS,4,num_6,32,num_4,1.6168056376,,,2017_Apr_27_1206,60.0808387896,MAFE4ImagesEEG,001,100277,
AFNE01.JPG,AFNE01.JPG,AFNE01.JPG,AFNE01.JPG,AFNE01.JPG,AFNE01.JPG,,,,,,,,,,,,,,,,,,,,,1,1,11,1,,,AFSA17.jpg,AFNE12.jpg,AFNE03.jpg,AFSA07.jpg,AFNE03.jpg,FN,3,num_2,16,num_2,1.70005314646,,,2017_Apr_27_1206,60.0808387896,MAFE4ImagesEEG,001,100277,
AFNE01.JPG,AFNE01.JPG,AFNE01.JPG,AFNE01.JPG,AFNE01.JPG,AFNE01.JPG,,,,,,,,,,,,,,,,,,,,,1,2,12,2,,,AFSA09.jpg,AFNE17.jpg,AFNE12.jpg,AFSA14.jpg,AFNE12.jpg,FN,3,num_2,32,num_4,2.3666435841,,,2017_Apr_27_1206,60.0808387896,MAFE4ImagesEEG,001,100277,
AFNE01.JPG,AFNE01.JPG,AFNE01.JPG,AFNE01.JPG,AFNE01.JPG,AFNE01.JPG,,,,,,,,,,,,,,,,,,,,,1,3,13,9,,,AFNE14.jpg,AFSA20.jpg,AFNE04.jpg,AFSA18.jpg,AFSA20.jpg,FS,4,num_6,48,None,,,,2017_Apr_27_1206,60.0808387896,MAFE4ImagesEEG,001,100277,
AFNE01.JPG,AFNE01.JPG,AFNE01.JPG,AFNE01.JPG,AFNE01.JPG,AFNE01.JPG,,,,,,,,,,,,,,,,,,,,,1,4,14,6,,,AFSA04.jpg,AFNE15.jpg,AFNE02.jpg,AFSA15.jpg,AFSA04.jpg,FS,4,num_8,32,num_4,2.44984169921,,,2017_Apr_27_1206,60.0808387896,MAFE4ImagesEEG,001,100277,
AFNE01.JPG,AFNE01.JPG,AFNE01.JPG,AFNE01.JPG,AFNE01.JPG,AFNE01.JPG,,,,,,,,,,,,,,,,,,,,,1,5,15,7,,,AFSA02.jpg,AFSA12.jpg,AFNE09.jpg,AFNE16.jpg,AFNE09.jpg,FN,3,num_2,16,num_2,1.01684649976,,,2017_Apr_27_1206,60.0808387896,MAFE4ImagesEEG,001,100277,
AFNE01.JPG,AFNE01.JPG,AFNE01.JPG,AFNE01.JPG,AFNE01.JPG,AFNE01.JPG,,,,,,,,,,,,,,,,,,,,,1,6,16,3,,,AFNE18.jpg,AFSA19.jpg,AFSA17.jpg,AFNE11.jpg,AFSA19.jpg,FS,4,num_6,32,num_4,1.96666815272,,,2017_Apr_27_1206,60.0808387896,MAFE4ImagesEEG,001,100277,
AFNE01.JPG,AFNE01.JPG,AFNE01.JPG,AFNE01.JPG,AFNE01.JPG,AFNE01.JPG,,,,,,,,,,,,,,,,,,,,,1,7,17,5,,,AFNE14.jpg,AFSA14.jpg,AFSA01.jpg,AFNE08.jpg,AFSA01.jpg,FS,4,num_2,48,None,,,,2017_Apr_27_1206,60.0808387896,MAFE4ImagesEEG,001,100277,
AFNE01.JPG,AFNE01.JPG,AFNE01.JPG,AFNE01.JPG,AFNE01.JPG,AFNE01.JPG,,,,,,,,,,,,,,,,,,,,,1,8,18,0,,,AFNE15.jpg,AFNE01.jpg,AFSA17.jpg,AFSA08.jpg,AFNE01.jpg,FN,3,num_6,48,None,,,,2017_Apr_27_1206,60.0808387896,MAFE4ImagesEEG,001,100277,
AFNE01.JPG,AFNE01.JPG,AFNE01.JPG,AFNE01.JPG,AFNE01.JPG,AFNE01.JPG,,,,,,,,,,,,,,,,,,,,,1,9,19,8,,,AFSA08.jpg,AFSA19.jpg,AFNE08.jpg,AFNE14.jpg,AFSA08.jpg,FS,4,num_8,32,num_4,2.81655777048,,,2017_Apr_27_1206,60.0808387896,MAFE4ImagesEEG,001,100277,
AFNE01.JPG,AFNE01.JPG,AFNE01.JPG,AFNE01.JPG,AFNE01.JPG,AFNE01.JPG,,,,,,,,,,,,,,,,,,,,,2,0,20,9,,,AFSA03.jpg,AFNE13.jpg,AFNE10.jpg,AFSA07.jpg,AFNE10.jpg,FN,3,num_2,48,None,,,,2017_Apr_27_1206,60.0808387896,MAFE4ImagesEEG,001,100277,
AFNE01.JPG,AFNE01.JPG,AFNE01.JPG,AFNE01.JPG,AFNE01.JPG,AFNE01.JPG,,,,,,,,,,,,,,,,,,,,,2,1,21,6,,,AFNE11.jpg,AFSA20.jpg,AFNE14.jpg,AFSA12.jpg,AFNE14.jpg,FN,3,num_2,48,None,,,,2017_Apr_27_1206,60.0808387896,MAFE4ImagesEEG,001,100277,
AFNE01.JPG,AFNE01.JPG,AFNE01.JPG,AFNE01.JPG,AFNE01.JPG,AFNE01.JPG,,,,,,,,,,,,,,,,,,,,,2,2,22,3,,,AFNE18.jpg,AFSA12.jpg,AFNE10.jpg,AFSA19.jpg,AFSA19.jpg,FS,4,num_4,16,num_4,2.05033839587,,,2017_Apr_27_1206,60.0808387896,MAFE4ImagesEEG,001,100277,
AFNE01.JPG,AFNE01.JPG,AFNE01.JPG,AFNE01.JPG,AFNE01.JPG,AFNE01.JPG,,,,,,,,,,,,,,,,,,,,,2,3,23,2,,,AFSA19.jpg,AFNE05.jpg,AFNE16.jpg,AFSA17.jpg,AFNE16.jpg,FN,3,num_2,48,None,,,,2017_Apr_27_1206,60.0808387896,MAFE4ImagesEEG,001,100277,
AFNE01.JPG,AFNE01.JPG,AFNE01.JPG,AFNE01.JPG,AFNE01.JPG,AFNE01.JPG,,,,,,,,,,,,,,,,,,,,,2,4,24,4,,,AFSA19.jpg,AFSA01.jpg,AFNE01.jpg,AFNE16.jpg,AFSA01.jpg,FS,4,num_6,32,num_2,1.40009955748,,,2017_Apr_27_1206,60.0808387896,MAFE4ImagesEEG,001,100277,
AFNE01.JPG,AFNE01.JPG,AFNE01.JPG,AFNE01.JPG,AFNE01.JPG,AFNE01.JPG,,,,,,,,,,,,,,,,,,,,,2,5,25,0,,,AFSA07.jpg,AFNE11.jpg,AFNE20.jpg,AFSA14.jpg,AFSA07.jpg,FS,4,num_8,32,num_4,1.80008461094,,,2017_Apr_27_1206,60.0808387896,MAFE4ImagesEEG,001,100277,
AFNE01.JPG,AFNE01.JPG,AFNE01.JPG,AFNE01.JPG,AFNE01.JPG,AFNE01.JPG,,,,,,,,,,,,,,,,,,,,,2,6,26,8,,,AFNE05.jpg,AFNE13.jpg,AFSA19.jpg,AFSA08.jpg,AFSA19.jpg,FS,4,num_2,48,None,,,,2017_Apr_27_1206,60.0808387896,MAFE4ImagesEEG,001,100277,
AFNE01.JPG,AFNE01.JPG,AFNE01.JPG,AFNE01.JPG,AFNE01.JPG,AFNE01.JPG,,,,,,,,,,,,,,,,,,,,,2,7,27,7,,,AFNE14.jpg,AFSA16.jpg,AFSA08.jpg,AFNE01.jpg,AFSA16.jpg,FS,4,num_6,48,None,,,,2017_Apr_27_1206,60.0808387896,MAFE4ImagesEEG,001,100277,
AFNE01.JPG,AFNE01.JPG,AFNE01.JPG,AFNE01.JPG,AFNE01.JPG,AFNE01.JPG,,,,,,,,,,,,,,,,,,,,,2,8,28,5,,,AFSA13.jpg,AFNE08.jpg,AFSA08.jpg,AFNE05.jpg,AFNE08.jpg,FN,3,num_6,48,None,,,,2017_Apr_27_1206,60.0808387896,MAFE4ImagesEEG,001,100277,
AFNE01.JPG,AFNE01.JPG,AFNE01.JPG,AFNE01.JPG,AFNE01.JPG,AFNE01.JPG,,,,,,,,,,,,,,,,,,,,,2,9,29,1,,,AFSA20.jpg,AFNE10.jpg,AFNE18.jpg,AFSA14.jpg,AFNE18.jpg,FN,3,num_2,48,None,,,,2017_Apr_27_1206,60.0808387896,MAFE4ImagesEEG,001,100277,
AFNE01.JPG,AFNE01.JPG,AFNE01.JPG,AFNE01.JPG,AFNE01.JPG,AFNE01.JPG,,,,,,,,,,,,,,,,,,,,,3,0,30,1,,,AFNE08.jpg,AFSA04.jpg,AFNE09.jpg,AFSA05.jpg,AFSA04.jpg,FS,4,num_6,32,num_2,1.41670069168,,,2017_Apr_27_1206,60.0808387896,MAFE4ImagesEEG,001,100277,
AFNE01.JPG,AFNE01.JPG,AFNE01.JPG,AFNE01.JPG,AFNE01.JPG,AFNE01.JPG,,,,,,,,,,,,,,,,,,,,,3,1,31,4,,,AFNE06.jpg,AFSA11.jpg,AFNE08.jpg,AFSA03.jpg,AFSA11.jpg,FS,4,num_6,48,None,,,,2017_Apr_27_1206,60.0808387896,MAFE4ImagesEEG,001,100277,
AFNE01.JPG,AFNE01.JPG,AFNE01.JPG,AFNE01.JPG,AFNE01.JPG,AFNE01.JPG,,,,,,,,,,,,,,,,,,,,,3,2,32,9,,,AFNE09.jpg,AFNE05.jpg,AFSA06.jpg,AFSA09.jpg,AFSA06.jpg,FS,4,num_2,48,None,,,,2017_Apr_27_1206,60.0808387896,MAFE4ImagesEEG,001,100277,
AFNE01.JPG,AFNE01.JPG,AFNE01.JPG,AFNE01.JPG,AFNE01.JPG,AFNE01.JPG,,,,,,,,,,,,,,,,,,,,,3,3,33,2,,,AFNE11.jpg,AFNE03.jpg,AFSA09.jpg,AFSA05.jpg,AFNE11.jpg,FN,3,num_8,48,None,,,,2017_Apr_27_1206,60.0808387896,MAFE4ImagesEEG,001,100277,
AFNE01.JPG,AFNE01.JPG,AFNE01.JPG,AFNE01.JPG,AFNE01.JPG,AFNE01.JPG,,,,,,,,,,,,,,,,,,,,,3,4,34,8,,,AFNE11.jpg,AFSA05.jpg,AFSA01.jpg,AFNE06.jpg,AFNE11.jpg,FN,3,num_8,48,None,,,,2017_Apr_27_1206,60.0808387896,MAFE4ImagesEEG,001,100277,
AFNE01.JPG,AFNE01.JPG,AFNE01.JPG,AFNE01.JPG,AFNE01.JPG,AFNE01.JPG,,,,,,,,,,,,,,,,,,,,,3,5,35,7,,,AFSA17.jpg,AFNE19.jpg,AFNE01.jpg,AFSA14.jpg,AFSA14.jpg,FS,4,num_4,32,num_2,3.09996058117,,,2017_Apr_27_1206,60.0808387896,MAFE4ImagesEEG,001,100277,
AFNE01.JPG,AFNE01.JPG,AFNE01.JPG,AFNE01.JPG,AFNE01.JPG,AFNE01.JPG,,,,,,,,,,,,,,,,,,,,,3,6,36,6,,,AFSA12.jpg,AFNE17.jpg,AFNE20.jpg,AFSA14.jpg,AFSA12.jpg,FS,4,num_8,48,None,,,,2017_Apr_27_1206,60.0808387896,MAFE4ImagesEEG,001,100277,
AFNE01.JPG,AFNE01.JPG,AFNE01.JPG,AFNE01.JPG,AFNE01.JPG,AFNE01.JPG,,,,,,,,,,,,,,,,,,,,,3,7,37,5,,,AFNE15.jpg,AFSA10.jpg,AFSA20.jpg,AFNE05.jpg,AFSA10.jpg,FS,4,num_6,48,None,,,,2017_Apr_27_1206,60.0808387896,MAFE4ImagesEEG,001,100277,
AFNE01.JPG,AFNE01.JPG,AFNE01.JPG,AFNE01.JPG,AFNE01.JPG,AFNE01.JPG,,,,,,,,,,,,,,,,,,,,,3,8,38,0,,,AFSA02.jpg,AFNE07.jpg,AFSA04.jpg,AFNE06.jpg,AFNE06.jpg,FN,3,num_4,48,None,,,,2017_Apr_27_1206,60.0808387896,MAFE4ImagesEEG,001,100277,
AFNE01.JPG,AFNE01.JPG,AFNE01.JPG,AFNE01.JPG,AFNE01.JPG,AFNE01.JPG,,,,,,,,,,,,,,,,,,,,,3,9,39,3,,,AFNE01.jpg,AFSA07.jpg,AFNE05.jpg,AFSA20.jpg,AFSA07.jpg,FS,4,num_6,48,None,,,,2017_Apr_27_1206,60.0808387896,MAFE4ImagesEEG,001,100277,
AFNE01.JPG,AFNE01.JPG,AFNE01.JPG,AFNE01.JPG,AFNE01.JPG,AFNE01.JPG,,,,,,,,,,,,,,,,,,,,,4,0,40,6,,,AFSA16.jpg,AFNE06.jpg,AFNE14.jpg,AFSA08.jpg,AFNE06.jpg,FN,3,num_6,48,None,,,,2017_Apr_27_1206,60.0808387896,MAFE4ImagesEEG,001,100277,
AFNE01.JPG,AFNE01.JPG,AFNE01.JPG,AFNE01.JPG,AFNE01.JPG,AFNE01.JPG,,,,,,,,,,,,,,,,,,,,,4,1,41,5,,,AFNE10.jpg,AFSA09.jpg,AFSA17.jpg,AFNE15.jpg,AFNE10.jpg,FN,3,num_8,32,num_4,2.76701288309,,,2017_Apr_27_1206,60.0808387896,MAFE4ImagesEEG,001,100277,
AFNE01.JPG,AFNE01.JPG,AFNE01.JPG,AFNE01.JPG,AFNE01.JPG,AFNE01.JPG,,,,,,,,,,,,,,,,,,,,,4,2,42,7,,,AFNE02.jpg,AFSA02.jpg,AFSA04.jpg,AFNE20.jpg,AFNE20.jpg,FN,3,num_4,16,num_4,1.36672922142,,,2017_Apr_27_1206,60.0808387896,MAFE4ImagesEEG,001,100277,
AFNE01.JPG,AFNE01.JPG,AFNE01.JPG,AFNE01.JPG,AFNE01.JPG,AFNE01.JPG,,,,,,,,,,,,,,,,,,,,,4,3,43,8,,,AFNE05.jpg,AFSA07.jpg,AFNE14.jpg,AFSA17.jpg,AFNE14.jpg,FN,3,num_2,48,None,,,,2017_Apr_27_1206,60.0808387896,MAFE4ImagesEEG,001,100277,
AFNE01.JPG,AFNE01.JPG,AFNE01.JPG,AFNE01.JPG,AFNE01.JPG,AFNE01.JPG,,,,,,,,,,,,,,,,,,,,,4,4,44,1,,,AFSA12.jpg,AFNE05.jpg,AFNE15.jpg,AFSA16.jpg,AFNE05.jpg,FN,3,num_6,48,None,,,,2017_Apr_27_1206,60.0808387896,MAFE4ImagesEEG,001,100277,
AFNE01.JPG,AFNE01.JPG,AFNE01.JPG,AFNE01.JPG,AFNE01.JPG,AFNE01.JPG,,,,,,,,,,,,,,,,,,,,,4,5,45,2,,,AFSA05.jpg,AFNE13.jpg,AFNE20.jpg,AFSA07.jpg,AFNE13.jpg,FN,3,num_6,48,None,,,,2017_Apr_27_1206,60.0808387896,MAFE4ImagesEEG,001,100277,
AFNE01.JPG,AFNE01.JPG,AFNE01.JPG,AFNE01.JPG,AFNE01.JPG,AFNE01.JPG,,,,,,,,,,,,,,,,,,,,,4,6,46,0,,,AFNE15.jpg,AFSA13.jpg,AFNE01.jpg,AFSA11.jpg,AFSA13.jpg,FS,4,num_6,48,None,,,,2017_Apr_27_1206,60.0808387896,MAFE4ImagesEEG,001,100277,
AFNE01.JPG,AFNE01.JPG,AFNE01.JPG,AFNE01.JPG,AFNE01.JPG,AFNE01.JPG,,,,,,,,,,,,,,,,,,,,,4,7,47,4,,,AFNE08.jpg,AFNE12.jpg,AFSA13.jpg,AFSA05.jpg,AFNE08.jpg,FN,3,num_8,48,None,,,,2017_Apr_27_1206,60.0808387896,MAFE4ImagesEEG,001,100277,
AFNE01.JPG,AFNE01.JPG,AFNE01.JPG,AFNE01.JPG,AFNE01.JPG,AFNE01.JPG,,,,,,,,,,,,,,,,,,,,,4,8,48,3,,,AFNE15.jpg,AFNE18.jpg,AFSA10.jpg,AFSA07.jpg,AFSA07.jpg,FS,4,num_4,32,num_2,2.33358500665,,,2017_Apr_27_1206,60.0808387896,MAFE4ImagesEEG,001,100277,
AFNE01.JPG,AFNE01.JPG,AFNE01.JPG,AFNE01.JPG,AFNE01.JPG,AFNE01.JPG,,,,,,,,,,,,,,,,,,,,,4,9,49,9,,,AFNE10.jpg,AFSA19.jpg,AFSA10.jpg,AFNE04.jpg,AFNE04.jpg,FN,3,num_4,32,num_2,3.14994969207,,,2017_Apr_27_1206,60.0808387896,MAFE4ImagesEEG,001,100277,
AFNE01.JPG,AFNE01.JPG,AFNE01.JPG,AFNE01.JPG,AFNE01.JPG,AFNE01.JPG,,,,,,,,,,,,,,,,,,,,,5,0,50,7,,,AFSA05.jpg,AFSA08.jpg,AFNE07.jpg,AFNE01.jpg,AFSA08.jpg,FS,4,num_6,32,num_4,2.88329844223,,,2017_Apr_27_1206,60.0808387896,MAFE4ImagesEEG,001,100277,
AFNE01.JPG,AFNE01.JPG,AFNE01.JPG,AFNE01.JPG,AFNE01.JPG,AFNE01.JPG,,,,,,,,,,,,,,,,,,,,,5,1,51,5,,,AFSA05.jpg,AFNE18.jpg,AFSA17.jpg,AFNE20.jpg,AFNE20.jpg,FN,3,num_4,48,None,,,,2017_Apr_27_1206,60.0808387896,MAFE4ImagesEEG,001,100277,
AFNE01.JPG,AFNE01.JPG,AFNE01.JPG,AFNE01.JPG,AFNE01.JPG,AFNE01.JPG,,,,,,,,,,,,,,,,,,,,,5,2,52,0,,,AFNE10.jpg,AFNE16.jpg,AFSA04.jpg,AFSA03.jpg,AFSA04.jpg,FS,4,num_2,48,None,,,,2017_Apr_27_1206,60.0808387896,MAFE4ImagesEEG,001,100277,
