IPosition2,IPosition3,IPosition1,IPosition6,IPosition4,IPosition5,TrialsM1.thisRepN,TrialsM1.thisTrialN,TrialsM1.thisN,TrialsM1.thisIndex,TrialsF1.thisRepN,TrialsF1.thisTrialN,TrialsF1.thisN,TrialsF1.thisIndex,TrialsM2.thisRepN,TrialsM2.thisTrialN,TrialsM2.thisN,TrialsM2.thisIndex,TrialsF2.thisRepN,TrialsF2.thisTrialN,TrialsF2.thisN,TrialsF2.thisIndex,TrialsM3.thisRepN,TrialsM3.thisTrialN,TrialsM3.thisN,TrialsM3.thisIndex,TrialsF3.thisRepN,TrialsF3.thisTrialN,TrialsF3.thisN,TrialsF3.thisIndex,InstrKey_resp.keys,InstrKey_resp.rt,Image0 _Position,Image1 _Position,Image2 _Position,Image3 _Position,Center_image,condition,code,correct_answer,accuracy,Key_Resp.keys,Key_Resp.rt,BreakKey_resp.keys,BreakKey_resp.rt,date,frameRate,expName,session,participant,
,,,,,,,,,,,,,,,,,,,,,,,,,,,,,,space,92.5598741291,,,,,,,,,,,,,,2017_Apr_25_1956,60.0060240639,MAFE4ImagesEEG,001,100263,
AFNE23.JPG,AFNE24.JPG,AFNE22.JPG,AFSA24.JPG,AFSA22.JPG,AFSA23.JPG,0,0,0,8,,,,,,,,,,,,,,,,,,,,,,,AMNE05.jpg,AMNE08.jpg,AMSA15.jpg,AMSA17.jpg,AMNE05.jpg,MN,1,num_8,32,num_4,1.566465638,,,2017_Apr_25_1956,60.0060240639,MAFE4ImagesEEG,001,100263,
AMSA21.JPG,AMNE22.JPG,AMNE21.JPG,AMSA23.JPG,AMSA22.JPG,AMNE23.JPG,0,1,1,1,,,,,,,,,,,,,,,,,,,,,,,AMNE10.jpg,AMNE20.jpg,AMSA12.jpg,AMSA13.jpg,AMNE10.jpg,MN,1,num_8,16,num_8,1.44992477063,,,2017_Apr_25_1956,60.0060240639,MAFE4ImagesEEG,001,100263,
AMSA25.JPG,AMNE24.JPG,AMSA24.JPG,AMNE26.JPG,AMSA21.JPG,AMNE25.JPG,0,2,2,3,,,,,,,,,,,,,,,,,,,,,,,AMSA16.jpg,AMSA02.jpg,AMNE06.jpg,AMNE20.jpg,AMSA02.jpg,MS,2,num_6,16,num_6,1.43340510398,,,2017_Apr_25_1956,60.0060240639,MAFE4ImagesEEG,001,100263,
AMNE22.JPG,AMSA24.JPG,AMSA22.JPG,AMNE25.JPG,AMNE24.JPG,AMSA25.JPG,0,3,3,7,,,,,,,,,,,,,,,,,,,,,,,AMNE05.jpg,AMSA14.jpg,AMNE09.jpg,AMSA17.jpg,AMNE09.jpg,MN,1,num_2,32,num_8,1.90035085648,,,2017_Apr_25_1956,60.0060240639,MAFE4ImagesEEG,001,100263,
AFSA25.JPG,AFNE24.JPG,AFSA24.JPG,AFNE21.JPG,AFSA21.JPG,AFNE25.JPG,0,4,4,2,,,,,,,,,,,,,,,,,,,,,,,AMNE04.jpg,AMNE05.jpg,AMSA16.jpg,AMSA17.jpg,AMNE04.jpg,MN,1,num_8,16,num_8,1.83337187546,,,2017_Apr_25_1956,60.0060240639,MAFE4ImagesEEG,001,100263,
AFNE22.JPG,AFSA24.JPG,AFSA22.JPG,AFNE25.JPG,AFNE24.JPG,AFSA25.JPG,0,5,5,6,,,,,,,,,,,,,,,,,,,,,,,AMSA19.jpg,AMNE08.jpg,AMSA02.jpg,AMNE14.jpg,AMNE08.jpg,MN,1,num_6,16,num_6,0.900118641322,,,2017_Apr_25_1956,60.0060240639,MAFE4ImagesEEG,001,100263,
AFSA21.JPG,AFNE23.JPG,AFNE21.JPG,AFSA25.JPG,AFNE25.JPG,AFSA23.JPG,0,6,6,4,,,,,,,,,,,,,,,,,,,,,,,AMNE12.jpg,AMSA06.jpg,AMSA14.jpg,AMNE08.jpg,AMSA14.jpg,MS,2,num_2,16,num_2,1.43340799061,,,2017_Apr_25_1956,60.0060240639,MAFE4ImagesEEG,001,100263,
AMSA21.JPG,AMNE23.JPG,AMNE21.JPG,AMSA25.JPG,AMNE25.JPG,AMSA23.JPG,0,7,7,5,,,,,,,,,,,,,,,,,,,,,,,AMNE11.jpg,AMSA15.jpg,AMNE13.jpg,AMSA14.jpg,AMSA15.jpg,MS,2,num_6,16,num_6,1.75004706846,,,2017_Apr_25_1956,60.0060240639,MAFE4ImagesEEG,001,100263,
AMNE23.JPG,AMNE24.JPG,AMNE22.JPG,AMSA24.JPG,AMSA22.JPG,AMSA23.JPG,0,8,8,9,,,,,,,,,,,,,,,,,,,,,,,AMNE01.jpg,AMNE11.jpg,AMSA06.jpg,AMSA19.jpg,AMNE11.jpg,MN,1,num_6,32,num_8,1.83340042131,,,2017_Apr_25_1956,60.0060240639,MAFE4ImagesEEG,001,100263,
AFSA21.JPG,AFNE22.JPG,AFNE21.JPG,AFSA23.JPG,AFSA22.JPG,AFNE23.JPG,0,9,9,0,,,,,,,,,,,,,,,,,,,,,,,AMNE13.jpg,AMSA01.jpg,AMSA19.jpg,AMNE08.jpg,AMSA19.jpg,MS,2,num_2,32,num_6,1.11674902716,,,2017_Apr_25_1956,60.0060240639,MAFE4ImagesEEG,001,100263,
AMSA25.JPG,AMNE24.JPG,AMSA24.JPG,AMNE26.JPG,AMSA21.JPG,AMNE25.JPG,,,,,0,0,0,3,,,,,,,,,,,,,,,,,,,AFSA11.jpg,AFNE17.jpg,AFNE06.jpg,AFSA03.jpg,AFNE17.jpg,FN,3,num_6,32,num_2,2.59970960277,,,2017_Apr_25_1956,60.0060240639,MAFE4ImagesEEG,001,100263,
AFSA21.JPG,AFNE23.JPG,AFNE21.JPG,AFSA25.JPG,AFNE25.JPG,AFSA23.JPG,,,,,0,1,1,4,,,,,,,,,,,,,,,,,,,AFNE11.jpg,AFNE13.jpg,AFSA04.jpg,AFSA15.jpg,AFNE11.jpg,FN,3,num_8,32,num_6,1.5667363418,,,2017_Apr_25_1956,60.0060240639,MAFE4ImagesEEG,001,100263,
AFSA25.JPG,AFNE24.JPG,AFSA24.JPG,AFNE21.JPG,AFSA21.JPG,AFNE25.JPG,,,,,0,2,2,2,,,,,,,,,,,,,,,,,,,AFSA20.jpg,AFSA05.jpg,AFNE20.jpg,AFNE02.jpg,AFNE02.jpg,FN,3,num_4,32,num_8,2.31697809906,,,2017_Apr_25_1956,60.0060240639,MAFE4ImagesEEG,001,100263,
AMNE22.JPG,AMSA24.JPG,AMSA22.JPG,AMNE25.JPG,AMNE24.JPG,AMSA25.JPG,,,,,0,3,3,7,,,,,,,,,,,,,,,,,,,AFSA12.jpg,AFNE10.jpg,AFNE11.jpg,AFSA19.jpg,AFNE11.jpg,FN,3,num_2,16,num_2,2.9499621368,,,2017_Apr_25_1956,60.0060240639,MAFE4ImagesEEG,001,100263,
AMSA21.JPG,AMNE22.JPG,AMNE21.JPG,AMSA23.JPG,AMSA22.JPG,AMNE23.JPG,,,,,0,4,4,1,,,,,,,,,,,,,,,,,,,AFSA05.jpg,AFNE03.jpg,AFNE13.jpg,AFSA17.jpg,AFSA17.jpg,FS,4,num_4,32,num_8,1.11674421595,,,2017_Apr_25_1956,60.0060240639,MAFE4ImagesEEG,001,100263,
AFSA21.JPG,AFNE22.JPG,AFNE21.JPG,AFSA23.JPG,AFSA22.JPG,AFNE23.JPG,,,,,0,5,5,0,,,,,,,,,,,,,,,,,,,AFSA12.jpg,AFNE20.jpg,AFNE01.jpg,AFSA02.jpg,AFSA12.jpg,FS,4,num_8,16,num_8,0.783438573242,,,2017_Apr_25_1956,60.0060240639,MAFE4ImagesEEG,001,100263,
AMNE23.JPG,AMNE24.JPG,AMNE22.JPG,AMSA24.JPG,AMSA22.JPG,AMSA23.JPG,,,,,0,6,6,9,,,,,,,,,,,,,,,,,,,AFNE06.jpg,AFSA11.jpg,AFSA13.jpg,AFNE15.jpg,AFSA13.jpg,FS,4,num_2,32,num_6,0.866785190417,,,2017_Apr_25_1956,60.0060240639,MAFE4ImagesEEG,001,100263,
AFNE23.JPG,AFNE24.JPG,AFNE22.JPG,AFSA24.JPG,AFSA22.JPG,AFSA23.JPG,,,,,0,7,7,8,,,,,,,,,,,,,,,,,,,AFSA12.jpg,AFNE16.jpg,AFSA03.jpg,AFNE01.jpg,AFSA03.jpg,FS,4,num_2,32,num_6,1.01684200938,,,2017_Apr_25_1956,60.0060240639,MAFE4ImagesEEG,001,100263,
AFNE22.JPG,AFSA24.JPG,AFSA22.JPG,AFNE25.JPG,AFNE24.JPG,AFSA25.JPG,,,,,0,8,8,6,,,,,,,,,,,,,,,,,,,AFNE08.jpg,AFNE18.jpg,AFSA09.jpg,AFSA05.jpg,AFNE18.jpg,FN,3,num_6,32,num_8,1.83341421303,,,2017_Apr_25_1956,60.0060240639,MAFE4ImagesEEG,001,100263,
AMSA21.JPG,AMNE23.JPG,AMNE21.JPG,AMSA25.JPG,AMNE25.JPG,AMSA23.JPG,,,,,0,9,9,5,,,,,,,,,,,,,,,,,,,AFSA17.jpg,AFSA18.jpg,AFNE18.jpg,AFNE11.jpg,AFSA17.jpg,FS,4,num_8,32,num_2,1.49998187821,,,2017_Apr_25_1956,60.0060240639,MAFE4ImagesEEG,001,100263,
AMNE23.JPG,AMNE24.JPG,AMNE22.JPG,AMSA24.JPG,AMSA22.JPG,AMSA23.JPG,,,,,,,,,0,0,0,9,,,,,,,,,,,,,,,AMSA04.jpg,AMSA07.jpg,AMNE09.jpg,AMNE15.jpg,AMSA04.jpg,MS,2,num_8,16,num_8,0.766832307098,,,2017_Apr_25_1956,60.0060240639,MAFE4ImagesEEG,001,100263,
AFSA25.JPG,AFNE24.JPG,AFSA24.JPG,AFNE21.JPG,AFSA21.JPG,AFNE25.JPG,,,,,,,,,0,1,1,2,,,,,,,,,,,,,,,AMSA16.jpg,AMNE05.jpg,AMNE02.jpg,AMSA07.jpg,AMNE02.jpg,MN,1,num_2,32,num_8,1.75013815833,,,2017_Apr_25_1956,60.0060240639,MAFE4ImagesEEG,001,100263,
AMNE22.JPG,AMSA24.JPG,AMSA22.JPG,AMNE25.JPG,AMNE24.JPG,AMSA25.JPG,,,,,,,,,0,2,2,7,,,,,,,,,,,,,,,AMNE09.jpg,AMSA12.jpg,AMSA01.jpg,AMNE08.jpg,AMNE08.jpg,MN,1,num_4,32,num_2,1.35011301236,,,2017_Apr_25_1956,60.0060240639,MAFE4ImagesEEG,001,100263,
AFSA21.JPG,AFNE22.JPG,AFNE21.JPG,AFSA23.JPG,AFSA22.JPG,AFNE23.JPG,,,,,,,,,0,3,3,0,,,,,,,,,,,,,,,AMNE18.jpg,AMSA19.jpg,AMNE11.jpg,AMSA10.jpg,AMNE18.jpg,MN,1,num_8,32,num_4,2.04992752895,,,2017_Apr_25_1956,60.0060240639,MAFE4ImagesEEG,001,100263,
AMSA21.JPG,AMNE22.JPG,AMNE21.JPG,AMSA23.JPG,AMSA22.JPG,AMNE23.JPG,,,,,,,,,0,4,4,1,,,,,,,,,,,,,,,AMSA18.jpg,AMNE18.jpg,AMNE16.jpg,AMSA15.jpg,AMNE16.jpg,MN,1,num_2,16,num_2,1.98336422583,,,2017_Apr_25_1956,60.0060240639,MAFE4ImagesEEG,001,100263,
AFSA21.JPG,AFNE23.JPG,AFNE21.JPG,AFSA25.JPG,AFNE25.JPG,AFSA23.JPG,,,,,,,,,0,5,5,4,,,,,,,,,,,,,,,AMSA12.jpg,AMNE20.jpg,AMSA18.jpg,AMNE03.jpg,AMNE03.jpg,MN,1,num_4,16,num_4,0.917164640734,,,2017_Apr_25_1956,60.0060240639,MAFE4ImagesEEG,001,100263,
AMSA21.JPG,AMNE23.JPG,AMNE21.JPG,AMSA25.JPG,AMNE25.JPG,AMSA23.JPG,,,,,,,,,0,6,6,5,,,,,,,,,,,,,,,AMNE17.jpg,AMNE05.jpg,AMSA19.jpg,AMSA15.jpg,AMNE17.jpg,MN,1,num_8,32,num_6,1.35016882105,,,2017_Apr_25_1956,60.0060240639,MAFE4ImagesEEG,001,100263,
AFNE22.JPG,AFSA24.JPG,AFSA22.JPG,AFNE25.JPG,AFNE24.JPG,AFSA25.JPG,,,,,,,,,0,7,7,6,,,,,,,,,,,,,,,AMNE05.jpg,AMNE12.jpg,AMSA01.jpg,AMSA02.jpg,AMSA01.jpg,MS,2,num_2,32,num_4,1.40013131057,,,2017_Apr_25_1956,60.0060240639,MAFE4ImagesEEG,001,100263,
AFNE23.JPG,AFNE24.JPG,AFNE22.JPG,AFSA24.JPG,AFSA22.JPG,AFSA23.JPG,,,,,,,,,0,8,8,8,,,,,,,,,,,,,,,AMNE11.jpg,AMSA07.jpg,AMSA11.jpg,AMNE01.jpg,AMSA11.jpg,MS,2,num_2,32,num_6,0.700144236442,,,2017_Apr_25_1956,60.0060240639,MAFE4ImagesEEG,001,100263,
AMSA25.JPG,AMNE24.JPG,AMSA24.JPG,AMNE26.JPG,AMSA21.JPG,AMNE25.JPG,,,,,,,,,0,9,9,3,,,,,,,,,,,,,,,AMSA15.jpg,AMNE03.jpg,AMSA20.jpg,AMNE20.jpg,AMSA20.jpg,MS,2,num_2,32,num_8,0.86677364388,,,2017_Apr_25_1956,60.0060240639,MAFE4ImagesEEG,001,100263,
AMSA25.JPG,AMNE24.JPG,AMSA24.JPG,AMNE26.JPG,AMSA21.JPG,AMNE25.JPG,,,,,,,,,,,,,0,0,0,3,,,,,,,,,,,AFSA07.jpg,AFNE10.jpg,AFSA06.jpg,AFNE09.jpg,AFNE10.jpg,FN,3,num_6,32,num_8,1.09963920061,,,2017_Apr_25_1956,60.0060240639,MAFE4ImagesEEG,001,100263,
AFSA21.JPG,AFNE22.JPG,AFNE21.JPG,AFSA23.JPG,AFSA22.JPG,AFNE23.JPG,,,,,,,,,,,,,0,1,1,0,,,,,,,,,,,AFSA12.jpg,AFSA13.jpg,AFNE15.jpg,AFNE14.jpg,AFNE14.jpg,FN,3,num_4,32,num_2,1.58343626384,,,2017_Apr_25_1956,60.0060240639,MAFE4ImagesEEG,001,100263,
AMNE22.JPG,AMSA24.JPG,AMSA22.JPG,AMNE25.JPG,AMNE24.JPG,AMSA25.JPG,,,,,,,,,,,,,0,2,2,7,,,,,,,,,,,AFNE11.jpg,AFNE06.jpg,AFSA04.jpg,AFSA14.jpg,AFSA14.jpg,FS,4,num_4,16,num_4,1.53333874315,,,2017_Apr_25_1956,60.0060240639,MAFE4ImagesEEG,001,100263,
AMSA21.JPG,AMNE23.JPG,AMNE21.JPG,AMSA25.JPG,AMNE25.JPG,AMSA23.JPG,,,,,,,,,,,,,0,3,3,5,,,,,,,,,,,AFSA09.jpg,AFNE19.jpg,AFSA17.jpg,AFNE03.jpg,AFNE19.jpg,FN,3,num_6,32,num_2,2.51664427365,,,2017_Apr_25_1956,60.0060240639,MAFE4ImagesEEG,001,100263,
AFSA25.JPG,AFNE24.JPG,AFSA24.JPG,AFNE21.JPG,AFSA21.JPG,AFNE25.JPG,,,,,,,,,,,,,0,4,4,2,,,,,,,,,,,AFSA11.jpg,AFSA04.jpg,AFNE12.jpg,AFNE16.jpg,AFSA11.jpg,FS,4,num_8,16,num_8,1.05012125545,,,2017_Apr_25_1956,60.0060240639,MAFE4ImagesEEG,001,100263,
AMSA21.JPG,AMNE22.JPG,AMNE21.JPG,AMSA23.JPG,AMSA22.JPG,AMNE23.JPG,,,,,,,,,,,,,0,5,5,1,,,,,,,,,,,AFNE19.jpg,AFSA11.jpg,AFNE01.jpg,AFSA17.jpg,AFNE01.jpg,FN,3,num_2,32,num_8,2.58334581542,,,2017_Apr_25_1956,60.0060240639,MAFE4ImagesEEG,001,100263,
AFNE22.JPG,AFSA24.JPG,AFSA22.JPG,AFNE25.JPG,AFNE24.JPG,AFSA25.JPG,,,,,,,,,,,,,0,6,6,6,,,,,,,,,,,AFNE16.jpg,AFSA03.jpg,AFNE10.jpg,AFSA07.jpg,AFSA07.jpg,FS,4,num_4,16,num_4,1.30012133555,,,2017_Apr_25_1956,60.0060240639,MAFE4ImagesEEG,001,100263,
AMNE23.JPG,AMNE24.JPG,AMNE22.JPG,AMSA24.JPG,AMSA22.JPG,AMSA23.JPG,,,,,,,,,,,,,0,7,7,9,,,,,,,,,,,AFNE18.jpg,AFSA10.jpg,AFNE13.jpg,AFSA09.jpg,AFNE18.jpg,FN,3,num_8,32,num_6,1.9000182501,,,2017_Apr_25_1956,60.0060240639,MAFE4ImagesEEG,001,100263,
AFNE23.JPG,AFNE24.JPG,AFNE22.JPG,AFSA24.JPG,AFSA22.JPG,AFSA23.JPG,,,,,,,,,,,,,0,8,8,8,,,,,,,,,,,AFSA17.jpg,AFNE01.jpg,AFSA04.jpg,AFNE07.jpg,AFSA17.jpg,FS,4,num_8,32,num_2,1.53339743835,,,2017_Apr_25_1956,60.0060240639,MAFE4ImagesEEG,001,100263,
AFSA21.JPG,AFNE23.JPG,AFNE21.JPG,AFSA25.JPG,AFNE25.JPG,AFSA23.JPG,,,,,,,,,,,,,0,9,9,4,,,,,,,,,,,AFNE04.jpg,AFSA14.jpg,AFSA06.jpg,AFNE10.jpg,AFNE04.jpg,FN,3,num_8,32,num_4,1.25015948748,,,2017_Apr_25_1956,60.0060240639,MAFE4ImagesEEG,001,100263,
AFNE23.JPG,AFNE24.JPG,AFNE22.JPG,AFSA24.JPG,AFSA22.JPG,AFSA23.JPG,,,,,,,,,,,,,,,,,0,0,0,8,,,,,,,AMNE17.jpg,AMSA04.jpg,AMNE09.jpg,AMSA16.jpg,AMNE17.jpg,MN,1,num_8,32,num_4,1.25013799802,,,2017_Apr_25_1956,60.0060240639,MAFE4ImagesEEG,001,100263,
AMNE22.JPG,AMSA24.JPG,AMSA22.JPG,AMNE25.JPG,AMNE24.JPG,AMSA25.JPG,,,,,,,,,,,,,,,,,0,1,1,7,,,,,,,AMSA12.jpg,AMNE03.jpg,AMSA08.jpg,AMNE16.jpg,AMSA12.jpg,MS,2,num_8,16,num_8,0.600159599795,,,2017_Apr_25_1956,60.0060240639,MAFE4ImagesEEG,001,100263,
AFSA21.JPG,AFNE22.JPG,AFNE21.JPG,AFSA23.JPG,AFSA22.JPG,AFNE23.JPG,,,,,,,,,,,,,,,,,0,2,2,0,,,,,,,AMSA05.jpg,AMSA14.jpg,AMNE09.jpg,AMNE20.jpg,AMSA05.jpg,MS,2,num_8,32,num_2,0.916872447473,,,2017_Apr_25_1956,60.0060240639,MAFE4ImagesEEG,001,100263,
AMSA21.JPG,AMNE22.JPG,AMNE21.JPG,AMSA23.JPG,AMSA22.JPG,AMNE23.JPG,,,,,,,,,,,,,,,,,0,3,3,1,,,,,,,AMSA16.jpg,AMNE03.jpg,AMSA15.jpg,AMNE12.jpg,AMNE12.jpg,MN,1,num_4,16,num_4,1.36662049091,,,2017_Apr_25_1956,60.0060240639,MAFE4ImagesEEG,001,100263,
AFNE22.JPG,AFSA24.JPG,AFSA22.JPG,AFNE25.JPG,AFNE24.JPG,AFSA25.JPG,,,,,,,,,,,,,,,,,0,4,4,6,,,,,,,AMNE06.jpg,AMNE17.jpg,AMSA02.jpg,AMSA15.jpg,AMNE17.jpg,MN,1,num_6,16,num_6,0.800152286887,,,2017_Apr_25_1956,60.0060240639,MAFE4ImagesEEG,001,100263,
AFSA21.JPG,AFNE23.JPG,AFNE21.JPG,AFSA25.JPG,AFNE25.JPG,AFSA23.JPG,,,,,,,,,,,,,,,,,0,5,5,4,,,,,,,AMSA06.jpg,AMNE15.jpg,AMNE19.jpg,AMSA16.jpg,AMSA06.jpg,MS,2,num_8,32,num_4,1.34992024826,,,2017_Apr_25_1956,60.0060240639,MAFE4ImagesEEG,001,100263,
AMSA21.JPG,AMNE23.JPG,AMNE21.JPG,AMSA25.JPG,AMNE25.JPG,AMSA23.JPG,,,,,,,,,,,,,,,,,0,6,6,5,,,,,,,AMNE18.jpg,AMSA15.jpg,AMNE17.jpg,AMSA07.jpg,AMNE18.jpg,MN,1,num_8,16,num_8,1.06674323778,,,2017_Apr_25_1956,60.0060240639,MAFE4ImagesEEG,001,100263,
AFSA25.JPG,AFNE24.JPG,AFSA24.JPG,AFNE21.JPG,AFSA21.JPG,AFNE25.JPG,,,,,,,,,,,,,,,,,0,7,7,2,,,,,,,AMNE16.jpg,AMSA14.jpg,AMSA19.jpg,AMNE08.jpg,AMNE08.jpg,MN,1,num_4,16,num_4,1.05009527551,,,2017_Apr_25_1956,60.0060240639,MAFE4ImagesEEG,001,100263,
AMNE23.JPG,AMNE24.JPG,AMNE22.JPG,AMSA24.JPG,AMSA22.JPG,AMSA23.JPG,,,,,,,,,,,,,,,,,0,8,8,9,,,,,,,AMNE07.jpg,AMSA14.jpg,AMNE19.jpg,AMSA02.jpg,AMNE19.jpg,MN,1,num_2,16,num_2,2.29999785102,,,2017_Apr_25_1956,60.0060240639,MAFE4ImagesEEG,001,100263,
AMSA25.JPG,AMNE24.JPG,AMSA24.JPG,AMNE26.JPG,AMSA21.JPG,AMNE25.JPG,,,,,,,,,,,,,,,,,0,9,9,3,,,,,,,AMSA06.jpg,AMNE12.jpg,AMSA08.jpg,AMNE15.jpg,AMSA08.jpg,MS,2,num_2,32,num_8,0.90011799999,,,2017_Apr_25_1956,60.0060240639,MAFE4ImagesEEG,001,100263,
AFSA21.JPG,AFNE23.JPG,AFNE21.JPG,AFSA25.JPG,AFNE25.JPG,AFSA23.JPG,,,,,,,,,,,,,,,,,,,,,0,0,0,4,,,AFNE11.jpg,AFNE07.jpg,AFSA10.jpg,AFSA06.jpg,AFNE07.jpg,FN,3,num_6,16,num_6,1.43341119809,,,2017_Apr_25_1956,60.0060240639,MAFE4ImagesEEG,001,100263,
AMSA25.JPG,AMNE24.JPG,AMSA24.JPG,AMNE26.JPG,AMSA21.JPG,AMNE25.JPG,,,,,,,,,,,,,,,,,,,,,0,1,1,3,,,AFSA02.jpg,AFNE08.jpg,AFSA05.jpg,AFNE20.jpg,AFSA02.jpg,FS,4,num_8,16,num_8,1.65005409264,,,2017_Apr_25_1956,60.0060240639,MAFE4ImagesEEG,001,100263,
AMSA21.JPG,AMNE22.JPG,AMNE21.JPG,AMSA23.JPG,AMSA22.JPG,AMNE23.JPG,,,,,,,,,,,,,,,,,,,,,0,2,2,1,,,AFSA02.jpg,AFSA17.jpg,AFNE17.jpg,AFNE12.jpg,AFNE17.jpg,FN,3,num_2,32,num_8,0.850139152608,,,2017_Apr_25_1956,60.0060240639,MAFE4ImagesEEG,001,100263,
AFNE23.JPG,AFNE24.JPG,AFNE22.JPG,AFSA24.JPG,AFSA22.JPG,AFSA23.JPG,,,,,,,,,,,,,,,,,,,,,0,3,3,8,,,AFSA08.jpg,AFNE09.jpg,AFNE05.jpg,AFSA10.jpg,AFNE05.jpg,FN,3,num_2,32,num_8,1.45013260958,,,2017_Apr_25_1956,60.0060240639,MAFE4ImagesEEG,001,100263,
AFSA21.JPG,AFNE22.JPG,AFNE21.JPG,AFSA23.JPG,AFSA22.JPG,AFNE23.JPG,,,,,,,,,,,,,,,,,,,,,0,4,4,0,,,AFNE18.jpg,AFSA03.jpg,AFNE16.jpg,AFSA04.jpg,AFSA03.jpg,FS,4,num_6,16,num_6,0.683520970982,,,2017_Apr_25_1956,60.0060240639,MAFE4ImagesEEG,001,100263,
AMNE22.JPG,AMSA24.JPG,AMSA22.JPG,AMNE25.JPG,AMNE24.JPG,AMSA25.JPG,,,,,,,,,,,,,,,,,,,,,0,5,5,7,,,AFSA10.jpg,AFSA11.jpg,AFNE16.jpg,AFNE14.jpg,AFNE16.jpg,FN,3,num_2,32,num_4,1.56673281372,,,2017_Apr_25_1956,60.0060240639,MAFE4ImagesEEG,001,100263,
AFNE22.JPG,AFSA24.JPG,AFSA22.JPG,AFNE25.JPG,AFNE24.JPG,AFSA25.JPG,,,,,,,,,,,,,,,,,,,,,0,6,6,6,,,AFSA01.jpg,AFSA16.jpg,AFNE03.jpg,AFNE15.jpg,AFSA01.jpg,FS,4,num_8,16,num_8,0.750115706702,,,2017_Apr_25_1956,60.0060240639,MAFE4ImagesEEG,001,100263,
AMSA21.JPG,AMNE23.JPG,AMNE21.JPG,AMSA25.JPG,AMNE25.JPG,AMSA23.JPG,,,,,,,,,,,,,,,,,,,,,0,7,7,5,,,AFSA02.jpg,AFNE03.jpg,AFSA01.jpg,AFNE15.jpg,AFNE03.jpg,FN,3,num_6,32,num_2,1.85002208292,,,2017_Apr_25_1956,60.0060240639,MAFE4ImagesEEG,001,100263,
AMNE23.JPG,AMNE24.JPG,AMNE22.JPG,AMSA24.JPG,AMSA22.JPG,AMSA23.JPG,,,,,,,,,,,,,,,,,,,,,0,8,8,9,,,AFNE15.jpg,AFSA08.jpg,AFSA03.jpg,AFNE02.jpg,AFNE15.jpg,FN,3,num_8,16,num_8,1.25010303746,,,2017_Apr_25_1956,60.0060240639,MAFE4ImagesEEG,001,100263,
AFSA25.JPG,AFNE24.JPG,AFSA24.JPG,AFNE21.JPG,AFSA21.JPG,AFNE25.JPG,,,,,,,,,,,,,,,,,,,,,0,9,9,2,,,AFNE20.jpg,AFNE03.jpg,AFSA06.jpg,AFSA01.jpg,AFNE20.jpg,FN,3,num_8,16,num_8,1.21675836062,,,2017_Apr_25_1956,60.0060240639,MAFE4ImagesEEG,001,100263,
,,,,,,,,,,,,,,,,,,,,,,,,,,,,,,,,,,,,,,,,,,,space,34.7974757192,2017_Apr_25_1956,60.0060240639,MAFE4ImagesEEG,001,100263,
AFNE01.JPG,AFNE01.JPG,AFNE01.JPG,AFNE01.JPG,AFNE01.JPG,AFNE01.JPG,0,0,0,5,,,,,,,,,,,,,,,,,,,,,,,AMNE20.jpg,AMNE12.jpg,AMSA11.jpg,AMSA16.jpg,AMSA16.jpg,MS,2,num_4,16,num_4,2.60004413372,,,2017_Apr_25_1956,60.0060240639,MAFE4ImagesEEG,001,100263,
AFNE01.JPG,AFNE01.JPG,AFNE01.JPG,AFNE01.JPG,AFNE01.JPG,AFNE01.JPG,0,1,1,9,,,,,,,,,,,,,,,,,,,,,,,AMSA09.jpg,AMSA14.jpg,AMNE11.jpg,AMNE05.jpg,AMSA09.jpg,MS,2,num_8,32,num_6,1.55005694728,,,2017_Apr_25_1956,60.0060240639,MAFE4ImagesEEG,001,100263,
AFNE01.JPG,AFNE01.JPG,AFNE01.JPG,AFNE01.JPG,AFNE01.JPG,AFNE01.JPG,0,2,2,6,,,,,,,,,,,,,,,,,,,,,,,AMNE17.jpg,AMSA11.jpg,AMSA16.jpg,AMNE01.jpg,AMNE01.jpg,MN,1,num_4,16,num_4,1.83336963027,,,2017_Apr_25_1956,60.0060240639,MAFE4ImagesEEG,001,100263,
AFNE01.JPG,AFNE01.JPG,AFNE01.JPG,AFNE01.JPG,AFNE01.JPG,AFNE01.JPG,0,3,3,0,,,,,,,,,,,,,,,,,,,,,,,AMNE13.jpg,AMSA15.jpg,AMNE11.jpg,AMSA11.jpg,AMNE13.jpg,MN,1,num_8,32,num_4,1.61676682811,,,2017_Apr_25_1956,60.0060240639,MAFE4ImagesEEG,001,100263,
AFNE01.JPG,AFNE01.JPG,AFNE01.JPG,AFNE01.JPG,AFNE01.JPG,AFNE01.JPG,0,4,4,2,,,,,,,,,,,,,,,,,,,,,,,AMNE16.jpg,AMSA15.jpg,AMNE08.jpg,AMSA07.jpg,AMSA07.jpg,MS,2,num_4,32,num_8,2.10002504964,,,2017_Apr_25_1956,60.0060240639,MAFE4ImagesEEG,001,100263,
AFNE01.JPG,AFNE01.JPG,AFNE01.JPG,AFNE01.JPG,AFNE01.JPG,AFNE01.JPG,0,5,5,1,,,,,,,,,,,,,,,,,,,,,,,AMNE12.jpg,AMSA13.jpg,AMSA07.jpg,AMNE11.jpg,AMNE12.jpg,MN,1,num_8,16,num_8,1.60006562329,,,2017_Apr_25_1956,60.0060240639,MAFE4ImagesEEG,001,100263,
AFNE01.JPG,AFNE01.JPG,AFNE01.JPG,AFNE01.JPG,AFNE01.JPG,AFNE01.JPG,0,6,6,8,,,,,,,,,,,,,,,,,,,,,,,AMNE13.jpg,AMSA03.jpg,AMNE07.jpg,AMSA08.jpg,AMSA03.jpg,MS,2,num_6,16,num_6,1.2003230484,,,2017_Apr_25_1956,60.0060240639,MAFE4ImagesEEG,001,100263,
AFNE01.JPG,AFNE01.JPG,AFNE01.JPG,AFNE01.JPG,AFNE01.JPG,AFNE01.JPG,0,7,7,3,,,,,,,,,,,,,,,,,,,,,,,AMNE09.jpg,AMSA01.jpg,AMNE17.jpg,AMSA02.jpg,AMSA01.jpg,MS,2,num_6,32,num_4,1.18347173755,,,2017_Apr_25_1956,60.0060240639,MAFE4ImagesEEG,001,100263,
AFNE01.JPG,AFNE01.JPG,AFNE01.JPG,AFNE01.JPG,AFNE01.JPG,AFNE01.JPG,0,8,8,4,,,,,,,,,,,,,,,,,,,,,,,AMSA01.jpg,AMNE09.jpg,AMNE15.jpg,AMSA02.jpg,AMNE15.jpg,MN,1,num_2,16,num_2,1.15015143703,,,2017_Apr_25_1956,60.0060240639,MAFE4ImagesEEG,001,100263,
AFNE01.JPG,AFNE01.JPG,AFNE01.JPG,AFNE01.JPG,AFNE01.JPG,AFNE01.JPG,0,9,9,7,,,,,,,,,,,,,,,,,,,,,,,AMNE06.jpg,AMSA11.jpg,AMSA05.jpg,AMNE13.jpg,AMSA05.jpg,MS,2,num_2,16,num_2,2.05003690103,,,2017_Apr_25_1956,60.0060240639,MAFE4ImagesEEG,001,100263,
AFNE01.JPG,AFNE01.JPG,AFNE01.JPG,AFNE01.JPG,AFNE01.JPG,AFNE01.JPG,1,0,10,5,,,,,,,,,,,,,,,,,,,,,,,AMNE05.jpg,AMSA17.jpg,AMNE10.jpg,AMSA11.jpg,AMNE05.jpg,MN,1,num_8,32,num_2,1.05005518312,,,2017_Apr_25_1956,60.0060240639,MAFE4ImagesEEG,001,100263,
AFNE01.JPG,AFNE01.JPG,AFNE01.JPG,AFNE01.JPG,AFNE01.JPG,AFNE01.JPG,1,1,11,9,,,,,,,,,,,,,,,,,,,,,,,AMNE15.jpg,AMSA03.jpg,AMSA14.jpg,AMNE14.jpg,AMSA14.jpg,MS,2,num_2,16,num_2,3.34993307781,,,2017_Apr_25_1956,60.0060240639,MAFE4ImagesEEG,001,100263,
AFNE01.JPG,AFNE01.JPG,AFNE01.JPG,AFNE01.JPG,AFNE01.JPG,AFNE01.JPG,1,2,12,2,,,,,,,,,,,,,,,,,,,,,,,AMSA07.jpg,AMSA11.jpg,AMNE09.jpg,AMNE19.jpg,AMNE19.jpg,MN,1,num_4,32,num_8,2.05013761309,,,2017_Apr_25_1956,60.0060240639,MAFE4ImagesEEG,001,100263,
AFNE01.JPG,AFNE01.JPG,AFNE01.JPG,AFNE01.JPG,AFNE01.JPG,AFNE01.JPG,1,3,13,4,,,,,,,,,,,,,,,,,,,,,,,AMSA19.jpg,AMNE02.jpg,AMSA18.jpg,AMNE06.jpg,AMSA19.jpg,MS,2,num_8,16,num_8,1.43344166828,,,2017_Apr_25_1956,60.0060240639,MAFE4ImagesEEG,001,100263,
AFNE01.JPG,AFNE01.JPG,AFNE01.JPG,AFNE01.JPG,AFNE01.JPG,AFNE01.JPG,1,4,14,0,,,,,,,,,,,,,,,,,,,,,,,AMNE15.jpg,AMSA13.jpg,AMNE03.jpg,AMSA16.jpg,AMSA13.jpg,MS,2,num_6,16,num_6,1.26677120617,,,2017_Apr_25_1956,60.0060240639,MAFE4ImagesEEG,001,100263,
AFNE01.JPG,AFNE01.JPG,AFNE01.JPG,AFNE01.JPG,AFNE01.JPG,AFNE01.JPG,1,5,15,7,,,,,,,,,,,,,,,,,,,,,,,AMSA05.jpg,AMNE12.jpg,AMSA14.jpg,AMNE08.jpg,AMNE08.jpg,MN,1,num_4,32,num_6,1.18337327079,,,2017_Apr_25_1956,60.0060240639,MAFE4ImagesEEG,001,100263,
AFNE01.JPG,AFNE01.JPG,AFNE01.JPG,AFNE01.JPG,AFNE01.JPG,AFNE01.JPG,1,6,16,3,,,,,,,,,,,,,,,,,,,,,,,AMNE02.jpg,AMSA18.jpg,AMNE01.jpg,AMSA14.jpg,AMNE02.jpg,MN,1,num_8,16,num_8,1.40003829624,,,2017_Apr_25_1956,60.0060240639,MAFE4ImagesEEG,001,100263,
AFNE01.JPG,AFNE01.JPG,AFNE01.JPG,AFNE01.JPG,AFNE01.JPG,AFNE01.JPG,1,7,17,1,,,,,,,,,,,,,,,,,,,,,,,AMNE04.jpg,AMSA16.jpg,AMNE12.jpg,AMSA20.jpg,AMNE12.jpg,MN,1,num_2,32,num_4,1.4334259521,,,2017_Apr_25_1956,60.0060240639,MAFE4ImagesEEG,001,100263,
AFNE01.JPG,AFNE01.JPG,AFNE01.JPG,AFNE01.JPG,AFNE01.JPG,AFNE01.JPG,1,8,18,6,,,,,,,,,,,,,,,,,,,,,,,AMSA05.jpg,AMNE15.jpg,AMNE05.jpg,AMSA07.jpg,AMSA05.jpg,MS,2,num_8,16,num_8,1.91655716102,,,2017_Apr_25_1956,60.0060240639,MAFE4ImagesEEG,001,100263,
AFNE01.JPG,AFNE01.JPG,AFNE01.JPG,AFNE01.JPG,AFNE01.JPG,AFNE01.JPG,1,9,19,8,,,,,,,,,,,,,,,,,,,,,,,AMSA10.jpg,AMNE01.jpg,AMNE20.jpg,AMSA17.jpg,AMSA17.jpg,MS,2,num_4,32,num_2,4.49985903525,,,2017_Apr_25_1956,60.0060240639,MAFE4ImagesEEG,001,100263,
AFNE01.JPG,AFNE01.JPG,AFNE01.JPG,AFNE01.JPG,AFNE01.JPG,AFNE01.JPG,2,0,20,8,,,,,,,,,,,,,,,,,,,,,,,AMNE17.jpg,AMSA07.jpg,AMSA14.jpg,AMNE14.jpg,AMNE17.jpg,MN,1,num_8,32,num_4,1.08347427135,,,2017_Apr_25_1956,60.0060240639,MAFE4ImagesEEG,001,100263,
AFNE01.JPG,AFNE01.JPG,AFNE01.JPG,AFNE01.JPG,AFNE01.JPG,AFNE01.JPG,2,1,21,9,,,,,,,,,,,,,,,,,,,,,,,AMNE19.jpg,AMSA17.jpg,AMNE10.jpg,AMSA02.jpg,AMSA17.jpg,MS,2,num_6,16,num_6,0.633375339443,,,2017_Apr_25_1956,60.0060240639,MAFE4ImagesEEG,001,100263,
AFNE01.JPG,AFNE01.JPG,AFNE01.JPG,AFNE01.JPG,AFNE01.JPG,AFNE01.JPG,2,2,22,0,,,,,,,,,,,,,,,,,,,,,,,AMNE17.jpg,AMSA05.jpg,AMNE02.jpg,AMSA14.jpg,AMNE02.jpg,MN,1,num_2,16,num_2,1.20016909367,,,2017_Apr_25_1956,60.0060240639,MAFE4ImagesEEG,001,100263,
AFNE01.JPG,AFNE01.JPG,AFNE01.JPG,AFNE01.JPG,AFNE01.JPG,AFNE01.JPG,2,3,23,3,,,,,,,,,,,,,,,,,,,,,,,AMNE17.jpg,AMSA04.jpg,AMNE05.jpg,AMSA12.jpg,AMSA12.jpg,MS,2,num_4,48,None,,,,2017_Apr_25_1956,60.0060240639,MAFE4ImagesEEG,001,100263,
AFNE01.JPG,AFNE01.JPG,AFNE01.JPG,AFNE01.JPG,AFNE01.JPG,AFNE01.JPG,2,4,24,1,,,,,,,,,,,,,,,,,,,,,,,AMSA20.jpg,AMSA13.jpg,AMNE13.jpg,AMNE02.jpg,AMSA13.jpg,MS,2,num_6,16,num_6,1.25008635898,,,2017_Apr_25_1956,60.0060240639,MAFE4ImagesEEG,001,100263,
AFNE01.JPG,AFNE01.JPG,AFNE01.JPG,AFNE01.JPG,AFNE01.JPG,AFNE01.JPG,2,5,25,4,,,,,,,,,,,,,,,,,,,,,,,AMNE04.jpg,AMSA08.jpg,AMSA14.jpg,AMNE02.jpg,AMNE04.jpg,MN,1,num_8,16,num_8,1.36674846581,,,2017_Apr_25_1956,60.0060240639,MAFE4ImagesEEG,001,100263,
AFNE01.JPG,AFNE01.JPG,AFNE01.JPG,AFNE01.JPG,AFNE01.JPG,AFNE01.JPG,2,6,26,5,,,,,,,,,,,,,,,,,,,,,,,AMNE08.jpg,AMSA19.jpg,AMSA04.jpg,AMNE20.jpg,AMNE08.jpg,MN,1,num_8,32,num_2,0.866791925975,,,2017_Apr_25_1956,60.0060240639,MAFE4ImagesEEG,001,100263,
AFNE01.JPG,AFNE01.JPG,AFNE01.JPG,AFNE01.JPG,AFNE01.JPG,AFNE01.JPG,2,7,27,2,,,,,,,,,,,,,,,,,,,,,,,AMNE14.jpg,AMSA19.jpg,AMSA02.jpg,AMNE10.jpg,AMSA02.jpg,MS,2,num_2,32,num_8,1.00007954321,,,2017_Apr_25_1956,60.0060240639,MAFE4ImagesEEG,001,100263,
AFNE01.JPG,AFNE01.JPG,AFNE01.JPG,AFNE01.JPG,AFNE01.JPG,AFNE01.JPG,2,8,28,6,,,,,,,,,,,,,,,,,,,,,,,AMNE04.jpg,AMNE20.jpg,AMSA10.jpg,AMSA06.jpg,AMSA06.jpg,MS,2,num_4,32,num_2,1.4834711923,,,2017_Apr_25_1956,60.0060240639,MAFE4ImagesEEG,001,100263,
AFNE01.JPG,AFNE01.JPG,AFNE01.JPG,AFNE01.JPG,AFNE01.JPG,AFNE01.JPG,2,9,29,7,,,,,,,,,,,,,,,,,,,,,,,AMNE02.jpg,AMSA07.jpg,AMSA06.jpg,AMNE11.jpg,AMNE11.jpg,MN,1,num_4,32,num_8,1.66653206316,,,2017_Apr_25_1956,60.0060240639,MAFE4ImagesEEG,001,100263,
AFNE01.JPG,AFNE01.JPG,AFNE01.JPG,AFNE01.JPG,AFNE01.JPG,AFNE01.JPG,3,0,30,4,,,,,,,,,,,,,,,,,,,,,,,AMSA13.jpg,AMNE11.jpg,AMNE01.jpg,AMSA09.jpg,AMNE01.jpg,MN,1,num_2,16,num_2,2.73331218597,,,2017_Apr_25_1956,60.0060240639,MAFE4ImagesEEG,001,100263,
AFNE01.JPG,AFNE01.JPG,AFNE01.JPG,AFNE01.JPG,AFNE01.JPG,AFNE01.JPG,3,1,31,6,,,,,,,,,,,,,,,,,,,,,,,AMSA12.jpg,AMNE02.jpg,AMNE15.jpg,AMSA02.jpg,AMNE15.jpg,MN,1,num_2,16,num_2,0.716800217051,,,2017_Apr_25_1956,60.0060240639,MAFE4ImagesEEG,001,100263,
AFNE01.JPG,AFNE01.JPG,AFNE01.JPG,AFNE01.JPG,AFNE01.JPG,AFNE01.JPG,3,2,32,8,,,,,,,,,,,,,,,,,,,,,,,AMSA05.jpg,AMNE08.jpg,AMNE19.jpg,AMSA01.jpg,AMSA01.jpg,MS,2,num_4,16,num_4,1.04985472118,,,2017_Apr_25_1956,60.0060240639,MAFE4ImagesEEG,001,100263,
AFNE01.JPG,AFNE01.JPG,AFNE01.JPG,AFNE01.JPG,AFNE01.JPG,AFNE01.JPG,3,3,33,9,,,,,,,,,,,,,,,,,,,,,,,AMNE06.jpg,AMNE12.jpg,AMSA01.jpg,AMSA11.jpg,AMNE06.jpg,MN,1,num_8,32,num_6,1.08350955276,,,2017_Apr_25_1956,60.0060240639,MAFE4ImagesEEG,001,100263,
AFNE01.JPG,AFNE01.JPG,AFNE01.JPG,AFNE01.JPG,AFNE01.JPG,AFNE01.JPG,3,4,34,5,,,,,,,,,,,,,,,,,,,,,,,AMSA05.jpg,AMNE20.jpg,AMSA17.jpg,AMNE03.jpg,AMNE20.jpg,MN,1,num_6,16,num_6,0.599982872489,,,2017_Apr_25_1956,60.0060240639,MAFE4ImagesEEG,001,100263,
AFNE01.JPG,AFNE01.JPG,AFNE01.JPG,AFNE01.JPG,AFNE01.JPG,AFNE01.JPG,3,5,35,0,,,,,,,,,,,,,,,,,,,,,,,AMNE15.jpg,AMSA19.jpg,AMNE04.jpg,AMSA09.jpg,AMSA19.jpg,MS,2,num_6,16,num_6,1.28346343047,,,2017_Apr_25_1956,60.0060240639,MAFE4ImagesEEG,001,100263,
AFNE01.JPG,AFNE01.JPG,AFNE01.JPG,AFNE01.JPG,AFNE01.JPG,AFNE01.JPG,3,6,36,7,,,,,,,,,,,,,,,,,,,,,,,AMSA15.jpg,AMNE14.jpg,AMNE18.jpg,AMSA07.jpg,AMNE18.jpg,MN,1,num_2,32,num_8,4.93317946407,,,2017_Apr_25_1956,60.0060240639,MAFE4ImagesEEG,001,100263,
AFNE01.JPG,AFNE01.JPG,AFNE01.JPG,AFNE01.JPG,AFNE01.JPG,AFNE01.JPG,3,7,37,2,,,,,,,,,,,,,,,,,,,,,,,AMSA11.jpg,AMSA05.jpg,AMNE20.jpg,AMNE08.jpg,AMSA05.jpg,MS,2,num_6,32,num_2,1.41680204531,,,2017_Apr_25_1956,60.0060240639,MAFE4ImagesEEG,001,100263,
AFNE01.JPG,AFNE01.JPG,AFNE01.JPG,AFNE01.JPG,AFNE01.JPG,AFNE01.JPG,3,8,38,3,,,,,,,,,,,,,,,,,,,,,,,AMSA05.jpg,AMNE20.jpg,AMNE18.jpg,AMSA10.jpg,AMSA05.jpg,MS,2,num_8,32,num_6,0.883471962065,,,2017_Apr_25_1956,60.0060240639,MAFE4ImagesEEG,001,100263,
AFNE01.JPG,AFNE01.JPG,AFNE01.JPG,AFNE01.JPG,AFNE01.JPG,AFNE01.JPG,3,9,39,1,,,,,,,,,,,,,,,,,,,,,,,AMSA07.jpg,AMNE07.jpg,AMNE14.jpg,AMSA01.jpg,AMSA07.jpg,MS,2,num_8,32,num_2,1.03347746271,,,2017_Apr_25_1956,60.0060240639,MAFE4ImagesEEG,001,100263,
AFNE01.JPG,AFNE01.JPG,AFNE01.JPG,AFNE01.JPG,AFNE01.JPG,AFNE01.JPG,4,0,40,6,,,,,,,,,,,,,,,,,,,,,,,AMSA18.jpg,AMSA08.jpg,AMNE20.jpg,AMNE02.jpg,AMSA08.jpg,MS,2,num_6,16,num_6,0.850121191237,,,2017_Apr_25_1956,60.0060240639,MAFE4ImagesEEG,001,100263,
AFNE01.JPG,AFNE01.JPG,AFNE01.JPG,AFNE01.JPG,AFNE01.JPG,AFNE01.JPG,4,1,41,7,,,,,,,,,,,,,,,,,,,,,,,AMNE05.jpg,AMSA19.jpg,AMNE18.jpg,AMSA16.jpg,AMNE05.jpg,MN,1,num_8,32,num_2,2.71659205738,,,2017_Apr_25_1956,60.0060240639,MAFE4ImagesEEG,001,100263,
AFNE01.JPG,AFNE01.JPG,AFNE01.JPG,AFNE01.JPG,AFNE01.JPG,AFNE01.JPG,4,2,42,0,,,,,,,,,,,,,,,,,,,,,,,AMNE12.jpg,AMNE05.jpg,AMSA15.jpg,AMSA11.jpg,AMNE12.jpg,MN,1,num_8,32,num_6,1.63352769043,,,2017_Apr_25_1956,60.0060240639,MAFE4ImagesEEG,001,100263,
AFNE01.JPG,AFNE01.JPG,AFNE01.JPG,AFNE01.JPG,AFNE01.JPG,AFNE01.JPG,4,3,43,8,,,,,,,,,,,,,,,,,,,,,,,AMNE06.jpg,AMNE10.jpg,AMSA08.jpg,AMSA06.jpg,AMNE10.jpg,MN,1,num_6,16,num_6,0.933471336728,,,2017_Apr_25_1956,60.0060240639,MAFE4ImagesEEG,001,100263,
AFNE01.JPG,AFNE01.JPG,AFNE01.JPG,AFNE01.JPG,AFNE01.JPG,AFNE01.JPG,4,4,44,9,,,,,,,,,,,,,,,,,,,,,,,AMSA18.jpg,AMNE16.jpg,AMSA05.jpg,AMNE14.jpg,AMSA05.jpg,MS,2,num_2,16,num_2,1.25012484775,,,2017_Apr_25_1956,60.0060240639,MAFE4ImagesEEG,001,100263,
AFNE01.JPG,AFNE01.JPG,AFNE01.JPG,AFNE01.JPG,AFNE01.JPG,AFNE01.JPG,4,5,45,3,,,,,,,,,,,,,,,,,,,,,,,AMSA10.jpg,AMSA15.jpg,AMNE16.jpg,AMNE08.jpg,AMNE08.jpg,MN,1,num_4,32,num_8,1.18344768207,,,2017_Apr_25_1956,60.0060240639,MAFE4ImagesEEG,001,100263,
AFNE01.JPG,AFNE01.JPG,AFNE01.JPG,AFNE01.JPG,AFNE01.JPG,AFNE01.JPG,4,6,46,1,,,,,,,,,,,,,,,,,,,,,,,AMNE03.jpg,AMSA11.jpg,AMSA18.jpg,AMNE12.jpg,AMNE12.jpg,MN,1,num_4,16,num_4,0.866437188466,,,2017_Apr_25_1956,60.0060240639,MAFE4ImagesEEG,001,100263,
AFNE01.JPG,AFNE01.JPG,AFNE01.JPG,AFNE01.JPG,AFNE01.JPG,AFNE01.JPG,4,7,47,2,,,,,,,,,,,,,,,,,,,,,,,AMNE13.jpg,AMSA19.jpg,AMSA04.jpg,AMNE11.jpg,AMSA04.jpg,MS,2,num_2,16,num_2,2.88334527018,,,2017_Apr_25_1956,60.0060240639,MAFE4ImagesEEG,001,100263,
AFNE01.JPG,AFNE01.JPG,AFNE01.JPG,AFNE01.JPG,AFNE01.JPG,AFNE01.JPG,4,8,48,5,,,,,,,,,,,,,,,,,,,,,,,AMSA06.jpg,AMNE11.jpg,AMSA09.jpg,AMNE01.jpg,AMSA06.jpg,MS,2,num_8,32,num_6,0.933459790074,,,2017_Apr_25_1956,60.0060240639,MAFE4ImagesEEG,001,100263,
AFNE01.JPG,AFNE01.JPG,AFNE01.JPG,AFNE01.JPG,AFNE01.JPG,AFNE01.JPG,4,9,49,4,,,,,,,,,,,,,,,,,,,,,,,AMSA02.jpg,AMNE19.jpg,AMNE14.jpg,AMSA03.jpg,AMNE19.jpg,MN,1,num_6,32,num_2,0.933436055318,,,2017_Apr_25_1956,60.0060240639,MAFE4ImagesEEG,001,100263,
AFNE01.JPG,AFNE01.JPG,AFNE01.JPG,AFNE01.JPG,AFNE01.JPG,AFNE01.JPG,5,0,50,7,,,,,,,,,,,,,,,,,,,,,,,AMNE19.jpg,AMNE04.jpg,AMSA16.jpg,AMSA17.jpg,AMSA16.jpg,MS,2,num_2,16,num_2,1.33337588469,,,2017_Apr_25_1956,60.0060240639,MAFE4ImagesEEG,001,100263,
AFNE01.JPG,AFNE01.JPG,AFNE01.JPG,AFNE01.JPG,AFNE01.JPG,AFNE01.JPG,5,1,51,6,,,,,,,,,,,,,,,,,,,,,,,AMNE03.jpg,AMNE20.jpg,AMSA07.jpg,AMSA04.jpg,AMSA07.jpg,MS,2,num_2,32,num_4,0.73352579819,,,2017_Apr_25_1956,60.0060240639,MAFE4ImagesEEG,001,100263,
AFNE01.JPG,AFNE01.JPG,AFNE01.JPG,AFNE01.JPG,AFNE01.JPG,AFNE01.JPG,5,2,52,3,,,,,,,,,,,,,,,,,,,,,,,AMNE20.jpg,AMSA06.jpg,AMNE14.jpg,AMSA08.jpg,AMNE14.jpg,MN,1,num_2,32,num_8,1.4334564223,,,2017_Apr_25_1956,60.0060240639,MAFE4ImagesEEG,001,100263,
AFNE01.JPG,AFNE01.JPG,AFNE01.JPG,AFNE01.JPG,AFNE01.JPG,AFNE01.JPG,5,3,53,0,,,,,,,,,,,,,,,,,,,,,,,AMNE09.jpg,AMSA20.jpg,AMNE15.jpg,AMSA09.jpg,AMSA20.jpg,MS,2,num_6,32,num_8,2.23337007943,,,2017_Apr_25_1956,60.0060240639,MAFE4ImagesEEG,001,100263,
AFNE01.JPG,AFNE01.JPG,AFNE01.JPG,AFNE01.JPG,AFNE01.JPG,AFNE01.JPG,5,4,54,9,,,,,,,,,,,,,,,,,,,,,,,AMNE15.jpg,AMNE03.jpg,AMSA17.jpg,AMSA09.jpg,AMSA09.jpg,MS,2,num_4,16,num_4,1.249954856,,,2017_Apr_25_1956,60.0060240639,MAFE4ImagesEEG,001,100263,
AFNE01.JPG,AFNE01.JPG,AFNE01.JPG,AFNE01.JPG,AFNE01.JPG,AFNE01.JPG,5,5,55,2,,,,,,,,,,,,,,,,,,,,,,,AMNE03.jpg,AMNE19.jpg,AMSA06.jpg,AMSA18.jpg,AMSA18.jpg,MS,2,num_4,32,num_6,0.766795742791,,,2017_Apr_25_1956,60.0060240639,MAFE4ImagesEEG,001,100263,
AFNE01.JPG,AFNE01.JPG,AFNE01.JPG,AFNE01.JPG,AFNE01.JPG,AFNE01.JPG,5,6,56,5,,,,,,,,,,,,,,,,,,,,,,,AMNE09.jpg,AMSA09.jpg,AMSA16.jpg,AMNE20.jpg,AMNE09.jpg,MN,1,num_8,32,num_2,3.46655894106,,,2017_Apr_25_1956,60.0060240639,MAFE4ImagesEEG,001,100263,
AFNE01.JPG,AFNE01.JPG,AFNE01.JPG,AFNE01.JPG,AFNE01.JPG,AFNE01.JPG,5,7,57,4,,,,,,,,,,,,,,,,,,,,,,,AMNE09.jpg,AMSA05.jpg,AMSA12.jpg,AMNE04.jpg,AMSA05.jpg,MS,2,num_6,32,num_2,0.98345114605,,,2017_Apr_25_1956,60.0060240639,MAFE4ImagesEEG,001,100263,
AFNE01.JPG,AFNE01.JPG,AFNE01.JPG,AFNE01.JPG,AFNE01.JPG,AFNE01.JPG,5,8,58,8,,,,,,,,,,,,,,,,,,,,,,,AMSA19.jpg,AMSA11.jpg,AMNE20.jpg,AMNE08.jpg,AMSA19.jpg,MS,2,num_8,32,num_4,0.850152944331,,,2017_Apr_25_1956,60.0060240639,MAFE4ImagesEEG,001,100263,
AFNE01.JPG,AFNE01.JPG,AFNE01.JPG,AFNE01.JPG,AFNE01.JPG,AFNE01.JPG,5,9,59,1,,,,,,,,,,,,,,,,,,,,,,,AMSA10.jpg,AMNE20.jpg,AMNE13.jpg,AMSA05.jpg,AMSA05.jpg,MS,2,num_4,32,num_8,1.01678171044,,,2017_Apr_25_1956,60.0060240639,MAFE4ImagesEEG,001,100263,
,,,,,,,,,,,,,,,,,,,,,,,,,,,,,,,,,,,,,,,,,,,space,19.2483671975,2017_Apr_25_1956,60.0060240639,MAFE4ImagesEEG,001,100263,
AFNE01.JPG,AFNE01.JPG,AFNE01.JPG,AFNE01.JPG,AFNE01.JPG,AFNE01.JPG,,,,,0,0,0,1,,,,,,,,,,,,,,,,,,,AFSA05.jpg,AFNE17.jpg,AFSA02.jpg,AFNE16.jpg,AFSA02.jpg,FS,4,num_2,32,num_8,0.750111216214,,,2017_Apr_25_1956,60.0060240639,MAFE4ImagesEEG,001,100263,
AFNE01.JPG,AFNE01.JPG,AFNE01.JPG,AFNE01.JPG,AFNE01.JPG,AFNE01.JPG,,,,,0,1,1,6,,,,,,,,,,,,,,,,,,,AFNE06.jpg,AFNE04.jpg,AFSA19.jpg,AFSA01.jpg,AFNE06.jpg,FN,3,num_8,16,num_8,1.31679046655,,,2017_Apr_25_1956,60.0060240639,MAFE4ImagesEEG,001,100263,
AFNE01.JPG,AFNE01.JPG,AFNE01.JPG,AFNE01.JPG,AFNE01.JPG,AFNE01.JPG,,,,,0,2,2,4,,,,,,,,,,,,,,,,,,,AFNE13.jpg,AFNE11.jpg,AFSA13.jpg,AFSA11.jpg,AFSA13.jpg,FS,4,num_2,32,num_4,0.683591212844,,,2017_Apr_25_1956,60.0060240639,MAFE4ImagesEEG,001,100263,
AFNE01.JPG,AFNE01.JPG,AFNE01.JPG,AFNE01.JPG,AFNE01.JPG,AFNE01.JPG,,,,,0,3,3,9,,,,,,,,,,,,,,,,,,,AFSA10.jpg,AFNE07.jpg,AFNE01.jpg,AFSA09.jpg,AFSA09.jpg,FS,4,num_4,16,num_4,0.983440882526,,,2017_Apr_25_1956,60.0060240639,MAFE4ImagesEEG,001,100263,
AFNE01.JPG,AFNE01.JPG,AFNE01.JPG,AFNE01.JPG,AFNE01.JPG,AFNE01.JPG,,,,,0,4,4,0,,,,,,,,,,,,,,,,,,,AFNE07.jpg,AFNE04.jpg,AFSA10.jpg,AFSA16.jpg,AFNE04.jpg,FN,3,num_6,32,num_8,1.23345379217,,,2017_Apr_25_1956,60.0060240639,MAFE4ImagesEEG,001,100263,
AFNE01.JPG,AFNE01.JPG,AFNE01.JPG,AFNE01.JPG,AFNE01.JPG,AFNE01.JPG,,,,,0,5,5,7,,,,,,,,,,,,,,,,,,,AFNE10.jpg,AFSA19.jpg,AFNE15.jpg,AFSA14.jpg,AFSA14.jpg,FS,4,num_4,32,num_6,1.4500646129,,,2017_Apr_25_1956,60.0060240639,MAFE4ImagesEEG,001,100263,
AFNE01.JPG,AFNE01.JPG,AFNE01.JPG,AFNE01.JPG,AFNE01.JPG,AFNE01.JPG,,,,,0,6,6,5,,,,,,,,,,,,,,,,,,,AFNE10.jpg,AFSA11.jpg,AFSA02.jpg,AFNE11.jpg,AFSA02.jpg,FS,4,num_2,16,num_2,1.73335837235,,,2017_Apr_25_1956,60.0060240639,MAFE4ImagesEEG,001,100263,
AFNE01.JPG,AFNE01.JPG,AFNE01.JPG,AFNE01.JPG,AFNE01.JPG,AFNE01.JPG,,,,,0,7,7,8,,,,,,,,,,,,,,,,,,,AFSA12.jpg,AFSA10.jpg,AFNE19.jpg,AFNE05.jpg,AFSA12.jpg,FS,4,num_8,32,num_6,1.11679328908,,,2017_Apr_25_1956,60.0060240639,MAFE4ImagesEEG,001,100263,
AFNE01.JPG,AFNE01.JPG,AFNE01.JPG,AFNE01.JPG,AFNE01.JPG,AFNE01.JPG,,,,,0,8,8,2,,,,,,,,,,,,,,,,,,,AFNE11.jpg,AFNE12.jpg,AFSA10.jpg,AFSA06.jpg,AFNE12.jpg,FN,3,num_6,32,num_2,1.21673494659,,,2017_Apr_25_1956,60.0060240639,MAFE4ImagesEEG,001,100263,
AFNE01.JPG,AFNE01.JPG,AFNE01.JPG,AFNE01.JPG,AFNE01.JPG,AFNE01.JPG,,,,,0,9,9,3,,,,,,,,,,,,,,,,,,,AFNE06.jpg,AFSA12.jpg,AFNE15.jpg,AFSA20.jpg,AFSA20.jpg,FS,4,num_4,16,num_4,0.833466814249,,,2017_Apr_25_1956,60.0060240639,MAFE4ImagesEEG,001,100263,
AFNE01.JPG,AFNE01.JPG,AFNE01.JPG,AFNE01.JPG,AFNE01.JPG,AFNE01.JPG,,,,,1,0,10,3,,,,,,,,,,,,,,,,,,,AFSA10.jpg,AFSA18.jpg,AFNE02.jpg,AFNE05.jpg,AFNE05.jpg,FN,3,num_4,16,num_4,2.66664239741,,,2017_Apr_25_1956,60.0060240639,MAFE4ImagesEEG,001,100263,
AFNE01.JPG,AFNE01.JPG,AFNE01.JPG,AFNE01.JPG,AFNE01.JPG,AFNE01.JPG,,,,,1,1,11,0,,,,,,,,,,,,,,,,,,,AFSA16.jpg,AFNE01.jpg,AFNE09.jpg,AFSA15.jpg,AFNE09.jpg,FN,3,num_2,32,num_6,1.08373984345,,,2017_Apr_25_1956,60.0060240639,MAFE4ImagesEEG,001,100263,
AFNE01.JPG,AFNE01.JPG,AFNE01.JPG,AFNE01.JPG,AFNE01.JPG,AFNE01.JPG,,,,,1,2,12,1,,,,,,,,,,,,,,,,,,,AFNE05.jpg,AFSA11.jpg,AFSA03.jpg,AFNE14.jpg,AFNE14.jpg,FN,3,num_4,16,num_4,0.917115888442,,,2017_Apr_25_1956,60.0060240639,MAFE4ImagesEEG,001,100263,
AFNE01.JPG,AFNE01.JPG,AFNE01.JPG,AFNE01.JPG,AFNE01.JPG,AFNE01.JPG,,,,,1,3,13,2,,,,,,,,,,,,,,,,,,,AFNE05.jpg,AFSA15.jpg,AFNE17.jpg,AFSA13.jpg,AFNE17.jpg,FN,3,num_2,32,num_8,1.03343448369,,,2017_Apr_25_1956,60.0060240639,MAFE4ImagesEEG,001,100263,
AFNE01.JPG,AFNE01.JPG,AFNE01.JPG,AFNE01.JPG,AFNE01.JPG,AFNE01.JPG,,,,,1,4,14,5,,,,,,,,,,,,,,,,,,,AFNE10.jpg,AFSA13.jpg,AFNE13.jpg,AFSA08.jpg,AFNE10.jpg,FN,3,num_8,16,num_8,1.8667069301,,,2017_Apr_25_1956,60.0060240639,MAFE4ImagesEEG,001,100263,
AFNE01.JPG,AFNE01.JPG,AFNE01.JPG,AFNE01.JPG,AFNE01.JPG,AFNE01.JPG,,,,,1,5,15,9,,,,,,,,,,,,,,,,,,,AFSA16.jpg,AFSA04.jpg,AFNE05.jpg,AFNE06.jpg,AFSA04.jpg,FS,4,num_6,32,num_4,1.03356149653,,,2017_Apr_25_1956,60.0060240639,MAFE4ImagesEEG,001,100263,
AFNE01.JPG,AFNE01.JPG,AFNE01.JPG,AFNE01.JPG,AFNE01.JPG,AFNE01.JPG,,,,,1,6,16,6,,,,,,,,,,,,,,,,,,,AFSA16.jpg,AFSA07.jpg,AFNE09.jpg,AFNE08.jpg,AFNE08.jpg,FN,3,num_4,16,num_4,0.900131791714,,,2017_Apr_25_1956,60.0060240639,MAFE4ImagesEEG,001,100263,
AFNE01.JPG,AFNE01.JPG,AFNE01.JPG,AFNE01.JPG,AFNE01.JPG,AFNE01.JPG,,,,,1,7,17,8,,,,,,,,,,,,,,,,,,,AFSA02.jpg,AFSA07.jpg,AFNE13.jpg,AFNE11.jpg,AFSA02.jpg,FS,4,num_8,16,num_8,2.40002482524,,,2017_Apr_25_1956,60.0060240639,MAFE4ImagesEEG,001,100263,
AFNE01.JPG,AFNE01.JPG,AFNE01.JPG,AFNE01.JPG,AFNE01.JPG,AFNE01.JPG,,,,,1,8,18,7,,,,,,,,,,,,,,,,,,,AFNE17.jpg,AFSA18.jpg,AFNE02.jpg,AFSA17.jpg,AFSA18.jpg,FS,4,num_6,16,num_6,1.50012621074,,,2017_Apr_25_1956,60.0060240639,MAFE4ImagesEEG,001,100263,
AFNE01.JPG,AFNE01.JPG,AFNE01.JPG,AFNE01.JPG,AFNE01.JPG,AFNE01.JPG,,,,,1,9,19,4,,,,,,,,,,,,,,,,,,,AFSA15.jpg,AFNE07.jpg,AFNE19.jpg,AFSA16.jpg,AFSA16.jpg,FS,4,num_4,16,num_4,1.68318900606,,,2017_Apr_25_1956,60.0060240639,MAFE4ImagesEEG,001,100263,
AFNE01.JPG,AFNE01.JPG,AFNE01.JPG,AFNE01.JPG,AFNE01.JPG,AFNE01.JPG,,,,,2,0,20,9,,,,,,,,,,,,,,,,,,,AFSA10.jpg,AFNE17.jpg,AFNE04.jpg,AFSA20.jpg,AFSA10.jpg,FS,4,num_8,16,num_8,1.36671318451,,,2017_Apr_25_1956,60.0060240639,MAFE4ImagesEEG,001,100263,
AFNE01.JPG,AFNE01.JPG,AFNE01.JPG,AFNE01.JPG,AFNE01.JPG,AFNE01.JPG,,,,,2,1,21,2,,,,,,,,,,,,,,,,,,,AFNE07.jpg,AFSA17.jpg,AFSA05.jpg,AFNE05.jpg,AFSA05.jpg,FS,4,num_2,32,num_8,1.51680143597,,,2017_Apr_25_1956,60.0060240639,MAFE4ImagesEEG,001,100263,
AFNE01.JPG,AFNE01.JPG,AFNE01.JPG,AFNE01.JPG,AFNE01.JPG,AFNE01.JPG,,,,,2,2,22,8,,,,,,,,,,,,,,,,,,,AFSA09.jpg,AFNE18.jpg,AFSA12.jpg,AFNE05.jpg,AFNE18.jpg,FN,3,num_6,32,num_2,1.58342760382,,,2017_Apr_25_1956,60.0060240639,MAFE4ImagesEEG,001,100263,
AFNE01.JPG,AFNE01.JPG,AFNE01.JPG,AFNE01.JPG,AFNE01.JPG,AFNE01.JPG,,,,,2,3,23,4,,,,,,,,,,,,,,,,,,,AFSA04.jpg,AFSA15.jpg,AFNE13.jpg,AFNE14.jpg,AFNE14.jpg,FN,3,num_4,32,num_6,1.23346213147,,,2017_Apr_25_1956,60.0060240639,MAFE4ImagesEEG,001,100263,
AFNE01.JPG,AFNE01.JPG,AFNE01.JPG,AFNE01.JPG,AFNE01.JPG,AFNE01.JPG,,,,,2,4,24,0,,,,,,,,,,,,,,,,,,,AFNE10.jpg,AFSA03.jpg,AFSA07.jpg,AFNE01.jpg,AFSA03.jpg,FS,4,num_6,32,num_4,1.58343305648,,,2017_Apr_25_1956,60.0060240639,MAFE4ImagesEEG,001,100263,
AFNE01.JPG,AFNE01.JPG,AFNE01.JPG,AFNE01.JPG,AFNE01.JPG,AFNE01.JPG,,,,,2,5,25,5,,,,,,,,,,,,,,,,,,,AFNE05.jpg,AFNE04.jpg,AFSA10.jpg,AFSA18.jpg,AFNE04.jpg,FN,3,num_6,16,num_6,1.05018379958,,,2017_Apr_25_1956,60.0060240639,MAFE4ImagesEEG,001,100263,
AFNE01.JPG,AFNE01.JPG,AFNE01.JPG,AFNE01.JPG,AFNE01.JPG,AFNE01.JPG,,,,,2,6,26,6,,,,,,,,,,,,,,,,,,,AFNE08.jpg,AFSA19.jpg,AFNE01.jpg,AFSA02.jpg,AFNE08.jpg,FN,3,num_8,32,num_2,0.833474511979,,,2017_Apr_25_1956,60.0060240639,MAFE4ImagesEEG,001,100263,
AFNE01.JPG,AFNE01.JPG,AFNE01.JPG,AFNE01.JPG,AFNE01.JPG,AFNE01.JPG,,,,,2,7,27,1,,,,,,,,,,,,,,,,,,,AFSA14.jpg,AFNE03.jpg,AFSA07.jpg,AFNE19.jpg,AFSA14.jpg,FS,4,num_8,16,num_8,0.600140676135,,,2017_Apr_25_1956,60.0060240639,MAFE4ImagesEEG,001,100263,
AFNE01.JPG,AFNE01.JPG,AFNE01.JPG,AFNE01.JPG,AFNE01.JPG,AFNE01.JPG,,,,,2,8,28,3,,,,,,,,,,,,,,,,,,,AFNE02.jpg,AFNE13.jpg,AFSA12.jpg,AFSA08.jpg,AFSA08.jpg,FS,4,num_4,16,num_4,0.81682847417,,,2017_Apr_25_1956,60.0060240639,MAFE4ImagesEEG,001,100263,
AFNE01.JPG,AFNE01.JPG,AFNE01.JPG,AFNE01.JPG,AFNE01.JPG,AFNE01.JPG,,,,,2,9,29,7,,,,,,,,,,,,,,,,,,,AFNE19.jpg,AFSA03.jpg,AFNE07.jpg,AFSA09.jpg,AFNE19.jpg,FN,3,num_8,32,num_6,1.01678684226,,,2017_Apr_25_1956,60.0060240639,MAFE4ImagesEEG,001,100263,
AFNE01.JPG,AFNE01.JPG,AFNE01.JPG,AFNE01.JPG,AFNE01.JPG,AFNE01.JPG,,,,,3,0,30,4,,,,,,,,,,,,,,,,,,,AFSA13.jpg,AFSA19.jpg,AFNE11.jpg,AFNE14.jpg,AFNE11.jpg,FN,3,num_2,32,num_8,1.41672442644,,,2017_Apr_25_1956,60.0060240639,MAFE4ImagesEEG,001,100263,
AFNE01.JPG,AFNE01.JPG,AFNE01.JPG,AFNE01.JPG,AFNE01.JPG,AFNE01.JPG,,,,,3,1,31,1,,,,,,,,,,,,,,,,,,,AFSA18.jpg,AFNE18.jpg,AFNE09.jpg,AFSA07.jpg,AFSA07.jpg,FS,4,num_4,32,num_6,1.11680130765,,,2017_Apr_25_1956,60.0060240639,MAFE4ImagesEEG,001,100263,
AFNE01.JPG,AFNE01.JPG,AFNE01.JPG,AFNE01.JPG,AFNE01.JPG,AFNE01.JPG,,,,,3,2,32,6,,,,,,,,,,,,,,,,,,,AFNE19.jpg,AFSA17.jpg,AFNE17.jpg,AFSA09.jpg,AFNE17.jpg,FN,3,num_2,32,num_4,0.883140959428,,,2017_Apr_25_1956,60.0060240639,MAFE4ImagesEEG,001,100263,
AFNE01.JPG,AFNE01.JPG,AFNE01.JPG,AFNE01.JPG,AFNE01.JPG,AFNE01.JPG,,,,,3,3,33,7,,,,,,,,,,,,,,,,,,,AFNE17.jpg,AFNE05.jpg,AFSA15.jpg,AFSA12.jpg,AFNE17.jpg,FN,3,num_8,32,num_6,0.833335631993,,,2017_Apr_25_1956,60.0060240639,MAFE4ImagesEEG,001,100263,
AFNE01.JPG,AFNE01.JPG,AFNE01.JPG,AFNE01.JPG,AFNE01.JPG,AFNE01.JPG,,,,,3,4,34,2,,,,,,,,,,,,,,,,,,,AFSA04.jpg,AFNE12.jpg,AFNE13.jpg,AFSA02.jpg,AFSA02.jpg,FS,4,num_4,32,num_8,1.86657061602,,,2017_Apr_25_1956,60.0060240639,MAFE4ImagesEEG,001,100263,
AFNE01.JPG,AFNE01.JPG,AFNE01.JPG,AFNE01.JPG,AFNE01.JPG,AFNE01.JPG,,,,,3,5,35,8,,,,,,,,,,,,,,,,,,,AFNE08.jpg,AFSA09.jpg,AFSA03.jpg,AFNE16.jpg,AFSA03.jpg,FS,4,num_2,32,num_4,3.83328367223,,,2017_Apr_25_1956,60.0060240639,MAFE4ImagesEEG,001,100263,
AFNE01.JPG,AFNE01.JPG,AFNE01.JPG,AFNE01.JPG,AFNE01.JPG,AFNE01.JPG,,,,,3,6,36,5,,,,,,,,,,,,,,,,,,,AFNE01.jpg,AFSA14.jpg,AFNE20.jpg,AFSA08.jpg,AFNE01.jpg,FN,3,num_8,16,num_8,0.733466461417,,,2017_Apr_25_1956,60.0060240639,MAFE4ImagesEEG,001,100263,
AFNE01.JPG,AFNE01.JPG,AFNE01.JPG,AFNE01.JPG,AFNE01.JPG,AFNE01.JPG,,,,,3,7,37,3,,,,,,,,,,,,,,,,,,,AFNE16.jpg,AFNE05.jpg,AFSA12.jpg,AFSA10.jpg,AFNE05.jpg,FN,3,num_6,32,num_8,4.86639324739,,,2017_Apr_25_1956,60.0060240639,MAFE4ImagesEEG,001,100263,
AFNE01.JPG,AFNE01.JPG,AFNE01.JPG,AFNE01.JPG,AFNE01.JPG,AFNE01.JPG,,,,,3,8,38,0,,,,,,,,,,,,,,,,,,,AFNE18.jpg,AFSA05.jpg,AFSA06.jpg,AFNE13.jpg,AFSA05.jpg,FS,4,num_6,32,num_4,2.98326511739,,,2017_Apr_25_1956,60.0060240639,MAFE4ImagesEEG,001,100263,
AFNE01.JPG,AFNE01.JPG,AFNE01.JPG,AFNE01.JPG,AFNE01.JPG,AFNE01.JPG,,,,,3,9,39,9,,,,,,,,,,,,,,,,,,,AFNE05.jpg,AFNE04.jpg,AFSA12.jpg,AFSA06.jpg,AFNE05.jpg,FN,3,num_8,16,num_8,2.88341711566,,,2017_Apr_25_1956,60.0060240639,MAFE4ImagesEEG,001,100263,
AFNE01.JPG,AFNE01.JPG,AFNE01.JPG,AFNE01.JPG,AFNE01.JPG,AFNE01.JPG,,,,,4,0,40,3,,,,,,,,,,,,,,,,,,,AFNE06.jpg,AFSA19.jpg,AFNE04.jpg,AFSA07.jpg,AFSA19.jpg,FS,4,num_6,16,num_6,0.566660006065,,,2017_Apr_25_1956,60.0060240639,MAFE4ImagesEEG,001,100263,
AFNE01.JPG,AFNE01.JPG,AFNE01.JPG,AFNE01.JPG,AFNE01.JPG,AFNE01.JPG,,,,,4,1,41,1,,,,,,,,,,,,,,,,,,,AFSA16.jpg,AFNE02.jpg,AFSA15.jpg,AFNE09.jpg,AFNE09.jpg,FN,3,num_4,32,num_2,3.55020833609,,,2017_Apr_25_1956,60.0060240639,MAFE4ImagesEEG,001,100263,
AFNE01.JPG,AFNE01.JPG,AFNE01.JPG,AFNE01.JPG,AFNE01.JPG,AFNE01.JPG,,,,,4,2,42,6,,,,,,,,,,,,,,,,,,,AFSA15.jpg,AFNE04.jpg,AFNE16.jpg,AFSA13.jpg,AFSA15.jpg,FS,4,num_8,16,num_8,1.83340459084,,,2017_Apr_25_1956,60.0060240639,MAFE4ImagesEEG,001,100263,
AFNE01.JPG,AFNE01.JPG,AFNE01.JPG,AFNE01.JPG,AFNE01.JPG,AFNE01.JPG,,,,,4,3,43,8,,,,,,,,,,,,,,,,,,,AFNE09.jpg,AFSA11.jpg,AFNE05.jpg,AFSA19.jpg,AFNE05.jpg,FN,3,num_2,32,num_4,1.2000975688,,,2017_Apr_25_1956,60.0060240639,MAFE4ImagesEEG,001,100263,
AFNE01.JPG,AFNE01.JPG,AFNE01.JPG,AFNE01.JPG,AFNE01.JPG,AFNE01.JPG,,,,,4,4,44,4,,,,,,,,,,,,,,,,,,,AFNE14.jpg,AFSA15.jpg,AFSA06.jpg,AFNE01.jpg,AFNE01.jpg,FN,3,num_4,32,num_2,3.61653589597,,,2017_Apr_25_1956,60.0060240639,MAFE4ImagesEEG,001,100263,
AFNE01.JPG,AFNE01.JPG,AFNE01.JPG,AFNE01.JPG,AFNE01.JPG,AFNE01.JPG,,,,,4,5,45,0,,,,,,,,,,,,,,,,,,,AFSA08.jpg,AFNE03.jpg,AFSA13.jpg,AFNE08.jpg,AFNE08.jpg,FN,3,num_4,32,num_8,0.950103582698,,,2017_Apr_25_1956,60.0060240639,MAFE4ImagesEEG,001,100263,
AFNE01.JPG,AFNE01.JPG,AFNE01.JPG,AFNE01.JPG,AFNE01.JPG,AFNE01.JPG,,,,,4,6,46,9,,,,,,,,,,,,,,,,,,,AFSA12.jpg,AFNE05.jpg,AFSA18.jpg,AFNE01.jpg,AFSA18.jpg,FS,4,num_2,32,num_6,1.06680770637,,,2017_Apr_25_1956,60.0060240639,MAFE4ImagesEEG,001,100263,
AFNE01.JPG,AFNE01.JPG,AFNE01.JPG,AFNE01.JPG,AFNE01.JPG,AFNE01.JPG,,,,,4,7,47,7,,,,,,,,,,,,,,,,,,,AFSA02.jpg,AFNE04.jpg,AFSA20.jpg,AFNE19.jpg,AFSA02.jpg,FS,4,num_8,32,num_4,0.816729365732,,,2017_Apr_25_1956,60.0060240639,MAFE4ImagesEEG,001,100263,
AFNE01.JPG,AFNE01.JPG,AFNE01.JPG,AFNE01.JPG,AFNE01.JPG,AFNE01.JPG,,,,,4,8,48,2,,,,,,,,,,,,,,,,,,,AFSA20.jpg,AFNE18.jpg,AFSA14.jpg,AFNE10.jpg,AFNE18.jpg,FN,3,num_6,32,num_8,1.00015074736,,,2017_Apr_25_1956,60.0060240639,MAFE4ImagesEEG,001,100263,
AFNE01.JPG,AFNE01.JPG,AFNE01.JPG,AFNE01.JPG,AFNE01.JPG,AFNE01.JPG,,,,,4,9,49,5,,,,,,,,,,,,,,,,,,,AFSA07.jpg,AFNE02.jpg,AFSA11.jpg,AFNE04.jpg,AFNE04.jpg,FN,3,num_4,32,num_8,0.966791957966,,,2017_Apr_25_1956,60.0060240639,MAFE4ImagesEEG,001,100263,
AFNE01.JPG,AFNE01.JPG,AFNE01.JPG,AFNE01.JPG,AFNE01.JPG,AFNE01.JPG,,,,,5,0,50,1,,,,,,,,,,,,,,,,,,,AFNE15.jpg,AFSA20.jpg,AFNE17.jpg,AFSA08.jpg,AFNE17.jpg,FN,3,num_2,16,num_2,1.4000585028,,,2017_Apr_25_1956,60.0060240639,MAFE4ImagesEEG,001,100263,
AFNE01.JPG,AFNE01.JPG,AFNE01.JPG,AFNE01.JPG,AFNE01.JPG,AFNE01.JPG,,,,,5,1,51,2,,,,,,,,,,,,,,,,,,,AFSA07.jpg,AFNE04.jpg,AFNE17.jpg,AFSA18.jpg,AFNE17.jpg,FN,3,num_2,32,num_6,1.46684407815,,,2017_Apr_25_1956,60.0060240639,MAFE4ImagesEEG,001,100263,
AFNE01.JPG,AFNE01.JPG,AFNE01.JPG,AFNE01.JPG,AFNE01.JPG,AFNE01.JPG,,,,,5,2,52,5,,,,,,,,,,,,,,,,,,,AFSA18.jpg,AFNE12.jpg,AFNE01.jpg,AFSA17.jpg,AFSA17.jpg,FS,4,num_4,16,num_4,0.866758889752,,,2017_Apr_25_1956,60.0060240639,MAFE4ImagesEEG,001,100263,
AFNE01.JPG,AFNE01.JPG,AFNE01.JPG,AFNE01.JPG,AFNE01.JPG,AFNE01.JPG,,,,,5,3,53,7,,,,,,,,,,,,,,,,,,,AFSA02.jpg,AFNE06.jpg,AFNE16.jpg,AFSA05.jpg,AFSA02.jpg,FS,4,num_8,32,num_4,1.90004070185,,,2017_Apr_25_1956,60.0060240639,MAFE4ImagesEEG,001,100263,
AFNE01.JPG,AFNE01.JPG,AFNE01.JPG,AFNE01.JPG,AFNE01.JPG,AFNE01.JPG,,,,,5,4,54,0,,,,,,,,,,,,,,,,,,,AFSA02.jpg,AFNE10.jpg,AFNE04.jpg,AFSA07.jpg,AFNE10.jpg,FN,3,num_6,32,num_8,3.299935307,,,2017_Apr_25_1956,60.0060240639,MAFE4ImagesEEG,001,100263,
AFNE01.JPG,AFNE01.JPG,AFNE01.JPG,AFNE01.JPG,AFNE01.JPG,AFNE01.JPG,,,,,5,5,55,6,,,,,,,,,,,,,,,,,,,AFNE02.jpg,AFNE09.jpg,AFSA20.jpg,AFSA17.jpg,AFSA17.jpg,FS,4,num_4,32,num_2,2.08336586156,,,2017_Apr_25_1956,60.0060240639,MAFE4ImagesEEG,001,100263,
AFNE01.JPG,AFNE01.JPG,AFNE01.JPG,AFNE01.JPG,AFNE01.JPG,AFNE01.JPG,,,,,5,6,56,8,,,,,,,,,,,,,,,,,,,AFSA10.jpg,AFSA15.jpg,AFNE10.jpg,AFNE03.jpg,AFNE10.jpg,FN,3,num_2,32,num_8,1.18342490972,,,2017_Apr_25_1956,60.0060240639,MAFE4ImagesEEG,001,100263,
AFNE01.JPG,AFNE01.JPG,AFNE01.JPG,AFNE01.JPG,AFNE01.JPG,AFNE01.JPG,,,,,5,7,57,3,,,,,,,,,,,,,,,,,,,AFSA16.jpg,AFNE09.jpg,AFNE12.jpg,AFSA13.jpg,AFNE12.jpg,FN,3,num_2,32,num_8,1.03344506805,,,2017_Apr_25_1956,60.0060240639,MAFE4ImagesEEG,001,100263,
AFNE01.JPG,AFNE01.JPG,AFNE01.JPG,AFNE01.JPG,AFNE01.JPG,AFNE01.JPG,,,,,5,8,58,9,,,,,,,,,,,,,,,,,,,AFSA11.jpg,AFNE10.jpg,AFNE03.jpg,AFSA16.jpg,AFSA16.jpg,FS,4,num_4,16,num_4,1.01670858194,,,2017_Apr_25_1956,60.0060240639,MAFE4ImagesEEG,001,100263,
AFNE01.JPG,AFNE01.JPG,AFNE01.JPG,AFNE01.JPG,AFNE01.JPG,AFNE01.JPG,,,,,5,9,59,4,,,,,,,,,,,,,,,,,,,AFNE05.jpg,AFSA10.jpg,AFSA04.jpg,AFNE04.jpg,AFNE05.jpg,FN,3,num_8,16,num_8,1.18342683406,,,2017_Apr_25_1956,60.0060240639,MAFE4ImagesEEG,001,100263,
,,,,,,,,,,,,,,,,,,,,,,,,,,,,,,,,,,,,,,,,,,,space,59.6957308665,2017_Apr_25_1956,60.0060240639,MAFE4ImagesEEG,001,100263,
AFNE01.JPG,AFNE01.JPG,AFNE01.JPG,AFNE01.JPG,AFNE01.JPG,AFNE01.JPG,,,,,,,,,0,0,0,8,,,,,,,,,,,,,,,AMNE13.jpg,AMSA13.jpg,AMNE07.jpg,AMSA16.jpg,AMNE13.jpg,MN,1,num_8,32,num_6,0.900153601891,,,2017_Apr_25_1956,60.0060240639,MAFE4ImagesEEG,001,100263,
AFNE01.JPG,AFNE01.JPG,AFNE01.JPG,AFNE01.JPG,AFNE01.JPG,AFNE01.JPG,,,,,,,,,0,1,1,3,,,,,,,,,,,,,,,AMNE06.jpg,AMSA11.jpg,AMSA03.jpg,AMNE05.jpg,AMSA11.jpg,MS,2,num_6,32,num_8,0.816742195399,,,2017_Apr_25_1956,60.0060240639,MAFE4ImagesEEG,001,100263,
AFNE01.JPG,AFNE01.JPG,AFNE01.JPG,AFNE01.JPG,AFNE01.JPG,AFNE01.JPG,,,,,,,,,0,2,2,5,,,,,,,,,,,,,,,AMSA03.jpg,AMNE06.jpg,AMNE11.jpg,AMSA02.jpg,AMNE11.jpg,MN,1,num_2,16,num_2,1.1833771196,,,2017_Apr_25_1956,60.0060240639,MAFE4ImagesEEG,001,100263,
AFNE01.JPG,AFNE01.JPG,AFNE01.JPG,AFNE01.JPG,AFNE01.JPG,AFNE01.JPG,,,,,,,,,0,3,3,4,,,,,,,,,,,,,,,AMSA05.jpg,AMNE02.jpg,AMSA06.jpg,AMNE07.jpg,AMNE02.jpg,MN,1,num_6,16,num_6,1.23338611622,,,2017_Apr_25_1956,60.0060240639,MAFE4ImagesEEG,001,100263,
AFNE01.JPG,AFNE01.JPG,AFNE01.JPG,AFNE01.JPG,AFNE01.JPG,AFNE01.JPG,,,,,,,,,0,4,4,2,,,,,,,,,,,,,,,AMNE19.jpg,AMSA13.jpg,AMSA08.jpg,AMNE11.jpg,AMNE11.jpg,MN,1,num_4,32,num_2,0.833444041782,,,2017_Apr_25_1956,60.0060240639,MAFE4ImagesEEG,001,100263,
AFNE01.JPG,AFNE01.JPG,AFNE01.JPG,AFNE01.JPG,AFNE01.JPG,AFNE01.JPG,,,,,,,,,0,5,5,0,,,,,,,,,,,,,,,AMSA16.jpg,AMSA10.jpg,AMNE16.jpg,AMNE09.jpg,AMSA16.jpg,MS,2,num_8,32,num_6,0.533510338515,,,2017_Apr_25_1956,60.0060240639,MAFE4ImagesEEG,001,100263,
AFNE01.JPG,AFNE01.JPG,AFNE01.JPG,AFNE01.JPG,AFNE01.JPG,AFNE01.JPG,,,,,,,,,0,6,6,9,,,,,,,,,,,,,,,AMSA06.jpg,AMNE01.jpg,AMSA17.jpg,AMNE16.jpg,AMSA06.jpg,MS,2,num_8,16,num_8,0.616781902965,,,2017_Apr_25_1956,60.0060240639,MAFE4ImagesEEG,001,100263,
AFNE01.JPG,AFNE01.JPG,AFNE01.JPG,AFNE01.JPG,AFNE01.JPG,AFNE01.JPG,,,,,,,,,0,7,7,6,,,,,,,,,,,,,,,AMNE15.jpg,AMSA17.jpg,AMNE06.jpg,AMSA14.jpg,AMSA17.jpg,MS,2,num_6,16,num_6,1.09998014627,,,2017_Apr_25_1956,60.0060240639,MAFE4ImagesEEG,001,100263,
AFNE01.JPG,AFNE01.JPG,AFNE01.JPG,AFNE01.JPG,AFNE01.JPG,AFNE01.JPG,,,,,,,,,0,8,8,1,,,,,,,,,,,,,,,AMSA08.jpg,AMNE12.jpg,AMSA07.jpg,AMNE09.jpg,AMNE09.jpg,MN,1,num_4,16,num_4,0.866891355137,,,2017_Apr_25_1956,60.0060240639,MAFE4ImagesEEG,001,100263,
AFNE01.JPG,AFNE01.JPG,AFNE01.JPG,AFNE01.JPG,AFNE01.JPG,AFNE01.JPG,,,,,,,,,0,9,9,7,,,,,,,,,,,,,,,AMNE04.jpg,AMSA03.jpg,AMSA20.jpg,AMNE12.jpg,AMNE12.jpg,MN,1,num_4,32,num_6,1.23345443374,,,2017_Apr_25_1956,60.0060240639,MAFE4ImagesEEG,001,100263,
AFNE01.JPG,AFNE01.JPG,AFNE01.JPG,AFNE01.JPG,AFNE01.JPG,AFNE01.JPG,,,,,,,,,1,0,10,9,,,,,,,,,,,,,,,AMSA15.jpg,AMSA06.jpg,AMNE18.jpg,AMNE04.jpg,AMSA06.jpg,MS,2,num_6,32,num_8,1.25010528264,,,2017_Apr_25_1956,60.0060240639,MAFE4ImagesEEG,001,100263,
AFNE01.JPG,AFNE01.JPG,AFNE01.JPG,AFNE01.JPG,AFNE01.JPG,AFNE01.JPG,,,,,,,,,1,1,11,8,,,,,,,,,,,,,,,AMNE10.jpg,AMNE14.jpg,AMSA04.jpg,AMSA05.jpg,AMNE10.jpg,MN,1,num_8,16,num_8,4.78317235969,,,2017_Apr_25_1956,60.0060240639,MAFE4ImagesEEG,001,100263,
AFNE01.JPG,AFNE01.JPG,AFNE01.JPG,AFNE01.JPG,AFNE01.JPG,AFNE01.JPG,,,,,,,,,1,2,12,2,,,,,,,,,,,,,,,AMSA04.jpg,AMNE19.jpg,AMSA03.jpg,AMNE02.jpg,AMNE19.jpg,MN,1,num_6,16,num_6,1.650064677,,,2017_Apr_25_1956,60.0060240639,MAFE4ImagesEEG,001,100263,
AFNE01.JPG,AFNE01.JPG,AFNE01.JPG,AFNE01.JPG,AFNE01.JPG,AFNE01.JPG,,,,,,,,,1,3,13,5,,,,,,,,,,,,,,,AMSA04.jpg,AMNE01.jpg,AMSA10.jpg,AMNE04.jpg,AMNE01.jpg,MN,1,num_6,48,None,,,,2017_Apr_25_1956,60.0060240639,MAFE4ImagesEEG,001,100263,
AFNE01.JPG,AFNE01.JPG,AFNE01.JPG,AFNE01.JPG,AFNE01.JPG,AFNE01.JPG,,,,,,,,,1,4,14,6,,,,,,,,,,,,,,,AMSA13.jpg,AMSA16.jpg,AMNE11.jpg,AMNE09.jpg,AMSA13.jpg,MS,2,num_8,16,num_8,1.71673189965,,,2017_Apr_25_1956,60.0060240639,MAFE4ImagesEEG,001,100263,
AFNE01.JPG,AFNE01.JPG,AFNE01.JPG,AFNE01.JPG,AFNE01.JPG,AFNE01.JPG,,,,,,,,,1,5,15,4,,,,,,,,,,,,,,,AMNE07.jpg,AMNE03.jpg,AMSA10.jpg,AMSA12.jpg,AMNE07.jpg,MN,1,num_8,32,num_2,0.800171210547,,,2017_Apr_25_1956,60.0060240639,MAFE4ImagesEEG,001,100263,
AFNE01.JPG,AFNE01.JPG,AFNE01.JPG,AFNE01.JPG,AFNE01.JPG,AFNE01.JPG,,,,,,,,,1,6,16,7,,,,,,,,,,,,,,,AMSA07.jpg,AMNE10.jpg,AMSA11.jpg,AMNE03.jpg,AMSA07.jpg,MS,2,num_8,32,num_4,0.883440850419,,,2017_Apr_25_1956,60.0060240639,MAFE4ImagesEEG,001,100263,
AFNE01.JPG,AFNE01.JPG,AFNE01.JPG,AFNE01.JPG,AFNE01.JPG,AFNE01.JPG,,,,,,,,,1,7,17,0,,,,,,,,,,,,,,,AMSA17.jpg,AMNE15.jpg,AMNE09.jpg,AMSA01.jpg,AMSA01.jpg,MS,2,num_4,32,num_8,1.26678050763,,,2017_Apr_25_1956,60.0060240639,MAFE4ImagesEEG,001,100263,
AFNE01.JPG,AFNE01.JPG,AFNE01.JPG,AFNE01.JPG,AFNE01.JPG,AFNE01.JPG,,,,,,,,,1,8,18,3,,,,,,,,,,,,,,,AMNE02.jpg,AMSA12.jpg,AMSA17.jpg,AMNE09.jpg,AMSA12.jpg,MS,2,num_6,32,num_4,1.11674389534,,,2017_Apr_25_1956,60.0060240639,MAFE4ImagesEEG,001,100263,
AFNE01.JPG,AFNE01.JPG,AFNE01.JPG,AFNE01.JPG,AFNE01.JPG,AFNE01.JPG,,,,,,,,,1,9,19,1,,,,,,,,,,,,,,,AMSA15.jpg,AMSA06.jpg,AMNE01.jpg,AMNE02.jpg,AMNE02.jpg,MN,1,num_4,32,num_2,1.16673813807,,,2017_Apr_25_1956,60.0060240639,MAFE4ImagesEEG,001,100263,
AFNE01.JPG,AFNE01.JPG,AFNE01.JPG,AFNE01.JPG,AFNE01.JPG,AFNE01.JPG,,,,,,,,,2,0,20,0,,,,,,,,,,,,,,,AMSA06.jpg,AMNE17.jpg,AMNE02.jpg,AMSA17.jpg,AMNE17.jpg,MN,1,num_6,16,num_6,0.950091715436,,,2017_Apr_25_1956,60.0060240639,MAFE4ImagesEEG,001,100263,
AFNE01.JPG,AFNE01.JPG,AFNE01.JPG,AFNE01.JPG,AFNE01.JPG,AFNE01.JPG,,,,,,,,,2,1,21,5,,,,,,,,,,,,,,,AMNE15.jpg,AMSA17.jpg,AMSA09.jpg,AMNE07.jpg,AMSA09.jpg,MS,2,num_2,32,num_8,1.88346907543,,,2017_Apr_25_1956,60.0060240639,MAFE4ImagesEEG,001,100263,
AFNE01.JPG,AFNE01.JPG,AFNE01.JPG,AFNE01.JPG,AFNE01.JPG,AFNE01.JPG,,,,,,,,,2,2,22,6,,,,,,,,,,,,,,,AMNE17.jpg,AMSA02.jpg,AMSA15.jpg,AMNE10.jpg,AMSA02.jpg,MS,2,num_6,32,num_8,3.09999650391,,,2017_Apr_25_1956,60.0060240639,MAFE4ImagesEEG,001,100263,
AFNE01.JPG,AFNE01.JPG,AFNE01.JPG,AFNE01.JPG,AFNE01.JPG,AFNE01.JPG,,,,,,,,,2,3,23,7,,,,,,,,,,,,,,,AMNE01.jpg,AMNE15.jpg,AMSA11.jpg,AMSA14.jpg,AMNE01.jpg,MN,1,num_8,16,num_8,1.41671833233,,,2017_Apr_25_1956,60.0060240639,MAFE4ImagesEEG,001,100263,
AFNE01.JPG,AFNE01.JPG,AFNE01.JPG,AFNE01.JPG,AFNE01.JPG,AFNE01.JPG,,,,,,,,,2,4,24,3,,,,,,,,,,,,,,,AMNE08.jpg,AMSA14.jpg,AMSA01.jpg,AMNE19.jpg,AMNE08.jpg,MN,1,num_8,48,None,,,,2017_Apr_25_1956,60.0060240639,MAFE4ImagesEEG,001,100263,
AFNE01.JPG,AFNE01.JPG,AFNE01.JPG,AFNE01.JPG,AFNE01.JPG,AFNE01.JPG,,,,,,,,,2,5,25,8,,,,,,,,,,,,,,,AMNE02.jpg,AMSA14.jpg,AMNE11.jpg,AMSA12.jpg,AMSA12.jpg,MS,2,num_4,32,num_8,1.99977740704,,,2017_Apr_25_1956,60.0060240639,MAFE4ImagesEEG,001,100263,
AFNE01.JPG,AFNE01.JPG,AFNE01.JPG,AFNE01.JPG,AFNE01.JPG,AFNE01.JPG,,,,,,,,,2,6,26,2,,,,,,,,,,,,,,,AMSA12.jpg,AMSA17.jpg,AMNE05.jpg,AMNE06.jpg,AMSA12.jpg,MS,2,num_8,48,None,,,,2017_Apr_25_1956,60.0060240639,MAFE4ImagesEEG,001,100263,
AFNE01.JPG,AFNE01.JPG,AFNE01.JPG,AFNE01.JPG,AFNE01.JPG,AFNE01.JPG,,,,,,,,,2,7,27,1,,,,,,,,,,,,,,,AMSA14.jpg,AMSA07.jpg,AMNE10.jpg,AMNE16.jpg,AMNE16.jpg,MN,1,num_4,32,num_8,0.500604753615,,,2017_Apr_25_1956,60.0060240639,MAFE4ImagesEEG,001,100263,
AFNE01.JPG,AFNE01.JPG,AFNE01.JPG,AFNE01.JPG,AFNE01.JPG,AFNE01.JPG,,,,,,,,,2,8,28,4,,,,,,,,,,,,,,,AMNE14.jpg,AMSA16.jpg,AMNE01.jpg,AMSA13.jpg,AMSA13.jpg,MS,2,num_4,32,num_8,3.04998237535,,,2017_Apr_25_1956,60.0060240639,MAFE4ImagesEEG,001,100263,
AFNE01.JPG,AFNE01.JPG,AFNE01.JPG,AFNE01.JPG,AFNE01.JPG,AFNE01.JPG,,,,,,,,,2,9,29,9,,,,,,,,,,,,,,,AMSA15.jpg,AMNE04.jpg,AMNE08.jpg,AMSA06.jpg,AMNE08.jpg,MN,1,num_2,48,None,,,,2017_Apr_25_1956,60.0060240639,MAFE4ImagesEEG,001,100263,
AFNE01.JPG,AFNE01.JPG,AFNE01.JPG,AFNE01.JPG,AFNE01.JPG,AFNE01.JPG,,,,,,,,,3,0,30,8,,,,,,,,,,,,,,,AMSA20.jpg,AMSA05.jpg,AMNE18.jpg,AMNE16.jpg,AMNE18.jpg,MN,1,num_2,16,num_2,0.966795165441,,,2017_Apr_25_1956,60.0060240639,MAFE4ImagesEEG,001,100263,
AFNE01.JPG,AFNE01.JPG,AFNE01.JPG,AFNE01.JPG,AFNE01.JPG,AFNE01.JPG,,,,,,,,,3,1,31,6,,,,,,,,,,,,,,,AMSA09.jpg,AMNE07.jpg,AMSA17.jpg,AMNE12.jpg,AMNE07.jpg,MN,1,num_6,32,num_2,0.883486395353,,,2017_Apr_25_1956,60.0060240639,MAFE4ImagesEEG,001,100263,
AFNE01.JPG,AFNE01.JPG,AFNE01.JPG,AFNE01.JPG,AFNE01.JPG,AFNE01.JPG,,,,,,,,,3,2,32,7,,,,,,,,,,,,,,,AMSA11.jpg,AMNE13.jpg,AMNE16.jpg,AMSA15.jpg,AMSA15.jpg,MS,2,num_4,16,num_4,1.00016133173,,,2017_Apr_25_1956,60.0060240639,MAFE4ImagesEEG,001,100263,
AFNE01.JPG,AFNE01.JPG,AFNE01.JPG,AFNE01.JPG,AFNE01.JPG,AFNE01.JPG,,,,,,,,,3,3,33,0,,,,,,,,,,,,,,,AMSA08.jpg,AMNE02.jpg,AMSA20.jpg,AMNE08.jpg,AMSA20.jpg,MS,2,num_2,32,num_6,0.616837390698,,,2017_Apr_25_1956,60.0060240639,MAFE4ImagesEEG,001,100263,
AFNE01.JPG,AFNE01.JPG,AFNE01.JPG,AFNE01.JPG,AFNE01.JPG,AFNE01.JPG,,,,,,,,,3,4,34,4,,,,,,,,,,,,,,,AMSA19.jpg,AMSA16.jpg,AMNE03.jpg,AMNE10.jpg,AMNE10.jpg,MN,1,num_4,32,num_2,1.16675513727,,,2017_Apr_25_1956,60.0060240639,MAFE4ImagesEEG,001,100263,
AFNE01.JPG,AFNE01.JPG,AFNE01.JPG,AFNE01.JPG,AFNE01.JPG,AFNE01.JPG,,,,,,,,,3,5,35,2,,,,,,,,,,,,,,,AMSA20.jpg,AMNE03.jpg,AMSA14.jpg,AMNE19.jpg,AMSA14.jpg,MS,2,num_2,32,num_8,1.13342874253,,,2017_Apr_25_1956,60.0060240639,MAFE4ImagesEEG,001,100263,
AFNE01.JPG,AFNE01.JPG,AFNE01.JPG,AFNE01.JPG,AFNE01.JPG,AFNE01.JPG,,,,,,,,,3,6,36,1,,,,,,,,,,,,,,,AMNE04.jpg,AMSA16.jpg,AMNE14.jpg,AMSA03.jpg,AMSA16.jpg,MS,2,num_6,48,None,,,,2017_Apr_25_1956,60.0060240639,MAFE4ImagesEEG,001,100263,
AFNE01.JPG,AFNE01.JPG,AFNE01.JPG,AFNE01.JPG,AFNE01.JPG,AFNE01.JPG,,,,,,,,,3,7,37,5,,,,,,,,,,,,,,,AMSA11.jpg,AMNE06.jpg,AMNE15.jpg,AMSA05.jpg,AMSA05.jpg,MS,2,num_4,16,num_4,1.1331407188,,,2017_Apr_25_1956,60.0060240639,MAFE4ImagesEEG,001,100263,
AFNE01.JPG,AFNE01.JPG,AFNE01.JPG,AFNE01.JPG,AFNE01.JPG,AFNE01.JPG,,,,,,,,,3,8,38,9,,,,,,,,,,,,,,,AMSA01.jpg,AMSA06.jpg,AMNE06.jpg,AMNE01.jpg,AMSA01.jpg,MS,2,num_8,16,num_8,3.33315232955,,,2017_Apr_25_1956,60.0060240639,MAFE4ImagesEEG,001,100263,
AFNE01.JPG,AFNE01.JPG,AFNE01.JPG,AFNE01.JPG,AFNE01.JPG,AFNE01.JPG,,,,,,,,,3,9,39,3,,,,,,,,,,,,,,,AMSA08.jpg,AMNE02.jpg,AMSA13.jpg,AMNE06.jpg,AMNE02.jpg,MN,1,num_6,32,num_4,0.90013916872,,,2017_Apr_25_1956,60.0060240639,MAFE4ImagesEEG,001,100263,
AFNE01.JPG,AFNE01.JPG,AFNE01.JPG,AFNE01.JPG,AFNE01.JPG,AFNE01.JPG,,,,,,,,,4,0,40,8,,,,,,,,,,,,,,,AMSA11.jpg,AMNE18.jpg,AMNE11.jpg,AMSA14.jpg,AMSA11.jpg,MS,2,num_8,48,None,,,,2017_Apr_25_1956,60.0060240639,MAFE4ImagesEEG,001,100263,
AFNE01.JPG,AFNE01.JPG,AFNE01.JPG,AFNE01.JPG,AFNE01.JPG,AFNE01.JPG,,,,,,,,,4,1,41,1,,,,,,,,,,,,,,,AMSA17.jpg,AMNE15.jpg,AMSA19.jpg,AMNE20.jpg,AMSA17.jpg,MS,2,num_8,16,num_8,3.36655506014,,,2017_Apr_25_1956,60.0060240639,MAFE4ImagesEEG,001,100263,
AFNE01.JPG,AFNE01.JPG,AFNE01.JPG,AFNE01.JPG,AFNE01.JPG,AFNE01.JPG,,,,,,,,,4,2,42,2,,,,,,,,,,,,,,,AMNE04.jpg,AMSA18.jpg,AMSA16.jpg,AMNE05.jpg,AMNE04.jpg,MN,1,num_8,16,num_8,2.01644461358,,,2017_Apr_25_1956,60.0060240639,MAFE4ImagesEEG,001,100263,
AFNE01.JPG,AFNE01.JPG,AFNE01.JPG,AFNE01.JPG,AFNE01.JPG,AFNE01.JPG,,,,,,,,,4,3,43,7,,,,,,,,,,,,,,,AMNE15.jpg,AMSA04.jpg,AMSA14.jpg,AMNE18.jpg,AMNE18.jpg,MN,1,num_4,32,num_8,3.59986868943,,,2017_Apr_25_1956,60.0060240639,MAFE4ImagesEEG,001,100263,
AFNE01.JPG,AFNE01.JPG,AFNE01.JPG,AFNE01.JPG,AFNE01.JPG,AFNE01.JPG,,,,,,,,,4,4,44,9,,,,,,,,,,,,,,,AMSA12.jpg,AMNE02.jpg,AMSA16.jpg,AMNE04.jpg,AMNE04.jpg,MN,1,num_4,16,num_4,1.00014754001,,,2017_Apr_25_1956,60.0060240639,MAFE4ImagesEEG,001,100263,
AFNE01.JPG,AFNE01.JPG,AFNE01.JPG,AFNE01.JPG,AFNE01.JPG,AFNE01.JPG,,,,,,,,,4,5,45,0,,,,,,,,,,,,,,,AMNE03.jpg,AMNE18.jpg,AMSA06.jpg,AMSA11.jpg,AMSA06.jpg,MS,2,num_2,48,None,,,,2017_Apr_25_1956,60.0060240639,MAFE4ImagesEEG,001,100263,
AFNE01.JPG,AFNE01.JPG,AFNE01.JPG,AFNE01.JPG,AFNE01.JPG,AFNE01.JPG,,,,,,,,,4,6,46,3,,,,,,,,,,,,,,,AMNE03.jpg,AMSA20.jpg,AMSA09.jpg,AMNE02.jpg,AMNE02.jpg,MN,1,num_4,16,num_4,2.64999603888,,,2017_Apr_25_1956,60.0060240639,MAFE4ImagesEEG,001,100263,
AFNE01.JPG,AFNE01.JPG,AFNE01.JPG,AFNE01.JPG,AFNE01.JPG,AFNE01.JPG,,,,,,,,,4,7,47,4,,,,,,,,,,,,,,,AMSA20.jpg,AMNE08.jpg,AMNE16.jpg,AMSA14.jpg,AMNE16.jpg,MN,1,num_2,48,None,,,,2017_Apr_25_1956,60.0060240639,MAFE4ImagesEEG,001,100263,
AFNE01.JPG,AFNE01.JPG,AFNE01.JPG,AFNE01.JPG,AFNE01.JPG,AFNE01.JPG,,,,,,,,,4,8,48,5,,,,,,,,,,,,,,,AMSA14.jpg,AMSA19.jpg,AMNE11.jpg,AMNE12.jpg,AMNE11.jpg,MN,1,num_2,32,num_8,2.93331930635,,,2017_Apr_25_1956,60.0060240639,MAFE4ImagesEEG,001,100263,
AFNE01.JPG,AFNE01.JPG,AFNE01.JPG,AFNE01.JPG,AFNE01.JPG,AFNE01.JPG,,,,,,,,,4,9,49,6,,,,,,,,,,,,,,,AMSA08.jpg,AMNE20.jpg,AMNE08.jpg,AMSA05.jpg,AMNE08.jpg,MN,1,num_2,32,num_6,1.55010345438,,,2017_Apr_25_1956,60.0060240639,MAFE4ImagesEEG,001,100263,
AFNE01.JPG,AFNE01.JPG,AFNE01.JPG,AFNE01.JPG,AFNE01.JPG,AFNE01.JPG,,,,,,,,,5,0,50,1,,,,,,,,,,,,,,,AMNE02.jpg,AMSA07.jpg,AMNE14.jpg,AMSA15.jpg,AMNE02.jpg,MN,1,num_8,48,None,,,,2017_Apr_25_1956,60.0060240639,MAFE4ImagesEEG,001,100263,
AFNE01.JPG,AFNE01.JPG,AFNE01.JPG,AFNE01.JPG,AFNE01.JPG,AFNE01.JPG,,,,,,,,,5,1,51,0,,,,,,,,,,,,,,,AMSA18.jpg,AMSA15.jpg,AMNE02.jpg,AMNE10.jpg,AMSA15.jpg,MS,2,num_6,32,num_8,4.76692307624,,,2017_Apr_25_1956,60.0060240639,MAFE4ImagesEEG,001,100263,
AFNE01.JPG,AFNE01.JPG,AFNE01.JPG,AFNE01.JPG,AFNE01.JPG,AFNE01.JPG,,,,,,,,,5,2,52,3,,,,,,,,,,,,,,,AMNE06.jpg,AMSA01.jpg,AMNE03.jpg,AMSA16.jpg,AMNE03.jpg,MN,1,num_2,32,num_8,3.74994218675,,,2017_Apr_25_1956,60.0060240639,MAFE4ImagesEEG,001,100263,
AFNE01.JPG,AFNE01.JPG,AFNE01.JPG,AFNE01.JPG,AFNE01.JPG,AFNE01.JPG,,,,,,,,,5,3,53,4,,,,,,,,,,,,,,,AMSA19.jpg,AMSA06.jpg,AMNE20.jpg,AMNE07.jpg,AMNE20.jpg,MN,1,num_2,48,None,,,,2017_Apr_25_1956,60.0060240639,MAFE4ImagesEEG,001,100263,
AFNE01.JPG,AFNE01.JPG,AFNE01.JPG,AFNE01.JPG,AFNE01.JPG,AFNE01.JPG,,,,,,,,,5,4,54,9,,,,,,,,,,,,,,,AMSA16.jpg,AMNE08.jpg,AMSA03.jpg,AMNE03.jpg,AMNE03.jpg,MN,1,num_4,32,num_8,0.950194672565,,,2017_Apr_25_1956,60.0060240639,MAFE4ImagesEEG,001,100263,
AFNE01.JPG,AFNE01.JPG,AFNE01.JPG,AFNE01.JPG,AFNE01.JPG,AFNE01.JPG,,,,,,,,,5,5,55,2,,,,,,,,,,,,,,,AMNE05.jpg,AMSA09.jpg,AMNE10.jpg,AMSA12.jpg,AMNE10.jpg,MN,1,num_2,48,None,,,,2017_Apr_25_1956,60.0060240639,MAFE4ImagesEEG,001,100263,
AFNE01.JPG,AFNE01.JPG,AFNE01.JPG,AFNE01.JPG,AFNE01.JPG,AFNE01.JPG,,,,,,,,,5,6,56,7,,,,,,,,,,,,,,,AMNE01.jpg,AMNE19.jpg,AMSA08.jpg,AMSA03.jpg,AMSA08.jpg,MS,2,num_2,32,num_8,0.400177176227,,,2017_Apr_25_1956,60.0060240639,MAFE4ImagesEEG,001,100263,
AFNE01.JPG,AFNE01.JPG,AFNE01.JPG,AFNE01.JPG,AFNE01.JPG,AFNE01.JPG,,,,,,,,,5,7,57,5,,,,,,,,,,,,,,,AMSA14.jpg,AMNE14.jpg,AMSA13.jpg,AMNE04.jpg,AMNE04.jpg,MN,1,num_4,32,num_6,0.866794491885,,,2017_Apr_25_1956,60.0060240639,MAFE4ImagesEEG,001,100263,
AFNE01.JPG,AFNE01.JPG,AFNE01.JPG,AFNE01.JPG,AFNE01.JPG,AFNE01.JPG,,,,,,,,,5,8,58,6,,,,,,,,,,,,,,,AMSA20.jpg,AMNE11.jpg,AMSA14.jpg,AMNE03.jpg,AMSA20.jpg,MS,2,num_8,32,num_6,0.983450183878,,,2017_Apr_25_1956,60.0060240639,MAFE4ImagesEEG,001,100263,
AFNE01.JPG,AFNE01.JPG,AFNE01.JPG,AFNE01.JPG,AFNE01.JPG,AFNE01.JPG,,,,,,,,,5,9,59,8,,,,,,,,,,,,,,,AMNE04.jpg,AMSA19.jpg,AMSA13.jpg,AMNE14.jpg,AMSA13.jpg,MS,2,num_2,32,num_8,1.21675419097,,,2017_Apr_25_1956,60.0060240639,MAFE4ImagesEEG,001,100263,
,,,,,,,,,,,,,,,,,,,,,,,,,,,,,,,,,,,,,,,,,,,space,40.5969303987,2017_Apr_25_1956,60.0060240639,MAFE4ImagesEEG,001,100263,
AFNE01.JPG,AFNE01.JPG,AFNE01.JPG,AFNE01.JPG,AFNE01.JPG,AFNE01.JPG,,,,,,,,,,,,,0,0,0,9,,,,,,,,,,,AFNE18.jpg,AFSA06.jpg,AFSA08.jpg,AFNE09.jpg,AFNE09.jpg,FN,3,num_4,16,num_4,0.766832306981,,,2017_Apr_25_1956,60.0060240639,MAFE4ImagesEEG,001,100263,
AFNE01.JPG,AFNE01.JPG,AFNE01.JPG,AFNE01.JPG,AFNE01.JPG,AFNE01.JPG,,,,,,,,,,,,,0,1,1,1,,,,,,,,,,,AFSA03.jpg,AFSA07.jpg,AFNE18.jpg,AFNE05.jpg,AFSA03.jpg,FS,4,num_8,32,num_4,0.816806663875,,,2017_Apr_25_1956,60.0060240639,MAFE4ImagesEEG,001,100263,
AFNE01.JPG,AFNE01.JPG,AFNE01.JPG,AFNE01.JPG,AFNE01.JPG,AFNE01.JPG,,,,,,,,,,,,,0,2,2,6,,,,,,,,,,,AFNE08.jpg,AFSA20.jpg,AFSA17.jpg,AFNE07.jpg,AFNE07.jpg,FN,3,num_4,16,num_4,0.80040214269,,,2017_Apr_25_1956,60.0060240639,MAFE4ImagesEEG,001,100263,
AFNE01.JPG,AFNE01.JPG,AFNE01.JPG,AFNE01.JPG,AFNE01.JPG,AFNE01.JPG,,,,,,,,,,,,,0,3,3,3,,,,,,,,,,,AFNE02.jpg,AFSA05.jpg,AFNE10.jpg,AFSA09.jpg,AFSA05.jpg,FS,4,num_6,32,num_4,0.983530047932,,,2017_Apr_25_1956,60.0060240639,MAFE4ImagesEEG,001,100263,
AFNE01.JPG,AFNE01.JPG,AFNE01.JPG,AFNE01.JPG,AFNE01.JPG,AFNE01.JPG,,,,,,,,,,,,,0,4,4,2,,,,,,,,,,,AFNE18.jpg,AFSA01.jpg,AFSA10.jpg,AFNE08.jpg,AFNE18.jpg,FN,3,num_8,32,num_4,1.08353104221,,,2017_Apr_25_1956,60.0060240639,MAFE4ImagesEEG,001,100263,
AFNE01.JPG,AFNE01.JPG,AFNE01.JPG,AFNE01.JPG,AFNE01.JPG,AFNE01.JPG,,,,,,,,,,,,,0,5,5,7,,,,,,,,,,,AFNE09.jpg,AFNE03.jpg,AFSA03.jpg,AFSA01.jpg,AFSA03.jpg,FS,4,num_2,48,None,,,,2017_Apr_25_1956,60.0060240639,MAFE4ImagesEEG,001,100263,
AFNE01.JPG,AFNE01.JPG,AFNE01.JPG,AFNE01.JPG,AFNE01.JPG,AFNE01.JPG,,,,,,,,,,,,,0,6,6,4,,,,,,,,,,,AFNE10.jpg,AFNE06.jpg,AFSA06.jpg,AFSA19.jpg,AFSA19.jpg,FS,4,num_4,16,num_4,1.11674678198,,,2017_Apr_25_1956,60.0060240639,MAFE4ImagesEEG,001,100263,
AFNE01.JPG,AFNE01.JPG,AFNE01.JPG,AFNE01.JPG,AFNE01.JPG,AFNE01.JPG,,,,,,,,,,,,,0,7,7,5,,,,,,,,,,,AFSA13.jpg,AFNE06.jpg,AFSA06.jpg,AFNE08.jpg,AFSA06.jpg,FS,4,num_2,32,num_8,0.866804434801,,,2017_Apr_25_1956,60.0060240639,MAFE4ImagesEEG,001,100263,
AFNE01.JPG,AFNE01.JPG,AFNE01.JPG,AFNE01.JPG,AFNE01.JPG,AFNE01.JPG,,,,,,,,,,,,,0,8,8,8,,,,,,,,,,,AFSA06.jpg,AFNE04.jpg,AFNE20.jpg,AFSA14.jpg,AFNE04.jpg,FN,3,num_6,32,num_4,0.600159920519,,,2017_Apr_25_1956,60.0060240639,MAFE4ImagesEEG,001,100263,
AFNE01.JPG,AFNE01.JPG,AFNE01.JPG,AFNE01.JPG,AFNE01.JPG,AFNE01.JPG,,,,,,,,,,,,,0,9,9,0,,,,,,,,,,,AFSA11.jpg,AFNE13.jpg,AFNE04.jpg,AFSA19.jpg,AFSA19.jpg,FS,4,num_4,32,num_8,2.33309908689,,,2017_Apr_25_1956,60.0060240639,MAFE4ImagesEEG,001,100263,
AFNE01.JPG,AFNE01.JPG,AFNE01.JPG,AFNE01.JPG,AFNE01.JPG,AFNE01.JPG,,,,,,,,,,,,,1,0,10,6,,,,,,,,,,,AFSA18.jpg,AFNE11.jpg,AFSA10.jpg,AFNE13.jpg,AFNE13.jpg,FN,3,num_4,16,num_4,0.800110590877,,,2017_Apr_25_1956,60.0060240639,MAFE4ImagesEEG,001,100263,
AFNE01.JPG,AFNE01.JPG,AFNE01.JPG,AFNE01.JPG,AFNE01.JPG,AFNE01.JPG,,,,,,,,,,,,,1,1,11,2,,,,,,,,,,,AFNE12.jpg,AFSA19.jpg,AFSA20.jpg,AFNE10.jpg,AFNE10.jpg,FN,3,num_4,16,num_4,1.11673812196,,,2017_Apr_25_1956,60.0060240639,MAFE4ImagesEEG,001,100263,
AFNE01.JPG,AFNE01.JPG,AFNE01.JPG,AFNE01.JPG,AFNE01.JPG,AFNE01.JPG,,,,,,,,,,,,,1,2,12,5,,,,,,,,,,,AFSA01.jpg,AFSA18.jpg,AFNE03.jpg,AFNE05.jpg,AFSA18.jpg,FS,4,num_6,32,num_4,2.56665070448,,,2017_Apr_25_1956,60.0060240639,MAFE4ImagesEEG,001,100263,
AFNE01.JPG,AFNE01.JPG,AFNE01.JPG,AFNE01.JPG,AFNE01.JPG,AFNE01.JPG,,,,,,,,,,,,,1,3,13,9,,,,,,,,,,,AFSA10.jpg,AFNE10.jpg,AFNE01.jpg,AFSA15.jpg,AFNE10.jpg,FN,3,num_6,16,num_6,1.48343174148,,,2017_Apr_25_1956,60.0060240639,MAFE4ImagesEEG,001,100263,
AFNE01.JPG,AFNE01.JPG,AFNE01.JPG,AFNE01.JPG,AFNE01.JPG,AFNE01.JPG,,,,,,,,,,,,,1,4,14,3,,,,,,,,,,,AFNE03.jpg,AFNE15.jpg,AFSA02.jpg,AFSA12.jpg,AFNE15.jpg,FN,3,num_6,32,num_8,0.683550158283,,,2017_Apr_25_1956,60.0060240639,MAFE4ImagesEEG,001,100263,
AFNE01.JPG,AFNE01.JPG,AFNE01.JPG,AFNE01.JPG,AFNE01.JPG,AFNE01.JPG,,,,,,,,,,,,,1,5,15,8,,,,,,,,,,,AFNE20.jpg,AFNE06.jpg,AFSA16.jpg,AFSA04.jpg,AFNE06.jpg,FN,3,num_6,32,num_4,3.01660819061,,,2017_Apr_25_1956,60.0060240639,MAFE4ImagesEEG,001,100263,
AFNE01.JPG,AFNE01.JPG,AFNE01.JPG,AFNE01.JPG,AFNE01.JPG,AFNE01.JPG,,,,,,,,,,,,,1,6,16,0,,,,,,,,,,,AFSA06.jpg,AFNE17.jpg,AFNE16.jpg,AFSA17.jpg,AFNE17.jpg,FN,3,num_6,32,num_8,1.70007335301,,,2017_Apr_25_1956,60.0060240639,MAFE4ImagesEEG,001,100263,
AFNE01.JPG,AFNE01.JPG,AFNE01.JPG,AFNE01.JPG,AFNE01.JPG,AFNE01.JPG,,,,,,,,,,,,,1,7,17,1,,,,,,,,,,,AFSA11.jpg,AFSA01.jpg,AFNE20.jpg,AFNE03.jpg,AFSA01.jpg,FS,4,num_6,32,num_4,1.30011010973,,,2017_Apr_25_1956,60.0060240639,MAFE4ImagesEEG,001,100263,
AFNE01.JPG,AFNE01.JPG,AFNE01.JPG,AFNE01.JPG,AFNE01.JPG,AFNE01.JPG,,,,,,,,,,,,,1,8,18,4,,,,,,,,,,,AFNE03.jpg,AFNE19.jpg,AFSA18.jpg,AFSA14.jpg,AFSA14.jpg,FS,4,num_4,16,num_4,1.18344126747,,,2017_Apr_25_1956,60.0060240639,MAFE4ImagesEEG,001,100263,
AFNE01.JPG,AFNE01.JPG,AFNE01.JPG,AFNE01.JPG,AFNE01.JPG,AFNE01.JPG,,,,,,,,,,,,,1,9,19,7,,,,,,,,,,,AFSA04.jpg,AFNE13.jpg,AFSA09.jpg,AFNE01.jpg,AFNE13.jpg,FN,3,num_6,16,num_6,0.983496049652,,,2017_Apr_25_1956,60.0060240639,MAFE4ImagesEEG,001,100263,
AFNE01.JPG,AFNE01.JPG,AFNE01.JPG,AFNE01.JPG,AFNE01.JPG,AFNE01.JPG,,,,,,,,,,,,,2,0,20,8,,,,,,,,,,,AFSA04.jpg,AFSA17.jpg,AFNE10.jpg,AFNE17.jpg,AFNE10.jpg,FN,3,num_2,32,num_4,0.883442774881,,,2017_Apr_25_1956,60.0060240639,MAFE4ImagesEEG,001,100263,
AFNE01.JPG,AFNE01.JPG,AFNE01.JPG,AFNE01.JPG,AFNE01.JPG,AFNE01.JPG,,,,,,,,,,,,,2,1,21,6,,,,,,,,,,,AFNE19.jpg,AFNE14.jpg,AFSA05.jpg,AFSA19.jpg,AFSA19.jpg,FS,4,num_4,32,num_8,0.933444394614,,,2017_Apr_25_1956,60.0060240639,MAFE4ImagesEEG,001,100263,
AFNE01.JPG,AFNE01.JPG,AFNE01.JPG,AFNE01.JPG,AFNE01.JPG,AFNE01.JPG,,,,,,,,,,,,,2,2,22,2,,,,,,,,,,,AFSA02.jpg,AFNE05.jpg,AFNE07.jpg,AFSA04.jpg,AFNE05.jpg,FN,3,num_6,32,num_2,0.550445362227,,,2017_Apr_25_1956,60.0060240639,MAFE4ImagesEEG,001,100263,
AFNE01.JPG,AFNE01.JPG,AFNE01.JPG,AFNE01.JPG,AFNE01.JPG,AFNE01.JPG,,,,,,,,,,,,,2,3,23,9,,,,,,,,,,,AFNE04.jpg,AFSA20.jpg,AFSA13.jpg,AFNE19.jpg,AFNE19.jpg,FN,3,num_4,32,num_2,1.05009591696,,,2017_Apr_25_1956,60.0060240639,MAFE4ImagesEEG,001,100263,
AFNE01.JPG,AFNE01.JPG,AFNE01.JPG,AFNE01.JPG,AFNE01.JPG,AFNE01.JPG,,,,,,,,,,,,,2,4,24,0,,,,,,,,,,,AFNE15.jpg,AFSA08.jpg,AFNE18.jpg,AFSA13.jpg,AFNE15.jpg,FN,3,num_8,16,num_8,0.800178587553,,,2017_Apr_25_1956,60.0060240639,MAFE4ImagesEEG,001,100263,
AFNE01.JPG,AFNE01.JPG,AFNE01.JPG,AFNE01.JPG,AFNE01.JPG,AFNE01.JPG,,,,,,,,,,,,,2,5,25,3,,,,,,,,,,,AFNE17.jpg,AFNE07.jpg,AFSA14.jpg,AFSA02.jpg,AFNE07.jpg,FN,3,num_6,16,num_6,0.633501069271,,,2017_Apr_25_1956,60.0060240639,MAFE4ImagesEEG,001,100263,
AFNE01.JPG,AFNE01.JPG,AFNE01.JPG,AFNE01.JPG,AFNE01.JPG,AFNE01.JPG,,,,,,,,,,,,,2,6,26,4,,,,,,,,,,,AFSA06.jpg,AFNE13.jpg,AFSA14.jpg,AFNE01.jpg,AFNE13.jpg,FN,3,num_6,32,num_8,0.666666132165,,,2017_Apr_25_1956,60.0060240639,MAFE4ImagesEEG,001,100263,
AFNE01.JPG,AFNE01.JPG,AFNE01.JPG,AFNE01.JPG,AFNE01.JPG,AFNE01.JPG,,,,,,,,,,,,,2,7,27,1,,,,,,,,,,,AFNE04.jpg,AFSA02.jpg,AFSA03.jpg,AFNE09.jpg,AFNE09.jpg,FN,3,num_4,32,num_2,0.450178796076,,,2017_Apr_25_1956,60.0060240639,MAFE4ImagesEEG,001,100263,
AFNE01.JPG,AFNE01.JPG,AFNE01.JPG,AFNE01.JPG,AFNE01.JPG,AFNE01.JPG,,,,,,,,,,,,,2,8,28,5,,,,,,,,,,,AFSA04.jpg,AFNE19.jpg,AFNE05.jpg,AFSA08.jpg,AFSA04.jpg,FS,4,num_8,16,num_8,1.1500940246,,,2017_Apr_25_1956,60.0060240639,MAFE4ImagesEEG,001,100263,
AFNE01.JPG,AFNE01.JPG,AFNE01.JPG,AFNE01.JPG,AFNE01.JPG,AFNE01.JPG,,,,,,,,,,,,,2,9,29,7,,,,,,,,,,,AFSA06.jpg,AFNE18.jpg,AFNE16.jpg,AFSA12.jpg,AFNE16.jpg,FN,3,num_2,16,num_2,1.20011424727,,,2017_Apr_25_1956,60.0060240639,MAFE4ImagesEEG,001,100263,
AFNE01.JPG,AFNE01.JPG,AFNE01.JPG,AFNE01.JPG,AFNE01.JPG,AFNE01.JPG,,,,,,,,,,,,,3,0,30,2,,,,,,,,,,,AFSA07.jpg,AFSA15.jpg,AFNE16.jpg,AFNE14.jpg,AFSA07.jpg,FS,4,num_8,32,num_4,0.616789921303,,,2017_Apr_25_1956,60.0060240639,MAFE4ImagesEEG,001,100263,
AFNE01.JPG,AFNE01.JPG,AFNE01.JPG,AFNE01.JPG,AFNE01.JPG,AFNE01.JPG,,,,,,,,,,,,,3,1,31,4,,,,,,,,,,,AFNE14.jpg,AFNE16.jpg,AFSA07.jpg,AFSA01.jpg,AFSA01.jpg,FS,4,num_4,32,num_6,0.916778791696,,,2017_Apr_25_1956,60.0060240639,MAFE4ImagesEEG,001,100263,
AFNE01.JPG,AFNE01.JPG,AFNE01.JPG,AFNE01.JPG,AFNE01.JPG,AFNE01.JPG,,,,,,,,,,,,,3,2,32,0,,,,,,,,,,,AFNE09.jpg,AFSA02.jpg,AFSA20.jpg,AFNE11.jpg,AFSA02.jpg,FS,4,num_6,32,num_8,1.31676961854,,,2017_Apr_25_1956,60.0060240639,MAFE4ImagesEEG,001,100263,
AFNE01.JPG,AFNE01.JPG,AFNE01.JPG,AFNE01.JPG,AFNE01.JPG,AFNE01.JPG,,,,,,,,,,,,,3,3,33,1,,,,,,,,,,,AFSA08.jpg,AFSA12.jpg,AFNE08.jpg,AFNE01.jpg,AFNE08.jpg,FN,3,num_2,32,num_8,1.45008866827,,,2017_Apr_25_1956,60.0060240639,MAFE4ImagesEEG,001,100263,
AFNE01.JPG,AFNE01.JPG,AFNE01.JPG,AFNE01.JPG,AFNE01.JPG,AFNE01.JPG,,,,,,,,,,,,,3,4,34,3,,,,,,,,,,,AFNE11.jpg,AFSA02.jpg,AFNE20.jpg,AFSA11.jpg,AFSA11.jpg,FS,4,num_4,32,num_8,2.64996364422,,,2017_Apr_25_1956,60.0060240639,MAFE4ImagesEEG,001,100263,
AFNE01.JPG,AFNE01.JPG,AFNE01.JPG,AFNE01.JPG,AFNE01.JPG,AFNE01.JPG,,,,,,,,,,,,,3,5,35,5,,,,,,,,,,,AFSA20.jpg,AFNE16.jpg,AFSA08.jpg,AFNE05.jpg,AFNE16.jpg,FN,3,num_6,32,num_2,1.51672060962,,,2017_Apr_25_1956,60.0060240639,MAFE4ImagesEEG,001,100263,
AFNE01.JPG,AFNE01.JPG,AFNE01.JPG,AFNE01.JPG,AFNE01.JPG,AFNE01.JPG,,,,,,,,,,,,,3,6,36,6,,,,,,,,,,,AFSA11.jpg,AFNE20.jpg,AFSA08.jpg,AFNE15.jpg,AFNE15.jpg,FN,3,num_4,32,num_6,0.766739934217,,,2017_Apr_25_1956,60.0060240639,MAFE4ImagesEEG,001,100263,
AFNE01.JPG,AFNE01.JPG,AFNE01.JPG,AFNE01.JPG,AFNE01.JPG,AFNE01.JPG,,,,,,,,,,,,,3,7,37,7,,,,,,,,,,,AFNE09.jpg,AFSA05.jpg,AFSA11.jpg,AFNE20.jpg,AFSA11.jpg,FS,4,num_2,16,num_2,1.11674261233,,,2017_Apr_25_1956,60.0060240639,MAFE4ImagesEEG,001,100263,
AFNE01.JPG,AFNE01.JPG,AFNE01.JPG,AFNE01.JPG,AFNE01.JPG,AFNE01.JPG,,,,,,,,,,,,,3,8,38,8,,,,,,,,,,,AFNE10.jpg,AFSA03.jpg,AFNE07.jpg,AFSA20.jpg,AFSA03.jpg,FS,4,num_6,16,num_6,0.716777444584,,,2017_Apr_25_1956,60.0060240639,MAFE4ImagesEEG,001,100263,
AFNE01.JPG,AFNE01.JPG,AFNE01.JPG,AFNE01.JPG,AFNE01.JPG,AFNE01.JPG,,,,,,,,,,,,,3,9,39,9,,,,,,,,,,,AFSA08.jpg,AFNE10.jpg,AFNE16.jpg,AFSA13.jpg,AFSA13.jpg,FS,4,num_4,16,num_4,0.53338845761,,,2017_Apr_25_1956,60.0060240639,MAFE4ImagesEEG,001,100263,
AFNE01.JPG,AFNE01.JPG,AFNE01.JPG,AFNE01.JPG,AFNE01.JPG,AFNE01.JPG,,,,,,,,,,,,,4,0,40,9,,,,,,,,,,,AFNE06.jpg,AFSA20.jpg,AFSA06.jpg,AFNE10.jpg,AFSA20.jpg,FS,4,num_6,16,num_6,0.533518998534,,,2017_Apr_25_1956,60.0060240639,MAFE4ImagesEEG,001,100263,
AFNE01.JPG,AFNE01.JPG,AFNE01.JPG,AFNE01.JPG,AFNE01.JPG,AFNE01.JPG,,,,,,,,,,,,,4,1,41,2,,,,,,,,,,,AFSA09.jpg,AFNE10.jpg,AFSA05.jpg,AFNE08.jpg,AFNE08.jpg,FN,3,num_4,16,num_4,0.983160877251,,,2017_Apr_25_1956,60.0060240639,MAFE4ImagesEEG,001,100263,
AFNE01.JPG,AFNE01.JPG,AFNE01.JPG,AFNE01.JPG,AFNE01.JPG,AFNE01.JPG,,,,,,,,,,,,,4,2,42,1,,,,,,,,,,,AFNE04.jpg,AFSA02.jpg,AFNE08.jpg,AFSA14.jpg,AFNE04.jpg,FN,3,num_8,16,num_8,1.08343514137,,,2017_Apr_25_1956,60.0060240639,MAFE4ImagesEEG,001,100263,
AFNE01.JPG,AFNE01.JPG,AFNE01.JPG,AFNE01.JPG,AFNE01.JPG,AFNE01.JPG,,,,,,,,,,,,,4,3,43,5,,,,,,,,,,,AFSA16.jpg,AFNE04.jpg,AFSA20.jpg,AFNE13.jpg,AFNE13.jpg,FN,3,num_4,16,num_4,4.31661181489,,,2017_Apr_25_1956,60.0060240639,MAFE4ImagesEEG,001,100263,
AFNE01.JPG,AFNE01.JPG,AFNE01.JPG,AFNE01.JPG,AFNE01.JPG,AFNE01.JPG,,,,,,,,,,,,,4,4,44,8,,,,,,,,,,,AFSA02.jpg,AFNE05.jpg,AFSA05.jpg,AFNE20.jpg,AFNE05.jpg,FN,3,num_6,16,num_6,1.16676379717,,,2017_Apr_25_1956,60.0060240639,MAFE4ImagesEEG,001,100263,
AFNE01.JPG,AFNE01.JPG,AFNE01.JPG,AFNE01.JPG,AFNE01.JPG,AFNE01.JPG,,,,,,,,,,,,,4,5,45,6,,,,,,,,,,,AFSA01.jpg,AFSA09.jpg,AFNE13.jpg,AFNE12.jpg,AFNE12.jpg,FN,3,num_4,16,num_4,3.31658006168,,,2017_Apr_25_1956,60.0060240639,MAFE4ImagesEEG,001,100263,
AFNE01.JPG,AFNE01.JPG,AFNE01.JPG,AFNE01.JPG,AFNE01.JPG,AFNE01.JPG,,,,,,,,,,,,,4,6,46,7,,,,,,,,,,,AFSA04.jpg,AFSA07.jpg,AFNE05.jpg,AFNE10.jpg,AFNE10.jpg,FN,3,num_4,32,num_8,2.2000792867,,,2017_Apr_25_1956,60.0060240639,MAFE4ImagesEEG,001,100263,
AFNE01.JPG,AFNE01.JPG,AFNE01.JPG,AFNE01.JPG,AFNE01.JPG,AFNE01.JPG,,,,,,,,,,,,,4,7,47,3,,,,,,,,,,,AFSA01.jpg,AFNE12.jpg,AFSA15.jpg,AFNE11.jpg,AFSA15.jpg,FS,4,num_2,32,num_4,1.7834347242,,,2017_Apr_25_1956,60.0060240639,MAFE4ImagesEEG,001,100263,
AFNE01.JPG,AFNE01.JPG,AFNE01.JPG,AFNE01.JPG,AFNE01.JPG,AFNE01.JPG,,,,,,,,,,,,,4,8,48,0,,,,,,,,,,,AFSA14.jpg,AFSA01.jpg,AFNE19.jpg,AFNE12.jpg,AFSA01.jpg,FS,4,num_6,32,num_4,1.40010725521,,,2017_Apr_25_1956,60.0060240639,MAFE4ImagesEEG,001,100263,
AFNE01.JPG,AFNE01.JPG,AFNE01.JPG,AFNE01.JPG,AFNE01.JPG,AFNE01.JPG,,,,,,,,,,,,,4,9,49,4,,,,,,,,,,,AFNE07.jpg,AFSA17.jpg,AFNE13.jpg,AFSA02.jpg,AFNE07.jpg,FN,3,num_8,16,num_8,1.30014346656,,,2017_Apr_25_1956,60.0060240639,MAFE4ImagesEEG,001,100263,
AFNE01.JPG,AFNE01.JPG,AFNE01.JPG,AFNE01.JPG,AFNE01.JPG,AFNE01.JPG,,,,,,,,,,,,,5,0,50,1,,,,,,,,,,,AFSA04.jpg,AFSA12.jpg,AFNE11.jpg,AFNE08.jpg,AFNE11.jpg,FN,3,num_2,32,num_4,0.733449462336,,,2017_Apr_25_1956,60.0060240639,MAFE4ImagesEEG,001,100263,
AFNE01.JPG,AFNE01.JPG,AFNE01.JPG,AFNE01.JPG,AFNE01.JPG,AFNE01.JPG,,,,,,,,,,,,,5,1,51,3,,,,,,,,,,,AFNE17.jpg,AFSA14.jpg,AFSA02.jpg,AFNE10.jpg,AFNE17.jpg,FN,3,num_8,32,num_2,0.33350770839,,,2017_Apr_25_1956,60.0060240639,MAFE4ImagesEEG,001,100263,
AFNE01.JPG,AFNE01.JPG,AFNE01.JPG,AFNE01.JPG,AFNE01.JPG,AFNE01.JPG,,,,,,,,,,,,,5,2,52,7,,,,,,,,,,,AFSA05.jpg,AFNE04.jpg,AFNE11.jpg,AFSA09.jpg,AFNE11.jpg,FN,3,num_2,32,num_8,0.800099685788,,,2017_Apr_25_1956,60.0060240639,MAFE4ImagesEEG,001,100263,
AFNE01.JPG,AFNE01.JPG,AFNE01.JPG,AFNE01.JPG,AFNE01.JPG,AFNE01.JPG,,,,,,,,,,,,,5,3,53,2,,,,,,,,,,,AFSA07.jpg,AFSA20.jpg,AFNE10.jpg,AFNE01.jpg,AFNE10.jpg,FN,3,num_2,16,num_2,0.216824753676,,,2017_Apr_25_1956,60.0060240639,MAFE4ImagesEEG,001,100263,
AFNE01.JPG,AFNE01.JPG,AFNE01.JPG,AFNE01.JPG,AFNE01.JPG,AFNE01.JPG,,,,,,,,,,,,,5,4,54,6,,,,,,,,,,,AFNE14.jpg,AFSA15.jpg,AFNE13.jpg,AFSA18.jpg,AFNE14.jpg,FN,3,num_8,16,num_8,0.983449221705,,,2017_Apr_25_1956,60.0060240639,MAFE4ImagesEEG,001,100263,
AFNE01.JPG,AFNE01.JPG,AFNE01.JPG,AFNE01.JPG,AFNE01.JPG,AFNE01.JPG,,,,,,,,,,,,,5,5,55,5,,,,,,,,,,,AFSA10.jpg,AFNE07.jpg,AFNE18.jpg,AFSA04.jpg,AFNE18.jpg,FN,3,num_2,32,num_4,1.18346917175,,,2017_Apr_25_1956,60.0060240639,MAFE4ImagesEEG,001,100263,
AFNE01.JPG,AFNE01.JPG,AFNE01.JPG,AFNE01.JPG,AFNE01.JPG,AFNE01.JPG,,,,,,,,,,,,,5,6,56,0,,,,,,,,,,,AFNE12.jpg,AFNE06.jpg,AFSA19.jpg,AFSA12.jpg,AFNE12.jpg,FN,3,num_8,16,num_8,2.50002485735,,,2017_Apr_25_1956,60.0060240639,MAFE4ImagesEEG,001,100263,
AFNE01.JPG,AFNE01.JPG,AFNE01.JPG,AFNE01.JPG,AFNE01.JPG,AFNE01.JPG,,,,,,,,,,,,,5,7,57,8,,,,,,,,,,,AFSA10.jpg,AFNE11.jpg,AFSA01.jpg,AFNE09.jpg,AFNE09.jpg,FN,3,num_4,32,num_8,0.783484118176,,,2017_Apr_25_1956,60.0060240639,MAFE4ImagesEEG,001,100263,
AFNE01.JPG,AFNE01.JPG,AFNE01.JPG,AFNE01.JPG,AFNE01.JPG,AFNE01.JPG,,,,,,,,,,,,,5,8,58,9,,,,,,,,,,,AFNE04.jpg,AFNE06.jpg,AFSA18.jpg,AFSA12.jpg,AFNE04.jpg,FN,3,num_8,16,num_8,0.650105410954,,,2017_Apr_25_1956,60.0060240639,MAFE4ImagesEEG,001,100263,
AFNE01.JPG,AFNE01.JPG,AFNE01.JPG,AFNE01.JPG,AFNE01.JPG,AFNE01.JPG,,,,,,,,,,,,,5,9,59,4,,,,,,,,,,,AFSA14.jpg,AFSA09.jpg,AFNE16.jpg,AFNE15.jpg,AFSA14.jpg,FS,4,num_8,16,num_8,1.55007619155,,,2017_Apr_25_1956,60.0060240639,MAFE4ImagesEEG,001,100263,
,,,,,,,,,,,,,,,,,,,,,,,,,,,,,,,,,,,,,,,,,,,space,48.0796844184,2017_Apr_25_1956,60.0060240639,MAFE4ImagesEEG,001,100263,
AFNE01.JPG,AFNE01.JPG,AFNE01.JPG,AFNE01.JPG,AFNE01.JPG,AFNE01.JPG,,,,,,,,,,,,,,,,,0,0,0,1,,,,,,,AMSA09.jpg,AMNE09.jpg,AMNE05.jpg,AMSA07.jpg,AMSA09.jpg,MS,2,num_8,32,num_6,0.566797282314,,,2017_Apr_25_1956,60.0060240639,MAFE4ImagesEEG,001,100263,
AFNE01.JPG,AFNE01.JPG,AFNE01.JPG,AFNE01.JPG,AFNE01.JPG,AFNE01.JPG,,,,,,,,,,,,,,,,,0,1,1,7,,,,,,,AMNE13.jpg,AMSA01.jpg,AMNE03.jpg,AMSA17.jpg,AMNE03.jpg,MN,1,num_2,16,num_2,1.06678878271,,,2017_Apr_25_1956,60.0060240639,MAFE4ImagesEEG,001,100263,
AFNE01.JPG,AFNE01.JPG,AFNE01.JPG,AFNE01.JPG,AFNE01.JPG,AFNE01.JPG,,,,,,,,,,,,,,,,,0,2,2,3,,,,,,,AMNE14.jpg,AMNE08.jpg,AMSA01.jpg,AMSA14.jpg,AMSA14.jpg,MS,2,num_4,16,num_4,0.683475426049,,,2017_Apr_25_1956,60.0060240639,MAFE4ImagesEEG,001,100263,
AFNE01.JPG,AFNE01.JPG,AFNE01.JPG,AFNE01.JPG,AFNE01.JPG,AFNE01.JPG,,,,,,,,,,,,,,,,,0,3,3,8,,,,,,,AMSA17.jpg,AMNE03.jpg,AMSA14.jpg,AMNE05.jpg,AMNE03.jpg,MN,1,num_6,32,num_8,1.10012063,,,2017_Apr_25_1956,60.0060240639,MAFE4ImagesEEG,001,100263,
AFNE01.JPG,AFNE01.JPG,AFNE01.JPG,AFNE01.JPG,AFNE01.JPG,AFNE01.JPG,,,,,,,,,,,,,,,,,0,4,4,9,,,,,,,AMNE16.jpg,AMSA09.jpg,AMSA06.jpg,AMNE04.jpg,AMSA06.jpg,MS,2,num_2,32,num_6,0.966763733071,,,2017_Apr_25_1956,60.0060240639,MAFE4ImagesEEG,001,100263,
AFNE01.JPG,AFNE01.JPG,AFNE01.JPG,AFNE01.JPG,AFNE01.JPG,AFNE01.JPG,,,,,,,,,,,,,,,,,0,5,5,5,,,,,,,AMSA07.jpg,AMNE18.jpg,AMSA16.jpg,AMNE05.jpg,AMSA16.jpg,MS,2,num_2,32,num_6,0.800146834343,,,2017_Apr_25_1956,60.0060240639,MAFE4ImagesEEG,001,100263,
AFNE01.JPG,AFNE01.JPG,AFNE01.JPG,AFNE01.JPG,AFNE01.JPG,AFNE01.JPG,,,,,,,,,,,,,,,,,0,6,6,4,,,,,,,AMSA01.jpg,AMNE16.jpg,AMSA13.jpg,AMNE19.jpg,AMSA13.jpg,MS,2,num_2,32,num_4,0.833339801524,,,2017_Apr_25_1956,60.0060240639,MAFE4ImagesEEG,001,100263,
AFNE01.JPG,AFNE01.JPG,AFNE01.JPG,AFNE01.JPG,AFNE01.JPG,AFNE01.JPG,,,,,,,,,,,,,,,,,0,7,7,0,,,,,,,AMSA16.jpg,AMNE13.jpg,AMNE10.jpg,AMSA12.jpg,AMNE13.jpg,MN,1,num_6,16,num_6,0.916731643025,,,2017_Apr_25_1956,60.0060240639,MAFE4ImagesEEG,001,100263,
AFNE01.JPG,AFNE01.JPG,AFNE01.JPG,AFNE01.JPG,AFNE01.JPG,AFNE01.JPG,,,,,,,,,,,,,,,,,0,8,8,6,,,,,,,AMNE04.jpg,AMSA10.jpg,AMSA01.jpg,AMNE02.jpg,AMSA01.jpg,MS,2,num_2,16,num_2,0.750177288544,,,2017_Apr_25_1956,60.0060240639,MAFE4ImagesEEG,001,100263,
AFNE01.JPG,AFNE01.JPG,AFNE01.JPG,AFNE01.JPG,AFNE01.JPG,AFNE01.JPG,,,,,,,,,,,,,,,,,0,9,9,2,,,,,,,AMNE11.jpg,AMNE03.jpg,AMSA05.jpg,AMSA03.jpg,AMSA05.jpg,MS,2,num_2,16,num_2,1.30011876964,,,2017_Apr_25_1956,60.0060240639,MAFE4ImagesEEG,001,100263,
AFNE01.JPG,AFNE01.JPG,AFNE01.JPG,AFNE01.JPG,AFNE01.JPG,AFNE01.JPG,,,,,,,,,,,,,,,,,1,0,10,2,,,,,,,AMSA11.jpg,AMNE06.jpg,AMNE05.jpg,AMSA01.jpg,AMNE06.jpg,MN,1,num_6,32,num_2,1.01678138971,,,2017_Apr_25_1956,60.0060240639,MAFE4ImagesEEG,001,100263,
AFNE01.JPG,AFNE01.JPG,AFNE01.JPG,AFNE01.JPG,AFNE01.JPG,AFNE01.JPG,,,,,,,,,,,,,,,,,1,1,11,6,,,,,,,AMSA15.jpg,AMNE14.jpg,AMSA17.jpg,AMNE07.jpg,AMSA17.jpg,MS,2,num_2,32,num_8,0.283481071121,,,2017_Apr_25_1956,60.0060240639,MAFE4ImagesEEG,001,100263,
AFNE01.JPG,AFNE01.JPG,AFNE01.JPG,AFNE01.JPG,AFNE01.JPG,AFNE01.JPG,,,,,,,,,,,,,,,,,1,2,12,0,,,,,,,AMNE15.jpg,AMSA11.jpg,AMSA15.jpg,AMNE08.jpg,AMSA11.jpg,MS,2,num_6,32,num_4,1.95005066076,,,2017_Apr_25_1956,60.0060240639,MAFE4ImagesEEG,001,100263,
AFNE01.JPG,AFNE01.JPG,AFNE01.JPG,AFNE01.JPG,AFNE01.JPG,AFNE01.JPG,,,,,,,,,,,,,,,,,1,3,13,8,,,,,,,AMNE06.jpg,AMSA13.jpg,AMSA04.jpg,AMNE15.jpg,AMSA04.jpg,MS,2,num_2,32,num_8,3.6165448766,,,2017_Apr_25_1956,60.0060240639,MAFE4ImagesEEG,001,100263,
AFNE01.JPG,AFNE01.JPG,AFNE01.JPG,AFNE01.JPG,AFNE01.JPG,AFNE01.JPG,,,,,,,,,,,,,,,,,1,4,14,4,,,,,,,AMSA04.jpg,AMNE20.jpg,AMNE02.jpg,AMSA07.jpg,AMSA07.jpg,MS,2,num_4,16,num_4,1.81673610129,,,2017_Apr_25_1956,60.0060240639,MAFE4ImagesEEG,001,100263,
AFNE01.JPG,AFNE01.JPG,AFNE01.JPG,AFNE01.JPG,AFNE01.JPG,AFNE01.JPG,,,,,,,,,,,,,,,,,1,5,15,5,,,,,,,AMSA17.jpg,AMSA07.jpg,AMNE08.jpg,AMNE04.jpg,AMNE04.jpg,MN,1,num_4,32,num_8,2.116929924,,,2017_Apr_25_1956,60.0060240639,MAFE4ImagesEEG,001,100263,
AFNE01.JPG,AFNE01.JPG,AFNE01.JPG,AFNE01.JPG,AFNE01.JPG,AFNE01.JPG,,,,,,,,,,,,,,,,,1,6,16,7,,,,,,,AMSA03.jpg,AMNE13.jpg,AMSA10.jpg,AMNE10.jpg,AMNE13.jpg,MN,1,num_6,32,num_8,4.23321323795,,,2017_Apr_25_1956,60.0060240639,MAFE4ImagesEEG,001,100263,
AFNE01.JPG,AFNE01.JPG,AFNE01.JPG,AFNE01.JPG,AFNE01.JPG,AFNE01.JPG,,,,,,,,,,,,,,,,,1,7,17,1,,,,,,,AMNE19.jpg,AMNE05.jpg,AMSA07.jpg,AMSA08.jpg,AMNE19.jpg,MN,1,num_8,48,None,,,,2017_Apr_25_1956,60.0060240639,MAFE4ImagesEEG,001,100263,
AFNE01.JPG,AFNE01.JPG,AFNE01.JPG,AFNE01.JPG,AFNE01.JPG,AFNE01.JPG,,,,,,,,,,,,,,,,,1,8,18,9,,,,,,,AMSA05.jpg,AMNE15.jpg,AMSA13.jpg,AMNE06.jpg,AMSA13.jpg,MS,2,num_2,32,num_4,1.56676200102,,,2017_Apr_25_1956,60.0060240639,MAFE4ImagesEEG,001,100263,
AFNE01.JPG,AFNE01.JPG,AFNE01.JPG,AFNE01.JPG,AFNE01.JPG,AFNE01.JPG,,,,,,,,,,,,,,,,,1,9,19,3,,,,,,,AMNE04.jpg,AMNE08.jpg,AMSA05.jpg,AMSA02.jpg,AMSA02.jpg,MS,2,num_4,48,None,,,,2017_Apr_25_1956,60.0060240639,MAFE4ImagesEEG,001,100263,
AFNE01.JPG,AFNE01.JPG,AFNE01.JPG,AFNE01.JPG,AFNE01.JPG,AFNE01.JPG,,,,,,,,,,,,,,,,,2,0,20,9,,,,,,,AMSA18.jpg,AMNE08.jpg,AMSA03.jpg,AMNE10.jpg,AMNE08.jpg,MN,1,num_6,32,num_8,0.450136137661,,,2017_Apr_25_1956,60.0060240639,MAFE4ImagesEEG,001,100263,
AFNE01.JPG,AFNE01.JPG,AFNE01.JPG,AFNE01.JPG,AFNE01.JPG,AFNE01.JPG,,,,,,,,,,,,,,,,,2,1,21,4,,,,,,,AMNE01.jpg,AMNE20.jpg,AMSA02.jpg,AMSA01.jpg,AMSA01.jpg,MS,2,num_4,32,num_8,1.5167507591,,,2017_Apr_25_1956,60.0060240639,MAFE4ImagesEEG,001,100263,
AFNE01.JPG,AFNE01.JPG,AFNE01.JPG,AFNE01.JPG,AFNE01.JPG,AFNE01.JPG,,,,,,,,,,,,,,,,,2,2,22,5,,,,,,,AMSA15.jpg,AMSA14.jpg,AMNE07.jpg,AMNE05.jpg,AMSA15.jpg,MS,2,num_8,32,num_4,0.733489234,,,2017_Apr_25_1956,60.0060240639,MAFE4ImagesEEG,001,100263,
AFNE01.JPG,AFNE01.JPG,AFNE01.JPG,AFNE01.JPG,AFNE01.JPG,AFNE01.JPG,,,,,,,,,,,,,,,,,2,3,23,1,,,,,,,AMNE05.jpg,AMSA20.jpg,AMNE19.jpg,AMSA18.jpg,AMNE05.jpg,MN,1,num_8,32,num_2,1.30014603247,,,2017_Apr_25_1956,60.0060240639,MAFE4ImagesEEG,001,100263,
AFNE01.JPG,AFNE01.JPG,AFNE01.JPG,AFNE01.JPG,AFNE01.JPG,AFNE01.JPG,,,,,,,,,,,,,,,,,2,4,24,8,,,,,,,AMSA02.jpg,AMNE13.jpg,AMSA09.jpg,AMNE11.jpg,AMSA09.jpg,MS,2,num_2,32,num_8,3.03335846856,,,2017_Apr_25_1956,60.0060240639,MAFE4ImagesEEG,001,100263,
AFNE01.JPG,AFNE01.JPG,AFNE01.JPG,AFNE01.JPG,AFNE01.JPG,AFNE01.JPG,,,,,,,,,,,,,,,,,2,5,25,0,,,,,,,AMSA20.jpg,AMSA07.jpg,AMNE11.jpg,AMNE06.jpg,AMSA20.jpg,MS,2,num_8,16,num_8,2.50000561285,,,2017_Apr_25_1956,60.0060240639,MAFE4ImagesEEG,001,100263,
AFNE01.JPG,AFNE01.JPG,AFNE01.JPG,AFNE01.JPG,AFNE01.JPG,AFNE01.JPG,,,,,,,,,,,,,,,,,2,6,26,2,,,,,,,AMSA12.jpg,AMSA10.jpg,AMNE16.jpg,AMNE01.jpg,AMSA12.jpg,MS,2,num_8,32,num_6,0.883438925957,,,2017_Apr_25_1956,60.0060240639,MAFE4ImagesEEG,001,100263,
AFNE01.JPG,AFNE01.JPG,AFNE01.JPG,AFNE01.JPG,AFNE01.JPG,AFNE01.JPG,,,,,,,,,,,,,,,,,2,7,27,3,,,,,,,AMNE15.jpg,AMSA18.jpg,AMNE04.jpg,AMSA04.jpg,AMNE04.jpg,MN,1,num_2,32,num_4,3.0332943208,,,2017_Apr_25_1956,60.0060240639,MAFE4ImagesEEG,001,100263,
AFNE01.JPG,AFNE01.JPG,AFNE01.JPG,AFNE01.JPG,AFNE01.JPG,AFNE01.JPG,,,,,,,,,,,,,,,,,2,8,28,6,,,,,,,AMSA03.jpg,AMSA01.jpg,AMNE17.jpg,AMNE13.jpg,AMSA03.jpg,MS,2,num_8,48,None,,,,2017_Apr_25_1956,60.0060240639,MAFE4ImagesEEG,001,100263,
AFNE01.JPG,AFNE01.JPG,AFNE01.JPG,AFNE01.JPG,AFNE01.JPG,AFNE01.JPG,,,,,,,,,,,,,,,,,2,9,29,7,,,,,,,AMNE03.jpg,AMNE12.jpg,AMSA16.jpg,AMSA04.jpg,AMNE03.jpg,MN,1,num_8,16,num_8,0.81678838178,,,2017_Apr_25_1956,60.0060240639,MAFE4ImagesEEG,001,100263,
AFNE01.JPG,AFNE01.JPG,AFNE01.JPG,AFNE01.JPG,AFNE01.JPG,AFNE01.JPG,,,,,,,,,,,,,,,,,3,0,30,0,,,,,,,AMNE10.jpg,AMNE08.jpg,AMSA06.jpg,AMSA05.jpg,AMSA05.jpg,MS,2,num_4,32,num_6,1.20009564445,,,2017_Apr_25_1956,60.0060240639,MAFE4ImagesEEG,001,100263,
AFNE01.JPG,AFNE01.JPG,AFNE01.JPG,AFNE01.JPG,AFNE01.JPG,AFNE01.JPG,,,,,,,,,,,,,,,,,3,1,31,2,,,,,,,AMNE20.jpg,AMNE18.jpg,AMSA12.jpg,AMSA02.jpg,AMNE18.jpg,MN,1,num_6,32,num_4,0.583483733237,,,2017_Apr_25_1956,60.0060240639,MAFE4ImagesEEG,001,100263,
AFNE01.JPG,AFNE01.JPG,AFNE01.JPG,AFNE01.JPG,AFNE01.JPG,AFNE01.JPG,,,,,,,,,,,,,,,,,3,2,32,9,,,,,,,AMSA06.jpg,AMNE04.jpg,AMSA19.jpg,AMNE10.jpg,AMSA06.jpg,MS,2,num_8,16,num_8,1.16679458809,,,2017_Apr_25_1956,60.0060240639,MAFE4ImagesEEG,001,100263,
AFNE01.JPG,AFNE01.JPG,AFNE01.JPG,AFNE01.JPG,AFNE01.JPG,AFNE01.JPG,,,,,,,,,,,,,,,,,3,3,33,6,,,,,,,AMNE16.jpg,AMSA01.jpg,AMSA18.jpg,AMNE08.jpg,AMNE08.jpg,MN,1,num_4,16,num_4,0.933315778268,,,2017_Apr_25_1956,60.0060240639,MAFE4ImagesEEG,001,100263,
AFNE01.JPG,AFNE01.JPG,AFNE01.JPG,AFNE01.JPG,AFNE01.JPG,AFNE01.JPG,,,,,,,,,,,,,,,,,3,4,34,3,,,,,,,AMNE12.jpg,AMNE06.jpg,AMSA02.jpg,AMSA15.jpg,AMNE12.jpg,MN,1,num_8,32,num_2,0.733506553923,,,2017_Apr_25_1956,60.0060240639,MAFE4ImagesEEG,001,100263,
AFNE01.JPG,AFNE01.JPG,AFNE01.JPG,AFNE01.JPG,AFNE01.JPG,AFNE01.JPG,,,,,,,,,,,,,,,,,3,5,35,5,,,,,,,AMSA18.jpg,AMNE20.jpg,AMSA12.jpg,AMNE05.jpg,AMNE05.jpg,MN,1,num_4,32,num_2,1.06672527641,,,2017_Apr_25_1956,60.0060240639,MAFE4ImagesEEG,001,100263,
AFNE01.JPG,AFNE01.JPG,AFNE01.JPG,AFNE01.JPG,AFNE01.JPG,AFNE01.JPG,,,,,,,,,,,,,,,,,3,6,36,7,,,,,,,AMNE09.jpg,AMSA01.jpg,AMSA18.jpg,AMNE06.jpg,AMNE09.jpg,MN,1,num_8,32,num_4,0.733510402613,,,2017_Apr_25_1956,60.0060240639,MAFE4ImagesEEG,001,100263,
AFNE01.JPG,AFNE01.JPG,AFNE01.JPG,AFNE01.JPG,AFNE01.JPG,AFNE01.JPG,,,,,,,,,,,,,,,,,3,7,37,8,,,,,,,AMNE12.jpg,AMSA15.jpg,AMSA07.jpg,AMNE18.jpg,AMSA07.jpg,MS,2,num_2,16,num_2,0.800265187048,,,2017_Apr_25_1956,60.0060240639,MAFE4ImagesEEG,001,100263,
AFNE01.JPG,AFNE01.JPG,AFNE01.JPG,AFNE01.JPG,AFNE01.JPG,AFNE01.JPG,,,,,,,,,,,,,,,,,3,8,38,4,,,,,,,AMSA07.jpg,AMNE02.jpg,AMSA10.jpg,AMNE13.jpg,AMNE13.jpg,MN,1,num_4,32,num_2,1.43342017871,,,2017_Apr_25_1956,60.0060240639,MAFE4ImagesEEG,001,100263,
AFNE01.JPG,AFNE01.JPG,AFNE01.JPG,AFNE01.JPG,AFNE01.JPG,AFNE01.JPG,,,,,,,,,,,,,,,,,3,9,39,1,,,,,,,AMSA03.jpg,AMNE03.jpg,AMSA15.jpg,AMNE11.jpg,AMNE11.jpg,MN,1,num_4,32,num_6,1.716693411,,,2017_Apr_25_1956,60.0060240639,MAFE4ImagesEEG,001,100263,
AFNE01.JPG,AFNE01.JPG,AFNE01.JPG,AFNE01.JPG,AFNE01.JPG,AFNE01.JPG,,,,,,,,,,,,,,,,,4,0,40,1,,,,,,,AMSA03.jpg,AMNE15.jpg,AMNE06.jpg,AMSA08.jpg,AMSA08.jpg,MS,2,num_4,32,num_8,3.11632436852,,,2017_Apr_25_1956,60.0060240639,MAFE4ImagesEEG,001,100263,
AFNE01.JPG,AFNE01.JPG,AFNE01.JPG,AFNE01.JPG,AFNE01.JPG,AFNE01.JPG,,,,,,,,,,,,,,,,,4,1,41,7,,,,,,,AMNE19.jpg,AMNE14.jpg,AMSA01.jpg,AMSA18.jpg,AMNE14.jpg,MN,1,num_6,32,num_8,3.53328133083,,,2017_Apr_25_1956,60.0060240639,MAFE4ImagesEEG,001,100263,
AFNE01.JPG,AFNE01.JPG,AFNE01.JPG,AFNE01.JPG,AFNE01.JPG,AFNE01.JPG,,,,,,,,,,,,,,,,,4,2,42,0,,,,,,,AMSA14.jpg,AMNE17.jpg,AMSA11.jpg,AMNE02.jpg,AMNE17.jpg,MN,1,num_6,48,None,,,,2017_Apr_25_1956,60.0060240639,MAFE4ImagesEEG,001,100263,
AFNE01.JPG,AFNE01.JPG,AFNE01.JPG,AFNE01.JPG,AFNE01.JPG,AFNE01.JPG,,,,,,,,,,,,,,,,,4,3,43,8,,,,,,,AMSA12.jpg,AMNE04.jpg,AMSA02.jpg,AMNE11.jpg,AMSA02.jpg,MS,2,num_2,32,num_4,1.8833882492,,,2017_Apr_25_1956,60.0060240639,MAFE4ImagesEEG,001,100263,
AFNE01.JPG,AFNE01.JPG,AFNE01.JPG,AFNE01.JPG,AFNE01.JPG,AFNE01.JPG,,,,,,,,,,,,,,,,,4,4,44,3,,,,,,,AMNE07.jpg,AMSA19.jpg,AMNE09.jpg,AMSA01.jpg,AMNE07.jpg,MN,1,num_8,32,num_2,1.63338111271,,,2017_Apr_25_1956,60.0060240639,MAFE4ImagesEEG,001,100263,
AFNE01.JPG,AFNE01.JPG,AFNE01.JPG,AFNE01.JPG,AFNE01.JPG,AFNE01.JPG,,,,,,,,,,,,,,,,,4,5,45,4,,,,,,,AMNE10.jpg,AMSA16.jpg,AMSA09.jpg,AMNE01.jpg,AMNE01.jpg,MN,1,num_4,16,num_4,1.0667313704,,,2017_Apr_25_1956,60.0060240639,MAFE4ImagesEEG,001,100263,
AFNE01.JPG,AFNE01.JPG,AFNE01.JPG,AFNE01.JPG,AFNE01.JPG,AFNE01.JPG,,,,,,,,,,,,,,,,,4,6,46,5,,,,,,,AMNE12.jpg,AMNE15.jpg,AMSA18.jpg,AMSA03.jpg,AMSA03.jpg,MS,2,num_4,16,num_4,1.05012285907,,,2017_Apr_25_1956,60.0060240639,MAFE4ImagesEEG,001,100263,
AFNE01.JPG,AFNE01.JPG,AFNE01.JPG,AFNE01.JPG,AFNE01.JPG,AFNE01.JPG,,,,,,,,,,,,,,,,,4,7,47,2,,,,,,,AMSA09.jpg,AMSA16.jpg,AMNE16.jpg,AMNE07.jpg,AMSA09.jpg,MS,2,num_8,16,num_8,1.85005062877,,,2017_Apr_25_1956,60.0060240639,MAFE4ImagesEEG,001,100263,
AFNE01.JPG,AFNE01.JPG,AFNE01.JPG,AFNE01.JPG,AFNE01.JPG,AFNE01.JPG,,,,,,,,,,,,,,,,,4,8,48,9,,,,,,,AMNE05.jpg,AMNE04.jpg,AMSA05.jpg,AMSA19.jpg,AMSA19.jpg,MS,2,num_4,32,num_8,1.40006106871,,,2017_Apr_25_1956,60.0060240639,MAFE4ImagesEEG,001,100263,
AFNE01.JPG,AFNE01.JPG,AFNE01.JPG,AFNE01.JPG,AFNE01.JPG,AFNE01.JPG,,,,,,,,,,,,,,,,,4,9,49,6,,,,,,,AMSA13.jpg,AMNE05.jpg,AMSA06.jpg,AMNE06.jpg,AMNE06.jpg,MN,1,num_4,16,num_4,1.23341851088,,,2017_Apr_25_1956,60.0060240639,MAFE4ImagesEEG,001,100263,
AFNE01.JPG,AFNE01.JPG,AFNE01.JPG,AFNE01.JPG,AFNE01.JPG,AFNE01.JPG,,,,,,,,,,,,,,,,,5,0,50,6,,,,,,,AMNE07.jpg,AMNE08.jpg,AMSA06.jpg,AMSA07.jpg,AMNE07.jpg,MN,1,num_8,16,num_8,1.11676378106,,,2017_Apr_25_1956,60.0060240639,MAFE4ImagesEEG,001,100263,
AFNE01.JPG,AFNE01.JPG,AFNE01.JPG,AFNE01.JPG,AFNE01.JPG,AFNE01.JPG,,,,,,,,,,,,,,,,,5,1,51,3,,,,,,,AMNE10.jpg,AMSA16.jpg,AMSA19.jpg,AMNE13.jpg,AMSA19.jpg,MS,2,num_2,32,num_6,0.816950675799,,,2017_Apr_25_1956,60.0060240639,MAFE4ImagesEEG,001,100263,
AFNE01.JPG,AFNE01.JPG,AFNE01.JPG,AFNE01.JPG,AFNE01.JPG,AFNE01.JPG,,,,,,,,,,,,,,,,,5,2,52,8,,,,,,,AMNE10.jpg,AMNE11.jpg,AMSA19.jpg,AMSA02.jpg,AMNE10.jpg,MN,1,num_8,16,num_8,1.21669902396,,,2017_Apr_25_1956,60.0060240639,MAFE4ImagesEEG,001,100263,
AFNE01.JPG,AFNE01.JPG,AFNE01.JPG,AFNE01.JPG,AFNE01.JPG,AFNE01.JPG,,,,,,,,,,,,,,,,,5,3,53,7,,,,,,,AMSA14.jpg,AMNE04.jpg,AMSA18.jpg,AMNE06.jpg,AMNE04.jpg,MN,1,num_6,48,None,,,,2017_Apr_25_1956,60.0060240639,MAFE4ImagesEEG,001,100263,
AFNE01.JPG,AFNE01.JPG,AFNE01.JPG,AFNE01.JPG,AFNE01.JPG,AFNE01.JPG,,,,,,,,,,,,,,,,,5,4,54,4,,,,,,,AMNE19.jpg,AMNE05.jpg,AMSA03.jpg,AMSA12.jpg,AMSA12.jpg,MS,2,num_4,48,None,,,,2017_Apr_25_1956,60.0060240639,MAFE4ImagesEEG,001,100263,
AFNE01.JPG,AFNE01.JPG,AFNE01.JPG,AFNE01.JPG,AFNE01.JPG,AFNE01.JPG,,,,,,,,,,,,,,,,,5,5,55,1,,,,,,,AMNE07.jpg,AMSA19.jpg,AMSA18.jpg,AMNE12.jpg,AMSA18.jpg,MS,2,num_2,32,num_4,1.31668879231,,,2017_Apr_25_1956,60.0060240639,MAFE4ImagesEEG,001,100263,
AFNE01.JPG,AFNE01.JPG,AFNE01.JPG,AFNE01.JPG,AFNE01.JPG,AFNE01.JPG,,,,,,,,,,,,,,,,,5,6,56,9,,,,,,,AMSA07.jpg,AMNE19.jpg,AMNE14.jpg,AMSA02.jpg,AMNE19.jpg,MN,1,num_6,48,None,,,,2017_Apr_25_1956,60.0060240639,MAFE4ImagesEEG,001,100263,
AFNE01.JPG,AFNE01.JPG,AFNE01.JPG,AFNE01.JPG,AFNE01.JPG,AFNE01.JPG,,,,,,,,,,,,,,,,,5,7,57,2,,,,,,,AMSA19.jpg,AMNE12.jpg,AMNE10.jpg,AMSA08.jpg,AMSA08.jpg,MS,2,num_4,16,num_4,1.68309951993,,,2017_Apr_25_1956,60.0060240639,MAFE4ImagesEEG,001,100263,
AFNE01.JPG,AFNE01.JPG,AFNE01.JPG,AFNE01.JPG,AFNE01.JPG,AFNE01.JPG,,,,,,,,,,,,,,,,,5,8,58,0,,,,,,,AMSA12.jpg,AMSA01.jpg,AMNE16.jpg,AMNE09.jpg,AMSA12.jpg,MS,2,num_8,48,None,,,,2017_Apr_25_1956,60.0060240639,MAFE4ImagesEEG,001,100263,
AFNE01.JPG,AFNE01.JPG,AFNE01.JPG,AFNE01.JPG,AFNE01.JPG,AFNE01.JPG,,,,,,,,,,,,,,,,,5,9,59,5,,,,,,,AMSA13.jpg,AMNE13.jpg,AMNE11.jpg,AMSA19.jpg,AMNE11.jpg,MN,1,num_2,32,num_8,1.00013695552,,,2017_Apr_25_1956,60.0060240639,MAFE4ImagesEEG,001,100263,
,,,,,,,,,,,,,,,,,,,,,,,,,,,,,,,,,,,,,,,,,,,space,5.18311090616,2017_Apr_25_1956,60.0060240639,MAFE4ImagesEEG,001,100263,
AFNE01.JPG,AFNE01.JPG,AFNE01.JPG,AFNE01.JPG,AFNE01.JPG,AFNE01.JPG,,,,,,,,,,,,,,,,,,,,,0,0,0,0,,,AFNE04.jpg,AFSA10.jpg,AFNE07.jpg,AFSA06.jpg,AFSA10.jpg,FS,4,num_6,32,num_4,0.966608495335,,,2017_Apr_25_1956,60.0060240639,MAFE4ImagesEEG,001,100263,
AFNE01.JPG,AFNE01.JPG,AFNE01.JPG,AFNE01.JPG,AFNE01.JPG,AFNE01.JPG,,,,,,,,,,,,,,,,,,,,,0,1,1,8,,,AFNE17.jpg,AFSA09.jpg,AFSA03.jpg,AFNE19.jpg,AFSA09.jpg,FS,4,num_6,16,num_6,0.583459357149,,,2017_Apr_25_1956,60.0060240639,MAFE4ImagesEEG,001,100263,
AFNE01.JPG,AFNE01.JPG,AFNE01.JPG,AFNE01.JPG,AFNE01.JPG,AFNE01.JPG,,,,,,,,,,,,,,,,,,,,,0,2,2,7,,,AFSA08.jpg,AFNE05.jpg,AFSA16.jpg,AFNE02.jpg,AFSA08.jpg,FS,4,num_8,32,num_6,1.25010271673,,,2017_Apr_25_1956,60.0060240639,MAFE4ImagesEEG,001,100263,
AFNE01.JPG,AFNE01.JPG,AFNE01.JPG,AFNE01.JPG,AFNE01.JPG,AFNE01.JPG,,,,,,,,,,,,,,,,,,,,,0,3,3,9,,,AFNE07.jpg,AFSA19.jpg,AFSA03.jpg,AFNE02.jpg,AFNE07.jpg,FN,3,num_8,16,num_8,0.533495263779,,,2017_Apr_25_1956,60.0060240639,MAFE4ImagesEEG,001,100263,
AFNE01.JPG,AFNE01.JPG,AFNE01.JPG,AFNE01.JPG,AFNE01.JPG,AFNE01.JPG,,,,,,,,,,,,,,,,,,,,,0,4,4,2,,,AFNE11.jpg,AFSA09.jpg,AFNE08.jpg,AFSA14.jpg,AFSA14.jpg,FS,4,num_4,16,num_4,1.93336773792,,,2017_Apr_25_1956,60.0060240639,MAFE4ImagesEEG,001,100263,
AFNE01.JPG,AFNE01.JPG,AFNE01.JPG,AFNE01.JPG,AFNE01.JPG,AFNE01.JPG,,,,,,,,,,,,,,,,,,,,,0,5,5,3,,,AFNE01.jpg,AFNE06.jpg,AFSA07.jpg,AFSA19.jpg,AFNE01.jpg,FN,3,num_8,48,None,,,,2017_Apr_25_1956,60.0060240639,MAFE4ImagesEEG,001,100263,
AFNE01.JPG,AFNE01.JPG,AFNE01.JPG,AFNE01.JPG,AFNE01.JPG,AFNE01.JPG,,,,,,,,,,,,,,,,,,,,,0,6,6,5,,,AFNE20.jpg,AFSA13.jpg,AFNE07.jpg,AFSA03.jpg,AFSA03.jpg,FS,4,num_4,16,num_4,3.06659986742,,,2017_Apr_25_1956,60.0060240639,MAFE4ImagesEEG,001,100263,
AFNE01.JPG,AFNE01.JPG,AFNE01.JPG,AFNE01.JPG,AFNE01.JPG,AFNE01.JPG,,,,,,,,,,,,,,,,,,,,,0,7,7,4,,,AFSA13.jpg,AFNE02.jpg,AFSA20.jpg,AFNE19.jpg,AFNE02.jpg,FN,3,num_6,16,num_6,0.700122746755,,,2017_Apr_25_1956,60.0060240639,MAFE4ImagesEEG,001,100263,
AFNE01.JPG,AFNE01.JPG,AFNE01.JPG,AFNE01.JPG,AFNE01.JPG,AFNE01.JPG,,,,,,,,,,,,,,,,,,,,,0,8,8,1,,,AFNE13.jpg,AFNE07.jpg,AFSA03.jpg,AFSA17.jpg,AFNE13.jpg,FN,3,num_8,32,num_2,1.06675767095,,,2017_Apr_25_1956,60.0060240639,MAFE4ImagesEEG,001,100263,
AFNE01.JPG,AFNE01.JPG,AFNE01.JPG,AFNE01.JPG,AFNE01.JPG,AFNE01.JPG,,,,,,,,,,,,,,,,,,,,,0,9,9,6,,,AFNE18.jpg,AFNE07.jpg,AFSA07.jpg,AFSA08.jpg,AFNE07.jpg,FN,3,num_6,48,None,,,,2017_Apr_25_1956,60.0060240639,MAFE4ImagesEEG,001,100263,
AFNE01.JPG,AFNE01.JPG,AFNE01.JPG,AFNE01.JPG,AFNE01.JPG,AFNE01.JPG,,,,,,,,,,,,,,,,,,,,,1,0,10,5,,,AFNE14.jpg,AFSA15.jpg,AFNE01.jpg,AFSA17.jpg,AFNE01.jpg,FN,3,num_2,48,None,,,,2017_Apr_25_1956,60.0060240639,MAFE4ImagesEEG,001,100263,
AFNE01.JPG,AFNE01.JPG,AFNE01.JPG,AFNE01.JPG,AFNE01.JPG,AFNE01.JPG,,,,,,,,,,,,,,,,,,,,,1,1,11,1,,,AFNE12.jpg,AFNE15.jpg,AFSA20.jpg,AFSA08.jpg,AFNE12.jpg,FN,3,num_8,48,None,,,,2017_Apr_25_1956,60.0060240639,MAFE4ImagesEEG,001,100263,
AFNE01.JPG,AFNE01.JPG,AFNE01.JPG,AFNE01.JPG,AFNE01.JPG,AFNE01.JPG,,,,,,,,,,,,,,,,,,,,,1,2,12,3,,,AFNE11.jpg,AFSA10.jpg,AFNE09.jpg,AFSA20.jpg,AFSA20.jpg,FS,4,num_4,16,num_4,1.06676504796,,,2017_Apr_25_1956,60.0060240639,MAFE4ImagesEEG,001,100263,
AFNE01.JPG,AFNE01.JPG,AFNE01.JPG,AFNE01.JPG,AFNE01.JPG,AFNE01.JPG,,,,,,,,,,,,,,,,,,,,,1,3,13,8,,,AFSA19.jpg,AFNE08.jpg,AFNE12.jpg,AFSA11.jpg,AFSA19.jpg,FS,4,num_8,48,None,,,,2017_Apr_25_1956,60.0060240639,MAFE4ImagesEEG,001,100263,
AFNE01.JPG,AFNE01.JPG,AFNE01.JPG,AFNE01.JPG,AFNE01.JPG,AFNE01.JPG,,,,,,,,,,,,,,,,,,,,,1,4,14,7,,,AFSA15.jpg,AFNE19.jpg,AFSA16.jpg,AFNE03.jpg,AFNE19.jpg,FN,3,num_6,48,None,,,,2017_Apr_25_1956,60.0060240639,MAFE4ImagesEEG,001,100263,
AFNE01.JPG,AFNE01.JPG,AFNE01.JPG,AFNE01.JPG,AFNE01.JPG,AFNE01.JPG,,,,,,,,,,,,,,,,,,,,,1,5,15,9,,,AFNE02.jpg,AFSA16.jpg,AFSA17.jpg,AFNE09.jpg,AFSA16.jpg,FS,4,num_6,32,num_4,4.21655340842,,,2017_Apr_25_1956,60.0060240639,MAFE4ImagesEEG,001,100263,
AFNE01.JPG,AFNE01.JPG,AFNE01.JPG,AFNE01.JPG,AFNE01.JPG,AFNE01.JPG,,,,,,,,,,,,,,,,,,,,,1,6,16,2,,,AFNE08.jpg,AFSA17.jpg,AFNE06.jpg,AFSA10.jpg,AFNE06.jpg,FN,3,num_2,48,None,,,,2017_Apr_25_1956,60.0060240639,MAFE4ImagesEEG,001,100263,
AFNE01.JPG,AFNE01.JPG,AFNE01.JPG,AFNE01.JPG,AFNE01.JPG,AFNE01.JPG,,,,,,,,,,,,,,,,,,,,,1,7,17,4,,,AFSA10.jpg,AFNE05.jpg,AFSA04.jpg,AFNE13.jpg,AFSA04.jpg,FS,4,num_2,16,num_2,3.16658514552,,,2017_Apr_25_1956,60.0060240639,MAFE4ImagesEEG,001,100263,
AFNE01.JPG,AFNE01.JPG,AFNE01.JPG,AFNE01.JPG,AFNE01.JPG,AFNE01.JPG,,,,,,,,,,,,,,,,,,,,,1,8,18,0,,,AFNE19.jpg,AFSA06.jpg,AFSA17.jpg,AFNE11.jpg,AFNE11.jpg,FN,3,num_4,16,num_4,3.63328360801,,,2017_Apr_25_1956,60.0060240639,MAFE4ImagesEEG,001,100263,
AFNE01.JPG,AFNE01.JPG,AFNE01.JPG,AFNE01.JPG,AFNE01.JPG,AFNE01.JPG,,,,,,,,,,,,,,,,,,,,,1,9,19,6,,,AFNE11.jpg,AFNE06.jpg,AFSA06.jpg,AFSA12.jpg,AFNE11.jpg,FN,3,num_8,16,num_8,0.649808085756,,,2017_Apr_25_1956,60.0060240639,MAFE4ImagesEEG,001,100263,
AFNE01.JPG,AFNE01.JPG,AFNE01.JPG,AFNE01.JPG,AFNE01.JPG,AFNE01.JPG,,,,,,,,,,,,,,,,,,,,,2,0,20,6,,,AFSA17.jpg,AFNE16.jpg,AFSA16.jpg,AFNE09.jpg,AFNE09.jpg,FN,3,num_4,32,num_2,1.38346185884,,,2017_Apr_25_1956,60.0060240639,MAFE4ImagesEEG,001,100263,
AFNE01.JPG,AFNE01.JPG,AFNE01.JPG,AFNE01.JPG,AFNE01.JPG,AFNE01.JPG,,,,,,,,,,,,,,,,,,,,,2,1,21,1,,,AFNE15.jpg,AFSA20.jpg,AFNE13.jpg,AFSA03.jpg,AFSA20.jpg,FS,4,num_6,48,None,,,,2017_Apr_25_1956,60.0060240639,MAFE4ImagesEEG,001,100263,
AFNE01.JPG,AFNE01.JPG,AFNE01.JPG,AFNE01.JPG,AFNE01.JPG,AFNE01.JPG,,,,,,,,,,,,,,,,,,,,,2,2,22,3,,,AFSA13.jpg,AFSA08.jpg,AFNE03.jpg,AFNE08.jpg,AFSA13.jpg,FS,4,num_8,48,None,,,,2017_Apr_25_1956,60.0060240639,MAFE4ImagesEEG,001,100263,
AFNE01.JPG,AFNE01.JPG,AFNE01.JPG,AFNE01.JPG,AFNE01.JPG,AFNE01.JPG,,,,,,,,,,,,,,,,,,,,,2,3,23,8,,,AFNE07.jpg,AFSA08.jpg,AFSA14.jpg,AFNE12.jpg,AFNE12.jpg,FN,3,num_4,48,None,,,,2017_Apr_25_1956,60.0060240639,MAFE4ImagesEEG,001,100263,
AFNE01.JPG,AFNE01.JPG,AFNE01.JPG,AFNE01.JPG,AFNE01.JPG,AFNE01.JPG,,,,,,,,,,,,,,,,,,,,,2,4,24,5,,,AFNE07.jpg,AFSA11.jpg,AFSA19.jpg,AFNE12.jpg,AFSA11.jpg,FS,4,num_6,48,None,,,,2017_Apr_25_1956,60.0060240639,MAFE4ImagesEEG,001,100263,
AFNE01.JPG,AFNE01.JPG,AFNE01.JPG,AFNE01.JPG,AFNE01.JPG,AFNE01.JPG,,,,,,,,,,,,,,,,,,,,,2,5,25,2,,,AFSA12.jpg,AFNE08.jpg,AFNE04.jpg,AFSA05.jpg,AFNE08.jpg,FN,3,num_6,48,None,,,,2017_Apr_25_1956,60.0060240639,MAFE4ImagesEEG,001,100263,
AFNE01.JPG,AFNE01.JPG,AFNE01.JPG,AFNE01.JPG,AFNE01.JPG,AFNE01.JPG,,,,,,,,,,,,,,,,,,,,,2,6,26,7,,,AFNE06.jpg,AFSA09.jpg,AFSA19.jpg,AFNE05.jpg,AFSA09.jpg,FS,4,num_6,48,None,,,,2017_Apr_25_1956,60.0060240639,MAFE4ImagesEEG,001,100263,
AFNE01.JPG,AFNE01.JPG,AFNE01.JPG,AFNE01.JPG,AFNE01.JPG,AFNE01.JPG,,,,,,,,,,,,,,,,,,,,,2,7,27,0,,,AFNE06.jpg,AFNE14.jpg,AFSA01.jpg,AFSA17.jpg,AFSA01.jpg,FS,4,num_2,48,None,,,,2017_Apr_25_1956,60.0060240639,MAFE4ImagesEEG,001,100263,
AFNE01.JPG,AFNE01.JPG,AFNE01.JPG,AFNE01.JPG,AFNE01.JPG,AFNE01.JPG,,,,,,,,,,,,,,,,,,,,,2,8,28,9,,,AFSA12.jpg,AFNE06.jpg,AFNE03.jpg,AFSA13.jpg,AFNE03.jpg,FN,3,num_2,32,num_8,0.516792134498,,,2017_Apr_25_1956,60.0060240639,MAFE4ImagesEEG,001,100263,
AFNE01.JPG,AFNE01.JPG,AFNE01.JPG,AFNE01.JPG,AFNE01.JPG,AFNE01.JPG,,,,,,,,,,,,,,,,,,,,,2,9,29,4,,,AFSA13.jpg,AFNE01.jpg,AFNE15.jpg,AFSA11.jpg,AFSA11.jpg,FS,4,num_4,48,None,,,,2017_Apr_25_1956,60.0060240639,MAFE4ImagesEEG,001,100263,
AFNE01.JPG,AFNE01.JPG,AFNE01.JPG,AFNE01.JPG,AFNE01.JPG,AFNE01.JPG,,,,,,,,,,,,,,,,,,,,,3,0,30,8,,,AFNE05.jpg,AFSA02.jpg,AFSA05.jpg,AFNE20.jpg,AFNE05.jpg,FN,3,num_8,32,num_2,3.76650900196,,,2017_Apr_25_1956,60.0060240639,MAFE4ImagesEEG,001,100263,
AFNE01.JPG,AFNE01.JPG,AFNE01.JPG,AFNE01.JPG,AFNE01.JPG,AFNE01.JPG,,,,,,,,,,,,,,,,,,,,,3,1,31,9,,,AFNE08.jpg,AFSA05.jpg,AFNE10.jpg,AFSA14.jpg,AFSA05.jpg,FS,4,num_6,32,num_4,0.683414164931,,,2017_Apr_25_1956,60.0060240639,MAFE4ImagesEEG,001,100263,
AFNE01.JPG,AFNE01.JPG,AFNE01.JPG,AFNE01.JPG,AFNE01.JPG,AFNE01.JPG,,,,,,,,,,,,,,,,,,,,,3,2,32,3,,,AFSA05.jpg,AFSA17.jpg,AFNE19.jpg,AFNE08.jpg,AFNE08.jpg,FN,3,num_4,32,num_2,1.00012957864,,,2017_Apr_25_1956,60.0060240639,MAFE4ImagesEEG,001,100263,
AFNE01.JPG,AFNE01.JPG,AFNE01.JPG,AFNE01.JPG,AFNE01.JPG,AFNE01.JPG,,,,,,,,,,,,,,,,,,,,,3,3,33,1,,,AFNE16.jpg,AFNE18.jpg,AFSA11.jpg,AFSA09.jpg,AFSA11.jpg,FS,4,num_2,32,num_4,1.15014085267,,,2017_Apr_25_1956,60.0060240639,MAFE4ImagesEEG,001,100263,
AFNE01.JPG,AFNE01.JPG,AFNE01.JPG,AFNE01.JPG,AFNE01.JPG,AFNE01.JPG,,,,,,,,,,,,,,,,,,,,,3,4,34,6,,,AFSA18.jpg,AFNE19.jpg,AFSA04.jpg,AFNE20.jpg,AFNE20.jpg,FN,3,num_4,32,num_8,0.849886731012,,,2017_Apr_25_1956,60.0060240639,MAFE4ImagesEEG,001,100263,
AFNE01.JPG,AFNE01.JPG,AFNE01.JPG,AFNE01.JPG,AFNE01.JPG,AFNE01.JPG,,,,,,,,,,,,,,,,,,,,,3,5,35,2,,,AFSA03.jpg,AFSA11.jpg,AFNE19.jpg,AFNE04.jpg,AFNE19.jpg,FN,3,num_2,16,num_2,1.20006645715,,,2017_Apr_25_1956,60.0060240639,MAFE4ImagesEEG,001,100263,
AFNE01.JPG,AFNE01.JPG,AFNE01.JPG,AFNE01.JPG,AFNE01.JPG,AFNE01.JPG,,,,,,,,,,,,,,,,,,,,,3,6,36,7,,,AFNE06.jpg,AFSA06.jpg,AFNE07.jpg,AFSA11.jpg,AFNE06.jpg,FN,3,num_8,32,num_6,0.833471304621,,,2017_Apr_25_1956,60.0060240639,MAFE4ImagesEEG,001,100263,
AFNE01.JPG,AFNE01.JPG,AFNE01.JPG,AFNE01.JPG,AFNE01.JPG,AFNE01.JPG,,,,,,,,,,,,,,,,,,,,,3,7,37,5,,,AFSA14.jpg,AFNE02.jpg,AFNE09.jpg,AFSA03.jpg,AFSA03.jpg,FS,4,num_4,32,num_2,0.30016720132,,,2017_Apr_25_1956,60.0060240639,MAFE4ImagesEEG,001,100263,
AFNE01.JPG,AFNE01.JPG,AFNE01.JPG,AFNE01.JPG,AFNE01.JPG,AFNE01.JPG,,,,,,,,,,,,,,,,,,,,,3,8,38,0,,,AFNE05.jpg,AFSA20.jpg,AFNE01.jpg,AFSA11.jpg,AFSA11.jpg,FS,4,num_4,48,None,,,,2017_Apr_25_1956,60.0060240639,MAFE4ImagesEEG,001,100263,
AFNE01.JPG,AFNE01.JPG,AFNE01.JPG,AFNE01.JPG,AFNE01.JPG,AFNE01.JPG,,,,,,,,,,,,,,,,,,,,,3,9,39,4,,,AFNE17.jpg,AFSA02.jpg,AFSA14.jpg,AFNE14.jpg,AFNE17.jpg,FN,3,num_8,32,num_4,4.08321607648,,,2017_Apr_25_1956,60.0060240639,MAFE4ImagesEEG,001,100263,
AFNE01.JPG,AFNE01.JPG,AFNE01.JPG,AFNE01.JPG,AFNE01.JPG,AFNE01.JPG,,,,,,,,,,,,,,,,,,,,,4,0,40,8,,,AFNE15.jpg,AFSA03.jpg,AFSA13.jpg,AFNE05.jpg,AFSA03.jpg,FS,4,num_6,32,num_2,2.00007441151,,,2017_Apr_25_1956,60.0060240639,MAFE4ImagesEEG,001,100263,
AFNE01.JPG,AFNE01.JPG,AFNE01.JPG,AFNE01.JPG,AFNE01.JPG,AFNE01.JPG,,,,,,,,,,,,,,,,,,,,,4,1,41,1,,,AFSA06.jpg,AFSA01.jpg,AFNE19.jpg,AFNE01.jpg,AFNE01.jpg,FN,3,num_4,48,None,,,,2017_Apr_25_1956,60.0060240639,MAFE4ImagesEEG,001,100263,
