IPosition2,IPosition3,IPosition1,IPosition6,IPosition4,IPosition5,TrialsF1.thisRepN,TrialsF1.thisTrialN,TrialsF1.thisN,TrialsF1.thisIndex,TrialsM1.thisRepN,TrialsM1.thisTrialN,TrialsM1.thisN,TrialsM1.thisIndex,TrialsF2.thisRepN,TrialsF2.thisTrialN,TrialsF2.thisN,TrialsF2.thisIndex,TrialsM2.thisRepN,TrialsM2.thisTrialN,TrialsM2.thisN,TrialsM2.thisIndex,TrialsF3.thisRepN,TrialsF3.thisTrialN,TrialsF3.thisN,TrialsF3.thisIndex,TrialsM3.thisRepN,TrialsM3.thisTrialN,TrialsM3.thisN,TrialsM3.thisIndex,InstrKey_resp.keys,InstrKey_resp.rt,Image0 _Position,Image1 _Position,Image2 _Position,Image3 _Position,Center_image,condition,code,correct_answer,accuracy,Key_Resp.keys,Key_Resp.rt,BreakKey_resp.keys,BreakKey_resp.rt,date,frameRate,expName,session,participant,
,,,,,,,,,,,,,,,,,,,,,,,,,,,,,,space,11.7160930824,,,,,,,,,,,,,,2017_Apr_11_1702,60.0194238588,FEMA4ImagesEEG,001,100200,
AFNE23.JPG,AFNE24.JPG,AFNE22.JPG,AFSA24.JPG,AFSA22.JPG,AFSA23.JPG,0,0,0,8,,,,,,,,,,,,,,,,,,,,,,,AFNE18.jpg,AFNE10.jpg,AFSA20.jpg,AFSA10.jpg,AFNE10.jpg,FN,3,num_6,32,num_2,1.63347342145,,,2017_Apr_11_1702,60.0194238588,FEMA4ImagesEEG,001,100200,
AMSA25.JPG,AMNE24.JPG,AMSA24.JPG,AMNE26.JPG,AMSA21.JPG,AMNE25.JPG,0,1,1,3,,,,,,,,,,,,,,,,,,,,,,,AFSA06.jpg,AFSA16.jpg,AFNE03.jpg,AFNE08.jpg,AFSA16.jpg,FS,4,num_6,32,num_8,1.23342569545,,,2017_Apr_11_1702,60.0194238588,FEMA4ImagesEEG,001,100200,
AFSA21.JPG,AFNE22.JPG,AFNE21.JPG,AFSA23.JPG,AFSA22.JPG,AFNE23.JPG,0,2,2,0,,,,,,,,,,,,,,,,,,,,,,,AFNE02.jpg,AFSA06.jpg,AFSA20.jpg,AFNE16.jpg,AFSA06.jpg,FS,4,num_6,16,num_6,1.3000805378,,,2017_Apr_11_1702,60.0194238588,FEMA4ImagesEEG,001,100200,
AFSA25.JPG,AFNE24.JPG,AFSA24.JPG,AFNE21.JPG,AFSA21.JPG,AFNE25.JPG,0,3,3,2,,,,,,,,,,,,,,,,,,,,,,,AFSA02.jpg,AFNE13.jpg,AFNE11.jpg,AFSA10.jpg,AFNE13.jpg,FN,3,num_6,32,num_8,1.21672253404,,,2017_Apr_11_1702,60.0194238588,FEMA4ImagesEEG,001,100200,
AMSA21.JPG,AMNE22.JPG,AMNE21.JPG,AMSA23.JPG,AMSA22.JPG,AMNE23.JPG,0,4,4,1,,,,,,,,,,,,,,,,,,,,,,,AFNE18.jpg,AFSA09.jpg,AFNE05.jpg,AFSA15.jpg,AFNE18.jpg,FN,3,num_8,16,num_8,1.00009622192,,,2017_Apr_11_1702,60.0194238588,FEMA4ImagesEEG,001,100200,
AMSA21.JPG,AMNE23.JPG,AMNE21.JPG,AMSA25.JPG,AMNE25.JPG,AMSA23.JPG,0,5,5,5,,,,,,,,,,,,,,,,,,,,,,,AFNE15.jpg,AFNE08.jpg,AFSA04.jpg,AFSA01.jpg,AFSA01.jpg,FS,4,num_4,16,num_4,0.833512038924,,,2017_Apr_11_1702,60.0194238588,FEMA4ImagesEEG,001,100200,
AFNE22.JPG,AFSA24.JPG,AFSA22.JPG,AFNE25.JPG,AFNE24.JPG,AFSA25.JPG,0,6,6,6,,,,,,,,,,,,,,,,,,,,,,,AFNE06.jpg,AFSA03.jpg,AFSA14.jpg,AFNE07.jpg,AFNE07.jpg,FN,3,num_4,16,num_4,0.900075149722,,,2017_Apr_11_1702,60.0194238588,FEMA4ImagesEEG,001,100200,
AMNE23.JPG,AMNE24.JPG,AMNE22.JPG,AMSA24.JPG,AMSA22.JPG,AMSA23.JPG,0,7,7,9,,,,,,,,,,,,,,,,,,,,,,,AFNE15.jpg,AFSA19.jpg,AFNE08.jpg,AFSA20.jpg,AFNE15.jpg,FN,3,num_8,16,num_8,1.13314386178,,,2017_Apr_11_1702,60.0194238588,FEMA4ImagesEEG,001,100200,
AMNE22.JPG,AMSA24.JPG,AMSA22.JPG,AMNE25.JPG,AMNE24.JPG,AMSA25.JPG,0,8,8,7,,,,,,,,,,,,,,,,,,,,,,,AFSA11.jpg,AFSA18.jpg,AFNE03.jpg,AFNE16.jpg,AFSA18.jpg,FS,4,num_6,16,num_6,1.16675930656,,,2017_Apr_11_1702,60.0194238588,FEMA4ImagesEEG,001,100200,
AFSA21.JPG,AFNE23.JPG,AFNE21.JPG,AFSA25.JPG,AFNE25.JPG,AFSA23.JPG,0,9,9,4,,,,,,,,,,,,,,,,,,,,,,,AFSA19.jpg,AFNE04.jpg,AFSA18.jpg,AFNE20.jpg,AFSA18.jpg,FS,4,num_2,16,num_2,1.03346437681,,,2017_Apr_11_1702,60.0194238588,FEMA4ImagesEEG,001,100200,
AMNE23.JPG,AMNE24.JPG,AMNE22.JPG,AMSA24.JPG,AMSA22.JPG,AMSA23.JPG,,,,,0,0,0,9,,,,,,,,,,,,,,,,,,,AMSA11.jpg,AMNE12.jpg,AMNE01.jpg,AMSA05.jpg,AMNE01.jpg,MN,1,num_2,16,num_2,1.08340611449,,,2017_Apr_11_1702,60.0194238588,FEMA4ImagesEEG,001,100200,
AMNE22.JPG,AMSA24.JPG,AMSA22.JPG,AMNE25.JPG,AMNE24.JPG,AMSA25.JPG,,,,,0,1,1,7,,,,,,,,,,,,,,,,,,,AMNE03.jpg,AMSA15.jpg,AMSA18.jpg,AMNE02.jpg,AMNE02.jpg,MN,1,num_4,16,num_4,1.46671700152,,,2017_Apr_11_1702,60.0194238588,FEMA4ImagesEEG,001,100200,
AMSA21.JPG,AMNE23.JPG,AMNE21.JPG,AMSA25.JPG,AMNE25.JPG,AMSA23.JPG,,,,,0,2,2,5,,,,,,,,,,,,,,,,,,,AMSA15.jpg,AMSA12.jpg,AMNE06.jpg,AMNE04.jpg,AMSA15.jpg,MS,2,num_8,32,num_2,1.18343616789,,,2017_Apr_11_1702,60.0194238588,FEMA4ImagesEEG,001,100200,
AMSA21.JPG,AMNE22.JPG,AMNE21.JPG,AMSA23.JPG,AMSA22.JPG,AMNE23.JPG,,,,,0,3,3,1,,,,,,,,,,,,,,,,,,,AMNE06.jpg,AMSA12.jpg,AMSA19.jpg,AMNE16.jpg,AMNE06.jpg,MN,1,num_8,32,num_4,1.11676015705,,,2017_Apr_11_1702,60.0194238588,FEMA4ImagesEEG,001,100200,
AFNE23.JPG,AFNE24.JPG,AFNE22.JPG,AFSA24.JPG,AFSA22.JPG,AFSA23.JPG,,,,,0,4,4,8,,,,,,,,,,,,,,,,,,,AMSA05.jpg,AMNE02.jpg,AMNE01.jpg,AMSA20.jpg,AMNE02.jpg,MN,1,num_6,32,num_2,1.383393317,,,2017_Apr_11_1702,60.0194238588,FEMA4ImagesEEG,001,100200,
AFSA21.JPG,AFNE23.JPG,AFNE21.JPG,AFSA25.JPG,AFNE25.JPG,AFSA23.JPG,,,,,0,5,5,4,,,,,,,,,,,,,,,,,,,AMSA01.jpg,AMNE04.jpg,AMNE09.jpg,AMSA02.jpg,AMSA02.jpg,MS,2,num_4,32,num_8,1.48340508854,,,2017_Apr_11_1702,60.0194238588,FEMA4ImagesEEG,001,100200,
AFSA25.JPG,AFNE24.JPG,AFSA24.JPG,AFNE21.JPG,AFSA21.JPG,AFNE25.JPG,,,,,0,6,6,2,,,,,,,,,,,,,,,,,,,AMNE01.jpg,AMSA08.jpg,AMSA07.jpg,AMNE12.jpg,AMNE01.jpg,MN,1,num_8,16,num_8,1.04999465961,,,2017_Apr_11_1702,60.0194238588,FEMA4ImagesEEG,001,100200,
AMSA25.JPG,AMNE24.JPG,AMSA24.JPG,AMNE26.JPG,AMSA21.JPG,AMNE25.JPG,,,,,0,7,7,3,,,,,,,,,,,,,,,,,,,AMSA01.jpg,AMNE14.jpg,AMSA08.jpg,AMNE18.jpg,AMNE14.jpg,MN,1,num_6,16,num_6,0.833446928766,,,2017_Apr_11_1702,60.0194238588,FEMA4ImagesEEG,001,100200,
AFNE22.JPG,AFSA24.JPG,AFSA22.JPG,AFNE25.JPG,AFNE24.JPG,AFSA25.JPG,,,,,0,8,8,6,,,,,,,,,,,,,,,,,,,AMNE13.jpg,AMSA11.jpg,AMSA04.jpg,AMNE01.jpg,AMSA04.jpg,MS,2,num_2,16,num_2,1.00014914386,,,2017_Apr_11_1702,60.0194238588,FEMA4ImagesEEG,001,100200,
AFSA21.JPG,AFNE22.JPG,AFNE21.JPG,AFSA23.JPG,AFSA22.JPG,AFNE23.JPG,,,,,0,9,9,0,,,,,,,,,,,,,,,,,,,AMSA06.jpg,AMSA09.jpg,AMNE08.jpg,AMNE03.jpg,AMSA09.jpg,MS,2,num_6,32,num_2,1.83343409933,,,2017_Apr_11_1702,60.0194238588,FEMA4ImagesEEG,001,100200,
AMNE23.JPG,AMNE24.JPG,AMNE22.JPG,AMSA24.JPG,AMSA22.JPG,AMSA23.JPG,,,,,,,,,0,0,0,9,,,,,,,,,,,,,,,AFSA11.jpg,AFNE12.jpg,AFNE15.jpg,AFSA08.jpg,AFNE12.jpg,FN,3,num_6,16,num_6,0.883476228453,,,2017_Apr_11_1702,60.0194238588,FEMA4ImagesEEG,001,100200,
AFNE22.JPG,AFSA24.JPG,AFSA22.JPG,AFNE25.JPG,AFNE24.JPG,AFSA25.JPG,,,,,,,,,0,1,1,6,,,,,,,,,,,,,,,AFSA11.jpg,AFSA02.jpg,AFNE08.jpg,AFNE14.jpg,AFNE08.jpg,FN,3,num_2,16,num_2,1.03345828271,,,2017_Apr_11_1702,60.0194238588,FEMA4ImagesEEG,001,100200,
AMSA21.JPG,AMNE22.JPG,AMNE21.JPG,AMSA23.JPG,AMSA22.JPG,AMNE23.JPG,,,,,,,,,0,2,2,1,,,,,,,,,,,,,,,AFSA15.jpg,AFSA06.jpg,AFNE14.jpg,AFNE13.jpg,AFNE13.jpg,FN,3,num_4,32,num_6,1.35015794821,,,2017_Apr_11_1702,60.0194238588,FEMA4ImagesEEG,001,100200,
AMNE22.JPG,AMSA24.JPG,AMSA22.JPG,AMNE25.JPG,AMNE24.JPG,AMSA25.JPG,,,,,,,,,0,3,3,7,,,,,,,,,,,,,,,AFSA15.jpg,AFNE05.jpg,AFNE03.jpg,AFSA07.jpg,AFNE05.jpg,FN,3,num_6,16,num_6,0.850157467183,,,2017_Apr_11_1702,60.0194238588,FEMA4ImagesEEG,001,100200,
AFSA25.JPG,AFNE24.JPG,AFSA24.JPG,AFNE21.JPG,AFSA21.JPG,AFNE25.JPG,,,,,,,,,0,4,4,2,,,,,,,,,,,,,,,AFNE16.jpg,AFSA16.jpg,AFSA15.jpg,AFNE08.jpg,AFSA16.jpg,FS,4,num_6,16,num_6,0.783430138137,,,2017_Apr_11_1702,60.0194238588,FEMA4ImagesEEG,001,100200,
AMSA21.JPG,AMNE23.JPG,AMNE21.JPG,AMSA25.JPG,AMNE25.JPG,AMSA23.JPG,,,,,,,,,0,5,5,5,,,,,,,,,,,,,,,AFNE11.jpg,AFSA08.jpg,AFNE19.jpg,AFSA10.jpg,AFSA08.jpg,FS,4,num_6,16,num_6,1.80008262256,,,2017_Apr_11_1702,60.0194238588,FEMA4ImagesEEG,001,100200,
AFSA21.JPG,AFNE22.JPG,AFNE21.JPG,AFSA23.JPG,AFSA22.JPG,AFNE23.JPG,,,,,,,,,0,6,6,0,,,,,,,,,,,,,,,AFSA19.jpg,AFSA05.jpg,AFNE01.jpg,AFNE17.jpg,AFSA05.jpg,FS,4,num_6,16,num_6,0.666831634007,,,2017_Apr_11_1702,60.0194238588,FEMA4ImagesEEG,001,100200,
AFSA21.JPG,AFNE23.JPG,AFNE21.JPG,AFSA25.JPG,AFNE25.JPG,AFSA23.JPG,,,,,,,,,0,7,7,4,,,,,,,,,,,,,,,AFSA13.jpg,AFNE14.jpg,AFNE13.jpg,AFSA07.jpg,AFSA13.jpg,FS,4,num_8,32,num_2,1.13344728155,,,2017_Apr_11_1702,60.0194238588,FEMA4ImagesEEG,001,100200,
AFNE23.JPG,AFNE24.JPG,AFNE22.JPG,AFSA24.JPG,AFSA22.JPG,AFSA23.JPG,,,,,,,,,0,8,8,8,,,,,,,,,,,,,,,AFNE02.jpg,AFSA02.jpg,AFSA17.jpg,AFNE05.jpg,AFNE05.jpg,FN,3,num_4,32,num_2,1.2500890852,,,2017_Apr_11_1702,60.0194238588,FEMA4ImagesEEG,001,100200,
AMSA25.JPG,AMNE24.JPG,AMSA24.JPG,AMNE26.JPG,AMSA21.JPG,AMNE25.JPG,,,,,,,,,0,9,9,3,,,,,,,,,,,,,,,AFSA09.jpg,AFNE12.jpg,AFNE15.jpg,AFSA03.jpg,AFNE15.jpg,FN,3,num_2,32,num_6,1.00014176685,,,2017_Apr_11_1702,60.0194238588,FEMA4ImagesEEG,001,100200,
AMSA25.JPG,AMNE24.JPG,AMSA24.JPG,AMNE26.JPG,AMSA21.JPG,AMNE25.JPG,,,,,,,,,,,,,0,0,0,3,,,,,,,,,,,AMSA16.jpg,AMSA17.jpg,AMNE04.jpg,AMNE09.jpg,AMNE09.jpg,MN,1,num_4,16,num_4,1.11698627844,,,2017_Apr_11_1702,60.0194238588,FEMA4ImagesEEG,001,100200,
AMSA21.JPG,AMNE23.JPG,AMNE21.JPG,AMSA25.JPG,AMNE25.JPG,AMSA23.JPG,,,,,,,,,,,,,0,1,1,5,,,,,,,,,,,AMNE18.jpg,AMSA17.jpg,AMSA19.jpg,AMNE19.jpg,AMSA17.jpg,MS,2,num_6,32,num_2,1.41675152909,,,2017_Apr_11_1702,60.0194238588,FEMA4ImagesEEG,001,100200,
AMSA21.JPG,AMNE22.JPG,AMNE21.JPG,AMSA23.JPG,AMSA22.JPG,AMNE23.JPG,,,,,,,,,,,,,0,2,2,1,,,,,,,,,,,AMNE05.jpg,AMNE03.jpg,AMSA18.jpg,AMSA05.jpg,AMNE03.jpg,MN,1,num_6,16,num_6,1.18340794276,,,2017_Apr_11_1702,60.0194238588,FEMA4ImagesEEG,001,100200,
AFSA25.JPG,AFNE24.JPG,AFSA24.JPG,AFNE21.JPG,AFSA21.JPG,AFNE25.JPG,,,,,,,,,,,,,0,3,3,2,,,,,,,,,,,AMSA19.jpg,AMNE03.jpg,AMSA06.jpg,AMNE17.jpg,AMNE17.jpg,MN,1,num_4,32,num_6,3.64989657747,,,2017_Apr_11_1702,60.0194238588,FEMA4ImagesEEG,001,100200,
AFSA21.JPG,AFNE22.JPG,AFNE21.JPG,AFSA23.JPG,AFSA22.JPG,AFNE23.JPG,,,,,,,,,,,,,0,4,4,0,,,,,,,,,,,AMNE10.jpg,AMSA14.jpg,AMSA06.jpg,AMNE03.jpg,AMNE10.jpg,MN,1,num_8,16,num_8,1.0501280874,,,2017_Apr_11_1702,60.0194238588,FEMA4ImagesEEG,001,100200,
AFSA21.JPG,AFNE23.JPG,AFNE21.JPG,AFSA25.JPG,AFNE25.JPG,AFSA23.JPG,,,,,,,,,,,,,0,5,5,4,,,,,,,,,,,AMSA18.jpg,AMNE04.jpg,AMSA01.jpg,AMNE01.jpg,AMNE01.jpg,MN,1,num_4,16,num_4,0.73352368176,,,2017_Apr_11_1702,60.0194238588,FEMA4ImagesEEG,001,100200,
AFNE23.JPG,AFNE24.JPG,AFNE22.JPG,AFSA24.JPG,AFSA22.JPG,AFSA23.JPG,,,,,,,,,,,,,0,6,6,8,,,,,,,,,,,AMSA17.jpg,AMNE11.jpg,AMSA01.jpg,AMNE18.jpg,AMSA17.jpg,MS,2,num_8,16,num_8,1.21676294738,,,2017_Apr_11_1702,60.0194238588,FEMA4ImagesEEG,001,100200,
AFNE22.JPG,AFSA24.JPG,AFSA22.JPG,AFNE25.JPG,AFNE24.JPG,AFSA25.JPG,,,,,,,,,,,,,0,7,7,6,,,,,,,,,,,AMNE13.jpg,AMSA19.jpg,AMNE03.jpg,AMSA14.jpg,AMNE03.jpg,MN,1,num_2,32,num_6,0.800202258863,,,2017_Apr_11_1702,60.0194238588,FEMA4ImagesEEG,001,100200,
AMNE23.JPG,AMNE24.JPG,AMNE22.JPG,AMSA24.JPG,AMSA22.JPG,AMSA23.JPG,,,,,,,,,,,,,0,8,8,9,,,,,,,,,,,AMNE04.jpg,AMSA14.jpg,AMNE08.jpg,AMSA13.jpg,AMNE04.jpg,MN,1,num_8,16,num_8,1.06658748677,,,2017_Apr_11_1702,60.0194238588,FEMA4ImagesEEG,001,100200,
AMNE22.JPG,AMSA24.JPG,AMSA22.JPG,AMNE25.JPG,AMNE24.JPG,AMSA25.JPG,,,,,,,,,,,,,0,9,9,7,,,,,,,,,,,AMNE13.jpg,AMSA11.jpg,AMSA08.jpg,AMNE08.jpg,AMNE08.jpg,MN,1,num_4,16,num_4,0.733473004773,,,2017_Apr_11_1702,60.0194238588,FEMA4ImagesEEG,001,100200,
AFSA21.JPG,AFNE23.JPG,AFNE21.JPG,AFSA25.JPG,AFNE25.JPG,AFSA23.JPG,,,,,,,,,,,,,,,,,0,0,0,4,,,,,,,AFNE19.jpg,AFSA15.jpg,AFNE08.jpg,AFSA10.jpg,AFNE08.jpg,FN,3,num_2,32,num_6,1.43324653013,,,2017_Apr_11_1702,60.0194238588,FEMA4ImagesEEG,001,100200,
AMSA21.JPG,AMNE23.JPG,AMNE21.JPG,AMSA25.JPG,AMNE25.JPG,AMSA23.JPG,,,,,,,,,,,,,,,,,0,1,1,5,,,,,,,AFSA13.jpg,AFNE20.jpg,AFSA19.jpg,AFNE04.jpg,AFSA19.jpg,FS,4,num_2,16,num_2,1.20013515977,,,2017_Apr_11_1702,60.0194238588,FEMA4ImagesEEG,001,100200,
AFSA25.JPG,AFNE24.JPG,AFSA24.JPG,AFNE21.JPG,AFSA21.JPG,AFNE25.JPG,,,,,,,,,,,,,,,,,0,2,2,2,,,,,,,AFSA18.jpg,AFSA13.jpg,AFNE14.jpg,AFNE17.jpg,AFSA18.jpg,FS,4,num_8,16,num_8,0.81678738771,,,2017_Apr_11_1702,60.0194238588,FEMA4ImagesEEG,001,100200,
AFNE22.JPG,AFSA24.JPG,AFSA22.JPG,AFNE25.JPG,AFNE24.JPG,AFSA25.JPG,,,,,,,,,,,,,,,,,0,3,3,6,,,,,,,AFSA06.jpg,AFNE16.jpg,AFSA13.jpg,AFNE06.jpg,AFNE06.jpg,FN,3,num_4,16,num_4,0.700134999584,,,2017_Apr_11_1702,60.0194238588,FEMA4ImagesEEG,001,100200,
AMNE23.JPG,AMNE24.JPG,AMNE22.JPG,AMSA24.JPG,AMSA22.JPG,AMSA23.JPG,,,,,,,,,,,,,,,,,0,4,4,9,,,,,,,AFNE05.jpg,AFSA03.jpg,AFSA12.jpg,AFNE08.jpg,AFNE05.jpg,FN,3,num_8,32,num_6,1.01678206353,,,2017_Apr_11_1702,60.0194238588,FEMA4ImagesEEG,001,100200,
AMSA21.JPG,AMNE22.JPG,AMNE21.JPG,AMSA23.JPG,AMSA22.JPG,AMNE23.JPG,,,,,,,,,,,,,,,,,0,5,5,1,,,,,,,AFNE03.jpg,AFNE07.jpg,AFSA02.jpg,AFSA03.jpg,AFSA02.jpg,FS,4,num_2,16,num_2,0.816751144361,,,2017_Apr_11_1702,60.0194238588,FEMA4ImagesEEG,001,100200,
AMSA25.JPG,AMNE24.JPG,AMSA24.JPG,AMNE26.JPG,AMSA21.JPG,AMNE25.JPG,,,,,,,,,,,,,,,,,0,6,6,3,,,,,,,AFNE19.jpg,AFSA02.jpg,AFSA04.jpg,AFNE14.jpg,AFSA02.jpg,FS,4,num_6,32,num_2,1.33346312633,,,2017_Apr_11_1702,60.0194238588,FEMA4ImagesEEG,001,100200,
AMNE22.JPG,AMSA24.JPG,AMSA22.JPG,AMNE25.JPG,AMNE24.JPG,AMSA25.JPG,,,,,,,,,,,,,,,,,0,7,7,7,,,,,,,AFNE10.jpg,AFNE09.jpg,AFSA18.jpg,AFSA03.jpg,AFNE10.jpg,FN,3,num_8,16,num_8,0.816747616045,,,2017_Apr_11_1702,60.0194238588,FEMA4ImagesEEG,001,100200,
AFSA21.JPG,AFNE22.JPG,AFNE21.JPG,AFSA23.JPG,AFSA22.JPG,AFNE23.JPG,,,,,,,,,,,,,,,,,0,8,8,0,,,,,,,AFNE14.jpg,AFSA09.jpg,AFNE11.jpg,AFSA08.jpg,AFNE14.jpg,FN,3,num_8,16,num_8,1.0167952138,,,2017_Apr_11_1702,60.0194238588,FEMA4ImagesEEG,001,100200,
AFNE23.JPG,AFNE24.JPG,AFNE22.JPG,AFSA24.JPG,AFSA22.JPG,AFSA23.JPG,,,,,,,,,,,,,,,,,0,9,9,8,,,,,,,AFNE19.jpg,AFNE15.jpg,AFSA17.jpg,AFSA07.jpg,AFSA17.jpg,FS,4,num_2,16,num_2,1.38345906837,,,2017_Apr_11_1702,60.0194238588,FEMA4ImagesEEG,001,100200,
AMNE23.JPG,AMNE24.JPG,AMNE22.JPG,AMSA24.JPG,AMSA22.JPG,AMSA23.JPG,,,,,,,,,,,,,,,,,,,,,0,0,0,9,,,AMSA17.jpg,AMSA06.jpg,AMNE09.jpg,AMNE03.jpg,AMNE09.jpg,MN,1,num_2,16,num_2,0.683488287963,,,2017_Apr_11_1702,60.0194238588,FEMA4ImagesEEG,001,100200,
AFSA21.JPG,AFNE23.JPG,AFNE21.JPG,AFSA25.JPG,AFNE25.JPG,AFSA23.JPG,,,,,,,,,,,,,,,,,,,,,0,1,1,4,,,AMNE18.jpg,AMNE04.jpg,AMSA02.jpg,AMSA08.jpg,AMSA02.jpg,MS,2,num_2,32,num_6,1.03351248801,,,2017_Apr_11_1702,60.0194238588,FEMA4ImagesEEG,001,100200,
AFSA25.JPG,AFNE24.JPG,AFSA24.JPG,AFNE21.JPG,AFSA21.JPG,AFNE25.JPG,,,,,,,,,,,,,,,,,,,,,0,2,2,2,,,AMSA20.jpg,AMNE14.jpg,AMNE17.jpg,AMSA04.jpg,AMSA20.jpg,MS,2,num_8,32,num_2,1.38351648115,,,2017_Apr_11_1702,60.0194238588,FEMA4ImagesEEG,001,100200,
AMNE22.JPG,AMSA24.JPG,AMSA22.JPG,AMNE25.JPG,AMNE24.JPG,AMSA25.JPG,,,,,,,,,,,,,,,,,,,,,0,3,3,7,,,AMSA08.jpg,AMSA16.jpg,AMNE01.jpg,AMNE09.jpg,AMNE01.jpg,MN,1,num_2,16,num_2,1.14976202697,,,2017_Apr_11_1702,60.0194238588,FEMA4ImagesEEG,001,100200,
AFNE23.JPG,AFNE24.JPG,AFNE22.JPG,AFSA24.JPG,AFSA22.JPG,AFSA23.JPG,,,,,,,,,,,,,,,,,,,,,0,4,4,8,,,AMNE09.jpg,AMSA13.jpg,AMNE01.jpg,AMSA19.jpg,AMSA19.jpg,MS,2,num_4,16,num_4,0.883463077713,,,2017_Apr_11_1702,60.0194238588,FEMA4ImagesEEG,001,100200,
AMSA25.JPG,AMNE24.JPG,AMSA24.JPG,AMNE26.JPG,AMSA21.JPG,AMNE25.JPG,,,,,,,,,,,,,,,,,,,,,0,5,5,3,,,AMSA01.jpg,AMNE17.jpg,AMSA18.jpg,AMNE16.jpg,AMNE16.jpg,MN,1,num_4,32,num_6,1.50008675968,,,2017_Apr_11_1702,60.0194238588,FEMA4ImagesEEG,001,100200,
AFNE22.JPG,AFSA24.JPG,AFSA22.JPG,AFNE25.JPG,AFNE24.JPG,AFSA25.JPG,,,,,,,,,,,,,,,,,,,,,0,6,6,6,,,AMSA05.jpg,AMSA07.jpg,AMNE01.jpg,AMNE10.jpg,AMSA07.jpg,MS,2,num_6,16,num_6,1.9168466283,,,2017_Apr_11_1702,60.0194238588,FEMA4ImagesEEG,001,100200,
AFSA21.JPG,AFNE22.JPG,AFNE21.JPG,AFSA23.JPG,AFSA22.JPG,AFNE23.JPG,,,,,,,,,,,,,,,,,,,,,0,7,7,0,,,AMNE11.jpg,AMSA20.jpg,AMSA04.jpg,AMNE20.jpg,AMNE11.jpg,MN,1,num_8,16,num_8,0.616776995827,,,2017_Apr_11_1702,60.0194238588,FEMA4ImagesEEG,001,100200,
AMSA21.JPG,AMNE23.JPG,AMNE21.JPG,AMSA25.JPG,AMNE25.JPG,AMSA23.JPG,,,,,,,,,,,,,,,,,,,,,0,8,8,5,,,AMNE02.jpg,AMSA05.jpg,AMNE15.jpg,AMSA19.jpg,AMSA05.jpg,MS,2,num_6,16,num_6,1.13349603396,,,2017_Apr_11_1702,60.0194238588,FEMA4ImagesEEG,001,100200,
AMSA21.JPG,AMNE22.JPG,AMNE21.JPG,AMSA23.JPG,AMSA22.JPG,AMNE23.JPG,,,,,,,,,,,,,,,,,,,,,0,9,9,1,,,AMSA14.jpg,AMSA11.jpg,AMNE06.jpg,AMNE15.jpg,AMSA14.jpg,MS,2,num_8,16,num_8,0.850082093384,,,2017_Apr_11_1702,60.0194238588,FEMA4ImagesEEG,001,100200,
,,,,,,,,,,,,,,,,,,,,,,,,,,,,,,,,,,,,,,,,,,,space,4.34983175574,2017_Apr_11_1702,60.0194238588,FEMA4ImagesEEG,001,100200,
AFNE01.JPG,AFNE01.JPG,AFNE01.JPG,AFNE01.JPG,AFNE01.JPG,AFNE01.JPG,0,0,0,7,,,,,,,,,,,,,,,,,,,,,,,AFSA07.jpg,AFSA08.jpg,AFNE06.jpg,AFNE12.jpg,AFSA08.jpg,FS,4,num_6,16,num_6,0.583496723324,,,2017_Apr_11_1702,60.0194238588,FEMA4ImagesEEG,001,100200,
AFNE01.JPG,AFNE01.JPG,AFNE01.JPG,AFNE01.JPG,AFNE01.JPG,AFNE01.JPG,0,1,1,1,,,,,,,,,,,,,,,,,,,,,,,AFNE04.jpg,AFSA07.jpg,AFNE13.jpg,AFSA17.jpg,AFNE04.jpg,FN,3,num_8,16,num_8,1.05009633442,,,2017_Apr_11_1702,60.0194238588,FEMA4ImagesEEG,001,100200,
AFNE01.JPG,AFNE01.JPG,AFNE01.JPG,AFNE01.JPG,AFNE01.JPG,AFNE01.JPG,0,2,2,8,,,,,,,,,,,,,,,,,,,,,,,AFSA11.jpg,AFNE19.jpg,AFSA19.jpg,AFNE08.jpg,AFNE08.jpg,FN,3,num_4,32,num_6,1.73375204857,,,2017_Apr_11_1702,60.0194238588,FEMA4ImagesEEG,001,100200,
AFNE01.JPG,AFNE01.JPG,AFNE01.JPG,AFNE01.JPG,AFNE01.JPG,AFNE01.JPG,0,3,3,2,,,,,,,,,,,,,,,,,,,,,,,AFSA01.jpg,AFNE10.jpg,AFNE11.jpg,AFSA08.jpg,AFNE10.jpg,FN,3,num_6,16,num_6,1.21679405915,,,2017_Apr_11_1702,60.0194238588,FEMA4ImagesEEG,001,100200,
AFNE01.JPG,AFNE01.JPG,AFNE01.JPG,AFNE01.JPG,AFNE01.JPG,AFNE01.JPG,0,4,4,6,,,,,,,,,,,,,,,,,,,,,,,AFNE03.jpg,AFNE07.jpg,AFSA20.jpg,AFSA05.jpg,AFNE07.jpg,FN,3,num_6,16,num_6,0.883455379866,,,2017_Apr_11_1702,60.0194238588,FEMA4ImagesEEG,001,100200,
AFNE01.JPG,AFNE01.JPG,AFNE01.JPG,AFNE01.JPG,AFNE01.JPG,AFNE01.JPG,0,5,5,4,,,,,,,,,,,,,,,,,,,,,,,AFNE19.jpg,AFNE17.jpg,AFSA08.jpg,AFSA05.jpg,AFNE17.jpg,FN,3,num_6,32,num_2,1.46674394375,,,2017_Apr_11_1702,60.0194238588,FEMA4ImagesEEG,001,100200,
AFNE01.JPG,AFNE01.JPG,AFNE01.JPG,AFNE01.JPG,AFNE01.JPG,AFNE01.JPG,0,6,6,5,,,,,,,,,,,,,,,,,,,,,,,AFNE12.jpg,AFNE11.jpg,AFSA01.jpg,AFSA04.jpg,AFSA01.jpg,FS,4,num_2,16,num_2,1.15014274511,,,2017_Apr_11_1702,60.0194238588,FEMA4ImagesEEG,001,100200,
AFNE01.JPG,AFNE01.JPG,AFNE01.JPG,AFNE01.JPG,AFNE01.JPG,AFNE01.JPG,0,7,7,3,,,,,,,,,,,,,,,,,,,,,,,AFNE02.jpg,AFNE16.jpg,AFSA03.jpg,AFSA11.jpg,AFSA03.jpg,FS,4,num_2,32,num_8,1.71672494011,,,2017_Apr_11_1702,60.0194238588,FEMA4ImagesEEG,001,100200,
AFNE01.JPG,AFNE01.JPG,AFNE01.JPG,AFNE01.JPG,AFNE01.JPG,AFNE01.JPG,0,8,8,9,,,,,,,,,,,,,,,,,,,,,,,AFSA14.jpg,AFSA20.jpg,AFNE14.jpg,AFNE10.jpg,AFSA20.jpg,FS,4,num_6,32,num_4,1.00011835294,,,2017_Apr_11_1702,60.0194238588,FEMA4ImagesEEG,001,100200,
AFNE01.JPG,AFNE01.JPG,AFNE01.JPG,AFNE01.JPG,AFNE01.JPG,AFNE01.JPG,0,9,9,0,,,,,,,,,,,,,,,,,,,,,,,AFSA09.jpg,AFSA17.jpg,AFNE16.jpg,AFNE04.jpg,AFSA09.jpg,FS,4,num_8,32,num_6,0.983482867479,,,2017_Apr_11_1702,60.0194238588,FEMA4ImagesEEG,001,100200,
AFNE01.JPG,AFNE01.JPG,AFNE01.JPG,AFNE01.JPG,AFNE01.JPG,AFNE01.JPG,1,0,10,3,,,,,,,,,,,,,,,,,,,,,,,AFNE12.jpg,AFSA16.jpg,AFSA02.jpg,AFNE05.jpg,AFNE12.jpg,FN,3,num_8,32,num_4,1.08314022142,,,2017_Apr_11_1702,60.0194238588,FEMA4ImagesEEG,001,100200,
AFNE01.JPG,AFNE01.JPG,AFNE01.JPG,AFNE01.JPG,AFNE01.JPG,AFNE01.JPG,1,1,11,5,,,,,,,,,,,,,,,,,,,,,,,AFSA16.jpg,AFSA02.jpg,AFNE02.jpg,AFNE20.jpg,AFNE20.jpg,FN,3,num_4,32,num_2,1.633445838,,,2017_Apr_11_1702,60.0194238588,FEMA4ImagesEEG,001,100200,
AFNE01.JPG,AFNE01.JPG,AFNE01.JPG,AFNE01.JPG,AFNE01.JPG,AFNE01.JPG,1,2,12,9,,,,,,,,,,,,,,,,,,,,,,,AFSA18.jpg,AFNE01.jpg,AFNE16.jpg,AFSA06.jpg,AFSA18.jpg,FS,4,num_8,16,num_8,0.700193694793,,,2017_Apr_11_1702,60.0194238588,FEMA4ImagesEEG,001,100200,
AFNE01.JPG,AFNE01.JPG,AFNE01.JPG,AFNE01.JPG,AFNE01.JPG,AFNE01.JPG,1,3,13,4,,,,,,,,,,,,,,,,,,,,,,,AFNE06.jpg,AFSA10.jpg,AFSA05.jpg,AFNE19.jpg,AFNE06.jpg,FN,3,num_8,32,num_2,1.25045248354,,,2017_Apr_11_1702,60.0194238588,FEMA4ImagesEEG,001,100200,
AFNE01.JPG,AFNE01.JPG,AFNE01.JPG,AFNE01.JPG,AFNE01.JPG,AFNE01.JPG,1,4,14,0,,,,,,,,,,,,,,,,,,,,,,,AFNE05.jpg,AFSA05.jpg,AFSA14.jpg,AFNE19.jpg,AFNE19.jpg,FN,3,num_4,16,num_4,0.583441235591,,,2017_Apr_11_1702,60.0194238588,FEMA4ImagesEEG,001,100200,
AFNE01.JPG,AFNE01.JPG,AFNE01.JPG,AFNE01.JPG,AFNE01.JPG,AFNE01.JPG,1,5,15,2,,,,,,,,,,,,,,,,,,,,,,,AFNE20.jpg,AFNE10.jpg,AFSA19.jpg,AFSA18.jpg,AFSA19.jpg,FS,4,num_2,16,num_2,1.36675302032,,,2017_Apr_11_1702,60.0194238588,FEMA4ImagesEEG,001,100200,
AFNE01.JPG,AFNE01.JPG,AFNE01.JPG,AFNE01.JPG,AFNE01.JPG,AFNE01.JPG,1,6,16,8,,,,,,,,,,,,,,,,,,,,,,,AFNE08.jpg,AFSA04.jpg,AFSA03.jpg,AFNE09.jpg,AFNE09.jpg,FN,3,num_4,16,num_4,0.850303083193,,,2017_Apr_11_1702,60.0194238588,FEMA4ImagesEEG,001,100200,
AFNE01.JPG,AFNE01.JPG,AFNE01.JPG,AFNE01.JPG,AFNE01.JPG,AFNE01.JPG,1,7,17,1,,,,,,,,,,,,,,,,,,,,,,,AFNE08.jpg,AFNE09.jpg,AFSA03.jpg,AFSA12.jpg,AFNE09.jpg,FN,3,num_6,32,num_8,2.13332572114,,,2017_Apr_11_1702,60.0194238588,FEMA4ImagesEEG,001,100200,
AFNE01.JPG,AFNE01.JPG,AFNE01.JPG,AFNE01.JPG,AFNE01.JPG,AFNE01.JPG,1,8,18,7,,,,,,,,,,,,,,,,,,,,,,,AFNE02.jpg,AFNE10.jpg,AFSA12.jpg,AFSA18.jpg,AFSA18.jpg,FS,4,num_4,32,num_2,0.966759499628,,,2017_Apr_11_1702,60.0194238588,FEMA4ImagesEEG,001,100200,
AFNE01.JPG,AFNE01.JPG,AFNE01.JPG,AFNE01.JPG,AFNE01.JPG,AFNE01.JPG,1,9,19,6,,,,,,,,,,,,,,,,,,,,,,,AFNE16.jpg,AFNE05.jpg,AFSA17.jpg,AFSA08.jpg,AFNE16.jpg,FN,3,num_8,16,num_8,0.800139393657,,,2017_Apr_11_1702,60.0194238588,FEMA4ImagesEEG,001,100200,
AFNE01.JPG,AFNE01.JPG,AFNE01.JPG,AFNE01.JPG,AFNE01.JPG,AFNE01.JPG,2,0,20,4,,,,,,,,,,,,,,,,,,,,,,,AFSA20.jpg,AFSA01.jpg,AFNE09.jpg,AFNE11.jpg,AFSA20.jpg,FS,4,num_8,32,num_6,0.916815516539,,,2017_Apr_11_1702,60.0194238588,FEMA4ImagesEEG,001,100200,
AFNE01.JPG,AFNE01.JPG,AFNE01.JPG,AFNE01.JPG,AFNE01.JPG,AFNE01.JPG,2,1,21,0,,,,,,,,,,,,,,,,,,,,,,,AFSA01.jpg,AFNE20.jpg,AFNE05.jpg,AFSA19.jpg,AFNE05.jpg,FN,3,num_2,16,num_2,0.533503988292,,,2017_Apr_11_1702,60.0194238588,FEMA4ImagesEEG,001,100200,
AFNE01.JPG,AFNE01.JPG,AFNE01.JPG,AFNE01.JPG,AFNE01.JPG,AFNE01.JPG,2,2,22,6,,,,,,,,,,,,,,,,,,,,,,,AFSA05.jpg,AFNE04.jpg,AFSA18.jpg,AFNE14.jpg,AFNE14.jpg,FN,3,num_4,16,num_4,0.9000969599,,,2017_Apr_11_1702,60.0194238588,FEMA4ImagesEEG,001,100200,
AFNE01.JPG,AFNE01.JPG,AFNE01.JPG,AFNE01.JPG,AFNE01.JPG,AFNE01.JPG,2,3,23,5,,,,,,,,,,,,,,,,,,,,,,,AFNE04.jpg,AFSA19.jpg,AFNE01.jpg,AFSA05.jpg,AFNE01.jpg,FN,3,num_2,32,num_8,0.816810801625,,,2017_Apr_11_1702,60.0194238588,FEMA4ImagesEEG,001,100200,
AFNE01.JPG,AFNE01.JPG,AFNE01.JPG,AFNE01.JPG,AFNE01.JPG,AFNE01.JPG,2,4,24,9,,,,,,,,,,,,,,,,,,,,,,,AFNE02.jpg,AFSA16.jpg,AFNE15.jpg,AFSA18.jpg,AFSA16.jpg,FS,4,num_6,16,num_6,0.566788751166,,,2017_Apr_11_1702,60.0194238588,FEMA4ImagesEEG,001,100200,
AFNE01.JPG,AFNE01.JPG,AFNE01.JPG,AFNE01.JPG,AFNE01.JPG,AFNE01.JPG,2,5,25,2,,,,,,,,,,,,,,,,,,,,,,,AFSA13.jpg,AFNE07.jpg,AFNE15.jpg,AFSA15.jpg,AFNE07.jpg,FN,3,num_6,16,num_6,0.633532758802,,,2017_Apr_11_1702,60.0194238588,FEMA4ImagesEEG,001,100200,
AFNE01.JPG,AFNE01.JPG,AFNE01.JPG,AFNE01.JPG,AFNE01.JPG,AFNE01.JPG,2,6,26,7,,,,,,,,,,,,,,,,,,,,,,,AFNE16.jpg,AFSA05.jpg,AFSA18.jpg,AFNE11.jpg,AFNE16.jpg,FN,3,num_8,32,num_2,0.933457096107,,,2017_Apr_11_1702,60.0194238588,FEMA4ImagesEEG,001,100200,
AFNE01.JPG,AFNE01.JPG,AFNE01.JPG,AFNE01.JPG,AFNE01.JPG,AFNE01.JPG,2,7,27,3,,,,,,,,,,,,,,,,,,,,,,,AFSA10.jpg,AFNE03.jpg,AFNE04.jpg,AFSA08.jpg,AFSA08.jpg,FS,4,num_4,32,num_8,0.783416987862,,,2017_Apr_11_1702,60.0194238588,FEMA4ImagesEEG,001,100200,
AFNE01.JPG,AFNE01.JPG,AFNE01.JPG,AFNE01.JPG,AFNE01.JPG,AFNE01.JPG,2,8,28,8,,,,,,,,,,,,,,,,,,,,,,,AFSA07.jpg,AFNE20.jpg,AFSA20.jpg,AFNE10.jpg,AFSA20.jpg,FS,4,num_2,16,num_2,0.683506891131,,,2017_Apr_11_1702,60.0194238588,FEMA4ImagesEEG,001,100200,
AFNE01.JPG,AFNE01.JPG,AFNE01.JPG,AFNE01.JPG,AFNE01.JPG,AFNE01.JPG,2,9,29,1,,,,,,,,,,,,,,,,,,,,,,,AFSA14.jpg,AFNE01.jpg,AFNE07.jpg,AFSA08.jpg,AFSA08.jpg,FS,4,num_4,32,num_2,1.03342107683,,,2017_Apr_11_1702,60.0194238588,FEMA4ImagesEEG,001,100200,
AFNE01.JPG,AFNE01.JPG,AFNE01.JPG,AFNE01.JPG,AFNE01.JPG,AFNE01.JPG,3,0,30,3,,,,,,,,,,,,,,,,,,,,,,,AFSA19.jpg,AFSA02.jpg,AFNE18.jpg,AFNE16.jpg,AFNE18.jpg,FN,3,num_2,16,num_2,0.833440193441,,,2017_Apr_11_1702,60.0194238588,FEMA4ImagesEEG,001,100200,
AFNE01.JPG,AFNE01.JPG,AFNE01.JPG,AFNE01.JPG,AFNE01.JPG,AFNE01.JPG,3,1,31,1,,,,,,,,,,,,,,,,,,,,,,,AFSA10.jpg,AFNE16.jpg,AFNE11.jpg,AFSA06.jpg,AFSA10.jpg,FS,4,num_8,32,num_6,0.933454209473,,,2017_Apr_11_1702,60.0194238588,FEMA4ImagesEEG,001,100200,
AFNE01.JPG,AFNE01.JPG,AFNE01.JPG,AFNE01.JPG,AFNE01.JPG,AFNE01.JPG,3,2,32,4,,,,,,,,,,,,,,,,,,,,,,,AFNE02.jpg,AFSA19.jpg,AFSA05.jpg,AFNE15.jpg,AFSA19.jpg,FS,4,num_6,32,num_2,1.30010395171,,,2017_Apr_11_1702,60.0194238588,FEMA4ImagesEEG,001,100200,
AFNE01.JPG,AFNE01.JPG,AFNE01.JPG,AFNE01.JPG,AFNE01.JPG,AFNE01.JPG,3,3,33,5,,,,,,,,,,,,,,,,,,,,,,,AFSA18.jpg,AFNE18.jpg,AFSA03.jpg,AFNE17.jpg,AFNE17.jpg,FN,3,num_4,32,num_2,0.800205786712,,,2017_Apr_11_1702,60.0194238588,FEMA4ImagesEEG,001,100200,
AFNE01.JPG,AFNE01.JPG,AFNE01.JPG,AFNE01.JPG,AFNE01.JPG,AFNE01.JPG,3,4,34,6,,,,,,,,,,,,,,,,,,,,,,,AFNE16.jpg,AFSA10.jpg,AFNE05.jpg,AFSA03.jpg,AFSA10.jpg,FS,4,num_6,16,num_6,1.016781101,,,2017_Apr_11_1702,60.0194238588,FEMA4ImagesEEG,001,100200,
AFNE01.JPG,AFNE01.JPG,AFNE01.JPG,AFNE01.JPG,AFNE01.JPG,AFNE01.JPG,3,5,35,7,,,,,,,,,,,,,,,,,,,,,,,AFSA01.jpg,AFSA02.jpg,AFNE11.jpg,AFNE13.jpg,AFNE11.jpg,FN,3,num_2,16,num_2,0.61678597657,,,2017_Apr_11_1702,60.0194238588,FEMA4ImagesEEG,001,100200,
AFNE01.JPG,AFNE01.JPG,AFNE01.JPG,AFNE01.JPG,AFNE01.JPG,AFNE01.JPG,3,6,36,9,,,,,,,,,,,,,,,,,,,,,,,AFNE12.jpg,AFNE16.jpg,AFSA01.jpg,AFSA11.jpg,AFNE12.jpg,FN,3,num_8,32,num_6,1.20004984317,,,2017_Apr_11_1702,60.0194238588,FEMA4ImagesEEG,001,100200,
AFNE01.JPG,AFNE01.JPG,AFNE01.JPG,AFNE01.JPG,AFNE01.JPG,AFNE01.JPG,3,7,37,2,,,,,,,,,,,,,,,,,,,,,,,AFSA20.jpg,AFSA18.jpg,AFNE15.jpg,AFNE05.jpg,AFSA20.jpg,FS,4,num_8,16,num_8,0.50045561092,,,2017_Apr_11_1702,60.0194238588,FEMA4ImagesEEG,001,100200,
AFNE01.JPG,AFNE01.JPG,AFNE01.JPG,AFNE01.JPG,AFNE01.JPG,AFNE01.JPG,3,8,38,8,,,,,,,,,,,,,,,,,,,,,,,AFNE17.jpg,AFNE19.jpg,AFSA02.jpg,AFSA04.jpg,AFNE17.jpg,FN,3,num_8,32,num_2,1.13345433772,,,2017_Apr_11_1702,60.0194238588,FEMA4ImagesEEG,001,100200,
AFNE01.JPG,AFNE01.JPG,AFNE01.JPG,AFNE01.JPG,AFNE01.JPG,AFNE01.JPG,3,9,39,0,,,,,,,,,,,,,,,,,,,,,,,AFNE20.jpg,AFSA09.jpg,AFNE09.jpg,AFSA04.jpg,AFNE20.jpg,FN,3,num_8,16,num_8,0.566782336216,,,2017_Apr_11_1702,60.0194238588,FEMA4ImagesEEG,001,100200,
AFNE01.JPG,AFNE01.JPG,AFNE01.JPG,AFNE01.JPG,AFNE01.JPG,AFNE01.JPG,4,0,40,5,,,,,,,,,,,,,,,,,,,,,,,AFSA05.jpg,AFNE19.jpg,AFSA20.jpg,AFNE05.jpg,AFNE05.jpg,FN,3,num_4,32,num_8,1.00010071229,,,2017_Apr_11_1702,60.0194238588,FEMA4ImagesEEG,001,100200,
AFNE01.JPG,AFNE01.JPG,AFNE01.JPG,AFNE01.JPG,AFNE01.JPG,AFNE01.JPG,4,1,41,2,,,,,,,,,,,,,,,,,,,,,,,AFSA10.jpg,AFNE12.jpg,AFNE10.jpg,AFSA14.jpg,AFNE10.jpg,FN,3,num_2,16,num_2,0.900136089884,,,2017_Apr_11_1702,60.0194238588,FEMA4ImagesEEG,001,100200,
AFNE01.JPG,AFNE01.JPG,AFNE01.JPG,AFNE01.JPG,AFNE01.JPG,AFNE01.JPG,4,2,42,8,,,,,,,,,,,,,,,,,,,,,,,AFNE12.jpg,AFSA12.jpg,AFNE19.jpg,AFSA05.jpg,AFNE19.jpg,FN,3,num_2,16,num_2,0.700140452012,,,2017_Apr_11_1702,60.0194238588,FEMA4ImagesEEG,001,100200,
AFNE01.JPG,AFNE01.JPG,AFNE01.JPG,AFNE01.JPG,AFNE01.JPG,AFNE01.JPG,4,3,43,7,,,,,,,,,,,,,,,,,,,,,,,AFSA09.jpg,AFNE09.jpg,AFSA11.jpg,AFNE12.jpg,AFNE09.jpg,FN,3,num_6,16,num_6,0.76678246446,,,2017_Apr_11_1702,60.0194238588,FEMA4ImagesEEG,001,100200,
AFNE01.JPG,AFNE01.JPG,AFNE01.JPG,AFNE01.JPG,AFNE01.JPG,AFNE01.JPG,4,4,44,9,,,,,,,,,,,,,,,,,,,,,,,AFSA01.jpg,AFNE04.jpg,AFNE09.jpg,AFSA08.jpg,AFSA08.jpg,FS,4,num_4,16,num_4,0.550174113363,,,2017_Apr_11_1702,60.0194238588,FEMA4ImagesEEG,001,100200,
AFNE01.JPG,AFNE01.JPG,AFNE01.JPG,AFNE01.JPG,AFNE01.JPG,AFNE01.JPG,4,5,45,3,,,,,,,,,,,,,,,,,,,,,,,AFSA06.jpg,AFNE07.jpg,AFSA07.jpg,AFNE03.jpg,AFNE03.jpg,FN,3,num_4,16,num_4,0.800098339096,,,2017_Apr_11_1702,60.0194238588,FEMA4ImagesEEG,001,100200,
AFNE01.JPG,AFNE01.JPG,AFNE01.JPG,AFNE01.JPG,AFNE01.JPG,AFNE01.JPG,4,6,46,0,,,,,,,,,,,,,,,,,,,,,,,AFNE14.jpg,AFSA14.jpg,AFSA12.jpg,AFNE09.jpg,AFSA14.jpg,FS,4,num_6,32,num_8,1.1834948631,,,2017_Apr_11_1702,60.0194238588,FEMA4ImagesEEG,001,100200,
AFNE01.JPG,AFNE01.JPG,AFNE01.JPG,AFNE01.JPG,AFNE01.JPG,AFNE01.JPG,4,7,47,6,,,,,,,,,,,,,,,,,,,,,,,AFSA02.jpg,AFNE06.jpg,AFNE15.jpg,AFSA16.jpg,AFNE15.jpg,FN,3,num_2,16,num_2,0.516842843965,,,2017_Apr_11_1702,60.0194238588,FEMA4ImagesEEG,001,100200,
AFNE01.JPG,AFNE01.JPG,AFNE01.JPG,AFNE01.JPG,AFNE01.JPG,AFNE01.JPG,4,8,48,1,,,,,,,,,,,,,,,,,,,,,,,AFSA06.jpg,AFNE20.jpg,AFSA16.jpg,AFNE18.jpg,AFNE18.jpg,FN,3,num_4,16,num_4,1.15011484083,,,2017_Apr_11_1702,60.0194238588,FEMA4ImagesEEG,001,100200,
AFNE01.JPG,AFNE01.JPG,AFNE01.JPG,AFNE01.JPG,AFNE01.JPG,AFNE01.JPG,4,9,49,4,,,,,,,,,,,,,,,,,,,,,,,AFNE05.jpg,AFSA08.jpg,AFSA19.jpg,AFNE03.jpg,AFNE03.jpg,FN,3,num_4,16,num_4,0.63351511769,,,2017_Apr_11_1702,60.0194238588,FEMA4ImagesEEG,001,100200,
AFNE01.JPG,AFNE01.JPG,AFNE01.JPG,AFNE01.JPG,AFNE01.JPG,AFNE01.JPG,5,0,50,1,,,,,,,,,,,,,,,,,,,,,,,AFNE09.jpg,AFNE03.jpg,AFSA17.jpg,AFSA09.jpg,AFNE09.jpg,FN,3,num_8,32,num_6,1.10013493523,,,2017_Apr_11_1702,60.0194238588,FEMA4ImagesEEG,001,100200,
AFNE01.JPG,AFNE01.JPG,AFNE01.JPG,AFNE01.JPG,AFNE01.JPG,AFNE01.JPG,5,1,51,6,,,,,,,,,,,,,,,,,,,,,,,AFSA19.jpg,AFNE10.jpg,AFNE02.jpg,AFSA17.jpg,AFNE02.jpg,FN,3,num_2,32,num_4,1.76684789499,,,2017_Apr_11_1702,60.0194238588,FEMA4ImagesEEG,001,100200,
AFNE01.JPG,AFNE01.JPG,AFNE01.JPG,AFNE01.JPG,AFNE01.JPG,AFNE01.JPG,5,2,52,4,,,,,,,,,,,,,,,,,,,,,,,AFSA13.jpg,AFNE14.jpg,AFNE08.jpg,AFSA02.jpg,AFSA13.jpg,FS,4,num_8,16,num_8,0.516846371815,,,2017_Apr_11_1702,60.0194238588,FEMA4ImagesEEG,001,100200,
AFNE01.JPG,AFNE01.JPG,AFNE01.JPG,AFNE01.JPG,AFNE01.JPG,AFNE01.JPG,5,3,53,2,,,,,,,,,,,,,,,,,,,,,,,AFSA03.jpg,AFNE15.jpg,AFSA16.jpg,AFNE06.jpg,AFSA03.jpg,FS,4,num_8,16,num_8,0.733552548569,,,2017_Apr_11_1702,60.0194238588,FEMA4ImagesEEG,001,100200,
AFNE01.JPG,AFNE01.JPG,AFNE01.JPG,AFNE01.JPG,AFNE01.JPG,AFNE01.JPG,5,4,54,0,,,,,,,,,,,,,,,,,,,,,,,AFNE19.jpg,AFNE06.jpg,AFSA03.jpg,AFSA04.jpg,AFNE19.jpg,FN,3,num_8,16,num_8,1.21669366769,,,2017_Apr_11_1702,60.0194238588,FEMA4ImagesEEG,001,100200,
AFNE01.JPG,AFNE01.JPG,AFNE01.JPG,AFNE01.JPG,AFNE01.JPG,AFNE01.JPG,5,5,55,8,,,,,,,,,,,,,,,,,,,,,,,AFSA10.jpg,AFNE18.jpg,AFSA07.jpg,AFNE05.jpg,AFSA10.jpg,FS,4,num_8,32,num_6,3.41657768842,,,2017_Apr_11_1702,60.0194238588,FEMA4ImagesEEG,001,100200,
AFNE01.JPG,AFNE01.JPG,AFNE01.JPG,AFNE01.JPG,AFNE01.JPG,AFNE01.JPG,5,6,56,9,,,,,,,,,,,,,,,,,,,,,,,AFNE09.jpg,AFNE14.jpg,AFSA04.jpg,AFSA19.jpg,AFNE14.jpg,FN,3,num_6,32,num_8,1.00013823854,,,2017_Apr_11_1702,60.0194238588,FEMA4ImagesEEG,001,100200,
AFNE01.JPG,AFNE01.JPG,AFNE01.JPG,AFNE01.JPG,AFNE01.JPG,AFNE01.JPG,5,7,57,7,,,,,,,,,,,,,,,,,,,,,,,AFSA15.jpg,AFNE04.jpg,AFNE16.jpg,AFSA12.jpg,AFNE04.jpg,FN,3,num_6,16,num_6,0.933480510022,,,2017_Apr_11_1702,60.0194238588,FEMA4ImagesEEG,001,100200,
AFNE01.JPG,AFNE01.JPG,AFNE01.JPG,AFNE01.JPG,AFNE01.JPG,AFNE01.JPG,5,8,58,3,,,,,,,,,,,,,,,,,,,,,,,AFSA10.jpg,AFSA06.jpg,AFNE19.jpg,AFNE04.jpg,AFNE19.jpg,FN,3,num_2,16,num_2,1.80008615041,,,2017_Apr_11_1702,60.0194238588,FEMA4ImagesEEG,001,100200,
AFNE01.JPG,AFNE01.JPG,AFNE01.JPG,AFNE01.JPG,AFNE01.JPG,AFNE01.JPG,5,9,59,5,,,,,,,,,,,,,,,,,,,,,,,AFSA07.jpg,AFNE10.jpg,AFSA05.jpg,AFNE06.jpg,AFNE06.jpg,FN,3,num_4,16,num_4,1.13343156502,,,2017_Apr_11_1702,60.0194238588,FEMA4ImagesEEG,001,100200,
,,,,,,,,,,,,,,,,,,,,,,,,,,,,,,,,,,,,,,,,,,,space,2.24985590763,2017_Apr_11_1702,60.0194238588,FEMA4ImagesEEG,001,100200,
AFNE01.JPG,AFNE01.JPG,AFNE01.JPG,AFNE01.JPG,AFNE01.JPG,AFNE01.JPG,,,,,0,0,0,3,,,,,,,,,,,,,,,,,,,AMSA09.jpg,AMNE09.jpg,AMNE17.jpg,AMSA01.jpg,AMNE17.jpg,MN,1,num_2,32,num_4,0.916747198906,,,2017_Apr_11_1702,60.0194238588,FEMA4ImagesEEG,001,100200,
AFNE01.JPG,AFNE01.JPG,AFNE01.JPG,AFNE01.JPG,AFNE01.JPG,AFNE01.JPG,,,,,0,1,1,2,,,,,,,,,,,,,,,,,,,AMNE08.jpg,AMSA06.jpg,AMNE11.jpg,AMSA09.jpg,AMSA06.jpg,MS,2,num_6,16,num_6,0.633472139016,,,2017_Apr_11_1702,60.0194238588,FEMA4ImagesEEG,001,100200,
AFNE01.JPG,AFNE01.JPG,AFNE01.JPG,AFNE01.JPG,AFNE01.JPG,AFNE01.JPG,,,,,0,2,2,9,,,,,,,,,,,,,,,,,,,AMNE15.jpg,AMSA05.jpg,AMSA19.jpg,AMNE09.jpg,AMNE09.jpg,MN,1,num_4,16,num_4,0.700174771249,,,2017_Apr_11_1702,60.0194238588,FEMA4ImagesEEG,001,100200,
AFNE01.JPG,AFNE01.JPG,AFNE01.JPG,AFNE01.JPG,AFNE01.JPG,AFNE01.JPG,,,,,0,3,3,6,,,,,,,,,,,,,,,,,,,AMSA13.jpg,AMSA14.jpg,AMNE03.jpg,AMNE07.jpg,AMSA13.jpg,MS,2,num_8,16,num_8,1.28343093954,,,2017_Apr_11_1702,60.0194238588,FEMA4ImagesEEG,001,100200,
AFNE01.JPG,AFNE01.JPG,AFNE01.JPG,AFNE01.JPG,AFNE01.JPG,AFNE01.JPG,,,,,0,4,4,0,,,,,,,,,,,,,,,,,,,AMSA13.jpg,AMNE20.jpg,AMSA18.jpg,AMNE15.jpg,AMSA18.jpg,MS,2,num_2,16,num_2,0.500190679915,,,2017_Apr_11_1702,60.0194238588,FEMA4ImagesEEG,001,100200,
AFNE01.JPG,AFNE01.JPG,AFNE01.JPG,AFNE01.JPG,AFNE01.JPG,AFNE01.JPG,,,,,0,5,5,1,,,,,,,,,,,,,,,,,,,AMSA12.jpg,AMSA14.jpg,AMNE07.jpg,AMNE05.jpg,AMNE07.jpg,MN,1,num_2,16,num_2,0.849823897704,,,2017_Apr_11_1702,60.0194238588,FEMA4ImagesEEG,001,100200,
AFNE01.JPG,AFNE01.JPG,AFNE01.JPG,AFNE01.JPG,AFNE01.JPG,AFNE01.JPG,,,,,0,6,6,4,,,,,,,,,,,,,,,,,,,AMSA03.jpg,AMNE07.jpg,AMNE03.jpg,AMSA09.jpg,AMSA03.jpg,MS,2,num_8,16,num_8,0.483511252794,,,2017_Apr_11_1702,60.0194238588,FEMA4ImagesEEG,001,100200,
AFNE01.JPG,AFNE01.JPG,AFNE01.JPG,AFNE01.JPG,AFNE01.JPG,AFNE01.JPG,,,,,0,7,7,5,,,,,,,,,,,,,,,,,,,AMSA20.jpg,AMSA08.jpg,AMNE09.jpg,AMNE07.jpg,AMSA08.jpg,MS,2,num_6,32,num_8,1.133540296,,,2017_Apr_11_1702,60.0194238588,FEMA4ImagesEEG,001,100200,
AFNE01.JPG,AFNE01.JPG,AFNE01.JPG,AFNE01.JPG,AFNE01.JPG,AFNE01.JPG,,,,,0,8,8,7,,,,,,,,,,,,,,,,,,,AMNE06.jpg,AMSA12.jpg,AMSA05.jpg,AMNE10.jpg,AMNE10.jpg,MN,1,num_4,16,num_4,0.68346294947,,,2017_Apr_11_1702,60.0194238588,FEMA4ImagesEEG,001,100200,
AFNE01.JPG,AFNE01.JPG,AFNE01.JPG,AFNE01.JPG,AFNE01.JPG,AFNE01.JPG,,,,,0,9,9,8,,,,,,,,,,,,,,,,,,,AMNE13.jpg,AMNE02.jpg,AMSA04.jpg,AMSA01.jpg,AMNE13.jpg,MN,1,num_8,16,num_8,0.700098114554,,,2017_Apr_11_1702,60.0194238588,FEMA4ImagesEEG,001,100200,
AFNE01.JPG,AFNE01.JPG,AFNE01.JPG,AFNE01.JPG,AFNE01.JPG,AFNE01.JPG,,,,,1,0,10,3,,,,,,,,,,,,,,,,,,,AMSA12.jpg,AMNE03.jpg,AMSA14.jpg,AMNE19.jpg,AMNE19.jpg,MN,1,num_4,16,num_4,0.616810673848,,,2017_Apr_11_1702,60.0194238588,FEMA4ImagesEEG,001,100200,
AFNE01.JPG,AFNE01.JPG,AFNE01.JPG,AFNE01.JPG,AFNE01.JPG,AFNE01.JPG,,,,,1,1,11,2,,,,,,,,,,,,,,,,,,,AMSA18.jpg,AMNE09.jpg,AMSA05.jpg,AMNE08.jpg,AMSA05.jpg,MS,2,num_2,32,num_8,1.55010130536,,,2017_Apr_11_1702,60.0194238588,FEMA4ImagesEEG,001,100200,
AFNE01.JPG,AFNE01.JPG,AFNE01.JPG,AFNE01.JPG,AFNE01.JPG,AFNE01.JPG,,,,,1,2,12,0,,,,,,,,,,,,,,,,,,,AMNE10.jpg,AMNE05.jpg,AMSA11.jpg,AMSA20.jpg,AMNE10.jpg,MN,1,num_8,16,num_8,1.11660363618,,,2017_Apr_11_1702,60.0194238588,FEMA4ImagesEEG,001,100200,
AFNE01.JPG,AFNE01.JPG,AFNE01.JPG,AFNE01.JPG,AFNE01.JPG,AFNE01.JPG,,,,,1,3,13,6,,,,,,,,,,,,,,,,,,,AMNE14.jpg,AMSA16.jpg,AMSA09.jpg,AMNE19.jpg,AMNE19.jpg,MN,1,num_4,16,num_4,0.633475025184,,,2017_Apr_11_1702,60.0194238588,FEMA4ImagesEEG,001,100200,
AFNE01.JPG,AFNE01.JPG,AFNE01.JPG,AFNE01.JPG,AFNE01.JPG,AFNE01.JPG,,,,,1,4,14,5,,,,,,,,,,,,,,,,,,,AMNE11.jpg,AMSA04.jpg,AMNE06.jpg,AMSA20.jpg,AMNE11.jpg,MN,1,num_8,32,num_6,1.46671026573,,,2017_Apr_11_1702,60.0194238588,FEMA4ImagesEEG,001,100200,
AFNE01.JPG,AFNE01.JPG,AFNE01.JPG,AFNE01.JPG,AFNE01.JPG,AFNE01.JPG,,,,,1,5,15,8,,,,,,,,,,,,,,,,,,,AMSA17.jpg,AMNE20.jpg,AMSA02.jpg,AMNE08.jpg,AMSA17.jpg,MS,2,num_8,16,num_8,1.31661627349,,,2017_Apr_11_1702,60.0194238588,FEMA4ImagesEEG,001,100200,
AFNE01.JPG,AFNE01.JPG,AFNE01.JPG,AFNE01.JPG,AFNE01.JPG,AFNE01.JPG,,,,,1,6,16,7,,,,,,,,,,,,,,,,,,,AMSA10.jpg,AMNE01.jpg,AMNE04.jpg,AMSA17.jpg,AMNE01.jpg,MN,1,num_6,16,num_6,0.566814730875,,,2017_Apr_11_1702,60.0194238588,FEMA4ImagesEEG,001,100200,
AFNE01.JPG,AFNE01.JPG,AFNE01.JPG,AFNE01.JPG,AFNE01.JPG,AFNE01.JPG,,,,,1,7,17,4,,,,,,,,,,,,,,,,,,,AMNE13.jpg,AMSA12.jpg,AMNE02.jpg,AMSA06.jpg,AMNE02.jpg,MN,1,num_2,16,num_2,1.58339280402,,,2017_Apr_11_1702,60.0194238588,FEMA4ImagesEEG,001,100200,
AFNE01.JPG,AFNE01.JPG,AFNE01.JPG,AFNE01.JPG,AFNE01.JPG,AFNE01.JPG,,,,,1,8,18,9,,,,,,,,,,,,,,,,,,,AMNE19.jpg,AMSA04.jpg,AMNE05.jpg,AMSA06.jpg,AMSA06.jpg,MS,2,num_4,16,num_4,0.750146658625,,,2017_Apr_11_1702,60.0194238588,FEMA4ImagesEEG,001,100200,
AFNE01.JPG,AFNE01.JPG,AFNE01.JPG,AFNE01.JPG,AFNE01.JPG,AFNE01.JPG,,,,,1,9,19,1,,,,,,,,,,,,,,,,,,,AMNE05.jpg,AMSA04.jpg,AMNE13.jpg,AMSA18.jpg,AMSA18.jpg,MS,2,num_4,16,num_4,1.25034760172,,,2017_Apr_11_1702,60.0194238588,FEMA4ImagesEEG,001,100200,
AFNE01.JPG,AFNE01.JPG,AFNE01.JPG,AFNE01.JPG,AFNE01.JPG,AFNE01.JPG,,,,,2,0,20,9,,,,,,,,,,,,,,,,,,,AMSA03.jpg,AMSA11.jpg,AMNE12.jpg,AMNE13.jpg,AMSA03.jpg,MS,2,num_8,32,num_6,0.983424172271,,,2017_Apr_11_1702,60.0194238588,FEMA4ImagesEEG,001,100200,
AFNE01.JPG,AFNE01.JPG,AFNE01.JPG,AFNE01.JPG,AFNE01.JPG,AFNE01.JPG,,,,,2,1,21,2,,,,,,,,,,,,,,,,,,,AMSA03.jpg,AMNE11.jpg,AMNE07.jpg,AMSA12.jpg,AMSA12.jpg,MS,2,num_4,32,num_6,1.13343701791,,,2017_Apr_11_1702,60.0194238588,FEMA4ImagesEEG,001,100200,
AFNE01.JPG,AFNE01.JPG,AFNE01.JPG,AFNE01.JPG,AFNE01.JPG,AFNE01.JPG,,,,,2,2,22,4,,,,,,,,,,,,,,,,,,,AMNE02.jpg,AMSA13.jpg,AMNE18.jpg,AMSA12.jpg,AMSA12.jpg,MS,2,num_4,16,num_4,0.633472139016,,,2017_Apr_11_1702,60.0194238588,FEMA4ImagesEEG,001,100200,
AFNE01.JPG,AFNE01.JPG,AFNE01.JPG,AFNE01.JPG,AFNE01.JPG,AFNE01.JPG,,,,,2,3,23,7,,,,,,,,,,,,,,,,,,,AMNE05.jpg,AMSA15.jpg,AMSA07.jpg,AMNE17.jpg,AMSA07.jpg,MS,2,num_2,32,num_6,0.783661711961,,,2017_Apr_11_1702,60.0194238588,FEMA4ImagesEEG,001,100200,
AFNE01.JPG,AFNE01.JPG,AFNE01.JPG,AFNE01.JPG,AFNE01.JPG,AFNE01.JPG,,,,,2,4,24,6,,,,,,,,,,,,,,,,,,,AMNE06.jpg,AMNE12.jpg,AMSA09.jpg,AMSA01.jpg,AMNE06.jpg,MN,1,num_8,16,num_8,1.15018764883,,,2017_Apr_11_1702,60.0194238588,FEMA4ImagesEEG,001,100200,
AFNE01.JPG,AFNE01.JPG,AFNE01.JPG,AFNE01.JPG,AFNE01.JPG,AFNE01.JPG,,,,,2,5,25,5,,,,,,,,,,,,,,,,,,,AMSA10.jpg,AMNE11.jpg,AMNE05.jpg,AMSA04.jpg,AMNE05.jpg,MN,1,num_2,16,num_2,0.833469380159,,,2017_Apr_11_1702,60.0194238588,FEMA4ImagesEEG,001,100200,
AFNE01.JPG,AFNE01.JPG,AFNE01.JPG,AFNE01.JPG,AFNE01.JPG,AFNE01.JPG,,,,,2,6,26,3,,,,,,,,,,,,,,,,,,,AMNE14.jpg,AMNE13.jpg,AMSA11.jpg,AMSA04.jpg,AMNE14.jpg,MN,1,num_8,16,num_8,0.833502096124,,,2017_Apr_11_1702,60.0194238588,FEMA4ImagesEEG,001,100200,
AFNE01.JPG,AFNE01.JPG,AFNE01.JPG,AFNE01.JPG,AFNE01.JPG,AFNE01.JPG,,,,,2,7,27,0,,,,,,,,,,,,,,,,,,,AMSA12.jpg,AMNE17.jpg,AMSA08.jpg,AMNE13.jpg,AMSA12.jpg,MS,2,num_8,32,num_4,1.13343798043,,,2017_Apr_11_1702,60.0194238588,FEMA4ImagesEEG,001,100200,
AFNE01.JPG,AFNE01.JPG,AFNE01.JPG,AFNE01.JPG,AFNE01.JPG,AFNE01.JPG,,,,,2,8,28,1,,,,,,,,,,,,,,,,,,,AMNE08.jpg,AMSA16.jpg,AMSA12.jpg,AMNE05.jpg,AMSA16.jpg,MS,2,num_6,32,num_2,0.85026138695,,,2017_Apr_11_1702,60.0194238588,FEMA4ImagesEEG,001,100200,
AFNE01.JPG,AFNE01.JPG,AFNE01.JPG,AFNE01.JPG,AFNE01.JPG,AFNE01.JPG,,,,,2,9,29,8,,,,,,,,,,,,,,,,,,,AMSA19.jpg,AMNE16.jpg,AMNE11.jpg,AMSA20.jpg,AMSA19.jpg,MS,2,num_8,16,num_8,0.783285484184,,,2017_Apr_11_1702,60.0194238588,FEMA4ImagesEEG,001,100200,
AFNE01.JPG,AFNE01.JPG,AFNE01.JPG,AFNE01.JPG,AFNE01.JPG,AFNE01.JPG,,,,,3,0,30,5,,,,,,,,,,,,,,,,,,,AMSA12.jpg,AMSA09.jpg,AMNE10.jpg,AMNE16.jpg,AMNE10.jpg,MN,1,num_2,16,num_2,0.866780122742,,,2017_Apr_11_1702,60.0194238588,FEMA4ImagesEEG,001,100200,
AFNE01.JPG,AFNE01.JPG,AFNE01.JPG,AFNE01.JPG,AFNE01.JPG,AFNE01.JPG,,,,,3,1,31,9,,,,,,,,,,,,,,,,,,,AMNE13.jpg,AMNE02.jpg,AMSA02.jpg,AMSA09.jpg,AMSA02.jpg,MS,2,num_2,16,num_2,0.600144076161,,,2017_Apr_11_1702,60.0194238588,FEMA4ImagesEEG,001,100200,
AFNE01.JPG,AFNE01.JPG,AFNE01.JPG,AFNE01.JPG,AFNE01.JPG,AFNE01.JPG,,,,,3,2,32,0,,,,,,,,,,,,,,,,,,,AMNE12.jpg,AMNE17.jpg,AMSA08.jpg,AMSA12.jpg,AMNE12.jpg,MN,1,num_8,16,num_8,0.950141333975,,,2017_Apr_11_1702,60.0194238588,FEMA4ImagesEEG,001,100200,
AFNE01.JPG,AFNE01.JPG,AFNE01.JPG,AFNE01.JPG,AFNE01.JPG,AFNE01.JPG,,,,,3,3,33,6,,,,,,,,,,,,,,,,,,,AMNE13.jpg,AMNE11.jpg,AMSA05.jpg,AMSA10.jpg,AMSA05.jpg,MS,2,num_2,32,num_4,1.13345914893,,,2017_Apr_11_1702,60.0194238588,FEMA4ImagesEEG,001,100200,
AFNE01.JPG,AFNE01.JPG,AFNE01.JPG,AFNE01.JPG,AFNE01.JPG,AFNE01.JPG,,,,,3,4,34,2,,,,,,,,,,,,,,,,,,,AMSA04.jpg,AMSA16.jpg,AMNE08.jpg,AMNE06.jpg,AMSA04.jpg,MS,2,num_8,32,num_6,1.08345486689,,,2017_Apr_11_1702,60.0194238588,FEMA4ImagesEEG,001,100200,
AFNE01.JPG,AFNE01.JPG,AFNE01.JPG,AFNE01.JPG,AFNE01.JPG,AFNE01.JPG,,,,,3,5,35,8,,,,,,,,,,,,,,,,,,,AMNE19.jpg,AMNE07.jpg,AMSA12.jpg,AMSA20.jpg,AMSA12.jpg,MS,2,num_2,32,num_4,0.950097713154,,,2017_Apr_11_1702,60.0194238588,FEMA4ImagesEEG,001,100200,
AFNE01.JPG,AFNE01.JPG,AFNE01.JPG,AFNE01.JPG,AFNE01.JPG,AFNE01.JPG,,,,,3,6,36,7,,,,,,,,,,,,,,,,,,,AMSA14.jpg,AMNE13.jpg,AMNE01.jpg,AMSA19.jpg,AMNE01.jpg,MN,1,num_2,32,num_8,1.00020527327,,,2017_Apr_11_1702,60.0194238588,FEMA4ImagesEEG,001,100200,
AFNE01.JPG,AFNE01.JPG,AFNE01.JPG,AFNE01.JPG,AFNE01.JPG,AFNE01.JPG,,,,,3,7,37,3,,,,,,,,,,,,,,,,,,,AMNE10.jpg,AMSA20.jpg,AMSA11.jpg,AMNE20.jpg,AMSA11.jpg,MS,2,num_2,16,num_2,1.21677481476,,,2017_Apr_11_1702,60.0194238588,FEMA4ImagesEEG,001,100200,
AFNE01.JPG,AFNE01.JPG,AFNE01.JPG,AFNE01.JPG,AFNE01.JPG,AFNE01.JPG,,,,,3,8,38,1,,,,,,,,,,,,,,,,,,,AMSA20.jpg,AMNE14.jpg,AMNE18.jpg,AMSA06.jpg,AMNE18.jpg,MN,1,num_2,32,num_8,1.06685658731,,,2017_Apr_11_1702,60.0194238588,FEMA4ImagesEEG,001,100200,
AFNE01.JPG,AFNE01.JPG,AFNE01.JPG,AFNE01.JPG,AFNE01.JPG,AFNE01.JPG,,,,,3,9,39,4,,,,,,,,,,,,,,,,,,,AMSA04.jpg,AMNE20.jpg,AMNE01.jpg,AMSA15.jpg,AMSA15.jpg,MS,2,num_4,16,num_4,0.566799335182,,,2017_Apr_11_1702,60.0194238588,FEMA4ImagesEEG,001,100200,
AFNE01.JPG,AFNE01.JPG,AFNE01.JPG,AFNE01.JPG,AFNE01.JPG,AFNE01.JPG,,,,,4,0,40,2,,,,,,,,,,,,,,,,,,,AMSA13.jpg,AMSA16.jpg,AMNE05.jpg,AMNE08.jpg,AMSA13.jpg,MS,2,num_8,32,num_2,0.95018142648,,,2017_Apr_11_1702,60.0194238588,FEMA4ImagesEEG,001,100200,
AFNE01.JPG,AFNE01.JPG,AFNE01.JPG,AFNE01.JPG,AFNE01.JPG,AFNE01.JPG,,,,,4,1,41,6,,,,,,,,,,,,,,,,,,,AMNE11.jpg,AMNE13.jpg,AMSA01.jpg,AMSA19.jpg,AMNE13.jpg,MN,1,num_6,16,num_6,1.48344838805,,,2017_Apr_11_1702,60.0194238588,FEMA4ImagesEEG,001,100200,
AFNE01.JPG,AFNE01.JPG,AFNE01.JPG,AFNE01.JPG,AFNE01.JPG,AFNE01.JPG,,,,,4,2,42,1,,,,,,,,,,,,,,,,,,,AMNE14.jpg,AMSA03.jpg,AMSA20.jpg,AMNE20.jpg,AMNE14.jpg,MN,1,num_8,16,num_8,0.583496402483,,,2017_Apr_11_1702,60.0194238588,FEMA4ImagesEEG,001,100200,
AFNE01.JPG,AFNE01.JPG,AFNE01.JPG,AFNE01.JPG,AFNE01.JPG,AFNE01.JPG,,,,,4,3,43,9,,,,,,,,,,,,,,,,,,,AMNE02.jpg,AMSA02.jpg,AMNE07.jpg,AMSA17.jpg,AMSA02.jpg,MS,2,num_6,16,num_6,0.550147171132,,,2017_Apr_11_1702,60.0194238588,FEMA4ImagesEEG,001,100200,
AFNE01.JPG,AFNE01.JPG,AFNE01.JPG,AFNE01.JPG,AFNE01.JPG,AFNE01.JPG,,,,,4,4,44,8,,,,,,,,,,,,,,,,,,,AMNE17.jpg,AMNE11.jpg,AMSA08.jpg,AMSA10.jpg,AMSA08.jpg,MS,2,num_2,16,num_2,0.90007033851,,,2017_Apr_11_1702,60.0194238588,FEMA4ImagesEEG,001,100200,
AFNE01.JPG,AFNE01.JPG,AFNE01.JPG,AFNE01.JPG,AFNE01.JPG,AFNE01.JPG,,,,,4,5,45,3,,,,,,,,,,,,,,,,,,,AMSA09.jpg,AMNE09.jpg,AMSA14.jpg,AMNE05.jpg,AMSA14.jpg,MS,2,num_2,16,num_2,0.916750406381,,,2017_Apr_11_1702,60.0194238588,FEMA4ImagesEEG,001,100200,
AFNE01.JPG,AFNE01.JPG,AFNE01.JPG,AFNE01.JPG,AFNE01.JPG,AFNE01.JPG,,,,,4,6,46,4,,,,,,,,,,,,,,,,,,,AMSA01.jpg,AMNE02.jpg,AMSA16.jpg,AMNE01.jpg,AMNE02.jpg,MN,1,num_6,16,num_6,0.800106036477,,,2017_Apr_11_1702,60.0194238588,FEMA4ImagesEEG,001,100200,
AFNE01.JPG,AFNE01.JPG,AFNE01.JPG,AFNE01.JPG,AFNE01.JPG,AFNE01.JPG,,,,,4,7,47,0,,,,,,,,,,,,,,,,,,,AMSA08.jpg,AMSA11.jpg,AMNE17.jpg,AMNE18.jpg,AMNE17.jpg,MN,1,num_2,16,num_2,0.950402415823,,,2017_Apr_11_1702,60.0194238588,FEMA4ImagesEEG,001,100200,
AFNE01.JPG,AFNE01.JPG,AFNE01.JPG,AFNE01.JPG,AFNE01.JPG,AFNE01.JPG,,,,,4,8,48,7,,,,,,,,,,,,,,,,,,,AMSA18.jpg,AMSA19.jpg,AMNE10.jpg,AMNE16.jpg,AMNE10.jpg,MN,1,num_2,32,num_8,0.81677391706,,,2017_Apr_11_1702,60.0194238588,FEMA4ImagesEEG,001,100200,
AFNE01.JPG,AFNE01.JPG,AFNE01.JPG,AFNE01.JPG,AFNE01.JPG,AFNE01.JPG,,,,,4,9,49,5,,,,,,,,,,,,,,,,,,,AMSA05.jpg,AMNE15.jpg,AMSA06.jpg,AMNE07.jpg,AMNE07.jpg,MN,1,num_4,16,num_4,0.516883898526,,,2017_Apr_11_1702,60.0194238588,FEMA4ImagesEEG,001,100200,
AFNE01.JPG,AFNE01.JPG,AFNE01.JPG,AFNE01.JPG,AFNE01.JPG,AFNE01.JPG,,,,,5,0,50,3,,,,,,,,,,,,,,,,,,,AMSA12.jpg,AMSA02.jpg,AMNE11.jpg,AMNE19.jpg,AMNE19.jpg,MN,1,num_4,32,num_8,1.05019255634,,,2017_Apr_11_1702,60.0194238588,FEMA4ImagesEEG,001,100200,
AFNE01.JPG,AFNE01.JPG,AFNE01.JPG,AFNE01.JPG,AFNE01.JPG,AFNE01.JPG,,,,,5,1,51,9,,,,,,,,,,,,,,,,,,,AMNE06.jpg,AMSA11.jpg,AMNE10.jpg,AMSA14.jpg,AMSA11.jpg,MS,2,num_6,32,num_4,0.966775215697,,,2017_Apr_11_1702,60.0194238588,FEMA4ImagesEEG,001,100200,
AFNE01.JPG,AFNE01.JPG,AFNE01.JPG,AFNE01.JPG,AFNE01.JPG,AFNE01.JPG,,,,,5,2,52,8,,,,,,,,,,,,,,,,,,,AMNE18.jpg,AMNE11.jpg,AMSA13.jpg,AMSA11.jpg,AMNE11.jpg,MN,1,num_6,16,num_6,0.966803761665,,,2017_Apr_11_1702,60.0194238588,FEMA4ImagesEEG,001,100200,
AFNE01.JPG,AFNE01.JPG,AFNE01.JPG,AFNE01.JPG,AFNE01.JPG,AFNE01.JPG,,,,,5,3,53,5,,,,,,,,,,,,,,,,,,,AMSA12.jpg,AMNE12.jpg,AMSA16.jpg,AMNE11.jpg,AMSA12.jpg,MS,2,num_8,32,num_2,0.616786617786,,,2017_Apr_11_1702,60.0194238588,FEMA4ImagesEEG,001,100200,
AFNE01.JPG,AFNE01.JPG,AFNE01.JPG,AFNE01.JPG,AFNE01.JPG,AFNE01.JPG,,,,,5,4,54,1,,,,,,,,,,,,,,,,,,,AMNE07.jpg,AMNE09.jpg,AMSA06.jpg,AMSA01.jpg,AMSA06.jpg,MS,2,num_2,16,num_2,1.46671507694,,,2017_Apr_11_1702,60.0194238588,FEMA4ImagesEEG,001,100200,
AFNE01.JPG,AFNE01.JPG,AFNE01.JPG,AFNE01.JPG,AFNE01.JPG,AFNE01.JPG,,,,,5,5,55,6,,,,,,,,,,,,,,,,,,,AMSA14.jpg,AMNE09.jpg,AMSA12.jpg,AMNE18.jpg,AMNE09.jpg,MN,1,num_6,16,num_6,0.716778182425,,,2017_Apr_11_1702,60.0194238588,FEMA4ImagesEEG,001,100200,
AFNE01.JPG,AFNE01.JPG,AFNE01.JPG,AFNE01.JPG,AFNE01.JPG,AFNE01.JPG,,,,,5,6,56,2,,,,,,,,,,,,,,,,,,,AMNE04.jpg,AMSA02.jpg,AMSA01.jpg,AMNE05.jpg,AMSA02.jpg,MS,2,num_6,32,num_8,0.516849258449,,,2017_Apr_11_1702,60.0194238588,FEMA4ImagesEEG,001,100200,
AFNE01.JPG,AFNE01.JPG,AFNE01.JPG,AFNE01.JPG,AFNE01.JPG,AFNE01.JPG,,,,,5,7,57,7,,,,,,,,,,,,,,,,,,,AMNE16.jpg,AMSA17.jpg,AMNE20.jpg,AMSA02.jpg,AMNE16.jpg,MN,1,num_8,32,num_2,0.91679980047,,,2017_Apr_11_1702,60.0194238588,FEMA4ImagesEEG,001,100200,
AFNE01.JPG,AFNE01.JPG,AFNE01.JPG,AFNE01.JPG,AFNE01.JPG,AFNE01.JPG,,,,,5,8,58,4,,,,,,,,,,,,,,,,,,,AMNE02.jpg,AMSA16.jpg,AMNE11.jpg,AMSA18.jpg,AMNE02.jpg,MN,1,num_8,32,num_2,0.783467664383,,,2017_Apr_11_1702,60.0194238588,FEMA4ImagesEEG,001,100200,
AFNE01.JPG,AFNE01.JPG,AFNE01.JPG,AFNE01.JPG,AFNE01.JPG,AFNE01.JPG,,,,,5,9,59,0,,,,,,,,,,,,,,,,,,,AMNE08.jpg,AMSA12.jpg,AMNE03.jpg,AMSA04.jpg,AMNE08.jpg,MN,1,num_8,16,num_8,1.2667736439,,,2017_Apr_11_1702,60.0194238588,FEMA4ImagesEEG,001,100200,
,,,,,,,,,,,,,,,,,,,,,,,,,,,,,,,,,,,,,,,,,,,space,2.7833602163,2017_Apr_11_1702,60.0194238588,FEMA4ImagesEEG,001,100200,
AFNE01.JPG,AFNE01.JPG,AFNE01.JPG,AFNE01.JPG,AFNE01.JPG,AFNE01.JPG,,,,,,,,,0,0,0,7,,,,,,,,,,,,,,,AFNE05.jpg,AFNE12.jpg,AFSA13.jpg,AFSA04.jpg,AFNE05.jpg,FN,3,num_8,32,num_6,0.60019282857,,,2017_Apr_11_1702,60.0194238588,FEMA4ImagesEEG,001,100200,
AFNE01.JPG,AFNE01.JPG,AFNE01.JPG,AFNE01.JPG,AFNE01.JPG,AFNE01.JPG,,,,,,,,,0,1,1,5,,,,,,,,,,,,,,,AFNE14.jpg,AFSA16.jpg,AFSA13.jpg,AFNE16.jpg,AFNE16.jpg,FN,3,num_4,16,num_4,0.566807033028,,,2017_Apr_11_1702,60.0194238588,FEMA4ImagesEEG,001,100200,
AFNE01.JPG,AFNE01.JPG,AFNE01.JPG,AFNE01.JPG,AFNE01.JPG,AFNE01.JPG,,,,,,,,,0,2,2,6,,,,,,,,,,,,,,,AFNE01.jpg,AFSA05.jpg,AFSA07.jpg,AFNE02.jpg,AFSA07.jpg,FS,4,num_2,16,num_2,1.06676966697,,,2017_Apr_11_1702,60.0194238588,FEMA4ImagesEEG,001,100200,
AFNE01.JPG,AFNE01.JPG,AFNE01.JPG,AFNE01.JPG,AFNE01.JPG,AFNE01.JPG,,,,,,,,,0,3,3,1,,,,,,,,,,,,,,,AFNE19.jpg,AFNE15.jpg,AFSA12.jpg,AFSA18.jpg,AFNE19.jpg,FN,3,num_8,16,num_8,0.800822569057,,,2017_Apr_11_1702,60.0194238588,FEMA4ImagesEEG,001,100200,
AFNE01.JPG,AFNE01.JPG,AFNE01.JPG,AFNE01.JPG,AFNE01.JPG,AFNE01.JPG,,,,,,,,,0,4,4,3,,,,,,,,,,,,,,,AFSA20.jpg,AFNE08.jpg,AFSA01.jpg,AFNE05.jpg,AFSA01.jpg,FS,4,num_2,16,num_2,0.850203974638,,,2017_Apr_11_1702,60.0194238588,FEMA4ImagesEEG,001,100200,
AFNE01.JPG,AFNE01.JPG,AFNE01.JPG,AFNE01.JPG,AFNE01.JPG,AFNE01.JPG,,,,,,,,,0,5,5,9,,,,,,,,,,,,,,,AFSA02.jpg,AFNE15.jpg,AFSA06.jpg,AFNE09.jpg,AFSA02.jpg,FS,4,num_8,32,num_2,2.74998500524,,,2017_Apr_11_1702,60.0194238588,FEMA4ImagesEEG,001,100200,
AFNE01.JPG,AFNE01.JPG,AFNE01.JPG,AFNE01.JPG,AFNE01.JPG,AFNE01.JPG,,,,,,,,,0,6,6,2,,,,,,,,,,,,,,,AFSA12.jpg,AFNE04.jpg,AFSA14.jpg,AFNE02.jpg,AFSA12.jpg,FS,4,num_8,16,num_8,0.816801500507,,,2017_Apr_11_1702,60.0194238588,FEMA4ImagesEEG,001,100200,
AFNE01.JPG,AFNE01.JPG,AFNE01.JPG,AFNE01.JPG,AFNE01.JPG,AFNE01.JPG,,,,,,,,,0,7,7,8,,,,,,,,,,,,,,,AFNE04.jpg,AFNE15.jpg,AFSA11.jpg,AFSA13.jpg,AFNE04.jpg,FN,3,num_8,16,num_8,0.68344659172,,,2017_Apr_11_1702,60.0194238588,FEMA4ImagesEEG,001,100200,
AFNE01.JPG,AFNE01.JPG,AFNE01.JPG,AFNE01.JPG,AFNE01.JPG,AFNE01.JPG,,,,,,,,,0,8,8,4,,,,,,,,,,,,,,,AFSA04.jpg,AFNE20.jpg,AFNE03.jpg,AFSA03.jpg,AFNE03.jpg,FN,3,num_2,16,num_2,0.733502512798,,,2017_Apr_11_1702,60.0194238588,FEMA4ImagesEEG,001,100200,
AFNE01.JPG,AFNE01.JPG,AFNE01.JPG,AFNE01.JPG,AFNE01.JPG,AFNE01.JPG,,,,,,,,,0,9,9,0,,,,,,,,,,,,,,,AFSA04.jpg,AFNE04.jpg,AFNE01.jpg,AFSA08.jpg,AFNE01.jpg,FN,3,num_2,32,num_4,1.45009402512,,,2017_Apr_11_1702,60.0194238588,FEMA4ImagesEEG,001,100200,
AFNE01.JPG,AFNE01.JPG,AFNE01.JPG,AFNE01.JPG,AFNE01.JPG,AFNE01.JPG,,,,,,,,,1,0,10,5,,,,,,,,,,,,,,,AFSA03.jpg,AFSA12.jpg,AFNE12.jpg,AFNE02.jpg,AFSA03.jpg,FS,4,num_8,16,num_8,0.750124527141,,,2017_Apr_11_1702,60.0194238588,FEMA4ImagesEEG,001,100200,
AFNE01.JPG,AFNE01.JPG,AFNE01.JPG,AFNE01.JPG,AFNE01.JPG,AFNE01.JPG,,,,,,,,,1,1,11,4,,,,,,,,,,,,,,,AFNE11.jpg,AFNE01.jpg,AFSA10.jpg,AFSA18.jpg,AFNE11.jpg,FN,3,num_8,32,num_2,1.01685070153,,,2017_Apr_11_1702,60.0194238588,FEMA4ImagesEEG,001,100200,
AFNE01.JPG,AFNE01.JPG,AFNE01.JPG,AFNE01.JPG,AFNE01.JPG,AFNE01.JPG,,,,,,,,,1,2,12,1,,,,,,,,,,,,,,,AFNE15.jpg,AFNE08.jpg,AFSA20.jpg,AFSA14.jpg,AFNE15.jpg,FN,3,num_8,16,num_8,0.483577325474,,,2017_Apr_11_1702,60.0194238588,FEMA4ImagesEEG,001,100200,
AFNE01.JPG,AFNE01.JPG,AFNE01.JPG,AFNE01.JPG,AFNE01.JPG,AFNE01.JPG,,,,,,,,,1,3,13,2,,,,,,,,,,,,,,,AFSA19.jpg,AFNE18.jpg,AFSA06.jpg,AFNE14.jpg,AFNE14.jpg,FN,3,num_4,32,num_6,0.983435077127,,,2017_Apr_11_1702,60.0194238588,FEMA4ImagesEEG,001,100200,
AFNE01.JPG,AFNE01.JPG,AFNE01.JPG,AFNE01.JPG,AFNE01.JPG,AFNE01.JPG,,,,,,,,,1,4,14,3,,,,,,,,,,,,,,,AFSA09.jpg,AFNE20.jpg,AFSA06.jpg,AFNE19.jpg,AFSA06.jpg,FS,4,num_2,16,num_2,1.00020912243,,,2017_Apr_11_1702,60.0194238588,FEMA4ImagesEEG,001,100200,
AFNE01.JPG,AFNE01.JPG,AFNE01.JPG,AFNE01.JPG,AFNE01.JPG,AFNE01.JPG,,,,,,,,,1,5,15,6,,,,,,,,,,,,,,,AFSA01.jpg,AFNE10.jpg,AFSA13.jpg,AFNE13.jpg,AFNE13.jpg,FN,3,num_4,32,num_2,1.11674893135,,,2017_Apr_11_1702,60.0194238588,FEMA4ImagesEEG,001,100200,
AFNE01.JPG,AFNE01.JPG,AFNE01.JPG,AFNE01.JPG,AFNE01.JPG,AFNE01.JPG,,,,,,,,,1,6,16,8,,,,,,,,,,,,,,,AFNE08.jpg,AFSA11.jpg,AFSA15.jpg,AFNE07.jpg,AFSA15.jpg,FS,4,num_2,32,num_6,1.43338893913,,,2017_Apr_11_1702,60.0194238588,FEMA4ImagesEEG,001,100200,
AFNE01.JPG,AFNE01.JPG,AFNE01.JPG,AFNE01.JPG,AFNE01.JPG,AFNE01.JPG,,,,,,,,,1,7,17,0,,,,,,,,,,,,,,,AFNE05.jpg,AFSA06.jpg,AFNE20.jpg,AFSA02.jpg,AFNE20.jpg,FN,3,num_2,16,num_2,0.733458571602,,,2017_Apr_11_1702,60.0194238588,FEMA4ImagesEEG,001,100200,
AFNE01.JPG,AFNE01.JPG,AFNE01.JPG,AFNE01.JPG,AFNE01.JPG,AFNE01.JPG,,,,,,,,,1,8,18,7,,,,,,,,,,,,,,,AFNE11.jpg,AFSA16.jpg,AFSA05.jpg,AFNE20.jpg,AFSA05.jpg,FS,4,num_2,16,num_2,1.15012350073,,,2017_Apr_11_1702,60.0194238588,FEMA4ImagesEEG,001,100200,
AFNE01.JPG,AFNE01.JPG,AFNE01.JPG,AFNE01.JPG,AFNE01.JPG,AFNE01.JPG,,,,,,,,,1,9,19,9,,,,,,,,,,,,,,,AFNE05.jpg,AFNE17.jpg,AFSA11.jpg,AFSA19.jpg,AFSA19.jpg,FS,4,num_4,16,num_4,0.700134037063,,,2017_Apr_11_1702,60.0194238588,FEMA4ImagesEEG,001,100200,
AFNE01.JPG,AFNE01.JPG,AFNE01.JPG,AFNE01.JPG,AFNE01.JPG,AFNE01.JPG,,,,,,,,,2,0,20,0,,,,,,,,,,,,,,,AFNE10.jpg,AFNE16.jpg,AFSA12.jpg,AFSA04.jpg,AFSA12.jpg,FS,4,num_2,16,num_2,1.45050393045,,,2017_Apr_11_1702,60.0194238588,FEMA4ImagesEEG,001,100200,
AFNE01.JPG,AFNE01.JPG,AFNE01.JPG,AFNE01.JPG,AFNE01.JPG,AFNE01.JPG,,,,,,,,,2,1,21,2,,,,,,,,,,,,,,,AFNE05.jpg,AFSA02.jpg,AFSA01.jpg,AFNE15.jpg,AFNE05.jpg,FN,3,num_8,16,num_8,0.9335023202,,,2017_Apr_11_1702,60.0194238588,FEMA4ImagesEEG,001,100200,
AFNE01.JPG,AFNE01.JPG,AFNE01.JPG,AFNE01.JPG,AFNE01.JPG,AFNE01.JPG,,,,,,,,,2,2,22,7,,,,,,,,,,,,,,,AFSA18.jpg,AFNE12.jpg,AFSA16.jpg,AFNE11.jpg,AFNE12.jpg,FN,3,num_6,16,num_6,0.816770388745,,,2017_Apr_11_1702,60.0194238588,FEMA4ImagesEEG,001,100200,
AFNE01.JPG,AFNE01.JPG,AFNE01.JPG,AFNE01.JPG,AFNE01.JPG,AFNE01.JPG,,,,,,,,,2,3,23,8,,,,,,,,,,,,,,,AFNE10.jpg,AFNE13.jpg,AFSA08.jpg,AFSA16.jpg,AFSA16.jpg,FS,4,num_4,32,num_2,1.13341200026,,,2017_Apr_11_1702,60.0194238588,FEMA4ImagesEEG,001,100200,
AFNE01.JPG,AFNE01.JPG,AFNE01.JPG,AFNE01.JPG,AFNE01.JPG,AFNE01.JPG,,,,,,,,,2,4,24,9,,,,,,,,,,,,,,,AFNE01.jpg,AFSA09.jpg,AFSA20.jpg,AFNE19.jpg,AFSA20.jpg,FS,4,num_2,16,num_2,0.83347002184,,,2017_Apr_11_1702,60.0194238588,FEMA4ImagesEEG,001,100200,
AFNE01.JPG,AFNE01.JPG,AFNE01.JPG,AFNE01.JPG,AFNE01.JPG,AFNE01.JPG,,,,,,,,,2,5,25,6,,,,,,,,,,,,,,,AFNE10.jpg,AFNE12.jpg,AFSA05.jpg,AFSA14.jpg,AFSA14.jpg,FS,4,num_4,16,num_4,2.41666813707,,,2017_Apr_11_1702,60.0194238588,FEMA4ImagesEEG,001,100200,
AFNE01.JPG,AFNE01.JPG,AFNE01.JPG,AFNE01.JPG,AFNE01.JPG,AFNE01.JPG,,,,,,,,,2,6,26,3,,,,,,,,,,,,,,,AFNE08.jpg,AFSA19.jpg,AFSA14.jpg,AFNE15.jpg,AFSA19.jpg,FS,4,num_6,16,num_6,1.50007521361,,,2017_Apr_11_1702,60.0194238588,FEMA4ImagesEEG,001,100200,
AFNE01.JPG,AFNE01.JPG,AFNE01.JPG,AFNE01.JPG,AFNE01.JPG,AFNE01.JPG,,,,,,,,,2,7,27,1,,,,,,,,,,,,,,,AFNE09.jpg,AFNE11.jpg,AFSA04.jpg,AFSA18.jpg,AFNE11.jpg,FN,3,num_6,32,num_2,0.666775824968,,,2017_Apr_11_1702,60.0194238588,FEMA4ImagesEEG,001,100200,
AFNE01.JPG,AFNE01.JPG,AFNE01.JPG,AFNE01.JPG,AFNE01.JPG,AFNE01.JPG,,,,,,,,,2,8,28,5,,,,,,,,,,,,,,,AFNE18.jpg,AFSA17.jpg,AFSA07.jpg,AFNE20.jpg,AFNE18.jpg,FN,3,num_8,16,num_8,0.933530866168,,,2017_Apr_11_1702,60.0194238588,FEMA4ImagesEEG,001,100200,
AFNE01.JPG,AFNE01.JPG,AFNE01.JPG,AFNE01.JPG,AFNE01.JPG,AFNE01.JPG,,,,,,,,,2,9,29,4,,,,,,,,,,,,,,,AFSA07.jpg,AFNE20.jpg,AFSA01.jpg,AFNE11.jpg,AFSA01.jpg,FS,4,num_2,16,num_2,0.96667129593,,,2017_Apr_11_1702,60.0194238588,FEMA4ImagesEEG,001,100200,
AFNE01.JPG,AFNE01.JPG,AFNE01.JPG,AFNE01.JPG,AFNE01.JPG,AFNE01.JPG,,,,,,,,,3,0,30,8,,,,,,,,,,,,,,,AFSA12.jpg,AFNE09.jpg,AFSA20.jpg,AFNE01.jpg,AFNE09.jpg,FN,3,num_6,32,num_4,0.766780860722,,,2017_Apr_11_1702,60.0194238588,FEMA4ImagesEEG,001,100200,
AFNE01.JPG,AFNE01.JPG,AFNE01.JPG,AFNE01.JPG,AFNE01.JPG,AFNE01.JPG,,,,,,,,,3,1,31,4,,,,,,,,,,,,,,,AFNE01.jpg,AFSA10.jpg,AFSA11.jpg,AFNE14.jpg,AFNE14.jpg,FN,3,num_4,32,num_8,0.916857533157,,,2017_Apr_11_1702,60.0194238588,FEMA4ImagesEEG,001,100200,
AFNE01.JPG,AFNE01.JPG,AFNE01.JPG,AFNE01.JPG,AFNE01.JPG,AFNE01.JPG,,,,,,,,,3,2,32,6,,,,,,,,,,,,,,,AFSA14.jpg,AFNE15.jpg,AFSA03.jpg,AFNE18.jpg,AFNE18.jpg,FN,3,num_4,16,num_4,0.716827896889,,,2017_Apr_11_1702,60.0194238588,FEMA4ImagesEEG,001,100200,
AFNE01.JPG,AFNE01.JPG,AFNE01.JPG,AFNE01.JPG,AFNE01.JPG,AFNE01.JPG,,,,,,,,,3,3,33,5,,,,,,,,,,,,,,,AFSA10.jpg,AFNE10.jpg,AFNE01.jpg,AFSA04.jpg,AFNE01.jpg,FN,3,num_2,32,num_4,0.883466285188,,,2017_Apr_11_1702,60.0194238588,FEMA4ImagesEEG,001,100200,
AFNE01.JPG,AFNE01.JPG,AFNE01.JPG,AFNE01.JPG,AFNE01.JPG,AFNE01.JPG,,,,,,,,,3,4,34,3,,,,,,,,,,,,,,,AFSA13.jpg,AFNE02.jpg,AFNE10.jpg,AFSA14.jpg,AFSA14.jpg,FS,4,num_4,16,num_4,0.683480911423,,,2017_Apr_11_1702,60.0194238588,FEMA4ImagesEEG,001,100200,
AFNE01.JPG,AFNE01.JPG,AFNE01.JPG,AFNE01.JPG,AFNE01.JPG,AFNE01.JPG,,,,,,,,,3,5,35,1,,,,,,,,,,,,,,,AFSA09.jpg,AFNE18.jpg,AFNE03.jpg,AFSA06.jpg,AFNE18.jpg,FN,3,num_6,32,num_2,0.85009588534,,,2017_Apr_11_1702,60.0194238588,FEMA4ImagesEEG,001,100200,
AFNE01.JPG,AFNE01.JPG,AFNE01.JPG,AFNE01.JPG,AFNE01.JPG,AFNE01.JPG,,,,,,,,,3,6,36,9,,,,,,,,,,,,,,,AFSA05.jpg,AFNE06.jpg,AFSA07.jpg,AFNE08.jpg,AFSA07.jpg,FS,4,num_2,32,num_8,0.883543583564,,,2017_Apr_11_1702,60.0194238588,FEMA4ImagesEEG,001,100200,
AFNE01.JPG,AFNE01.JPG,AFNE01.JPG,AFNE01.JPG,AFNE01.JPG,AFNE01.JPG,,,,,,,,,3,7,37,2,,,,,,,,,,,,,,,AFSA18.jpg,AFNE03.jpg,AFNE19.jpg,AFSA07.jpg,AFNE03.jpg,FN,3,num_6,32,num_2,2.53325445252,,,2017_Apr_11_1702,60.0194238588,FEMA4ImagesEEG,001,100200,
AFNE01.JPG,AFNE01.JPG,AFNE01.JPG,AFNE01.JPG,AFNE01.JPG,AFNE01.JPG,,,,,,,,,3,8,38,0,,,,,,,,,,,,,,,AFNE15.jpg,AFNE16.jpg,AFSA03.jpg,AFSA08.jpg,AFNE16.jpg,FN,3,num_6,32,num_4,1.03349805437,,,2017_Apr_11_1702,60.0194238588,FEMA4ImagesEEG,001,100200,
AFNE01.JPG,AFNE01.JPG,AFNE01.JPG,AFNE01.JPG,AFNE01.JPG,AFNE01.JPG,,,,,,,,,3,9,39,7,,,,,,,,,,,,,,,AFNE03.jpg,AFNE13.jpg,AFSA03.jpg,AFSA14.jpg,AFNE03.jpg,FN,3,num_8,16,num_8,0.583403709345,,,2017_Apr_11_1702,60.0194238588,FEMA4ImagesEEG,001,100200,
AFNE01.JPG,AFNE01.JPG,AFNE01.JPG,AFNE01.JPG,AFNE01.JPG,AFNE01.JPG,,,,,,,,,4,0,40,7,,,,,,,,,,,,,,,AFNE14.jpg,AFSA18.jpg,AFNE10.jpg,AFSA02.jpg,AFSA02.jpg,FS,4,num_4,16,num_4,0.700153922662,,,2017_Apr_11_1702,60.0194238588,FEMA4ImagesEEG,001,100200,
AFNE01.JPG,AFNE01.JPG,AFNE01.JPG,AFNE01.JPG,AFNE01.JPG,AFNE01.JPG,,,,,,,,,4,1,41,3,,,,,,,,,,,,,,,AFNE14.jpg,AFSA07.jpg,AFNE10.jpg,AFSA06.jpg,AFNE14.jpg,FN,3,num_8,16,num_8,1.10014872719,,,2017_Apr_11_1702,60.0194238588,FEMA4ImagesEEG,001,100200,
AFNE01.JPG,AFNE01.JPG,AFNE01.JPG,AFNE01.JPG,AFNE01.JPG,AFNE01.JPG,,,,,,,,,4,2,42,1,,,,,,,,,,,,,,,AFSA06.jpg,AFSA05.jpg,AFNE20.jpg,AFNE17.jpg,AFNE17.jpg,FN,3,num_4,16,num_4,0.683466477785,,,2017_Apr_11_1702,60.0194238588,FEMA4ImagesEEG,001,100200,
AFNE01.JPG,AFNE01.JPG,AFNE01.JPG,AFNE01.JPG,AFNE01.JPG,AFNE01.JPG,,,,,,,,,4,3,43,9,,,,,,,,,,,,,,,AFNE06.jpg,AFSA02.jpg,AFSA17.jpg,AFNE04.jpg,AFSA17.jpg,FS,4,num_2,16,num_2,0.583423274104,,,2017_Apr_11_1702,60.0194238588,FEMA4ImagesEEG,001,100200,
AFNE01.JPG,AFNE01.JPG,AFNE01.JPG,AFNE01.JPG,AFNE01.JPG,AFNE01.JPG,,,,,,,,,4,4,44,6,,,,,,,,,,,,,,,AFSA19.jpg,AFNE09.jpg,AFSA03.jpg,AFNE03.jpg,AFSA19.jpg,FS,4,num_8,32,num_2,0.950114391744,,,2017_Apr_11_1702,60.0194238588,FEMA4ImagesEEG,001,100200,
AFNE01.JPG,AFNE01.JPG,AFNE01.JPG,AFNE01.JPG,AFNE01.JPG,AFNE01.JPG,,,,,,,,,4,5,45,8,,,,,,,,,,,,,,,AFNE11.jpg,AFSA07.jpg,AFSA10.jpg,AFNE02.jpg,AFSA07.jpg,FS,4,num_6,32,num_8,0.600133812521,,,2017_Apr_11_1702,60.0194238588,FEMA4ImagesEEG,001,100200,
AFNE01.JPG,AFNE01.JPG,AFNE01.JPG,AFNE01.JPG,AFNE01.JPG,AFNE01.JPG,,,,,,,,,4,6,46,2,,,,,,,,,,,,,,,AFNE14.jpg,AFSA10.jpg,AFNE07.jpg,AFSA07.jpg,AFSA07.jpg,FS,4,num_4,32,num_2,0.883491303306,,,2017_Apr_11_1702,60.0194238588,FEMA4ImagesEEG,001,100200,
AFNE01.JPG,AFNE01.JPG,AFNE01.JPG,AFNE01.JPG,AFNE01.JPG,AFNE01.JPG,,,,,,,,,4,7,47,5,,,,,,,,,,,,,,,AFNE17.jpg,AFSA01.jpg,AFSA08.jpg,AFNE12.jpg,AFSA01.jpg,FS,4,num_6,32,num_4,1.35012010112,,,2017_Apr_11_1702,60.0194238588,FEMA4ImagesEEG,001,100200,
AFNE01.JPG,AFNE01.JPG,AFNE01.JPG,AFNE01.JPG,AFNE01.JPG,AFNE01.JPG,,,,,,,,,4,8,48,4,,,,,,,,,,,,,,,AFSA09.jpg,AFNE03.jpg,AFNE04.jpg,AFSA05.jpg,AFSA05.jpg,FS,4,num_4,16,num_4,1.13325804519,,,2017_Apr_11_1702,60.0194238588,FEMA4ImagesEEG,001,100200,
AFNE01.JPG,AFNE01.JPG,AFNE01.JPG,AFNE01.JPG,AFNE01.JPG,AFNE01.JPG,,,,,,,,,4,9,49,0,,,,,,,,,,,,,,,AFNE04.jpg,AFSA08.jpg,AFNE09.jpg,AFSA10.jpg,AFNE04.jpg,FN,3,num_8,16,num_8,0.616759675555,,,2017_Apr_11_1702,60.0194238588,FEMA4ImagesEEG,001,100200,
AFNE01.JPG,AFNE01.JPG,AFNE01.JPG,AFNE01.JPG,AFNE01.JPG,AFNE01.JPG,,,,,,,,,5,0,50,8,,,,,,,,,,,,,,,AFNE19.jpg,AFSA20.jpg,AFNE08.jpg,AFSA12.jpg,AFNE19.jpg,FN,3,num_8,16,num_8,0.850141430274,,,2017_Apr_11_1702,60.0194238588,FEMA4ImagesEEG,001,100200,
AFNE01.JPG,AFNE01.JPG,AFNE01.JPG,AFNE01.JPG,AFNE01.JPG,AFNE01.JPG,,,,,,,,,5,1,51,6,,,,,,,,,,,,,,,AFNE02.jpg,AFSA11.jpg,AFSA12.jpg,AFNE05.jpg,AFSA11.jpg,FS,4,num_6,16,num_6,1.11674444051,,,2017_Apr_11_1702,60.0194238588,FEMA4ImagesEEG,001,100200,
AFNE01.JPG,AFNE01.JPG,AFNE01.JPG,AFNE01.JPG,AFNE01.JPG,AFNE01.JPG,,,,,,,,,5,2,52,3,,,,,,,,,,,,,,,AFSA13.jpg,AFSA11.jpg,AFNE19.jpg,AFNE04.jpg,AFSA13.jpg,FS,4,num_8,16,num_8,1.28340816731,,,2017_Apr_11_1702,60.0194238588,FEMA4ImagesEEG,001,100200,
AFNE01.JPG,AFNE01.JPG,AFNE01.JPG,AFNE01.JPG,AFNE01.JPG,AFNE01.JPG,,,,,,,,,5,3,53,5,,,,,,,,,,,,,,,AFNE12.jpg,AFSA02.jpg,AFSA03.jpg,AFNE04.jpg,AFSA02.jpg,FS,4,num_6,32,num_4,1.45013219258,,,2017_Apr_11_1702,60.0194238588,FEMA4ImagesEEG,001,100200,
AFNE01.JPG,AFNE01.JPG,AFNE01.JPG,AFNE01.JPG,AFNE01.JPG,AFNE01.JPG,,,,,,,,,5,4,54,4,,,,,,,,,,,,,,,AFNE10.jpg,AFNE01.jpg,AFSA02.jpg,AFSA14.jpg,AFNE10.jpg,FN,3,num_8,16,num_8,1.11679255171,,,2017_Apr_11_1702,60.0194238588,FEMA4ImagesEEG,001,100200,
AFNE01.JPG,AFNE01.JPG,AFNE01.JPG,AFNE01.JPG,AFNE01.JPG,AFNE01.JPG,,,,,,,,,5,5,55,2,,,,,,,,,,,,,,,AFSA16.jpg,AFNE17.jpg,AFSA15.jpg,AFNE07.jpg,AFNE17.jpg,FN,3,num_6,16,num_6,0.833476115949,,,2017_Apr_11_1702,60.0194238588,FEMA4ImagesEEG,001,100200,
AFNE01.JPG,AFNE01.JPG,AFNE01.JPG,AFNE01.JPG,AFNE01.JPG,AFNE01.JPG,,,,,,,,,5,6,56,0,,,,,,,,,,,,,,,AFSA11.jpg,AFNE16.jpg,AFNE05.jpg,AFSA15.jpg,AFNE05.jpg,FN,3,num_2,16,num_2,0.700147508178,,,2017_Apr_11_1702,60.0194238588,FEMA4ImagesEEG,001,100200,
AFNE01.JPG,AFNE01.JPG,AFNE01.JPG,AFNE01.JPG,AFNE01.JPG,AFNE01.JPG,,,,,,,,,5,7,57,9,,,,,,,,,,,,,,,AFNE19.jpg,AFNE07.jpg,AFSA13.jpg,AFSA16.jpg,AFSA13.jpg,FS,4,num_2,16,num_2,1.01681157155,,,2017_Apr_11_1702,60.0194238588,FEMA4ImagesEEG,001,100200,
AFNE01.JPG,AFNE01.JPG,AFNE01.JPG,AFNE01.JPG,AFNE01.JPG,AFNE01.JPG,,,,,,,,,5,8,58,7,,,,,,,,,,,,,,,AFSA06.jpg,AFNE01.jpg,AFNE14.jpg,AFSA20.jpg,AFSA20.jpg,FS,4,num_4,16,num_4,0.650207695086,,,2017_Apr_11_1702,60.0194238588,FEMA4ImagesEEG,001,100200,
AFNE01.JPG,AFNE01.JPG,AFNE01.JPG,AFNE01.JPG,AFNE01.JPG,AFNE01.JPG,,,,,,,,,5,9,59,1,,,,,,,,,,,,,,,AFSA12.jpg,AFSA15.jpg,AFNE20.jpg,AFNE06.jpg,AFNE20.jpg,FN,3,num_2,16,num_2,0.650105699897,,,2017_Apr_11_1702,60.0194238588,FEMA4ImagesEEG,001,100200,
,,,,,,,,,,,,,,,,,,,,,,,,,,,,,,,,,,,,,,,,,,,space,1.71668420592,2017_Apr_11_1702,60.0194238588,FEMA4ImagesEEG,001,100200,
AFNE01.JPG,AFNE01.JPG,AFNE01.JPG,AFNE01.JPG,AFNE01.JPG,AFNE01.JPG,,,,,,,,,,,,,0,0,0,2,,,,,,,,,,,AMSA06.jpg,AMNE03.jpg,AMNE18.jpg,AMSA09.jpg,AMSA09.jpg,MS,2,num_4,32,num_6,0.933477623854,,,2017_Apr_11_1702,60.0194238588,FEMA4ImagesEEG,001,100200,
AFNE01.JPG,AFNE01.JPG,AFNE01.JPG,AFNE01.JPG,AFNE01.JPG,AFNE01.JPG,,,,,,,,,,,,,0,1,1,8,,,,,,,,,,,AMNE20.jpg,AMSA11.jpg,AMNE02.jpg,AMSA19.jpg,AMNE02.jpg,MN,1,num_2,32,num_8,0.716751881875,,,2017_Apr_11_1702,60.0194238588,FEMA4ImagesEEG,001,100200,
AFNE01.JPG,AFNE01.JPG,AFNE01.JPG,AFNE01.JPG,AFNE01.JPG,AFNE01.JPG,,,,,,,,,,,,,0,2,2,7,,,,,,,,,,,AMSA11.jpg,AMNE05.jpg,AMNE20.jpg,AMSA19.jpg,AMNE05.jpg,MN,1,num_6,16,num_6,0.783334557433,,,2017_Apr_11_1702,60.0194238588,FEMA4ImagesEEG,001,100200,
AFNE01.JPG,AFNE01.JPG,AFNE01.JPG,AFNE01.JPG,AFNE01.JPG,AFNE01.JPG,,,,,,,,,,,,,0,3,3,0,,,,,,,,,,,AMNE01.jpg,AMNE10.jpg,AMSA01.jpg,AMSA03.jpg,AMNE10.jpg,MN,1,num_6,32,num_4,0.800118224695,,,2017_Apr_11_1702,60.0194238588,FEMA4ImagesEEG,001,100200,
AFNE01.JPG,AFNE01.JPG,AFNE01.JPG,AFNE01.JPG,AFNE01.JPG,AFNE01.JPG,,,,,,,,,,,,,0,4,4,5,,,,,,,,,,,AMSA03.jpg,AMNE09.jpg,AMNE06.jpg,AMSA04.jpg,AMSA03.jpg,MS,2,num_8,32,num_4,0.800111809745,,,2017_Apr_11_1702,60.0194238588,FEMA4ImagesEEG,001,100200,
AFNE01.JPG,AFNE01.JPG,AFNE01.JPG,AFNE01.JPG,AFNE01.JPG,AFNE01.JPG,,,,,,,,,,,,,0,5,5,3,,,,,,,,,,,AMSA19.jpg,AMSA08.jpg,AMNE17.jpg,AMNE16.jpg,AMSA19.jpg,MS,2,num_8,32,num_2,1.75004786998,,,2017_Apr_11_1702,60.0194238588,FEMA4ImagesEEG,001,100200,
AFNE01.JPG,AFNE01.JPG,AFNE01.JPG,AFNE01.JPG,AFNE01.JPG,AFNE01.JPG,,,,,,,,,,,,,0,6,6,6,,,,,,,,,,,AMNE19.jpg,AMSA04.jpg,AMNE03.jpg,AMSA10.jpg,AMSA10.jpg,MS,2,num_4,32,num_2,1.45011262735,,,2017_Apr_11_1702,60.0194238588,FEMA4ImagesEEG,001,100200,
AFNE01.JPG,AFNE01.JPG,AFNE01.JPG,AFNE01.JPG,AFNE01.JPG,AFNE01.JPG,,,,,,,,,,,,,0,7,7,9,,,,,,,,,,,AMNE07.jpg,AMSA01.jpg,AMSA16.jpg,AMNE01.jpg,AMSA16.jpg,MS,2,num_2,16,num_2,1.11675053462,,,2017_Apr_11_1702,60.0194238588,FEMA4ImagesEEG,001,100200,
AFNE01.JPG,AFNE01.JPG,AFNE01.JPG,AFNE01.JPG,AFNE01.JPG,AFNE01.JPG,,,,,,,,,,,,,0,8,8,1,,,,,,,,,,,AMSA19.jpg,AMNE13.jpg,AMSA10.jpg,AMNE20.jpg,AMSA19.jpg,MS,2,num_8,32,num_4,0.866810593288,,,2017_Apr_11_1702,60.0194238588,FEMA4ImagesEEG,001,100200,
AFNE01.JPG,AFNE01.JPG,AFNE01.JPG,AFNE01.JPG,AFNE01.JPG,AFNE01.JPG,,,,,,,,,,,,,0,9,9,4,,,,,,,,,,,AMNE13.jpg,AMSA02.jpg,AMSA15.jpg,AMNE17.jpg,AMSA02.jpg,MS,2,num_6,16,num_6,0.833544112742,,,2017_Apr_11_1702,60.0194238588,FEMA4ImagesEEG,001,100200,
AFNE01.JPG,AFNE01.JPG,AFNE01.JPG,AFNE01.JPG,AFNE01.JPG,AFNE01.JPG,,,,,,,,,,,,,1,0,10,4,,,,,,,,,,,AMNE09.jpg,AMSA13.jpg,AMNE06.jpg,AMSA07.jpg,AMSA13.jpg,MS,2,num_6,32,num_2,0.783446495421,,,2017_Apr_11_1702,60.0194238588,FEMA4ImagesEEG,001,100200,
AFNE01.JPG,AFNE01.JPG,AFNE01.JPG,AFNE01.JPG,AFNE01.JPG,AFNE01.JPG,,,,,,,,,,,,,1,1,11,8,,,,,,,,,,,AMNE12.jpg,AMSA16.jpg,AMNE07.jpg,AMSA18.jpg,AMSA18.jpg,MS,2,num_4,16,num_4,0.516818146687,,,2017_Apr_11_1702,60.0194238588,FEMA4ImagesEEG,001,100200,
AFNE01.JPG,AFNE01.JPG,AFNE01.JPG,AFNE01.JPG,AFNE01.JPG,AFNE01.JPG,,,,,,,,,,,,,1,2,12,0,,,,,,,,,,,AMSA12.jpg,AMNE12.jpg,AMSA01.jpg,AMNE10.jpg,AMSA01.jpg,MS,2,num_2,16,num_2,0.816848328337,,,2017_Apr_11_1702,60.0194238588,FEMA4ImagesEEG,001,100200,
AFNE01.JPG,AFNE01.JPG,AFNE01.JPG,AFNE01.JPG,AFNE01.JPG,AFNE01.JPG,,,,,,,,,,,,,1,3,13,9,,,,,,,,,,,AMSA08.jpg,AMNE16.jpg,AMNE10.jpg,AMSA20.jpg,AMNE16.jpg,MN,1,num_6,16,num_6,0.900099525694,,,2017_Apr_11_1702,60.0194238588,FEMA4ImagesEEG,001,100200,
AFNE01.JPG,AFNE01.JPG,AFNE01.JPG,AFNE01.JPG,AFNE01.JPG,AFNE01.JPG,,,,,,,,,,,,,1,4,14,6,,,,,,,,,,,AMNE10.jpg,AMSA17.jpg,AMSA18.jpg,AMNE20.jpg,AMSA18.jpg,MS,2,num_2,16,num_2,1.28343831655,,,2017_Apr_11_1702,60.0194238588,FEMA4ImagesEEG,001,100200,
AFNE01.JPG,AFNE01.JPG,AFNE01.JPG,AFNE01.JPG,AFNE01.JPG,AFNE01.JPG,,,,,,,,,,,,,1,5,15,3,,,,,,,,,,,AMSA06.jpg,AMNE20.jpg,AMSA19.jpg,AMNE09.jpg,AMNE09.jpg,MN,1,num_4,16,num_4,0.900138013996,,,2017_Apr_11_1702,60.0194238588,FEMA4ImagesEEG,001,100200,
AFNE01.JPG,AFNE01.JPG,AFNE01.JPG,AFNE01.JPG,AFNE01.JPG,AFNE01.JPG,,,,,,,,,,,,,1,6,16,5,,,,,,,,,,,AMSA17.jpg,AMNE05.jpg,AMNE02.jpg,AMSA18.jpg,AMSA17.jpg,MS,2,num_8,32,num_6,1.81672003213,,,2017_Apr_11_1702,60.0194238588,FEMA4ImagesEEG,001,100200,
AFNE01.JPG,AFNE01.JPG,AFNE01.JPG,AFNE01.JPG,AFNE01.JPG,AFNE01.JPG,,,,,,,,,,,,,1,7,17,1,,,,,,,,,,,AMNE19.jpg,AMSA10.jpg,AMSA20.jpg,AMNE12.jpg,AMSA20.jpg,MS,2,num_2,16,num_2,1.91657688655,,,2017_Apr_11_1702,60.0194238588,FEMA4ImagesEEG,001,100200,
AFNE01.JPG,AFNE01.JPG,AFNE01.JPG,AFNE01.JPG,AFNE01.JPG,AFNE01.JPG,,,,,,,,,,,,,1,8,18,2,,,,,,,,,,,AMNE20.jpg,AMSA05.jpg,AMSA12.jpg,AMNE01.jpg,AMNE20.jpg,MN,1,num_8,16,num_8,1.03342717094,,,2017_Apr_11_1702,60.0194238588,FEMA4ImagesEEG,001,100200,
AFNE01.JPG,AFNE01.JPG,AFNE01.JPG,AFNE01.JPG,AFNE01.JPG,AFNE01.JPG,,,,,,,,,,,,,1,9,19,7,,,,,,,,,,,AMNE17.jpg,AMNE03.jpg,AMSA17.jpg,AMSA20.jpg,AMNE03.jpg,MN,1,num_6,32,num_4,0.950106373057,,,2017_Apr_11_1702,60.0194238588,FEMA4ImagesEEG,001,100200,
AFNE01.JPG,AFNE01.JPG,AFNE01.JPG,AFNE01.JPG,AFNE01.JPG,AFNE01.JPG,,,,,,,,,,,,,2,0,20,9,,,,,,,,,,,AMSA18.jpg,AMSA17.jpg,AMNE09.jpg,AMNE17.jpg,AMSA17.jpg,MS,2,num_6,16,num_6,1.23347444786,,,2017_Apr_11_1702,60.0194238588,FEMA4ImagesEEG,001,100200,
AFNE01.JPG,AFNE01.JPG,AFNE01.JPG,AFNE01.JPG,AFNE01.JPG,AFNE01.JPG,,,,,,,,,,,,,2,1,21,4,,,,,,,,,,,AMSA11.jpg,AMNE01.jpg,AMNE04.jpg,AMSA20.jpg,AMNE01.jpg,MN,1,num_6,16,num_6,0.550153586082,,,2017_Apr_11_1702,60.0194238588,FEMA4ImagesEEG,001,100200,
AFNE01.JPG,AFNE01.JPG,AFNE01.JPG,AFNE01.JPG,AFNE01.JPG,AFNE01.JPG,,,,,,,,,,,,,2,2,22,2,,,,,,,,,,,AMSA20.jpg,AMNE03.jpg,AMSA04.jpg,AMNE09.jpg,AMNE09.jpg,MN,1,num_4,16,num_4,0.533513289411,,,2017_Apr_11_1702,60.0194238588,FEMA4ImagesEEG,001,100200,
AFNE01.JPG,AFNE01.JPG,AFNE01.JPG,AFNE01.JPG,AFNE01.JPG,AFNE01.JPG,,,,,,,,,,,,,2,3,23,0,,,,,,,,,,,AMSA03.jpg,AMNE15.jpg,AMSA14.jpg,AMNE02.jpg,AMSA14.jpg,MS,2,num_2,16,num_2,0.650172413792,,,2017_Apr_11_1702,60.0194238588,FEMA4ImagesEEG,001,100200,
AFNE01.JPG,AFNE01.JPG,AFNE01.JPG,AFNE01.JPG,AFNE01.JPG,AFNE01.JPG,,,,,,,,,,,,,2,4,24,1,,,,,,,,,,,AMSA15.jpg,AMSA08.jpg,AMNE04.jpg,AMNE17.jpg,AMNE17.jpg,MN,1,num_4,16,num_4,1.35015858989,,,2017_Apr_11_1702,60.0194238588,FEMA4ImagesEEG,001,100200,
AFNE01.JPG,AFNE01.JPG,AFNE01.JPG,AFNE01.JPG,AFNE01.JPG,AFNE01.JPG,,,,,,,,,,,,,2,5,25,3,,,,,,,,,,,AMSA11.jpg,AMNE19.jpg,AMNE15.jpg,AMSA05.jpg,AMNE15.jpg,MN,1,num_2,32,num_6,0.85014624102,,,2017_Apr_11_1702,60.0194238588,FEMA4ImagesEEG,001,100200,
AFNE01.JPG,AFNE01.JPG,AFNE01.JPG,AFNE01.JPG,AFNE01.JPG,AFNE01.JPG,,,,,,,,,,,,,2,6,26,6,,,,,,,,,,,AMSA20.jpg,AMSA19.jpg,AMNE02.jpg,AMNE05.jpg,AMNE02.jpg,MN,1,num_2,16,num_2,0.916790819727,,,2017_Apr_11_1702,60.0194238588,FEMA4ImagesEEG,001,100200,
AFNE01.JPG,AFNE01.JPG,AFNE01.JPG,AFNE01.JPG,AFNE01.JPG,AFNE01.JPG,,,,,,,,,,,,,2,7,27,5,,,,,,,,,,,AMSA12.jpg,AMNE20.jpg,AMSA01.jpg,AMNE11.jpg,AMNE20.jpg,MN,1,num_6,16,num_6,1.06664040871,,,2017_Apr_11_1702,60.0194238588,FEMA4ImagesEEG,001,100200,
AFNE01.JPG,AFNE01.JPG,AFNE01.JPG,AFNE01.JPG,AFNE01.JPG,AFNE01.JPG,,,,,,,,,,,,,2,8,28,7,,,,,,,,,,,AMNE19.jpg,AMNE14.jpg,AMSA09.jpg,AMSA19.jpg,AMNE14.jpg,MN,1,num_6,16,num_6,0.650241372641,,,2017_Apr_11_1702,60.0194238588,FEMA4ImagesEEG,001,100200,
AFNE01.JPG,AFNE01.JPG,AFNE01.JPG,AFNE01.JPG,AFNE01.JPG,AFNE01.JPG,,,,,,,,,,,,,2,9,29,8,,,,,,,,,,,AMSA18.jpg,AMSA17.jpg,AMNE10.jpg,AMNE03.jpg,AMSA18.jpg,MS,2,num_8,16,num_8,0.683479627594,,,2017_Apr_11_1702,60.0194238588,FEMA4ImagesEEG,001,100200,
AFNE01.JPG,AFNE01.JPG,AFNE01.JPG,AFNE01.JPG,AFNE01.JPG,AFNE01.JPG,,,,,,,,,,,,,3,0,30,3,,,,,,,,,,,AMNE09.jpg,AMNE18.jpg,AMSA13.jpg,AMSA16.jpg,AMSA16.jpg,MS,2,num_4,16,num_4,0.916788895149,,,2017_Apr_11_1702,60.0194238588,FEMA4ImagesEEG,001,100200,
AFNE01.JPG,AFNE01.JPG,AFNE01.JPG,AFNE01.JPG,AFNE01.JPG,AFNE01.JPG,,,,,,,,,,,,,3,1,31,8,,,,,,,,,,,AMNE09.jpg,AMSA19.jpg,AMNE12.jpg,AMSA16.jpg,AMNE09.jpg,MN,1,num_8,16,num_8,0.900423472747,,,2017_Apr_11_1702,60.0194238588,FEMA4ImagesEEG,001,100200,
AFNE01.JPG,AFNE01.JPG,AFNE01.JPG,AFNE01.JPG,AFNE01.JPG,AFNE01.JPG,,,,,,,,,,,,,3,2,32,1,,,,,,,,,,,AMNE17.jpg,AMNE02.jpg,AMSA04.jpg,AMSA12.jpg,AMSA04.jpg,MS,2,num_2,16,num_2,0.616790466942,,,2017_Apr_11_1702,60.0194238588,FEMA4ImagesEEG,001,100200,
AFNE01.JPG,AFNE01.JPG,AFNE01.JPG,AFNE01.JPG,AFNE01.JPG,AFNE01.JPG,,,,,,,,,,,,,3,3,33,7,,,,,,,,,,,AMSA09.jpg,AMSA08.jpg,AMNE07.jpg,AMNE16.jpg,AMNE16.jpg,MN,1,num_4,16,num_4,0.550178924575,,,2017_Apr_11_1702,60.0194238588,FEMA4ImagesEEG,001,100200,
AFNE01.JPG,AFNE01.JPG,AFNE01.JPG,AFNE01.JPG,AFNE01.JPG,AFNE01.JPG,,,,,,,,,,,,,3,4,34,6,,,,,,,,,,,AMNE16.jpg,AMNE05.jpg,AMSA19.jpg,AMSA15.jpg,AMNE05.jpg,MN,1,num_6,16,num_6,1.28341361973,,,2017_Apr_11_1702,60.0194238588,FEMA4ImagesEEG,001,100200,
AFNE01.JPG,AFNE01.JPG,AFNE01.JPG,AFNE01.JPG,AFNE01.JPG,AFNE01.JPG,,,,,,,,,,,,,3,5,35,5,,,,,,,,,,,AMSA07.jpg,AMNE18.jpg,AMNE17.jpg,AMSA18.jpg,AMNE17.jpg,MN,1,num_2,32,num_6,0.81678353902,,,2017_Apr_11_1702,60.0194238588,FEMA4ImagesEEG,001,100200,
AFNE01.JPG,AFNE01.JPG,AFNE01.JPG,AFNE01.JPG,AFNE01.JPG,AFNE01.JPG,,,,,,,,,,,,,3,6,36,2,,,,,,,,,,,AMNE07.jpg,AMSA20.jpg,AMNE06.jpg,AMSA01.jpg,AMNE07.jpg,MN,1,num_8,16,num_8,0.550173472147,,,2017_Apr_11_1702,60.0194238588,FEMA4ImagesEEG,001,100200,
AFNE01.JPG,AFNE01.JPG,AFNE01.JPG,AFNE01.JPG,AFNE01.JPG,AFNE01.JPG,,,,,,,,,,,,,3,7,37,4,,,,,,,,,,,AMNE04.jpg,AMSA19.jpg,AMNE20.jpg,AMSA11.jpg,AMNE20.jpg,MN,1,num_2,32,num_6,1.23345552478,,,2017_Apr_11_1702,60.0194238588,FEMA4ImagesEEG,001,100200,
AFNE01.JPG,AFNE01.JPG,AFNE01.JPG,AFNE01.JPG,AFNE01.JPG,AFNE01.JPG,,,,,,,,,,,,,3,8,38,9,,,,,,,,,,,AMNE10.jpg,AMSA13.jpg,AMNE04.jpg,AMSA05.jpg,AMNE04.jpg,MN,1,num_2,16,num_2,1.01661656192,,,2017_Apr_11_1702,60.0194238588,FEMA4ImagesEEG,001,100200,
AFNE01.JPG,AFNE01.JPG,AFNE01.JPG,AFNE01.JPG,AFNE01.JPG,AFNE01.JPG,,,,,,,,,,,,,3,9,39,0,,,,,,,,,,,AMNE05.jpg,AMSA17.jpg,AMNE12.jpg,AMSA09.jpg,AMSA09.jpg,MS,2,num_4,16,num_4,0.566773034632,,,2017_Apr_11_1702,60.0194238588,FEMA4ImagesEEG,001,100200,
AFNE01.JPG,AFNE01.JPG,AFNE01.JPG,AFNE01.JPG,AFNE01.JPG,AFNE01.JPG,,,,,,,,,,,,,4,0,40,1,,,,,,,,,,,AMSA06.jpg,AMSA17.jpg,AMNE02.jpg,AMNE11.jpg,AMNE02.jpg,MN,1,num_2,32,num_4,0.816754993051,,,2017_Apr_11_1702,60.0194238588,FEMA4ImagesEEG,001,100200,
AFNE01.JPG,AFNE01.JPG,AFNE01.JPG,AFNE01.JPG,AFNE01.JPG,AFNE01.JPG,,,,,,,,,,,,,4,1,41,2,,,,,,,,,,,AMSA15.jpg,AMNE06.jpg,AMSA04.jpg,AMNE11.jpg,AMNE11.jpg,MN,1,num_4,32,num_8,1.13340911316,,,2017_Apr_11_1702,60.0194238588,FEMA4ImagesEEG,001,100200,
AFNE01.JPG,AFNE01.JPG,AFNE01.JPG,AFNE01.JPG,AFNE01.JPG,AFNE01.JPG,,,,,,,,,,,,,4,2,42,7,,,,,,,,,,,AMSA14.jpg,AMNE20.jpg,AMSA04.jpg,AMNE08.jpg,AMSA04.jpg,MS,2,num_2,16,num_2,1.18339703791,,,2017_Apr_11_1702,60.0194238588,FEMA4ImagesEEG,001,100200,
AFNE01.JPG,AFNE01.JPG,AFNE01.JPG,AFNE01.JPG,AFNE01.JPG,AFNE01.JPG,,,,,,,,,,,,,4,3,43,8,,,,,,,,,,,AMNE17.jpg,AMNE12.jpg,AMSA09.jpg,AMSA15.jpg,AMNE12.jpg,MN,1,num_6,16,num_6,1.40009359177,,,2017_Apr_11_1702,60.0194238588,FEMA4ImagesEEG,001,100200,
AFNE01.JPG,AFNE01.JPG,AFNE01.JPG,AFNE01.JPG,AFNE01.JPG,AFNE01.JPG,,,,,,,,,,,,,4,4,44,5,,,,,,,,,,,AMSA04.jpg,AMSA14.jpg,AMNE17.jpg,AMNE08.jpg,AMNE17.jpg,MN,1,num_2,32,num_8,0.866762482561,,,2017_Apr_11_1702,60.0194238588,FEMA4ImagesEEG,001,100200,
AFNE01.JPG,AFNE01.JPG,AFNE01.JPG,AFNE01.JPG,AFNE01.JPG,AFNE01.JPG,,,,,,,,,,,,,4,5,45,0,,,,,,,,,,,AMNE15.jpg,AMSA03.jpg,AMNE14.jpg,AMSA10.jpg,AMNE15.jpg,MN,1,num_8,16,num_8,1.1001833668,,,2017_Apr_11_1702,60.0194238588,FEMA4ImagesEEG,001,100200,
AFNE01.JPG,AFNE01.JPG,AFNE01.JPG,AFNE01.JPG,AFNE01.JPG,AFNE01.JPG,,,,,,,,,,,,,4,6,46,3,,,,,,,,,,,AMSA02.jpg,AMSA18.jpg,AMNE09.jpg,AMNE13.jpg,AMNE13.jpg,MN,1,num_4,16,num_4,0.550150378607,,,2017_Apr_11_1702,60.0194238588,FEMA4ImagesEEG,001,100200,
AFNE01.JPG,AFNE01.JPG,AFNE01.JPG,AFNE01.JPG,AFNE01.JPG,AFNE01.JPG,,,,,,,,,,,,,4,7,47,4,,,,,,,,,,,AMSA09.jpg,AMNE10.jpg,AMSA12.jpg,AMNE18.jpg,AMSA12.jpg,MS,2,num_2,16,num_2,0.733484230936,,,2017_Apr_11_1702,60.0194238588,FEMA4ImagesEEG,001,100200,
AFNE01.JPG,AFNE01.JPG,AFNE01.JPG,AFNE01.JPG,AFNE01.JPG,AFNE01.JPG,,,,,,,,,,,,,4,8,48,9,,,,,,,,,,,AMSA02.jpg,AMSA16.jpg,AMNE02.jpg,AMNE09.jpg,AMNE02.jpg,MN,1,num_2,32,num_8,1.65003577853,,,2017_Apr_11_1702,60.0194238588,FEMA4ImagesEEG,001,100200,
AFNE01.JPG,AFNE01.JPG,AFNE01.JPG,AFNE01.JPG,AFNE01.JPG,AFNE01.JPG,,,,,,,,,,,,,4,9,49,6,,,,,,,,,,,AMSA12.jpg,AMNE09.jpg,AMNE01.jpg,AMSA04.jpg,AMSA12.jpg,MS,2,num_8,16,num_8,1.51672288682,,,2017_Apr_11_1702,60.0194238588,FEMA4ImagesEEG,001,100200,
AFNE01.JPG,AFNE01.JPG,AFNE01.JPG,AFNE01.JPG,AFNE01.JPG,AFNE01.JPG,,,,,,,,,,,,,5,0,50,9,,,,,,,,,,,AMSA11.jpg,AMSA12.jpg,AMNE20.jpg,AMNE18.jpg,AMSA11.jpg,MS,2,num_8,16,num_8,1.43344154023,,,2017_Apr_11_1702,60.0194238588,FEMA4ImagesEEG,001,100200,
AFNE01.JPG,AFNE01.JPG,AFNE01.JPG,AFNE01.JPG,AFNE01.JPG,AFNE01.JPG,,,,,,,,,,,,,5,1,51,4,,,,,,,,,,,AMNE03.jpg,AMSA11.jpg,AMSA08.jpg,AMNE15.jpg,AMNE03.jpg,MN,1,num_8,16,num_8,0.900131920353,,,2017_Apr_11_1702,60.0194238588,FEMA4ImagesEEG,001,100200,
AFNE01.JPG,AFNE01.JPG,AFNE01.JPG,AFNE01.JPG,AFNE01.JPG,AFNE01.JPG,,,,,,,,,,,,,5,2,52,3,,,,,,,,,,,AMSA06.jpg,AMSA18.jpg,AMNE01.jpg,AMNE05.jpg,AMNE05.jpg,MN,1,num_4,16,num_4,0.633532117121,,,2017_Apr_11_1702,60.0194238588,FEMA4ImagesEEG,001,100200,
AFNE01.JPG,AFNE01.JPG,AFNE01.JPG,AFNE01.JPG,AFNE01.JPG,AFNE01.JPG,,,,,,,,,,,,,5,3,53,8,,,,,,,,,,,AMSA14.jpg,AMNE02.jpg,AMSA12.jpg,AMNE18.jpg,AMNE02.jpg,MN,1,num_6,16,num_6,0.683449799195,,,2017_Apr_11_1702,60.0194238588,FEMA4ImagesEEG,001,100200,
AFNE01.JPG,AFNE01.JPG,AFNE01.JPG,AFNE01.JPG,AFNE01.JPG,AFNE01.JPG,,,,,,,,,,,,,5,4,54,1,,,,,,,,,,,AMNE15.jpg,AMSA01.jpg,AMNE01.jpg,AMSA15.jpg,AMSA15.jpg,MS,2,num_4,16,num_4,1.01678013895,,,2017_Apr_11_1702,60.0194238588,FEMA4ImagesEEG,001,100200,
AFNE01.JPG,AFNE01.JPG,AFNE01.JPG,AFNE01.JPG,AFNE01.JPG,AFNE01.JPG,,,,,,,,,,,,,5,5,55,0,,,,,,,,,,,AMSA17.jpg,AMNE10.jpg,AMNE02.jpg,AMSA15.jpg,AMNE10.jpg,MN,1,num_6,16,num_6,0.766825122759,,,2017_Apr_11_1702,60.0194238588,FEMA4ImagesEEG,001,100200,
AFNE01.JPG,AFNE01.JPG,AFNE01.JPG,AFNE01.JPG,AFNE01.JPG,AFNE01.JPG,,,,,,,,,,,,,5,6,56,2,,,,,,,,,,,AMSA05.jpg,AMSA11.jpg,AMNE05.jpg,AMNE03.jpg,AMSA05.jpg,MS,2,num_8,16,num_8,0.916807818692,,,2017_Apr_11_1702,60.0194238588,FEMA4ImagesEEG,001,100200,
AFNE01.JPG,AFNE01.JPG,AFNE01.JPG,AFNE01.JPG,AFNE01.JPG,AFNE01.JPG,,,,,,,,,,,,,5,7,57,7,,,,,,,,,,,AMNE11.jpg,AMNE10.jpg,AMSA08.jpg,AMSA18.jpg,AMSA18.jpg,MS,2,num_4,16,num_4,0.566826919094,,,2017_Apr_11_1702,60.0194238588,FEMA4ImagesEEG,001,100200,
AFNE01.JPG,AFNE01.JPG,AFNE01.JPG,AFNE01.JPG,AFNE01.JPG,AFNE01.JPG,,,,,,,,,,,,,5,8,58,5,,,,,,,,,,,AMNE10.jpg,AMSA02.jpg,AMNE06.jpg,AMSA16.jpg,AMSA02.jpg,MS,2,num_6,16,num_6,0.700092020445,,,2017_Apr_11_1702,60.0194238588,FEMA4ImagesEEG,001,100200,
AFNE01.JPG,AFNE01.JPG,AFNE01.JPG,AFNE01.JPG,AFNE01.JPG,AFNE01.JPG,,,,,,,,,,,,,5,9,59,6,,,,,,,,,,,AMNE08.jpg,AMNE19.jpg,AMSA19.jpg,AMSA17.jpg,AMSA17.jpg,MS,2,num_4,32,num_2,1.46674073627,,,2017_Apr_11_1702,60.0194238588,FEMA4ImagesEEG,001,100200,
,,,,,,,,,,,,,,,,,,,,,,,,,,,,,,,,,,,,,,,,,,,space,3.09997552773,2017_Apr_11_1702,60.0194238588,FEMA4ImagesEEG,001,100200,
AFNE01.JPG,AFNE01.JPG,AFNE01.JPG,AFNE01.JPG,AFNE01.JPG,AFNE01.JPG,,,,,,,,,,,,,,,,,0,0,0,7,,,,,,,AFNE09.jpg,AFSA11.jpg,AFNE13.jpg,AFSA13.jpg,AFNE09.jpg,FN,3,num_8,16,num_8,0.766748786904,,,2017_Apr_11_1702,60.0194238588,FEMA4ImagesEEG,001,100200,
AFNE01.JPG,AFNE01.JPG,AFNE01.JPG,AFNE01.JPG,AFNE01.JPG,AFNE01.JPG,,,,,,,,,,,,,,,,,0,1,1,3,,,,,,,AFNE02.jpg,AFSA10.jpg,AFNE01.jpg,AFSA09.jpg,AFSA10.jpg,FS,4,num_6,16,num_6,0.850197880529,,,2017_Apr_11_1702,60.0194238588,FEMA4ImagesEEG,001,100200,
AFNE01.JPG,AFNE01.JPG,AFNE01.JPG,AFNE01.JPG,AFNE01.JPG,AFNE01.JPG,,,,,,,,,,,,,,,,,0,2,2,5,,,,,,,AFSA16.jpg,AFNE13.jpg,AFSA08.jpg,AFNE07.jpg,AFNE13.jpg,FN,3,num_6,32,num_4,0.966801516712,,,2017_Apr_11_1702,60.0194238588,FEMA4ImagesEEG,001,100200,
AFNE01.JPG,AFNE01.JPG,AFNE01.JPG,AFNE01.JPG,AFNE01.JPG,AFNE01.JPG,,,,,,,,,,,,,,,,,0,3,3,8,,,,,,,AFNE06.jpg,AFNE17.jpg,AFSA01.jpg,AFSA03.jpg,AFSA03.jpg,FS,4,num_4,16,num_4,0.567029305734,,,2017_Apr_11_1702,60.0194238588,FEMA4ImagesEEG,001,100200,
AFNE01.JPG,AFNE01.JPG,AFNE01.JPG,AFNE01.JPG,AFNE01.JPG,AFNE01.JPG,,,,,,,,,,,,,,,,,0,4,4,9,,,,,,,AFNE09.jpg,AFNE13.jpg,AFSA07.jpg,AFSA14.jpg,AFNE13.jpg,FN,3,num_6,32,num_4,0.983404606581,,,2017_Apr_11_1702,60.0194238588,FEMA4ImagesEEG,001,100200,
AFNE01.JPG,AFNE01.JPG,AFNE01.JPG,AFNE01.JPG,AFNE01.JPG,AFNE01.JPG,,,,,,,,,,,,,,,,,0,5,5,4,,,,,,,AFSA10.jpg,AFSA05.jpg,AFNE20.jpg,AFNE18.jpg,AFNE20.jpg,FN,3,num_2,16,num_2,0.583463686984,,,2017_Apr_11_1702,60.0194238588,FEMA4ImagesEEG,001,100200,
AFNE01.JPG,AFNE01.JPG,AFNE01.JPG,AFNE01.JPG,AFNE01.JPG,AFNE01.JPG,,,,,,,,,,,,,,,,,0,6,6,2,,,,,,,AFNE11.jpg,AFSA19.jpg,AFNE14.jpg,AFSA14.jpg,AFSA19.jpg,FS,4,num_6,16,num_6,0.683364482597,,,2017_Apr_11_1702,60.0194238588,FEMA4ImagesEEG,001,100200,
AFNE01.JPG,AFNE01.JPG,AFNE01.JPG,AFNE01.JPG,AFNE01.JPG,AFNE01.JPG,,,,,,,,,,,,,,,,,0,7,7,6,,,,,,,AFSA01.jpg,AFNE16.jpg,AFSA13.jpg,AFNE06.jpg,AFSA01.jpg,FS,4,num_8,16,num_8,2.5499835941,,,2017_Apr_11_1702,60.0194238588,FEMA4ImagesEEG,001,100200,
AFNE01.JPG,AFNE01.JPG,AFNE01.JPG,AFNE01.JPG,AFNE01.JPG,AFNE01.JPG,,,,,,,,,,,,,,,,,0,8,8,0,,,,,,,AFSA05.jpg,AFNE18.jpg,AFNE08.jpg,AFSA15.jpg,AFSA15.jpg,FS,4,num_4,32,num_6,2.71668003639,,,2017_Apr_11_1702,60.0194238588,FEMA4ImagesEEG,001,100200,
AFNE01.JPG,AFNE01.JPG,AFNE01.JPG,AFNE01.JPG,AFNE01.JPG,AFNE01.JPG,,,,,,,,,,,,,,,,,0,9,9,1,,,,,,,AFNE12.jpg,AFNE07.jpg,AFSA14.jpg,AFSA05.jpg,AFSA14.jpg,FS,4,num_2,16,num_2,0.750145054888,,,2017_Apr_11_1702,60.0194238588,FEMA4ImagesEEG,001,100200,
AFNE01.JPG,AFNE01.JPG,AFNE01.JPG,AFNE01.JPG,AFNE01.JPG,AFNE01.JPG,,,,,,,,,,,,,,,,,1,0,10,8,,,,,,,AFNE13.jpg,AFSA14.jpg,AFNE11.jpg,AFSA20.jpg,AFSA20.jpg,FS,4,num_4,16,num_4,0.766797218472,,,2017_Apr_11_1702,60.0194238588,FEMA4ImagesEEG,001,100200,
AFNE01.JPG,AFNE01.JPG,AFNE01.JPG,AFNE01.JPG,AFNE01.JPG,AFNE01.JPG,,,,,,,,,,,,,,,,,1,1,11,6,,,,,,,AFSA13.jpg,AFNE12.jpg,AFSA18.jpg,AFNE08.jpg,AFNE08.jpg,FN,3,num_4,16,num_4,0.766788879409,,,2017_Apr_11_1702,60.0194238588,FEMA4ImagesEEG,001,100200,
AFNE01.JPG,AFNE01.JPG,AFNE01.JPG,AFNE01.JPG,AFNE01.JPG,AFNE01.JPG,,,,,,,,,,,,,,,,,1,2,12,1,,,,,,,AFSA12.jpg,AFNE09.jpg,AFSA09.jpg,AFNE02.jpg,AFSA12.jpg,FS,4,num_8,32,num_2,0.933208843693,,,2017_Apr_11_1702,60.0194238588,FEMA4ImagesEEG,001,100200,
AFNE01.JPG,AFNE01.JPG,AFNE01.JPG,AFNE01.JPG,AFNE01.JPG,AFNE01.JPG,,,,,,,,,,,,,,,,,1,3,13,3,,,,,,,AFSA08.jpg,AFNE04.jpg,AFNE19.jpg,AFSA12.jpg,AFNE19.jpg,FN,3,num_2,16,num_2,0.850092357025,,,2017_Apr_11_1702,60.0194238588,FEMA4ImagesEEG,001,100200,
AFNE01.JPG,AFNE01.JPG,AFNE01.JPG,AFNE01.JPG,AFNE01.JPG,AFNE01.JPG,,,,,,,,,,,,,,,,,1,4,14,7,,,,,,,AFNE08.jpg,AFSA13.jpg,AFSA14.jpg,AFNE10.jpg,AFNE10.jpg,FN,3,num_4,16,num_4,0.550180207472,,,2017_Apr_11_1702,60.0194238588,FEMA4ImagesEEG,001,100200,
AFNE01.JPG,AFNE01.JPG,AFNE01.JPG,AFNE01.JPG,AFNE01.JPG,AFNE01.JPG,,,,,,,,,,,,,,,,,1,5,15,5,,,,,,,AFNE05.jpg,AFSA08.jpg,AFSA15.jpg,AFNE09.jpg,AFSA08.jpg,FS,4,num_6,32,num_8,0.83348285174,,,2017_Apr_11_1702,60.0194238588,FEMA4ImagesEEG,001,100200,
AFNE01.JPG,AFNE01.JPG,AFNE01.JPG,AFNE01.JPG,AFNE01.JPG,AFNE01.JPG,,,,,,,,,,,,,,,,,1,6,16,4,,,,,,,AFNE08.jpg,AFSA07.jpg,AFSA15.jpg,AFNE20.jpg,AFNE08.jpg,FN,3,num_8,32,num_2,0.950099317357,,,2017_Apr_11_1702,60.0194238588,FEMA4ImagesEEG,001,100200,
AFNE01.JPG,AFNE01.JPG,AFNE01.JPG,AFNE01.JPG,AFNE01.JPG,AFNE01.JPG,,,,,,,,,,,,,,,,,1,7,17,0,,,,,,,AFNE17.jpg,AFSA04.jpg,AFNE10.jpg,AFSA08.jpg,AFSA04.jpg,FS,4,num_6,32,num_4,0.833611789159,,,2017_Apr_11_1702,60.0194238588,FEMA4ImagesEEG,001,100200,
AFNE01.JPG,AFNE01.JPG,AFNE01.JPG,AFNE01.JPG,AFNE01.JPG,AFNE01.JPG,,,,,,,,,,,,,,,,,1,8,18,2,,,,,,,AFSA05.jpg,AFSA01.jpg,AFNE14.jpg,AFNE06.jpg,AFSA01.jpg,FS,4,num_6,16,num_6,0.583468819037,,,2017_Apr_11_1702,60.0194238588,FEMA4ImagesEEG,001,100200,
AFNE01.JPG,AFNE01.JPG,AFNE01.JPG,AFNE01.JPG,AFNE01.JPG,AFNE01.JPG,,,,,,,,,,,,,,,,,1,9,19,9,,,,,,,AFNE02.jpg,AFNE12.jpg,AFSA03.jpg,AFSA12.jpg,AFSA03.jpg,FS,4,num_2,16,num_2,0.583486138843,,,2017_Apr_11_1702,60.0194238588,FEMA4ImagesEEG,001,100200,
AFNE01.JPG,AFNE01.JPG,AFNE01.JPG,AFNE01.JPG,AFNE01.JPG,AFNE01.JPG,,,,,,,,,,,,,,,,,2,0,20,1,,,,,,,AFNE11.jpg,AFSA11.jpg,AFSA07.jpg,AFNE13.jpg,AFSA11.jpg,FS,4,num_6,16,num_6,0.533520987257,,,2017_Apr_11_1702,60.0194238588,FEMA4ImagesEEG,001,100200,
AFNE01.JPG,AFNE01.JPG,AFNE01.JPG,AFNE01.JPG,AFNE01.JPG,AFNE01.JPG,,,,,,,,,,,,,,,,,2,1,21,6,,,,,,,AFNE03.jpg,AFSA08.jpg,AFNE06.jpg,AFSA19.jpg,AFNE03.jpg,FN,3,num_8,32,num_6,1.31659606658,,,2017_Apr_11_1702,60.0194238588,FEMA4ImagesEEG,001,100200,
AFNE01.JPG,AFNE01.JPG,AFNE01.JPG,AFNE01.JPG,AFNE01.JPG,AFNE01.JPG,,,,,,,,,,,,,,,,,2,2,22,9,,,,,,,AFSA20.jpg,AFSA11.jpg,AFNE15.jpg,AFNE12.jpg,AFNE12.jpg,FN,3,num_4,16,num_4,0.98345688777,,,2017_Apr_11_1702,60.0194238588,FEMA4ImagesEEG,001,100200,
AFNE01.JPG,AFNE01.JPG,AFNE01.JPG,AFNE01.JPG,AFNE01.JPG,AFNE01.JPG,,,,,,,,,,,,,,,,,2,3,23,8,,,,,,,AFSA15.jpg,AFNE20.jpg,AFSA13.jpg,AFNE02.jpg,AFNE20.jpg,FN,3,num_6,16,num_6,0.500124286395,,,2017_Apr_11_1702,60.0194238588,FEMA4ImagesEEG,001,100200,
AFNE01.JPG,AFNE01.JPG,AFNE01.JPG,AFNE01.JPG,AFNE01.JPG,AFNE01.JPG,,,,,,,,,,,,,,,,,2,4,24,0,,,,,,,AFSA16.jpg,AFNE15.jpg,AFNE01.jpg,AFSA11.jpg,AFSA11.jpg,FS,4,num_4,16,num_4,0.600346142426,,,2017_Apr_11_1702,60.0194238588,FEMA4ImagesEEG,001,100200,
AFNE01.JPG,AFNE01.JPG,AFNE01.JPG,AFNE01.JPG,AFNE01.JPG,AFNE01.JPG,,,,,,,,,,,,,,,,,2,5,25,4,,,,,,,AFNE19.jpg,AFNE13.jpg,AFSA12.jpg,AFSA02.jpg,AFSA12.jpg,FS,4,num_2,32,num_6,1.18341050856,,,2017_Apr_11_1702,60.0194238588,FEMA4ImagesEEG,001,100200,
AFNE01.JPG,AFNE01.JPG,AFNE01.JPG,AFNE01.JPG,AFNE01.JPG,AFNE01.JPG,,,,,,,,,,,,,,,,,2,6,26,2,,,,,,,AFNE03.jpg,AFSA09.jpg,AFSA03.jpg,AFNE17.jpg,AFNE03.jpg,FN,3,num_8,16,num_8,0.850177673623,,,2017_Apr_11_1702,60.0194238588,FEMA4ImagesEEG,001,100200,
AFNE01.JPG,AFNE01.JPG,AFNE01.JPG,AFNE01.JPG,AFNE01.JPG,AFNE01.JPG,,,,,,,,,,,,,,,,,2,7,27,5,,,,,,,AFNE01.jpg,AFNE18.jpg,AFSA11.jpg,AFSA14.jpg,AFSA14.jpg,FS,4,num_4,16,num_4,0.550198168959,,,2017_Apr_11_1702,60.0194238588,FEMA4ImagesEEG,001,100200,
AFNE01.JPG,AFNE01.JPG,AFNE01.JPG,AFNE01.JPG,AFNE01.JPG,AFNE01.JPG,,,,,,,,,,,,,,,,,2,8,28,7,,,,,,,AFSA12.jpg,AFSA15.jpg,AFNE14.jpg,AFNE01.jpg,AFNE01.jpg,FN,3,num_4,16,num_4,0.600171339232,,,2017_Apr_11_1702,60.0194238588,FEMA4ImagesEEG,001,100200,
AFNE01.JPG,AFNE01.JPG,AFNE01.JPG,AFNE01.JPG,AFNE01.JPG,AFNE01.JPG,,,,,,,,,,,,,,,,,2,9,29,3,,,,,,,AFNE02.jpg,AFSA04.jpg,AFSA15.jpg,AFNE01.jpg,AFSA15.jpg,FS,4,num_2,32,num_6,0.983486395795,,,2017_Apr_11_1702,60.0194238588,FEMA4ImagesEEG,001,100200,
AFNE01.JPG,AFNE01.JPG,AFNE01.JPG,AFNE01.JPG,AFNE01.JPG,AFNE01.JPG,,,,,,,,,,,,,,,,,3,0,30,5,,,,,,,AFSA20.jpg,AFSA07.jpg,AFNE17.jpg,AFNE04.jpg,AFNE04.jpg,FN,3,num_4,16,num_4,0.650147075299,,,2017_Apr_11_1702,60.0194238588,FEMA4ImagesEEG,001,100200,
AFNE01.JPG,AFNE01.JPG,AFNE01.JPG,AFNE01.JPG,AFNE01.JPG,AFNE01.JPG,,,,,,,,,,,,,,,,,3,1,31,6,,,,,,,AFSA20.jpg,AFNE10.jpg,AFSA07.jpg,AFNE08.jpg,AFSA20.jpg,FS,4,num_8,16,num_8,0.533477687743,,,2017_Apr_11_1702,60.0194238588,FEMA4ImagesEEG,001,100200,
AFNE01.JPG,AFNE01.JPG,AFNE01.JPG,AFNE01.JPG,AFNE01.JPG,AFNE01.JPG,,,,,,,,,,,,,,,,,3,2,32,3,,,,,,,AFSA01.jpg,AFSA18.jpg,AFNE19.jpg,AFNE04.jpg,AFNE19.jpg,FN,3,num_2,16,num_2,0.933509055991,,,2017_Apr_11_1702,60.0194238588,FEMA4ImagesEEG,001,100200,
AFNE01.JPG,AFNE01.JPG,AFNE01.JPG,AFNE01.JPG,AFNE01.JPG,AFNE01.JPG,,,,,,,,,,,,,,,,,3,3,33,8,,,,,,,AFNE12.jpg,AFNE01.jpg,AFSA15.jpg,AFSA18.jpg,AFNE01.jpg,FN,3,num_6,32,num_4,0.800161524676,,,2017_Apr_11_1702,60.0194238588,FEMA4ImagesEEG,001,100200,
AFNE01.JPG,AFNE01.JPG,AFNE01.JPG,AFNE01.JPG,AFNE01.JPG,AFNE01.JPG,,,,,,,,,,,,,,,,,3,4,34,1,,,,,,,AFNE05.jpg,AFSA18.jpg,AFSA13.jpg,AFNE19.jpg,AFSA13.jpg,FS,4,num_2,16,num_2,0.683427668177,,,2017_Apr_11_1702,60.0194238588,FEMA4ImagesEEG,001,100200,
AFNE01.JPG,AFNE01.JPG,AFNE01.JPG,AFNE01.JPG,AFNE01.JPG,AFNE01.JPG,,,,,,,,,,,,,,,,,3,5,35,9,,,,,,,AFSA06.jpg,AFSA01.jpg,AFNE12.jpg,AFNE10.jpg,AFSA06.jpg,FS,4,num_8,16,num_8,1.25015098834,,,2017_Apr_11_1702,60.0194238588,FEMA4ImagesEEG,001,100200,
AFNE01.JPG,AFNE01.JPG,AFNE01.JPG,AFNE01.JPG,AFNE01.JPG,AFNE01.JPG,,,,,,,,,,,,,,,,,3,6,36,4,,,,,,,AFNE17.jpg,AFSA06.jpg,AFSA02.jpg,AFNE07.jpg,AFSA02.jpg,FS,4,num_2,16,num_2,0.800202900078,,,2017_Apr_11_1702,60.0194238588,FEMA4ImagesEEG,001,100200,
AFNE01.JPG,AFNE01.JPG,AFNE01.JPG,AFNE01.JPG,AFNE01.JPG,AFNE01.JPG,,,,,,,,,,,,,,,,,3,7,37,7,,,,,,,AFNE08.jpg,AFSA20.jpg,AFSA16.jpg,AFNE15.jpg,AFNE08.jpg,FN,3,num_8,16,num_8,0.733445742168,,,2017_Apr_11_1702,60.0194238588,FEMA4ImagesEEG,001,100200,
AFNE01.JPG,AFNE01.JPG,AFNE01.JPG,AFNE01.JPG,AFNE01.JPG,AFNE01.JPG,,,,,,,,,,,,,,,,,3,8,38,2,,,,,,,AFNE07.jpg,AFSA05.jpg,AFSA17.jpg,AFNE20.jpg,AFNE07.jpg,FN,3,num_8,16,num_8,0.683472571895,,,2017_Apr_11_1702,60.0194238588,FEMA4ImagesEEG,001,100200,
AFNE01.JPG,AFNE01.JPG,AFNE01.JPG,AFNE01.JPG,AFNE01.JPG,AFNE01.JPG,,,,,,,,,,,,,,,,,3,9,39,0,,,,,,,AFSA17.jpg,AFNE01.jpg,AFSA04.jpg,AFNE14.jpg,AFNE01.jpg,FN,3,num_6,16,num_6,0.966715558432,,,2017_Apr_11_1702,60.0194238588,FEMA4ImagesEEG,001,100200,
AFNE01.JPG,AFNE01.JPG,AFNE01.JPG,AFNE01.JPG,AFNE01.JPG,AFNE01.JPG,,,,,,,,,,,,,,,,,4,0,40,6,,,,,,,AFNE20.jpg,AFSA12.jpg,AFNE04.jpg,AFSA10.jpg,AFNE20.jpg,FN,3,num_8,32,num_2,0.750128375832,,,2017_Apr_11_1702,60.0194238588,FEMA4ImagesEEG,001,100200,
AFNE01.JPG,AFNE01.JPG,AFNE01.JPG,AFNE01.JPG,AFNE01.JPG,AFNE01.JPG,,,,,,,,,,,,,,,,,4,1,41,7,,,,,,,AFSA16.jpg,AFSA20.jpg,AFNE06.jpg,AFNE03.jpg,AFNE06.jpg,FN,3,num_2,32,num_8,0.80016056262,,,2017_Apr_11_1702,60.0194238588,FEMA4ImagesEEG,001,100200,
AFNE01.JPG,AFNE01.JPG,AFNE01.JPG,AFNE01.JPG,AFNE01.JPG,AFNE01.JPG,,,,,,,,,,,,,,,,,4,2,42,1,,,,,,,AFSA18.jpg,AFNE03.jpg,AFSA17.jpg,AFNE12.jpg,AFNE03.jpg,FN,3,num_6,16,num_6,0.783523793798,,,2017_Apr_11_1702,60.0194238588,FEMA4ImagesEEG,001,100200,
AFNE01.JPG,AFNE01.JPG,AFNE01.JPG,AFNE01.JPG,AFNE01.JPG,AFNE01.JPG,,,,,,,,,,,,,,,,,4,3,43,8,,,,,,,AFNE16.jpg,AFSA11.jpg,AFSA01.jpg,AFNE13.jpg,AFNE16.jpg,FN,3,num_8,16,num_8,0.466825732496,,,2017_Apr_11_1702,60.0194238588,FEMA4ImagesEEG,001,100200,
AFNE01.JPG,AFNE01.JPG,AFNE01.JPG,AFNE01.JPG,AFNE01.JPG,AFNE01.JPG,,,,,,,,,,,,,,,,,4,4,44,2,,,,,,,AFNE11.jpg,AFNE03.jpg,AFSA14.jpg,AFSA13.jpg,AFSA14.jpg,FS,4,num_2,32,num_8,0.83355245227,,,2017_Apr_11_1702,60.0194238588,FEMA4ImagesEEG,001,100200,
AFNE01.JPG,AFNE01.JPG,AFNE01.JPG,AFNE01.JPG,AFNE01.JPG,AFNE01.JPG,,,,,,,,,,,,,,,,,4,5,45,9,,,,,,,AFNE13.jpg,AFSA13.jpg,AFSA11.jpg,AFNE03.jpg,AFNE13.jpg,FN,3,num_8,32,num_6,0.700146546122,,,2017_Apr_11_1702,60.0194238588,FEMA4ImagesEEG,001,100200,
AFNE01.JPG,AFNE01.JPG,AFNE01.JPG,AFNE01.JPG,AFNE01.JPG,AFNE01.JPG,,,,,,,,,,,,,,,,,4,6,46,0,,,,,,,AFSA18.jpg,AFNE17.jpg,AFNE13.jpg,AFSA12.jpg,AFNE13.jpg,FN,3,num_2,32,num_6,0.783434628509,,,2017_Apr_11_1702,60.0194238588,FEMA4ImagesEEG,001,100200,
AFNE01.JPG,AFNE01.JPG,AFNE01.JPG,AFNE01.JPG,AFNE01.JPG,AFNE01.JPG,,,,,,,,,,,,,,,,,4,7,47,5,,,,,,,AFNE06.jpg,AFNE05.jpg,AFSA16.jpg,AFSA18.jpg,AFNE06.jpg,FN,3,num_8,32,num_2,0.550177962519,,,2017_Apr_11_1702,60.0194238588,FEMA4ImagesEEG,001,100200,
AFNE01.JPG,AFNE01.JPG,AFNE01.JPG,AFNE01.JPG,AFNE01.JPG,AFNE01.JPG,,,,,,,,,,,,,,,,,4,8,48,4,,,,,,,AFSA07.jpg,AFSA20.jpg,AFNE04.jpg,AFNE09.jpg,AFSA20.jpg,FS,4,num_6,16,num_6,0.483467312064,,,2017_Apr_11_1702,60.0194238588,FEMA4ImagesEEG,001,100200,
AFNE01.JPG,AFNE01.JPG,AFNE01.JPG,AFNE01.JPG,AFNE01.JPG,AFNE01.JPG,,,,,,,,,,,,,,,,,4,9,49,3,,,,,,,AFSA02.jpg,AFNE03.jpg,AFSA12.jpg,AFNE15.jpg,AFNE03.jpg,FN,3,num_6,16,num_6,0.78345515579,,,2017_Apr_11_1702,60.0194238588,FEMA4ImagesEEG,001,100200,
AFNE01.JPG,AFNE01.JPG,AFNE01.JPG,AFNE01.JPG,AFNE01.JPG,AFNE01.JPG,,,,,,,,,,,,,,,,,5,0,50,0,,,,,,,AFSA12.jpg,AFSA16.jpg,AFNE17.jpg,AFNE16.jpg,AFNE16.jpg,FN,3,num_4,16,num_4,0.600213676691,,,2017_Apr_11_1702,60.0194238588,FEMA4ImagesEEG,001,100200,
AFNE01.JPG,AFNE01.JPG,AFNE01.JPG,AFNE01.JPG,AFNE01.JPG,AFNE01.JPG,,,,,,,,,,,,,,,,,5,1,51,8,,,,,,,AFSA01.jpg,AFNE20.jpg,AFSA02.jpg,AFNE03.jpg,AFNE20.jpg,FN,3,num_6,32,num_4,0.566787788644,,,2017_Apr_11_1702,60.0194238588,FEMA4ImagesEEG,001,100200,
AFNE01.JPG,AFNE01.JPG,AFNE01.JPG,AFNE01.JPG,AFNE01.JPG,AFNE01.JPG,,,,,,,,,,,,,,,,,5,2,52,3,,,,,,,AFSA19.jpg,AFNE19.jpg,AFSA17.jpg,AFNE18.jpg,AFNE18.jpg,FN,3,num_4,16,num_4,1.10009772936,,,2017_Apr_11_1702,60.0194238588,FEMA4ImagesEEG,001,100200,
AFNE01.JPG,AFNE01.JPG,AFNE01.JPG,AFNE01.JPG,AFNE01.JPG,AFNE01.JPG,,,,,,,,,,,,,,,,,5,3,53,1,,,,,,,AFNE11.jpg,AFSA03.jpg,AFSA16.jpg,AFNE06.jpg,AFSA16.jpg,FS,4,num_2,16,num_2,0.600135416258,,,2017_Apr_11_1702,60.0194238588,FEMA4ImagesEEG,001,100200,
AFNE01.JPG,AFNE01.JPG,AFNE01.JPG,AFNE01.JPG,AFNE01.JPG,AFNE01.JPG,,,,,,,,,,,,,,,,,5,4,54,2,,,,,,,AFSA03.jpg,AFNE16.jpg,AFNE13.jpg,AFSA17.jpg,AFNE13.jpg,FN,3,num_2,32,num_6,0.850144958124,,,2017_Apr_11_1702,60.0194238588,FEMA4ImagesEEG,001,100200,
AFNE01.JPG,AFNE01.JPG,AFNE01.JPG,AFNE01.JPG,AFNE01.JPG,AFNE01.JPG,,,,,,,,,,,,,,,,,5,5,55,6,,,,,,,AFNE14.jpg,AFSA11.jpg,AFNE07.jpg,AFSA03.jpg,AFSA03.jpg,FS,4,num_4,32,num_8,1.65029782243,,,2017_Apr_11_1702,60.0194238588,FEMA4ImagesEEG,001,100200,
AFNE01.JPG,AFNE01.JPG,AFNE01.JPG,AFNE01.JPG,AFNE01.JPG,AFNE01.JPG,,,,,,,,,,,,,,,,,5,6,56,5,,,,,,,AFSA14.jpg,AFSA06.jpg,AFNE03.jpg,AFNE18.jpg,AFNE18.jpg,FN,3,num_4,16,num_4,0.483492329251,,,2017_Apr_11_1702,60.0194238588,FEMA4ImagesEEG,001,100200,
AFNE01.JPG,AFNE01.JPG,AFNE01.JPG,AFNE01.JPG,AFNE01.JPG,AFNE01.JPG,,,,,,,,,,,,,,,,,5,7,57,7,,,,,,,AFNE16.jpg,AFNE10.jpg,AFSA01.jpg,AFSA19.jpg,AFNE10.jpg,FN,3,num_6,16,num_6,0.433552836999,,,2017_Apr_11_1702,60.0194238588,FEMA4ImagesEEG,001,100200,
AFNE01.JPG,AFNE01.JPG,AFNE01.JPG,AFNE01.JPG,AFNE01.JPG,AFNE01.JPG,,,,,,,,,,,,,,,,,5,8,58,9,,,,,,,AFNE03.jpg,AFSA19.jpg,AFSA14.jpg,AFNE04.jpg,AFNE03.jpg,FN,3,num_8,16,num_8,0.450153362006,,,2017_Apr_11_1702,60.0194238588,FEMA4ImagesEEG,001,100200,
AFNE01.JPG,AFNE01.JPG,AFNE01.JPG,AFNE01.JPG,AFNE01.JPG,AFNE01.JPG,,,,,,,,,,,,,,,,,5,9,59,4,,,,,,,AFNE13.jpg,AFSA17.jpg,AFSA13.jpg,AFNE06.jpg,AFNE06.jpg,FN,3,num_4,32,num_2,0.800097376574,,,2017_Apr_11_1702,60.0194238588,FEMA4ImagesEEG,001,100200,
,,,,,,,,,,,,,,,,,,,,,,,,,,,,,,,,,,,,,,,,,,,space,6.9996471866,2017_Apr_11_1702,60.0194238588,FEMA4ImagesEEG,001,100200,
AFNE01.JPG,AFNE01.JPG,AFNE01.JPG,AFNE01.JPG,AFNE01.JPG,AFNE01.JPG,,,,,,,,,,,,,,,,,,,,,0,0,0,9,,,AMNE17.jpg,AMNE08.jpg,AMSA03.jpg,AMSA07.jpg,AMNE17.jpg,MN,1,num_8,16,num_8,0.73356056679,,,2017_Apr_11_1702,60.0194238588,FEMA4ImagesEEG,001,100200,
AFNE01.JPG,AFNE01.JPG,AFNE01.JPG,AFNE01.JPG,AFNE01.JPG,AFNE01.JPG,,,,,,,,,,,,,,,,,,,,,0,1,1,1,,,AMNE08.jpg,AMNE05.jpg,AMSA13.jpg,AMSA14.jpg,AMNE05.jpg,MN,1,num_6,32,num_2,0.750114905182,,,2017_Apr_11_1702,60.0194238588,FEMA4ImagesEEG,001,100200,
AFNE01.JPG,AFNE01.JPG,AFNE01.JPG,AFNE01.JPG,AFNE01.JPG,AFNE01.JPG,,,,,,,,,,,,,,,,,,,,,0,2,2,5,,,AMSA17.jpg,AMNE15.jpg,AMNE14.jpg,AMSA01.jpg,AMSA17.jpg,MS,2,num_8,16,num_8,0.750148903579,,,2017_Apr_11_1702,60.0194238588,FEMA4ImagesEEG,001,100200,
AFNE01.JPG,AFNE01.JPG,AFNE01.JPG,AFNE01.JPG,AFNE01.JPG,AFNE01.JPG,,,,,,,,,,,,,,,,,,,,,0,3,3,0,,,AMNE07.jpg,AMNE20.jpg,AMSA16.jpg,AMSA08.jpg,AMSA16.jpg,MS,2,num_2,32,num_6,0.650233033579,,,2017_Apr_11_1702,60.0194238588,FEMA4ImagesEEG,001,100200,
AFNE01.JPG,AFNE01.JPG,AFNE01.JPG,AFNE01.JPG,AFNE01.JPG,AFNE01.JPG,,,,,,,,,,,,,,,,,,,,,0,4,4,7,,,AMSA07.jpg,AMSA08.jpg,AMNE18.jpg,AMNE03.jpg,AMNE18.jpg,MN,1,num_2,16,num_2,0.700172525831,,,2017_Apr_11_1702,60.0194238588,FEMA4ImagesEEG,001,100200,
AFNE01.JPG,AFNE01.JPG,AFNE01.JPG,AFNE01.JPG,AFNE01.JPG,AFNE01.JPG,,,,,,,,,,,,,,,,,,,,,0,5,5,3,,,AMSA08.jpg,AMNE07.jpg,AMNE18.jpg,AMSA02.jpg,AMNE07.jpg,MN,1,num_6,16,num_6,0.466800393537,,,2017_Apr_11_1702,60.0194238588,FEMA4ImagesEEG,001,100200,
AFNE01.JPG,AFNE01.JPG,AFNE01.JPG,AFNE01.JPG,AFNE01.JPG,AFNE01.JPG,,,,,,,,,,,,,,,,,,,,,0,6,6,2,,,AMSA17.jpg,AMSA05.jpg,AMNE01.jpg,AMNE10.jpg,AMNE10.jpg,MN,1,num_4,16,num_4,0.833626222331,,,2017_Apr_11_1702,60.0194238588,FEMA4ImagesEEG,001,100200,
AFNE01.JPG,AFNE01.JPG,AFNE01.JPG,AFNE01.JPG,AFNE01.JPG,AFNE01.JPG,,,,,,,,,,,,,,,,,,,,,0,7,7,4,,,AMNE16.jpg,AMSA15.jpg,AMSA14.jpg,AMNE05.jpg,AMSA14.jpg,MS,2,num_2,16,num_2,0.566792279016,,,2017_Apr_11_1702,60.0194238588,FEMA4ImagesEEG,001,100200,
AFNE01.JPG,AFNE01.JPG,AFNE01.JPG,AFNE01.JPG,AFNE01.JPG,AFNE01.JPG,,,,,,,,,,,,,,,,,,,,,0,8,8,6,,,AMSA19.jpg,AMNE19.jpg,AMSA13.jpg,AMNE05.jpg,AMSA13.jpg,MS,2,num_2,32,num_6,0.900133844931,,,2017_Apr_11_1702,60.0194238588,FEMA4ImagesEEG,001,100200,
AFNE01.JPG,AFNE01.JPG,AFNE01.JPG,AFNE01.JPG,AFNE01.JPG,AFNE01.JPG,,,,,,,,,,,,,,,,,,,,,0,9,9,8,,,AMNE03.jpg,AMNE02.jpg,AMSA05.jpg,AMSA07.jpg,AMSA05.jpg,MS,2,num_2,16,num_2,1.16677694768,,,2017_Apr_11_1702,60.0194238588,FEMA4ImagesEEG,001,100200,
AFNE01.JPG,AFNE01.JPG,AFNE01.JPG,AFNE01.JPG,AFNE01.JPG,AFNE01.JPG,,,,,,,,,,,,,,,,,,,,,1,0,10,4,,,AMNE14.jpg,AMNE10.jpg,AMSA09.jpg,AMSA04.jpg,AMNE10.jpg,MN,1,num_6,16,num_6,0.733511493541,,,2017_Apr_11_1702,60.0194238588,FEMA4ImagesEEG,001,100200,
AFNE01.JPG,AFNE01.JPG,AFNE01.JPG,AFNE01.JPG,AFNE01.JPG,AFNE01.JPG,,,,,,,,,,,,,,,,,,,,,1,1,11,2,,,AMSA15.jpg,AMNE12.jpg,AMSA07.jpg,AMNE07.jpg,AMSA07.jpg,MS,2,num_2,16,num_2,0.583447970916,,,2017_Apr_11_1702,60.0194238588,FEMA4ImagesEEG,001,100200,
AFNE01.JPG,AFNE01.JPG,AFNE01.JPG,AFNE01.JPG,AFNE01.JPG,AFNE01.JPG,,,,,,,,,,,,,,,,,,,,,1,2,12,8,,,AMNE06.jpg,AMSA07.jpg,AMNE13.jpg,AMSA03.jpg,AMSA07.jpg,MS,2,num_6,16,num_6,0.967011921573,,,2017_Apr_11_1702,60.0194238588,FEMA4ImagesEEG,001,100200,
AFNE01.JPG,AFNE01.JPG,AFNE01.JPG,AFNE01.JPG,AFNE01.JPG,AFNE01.JPG,,,,,,,,,,,,,,,,,,,,,1,3,13,6,,,AMNE19.jpg,AMSA13.jpg,AMNE13.jpg,AMSA04.jpg,AMNE19.jpg,MN,1,num_8,32,num_2,1.33341469429,,,2017_Apr_11_1702,60.0194238588,FEMA4ImagesEEG,001,100200,
AFNE01.JPG,AFNE01.JPG,AFNE01.JPG,AFNE01.JPG,AFNE01.JPG,AFNE01.JPG,,,,,,,,,,,,,,,,,,,,,1,4,14,7,,,AMNE14.jpg,AMSA02.jpg,AMSA01.jpg,AMNE02.jpg,AMNE02.jpg,MN,1,num_4,32,num_6,1.08348597912,,,2017_Apr_11_1702,60.0194238588,FEMA4ImagesEEG,001,100200,
AFNE01.JPG,AFNE01.JPG,AFNE01.JPG,AFNE01.JPG,AFNE01.JPG,AFNE01.JPG,,,,,,,,,,,,,,,,,,,,,1,5,15,1,,,AMSA20.jpg,AMSA05.jpg,AMNE10.jpg,AMNE15.jpg,AMNE10.jpg,MN,1,num_2,32,num_6,0.616760317236,,,2017_Apr_11_1702,60.0194238588,FEMA4ImagesEEG,001,100200,
AFNE01.JPG,AFNE01.JPG,AFNE01.JPG,AFNE01.JPG,AFNE01.JPG,AFNE01.JPG,,,,,,,,,,,,,,,,,,,,,1,6,16,3,,,AMSA10.jpg,AMSA17.jpg,AMNE08.jpg,AMNE13.jpg,AMSA10.jpg,MS,2,num_8,16,num_8,0.850081451703,,,2017_Apr_11_1702,60.0194238588,FEMA4ImagesEEG,001,100200,
AFNE01.JPG,AFNE01.JPG,AFNE01.JPG,AFNE01.JPG,AFNE01.JPG,AFNE01.JPG,,,,,,,,,,,,,,,,,,,,,1,7,17,5,,,AMSA20.jpg,AMNE20.jpg,AMSA17.jpg,AMNE03.jpg,AMNE03.jpg,MN,1,num_4,16,num_4,1.20018551592,,,2017_Apr_11_1702,60.0194238588,FEMA4ImagesEEG,001,100200,
AFNE01.JPG,AFNE01.JPG,AFNE01.JPG,AFNE01.JPG,AFNE01.JPG,AFNE01.JPG,,,,,,,,,,,,,,,,,,,,,1,8,18,9,,,AMNE07.jpg,AMNE01.jpg,AMSA20.jpg,AMSA18.jpg,AMNE07.jpg,MN,1,num_8,16,num_8,0.583533929195,,,2017_Apr_11_1702,60.0194238588,FEMA4ImagesEEG,001,100200,
AFNE01.JPG,AFNE01.JPG,AFNE01.JPG,AFNE01.JPG,AFNE01.JPG,AFNE01.JPG,,,,,,,,,,,,,,,,,,,,,1,9,19,0,,,AMNE06.jpg,AMSA20.jpg,AMNE19.jpg,AMSA04.jpg,AMNE06.jpg,MN,1,num_8,16,num_8,1.1001320486,,,2017_Apr_11_1702,60.0194238588,FEMA4ImagesEEG,001,100200,
AFNE01.JPG,AFNE01.JPG,AFNE01.JPG,AFNE01.JPG,AFNE01.JPG,AFNE01.JPG,,,,,,,,,,,,,,,,,,,,,2,0,20,8,,,AMNE03.jpg,AMSA20.jpg,AMNE17.jpg,AMSA18.jpg,AMNE03.jpg,MN,1,num_8,16,num_8,0.899850310758,,,2017_Apr_11_1702,60.0194238588,FEMA4ImagesEEG,001,100200,
AFNE01.JPG,AFNE01.JPG,AFNE01.JPG,AFNE01.JPG,AFNE01.JPG,AFNE01.JPG,,,,,,,,,,,,,,,,,,,,,2,1,21,2,,,AMSA11.jpg,AMNE02.jpg,AMSA02.jpg,AMNE06.jpg,AMSA02.jpg,MS,2,num_2,32,num_6,0.933489811141,,,2017_Apr_11_1702,60.0194238588,FEMA4ImagesEEG,001,100200,
AFNE01.JPG,AFNE01.JPG,AFNE01.JPG,AFNE01.JPG,AFNE01.JPG,AFNE01.JPG,,,,,,,,,,,,,,,,,,,,,2,2,22,3,,,AMNE04.jpg,AMNE03.jpg,AMSA20.jpg,AMSA06.jpg,AMNE03.jpg,MN,1,num_6,16,num_6,0.783458363265,,,2017_Apr_11_1702,60.0194238588,FEMA4ImagesEEG,001,100200,
AFNE01.JPG,AFNE01.JPG,AFNE01.JPG,AFNE01.JPG,AFNE01.JPG,AFNE01.JPG,,,,,,,,,,,,,,,,,,,,,2,3,23,0,,,AMNE19.jpg,AMSA20.jpg,AMNE11.jpg,AMSA06.jpg,AMNE19.jpg,MN,1,num_8,16,num_8,0.699989383575,,,2017_Apr_11_1702,60.0194238588,FEMA4ImagesEEG,001,100200,
AFNE01.JPG,AFNE01.JPG,AFNE01.JPG,AFNE01.JPG,AFNE01.JPG,AFNE01.JPG,,,,,,,,,,,,,,,,,,,,,2,4,24,1,,,AMNE16.jpg,AMSA04.jpg,AMNE07.jpg,AMSA09.jpg,AMSA09.jpg,MS,2,num_4,16,num_4,0.650145792402,,,2017_Apr_11_1702,60.0194238588,FEMA4ImagesEEG,001,100200,
AFNE01.JPG,AFNE01.JPG,AFNE01.JPG,AFNE01.JPG,AFNE01.JPG,AFNE01.JPG,,,,,,,,,,,,,,,,,,,,,2,5,25,5,,,AMSA17.jpg,AMNE02.jpg,AMNE14.jpg,AMSA15.jpg,AMSA17.jpg,MS,2,num_8,32,num_2,0.666915667709,,,2017_Apr_11_1702,60.0194238588,FEMA4ImagesEEG,001,100200,
AFNE01.JPG,AFNE01.JPG,AFNE01.JPG,AFNE01.JPG,AFNE01.JPG,AFNE01.JPG,,,,,,,,,,,,,,,,,,,,,2,6,26,6,,,AMSA12.jpg,AMNE16.jpg,AMNE20.jpg,AMSA20.jpg,AMSA12.jpg,MS,2,num_8,16,num_8,0.616788221989,,,2017_Apr_11_1702,60.0194238588,FEMA4ImagesEEG,001,100200,
AFNE01.JPG,AFNE01.JPG,AFNE01.JPG,AFNE01.JPG,AFNE01.JPG,AFNE01.JPG,,,,,,,,,,,,,,,,,,,,,2,7,27,9,,,AMNE20.jpg,AMSA19.jpg,AMSA08.jpg,AMNE08.jpg,AMSA08.jpg,MS,2,num_2,16,num_2,0.900123902131,,,2017_Apr_11_1702,60.0194238588,FEMA4ImagesEEG,001,100200,
AFNE01.JPG,AFNE01.JPG,AFNE01.JPG,AFNE01.JPG,AFNE01.JPG,AFNE01.JPG,,,,,,,,,,,,,,,,,,,,,2,8,28,7,,,AMSA07.jpg,AMSA16.jpg,AMNE17.jpg,AMNE06.jpg,AMSA16.jpg,MS,2,num_6,32,num_4,0.816785142757,,,2017_Apr_11_1702,60.0194238588,FEMA4ImagesEEG,001,100200,
AFNE01.JPG,AFNE01.JPG,AFNE01.JPG,AFNE01.JPG,AFNE01.JPG,AFNE01.JPG,,,,,,,,,,,,,,,,,,,,,2,9,29,4,,,AMNE17.jpg,AMNE06.jpg,AMSA17.jpg,AMSA02.jpg,AMNE17.jpg,MN,1,num_8,32,num_6,0.616860067472,,,2017_Apr_11_1702,60.0194238588,FEMA4ImagesEEG,001,100200,
AFNE01.JPG,AFNE01.JPG,AFNE01.JPG,AFNE01.JPG,AFNE01.JPG,AFNE01.JPG,,,,,,,,,,,,,,,,,,,,,3,0,30,5,,,AMSA07.jpg,AMNE01.jpg,AMNE14.jpg,AMSA02.jpg,AMNE14.jpg,MN,1,num_2,16,num_2,0.633513835259,,,2017_Apr_11_1702,60.0194238588,FEMA4ImagesEEG,001,100200,
AFNE01.JPG,AFNE01.JPG,AFNE01.JPG,AFNE01.JPG,AFNE01.JPG,AFNE01.JPG,,,,,,,,,,,,,,,,,,,,,3,1,31,6,,,AMSA09.jpg,AMSA18.jpg,AMNE02.jpg,AMNE01.jpg,AMNE02.jpg,MN,1,num_2,16,num_2,0.700138527434,,,2017_Apr_11_1702,60.0194238588,FEMA4ImagesEEG,001,100200,
AFNE01.JPG,AFNE01.JPG,AFNE01.JPG,AFNE01.JPG,AFNE01.JPG,AFNE01.JPG,,,,,,,,,,,,,,,,,,,,,3,2,32,3,,,AMSA04.jpg,AMNE14.jpg,AMSA06.jpg,AMNE09.jpg,AMNE14.jpg,MN,1,num_6,16,num_6,0.916867796797,,,2017_Apr_11_1702,60.0194238588,FEMA4ImagesEEG,001,100200,
AFNE01.JPG,AFNE01.JPG,AFNE01.JPG,AFNE01.JPG,AFNE01.JPG,AFNE01.JPG,,,,,,,,,,,,,,,,,,,,,3,3,33,1,,,AMSA07.jpg,AMNE07.jpg,AMNE16.jpg,AMSA18.jpg,AMNE16.jpg,MN,1,num_2,32,num_8,0.700150073972,,,2017_Apr_11_1702,60.0194238588,FEMA4ImagesEEG,001,100200,
AFNE01.JPG,AFNE01.JPG,AFNE01.JPG,AFNE01.JPG,AFNE01.JPG,AFNE01.JPG,,,,,,,,,,,,,,,,,,,,,3,4,34,0,,,AMSA05.jpg,AMNE02.jpg,AMNE06.jpg,AMSA20.jpg,AMSA20.jpg,MS,2,num_4,32,num_8,0.816810480785,,,2017_Apr_11_1702,60.0194238588,FEMA4ImagesEEG,001,100200,
AFNE01.JPG,AFNE01.JPG,AFNE01.JPG,AFNE01.JPG,AFNE01.JPG,AFNE01.JPG,,,,,,,,,,,,,,,,,,,,,3,5,35,8,,,AMNE18.jpg,AMSA10.jpg,AMNE09.jpg,AMSA06.jpg,AMSA10.jpg,MS,2,num_6,32,num_8,0.850171259139,,,2017_Apr_11_1702,60.0194238588,FEMA4ImagesEEG,001,100200,
AFNE01.JPG,AFNE01.JPG,AFNE01.JPG,AFNE01.JPG,AFNE01.JPG,AFNE01.JPG,,,,,,,,,,,,,,,,,,,,,3,6,36,4,,,AMNE03.jpg,AMSA14.jpg,AMSA13.jpg,AMNE12.jpg,AMNE12.jpg,MN,1,num_4,32,num_8,0.816734786611,,,2017_Apr_11_1702,60.0194238588,FEMA4ImagesEEG,001,100200,
AFNE01.JPG,AFNE01.JPG,AFNE01.JPG,AFNE01.JPG,AFNE01.JPG,AFNE01.JPG,,,,,,,,,,,,,,,,,,,,,3,7,37,2,,,AMNE04.jpg,AMNE17.jpg,AMSA19.jpg,AMSA02.jpg,AMSA19.jpg,MS,2,num_2,16,num_2,0.566760846414,,,2017_Apr_11_1702,60.0194238588,FEMA4ImagesEEG,001,100200,
AFNE01.JPG,AFNE01.JPG,AFNE01.JPG,AFNE01.JPG,AFNE01.JPG,AFNE01.JPG,,,,,,,,,,,,,,,,,,,,,3,8,38,7,,,AMSA10.jpg,AMNE18.jpg,AMSA01.jpg,AMNE14.jpg,AMSA01.jpg,MS,2,num_2,16,num_2,0.600187055767,,,2017_Apr_11_1702,60.0194238588,FEMA4ImagesEEG,001,100200,
