IPosition2,IPosition3,IPosition1,IPosition6,IPosition4,IPosition5,TrialsF1.thisRepN,TrialsF1.thisTrialN,TrialsF1.thisN,TrialsF1.thisIndex,TrialsM1.thisRepN,TrialsM1.thisTrialN,TrialsM1.thisN,TrialsM1.thisIndex,TrialsF2.thisRepN,TrialsF2.thisTrialN,TrialsF2.thisN,TrialsF2.thisIndex,TrialsM2.thisRepN,TrialsM2.thisTrialN,TrialsM2.thisN,TrialsM2.thisIndex,TrialsF3.thisRepN,TrialsF3.thisTrialN,TrialsF3.thisN,TrialsF3.thisIndex,TrialsM3.thisRepN,TrialsM3.thisTrialN,TrialsM3.thisN,TrialsM3.thisIndex,InstrKey_resp.keys,InstrKey_resp.rt,Image0 _Position,Image1 _Position,Image2 _Position,Image3 _Position,Center_image,condition,code,correct_answer,accuracy,Key_Resp.keys,Key_Resp.rt,BreakKey_resp.keys,BreakKey_resp.rt,date,frameRate,expName,session,participant,
,,,,,,,,,,,,,,,,,,,,,,,,,,,,,,space,13.0161918713,,,,,,,,,,,,,,2017_Apr_19_1554,60.0041763155,FEMA4ImagesEEG,001,100216,
AFSA25.JPG,AFNE24.JPG,AFSA24.JPG,AFNE21.JPG,AFSA21.JPG,AFNE25.JPG,0,0,0,2,,,,,,,,,,,,,,,,,,,,,,,AFSA17.jpg,AFSA09.jpg,AFNE13.jpg,AFNE11.jpg,AFNE13.jpg,FN,3,num_2,32,num_8,1.8333875917,,,2017_Apr_19_1554,60.0041763155,FEMA4ImagesEEG,001,100216,
AFNE22.JPG,AFSA24.JPG,AFSA22.JPG,AFNE25.JPG,AFNE24.JPG,AFSA25.JPG,0,1,1,6,,,,,,,,,,,,,,,,,,,,,,,AFNE18.jpg,AFSA08.jpg,AFSA07.jpg,AFNE20.jpg,AFSA08.jpg,FS,4,num_6,16,num_6,1.26675132042,,,2017_Apr_19_1554,60.0041763155,FEMA4ImagesEEG,001,100216,
AFSA21.JPG,AFNE23.JPG,AFNE21.JPG,AFSA25.JPG,AFNE25.JPG,AFSA23.JPG,0,2,2,4,,,,,,,,,,,,,,,,,,,,,,,AFSA16.jpg,AFNE13.jpg,AFNE04.jpg,AFSA02.jpg,AFSA16.jpg,FS,4,num_8,16,num_8,1.46670327371,,,2017_Apr_19_1554,60.0041763155,FEMA4ImagesEEG,001,100216,
AMSA21.JPG,AMNE22.JPG,AMNE21.JPG,AMSA23.JPG,AMSA22.JPG,AMNE23.JPG,0,3,3,1,,,,,,,,,,,,,,,,,,,,,,,AFNE04.jpg,AFSA06.jpg,AFSA09.jpg,AFNE20.jpg,AFSA06.jpg,FS,4,num_6,16,num_6,0.916890729655,,,2017_Apr_19_1554,60.0041763155,FEMA4ImagesEEG,001,100216,
AMNE23.JPG,AMNE24.JPG,AMNE22.JPG,AMSA24.JPG,AMSA22.JPG,AMSA23.JPG,0,4,4,9,,,,,,,,,,,,,,,,,,,,,,,AFSA04.jpg,AFSA19.jpg,AFNE10.jpg,AFNE20.jpg,AFNE10.jpg,FN,3,num_2,16,num_2,2.83346777645,,,2017_Apr_19_1554,60.0041763155,FEMA4ImagesEEG,001,100216,
AFSA21.JPG,AFNE22.JPG,AFNE21.JPG,AFSA23.JPG,AFSA22.JPG,AFNE23.JPG,0,5,5,0,,,,,,,,,,,,,,,,,,,,,,,AFSA14.jpg,AFNE04.jpg,AFSA03.jpg,AFNE14.jpg,AFNE04.jpg,FN,3,num_6,32,num_8,0.983454995003,,,2017_Apr_19_1554,60.0041763155,FEMA4ImagesEEG,001,100216,
AMSA25.JPG,AMNE24.JPG,AMSA24.JPG,AMNE26.JPG,AMSA21.JPG,AMNE25.JPG,0,6,6,3,,,,,,,,,,,,,,,,,,,,,,,AFNE04.jpg,AFSA19.jpg,AFNE19.jpg,AFSA03.jpg,AFNE19.jpg,FN,3,num_2,16,num_2,1.05007538974,,,2017_Apr_19_1554,60.0041763155,FEMA4ImagesEEG,001,100216,
AMSA21.JPG,AMNE23.JPG,AMNE21.JPG,AMSA25.JPG,AMNE25.JPG,AMSA23.JPG,0,7,7,5,,,,,,,,,,,,,,,,,,,,,,,AFNE20.jpg,AFSA02.jpg,AFNE03.jpg,AFSA12.jpg,AFSA12.jpg,FS,4,num_4,16,num_4,0.733475762885,,,2017_Apr_19_1554,60.0041763155,FEMA4ImagesEEG,001,100216,
AFNE23.JPG,AFNE24.JPG,AFNE22.JPG,AFSA24.JPG,AFSA22.JPG,AFSA23.JPG,0,8,8,8,,,,,,,,,,,,,,,,,,,,,,,AFNE06.jpg,AFSA09.jpg,AFNE05.jpg,AFSA03.jpg,AFNE05.jpg,FN,3,num_2,32,num_8,1.88340845579,,,2017_Apr_19_1554,60.0041763155,FEMA4ImagesEEG,001,100216,
AMNE22.JPG,AMSA24.JPG,AMSA22.JPG,AMNE25.JPG,AMNE24.JPG,AMSA25.JPG,0,9,9,7,,,,,,,,,,,,,,,,,,,,,,,AFNE05.jpg,AFSA13.jpg,AFNE06.jpg,AFSA18.jpg,AFNE06.jpg,FN,3,num_2,16,num_2,2.30019029451,,,2017_Apr_19_1554,60.0041763155,FEMA4ImagesEEG,001,100216,
AFNE22.JPG,AFSA24.JPG,AFSA22.JPG,AFNE25.JPG,AFNE24.JPG,AFSA25.JPG,,,,,0,0,0,6,,,,,,,,,,,,,,,,,,,AMSA20.jpg,AMSA16.jpg,AMNE04.jpg,AMNE08.jpg,AMSA20.jpg,MS,2,num_8,16,num_8,1.26672341608,,,2017_Apr_19_1554,60.0041763155,FEMA4ImagesEEG,001,100216,
AFSA21.JPG,AFNE23.JPG,AFNE21.JPG,AFSA25.JPG,AFNE25.JPG,AFSA23.JPG,,,,,0,1,1,4,,,,,,,,,,,,,,,,,,,AMSA14.jpg,AMNE20.jpg,AMNE18.jpg,AMSA10.jpg,AMSA14.jpg,MS,2,num_8,32,num_2,2.05001637375,,,2017_Apr_19_1554,60.0041763155,FEMA4ImagesEEG,001,100216,
AFSA25.JPG,AFNE24.JPG,AFSA24.JPG,AFNE21.JPG,AFSA21.JPG,AFNE25.JPG,,,,,0,2,2,2,,,,,,,,,,,,,,,,,,,AMNE18.jpg,AMSA09.jpg,AMSA12.jpg,AMNE07.jpg,AMNE07.jpg,MN,1,num_4,16,num_4,1.30011620375,,,2017_Apr_19_1554,60.0041763155,FEMA4ImagesEEG,001,100216,
AMNE22.JPG,AMSA24.JPG,AMSA22.JPG,AMNE25.JPG,AMNE24.JPG,AMSA25.JPG,,,,,0,3,3,7,,,,,,,,,,,,,,,,,,,AMSA12.jpg,AMNE17.jpg,AMSA13.jpg,AMNE05.jpg,AMNE17.jpg,MN,1,num_6,16,num_6,1.40012714098,,,2017_Apr_19_1554,60.0041763155,FEMA4ImagesEEG,001,100216,
AMSA21.JPG,AMNE22.JPG,AMNE21.JPG,AMSA23.JPG,AMSA22.JPG,AMNE23.JPG,,,,,0,4,4,1,,,,,,,,,,,,,,,,,,,AMSA14.jpg,AMSA13.jpg,AMNE15.jpg,AMNE12.jpg,AMNE12.jpg,MN,1,num_4,16,num_4,1.91667006115,,,2017_Apr_19_1554,60.0041763155,FEMA4ImagesEEG,001,100216,
AFSA21.JPG,AFNE22.JPG,AFNE21.JPG,AFSA23.JPG,AFSA22.JPG,AFNE23.JPG,,,,,0,5,5,0,,,,,,,,,,,,,,,,,,,AMNE18.jpg,AMNE10.jpg,AMSA01.jpg,AMSA14.jpg,AMNE18.jpg,MN,1,num_8,16,num_8,1.60006979282,,,2017_Apr_19_1554,60.0041763155,FEMA4ImagesEEG,001,100216,
AMNE23.JPG,AMNE24.JPG,AMNE22.JPG,AMSA24.JPG,AMSA22.JPG,AMSA23.JPG,,,,,0,6,6,9,,,,,,,,,,,,,,,,,,,AMNE11.jpg,AMSA18.jpg,AMNE20.jpg,AMSA16.jpg,AMSA18.jpg,MS,2,num_6,16,num_6,0.833456871333,,,2017_Apr_19_1554,60.0041763155,FEMA4ImagesEEG,001,100216,
AMSA21.JPG,AMNE23.JPG,AMNE21.JPG,AMSA25.JPG,AMNE25.JPG,AMSA23.JPG,,,,,0,7,7,5,,,,,,,,,,,,,,,,,,,AMSA08.jpg,AMSA16.jpg,AMNE17.jpg,AMNE12.jpg,AMNE12.jpg,MN,1,num_4,16,num_4,1.50003063059,,,2017_Apr_19_1554,60.0041763155,FEMA4ImagesEEG,001,100216,
AMSA25.JPG,AMNE24.JPG,AMSA24.JPG,AMNE26.JPG,AMSA21.JPG,AMNE25.JPG,,,,,0,8,8,3,,,,,,,,,,,,,,,,,,,AMSA19.jpg,AMNE07.jpg,AMNE04.jpg,AMSA13.jpg,AMNE04.jpg,MN,1,num_2,16,num_2,1.35028396634,,,2017_Apr_19_1554,60.0041763155,FEMA4ImagesEEG,001,100216,
AFNE23.JPG,AFNE24.JPG,AFNE22.JPG,AFSA24.JPG,AFSA22.JPG,AFSA23.JPG,,,,,0,9,9,8,,,,,,,,,,,,,,,,,,,AMSA01.jpg,AMSA03.jpg,AMNE01.jpg,AMNE14.jpg,AMNE01.jpg,MN,1,num_2,16,num_2,1.78348828774,,,2017_Apr_19_1554,60.0041763155,FEMA4ImagesEEG,001,100216,
AFNE22.JPG,AFSA24.JPG,AFSA22.JPG,AFNE25.JPG,AFNE24.JPG,AFSA25.JPG,,,,,,,,,0,0,0,6,,,,,,,,,,,,,,,AFNE14.jpg,AFNE07.jpg,AFSA14.jpg,AFSA04.jpg,AFNE14.jpg,FN,3,num_8,16,num_8,1.61669626553,,,2017_Apr_19_1554,60.0041763155,FEMA4ImagesEEG,001,100216,
AFSA21.JPG,AFNE22.JPG,AFNE21.JPG,AFSA23.JPG,AFSA22.JPG,AFNE23.JPG,,,,,,,,,0,1,1,0,,,,,,,,,,,,,,,AFSA14.jpg,AFNE01.jpg,AFSA19.jpg,AFNE16.jpg,AFNE16.jpg,FN,3,num_4,16,num_4,1.30004499969,,,2017_Apr_19_1554,60.0041763155,FEMA4ImagesEEG,001,100216,
AFSA21.JPG,AFNE23.JPG,AFNE21.JPG,AFSA25.JPG,AFNE25.JPG,AFSA23.JPG,,,,,,,,,0,2,2,4,,,,,,,,,,,,,,,AFNE07.jpg,AFSA18.jpg,AFNE05.jpg,AFSA11.jpg,AFSA18.jpg,FS,4,num_6,16,num_6,1.61666226719,,,2017_Apr_19_1554,60.0041763155,FEMA4ImagesEEG,001,100216,
AMSA21.JPG,AMNE22.JPG,AMNE21.JPG,AMSA23.JPG,AMSA22.JPG,AMNE23.JPG,,,,,,,,,0,3,3,1,,,,,,,,,,,,,,,AFSA13.jpg,AFNE08.jpg,AFNE11.jpg,AFSA10.jpg,AFSA10.jpg,FS,4,num_4,32,num_2,1.58337275751,,,2017_Apr_19_1554,60.0041763155,FEMA4ImagesEEG,001,100216,
AFSA25.JPG,AFNE24.JPG,AFSA24.JPG,AFNE21.JPG,AFSA21.JPG,AFNE25.JPG,,,,,,,,,0,4,4,2,,,,,,,,,,,,,,,AFNE06.jpg,AFSA17.jpg,AFNE03.jpg,AFSA08.jpg,AFSA17.jpg,FS,4,num_6,32,num_4,1.31670482928,,,2017_Apr_19_1554,60.0041763155,FEMA4ImagesEEG,001,100216,
AMNE23.JPG,AMNE24.JPG,AMNE22.JPG,AMSA24.JPG,AMSA22.JPG,AMSA23.JPG,,,,,,,,,0,5,5,9,,,,,,,,,,,,,,,AFNE06.jpg,AFSA10.jpg,AFNE05.jpg,AFSA17.jpg,AFNE05.jpg,FN,3,num_2,32,num_6,0.75010255634,,,2017_Apr_19_1554,60.0041763155,FEMA4ImagesEEG,001,100216,
AFNE23.JPG,AFNE24.JPG,AFNE22.JPG,AFSA24.JPG,AFSA22.JPG,AFSA23.JPG,,,,,,,,,0,6,6,8,,,,,,,,,,,,,,,AFSA06.jpg,AFNE18.jpg,AFSA01.jpg,AFNE03.jpg,AFSA06.jpg,FS,4,num_8,32,num_2,1.99976233233,,,2017_Apr_19_1554,60.0041763155,FEMA4ImagesEEG,001,100216,
AMSA21.JPG,AMNE23.JPG,AMNE21.JPG,AMSA25.JPG,AMNE25.JPG,AMSA23.JPG,,,,,,,,,0,7,7,5,,,,,,,,,,,,,,,AFSA09.jpg,AFNE11.jpg,AFNE17.jpg,AFSA12.jpg,AFNE17.jpg,FN,3,num_2,16,num_2,1.20008570148,,,2017_Apr_19_1554,60.0041763155,FEMA4ImagesEEG,001,100216,
AMSA25.JPG,AMNE24.JPG,AMSA24.JPG,AMNE26.JPG,AMSA21.JPG,AMNE25.JPG,,,,,,,,,0,8,8,3,,,,,,,,,,,,,,,AFNE10.jpg,AFSA08.jpg,AFNE09.jpg,AFSA16.jpg,AFSA16.jpg,FS,4,num_4,16,num_4,1.31690497044,,,2017_Apr_19_1554,60.0041763155,FEMA4ImagesEEG,001,100216,
AMNE22.JPG,AMSA24.JPG,AMSA22.JPG,AMNE25.JPG,AMNE24.JPG,AMSA25.JPG,,,,,,,,,0,9,9,7,,,,,,,,,,,,,,,AFSA17.jpg,AFNE04.jpg,AFNE17.jpg,AFSA18.jpg,AFSA18.jpg,FS,4,num_4,16,num_4,0.983488351892,,,2017_Apr_19_1554,60.0041763155,FEMA4ImagesEEG,001,100216,
AFSA25.JPG,AFNE24.JPG,AFSA24.JPG,AFNE21.JPG,AFSA21.JPG,AFNE25.JPG,,,,,,,,,,,,,0,0,0,2,,,,,,,,,,,AMSA12.jpg,AMSA06.jpg,AMNE09.jpg,AMNE04.jpg,AMSA12.jpg,MS,2,num_8,32,num_2,2.08338221931,,,2017_Apr_19_1554,60.0041763155,FEMA4ImagesEEG,001,100216,
AMNE23.JPG,AMNE24.JPG,AMNE22.JPG,AMSA24.JPG,AMSA22.JPG,AMSA23.JPG,,,,,,,,,,,,,0,1,1,9,,,,,,,,,,,AMNE02.jpg,AMSA08.jpg,AMSA06.jpg,AMNE15.jpg,AMNE15.jpg,MN,1,num_4,32,num_8,1.11672497168,,,2017_Apr_19_1554,60.0041763155,FEMA4ImagesEEG,001,100216,
AFSA21.JPG,AFNE22.JPG,AFNE21.JPG,AFSA23.JPG,AFSA22.JPG,AFNE23.JPG,,,,,,,,,,,,,0,2,2,0,,,,,,,,,,,AMNE06.jpg,AMNE13.jpg,AMSA11.jpg,AMSA19.jpg,AMSA11.jpg,MS,2,num_2,32,num_4,2.23332902472,,,2017_Apr_19_1554,60.0041763155,FEMA4ImagesEEG,001,100216,
AFSA21.JPG,AFNE23.JPG,AFNE21.JPG,AFSA25.JPG,AFNE25.JPG,AFSA23.JPG,,,,,,,,,,,,,0,3,3,4,,,,,,,,,,,AMSA11.jpg,AMNE07.jpg,AMNE02.jpg,AMSA06.jpg,AMSA11.jpg,MS,2,num_8,32,num_4,0.650133956689,,,2017_Apr_19_1554,60.0041763155,FEMA4ImagesEEG,001,100216,
AMSA21.JPG,AMNE23.JPG,AMNE21.JPG,AMSA25.JPG,AMNE25.JPG,AMSA23.JPG,,,,,,,,,,,,,0,4,4,5,,,,,,,,,,,AMNE12.jpg,AMSA06.jpg,AMSA12.jpg,AMNE10.jpg,AMNE12.jpg,MN,1,num_8,16,num_8,1.30008573356,,,2017_Apr_19_1554,60.0041763155,FEMA4ImagesEEG,001,100216,
AMNE22.JPG,AMSA24.JPG,AMSA22.JPG,AMNE25.JPG,AMNE24.JPG,AMSA25.JPG,,,,,,,,,,,,,0,5,5,7,,,,,,,,,,,AMNE20.jpg,AMSA16.jpg,AMNE16.jpg,AMSA07.jpg,AMNE16.jpg,MN,1,num_2,16,num_2,1.60006337805,,,2017_Apr_19_1554,60.0041763155,FEMA4ImagesEEG,001,100216,
AMSA25.JPG,AMNE24.JPG,AMSA24.JPG,AMNE26.JPG,AMSA21.JPG,AMNE25.JPG,,,,,,,,,,,,,0,6,6,3,,,,,,,,,,,AMSA09.jpg,AMSA08.jpg,AMNE08.jpg,AMNE03.jpg,AMSA09.jpg,MS,2,num_8,16,num_8,1.06692028575,,,2017_Apr_19_1554,60.0041763155,FEMA4ImagesEEG,001,100216,
AMSA21.JPG,AMNE22.JPG,AMNE21.JPG,AMSA23.JPG,AMSA22.JPG,AMNE23.JPG,,,,,,,,,,,,,0,7,7,1,,,,,,,,,,,AMNE05.jpg,AMSA14.jpg,AMNE01.jpg,AMSA06.jpg,AMSA06.jpg,MS,2,num_4,16,num_4,0.850107399485,,,2017_Apr_19_1554,60.0041763155,FEMA4ImagesEEG,001,100216,
AFNE23.JPG,AFNE24.JPG,AFNE22.JPG,AFSA24.JPG,AFSA22.JPG,AFSA23.JPG,,,,,,,,,,,,,0,8,8,8,,,,,,,,,,,AMSA20.jpg,AMSA06.jpg,AMNE19.jpg,AMNE07.jpg,AMSA20.jpg,MS,2,num_8,16,num_8,1.25007320871,,,2017_Apr_19_1554,60.0041763155,FEMA4ImagesEEG,001,100216,
AFNE22.JPG,AFSA24.JPG,AFSA22.JPG,AFNE25.JPG,AFNE24.JPG,AFSA25.JPG,,,,,,,,,,,,,0,9,9,6,,,,,,,,,,,AMSA09.jpg,AMSA17.jpg,AMNE18.jpg,AMNE20.jpg,AMSA09.jpg,MS,2,num_8,32,num_6,0.766775215481,,,2017_Apr_19_1554,60.0041763155,FEMA4ImagesEEG,001,100216,
AFNE23.JPG,AFNE24.JPG,AFNE22.JPG,AFSA24.JPG,AFSA22.JPG,AFSA23.JPG,,,,,,,,,,,,,,,,,0,0,0,8,,,,,,,AFNE16.jpg,AFSA06.jpg,AFSA14.jpg,AFNE13.jpg,AFSA06.jpg,FS,4,num_6,16,num_6,1.18341336309,,,2017_Apr_19_1554,60.0041763155,FEMA4ImagesEEG,001,100216,
AFSA21.JPG,AFNE23.JPG,AFNE21.JPG,AFSA25.JPG,AFNE25.JPG,AFSA23.JPG,,,,,,,,,,,,,,,,,0,1,1,4,,,,,,,AFSA13.jpg,AFSA10.jpg,AFNE13.jpg,AFNE01.jpg,AFSA10.jpg,FS,4,num_6,16,num_6,0.766755971126,,,2017_Apr_19_1554,60.0041763155,FEMA4ImagesEEG,001,100216,
AFSA21.JPG,AFNE22.JPG,AFNE21.JPG,AFSA23.JPG,AFSA22.JPG,AFNE23.JPG,,,,,,,,,,,,,,,,,0,2,2,0,,,,,,,AFSA09.jpg,AFNE17.jpg,AFNE13.jpg,AFSA07.jpg,AFSA09.jpg,FS,4,num_8,16,num_8,0.783521644596,,,2017_Apr_19_1554,60.0041763155,FEMA4ImagesEEG,001,100216,
AMNE22.JPG,AMSA24.JPG,AMSA22.JPG,AMNE25.JPG,AMNE24.JPG,AMSA25.JPG,,,,,,,,,,,,,,,,,0,3,3,7,,,,,,,AFNE19.jpg,AFNE09.jpg,AFSA09.jpg,AFSA17.jpg,AFSA17.jpg,FS,4,num_4,32,num_2,1.28346214749,,,2017_Apr_19_1554,60.0041763155,FEMA4ImagesEEG,001,100216,
AFSA25.JPG,AFNE24.JPG,AFSA24.JPG,AFNE21.JPG,AFSA21.JPG,AFNE25.JPG,,,,,,,,,,,,,,,,,0,4,4,2,,,,,,,AFSA13.jpg,AFNE13.jpg,AFSA06.jpg,AFNE05.jpg,AFSA13.jpg,FS,4,num_8,16,num_8,0.700125954259,,,2017_Apr_19_1554,60.0041763155,FEMA4ImagesEEG,001,100216,
AMNE23.JPG,AMNE24.JPG,AMNE22.JPG,AMSA24.JPG,AMSA22.JPG,AMSA23.JPG,,,,,,,,,,,,,,,,,0,5,5,9,,,,,,,AFSA14.jpg,AFNE15.jpg,AFNE05.jpg,AFSA02.jpg,AFSA02.jpg,FS,4,num_4,16,num_4,1.00011835271,,,2017_Apr_19_1554,60.0041763155,FEMA4ImagesEEG,001,100216,
AMSA25.JPG,AMNE24.JPG,AMSA24.JPG,AMNE26.JPG,AMSA21.JPG,AMNE25.JPG,,,,,,,,,,,,,,,,,0,6,6,3,,,,,,,AFSA05.jpg,AFNE13.jpg,AFNE09.jpg,AFSA06.jpg,AFNE09.jpg,FN,3,num_2,32,num_6,2.21666694997,,,2017_Apr_19_1554,60.0041763155,FEMA4ImagesEEG,001,100216,
AMSA21.JPG,AMNE23.JPG,AMNE21.JPG,AMSA25.JPG,AMNE25.JPG,AMSA23.JPG,,,,,,,,,,,,,,,,,0,7,7,5,,,,,,,AFNE11.jpg,AFSA09.jpg,AFSA07.jpg,AFNE08.jpg,AFNE08.jpg,FN,3,num_4,32,num_2,1.88326219877,,,2017_Apr_19_1554,60.0041763155,FEMA4ImagesEEG,001,100216,
AFNE22.JPG,AFSA24.JPG,AFSA22.JPG,AFNE25.JPG,AFNE24.JPG,AFSA25.JPG,,,,,,,,,,,,,,,,,0,8,8,6,,,,,,,AFSA02.jpg,AFNE10.jpg,AFNE18.jpg,AFSA01.jpg,AFNE10.jpg,FN,3,num_6,32,num_8,1.35007067485,,,2017_Apr_19_1554,60.0041763155,FEMA4ImagesEEG,001,100216,
AMSA21.JPG,AMNE22.JPG,AMNE21.JPG,AMSA23.JPG,AMSA22.JPG,AMNE23.JPG,,,,,,,,,,,,,,,,,0,9,9,1,,,,,,,AFSA09.jpg,AFNE02.jpg,AFSA12.jpg,AFNE14.jpg,AFSA09.jpg,FS,4,num_8,32,num_6,1.45011368598,,,2017_Apr_19_1554,60.0041763155,FEMA4ImagesEEG,001,100216,
AMSA21.JPG,AMNE22.JPG,AMNE21.JPG,AMSA23.JPG,AMSA22.JPG,AMNE23.JPG,,,,,,,,,,,,,,,,,,,,,0,0,0,1,,,AMNE12.jpg,AMSA01.jpg,AMNE09.jpg,AMSA11.jpg,AMNE09.jpg,MN,1,num_2,16,num_2,1.28340665964,,,2017_Apr_19_1554,60.0041763155,FEMA4ImagesEEG,001,100216,
AFNE23.JPG,AFNE24.JPG,AFNE22.JPG,AFSA24.JPG,AFSA22.JPG,AFSA23.JPG,,,,,,,,,,,,,,,,,,,,,0,1,1,8,,,AMNE01.jpg,AMSA19.jpg,AMNE10.jpg,AMSA18.jpg,AMNE01.jpg,MN,1,num_8,32,num_2,1.21659863254,,,2017_Apr_19_1554,60.0041763155,FEMA4ImagesEEG,001,100216,
AFSA21.JPG,AFNE22.JPG,AFNE21.JPG,AFSA23.JPG,AFSA22.JPG,AFNE23.JPG,,,,,,,,,,,,,,,,,,,,,0,2,2,0,,,AMNE11.jpg,AMNE19.jpg,AMSA17.jpg,AMSA08.jpg,AMNE19.jpg,MN,1,num_6,16,num_6,1.06662199841,,,2017_Apr_19_1554,60.0041763155,FEMA4ImagesEEG,001,100216,
AFSA21.JPG,AFNE23.JPG,AFNE21.JPG,AFSA25.JPG,AFNE25.JPG,AFSA23.JPG,,,,,,,,,,,,,,,,,,,,,0,3,3,4,,,AMNE01.jpg,AMSA06.jpg,AMNE06.jpg,AMSA17.jpg,AMNE01.jpg,MN,1,num_8,32,num_2,2.11662329739,,,2017_Apr_19_1554,60.0041763155,FEMA4ImagesEEG,001,100216,
AMSA21.JPG,AMNE23.JPG,AMNE21.JPG,AMSA25.JPG,AMNE25.JPG,AMSA23.JPG,,,,,,,,,,,,,,,,,,,,,0,4,4,5,,,AMSA16.jpg,AMNE02.jpg,AMSA11.jpg,AMNE19.jpg,AMSA11.jpg,MS,2,num_2,32,num_8,1.11675447968,,,2017_Apr_19_1554,60.0041763155,FEMA4ImagesEEG,001,100216,
AFNE22.JPG,AFSA24.JPG,AFSA22.JPG,AFNE25.JPG,AFNE24.JPG,AFSA25.JPG,,,,,,,,,,,,,,,,,,,,,0,5,5,6,,,AMNE01.jpg,AMSA04.jpg,AMNE02.jpg,AMSA13.jpg,AMNE02.jpg,MN,1,num_2,16,num_2,1.26690270926,,,2017_Apr_19_1554,60.0041763155,FEMA4ImagesEEG,001,100216,
AMNE22.JPG,AMSA24.JPG,AMSA22.JPG,AMNE25.JPG,AMNE24.JPG,AMSA25.JPG,,,,,,,,,,,,,,,,,,,,,0,6,6,7,,,AMNE15.jpg,AMSA04.jpg,AMSA12.jpg,AMNE07.jpg,AMNE15.jpg,MN,1,num_8,16,num_8,1.1333963479,,,2017_Apr_19_1554,60.0041763155,FEMA4ImagesEEG,001,100216,
AMNE23.JPG,AMNE24.JPG,AMNE22.JPG,AMSA24.JPG,AMSA22.JPG,AMSA23.JPG,,,,,,,,,,,,,,,,,,,,,0,7,7,9,,,AMNE18.jpg,AMSA04.jpg,AMSA13.jpg,AMNE04.jpg,AMSA13.jpg,MS,2,num_2,16,num_2,1.51659167252,,,2017_Apr_19_1554,60.0041763155,FEMA4ImagesEEG,001,100216,
AFSA25.JPG,AFNE24.JPG,AFSA24.JPG,AFNE21.JPG,AFSA21.JPG,AFNE25.JPG,,,,,,,,,,,,,,,,,,,,,0,8,8,2,,,AMNE18.jpg,AMSA11.jpg,AMSA04.jpg,AMNE13.jpg,AMNE13.jpg,MN,1,num_4,16,num_4,0.566877467092,,,2017_Apr_19_1554,60.0041763155,FEMA4ImagesEEG,001,100216,
AMSA25.JPG,AMNE24.JPG,AMSA24.JPG,AMNE26.JPG,AMSA21.JPG,AMNE25.JPG,,,,,,,,,,,,,,,,,,,,,0,9,9,3,,,AMSA09.jpg,AMNE07.jpg,AMSA20.jpg,AMNE09.jpg,AMNE09.jpg,MN,1,num_4,32,num_8,0.750110254041,,,2017_Apr_19_1554,60.0041763155,FEMA4ImagesEEG,001,100216,
,,,,,,,,,,,,,,,,,,,,,,,,,,,,,,,,,,,,,,,,,,,space,5.85002304509,2017_Apr_19_1554,60.0041763155,FEMA4ImagesEEG,001,100216,
AFNE01.JPG,AFNE01.JPG,AFNE01.JPG,AFNE01.JPG,AFNE01.JPG,AFNE01.JPG,0,0,0,6,,,,,,,,,,,,,,,,,,,,,,,AFSA09.jpg,AFNE09.jpg,AFNE06.jpg,AFSA13.jpg,AFSA09.jpg,FS,4,num_8,16,num_8,0.683552403469,,,2017_Apr_19_1554,60.0041763155,FEMA4ImagesEEG,001,100216,
AFNE01.JPG,AFNE01.JPG,AFNE01.JPG,AFNE01.JPG,AFNE01.JPG,AFNE01.JPG,0,1,1,4,,,,,,,,,,,,,,,,,,,,,,,AFNE03.jpg,AFNE12.jpg,AFSA13.jpg,AFSA15.jpg,AFSA15.jpg,FS,4,num_4,16,num_4,0.566898635851,,,2017_Apr_19_1554,60.0041763155,FEMA4ImagesEEG,001,100216,
AFNE01.JPG,AFNE01.JPG,AFNE01.JPG,AFNE01.JPG,AFNE01.JPG,AFNE01.JPG,0,2,2,8,,,,,,,,,,,,,,,,,,,,,,,AFNE16.jpg,AFSA07.jpg,AFSA13.jpg,AFNE09.jpg,AFNE16.jpg,FN,3,num_8,32,num_6,1.16672017664,,,2017_Apr_19_1554,60.0041763155,FEMA4ImagesEEG,001,100216,
AFNE01.JPG,AFNE01.JPG,AFNE01.JPG,AFNE01.JPG,AFNE01.JPG,AFNE01.JPG,0,3,3,2,,,,,,,,,,,,,,,,,,,,,,,AFNE09.jpg,AFSA04.jpg,AFNE14.jpg,AFSA10.jpg,AFSA10.jpg,FS,4,num_4,32,num_6,0.75004610623,,,2017_Apr_19_1554,60.0041763155,FEMA4ImagesEEG,001,100216,
AFNE01.JPG,AFNE01.JPG,AFNE01.JPG,AFNE01.JPG,AFNE01.JPG,AFNE01.JPG,0,4,4,0,,,,,,,,,,,,,,,,,,,,,,,AFNE13.jpg,AFSA19.jpg,AFNE14.jpg,AFSA07.jpg,AFSA19.jpg,FS,4,num_6,16,num_6,0.483464777557,,,2017_Apr_19_1554,60.0041763155,FEMA4ImagesEEG,001,100216,
AFNE01.JPG,AFNE01.JPG,AFNE01.JPG,AFNE01.JPG,AFNE01.JPG,AFNE01.JPG,0,5,5,3,,,,,,,,,,,,,,,,,,,,,,,AFNE14.jpg,AFNE08.jpg,AFSA10.jpg,AFSA13.jpg,AFSA10.jpg,FS,4,num_2,32,num_6,1.5166891772,,,2017_Apr_19_1554,60.0041763155,FEMA4ImagesEEG,001,100216,
AFNE01.JPG,AFNE01.JPG,AFNE01.JPG,AFNE01.JPG,AFNE01.JPG,AFNE01.JPG,0,6,6,1,,,,,,,,,,,,,,,,,,,,,,,AFSA13.jpg,AFNE20.jpg,AFNE19.jpg,AFSA05.jpg,AFNE19.jpg,FN,3,num_2,16,num_2,1.53334996899,,,2017_Apr_19_1554,60.0041763155,FEMA4ImagesEEG,001,100216,
AFNE01.JPG,AFNE01.JPG,AFNE01.JPG,AFNE01.JPG,AFNE01.JPG,AFNE01.JPG,0,7,7,9,,,,,,,,,,,,,,,,,,,,,,,AFNE08.jpg,AFSA02.jpg,AFSA19.jpg,AFNE03.jpg,AFNE03.jpg,FN,3,num_4,16,num_4,0.816771703394,,,2017_Apr_19_1554,60.0041763155,FEMA4ImagesEEG,001,100216,
AFNE01.JPG,AFNE01.JPG,AFNE01.JPG,AFNE01.JPG,AFNE01.JPG,AFNE01.JPG,0,8,8,7,,,,,,,,,,,,,,,,,,,,,,,AFSA20.jpg,AFNE19.jpg,AFNE17.jpg,AFSA19.jpg,AFSA19.jpg,FS,4,num_4,32,num_2,2.13331808752,,,2017_Apr_19_1554,60.0041763155,FEMA4ImagesEEG,001,100216,
AFNE01.JPG,AFNE01.JPG,AFNE01.JPG,AFNE01.JPG,AFNE01.JPG,AFNE01.JPG,0,9,9,5,,,,,,,,,,,,,,,,,,,,,,,AFSA04.jpg,AFSA01.jpg,AFNE17.jpg,AFNE04.jpg,AFSA01.jpg,FS,4,num_6,16,num_6,0.866814056964,,,2017_Apr_19_1554,60.0041763155,FEMA4ImagesEEG,001,100216,
AFNE01.JPG,AFNE01.JPG,AFNE01.JPG,AFNE01.JPG,AFNE01.JPG,AFNE01.JPG,1,0,10,5,,,,,,,,,,,,,,,,,,,,,,,AFNE07.jpg,AFNE02.jpg,AFSA06.jpg,AFSA13.jpg,AFNE02.jpg,FN,3,num_6,16,num_6,0.633454562019,,,2017_Apr_19_1554,60.0041763155,FEMA4ImagesEEG,001,100216,
AFNE01.JPG,AFNE01.JPG,AFNE01.JPG,AFNE01.JPG,AFNE01.JPG,AFNE01.JPG,1,1,11,2,,,,,,,,,,,,,,,,,,,,,,,AFSA14.jpg,AFNE19.jpg,AFSA11.jpg,AFNE10.jpg,AFNE10.jpg,FN,3,num_4,32,num_8,1.66667254691,,,2017_Apr_19_1554,60.0041763155,FEMA4ImagesEEG,001,100216,
AFNE01.JPG,AFNE01.JPG,AFNE01.JPG,AFNE01.JPG,AFNE01.JPG,AFNE01.JPG,1,2,12,9,,,,,,,,,,,,,,,,,,,,,,,AFSA13.jpg,AFSA17.jpg,AFNE11.jpg,AFNE04.jpg,AFNE11.jpg,FN,3,num_2,16,num_2,1.35005624162,,,2017_Apr_19_1554,60.0041763155,FEMA4ImagesEEG,001,100216,
AFNE01.JPG,AFNE01.JPG,AFNE01.JPG,AFNE01.JPG,AFNE01.JPG,AFNE01.JPG,1,3,13,3,,,,,,,,,,,,,,,,,,,,,,,AFNE09.jpg,AFSA12.jpg,AFSA06.jpg,AFNE18.jpg,AFSA12.jpg,FS,4,num_6,16,num_6,0.950170617143,,,2017_Apr_19_1554,60.0041763155,FEMA4ImagesEEG,001,100216,
AFNE01.JPG,AFNE01.JPG,AFNE01.JPG,AFNE01.JPG,AFNE01.JPG,AFNE01.JPG,1,4,14,1,,,,,,,,,,,,,,,,,,,,,,,AFSA10.jpg,AFNE11.jpg,AFNE04.jpg,AFSA05.jpg,AFNE04.jpg,FN,3,num_2,32,num_8,1.48341249707,,,2017_Apr_19_1554,60.0041763155,FEMA4ImagesEEG,001,100216,
AFNE01.JPG,AFNE01.JPG,AFNE01.JPG,AFNE01.JPG,AFNE01.JPG,AFNE01.JPG,1,5,15,4,,,,,,,,,,,,,,,,,,,,,,,AFSA12.jpg,AFSA13.jpg,AFNE02.jpg,AFNE06.jpg,AFSA13.jpg,FS,4,num_6,16,num_6,1.41675457591,,,2017_Apr_19_1554,60.0041763155,FEMA4ImagesEEG,001,100216,
AFNE01.JPG,AFNE01.JPG,AFNE01.JPG,AFNE01.JPG,AFNE01.JPG,AFNE01.JPG,1,6,16,8,,,,,,,,,,,,,,,,,,,,,,,AFNE18.jpg,AFSA18.jpg,AFSA13.jpg,AFNE02.jpg,AFNE02.jpg,FN,3,num_4,32,num_8,1.00011546607,,,2017_Apr_19_1554,60.0041763155,FEMA4ImagesEEG,001,100216,
AFNE01.JPG,AFNE01.JPG,AFNE01.JPG,AFNE01.JPG,AFNE01.JPG,AFNE01.JPG,1,7,17,7,,,,,,,,,,,,,,,,,,,,,,,AFNE07.jpg,AFSA06.jpg,AFNE06.jpg,AFSA02.jpg,AFSA02.jpg,FS,4,num_4,16,num_4,1.40008576564,,,2017_Apr_19_1554,60.0041763155,FEMA4ImagesEEG,001,100216,
AFNE01.JPG,AFNE01.JPG,AFNE01.JPG,AFNE01.JPG,AFNE01.JPG,AFNE01.JPG,1,8,18,0,,,,,,,,,,,,,,,,,,,,,,,AFNE15.jpg,AFSA01.jpg,AFSA05.jpg,AFNE17.jpg,AFNE17.jpg,FN,3,num_4,32,num_8,0.950097167894,,,2017_Apr_19_1554,60.0041763155,FEMA4ImagesEEG,001,100216,
AFNE01.JPG,AFNE01.JPG,AFNE01.JPG,AFNE01.JPG,AFNE01.JPG,AFNE01.JPG,1,9,19,6,,,,,,,,,,,,,,,,,,,,,,,AFSA15.jpg,AFSA08.jpg,AFNE20.jpg,AFNE12.jpg,AFSA08.jpg,FS,4,num_6,16,num_6,1.01675124021,,,2017_Apr_19_1554,60.0041763155,FEMA4ImagesEEG,001,100216,
AFNE01.JPG,AFNE01.JPG,AFNE01.JPG,AFNE01.JPG,AFNE01.JPG,AFNE01.JPG,2,0,20,9,,,,,,,,,,,,,,,,,,,,,,,AFSA10.jpg,AFSA08.jpg,AFNE15.jpg,AFNE09.jpg,AFSA10.jpg,FS,4,num_8,32,num_6,0.800288601022,,,2017_Apr_19_1554,60.0041763155,FEMA4ImagesEEG,001,100216,
AFNE01.JPG,AFNE01.JPG,AFNE01.JPG,AFNE01.JPG,AFNE01.JPG,AFNE01.JPG,2,1,21,4,,,,,,,,,,,,,,,,,,,,,,,AFSA05.jpg,AFSA17.jpg,AFNE02.jpg,AFNE07.jpg,AFNE02.jpg,FN,3,num_2,32,num_4,1.11672689611,,,2017_Apr_19_1554,60.0041763155,FEMA4ImagesEEG,001,100216,
AFNE01.JPG,AFNE01.JPG,AFNE01.JPG,AFNE01.JPG,AFNE01.JPG,AFNE01.JPG,2,2,22,8,,,,,,,,,,,,,,,,,,,,,,,AFSA06.jpg,AFSA09.jpg,AFNE05.jpg,AFNE04.jpg,AFSA06.jpg,FS,4,num_8,32,num_6,1.85005768493,,,2017_Apr_19_1554,60.0041763155,FEMA4ImagesEEG,001,100216,
AFNE01.JPG,AFNE01.JPG,AFNE01.JPG,AFNE01.JPG,AFNE01.JPG,AFNE01.JPG,2,3,23,2,,,,,,,,,,,,,,,,,,,,,,,AFNE01.jpg,AFSA03.jpg,AFSA09.jpg,AFNE04.jpg,AFNE04.jpg,FN,3,num_4,16,num_4,0.666823294247,,,2017_Apr_19_1554,60.0041763155,FEMA4ImagesEEG,001,100216,
AFNE01.JPG,AFNE01.JPG,AFNE01.JPG,AFNE01.JPG,AFNE01.JPG,AFNE01.JPG,2,4,24,7,,,,,,,,,,,,,,,,,,,,,,,AFSA02.jpg,AFSA13.jpg,AFNE03.jpg,AFNE08.jpg,AFSA13.jpg,FS,4,num_6,16,num_6,1.05011965171,,,2017_Apr_19_1554,60.0041763155,FEMA4ImagesEEG,001,100216,
AFNE01.JPG,AFNE01.JPG,AFNE01.JPG,AFNE01.JPG,AFNE01.JPG,AFNE01.JPG,2,5,25,5,,,,,,,,,,,,,,,,,,,,,,,AFSA02.jpg,AFNE12.jpg,AFSA03.jpg,AFNE18.jpg,AFSA02.jpg,FS,4,num_8,16,num_8,0.983423883299,,,2017_Apr_19_1554,60.0041763155,FEMA4ImagesEEG,001,100216,
AFNE01.JPG,AFNE01.JPG,AFNE01.JPG,AFNE01.JPG,AFNE01.JPG,AFNE01.JPG,2,6,26,1,,,,,,,,,,,,,,,,,,,,,,,AFSA17.jpg,AFNE05.jpg,AFSA12.jpg,AFNE12.jpg,AFSA12.jpg,FS,4,num_2,16,num_2,1.7666328073,,,2017_Apr_19_1554,60.0041763155,FEMA4ImagesEEG,001,100216,
AFNE01.JPG,AFNE01.JPG,AFNE01.JPG,AFNE01.JPG,AFNE01.JPG,AFNE01.JPG,2,7,27,0,,,,,,,,,,,,,,,,,,,,,,,AFSA16.jpg,AFNE20.jpg,AFSA13.jpg,AFNE17.jpg,AFNE20.jpg,FN,3,num_6,16,num_6,0.650121127139,,,2017_Apr_19_1554,60.0041763155,FEMA4ImagesEEG,001,100216,
AFNE01.JPG,AFNE01.JPG,AFNE01.JPG,AFNE01.JPG,AFNE01.JPG,AFNE01.JPG,2,8,28,6,,,,,,,,,,,,,,,,,,,,,,,AFNE10.jpg,AFSA06.jpg,AFSA01.jpg,AFNE14.jpg,AFSA01.jpg,FS,4,num_2,32,num_6,1.31643540843,,,2017_Apr_19_1554,60.0041763155,FEMA4ImagesEEG,001,100216,
AFNE01.JPG,AFNE01.JPG,AFNE01.JPG,AFNE01.JPG,AFNE01.JPG,AFNE01.JPG,2,9,29,3,,,,,,,,,,,,,,,,,,,,,,,AFSA10.jpg,AFSA04.jpg,AFNE01.jpg,AFNE16.jpg,AFSA04.jpg,FS,4,num_6,32,num_8,1.86670372271,,,2017_Apr_19_1554,60.0041763155,FEMA4ImagesEEG,001,100216,
AFNE01.JPG,AFNE01.JPG,AFNE01.JPG,AFNE01.JPG,AFNE01.JPG,AFNE01.JPG,3,0,30,4,,,,,,,,,,,,,,,,,,,,,,,AFSA10.jpg,AFNE16.jpg,AFSA17.jpg,AFNE18.jpg,AFSA10.jpg,FS,4,num_8,32,num_2,0.850103871344,,,2017_Apr_19_1554,60.0041763155,FEMA4ImagesEEG,001,100216,
AFNE01.JPG,AFNE01.JPG,AFNE01.JPG,AFNE01.JPG,AFNE01.JPG,AFNE01.JPG,3,1,31,5,,,,,,,,,,,,,,,,,,,,,,,AFNE14.jpg,AFSA04.jpg,AFNE04.jpg,AFSA13.jpg,AFSA04.jpg,FS,4,num_6,32,num_4,0.850143963733,,,2017_Apr_19_1554,60.0041763155,FEMA4ImagesEEG,001,100216,
AFNE01.JPG,AFNE01.JPG,AFNE01.JPG,AFNE01.JPG,AFNE01.JPG,AFNE01.JPG,3,2,32,9,,,,,,,,,,,,,,,,,,,,,,,AFNE19.jpg,AFSA03.jpg,AFSA16.jpg,AFNE03.jpg,AFSA16.jpg,FS,4,num_2,32,num_8,1.08346497,,,2017_Apr_19_1554,60.0041763155,FEMA4ImagesEEG,001,100216,
AFNE01.JPG,AFNE01.JPG,AFNE01.JPG,AFNE01.JPG,AFNE01.JPG,AFNE01.JPG,3,3,33,2,,,,,,,,,,,,,,,,,,,,,,,AFNE14.jpg,AFSA13.jpg,AFSA08.jpg,AFNE19.jpg,AFSA13.jpg,FS,4,num_6,16,num_6,0.716766860191,,,2017_Apr_19_1554,60.0041763155,FEMA4ImagesEEG,001,100216,
AFNE01.JPG,AFNE01.JPG,AFNE01.JPG,AFNE01.JPG,AFNE01.JPG,AFNE01.JPG,3,4,34,7,,,,,,,,,,,,,,,,,,,,,,,AFSA13.jpg,AFNE16.jpg,AFNE08.jpg,AFSA18.jpg,AFNE16.jpg,FN,3,num_6,32,num_2,1.25007609534,,,2017_Apr_19_1554,60.0041763155,FEMA4ImagesEEG,001,100216,
AFNE01.JPG,AFNE01.JPG,AFNE01.JPG,AFNE01.JPG,AFNE01.JPG,AFNE01.JPG,3,5,35,1,,,,,,,,,,,,,,,,,,,,,,,AFNE12.jpg,AFNE16.jpg,AFSA19.jpg,AFSA18.jpg,AFNE12.jpg,FN,3,num_8,32,num_6,1.33339416684,,,2017_Apr_19_1554,60.0041763155,FEMA4ImagesEEG,001,100216,
AFNE01.JPG,AFNE01.JPG,AFNE01.JPG,AFNE01.JPG,AFNE01.JPG,AFNE01.JPG,3,6,36,3,,,,,,,,,,,,,,,,,,,,,,,AFSA09.jpg,AFSA03.jpg,AFNE17.jpg,AFNE03.jpg,AFNE03.jpg,FN,3,num_4,32,num_2,1.06675253919,,,2017_Apr_19_1554,60.0041763155,FEMA4ImagesEEG,001,100216,
AFNE01.JPG,AFNE01.JPG,AFNE01.JPG,AFNE01.JPG,AFNE01.JPG,AFNE01.JPG,3,7,37,0,,,,,,,,,,,,,,,,,,,,,,,AFSA14.jpg,AFNE06.jpg,AFNE19.jpg,AFSA04.jpg,AFSA04.jpg,FS,4,num_4,16,num_4,1.25011939515,,,2017_Apr_19_1554,60.0041763155,FEMA4ImagesEEG,001,100216,
AFNE01.JPG,AFNE01.JPG,AFNE01.JPG,AFNE01.JPG,AFNE01.JPG,AFNE01.JPG,3,8,38,6,,,,,,,,,,,,,,,,,,,,,,,AFSA10.jpg,AFNE19.jpg,AFNE08.jpg,AFSA11.jpg,AFNE19.jpg,FN,3,num_6,16,num_6,2.15001191545,,,2017_Apr_19_1554,60.0041763155,FEMA4ImagesEEG,001,100216,
AFNE01.JPG,AFNE01.JPG,AFNE01.JPG,AFNE01.JPG,AFNE01.JPG,AFNE01.JPG,3,9,39,8,,,,,,,,,,,,,,,,,,,,,,,AFSA05.jpg,AFNE11.jpg,AFNE04.jpg,AFSA13.jpg,AFSA05.jpg,FS,4,num_8,16,num_8,0.633467712323,,,2017_Apr_19_1554,60.0041763155,FEMA4ImagesEEG,001,100216,
AFNE01.JPG,AFNE01.JPG,AFNE01.JPG,AFNE01.JPG,AFNE01.JPG,AFNE01.JPG,4,0,40,4,,,,,,,,,,,,,,,,,,,,,,,AFSA05.jpg,AFNE05.jpg,AFNE15.jpg,AFSA17.jpg,AFSA17.jpg,FS,4,num_4,32,num_2,1.48325501417,,,2017_Apr_19_1554,60.0041763155,FEMA4ImagesEEG,001,100216,
AFNE01.JPG,AFNE01.JPG,AFNE01.JPG,AFNE01.JPG,AFNE01.JPG,AFNE01.JPG,4,1,41,7,,,,,,,,,,,,,,,,,,,,,,,AFNE11.jpg,AFSA09.jpg,AFNE02.jpg,AFSA10.jpg,AFSA10.jpg,FS,4,num_4,16,num_4,3.16689658313,,,2017_Apr_19_1554,60.0041763155,FEMA4ImagesEEG,001,100216,
AFNE01.JPG,AFNE01.JPG,AFNE01.JPG,AFNE01.JPG,AFNE01.JPG,AFNE01.JPG,4,2,42,3,,,,,,,,,,,,,,,,,,,,,,,AFSA19.jpg,AFNE09.jpg,AFNE08.jpg,AFSA01.jpg,AFSA19.jpg,FS,4,num_8,16,num_8,2.31682959679,,,2017_Apr_19_1554,60.0041763155,FEMA4ImagesEEG,001,100216,
AFNE01.JPG,AFNE01.JPG,AFNE01.JPG,AFNE01.JPG,AFNE01.JPG,AFNE01.JPG,4,3,43,5,,,,,,,,,,,,,,,,,,,,,,,AFNE15.jpg,AFSA14.jpg,AFNE08.jpg,AFSA15.jpg,AFNE15.jpg,FN,3,num_8,16,num_8,0.733462291828,,,2017_Apr_19_1554,60.0041763155,FEMA4ImagesEEG,001,100216,
AFNE01.JPG,AFNE01.JPG,AFNE01.JPG,AFNE01.JPG,AFNE01.JPG,AFNE01.JPG,4,4,44,0,,,,,,,,,,,,,,,,,,,,,,,AFNE11.jpg,AFSA04.jpg,AFNE20.jpg,AFSA03.jpg,AFNE11.jpg,FN,3,num_8,32,num_6,0.800199756282,,,2017_Apr_19_1554,60.0041763155,FEMA4ImagesEEG,001,100216,
AFNE01.JPG,AFNE01.JPG,AFNE01.JPG,AFNE01.JPG,AFNE01.JPG,AFNE01.JPG,4,5,45,2,,,,,,,,,,,,,,,,,,,,,,,AFSA09.jpg,AFNE05.jpg,AFNE15.jpg,AFSA15.jpg,AFSA09.jpg,FS,4,num_8,32,num_2,1.53337562815,,,2017_Apr_19_1554,60.0041763155,FEMA4ImagesEEG,001,100216,
AFNE01.JPG,AFNE01.JPG,AFNE01.JPG,AFNE01.JPG,AFNE01.JPG,AFNE01.JPG,4,6,46,9,,,,,,,,,,,,,,,,,,,,,,,AFSA01.jpg,AFNE12.jpg,AFNE08.jpg,AFSA19.jpg,AFSA19.jpg,FS,4,num_4,16,num_4,1.00008307141,,,2017_Apr_19_1554,60.0041763155,FEMA4ImagesEEG,001,100216,
AFNE01.JPG,AFNE01.JPG,AFNE01.JPG,AFNE01.JPG,AFNE01.JPG,AFNE01.JPG,4,7,47,8,,,,,,,,,,,,,,,,,,,,,,,AFNE16.jpg,AFSA13.jpg,AFNE18.jpg,AFSA14.jpg,AFNE18.jpg,FN,3,num_2,16,num_2,1.16659156026,,,2017_Apr_19_1554,60.0041763155,FEMA4ImagesEEG,001,100216,
AFNE01.JPG,AFNE01.JPG,AFNE01.JPG,AFNE01.JPG,AFNE01.JPG,AFNE01.JPG,4,8,48,1,,,,,,,,,,,,,,,,,,,,,,,AFNE09.jpg,AFSA20.jpg,AFSA19.jpg,AFNE13.jpg,AFSA19.jpg,FS,4,num_2,32,num_6,0.966703754792,,,2017_Apr_19_1554,60.0041763155,FEMA4ImagesEEG,001,100216,
AFNE01.JPG,AFNE01.JPG,AFNE01.JPG,AFNE01.JPG,AFNE01.JPG,AFNE01.JPG,4,9,49,6,,,,,,,,,,,,,,,,,,,,,,,AFNE11.jpg,AFNE03.jpg,AFSA17.jpg,AFSA16.jpg,AFNE03.jpg,FN,3,num_6,32,num_8,1.05010329402,,,2017_Apr_19_1554,60.0041763155,FEMA4ImagesEEG,001,100216,
AFNE01.JPG,AFNE01.JPG,AFNE01.JPG,AFNE01.JPG,AFNE01.JPG,AFNE01.JPG,5,0,50,8,,,,,,,,,,,,,,,,,,,,,,,AFNE04.jpg,AFSA12.jpg,AFSA17.jpg,AFNE14.jpg,AFSA17.jpg,FS,4,num_2,16,num_2,1.30008829947,,,2017_Apr_19_1554,60.0041763155,FEMA4ImagesEEG,001,100216,
AFNE01.JPG,AFNE01.JPG,AFNE01.JPG,AFNE01.JPG,AFNE01.JPG,AFNE01.JPG,5,1,51,3,,,,,,,,,,,,,,,,,,,,,,,AFSA18.jpg,AFNE17.jpg,AFNE10.jpg,AFSA06.jpg,AFNE17.jpg,FN,3,num_6,32,num_8,1.3334086001,,,2017_Apr_19_1554,60.0041763155,FEMA4ImagesEEG,001,100216,
AFNE01.JPG,AFNE01.JPG,AFNE01.JPG,AFNE01.JPG,AFNE01.JPG,AFNE01.JPG,5,2,52,9,,,,,,,,,,,,,,,,,,,,,,,AFNE05.jpg,AFNE16.jpg,AFSA06.jpg,AFSA08.jpg,AFNE05.jpg,FN,3,num_8,16,num_8,0.783469364134,,,2017_Apr_19_1554,60.0041763155,FEMA4ImagesEEG,001,100216,
AFNE01.JPG,AFNE01.JPG,AFNE01.JPG,AFNE01.JPG,AFNE01.JPG,AFNE01.JPG,5,3,53,4,,,,,,,,,,,,,,,,,,,,,,,AFNE01.jpg,AFNE19.jpg,AFSA19.jpg,AFSA04.jpg,AFNE01.jpg,FN,3,num_8,16,num_8,0.900141734601,,,2017_Apr_19_1554,60.0041763155,FEMA4ImagesEEG,001,100216,
AFNE01.JPG,AFNE01.JPG,AFNE01.JPG,AFNE01.JPG,AFNE01.JPG,AFNE01.JPG,5,4,54,1,,,,,,,,,,,,,,,,,,,,,,,AFNE10.jpg,AFSA09.jpg,AFNE19.jpg,AFSA03.jpg,AFNE10.jpg,FN,3,num_8,16,num_8,0.933434130944,,,2017_Apr_19_1554,60.0041763155,FEMA4ImagesEEG,001,100216,
AFNE01.JPG,AFNE01.JPG,AFNE01.JPG,AFNE01.JPG,AFNE01.JPG,AFNE01.JPG,5,5,55,2,,,,,,,,,,,,,,,,,,,,,,,AFSA09.jpg,AFSA18.jpg,AFNE03.jpg,AFNE19.jpg,AFSA09.jpg,FS,4,num_8,16,num_8,0.950112884137,,,2017_Apr_19_1554,60.0041763155,FEMA4ImagesEEG,001,100216,
AFNE01.JPG,AFNE01.JPG,AFNE01.JPG,AFNE01.JPG,AFNE01.JPG,AFNE01.JPG,5,6,56,0,,,,,,,,,,,,,,,,,,,,,,,AFNE02.jpg,AFSA12.jpg,AFNE08.jpg,AFSA20.jpg,AFNE08.jpg,FN,3,num_2,32,num_8,1.38336788228,,,2017_Apr_19_1554,60.0041763155,FEMA4ImagesEEG,001,100216,
AFNE01.JPG,AFNE01.JPG,AFNE01.JPG,AFNE01.JPG,AFNE01.JPG,AFNE01.JPG,5,7,57,7,,,,,,,,,,,,,,,,,,,,,,,AFNE18.jpg,AFNE04.jpg,AFSA20.jpg,AFSA14.jpg,AFSA14.jpg,FS,4,num_4,32,num_2,1.25011682921,,,2017_Apr_19_1554,60.0041763155,FEMA4ImagesEEG,001,100216,
AFNE01.JPG,AFNE01.JPG,AFNE01.JPG,AFNE01.JPG,AFNE01.JPG,AFNE01.JPG,5,8,58,5,,,,,,,,,,,,,,,,,,,,,,,AFSA16.jpg,AFNE06.jpg,AFNE10.jpg,AFSA07.jpg,AFSA07.jpg,FS,4,num_4,32,num_2,1.38341310649,,,2017_Apr_19_1554,60.0041763155,FEMA4ImagesEEG,001,100216,
AFNE01.JPG,AFNE01.JPG,AFNE01.JPG,AFNE01.JPG,AFNE01.JPG,AFNE01.JPG,5,9,59,6,,,,,,,,,,,,,,,,,,,,,,,AFSA06.jpg,AFSA20.jpg,AFNE04.jpg,AFNE20.jpg,AFNE04.jpg,FN,3,num_2,32,num_8,0.666824256477,,,2017_Apr_19_1554,60.0041763155,FEMA4ImagesEEG,001,100216,
,,,,,,,,,,,,,,,,,,,,,,,,,,,,,,,,,,,,,,,,,,,space,3.51625361352,2017_Apr_19_1554,60.0041763155,FEMA4ImagesEEG,001,100216,
AFNE01.JPG,AFNE01.JPG,AFNE01.JPG,AFNE01.JPG,AFNE01.JPG,AFNE01.JPG,,,,,0,0,0,2,,,,,,,,,,,,,,,,,,,AMNE20.jpg,AMSA03.jpg,AMSA09.jpg,AMNE14.jpg,AMSA09.jpg,MS,2,num_2,32,num_6,1.30012678815,,,2017_Apr_19_1554,60.0041763155,FEMA4ImagesEEG,001,100216,
AFNE01.JPG,AFNE01.JPG,AFNE01.JPG,AFNE01.JPG,AFNE01.JPG,AFNE01.JPG,,,,,0,1,1,5,,,,,,,,,,,,,,,,,,,AMSA13.jpg,AMNE19.jpg,AMSA12.jpg,AMNE04.jpg,AMSA12.jpg,MS,2,num_2,16,num_2,1.80002976459,,,2017_Apr_19_1554,60.0041763155,FEMA4ImagesEEG,001,100216,
AFNE01.JPG,AFNE01.JPG,AFNE01.JPG,AFNE01.JPG,AFNE01.JPG,AFNE01.JPG,,,,,0,2,2,4,,,,,,,,,,,,,,,,,,,AMSA12.jpg,AMNE08.jpg,AMNE02.jpg,AMSA09.jpg,AMSA09.jpg,MS,2,num_4,16,num_4,2.10002280455,,,2017_Apr_19_1554,60.0041763155,FEMA4ImagesEEG,001,100216,
AFNE01.JPG,AFNE01.JPG,AFNE01.JPG,AFNE01.JPG,AFNE01.JPG,AFNE01.JPG,,,,,0,3,3,7,,,,,,,,,,,,,,,,,,,AMNE05.jpg,AMSA11.jpg,AMSA07.jpg,AMNE18.jpg,AMNE18.jpg,MN,1,num_4,32,num_8,0.85021805446,,,2017_Apr_19_1554,60.0041763155,FEMA4ImagesEEG,001,100216,
AFNE01.JPG,AFNE01.JPG,AFNE01.JPG,AFNE01.JPG,AFNE01.JPG,AFNE01.JPG,,,,,0,4,4,0,,,,,,,,,,,,,,,,,,,AMNE07.jpg,AMSA13.jpg,AMNE18.jpg,AMSA07.jpg,AMSA07.jpg,MS,2,num_4,32,num_6,0.983415864845,,,2017_Apr_19_1554,60.0041763155,FEMA4ImagesEEG,001,100216,
AFNE01.JPG,AFNE01.JPG,AFNE01.JPG,AFNE01.JPG,AFNE01.JPG,AFNE01.JPG,,,,,0,5,5,6,,,,,,,,,,,,,,,,,,,AMNE18.jpg,AMSA06.jpg,AMNE17.jpg,AMSA01.jpg,AMSA01.jpg,MS,2,num_4,16,num_4,1.49989046759,,,2017_Apr_19_1554,60.0041763155,FEMA4ImagesEEG,001,100216,
AFNE01.JPG,AFNE01.JPG,AFNE01.JPG,AFNE01.JPG,AFNE01.JPG,AFNE01.JPG,,,,,0,6,6,1,,,,,,,,,,,,,,,,,,,AMNE08.jpg,AMNE11.jpg,AMSA16.jpg,AMSA06.jpg,AMNE11.jpg,MN,1,num_6,32,num_8,2.0833485417,,,2017_Apr_19_1554,60.0041763155,FEMA4ImagesEEG,001,100216,
AFNE01.JPG,AFNE01.JPG,AFNE01.JPG,AFNE01.JPG,AFNE01.JPG,AFNE01.JPG,,,,,0,7,7,9,,,,,,,,,,,,,,,,,,,AMNE12.jpg,AMSA03.jpg,AMSA02.jpg,AMNE09.jpg,AMNE12.jpg,MN,1,num_8,16,num_8,1.13345536389,,,2017_Apr_19_1554,60.0041763155,FEMA4ImagesEEG,001,100216,
AFNE01.JPG,AFNE01.JPG,AFNE01.JPG,AFNE01.JPG,AFNE01.JPG,AFNE01.JPG,,,,,0,8,8,8,,,,,,,,,,,,,,,,,,,AMSA13.jpg,AMSA09.jpg,AMNE16.jpg,AMNE11.jpg,AMNE11.jpg,MN,1,num_4,16,num_4,1.03352396996,,,2017_Apr_19_1554,60.0041763155,FEMA4ImagesEEG,001,100216,
AFNE01.JPG,AFNE01.JPG,AFNE01.JPG,AFNE01.JPG,AFNE01.JPG,AFNE01.JPG,,,,,0,9,9,3,,,,,,,,,,,,,,,,,,,AMSA10.jpg,AMSA06.jpg,AMNE02.jpg,AMNE05.jpg,AMSA10.jpg,MS,2,num_8,32,num_6,1.53308696294,,,2017_Apr_19_1554,60.0041763155,FEMA4ImagesEEG,001,100216,
AFNE01.JPG,AFNE01.JPG,AFNE01.JPG,AFNE01.JPG,AFNE01.JPG,AFNE01.JPG,,,,,1,0,10,2,,,,,,,,,,,,,,,,,,,AMNE12.jpg,AMNE01.jpg,AMSA14.jpg,AMSA06.jpg,AMSA14.jpg,MS,2,num_2,16,num_2,1.6333888105,,,2017_Apr_19_1554,60.0041763155,FEMA4ImagesEEG,001,100216,
AFNE01.JPG,AFNE01.JPG,AFNE01.JPG,AFNE01.JPG,AFNE01.JPG,AFNE01.JPG,,,,,1,1,11,4,,,,,,,,,,,,,,,,,,,AMSA20.jpg,AMNE08.jpg,AMNE02.jpg,AMSA10.jpg,AMSA20.jpg,MS,2,num_8,16,num_8,0.666809823189,,,2017_Apr_19_1554,60.0041763155,FEMA4ImagesEEG,001,100216,
AFNE01.JPG,AFNE01.JPG,AFNE01.JPG,AFNE01.JPG,AFNE01.JPG,AFNE01.JPG,,,,,1,2,12,1,,,,,,,,,,,,,,,,,,,AMSA18.jpg,AMNE19.jpg,AMSA09.jpg,AMNE18.jpg,AMNE18.jpg,MN,1,num_4,16,num_4,1.18364076709,,,2017_Apr_19_1554,60.0041763155,FEMA4ImagesEEG,001,100216,
AFNE01.JPG,AFNE01.JPG,AFNE01.JPG,AFNE01.JPG,AFNE01.JPG,AFNE01.JPG,,,,,1,3,13,8,,,,,,,,,,,,,,,,,,,AMNE15.jpg,AMSA12.jpg,AMNE14.jpg,AMSA20.jpg,AMSA12.jpg,MS,2,num_6,32,num_8,1.33335503668,,,2017_Apr_19_1554,60.0041763155,FEMA4ImagesEEG,001,100216,
AFNE01.JPG,AFNE01.JPG,AFNE01.JPG,AFNE01.JPG,AFNE01.JPG,AFNE01.JPG,,,,,1,4,14,0,,,,,,,,,,,,,,,,,,,AMNE20.jpg,AMSA14.jpg,AMNE02.jpg,AMSA09.jpg,AMNE02.jpg,MN,1,num_2,32,num_8,1.06658318898,,,2017_Apr_19_1554,60.0041763155,FEMA4ImagesEEG,001,100216,
AFNE01.JPG,AFNE01.JPG,AFNE01.JPG,AFNE01.JPG,AFNE01.JPG,AFNE01.JPG,,,,,1,5,15,9,,,,,,,,,,,,,,,,,,,AMSA02.jpg,AMNE18.jpg,AMSA19.jpg,AMNE06.jpg,AMNE06.jpg,MN,1,num_4,32,num_8,0.700195875368,,,2017_Apr_19_1554,60.0041763155,FEMA4ImagesEEG,001,100216,
AFNE01.JPG,AFNE01.JPG,AFNE01.JPG,AFNE01.JPG,AFNE01.JPG,AFNE01.JPG,,,,,1,6,16,6,,,,,,,,,,,,,,,,,,,AMNE17.jpg,AMNE12.jpg,AMSA09.jpg,AMSA15.jpg,AMNE17.jpg,MN,1,num_8,16,num_8,1.38302789885,,,2017_Apr_19_1554,60.0041763155,FEMA4ImagesEEG,001,100216,
AFNE01.JPG,AFNE01.JPG,AFNE01.JPG,AFNE01.JPG,AFNE01.JPG,AFNE01.JPG,,,,,1,7,17,3,,,,,,,,,,,,,,,,,,,AMNE12.jpg,AMSA12.jpg,AMSA11.jpg,AMNE04.jpg,AMNE12.jpg,MN,1,num_8,16,num_8,0.650184312719,,,2017_Apr_19_1554,60.0041763155,FEMA4ImagesEEG,001,100216,
AFNE01.JPG,AFNE01.JPG,AFNE01.JPG,AFNE01.JPG,AFNE01.JPG,AFNE01.JPG,,,,,1,8,18,7,,,,,,,,,,,,,,,,,,,AMNE08.jpg,AMSA02.jpg,AMSA01.jpg,AMNE14.jpg,AMNE08.jpg,MN,1,num_8,32,num_6,1.43341825434,,,2017_Apr_19_1554,60.0041763155,FEMA4ImagesEEG,001,100216,
AFNE01.JPG,AFNE01.JPG,AFNE01.JPG,AFNE01.JPG,AFNE01.JPG,AFNE01.JPG,,,,,1,9,19,5,,,,,,,,,,,,,,,,,,,AMNE17.jpg,AMSA13.jpg,AMNE18.jpg,AMSA20.jpg,AMSA13.jpg,MS,2,num_6,32,num_4,1.83332889643,,,2017_Apr_19_1554,60.0041763155,FEMA4ImagesEEG,001,100216,
AFNE01.JPG,AFNE01.JPG,AFNE01.JPG,AFNE01.JPG,AFNE01.JPG,AFNE01.JPG,,,,,2,0,20,3,,,,,,,,,,,,,,,,,,,AMNE13.jpg,AMNE15.jpg,AMSA16.jpg,AMSA03.jpg,AMNE13.jpg,MN,1,num_8,16,num_8,0.683441106987,,,2017_Apr_19_1554,60.0041763155,FEMA4ImagesEEG,001,100216,
AFNE01.JPG,AFNE01.JPG,AFNE01.JPG,AFNE01.JPG,AFNE01.JPG,AFNE01.JPG,,,,,2,1,21,6,,,,,,,,,,,,,,,,,,,AMSA02.jpg,AMNE15.jpg,AMSA06.jpg,AMNE04.jpg,AMNE04.jpg,MN,1,num_4,32,num_6,0.750122762896,,,2017_Apr_19_1554,60.0041763155,FEMA4ImagesEEG,001,100216,
AFNE01.JPG,AFNE01.JPG,AFNE01.JPG,AFNE01.JPG,AFNE01.JPG,AFNE01.JPG,,,,,2,2,22,4,,,,,,,,,,,,,,,,,,,AMNE11.jpg,AMSA03.jpg,AMSA06.jpg,AMNE12.jpg,AMNE11.jpg,MN,1,num_8,16,num_8,0.783269222942,,,2017_Apr_19_1554,60.0041763155,FEMA4ImagesEEG,001,100216,
AFNE01.JPG,AFNE01.JPG,AFNE01.JPG,AFNE01.JPG,AFNE01.JPG,AFNE01.JPG,,,,,2,3,23,9,,,,,,,,,,,,,,,,,,,AMNE18.jpg,AMSA12.jpg,AMSA02.jpg,AMNE06.jpg,AMNE18.jpg,MN,1,num_8,32,num_4,1.9500439252,,,2017_Apr_19_1554,60.0041763155,FEMA4ImagesEEG,001,100216,
AFNE01.JPG,AFNE01.JPG,AFNE01.JPG,AFNE01.JPG,AFNE01.JPG,AFNE01.JPG,,,,,2,4,24,5,,,,,,,,,,,,,,,,,,,AMSA03.jpg,AMNE14.jpg,AMNE11.jpg,AMSA08.jpg,AMSA03.jpg,MS,2,num_8,16,num_8,1.10006193473,,,2017_Apr_19_1554,60.0041763155,FEMA4ImagesEEG,001,100216,
AFNE01.JPG,AFNE01.JPG,AFNE01.JPG,AFNE01.JPG,AFNE01.JPG,AFNE01.JPG,,,,,2,5,25,2,,,,,,,,,,,,,,,,,,,AMSA10.jpg,AMNE12.jpg,AMNE01.jpg,AMSA01.jpg,AMSA01.jpg,MS,2,num_4,16,num_4,1.23361544474,,,2017_Apr_19_1554,60.0041763155,FEMA4ImagesEEG,001,100216,
AFNE01.JPG,AFNE01.JPG,AFNE01.JPG,AFNE01.JPG,AFNE01.JPG,AFNE01.JPG,,,,,2,6,26,1,,,,,,,,,,,,,,,,,,,AMNE08.jpg,AMSA08.jpg,AMSA19.jpg,AMNE15.jpg,AMSA19.jpg,MS,2,num_2,32,num_8,1.71667544957,,,2017_Apr_19_1554,60.0041763155,FEMA4ImagesEEG,001,100216,
AFNE01.JPG,AFNE01.JPG,AFNE01.JPG,AFNE01.JPG,AFNE01.JPG,AFNE01.JPG,,,,,2,7,27,8,,,,,,,,,,,,,,,,,,,AMSA19.jpg,AMSA05.jpg,AMNE19.jpg,AMNE03.jpg,AMSA05.jpg,MS,2,num_6,32,num_8,0.668296448886,,,2017_Apr_19_1554,60.0041763155,FEMA4ImagesEEG,001,100216,
AFNE01.JPG,AFNE01.JPG,AFNE01.JPG,AFNE01.JPG,AFNE01.JPG,AFNE01.JPG,,,,,2,8,28,7,,,,,,,,,,,,,,,,,,,AMNE14.jpg,AMNE10.jpg,AMSA10.jpg,AMSA14.jpg,AMNE14.jpg,MN,1,num_8,16,num_8,0.833599279489,,,2017_Apr_19_1554,60.0041763155,FEMA4ImagesEEG,001,100216,
AFNE01.JPG,AFNE01.JPG,AFNE01.JPG,AFNE01.JPG,AFNE01.JPG,AFNE01.JPG,,,,,2,9,29,0,,,,,,,,,,,,,,,,,,,AMNE14.jpg,AMSA15.jpg,AMNE09.jpg,AMSA01.jpg,AMNE14.jpg,MN,1,num_8,32,num_2,1.58348597839,,,2017_Apr_19_1554,60.0041763155,FEMA4ImagesEEG,001,100216,
AFNE01.JPG,AFNE01.JPG,AFNE01.JPG,AFNE01.JPG,AFNE01.JPG,AFNE01.JPG,,,,,3,0,30,9,,,,,,,,,,,,,,,,,,,AMSA10.jpg,AMNE04.jpg,AMNE14.jpg,AMSA11.jpg,AMNE14.jpg,MN,1,num_2,16,num_2,0.883452717768,,,2017_Apr_19_1554,60.0041763155,FEMA4ImagesEEG,001,100216,
AFNE01.JPG,AFNE01.JPG,AFNE01.JPG,AFNE01.JPG,AFNE01.JPG,AFNE01.JPG,,,,,3,1,31,0,,,,,,,,,,,,,,,,,,,AMSA16.jpg,AMSA01.jpg,AMNE18.jpg,AMNE16.jpg,AMNE16.jpg,MN,1,num_4,32,num_2,1.31673658243,,,2017_Apr_19_1554,60.0041763155,FEMA4ImagesEEG,001,100216,
AFNE01.JPG,AFNE01.JPG,AFNE01.JPG,AFNE01.JPG,AFNE01.JPG,AFNE01.JPG,,,,,3,2,32,2,,,,,,,,,,,,,,,,,,,AMNE20.jpg,AMSA06.jpg,AMSA20.jpg,AMNE10.jpg,AMSA06.jpg,MS,2,num_6,16,num_6,1.15006964849,,,2017_Apr_19_1554,60.0041763155,FEMA4ImagesEEG,001,100216,
AFNE01.JPG,AFNE01.JPG,AFNE01.JPG,AFNE01.JPG,AFNE01.JPG,AFNE01.JPG,,,,,3,3,33,7,,,,,,,,,,,,,,,,,,,AMNE01.jpg,AMSA17.jpg,AMNE14.jpg,AMSA04.jpg,AMSA04.jpg,MS,2,num_4,16,num_4,0.450148325792,,,2017_Apr_19_1554,60.0041763155,FEMA4ImagesEEG,001,100216,
AFNE01.JPG,AFNE01.JPG,AFNE01.JPG,AFNE01.JPG,AFNE01.JPG,AFNE01.JPG,,,,,3,4,34,3,,,,,,,,,,,,,,,,,,,AMSA06.jpg,AMSA09.jpg,AMNE20.jpg,AMNE14.jpg,AMSA09.jpg,MS,2,num_6,16,num_6,1.416574962,,,2017_Apr_19_1554,60.0041763155,FEMA4ImagesEEG,001,100216,
AFNE01.JPG,AFNE01.JPG,AFNE01.JPG,AFNE01.JPG,AFNE01.JPG,AFNE01.JPG,,,,,3,5,35,8,,,,,,,,,,,,,,,,,,,AMSA05.jpg,AMNE02.jpg,AMSA15.jpg,AMNE13.jpg,AMNE02.jpg,MN,1,num_6,16,num_6,1.20009436144,,,2017_Apr_19_1554,60.0041763155,FEMA4ImagesEEG,001,100216,
AFNE01.JPG,AFNE01.JPG,AFNE01.JPG,AFNE01.JPG,AFNE01.JPG,AFNE01.JPG,,,,,3,6,36,5,,,,,,,,,,,,,,,,,,,AMNE02.jpg,AMNE20.jpg,AMSA07.jpg,AMSA12.jpg,AMNE20.jpg,MN,1,num_6,32,num_2,1.54986835265,,,2017_Apr_19_1554,60.0041763155,FEMA4ImagesEEG,001,100216,
AFNE01.JPG,AFNE01.JPG,AFNE01.JPG,AFNE01.JPG,AFNE01.JPG,AFNE01.JPG,,,,,3,7,37,6,,,,,,,,,,,,,,,,,,,AMSA06.jpg,AMNE14.jpg,AMSA20.jpg,AMNE13.jpg,AMNE14.jpg,MN,1,num_6,32,num_8,1.31672279065,,,2017_Apr_19_1554,60.0041763155,FEMA4ImagesEEG,001,100216,
AFNE01.JPG,AFNE01.JPG,AFNE01.JPG,AFNE01.JPG,AFNE01.JPG,AFNE01.JPG,,,,,3,8,38,4,,,,,,,,,,,,,,,,,,,AMNE10.jpg,AMNE11.jpg,AMSA20.jpg,AMSA18.jpg,AMSA18.jpg,MS,2,num_4,16,num_4,0.783456213801,,,2017_Apr_19_1554,60.0041763155,FEMA4ImagesEEG,001,100216,
AFNE01.JPG,AFNE01.JPG,AFNE01.JPG,AFNE01.JPG,AFNE01.JPG,AFNE01.JPG,,,,,3,9,39,1,,,,,,,,,,,,,,,,,,,AMSA18.jpg,AMSA20.jpg,AMNE06.jpg,AMNE14.jpg,AMSA20.jpg,MS,2,num_6,16,num_6,1.15012417414,,,2017_Apr_19_1554,60.0041763155,FEMA4ImagesEEG,001,100216,
AFNE01.JPG,AFNE01.JPG,AFNE01.JPG,AFNE01.JPG,AFNE01.JPG,AFNE01.JPG,,,,,4,0,40,8,,,,,,,,,,,,,,,,,,,AMNE13.jpg,AMSA13.jpg,AMSA07.jpg,AMNE16.jpg,AMNE16.jpg,MN,1,num_4,16,num_4,1.88340941799,,,2017_Apr_19_1554,60.0041763155,FEMA4ImagesEEG,001,100216,
AFNE01.JPG,AFNE01.JPG,AFNE01.JPG,AFNE01.JPG,AFNE01.JPG,AFNE01.JPG,,,,,4,1,41,4,,,,,,,,,,,,,,,,,,,AMNE10.jpg,AMSA01.jpg,AMSA14.jpg,AMNE02.jpg,AMNE02.jpg,MN,1,num_4,16,num_4,1.01677369195,,,2017_Apr_19_1554,60.0041763155,FEMA4ImagesEEG,001,100216,
AFNE01.JPG,AFNE01.JPG,AFNE01.JPG,AFNE01.JPG,AFNE01.JPG,AFNE01.JPG,,,,,4,2,42,6,,,,,,,,,,,,,,,,,,,AMSA16.jpg,AMNE10.jpg,AMSA01.jpg,AMNE02.jpg,AMNE10.jpg,MN,1,num_6,32,num_8,1.63331824788,,,2017_Apr_19_1554,60.0041763155,FEMA4ImagesEEG,001,100216,
AFNE01.JPG,AFNE01.JPG,AFNE01.JPG,AFNE01.JPG,AFNE01.JPG,AFNE01.JPG,,,,,4,3,43,5,,,,,,,,,,,,,,,,,,,AMNE12.jpg,AMSA01.jpg,AMSA20.jpg,AMNE20.jpg,AMNE20.jpg,MN,1,num_4,16,num_4,1.14995931424,,,2017_Apr_19_1554,60.0041763155,FEMA4ImagesEEG,001,100216,
AFNE01.JPG,AFNE01.JPG,AFNE01.JPG,AFNE01.JPG,AFNE01.JPG,AFNE01.JPG,,,,,4,4,44,0,,,,,,,,,,,,,,,,,,,AMSA09.jpg,AMNE09.jpg,AMSA02.jpg,AMNE07.jpg,AMNE07.jpg,MN,1,num_4,32,num_8,1.28342526249,,,2017_Apr_19_1554,60.0041763155,FEMA4ImagesEEG,001,100216,
AFNE01.JPG,AFNE01.JPG,AFNE01.JPG,AFNE01.JPG,AFNE01.JPG,AFNE01.JPG,,,,,4,5,45,7,,,,,,,,,,,,,,,,,,,AMNE17.jpg,AMSA10.jpg,AMNE02.jpg,AMSA17.jpg,AMSA17.jpg,MS,2,num_4,32,num_2,3.53321750375,,,2017_Apr_19_1554,60.0041763155,FEMA4ImagesEEG,001,100216,
AFNE01.JPG,AFNE01.JPG,AFNE01.JPG,AFNE01.JPG,AFNE01.JPG,AFNE01.JPG,,,,,4,6,46,1,,,,,,,,,,,,,,,,,,,AMSA15.jpg,AMNE03.jpg,AMNE07.jpg,AMSA20.jpg,AMSA15.jpg,MS,2,num_8,32,num_4,1.16684526487,,,2017_Apr_19_1554,60.0041763155,FEMA4ImagesEEG,001,100216,
AFNE01.JPG,AFNE01.JPG,AFNE01.JPG,AFNE01.JPG,AFNE01.JPG,AFNE01.JPG,,,,,4,7,47,3,,,,,,,,,,,,,,,,,,,AMNE01.jpg,AMSA19.jpg,AMSA12.jpg,AMNE17.jpg,AMSA19.jpg,MS,2,num_6,32,num_8,0.716620603169,,,2017_Apr_19_1554,60.0041763155,FEMA4ImagesEEG,001,100216,
AFNE01.JPG,AFNE01.JPG,AFNE01.JPG,AFNE01.JPG,AFNE01.JPG,AFNE01.JPG,,,,,4,8,48,2,,,,,,,,,,,,,,,,,,,AMSA19.jpg,AMNE13.jpg,AMSA14.jpg,AMNE20.jpg,AMSA14.jpg,MS,2,num_2,16,num_2,1.03344603034,,,2017_Apr_19_1554,60.0041763155,FEMA4ImagesEEG,001,100216,
AFNE01.JPG,AFNE01.JPG,AFNE01.JPG,AFNE01.JPG,AFNE01.JPG,AFNE01.JPG,,,,,4,9,49,9,,,,,,,,,,,,,,,,,,,AMNE09.jpg,AMSA18.jpg,AMSA04.jpg,AMNE14.jpg,AMNE09.jpg,MN,1,num_8,16,num_8,1.03343544598,,,2017_Apr_19_1554,60.0041763155,FEMA4ImagesEEG,001,100216,
AFNE01.JPG,AFNE01.JPG,AFNE01.JPG,AFNE01.JPG,AFNE01.JPG,AFNE01.JPG,,,,,5,0,50,4,,,,,,,,,,,,,,,,,,,AMSA01.jpg,AMNE13.jpg,AMSA09.jpg,AMNE10.jpg,AMSA01.jpg,MS,2,num_8,16,num_8,1.15055075713,,,2017_Apr_19_1554,60.0041763155,FEMA4ImagesEEG,001,100216,
AFNE01.JPG,AFNE01.JPG,AFNE01.JPG,AFNE01.JPG,AFNE01.JPG,AFNE01.JPG,,,,,5,1,51,9,,,,,,,,,,,,,,,,,,,AMSA01.jpg,AMSA19.jpg,AMNE02.jpg,AMNE12.jpg,AMNE02.jpg,MN,1,num_2,16,num_2,1.98308197546,,,2017_Apr_19_1554,60.0041763155,FEMA4ImagesEEG,001,100216,
AFNE01.JPG,AFNE01.JPG,AFNE01.JPG,AFNE01.JPG,AFNE01.JPG,AFNE01.JPG,,,,,5,2,52,1,,,,,,,,,,,,,,,,,,,AMNE01.jpg,AMNE05.jpg,AMSA01.jpg,AMSA11.jpg,AMNE05.jpg,MN,1,num_6,32,num_4,1.10013891209,,,2017_Apr_19_1554,60.0041763155,FEMA4ImagesEEG,001,100216,
AFNE01.JPG,AFNE01.JPG,AFNE01.JPG,AFNE01.JPG,AFNE01.JPG,AFNE01.JPG,,,,,5,3,53,6,,,,,,,,,,,,,,,,,,,AMNE13.jpg,AMSA17.jpg,AMNE19.jpg,AMSA15.jpg,AMSA17.jpg,MS,2,num_6,16,num_6,1.20008217337,,,2017_Apr_19_1554,60.0041763155,FEMA4ImagesEEG,001,100216,
AFNE01.JPG,AFNE01.JPG,AFNE01.JPG,AFNE01.JPG,AFNE01.JPG,AFNE01.JPG,,,,,5,4,54,3,,,,,,,,,,,,,,,,,,,AMSA20.jpg,AMNE10.jpg,AMNE06.jpg,AMSA18.jpg,AMSA18.jpg,MS,2,num_4,16,num_4,1.15035350257,,,2017_Apr_19_1554,60.0041763155,FEMA4ImagesEEG,001,100216,
AFNE01.JPG,AFNE01.JPG,AFNE01.JPG,AFNE01.JPG,AFNE01.JPG,AFNE01.JPG,,,,,5,5,55,7,,,,,,,,,,,,,,,,,,,AMSA08.jpg,AMNE09.jpg,AMSA19.jpg,AMNE12.jpg,AMSA08.jpg,MS,2,num_8,16,num_8,1.16678143779,,,2017_Apr_19_1554,60.0041763155,FEMA4ImagesEEG,001,100216,
AFNE01.JPG,AFNE01.JPG,AFNE01.JPG,AFNE01.JPG,AFNE01.JPG,AFNE01.JPG,,,,,5,6,56,5,,,,,,,,,,,,,,,,,,,AMSA12.jpg,AMSA14.jpg,AMNE01.jpg,AMNE03.jpg,AMNE01.jpg,MN,1,num_2,16,num_2,1.86655073016,,,2017_Apr_19_1554,60.0041763155,FEMA4ImagesEEG,001,100216,
AFNE01.JPG,AFNE01.JPG,AFNE01.JPG,AFNE01.JPG,AFNE01.JPG,AFNE01.JPG,,,,,5,7,57,0,,,,,,,,,,,,,,,,,,,AMSA19.jpg,AMNE04.jpg,AMSA15.jpg,AMNE08.jpg,AMSA15.jpg,MS,2,num_2,16,num_2,1.56672319156,,,2017_Apr_19_1554,60.0041763155,FEMA4ImagesEEG,001,100216,
AFNE01.JPG,AFNE01.JPG,AFNE01.JPG,AFNE01.JPG,AFNE01.JPG,AFNE01.JPG,,,,,5,8,58,2,,,,,,,,,,,,,,,,,,,AMSA19.jpg,AMSA09.jpg,AMNE02.jpg,AMNE13.jpg,AMSA19.jpg,MS,2,num_8,16,num_8,1.21669677872,,,2017_Apr_19_1554,60.0041763155,FEMA4ImagesEEG,001,100216,
AFNE01.JPG,AFNE01.JPG,AFNE01.JPG,AFNE01.JPG,AFNE01.JPG,AFNE01.JPG,,,,,5,9,59,8,,,,,,,,,,,,,,,,,,,AMNE10.jpg,AMSA16.jpg,AMSA15.jpg,AMNE01.jpg,AMSA16.jpg,MS,2,num_6,16,num_6,0.866710137518,,,2017_Apr_19_1554,60.0041763155,FEMA4ImagesEEG,001,100216,
,,,,,,,,,,,,,,,,,,,,,,,,,,,,,,,,,,,,,,,,,,,space,4.71645606405,2017_Apr_19_1554,60.0041763155,FEMA4ImagesEEG,001,100216,
AFNE01.JPG,AFNE01.JPG,AFNE01.JPG,AFNE01.JPG,AFNE01.JPG,AFNE01.JPG,,,,,,,,,0,0,0,3,,,,,,,,,,,,,,,AFNE09.jpg,AFSA09.jpg,AFNE07.jpg,AFSA14.jpg,AFNE07.jpg,FN,3,num_2,32,num_8,0.90011350956,,,2017_Apr_19_1554,60.0041763155,FEMA4ImagesEEG,001,100216,
AFNE01.JPG,AFNE01.JPG,AFNE01.JPG,AFNE01.JPG,AFNE01.JPG,AFNE01.JPG,,,,,,,,,0,1,1,2,,,,,,,,,,,,,,,AFSA01.jpg,AFSA02.jpg,AFNE14.jpg,AFNE15.jpg,AFNE14.jpg,FN,3,num_2,32,num_4,1.28340120707,,,2017_Apr_19_1554,60.0041763155,FEMA4ImagesEEG,001,100216,
AFNE01.JPG,AFNE01.JPG,AFNE01.JPG,AFNE01.JPG,AFNE01.JPG,AFNE01.JPG,,,,,,,,,0,2,2,4,,,,,,,,,,,,,,,AFSA12.jpg,AFNE01.jpg,AFNE07.jpg,AFSA09.jpg,AFNE07.jpg,FN,3,num_2,16,num_2,1.08342455685,,,2017_Apr_19_1554,60.0041763155,FEMA4ImagesEEG,001,100216,
AFNE01.JPG,AFNE01.JPG,AFNE01.JPG,AFNE01.JPG,AFNE01.JPG,AFNE01.JPG,,,,,,,,,0,3,3,5,,,,,,,,,,,,,,,AFNE20.jpg,AFSA01.jpg,AFSA11.jpg,AFNE15.jpg,AFSA01.jpg,FS,4,num_6,16,num_6,1.26673079311,,,2017_Apr_19_1554,60.0041763155,FEMA4ImagesEEG,001,100216,
AFNE01.JPG,AFNE01.JPG,AFNE01.JPG,AFNE01.JPG,AFNE01.JPG,AFNE01.JPG,,,,,,,,,0,4,4,1,,,,,,,,,,,,,,,AFNE04.jpg,AFSA11.jpg,AFNE10.jpg,AFSA05.jpg,AFSA11.jpg,FS,4,num_6,32,num_4,1.16672113887,,,2017_Apr_19_1554,60.0041763155,FEMA4ImagesEEG,001,100216,
AFNE01.JPG,AFNE01.JPG,AFNE01.JPG,AFNE01.JPG,AFNE01.JPG,AFNE01.JPG,,,,,,,,,0,5,5,7,,,,,,,,,,,,,,,AFSA01.jpg,AFSA09.jpg,AFNE12.jpg,AFNE11.jpg,AFSA09.jpg,FS,4,num_6,16,num_6,1.45020220996,,,2017_Apr_19_1554,60.0041763155,FEMA4ImagesEEG,001,100216,
AFNE01.JPG,AFNE01.JPG,AFNE01.JPG,AFNE01.JPG,AFNE01.JPG,AFNE01.JPG,,,,,,,,,0,6,6,6,,,,,,,,,,,,,,,AFNE01.jpg,AFSA18.jpg,AFSA06.jpg,AFNE18.jpg,AFSA06.jpg,FS,4,num_2,16,num_2,1.16676924971,,,2017_Apr_19_1554,60.0041763155,FEMA4ImagesEEG,001,100216,
AFNE01.JPG,AFNE01.JPG,AFNE01.JPG,AFNE01.JPG,AFNE01.JPG,AFNE01.JPG,,,,,,,,,0,7,7,8,,,,,,,,,,,,,,,AFSA04.jpg,AFSA17.jpg,AFNE18.jpg,AFNE12.jpg,AFNE12.jpg,FN,3,num_4,16,num_4,0.633149859903,,,2017_Apr_19_1554,60.0041763155,FEMA4ImagesEEG,001,100216,
AFNE01.JPG,AFNE01.JPG,AFNE01.JPG,AFNE01.JPG,AFNE01.JPG,AFNE01.JPG,,,,,,,,,0,8,8,9,,,,,,,,,,,,,,,AFNE17.jpg,AFSA20.jpg,AFSA10.jpg,AFNE08.jpg,AFNE08.jpg,FN,3,num_4,32,num_6,1.26674105675,,,2017_Apr_19_1554,60.0041763155,FEMA4ImagesEEG,001,100216,
AFNE01.JPG,AFNE01.JPG,AFNE01.JPG,AFNE01.JPG,AFNE01.JPG,AFNE01.JPG,,,,,,,,,0,9,9,0,,,,,,,,,,,,,,,AFNE18.jpg,AFNE01.jpg,AFSA12.jpg,AFSA16.jpg,AFNE01.jpg,FN,3,num_6,32,num_4,1.23340664359,,,2017_Apr_19_1554,60.0041763155,FEMA4ImagesEEG,001,100216,
AFNE01.JPG,AFNE01.JPG,AFNE01.JPG,AFNE01.JPG,AFNE01.JPG,AFNE01.JPG,,,,,,,,,1,0,10,6,,,,,,,,,,,,,,,AFNE16.jpg,AFNE14.jpg,AFSA20.jpg,AFSA01.jpg,AFNE16.jpg,FN,3,num_8,16,num_8,1.0834165384,,,2017_Apr_19_1554,60.0041763155,FEMA4ImagesEEG,001,100216,
AFNE01.JPG,AFNE01.JPG,AFNE01.JPG,AFNE01.JPG,AFNE01.JPG,AFNE01.JPG,,,,,,,,,1,1,11,9,,,,,,,,,,,,,,,AFNE04.jpg,AFSA06.jpg,AFNE16.jpg,AFSA08.jpg,AFSA06.jpg,FS,4,num_6,16,num_6,1.28292266434,,,2017_Apr_19_1554,60.0041763155,FEMA4ImagesEEG,001,100216,
AFNE01.JPG,AFNE01.JPG,AFNE01.JPG,AFNE01.JPG,AFNE01.JPG,AFNE01.JPG,,,,,,,,,1,2,12,7,,,,,,,,,,,,,,,AFNE19.jpg,AFNE13.jpg,AFSA04.jpg,AFSA16.jpg,AFSA04.jpg,FS,4,num_2,32,num_6,1.98344633507,,,2017_Apr_19_1554,60.0041763155,FEMA4ImagesEEG,001,100216,
AFNE01.JPG,AFNE01.JPG,AFNE01.JPG,AFNE01.JPG,AFNE01.JPG,AFNE01.JPG,,,,,,,,,1,3,13,4,,,,,,,,,,,,,,,AFSA14.jpg,AFNE14.jpg,AFSA12.jpg,AFNE17.jpg,AFSA14.jpg,FS,4,num_8,16,num_8,1.26673143459,,,2017_Apr_19_1554,60.0041763155,FEMA4ImagesEEG,001,100216,
AFNE01.JPG,AFNE01.JPG,AFNE01.JPG,AFNE01.JPG,AFNE01.JPG,AFNE01.JPG,,,,,,,,,1,4,14,3,,,,,,,,,,,,,,,AFSA04.jpg,AFSA02.jpg,AFNE14.jpg,AFNE13.jpg,AFNE13.jpg,FN,3,num_4,32,num_8,1.26672469906,,,2017_Apr_19_1554,60.0041763155,FEMA4ImagesEEG,001,100216,
AFNE01.JPG,AFNE01.JPG,AFNE01.JPG,AFNE01.JPG,AFNE01.JPG,AFNE01.JPG,,,,,,,,,1,5,15,1,,,,,,,,,,,,,,,AFSA18.jpg,AFSA14.jpg,AFNE19.jpg,AFNE07.jpg,AFSA18.jpg,FS,4,num_8,32,num_2,1.06673008745,,,2017_Apr_19_1554,60.0041763155,FEMA4ImagesEEG,001,100216,
AFNE01.JPG,AFNE01.JPG,AFNE01.JPG,AFNE01.JPG,AFNE01.JPG,AFNE01.JPG,,,,,,,,,1,6,16,5,,,,,,,,,,,,,,,AFSA16.jpg,AFNE16.jpg,AFSA19.jpg,AFNE20.jpg,AFNE20.jpg,FN,3,num_4,16,num_4,0.550248428481,,,2017_Apr_19_1554,60.0041763155,FEMA4ImagesEEG,001,100216,
AFNE01.JPG,AFNE01.JPG,AFNE01.JPG,AFNE01.JPG,AFNE01.JPG,AFNE01.JPG,,,,,,,,,1,7,17,2,,,,,,,,,,,,,,,AFNE14.jpg,AFSA14.jpg,AFSA04.jpg,AFNE13.jpg,AFSA14.jpg,FS,4,num_6,32,num_2,1.51670585564,,,2017_Apr_19_1554,60.0041763155,FEMA4ImagesEEG,001,100216,
AFNE01.JPG,AFNE01.JPG,AFNE01.JPG,AFNE01.JPG,AFNE01.JPG,AFNE01.JPG,,,,,,,,,1,8,18,8,,,,,,,,,,,,,,,AFSA08.jpg,AFNE07.jpg,AFSA07.jpg,AFNE11.jpg,AFSA08.jpg,FS,4,num_8,32,num_2,2.25003921034,,,2017_Apr_19_1554,60.0041763155,FEMA4ImagesEEG,001,100216,
AFNE01.JPG,AFNE01.JPG,AFNE01.JPG,AFNE01.JPG,AFNE01.JPG,AFNE01.JPG,,,,,,,,,1,9,19,0,,,,,,,,,,,,,,,AFNE19.jpg,AFSA05.jpg,AFNE01.jpg,AFSA01.jpg,AFSA01.jpg,FS,4,num_4,16,num_4,1.28350705098,,,2017_Apr_19_1554,60.0041763155,FEMA4ImagesEEG,001,100216,
AFNE01.JPG,AFNE01.JPG,AFNE01.JPG,AFNE01.JPG,AFNE01.JPG,AFNE01.JPG,,,,,,,,,2,0,20,2,,,,,,,,,,,,,,,AFSA10.jpg,AFNE14.jpg,AFNE20.jpg,AFSA05.jpg,AFNE20.jpg,FN,3,num_2,32,num_6,0.800134325546,,,2017_Apr_19_1554,60.0041763155,FEMA4ImagesEEG,001,100216,
AFNE01.JPG,AFNE01.JPG,AFNE01.JPG,AFNE01.JPG,AFNE01.JPG,AFNE01.JPG,,,,,,,,,2,1,21,6,,,,,,,,,,,,,,,AFNE01.jpg,AFNE19.jpg,AFSA03.jpg,AFSA20.jpg,AFSA20.jpg,FS,4,num_4,16,num_4,1.28344482757,,,2017_Apr_19_1554,60.0041763155,FEMA4ImagesEEG,001,100216,
AFNE01.JPG,AFNE01.JPG,AFNE01.JPG,AFNE01.JPG,AFNE01.JPG,AFNE01.JPG,,,,,,,,,2,2,22,4,,,,,,,,,,,,,,,AFSA19.jpg,AFNE10.jpg,AFSA02.jpg,AFNE02.jpg,AFNE02.jpg,FN,3,num_4,32,num_6,1.00011354161,,,2017_Apr_19_1554,60.0041763155,FEMA4ImagesEEG,001,100216,
AFNE01.JPG,AFNE01.JPG,AFNE01.JPG,AFNE01.JPG,AFNE01.JPG,AFNE01.JPG,,,,,,,,,2,3,23,5,,,,,,,,,,,,,,,AFSA18.jpg,AFNE20.jpg,AFNE18.jpg,AFSA09.jpg,AFSA09.jpg,FS,4,num_4,32,num_6,0.966775921086,,,2017_Apr_19_1554,60.0041763155,FEMA4ImagesEEG,001,100216,
AFNE01.JPG,AFNE01.JPG,AFNE01.JPG,AFNE01.JPG,AFNE01.JPG,AFNE01.JPG,,,,,,,,,2,4,24,3,,,,,,,,,,,,,,,AFNE01.jpg,AFSA06.jpg,AFNE15.jpg,AFSA20.jpg,AFSA06.jpg,FS,4,num_6,32,num_2,1.25010624481,,,2017_Apr_19_1554,60.0041763155,FEMA4ImagesEEG,001,100216,
AFNE01.JPG,AFNE01.JPG,AFNE01.JPG,AFNE01.JPG,AFNE01.JPG,AFNE01.JPG,,,,,,,,,2,5,25,1,,,,,,,,,,,,,,,AFNE04.jpg,AFSA13.jpg,AFSA03.jpg,AFNE14.jpg,AFNE04.jpg,FN,3,num_8,16,num_8,1.70004256206,,,2017_Apr_19_1554,60.0041763155,FEMA4ImagesEEG,001,100216,
AFNE01.JPG,AFNE01.JPG,AFNE01.JPG,AFNE01.JPG,AFNE01.JPG,AFNE01.JPG,,,,,,,,,2,6,26,0,,,,,,,,,,,,,,,AFSA09.jpg,AFSA05.jpg,AFNE18.jpg,AFNE10.jpg,AFNE18.jpg,FN,3,num_2,32,num_4,1.13340436635,,,2017_Apr_19_1554,60.0041763155,FEMA4ImagesEEG,001,100216,
AFNE01.JPG,AFNE01.JPG,AFNE01.JPG,AFNE01.JPG,AFNE01.JPG,AFNE01.JPG,,,,,,,,,2,7,27,7,,,,,,,,,,,,,,,AFNE03.jpg,AFSA04.jpg,AFNE12.jpg,AFSA11.jpg,AFNE12.jpg,FN,3,num_2,16,num_2,0.916815676697,,,2017_Apr_19_1554,60.0041763155,FEMA4ImagesEEG,001,100216,
AFNE01.JPG,AFNE01.JPG,AFNE01.JPG,AFNE01.JPG,AFNE01.JPG,AFNE01.JPG,,,,,,,,,2,8,28,8,,,,,,,,,,,,,,,AFSA05.jpg,AFNE13.jpg,AFSA10.jpg,AFNE04.jpg,AFNE13.jpg,FN,3,num_6,32,num_4,1.16673396842,,,2017_Apr_19_1554,60.0041763155,FEMA4ImagesEEG,001,100216,
AFNE01.JPG,AFNE01.JPG,AFNE01.JPG,AFNE01.JPG,AFNE01.JPG,AFNE01.JPG,,,,,,,,,2,9,29,9,,,,,,,,,,,,,,,AFSA14.jpg,AFSA16.jpg,AFNE17.jpg,AFNE01.jpg,AFSA16.jpg,FS,4,num_6,16,num_6,0.850221261848,,,2017_Apr_19_1554,60.0041763155,FEMA4ImagesEEG,001,100216,
AFNE01.JPG,AFNE01.JPG,AFNE01.JPG,AFNE01.JPG,AFNE01.JPG,AFNE01.JPG,,,,,,,,,3,0,30,9,,,,,,,,,,,,,,,AFNE11.jpg,AFSA11.jpg,AFNE02.jpg,AFSA08.jpg,AFSA08.jpg,FS,4,num_4,32,num_8,0.716927871224,,,2017_Apr_19_1554,60.0041763155,FEMA4ImagesEEG,001,100216,
AFNE01.JPG,AFNE01.JPG,AFNE01.JPG,AFNE01.JPG,AFNE01.JPG,AFNE01.JPG,,,,,,,,,3,1,31,2,,,,,,,,,,,,,,,AFSA07.jpg,AFNE09.jpg,AFSA20.jpg,AFNE11.jpg,AFNE11.jpg,FN,3,num_4,32,num_8,2.66663726559,,,2017_Apr_19_1554,60.0041763155,FEMA4ImagesEEG,001,100216,
AFNE01.JPG,AFNE01.JPG,AFNE01.JPG,AFNE01.JPG,AFNE01.JPG,AFNE01.JPG,,,,,,,,,3,2,32,7,,,,,,,,,,,,,,,AFNE13.jpg,AFNE17.jpg,AFSA01.jpg,AFSA10.jpg,AFSA10.jpg,FS,4,num_4,32,num_2,1.21674777623,,,2017_Apr_19_1554,60.0041763155,FEMA4ImagesEEG,001,100216,
AFNE01.JPG,AFNE01.JPG,AFNE01.JPG,AFNE01.JPG,AFNE01.JPG,AFNE01.JPG,,,,,,,,,3,3,33,4,,,,,,,,,,,,,,,AFNE07.jpg,AFSA14.jpg,AFSA10.jpg,AFNE01.jpg,AFNE07.jpg,FN,3,num_8,16,num_8,0.933425791736,,,2017_Apr_19_1554,60.0041763155,FEMA4ImagesEEG,001,100216,
AFNE01.JPG,AFNE01.JPG,AFNE01.JPG,AFNE01.JPG,AFNE01.JPG,AFNE01.JPG,,,,,,,,,3,4,34,8,,,,,,,,,,,,,,,AFSA20.jpg,AFNE10.jpg,AFNE01.jpg,AFSA12.jpg,AFNE10.jpg,FN,3,num_6,16,num_6,1.03343512522,,,2017_Apr_19_1554,60.0041763155,FEMA4ImagesEEG,001,100216,
AFNE01.JPG,AFNE01.JPG,AFNE01.JPG,AFNE01.JPG,AFNE01.JPG,AFNE01.JPG,,,,,,,,,3,5,35,1,,,,,,,,,,,,,,,AFSA15.jpg,AFSA03.jpg,AFNE15.jpg,AFNE11.jpg,AFSA03.jpg,FS,4,num_6,16,num_6,1.53336889262,,,2017_Apr_19_1554,60.0041763155,FEMA4ImagesEEG,001,100216,
AFNE01.JPG,AFNE01.JPG,AFNE01.JPG,AFNE01.JPG,AFNE01.JPG,AFNE01.JPG,,,,,,,,,3,6,36,0,,,,,,,,,,,,,,,AFSA05.jpg,AFNE08.jpg,AFNE03.jpg,AFSA14.jpg,AFSA14.jpg,FS,4,num_4,16,num_4,2.83329265294,,,2017_Apr_19_1554,60.0041763155,FEMA4ImagesEEG,001,100216,
AFNE01.JPG,AFNE01.JPG,AFNE01.JPG,AFNE01.JPG,AFNE01.JPG,AFNE01.JPG,,,,,,,,,3,7,37,5,,,,,,,,,,,,,,,AFSA07.jpg,AFNE06.jpg,AFSA02.jpg,AFNE14.jpg,AFSA07.jpg,FS,4,num_8,32,num_6,1.33330403917,,,2017_Apr_19_1554,60.0041763155,FEMA4ImagesEEG,001,100216,
AFNE01.JPG,AFNE01.JPG,AFNE01.JPG,AFNE01.JPG,AFNE01.JPG,AFNE01.JPG,,,,,,,,,3,8,38,3,,,,,,,,,,,,,,,AFSA08.jpg,AFNE10.jpg,AFSA16.jpg,AFNE09.jpg,AFSA08.jpg,FS,4,num_8,32,num_2,1.20009885178,,,2017_Apr_19_1554,60.0041763155,FEMA4ImagesEEG,001,100216,
AFNE01.JPG,AFNE01.JPG,AFNE01.JPG,AFNE01.JPG,AFNE01.JPG,AFNE01.JPG,,,,,,,,,3,9,39,6,,,,,,,,,,,,,,,AFSA02.jpg,AFNE04.jpg,AFNE20.jpg,AFSA12.jpg,AFNE20.jpg,FN,3,num_2,32,num_6,1.36670324163,,,2017_Apr_19_1554,60.0041763155,FEMA4ImagesEEG,001,100216,
AFNE01.JPG,AFNE01.JPG,AFNE01.JPG,AFNE01.JPG,AFNE01.JPG,AFNE01.JPG,,,,,,,,,4,0,40,0,,,,,,,,,,,,,,,AFSA14.jpg,AFNE14.jpg,AFNE02.jpg,AFSA15.jpg,AFSA15.jpg,FS,4,num_4,16,num_4,0.683412240498,,,2017_Apr_19_1554,60.0041763155,FEMA4ImagesEEG,001,100216,
AFNE01.JPG,AFNE01.JPG,AFNE01.JPG,AFNE01.JPG,AFNE01.JPG,AFNE01.JPG,,,,,,,,,4,1,41,7,,,,,,,,,,,,,,,AFNE13.jpg,AFNE02.jpg,AFSA14.jpg,AFSA15.jpg,AFNE02.jpg,FN,3,num_6,32,num_8,0.916762754758,,,2017_Apr_19_1554,60.0041763155,FEMA4ImagesEEG,001,100216,
AFNE01.JPG,AFNE01.JPG,AFNE01.JPG,AFNE01.JPG,AFNE01.JPG,AFNE01.JPG,,,,,,,,,4,2,42,3,,,,,,,,,,,,,,,AFSA01.jpg,AFNE14.jpg,AFSA02.jpg,AFNE04.jpg,AFSA02.jpg,FS,4,num_2,16,num_2,1.13342553511,,,2017_Apr_19_1554,60.0041763155,FEMA4ImagesEEG,001,100216,
AFNE01.JPG,AFNE01.JPG,AFNE01.JPG,AFNE01.JPG,AFNE01.JPG,AFNE01.JPG,,,,,,,,,4,3,43,5,,,,,,,,,,,,,,,AFNE16.jpg,AFNE02.jpg,AFSA07.jpg,AFSA03.jpg,AFNE16.jpg,FN,3,num_8,16,num_8,0.933430923556,,,2017_Apr_19_1554,60.0041763155,FEMA4ImagesEEG,001,100216,
AFNE01.JPG,AFNE01.JPG,AFNE01.JPG,AFNE01.JPG,AFNE01.JPG,AFNE01.JPG,,,,,,,,,4,4,44,8,,,,,,,,,,,,,,,AFSA14.jpg,AFSA02.jpg,AFNE02.jpg,AFNE19.jpg,AFNE19.jpg,FN,3,num_4,32,num_6,1.16674326986,,,2017_Apr_19_1554,60.0041763155,FEMA4ImagesEEG,001,100216,
AFNE01.JPG,AFNE01.JPG,AFNE01.JPG,AFNE01.JPG,AFNE01.JPG,AFNE01.JPG,,,,,,,,,4,5,45,9,,,,,,,,,,,,,,,AFNE17.jpg,AFSA13.jpg,AFNE01.jpg,AFSA01.jpg,AFSA13.jpg,FS,4,num_6,16,num_6,0.750122442143,,,2017_Apr_19_1554,60.0041763155,FEMA4ImagesEEG,001,100216,
AFNE01.JPG,AFNE01.JPG,AFNE01.JPG,AFNE01.JPG,AFNE01.JPG,AFNE01.JPG,,,,,,,,,4,6,46,4,,,,,,,,,,,,,,,AFNE07.jpg,AFSA03.jpg,AFSA16.jpg,AFNE13.jpg,AFSA03.jpg,FS,4,num_6,32,num_2,1.58340515217,,,2017_Apr_19_1554,60.0041763155,FEMA4ImagesEEG,001,100216,
AFNE01.JPG,AFNE01.JPG,AFNE01.JPG,AFNE01.JPG,AFNE01.JPG,AFNE01.JPG,,,,,,,,,4,7,47,2,,,,,,,,,,,,,,,AFSA07.jpg,AFNE06.jpg,AFNE11.jpg,AFSA10.jpg,AFSA10.jpg,FS,4,num_4,32,num_8,1.01660530394,,,2017_Apr_19_1554,60.0041763155,FEMA4ImagesEEG,001,100216,
AFNE01.JPG,AFNE01.JPG,AFNE01.JPG,AFNE01.JPG,AFNE01.JPG,AFNE01.JPG,,,,,,,,,4,8,48,6,,,,,,,,,,,,,,,AFSA05.jpg,AFNE14.jpg,AFNE04.jpg,AFSA19.jpg,AFNE14.jpg,FN,3,num_6,32,num_8,1.11682279711,,,2017_Apr_19_1554,60.0041763155,FEMA4ImagesEEG,001,100216,
AFNE01.JPG,AFNE01.JPG,AFNE01.JPG,AFNE01.JPG,AFNE01.JPG,AFNE01.JPG,,,,,,,,,4,9,49,1,,,,,,,,,,,,,,,AFNE08.jpg,AFNE10.jpg,AFSA15.jpg,AFSA01.jpg,AFSA01.jpg,FS,4,num_4,16,num_4,0.950098771602,,,2017_Apr_19_1554,60.0041763155,FEMA4ImagesEEG,001,100216,
AFNE01.JPG,AFNE01.JPG,AFNE01.JPG,AFNE01.JPG,AFNE01.JPG,AFNE01.JPG,,,,,,,,,5,0,50,5,,,,,,,,,,,,,,,AFNE06.jpg,AFNE10.jpg,AFSA01.jpg,AFSA06.jpg,AFSA01.jpg,FS,4,num_2,16,num_2,2.06668903286,,,2017_Apr_19_1554,60.0041763155,FEMA4ImagesEEG,001,100216,
AFNE01.JPG,AFNE01.JPG,AFNE01.JPG,AFNE01.JPG,AFNE01.JPG,AFNE01.JPG,,,,,,,,,5,1,51,9,,,,,,,,,,,,,,,AFNE01.jpg,AFSA04.jpg,AFNE07.jpg,AFSA01.jpg,AFSA01.jpg,FS,4,num_4,32,num_6,1.45011015784,,,2017_Apr_19_1554,60.0041763155,FEMA4ImagesEEG,001,100216,
AFNE01.JPG,AFNE01.JPG,AFNE01.JPG,AFNE01.JPG,AFNE01.JPG,AFNE01.JPG,,,,,,,,,5,2,52,4,,,,,,,,,,,,,,,AFSA06.jpg,AFSA03.jpg,AFNE04.jpg,AFNE06.jpg,AFSA06.jpg,FS,4,num_8,32,num_2,1.21673302224,,,2017_Apr_19_1554,60.0041763155,FEMA4ImagesEEG,001,100216,
AFNE01.JPG,AFNE01.JPG,AFNE01.JPG,AFNE01.JPG,AFNE01.JPG,AFNE01.JPG,,,,,,,,,5,3,53,8,,,,,,,,,,,,,,,AFNE09.jpg,AFSA10.jpg,AFSA02.jpg,AFNE16.jpg,AFNE09.jpg,FN,3,num_8,32,num_6,0.966778166272,,,2017_Apr_19_1554,60.0041763155,FEMA4ImagesEEG,001,100216,
AFNE01.JPG,AFNE01.JPG,AFNE01.JPG,AFNE01.JPG,AFNE01.JPG,AFNE01.JPG,,,,,,,,,5,4,54,3,,,,,,,,,,,,,,,AFNE03.jpg,AFSA14.jpg,AFSA02.jpg,AFNE08.jpg,AFNE08.jpg,FN,3,num_4,32,num_8,0.783450761257,,,2017_Apr_19_1554,60.0041763155,FEMA4ImagesEEG,001,100216,
AFNE01.JPG,AFNE01.JPG,AFNE01.JPG,AFNE01.JPG,AFNE01.JPG,AFNE01.JPG,,,,,,,,,5,5,55,1,,,,,,,,,,,,,,,AFSA02.jpg,AFNE09.jpg,AFNE13.jpg,AFSA08.jpg,AFSA02.jpg,FS,4,num_8,32,num_2,1.86700746263,,,2017_Apr_19_1554,60.0041763155,FEMA4ImagesEEG,001,100216,
AFNE01.JPG,AFNE01.JPG,AFNE01.JPG,AFNE01.JPG,AFNE01.JPG,AFNE01.JPG,,,,,,,,,5,6,56,6,,,,,,,,,,,,,,,AFSA13.jpg,AFSA19.jpg,AFNE19.jpg,AFNE16.jpg,AFSA19.jpg,FS,4,num_6,32,num_2,1.23341466207,,,2017_Apr_19_1554,60.0041763155,FEMA4ImagesEEG,001,100216,
AFNE01.JPG,AFNE01.JPG,AFNE01.JPG,AFNE01.JPG,AFNE01.JPG,AFNE01.JPG,,,,,,,,,5,7,57,2,,,,,,,,,,,,,,,AFNE19.jpg,AFSA14.jpg,AFSA08.jpg,AFNE04.jpg,AFNE04.jpg,FN,3,num_4,32,num_8,1.06675189771,,,2017_Apr_19_1554,60.0041763155,FEMA4ImagesEEG,001,100216,
AFNE01.JPG,AFNE01.JPG,AFNE01.JPG,AFNE01.JPG,AFNE01.JPG,AFNE01.JPG,,,,,,,,,5,8,58,0,,,,,,,,,,,,,,,AFNE01.jpg,AFSA11.jpg,AFSA10.jpg,AFNE14.jpg,AFSA10.jpg,FS,4,num_2,16,num_2,1.2000728719,,,2017_Apr_19_1554,60.0041763155,FEMA4ImagesEEG,001,100216,
AFNE01.JPG,AFNE01.JPG,AFNE01.JPG,AFNE01.JPG,AFNE01.JPG,AFNE01.JPG,,,,,,,,,5,9,59,7,,,,,,,,,,,,,,,AFNE14.jpg,AFSA12.jpg,AFNE08.jpg,AFSA17.jpg,AFNE08.jpg,FN,3,num_2,32,num_8,0.916786168702,,,2017_Apr_19_1554,60.0041763155,FEMA4ImagesEEG,001,100216,
,,,,,,,,,,,,,,,,,,,,,,,,,,,,,,,,,,,,,,,,,,,space,12.9824488365,2017_Apr_19_1554,60.0041763155,FEMA4ImagesEEG,001,100216,
AFNE01.JPG,AFNE01.JPG,AFNE01.JPG,AFNE01.JPG,AFNE01.JPG,AFNE01.JPG,,,,,,,,,,,,,0,0,0,4,,,,,,,,,,,AMSA07.jpg,AMSA12.jpg,AMNE01.jpg,AMNE16.jpg,AMSA07.jpg,MS,2,num_8,16,num_8,0.883437322278,,,2017_Apr_19_1554,60.0041763155,FEMA4ImagesEEG,001,100216,
AFNE01.JPG,AFNE01.JPG,AFNE01.JPG,AFNE01.JPG,AFNE01.JPG,AFNE01.JPG,,,,,,,,,,,,,0,1,1,2,,,,,,,,,,,AMSA01.jpg,AMNE17.jpg,AMSA09.jpg,AMNE19.jpg,AMNE17.jpg,MN,1,num_6,32,num_2,2.54996329141,,,2017_Apr_19_1554,60.0041763155,FEMA4ImagesEEG,001,100216,
AFNE01.JPG,AFNE01.JPG,AFNE01.JPG,AFNE01.JPG,AFNE01.JPG,AFNE01.JPG,,,,,,,,,,,,,0,2,2,3,,,,,,,,,,,AMSA18.jpg,AMSA10.jpg,AMNE18.jpg,AMNE17.jpg,AMNE18.jpg,MN,1,num_2,16,num_2,1.1167480649,,,2017_Apr_19_1554,60.0041763155,FEMA4ImagesEEG,001,100216,
AFNE01.JPG,AFNE01.JPG,AFNE01.JPG,AFNE01.JPG,AFNE01.JPG,AFNE01.JPG,,,,,,,,,,,,,0,3,3,8,,,,,,,,,,,AMNE18.jpg,AMSA18.jpg,AMSA16.jpg,AMNE05.jpg,AMNE18.jpg,MN,1,num_8,16,num_8,1.00009910838,,,2017_Apr_19_1554,60.0041763155,FEMA4ImagesEEG,001,100216,
AFNE01.JPG,AFNE01.JPG,AFNE01.JPG,AFNE01.JPG,AFNE01.JPG,AFNE01.JPG,,,,,,,,,,,,,0,4,4,5,,,,,,,,,,,AMSA05.jpg,AMSA16.jpg,AMNE01.jpg,AMNE14.jpg,AMNE01.jpg,MN,1,num_2,16,num_2,0.933420018409,,,2017_Apr_19_1554,60.0041763155,FEMA4ImagesEEG,001,100216,
AFNE01.JPG,AFNE01.JPG,AFNE01.JPG,AFNE01.JPG,AFNE01.JPG,AFNE01.JPG,,,,,,,,,,,,,0,5,5,9,,,,,,,,,,,AMNE11.jpg,AMSA07.jpg,AMNE01.jpg,AMSA20.jpg,AMNE01.jpg,MN,1,num_2,16,num_2,0.86665304596,,,2017_Apr_19_1554,60.0041763155,FEMA4ImagesEEG,001,100216,
AFNE01.JPG,AFNE01.JPG,AFNE01.JPG,AFNE01.JPG,AFNE01.JPG,AFNE01.JPG,,,,,,,,,,,,,0,6,6,7,,,,,,,,,,,AMSA14.jpg,AMNE16.jpg,AMSA04.jpg,AMNE15.jpg,AMSA04.jpg,MS,2,num_2,16,num_2,0.933418093977,,,2017_Apr_19_1554,60.0041763155,FEMA4ImagesEEG,001,100216,
AFNE01.JPG,AFNE01.JPG,AFNE01.JPG,AFNE01.JPG,AFNE01.JPG,AFNE01.JPG,,,,,,,,,,,,,0,7,7,1,,,,,,,,,,,AMSA20.jpg,AMNE20.jpg,AMSA13.jpg,AMNE16.jpg,AMSA20.jpg,MS,2,num_8,16,num_8,1.16673589285,,,2017_Apr_19_1554,60.0041763155,FEMA4ImagesEEG,001,100216,
AFNE01.JPG,AFNE01.JPG,AFNE01.JPG,AFNE01.JPG,AFNE01.JPG,AFNE01.JPG,,,,,,,,,,,,,0,8,8,0,,,,,,,,,,,AMNE18.jpg,AMSA18.jpg,AMNE15.jpg,AMSA19.jpg,AMNE18.jpg,MN,1,num_8,16,num_8,1.4334827229,,,2017_Apr_19_1554,60.0041763155,FEMA4ImagesEEG,001,100216,
AFNE01.JPG,AFNE01.JPG,AFNE01.JPG,AFNE01.JPG,AFNE01.JPG,AFNE01.JPG,,,,,,,,,,,,,0,9,9,6,,,,,,,,,,,AMSA04.jpg,AMSA16.jpg,AMNE04.jpg,AMNE03.jpg,AMSA16.jpg,MS,2,num_6,16,num_6,1.03342197492,,,2017_Apr_19_1554,60.0041763155,FEMA4ImagesEEG,001,100216,
AFNE01.JPG,AFNE01.JPG,AFNE01.JPG,AFNE01.JPG,AFNE01.JPG,AFNE01.JPG,,,,,,,,,,,,,1,0,10,3,,,,,,,,,,,AMSA16.jpg,AMNE09.jpg,AMSA10.jpg,AMNE06.jpg,AMNE06.jpg,MN,1,num_4,32,num_2,3.06661782879,,,2017_Apr_19_1554,60.0041763155,FEMA4ImagesEEG,001,100216,
AFNE01.JPG,AFNE01.JPG,AFNE01.JPG,AFNE01.JPG,AFNE01.JPG,AFNE01.JPG,,,,,,,,,,,,,1,1,11,9,,,,,,,,,,,AMSA11.jpg,AMSA14.jpg,AMNE17.jpg,AMNE12.jpg,AMSA11.jpg,MS,2,num_8,16,num_8,1.18349771746,,,2017_Apr_19_1554,60.0041763155,FEMA4ImagesEEG,001,100216,
AFNE01.JPG,AFNE01.JPG,AFNE01.JPG,AFNE01.JPG,AFNE01.JPG,AFNE01.JPG,,,,,,,,,,,,,1,2,12,2,,,,,,,,,,,AMNE14.jpg,AMSA08.jpg,AMSA15.jpg,AMNE17.jpg,AMSA08.jpg,MS,2,num_6,32,num_4,0.933463959664,,,2017_Apr_19_1554,60.0041763155,FEMA4ImagesEEG,001,100216,
AFNE01.JPG,AFNE01.JPG,AFNE01.JPG,AFNE01.JPG,AFNE01.JPG,AFNE01.JPG,,,,,,,,,,,,,1,3,13,1,,,,,,,,,,,AMNE03.jpg,AMSA20.jpg,AMSA17.jpg,AMNE13.jpg,AMSA20.jpg,MS,2,num_6,16,num_6,0.750075934979,,,2017_Apr_19_1554,60.0041763155,FEMA4ImagesEEG,001,100216,
AFNE01.JPG,AFNE01.JPG,AFNE01.JPG,AFNE01.JPG,AFNE01.JPG,AFNE01.JPG,,,,,,,,,,,,,1,4,14,7,,,,,,,,,,,AMSA02.jpg,AMSA06.jpg,AMNE14.jpg,AMNE11.jpg,AMNE14.jpg,MN,1,num_2,32,num_8,0.233564767957,,,2017_Apr_19_1554,60.0041763155,FEMA4ImagesEEG,001,100216,
AFNE01.JPG,AFNE01.JPG,AFNE01.JPG,AFNE01.JPG,AFNE01.JPG,AFNE01.JPG,,,,,,,,,,,,,1,5,15,0,,,,,,,,,,,AMNE11.jpg,AMSA10.jpg,AMNE14.jpg,AMSA05.jpg,AMNE11.jpg,MN,1,num_8,32,num_2,2.63330092799,,,2017_Apr_19_1554,60.0041763155,FEMA4ImagesEEG,001,100216,
AFNE01.JPG,AFNE01.JPG,AFNE01.JPG,AFNE01.JPG,AFNE01.JPG,AFNE01.JPG,,,,,,,,,,,,,1,6,16,6,,,,,,,,,,,AMNE09.jpg,AMNE11.jpg,AMSA09.jpg,AMSA05.jpg,AMSA05.jpg,MS,2,num_4,32,num_2,1.20008249409,,,2017_Apr_19_1554,60.0041763155,FEMA4ImagesEEG,001,100216,
AFNE01.JPG,AFNE01.JPG,AFNE01.JPG,AFNE01.JPG,AFNE01.JPG,AFNE01.JPG,,,,,,,,,,,,,1,7,17,8,,,,,,,,,,,AMNE07.jpg,AMNE01.jpg,AMSA19.jpg,AMSA04.jpg,AMSA04.jpg,MS,2,num_4,16,num_4,0.450156344275,,,2017_Apr_19_1554,60.0041763155,FEMA4ImagesEEG,001,100216,
AFNE01.JPG,AFNE01.JPG,AFNE01.JPG,AFNE01.JPG,AFNE01.JPG,AFNE01.JPG,,,,,,,,,,,,,1,8,18,5,,,,,,,,,,,AMNE06.jpg,AMNE11.jpg,AMSA20.jpg,AMSA15.jpg,AMSA20.jpg,MS,2,num_2,32,num_4,1.98339533753,,,2017_Apr_19_1554,60.0041763155,FEMA4ImagesEEG,001,100216,
AFNE01.JPG,AFNE01.JPG,AFNE01.JPG,AFNE01.JPG,AFNE01.JPG,AFNE01.JPG,,,,,,,,,,,,,1,9,19,4,,,,,,,,,,,AMNE10.jpg,AMSA08.jpg,AMSA10.jpg,AMNE03.jpg,AMSA10.jpg,MS,2,num_2,32,num_8,0.900148149376,,,2017_Apr_19_1554,60.0041763155,FEMA4ImagesEEG,001,100216,
AFNE01.JPG,AFNE01.JPG,AFNE01.JPG,AFNE01.JPG,AFNE01.JPG,AFNE01.JPG,,,,,,,,,,,,,2,0,20,1,,,,,,,,,,,AMSA14.jpg,AMSA16.jpg,AMNE16.jpg,AMNE12.jpg,AMNE16.jpg,MN,1,num_2,16,num_2,1.16679907846,,,2017_Apr_19_1554,60.0041763155,FEMA4ImagesEEG,001,100216,
AFNE01.JPG,AFNE01.JPG,AFNE01.JPG,AFNE01.JPG,AFNE01.JPG,AFNE01.JPG,,,,,,,,,,,,,2,1,21,3,,,,,,,,,,,AMSA06.jpg,AMNE08.jpg,AMSA19.jpg,AMNE20.jpg,AMNE20.jpg,MN,1,num_4,32,num_6,1.16665859474,,,2017_Apr_19_1554,60.0041763155,FEMA4ImagesEEG,001,100216,
AFNE01.JPG,AFNE01.JPG,AFNE01.JPG,AFNE01.JPG,AFNE01.JPG,AFNE01.JPG,,,,,,,,,,,,,2,2,22,6,,,,,,,,,,,AMSA01.jpg,AMNE06.jpg,AMSA06.jpg,AMNE15.jpg,AMNE06.jpg,MN,1,num_6,16,num_6,0.900102925167,,,2017_Apr_19_1554,60.0041763155,FEMA4ImagesEEG,001,100216,
AFNE01.JPG,AFNE01.JPG,AFNE01.JPG,AFNE01.JPG,AFNE01.JPG,AFNE01.JPG,,,,,,,,,,,,,2,3,23,9,,,,,,,,,,,AMNE13.jpg,AMSA01.jpg,AMSA17.jpg,AMNE14.jpg,AMNE14.jpg,MN,1,num_4,16,num_4,0.833315104654,,,2017_Apr_19_1554,60.0041763155,FEMA4ImagesEEG,001,100216,
AFNE01.JPG,AFNE01.JPG,AFNE01.JPG,AFNE01.JPG,AFNE01.JPG,AFNE01.JPG,,,,,,,,,,,,,2,4,24,0,,,,,,,,,,,AMSA10.jpg,AMSA05.jpg,AMNE11.jpg,AMNE02.jpg,AMNE11.jpg,MN,1,num_2,32,num_8,0.683436937397,,,2017_Apr_19_1554,60.0041763155,FEMA4ImagesEEG,001,100216,
AFNE01.JPG,AFNE01.JPG,AFNE01.JPG,AFNE01.JPG,AFNE01.JPG,AFNE01.JPG,,,,,,,,,,,,,2,5,25,4,,,,,,,,,,,AMSA03.jpg,AMNE18.jpg,AMNE02.jpg,AMSA16.jpg,AMNE02.jpg,MN,1,num_2,32,num_6,0.666784164088,,,2017_Apr_19_1554,60.0041763155,FEMA4ImagesEEG,001,100216,
AFNE01.JPG,AFNE01.JPG,AFNE01.JPG,AFNE01.JPG,AFNE01.JPG,AFNE01.JPG,,,,,,,,,,,,,2,6,26,7,,,,,,,,,,,AMSA08.jpg,AMSA07.jpg,AMNE06.jpg,AMNE16.jpg,AMNE06.jpg,MN,1,num_2,32,num_4,1.06679166938,,,2017_Apr_19_1554,60.0041763155,FEMA4ImagesEEG,001,100216,
AFNE01.JPG,AFNE01.JPG,AFNE01.JPG,AFNE01.JPG,AFNE01.JPG,AFNE01.JPG,,,,,,,,,,,,,2,7,27,8,,,,,,,,,,,AMNE07.jpg,AMNE16.jpg,AMSA10.jpg,AMSA18.jpg,AMNE16.jpg,MN,1,num_6,32,num_8,1.21673141854,,,2017_Apr_19_1554,60.0041763155,FEMA4ImagesEEG,001,100216,
AFNE01.JPG,AFNE01.JPG,AFNE01.JPG,AFNE01.JPG,AFNE01.JPG,AFNE01.JPG,,,,,,,,,,,,,2,8,28,5,,,,,,,,,,,AMSA07.jpg,AMNE16.jpg,AMSA20.jpg,AMNE10.jpg,AMNE10.jpg,MN,1,num_4,32,num_8,1.16673589285,,,2017_Apr_19_1554,60.0041763155,FEMA4ImagesEEG,001,100216,
AFNE01.JPG,AFNE01.JPG,AFNE01.JPG,AFNE01.JPG,AFNE01.JPG,AFNE01.JPG,,,,,,,,,,,,,2,9,29,2,,,,,,,,,,,AMNE04.jpg,AMSA06.jpg,AMSA12.jpg,AMNE14.jpg,AMNE14.jpg,MN,1,num_4,16,num_4,1.0834107651,,,2017_Apr_19_1554,60.0041763155,FEMA4ImagesEEG,001,100216,
AFNE01.JPG,AFNE01.JPG,AFNE01.JPG,AFNE01.JPG,AFNE01.JPG,AFNE01.JPG,,,,,,,,,,,,,3,0,30,4,,,,,,,,,,,AMSA08.jpg,AMNE16.jpg,AMSA20.jpg,AMNE08.jpg,AMNE08.jpg,MN,1,num_4,32,num_6,0.833328896435,,,2017_Apr_19_1554,60.0041763155,FEMA4ImagesEEG,001,100216,
AFNE01.JPG,AFNE01.JPG,AFNE01.JPG,AFNE01.JPG,AFNE01.JPG,AFNE01.JPG,,,,,,,,,,,,,3,1,31,8,,,,,,,,,,,AMSA06.jpg,AMSA03.jpg,AMNE08.jpg,AMNE05.jpg,AMNE08.jpg,MN,1,num_2,32,num_8,0.800106741983,,,2017_Apr_19_1554,60.0041763155,FEMA4ImagesEEG,001,100216,
AFNE01.JPG,AFNE01.JPG,AFNE01.JPG,AFNE01.JPG,AFNE01.JPG,AFNE01.JPG,,,,,,,,,,,,,3,2,32,2,,,,,,,,,,,AMNE16.jpg,AMNE06.jpg,AMSA04.jpg,AMSA02.jpg,AMNE16.jpg,MN,1,num_8,16,num_8,0.816773307073,,,2017_Apr_19_1554,60.0041763155,FEMA4ImagesEEG,001,100216,
AFNE01.JPG,AFNE01.JPG,AFNE01.JPG,AFNE01.JPG,AFNE01.JPG,AFNE01.JPG,,,,,,,,,,,,,3,3,33,7,,,,,,,,,,,AMSA11.jpg,AMNE16.jpg,AMNE14.jpg,AMSA14.jpg,AMSA14.jpg,MS,2,num_4,16,num_4,0.90012024506,,,2017_Apr_19_1554,60.0041763155,FEMA4ImagesEEG,001,100216,
AFNE01.JPG,AFNE01.JPG,AFNE01.JPG,AFNE01.JPG,AFNE01.JPG,AFNE01.JPG,,,,,,,,,,,,,3,4,34,6,,,,,,,,,,,AMSA04.jpg,AMNE13.jpg,AMSA01.jpg,AMNE15.jpg,AMNE13.jpg,MN,1,num_6,16,num_6,0.700148726697,,,2017_Apr_19_1554,60.0041763155,FEMA4ImagesEEG,001,100216,
AFNE01.JPG,AFNE01.JPG,AFNE01.JPG,AFNE01.JPG,AFNE01.JPG,AFNE01.JPG,,,,,,,,,,,,,3,5,35,5,,,,,,,,,,,AMNE04.jpg,AMSA10.jpg,AMSA09.jpg,AMNE20.jpg,AMSA09.jpg,MS,2,num_2,32,num_6,1.03339567431,,,2017_Apr_19_1554,60.0041763155,FEMA4ImagesEEG,001,100216,
AFNE01.JPG,AFNE01.JPG,AFNE01.JPG,AFNE01.JPG,AFNE01.JPG,AFNE01.JPG,,,,,,,,,,,,,3,6,36,3,,,,,,,,,,,AMNE02.jpg,AMSA08.jpg,AMNE09.jpg,AMSA13.jpg,AMNE09.jpg,MN,1,num_2,16,num_2,2.8333818184,,,2017_Apr_19_1554,60.0041763155,FEMA4ImagesEEG,001,100216,
AFNE01.JPG,AFNE01.JPG,AFNE01.JPG,AFNE01.JPG,AFNE01.JPG,AFNE01.JPG,,,,,,,,,,,,,3,7,37,9,,,,,,,,,,,AMNE07.jpg,AMNE16.jpg,AMSA09.jpg,AMSA10.jpg,AMSA10.jpg,MS,2,num_4,16,num_4,0.733414180984,,,2017_Apr_19_1554,60.0041763155,FEMA4ImagesEEG,001,100216,
AFNE01.JPG,AFNE01.JPG,AFNE01.JPG,AFNE01.JPG,AFNE01.JPG,AFNE01.JPG,,,,,,,,,,,,,3,8,38,1,,,,,,,,,,,AMNE06.jpg,AMSA04.jpg,AMNE09.jpg,AMSA18.jpg,AMNE09.jpg,MN,1,num_2,32,num_8,1.1834463992,,,2017_Apr_19_1554,60.0041763155,FEMA4ImagesEEG,001,100216,
AFNE01.JPG,AFNE01.JPG,AFNE01.JPG,AFNE01.JPG,AFNE01.JPG,AFNE01.JPG,,,,,,,,,,,,,3,9,39,0,,,,,,,,,,,AMSA09.jpg,AMSA12.jpg,AMNE15.jpg,AMNE16.jpg,AMNE15.jpg,MN,1,num_2,32,num_4,1.68367396359,,,2017_Apr_19_1554,60.0041763155,FEMA4ImagesEEG,001,100216,
AFNE01.JPG,AFNE01.JPG,AFNE01.JPG,AFNE01.JPG,AFNE01.JPG,AFNE01.JPG,,,,,,,,,,,,,4,0,40,1,,,,,,,,,,,AMNE02.jpg,AMSA02.jpg,AMSA10.jpg,AMNE19.jpg,AMSA10.jpg,MS,2,num_2,16,num_2,1.43339580263,,,2017_Apr_19_1554,60.0041763155,FEMA4ImagesEEG,001,100216,
AFNE01.JPG,AFNE01.JPG,AFNE01.JPG,AFNE01.JPG,AFNE01.JPG,AFNE01.JPG,,,,,,,,,,,,,4,1,41,3,,,,,,,,,,,AMSA19.jpg,AMSA14.jpg,AMNE20.jpg,AMNE18.jpg,AMSA19.jpg,MS,2,num_8,16,num_8,1.01674899505,,,2017_Apr_19_1554,60.0041763155,FEMA4ImagesEEG,001,100216,
AFNE01.JPG,AFNE01.JPG,AFNE01.JPG,AFNE01.JPG,AFNE01.JPG,AFNE01.JPG,,,,,,,,,,,,,4,2,42,6,,,,,,,,,,,AMSA02.jpg,AMSA06.jpg,AMNE01.jpg,AMNE09.jpg,AMNE09.jpg,MN,1,num_4,32,num_8,1.65014614476,,,2017_Apr_19_1554,60.0041763155,FEMA4ImagesEEG,001,100216,
AFNE01.JPG,AFNE01.JPG,AFNE01.JPG,AFNE01.JPG,AFNE01.JPG,AFNE01.JPG,,,,,,,,,,,,,4,3,43,8,,,,,,,,,,,AMSA10.jpg,AMNE18.jpg,AMNE06.jpg,AMSA04.jpg,AMNE18.jpg,MN,1,num_6,32,num_2,1.23316127821,,,2017_Apr_19_1554,60.0041763155,FEMA4ImagesEEG,001,100216,
AFNE01.JPG,AFNE01.JPG,AFNE01.JPG,AFNE01.JPG,AFNE01.JPG,AFNE01.JPG,,,,,,,,,,,,,4,4,44,9,,,,,,,,,,,AMSA14.jpg,AMNE10.jpg,AMNE06.jpg,AMSA08.jpg,AMNE10.jpg,MN,1,num_6,16,num_6,0.983602855733,,,2017_Apr_19_1554,60.0041763155,FEMA4ImagesEEG,001,100216,
AFNE01.JPG,AFNE01.JPG,AFNE01.JPG,AFNE01.JPG,AFNE01.JPG,AFNE01.JPG,,,,,,,,,,,,,4,5,45,5,,,,,,,,,,,AMNE20.jpg,AMSA11.jpg,AMSA17.jpg,AMNE08.jpg,AMSA11.jpg,MS,2,num_6,16,num_6,0.949943213142,,,2017_Apr_19_1554,60.0041763155,FEMA4ImagesEEG,001,100216,
AFNE01.JPG,AFNE01.JPG,AFNE01.JPG,AFNE01.JPG,AFNE01.JPG,AFNE01.JPG,,,,,,,,,,,,,4,6,46,0,,,,,,,,,,,AMNE02.jpg,AMNE08.jpg,AMSA06.jpg,AMSA05.jpg,AMSA05.jpg,MS,2,num_4,32,num_2,2.4837277836,,,2017_Apr_19_1554,60.0041763155,FEMA4ImagesEEG,001,100216,
AFNE01.JPG,AFNE01.JPG,AFNE01.JPG,AFNE01.JPG,AFNE01.JPG,AFNE01.JPG,,,,,,,,,,,,,4,7,47,7,,,,,,,,,,,AMNE03.jpg,AMNE07.jpg,AMSA15.jpg,AMSA10.jpg,AMNE03.jpg,MN,1,num_8,16,num_8,1.15010268462,,,2017_Apr_19_1554,60.0041763155,FEMA4ImagesEEG,001,100216,
AFNE01.JPG,AFNE01.JPG,AFNE01.JPG,AFNE01.JPG,AFNE01.JPG,AFNE01.JPG,,,,,,,,,,,,,4,8,48,2,,,,,,,,,,,AMNE11.jpg,AMSA17.jpg,AMNE09.jpg,AMSA13.jpg,AMNE11.jpg,MN,1,num_8,16,num_8,0.716782897158,,,2017_Apr_19_1554,60.0041763155,FEMA4ImagesEEG,001,100216,
AFNE01.JPG,AFNE01.JPG,AFNE01.JPG,AFNE01.JPG,AFNE01.JPG,AFNE01.JPG,,,,,,,,,,,,,4,9,49,4,,,,,,,,,,,AMSA01.jpg,AMNE04.jpg,AMSA13.jpg,AMNE03.jpg,AMSA13.jpg,MS,2,num_2,16,num_2,1.23344256639,,,2017_Apr_19_1554,60.0041763155,FEMA4ImagesEEG,001,100216,
AFNE01.JPG,AFNE01.JPG,AFNE01.JPG,AFNE01.JPG,AFNE01.JPG,AFNE01.JPG,,,,,,,,,,,,,5,0,50,0,,,,,,,,,,,AMNE14.jpg,AMSA13.jpg,AMSA15.jpg,AMNE19.jpg,AMNE19.jpg,MN,1,num_4,16,num_4,1.33344901324,,,2017_Apr_19_1554,60.0041763155,FEMA4ImagesEEG,001,100216,
AFNE01.JPG,AFNE01.JPG,AFNE01.JPG,AFNE01.JPG,AFNE01.JPG,AFNE01.JPG,,,,,,,,,,,,,5,1,51,9,,,,,,,,,,,AMNE02.jpg,AMSA15.jpg,AMSA13.jpg,AMNE06.jpg,AMSA13.jpg,MS,2,num_2,16,num_2,0.866740286961,,,2017_Apr_19_1554,60.0041763155,FEMA4ImagesEEG,001,100216,
AFNE01.JPG,AFNE01.JPG,AFNE01.JPG,AFNE01.JPG,AFNE01.JPG,AFNE01.JPG,,,,,,,,,,,,,5,2,52,7,,,,,,,,,,,AMSA05.jpg,AMNE10.jpg,AMNE18.jpg,AMSA02.jpg,AMNE18.jpg,MN,1,num_2,32,num_8,0.833460720227,,,2017_Apr_19_1554,60.0041763155,FEMA4ImagesEEG,001,100216,
AFNE01.JPG,AFNE01.JPG,AFNE01.JPG,AFNE01.JPG,AFNE01.JPG,AFNE01.JPG,,,,,,,,,,,,,5,3,53,5,,,,,,,,,,,AMSA20.jpg,AMNE17.jpg,AMNE19.jpg,AMSA14.jpg,AMSA14.jpg,MS,2,num_4,16,num_4,0.883452397044,,,2017_Apr_19_1554,60.0041763155,FEMA4ImagesEEG,001,100216,
AFNE01.JPG,AFNE01.JPG,AFNE01.JPG,AFNE01.JPG,AFNE01.JPG,AFNE01.JPG,,,,,,,,,,,,,5,4,54,3,,,,,,,,,,,AMNE14.jpg,AMSA12.jpg,AMSA18.jpg,AMNE15.jpg,AMNE15.jpg,MN,1,num_4,32,num_6,0.916778470972,,,2017_Apr_19_1554,60.0041763155,FEMA4ImagesEEG,001,100216,
AFNE01.JPG,AFNE01.JPG,AFNE01.JPG,AFNE01.JPG,AFNE01.JPG,AFNE01.JPG,,,,,,,,,,,,,5,5,55,4,,,,,,,,,,,AMNE15.jpg,AMSA07.jpg,AMNE03.jpg,AMSA04.jpg,AMNE03.jpg,MN,1,num_2,16,num_2,1.38345576479,,,2017_Apr_19_1554,60.0041763155,FEMA4ImagesEEG,001,100216,
AFNE01.JPG,AFNE01.JPG,AFNE01.JPG,AFNE01.JPG,AFNE01.JPG,AFNE01.JPG,,,,,,,,,,,,,5,6,56,1,,,,,,,,,,,AMNE17.jpg,AMNE15.jpg,AMSA07.jpg,AMSA12.jpg,AMNE15.jpg,MN,1,num_6,16,num_6,0.983448580228,,,2017_Apr_19_1554,60.0041763155,FEMA4ImagesEEG,001,100216,
AFNE01.JPG,AFNE01.JPG,AFNE01.JPG,AFNE01.JPG,AFNE01.JPG,AFNE01.JPG,,,,,,,,,,,,,5,7,57,2,,,,,,,,,,,AMSA09.jpg,AMSA05.jpg,AMNE06.jpg,AMNE16.jpg,AMNE16.jpg,MN,1,num_4,16,num_4,0.533651142992,,,2017_Apr_19_1554,60.0041763155,FEMA4ImagesEEG,001,100216,
AFNE01.JPG,AFNE01.JPG,AFNE01.JPG,AFNE01.JPG,AFNE01.JPG,AFNE01.JPG,,,,,,,,,,,,,5,8,58,8,,,,,,,,,,,AMSA16.jpg,AMNE08.jpg,AMSA03.jpg,AMNE11.jpg,AMSA03.jpg,MS,2,num_2,16,num_2,2.1666682169,,,2017_Apr_19_1554,60.0041763155,FEMA4ImagesEEG,001,100216,
AFNE01.JPG,AFNE01.JPG,AFNE01.JPG,AFNE01.JPG,AFNE01.JPG,AFNE01.JPG,,,,,,,,,,,,,5,9,59,6,,,,,,,,,,,AMSA05.jpg,AMNE08.jpg,AMSA02.jpg,AMNE13.jpg,AMNE08.jpg,MN,1,num_6,32,num_8,1.08343770719,,,2017_Apr_19_1554,60.0041763155,FEMA4ImagesEEG,001,100216,
,,,,,,,,,,,,,,,,,,,,,,,,,,,,,,,,,,,,,,,,,,,space,17.498747995,2017_Apr_19_1554,60.0041763155,FEMA4ImagesEEG,001,100216,
AFNE01.JPG,AFNE01.JPG,AFNE01.JPG,AFNE01.JPG,AFNE01.JPG,AFNE01.JPG,,,,,,,,,,,,,,,,,0,0,0,8,,,,,,,AFNE16.jpg,AFNE20.jpg,AFSA11.jpg,AFSA07.jpg,AFSA07.jpg,FS,4,num_4,32,num_8,0.966755393776,,,2017_Apr_19_1554,60.0041763155,FEMA4ImagesEEG,001,100216,
AFNE01.JPG,AFNE01.JPG,AFNE01.JPG,AFNE01.JPG,AFNE01.JPG,AFNE01.JPG,,,,,,,,,,,,,,,,,0,1,1,0,,,,,,,AFNE12.jpg,AFSA05.jpg,AFNE10.jpg,AFSA11.jpg,AFSA11.jpg,FS,4,num_4,32,num_6,0.916793866432,,,2017_Apr_19_1554,60.0041763155,FEMA4ImagesEEG,001,100216,
AFNE01.JPG,AFNE01.JPG,AFNE01.JPG,AFNE01.JPG,AFNE01.JPG,AFNE01.JPG,,,,,,,,,,,,,,,,,0,2,2,9,,,,,,,AFSA05.jpg,AFSA04.jpg,AFNE16.jpg,AFNE07.jpg,AFSA05.jpg,FS,4,num_8,32,num_6,0.783454289398,,,2017_Apr_19_1554,60.0041763155,FEMA4ImagesEEG,001,100216,
AFNE01.JPG,AFNE01.JPG,AFNE01.JPG,AFNE01.JPG,AFNE01.JPG,AFNE01.JPG,,,,,,,,,,,,,,,,,0,3,3,5,,,,,,,AFNE12.jpg,AFNE08.jpg,AFSA02.jpg,AFSA03.jpg,AFSA02.jpg,FS,4,num_2,16,num_2,0.833441155119,,,2017_Apr_19_1554,60.0041763155,FEMA4ImagesEEG,001,100216,
AFNE01.JPG,AFNE01.JPG,AFNE01.JPG,AFNE01.JPG,AFNE01.JPG,AFNE01.JPG,,,,,,,,,,,,,,,,,0,4,4,7,,,,,,,AFNE01.jpg,AFSA01.jpg,AFSA18.jpg,AFNE15.jpg,AFNE01.jpg,FN,3,num_8,32,num_4,0.850122474221,,,2017_Apr_19_1554,60.0041763155,FEMA4ImagesEEG,001,100216,
AFNE01.JPG,AFNE01.JPG,AFNE01.JPG,AFNE01.JPG,AFNE01.JPG,AFNE01.JPG,,,,,,,,,,,,,,,,,0,5,5,3,,,,,,,AFSA20.jpg,AFNE05.jpg,AFSA17.jpg,AFNE18.jpg,AFNE05.jpg,FN,3,num_6,16,num_6,0.733464536985,,,2017_Apr_19_1554,60.0041763155,FEMA4ImagesEEG,001,100216,
AFNE01.JPG,AFNE01.JPG,AFNE01.JPG,AFNE01.JPG,AFNE01.JPG,AFNE01.JPG,,,,,,,,,,,,,,,,,0,6,6,6,,,,,,,AFSA06.jpg,AFSA05.jpg,AFNE10.jpg,AFNE17.jpg,AFNE17.jpg,FN,3,num_4,16,num_4,0.83342672186,,,2017_Apr_19_1554,60.0041763155,FEMA4ImagesEEG,001,100216,
AFNE01.JPG,AFNE01.JPG,AFNE01.JPG,AFNE01.JPG,AFNE01.JPG,AFNE01.JPG,,,,,,,,,,,,,,,,,0,7,7,2,,,,,,,AFNE07.jpg,AFSA19.jpg,AFNE16.jpg,AFSA15.jpg,AFNE07.jpg,FN,3,num_8,16,num_8,0.916781357606,,,2017_Apr_19_1554,60.0041763155,FEMA4ImagesEEG,001,100216,
AFNE01.JPG,AFNE01.JPG,AFNE01.JPG,AFNE01.JPG,AFNE01.JPG,AFNE01.JPG,,,,,,,,,,,,,,,,,0,8,8,4,,,,,,,AFNE11.jpg,AFSA07.jpg,AFNE13.jpg,AFSA14.jpg,AFSA07.jpg,FS,4,num_6,16,num_6,0.633477975993,,,2017_Apr_19_1554,60.0041763155,FEMA4ImagesEEG,001,100216,
AFNE01.JPG,AFNE01.JPG,AFNE01.JPG,AFNE01.JPG,AFNE01.JPG,AFNE01.JPG,,,,,,,,,,,,,,,,,0,9,9,1,,,,,,,AFSA05.jpg,AFSA12.jpg,AFNE08.jpg,AFNE16.jpg,AFNE08.jpg,FN,3,num_2,32,num_4,0.950107752287,,,2017_Apr_19_1554,60.0041763155,FEMA4ImagesEEG,001,100216,
AFNE01.JPG,AFNE01.JPG,AFNE01.JPG,AFNE01.JPG,AFNE01.JPG,AFNE01.JPG,,,,,,,,,,,,,,,,,1,0,10,3,,,,,,,AFNE09.jpg,AFSA14.jpg,AFNE16.jpg,AFSA02.jpg,AFNE16.jpg,FN,3,num_2,16,num_2,1.2667160391,,,2017_Apr_19_1554,60.0041763155,FEMA4ImagesEEG,001,100216,
AFNE01.JPG,AFNE01.JPG,AFNE01.JPG,AFNE01.JPG,AFNE01.JPG,AFNE01.JPG,,,,,,,,,,,,,,,,,1,1,11,6,,,,,,,AFSA02.jpg,AFNE10.jpg,AFNE03.jpg,AFSA10.jpg,AFSA02.jpg,FS,4,num_8,16,num_8,1.06674067187,,,2017_Apr_19_1554,60.0041763155,FEMA4ImagesEEG,001,100216,
AFNE01.JPG,AFNE01.JPG,AFNE01.JPG,AFNE01.JPG,AFNE01.JPG,AFNE01.JPG,,,,,,,,,,,,,,,,,1,2,12,0,,,,,,,AFSA17.jpg,AFNE04.jpg,AFSA03.jpg,AFNE13.jpg,AFSA17.jpg,FS,4,num_8,32,num_4,0.799829944124,,,2017_Apr_19_1554,60.0041763155,FEMA4ImagesEEG,001,100216,
AFNE01.JPG,AFNE01.JPG,AFNE01.JPG,AFNE01.JPG,AFNE01.JPG,AFNE01.JPG,,,,,,,,,,,,,,,,,1,3,13,9,,,,,,,AFSA01.jpg,AFNE15.jpg,AFNE09.jpg,AFSA17.jpg,AFSA01.jpg,FS,4,num_8,16,num_8,1.16674359058,,,2017_Apr_19_1554,60.0041763155,FEMA4ImagesEEG,001,100216,
AFNE01.JPG,AFNE01.JPG,AFNE01.JPG,AFNE01.JPG,AFNE01.JPG,AFNE01.JPG,,,,,,,,,,,,,,,,,1,4,14,4,,,,,,,AFSA09.jpg,AFNE01.jpg,AFSA11.jpg,AFNE18.jpg,AFSA11.jpg,FS,4,num_2,32,num_6,0.866777492716,,,2017_Apr_19_1554,60.0041763155,FEMA4ImagesEEG,001,100216,
AFNE01.JPG,AFNE01.JPG,AFNE01.JPG,AFNE01.JPG,AFNE01.JPG,AFNE01.JPG,,,,,,,,,,,,,,,,,1,5,15,5,,,,,,,AFNE20.jpg,AFSA16.jpg,AFNE06.jpg,AFSA12.jpg,AFNE20.jpg,FN,3,num_8,32,num_2,1.76669150256,,,2017_Apr_19_1554,60.0041763155,FEMA4ImagesEEG,001,100216,
AFNE01.JPG,AFNE01.JPG,AFNE01.JPG,AFNE01.JPG,AFNE01.JPG,AFNE01.JPG,,,,,,,,,,,,,,,,,1,6,16,7,,,,,,,AFSA19.jpg,AFSA18.jpg,AFNE09.jpg,AFNE19.jpg,AFNE19.jpg,FN,3,num_4,32,num_8,0.950103582698,,,2017_Apr_19_1554,60.0041763155,FEMA4ImagesEEG,001,100216,
AFNE01.JPG,AFNE01.JPG,AFNE01.JPG,AFNE01.JPG,AFNE01.JPG,AFNE01.JPG,,,,,,,,,,,,,,,,,1,7,17,8,,,,,,,AFNE15.jpg,AFSA07.jpg,AFNE11.jpg,AFSA09.jpg,AFNE15.jpg,FN,3,num_8,16,num_8,1.63338143352,,,2017_Apr_19_1554,60.0041763155,FEMA4ImagesEEG,001,100216,
AFNE01.JPG,AFNE01.JPG,AFNE01.JPG,AFNE01.JPG,AFNE01.JPG,AFNE01.JPG,,,,,,,,,,,,,,,,,1,8,18,1,,,,,,,AFNE05.jpg,AFSA12.jpg,AFNE15.jpg,AFSA17.jpg,AFSA12.jpg,FS,4,num_6,16,num_6,0.466740800155,,,2017_Apr_19_1554,60.0041763155,FEMA4ImagesEEG,001,100216,
AFNE01.JPG,AFNE01.JPG,AFNE01.JPG,AFNE01.JPG,AFNE01.JPG,AFNE01.JPG,,,,,,,,,,,,,,,,,1,9,19,2,,,,,,,AFSA12.jpg,AFNE04.jpg,AFSA01.jpg,AFNE03.jpg,AFSA01.jpg,FS,4,num_2,16,num_2,1.13347428746,,,2017_Apr_19_1554,60.0041763155,FEMA4ImagesEEG,001,100216,
AFNE01.JPG,AFNE01.JPG,AFNE01.JPG,AFNE01.JPG,AFNE01.JPG,AFNE01.JPG,,,,,,,,,,,,,,,,,2,0,20,4,,,,,,,AFNE08.jpg,AFSA02.jpg,AFNE11.jpg,AFSA20.jpg,AFNE11.jpg,FN,3,num_2,16,num_2,0.75012051771,,,2017_Apr_19_1554,60.0041763155,FEMA4ImagesEEG,001,100216,
AFNE01.JPG,AFNE01.JPG,AFNE01.JPG,AFNE01.JPG,AFNE01.JPG,AFNE01.JPG,,,,,,,,,,,,,,,,,2,1,21,5,,,,,,,AFSA16.jpg,AFNE07.jpg,AFSA11.jpg,AFNE18.jpg,AFSA16.jpg,FS,4,num_8,16,num_8,1.08348004473,,,2017_Apr_19_1554,60.0041763155,FEMA4ImagesEEG,001,100216,
AFNE01.JPG,AFNE01.JPG,AFNE01.JPG,AFNE01.JPG,AFNE01.JPG,AFNE01.JPG,,,,,,,,,,,,,,,,,2,2,22,6,,,,,,,AFSA08.jpg,AFNE01.jpg,AFSA06.jpg,AFNE11.jpg,AFNE11.jpg,FN,3,num_4,32,num_6,0.766769762908,,,2017_Apr_19_1554,60.0041763155,FEMA4ImagesEEG,001,100216,
AFNE01.JPG,AFNE01.JPG,AFNE01.JPG,AFNE01.JPG,AFNE01.JPG,AFNE01.JPG,,,,,,,,,,,,,,,,,2,3,23,1,,,,,,,AFNE16.jpg,AFSA18.jpg,AFNE10.jpg,AFSA02.jpg,AFSA18.jpg,FS,4,num_6,32,num_8,0.933424188028,,,2017_Apr_19_1554,60.0041763155,FEMA4ImagesEEG,001,100216,
AFNE01.JPG,AFNE01.JPG,AFNE01.JPG,AFNE01.JPG,AFNE01.JPG,AFNE01.JPG,,,,,,,,,,,,,,,,,2,4,24,0,,,,,,,AFNE14.jpg,AFNE05.jpg,AFSA02.jpg,AFSA05.jpg,AFNE05.jpg,FN,3,num_6,16,num_6,0.666786409245,,,2017_Apr_19_1554,60.0041763155,FEMA4ImagesEEG,001,100216,
AFNE01.JPG,AFNE01.JPG,AFNE01.JPG,AFNE01.JPG,AFNE01.JPG,AFNE01.JPG,,,,,,,,,,,,,,,,,2,5,25,7,,,,,,,AFSA19.jpg,AFNE01.jpg,AFSA08.jpg,AFNE13.jpg,AFSA19.jpg,FS,4,num_8,32,num_2,1.31673209209,,,2017_Apr_19_1554,60.0041763155,FEMA4ImagesEEG,001,100216,
AFNE01.JPG,AFNE01.JPG,AFNE01.JPG,AFNE01.JPG,AFNE01.JPG,AFNE01.JPG,,,,,,,,,,,,,,,,,2,6,26,2,,,,,,,AFSA16.jpg,AFNE16.jpg,AFSA02.jpg,AFNE19.jpg,AFSA02.jpg,FS,4,num_2,32,num_8,0.833685237565,,,2017_Apr_19_1554,60.0041763155,FEMA4ImagesEEG,001,100216,
AFNE01.JPG,AFNE01.JPG,AFNE01.JPG,AFNE01.JPG,AFNE01.JPG,AFNE01.JPG,,,,,,,,,,,,,,,,,2,7,27,9,,,,,,,AFSA14.jpg,AFSA03.jpg,AFNE05.jpg,AFNE16.jpg,AFNE16.jpg,FN,3,num_4,16,num_4,0.850211960438,,,2017_Apr_19_1554,60.0041763155,FEMA4ImagesEEG,001,100216,
AFNE01.JPG,AFNE01.JPG,AFNE01.JPG,AFNE01.JPG,AFNE01.JPG,AFNE01.JPG,,,,,,,,,,,,,,,,,2,8,28,3,,,,,,,AFSA18.jpg,AFNE09.jpg,AFSA05.jpg,AFNE02.jpg,AFSA18.jpg,FS,4,num_8,16,num_8,0.766885549703,,,2017_Apr_19_1554,60.0041763155,FEMA4ImagesEEG,001,100216,
AFNE01.JPG,AFNE01.JPG,AFNE01.JPG,AFNE01.JPG,AFNE01.JPG,AFNE01.JPG,,,,,,,,,,,,,,,,,2,9,29,8,,,,,,,AFSA14.jpg,AFNE13.jpg,AFSA13.jpg,AFNE02.jpg,AFNE02.jpg,FN,3,num_4,16,num_4,1.28338581161,,,2017_Apr_19_1554,60.0041763155,FEMA4ImagesEEG,001,100216,
AFNE01.JPG,AFNE01.JPG,AFNE01.JPG,AFNE01.JPG,AFNE01.JPG,AFNE01.JPG,,,,,,,,,,,,,,,,,3,0,30,3,,,,,,,AFSA17.jpg,AFSA16.jpg,AFNE17.jpg,AFNE18.jpg,AFSA16.jpg,FS,4,num_6,32,num_8,0.683475105354,,,2017_Apr_19_1554,60.0041763155,FEMA4ImagesEEG,001,100216,
AFNE01.JPG,AFNE01.JPG,AFNE01.JPG,AFNE01.JPG,AFNE01.JPG,AFNE01.JPG,,,,,,,,,,,,,,,,,3,1,31,5,,,,,,,AFSA17.jpg,AFNE14.jpg,AFNE07.jpg,AFSA14.jpg,AFSA14.jpg,FS,4,num_4,16,num_4,0.933334381087,,,2017_Apr_19_1554,60.0041763155,FEMA4ImagesEEG,001,100216,
AFNE01.JPG,AFNE01.JPG,AFNE01.JPG,AFNE01.JPG,AFNE01.JPG,AFNE01.JPG,,,,,,,,,,,,,,,,,3,2,32,7,,,,,,,AFNE05.jpg,AFSA02.jpg,AFSA16.jpg,AFNE06.jpg,AFNE06.jpg,FN,3,num_4,32,num_8,0.950095884938,,,2017_Apr_19_1554,60.0041763155,FEMA4ImagesEEG,001,100216,
AFNE01.JPG,AFNE01.JPG,AFNE01.JPG,AFNE01.JPG,AFNE01.JPG,AFNE01.JPG,,,,,,,,,,,,,,,,,3,3,33,1,,,,,,,AFNE05.jpg,AFNE09.jpg,AFSA09.jpg,AFSA10.jpg,AFNE05.jpg,FN,3,num_8,32,num_6,0.983480012685,,,2017_Apr_19_1554,60.0041763155,FEMA4ImagesEEG,001,100216,
AFNE01.JPG,AFNE01.JPG,AFNE01.JPG,AFNE01.JPG,AFNE01.JPG,AFNE01.JPG,,,,,,,,,,,,,,,,,3,4,34,9,,,,,,,AFNE02.jpg,AFSA07.jpg,AFSA18.jpg,AFNE19.jpg,AFSA07.jpg,FS,4,num_6,32,num_2,1.31642738997,,,2017_Apr_19_1554,60.0041763155,FEMA4ImagesEEG,001,100216,
AFNE01.JPG,AFNE01.JPG,AFNE01.JPG,AFNE01.JPG,AFNE01.JPG,AFNE01.JPG,,,,,,,,,,,,,,,,,3,5,35,0,,,,,,,AFSA12.jpg,AFNE13.jpg,AFNE11.jpg,AFSA19.jpg,AFNE13.jpg,FN,3,num_6,16,num_6,0.983541594556,,,2017_Apr_19_1554,60.0041763155,FEMA4ImagesEEG,001,100216,
AFNE01.JPG,AFNE01.JPG,AFNE01.JPG,AFNE01.JPG,AFNE01.JPG,AFNE01.JPG,,,,,,,,,,,,,,,,,3,6,36,8,,,,,,,AFSA01.jpg,AFNE08.jpg,AFNE14.jpg,AFSA11.jpg,AFNE14.jpg,FN,3,num_2,32,num_6,1.03341844681,,,2017_Apr_19_1554,60.0041763155,FEMA4ImagesEEG,001,100216,
AFNE01.JPG,AFNE01.JPG,AFNE01.JPG,AFNE01.JPG,AFNE01.JPG,AFNE01.JPG,,,,,,,,,,,,,,,,,3,7,37,4,,,,,,,AFNE08.jpg,AFNE10.jpg,AFSA04.jpg,AFSA06.jpg,AFNE10.jpg,FN,3,num_6,32,num_4,1.20049496458,,,2017_Apr_19_1554,60.0041763155,FEMA4ImagesEEG,001,100216,
AFNE01.JPG,AFNE01.JPG,AFNE01.JPG,AFNE01.JPG,AFNE01.JPG,AFNE01.JPG,,,,,,,,,,,,,,,,,3,8,38,6,,,,,,,AFNE16.jpg,AFNE01.jpg,AFSA01.jpg,AFSA11.jpg,AFNE16.jpg,FN,3,num_8,16,num_8,1.13344830761,,,2017_Apr_19_1554,60.0041763155,FEMA4ImagesEEG,001,100216,
AFNE01.JPG,AFNE01.JPG,AFNE01.JPG,AFNE01.JPG,AFNE01.JPG,AFNE01.JPG,,,,,,,,,,,,,,,,,3,9,39,2,,,,,,,AFSA17.jpg,AFSA16.jpg,AFNE20.jpg,AFNE04.jpg,AFNE20.jpg,FN,3,num_2,32,num_8,0.883470358414,,,2017_Apr_19_1554,60.0041763155,FEMA4ImagesEEG,001,100216,
AFNE01.JPG,AFNE01.JPG,AFNE01.JPG,AFNE01.JPG,AFNE01.JPG,AFNE01.JPG,,,,,,,,,,,,,,,,,4,0,40,7,,,,,,,AFNE13.jpg,AFSA09.jpg,AFNE15.jpg,AFSA05.jpg,AFNE15.jpg,FN,3,num_2,16,num_2,1.36674750363,,,2017_Apr_19_1554,60.0041763155,FEMA4ImagesEEG,001,100216,
AFNE01.JPG,AFNE01.JPG,AFNE01.JPG,AFNE01.JPG,AFNE01.JPG,AFNE01.JPG,,,,,,,,,,,,,,,,,4,1,41,4,,,,,,,AFSA01.jpg,AFSA05.jpg,AFNE14.jpg,AFNE11.jpg,AFNE14.jpg,FN,3,num_2,16,num_2,1.13346274087,,,2017_Apr_19_1554,60.0041763155,FEMA4ImagesEEG,001,100216,
AFNE01.JPG,AFNE01.JPG,AFNE01.JPG,AFNE01.JPG,AFNE01.JPG,AFNE01.JPG,,,,,,,,,,,,,,,,,4,2,42,3,,,,,,,AFSA08.jpg,AFSA02.jpg,AFNE02.jpg,AFNE04.jpg,AFNE02.jpg,FN,3,num_2,32,num_8,0.866746060288,,,2017_Apr_19_1554,60.0041763155,FEMA4ImagesEEG,001,100216,
AFNE01.JPG,AFNE01.JPG,AFNE01.JPG,AFNE01.JPG,AFNE01.JPG,AFNE01.JPG,,,,,,,,,,,,,,,,,4,3,43,0,,,,,,,AFSA10.jpg,AFSA12.jpg,AFNE11.jpg,AFNE02.jpg,AFNE02.jpg,FN,3,num_4,16,num_4,0.800113477482,,,2017_Apr_19_1554,60.0041763155,FEMA4ImagesEEG,001,100216,
AFNE01.JPG,AFNE01.JPG,AFNE01.JPG,AFNE01.JPG,AFNE01.JPG,AFNE01.JPG,,,,,,,,,,,,,,,,,4,4,44,1,,,,,,,AFSA15.jpg,AFSA04.jpg,AFNE05.jpg,AFNE14.jpg,AFSA15.jpg,FS,4,num_8,16,num_8,0.91660912073,,,2017_Apr_19_1554,60.0041763155,FEMA4ImagesEEG,001,100216,
AFNE01.JPG,AFNE01.JPG,AFNE01.JPG,AFNE01.JPG,AFNE01.JPG,AFNE01.JPG,,,,,,,,,,,,,,,,,4,5,45,6,,,,,,,AFNE03.jpg,AFNE02.jpg,AFSA12.jpg,AFSA14.jpg,AFSA12.jpg,FS,4,num_2,16,num_2,0.883160845202,,,2017_Apr_19_1554,60.0041763155,FEMA4ImagesEEG,001,100216,
AFNE01.JPG,AFNE01.JPG,AFNE01.JPG,AFNE01.JPG,AFNE01.JPG,AFNE01.JPG,,,,,,,,,,,,,,,,,4,6,46,5,,,,,,,AFSA11.jpg,AFNE14.jpg,AFSA07.jpg,AFNE18.jpg,AFSA07.jpg,FS,4,num_2,32,num_4,1.0832507163,,,2017_Apr_19_1554,60.0041763155,FEMA4ImagesEEG,001,100216,
AFNE01.JPG,AFNE01.JPG,AFNE01.JPG,AFNE01.JPG,AFNE01.JPG,AFNE01.JPG,,,,,,,,,,,,,,,,,4,7,47,8,,,,,,,AFNE18.jpg,AFNE15.jpg,AFSA12.jpg,AFSA20.jpg,AFSA12.jpg,FS,4,num_2,16,num_2,0.833552772325,,,2017_Apr_19_1554,60.0041763155,FEMA4ImagesEEG,001,100216,
AFNE01.JPG,AFNE01.JPG,AFNE01.JPG,AFNE01.JPG,AFNE01.JPG,AFNE01.JPG,,,,,,,,,,,,,,,,,4,8,48,2,,,,,,,AFSA03.jpg,AFNE09.jpg,AFNE11.jpg,AFSA06.jpg,AFSA06.jpg,FS,4,num_4,16,num_4,0.950092036102,,,2017_Apr_19_1554,60.0041763155,FEMA4ImagesEEG,001,100216,
AFNE01.JPG,AFNE01.JPG,AFNE01.JPG,AFNE01.JPG,AFNE01.JPG,AFNE01.JPG,,,,,,,,,,,,,,,,,4,9,49,9,,,,,,,AFNE10.jpg,AFSA01.jpg,AFNE12.jpg,AFSA08.jpg,AFSA01.jpg,FS,4,num_6,16,num_6,0.800163192063,,,2017_Apr_19_1554,60.0041763155,FEMA4ImagesEEG,001,100216,
AFNE01.JPG,AFNE01.JPG,AFNE01.JPG,AFNE01.JPG,AFNE01.JPG,AFNE01.JPG,,,,,,,,,,,,,,,,,5,0,50,1,,,,,,,AFNE16.jpg,AFSA04.jpg,AFSA13.jpg,AFNE17.jpg,AFNE17.jpg,FN,3,num_4,16,num_4,0.900229937834,,,2017_Apr_19_1554,60.0041763155,FEMA4ImagesEEG,001,100216,
AFNE01.JPG,AFNE01.JPG,AFNE01.JPG,AFNE01.JPG,AFNE01.JPG,AFNE01.JPG,,,,,,,,,,,,,,,,,5,1,51,9,,,,,,,AFSA15.jpg,AFNE15.jpg,AFNE20.jpg,AFSA08.jpg,AFNE20.jpg,FN,3,num_2,32,num_8,0.683335263107,,,2017_Apr_19_1554,60.0041763155,FEMA4ImagesEEG,001,100216,
AFNE01.JPG,AFNE01.JPG,AFNE01.JPG,AFNE01.JPG,AFNE01.JPG,AFNE01.JPG,,,,,,,,,,,,,,,,,5,2,52,6,,,,,,,AFNE03.jpg,AFSA18.jpg,AFSA05.jpg,AFNE19.jpg,AFSA18.jpg,FS,4,num_6,16,num_6,1.06677338725,,,2017_Apr_19_1554,60.0041763155,FEMA4ImagesEEG,001,100216,
AFNE01.JPG,AFNE01.JPG,AFNE01.JPG,AFNE01.JPG,AFNE01.JPG,AFNE01.JPG,,,,,,,,,,,,,,,,,5,3,53,3,,,,,,,AFNE07.jpg,AFNE19.jpg,AFSA09.jpg,AFSA20.jpg,AFNE19.jpg,FN,3,num_6,32,num_8,1.03344378519,,,2017_Apr_19_1554,60.0041763155,FEMA4ImagesEEG,001,100216,
AFNE01.JPG,AFNE01.JPG,AFNE01.JPG,AFNE01.JPG,AFNE01.JPG,AFNE01.JPG,,,,,,,,,,,,,,,,,5,4,54,4,,,,,,,AFSA03.jpg,AFNE12.jpg,AFSA04.jpg,AFNE11.jpg,AFNE12.jpg,FN,3,num_6,16,num_6,0.733473196946,,,2017_Apr_19_1554,60.0041763155,FEMA4ImagesEEG,001,100216,
AFNE01.JPG,AFNE01.JPG,AFNE01.JPG,AFNE01.JPG,AFNE01.JPG,AFNE01.JPG,,,,,,,,,,,,,,,,,5,5,55,0,,,,,,,AFNE08.jpg,AFSA19.jpg,AFSA10.jpg,AFNE09.jpg,AFSA19.jpg,FS,4,num_6,32,num_4,1.15009434539,,,2017_Apr_19_1554,60.0041763155,FEMA4ImagesEEG,001,100216,
AFNE01.JPG,AFNE01.JPG,AFNE01.JPG,AFNE01.JPG,AFNE01.JPG,AFNE01.JPG,,,,,,,,,,,,,,,,,5,6,56,5,,,,,,,AFNE18.jpg,AFNE02.jpg,AFSA02.jpg,AFSA16.jpg,AFNE02.jpg,FN,3,num_6,32,num_2,0.583495600556,,,2017_Apr_19_1554,60.0041763155,FEMA4ImagesEEG,001,100216,
AFNE01.JPG,AFNE01.JPG,AFNE01.JPG,AFNE01.JPG,AFNE01.JPG,AFNE01.JPG,,,,,,,,,,,,,,,,,5,7,57,2,,,,,,,AFNE18.jpg,AFNE17.jpg,AFSA13.jpg,AFSA18.jpg,AFNE18.jpg,FN,3,num_8,16,num_8,0.800212906615,,,2017_Apr_19_1554,60.0041763155,FEMA4ImagesEEG,001,100216,
AFNE01.JPG,AFNE01.JPG,AFNE01.JPG,AFNE01.JPG,AFNE01.JPG,AFNE01.JPG,,,,,,,,,,,,,,,,,5,8,58,7,,,,,,,AFSA01.jpg,AFNE03.jpg,AFNE06.jpg,AFSA16.jpg,AFNE06.jpg,FN,3,num_2,16,num_2,1.25009213231,,,2017_Apr_19_1554,60.0041763155,FEMA4ImagesEEG,001,100216,
AFNE01.JPG,AFNE01.JPG,AFNE01.JPG,AFNE01.JPG,AFNE01.JPG,AFNE01.JPG,,,,,,,,,,,,,,,,,5,9,59,8,,,,,,,AFSA20.jpg,AFSA02.jpg,AFNE19.jpg,AFNE17.jpg,AFSA20.jpg,FS,4,num_8,16,num_8,0.583454545995,,,2017_Apr_19_1554,60.0041763155,FEMA4ImagesEEG,001,100216,
,,,,,,,,,,,,,,,,,,,,,,,,,,,,,,,,,,,,,,,,,,,space,27.5482223197,2017_Apr_19_1554,60.0041763155,FEMA4ImagesEEG,001,100216,
AFNE01.JPG,AFNE01.JPG,AFNE01.JPG,AFNE01.JPG,AFNE01.JPG,AFNE01.JPG,,,,,,,,,,,,,,,,,,,,,0,0,0,7,,,AMSA14.jpg,AMNE17.jpg,AMSA11.jpg,AMNE20.jpg,AMSA14.jpg,MS,2,num_8,16,num_8,1.05009142667,,,2017_Apr_19_1554,60.0041763155,FEMA4ImagesEEG,001,100216,
AFNE01.JPG,AFNE01.JPG,AFNE01.JPG,AFNE01.JPG,AFNE01.JPG,AFNE01.JPG,,,,,,,,,,,,,,,,,,,,,0,1,1,0,,,AMSA10.jpg,AMNE12.jpg,AMSA17.jpg,AMNE18.jpg,AMSA10.jpg,MS,2,num_8,16,num_8,0.666764599009,,,2017_Apr_19_1554,60.0041763155,FEMA4ImagesEEG,001,100216,
AFNE01.JPG,AFNE01.JPG,AFNE01.JPG,AFNE01.JPG,AFNE01.JPG,AFNE01.JPG,,,,,,,,,,,,,,,,,,,,,0,2,2,8,,,AMSA12.jpg,AMNE16.jpg,AMSA10.jpg,AMNE13.jpg,AMSA10.jpg,MS,2,num_2,16,num_2,0.966766940401,,,2017_Apr_19_1554,60.0041763155,FEMA4ImagesEEG,001,100216,
AFNE01.JPG,AFNE01.JPG,AFNE01.JPG,AFNE01.JPG,AFNE01.JPG,AFNE01.JPG,,,,,,,,,,,,,,,,,,,,,0,3,3,1,,,AMSA12.jpg,AMSA01.jpg,AMNE16.jpg,AMNE14.jpg,AMNE14.jpg,MN,1,num_4,16,num_4,0.600141959119,,,2017_Apr_19_1554,60.0041763155,FEMA4ImagesEEG,001,100216,
AFNE01.JPG,AFNE01.JPG,AFNE01.JPG,AFNE01.JPG,AFNE01.JPG,AFNE01.JPG,,,,,,,,,,,,,,,,,,,,,0,4,4,5,,,AMNE19.jpg,AMNE17.jpg,AMSA11.jpg,AMSA04.jpg,AMSA04.jpg,MS,2,num_4,16,num_4,0.54993731156,,,2017_Apr_19_1554,60.0041763155,FEMA4ImagesEEG,001,100216,
AFNE01.JPG,AFNE01.JPG,AFNE01.JPG,AFNE01.JPG,AFNE01.JPG,AFNE01.JPG,,,,,,,,,,,,,,,,,,,,,0,5,5,2,,,AMSA18.jpg,AMNE06.jpg,AMNE17.jpg,AMSA06.jpg,AMNE06.jpg,MN,1,num_6,16,num_6,0.816824625304,,,2017_Apr_19_1554,60.0041763155,FEMA4ImagesEEG,001,100216,
AFNE01.JPG,AFNE01.JPG,AFNE01.JPG,AFNE01.JPG,AFNE01.JPG,AFNE01.JPG,,,,,,,,,,,,,,,,,,,,,0,6,6,4,,,AMNE10.jpg,AMNE13.jpg,AMSA08.jpg,AMSA10.jpg,AMSA08.jpg,MS,2,num_2,32,num_4,0.866772681649,,,2017_Apr_19_1554,60.0041763155,FEMA4ImagesEEG,001,100216,
AFNE01.JPG,AFNE01.JPG,AFNE01.JPG,AFNE01.JPG,AFNE01.JPG,AFNE01.JPG,,,,,,,,,,,,,,,,,,,,,0,7,7,9,,,AMSA15.jpg,AMSA13.jpg,AMNE07.jpg,AMNE10.jpg,AMSA15.jpg,MS,2,num_8,32,num_6,0.700117294298,,,2017_Apr_19_1554,60.0041763155,FEMA4ImagesEEG,001,100216,
AFNE01.JPG,AFNE01.JPG,AFNE01.JPG,AFNE01.JPG,AFNE01.JPG,AFNE01.JPG,,,,,,,,,,,,,,,,,,,,,0,8,8,6,,,AMNE19.jpg,AMSA11.jpg,AMNE03.jpg,AMSA13.jpg,AMNE19.jpg,MN,1,num_8,32,num_2,1.18348296345,,,2017_Apr_19_1554,60.0041763155,FEMA4ImagesEEG,001,100216,
AFNE01.JPG,AFNE01.JPG,AFNE01.JPG,AFNE01.JPG,AFNE01.JPG,AFNE01.JPG,,,,,,,,,,,,,,,,,,,,,0,9,9,3,,,AMSA05.jpg,AMNE09.jpg,AMSA17.jpg,AMNE11.jpg,AMNE09.jpg,MN,1,num_6,16,num_6,1.01670184641,,,2017_Apr_19_1554,60.0041763155,FEMA4ImagesEEG,001,100216,
AFNE01.JPG,AFNE01.JPG,AFNE01.JPG,AFNE01.JPG,AFNE01.JPG,AFNE01.JPG,,,,,,,,,,,,,,,,,,,,,1,0,10,6,,,AMNE20.jpg,AMSA05.jpg,AMSA14.jpg,AMNE03.jpg,AMNE03.jpg,MN,1,num_4,32,num_8,0.950281913625,,,2017_Apr_19_1554,60.0041763155,FEMA4ImagesEEG,001,100216,
AFNE01.JPG,AFNE01.JPG,AFNE01.JPG,AFNE01.JPG,AFNE01.JPG,AFNE01.JPG,,,,,,,,,,,,,,,,,,,,,1,1,11,5,,,AMSA08.jpg,AMNE03.jpg,AMSA15.jpg,AMNE01.jpg,AMSA08.jpg,MS,2,num_8,16,num_8,1.10008887679,,,2017_Apr_19_1554,60.0041763155,FEMA4ImagesEEG,001,100216,
AFNE01.JPG,AFNE01.JPG,AFNE01.JPG,AFNE01.JPG,AFNE01.JPG,AFNE01.JPG,,,,,,,,,,,,,,,,,,,,,1,2,12,3,,,AMSA20.jpg,AMSA17.jpg,AMNE06.jpg,AMNE15.jpg,AMNE15.jpg,MN,1,num_4,16,num_4,0.866755361698,,,2017_Apr_19_1554,60.0041763155,FEMA4ImagesEEG,001,100216,
AFNE01.JPG,AFNE01.JPG,AFNE01.JPG,AFNE01.JPG,AFNE01.JPG,AFNE01.JPG,,,,,,,,,,,,,,,,,,,,,1,3,13,9,,,AMNE15.jpg,AMSA11.jpg,AMNE14.jpg,AMSA02.jpg,AMNE15.jpg,MN,1,num_8,16,num_8,0.883451114059,,,2017_Apr_19_1554,60.0041763155,FEMA4ImagesEEG,001,100216,
AFNE01.JPG,AFNE01.JPG,AFNE01.JPG,AFNE01.JPG,AFNE01.JPG,AFNE01.JPG,,,,,,,,,,,,,,,,,,,,,1,4,14,4,,,AMSA12.jpg,AMNE20.jpg,AMSA04.jpg,AMNE14.jpg,AMSA12.jpg,MS,2,num_8,32,num_2,1.16672819512,,,2017_Apr_19_1554,60.0041763155,FEMA4ImagesEEG,001,100216,
AFNE01.JPG,AFNE01.JPG,AFNE01.JPG,AFNE01.JPG,AFNE01.JPG,AFNE01.JPG,,,,,,,,,,,,,,,,,,,,,1,5,15,0,,,AMSA08.jpg,AMNE13.jpg,AMNE06.jpg,AMSA12.jpg,AMNE13.jpg,MN,1,num_6,16,num_6,0.883446623746,,,2017_Apr_19_1554,60.0041763155,FEMA4ImagesEEG,001,100216,
AFNE01.JPG,AFNE01.JPG,AFNE01.JPG,AFNE01.JPG,AFNE01.JPG,AFNE01.JPG,,,,,,,,,,,,,,,,,,,,,1,6,16,8,,,AMNE14.jpg,AMNE07.jpg,AMSA05.jpg,AMSA03.jpg,AMSA05.jpg,MS,2,num_2,16,num_2,1.03347553837,,,2017_Apr_19_1554,60.0041763155,FEMA4ImagesEEG,001,100216,
AFNE01.JPG,AFNE01.JPG,AFNE01.JPG,AFNE01.JPG,AFNE01.JPG,AFNE01.JPG,,,,,,,,,,,,,,,,,,,,,1,7,17,7,,,AMNE13.jpg,AMNE06.jpg,AMSA11.jpg,AMSA09.jpg,AMSA11.jpg,MS,2,num_2,32,num_4,0.800113156729,,,2017_Apr_19_1554,60.0041763155,FEMA4ImagesEEG,001,100216,
AFNE01.JPG,AFNE01.JPG,AFNE01.JPG,AFNE01.JPG,AFNE01.JPG,AFNE01.JPG,,,,,,,,,,,,,,,,,,,,,1,8,18,2,,,AMNE10.jpg,AMNE05.jpg,AMSA07.jpg,AMSA09.jpg,AMSA07.jpg,MS,2,num_2,16,num_2,0.800186605979,,,2017_Apr_19_1554,60.0041763155,FEMA4ImagesEEG,001,100216,
AFNE01.JPG,AFNE01.JPG,AFNE01.JPG,AFNE01.JPG,AFNE01.JPG,AFNE01.JPG,,,,,,,,,,,,,,,,,,,,,1,9,19,1,,,AMNE10.jpg,AMNE13.jpg,AMSA02.jpg,AMSA08.jpg,AMNE13.jpg,MN,1,num_6,16,num_6,0.716786104575,,,2017_Apr_19_1554,60.0041763155,FEMA4ImagesEEG,001,100216,
AFNE01.JPG,AFNE01.JPG,AFNE01.JPG,AFNE01.JPG,AFNE01.JPG,AFNE01.JPG,,,,,,,,,,,,,,,,,,,,,2,0,20,7,,,AMSA08.jpg,AMNE04.jpg,AMSA12.jpg,AMNE06.jpg,AMNE06.jpg,MN,1,num_4,32,num_8,0.916736774874,,,2017_Apr_19_1554,60.0041763155,FEMA4ImagesEEG,001,100216,
AFNE01.JPG,AFNE01.JPG,AFNE01.JPG,AFNE01.JPG,AFNE01.JPG,AFNE01.JPG,,,,,,,,,,,,,,,,,,,,,2,1,21,3,,,AMNE20.jpg,AMNE19.jpg,AMSA20.jpg,AMSA16.jpg,AMSA16.jpg,MS,2,num_4,32,num_8,1.06675093551,,,2017_Apr_19_1554,60.0041763155,FEMA4ImagesEEG,001,100216,
AFNE01.JPG,AFNE01.JPG,AFNE01.JPG,AFNE01.JPG,AFNE01.JPG,AFNE01.JPG,,,,,,,,,,,,,,,,,,,,,2,2,22,1,,,AMSA11.jpg,AMNE16.jpg,AMSA10.jpg,AMNE11.jpg,AMSA10.jpg,MS,2,num_2,32,num_4,0.833469059406,,,2017_Apr_19_1554,60.0041763155,FEMA4ImagesEEG,001,100216,
AFNE01.JPG,AFNE01.JPG,AFNE01.JPG,AFNE01.JPG,AFNE01.JPG,AFNE01.JPG,,,,,,,,,,,,,,,,,,,,,2,3,23,5,,,AMNE08.jpg,AMSA11.jpg,AMNE05.jpg,AMSA01.jpg,AMSA01.jpg,MS,2,num_4,32,num_8,0.583469941455,,,2017_Apr_19_1554,60.0041763155,FEMA4ImagesEEG,001,100216,
AFNE01.JPG,AFNE01.JPG,AFNE01.JPG,AFNE01.JPG,AFNE01.JPG,AFNE01.JPG,,,,,,,,,,,,,,,,,,,,,2,4,24,4,,,AMNE20.jpg,AMSA09.jpg,AMSA17.jpg,AMNE10.jpg,AMNE10.jpg,MN,1,num_4,16,num_4,0.999935210682,,,2017_Apr_19_1554,60.0041763155,FEMA4ImagesEEG,001,100216,
AFNE01.JPG,AFNE01.JPG,AFNE01.JPG,AFNE01.JPG,AFNE01.JPG,AFNE01.JPG,,,,,,,,,,,,,,,,,,,,,2,5,25,6,,,AMSA17.jpg,AMNE12.jpg,AMSA11.jpg,AMNE09.jpg,AMSA11.jpg,MS,2,num_2,32,num_8,0.950101337512,,,2017_Apr_19_1554,60.0041763155,FEMA4ImagesEEG,001,100216,
AFNE01.JPG,AFNE01.JPG,AFNE01.JPG,AFNE01.JPG,AFNE01.JPG,AFNE01.JPG,,,,,,,,,,,,,,,,,,,,,2,6,26,0,,,AMSA12.jpg,AMNE15.jpg,AMNE12.jpg,AMSA18.jpg,AMNE12.jpg,MN,1,num_2,32,num_6,0.833464889816,,,2017_Apr_19_1554,60.0041763155,FEMA4ImagesEEG,001,100216,
AFNE01.JPG,AFNE01.JPG,AFNE01.JPG,AFNE01.JPG,AFNE01.JPG,AFNE01.JPG,,,,,,,,,,,,,,,,,,,,,2,7,27,2,,,AMSA11.jpg,AMNE02.jpg,AMNE08.jpg,AMSA17.jpg,AMSA11.jpg,MS,2,num_8,32,num_4,0.733463574783,,,2017_Apr_19_1554,60.0041763155,FEMA4ImagesEEG,001,100216,
AFNE01.JPG,AFNE01.JPG,AFNE01.JPG,AFNE01.JPG,AFNE01.JPG,AFNE01.JPG,,,,,,,,,,,,,,,,,,,,,2,8,28,9,,,AMSA17.jpg,AMNE13.jpg,AMNE20.jpg,AMSA12.jpg,AMNE13.jpg,MN,1,num_6,32,num_2,1.23342268055,,,2017_Apr_19_1554,60.0041763155,FEMA4ImagesEEG,001,100216,
AFNE01.JPG,AFNE01.JPG,AFNE01.JPG,AFNE01.JPG,AFNE01.JPG,AFNE01.JPG,,,,,,,,,,,,,,,,,,,,,2,9,29,8,,,AMNE02.jpg,AMNE16.jpg,AMSA01.jpg,AMSA10.jpg,AMSA01.jpg,MS,2,num_2,16,num_2,0.900094585959,,,2017_Apr_19_1554,60.0041763155,FEMA4ImagesEEG,001,100216,
AFNE01.JPG,AFNE01.JPG,AFNE01.JPG,AFNE01.JPG,AFNE01.JPG,AFNE01.JPG,,,,,,,,,,,,,,,,,,,,,3,0,30,0,,,AMSA05.jpg,AMSA07.jpg,AMNE17.jpg,AMNE14.jpg,AMSA05.jpg,MS,2,num_8,16,num_8,2.66662892635,,,2017_Apr_19_1554,60.0041763155,FEMA4ImagesEEG,001,100216,
AFNE01.JPG,AFNE01.JPG,AFNE01.JPG,AFNE01.JPG,AFNE01.JPG,AFNE01.JPG,,,,,,,,,,,,,,,,,,,,,3,1,31,9,,,AMNE14.jpg,AMNE10.jpg,AMSA03.jpg,AMSA10.jpg,AMSA03.jpg,MS,2,num_2,16,num_2,1.35013386045,,,2017_Apr_19_1554,60.0041763155,FEMA4ImagesEEG,001,100216,
AFNE01.JPG,AFNE01.JPG,AFNE01.JPG,AFNE01.JPG,AFNE01.JPG,AFNE01.JPG,,,,,,,,,,,,,,,,,,,,,3,2,32,1,,,AMNE18.jpg,AMNE08.jpg,AMSA18.jpg,AMSA08.jpg,AMSA18.jpg,MS,2,num_2,16,num_2,0.766796063515,,,2017_Apr_19_1554,60.0041763155,FEMA4ImagesEEG,001,100216,
AFNE01.JPG,AFNE01.JPG,AFNE01.JPG,AFNE01.JPG,AFNE01.JPG,AFNE01.JPG,,,,,,,,,,,,,,,,,,,,,3,3,33,8,,,AMSA06.jpg,AMNE19.jpg,AMSA04.jpg,AMNE16.jpg,AMNE19.jpg,MN,1,num_6,16,num_6,0.716760124691,,,2017_Apr_19_1554,60.0041763155,FEMA4ImagesEEG,001,100216,
AFNE01.JPG,AFNE01.JPG,AFNE01.JPG,AFNE01.JPG,AFNE01.JPG,AFNE01.JPG,,,,,,,,,,,,,,,,,,,,,3,4,34,7,,,AMNE13.jpg,AMSA19.jpg,AMNE11.jpg,AMSA10.jpg,AMNE13.jpg,MN,1,num_8,32,num_4,0.95026010336,,,2017_Apr_19_1554,60.0041763155,FEMA4ImagesEEG,001,100216,
AFNE01.JPG,AFNE01.JPG,AFNE01.JPG,AFNE01.JPG,AFNE01.JPG,AFNE01.JPG,,,,,,,,,,,,,,,,,,,,,3,5,35,3,,,AMSA19.jpg,AMNE17.jpg,AMSA05.jpg,AMNE10.jpg,AMNE10.jpg,MN,1,num_4,16,num_4,0.883355213096,,,2017_Apr_19_1554,60.0041763155,FEMA4ImagesEEG,001,100216,
AFNE01.JPG,AFNE01.JPG,AFNE01.JPG,AFNE01.JPG,AFNE01.JPG,AFNE01.JPG,,,,,,,,,,,,,,,,,,,,,3,6,36,2,,,AMNE09.jpg,AMSA02.jpg,AMSA06.jpg,AMNE16.jpg,AMSA02.jpg,MS,2,num_6,16,num_6,0.600102508237,,,2017_Apr_19_1554,60.0041763155,FEMA4ImagesEEG,001,100216,
AFNE01.JPG,AFNE01.JPG,AFNE01.JPG,AFNE01.JPG,AFNE01.JPG,AFNE01.JPG,,,,,,,,,,,,,,,,,,,,,3,7,37,4,,,AMNE19.jpg,AMSA05.jpg,AMSA14.jpg,AMNE13.jpg,AMSA14.jpg,MS,2,num_2,16,num_2,0.600136185822,,,2017_Apr_19_1554,60.0041763155,FEMA4ImagesEEG,001,100216,
AFNE01.JPG,AFNE01.JPG,AFNE01.JPG,AFNE01.JPG,AFNE01.JPG,AFNE01.JPG,,,,,,,,,,,,,,,,,,,,,3,8,38,5,,,AMNE17.jpg,AMNE19.jpg,AMSA06.jpg,AMSA12.jpg,AMSA12.jpg,MS,2,num_4,16,num_4,1.00011514532,,,2017_Apr_19_1554,60.0041763155,FEMA4ImagesEEG,001,100216,
