IPosition2,IPosition3,IPosition1,IPosition6,IPosition4,IPosition5,TrialsF1.thisRepN,TrialsF1.thisTrialN,TrialsF1.thisN,TrialsF1.thisIndex,TrialsM1.thisRepN,TrialsM1.thisTrialN,TrialsM1.thisN,TrialsM1.thisIndex,TrialsF2.thisRepN,TrialsF2.thisTrialN,TrialsF2.thisN,TrialsF2.thisIndex,TrialsM2.thisRepN,TrialsM2.thisTrialN,TrialsM2.thisN,TrialsM2.thisIndex,TrialsF3.thisRepN,TrialsF3.thisTrialN,TrialsF3.thisN,TrialsF3.thisIndex,TrialsM3.thisRepN,TrialsM3.thisTrialN,TrialsM3.thisN,TrialsM3.thisIndex,InstrKey_resp.keys,InstrKey_resp.rt,Image0 _Position,Image1 _Position,Image2 _Position,Image3 _Position,Center_image,condition,code,correct_answer,accuracy,Key_Resp.keys,Key_Resp.rt,BreakKey_resp.keys,BreakKey_resp.rt,date,frameRate,expName,session,participant,
,,,,,,,,,,,,,,,,,,,,,,,,,,,,,,space,22.0987571682,,,,,,,,,,,,,,2017_Apr_26_1059,59.9969018035,FEMA4ImagesEEG,001,100280,
AMSA25.JPG,AMNE24.JPG,AMSA24.JPG,AMNE26.JPG,AMSA21.JPG,AMNE25.JPG,0,0,0,3,,,,,,,,,,,,,,,,,,,,,,,AFNE18.jpg,AFSA08.jpg,AFSA02.jpg,AFNE01.jpg,AFNE18.jpg,FN,3,num_8,32,num_4,3.78328076948,,,2017_Apr_26_1059,59.9969018035,FEMA4ImagesEEG,001,100280,
AFNE22.JPG,AFSA24.JPG,AFSA22.JPG,AFNE25.JPG,AFNE24.JPG,AFSA25.JPG,0,1,1,6,,,,,,,,,,,,,,,,,,,,,,,AFNE12.jpg,AFSA02.jpg,AFSA06.jpg,AFNE07.jpg,AFNE07.jpg,FN,3,num_4,32,num_2,1.95004777401,,,2017_Apr_26_1059,59.9969018035,FEMA4ImagesEEG,001,100280,
AMNE22.JPG,AMSA24.JPG,AMSA22.JPG,AMNE25.JPG,AMNE24.JPG,AMSA25.JPG,0,2,2,7,,,,,,,,,,,,,,,,,,,,,,,AFSA20.jpg,AFNE16.jpg,AFNE15.jpg,AFSA02.jpg,AFNE16.jpg,FN,3,num_6,16,num_6,2.43329893937,,,2017_Apr_26_1059,59.9969018035,FEMA4ImagesEEG,001,100280,
AFNE23.JPG,AFNE24.JPG,AFNE22.JPG,AFSA24.JPG,AFSA22.JPG,AFSA23.JPG,0,3,3,8,,,,,,,,,,,,,,,,,,,,,,,AFNE05.jpg,AFNE12.jpg,AFSA07.jpg,AFSA08.jpg,AFSA07.jpg,FS,4,num_2,32,num_6,1.01671724184,,,2017_Apr_26_1059,59.9969018035,FEMA4ImagesEEG,001,100280,
AFSA21.JPG,AFNE22.JPG,AFNE21.JPG,AFSA23.JPG,AFSA22.JPG,AFNE23.JPG,0,4,4,0,,,,,,,,,,,,,,,,,,,,,,,AFNE16.jpg,AFSA19.jpg,AFNE08.jpg,AFSA08.jpg,AFSA08.jpg,FS,4,num_4,32,num_8,2.25002862595,,,2017_Apr_26_1059,59.9969018035,FEMA4ImagesEEG,001,100280,
AMSA21.JPG,AMNE23.JPG,AMNE21.JPG,AMSA25.JPG,AMNE25.JPG,AMSA23.JPG,0,5,5,5,,,,,,,,,,,,,,,,,,,,,,,AFSA05.jpg,AFSA03.jpg,AFNE01.jpg,AFNE09.jpg,AFSA05.jpg,FS,4,num_8,16,num_8,1.31671733817,,,2017_Apr_26_1059,59.9969018035,FEMA4ImagesEEG,001,100280,
AFSA25.JPG,AFNE24.JPG,AFSA24.JPG,AFNE21.JPG,AFSA21.JPG,AFNE25.JPG,0,6,6,2,,,,,,,,,,,,,,,,,,,,,,,AFNE14.jpg,AFNE01.jpg,AFSA16.jpg,AFSA10.jpg,AFSA10.jpg,FS,4,num_4,32,num_6,1.38368894218,,,2017_Apr_26_1059,59.9969018035,FEMA4ImagesEEG,001,100280,
AMNE23.JPG,AMNE24.JPG,AMNE22.JPG,AMSA24.JPG,AMSA22.JPG,AMSA23.JPG,0,7,7,9,,,,,,,,,,,,,,,,,,,,,,,AFSA09.jpg,AFNE03.jpg,AFSA13.jpg,AFNE02.jpg,AFNE02.jpg,FN,3,num_4,32,num_2,0.816832002369,,,2017_Apr_26_1059,59.9969018035,FEMA4ImagesEEG,001,100280,
AMSA21.JPG,AMNE22.JPG,AMNE21.JPG,AMSA23.JPG,AMSA22.JPG,AMNE23.JPG,0,8,8,1,,,,,,,,,,,,,,,,,,,,,,,AFNE04.jpg,AFSA10.jpg,AFSA20.jpg,AFNE08.jpg,AFSA10.jpg,FS,4,num_6,16,num_6,1.9334209807,,,2017_Apr_26_1059,59.9969018035,FEMA4ImagesEEG,001,100280,
AFSA21.JPG,AFNE23.JPG,AFNE21.JPG,AFSA25.JPG,AFNE25.JPG,AFSA23.JPG,0,9,9,4,,,,,,,,,,,,,,,,,,,,,,,AFNE02.jpg,AFSA17.jpg,AFNE03.jpg,AFSA08.jpg,AFNE02.jpg,FN,3,num_8,32,num_2,1.0167631075,,,2017_Apr_26_1059,59.9969018035,FEMA4ImagesEEG,001,100280,
AMNE22.JPG,AMSA24.JPG,AMSA22.JPG,AMNE25.JPG,AMNE24.JPG,AMSA25.JPG,,,,,0,0,0,7,,,,,,,,,,,,,,,,,,,AMNE04.jpg,AMSA20.jpg,AMNE03.jpg,AMSA02.jpg,AMNE03.jpg,MN,1,num_2,32,num_6,1.45010181866,,,2017_Apr_26_1059,59.9969018035,FEMA4ImagesEEG,001,100280,
AFSA21.JPG,AFNE22.JPG,AFNE21.JPG,AFSA23.JPG,AFSA22.JPG,AFNE23.JPG,,,,,0,1,1,0,,,,,,,,,,,,,,,,,,,AMSA08.jpg,AMSA05.jpg,AMNE13.jpg,AMNE10.jpg,AMSA05.jpg,MS,2,num_6,32,num_2,1.58341926476,,,2017_Apr_26_1059,59.9969018035,FEMA4ImagesEEG,001,100280,
AFSA25.JPG,AFNE24.JPG,AFSA24.JPG,AFNE21.JPG,AFSA21.JPG,AFNE25.JPG,,,,,0,2,2,2,,,,,,,,,,,,,,,,,,,AMSA19.jpg,AMNE02.jpg,AMSA18.jpg,AMNE20.jpg,AMSA19.jpg,MS,2,num_8,16,num_8,1.68337375182,,,2017_Apr_26_1059,59.9969018035,FEMA4ImagesEEG,001,100280,
AMSA25.JPG,AMNE24.JPG,AMSA24.JPG,AMNE26.JPG,AMSA21.JPG,AMNE25.JPG,,,,,0,3,3,3,,,,,,,,,,,,,,,,,,,AMNE19.jpg,AMNE17.jpg,AMSA08.jpg,AMSA02.jpg,AMSA02.jpg,MS,2,num_4,32,num_6,1.15012673999,,,2017_Apr_26_1059,59.9969018035,FEMA4ImagesEEG,001,100280,
AFNE23.JPG,AFNE24.JPG,AFNE22.JPG,AFSA24.JPG,AFSA22.JPG,AFSA23.JPG,,,,,0,4,4,8,,,,,,,,,,,,,,,,,,,AMSA01.jpg,AMNE08.jpg,AMSA13.jpg,AMNE06.jpg,AMNE08.jpg,MN,1,num_6,32,num_4,2.44998025859,,,2017_Apr_26_1059,59.9969018035,FEMA4ImagesEEG,001,100280,
AFNE22.JPG,AFSA24.JPG,AFSA22.JPG,AFNE25.JPG,AFNE24.JPG,AFSA25.JPG,,,,,0,5,5,6,,,,,,,,,,,,,,,,,,,AMSA13.jpg,AMSA17.jpg,AMNE03.jpg,AMNE05.jpg,AMNE05.jpg,MN,1,num_4,16,num_4,1.53334804461,,,2017_Apr_26_1059,59.9969018035,FEMA4ImagesEEG,001,100280,
AFSA21.JPG,AFNE23.JPG,AFNE21.JPG,AFSA25.JPG,AFNE25.JPG,AFSA23.JPG,,,,,0,6,6,4,,,,,,,,,,,,,,,,,,,AMNE04.jpg,AMSA06.jpg,AMNE12.jpg,AMSA02.jpg,AMSA02.jpg,MS,2,num_4,32,num_8,1.6833516208,,,2017_Apr_26_1059,59.9969018035,FEMA4ImagesEEG,001,100280,
AMNE23.JPG,AMNE24.JPG,AMNE22.JPG,AMSA24.JPG,AMSA22.JPG,AMSA23.JPG,,,,,0,7,7,9,,,,,,,,,,,,,,,,,,,AMNE02.jpg,AMNE13.jpg,AMSA15.jpg,AMSA01.jpg,AMNE13.jpg,MN,1,num_6,16,num_6,0.900132112438,,,2017_Apr_26_1059,59.9969018035,FEMA4ImagesEEG,001,100280,
AMSA21.JPG,AMNE23.JPG,AMNE21.JPG,AMSA25.JPG,AMNE25.JPG,AMSA23.JPG,,,,,0,8,8,5,,,,,,,,,,,,,,,,,,,AMNE12.jpg,AMSA01.jpg,AMNE08.jpg,AMSA15.jpg,AMNE12.jpg,MN,1,num_8,16,num_8,1.48350679444,,,2017_Apr_26_1059,59.9969018035,FEMA4ImagesEEG,001,100280,
AMSA21.JPG,AMNE22.JPG,AMNE21.JPG,AMSA23.JPG,AMSA22.JPG,AMNE23.JPG,,,,,0,9,9,1,,,,,,,,,,,,,,,,,,,AMNE04.jpg,AMSA12.jpg,AMSA04.jpg,AMNE15.jpg,AMSA12.jpg,MS,2,num_6,32,num_2,2.10006129323,,,2017_Apr_26_1059,59.9969018035,FEMA4ImagesEEG,001,100280,
AFSA21.JPG,AFNE22.JPG,AFNE21.JPG,AFSA23.JPG,AFSA22.JPG,AFNE23.JPG,,,,,,,,,0,0,0,0,,,,,,,,,,,,,,,AFSA06.jpg,AFSA11.jpg,AFNE10.jpg,AFNE08.jpg,AFNE08.jpg,FN,3,num_4,32,num_8,1.00009397662,,,2017_Apr_26_1059,59.9969018035,FEMA4ImagesEEG,001,100280,
AMSA25.JPG,AMNE24.JPG,AMSA24.JPG,AMNE26.JPG,AMSA21.JPG,AMNE25.JPG,,,,,,,,,0,1,1,3,,,,,,,,,,,,,,,AFNE15.jpg,AFSA06.jpg,AFSA17.jpg,AFNE20.jpg,AFNE20.jpg,FN,3,num_4,32,num_8,2.5333089144,,,2017_Apr_26_1059,59.9969018035,FEMA4ImagesEEG,001,100280,
AMNE22.JPG,AMSA24.JPG,AMSA22.JPG,AMNE25.JPG,AMNE24.JPG,AMSA25.JPG,,,,,,,,,0,2,2,7,,,,,,,,,,,,,,,AFNE19.jpg,AFSA04.jpg,AFNE01.jpg,AFSA01.jpg,AFSA01.jpg,FS,4,num_4,16,num_4,0.900120886625,,,2017_Apr_26_1059,59.9969018035,FEMA4ImagesEEG,001,100280,
AFSA21.JPG,AFNE23.JPG,AFNE21.JPG,AFSA25.JPG,AFNE25.JPG,AFSA23.JPG,,,,,,,,,0,3,3,4,,,,,,,,,,,,,,,AFNE05.jpg,AFNE15.jpg,AFSA01.jpg,AFSA20.jpg,AFNE15.jpg,FN,3,num_6,16,num_6,0.800117326435,,,2017_Apr_26_1059,59.9969018035,FEMA4ImagesEEG,001,100280,
AMSA21.JPG,AMNE22.JPG,AMNE21.JPG,AMSA23.JPG,AMSA22.JPG,AMNE23.JPG,,,,,,,,,0,4,4,1,,,,,,,,,,,,,,,AFNE15.jpg,AFSA11.jpg,AFSA15.jpg,AFNE07.jpg,AFNE15.jpg,FN,3,num_8,16,num_8,1.20010045555,,,2017_Apr_26_1059,59.9969018035,FEMA4ImagesEEG,001,100280,
AFSA25.JPG,AFNE24.JPG,AFSA24.JPG,AFNE21.JPG,AFSA21.JPG,AFNE25.JPG,,,,,,,,,0,5,5,2,,,,,,,,,,,,,,,AFNE09.jpg,AFNE02.jpg,AFSA08.jpg,AFSA20.jpg,AFNE02.jpg,FN,3,num_6,32,num_8,1.53350969707,,,2017_Apr_26_1059,59.9969018035,FEMA4ImagesEEG,001,100280,
AFNE22.JPG,AFSA24.JPG,AFSA22.JPG,AFNE25.JPG,AFNE24.JPG,AFSA25.JPG,,,,,,,,,0,6,6,6,,,,,,,,,,,,,,,AFSA07.jpg,AFSA14.jpg,AFNE19.jpg,AFNE06.jpg,AFNE19.jpg,FN,3,num_2,16,num_2,0.833418703405,,,2017_Apr_26_1059,59.9969018035,FEMA4ImagesEEG,001,100280,
AMNE23.JPG,AMNE24.JPG,AMNE22.JPG,AMSA24.JPG,AMSA22.JPG,AMSA23.JPG,,,,,,,,,0,7,7,9,,,,,,,,,,,,,,,AFNE13.jpg,AFSA04.jpg,AFNE06.jpg,AFSA01.jpg,AFNE06.jpg,FN,3,num_2,32,num_6,1.53335189342,,,2017_Apr_26_1059,59.9969018035,FEMA4ImagesEEG,001,100280,
AMSA21.JPG,AMNE23.JPG,AMNE21.JPG,AMSA25.JPG,AMNE25.JPG,AMSA23.JPG,,,,,,,,,0,8,8,5,,,,,,,,,,,,,,,AFSA17.jpg,AFNE18.jpg,AFNE14.jpg,AFSA19.jpg,AFSA17.jpg,FS,4,num_8,16,num_8,1.46654675296,,,2017_Apr_26_1059,59.9969018035,FEMA4ImagesEEG,001,100280,
AFNE23.JPG,AFNE24.JPG,AFNE22.JPG,AFSA24.JPG,AFSA22.JPG,AFSA23.JPG,,,,,,,,,0,9,9,8,,,,,,,,,,,,,,,AFSA16.jpg,AFNE18.jpg,AFNE08.jpg,AFSA11.jpg,AFSA11.jpg,FS,4,num_4,32,num_6,1.03352685669,,,2017_Apr_26_1059,59.9969018035,FEMA4ImagesEEG,001,100280,
AMNE23.JPG,AMNE24.JPG,AMNE22.JPG,AMSA24.JPG,AMSA22.JPG,AMSA23.JPG,,,,,,,,,,,,,0,0,0,9,,,,,,,,,,,AMNE18.jpg,AMNE04.jpg,AMSA13.jpg,AMSA12.jpg,AMSA13.jpg,MS,2,num_2,16,num_2,1.71654907835,,,2017_Apr_26_1059,59.9969018035,FEMA4ImagesEEG,001,100280,
AFSA21.JPG,AFNE23.JPG,AFNE21.JPG,AFSA25.JPG,AFNE25.JPG,AFSA23.JPG,,,,,,,,,,,,,0,1,1,4,,,,,,,,,,,AMSA17.jpg,AMNE08.jpg,AMNE11.jpg,AMSA05.jpg,AMSA05.jpg,MS,2,num_4,32,num_2,2.51659904944,,,2017_Apr_26_1059,59.9969018035,FEMA4ImagesEEG,001,100280,
AMSA21.JPG,AMNE23.JPG,AMNE21.JPG,AMSA25.JPG,AMNE25.JPG,AMSA23.JPG,,,,,,,,,,,,,0,2,2,5,,,,,,,,,,,AMNE10.jpg,AMNE20.jpg,AMSA13.jpg,AMSA08.jpg,AMNE20.jpg,MN,1,num_6,16,num_6,2.16668489529,,,2017_Apr_26_1059,59.9969018035,FEMA4ImagesEEG,001,100280,
AMSA21.JPG,AMNE22.JPG,AMNE21.JPG,AMSA23.JPG,AMSA22.JPG,AMNE23.JPG,,,,,,,,,,,,,0,3,3,1,,,,,,,,,,,AMSA06.jpg,AMNE15.jpg,AMNE02.jpg,AMSA13.jpg,AMNE15.jpg,MN,1,num_6,16,num_6,0.933410396217,,,2017_Apr_26_1059,59.9969018035,FEMA4ImagesEEG,001,100280,
AFNE22.JPG,AFSA24.JPG,AFSA22.JPG,AFNE25.JPG,AFNE24.JPG,AFSA25.JPG,,,,,,,,,,,,,0,4,4,6,,,,,,,,,,,AMSA02.jpg,AMSA17.jpg,AMNE02.jpg,AMNE17.jpg,AMSA02.jpg,MS,2,num_8,16,num_8,1.00008692022,,,2017_Apr_26_1059,59.9969018035,FEMA4ImagesEEG,001,100280,
AFNE23.JPG,AFNE24.JPG,AFNE22.JPG,AFSA24.JPG,AFSA22.JPG,AFSA23.JPG,,,,,,,,,,,,,0,5,5,8,,,,,,,,,,,AMSA17.jpg,AMNE08.jpg,AMSA20.jpg,AMNE06.jpg,AMNE06.jpg,MN,1,num_4,32,num_2,0.966623249231,,,2017_Apr_26_1059,59.9969018035,FEMA4ImagesEEG,001,100280,
AMNE22.JPG,AMSA24.JPG,AMSA22.JPG,AMNE25.JPG,AMNE24.JPG,AMSA25.JPG,,,,,,,,,,,,,0,6,6,7,,,,,,,,,,,AMSA03.jpg,AMNE09.jpg,AMSA16.jpg,AMNE04.jpg,AMSA16.jpg,MS,2,num_2,32,num_8,1.16674166615,,,2017_Apr_26_1059,59.9969018035,FEMA4ImagesEEG,001,100280,
AFSA25.JPG,AFNE24.JPG,AFSA24.JPG,AFNE21.JPG,AFSA21.JPG,AFNE25.JPG,,,,,,,,,,,,,0,7,7,2,,,,,,,,,,,AMSA17.jpg,AMSA03.jpg,AMNE08.jpg,AMNE09.jpg,AMNE09.jpg,MN,1,num_4,32,num_2,1.26678211137,,,2017_Apr_26_1059,59.9969018035,FEMA4ImagesEEG,001,100280,
AFSA21.JPG,AFNE22.JPG,AFNE21.JPG,AFSA23.JPG,AFSA22.JPG,AFNE23.JPG,,,,,,,,,,,,,0,8,8,0,,,,,,,,,,,AMNE14.jpg,AMSA10.jpg,AMSA17.jpg,AMNE19.jpg,AMSA10.jpg,MS,2,num_6,32,num_4,1.25006134133,,,2017_Apr_26_1059,59.9969018035,FEMA4ImagesEEG,001,100280,
AMSA25.JPG,AMNE24.JPG,AMSA24.JPG,AMNE26.JPG,AMSA21.JPG,AMNE25.JPG,,,,,,,,,,,,,0,9,9,3,,,,,,,,,,,AMSA12.jpg,AMNE17.jpg,AMSA11.jpg,AMNE19.jpg,AMNE17.jpg,MN,1,num_6,32,num_2,0.900113830226,,,2017_Apr_26_1059,59.9969018035,FEMA4ImagesEEG,001,100280,
AMSA21.JPG,AMNE23.JPG,AMNE21.JPG,AMSA25.JPG,AMNE25.JPG,AMSA23.JPG,,,,,,,,,,,,,,,,,0,0,0,5,,,,,,,AFSA13.jpg,AFSA09.jpg,AFNE02.jpg,AFNE16.jpg,AFNE02.jpg,FN,3,num_2,32,num_4,1.61673924467,,,2017_Apr_26_1059,59.9969018035,FEMA4ImagesEEG,001,100280,
AFSA25.JPG,AFNE24.JPG,AFSA24.JPG,AFNE21.JPG,AFSA21.JPG,AFNE25.JPG,,,,,,,,,,,,,,,,,0,1,1,2,,,,,,,AFSA08.jpg,AFSA14.jpg,AFNE08.jpg,AFNE02.jpg,AFSA08.jpg,FS,4,num_8,32,num_4,1.33340314752,,,2017_Apr_26_1059,59.9969018035,FEMA4ImagesEEG,001,100280,
AMSA25.JPG,AMNE24.JPG,AMSA24.JPG,AMNE26.JPG,AMSA21.JPG,AMNE25.JPG,,,,,,,,,,,,,,,,,0,2,2,3,,,,,,,AFSA16.jpg,AFSA04.jpg,AFNE06.jpg,AFNE12.jpg,AFNE12.jpg,FN,3,num_4,32,num_6,1.81671044219,,,2017_Apr_26_1059,59.9969018035,FEMA4ImagesEEG,001,100280,
AFSA21.JPG,AFNE22.JPG,AFNE21.JPG,AFSA23.JPG,AFSA22.JPG,AFNE23.JPG,,,,,,,,,,,,,,,,,0,3,3,0,,,,,,,AFNE05.jpg,AFSA03.jpg,AFNE14.jpg,AFSA04.jpg,AFSA04.jpg,FS,4,num_4,32,num_2,0.833472266793,,,2017_Apr_26_1059,59.9969018035,FEMA4ImagesEEG,001,100280,
AFNE22.JPG,AFSA24.JPG,AFSA22.JPG,AFNE25.JPG,AFNE24.JPG,AFSA25.JPG,,,,,,,,,,,,,,,,,0,4,4,6,,,,,,,AFNE10.jpg,AFSA09.jpg,AFNE15.jpg,AFSA19.jpg,AFSA09.jpg,FS,4,num_6,32,num_2,1.05016006483,,,2017_Apr_26_1059,59.9969018035,FEMA4ImagesEEG,001,100280,
AMNE22.JPG,AMSA24.JPG,AMSA22.JPG,AMNE25.JPG,AMNE24.JPG,AMSA25.JPG,,,,,,,,,,,,,,,,,0,5,5,7,,,,,,,AFNE20.jpg,AFSA01.jpg,AFSA06.jpg,AFNE06.jpg,AFSA01.jpg,FS,4,num_6,16,num_6,1.62766490085,,,2017_Apr_26_1059,59.9969018035,FEMA4ImagesEEG,001,100280,
AMSA21.JPG,AMNE22.JPG,AMNE21.JPG,AMSA23.JPG,AMSA22.JPG,AMNE23.JPG,,,,,,,,,,,,,,,,,0,6,6,1,,,,,,,AFSA10.jpg,AFSA01.jpg,AFNE06.jpg,AFNE02.jpg,AFSA10.jpg,FS,4,num_8,16,num_8,2.38335986377,,,2017_Apr_26_1059,59.9969018035,FEMA4ImagesEEG,001,100280,
AFNE23.JPG,AFNE24.JPG,AFNE22.JPG,AFSA24.JPG,AFSA22.JPG,AFSA23.JPG,,,,,,,,,,,,,,,,,0,7,7,8,,,,,,,AFSA20.jpg,AFSA17.jpg,AFNE17.jpg,AFNE16.jpg,AFNE16.jpg,FN,3,num_4,32,num_2,1.26657683833,,,2017_Apr_26_1059,59.9969018035,FEMA4ImagesEEG,001,100280,
AMNE23.JPG,AMNE24.JPG,AMNE22.JPG,AMSA24.JPG,AMSA22.JPG,AMSA23.JPG,,,,,,,,,,,,,,,,,0,8,8,9,,,,,,,AFNE14.jpg,AFSA14.jpg,AFNE13.jpg,AFSA18.jpg,AFNE14.jpg,FN,3,num_8,16,num_8,1.60009577265,,,2017_Apr_26_1059,59.9969018035,FEMA4ImagesEEG,001,100280,
AFSA21.JPG,AFNE23.JPG,AFNE21.JPG,AFSA25.JPG,AFNE25.JPG,AFSA23.JPG,,,,,,,,,,,,,,,,,0,9,9,4,,,,,,,AFNE19.jpg,AFNE07.jpg,AFSA07.jpg,AFSA16.jpg,AFNE19.jpg,FN,3,num_8,16,num_8,2.33353946172,,,2017_Apr_26_1059,59.9969018035,FEMA4ImagesEEG,001,100280,
AMNE23.JPG,AMNE24.JPG,AMNE22.JPG,AMSA24.JPG,AMSA22.JPG,AMSA23.JPG,,,,,,,,,,,,,,,,,,,,,0,0,0,9,,,AMSA19.jpg,AMSA09.jpg,AMNE07.jpg,AMNE20.jpg,AMNE20.jpg,MN,1,num_4,32,num_2,1.23339637986,,,2017_Apr_26_1059,59.9969018035,FEMA4ImagesEEG,001,100280,
AMSA21.JPG,AMNE23.JPG,AMNE21.JPG,AMSA25.JPG,AMNE25.JPG,AMSA23.JPG,,,,,,,,,,,,,,,,,,,,,0,1,1,5,,,AMSA02.jpg,AMSA14.jpg,AMNE12.jpg,AMNE01.jpg,AMNE01.jpg,MN,1,num_4,32,num_8,1.54996778176,,,2017_Apr_26_1059,59.9969018035,FEMA4ImagesEEG,001,100280,
AMSA25.JPG,AMNE24.JPG,AMSA24.JPG,AMNE26.JPG,AMSA21.JPG,AMNE25.JPG,,,,,,,,,,,,,,,,,,,,,0,2,2,3,,,AMNE02.jpg,AMSA19.jpg,AMSA20.jpg,AMNE08.jpg,AMNE08.jpg,MN,1,num_4,32,num_2,1.63338015054,,,2017_Apr_26_1059,59.9969018035,FEMA4ImagesEEG,001,100280,
AFNE22.JPG,AFSA24.JPG,AFSA22.JPG,AFNE25.JPG,AFNE24.JPG,AFSA25.JPG,,,,,,,,,,,,,,,,,,,,,0,3,3,6,,,AMSA14.jpg,AMNE18.jpg,AMSA08.jpg,AMNE09.jpg,AMSA14.jpg,MS,2,num_8,16,num_8,1.55008100264,,,2017_Apr_26_1059,59.9969018035,FEMA4ImagesEEG,001,100280,
AFSA25.JPG,AFNE24.JPG,AFSA24.JPG,AFNE21.JPG,AFSA21.JPG,AFNE25.JPG,,,,,,,,,,,,,,,,,,,,,0,4,4,2,,,AMSA17.jpg,AMSA10.jpg,AMNE19.jpg,AMNE20.jpg,AMSA17.jpg,MS,2,num_8,16,num_8,1.44988275389,,,2017_Apr_26_1059,59.9969018035,FEMA4ImagesEEG,001,100280,
AMSA21.JPG,AMNE22.JPG,AMNE21.JPG,AMSA23.JPG,AMSA22.JPG,AMNE23.JPG,,,,,,,,,,,,,,,,,,,,,0,5,5,1,,,AMSA18.jpg,AMNE13.jpg,AMSA11.jpg,AMNE08.jpg,AMSA18.jpg,MS,2,num_8,16,num_8,1.1167727618,,,2017_Apr_26_1059,59.9969018035,FEMA4ImagesEEG,001,100280,
AMNE22.JPG,AMSA24.JPG,AMSA22.JPG,AMNE25.JPG,AMNE24.JPG,AMSA25.JPG,,,,,,,,,,,,,,,,,,,,,0,6,6,7,,,AMNE19.jpg,AMSA02.jpg,AMNE10.jpg,AMSA16.jpg,AMSA02.jpg,MS,2,num_6,32,num_2,0.850123757147,,,2017_Apr_26_1059,59.9969018035,FEMA4ImagesEEG,001,100280,
AFSA21.JPG,AFNE22.JPG,AFNE21.JPG,AFSA23.JPG,AFSA22.JPG,AFNE23.JPG,,,,,,,,,,,,,,,,,,,,,0,7,7,0,,,AMNE07.jpg,AMSA10.jpg,AMSA18.jpg,AMNE05.jpg,AMSA10.jpg,MS,2,num_6,32,num_4,1.48347151303,,,2017_Apr_26_1059,59.9969018035,FEMA4ImagesEEG,001,100280,
AFNE23.JPG,AFNE24.JPG,AFNE22.JPG,AFSA24.JPG,AFSA22.JPG,AFSA23.JPG,,,,,,,,,,,,,,,,,,,,,0,8,8,8,,,AMNE15.jpg,AMSA01.jpg,AMSA15.jpg,AMNE11.jpg,AMSA15.jpg,MS,2,num_2,16,num_2,1.61666034278,,,2017_Apr_26_1059,59.9969018035,FEMA4ImagesEEG,001,100280,
AFSA21.JPG,AFNE23.JPG,AFNE21.JPG,AFSA25.JPG,AFNE25.JPG,AFSA23.JPG,,,,,,,,,,,,,,,,,,,,,0,9,9,4,,,AMNE20.jpg,AMSA06.jpg,AMSA14.jpg,AMNE16.jpg,AMSA14.jpg,MS,2,num_2,16,num_2,0.833466493408,,,2017_Apr_26_1059,59.9969018035,FEMA4ImagesEEG,001,100280,
,,,,,,,,,,,,,,,,,,,,,,,,,,,,,,,,,,,,,,,,,,,space,9.08279334242,2017_Apr_26_1059,59.9969018035,FEMA4ImagesEEG,001,100280,
AFNE01.JPG,AFNE01.JPG,AFNE01.JPG,AFNE01.JPG,AFNE01.JPG,AFNE01.JPG,0,0,0,9,,,,,,,,,,,,,,,,,,,,,,,AFSA13.jpg,AFNE17.jpg,AFSA19.jpg,AFNE02.jpg,AFNE17.jpg,FN,3,num_6,32,num_8,1.56679022603,,,2017_Apr_26_1059,59.9969018035,FEMA4ImagesEEG,001,100280,
AFNE01.JPG,AFNE01.JPG,AFNE01.JPG,AFNE01.JPG,AFNE01.JPG,AFNE01.JPG,0,1,1,5,,,,,,,,,,,,,,,,,,,,,,,AFSA15.jpg,AFSA13.jpg,AFNE01.jpg,AFNE02.jpg,AFSA15.jpg,FS,4,num_8,32,num_6,1.68340999528,,,2017_Apr_26_1059,59.9969018035,FEMA4ImagesEEG,001,100280,
AFNE01.JPG,AFNE01.JPG,AFNE01.JPG,AFNE01.JPG,AFNE01.JPG,AFNE01.JPG,0,2,2,4,,,,,,,,,,,,,,,,,,,,,,,AFNE02.jpg,AFNE12.jpg,AFSA06.jpg,AFSA03.jpg,AFNE12.jpg,FN,3,num_6,32,num_2,2.81633132859,,,2017_Apr_26_1059,59.9969018035,FEMA4ImagesEEG,001,100280,
AFNE01.JPG,AFNE01.JPG,AFNE01.JPG,AFNE01.JPG,AFNE01.JPG,AFNE01.JPG,0,3,3,1,,,,,,,,,,,,,,,,,,,,,,,AFNE13.jpg,AFNE05.jpg,AFSA11.jpg,AFSA04.jpg,AFNE05.jpg,FN,3,num_6,32,num_8,2.15015656874,,,2017_Apr_26_1059,59.9969018035,FEMA4ImagesEEG,001,100280,
AFNE01.JPG,AFNE01.JPG,AFNE01.JPG,AFNE01.JPG,AFNE01.JPG,AFNE01.JPG,0,4,4,0,,,,,,,,,,,,,,,,,,,,,,,AFNE05.jpg,AFNE18.jpg,AFSA03.jpg,AFSA10.jpg,AFSA03.jpg,FS,4,num_2,16,num_2,0.950282234349,,,2017_Apr_26_1059,59.9969018035,FEMA4ImagesEEG,001,100280,
AFNE01.JPG,AFNE01.JPG,AFNE01.JPG,AFNE01.JPG,AFNE01.JPG,AFNE01.JPG,0,5,5,3,,,,,,,,,,,,,,,,,,,,,,,AFSA07.jpg,AFNE10.jpg,AFSA11.jpg,AFNE11.jpg,AFSA07.jpg,FS,4,num_8,32,num_6,1.28343392245,,,2017_Apr_26_1059,59.9969018035,FEMA4ImagesEEG,001,100280,
AFNE01.JPG,AFNE01.JPG,AFNE01.JPG,AFNE01.JPG,AFNE01.JPG,AFNE01.JPG,0,6,6,8,,,,,,,,,,,,,,,,,,,,,,,AFNE03.jpg,AFSA11.jpg,AFSA01.jpg,AFNE13.jpg,AFNE03.jpg,FN,3,num_8,16,num_8,1.13341559225,,,2017_Apr_26_1059,59.9969018035,FEMA4ImagesEEG,001,100280,
AFNE01.JPG,AFNE01.JPG,AFNE01.JPG,AFNE01.JPG,AFNE01.JPG,AFNE01.JPG,0,7,7,7,,,,,,,,,,,,,,,,,,,,,,,AFNE11.jpg,AFNE05.jpg,AFSA07.jpg,AFSA11.jpg,AFNE11.jpg,FN,3,num_8,32,num_4,1.41663558176,,,2017_Apr_26_1059,59.9969018035,FEMA4ImagesEEG,001,100280,
AFNE01.JPG,AFNE01.JPG,AFNE01.JPG,AFNE01.JPG,AFNE01.JPG,AFNE01.JPG,0,8,8,2,,,,,,,,,,,,,,,,,,,,,,,AFSA04.jpg,AFSA09.jpg,AFNE18.jpg,AFNE12.jpg,AFSA04.jpg,FS,4,num_8,16,num_8,1.96667713346,,,2017_Apr_26_1059,59.9969018035,FEMA4ImagesEEG,001,100280,
AFNE01.JPG,AFNE01.JPG,AFNE01.JPG,AFNE01.JPG,AFNE01.JPG,AFNE01.JPG,0,9,9,6,,,,,,,,,,,,,,,,,,,,,,,AFNE18.jpg,AFSA14.jpg,AFNE05.jpg,AFSA18.jpg,AFSA18.jpg,FS,4,num_4,32,num_2,1.58341798175,,,2017_Apr_26_1059,59.9969018035,FEMA4ImagesEEG,001,100280,
AFNE01.JPG,AFNE01.JPG,AFNE01.JPG,AFNE01.JPG,AFNE01.JPG,AFNE01.JPG,1,0,10,7,,,,,,,,,,,,,,,,,,,,,,,AFSA12.jpg,AFSA07.jpg,AFNE19.jpg,AFNE08.jpg,AFNE19.jpg,FN,3,num_2,32,num_6,1.55004668352,,,2017_Apr_26_1059,59.9969018035,FEMA4ImagesEEG,001,100280,
AFNE01.JPG,AFNE01.JPG,AFNE01.JPG,AFNE01.JPG,AFNE01.JPG,AFNE01.JPG,1,1,11,1,,,,,,,,,,,,,,,,,,,,,,,AFSA11.jpg,AFNE07.jpg,AFSA12.jpg,AFNE06.jpg,AFNE07.jpg,FN,3,num_6,32,num_8,1.28340922552,,,2017_Apr_26_1059,59.9969018035,FEMA4ImagesEEG,001,100280,
AFNE01.JPG,AFNE01.JPG,AFNE01.JPG,AFNE01.JPG,AFNE01.JPG,AFNE01.JPG,1,2,12,2,,,,,,,,,,,,,,,,,,,,,,,AFNE12.jpg,AFNE14.jpg,AFSA08.jpg,AFSA02.jpg,AFNE14.jpg,FN,3,num_6,32,num_2,2.01664924528,,,2017_Apr_26_1059,59.9969018035,FEMA4ImagesEEG,001,100280,
AFNE01.JPG,AFNE01.JPG,AFNE01.JPG,AFNE01.JPG,AFNE01.JPG,AFNE01.JPG,1,3,13,5,,,,,,,,,,,,,,,,,,,,,,,AFSA10.jpg,AFSA19.jpg,AFNE12.jpg,AFNE08.jpg,AFSA10.jpg,FS,4,num_8,32,num_4,1.78336095426,,,2017_Apr_26_1059,59.9969018035,FEMA4ImagesEEG,001,100280,
AFNE01.JPG,AFNE01.JPG,AFNE01.JPG,AFNE01.JPG,AFNE01.JPG,AFNE01.JPG,1,4,14,0,,,,,,,,,,,,,,,,,,,,,,,AFSA03.jpg,AFNE05.jpg,AFSA02.jpg,AFNE01.jpg,AFSA03.jpg,FS,4,num_8,32,num_2,1.33350385958,,,2017_Apr_26_1059,59.9969018035,FEMA4ImagesEEG,001,100280,
AFNE01.JPG,AFNE01.JPG,AFNE01.JPG,AFNE01.JPG,AFNE01.JPG,AFNE01.JPG,1,5,15,8,,,,,,,,,,,,,,,,,,,,,,,AFNE14.jpg,AFNE04.jpg,AFSA05.jpg,AFSA14.jpg,AFSA05.jpg,FS,4,num_2,32,num_8,1.25007994426,,,2017_Apr_26_1059,59.9969018035,FEMA4ImagesEEG,001,100280,
AFNE01.JPG,AFNE01.JPG,AFNE01.JPG,AFNE01.JPG,AFNE01.JPG,AFNE01.JPG,1,6,16,6,,,,,,,,,,,,,,,,,,,,,,,AFNE05.jpg,AFSA11.jpg,AFNE02.jpg,AFSA18.jpg,AFNE02.jpg,FN,3,num_2,32,num_8,1.28339799959,,,2017_Apr_26_1059,59.9969018035,FEMA4ImagesEEG,001,100280,
AFNE01.JPG,AFNE01.JPG,AFNE01.JPG,AFNE01.JPG,AFNE01.JPG,AFNE01.JPG,1,7,17,4,,,,,,,,,,,,,,,,,,,,,,,AFNE04.jpg,AFSA18.jpg,AFNE08.jpg,AFSA09.jpg,AFSA09.jpg,FS,4,num_4,32,num_6,0.916740303044,,,2017_Apr_26_1059,59.9969018035,FEMA4ImagesEEG,001,100280,
AFNE01.JPG,AFNE01.JPG,AFNE01.JPG,AFNE01.JPG,AFNE01.JPG,AFNE01.JPG,1,8,18,3,,,,,,,,,,,,,,,,,,,,,,,AFNE15.jpg,AFSA19.jpg,AFSA08.jpg,AFNE14.jpg,AFNE14.jpg,FN,3,num_4,32,num_2,1.20025184436,,,2017_Apr_26_1059,59.9969018035,FEMA4ImagesEEG,001,100280,
AFNE01.JPG,AFNE01.JPG,AFNE01.JPG,AFNE01.JPG,AFNE01.JPG,AFNE01.JPG,1,9,19,9,,,,,,,,,,,,,,,,,,,,,,,AFNE02.jpg,AFSA06.jpg,AFSA13.jpg,AFNE08.jpg,AFSA13.jpg,FS,4,num_2,32,num_6,1.08343289606,,,2017_Apr_26_1059,59.9969018035,FEMA4ImagesEEG,001,100280,
AFNE01.JPG,AFNE01.JPG,AFNE01.JPG,AFNE01.JPG,AFNE01.JPG,AFNE01.JPG,2,0,20,5,,,,,,,,,,,,,,,,,,,,,,,AFNE12.jpg,AFSA02.jpg,AFSA06.jpg,AFNE13.jpg,AFSA06.jpg,FS,4,num_2,32,num_8,1.66670750745,,,2017_Apr_26_1059,59.9969018035,FEMA4ImagesEEG,001,100280,
AFNE01.JPG,AFNE01.JPG,AFNE01.JPG,AFNE01.JPG,AFNE01.JPG,AFNE01.JPG,2,1,21,3,,,,,,,,,,,,,,,,,,,,,,,AFSA20.jpg,AFSA18.jpg,AFNE05.jpg,AFNE13.jpg,AFSA18.jpg,FS,4,num_6,16,num_6,1.01671916631,,,2017_Apr_26_1059,59.9969018035,FEMA4ImagesEEG,001,100280,
AFNE01.JPG,AFNE01.JPG,AFNE01.JPG,AFNE01.JPG,AFNE01.JPG,AFNE01.JPG,2,2,22,1,,,,,,,,,,,,,,,,,,,,,,,AFSA16.jpg,AFNE14.jpg,AFNE05.jpg,AFSA04.jpg,AFNE05.jpg,FN,3,num_2,32,num_8,1.01631246915,,,2017_Apr_26_1059,59.9969018035,FEMA4ImagesEEG,001,100280,
AFNE01.JPG,AFNE01.JPG,AFNE01.JPG,AFNE01.JPG,AFNE01.JPG,AFNE01.JPG,2,3,23,6,,,,,,,,,,,,,,,,,,,,,,,AFNE03.jpg,AFNE09.jpg,AFSA07.jpg,AFSA15.jpg,AFSA15.jpg,FS,4,num_4,32,num_2,0.716798934038,,,2017_Apr_26_1059,59.9969018035,FEMA4ImagesEEG,001,100280,
AFNE01.JPG,AFNE01.JPG,AFNE01.JPG,AFNE01.JPG,AFNE01.JPG,AFNE01.JPG,2,4,24,0,,,,,,,,,,,,,,,,,,,,,,,AFNE20.jpg,AFSA16.jpg,AFNE11.jpg,AFSA06.jpg,AFSA06.jpg,FS,4,num_4,32,num_6,1.10013442172,,,2017_Apr_26_1059,59.9969018035,FEMA4ImagesEEG,001,100280,
AFNE01.JPG,AFNE01.JPG,AFNE01.JPG,AFNE01.JPG,AFNE01.JPG,AFNE01.JPG,2,5,25,9,,,,,,,,,,,,,,,,,,,,,,,AFSA09.jpg,AFNE03.jpg,AFNE01.jpg,AFSA16.jpg,AFNE03.jpg,FN,3,num_6,32,num_2,1.56667443924,,,2017_Apr_26_1059,59.9969018035,FEMA4ImagesEEG,001,100280,
AFNE01.JPG,AFNE01.JPG,AFNE01.JPG,AFNE01.JPG,AFNE01.JPG,AFNE01.JPG,2,6,26,8,,,,,,,,,,,,,,,,,,,,,,,AFNE02.jpg,AFSA13.jpg,AFNE11.jpg,AFSA05.jpg,AFSA13.jpg,FS,4,num_6,32,num_4,1.00007537368,,,2017_Apr_26_1059,59.9969018035,FEMA4ImagesEEG,001,100280,
AFNE01.JPG,AFNE01.JPG,AFNE01.JPG,AFNE01.JPG,AFNE01.JPG,AFNE01.JPG,2,7,27,4,,,,,,,,,,,,,,,,,,,,,,,AFNE18.jpg,AFSA09.jpg,AFSA20.jpg,AFNE04.jpg,AFSA09.jpg,FS,4,num_6,32,num_2,0.850382914301,,,2017_Apr_26_1059,59.9969018035,FEMA4ImagesEEG,001,100280,
AFNE01.JPG,AFNE01.JPG,AFNE01.JPG,AFNE01.JPG,AFNE01.JPG,AFNE01.JPG,2,8,28,2,,,,,,,,,,,,,,,,,,,,,,,AFNE07.jpg,AFSA08.jpg,AFNE10.jpg,AFSA18.jpg,AFSA08.jpg,FS,4,num_6,16,num_6,1.21674937988,,,2017_Apr_26_1059,59.9969018035,FEMA4ImagesEEG,001,100280,
AFNE01.JPG,AFNE01.JPG,AFNE01.JPG,AFNE01.JPG,AFNE01.JPG,AFNE01.JPG,2,9,29,7,,,,,,,,,,,,,,,,,,,,,,,AFNE12.jpg,AFSA06.jpg,AFNE14.jpg,AFSA15.jpg,AFSA15.jpg,FS,4,num_4,32,num_8,1.28342269664,,,2017_Apr_26_1059,59.9969018035,FEMA4ImagesEEG,001,100280,
AFNE01.JPG,AFNE01.JPG,AFNE01.JPG,AFNE01.JPG,AFNE01.JPG,AFNE01.JPG,3,0,30,3,,,,,,,,,,,,,,,,,,,,,,,AFNE04.jpg,AFSA08.jpg,AFSA19.jpg,AFNE09.jpg,AFNE09.jpg,FN,3,num_4,32,num_8,1.63340805483,,,2017_Apr_26_1059,59.9969018035,FEMA4ImagesEEG,001,100280,
AFNE01.JPG,AFNE01.JPG,AFNE01.JPG,AFNE01.JPG,AFNE01.JPG,AFNE01.JPG,3,1,31,7,,,,,,,,,,,,,,,,,,,,,,,AFNE15.jpg,AFNE08.jpg,AFSA01.jpg,AFSA15.jpg,AFNE08.jpg,FN,3,num_6,32,num_8,1.01674707071,,,2017_Apr_26_1059,59.9969018035,FEMA4ImagesEEG,001,100280,
AFNE01.JPG,AFNE01.JPG,AFNE01.JPG,AFNE01.JPG,AFNE01.JPG,AFNE01.JPG,3,2,32,2,,,,,,,,,,,,,,,,,,,,,,,AFSA07.jpg,AFNE15.jpg,AFNE19.jpg,AFSA11.jpg,AFNE19.jpg,FN,3,num_2,32,num_8,1.08347170555,,,2017_Apr_26_1059,59.9969018035,FEMA4ImagesEEG,001,100280,
AFNE01.JPG,AFNE01.JPG,AFNE01.JPG,AFNE01.JPG,AFNE01.JPG,AFNE01.JPG,3,3,33,5,,,,,,,,,,,,,,,,,,,,,,,AFSA04.jpg,AFNE15.jpg,AFSA11.jpg,AFNE10.jpg,AFNE15.jpg,FN,3,num_6,32,num_4,1.1334248936,,,2017_Apr_26_1059,59.9969018035,FEMA4ImagesEEG,001,100280,
AFNE01.JPG,AFNE01.JPG,AFNE01.JPG,AFNE01.JPG,AFNE01.JPG,AFNE01.JPG,3,4,34,8,,,,,,,,,,,,,,,,,,,,,,,AFNE01.jpg,AFSA05.jpg,AFNE08.jpg,AFSA02.jpg,AFSA02.jpg,FS,4,num_4,32,num_8,1.03343223862,,,2017_Apr_26_1059,59.9969018035,FEMA4ImagesEEG,001,100280,
AFNE01.JPG,AFNE01.JPG,AFNE01.JPG,AFNE01.JPG,AFNE01.JPG,AFNE01.JPG,3,5,35,0,,,,,,,,,,,,,,,,,,,,,,,AFNE18.jpg,AFSA20.jpg,AFNE09.jpg,AFSA19.jpg,AFSA20.jpg,FS,4,num_6,32,num_8,1.40024966339,,,2017_Apr_26_1059,59.9969018035,FEMA4ImagesEEG,001,100280,
AFNE01.JPG,AFNE01.JPG,AFNE01.JPG,AFNE01.JPG,AFNE01.JPG,AFNE01.JPG,3,6,36,9,,,,,,,,,,,,,,,,,,,,,,,AFSA06.jpg,AFNE16.jpg,AFSA19.jpg,AFNE06.jpg,AFSA19.jpg,FS,4,num_2,16,num_2,0.766729029012,,,2017_Apr_26_1059,59.9969018035,FEMA4ImagesEEG,001,100280,
AFNE01.JPG,AFNE01.JPG,AFNE01.JPG,AFNE01.JPG,AFNE01.JPG,AFNE01.JPG,3,7,37,1,,,,,,,,,,,,,,,,,,,,,,,AFNE14.jpg,AFSA07.jpg,AFSA01.jpg,AFNE13.jpg,AFSA07.jpg,FS,4,num_6,16,num_6,0.883620143519,,,2017_Apr_26_1059,59.9969018035,FEMA4ImagesEEG,001,100280,
AFNE01.JPG,AFNE01.JPG,AFNE01.JPG,AFNE01.JPG,AFNE01.JPG,AFNE01.JPG,3,8,38,6,,,,,,,,,,,,,,,,,,,,,,,AFSA11.jpg,AFNE05.jpg,AFSA10.jpg,AFNE03.jpg,AFSA11.jpg,FS,4,num_8,32,num_2,1.43348625104,,,2017_Apr_26_1059,59.9969018035,FEMA4ImagesEEG,001,100280,
AFNE01.JPG,AFNE01.JPG,AFNE01.JPG,AFNE01.JPG,AFNE01.JPG,AFNE01.JPG,3,9,39,4,,,,,,,,,,,,,,,,,,,,,,,AFNE10.jpg,AFSA09.jpg,AFSA05.jpg,AFNE06.jpg,AFSA09.jpg,FS,4,num_6,32,num_2,1.46676036529,,,2017_Apr_26_1059,59.9969018035,FEMA4ImagesEEG,001,100280,
AFNE01.JPG,AFNE01.JPG,AFNE01.JPG,AFNE01.JPG,AFNE01.JPG,AFNE01.JPG,4,0,40,8,,,,,,,,,,,,,,,,,,,,,,,AFNE06.jpg,AFSA01.jpg,AFSA04.jpg,AFNE01.jpg,AFSA04.jpg,FS,4,num_2,32,num_6,1.13346466527,,,2017_Apr_26_1059,59.9969018035,FEMA4ImagesEEG,001,100280,
AFNE01.JPG,AFNE01.JPG,AFNE01.JPG,AFNE01.JPG,AFNE01.JPG,AFNE01.JPG,4,1,41,6,,,,,,,,,,,,,,,,,,,,,,,AFSA03.jpg,AFNE17.jpg,AFNE02.jpg,AFSA11.jpg,AFNE17.jpg,FN,3,num_6,32,num_2,1.55006624863,,,2017_Apr_26_1059,59.9969018035,FEMA4ImagesEEG,001,100280,
AFNE01.JPG,AFNE01.JPG,AFNE01.JPG,AFNE01.JPG,AFNE01.JPG,AFNE01.JPG,4,2,42,2,,,,,,,,,,,,,,,,,,,,,,,AFNE08.jpg,AFNE07.jpg,AFSA14.jpg,AFSA20.jpg,AFNE07.jpg,FN,3,num_6,16,num_6,1.08341397252,,,2017_Apr_26_1059,59.9969018035,FEMA4ImagesEEG,001,100280,
AFNE01.JPG,AFNE01.JPG,AFNE01.JPG,AFNE01.JPG,AFNE01.JPG,AFNE01.JPG,4,3,43,3,,,,,,,,,,,,,,,,,,,,,,,AFNE06.jpg,AFSA18.jpg,AFNE02.jpg,AFSA14.jpg,AFNE02.jpg,FN,3,num_2,32,num_8,1.01675925869,,,2017_Apr_26_1059,59.9969018035,FEMA4ImagesEEG,001,100280,
AFNE01.JPG,AFNE01.JPG,AFNE01.JPG,AFNE01.JPG,AFNE01.JPG,AFNE01.JPG,4,4,44,9,,,,,,,,,,,,,,,,,,,,,,,AFNE20.jpg,AFSA10.jpg,AFNE12.jpg,AFSA18.jpg,AFSA18.jpg,FS,4,num_4,16,num_4,1.01698409673,,,2017_Apr_26_1059,59.9969018035,FEMA4ImagesEEG,001,100280,
AFNE01.JPG,AFNE01.JPG,AFNE01.JPG,AFNE01.JPG,AFNE01.JPG,AFNE01.JPG,4,5,45,1,,,,,,,,,,,,,,,,,,,,,,,AFNE19.jpg,AFNE15.jpg,AFSA01.jpg,AFSA12.jpg,AFSA01.jpg,FS,4,num_2,32,num_6,0.950116412248,,,2017_Apr_26_1059,59.9969018035,FEMA4ImagesEEG,001,100280,
AFNE01.JPG,AFNE01.JPG,AFNE01.JPG,AFNE01.JPG,AFNE01.JPG,AFNE01.JPG,4,6,46,4,,,,,,,,,,,,,,,,,,,,,,,AFNE13.jpg,AFNE09.jpg,AFSA01.jpg,AFSA17.jpg,AFNE09.jpg,FN,3,num_6,32,num_8,1.15057256736,,,2017_Apr_26_1059,59.9969018035,FEMA4ImagesEEG,001,100280,
AFNE01.JPG,AFNE01.JPG,AFNE01.JPG,AFNE01.JPG,AFNE01.JPG,AFNE01.JPG,4,7,47,5,,,,,,,,,,,,,,,,,,,,,,,AFSA06.jpg,AFNE08.jpg,AFNE10.jpg,AFSA04.jpg,AFNE08.jpg,FN,3,num_6,32,num_2,2.51662663312,,,2017_Apr_26_1059,59.9969018035,FEMA4ImagesEEG,001,100280,
AFNE01.JPG,AFNE01.JPG,AFNE01.JPG,AFNE01.JPG,AFNE01.JPG,AFNE01.JPG,4,8,48,7,,,,,,,,,,,,,,,,,,,,,,,AFSA18.jpg,AFNE13.jpg,AFSA03.jpg,AFNE10.jpg,AFSA03.jpg,FS,4,num_2,32,num_6,2.01662903861,,,2017_Apr_26_1059,59.9969018035,FEMA4ImagesEEG,001,100280,
AFNE01.JPG,AFNE01.JPG,AFNE01.JPG,AFNE01.JPG,AFNE01.JPG,AFNE01.JPG,4,9,49,0,,,,,,,,,,,,,,,,,,,,,,,AFNE18.jpg,AFNE03.jpg,AFSA13.jpg,AFSA05.jpg,AFSA13.jpg,FS,4,num_2,16,num_2,1.1501232119,,,2017_Apr_26_1059,59.9969018035,FEMA4ImagesEEG,001,100280,
AFNE01.JPG,AFNE01.JPG,AFNE01.JPG,AFNE01.JPG,AFNE01.JPG,AFNE01.JPG,5,0,50,6,,,,,,,,,,,,,,,,,,,,,,,AFSA12.jpg,AFSA03.jpg,AFNE13.jpg,AFNE09.jpg,AFSA03.jpg,FS,4,num_6,32,num_8,0.966775600333,,,2017_Apr_26_1059,59.9969018035,FEMA4ImagesEEG,001,100280,
AFNE01.JPG,AFNE01.JPG,AFNE01.JPG,AFNE01.JPG,AFNE01.JPG,AFNE01.JPG,5,1,51,2,,,,,,,,,,,,,,,,,,,,,,,AFSA20.jpg,AFNE12.jpg,AFSA03.jpg,AFNE03.jpg,AFNE03.jpg,FN,3,num_4,32,num_6,1.48339966754,,,2017_Apr_26_1059,59.9969018035,FEMA4ImagesEEG,001,100280,
AFNE01.JPG,AFNE01.JPG,AFNE01.JPG,AFNE01.JPG,AFNE01.JPG,AFNE01.JPG,5,2,52,9,,,,,,,,,,,,,,,,,,,,,,,AFSA15.jpg,AFNE04.jpg,AFSA07.jpg,AFNE07.jpg,AFNE07.jpg,FN,3,num_4,32,num_6,1.81672327174,,,2017_Apr_26_1059,59.9969018035,FEMA4ImagesEEG,001,100280,
AFNE01.JPG,AFNE01.JPG,AFNE01.JPG,AFNE01.JPG,AFNE01.JPG,AFNE01.JPG,5,3,53,0,,,,,,,,,,,,,,,,,,,,,,,AFSA18.jpg,AFNE12.jpg,AFNE17.jpg,AFSA02.jpg,AFSA18.jpg,FS,4,num_8,16,num_8,1.50009445765,,,2017_Apr_26_1059,59.9969018035,FEMA4ImagesEEG,001,100280,
AFNE01.JPG,AFNE01.JPG,AFNE01.JPG,AFNE01.JPG,AFNE01.JPG,AFNE01.JPG,5,4,54,7,,,,,,,,,,,,,,,,,,,,,,,AFNE19.jpg,AFSA15.jpg,AFSA01.jpg,AFNE12.jpg,AFSA15.jpg,FS,4,num_6,32,num_8,1.30007194181,,,2017_Apr_26_1059,59.9969018035,FEMA4ImagesEEG,001,100280,
AFNE01.JPG,AFNE01.JPG,AFNE01.JPG,AFNE01.JPG,AFNE01.JPG,AFNE01.JPG,5,5,55,5,,,,,,,,,,,,,,,,,,,,,,,AFNE18.jpg,AFSA17.jpg,AFNE05.jpg,AFSA20.jpg,AFNE18.jpg,FN,3,num_8,16,num_8,0.883678838727,,,2017_Apr_26_1059,59.9969018035,FEMA4ImagesEEG,001,100280,
AFNE01.JPG,AFNE01.JPG,AFNE01.JPG,AFNE01.JPG,AFNE01.JPG,AFNE01.JPG,5,6,56,1,,,,,,,,,,,,,,,,,,,,,,,AFNE12.jpg,AFSA01.jpg,AFSA02.jpg,AFNE09.jpg,AFNE09.jpg,FN,3,num_4,32,num_8,2.33331430273,,,2017_Apr_26_1059,59.9969018035,FEMA4ImagesEEG,001,100280,
AFNE01.JPG,AFNE01.JPG,AFNE01.JPG,AFNE01.JPG,AFNE01.JPG,AFNE01.JPG,5,7,57,8,,,,,,,,,,,,,,,,,,,,,,,AFSA03.jpg,AFNE06.jpg,AFNE20.jpg,AFSA05.jpg,AFNE06.jpg,FN,3,num_6,16,num_6,1.31675518537,,,2017_Apr_26_1059,59.9969018035,FEMA4ImagesEEG,001,100280,
AFNE01.JPG,AFNE01.JPG,AFNE01.JPG,AFNE01.JPG,AFNE01.JPG,AFNE01.JPG,5,8,58,4,,,,,,,,,,,,,,,,,,,,,,,AFSA12.jpg,AFSA18.jpg,AFNE17.jpg,AFNE07.jpg,AFNE07.jpg,FN,3,num_4,32,num_8,1.00019180193,,,2017_Apr_26_1059,59.9969018035,FEMA4ImagesEEG,001,100280,
AFNE01.JPG,AFNE01.JPG,AFNE01.JPG,AFNE01.JPG,AFNE01.JPG,AFNE01.JPG,5,9,59,3,,,,,,,,,,,,,,,,,,,,,,,AFSA11.jpg,AFSA01.jpg,AFNE07.jpg,AFNE02.jpg,AFNE02.jpg,FN,3,num_4,32,num_6,1.56682197924,,,2017_Apr_26_1059,59.9969018035,FEMA4ImagesEEG,001,100280,
,,,,,,,,,,,,,,,,,,,,,,,,,,,,,,,,,,,,,,,,,,,space,9.09975562885,2017_Apr_26_1059,59.9969018035,FEMA4ImagesEEG,001,100280,
AFNE01.JPG,AFNE01.JPG,AFNE01.JPG,AFNE01.JPG,AFNE01.JPG,AFNE01.JPG,,,,,0,0,0,4,,,,,,,,,,,,,,,,,,,AMNE11.jpg,AMSA08.jpg,AMNE02.jpg,AMSA05.jpg,AMSA05.jpg,MS,2,num_4,32,num_8,1.4168642686,,,2017_Apr_26_1059,59.9969018035,FEMA4ImagesEEG,001,100280,
AFNE01.JPG,AFNE01.JPG,AFNE01.JPG,AFNE01.JPG,AFNE01.JPG,AFNE01.JPG,,,,,0,1,1,8,,,,,,,,,,,,,,,,,,,AMNE12.jpg,AMNE09.jpg,AMSA01.jpg,AMSA14.jpg,AMNE09.jpg,MN,1,num_6,16,num_6,1.550057268,,,2017_Apr_26_1059,59.9969018035,FEMA4ImagesEEG,001,100280,
AFNE01.JPG,AFNE01.JPG,AFNE01.JPG,AFNE01.JPG,AFNE01.JPG,AFNE01.JPG,,,,,0,2,2,7,,,,,,,,,,,,,,,,,,,AMSA20.jpg,AMSA16.jpg,AMNE20.jpg,AMNE02.jpg,AMSA16.jpg,MS,2,num_6,16,num_6,1.58339039818,,,2017_Apr_26_1059,59.9969018035,FEMA4ImagesEEG,001,100280,
AFNE01.JPG,AFNE01.JPG,AFNE01.JPG,AFNE01.JPG,AFNE01.JPG,AFNE01.JPG,,,,,0,3,3,6,,,,,,,,,,,,,,,,,,,AMNE08.jpg,AMNE20.jpg,AMSA10.jpg,AMSA19.jpg,AMNE08.jpg,MN,1,num_8,32,num_2,1.65012016497,,,2017_Apr_26_1059,59.9969018035,FEMA4ImagesEEG,001,100280,
AFNE01.JPG,AFNE01.JPG,AFNE01.JPG,AFNE01.JPG,AFNE01.JPG,AFNE01.JPG,,,,,0,4,4,5,,,,,,,,,,,,,,,,,,,AMNE06.jpg,AMSA06.jpg,AMNE16.jpg,AMSA15.jpg,AMNE16.jpg,MN,1,num_2,32,num_8,1.06703992141,,,2017_Apr_26_1059,59.9969018035,FEMA4ImagesEEG,001,100280,
AFNE01.JPG,AFNE01.JPG,AFNE01.JPG,AFNE01.JPG,AFNE01.JPG,AFNE01.JPG,,,,,0,5,5,2,,,,,,,,,,,,,,,,,,,AMNE05.jpg,AMNE19.jpg,AMSA15.jpg,AMSA07.jpg,AMNE19.jpg,MN,1,num_6,16,num_6,1.26674907515,,,2017_Apr_26_1059,59.9969018035,FEMA4ImagesEEG,001,100280,
AFNE01.JPG,AFNE01.JPG,AFNE01.JPG,AFNE01.JPG,AFNE01.JPG,AFNE01.JPG,,,,,0,6,6,9,,,,,,,,,,,,,,,,,,,AMSA08.jpg,AMNE05.jpg,AMSA18.jpg,AMNE14.jpg,AMSA08.jpg,MS,2,num_8,32,num_4,0.933441828704,,,2017_Apr_26_1059,59.9969018035,FEMA4ImagesEEG,001,100280,
AFNE01.JPG,AFNE01.JPG,AFNE01.JPG,AFNE01.JPG,AFNE01.JPG,AFNE01.JPG,,,,,0,7,7,1,,,,,,,,,,,,,,,,,,,AMSA05.jpg,AMSA04.jpg,AMNE08.jpg,AMNE15.jpg,AMNE15.jpg,MN,1,num_4,16,num_4,0.900105811772,,,2017_Apr_26_1059,59.9969018035,FEMA4ImagesEEG,001,100280,
AFNE01.JPG,AFNE01.JPG,AFNE01.JPG,AFNE01.JPG,AFNE01.JPG,AFNE01.JPG,,,,,0,8,8,0,,,,,,,,,,,,,,,,,,,AMNE09.jpg,AMNE15.jpg,AMSA06.jpg,AMSA04.jpg,AMSA06.jpg,MS,2,num_2,16,num_2,1.50006078009,,,2017_Apr_26_1059,59.9969018035,FEMA4ImagesEEG,001,100280,
AFNE01.JPG,AFNE01.JPG,AFNE01.JPG,AFNE01.JPG,AFNE01.JPG,AFNE01.JPG,,,,,0,9,9,3,,,,,,,,,,,,,,,,,,,AMSA11.jpg,AMNE03.jpg,AMSA01.jpg,AMNE02.jpg,AMSA01.jpg,MS,2,num_2,16,num_2,1.28337586869,,,2017_Apr_26_1059,59.9969018035,FEMA4ImagesEEG,001,100280,
AFNE01.JPG,AFNE01.JPG,AFNE01.JPG,AFNE01.JPG,AFNE01.JPG,AFNE01.JPG,,,,,1,0,10,5,,,,,,,,,,,,,,,,,,,AMNE16.jpg,AMSA14.jpg,AMSA05.jpg,AMNE11.jpg,AMSA14.jpg,MS,2,num_6,32,num_8,1.16678047564,,,2017_Apr_26_1059,59.9969018035,FEMA4ImagesEEG,001,100280,
AFNE01.JPG,AFNE01.JPG,AFNE01.JPG,AFNE01.JPG,AFNE01.JPG,AFNE01.JPG,,,,,1,1,11,3,,,,,,,,,,,,,,,,,,,AMSA08.jpg,AMNE08.jpg,AMSA09.jpg,AMNE19.jpg,AMSA09.jpg,MS,2,num_2,32,num_8,1.56666385487,,,2017_Apr_26_1059,59.9969018035,FEMA4ImagesEEG,001,100280,
AFNE01.JPG,AFNE01.JPG,AFNE01.JPG,AFNE01.JPG,AFNE01.JPG,AFNE01.JPG,,,,,1,2,12,9,,,,,,,,,,,,,,,,,,,AMNE06.jpg,AMSA13.jpg,AMNE10.jpg,AMSA02.jpg,AMSA13.jpg,MS,2,num_6,16,num_6,0.833190337173,,,2017_Apr_26_1059,59.9969018035,FEMA4ImagesEEG,001,100280,
AFNE01.JPG,AFNE01.JPG,AFNE01.JPG,AFNE01.JPG,AFNE01.JPG,AFNE01.JPG,,,,,1,3,13,7,,,,,,,,,,,,,,,,,,,AMNE06.jpg,AMNE07.jpg,AMSA01.jpg,AMSA19.jpg,AMSA01.jpg,MS,2,num_2,16,num_2,1.03344570962,,,2017_Apr_26_1059,59.9969018035,FEMA4ImagesEEG,001,100280,
AFNE01.JPG,AFNE01.JPG,AFNE01.JPG,AFNE01.JPG,AFNE01.JPG,AFNE01.JPG,,,,,1,4,14,0,,,,,,,,,,,,,,,,,,,AMSA16.jpg,AMSA08.jpg,AMNE17.jpg,AMNE19.jpg,AMSA08.jpg,MS,2,num_6,16,num_6,0.616779016214,,,2017_Apr_26_1059,59.9969018035,FEMA4ImagesEEG,001,100280,
AFNE01.JPG,AFNE01.JPG,AFNE01.JPG,AFNE01.JPG,AFNE01.JPG,AFNE01.JPG,,,,,1,5,15,2,,,,,,,,,,,,,,,,,,,AMNE03.jpg,AMNE15.jpg,AMSA04.jpg,AMSA15.jpg,AMNE15.jpg,MN,1,num_6,32,num_8,1.7669240383,,,2017_Apr_26_1059,59.9969018035,FEMA4ImagesEEG,001,100280,
AFNE01.JPG,AFNE01.JPG,AFNE01.JPG,AFNE01.JPG,AFNE01.JPG,AFNE01.JPG,,,,,1,6,16,4,,,,,,,,,,,,,,,,,,,AMNE14.jpg,AMSA04.jpg,AMNE17.jpg,AMSA01.jpg,AMNE17.jpg,MN,1,num_2,32,num_8,1.11692799954,,,2017_Apr_26_1059,59.9969018035,FEMA4ImagesEEG,001,100280,
AFNE01.JPG,AFNE01.JPG,AFNE01.JPG,AFNE01.JPG,AFNE01.JPG,AFNE01.JPG,,,,,1,7,17,1,,,,,,,,,,,,,,,,,,,AMSA02.jpg,AMNE07.jpg,AMSA07.jpg,AMNE11.jpg,AMSA07.jpg,MS,2,num_2,16,num_2,0.966816975735,,,2017_Apr_26_1059,59.9969018035,FEMA4ImagesEEG,001,100280,
AFNE01.JPG,AFNE01.JPG,AFNE01.JPG,AFNE01.JPG,AFNE01.JPG,AFNE01.JPG,,,,,1,8,18,6,,,,,,,,,,,,,,,,,,,AMSA13.jpg,AMNE07.jpg,AMNE04.jpg,AMSA08.jpg,AMNE04.jpg,MN,1,num_2,32,num_8,1.10011678108,,,2017_Apr_26_1059,59.9969018035,FEMA4ImagesEEG,001,100280,
AFNE01.JPG,AFNE01.JPG,AFNE01.JPG,AFNE01.JPG,AFNE01.JPG,AFNE01.JPG,,,,,1,9,19,8,,,,,,,,,,,,,,,,,,,AMNE12.jpg,AMSA11.jpg,AMSA18.jpg,AMNE13.jpg,AMSA18.jpg,MS,2,num_2,16,num_2,0.749977147323,,,2017_Apr_26_1059,59.9969018035,FEMA4ImagesEEG,001,100280,
AFNE01.JPG,AFNE01.JPG,AFNE01.JPG,AFNE01.JPG,AFNE01.JPG,AFNE01.JPG,,,,,2,0,20,1,,,,,,,,,,,,,,,,,,,AMSA12.jpg,AMNE17.jpg,AMSA17.jpg,AMNE08.jpg,AMSA17.jpg,MS,2,num_2,32,num_6,0.900115433964,,,2017_Apr_26_1059,59.9969018035,FEMA4ImagesEEG,001,100280,
AFNE01.JPG,AFNE01.JPG,AFNE01.JPG,AFNE01.JPG,AFNE01.JPG,AFNE01.JPG,,,,,2,1,21,4,,,,,,,,,,,,,,,,,,,AMSA05.jpg,AMSA01.jpg,AMNE06.jpg,AMNE20.jpg,AMSA05.jpg,MS,2,num_8,16,num_8,1.45016885304,,,2017_Apr_26_1059,59.9969018035,FEMA4ImagesEEG,001,100280,
AFNE01.JPG,AFNE01.JPG,AFNE01.JPG,AFNE01.JPG,AFNE01.JPG,AFNE01.JPG,,,,,2,2,22,3,,,,,,,,,,,,,,,,,,,AMNE13.jpg,AMSA10.jpg,AMSA04.jpg,AMNE15.jpg,AMSA04.jpg,MS,2,num_2,16,num_2,1.28343520535,,,2017_Apr_26_1059,59.9969018035,FEMA4ImagesEEG,001,100280,
AFNE01.JPG,AFNE01.JPG,AFNE01.JPG,AFNE01.JPG,AFNE01.JPG,AFNE01.JPG,,,,,2,3,23,6,,,,,,,,,,,,,,,,,,,AMSA17.jpg,AMNE14.jpg,AMSA20.jpg,AMNE03.jpg,AMSA20.jpg,MS,2,num_2,32,num_8,1.43343653646,,,2017_Apr_26_1059,59.9969018035,FEMA4ImagesEEG,001,100280,
AFNE01.JPG,AFNE01.JPG,AFNE01.JPG,AFNE01.JPG,AFNE01.JPG,AFNE01.JPG,,,,,2,4,24,7,,,,,,,,,,,,,,,,,,,AMNE04.jpg,AMSA18.jpg,AMNE08.jpg,AMSA19.jpg,AMNE08.jpg,MN,1,num_2,16,num_2,1.21672372078,,,2017_Apr_26_1059,59.9969018035,FEMA4ImagesEEG,001,100280,
AFNE01.JPG,AFNE01.JPG,AFNE01.JPG,AFNE01.JPG,AFNE01.JPG,AFNE01.JPG,,,,,2,5,25,0,,,,,,,,,,,,,,,,,,,AMSA04.jpg,AMSA02.jpg,AMNE18.jpg,AMNE20.jpg,AMNE18.jpg,MN,1,num_2,16,num_2,1.21675579471,,,2017_Apr_26_1059,59.9969018035,FEMA4ImagesEEG,001,100280,
AFNE01.JPG,AFNE01.JPG,AFNE01.JPG,AFNE01.JPG,AFNE01.JPG,AFNE01.JPG,,,,,2,6,26,9,,,,,,,,,,,,,,,,,,,AMSA17.jpg,AMNE20.jpg,AMNE15.jpg,AMSA10.jpg,AMNE15.jpg,MN,1,num_2,32,num_6,1.25011458411,,,2017_Apr_26_1059,59.9969018035,FEMA4ImagesEEG,001,100280,
AFNE01.JPG,AFNE01.JPG,AFNE01.JPG,AFNE01.JPG,AFNE01.JPG,AFNE01.JPG,,,,,2,7,27,2,,,,,,,,,,,,,,,,,,,AMNE15.jpg,AMSA13.jpg,AMNE20.jpg,AMSA06.jpg,AMNE15.jpg,MN,1,num_8,32,num_6,1.13345696765,,,2017_Apr_26_1059,59.9969018035,FEMA4ImagesEEG,001,100280,
AFNE01.JPG,AFNE01.JPG,AFNE01.JPG,AFNE01.JPG,AFNE01.JPG,AFNE01.JPG,,,,,2,8,28,5,,,,,,,,,,,,,,,,,,,AMNE18.jpg,AMNE04.jpg,AMSA10.jpg,AMSA17.jpg,AMSA17.jpg,MS,2,num_4,32,num_8,1.18340598606,,,2017_Apr_26_1059,59.9969018035,FEMA4ImagesEEG,001,100280,
AFNE01.JPG,AFNE01.JPG,AFNE01.JPG,AFNE01.JPG,AFNE01.JPG,AFNE01.JPG,,,,,2,9,29,8,,,,,,,,,,,,,,,,,,,AMNE15.jpg,AMSA11.jpg,AMNE16.jpg,AMSA01.jpg,AMNE15.jpg,MN,1,num_8,16,num_8,1.88334013836,,,2017_Apr_26_1059,59.9969018035,FEMA4ImagesEEG,001,100280,
AFNE01.JPG,AFNE01.JPG,AFNE01.JPG,AFNE01.JPG,AFNE01.JPG,AFNE01.JPG,,,,,3,0,30,8,,,,,,,,,,,,,,,,,,,AMSA08.jpg,AMSA01.jpg,AMNE07.jpg,AMNE09.jpg,AMNE09.jpg,MN,1,num_4,16,num_4,1.91664568498,,,2017_Apr_26_1059,59.9969018035,FEMA4ImagesEEG,001,100280,
AFNE01.JPG,AFNE01.JPG,AFNE01.JPG,AFNE01.JPG,AFNE01.JPG,AFNE01.JPG,,,,,3,1,31,3,,,,,,,,,,,,,,,,,,,AMNE05.jpg,AMSA07.jpg,AMSA18.jpg,AMNE15.jpg,AMSA07.jpg,MS,2,num_6,32,num_2,1.58340675593,,,2017_Apr_26_1059,59.9969018035,FEMA4ImagesEEG,001,100280,
AFNE01.JPG,AFNE01.JPG,AFNE01.JPG,AFNE01.JPG,AFNE01.JPG,AFNE01.JPG,,,,,3,2,32,9,,,,,,,,,,,,,,,,,,,AMSA06.jpg,AMSA08.jpg,AMNE01.jpg,AMNE08.jpg,AMNE08.jpg,MN,1,num_4,16,num_4,2.33319659159,,,2017_Apr_26_1059,59.9969018035,FEMA4ImagesEEG,001,100280,
AFNE01.JPG,AFNE01.JPG,AFNE01.JPG,AFNE01.JPG,AFNE01.JPG,AFNE01.JPG,,,,,3,3,33,1,,,,,,,,,,,,,,,,,,,AMNE16.jpg,AMNE07.jpg,AMSA04.jpg,AMSA12.jpg,AMNE16.jpg,MN,1,num_8,32,num_6,1.46671065059,,,2017_Apr_26_1059,59.9969018035,FEMA4ImagesEEG,001,100280,
AFNE01.JPG,AFNE01.JPG,AFNE01.JPG,AFNE01.JPG,AFNE01.JPG,AFNE01.JPG,,,,,3,4,34,6,,,,,,,,,,,,,,,,,,,AMSA01.jpg,AMSA08.jpg,AMNE05.jpg,AMNE04.jpg,AMNE05.jpg,MN,1,num_2,32,num_6,1.60011630005,,,2017_Apr_26_1059,59.9969018035,FEMA4ImagesEEG,001,100280,
AFNE01.JPG,AFNE01.JPG,AFNE01.JPG,AFNE01.JPG,AFNE01.JPG,AFNE01.JPG,,,,,3,5,35,5,,,,,,,,,,,,,,,,,,,AMNE06.jpg,AMSA02.jpg,AMNE01.jpg,AMSA01.jpg,AMNE01.jpg,MN,1,num_2,32,num_4,1.63347508933,,,2017_Apr_26_1059,59.9969018035,FEMA4ImagesEEG,001,100280,
AFNE01.JPG,AFNE01.JPG,AFNE01.JPG,AFNE01.JPG,AFNE01.JPG,AFNE01.JPG,,,,,3,6,36,7,,,,,,,,,,,,,,,,,,,AMNE10.jpg,AMSA10.jpg,AMSA17.jpg,AMNE11.jpg,AMSA10.jpg,MS,2,num_6,32,num_8,1.76668188046,,,2017_Apr_26_1059,59.9969018035,FEMA4ImagesEEG,001,100280,
AFNE01.JPG,AFNE01.JPG,AFNE01.JPG,AFNE01.JPG,AFNE01.JPG,AFNE01.JPG,,,,,3,7,37,4,,,,,,,,,,,,,,,,,,,AMSA16.jpg,AMSA19.jpg,AMNE14.jpg,AMNE06.jpg,AMNE14.jpg,MN,1,num_2,16,num_2,1.11676827155,,,2017_Apr_26_1059,59.9969018035,FEMA4ImagesEEG,001,100280,
AFNE01.JPG,AFNE01.JPG,AFNE01.JPG,AFNE01.JPG,AFNE01.JPG,AFNE01.JPG,,,,,3,8,38,2,,,,,,,,,,,,,,,,,,,AMNE03.jpg,AMSA11.jpg,AMSA05.jpg,AMNE04.jpg,AMNE03.jpg,MN,1,num_8,16,num_8,1.55020224198,,,2017_Apr_26_1059,59.9969018035,FEMA4ImagesEEG,001,100280,
AFNE01.JPG,AFNE01.JPG,AFNE01.JPG,AFNE01.JPG,AFNE01.JPG,AFNE01.JPG,,,,,3,9,39,0,,,,,,,,,,,,,,,,,,,AMSA10.jpg,AMNE12.jpg,AMSA09.jpg,AMNE16.jpg,AMSA09.jpg,MS,2,num_2,32,num_8,1.31670771597,,,2017_Apr_26_1059,59.9969018035,FEMA4ImagesEEG,001,100280,
AFNE01.JPG,AFNE01.JPG,AFNE01.JPG,AFNE01.JPG,AFNE01.JPG,AFNE01.JPG,,,,,4,0,40,0,,,,,,,,,,,,,,,,,,,AMSA08.jpg,AMNE13.jpg,AMSA14.jpg,AMNE19.jpg,AMNE19.jpg,MN,1,num_4,16,num_4,0.916747038485,,,2017_Apr_26_1059,59.9969018035,FEMA4ImagesEEG,001,100280,
AFNE01.JPG,AFNE01.JPG,AFNE01.JPG,AFNE01.JPG,AFNE01.JPG,AFNE01.JPG,,,,,4,1,41,3,,,,,,,,,,,,,,,,,,,AMNE05.jpg,AMNE04.jpg,AMSA08.jpg,AMSA19.jpg,AMSA19.jpg,MS,2,num_4,32,num_8,1.0835833227,,,2017_Apr_26_1059,59.9969018035,FEMA4ImagesEEG,001,100280,
AFNE01.JPG,AFNE01.JPG,AFNE01.JPG,AFNE01.JPG,AFNE01.JPG,AFNE01.JPG,,,,,4,2,42,5,,,,,,,,,,,,,,,,,,,AMSA01.jpg,AMNE19.jpg,AMNE01.jpg,AMSA15.jpg,AMSA01.jpg,MS,2,num_8,16,num_8,1.28345573263,,,2017_Apr_26_1059,59.9969018035,FEMA4ImagesEEG,001,100280,
AFNE01.JPG,AFNE01.JPG,AFNE01.JPG,AFNE01.JPG,AFNE01.JPG,AFNE01.JPG,,,,,4,3,43,2,,,,,,,,,,,,,,,,,,,AMNE16.jpg,AMNE03.jpg,AMSA08.jpg,AMSA10.jpg,AMNE16.jpg,MN,1,num_8,32,num_2,1.09965652041,,,2017_Apr_26_1059,59.9969018035,FEMA4ImagesEEG,001,100280,
AFNE01.JPG,AFNE01.JPG,AFNE01.JPG,AFNE01.JPG,AFNE01.JPG,AFNE01.JPG,,,,,4,4,44,4,,,,,,,,,,,,,,,,,,,AMSA17.jpg,AMSA13.jpg,AMNE17.jpg,AMNE12.jpg,AMNE12.jpg,MN,1,num_4,32,num_8,0.950098130153,,,2017_Apr_26_1059,59.9969018035,FEMA4ImagesEEG,001,100280,
AFNE01.JPG,AFNE01.JPG,AFNE01.JPG,AFNE01.JPG,AFNE01.JPG,AFNE01.JPG,,,,,4,5,45,1,,,,,,,,,,,,,,,,,,,AMSA01.jpg,AMSA12.jpg,AMNE10.jpg,AMNE07.jpg,AMNE10.jpg,MN,1,num_2,16,num_2,1.15011070319,,,2017_Apr_26_1059,59.9969018035,FEMA4ImagesEEG,001,100280,
AFNE01.JPG,AFNE01.JPG,AFNE01.JPG,AFNE01.JPG,AFNE01.JPG,AFNE01.JPG,,,,,4,6,46,7,,,,,,,,,,,,,,,,,,,AMNE04.jpg,AMSA19.jpg,AMNE14.jpg,AMSA04.jpg,AMNE14.jpg,MN,1,num_2,16,num_2,1.01676054171,,,2017_Apr_26_1059,59.9969018035,FEMA4ImagesEEG,001,100280,
AFNE01.JPG,AFNE01.JPG,AFNE01.JPG,AFNE01.JPG,AFNE01.JPG,AFNE01.JPG,,,,,4,7,47,8,,,,,,,,,,,,,,,,,,,AMNE19.jpg,AMSA13.jpg,AMSA15.jpg,AMNE04.jpg,AMNE04.jpg,MN,1,num_4,32,num_6,0.833443400217,,,2017_Apr_26_1059,59.9969018035,FEMA4ImagesEEG,001,100280,
AFNE01.JPG,AFNE01.JPG,AFNE01.JPG,AFNE01.JPG,AFNE01.JPG,AFNE01.JPG,,,,,4,8,48,9,,,,,,,,,,,,,,,,,,,AMSA14.jpg,AMNE17.jpg,AMSA09.jpg,AMNE10.jpg,AMSA09.jpg,MS,2,num_2,32,num_8,1.86665785708,,,2017_Apr_26_1059,59.9969018035,FEMA4ImagesEEG,001,100280,
AFNE01.JPG,AFNE01.JPG,AFNE01.JPG,AFNE01.JPG,AFNE01.JPG,AFNE01.JPG,,,,,4,9,49,6,,,,,,,,,,,,,,,,,,,AMNE09.jpg,AMNE06.jpg,AMSA15.jpg,AMSA16.jpg,AMSA15.jpg,MS,2,num_2,16,num_2,0.866847734549,,,2017_Apr_26_1059,59.9969018035,FEMA4ImagesEEG,001,100280,
AFNE01.JPG,AFNE01.JPG,AFNE01.JPG,AFNE01.JPG,AFNE01.JPG,AFNE01.JPG,,,,,5,0,50,3,,,,,,,,,,,,,,,,,,,AMNE02.jpg,AMSA09.jpg,AMNE01.jpg,AMSA13.jpg,AMNE01.jpg,MN,1,num_2,32,num_8,1.36678086047,,,2017_Apr_26_1059,59.9969018035,FEMA4ImagesEEG,001,100280,
AFNE01.JPG,AFNE01.JPG,AFNE01.JPG,AFNE01.JPG,AFNE01.JPG,AFNE01.JPG,,,,,5,1,51,5,,,,,,,,,,,,,,,,,,,AMSA13.jpg,AMSA11.jpg,AMNE15.jpg,AMNE20.jpg,AMNE15.jpg,MN,1,num_2,16,num_2,0.933412320679,,,2017_Apr_26_1059,59.9969018035,FEMA4ImagesEEG,001,100280,
AFNE01.JPG,AFNE01.JPG,AFNE01.JPG,AFNE01.JPG,AFNE01.JPG,AFNE01.JPG,,,,,5,2,52,7,,,,,,,,,,,,,,,,,,,AMSA16.jpg,AMSA06.jpg,AMNE08.jpg,AMNE17.jpg,AMNE08.jpg,MN,1,num_2,32,num_6,1.40005625761,,,2017_Apr_26_1059,59.9969018035,FEMA4ImagesEEG,001,100280,
AFNE01.JPG,AFNE01.JPG,AFNE01.JPG,AFNE01.JPG,AFNE01.JPG,AFNE01.JPG,,,,,5,3,53,8,,,,,,,,,,,,,,,,,,,AMNE15.jpg,AMSA04.jpg,AMSA03.jpg,AMNE08.jpg,AMNE15.jpg,MN,1,num_8,16,num_8,1.45008866827,,,2017_Apr_26_1059,59.9969018035,FEMA4ImagesEEG,001,100280,
AFNE01.JPG,AFNE01.JPG,AFNE01.JPG,AFNE01.JPG,AFNE01.JPG,AFNE01.JPG,,,,,5,4,54,6,,,,,,,,,,,,,,,,,,,AMNE07.jpg,AMNE02.jpg,AMSA17.jpg,AMSA19.jpg,AMSA17.jpg,MS,2,num_2,16,num_2,0.816755666398,,,2017_Apr_26_1059,59.9969018035,FEMA4ImagesEEG,001,100280,
AFNE01.JPG,AFNE01.JPG,AFNE01.JPG,AFNE01.JPG,AFNE01.JPG,AFNE01.JPG,,,,,5,5,55,2,,,,,,,,,,,,,,,,,,,AMNE04.jpg,AMSA06.jpg,AMNE20.jpg,AMSA20.jpg,AMNE04.jpg,MN,1,num_8,16,num_8,0.733476083609,,,2017_Apr_26_1059,59.9969018035,FEMA4ImagesEEG,001,100280,
AFNE01.JPG,AFNE01.JPG,AFNE01.JPG,AFNE01.JPG,AFNE01.JPG,AFNE01.JPG,,,,,5,6,56,0,,,,,,,,,,,,,,,,,,,AMNE01.jpg,AMSA03.jpg,AMNE10.jpg,AMSA07.jpg,AMSA03.jpg,MS,2,num_6,32,num_8,1.90005449357,,,2017_Apr_26_1059,59.9969018035,FEMA4ImagesEEG,001,100280,
AFNE01.JPG,AFNE01.JPG,AFNE01.JPG,AFNE01.JPG,AFNE01.JPG,AFNE01.JPG,,,,,5,7,57,1,,,,,,,,,,,,,,,,,,,AMSA16.jpg,AMSA10.jpg,AMNE18.jpg,AMNE20.jpg,AMNE20.jpg,MN,1,num_4,32,num_8,1.30011107202,,,2017_Apr_26_1059,59.9969018035,FEMA4ImagesEEG,001,100280,
AFNE01.JPG,AFNE01.JPG,AFNE01.JPG,AFNE01.JPG,AFNE01.JPG,AFNE01.JPG,,,,,5,8,58,9,,,,,,,,,,,,,,,,,,,AMNE06.jpg,AMSA09.jpg,AMSA05.jpg,AMNE15.jpg,AMNE06.jpg,MN,1,num_8,32,num_2,1.16679266375,,,2017_Apr_26_1059,59.9969018035,FEMA4ImagesEEG,001,100280,
AFNE01.JPG,AFNE01.JPG,AFNE01.JPG,AFNE01.JPG,AFNE01.JPG,AFNE01.JPG,,,,,5,9,59,4,,,,,,,,,,,,,,,,,,,AMNE02.jpg,AMSA13.jpg,AMNE07.jpg,AMSA11.jpg,AMNE02.jpg,MN,1,num_8,32,num_2,2.8000987235,,,2017_Apr_26_1059,59.9969018035,FEMA4ImagesEEG,001,100280,
,,,,,,,,,,,,,,,,,,,,,,,,,,,,,,,,,,,,,,,,,,,space,4.28311061743,2017_Apr_26_1059,59.9969018035,FEMA4ImagesEEG,001,100280,
AFNE01.JPG,AFNE01.JPG,AFNE01.JPG,AFNE01.JPG,AFNE01.JPG,AFNE01.JPG,,,,,,,,,0,0,0,9,,,,,,,,,,,,,,,AFSA07.jpg,AFNE16.jpg,AFSA17.jpg,AFNE02.jpg,AFNE02.jpg,FN,3,num_4,16,num_4,0.766763348132,,,2017_Apr_26_1059,59.9969018035,FEMA4ImagesEEG,001,100280,
AFNE01.JPG,AFNE01.JPG,AFNE01.JPG,AFNE01.JPG,AFNE01.JPG,AFNE01.JPG,,,,,,,,,0,1,1,0,,,,,,,,,,,,,,,AFSA17.jpg,AFSA20.jpg,AFNE17.jpg,AFNE20.jpg,AFNE20.jpg,FN,3,num_4,32,num_8,1.41669684288,,,2017_Apr_26_1059,59.9969018035,FEMA4ImagesEEG,001,100280,
AFNE01.JPG,AFNE01.JPG,AFNE01.JPG,AFNE01.JPG,AFNE01.JPG,AFNE01.JPG,,,,,,,,,0,2,2,1,,,,,,,,,,,,,,,AFSA16.jpg,AFNE01.jpg,AFNE10.jpg,AFSA19.jpg,AFNE10.jpg,FN,3,num_2,16,num_2,1.21660087781,,,2017_Apr_26_1059,59.9969018035,FEMA4ImagesEEG,001,100280,
AFNE01.JPG,AFNE01.JPG,AFNE01.JPG,AFNE01.JPG,AFNE01.JPG,AFNE01.JPG,,,,,,,,,0,3,3,8,,,,,,,,,,,,,,,AFNE07.jpg,AFNE03.jpg,AFSA06.jpg,AFSA16.jpg,AFSA06.jpg,FS,4,num_2,16,num_2,1.11645298486,,,2017_Apr_26_1059,59.9969018035,FEMA4ImagesEEG,001,100280,
AFNE01.JPG,AFNE01.JPG,AFNE01.JPG,AFNE01.JPG,AFNE01.JPG,AFNE01.JPG,,,,,,,,,0,4,4,4,,,,,,,,,,,,,,,AFNE16.jpg,AFNE08.jpg,AFSA19.jpg,AFSA08.jpg,AFSA08.jpg,FS,4,num_4,16,num_4,1.75006310537,,,2017_Apr_26_1059,59.9969018035,FEMA4ImagesEEG,001,100280,
AFNE01.JPG,AFNE01.JPG,AFNE01.JPG,AFNE01.JPG,AFNE01.JPG,AFNE01.JPG,,,,,,,,,0,5,5,6,,,,,,,,,,,,,,,AFNE20.jpg,AFSA09.jpg,AFNE16.jpg,AFSA08.jpg,AFNE16.jpg,FN,3,num_2,32,num_8,1.46675266756,,,2017_Apr_26_1059,59.9969018035,FEMA4ImagesEEG,001,100280,
AFNE01.JPG,AFNE01.JPG,AFNE01.JPG,AFNE01.JPG,AFNE01.JPG,AFNE01.JPG,,,,,,,,,0,6,6,3,,,,,,,,,,,,,,,AFSA15.jpg,AFSA03.jpg,AFNE17.jpg,AFNE10.jpg,AFNE17.jpg,FN,3,num_2,32,num_8,1.25010849,,,2017_Apr_26_1059,59.9969018035,FEMA4ImagesEEG,001,100280,
AFNE01.JPG,AFNE01.JPG,AFNE01.JPG,AFNE01.JPG,AFNE01.JPG,AFNE01.JPG,,,,,,,,,0,7,7,2,,,,,,,,,,,,,,,AFNE07.jpg,AFNE10.jpg,AFSA15.jpg,AFSA14.jpg,AFSA14.jpg,FS,4,num_4,32,num_6,0.883502111537,,,2017_Apr_26_1059,59.9969018035,FEMA4ImagesEEG,001,100280,
AFNE01.JPG,AFNE01.JPG,AFNE01.JPG,AFNE01.JPG,AFNE01.JPG,AFNE01.JPG,,,,,,,,,0,8,8,5,,,,,,,,,,,,,,,AFNE03.jpg,AFNE15.jpg,AFSA15.jpg,AFSA04.jpg,AFNE03.jpg,FN,3,num_8,32,num_2,1.85005287384,,,2017_Apr_26_1059,59.9969018035,FEMA4ImagesEEG,001,100280,
AFNE01.JPG,AFNE01.JPG,AFNE01.JPG,AFNE01.JPG,AFNE01.JPG,AFNE01.JPG,,,,,,,,,0,9,9,7,,,,,,,,,,,,,,,AFNE17.jpg,AFSA09.jpg,AFSA11.jpg,AFNE14.jpg,AFNE17.jpg,FN,3,num_8,32,num_4,0.933422905044,,,2017_Apr_26_1059,59.9969018035,FEMA4ImagesEEG,001,100280,
AFNE01.JPG,AFNE01.JPG,AFNE01.JPG,AFNE01.JPG,AFNE01.JPG,AFNE01.JPG,,,,,,,,,1,0,10,6,,,,,,,,,,,,,,,AFNE19.jpg,AFSA12.jpg,AFSA20.jpg,AFNE09.jpg,AFSA20.jpg,FS,4,num_2,32,num_4,1.25011394266,,,2017_Apr_26_1059,59.9969018035,FEMA4ImagesEEG,001,100280,
AFNE01.JPG,AFNE01.JPG,AFNE01.JPG,AFNE01.JPG,AFNE01.JPG,AFNE01.JPG,,,,,,,,,1,1,11,4,,,,,,,,,,,,,,,AFNE04.jpg,AFSA15.jpg,AFNE10.jpg,AFSA18.jpg,AFNE10.jpg,FN,3,num_2,32,num_6,1.05010618072,,,2017_Apr_26_1059,59.9969018035,FEMA4ImagesEEG,001,100280,
AFNE01.JPG,AFNE01.JPG,AFNE01.JPG,AFNE01.JPG,AFNE01.JPG,AFNE01.JPG,,,,,,,,,1,2,12,1,,,,,,,,,,,,,,,AFSA11.jpg,AFNE12.jpg,AFSA02.jpg,AFNE15.jpg,AFNE12.jpg,FN,3,num_6,16,num_6,0.733443047502,,,2017_Apr_26_1059,59.9969018035,FEMA4ImagesEEG,001,100280,
AFNE01.JPG,AFNE01.JPG,AFNE01.JPG,AFNE01.JPG,AFNE01.JPG,AFNE01.JPG,,,,,,,,,1,3,13,5,,,,,,,,,,,,,,,AFSA04.jpg,AFSA01.jpg,AFNE05.jpg,AFNE19.jpg,AFSA01.jpg,FS,4,num_6,32,num_8,1.40018230805,,,2017_Apr_26_1059,59.9969018035,FEMA4ImagesEEG,001,100280,
AFNE01.JPG,AFNE01.JPG,AFNE01.JPG,AFNE01.JPG,AFNE01.JPG,AFNE01.JPG,,,,,,,,,1,4,14,0,,,,,,,,,,,,,,,AFSA12.jpg,AFNE17.jpg,AFSA07.jpg,AFNE01.jpg,AFSA07.jpg,FS,4,num_2,16,num_2,1.73338178638,,,2017_Apr_26_1059,59.9969018035,FEMA4ImagesEEG,001,100280,
AFNE01.JPG,AFNE01.JPG,AFNE01.JPG,AFNE01.JPG,AFNE01.JPG,AFNE01.JPG,,,,,,,,,1,5,15,9,,,,,,,,,,,,,,,AFNE11.jpg,AFSA18.jpg,AFSA13.jpg,AFNE01.jpg,AFNE01.jpg,FN,3,num_4,32,num_8,1.31678244809,,,2017_Apr_26_1059,59.9969018035,FEMA4ImagesEEG,001,100280,
AFNE01.JPG,AFNE01.JPG,AFNE01.JPG,AFNE01.JPG,AFNE01.JPG,AFNE01.JPG,,,,,,,,,1,6,16,7,,,,,,,,,,,,,,,AFSA07.jpg,AFSA14.jpg,AFNE15.jpg,AFNE18.jpg,AFNE18.jpg,FN,3,num_4,32,num_2,1.3500036404,,,2017_Apr_26_1059,59.9969018035,FEMA4ImagesEEG,001,100280,
AFNE01.JPG,AFNE01.JPG,AFNE01.JPG,AFNE01.JPG,AFNE01.JPG,AFNE01.JPG,,,,,,,,,1,7,17,8,,,,,,,,,,,,,,,AFSA04.jpg,AFNE17.jpg,AFNE03.jpg,AFSA18.jpg,AFSA18.jpg,FS,4,num_4,16,num_4,0.666778390761,,,2017_Apr_26_1059,59.9969018035,FEMA4ImagesEEG,001,100280,
AFNE01.JPG,AFNE01.JPG,AFNE01.JPG,AFNE01.JPG,AFNE01.JPG,AFNE01.JPG,,,,,,,,,1,8,18,3,,,,,,,,,,,,,,,AFSA14.jpg,AFNE04.jpg,AFNE10.jpg,AFSA17.jpg,AFNE10.jpg,FN,3,num_2,32,num_8,1.08354996587,,,2017_Apr_26_1059,59.9969018035,FEMA4ImagesEEG,001,100280,
AFNE01.JPG,AFNE01.JPG,AFNE01.JPG,AFNE01.JPG,AFNE01.JPG,AFNE01.JPG,,,,,,,,,1,9,19,2,,,,,,,,,,,,,,,AFSA20.jpg,AFNE03.jpg,AFSA01.jpg,AFNE12.jpg,AFSA01.jpg,FS,4,num_2,32,num_8,1.63348086271,,,2017_Apr_26_1059,59.9969018035,FEMA4ImagesEEG,001,100280,
AFNE01.JPG,AFNE01.JPG,AFNE01.JPG,AFNE01.JPG,AFNE01.JPG,AFNE01.JPG,,,,,,,,,2,0,20,6,,,,,,,,,,,,,,,AFSA12.jpg,AFSA07.jpg,AFNE12.jpg,AFNE13.jpg,AFSA07.jpg,FS,4,num_6,16,num_6,1.13348551327,,,2017_Apr_26_1059,59.9969018035,FEMA4ImagesEEG,001,100280,
AFNE01.JPG,AFNE01.JPG,AFNE01.JPG,AFNE01.JPG,AFNE01.JPG,AFNE01.JPG,,,,,,,,,2,1,21,7,,,,,,,,,,,,,,,AFNE04.jpg,AFNE12.jpg,AFSA08.jpg,AFSA12.jpg,AFNE12.jpg,FN,3,num_6,16,num_6,0.916735491948,,,2017_Apr_26_1059,59.9969018035,FEMA4ImagesEEG,001,100280,
AFNE01.JPG,AFNE01.JPG,AFNE01.JPG,AFNE01.JPG,AFNE01.JPG,AFNE01.JPG,,,,,,,,,2,2,22,9,,,,,,,,,,,,,,,AFNE06.jpg,AFSA14.jpg,AFSA11.jpg,AFNE01.jpg,AFSA14.jpg,FS,4,num_6,32,num_8,1.3833929,,,2017_Apr_26_1059,59.9969018035,FEMA4ImagesEEG,001,100280,
AFNE01.JPG,AFNE01.JPG,AFNE01.JPG,AFNE01.JPG,AFNE01.JPG,AFNE01.JPG,,,,,,,,,2,3,23,8,,,,,,,,,,,,,,,AFSA12.jpg,AFSA04.jpg,AFNE05.jpg,AFNE19.jpg,AFNE05.jpg,FN,3,num_2,16,num_2,2.65000213287,,,2017_Apr_26_1059,59.9969018035,FEMA4ImagesEEG,001,100280,
AFNE01.JPG,AFNE01.JPG,AFNE01.JPG,AFNE01.JPG,AFNE01.JPG,AFNE01.JPG,,,,,,,,,2,4,24,4,,,,,,,,,,,,,,,AFSA01.jpg,AFNE17.jpg,AFSA02.jpg,AFNE02.jpg,AFSA02.jpg,FS,4,num_2,16,num_2,2.08340499178,,,2017_Apr_26_1059,59.9969018035,FEMA4ImagesEEG,001,100280,
AFNE01.JPG,AFNE01.JPG,AFNE01.JPG,AFNE01.JPG,AFNE01.JPG,AFNE01.JPG,,,,,,,,,2,5,25,2,,,,,,,,,,,,,,,AFNE04.jpg,AFNE09.jpg,AFSA03.jpg,AFSA18.jpg,AFSA03.jpg,FS,4,num_2,16,num_2,0.966895235935,,,2017_Apr_26_1059,59.9969018035,FEMA4ImagesEEG,001,100280,
AFNE01.JPG,AFNE01.JPG,AFNE01.JPG,AFNE01.JPG,AFNE01.JPG,AFNE01.JPG,,,,,,,,,2,6,26,1,,,,,,,,,,,,,,,AFSA04.jpg,AFNE15.jpg,AFSA11.jpg,AFNE04.jpg,AFSA04.jpg,FS,4,num_8,16,num_8,1.39997767657,,,2017_Apr_26_1059,59.9969018035,FEMA4ImagesEEG,001,100280,
AFNE01.JPG,AFNE01.JPG,AFNE01.JPG,AFNE01.JPG,AFNE01.JPG,AFNE01.JPG,,,,,,,,,2,7,27,5,,,,,,,,,,,,,,,AFSA06.jpg,AFNE04.jpg,AFNE20.jpg,AFSA12.jpg,AFNE04.jpg,FN,3,num_6,16,num_6,1.29995070235,,,2017_Apr_26_1059,59.9969018035,FEMA4ImagesEEG,001,100280,
AFNE01.JPG,AFNE01.JPG,AFNE01.JPG,AFNE01.JPG,AFNE01.JPG,AFNE01.JPG,,,,,,,,,2,8,28,3,,,,,,,,,,,,,,,AFNE10.jpg,AFSA06.jpg,AFNE08.jpg,AFSA20.jpg,AFNE10.jpg,FN,3,num_8,16,num_8,1.01694304217,,,2017_Apr_26_1059,59.9969018035,FEMA4ImagesEEG,001,100280,
AFNE01.JPG,AFNE01.JPG,AFNE01.JPG,AFNE01.JPG,AFNE01.JPG,AFNE01.JPG,,,,,,,,,2,9,29,0,,,,,,,,,,,,,,,AFNE01.jpg,AFNE08.jpg,AFSA16.jpg,AFSA05.jpg,AFNE01.jpg,FN,3,num_8,32,num_2,1.31658647663,,,2017_Apr_26_1059,59.9969018035,FEMA4ImagesEEG,001,100280,
AFNE01.JPG,AFNE01.JPG,AFNE01.JPG,AFNE01.JPG,AFNE01.JPG,AFNE01.JPG,,,,,,,,,3,0,30,1,,,,,,,,,,,,,,,AFSA10.jpg,AFNE16.jpg,AFNE20.jpg,AFSA06.jpg,AFSA10.jpg,FS,4,num_8,32,num_6,1.41677029221,,,2017_Apr_26_1059,59.9969018035,FEMA4ImagesEEG,001,100280,
AFNE01.JPG,AFNE01.JPG,AFNE01.JPG,AFNE01.JPG,AFNE01.JPG,AFNE01.JPG,,,,,,,,,3,1,31,4,,,,,,,,,,,,,,,AFNE18.jpg,AFSA12.jpg,AFNE04.jpg,AFSA17.jpg,AFNE04.jpg,FN,3,num_2,16,num_2,1.48348177667,,,2017_Apr_26_1059,59.9969018035,FEMA4ImagesEEG,001,100280,
AFNE01.JPG,AFNE01.JPG,AFNE01.JPG,AFNE01.JPG,AFNE01.JPG,AFNE01.JPG,,,,,,,,,3,2,32,6,,,,,,,,,,,,,,,AFSA17.jpg,AFNE09.jpg,AFSA10.jpg,AFNE20.jpg,AFSA17.jpg,FS,4,num_8,16,num_8,1.05018283729,,,2017_Apr_26_1059,59.9969018035,FEMA4ImagesEEG,001,100280,
AFNE01.JPG,AFNE01.JPG,AFNE01.JPG,AFNE01.JPG,AFNE01.JPG,AFNE01.JPG,,,,,,,,,3,3,33,3,,,,,,,,,,,,,,,AFSA05.jpg,AFSA06.jpg,AFNE20.jpg,AFNE03.jpg,AFNE20.jpg,FN,3,num_2,16,num_2,1.16675192979,,,2017_Apr_26_1059,59.9969018035,FEMA4ImagesEEG,001,100280,
AFNE01.JPG,AFNE01.JPG,AFNE01.JPG,AFNE01.JPG,AFNE01.JPG,AFNE01.JPG,,,,,,,,,3,4,34,7,,,,,,,,,,,,,,,AFNE04.jpg,AFSA19.jpg,AFNE16.jpg,AFSA18.jpg,AFNE16.jpg,FN,3,num_2,32,num_8,1.00015940738,,,2017_Apr_26_1059,59.9969018035,FEMA4ImagesEEG,001,100280,
AFNE01.JPG,AFNE01.JPG,AFNE01.JPG,AFNE01.JPG,AFNE01.JPG,AFNE01.JPG,,,,,,,,,3,5,35,9,,,,,,,,,,,,,,,AFNE18.jpg,AFNE17.jpg,AFSA19.jpg,AFSA12.jpg,AFNE17.jpg,FN,3,num_6,16,num_6,0.700189139927,,,2017_Apr_26_1059,59.9969018035,FEMA4ImagesEEG,001,100280,
AFNE01.JPG,AFNE01.JPG,AFNE01.JPG,AFNE01.JPG,AFNE01.JPG,AFNE01.JPG,,,,,,,,,3,6,36,5,,,,,,,,,,,,,,,AFSA19.jpg,AFSA01.jpg,AFNE19.jpg,AFNE07.jpg,AFNE19.jpg,FN,3,num_2,32,num_8,0.816831681528,,,2017_Apr_26_1059,59.9969018035,FEMA4ImagesEEG,001,100280,
AFNE01.JPG,AFNE01.JPG,AFNE01.JPG,AFNE01.JPG,AFNE01.JPG,AFNE01.JPG,,,,,,,,,3,7,37,8,,,,,,,,,,,,,,,AFNE02.jpg,AFSA03.jpg,AFSA10.jpg,AFNE08.jpg,AFSA03.jpg,FS,4,num_6,32,num_2,0.96677720407,,,2017_Apr_26_1059,59.9969018035,FEMA4ImagesEEG,001,100280,
AFNE01.JPG,AFNE01.JPG,AFNE01.JPG,AFNE01.JPG,AFNE01.JPG,AFNE01.JPG,,,,,,,,,3,8,38,2,,,,,,,,,,,,,,,AFSA16.jpg,AFNE17.jpg,AFSA04.jpg,AFNE19.jpg,AFNE19.jpg,FN,3,num_4,32,num_2,0.700158348889,,,2017_Apr_26_1059,59.9969018035,FEMA4ImagesEEG,001,100280,
AFNE01.JPG,AFNE01.JPG,AFNE01.JPG,AFNE01.JPG,AFNE01.JPG,AFNE01.JPG,,,,,,,,,3,9,39,0,,,,,,,,,,,,,,,AFNE18.jpg,AFSA04.jpg,AFSA11.jpg,AFNE07.jpg,AFSA04.jpg,FS,4,num_6,32,num_8,1.40008127538,,,2017_Apr_26_1059,59.9969018035,FEMA4ImagesEEG,001,100280,
AFNE01.JPG,AFNE01.JPG,AFNE01.JPG,AFNE01.JPG,AFNE01.JPG,AFNE01.JPG,,,,,,,,,4,0,40,8,,,,,,,,,,,,,,,AFNE08.jpg,AFSA09.jpg,AFNE03.jpg,AFSA06.jpg,AFNE08.jpg,FN,3,num_8,32,num_2,1.16670061147,,,2017_Apr_26_1059,59.9969018035,FEMA4ImagesEEG,001,100280,
AFNE01.JPG,AFNE01.JPG,AFNE01.JPG,AFNE01.JPG,AFNE01.JPG,AFNE01.JPG,,,,,,,,,4,1,41,1,,,,,,,,,,,,,,,AFSA05.jpg,AFNE12.jpg,AFSA12.jpg,AFNE07.jpg,AFSA05.jpg,FS,4,num_8,32,num_2,1.51670521416,,,2017_Apr_26_1059,59.9969018035,FEMA4ImagesEEG,001,100280,
AFNE01.JPG,AFNE01.JPG,AFNE01.JPG,AFNE01.JPG,AFNE01.JPG,AFNE01.JPG,,,,,,,,,4,2,42,7,,,,,,,,,,,,,,,AFSA04.jpg,AFNE05.jpg,AFNE13.jpg,AFSA19.jpg,AFSA04.jpg,FS,4,num_8,16,num_8,1.01678908744,,,2017_Apr_26_1059,59.9969018035,FEMA4ImagesEEG,001,100280,
AFNE01.JPG,AFNE01.JPG,AFNE01.JPG,AFNE01.JPG,AFNE01.JPG,AFNE01.JPG,,,,,,,,,4,3,43,5,,,,,,,,,,,,,,,AFSA06.jpg,AFNE16.jpg,AFNE07.jpg,AFSA03.jpg,AFNE16.jpg,FN,3,num_6,32,num_2,1.31673658243,,,2017_Apr_26_1059,59.9969018035,FEMA4ImagesEEG,001,100280,
AFNE01.JPG,AFNE01.JPG,AFNE01.JPG,AFNE01.JPG,AFNE01.JPG,AFNE01.JPG,,,,,,,,,4,4,44,3,,,,,,,,,,,,,,,AFSA13.jpg,AFSA06.jpg,AFNE05.jpg,AFNE02.jpg,AFNE05.jpg,FN,3,num_2,16,num_2,1.20015754702,,,2017_Apr_26_1059,59.9969018035,FEMA4ImagesEEG,001,100280,
AFNE01.JPG,AFNE01.JPG,AFNE01.JPG,AFNE01.JPG,AFNE01.JPG,AFNE01.JPG,,,,,,,,,4,5,45,0,,,,,,,,,,,,,,,AFNE08.jpg,AFSA20.jpg,AFNE16.jpg,AFSA13.jpg,AFSA20.jpg,FS,4,num_6,32,num_2,1.03356149641,,,2017_Apr_26_1059,59.9969018035,FEMA4ImagesEEG,001,100280,
AFNE01.JPG,AFNE01.JPG,AFNE01.JPG,AFNE01.JPG,AFNE01.JPG,AFNE01.JPG,,,,,,,,,4,6,46,4,,,,,,,,,,,,,,,AFNE13.jpg,AFNE19.jpg,AFSA02.jpg,AFSA06.jpg,AFNE19.jpg,FN,3,num_6,32,num_8,0.883422889048,,,2017_Apr_26_1059,59.9969018035,FEMA4ImagesEEG,001,100280,
AFNE01.JPG,AFNE01.JPG,AFNE01.JPG,AFNE01.JPG,AFNE01.JPG,AFNE01.JPG,,,,,,,,,4,7,47,6,,,,,,,,,,,,,,,AFSA14.jpg,AFNE02.jpg,AFSA13.jpg,AFNE20.jpg,AFSA13.jpg,FS,4,num_2,32,num_8,1.26682092075,,,2017_Apr_26_1059,59.9969018035,FEMA4ImagesEEG,001,100280,
AFNE01.JPG,AFNE01.JPG,AFNE01.JPG,AFNE01.JPG,AFNE01.JPG,AFNE01.JPG,,,,,,,,,4,8,48,2,,,,,,,,,,,,,,,AFNE09.jpg,AFSA15.jpg,AFNE17.jpg,AFSA12.jpg,AFNE09.jpg,FN,3,num_8,32,num_2,1.33346152201,,,2017_Apr_26_1059,59.9969018035,FEMA4ImagesEEG,001,100280,
AFNE01.JPG,AFNE01.JPG,AFNE01.JPG,AFNE01.JPG,AFNE01.JPG,AFNE01.JPG,,,,,,,,,4,9,49,9,,,,,,,,,,,,,,,AFSA02.jpg,AFNE12.jpg,AFNE13.jpg,AFSA04.jpg,AFSA02.jpg,FS,4,num_8,16,num_8,1.35013610555,,,2017_Apr_26_1059,59.9969018035,FEMA4ImagesEEG,001,100280,
AFNE01.JPG,AFNE01.JPG,AFNE01.JPG,AFNE01.JPG,AFNE01.JPG,AFNE01.JPG,,,,,,,,,5,0,50,7,,,,,,,,,,,,,,,AFNE02.jpg,AFSA14.jpg,AFNE08.jpg,AFSA13.jpg,AFNE08.jpg,FN,3,num_2,16,num_2,0.766788044944,,,2017_Apr_26_1059,59.9969018035,FEMA4ImagesEEG,001,100280,
AFNE01.JPG,AFNE01.JPG,AFNE01.JPG,AFNE01.JPG,AFNE01.JPG,AFNE01.JPG,,,,,,,,,5,1,51,5,,,,,,,,,,,,,,,AFSA18.jpg,AFSA10.jpg,AFNE07.jpg,AFNE20.jpg,AFSA10.jpg,FS,4,num_6,32,num_2,1.40005465399,,,2017_Apr_26_1059,59.9969018035,FEMA4ImagesEEG,001,100280,
AFNE01.JPG,AFNE01.JPG,AFNE01.JPG,AFNE01.JPG,AFNE01.JPG,AFNE01.JPG,,,,,,,,,5,2,52,6,,,,,,,,,,,,,,,AFSA13.jpg,AFNE04.jpg,AFNE11.jpg,AFSA08.jpg,AFNE04.jpg,FN,3,num_6,16,num_6,0.833432495128,,,2017_Apr_26_1059,59.9969018035,FEMA4ImagesEEG,001,100280,
AFNE01.JPG,AFNE01.JPG,AFNE01.JPG,AFNE01.JPG,AFNE01.JPG,AFNE01.JPG,,,,,,,,,5,3,53,1,,,,,,,,,,,,,,,AFSA20.jpg,AFNE01.jpg,AFNE06.jpg,AFSA11.jpg,AFNE06.jpg,FN,3,num_2,32,num_8,1.76664691977,,,2017_Apr_26_1059,59.9969018035,FEMA4ImagesEEG,001,100280,
AFNE01.JPG,AFNE01.JPG,AFNE01.JPG,AFNE01.JPG,AFNE01.JPG,AFNE01.JPG,,,,,,,,,5,4,54,3,,,,,,,,,,,,,,,AFSA02.jpg,AFNE16.jpg,AFSA12.jpg,AFNE01.jpg,AFNE16.jpg,FN,3,num_6,32,num_2,1.55008356867,,,2017_Apr_26_1059,59.9969018035,FEMA4ImagesEEG,001,100280,
AFNE01.JPG,AFNE01.JPG,AFNE01.JPG,AFNE01.JPG,AFNE01.JPG,AFNE01.JPG,,,,,,,,,5,5,55,8,,,,,,,,,,,,,,,AFNE18.jpg,AFSA07.jpg,AFNE10.jpg,AFSA20.jpg,AFNE18.jpg,FN,3,num_8,16,num_8,1.1500853647,,,2017_Apr_26_1059,59.9969018035,FEMA4ImagesEEG,001,100280,
AFNE01.JPG,AFNE01.JPG,AFNE01.JPG,AFNE01.JPG,AFNE01.JPG,AFNE01.JPG,,,,,,,,,5,6,56,2,,,,,,,,,,,,,,,AFSA05.jpg,AFSA14.jpg,AFNE10.jpg,AFNE14.jpg,AFNE14.jpg,FN,3,num_4,32,num_2,0.716771350475,,,2017_Apr_26_1059,59.9969018035,FEMA4ImagesEEG,001,100280,
AFNE01.JPG,AFNE01.JPG,AFNE01.JPG,AFNE01.JPG,AFNE01.JPG,AFNE01.JPG,,,,,,,,,5,7,57,9,,,,,,,,,,,,,,,AFNE12.jpg,AFSA13.jpg,AFNE07.jpg,AFSA12.jpg,AFNE07.jpg,FN,3,num_2,32,num_8,0.950071829488,,,2017_Apr_26_1059,59.9969018035,FEMA4ImagesEEG,001,100280,
AFNE01.JPG,AFNE01.JPG,AFNE01.JPG,AFNE01.JPG,AFNE01.JPG,AFNE01.JPG,,,,,,,,,5,8,58,0,,,,,,,,,,,,,,,AFSA02.jpg,AFSA03.jpg,AFNE03.jpg,AFNE09.jpg,AFSA03.jpg,FS,4,num_6,16,num_6,0.850162566523,,,2017_Apr_26_1059,59.9969018035,FEMA4ImagesEEG,001,100280,
AFNE01.JPG,AFNE01.JPG,AFNE01.JPG,AFNE01.JPG,AFNE01.JPG,AFNE01.JPG,,,,,,,,,5,9,59,4,,,,,,,,,,,,,,,AFSA19.jpg,AFNE13.jpg,AFNE04.jpg,AFSA13.jpg,AFSA13.jpg,FS,4,num_4,16,num_4,0.850097135757,,,2017_Apr_26_1059,59.9969018035,FEMA4ImagesEEG,001,100280,
,,,,,,,,,,,,,,,,,,,,,,,,,,,,,,,,,,,,,,,,,,,space,4.83309347392,2017_Apr_26_1059,59.9969018035,FEMA4ImagesEEG,001,100280,
AFNE01.JPG,AFNE01.JPG,AFNE01.JPG,AFNE01.JPG,AFNE01.JPG,AFNE01.JPG,,,,,,,,,,,,,0,0,0,0,,,,,,,,,,,AMSA02.jpg,AMSA20.jpg,AMNE17.jpg,AMNE03.jpg,AMSA02.jpg,MS,2,num_8,32,num_4,1.33341918443,,,2017_Apr_26_1059,59.9969018035,FEMA4ImagesEEG,001,100280,
AFNE01.JPG,AFNE01.JPG,AFNE01.JPG,AFNE01.JPG,AFNE01.JPG,AFNE01.JPG,,,,,,,,,,,,,0,1,1,7,,,,,,,,,,,AMSA16.jpg,AMNE01.jpg,AMNE20.jpg,AMSA17.jpg,AMSA17.jpg,MS,2,num_4,32,num_2,1.13339891378,,,2017_Apr_26_1059,59.9969018035,FEMA4ImagesEEG,001,100280,
AFNE01.JPG,AFNE01.JPG,AFNE01.JPG,AFNE01.JPG,AFNE01.JPG,AFNE01.JPG,,,,,,,,,,,,,0,2,2,1,,,,,,,,,,,AMNE05.jpg,AMSA05.jpg,AMSA02.jpg,AMNE20.jpg,AMNE20.jpg,MN,1,num_4,32,num_8,1.20006806089,,,2017_Apr_26_1059,59.9969018035,FEMA4ImagesEEG,001,100280,
AFNE01.JPG,AFNE01.JPG,AFNE01.JPG,AFNE01.JPG,AFNE01.JPG,AFNE01.JPG,,,,,,,,,,,,,0,3,3,4,,,,,,,,,,,AMNE10.jpg,AMNE12.jpg,AMSA17.jpg,AMSA11.jpg,AMSA11.jpg,MS,2,num_4,16,num_4,0.850275787525,,,2017_Apr_26_1059,59.9969018035,FEMA4ImagesEEG,001,100280,
AFNE01.JPG,AFNE01.JPG,AFNE01.JPG,AFNE01.JPG,AFNE01.JPG,AFNE01.JPG,,,,,,,,,,,,,0,4,4,6,,,,,,,,,,,AMSA15.jpg,AMNE17.jpg,AMNE05.jpg,AMSA12.jpg,AMSA15.jpg,MS,2,num_8,32,num_6,1.51679822849,,,2017_Apr_26_1059,59.9969018035,FEMA4ImagesEEG,001,100280,
AFNE01.JPG,AFNE01.JPG,AFNE01.JPG,AFNE01.JPG,AFNE01.JPG,AFNE01.JPG,,,,,,,,,,,,,0,5,5,9,,,,,,,,,,,AMSA19.jpg,AMNE07.jpg,AMNE05.jpg,AMSA09.jpg,AMNE05.jpg,MN,1,num_2,32,num_6,0.966469615349,,,2017_Apr_26_1059,59.9969018035,FEMA4ImagesEEG,001,100280,
AFNE01.JPG,AFNE01.JPG,AFNE01.JPG,AFNE01.JPG,AFNE01.JPG,AFNE01.JPG,,,,,,,,,,,,,0,6,6,5,,,,,,,,,,,AMSA20.jpg,AMNE07.jpg,AMSA06.jpg,AMNE09.jpg,AMSA20.jpg,MS,2,num_8,16,num_8,1.16688567796,,,2017_Apr_26_1059,59.9969018035,FEMA4ImagesEEG,001,100280,
AFNE01.JPG,AFNE01.JPG,AFNE01.JPG,AFNE01.JPG,AFNE01.JPG,AFNE01.JPG,,,,,,,,,,,,,0,7,7,8,,,,,,,,,,,AMNE13.jpg,AMSA11.jpg,AMSA06.jpg,AMNE17.jpg,AMNE17.jpg,MN,1,num_4,32,num_2,1.30010882684,,,2017_Apr_26_1059,59.9969018035,FEMA4ImagesEEG,001,100280,
AFNE01.JPG,AFNE01.JPG,AFNE01.JPG,AFNE01.JPG,AFNE01.JPG,AFNE01.JPG,,,,,,,,,,,,,0,8,8,2,,,,,,,,,,,AMNE13.jpg,AMNE09.jpg,AMSA19.jpg,AMSA07.jpg,AMSA07.jpg,MS,2,num_4,16,num_4,1.0166020965,,,2017_Apr_26_1059,59.9969018035,FEMA4ImagesEEG,001,100280,
AFNE01.JPG,AFNE01.JPG,AFNE01.JPG,AFNE01.JPG,AFNE01.JPG,AFNE01.JPG,,,,,,,,,,,,,0,9,9,3,,,,,,,,,,,AMNE10.jpg,AMSA16.jpg,AMSA18.jpg,AMNE18.jpg,AMNE10.jpg,MN,1,num_8,16,num_8,1.26675677288,,,2017_Apr_26_1059,59.9969018035,FEMA4ImagesEEG,001,100280,
AFNE01.JPG,AFNE01.JPG,AFNE01.JPG,AFNE01.JPG,AFNE01.JPG,AFNE01.JPG,,,,,,,,,,,,,1,0,10,1,,,,,,,,,,,AMNE06.jpg,AMSA08.jpg,AMSA06.jpg,AMNE02.jpg,AMNE06.jpg,MN,1,num_8,32,num_6,0.96680093871,,,2017_Apr_26_1059,59.9969018035,FEMA4ImagesEEG,001,100280,
AFNE01.JPG,AFNE01.JPG,AFNE01.JPG,AFNE01.JPG,AFNE01.JPG,AFNE01.JPG,,,,,,,,,,,,,1,1,11,8,,,,,,,,,,,AMSA16.jpg,AMNE14.jpg,AMNE13.jpg,AMSA04.jpg,AMNE13.jpg,MN,1,num_2,32,num_8,0.950110638863,,,2017_Apr_26_1059,59.9969018035,FEMA4ImagesEEG,001,100280,
AFNE01.JPG,AFNE01.JPG,AFNE01.JPG,AFNE01.JPG,AFNE01.JPG,AFNE01.JPG,,,,,,,,,,,,,1,2,12,4,,,,,,,,,,,AMNE07.jpg,AMSA01.jpg,AMSA18.jpg,AMNE15.jpg,AMSA18.jpg,MS,2,num_2,16,num_2,1.08344861225,,,2017_Apr_26_1059,59.9969018035,FEMA4ImagesEEG,001,100280,
AFNE01.JPG,AFNE01.JPG,AFNE01.JPG,AFNE01.JPG,AFNE01.JPG,AFNE01.JPG,,,,,,,,,,,,,1,3,13,9,,,,,,,,,,,AMNE12.jpg,AMSA15.jpg,AMNE03.jpg,AMSA09.jpg,AMSA09.jpg,MS,2,num_4,32,num_6,0.850074363407,,,2017_Apr_26_1059,59.9969018035,FEMA4ImagesEEG,001,100280,
AFNE01.JPG,AFNE01.JPG,AFNE01.JPG,AFNE01.JPG,AFNE01.JPG,AFNE01.JPG,,,,,,,,,,,,,1,4,14,3,,,,,,,,,,,AMNE03.jpg,AMSA10.jpg,AMNE17.jpg,AMSA08.jpg,AMSA10.jpg,MS,2,num_6,32,num_8,1.35007516516,,,2017_Apr_26_1059,59.9969018035,FEMA4ImagesEEG,001,100280,
AFNE01.JPG,AFNE01.JPG,AFNE01.JPG,AFNE01.JPG,AFNE01.JPG,AFNE01.JPG,,,,,,,,,,,,,1,5,15,0,,,,,,,,,,,AMSA07.jpg,AMNE01.jpg,AMSA08.jpg,AMNE14.jpg,AMSA07.jpg,MS,2,num_8,16,num_8,1.08337997412,,,2017_Apr_26_1059,59.9969018035,FEMA4ImagesEEG,001,100280,
AFNE01.JPG,AFNE01.JPG,AFNE01.JPG,AFNE01.JPG,AFNE01.JPG,AFNE01.JPG,,,,,,,,,,,,,1,6,16,5,,,,,,,,,,,AMSA05.jpg,AMNE14.jpg,AMSA07.jpg,AMNE03.jpg,AMSA05.jpg,MS,2,num_8,16,num_8,2.11645875825,,,2017_Apr_26_1059,59.9969018035,FEMA4ImagesEEG,001,100280,
AFNE01.JPG,AFNE01.JPG,AFNE01.JPG,AFNE01.JPG,AFNE01.JPG,AFNE01.JPG,,,,,,,,,,,,,1,7,17,2,,,,,,,,,,,AMSA20.jpg,AMNE16.jpg,AMSA19.jpg,AMNE15.jpg,AMSA20.jpg,MS,2,num_8,32,num_4,1.35008222156,,,2017_Apr_26_1059,59.9969018035,FEMA4ImagesEEG,001,100280,
AFNE01.JPG,AFNE01.JPG,AFNE01.JPG,AFNE01.JPG,AFNE01.JPG,AFNE01.JPG,,,,,,,,,,,,,1,8,18,7,,,,,,,,,,,AMSA18.jpg,AMNE02.jpg,AMSA02.jpg,AMNE10.jpg,AMSA18.jpg,MS,2,num_8,32,num_2,1.23352692078,,,2017_Apr_26_1059,59.9969018035,FEMA4ImagesEEG,001,100280,
AFNE01.JPG,AFNE01.JPG,AFNE01.JPG,AFNE01.JPG,AFNE01.JPG,AFNE01.JPG,,,,,,,,,,,,,1,9,19,6,,,,,,,,,,,AMSA19.jpg,AMNE08.jpg,AMNE07.jpg,AMSA09.jpg,AMSA09.jpg,MS,2,num_4,32,num_2,1.38332650694,,,2017_Apr_26_1059,59.9969018035,FEMA4ImagesEEG,001,100280,
AFNE01.JPG,AFNE01.JPG,AFNE01.JPG,AFNE01.JPG,AFNE01.JPG,AFNE01.JPG,,,,,,,,,,,,,2,0,20,6,,,,,,,,,,,AMSA01.jpg,AMSA04.jpg,AMNE13.jpg,AMNE11.jpg,AMSA04.jpg,MS,2,num_6,16,num_6,1.01673071296,,,2017_Apr_26_1059,59.9969018035,FEMA4ImagesEEG,001,100280,
AFNE01.JPG,AFNE01.JPG,AFNE01.JPG,AFNE01.JPG,AFNE01.JPG,AFNE01.JPG,,,,,,,,,,,,,2,1,21,9,,,,,,,,,,,AMNE09.jpg,AMSA09.jpg,AMNE16.jpg,AMSA06.jpg,AMSA09.jpg,MS,2,num_6,32,num_8,1.45008866827,,,2017_Apr_26_1059,59.9969018035,FEMA4ImagesEEG,001,100280,
AFNE01.JPG,AFNE01.JPG,AFNE01.JPG,AFNE01.JPG,AFNE01.JPG,AFNE01.JPG,,,,,,,,,,,,,2,2,22,8,,,,,,,,,,,AMNE18.jpg,AMSA16.jpg,AMNE10.jpg,AMSA14.jpg,AMNE18.jpg,MN,1,num_8,32,num_6,1.30016431457,,,2017_Apr_26_1059,59.9969018035,FEMA4ImagesEEG,001,100280,
AFNE01.JPG,AFNE01.JPG,AFNE01.JPG,AFNE01.JPG,AFNE01.JPG,AFNE01.JPG,,,,,,,,,,,,,2,3,23,0,,,,,,,,,,,AMSA09.jpg,AMSA10.jpg,AMNE18.jpg,AMNE09.jpg,AMSA10.jpg,MS,2,num_6,32,num_8,1.2500744916,,,2017_Apr_26_1059,59.9969018035,FEMA4ImagesEEG,001,100280,
AFNE01.JPG,AFNE01.JPG,AFNE01.JPG,AFNE01.JPG,AFNE01.JPG,AFNE01.JPG,,,,,,,,,,,,,2,4,24,7,,,,,,,,,,,AMSA03.jpg,AMSA08.jpg,AMNE08.jpg,AMNE10.jpg,AMNE08.jpg,MN,1,num_2,16,num_2,1.2334563582,,,2017_Apr_26_1059,59.9969018035,FEMA4ImagesEEG,001,100280,
AFNE01.JPG,AFNE01.JPG,AFNE01.JPG,AFNE01.JPG,AFNE01.JPG,AFNE01.JPG,,,,,,,,,,,,,2,5,25,2,,,,,,,,,,,AMNE02.jpg,AMSA11.jpg,AMSA14.jpg,AMNE17.jpg,AMNE17.jpg,MN,1,num_4,16,num_4,1.13343611953,,,2017_Apr_26_1059,59.9969018035,FEMA4ImagesEEG,001,100280,
AFNE01.JPG,AFNE01.JPG,AFNE01.JPG,AFNE01.JPG,AFNE01.JPG,AFNE01.JPG,,,,,,,,,,,,,2,6,26,3,,,,,,,,,,,AMSA01.jpg,AMSA20.jpg,AMNE18.jpg,AMNE13.jpg,AMNE13.jpg,MN,1,num_4,32,num_8,0.966728451662,,,2017_Apr_26_1059,59.9969018035,FEMA4ImagesEEG,001,100280,
AFNE01.JPG,AFNE01.JPG,AFNE01.JPG,AFNE01.JPG,AFNE01.JPG,AFNE01.JPG,,,,,,,,,,,,,2,7,27,5,,,,,,,,,,,AMNE16.jpg,AMNE19.jpg,AMSA09.jpg,AMSA19.jpg,AMNE16.jpg,MN,1,num_8,16,num_8,0.833447569865,,,2017_Apr_26_1059,59.9969018035,FEMA4ImagesEEG,001,100280,
AFNE01.JPG,AFNE01.JPG,AFNE01.JPG,AFNE01.JPG,AFNE01.JPG,AFNE01.JPG,,,,,,,,,,,,,2,8,28,1,,,,,,,,,,,AMNE17.jpg,AMSA02.jpg,AMNE12.jpg,AMSA03.jpg,AMSA03.jpg,MS,2,num_4,16,num_4,1.21654186177,,,2017_Apr_26_1059,59.9969018035,FEMA4ImagesEEG,001,100280,
AFNE01.JPG,AFNE01.JPG,AFNE01.JPG,AFNE01.JPG,AFNE01.JPG,AFNE01.JPG,,,,,,,,,,,,,2,9,29,4,,,,,,,,,,,AMNE17.jpg,AMSA20.jpg,AMNE16.jpg,AMSA16.jpg,AMNE16.jpg,MN,1,num_2,32,num_6,1.40010372701,,,2017_Apr_26_1059,59.9969018035,FEMA4ImagesEEG,001,100280,
AFNE01.JPG,AFNE01.JPG,AFNE01.JPG,AFNE01.JPG,AFNE01.JPG,AFNE01.JPG,,,,,,,,,,,,,3,0,30,9,,,,,,,,,,,AMNE03.jpg,AMSA05.jpg,AMNE07.jpg,AMSA16.jpg,AMNE07.jpg,MN,1,num_2,32,num_8,1.28340601816,,,2017_Apr_26_1059,59.9969018035,FEMA4ImagesEEG,001,100280,
AFNE01.JPG,AFNE01.JPG,AFNE01.JPG,AFNE01.JPG,AFNE01.JPG,AFNE01.JPG,,,,,,,,,,,,,3,1,31,3,,,,,,,,,,,AMNE08.jpg,AMSA18.jpg,AMSA14.jpg,AMNE07.jpg,AMNE08.jpg,MN,1,num_8,16,num_8,1.56673954928,,,2017_Apr_26_1059,59.9969018035,FEMA4ImagesEEG,001,100280,
AFNE01.JPG,AFNE01.JPG,AFNE01.JPG,AFNE01.JPG,AFNE01.JPG,AFNE01.JPG,,,,,,,,,,,,,3,2,32,2,,,,,,,,,,,AMSA02.jpg,AMNE05.jpg,AMNE20.jpg,AMSA12.jpg,AMNE05.jpg,MN,1,num_6,32,num_2,0.950083376141,,,2017_Apr_26_1059,59.9969018035,FEMA4ImagesEEG,001,100280,
AFNE01.JPG,AFNE01.JPG,AFNE01.JPG,AFNE01.JPG,AFNE01.JPG,AFNE01.JPG,,,,,,,,,,,,,3,3,33,1,,,,,,,,,,,AMSA02.jpg,AMNE16.jpg,AMSA06.jpg,AMNE10.jpg,AMSA02.jpg,MS,2,num_8,16,num_8,0.933604443329,,,2017_Apr_26_1059,59.9969018035,FEMA4ImagesEEG,001,100280,
AFNE01.JPG,AFNE01.JPG,AFNE01.JPG,AFNE01.JPG,AFNE01.JPG,AFNE01.JPG,,,,,,,,,,,,,3,4,34,4,,,,,,,,,,,AMSA19.jpg,AMSA13.jpg,AMNE03.jpg,AMNE15.jpg,AMNE15.jpg,MN,1,num_4,32,num_6,1.58338879445,,,2017_Apr_26_1059,59.9969018035,FEMA4ImagesEEG,001,100280,
AFNE01.JPG,AFNE01.JPG,AFNE01.JPG,AFNE01.JPG,AFNE01.JPG,AFNE01.JPG,,,,,,,,,,,,,3,5,35,8,,,,,,,,,,,AMSA06.jpg,AMNE19.jpg,AMNE10.jpg,AMSA11.jpg,AMNE19.jpg,MN,1,num_6,32,num_8,0.85018277308,,,2017_Apr_26_1059,59.9969018035,FEMA4ImagesEEG,001,100280,
AFNE01.JPG,AFNE01.JPG,AFNE01.JPG,AFNE01.JPG,AFNE01.JPG,AFNE01.JPG,,,,,,,,,,,,,3,6,36,0,,,,,,,,,,,AMSA17.jpg,AMSA10.jpg,AMNE15.jpg,AMNE05.jpg,AMNE05.jpg,MN,1,num_4,32,num_2,1.10008855606,,,2017_Apr_26_1059,59.9969018035,FEMA4ImagesEEG,001,100280,
AFNE01.JPG,AFNE01.JPG,AFNE01.JPG,AFNE01.JPG,AFNE01.JPG,AFNE01.JPG,,,,,,,,,,,,,3,7,37,6,,,,,,,,,,,AMSA04.jpg,AMNE20.jpg,AMSA18.jpg,AMNE12.jpg,AMSA18.jpg,MS,2,num_2,16,num_2,1.38351381849,,,2017_Apr_26_1059,59.9969018035,FEMA4ImagesEEG,001,100280,
AFNE01.JPG,AFNE01.JPG,AFNE01.JPG,AFNE01.JPG,AFNE01.JPG,AFNE01.JPG,,,,,,,,,,,,,3,8,38,5,,,,,,,,,,,AMNE02.jpg,AMSA04.jpg,AMSA03.jpg,AMNE06.jpg,AMSA04.jpg,MS,2,num_6,32,num_2,0.750130781438,,,2017_Apr_26_1059,59.9969018035,FEMA4ImagesEEG,001,100280,
AFNE01.JPG,AFNE01.JPG,AFNE01.JPG,AFNE01.JPG,AFNE01.JPG,AFNE01.JPG,,,,,,,,,,,,,3,9,39,7,,,,,,,,,,,AMNE20.jpg,AMNE04.jpg,AMSA09.jpg,AMSA13.jpg,AMSA13.jpg,MS,2,num_4,32,num_8,0.883465226507,,,2017_Apr_26_1059,59.9969018035,FEMA4ImagesEEG,001,100280,
AFNE01.JPG,AFNE01.JPG,AFNE01.JPG,AFNE01.JPG,AFNE01.JPG,AFNE01.JPG,,,,,,,,,,,,,4,0,40,4,,,,,,,,,,,AMSA17.jpg,AMNE17.jpg,AMNE04.jpg,AMSA02.jpg,AMNE04.jpg,MN,1,num_2,16,num_2,0.633475730778,,,2017_Apr_26_1059,59.9969018035,FEMA4ImagesEEG,001,100280,
AFNE01.JPG,AFNE01.JPG,AFNE01.JPG,AFNE01.JPG,AFNE01.JPG,AFNE01.JPG,,,,,,,,,,,,,4,1,41,3,,,,,,,,,,,AMSA03.jpg,AMNE02.jpg,AMSA02.jpg,AMNE01.jpg,AMNE01.jpg,MN,1,num_4,32,num_6,0.816764005576,,,2017_Apr_26_1059,59.9969018035,FEMA4ImagesEEG,001,100280,
AFNE01.JPG,AFNE01.JPG,AFNE01.JPG,AFNE01.JPG,AFNE01.JPG,AFNE01.JPG,,,,,,,,,,,,,4,2,42,7,,,,,,,,,,,AMSA09.jpg,AMSA19.jpg,AMNE10.jpg,AMNE06.jpg,AMNE10.jpg,MN,1,num_2,32,num_6,1.3667202408,,,2017_Apr_26_1059,59.9969018035,FEMA4ImagesEEG,001,100280,
AFNE01.JPG,AFNE01.JPG,AFNE01.JPG,AFNE01.JPG,AFNE01.JPG,AFNE01.JPG,,,,,,,,,,,,,4,3,43,1,,,,,,,,,,,AMNE01.jpg,AMSA05.jpg,AMNE13.jpg,AMSA12.jpg,AMNE01.jpg,MN,1,num_8,32,num_2,1.10014019499,,,2017_Apr_26_1059,59.9969018035,FEMA4ImagesEEG,001,100280,
AFNE01.JPG,AFNE01.JPG,AFNE01.JPG,AFNE01.JPG,AFNE01.JPG,AFNE01.JPG,,,,,,,,,,,,,4,4,44,6,,,,,,,,,,,AMSA14.jpg,AMSA20.jpg,AMNE03.jpg,AMNE08.jpg,AMNE08.jpg,MN,1,num_4,32,num_8,1.08339729405,,,2017_Apr_26_1059,59.9969018035,FEMA4ImagesEEG,001,100280,
AFNE01.JPG,AFNE01.JPG,AFNE01.JPG,AFNE01.JPG,AFNE01.JPG,AFNE01.JPG,,,,,,,,,,,,,4,5,45,0,,,,,,,,,,,AMNE02.jpg,AMSA18.jpg,AMNE19.jpg,AMSA01.jpg,AMSA18.jpg,MS,2,num_6,32,num_4,0.95009171532,,,2017_Apr_26_1059,59.9969018035,FEMA4ImagesEEG,001,100280,
AFNE01.JPG,AFNE01.JPG,AFNE01.JPG,AFNE01.JPG,AFNE01.JPG,AFNE01.JPG,,,,,,,,,,,,,4,6,46,9,,,,,,,,,,,AMNE20.jpg,AMSA10.jpg,AMNE02.jpg,AMSA15.jpg,AMNE20.jpg,MN,1,num_8,16,num_8,1.40000750532,,,2017_Apr_26_1059,59.9969018035,FEMA4ImagesEEG,001,100280,
AFNE01.JPG,AFNE01.JPG,AFNE01.JPG,AFNE01.JPG,AFNE01.JPG,AFNE01.JPG,,,,,,,,,,,,,4,7,47,5,,,,,,,,,,,AMSA14.jpg,AMSA13.jpg,AMNE13.jpg,AMNE06.jpg,AMNE13.jpg,MN,1,num_2,32,num_4,1.01676439052,,,2017_Apr_26_1059,59.9969018035,FEMA4ImagesEEG,001,100280,
AFNE01.JPG,AFNE01.JPG,AFNE01.JPG,AFNE01.JPG,AFNE01.JPG,AFNE01.JPG,,,,,,,,,,,,,4,8,48,8,,,,,,,,,,,AMNE19.jpg,AMSA04.jpg,AMSA14.jpg,AMNE13.jpg,AMSA04.jpg,MS,2,num_6,32,num_2,0.950128921075,,,2017_Apr_26_1059,59.9969018035,FEMA4ImagesEEG,001,100280,
AFNE01.JPG,AFNE01.JPG,AFNE01.JPG,AFNE01.JPG,AFNE01.JPG,AFNE01.JPG,,,,,,,,,,,,,4,9,49,2,,,,,,,,,,,AMSA17.jpg,AMSA01.jpg,AMNE04.jpg,AMNE12.jpg,AMSA01.jpg,MS,2,num_6,16,num_6,0.733457801514,,,2017_Apr_26_1059,59.9969018035,FEMA4ImagesEEG,001,100280,
AFNE01.JPG,AFNE01.JPG,AFNE01.JPG,AFNE01.JPG,AFNE01.JPG,AFNE01.JPG,,,,,,,,,,,,,5,0,50,6,,,,,,,,,,,AMSA01.jpg,AMNE19.jpg,AMNE14.jpg,AMSA07.jpg,AMSA07.jpg,MS,2,num_4,32,num_2,1.70004448644,,,2017_Apr_26_1059,59.9969018035,FEMA4ImagesEEG,001,100280,
AFNE01.JPG,AFNE01.JPG,AFNE01.JPG,AFNE01.JPG,AFNE01.JPG,AFNE01.JPG,,,,,,,,,,,,,5,1,51,0,,,,,,,,,,,AMNE13.jpg,AMSA17.jpg,AMSA11.jpg,AMNE17.jpg,AMNE17.jpg,MN,1,num_4,32,num_8,0.950126675889,,,2017_Apr_26_1059,59.9969018035,FEMA4ImagesEEG,001,100280,
AFNE01.JPG,AFNE01.JPG,AFNE01.JPG,AFNE01.JPG,AFNE01.JPG,AFNE01.JPG,,,,,,,,,,,,,5,2,52,3,,,,,,,,,,,AMNE09.jpg,AMSA13.jpg,AMSA02.jpg,AMNE06.jpg,AMSA13.jpg,MS,2,num_6,16,num_6,1.06673329487,,,2017_Apr_26_1059,59.9969018035,FEMA4ImagesEEG,001,100280,
AFNE01.JPG,AFNE01.JPG,AFNE01.JPG,AFNE01.JPG,AFNE01.JPG,AFNE01.JPG,,,,,,,,,,,,,5,3,53,4,,,,,,,,,,,AMNE17.jpg,AMSA03.jpg,AMNE03.jpg,AMSA15.jpg,AMSA03.jpg,MS,2,num_6,16,num_6,0.916777508683,,,2017_Apr_26_1059,59.9969018035,FEMA4ImagesEEG,001,100280,
AFNE01.JPG,AFNE01.JPG,AFNE01.JPG,AFNE01.JPG,AFNE01.JPG,AFNE01.JPG,,,,,,,,,,,,,5,4,54,2,,,,,,,,,,,AMSA06.jpg,AMNE17.jpg,AMNE03.jpg,AMSA11.jpg,AMSA06.jpg,MS,2,num_8,32,num_2,1.83338406356,,,2017_Apr_26_1059,59.9969018035,FEMA4ImagesEEG,001,100280,
AFNE01.JPG,AFNE01.JPG,AFNE01.JPG,AFNE01.JPG,AFNE01.JPG,AFNE01.JPG,,,,,,,,,,,,,5,5,55,5,,,,,,,,,,,AMNE16.jpg,AMNE13.jpg,AMSA02.jpg,AMSA03.jpg,AMNE13.jpg,MN,1,num_6,32,num_8,0.866732909926,,,2017_Apr_26_1059,59.9969018035,FEMA4ImagesEEG,001,100280,
AFNE01.JPG,AFNE01.JPG,AFNE01.JPG,AFNE01.JPG,AFNE01.JPG,AFNE01.JPG,,,,,,,,,,,,,5,6,56,1,,,,,,,,,,,AMNE04.jpg,AMNE20.jpg,AMSA18.jpg,AMSA14.jpg,AMNE20.jpg,MN,1,num_6,16,num_6,0.633452958427,,,2017_Apr_26_1059,59.9969018035,FEMA4ImagesEEG,001,100280,
AFNE01.JPG,AFNE01.JPG,AFNE01.JPG,AFNE01.JPG,AFNE01.JPG,AFNE01.JPG,,,,,,,,,,,,,5,7,57,9,,,,,,,,,,,AMSA08.jpg,AMNE13.jpg,AMNE03.jpg,AMSA17.jpg,AMSA17.jpg,MS,2,num_4,16,num_4,1.75003391807,,,2017_Apr_26_1059,59.9969018035,FEMA4ImagesEEG,001,100280,
AFNE01.JPG,AFNE01.JPG,AFNE01.JPG,AFNE01.JPG,AFNE01.JPG,AFNE01.JPG,,,,,,,,,,,,,5,8,58,8,,,,,,,,,,,AMSA01.jpg,AMSA02.jpg,AMNE18.jpg,AMNE02.jpg,AMNE02.jpg,MN,1,num_4,32,num_6,1.53339615546,,,2017_Apr_26_1059,59.9969018035,FEMA4ImagesEEG,001,100280,
AFNE01.JPG,AFNE01.JPG,AFNE01.JPG,AFNE01.JPG,AFNE01.JPG,AFNE01.JPG,,,,,,,,,,,,,5,9,59,7,,,,,,,,,,,AMSA18.jpg,AMNE10.jpg,AMSA17.jpg,AMNE18.jpg,AMSA17.jpg,MS,2,num_2,16,num_2,1.9334087926,,,2017_Apr_26_1059,59.9969018035,FEMA4ImagesEEG,001,100280,
,,,,,,,,,,,,,,,,,,,,,,,,,,,,,,,,,,,,,,,,,,,space,6.58298947429,2017_Apr_26_1059,59.9969018035,FEMA4ImagesEEG,001,100280,
AFNE01.JPG,AFNE01.JPG,AFNE01.JPG,AFNE01.JPG,AFNE01.JPG,AFNE01.JPG,,,,,,,,,,,,,,,,,0,0,0,9,,,,,,,AFNE20.jpg,AFSA17.jpg,AFSA03.jpg,AFNE13.jpg,AFNE20.jpg,FN,3,num_8,32,num_2,1.18344575772,,,2017_Apr_26_1059,59.9969018035,FEMA4ImagesEEG,001,100280,
AFNE01.JPG,AFNE01.JPG,AFNE01.JPG,AFNE01.JPG,AFNE01.JPG,AFNE01.JPG,,,,,,,,,,,,,,,,,0,1,1,3,,,,,,,AFNE06.jpg,AFNE09.jpg,AFSA16.jpg,AFSA14.jpg,AFSA16.jpg,FS,4,num_2,32,num_4,1.46674881864,,,2017_Apr_26_1059,59.9969018035,FEMA4ImagesEEG,001,100280,
AFNE01.JPG,AFNE01.JPG,AFNE01.JPG,AFNE01.JPG,AFNE01.JPG,AFNE01.JPG,,,,,,,,,,,,,,,,,0,2,2,7,,,,,,,AFNE15.jpg,AFSA08.jpg,AFNE14.jpg,AFSA20.jpg,AFNE14.jpg,FN,3,num_2,32,num_8,1.03358843853,,,2017_Apr_26_1059,59.9969018035,FEMA4ImagesEEG,001,100280,
AFNE01.JPG,AFNE01.JPG,AFNE01.JPG,AFNE01.JPG,AFNE01.JPG,AFNE01.JPG,,,,,,,,,,,,,,,,,0,3,3,1,,,,,,,AFSA17.jpg,AFSA06.jpg,AFNE19.jpg,AFNE16.jpg,AFNE19.jpg,FN,3,num_2,16,num_2,1.68338433618,,,2017_Apr_26_1059,59.9969018035,FEMA4ImagesEEG,001,100280,
AFNE01.JPG,AFNE01.JPG,AFNE01.JPG,AFNE01.JPG,AFNE01.JPG,AFNE01.JPG,,,,,,,,,,,,,,,,,0,4,4,4,,,,,,,AFNE07.jpg,AFSA17.jpg,AFSA16.jpg,AFNE14.jpg,AFSA16.jpg,FS,4,num_2,32,num_8,1.31667564192,,,2017_Apr_26_1059,59.9969018035,FEMA4ImagesEEG,001,100280,
AFNE01.JPG,AFNE01.JPG,AFNE01.JPG,AFNE01.JPG,AFNE01.JPG,AFNE01.JPG,,,,,,,,,,,,,,,,,0,5,5,2,,,,,,,AFNE11.jpg,AFSA09.jpg,AFNE19.jpg,AFSA18.jpg,AFSA09.jpg,FS,4,num_6,16,num_6,0.883459132514,,,2017_Apr_26_1059,59.9969018035,FEMA4ImagesEEG,001,100280,
AFNE01.JPG,AFNE01.JPG,AFNE01.JPG,AFNE01.JPG,AFNE01.JPG,AFNE01.JPG,,,,,,,,,,,,,,,,,0,6,6,6,,,,,,,AFSA10.jpg,AFNE18.jpg,AFSA13.jpg,AFNE09.jpg,AFNE09.jpg,FN,3,num_4,32,num_8,1.40008223744,,,2017_Apr_26_1059,59.9969018035,FEMA4ImagesEEG,001,100280,
AFNE01.JPG,AFNE01.JPG,AFNE01.JPG,AFNE01.JPG,AFNE01.JPG,AFNE01.JPG,,,,,,,,,,,,,,,,,0,7,7,5,,,,,,,AFSA19.jpg,AFNE11.jpg,AFSA02.jpg,AFNE09.jpg,AFNE11.jpg,FN,3,num_6,32,num_2,1.21674200287,,,2017_Apr_26_1059,59.9969018035,FEMA4ImagesEEG,001,100280,
AFNE01.JPG,AFNE01.JPG,AFNE01.JPG,AFNE01.JPG,AFNE01.JPG,AFNE01.JPG,,,,,,,,,,,,,,,,,0,8,8,0,,,,,,,AFSA05.jpg,AFNE08.jpg,AFSA03.jpg,AFNE13.jpg,AFNE08.jpg,FN,3,num_6,16,num_6,1.20020662015,,,2017_Apr_26_1059,59.9969018035,FEMA4ImagesEEG,001,100280,
AFNE01.JPG,AFNE01.JPG,AFNE01.JPG,AFNE01.JPG,AFNE01.JPG,AFNE01.JPG,,,,,,,,,,,,,,,,,0,9,9,8,,,,,,,AFSA07.jpg,AFNE20.jpg,AFSA16.jpg,AFNE02.jpg,AFNE20.jpg,FN,3,num_6,32,num_8,1.6834151271,,,2017_Apr_26_1059,59.9969018035,FEMA4ImagesEEG,001,100280,
AFNE01.JPG,AFNE01.JPG,AFNE01.JPG,AFNE01.JPG,AFNE01.JPG,AFNE01.JPG,,,,,,,,,,,,,,,,,1,0,10,8,,,,,,,AFNE20.jpg,AFSA13.jpg,AFNE09.jpg,AFSA03.jpg,AFNE20.jpg,FN,3,num_8,32,num_2,1.16679555026,,,2017_Apr_26_1059,59.9969018035,FEMA4ImagesEEG,001,100280,
AFNE01.JPG,AFNE01.JPG,AFNE01.JPG,AFNE01.JPG,AFNE01.JPG,AFNE01.JPG,,,,,,,,,,,,,,,,,1,1,11,2,,,,,,,AFSA14.jpg,AFNE13.jpg,AFNE05.jpg,AFSA13.jpg,AFSA13.jpg,FS,4,num_4,16,num_4,1.41672987898,,,2017_Apr_26_1059,59.9969018035,FEMA4ImagesEEG,001,100280,
AFNE01.JPG,AFNE01.JPG,AFNE01.JPG,AFNE01.JPG,AFNE01.JPG,AFNE01.JPG,,,,,,,,,,,,,,,,,1,2,12,1,,,,,,,AFSA14.jpg,AFSA12.jpg,AFNE09.jpg,AFNE13.jpg,AFSA12.jpg,FS,4,num_6,32,num_2,1.23345732037,,,2017_Apr_26_1059,59.9969018035,FEMA4ImagesEEG,001,100280,
AFNE01.JPG,AFNE01.JPG,AFNE01.JPG,AFNE01.JPG,AFNE01.JPG,AFNE01.JPG,,,,,,,,,,,,,,,,,1,3,13,4,,,,,,,AFNE13.jpg,AFSA16.jpg,AFSA14.jpg,AFNE06.jpg,AFSA16.jpg,FS,4,num_6,32,num_8,0.81681596546,,,2017_Apr_26_1059,59.9969018035,FEMA4ImagesEEG,001,100280,
AFNE01.JPG,AFNE01.JPG,AFNE01.JPG,AFNE01.JPG,AFNE01.JPG,AFNE01.JPG,,,,,,,,,,,,,,,,,1,4,14,7,,,,,,,AFNE12.jpg,AFSA06.jpg,AFNE08.jpg,AFSA01.jpg,AFSA06.jpg,FS,4,num_6,16,num_6,1.21670736303,,,2017_Apr_26_1059,59.9969018035,FEMA4ImagesEEG,001,100280,
AFNE01.JPG,AFNE01.JPG,AFNE01.JPG,AFNE01.JPG,AFNE01.JPG,AFNE01.JPG,,,,,,,,,,,,,,,,,1,5,15,6,,,,,,,AFSA17.jpg,AFNE18.jpg,AFSA10.jpg,AFNE19.jpg,AFNE19.jpg,FN,3,num_4,32,num_2,4.61632709485,,,2017_Apr_26_1059,59.9969018035,FEMA4ImagesEEG,001,100280,
AFNE01.JPG,AFNE01.JPG,AFNE01.JPG,AFNE01.JPG,AFNE01.JPG,AFNE01.JPG,,,,,,,,,,,,,,,,,1,6,16,3,,,,,,,AFSA02.jpg,AFSA17.jpg,AFNE19.jpg,AFNE06.jpg,AFSA17.jpg,FS,4,num_6,16,num_6,0.533461265499,,,2017_Apr_26_1059,59.9969018035,FEMA4ImagesEEG,001,100280,
AFNE01.JPG,AFNE01.JPG,AFNE01.JPG,AFNE01.JPG,AFNE01.JPG,AFNE01.JPG,,,,,,,,,,,,,,,,,1,7,17,5,,,,,,,AFNE19.jpg,AFSA01.jpg,AFNE13.jpg,AFSA03.jpg,AFNE19.jpg,FN,3,num_8,32,num_2,0.716925305314,,,2017_Apr_26_1059,59.9969018035,FEMA4ImagesEEG,001,100280,
AFNE01.JPG,AFNE01.JPG,AFNE01.JPG,AFNE01.JPG,AFNE01.JPG,AFNE01.JPG,,,,,,,,,,,,,,,,,1,8,18,0,,,,,,,AFNE20.jpg,AFNE13.jpg,AFSA16.jpg,AFSA04.jpg,AFNE13.jpg,FN,3,num_6,16,num_6,1.00007473223,,,2017_Apr_26_1059,59.9969018035,FEMA4ImagesEEG,001,100280,
AFNE01.JPG,AFNE01.JPG,AFNE01.JPG,AFNE01.JPG,AFNE01.JPG,AFNE01.JPG,,,,,,,,,,,,,,,,,1,9,19,9,,,,,,,AFSA11.jpg,AFNE08.jpg,AFNE18.jpg,AFSA02.jpg,AFSA02.jpg,FS,4,num_4,32,num_2,0.816764967865,,,2017_Apr_26_1059,59.9969018035,FEMA4ImagesEEG,001,100280,
AFNE01.JPG,AFNE01.JPG,AFNE01.JPG,AFNE01.JPG,AFNE01.JPG,AFNE01.JPG,,,,,,,,,,,,,,,,,2,0,20,4,,,,,,,AFSA16.jpg,AFNE10.jpg,AFNE06.jpg,AFSA17.jpg,AFSA16.jpg,FS,4,num_8,32,num_2,1.78378914099,,,2017_Apr_26_1059,59.9969018035,FEMA4ImagesEEG,001,100280,
AFNE01.JPG,AFNE01.JPG,AFNE01.JPG,AFNE01.JPG,AFNE01.JPG,AFNE01.JPG,,,,,,,,,,,,,,,,,2,1,21,6,,,,,,,AFNE01.jpg,AFNE07.jpg,AFSA19.jpg,AFSA16.jpg,AFSA16.jpg,FS,4,num_4,16,num_4,0.783431196236,,,2017_Apr_26_1059,59.9969018035,FEMA4ImagesEEG,001,100280,
AFNE01.JPG,AFNE01.JPG,AFNE01.JPG,AFNE01.JPG,AFNE01.JPG,AFNE01.JPG,,,,,,,,,,,,,,,,,2,2,22,0,,,,,,,AFSA01.jpg,AFSA17.jpg,AFNE09.jpg,AFNE10.jpg,AFNE10.jpg,FN,3,num_4,16,num_4,0.900123131811,,,2017_Apr_26_1059,59.9969018035,FEMA4ImagesEEG,001,100280,
AFNE01.JPG,AFNE01.JPG,AFNE01.JPG,AFNE01.JPG,AFNE01.JPG,AFNE01.JPG,,,,,,,,,,,,,,,,,2,3,23,5,,,,,,,AFSA16.jpg,AFNE20.jpg,AFSA11.jpg,AFNE09.jpg,AFNE09.jpg,FN,3,num_4,32,num_6,1.55015573488,,,2017_Apr_26_1059,59.9969018035,FEMA4ImagesEEG,001,100280,
AFNE01.JPG,AFNE01.JPG,AFNE01.JPG,AFNE01.JPG,AFNE01.JPG,AFNE01.JPG,,,,,,,,,,,,,,,,,2,4,24,3,,,,,,,AFNE12.jpg,AFNE10.jpg,AFSA02.jpg,AFSA01.jpg,AFNE10.jpg,FN,3,num_6,32,num_8,0.866789680789,,,2017_Apr_26_1059,59.9969018035,FEMA4ImagesEEG,001,100280,
AFNE01.JPG,AFNE01.JPG,AFNE01.JPG,AFNE01.JPG,AFNE01.JPG,AFNE01.JPG,,,,,,,,,,,,,,,,,2,5,25,7,,,,,,,AFSA16.jpg,AFNE05.jpg,AFSA20.jpg,AFNE15.jpg,AFNE05.jpg,FN,3,num_6,32,num_8,1.31691266818,,,2017_Apr_26_1059,59.9969018035,FEMA4ImagesEEG,001,100280,
AFNE01.JPG,AFNE01.JPG,AFNE01.JPG,AFNE01.JPG,AFNE01.JPG,AFNE01.JPG,,,,,,,,,,,,,,,,,2,6,26,9,,,,,,,AFNE18.jpg,AFSA02.jpg,AFSA12.jpg,AFNE04.jpg,AFNE18.jpg,FN,3,num_8,16,num_8,0.783500796533,,,2017_Apr_26_1059,59.9969018035,FEMA4ImagesEEG,001,100280,
AFNE01.JPG,AFNE01.JPG,AFNE01.JPG,AFNE01.JPG,AFNE01.JPG,AFNE01.JPG,,,,,,,,,,,,,,,,,2,7,27,1,,,,,,,AFNE16.jpg,AFSA04.jpg,AFNE15.jpg,AFSA10.jpg,AFNE15.jpg,FN,3,num_2,16,num_2,0.816750534577,,,2017_Apr_26_1059,59.9969018035,FEMA4ImagesEEG,001,100280,
AFNE01.JPG,AFNE01.JPG,AFNE01.JPG,AFNE01.JPG,AFNE01.JPG,AFNE01.JPG,,,,,,,,,,,,,,,,,2,8,28,8,,,,,,,AFNE04.jpg,AFNE18.jpg,AFSA19.jpg,AFSA02.jpg,AFNE04.jpg,FN,3,num_8,16,num_8,0.899986496777,,,2017_Apr_26_1059,59.9969018035,FEMA4ImagesEEG,001,100280,
AFNE01.JPG,AFNE01.JPG,AFNE01.JPG,AFNE01.JPG,AFNE01.JPG,AFNE01.JPG,,,,,,,,,,,,,,,,,2,9,29,2,,,,,,,AFNE04.jpg,AFSA15.jpg,AFSA09.jpg,AFNE06.jpg,AFSA09.jpg,FS,4,num_2,32,num_6,1.20008506009,,,2017_Apr_26_1059,59.9969018035,FEMA4ImagesEEG,001,100280,
AFNE01.JPG,AFNE01.JPG,AFNE01.JPG,AFNE01.JPG,AFNE01.JPG,AFNE01.JPG,,,,,,,,,,,,,,,,,3,0,30,5,,,,,,,AFNE01.jpg,AFSA12.jpg,AFSA13.jpg,AFNE10.jpg,AFSA12.jpg,FS,4,num_6,16,num_6,0.933495071367,,,2017_Apr_26_1059,59.9969018035,FEMA4ImagesEEG,001,100280,
AFNE01.JPG,AFNE01.JPG,AFNE01.JPG,AFNE01.JPG,AFNE01.JPG,AFNE01.JPG,,,,,,,,,,,,,,,,,3,1,31,4,,,,,,,AFNE17.jpg,AFSA04.jpg,AFSA17.jpg,AFNE05.jpg,AFNE05.jpg,FN,3,num_4,32,num_6,1.71656896418,,,2017_Apr_26_1059,59.9969018035,FEMA4ImagesEEG,001,100280,
AFNE01.JPG,AFNE01.JPG,AFNE01.JPG,AFNE01.JPG,AFNE01.JPG,AFNE01.JPG,,,,,,,,,,,,,,,,,3,2,32,6,,,,,,,AFSA02.jpg,AFNE13.jpg,AFNE18.jpg,AFSA14.jpg,AFNE18.jpg,FN,3,num_2,32,num_6,1.61668664333,,,2017_Apr_26_1059,59.9969018035,FEMA4ImagesEEG,001,100280,
AFNE01.JPG,AFNE01.JPG,AFNE01.JPG,AFNE01.JPG,AFNE01.JPG,AFNE01.JPG,,,,,,,,,,,,,,,,,3,3,33,9,,,,,,,AFSA04.jpg,AFNE19.jpg,AFNE15.jpg,AFSA02.jpg,AFSA04.jpg,FS,4,num_8,32,num_2,0.766740254825,,,2017_Apr_26_1059,59.9969018035,FEMA4ImagesEEG,001,100280,
AFNE01.JPG,AFNE01.JPG,AFNE01.JPG,AFNE01.JPG,AFNE01.JPG,AFNE01.JPG,,,,,,,,,,,,,,,,,3,4,34,7,,,,,,,AFSA01.jpg,AFNE11.jpg,AFSA16.jpg,AFNE02.jpg,AFNE11.jpg,FN,3,num_6,16,num_6,1.06672752148,,,2017_Apr_26_1059,59.9969018035,FEMA4ImagesEEG,001,100280,
AFNE01.JPG,AFNE01.JPG,AFNE01.JPG,AFNE01.JPG,AFNE01.JPG,AFNE01.JPG,,,,,,,,,,,,,,,,,3,5,35,0,,,,,,,AFSA07.jpg,AFSA03.jpg,AFNE17.jpg,AFNE01.jpg,AFNE17.jpg,FN,3,num_2,32,num_8,0.95009428123,,,2017_Apr_26_1059,59.9969018035,FEMA4ImagesEEG,001,100280,
AFNE01.JPG,AFNE01.JPG,AFNE01.JPG,AFNE01.JPG,AFNE01.JPG,AFNE01.JPG,,,,,,,,,,,,,,,,,3,6,36,1,,,,,,,AFNE06.jpg,AFNE11.jpg,AFSA09.jpg,AFSA08.jpg,AFNE11.jpg,FN,3,num_6,32,num_8,1.36652330693,,,2017_Apr_26_1059,59.9969018035,FEMA4ImagesEEG,001,100280,
AFNE01.JPG,AFNE01.JPG,AFNE01.JPG,AFNE01.JPG,AFNE01.JPG,AFNE01.JPG,,,,,,,,,,,,,,,,,3,7,37,3,,,,,,,AFSA09.jpg,AFSA17.jpg,AFNE03.jpg,AFNE19.jpg,AFNE03.jpg,FN,3,num_2,32,num_6,1.05006737134,,,2017_Apr_26_1059,59.9969018035,FEMA4ImagesEEG,001,100280,
AFNE01.JPG,AFNE01.JPG,AFNE01.JPG,AFNE01.JPG,AFNE01.JPG,AFNE01.JPG,,,,,,,,,,,,,,,,,3,8,38,2,,,,,,,AFSA14.jpg,AFSA15.jpg,AFNE08.jpg,AFNE05.jpg,AFNE05.jpg,FN,3,num_4,32,num_2,2.7165959063,,,2017_Apr_26_1059,59.9969018035,FEMA4ImagesEEG,001,100280,
AFNE01.JPG,AFNE01.JPG,AFNE01.JPG,AFNE01.JPG,AFNE01.JPG,AFNE01.JPG,,,,,,,,,,,,,,,,,3,9,39,8,,,,,,,AFSA11.jpg,AFSA12.jpg,AFNE09.jpg,AFNE03.jpg,AFSA12.jpg,FS,4,num_6,32,num_8,2.03334499756,,,2017_Apr_26_1059,59.9969018035,FEMA4ImagesEEG,001,100280,
AFNE01.JPG,AFNE01.JPG,AFNE01.JPG,AFNE01.JPG,AFNE01.JPG,AFNE01.JPG,,,,,,,,,,,,,,,,,4,0,40,8,,,,,,,AFNE01.jpg,AFSA04.jpg,AFNE05.jpg,AFSA13.jpg,AFNE01.jpg,FN,3,num_8,16,num_8,2.01686959295,,,2017_Apr_26_1059,59.9969018035,FEMA4ImagesEEG,001,100280,
AFNE01.JPG,AFNE01.JPG,AFNE01.JPG,AFNE01.JPG,AFNE01.JPG,AFNE01.JPG,,,,,,,,,,,,,,,,,4,1,41,5,,,,,,,AFSA16.jpg,AFNE06.jpg,AFNE10.jpg,AFSA12.jpg,AFSA12.jpg,FS,4,num_4,32,num_2,1.60007524537,,,2017_Apr_26_1059,59.9969018035,FEMA4ImagesEEG,001,100280,
AFNE01.JPG,AFNE01.JPG,AFNE01.JPG,AFNE01.JPG,AFNE01.JPG,AFNE01.JPG,,,,,,,,,,,,,,,,,4,2,42,0,,,,,,,AFSA16.jpg,AFNE20.jpg,AFSA20.jpg,AFNE18.jpg,AFNE18.jpg,FN,3,num_4,32,num_6,2.00000192446,,,2017_Apr_26_1059,59.9969018035,FEMA4ImagesEEG,001,100280,
AFNE01.JPG,AFNE01.JPG,AFNE01.JPG,AFNE01.JPG,AFNE01.JPG,AFNE01.JPG,,,,,,,,,,,,,,,,,4,3,43,3,,,,,,,AFNE08.jpg,AFNE06.jpg,AFSA05.jpg,AFSA07.jpg,AFSA07.jpg,FS,4,num_4,32,num_6,1.30008284689,,,2017_Apr_26_1059,59.9969018035,FEMA4ImagesEEG,001,100280,
AFNE01.JPG,AFNE01.JPG,AFNE01.JPG,AFNE01.JPG,AFNE01.JPG,AFNE01.JPG,,,,,,,,,,,,,,,,,4,4,44,2,,,,,,,AFSA10.jpg,AFNE18.jpg,AFNE06.jpg,AFSA06.jpg,AFSA10.jpg,FS,4,num_8,16,num_8,1.2667436226,,,2017_Apr_26_1059,59.9969018035,FEMA4ImagesEEG,001,100280,
AFNE01.JPG,AFNE01.JPG,AFNE01.JPG,AFNE01.JPG,AFNE01.JPG,AFNE01.JPG,,,,,,,,,,,,,,,,,4,5,45,9,,,,,,,AFSA20.jpg,AFNE02.jpg,AFNE12.jpg,AFSA01.jpg,AFNE12.jpg,FN,3,num_2,32,num_6,0.88346394361,,,2017_Apr_26_1059,59.9969018035,FEMA4ImagesEEG,001,100280,
AFNE01.JPG,AFNE01.JPG,AFNE01.JPG,AFNE01.JPG,AFNE01.JPG,AFNE01.JPG,,,,,,,,,,,,,,,,,4,6,46,6,,,,,,,AFNE12.jpg,AFSA09.jpg,AFNE16.jpg,AFSA19.jpg,AFSA19.jpg,FS,4,num_4,32,num_6,0.933433810249,,,2017_Apr_26_1059,59.9969018035,FEMA4ImagesEEG,001,100280,
AFNE01.JPG,AFNE01.JPG,AFNE01.JPG,AFNE01.JPG,AFNE01.JPG,AFNE01.JPG,,,,,,,,,,,,,,,,,4,7,47,4,,,,,,,AFNE06.jpg,AFSA10.jpg,AFSA16.jpg,AFNE18.jpg,AFSA10.jpg,FS,4,num_6,32,num_2,1.5167886063,,,2017_Apr_26_1059,59.9969018035,FEMA4ImagesEEG,001,100280,
AFNE01.JPG,AFNE01.JPG,AFNE01.JPG,AFNE01.JPG,AFNE01.JPG,AFNE01.JPG,,,,,,,,,,,,,,,,,4,8,48,1,,,,,,,AFSA20.jpg,AFNE13.jpg,AFNE18.jpg,AFSA09.jpg,AFNE18.jpg,FN,3,num_2,16,num_2,1.60010218748,,,2017_Apr_26_1059,59.9969018035,FEMA4ImagesEEG,001,100280,
AFNE01.JPG,AFNE01.JPG,AFNE01.JPG,AFNE01.JPG,AFNE01.JPG,AFNE01.JPG,,,,,,,,,,,,,,,,,4,9,49,7,,,,,,,AFNE04.jpg,AFNE07.jpg,AFSA17.jpg,AFSA08.jpg,AFSA17.jpg,FS,4,num_2,16,num_2,1.15009338316,,,2017_Apr_26_1059,59.9969018035,FEMA4ImagesEEG,001,100280,
AFNE01.JPG,AFNE01.JPG,AFNE01.JPG,AFNE01.JPG,AFNE01.JPG,AFNE01.JPG,,,,,,,,,,,,,,,,,5,0,50,8,,,,,,,AFNE16.jpg,AFNE02.jpg,AFSA10.jpg,AFSA20.jpg,AFNE02.jpg,FN,3,num_6,16,num_6,0.933450488606,,,2017_Apr_26_1059,59.9969018035,FEMA4ImagesEEG,001,100280,
AFNE01.JPG,AFNE01.JPG,AFNE01.JPG,AFNE01.JPG,AFNE01.JPG,AFNE01.JPG,,,,,,,,,,,,,,,,,5,1,51,0,,,,,,,AFNE03.jpg,AFSA14.jpg,AFSA05.jpg,AFNE16.jpg,AFNE16.jpg,FN,3,num_4,32,num_8,1.11676955444,,,2017_Apr_26_1059,59.9969018035,FEMA4ImagesEEG,001,100280,
AFNE01.JPG,AFNE01.JPG,AFNE01.JPG,AFNE01.JPG,AFNE01.JPG,AFNE01.JPG,,,,,,,,,,,,,,,,,5,2,52,6,,,,,,,AFNE11.jpg,AFNE04.jpg,AFSA20.jpg,AFSA15.jpg,AFNE11.jpg,FN,3,num_8,32,num_6,1.46671738615,,,2017_Apr_26_1059,59.9969018035,FEMA4ImagesEEG,001,100280,
AFNE01.JPG,AFNE01.JPG,AFNE01.JPG,AFNE01.JPG,AFNE01.JPG,AFNE01.JPG,,,,,,,,,,,,,,,,,5,3,53,5,,,,,,,AFSA02.jpg,AFNE03.jpg,AFNE11.jpg,AFSA13.jpg,AFNE03.jpg,FN,3,num_6,32,num_8,2.06667363737,,,2017_Apr_26_1059,59.9969018035,FEMA4ImagesEEG,001,100280,
AFNE01.JPG,AFNE01.JPG,AFNE01.JPG,AFNE01.JPG,AFNE01.JPG,AFNE01.JPG,,,,,,,,,,,,,,,,,5,4,54,2,,,,,,,AFNE15.jpg,AFSA17.jpg,AFNE03.jpg,AFSA12.jpg,AFSA12.jpg,FS,4,num_4,32,num_8,1.2334088888,,,2017_Apr_26_1059,59.9969018035,FEMA4ImagesEEG,001,100280,
AFNE01.JPG,AFNE01.JPG,AFNE01.JPG,AFNE01.JPG,AFNE01.JPG,AFNE01.JPG,,,,,,,,,,,,,,,,,5,5,55,1,,,,,,,AFNE08.jpg,AFSA18.jpg,AFNE15.jpg,AFSA20.jpg,AFNE08.jpg,FN,3,num_8,16,num_8,1.83339079912,,,2017_Apr_26_1059,59.9969018035,FEMA4ImagesEEG,001,100280,
AFNE01.JPG,AFNE01.JPG,AFNE01.JPG,AFNE01.JPG,AFNE01.JPG,AFNE01.JPG,,,,,,,,,,,,,,,,,5,6,56,4,,,,,,,AFSA03.jpg,AFNE08.jpg,AFNE03.jpg,AFSA18.jpg,AFSA03.jpg,FS,4,num_8,32,num_4,1.40018711914,,,2017_Apr_26_1059,59.9969018035,FEMA4ImagesEEG,001,100280,
AFNE01.JPG,AFNE01.JPG,AFNE01.JPG,AFNE01.JPG,AFNE01.JPG,AFNE01.JPG,,,,,,,,,,,,,,,,,5,7,57,9,,,,,,,AFSA10.jpg,AFSA16.jpg,AFNE03.jpg,AFNE19.jpg,AFNE03.jpg,FN,3,num_2,16,num_2,1.2494978027,,,2017_Apr_26_1059,59.9969018035,FEMA4ImagesEEG,001,100280,
AFNE01.JPG,AFNE01.JPG,AFNE01.JPG,AFNE01.JPG,AFNE01.JPG,AFNE01.JPG,,,,,,,,,,,,,,,,,5,8,58,7,,,,,,,AFNE17.jpg,AFNE14.jpg,AFSA02.jpg,AFSA08.jpg,AFSA02.jpg,FS,4,num_2,16,num_2,1.41677157499,,,2017_Apr_26_1059,59.9969018035,FEMA4ImagesEEG,001,100280,
AFNE01.JPG,AFNE01.JPG,AFNE01.JPG,AFNE01.JPG,AFNE01.JPG,AFNE01.JPG,,,,,,,,,,,,,,,,,5,9,59,3,,,,,,,AFSA14.jpg,AFSA05.jpg,AFNE02.jpg,AFNE18.jpg,AFSA14.jpg,FS,4,num_8,16,num_8,1.1667179314,,,2017_Apr_26_1059,59.9969018035,FEMA4ImagesEEG,001,100280,
,,,,,,,,,,,,,,,,,,,,,,,,,,,,,,,,,,,,,,,,,,,space,8.14954556082,2017_Apr_26_1059,59.9969018035,FEMA4ImagesEEG,001,100280,
AFNE01.JPG,AFNE01.JPG,AFNE01.JPG,AFNE01.JPG,AFNE01.JPG,AFNE01.JPG,,,,,,,,,,,,,,,,,,,,,0,0,0,3,,,AMNE18.jpg,AMSA01.jpg,AMNE04.jpg,AMSA13.jpg,AMNE04.jpg,MN,1,num_2,32,num_6,0.766770404414,,,2017_Apr_26_1059,59.9969018035,FEMA4ImagesEEG,001,100280,
AFNE01.JPG,AFNE01.JPG,AFNE01.JPG,AFNE01.JPG,AFNE01.JPG,AFNE01.JPG,,,,,,,,,,,,,,,,,,,,,0,1,1,2,,,AMSA11.jpg,AMNE02.jpg,AMSA09.jpg,AMNE01.jpg,AMNE02.jpg,MN,1,num_6,32,num_4,0.800136891427,,,2017_Apr_26_1059,59.9969018035,FEMA4ImagesEEG,001,100280,
AFNE01.JPG,AFNE01.JPG,AFNE01.JPG,AFNE01.JPG,AFNE01.JPG,AFNE01.JPG,,,,,,,,,,,,,,,,,,,,,0,2,2,0,,,AMNE05.jpg,AMSA13.jpg,AMNE06.jpg,AMSA07.jpg,AMNE05.jpg,MN,1,num_8,16,num_8,0.866744135856,,,2017_Apr_26_1059,59.9969018035,FEMA4ImagesEEG,001,100280,
AFNE01.JPG,AFNE01.JPG,AFNE01.JPG,AFNE01.JPG,AFNE01.JPG,AFNE01.JPG,,,,,,,,,,,,,,,,,,,,,0,3,3,6,,,AMNE05.jpg,AMNE07.jpg,AMSA07.jpg,AMSA19.jpg,AMNE05.jpg,MN,1,num_8,16,num_8,0.883448868874,,,2017_Apr_26_1059,59.9969018035,FEMA4ImagesEEG,001,100280,
AFNE01.JPG,AFNE01.JPG,AFNE01.JPG,AFNE01.JPG,AFNE01.JPG,AFNE01.JPG,,,,,,,,,,,,,,,,,,,,,0,4,4,1,,,AMNE10.jpg,AMSA11.jpg,AMNE15.jpg,AMSA10.jpg,AMSA10.jpg,MS,2,num_4,16,num_4,1.26677024399,,,2017_Apr_26_1059,59.9969018035,FEMA4ImagesEEG,001,100280,
AFNE01.JPG,AFNE01.JPG,AFNE01.JPG,AFNE01.JPG,AFNE01.JPG,AFNE01.JPG,,,,,,,,,,,,,,,,,,,,,0,5,5,9,,,AMSA11.jpg,AMSA20.jpg,AMNE19.jpg,AMNE11.jpg,AMSA11.jpg,MS,2,num_8,16,num_8,0.833458154346,,,2017_Apr_26_1059,59.9969018035,FEMA4ImagesEEG,001,100280,
AFNE01.JPG,AFNE01.JPG,AFNE01.JPG,AFNE01.JPG,AFNE01.JPG,AFNE01.JPG,,,,,,,,,,,,,,,,,,,,,0,6,6,5,,,AMNE03.jpg,AMSA19.jpg,AMNE04.jpg,AMSA20.jpg,AMNE04.jpg,MN,1,num_2,32,num_6,0.766791573144,,,2017_Apr_26_1059,59.9969018035,FEMA4ImagesEEG,001,100280,
AFNE01.JPG,AFNE01.JPG,AFNE01.JPG,AFNE01.JPG,AFNE01.JPG,AFNE01.JPG,,,,,,,,,,,,,,,,,,,,,0,7,7,7,,,AMNE10.jpg,AMSA14.jpg,AMNE16.jpg,AMSA11.jpg,AMSA11.jpg,MS,2,num_4,16,num_4,0.833426080411,,,2017_Apr_26_1059,59.9969018035,FEMA4ImagesEEG,001,100280,
AFNE01.JPG,AFNE01.JPG,AFNE01.JPG,AFNE01.JPG,AFNE01.JPG,AFNE01.JPG,,,,,,,,,,,,,,,,,,,,,0,8,8,4,,,AMNE15.jpg,AMNE09.jpg,AMSA11.jpg,AMSA08.jpg,AMNE09.jpg,MN,1,num_6,16,num_6,0.883151543792,,,2017_Apr_26_1059,59.9969018035,FEMA4ImagesEEG,001,100280,
AFNE01.JPG,AFNE01.JPG,AFNE01.JPG,AFNE01.JPG,AFNE01.JPG,AFNE01.JPG,,,,,,,,,,,,,,,,,,,,,0,9,9,8,,,AMSA01.jpg,AMSA03.jpg,AMNE19.jpg,AMNE04.jpg,AMSA01.jpg,MS,2,num_8,32,num_4,2.98327955068,,,2017_Apr_26_1059,59.9969018035,FEMA4ImagesEEG,001,100280,
AFNE01.JPG,AFNE01.JPG,AFNE01.JPG,AFNE01.JPG,AFNE01.JPG,AFNE01.JPG,,,,,,,,,,,,,,,,,,,,,1,0,10,3,,,AMNE06.jpg,AMSA01.jpg,AMSA09.jpg,AMNE17.jpg,AMSA01.jpg,MS,2,num_6,16,num_6,0.633459693752,,,2017_Apr_26_1059,59.9969018035,FEMA4ImagesEEG,001,100280,
AFNE01.JPG,AFNE01.JPG,AFNE01.JPG,AFNE01.JPG,AFNE01.JPG,AFNE01.JPG,,,,,,,,,,,,,,,,,,,,,1,1,11,1,,,AMNE03.jpg,AMSA01.jpg,AMSA08.jpg,AMNE18.jpg,AMSA08.jpg,MS,2,num_2,16,num_2,0.766588866012,,,2017_Apr_26_1059,59.9969018035,FEMA4ImagesEEG,001,100280,
AFNE01.JPG,AFNE01.JPG,AFNE01.JPG,AFNE01.JPG,AFNE01.JPG,AFNE01.JPG,,,,,,,,,,,,,,,,,,,,,1,2,12,5,,,AMSA11.jpg,AMNE03.jpg,AMNE16.jpg,AMSA17.jpg,AMNE03.jpg,MN,1,num_6,32,num_4,0.900184072205,,,2017_Apr_26_1059,59.9969018035,FEMA4ImagesEEG,001,100280,
AFNE01.JPG,AFNE01.JPG,AFNE01.JPG,AFNE01.JPG,AFNE01.JPG,AFNE01.JPG,,,,,,,,,,,,,,,,,,,,,1,3,13,6,,,AMNE14.jpg,AMSA04.jpg,AMSA13.jpg,AMNE09.jpg,AMNE09.jpg,MN,1,num_4,16,num_4,0.966782977455,,,2017_Apr_26_1059,59.9969018035,FEMA4ImagesEEG,001,100280,
AFNE01.JPG,AFNE01.JPG,AFNE01.JPG,AFNE01.JPG,AFNE01.JPG,AFNE01.JPG,,,,,,,,,,,,,,,,,,,,,1,4,14,7,,,AMNE09.jpg,AMNE10.jpg,AMSA02.jpg,AMSA04.jpg,AMNE10.jpg,MN,1,num_6,16,num_6,0.799823529436,,,2017_Apr_26_1059,59.9969018035,FEMA4ImagesEEG,001,100280,
AFNE01.JPG,AFNE01.JPG,AFNE01.JPG,AFNE01.JPG,AFNE01.JPG,AFNE01.JPG,,,,,,,,,,,,,,,,,,,,,1,5,15,2,,,AMSA18.jpg,AMSA20.jpg,AMNE13.jpg,AMNE11.jpg,AMNE13.jpg,MN,1,num_2,16,num_2,1.10021332349,,,2017_Apr_26_1059,59.9969018035,FEMA4ImagesEEG,001,100280,
AFNE01.JPG,AFNE01.JPG,AFNE01.JPG,AFNE01.JPG,AFNE01.JPG,AFNE01.JPG,,,,,,,,,,,,,,,,,,,,,1,6,16,8,,,AMSA08.jpg,AMNE18.jpg,AMNE13.jpg,AMSA04.jpg,AMSA04.jpg,MS,2,num_4,16,num_4,1.06687570293,,,2017_Apr_26_1059,59.9969018035,FEMA4ImagesEEG,001,100280,
AFNE01.JPG,AFNE01.JPG,AFNE01.JPG,AFNE01.JPG,AFNE01.JPG,AFNE01.JPG,,,,,,,,,,,,,,,,,,,,,1,7,17,0,,,AMSA19.jpg,AMSA10.jpg,AMNE12.jpg,AMNE07.jpg,AMNE12.jpg,MN,1,num_2,32,num_4,1.10011325299,,,2017_Apr_26_1059,59.9969018035,FEMA4ImagesEEG,001,100280,
AFNE01.JPG,AFNE01.JPG,AFNE01.JPG,AFNE01.JPG,AFNE01.JPG,AFNE01.JPG,,,,,,,,,,,,,,,,,,,,,1,8,18,4,,,AMNE19.jpg,AMSA10.jpg,AMSA01.jpg,AMNE03.jpg,AMSA10.jpg,MS,2,num_6,16,num_6,1.41676131147,,,2017_Apr_26_1059,59.9969018035,FEMA4ImagesEEG,001,100280,
AFNE01.JPG,AFNE01.JPG,AFNE01.JPG,AFNE01.JPG,AFNE01.JPG,AFNE01.JPG,,,,,,,,,,,,,,,,,,,,,1,9,19,9,,,AMSA17.jpg,AMSA04.jpg,AMNE12.jpg,AMNE13.jpg,AMSA17.jpg,MS,2,num_8,32,num_4,1.41671191761,,,2017_Apr_26_1059,59.9969018035,FEMA4ImagesEEG,001,100280,
AFNE01.JPG,AFNE01.JPG,AFNE01.JPG,AFNE01.JPG,AFNE01.JPG,AFNE01.JPG,,,,,,,,,,,,,,,,,,,,,2,0,20,1,,,AMNE04.jpg,AMSA13.jpg,AMNE18.jpg,AMSA07.jpg,AMSA13.jpg,MS,2,num_6,32,num_2,1.33344580582,,,2017_Apr_26_1059,59.9969018035,FEMA4ImagesEEG,001,100280,
AFNE01.JPG,AFNE01.JPG,AFNE01.JPG,AFNE01.JPG,AFNE01.JPG,AFNE01.JPG,,,,,,,,,,,,,,,,,,,,,2,1,21,4,,,AMNE04.jpg,AMNE19.jpg,AMSA15.jpg,AMSA16.jpg,AMNE19.jpg,MN,1,num_6,16,num_6,1.33370111417,,,2017_Apr_26_1059,59.9969018035,FEMA4ImagesEEG,001,100280,
AFNE01.JPG,AFNE01.JPG,AFNE01.JPG,AFNE01.JPG,AFNE01.JPG,AFNE01.JPG,,,,,,,,,,,,,,,,,,,,,2,2,22,6,,,AMNE16.jpg,AMNE01.jpg,AMSA05.jpg,AMSA04.jpg,AMNE01.jpg,MN,1,num_6,32,num_8,1.99998171791,,,2017_Apr_26_1059,59.9969018035,FEMA4ImagesEEG,001,100280,
AFNE01.JPG,AFNE01.JPG,AFNE01.JPG,AFNE01.JPG,AFNE01.JPG,AFNE01.JPG,,,,,,,,,,,,,,,,,,,,,2,3,23,7,,,AMNE19.jpg,AMSA01.jpg,AMNE11.jpg,AMSA14.jpg,AMNE11.jpg,MN,1,num_2,32,num_8,1.50009060884,,,2017_Apr_26_1059,59.9969018035,FEMA4ImagesEEG,001,100280,
AFNE01.JPG,AFNE01.JPG,AFNE01.JPG,AFNE01.JPG,AFNE01.JPG,AFNE01.JPG,,,,,,,,,,,,,,,,,,,,,2,4,24,0,,,AMSA02.jpg,AMNE15.jpg,AMNE16.jpg,AMSA19.jpg,AMSA02.jpg,MS,2,num_8,16,num_8,0.98343863734,,,2017_Apr_26_1059,59.9969018035,FEMA4ImagesEEG,001,100280,
AFNE01.JPG,AFNE01.JPG,AFNE01.JPG,AFNE01.JPG,AFNE01.JPG,AFNE01.JPG,,,,,,,,,,,,,,,,,,,,,2,5,25,8,,,AMSA11.jpg,AMNE05.jpg,AMSA15.jpg,AMNE07.jpg,AMNE07.jpg,MN,1,num_4,16,num_4,1.35011846502,,,2017_Apr_26_1059,59.9969018035,FEMA4ImagesEEG,001,100280,
AFNE01.JPG,AFNE01.JPG,AFNE01.JPG,AFNE01.JPG,AFNE01.JPG,AFNE01.JPG,,,,,,,,,,,,,,,,,,,,,2,6,26,9,,,AMNE17.jpg,AMNE09.jpg,AMSA04.jpg,AMSA02.jpg,AMNE09.jpg,MN,1,num_6,16,num_6,1.0834258399,,,2017_Apr_26_1059,59.9969018035,FEMA4ImagesEEG,001,100280,
AFNE01.JPG,AFNE01.JPG,AFNE01.JPG,AFNE01.JPG,AFNE01.JPG,AFNE01.JPG,,,,,,,,,,,,,,,,,,,,,2,7,27,5,,,AMNE09.jpg,AMSA04.jpg,AMNE13.jpg,AMSA19.jpg,AMSA19.jpg,MS,2,num_4,16,num_4,1.53337562806,,,2017_Apr_26_1059,59.9969018035,FEMA4ImagesEEG,001,100280,
AFNE01.JPG,AFNE01.JPG,AFNE01.JPG,AFNE01.JPG,AFNE01.JPG,AFNE01.JPG,,,,,,,,,,,,,,,,,,,,,2,8,28,2,,,AMNE08.jpg,AMSA19.jpg,AMSA09.jpg,AMNE01.jpg,AMSA19.jpg,MS,2,num_6,32,num_8,2.24997762847,,,2017_Apr_26_1059,59.9969018035,FEMA4ImagesEEG,001,100280,
AFNE01.JPG,AFNE01.JPG,AFNE01.JPG,AFNE01.JPG,AFNE01.JPG,AFNE01.JPG,,,,,,,,,,,,,,,,,,,,,2,9,29,3,,,AMSA14.jpg,AMSA04.jpg,AMNE14.jpg,AMNE18.jpg,AMNE14.jpg,MN,1,num_2,16,num_2,1.11677468626,,,2017_Apr_26_1059,59.9969018035,FEMA4ImagesEEG,001,100280,
AFNE01.JPG,AFNE01.JPG,AFNE01.JPG,AFNE01.JPG,AFNE01.JPG,AFNE01.JPG,,,,,,,,,,,,,,,,,,,,,3,0,30,2,,,AMSA11.jpg,AMNE20.jpg,AMNE07.jpg,AMSA02.jpg,AMSA02.jpg,MS,2,num_4,16,num_4,0.866944277077,,,2017_Apr_26_1059,59.9969018035,FEMA4ImagesEEG,001,100280,
AFNE01.JPG,AFNE01.JPG,AFNE01.JPG,AFNE01.JPG,AFNE01.JPG,AFNE01.JPG,,,,,,,,,,,,,,,,,,,,,3,1,31,1,,,AMNE20.jpg,AMSA19.jpg,AMNE13.jpg,AMSA03.jpg,AMSA19.jpg,MS,2,num_6,32,num_4,2.7666716167,,,2017_Apr_26_1059,59.9969018035,FEMA4ImagesEEG,001,100280,
AFNE01.JPG,AFNE01.JPG,AFNE01.JPG,AFNE01.JPG,AFNE01.JPG,AFNE01.JPG,,,,,,,,,,,,,,,,,,,,,3,2,32,7,,,AMSA05.jpg,AMNE01.jpg,AMNE04.jpg,AMSA13.jpg,AMNE04.jpg,MN,1,num_2,16,num_2,1.05006672977,,,2017_Apr_26_1059,59.9969018035,FEMA4ImagesEEG,001,100280,
AFNE01.JPG,AFNE01.JPG,AFNE01.JPG,AFNE01.JPG,AFNE01.JPG,AFNE01.JPG,,,,,,,,,,,,,,,,,,,,,3,3,33,8,,,AMSA09.jpg,AMSA01.jpg,AMNE12.jpg,AMNE08.jpg,AMSA09.jpg,MS,2,num_8,16,num_8,2.06664316717,,,2017_Apr_26_1059,59.9969018035,FEMA4ImagesEEG,001,100280,
AFNE01.JPG,AFNE01.JPG,AFNE01.JPG,AFNE01.JPG,AFNE01.JPG,AFNE01.JPG,,,,,,,,,,,,,,,,,,,,,3,4,34,6,,,AMSA17.jpg,AMSA02.jpg,AMNE09.jpg,AMNE16.jpg,AMNE16.jpg,MN,1,num_4,32,num_2,1.83334461262,,,2017_Apr_26_1059,59.9969018035,FEMA4ImagesEEG,001,100280,
AFNE01.JPG,AFNE01.JPG,AFNE01.JPG,AFNE01.JPG,AFNE01.JPG,AFNE01.JPG,,,,,,,,,,,,,,,,,,,,,3,5,35,4,,,AMNE13.jpg,AMSA06.jpg,AMSA11.jpg,AMNE08.jpg,AMNE13.jpg,MN,1,num_8,32,num_4,1.18331938656,,,2017_Apr_26_1059,59.9969018035,FEMA4ImagesEEG,001,100280,
AFNE01.JPG,AFNE01.JPG,AFNE01.JPG,AFNE01.JPG,AFNE01.JPG,AFNE01.JPG,,,,,,,,,,,,,,,,,,,,,3,6,36,3,,,AMSA17.jpg,AMNE15.jpg,AMSA06.jpg,AMNE03.jpg,AMNE03.jpg,MN,1,num_4,16,num_4,1.70001145033,,,2017_Apr_26_1059,59.9969018035,FEMA4ImagesEEG,001,100280,
AFNE01.JPG,AFNE01.JPG,AFNE01.JPG,AFNE01.JPG,AFNE01.JPG,AFNE01.JPG,,,,,,,,,,,,,,,,,,,,,3,7,37,0,,,AMNE06.jpg,AMSA03.jpg,AMSA11.jpg,AMNE08.jpg,AMSA11.jpg,MS,2,num_2,16,num_2,1.08339184138,,,2017_Apr_26_1059,59.9969018035,FEMA4ImagesEEG,001,100280,
AFNE01.JPG,AFNE01.JPG,AFNE01.JPG,AFNE01.JPG,AFNE01.JPG,AFNE01.JPG,,,,,,,,,,,,,,,,,,,,,3,8,38,9,,,AMSA16.jpg,AMNE02.jpg,AMNE08.jpg,AMSA17.jpg,AMSA17.jpg,MS,2,num_4,32,num_8,2.06663033762,,,2017_Apr_26_1059,59.9969018035,FEMA4ImagesEEG,001,100280,
AFNE01.JPG,AFNE01.JPG,AFNE01.JPG,AFNE01.JPG,AFNE01.JPG,AFNE01.JPG,,,,,,,,,,,,,,,,,,,,,3,9,39,5,,,AMNE15.jpg,AMSA18.jpg,AMSA02.jpg,AMNE11.jpg,AMNE15.jpg,MN,1,num_8,16,num_8,0.949448954198,,,2017_Apr_26_1059,59.9969018035,FEMA4ImagesEEG,001,100280,
