IPosition2,IPosition3,IPosition1,IPosition6,IPosition4,IPosition5,TrialsF1.thisRepN,TrialsF1.thisTrialN,TrialsF1.thisN,TrialsF1.thisIndex,TrialsM1.thisRepN,TrialsM1.thisTrialN,TrialsM1.thisN,TrialsM1.thisIndex,TrialsF2.thisRepN,TrialsF2.thisTrialN,TrialsF2.thisN,TrialsF2.thisIndex,TrialsM2.thisRepN,TrialsM2.thisTrialN,TrialsM2.thisN,TrialsM2.thisIndex,TrialsF3.thisRepN,TrialsF3.thisTrialN,TrialsF3.thisN,TrialsF3.thisIndex,TrialsM3.thisRepN,TrialsM3.thisTrialN,TrialsM3.thisN,TrialsM3.thisIndex,InstrKey_resp.keys,InstrKey_resp.rt,Image0 _Position,Image1 _Position,Image2 _Position,Image3 _Position,Center_image,condition,code,correct_answer,accuracy,Key_Resp.keys,Key_Resp.rt,BreakKey_resp.keys,BreakKey_resp.rt,date,frameRate,expName,session,participant,
,,,,,,,,,,,,,,,,,,,,,,,,,,,,,,space,12.6828289645,,,,,,,,,,,,,,2017_May_22_1341,60.0007890129,FEMA4ImagesEEG,001,100204,
AMNE22.JPG,AMSA24.JPG,AMSA22.JPG,AMNE25.JPG,AMNE24.JPG,AMSA25.JPG,0,0,0,7,,,,,,,,,,,,,,,,,,,,,,,AFSA04.jpg,AFNE20.jpg,AFNE01.jpg,AFSA13.jpg,AFNE01.jpg,FN,3,num_2,32,num_6,1.28345710156,,,2017_May_22_1341,60.0007890129,FEMA4ImagesEEG,001,100204,
AFNE23.JPG,AFNE24.JPG,AFNE22.JPG,AFSA24.JPG,AFSA22.JPG,AFSA23.JPG,0,1,1,8,,,,,,,,,,,,,,,,,,,,,,,AFSA07.jpg,AFNE19.jpg,AFSA02.jpg,AFNE05.jpg,AFNE19.jpg,FN,3,num_6,16,num_6,0.700098884117,,,2017_May_22_1341,60.0007890129,FEMA4ImagesEEG,001,100204,
AMNE23.JPG,AMNE24.JPG,AMNE22.JPG,AMSA24.JPG,AMSA22.JPG,AMSA23.JPG,0,2,2,9,,,,,,,,,,,,,,,,,,,,,,,AFNE18.jpg,AFSA10.jpg,AFNE20.jpg,AFSA04.jpg,AFSA10.jpg,FS,4,num_6,32,num_4,0.950149320473,,,2017_May_22_1341,60.0007890129,FEMA4ImagesEEG,001,100204,
AFSA21.JPG,AFNE22.JPG,AFNE21.JPG,AFSA23.JPG,AFSA22.JPG,AFNE23.JPG,0,3,3,0,,,,,,,,,,,,,,,,,,,,,,,AFNE08.jpg,AFNE07.jpg,AFSA11.jpg,AFSA01.jpg,AFSA01.jpg,FS,4,num_4,16,num_4,0.833549458534,,,2017_May_22_1341,60.0007890129,FEMA4ImagesEEG,001,100204,
AMSA25.JPG,AMNE24.JPG,AMSA24.JPG,AMNE26.JPG,AMSA21.JPG,AMNE25.JPG,0,4,4,3,,,,,,,,,,,,,,,,,,,,,,,AFSA03.jpg,AFSA10.jpg,AFNE01.jpg,AFNE02.jpg,AFNE02.jpg,FN,3,num_4,32,num_8,1.06675206899,,,2017_May_22_1341,60.0007890129,FEMA4ImagesEEG,001,100204,
AFNE22.JPG,AFSA24.JPG,AFSA22.JPG,AFNE25.JPG,AFNE24.JPG,AFSA25.JPG,0,5,5,6,,,,,,,,,,,,,,,,,,,,,,,AFSA16.jpg,AFNE20.jpg,AFSA08.jpg,AFNE15.jpg,AFNE15.jpg,FN,3,num_4,16,num_4,1.05016147654,,,2017_May_22_1341,60.0007890129,FEMA4ImagesEEG,001,100204,
AMSA21.JPG,AMNE23.JPG,AMNE21.JPG,AMSA25.JPG,AMNE25.JPG,AMSA23.JPG,0,6,6,5,,,,,,,,,,,,,,,,,,,,,,,AFSA08.jpg,AFSA04.jpg,AFNE19.jpg,AFNE16.jpg,AFSA04.jpg,FS,4,num_6,16,num_6,0.733483738964,,,2017_May_22_1341,60.0007890129,FEMA4ImagesEEG,001,100204,
AFSA25.JPG,AFNE24.JPG,AFSA24.JPG,AFNE21.JPG,AFSA21.JPG,AFNE25.JPG,0,7,7,2,,,,,,,,,,,,,,,,,,,,,,,AFSA10.jpg,AFSA20.jpg,AFNE14.jpg,AFNE10.jpg,AFNE10.jpg,FN,3,num_4,16,num_4,0.866515427071,,,2017_May_22_1341,60.0007890129,FEMA4ImagesEEG,001,100204,
AMSA21.JPG,AMNE22.JPG,AMNE21.JPG,AMSA23.JPG,AMSA22.JPG,AMNE23.JPG,0,8,8,1,,,,,,,,,,,,,,,,,,,,,,,AFSA11.jpg,AFSA07.jpg,AFNE04.jpg,AFNE12.jpg,AFSA11.jpg,FS,4,num_8,32,num_6,1.11676504294,,,2017_May_22_1341,60.0007890129,FEMA4ImagesEEG,001,100204,
AFSA21.JPG,AFNE23.JPG,AFNE21.JPG,AFSA25.JPG,AFNE25.JPG,AFSA23.JPG,0,9,9,4,,,,,,,,,,,,,,,,,,,,,,,AFNE08.jpg,AFSA13.jpg,AFSA05.jpg,AFNE03.jpg,AFNE03.jpg,FN,3,num_4,16,num_4,0.850148390338,,,2017_May_22_1341,60.0007890129,FEMA4ImagesEEG,001,100204,
AMNE22.JPG,AMSA24.JPG,AMSA22.JPG,AMNE25.JPG,AMNE24.JPG,AMSA25.JPG,,,,,0,0,0,7,,,,,,,,,,,,,,,,,,,AMSA11.jpg,AMNE02.jpg,AMNE01.jpg,AMSA17.jpg,AMSA17.jpg,MS,2,num_4,32,num_2,1.55013277032,,,2017_May_22_1341,60.0007890129,FEMA4ImagesEEG,001,100204,
AMSA25.JPG,AMNE24.JPG,AMSA24.JPG,AMNE26.JPG,AMSA21.JPG,AMNE25.JPG,,,,,0,1,1,3,,,,,,,,,,,,,,,,,,,AMNE15.jpg,AMSA07.jpg,AMNE07.jpg,AMSA17.jpg,AMNE15.jpg,MN,1,num_8,16,num_8,0.616769052169,,,2017_May_22_1341,60.0007890129,FEMA4ImagesEEG,001,100204,
AFNE23.JPG,AFNE24.JPG,AFNE22.JPG,AFSA24.JPG,AFSA22.JPG,AFSA23.JPG,,,,,0,2,2,8,,,,,,,,,,,,,,,,,,,AMSA02.jpg,AMNE10.jpg,AMNE13.jpg,AMSA08.jpg,AMSA02.jpg,MS,2,num_8,32,num_4,1.10000734491,,,2017_May_22_1341,60.0007890129,FEMA4ImagesEEG,001,100204,
AFSA21.JPG,AFNE22.JPG,AFNE21.JPG,AFSA23.JPG,AFSA22.JPG,AFNE23.JPG,,,,,0,3,3,0,,,,,,,,,,,,,,,,,,,AMSA11.jpg,AMSA19.jpg,AMNE15.jpg,AMNE06.jpg,AMSA19.jpg,MS,2,num_6,32,num_4,0.933514786593,,,2017_May_22_1341,60.0007890129,FEMA4ImagesEEG,001,100204,
AMNE23.JPG,AMNE24.JPG,AMNE22.JPG,AMSA24.JPG,AMSA22.JPG,AMSA23.JPG,,,,,0,4,4,9,,,,,,,,,,,,,,,,,,,AMNE07.jpg,AMSA02.jpg,AMNE13.jpg,AMSA15.jpg,AMNE07.jpg,MN,1,num_8,32,num_2,1.13348842174,,,2017_May_22_1341,60.0007890129,FEMA4ImagesEEG,001,100204,
AMSA21.JPG,AMNE23.JPG,AMNE21.JPG,AMSA25.JPG,AMNE25.JPG,AMSA23.JPG,,,,,0,5,5,5,,,,,,,,,,,,,,,,,,,AMNE10.jpg,AMSA02.jpg,AMNE03.jpg,AMSA06.jpg,AMSA06.jpg,MS,2,num_4,16,num_4,0.533497915661,,,2017_May_22_1341,60.0007890129,FEMA4ImagesEEG,001,100204,
AFSA21.JPG,AFNE23.JPG,AFNE21.JPG,AFSA25.JPG,AFNE25.JPG,AFSA23.JPG,,,,,0,6,6,4,,,,,,,,,,,,,,,,,,,AMSA19.jpg,AMNE04.jpg,AMNE03.jpg,AMSA16.jpg,AMNE04.jpg,MN,1,num_6,32,num_8,1.48347050842,,,2017_May_22_1341,60.0007890129,FEMA4ImagesEEG,001,100204,
AFSA25.JPG,AFNE24.JPG,AFSA24.JPG,AFNE21.JPG,AFSA21.JPG,AFNE25.JPG,,,,,0,7,7,2,,,,,,,,,,,,,,,,,,,AMNE14.jpg,AMSA01.jpg,AMSA18.jpg,AMNE03.jpg,AMSA01.jpg,MS,2,num_6,16,num_6,0.883262861404,,,2017_May_22_1341,60.0007890129,FEMA4ImagesEEG,001,100204,
AMSA21.JPG,AMNE22.JPG,AMNE21.JPG,AMSA23.JPG,AMSA22.JPG,AMNE23.JPG,,,,,0,8,8,1,,,,,,,,,,,,,,,,,,,AMNE12.jpg,AMSA20.jpg,AMNE08.jpg,AMSA03.jpg,AMSA20.jpg,MS,2,num_6,32,num_4,0.783491901762,,,2017_May_22_1341,60.0007890129,FEMA4ImagesEEG,001,100204,
AFNE22.JPG,AFSA24.JPG,AFSA22.JPG,AFNE25.JPG,AFNE24.JPG,AFSA25.JPG,,,,,0,9,9,6,,,,,,,,,,,,,,,,,,,AMNE15.jpg,AMSA13.jpg,AMNE02.jpg,AMSA15.jpg,AMNE15.jpg,MN,1,num_8,16,num_8,0.783451167808,,,2017_May_22_1341,60.0007890129,FEMA4ImagesEEG,001,100204,
AMSA21.JPG,AMNE23.JPG,AMNE21.JPG,AMSA25.JPG,AMNE25.JPG,AMSA23.JPG,,,,,,,,,0,0,0,5,,,,,,,,,,,,,,,AFSA04.jpg,AFNE03.jpg,AFSA03.jpg,AFNE20.jpg,AFSA04.jpg,FS,4,num_8,16,num_8,0.816779251734,,,2017_May_22_1341,60.0007890129,FEMA4ImagesEEG,001,100204,
AMSA25.JPG,AMNE24.JPG,AMSA24.JPG,AMNE26.JPG,AMSA21.JPG,AMNE25.JPG,,,,,,,,,0,1,1,3,,,,,,,,,,,,,,,AFSA04.jpg,AFNE18.jpg,AFNE15.jpg,AFSA07.jpg,AFSA07.jpg,FS,4,num_4,16,num_4,0.650134662632,,,2017_May_22_1341,60.0007890129,FEMA4ImagesEEG,001,100204,
AFNE23.JPG,AFNE24.JPG,AFNE22.JPG,AFSA24.JPG,AFSA22.JPG,AFSA23.JPG,,,,,,,,,0,2,2,8,,,,,,,,,,,,,,,AFSA08.jpg,AFNE13.jpg,AFSA14.jpg,AFNE18.jpg,AFNE13.jpg,FN,3,num_6,32,num_8,0.933466675575,,,2017_May_22_1341,60.0007890129,FEMA4ImagesEEG,001,100204,
AMSA21.JPG,AMNE22.JPG,AMNE21.JPG,AMSA23.JPG,AMSA22.JPG,AMNE23.JPG,,,,,,,,,0,3,3,1,,,,,,,,,,,,,,,AFSA11.jpg,AFSA06.jpg,AFNE12.jpg,AFNE03.jpg,AFNE12.jpg,FN,3,num_2,16,num_2,1.71676228457,,,2017_May_22_1341,60.0007890129,FEMA4ImagesEEG,001,100204,
AMNE22.JPG,AMSA24.JPG,AMSA22.JPG,AMNE25.JPG,AMNE24.JPG,AMSA25.JPG,,,,,,,,,0,4,4,7,,,,,,,,,,,,,,,AFSA12.jpg,AFSA14.jpg,AFNE13.jpg,AFNE04.jpg,AFSA12.jpg,FS,4,num_8,16,num_8,0.566780454537,,,2017_May_22_1341,60.0007890129,FEMA4ImagesEEG,001,100204,
AMNE23.JPG,AMNE24.JPG,AMNE22.JPG,AMSA24.JPG,AMSA22.JPG,AMSA23.JPG,,,,,,,,,0,5,5,9,,,,,,,,,,,,,,,AFSA10.jpg,AFNE14.jpg,AFNE12.jpg,AFSA15.jpg,AFSA15.jpg,FS,4,num_4,16,num_4,1.01673396328,,,2017_May_22_1341,60.0007890129,FEMA4ImagesEEG,001,100204,
AFSA21.JPG,AFNE22.JPG,AFNE21.JPG,AFSA23.JPG,AFSA22.JPG,AFNE23.JPG,,,,,,,,,0,6,6,0,,,,,,,,,,,,,,,AFNE02.jpg,AFSA07.jpg,AFNE03.jpg,AFSA08.jpg,AFSA08.jpg,FS,4,num_4,16,num_4,1.01679297938,,,2017_May_22_1341,60.0007890129,FEMA4ImagesEEG,001,100204,
AFSA21.JPG,AFNE23.JPG,AFNE21.JPG,AFSA25.JPG,AFNE25.JPG,AFSA23.JPG,,,,,,,,,0,7,7,4,,,,,,,,,,,,,,,AFSA07.jpg,AFNE08.jpg,AFNE04.jpg,AFSA05.jpg,AFSA05.jpg,FS,4,num_4,16,num_4,0.533494066796,,,2017_May_22_1341,60.0007890129,FEMA4ImagesEEG,001,100204,
AFNE22.JPG,AFSA24.JPG,AFSA22.JPG,AFNE25.JPG,AFNE24.JPG,AFSA25.JPG,,,,,,,,,0,8,8,6,,,,,,,,,,,,,,,AFSA09.jpg,AFSA12.jpg,AFNE03.jpg,AFNE12.jpg,AFNE03.jpg,FN,3,num_2,16,num_2,1.9000298609,,,2017_May_22_1341,60.0007890129,FEMA4ImagesEEG,001,100204,
AFSA25.JPG,AFNE24.JPG,AFSA24.JPG,AFNE21.JPG,AFSA21.JPG,AFNE25.JPG,,,,,,,,,0,9,9,2,,,,,,,,,,,,,,,AFSA18.jpg,AFSA17.jpg,AFNE03.jpg,AFNE02.jpg,AFSA18.jpg,FS,4,num_8,32,num_2,2.13309808128,,,2017_May_22_1341,60.0007890129,FEMA4ImagesEEG,001,100204,
AFSA21.JPG,AFNE22.JPG,AFNE21.JPG,AFSA23.JPG,AFSA22.JPG,AFNE23.JPG,,,,,,,,,,,,,0,0,0,0,,,,,,,,,,,AMSA10.jpg,AMSA16.jpg,AMNE08.jpg,AMNE12.jpg,AMSA10.jpg,MS,2,num_8,32,num_4,1.08343631757,,,2017_May_22_1341,60.0007890129,FEMA4ImagesEEG,001,100204,
AFNE23.JPG,AFNE24.JPG,AFNE22.JPG,AFSA24.JPG,AFSA22.JPG,AFSA23.JPG,,,,,,,,,,,,,0,1,1,8,,,,,,,,,,,AMNE20.jpg,AMSA13.jpg,AMSA05.jpg,AMNE14.jpg,AMSA05.jpg,MS,2,num_2,32,num_4,0.733502662624,,,2017_May_22_1341,60.0007890129,FEMA4ImagesEEG,001,100204,
AMSA25.JPG,AMNE24.JPG,AMSA24.JPG,AMNE26.JPG,AMSA21.JPG,AMNE25.JPG,,,,,,,,,,,,,0,2,2,3,,,,,,,,,,,AMNE03.jpg,AMSA12.jpg,AMSA03.jpg,AMNE18.jpg,AMSA03.jpg,MS,2,num_2,16,num_2,1.35037691751,,,2017_May_22_1341,60.0007890129,FEMA4ImagesEEG,001,100204,
AMSA21.JPG,AMNE23.JPG,AMNE21.JPG,AMSA25.JPG,AMNE25.JPG,AMSA23.JPG,,,,,,,,,,,,,0,3,3,5,,,,,,,,,,,AMNE19.jpg,AMSA11.jpg,AMSA17.jpg,AMNE14.jpg,AMSA11.jpg,MS,2,num_6,32,num_4,0.983394653478,,,2017_May_22_1341,60.0007890129,FEMA4ImagesEEG,001,100204,
AMNE22.JPG,AMSA24.JPG,AMSA22.JPG,AMNE25.JPG,AMNE24.JPG,AMSA25.JPG,,,,,,,,,,,,,0,4,4,7,,,,,,,,,,,AMSA01.jpg,AMNE03.jpg,AMSA16.jpg,AMNE05.jpg,AMSA01.jpg,MS,2,num_8,16,num_8,0.600083199912,,,2017_May_22_1341,60.0007890129,FEMA4ImagesEEG,001,100204,
AMNE23.JPG,AMNE24.JPG,AMNE22.JPG,AMSA24.JPG,AMSA22.JPG,AMSA23.JPG,,,,,,,,,,,,,0,5,5,9,,,,,,,,,,,AMSA12.jpg,AMNE02.jpg,AMNE06.jpg,AMSA14.jpg,AMNE06.jpg,MN,1,num_2,32,num_8,0.766629001067,,,2017_May_22_1341,60.0007890129,FEMA4ImagesEEG,001,100204,
AMSA21.JPG,AMNE22.JPG,AMNE21.JPG,AMSA23.JPG,AMSA22.JPG,AMNE23.JPG,,,,,,,,,,,,,0,6,6,1,,,,,,,,,,,AMNE15.jpg,AMNE05.jpg,AMSA05.jpg,AMSA01.jpg,AMSA05.jpg,MS,2,num_2,16,num_2,1.16679180868,,,2017_May_22_1341,60.0007890129,FEMA4ImagesEEG,001,100204,
AFSA21.JPG,AFNE23.JPG,AFNE21.JPG,AFSA25.JPG,AFNE25.JPG,AFSA23.JPG,,,,,,,,,,,,,0,7,7,4,,,,,,,,,,,AMSA03.jpg,AMSA06.jpg,AMNE16.jpg,AMNE09.jpg,AMSA03.jpg,MS,2,num_8,16,num_8,1.06674340903,,,2017_May_22_1341,60.0007890129,FEMA4ImagesEEG,001,100204,
AFNE22.JPG,AFSA24.JPG,AFSA22.JPG,AFNE25.JPG,AFNE24.JPG,AFSA25.JPG,,,,,,,,,,,,,0,8,8,6,,,,,,,,,,,AMSA02.jpg,AMNE17.jpg,AMSA08.jpg,AMNE16.jpg,AMSA02.jpg,MS,2,num_8,16,num_8,0.61684218084,,,2017_May_22_1341,60.0007890129,FEMA4ImagesEEG,001,100204,
AFSA25.JPG,AFNE24.JPG,AFSA24.JPG,AFNE21.JPG,AFSA21.JPG,AFNE25.JPG,,,,,,,,,,,,,0,9,9,2,,,,,,,,,,,AMSA12.jpg,AMNE16.jpg,AMNE10.jpg,AMSA18.jpg,AMSA12.jpg,MS,2,num_8,32,num_6,0.950226939516,,,2017_May_22_1341,60.0007890129,FEMA4ImagesEEG,001,100204,
AFSA25.JPG,AFNE24.JPG,AFSA24.JPG,AFNE21.JPG,AFSA21.JPG,AFNE25.JPG,,,,,,,,,,,,,,,,,0,0,0,2,,,,,,,AFSA11.jpg,AFNE09.jpg,AFNE03.jpg,AFSA07.jpg,AFSA07.jpg,FS,4,num_4,16,num_4,1.68314713851,,,2017_May_22_1341,60.0007890129,FEMA4ImagesEEG,001,100204,
AFNE22.JPG,AFSA24.JPG,AFSA22.JPG,AFNE25.JPG,AFNE24.JPG,AFSA25.JPG,,,,,,,,,,,,,,,,,0,1,1,6,,,,,,,AFSA18.jpg,AFNE10.jpg,AFNE19.jpg,AFSA20.jpg,AFNE10.jpg,FN,3,num_6,32,num_2,1.2667561745,,,2017_May_22_1341,60.0007890129,FEMA4ImagesEEG,001,100204,
AMNE23.JPG,AMNE24.JPG,AMNE22.JPG,AMSA24.JPG,AMSA22.JPG,AMSA23.JPG,,,,,,,,,,,,,,,,,0,2,2,9,,,,,,,AFSA12.jpg,AFNE12.jpg,AFSA05.jpg,AFNE05.jpg,AFNE05.jpg,FN,3,num_4,32,num_6,1.31674958329,,,2017_May_22_1341,60.0007890129,FEMA4ImagesEEG,001,100204,
AFSA21.JPG,AFNE23.JPG,AFNE21.JPG,AFSA25.JPG,AFNE25.JPG,AFSA23.JPG,,,,,,,,,,,,,,,,,0,3,3,4,,,,,,,AFNE09.jpg,AFNE14.jpg,AFSA13.jpg,AFSA17.jpg,AFSA13.jpg,FS,4,num_2,16,num_2,0.716769982304,,,2017_May_22_1341,60.0007890129,FEMA4ImagesEEG,001,100204,
AFSA21.JPG,AFNE22.JPG,AFNE21.JPG,AFSA23.JPG,AFSA22.JPG,AFNE23.JPG,,,,,,,,,,,,,,,,,0,4,4,0,,,,,,,AFSA17.jpg,AFNE13.jpg,AFNE18.jpg,AFSA11.jpg,AFNE13.jpg,FN,3,num_6,16,num_6,1.13348778029,,,2017_May_22_1341,60.0007890129,FEMA4ImagesEEG,001,100204,
AFNE23.JPG,AFNE24.JPG,AFNE22.JPG,AFSA24.JPG,AFSA22.JPG,AFSA23.JPG,,,,,,,,,,,,,,,,,0,5,5,8,,,,,,,AFSA11.jpg,AFSA16.jpg,AFNE04.jpg,AFNE02.jpg,AFNE04.jpg,FN,3,num_2,16,num_2,0.983470668783,,,2017_May_22_1341,60.0007890129,FEMA4ImagesEEG,001,100204,
AMNE22.JPG,AMSA24.JPG,AMSA22.JPG,AMNE25.JPG,AMNE24.JPG,AMSA25.JPG,,,,,,,,,,,,,,,,,0,6,6,7,,,,,,,AFSA19.jpg,AFNE15.jpg,AFSA08.jpg,AFNE07.jpg,AFNE15.jpg,FN,3,num_6,32,num_8,0.800127718598,,,2017_May_22_1341,60.0007890129,FEMA4ImagesEEG,001,100204,
AMSA21.JPG,AMNE23.JPG,AMNE21.JPG,AMSA25.JPG,AMNE25.JPG,AMSA23.JPG,,,,,,,,,,,,,,,,,0,7,7,5,,,,,,,AFNE12.jpg,AFSA14.jpg,AFSA15.jpg,AFNE15.jpg,AFSA14.jpg,FS,4,num_6,32,num_2,1.16674947104,,,2017_May_22_1341,60.0007890129,FEMA4ImagesEEG,001,100204,
AMSA25.JPG,AMNE24.JPG,AMSA24.JPG,AMNE26.JPG,AMSA21.JPG,AMNE25.JPG,,,,,,,,,,,,,,,,,0,8,8,3,,,,,,,AFNE15.jpg,AFNE08.jpg,AFSA08.jpg,AFSA01.jpg,AFSA01.jpg,FS,4,num_4,16,num_4,1.00013374857,,,2017_May_22_1341,60.0007890129,FEMA4ImagesEEG,001,100204,
AMSA21.JPG,AMNE22.JPG,AMNE21.JPG,AMSA23.JPG,AMSA22.JPG,AMNE23.JPG,,,,,,,,,,,,,,,,,0,9,9,1,,,,,,,AFSA14.jpg,AFNE15.jpg,AFSA07.jpg,AFNE01.jpg,AFSA14.jpg,FS,4,num_8,16,num_8,0.866913465376,,,2017_May_22_1341,60.0007890129,FEMA4ImagesEEG,001,100204,
AMSA21.JPG,AMNE23.JPG,AMNE21.JPG,AMSA25.JPG,AMNE25.JPG,AMSA23.JPG,,,,,,,,,,,,,,,,,,,,,0,0,0,5,,,AMNE01.jpg,AMSA03.jpg,AMNE02.jpg,AMSA17.jpg,AMSA17.jpg,MS,2,num_4,16,num_4,0.583458608948,,,2017_May_22_1341,60.0007890129,FEMA4ImagesEEG,001,100204,
AMSA25.JPG,AMNE24.JPG,AMSA24.JPG,AMNE26.JPG,AMSA21.JPG,AMNE25.JPG,,,,,,,,,,,,,,,,,,,,,0,1,1,3,,,AMNE10.jpg,AMNE03.jpg,AMSA06.jpg,AMSA18.jpg,AMSA18.jpg,MS,2,num_4,32,num_8,0.699825292977,,,2017_May_22_1341,60.0007890129,FEMA4ImagesEEG,001,100204,
AFNE23.JPG,AFNE24.JPG,AFNE22.JPG,AFSA24.JPG,AFSA22.JPG,AFSA23.JPG,,,,,,,,,,,,,,,,,,,,,0,2,2,8,,,AMNE02.jpg,AMSA20.jpg,AMNE13.jpg,AMSA17.jpg,AMSA20.jpg,MS,2,num_6,16,num_6,0.866824941128,,,2017_May_22_1341,60.0007890129,FEMA4ImagesEEG,001,100204,
AMNE22.JPG,AMSA24.JPG,AMSA22.JPG,AMNE25.JPG,AMNE24.JPG,AMSA25.JPG,,,,,,,,,,,,,,,,,,,,,0,3,3,7,,,AMSA16.jpg,AMNE06.jpg,AMNE19.jpg,AMSA20.jpg,AMNE19.jpg,MN,1,num_2,16,num_2,0.983513006475,,,2017_May_22_1341,60.0007890129,FEMA4ImagesEEG,001,100204,
AFNE22.JPG,AFSA24.JPG,AFSA22.JPG,AFNE25.JPG,AFNE24.JPG,AFSA25.JPG,,,,,,,,,,,,,,,,,,,,,0,4,4,6,,,AMSA10.jpg,AMNE05.jpg,AMNE12.jpg,AMSA06.jpg,AMNE05.jpg,MN,1,num_6,32,num_2,1.01678464015,,,2017_May_22_1341,60.0007890129,FEMA4ImagesEEG,001,100204,
AFSA21.JPG,AFNE23.JPG,AFNE21.JPG,AFSA25.JPG,AFNE25.JPG,AFSA23.JPG,,,,,,,,,,,,,,,,,,,,,0,5,5,4,,,AMSA12.jpg,AMNE07.jpg,AMSA01.jpg,AMNE05.jpg,AMSA01.jpg,MS,2,num_2,16,num_2,0.866767849424,,,2017_May_22_1341,60.0007890129,FEMA4ImagesEEG,001,100204,
AFSA25.JPG,AFNE24.JPG,AFSA24.JPG,AFNE21.JPG,AFSA21.JPG,AFNE25.JPG,,,,,,,,,,,,,,,,,,,,,0,6,6,2,,,AMNE10.jpg,AMSA11.jpg,AMNE06.jpg,AMSA05.jpg,AMSA11.jpg,MS,2,num_6,16,num_6,1.05014255288,,,2017_May_22_1341,60.0007890129,FEMA4ImagesEEG,001,100204,
AFSA21.JPG,AFNE22.JPG,AFNE21.JPG,AFSA23.JPG,AFSA22.JPG,AFNE23.JPG,,,,,,,,,,,,,,,,,,,,,0,7,7,0,,,AMSA08.jpg,AMNE03.jpg,AMSA05.jpg,AMNE15.jpg,AMSA05.jpg,MS,2,num_2,16,num_2,1.53344948398,,,2017_May_22_1341,60.0007890129,FEMA4ImagesEEG,001,100204,
AMNE23.JPG,AMNE24.JPG,AMNE22.JPG,AMSA24.JPG,AMSA22.JPG,AMSA23.JPG,,,,,,,,,,,,,,,,,,,,,0,8,8,9,,,AMSA02.jpg,AMSA14.jpg,AMNE04.jpg,AMNE06.jpg,AMSA14.jpg,MS,2,num_6,16,num_6,0.68350668787,,,2017_May_22_1341,60.0007890129,FEMA4ImagesEEG,001,100204,
AMSA21.JPG,AMNE22.JPG,AMNE21.JPG,AMSA23.JPG,AMSA22.JPG,AMNE23.JPG,,,,,,,,,,,,,,,,,,,,,0,9,9,1,,,AMSA04.jpg,AMSA09.jpg,AMNE07.jpg,AMNE14.jpg,AMSA09.jpg,MS,2,num_6,16,num_6,0.816796892381,,,2017_May_22_1341,60.0007890129,FEMA4ImagesEEG,001,100204,
,,,,,,,,,,,,,,,,,,,,,,,,,,,,,,,,,,,,,,,,,,,space,8.04952384555,2017_May_22_1341,60.0007890129,FEMA4ImagesEEG,001,100204,
AFNE01.JPG,AFNE01.JPG,AFNE01.JPG,AFNE01.JPG,AFNE01.JPG,AFNE01.JPG,0,0,0,4,,,,,,,,,,,,,,,,,,,,,,,AFNE13.jpg,AFSA18.jpg,AFNE04.jpg,AFSA05.jpg,AFNE04.jpg,FN,3,num_2,32,num_8,0.750156120164,,,2017_May_22_1341,60.0007890129,FEMA4ImagesEEG,001,100204,
AFNE01.JPG,AFNE01.JPG,AFNE01.JPG,AFNE01.JPG,AFNE01.JPG,AFNE01.JPG,0,1,1,9,,,,,,,,,,,,,,,,,,,,,,,AFNE18.jpg,AFNE05.jpg,AFSA18.jpg,AFSA10.jpg,AFNE18.jpg,FN,3,num_8,32,num_4,0.883483209705,,,2017_May_22_1341,60.0007890129,FEMA4ImagesEEG,001,100204,
AFNE01.JPG,AFNE01.JPG,AFNE01.JPG,AFNE01.JPG,AFNE01.JPG,AFNE01.JPG,0,2,2,6,,,,,,,,,,,,,,,,,,,,,,,AFNE17.jpg,AFSA11.jpg,AFNE12.jpg,AFSA17.jpg,AFNE17.jpg,FN,3,num_8,32,num_2,0.916672733962,,,2017_May_22_1341,60.0007890129,FEMA4ImagesEEG,001,100204,
AFNE01.JPG,AFNE01.JPG,AFNE01.JPG,AFNE01.JPG,AFNE01.JPG,AFNE01.JPG,0,3,3,1,,,,,,,,,,,,,,,,,,,,,,,AFNE11.jpg,AFSA12.jpg,AFSA06.jpg,AFNE12.jpg,AFSA12.jpg,FS,4,num_6,32,num_4,0.850375474198,,,2017_May_22_1341,60.0007890129,FEMA4ImagesEEG,001,100204,
AFNE01.JPG,AFNE01.JPG,AFNE01.JPG,AFNE01.JPG,AFNE01.JPG,AFNE01.JPG,0,4,4,5,,,,,,,,,,,,,,,,,,,,,,,AFNE17.jpg,AFNE09.jpg,AFSA02.jpg,AFSA19.jpg,AFNE09.jpg,FN,3,num_6,16,num_6,0.63365408394,,,2017_May_22_1341,60.0007890129,FEMA4ImagesEEG,001,100204,
AFNE01.JPG,AFNE01.JPG,AFNE01.JPG,AFNE01.JPG,AFNE01.JPG,AFNE01.JPG,0,5,5,0,,,,,,,,,,,,,,,,,,,,,,,AFNE13.jpg,AFSA02.jpg,AFSA16.jpg,AFNE20.jpg,AFSA16.jpg,FS,4,num_2,32,num_8,1.1165976167,,,2017_May_22_1341,60.0007890129,FEMA4ImagesEEG,001,100204,
AFNE01.JPG,AFNE01.JPG,AFNE01.JPG,AFNE01.JPG,AFNE01.JPG,AFNE01.JPG,0,6,6,8,,,,,,,,,,,,,,,,,,,,,,,AFNE04.jpg,AFNE17.jpg,AFSA01.jpg,AFSA10.jpg,AFNE17.jpg,FN,3,num_6,16,num_6,0.866816601891,,,2017_May_22_1341,60.0007890129,FEMA4ImagesEEG,001,100204,
AFNE01.JPG,AFNE01.JPG,AFNE01.JPG,AFNE01.JPG,AFNE01.JPG,AFNE01.JPG,0,7,7,2,,,,,,,,,,,,,,,,,,,,,,,AFNE05.jpg,AFSA03.jpg,AFNE01.jpg,AFSA07.jpg,AFNE01.jpg,FN,3,num_2,32,num_6,0.816776044318,,,2017_May_22_1341,60.0007890129,FEMA4ImagesEEG,001,100204,
AFNE01.JPG,AFNE01.JPG,AFNE01.JPG,AFNE01.JPG,AFNE01.JPG,AFNE01.JPG,0,8,8,7,,,,,,,,,,,,,,,,,,,,,,,AFNE15.jpg,AFNE06.jpg,AFSA11.jpg,AFSA04.jpg,AFSA11.jpg,FS,4,num_2,16,num_2,0.850108618557,,,2017_May_22_1341,60.0007890129,FEMA4ImagesEEG,001,100204,
AFNE01.JPG,AFNE01.JPG,AFNE01.JPG,AFNE01.JPG,AFNE01.JPG,AFNE01.JPG,0,9,9,3,,,,,,,,,,,,,,,,,,,,,,,AFNE07.jpg,AFSA03.jpg,AFSA11.jpg,AFNE16.jpg,AFNE16.jpg,FN,3,num_4,32,num_6,0.733485663426,,,2017_May_22_1341,60.0007890129,FEMA4ImagesEEG,001,100204,
AFNE01.JPG,AFNE01.JPG,AFNE01.JPG,AFNE01.JPG,AFNE01.JPG,AFNE01.JPG,1,0,10,5,,,,,,,,,,,,,,,,,,,,,,,AFNE18.jpg,AFNE13.jpg,AFSA15.jpg,AFSA14.jpg,AFSA14.jpg,FS,4,num_4,32,num_6,0.916639697796,,,2017_May_22_1341,60.0007890129,FEMA4ImagesEEG,001,100204,
AFNE01.JPG,AFNE01.JPG,AFNE01.JPG,AFNE01.JPG,AFNE01.JPG,AFNE01.JPG,1,1,11,3,,,,,,,,,,,,,,,,,,,,,,,AFNE19.jpg,AFSA14.jpg,AFNE18.jpg,AFSA17.jpg,AFNE19.jpg,FN,3,num_8,16,num_8,0.550162919855,,,2017_May_22_1341,60.0007890129,FEMA4ImagesEEG,001,100204,
AFNE01.JPG,AFNE01.JPG,AFNE01.JPG,AFNE01.JPG,AFNE01.JPG,AFNE01.JPG,1,2,12,4,,,,,,,,,,,,,,,,,,,,,,,AFNE06.jpg,AFSA08.jpg,AFNE09.jpg,AFSA03.jpg,AFSA08.jpg,FS,4,num_6,16,num_6,0.600006863824,,,2017_May_22_1341,60.0007890129,FEMA4ImagesEEG,001,100204,
AFNE01.JPG,AFNE01.JPG,AFNE01.JPG,AFNE01.JPG,AFNE01.JPG,AFNE01.JPG,1,3,13,6,,,,,,,,,,,,,,,,,,,,,,,AFSA17.jpg,AFSA09.jpg,AFNE11.jpg,AFNE06.jpg,AFSA09.jpg,FS,4,num_6,32,num_8,0.76681599248,,,2017_May_22_1341,60.0007890129,FEMA4ImagesEEG,001,100204,
AFNE01.JPG,AFNE01.JPG,AFNE01.JPG,AFNE01.JPG,AFNE01.JPG,AFNE01.JPG,1,4,14,0,,,,,,,,,,,,,,,,,,,,,,,AFSA09.jpg,AFNE18.jpg,AFSA01.jpg,AFNE17.jpg,AFSA09.jpg,FS,4,num_8,16,num_8,0.516841250763,,,2017_May_22_1341,60.0007890129,FEMA4ImagesEEG,001,100204,
AFNE01.JPG,AFNE01.JPG,AFNE01.JPG,AFNE01.JPG,AFNE01.JPG,AFNE01.JPG,1,5,15,2,,,,,,,,,,,,,,,,,,,,,,,AFNE07.jpg,AFSA01.jpg,AFNE04.jpg,AFSA16.jpg,AFSA01.jpg,FS,4,num_6,32,num_2,1.43345208192,,,2017_May_22_1341,60.0007890129,FEMA4ImagesEEG,001,100204,
AFNE01.JPG,AFNE01.JPG,AFNE01.JPG,AFNE01.JPG,AFNE01.JPG,AFNE01.JPG,1,6,16,7,,,,,,,,,,,,,,,,,,,,,,,AFSA03.jpg,AFNE20.jpg,AFSA04.jpg,AFNE13.jpg,AFSA04.jpg,FS,4,num_2,16,num_2,0.700169126154,,,2017_May_22_1341,60.0007890129,FEMA4ImagesEEG,001,100204,
AFNE01.JPG,AFNE01.JPG,AFNE01.JPG,AFNE01.JPG,AFNE01.JPG,AFNE01.JPG,1,7,17,9,,,,,,,,,,,,,,,,,,,,,,,AFNE17.jpg,AFSA02.jpg,AFNE02.jpg,AFSA13.jpg,AFNE17.jpg,FN,3,num_8,32,num_6,0.966780967661,,,2017_May_22_1341,60.0007890129,FEMA4ImagesEEG,001,100204,
AFNE01.JPG,AFNE01.JPG,AFNE01.JPG,AFNE01.JPG,AFNE01.JPG,AFNE01.JPG,1,8,18,8,,,,,,,,,,,,,,,,,,,,,,,AFNE05.jpg,AFSA14.jpg,AFNE02.jpg,AFSA19.jpg,AFNE02.jpg,FN,3,num_2,32,num_8,0.750127895037,,,2017_May_22_1341,60.0007890129,FEMA4ImagesEEG,001,100204,
AFNE01.JPG,AFNE01.JPG,AFNE01.JPG,AFNE01.JPG,AFNE01.JPG,AFNE01.JPG,1,9,19,1,,,,,,,,,,,,,,,,,,,,,,,AFNE17.jpg,AFNE03.jpg,AFSA20.jpg,AFSA01.jpg,AFNE03.jpg,FN,3,num_6,32,num_4,1.41667898843,,,2017_May_22_1341,60.0007890129,FEMA4ImagesEEG,001,100204,
AFNE01.JPG,AFNE01.JPG,AFNE01.JPG,AFNE01.JPG,AFNE01.JPG,AFNE01.JPG,2,0,20,0,,,,,,,,,,,,,,,,,,,,,,,AFSA06.jpg,AFNE12.jpg,AFNE04.jpg,AFSA08.jpg,AFNE12.jpg,FN,3,num_6,16,num_6,1.64991784247,,,2017_May_22_1341,60.0007890129,FEMA4ImagesEEG,001,100204,
AFNE01.JPG,AFNE01.JPG,AFNE01.JPG,AFNE01.JPG,AFNE01.JPG,AFNE01.JPG,2,1,21,9,,,,,,,,,,,,,,,,,,,,,,,AFNE04.jpg,AFNE07.jpg,AFSA16.jpg,AFSA12.jpg,AFSA16.jpg,FS,4,num_2,32,num_4,1.65004228958,,,2017_May_22_1341,60.0007890129,FEMA4ImagesEEG,001,100204,
AFNE01.JPG,AFNE01.JPG,AFNE01.JPG,AFNE01.JPG,AFNE01.JPG,AFNE01.JPG,2,2,22,4,,,,,,,,,,,,,,,,,,,,,,,AFNE09.jpg,AFSA10.jpg,AFNE15.jpg,AFSA13.jpg,AFNE15.jpg,FN,3,num_2,16,num_2,1.51680372423,,,2017_May_22_1341,60.0007890129,FEMA4ImagesEEG,001,100204,
AFNE01.JPG,AFNE01.JPG,AFNE01.JPG,AFNE01.JPG,AFNE01.JPG,AFNE01.JPG,2,3,23,3,,,,,,,,,,,,,,,,,,,,,,,AFSA20.jpg,AFNE04.jpg,AFNE17.jpg,AFSA09.jpg,AFSA09.jpg,FS,4,num_4,32,num_6,0.733504587028,,,2017_May_22_1341,60.0007890129,FEMA4ImagesEEG,001,100204,
AFNE01.JPG,AFNE01.JPG,AFNE01.JPG,AFNE01.JPG,AFNE01.JPG,AFNE01.JPG,2,4,24,8,,,,,,,,,,,,,,,,,,,,,,,AFNE02.jpg,AFSA14.jpg,AFSA15.jpg,AFNE19.jpg,AFSA15.jpg,FS,4,num_2,16,num_2,0.966781609168,,,2017_May_22_1341,60.0007890129,FEMA4ImagesEEG,001,100204,
AFNE01.JPG,AFNE01.JPG,AFNE01.JPG,AFNE01.JPG,AFNE01.JPG,AFNE01.JPG,2,5,25,5,,,,,,,,,,,,,,,,,,,,,,,AFSA01.jpg,AFNE18.jpg,AFSA12.jpg,AFNE10.jpg,AFSA01.jpg,FS,4,num_8,32,num_4,0.966944224259,,,2017_May_22_1341,60.0007890129,FEMA4ImagesEEG,001,100204,
AFNE01.JPG,AFNE01.JPG,AFNE01.JPG,AFNE01.JPG,AFNE01.JPG,AFNE01.JPG,2,6,26,1,,,,,,,,,,,,,,,,,,,,,,,AFSA02.jpg,AFNE03.jpg,AFSA16.jpg,AFNE07.jpg,AFNE07.jpg,FN,3,num_4,32,num_2,1.18346290692,,,2017_May_22_1341,60.0007890129,FEMA4ImagesEEG,001,100204,
AFNE01.JPG,AFNE01.JPG,AFNE01.JPG,AFNE01.JPG,AFNE01.JPG,AFNE01.JPG,2,7,27,6,,,,,,,,,,,,,,,,,,,,,,,AFSA13.jpg,AFNE11.jpg,AFNE04.jpg,AFSA05.jpg,AFNE11.jpg,FN,3,num_6,16,num_6,0.916647395585,,,2017_May_22_1341,60.0007890129,FEMA4ImagesEEG,001,100204,
AFNE01.JPG,AFNE01.JPG,AFNE01.JPG,AFNE01.JPG,AFNE01.JPG,AFNE01.JPG,2,8,28,2,,,,,,,,,,,,,,,,,,,,,,,AFNE01.jpg,AFSA18.jpg,AFSA15.jpg,AFNE09.jpg,AFSA15.jpg,FS,4,num_2,32,num_6,0.800145359361,,,2017_May_22_1341,60.0007890129,FEMA4ImagesEEG,001,100204,
AFNE01.JPG,AFNE01.JPG,AFNE01.JPG,AFNE01.JPG,AFNE01.JPG,AFNE01.JPG,2,9,29,7,,,,,,,,,,,,,,,,,,,,,,,AFNE07.jpg,AFNE09.jpg,AFSA07.jpg,AFSA01.jpg,AFSA07.jpg,FS,4,num_2,32,num_8,0.949962649844,,,2017_May_22_1341,60.0007890129,FEMA4ImagesEEG,001,100204,
AFNE01.JPG,AFNE01.JPG,AFNE01.JPG,AFNE01.JPG,AFNE01.JPG,AFNE01.JPG,3,0,30,4,,,,,,,,,,,,,,,,,,,,,,,AFSA08.jpg,AFSA09.jpg,AFNE11.jpg,AFNE02.jpg,AFSA09.jpg,FS,4,num_6,32,num_2,0.666912888002,,,2017_May_22_1341,60.0007890129,FEMA4ImagesEEG,001,100204,
AFNE01.JPG,AFNE01.JPG,AFNE01.JPG,AFNE01.JPG,AFNE01.JPG,AFNE01.JPG,3,1,31,6,,,,,,,,,,,,,,,,,,,,,,,AFNE03.jpg,AFNE05.jpg,AFSA05.jpg,AFSA08.jpg,AFNE05.jpg,FN,3,num_6,16,num_6,0.750128215761,,,2017_May_22_1341,60.0007890129,FEMA4ImagesEEG,001,100204,
AFNE01.JPG,AFNE01.JPG,AFNE01.JPG,AFNE01.JPG,AFNE01.JPG,AFNE01.JPG,3,2,32,5,,,,,,,,,,,,,,,,,,,,,,,AFSA01.jpg,AFSA13.jpg,AFNE12.jpg,AFNE16.jpg,AFNE12.jpg,FN,3,num_2,16,num_2,1.21675378497,,,2017_May_22_1341,60.0007890129,FEMA4ImagesEEG,001,100204,
AFNE01.JPG,AFNE01.JPG,AFNE01.JPG,AFNE01.JPG,AFNE01.JPG,AFNE01.JPG,3,3,33,8,,,,,,,,,,,,,,,,,,,,,,,AFSA16.jpg,AFSA13.jpg,AFNE06.jpg,AFNE19.jpg,AFSA16.jpg,FS,4,num_8,32,num_2,0.783499920275,,,2017_May_22_1341,60.0007890129,FEMA4ImagesEEG,001,100204,
AFNE01.JPG,AFNE01.JPG,AFNE01.JPG,AFNE01.JPG,AFNE01.JPG,AFNE01.JPG,3,4,34,3,,,,,,,,,,,,,,,,,,,,,,,AFSA14.jpg,AFNE09.jpg,AFSA10.jpg,AFNE11.jpg,AFNE09.jpg,FN,3,num_6,16,num_6,0.683184665046,,,2017_May_22_1341,60.0007890129,FEMA4ImagesEEG,001,100204,
AFNE01.JPG,AFNE01.JPG,AFNE01.JPG,AFNE01.JPG,AFNE01.JPG,AFNE01.JPG,3,5,35,9,,,,,,,,,,,,,,,,,,,,,,,AFNE09.jpg,AFSA14.jpg,AFNE05.jpg,AFSA11.jpg,AFSA14.jpg,FS,4,num_6,32,num_8,0.716819376277,,,2017_May_22_1341,60.0007890129,FEMA4ImagesEEG,001,100204,
AFNE01.JPG,AFNE01.JPG,AFNE01.JPG,AFNE01.JPG,AFNE01.JPG,AFNE01.JPG,3,6,36,7,,,,,,,,,,,,,,,,,,,,,,,AFNE17.jpg,AFNE08.jpg,AFSA01.jpg,AFSA20.jpg,AFNE08.jpg,FN,3,num_6,32,num_8,0.783636876266,,,2017_May_22_1341,60.0007890129,FEMA4ImagesEEG,001,100204,
AFNE01.JPG,AFNE01.JPG,AFNE01.JPG,AFNE01.JPG,AFNE01.JPG,AFNE01.JPG,3,7,37,2,,,,,,,,,,,,,,,,,,,,,,,AFSA16.jpg,AFSA18.jpg,AFNE16.jpg,AFNE08.jpg,AFSA16.jpg,FS,4,num_8,32,num_2,0.851802446065,,,2017_May_22_1341,60.0007890129,FEMA4ImagesEEG,001,100204,
AFNE01.JPG,AFNE01.JPG,AFNE01.JPG,AFNE01.JPG,AFNE01.JPG,AFNE01.JPG,3,8,38,1,,,,,,,,,,,,,,,,,,,,,,,AFNE01.jpg,AFSA07.jpg,AFNE17.jpg,AFSA02.jpg,AFNE01.jpg,FN,3,num_8,32,num_6,0.716777359368,,,2017_May_22_1341,60.0007890129,FEMA4ImagesEEG,001,100204,
AFNE01.JPG,AFNE01.JPG,AFNE01.JPG,AFNE01.JPG,AFNE01.JPG,AFNE01.JPG,3,9,39,0,,,,,,,,,,,,,,,,,,,,,,,AFSA04.jpg,AFSA06.jpg,AFNE02.jpg,AFNE16.jpg,AFNE16.jpg,FN,3,num_4,16,num_4,0.500204471697,,,2017_May_22_1341,60.0007890129,FEMA4ImagesEEG,001,100204,
AFNE01.JPG,AFNE01.JPG,AFNE01.JPG,AFNE01.JPG,AFNE01.JPG,AFNE01.JPG,4,0,40,6,,,,,,,,,,,,,,,,,,,,,,,AFSA01.jpg,AFNE20.jpg,AFNE07.jpg,AFSA07.jpg,AFNE20.jpg,FN,3,num_6,32,num_2,0.916869989014,,,2017_May_22_1341,60.0007890129,FEMA4ImagesEEG,001,100204,
AFNE01.JPG,AFNE01.JPG,AFNE01.JPG,AFNE01.JPG,AFNE01.JPG,AFNE01.JPG,4,1,41,3,,,,,,,,,,,,,,,,,,,,,,,AFNE11.jpg,AFSA11.jpg,AFNE20.jpg,AFSA06.jpg,AFSA11.jpg,FS,4,num_6,32,num_8,1.11672976153,,,2017_May_22_1341,60.0007890129,FEMA4ImagesEEG,001,100204,
AFNE01.JPG,AFNE01.JPG,AFNE01.JPG,AFNE01.JPG,AFNE01.JPG,AFNE01.JPG,4,2,42,1,,,,,,,,,,,,,,,,,,,,,,,AFSA16.jpg,AFNE01.jpg,AFNE06.jpg,AFSA05.jpg,AFSA05.jpg,FS,4,num_4,16,num_4,0.91676382412,,,2017_May_22_1341,60.0007890129,FEMA4ImagesEEG,001,100204,
AFNE01.JPG,AFNE01.JPG,AFNE01.JPG,AFNE01.JPG,AFNE01.JPG,AFNE01.JPG,4,3,43,0,,,,,,,,,,,,,,,,,,,,,,,AFNE13.jpg,AFSA01.jpg,AFSA10.jpg,AFNE04.jpg,AFNE13.jpg,FN,3,num_8,32,num_6,0.550163882028,,,2017_May_22_1341,60.0007890129,FEMA4ImagesEEG,001,100204,
AFNE01.JPG,AFNE01.JPG,AFNE01.JPG,AFNE01.JPG,AFNE01.JPG,AFNE01.JPG,4,4,44,7,,,,,,,,,,,,,,,,,,,,,,,AFNE11.jpg,AFSA10.jpg,AFSA16.jpg,AFNE08.jpg,AFNE08.jpg,FN,3,num_4,32,num_6,1.11680962576,,,2017_May_22_1341,60.0007890129,FEMA4ImagesEEG,001,100204,
AFNE01.JPG,AFNE01.JPG,AFNE01.JPG,AFNE01.JPG,AFNE01.JPG,AFNE01.JPG,4,5,45,9,,,,,,,,,,,,,,,,,,,,,,,AFNE02.jpg,AFSA20.jpg,AFNE13.jpg,AFSA12.jpg,AFSA20.jpg,FS,4,num_6,32,num_2,0.850185596151,,,2017_May_22_1341,60.0007890129,FEMA4ImagesEEG,001,100204,
AFNE01.JPG,AFNE01.JPG,AFNE01.JPG,AFNE01.JPG,AFNE01.JPG,AFNE01.JPG,4,6,46,8,,,,,,,,,,,,,,,,,,,,,,,AFNE20.jpg,AFNE07.jpg,AFSA08.jpg,AFSA09.jpg,AFSA09.jpg,FS,4,num_4,16,num_4,0.850139409595,,,2017_May_22_1341,60.0007890129,FEMA4ImagesEEG,001,100204,
AFNE01.JPG,AFNE01.JPG,AFNE01.JPG,AFNE01.JPG,AFNE01.JPG,AFNE01.JPG,4,7,47,2,,,,,,,,,,,,,,,,,,,,,,,AFSA09.jpg,AFNE18.jpg,AFNE13.jpg,AFSA07.jpg,AFSA09.jpg,FS,4,num_8,16,num_8,0.916764786351,,,2017_May_22_1341,60.0007890129,FEMA4ImagesEEG,001,100204,
AFNE01.JPG,AFNE01.JPG,AFNE01.JPG,AFNE01.JPG,AFNE01.JPG,AFNE01.JPG,4,8,48,4,,,,,,,,,,,,,,,,,,,,,,,AFSA12.jpg,AFNE03.jpg,AFSA17.jpg,AFNE04.jpg,AFSA17.jpg,FS,4,num_2,16,num_2,0.783462393738,,,2017_May_22_1341,60.0007890129,FEMA4ImagesEEG,001,100204,
AFNE01.JPG,AFNE01.JPG,AFNE01.JPG,AFNE01.JPG,AFNE01.JPG,AFNE01.JPG,4,9,49,5,,,,,,,,,,,,,,,,,,,,,,,AFNE06.jpg,AFSA09.jpg,AFNE01.jpg,AFSA01.jpg,AFNE01.jpg,FN,3,num_2,32,num_6,0.866788056039,,,2017_May_22_1341,60.0007890129,FEMA4ImagesEEG,001,100204,
AFNE01.JPG,AFNE01.JPG,AFNE01.JPG,AFNE01.JPG,AFNE01.JPG,AFNE01.JPG,5,0,50,1,,,,,,,,,,,,,,,,,,,,,,,AFNE01.jpg,AFSA17.jpg,AFNE08.jpg,AFSA06.jpg,AFSA17.jpg,FS,4,num_6,32,num_4,1.28352477762,,,2017_May_22_1341,60.0007890129,FEMA4ImagesEEG,001,100204,
AFNE01.JPG,AFNE01.JPG,AFNE01.JPG,AFNE01.JPG,AFNE01.JPG,AFNE01.JPG,5,1,51,0,,,,,,,,,,,,,,,,,,,,,,,AFNE04.jpg,AFSA06.jpg,AFSA04.jpg,AFNE14.jpg,AFSA06.jpg,FS,4,num_6,16,num_6,0.916812255862,,,2017_May_22_1341,60.0007890129,FEMA4ImagesEEG,001,100204,
AFNE01.JPG,AFNE01.JPG,AFNE01.JPG,AFNE01.JPG,AFNE01.JPG,AFNE01.JPG,5,2,52,8,,,,,,,,,,,,,,,,,,,,,,,AFSA04.jpg,AFNE08.jpg,AFNE13.jpg,AFSA03.jpg,AFNE08.jpg,FN,3,num_6,32,num_2,1.63342315122,,,2017_May_22_1341,60.0007890129,FEMA4ImagesEEG,001,100204,
AFNE01.JPG,AFNE01.JPG,AFNE01.JPG,AFNE01.JPG,AFNE01.JPG,AFNE01.JPG,5,3,53,3,,,,,,,,,,,,,,,,,,,,,,,AFSA06.jpg,AFNE16.jpg,AFNE03.jpg,AFSA19.jpg,AFSA06.jpg,FS,4,num_8,32,num_6,0.716779604554,,,2017_May_22_1341,60.0007890129,FEMA4ImagesEEG,001,100204,
AFNE01.JPG,AFNE01.JPG,AFNE01.JPG,AFNE01.JPG,AFNE01.JPG,AFNE01.JPG,5,4,54,5,,,,,,,,,,,,,,,,,,,,,,,AFNE11.jpg,AFSA03.jpg,AFNE02.jpg,AFSA14.jpg,AFNE02.jpg,FN,3,num_2,16,num_2,0.900117743644,,,2017_May_22_1341,60.0007890129,FEMA4ImagesEEG,001,100204,
AFNE01.JPG,AFNE01.JPG,AFNE01.JPG,AFNE01.JPG,AFNE01.JPG,AFNE01.JPG,5,5,55,7,,,,,,,,,,,,,,,,,,,,,,,AFSA07.jpg,AFNE11.jpg,AFNE19.jpg,AFSA19.jpg,AFSA07.jpg,FS,4,num_8,32,num_6,1.00016806769,,,2017_May_22_1341,60.0007890129,FEMA4ImagesEEG,001,100204,
AFNE01.JPG,AFNE01.JPG,AFNE01.JPG,AFNE01.JPG,AFNE01.JPG,AFNE01.JPG,5,6,56,4,,,,,,,,,,,,,,,,,,,,,,,AFNE10.jpg,AFSA16.jpg,AFSA08.jpg,AFNE08.jpg,AFNE08.jpg,FN,3,num_4,32,num_2,1.30011344567,,,2017_May_22_1341,60.0007890129,FEMA4ImagesEEG,001,100204,
AFNE01.JPG,AFNE01.JPG,AFNE01.JPG,AFNE01.JPG,AFNE01.JPG,AFNE01.JPG,5,7,57,9,,,,,,,,,,,,,,,,,,,,,,,AFSA15.jpg,AFSA10.jpg,AFNE12.jpg,AFNE07.jpg,AFSA10.jpg,FS,4,num_6,16,num_6,0.900085348869,,,2017_May_22_1341,60.0007890129,FEMA4ImagesEEG,001,100204,
AFNE01.JPG,AFNE01.JPG,AFNE01.JPG,AFNE01.JPG,AFNE01.JPG,AFNE01.JPG,5,8,58,2,,,,,,,,,,,,,,,,,,,,,,,AFSA11.jpg,AFNE09.jpg,AFSA07.jpg,AFNE12.jpg,AFSA11.jpg,FS,4,num_8,16,num_8,0.583555151708,,,2017_May_22_1341,60.0007890129,FEMA4ImagesEEG,001,100204,
AFNE01.JPG,AFNE01.JPG,AFNE01.JPG,AFNE01.JPG,AFNE01.JPG,AFNE01.JPG,5,9,59,6,,,,,,,,,,,,,,,,,,,,,,,AFNE11.jpg,AFSA09.jpg,AFSA08.jpg,AFNE14.jpg,AFSA09.jpg,FS,4,num_6,16,num_6,0.966760119598,,,2017_May_22_1341,60.0007890129,FEMA4ImagesEEG,001,100204,
,,,,,,,,,,,,,,,,,,,,,,,,,,,,,,,,,,,,,,,,,,,space,4.05013549654,2017_May_22_1341,60.0007890129,FEMA4ImagesEEG,001,100204,
AFNE01.JPG,AFNE01.JPG,AFNE01.JPG,AFNE01.JPG,AFNE01.JPG,AFNE01.JPG,,,,,0,0,0,5,,,,,,,,,,,,,,,,,,,AMNE19.jpg,AMNE15.jpg,AMSA17.jpg,AMSA09.jpg,AMSA17.jpg,MS,2,num_2,16,num_2,1.0501496091,,,2017_May_22_1341,60.0007890129,FEMA4ImagesEEG,001,100204,
AFNE01.JPG,AFNE01.JPG,AFNE01.JPG,AFNE01.JPG,AFNE01.JPG,AFNE01.JPG,,,,,0,1,1,6,,,,,,,,,,,,,,,,,,,AMNE03.jpg,AMNE10.jpg,AMSA14.jpg,AMSA13.jpg,AMSA13.jpg,MS,2,num_4,32,num_6,0.733323369001,,,2017_May_22_1341,60.0007890129,FEMA4ImagesEEG,001,100204,
AFNE01.JPG,AFNE01.JPG,AFNE01.JPG,AFNE01.JPG,AFNE01.JPG,AFNE01.JPG,,,,,0,2,2,2,,,,,,,,,,,,,,,,,,,AMSA07.jpg,AMNE15.jpg,AMNE18.jpg,AMSA08.jpg,AMNE15.jpg,MN,1,num_6,32,num_8,0.866814356705,,,2017_May_22_1341,60.0007890129,FEMA4ImagesEEG,001,100204,
AFNE01.JPG,AFNE01.JPG,AFNE01.JPG,AFNE01.JPG,AFNE01.JPG,AFNE01.JPG,,,,,0,3,3,3,,,,,,,,,,,,,,,,,,,AMNE11.jpg,AMSA08.jpg,AMSA05.jpg,AMNE07.jpg,AMNE11.jpg,MN,1,num_8,32,num_4,0.883429966925,,,2017_May_22_1341,60.0007890129,FEMA4ImagesEEG,001,100204,
AFNE01.JPG,AFNE01.JPG,AFNE01.JPG,AFNE01.JPG,AFNE01.JPG,AFNE01.JPG,,,,,0,4,4,1,,,,,,,,,,,,,,,,,,,AMNE11.jpg,AMSA12.jpg,AMNE14.jpg,AMSA11.jpg,AMNE11.jpg,MN,1,num_8,32,num_4,0.833455161075,,,2017_May_22_1341,60.0007890129,FEMA4ImagesEEG,001,100204,
AFNE01.JPG,AFNE01.JPG,AFNE01.JPG,AFNE01.JPG,AFNE01.JPG,AFNE01.JPG,,,,,0,5,5,9,,,,,,,,,,,,,,,,,,,AMSA01.jpg,AMSA11.jpg,AMNE01.jpg,AMNE13.jpg,AMSA01.jpg,MS,2,num_8,16,num_8,0.633508468047,,,2017_May_22_1341,60.0007890129,FEMA4ImagesEEG,001,100204,
AFNE01.JPG,AFNE01.JPG,AFNE01.JPG,AFNE01.JPG,AFNE01.JPG,AFNE01.JPG,,,,,0,6,6,7,,,,,,,,,,,,,,,,,,,AMNE15.jpg,AMNE18.jpg,AMSA17.jpg,AMSA02.jpg,AMNE18.jpg,MN,1,num_6,16,num_6,0.666795176454,,,2017_May_22_1341,60.0007890129,FEMA4ImagesEEG,001,100204,
AFNE01.JPG,AFNE01.JPG,AFNE01.JPG,AFNE01.JPG,AFNE01.JPG,AFNE01.JPG,,,,,0,7,7,0,,,,,,,,,,,,,,,,,,,AMSA16.jpg,AMSA15.jpg,AMNE19.jpg,AMNE05.jpg,AMNE05.jpg,MN,1,num_4,32,num_6,0.749893754895,,,2017_May_22_1341,60.0007890129,FEMA4ImagesEEG,001,100204,
AFNE01.JPG,AFNE01.JPG,AFNE01.JPG,AFNE01.JPG,AFNE01.JPG,AFNE01.JPG,,,,,0,8,8,8,,,,,,,,,,,,,,,,,,,AMSA12.jpg,AMNE19.jpg,AMNE03.jpg,AMSA11.jpg,AMSA12.jpg,MS,2,num_8,32,num_6,0.716999632132,,,2017_May_22_1341,60.0007890129,FEMA4ImagesEEG,001,100204,
AFNE01.JPG,AFNE01.JPG,AFNE01.JPG,AFNE01.JPG,AFNE01.JPG,AFNE01.JPG,,,,,0,9,9,4,,,,,,,,,,,,,,,,,,,AMNE20.jpg,AMSA08.jpg,AMSA05.jpg,AMNE17.jpg,AMNE17.jpg,MN,1,num_4,32,num_8,0.533524216327,,,2017_May_22_1341,60.0007890129,FEMA4ImagesEEG,001,100204,
AFNE01.JPG,AFNE01.JPG,AFNE01.JPG,AFNE01.JPG,AFNE01.JPG,AFNE01.JPG,,,,,1,0,10,0,,,,,,,,,,,,,,,,,,,AMSA11.jpg,AMNE16.jpg,AMNE18.jpg,AMSA19.jpg,AMSA19.jpg,MS,2,num_4,16,num_4,0.650111890107,,,2017_May_22_1341,60.0007890129,FEMA4ImagesEEG,001,100204,
AFNE01.JPG,AFNE01.JPG,AFNE01.JPG,AFNE01.JPG,AFNE01.JPG,AFNE01.JPG,,,,,1,1,11,2,,,,,,,,,,,,,,,,,,,AMSA07.jpg,AMNE02.jpg,AMNE01.jpg,AMSA06.jpg,AMNE01.jpg,MN,1,num_2,16,num_2,0.816567563394,,,2017_May_22_1341,60.0007890129,FEMA4ImagesEEG,001,100204,
AFNE01.JPG,AFNE01.JPG,AFNE01.JPG,AFNE01.JPG,AFNE01.JPG,AFNE01.JPG,,,,,1,2,12,1,,,,,,,,,,,,,,,,,,,AMSA15.jpg,AMNE03.jpg,AMNE08.jpg,AMSA07.jpg,AMNE08.jpg,MN,1,num_2,32,num_4,0.566759285633,,,2017_May_22_1341,60.0007890129,FEMA4ImagesEEG,001,100204,
AFNE01.JPG,AFNE01.JPG,AFNE01.JPG,AFNE01.JPG,AFNE01.JPG,AFNE01.JPG,,,,,1,3,13,3,,,,,,,,,,,,,,,,,,,AMNE03.jpg,AMSA06.jpg,AMNE05.jpg,AMSA05.jpg,AMSA06.jpg,MS,2,num_6,16,num_6,0.533504009712,,,2017_May_22_1341,60.0007890129,FEMA4ImagesEEG,001,100204,
AFNE01.JPG,AFNE01.JPG,AFNE01.JPG,AFNE01.JPG,AFNE01.JPG,AFNE01.JPG,,,,,1,4,14,4,,,,,,,,,,,,,,,,,,,AMNE01.jpg,AMSA05.jpg,AMNE05.jpg,AMSA20.jpg,AMNE05.jpg,MN,1,num_2,16,num_2,0.666802232736,,,2017_May_22_1341,60.0007890129,FEMA4ImagesEEG,001,100204,
AFNE01.JPG,AFNE01.JPG,AFNE01.JPG,AFNE01.JPG,AFNE01.JPG,AFNE01.JPG,,,,,1,5,15,5,,,,,,,,,,,,,,,,,,,AMSA20.jpg,AMNE20.jpg,AMSA04.jpg,AMNE03.jpg,AMNE03.jpg,MN,1,num_4,32,num_2,0.983424482227,,,2017_May_22_1341,60.0007890129,FEMA4ImagesEEG,001,100204,
AFNE01.JPG,AFNE01.JPG,AFNE01.JPG,AFNE01.JPG,AFNE01.JPG,AFNE01.JPG,,,,,1,6,16,7,,,,,,,,,,,,,,,,,,,AMNE10.jpg,AMSA09.jpg,AMNE05.jpg,AMSA05.jpg,AMNE05.jpg,MN,1,num_2,16,num_2,0.850247498951,,,2017_May_22_1341,60.0007890129,FEMA4ImagesEEG,001,100204,
AFNE01.JPG,AFNE01.JPG,AFNE01.JPG,AFNE01.JPG,AFNE01.JPG,AFNE01.JPG,,,,,1,7,17,8,,,,,,,,,,,,,,,,,,,AMSA12.jpg,AMNE17.jpg,AMSA19.jpg,AMNE20.jpg,AMNE17.jpg,MN,1,num_6,16,num_6,1.05011336552,,,2017_May_22_1341,60.0007890129,FEMA4ImagesEEG,001,100204,
AFNE01.JPG,AFNE01.JPG,AFNE01.JPG,AFNE01.JPG,AFNE01.JPG,AFNE01.JPG,,,,,1,8,18,6,,,,,,,,,,,,,,,,,,,AMNE07.jpg,AMNE02.jpg,AMSA19.jpg,AMSA06.jpg,AMNE02.jpg,MN,1,num_6,32,num_4,1.26669074351,,,2017_May_22_1341,60.0007890129,FEMA4ImagesEEG,001,100204,
AFNE01.JPG,AFNE01.JPG,AFNE01.JPG,AFNE01.JPG,AFNE01.JPG,AFNE01.JPG,,,,,1,9,19,9,,,,,,,,,,,,,,,,,,,AMNE12.jpg,AMSA01.jpg,AMSA03.jpg,AMNE14.jpg,AMNE12.jpg,MN,1,num_8,32,num_2,0.833473763952,,,2017_May_22_1341,60.0007890129,FEMA4ImagesEEG,001,100204,
AFNE01.JPG,AFNE01.JPG,AFNE01.JPG,AFNE01.JPG,AFNE01.JPG,AFNE01.JPG,,,,,2,0,20,3,,,,,,,,,,,,,,,,,,,AMNE02.jpg,AMSA04.jpg,AMNE20.jpg,AMSA14.jpg,AMSA14.jpg,MS,2,num_4,32,num_8,0.733429854619,,,2017_May_22_1341,60.0007890129,FEMA4ImagesEEG,001,100204,
AFNE01.JPG,AFNE01.JPG,AFNE01.JPG,AFNE01.JPG,AFNE01.JPG,AFNE01.JPG,,,,,2,1,21,2,,,,,,,,,,,,,,,,,,,AMNE02.jpg,AMSA19.jpg,AMSA04.jpg,AMNE11.jpg,AMNE02.jpg,MN,1,num_8,32,num_6,0.633482808829,,,2017_May_22_1341,60.0007890129,FEMA4ImagesEEG,001,100204,
AFNE01.JPG,AFNE01.JPG,AFNE01.JPG,AFNE01.JPG,AFNE01.JPG,AFNE01.JPG,,,,,2,2,22,9,,,,,,,,,,,,,,,,,,,AMSA18.jpg,AMSA05.jpg,AMNE12.jpg,AMNE10.jpg,AMSA05.jpg,MS,2,num_6,32,num_2,0.78370262793,,,2017_May_22_1341,60.0007890129,FEMA4ImagesEEG,001,100204,
AFNE01.JPG,AFNE01.JPG,AFNE01.JPG,AFNE01.JPG,AFNE01.JPG,AFNE01.JPG,,,,,2,3,23,1,,,,,,,,,,,,,,,,,,,AMNE06.jpg,AMSA06.jpg,AMNE20.jpg,AMSA12.jpg,AMNE06.jpg,MN,1,num_8,32,num_4,0.61677514622,,,2017_May_22_1341,60.0007890129,FEMA4ImagesEEG,001,100204,
AFNE01.JPG,AFNE01.JPG,AFNE01.JPG,AFNE01.JPG,AFNE01.JPG,AFNE01.JPG,,,,,2,4,24,4,,,,,,,,,,,,,,,,,,,AMNE13.jpg,AMNE17.jpg,AMSA09.jpg,AMSA02.jpg,AMSA09.jpg,MS,2,num_2,32,num_6,0.533542498481,,,2017_May_22_1341,60.0007890129,FEMA4ImagesEEG,001,100204,
AFNE01.JPG,AFNE01.JPG,AFNE01.JPG,AFNE01.JPG,AFNE01.JPG,AFNE01.JPG,,,,,2,5,25,0,,,,,,,,,,,,,,,,,,,AMNE09.jpg,AMSA13.jpg,AMNE10.jpg,AMSA10.jpg,AMNE09.jpg,MN,1,num_8,32,num_6,0.750168628991,,,2017_May_22_1341,60.0007890129,FEMA4ImagesEEG,001,100204,
AFNE01.JPG,AFNE01.JPG,AFNE01.JPG,AFNE01.JPG,AFNE01.JPG,AFNE01.JPG,,,,,2,6,26,7,,,,,,,,,,,,,,,,,,,AMSA11.jpg,AMSA03.jpg,AMNE12.jpg,AMNE01.jpg,AMSA11.jpg,MS,2,num_8,32,num_4,0.716792113439,,,2017_May_22_1341,60.0007890129,FEMA4ImagesEEG,001,100204,
AFNE01.JPG,AFNE01.JPG,AFNE01.JPG,AFNE01.JPG,AFNE01.JPG,AFNE01.JPG,,,,,2,7,27,6,,,,,,,,,,,,,,,,,,,AMSA20.jpg,AMNE04.jpg,AMNE19.jpg,AMSA09.jpg,AMSA20.jpg,MS,2,num_8,16,num_8,1.10010292538,,,2017_May_22_1341,60.0007890129,FEMA4ImagesEEG,001,100204,
AFNE01.JPG,AFNE01.JPG,AFNE01.JPG,AFNE01.JPG,AFNE01.JPG,AFNE01.JPG,,,,,2,8,28,8,,,,,,,,,,,,,,,,,,,AMSA13.jpg,AMSA09.jpg,AMNE06.jpg,AMNE02.jpg,AMSA09.jpg,MS,2,num_6,16,num_6,1.10017028084,,,2017_May_22_1341,60.0007890129,FEMA4ImagesEEG,001,100204,
AFNE01.JPG,AFNE01.JPG,AFNE01.JPG,AFNE01.JPG,AFNE01.JPG,AFNE01.JPG,,,,,2,9,29,5,,,,,,,,,,,,,,,,,,,AMSA12.jpg,AMNE09.jpg,AMNE19.jpg,AMSA03.jpg,AMSA12.jpg,MS,2,num_8,32,num_6,0.766789050307,,,2017_May_22_1341,60.0007890129,FEMA4ImagesEEG,001,100204,
AFNE01.JPG,AFNE01.JPG,AFNE01.JPG,AFNE01.JPG,AFNE01.JPG,AFNE01.JPG,,,,,3,0,30,1,,,,,,,,,,,,,,,,,,,AMSA11.jpg,AMNE20.jpg,AMNE05.jpg,AMSA07.jpg,AMNE05.jpg,MN,1,num_2,32,num_6,0.733531208418,,,2017_May_22_1341,60.0007890129,FEMA4ImagesEEG,001,100204,
AFNE01.JPG,AFNE01.JPG,AFNE01.JPG,AFNE01.JPG,AFNE01.JPG,AFNE01.JPG,,,,,3,1,31,7,,,,,,,,,,,,,,,,,,,AMSA20.jpg,AMSA04.jpg,AMNE20.jpg,AMNE12.jpg,AMSA20.jpg,MS,2,num_8,32,num_2,0.833442010684,,,2017_May_22_1341,60.0007890129,FEMA4ImagesEEG,001,100204,
AFNE01.JPG,AFNE01.JPG,AFNE01.JPG,AFNE01.JPG,AFNE01.JPG,AFNE01.JPG,,,,,3,2,32,2,,,,,,,,,,,,,,,,,,,AMNE04.jpg,AMSA04.jpg,AMSA17.jpg,AMNE13.jpg,AMNE04.jpg,MN,1,num_8,16,num_8,0.600155687134,,,2017_May_22_1341,60.0007890129,FEMA4ImagesEEG,001,100204,
AFNE01.JPG,AFNE01.JPG,AFNE01.JPG,AFNE01.JPG,AFNE01.JPG,AFNE01.JPG,,,,,3,3,33,5,,,,,,,,,,,,,,,,,,,AMSA18.jpg,AMSA09.jpg,AMNE17.jpg,AMNE05.jpg,AMSA09.jpg,MS,2,num_6,16,num_6,0.616867198609,,,2017_May_22_1341,60.0007890129,FEMA4ImagesEEG,001,100204,
AFNE01.JPG,AFNE01.JPG,AFNE01.JPG,AFNE01.JPG,AFNE01.JPG,AFNE01.JPG,,,,,3,4,34,4,,,,,,,,,,,,,,,,,,,AMNE10.jpg,AMNE19.jpg,AMSA10.jpg,AMSA02.jpg,AMNE10.jpg,MN,1,num_8,16,num_8,0.966750497406,,,2017_May_22_1341,60.0007890129,FEMA4ImagesEEG,001,100204,
AFNE01.JPG,AFNE01.JPG,AFNE01.JPG,AFNE01.JPG,AFNE01.JPG,AFNE01.JPG,,,,,3,5,35,3,,,,,,,,,,,,,,,,,,,AMSA05.jpg,AMSA10.jpg,AMNE06.jpg,AMNE11.jpg,AMSA10.jpg,MS,2,num_6,32,num_2,0.949995044561,,,2017_May_22_1341,60.0007890129,FEMA4ImagesEEG,001,100204,
AFNE01.JPG,AFNE01.JPG,AFNE01.JPG,AFNE01.JPG,AFNE01.JPG,AFNE01.JPG,,,,,3,6,36,0,,,,,,,,,,,,,,,,,,,AMSA15.jpg,AMNE10.jpg,AMNE14.jpg,AMSA16.jpg,AMNE10.jpg,MN,1,num_6,16,num_6,0.633508788713,,,2017_May_22_1341,60.0007890129,FEMA4ImagesEEG,001,100204,
AFNE01.JPG,AFNE01.JPG,AFNE01.JPG,AFNE01.JPG,AFNE01.JPG,AFNE01.JPG,,,,,3,7,37,6,,,,,,,,,,,,,,,,,,,AMNE18.jpg,AMNE17.jpg,AMSA09.jpg,AMSA11.jpg,AMNE17.jpg,MN,1,num_6,32,num_8,0.583477532666,,,2017_May_22_1341,60.0007890129,FEMA4ImagesEEG,001,100204,
AFNE01.JPG,AFNE01.JPG,AFNE01.JPG,AFNE01.JPG,AFNE01.JPG,AFNE01.JPG,,,,,3,8,38,8,,,,,,,,,,,,,,,,,,,AMNE02.jpg,AMSA20.jpg,AMSA07.jpg,AMNE09.jpg,AMSA07.jpg,MS,2,num_2,32,num_8,0.816773799132,,,2017_May_22_1341,60.0007890129,FEMA4ImagesEEG,001,100204,
AFNE01.JPG,AFNE01.JPG,AFNE01.JPG,AFNE01.JPG,AFNE01.JPG,AFNE01.JPG,,,,,3,9,39,9,,,,,,,,,,,,,,,,,,,AMSA01.jpg,AMSA18.jpg,AMNE20.jpg,AMNE04.jpg,AMSA18.jpg,MS,2,num_6,16,num_6,0.650126323395,,,2017_May_22_1341,60.0007890129,FEMA4ImagesEEG,001,100204,
AFNE01.JPG,AFNE01.JPG,AFNE01.JPG,AFNE01.JPG,AFNE01.JPG,AFNE01.JPG,,,,,4,0,40,3,,,,,,,,,,,,,,,,,,,AMSA03.jpg,AMNE01.jpg,AMSA07.jpg,AMNE13.jpg,AMNE01.jpg,MN,1,num_6,16,num_6,0.883474549802,,,2017_May_22_1341,60.0007890129,FEMA4ImagesEEG,001,100204,
AFNE01.JPG,AFNE01.JPG,AFNE01.JPG,AFNE01.JPG,AFNE01.JPG,AFNE01.JPG,,,,,4,1,41,2,,,,,,,,,,,,,,,,,,,AMNE20.jpg,AMNE07.jpg,AMSA17.jpg,AMSA10.jpg,AMSA17.jpg,MS,2,num_2,16,num_2,1.43346587376,,,2017_May_22_1341,60.0007890129,FEMA4ImagesEEG,001,100204,
AFNE01.JPG,AFNE01.JPG,AFNE01.JPG,AFNE01.JPG,AFNE01.JPG,AFNE01.JPG,,,,,4,2,42,8,,,,,,,,,,,,,,,,,,,AMSA17.jpg,AMSA12.jpg,AMNE13.jpg,AMNE18.jpg,AMSA12.jpg,MS,2,num_6,16,num_6,0.900181570847,,,2017_May_22_1341,60.0007890129,FEMA4ImagesEEG,001,100204,
AFNE01.JPG,AFNE01.JPG,AFNE01.JPG,AFNE01.JPG,AFNE01.JPG,AFNE01.JPG,,,,,4,3,43,1,,,,,,,,,,,,,,,,,,,AMSA17.jpg,AMNE19.jpg,AMNE11.jpg,AMSA03.jpg,AMNE11.jpg,MN,1,num_2,32,num_4,0.850128183665,,,2017_May_22_1341,60.0007890129,FEMA4ImagesEEG,001,100204,
AFNE01.JPG,AFNE01.JPG,AFNE01.JPG,AFNE01.JPG,AFNE01.JPG,AFNE01.JPG,,,,,4,4,44,5,,,,,,,,,,,,,,,,,,,AMNE04.jpg,AMSA07.jpg,AMSA12.jpg,AMNE16.jpg,AMSA07.jpg,MS,2,num_6,32,num_4,0.800146000809,,,2017_May_22_1341,60.0007890129,FEMA4ImagesEEG,001,100204,
AFNE01.JPG,AFNE01.JPG,AFNE01.JPG,AFNE01.JPG,AFNE01.JPG,AFNE01.JPG,,,,,4,5,45,9,,,,,,,,,,,,,,,,,,,AMNE06.jpg,AMNE20.jpg,AMSA19.jpg,AMSA08.jpg,AMNE20.jpg,MN,1,num_6,16,num_6,0.717096816283,,,2017_May_22_1341,60.0007890129,FEMA4ImagesEEG,001,100204,
AFNE01.JPG,AFNE01.JPG,AFNE01.JPG,AFNE01.JPG,AFNE01.JPG,AFNE01.JPG,,,,,4,6,46,7,,,,,,,,,,,,,,,,,,,AMSA03.jpg,AMNE02.jpg,AMSA05.jpg,AMNE09.jpg,AMNE09.jpg,MN,1,num_4,16,num_4,0.650131134491,,,2017_May_22_1341,60.0007890129,FEMA4ImagesEEG,001,100204,
AFNE01.JPG,AFNE01.JPG,AFNE01.JPG,AFNE01.JPG,AFNE01.JPG,AFNE01.JPG,,,,,4,7,47,4,,,,,,,,,,,,,,,,,,,AMSA17.jpg,AMNE04.jpg,AMSA16.jpg,AMNE08.jpg,AMNE08.jpg,MN,1,num_4,32,num_2,0.983406520856,,,2017_May_22_1341,60.0007890129,FEMA4ImagesEEG,001,100204,
AFNE01.JPG,AFNE01.JPG,AFNE01.JPG,AFNE01.JPG,AFNE01.JPG,AFNE01.JPG,,,,,4,8,48,0,,,,,,,,,,,,,,,,,,,AMSA06.jpg,AMNE18.jpg,AMNE02.jpg,AMSA04.jpg,AMSA04.jpg,MS,2,num_4,32,num_8,0.583490682999,,,2017_May_22_1341,60.0007890129,FEMA4ImagesEEG,001,100204,
AFNE01.JPG,AFNE01.JPG,AFNE01.JPG,AFNE01.JPG,AFNE01.JPG,AFNE01.JPG,,,,,4,9,49,6,,,,,,,,,,,,,,,,,,,AMNE03.jpg,AMSA13.jpg,AMNE04.jpg,AMSA03.jpg,AMNE04.jpg,MN,1,num_2,32,num_4,0.766746071167,,,2017_May_22_1341,60.0007890129,FEMA4ImagesEEG,001,100204,
AFNE01.JPG,AFNE01.JPG,AFNE01.JPG,AFNE01.JPG,AFNE01.JPG,AFNE01.JPG,,,,,5,0,50,7,,,,,,,,,,,,,,,,,,,AMSA09.jpg,AMSA06.jpg,AMNE05.jpg,AMNE11.jpg,AMSA09.jpg,MS,2,num_8,32,num_2,0.700175220205,,,2017_May_22_1341,60.0007890129,FEMA4ImagesEEG,001,100204,
AFNE01.JPG,AFNE01.JPG,AFNE01.JPG,AFNE01.JPG,AFNE01.JPG,AFNE01.JPG,,,,,5,1,51,4,,,,,,,,,,,,,,,,,,,AMSA19.jpg,AMSA14.jpg,AMNE02.jpg,AMNE17.jpg,AMNE02.jpg,MN,1,num_2,32,num_8,1.03341500438,,,2017_May_22_1341,60.0007890129,FEMA4ImagesEEG,001,100204,
AFNE01.JPG,AFNE01.JPG,AFNE01.JPG,AFNE01.JPG,AFNE01.JPG,AFNE01.JPG,,,,,5,2,52,9,,,,,,,,,,,,,,,,,,,AMSA05.jpg,AMNE14.jpg,AMSA06.jpg,AMNE08.jpg,AMSA06.jpg,MS,2,num_2,16,num_2,0.966789627681,,,2017_May_22_1341,60.0007890129,FEMA4ImagesEEG,001,100204,
AFNE01.JPG,AFNE01.JPG,AFNE01.JPG,AFNE01.JPG,AFNE01.JPG,AFNE01.JPG,,,,,5,3,53,3,,,,,,,,,,,,,,,,,,,AMSA06.jpg,AMSA04.jpg,AMNE02.jpg,AMNE16.jpg,AMNE16.jpg,MN,1,num_4,16,num_4,0.650180849188,,,2017_May_22_1341,60.0007890129,FEMA4ImagesEEG,001,100204,
AFNE01.JPG,AFNE01.JPG,AFNE01.JPG,AFNE01.JPG,AFNE01.JPG,AFNE01.JPG,,,,,5,4,54,2,,,,,,,,,,,,,,,,,,,AMNE12.jpg,AMNE05.jpg,AMSA15.jpg,AMSA11.jpg,AMNE12.jpg,MN,1,num_8,32,num_4,0.850040621706,,,2017_May_22_1341,60.0007890129,FEMA4ImagesEEG,001,100204,
AFNE01.JPG,AFNE01.JPG,AFNE01.JPG,AFNE01.JPG,AFNE01.JPG,AFNE01.JPG,,,,,5,5,55,6,,,,,,,,,,,,,,,,,,,AMNE04.jpg,AMNE10.jpg,AMSA04.jpg,AMSA17.jpg,AMNE10.jpg,MN,1,num_6,16,num_6,0.550069584511,,,2017_May_22_1341,60.0007890129,FEMA4ImagesEEG,001,100204,
AFNE01.JPG,AFNE01.JPG,AFNE01.JPG,AFNE01.JPG,AFNE01.JPG,AFNE01.JPG,,,,,5,6,56,1,,,,,,,,,,,,,,,,,,,AMSA18.jpg,AMSA02.jpg,AMNE19.jpg,AMNE03.jpg,AMSA18.jpg,MS,2,num_8,16,num_8,0.58346149564,,,2017_May_22_1341,60.0007890129,FEMA4ImagesEEG,001,100204,
AFNE01.JPG,AFNE01.JPG,AFNE01.JPG,AFNE01.JPG,AFNE01.JPG,AFNE01.JPG,,,,,5,7,57,8,,,,,,,,,,,,,,,,,,,AMNE10.jpg,AMSA13.jpg,AMNE19.jpg,AMSA06.jpg,AMSA13.jpg,MS,2,num_6,16,num_6,0.550131166587,,,2017_May_22_1341,60.0007890129,FEMA4ImagesEEG,001,100204,
AFNE01.JPG,AFNE01.JPG,AFNE01.JPG,AFNE01.JPG,AFNE01.JPG,AFNE01.JPG,,,,,5,8,58,5,,,,,,,,,,,,,,,,,,,AMSA11.jpg,AMNE05.jpg,AMNE18.jpg,AMSA09.jpg,AMNE05.jpg,MN,1,num_6,32,num_8,0.500195811735,,,2017_May_22_1341,60.0007890129,FEMA4ImagesEEG,001,100204,
AFNE01.JPG,AFNE01.JPG,AFNE01.JPG,AFNE01.JPG,AFNE01.JPG,AFNE01.JPG,,,,,5,9,59,0,,,,,,,,,,,,,,,,,,,AMNE09.jpg,AMSA17.jpg,AMNE10.jpg,AMSA03.jpg,AMNE09.jpg,MN,1,num_8,32,num_2,0.800126114918,,,2017_May_22_1341,60.0007890129,FEMA4ImagesEEG,001,100204,
,,,,,,,,,,,,,,,,,,,,,,,,,,,,,,,,,,,,,,,,,,,space,10.0660704967,2017_May_22_1341,60.0007890129,FEMA4ImagesEEG,001,100204,
AFNE01.JPG,AFNE01.JPG,AFNE01.JPG,AFNE01.JPG,AFNE01.JPG,AFNE01.JPG,,,,,,,,,0,0,0,6,,,,,,,,,,,,,,,AFSA06.jpg,AFNE14.jpg,AFNE18.jpg,AFSA11.jpg,AFSA11.jpg,FS,4,num_4,32,num_6,0.500137437019,,,2017_May_22_1341,60.0007890129,FEMA4ImagesEEG,001,100204,
AFNE01.JPG,AFNE01.JPG,AFNE01.JPG,AFNE01.JPG,AFNE01.JPG,AFNE01.JPG,,,,,,,,,0,1,1,2,,,,,,,,,,,,,,,AFNE10.jpg,AFSA12.jpg,AFNE03.jpg,AFSA01.jpg,AFNE10.jpg,FN,3,num_8,32,num_2,0.93343716755,,,2017_May_22_1341,60.0007890129,FEMA4ImagesEEG,001,100204,
AFNE01.JPG,AFNE01.JPG,AFNE01.JPG,AFNE01.JPG,AFNE01.JPG,AFNE01.JPG,,,,,,,,,0,2,2,3,,,,,,,,,,,,,,,AFSA16.jpg,AFNE08.jpg,AFNE13.jpg,AFSA05.jpg,AFNE13.jpg,FN,3,num_2,32,num_4,0.750104160339,,,2017_May_22_1341,60.0007890129,FEMA4ImagesEEG,001,100204,
AFNE01.JPG,AFNE01.JPG,AFNE01.JPG,AFNE01.JPG,AFNE01.JPG,AFNE01.JPG,,,,,,,,,0,3,3,1,,,,,,,,,,,,,,,AFSA14.jpg,AFNE07.jpg,AFNE08.jpg,AFSA08.jpg,AFNE08.jpg,FN,3,num_2,32,num_6,0.550173183496,,,2017_May_22_1341,60.0007890129,FEMA4ImagesEEG,001,100204,
AFNE01.JPG,AFNE01.JPG,AFNE01.JPG,AFNE01.JPG,AFNE01.JPG,AFNE01.JPG,,,,,,,,,0,4,4,4,,,,,,,,,,,,,,,AFSA15.jpg,AFNE08.jpg,AFNE09.jpg,AFSA07.jpg,AFSA15.jpg,FS,4,num_8,16,num_8,0.433512701769,,,2017_May_22_1341,60.0007890129,FEMA4ImagesEEG,001,100204,
AFNE01.JPG,AFNE01.JPG,AFNE01.JPG,AFNE01.JPG,AFNE01.JPG,AFNE01.JPG,,,,,,,,,0,5,5,8,,,,,,,,,,,,,,,AFNE12.jpg,AFSA19.jpg,AFNE17.jpg,AFSA20.jpg,AFSA20.jpg,FS,4,num_4,32,num_2,0.666815703793,,,2017_May_22_1341,60.0007890129,FEMA4ImagesEEG,001,100204,
AFNE01.JPG,AFNE01.JPG,AFNE01.JPG,AFNE01.JPG,AFNE01.JPG,AFNE01.JPG,,,,,,,,,0,6,6,5,,,,,,,,,,,,,,,AFSA16.jpg,AFNE13.jpg,AFSA18.jpg,AFNE16.jpg,AFNE13.jpg,FN,3,num_6,16,num_6,0.766916063323,,,2017_May_22_1341,60.0007890129,FEMA4ImagesEEG,001,100204,
AFNE01.JPG,AFNE01.JPG,AFNE01.JPG,AFNE01.JPG,AFNE01.JPG,AFNE01.JPG,,,,,,,,,0,7,7,7,,,,,,,,,,,,,,,AFNE01.jpg,AFSA12.jpg,AFNE16.jpg,AFSA09.jpg,AFNE16.jpg,FN,3,num_2,32,num_4,0.516783838277,,,2017_May_22_1341,60.0007890129,FEMA4ImagesEEG,001,100204,
AFNE01.JPG,AFNE01.JPG,AFNE01.JPG,AFNE01.JPG,AFNE01.JPG,AFNE01.JPG,,,,,,,,,0,8,8,0,,,,,,,,,,,,,,,AFNE12.jpg,AFSA17.jpg,AFNE13.jpg,AFSA07.jpg,AFSA07.jpg,FS,4,num_4,16,num_4,0.783523013524,,,2017_May_22_1341,60.0007890129,FEMA4ImagesEEG,001,100204,
AFNE01.JPG,AFNE01.JPG,AFNE01.JPG,AFNE01.JPG,AFNE01.JPG,AFNE01.JPG,,,,,,,,,0,9,9,9,,,,,,,,,,,,,,,AFNE15.jpg,AFSA07.jpg,AFNE08.jpg,AFSA19.jpg,AFSA07.jpg,FS,4,num_6,32,num_4,1.00009718421,,,2017_May_22_1341,60.0007890129,FEMA4ImagesEEG,001,100204,
AFNE01.JPG,AFNE01.JPG,AFNE01.JPG,AFNE01.JPG,AFNE01.JPG,AFNE01.JPG,,,,,,,,,1,0,10,4,,,,,,,,,,,,,,,AFSA20.jpg,AFNE13.jpg,AFSA09.jpg,AFNE06.jpg,AFSA20.jpg,FS,4,num_8,16,num_8,0.633409038594,,,2017_May_22_1341,60.0007890129,FEMA4ImagesEEG,001,100204,
AFNE01.JPG,AFNE01.JPG,AFNE01.JPG,AFNE01.JPG,AFNE01.JPG,AFNE01.JPG,,,,,,,,,1,1,11,5,,,,,,,,,,,,,,,AFSA17.jpg,AFNE07.jpg,AFNE01.jpg,AFSA09.jpg,AFNE01.jpg,FN,3,num_2,32,num_6,0.600152479776,,,2017_May_22_1341,60.0007890129,FEMA4ImagesEEG,001,100204,
AFNE01.JPG,AFNE01.JPG,AFNE01.JPG,AFNE01.JPG,AFNE01.JPG,AFNE01.JPG,,,,,,,,,1,2,12,6,,,,,,,,,,,,,,,AFNE10.jpg,AFSA16.jpg,AFSA18.jpg,AFNE03.jpg,AFSA18.jpg,FS,4,num_2,16,num_2,0.900143082079,,,2017_May_22_1341,60.0007890129,FEMA4ImagesEEG,001,100204,
AFNE01.JPG,AFNE01.JPG,AFNE01.JPG,AFNE01.JPG,AFNE01.JPG,AFNE01.JPG,,,,,,,,,1,3,13,2,,,,,,,,,,,,,,,AFNE12.jpg,AFSA04.jpg,AFNE05.jpg,AFSA02.jpg,AFNE12.jpg,FN,3,num_8,32,num_4,0.850141654781,,,2017_May_22_1341,60.0007890129,FEMA4ImagesEEG,001,100204,
AFNE01.JPG,AFNE01.JPG,AFNE01.JPG,AFNE01.JPG,AFNE01.JPG,AFNE01.JPG,,,,,,,,,1,4,14,3,,,,,,,,,,,,,,,AFNE05.jpg,AFSA13.jpg,AFSA12.jpg,AFNE17.jpg,AFSA13.jpg,FS,4,num_6,32,num_8,0.716783774144,,,2017_May_22_1341,60.0007890129,FEMA4ImagesEEG,001,100204,
AFNE01.JPG,AFNE01.JPG,AFNE01.JPG,AFNE01.JPG,AFNE01.JPG,AFNE01.JPG,,,,,,,,,1,5,15,9,,,,,,,,,,,,,,,AFSA18.jpg,AFNE09.jpg,AFNE13.jpg,AFSA13.jpg,AFNE09.jpg,FN,3,num_6,32,num_8,0.850245574489,,,2017_May_22_1341,60.0007890129,FEMA4ImagesEEG,001,100204,
AFNE01.JPG,AFNE01.JPG,AFNE01.JPG,AFNE01.JPG,AFNE01.JPG,AFNE01.JPG,,,,,,,,,1,6,16,0,,,,,,,,,,,,,,,AFSA12.jpg,AFNE06.jpg,AFNE16.jpg,AFSA09.jpg,AFSA09.jpg,FS,4,num_4,32,num_6,0.733476682683,,,2017_May_22_1341,60.0007890129,FEMA4ImagesEEG,001,100204,
AFNE01.JPG,AFNE01.JPG,AFNE01.JPG,AFNE01.JPG,AFNE01.JPG,AFNE01.JPG,,,,,,,,,1,7,17,7,,,,,,,,,,,,,,,AFSA05.jpg,AFSA12.jpg,AFNE02.jpg,AFNE09.jpg,AFSA12.jpg,FS,4,num_6,16,num_6,0.616781240271,,,2017_May_22_1341,60.0007890129,FEMA4ImagesEEG,001,100204,
AFNE01.JPG,AFNE01.JPG,AFNE01.JPG,AFNE01.JPG,AFNE01.JPG,AFNE01.JPG,,,,,,,,,1,8,18,1,,,,,,,,,,,,,,,AFNE13.jpg,AFSA20.jpg,AFNE07.jpg,AFSA14.jpg,AFNE13.jpg,FN,3,num_8,32,num_2,0.916746504197,,,2017_May_22_1341,60.0007890129,FEMA4ImagesEEG,001,100204,
AFNE01.JPG,AFNE01.JPG,AFNE01.JPG,AFNE01.JPG,AFNE01.JPG,AFNE01.JPG,,,,,,,,,1,9,19,8,,,,,,,,,,,,,,,AFNE19.jpg,AFNE02.jpg,AFSA16.jpg,AFSA03.jpg,AFNE02.jpg,FN,3,num_6,16,num_6,0.550144637702,,,2017_May_22_1341,60.0007890129,FEMA4ImagesEEG,001,100204,
AFNE01.JPG,AFNE01.JPG,AFNE01.JPG,AFNE01.JPG,AFNE01.JPG,AFNE01.JPG,,,,,,,,,2,0,20,7,,,,,,,,,,,,,,,AFNE19.jpg,AFSA07.jpg,AFNE20.jpg,AFSA03.jpg,AFNE20.jpg,FN,3,num_2,16,num_2,0.900133780611,,,2017_May_22_1341,60.0007890129,FEMA4ImagesEEG,001,100204,
AFNE01.JPG,AFNE01.JPG,AFNE01.JPG,AFNE01.JPG,AFNE01.JPG,AFNE01.JPG,,,,,,,,,2,1,21,6,,,,,,,,,,,,,,,AFNE09.jpg,AFSA18.jpg,AFNE17.jpg,AFSA07.jpg,AFSA18.jpg,FS,4,num_6,16,num_6,0.66676214023,,,2017_May_22_1341,60.0007890129,FEMA4ImagesEEG,001,100204,
AFNE01.JPG,AFNE01.JPG,AFNE01.JPG,AFNE01.JPG,AFNE01.JPG,AFNE01.JPG,,,,,,,,,2,2,22,3,,,,,,,,,,,,,,,AFNE17.jpg,AFNE11.jpg,AFSA16.jpg,AFSA01.jpg,AFNE17.jpg,FN,3,num_8,16,num_8,0.733463211625,,,2017_May_22_1341,60.0007890129,FEMA4ImagesEEG,001,100204,
AFNE01.JPG,AFNE01.JPG,AFNE01.JPG,AFNE01.JPG,AFNE01.JPG,AFNE01.JPG,,,,,,,,,2,3,23,5,,,,,,,,,,,,,,,AFSA15.jpg,AFNE07.jpg,AFNE13.jpg,AFSA17.jpg,AFSA17.jpg,FS,4,num_4,32,num_2,0.80015209486,,,2017_May_22_1341,60.0007890129,FEMA4ImagesEEG,001,100204,
AFNE01.JPG,AFNE01.JPG,AFNE01.JPG,AFNE01.JPG,AFNE01.JPG,AFNE01.JPG,,,,,,,,,2,4,24,1,,,,,,,,,,,,,,,AFSA13.jpg,AFNE09.jpg,AFSA18.jpg,AFNE17.jpg,AFNE17.jpg,FN,3,num_4,16,num_4,0.383533405547,,,2017_May_22_1341,60.0007890129,FEMA4ImagesEEG,001,100204,
AFNE01.JPG,AFNE01.JPG,AFNE01.JPG,AFNE01.JPG,AFNE01.JPG,AFNE01.JPG,,,,,,,,,2,5,25,2,,,,,,,,,,,,,,,AFSA12.jpg,AFNE12.jpg,AFNE10.jpg,AFSA15.jpg,AFSA12.jpg,FS,4,num_8,16,num_8,0.533524857834,,,2017_May_22_1341,60.0007890129,FEMA4ImagesEEG,001,100204,
AFNE01.JPG,AFNE01.JPG,AFNE01.JPG,AFNE01.JPG,AFNE01.JPG,AFNE01.JPG,,,,,,,,,2,6,26,0,,,,,,,,,,,,,,,AFNE15.jpg,AFNE09.jpg,AFSA02.jpg,AFSA17.jpg,AFNE09.jpg,FN,3,num_6,32,num_2,0.883473908238,,,2017_May_22_1341,60.0007890129,FEMA4ImagesEEG,001,100204,
AFNE01.JPG,AFNE01.JPG,AFNE01.JPG,AFNE01.JPG,AFNE01.JPG,AFNE01.JPG,,,,,,,,,2,7,27,4,,,,,,,,,,,,,,,AFSA07.jpg,AFNE19.jpg,AFSA15.jpg,AFNE17.jpg,AFNE17.jpg,FN,3,num_4,32,num_6,0.516807573091,,,2017_May_22_1341,60.0007890129,FEMA4ImagesEEG,001,100204,
AFNE01.JPG,AFNE01.JPG,AFNE01.JPG,AFNE01.JPG,AFNE01.JPG,AFNE01.JPG,,,,,,,,,2,8,28,8,,,,,,,,,,,,,,,AFSA02.jpg,AFSA13.jpg,AFNE14.jpg,AFNE20.jpg,AFNE20.jpg,FN,3,num_4,16,num_4,0.416789964482,,,2017_May_22_1341,60.0007890129,FEMA4ImagesEEG,001,100204,
AFNE01.JPG,AFNE01.JPG,AFNE01.JPG,AFNE01.JPG,AFNE01.JPG,AFNE01.JPG,,,,,,,,,2,9,29,9,,,,,,,,,,,,,,,AFNE01.jpg,AFNE11.jpg,AFSA20.jpg,AFSA15.jpg,AFNE11.jpg,FN,3,num_6,16,num_6,0.566820546985,,,2017_May_22_1341,60.0007890129,FEMA4ImagesEEG,001,100204,
AFNE01.JPG,AFNE01.JPG,AFNE01.JPG,AFNE01.JPG,AFNE01.JPG,AFNE01.JPG,,,,,,,,,3,0,30,7,,,,,,,,,,,,,,,AFNE14.jpg,AFSA10.jpg,AFSA09.jpg,AFNE04.jpg,AFNE04.jpg,FN,3,num_4,16,num_4,0.533548271807,,,2017_May_22_1341,60.0007890129,FEMA4ImagesEEG,001,100204,
AFNE01.JPG,AFNE01.JPG,AFNE01.JPG,AFNE01.JPG,AFNE01.JPG,AFNE01.JPG,,,,,,,,,3,1,31,6,,,,,,,,,,,,,,,AFNE13.jpg,AFSA20.jpg,AFSA18.jpg,AFNE04.jpg,AFSA18.jpg,FS,4,num_2,32,num_8,0.500142889621,,,2017_May_22_1341,60.0007890129,FEMA4ImagesEEG,001,100204,
AFNE01.JPG,AFNE01.JPG,AFNE01.JPG,AFNE01.JPG,AFNE01.JPG,AFNE01.JPG,,,,,,,,,3,2,32,8,,,,,,,,,,,,,,,AFNE02.jpg,AFSA16.jpg,AFSA06.jpg,AFNE01.jpg,AFNE02.jpg,FN,3,num_8,32,num_4,0.600128424237,,,2017_May_22_1341,60.0007890129,FEMA4ImagesEEG,001,100204,
AFNE01.JPG,AFNE01.JPG,AFNE01.JPG,AFNE01.JPG,AFNE01.JPG,AFNE01.JPG,,,,,,,,,3,3,33,2,,,,,,,,,,,,,,,AFNE05.jpg,AFSA14.jpg,AFSA16.jpg,AFNE03.jpg,AFNE05.jpg,FN,3,num_8,32,num_2,0.766906120407,,,2017_May_22_1341,60.0007890129,FEMA4ImagesEEG,001,100204,
AFNE01.JPG,AFNE01.JPG,AFNE01.JPG,AFNE01.JPG,AFNE01.JPG,AFNE01.JPG,,,,,,,,,3,4,34,3,,,,,,,,,,,,,,,AFSA20.jpg,AFSA09.jpg,AFNE04.jpg,AFNE08.jpg,AFSA09.jpg,FS,4,num_6,32,num_4,2.41666134773,,,2017_May_22_1341,60.0007890129,FEMA4ImagesEEG,001,100204,
AFNE01.JPG,AFNE01.JPG,AFNE01.JPG,AFNE01.JPG,AFNE01.JPG,AFNE01.JPG,,,,,,,,,3,5,35,4,,,,,,,,,,,,,,,AFNE02.jpg,AFSA12.jpg,AFNE04.jpg,AFSA01.jpg,AFSA01.jpg,FS,4,num_4,16,num_4,0.633465809573,,,2017_May_22_1341,60.0007890129,FEMA4ImagesEEG,001,100204,
AFNE01.JPG,AFNE01.JPG,AFNE01.JPG,AFNE01.JPG,AFNE01.JPG,AFNE01.JPG,,,,,,,,,3,6,36,9,,,,,,,,,,,,,,,AFSA18.jpg,AFNE06.jpg,AFNE07.jpg,AFSA15.jpg,AFNE07.jpg,FN,3,num_2,16,num_2,1.30012499233,,,2017_May_22_1341,60.0007890129,FEMA4ImagesEEG,001,100204,
AFNE01.JPG,AFNE01.JPG,AFNE01.JPG,AFNE01.JPG,AFNE01.JPG,AFNE01.JPG,,,,,,,,,3,7,37,0,,,,,,,,,,,,,,,AFSA16.jpg,AFSA08.jpg,AFNE02.jpg,AFNE17.jpg,AFNE17.jpg,FN,3,num_4,32,num_8,0.81681741972,,,2017_May_22_1341,60.0007890129,FEMA4ImagesEEG,001,100204,
AFNE01.JPG,AFNE01.JPG,AFNE01.JPG,AFNE01.JPG,AFNE01.JPG,AFNE01.JPG,,,,,,,,,3,8,38,5,,,,,,,,,,,,,,,AFSA03.jpg,AFSA15.jpg,AFNE02.jpg,AFNE14.jpg,AFSA15.jpg,FS,4,num_6,16,num_6,0.500154756999,,,2017_May_22_1341,60.0007890129,FEMA4ImagesEEG,001,100204,
AFNE01.JPG,AFNE01.JPG,AFNE01.JPG,AFNE01.JPG,AFNE01.JPG,AFNE01.JPG,,,,,,,,,3,9,39,1,,,,,,,,,,,,,,,AFSA05.jpg,AFNE09.jpg,AFSA11.jpg,AFNE10.jpg,AFNE09.jpg,FN,3,num_6,32,num_4,0.750162214215,,,2017_May_22_1341,60.0007890129,FEMA4ImagesEEG,001,100204,
AFNE01.JPG,AFNE01.JPG,AFNE01.JPG,AFNE01.JPG,AFNE01.JPG,AFNE01.JPG,,,,,,,,,4,0,40,7,,,,,,,,,,,,,,,AFNE08.jpg,AFSA20.jpg,AFNE06.jpg,AFSA16.jpg,AFNE08.jpg,FN,3,num_8,16,num_8,0.516837081115,,,2017_May_22_1341,60.0007890129,FEMA4ImagesEEG,001,100204,
AFNE01.JPG,AFNE01.JPG,AFNE01.JPG,AFNE01.JPG,AFNE01.JPG,AFNE01.JPG,,,,,,,,,4,1,41,1,,,,,,,,,,,,,,,AFSA16.jpg,AFNE17.jpg,AFNE08.jpg,AFSA06.jpg,AFNE17.jpg,FN,3,num_6,32,num_8,0.900096574798,,,2017_May_22_1341,60.0007890129,FEMA4ImagesEEG,001,100204,
AFNE01.JPG,AFNE01.JPG,AFNE01.JPG,AFNE01.JPG,AFNE01.JPG,AFNE01.JPG,,,,,,,,,4,2,42,4,,,,,,,,,,,,,,,AFNE14.jpg,AFNE04.jpg,AFSA20.jpg,AFSA02.jpg,AFNE14.jpg,FN,3,num_8,16,num_8,0.91682668915,,,2017_May_22_1341,60.0007890129,FEMA4ImagesEEG,001,100204,
AFNE01.JPG,AFNE01.JPG,AFNE01.JPG,AFNE01.JPG,AFNE01.JPG,AFNE01.JPG,,,,,,,,,4,3,43,5,,,,,,,,,,,,,,,AFNE03.jpg,AFSA14.jpg,AFNE12.jpg,AFSA19.jpg,AFNE12.jpg,FN,3,num_2,32,num_4,0.783333456318,,,2017_May_22_1341,60.0007890129,FEMA4ImagesEEG,001,100204,
AFNE01.JPG,AFNE01.JPG,AFNE01.JPG,AFNE01.JPG,AFNE01.JPG,AFNE01.JPG,,,,,,,,,4,4,44,0,,,,,,,,,,,,,,,AFSA14.jpg,AFNE08.jpg,AFSA04.jpg,AFNE12.jpg,AFNE08.jpg,FN,3,num_6,32,num_2,0.900145968713,,,2017_May_22_1341,60.0007890129,FEMA4ImagesEEG,001,100204,
AFNE01.JPG,AFNE01.JPG,AFNE01.JPG,AFNE01.JPG,AFNE01.JPG,AFNE01.JPG,,,,,,,,,4,5,45,8,,,,,,,,,,,,,,,AFSA13.jpg,AFNE09.jpg,AFNE02.jpg,AFSA01.jpg,AFSA01.jpg,FS,4,num_4,32,num_8,0.616793749155,,,2017_May_22_1341,60.0007890129,FEMA4ImagesEEG,001,100204,
AFNE01.JPG,AFNE01.JPG,AFNE01.JPG,AFNE01.JPG,AFNE01.JPG,AFNE01.JPG,,,,,,,,,4,6,46,3,,,,,,,,,,,,,,,AFSA01.jpg,AFNE17.jpg,AFNE15.jpg,AFSA02.jpg,AFSA02.jpg,FS,4,num_4,32,num_8,0.516820402641,,,2017_May_22_1341,60.0007890129,FEMA4ImagesEEG,001,100204,
AFNE01.JPG,AFNE01.JPG,AFNE01.JPG,AFNE01.JPG,AFNE01.JPG,AFNE01.JPG,,,,,,,,,4,7,47,9,,,,,,,,,,,,,,,AFNE11.jpg,AFSA07.jpg,AFSA08.jpg,AFNE12.jpg,AFNE11.jpg,FN,3,num_8,32,num_2,1.0000824302,,,2017_May_22_1341,60.0007890129,FEMA4ImagesEEG,001,100204,
AFNE01.JPG,AFNE01.JPG,AFNE01.JPG,AFNE01.JPG,AFNE01.JPG,AFNE01.JPG,,,,,,,,,4,8,48,6,,,,,,,,,,,,,,,AFSA01.jpg,AFNE17.jpg,AFNE08.jpg,AFSA09.jpg,AFSA01.jpg,FS,4,num_8,16,num_8,0.783467525558,,,2017_May_22_1341,60.0007890129,FEMA4ImagesEEG,001,100204,
AFNE01.JPG,AFNE01.JPG,AFNE01.JPG,AFNE01.JPG,AFNE01.JPG,AFNE01.JPG,,,,,,,,,4,9,49,2,,,,,,,,,,,,,,,AFNE09.jpg,AFNE04.jpg,AFSA03.jpg,AFSA07.jpg,AFSA03.jpg,FS,4,num_2,32,num_4,0.450159744476,,,2017_May_22_1341,60.0007890129,FEMA4ImagesEEG,001,100204,
AFNE01.JPG,AFNE01.JPG,AFNE01.JPG,AFNE01.JPG,AFNE01.JPG,AFNE01.JPG,,,,,,,,,5,0,50,3,,,,,,,,,,,,,,,AFNE03.jpg,AFNE15.jpg,AFSA09.jpg,AFSA12.jpg,AFSA12.jpg,FS,4,num_4,16,num_4,0.583506720024,,,2017_May_22_1341,60.0007890129,FEMA4ImagesEEG,001,100204,
AFNE01.JPG,AFNE01.JPG,AFNE01.JPG,AFNE01.JPG,AFNE01.JPG,AFNE01.JPG,,,,,,,,,5,1,51,0,,,,,,,,,,,,,,,AFSA06.jpg,AFNE09.jpg,AFNE05.jpg,AFSA16.jpg,AFSA16.jpg,FS,4,num_4,32,num_6,0.966782571399,,,2017_May_22_1341,60.0007890129,FEMA4ImagesEEG,001,100204,
AFNE01.JPG,AFNE01.JPG,AFNE01.JPG,AFNE01.JPG,AFNE01.JPG,AFNE01.JPG,,,,,,,,,5,2,52,9,,,,,,,,,,,,,,,AFNE11.jpg,AFSA04.jpg,AFNE16.jpg,AFSA15.jpg,AFNE11.jpg,FN,3,num_8,16,num_8,0.516822006321,,,2017_May_22_1341,60.0007890129,FEMA4ImagesEEG,001,100204,
AFNE01.JPG,AFNE01.JPG,AFNE01.JPG,AFNE01.JPG,AFNE01.JPG,AFNE01.JPG,,,,,,,,,5,3,53,4,,,,,,,,,,,,,,,AFSA20.jpg,AFSA16.jpg,AFNE15.jpg,AFNE01.jpg,AFSA20.jpg,FS,4,num_8,16,num_8,0.933423054987,,,2017_May_22_1341,60.0007890129,FEMA4ImagesEEG,001,100204,
AFNE01.JPG,AFNE01.JPG,AFNE01.JPG,AFNE01.JPG,AFNE01.JPG,AFNE01.JPG,,,,,,,,,5,4,54,6,,,,,,,,,,,,,,,AFSA16.jpg,AFSA12.jpg,AFNE07.jpg,AFNE18.jpg,AFSA16.jpg,FS,4,num_8,32,num_4,0.950118850218,,,2017_May_22_1341,60.0007890129,FEMA4ImagesEEG,001,100204,
AFNE01.JPG,AFNE01.JPG,AFNE01.JPG,AFNE01.JPG,AFNE01.JPG,AFNE01.JPG,,,,,,,,,5,5,55,5,,,,,,,,,,,,,,,AFNE14.jpg,AFNE12.jpg,AFSA10.jpg,AFSA16.jpg,AFNE12.jpg,FN,3,num_6,16,num_6,1.26676066482,,,2017_May_22_1341,60.0007890129,FEMA4ImagesEEG,001,100204,
AFNE01.JPG,AFNE01.JPG,AFNE01.JPG,AFNE01.JPG,AFNE01.JPG,AFNE01.JPG,,,,,,,,,5,6,56,8,,,,,,,,,,,,,,,AFNE14.jpg,AFSA18.jpg,AFNE09.jpg,AFSA03.jpg,AFNE14.jpg,FN,3,num_8,16,num_8,0.733833024744,,,2017_May_22_1341,60.0007890129,FEMA4ImagesEEG,001,100204,
AFNE01.JPG,AFNE01.JPG,AFNE01.JPG,AFNE01.JPG,AFNE01.JPG,AFNE01.JPG,,,,,,,,,5,7,57,1,,,,,,,,,,,,,,,AFNE10.jpg,AFSA11.jpg,AFSA12.jpg,AFNE09.jpg,AFNE10.jpg,FN,3,num_8,32,num_4,1.06673988095,,,2017_May_22_1341,60.0007890129,FEMA4ImagesEEG,001,100204,
AFNE01.JPG,AFNE01.JPG,AFNE01.JPG,AFNE01.JPG,AFNE01.JPG,AFNE01.JPG,,,,,,,,,5,8,58,7,,,,,,,,,,,,,,,AFNE12.jpg,AFNE13.jpg,AFSA16.jpg,AFSA01.jpg,AFNE13.jpg,FN,3,num_6,32,num_8,0.583501588146,,,2017_May_22_1341,60.0007890129,FEMA4ImagesEEG,001,100204,
AFNE01.JPG,AFNE01.JPG,AFNE01.JPG,AFNE01.JPG,AFNE01.JPG,AFNE01.JPG,,,,,,,,,5,9,59,2,,,,,,,,,,,,,,,AFNE05.jpg,AFSA17.jpg,AFSA09.jpg,AFNE08.jpg,AFNE08.jpg,FN,3,num_4,32,num_2,0.850193293882,,,2017_May_22_1341,60.0007890129,FEMA4ImagesEEG,001,100204,
,,,,,,,,,,,,,,,,,,,,,,,,,,,,,,,,,,,,,,,,,,,space,5.3997288465,2017_May_22_1341,60.0007890129,FEMA4ImagesEEG,001,100204,
AFNE01.JPG,AFNE01.JPG,AFNE01.JPG,AFNE01.JPG,AFNE01.JPG,AFNE01.JPG,,,,,,,,,,,,,0,0,0,4,,,,,,,,,,,AMSA10.jpg,AMNE19.jpg,AMNE02.jpg,AMSA18.jpg,AMSA10.jpg,MS,2,num_8,16,num_8,0.733433703543,,,2017_May_22_1341,60.0007890129,FEMA4ImagesEEG,001,100204,
AFNE01.JPG,AFNE01.JPG,AFNE01.JPG,AFNE01.JPG,AFNE01.JPG,AFNE01.JPG,,,,,,,,,,,,,0,1,1,8,,,,,,,,,,,AMNE14.jpg,AMNE11.jpg,AMSA12.jpg,AMSA15.jpg,AMSA12.jpg,MS,2,num_2,32,num_4,0.566826641036,,,2017_May_22_1341,60.0007890129,FEMA4ImagesEEG,001,100204,
AFNE01.JPG,AFNE01.JPG,AFNE01.JPG,AFNE01.JPG,AFNE01.JPG,AFNE01.JPG,,,,,,,,,,,,,0,2,2,1,,,,,,,,,,,AMNE02.jpg,AMSA11.jpg,AMNE19.jpg,AMSA16.jpg,AMNE02.jpg,MN,1,num_8,32,num_6,0.55035087344,,,2017_May_22_1341,60.0007890129,FEMA4ImagesEEG,001,100204,
AFNE01.JPG,AFNE01.JPG,AFNE01.JPG,AFNE01.JPG,AFNE01.JPG,AFNE01.JPG,,,,,,,,,,,,,0,3,3,9,,,,,,,,,,,AMNE07.jpg,AMNE03.jpg,AMSA18.jpg,AMSA19.jpg,AMNE03.jpg,MN,1,num_6,32,num_8,0.516746632464,,,2017_May_22_1341,60.0007890129,FEMA4ImagesEEG,001,100204,
AFNE01.JPG,AFNE01.JPG,AFNE01.JPG,AFNE01.JPG,AFNE01.JPG,AFNE01.JPG,,,,,,,,,,,,,0,4,4,7,,,,,,,,,,,AMSA10.jpg,AMSA07.jpg,AMNE03.jpg,AMNE02.jpg,AMSA07.jpg,MS,2,num_6,32,num_4,0.783468167007,,,2017_May_22_1341,60.0007890129,FEMA4ImagesEEG,001,100204,
AFNE01.JPG,AFNE01.JPG,AFNE01.JPG,AFNE01.JPG,AFNE01.JPG,AFNE01.JPG,,,,,,,,,,,,,0,5,5,5,,,,,,,,,,,AMNE06.jpg,AMNE10.jpg,AMSA19.jpg,AMSA06.jpg,AMSA19.jpg,MS,2,num_2,16,num_2,0.850146145152,,,2017_May_22_1341,60.0007890129,FEMA4ImagesEEG,001,100204,
AFNE01.JPG,AFNE01.JPG,AFNE01.JPG,AFNE01.JPG,AFNE01.JPG,AFNE01.JPG,,,,,,,,,,,,,0,6,6,2,,,,,,,,,,,AMSA09.jpg,AMNE04.jpg,AMNE20.jpg,AMSA20.jpg,AMSA20.jpg,MS,2,num_4,16,num_4,0.616854048276,,,2017_May_22_1341,60.0007890129,FEMA4ImagesEEG,001,100204,
AFNE01.JPG,AFNE01.JPG,AFNE01.JPG,AFNE01.JPG,AFNE01.JPG,AFNE01.JPG,,,,,,,,,,,,,0,7,7,3,,,,,,,,,,,AMNE12.jpg,AMNE08.jpg,AMSA07.jpg,AMSA12.jpg,AMSA12.jpg,MS,2,num_4,32,num_2,0.850043829123,,,2017_May_22_1341,60.0007890129,FEMA4ImagesEEG,001,100204,
AFNE01.JPG,AFNE01.JPG,AFNE01.JPG,AFNE01.JPG,AFNE01.JPG,AFNE01.JPG,,,,,,,,,,,,,0,8,8,6,,,,,,,,,,,AMSA03.jpg,AMNE15.jpg,AMNE12.jpg,AMSA02.jpg,AMSA03.jpg,MS,2,num_8,16,num_8,0.383495558228,,,2017_May_22_1341,60.0007890129,FEMA4ImagesEEG,001,100204,
AFNE01.JPG,AFNE01.JPG,AFNE01.JPG,AFNE01.JPG,AFNE01.JPG,AFNE01.JPG,,,,,,,,,,,,,0,9,9,0,,,,,,,,,,,AMNE09.jpg,AMSA10.jpg,AMSA08.jpg,AMNE06.jpg,AMSA10.jpg,MS,2,num_6,32,num_4,0.400176278665,,,2017_May_22_1341,60.0007890129,FEMA4ImagesEEG,001,100204,
AFNE01.JPG,AFNE01.JPG,AFNE01.JPG,AFNE01.JPG,AFNE01.JPG,AFNE01.JPG,,,,,,,,,,,,,1,0,10,6,,,,,,,,,,,AMNE10.jpg,AMSA12.jpg,AMNE08.jpg,AMSA13.jpg,AMSA13.jpg,MS,2,num_4,32,num_6,0.616801767668,,,2017_May_22_1341,60.0007890129,FEMA4ImagesEEG,001,100204,
AFNE01.JPG,AFNE01.JPG,AFNE01.JPG,AFNE01.JPG,AFNE01.JPG,AFNE01.JPG,,,,,,,,,,,,,1,1,11,7,,,,,,,,,,,AMNE11.jpg,AMSA02.jpg,AMNE20.jpg,AMSA10.jpg,AMSA02.jpg,MS,2,num_6,16,num_6,0.416848659806,,,2017_May_22_1341,60.0007890129,FEMA4ImagesEEG,001,100204,
AFNE01.JPG,AFNE01.JPG,AFNE01.JPG,AFNE01.JPG,AFNE01.JPG,AFNE01.JPG,,,,,,,,,,,,,1,2,12,3,,,,,,,,,,,AMNE03.jpg,AMNE12.jpg,AMSA06.jpg,AMSA16.jpg,AMSA16.jpg,MS,2,num_4,16,num_4,0.549740184622,,,2017_May_22_1341,60.0007890129,FEMA4ImagesEEG,001,100204,
AFNE01.JPG,AFNE01.JPG,AFNE01.JPG,AFNE01.JPG,AFNE01.JPG,AFNE01.JPG,,,,,,,,,,,,,1,3,13,9,,,,,,,,,,,AMNE11.jpg,AMSA12.jpg,AMSA06.jpg,AMNE13.jpg,AMSA12.jpg,MS,2,num_6,32,num_8,0.350167795084,,,2017_May_22_1341,60.0007890129,FEMA4ImagesEEG,001,100204,
AFNE01.JPG,AFNE01.JPG,AFNE01.JPG,AFNE01.JPG,AFNE01.JPG,AFNE01.JPG,,,,,,,,,,,,,1,4,14,4,,,,,,,,,,,AMSA20.jpg,AMNE06.jpg,AMNE08.jpg,AMSA18.jpg,AMSA18.jpg,MS,2,num_4,32,num_8,0.616703941952,,,2017_May_22_1341,60.0007890129,FEMA4ImagesEEG,001,100204,
AFNE01.JPG,AFNE01.JPG,AFNE01.JPG,AFNE01.JPG,AFNE01.JPG,AFNE01.JPG,,,,,,,,,,,,,1,5,15,0,,,,,,,,,,,AMNE08.jpg,AMNE18.jpg,AMSA11.jpg,AMSA09.jpg,AMNE08.jpg,MN,1,num_8,32,num_4,0.733422156889,,,2017_May_22_1341,60.0007890129,FEMA4ImagesEEG,001,100204,
AFNE01.JPG,AFNE01.JPG,AFNE01.JPG,AFNE01.JPG,AFNE01.JPG,AFNE01.JPG,,,,,,,,,,,,,1,6,16,1,,,,,,,,,,,AMNE03.jpg,AMSA04.jpg,AMNE18.jpg,AMSA07.jpg,AMNE18.jpg,MN,1,num_2,16,num_2,0.700240330421,,,2017_May_22_1341,60.0007890129,FEMA4ImagesEEG,001,100204,
AFNE01.JPG,AFNE01.JPG,AFNE01.JPG,AFNE01.JPG,AFNE01.JPG,AFNE01.JPG,,,,,,,,,,,,,1,7,17,8,,,,,,,,,,,AMSA03.jpg,AMSA15.jpg,AMNE20.jpg,AMNE17.jpg,AMSA15.jpg,MS,2,num_6,16,num_6,0.583369122585,,,2017_May_22_1341,60.0007890129,FEMA4ImagesEEG,001,100204,
AFNE01.JPG,AFNE01.JPG,AFNE01.JPG,AFNE01.JPG,AFNE01.JPG,AFNE01.JPG,,,,,,,,,,,,,1,8,18,2,,,,,,,,,,,AMNE05.jpg,AMNE07.jpg,AMSA07.jpg,AMSA18.jpg,AMNE07.jpg,MN,1,num_6,32,num_8,0.416799265891,,,2017_May_22_1341,60.0007890129,FEMA4ImagesEEG,001,100204,
AFNE01.JPG,AFNE01.JPG,AFNE01.JPG,AFNE01.JPG,AFNE01.JPG,AFNE01.JPG,,,,,,,,,,,,,1,9,19,5,,,,,,,,,,,AMSA16.jpg,AMSA02.jpg,AMNE12.jpg,AMNE09.jpg,AMSA16.jpg,MS,2,num_8,32,num_4,0.566794246319,,,2017_May_22_1341,60.0007890129,FEMA4ImagesEEG,001,100204,
AFNE01.JPG,AFNE01.JPG,AFNE01.JPG,AFNE01.JPG,AFNE01.JPG,AFNE01.JPG,,,,,,,,,,,,,2,0,20,5,,,,,,,,,,,AMSA14.jpg,AMSA19.jpg,AMNE13.jpg,AMNE15.jpg,AMNE13.jpg,MN,1,num_2,16,num_2,0.850100920827,,,2017_May_22_1341,60.0007890129,FEMA4ImagesEEG,001,100204,
AFNE01.JPG,AFNE01.JPG,AFNE01.JPG,AFNE01.JPG,AFNE01.JPG,AFNE01.JPG,,,,,,,,,,,,,2,1,21,6,,,,,,,,,,,AMNE07.jpg,AMSA10.jpg,AMSA08.jpg,AMNE09.jpg,AMNE09.jpg,MN,1,num_4,32,num_6,0.533501443861,,,2017_May_22_1341,60.0007890129,FEMA4ImagesEEG,001,100204,
AFNE01.JPG,AFNE01.JPG,AFNE01.JPG,AFNE01.JPG,AFNE01.JPG,AFNE01.JPG,,,,,,,,,,,,,2,2,22,3,,,,,,,,,,,AMNE18.jpg,AMNE17.jpg,AMSA14.jpg,AMSA11.jpg,AMNE18.jpg,MN,1,num_8,32,num_6,0.55016580649,,,2017_May_22_1341,60.0007890129,FEMA4ImagesEEG,001,100204,
AFNE01.JPG,AFNE01.JPG,AFNE01.JPG,AFNE01.JPG,AFNE01.JPG,AFNE01.JPG,,,,,,,,,,,,,2,3,23,2,,,,,,,,,,,AMNE16.jpg,AMSA03.jpg,AMSA18.jpg,AMNE20.jpg,AMNE16.jpg,MN,1,num_8,16,num_8,0.716763246804,,,2017_May_22_1341,60.0007890129,FEMA4ImagesEEG,001,100204,
AFNE01.JPG,AFNE01.JPG,AFNE01.JPG,AFNE01.JPG,AFNE01.JPG,AFNE01.JPG,,,,,,,,,,,,,2,4,24,8,,,,,,,,,,,AMSA11.jpg,AMNE04.jpg,AMNE08.jpg,AMSA13.jpg,AMSA13.jpg,MS,2,num_4,16,num_4,0.999904098746,,,2017_May_22_1341,60.0007890129,FEMA4ImagesEEG,001,100204,
AFNE01.JPG,AFNE01.JPG,AFNE01.JPG,AFNE01.JPG,AFNE01.JPG,AFNE01.JPG,,,,,,,,,,,,,2,5,25,1,,,,,,,,,,,AMNE06.jpg,AMSA05.jpg,AMNE16.jpg,AMSA15.jpg,AMNE06.jpg,MN,1,num_8,32,num_4,0.76671784604,,,2017_May_22_1341,60.0007890129,FEMA4ImagesEEG,001,100204,
AFNE01.JPG,AFNE01.JPG,AFNE01.JPG,AFNE01.JPG,AFNE01.JPG,AFNE01.JPG,,,,,,,,,,,,,2,6,26,7,,,,,,,,,,,AMSA14.jpg,AMNE15.jpg,AMNE02.jpg,AMSA19.jpg,AMSA14.jpg,MS,2,num_8,32,num_2,0.916816425452,,,2017_May_22_1341,60.0007890129,FEMA4ImagesEEG,001,100204,
AFNE01.JPG,AFNE01.JPG,AFNE01.JPG,AFNE01.JPG,AFNE01.JPG,AFNE01.JPG,,,,,,,,,,,,,2,7,27,4,,,,,,,,,,,AMNE15.jpg,AMSA15.jpg,AMNE08.jpg,AMSA10.jpg,AMSA10.jpg,MS,2,num_4,32,num_8,0.683552553703,,,2017_May_22_1341,60.0007890129,FEMA4ImagesEEG,001,100204,
AFNE01.JPG,AFNE01.JPG,AFNE01.JPG,AFNE01.JPG,AFNE01.JPG,AFNE01.JPG,,,,,,,,,,,,,2,8,28,9,,,,,,,,,,,AMSA20.jpg,AMNE19.jpg,AMNE03.jpg,AMSA02.jpg,AMNE19.jpg,MN,1,num_6,16,num_6,0.550229954475,,,2017_May_22_1341,60.0007890129,FEMA4ImagesEEG,001,100204,
AFNE01.JPG,AFNE01.JPG,AFNE01.JPG,AFNE01.JPG,AFNE01.JPG,AFNE01.JPG,,,,,,,,,,,,,2,9,29,0,,,,,,,,,,,AMSA01.jpg,AMSA05.jpg,AMNE01.jpg,AMNE15.jpg,AMSA05.jpg,MS,2,num_6,32,num_4,0.850147748832,,,2017_May_22_1341,60.0007890129,FEMA4ImagesEEG,001,100204,
AFNE01.JPG,AFNE01.JPG,AFNE01.JPG,AFNE01.JPG,AFNE01.JPG,AFNE01.JPG,,,,,,,,,,,,,3,0,30,2,,,,,,,,,,,AMSA05.jpg,AMNE09.jpg,AMSA07.jpg,AMNE01.jpg,AMSA07.jpg,MS,2,num_2,16,num_2,1.3000954843,,,2017_May_22_1341,60.0007890129,FEMA4ImagesEEG,001,100204,
AFNE01.JPG,AFNE01.JPG,AFNE01.JPG,AFNE01.JPG,AFNE01.JPG,AFNE01.JPG,,,,,,,,,,,,,3,1,31,3,,,,,,,,,,,AMNE06.jpg,AMNE05.jpg,AMSA17.jpg,AMSA14.jpg,AMNE05.jpg,MN,1,num_6,32,num_8,0.500196453184,,,2017_May_22_1341,60.0007890129,FEMA4ImagesEEG,001,100204,
AFNE01.JPG,AFNE01.JPG,AFNE01.JPG,AFNE01.JPG,AFNE01.JPG,AFNE01.JPG,,,,,,,,,,,,,3,2,32,8,,,,,,,,,,,AMNE14.jpg,AMNE02.jpg,AMSA06.jpg,AMSA03.jpg,AMNE02.jpg,MN,1,num_6,32,num_4,0.483465055819,,,2017_May_22_1341,60.0007890129,FEMA4ImagesEEG,001,100204,
AFNE01.JPG,AFNE01.JPG,AFNE01.JPG,AFNE01.JPG,AFNE01.JPG,AFNE01.JPG,,,,,,,,,,,,,3,3,33,6,,,,,,,,,,,AMSA10.jpg,AMSA09.jpg,AMNE10.jpg,AMNE16.jpg,AMNE16.jpg,MN,1,num_4,32,num_2,1.41678226669,,,2017_May_22_1341,60.0007890129,FEMA4ImagesEEG,001,100204,
AFNE01.JPG,AFNE01.JPG,AFNE01.JPG,AFNE01.JPG,AFNE01.JPG,AFNE01.JPG,,,,,,,,,,,,,3,4,34,1,,,,,,,,,,,AMSA16.jpg,AMNE16.jpg,AMNE14.jpg,AMSA17.jpg,AMNE16.jpg,MN,1,num_6,32,num_8,0.483493281004,,,2017_May_22_1341,60.0007890129,FEMA4ImagesEEG,001,100204,
AFNE01.JPG,AFNE01.JPG,AFNE01.JPG,AFNE01.JPG,AFNE01.JPG,AFNE01.JPG,,,,,,,,,,,,,3,5,35,7,,,,,,,,,,,AMNE15.jpg,AMNE10.jpg,AMSA04.jpg,AMSA09.jpg,AMSA04.jpg,MS,2,num_2,16,num_2,0.783506655833,,,2017_May_22_1341,60.0007890129,FEMA4ImagesEEG,001,100204,
AFNE01.JPG,AFNE01.JPG,AFNE01.JPG,AFNE01.JPG,AFNE01.JPG,AFNE01.JPG,,,,,,,,,,,,,3,6,36,5,,,,,,,,,,,AMNE07.jpg,AMSA15.jpg,AMNE06.jpg,AMSA13.jpg,AMNE06.jpg,MN,1,num_2,32,num_6,0.583438723115,,,2017_May_22_1341,60.0007890129,FEMA4ImagesEEG,001,100204,
AFNE01.JPG,AFNE01.JPG,AFNE01.JPG,AFNE01.JPG,AFNE01.JPG,AFNE01.JPG,,,,,,,,,,,,,3,7,37,9,,,,,,,,,,,AMNE04.jpg,AMSA19.jpg,AMSA08.jpg,AMNE14.jpg,AMNE14.jpg,MN,1,num_4,16,num_4,0.950138736051,,,2017_May_22_1341,60.0007890129,FEMA4ImagesEEG,001,100204,
AFNE01.JPG,AFNE01.JPG,AFNE01.JPG,AFNE01.JPG,AFNE01.JPG,AFNE01.JPG,,,,,,,,,,,,,3,8,38,0,,,,,,,,,,,AMNE03.jpg,AMNE04.jpg,AMSA12.jpg,AMSA19.jpg,AMSA19.jpg,MS,2,num_4,16,num_4,0.766766598565,,,2017_May_22_1341,60.0007890129,FEMA4ImagesEEG,001,100204,
AFNE01.JPG,AFNE01.JPG,AFNE01.JPG,AFNE01.JPG,AFNE01.JPG,AFNE01.JPG,,,,,,,,,,,,,3,9,39,4,,,,,,,,,,,AMNE17.jpg,AMSA20.jpg,AMSA17.jpg,AMNE20.jpg,AMNE20.jpg,MN,1,num_4,32,num_6,0.800134454214,,,2017_May_22_1341,60.0007890129,FEMA4ImagesEEG,001,100204,
AFNE01.JPG,AFNE01.JPG,AFNE01.JPG,AFNE01.JPG,AFNE01.JPG,AFNE01.JPG,,,,,,,,,,,,,4,0,40,3,,,,,,,,,,,AMSA12.jpg,AMSA18.jpg,AMNE12.jpg,AMNE18.jpg,AMNE18.jpg,MN,1,num_4,32,num_2,1.16678186576,,,2017_May_22_1341,60.0007890129,FEMA4ImagesEEG,001,100204,
AFNE01.JPG,AFNE01.JPG,AFNE01.JPG,AFNE01.JPG,AFNE01.JPG,AFNE01.JPG,,,,,,,,,,,,,4,1,41,1,,,,,,,,,,,AMSA03.jpg,AMNE19.jpg,AMSA11.jpg,AMNE12.jpg,AMSA11.jpg,MS,2,num_2,32,num_6,0.716755549074,,,2017_May_22_1341,60.0007890129,FEMA4ImagesEEG,001,100204,
AFNE01.JPG,AFNE01.JPG,AFNE01.JPG,AFNE01.JPG,AFNE01.JPG,AFNE01.JPG,,,,,,,,,,,,,4,2,42,2,,,,,,,,,,,AMNE07.jpg,AMSA03.jpg,AMNE15.jpg,AMSA02.jpg,AMNE15.jpg,MN,1,num_2,32,num_6,2.5166706171,,,2017_May_22_1341,60.0007890129,FEMA4ImagesEEG,001,100204,
AFNE01.JPG,AFNE01.JPG,AFNE01.JPG,AFNE01.JPG,AFNE01.JPG,AFNE01.JPG,,,,,,,,,,,,,4,3,43,7,,,,,,,,,,,AMSA04.jpg,AMSA11.jpg,AMNE17.jpg,AMNE20.jpg,AMNE20.jpg,MN,1,num_4,16,num_4,0.783515957301,,,2017_May_22_1341,60.0007890129,FEMA4ImagesEEG,001,100204,
AFNE01.JPG,AFNE01.JPG,AFNE01.JPG,AFNE01.JPG,AFNE01.JPG,AFNE01.JPG,,,,,,,,,,,,,4,4,44,8,,,,,,,,,,,AMNE04.jpg,AMSA12.jpg,AMNE06.jpg,AMSA10.jpg,AMSA10.jpg,MS,2,num_4,16,num_4,0.533485086111,,,2017_May_22_1341,60.0007890129,FEMA4ImagesEEG,001,100204,
AFNE01.JPG,AFNE01.JPG,AFNE01.JPG,AFNE01.JPG,AFNE01.JPG,AFNE01.JPG,,,,,,,,,,,,,4,5,45,9,,,,,,,,,,,AMNE18.jpg,AMSA13.jpg,AMSA16.jpg,AMNE05.jpg,AMNE05.jpg,MN,1,num_4,32,num_2,0.616780919547,,,2017_May_22_1341,60.0007890129,FEMA4ImagesEEG,001,100204,
AFNE01.JPG,AFNE01.JPG,AFNE01.JPG,AFNE01.JPG,AFNE01.JPG,AFNE01.JPG,,,,,,,,,,,,,4,6,46,0,,,,,,,,,,,AMSA18.jpg,AMSA15.jpg,AMNE01.jpg,AMNE12.jpg,AMSA15.jpg,MS,2,num_6,16,num_6,0.350156569213,,,2017_May_22_1341,60.0007890129,FEMA4ImagesEEG,001,100204,
AFNE01.JPG,AFNE01.JPG,AFNE01.JPG,AFNE01.JPG,AFNE01.JPG,AFNE01.JPG,,,,,,,,,,,,,4,7,47,4,,,,,,,,,,,AMSA17.jpg,AMNE08.jpg,AMNE16.jpg,AMSA12.jpg,AMSA12.jpg,MS,2,num_4,16,num_4,0.583494852646,,,2017_May_22_1341,60.0007890129,FEMA4ImagesEEG,001,100204,
AFNE01.JPG,AFNE01.JPG,AFNE01.JPG,AFNE01.JPG,AFNE01.JPG,AFNE01.JPG,,,,,,,,,,,,,4,8,48,5,,,,,,,,,,,AMNE07.jpg,AMNE02.jpg,AMSA19.jpg,AMSA04.jpg,AMNE07.jpg,MN,1,num_8,16,num_8,0.583496456326,,,2017_May_22_1341,60.0007890129,FEMA4ImagesEEG,001,100204,
AFNE01.JPG,AFNE01.JPG,AFNE01.JPG,AFNE01.JPG,AFNE01.JPG,AFNE01.JPG,,,,,,,,,,,,,4,9,49,6,,,,,,,,,,,AMNE02.jpg,AMSA04.jpg,AMSA06.jpg,AMNE13.jpg,AMSA06.jpg,MS,2,num_2,32,num_4,0.483475961024,,,2017_May_22_1341,60.0007890129,FEMA4ImagesEEG,001,100204,
AFNE01.JPG,AFNE01.JPG,AFNE01.JPG,AFNE01.JPG,AFNE01.JPG,AFNE01.JPG,,,,,,,,,,,,,5,0,50,4,,,,,,,,,,,AMSA16.jpg,AMNE02.jpg,AMSA14.jpg,AMNE12.jpg,AMSA14.jpg,MS,2,num_2,16,num_2,0.683509253839,,,2017_May_22_1341,60.0007890129,FEMA4ImagesEEG,001,100204,
AFNE01.JPG,AFNE01.JPG,AFNE01.JPG,AFNE01.JPG,AFNE01.JPG,AFNE01.JPG,,,,,,,,,,,,,5,1,51,8,,,,,,,,,,,AMNE10.jpg,AMSA05.jpg,AMSA19.jpg,AMNE02.jpg,AMSA19.jpg,MS,2,num_2,32,num_4,0.716750417196,,,2017_May_22_1341,60.0007890129,FEMA4ImagesEEG,001,100204,
AFNE01.JPG,AFNE01.JPG,AFNE01.JPG,AFNE01.JPG,AFNE01.JPG,AFNE01.JPG,,,,,,,,,,,,,5,2,52,9,,,,,,,,,,,AMSA13.jpg,AMSA05.jpg,AMNE04.jpg,AMNE11.jpg,AMNE04.jpg,MN,1,num_2,32,num_8,0.56676666264,,,2017_May_22_1341,60.0007890129,FEMA4ImagesEEG,001,100204,
AFNE01.JPG,AFNE01.JPG,AFNE01.JPG,AFNE01.JPG,AFNE01.JPG,AFNE01.JPG,,,,,,,,,,,,,5,3,53,0,,,,,,,,,,,AMNE17.jpg,AMSA04.jpg,AMNE04.jpg,AMSA16.jpg,AMSA16.jpg,MS,2,num_4,32,num_6,4.11639041873,,,2017_May_22_1341,60.0007890129,FEMA4ImagesEEG,001,100204,
AFNE01.JPG,AFNE01.JPG,AFNE01.JPG,AFNE01.JPG,AFNE01.JPG,AFNE01.JPG,,,,,,,,,,,,,5,4,54,2,,,,,,,,,,,AMSA04.jpg,AMNE05.jpg,AMNE17.jpg,AMSA17.jpg,AMNE17.jpg,MN,1,num_2,16,num_2,0.683562817401,,,2017_May_22_1341,60.0007890129,FEMA4ImagesEEG,001,100204,
AFNE01.JPG,AFNE01.JPG,AFNE01.JPG,AFNE01.JPG,AFNE01.JPG,AFNE01.JPG,,,,,,,,,,,,,5,5,55,3,,,,,,,,,,,AMSA04.jpg,AMSA07.jpg,AMNE14.jpg,AMNE15.jpg,AMNE14.jpg,MN,1,num_2,32,num_4,0.583484268165,,,2017_May_22_1341,60.0007890129,FEMA4ImagesEEG,001,100204,
AFNE01.JPG,AFNE01.JPG,AFNE01.JPG,AFNE01.JPG,AFNE01.JPG,AFNE01.JPG,,,,,,,,,,,,,5,6,56,6,,,,,,,,,,,AMSA05.jpg,AMNE05.jpg,AMSA20.jpg,AMNE04.jpg,AMSA05.jpg,MS,2,num_8,32,num_2,0.650102267915,,,2017_May_22_1341,60.0007890129,FEMA4ImagesEEG,001,100204,
AFNE01.JPG,AFNE01.JPG,AFNE01.JPG,AFNE01.JPG,AFNE01.JPG,AFNE01.JPG,,,,,,,,,,,,,5,7,57,5,,,,,,,,,,,AMNE05.jpg,AMNE08.jpg,AMSA18.jpg,AMSA07.jpg,AMSA07.jpg,MS,2,num_4,16,num_4,0.716803980758,,,2017_May_22_1341,60.0007890129,FEMA4ImagesEEG,001,100204,
AFNE01.JPG,AFNE01.JPG,AFNE01.JPG,AFNE01.JPG,AFNE01.JPG,AFNE01.JPG,,,,,,,,,,,,,5,8,58,7,,,,,,,,,,,AMNE04.jpg,AMSA06.jpg,AMSA18.jpg,AMNE01.jpg,AMNE04.jpg,MN,1,num_8,32,num_4,0.633228782797,,,2017_May_22_1341,60.0007890129,FEMA4ImagesEEG,001,100204,
AFNE01.JPG,AFNE01.JPG,AFNE01.JPG,AFNE01.JPG,AFNE01.JPG,AFNE01.JPG,,,,,,,,,,,,,5,9,59,1,,,,,,,,,,,AMSA06.jpg,AMSA20.jpg,AMNE14.jpg,AMNE19.jpg,AMNE19.jpg,MN,1,num_4,32,num_8,0.783466242603,,,2017_May_22_1341,60.0007890129,FEMA4ImagesEEG,001,100204,
,,,,,,,,,,,,,,,,,,,,,,,,,,,,,,,,,,,,,,,,,,,space,15.6993496357,2017_May_22_1341,60.0007890129,FEMA4ImagesEEG,001,100204,
AFNE01.JPG,AFNE01.JPG,AFNE01.JPG,AFNE01.JPG,AFNE01.JPG,AFNE01.JPG,,,,,,,,,,,,,,,,,0,0,0,6,,,,,,,AFNE14.jpg,AFSA16.jpg,AFSA20.jpg,AFNE11.jpg,AFNE11.jpg,FN,3,num_4,16,num_4,0.683508291608,,,2017_May_22_1341,60.0007890129,FEMA4ImagesEEG,001,100204,
AFNE01.JPG,AFNE01.JPG,AFNE01.JPG,AFNE01.JPG,AFNE01.JPG,AFNE01.JPG,,,,,,,,,,,,,,,,,0,1,1,9,,,,,,,AFSA11.jpg,AFSA17.jpg,AFNE13.jpg,AFNE03.jpg,AFSA17.jpg,FS,4,num_6,16,num_6,0.300167650741,,,2017_May_22_1341,60.0007890129,FEMA4ImagesEEG,001,100204,
AFNE01.JPG,AFNE01.JPG,AFNE01.JPG,AFNE01.JPG,AFNE01.JPG,AFNE01.JPG,,,,,,,,,,,,,,,,,0,2,2,0,,,,,,,AFSA15.jpg,AFNE18.jpg,AFNE05.jpg,AFSA14.jpg,AFSA14.jpg,FS,4,num_4,32,num_8,0.383456427953,,,2017_May_22_1341,60.0007890129,FEMA4ImagesEEG,001,100204,
AFNE01.JPG,AFNE01.JPG,AFNE01.JPG,AFNE01.JPG,AFNE01.JPG,AFNE01.JPG,,,,,,,,,,,,,,,,,0,3,3,8,,,,,,,AFSA19.jpg,AFSA10.jpg,AFNE09.jpg,AFNE13.jpg,AFNE13.jpg,FN,3,num_4,32,num_2,0.450143386784,,,2017_May_22_1341,60.0007890129,FEMA4ImagesEEG,001,100204,
AFNE01.JPG,AFNE01.JPG,AFNE01.JPG,AFNE01.JPG,AFNE01.JPG,AFNE01.JPG,,,,,,,,,,,,,,,,,0,4,4,1,,,,,,,AFNE01.jpg,AFSA02.jpg,AFNE12.jpg,AFSA19.jpg,AFSA19.jpg,FS,4,num_4,16,num_4,0.516812704911,,,2017_May_22_1341,60.0007890129,FEMA4ImagesEEG,001,100204,
AFNE01.JPG,AFNE01.JPG,AFNE01.JPG,AFNE01.JPG,AFNE01.JPG,AFNE01.JPG,,,,,,,,,,,,,,,,,0,5,5,4,,,,,,,AFNE17.jpg,AFSA06.jpg,AFNE16.jpg,AFSA07.jpg,AFSA06.jpg,FS,4,num_6,16,num_6,0.483391606424,,,2017_May_22_1341,60.0007890129,FEMA4ImagesEEG,001,100204,
AFNE01.JPG,AFNE01.JPG,AFNE01.JPG,AFNE01.JPG,AFNE01.JPG,AFNE01.JPG,,,,,,,,,,,,,,,,,0,6,6,5,,,,,,,AFSA15.jpg,AFNE06.jpg,AFSA14.jpg,AFNE16.jpg,AFSA14.jpg,FS,4,num_2,32,num_8,0.550171259092,,,2017_May_22_1341,60.0007890129,FEMA4ImagesEEG,001,100204,
AFNE01.JPG,AFNE01.JPG,AFNE01.JPG,AFNE01.JPG,AFNE01.JPG,AFNE01.JPG,,,,,,,,,,,,,,,,,0,7,7,2,,,,,,,AFSA02.jpg,AFNE05.jpg,AFNE18.jpg,AFSA06.jpg,AFNE05.jpg,FN,3,num_6,32,num_8,0.55010903551,,,2017_May_22_1341,60.0007890129,FEMA4ImagesEEG,001,100204,
AFNE01.JPG,AFNE01.JPG,AFNE01.JPG,AFNE01.JPG,AFNE01.JPG,AFNE01.JPG,,,,,,,,,,,,,,,,,0,8,8,7,,,,,,,AFNE07.jpg,AFSA20.jpg,AFNE13.jpg,AFSA08.jpg,AFNE13.jpg,FN,3,num_2,32,num_6,0.700156617269,,,2017_May_22_1341,60.0007890129,FEMA4ImagesEEG,001,100204,
AFNE01.JPG,AFNE01.JPG,AFNE01.JPG,AFNE01.JPG,AFNE01.JPG,AFNE01.JPG,,,,,,,,,,,,,,,,,0,9,9,3,,,,,,,AFSA02.jpg,AFNE17.jpg,AFNE15.jpg,AFSA04.jpg,AFNE15.jpg,FN,3,num_2,16,num_2,0.800151132687,,,2017_May_22_1341,60.0007890129,FEMA4ImagesEEG,001,100204,
AFNE01.JPG,AFNE01.JPG,AFNE01.JPG,AFNE01.JPG,AFNE01.JPG,AFNE01.JPG,,,,,,,,,,,,,,,,,1,0,10,3,,,,,,,AFNE17.jpg,AFSA10.jpg,AFNE04.jpg,AFSA14.jpg,AFNE17.jpg,FN,3,num_8,32,num_4,0.483480130672,,,2017_May_22_1341,60.0007890129,FEMA4ImagesEEG,001,100204,
AFNE01.JPG,AFNE01.JPG,AFNE01.JPG,AFNE01.JPG,AFNE01.JPG,AFNE01.JPG,,,,,,,,,,,,,,,,,1,1,11,4,,,,,,,AFNE08.jpg,AFSA14.jpg,AFNE06.jpg,AFSA16.jpg,AFNE06.jpg,FN,3,num_2,32,num_6,0.283488854766,,,2017_May_22_1341,60.0007890129,FEMA4ImagesEEG,001,100204,
AFNE01.JPG,AFNE01.JPG,AFNE01.JPG,AFNE01.JPG,AFNE01.JPG,AFNE01.JPG,,,,,,,,,,,,,,,,,1,2,12,6,,,,,,,AFNE09.jpg,AFSA15.jpg,AFSA16.jpg,AFNE14.jpg,AFSA15.jpg,FS,4,num_6,32,num_8,0.283497835509,,,2017_May_22_1341,60.0007890129,FEMA4ImagesEEG,001,100204,
AFNE01.JPG,AFNE01.JPG,AFNE01.JPG,AFNE01.JPG,AFNE01.JPG,AFNE01.JPG,,,,,,,,,,,,,,,,,1,3,13,0,,,,,,,AFNE15.jpg,AFSA14.jpg,AFNE17.jpg,AFSA15.jpg,AFNE17.jpg,FN,3,num_2,32,num_4,0.383528273669,,,2017_May_22_1341,60.0007890129,FEMA4ImagesEEG,001,100204,
AFNE01.JPG,AFNE01.JPG,AFNE01.JPG,AFNE01.JPG,AFNE01.JPG,AFNE01.JPG,,,,,,,,,,,,,,,,,1,4,14,1,,,,,,,AFSA01.jpg,AFNE11.jpg,AFNE09.jpg,AFSA12.jpg,AFNE11.jpg,FN,3,num_6,16,num_6,0.566686156963,,,2017_May_22_1341,60.0007890129,FEMA4ImagesEEG,001,100204,
AFNE01.JPG,AFNE01.JPG,AFNE01.JPG,AFNE01.JPG,AFNE01.JPG,AFNE01.JPG,,,,,,,,,,,,,,,,,1,5,15,7,,,,,,,AFNE10.jpg,AFSA11.jpg,AFSA08.jpg,AFNE01.jpg,AFNE10.jpg,FN,3,num_8,32,num_6,0.566798736691,,,2017_May_22_1341,60.0007890129,FEMA4ImagesEEG,001,100204,
AFNE01.JPG,AFNE01.JPG,AFNE01.JPG,AFNE01.JPG,AFNE01.JPG,AFNE01.JPG,,,,,,,,,,,,,,,,,1,6,16,8,,,,,,,AFNE01.jpg,AFSA10.jpg,AFNE08.jpg,AFSA11.jpg,AFSA10.jpg,FS,4,num_6,32,num_8,0.483490715036,,,2017_May_22_1341,60.0007890129,FEMA4ImagesEEG,001,100204,
AFNE01.JPG,AFNE01.JPG,AFNE01.JPG,AFNE01.JPG,AFNE01.JPG,AFNE01.JPG,,,,,,,,,,,,,,,,,1,7,17,9,,,,,,,AFNE15.jpg,AFNE19.jpg,AFSA15.jpg,AFSA01.jpg,AFSA15.jpg,FS,4,num_2,32,num_4,0.266894734115,,,2017_May_22_1341,60.0007890129,FEMA4ImagesEEG,001,100204,
AFNE01.JPG,AFNE01.JPG,AFNE01.JPG,AFNE01.JPG,AFNE01.JPG,AFNE01.JPG,,,,,,,,,,,,,,,,,1,8,18,2,,,,,,,AFNE20.jpg,AFNE06.jpg,AFSA18.jpg,AFSA20.jpg,AFNE20.jpg,FN,3,num_8,32,num_6,0.766922798823,,,2017_May_22_1341,60.0007890129,FEMA4ImagesEEG,001,100204,
AFNE01.JPG,AFNE01.JPG,AFNE01.JPG,AFNE01.JPG,AFNE01.JPG,AFNE01.JPG,,,,,,,,,,,,,,,,,1,9,19,5,,,,,,,AFNE14.jpg,AFNE06.jpg,AFSA11.jpg,AFSA12.jpg,AFSA12.jpg,FS,4,num_4,16,num_4,0.533487651963,,,2017_May_22_1341,60.0007890129,FEMA4ImagesEEG,001,100204,
AFNE01.JPG,AFNE01.JPG,AFNE01.JPG,AFNE01.JPG,AFNE01.JPG,AFNE01.JPG,,,,,,,,,,,,,,,,,2,0,20,7,,,,,,,AFNE03.jpg,AFSA06.jpg,AFNE11.jpg,AFSA01.jpg,AFNE11.jpg,FN,3,num_2,32,num_4,0.966797004687,,,2017_May_22_1341,60.0007890129,FEMA4ImagesEEG,001,100204,
AFNE01.JPG,AFNE01.JPG,AFNE01.JPG,AFNE01.JPG,AFNE01.JPG,AFNE01.JPG,,,,,,,,,,,,,,,,,2,1,21,0,,,,,,,AFSA18.jpg,AFSA06.jpg,AFNE02.jpg,AFNE15.jpg,AFNE02.jpg,FN,3,num_2,32,num_8,0.383495237504,,,2017_May_22_1341,60.0007890129,FEMA4ImagesEEG,001,100204,
AFNE01.JPG,AFNE01.JPG,AFNE01.JPG,AFNE01.JPG,AFNE01.JPG,AFNE01.JPG,,,,,,,,,,,,,,,,,2,2,22,9,,,,,,,AFSA09.jpg,AFNE06.jpg,AFNE08.jpg,AFSA15.jpg,AFSA09.jpg,FS,4,num_8,32,num_2,1.73352158628,,,2017_May_22_1341,60.0007890129,FEMA4ImagesEEG,001,100204,
AFNE01.JPG,AFNE01.JPG,AFNE01.JPG,AFNE01.JPG,AFNE01.JPG,AFNE01.JPG,,,,,,,,,,,,,,,,,2,3,23,4,,,,,,,AFNE20.jpg,AFSA07.jpg,AFNE03.jpg,AFSA03.jpg,AFSA07.jpg,FS,4,num_6,32,num_4,1.20006568753,,,2017_May_22_1341,60.0007890129,FEMA4ImagesEEG,001,100204,
AFNE01.JPG,AFNE01.JPG,AFNE01.JPG,AFNE01.JPG,AFNE01.JPG,AFNE01.JPG,,,,,,,,,,,,,,,,,2,4,24,5,,,,,,,AFNE14.jpg,AFSA06.jpg,AFNE18.jpg,AFSA05.jpg,AFNE18.jpg,FN,3,num_2,16,num_2,1.26679754996,,,2017_May_22_1341,60.0007890129,FEMA4ImagesEEG,001,100204,
AFNE01.JPG,AFNE01.JPG,AFNE01.JPG,AFNE01.JPG,AFNE01.JPG,AFNE01.JPG,,,,,,,,,,,,,,,,,2,5,25,3,,,,,,,AFSA18.jpg,AFSA11.jpg,AFNE05.jpg,AFNE12.jpg,AFSA11.jpg,FS,4,num_6,16,num_6,0.55015650508,,,2017_May_22_1341,60.0007890129,FEMA4ImagesEEG,001,100204,
AFNE01.JPG,AFNE01.JPG,AFNE01.JPG,AFNE01.JPG,AFNE01.JPG,AFNE01.JPG,,,,,,,,,,,,,,,,,2,6,26,1,,,,,,,AFNE13.jpg,AFNE15.jpg,AFSA07.jpg,AFSA20.jpg,AFNE15.jpg,FN,3,num_6,16,num_6,0.583517304389,,,2017_May_22_1341,60.0007890129,FEMA4ImagesEEG,001,100204,
AFNE01.JPG,AFNE01.JPG,AFNE01.JPG,AFNE01.JPG,AFNE01.JPG,AFNE01.JPG,,,,,,,,,,,,,,,,,2,7,27,6,,,,,,,AFNE12.jpg,AFSA17.jpg,AFNE09.jpg,AFSA09.jpg,AFNE09.jpg,FN,3,num_2,16,num_2,0.76675665559,,,2017_May_22_1341,60.0007890129,FEMA4ImagesEEG,001,100204,
AFNE01.JPG,AFNE01.JPG,AFNE01.JPG,AFNE01.JPG,AFNE01.JPG,AFNE01.JPG,,,,,,,,,,,,,,,,,2,8,28,2,,,,,,,AFSA12.jpg,AFNE13.jpg,AFSA13.jpg,AFNE11.jpg,AFNE11.jpg,FN,3,num_4,32,num_6,0.633507505816,,,2017_May_22_1341,60.0007890129,FEMA4ImagesEEG,001,100204,
AFNE01.JPG,AFNE01.JPG,AFNE01.JPG,AFNE01.JPG,AFNE01.JPG,AFNE01.JPG,,,,,,,,,,,,,,,,,2,9,29,8,,,,,,,AFSA14.jpg,AFNE18.jpg,AFNE01.jpg,AFSA05.jpg,AFSA14.jpg,FS,4,num_8,32,num_4,1.26669619611,,,2017_May_22_1341,60.0007890129,FEMA4ImagesEEG,001,100204,
AFNE01.JPG,AFNE01.JPG,AFNE01.JPG,AFNE01.JPG,AFNE01.JPG,AFNE01.JPG,,,,,,,,,,,,,,,,,3,0,30,3,,,,,,,AFNE17.jpg,AFSA04.jpg,AFNE04.jpg,AFSA15.jpg,AFNE17.jpg,FN,3,num_8,32,num_4,0.550210389367,,,2017_May_22_1341,60.0007890129,FEMA4ImagesEEG,001,100204,
AFNE01.JPG,AFNE01.JPG,AFNE01.JPG,AFNE01.JPG,AFNE01.JPG,AFNE01.JPG,,,,,,,,,,,,,,,,,3,1,31,8,,,,,,,AFSA11.jpg,AFNE16.jpg,AFNE01.jpg,AFSA01.jpg,AFSA11.jpg,FS,4,num_8,32,num_6,0.66679998755,,,2017_May_22_1341,60.0007890129,FEMA4ImagesEEG,001,100204,
AFNE01.JPG,AFNE01.JPG,AFNE01.JPG,AFNE01.JPG,AFNE01.JPG,AFNE01.JPG,,,,,,,,,,,,,,,,,3,2,32,9,,,,,,,AFSA04.jpg,AFNE20.jpg,AFSA20.jpg,AFNE11.jpg,AFSA20.jpg,FS,4,num_2,32,num_6,0.78335494583,,,2017_May_22_1341,60.0007890129,FEMA4ImagesEEG,001,100204,
AFNE01.JPG,AFNE01.JPG,AFNE01.JPG,AFNE01.JPG,AFNE01.JPG,AFNE01.JPG,,,,,,,,,,,,,,,,,3,3,33,7,,,,,,,AFNE17.jpg,AFNE19.jpg,AFSA03.jpg,AFSA05.jpg,AFSA03.jpg,FS,4,num_2,32,num_8,0.100236032507,,,2017_May_22_1341,60.0007890129,FEMA4ImagesEEG,001,100204,
AFNE01.JPG,AFNE01.JPG,AFNE01.JPG,AFNE01.JPG,AFNE01.JPG,AFNE01.JPG,,,,,,,,,,,,,,,,,3,4,34,0,,,,,,,AFSA05.jpg,AFNE03.jpg,AFNE06.jpg,AFSA04.jpg,AFNE03.jpg,FN,3,num_6,32,num_2,1.21671754133,,,2017_May_22_1341,60.0007890129,FEMA4ImagesEEG,001,100204,
AFNE01.JPG,AFNE01.JPG,AFNE01.JPG,AFNE01.JPG,AFNE01.JPG,AFNE01.JPG,,,,,,,,,,,,,,,,,3,5,35,2,,,,,,,AFSA01.jpg,AFNE10.jpg,AFNE07.jpg,AFSA02.jpg,AFNE10.jpg,FN,3,num_6,32,num_4,0.716808150348,,,2017_May_22_1341,60.0007890129,FEMA4ImagesEEG,001,100204,
AFNE01.JPG,AFNE01.JPG,AFNE01.JPG,AFNE01.JPG,AFNE01.JPG,AFNE01.JPG,,,,,,,,,,,,,,,,,3,6,36,4,,,,,,,AFNE09.jpg,AFSA03.jpg,AFNE17.jpg,AFSA14.jpg,AFNE09.jpg,FN,3,num_8,16,num_8,0.483501940966,,,2017_May_22_1341,60.0007890129,FEMA4ImagesEEG,001,100204,
AFNE01.JPG,AFNE01.JPG,AFNE01.JPG,AFNE01.JPG,AFNE01.JPG,AFNE01.JPG,,,,,,,,,,,,,,,,,3,7,37,1,,,,,,,AFSA16.jpg,AFNE19.jpg,AFSA08.jpg,AFNE10.jpg,AFSA16.jpg,FS,4,num_8,32,num_2,0.950101530179,,,2017_May_22_1341,60.0007890129,FEMA4ImagesEEG,001,100204,
AFNE01.JPG,AFNE01.JPG,AFNE01.JPG,AFNE01.JPG,AFNE01.JPG,AFNE01.JPG,,,,,,,,,,,,,,,,,3,8,38,6,,,,,,,AFSA19.jpg,AFSA13.jpg,AFNE04.jpg,AFNE03.jpg,AFSA19.jpg,FS,4,num_8,16,num_8,0.450132160913,,,2017_May_22_1341,60.0007890129,FEMA4ImagesEEG,001,100204,
AFNE01.JPG,AFNE01.JPG,AFNE01.JPG,AFNE01.JPG,AFNE01.JPG,AFNE01.JPG,,,,,,,,,,,,,,,,,3,9,39,5,,,,,,,AFSA01.jpg,AFSA04.jpg,AFNE18.jpg,AFNE07.jpg,AFNE18.jpg,FN,3,num_2,32,num_6,0.366796234914,,,2017_May_22_1341,60.0007890129,FEMA4ImagesEEG,001,100204,
AFNE01.JPG,AFNE01.JPG,AFNE01.JPG,AFNE01.JPG,AFNE01.JPG,AFNE01.JPG,,,,,,,,,,,,,,,,,4,0,40,1,,,,,,,AFSA12.jpg,AFNE08.jpg,AFNE01.jpg,AFSA02.jpg,AFSA02.jpg,FS,4,num_4,16,num_4,1.73342023249,,,2017_May_22_1341,60.0007890129,FEMA4ImagesEEG,001,100204,
AFNE01.JPG,AFNE01.JPG,AFNE01.JPG,AFNE01.JPG,AFNE01.JPG,AFNE01.JPG,,,,,,,,,,,,,,,,,4,1,41,8,,,,,,,AFSA15.jpg,AFNE08.jpg,AFNE07.jpg,AFSA03.jpg,AFSA03.jpg,FS,4,num_4,16,num_4,0.500220508722,,,2017_May_22_1341,60.0007890129,FEMA4ImagesEEG,001,100204,
AFNE01.JPG,AFNE01.JPG,AFNE01.JPG,AFNE01.JPG,AFNE01.JPG,AFNE01.JPG,,,,,,,,,,,,,,,,,4,2,42,2,,,,,,,AFNE10.jpg,AFSA06.jpg,AFNE03.jpg,AFSA17.jpg,AFSA17.jpg,FS,4,num_4,16,num_4,0.516262635996,,,2017_May_22_1341,60.0007890129,FEMA4ImagesEEG,001,100204,
AFNE01.JPG,AFNE01.JPG,AFNE01.JPG,AFNE01.JPG,AFNE01.JPG,AFNE01.JPG,,,,,,,,,,,,,,,,,4,3,43,9,,,,,,,AFNE08.jpg,AFNE10.jpg,AFSA12.jpg,AFSA02.jpg,AFSA02.jpg,FS,4,num_4,16,num_4,0.850212538324,,,2017_May_22_1341,60.0007890129,FEMA4ImagesEEG,001,100204,
AFNE01.JPG,AFNE01.JPG,AFNE01.JPG,AFNE01.JPG,AFNE01.JPG,AFNE01.JPG,,,,,,,,,,,,,,,,,4,4,44,5,,,,,,,AFNE10.jpg,AFNE03.jpg,AFSA04.jpg,AFSA18.jpg,AFSA04.jpg,FS,4,num_2,32,num_6,1.80003887368,,,2017_May_22_1341,60.0007890129,FEMA4ImagesEEG,001,100204,
AFNE01.JPG,AFNE01.JPG,AFNE01.JPG,AFNE01.JPG,AFNE01.JPG,AFNE01.JPG,,,,,,,,,,,,,,,,,4,5,45,6,,,,,,,AFNE01.jpg,AFNE05.jpg,AFSA18.jpg,AFSA16.jpg,AFNE01.jpg,FN,3,num_8,16,num_8,0.900138591765,,,2017_May_22_1341,60.0007890129,FEMA4ImagesEEG,001,100204,
AFNE01.JPG,AFNE01.JPG,AFNE01.JPG,AFNE01.JPG,AFNE01.JPG,AFNE01.JPG,,,,,,,,,,,,,,,,,4,6,46,4,,,,,,,AFSA09.jpg,AFNE19.jpg,AFNE15.jpg,AFSA20.jpg,AFSA20.jpg,FS,4,num_4,48,None,,,,2017_May_22_1341,60.0007890129,FEMA4ImagesEEG,001,100204,
AFNE01.JPG,AFNE01.JPG,AFNE01.JPG,AFNE01.JPG,AFNE01.JPG,AFNE01.JPG,,,,,,,,,,,,,,,,,4,7,47,3,,,,,,,AFSA06.jpg,AFNE06.jpg,AFNE14.jpg,AFSA10.jpg,AFNE14.jpg,FN,3,num_2,32,num_4,0.0335044907988,,,2017_May_22_1341,60.0007890129,FEMA4ImagesEEG,001,100204,
AFNE01.JPG,AFNE01.JPG,AFNE01.JPG,AFNE01.JPG,AFNE01.JPG,AFNE01.JPG,,,,,,,,,,,,,,,,,4,8,48,7,,,,,,,AFNE12.jpg,AFSA10.jpg,AFNE02.jpg,AFSA13.jpg,AFNE12.jpg,FN,3,num_8,32,num_2,1.00000096223,,,2017_May_22_1341,60.0007890129,FEMA4ImagesEEG,001,100204,
AFNE01.JPG,AFNE01.JPG,AFNE01.JPG,AFNE01.JPG,AFNE01.JPG,AFNE01.JPG,,,,,,,,,,,,,,,,,4,9,49,0,,,,,,,AFSA03.jpg,AFNE14.jpg,AFNE15.jpg,AFSA11.jpg,AFNE14.jpg,FN,3,num_6,32,num_8,0.73343530728,,,2017_May_22_1341,60.0007890129,FEMA4ImagesEEG,001,100204,
AFNE01.JPG,AFNE01.JPG,AFNE01.JPG,AFNE01.JPG,AFNE01.JPG,AFNE01.JPG,,,,,,,,,,,,,,,,,5,0,50,5,,,,,,,AFSA04.jpg,AFSA18.jpg,AFNE01.jpg,AFNE08.jpg,AFNE01.jpg,FN,3,num_2,16,num_2,0.900159760553,,,2017_May_22_1341,60.0007890129,FEMA4ImagesEEG,001,100204,
AFNE01.JPG,AFNE01.JPG,AFNE01.JPG,AFNE01.JPG,AFNE01.JPG,AFNE01.JPG,,,,,,,,,,,,,,,,,5,1,51,1,,,,,,,AFSA02.jpg,AFNE10.jpg,AFNE16.jpg,AFSA07.jpg,AFSA02.jpg,FS,4,num_8,16,num_8,0.666761819506,,,2017_May_22_1341,60.0007890129,FEMA4ImagesEEG,001,100204,
AFNE01.JPG,AFNE01.JPG,AFNE01.JPG,AFNE01.JPG,AFNE01.JPG,AFNE01.JPG,,,,,,,,,,,,,,,,,5,2,52,2,,,,,,,AFNE08.jpg,AFNE13.jpg,AFSA06.jpg,AFSA18.jpg,AFSA18.jpg,FS,4,num_4,16,num_4,0.366767689062,,,2017_May_22_1341,60.0007890129,FEMA4ImagesEEG,001,100204,
AFNE01.JPG,AFNE01.JPG,AFNE01.JPG,AFNE01.JPG,AFNE01.JPG,AFNE01.JPG,,,,,,,,,,,,,,,,,5,3,53,4,,,,,,,AFSA11.jpg,AFSA01.jpg,AFNE07.jpg,AFNE01.jpg,AFNE07.jpg,FN,3,num_2,16,num_2,0.683560572215,,,2017_May_22_1341,60.0007890129,FEMA4ImagesEEG,001,100204,
AFNE01.JPG,AFNE01.JPG,AFNE01.JPG,AFNE01.JPG,AFNE01.JPG,AFNE01.JPG,,,,,,,,,,,,,,,,,5,4,54,9,,,,,,,AFNE14.jpg,AFSA17.jpg,AFNE06.jpg,AFSA18.jpg,AFSA18.jpg,FS,4,num_4,32,num_6,0.716780566727,,,2017_May_22_1341,60.0007890129,FEMA4ImagesEEG,001,100204,
AFNE01.JPG,AFNE01.JPG,AFNE01.JPG,AFNE01.JPG,AFNE01.JPG,AFNE01.JPG,,,,,,,,,,,,,,,,,5,5,55,6,,,,,,,AFSA13.jpg,AFSA04.jpg,AFNE11.jpg,AFNE03.jpg,AFNE03.jpg,FN,3,num_4,32,num_2,0.583499663742,,,2017_May_22_1341,60.0007890129,FEMA4ImagesEEG,001,100204,
AFNE01.JPG,AFNE01.JPG,AFNE01.JPG,AFNE01.JPG,AFNE01.JPG,AFNE01.JPG,,,,,,,,,,,,,,,,,5,6,56,3,,,,,,,AFNE04.jpg,AFNE07.jpg,AFSA03.jpg,AFSA02.jpg,AFSA02.jpg,FS,4,num_4,16,num_4,0.733744500496,,,2017_May_22_1341,60.0007890129,FEMA4ImagesEEG,001,100204,
AFNE01.JPG,AFNE01.JPG,AFNE01.JPG,AFNE01.JPG,AFNE01.JPG,AFNE01.JPG,,,,,,,,,,,,,,,,,5,7,57,8,,,,,,,AFSA19.jpg,AFSA13.jpg,AFNE04.jpg,AFNE20.jpg,AFNE04.jpg,FN,3,num_2,32,num_4,0.700160466193,,,2017_May_22_1341,60.0007890129,FEMA4ImagesEEG,001,100204,
AFNE01.JPG,AFNE01.JPG,AFNE01.JPG,AFNE01.JPG,AFNE01.JPG,AFNE01.JPG,,,,,,,,,,,,,,,,,5,8,58,7,,,,,,,AFNE17.jpg,AFSA02.jpg,AFNE05.jpg,AFSA06.jpg,AFNE05.jpg,FN,3,num_2,16,num_2,0.833102026372,,,2017_May_22_1341,60.0007890129,FEMA4ImagesEEG,001,100204,
AFNE01.JPG,AFNE01.JPG,AFNE01.JPG,AFNE01.JPG,AFNE01.JPG,AFNE01.JPG,,,,,,,,,,,,,,,,,5,9,59,0,,,,,,,AFSA10.jpg,AFSA18.jpg,AFNE16.jpg,AFNE13.jpg,AFNE16.jpg,FN,3,num_2,48,None,,,,2017_May_22_1341,60.0007890129,FEMA4ImagesEEG,001,100204,
,,,,,,,,,,,,,,,,,,,,,,,,,,,,,,,,,,,,,,,,,,,space,3.98326315009,2017_May_22_1341,60.0007890129,FEMA4ImagesEEG,001,100204,
AFNE01.JPG,AFNE01.JPG,AFNE01.JPG,AFNE01.JPG,AFNE01.JPG,AFNE01.JPG,,,,,,,,,,,,,,,,,,,,,0,0,0,8,,,AMSA15.jpg,AMNE07.jpg,AMSA01.jpg,AMNE16.jpg,AMSA01.jpg,MS,2,num_2,16,num_2,0.566800661152,,,2017_May_22_1341,60.0007890129,FEMA4ImagesEEG,001,100204,
AFNE01.JPG,AFNE01.JPG,AFNE01.JPG,AFNE01.JPG,AFNE01.JPG,AFNE01.JPG,,,,,,,,,,,,,,,,,,,,,0,1,1,6,,,AMNE11.jpg,AMNE08.jpg,AMSA12.jpg,AMSA02.jpg,AMNE08.jpg,MN,1,num_6,32,num_2,0.66679325205,,,2017_May_22_1341,60.0007890129,FEMA4ImagesEEG,001,100204,
AFNE01.JPG,AFNE01.JPG,AFNE01.JPG,AFNE01.JPG,AFNE01.JPG,AFNE01.JPG,,,,,,,,,,,,,,,,,,,,,0,2,2,4,,,AMSA04.jpg,AMNE13.jpg,AMSA09.jpg,AMNE11.jpg,AMNE11.jpg,MN,1,num_4,32,num_8,0.550168051675,,,2017_May_22_1341,60.0007890129,FEMA4ImagesEEG,001,100204,
AFNE01.JPG,AFNE01.JPG,AFNE01.JPG,AFNE01.JPG,AFNE01.JPG,AFNE01.JPG,,,,,,,,,,,,,,,,,,,,,0,3,3,9,,,AMSA14.jpg,AMNE19.jpg,AMNE11.jpg,AMSA01.jpg,AMSA14.jpg,MS,2,num_8,32,num_4,0.683458256128,,,2017_May_22_1341,60.0007890129,FEMA4ImagesEEG,001,100204,
AFNE01.JPG,AFNE01.JPG,AFNE01.JPG,AFNE01.JPG,AFNE01.JPG,AFNE01.JPG,,,,,,,,,,,,,,,,,,,,,0,4,4,2,,,AMSA09.jpg,AMNE03.jpg,AMNE20.jpg,AMSA18.jpg,AMSA18.jpg,MS,2,num_4,16,num_4,0.550226747117,,,2017_May_22_1341,60.0007890129,FEMA4ImagesEEG,001,100204,
AFNE01.JPG,AFNE01.JPG,AFNE01.JPG,AFNE01.JPG,AFNE01.JPG,AFNE01.JPG,,,,,,,,,,,,,,,,,,,,,0,5,5,1,,,AMNE09.jpg,AMSA12.jpg,AMNE01.jpg,AMSA07.jpg,AMSA07.jpg,MS,2,num_4,32,num_2,0.583414026187,,,2017_May_22_1341,60.0007890129,FEMA4ImagesEEG,001,100204,
AFNE01.JPG,AFNE01.JPG,AFNE01.JPG,AFNE01.JPG,AFNE01.JPG,AFNE01.JPG,,,,,,,,,,,,,,,,,,,,,0,6,6,5,,,AMSA20.jpg,AMNE09.jpg,AMNE13.jpg,AMSA03.jpg,AMNE13.jpg,MN,1,num_2,32,num_6,0.466818333894,,,2017_May_22_1341,60.0007890129,FEMA4ImagesEEG,001,100204,
AFNE01.JPG,AFNE01.JPG,AFNE01.JPG,AFNE01.JPG,AFNE01.JPG,AFNE01.JPG,,,,,,,,,,,,,,,,,,,,,0,7,7,7,,,AMNE11.jpg,AMNE09.jpg,AMSA16.jpg,AMSA19.jpg,AMSA16.jpg,MS,2,num_2,32,num_8,0.533514594135,,,2017_May_22_1341,60.0007890129,FEMA4ImagesEEG,001,100204,
AFNE01.JPG,AFNE01.JPG,AFNE01.JPG,AFNE01.JPG,AFNE01.JPG,AFNE01.JPG,,,,,,,,,,,,,,,,,,,,,0,8,8,3,,,AMSA07.jpg,AMNE02.jpg,AMNE15.jpg,AMSA18.jpg,AMNE02.jpg,MN,1,num_6,32,num_2,0.300160594459,,,2017_May_22_1341,60.0007890129,FEMA4ImagesEEG,001,100204,
AFNE01.JPG,AFNE01.JPG,AFNE01.JPG,AFNE01.JPG,AFNE01.JPG,AFNE01.JPG,,,,,,,,,,,,,,,,,,,,,0,9,9,0,,,AMSA09.jpg,AMNE03.jpg,AMNE13.jpg,AMSA15.jpg,AMNE13.jpg,MN,1,num_2,32,num_4,1.45011195424,,,2017_May_22_1341,60.0007890129,FEMA4ImagesEEG,001,100204,
AFNE01.JPG,AFNE01.JPG,AFNE01.JPG,AFNE01.JPG,AFNE01.JPG,AFNE01.JPG,,,,,,,,,,,,,,,,,,,,,1,0,10,9,,,AMSA11.jpg,AMNE08.jpg,AMSA10.jpg,AMNE15.jpg,AMSA11.jpg,MS,2,num_8,32,num_6,0.250180015282,,,2017_May_22_1341,60.0007890129,FEMA4ImagesEEG,001,100204,
AFNE01.JPG,AFNE01.JPG,AFNE01.JPG,AFNE01.JPG,AFNE01.JPG,AFNE01.JPG,,,,,,,,,,,,,,,,,,,,,1,1,11,6,,,AMNE15.jpg,AMNE17.jpg,AMSA13.jpg,AMSA10.jpg,AMNE17.jpg,MN,1,num_6,32,num_2,0.833325582149,,,2017_May_22_1341,60.0007890129,FEMA4ImagesEEG,001,100204,
AFNE01.JPG,AFNE01.JPG,AFNE01.JPG,AFNE01.JPG,AFNE01.JPG,AFNE01.JPG,,,,,,,,,,,,,,,,,,,,,1,2,12,8,,,AMNE03.jpg,AMNE19.jpg,AMSA01.jpg,AMSA12.jpg,AMSA01.jpg,MS,2,num_2,32,num_4,0.550156825746,,,2017_May_22_1341,60.0007890129,FEMA4ImagesEEG,001,100204,
AFNE01.JPG,AFNE01.JPG,AFNE01.JPG,AFNE01.JPG,AFNE01.JPG,AFNE01.JPG,,,,,,,,,,,,,,,,,,,,,1,3,13,0,,,AMNE05.jpg,AMSA09.jpg,AMNE11.jpg,AMSA06.jpg,AMSA09.jpg,MS,2,num_6,32,num_4,0.300181763305,,,2017_May_22_1341,60.0007890129,FEMA4ImagesEEG,001,100204,
AFNE01.JPG,AFNE01.JPG,AFNE01.JPG,AFNE01.JPG,AFNE01.JPG,AFNE01.JPG,,,,,,,,,,,,,,,,,,,,,1,4,14,7,,,AMSA19.jpg,AMNE01.jpg,AMSA10.jpg,AMNE05.jpg,AMNE05.jpg,MN,1,num_4,16,num_4,0.400194240094,,,2017_May_22_1341,60.0007890129,FEMA4ImagesEEG,001,100204,
AFNE01.JPG,AFNE01.JPG,AFNE01.JPG,AFNE01.JPG,AFNE01.JPG,AFNE01.JPG,,,,,,,,,,,,,,,,,,,,,1,5,15,4,,,AMNE02.jpg,AMNE15.jpg,AMSA12.jpg,AMSA05.jpg,AMSA05.jpg,MS,2,num_4,32,num_6,0.850153201434,,,2017_May_22_1341,60.0007890129,FEMA4ImagesEEG,001,100204,
AFNE01.JPG,AFNE01.JPG,AFNE01.JPG,AFNE01.JPG,AFNE01.JPG,AFNE01.JPG,,,,,,,,,,,,,,,,,,,,,1,6,16,1,,,AMSA02.jpg,AMNE08.jpg,AMNE06.jpg,AMSA19.jpg,AMNE06.jpg,MN,1,num_2,16,num_2,0.616818446084,,,2017_May_22_1341,60.0007890129,FEMA4ImagesEEG,001,100204,
AFNE01.JPG,AFNE01.JPG,AFNE01.JPG,AFNE01.JPG,AFNE01.JPG,AFNE01.JPG,,,,,,,,,,,,,,,,,,,,,1,7,17,3,,,AMNE02.jpg,AMSA07.jpg,AMNE01.jpg,AMSA08.jpg,AMNE02.jpg,MN,1,num_8,16,num_8,0.600189685589,,,2017_May_22_1341,60.0007890129,FEMA4ImagesEEG,001,100204,
AFNE01.JPG,AFNE01.JPG,AFNE01.JPG,AFNE01.JPG,AFNE01.JPG,AFNE01.JPG,,,,,,,,,,,,,,,,,,,,,1,8,18,2,,,AMSA07.jpg,AMNE18.jpg,AMNE01.jpg,AMSA12.jpg,AMSA12.jpg,MS,2,num_4,32,num_8,4.55009716819,,,2017_May_22_1341,60.0007890129,FEMA4ImagesEEG,001,100204,
AFNE01.JPG,AFNE01.JPG,AFNE01.JPG,AFNE01.JPG,AFNE01.JPG,AFNE01.JPG,,,,,,,,,,,,,,,,,,,,,1,9,19,5,,,AMNE17.jpg,AMSA14.jpg,AMSA01.jpg,AMNE11.jpg,AMNE17.jpg,MN,1,num_8,16,num_8,0.500188113947,,,2017_May_22_1341,60.0007890129,FEMA4ImagesEEG,001,100204,
AFNE01.JPG,AFNE01.JPG,AFNE01.JPG,AFNE01.JPG,AFNE01.JPG,AFNE01.JPG,,,,,,,,,,,,,,,,,,,,,2,0,20,3,,,AMSA04.jpg,AMNE13.jpg,AMSA13.jpg,AMNE02.jpg,AMSA04.jpg,MS,2,num_8,32,num_2,0.650153586292,,,2017_May_22_1341,60.0007890129,FEMA4ImagesEEG,001,100204,
AFNE01.JPG,AFNE01.JPG,AFNE01.JPG,AFNE01.JPG,AFNE01.JPG,AFNE01.JPG,,,,,,,,,,,,,,,,,,,,,2,1,21,4,,,AMSA20.jpg,AMNE15.jpg,AMNE14.jpg,AMSA01.jpg,AMNE15.jpg,MN,1,num_6,16,num_6,0.450116123888,,,2017_May_22_1341,60.0007890129,FEMA4ImagesEEG,001,100204,
AFNE01.JPG,AFNE01.JPG,AFNE01.JPG,AFNE01.JPG,AFNE01.JPG,AFNE01.JPG,,,,,,,,,,,,,,,,,,,,,2,2,22,5,,,AMSA19.jpg,AMNE14.jpg,AMSA02.jpg,AMNE15.jpg,AMNE15.jpg,MN,1,num_4,16,num_4,0.383470540517,,,2017_May_22_1341,60.0007890129,FEMA4ImagesEEG,001,100204,
AFNE01.JPG,AFNE01.JPG,AFNE01.JPG,AFNE01.JPG,AFNE01.JPG,AFNE01.JPG,,,,,,,,,,,,,,,,,,,,,2,3,23,2,,,AMSA10.jpg,AMNE05.jpg,AMSA14.jpg,AMNE18.jpg,AMNE05.jpg,MN,1,num_6,16,num_6,0.416811453993,,,2017_May_22_1341,60.0007890129,FEMA4ImagesEEG,001,100204,
AFNE01.JPG,AFNE01.JPG,AFNE01.JPG,AFNE01.JPG,AFNE01.JPG,AFNE01.JPG,,,,,,,,,,,,,,,,,,,,,2,4,24,1,,,AMNE06.jpg,AMNE13.jpg,AMSA03.jpg,AMSA07.jpg,AMSA03.jpg,MS,2,num_2,32,num_8,0.316825277929,,,2017_May_22_1341,60.0007890129,FEMA4ImagesEEG,001,100204,
AFNE01.JPG,AFNE01.JPG,AFNE01.JPG,AFNE01.JPG,AFNE01.JPG,AFNE01.JPG,,,,,,,,,,,,,,,,,,,,,2,5,25,0,,,AMSA14.jpg,AMNE02.jpg,AMSA19.jpg,AMNE01.jpg,AMSA19.jpg,MS,2,num_2,16,num_2,0.650177000323,,,2017_May_22_1341,60.0007890129,FEMA4ImagesEEG,001,100204,
AFNE01.JPG,AFNE01.JPG,AFNE01.JPG,AFNE01.JPG,AFNE01.JPG,AFNE01.JPG,,,,,,,,,,,,,,,,,,,,,2,6,26,6,,,AMSA05.jpg,AMNE01.jpg,AMNE08.jpg,AMSA12.jpg,AMNE01.jpg,MN,1,num_6,32,num_4,0.233194591943,,,2017_May_22_1341,60.0007890129,FEMA4ImagesEEG,001,100204,
AFNE01.JPG,AFNE01.JPG,AFNE01.JPG,AFNE01.JPG,AFNE01.JPG,AFNE01.JPG,,,,,,,,,,,,,,,,,,,,,2,7,27,7,,,AMSA14.jpg,AMSA17.jpg,AMNE02.jpg,AMNE15.jpg,AMNE15.jpg,MN,1,num_4,16,num_4,0.333411059342,,,2017_May_22_1341,60.0007890129,FEMA4ImagesEEG,001,100204,
AFNE01.JPG,AFNE01.JPG,AFNE01.JPG,AFNE01.JPG,AFNE01.JPG,AFNE01.JPG,,,,,,,,,,,,,,,,,,,,,2,8,28,8,,,AMNE18.jpg,AMSA17.jpg,AMNE08.jpg,AMSA02.jpg,AMNE08.jpg,MN,1,num_2,32,num_6,0.583485230396,,,2017_May_22_1341,60.0007890129,FEMA4ImagesEEG,001,100204,
AFNE01.JPG,AFNE01.JPG,AFNE01.JPG,AFNE01.JPG,AFNE01.JPG,AFNE01.JPG,,,,,,,,,,,,,,,,,,,,,2,9,29,9,,,AMSA17.jpg,AMNE13.jpg,AMNE19.jpg,AMSA19.jpg,AMSA19.jpg,MS,2,num_4,32,num_8,0.516820402641,,,2017_May_22_1341,60.0007890129,FEMA4ImagesEEG,001,100204,
AFNE01.JPG,AFNE01.JPG,AFNE01.JPG,AFNE01.JPG,AFNE01.JPG,AFNE01.JPG,,,,,,,,,,,,,,,,,,,,,3,0,30,0,,,AMNE13.jpg,AMSA18.jpg,AMSA03.jpg,AMNE20.jpg,AMSA18.jpg,MS,2,num_6,32,num_4,4.33313137415,,,2017_May_22_1341,60.0007890129,FEMA4ImagesEEG,001,100204,
AFNE01.JPG,AFNE01.JPG,AFNE01.JPG,AFNE01.JPG,AFNE01.JPG,AFNE01.JPG,,,,,,,,,,,,,,,,,,,,,3,1,31,2,,,AMNE07.jpg,AMNE17.jpg,AMSA05.jpg,AMSA16.jpg,AMNE17.jpg,MN,1,num_6,16,num_6,0.550119299209,,,2017_May_22_1341,60.0007890129,FEMA4ImagesEEG,001,100204,
AFNE01.JPG,AFNE01.JPG,AFNE01.JPG,AFNE01.JPG,AFNE01.JPG,AFNE01.JPG,,,,,,,,,,,,,,,,,,,,,3,2,32,4,,,AMNE10.jpg,AMNE07.jpg,AMSA02.jpg,AMSA11.jpg,AMNE07.jpg,MN,1,num_6,32,num_4,0.533497594937,,,2017_May_22_1341,60.0007890129,FEMA4ImagesEEG,001,100204,
AFNE01.JPG,AFNE01.JPG,AFNE01.JPG,AFNE01.JPG,AFNE01.JPG,AFNE01.JPG,,,,,,,,,,,,,,,,,,,,,3,3,33,5,,,AMNE06.jpg,AMSA16.jpg,AMNE14.jpg,AMSA10.jpg,AMNE14.jpg,MN,1,num_2,16,num_2,0.483549089695,,,2017_May_22_1341,60.0007890129,FEMA4ImagesEEG,001,100204,
AFNE01.JPG,AFNE01.JPG,AFNE01.JPG,AFNE01.JPG,AFNE01.JPG,AFNE01.JPG,,,,,,,,,,,,,,,,,,,,,3,4,34,1,,,AMNE13.jpg,AMNE06.jpg,AMSA20.jpg,AMSA08.jpg,AMSA20.jpg,MS,2,num_2,32,num_8,0.300030694809,,,2017_May_22_1341,60.0007890129,FEMA4ImagesEEG,001,100204,
AFNE01.JPG,AFNE01.JPG,AFNE01.JPG,AFNE01.JPG,AFNE01.JPG,AFNE01.JPG,,,,,,,,,,,,,,,,,,,,,3,5,35,9,,,AMNE17.jpg,AMSA13.jpg,AMSA07.jpg,AMNE13.jpg,AMSA13.jpg,MS,2,num_6,16,num_6,0.466861633759,,,2017_May_22_1341,60.0007890129,FEMA4ImagesEEG,001,100204,
AFNE01.JPG,AFNE01.JPG,AFNE01.JPG,AFNE01.JPG,AFNE01.JPG,AFNE01.JPG,,,,,,,,,,,,,,,,,,,,,3,6,36,8,,,AMNE04.jpg,AMSA06.jpg,AMNE05.jpg,AMSA13.jpg,AMNE05.jpg,MN,1,num_2,32,num_4,0.383557140303,,,2017_May_22_1341,60.0007890129,FEMA4ImagesEEG,001,100204,
AFNE01.JPG,AFNE01.JPG,AFNE01.JPG,AFNE01.JPG,AFNE01.JPG,AFNE01.JPG,,,,,,,,,,,,,,,,,,,,,3,7,37,3,,,AMNE12.jpg,AMNE17.jpg,AMSA17.jpg,AMSA06.jpg,AMSA06.jpg,MS,2,num_4,32,num_8,0.283466723689,,,2017_May_22_1341,60.0007890129,FEMA4ImagesEEG,001,100204,
AFNE01.JPG,AFNE01.JPG,AFNE01.JPG,AFNE01.JPG,AFNE01.JPG,AFNE01.JPG,,,,,,,,,,,,,,,,,,,,,3,8,38,7,,,AMSA11.jpg,AMSA08.jpg,AMNE17.jpg,AMNE19.jpg,AMNE19.jpg,MN,1,num_4,16,num_4,0.250211447768,,,2017_May_22_1341,60.0007890129,FEMA4ImagesEEG,001,100204,
