IPosition2,IPosition3,IPosition1,IPosition6,IPosition4,IPosition5,TrialsF1.thisRepN,TrialsF1.thisTrialN,TrialsF1.thisN,TrialsF1.thisIndex,TrialsM1.thisRepN,TrialsM1.thisTrialN,TrialsM1.thisN,TrialsM1.thisIndex,TrialsF2.thisRepN,TrialsF2.thisTrialN,TrialsF2.thisN,TrialsF2.thisIndex,TrialsM2.thisRepN,TrialsM2.thisTrialN,TrialsM2.thisN,TrialsM2.thisIndex,TrialsF3.thisRepN,TrialsF3.thisTrialN,TrialsF3.thisN,TrialsF3.thisIndex,TrialsM3.thisRepN,TrialsM3.thisTrialN,TrialsM3.thisN,TrialsM3.thisIndex,InstrKey_resp.keys,InstrKey_resp.rt,Image0 _Position,Image1 _Position,Image2 _Position,Image3 _Position,Center_image,condition,code,correct_answer,accuracy,Key_Resp.keys,Key_Resp.rt,BreakKey_resp.keys,BreakKey_resp.rt,date,frameRate,expName,session,participant,
,,,,,,,,,,,,,,,,,,,,,,,,,,,,,,space,41.930279662,,,,,,,,,,,,,,2017_Apr_26_1350,60.0076409659,FEMA4ImagesEEG,001,100243,
AMSA21.JPG,AMNE23.JPG,AMNE21.JPG,AMSA25.JPG,AMNE25.JPG,AMSA23.JPG,0,0,0,5,,,,,,,,,,,,,,,,,,,,,,,AFSA15.jpg,AFSA19.jpg,AFNE02.jpg,AFNE01.jpg,AFNE01.jpg,FN,3,num_4,32,num_8,0.150376595906,,,2017_Apr_26_1350,60.0076409659,FEMA4ImagesEEG,001,100243,
AMSA25.JPG,AMNE24.JPG,AMSA24.JPG,AMNE26.JPG,AMSA21.JPG,AMNE25.JPG,0,1,1,3,,,,,,,,,,,,,,,,,,,,,,,AFNE01.jpg,AFNE06.jpg,AFSA10.jpg,AFSA14.jpg,AFNE01.jpg,FN,3,num_8,48,None,,,,2017_Apr_26_1350,60.0076409659,FEMA4ImagesEEG,001,100243,
AFSA21.JPG,AFNE23.JPG,AFNE21.JPG,AFSA25.JPG,AFNE25.JPG,AFSA23.JPG,0,2,2,4,,,,,,,,,,,,,,,,,,,,,,,AFSA16.jpg,AFNE19.jpg,AFSA18.jpg,AFNE03.jpg,AFSA16.jpg,FS,4,num_8,32,num_4,2.76660105411,,,2017_Apr_26_1350,60.0076409659,FEMA4ImagesEEG,001,100243,
AMSA21.JPG,AMNE22.JPG,AMNE21.JPG,AMSA23.JPG,AMSA22.JPG,AMNE23.JPG,0,3,3,1,,,,,,,,,,,,,,,,,,,,,,,AFSA20.jpg,AFNE06.jpg,AFSA11.jpg,AFNE18.jpg,AFSA11.jpg,FS,4,num_2,16,num_2,1.70006501384,,,2017_Apr_26_1350,60.0076409659,FEMA4ImagesEEG,001,100243,
AFNE23.JPG,AFNE24.JPG,AFNE22.JPG,AFSA24.JPG,AFSA22.JPG,AFSA23.JPG,0,4,4,8,,,,,,,,,,,,,,,,,,,,,,,AFNE07.jpg,AFSA10.jpg,AFNE13.jpg,AFSA01.jpg,AFSA10.jpg,FS,4,num_6,16,num_6,1.21659895324,,,2017_Apr_26_1350,60.0076409659,FEMA4ImagesEEG,001,100243,
AFSA21.JPG,AFNE22.JPG,AFNE21.JPG,AFSA23.JPG,AFSA22.JPG,AFNE23.JPG,0,5,5,0,,,,,,,,,,,,,,,,,,,,,,,AFSA10.jpg,AFNE14.jpg,AFNE05.jpg,AFSA06.jpg,AFNE05.jpg,FN,3,num_2,32,num_8,2.050000016,,,2017_Apr_26_1350,60.0076409659,FEMA4ImagesEEG,001,100243,
AMNE23.JPG,AMNE24.JPG,AMNE22.JPG,AMSA24.JPG,AMSA22.JPG,AMSA23.JPG,0,6,6,9,,,,,,,,,,,,,,,,,,,,,,,AFSA20.jpg,AFSA04.jpg,AFNE03.jpg,AFNE17.jpg,AFNE03.jpg,FN,3,num_2,16,num_2,2.23336398532,,,2017_Apr_26_1350,60.0076409659,FEMA4ImagesEEG,001,100243,
AFSA25.JPG,AFNE24.JPG,AFSA24.JPG,AFNE21.JPG,AFSA21.JPG,AFNE25.JPG,0,7,7,2,,,,,,,,,,,,,,,,,,,,,,,AFSA11.jpg,AFNE05.jpg,AFSA01.jpg,AFNE16.jpg,AFSA01.jpg,FS,4,num_2,16,num_2,2.29998822894,,,2017_Apr_26_1350,60.0076409659,FEMA4ImagesEEG,001,100243,
AFNE22.JPG,AFSA24.JPG,AFSA22.JPG,AFNE25.JPG,AFNE24.JPG,AFSA25.JPG,0,8,8,6,,,,,,,,,,,,,,,,,,,,,,,AFSA09.jpg,AFSA17.jpg,AFNE17.jpg,AFNE06.jpg,AFNE06.jpg,FN,3,num_4,16,num_4,0.883424172061,,,2017_Apr_26_1350,60.0076409659,FEMA4ImagesEEG,001,100243,
AMNE22.JPG,AMSA24.JPG,AMSA22.JPG,AMNE25.JPG,AMNE24.JPG,AMSA25.JPG,0,9,9,7,,,,,,,,,,,,,,,,,,,,,,,AFNE18.jpg,AFNE05.jpg,AFSA18.jpg,AFSA17.jpg,AFSA18.jpg,FS,4,num_2,32,num_6,1.21671249496,,,2017_Apr_26_1350,60.0076409659,FEMA4ImagesEEG,001,100243,
AMSA25.JPG,AMNE24.JPG,AMSA24.JPG,AMNE26.JPG,AMSA21.JPG,AMNE25.JPG,,,,,0,0,0,3,,,,,,,,,,,,,,,,,,,AMSA11.jpg,AMNE11.jpg,AMSA02.jpg,AMNE04.jpg,AMSA11.jpg,MS,2,num_8,16,num_8,1.46671321662,,,2017_Apr_26_1350,60.0076409659,FEMA4ImagesEEG,001,100243,
AMNE22.JPG,AMSA24.JPG,AMSA22.JPG,AMNE25.JPG,AMNE24.JPG,AMSA25.JPG,,,,,0,1,1,7,,,,,,,,,,,,,,,,,,,AMSA10.jpg,AMNE13.jpg,AMSA19.jpg,AMNE06.jpg,AMNE06.jpg,MN,1,num_4,32,num_2,1.10016617493,,,2017_Apr_26_1350,60.0076409659,FEMA4ImagesEEG,001,100243,
AFSA21.JPG,AFNE23.JPG,AFNE21.JPG,AFSA25.JPG,AFNE25.JPG,AFSA23.JPG,,,,,0,2,2,4,,,,,,,,,,,,,,,,,,,AMNE06.jpg,AMNE20.jpg,AMSA01.jpg,AMSA16.jpg,AMSA01.jpg,MS,2,num_2,16,num_2,0.650171483168,,,2017_Apr_26_1350,60.0076409659,FEMA4ImagesEEG,001,100243,
AFSA21.JPG,AFNE22.JPG,AFNE21.JPG,AFSA23.JPG,AFSA22.JPG,AFNE23.JPG,,,,,0,3,3,0,,,,,,,,,,,,,,,,,,,AMSA15.jpg,AMNE01.jpg,AMNE08.jpg,AMSA06.jpg,AMSA15.jpg,MS,2,num_8,32,num_4,1.58344620676,,,2017_Apr_26_1350,60.0076409659,FEMA4ImagesEEG,001,100243,
AFNE23.JPG,AFNE24.JPG,AFNE22.JPG,AFSA24.JPG,AFSA22.JPG,AFSA23.JPG,,,,,0,4,4,8,,,,,,,,,,,,,,,,,,,AMNE14.jpg,AMNE16.jpg,AMSA16.jpg,AMSA10.jpg,AMNE16.jpg,MN,1,num_6,32,num_8,1.83334397117,,,2017_Apr_26_1350,60.0076409659,FEMA4ImagesEEG,001,100243,
AFNE22.JPG,AFSA24.JPG,AFSA22.JPG,AFNE25.JPG,AFNE24.JPG,AFSA25.JPG,,,,,0,5,5,6,,,,,,,,,,,,,,,,,,,AMNE18.jpg,AMNE10.jpg,AMSA01.jpg,AMSA03.jpg,AMSA01.jpg,MS,2,num_2,16,num_2,2.33320877957,,,2017_Apr_26_1350,60.0076409659,FEMA4ImagesEEG,001,100243,
AFSA25.JPG,AFNE24.JPG,AFSA24.JPG,AFNE21.JPG,AFSA21.JPG,AFNE25.JPG,,,,,0,6,6,2,,,,,,,,,,,,,,,,,,,AMSA07.jpg,AMSA02.jpg,AMNE18.jpg,AMNE02.jpg,AMSA02.jpg,MS,2,num_6,32,num_4,1.15020596259,,,2017_Apr_26_1350,60.0076409659,FEMA4ImagesEEG,001,100243,
AMSA21.JPG,AMNE22.JPG,AMNE21.JPG,AMSA23.JPG,AMSA22.JPG,AMNE23.JPG,,,,,0,7,7,1,,,,,,,,,,,,,,,,,,,AMSA11.jpg,AMNE20.jpg,AMNE04.jpg,AMSA08.jpg,AMSA08.jpg,MS,2,num_4,32,num_6,1.75000312726,,,2017_Apr_26_1350,60.0076409659,FEMA4ImagesEEG,001,100243,
AMNE23.JPG,AMNE24.JPG,AMNE22.JPG,AMSA24.JPG,AMSA22.JPG,AMSA23.JPG,,,,,0,8,8,9,,,,,,,,,,,,,,,,,,,AMNE03.jpg,AMSA04.jpg,AMSA19.jpg,AMNE19.jpg,AMNE19.jpg,MN,1,num_4,32,num_8,1.15010076016,,,2017_Apr_26_1350,60.0076409659,FEMA4ImagesEEG,001,100243,
AMSA21.JPG,AMNE23.JPG,AMNE21.JPG,AMSA25.JPG,AMNE25.JPG,AMSA23.JPG,,,,,0,9,9,5,,,,,,,,,,,,,,,,,,,AMSA01.jpg,AMNE03.jpg,AMNE06.jpg,AMSA05.jpg,AMNE06.jpg,MN,1,num_2,16,num_2,0.950132128433,,,2017_Apr_26_1350,60.0076409659,FEMA4ImagesEEG,001,100243,
AFNE22.JPG,AFSA24.JPG,AFSA22.JPG,AFNE25.JPG,AFNE24.JPG,AFSA25.JPG,,,,,,,,,0,0,0,6,,,,,,,,,,,,,,,AFSA14.jpg,AFNE15.jpg,AFNE09.jpg,AFSA05.jpg,AFSA05.jpg,FS,4,num_4,16,num_4,2.08341525542,,,2017_Apr_26_1350,60.0076409659,FEMA4ImagesEEG,001,100243,
AMNE23.JPG,AMNE24.JPG,AMNE22.JPG,AMSA24.JPG,AMSA22.JPG,AMSA23.JPG,,,,,,,,,0,1,1,9,,,,,,,,,,,,,,,AFSA05.jpg,AFNE12.jpg,AFNE16.jpg,AFSA15.jpg,AFSA05.jpg,FS,4,num_8,16,num_8,1.06673970958,,,2017_Apr_26_1350,60.0076409659,FEMA4ImagesEEG,001,100243,
AMSA21.JPG,AMNE23.JPG,AMNE21.JPG,AMSA25.JPG,AMNE25.JPG,AMSA23.JPG,,,,,,,,,0,2,2,5,,,,,,,,,,,,,,,AFNE18.jpg,AFSA16.jpg,AFNE01.jpg,AFSA11.jpg,AFSA16.jpg,FS,4,num_6,16,num_6,1.81668638682,,,2017_Apr_26_1350,60.0076409659,FEMA4ImagesEEG,001,100243,
AFNE23.JPG,AFNE24.JPG,AFNE22.JPG,AFSA24.JPG,AFSA22.JPG,AFSA23.JPG,,,,,,,,,0,3,3,8,,,,,,,,,,,,,,,AFNE07.jpg,AFSA11.jpg,AFNE03.jpg,AFSA01.jpg,AFNE03.jpg,FN,3,num_2,16,num_2,2.51673055266,,,2017_Apr_26_1350,60.0076409659,FEMA4ImagesEEG,001,100243,
AMNE22.JPG,AMSA24.JPG,AMSA22.JPG,AMNE25.JPG,AMNE24.JPG,AMSA25.JPG,,,,,,,,,0,4,4,7,,,,,,,,,,,,,,,AFSA04.jpg,AFNE07.jpg,AFNE16.jpg,AFSA14.jpg,AFNE16.jpg,FN,3,num_2,16,num_2,2.53331885731,,,2017_Apr_26_1350,60.0076409659,FEMA4ImagesEEG,001,100243,
AMSA25.JPG,AMNE24.JPG,AMSA24.JPG,AMNE26.JPG,AMSA21.JPG,AMNE25.JPG,,,,,,,,,0,5,5,3,,,,,,,,,,,,,,,AFSA03.jpg,AFNE14.jpg,AFNE20.jpg,AFSA18.jpg,AFSA18.jpg,FS,4,num_4,16,num_4,0.749978750944,,,2017_Apr_26_1350,60.0076409659,FEMA4ImagesEEG,001,100243,
AFSA21.JPG,AFNE23.JPG,AFNE21.JPG,AFSA25.JPG,AFNE25.JPG,AFSA23.JPG,,,,,,,,,0,6,6,4,,,,,,,,,,,,,,,AFNE12.jpg,AFNE10.jpg,AFSA18.jpg,AFSA15.jpg,AFSA15.jpg,FS,4,num_4,32,num_8,1.58337275754,,,2017_Apr_26_1350,60.0076409659,FEMA4ImagesEEG,001,100243,
AFSA21.JPG,AFNE22.JPG,AFNE21.JPG,AFSA23.JPG,AFSA22.JPG,AFNE23.JPG,,,,,,,,,0,7,7,0,,,,,,,,,,,,,,,AFSA14.jpg,AFNE20.jpg,AFNE14.jpg,AFSA15.jpg,AFSA14.jpg,FS,4,num_8,32,num_6,1.7833577469,,,2017_Apr_26_1350,60.0076409659,FEMA4ImagesEEG,001,100243,
AFSA25.JPG,AFNE24.JPG,AFSA24.JPG,AFNE21.JPG,AFSA21.JPG,AFNE25.JPG,,,,,,,,,0,8,8,2,,,,,,,,,,,,,,,AFSA20.jpg,AFNE19.jpg,AFNE07.jpg,AFSA06.jpg,AFSA06.jpg,FS,4,num_4,32,num_2,2.18332451838,,,2017_Apr_26_1350,60.0076409659,FEMA4ImagesEEG,001,100243,
AMSA21.JPG,AMNE22.JPG,AMNE21.JPG,AMSA23.JPG,AMSA22.JPG,AMNE23.JPG,,,,,,,,,0,9,9,1,,,,,,,,,,,,,,,AFNE19.jpg,AFNE15.jpg,AFSA19.jpg,AFSA11.jpg,AFNE15.jpg,FN,3,num_6,16,num_6,1.34981055546,,,2017_Apr_26_1350,60.0076409659,FEMA4ImagesEEG,001,100243,
AFSA21.JPG,AFNE22.JPG,AFNE21.JPG,AFSA23.JPG,AFSA22.JPG,AFNE23.JPG,,,,,,,,,,,,,0,0,0,0,,,,,,,,,,,AMNE04.jpg,AMSA09.jpg,AMNE14.jpg,AMSA05.jpg,AMNE14.jpg,MN,1,num_2,16,num_2,1.80013689143,,,2017_Apr_26_1350,60.0076409659,FEMA4ImagesEEG,001,100243,
AMSA21.JPG,AMNE22.JPG,AMNE21.JPG,AMSA23.JPG,AMSA22.JPG,AMNE23.JPG,,,,,,,,,,,,,0,1,1,1,,,,,,,,,,,AMNE10.jpg,AMSA18.jpg,AMNE12.jpg,AMSA06.jpg,AMSA18.jpg,MS,2,num_6,16,num_6,0.783461345709,,,2017_Apr_26_1350,60.0076409659,FEMA4ImagesEEG,001,100243,
AMNE23.JPG,AMNE24.JPG,AMNE22.JPG,AMSA24.JPG,AMSA22.JPG,AMSA23.JPG,,,,,,,,,,,,,0,2,2,9,,,,,,,,,,,AMSA12.jpg,AMSA03.jpg,AMNE19.jpg,AMNE12.jpg,AMSA12.jpg,MS,2,num_8,16,num_8,1.33345991827,,,2017_Apr_26_1350,60.0076409659,FEMA4ImagesEEG,001,100243,
AFSA21.JPG,AFNE23.JPG,AFNE21.JPG,AFSA25.JPG,AFNE25.JPG,AFSA23.JPG,,,,,,,,,,,,,0,3,3,4,,,,,,,,,,,AMNE12.jpg,AMSA10.jpg,AMNE06.jpg,AMSA09.jpg,AMSA10.jpg,MS,2,num_6,32,num_4,0.933503731387,,,2017_Apr_26_1350,60.0076409659,FEMA4ImagesEEG,001,100243,
AFSA25.JPG,AFNE24.JPG,AFSA24.JPG,AFNE21.JPG,AFSA21.JPG,AFNE25.JPG,,,,,,,,,,,,,0,4,4,2,,,,,,,,,,,AMNE14.jpg,AMSA03.jpg,AMNE02.jpg,AMSA14.jpg,AMNE14.jpg,MN,1,num_8,32,num_4,0.66676780628,,,2017_Apr_26_1350,60.0076409659,FEMA4ImagesEEG,001,100243,
AFNE23.JPG,AFNE24.JPG,AFNE22.JPG,AFSA24.JPG,AFSA22.JPG,AFSA23.JPG,,,,,,,,,,,,,0,5,5,8,,,,,,,,,,,AMNE10.jpg,AMSA13.jpg,AMSA14.jpg,AMNE17.jpg,AMNE10.jpg,MN,1,num_8,32,num_2,1.11673170724,,,2017_Apr_26_1350,60.0076409659,FEMA4ImagesEEG,001,100243,
AMSA21.JPG,AMNE23.JPG,AMNE21.JPG,AMSA25.JPG,AMNE25.JPG,AMSA23.JPG,,,,,,,,,,,,,0,6,6,5,,,,,,,,,,,AMSA12.jpg,AMNE08.jpg,AMNE13.jpg,AMSA16.jpg,AMNE08.jpg,MN,1,num_6,32,num_8,1.58338141744,,,2017_Apr_26_1350,60.0076409659,FEMA4ImagesEEG,001,100243,
AFNE22.JPG,AFSA24.JPG,AFSA22.JPG,AFNE25.JPG,AFNE24.JPG,AFSA25.JPG,,,,,,,,,,,,,0,7,7,6,,,,,,,,,,,AMNE01.jpg,AMSA03.jpg,AMNE13.jpg,AMSA06.jpg,AMSA03.jpg,MS,2,num_6,32,num_4,2.13340436632,,,2017_Apr_26_1350,60.0076409659,FEMA4ImagesEEG,001,100243,
AMNE22.JPG,AMSA24.JPG,AMSA22.JPG,AMNE25.JPG,AMNE24.JPG,AMSA25.JPG,,,,,,,,,,,,,0,8,8,7,,,,,,,,,,,AMSA06.jpg,AMSA10.jpg,AMNE13.jpg,AMNE04.jpg,AMSA10.jpg,MS,2,num_6,16,num_6,0.683476709062,,,2017_Apr_26_1350,60.0076409659,FEMA4ImagesEEG,001,100243,
AMSA25.JPG,AMNE24.JPG,AMSA24.JPG,AMNE26.JPG,AMSA21.JPG,AMNE25.JPG,,,,,,,,,,,,,0,9,9,3,,,,,,,,,,,AMNE04.jpg,AMNE17.jpg,AMSA17.jpg,AMSA09.jpg,AMNE17.jpg,MN,1,num_6,32,num_8,0.716758521041,,,2017_Apr_26_1350,60.0076409659,FEMA4ImagesEEG,001,100243,
AFSA21.JPG,AFNE23.JPG,AFNE21.JPG,AFSA25.JPG,AFNE25.JPG,AFSA23.JPG,,,,,,,,,,,,,,,,,0,0,0,4,,,,,,,AFNE18.jpg,AFNE08.jpg,AFSA15.jpg,AFSA11.jpg,AFSA11.jpg,FS,4,num_4,32,num_2,1.83334557491,,,2017_Apr_26_1350,60.0076409659,FEMA4ImagesEEG,001,100243,
AFSA21.JPG,AFNE22.JPG,AFNE21.JPG,AFSA23.JPG,AFSA22.JPG,AFNE23.JPG,,,,,,,,,,,,,,,,,0,1,1,0,,,,,,,AFSA09.jpg,AFSA05.jpg,AFNE13.jpg,AFNE15.jpg,AFNE15.jpg,FN,3,num_4,16,num_4,0.76676238596,,,2017_Apr_26_1350,60.0076409659,FEMA4ImagesEEG,001,100243,
AFSA25.JPG,AFNE24.JPG,AFSA24.JPG,AFNE21.JPG,AFSA21.JPG,AFNE25.JPG,,,,,,,,,,,,,,,,,0,2,2,2,,,,,,,AFNE09.jpg,AFNE13.jpg,AFSA18.jpg,AFSA09.jpg,AFNE13.jpg,FN,3,num_6,32,num_8,1.50011017395,,,2017_Apr_26_1350,60.0076409659,FEMA4ImagesEEG,001,100243,
AMSA21.JPG,AMNE22.JPG,AMNE21.JPG,AMSA23.JPG,AMSA22.JPG,AMNE23.JPG,,,,,,,,,,,,,,,,,0,3,3,1,,,,,,,AFNE13.jpg,AFSA01.jpg,AFSA04.jpg,AFNE09.jpg,AFNE13.jpg,FN,3,num_8,32,num_4,1.2334188316,,,2017_Apr_26_1350,60.0076409659,FEMA4ImagesEEG,001,100243,
AMNE22.JPG,AMSA24.JPG,AMSA22.JPG,AMNE25.JPG,AMNE24.JPG,AMSA25.JPG,,,,,,,,,,,,,,,,,0,4,4,7,,,,,,,AFNE04.jpg,AFSA03.jpg,AFSA17.jpg,AFNE06.jpg,AFNE04.jpg,FN,3,num_8,16,num_8,0.649988341145,,,2017_Apr_26_1350,60.0076409659,FEMA4ImagesEEG,001,100243,
AFNE23.JPG,AFNE24.JPG,AFNE22.JPG,AFSA24.JPG,AFSA22.JPG,AFSA23.JPG,,,,,,,,,,,,,,,,,0,5,5,8,,,,,,,AFNE11.jpg,AFNE09.jpg,AFSA09.jpg,AFSA16.jpg,AFSA09.jpg,FS,4,num_2,32,num_8,0.833434098749,,,2017_Apr_26_1350,60.0076409659,FEMA4ImagesEEG,001,100243,
AFNE22.JPG,AFSA24.JPG,AFSA22.JPG,AFNE25.JPG,AFNE24.JPG,AFSA25.JPG,,,,,,,,,,,,,,,,,0,6,6,6,,,,,,,AFSA11.jpg,AFNE04.jpg,AFSA08.jpg,AFNE12.jpg,AFSA11.jpg,FS,4,num_8,32,num_2,0.933442149428,,,2017_Apr_26_1350,60.0076409659,FEMA4ImagesEEG,001,100243,
AMSA21.JPG,AMNE23.JPG,AMNE21.JPG,AMSA25.JPG,AMNE25.JPG,AMSA23.JPG,,,,,,,,,,,,,,,,,0,7,7,5,,,,,,,AFSA05.jpg,AFSA01.jpg,AFNE14.jpg,AFNE20.jpg,AFNE14.jpg,FN,3,num_2,32,num_4,1.41672218125,,,2017_Apr_26_1350,60.0076409659,FEMA4ImagesEEG,001,100243,
AMSA25.JPG,AMNE24.JPG,AMSA24.JPG,AMNE26.JPG,AMSA21.JPG,AMNE25.JPG,,,,,,,,,,,,,,,,,0,8,8,3,,,,,,,AFNE13.jpg,AFSA16.jpg,AFSA01.jpg,AFNE19.jpg,AFSA16.jpg,FS,4,num_6,32,num_2,1.28345733637,,,2017_Apr_26_1350,60.0076409659,FEMA4ImagesEEG,001,100243,
AMNE23.JPG,AMNE24.JPG,AMNE22.JPG,AMSA24.JPG,AMSA22.JPG,AMSA23.JPG,,,,,,,,,,,,,,,,,0,9,9,9,,,,,,,AFNE17.jpg,AFSA01.jpg,AFNE02.jpg,AFSA20.jpg,AFSA01.jpg,FS,4,num_6,16,num_6,1.21672211715,,,2017_Apr_26_1350,60.0076409659,FEMA4ImagesEEG,001,100243,
AFSA21.JPG,AFNE22.JPG,AFNE21.JPG,AFSA23.JPG,AFSA22.JPG,AFNE23.JPG,,,,,,,,,,,,,,,,,,,,,0,0,0,0,,,AMSA20.jpg,AMSA01.jpg,AMNE10.jpg,AMNE06.jpg,AMSA01.jpg,MS,2,num_6,16,num_6,0.650113750133,,,2017_Apr_26_1350,60.0076409659,FEMA4ImagesEEG,001,100243,
AMNE23.JPG,AMNE24.JPG,AMNE22.JPG,AMSA24.JPG,AMSA22.JPG,AMSA23.JPG,,,,,,,,,,,,,,,,,,,,,0,1,1,9,,,AMSA13.jpg,AMNE20.jpg,AMSA04.jpg,AMNE11.jpg,AMNE11.jpg,MN,1,num_4,32,num_8,0.966839427361,,,2017_Apr_26_1350,60.0076409659,FEMA4ImagesEEG,001,100243,
AMSA25.JPG,AMNE24.JPG,AMSA24.JPG,AMNE26.JPG,AMSA21.JPG,AMNE25.JPG,,,,,,,,,,,,,,,,,,,,,0,2,2,3,,,AMNE02.jpg,AMNE04.jpg,AMSA13.jpg,AMSA04.jpg,AMNE04.jpg,MN,1,num_6,32,num_4,0.833452380961,,,2017_Apr_26_1350,60.0076409659,FEMA4ImagesEEG,001,100243,
AFSA25.JPG,AFNE24.JPG,AFSA24.JPG,AFNE21.JPG,AFSA21.JPG,AFNE25.JPG,,,,,,,,,,,,,,,,,,,,,0,3,3,2,,,AMSA03.jpg,AMSA19.jpg,AMNE08.jpg,AMNE17.jpg,AMNE08.jpg,MN,1,num_2,16,num_2,0.650106693851,,,2017_Apr_26_1350,60.0076409659,FEMA4ImagesEEG,001,100243,
AMNE22.JPG,AMSA24.JPG,AMSA22.JPG,AMNE25.JPG,AMNE24.JPG,AMSA25.JPG,,,,,,,,,,,,,,,,,,,,,0,4,4,7,,,AMNE06.jpg,AMSA19.jpg,AMNE18.jpg,AMSA09.jpg,AMNE18.jpg,MN,1,num_2,16,num_2,2.23344641528,,,2017_Apr_26_1350,60.0076409659,FEMA4ImagesEEG,001,100243,
AMSA21.JPG,AMNE22.JPG,AMNE21.JPG,AMSA23.JPG,AMSA22.JPG,AMNE23.JPG,,,,,,,,,,,,,,,,,,,,,0,5,5,1,,,AMNE06.jpg,AMNE02.jpg,AMSA10.jpg,AMSA05.jpg,AMSA10.jpg,MS,2,num_2,32,num_4,1.36675391847,,,2017_Apr_26_1350,60.0076409659,FEMA4ImagesEEG,001,100243,
AFNE23.JPG,AFNE24.JPG,AFNE22.JPG,AFSA24.JPG,AFSA22.JPG,AFSA23.JPG,,,,,,,,,,,,,,,,,,,,,0,6,6,8,,,AMSA06.jpg,AMSA07.jpg,AMNE07.jpg,AMNE10.jpg,AMNE10.jpg,MN,1,num_4,32,num_6,1.38341823826,,,2017_Apr_26_1350,60.0076409659,FEMA4ImagesEEG,001,100243,
AFSA21.JPG,AFNE23.JPG,AFNE21.JPG,AFSA25.JPG,AFNE25.JPG,AFSA23.JPG,,,,,,,,,,,,,,,,,,,,,0,7,7,4,,,AMNE12.jpg,AMSA15.jpg,AMSA04.jpg,AMNE08.jpg,AMNE12.jpg,MN,1,num_8,16,num_8,1.7000634101,,,2017_Apr_26_1350,60.0076409659,FEMA4ImagesEEG,001,100243,
AMSA21.JPG,AMNE23.JPG,AMNE21.JPG,AMSA25.JPG,AMNE25.JPG,AMSA23.JPG,,,,,,,,,,,,,,,,,,,,,0,8,8,5,,,AMSA14.jpg,AMNE14.jpg,AMSA01.jpg,AMNE12.jpg,AMNE12.jpg,MN,1,num_4,16,num_4,1.0334322385,,,2017_Apr_26_1350,60.0076409659,FEMA4ImagesEEG,001,100243,
AFNE22.JPG,AFSA24.JPG,AFSA22.JPG,AFNE25.JPG,AFNE24.JPG,AFSA25.JPG,,,,,,,,,,,,,,,,,,,,,0,9,9,6,,,AMSA13.jpg,AMNE17.jpg,AMSA05.jpg,AMNE16.jpg,AMNE16.jpg,MN,1,num_4,16,num_4,1.6335187098,,,2017_Apr_26_1350,60.0076409659,FEMA4ImagesEEG,001,100243,
,,,,,,,,,,,,,,,,,,,,,,,,,,,,,,,,,,,,,,,,,,,space,7.34958828322,2017_Apr_26_1350,60.0076409659,FEMA4ImagesEEG,001,100243,
AFNE01.JPG,AFNE01.JPG,AFNE01.JPG,AFNE01.JPG,AFNE01.JPG,AFNE01.JPG,0,0,0,0,,,,,,,,,,,,,,,,,,,,,,,AFSA20.jpg,AFSA15.jpg,AFNE08.jpg,AFNE19.jpg,AFNE08.jpg,FN,3,num_2,32,num_6,1.13337902795,,,2017_Apr_26_1350,60.0076409659,FEMA4ImagesEEG,001,100243,
AFNE01.JPG,AFNE01.JPG,AFNE01.JPG,AFNE01.JPG,AFNE01.JPG,AFNE01.JPG,0,1,1,3,,,,,,,,,,,,,,,,,,,,,,,AFSA04.jpg,AFSA18.jpg,AFNE11.jpg,AFNE09.jpg,AFSA18.jpg,FS,4,num_6,32,num_4,1.35006393935,,,2017_Apr_26_1350,60.0076409659,FEMA4ImagesEEG,001,100243,
AFNE01.JPG,AFNE01.JPG,AFNE01.JPG,AFNE01.JPG,AFNE01.JPG,AFNE01.JPG,0,2,2,1,,,,,,,,,,,,,,,,,,,,,,,AFNE10.jpg,AFSA08.jpg,AFNE05.jpg,AFSA04.jpg,AFSA08.jpg,FS,4,num_6,16,num_6,1.0002219514,,,2017_Apr_26_1350,60.0076409659,FEMA4ImagesEEG,001,100243,
AFNE01.JPG,AFNE01.JPG,AFNE01.JPG,AFNE01.JPG,AFNE01.JPG,AFNE01.JPG,0,3,3,6,,,,,,,,,,,,,,,,,,,,,,,AFNE17.jpg,AFNE06.jpg,AFSA16.jpg,AFSA18.jpg,AFSA18.jpg,FS,4,num_4,16,num_4,0.616751432652,,,2017_Apr_26_1350,60.0076409659,FEMA4ImagesEEG,001,100243,
AFNE01.JPG,AFNE01.JPG,AFNE01.JPG,AFNE01.JPG,AFNE01.JPG,AFNE01.JPG,0,4,4,4,,,,,,,,,,,,,,,,,,,,,,,AFNE11.jpg,AFSA10.jpg,AFSA04.jpg,AFNE16.jpg,AFSA10.jpg,FS,4,num_6,32,num_8,1.86671430711,,,2017_Apr_26_1350,60.0076409659,FEMA4ImagesEEG,001,100243,
AFNE01.JPG,AFNE01.JPG,AFNE01.JPG,AFNE01.JPG,AFNE01.JPG,AFNE01.JPG,0,5,5,2,,,,,,,,,,,,,,,,,,,,,,,AFSA14.jpg,AFSA09.jpg,AFNE17.jpg,AFNE14.jpg,AFNE14.jpg,FN,3,num_4,32,num_8,0.900094265235,,,2017_Apr_26_1350,60.0076409659,FEMA4ImagesEEG,001,100243,
AFNE01.JPG,AFNE01.JPG,AFNE01.JPG,AFNE01.JPG,AFNE01.JPG,AFNE01.JPG,0,6,6,9,,,,,,,,,,,,,,,,,,,,,,,AFSA12.jpg,AFNE03.jpg,AFNE04.jpg,AFSA17.jpg,AFNE04.jpg,FN,3,num_2,16,num_2,0.633433393203,,,2017_Apr_26_1350,60.0076409659,FEMA4ImagesEEG,001,100243,
AFNE01.JPG,AFNE01.JPG,AFNE01.JPG,AFNE01.JPG,AFNE01.JPG,AFNE01.JPG,0,7,7,8,,,,,,,,,,,,,,,,,,,,,,,AFSA16.jpg,AFSA14.jpg,AFNE12.jpg,AFNE03.jpg,AFNE03.jpg,FN,3,num_4,32,num_6,0.866729061119,,,2017_Apr_26_1350,60.0076409659,FEMA4ImagesEEG,001,100243,
AFNE01.JPG,AFNE01.JPG,AFNE01.JPG,AFNE01.JPG,AFNE01.JPG,AFNE01.JPG,0,8,8,5,,,,,,,,,,,,,,,,,,,,,,,AFNE17.jpg,AFSA20.jpg,AFSA11.jpg,AFNE14.jpg,AFNE14.jpg,FN,3,num_4,16,num_4,0.683483444504,,,2017_Apr_26_1350,60.0076409659,FEMA4ImagesEEG,001,100243,
AFNE01.JPG,AFNE01.JPG,AFNE01.JPG,AFNE01.JPG,AFNE01.JPG,AFNE01.JPG,0,9,9,7,,,,,,,,,,,,,,,,,,,,,,,AFNE05.jpg,AFSA10.jpg,AFNE12.jpg,AFSA15.jpg,AFSA10.jpg,FS,4,num_6,32,num_2,2.20003374177,,,2017_Apr_26_1350,60.0076409659,FEMA4ImagesEEG,001,100243,
AFNE01.JPG,AFNE01.JPG,AFNE01.JPG,AFNE01.JPG,AFNE01.JPG,AFNE01.JPG,1,0,10,0,,,,,,,,,,,,,,,,,,,,,,,AFNE20.jpg,AFNE11.jpg,AFSA09.jpg,AFSA03.jpg,AFSA09.jpg,FS,4,num_2,32,num_6,1.46642390999,,,2017_Apr_26_1350,60.0076409659,FEMA4ImagesEEG,001,100243,
AFNE01.JPG,AFNE01.JPG,AFNE01.JPG,AFNE01.JPG,AFNE01.JPG,AFNE01.JPG,1,1,11,5,,,,,,,,,,,,,,,,,,,,,,,AFSA17.jpg,AFNE11.jpg,AFSA01.jpg,AFNE12.jpg,AFNE11.jpg,FN,3,num_6,32,num_2,1.08346208336,,,2017_Apr_26_1350,60.0076409659,FEMA4ImagesEEG,001,100243,
AFNE01.JPG,AFNE01.JPG,AFNE01.JPG,AFNE01.JPG,AFNE01.JPG,AFNE01.JPG,1,2,12,3,,,,,,,,,,,,,,,,,,,,,,,AFSA07.jpg,AFNE04.jpg,AFNE19.jpg,AFSA05.jpg,AFSA07.jpg,FS,4,num_8,16,num_8,0.716756596463,,,2017_Apr_26_1350,60.0076409659,FEMA4ImagesEEG,001,100243,
AFNE01.JPG,AFNE01.JPG,AFNE01.JPG,AFNE01.JPG,AFNE01.JPG,AFNE01.JPG,1,3,13,6,,,,,,,,,,,,,,,,,,,,,,,AFNE18.jpg,AFSA15.jpg,AFNE10.jpg,AFSA02.jpg,AFNE10.jpg,FN,3,num_2,32,num_6,1.03341844678,,,2017_Apr_26_1350,60.0076409659,FEMA4ImagesEEG,001,100243,
AFNE01.JPG,AFNE01.JPG,AFNE01.JPG,AFNE01.JPG,AFNE01.JPG,AFNE01.JPG,1,4,14,7,,,,,,,,,,,,,,,,,,,,,,,AFSA05.jpg,AFNE15.jpg,AFSA02.jpg,AFNE01.jpg,AFSA02.jpg,FS,4,num_2,32,num_4,1.8499829527,,,2017_Apr_26_1350,60.0076409659,FEMA4ImagesEEG,001,100243,
AFNE01.JPG,AFNE01.JPG,AFNE01.JPG,AFNE01.JPG,AFNE01.JPG,AFNE01.JPG,1,5,15,2,,,,,,,,,,,,,,,,,,,,,,,AFSA09.jpg,AFSA08.jpg,AFNE07.jpg,AFNE05.jpg,AFNE07.jpg,FN,3,num_2,32,num_8,0.766747631948,,,2017_Apr_26_1350,60.0076409659,FEMA4ImagesEEG,001,100243,
AFNE01.JPG,AFNE01.JPG,AFNE01.JPG,AFNE01.JPG,AFNE01.JPG,AFNE01.JPG,1,6,16,9,,,,,,,,,,,,,,,,,,,,,,,AFNE02.jpg,AFSA02.jpg,AFNE06.jpg,AFSA20.jpg,AFSA20.jpg,FS,4,num_4,32,num_6,1.26673335908,,,2017_Apr_26_1350,60.0076409659,FEMA4ImagesEEG,001,100243,
AFNE01.JPG,AFNE01.JPG,AFNE01.JPG,AFNE01.JPG,AFNE01.JPG,AFNE01.JPG,1,7,17,8,,,,,,,,,,,,,,,,,,,,,,,AFNE11.jpg,AFSA11.jpg,AFSA17.jpg,AFNE08.jpg,AFNE08.jpg,FN,3,num_4,16,num_4,0.650135881151,,,2017_Apr_26_1350,60.0076409659,FEMA4ImagesEEG,001,100243,
AFNE01.JPG,AFNE01.JPG,AFNE01.JPG,AFNE01.JPG,AFNE01.JPG,AFNE01.JPG,1,8,18,4,,,,,,,,,,,,,,,,,,,,,,,AFNE16.jpg,AFSA07.jpg,AFSA18.jpg,AFNE19.jpg,AFSA18.jpg,FS,4,num_2,32,num_4,1.26670577552,,,2017_Apr_26_1350,60.0076409659,FEMA4ImagesEEG,001,100243,
AFNE01.JPG,AFNE01.JPG,AFNE01.JPG,AFNE01.JPG,AFNE01.JPG,AFNE01.JPG,1,9,19,1,,,,,,,,,,,,,,,,,,,,,,,AFSA18.jpg,AFNE04.jpg,AFSA13.jpg,AFNE07.jpg,AFSA13.jpg,FS,4,num_2,16,num_2,2.08349640237,,,2017_Apr_26_1350,60.0076409659,FEMA4ImagesEEG,001,100243,
AFNE01.JPG,AFNE01.JPG,AFNE01.JPG,AFNE01.JPG,AFNE01.JPG,AFNE01.JPG,2,0,20,2,,,,,,,,,,,,,,,,,,,,,,,AFNE18.jpg,AFSA14.jpg,AFSA05.jpg,AFNE07.jpg,AFSA14.jpg,FS,4,num_6,32,num_2,0.833402987104,,,2017_Apr_26_1350,60.0076409659,FEMA4ImagesEEG,001,100243,
AFNE01.JPG,AFNE01.JPG,AFNE01.JPG,AFNE01.JPG,AFNE01.JPG,AFNE01.JPG,2,1,21,3,,,,,,,,,,,,,,,,,,,,,,,AFNE05.jpg,AFSA10.jpg,AFNE11.jpg,AFSA01.jpg,AFNE11.jpg,FN,3,num_2,32,num_4,1.9833478682,,,2017_Apr_26_1350,60.0076409659,FEMA4ImagesEEG,001,100243,
AFNE01.JPG,AFNE01.JPG,AFNE01.JPG,AFNE01.JPG,AFNE01.JPG,AFNE01.JPG,2,2,22,9,,,,,,,,,,,,,,,,,,,,,,,AFSA05.jpg,AFNE04.jpg,AFSA10.jpg,AFNE09.jpg,AFSA05.jpg,FS,4,num_8,16,num_8,0.450188418152,,,2017_Apr_26_1350,60.0076409659,FEMA4ImagesEEG,001,100243,
AFNE01.JPG,AFNE01.JPG,AFNE01.JPG,AFNE01.JPG,AFNE01.JPG,AFNE01.JPG,2,3,23,7,,,,,,,,,,,,,,,,,,,,,,,AFSA14.jpg,AFSA17.jpg,AFNE13.jpg,AFNE14.jpg,AFNE14.jpg,FN,3,num_4,32,num_6,1.1500609885,,,2017_Apr_26_1350,60.0076409659,FEMA4ImagesEEG,001,100243,
AFNE01.JPG,AFNE01.JPG,AFNE01.JPG,AFNE01.JPG,AFNE01.JPG,AFNE01.JPG,2,4,24,1,,,,,,,,,,,,,,,,,,,,,,,AFSA03.jpg,AFNE15.jpg,AFSA19.jpg,AFNE20.jpg,AFSA03.jpg,FS,4,num_8,16,num_8,1.03339952312,,,2017_Apr_26_1350,60.0076409659,FEMA4ImagesEEG,001,100243,
AFNE01.JPG,AFNE01.JPG,AFNE01.JPG,AFNE01.JPG,AFNE01.JPG,AFNE01.JPG,2,5,25,5,,,,,,,,,,,,,,,,,,,,,,,AFSA18.jpg,AFSA12.jpg,AFNE15.jpg,AFNE16.jpg,AFSA18.jpg,FS,4,num_8,32,num_2,1.96669894375,,,2017_Apr_26_1350,60.0076409659,FEMA4ImagesEEG,001,100243,
AFNE01.JPG,AFNE01.JPG,AFNE01.JPG,AFNE01.JPG,AFNE01.JPG,AFNE01.JPG,2,6,26,8,,,,,,,,,,,,,,,,,,,,,,,AFSA05.jpg,AFSA02.jpg,AFNE06.jpg,AFNE09.jpg,AFNE06.jpg,FN,3,num_2,32,num_4,2.88327310386,,,2017_Apr_26_1350,60.0076409659,FEMA4ImagesEEG,001,100243,
AFNE01.JPG,AFNE01.JPG,AFNE01.JPG,AFNE01.JPG,AFNE01.JPG,AFNE01.JPG,2,7,27,6,,,,,,,,,,,,,,,,,,,,,,,AFNE10.jpg,AFSA20.jpg,AFSA04.jpg,AFNE07.jpg,AFNE10.jpg,FN,3,num_8,16,num_8,1.63322747883,,,2017_Apr_26_1350,60.0076409659,FEMA4ImagesEEG,001,100243,
AFNE01.JPG,AFNE01.JPG,AFNE01.JPG,AFNE01.JPG,AFNE01.JPG,AFNE01.JPG,2,8,28,0,,,,,,,,,,,,,,,,,,,,,,,AFSA14.jpg,AFNE09.jpg,AFSA02.jpg,AFNE11.jpg,AFNE11.jpg,FN,3,num_4,32,num_2,1.21673655033,,,2017_Apr_26_1350,60.0076409659,FEMA4ImagesEEG,001,100243,
AFNE01.JPG,AFNE01.JPG,AFNE01.JPG,AFNE01.JPG,AFNE01.JPG,AFNE01.JPG,2,9,29,4,,,,,,,,,,,,,,,,,,,,,,,AFNE16.jpg,AFSA02.jpg,AFSA05.jpg,AFNE18.jpg,AFNE16.jpg,FN,3,num_8,32,num_6,1.966661738,,,2017_Apr_26_1350,60.0076409659,FEMA4ImagesEEG,001,100243,
AFNE01.JPG,AFNE01.JPG,AFNE01.JPG,AFNE01.JPG,AFNE01.JPG,AFNE01.JPG,3,0,30,0,,,,,,,,,,,,,,,,,,,,,,,AFSA13.jpg,AFNE06.jpg,AFSA15.jpg,AFNE11.jpg,AFNE06.jpg,FN,3,num_6,16,num_6,1.71670720272,,,2017_Apr_26_1350,60.0076409659,FEMA4ImagesEEG,001,100243,
AFNE01.JPG,AFNE01.JPG,AFNE01.JPG,AFNE01.JPG,AFNE01.JPG,AFNE01.JPG,3,1,31,4,,,,,,,,,,,,,,,,,,,,,,,AFSA07.jpg,AFNE05.jpg,AFNE07.jpg,AFSA12.jpg,AFSA07.jpg,FS,4,num_8,32,num_2,1.61668985081,,,2017_Apr_26_1350,60.0076409659,FEMA4ImagesEEG,001,100243,
AFNE01.JPG,AFNE01.JPG,AFNE01.JPG,AFNE01.JPG,AFNE01.JPG,AFNE01.JPG,3,2,32,1,,,,,,,,,,,,,,,,,,,,,,,AFNE02.jpg,AFSA06.jpg,AFNE17.jpg,AFSA14.jpg,AFNE17.jpg,FN,3,num_2,16,num_2,2.84996370843,,,2017_Apr_26_1350,60.0076409659,FEMA4ImagesEEG,001,100243,
AFNE01.JPG,AFNE01.JPG,AFNE01.JPG,AFNE01.JPG,AFNE01.JPG,AFNE01.JPG,3,3,33,3,,,,,,,,,,,,,,,,,,,,,,,AFSA13.jpg,AFNE12.jpg,AFNE13.jpg,AFSA15.jpg,AFNE12.jpg,FN,3,num_6,32,num_8,0.916743510403,,,2017_Apr_26_1350,60.0076409659,FEMA4ImagesEEG,001,100243,
AFNE01.JPG,AFNE01.JPG,AFNE01.JPG,AFNE01.JPG,AFNE01.JPG,AFNE01.JPG,3,4,34,2,,,,,,,,,,,,,,,,,,,,,,,AFNE10.jpg,AFSA18.jpg,AFNE08.jpg,AFSA05.jpg,AFSA05.jpg,FS,4,num_4,32,num_2,1.6833907509,,,2017_Apr_26_1350,60.0076409659,FEMA4ImagesEEG,001,100243,
AFNE01.JPG,AFNE01.JPG,AFNE01.JPG,AFNE01.JPG,AFNE01.JPG,AFNE01.JPG,3,5,35,9,,,,,,,,,,,,,,,,,,,,,,,AFSA14.jpg,AFNE04.jpg,AFNE12.jpg,AFSA19.jpg,AFNE12.jpg,FN,3,num_2,16,num_2,0.683446238865,,,2017_Apr_26_1350,60.0076409659,FEMA4ImagesEEG,001,100243,
AFNE01.JPG,AFNE01.JPG,AFNE01.JPG,AFNE01.JPG,AFNE01.JPG,AFNE01.JPG,3,6,36,6,,,,,,,,,,,,,,,,,,,,,,,AFNE10.jpg,AFNE01.jpg,AFSA02.jpg,AFSA04.jpg,AFSA02.jpg,FS,4,num_2,32,num_4,1.10012063,,,2017_Apr_26_1350,60.0076409659,FEMA4ImagesEEG,001,100243,
AFNE01.JPG,AFNE01.JPG,AFNE01.JPG,AFNE01.JPG,AFNE01.JPG,AFNE01.JPG,3,7,37,5,,,,,,,,,,,,,,,,,,,,,,,AFSA16.jpg,AFSA04.jpg,AFNE04.jpg,AFNE14.jpg,AFSA16.jpg,FS,4,num_8,16,num_8,1.05008148379,,,2017_Apr_26_1350,60.0076409659,FEMA4ImagesEEG,001,100243,
AFNE01.JPG,AFNE01.JPG,AFNE01.JPG,AFNE01.JPG,AFNE01.JPG,AFNE01.JPG,3,8,38,7,,,,,,,,,,,,,,,,,,,,,,,AFNE02.jpg,AFSA14.jpg,AFSA03.jpg,AFNE03.jpg,AFNE02.jpg,FN,3,num_8,16,num_8,1.46671963145,,,2017_Apr_26_1350,60.0076409659,FEMA4ImagesEEG,001,100243,
AFNE01.JPG,AFNE01.JPG,AFNE01.JPG,AFNE01.JPG,AFNE01.JPG,AFNE01.JPG,3,9,39,8,,,,,,,,,,,,,,,,,,,,,,,AFSA01.jpg,AFSA05.jpg,AFNE10.jpg,AFNE03.jpg,AFSA01.jpg,FS,4,num_8,32,num_4,1.76668540854,,,2017_Apr_26_1350,60.0076409659,FEMA4ImagesEEG,001,100243,
AFNE01.JPG,AFNE01.JPG,AFNE01.JPG,AFNE01.JPG,AFNE01.JPG,AFNE01.JPG,4,0,40,5,,,,,,,,,,,,,,,,,,,,,,,AFNE02.jpg,AFSA07.jpg,AFNE04.jpg,AFSA13.jpg,AFSA13.jpg,FS,4,num_4,32,num_8,1.03340625868,,,2017_Apr_26_1350,60.0076409659,FEMA4ImagesEEG,001,100243,
AFNE01.JPG,AFNE01.JPG,AFNE01.JPG,AFNE01.JPG,AFNE01.JPG,AFNE01.JPG,4,1,41,1,,,,,,,,,,,,,,,,,,,,,,,AFNE18.jpg,AFSA14.jpg,AFNE03.jpg,AFSA13.jpg,AFSA13.jpg,FS,4,num_4,32,num_8,1.16677374009,,,2017_Apr_26_1350,60.0076409659,FEMA4ImagesEEG,001,100243,
AFNE01.JPG,AFNE01.JPG,AFNE01.JPG,AFNE01.JPG,AFNE01.JPG,AFNE01.JPG,4,2,42,3,,,,,,,,,,,,,,,,,,,,,,,AFNE07.jpg,AFSA04.jpg,AFSA16.jpg,AFNE10.jpg,AFNE07.jpg,FN,3,num_8,32,num_6,0.850175716914,,,2017_Apr_26_1350,60.0076409659,FEMA4ImagesEEG,001,100243,
AFNE01.JPG,AFNE01.JPG,AFNE01.JPG,AFNE01.JPG,AFNE01.JPG,AFNE01.JPG,4,3,43,8,,,,,,,,,,,,,,,,,,,,,,,AFSA02.jpg,AFSA15.jpg,AFNE13.jpg,AFNE10.jpg,AFNE10.jpg,FN,3,num_4,16,num_4,0.933471016004,,,2017_Apr_26_1350,60.0076409659,FEMA4ImagesEEG,001,100243,
AFNE01.JPG,AFNE01.JPG,AFNE01.JPG,AFNE01.JPG,AFNE01.JPG,AFNE01.JPG,4,4,44,2,,,,,,,,,,,,,,,,,,,,,,,AFSA14.jpg,AFSA17.jpg,AFNE14.jpg,AFNE15.jpg,AFSA17.jpg,FS,4,num_6,32,num_8,1.18342555116,,,2017_Apr_26_1350,60.0076409659,FEMA4ImagesEEG,001,100243,
AFNE01.JPG,AFNE01.JPG,AFNE01.JPG,AFNE01.JPG,AFNE01.JPG,AFNE01.JPG,4,5,45,6,,,,,,,,,,,,,,,,,,,,,,,AFNE01.jpg,AFNE13.jpg,AFSA09.jpg,AFSA07.jpg,AFNE13.jpg,FN,3,num_6,32,num_2,1.60000211687,,,2017_Apr_26_1350,60.0076409659,FEMA4ImagesEEG,001,100243,
AFNE01.JPG,AFNE01.JPG,AFNE01.JPG,AFNE01.JPG,AFNE01.JPG,AFNE01.JPG,4,6,46,9,,,,,,,,,,,,,,,,,,,,,,,AFSA17.jpg,AFSA05.jpg,AFNE08.jpg,AFNE20.jpg,AFNE20.jpg,FN,3,num_4,32,num_6,1.05031626485,,,2017_Apr_26_1350,60.0076409659,FEMA4ImagesEEG,001,100243,
AFNE01.JPG,AFNE01.JPG,AFNE01.JPG,AFNE01.JPG,AFNE01.JPG,AFNE01.JPG,4,7,47,0,,,,,,,,,,,,,,,,,,,,,,,AFSA08.jpg,AFNE19.jpg,AFSA09.jpg,AFNE16.jpg,AFSA08.jpg,FS,4,num_8,16,num_8,1.31674524234,,,2017_Apr_26_1350,60.0076409659,FEMA4ImagesEEG,001,100243,
AFNE01.JPG,AFNE01.JPG,AFNE01.JPG,AFNE01.JPG,AFNE01.JPG,AFNE01.JPG,4,8,48,4,,,,,,,,,,,,,,,,,,,,,,,AFSA18.jpg,AFNE16.jpg,AFNE09.jpg,AFSA05.jpg,AFNE16.jpg,FN,3,num_6,16,num_6,1.38338071189,,,2017_Apr_26_1350,60.0076409659,FEMA4ImagesEEG,001,100243,
AFNE01.JPG,AFNE01.JPG,AFNE01.JPG,AFNE01.JPG,AFNE01.JPG,AFNE01.JPG,4,9,49,7,,,,,,,,,,,,,,,,,,,,,,,AFSA19.jpg,AFSA13.jpg,AFNE04.jpg,AFNE18.jpg,AFNE04.jpg,FN,3,num_2,16,num_2,2.69995179295,,,2017_Apr_26_1350,60.0076409659,FEMA4ImagesEEG,001,100243,
AFNE01.JPG,AFNE01.JPG,AFNE01.JPG,AFNE01.JPG,AFNE01.JPG,AFNE01.JPG,5,0,50,4,,,,,,,,,,,,,,,,,,,,,,,AFSA12.jpg,AFNE12.jpg,AFNE02.jpg,AFSA05.jpg,AFNE02.jpg,FN,3,num_2,32,num_6,1.20008441852,,,2017_Apr_26_1350,60.0076409659,FEMA4ImagesEEG,001,100243,
AFNE01.JPG,AFNE01.JPG,AFNE01.JPG,AFNE01.JPG,AFNE01.JPG,AFNE01.JPG,5,1,51,2,,,,,,,,,,,,,,,,,,,,,,,AFNE11.jpg,AFSA07.jpg,AFNE05.jpg,AFSA08.jpg,AFNE05.jpg,FN,3,num_2,32,num_8,1.76674282074,,,2017_Apr_26_1350,60.0076409659,FEMA4ImagesEEG,001,100243,
AFNE01.JPG,AFNE01.JPG,AFNE01.JPG,AFNE01.JPG,AFNE01.JPG,AFNE01.JPG,5,2,52,5,,,,,,,,,,,,,,,,,,,,,,,AFSA07.jpg,AFNE02.jpg,AFNE16.jpg,AFSA06.jpg,AFNE16.jpg,FN,3,num_2,32,num_6,1.46668210486,,,2017_Apr_26_1350,60.0076409659,FEMA4ImagesEEG,001,100243,
AFNE01.JPG,AFNE01.JPG,AFNE01.JPG,AFNE01.JPG,AFNE01.JPG,AFNE01.JPG,5,3,53,8,,,,,,,,,,,,,,,,,,,,,,,AFNE05.jpg,AFSA15.jpg,AFSA17.jpg,AFNE18.jpg,AFNE05.jpg,FN,3,num_8,32,num_6,1.5167834746,,,2017_Apr_26_1350,60.0076409659,FEMA4ImagesEEG,001,100243,
AFNE01.JPG,AFNE01.JPG,AFNE01.JPG,AFNE01.JPG,AFNE01.JPG,AFNE01.JPG,5,4,54,3,,,,,,,,,,,,,,,,,,,,,,,AFNE06.jpg,AFNE07.jpg,AFSA05.jpg,AFSA06.jpg,AFSA05.jpg,FS,4,num_2,32,num_4,1.46672925353,,,2017_Apr_26_1350,60.0076409659,FEMA4ImagesEEG,001,100243,
AFNE01.JPG,AFNE01.JPG,AFNE01.JPG,AFNE01.JPG,AFNE01.JPG,AFNE01.JPG,5,5,55,7,,,,,,,,,,,,,,,,,,,,,,,AFSA20.jpg,AFNE12.jpg,AFNE01.jpg,AFSA17.jpg,AFNE12.jpg,FN,3,num_6,16,num_6,1.1167519138,,,2017_Apr_26_1350,60.0076409659,FEMA4ImagesEEG,001,100243,
AFNE01.JPG,AFNE01.JPG,AFNE01.JPG,AFNE01.JPG,AFNE01.JPG,AFNE01.JPG,5,6,56,9,,,,,,,,,,,,,,,,,,,,,,,AFNE05.jpg,AFSA10.jpg,AFSA08.jpg,AFNE19.jpg,AFSA10.jpg,FS,4,num_6,32,num_8,1.06674580369,,,2017_Apr_26_1350,60.0076409659,FEMA4ImagesEEG,001,100243,
AFNE01.JPG,AFNE01.JPG,AFNE01.JPG,AFNE01.JPG,AFNE01.JPG,AFNE01.JPG,5,7,57,1,,,,,,,,,,,,,,,,,,,,,,,AFSA18.jpg,AFSA17.jpg,AFNE01.jpg,AFNE11.jpg,AFNE01.jpg,FN,3,num_2,16,num_2,0.85015390662,,,2017_Apr_26_1350,60.0076409659,FEMA4ImagesEEG,001,100243,
AFNE01.JPG,AFNE01.JPG,AFNE01.JPG,AFNE01.JPG,AFNE01.JPG,AFNE01.JPG,5,8,58,6,,,,,,,,,,,,,,,,,,,,,,,AFSA16.jpg,AFNE19.jpg,AFNE08.jpg,AFSA02.jpg,AFNE19.jpg,FN,3,num_6,32,num_4,1.13345247728,,,2017_Apr_26_1350,60.0076409659,FEMA4ImagesEEG,001,100243,
AFNE01.JPG,AFNE01.JPG,AFNE01.JPG,AFNE01.JPG,AFNE01.JPG,AFNE01.JPG,5,9,59,0,,,,,,,,,,,,,,,,,,,,,,,AFNE16.jpg,AFSA08.jpg,AFNE04.jpg,AFSA13.jpg,AFNE04.jpg,FN,3,num_2,32,num_6,1.21673687105,,,2017_Apr_26_1350,60.0076409659,FEMA4ImagesEEG,001,100243,
,,,,,,,,,,,,,,,,,,,,,,,,,,,,,,,,,,,,,,,,,,,space,11.5989574697,2017_Apr_26_1350,60.0076409659,FEMA4ImagesEEG,001,100243,
AFNE01.JPG,AFNE01.JPG,AFNE01.JPG,AFNE01.JPG,AFNE01.JPG,AFNE01.JPG,,,,,0,0,0,4,,,,,,,,,,,,,,,,,,,AMNE08.jpg,AMSA08.jpg,AMNE02.jpg,AMSA05.jpg,AMSA05.jpg,MS,2,num_4,32,num_6,1.7667691214,,,2017_Apr_26_1350,60.0076409659,FEMA4ImagesEEG,001,100243,
AFNE01.JPG,AFNE01.JPG,AFNE01.JPG,AFNE01.JPG,AFNE01.JPG,AFNE01.JPG,,,,,0,1,1,2,,,,,,,,,,,,,,,,,,,AMNE07.jpg,AMSA09.jpg,AMSA12.jpg,AMNE10.jpg,AMNE07.jpg,MN,1,num_8,32,num_4,1.13345119427,,,2017_Apr_26_1350,60.0076409659,FEMA4ImagesEEG,001,100243,
AFNE01.JPG,AFNE01.JPG,AFNE01.JPG,AFNE01.JPG,AFNE01.JPG,AFNE01.JPG,,,,,0,2,2,6,,,,,,,,,,,,,,,,,,,AMNE03.jpg,AMSA11.jpg,AMNE12.jpg,AMSA15.jpg,AMNE12.jpg,MN,1,num_2,32,num_6,2.46666478494,,,2017_Apr_26_1350,60.0076409659,FEMA4ImagesEEG,001,100243,
AFNE01.JPG,AFNE01.JPG,AFNE01.JPG,AFNE01.JPG,AFNE01.JPG,AFNE01.JPG,,,,,0,3,3,0,,,,,,,,,,,,,,,,,,,AMSA11.jpg,AMNE11.jpg,AMSA12.jpg,AMNE20.jpg,AMNE20.jpg,MN,1,num_4,32,num_8,1.08348998765,,,2017_Apr_26_1350,60.0076409659,FEMA4ImagesEEG,001,100243,
AFNE01.JPG,AFNE01.JPG,AFNE01.JPG,AFNE01.JPG,AFNE01.JPG,AFNE01.JPG,,,,,0,4,4,1,,,,,,,,,,,,,,,,,,,AMNE07.jpg,AMSA20.jpg,AMNE18.jpg,AMSA17.jpg,AMNE18.jpg,MN,1,num_2,16,num_2,1.05009784154,,,2017_Apr_26_1350,60.0076409659,FEMA4ImagesEEG,001,100243,
AFNE01.JPG,AFNE01.JPG,AFNE01.JPG,AFNE01.JPG,AFNE01.JPG,AFNE01.JPG,,,,,0,5,5,3,,,,,,,,,,,,,,,,,,,AMSA18.jpg,AMNE05.jpg,AMNE18.jpg,AMSA13.jpg,AMSA18.jpg,MS,2,num_8,16,num_8,0.733484422904,,,2017_Apr_26_1350,60.0076409659,FEMA4ImagesEEG,001,100243,
AFNE01.JPG,AFNE01.JPG,AFNE01.JPG,AFNE01.JPG,AFNE01.JPG,AFNE01.JPG,,,,,0,6,6,7,,,,,,,,,,,,,,,,,,,AMSA20.jpg,AMSA14.jpg,AMNE07.jpg,AMNE12.jpg,AMNE07.jpg,MN,1,num_2,16,num_2,1.43338650116,,,2017_Apr_26_1350,60.0076409659,FEMA4ImagesEEG,001,100243,
AFNE01.JPG,AFNE01.JPG,AFNE01.JPG,AFNE01.JPG,AFNE01.JPG,AFNE01.JPG,,,,,0,7,7,8,,,,,,,,,,,,,,,,,,,AMSA11.jpg,AMSA04.jpg,AMNE11.jpg,AMNE10.jpg,AMNE10.jpg,MN,1,num_4,16,num_4,0.833485417068,,,2017_Apr_26_1350,60.0076409659,FEMA4ImagesEEG,001,100243,
AFNE01.JPG,AFNE01.JPG,AFNE01.JPG,AFNE01.JPG,AFNE01.JPG,AFNE01.JPG,,,,,0,8,8,9,,,,,,,,,,,,,,,,,,,AMNE16.jpg,AMNE14.jpg,AMSA07.jpg,AMSA20.jpg,AMSA20.jpg,MS,2,num_4,16,num_4,4.28324340342,,,2017_Apr_26_1350,60.0076409659,FEMA4ImagesEEG,001,100243,
AFNE01.JPG,AFNE01.JPG,AFNE01.JPG,AFNE01.JPG,AFNE01.JPG,AFNE01.JPG,,,,,0,9,9,5,,,,,,,,,,,,,,,,,,,AMNE13.jpg,AMSA01.jpg,AMSA16.jpg,AMNE05.jpg,AMSA01.jpg,MS,2,num_6,16,num_6,0.933468129253,,,2017_Apr_26_1350,60.0076409659,FEMA4ImagesEEG,001,100243,
AFNE01.JPG,AFNE01.JPG,AFNE01.JPG,AFNE01.JPG,AFNE01.JPG,AFNE01.JPG,,,,,1,0,10,7,,,,,,,,,,,,,,,,,,,AMSA03.jpg,AMNE15.jpg,AMSA10.jpg,AMNE02.jpg,AMSA10.jpg,MS,2,num_2,16,num_2,1.76669695519,,,2017_Apr_26_1350,60.0076409659,FEMA4ImagesEEG,001,100243,
AFNE01.JPG,AFNE01.JPG,AFNE01.JPG,AFNE01.JPG,AFNE01.JPG,AFNE01.JPG,,,,,1,1,11,9,,,,,,,,,,,,,,,,,,,AMNE08.jpg,AMNE16.jpg,AMSA07.jpg,AMSA08.jpg,AMNE16.jpg,MN,1,num_6,16,num_6,0.950254009338,,,2017_Apr_26_1350,60.0076409659,FEMA4ImagesEEG,001,100243,
AFNE01.JPG,AFNE01.JPG,AFNE01.JPG,AFNE01.JPG,AFNE01.JPG,AFNE01.JPG,,,,,1,2,12,5,,,,,,,,,,,,,,,,,,,AMSA11.jpg,AMSA19.jpg,AMNE17.jpg,AMNE02.jpg,AMNE17.jpg,MN,1,num_2,16,num_2,0.933511108393,,,2017_Apr_26_1350,60.0076409659,FEMA4ImagesEEG,001,100243,
AFNE01.JPG,AFNE01.JPG,AFNE01.JPG,AFNE01.JPG,AFNE01.JPG,AFNE01.JPG,,,,,1,3,13,0,,,,,,,,,,,,,,,,,,,AMSA11.jpg,AMNE18.jpg,AMNE01.jpg,AMSA09.jpg,AMSA09.jpg,MS,2,num_4,16,num_4,0.91678937606,,,2017_Apr_26_1350,60.0076409659,FEMA4ImagesEEG,001,100243,
AFNE01.JPG,AFNE01.JPG,AFNE01.JPG,AFNE01.JPG,AFNE01.JPG,AFNE01.JPG,,,,,1,4,14,6,,,,,,,,,,,,,,,,,,,AMSA01.jpg,AMSA08.jpg,AMNE09.jpg,AMNE01.jpg,AMSA08.jpg,MS,2,num_6,32,num_4,0.666754656122,,,2017_Apr_26_1350,60.0076409659,FEMA4ImagesEEG,001,100243,
AFNE01.JPG,AFNE01.JPG,AFNE01.JPG,AFNE01.JPG,AFNE01.JPG,AFNE01.JPG,,,,,1,5,15,1,,,,,,,,,,,,,,,,,,,AMNE13.jpg,AMSA10.jpg,AMNE05.jpg,AMSA11.jpg,AMNE13.jpg,MN,1,num_8,32,num_6,1.38341214426,,,2017_Apr_26_1350,60.0076409659,FEMA4ImagesEEG,001,100243,
AFNE01.JPG,AFNE01.JPG,AFNE01.JPG,AFNE01.JPG,AFNE01.JPG,AFNE01.JPG,,,,,1,6,16,8,,,,,,,,,,,,,,,,,,,AMSA16.jpg,AMNE04.jpg,AMSA09.jpg,AMNE18.jpg,AMSA16.jpg,MS,2,num_8,32,num_4,1.75023085193,,,2017_Apr_26_1350,60.0076409659,FEMA4ImagesEEG,001,100243,
AFNE01.JPG,AFNE01.JPG,AFNE01.JPG,AFNE01.JPG,AFNE01.JPG,AFNE01.JPG,,,,,1,7,17,4,,,,,,,,,,,,,,,,,,,AMNE04.jpg,AMNE13.jpg,AMSA12.jpg,AMSA13.jpg,AMSA12.jpg,MS,2,num_2,16,num_2,2.99992077739,,,2017_Apr_26_1350,60.0076409659,FEMA4ImagesEEG,001,100243,
AFNE01.JPG,AFNE01.JPG,AFNE01.JPG,AFNE01.JPG,AFNE01.JPG,AFNE01.JPG,,,,,1,8,18,2,,,,,,,,,,,,,,,,,,,AMSA19.jpg,AMNE17.jpg,AMSA10.jpg,AMNE20.jpg,AMSA10.jpg,MS,2,num_2,32,num_6,1.15006130922,,,2017_Apr_26_1350,60.0076409659,FEMA4ImagesEEG,001,100243,
AFNE01.JPG,AFNE01.JPG,AFNE01.JPG,AFNE01.JPG,AFNE01.JPG,AFNE01.JPG,,,,,1,9,19,3,,,,,,,,,,,,,,,,,,,AMNE11.jpg,AMSA12.jpg,AMNE10.jpg,AMSA04.jpg,AMNE10.jpg,MN,1,num_2,32,num_8,0.866775889066,,,2017_Apr_26_1350,60.0076409659,FEMA4ImagesEEG,001,100243,
AFNE01.JPG,AFNE01.JPG,AFNE01.JPG,AFNE01.JPG,AFNE01.JPG,AFNE01.JPG,,,,,2,0,20,0,,,,,,,,,,,,,,,,,,,AMNE15.jpg,AMSA13.jpg,AMNE16.jpg,AMSA11.jpg,AMNE16.jpg,MN,1,num_2,32,num_6,0.816227729898,,,2017_Apr_26_1350,60.0076409659,FEMA4ImagesEEG,001,100243,
AFNE01.JPG,AFNE01.JPG,AFNE01.JPG,AFNE01.JPG,AFNE01.JPG,AFNE01.JPG,,,,,2,1,21,2,,,,,,,,,,,,,,,,,,,AMSA06.jpg,AMNE02.jpg,AMSA13.jpg,AMNE10.jpg,AMSA06.jpg,MS,2,num_8,16,num_8,1.76685411728,,,2017_Apr_26_1350,60.0076409659,FEMA4ImagesEEG,001,100243,
AFNE01.JPG,AFNE01.JPG,AFNE01.JPG,AFNE01.JPG,AFNE01.JPG,AFNE01.JPG,,,,,2,2,22,1,,,,,,,,,,,,,,,,,,,AMNE12.jpg,AMSA06.jpg,AMSA19.jpg,AMNE10.jpg,AMSA19.jpg,MS,2,num_2,32,num_8,2.31664934137,,,2017_Apr_26_1350,60.0076409659,FEMA4ImagesEEG,001,100243,
AFNE01.JPG,AFNE01.JPG,AFNE01.JPG,AFNE01.JPG,AFNE01.JPG,AFNE01.JPG,,,,,2,3,23,6,,,,,,,,,,,,,,,,,,,AMNE01.jpg,AMSA19.jpg,AMSA02.jpg,AMNE12.jpg,AMSA02.jpg,MS,2,num_2,16,num_2,1.35005046823,,,2017_Apr_26_1350,60.0076409659,FEMA4ImagesEEG,001,100243,
AFNE01.JPG,AFNE01.JPG,AFNE01.JPG,AFNE01.JPG,AFNE01.JPG,AFNE01.JPG,,,,,2,4,24,7,,,,,,,,,,,,,,,,,,,AMNE06.jpg,AMSA03.jpg,AMSA01.jpg,AMNE16.jpg,AMSA01.jpg,MS,2,num_2,16,num_2,0.616745659383,,,2017_Apr_26_1350,60.0076409659,FEMA4ImagesEEG,001,100243,
AFNE01.JPG,AFNE01.JPG,AFNE01.JPG,AFNE01.JPG,AFNE01.JPG,AFNE01.JPG,,,,,2,5,25,9,,,,,,,,,,,,,,,,,,,AMNE15.jpg,AMSA02.jpg,AMSA08.jpg,AMNE17.jpg,AMNE15.jpg,MN,1,num_8,16,num_8,0.766772970324,,,2017_Apr_26_1350,60.0076409659,FEMA4ImagesEEG,001,100243,
AFNE01.JPG,AFNE01.JPG,AFNE01.JPG,AFNE01.JPG,AFNE01.JPG,AFNE01.JPG,,,,,2,6,26,4,,,,,,,,,,,,,,,,,,,AMSA16.jpg,AMSA12.jpg,AMNE14.jpg,AMNE11.jpg,AMNE14.jpg,MN,1,num_2,16,num_2,0.683460030588,,,2017_Apr_26_1350,60.0076409659,FEMA4ImagesEEG,001,100243,
AFNE01.JPG,AFNE01.JPG,AFNE01.JPG,AFNE01.JPG,AFNE01.JPG,AFNE01.JPG,,,,,2,7,27,8,,,,,,,,,,,,,,,,,,,AMSA13.jpg,AMNE05.jpg,AMSA07.jpg,AMNE01.jpg,AMSA13.jpg,MS,2,num_8,32,num_6,1.60008037731,,,2017_Apr_26_1350,60.0076409659,FEMA4ImagesEEG,001,100243,
AFNE01.JPG,AFNE01.JPG,AFNE01.JPG,AFNE01.JPG,AFNE01.JPG,AFNE01.JPG,,,,,2,8,28,5,,,,,,,,,,,,,,,,,,,AMSA05.jpg,AMNE04.jpg,AMSA09.jpg,AMNE13.jpg,AMSA05.jpg,MS,2,num_8,32,num_2,0.900123131811,,,2017_Apr_26_1350,60.0076409659,FEMA4ImagesEEG,001,100243,
AFNE01.JPG,AFNE01.JPG,AFNE01.JPG,AFNE01.JPG,AFNE01.JPG,AFNE01.JPG,,,,,2,9,29,3,,,,,,,,,,,,,,,,,,,AMSA02.jpg,AMSA15.jpg,AMNE15.jpg,AMNE11.jpg,AMNE11.jpg,MN,1,num_4,16,num_4,2.56632836175,,,2017_Apr_26_1350,60.0076409659,FEMA4ImagesEEG,001,100243,
AFNE01.JPG,AFNE01.JPG,AFNE01.JPG,AFNE01.JPG,AFNE01.JPG,AFNE01.JPG,,,,,3,0,30,0,,,,,,,,,,,,,,,,,,,AMNE18.jpg,AMSA07.jpg,AMNE15.jpg,AMSA19.jpg,AMSA19.jpg,MS,2,num_4,32,num_6,3.63318610343,,,2017_Apr_26_1350,60.0076409659,FEMA4ImagesEEG,001,100243,
AFNE01.JPG,AFNE01.JPG,AFNE01.JPG,AFNE01.JPG,AFNE01.JPG,AFNE01.JPG,,,,,3,1,31,3,,,,,,,,,,,,,,,,,,,AMNE03.jpg,AMSA08.jpg,AMNE13.jpg,AMSA07.jpg,AMSA08.jpg,MS,2,num_6,32,num_2,3.40021021233,,,2017_Apr_26_1350,60.0076409659,FEMA4ImagesEEG,001,100243,
AFNE01.JPG,AFNE01.JPG,AFNE01.JPG,AFNE01.JPG,AFNE01.JPG,AFNE01.JPG,,,,,3,2,32,6,,,,,,,,,,,,,,,,,,,AMSA13.jpg,AMNE18.jpg,AMNE19.jpg,AMSA01.jpg,AMNE18.jpg,MN,1,num_6,32,num_8,1.30006905505,,,2017_Apr_26_1350,60.0076409659,FEMA4ImagesEEG,001,100243,
AFNE01.JPG,AFNE01.JPG,AFNE01.JPG,AFNE01.JPG,AFNE01.JPG,AFNE01.JPG,,,,,3,3,33,4,,,,,,,,,,,,,,,,,,,AMNE13.jpg,AMNE15.jpg,AMSA16.jpg,AMSA02.jpg,AMSA16.jpg,MS,2,num_2,32,num_4,0.499990217504,,,2017_Apr_26_1350,60.0076409659,FEMA4ImagesEEG,001,100243,
AFNE01.JPG,AFNE01.JPG,AFNE01.JPG,AFNE01.JPG,AFNE01.JPG,AFNE01.JPG,,,,,3,4,34,1,,,,,,,,,,,,,,,,,,,AMNE18.jpg,AMSA01.jpg,AMNE08.jpg,AMSA11.jpg,AMNE08.jpg,MN,1,num_2,32,num_8,0.966720112483,,,2017_Apr_26_1350,60.0076409659,FEMA4ImagesEEG,001,100243,
AFNE01.JPG,AFNE01.JPG,AFNE01.JPG,AFNE01.JPG,AFNE01.JPG,AFNE01.JPG,,,,,3,5,35,5,,,,,,,,,,,,,,,,,,,AMSA05.jpg,AMSA20.jpg,AMNE04.jpg,AMNE06.jpg,AMNE04.jpg,MN,1,num_2,16,num_2,0.60017788189,,,2017_Apr_26_1350,60.0076409659,FEMA4ImagesEEG,001,100243,
AFNE01.JPG,AFNE01.JPG,AFNE01.JPG,AFNE01.JPG,AFNE01.JPG,AFNE01.JPG,,,,,3,6,36,9,,,,,,,,,,,,,,,,,,,AMSA13.jpg,AMSA02.jpg,AMNE19.jpg,AMNE06.jpg,AMNE06.jpg,MN,1,num_4,32,num_8,1.21673847479,,,2017_Apr_26_1350,60.0076409659,FEMA4ImagesEEG,001,100243,
AFNE01.JPG,AFNE01.JPG,AFNE01.JPG,AFNE01.JPG,AFNE01.JPG,AFNE01.JPG,,,,,3,7,37,7,,,,,,,,,,,,,,,,,,,AMSA12.jpg,AMNE16.jpg,AMNE08.jpg,AMSA14.jpg,AMSA14.jpg,MS,2,num_4,16,num_4,0.533464152133,,,2017_Apr_26_1350,60.0076409659,FEMA4ImagesEEG,001,100243,
AFNE01.JPG,AFNE01.JPG,AFNE01.JPG,AFNE01.JPG,AFNE01.JPG,AFNE01.JPG,,,,,3,8,38,8,,,,,,,,,,,,,,,,,,,AMNE05.jpg,AMSA17.jpg,AMNE18.jpg,AMSA13.jpg,AMNE05.jpg,MN,1,num_8,32,num_6,1.65010092047,,,2017_Apr_26_1350,60.0076409659,FEMA4ImagesEEG,001,100243,
AFNE01.JPG,AFNE01.JPG,AFNE01.JPG,AFNE01.JPG,AFNE01.JPG,AFNE01.JPG,,,,,3,9,39,2,,,,,,,,,,,,,,,,,,,AMNE08.jpg,AMSA19.jpg,AMNE12.jpg,AMSA05.jpg,AMSA05.jpg,MS,2,num_4,16,num_4,0.583492713864,,,2017_Apr_26_1350,60.0076409659,FEMA4ImagesEEG,001,100243,
AFNE01.JPG,AFNE01.JPG,AFNE01.JPG,AFNE01.JPG,AFNE01.JPG,AFNE01.JPG,,,,,4,0,40,1,,,,,,,,,,,,,,,,,,,AMSA11.jpg,AMSA17.jpg,AMNE18.jpg,AMNE12.jpg,AMSA11.jpg,MS,2,num_8,32,num_4,2.03338412778,,,2017_Apr_26_1350,60.0076409659,FEMA4ImagesEEG,001,100243,
AFNE01.JPG,AFNE01.JPG,AFNE01.JPG,AFNE01.JPG,AFNE01.JPG,AFNE01.JPG,,,,,4,1,41,6,,,,,,,,,,,,,,,,,,,AMNE16.jpg,AMSA03.jpg,AMSA11.jpg,AMNE01.jpg,AMSA11.jpg,MS,2,num_2,32,num_6,0.433455780847,,,2017_Apr_26_1350,60.0076409659,FEMA4ImagesEEG,001,100243,
AFNE01.JPG,AFNE01.JPG,AFNE01.JPG,AFNE01.JPG,AFNE01.JPG,AFNE01.JPG,,,,,4,2,42,9,,,,,,,,,,,,,,,,,,,AMNE04.jpg,AMSA03.jpg,AMSA15.jpg,AMNE02.jpg,AMSA15.jpg,MS,2,num_2,32,num_6,1.06697737728,,,2017_Apr_26_1350,60.0076409659,FEMA4ImagesEEG,001,100243,
AFNE01.JPG,AFNE01.JPG,AFNE01.JPG,AFNE01.JPG,AFNE01.JPG,AFNE01.JPG,,,,,4,3,43,0,,,,,,,,,,,,,,,,,,,AMNE07.jpg,AMNE14.jpg,AMSA14.jpg,AMSA05.jpg,AMSA14.jpg,MS,2,num_2,16,num_2,1.16673557216,,,2017_Apr_26_1350,60.0076409659,FEMA4ImagesEEG,001,100243,
AFNE01.JPG,AFNE01.JPG,AFNE01.JPG,AFNE01.JPG,AFNE01.JPG,AFNE01.JPG,,,,,4,4,44,7,,,,,,,,,,,,,,,,,,,AMNE07.jpg,AMSA16.jpg,AMNE11.jpg,AMSA14.jpg,AMSA16.jpg,MS,2,num_6,16,num_6,0.633462580503,,,2017_Apr_26_1350,60.0076409659,FEMA4ImagesEEG,001,100243,
AFNE01.JPG,AFNE01.JPG,AFNE01.JPG,AFNE01.JPG,AFNE01.JPG,AFNE01.JPG,,,,,4,5,45,8,,,,,,,,,,,,,,,,,,,AMSA04.jpg,AMNE15.jpg,AMSA20.jpg,AMNE01.jpg,AMSA04.jpg,MS,2,num_8,16,num_8,0.53349462233,,,2017_Apr_26_1350,60.0076409659,FEMA4ImagesEEG,001,100243,
AFNE01.JPG,AFNE01.JPG,AFNE01.JPG,AFNE01.JPG,AFNE01.JPG,AFNE01.JPG,,,,,4,6,46,5,,,,,,,,,,,,,,,,,,,AMNE07.jpg,AMSA07.jpg,AMSA05.jpg,AMNE16.jpg,AMSA05.jpg,MS,2,num_2,32,num_4,1.40005657834,,,2017_Apr_26_1350,60.0076409659,FEMA4ImagesEEG,001,100243,
AFNE01.JPG,AFNE01.JPG,AFNE01.JPG,AFNE01.JPG,AFNE01.JPG,AFNE01.JPG,,,,,4,7,47,2,,,,,,,,,,,,,,,,,,,AMNE17.jpg,AMNE03.jpg,AMSA17.jpg,AMSA07.jpg,AMSA17.jpg,MS,2,num_2,32,num_6,2.0667178994,,,2017_Apr_26_1350,60.0076409659,FEMA4ImagesEEG,001,100243,
AFNE01.JPG,AFNE01.JPG,AFNE01.JPG,AFNE01.JPG,AFNE01.JPG,AFNE01.JPG,,,,,4,8,48,3,,,,,,,,,,,,,,,,,,,AMNE08.jpg,AMNE09.jpg,AMSA02.jpg,AMSA04.jpg,AMSA02.jpg,MS,2,num_2,16,num_2,1.58339841664,,,2017_Apr_26_1350,60.0076409659,FEMA4ImagesEEG,001,100243,
AFNE01.JPG,AFNE01.JPG,AFNE01.JPG,AFNE01.JPG,AFNE01.JPG,AFNE01.JPG,,,,,4,9,49,4,,,,,,,,,,,,,,,,,,,AMNE13.jpg,AMNE03.jpg,AMSA18.jpg,AMSA20.jpg,AMNE13.jpg,MN,1,num_8,32,num_4,1.36669971352,,,2017_Apr_26_1350,60.0076409659,FEMA4ImagesEEG,001,100243,
AFNE01.JPG,AFNE01.JPG,AFNE01.JPG,AFNE01.JPG,AFNE01.JPG,AFNE01.JPG,,,,,5,0,50,0,,,,,,,,,,,,,,,,,,,AMSA16.jpg,AMNE16.jpg,AMSA01.jpg,AMNE02.jpg,AMSA01.jpg,MS,2,num_2,16,num_2,1.33341822238,,,2017_Apr_26_1350,60.0076409659,FEMA4ImagesEEG,001,100243,
AFNE01.JPG,AFNE01.JPG,AFNE01.JPG,AFNE01.JPG,AFNE01.JPG,AFNE01.JPG,,,,,5,1,51,7,,,,,,,,,,,,,,,,,,,AMNE02.jpg,AMSA08.jpg,AMSA07.jpg,AMNE19.jpg,AMNE19.jpg,MN,1,num_4,16,num_4,0.700145198498,,,2017_Apr_26_1350,60.0076409659,FEMA4ImagesEEG,001,100243,
AFNE01.JPG,AFNE01.JPG,AFNE01.JPG,AFNE01.JPG,AFNE01.JPG,AFNE01.JPG,,,,,5,2,52,8,,,,,,,,,,,,,,,,,,,AMNE14.jpg,AMSA03.jpg,AMNE03.jpg,AMSA16.jpg,AMNE14.jpg,MN,1,num_8,16,num_8,0.733492120635,,,2017_Apr_26_1350,60.0076409659,FEMA4ImagesEEG,001,100243,
AFNE01.JPG,AFNE01.JPG,AFNE01.JPG,AFNE01.JPG,AFNE01.JPG,AFNE01.JPG,,,,,5,3,53,4,,,,,,,,,,,,,,,,,,,AMNE01.jpg,AMSA01.jpg,AMSA07.jpg,AMNE02.jpg,AMSA01.jpg,MS,2,num_6,16,num_6,1.35010723909,,,2017_Apr_26_1350,60.0076409659,FEMA4ImagesEEG,001,100243,
AFNE01.JPG,AFNE01.JPG,AFNE01.JPG,AFNE01.JPG,AFNE01.JPG,AFNE01.JPG,,,,,5,4,54,3,,,,,,,,,,,,,,,,,,,AMSA13.jpg,AMNE03.jpg,AMSA01.jpg,AMNE10.jpg,AMNE10.jpg,MN,1,num_4,16,num_4,1.05009174743,,,2017_Apr_26_1350,60.0076409659,FEMA4ImagesEEG,001,100243,
AFNE01.JPG,AFNE01.JPG,AFNE01.JPG,AFNE01.JPG,AFNE01.JPG,AFNE01.JPG,,,,,5,5,55,9,,,,,,,,,,,,,,,,,,,AMNE08.jpg,AMSA14.jpg,AMSA20.jpg,AMNE09.jpg,AMNE09.jpg,MN,1,num_4,16,num_4,1.01674835361,,,2017_Apr_26_1350,60.0076409659,FEMA4ImagesEEG,001,100243,
AFNE01.JPG,AFNE01.JPG,AFNE01.JPG,AFNE01.JPG,AFNE01.JPG,AFNE01.JPG,,,,,5,6,56,2,,,,,,,,,,,,,,,,,,,AMNE01.jpg,AMSA12.jpg,AMSA09.jpg,AMNE06.jpg,AMSA12.jpg,MS,2,num_6,16,num_6,0.783476741053,,,2017_Apr_26_1350,60.0076409659,FEMA4ImagesEEG,001,100243,
AFNE01.JPG,AFNE01.JPG,AFNE01.JPG,AFNE01.JPG,AFNE01.JPG,AFNE01.JPG,,,,,5,7,57,5,,,,,,,,,,,,,,,,,,,AMNE20.jpg,AMSA06.jpg,AMNE09.jpg,AMSA07.jpg,AMSA07.jpg,MS,2,num_4,32,num_2,1.88335938263,,,2017_Apr_26_1350,60.0076409659,FEMA4ImagesEEG,001,100243,
AFNE01.JPG,AFNE01.JPG,AFNE01.JPG,AFNE01.JPG,AFNE01.JPG,AFNE01.JPG,,,,,5,8,58,6,,,,,,,,,,,,,,,,,,,AMNE20.jpg,AMNE07.jpg,AMSA07.jpg,AMSA01.jpg,AMSA07.jpg,MS,2,num_2,16,num_2,2.91663574206,,,2017_Apr_26_1350,60.0076409659,FEMA4ImagesEEG,001,100243,
AFNE01.JPG,AFNE01.JPG,AFNE01.JPG,AFNE01.JPG,AFNE01.JPG,AFNE01.JPG,,,,,5,9,59,1,,,,,,,,,,,,,,,,,,,AMSA14.jpg,AMNE08.jpg,AMNE07.jpg,AMSA17.jpg,AMNE07.jpg,MN,1,num_2,32,num_6,1.13346530683,,,2017_Apr_26_1350,60.0076409659,FEMA4ImagesEEG,001,100243,
,,,,,,,,,,,,,,,,,,,,,,,,,,,,,,,,,,,,,,,,,,,space,17.5654389523,2017_Apr_26_1350,60.0076409659,FEMA4ImagesEEG,001,100243,
AFNE01.JPG,AFNE01.JPG,AFNE01.JPG,AFNE01.JPG,AFNE01.JPG,AFNE01.JPG,,,,,,,,,0,0,0,7,,,,,,,,,,,,,,,AFSA11.jpg,AFNE17.jpg,AFSA15.jpg,AFNE19.jpg,AFNE19.jpg,FN,3,num_4,32,num_6,1.51670521416,,,2017_Apr_26_1350,60.0076409659,FEMA4ImagesEEG,001,100243,
AFNE01.JPG,AFNE01.JPG,AFNE01.JPG,AFNE01.JPG,AFNE01.JPG,AFNE01.JPG,,,,,,,,,0,1,1,1,,,,,,,,,,,,,,,AFSA08.jpg,AFNE03.jpg,AFSA16.jpg,AFNE15.jpg,AFSA16.jpg,FS,4,num_2,32,num_6,0.95009941305,,,2017_Apr_26_1350,60.0076409659,FEMA4ImagesEEG,001,100243,
AFNE01.JPG,AFNE01.JPG,AFNE01.JPG,AFNE01.JPG,AFNE01.JPG,AFNE01.JPG,,,,,,,,,0,2,2,4,,,,,,,,,,,,,,,AFSA03.jpg,AFNE03.jpg,AFSA10.jpg,AFNE14.jpg,AFSA03.jpg,FS,4,num_8,32,num_6,0.61676586594,,,2017_Apr_26_1350,60.0076409659,FEMA4ImagesEEG,001,100243,
AFNE01.JPG,AFNE01.JPG,AFNE01.JPG,AFNE01.JPG,AFNE01.JPG,AFNE01.JPG,,,,,,,,,0,3,3,2,,,,,,,,,,,,,,,AFNE19.jpg,AFSA02.jpg,AFNE01.jpg,AFSA05.jpg,AFNE19.jpg,FN,3,num_8,32,num_6,1.48339036608,,,2017_Apr_26_1350,60.0076409659,FEMA4ImagesEEG,001,100243,
AFNE01.JPG,AFNE01.JPG,AFNE01.JPG,AFNE01.JPG,AFNE01.JPG,AFNE01.JPG,,,,,,,,,0,4,4,6,,,,,,,,,,,,,,,AFSA09.jpg,AFSA12.jpg,AFNE03.jpg,AFNE17.jpg,AFSA12.jpg,FS,4,num_6,16,num_6,0.850134983077,,,2017_Apr_26_1350,60.0076409659,FEMA4ImagesEEG,001,100243,
AFNE01.JPG,AFNE01.JPG,AFNE01.JPG,AFNE01.JPG,AFNE01.JPG,AFNE01.JPG,,,,,,,,,0,5,5,8,,,,,,,,,,,,,,,AFSA08.jpg,AFNE08.jpg,AFSA03.jpg,AFNE14.jpg,AFSA03.jpg,FS,4,num_2,32,num_8,2.58334228734,,,2017_Apr_26_1350,60.0076409659,FEMA4ImagesEEG,001,100243,
AFNE01.JPG,AFNE01.JPG,AFNE01.JPG,AFNE01.JPG,AFNE01.JPG,AFNE01.JPG,,,,,,,,,0,6,6,0,,,,,,,,,,,,,,,AFNE05.jpg,AFNE08.jpg,AFSA20.jpg,AFSA19.jpg,AFSA20.jpg,FS,4,num_2,32,num_8,1.00012156006,,,2017_Apr_26_1350,60.0076409659,FEMA4ImagesEEG,001,100243,
AFNE01.JPG,AFNE01.JPG,AFNE01.JPG,AFNE01.JPG,AFNE01.JPG,AFNE01.JPG,,,,,,,,,0,7,7,5,,,,,,,,,,,,,,,AFSA13.jpg,AFNE06.jpg,AFNE08.jpg,AFSA17.jpg,AFSA13.jpg,FS,4,num_8,32,num_2,1.69994666113,,,2017_Apr_26_1350,60.0076409659,FEMA4ImagesEEG,001,100243,
AFNE01.JPG,AFNE01.JPG,AFNE01.JPG,AFNE01.JPG,AFNE01.JPG,AFNE01.JPG,,,,,,,,,0,8,8,3,,,,,,,,,,,,,,,AFSA19.jpg,AFNE05.jpg,AFNE17.jpg,AFSA17.jpg,AFNE05.jpg,FN,3,num_6,16,num_6,1.16672562913,,,2017_Apr_26_1350,60.0076409659,FEMA4ImagesEEG,001,100243,
AFNE01.JPG,AFNE01.JPG,AFNE01.JPG,AFNE01.JPG,AFNE01.JPG,AFNE01.JPG,,,,,,,,,0,9,9,9,,,,,,,,,,,,,,,AFSA02.jpg,AFNE09.jpg,AFSA17.jpg,AFNE20.jpg,AFNE09.jpg,FN,3,num_6,32,num_2,1.73341225646,,,2017_Apr_26_1350,60.0076409659,FEMA4ImagesEEG,001,100243,
AFNE01.JPG,AFNE01.JPG,AFNE01.JPG,AFNE01.JPG,AFNE01.JPG,AFNE01.JPG,,,,,,,,,1,0,10,2,,,,,,,,,,,,,,,AFSA17.jpg,AFSA10.jpg,AFNE10.jpg,AFNE14.jpg,AFNE10.jpg,FN,3,num_2,32,num_6,0.916804130073,,,2017_Apr_26_1350,60.0076409659,FEMA4ImagesEEG,001,100243,
AFNE01.JPG,AFNE01.JPG,AFNE01.JPG,AFNE01.JPG,AFNE01.JPG,AFNE01.JPG,,,,,,,,,1,1,11,5,,,,,,,,,,,,,,,AFSA15.jpg,AFSA02.jpg,AFNE11.jpg,AFNE10.jpg,AFSA02.jpg,FS,4,num_6,16,num_6,0.950258499593,,,2017_Apr_26_1350,60.0076409659,FEMA4ImagesEEG,001,100243,
AFNE01.JPG,AFNE01.JPG,AFNE01.JPG,AFNE01.JPG,AFNE01.JPG,AFNE01.JPG,,,,,,,,,1,2,12,3,,,,,,,,,,,,,,,AFSA18.jpg,AFNE14.jpg,AFNE01.jpg,AFSA03.jpg,AFSA03.jpg,FS,4,num_4,32,num_8,1.21672596608,,,2017_Apr_26_1350,60.0076409659,FEMA4ImagesEEG,001,100243,
AFNE01.JPG,AFNE01.JPG,AFNE01.JPG,AFNE01.JPG,AFNE01.JPG,AFNE01.JPG,,,,,,,,,1,3,13,9,,,,,,,,,,,,,,,AFSA08.jpg,AFSA01.jpg,AFNE09.jpg,AFNE03.jpg,AFNE03.jpg,FN,3,num_4,16,num_4,0.966781694442,,,2017_Apr_26_1350,60.0076409659,FEMA4ImagesEEG,001,100243,
AFNE01.JPG,AFNE01.JPG,AFNE01.JPG,AFNE01.JPG,AFNE01.JPG,AFNE01.JPG,,,,,,,,,1,4,14,1,,,,,,,,,,,,,,,AFNE17.jpg,AFSA17.jpg,AFNE12.jpg,AFSA11.jpg,AFNE12.jpg,FN,3,num_2,16,num_2,0.666811426869,,,2017_Apr_26_1350,60.0076409659,FEMA4ImagesEEG,001,100243,
AFNE01.JPG,AFNE01.JPG,AFNE01.JPG,AFNE01.JPG,AFNE01.JPG,AFNE01.JPG,,,,,,,,,1,5,15,0,,,,,,,,,,,,,,,AFNE10.jpg,AFSA03.jpg,AFSA05.jpg,AFNE20.jpg,AFSA03.jpg,FS,4,num_6,16,num_6,2.18333638576,,,2017_Apr_26_1350,60.0076409659,FEMA4ImagesEEG,001,100243,
AFNE01.JPG,AFNE01.JPG,AFNE01.JPG,AFNE01.JPG,AFNE01.JPG,AFNE01.JPG,,,,,,,,,1,6,16,7,,,,,,,,,,,,,,,AFNE13.jpg,AFNE20.jpg,AFSA02.jpg,AFSA08.jpg,AFSA02.jpg,FS,4,num_2,32,num_4,0.883478697622,,,2017_Apr_26_1350,60.0076409659,FEMA4ImagesEEG,001,100243,
AFNE01.JPG,AFNE01.JPG,AFNE01.JPG,AFNE01.JPG,AFNE01.JPG,AFNE01.JPG,,,,,,,,,1,7,17,4,,,,,,,,,,,,,,,AFSA15.jpg,AFNE17.jpg,AFNE06.jpg,AFSA19.jpg,AFNE06.jpg,FN,3,num_2,32,num_6,1.09995256271,,,2017_Apr_26_1350,60.0076409659,FEMA4ImagesEEG,001,100243,
AFNE01.JPG,AFNE01.JPG,AFNE01.JPG,AFNE01.JPG,AFNE01.JPG,AFNE01.JPG,,,,,,,,,1,8,18,6,,,,,,,,,,,,,,,AFNE13.jpg,AFNE17.jpg,AFSA05.jpg,AFSA06.jpg,AFSA05.jpg,FS,4,num_2,32,num_4,1.21675964363,,,2017_Apr_26_1350,60.0076409659,FEMA4ImagesEEG,001,100243,
AFNE01.JPG,AFNE01.JPG,AFNE01.JPG,AFNE01.JPG,AFNE01.JPG,AFNE01.JPG,,,,,,,,,1,9,19,8,,,,,,,,,,,,,,,AFSA13.jpg,AFNE13.jpg,AFNE09.jpg,AFSA15.jpg,AFNE13.jpg,FN,3,num_6,16,num_6,0.716875270125,,,2017_Apr_26_1350,60.0076409659,FEMA4ImagesEEG,001,100243,
AFNE01.JPG,AFNE01.JPG,AFNE01.JPG,AFNE01.JPG,AFNE01.JPG,AFNE01.JPG,,,,,,,,,2,0,20,4,,,,,,,,,,,,,,,AFSA18.jpg,AFSA07.jpg,AFNE20.jpg,AFNE01.jpg,AFNE01.jpg,FN,3,num_4,32,num_2,1.01661364315,,,2017_Apr_26_1350,60.0076409659,FEMA4ImagesEEG,001,100243,
AFNE01.JPG,AFNE01.JPG,AFNE01.JPG,AFNE01.JPG,AFNE01.JPG,AFNE01.JPG,,,,,,,,,2,1,21,7,,,,,,,,,,,,,,,AFNE12.jpg,AFSA04.jpg,AFNE18.jpg,AFSA07.jpg,AFNE12.jpg,FN,3,num_8,16,num_8,0.916678079637,,,2017_Apr_26_1350,60.0076409659,FEMA4ImagesEEG,001,100243,
AFNE01.JPG,AFNE01.JPG,AFNE01.JPG,AFNE01.JPG,AFNE01.JPG,AFNE01.JPG,,,,,,,,,2,2,22,1,,,,,,,,,,,,,,,AFNE09.jpg,AFNE03.jpg,AFSA15.jpg,AFSA03.jpg,AFSA03.jpg,FS,4,num_4,16,num_4,1.26669903984,,,2017_Apr_26_1350,60.0076409659,FEMA4ImagesEEG,001,100243,
AFNE01.JPG,AFNE01.JPG,AFNE01.JPG,AFNE01.JPG,AFNE01.JPG,AFNE01.JPG,,,,,,,,,2,3,23,8,,,,,,,,,,,,,,,AFSA02.jpg,AFNE10.jpg,AFNE03.jpg,AFSA01.jpg,AFSA02.jpg,FS,4,num_8,16,num_8,1.90002851374,,,2017_Apr_26_1350,60.0076409659,FEMA4ImagesEEG,001,100243,
AFNE01.JPG,AFNE01.JPG,AFNE01.JPG,AFNE01.JPG,AFNE01.JPG,AFNE01.JPG,,,,,,,,,2,4,24,2,,,,,,,,,,,,,,,AFNE18.jpg,AFSA03.jpg,AFNE17.jpg,AFSA17.jpg,AFSA03.jpg,FS,4,num_6,32,num_2,1.05014980119,,,2017_Apr_26_1350,60.0076409659,FEMA4ImagesEEG,001,100243,
AFNE01.JPG,AFNE01.JPG,AFNE01.JPG,AFNE01.JPG,AFNE01.JPG,AFNE01.JPG,,,,,,,,,2,5,25,5,,,,,,,,,,,,,,,AFSA02.jpg,AFSA05.jpg,AFNE01.jpg,AFNE17.jpg,AFSA02.jpg,FS,4,num_8,32,num_6,1.50007360964,,,2017_Apr_26_1350,60.0076409659,FEMA4ImagesEEG,001,100243,
AFNE01.JPG,AFNE01.JPG,AFNE01.JPG,AFNE01.JPG,AFNE01.JPG,AFNE01.JPG,,,,,,,,,2,6,26,3,,,,,,,,,,,,,,,AFSA14.jpg,AFNE12.jpg,AFSA15.jpg,AFNE08.jpg,AFSA14.jpg,FS,4,num_8,16,num_8,1.40012168838,,,2017_Apr_26_1350,60.0076409659,FEMA4ImagesEEG,001,100243,
AFNE01.JPG,AFNE01.JPG,AFNE01.JPG,AFNE01.JPG,AFNE01.JPG,AFNE01.JPG,,,,,,,,,2,7,27,0,,,,,,,,,,,,,,,AFSA10.jpg,AFNE20.jpg,AFNE04.jpg,AFSA11.jpg,AFSA10.jpg,FS,4,num_8,16,num_8,0.616722886916,,,2017_Apr_26_1350,60.0076409659,FEMA4ImagesEEG,001,100243,
AFNE01.JPG,AFNE01.JPG,AFNE01.JPG,AFNE01.JPG,AFNE01.JPG,AFNE01.JPG,,,,,,,,,2,8,28,9,,,,,,,,,,,,,,,AFSA06.jpg,AFNE09.jpg,AFNE12.jpg,AFSA07.jpg,AFNE09.jpg,FN,3,num_6,32,num_8,1.78346840187,,,2017_Apr_26_1350,60.0076409659,FEMA4ImagesEEG,001,100243,
AFNE01.JPG,AFNE01.JPG,AFNE01.JPG,AFNE01.JPG,AFNE01.JPG,AFNE01.JPG,,,,,,,,,2,9,29,6,,,,,,,,,,,,,,,AFSA07.jpg,AFSA04.jpg,AFNE08.jpg,AFNE10.jpg,AFNE10.jpg,FN,3,num_4,16,num_4,0.533562619006,,,2017_Apr_26_1350,60.0076409659,FEMA4ImagesEEG,001,100243,
AFNE01.JPG,AFNE01.JPG,AFNE01.JPG,AFNE01.JPG,AFNE01.JPG,AFNE01.JPG,,,,,,,,,3,0,30,5,,,,,,,,,,,,,,,AFSA13.jpg,AFNE09.jpg,AFSA18.jpg,AFNE20.jpg,AFNE09.jpg,FN,3,num_6,16,num_6,0.750120517798,,,2017_Apr_26_1350,60.0076409659,FEMA4ImagesEEG,001,100243,
AFNE01.JPG,AFNE01.JPG,AFNE01.JPG,AFNE01.JPG,AFNE01.JPG,AFNE01.JPG,,,,,,,,,3,1,31,2,,,,,,,,,,,,,,,AFSA18.jpg,AFNE09.jpg,AFNE10.jpg,AFSA10.jpg,AFSA18.jpg,FS,4,num_8,16,num_8,1.41694926447,,,2017_Apr_26_1350,60.0076409659,FEMA4ImagesEEG,001,100243,
AFNE01.JPG,AFNE01.JPG,AFNE01.JPG,AFNE01.JPG,AFNE01.JPG,AFNE01.JPG,,,,,,,,,3,2,32,3,,,,,,,,,,,,,,,AFNE18.jpg,AFSA19.jpg,AFSA01.jpg,AFNE12.jpg,AFSA19.jpg,FS,4,num_6,32,num_8,1.89999419462,,,2017_Apr_26_1350,60.0076409659,FEMA4ImagesEEG,001,100243,
AFNE01.JPG,AFNE01.JPG,AFNE01.JPG,AFNE01.JPG,AFNE01.JPG,AFNE01.JPG,,,,,,,,,3,3,33,8,,,,,,,,,,,,,,,AFNE09.jpg,AFSA15.jpg,AFSA17.jpg,AFNE05.jpg,AFNE09.jpg,FN,3,num_8,32,num_6,0.950140788453,,,2017_Apr_26_1350,60.0076409659,FEMA4ImagesEEG,001,100243,
AFNE01.JPG,AFNE01.JPG,AFNE01.JPG,AFNE01.JPG,AFNE01.JPG,AFNE01.JPG,,,,,,,,,3,4,34,1,,,,,,,,,,,,,,,AFSA06.jpg,AFNE14.jpg,AFSA09.jpg,AFNE04.jpg,AFNE14.jpg,FN,3,num_6,32,num_4,1.10008214123,,,2017_Apr_26_1350,60.0076409659,FEMA4ImagesEEG,001,100243,
AFNE01.JPG,AFNE01.JPG,AFNE01.JPG,AFNE01.JPG,AFNE01.JPG,AFNE01.JPG,,,,,,,,,3,5,35,6,,,,,,,,,,,,,,,AFNE14.jpg,AFSA12.jpg,AFNE19.jpg,AFSA02.jpg,AFNE14.jpg,FN,3,num_8,32,num_6,1.08351757121,,,2017_Apr_26_1350,60.0076409659,FEMA4ImagesEEG,001,100243,
AFNE01.JPG,AFNE01.JPG,AFNE01.JPG,AFNE01.JPG,AFNE01.JPG,AFNE01.JPG,,,,,,,,,3,6,36,0,,,,,,,,,,,,,,,AFNE04.jpg,AFSA06.jpg,AFSA02.jpg,AFNE18.jpg,AFNE04.jpg,FN,3,num_8,16,num_8,0.766798629425,,,2017_Apr_26_1350,60.0076409659,FEMA4ImagesEEG,001,100243,
AFNE01.JPG,AFNE01.JPG,AFNE01.JPG,AFNE01.JPG,AFNE01.JPG,AFNE01.JPG,,,,,,,,,3,7,37,9,,,,,,,,,,,,,,,AFSA10.jpg,AFNE15.jpg,AFNE13.jpg,AFSA01.jpg,AFSA01.jpg,FS,4,num_4,32,num_2,0.80013560853,,,2017_Apr_26_1350,60.0076409659,FEMA4ImagesEEG,001,100243,
AFNE01.JPG,AFNE01.JPG,AFNE01.JPG,AFNE01.JPG,AFNE01.JPG,AFNE01.JPG,,,,,,,,,3,8,38,7,,,,,,,,,,,,,,,AFSA08.jpg,AFSA19.jpg,AFNE13.jpg,AFNE03.jpg,AFNE13.jpg,FN,3,num_2,32,num_4,0.833428325597,,,2017_Apr_26_1350,60.0076409659,FEMA4ImagesEEG,001,100243,
AFNE01.JPG,AFNE01.JPG,AFNE01.JPG,AFNE01.JPG,AFNE01.JPG,AFNE01.JPG,,,,,,,,,3,9,39,4,,,,,,,,,,,,,,,AFSA14.jpg,AFSA02.jpg,AFNE16.jpg,AFNE17.jpg,AFSA02.jpg,FS,4,num_6,32,num_2,1.53339262737,,,2017_Apr_26_1350,60.0076409659,FEMA4ImagesEEG,001,100243,
AFNE01.JPG,AFNE01.JPG,AFNE01.JPG,AFNE01.JPG,AFNE01.JPG,AFNE01.JPG,,,,,,,,,4,0,40,9,,,,,,,,,,,,,,,AFNE18.jpg,AFSA13.jpg,AFNE12.jpg,AFSA19.jpg,AFSA19.jpg,FS,4,num_4,16,num_4,0.816764005693,,,2017_Apr_26_1350,60.0076409659,FEMA4ImagesEEG,001,100243,
AFNE01.JPG,AFNE01.JPG,AFNE01.JPG,AFNE01.JPG,AFNE01.JPG,AFNE01.JPG,,,,,,,,,4,1,41,8,,,,,,,,,,,,,,,AFNE11.jpg,AFSA01.jpg,AFSA08.jpg,AFNE17.jpg,AFNE17.jpg,FN,3,num_4,32,num_6,1.96690389607,,,2017_Apr_26_1350,60.0076409659,FEMA4ImagesEEG,001,100243,
AFNE01.JPG,AFNE01.JPG,AFNE01.JPG,AFNE01.JPG,AFNE01.JPG,AFNE01.JPG,,,,,,,,,4,2,42,7,,,,,,,,,,,,,,,AFNE14.jpg,AFNE15.jpg,AFSA04.jpg,AFSA16.jpg,AFNE14.jpg,FN,3,num_8,32,num_6,1.31681452203,,,2017_Apr_26_1350,60.0076409659,FEMA4ImagesEEG,001,100243,
AFNE01.JPG,AFNE01.JPG,AFNE01.JPG,AFNE01.JPG,AFNE01.JPG,AFNE01.JPG,,,,,,,,,4,3,43,3,,,,,,,,,,,,,,,AFNE08.jpg,AFSA18.jpg,AFSA13.jpg,AFNE14.jpg,AFNE08.jpg,FN,3,num_8,16,num_8,0.766793497605,,,2017_Apr_26_1350,60.0076409659,FEMA4ImagesEEG,001,100243,
AFNE01.JPG,AFNE01.JPG,AFNE01.JPG,AFNE01.JPG,AFNE01.JPG,AFNE01.JPG,,,,,,,,,4,4,44,5,,,,,,,,,,,,,,,AFNE14.jpg,AFSA12.jpg,AFNE18.jpg,AFSA16.jpg,AFNE14.jpg,FN,3,num_8,32,num_2,0.750170232262,,,2017_Apr_26_1350,60.0076409659,FEMA4ImagesEEG,001,100243,
AFNE01.JPG,AFNE01.JPG,AFNE01.JPG,AFNE01.JPG,AFNE01.JPG,AFNE01.JPG,,,,,,,,,4,5,45,6,,,,,,,,,,,,,,,AFNE10.jpg,AFNE14.jpg,AFSA20.jpg,AFSA18.jpg,AFNE14.jpg,FN,3,num_6,32,num_8,1.05018251657,,,2017_Apr_26_1350,60.0076409659,FEMA4ImagesEEG,001,100243,
AFNE01.JPG,AFNE01.JPG,AFNE01.JPG,AFNE01.JPG,AFNE01.JPG,AFNE01.JPG,,,,,,,,,4,6,46,2,,,,,,,,,,,,,,,AFSA06.jpg,AFSA12.jpg,AFNE05.jpg,AFNE13.jpg,AFNE05.jpg,FN,3,num_2,16,num_2,1.68337375182,,,2017_Apr_26_1350,60.0076409659,FEMA4ImagesEEG,001,100243,
AFNE01.JPG,AFNE01.JPG,AFNE01.JPG,AFNE01.JPG,AFNE01.JPG,AFNE01.JPG,,,,,,,,,4,7,47,0,,,,,,,,,,,,,,,AFNE09.jpg,AFSA08.jpg,AFSA09.jpg,AFNE11.jpg,AFNE09.jpg,FN,3,num_8,16,num_8,0.71686660999,,,2017_Apr_26_1350,60.0076409659,FEMA4ImagesEEG,001,100243,
AFNE01.JPG,AFNE01.JPG,AFNE01.JPG,AFNE01.JPG,AFNE01.JPG,AFNE01.JPG,,,,,,,,,4,8,48,1,,,,,,,,,,,,,,,AFSA12.jpg,AFSA02.jpg,AFNE13.jpg,AFNE03.jpg,AFSA02.jpg,FS,4,num_6,32,num_8,0.766744424473,,,2017_Apr_26_1350,60.0076409659,FEMA4ImagesEEG,001,100243,
AFNE01.JPG,AFNE01.JPG,AFNE01.JPG,AFNE01.JPG,AFNE01.JPG,AFNE01.JPG,,,,,,,,,4,9,49,4,,,,,,,,,,,,,,,AFSA18.jpg,AFNE01.jpg,AFSA05.jpg,AFNE13.jpg,AFSA18.jpg,FS,4,num_8,32,num_6,1.68334937573,,,2017_Apr_26_1350,60.0076409659,FEMA4ImagesEEG,001,100243,
AFNE01.JPG,AFNE01.JPG,AFNE01.JPG,AFNE01.JPG,AFNE01.JPG,AFNE01.JPG,,,,,,,,,5,0,50,8,,,,,,,,,,,,,,,AFNE12.jpg,AFSA09.jpg,AFNE17.jpg,AFSA02.jpg,AFNE17.jpg,FN,3,num_2,32,num_4,1.26674875454,,,2017_Apr_26_1350,60.0076409659,FEMA4ImagesEEG,001,100243,
AFNE01.JPG,AFNE01.JPG,AFNE01.JPG,AFNE01.JPG,AFNE01.JPG,AFNE01.JPG,,,,,,,,,5,1,51,4,,,,,,,,,,,,,,,AFSA05.jpg,AFNE08.jpg,AFSA12.jpg,AFNE15.jpg,AFSA12.jpg,FS,4,num_2,16,num_2,2.98329398409,,,2017_Apr_26_1350,60.0076409659,FEMA4ImagesEEG,001,100243,
AFNE01.JPG,AFNE01.JPG,AFNE01.JPG,AFNE01.JPG,AFNE01.JPG,AFNE01.JPG,,,,,,,,,5,2,52,5,,,,,,,,,,,,,,,AFNE01.jpg,AFSA08.jpg,AFSA02.jpg,AFNE20.jpg,AFNE20.jpg,FN,3,num_4,16,num_4,0.933443753165,,,2017_Apr_26_1350,60.0076409659,FEMA4ImagesEEG,001,100243,
AFNE01.JPG,AFNE01.JPG,AFNE01.JPG,AFNE01.JPG,AFNE01.JPG,AFNE01.JPG,,,,,,,,,5,3,53,7,,,,,,,,,,,,,,,AFNE07.jpg,AFSA16.jpg,AFSA14.jpg,AFNE03.jpg,AFNE07.jpg,FN,3,num_8,16,num_8,0.800127269235,,,2017_Apr_26_1350,60.0076409659,FEMA4ImagesEEG,001,100243,
AFNE01.JPG,AFNE01.JPG,AFNE01.JPG,AFNE01.JPG,AFNE01.JPG,AFNE01.JPG,,,,,,,,,5,4,54,6,,,,,,,,,,,,,,,AFNE15.jpg,AFNE13.jpg,AFSA13.jpg,AFSA15.jpg,AFSA13.jpg,FS,4,num_2,16,num_2,0.900078548933,,,2017_Apr_26_1350,60.0076409659,FEMA4ImagesEEG,001,100243,
AFNE01.JPG,AFNE01.JPG,AFNE01.JPG,AFNE01.JPG,AFNE01.JPG,AFNE01.JPG,,,,,,,,,5,5,55,3,,,,,,,,,,,,,,,AFNE04.jpg,AFSA13.jpg,AFSA17.jpg,AFNE02.jpg,AFSA17.jpg,FS,4,num_2,32,num_6,0.88344886899,,,2017_Apr_26_1350,60.0076409659,FEMA4ImagesEEG,001,100243,
AFNE01.JPG,AFNE01.JPG,AFNE01.JPG,AFNE01.JPG,AFNE01.JPG,AFNE01.JPG,,,,,,,,,5,6,56,1,,,,,,,,,,,,,,,AFSA16.jpg,AFNE18.jpg,AFNE20.jpg,AFSA20.jpg,AFNE18.jpg,FN,3,num_6,32,num_8,0.76663473167,,,2017_Apr_26_1350,60.0076409659,FEMA4ImagesEEG,001,100243,
AFNE01.JPG,AFNE01.JPG,AFNE01.JPG,AFNE01.JPG,AFNE01.JPG,AFNE01.JPG,,,,,,,,,5,7,57,2,,,,,,,,,,,,,,,AFNE16.jpg,AFNE03.jpg,AFSA18.jpg,AFSA02.jpg,AFSA18.jpg,FS,4,num_2,16,num_2,0.850214847131,,,2017_Apr_26_1350,60.0076409659,FEMA4ImagesEEG,001,100243,
AFNE01.JPG,AFNE01.JPG,AFNE01.JPG,AFNE01.JPG,AFNE01.JPG,AFNE01.JPG,,,,,,,,,5,8,58,0,,,,,,,,,,,,,,,AFNE12.jpg,AFSA16.jpg,AFNE13.jpg,AFSA13.jpg,AFNE12.jpg,FN,3,num_8,16,num_8,1.61672000028,,,2017_Apr_26_1350,60.0076409659,FEMA4ImagesEEG,001,100243,
AFNE01.JPG,AFNE01.JPG,AFNE01.JPG,AFNE01.JPG,AFNE01.JPG,AFNE01.JPG,,,,,,,,,5,9,59,9,,,,,,,,,,,,,,,AFNE17.jpg,AFSA05.jpg,AFNE13.jpg,AFSA01.jpg,AFSA01.jpg,FS,4,num_4,16,num_4,0.900086567504,,,2017_Apr_26_1350,60.0076409659,FEMA4ImagesEEG,001,100243,
,,,,,,,,,,,,,,,,,,,,,,,,,,,,,,,,,,,,,,,,,,,space,24.0316402693,2017_Apr_26_1350,60.0076409659,FEMA4ImagesEEG,001,100243,
AFNE01.JPG,AFNE01.JPG,AFNE01.JPG,AFNE01.JPG,AFNE01.JPG,AFNE01.JPG,,,,,,,,,,,,,0,0,0,9,,,,,,,,,,,AMSA16.jpg,AMSA15.jpg,AMNE01.jpg,AMNE10.jpg,AMNE10.jpg,MN,1,num_4,16,num_4,0.666780956672,,,2017_Apr_26_1350,60.0076409659,FEMA4ImagesEEG,001,100243,
AFNE01.JPG,AFNE01.JPG,AFNE01.JPG,AFNE01.JPG,AFNE01.JPG,AFNE01.JPG,,,,,,,,,,,,,0,1,1,2,,,,,,,,,,,AMNE02.jpg,AMSA18.jpg,AMSA19.jpg,AMNE05.jpg,AMNE05.jpg,MN,1,num_4,32,num_8,1.41676548112,,,2017_Apr_26_1350,60.0076409659,FEMA4ImagesEEG,001,100243,
AFNE01.JPG,AFNE01.JPG,AFNE01.JPG,AFNE01.JPG,AFNE01.JPG,AFNE01.JPG,,,,,,,,,,,,,0,2,2,5,,,,,,,,,,,AMSA14.jpg,AMSA07.jpg,AMNE08.jpg,AMNE09.jpg,AMSA14.jpg,MS,2,num_8,32,num_6,1.01673937298,,,2017_Apr_26_1350,60.0076409659,FEMA4ImagesEEG,001,100243,
AFNE01.JPG,AFNE01.JPG,AFNE01.JPG,AFNE01.JPG,AFNE01.JPG,AFNE01.JPG,,,,,,,,,,,,,0,3,3,1,,,,,,,,,,,AMSA01.jpg,AMNE15.jpg,AMSA05.jpg,AMNE10.jpg,AMNE15.jpg,MN,1,num_6,32,num_8,1.01675059879,,,2017_Apr_26_1350,60.0076409659,FEMA4ImagesEEG,001,100243,
AFNE01.JPG,AFNE01.JPG,AFNE01.JPG,AFNE01.JPG,AFNE01.JPG,AFNE01.JPG,,,,,,,,,,,,,0,4,4,0,,,,,,,,,,,AMSA01.jpg,AMNE18.jpg,AMSA11.jpg,AMNE17.jpg,AMNE18.jpg,MN,1,num_6,16,num_6,1.00011642836,,,2017_Apr_26_1350,60.0076409659,FEMA4ImagesEEG,001,100243,
AFNE01.JPG,AFNE01.JPG,AFNE01.JPG,AFNE01.JPG,AFNE01.JPG,AFNE01.JPG,,,,,,,,,,,,,0,5,5,3,,,,,,,,,,,AMNE15.jpg,AMNE07.jpg,AMSA11.jpg,AMSA19.jpg,AMSA19.jpg,MS,2,num_4,16,num_4,0.983505992568,,,2017_Apr_26_1350,60.0076409659,FEMA4ImagesEEG,001,100243,
AFNE01.JPG,AFNE01.JPG,AFNE01.JPG,AFNE01.JPG,AFNE01.JPG,AFNE01.JPG,,,,,,,,,,,,,0,6,6,6,,,,,,,,,,,AMNE16.jpg,AMSA06.jpg,AMSA14.jpg,AMNE12.jpg,AMSA06.jpg,MS,2,num_6,32,num_8,1.13340949826,,,2017_Apr_26_1350,60.0076409659,FEMA4ImagesEEG,001,100243,
AFNE01.JPG,AFNE01.JPG,AFNE01.JPG,AFNE01.JPG,AFNE01.JPG,AFNE01.JPG,,,,,,,,,,,,,0,7,7,8,,,,,,,,,,,AMNE12.jpg,AMSA13.jpg,AMNE20.jpg,AMSA01.jpg,AMNE12.jpg,MN,1,num_8,32,num_6,2.91665017535,,,2017_Apr_26_1350,60.0076409659,FEMA4ImagesEEG,001,100243,
AFNE01.JPG,AFNE01.JPG,AFNE01.JPG,AFNE01.JPG,AFNE01.JPG,AFNE01.JPG,,,,,,,,,,,,,0,8,8,4,,,,,,,,,,,AMNE20.jpg,AMSA18.jpg,AMSA04.jpg,AMNE12.jpg,AMSA04.jpg,MS,2,num_2,16,num_2,0.750097745215,,,2017_Apr_26_1350,60.0076409659,FEMA4ImagesEEG,001,100243,
AFNE01.JPG,AFNE01.JPG,AFNE01.JPG,AFNE01.JPG,AFNE01.JPG,AFNE01.JPG,,,,,,,,,,,,,0,9,9,7,,,,,,,,,,,AMNE04.jpg,AMSA15.jpg,AMNE03.jpg,AMSA12.jpg,AMNE04.jpg,MN,1,num_8,32,num_6,0.916767565766,,,2017_Apr_26_1350,60.0076409659,FEMA4ImagesEEG,001,100243,
AFNE01.JPG,AFNE01.JPG,AFNE01.JPG,AFNE01.JPG,AFNE01.JPG,AFNE01.JPG,,,,,,,,,,,,,1,0,10,6,,,,,,,,,,,AMNE06.jpg,AMNE13.jpg,AMSA16.jpg,AMSA01.jpg,AMNE13.jpg,MN,1,num_6,32,num_8,1.28350127768,,,2017_Apr_26_1350,60.0076409659,FEMA4ImagesEEG,001,100243,
AFNE01.JPG,AFNE01.JPG,AFNE01.JPG,AFNE01.JPG,AFNE01.JPG,AFNE01.JPG,,,,,,,,,,,,,1,1,11,4,,,,,,,,,,,AMSA01.jpg,AMSA18.jpg,AMNE06.jpg,AMNE17.jpg,AMSA18.jpg,MS,2,num_6,32,num_8,1.50006238371,,,2017_Apr_26_1350,60.0076409659,FEMA4ImagesEEG,001,100243,
AFNE01.JPG,AFNE01.JPG,AFNE01.JPG,AFNE01.JPG,AFNE01.JPG,AFNE01.JPG,,,,,,,,,,,,,1,2,12,0,,,,,,,,,,,AMNE09.jpg,AMSA04.jpg,AMSA13.jpg,AMNE06.jpg,AMNE09.jpg,MN,1,num_8,16,num_8,1.60005151073,,,2017_Apr_26_1350,60.0076409659,FEMA4ImagesEEG,001,100243,
AFNE01.JPG,AFNE01.JPG,AFNE01.JPG,AFNE01.JPG,AFNE01.JPG,AFNE01.JPG,,,,,,,,,,,,,1,3,13,1,,,,,,,,,,,AMSA19.jpg,AMSA02.jpg,AMNE10.jpg,AMNE08.jpg,AMSA02.jpg,MS,2,num_6,16,num_6,0.516815869138,,,2017_Apr_26_1350,60.0076409659,FEMA4ImagesEEG,001,100243,
AFNE01.JPG,AFNE01.JPG,AFNE01.JPG,AFNE01.JPG,AFNE01.JPG,AFNE01.JPG,,,,,,,,,,,,,1,4,14,9,,,,,,,,,,,AMNE16.jpg,AMSA10.jpg,AMNE03.jpg,AMSA17.jpg,AMSA10.jpg,MS,2,num_6,32,num_8,0.833426401136,,,2017_Apr_26_1350,60.0076409659,FEMA4ImagesEEG,001,100243,
AFNE01.JPG,AFNE01.JPG,AFNE01.JPG,AFNE01.JPG,AFNE01.JPG,AFNE01.JPG,,,,,,,,,,,,,1,5,15,2,,,,,,,,,,,AMNE02.jpg,AMSA12.jpg,AMSA10.jpg,AMNE01.jpg,AMNE01.jpg,MN,1,num_4,16,num_4,1.01671435521,,,2017_Apr_26_1350,60.0076409659,FEMA4ImagesEEG,001,100243,
AFNE01.JPG,AFNE01.JPG,AFNE01.JPG,AFNE01.JPG,AFNE01.JPG,AFNE01.JPG,,,,,,,,,,,,,1,6,16,5,,,,,,,,,,,AMSA12.jpg,AMNE02.jpg,AMNE10.jpg,AMSA03.jpg,AMNE02.jpg,MN,1,num_6,32,num_2,1.4497878151,,,2017_Apr_26_1350,60.0076409659,FEMA4ImagesEEG,001,100243,
AFNE01.JPG,AFNE01.JPG,AFNE01.JPG,AFNE01.JPG,AFNE01.JPG,AFNE01.JPG,,,,,,,,,,,,,1,7,17,7,,,,,,,,,,,AMNE13.jpg,AMNE03.jpg,AMSA19.jpg,AMSA09.jpg,AMNE13.jpg,MN,1,num_8,16,num_8,0.833457833622,,,2017_Apr_26_1350,60.0076409659,FEMA4ImagesEEG,001,100243,
AFNE01.JPG,AFNE01.JPG,AFNE01.JPG,AFNE01.JPG,AFNE01.JPG,AFNE01.JPG,,,,,,,,,,,,,1,8,18,8,,,,,,,,,,,AMNE06.jpg,AMSA09.jpg,AMNE10.jpg,AMSA01.jpg,AMNE10.jpg,MN,1,num_2,32,num_8,0.750166062731,,,2017_Apr_26_1350,60.0076409659,FEMA4ImagesEEG,001,100243,
AFNE01.JPG,AFNE01.JPG,AFNE01.JPG,AFNE01.JPG,AFNE01.JPG,AFNE01.JPG,,,,,,,,,,,,,1,9,19,3,,,,,,,,,,,AMSA18.jpg,AMNE09.jpg,AMSA17.jpg,AMNE10.jpg,AMNE09.jpg,MN,1,num_6,32,num_8,1.3167093196,,,2017_Apr_26_1350,60.0076409659,FEMA4ImagesEEG,001,100243,
AFNE01.JPG,AFNE01.JPG,AFNE01.JPG,AFNE01.JPG,AFNE01.JPG,AFNE01.JPG,,,,,,,,,,,,,2,0,20,9,,,,,,,,,,,AMSA06.jpg,AMNE06.jpg,AMSA05.jpg,AMNE12.jpg,AMSA05.jpg,MS,2,num_2,32,num_6,0.916849354282,,,2017_Apr_26_1350,60.0076409659,FEMA4ImagesEEG,001,100243,
AFNE01.JPG,AFNE01.JPG,AFNE01.JPG,AFNE01.JPG,AFNE01.JPG,AFNE01.JPG,,,,,,,,,,,,,2,1,21,2,,,,,,,,,,,AMSA13.jpg,AMNE17.jpg,AMNE11.jpg,AMSA07.jpg,AMNE17.jpg,MN,1,num_6,32,num_8,0.716752426932,,,2017_Apr_26_1350,60.0076409659,FEMA4ImagesEEG,001,100243,
AFNE01.JPG,AFNE01.JPG,AFNE01.JPG,AFNE01.JPG,AFNE01.JPG,AFNE01.JPG,,,,,,,,,,,,,2,2,22,1,,,,,,,,,,,AMNE02.jpg,AMSA05.jpg,AMNE11.jpg,AMSA02.jpg,AMSA02.jpg,MS,2,num_4,16,num_4,1.25007769908,,,2017_Apr_26_1350,60.0076409659,FEMA4ImagesEEG,001,100243,
AFNE01.JPG,AFNE01.JPG,AFNE01.JPG,AFNE01.JPG,AFNE01.JPG,AFNE01.JPG,,,,,,,,,,,,,2,3,23,0,,,,,,,,,,,AMNE16.jpg,AMSA16.jpg,AMSA14.jpg,AMNE11.jpg,AMSA16.jpg,MS,2,num_6,32,num_8,1.18347622792,,,2017_Apr_26_1350,60.0076409659,FEMA4ImagesEEG,001,100243,
AFNE01.JPG,AFNE01.JPG,AFNE01.JPG,AFNE01.JPG,AFNE01.JPG,AFNE01.JPG,,,,,,,,,,,,,2,4,24,5,,,,,,,,,,,AMSA02.jpg,AMNE09.jpg,AMSA06.jpg,AMNE13.jpg,AMNE13.jpg,MN,1,num_4,32,num_6,1.05013761309,,,2017_Apr_26_1350,60.0076409659,FEMA4ImagesEEG,001,100243,
AFNE01.JPG,AFNE01.JPG,AFNE01.JPG,AFNE01.JPG,AFNE01.JPG,AFNE01.JPG,,,,,,,,,,,,,2,5,25,3,,,,,,,,,,,AMSA02.jpg,AMSA19.jpg,AMNE01.jpg,AMNE12.jpg,AMSA02.jpg,MS,2,num_8,32,num_2,0.966606570873,,,2017_Apr_26_1350,60.0076409659,FEMA4ImagesEEG,001,100243,
AFNE01.JPG,AFNE01.JPG,AFNE01.JPG,AFNE01.JPG,AFNE01.JPG,AFNE01.JPG,,,,,,,,,,,,,2,6,26,8,,,,,,,,,,,AMNE17.jpg,AMSA16.jpg,AMSA04.jpg,AMNE01.jpg,AMSA16.jpg,MS,2,num_6,16,num_6,2.13354324643,,,2017_Apr_26_1350,60.0076409659,FEMA4ImagesEEG,001,100243,
AFNE01.JPG,AFNE01.JPG,AFNE01.JPG,AFNE01.JPG,AFNE01.JPG,AFNE01.JPG,,,,,,,,,,,,,2,7,27,6,,,,,,,,,,,AMNE13.jpg,AMNE12.jpg,AMSA14.jpg,AMSA06.jpg,AMSA14.jpg,MS,2,num_2,16,num_2,0.550137132057,,,2017_Apr_26_1350,60.0076409659,FEMA4ImagesEEG,001,100243,
AFNE01.JPG,AFNE01.JPG,AFNE01.JPG,AFNE01.JPG,AFNE01.JPG,AFNE01.JPG,,,,,,,,,,,,,2,8,28,7,,,,,,,,,,,AMSA11.jpg,AMNE14.jpg,AMNE04.jpg,AMSA01.jpg,AMNE04.jpg,MN,1,num_2,32,num_4,0.750171194552,,,2017_Apr_26_1350,60.0076409659,FEMA4ImagesEEG,001,100243,
AFNE01.JPG,AFNE01.JPG,AFNE01.JPG,AFNE01.JPG,AFNE01.JPG,AFNE01.JPG,,,,,,,,,,,,,2,9,29,4,,,,,,,,,,,AMNE03.jpg,AMNE08.jpg,AMSA08.jpg,AMSA09.jpg,AMSA09.jpg,MS,2,num_4,32,num_8,0.933419697685,,,2017_Apr_26_1350,60.0076409659,FEMA4ImagesEEG,001,100243,
AFNE01.JPG,AFNE01.JPG,AFNE01.JPG,AFNE01.JPG,AFNE01.JPG,AFNE01.JPG,,,,,,,,,,,,,3,0,30,8,,,,,,,,,,,AMNE13.jpg,AMSA15.jpg,AMNE18.jpg,AMSA17.jpg,AMSA17.jpg,MS,2,num_4,32,num_6,0.900344120921,,,2017_Apr_26_1350,60.0076409659,FEMA4ImagesEEG,001,100243,
AFNE01.JPG,AFNE01.JPG,AFNE01.JPG,AFNE01.JPG,AFNE01.JPG,AFNE01.JPG,,,,,,,,,,,,,3,1,31,7,,,,,,,,,,,AMSA08.jpg,AMNE15.jpg,AMSA06.jpg,AMNE16.jpg,AMNE15.jpg,MN,1,num_6,32,num_8,0.90010773635,,,2017_Apr_26_1350,60.0076409659,FEMA4ImagesEEG,001,100243,
AFNE01.JPG,AFNE01.JPG,AFNE01.JPG,AFNE01.JPG,AFNE01.JPG,AFNE01.JPG,,,,,,,,,,,,,3,2,32,2,,,,,,,,,,,AMSA17.jpg,AMSA14.jpg,AMNE13.jpg,AMNE01.jpg,AMSA14.jpg,MS,2,num_6,16,num_6,0.666763957473,,,2017_Apr_26_1350,60.0076409659,FEMA4ImagesEEG,001,100243,
AFNE01.JPG,AFNE01.JPG,AFNE01.JPG,AFNE01.JPG,AFNE01.JPG,AFNE01.JPG,,,,,,,,,,,,,3,3,33,3,,,,,,,,,,,AMNE01.jpg,AMSA09.jpg,AMSA07.jpg,AMNE19.jpg,AMNE19.jpg,MN,1,num_4,32,num_8,0.933499561623,,,2017_Apr_26_1350,60.0076409659,FEMA4ImagesEEG,001,100243,
AFNE01.JPG,AFNE01.JPG,AFNE01.JPG,AFNE01.JPG,AFNE01.JPG,AFNE01.JPG,,,,,,,,,,,,,3,4,34,9,,,,,,,,,,,AMNE13.jpg,AMSA20.jpg,AMNE09.jpg,AMSA19.jpg,AMSA19.jpg,MS,2,num_4,32,num_2,0.900087529677,,,2017_Apr_26_1350,60.0076409659,FEMA4ImagesEEG,001,100243,
AFNE01.JPG,AFNE01.JPG,AFNE01.JPG,AFNE01.JPG,AFNE01.JPG,AFNE01.JPG,,,,,,,,,,,,,3,5,35,4,,,,,,,,,,,AMNE20.jpg,AMSA15.jpg,AMSA11.jpg,AMNE06.jpg,AMSA15.jpg,MS,2,num_6,32,num_4,0.800099364948,,,2017_Apr_26_1350,60.0076409659,FEMA4ImagesEEG,001,100243,
AFNE01.JPG,AFNE01.JPG,AFNE01.JPG,AFNE01.JPG,AFNE01.JPG,AFNE01.JPG,,,,,,,,,,,,,3,6,36,1,,,,,,,,,,,AMNE11.jpg,AMSA06.jpg,AMSA05.jpg,AMNE18.jpg,AMNE18.jpg,MN,1,num_4,32,num_8,0.783430875512,,,2017_Apr_26_1350,60.0076409659,FEMA4ImagesEEG,001,100243,
AFNE01.JPG,AFNE01.JPG,AFNE01.JPG,AFNE01.JPG,AFNE01.JPG,AFNE01.JPG,,,,,,,,,,,,,3,7,37,0,,,,,,,,,,,AMNE14.jpg,AMNE13.jpg,AMSA07.jpg,AMSA14.jpg,AMSA07.jpg,MS,2,num_2,32,num_6,0.31682093686,,,2017_Apr_26_1350,60.0076409659,FEMA4ImagesEEG,001,100243,
AFNE01.JPG,AFNE01.JPG,AFNE01.JPG,AFNE01.JPG,AFNE01.JPG,AFNE01.JPG,,,,,,,,,,,,,3,8,38,6,,,,,,,,,,,AMSA07.jpg,AMSA13.jpg,AMNE12.jpg,AMNE04.jpg,AMSA13.jpg,MS,2,num_6,16,num_6,1.00009974989,,,2017_Apr_26_1350,60.0076409659,FEMA4ImagesEEG,001,100243,
AFNE01.JPG,AFNE01.JPG,AFNE01.JPG,AFNE01.JPG,AFNE01.JPG,AFNE01.JPG,,,,,,,,,,,,,3,9,39,5,,,,,,,,,,,AMSA12.jpg,AMSA14.jpg,AMNE20.jpg,AMNE13.jpg,AMNE20.jpg,MN,1,num_2,32,num_8,1.30011524155,,,2017_Apr_26_1350,60.0076409659,FEMA4ImagesEEG,001,100243,
AFNE01.JPG,AFNE01.JPG,AFNE01.JPG,AFNE01.JPG,AFNE01.JPG,AFNE01.JPG,,,,,,,,,,,,,4,0,40,9,,,,,,,,,,,AMNE11.jpg,AMSA15.jpg,AMNE10.jpg,AMSA14.jpg,AMSA15.jpg,MS,2,num_6,32,num_2,1.48339389416,,,2017_Apr_26_1350,60.0076409659,FEMA4ImagesEEG,001,100243,
AFNE01.JPG,AFNE01.JPG,AFNE01.JPG,AFNE01.JPG,AFNE01.JPG,AFNE01.JPG,,,,,,,,,,,,,4,1,41,0,,,,,,,,,,,AMNE13.jpg,AMSA14.jpg,AMNE09.jpg,AMSA09.jpg,AMSA14.jpg,MS,2,num_6,16,num_6,0.866748626227,,,2017_Apr_26_1350,60.0076409659,FEMA4ImagesEEG,001,100243,
AFNE01.JPG,AFNE01.JPG,AFNE01.JPG,AFNE01.JPG,AFNE01.JPG,AFNE01.JPG,,,,,,,,,,,,,4,2,42,7,,,,,,,,,,,AMSA03.jpg,AMSA20.jpg,AMNE07.jpg,AMNE16.jpg,AMSA03.jpg,MS,2,num_8,16,num_8,1.05012253835,,,2017_Apr_26_1350,60.0076409659,FEMA4ImagesEEG,001,100243,
AFNE01.JPG,AFNE01.JPG,AFNE01.JPG,AFNE01.JPG,AFNE01.JPG,AFNE01.JPG,,,,,,,,,,,,,4,3,43,1,,,,,,,,,,,AMSA19.jpg,AMSA15.jpg,AMNE02.jpg,AMNE12.jpg,AMSA19.jpg,MS,2,num_8,32,num_6,1.08346881892,,,2017_Apr_26_1350,60.0076409659,FEMA4ImagesEEG,001,100243,
AFNE01.JPG,AFNE01.JPG,AFNE01.JPG,AFNE01.JPG,AFNE01.JPG,AFNE01.JPG,,,,,,,,,,,,,4,4,44,5,,,,,,,,,,,AMNE16.jpg,AMSA19.jpg,AMNE13.jpg,AMSA20.jpg,AMNE13.jpg,MN,1,num_2,32,num_8,0.833462323993,,,2017_Apr_26_1350,60.0076409659,FEMA4ImagesEEG,001,100243,
AFNE01.JPG,AFNE01.JPG,AFNE01.JPG,AFNE01.JPG,AFNE01.JPG,AFNE01.JPG,,,,,,,,,,,,,4,5,45,4,,,,,,,,,,,AMNE19.jpg,AMNE09.jpg,AMSA15.jpg,AMSA18.jpg,AMSA15.jpg,MS,2,num_2,32,num_4,1.13341559225,,,2017_Apr_26_1350,60.0076409659,FEMA4ImagesEEG,001,100243,
AFNE01.JPG,AFNE01.JPG,AFNE01.JPG,AFNE01.JPG,AFNE01.JPG,AFNE01.JPG,,,,,,,,,,,,,4,6,46,3,,,,,,,,,,,AMSA08.jpg,AMNE15.jpg,AMNE19.jpg,AMSA11.jpg,AMSA11.jpg,MS,2,num_4,16,num_4,0.966760204872,,,2017_Apr_26_1350,60.0076409659,FEMA4ImagesEEG,001,100243,
AFNE01.JPG,AFNE01.JPG,AFNE01.JPG,AFNE01.JPG,AFNE01.JPG,AFNE01.JPG,,,,,,,,,,,,,4,7,47,2,,,,,,,,,,,AMNE01.jpg,AMNE16.jpg,AMSA04.jpg,AMSA13.jpg,AMNE16.jpg,MN,1,num_6,32,num_8,1.2000754379,,,2017_Apr_26_1350,60.0076409659,FEMA4ImagesEEG,001,100243,
AFNE01.JPG,AFNE01.JPG,AFNE01.JPG,AFNE01.JPG,AFNE01.JPG,AFNE01.JPG,,,,,,,,,,,,,4,8,48,8,,,,,,,,,,,AMNE16.jpg,AMSA20.jpg,AMNE05.jpg,AMSA17.jpg,AMNE16.jpg,MN,1,num_8,16,num_8,0.800112515222,,,2017_Apr_26_1350,60.0076409659,FEMA4ImagesEEG,001,100243,
AFNE01.JPG,AFNE01.JPG,AFNE01.JPG,AFNE01.JPG,AFNE01.JPG,AFNE01.JPG,,,,,,,,,,,,,4,9,49,6,,,,,,,,,,,AMSA17.jpg,AMNE06.jpg,AMNE03.jpg,AMSA20.jpg,AMNE06.jpg,MN,1,num_6,16,num_6,0.883462339989,,,2017_Apr_26_1350,60.0076409659,FEMA4ImagesEEG,001,100243,
AFNE01.JPG,AFNE01.JPG,AFNE01.JPG,AFNE01.JPG,AFNE01.JPG,AFNE01.JPG,,,,,,,,,,,,,5,0,50,9,,,,,,,,,,,AMNE08.jpg,AMSA19.jpg,AMSA04.jpg,AMNE20.jpg,AMSA04.jpg,MS,2,num_2,16,num_2,1.36675905029,,,2017_Apr_26_1350,60.0076409659,FEMA4ImagesEEG,001,100243,
AFNE01.JPG,AFNE01.JPG,AFNE01.JPG,AFNE01.JPG,AFNE01.JPG,AFNE01.JPG,,,,,,,,,,,,,5,1,51,4,,,,,,,,,,,AMNE17.jpg,AMSA15.jpg,AMNE12.jpg,AMSA16.jpg,AMNE12.jpg,MN,1,num_2,16,num_2,1.11673972569,,,2017_Apr_26_1350,60.0076409659,FEMA4ImagesEEG,001,100243,
AFNE01.JPG,AFNE01.JPG,AFNE01.JPG,AFNE01.JPG,AFNE01.JPG,AFNE01.JPG,,,,,,,,,,,,,5,2,52,8,,,,,,,,,,,AMNE13.jpg,AMNE05.jpg,AMSA02.jpg,AMSA16.jpg,AMNE13.jpg,MN,1,num_8,16,num_8,0.816772344871,,,2017_Apr_26_1350,60.0076409659,FEMA4ImagesEEG,001,100243,
AFNE01.JPG,AFNE01.JPG,AFNE01.JPG,AFNE01.JPG,AFNE01.JPG,AFNE01.JPG,,,,,,,,,,,,,5,3,53,2,,,,,,,,,,,AMNE20.jpg,AMNE19.jpg,AMSA13.jpg,AMSA15.jpg,AMSA15.jpg,MS,2,num_4,16,num_4,0.883555354318,,,2017_Apr_26_1350,60.0076409659,FEMA4ImagesEEG,001,100243,
AFNE01.JPG,AFNE01.JPG,AFNE01.JPG,AFNE01.JPG,AFNE01.JPG,AFNE01.JPG,,,,,,,,,,,,,5,4,54,7,,,,,,,,,,,AMNE09.jpg,AMNE03.jpg,AMSA03.jpg,AMSA11.jpg,AMNE09.jpg,MN,1,num_8,16,num_8,0.816752779763,,,2017_Apr_26_1350,60.0076409659,FEMA4ImagesEEG,001,100243,
AFNE01.JPG,AFNE01.JPG,AFNE01.JPG,AFNE01.JPG,AFNE01.JPG,AFNE01.JPG,,,,,,,,,,,,,5,5,55,3,,,,,,,,,,,AMNE08.jpg,AMSA01.jpg,AMNE03.jpg,AMSA20.jpg,AMNE03.jpg,MN,1,num_2,32,num_6,1.05009335116,,,2017_Apr_26_1350,60.0076409659,FEMA4ImagesEEG,001,100243,
AFNE01.JPG,AFNE01.JPG,AFNE01.JPG,AFNE01.JPG,AFNE01.JPG,AFNE01.JPG,,,,,,,,,,,,,5,6,56,1,,,,,,,,,,,AMNE17.jpg,AMNE06.jpg,AMSA07.jpg,AMSA15.jpg,AMNE06.jpg,MN,1,num_6,32,num_8,1.20008794661,,,2017_Apr_26_1350,60.0076409659,FEMA4ImagesEEG,001,100243,
AFNE01.JPG,AFNE01.JPG,AFNE01.JPG,AFNE01.JPG,AFNE01.JPG,AFNE01.JPG,,,,,,,,,,,,,5,7,57,6,,,,,,,,,,,AMNE02.jpg,AMNE04.jpg,AMSA19.jpg,AMSA18.jpg,AMSA19.jpg,MS,2,num_2,32,num_6,0.866756965406,,,2017_Apr_26_1350,60.0076409659,FEMA4ImagesEEG,001,100243,
AFNE01.JPG,AFNE01.JPG,AFNE01.JPG,AFNE01.JPG,AFNE01.JPG,AFNE01.JPG,,,,,,,,,,,,,5,8,58,0,,,,,,,,,,,AMSA13.jpg,AMSA05.jpg,AMNE18.jpg,AMNE08.jpg,AMNE18.jpg,MN,1,num_2,32,num_8,0.783444346394,,,2017_Apr_26_1350,60.0076409659,FEMA4ImagesEEG,001,100243,
AFNE01.JPG,AFNE01.JPG,AFNE01.JPG,AFNE01.JPG,AFNE01.JPG,AFNE01.JPG,,,,,,,,,,,,,5,9,59,5,,,,,,,,,,,AMSA18.jpg,AMSA07.jpg,AMNE14.jpg,AMNE04.jpg,AMSA18.jpg,MS,2,num_8,32,num_2,0.650162823149,,,2017_Apr_26_1350,60.0076409659,FEMA4ImagesEEG,001,100243,
,,,,,,,,,,,,,,,,,,,,,,,,,,,,,,,,,,,,,,,,,,,space,25.9147642294,2017_Apr_26_1350,60.0076409659,FEMA4ImagesEEG,001,100243,
AFNE01.JPG,AFNE01.JPG,AFNE01.JPG,AFNE01.JPG,AFNE01.JPG,AFNE01.JPG,,,,,,,,,,,,,,,,,0,0,0,7,,,,,,,AFNE04.jpg,AFSA20.jpg,AFNE10.jpg,AFSA14.jpg,AFSA20.jpg,FS,4,num_6,16,num_6,1.26668781403,,,2017_Apr_26_1350,60.0076409659,FEMA4ImagesEEG,001,100243,
AFNE01.JPG,AFNE01.JPG,AFNE01.JPG,AFNE01.JPG,AFNE01.JPG,AFNE01.JPG,,,,,,,,,,,,,,,,,0,1,1,3,,,,,,,AFNE02.jpg,AFSA06.jpg,AFNE13.jpg,AFSA16.jpg,AFNE13.jpg,FN,3,num_2,32,num_8,1.04997339472,,,2017_Apr_26_1350,60.0076409659,FEMA4ImagesEEG,001,100243,
AFNE01.JPG,AFNE01.JPG,AFNE01.JPG,AFNE01.JPG,AFNE01.JPG,AFNE01.JPG,,,,,,,,,,,,,,,,,0,2,2,5,,,,,,,AFSA16.jpg,AFSA02.jpg,AFNE04.jpg,AFNE12.jpg,AFNE12.jpg,FN,3,num_4,16,num_4,1.15009338316,,,2017_Apr_26_1350,60.0076409659,FEMA4ImagesEEG,001,100243,
AFNE01.JPG,AFNE01.JPG,AFNE01.JPG,AFNE01.JPG,AFNE01.JPG,AFNE01.JPG,,,,,,,,,,,,,,,,,0,3,3,9,,,,,,,AFNE07.jpg,AFSA08.jpg,AFSA05.jpg,AFNE13.jpg,AFNE13.jpg,FN,3,num_4,32,num_6,0.800155173521,,,2017_Apr_26_1350,60.0076409659,FEMA4ImagesEEG,001,100243,
AFNE01.JPG,AFNE01.JPG,AFNE01.JPG,AFNE01.JPG,AFNE01.JPG,AFNE01.JPG,,,,,,,,,,,,,,,,,0,4,4,1,,,,,,,AFNE17.jpg,AFSA15.jpg,AFNE01.jpg,AFSA02.jpg,AFNE01.jpg,FN,3,num_2,32,num_8,0.816729365848,,,2017_Apr_26_1350,60.0076409659,FEMA4ImagesEEG,001,100243,
AFNE01.JPG,AFNE01.JPG,AFNE01.JPG,AFNE01.JPG,AFNE01.JPG,AFNE01.JPG,,,,,,,,,,,,,,,,,0,5,5,0,,,,,,,AFSA09.jpg,AFNE11.jpg,AFNE09.jpg,AFSA19.jpg,AFNE09.jpg,FN,3,num_2,32,num_6,0.916778150247,,,2017_Apr_26_1350,60.0076409659,FEMA4ImagesEEG,001,100243,
AFNE01.JPG,AFNE01.JPG,AFNE01.JPG,AFNE01.JPG,AFNE01.JPG,AFNE01.JPG,,,,,,,,,,,,,,,,,0,6,6,6,,,,,,,AFSA08.jpg,AFSA11.jpg,AFNE11.jpg,AFNE13.jpg,AFNE13.jpg,FN,3,num_4,32,num_2,0.766732557095,,,2017_Apr_26_1350,60.0076409659,FEMA4ImagesEEG,001,100243,
AFNE01.JPG,AFNE01.JPG,AFNE01.JPG,AFNE01.JPG,AFNE01.JPG,AFNE01.JPG,,,,,,,,,,,,,,,,,0,7,7,2,,,,,,,AFSA10.jpg,AFNE07.jpg,AFNE16.jpg,AFSA06.jpg,AFSA06.jpg,FS,4,num_4,16,num_4,0.816650464083,,,2017_Apr_26_1350,60.0076409659,FEMA4ImagesEEG,001,100243,
AFNE01.JPG,AFNE01.JPG,AFNE01.JPG,AFNE01.JPG,AFNE01.JPG,AFNE01.JPG,,,,,,,,,,,,,,,,,0,8,8,8,,,,,,,AFSA13.jpg,AFSA04.jpg,AFNE14.jpg,AFNE10.jpg,AFNE10.jpg,FN,3,num_4,32,num_2,2.38337493862,,,2017_Apr_26_1350,60.0076409659,FEMA4ImagesEEG,001,100243,
AFNE01.JPG,AFNE01.JPG,AFNE01.JPG,AFNE01.JPG,AFNE01.JPG,AFNE01.JPG,,,,,,,,,,,,,,,,,0,9,9,4,,,,,,,AFNE20.jpg,AFNE10.jpg,AFSA09.jpg,AFSA15.jpg,AFNE20.jpg,FN,3,num_8,32,num_6,1.15008055361,,,2017_Apr_26_1350,60.0076409659,FEMA4ImagesEEG,001,100243,
AFNE01.JPG,AFNE01.JPG,AFNE01.JPG,AFNE01.JPG,AFNE01.JPG,AFNE01.JPG,,,,,,,,,,,,,,,,,1,0,10,4,,,,,,,AFNE10.jpg,AFSA13.jpg,AFSA19.jpg,AFNE09.jpg,AFNE09.jpg,FN,3,num_4,16,num_4,0.716736069182,,,2017_Apr_26_1350,60.0076409659,FEMA4ImagesEEG,001,100243,
AFNE01.JPG,AFNE01.JPG,AFNE01.JPG,AFNE01.JPG,AFNE01.JPG,AFNE01.JPG,,,,,,,,,,,,,,,,,1,1,11,8,,,,,,,AFNE07.jpg,AFSA03.jpg,AFNE18.jpg,AFSA07.jpg,AFNE07.jpg,FN,3,num_8,16,num_8,0.916718172026,,,2017_Apr_26_1350,60.0076409659,FEMA4ImagesEEG,001,100243,
AFNE01.JPG,AFNE01.JPG,AFNE01.JPG,AFNE01.JPG,AFNE01.JPG,AFNE01.JPG,,,,,,,,,,,,,,,,,1,2,12,2,,,,,,,AFNE17.jpg,AFSA18.jpg,AFNE05.jpg,AFSA11.jpg,AFNE17.jpg,FN,3,num_8,32,num_6,1.06677338725,,,2017_Apr_26_1350,60.0076409659,FEMA4ImagesEEG,001,100243,
AFNE01.JPG,AFNE01.JPG,AFNE01.JPG,AFNE01.JPG,AFNE01.JPG,AFNE01.JPG,,,,,,,,,,,,,,,,,1,3,13,5,,,,,,,AFNE08.jpg,AFNE05.jpg,AFSA05.jpg,AFSA04.jpg,AFNE05.jpg,FN,3,num_6,16,num_6,0.616832900327,,,2017_Apr_26_1350,60.0076409659,FEMA4ImagesEEG,001,100243,
AFNE01.JPG,AFNE01.JPG,AFNE01.JPG,AFNE01.JPG,AFNE01.JPG,AFNE01.JPG,,,,,,,,,,,,,,,,,1,4,14,9,,,,,,,AFNE13.jpg,AFSA07.jpg,AFNE11.jpg,AFSA11.jpg,AFSA07.jpg,FS,4,num_6,16,num_6,1.21674168215,,,2017_Apr_26_1350,60.0076409659,FEMA4ImagesEEG,001,100243,
AFNE01.JPG,AFNE01.JPG,AFNE01.JPG,AFNE01.JPG,AFNE01.JPG,AFNE01.JPG,,,,,,,,,,,,,,,,,1,5,15,3,,,,,,,AFNE15.jpg,AFNE02.jpg,AFSA01.jpg,AFSA19.jpg,AFSA01.jpg,FS,4,num_2,32,num_4,0.883153468138,,,2017_Apr_26_1350,60.0076409659,FEMA4ImagesEEG,001,100243,
AFNE01.JPG,AFNE01.JPG,AFNE01.JPG,AFNE01.JPG,AFNE01.JPG,AFNE01.JPG,,,,,,,,,,,,,,,,,1,6,16,7,,,,,,,AFSA08.jpg,AFNE18.jpg,AFNE07.jpg,AFSA05.jpg,AFSA08.jpg,FS,4,num_8,16,num_8,0.750107046682,,,2017_Apr_26_1350,60.0076409659,FEMA4ImagesEEG,001,100243,
AFNE01.JPG,AFNE01.JPG,AFNE01.JPG,AFNE01.JPG,AFNE01.JPG,AFNE01.JPG,,,,,,,,,,,,,,,,,1,7,17,0,,,,,,,AFNE16.jpg,AFSA10.jpg,AFSA01.jpg,AFNE01.jpg,AFNE16.jpg,FN,3,num_8,32,num_4,1.38339771098,,,2017_Apr_26_1350,60.0076409659,FEMA4ImagesEEG,001,100243,
AFNE01.JPG,AFNE01.JPG,AFNE01.JPG,AFNE01.JPG,AFNE01.JPG,AFNE01.JPG,,,,,,,,,,,,,,,,,1,8,18,6,,,,,,,AFNE08.jpg,AFNE13.jpg,AFSA11.jpg,AFSA15.jpg,AFNE08.jpg,FN,3,num_8,16,num_8,2.26667306013,,,2017_Apr_26_1350,60.0076409659,FEMA4ImagesEEG,001,100243,
AFNE01.JPG,AFNE01.JPG,AFNE01.JPG,AFNE01.JPG,AFNE01.JPG,AFNE01.JPG,,,,,,,,,,,,,,,,,1,9,19,1,,,,,,,AFNE11.jpg,AFNE20.jpg,AFSA19.jpg,AFSA17.jpg,AFSA19.jpg,FS,4,num_2,32,num_6,1.10014789284,,,2017_Apr_26_1350,60.0076409659,FEMA4ImagesEEG,001,100243,
AFNE01.JPG,AFNE01.JPG,AFNE01.JPG,AFNE01.JPG,AFNE01.JPG,AFNE01.JPG,,,,,,,,,,,,,,,,,2,0,20,2,,,,,,,AFNE02.jpg,AFNE15.jpg,AFSA17.jpg,AFSA14.jpg,AFNE15.jpg,FN,3,num_6,32,num_8,1.7334321423,,,2017_Apr_26_1350,60.0076409659,FEMA4ImagesEEG,001,100243,
AFNE01.JPG,AFNE01.JPG,AFNE01.JPG,AFNE01.JPG,AFNE01.JPG,AFNE01.JPG,,,,,,,,,,,,,,,,,2,1,21,6,,,,,,,AFNE18.jpg,AFSA10.jpg,AFSA02.jpg,AFNE15.jpg,AFSA10.jpg,FS,4,num_6,16,num_6,0.683509103721,,,2017_Apr_26_1350,60.0076409659,FEMA4ImagesEEG,001,100243,
AFNE01.JPG,AFNE01.JPG,AFNE01.JPG,AFNE01.JPG,AFNE01.JPG,AFNE01.JPG,,,,,,,,,,,,,,,,,2,2,22,9,,,,,,,AFSA10.jpg,AFNE12.jpg,AFSA19.jpg,AFNE03.jpg,AFSA19.jpg,FS,4,num_2,16,num_2,0.966867652372,,,2017_Apr_26_1350,60.0076409659,FEMA4ImagesEEG,001,100243,
AFNE01.JPG,AFNE01.JPG,AFNE01.JPG,AFNE01.JPG,AFNE01.JPG,AFNE01.JPG,,,,,,,,,,,,,,,,,2,3,23,8,,,,,,,AFNE18.jpg,AFSA14.jpg,AFSA15.jpg,AFNE20.jpg,AFNE20.jpg,FN,3,num_4,16,num_4,1.50008708076,,,2017_Apr_26_1350,60.0076409659,FEMA4ImagesEEG,001,100243,
AFNE01.JPG,AFNE01.JPG,AFNE01.JPG,AFNE01.JPG,AFNE01.JPG,AFNE01.JPG,,,,,,,,,,,,,,,,,2,4,24,0,,,,,,,AFSA10.jpg,AFNE13.jpg,AFNE14.jpg,AFSA13.jpg,AFSA13.jpg,FS,4,num_4,32,num_8,0.916724266135,,,2017_Apr_26_1350,60.0076409659,FEMA4ImagesEEG,001,100243,
AFNE01.JPG,AFNE01.JPG,AFNE01.JPG,AFNE01.JPG,AFNE01.JPG,AFNE01.JPG,,,,,,,,,,,,,,,,,2,5,25,3,,,,,,,AFSA04.jpg,AFNE04.jpg,AFSA12.jpg,AFNE14.jpg,AFNE14.jpg,FN,3,num_4,32,num_2,0.850102909142,,,2017_Apr_26_1350,60.0076409659,FEMA4ImagesEEG,001,100243,
AFNE01.JPG,AFNE01.JPG,AFNE01.JPG,AFNE01.JPG,AFNE01.JPG,AFNE01.JPG,,,,,,,,,,,,,,,,,2,6,26,5,,,,,,,AFSA10.jpg,AFSA02.jpg,AFNE18.jpg,AFNE03.jpg,AFSA02.jpg,FS,4,num_6,16,num_6,0.833453984582,,,2017_Apr_26_1350,60.0076409659,FEMA4ImagesEEG,001,100243,
AFNE01.JPG,AFNE01.JPG,AFNE01.JPG,AFNE01.JPG,AFNE01.JPG,AFNE01.JPG,,,,,,,,,,,,,,,,,2,7,27,1,,,,,,,AFNE16.jpg,AFSA06.jpg,AFSA04.jpg,AFNE10.jpg,AFNE16.jpg,FN,3,num_8,32,num_2,2.04971103021,,,2017_Apr_26_1350,60.0076409659,FEMA4ImagesEEG,001,100243,
AFNE01.JPG,AFNE01.JPG,AFNE01.JPG,AFNE01.JPG,AFNE01.JPG,AFNE01.JPG,,,,,,,,,,,,,,,,,2,8,28,4,,,,,,,AFNE08.jpg,AFNE17.jpg,AFSA09.jpg,AFSA12.jpg,AFSA12.jpg,FS,4,num_4,16,num_4,1.13343130844,,,2017_Apr_26_1350,60.0076409659,FEMA4ImagesEEG,001,100243,
AFNE01.JPG,AFNE01.JPG,AFNE01.JPG,AFNE01.JPG,AFNE01.JPG,AFNE01.JPG,,,,,,,,,,,,,,,,,2,9,29,7,,,,,,,AFNE06.jpg,AFSA03.jpg,AFSA13.jpg,AFNE15.jpg,AFNE15.jpg,FN,3,num_4,16,num_4,1.01680127555,,,2017_Apr_26_1350,60.0076409659,FEMA4ImagesEEG,001,100243,
AFNE01.JPG,AFNE01.JPG,AFNE01.JPG,AFNE01.JPG,AFNE01.JPG,AFNE01.JPG,,,,,,,,,,,,,,,,,3,0,30,7,,,,,,,AFNE04.jpg,AFSA12.jpg,AFSA16.jpg,AFNE12.jpg,AFNE12.jpg,FN,3,num_4,16,num_4,0.78374584124,,,2017_Apr_26_1350,60.0076409659,FEMA4ImagesEEG,001,100243,
AFNE01.JPG,AFNE01.JPG,AFNE01.JPG,AFNE01.JPG,AFNE01.JPG,AFNE01.JPG,,,,,,,,,,,,,,,,,3,1,31,3,,,,,,,AFNE19.jpg,AFNE14.jpg,AFSA04.jpg,AFSA03.jpg,AFSA03.jpg,FS,4,num_4,32,num_2,1.06685902458,,,2017_Apr_26_1350,60.0076409659,FEMA4ImagesEEG,001,100243,
AFNE01.JPG,AFNE01.JPG,AFNE01.JPG,AFNE01.JPG,AFNE01.JPG,AFNE01.JPG,,,,,,,,,,,,,,,,,3,2,32,5,,,,,,,AFNE14.jpg,AFSA03.jpg,AFSA12.jpg,AFNE08.jpg,AFNE08.jpg,FN,3,num_4,32,num_8,0.916762113222,,,2017_Apr_26_1350,60.0076409659,FEMA4ImagesEEG,001,100243,
AFNE01.JPG,AFNE01.JPG,AFNE01.JPG,AFNE01.JPG,AFNE01.JPG,AFNE01.JPG,,,,,,,,,,,,,,,,,3,3,33,4,,,,,,,AFNE12.jpg,AFSA12.jpg,AFNE14.jpg,AFSA07.jpg,AFNE14.jpg,FN,3,num_2,32,num_4,3.86649428017,,,2017_Apr_26_1350,60.0076409659,FEMA4ImagesEEG,001,100243,
AFNE01.JPG,AFNE01.JPG,AFNE01.JPG,AFNE01.JPG,AFNE01.JPG,AFNE01.JPG,,,,,,,,,,,,,,,,,3,4,34,8,,,,,,,AFNE14.jpg,AFSA10.jpg,AFNE12.jpg,AFSA16.jpg,AFSA16.jpg,FS,4,num_4,16,num_4,0.900090416311,,,2017_Apr_26_1350,60.0076409659,FEMA4ImagesEEG,001,100243,
AFNE01.JPG,AFNE01.JPG,AFNE01.JPG,AFNE01.JPG,AFNE01.JPG,AFNE01.JPG,,,,,,,,,,,,,,,,,3,5,35,6,,,,,,,AFNE07.jpg,AFNE05.jpg,AFSA08.jpg,AFSA09.jpg,AFNE07.jpg,FN,3,num_8,16,num_8,0.783442101208,,,2017_Apr_26_1350,60.0076409659,FEMA4ImagesEEG,001,100243,
AFNE01.JPG,AFNE01.JPG,AFNE01.JPG,AFNE01.JPG,AFNE01.JPG,AFNE01.JPG,,,,,,,,,,,,,,,,,3,6,36,2,,,,,,,AFNE06.jpg,AFSA20.jpg,AFNE02.jpg,AFSA02.jpg,AFNE06.jpg,FN,3,num_8,16,num_8,1.93337126612,,,2017_Apr_26_1350,60.0076409659,FEMA4ImagesEEG,001,100243,
AFNE01.JPG,AFNE01.JPG,AFNE01.JPG,AFNE01.JPG,AFNE01.JPG,AFNE01.JPG,,,,,,,,,,,,,,,,,3,7,37,0,,,,,,,AFSA10.jpg,AFNE09.jpg,AFNE01.jpg,AFSA16.jpg,AFNE09.jpg,FN,3,num_6,32,num_8,1.01671082713,,,2017_Apr_26_1350,60.0076409659,FEMA4ImagesEEG,001,100243,
AFNE01.JPG,AFNE01.JPG,AFNE01.JPG,AFNE01.JPG,AFNE01.JPG,AFNE01.JPG,,,,,,,,,,,,,,,,,3,8,38,9,,,,,,,AFNE01.jpg,AFSA06.jpg,AFNE06.jpg,AFSA12.jpg,AFNE06.jpg,FN,3,num_2,32,num_6,0.933459469234,,,2017_Apr_26_1350,60.0076409659,FEMA4ImagesEEG,001,100243,
AFNE01.JPG,AFNE01.JPG,AFNE01.JPG,AFNE01.JPG,AFNE01.JPG,AFNE01.JPG,,,,,,,,,,,,,,,,,3,9,39,1,,,,,,,AFNE13.jpg,AFSA20.jpg,AFNE11.jpg,AFSA05.jpg,AFNE13.jpg,FN,3,num_8,32,num_2,1.11669482221,,,2017_Apr_26_1350,60.0076409659,FEMA4ImagesEEG,001,100243,
AFNE01.JPG,AFNE01.JPG,AFNE01.JPG,AFNE01.JPG,AFNE01.JPG,AFNE01.JPG,,,,,,,,,,,,,,,,,4,0,40,5,,,,,,,AFNE18.jpg,AFSA01.jpg,AFNE14.jpg,AFSA20.jpg,AFNE14.jpg,FN,3,num_2,32,num_8,1.06675221841,,,2017_Apr_26_1350,60.0076409659,FEMA4ImagesEEG,001,100243,
AFNE01.JPG,AFNE01.JPG,AFNE01.JPG,AFNE01.JPG,AFNE01.JPG,AFNE01.JPG,,,,,,,,,,,,,,,,,4,1,41,2,,,,,,,AFSA14.jpg,AFSA20.jpg,AFNE01.jpg,AFNE14.jpg,AFNE14.jpg,FN,3,num_4,16,num_4,0.83347098378,,,2017_Apr_26_1350,60.0076409659,FEMA4ImagesEEG,001,100243,
AFNE01.JPG,AFNE01.JPG,AFNE01.JPG,AFNE01.JPG,AFNE01.JPG,AFNE01.JPG,,,,,,,,,,,,,,,,,4,2,42,0,,,,,,,AFNE18.jpg,AFSA02.jpg,AFNE07.jpg,AFSA06.jpg,AFNE07.jpg,FN,3,num_2,16,num_2,0.900148790795,,,2017_Apr_26_1350,60.0076409659,FEMA4ImagesEEG,001,100243,
AFNE01.JPG,AFNE01.JPG,AFNE01.JPG,AFNE01.JPG,AFNE01.JPG,AFNE01.JPG,,,,,,,,,,,,,,,,,4,3,43,3,,,,,,,AFNE17.jpg,AFSA16.jpg,AFNE04.jpg,AFSA06.jpg,AFSA16.jpg,FS,4,num_6,16,num_6,0.750099348952,,,2017_Apr_26_1350,60.0076409659,FEMA4ImagesEEG,001,100243,
AFNE01.JPG,AFNE01.JPG,AFNE01.JPG,AFNE01.JPG,AFNE01.JPG,AFNE01.JPG,,,,,,,,,,,,,,,,,4,4,44,7,,,,,,,AFSA20.jpg,AFNE12.jpg,AFSA06.jpg,AFNE08.jpg,AFSA20.jpg,FS,4,num_8,32,num_2,1.25009533972,,,2017_Apr_26_1350,60.0076409659,FEMA4ImagesEEG,001,100243,
AFNE01.JPG,AFNE01.JPG,AFNE01.JPG,AFNE01.JPG,AFNE01.JPG,AFNE01.JPG,,,,,,,,,,,,,,,,,4,5,45,8,,,,,,,AFSA12.jpg,AFNE06.jpg,AFNE07.jpg,AFSA07.jpg,AFSA12.jpg,FS,4,num_8,16,num_8,0.333477558917,,,2017_Apr_26_1350,60.0076409659,FEMA4ImagesEEG,001,100243,
AFNE01.JPG,AFNE01.JPG,AFNE01.JPG,AFNE01.JPG,AFNE01.JPG,AFNE01.JPG,,,,,,,,,,,,,,,,,4,6,46,9,,,,,,,AFNE11.jpg,AFSA10.jpg,AFNE07.jpg,AFSA20.jpg,AFSA20.jpg,FS,4,num_4,32,num_8,0.76675982005,,,2017_Apr_26_1350,60.0076409659,FEMA4ImagesEEG,001,100243,
AFNE01.JPG,AFNE01.JPG,AFNE01.JPG,AFNE01.JPG,AFNE01.JPG,AFNE01.JPG,,,,,,,,,,,,,,,,,4,7,47,1,,,,,,,AFSA11.jpg,AFNE07.jpg,AFNE20.jpg,AFSA18.jpg,AFNE07.jpg,FN,3,num_6,32,num_2,1.00033388939,,,2017_Apr_26_1350,60.0076409659,FEMA4ImagesEEG,001,100243,
AFNE01.JPG,AFNE01.JPG,AFNE01.JPG,AFNE01.JPG,AFNE01.JPG,AFNE01.JPG,,,,,,,,,,,,,,,,,4,8,48,6,,,,,,,AFSA17.jpg,AFSA08.jpg,AFNE15.jpg,AFNE11.jpg,AFNE11.jpg,FN,3,num_4,16,num_4,0.933248743764,,,2017_Apr_26_1350,60.0076409659,FEMA4ImagesEEG,001,100243,
AFNE01.JPG,AFNE01.JPG,AFNE01.JPG,AFNE01.JPG,AFNE01.JPG,AFNE01.JPG,,,,,,,,,,,,,,,,,4,9,49,4,,,,,,,AFNE17.jpg,AFNE18.jpg,AFSA15.jpg,AFSA12.jpg,AFSA12.jpg,FS,4,num_4,32,num_8,1.25008667982,,,2017_Apr_26_1350,60.0076409659,FEMA4ImagesEEG,001,100243,
AFNE01.JPG,AFNE01.JPG,AFNE01.JPG,AFNE01.JPG,AFNE01.JPG,AFNE01.JPG,,,,,,,,,,,,,,,,,5,0,50,5,,,,,,,AFSA09.jpg,AFNE03.jpg,AFNE08.jpg,AFSA20.jpg,AFNE08.jpg,FN,3,num_2,32,num_4,0.666787050781,,,2017_Apr_26_1350,60.0076409659,FEMA4ImagesEEG,001,100243,
AFNE01.JPG,AFNE01.JPG,AFNE01.JPG,AFNE01.JPG,AFNE01.JPG,AFNE01.JPG,,,,,,,,,,,,,,,,,5,1,51,8,,,,,,,AFNE02.jpg,AFSA16.jpg,AFNE09.jpg,AFSA08.jpg,AFSA08.jpg,FS,4,num_4,16,num_4,0.733764107339,,,2017_Apr_26_1350,60.0076409659,FEMA4ImagesEEG,001,100243,
AFNE01.JPG,AFNE01.JPG,AFNE01.JPG,AFNE01.JPG,AFNE01.JPG,AFNE01.JPG,,,,,,,,,,,,,,,,,5,2,52,3,,,,,,,AFSA15.jpg,AFNE17.jpg,AFNE04.jpg,AFSA12.jpg,AFSA12.jpg,FS,4,num_4,16,num_4,0.933466846356,,,2017_Apr_26_1350,60.0076409659,FEMA4ImagesEEG,001,100243,
AFNE01.JPG,AFNE01.JPG,AFNE01.JPG,AFNE01.JPG,AFNE01.JPG,AFNE01.JPG,,,,,,,,,,,,,,,,,5,3,53,4,,,,,,,AFNE09.jpg,AFNE18.jpg,AFSA09.jpg,AFSA10.jpg,AFSA09.jpg,FS,4,num_2,16,num_2,0.866887506214,,,2017_Apr_26_1350,60.0076409659,FEMA4ImagesEEG,001,100243,
AFNE01.JPG,AFNE01.JPG,AFNE01.JPG,AFNE01.JPG,AFNE01.JPG,AFNE01.JPG,,,,,,,,,,,,,,,,,5,4,54,7,,,,,,,AFNE08.jpg,AFSA09.jpg,AFSA11.jpg,AFNE03.jpg,AFNE03.jpg,FN,3,num_4,32,num_8,1.03356887342,,,2017_Apr_26_1350,60.0076409659,FEMA4ImagesEEG,001,100243,
AFNE01.JPG,AFNE01.JPG,AFNE01.JPG,AFNE01.JPG,AFNE01.JPG,AFNE01.JPG,,,,,,,,,,,,,,,,,5,5,55,2,,,,,,,AFSA14.jpg,AFNE13.jpg,AFSA06.jpg,AFNE04.jpg,AFNE13.jpg,FN,3,num_6,32,num_4,1.23343743454,,,2017_Apr_26_1350,60.0076409659,FEMA4ImagesEEG,001,100243,
AFNE01.JPG,AFNE01.JPG,AFNE01.JPG,AFNE01.JPG,AFNE01.JPG,AFNE01.JPG,,,,,,,,,,,,,,,,,5,6,56,0,,,,,,,AFSA14.jpg,AFNE02.jpg,AFSA01.jpg,AFNE04.jpg,AFSA14.jpg,FS,4,num_8,32,num_2,3.99985406373,,,2017_Apr_26_1350,60.0076409659,FEMA4ImagesEEG,001,100243,
AFNE01.JPG,AFNE01.JPG,AFNE01.JPG,AFNE01.JPG,AFNE01.JPG,AFNE01.JPG,,,,,,,,,,,,,,,,,5,7,57,1,,,,,,,AFNE04.jpg,AFSA06.jpg,AFSA16.jpg,AFNE02.jpg,AFNE04.jpg,FN,3,num_8,16,num_8,0.400148630491,,,2017_Apr_26_1350,60.0076409659,FEMA4ImagesEEG,001,100243,
AFNE01.JPG,AFNE01.JPG,AFNE01.JPG,AFNE01.JPG,AFNE01.JPG,AFNE01.JPG,,,,,,,,,,,,,,,,,5,8,58,6,,,,,,,AFSA14.jpg,AFSA13.jpg,AFNE14.jpg,AFNE09.jpg,AFNE09.jpg,FN,3,num_4,16,num_4,0.766754367505,,,2017_Apr_26_1350,60.0076409659,FEMA4ImagesEEG,001,100243,
AFNE01.JPG,AFNE01.JPG,AFNE01.JPG,AFNE01.JPG,AFNE01.JPG,AFNE01.JPG,,,,,,,,,,,,,,,,,5,9,59,9,,,,,,,AFSA05.jpg,AFNE12.jpg,AFSA09.jpg,AFNE15.jpg,AFSA05.jpg,FS,4,num_8,16,num_8,1.21644435707,,,2017_Apr_26_1350,60.0076409659,FEMA4ImagesEEG,001,100243,
,,,,,,,,,,,,,,,,,,,,,,,,,,,,,,,,,,,,,,,,,,,space,28.7981483091,2017_Apr_26_1350,60.0076409659,FEMA4ImagesEEG,001,100243,
AFNE01.JPG,AFNE01.JPG,AFNE01.JPG,AFNE01.JPG,AFNE01.JPG,AFNE01.JPG,,,,,,,,,,,,,,,,,,,,,0,0,0,1,,,AMSA18.jpg,AMNE11.jpg,AMSA11.jpg,AMNE01.jpg,AMNE01.jpg,MN,1,num_4,16,num_4,0.850195282022,,,2017_Apr_26_1350,60.0076409659,FEMA4ImagesEEG,001,100243,
AFNE01.JPG,AFNE01.JPG,AFNE01.JPG,AFNE01.JPG,AFNE01.JPG,AFNE01.JPG,,,,,,,,,,,,,,,,,,,,,0,1,1,8,,,AMNE13.jpg,AMNE15.jpg,AMSA05.jpg,AMSA08.jpg,AMNE15.jpg,MN,1,num_6,16,num_6,0.750116027426,,,2017_Apr_26_1350,60.0076409659,FEMA4ImagesEEG,001,100243,
AFNE01.JPG,AFNE01.JPG,AFNE01.JPG,AFNE01.JPG,AFNE01.JPG,AFNE01.JPG,,,,,,,,,,,,,,,,,,,,,0,2,2,3,,,AMSA17.jpg,AMSA03.jpg,AMNE18.jpg,AMNE10.jpg,AMNE10.jpg,MN,1,num_4,32,num_2,1.20009243698,,,2017_Apr_26_1350,60.0076409659,FEMA4ImagesEEG,001,100243,
AFNE01.JPG,AFNE01.JPG,AFNE01.JPG,AFNE01.JPG,AFNE01.JPG,AFNE01.JPG,,,,,,,,,,,,,,,,,,,,,0,3,3,0,,,AMNE18.jpg,AMSA16.jpg,AMNE02.jpg,AMSA12.jpg,AMSA16.jpg,MS,2,num_6,32,num_4,0.933440545807,,,2017_Apr_26_1350,60.0076409659,FEMA4ImagesEEG,001,100243,
AFNE01.JPG,AFNE01.JPG,AFNE01.JPG,AFNE01.JPG,AFNE01.JPG,AFNE01.JPG,,,,,,,,,,,,,,,,,,,,,0,4,4,9,,,AMSA07.jpg,AMSA12.jpg,AMNE16.jpg,AMNE17.jpg,AMNE17.jpg,MN,1,num_4,16,num_4,1.25005011552,,,2017_Apr_26_1350,60.0076409659,FEMA4ImagesEEG,001,100243,
AFNE01.JPG,AFNE01.JPG,AFNE01.JPG,AFNE01.JPG,AFNE01.JPG,AFNE01.JPG,,,,,,,,,,,,,,,,,,,,,0,5,5,5,,,AMSA15.jpg,AMSA17.jpg,AMNE08.jpg,AMNE19.jpg,AMSA17.jpg,MS,2,num_6,16,num_6,0.800087176845,,,2017_Apr_26_1350,60.0076409659,FEMA4ImagesEEG,001,100243,
AFNE01.JPG,AFNE01.JPG,AFNE01.JPG,AFNE01.JPG,AFNE01.JPG,AFNE01.JPG,,,,,,,,,,,,,,,,,,,,,0,6,6,6,,,AMNE09.jpg,AMSA05.jpg,AMSA08.jpg,AMNE02.jpg,AMSA05.jpg,MS,2,num_6,32,num_8,1.00008082623,,,2017_Apr_26_1350,60.0076409659,FEMA4ImagesEEG,001,100243,
AFNE01.JPG,AFNE01.JPG,AFNE01.JPG,AFNE01.JPG,AFNE01.JPG,AFNE01.JPG,,,,,,,,,,,,,,,,,,,,,0,7,7,7,,,AMNE06.jpg,AMNE05.jpg,AMSA20.jpg,AMSA12.jpg,AMSA20.jpg,MS,2,num_2,16,num_2,0.850094890688,,,2017_Apr_26_1350,60.0076409659,FEMA4ImagesEEG,001,100243,
AFNE01.JPG,AFNE01.JPG,AFNE01.JPG,AFNE01.JPG,AFNE01.JPG,AFNE01.JPG,,,,,,,,,,,,,,,,,,,,,0,8,8,4,,,AMNE04.jpg,AMNE15.jpg,AMSA16.jpg,AMSA09.jpg,AMNE15.jpg,MN,1,num_6,16,num_6,0.650153200957,,,2017_Apr_26_1350,60.0076409659,FEMA4ImagesEEG,001,100243,
AFNE01.JPG,AFNE01.JPG,AFNE01.JPG,AFNE01.JPG,AFNE01.JPG,AFNE01.JPG,,,,,,,,,,,,,,,,,,,,,0,9,9,2,,,AMNE14.jpg,AMNE06.jpg,AMSA01.jpg,AMSA08.jpg,AMNE14.jpg,MN,1,num_8,16,num_8,0.800207774853,,,2017_Apr_26_1350,60.0076409659,FEMA4ImagesEEG,001,100243,
AFNE01.JPG,AFNE01.JPG,AFNE01.JPG,AFNE01.JPG,AFNE01.JPG,AFNE01.JPG,,,,,,,,,,,,,,,,,,,,,1,0,10,6,,,AMNE05.jpg,AMSA08.jpg,AMSA03.jpg,AMNE08.jpg,AMSA08.jpg,MS,2,num_6,32,num_8,0.93346428033,,,2017_Apr_26_1350,60.0076409659,FEMA4ImagesEEG,001,100243,
AFNE01.JPG,AFNE01.JPG,AFNE01.JPG,AFNE01.JPG,AFNE01.JPG,AFNE01.JPG,,,,,,,,,,,,,,,,,,,,,1,1,11,5,,,AMSA14.jpg,AMNE03.jpg,AMSA12.jpg,AMNE15.jpg,AMSA14.jpg,MS,2,num_8,16,num_8,0.700103502488,,,2017_Apr_26_1350,60.0076409659,FEMA4ImagesEEG,001,100243,
AFNE01.JPG,AFNE01.JPG,AFNE01.JPG,AFNE01.JPG,AFNE01.JPG,AFNE01.JPG,,,,,,,,,,,,,,,,,,,,,1,2,12,8,,,AMSA01.jpg,AMNE18.jpg,AMSA20.jpg,AMNE13.jpg,AMSA01.jpg,MS,2,num_8,16,num_8,0.966739356867,,,2017_Apr_26_1350,60.0076409659,FEMA4ImagesEEG,001,100243,
AFNE01.JPG,AFNE01.JPG,AFNE01.JPG,AFNE01.JPG,AFNE01.JPG,AFNE01.JPG,,,,,,,,,,,,,,,,,,,,,1,3,13,7,,,AMSA09.jpg,AMNE01.jpg,AMNE04.jpg,AMSA19.jpg,AMSA19.jpg,MS,2,num_4,16,num_4,1.16642573813,,,2017_Apr_26_1350,60.0076409659,FEMA4ImagesEEG,001,100243,
AFNE01.JPG,AFNE01.JPG,AFNE01.JPG,AFNE01.JPG,AFNE01.JPG,AFNE01.JPG,,,,,,,,,,,,,,,,,,,,,1,4,14,1,,,AMSA13.jpg,AMNE16.jpg,AMNE01.jpg,AMSA02.jpg,AMNE01.jpg,MN,1,num_2,32,num_6,1.70005314646,,,2017_Apr_26_1350,60.0076409659,FEMA4ImagesEEG,001,100243,
AFNE01.JPG,AFNE01.JPG,AFNE01.JPG,AFNE01.JPG,AFNE01.JPG,AFNE01.JPG,,,,,,,,,,,,,,,,,,,,,1,5,15,9,,,AMSA20.jpg,AMNE04.jpg,AMNE06.jpg,AMSA01.jpg,AMNE04.jpg,MN,1,num_6,16,num_6,1.45019900263,,,2017_Apr_26_1350,60.0076409659,FEMA4ImagesEEG,001,100243,
AFNE01.JPG,AFNE01.JPG,AFNE01.JPG,AFNE01.JPG,AFNE01.JPG,AFNE01.JPG,,,,,,,,,,,,,,,,,,,,,1,6,16,4,,,AMSA18.jpg,AMNE16.jpg,AMSA11.jpg,AMNE14.jpg,AMSA18.jpg,MS,2,num_8,16,num_8,0.633439166588,,,2017_Apr_26_1350,60.0076409659,FEMA4ImagesEEG,001,100243,
AFNE01.JPG,AFNE01.JPG,AFNE01.JPG,AFNE01.JPG,AFNE01.JPG,AFNE01.JPG,,,,,,,,,,,,,,,,,,,,,1,7,17,0,,,AMNE18.jpg,AMSA04.jpg,AMNE08.jpg,AMSA12.jpg,AMSA04.jpg,MS,2,num_6,16,num_6,0.683506858535,,,2017_Apr_26_1350,60.0076409659,FEMA4ImagesEEG,001,100243,
AFNE01.JPG,AFNE01.JPG,AFNE01.JPG,AFNE01.JPG,AFNE01.JPG,AFNE01.JPG,,,,,,,,,,,,,,,,,,,,,1,8,18,3,,,AMNE06.jpg,AMNE02.jpg,AMSA14.jpg,AMSA16.jpg,AMSA16.jpg,MS,2,num_4,16,num_4,1.00039579207,,,2017_Apr_26_1350,60.0076409659,FEMA4ImagesEEG,001,100243,
AFNE01.JPG,AFNE01.JPG,AFNE01.JPG,AFNE01.JPG,AFNE01.JPG,AFNE01.JPG,,,,,,,,,,,,,,,,,,,,,1,9,19,2,,,AMSA08.jpg,AMNE03.jpg,AMNE07.jpg,AMSA01.jpg,AMNE03.jpg,MN,1,num_6,16,num_6,0.73344721715,,,2017_Apr_26_1350,60.0076409659,FEMA4ImagesEEG,001,100243,
AFNE01.JPG,AFNE01.JPG,AFNE01.JPG,AFNE01.JPG,AFNE01.JPG,AFNE01.JPG,,,,,,,,,,,,,,,,,,,,,2,0,20,4,,,AMSA04.jpg,AMNE15.jpg,AMNE08.jpg,AMSA10.jpg,AMSA04.jpg,MS,2,num_8,16,num_8,1.18346371921,,,2017_Apr_26_1350,60.0076409659,FEMA4ImagesEEG,001,100243,
AFNE01.JPG,AFNE01.JPG,AFNE01.JPG,AFNE01.JPG,AFNE01.JPG,AFNE01.JPG,,,,,,,,,,,,,,,,,,,,,2,1,21,7,,,AMNE02.jpg,AMSA19.jpg,AMNE04.jpg,AMSA01.jpg,AMSA01.jpg,MS,2,num_4,32,num_2,0.616771639208,,,2017_Apr_26_1350,60.0076409659,FEMA4ImagesEEG,001,100243,
AFNE01.JPG,AFNE01.JPG,AFNE01.JPG,AFNE01.JPG,AFNE01.JPG,AFNE01.JPG,,,,,,,,,,,,,,,,,,,,,2,2,22,5,,,AMNE16.jpg,AMSA01.jpg,AMSA19.jpg,AMNE11.jpg,AMSA19.jpg,MS,2,num_2,32,num_8,3.34990998451,,,2017_Apr_26_1350,60.0076409659,FEMA4ImagesEEG,001,100243,
AFNE01.JPG,AFNE01.JPG,AFNE01.JPG,AFNE01.JPG,AFNE01.JPG,AFNE01.JPG,,,,,,,,,,,,,,,,,,,,,2,3,23,8,,,AMNE12.jpg,AMNE17.jpg,AMSA18.jpg,AMSA08.jpg,AMNE17.jpg,MN,1,num_6,16,num_6,1.0834344998,,,2017_Apr_26_1350,60.0076409659,FEMA4ImagesEEG,001,100243,
AFNE01.JPG,AFNE01.JPG,AFNE01.JPG,AFNE01.JPG,AFNE01.JPG,AFNE01.JPG,,,,,,,,,,,,,,,,,,,,,2,4,24,2,,,AMSA13.jpg,AMNE03.jpg,AMNE14.jpg,AMSA19.jpg,AMSA19.jpg,MS,2,num_4,32,num_2,1.05007314461,,,2017_Apr_26_1350,60.0076409659,FEMA4ImagesEEG,001,100243,
AFNE01.JPG,AFNE01.JPG,AFNE01.JPG,AFNE01.JPG,AFNE01.JPG,AFNE01.JPG,,,,,,,,,,,,,,,,,,,,,2,5,25,3,,,AMSA09.jpg,AMNE12.jpg,AMSA01.jpg,AMNE08.jpg,AMSA09.jpg,MS,2,num_8,32,num_2,1.88340749359,,,2017_Apr_26_1350,60.0076409659,FEMA4ImagesEEG,001,100243,
AFNE01.JPG,AFNE01.JPG,AFNE01.JPG,AFNE01.JPG,AFNE01.JPG,AFNE01.JPG,,,,,,,,,,,,,,,,,,,,,2,6,26,1,,,AMSA18.jpg,AMNE05.jpg,AMNE20.jpg,AMSA11.jpg,AMSA11.jpg,MS,2,num_4,32,num_6,0.900103887427,,,2017_Apr_26_1350,60.0076409659,FEMA4ImagesEEG,001,100243,
AFNE01.JPG,AFNE01.JPG,AFNE01.JPG,AFNE01.JPG,AFNE01.JPG,AFNE01.JPG,,,,,,,,,,,,,,,,,,,,,2,7,27,6,,,AMNE01.jpg,AMSA06.jpg,AMNE10.jpg,AMSA11.jpg,AMNE10.jpg,MN,1,num_2,32,num_8,0.750008258969,,,2017_Apr_26_1350,60.0076409659,FEMA4ImagesEEG,001,100243,
AFNE01.JPG,AFNE01.JPG,AFNE01.JPG,AFNE01.JPG,AFNE01.JPG,AFNE01.JPG,,,,,,,,,,,,,,,,,,,,,2,8,28,0,,,AMSA18.jpg,AMNE03.jpg,AMSA09.jpg,AMNE20.jpg,AMNE03.jpg,MN,1,num_6,32,num_2,0.933954369742,,,2017_Apr_26_1350,60.0076409659,FEMA4ImagesEEG,001,100243,
AFNE01.JPG,AFNE01.JPG,AFNE01.JPG,AFNE01.JPG,AFNE01.JPG,AFNE01.JPG,,,,,,,,,,,,,,,,,,,,,2,9,29,9,,,AMSA15.jpg,AMNE20.jpg,AMNE09.jpg,AMSA11.jpg,AMNE20.jpg,MN,1,num_6,32,num_8,1.01674290095,,,2017_Apr_26_1350,60.0076409659,FEMA4ImagesEEG,001,100243,
AFNE01.JPG,AFNE01.JPG,AFNE01.JPG,AFNE01.JPG,AFNE01.JPG,AFNE01.JPG,,,,,,,,,,,,,,,,,,,,,3,0,30,2,,,AMSA17.jpg,AMNE11.jpg,AMNE02.jpg,AMSA01.jpg,AMSA17.jpg,MS,2,num_8,16,num_8,0.900201071287,,,2017_Apr_26_1350,60.0076409659,FEMA4ImagesEEG,001,100243,
AFNE01.JPG,AFNE01.JPG,AFNE01.JPG,AFNE01.JPG,AFNE01.JPG,AFNE01.JPG,,,,,,,,,,,,,,,,,,,,,3,1,31,1,,,AMNE10.jpg,AMNE16.jpg,AMSA02.jpg,AMSA01.jpg,AMNE10.jpg,MN,1,num_8,32,num_6,0.80011187389,,,2017_Apr_26_1350,60.0076409659,FEMA4ImagesEEG,001,100243,
AFNE01.JPG,AFNE01.JPG,AFNE01.JPG,AFNE01.JPG,AFNE01.JPG,AFNE01.JPG,,,,,,,,,,,,,,,,,,,,,3,2,32,5,,,AMSA17.jpg,AMSA10.jpg,AMNE17.jpg,AMNE20.jpg,AMNE17.jpg,MN,1,num_2,32,num_4,1.48344136355,,,2017_Apr_26_1350,60.0076409659,FEMA4ImagesEEG,001,100243,
AFNE01.JPG,AFNE01.JPG,AFNE01.JPG,AFNE01.JPG,AFNE01.JPG,AFNE01.JPG,,,,,,,,,,,,,,,,,,,,,3,3,33,7,,,AMSA20.jpg,AMSA19.jpg,AMNE19.jpg,AMNE18.jpg,AMNE18.jpg,MN,1,num_4,32,num_2,0.933413924417,,,2017_Apr_26_1350,60.0076409659,FEMA4ImagesEEG,001,100243,
AFNE01.JPG,AFNE01.JPG,AFNE01.JPG,AFNE01.JPG,AFNE01.JPG,AFNE01.JPG,,,,,,,,,,,,,,,,,,,,,3,4,34,3,,,AMNE17.jpg,AMSA03.jpg,AMSA20.jpg,AMNE04.jpg,AMSA20.jpg,MS,2,num_2,32,num_6,0.96675314859,,,2017_Apr_26_1350,60.0076409659,FEMA4ImagesEEG,001,100243,
AFNE01.JPG,AFNE01.JPG,AFNE01.JPG,AFNE01.JPG,AFNE01.JPG,AFNE01.JPG,,,,,,,,,,,,,,,,,,,,,3,5,35,6,,,AMNE08.jpg,AMSA18.jpg,AMNE19.jpg,AMSA16.jpg,AMNE19.jpg,MN,1,num_2,32,num_8,1.1334297047,,,2017_Apr_26_1350,60.0076409659,FEMA4ImagesEEG,001,100243,
AFNE01.JPG,AFNE01.JPG,AFNE01.JPG,AFNE01.JPG,AFNE01.JPG,AFNE01.JPG,,,,,,,,,,,,,,,,,,,,,3,6,36,8,,,AMSA13.jpg,AMNE13.jpg,AMSA04.jpg,AMNE19.jpg,AMNE19.jpg,MN,1,num_4,16,num_4,0.716770388302,,,2017_Apr_26_1350,60.0076409659,FEMA4ImagesEEG,001,100243,
AFNE01.JPG,AFNE01.JPG,AFNE01.JPG,AFNE01.JPG,AFNE01.JPG,AFNE01.JPG,,,,,,,,,,,,,,,,,,,,,3,7,37,4,,,AMNE08.jpg,AMNE19.jpg,AMSA19.jpg,AMSA11.jpg,AMSA19.jpg,MS,2,num_2,32,num_6,1.56667796744,,,2017_Apr_26_1350,60.0076409659,FEMA4ImagesEEG,001,100243,
AFNE01.JPG,AFNE01.JPG,AFNE01.JPG,AFNE01.JPG,AFNE01.JPG,AFNE01.JPG,,,,,,,,,,,,,,,,,,,,,3,8,38,9,,,AMNE10.jpg,AMSA17.jpg,AMSA04.jpg,AMNE02.jpg,AMNE02.jpg,MN,1,num_4,32,num_2,2.28341211227,,,2017_Apr_26_1350,60.0076409659,FEMA4ImagesEEG,001,100243,
AFNE01.JPG,AFNE01.JPG,AFNE01.JPG,AFNE01.JPG,AFNE01.JPG,AFNE01.JPG,,,,,,,,,,,,,,,,,,,,,3,9,39,0,,,AMSA01.jpg,AMSA16.jpg,AMNE19.jpg,AMNE08.jpg,AMSA01.jpg,MS,2,num_8,16,num_8,1.33366519143,,,2017_Apr_26_1350,60.0076409659,FEMA4ImagesEEG,001,100243,
