IPosition2,IPosition3,IPosition1,IPosition6,IPosition4,IPosition5,TrialsM1.thisRepN,TrialsM1.thisTrialN,TrialsM1.thisN,TrialsM1.thisIndex,TrialsF1.thisRepN,TrialsF1.thisTrialN,TrialsF1.thisN,TrialsF1.thisIndex,TrialsM2.thisRepN,TrialsM2.thisTrialN,TrialsM2.thisN,TrialsM2.thisIndex,TrialsF2.thisRepN,TrialsF2.thisTrialN,TrialsF2.thisN,TrialsF2.thisIndex,TrialsM3.thisRepN,TrialsM3.thisTrialN,TrialsM3.thisN,TrialsM3.thisIndex,TrialsF3.thisRepN,TrialsF3.thisTrialN,TrialsF3.thisN,TrialsF3.thisIndex,InstrKey_resp.keys,InstrKey_resp.rt,Image0 _Position,Image1 _Position,Image2 _Position,Image3 _Position,Center_image,condition,code,correct_answer,accuracy,Key_Resp.keys,Key_Resp.rt,BreakKey_resp.keys,BreakKey_resp.rt,date,frameRate,expName,session,participant,
,,,,,,,,,,,,,,,,,,,,,,,,,,,,,,space,105.658549509,,,,,,,,,,,,,,2017_Apr_19_1955,59.9997883193,MAFE4ImagesEEG,001,100215,
AMNE22.JPG,AMSA24.JPG,AMSA22.JPG,AMNE25.JPG,AMNE24.JPG,AMSA25.JPG,0,0,0,7,,,,,,,,,,,,,,,,,,,,,,,AMNE03.jpg,AMSA09.jpg,AMSA17.jpg,AMNE02.jpg,AMNE02.jpg,MN,1,num_4,32,num_8,3.95025817893,,,2017_Apr_19_1955,59.9997883193,MAFE4ImagesEEG,001,100215,
AMSA25.JPG,AMNE24.JPG,AMSA24.JPG,AMNE26.JPG,AMSA21.JPG,AMNE25.JPG,0,1,1,3,,,,,,,,,,,,,,,,,,,,,,,AMNE10.jpg,AMNE02.jpg,AMSA05.jpg,AMSA02.jpg,AMSA02.jpg,MS,2,num_4,16,num_4,0.883445661515,,,2017_Apr_19_1955,59.9997883193,MAFE4ImagesEEG,001,100215,
AMNE23.JPG,AMNE24.JPG,AMNE22.JPG,AMSA24.JPG,AMSA22.JPG,AMSA23.JPG,0,2,2,9,,,,,,,,,,,,,,,,,,,,,,,AMSA09.jpg,AMNE14.jpg,AMNE19.jpg,AMSA06.jpg,AMSA06.jpg,MS,2,num_4,16,num_4,1.00012059789,,,2017_Apr_19_1955,59.9997883193,MAFE4ImagesEEG,001,100215,
AFSA25.JPG,AFNE24.JPG,AFSA24.JPG,AFNE21.JPG,AFSA21.JPG,AFNE25.JPG,0,3,3,2,,,,,,,,,,,,,,,,,,,,,,,AMSA16.jpg,AMNE06.jpg,AMSA07.jpg,AMNE07.jpg,AMSA07.jpg,MS,2,num_2,32,num_8,1.40003540961,,,2017_Apr_19_1955,59.9997883193,MAFE4ImagesEEG,001,100215,
AFSA21.JPG,AFNE23.JPG,AFNE21.JPG,AFSA25.JPG,AFNE25.JPG,AFSA23.JPG,0,4,4,4,,,,,,,,,,,,,,,,,,,,,,,AMSA13.jpg,AMNE20.jpg,AMNE02.jpg,AMSA15.jpg,AMNE02.jpg,MN,1,num_2,32,num_8,1.36670773197,,,2017_Apr_19_1955,59.9997883193,MAFE4ImagesEEG,001,100215,
AMSA21.JPG,AMNE22.JPG,AMNE21.JPG,AMSA23.JPG,AMSA22.JPG,AMNE23.JPG,0,5,5,1,,,,,,,,,,,,,,,,,,,,,,,AMSA02.jpg,AMNE13.jpg,AMSA13.jpg,AMNE11.jpg,AMSA02.jpg,MS,2,num_8,16,num_8,0.983462692733,,,2017_Apr_19_1955,59.9997883193,MAFE4ImagesEEG,001,100215,
AFNE22.JPG,AFSA24.JPG,AFSA22.JPG,AFNE25.JPG,AFNE24.JPG,AFSA25.JPG,0,6,6,6,,,,,,,,,,,,,,,,,,,,,,,AMNE05.jpg,AMSA04.jpg,AMNE19.jpg,AMSA14.jpg,AMSA04.jpg,MS,2,num_6,16,num_6,1.20017358402,,,2017_Apr_19_1955,59.9997883193,MAFE4ImagesEEG,001,100215,
AFSA21.JPG,AFNE22.JPG,AFNE21.JPG,AFSA23.JPG,AFSA22.JPG,AFNE23.JPG,0,7,7,0,,,,,,,,,,,,,,,,,,,,,,,AMSA17.jpg,AMNE05.jpg,AMSA07.jpg,AMNE03.jpg,AMNE03.jpg,MN,1,num_4,16,num_4,1.08342808502,,,2017_Apr_19_1955,59.9997883193,MAFE4ImagesEEG,001,100215,
AMSA21.JPG,AMNE23.JPG,AMNE21.JPG,AMSA25.JPG,AMNE25.JPG,AMSA23.JPG,0,8,8,5,,,,,,,,,,,,,,,,,,,,,,,AMSA18.jpg,AMNE07.jpg,AMSA07.jpg,AMNE11.jpg,AMSA07.jpg,MS,2,num_2,16,num_2,0.849976858677,,,2017_Apr_19_1955,59.9997883193,MAFE4ImagesEEG,001,100215,
AFNE23.JPG,AFNE24.JPG,AFNE22.JPG,AFSA24.JPG,AFSA22.JPG,AFSA23.JPG,0,9,9,8,,,,,,,,,,,,,,,,,,,,,,,AMSA18.jpg,AMNE14.jpg,AMNE06.jpg,AMSA02.jpg,AMNE14.jpg,MN,1,num_6,16,num_6,0.750218022411,,,2017_Apr_19_1955,59.9997883193,MAFE4ImagesEEG,001,100215,
AFNE23.JPG,AFNE24.JPG,AFNE22.JPG,AFSA24.JPG,AFSA22.JPG,AFSA23.JPG,,,,,0,0,0,8,,,,,,,,,,,,,,,,,,,AFNE03.jpg,AFSA10.jpg,AFSA12.jpg,AFNE16.jpg,AFSA10.jpg,FS,4,num_6,16,num_6,1.04999905379,,,2017_Apr_19_1955,59.9997883193,MAFE4ImagesEEG,001,100215,
AMNE22.JPG,AMSA24.JPG,AMSA22.JPG,AMNE25.JPG,AMNE24.JPG,AMSA25.JPG,,,,,0,1,1,7,,,,,,,,,,,,,,,,,,,AFNE10.jpg,AFSA14.jpg,AFNE08.jpg,AFSA06.jpg,AFSA06.jpg,FS,4,num_4,16,num_4,1.05024987177,,,2017_Apr_19_1955,59.9997883193,MAFE4ImagesEEG,001,100215,
AFSA21.JPG,AFNE22.JPG,AFNE21.JPG,AFSA23.JPG,AFSA22.JPG,AFNE23.JPG,,,,,0,2,2,0,,,,,,,,,,,,,,,,,,,AFNE17.jpg,AFNE06.jpg,AFSA18.jpg,AFSA06.jpg,AFNE06.jpg,FN,3,num_6,16,num_6,0.866729702597,,,2017_Apr_19_1955,59.9997883193,MAFE4ImagesEEG,001,100215,
AMSA21.JPG,AMNE23.JPG,AMNE21.JPG,AMSA25.JPG,AMNE25.JPG,AMSA23.JPG,,,,,0,3,3,5,,,,,,,,,,,,,,,,,,,AFSA02.jpg,AFNE01.jpg,AFSA09.jpg,AFNE11.jpg,AFNE11.jpg,FN,3,num_4,16,num_4,0.816737384273,,,2017_Apr_19_1955,59.9997883193,MAFE4ImagesEEG,001,100215,
AMSA25.JPG,AMNE24.JPG,AMSA24.JPG,AMNE26.JPG,AMSA21.JPG,AMNE25.JPG,,,,,0,4,4,3,,,,,,,,,,,,,,,,,,,AFSA20.jpg,AFNE10.jpg,AFNE18.jpg,AFSA17.jpg,AFNE10.jpg,FN,3,num_6,16,num_6,1.06672174827,,,2017_Apr_19_1955,59.9997883193,MAFE4ImagesEEG,001,100215,
AMNE23.JPG,AMNE24.JPG,AMNE22.JPG,AMSA24.JPG,AMSA22.JPG,AMSA23.JPG,,,,,0,5,5,9,,,,,,,,,,,,,,,,,,,AFNE18.jpg,AFSA13.jpg,AFNE02.jpg,AFSA01.jpg,AFSA01.jpg,FS,4,num_4,16,num_4,0.600200012908,,,2017_Apr_19_1955,59.9997883193,MAFE4ImagesEEG,001,100215,
AFSA21.JPG,AFNE23.JPG,AFNE21.JPG,AFSA25.JPG,AFNE25.JPG,AFSA23.JPG,,,,,0,6,6,4,,,,,,,,,,,,,,,,,,,AFNE01.jpg,AFSA10.jpg,AFNE09.jpg,AFSA13.jpg,AFSA13.jpg,FS,4,num_4,16,num_4,0.700118577253,,,2017_Apr_19_1955,59.9997883193,MAFE4ImagesEEG,001,100215,
AFSA25.JPG,AFNE24.JPG,AFSA24.JPG,AFNE21.JPG,AFSA21.JPG,AFNE25.JPG,,,,,0,7,7,2,,,,,,,,,,,,,,,,,,,AFSA03.jpg,AFNE19.jpg,AFSA11.jpg,AFNE10.jpg,AFSA11.jpg,FS,4,num_2,16,num_2,0.950091073872,,,2017_Apr_19_1955,59.9997883193,MAFE4ImagesEEG,001,100215,
AFNE22.JPG,AFSA24.JPG,AFSA22.JPG,AFNE25.JPG,AFNE24.JPG,AFSA25.JPG,,,,,0,8,8,6,,,,,,,,,,,,,,,,,,,AFSA12.jpg,AFNE17.jpg,AFNE06.jpg,AFSA17.jpg,AFNE06.jpg,FN,3,num_2,32,num_6,0.850120549789,,,2017_Apr_19_1955,59.9997883193,MAFE4ImagesEEG,001,100215,
AMSA21.JPG,AMNE22.JPG,AMNE21.JPG,AMSA23.JPG,AMSA22.JPG,AMNE23.JPG,,,,,0,9,9,1,,,,,,,,,,,,,,,,,,,AFSA04.jpg,AFNE02.jpg,AFNE07.jpg,AFSA08.jpg,AFSA04.jpg,FS,4,num_8,32,num_4,1.21648412873,,,2017_Apr_19_1955,59.9997883193,MAFE4ImagesEEG,001,100215,
AFNE22.JPG,AFSA24.JPG,AFSA22.JPG,AFNE25.JPG,AFNE24.JPG,AFSA25.JPG,,,,,,,,,0,0,0,6,,,,,,,,,,,,,,,AMNE01.jpg,AMSA11.jpg,AMSA02.jpg,AMNE16.jpg,AMSA11.jpg,MS,2,num_6,16,num_6,2.29999977548,,,2017_Apr_19_1955,59.9997883193,MAFE4ImagesEEG,001,100215,
AFSA21.JPG,AFNE22.JPG,AFNE21.JPG,AFSA23.JPG,AFSA22.JPG,AFNE23.JPG,,,,,,,,,0,1,1,0,,,,,,,,,,,,,,,AMNE07.jpg,AMSA03.jpg,AMSA07.jpg,AMNE08.jpg,AMSA03.jpg,MS,2,num_6,16,num_6,0.650129787071,,,2017_Apr_19_1955,59.9997883193,MAFE4ImagesEEG,001,100215,
AFSA21.JPG,AFNE23.JPG,AFNE21.JPG,AFSA25.JPG,AFNE25.JPG,AFSA23.JPG,,,,,,,,,0,2,2,4,,,,,,,,,,,,,,,AMNE12.jpg,AMSA03.jpg,AMNE05.jpg,AMSA16.jpg,AMSA03.jpg,MS,2,num_6,16,num_6,1.03344827553,,,2017_Apr_19_1955,59.9997883193,MAFE4ImagesEEG,001,100215,
AMSA21.JPG,AMNE22.JPG,AMNE21.JPG,AMSA23.JPG,AMSA22.JPG,AMNE23.JPG,,,,,,,,,0,3,3,1,,,,,,,,,,,,,,,AMNE07.jpg,AMSA07.jpg,AMNE15.jpg,AMSA18.jpg,AMSA07.jpg,MS,2,num_6,16,num_6,1.10011838481,,,2017_Apr_19_1955,59.9997883193,MAFE4ImagesEEG,001,100215,
AMSA21.JPG,AMNE23.JPG,AMNE21.JPG,AMSA25.JPG,AMNE25.JPG,AMSA23.JPG,,,,,,,,,0,4,4,5,,,,,,,,,,,,,,,AMSA05.jpg,AMNE12.jpg,AMNE02.jpg,AMSA01.jpg,AMSA05.jpg,MS,2,num_8,16,num_8,0.933451771591,,,2017_Apr_19_1955,59.9997883193,MAFE4ImagesEEG,001,100215,
AMNE23.JPG,AMNE24.JPG,AMNE22.JPG,AMSA24.JPG,AMSA22.JPG,AMSA23.JPG,,,,,,,,,0,5,5,9,,,,,,,,,,,,,,,AMNE13.jpg,AMSA11.jpg,AMSA17.jpg,AMNE06.jpg,AMSA17.jpg,MS,2,num_2,16,num_2,0.78347834482,,,2017_Apr_19_1955,59.9997883193,MAFE4ImagesEEG,001,100215,
AMNE22.JPG,AMSA24.JPG,AMSA22.JPG,AMNE25.JPG,AMNE24.JPG,AMSA25.JPG,,,,,,,,,0,6,6,7,,,,,,,,,,,,,,,AMSA01.jpg,AMNE15.jpg,AMNE16.jpg,AMSA02.jpg,AMSA02.jpg,MS,2,num_4,16,num_4,0.866918297164,,,2017_Apr_19_1955,59.9997883193,MAFE4ImagesEEG,001,100215,
AFNE23.JPG,AFNE24.JPG,AFNE22.JPG,AFSA24.JPG,AFSA22.JPG,AFSA23.JPG,,,,,,,,,0,7,7,8,,,,,,,,,,,,,,,AMSA01.jpg,AMNE09.jpg,AMSA08.jpg,AMNE08.jpg,AMSA01.jpg,MS,2,num_8,16,num_8,0.733518100431,,,2017_Apr_19_1955,59.9997883193,MAFE4ImagesEEG,001,100215,
AFSA25.JPG,AFNE24.JPG,AFSA24.JPG,AFNE21.JPG,AFSA21.JPG,AFNE25.JPG,,,,,,,,,0,8,8,2,,,,,,,,,,,,,,,AMSA16.jpg,AMSA10.jpg,AMNE09.jpg,AMNE17.jpg,AMSA10.jpg,MS,2,num_6,16,num_6,1.1334778156,,,2017_Apr_19_1955,59.9997883193,MAFE4ImagesEEG,001,100215,
AMSA25.JPG,AMNE24.JPG,AMSA24.JPG,AMNE26.JPG,AMSA21.JPG,AMNE25.JPG,,,,,,,,,0,9,9,3,,,,,,,,,,,,,,,AMSA05.jpg,AMSA06.jpg,AMNE05.jpg,AMNE10.jpg,AMNE10.jpg,MN,1,num_4,16,num_4,0.750101273356,,,2017_Apr_19_1955,59.9997883193,MAFE4ImagesEEG,001,100215,
AFSA21.JPG,AFNE22.JPG,AFNE21.JPG,AFSA23.JPG,AFSA22.JPG,AFNE23.JPG,,,,,,,,,,,,,0,0,0,0,,,,,,,,,,,AFSA09.jpg,AFSA11.jpg,AFNE18.jpg,AFNE04.jpg,AFNE04.jpg,FN,3,num_4,16,num_4,0.716492307547,,,2017_Apr_19_1955,59.9997883193,MAFE4ImagesEEG,001,100215,
AMSA21.JPG,AMNE22.JPG,AMNE21.JPG,AMSA23.JPG,AMSA22.JPG,AMNE23.JPG,,,,,,,,,,,,,0,1,1,1,,,,,,,,,,,AFSA19.jpg,AFNE07.jpg,AFSA07.jpg,AFNE20.jpg,AFSA07.jpg,FS,4,num_2,16,num_2,0.916784885747,,,2017_Apr_19_1955,59.9997883193,MAFE4ImagesEEG,001,100215,
AMNE23.JPG,AMNE24.JPG,AMNE22.JPG,AMSA24.JPG,AMSA22.JPG,AMSA23.JPG,,,,,,,,,,,,,0,2,2,9,,,,,,,,,,,AFNE04.jpg,AFNE07.jpg,AFSA20.jpg,AFSA08.jpg,AFSA20.jpg,FS,4,num_2,16,num_2,1.51674658951,,,2017_Apr_19_1955,59.9997883193,MAFE4ImagesEEG,001,100215,
AMNE22.JPG,AMSA24.JPG,AMSA22.JPG,AMNE25.JPG,AMNE24.JPG,AMSA25.JPG,,,,,,,,,,,,,0,3,3,7,,,,,,,,,,,AFNE10.jpg,AFNE03.jpg,AFSA01.jpg,AFSA16.jpg,AFSA01.jpg,FS,4,num_2,32,num_4,1.56719339511,,,2017_Apr_19_1955,59.9997883193,MAFE4ImagesEEG,001,100215,
AFNE23.JPG,AFNE24.JPG,AFNE22.JPG,AFSA24.JPG,AFSA22.JPG,AFSA23.JPG,,,,,,,,,,,,,0,4,4,8,,,,,,,,,,,AFSA18.jpg,AFNE04.jpg,AFSA12.jpg,AFNE07.jpg,AFNE04.jpg,FN,3,num_6,16,num_6,1.16672915735,,,2017_Apr_19_1955,59.9997883193,MAFE4ImagesEEG,001,100215,
AMSA21.JPG,AMNE23.JPG,AMNE21.JPG,AMSA25.JPG,AMNE25.JPG,AMSA23.JPG,,,,,,,,,,,,,0,5,5,5,,,,,,,,,,,AFNE03.jpg,AFSA04.jpg,AFNE18.jpg,AFSA15.jpg,AFSA04.jpg,FS,4,num_6,16,num_6,0.766772970295,,,2017_Apr_19_1955,59.9997883193,MAFE4ImagesEEG,001,100215,
AFSA21.JPG,AFNE23.JPG,AFNE21.JPG,AFSA25.JPG,AFNE25.JPG,AFSA23.JPG,,,,,,,,,,,,,0,6,6,4,,,,,,,,,,,AFSA16.jpg,AFNE17.jpg,AFNE07.jpg,AFSA10.jpg,AFSA10.jpg,FS,4,num_4,16,num_4,1.00008916546,,,2017_Apr_19_1955,59.9997883193,MAFE4ImagesEEG,001,100215,
AFSA25.JPG,AFNE24.JPG,AFSA24.JPG,AFNE21.JPG,AFSA21.JPG,AFNE25.JPG,,,,,,,,,,,,,0,7,7,2,,,,,,,,,,,AFNE12.jpg,AFSA06.jpg,AFSA14.jpg,AFNE01.jpg,AFSA06.jpg,FS,4,num_6,16,num_6,0.750103839295,,,2017_Apr_19_1955,59.9997883193,MAFE4ImagesEEG,001,100215,
AMSA25.JPG,AMNE24.JPG,AMSA24.JPG,AMNE26.JPG,AMSA21.JPG,AMNE25.JPG,,,,,,,,,,,,,0,8,8,3,,,,,,,,,,,AFSA04.jpg,AFSA07.jpg,AFNE19.jpg,AFNE01.jpg,AFSA04.jpg,FS,4,num_8,32,num_4,1.2334082473,,,2017_Apr_19_1955,59.9997883193,MAFE4ImagesEEG,001,100215,
AFNE22.JPG,AFSA24.JPG,AFSA22.JPG,AFNE25.JPG,AFNE24.JPG,AFSA25.JPG,,,,,,,,,,,,,0,9,9,6,,,,,,,,,,,AFSA02.jpg,AFNE19.jpg,AFNE13.jpg,AFSA18.jpg,AFSA02.jpg,FS,4,num_8,32,num_4,0.983415864874,,,2017_Apr_19_1955,59.9997883193,MAFE4ImagesEEG,001,100215,
AMSA25.JPG,AMNE24.JPG,AMSA24.JPG,AMNE26.JPG,AMSA21.JPG,AMNE25.JPG,,,,,,,,,,,,,,,,,0,0,0,3,,,,,,,AMSA04.jpg,AMNE16.jpg,AMSA16.jpg,AMNE03.jpg,AMSA16.jpg,MS,2,num_2,32,num_8,1.6667309214,,,2017_Apr_19_1955,59.9997883193,MAFE4ImagesEEG,001,100215,
AFSA21.JPG,AFNE22.JPG,AFNE21.JPG,AFSA23.JPG,AFSA22.JPG,AFNE23.JPG,,,,,,,,,,,,,,,,,0,1,1,0,,,,,,,AMNE03.jpg,AMSA01.jpg,AMNE07.jpg,AMSA03.jpg,AMNE07.jpg,MN,1,num_2,16,num_2,0.850102588389,,,2017_Apr_19_1955,59.9997883193,MAFE4ImagesEEG,001,100215,
AMSA21.JPG,AMNE22.JPG,AMNE21.JPG,AMSA23.JPG,AMSA22.JPG,AMNE23.JPG,,,,,,,,,,,,,,,,,0,2,2,1,,,,,,,AMNE14.jpg,AMNE18.jpg,AMSA08.jpg,AMSA05.jpg,AMNE14.jpg,MN,1,num_8,32,num_6,2.45000623839,,,2017_Apr_19_1955,59.9997883193,MAFE4ImagesEEG,001,100215,
AFSA25.JPG,AFNE24.JPG,AFSA24.JPG,AFNE21.JPG,AFSA21.JPG,AFNE25.JPG,,,,,,,,,,,,,,,,,0,3,3,2,,,,,,,AMSA09.jpg,AMSA13.jpg,AMNE07.jpg,AMNE04.jpg,AMNE04.jpg,MN,1,num_4,16,num_4,0.60041971918,,,2017_Apr_19_1955,59.9997883193,MAFE4ImagesEEG,001,100215,
AFSA21.JPG,AFNE23.JPG,AFNE21.JPG,AFSA25.JPG,AFNE25.JPG,AFSA23.JPG,,,,,,,,,,,,,,,,,0,4,4,4,,,,,,,AMSA02.jpg,AMSA10.jpg,AMNE08.jpg,AMNE02.jpg,AMNE08.jpg,MN,1,num_2,16,num_2,1.90006892683,,,2017_Apr_19_1955,59.9997883193,MAFE4ImagesEEG,001,100215,
AMSA21.JPG,AMNE23.JPG,AMNE21.JPG,AMSA25.JPG,AMNE25.JPG,AMSA23.JPG,,,,,,,,,,,,,,,,,0,5,5,5,,,,,,,AMNE02.jpg,AMSA04.jpg,AMNE17.jpg,AMSA13.jpg,AMNE17.jpg,MN,1,num_2,16,num_2,0.833457192057,,,2017_Apr_19_1955,59.9997883193,MAFE4ImagesEEG,001,100215,
AMNE22.JPG,AMSA24.JPG,AMSA22.JPG,AMNE25.JPG,AMNE24.JPG,AMSA25.JPG,,,,,,,,,,,,,,,,,0,6,6,7,,,,,,,AMNE07.jpg,AMSA15.jpg,AMSA14.jpg,AMNE15.jpg,AMSA15.jpg,MS,2,num_6,16,num_6,0.88345367997,,,2017_Apr_19_1955,59.9997883193,MAFE4ImagesEEG,001,100215,
AFNE23.JPG,AFNE24.JPG,AFNE22.JPG,AFSA24.JPG,AFSA22.JPG,AFSA23.JPG,,,,,,,,,,,,,,,,,0,7,7,8,,,,,,,AMNE11.jpg,AMSA10.jpg,AMSA01.jpg,AMNE15.jpg,AMSA10.jpg,MS,2,num_6,16,num_6,0.833437627007,,,2017_Apr_19_1955,59.9997883193,MAFE4ImagesEEG,001,100215,
AMNE23.JPG,AMNE24.JPG,AMNE22.JPG,AMSA24.JPG,AMSA22.JPG,AMSA23.JPG,,,,,,,,,,,,,,,,,0,8,8,9,,,,,,,AMNE15.jpg,AMSA05.jpg,AMSA08.jpg,AMNE01.jpg,AMNE15.jpg,MN,1,num_8,16,num_8,1.73344080232,,,2017_Apr_19_1955,59.9997883193,MAFE4ImagesEEG,001,100215,
AFNE22.JPG,AFSA24.JPG,AFSA22.JPG,AFNE25.JPG,AFNE24.JPG,AFSA25.JPG,,,,,,,,,,,,,,,,,0,9,9,6,,,,,,,AMSA07.jpg,AMSA10.jpg,AMNE01.jpg,AMNE09.jpg,AMSA07.jpg,MS,2,num_8,32,num_6,0.883444699313,,,2017_Apr_19_1955,59.9997883193,MAFE4ImagesEEG,001,100215,
AMSA21.JPG,AMNE23.JPG,AMNE21.JPG,AMSA25.JPG,AMNE25.JPG,AMSA23.JPG,,,,,,,,,,,,,,,,,,,,,0,0,0,5,,,AFNE10.jpg,AFSA05.jpg,AFNE09.jpg,AFSA15.jpg,AFNE10.jpg,FN,3,num_8,16,num_8,1.43336340797,,,2017_Apr_19_1955,59.9997883193,MAFE4ImagesEEG,001,100215,
AFNE23.JPG,AFNE24.JPG,AFNE22.JPG,AFSA24.JPG,AFSA22.JPG,AFSA23.JPG,,,,,,,,,,,,,,,,,,,,,0,1,1,8,,,AFNE12.jpg,AFSA09.jpg,AFNE16.jpg,AFSA17.jpg,AFSA09.jpg,FS,4,num_6,16,num_6,1.1000715569,,,2017_Apr_19_1955,59.9997883193,MAFE4ImagesEEG,001,100215,
AFNE22.JPG,AFSA24.JPG,AFSA22.JPG,AFNE25.JPG,AFNE24.JPG,AFSA25.JPG,,,,,,,,,,,,,,,,,,,,,0,2,2,6,,,AFNE19.jpg,AFSA07.jpg,AFNE02.jpg,AFSA10.jpg,AFNE19.jpg,FN,3,num_8,16,num_8,1.31671894179,,,2017_Apr_19_1955,59.9997883193,MAFE4ImagesEEG,001,100215,
AFSA21.JPG,AFNE22.JPG,AFNE21.JPG,AFSA23.JPG,AFSA22.JPG,AFNE23.JPG,,,,,,,,,,,,,,,,,,,,,0,3,3,0,,,AFSA10.jpg,AFSA07.jpg,AFNE15.jpg,AFNE14.jpg,AFNE14.jpg,FN,3,num_4,16,num_4,0.750118272554,,,2017_Apr_19_1955,59.9997883193,MAFE4ImagesEEG,001,100215,
AMSA21.JPG,AMNE22.JPG,AMNE21.JPG,AMSA23.JPG,AMSA22.JPG,AMNE23.JPG,,,,,,,,,,,,,,,,,,,,,0,4,4,1,,,AFNE13.jpg,AFSA08.jpg,AFSA12.jpg,AFNE11.jpg,AFNE13.jpg,FN,3,num_8,16,num_8,1.11651617056,,,2017_Apr_19_1955,59.9997883193,MAFE4ImagesEEG,001,100215,
AMNE22.JPG,AMSA24.JPG,AMSA22.JPG,AMNE25.JPG,AMNE24.JPG,AMSA25.JPG,,,,,,,,,,,,,,,,,,,,,0,5,5,7,,,AFNE15.jpg,AFNE18.jpg,AFSA09.jpg,AFSA06.jpg,AFNE18.jpg,FN,3,num_6,16,num_6,0.983535179781,,,2017_Apr_19_1955,59.9997883193,MAFE4ImagesEEG,001,100215,
AMSA25.JPG,AMNE24.JPG,AMSA24.JPG,AMNE26.JPG,AMSA21.JPG,AMNE25.JPG,,,,,,,,,,,,,,,,,,,,,0,6,6,3,,,AFSA18.jpg,AFNE16.jpg,AFNE06.jpg,AFSA17.jpg,AFSA18.jpg,FS,4,num_8,16,num_8,0.800128231494,,,2017_Apr_19_1955,59.9997883193,MAFE4ImagesEEG,001,100215,
AFSA21.JPG,AFNE23.JPG,AFNE21.JPG,AFSA25.JPG,AFNE25.JPG,AFSA23.JPG,,,,,,,,,,,,,,,,,,,,,0,7,7,4,,,AFNE20.jpg,AFSA02.jpg,AFSA04.jpg,AFNE12.jpg,AFNE12.jpg,FN,3,num_4,16,num_4,1.15010396758,,,2017_Apr_19_1955,59.9997883193,MAFE4ImagesEEG,001,100215,
AFSA25.JPG,AFNE24.JPG,AFSA24.JPG,AFNE21.JPG,AFSA21.JPG,AFNE25.JPG,,,,,,,,,,,,,,,,,,,,,0,8,8,2,,,AFNE09.jpg,AFSA10.jpg,AFNE07.jpg,AFSA04.jpg,AFSA10.jpg,FS,4,num_6,16,num_6,1.23352243041,,,2017_Apr_19_1955,59.9997883193,MAFE4ImagesEEG,001,100215,
AMNE23.JPG,AMNE24.JPG,AMNE22.JPG,AMSA24.JPG,AMSA22.JPG,AMSA23.JPG,,,,,,,,,,,,,,,,,,,,,0,9,9,9,,,AFSA11.jpg,AFSA03.jpg,AFNE01.jpg,AFNE13.jpg,AFNE01.jpg,FN,3,num_2,32,num_4,1.00010071209,,,2017_Apr_19_1955,59.9997883193,MAFE4ImagesEEG,001,100215,
,,,,,,,,,,,,,,,,,,,,,,,,,,,,,,,,,,,,,,,,,,,space,11.7492054491,2017_Apr_19_1955,59.9997883193,MAFE4ImagesEEG,001,100215,
AFNE01.JPG,AFNE01.JPG,AFNE01.JPG,AFNE01.JPG,AFNE01.JPG,AFNE01.JPG,0,0,0,8,,,,,,,,,,,,,,,,,,,,,,,AMSA06.jpg,AMNE14.jpg,AMSA16.jpg,AMNE15.jpg,AMNE15.jpg,MN,1,num_4,32,num_8,1.68323679621,,,2017_Apr_19_1955,59.9997883193,MAFE4ImagesEEG,001,100215,
AFNE01.JPG,AFNE01.JPG,AFNE01.JPG,AFNE01.JPG,AFNE01.JPG,AFNE01.JPG,0,1,1,2,,,,,,,,,,,,,,,,,,,,,,,AMSA06.jpg,AMSA08.jpg,AMNE20.jpg,AMNE19.jpg,AMNE20.jpg,MN,1,num_2,32,num_4,0.900100038532,,,2017_Apr_19_1955,59.9997883193,MAFE4ImagesEEG,001,100215,
AFNE01.JPG,AFNE01.JPG,AFNE01.JPG,AFNE01.JPG,AFNE01.JPG,AFNE01.JPG,0,2,2,5,,,,,,,,,,,,,,,,,,,,,,,AMSA10.jpg,AMNE12.jpg,AMNE01.jpg,AMSA01.jpg,AMNE01.jpg,MN,1,num_2,16,num_2,1.60010218745,,,2017_Apr_19_1955,59.9997883193,MAFE4ImagesEEG,001,100215,
AFNE01.JPG,AFNE01.JPG,AFNE01.JPG,AFNE01.JPG,AFNE01.JPG,AFNE01.JPG,0,3,3,1,,,,,,,,,,,,,,,,,,,,,,,AMSA03.jpg,AMSA06.jpg,AMNE01.jpg,AMNE08.jpg,AMSA03.jpg,MS,2,num_8,16,num_8,0.983434467722,,,2017_Apr_19_1955,59.9997883193,MAFE4ImagesEEG,001,100215,
AFNE01.JPG,AFNE01.JPG,AFNE01.JPG,AFNE01.JPG,AFNE01.JPG,AFNE01.JPG,0,4,4,7,,,,,,,,,,,,,,,,,,,,,,,AMNE04.jpg,AMSA04.jpg,AMSA18.jpg,AMNE20.jpg,AMSA04.jpg,MS,2,num_6,16,num_6,0.750102235586,,,2017_Apr_19_1955,59.9997883193,MAFE4ImagesEEG,001,100215,
AFNE01.JPG,AFNE01.JPG,AFNE01.JPG,AFNE01.JPG,AFNE01.JPG,AFNE01.JPG,0,5,5,3,,,,,,,,,,,,,,,,,,,,,,,AMNE04.jpg,AMSA08.jpg,AMNE18.jpg,AMSA19.jpg,AMSA19.jpg,MS,2,num_4,16,num_4,0.966756035254,,,2017_Apr_19_1955,59.9997883193,MAFE4ImagesEEG,001,100215,
AFNE01.JPG,AFNE01.JPG,AFNE01.JPG,AFNE01.JPG,AFNE01.JPG,AFNE01.JPG,0,6,6,9,,,,,,,,,,,,,,,,,,,,,,,AMNE10.jpg,AMNE05.jpg,AMSA08.jpg,AMSA13.jpg,AMNE10.jpg,MN,1,num_8,32,num_6,1.01675059873,,,2017_Apr_19_1955,59.9997883193,MAFE4ImagesEEG,001,100215,
AFNE01.JPG,AFNE01.JPG,AFNE01.JPG,AFNE01.JPG,AFNE01.JPG,AFNE01.JPG,0,7,7,6,,,,,,,,,,,,,,,,,,,,,,,AMSA11.jpg,AMSA18.jpg,AMNE10.jpg,AMNE15.jpg,AMSA18.jpg,MS,2,num_6,16,num_6,0.983396620519,,,2017_Apr_19_1955,59.9997883193,MAFE4ImagesEEG,001,100215,
AFNE01.JPG,AFNE01.JPG,AFNE01.JPG,AFNE01.JPG,AFNE01.JPG,AFNE01.JPG,0,8,8,0,,,,,,,,,,,,,,,,,,,,,,,AMSA16.jpg,AMSA19.jpg,AMNE02.jpg,AMNE12.jpg,AMSA16.jpg,MS,2,num_8,16,num_8,1.43340702847,,,2017_Apr_19_1955,59.9997883193,MAFE4ImagesEEG,001,100215,
AFNE01.JPG,AFNE01.JPG,AFNE01.JPG,AFNE01.JPG,AFNE01.JPG,AFNE01.JPG,0,9,9,4,,,,,,,,,,,,,,,,,,,,,,,AMNE18.jpg,AMNE05.jpg,AMSA08.jpg,AMSA13.jpg,AMNE18.jpg,MN,1,num_8,32,num_6,1.40011302847,,,2017_Apr_19_1955,59.9997883193,MAFE4ImagesEEG,001,100215,
AFNE01.JPG,AFNE01.JPG,AFNE01.JPG,AFNE01.JPG,AFNE01.JPG,AFNE01.JPG,1,0,10,3,,,,,,,,,,,,,,,,,,,,,,,AMNE18.jpg,AMSA17.jpg,AMSA03.jpg,AMNE10.jpg,AMNE10.jpg,MN,1,num_4,16,num_4,0.916598215583,,,2017_Apr_19_1955,59.9997883193,MAFE4ImagesEEG,001,100215,
AFNE01.JPG,AFNE01.JPG,AFNE01.JPG,AFNE01.JPG,AFNE01.JPG,AFNE01.JPG,1,1,11,2,,,,,,,,,,,,,,,,,,,,,,,AMSA02.jpg,AMSA09.jpg,AMNE02.jpg,AMNE15.jpg,AMNE15.jpg,MN,1,num_4,16,num_4,0.600149336125,,,2017_Apr_19_1955,59.9997883193,MAFE4ImagesEEG,001,100215,
AFNE01.JPG,AFNE01.JPG,AFNE01.JPG,AFNE01.JPG,AFNE01.JPG,AFNE01.JPG,1,2,12,6,,,,,,,,,,,,,,,,,,,,,,,AMSA20.jpg,AMNE13.jpg,AMSA02.jpg,AMNE11.jpg,AMNE13.jpg,MN,1,num_6,32,num_4,0.883417115721,,,2017_Apr_19_1955,59.9997883193,MAFE4ImagesEEG,001,100215,
AFNE01.JPG,AFNE01.JPG,AFNE01.JPG,AFNE01.JPG,AFNE01.JPG,AFNE01.JPG,1,3,13,5,,,,,,,,,,,,,,,,,,,,,,,AMNE01.jpg,AMNE18.jpg,AMSA12.jpg,AMSA08.jpg,AMSA12.jpg,MS,2,num_2,32,num_4,1.01675957942,,,2017_Apr_19_1955,59.9997883193,MAFE4ImagesEEG,001,100215,
AFNE01.JPG,AFNE01.JPG,AFNE01.JPG,AFNE01.JPG,AFNE01.JPG,AFNE01.JPG,1,4,14,4,,,,,,,,,,,,,,,,,,,,,,,AMSA01.jpg,AMNE14.jpg,AMNE08.jpg,AMSA15.jpg,AMSA15.jpg,MS,2,num_4,16,num_4,0.85011124835,,,2017_Apr_19_1955,59.9997883193,MAFE4ImagesEEG,001,100215,
AFNE01.JPG,AFNE01.JPG,AFNE01.JPG,AFNE01.JPG,AFNE01.JPG,AFNE01.JPG,1,5,15,9,,,,,,,,,,,,,,,,,,,,,,,AMSA11.jpg,AMNE09.jpg,AMSA13.jpg,AMNE02.jpg,AMSA13.jpg,MS,2,num_2,32,num_4,1.16675385422,,,2017_Apr_19_1955,59.9997883193,MAFE4ImagesEEG,001,100215,
AFNE01.JPG,AFNE01.JPG,AFNE01.JPG,AFNE01.JPG,AFNE01.JPG,AFNE01.JPG,1,6,16,0,,,,,,,,,,,,,,,,,,,,,,,AMNE04.jpg,AMSA07.jpg,AMNE12.jpg,AMSA01.jpg,AMSA07.jpg,MS,2,num_6,16,num_6,0.783456213831,,,2017_Apr_19_1955,59.9997883193,MAFE4ImagesEEG,001,100215,
AFNE01.JPG,AFNE01.JPG,AFNE01.JPG,AFNE01.JPG,AFNE01.JPG,AFNE01.JPG,1,7,17,8,,,,,,,,,,,,,,,,,,,,,,,AMNE17.jpg,AMSA04.jpg,AMSA14.jpg,AMNE14.jpg,AMNE17.jpg,MN,1,num_8,32,num_6,1.13339378196,,,2017_Apr_19_1955,59.9997883193,MAFE4ImagesEEG,001,100215,
AFNE01.JPG,AFNE01.JPG,AFNE01.JPG,AFNE01.JPG,AFNE01.JPG,AFNE01.JPG,1,8,18,1,,,,,,,,,,,,,,,,,,,,,,,AMNE01.jpg,AMSA11.jpg,AMSA01.jpg,AMNE14.jpg,AMSA11.jpg,MS,2,num_6,16,num_6,0.949945779052,,,2017_Apr_19_1955,59.9997883193,MAFE4ImagesEEG,001,100215,
AFNE01.JPG,AFNE01.JPG,AFNE01.JPG,AFNE01.JPG,AFNE01.JPG,AFNE01.JPG,1,9,19,7,,,,,,,,,,,,,,,,,,,,,,,AMNE19.jpg,AMSA10.jpg,AMNE04.jpg,AMSA17.jpg,AMSA17.jpg,MS,2,num_4,16,num_4,0.766847381776,,,2017_Apr_19_1955,59.9997883193,MAFE4ImagesEEG,001,100215,
AFNE01.JPG,AFNE01.JPG,AFNE01.JPG,AFNE01.JPG,AFNE01.JPG,AFNE01.JPG,2,0,20,8,,,,,,,,,,,,,,,,,,,,,,,AMNE18.jpg,AMSA13.jpg,AMNE08.jpg,AMSA08.jpg,AMSA08.jpg,MS,2,num_4,16,num_4,0.633448788722,,,2017_Apr_19_1955,59.9997883193,MAFE4ImagesEEG,001,100215,
AFNE01.JPG,AFNE01.JPG,AFNE01.JPG,AFNE01.JPG,AFNE01.JPG,AFNE01.JPG,2,1,21,4,,,,,,,,,,,,,,,,,,,,,,,AMSA13.jpg,AMNE05.jpg,AMNE11.jpg,AMSA06.jpg,AMSA13.jpg,MS,2,num_8,16,num_8,1.96669894372,,,2017_Apr_19_1955,59.9997883193,MAFE4ImagesEEG,001,100215,
AFNE01.JPG,AFNE01.JPG,AFNE01.JPG,AFNE01.JPG,AFNE01.JPG,AFNE01.JPG,2,2,22,0,,,,,,,,,,,,,,,,,,,,,,,AMNE08.jpg,AMNE18.jpg,AMSA07.jpg,AMSA18.jpg,AMSA07.jpg,MS,2,num_2,16,num_2,0.550133283134,,,2017_Apr_19_1955,59.9997883193,MAFE4ImagesEEG,001,100215,
AFNE01.JPG,AFNE01.JPG,AFNE01.JPG,AFNE01.JPG,AFNE01.JPG,AFNE01.JPG,2,3,23,6,,,,,,,,,,,,,,,,,,,,,,,AMSA04.jpg,AMSA20.jpg,AMNE11.jpg,AMNE19.jpg,AMSA20.jpg,MS,2,num_6,32,num_2,2.11670893474,,,2017_Apr_19_1955,59.9997883193,MAFE4ImagesEEG,001,100215,
AFNE01.JPG,AFNE01.JPG,AFNE01.JPG,AFNE01.JPG,AFNE01.JPG,AFNE01.JPG,2,4,24,5,,,,,,,,,,,,,,,,,,,,,,,AMNE17.jpg,AMSA03.jpg,AMSA09.jpg,AMNE06.jpg,AMNE06.jpg,MN,1,num_4,16,num_4,0.816785815899,,,2017_Apr_19_1955,59.9997883193,MAFE4ImagesEEG,001,100215,
AFNE01.JPG,AFNE01.JPG,AFNE01.JPG,AFNE01.JPG,AFNE01.JPG,AFNE01.JPG,2,5,25,3,,,,,,,,,,,,,,,,,,,,,,,AMNE06.jpg,AMSA09.jpg,AMSA01.jpg,AMNE15.jpg,AMSA01.jpg,MS,2,num_2,16,num_2,0.866929202282,,,2017_Apr_19_1955,59.9997883193,MAFE4ImagesEEG,001,100215,
AFNE01.JPG,AFNE01.JPG,AFNE01.JPG,AFNE01.JPG,AFNE01.JPG,AFNE01.JPG,2,6,26,7,,,,,,,,,,,,,,,,,,,,,,,AMSA03.jpg,AMNE08.jpg,AMNE12.jpg,AMSA09.jpg,AMNE12.jpg,MN,1,num_2,16,num_2,0.933474544057,,,2017_Apr_19_1955,59.9997883193,MAFE4ImagesEEG,001,100215,
AFNE01.JPG,AFNE01.JPG,AFNE01.JPG,AFNE01.JPG,AFNE01.JPG,AFNE01.JPG,2,7,27,9,,,,,,,,,,,,,,,,,,,,,,,AMNE10.jpg,AMNE15.jpg,AMSA12.jpg,AMSA18.jpg,AMSA18.jpg,MS,2,num_4,16,num_4,0.683456502506,,,2017_Apr_19_1955,59.9997883193,MAFE4ImagesEEG,001,100215,
AFNE01.JPG,AFNE01.JPG,AFNE01.JPG,AFNE01.JPG,AFNE01.JPG,AFNE01.JPG,2,8,28,2,,,,,,,,,,,,,,,,,,,,,,,AMNE14.jpg,AMSA08.jpg,AMSA07.jpg,AMNE18.jpg,AMSA07.jpg,MS,2,num_2,16,num_2,0.633524483157,,,2017_Apr_19_1955,59.9997883193,MAFE4ImagesEEG,001,100215,
AFNE01.JPG,AFNE01.JPG,AFNE01.JPG,AFNE01.JPG,AFNE01.JPG,AFNE01.JPG,2,9,29,1,,,,,,,,,,,,,,,,,,,,,,,AMSA09.jpg,AMNE10.jpg,AMSA10.jpg,AMNE15.jpg,AMNE10.jpg,MN,1,num_6,16,num_6,0.63348118338,,,2017_Apr_19_1955,59.9997883193,MAFE4ImagesEEG,001,100215,
AFNE01.JPG,AFNE01.JPG,AFNE01.JPG,AFNE01.JPG,AFNE01.JPG,AFNE01.JPG,3,0,30,5,,,,,,,,,,,,,,,,,,,,,,,AMSA09.jpg,AMNE20.jpg,AMNE15.jpg,AMSA20.jpg,AMSA09.jpg,MS,2,num_8,32,num_2,1.16672691217,,,2017_Apr_19_1955,59.9997883193,MAFE4ImagesEEG,001,100215,
AFNE01.JPG,AFNE01.JPG,AFNE01.JPG,AFNE01.JPG,AFNE01.JPG,AFNE01.JPG,3,1,31,9,,,,,,,,,,,,,,,,,,,,,,,AMNE18.jpg,AMSA06.jpg,AMNE01.jpg,AMSA08.jpg,AMSA08.jpg,MS,2,num_4,16,num_4,1.93334400328,,,2017_Apr_19_1955,59.9997883193,MAFE4ImagesEEG,001,100215,
AFNE01.JPG,AFNE01.JPG,AFNE01.JPG,AFNE01.JPG,AFNE01.JPG,AFNE01.JPG,3,2,32,3,,,,,,,,,,,,,,,,,,,,,,,AMSA06.jpg,AMNE09.jpg,AMSA13.jpg,AMNE03.jpg,AMSA06.jpg,MS,2,num_8,32,num_4,0.916768848809,,,2017_Apr_19_1955,59.9997883193,MAFE4ImagesEEG,001,100215,
AFNE01.JPG,AFNE01.JPG,AFNE01.JPG,AFNE01.JPG,AFNE01.JPG,AFNE01.JPG,3,3,33,6,,,,,,,,,,,,,,,,,,,,,,,AMSA13.jpg,AMNE12.jpg,AMNE18.jpg,AMSA02.jpg,AMSA13.jpg,MS,2,num_8,32,num_4,0.866773643822,,,2017_Apr_19_1955,59.9997883193,MAFE4ImagesEEG,001,100215,
AFNE01.JPG,AFNE01.JPG,AFNE01.JPG,AFNE01.JPG,AFNE01.JPG,AFNE01.JPG,3,4,34,4,,,,,,,,,,,,,,,,,,,,,,,AMNE14.jpg,AMSA07.jpg,AMSA04.jpg,AMNE05.jpg,AMNE05.jpg,MN,1,num_4,32,num_2,1.20006036307,,,2017_Apr_19_1955,59.9997883193,MAFE4ImagesEEG,001,100215,
AFNE01.JPG,AFNE01.JPG,AFNE01.JPG,AFNE01.JPG,AFNE01.JPG,AFNE01.JPG,3,5,35,7,,,,,,,,,,,,,,,,,,,,,,,AMSA17.jpg,AMNE11.jpg,AMNE03.jpg,AMSA12.jpg,AMNE11.jpg,MN,1,num_6,16,num_6,1.01675990017,,,2017_Apr_19_1955,59.9997883193,MAFE4ImagesEEG,001,100215,
AFNE01.JPG,AFNE01.JPG,AFNE01.JPG,AFNE01.JPG,AFNE01.JPG,AFNE01.JPG,3,6,36,8,,,,,,,,,,,,,,,,,,,,,,,AMSA04.jpg,AMNE13.jpg,AMSA06.jpg,AMNE02.jpg,AMSA04.jpg,MS,2,num_8,16,num_8,1.16674455281,,,2017_Apr_19_1955,59.9997883193,MAFE4ImagesEEG,001,100215,
AFNE01.JPG,AFNE01.JPG,AFNE01.JPG,AFNE01.JPG,AFNE01.JPG,AFNE01.JPG,3,7,37,2,,,,,,,,,,,,,,,,,,,,,,,AMSA04.jpg,AMNE04.jpg,AMNE10.jpg,AMSA11.jpg,AMNE10.jpg,MN,1,num_2,16,num_2,1.76665333461,,,2017_Apr_19_1955,59.9997883193,MAFE4ImagesEEG,001,100215,
AFNE01.JPG,AFNE01.JPG,AFNE01.JPG,AFNE01.JPG,AFNE01.JPG,AFNE01.JPG,3,8,38,0,,,,,,,,,,,,,,,,,,,,,,,AMNE12.jpg,AMNE04.jpg,AMSA05.jpg,AMSA07.jpg,AMNE12.jpg,MN,1,num_8,16,num_8,0.816795758787,,,2017_Apr_19_1955,59.9997883193,MAFE4ImagesEEG,001,100215,
AFNE01.JPG,AFNE01.JPG,AFNE01.JPG,AFNE01.JPG,AFNE01.JPG,AFNE01.JPG,3,9,39,1,,,,,,,,,,,,,,,,,,,,,,,AMSA14.jpg,AMSA16.jpg,AMNE20.jpg,AMNE09.jpg,AMNE20.jpg,MN,1,num_2,32,num_4,1.35006682598,,,2017_Apr_19_1955,59.9997883193,MAFE4ImagesEEG,001,100215,
AFNE01.JPG,AFNE01.JPG,AFNE01.JPG,AFNE01.JPG,AFNE01.JPG,AFNE01.JPG,4,0,40,0,,,,,,,,,,,,,,,,,,,,,,,AMNE04.jpg,AMSA13.jpg,AMSA17.jpg,AMNE12.jpg,AMSA17.jpg,MS,2,num_2,32,num_8,0.950085300574,,,2017_Apr_19_1955,59.9997883193,MAFE4ImagesEEG,001,100215,
AFNE01.JPG,AFNE01.JPG,AFNE01.JPG,AFNE01.JPG,AFNE01.JPG,AFNE01.JPG,4,1,41,5,,,,,,,,,,,,,,,,,,,,,,,AMNE08.jpg,AMNE19.jpg,AMSA19.jpg,AMSA03.jpg,AMSA03.jpg,MS,2,num_4,16,num_4,0.666804049892,,,2017_Apr_19_1955,59.9997883193,MAFE4ImagesEEG,001,100215,
AFNE01.JPG,AFNE01.JPG,AFNE01.JPG,AFNE01.JPG,AFNE01.JPG,AFNE01.JPG,4,2,42,1,,,,,,,,,,,,,,,,,,,,,,,AMNE14.jpg,AMNE20.jpg,AMSA12.jpg,AMSA13.jpg,AMNE20.jpg,MN,1,num_6,16,num_6,1.01675284392,,,2017_Apr_19_1955,59.9997883193,MAFE4ImagesEEG,001,100215,
AFNE01.JPG,AFNE01.JPG,AFNE01.JPG,AFNE01.JPG,AFNE01.JPG,AFNE01.JPG,4,3,43,6,,,,,,,,,,,,,,,,,,,,,,,AMNE17.jpg,AMSA17.jpg,AMNE19.jpg,AMSA11.jpg,AMNE19.jpg,MN,1,num_2,16,num_2,0.800235999835,,,2017_Apr_19_1955,59.9997883193,MAFE4ImagesEEG,001,100215,
AFNE01.JPG,AFNE01.JPG,AFNE01.JPG,AFNE01.JPG,AFNE01.JPG,AFNE01.JPG,4,4,44,8,,,,,,,,,,,,,,,,,,,,,,,AMNE20.jpg,AMSA03.jpg,AMSA04.jpg,AMNE15.jpg,AMSA03.jpg,MS,2,num_6,16,num_6,1.70003582656,,,2017_Apr_19_1955,59.9997883193,MAFE4ImagesEEG,001,100215,
AFNE01.JPG,AFNE01.JPG,AFNE01.JPG,AFNE01.JPG,AFNE01.JPG,AFNE01.JPG,4,5,45,3,,,,,,,,,,,,,,,,,,,,,,,AMSA16.jpg,AMNE06.jpg,AMSA11.jpg,AMNE12.jpg,AMSA16.jpg,MS,2,num_8,16,num_8,1.56675558625,,,2017_Apr_19_1955,59.9997883193,MAFE4ImagesEEG,001,100215,
AFNE01.JPG,AFNE01.JPG,AFNE01.JPG,AFNE01.JPG,AFNE01.JPG,AFNE01.JPG,4,6,46,4,,,,,,,,,,,,,,,,,,,,,,,AMNE06.jpg,AMNE03.jpg,AMSA11.jpg,AMSA14.jpg,AMNE06.jpg,MN,1,num_8,32,num_6,0.883692951349,,,2017_Apr_19_1955,59.9997883193,MAFE4ImagesEEG,001,100215,
AFNE01.JPG,AFNE01.JPG,AFNE01.JPG,AFNE01.JPG,AFNE01.JPG,AFNE01.JPG,4,7,47,7,,,,,,,,,,,,,,,,,,,,,,,AMSA14.jpg,AMNE17.jpg,AMNE19.jpg,AMSA17.jpg,AMNE19.jpg,MN,1,num_2,16,num_2,0.900136923505,,,2017_Apr_19_1955,59.9997883193,MAFE4ImagesEEG,001,100215,
AFNE01.JPG,AFNE01.JPG,AFNE01.JPG,AFNE01.JPG,AFNE01.JPG,AFNE01.JPG,4,8,48,2,,,,,,,,,,,,,,,,,,,,,,,AMNE05.jpg,AMNE09.jpg,AMSA11.jpg,AMSA07.jpg,AMNE05.jpg,MN,1,num_8,16,num_8,1.20044589147,,,2017_Apr_19_1955,59.9997883193,MAFE4ImagesEEG,001,100215,
AFNE01.JPG,AFNE01.JPG,AFNE01.JPG,AFNE01.JPG,AFNE01.JPG,AFNE01.JPG,4,9,49,9,,,,,,,,,,,,,,,,,,,,,,,AMSA11.jpg,AMNE14.jpg,AMNE08.jpg,AMSA08.jpg,AMNE08.jpg,MN,1,num_2,32,num_4,2.34997766052,,,2017_Apr_19_1955,59.9997883193,MAFE4ImagesEEG,001,100215,
AFNE01.JPG,AFNE01.JPG,AFNE01.JPG,AFNE01.JPG,AFNE01.JPG,AFNE01.JPG,5,0,50,4,,,,,,,,,,,,,,,,,,,,,,,AMNE01.jpg,AMSA14.jpg,AMSA04.jpg,AMNE16.jpg,AMSA14.jpg,MS,2,num_6,16,num_6,0.71675659655,,,2017_Apr_19_1955,59.9997883193,MAFE4ImagesEEG,001,100215,
AFNE01.JPG,AFNE01.JPG,AFNE01.JPG,AFNE01.JPG,AFNE01.JPG,AFNE01.JPG,5,1,51,0,,,,,,,,,,,,,,,,,,,,,,,AMNE10.jpg,AMNE18.jpg,AMSA02.jpg,AMSA05.jpg,AMNE10.jpg,MN,1,num_8,16,num_8,1.15009562834,,,2017_Apr_19_1955,59.9997883193,MAFE4ImagesEEG,001,100215,
AFNE01.JPG,AFNE01.JPG,AFNE01.JPG,AFNE01.JPG,AFNE01.JPG,AFNE01.JPG,5,2,52,5,,,,,,,,,,,,,,,,,,,,,,,AMNE20.jpg,AMNE07.jpg,AMSA13.jpg,AMSA03.jpg,AMSA03.jpg,MS,2,num_4,16,num_4,0.816908017499,,,2017_Apr_19_1955,59.9997883193,MAFE4ImagesEEG,001,100215,
AFNE01.JPG,AFNE01.JPG,AFNE01.JPG,AFNE01.JPG,AFNE01.JPG,AFNE01.JPG,5,3,53,2,,,,,,,,,,,,,,,,,,,,,,,AMSA08.jpg,AMNE16.jpg,AMSA09.jpg,AMNE15.jpg,AMNE15.jpg,MN,1,num_4,16,num_4,0.53349975415,,,2017_Apr_19_1955,59.9997883193,MAFE4ImagesEEG,001,100215,
AFNE01.JPG,AFNE01.JPG,AFNE01.JPG,AFNE01.JPG,AFNE01.JPG,AFNE01.JPG,5,4,54,3,,,,,,,,,,,,,,,,,,,,,,,AMSA05.jpg,AMSA02.jpg,AMNE09.jpg,AMNE19.jpg,AMNE19.jpg,MN,1,num_4,16,num_4,1.10007604724,,,2017_Apr_19_1955,59.9997883193,MAFE4ImagesEEG,001,100215,
AFNE01.JPG,AFNE01.JPG,AFNE01.JPG,AFNE01.JPG,AFNE01.JPG,AFNE01.JPG,5,5,55,7,,,,,,,,,,,,,,,,,,,,,,,AMSA14.jpg,AMNE10.jpg,AMNE19.jpg,AMSA19.jpg,AMNE19.jpg,MN,1,num_2,16,num_2,0.733457480732,,,2017_Apr_19_1955,59.9997883193,MAFE4ImagesEEG,001,100215,
AFNE01.JPG,AFNE01.JPG,AFNE01.JPG,AFNE01.JPG,AFNE01.JPG,AFNE01.JPG,5,6,56,9,,,,,,,,,,,,,,,,,,,,,,,AMNE02.jpg,AMNE11.jpg,AMSA08.jpg,AMSA16.jpg,AMNE11.jpg,MN,1,num_6,16,num_6,0.783468401933,,,2017_Apr_19_1955,59.9997883193,MAFE4ImagesEEG,001,100215,
AFNE01.JPG,AFNE01.JPG,AFNE01.JPG,AFNE01.JPG,AFNE01.JPG,AFNE01.JPG,5,7,57,6,,,,,,,,,,,,,,,,,,,,,,,AMSA06.jpg,AMSA16.jpg,AMNE20.jpg,AMNE10.jpg,AMSA16.jpg,MS,2,num_6,32,num_8,1.11671567027,,,2017_Apr_19_1955,59.9997883193,MAFE4ImagesEEG,001,100215,
AFNE01.JPG,AFNE01.JPG,AFNE01.JPG,AFNE01.JPG,AFNE01.JPG,AFNE01.JPG,5,8,58,8,,,,,,,,,,,,,,,,,,,,,,,AMNE07.jpg,AMNE09.jpg,AMSA01.jpg,AMSA13.jpg,AMNE09.jpg,MN,1,num_6,16,num_6,0.883469075459,,,2017_Apr_19_1955,59.9997883193,MAFE4ImagesEEG,001,100215,
AFNE01.JPG,AFNE01.JPG,AFNE01.JPG,AFNE01.JPG,AFNE01.JPG,AFNE01.JPG,5,9,59,1,,,,,,,,,,,,,,,,,,,,,,,AMNE15.jpg,AMSA13.jpg,AMSA12.jpg,AMNE06.jpg,AMNE06.jpg,MN,1,num_4,16,num_4,0.733460688149,,,2017_Apr_19_1955,59.9997883193,MAFE4ImagesEEG,001,100215,
,,,,,,,,,,,,,,,,,,,,,,,,,,,,,,,,,,,,,,,,,,,space,7.28288545861,2017_Apr_19_1955,59.9997883193,MAFE4ImagesEEG,001,100215,
AFNE01.JPG,AFNE01.JPG,AFNE01.JPG,AFNE01.JPG,AFNE01.JPG,AFNE01.JPG,,,,,0,0,0,5,,,,,,,,,,,,,,,,,,,AFNE12.jpg,AFSA15.jpg,AFNE02.jpg,AFSA19.jpg,AFNE02.jpg,FN,3,num_2,32,num_6,0.733471272513,,,2017_Apr_19_1955,59.9997883193,MAFE4ImagesEEG,001,100215,
AFNE01.JPG,AFNE01.JPG,AFNE01.JPG,AFNE01.JPG,AFNE01.JPG,AFNE01.JPG,,,,,0,1,1,8,,,,,,,,,,,,,,,,,,,AFSA20.jpg,AFNE17.jpg,AFSA10.jpg,AFNE13.jpg,AFNE13.jpg,FN,3,num_4,16,num_4,1.26674201898,,,2017_Apr_19_1955,59.9997883193,MAFE4ImagesEEG,001,100215,
AFNE01.JPG,AFNE01.JPG,AFNE01.JPG,AFNE01.JPG,AFNE01.JPG,AFNE01.JPG,,,,,0,2,2,3,,,,,,,,,,,,,,,,,,,AFSA14.jpg,AFNE01.jpg,AFSA20.jpg,AFNE19.jpg,AFSA20.jpg,FS,4,num_2,16,num_2,1.05010842584,,,2017_Apr_19_1955,59.9997883193,MAFE4ImagesEEG,001,100215,
AFNE01.JPG,AFNE01.JPG,AFNE01.JPG,AFNE01.JPG,AFNE01.JPG,AFNE01.JPG,,,,,0,3,3,0,,,,,,,,,,,,,,,,,,,AFNE15.jpg,AFNE10.jpg,AFSA12.jpg,AFSA14.jpg,AFSA12.jpg,FS,4,num_2,16,num_2,0.550137773476,,,2017_Apr_19_1955,59.9997883193,MAFE4ImagesEEG,001,100215,
AFNE01.JPG,AFNE01.JPG,AFNE01.JPG,AFNE01.JPG,AFNE01.JPG,AFNE01.JPG,,,,,0,4,4,6,,,,,,,,,,,,,,,,,,,AFSA15.jpg,AFNE15.jpg,AFNE13.jpg,AFSA03.jpg,AFSA15.jpg,FS,4,num_8,32,num_6,0.666780956672,,,2017_Apr_19_1955,59.9997883193,MAFE4ImagesEEG,001,100215,
AFNE01.JPG,AFNE01.JPG,AFNE01.JPG,AFNE01.JPG,AFNE01.JPG,AFNE01.JPG,,,,,0,5,5,7,,,,,,,,,,,,,,,,,,,AFSA05.jpg,AFNE20.jpg,AFNE10.jpg,AFSA13.jpg,AFNE20.jpg,FN,3,num_6,16,num_6,1.08343033018,,,2017_Apr_19_1955,59.9997883193,MAFE4ImagesEEG,001,100215,
AFNE01.JPG,AFNE01.JPG,AFNE01.JPG,AFNE01.JPG,AFNE01.JPG,AFNE01.JPG,,,,,0,6,6,9,,,,,,,,,,,,,,,,,,,AFSA20.jpg,AFSA13.jpg,AFNE19.jpg,AFNE20.jpg,AFSA13.jpg,FS,4,num_6,16,num_6,0.733480894676,,,2017_Apr_19_1955,59.9997883193,MAFE4ImagesEEG,001,100215,
AFNE01.JPG,AFNE01.JPG,AFNE01.JPG,AFNE01.JPG,AFNE01.JPG,AFNE01.JPG,,,,,0,7,7,2,,,,,,,,,,,,,,,,,,,AFSA12.jpg,AFSA18.jpg,AFNE18.jpg,AFNE01.jpg,AFNE01.jpg,FN,3,num_4,16,num_4,0.733440802316,,,2017_Apr_19_1955,59.9997883193,MAFE4ImagesEEG,001,100215,
AFNE01.JPG,AFNE01.JPG,AFNE01.JPG,AFNE01.JPG,AFNE01.JPG,AFNE01.JPG,,,,,0,8,8,4,,,,,,,,,,,,,,,,,,,AFNE14.jpg,AFSA07.jpg,AFSA10.jpg,AFNE12.jpg,AFSA10.jpg,FS,4,num_2,16,num_2,1.33344773029,,,2017_Apr_19_1955,59.9997883193,MAFE4ImagesEEG,001,100215,
AFNE01.JPG,AFNE01.JPG,AFNE01.JPG,AFNE01.JPG,AFNE01.JPG,AFNE01.JPG,,,,,0,9,9,1,,,,,,,,,,,,,,,,,,,AFNE13.jpg,AFSA12.jpg,AFSA04.jpg,AFNE07.jpg,AFSA04.jpg,FS,4,num_2,16,num_2,0.933446319046,,,2017_Apr_19_1955,59.9997883193,MAFE4ImagesEEG,001,100215,
AFNE01.JPG,AFNE01.JPG,AFNE01.JPG,AFNE01.JPG,AFNE01.JPG,AFNE01.JPG,,,,,1,0,10,2,,,,,,,,,,,,,,,,,,,AFSA19.jpg,AFNE07.jpg,AFSA17.jpg,AFNE10.jpg,AFNE07.jpg,FN,3,num_6,16,num_6,1.0167117893,,,2017_Apr_19_1955,59.9997883193,MAFE4ImagesEEG,001,100215,
AFNE01.JPG,AFNE01.JPG,AFNE01.JPG,AFNE01.JPG,AFNE01.JPG,AFNE01.JPG,,,,,1,1,11,1,,,,,,,,,,,,,,,,,,,AFSA03.jpg,AFNE03.jpg,AFSA08.jpg,AFNE19.jpg,AFNE19.jpg,FN,3,num_4,16,num_4,0.716781293479,,,2017_Apr_19_1955,59.9997883193,MAFE4ImagesEEG,001,100215,
AFNE01.JPG,AFNE01.JPG,AFNE01.JPG,AFNE01.JPG,AFNE01.JPG,AFNE01.JPG,,,,,1,2,12,6,,,,,,,,,,,,,,,,,,,AFSA03.jpg,AFNE08.jpg,AFSA07.jpg,AFNE05.jpg,AFSA07.jpg,FS,4,num_2,16,num_2,2.44994144907,,,2017_Apr_19_1955,59.9997883193,MAFE4ImagesEEG,001,100215,
AFNE01.JPG,AFNE01.JPG,AFNE01.JPG,AFNE01.JPG,AFNE01.JPG,AFNE01.JPG,,,,,1,3,13,8,,,,,,,,,,,,,,,,,,,AFSA18.jpg,AFSA11.jpg,AFNE16.jpg,AFNE01.jpg,AFNE01.jpg,FN,3,num_4,16,num_4,0.900440984144,,,2017_Apr_19_1955,59.9997883193,MAFE4ImagesEEG,001,100215,
AFNE01.JPG,AFNE01.JPG,AFNE01.JPG,AFNE01.JPG,AFNE01.JPG,AFNE01.JPG,,,,,1,4,14,5,,,,,,,,,,,,,,,,,,,AFNE16.jpg,AFSA13.jpg,AFSA05.jpg,AFNE11.jpg,AFNE16.jpg,FN,3,num_8,32,num_4,0.750222512725,,,2017_Apr_19_1955,59.9997883193,MAFE4ImagesEEG,001,100215,
AFNE01.JPG,AFNE01.JPG,AFNE01.JPG,AFNE01.JPG,AFNE01.JPG,AFNE01.JPG,,,,,1,5,15,3,,,,,,,,,,,,,,,,,,,AFNE11.jpg,AFSA13.jpg,AFSA02.jpg,AFNE05.jpg,AFNE05.jpg,FN,3,num_4,16,num_4,0.933409434016,,,2017_Apr_19_1955,59.9997883193,MAFE4ImagesEEG,001,100215,
AFNE01.JPG,AFNE01.JPG,AFNE01.JPG,AFNE01.JPG,AFNE01.JPG,AFNE01.JPG,,,,,1,6,16,0,,,,,,,,,,,,,,,,,,,AFSA16.jpg,AFNE20.jpg,AFNE10.jpg,AFSA11.jpg,AFSA16.jpg,FS,4,num_8,32,num_4,0.616787034698,,,2017_Apr_19_1955,59.9997883193,MAFE4ImagesEEG,001,100215,
AFNE01.JPG,AFNE01.JPG,AFNE01.JPG,AFNE01.JPG,AFNE01.JPG,AFNE01.JPG,,,,,1,7,17,7,,,,,,,,,,,,,,,,,,,AFNE16.jpg,AFSA09.jpg,AFNE02.jpg,AFSA12.jpg,AFNE16.jpg,FN,3,num_8,16,num_8,1.00039162242,,,2017_Apr_19_1955,59.9997883193,MAFE4ImagesEEG,001,100215,
AFNE01.JPG,AFNE01.JPG,AFNE01.JPG,AFNE01.JPG,AFNE01.JPG,AFNE01.JPG,,,,,1,8,18,9,,,,,,,,,,,,,,,,,,,AFSA13.jpg,AFSA12.jpg,AFNE05.jpg,AFNE04.jpg,AFSA13.jpg,FS,4,num_8,32,num_6,0.800136249949,,,2017_Apr_19_1955,59.9997883193,MAFE4ImagesEEG,001,100215,
AFNE01.JPG,AFNE01.JPG,AFNE01.JPG,AFNE01.JPG,AFNE01.JPG,AFNE01.JPG,,,,,1,9,19,4,,,,,,,,,,,,,,,,,,,AFSA20.jpg,AFNE06.jpg,AFNE10.jpg,AFSA06.jpg,AFSA06.jpg,FS,4,num_4,16,num_4,0.650150955829,,,2017_Apr_19_1955,59.9997883193,MAFE4ImagesEEG,001,100215,
AFNE01.JPG,AFNE01.JPG,AFNE01.JPG,AFNE01.JPG,AFNE01.JPG,AFNE01.JPG,,,,,2,0,20,2,,,,,,,,,,,,,,,,,,,AFNE01.jpg,AFSA19.jpg,AFSA03.jpg,AFNE18.jpg,AFSA19.jpg,FS,4,num_6,32,num_2,1.36679401077,,,2017_Apr_19_1955,59.9997883193,MAFE4ImagesEEG,001,100215,
AFNE01.JPG,AFNE01.JPG,AFNE01.JPG,AFNE01.JPG,AFNE01.JPG,AFNE01.JPG,,,,,2,1,21,4,,,,,,,,,,,,,,,,,,,AFNE05.jpg,AFSA20.jpg,AFNE14.jpg,AFSA16.jpg,AFSA16.jpg,FS,4,num_4,16,num_4,0.900123131723,,,2017_Apr_19_1955,59.9997883193,MAFE4ImagesEEG,001,100215,
AFNE01.JPG,AFNE01.JPG,AFNE01.JPG,AFNE01.JPG,AFNE01.JPG,AFNE01.JPG,,,,,2,2,22,8,,,,,,,,,,,,,,,,,,,AFNE18.jpg,AFSA04.jpg,AFNE02.jpg,AFSA10.jpg,AFNE18.jpg,FN,3,num_8,16,num_8,1.01671884555,,,2017_Apr_19_1955,59.9997883193,MAFE4ImagesEEG,001,100215,
AFNE01.JPG,AFNE01.JPG,AFNE01.JPG,AFNE01.JPG,AFNE01.JPG,AFNE01.JPG,,,,,2,3,23,1,,,,,,,,,,,,,,,,,,,AFNE17.jpg,AFSA19.jpg,AFNE10.jpg,AFSA07.jpg,AFSA19.jpg,FS,4,num_6,32,num_8,0.916754736274,,,2017_Apr_19_1955,59.9997883193,MAFE4ImagesEEG,001,100215,
AFNE01.JPG,AFNE01.JPG,AFNE01.JPG,AFNE01.JPG,AFNE01.JPG,AFNE01.JPG,,,,,2,4,24,5,,,,,,,,,,,,,,,,,,,AFNE15.jpg,AFNE07.jpg,AFSA07.jpg,AFSA12.jpg,AFSA12.jpg,FS,4,num_4,16,num_4,0.933457865613,,,2017_Apr_19_1955,59.9997883193,MAFE4ImagesEEG,001,100215,
AFNE01.JPG,AFNE01.JPG,AFNE01.JPG,AFNE01.JPG,AFNE01.JPG,AFNE01.JPG,,,,,2,5,25,9,,,,,,,,,,,,,,,,,,,AFNE05.jpg,AFSA02.jpg,AFSA11.jpg,AFNE02.jpg,AFSA02.jpg,FS,4,num_6,32,num_2,0.766732236429,,,2017_Apr_19_1955,59.9997883193,MAFE4ImagesEEG,001,100215,
AFNE01.JPG,AFNE01.JPG,AFNE01.JPG,AFNE01.JPG,AFNE01.JPG,AFNE01.JPG,,,,,2,6,26,7,,,,,,,,,,,,,,,,,,,AFNE01.jpg,AFSA04.jpg,AFNE05.jpg,AFSA19.jpg,AFSA04.jpg,FS,4,num_6,32,num_4,1.11689079381,,,2017_Apr_19_1955,59.9997883193,MAFE4ImagesEEG,001,100215,
AFNE01.JPG,AFNE01.JPG,AFNE01.JPG,AFNE01.JPG,AFNE01.JPG,AFNE01.JPG,,,,,2,7,27,6,,,,,,,,,,,,,,,,,,,AFSA19.jpg,AFNE11.jpg,AFNE15.jpg,AFSA11.jpg,AFSA11.jpg,FS,4,num_4,16,num_4,0.716805028176,,,2017_Apr_19_1955,59.9997883193,MAFE4ImagesEEG,001,100215,
AFNE01.JPG,AFNE01.JPG,AFNE01.JPG,AFNE01.JPG,AFNE01.JPG,AFNE01.JPG,,,,,2,8,28,0,,,,,,,,,,,,,,,,,,,AFNE14.jpg,AFNE06.jpg,AFSA05.jpg,AFSA20.jpg,AFNE06.jpg,FN,3,num_6,16,num_6,0.883427700115,,,2017_Apr_19_1955,59.9997883193,MAFE4ImagesEEG,001,100215,
AFNE01.JPG,AFNE01.JPG,AFNE01.JPG,AFNE01.JPG,AFNE01.JPG,AFNE01.JPG,,,,,2,9,29,3,,,,,,,,,,,,,,,,,,,AFNE05.jpg,AFNE03.jpg,AFSA05.jpg,AFSA03.jpg,AFNE05.jpg,FN,3,num_8,32,num_6,0.933436696854,,,2017_Apr_19_1955,59.9997883193,MAFE4ImagesEEG,001,100215,
AFNE01.JPG,AFNE01.JPG,AFNE01.JPG,AFNE01.JPG,AFNE01.JPG,AFNE01.JPG,,,,,3,0,30,4,,,,,,,,,,,,,,,,,,,AFNE06.jpg,AFSA08.jpg,AFNE02.jpg,AFSA04.jpg,AFSA08.jpg,FS,4,num_6,32,num_4,0.733474800654,,,2017_Apr_19_1955,59.9997883193,MAFE4ImagesEEG,001,100215,
AFNE01.JPG,AFNE01.JPG,AFNE01.JPG,AFNE01.JPG,AFNE01.JPG,AFNE01.JPG,,,,,3,1,31,3,,,,,,,,,,,,,,,,,,,AFNE16.jpg,AFNE19.jpg,AFSA02.jpg,AFSA01.jpg,AFNE19.jpg,FN,3,num_6,16,num_6,0.916733567487,,,2017_Apr_19_1955,59.9997883193,MAFE4ImagesEEG,001,100215,
AFNE01.JPG,AFNE01.JPG,AFNE01.JPG,AFNE01.JPG,AFNE01.JPG,AFNE01.JPG,,,,,3,2,32,6,,,,,,,,,,,,,,,,,,,AFSA12.jpg,AFSA13.jpg,AFNE19.jpg,AFNE13.jpg,AFSA12.jpg,FS,4,num_8,16,num_8,1.35002705434,,,2017_Apr_19_1955,59.9997883193,MAFE4ImagesEEG,001,100215,
AFNE01.JPG,AFNE01.JPG,AFNE01.JPG,AFNE01.JPG,AFNE01.JPG,AFNE01.JPG,,,,,3,3,33,9,,,,,,,,,,,,,,,,,,,AFNE12.jpg,AFSA16.jpg,AFSA14.jpg,AFNE13.jpg,AFNE13.jpg,FN,3,num_4,32,num_8,2.09988520748,,,2017_Apr_19_1955,59.9997883193,MAFE4ImagesEEG,001,100215,
AFNE01.JPG,AFNE01.JPG,AFNE01.JPG,AFNE01.JPG,AFNE01.JPG,AFNE01.JPG,,,,,3,4,34,7,,,,,,,,,,,,,,,,,,,AFSA14.jpg,AFNE05.jpg,AFNE20.jpg,AFSA01.jpg,AFSA01.jpg,FS,4,num_4,16,num_4,0.916745114082,,,2017_Apr_19_1955,59.9997883193,MAFE4ImagesEEG,001,100215,
AFNE01.JPG,AFNE01.JPG,AFNE01.JPG,AFNE01.JPG,AFNE01.JPG,AFNE01.JPG,,,,,3,5,35,2,,,,,,,,,,,,,,,,,,,AFNE13.jpg,AFNE03.jpg,AFSA16.jpg,AFSA20.jpg,AFNE03.jpg,FN,3,num_6,16,num_6,0.816799928405,,,2017_Apr_19_1955,59.9997883193,MAFE4ImagesEEG,001,100215,
AFNE01.JPG,AFNE01.JPG,AFNE01.JPG,AFNE01.JPG,AFNE01.JPG,AFNE01.JPG,,,,,3,6,36,0,,,,,,,,,,,,,,,,,,,AFSA02.jpg,AFSA09.jpg,AFNE15.jpg,AFNE17.jpg,AFNE15.jpg,FN,3,num_2,16,num_2,1.23339573847,,,2017_Apr_19_1955,59.9997883193,MAFE4ImagesEEG,001,100215,
AFNE01.JPG,AFNE01.JPG,AFNE01.JPG,AFNE01.JPG,AFNE01.JPG,AFNE01.JPG,,,,,3,7,37,8,,,,,,,,,,,,,,,,,,,AFSA11.jpg,AFNE02.jpg,AFNE06.jpg,AFSA02.jpg,AFNE06.jpg,FN,3,num_2,16,num_2,0.76677681916,,,2017_Apr_19_1955,59.9997883193,MAFE4ImagesEEG,001,100215,
AFNE01.JPG,AFNE01.JPG,AFNE01.JPG,AFNE01.JPG,AFNE01.JPG,AFNE01.JPG,,,,,3,8,38,5,,,,,,,,,,,,,,,,,,,AFSA08.jpg,AFNE19.jpg,AFSA06.jpg,AFNE13.jpg,AFSA08.jpg,FS,4,num_8,16,num_8,0.883492489404,,,2017_Apr_19_1955,59.9997883193,MAFE4ImagesEEG,001,100215,
AFNE01.JPG,AFNE01.JPG,AFNE01.JPG,AFNE01.JPG,AFNE01.JPG,AFNE01.JPG,,,,,3,9,39,1,,,,,,,,,,,,,,,,,,,AFSA09.jpg,AFNE16.jpg,AFNE08.jpg,AFSA04.jpg,AFNE08.jpg,FN,3,num_2,16,num_2,0.866750229878,,,2017_Apr_19_1955,59.9997883193,MAFE4ImagesEEG,001,100215,
AFNE01.JPG,AFNE01.JPG,AFNE01.JPG,AFNE01.JPG,AFNE01.JPG,AFNE01.JPG,,,,,4,0,40,5,,,,,,,,,,,,,,,,,,,AFSA07.jpg,AFSA11.jpg,AFNE09.jpg,AFNE08.jpg,AFSA07.jpg,FS,4,num_8,32,num_6,0.983595158003,,,2017_Apr_19_1955,59.9997883193,MAFE4ImagesEEG,001,100215,
AFNE01.JPG,AFNE01.JPG,AFNE01.JPG,AFNE01.JPG,AFNE01.JPG,AFNE01.JPG,,,,,4,1,41,6,,,,,,,,,,,,,,,,,,,AFNE12.jpg,AFSA10.jpg,AFNE07.jpg,AFSA07.jpg,AFSA10.jpg,FS,4,num_6,16,num_6,0.93330391089,,,2017_Apr_19_1955,59.9997883193,MAFE4ImagesEEG,001,100215,
AFNE01.JPG,AFNE01.JPG,AFNE01.JPG,AFNE01.JPG,AFNE01.JPG,AFNE01.JPG,,,,,4,2,42,3,,,,,,,,,,,,,,,,,,,AFNE08.jpg,AFSA16.jpg,AFNE13.jpg,AFSA17.jpg,AFNE08.jpg,FN,3,num_8,16,num_8,0.800103534595,,,2017_Apr_19_1955,59.9997883193,MAFE4ImagesEEG,001,100215,
AFNE01.JPG,AFNE01.JPG,AFNE01.JPG,AFNE01.JPG,AFNE01.JPG,AFNE01.JPG,,,,,4,3,43,1,,,,,,,,,,,,,,,,,,,AFSA08.jpg,AFNE13.jpg,AFNE09.jpg,AFSA05.jpg,AFNE13.jpg,FN,3,num_6,16,num_6,0.750146818318,,,2017_Apr_19_1955,59.9997883193,MAFE4ImagesEEG,001,100215,
AFNE01.JPG,AFNE01.JPG,AFNE01.JPG,AFNE01.JPG,AFNE01.JPG,AFNE01.JPG,,,,,4,4,44,8,,,,,,,,,,,,,,,,,,,AFNE04.jpg,AFSA02.jpg,AFNE05.jpg,AFSA05.jpg,AFSA05.jpg,FS,4,num_4,32,num_6,0.833442758798,,,2017_Apr_19_1955,59.9997883193,MAFE4ImagesEEG,001,100215,
AFNE01.JPG,AFNE01.JPG,AFNE01.JPG,AFNE01.JPG,AFNE01.JPG,AFNE01.JPG,,,,,4,5,45,2,,,,,,,,,,,,,,,,,,,AFNE16.jpg,AFSA20.jpg,AFNE08.jpg,AFSA11.jpg,AFSA20.jpg,FS,4,num_6,16,num_6,0.666786409245,,,2017_Apr_19_1955,59.9997883193,MAFE4ImagesEEG,001,100215,
AFNE01.JPG,AFNE01.JPG,AFNE01.JPG,AFNE01.JPG,AFNE01.JPG,AFNE01.JPG,,,,,4,6,46,4,,,,,,,,,,,,,,,,,,,AFSA05.jpg,AFNE18.jpg,AFNE16.jpg,AFSA01.jpg,AFNE16.jpg,FN,3,num_2,16,num_2,0.76679478056,,,2017_Apr_19_1955,59.9997883193,MAFE4ImagesEEG,001,100215,
AFNE01.JPG,AFNE01.JPG,AFNE01.JPG,AFNE01.JPG,AFNE01.JPG,AFNE01.JPG,,,,,4,7,47,0,,,,,,,,,,,,,,,,,,,AFNE07.jpg,AFSA04.jpg,AFSA01.jpg,AFNE11.jpg,AFSA01.jpg,FS,4,num_2,16,num_2,1.033478425,,,2017_Apr_19_1955,59.9997883193,MAFE4ImagesEEG,001,100215,
AFNE01.JPG,AFNE01.JPG,AFNE01.JPG,AFNE01.JPG,AFNE01.JPG,AFNE01.JPG,,,,,4,8,48,7,,,,,,,,,,,,,,,,,,,AFNE20.jpg,AFSA01.jpg,AFNE19.jpg,AFSA05.jpg,AFNE19.jpg,FN,3,num_2,16,num_2,0.783184227068,,,2017_Apr_19_1955,59.9997883193,MAFE4ImagesEEG,001,100215,
AFNE01.JPG,AFNE01.JPG,AFNE01.JPG,AFNE01.JPG,AFNE01.JPG,AFNE01.JPG,,,,,4,9,49,9,,,,,,,,,,,,,,,,,,,AFNE10.jpg,AFSA07.jpg,AFNE13.jpg,AFSA15.jpg,AFNE13.jpg,FN,3,num_2,32,num_8,1.33339961941,,,2017_Apr_19_1955,59.9997883193,MAFE4ImagesEEG,001,100215,
AFNE01.JPG,AFNE01.JPG,AFNE01.JPG,AFNE01.JPG,AFNE01.JPG,AFNE01.JPG,,,,,5,0,50,8,,,,,,,,,,,,,,,,,,,AFNE14.jpg,AFNE03.jpg,AFSA20.jpg,AFSA08.jpg,AFNE14.jpg,FN,3,num_8,16,num_8,1.68332596167,,,2017_Apr_19_1955,59.9997883193,MAFE4ImagesEEG,001,100215,
AFNE01.JPG,AFNE01.JPG,AFNE01.JPG,AFNE01.JPG,AFNE01.JPG,AFNE01.JPG,,,,,5,1,51,4,,,,,,,,,,,,,,,,,,,AFSA03.jpg,AFNE07.jpg,AFSA18.jpg,AFNE16.jpg,AFSA03.jpg,FS,4,num_8,32,num_4,0.700404035044,,,2017_Apr_19_1955,59.9997883193,MAFE4ImagesEEG,001,100215,
AFNE01.JPG,AFNE01.JPG,AFNE01.JPG,AFNE01.JPG,AFNE01.JPG,AFNE01.JPG,,,,,5,2,52,3,,,,,,,,,,,,,,,,,,,AFNE03.jpg,AFSA07.jpg,AFSA15.jpg,AFNE09.jpg,AFNE03.jpg,FN,3,num_8,16,num_8,0.68349018009,,,2017_Apr_19_1955,59.9997883193,MAFE4ImagesEEG,001,100215,
AFNE01.JPG,AFNE01.JPG,AFNE01.JPG,AFNE01.JPG,AFNE01.JPG,AFNE01.JPG,,,,,5,3,53,9,,,,,,,,,,,,,,,,,,,AFSA14.jpg,AFNE18.jpg,AFSA13.jpg,AFNE03.jpg,AFNE18.jpg,FN,3,num_6,32,num_8,2.56665359123,,,2017_Apr_19_1955,59.9997883193,MAFE4ImagesEEG,001,100215,
AFNE01.JPG,AFNE01.JPG,AFNE01.JPG,AFNE01.JPG,AFNE01.JPG,AFNE01.JPG,,,,,5,4,54,5,,,,,,,,,,,,,,,,,,,AFSA09.jpg,AFNE04.jpg,AFNE07.jpg,AFSA13.jpg,AFSA09.jpg,FS,4,num_8,32,num_4,1.05012317986,,,2017_Apr_19_1955,59.9997883193,MAFE4ImagesEEG,001,100215,
AFNE01.JPG,AFNE01.JPG,AFNE01.JPG,AFNE01.JPG,AFNE01.JPG,AFNE01.JPG,,,,,5,5,55,6,,,,,,,,,,,,,,,,,,,AFNE01.jpg,AFSA16.jpg,AFSA01.jpg,AFNE06.jpg,AFSA01.jpg,FS,4,num_2,32,num_6,1.08343097166,,,2017_Apr_19_1955,59.9997883193,MAFE4ImagesEEG,001,100215,
AFNE01.JPG,AFNE01.JPG,AFNE01.JPG,AFNE01.JPG,AFNE01.JPG,AFNE01.JPG,,,,,5,6,56,7,,,,,,,,,,,,,,,,,,,AFSA11.jpg,AFSA04.jpg,AFNE08.jpg,AFNE12.jpg,AFNE08.jpg,FN,3,num_2,16,num_2,0.650223442877,,,2017_Apr_19_1955,59.9997883193,MAFE4ImagesEEG,001,100215,
AFNE01.JPG,AFNE01.JPG,AFNE01.JPG,AFNE01.JPG,AFNE01.JPG,AFNE01.JPG,,,,,5,7,57,2,,,,,,,,,,,,,,,,,,,AFSA19.jpg,AFNE15.jpg,AFNE17.jpg,AFSA17.jpg,AFNE17.jpg,FN,3,num_2,16,num_2,0.883443737082,,,2017_Apr_19_1955,59.9997883193,MAFE4ImagesEEG,001,100215,
AFNE01.JPG,AFNE01.JPG,AFNE01.JPG,AFNE01.JPG,AFNE01.JPG,AFNE01.JPG,,,,,5,8,58,0,,,,,,,,,,,,,,,,,,,AFNE05.jpg,AFSA17.jpg,AFNE19.jpg,AFSA11.jpg,AFSA11.jpg,FS,4,num_4,16,num_4,0.816661369143,,,2017_Apr_19_1955,59.9997883193,MAFE4ImagesEEG,001,100215,
AFNE01.JPG,AFNE01.JPG,AFNE01.JPG,AFNE01.JPG,AFNE01.JPG,AFNE01.JPG,,,,,5,9,59,1,,,,,,,,,,,,,,,,,,,AFSA17.jpg,AFSA02.jpg,AFNE07.jpg,AFNE10.jpg,AFNE10.jpg,FN,3,num_4,16,num_4,1.21674713475,,,2017_Apr_19_1955,59.9997883193,MAFE4ImagesEEG,001,100215,
,,,,,,,,,,,,,,,,,,,,,,,,,,,,,,,,,,,,,,,,,,,space,12.0995279042,2017_Apr_19_1955,59.9997883193,MAFE4ImagesEEG,001,100215,
AFNE01.JPG,AFNE01.JPG,AFNE01.JPG,AFNE01.JPG,AFNE01.JPG,AFNE01.JPG,,,,,,,,,0,0,0,7,,,,,,,,,,,,,,,AMNE11.jpg,AMSA14.jpg,AMNE16.jpg,AMSA13.jpg,AMSA14.jpg,MS,2,num_6,16,num_6,1.13345472238,,,2017_Apr_19_1955,59.9997883193,MAFE4ImagesEEG,001,100215,
AFNE01.JPG,AFNE01.JPG,AFNE01.JPG,AFNE01.JPG,AFNE01.JPG,AFNE01.JPG,,,,,,,,,0,1,1,9,,,,,,,,,,,,,,,AMNE20.jpg,AMSA08.jpg,AMNE17.jpg,AMSA14.jpg,AMNE17.jpg,MN,1,num_2,32,num_8,1.15009755277,,,2017_Apr_19_1955,59.9997883193,MAFE4ImagesEEG,001,100215,
AFNE01.JPG,AFNE01.JPG,AFNE01.JPG,AFNE01.JPG,AFNE01.JPG,AFNE01.JPG,,,,,,,,,0,2,2,0,,,,,,,,,,,,,,,AMNE18.jpg,AMSA15.jpg,AMSA18.jpg,AMNE01.jpg,AMNE18.jpg,MN,1,num_8,32,num_2,0.733575833467,,,2017_Apr_19_1955,59.9997883193,MAFE4ImagesEEG,001,100215,
AFNE01.JPG,AFNE01.JPG,AFNE01.JPG,AFNE01.JPG,AFNE01.JPG,AFNE01.JPG,,,,,,,,,0,3,3,6,,,,,,,,,,,,,,,AMSA03.jpg,AMSA17.jpg,AMNE03.jpg,AMNE18.jpg,AMSA17.jpg,MS,2,num_6,16,num_6,1.56681075334,,,2017_Apr_19_1955,59.9997883193,MAFE4ImagesEEG,001,100215,
AFNE01.JPG,AFNE01.JPG,AFNE01.JPG,AFNE01.JPG,AFNE01.JPG,AFNE01.JPG,,,,,,,,,0,4,4,8,,,,,,,,,,,,,,,AMSA18.jpg,AMNE06.jpg,AMSA13.jpg,AMNE03.jpg,AMSA18.jpg,MS,2,num_8,16,num_8,1.26671507687,,,2017_Apr_19_1955,59.9997883193,MAFE4ImagesEEG,001,100215,
AFNE01.JPG,AFNE01.JPG,AFNE01.JPG,AFNE01.JPG,AFNE01.JPG,AFNE01.JPG,,,,,,,,,0,5,5,4,,,,,,,,,,,,,,,AMNE07.jpg,AMNE11.jpg,AMSA07.jpg,AMSA20.jpg,AMSA07.jpg,MS,2,num_2,16,num_2,0.983424524806,,,2017_Apr_19_1955,59.9997883193,MAFE4ImagesEEG,001,100215,
AFNE01.JPG,AFNE01.JPG,AFNE01.JPG,AFNE01.JPG,AFNE01.JPG,AFNE01.JPG,,,,,,,,,0,6,6,2,,,,,,,,,,,,,,,AMSA03.jpg,AMNE04.jpg,AMNE20.jpg,AMSA15.jpg,AMNE04.jpg,MN,1,num_6,16,num_6,0.833458795765,,,2017_Apr_19_1955,59.9997883193,MAFE4ImagesEEG,001,100215,
AFNE01.JPG,AFNE01.JPG,AFNE01.JPG,AFNE01.JPG,AFNE01.JPG,AFNE01.JPG,,,,,,,,,0,7,7,3,,,,,,,,,,,,,,,AMSA18.jpg,AMNE05.jpg,AMSA11.jpg,AMNE13.jpg,AMSA11.jpg,MS,2,num_2,32,num_8,1.63309918312,,,2017_Apr_19_1955,59.9997883193,MAFE4ImagesEEG,001,100215,
AFNE01.JPG,AFNE01.JPG,AFNE01.JPG,AFNE01.JPG,AFNE01.JPG,AFNE01.JPG,,,,,,,,,0,8,8,5,,,,,,,,,,,,,,,AMNE12.jpg,AMSA11.jpg,AMSA16.jpg,AMNE03.jpg,AMNE03.jpg,MN,1,num_4,16,num_4,0.816783249989,,,2017_Apr_19_1955,59.9997883193,MAFE4ImagesEEG,001,100215,
AFNE01.JPG,AFNE01.JPG,AFNE01.JPG,AFNE01.JPG,AFNE01.JPG,AFNE01.JPG,,,,,,,,,0,9,9,1,,,,,,,,,,,,,,,AMSA08.jpg,AMSA19.jpg,AMNE01.jpg,AMNE15.jpg,AMNE01.jpg,MN,1,num_2,16,num_2,0.733475442132,,,2017_Apr_19_1955,59.9997883193,MAFE4ImagesEEG,001,100215,
AFNE01.JPG,AFNE01.JPG,AFNE01.JPG,AFNE01.JPG,AFNE01.JPG,AFNE01.JPG,,,,,,,,,1,0,10,5,,,,,,,,,,,,,,,AMSA08.jpg,AMNE17.jpg,AMSA19.jpg,AMNE13.jpg,AMNE17.jpg,MN,1,num_6,16,num_6,1.68378397709,,,2017_Apr_19_1955,59.9997883193,MAFE4ImagesEEG,001,100215,
AFNE01.JPG,AFNE01.JPG,AFNE01.JPG,AFNE01.JPG,AFNE01.JPG,AFNE01.JPG,,,,,,,,,1,1,11,1,,,,,,,,,,,,,,,AMSA19.jpg,AMNE14.jpg,AMNE03.jpg,AMSA04.jpg,AMSA04.jpg,MS,2,num_4,16,num_4,1.80011379824,,,2017_Apr_19_1955,59.9997883193,MAFE4ImagesEEG,001,100215,
AFNE01.JPG,AFNE01.JPG,AFNE01.JPG,AFNE01.JPG,AFNE01.JPG,AFNE01.JPG,,,,,,,,,1,2,12,6,,,,,,,,,,,,,,,AMNE09.jpg,AMSA03.jpg,AMNE15.jpg,AMSA18.jpg,AMSA03.jpg,MS,2,num_6,16,num_6,0.816767213051,,,2017_Apr_19_1955,59.9997883193,MAFE4ImagesEEG,001,100215,
AFNE01.JPG,AFNE01.JPG,AFNE01.JPG,AFNE01.JPG,AFNE01.JPG,AFNE01.JPG,,,,,,,,,1,3,13,2,,,,,,,,,,,,,,,AMSA04.jpg,AMNE12.jpg,AMSA05.jpg,AMNE07.jpg,AMNE07.jpg,MN,1,num_4,16,num_4,0.900126980589,,,2017_Apr_19_1955,59.9997883193,MAFE4ImagesEEG,001,100215,
AFNE01.JPG,AFNE01.JPG,AFNE01.JPG,AFNE01.JPG,AFNE01.JPG,AFNE01.JPG,,,,,,,,,1,4,14,8,,,,,,,,,,,,,,,AMSA18.jpg,AMSA06.jpg,AMNE02.jpg,AMNE06.jpg,AMNE02.jpg,MN,1,num_2,16,num_2,0.883574919368,,,2017_Apr_19_1955,59.9997883193,MAFE4ImagesEEG,001,100215,
AFNE01.JPG,AFNE01.JPG,AFNE01.JPG,AFNE01.JPG,AFNE01.JPG,AFNE01.JPG,,,,,,,,,1,5,15,0,,,,,,,,,,,,,,,AMSA02.jpg,AMNE10.jpg,AMNE18.jpg,AMSA12.jpg,AMNE10.jpg,MN,1,num_6,16,num_6,0.933446319017,,,2017_Apr_19_1955,59.9997883193,MAFE4ImagesEEG,001,100215,
AFNE01.JPG,AFNE01.JPG,AFNE01.JPG,AFNE01.JPG,AFNE01.JPG,AFNE01.JPG,,,,,,,,,1,6,16,7,,,,,,,,,,,,,,,AMSA06.jpg,AMSA19.jpg,AMNE19.jpg,AMNE08.jpg,AMSA19.jpg,MS,2,num_6,16,num_6,0.966611061216,,,2017_Apr_19_1955,59.9997883193,MAFE4ImagesEEG,001,100215,
AFNE01.JPG,AFNE01.JPG,AFNE01.JPG,AFNE01.JPG,AFNE01.JPG,AFNE01.JPG,,,,,,,,,1,7,17,3,,,,,,,,,,,,,,,AMNE14.jpg,AMNE15.jpg,AMSA15.jpg,AMSA14.jpg,AMSA14.jpg,MS,2,num_4,16,num_4,1.01673231661,,,2017_Apr_19_1955,59.9997883193,MAFE4ImagesEEG,001,100215,
AFNE01.JPG,AFNE01.JPG,AFNE01.JPG,AFNE01.JPG,AFNE01.JPG,AFNE01.JPG,,,,,,,,,1,8,18,9,,,,,,,,,,,,,,,AMSA09.jpg,AMSA20.jpg,AMNE15.jpg,AMNE18.jpg,AMNE15.jpg,MN,1,num_2,32,num_6,0.883421926817,,,2017_Apr_19_1955,59.9997883193,MAFE4ImagesEEG,001,100215,
AFNE01.JPG,AFNE01.JPG,AFNE01.JPG,AFNE01.JPG,AFNE01.JPG,AFNE01.JPG,,,,,,,,,1,9,19,4,,,,,,,,,,,,,,,AMSA14.jpg,AMSA11.jpg,AMNE14.jpg,AMNE05.jpg,AMNE05.jpg,MN,1,num_4,16,num_4,0.850098739553,,,2017_Apr_19_1955,59.9997883193,MAFE4ImagesEEG,001,100215,
AFNE01.JPG,AFNE01.JPG,AFNE01.JPG,AFNE01.JPG,AFNE01.JPG,AFNE01.JPG,,,,,,,,,2,0,20,9,,,,,,,,,,,,,,,AMSA19.jpg,AMNE01.jpg,AMNE02.jpg,AMSA14.jpg,AMNE01.jpg,MN,1,num_6,16,num_6,0.76675629185,,,2017_Apr_19_1955,59.9997883193,MAFE4ImagesEEG,001,100215,
AFNE01.JPG,AFNE01.JPG,AFNE01.JPG,AFNE01.JPG,AFNE01.JPG,AFNE01.JPG,,,,,,,,,2,1,21,8,,,,,,,,,,,,,,,AMNE12.jpg,AMSA17.jpg,AMNE20.jpg,AMSA12.jpg,AMNE12.jpg,MN,1,num_8,16,num_8,0.833432815911,,,2017_Apr_19_1955,59.9997883193,MAFE4ImagesEEG,001,100215,
AFNE01.JPG,AFNE01.JPG,AFNE01.JPG,AFNE01.JPG,AFNE01.JPG,AFNE01.JPG,,,,,,,,,2,2,22,0,,,,,,,,,,,,,,,AMSA14.jpg,AMNE07.jpg,AMNE01.jpg,AMSA05.jpg,AMSA14.jpg,MS,2,num_8,16,num_8,0.716768143146,,,2017_Apr_19_1955,59.9997883193,MAFE4ImagesEEG,001,100215,
AFNE01.JPG,AFNE01.JPG,AFNE01.JPG,AFNE01.JPG,AFNE01.JPG,AFNE01.JPG,,,,,,,,,2,3,23,7,,,,,,,,,,,,,,,AMNE13.jpg,AMSA11.jpg,AMSA17.jpg,AMNE04.jpg,AMSA11.jpg,MS,2,num_6,16,num_6,0.85016160438,,,2017_Apr_19_1955,59.9997883193,MAFE4ImagesEEG,001,100215,
AFNE01.JPG,AFNE01.JPG,AFNE01.JPG,AFNE01.JPG,AFNE01.JPG,AFNE01.JPG,,,,,,,,,2,4,24,6,,,,,,,,,,,,,,,AMSA06.jpg,AMSA04.jpg,AMNE12.jpg,AMNE14.jpg,AMNE12.jpg,MN,1,num_2,32,num_8,1.01673905211,,,2017_Apr_19_1955,59.9997883193,MAFE4ImagesEEG,001,100215,
AFNE01.JPG,AFNE01.JPG,AFNE01.JPG,AFNE01.JPG,AFNE01.JPG,AFNE01.JPG,,,,,,,,,2,5,25,2,,,,,,,,,,,,,,,AMNE15.jpg,AMSA13.jpg,AMSA10.jpg,AMNE04.jpg,AMNE15.jpg,MN,1,num_8,16,num_8,0.783541209676,,,2017_Apr_19_1955,59.9997883193,MAFE4ImagesEEG,001,100215,
AFNE01.JPG,AFNE01.JPG,AFNE01.JPG,AFNE01.JPG,AFNE01.JPG,AFNE01.JPG,,,,,,,,,2,6,26,5,,,,,,,,,,,,,,,AMSA14.jpg,AMSA05.jpg,AMNE01.jpg,AMNE05.jpg,AMSA05.jpg,MS,2,num_6,32,num_8,1.03342037124,,,2017_Apr_19_1955,59.9997883193,MAFE4ImagesEEG,001,100215,
AFNE01.JPG,AFNE01.JPG,AFNE01.JPG,AFNE01.JPG,AFNE01.JPG,AFNE01.JPG,,,,,,,,,2,7,27,4,,,,,,,,,,,,,,,AMNE15.jpg,AMNE10.jpg,AMSA13.jpg,AMSA20.jpg,AMSA20.jpg,MS,2,num_4,16,num_4,1.15006579962,,,2017_Apr_19_1955,59.9997883193,MAFE4ImagesEEG,001,100215,
AFNE01.JPG,AFNE01.JPG,AFNE01.JPG,AFNE01.JPG,AFNE01.JPG,AFNE01.JPG,,,,,,,,,2,8,28,3,,,,,,,,,,,,,,,AMNE16.jpg,AMSA04.jpg,AMNE06.jpg,AMSA10.jpg,AMSA04.jpg,MS,2,num_6,16,num_6,0.566790226032,,,2017_Apr_19_1955,59.9997883193,MAFE4ImagesEEG,001,100215,
AFNE01.JPG,AFNE01.JPG,AFNE01.JPG,AFNE01.JPG,AFNE01.JPG,AFNE01.JPG,,,,,,,,,2,9,29,1,,,,,,,,,,,,,,,AMNE11.jpg,AMNE02.jpg,AMSA18.jpg,AMSA20.jpg,AMSA20.jpg,MS,2,num_4,16,num_4,0.600113734079,,,2017_Apr_19_1955,59.9997883193,MAFE4ImagesEEG,001,100215,
AFNE01.JPG,AFNE01.JPG,AFNE01.JPG,AFNE01.JPG,AFNE01.JPG,AFNE01.JPG,,,,,,,,,3,0,30,7,,,,,,,,,,,,,,,AMNE04.jpg,AMNE12.jpg,AMSA05.jpg,AMSA14.jpg,AMNE04.jpg,MN,1,num_8,16,num_8,1.03347842503,,,2017_Apr_19_1955,59.9997883193,MAFE4ImagesEEG,001,100215,
AFNE01.JPG,AFNE01.JPG,AFNE01.JPG,AFNE01.JPG,AFNE01.JPG,AFNE01.JPG,,,,,,,,,3,1,31,4,,,,,,,,,,,,,,,AMNE06.jpg,AMNE07.jpg,AMSA09.jpg,AMSA15.jpg,AMNE06.jpg,MN,1,num_8,16,num_8,1.16673428917,,,2017_Apr_19_1955,59.9997883193,MAFE4ImagesEEG,001,100215,
AFNE01.JPG,AFNE01.JPG,AFNE01.JPG,AFNE01.JPG,AFNE01.JPG,AFNE01.JPG,,,,,,,,,3,2,32,1,,,,,,,,,,,,,,,AMNE10.jpg,AMNE04.jpg,AMSA14.jpg,AMSA13.jpg,AMNE10.jpg,MN,1,num_8,16,num_8,0.950116091524,,,2017_Apr_19_1955,59.9997883193,MAFE4ImagesEEG,001,100215,
AFNE01.JPG,AFNE01.JPG,AFNE01.JPG,AFNE01.JPG,AFNE01.JPG,AFNE01.JPG,,,,,,,,,3,3,33,9,,,,,,,,,,,,,,,AMSA02.jpg,AMSA07.jpg,AMNE05.jpg,AMNE08.jpg,AMSA02.jpg,MS,2,num_8,16,num_8,1.1001225544,,,2017_Apr_19_1955,59.9997883193,MAFE4ImagesEEG,001,100215,
AFNE01.JPG,AFNE01.JPG,AFNE01.JPG,AFNE01.JPG,AFNE01.JPG,AFNE01.JPG,,,,,,,,,3,4,34,3,,,,,,,,,,,,,,,AMNE06.jpg,AMSA15.jpg,AMNE19.jpg,AMSA13.jpg,AMNE19.jpg,MN,1,num_2,32,num_8,0.900119924336,,,2017_Apr_19_1955,59.9997883193,MAFE4ImagesEEG,001,100215,
AFNE01.JPG,AFNE01.JPG,AFNE01.JPG,AFNE01.JPG,AFNE01.JPG,AFNE01.JPG,,,,,,,,,3,5,35,2,,,,,,,,,,,,,,,AMSA11.jpg,AMSA14.jpg,AMNE02.jpg,AMNE06.jpg,AMSA11.jpg,MS,2,num_8,16,num_8,0.98340175231,,,2017_Apr_19_1955,59.9997883193,MAFE4ImagesEEG,001,100215,
AFNE01.JPG,AFNE01.JPG,AFNE01.JPG,AFNE01.JPG,AFNE01.JPG,AFNE01.JPG,,,,,,,,,3,6,36,5,,,,,,,,,,,,,,,AMSA07.jpg,AMSA03.jpg,AMNE12.jpg,AMNE01.jpg,AMSA07.jpg,MS,2,num_8,16,num_8,0.966774317378,,,2017_Apr_19_1955,59.9997883193,MAFE4ImagesEEG,001,100215,
AFNE01.JPG,AFNE01.JPG,AFNE01.JPG,AFNE01.JPG,AFNE01.JPG,AFNE01.JPG,,,,,,,,,3,7,37,8,,,,,,,,,,,,,,,AMNE17.jpg,AMSA19.jpg,AMNE08.jpg,AMSA04.jpg,AMNE17.jpg,MN,1,num_8,16,num_8,1.38341054058,,,2017_Apr_19_1955,59.9997883193,MAFE4ImagesEEG,001,100215,
AFNE01.JPG,AFNE01.JPG,AFNE01.JPG,AFNE01.JPG,AFNE01.JPG,AFNE01.JPG,,,,,,,,,3,8,38,6,,,,,,,,,,,,,,,AMNE03.jpg,AMNE01.jpg,AMSA14.jpg,AMSA05.jpg,AMSA14.jpg,MS,2,num_2,32,num_6,0.76676912143,,,2017_Apr_19_1955,59.9997883193,MAFE4ImagesEEG,001,100215,
AFNE01.JPG,AFNE01.JPG,AFNE01.JPG,AFNE01.JPG,AFNE01.JPG,AFNE01.JPG,,,,,,,,,3,9,39,0,,,,,,,,,,,,,,,AMNE15.jpg,AMSA18.jpg,AMSA20.jpg,AMNE10.jpg,AMNE10.jpg,MN,1,num_4,32,num_8,0.883420643862,,,2017_Apr_19_1955,59.9997883193,MAFE4ImagesEEG,001,100215,
AFNE01.JPG,AFNE01.JPG,AFNE01.JPG,AFNE01.JPG,AFNE01.JPG,AFNE01.JPG,,,,,,,,,4,0,40,1,,,,,,,,,,,,,,,AMSA07.jpg,AMNE10.jpg,AMNE20.jpg,AMSA04.jpg,AMSA07.jpg,MS,2,num_8,16,num_8,1.0834344998,,,2017_Apr_19_1955,59.9997883193,MAFE4ImagesEEG,001,100215,
AFNE01.JPG,AFNE01.JPG,AFNE01.JPG,AFNE01.JPG,AFNE01.JPG,AFNE01.JPG,,,,,,,,,4,1,41,2,,,,,,,,,,,,,,,AMNE07.jpg,AMNE18.jpg,AMSA19.jpg,AMSA20.jpg,AMNE07.jpg,MN,1,num_8,16,num_8,0.933447601972,,,2017_Apr_19_1955,59.9997883193,MAFE4ImagesEEG,001,100215,
AFNE01.JPG,AFNE01.JPG,AFNE01.JPG,AFNE01.JPG,AFNE01.JPG,AFNE01.JPG,,,,,,,,,4,2,42,8,,,,,,,,,,,,,,,AMSA16.jpg,AMNE19.jpg,AMSA12.jpg,AMNE10.jpg,AMNE19.jpg,MN,1,num_6,16,num_6,0.833475474181,,,2017_Apr_19_1955,59.9997883193,MAFE4ImagesEEG,001,100215,
AFNE01.JPG,AFNE01.JPG,AFNE01.JPG,AFNE01.JPG,AFNE01.JPG,AFNE01.JPG,,,,,,,,,4,3,43,9,,,,,,,,,,,,,,,AMSA10.jpg,AMNE10.jpg,AMSA13.jpg,AMNE08.jpg,AMSA10.jpg,MS,2,num_8,32,num_4,1.28340409373,,,2017_Apr_19_1955,59.9997883193,MAFE4ImagesEEG,001,100215,
AFNE01.JPG,AFNE01.JPG,AFNE01.JPG,AFNE01.JPG,AFNE01.JPG,AFNE01.JPG,,,,,,,,,4,4,44,7,,,,,,,,,,,,,,,AMNE06.jpg,AMNE11.jpg,AMSA07.jpg,AMSA15.jpg,AMNE11.jpg,MN,1,num_6,32,num_4,1.18349162344,,,2017_Apr_19_1955,59.9997883193,MAFE4ImagesEEG,001,100215,
AFNE01.JPG,AFNE01.JPG,AFNE01.JPG,AFNE01.JPG,AFNE01.JPG,AFNE01.JPG,,,,,,,,,4,5,45,0,,,,,,,,,,,,,,,AMSA18.jpg,AMNE14.jpg,AMNE05.jpg,AMSA02.jpg,AMSA02.jpg,MS,2,num_4,16,num_4,1.26676030111,,,2017_Apr_19_1955,59.9997883193,MAFE4ImagesEEG,001,100215,
AFNE01.JPG,AFNE01.JPG,AFNE01.JPG,AFNE01.JPG,AFNE01.JPG,AFNE01.JPG,,,,,,,,,4,6,46,3,,,,,,,,,,,,,,,AMSA06.jpg,AMNE20.jpg,AMNE07.jpg,AMSA18.jpg,AMNE07.jpg,MN,1,num_2,16,num_2,0.866796416318,,,2017_Apr_19_1955,59.9997883193,MAFE4ImagesEEG,001,100215,
AFNE01.JPG,AFNE01.JPG,AFNE01.JPG,AFNE01.JPG,AFNE01.JPG,AFNE01.JPG,,,,,,,,,4,7,47,4,,,,,,,,,,,,,,,AMNE12.jpg,AMNE17.jpg,AMSA15.jpg,AMSA07.jpg,AMSA15.jpg,MS,2,num_2,16,num_2,0.616755923023,,,2017_Apr_19_1955,59.9997883193,MAFE4ImagesEEG,001,100215,
AFNE01.JPG,AFNE01.JPG,AFNE01.JPG,AFNE01.JPG,AFNE01.JPG,AFNE01.JPG,,,,,,,,,4,8,48,6,,,,,,,,,,,,,,,AMNE10.jpg,AMSA02.jpg,AMSA13.jpg,AMNE07.jpg,AMNE10.jpg,MN,1,num_8,16,num_8,0.93331417453,,,2017_Apr_19_1955,59.9997883193,MAFE4ImagesEEG,001,100215,
AFNE01.JPG,AFNE01.JPG,AFNE01.JPG,AFNE01.JPG,AFNE01.JPG,AFNE01.JPG,,,,,,,,,4,9,49,5,,,,,,,,,,,,,,,AMNE15.jpg,AMSA11.jpg,AMSA12.jpg,AMNE14.jpg,AMNE15.jpg,MN,1,num_8,16,num_8,0.950105186377,,,2017_Apr_19_1955,59.9997883193,MAFE4ImagesEEG,001,100215,
AFNE01.JPG,AFNE01.JPG,AFNE01.JPG,AFNE01.JPG,AFNE01.JPG,AFNE01.JPG,,,,,,,,,5,0,50,4,,,,,,,,,,,,,,,AMSA17.jpg,AMNE14.jpg,AMSA07.jpg,AMNE02.jpg,AMSA07.jpg,MS,2,num_2,16,num_2,1.31673722391,,,2017_Apr_19_1955,59.9997883193,MAFE4ImagesEEG,001,100215,
AFNE01.JPG,AFNE01.JPG,AFNE01.JPG,AFNE01.JPG,AFNE01.JPG,AFNE01.JPG,,,,,,,,,5,1,51,6,,,,,,,,,,,,,,,AMNE19.jpg,AMSA13.jpg,AMNE14.jpg,AMSA11.jpg,AMNE19.jpg,MN,1,num_8,16,num_8,0.833492794132,,,2017_Apr_19_1955,59.9997883193,MAFE4ImagesEEG,001,100215,
AFNE01.JPG,AFNE01.JPG,AFNE01.JPG,AFNE01.JPG,AFNE01.JPG,AFNE01.JPG,,,,,,,,,5,2,52,2,,,,,,,,,,,,,,,AMSA13.jpg,AMNE19.jpg,AMSA09.jpg,AMNE04.jpg,AMSA13.jpg,MS,2,num_8,16,num_8,1.16672915732,,,2017_Apr_19_1955,59.9997883193,MAFE4ImagesEEG,001,100215,
AFNE01.JPG,AFNE01.JPG,AFNE01.JPG,AFNE01.JPG,AFNE01.JPG,AFNE01.JPG,,,,,,,,,5,3,53,5,,,,,,,,,,,,,,,AMNE06.jpg,AMNE15.jpg,AMSA16.jpg,AMSA02.jpg,AMNE15.jpg,MN,1,num_6,32,num_8,0.900114471791,,,2017_Apr_19_1955,59.9997883193,MAFE4ImagesEEG,001,100215,
AFNE01.JPG,AFNE01.JPG,AFNE01.JPG,AFNE01.JPG,AFNE01.JPG,AFNE01.JPG,,,,,,,,,5,4,54,7,,,,,,,,,,,,,,,AMNE01.jpg,AMSA05.jpg,AMSA17.jpg,AMNE02.jpg,AMNE01.jpg,MN,1,num_8,16,num_8,0.716781293449,,,2017_Apr_19_1955,59.9997883193,MAFE4ImagesEEG,001,100215,
AFNE01.JPG,AFNE01.JPG,AFNE01.JPG,AFNE01.JPG,AFNE01.JPG,AFNE01.JPG,,,,,,,,,5,5,55,8,,,,,,,,,,,,,,,AMNE07.jpg,AMSA16.jpg,AMSA12.jpg,AMNE01.jpg,AMNE01.jpg,MN,1,num_4,16,num_4,0.566793754173,,,2017_Apr_19_1955,59.9997883193,MAFE4ImagesEEG,001,100215,
AFNE01.JPG,AFNE01.JPG,AFNE01.JPG,AFNE01.JPG,AFNE01.JPG,AFNE01.JPG,,,,,,,,,5,6,56,0,,,,,,,,,,,,,,,AMSA04.jpg,AMNE20.jpg,AMSA02.jpg,AMNE12.jpg,AMNE12.jpg,MN,1,num_4,16,num_4,0.683489859337,,,2017_Apr_19_1955,59.9997883193,MAFE4ImagesEEG,001,100215,
AFNE01.JPG,AFNE01.JPG,AFNE01.JPG,AFNE01.JPG,AFNE01.JPG,AFNE01.JPG,,,,,,,,,5,7,57,3,,,,,,,,,,,,,,,AMSA17.jpg,AMNE14.jpg,AMNE02.jpg,AMSA09.jpg,AMSA09.jpg,MS,2,num_4,16,num_4,0.733452990389,,,2017_Apr_19_1955,59.9997883193,MAFE4ImagesEEG,001,100215,
AFNE01.JPG,AFNE01.JPG,AFNE01.JPG,AFNE01.JPG,AFNE01.JPG,AFNE01.JPG,,,,,,,,,5,8,58,9,,,,,,,,,,,,,,,AMSA08.jpg,AMNE20.jpg,AMNE10.jpg,AMSA03.jpg,AMSA08.jpg,MS,2,num_8,16,num_8,0.900111264404,,,2017_Apr_19_1955,59.9997883193,MAFE4ImagesEEG,001,100215,
AFNE01.JPG,AFNE01.JPG,AFNE01.JPG,AFNE01.JPG,AFNE01.JPG,AFNE01.JPG,,,,,,,,,5,9,59,1,,,,,,,,,,,,,,,AMNE20.jpg,AMNE18.jpg,AMSA06.jpg,AMSA13.jpg,AMNE20.jpg,MN,1,num_8,16,num_8,0.966721395438,,,2017_Apr_19_1955,59.9997883193,MAFE4ImagesEEG,001,100215,
,,,,,,,,,,,,,,,,,,,,,,,,,,,,,,,,,,,,,,,,,,,space,16.1150956171,2017_Apr_19_1955,59.9997883193,MAFE4ImagesEEG,001,100215,
AFNE01.JPG,AFNE01.JPG,AFNE01.JPG,AFNE01.JPG,AFNE01.JPG,AFNE01.JPG,,,,,,,,,,,,,0,0,0,8,,,,,,,,,,,AFNE07.jpg,AFNE12.jpg,AFSA03.jpg,AFSA11.jpg,AFSA11.jpg,FS,4,num_4,16,num_4,0.966778166272,,,2017_Apr_19_1955,59.9997883193,MAFE4ImagesEEG,001,100215,
AFNE01.JPG,AFNE01.JPG,AFNE01.JPG,AFNE01.JPG,AFNE01.JPG,AFNE01.JPG,,,,,,,,,,,,,0,1,1,3,,,,,,,,,,,AFSA07.jpg,AFNE03.jpg,AFSA02.jpg,AFNE14.jpg,AFSA02.jpg,FS,4,num_2,16,num_2,0.833490548946,,,2017_Apr_19_1955,59.9997883193,MAFE4ImagesEEG,001,100215,
AFNE01.JPG,AFNE01.JPG,AFNE01.JPG,AFNE01.JPG,AFNE01.JPG,AFNE01.JPG,,,,,,,,,,,,,0,2,2,5,,,,,,,,,,,AFSA19.jpg,AFSA06.jpg,AFNE11.jpg,AFNE04.jpg,AFSA19.jpg,FS,4,num_8,16,num_8,0.867148908583,,,2017_Apr_19_1955,59.9997883193,MAFE4ImagesEEG,001,100215,
AFNE01.JPG,AFNE01.JPG,AFNE01.JPG,AFNE01.JPG,AFNE01.JPG,AFNE01.JPG,,,,,,,,,,,,,0,3,3,1,,,,,,,,,,,AFSA17.jpg,AFSA08.jpg,AFNE05.jpg,AFNE13.jpg,AFNE05.jpg,FN,3,num_2,16,num_2,1.20011360577,,,2017_Apr_19_1955,59.9997883193,MAFE4ImagesEEG,001,100215,
AFNE01.JPG,AFNE01.JPG,AFNE01.JPG,AFNE01.JPG,AFNE01.JPG,AFNE01.JPG,,,,,,,,,,,,,0,4,4,9,,,,,,,,,,,AFNE12.jpg,AFNE19.jpg,AFSA03.jpg,AFSA15.jpg,AFNE12.jpg,FN,3,num_8,32,num_6,1.09996026044,,,2017_Apr_19_1955,59.9997883193,MAFE4ImagesEEG,001,100215,
AFNE01.JPG,AFNE01.JPG,AFNE01.JPG,AFNE01.JPG,AFNE01.JPG,AFNE01.JPG,,,,,,,,,,,,,0,5,5,0,,,,,,,,,,,AFSA02.jpg,AFNE08.jpg,AFNE10.jpg,AFSA06.jpg,AFNE10.jpg,FN,3,num_2,32,num_4,0.81675342127,,,2017_Apr_19_1955,59.9997883193,MAFE4ImagesEEG,001,100215,
AFNE01.JPG,AFNE01.JPG,AFNE01.JPG,AFNE01.JPG,AFNE01.JPG,AFNE01.JPG,,,,,,,,,,,,,0,6,6,7,,,,,,,,,,,AFNE02.jpg,AFSA20.jpg,AFSA13.jpg,AFNE14.jpg,AFNE14.jpg,FN,3,num_4,32,num_8,1.10013345952,,,2017_Apr_19_1955,59.9997883193,MAFE4ImagesEEG,001,100215,
AFNE01.JPG,AFNE01.JPG,AFNE01.JPG,AFNE01.JPG,AFNE01.JPG,AFNE01.JPG,,,,,,,,,,,,,0,7,7,4,,,,,,,,,,,AFNE18.jpg,AFSA05.jpg,AFNE06.jpg,AFSA07.jpg,AFNE06.jpg,FN,3,num_2,16,num_2,0.916618101415,,,2017_Apr_19_1955,59.9997883193,MAFE4ImagesEEG,001,100215,
AFNE01.JPG,AFNE01.JPG,AFNE01.JPG,AFNE01.JPG,AFNE01.JPG,AFNE01.JPG,,,,,,,,,,,,,0,8,8,6,,,,,,,,,,,AFSA14.jpg,AFNE04.jpg,AFSA08.jpg,AFNE15.jpg,AFSA08.jpg,FS,4,num_2,16,num_2,0.916763716988,,,2017_Apr_19_1955,59.9997883193,MAFE4ImagesEEG,001,100215,
AFNE01.JPG,AFNE01.JPG,AFNE01.JPG,AFNE01.JPG,AFNE01.JPG,AFNE01.JPG,,,,,,,,,,,,,0,9,9,2,,,,,,,,,,,AFSA07.jpg,AFNE14.jpg,AFNE03.jpg,AFSA15.jpg,AFSA07.jpg,FS,4,num_8,16,num_8,1.30008797871,,,2017_Apr_19_1955,59.9997883193,MAFE4ImagesEEG,001,100215,
AFNE01.JPG,AFNE01.JPG,AFNE01.JPG,AFNE01.JPG,AFNE01.JPG,AFNE01.JPG,,,,,,,,,,,,,1,0,10,7,,,,,,,,,,,AFSA04.jpg,AFNE04.jpg,AFNE01.jpg,AFSA18.jpg,AFSA18.jpg,FS,4,num_4,32,num_2,1.6331129749,,,2017_Apr_19_1955,59.9997883193,MAFE4ImagesEEG,001,100215,
AFNE01.JPG,AFNE01.JPG,AFNE01.JPG,AFNE01.JPG,AFNE01.JPG,AFNE01.JPG,,,,,,,,,,,,,1,1,11,1,,,,,,,,,,,AFNE02.jpg,AFSA09.jpg,AFNE05.jpg,AFSA08.jpg,AFSA08.jpg,FS,4,num_4,16,num_4,0.983431901812,,,2017_Apr_19_1955,59.9997883193,MAFE4ImagesEEG,001,100215,
AFNE01.JPG,AFNE01.JPG,AFNE01.JPG,AFNE01.JPG,AFNE01.JPG,AFNE01.JPG,,,,,,,,,,,,,1,2,12,8,,,,,,,,,,,AFSA01.jpg,AFNE07.jpg,AFSA02.jpg,AFNE18.jpg,AFSA02.jpg,FS,4,num_2,16,num_2,0.683453936566,,,2017_Apr_19_1955,59.9997883193,MAFE4ImagesEEG,001,100215,
AFNE01.JPG,AFNE01.JPG,AFNE01.JPG,AFNE01.JPG,AFNE01.JPG,AFNE01.JPG,,,,,,,,,,,,,1,3,13,3,,,,,,,,,,,AFSA18.jpg,AFNE12.jpg,AFNE20.jpg,AFSA07.jpg,AFSA18.jpg,FS,4,num_8,16,num_8,0.71709754222,,,2017_Apr_19_1955,59.9997883193,MAFE4ImagesEEG,001,100215,
AFNE01.JPG,AFNE01.JPG,AFNE01.JPG,AFNE01.JPG,AFNE01.JPG,AFNE01.JPG,,,,,,,,,,,,,1,4,14,5,,,,,,,,,,,AFSA10.jpg,AFNE11.jpg,AFNE13.jpg,AFSA14.jpg,AFNE13.jpg,FN,3,num_2,16,num_2,0.850136266003,,,2017_Apr_19_1955,59.9997883193,MAFE4ImagesEEG,001,100215,
AFNE01.JPG,AFNE01.JPG,AFNE01.JPG,AFNE01.JPG,AFNE01.JPG,AFNE01.JPG,,,,,,,,,,,,,1,5,15,0,,,,,,,,,,,AFNE11.jpg,AFNE04.jpg,AFSA01.jpg,AFSA05.jpg,AFNE04.jpg,FN,3,num_6,16,num_6,1.06674420001,,,2017_Apr_19_1955,59.9997883193,MAFE4ImagesEEG,001,100215,
AFNE01.JPG,AFNE01.JPG,AFNE01.JPG,AFNE01.JPG,AFNE01.JPG,AFNE01.JPG,,,,,,,,,,,,,1,6,16,2,,,,,,,,,,,AFSA08.jpg,AFNE15.jpg,AFNE06.jpg,AFSA05.jpg,AFNE06.jpg,FN,3,num_2,32,num_4,1.35007420299,,,2017_Apr_19_1955,59.9997883193,MAFE4ImagesEEG,001,100215,
AFNE01.JPG,AFNE01.JPG,AFNE01.JPG,AFNE01.JPG,AFNE01.JPG,AFNE01.JPG,,,,,,,,,,,,,1,7,17,4,,,,,,,,,,,AFNE04.jpg,AFSA01.jpg,AFNE15.jpg,AFSA04.jpg,AFSA01.jpg,FS,4,num_6,16,num_6,1.36672793853,,,2017_Apr_19_1955,59.9997883193,MAFE4ImagesEEG,001,100215,
AFNE01.JPG,AFNE01.JPG,AFNE01.JPG,AFNE01.JPG,AFNE01.JPG,AFNE01.JPG,,,,,,,,,,,,,1,8,18,9,,,,,,,,,,,AFSA03.jpg,AFNE19.jpg,AFNE06.jpg,AFSA06.jpg,AFSA06.jpg,FS,4,num_4,16,num_4,3.68328971814,,,2017_Apr_19_1955,59.9997883193,MAFE4ImagesEEG,001,100215,
AFNE01.JPG,AFNE01.JPG,AFNE01.JPG,AFNE01.JPG,AFNE01.JPG,AFNE01.JPG,,,,,,,,,,,,,1,9,19,6,,,,,,,,,,,AFSA13.jpg,AFNE06.jpg,AFNE04.jpg,AFSA04.jpg,AFNE04.jpg,FN,3,num_2,32,num_4,3.29984165114,,,2017_Apr_19_1955,59.9997883193,MAFE4ImagesEEG,001,100215,
AFNE01.JPG,AFNE01.JPG,AFNE01.JPG,AFNE01.JPG,AFNE01.JPG,AFNE01.JPG,,,,,,,,,,,,,2,0,20,9,,,,,,,,,,,AFNE05.jpg,AFNE20.jpg,AFSA18.jpg,AFSA10.jpg,AFSA18.jpg,FS,4,num_2,16,num_2,0.516772569361,,,2017_Apr_19_1955,59.9997883193,MAFE4ImagesEEG,001,100215,
AFNE01.JPG,AFNE01.JPG,AFNE01.JPG,AFNE01.JPG,AFNE01.JPG,AFNE01.JPG,,,,,,,,,,,,,2,1,21,6,,,,,,,,,,,AFNE10.jpg,AFNE12.jpg,AFSA03.jpg,AFSA12.jpg,AFSA12.jpg,FS,4,num_4,32,num_6,1.00007441148,,,2017_Apr_19_1955,59.9997883193,MAFE4ImagesEEG,001,100215,
AFNE01.JPG,AFNE01.JPG,AFNE01.JPG,AFNE01.JPG,AFNE01.JPG,AFNE01.JPG,,,,,,,,,,,,,2,2,22,0,,,,,,,,,,,AFSA19.jpg,AFSA12.jpg,AFNE17.jpg,AFNE15.jpg,AFNE17.jpg,FN,3,num_2,16,num_2,0.766811779729,,,2017_Apr_19_1955,59.9997883193,MAFE4ImagesEEG,001,100215,
AFNE01.JPG,AFNE01.JPG,AFNE01.JPG,AFNE01.JPG,AFNE01.JPG,AFNE01.JPG,,,,,,,,,,,,,2,3,23,2,,,,,,,,,,,AFSA13.jpg,AFNE02.jpg,AFNE09.jpg,AFSA11.jpg,AFNE09.jpg,FN,3,num_2,16,num_2,0.666785126319,,,2017_Apr_19_1955,59.9997883193,MAFE4ImagesEEG,001,100215,
AFNE01.JPG,AFNE01.JPG,AFNE01.JPG,AFNE01.JPG,AFNE01.JPG,AFNE01.JPG,,,,,,,,,,,,,2,4,24,8,,,,,,,,,,,AFSA11.jpg,AFNE20.jpg,AFNE18.jpg,AFSA05.jpg,AFSA11.jpg,FS,4,num_8,32,num_4,0.733534778847,,,2017_Apr_19_1955,59.9997883193,MAFE4ImagesEEG,001,100215,
AFNE01.JPG,AFNE01.JPG,AFNE01.JPG,AFNE01.JPG,AFNE01.JPG,AFNE01.JPG,,,,,,,,,,,,,2,5,25,7,,,,,,,,,,,AFNE12.jpg,AFSA18.jpg,AFNE17.jpg,AFSA09.jpg,AFNE17.jpg,FN,3,num_2,16,num_2,0.933520409744,,,2017_Apr_19_1955,59.9997883193,MAFE4ImagesEEG,001,100215,
AFNE01.JPG,AFNE01.JPG,AFNE01.JPG,AFNE01.JPG,AFNE01.JPG,AFNE01.JPG,,,,,,,,,,,,,2,6,26,5,,,,,,,,,,,AFSA07.jpg,AFNE12.jpg,AFSA14.jpg,AFNE08.jpg,AFNE08.jpg,FN,3,num_4,16,num_4,0.833456871333,,,2017_Apr_19_1955,59.9997883193,MAFE4ImagesEEG,001,100215,
AFNE01.JPG,AFNE01.JPG,AFNE01.JPG,AFNE01.JPG,AFNE01.JPG,AFNE01.JPG,,,,,,,,,,,,,2,7,27,1,,,,,,,,,,,AFNE09.jpg,AFSA04.jpg,AFSA07.jpg,AFNE14.jpg,AFSA04.jpg,FS,4,num_6,16,num_6,0.800210982183,,,2017_Apr_19_1955,59.9997883193,MAFE4ImagesEEG,001,100215,
AFNE01.JPG,AFNE01.JPG,AFNE01.JPG,AFNE01.JPG,AFNE01.JPG,AFNE01.JPG,,,,,,,,,,,,,2,8,28,3,,,,,,,,,,,AFNE13.jpg,AFSA03.jpg,AFNE03.jpg,AFSA12.jpg,AFSA12.jpg,FS,4,num_4,16,num_4,0.866809245868,,,2017_Apr_19_1955,59.9997883193,MAFE4ImagesEEG,001,100215,
AFNE01.JPG,AFNE01.JPG,AFNE01.JPG,AFNE01.JPG,AFNE01.JPG,AFNE01.JPG,,,,,,,,,,,,,2,9,29,4,,,,,,,,,,,AFSA16.jpg,AFNE04.jpg,AFNE12.jpg,AFSA14.jpg,AFNE04.jpg,FN,3,num_6,32,num_8,1.66667992389,,,2017_Apr_19_1955,59.9997883193,MAFE4ImagesEEG,001,100215,
AFNE01.JPG,AFNE01.JPG,AFNE01.JPG,AFNE01.JPG,AFNE01.JPG,AFNE01.JPG,,,,,,,,,,,,,3,0,30,4,,,,,,,,,,,AFNE02.jpg,AFSA01.jpg,AFNE15.jpg,AFSA11.jpg,AFSA01.jpg,FS,4,num_6,16,num_6,0.816747647943,,,2017_Apr_19_1955,59.9997883193,MAFE4ImagesEEG,001,100215,
AFNE01.JPG,AFNE01.JPG,AFNE01.JPG,AFNE01.JPG,AFNE01.JPG,AFNE01.JPG,,,,,,,,,,,,,3,1,31,0,,,,,,,,,,,AFNE07.jpg,AFNE17.jpg,AFSA14.jpg,AFSA01.jpg,AFSA01.jpg,FS,4,num_4,16,num_4,1.56634632315,,,2017_Apr_19_1955,59.9997883193,MAFE4ImagesEEG,001,100215,
AFNE01.JPG,AFNE01.JPG,AFNE01.JPG,AFNE01.JPG,AFNE01.JPG,AFNE01.JPG,,,,,,,,,,,,,3,2,32,8,,,,,,,,,,,AFSA18.jpg,AFNE16.jpg,AFNE02.jpg,AFSA19.jpg,AFNE16.jpg,FN,3,num_6,16,num_6,0.916738699336,,,2017_Apr_19_1955,59.9997883193,MAFE4ImagesEEG,001,100215,
AFNE01.JPG,AFNE01.JPG,AFNE01.JPG,AFNE01.JPG,AFNE01.JPG,AFNE01.JPG,,,,,,,,,,,,,3,3,33,2,,,,,,,,,,,AFSA15.jpg,AFSA04.jpg,AFNE01.jpg,AFNE20.jpg,AFSA15.jpg,FS,4,num_8,16,num_8,0.850139152666,,,2017_Apr_19_1955,59.9997883193,MAFE4ImagesEEG,001,100215,
AFNE01.JPG,AFNE01.JPG,AFNE01.JPG,AFNE01.JPG,AFNE01.JPG,AFNE01.JPG,,,,,,,,,,,,,3,4,34,3,,,,,,,,,,,AFNE11.jpg,AFSA06.jpg,AFSA15.jpg,AFNE20.jpg,AFSA06.jpg,FS,4,num_6,16,num_6,0.71677199204,,,2017_Apr_19_1955,59.9997883193,MAFE4ImagesEEG,001,100215,
AFNE01.JPG,AFNE01.JPG,AFNE01.JPG,AFNE01.JPG,AFNE01.JPG,AFNE01.JPG,,,,,,,,,,,,,3,5,35,6,,,,,,,,,,,AFSA17.jpg,AFNE14.jpg,AFSA11.jpg,AFNE02.jpg,AFSA17.jpg,FS,4,num_8,32,num_4,0.800103213842,,,2017_Apr_19_1955,59.9997883193,MAFE4ImagesEEG,001,100215,
AFNE01.JPG,AFNE01.JPG,AFNE01.JPG,AFNE01.JPG,AFNE01.JPG,AFNE01.JPG,,,,,,,,,,,,,3,6,36,7,,,,,,,,,,,AFSA07.jpg,AFSA17.jpg,AFNE04.jpg,AFNE05.jpg,AFNE04.jpg,FN,3,num_2,16,num_2,1.03343640818,,,2017_Apr_19_1955,59.9997883193,MAFE4ImagesEEG,001,100215,
AFNE01.JPG,AFNE01.JPG,AFNE01.JPG,AFNE01.JPG,AFNE01.JPG,AFNE01.JPG,,,,,,,,,,,,,3,7,37,5,,,,,,,,,,,AFSA09.jpg,AFNE18.jpg,AFSA12.jpg,AFNE11.jpg,AFNE11.jpg,FN,3,num_4,32,num_6,1.2500526814,,,2017_Apr_19_1955,59.9997883193,MAFE4ImagesEEG,001,100215,
AFNE01.JPG,AFNE01.JPG,AFNE01.JPG,AFNE01.JPG,AFNE01.JPG,AFNE01.JPG,,,,,,,,,,,,,3,8,38,1,,,,,,,,,,,AFSA09.jpg,AFNE12.jpg,AFSA03.jpg,AFNE18.jpg,AFSA09.jpg,FS,4,num_8,16,num_8,1.25010047152,,,2017_Apr_19_1955,59.9997883193,MAFE4ImagesEEG,001,100215,
AFNE01.JPG,AFNE01.JPG,AFNE01.JPG,AFNE01.JPG,AFNE01.JPG,AFNE01.JPG,,,,,,,,,,,,,3,9,39,9,,,,,,,,,,,AFSA06.jpg,AFNE13.jpg,AFSA02.jpg,AFNE07.jpg,AFSA02.jpg,FS,4,num_2,16,num_2,0.61680178871,,,2017_Apr_19_1955,59.9997883193,MAFE4ImagesEEG,001,100215,
AFNE01.JPG,AFNE01.JPG,AFNE01.JPG,AFNE01.JPG,AFNE01.JPG,AFNE01.JPG,,,,,,,,,,,,,4,0,40,9,,,,,,,,,,,AFNE12.jpg,AFNE04.jpg,AFSA17.jpg,AFSA15.jpg,AFSA15.jpg,FS,4,num_4,16,num_4,0.83330195435,,,2017_Apr_19_1955,59.9997883193,MAFE4ImagesEEG,001,100215,
AFNE01.JPG,AFNE01.JPG,AFNE01.JPG,AFNE01.JPG,AFNE01.JPG,AFNE01.JPG,,,,,,,,,,,,,4,1,41,5,,,,,,,,,,,AFSA05.jpg,AFSA15.jpg,AFNE05.jpg,AFNE14.jpg,AFSA05.jpg,FS,4,num_8,32,num_2,1.08345695151,,,2017_Apr_19_1955,59.9997883193,MAFE4ImagesEEG,001,100215,
AFNE01.JPG,AFNE01.JPG,AFNE01.JPG,AFNE01.JPG,AFNE01.JPG,AFNE01.JPG,,,,,,,,,,,,,4,2,42,0,,,,,,,,,,,AFNE09.jpg,AFNE18.jpg,AFSA18.jpg,AFSA20.jpg,AFNE09.jpg,FN,3,num_8,16,num_8,1.24995806336,,,2017_Apr_19_1955,59.9997883193,MAFE4ImagesEEG,001,100215,
AFNE01.JPG,AFNE01.JPG,AFNE01.JPG,AFNE01.JPG,AFNE01.JPG,AFNE01.JPG,,,,,,,,,,,,,4,3,43,1,,,,,,,,,,,AFNE12.jpg,AFNE08.jpg,AFSA07.jpg,AFSA05.jpg,AFSA07.jpg,FS,4,num_2,16,num_2,0.950129562552,,,2017_Apr_19_1955,59.9997883193,MAFE4ImagesEEG,001,100215,
AFNE01.JPG,AFNE01.JPG,AFNE01.JPG,AFNE01.JPG,AFNE01.JPG,AFNE01.JPG,,,,,,,,,,,,,4,4,44,7,,,,,,,,,,,AFNE06.jpg,AFSA11.jpg,AFSA01.jpg,AFNE18.jpg,AFSA01.jpg,FS,4,num_2,16,num_2,0.883443095605,,,2017_Apr_19_1955,59.9997883193,MAFE4ImagesEEG,001,100215,
AFNE01.JPG,AFNE01.JPG,AFNE01.JPG,AFNE01.JPG,AFNE01.JPG,AFNE01.JPG,,,,,,,,,,,,,4,5,45,8,,,,,,,,,,,AFNE04.jpg,AFSA12.jpg,AFNE16.jpg,AFSA16.jpg,AFSA12.jpg,FS,4,num_6,16,num_6,0.833464248339,,,2017_Apr_19_1955,59.9997883193,MAFE4ImagesEEG,001,100215,
AFNE01.JPG,AFNE01.JPG,AFNE01.JPG,AFNE01.JPG,AFNE01.JPG,AFNE01.JPG,,,,,,,,,,,,,4,6,46,2,,,,,,,,,,,AFSA17.jpg,AFSA07.jpg,AFNE13.jpg,AFNE03.jpg,AFSA17.jpg,FS,4,num_8,16,num_8,1.2167163438,,,2017_Apr_19_1955,59.9997883193,MAFE4ImagesEEG,001,100215,
AFNE01.JPG,AFNE01.JPG,AFNE01.JPG,AFNE01.JPG,AFNE01.JPG,AFNE01.JPG,,,,,,,,,,,,,4,7,47,3,,,,,,,,,,,AFSA13.jpg,AFSA06.jpg,AFNE02.jpg,AFNE06.jpg,AFSA06.jpg,FS,4,num_6,16,num_6,1.08338318151,,,2017_Apr_19_1955,59.9997883193,MAFE4ImagesEEG,001,100215,
AFNE01.JPG,AFNE01.JPG,AFNE01.JPG,AFNE01.JPG,AFNE01.JPG,AFNE01.JPG,,,,,,,,,,,,,4,8,48,4,,,,,,,,,,,AFNE09.jpg,AFSA01.jpg,AFNE10.jpg,AFSA04.jpg,AFSA04.jpg,FS,4,num_4,32,num_2,1.01677850305,,,2017_Apr_19_1955,59.9997883193,MAFE4ImagesEEG,001,100215,
AFNE01.JPG,AFNE01.JPG,AFNE01.JPG,AFNE01.JPG,AFNE01.JPG,AFNE01.JPG,,,,,,,,,,,,,4,9,49,6,,,,,,,,,,,AFNE07.jpg,AFSA01.jpg,AFNE18.jpg,AFSA17.jpg,AFNE18.jpg,FN,3,num_2,16,num_2,1.11675768706,,,2017_Apr_19_1955,59.9997883193,MAFE4ImagesEEG,001,100215,
AFNE01.JPG,AFNE01.JPG,AFNE01.JPG,AFNE01.JPG,AFNE01.JPG,AFNE01.JPG,,,,,,,,,,,,,5,0,50,5,,,,,,,,,,,AFSA19.jpg,AFNE09.jpg,AFNE07.jpg,AFSA20.jpg,AFSA19.jpg,FS,4,num_8,16,num_8,0.700158348889,,,2017_Apr_19_1955,59.9997883193,MAFE4ImagesEEG,001,100215,
AFNE01.JPG,AFNE01.JPG,AFNE01.JPG,AFNE01.JPG,AFNE01.JPG,AFNE01.JPG,,,,,,,,,,,,,5,1,51,7,,,,,,,,,,,AFNE01.jpg,AFNE04.jpg,AFSA02.jpg,AFSA17.jpg,AFNE04.jpg,FN,3,num_6,16,num_6,0.933436055377,,,2017_Apr_19_1955,59.9997883193,MAFE4ImagesEEG,001,100215,
AFNE01.JPG,AFNE01.JPG,AFNE01.JPG,AFNE01.JPG,AFNE01.JPG,AFNE01.JPG,,,,,,,,,,,,,5,2,52,0,,,,,,,,,,,AFNE11.jpg,AFSA08.jpg,AFSA03.jpg,AFNE05.jpg,AFSA08.jpg,FS,4,num_6,16,num_6,1.00011931494,,,2017_Apr_19_1955,59.9997883193,MAFE4ImagesEEG,001,100215,
AFNE01.JPG,AFNE01.JPG,AFNE01.JPG,AFNE01.JPG,AFNE01.JPG,AFNE01.JPG,,,,,,,,,,,,,5,3,53,9,,,,,,,,,,,AFNE13.jpg,AFNE03.jpg,AFSA04.jpg,AFSA14.jpg,AFSA14.jpg,FS,4,num_4,32,num_6,0.783472571522,,,2017_Apr_19_1955,59.9997883193,MAFE4ImagesEEG,001,100215,
AFNE01.JPG,AFNE01.JPG,AFNE01.JPG,AFNE01.JPG,AFNE01.JPG,AFNE01.JPG,,,,,,,,,,,,,5,4,54,4,,,,,,,,,,,AFSA18.jpg,AFNE08.jpg,AFNE03.jpg,AFSA20.jpg,AFNE08.jpg,FN,3,num_6,16,num_6,1.20014567967,,,2017_Apr_19_1955,59.9997883193,MAFE4ImagesEEG,001,100215,
AFNE01.JPG,AFNE01.JPG,AFNE01.JPG,AFNE01.JPG,AFNE01.JPG,AFNE01.JPG,,,,,,,,,,,,,5,5,55,6,,,,,,,,,,,AFNE18.jpg,AFSA03.jpg,AFNE16.jpg,AFSA01.jpg,AFNE18.jpg,FN,3,num_8,32,num_6,0.850193036807,,,2017_Apr_19_1955,59.9997883193,MAFE4ImagesEEG,001,100215,
AFNE01.JPG,AFNE01.JPG,AFNE01.JPG,AFNE01.JPG,AFNE01.JPG,AFNE01.JPG,,,,,,,,,,,,,5,6,56,2,,,,,,,,,,,AFNE14.jpg,AFSA05.jpg,AFNE04.jpg,AFSA20.jpg,AFNE14.jpg,FN,3,num_8,32,num_6,1.63333107746,,,2017_Apr_19_1955,59.9997883193,MAFE4ImagesEEG,001,100215,
AFNE01.JPG,AFNE01.JPG,AFNE01.JPG,AFNE01.JPG,AFNE01.JPG,AFNE01.JPG,,,,,,,,,,,,,5,7,57,3,,,,,,,,,,,AFNE17.jpg,AFNE16.jpg,AFSA11.jpg,AFSA16.jpg,AFNE16.jpg,FN,3,num_6,16,num_6,0.616767469619,,,2017_Apr_19_1955,59.9997883193,MAFE4ImagesEEG,001,100215,
AFNE01.JPG,AFNE01.JPG,AFNE01.JPG,AFNE01.JPG,AFNE01.JPG,AFNE01.JPG,,,,,,,,,,,,,5,8,58,1,,,,,,,,,,,AFSA06.jpg,AFSA13.jpg,AFNE17.jpg,AFNE07.jpg,AFNE07.jpg,FN,3,num_4,16,num_4,1.11674549899,,,2017_Apr_19_1955,59.9997883193,MAFE4ImagesEEG,001,100215,
AFNE01.JPG,AFNE01.JPG,AFNE01.JPG,AFNE01.JPG,AFNE01.JPG,AFNE01.JPG,,,,,,,,,,,,,5,9,59,8,,,,,,,,,,,AFSA18.jpg,AFSA05.jpg,AFNE07.jpg,AFNE15.jpg,AFSA05.jpg,FS,4,num_6,16,num_6,0.783430875425,,,2017_Apr_19_1955,59.9997883193,MAFE4ImagesEEG,001,100215,
,,,,,,,,,,,,,,,,,,,,,,,,,,,,,,,,,,,,,,,,,,,space,6.23305447208,2017_Apr_19_1955,59.9997883193,MAFE4ImagesEEG,001,100215,
AFNE01.JPG,AFNE01.JPG,AFNE01.JPG,AFNE01.JPG,AFNE01.JPG,AFNE01.JPG,,,,,,,,,,,,,,,,,0,0,0,8,,,,,,,AMNE08.jpg,AMSA07.jpg,AMNE18.jpg,AMSA12.jpg,AMSA12.jpg,MS,2,num_4,32,num_2,0.950108393765,,,2017_Apr_19_1955,59.9997883193,MAFE4ImagesEEG,001,100215,
AFNE01.JPG,AFNE01.JPG,AFNE01.JPG,AFNE01.JPG,AFNE01.JPG,AFNE01.JPG,,,,,,,,,,,,,,,,,0,1,1,1,,,,,,,AMSA03.jpg,AMSA12.jpg,AMNE20.jpg,AMNE10.jpg,AMSA03.jpg,MS,2,num_8,16,num_8,0.816757270106,,,2017_Apr_19_1955,59.9997883193,MAFE4ImagesEEG,001,100215,
AFNE01.JPG,AFNE01.JPG,AFNE01.JPG,AFNE01.JPG,AFNE01.JPG,AFNE01.JPG,,,,,,,,,,,,,,,,,0,2,2,0,,,,,,,AMSA19.jpg,AMSA11.jpg,AMNE04.jpg,AMNE12.jpg,AMSA11.jpg,MS,2,num_6,16,num_6,0.850092645473,,,2017_Apr_19_1955,59.9997883193,MAFE4ImagesEEG,001,100215,
AFNE01.JPG,AFNE01.JPG,AFNE01.JPG,AFNE01.JPG,AFNE01.JPG,AFNE01.JPG,,,,,,,,,,,,,,,,,0,3,3,4,,,,,,,AMSA06.jpg,AMNE14.jpg,AMNE13.jpg,AMSA16.jpg,AMNE13.jpg,MN,1,num_2,16,num_2,1.21630772221,,,2017_Apr_19_1955,59.9997883193,MAFE4ImagesEEG,001,100215,
AFNE01.JPG,AFNE01.JPG,AFNE01.JPG,AFNE01.JPG,AFNE01.JPG,AFNE01.JPG,,,,,,,,,,,,,,,,,0,4,4,3,,,,,,,AMNE13.jpg,AMSA07.jpg,AMNE06.jpg,AMSA13.jpg,AMSA13.jpg,MS,2,num_4,16,num_4,2.46665227617,,,2017_Apr_19_1955,59.9997883193,MAFE4ImagesEEG,001,100215,
AFNE01.JPG,AFNE01.JPG,AFNE01.JPG,AFNE01.JPG,AFNE01.JPG,AFNE01.JPG,,,,,,,,,,,,,,,,,0,5,5,9,,,,,,,AMNE05.jpg,AMSA02.jpg,AMNE08.jpg,AMSA05.jpg,AMNE05.jpg,MN,1,num_8,32,num_2,0.766804402723,,,2017_Apr_19_1955,59.9997883193,MAFE4ImagesEEG,001,100215,
AFNE01.JPG,AFNE01.JPG,AFNE01.JPG,AFNE01.JPG,AFNE01.JPG,AFNE01.JPG,,,,,,,,,,,,,,,,,0,6,6,7,,,,,,,AMNE17.jpg,AMSA19.jpg,AMSA16.jpg,AMNE14.jpg,AMSA16.jpg,MS,2,num_2,16,num_2,0.816779401124,,,2017_Apr_19_1955,59.9997883193,MAFE4ImagesEEG,001,100215,
AFNE01.JPG,AFNE01.JPG,AFNE01.JPG,AFNE01.JPG,AFNE01.JPG,AFNE01.JPG,,,,,,,,,,,,,,,,,0,7,7,2,,,,,,,AMNE20.jpg,AMSA07.jpg,AMNE02.jpg,AMSA13.jpg,AMSA13.jpg,MS,2,num_4,16,num_4,1.08344348049,,,2017_Apr_19_1955,59.9997883193,MAFE4ImagesEEG,001,100215,
AFNE01.JPG,AFNE01.JPG,AFNE01.JPG,AFNE01.JPG,AFNE01.JPG,AFNE01.JPG,,,,,,,,,,,,,,,,,0,8,8,6,,,,,,,AMNE11.jpg,AMSA02.jpg,AMNE20.jpg,AMSA15.jpg,AMSA02.jpg,MS,2,num_6,16,num_6,0.683459068387,,,2017_Apr_19_1955,59.9997883193,MAFE4ImagesEEG,001,100215,
AFNE01.JPG,AFNE01.JPG,AFNE01.JPG,AFNE01.JPG,AFNE01.JPG,AFNE01.JPG,,,,,,,,,,,,,,,,,0,9,9,5,,,,,,,AMNE13.jpg,AMSA01.jpg,AMSA13.jpg,AMNE03.jpg,AMSA13.jpg,MS,2,num_2,16,num_2,0.916716247593,,,2017_Apr_19_1955,59.9997883193,MAFE4ImagesEEG,001,100215,
AFNE01.JPG,AFNE01.JPG,AFNE01.JPG,AFNE01.JPG,AFNE01.JPG,AFNE01.JPG,,,,,,,,,,,,,,,,,1,0,10,5,,,,,,,AMSA02.jpg,AMNE05.jpg,AMSA20.jpg,AMNE20.jpg,AMSA02.jpg,MS,2,num_8,16,num_8,1.53339006141,,,2017_Apr_19_1955,59.9997883193,MAFE4ImagesEEG,001,100215,
AFNE01.JPG,AFNE01.JPG,AFNE01.JPG,AFNE01.JPG,AFNE01.JPG,AFNE01.JPG,,,,,,,,,,,,,,,,,1,1,11,1,,,,,,,AMNE19.jpg,AMNE16.jpg,AMSA20.jpg,AMSA10.jpg,AMSA10.jpg,MS,2,num_4,16,num_4,1.18340823127,,,2017_Apr_19_1955,59.9997883193,MAFE4ImagesEEG,001,100215,
AFNE01.JPG,AFNE01.JPG,AFNE01.JPG,AFNE01.JPG,AFNE01.JPG,AFNE01.JPG,,,,,,,,,,,,,,,,,1,2,12,6,,,,,,,AMNE13.jpg,AMSA16.jpg,AMNE14.jpg,AMSA04.jpg,AMSA16.jpg,MS,2,num_6,16,num_6,0.850110927626,,,2017_Apr_19_1955,59.9997883193,MAFE4ImagesEEG,001,100215,
AFNE01.JPG,AFNE01.JPG,AFNE01.JPG,AFNE01.JPG,AFNE01.JPG,AFNE01.JPG,,,,,,,,,,,,,,,,,1,3,13,9,,,,,,,AMSA13.jpg,AMNE09.jpg,AMSA15.jpg,AMNE05.jpg,AMNE05.jpg,MN,1,num_4,32,num_6,0.850090721069,,,2017_Apr_19_1955,59.9997883193,MAFE4ImagesEEG,001,100215,
AFNE01.JPG,AFNE01.JPG,AFNE01.JPG,AFNE01.JPG,AFNE01.JPG,AFNE01.JPG,,,,,,,,,,,,,,,,,1,4,14,3,,,,,,,AMNE08.jpg,AMSA09.jpg,AMNE04.jpg,AMSA19.jpg,AMNE04.jpg,MN,1,num_2,16,num_2,0.600108602259,,,2017_Apr_19_1955,59.9997883193,MAFE4ImagesEEG,001,100215,
AFNE01.JPG,AFNE01.JPG,AFNE01.JPG,AFNE01.JPG,AFNE01.JPG,AFNE01.JPG,,,,,,,,,,,,,,,,,1,5,15,8,,,,,,,AMSA16.jpg,AMNE14.jpg,AMNE12.jpg,AMSA01.jpg,AMSA16.jpg,MS,2,num_8,32,num_2,0.949948344991,,,2017_Apr_19_1955,59.9997883193,MAFE4ImagesEEG,001,100215,
AFNE01.JPG,AFNE01.JPG,AFNE01.JPG,AFNE01.JPG,AFNE01.JPG,AFNE01.JPG,,,,,,,,,,,,,,,,,1,6,16,7,,,,,,,AMSA16.jpg,AMNE03.jpg,AMNE19.jpg,AMSA08.jpg,AMNE19.jpg,MN,1,num_2,32,num_8,1.20010911542,,,2017_Apr_19_1955,59.9997883193,MAFE4ImagesEEG,001,100215,
AFNE01.JPG,AFNE01.JPG,AFNE01.JPG,AFNE01.JPG,AFNE01.JPG,AFNE01.JPG,,,,,,,,,,,,,,,,,1,7,17,4,,,,,,,AMNE09.jpg,AMSA18.jpg,AMNE16.jpg,AMSA19.jpg,AMNE09.jpg,MN,1,num_8,32,num_2,0.883407493558,,,2017_Apr_19_1955,59.9997883193,MAFE4ImagesEEG,001,100215,
AFNE01.JPG,AFNE01.JPG,AFNE01.JPG,AFNE01.JPG,AFNE01.JPG,AFNE01.JPG,,,,,,,,,,,,,,,,,1,8,18,0,,,,,,,AMSA01.jpg,AMSA07.jpg,AMNE20.jpg,AMNE10.jpg,AMNE20.jpg,MN,1,num_2,16,num_2,0.700099332898,,,2017_Apr_19_1955,59.9997883193,MAFE4ImagesEEG,001,100215,
AFNE01.JPG,AFNE01.JPG,AFNE01.JPG,AFNE01.JPG,AFNE01.JPG,AFNE01.JPG,,,,,,,,,,,,,,,,,1,9,19,2,,,,,,,AMNE10.jpg,AMSA12.jpg,AMNE18.jpg,AMSA14.jpg,AMSA14.jpg,MS,2,num_4,16,num_4,0.833444362535,,,2017_Apr_19_1955,59.9997883193,MAFE4ImagesEEG,001,100215,
AFNE01.JPG,AFNE01.JPG,AFNE01.JPG,AFNE01.JPG,AFNE01.JPG,AFNE01.JPG,,,,,,,,,,,,,,,,,2,0,20,3,,,,,,,AMSA10.jpg,AMNE10.jpg,AMSA16.jpg,AMNE06.jpg,AMSA16.jpg,MS,2,num_2,16,num_2,0.766751801508,,,2017_Apr_19_1955,59.9997883193,MAFE4ImagesEEG,001,100215,
AFNE01.JPG,AFNE01.JPG,AFNE01.JPG,AFNE01.JPG,AFNE01.JPG,AFNE01.JPG,,,,,,,,,,,,,,,,,2,1,21,1,,,,,,,AMNE08.jpg,AMSA06.jpg,AMNE11.jpg,AMSA02.jpg,AMSA02.jpg,MS,2,num_4,16,num_4,0.633463542705,,,2017_Apr_19_1955,59.9997883193,MAFE4ImagesEEG,001,100215,
AFNE01.JPG,AFNE01.JPG,AFNE01.JPG,AFNE01.JPG,AFNE01.JPG,AFNE01.JPG,,,,,,,,,,,,,,,,,2,2,22,9,,,,,,,AMSA09.jpg,AMSA11.jpg,AMNE19.jpg,AMNE15.jpg,AMNE19.jpg,MN,1,num_2,32,num_8,1.25014922387,,,2017_Apr_19_1955,59.9997883193,MAFE4ImagesEEG,001,100215,
AFNE01.JPG,AFNE01.JPG,AFNE01.JPG,AFNE01.JPG,AFNE01.JPG,AFNE01.JPG,,,,,,,,,,,,,,,,,2,3,23,5,,,,,,,AMSA02.jpg,AMNE11.jpg,AMNE04.jpg,AMSA19.jpg,AMSA19.jpg,MS,2,num_4,16,num_4,0.833472266793,,,2017_Apr_19_1955,59.9997883193,MAFE4ImagesEEG,001,100215,
AFNE01.JPG,AFNE01.JPG,AFNE01.JPG,AFNE01.JPG,AFNE01.JPG,AFNE01.JPG,,,,,,,,,,,,,,,,,2,4,24,7,,,,,,,AMSA11.jpg,AMNE01.jpg,AMSA07.jpg,AMNE14.jpg,AMSA07.jpg,MS,2,num_2,16,num_2,0.566617026954,,,2017_Apr_19_1955,59.9997883193,MAFE4ImagesEEG,001,100215,
AFNE01.JPG,AFNE01.JPG,AFNE01.JPG,AFNE01.JPG,AFNE01.JPG,AFNE01.JPG,,,,,,,,,,,,,,,,,2,5,25,0,,,,,,,AMSA16.jpg,AMNE16.jpg,AMNE17.jpg,AMSA05.jpg,AMNE16.jpg,MN,1,num_6,32,num_8,1.5331145465,,,2017_Apr_19_1955,59.9997883193,MAFE4ImagesEEG,001,100215,
AFNE01.JPG,AFNE01.JPG,AFNE01.JPG,AFNE01.JPG,AFNE01.JPG,AFNE01.JPG,,,,,,,,,,,,,,,,,2,6,26,2,,,,,,,AMNE09.jpg,AMNE15.jpg,AMSA09.jpg,AMSA06.jpg,AMNE15.jpg,MN,1,num_6,32,num_8,0.950101658236,,,2017_Apr_19_1955,59.9997883193,MAFE4ImagesEEG,001,100215,
AFNE01.JPG,AFNE01.JPG,AFNE01.JPG,AFNE01.JPG,AFNE01.JPG,AFNE01.JPG,,,,,,,,,,,,,,,,,2,7,27,8,,,,,,,AMNE19.jpg,AMSA04.jpg,AMNE05.jpg,AMSA15.jpg,AMSA15.jpg,MS,2,num_4,32,num_8,0.949951231596,,,2017_Apr_19_1955,59.9997883193,MAFE4ImagesEEG,001,100215,
AFNE01.JPG,AFNE01.JPG,AFNE01.JPG,AFNE01.JPG,AFNE01.JPG,AFNE01.JPG,,,,,,,,,,,,,,,,,2,8,28,6,,,,,,,AMSA02.jpg,AMNE01.jpg,AMNE20.jpg,AMSA20.jpg,AMNE20.jpg,MN,1,num_2,32,num_4,0.900367855676,,,2017_Apr_19_1955,59.9997883193,MAFE4ImagesEEG,001,100215,
AFNE01.JPG,AFNE01.JPG,AFNE01.JPG,AFNE01.JPG,AFNE01.JPG,AFNE01.JPG,,,,,,,,,,,,,,,,,2,9,29,4,,,,,,,AMSA15.jpg,AMNE05.jpg,AMNE11.jpg,AMSA10.jpg,AMNE05.jpg,MN,1,num_6,32,num_2,1.16676123123,,,2017_Apr_19_1955,59.9997883193,MAFE4ImagesEEG,001,100215,
AFNE01.JPG,AFNE01.JPG,AFNE01.JPG,AFNE01.JPG,AFNE01.JPG,AFNE01.JPG,,,,,,,,,,,,,,,,,3,0,30,5,,,,,,,AMSA17.jpg,AMNE19.jpg,AMSA19.jpg,AMNE10.jpg,AMSA19.jpg,MS,2,num_2,16,num_2,0.550133924611,,,2017_Apr_19_1955,59.9997883193,MAFE4ImagesEEG,001,100215,
AFNE01.JPG,AFNE01.JPG,AFNE01.JPG,AFNE01.JPG,AFNE01.JPG,AFNE01.JPG,,,,,,,,,,,,,,,,,3,1,31,2,,,,,,,AMNE03.jpg,AMSA08.jpg,AMNE14.jpg,AMSA06.jpg,AMSA08.jpg,MS,2,num_6,32,num_8,1.05033743358,,,2017_Apr_19_1955,59.9997883193,MAFE4ImagesEEG,001,100215,
AFNE01.JPG,AFNE01.JPG,AFNE01.JPG,AFNE01.JPG,AFNE01.JPG,AFNE01.JPG,,,,,,,,,,,,,,,,,3,2,32,6,,,,,,,AMSA09.jpg,AMSA07.jpg,AMNE02.jpg,AMNE19.jpg,AMSA09.jpg,MS,2,num_8,32,num_6,0.800305600191,,,2017_Apr_19_1955,59.9997883193,MAFE4ImagesEEG,001,100215,
AFNE01.JPG,AFNE01.JPG,AFNE01.JPG,AFNE01.JPG,AFNE01.JPG,AFNE01.JPG,,,,,,,,,,,,,,,,,3,3,33,0,,,,,,,AMNE19.jpg,AMSA08.jpg,AMSA17.jpg,AMNE10.jpg,AMSA17.jpg,MS,2,num_2,32,num_8,0.950084338343,,,2017_Apr_19_1955,59.9997883193,MAFE4ImagesEEG,001,100215,
AFNE01.JPG,AFNE01.JPG,AFNE01.JPG,AFNE01.JPG,AFNE01.JPG,AFNE01.JPG,,,,,,,,,,,,,,,,,3,4,34,7,,,,,,,AMNE01.jpg,AMSA12.jpg,AMNE11.jpg,AMSA19.jpg,AMNE11.jpg,MN,1,num_2,16,num_2,0.900115113269,,,2017_Apr_19_1955,59.9997883193,MAFE4ImagesEEG,001,100215,
AFNE01.JPG,AFNE01.JPG,AFNE01.JPG,AFNE01.JPG,AFNE01.JPG,AFNE01.JPG,,,,,,,,,,,,,,,,,3,5,35,8,,,,,,,AMSA19.jpg,AMNE11.jpg,AMNE18.jpg,AMSA07.jpg,AMSA07.jpg,MS,2,num_4,16,num_4,0.716869175987,,,2017_Apr_19_1955,59.9997883193,MAFE4ImagesEEG,001,100215,
AFNE01.JPG,AFNE01.JPG,AFNE01.JPG,AFNE01.JPG,AFNE01.JPG,AFNE01.JPG,,,,,,,,,,,,,,,,,3,6,36,1,,,,,,,AMSA11.jpg,AMNE10.jpg,AMSA03.jpg,AMNE05.jpg,AMSA11.jpg,MS,2,num_8,16,num_8,1.03335301601,,,2017_Apr_19_1955,59.9997883193,MAFE4ImagesEEG,001,100215,
AFNE01.JPG,AFNE01.JPG,AFNE01.JPG,AFNE01.JPG,AFNE01.JPG,AFNE01.JPG,,,,,,,,,,,,,,,,,3,7,37,9,,,,,,,AMNE07.jpg,AMSA12.jpg,AMNE13.jpg,AMSA16.jpg,AMNE07.jpg,MN,1,num_8,32,num_2,1.16678592813,,,2017_Apr_19_1955,59.9997883193,MAFE4ImagesEEG,001,100215,
AFNE01.JPG,AFNE01.JPG,AFNE01.JPG,AFNE01.JPG,AFNE01.JPG,AFNE01.JPG,,,,,,,,,,,,,,,,,3,8,38,3,,,,,,,AMSA18.jpg,AMSA01.jpg,AMNE15.jpg,AMNE06.jpg,AMSA18.jpg,MS,2,num_8,16,num_8,1.06676761396,,,2017_Apr_19_1955,59.9997883193,MAFE4ImagesEEG,001,100215,
AFNE01.JPG,AFNE01.JPG,AFNE01.JPG,AFNE01.JPG,AFNE01.JPG,AFNE01.JPG,,,,,,,,,,,,,,,,,3,9,39,4,,,,,,,AMSA04.jpg,AMSA07.jpg,AMNE06.jpg,AMNE03.jpg,AMSA04.jpg,MS,2,num_8,16,num_8,0.933462997462,,,2017_Apr_19_1955,59.9997883193,MAFE4ImagesEEG,001,100215,
AFNE01.JPG,AFNE01.JPG,AFNE01.JPG,AFNE01.JPG,AFNE01.JPG,AFNE01.JPG,,,,,,,,,,,,,,,,,4,0,40,6,,,,,,,AMSA19.jpg,AMNE07.jpg,AMNE03.jpg,AMSA13.jpg,AMNE03.jpg,MN,1,num_2,16,num_2,1.03361666357,,,2017_Apr_19_1955,59.9997883193,MAFE4ImagesEEG,001,100215,
AFNE01.JPG,AFNE01.JPG,AFNE01.JPG,AFNE01.JPG,AFNE01.JPG,AFNE01.JPG,,,,,,,,,,,,,,,,,4,1,41,2,,,,,,,AMSA08.jpg,AMNE01.jpg,AMNE09.jpg,AMSA14.jpg,AMNE09.jpg,MN,1,num_2,16,num_2,0.966766619647,,,2017_Apr_19_1955,59.9997883193,MAFE4ImagesEEG,001,100215,
AFNE01.JPG,AFNE01.JPG,AFNE01.JPG,AFNE01.JPG,AFNE01.JPG,AFNE01.JPG,,,,,,,,,,,,,,,,,4,2,42,5,,,,,,,AMNE15.jpg,AMSA07.jpg,AMNE09.jpg,AMSA10.jpg,AMSA10.jpg,MS,2,num_4,32,num_8,1.20008538075,,,2017_Apr_19_1955,59.9997883193,MAFE4ImagesEEG,001,100215,
AFNE01.JPG,AFNE01.JPG,AFNE01.JPG,AFNE01.JPG,AFNE01.JPG,AFNE01.JPG,,,,,,,,,,,,,,,,,4,3,43,1,,,,,,,AMSA19.jpg,AMSA08.jpg,AMNE17.jpg,AMNE20.jpg,AMNE17.jpg,MN,1,num_2,32,num_4,0.750159327145,,,2017_Apr_19_1955,59.9997883193,MAFE4ImagesEEG,001,100215,
AFNE01.JPG,AFNE01.JPG,AFNE01.JPG,AFNE01.JPG,AFNE01.JPG,AFNE01.JPG,,,,,,,,,,,,,,,,,4,4,44,9,,,,,,,AMSA06.jpg,AMSA03.jpg,AMNE07.jpg,AMNE14.jpg,AMNE07.jpg,MN,1,num_2,16,num_2,1.03343255931,,,2017_Apr_19_1955,59.9997883193,MAFE4ImagesEEG,001,100215,
AFNE01.JPG,AFNE01.JPG,AFNE01.JPG,AFNE01.JPG,AFNE01.JPG,AFNE01.JPG,,,,,,,,,,,,,,,,,4,5,45,8,,,,,,,AMNE06.jpg,AMNE14.jpg,AMSA03.jpg,AMSA14.jpg,AMNE14.jpg,MN,1,num_6,16,num_6,0.766701124725,,,2017_Apr_19_1955,59.9997883193,MAFE4ImagesEEG,001,100215,
AFNE01.JPG,AFNE01.JPG,AFNE01.JPG,AFNE01.JPG,AFNE01.JPG,AFNE01.JPG,,,,,,,,,,,,,,,,,4,6,46,0,,,,,,,AMNE04.jpg,AMNE05.jpg,AMSA01.jpg,AMSA04.jpg,AMNE04.jpg,MN,1,num_8,16,num_8,1.01676246611,,,2017_Apr_19_1955,59.9997883193,MAFE4ImagesEEG,001,100215,
AFNE01.JPG,AFNE01.JPG,AFNE01.JPG,AFNE01.JPG,AFNE01.JPG,AFNE01.JPG,,,,,,,,,,,,,,,,,4,7,47,3,,,,,,,AMNE03.jpg,AMNE04.jpg,AMSA10.jpg,AMSA04.jpg,AMNE03.jpg,MN,1,num_8,16,num_8,1.09995224196,,,2017_Apr_19_1955,59.9997883193,MAFE4ImagesEEG,001,100215,
AFNE01.JPG,AFNE01.JPG,AFNE01.JPG,AFNE01.JPG,AFNE01.JPG,AFNE01.JPG,,,,,,,,,,,,,,,,,4,8,48,4,,,,,,,AMSA13.jpg,AMSA14.jpg,AMNE17.jpg,AMNE18.jpg,AMSA13.jpg,MS,2,num_8,16,num_8,0.666756580526,,,2017_Apr_19_1955,59.9997883193,MAFE4ImagesEEG,001,100215,
AFNE01.JPG,AFNE01.JPG,AFNE01.JPG,AFNE01.JPG,AFNE01.JPG,AFNE01.JPG,,,,,,,,,,,,,,,,,4,9,49,7,,,,,,,AMSA15.jpg,AMSA05.jpg,AMNE02.jpg,AMNE12.jpg,AMSA05.jpg,MS,2,num_6,16,num_6,1.16676187271,,,2017_Apr_19_1955,59.9997883193,MAFE4ImagesEEG,001,100215,
AFNE01.JPG,AFNE01.JPG,AFNE01.JPG,AFNE01.JPG,AFNE01.JPG,AFNE01.JPG,,,,,,,,,,,,,,,,,5,0,50,6,,,,,,,AMNE19.jpg,AMSA06.jpg,AMNE06.jpg,AMSA13.jpg,AMNE06.jpg,MN,1,num_2,32,num_8,0.983421638142,,,2017_Apr_19_1955,59.9997883193,MAFE4ImagesEEG,001,100215,
AFNE01.JPG,AFNE01.JPG,AFNE01.JPG,AFNE01.JPG,AFNE01.JPG,AFNE01.JPG,,,,,,,,,,,,,,,,,5,1,51,0,,,,,,,AMSA01.jpg,AMSA05.jpg,AMNE20.jpg,AMNE06.jpg,AMNE06.jpg,MN,1,num_4,16,num_4,0.66677742856,,,2017_Apr_19_1955,59.9997883193,MAFE4ImagesEEG,001,100215,
AFNE01.JPG,AFNE01.JPG,AFNE01.JPG,AFNE01.JPG,AFNE01.JPG,AFNE01.JPG,,,,,,,,,,,,,,,,,5,2,52,5,,,,,,,AMNE16.jpg,AMNE08.jpg,AMSA10.jpg,AMSA18.jpg,AMNE16.jpg,MN,1,num_8,16,num_8,1.1001700238,,,2017_Apr_19_1955,59.9997883193,MAFE4ImagesEEG,001,100215,
AFNE01.JPG,AFNE01.JPG,AFNE01.JPG,AFNE01.JPG,AFNE01.JPG,AFNE01.JPG,,,,,,,,,,,,,,,,,5,3,53,1,,,,,,,AMNE14.jpg,AMNE10.jpg,AMSA14.jpg,AMSA17.jpg,AMNE14.jpg,MN,1,num_8,16,num_8,0.666800201056,,,2017_Apr_19_1955,59.9997883193,MAFE4ImagesEEG,001,100215,
AFNE01.JPG,AFNE01.JPG,AFNE01.JPG,AFNE01.JPG,AFNE01.JPG,AFNE01.JPG,,,,,,,,,,,,,,,,,5,4,54,3,,,,,,,AMSA08.jpg,AMNE07.jpg,AMNE01.jpg,AMSA10.jpg,AMSA10.jpg,MS,2,num_4,32,num_8,1.35003988392,,,2017_Apr_19_1955,59.9997883193,MAFE4ImagesEEG,001,100215,
AFNE01.JPG,AFNE01.JPG,AFNE01.JPG,AFNE01.JPG,AFNE01.JPG,AFNE01.JPG,,,,,,,,,,,,,,,,,5,5,55,7,,,,,,,AMSA16.jpg,AMSA19.jpg,AMNE03.jpg,AMNE01.jpg,AMSA19.jpg,MS,2,num_6,16,num_6,0.61663340067,,,2017_Apr_19_1955,59.9997883193,MAFE4ImagesEEG,001,100215,
AFNE01.JPG,AFNE01.JPG,AFNE01.JPG,AFNE01.JPG,AFNE01.JPG,AFNE01.JPG,,,,,,,,,,,,,,,,,5,6,56,4,,,,,,,AMNE16.jpg,AMNE18.jpg,AMSA18.jpg,AMSA06.jpg,AMNE18.jpg,MN,1,num_6,16,num_6,0.700133331236,,,2017_Apr_19_1955,59.9997883193,MAFE4ImagesEEG,001,100215,
AFNE01.JPG,AFNE01.JPG,AFNE01.JPG,AFNE01.JPG,AFNE01.JPG,AFNE01.JPG,,,,,,,,,,,,,,,,,5,7,57,2,,,,,,,AMNE03.jpg,AMSA06.jpg,AMNE09.jpg,AMSA08.jpg,AMSA08.jpg,MS,2,num_4,16,num_4,0.616824561177,,,2017_Apr_19_1955,59.9997883193,MAFE4ImagesEEG,001,100215,
AFNE01.JPG,AFNE01.JPG,AFNE01.JPG,AFNE01.JPG,AFNE01.JPG,AFNE01.JPG,,,,,,,,,,,,,,,,,5,8,58,8,,,,,,,AMNE17.jpg,AMNE12.jpg,AMSA06.jpg,AMSA13.jpg,AMSA13.jpg,MS,2,num_4,16,num_4,0.816750534606,,,2017_Apr_19_1955,59.9997883193,MAFE4ImagesEEG,001,100215,
AFNE01.JPG,AFNE01.JPG,AFNE01.JPG,AFNE01.JPG,AFNE01.JPG,AFNE01.JPG,,,,,,,,,,,,,,,,,5,9,59,9,,,,,,,AMNE02.jpg,AMSA08.jpg,AMSA20.jpg,AMNE06.jpg,AMSA08.jpg,MS,2,num_6,32,num_4,0.916803488624,,,2017_Apr_19_1955,59.9997883193,MAFE4ImagesEEG,001,100215,
,,,,,,,,,,,,,,,,,,,,,,,,,,,,,,,,,,,,,,,,,,,space,10.8829257435,2017_Apr_19_1955,59.9997883193,MAFE4ImagesEEG,001,100215,
AFNE01.JPG,AFNE01.JPG,AFNE01.JPG,AFNE01.JPG,AFNE01.JPG,AFNE01.JPG,,,,,,,,,,,,,,,,,,,,,0,0,0,8,,,AFSA18.jpg,AFNE20.jpg,AFSA07.jpg,AFNE13.jpg,AFSA07.jpg,FS,4,num_2,32,num_8,2.6332550623,,,2017_Apr_19_1955,59.9997883193,MAFE4ImagesEEG,001,100215,
AFNE01.JPG,AFNE01.JPG,AFNE01.JPG,AFNE01.JPG,AFNE01.JPG,AFNE01.JPG,,,,,,,,,,,,,,,,,,,,,0,1,1,0,,,AFSA11.jpg,AFNE12.jpg,AFNE16.jpg,AFSA17.jpg,AFNE16.jpg,FN,3,num_2,32,num_6,0.966732621309,,,2017_Apr_19_1955,59.9997883193,MAFE4ImagesEEG,001,100215,
AFNE01.JPG,AFNE01.JPG,AFNE01.JPG,AFNE01.JPG,AFNE01.JPG,AFNE01.JPG,,,,,,,,,,,,,,,,,,,,,0,2,2,9,,,AFNE08.jpg,AFNE19.jpg,AFSA06.jpg,AFSA02.jpg,AFSA06.jpg,FS,4,num_2,16,num_2,0.766771045834,,,2017_Apr_19_1955,59.9997883193,MAFE4ImagesEEG,001,100215,
AFNE01.JPG,AFNE01.JPG,AFNE01.JPG,AFNE01.JPG,AFNE01.JPG,AFNE01.JPG,,,,,,,,,,,,,,,,,,,,,0,3,3,1,,,AFNE02.jpg,AFSA16.jpg,AFNE10.jpg,AFSA02.jpg,AFSA16.jpg,FS,4,num_6,32,num_4,0.833463927615,,,2017_Apr_19_1955,59.9997883193,MAFE4ImagesEEG,001,100215,
AFNE01.JPG,AFNE01.JPG,AFNE01.JPG,AFNE01.JPG,AFNE01.JPG,AFNE01.JPG,,,,,,,,,,,,,,,,,,,,,0,4,4,5,,,AFNE15.jpg,AFSA02.jpg,AFNE14.jpg,AFSA09.jpg,AFNE15.jpg,FN,3,num_8,16,num_8,0.70013878381,,,2017_Apr_19_1955,59.9997883193,MAFE4ImagesEEG,001,100215,
AFNE01.JPG,AFNE01.JPG,AFNE01.JPG,AFNE01.JPG,AFNE01.JPG,AFNE01.JPG,,,,,,,,,,,,,,,,,,,,,0,5,5,2,,,AFNE03.jpg,AFSA15.jpg,AFSA02.jpg,AFNE11.jpg,AFNE03.jpg,FN,3,num_8,16,num_8,0.700027808081,,,2017_Apr_19_1955,59.9997883193,MAFE4ImagesEEG,001,100215,
AFNE01.JPG,AFNE01.JPG,AFNE01.JPG,AFNE01.JPG,AFNE01.JPG,AFNE01.JPG,,,,,,,,,,,,,,,,,,,,,0,6,6,3,,,AFNE17.jpg,AFNE18.jpg,AFSA06.jpg,AFSA19.jpg,AFNE17.jpg,FN,3,num_8,16,num_8,0.983430939581,,,2017_Apr_19_1955,59.9997883193,MAFE4ImagesEEG,001,100215,
AFNE01.JPG,AFNE01.JPG,AFNE01.JPG,AFNE01.JPG,AFNE01.JPG,AFNE01.JPG,,,,,,,,,,,,,,,,,,,,,0,7,7,6,,,AFSA02.jpg,AFSA14.jpg,AFNE10.jpg,AFNE05.jpg,AFNE05.jpg,FN,3,num_4,16,num_4,0.883404606895,,,2017_Apr_19_1955,59.9997883193,MAFE4ImagesEEG,001,100215,
AFNE01.JPG,AFNE01.JPG,AFNE01.JPG,AFNE01.JPG,AFNE01.JPG,AFNE01.JPG,,,,,,,,,,,,,,,,,,,,,0,8,8,4,,,AFSA10.jpg,AFNE17.jpg,AFNE01.jpg,AFSA01.jpg,AFNE17.jpg,FN,3,num_6,16,num_6,0.74998292065,,,2017_Apr_19_1955,59.9997883193,MAFE4ImagesEEG,001,100215,
AFNE01.JPG,AFNE01.JPG,AFNE01.JPG,AFNE01.JPG,AFNE01.JPG,AFNE01.JPG,,,,,,,,,,,,,,,,,,,,,0,9,9,7,,,AFSA16.jpg,AFSA06.jpg,AFNE09.jpg,AFNE01.jpg,AFNE01.jpg,FN,3,num_4,16,num_4,0.966843917762,,,2017_Apr_19_1955,59.9997883193,MAFE4ImagesEEG,001,100215,
AFNE01.JPG,AFNE01.JPG,AFNE01.JPG,AFNE01.JPG,AFNE01.JPG,AFNE01.JPG,,,,,,,,,,,,,,,,,,,,,1,0,10,7,,,AFNE13.jpg,AFSA09.jpg,AFSA10.jpg,AFNE07.jpg,AFSA09.jpg,FS,4,num_6,32,num_2,0.866785190447,,,2017_Apr_19_1955,59.9997883193,MAFE4ImagesEEG,001,100215,
AFNE01.JPG,AFNE01.JPG,AFNE01.JPG,AFNE01.JPG,AFNE01.JPG,AFNE01.JPG,,,,,,,,,,,,,,,,,,,,,1,1,11,4,,,AFNE12.jpg,AFSA15.jpg,AFSA11.jpg,AFNE17.jpg,AFNE12.jpg,FN,3,num_8,16,num_8,0.866453546245,,,2017_Apr_19_1955,59.9997883193,MAFE4ImagesEEG,001,100215,
AFNE01.JPG,AFNE01.JPG,AFNE01.JPG,AFNE01.JPG,AFNE01.JPG,AFNE01.JPG,,,,,,,,,,,,,,,,,,,,,1,2,12,3,,,AFSA10.jpg,AFSA20.jpg,AFNE13.jpg,AFNE15.jpg,AFSA20.jpg,FS,4,num_6,16,num_6,0.500137436698,,,2017_Apr_19_1955,59.9997883193,MAFE4ImagesEEG,001,100215,
AFNE01.JPG,AFNE01.JPG,AFNE01.JPG,AFNE01.JPG,AFNE01.JPG,AFNE01.JPG,,,,,,,,,,,,,,,,,,,,,1,3,13,1,,,AFNE17.jpg,AFNE09.jpg,AFSA13.jpg,AFSA04.jpg,AFSA04.jpg,FS,4,num_4,16,num_4,0.683463238005,,,2017_Apr_19_1955,59.9997883193,MAFE4ImagesEEG,001,100215,
AFNE01.JPG,AFNE01.JPG,AFNE01.JPG,AFNE01.JPG,AFNE01.JPG,AFNE01.JPG,,,,,,,,,,,,,,,,,,,,,1,4,14,6,,,AFNE20.jpg,AFSA19.jpg,AFNE12.jpg,AFSA07.jpg,AFSA07.jpg,FS,4,num_4,16,num_4,2.58336666349,,,2017_Apr_19_1955,59.9997883193,MAFE4ImagesEEG,001,100215,
AFNE01.JPG,AFNE01.JPG,AFNE01.JPG,AFNE01.JPG,AFNE01.JPG,AFNE01.JPG,,,,,,,,,,,,,,,,,,,,,1,5,15,8,,,AFSA06.jpg,AFNE02.jpg,AFNE17.jpg,AFSA02.jpg,AFSA06.jpg,FS,4,num_8,16,num_8,1.08351949565,,,2017_Apr_19_1955,59.9997883193,MAFE4ImagesEEG,001,100215,
AFNE01.JPG,AFNE01.JPG,AFNE01.JPG,AFNE01.JPG,AFNE01.JPG,AFNE01.JPG,,,,,,,,,,,,,,,,,,,,,1,6,16,0,,,AFSA13.jpg,AFSA06.jpg,AFNE17.jpg,AFNE03.jpg,AFNE17.jpg,FN,3,num_2,16,num_2,1.16675128834,,,2017_Apr_19_1955,59.9997883193,MAFE4ImagesEEG,001,100215,
AFNE01.JPG,AFNE01.JPG,AFNE01.JPG,AFNE01.JPG,AFNE01.JPG,AFNE01.JPG,,,,,,,,,,,,,,,,,,,,,1,7,17,5,,,AFSA03.jpg,AFNE10.jpg,AFSA11.jpg,AFNE03.jpg,AFNE10.jpg,FN,3,num_6,16,num_6,1.00010167429,,,2017_Apr_19_1955,59.9997883193,MAFE4ImagesEEG,001,100215,
AFNE01.JPG,AFNE01.JPG,AFNE01.JPG,AFNE01.JPG,AFNE01.JPG,AFNE01.JPG,,,,,,,,,,,,,,,,,,,,,1,8,18,9,,,AFSA18.jpg,AFNE16.jpg,AFSA17.jpg,AFNE04.jpg,AFSA17.jpg,FS,4,num_2,32,num_8,1.83324614578,,,2017_Apr_19_1955,59.9997883193,MAFE4ImagesEEG,001,100215,
AFNE01.JPG,AFNE01.JPG,AFNE01.JPG,AFNE01.JPG,AFNE01.JPG,AFNE01.JPG,,,,,,,,,,,,,,,,,,,,,1,9,19,2,,,AFNE16.jpg,AFSA05.jpg,AFSA01.jpg,AFNE13.jpg,AFNE16.jpg,FN,3,num_8,32,num_6,0.683544064261,,,2017_Apr_19_1955,59.9997883193,MAFE4ImagesEEG,001,100215,
AFNE01.JPG,AFNE01.JPG,AFNE01.JPG,AFNE01.JPG,AFNE01.JPG,AFNE01.JPG,,,,,,,,,,,,,,,,,,,,,2,0,20,2,,,AFSA10.jpg,AFNE15.jpg,AFSA03.jpg,AFNE14.jpg,AFNE15.jpg,FN,3,num_6,32,num_8,1.68326694568,,,2017_Apr_19_1955,59.9997883193,MAFE4ImagesEEG,001,100215,
AFNE01.JPG,AFNE01.JPG,AFNE01.JPG,AFNE01.JPG,AFNE01.JPG,AFNE01.JPG,,,,,,,,,,,,,,,,,,,,,2,1,21,7,,,AFNE20.jpg,AFNE11.jpg,AFSA04.jpg,AFSA10.jpg,AFSA04.jpg,FS,4,num_2,32,num_4,0.683450729179,,,2017_Apr_19_1955,59.9997883193,MAFE4ImagesEEG,001,100215,
AFNE01.JPG,AFNE01.JPG,AFNE01.JPG,AFNE01.JPG,AFNE01.JPG,AFNE01.JPG,,,,,,,,,,,,,,,,,,,,,2,2,22,5,,,AFSA17.jpg,AFNE10.jpg,AFNE15.jpg,AFSA14.jpg,AFSA14.jpg,FS,4,num_4,16,num_4,1.26650210613,,,2017_Apr_19_1955,59.9997883193,MAFE4ImagesEEG,001,100215,
AFNE01.JPG,AFNE01.JPG,AFNE01.JPG,AFNE01.JPG,AFNE01.JPG,AFNE01.JPG,,,,,,,,,,,,,,,,,,,,,2,3,23,4,,,AFNE13.jpg,AFNE09.jpg,AFSA20.jpg,AFSA09.jpg,AFSA20.jpg,FS,4,num_2,16,num_2,1.05015108414,,,2017_Apr_19_1955,59.9997883193,MAFE4ImagesEEG,001,100215,
AFNE01.JPG,AFNE01.JPG,AFNE01.JPG,AFNE01.JPG,AFNE01.JPG,AFNE01.JPG,,,,,,,,,,,,,,,,,,,,,2,4,24,8,,,AFSA10.jpg,AFSA01.jpg,AFNE13.jpg,AFNE11.jpg,AFSA10.jpg,FS,4,num_8,16,num_8,0.850156793284,,,2017_Apr_19_1955,59.9997883193,MAFE4ImagesEEG,001,100215,
AFNE01.JPG,AFNE01.JPG,AFNE01.JPG,AFNE01.JPG,AFNE01.JPG,AFNE01.JPG,,,,,,,,,,,,,,,,,,,,,2,5,25,9,,,AFSA12.jpg,AFSA02.jpg,AFNE01.jpg,AFNE10.jpg,AFSA02.jpg,FS,4,num_6,16,num_6,0.866776530514,,,2017_Apr_19_1955,59.9997883193,MAFE4ImagesEEG,001,100215,
AFNE01.JPG,AFNE01.JPG,AFNE01.JPG,AFNE01.JPG,AFNE01.JPG,AFNE01.JPG,,,,,,,,,,,,,,,,,,,,,2,6,26,6,,,AFNE18.jpg,AFSA14.jpg,AFSA18.jpg,AFNE03.jpg,AFNE03.jpg,FN,3,num_4,16,num_4,0.633474768576,,,2017_Apr_19_1955,59.9997883193,MAFE4ImagesEEG,001,100215,
AFNE01.JPG,AFNE01.JPG,AFNE01.JPG,AFNE01.JPG,AFNE01.JPG,AFNE01.JPG,,,,,,,,,,,,,,,,,,,,,2,7,27,1,,,AFNE07.jpg,AFSA16.jpg,AFSA06.jpg,AFNE04.jpg,AFNE04.jpg,FN,3,num_4,16,num_4,0.683486010501,,,2017_Apr_19_1955,59.9997883193,MAFE4ImagesEEG,001,100215,
AFNE01.JPG,AFNE01.JPG,AFNE01.JPG,AFNE01.JPG,AFNE01.JPG,AFNE01.JPG,,,,,,,,,,,,,,,,,,,,,2,8,28,3,,,AFNE03.jpg,AFNE05.jpg,AFSA18.jpg,AFSA20.jpg,AFSA20.jpg,FS,4,num_4,16,num_4,0.633464504936,,,2017_Apr_19_1955,59.9997883193,MAFE4ImagesEEG,001,100215,
AFNE01.JPG,AFNE01.JPG,AFNE01.JPG,AFNE01.JPG,AFNE01.JPG,AFNE01.JPG,,,,,,,,,,,,,,,,,,,,,2,9,29,0,,,AFSA14.jpg,AFNE07.jpg,AFNE20.jpg,AFSA15.jpg,AFNE07.jpg,FN,3,num_6,16,num_6,0.683444955881,,,2017_Apr_19_1955,59.9997883193,MAFE4ImagesEEG,001,100215,
AFNE01.JPG,AFNE01.JPG,AFNE01.JPG,AFNE01.JPG,AFNE01.JPG,AFNE01.JPG,,,,,,,,,,,,,,,,,,,,,3,0,30,9,,,AFSA08.jpg,AFNE07.jpg,AFNE15.jpg,AFSA06.jpg,AFSA08.jpg,FS,4,num_8,16,num_8,0.950208143651,,,2017_Apr_19_1955,59.9997883193,MAFE4ImagesEEG,001,100215,
AFNE01.JPG,AFNE01.JPG,AFNE01.JPG,AFNE01.JPG,AFNE01.JPG,AFNE01.JPG,,,,,,,,,,,,,,,,,,,,,3,1,31,8,,,AFSA08.jpg,AFNE18.jpg,AFSA13.jpg,AFNE02.jpg,AFNE18.jpg,FN,3,num_6,32,num_4,0.850103229866,,,2017_Apr_19_1955,59.9997883193,MAFE4ImagesEEG,001,100215,
AFNE01.JPG,AFNE01.JPG,AFNE01.JPG,AFNE01.JPG,AFNE01.JPG,AFNE01.JPG,,,,,,,,,,,,,,,,,,,,,3,2,32,6,,,AFSA09.jpg,AFSA20.jpg,AFNE16.jpg,AFNE15.jpg,AFNE15.jpg,FN,3,num_4,32,num_8,0.983480654133,,,2017_Apr_19_1955,59.9997883193,MAFE4ImagesEEG,001,100215,
AFNE01.JPG,AFNE01.JPG,AFNE01.JPG,AFNE01.JPG,AFNE01.JPG,AFNE01.JPG,,,,,,,,,,,,,,,,,,,,,3,3,33,3,,,AFNE06.jpg,AFSA15.jpg,AFSA09.jpg,AFNE12.jpg,AFNE12.jpg,FN,3,num_4,16,num_4,0.750103197817,,,2017_Apr_19_1955,59.9997883193,MAFE4ImagesEEG,001,100215,
AFNE01.JPG,AFNE01.JPG,AFNE01.JPG,AFNE01.JPG,AFNE01.JPG,AFNE01.JPG,,,,,,,,,,,,,,,,,,,,,3,4,34,0,,,AFNE20.jpg,AFSA17.jpg,AFSA14.jpg,AFNE07.jpg,AFNE07.jpg,FN,3,num_4,16,num_4,0.816714291053,,,2017_Apr_19_1955,59.9997883193,MAFE4ImagesEEG,001,100215,
AFNE01.JPG,AFNE01.JPG,AFNE01.JPG,AFNE01.JPG,AFNE01.JPG,AFNE01.JPG,,,,,,,,,,,,,,,,,,,,,3,5,35,5,,,AFSA07.jpg,AFNE11.jpg,AFSA04.jpg,AFNE04.jpg,AFNE11.jpg,FN,3,num_6,16,num_6,0.833411967877,,,2017_Apr_19_1955,59.9997883193,MAFE4ImagesEEG,001,100215,
AFNE01.JPG,AFNE01.JPG,AFNE01.JPG,AFNE01.JPG,AFNE01.JPG,AFNE01.JPG,,,,,,,,,,,,,,,,,,,,,3,6,36,7,,,AFSA18.jpg,AFNE06.jpg,AFSA03.jpg,AFNE03.jpg,AFSA03.jpg,FS,4,num_2,16,num_2,0.916775263584,,,2017_Apr_19_1955,59.9997883193,MAFE4ImagesEEG,001,100215,
AFNE01.JPG,AFNE01.JPG,AFNE01.JPG,AFNE01.JPG,AFNE01.JPG,AFNE01.JPG,,,,,,,,,,,,,,,,,,,,,3,7,37,2,,,AFNE01.jpg,AFSA07.jpg,AFSA01.jpg,AFNE09.jpg,AFNE09.jpg,FN,3,num_4,32,num_8,1.1334598542,,,2017_Apr_19_1955,59.9997883193,MAFE4ImagesEEG,001,100215,
AFNE01.JPG,AFNE01.JPG,AFNE01.JPG,AFNE01.JPG,AFNE01.JPG,AFNE01.JPG,,,,,,,,,,,,,,,,,,,,,3,8,38,4,,,AFNE20.jpg,AFNE01.jpg,AFSA11.jpg,AFSA07.jpg,AFNE20.jpg,FN,3,num_8,16,num_8,1.03350183895,,,2017_Apr_19_1955,59.9997883193,MAFE4ImagesEEG,001,100215,
