IPosition2,IPosition3,IPosition1,IPosition6,IPosition4,IPosition5,TrialsM1.thisRepN,TrialsM1.thisTrialN,TrialsM1.thisN,TrialsM1.thisIndex,TrialsF1.thisRepN,TrialsF1.thisTrialN,TrialsF1.thisN,TrialsF1.thisIndex,TrialsM2.thisRepN,TrialsM2.thisTrialN,TrialsM2.thisN,TrialsM2.thisIndex,TrialsF2.thisRepN,TrialsF2.thisTrialN,TrialsF2.thisN,TrialsF2.thisIndex,TrialsM3.thisRepN,TrialsM3.thisTrialN,TrialsM3.thisN,TrialsM3.thisIndex,TrialsF3.thisRepN,TrialsF3.thisTrialN,TrialsF3.thisN,TrialsF3.thisIndex,InstrKey_resp.keys,InstrKey_resp.rt,Image0 _Position,Image1 _Position,Image2 _Position,Image3 _Position,Center_image,condition,code,correct_answer,accuracy,Key_Resp.keys,Key_Resp.rt,BreakKey_resp.keys,BreakKey_resp.rt,date,frameRate,expName,session,participant,
,,,,,,,,,,,,,,,,,,,,,,,,,,,,,,space,13.949489688,,,,,,,,,,,,,,2017_May_02_1656,60.000942951,MAFE4ImagesEEG,001,100281,
AMNE23.JPG,AMNE24.JPG,AMNE22.JPG,AMSA24.JPG,AMSA22.JPG,AMSA23.JPG,0,0,0,9,,,,,,,,,,,,,,,,,,,,,,,AMSA02.jpg,AMNE06.jpg,AMNE15.jpg,AMSA03.jpg,AMSA03.jpg,MS,2,num_4,48,None,,,,2017_May_02_1656,60.000942951,MAFE4ImagesEEG,001,100281,
AMSA21.JPG,AMNE23.JPG,AMNE21.JPG,AMSA25.JPG,AMNE25.JPG,AMSA23.JPG,0,1,1,5,,,,,,,,,,,,,,,,,,,,,,,AMNE15.jpg,AMNE01.jpg,AMSA20.jpg,AMSA14.jpg,AMNE15.jpg,MN,1,num_8,48,None,,,,2017_May_02_1656,60.000942951,MAFE4ImagesEEG,001,100281,
AMSA25.JPG,AMNE24.JPG,AMSA24.JPG,AMNE26.JPG,AMSA21.JPG,AMNE25.JPG,0,2,2,3,,,,,,,,,,,,,,,,,,,,,,,AMNE13.jpg,AMSA19.jpg,AMNE19.jpg,AMSA15.jpg,AMNE19.jpg,MN,1,num_2,48,None,,,,2017_May_02_1656,60.000942951,MAFE4ImagesEEG,001,100281,
AMNE22.JPG,AMSA24.JPG,AMSA22.JPG,AMNE25.JPG,AMNE24.JPG,AMSA25.JPG,0,3,3,7,,,,,,,,,,,,,,,,,,,,,,,AMSA13.jpg,AMNE04.jpg,AMSA18.jpg,AMNE01.jpg,AMNE04.jpg,MN,1,num_6,48,None,,,,2017_May_02_1656,60.000942951,MAFE4ImagesEEG,001,100281,
AFSA25.JPG,AFNE24.JPG,AFSA24.JPG,AFNE21.JPG,AFSA21.JPG,AFNE25.JPG,0,4,4,2,,,,,,,,,,,,,,,,,,,,,,,AMSA19.jpg,AMNE15.jpg,AMSA02.jpg,AMNE06.jpg,AMNE06.jpg,MN,1,num_4,48,None,,,,2017_May_02_1656,60.000942951,MAFE4ImagesEEG,001,100281,
AFNE23.JPG,AFNE24.JPG,AFNE22.JPG,AFSA24.JPG,AFSA22.JPG,AFSA23.JPG,0,5,5,8,,,,,,,,,,,,,,,,,,,,,,,AMNE11.jpg,AMSA05.jpg,AMNE16.jpg,AMSA12.jpg,AMSA12.jpg,MS,2,num_4,48,None,,,,2017_May_02_1656,60.000942951,MAFE4ImagesEEG,001,100281,
AFNE22.JPG,AFSA24.JPG,AFSA22.JPG,AFNE25.JPG,AFNE24.JPG,AFSA25.JPG,0,6,6,6,,,,,,,,,,,,,,,,,,,,,,,AMNE09.jpg,AMSA10.jpg,AMSA02.jpg,AMNE19.jpg,AMNE09.jpg,MN,1,num_8,32,num_2,3.98332028463,,,2017_May_02_1656,60.000942951,MAFE4ImagesEEG,001,100281,
AMSA21.JPG,AMNE22.JPG,AMNE21.JPG,AMSA23.JPG,AMSA22.JPG,AMNE23.JPG,0,7,7,1,,,,,,,,,,,,,,,,,,,,,,,AMNE06.jpg,AMSA13.jpg,AMNE03.jpg,AMSA16.jpg,AMSA13.jpg,MS,2,num_6,16,num_6,0.866787756328,,,2017_May_02_1656,60.000942951,MAFE4ImagesEEG,001,100281,
AFSA21.JPG,AFNE22.JPG,AFNE21.JPG,AFSA23.JPG,AFSA22.JPG,AFNE23.JPG,0,8,8,0,,,,,,,,,,,,,,,,,,,,,,,AMSA20.jpg,AMSA17.jpg,AMNE17.jpg,AMNE05.jpg,AMNE05.jpg,MN,1,num_4,16,num_4,0.93345946935,,,2017_May_02_1656,60.000942951,MAFE4ImagesEEG,001,100281,
AFSA21.JPG,AFNE23.JPG,AFNE21.JPG,AFSA25.JPG,AFNE25.JPG,AFSA23.JPG,0,9,9,4,,,,,,,,,,,,,,,,,,,,,,,AMNE03.jpg,AMNE11.jpg,AMSA02.jpg,AMSA15.jpg,AMNE11.jpg,MN,1,num_6,16,num_6,0.583476677071,,,2017_May_02_1656,60.000942951,MAFE4ImagesEEG,001,100281,
AFNE22.JPG,AFSA24.JPG,AFSA22.JPG,AFNE25.JPG,AFNE24.JPG,AFSA25.JPG,,,,,0,0,0,6,,,,,,,,,,,,,,,,,,,AFNE20.jpg,AFSA18.jpg,AFSA03.jpg,AFNE15.jpg,AFNE20.jpg,FN,3,num_8,32,num_4,1.01673392043,,,2017_May_02_1656,60.000942951,MAFE4ImagesEEG,001,100281,
AFSA21.JPG,AFNE23.JPG,AFNE21.JPG,AFSA25.JPG,AFNE25.JPG,AFSA23.JPG,,,,,0,1,1,4,,,,,,,,,,,,,,,,,,,AFSA15.jpg,AFSA16.jpg,AFNE03.jpg,AFNE05.jpg,AFNE03.jpg,FN,3,num_2,32,num_4,1.26676447061,,,2017_May_02_1656,60.000942951,MAFE4ImagesEEG,001,100281,
AFSA21.JPG,AFNE22.JPG,AFNE21.JPG,AFSA23.JPG,AFSA22.JPG,AFNE23.JPG,,,,,0,2,2,0,,,,,,,,,,,,,,,,,,,AFNE01.jpg,AFSA11.jpg,AFSA15.jpg,AFNE17.jpg,AFNE01.jpg,FN,3,num_8,32,num_4,1.08314807969,,,2017_May_02_1656,60.000942951,MAFE4ImagesEEG,001,100281,
AMSA21.JPG,AMNE22.JPG,AMNE21.JPG,AMSA23.JPG,AMSA22.JPG,AMNE23.JPG,,,,,0,3,3,1,,,,,,,,,,,,,,,,,,,AFSA13.jpg,AFNE12.jpg,AFSA20.jpg,AFNE09.jpg,AFSA20.jpg,FS,4,num_2,32,num_4,1.41675489675,,,2017_May_02_1656,60.000942951,MAFE4ImagesEEG,001,100281,
AMSA21.JPG,AMNE23.JPG,AMNE21.JPG,AMSA25.JPG,AMNE25.JPG,AMSA23.JPG,,,,,0,4,4,5,,,,,,,,,,,,,,,,,,,AFSA04.jpg,AFNE20.jpg,AFSA14.jpg,AFNE18.jpg,AFNE18.jpg,FN,3,num_4,16,num_4,1.11675223452,,,2017_May_02_1656,60.000942951,MAFE4ImagesEEG,001,100281,
AMSA25.JPG,AMNE24.JPG,AMSA24.JPG,AMNE26.JPG,AMSA21.JPG,AMNE25.JPG,,,,,0,5,5,3,,,,,,,,,,,,,,,,,,,AFSA13.jpg,AFNE20.jpg,AFSA05.jpg,AFNE09.jpg,AFSA05.jpg,FS,4,num_2,32,num_4,1.11704474851,,,2017_May_02_1656,60.000942951,MAFE4ImagesEEG,001,100281,
AMNE22.JPG,AMSA24.JPG,AMSA22.JPG,AMNE25.JPG,AMNE24.JPG,AMSA25.JPG,,,,,0,6,6,7,,,,,,,,,,,,,,,,,,,AFNE20.jpg,AFNE07.jpg,AFSA11.jpg,AFSA15.jpg,AFNE07.jpg,FN,3,num_6,32,num_8,1.01675348543,,,2017_May_02_1656,60.000942951,MAFE4ImagesEEG,001,100281,
AFNE23.JPG,AFNE24.JPG,AFNE22.JPG,AFSA24.JPG,AFSA22.JPG,AFSA23.JPG,,,,,0,7,7,8,,,,,,,,,,,,,,,,,,,AFSA12.jpg,AFNE05.jpg,AFSA14.jpg,AFNE12.jpg,AFSA12.jpg,FS,4,num_8,32,num_4,1.05008757766,,,2017_May_02_1656,60.000942951,MAFE4ImagesEEG,001,100281,
AFSA25.JPG,AFNE24.JPG,AFSA24.JPG,AFNE21.JPG,AFSA21.JPG,AFNE25.JPG,,,,,0,8,8,2,,,,,,,,,,,,,,,,,,,AFNE10.jpg,AFNE17.jpg,AFSA09.jpg,AFSA20.jpg,AFNE17.jpg,FN,3,num_6,16,num_6,4.63317583967,,,2017_May_02_1656,60.000942951,MAFE4ImagesEEG,001,100281,
AMNE23.JPG,AMNE24.JPG,AMNE22.JPG,AMSA24.JPG,AMSA22.JPG,AMSA23.JPG,,,,,0,9,9,9,,,,,,,,,,,,,,,,,,,AFNE09.jpg,AFSA20.jpg,AFSA19.jpg,AFNE05.jpg,AFNE05.jpg,FN,3,num_4,16,num_4,0.750264850212,,,2017_May_02_1656,60.000942951,MAFE4ImagesEEG,001,100281,
AFNE22.JPG,AFSA24.JPG,AFSA22.JPG,AFNE25.JPG,AFNE24.JPG,AFSA25.JPG,,,,,,,,,0,0,0,6,,,,,,,,,,,,,,,AMNE01.jpg,AMSA03.jpg,AMNE06.jpg,AMSA10.jpg,AMNE06.jpg,MN,1,num_2,32,num_4,0.750244964613,,,2017_May_02_1656,60.000942951,MAFE4ImagesEEG,001,100281,
AMSA25.JPG,AMNE24.JPG,AMSA24.JPG,AMNE26.JPG,AMSA21.JPG,AMNE25.JPG,,,,,,,,,0,1,1,3,,,,,,,,,,,,,,,AMNE07.jpg,AMSA04.jpg,AMSA15.jpg,AMNE15.jpg,AMSA04.jpg,MS,2,num_6,16,num_6,0.516769682756,,,2017_May_02_1656,60.000942951,MAFE4ImagesEEG,001,100281,
AMSA21.JPG,AMNE22.JPG,AMNE21.JPG,AMSA23.JPG,AMSA22.JPG,AMNE23.JPG,,,,,,,,,0,2,2,1,,,,,,,,,,,,,,,AMSA19.jpg,AMSA13.jpg,AMNE07.jpg,AMNE18.jpg,AMSA19.jpg,MS,2,num_8,32,num_4,2.04970301152,,,2017_May_02_1656,60.000942951,MAFE4ImagesEEG,001,100281,
AMSA21.JPG,AMNE23.JPG,AMNE21.JPG,AMSA25.JPG,AMNE25.JPG,AMSA23.JPG,,,,,,,,,0,3,3,5,,,,,,,,,,,,,,,AMNE02.jpg,AMSA10.jpg,AMSA18.jpg,AMNE18.jpg,AMNE18.jpg,MN,1,num_4,16,num_4,1.15010717488,,,2017_May_02_1656,60.000942951,MAFE4ImagesEEG,001,100281,
AMNE22.JPG,AMSA24.JPG,AMSA22.JPG,AMNE25.JPG,AMNE24.JPG,AMSA25.JPG,,,,,,,,,0,4,4,7,,,,,,,,,,,,,,,AMSA02.jpg,AMNE01.jpg,AMNE07.jpg,AMSA10.jpg,AMSA02.jpg,MS,2,num_8,16,num_8,0.683452012017,,,2017_May_02_1656,60.000942951,MAFE4ImagesEEG,001,100281,
AMNE23.JPG,AMNE24.JPG,AMNE22.JPG,AMSA24.JPG,AMSA22.JPG,AMSA23.JPG,,,,,,,,,0,5,5,9,,,,,,,,,,,,,,,AMNE12.jpg,AMNE01.jpg,AMSA18.jpg,AMSA11.jpg,AMSA11.jpg,MS,2,num_4,16,num_4,0.550157338614,,,2017_May_02_1656,60.000942951,MAFE4ImagesEEG,001,100281,
AFSA21.JPG,AFNE23.JPG,AFNE21.JPG,AFSA25.JPG,AFNE25.JPG,AFSA23.JPG,,,,,,,,,0,6,6,4,,,,,,,,,,,,,,,AMNE02.jpg,AMSA07.jpg,AMNE08.jpg,AMSA04.jpg,AMNE08.jpg,MN,1,num_2,16,num_2,1.91664985451,,,2017_May_02_1656,60.000942951,MAFE4ImagesEEG,001,100281,
AFSA21.JPG,AFNE22.JPG,AFNE21.JPG,AFSA23.JPG,AFSA22.JPG,AFNE23.JPG,,,,,,,,,0,7,7,0,,,,,,,,,,,,,,,AMNE11.jpg,AMNE20.jpg,AMSA03.jpg,AMSA05.jpg,AMSA05.jpg,MS,2,num_4,16,num_4,0.866753437323,,,2017_May_02_1656,60.000942951,MAFE4ImagesEEG,001,100281,
AFSA25.JPG,AFNE24.JPG,AFSA24.JPG,AFNE21.JPG,AFSA21.JPG,AFNE25.JPG,,,,,,,,,0,8,8,2,,,,,,,,,,,,,,,AMSA12.jpg,AMSA02.jpg,AMNE16.jpg,AMNE07.jpg,AMSA12.jpg,MS,2,num_8,32,num_2,1.06669063657,,,2017_May_02_1656,60.000942951,MAFE4ImagesEEG,001,100281,
AFNE23.JPG,AFNE24.JPG,AFNE22.JPG,AFSA24.JPG,AFSA22.JPG,AFSA23.JPG,,,,,,,,,0,9,9,8,,,,,,,,,,,,,,,AMSA01.jpg,AMSA05.jpg,AMNE12.jpg,AMNE14.jpg,AMNE12.jpg,MN,1,num_2,32,num_4,1.23320778552,,,2017_May_02_1656,60.000942951,MAFE4ImagesEEG,001,100281,
AMNE22.JPG,AMSA24.JPG,AMSA22.JPG,AMNE25.JPG,AMNE24.JPG,AMSA25.JPG,,,,,,,,,,,,,0,0,0,7,,,,,,,,,,,AFSA20.jpg,AFNE07.jpg,AFNE20.jpg,AFSA08.jpg,AFSA20.jpg,FS,4,num_8,32,num_6,1.24979512789,,,2017_May_02_1656,60.000942951,MAFE4ImagesEEG,001,100281,
AFSA21.JPG,AFNE22.JPG,AFNE21.JPG,AFSA23.JPG,AFSA22.JPG,AFNE23.JPG,,,,,,,,,,,,,0,1,1,0,,,,,,,,,,,AFSA05.jpg,AFNE05.jpg,AFSA04.jpg,AFNE01.jpg,AFNE05.jpg,FN,3,num_6,32,num_4,0.899993553292,,,2017_May_02_1656,60.000942951,MAFE4ImagesEEG,001,100281,
AMNE23.JPG,AMNE24.JPG,AMNE22.JPG,AMSA24.JPG,AMSA22.JPG,AMSA23.JPG,,,,,,,,,,,,,0,2,2,9,,,,,,,,,,,AFSA20.jpg,AFSA07.jpg,AFNE08.jpg,AFNE06.jpg,AFNE06.jpg,FN,3,num_4,32,num_6,0.850152302999,,,2017_May_02_1656,60.000942951,MAFE4ImagesEEG,001,100281,
AFNE22.JPG,AFSA24.JPG,AFSA22.JPG,AFNE25.JPG,AFNE24.JPG,AFSA25.JPG,,,,,,,,,,,,,0,3,3,6,,,,,,,,,,,AFNE07.jpg,AFNE20.jpg,AFSA18.jpg,AFSA04.jpg,AFSA18.jpg,FS,4,num_2,32,num_4,0.983171782456,,,2017_May_02_1656,60.000942951,MAFE4ImagesEEG,001,100281,
AFSA25.JPG,AFNE24.JPG,AFSA24.JPG,AFNE21.JPG,AFSA21.JPG,AFNE25.JPG,,,,,,,,,,,,,0,4,4,2,,,,,,,,,,,AFNE04.jpg,AFSA17.jpg,AFNE06.jpg,AFSA04.jpg,AFSA17.jpg,FS,4,num_6,32,num_2,1.41678697057,,,2017_May_02_1656,60.000942951,MAFE4ImagesEEG,001,100281,
AMSA21.JPG,AMNE23.JPG,AMNE21.JPG,AMSA25.JPG,AMNE25.JPG,AMSA23.JPG,,,,,,,,,,,,,0,5,5,5,,,,,,,,,,,AFSA04.jpg,AFNE12.jpg,AFNE19.jpg,AFSA10.jpg,AFSA04.jpg,FS,4,num_8,32,num_4,1.40001680679,,,2017_May_02_1656,60.000942951,MAFE4ImagesEEG,001,100281,
AMSA25.JPG,AMNE24.JPG,AMSA24.JPG,AMNE26.JPG,AMSA21.JPG,AMNE25.JPG,,,,,,,,,,,,,0,6,6,3,,,,,,,,,,,AFNE17.jpg,AFNE02.jpg,AFSA18.jpg,AFSA06.jpg,AFSA06.jpg,FS,4,num_4,32,num_2,1.80031490163,,,2017_May_02_1656,60.000942951,MAFE4ImagesEEG,001,100281,
AFNE23.JPG,AFNE24.JPG,AFNE22.JPG,AFSA24.JPG,AFSA22.JPG,AFSA23.JPG,,,,,,,,,,,,,0,7,7,8,,,,,,,,,,,AFSA09.jpg,AFSA20.jpg,AFNE03.jpg,AFNE01.jpg,AFNE03.jpg,FN,3,num_2,32,num_4,0.883508526254,,,2017_May_02_1656,60.000942951,MAFE4ImagesEEG,001,100281,
AFSA21.JPG,AFNE23.JPG,AFNE21.JPG,AFSA25.JPG,AFNE25.JPG,AFSA23.JPG,,,,,,,,,,,,,0,8,8,4,,,,,,,,,,,AFNE02.jpg,AFNE14.jpg,AFSA05.jpg,AFSA04.jpg,AFSA04.jpg,FS,4,num_4,16,num_4,1.43340927386,,,2017_May_02_1656,60.000942951,MAFE4ImagesEEG,001,100281,
AMSA21.JPG,AMNE22.JPG,AMNE21.JPG,AMSA23.JPG,AMSA22.JPG,AMNE23.JPG,,,,,,,,,,,,,0,9,9,1,,,,,,,,,,,AFSA07.jpg,AFNE11.jpg,AFSA09.jpg,AFNE03.jpg,AFNE03.jpg,FN,3,num_4,32,num_6,2.81660299469,,,2017_May_02_1656,60.000942951,MAFE4ImagesEEG,001,100281,
AMSA21.JPG,AMNE23.JPG,AMNE21.JPG,AMSA25.JPG,AMNE25.JPG,AMSA23.JPG,,,,,,,,,,,,,,,,,0,0,0,5,,,,,,,AMNE19.jpg,AMNE04.jpg,AMSA16.jpg,AMSA07.jpg,AMSA16.jpg,MS,2,num_2,32,num_6,1.41668305127,,,2017_May_02_1656,60.000942951,MAFE4ImagesEEG,001,100281,
AMNE23.JPG,AMNE24.JPG,AMNE22.JPG,AMSA24.JPG,AMSA22.JPG,AMSA23.JPG,,,,,,,,,,,,,,,,,0,1,1,9,,,,,,,AMNE14.jpg,AMNE01.jpg,AMSA03.jpg,AMSA11.jpg,AMSA11.jpg,MS,2,num_4,32,num_2,0.883454642259,,,2017_May_02_1656,60.000942951,MAFE4ImagesEEG,001,100281,
AMNE22.JPG,AMSA24.JPG,AMSA22.JPG,AMNE25.JPG,AMNE24.JPG,AMSA25.JPG,,,,,,,,,,,,,,,,,0,2,2,7,,,,,,,AMSA14.jpg,AMSA09.jpg,AMNE03.jpg,AMNE10.jpg,AMSA14.jpg,MS,2,num_8,32,num_4,1.46674176236,,,2017_May_02_1656,60.000942951,MAFE4ImagesEEG,001,100281,
AMSA21.JPG,AMNE22.JPG,AMNE21.JPG,AMSA23.JPG,AMSA22.JPG,AMNE23.JPG,,,,,,,,,,,,,,,,,0,3,3,1,,,,,,,AMSA08.jpg,AMNE01.jpg,AMNE14.jpg,AMSA01.jpg,AMSA01.jpg,MS,2,num_4,16,num_4,0.499861601274,,,2017_May_02_1656,60.000942951,MAFE4ImagesEEG,001,100281,
AFNE22.JPG,AFSA24.JPG,AFSA22.JPG,AFNE25.JPG,AFNE24.JPG,AFSA25.JPG,,,,,,,,,,,,,,,,,0,4,4,6,,,,,,,AMNE09.jpg,AMSA03.jpg,AMSA04.jpg,AMNE07.jpg,AMNE07.jpg,MN,1,num_4,32,num_6,1.15012738155,,,2017_May_02_1656,60.000942951,MAFE4ImagesEEG,001,100281,
AFSA25.JPG,AFNE24.JPG,AFSA24.JPG,AFNE21.JPG,AFSA21.JPG,AFNE25.JPG,,,,,,,,,,,,,,,,,0,5,5,2,,,,,,,AMNE10.jpg,AMNE04.jpg,AMSA09.jpg,AMSA03.jpg,AMNE10.jpg,MN,1,num_8,16,num_8,0.900084322318,,,2017_May_02_1656,60.000942951,MAFE4ImagesEEG,001,100281,
AFSA21.JPG,AFNE23.JPG,AFNE21.JPG,AFSA25.JPG,AFNE25.JPG,AFSA23.JPG,,,,,,,,,,,,,,,,,0,6,6,4,,,,,,,AMSA06.jpg,AMNE13.jpg,AMSA17.jpg,AMNE19.jpg,AMNE19.jpg,MN,1,num_4,16,num_4,1.25003087125,,,2017_May_02_1656,60.000942951,MAFE4ImagesEEG,001,100281,
AFSA21.JPG,AFNE22.JPG,AFNE21.JPG,AFSA23.JPG,AFSA22.JPG,AFNE23.JPG,,,,,,,,,,,,,,,,,0,7,7,0,,,,,,,AMNE15.jpg,AMSA14.jpg,AMSA19.jpg,AMNE05.jpg,AMNE05.jpg,MN,1,num_4,16,num_4,0.833435381996,,,2017_May_02_1656,60.000942951,MAFE4ImagesEEG,001,100281,
AFNE23.JPG,AFNE24.JPG,AFNE22.JPG,AFSA24.JPG,AFSA22.JPG,AFSA23.JPG,,,,,,,,,,,,,,,,,0,8,8,8,,,,,,,AMNE14.jpg,AMSA19.jpg,AMSA09.jpg,AMNE12.jpg,AMSA19.jpg,MS,2,num_6,32,num_2,1.10008983896,,,2017_May_02_1656,60.000942951,MAFE4ImagesEEG,001,100281,
AMSA25.JPG,AMNE24.JPG,AMSA24.JPG,AMNE26.JPG,AMSA21.JPG,AMNE25.JPG,,,,,,,,,,,,,,,,,0,9,9,3,,,,,,,AMNE01.jpg,AMSA13.jpg,AMNE05.jpg,AMSA08.jpg,AMSA13.jpg,MS,2,num_6,32,num_4,1.0334479548,,,2017_May_02_1656,60.000942951,MAFE4ImagesEEG,001,100281,
AMNE22.JPG,AMSA24.JPG,AMSA22.JPG,AMNE25.JPG,AMNE24.JPG,AMSA25.JPG,,,,,,,,,,,,,,,,,,,,,0,0,0,7,,,AFNE19.jpg,AFSA10.jpg,AFNE08.jpg,AFSA18.jpg,AFSA18.jpg,FS,4,num_4,32,num_2,0.850126323057,,,2017_May_02_1656,60.000942951,MAFE4ImagesEEG,001,100281,
AFNE22.JPG,AFSA24.JPG,AFSA22.JPG,AFNE25.JPG,AFNE24.JPG,AFSA25.JPG,,,,,,,,,,,,,,,,,,,,,0,1,1,6,,,AFSA07.jpg,AFNE01.jpg,AFSA09.jpg,AFNE17.jpg,AFSA07.jpg,FS,4,num_8,32,num_4,0.833478360903,,,2017_May_02_1656,60.000942951,MAFE4ImagesEEG,001,100281,
AFSA21.JPG,AFNE22.JPG,AFNE21.JPG,AFSA23.JPG,AFSA22.JPG,AFNE23.JPG,,,,,,,,,,,,,,,,,,,,,0,2,2,0,,,AFNE19.jpg,AFNE04.jpg,AFSA14.jpg,AFSA04.jpg,AFNE04.jpg,FN,3,num_6,32,num_8,2.01660819072,,,2017_May_02_1656,60.000942951,MAFE4ImagesEEG,001,100281,
AMSA21.JPG,AMNE22.JPG,AMNE21.JPG,AMSA23.JPG,AMSA22.JPG,AMNE23.JPG,,,,,,,,,,,,,,,,,,,,,0,3,3,1,,,AFNE11.jpg,AFSA07.jpg,AFNE07.jpg,AFSA09.jpg,AFSA09.jpg,FS,4,num_4,32,num_6,1.04999680864,,,2017_May_02_1656,60.000942951,MAFE4ImagesEEG,001,100281,
AMSA25.JPG,AMNE24.JPG,AMSA24.JPG,AMNE26.JPG,AMSA21.JPG,AMNE25.JPG,,,,,,,,,,,,,,,,,,,,,0,4,4,3,,,AFNE18.jpg,AFSA11.jpg,AFNE09.jpg,AFSA03.jpg,AFNE18.jpg,FN,3,num_8,32,num_4,0.783471288625,,,2017_May_02_1656,60.000942951,MAFE4ImagesEEG,001,100281,
AFNE23.JPG,AFNE24.JPG,AFNE22.JPG,AFSA24.JPG,AFSA22.JPG,AFSA23.JPG,,,,,,,,,,,,,,,,,,,,,0,5,5,8,,,AFSA03.jpg,AFNE07.jpg,AFNE12.jpg,AFSA09.jpg,AFSA09.jpg,FS,4,num_4,32,num_6,1.33341116598,,,2017_May_02_1656,60.000942951,MAFE4ImagesEEG,001,100281,
AMSA21.JPG,AMNE23.JPG,AMNE21.JPG,AMSA25.JPG,AMNE25.JPG,AMSA23.JPG,,,,,,,,,,,,,,,,,,,,,0,6,6,5,,,AFNE19.jpg,AFNE02.jpg,AFSA10.jpg,AFSA02.jpg,AFSA10.jpg,FS,4,num_2,32,num_4,1.4333954819,,,2017_May_02_1656,60.000942951,MAFE4ImagesEEG,001,100281,
AMNE23.JPG,AMNE24.JPG,AMNE22.JPG,AMSA24.JPG,AMSA22.JPG,AMSA23.JPG,,,,,,,,,,,,,,,,,,,,,0,7,7,9,,,AFSA11.jpg,AFNE01.jpg,AFNE06.jpg,AFSA17.jpg,AFNE01.jpg,FN,3,num_6,32,num_8,1.25047349092,,,2017_May_02_1656,60.000942951,MAFE4ImagesEEG,001,100281,
AFSA25.JPG,AFNE24.JPG,AFSA24.JPG,AFNE21.JPG,AFSA21.JPG,AFNE25.JPG,,,,,,,,,,,,,,,,,,,,,0,8,8,2,,,AFNE16.jpg,AFSA05.jpg,AFNE14.jpg,AFSA20.jpg,AFNE16.jpg,FN,3,num_8,32,num_2,1.28343360173,,,2017_May_02_1656,60.000942951,MAFE4ImagesEEG,001,100281,
AFSA21.JPG,AFNE23.JPG,AFNE21.JPG,AFSA25.JPG,AFNE25.JPG,AFSA23.JPG,,,,,,,,,,,,,,,,,,,,,0,9,9,4,,,AFSA05.jpg,AFNE02.jpg,AFSA08.jpg,AFNE19.jpg,AFNE19.jpg,FN,3,num_4,32,num_8,3.13329339051,,,2017_May_02_1656,60.000942951,MAFE4ImagesEEG,001,100281,
,,,,,,,,,,,,,,,,,,,,,,,,,,,,,,,,,,,,,,,,,,,space,17.2321005941,2017_May_02_1656,60.000942951,MAFE4ImagesEEG,001,100281,
AFNE01.JPG,AFNE01.JPG,AFNE01.JPG,AFNE01.JPG,AFNE01.JPG,AFNE01.JPG,0,0,0,1,,,,,,,,,,,,,,,,,,,,,,,AMNE03.jpg,AMNE02.jpg,AMSA04.jpg,AMSA06.jpg,AMSA06.jpg,MS,2,num_4,16,num_4,1.01672782633,,,2017_May_02_1656,60.000942951,MAFE4ImagesEEG,001,100281,
AFNE01.JPG,AFNE01.JPG,AFNE01.JPG,AFNE01.JPG,AFNE01.JPG,AFNE01.JPG,0,1,1,7,,,,,,,,,,,,,,,,,,,,,,,AMSA11.jpg,AMNE16.jpg,AMNE15.jpg,AMSA15.jpg,AMSA15.jpg,MS,2,num_4,16,num_4,1.00009525963,,,2017_May_02_1656,60.000942951,MAFE4ImagesEEG,001,100281,
AFNE01.JPG,AFNE01.JPG,AFNE01.JPG,AFNE01.JPG,AFNE01.JPG,AFNE01.JPG,0,2,2,6,,,,,,,,,,,,,,,,,,,,,,,AMSA04.jpg,AMSA08.jpg,AMNE15.jpg,AMNE13.jpg,AMNE13.jpg,MN,1,num_4,32,num_2,0.983445372898,,,2017_May_02_1656,60.000942951,MAFE4ImagesEEG,001,100281,
AFNE01.JPG,AFNE01.JPG,AFNE01.JPG,AFNE01.JPG,AFNE01.JPG,AFNE01.JPG,0,3,3,4,,,,,,,,,,,,,,,,,,,,,,,AMSA18.jpg,AMNE08.jpg,AMSA17.jpg,AMNE12.jpg,AMSA17.jpg,MS,2,num_2,16,num_2,1.26679045078,,,2017_May_02_1656,60.000942951,MAFE4ImagesEEG,001,100281,
AFNE01.JPG,AFNE01.JPG,AFNE01.JPG,AFNE01.JPG,AFNE01.JPG,AFNE01.JPG,0,4,4,5,,,,,,,,,,,,,,,,,,,,,,,AMNE13.jpg,AMNE17.jpg,AMSA10.jpg,AMSA14.jpg,AMSA14.jpg,MS,2,num_4,32,num_2,2.76659880881,,,2017_May_02_1656,60.000942951,MAFE4ImagesEEG,001,100281,
AFNE01.JPG,AFNE01.JPG,AFNE01.JPG,AFNE01.JPG,AFNE01.JPG,AFNE01.JPG,0,5,5,0,,,,,,,,,,,,,,,,,,,,,,,AMSA06.jpg,AMNE09.jpg,AMNE04.jpg,AMSA15.jpg,AMSA06.jpg,MS,2,num_8,32,num_2,1.31674877042,,,2017_May_02_1656,60.000942951,MAFE4ImagesEEG,001,100281,
AFNE01.JPG,AFNE01.JPG,AFNE01.JPG,AFNE01.JPG,AFNE01.JPG,AFNE01.JPG,0,6,6,3,,,,,,,,,,,,,,,,,,,,,,,AMSA16.jpg,AMNE09.jpg,AMNE06.jpg,AMSA09.jpg,AMSA16.jpg,MS,2,num_8,32,num_6,0.916729397839,,,2017_May_02_1656,60.000942951,MAFE4ImagesEEG,001,100281,
AFNE01.JPG,AFNE01.JPG,AFNE01.JPG,AFNE01.JPG,AFNE01.JPG,AFNE01.JPG,0,7,7,8,,,,,,,,,,,,,,,,,,,,,,,AMNE17.jpg,AMSA06.jpg,AMSA09.jpg,AMNE10.jpg,AMSA06.jpg,MS,2,num_6,32,num_8,1.01673456165,,,2017_May_02_1656,60.000942951,MAFE4ImagesEEG,001,100281,
AFNE01.JPG,AFNE01.JPG,AFNE01.JPG,AFNE01.JPG,AFNE01.JPG,AFNE01.JPG,0,8,8,9,,,,,,,,,,,,,,,,,,,,,,,AMNE01.jpg,AMSA17.jpg,AMSA14.jpg,AMNE18.jpg,AMNE01.jpg,MN,1,num_8,32,num_2,2.98327858862,,,2017_May_02_1656,60.000942951,MAFE4ImagesEEG,001,100281,
AFNE01.JPG,AFNE01.JPG,AFNE01.JPG,AFNE01.JPG,AFNE01.JPG,AFNE01.JPG,0,9,9,2,,,,,,,,,,,,,,,,,,,,,,,AMNE18.jpg,AMSA14.jpg,AMNE14.jpg,AMSA11.jpg,AMNE14.jpg,MN,1,num_2,32,num_4,1.56672030478,,,2017_May_02_1656,60.000942951,MAFE4ImagesEEG,001,100281,
AFNE01.JPG,AFNE01.JPG,AFNE01.JPG,AFNE01.JPG,AFNE01.JPG,AFNE01.JPG,1,0,10,1,,,,,,,,,,,,,,,,,,,,,,,AMNE03.jpg,AMSA09.jpg,AMNE16.jpg,AMSA16.jpg,AMNE03.jpg,MN,1,num_8,32,num_6,0.716757558752,,,2017_May_02_1656,60.000942951,MAFE4ImagesEEG,001,100281,
AFNE01.JPG,AFNE01.JPG,AFNE01.JPG,AFNE01.JPG,AFNE01.JPG,AFNE01.JPG,1,1,11,4,,,,,,,,,,,,,,,,,,,,,,,AMNE07.jpg,AMSA07.jpg,AMSA20.jpg,AMNE20.jpg,AMSA07.jpg,MS,2,num_6,16,num_6,1.93334785197,,,2017_May_02_1656,60.000942951,MAFE4ImagesEEG,001,100281,
AFNE01.JPG,AFNE01.JPG,AFNE01.JPG,AFNE01.JPG,AFNE01.JPG,AFNE01.JPG,1,2,12,7,,,,,,,,,,,,,,,,,,,,,,,AMNE19.jpg,AMNE17.jpg,AMSA14.jpg,AMSA19.jpg,AMNE19.jpg,MN,1,num_8,32,num_4,0.733457801398,,,2017_May_02_1656,60.000942951,MAFE4ImagesEEG,001,100281,
AFNE01.JPG,AFNE01.JPG,AFNE01.JPG,AFNE01.JPG,AFNE01.JPG,AFNE01.JPG,1,3,13,0,,,,,,,,,,,,,,,,,,,,,,,AMNE20.jpg,AMSA05.jpg,AMSA16.jpg,AMNE07.jpg,AMSA16.jpg,MS,2,num_2,16,num_2,1.01675990014,,,2017_May_02_1656,60.000942951,MAFE4ImagesEEG,001,100281,
AFNE01.JPG,AFNE01.JPG,AFNE01.JPG,AFNE01.JPG,AFNE01.JPG,AFNE01.JPG,1,4,14,9,,,,,,,,,,,,,,,,,,,,,,,AMNE14.jpg,AMSA02.jpg,AMNE09.jpg,AMSA17.jpg,AMSA02.jpg,MS,2,num_6,32,num_4,1.28344065789,,,2017_May_02_1656,60.000942951,MAFE4ImagesEEG,001,100281,
AFNE01.JPG,AFNE01.JPG,AFNE01.JPG,AFNE01.JPG,AFNE01.JPG,AFNE01.JPG,1,5,15,8,,,,,,,,,,,,,,,,,,,,,,,AMNE17.jpg,AMSA20.jpg,AMNE09.jpg,AMSA06.jpg,AMNE09.jpg,MN,1,num_2,32,num_4,1.05011067097,,,2017_May_02_1656,60.000942951,MAFE4ImagesEEG,001,100281,
AFNE01.JPG,AFNE01.JPG,AFNE01.JPG,AFNE01.JPG,AFNE01.JPG,AFNE01.JPG,1,6,16,2,,,,,,,,,,,,,,,,,,,,,,,AMNE19.jpg,AMSA06.jpg,AMNE03.jpg,AMSA03.jpg,AMNE19.jpg,MN,1,num_8,32,num_2,1.55007138033,,,2017_May_02_1656,60.000942951,MAFE4ImagesEEG,001,100281,
AFNE01.JPG,AFNE01.JPG,AFNE01.JPG,AFNE01.JPG,AFNE01.JPG,AFNE01.JPG,1,7,17,3,,,,,,,,,,,,,,,,,,,,,,,AMSA11.jpg,AMNE10.jpg,AMNE14.jpg,AMSA10.jpg,AMNE14.jpg,MN,1,num_2,32,num_4,2.5333432334,,,2017_May_02_1656,60.000942951,MAFE4ImagesEEG,001,100281,
AFNE01.JPG,AFNE01.JPG,AFNE01.JPG,AFNE01.JPG,AFNE01.JPG,AFNE01.JPG,1,8,18,6,,,,,,,,,,,,,,,,,,,,,,,AMSA03.jpg,AMNE01.jpg,AMNE13.jpg,AMSA10.jpg,AMSA03.jpg,MS,2,num_8,32,num_4,1.33339384617,,,2017_May_02_1656,60.000942951,MAFE4ImagesEEG,001,100281,
AFNE01.JPG,AFNE01.JPG,AFNE01.JPG,AFNE01.JPG,AFNE01.JPG,AFNE01.JPG,1,9,19,5,,,,,,,,,,,,,,,,,,,,,,,AMNE13.jpg,AMSA03.jpg,AMSA18.jpg,AMNE15.jpg,AMNE13.jpg,MN,1,num_8,16,num_8,1.83334525395,,,2017_May_02_1656,60.000942951,MAFE4ImagesEEG,001,100281,
AFNE01.JPG,AFNE01.JPG,AFNE01.JPG,AFNE01.JPG,AFNE01.JPG,AFNE01.JPG,2,0,20,6,,,,,,,,,,,,,,,,,,,,,,,AMNE01.jpg,AMSA08.jpg,AMNE03.jpg,AMSA12.jpg,AMNE01.jpg,MN,1,num_8,32,num_4,1.1834390224,,,2017_May_02_1656,60.000942951,MAFE4ImagesEEG,001,100281,
AFNE01.JPG,AFNE01.JPG,AFNE01.JPG,AFNE01.JPG,AFNE01.JPG,AFNE01.JPG,2,1,21,3,,,,,,,,,,,,,,,,,,,,,,,AMSA08.jpg,AMNE06.jpg,AMNE20.jpg,AMSA05.jpg,AMSA08.jpg,MS,2,num_8,32,num_4,0.899970459985,,,2017_May_02_1656,60.000942951,MAFE4ImagesEEG,001,100281,
AFNE01.JPG,AFNE01.JPG,AFNE01.JPG,AFNE01.JPG,AFNE01.JPG,AFNE01.JPG,2,2,22,9,,,,,,,,,,,,,,,,,,,,,,,AMSA02.jpg,AMNE09.jpg,AMNE06.jpg,AMSA01.jpg,AMSA01.jpg,MS,2,num_4,32,num_2,1.43337559607,,,2017_May_02_1656,60.000942951,MAFE4ImagesEEG,001,100281,
AFNE01.JPG,AFNE01.JPG,AFNE01.JPG,AFNE01.JPG,AFNE01.JPG,AFNE01.JPG,2,3,23,4,,,,,,,,,,,,,,,,,,,,,,,AMNE02.jpg,AMSA11.jpg,AMNE11.jpg,AMSA14.jpg,AMNE02.jpg,MN,1,num_8,32,num_4,1.35012455913,,,2017_May_02_1656,60.000942951,MAFE4ImagesEEG,001,100281,
AFNE01.JPG,AFNE01.JPG,AFNE01.JPG,AFNE01.JPG,AFNE01.JPG,AFNE01.JPG,2,4,24,7,,,,,,,,,,,,,,,,,,,,,,,AMSA20.jpg,AMNE13.jpg,AMNE11.jpg,AMSA08.jpg,AMSA08.jpg,MS,2,num_4,16,num_4,0.800131438999,,,2017_May_02_1656,60.000942951,MAFE4ImagesEEG,001,100281,
AFNE01.JPG,AFNE01.JPG,AFNE01.JPG,AFNE01.JPG,AFNE01.JPG,AFNE01.JPG,2,5,25,2,,,,,,,,,,,,,,,,,,,,,,,AMSA05.jpg,AMSA13.jpg,AMNE14.jpg,AMNE20.jpg,AMSA13.jpg,MS,2,num_6,16,num_6,0.483501983341,,,2017_May_02_1656,60.000942951,MAFE4ImagesEEG,001,100281,
AFNE01.JPG,AFNE01.JPG,AFNE01.JPG,AFNE01.JPG,AFNE01.JPG,AFNE01.JPG,2,6,26,8,,,,,,,,,,,,,,,,,,,,,,,AMSA13.jpg,AMSA03.jpg,AMNE06.jpg,AMNE03.jpg,AMNE06.jpg,MN,1,num_2,32,num_4,0.683508141432,,,2017_May_02_1656,60.000942951,MAFE4ImagesEEG,001,100281,
AFNE01.JPG,AFNE01.JPG,AFNE01.JPG,AFNE01.JPG,AFNE01.JPG,AFNE01.JPG,2,7,27,1,,,,,,,,,,,,,,,,,,,,,,,AMSA07.jpg,AMNE11.jpg,AMNE09.jpg,AMSA01.jpg,AMNE11.jpg,MN,1,num_6,32,num_4,1.15007638396,,,2017_May_02_1656,60.000942951,MAFE4ImagesEEG,001,100281,
AFNE01.JPG,AFNE01.JPG,AFNE01.JPG,AFNE01.JPG,AFNE01.JPG,AFNE01.JPG,2,8,28,5,,,,,,,,,,,,,,,,,,,,,,,AMNE01.jpg,AMSA02.jpg,AMSA01.jpg,AMNE18.jpg,AMSA02.jpg,MS,2,num_6,16,num_6,1.65004671575,,,2017_May_02_1656,60.000942951,MAFE4ImagesEEG,001,100281,
AFNE01.JPG,AFNE01.JPG,AFNE01.JPG,AFNE01.JPG,AFNE01.JPG,AFNE01.JPG,2,9,29,0,,,,,,,,,,,,,,,,,,,,,,,AMNE08.jpg,AMSA09.jpg,AMSA04.jpg,AMNE05.jpg,AMSA09.jpg,MS,2,num_6,32,num_2,1.20007800381,,,2017_May_02_1656,60.000942951,MAFE4ImagesEEG,001,100281,
AFNE01.JPG,AFNE01.JPG,AFNE01.JPG,AFNE01.JPG,AFNE01.JPG,AFNE01.JPG,3,0,30,0,,,,,,,,,,,,,,,,,,,,,,,AMNE01.jpg,AMNE13.jpg,AMSA15.jpg,AMSA18.jpg,AMSA18.jpg,MS,2,num_4,16,num_4,1.23341209604,,,2017_May_02_1656,60.000942951,MAFE4ImagesEEG,001,100281,
AFNE01.JPG,AFNE01.JPG,AFNE01.JPG,AFNE01.JPG,AFNE01.JPG,AFNE01.JPG,3,1,31,7,,,,,,,,,,,,,,,,,,,,,,,AMNE12.jpg,AMNE17.jpg,AMSA01.jpg,AMSA13.jpg,AMSA13.jpg,MS,2,num_4,16,num_4,0.683451049961,,,2017_May_02_1656,60.000942951,MAFE4ImagesEEG,001,100281,
AFNE01.JPG,AFNE01.JPG,AFNE01.JPG,AFNE01.JPG,AFNE01.JPG,AFNE01.JPG,3,2,32,3,,,,,,,,,,,,,,,,,,,,,,,AMSA16.jpg,AMNE03.jpg,AMNE20.jpg,AMSA13.jpg,AMNE03.jpg,MN,1,num_6,32,num_4,1.35009120218,,,2017_May_02_1656,60.000942951,MAFE4ImagesEEG,001,100281,
AFNE01.JPG,AFNE01.JPG,AFNE01.JPG,AFNE01.JPG,AFNE01.JPG,AFNE01.JPG,3,3,33,6,,,,,,,,,,,,,,,,,,,,,,,AMSA18.jpg,AMNE08.jpg,AMSA04.jpg,AMNE07.jpg,AMSA18.jpg,MS,2,num_8,32,num_2,1.28343392257,,,2017_May_02_1656,60.000942951,MAFE4ImagesEEG,001,100281,
AFNE01.JPG,AFNE01.JPG,AFNE01.JPG,AFNE01.JPG,AFNE01.JPG,AFNE01.JPG,3,4,34,4,,,,,,,,,,,,,,,,,,,,,,,AMSA13.jpg,AMNE14.jpg,AMSA20.jpg,AMNE09.jpg,AMSA13.jpg,MS,2,num_8,32,num_4,0.950188578572,,,2017_May_02_1656,60.000942951,MAFE4ImagesEEG,001,100281,
AFNE01.JPG,AFNE01.JPG,AFNE01.JPG,AFNE01.JPG,AFNE01.JPG,AFNE01.JPG,3,5,35,9,,,,,,,,,,,,,,,,,,,,,,,AMSA05.jpg,AMNE05.jpg,AMSA11.jpg,AMNE18.jpg,AMNE05.jpg,MN,1,num_6,32,num_4,1.36672312743,,,2017_May_02_1656,60.000942951,MAFE4ImagesEEG,001,100281,
AFNE01.JPG,AFNE01.JPG,AFNE01.JPG,AFNE01.JPG,AFNE01.JPG,AFNE01.JPG,3,6,36,1,,,,,,,,,,,,,,,,,,,,,,,AMNE18.jpg,AMSA19.jpg,AMNE06.jpg,AMSA18.jpg,AMNE06.jpg,MN,1,num_2,32,num_8,1.01670890278,,,2017_May_02_1656,60.000942951,MAFE4ImagesEEG,001,100281,
AFNE01.JPG,AFNE01.JPG,AFNE01.JPG,AFNE01.JPG,AFNE01.JPG,AFNE01.JPG,3,7,37,8,,,,,,,,,,,,,,,,,,,,,,,AMNE11.jpg,AMNE17.jpg,AMSA18.jpg,AMSA15.jpg,AMNE17.jpg,MN,1,num_6,32,num_4,0.85013979394,,,2017_May_02_1656,60.000942951,MAFE4ImagesEEG,001,100281,
AFNE01.JPG,AFNE01.JPG,AFNE01.JPG,AFNE01.JPG,AFNE01.JPG,AFNE01.JPG,3,8,38,5,,,,,,,,,,,,,,,,,,,,,,,AMNE17.jpg,AMSA02.jpg,AMNE02.jpg,AMSA07.jpg,AMNE17.jpg,MN,1,num_8,16,num_8,1.33339577052,,,2017_May_02_1656,60.000942951,MAFE4ImagesEEG,001,100281,
AFNE01.JPG,AFNE01.JPG,AFNE01.JPG,AFNE01.JPG,AFNE01.JPG,AFNE01.JPG,3,9,39,2,,,,,,,,,,,,,,,,,,,,,,,AMNE05.jpg,AMSA19.jpg,AMSA02.jpg,AMNE20.jpg,AMNE20.jpg,MN,1,num_4,16,num_4,1.1000827828,,,2017_May_02_1656,60.000942951,MAFE4ImagesEEG,001,100281,
AFNE01.JPG,AFNE01.JPG,AFNE01.JPG,AFNE01.JPG,AFNE01.JPG,AFNE01.JPG,4,0,40,1,,,,,,,,,,,,,,,,,,,,,,,AMNE19.jpg,AMNE12.jpg,AMSA15.jpg,AMSA14.jpg,AMNE12.jpg,MN,1,num_6,32,num_2,1.33347210637,,,2017_May_02_1656,60.000942951,MAFE4ImagesEEG,001,100281,
AFNE01.JPG,AFNE01.JPG,AFNE01.JPG,AFNE01.JPG,AFNE01.JPG,AFNE01.JPG,4,1,41,0,,,,,,,,,,,,,,,,,,,,,,,AMNE04.jpg,AMSA02.jpg,AMSA16.jpg,AMNE13.jpg,AMSA02.jpg,MS,2,num_6,16,num_6,0.866719438927,,,2017_May_02_1656,60.000942951,MAFE4ImagesEEG,001,100281,
AFNE01.JPG,AFNE01.JPG,AFNE01.JPG,AFNE01.JPG,AFNE01.JPG,AFNE01.JPG,4,2,42,9,,,,,,,,,,,,,,,,,,,,,,,AMSA19.jpg,AMNE11.jpg,AMNE19.jpg,AMSA03.jpg,AMSA03.jpg,MS,2,num_4,16,num_4,0.766796704847,,,2017_May_02_1656,60.000942951,MAFE4ImagesEEG,001,100281,
AFNE01.JPG,AFNE01.JPG,AFNE01.JPG,AFNE01.JPG,AFNE01.JPG,AFNE01.JPG,4,3,43,7,,,,,,,,,,,,,,,,,,,,,,,AMNE03.jpg,AMSA20.jpg,AMSA07.jpg,AMNE01.jpg,AMSA07.jpg,MS,2,num_2,16,num_2,1.06676248205,,,2017_May_02_1656,60.000942951,MAFE4ImagesEEG,001,100281,
AFNE01.JPG,AFNE01.JPG,AFNE01.JPG,AFNE01.JPG,AFNE01.JPG,AFNE01.JPG,4,4,44,6,,,,,,,,,,,,,,,,,,,,,,,AMSA11.jpg,AMNE01.jpg,AMSA17.jpg,AMNE12.jpg,AMSA11.jpg,MS,2,num_8,16,num_8,0.700132369064,,,2017_May_02_1656,60.000942951,MAFE4ImagesEEG,001,100281,
AFNE01.JPG,AFNE01.JPG,AFNE01.JPG,AFNE01.JPG,AFNE01.JPG,AFNE01.JPG,4,5,45,8,,,,,,,,,,,,,,,,,,,,,,,AMSA06.jpg,AMNE06.jpg,AMSA07.jpg,AMNE16.jpg,AMSA06.jpg,MS,2,num_8,32,num_4,0.966717225965,,,2017_May_02_1656,60.000942951,MAFE4ImagesEEG,001,100281,
AFNE01.JPG,AFNE01.JPG,AFNE01.JPG,AFNE01.JPG,AFNE01.JPG,AFNE01.JPG,4,6,46,4,,,,,,,,,,,,,,,,,,,,,,,AMSA14.jpg,AMNE07.jpg,AMNE13.jpg,AMSA06.jpg,AMSA06.jpg,MS,2,num_4,16,num_4,0.916767245159,,,2017_May_02_1656,60.000942951,MAFE4ImagesEEG,001,100281,
AFNE01.JPG,AFNE01.JPG,AFNE01.JPG,AFNE01.JPG,AFNE01.JPG,AFNE01.JPG,4,7,47,5,,,,,,,,,,,,,,,,,,,,,,,AMSA07.jpg,AMNE06.jpg,AMSA18.jpg,AMNE01.jpg,AMSA07.jpg,MS,2,num_8,32,num_6,1.66667575436,,,2017_May_02_1656,60.000942951,MAFE4ImagesEEG,001,100281,
AFNE01.JPG,AFNE01.JPG,AFNE01.JPG,AFNE01.JPG,AFNE01.JPG,AFNE01.JPG,4,8,48,2,,,,,,,,,,,,,,,,,,,,,,,AMSA13.jpg,AMNE05.jpg,AMSA14.jpg,AMNE17.jpg,AMNE05.jpg,MN,1,num_6,32,num_4,1.83337540366,,,2017_May_02_1656,60.000942951,MAFE4ImagesEEG,001,100281,
AFNE01.JPG,AFNE01.JPG,AFNE01.JPG,AFNE01.JPG,AFNE01.JPG,AFNE01.JPG,4,9,49,3,,,,,,,,,,,,,,,,,,,,,,,AMNE18.jpg,AMSA16.jpg,AMSA14.jpg,AMNE02.jpg,AMNE02.jpg,MN,1,num_4,32,num_2,1.30009471439,,,2017_May_02_1656,60.000942951,MAFE4ImagesEEG,001,100281,
AFNE01.JPG,AFNE01.JPG,AFNE01.JPG,AFNE01.JPG,AFNE01.JPG,AFNE01.JPG,5,0,50,2,,,,,,,,,,,,,,,,,,,,,,,AMNE04.jpg,AMSA07.jpg,AMSA10.jpg,AMNE15.jpg,AMNE04.jpg,MN,1,num_8,32,num_2,1.7500538039,,,2017_May_02_1656,60.000942951,MAFE4ImagesEEG,001,100281,
AFNE01.JPG,AFNE01.JPG,AFNE01.JPG,AFNE01.JPG,AFNE01.JPG,AFNE01.JPG,5,1,51,8,,,,,,,,,,,,,,,,,,,,,,,AMSA18.jpg,AMSA08.jpg,AMNE20.jpg,AMNE05.jpg,AMSA08.jpg,MS,2,num_6,32,num_4,0.883498904062,,,2017_May_02_1656,60.000942951,MAFE4ImagesEEG,001,100281,
AFNE01.JPG,AFNE01.JPG,AFNE01.JPG,AFNE01.JPG,AFNE01.JPG,AFNE01.JPG,5,2,52,7,,,,,,,,,,,,,,,,,,,,,,,AMNE11.jpg,AMNE10.jpg,AMSA11.jpg,AMSA10.jpg,AMSA10.jpg,MS,2,num_4,16,num_4,1.06675350131,,,2017_May_02_1656,60.000942951,MAFE4ImagesEEG,001,100281,
AFNE01.JPG,AFNE01.JPG,AFNE01.JPG,AFNE01.JPG,AFNE01.JPG,AFNE01.JPG,5,3,53,9,,,,,,,,,,,,,,,,,,,,,,,AMNE08.jpg,AMNE09.jpg,AMSA10.jpg,AMSA16.jpg,AMSA10.jpg,MS,2,num_2,32,num_4,1.1166957845,,,2017_May_02_1656,60.000942951,MAFE4ImagesEEG,001,100281,
AFNE01.JPG,AFNE01.JPG,AFNE01.JPG,AFNE01.JPG,AFNE01.JPG,AFNE01.JPG,5,4,54,6,,,,,,,,,,,,,,,,,,,,,,,AMSA12.jpg,AMSA08.jpg,AMNE16.jpg,AMNE09.jpg,AMNE16.jpg,MN,1,num_2,32,num_6,1.41677766922,,,2017_May_02_1656,60.000942951,MAFE4ImagesEEG,001,100281,
AFNE01.JPG,AFNE01.JPG,AFNE01.JPG,AFNE01.JPG,AFNE01.JPG,AFNE01.JPG,5,5,55,4,,,,,,,,,,,,,,,,,,,,,,,AMNE10.jpg,AMSA16.jpg,AMNE03.jpg,AMSA01.jpg,AMSA16.jpg,MS,2,num_6,16,num_6,0.583476035623,,,2017_May_02_1656,60.000942951,MAFE4ImagesEEG,001,100281,
AFNE01.JPG,AFNE01.JPG,AFNE01.JPG,AFNE01.JPG,AFNE01.JPG,AFNE01.JPG,5,6,56,3,,,,,,,,,,,,,,,,,,,,,,,AMNE10.jpg,AMSA09.jpg,AMSA02.jpg,AMNE07.jpg,AMSA02.jpg,MS,2,num_2,16,num_2,1.066768897,,,2017_May_02_1656,60.000942951,MAFE4ImagesEEG,001,100281,
AFNE01.JPG,AFNE01.JPG,AFNE01.JPG,AFNE01.JPG,AFNE01.JPG,AFNE01.JPG,5,7,57,0,,,,,,,,,,,,,,,,,,,,,,,AMSA04.jpg,AMNE07.jpg,AMSA14.jpg,AMNE12.jpg,AMSA04.jpg,MS,2,num_8,32,num_2,0.833428967046,,,2017_May_02_1656,60.000942951,MAFE4ImagesEEG,001,100281,
AFNE01.JPG,AFNE01.JPG,AFNE01.JPG,AFNE01.JPG,AFNE01.JPG,AFNE01.JPG,5,8,58,5,,,,,,,,,,,,,,,,,,,,,,,AMNE20.jpg,AMSA11.jpg,AMNE08.jpg,AMSA12.jpg,AMSA11.jpg,MS,2,num_6,32,num_2,1.08346112119,,,2017_May_02_1656,60.000942951,MAFE4ImagesEEG,001,100281,
AFNE01.JPG,AFNE01.JPG,AFNE01.JPG,AFNE01.JPG,AFNE01.JPG,AFNE01.JPG,5,9,59,1,,,,,,,,,,,,,,,,,,,,,,,AMNE09.jpg,AMSA04.jpg,AMNE16.jpg,AMSA02.jpg,AMNE16.jpg,MN,1,num_2,16,num_2,0.966728451895,,,2017_May_02_1656,60.000942951,MAFE4ImagesEEG,001,100281,
,,,,,,,,,,,,,,,,,,,,,,,,,,,,,,,,,,,,,,,,,,,space,18.8653601466,2017_May_02_1656,60.000942951,MAFE4ImagesEEG,001,100281,
AFNE01.JPG,AFNE01.JPG,AFNE01.JPG,AFNE01.JPG,AFNE01.JPG,AFNE01.JPG,,,,,0,0,0,9,,,,,,,,,,,,,,,,,,,AFNE10.jpg,AFSA11.jpg,AFSA08.jpg,AFNE02.jpg,AFNE02.jpg,FN,3,num_4,16,num_4,0.95012699673,,,2017_May_02_1656,60.000942951,MAFE4ImagesEEG,001,100281,
AFNE01.JPG,AFNE01.JPG,AFNE01.JPG,AFNE01.JPG,AFNE01.JPG,AFNE01.JPG,,,,,0,1,1,3,,,,,,,,,,,,,,,,,,,AFNE20.jpg,AFSA12.jpg,AFSA16.jpg,AFNE07.jpg,AFSA16.jpg,FS,4,num_2,32,num_4,0.866786152823,,,2017_May_02_1656,60.000942951,MAFE4ImagesEEG,001,100281,
AFNE01.JPG,AFNE01.JPG,AFNE01.JPG,AFNE01.JPG,AFNE01.JPG,AFNE01.JPG,,,,,0,2,2,5,,,,,,,,,,,,,,,,,,,AFNE12.jpg,AFNE06.jpg,AFSA18.jpg,AFSA06.jpg,AFSA18.jpg,FS,4,num_2,32,num_4,0.816762401955,,,2017_May_02_1656,60.000942951,MAFE4ImagesEEG,001,100281,
AFNE01.JPG,AFNE01.JPG,AFNE01.JPG,AFNE01.JPG,AFNE01.JPG,AFNE01.JPG,,,,,0,3,3,1,,,,,,,,,,,,,,,,,,,AFNE08.jpg,AFSA19.jpg,AFNE16.jpg,AFSA18.jpg,AFSA19.jpg,FS,4,num_6,16,num_6,1.11666691792,,,2017_May_02_1656,60.000942951,MAFE4ImagesEEG,001,100281,
AFNE01.JPG,AFNE01.JPG,AFNE01.JPG,AFNE01.JPG,AFNE01.JPG,AFNE01.JPG,,,,,0,4,4,4,,,,,,,,,,,,,,,,,,,AFNE03.jpg,AFSA05.jpg,AFNE18.jpg,AFSA12.jpg,AFNE03.jpg,FN,3,num_8,32,num_4,0.816736422246,,,2017_May_02_1656,60.000942951,MAFE4ImagesEEG,001,100281,
AFNE01.JPG,AFNE01.JPG,AFNE01.JPG,AFNE01.JPG,AFNE01.JPG,AFNE01.JPG,,,,,0,5,5,6,,,,,,,,,,,,,,,,,,,AFSA14.jpg,AFNE05.jpg,AFNE15.jpg,AFSA16.jpg,AFSA14.jpg,FS,4,num_8,32,num_4,0.933494429803,,,2017_May_02_1656,60.000942951,MAFE4ImagesEEG,001,100281,
AFNE01.JPG,AFNE01.JPG,AFNE01.JPG,AFNE01.JPG,AFNE01.JPG,AFNE01.JPG,,,,,0,6,6,2,,,,,,,,,,,,,,,,,,,AFSA16.jpg,AFSA08.jpg,AFNE06.jpg,AFNE14.jpg,AFSA16.jpg,FS,4,num_8,32,num_4,0.916774622165,,,2017_May_02_1656,60.000942951,MAFE4ImagesEEG,001,100281,
AFNE01.JPG,AFNE01.JPG,AFNE01.JPG,AFNE01.JPG,AFNE01.JPG,AFNE01.JPG,,,,,0,7,7,0,,,,,,,,,,,,,,,,,,,AFSA02.jpg,AFSA13.jpg,AFNE14.jpg,AFNE04.jpg,AFNE04.jpg,FN,3,num_4,16,num_4,0.916809903458,,,2017_May_02_1656,60.000942951,MAFE4ImagesEEG,001,100281,
AFNE01.JPG,AFNE01.JPG,AFNE01.JPG,AFNE01.JPG,AFNE01.JPG,AFNE01.JPG,,,,,0,8,8,7,,,,,,,,,,,,,,,,,,,AFSA11.jpg,AFNE11.jpg,AFNE20.jpg,AFSA03.jpg,AFNE20.jpg,FN,3,num_2,16,num_2,0.533471208299,,,2017_May_02_1656,60.000942951,MAFE4ImagesEEG,001,100281,
AFNE01.JPG,AFNE01.JPG,AFNE01.JPG,AFNE01.JPG,AFNE01.JPG,AFNE01.JPG,,,,,0,9,9,8,,,,,,,,,,,,,,,,,,,AFSA07.jpg,AFNE20.jpg,AFSA19.jpg,AFNE18.jpg,AFSA19.jpg,FS,4,num_2,16,num_2,1.2667227746,,,2017_May_02_1656,60.000942951,MAFE4ImagesEEG,001,100281,
AFNE01.JPG,AFNE01.JPG,AFNE01.JPG,AFNE01.JPG,AFNE01.JPG,AFNE01.JPG,,,,,1,0,10,8,,,,,,,,,,,,,,,,,,,AFSA17.jpg,AFNE05.jpg,AFNE18.jpg,AFSA11.jpg,AFSA11.jpg,FS,4,num_4,32,num_2,0.933405264281,,,2017_May_02_1656,60.000942951,MAFE4ImagesEEG,001,100281,
AFNE01.JPG,AFNE01.JPG,AFNE01.JPG,AFNE01.JPG,AFNE01.JPG,AFNE01.JPG,,,,,1,1,11,7,,,,,,,,,,,,,,,,,,,AFNE05.jpg,AFNE01.jpg,AFSA07.jpg,AFSA13.jpg,AFSA13.jpg,FS,4,num_4,16,num_4,2.83326410712,,,2017_May_02_1656,60.000942951,MAFE4ImagesEEG,001,100281,
AFNE01.JPG,AFNE01.JPG,AFNE01.JPG,AFNE01.JPG,AFNE01.JPG,AFNE01.JPG,,,,,1,2,12,5,,,,,,,,,,,,,,,,,,,AFSA19.jpg,AFNE05.jpg,AFSA16.jpg,AFNE11.jpg,AFSA19.jpg,FS,4,num_8,32,num_4,1.18340758979,,,2017_May_02_1656,60.000942951,MAFE4ImagesEEG,001,100281,
AFNE01.JPG,AFNE01.JPG,AFNE01.JPG,AFNE01.JPG,AFNE01.JPG,AFNE01.JPG,,,,,1,3,13,0,,,,,,,,,,,,,,,,,,,AFSA18.jpg,AFNE07.jpg,AFNE01.jpg,AFSA02.jpg,AFSA02.jpg,FS,4,num_4,16,num_4,0.700430977158,,,2017_May_02_1656,60.000942951,MAFE4ImagesEEG,001,100281,
AFNE01.JPG,AFNE01.JPG,AFNE01.JPG,AFNE01.JPG,AFNE01.JPG,AFNE01.JPG,,,,,1,4,14,4,,,,,,,,,,,,,,,,,,,AFSA20.jpg,AFSA12.jpg,AFNE12.jpg,AFNE19.jpg,AFNE12.jpg,FN,3,num_2,16,num_2,0.900146866217,,,2017_May_02_1656,60.000942951,MAFE4ImagesEEG,001,100281,
AFNE01.JPG,AFNE01.JPG,AFNE01.JPG,AFNE01.JPG,AFNE01.JPG,AFNE01.JPG,,,,,1,5,15,9,,,,,,,,,,,,,,,,,,,AFNE20.jpg,AFNE15.jpg,AFSA10.jpg,AFSA14.jpg,AFNE15.jpg,FN,3,num_6,32,num_4,2.51662278431,,,2017_May_02_1656,60.000942951,MAFE4ImagesEEG,001,100281,
AFNE01.JPG,AFNE01.JPG,AFNE01.JPG,AFNE01.JPG,AFNE01.JPG,AFNE01.JPG,,,,,1,6,16,1,,,,,,,,,,,,,,,,,,,AFSA09.jpg,AFNE16.jpg,AFNE07.jpg,AFSA17.jpg,AFNE07.jpg,FN,3,num_2,16,num_2,0.83351139701,,,2017_May_02_1656,60.000942951,MAFE4ImagesEEG,001,100281,
AFNE01.JPG,AFNE01.JPG,AFNE01.JPG,AFNE01.JPG,AFNE01.JPG,AFNE01.JPG,,,,,1,7,17,2,,,,,,,,,,,,,,,,,,,AFSA08.jpg,AFNE15.jpg,AFSA03.jpg,AFNE12.jpg,AFSA08.jpg,FS,4,num_8,32,num_2,3.29989136569,,,2017_May_02_1656,60.000942951,MAFE4ImagesEEG,001,100281,
AFNE01.JPG,AFNE01.JPG,AFNE01.JPG,AFNE01.JPG,AFNE01.JPG,AFNE01.JPG,,,,,1,8,18,3,,,,,,,,,,,,,,,,,,,AFNE02.jpg,AFSA07.jpg,AFSA15.jpg,AFNE08.jpg,AFSA07.jpg,FS,4,num_6,32,num_2,1.38344453881,,,2017_May_02_1656,60.000942951,MAFE4ImagesEEG,001,100281,
AFNE01.JPG,AFNE01.JPG,AFNE01.JPG,AFNE01.JPG,AFNE01.JPG,AFNE01.JPG,,,,,1,9,19,6,,,,,,,,,,,,,,,,,,,AFNE18.jpg,AFSA14.jpg,AFNE10.jpg,AFSA12.jpg,AFSA12.jpg,FS,4,num_4,16,num_4,1.01676086243,,,2017_May_02_1656,60.000942951,MAFE4ImagesEEG,001,100281,
AFNE01.JPG,AFNE01.JPG,AFNE01.JPG,AFNE01.JPG,AFNE01.JPG,AFNE01.JPG,,,,,2,0,20,0,,,,,,,,,,,,,,,,,,,AFSA04.jpg,AFSA15.jpg,AFNE20.jpg,AFNE11.jpg,AFSA15.jpg,FS,4,num_6,32,num_2,0.650115033146,,,2017_May_02_1656,60.000942951,MAFE4ImagesEEG,001,100281,
AFNE01.JPG,AFNE01.JPG,AFNE01.JPG,AFNE01.JPG,AFNE01.JPG,AFNE01.JPG,,,,,2,1,21,5,,,,,,,,,,,,,,,,,,,AFNE16.jpg,AFSA02.jpg,AFNE04.jpg,AFSA08.jpg,AFNE16.jpg,FN,3,num_8,16,num_8,0.733439840144,,,2017_May_02_1656,60.000942951,MAFE4ImagesEEG,001,100281,
AFNE01.JPG,AFNE01.JPG,AFNE01.JPG,AFNE01.JPG,AFNE01.JPG,AFNE01.JPG,,,,,2,2,22,2,,,,,,,,,,,,,,,,,,,AFNE20.jpg,AFSA04.jpg,AFNE12.jpg,AFSA18.jpg,AFSA18.jpg,FS,4,num_4,16,num_4,0.733489233768,,,2017_May_02_1656,60.000942951,MAFE4ImagesEEG,001,100281,
AFNE01.JPG,AFNE01.JPG,AFNE01.JPG,AFNE01.JPG,AFNE01.JPG,AFNE01.JPG,,,,,2,3,23,4,,,,,,,,,,,,,,,,,,,AFNE17.jpg,AFSA04.jpg,AFNE20.jpg,AFSA03.jpg,AFSA03.jpg,FS,4,num_4,16,num_4,0.983472956577,,,2017_May_02_1656,60.000942951,MAFE4ImagesEEG,001,100281,
AFNE01.JPG,AFNE01.JPG,AFNE01.JPG,AFNE01.JPG,AFNE01.JPG,AFNE01.JPG,,,,,2,4,24,8,,,,,,,,,,,,,,,,,,,AFSA13.jpg,AFNE20.jpg,AFSA12.jpg,AFNE16.jpg,AFSA12.jpg,FS,4,num_2,16,num_2,0.767023146618,,,2017_May_02_1656,60.000942951,MAFE4ImagesEEG,001,100281,
AFNE01.JPG,AFNE01.JPG,AFNE01.JPG,AFNE01.JPG,AFNE01.JPG,AFNE01.JPG,,,,,2,5,25,7,,,,,,,,,,,,,,,,,,,AFSA16.jpg,AFSA08.jpg,AFNE18.jpg,AFNE20.jpg,AFSA16.jpg,FS,4,num_8,16,num_8,0.483482418116,,,2017_May_02_1656,60.000942951,MAFE4ImagesEEG,001,100281,
AFNE01.JPG,AFNE01.JPG,AFNE01.JPG,AFNE01.JPG,AFNE01.JPG,AFNE01.JPG,,,,,2,6,26,1,,,,,,,,,,,,,,,,,,,AFNE11.jpg,AFNE15.jpg,AFSA01.jpg,AFSA07.jpg,AFNE11.jpg,FN,3,num_8,32,num_2,1.2667240575,,,2017_May_02_1656,60.000942951,MAFE4ImagesEEG,001,100281,
AFNE01.JPG,AFNE01.JPG,AFNE01.JPG,AFNE01.JPG,AFNE01.JPG,AFNE01.JPG,,,,,2,7,27,3,,,,,,,,,,,,,,,,,,,AFNE14.jpg,AFSA11.jpg,AFNE20.jpg,AFSA16.jpg,AFSA11.jpg,FS,4,num_6,16,num_6,0.700139425229,,,2017_May_02_1656,60.000942951,MAFE4ImagesEEG,001,100281,
AFNE01.JPG,AFNE01.JPG,AFNE01.JPG,AFNE01.JPG,AFNE01.JPG,AFNE01.JPG,,,,,2,8,28,9,,,,,,,,,,,,,,,,,,,AFSA15.jpg,AFSA01.jpg,AFNE07.jpg,AFNE17.jpg,AFSA01.jpg,FS,4,num_6,32,num_4,1.01674771216,,,2017_May_02_1656,60.000942951,MAFE4ImagesEEG,001,100281,
AFNE01.JPG,AFNE01.JPG,AFNE01.JPG,AFNE01.JPG,AFNE01.JPG,AFNE01.JPG,,,,,2,9,29,6,,,,,,,,,,,,,,,,,,,AFSA09.jpg,AFSA02.jpg,AFNE11.jpg,AFNE01.jpg,AFSA02.jpg,FS,4,num_6,16,num_6,0.849945746828,,,2017_May_02_1656,60.000942951,MAFE4ImagesEEG,001,100281,
AFNE01.JPG,AFNE01.JPG,AFNE01.JPG,AFNE01.JPG,AFNE01.JPG,AFNE01.JPG,,,,,3,0,30,3,,,,,,,,,,,,,,,,,,,AFSA07.jpg,AFSA03.jpg,AFNE05.jpg,AFNE02.jpg,AFNE02.jpg,FN,3,num_4,16,num_4,1.1170543707,,,2017_May_02_1656,60.000942951,MAFE4ImagesEEG,001,100281,
AFNE01.JPG,AFNE01.JPG,AFNE01.JPG,AFNE01.JPG,AFNE01.JPG,AFNE01.JPG,,,,,3,1,31,9,,,,,,,,,,,,,,,,,,,AFNE19.jpg,AFNE18.jpg,AFSA16.jpg,AFSA11.jpg,AFNE19.jpg,FN,3,num_8,32,num_4,1.25010303757,,,2017_May_02_1656,60.000942951,MAFE4ImagesEEG,001,100281,
AFNE01.JPG,AFNE01.JPG,AFNE01.JPG,AFNE01.JPG,AFNE01.JPG,AFNE01.JPG,,,,,3,2,32,0,,,,,,,,,,,,,,,,,,,AFSA01.jpg,AFSA14.jpg,AFNE02.jpg,AFNE15.jpg,AFNE02.jpg,FN,3,num_2,32,num_4,1.86639805837,,,2017_May_02_1656,60.000942951,MAFE4ImagesEEG,001,100281,
AFNE01.JPG,AFNE01.JPG,AFNE01.JPG,AFNE01.JPG,AFNE01.JPG,AFNE01.JPG,,,,,3,3,33,4,,,,,,,,,,,,,,,,,,,AFNE17.jpg,AFSA08.jpg,AFSA09.jpg,AFNE18.jpg,AFNE18.jpg,FN,3,num_4,32,num_6,1.68336284673,,,2017_May_02_1656,60.000942951,MAFE4ImagesEEG,001,100281,
AFNE01.JPG,AFNE01.JPG,AFNE01.JPG,AFNE01.JPG,AFNE01.JPG,AFNE01.JPG,,,,,3,4,34,8,,,,,,,,,,,,,,,,,,,AFNE12.jpg,AFSA12.jpg,AFNE07.jpg,AFSA20.jpg,AFNE12.jpg,FN,3,num_8,32,num_4,2.11702037253,,,2017_May_02_1656,60.000942951,MAFE4ImagesEEG,001,100281,
AFNE01.JPG,AFNE01.JPG,AFNE01.JPG,AFNE01.JPG,AFNE01.JPG,AFNE01.JPG,,,,,3,5,35,7,,,,,,,,,,,,,,,,,,,AFSA20.jpg,AFNE11.jpg,AFSA01.jpg,AFNE03.jpg,AFNE03.jpg,FN,3,num_4,16,num_4,0.883396909339,,,2017_May_02_1656,60.000942951,MAFE4ImagesEEG,001,100281,
AFNE01.JPG,AFNE01.JPG,AFNE01.JPG,AFNE01.JPG,AFNE01.JPG,AFNE01.JPG,,,,,3,6,36,5,,,,,,,,,,,,,,,,,,,AFNE14.jpg,AFNE19.jpg,AFSA13.jpg,AFSA04.jpg,AFSA13.jpg,FS,4,num_2,32,num_4,1.23347688536,,,2017_May_02_1656,60.000942951,MAFE4ImagesEEG,001,100281,
AFNE01.JPG,AFNE01.JPG,AFNE01.JPG,AFNE01.JPG,AFNE01.JPG,AFNE01.JPG,,,,,3,7,37,6,,,,,,,,,,,,,,,,,,,AFNE03.jpg,AFSA05.jpg,AFNE13.jpg,AFSA06.jpg,AFSA06.jpg,FS,4,num_4,16,num_4,2.45000046492,,,2017_May_02_1656,60.000942951,MAFE4ImagesEEG,001,100281,
AFNE01.JPG,AFNE01.JPG,AFNE01.JPG,AFNE01.JPG,AFNE01.JPG,AFNE01.JPG,,,,,3,8,38,2,,,,,,,,,,,,,,,,,,,AFNE11.jpg,AFNE13.jpg,AFSA03.jpg,AFSA16.jpg,AFSA03.jpg,FS,4,num_2,32,num_4,4.0998512092,,,2017_May_02_1656,60.000942951,MAFE4ImagesEEG,001,100281,
AFNE01.JPG,AFNE01.JPG,AFNE01.JPG,AFNE01.JPG,AFNE01.JPG,AFNE01.JPG,,,,,3,9,39,1,,,,,,,,,,,,,,,,,,,AFSA08.jpg,AFSA13.jpg,AFNE15.jpg,AFNE06.jpg,AFSA08.jpg,FS,4,num_8,32,num_6,3.19993527466,,,2017_May_02_1656,60.000942951,MAFE4ImagesEEG,001,100281,
AFNE01.JPG,AFNE01.JPG,AFNE01.JPG,AFNE01.JPG,AFNE01.JPG,AFNE01.JPG,,,,,4,0,40,1,,,,,,,,,,,,,,,,,,,AFSA01.jpg,AFNE02.jpg,AFSA05.jpg,AFNE01.jpg,AFSA05.jpg,FS,4,num_2,32,num_4,1.91670502163,,,2017_May_02_1656,60.000942951,MAFE4ImagesEEG,001,100281,
AFNE01.JPG,AFNE01.JPG,AFNE01.JPG,AFNE01.JPG,AFNE01.JPG,AFNE01.JPG,,,,,4,1,41,2,,,,,,,,,,,,,,,,,,,AFSA06.jpg,AFSA05.jpg,AFNE11.jpg,AFNE17.jpg,AFSA06.jpg,FS,4,num_8,32,num_4,1.38338391925,,,2017_May_02_1656,60.000942951,MAFE4ImagesEEG,001,100281,
AFNE01.JPG,AFNE01.JPG,AFNE01.JPG,AFNE01.JPG,AFNE01.JPG,AFNE01.JPG,,,,,4,2,42,6,,,,,,,,,,,,,,,,,,,AFNE12.jpg,AFNE10.jpg,AFSA14.jpg,AFSA10.jpg,AFSA10.jpg,FS,4,num_4,16,num_4,0.716799575603,,,2017_May_02_1656,60.000942951,MAFE4ImagesEEG,001,100281,
AFNE01.JPG,AFNE01.JPG,AFNE01.JPG,AFNE01.JPG,AFNE01.JPG,AFNE01.JPG,,,,,4,3,43,0,,,,,,,,,,,,,,,,,,,AFSA11.jpg,AFNE11.jpg,AFSA04.jpg,AFNE18.jpg,AFNE18.jpg,FN,3,num_4,16,num_4,0.850150378654,,,2017_May_02_1656,60.000942951,MAFE4ImagesEEG,001,100281,
AFNE01.JPG,AFNE01.JPG,AFNE01.JPG,AFNE01.JPG,AFNE01.JPG,AFNE01.JPG,,,,,4,4,44,7,,,,,,,,,,,,,,,,,,,AFNE08.jpg,AFSA03.jpg,AFSA10.jpg,AFNE13.jpg,AFSA10.jpg,FS,4,num_2,16,num_2,2.91659789486,,,2017_May_02_1656,60.000942951,MAFE4ImagesEEG,001,100281,
AFNE01.JPG,AFNE01.JPG,AFNE01.JPG,AFNE01.JPG,AFNE01.JPG,AFNE01.JPG,,,,,4,5,45,9,,,,,,,,,,,,,,,,,,,AFSA03.jpg,AFSA14.jpg,AFNE13.jpg,AFNE03.jpg,AFNE03.jpg,FN,3,num_4,16,num_4,0.900108057074,,,2017_May_02_1656,60.000942951,MAFE4ImagesEEG,001,100281,
AFNE01.JPG,AFNE01.JPG,AFNE01.JPG,AFNE01.JPG,AFNE01.JPG,AFNE01.JPG,,,,,4,6,46,4,,,,,,,,,,,,,,,,,,,AFSA08.jpg,AFNE13.jpg,AFSA09.jpg,AFNE10.jpg,AFNE13.jpg,FN,3,num_6,32,num_4,2.59998800443,,,2017_May_02_1656,60.000942951,MAFE4ImagesEEG,001,100281,
AFNE01.JPG,AFNE01.JPG,AFNE01.JPG,AFNE01.JPG,AFNE01.JPG,AFNE01.JPG,,,,,4,7,47,3,,,,,,,,,,,,,,,,,,,AFSA16.jpg,AFNE09.jpg,AFSA03.jpg,AFNE16.jpg,AFNE09.jpg,FN,3,num_6,32,num_4,2.69992356771,,,2017_May_02_1656,60.000942951,MAFE4ImagesEEG,001,100281,
AFNE01.JPG,AFNE01.JPG,AFNE01.JPG,AFNE01.JPG,AFNE01.JPG,AFNE01.JPG,,,,,4,8,48,8,,,,,,,,,,,,,,,,,,,AFSA07.jpg,AFNE09.jpg,AFSA18.jpg,AFNE06.jpg,AFNE06.jpg,FN,3,num_4,32,num_8,1.5000293476,,,2017_May_02_1656,60.000942951,MAFE4ImagesEEG,001,100281,
AFNE01.JPG,AFNE01.JPG,AFNE01.JPG,AFNE01.JPG,AFNE01.JPG,AFNE01.JPG,,,,,4,9,49,5,,,,,,,,,,,,,,,,,,,AFNE07.jpg,AFSA14.jpg,AFSA10.jpg,AFNE01.jpg,AFNE07.jpg,FN,3,num_8,16,num_8,1.33342912747,,,2017_May_02_1656,60.000942951,MAFE4ImagesEEG,001,100281,
AFNE01.JPG,AFNE01.JPG,AFNE01.JPG,AFNE01.JPG,AFNE01.JPG,AFNE01.JPG,,,,,5,0,50,1,,,,,,,,,,,,,,,,,,,AFSA16.jpg,AFNE03.jpg,AFNE02.jpg,AFSA15.jpg,AFNE02.jpg,FN,3,num_2,16,num_2,3.11626535258,,,2017_May_02_1656,60.000942951,MAFE4ImagesEEG,001,100281,
AFNE01.JPG,AFNE01.JPG,AFNE01.JPG,AFNE01.JPG,AFNE01.JPG,AFNE01.JPG,,,,,5,1,51,9,,,,,,,,,,,,,,,,,,,AFSA04.jpg,AFSA14.jpg,AFNE04.jpg,AFNE17.jpg,AFNE04.jpg,FN,3,num_2,32,num_4,3.88316533552,,,2017_May_02_1656,60.000942951,MAFE4ImagesEEG,001,100281,
AFNE01.JPG,AFNE01.JPG,AFNE01.JPG,AFNE01.JPG,AFNE01.JPG,AFNE01.JPG,,,,,5,2,52,7,,,,,,,,,,,,,,,,,,,AFSA12.jpg,AFNE08.jpg,AFSA06.jpg,AFNE20.jpg,AFSA06.jpg,FS,4,num_2,32,num_6,1.20005843882,,,2017_May_02_1656,60.000942951,MAFE4ImagesEEG,001,100281,
AFNE01.JPG,AFNE01.JPG,AFNE01.JPG,AFNE01.JPG,AFNE01.JPG,AFNE01.JPG,,,,,5,3,53,4,,,,,,,,,,,,,,,,,,,AFSA14.jpg,AFSA19.jpg,AFNE08.jpg,AFNE16.jpg,AFSA19.jpg,FS,4,num_6,32,num_2,2.13341495069,,,2017_May_02_1656,60.000942951,MAFE4ImagesEEG,001,100281,
AFNE01.JPG,AFNE01.JPG,AFNE01.JPG,AFNE01.JPG,AFNE01.JPG,AFNE01.JPG,,,,,5,4,54,5,,,,,,,,,,,,,,,,,,,AFNE13.jpg,AFSA14.jpg,AFNE18.jpg,AFSA18.jpg,AFSA18.jpg,FS,4,num_4,16,num_4,1.05013183993,,,2017_May_02_1656,60.000942951,MAFE4ImagesEEG,001,100281,
AFNE01.JPG,AFNE01.JPG,AFNE01.JPG,AFNE01.JPG,AFNE01.JPG,AFNE01.JPG,,,,,5,5,55,6,,,,,,,,,,,,,,,,,,,AFSA17.jpg,AFNE10.jpg,AFSA06.jpg,AFNE04.jpg,AFSA06.jpg,FS,4,num_2,32,num_4,1.28343616775,,,2017_May_02_1656,60.000942951,MAFE4ImagesEEG,001,100281,
AFNE01.JPG,AFNE01.JPG,AFNE01.JPG,AFNE01.JPG,AFNE01.JPG,AFNE01.JPG,,,,,5,6,56,8,,,,,,,,,,,,,,,,,,,AFSA02.jpg,AFSA08.jpg,AFNE17.jpg,AFNE15.jpg,AFNE17.jpg,FN,3,num_2,16,num_2,1.88339851308,,,2017_May_02_1656,60.000942951,MAFE4ImagesEEG,001,100281,
AFNE01.JPG,AFNE01.JPG,AFNE01.JPG,AFNE01.JPG,AFNE01.JPG,AFNE01.JPG,,,,,5,7,57,0,,,,,,,,,,,,,,,,,,,AFNE01.jpg,AFSA07.jpg,AFSA06.jpg,AFNE19.jpg,AFSA07.jpg,FS,4,num_6,16,num_6,2.61661223182,,,2017_May_02_1656,60.000942951,MAFE4ImagesEEG,001,100281,
AFNE01.JPG,AFNE01.JPG,AFNE01.JPG,AFNE01.JPG,AFNE01.JPG,AFNE01.JPG,,,,,5,8,58,3,,,,,,,,,,,,,,,,,,,AFNE03.jpg,AFNE15.jpg,AFSA13.jpg,AFSA10.jpg,AFNE15.jpg,FN,3,num_6,32,num_8,4.54974101926,,,2017_May_02_1656,60.000942951,MAFE4ImagesEEG,001,100281,
AFNE01.JPG,AFNE01.JPG,AFNE01.JPG,AFNE01.JPG,AFNE01.JPG,AFNE01.JPG,,,,,5,9,59,2,,,,,,,,,,,,,,,,,,,AFSA16.jpg,AFNE04.jpg,AFNE08.jpg,AFSA10.jpg,AFNE08.jpg,FN,3,num_2,32,num_8,2.18337262911,,,2017_May_02_1656,60.000942951,MAFE4ImagesEEG,001,100281,
,,,,,,,,,,,,,,,,,,,,,,,,,,,,,,,,,,,,,,,,,,,space,13.7326854619,2017_May_02_1656,60.000942951,MAFE4ImagesEEG,001,100281,
AFNE01.JPG,AFNE01.JPG,AFNE01.JPG,AFNE01.JPG,AFNE01.JPG,AFNE01.JPG,,,,,,,,,0,0,0,6,,,,,,,,,,,,,,,AMNE17.jpg,AMSA19.jpg,AMSA10.jpg,AMNE06.jpg,AMSA19.jpg,MS,2,num_6,16,num_6,1.23339894577,,,2017_May_02_1656,60.000942951,MAFE4ImagesEEG,001,100281,
AFNE01.JPG,AFNE01.JPG,AFNE01.JPG,AFNE01.JPG,AFNE01.JPG,AFNE01.JPG,,,,,,,,,0,1,1,2,,,,,,,,,,,,,,,AMSA06.jpg,AMNE11.jpg,AMNE16.jpg,AMSA02.jpg,AMSA06.jpg,MS,2,num_8,32,num_2,1.15009915642,,,2017_May_02_1656,60.000942951,MAFE4ImagesEEG,001,100281,
AFNE01.JPG,AFNE01.JPG,AFNE01.JPG,AFNE01.JPG,AFNE01.JPG,AFNE01.JPG,,,,,,,,,0,2,2,8,,,,,,,,,,,,,,,AMSA05.jpg,AMSA10.jpg,AMNE11.jpg,AMNE12.jpg,AMSA05.jpg,MS,2,num_8,16,num_8,0.700203893939,,,2017_May_02_1656,60.000942951,MAFE4ImagesEEG,001,100281,
AFNE01.JPG,AFNE01.JPG,AFNE01.JPG,AFNE01.JPG,AFNE01.JPG,AFNE01.JPG,,,,,,,,,0,3,3,7,,,,,,,,,,,,,,,AMNE10.jpg,AMSA03.jpg,AMNE20.jpg,AMSA01.jpg,AMNE20.jpg,MN,1,num_2,32,num_8,1.56674532266,,,2017_May_02_1656,60.000942951,MAFE4ImagesEEG,001,100281,
AFNE01.JPG,AFNE01.JPG,AFNE01.JPG,AFNE01.JPG,AFNE01.JPG,AFNE01.JPG,,,,,,,,,0,4,4,4,,,,,,,,,,,,,,,AMSA02.jpg,AMNE06.jpg,AMNE12.jpg,AMSA18.jpg,AMSA18.jpg,MS,2,num_4,32,num_2,1.5500668902,,,2017_May_02_1656,60.000942951,MAFE4ImagesEEG,001,100281,
AFNE01.JPG,AFNE01.JPG,AFNE01.JPG,AFNE01.JPG,AFNE01.JPG,AFNE01.JPG,,,,,,,,,0,5,5,5,,,,,,,,,,,,,,,AMNE13.jpg,AMNE15.jpg,AMSA12.jpg,AMSA18.jpg,AMSA18.jpg,MS,2,num_4,16,num_4,1.5168386416,,,2017_May_02_1656,60.000942951,MAFE4ImagesEEG,001,100281,
AFNE01.JPG,AFNE01.JPG,AFNE01.JPG,AFNE01.JPG,AFNE01.JPG,AFNE01.JPG,,,,,,,,,0,6,6,1,,,,,,,,,,,,,,,AMNE13.jpg,AMSA02.jpg,AMNE04.jpg,AMSA14.jpg,AMSA14.jpg,MS,2,num_4,32,num_2,2.33316419693,,,2017_May_02_1656,60.000942951,MAFE4ImagesEEG,001,100281,
AFNE01.JPG,AFNE01.JPG,AFNE01.JPG,AFNE01.JPG,AFNE01.JPG,AFNE01.JPG,,,,,,,,,0,7,7,0,,,,,,,,,,,,,,,AMSA07.jpg,AMNE08.jpg,AMNE17.jpg,AMSA18.jpg,AMNE08.jpg,MN,1,num_6,48,None,,,,2017_May_02_1656,60.000942951,MAFE4ImagesEEG,001,100281,
AFNE01.JPG,AFNE01.JPG,AFNE01.JPG,AFNE01.JPG,AFNE01.JPG,AFNE01.JPG,,,,,,,,,0,8,8,9,,,,,,,,,,,,,,,AMNE16.jpg,AMNE20.jpg,AMSA10.jpg,AMSA11.jpg,AMSA11.jpg,MS,2,num_4,32,num_6,1.70010735141,,,2017_May_02_1656,60.000942951,MAFE4ImagesEEG,001,100281,
AFNE01.JPG,AFNE01.JPG,AFNE01.JPG,AFNE01.JPG,AFNE01.JPG,AFNE01.JPG,,,,,,,,,0,9,9,3,,,,,,,,,,,,,,,AMSA17.jpg,AMNE01.jpg,AMNE14.jpg,AMSA08.jpg,AMSA17.jpg,MS,2,num_8,32,num_6,1.00010520243,,,2017_May_02_1656,60.000942951,MAFE4ImagesEEG,001,100281,
AFNE01.JPG,AFNE01.JPG,AFNE01.JPG,AFNE01.JPG,AFNE01.JPG,AFNE01.JPG,,,,,,,,,1,0,10,0,,,,,,,,,,,,,,,AMSA04.jpg,AMSA01.jpg,AMNE14.jpg,AMNE15.jpg,AMNE14.jpg,MN,1,num_2,32,num_4,1.95003237878,,,2017_May_02_1656,60.000942951,MAFE4ImagesEEG,001,100281,
AFNE01.JPG,AFNE01.JPG,AFNE01.JPG,AFNE01.JPG,AFNE01.JPG,AFNE01.JPG,,,,,,,,,1,1,11,2,,,,,,,,,,,,,,,AMNE09.jpg,AMSA06.jpg,AMSA16.jpg,AMNE08.jpg,AMSA06.jpg,MS,2,num_6,32,num_8,1.11675127246,,,2017_May_02_1656,60.000942951,MAFE4ImagesEEG,001,100281,
AFNE01.JPG,AFNE01.JPG,AFNE01.JPG,AFNE01.JPG,AFNE01.JPG,AFNE01.JPG,,,,,,,,,1,2,12,6,,,,,,,,,,,,,,,AMSA02.jpg,AMSA05.jpg,AMNE15.jpg,AMNE07.jpg,AMNE07.jpg,MN,1,num_4,32,num_2,1.06675414299,,,2017_May_02_1656,60.000942951,MAFE4ImagesEEG,001,100281,
AFNE01.JPG,AFNE01.JPG,AFNE01.JPG,AFNE01.JPG,AFNE01.JPG,AFNE01.JPG,,,,,,,,,1,3,13,3,,,,,,,,,,,,,,,AMSA13.jpg,AMNE18.jpg,AMNE12.jpg,AMSA18.jpg,AMNE18.jpg,MN,1,num_6,16,num_6,0.76676366874,,,2017_May_02_1656,60.000942951,MAFE4ImagesEEG,001,100281,
AFNE01.JPG,AFNE01.JPG,AFNE01.JPG,AFNE01.JPG,AFNE01.JPG,AFNE01.JPG,,,,,,,,,1,4,14,9,,,,,,,,,,,,,,,AMNE20.jpg,AMNE15.jpg,AMSA02.jpg,AMSA17.jpg,AMSA17.jpg,MS,2,num_4,32,num_8,1.50005019573,,,2017_May_02_1656,60.000942951,MAFE4ImagesEEG,001,100281,
AFNE01.JPG,AFNE01.JPG,AFNE01.JPG,AFNE01.JPG,AFNE01.JPG,AFNE01.JPG,,,,,,,,,1,5,15,5,,,,,,,,,,,,,,,AMSA20.jpg,AMSA09.jpg,AMNE16.jpg,AMNE09.jpg,AMSA20.jpg,MS,2,num_8,32,num_4,1.6500075853,,,2017_May_02_1656,60.000942951,MAFE4ImagesEEG,001,100281,
AFNE01.JPG,AFNE01.JPG,AFNE01.JPG,AFNE01.JPG,AFNE01.JPG,AFNE01.JPG,,,,,,,,,1,6,16,7,,,,,,,,,,,,,,,AMSA20.jpg,AMNE03.jpg,AMSA17.jpg,AMNE10.jpg,AMSA20.jpg,MS,2,num_8,16,num_8,2.31664260593,,,2017_May_02_1656,60.000942951,MAFE4ImagesEEG,001,100281,
AFNE01.JPG,AFNE01.JPG,AFNE01.JPG,AFNE01.JPG,AFNE01.JPG,AFNE01.JPG,,,,,,,,,1,7,17,4,,,,,,,,,,,,,,,AMNE04.jpg,AMNE20.jpg,AMSA20.jpg,AMSA19.jpg,AMSA19.jpg,MS,2,num_4,16,num_4,1.500090288,,,2017_May_02_1656,60.000942951,MAFE4ImagesEEG,001,100281,
AFNE01.JPG,AFNE01.JPG,AFNE01.JPG,AFNE01.JPG,AFNE01.JPG,AFNE01.JPG,,,,,,,,,1,8,18,1,,,,,,,,,,,,,,,AMNE19.jpg,AMNE03.jpg,AMSA06.jpg,AMSA15.jpg,AMSA15.jpg,MS,2,num_4,32,num_6,4.0333369791,,,2017_May_02_1656,60.000942951,MAFE4ImagesEEG,001,100281,
AFNE01.JPG,AFNE01.JPG,AFNE01.JPG,AFNE01.JPG,AFNE01.JPG,AFNE01.JPG,,,,,,,,,1,9,19,8,,,,,,,,,,,,,,,AMNE02.jpg,AMNE03.jpg,AMSA01.jpg,AMSA13.jpg,AMSA13.jpg,MS,2,num_4,16,num_4,0.899815863697,,,2017_May_02_1656,60.000942951,MAFE4ImagesEEG,001,100281,
AFNE01.JPG,AFNE01.JPG,AFNE01.JPG,AFNE01.JPG,AFNE01.JPG,AFNE01.JPG,,,,,,,,,2,0,20,8,,,,,,,,,,,,,,,AMSA12.jpg,AMNE18.jpg,AMSA04.jpg,AMNE11.jpg,AMNE11.jpg,MN,1,num_4,32,num_6,1.400075502,,,2017_May_02_1656,60.000942951,MAFE4ImagesEEG,001,100281,
AFNE01.JPG,AFNE01.JPG,AFNE01.JPG,AFNE01.JPG,AFNE01.JPG,AFNE01.JPG,,,,,,,,,2,1,21,5,,,,,,,,,,,,,,,AMSA08.jpg,AMNE11.jpg,AMSA12.jpg,AMNE04.jpg,AMSA12.jpg,MS,2,num_2,16,num_2,2.10006289696,,,2017_May_02_1656,60.000942951,MAFE4ImagesEEG,001,100281,
AFNE01.JPG,AFNE01.JPG,AFNE01.JPG,AFNE01.JPG,AFNE01.JPG,AFNE01.JPG,,,,,,,,,2,2,22,0,,,,,,,,,,,,,,,AMSA12.jpg,AMSA02.jpg,AMNE11.jpg,AMNE19.jpg,AMSA12.jpg,MS,2,num_8,32,num_4,3.14994263602,,,2017_May_02_1656,60.000942951,MAFE4ImagesEEG,001,100281,
AFNE01.JPG,AFNE01.JPG,AFNE01.JPG,AFNE01.JPG,AFNE01.JPG,AFNE01.JPG,,,,,,,,,2,3,23,9,,,,,,,,,,,,,,,AMNE18.jpg,AMSA03.jpg,AMNE20.jpg,AMSA14.jpg,AMSA14.jpg,MS,2,num_4,16,num_4,0.466762610478,,,2017_May_02_1656,60.000942951,MAFE4ImagesEEG,001,100281,
AFNE01.JPG,AFNE01.JPG,AFNE01.JPG,AFNE01.JPG,AFNE01.JPG,AFNE01.JPG,,,,,,,,,2,4,24,7,,,,,,,,,,,,,,,AMSA07.jpg,AMNE02.jpg,AMSA04.jpg,AMNE13.jpg,AMNE13.jpg,MN,1,num_4,16,num_4,0.783488608431,,,2017_May_02_1656,60.000942951,MAFE4ImagesEEG,001,100281,
AFNE01.JPG,AFNE01.JPG,AFNE01.JPG,AFNE01.JPG,AFNE01.JPG,AFNE01.JPG,,,,,,,,,2,5,25,3,,,,,,,,,,,,,,,AMSA09.jpg,AMSA12.jpg,AMNE12.jpg,AMNE17.jpg,AMNE12.jpg,MN,1,num_2,32,num_4,1.25010560337,,,2017_May_02_1656,60.000942951,MAFE4ImagesEEG,001,100281,
AFNE01.JPG,AFNE01.JPG,AFNE01.JPG,AFNE01.JPG,AFNE01.JPG,AFNE01.JPG,,,,,,,,,2,6,26,2,,,,,,,,,,,,,,,AMSA10.jpg,AMSA16.jpg,AMNE01.jpg,AMNE10.jpg,AMNE10.jpg,MN,1,num_4,48,None,,,,2017_May_02_1656,60.000942951,MAFE4ImagesEEG,001,100281,
AFNE01.JPG,AFNE01.JPG,AFNE01.JPG,AFNE01.JPG,AFNE01.JPG,AFNE01.JPG,,,,,,,,,2,7,27,1,,,,,,,,,,,,,,,AMNE03.jpg,AMSA17.jpg,AMSA07.jpg,AMNE16.jpg,AMSA07.jpg,MS,2,num_2,32,num_4,1.2334188316,,,2017_May_02_1656,60.000942951,MAFE4ImagesEEG,001,100281,
AFNE01.JPG,AFNE01.JPG,AFNE01.JPG,AFNE01.JPG,AFNE01.JPG,AFNE01.JPG,,,,,,,,,2,8,28,6,,,,,,,,,,,,,,,AMNE20.jpg,AMSA01.jpg,AMSA18.jpg,AMNE07.jpg,AMSA18.jpg,MS,2,num_2,16,num_2,0.916762754787,,,2017_May_02_1656,60.000942951,MAFE4ImagesEEG,001,100281,
AFNE01.JPG,AFNE01.JPG,AFNE01.JPG,AFNE01.JPG,AFNE01.JPG,AFNE01.JPG,,,,,,,,,2,9,29,4,,,,,,,,,,,,,,,AMSA18.jpg,AMNE03.jpg,AMNE01.jpg,AMSA05.jpg,AMNE03.jpg,MN,1,num_6,16,num_6,1.00015299255,,,2017_May_02_1656,60.000942951,MAFE4ImagesEEG,001,100281,
AFNE01.JPG,AFNE01.JPG,AFNE01.JPG,AFNE01.JPG,AFNE01.JPG,AFNE01.JPG,,,,,,,,,3,0,30,8,,,,,,,,,,,,,,,AMSA07.jpg,AMNE11.jpg,AMNE01.jpg,AMSA15.jpg,AMSA07.jpg,MS,2,num_8,32,num_4,1.25014729961,,,2017_May_02_1656,60.000942951,MAFE4ImagesEEG,001,100281,
AFNE01.JPG,AFNE01.JPG,AFNE01.JPG,AFNE01.JPG,AFNE01.JPG,AFNE01.JPG,,,,,,,,,3,1,31,5,,,,,,,,,,,,,,,AMSA09.jpg,AMNE17.jpg,AMSA20.jpg,AMNE12.jpg,AMNE12.jpg,MN,1,num_4,32,num_6,3.16657103295,,,2017_May_02_1656,60.000942951,MAFE4ImagesEEG,001,100281,
AFNE01.JPG,AFNE01.JPG,AFNE01.JPG,AFNE01.JPG,AFNE01.JPG,AFNE01.JPG,,,,,,,,,3,2,32,3,,,,,,,,,,,,,,,AMNE15.jpg,AMNE09.jpg,AMSA10.jpg,AMSA17.jpg,AMNE15.jpg,MN,1,num_8,32,num_2,2.01667779102,,,2017_May_02_1656,60.000942951,MAFE4ImagesEEG,001,100281,
AFNE01.JPG,AFNE01.JPG,AFNE01.JPG,AFNE01.JPG,AFNE01.JPG,AFNE01.JPG,,,,,,,,,3,3,33,7,,,,,,,,,,,,,,,AMNE14.jpg,AMNE09.jpg,AMSA04.jpg,AMSA19.jpg,AMSA19.jpg,MS,2,num_4,32,num_8,1.35013418109,,,2017_May_02_1656,60.000942951,MAFE4ImagesEEG,001,100281,
AFNE01.JPG,AFNE01.JPG,AFNE01.JPG,AFNE01.JPG,AFNE01.JPG,AFNE01.JPG,,,,,,,,,3,4,34,6,,,,,,,,,,,,,,,AMSA08.jpg,AMNE13.jpg,AMSA18.jpg,AMNE01.jpg,AMNE01.jpg,MN,1,num_4,16,num_4,0.800091346493,,,2017_May_02_1656,60.000942951,MAFE4ImagesEEG,001,100281,
AFNE01.JPG,AFNE01.JPG,AFNE01.JPG,AFNE01.JPG,AFNE01.JPG,AFNE01.JPG,,,,,,,,,3,5,35,4,,,,,,,,,,,,,,,AMNE15.jpg,AMNE17.jpg,AMSA08.jpg,AMSA02.jpg,AMSA02.jpg,MS,2,num_4,32,num_2,1.36672152369,,,2017_May_02_1656,60.000942951,MAFE4ImagesEEG,001,100281,
AFNE01.JPG,AFNE01.JPG,AFNE01.JPG,AFNE01.JPG,AFNE01.JPG,AFNE01.JPG,,,,,,,,,3,6,36,1,,,,,,,,,,,,,,,AMNE03.jpg,AMSA05.jpg,AMNE10.jpg,AMSA16.jpg,AMNE03.jpg,MN,1,num_8,32,num_2,2.78338533058,,,2017_May_02_1656,60.000942951,MAFE4ImagesEEG,001,100281,
AFNE01.JPG,AFNE01.JPG,AFNE01.JPG,AFNE01.JPG,AFNE01.JPG,AFNE01.JPG,,,,,,,,,3,7,37,9,,,,,,,,,,,,,,,AMSA08.jpg,AMNE03.jpg,AMSA12.jpg,AMNE10.jpg,AMNE10.jpg,MN,1,num_4,32,num_2,1.78341932874,,,2017_May_02_1656,60.000942951,MAFE4ImagesEEG,001,100281,
AFNE01.JPG,AFNE01.JPG,AFNE01.JPG,AFNE01.JPG,AFNE01.JPG,AFNE01.JPG,,,,,,,,,3,8,38,0,,,,,,,,,,,,,,,AMSA10.jpg,AMSA11.jpg,AMNE20.jpg,AMNE16.jpg,AMSA10.jpg,MS,2,num_8,32,num_2,2.08334340993,,,2017_May_02_1656,60.000942951,MAFE4ImagesEEG,001,100281,
AFNE01.JPG,AFNE01.JPG,AFNE01.JPG,AFNE01.JPG,AFNE01.JPG,AFNE01.JPG,,,,,,,,,3,9,39,2,,,,,,,,,,,,,,,AMSA14.jpg,AMNE08.jpg,AMNE14.jpg,AMSA03.jpg,AMSA14.jpg,MS,2,num_8,32,num_4,4.89978731796,,,2017_May_02_1656,60.000942951,MAFE4ImagesEEG,001,100281,
AFNE01.JPG,AFNE01.JPG,AFNE01.JPG,AFNE01.JPG,AFNE01.JPG,AFNE01.JPG,,,,,,,,,4,0,40,1,,,,,,,,,,,,,,,AMSA10.jpg,AMSA07.jpg,AMNE09.jpg,AMNE18.jpg,AMSA07.jpg,MS,2,num_6,16,num_6,0.850134020904,,,2017_May_02_1656,60.000942951,MAFE4ImagesEEG,001,100281,
AFNE01.JPG,AFNE01.JPG,AFNE01.JPG,AFNE01.JPG,AFNE01.JPG,AFNE01.JPG,,,,,,,,,4,1,41,2,,,,,,,,,,,,,,,AMNE06.jpg,AMNE12.jpg,AMSA04.jpg,AMSA03.jpg,AMSA03.jpg,MS,2,num_4,16,num_4,1.18343292829,,,2017_May_02_1656,60.000942951,MAFE4ImagesEEG,001,100281,
AFNE01.JPG,AFNE01.JPG,AFNE01.JPG,AFNE01.JPG,AFNE01.JPG,AFNE01.JPG,,,,,,,,,4,2,42,5,,,,,,,,,,,,,,,AMSA12.jpg,AMSA03.jpg,AMNE05.jpg,AMNE03.jpg,AMNE03.jpg,MN,1,num_4,32,num_2,3.36664679158,,,2017_May_02_1656,60.000942951,MAFE4ImagesEEG,001,100281,
AFNE01.JPG,AFNE01.JPG,AFNE01.JPG,AFNE01.JPG,AFNE01.JPG,AFNE01.JPG,,,,,,,,,4,3,43,4,,,,,,,,,,,,,,,AMNE11.jpg,AMNE03.jpg,AMSA03.jpg,AMSA16.jpg,AMSA03.jpg,MS,2,num_2,32,num_6,1.20004592976,,,2017_May_02_1656,60.000942951,MAFE4ImagesEEG,001,100281,
AFNE01.JPG,AFNE01.JPG,AFNE01.JPG,AFNE01.JPG,AFNE01.JPG,AFNE01.JPG,,,,,,,,,4,4,44,0,,,,,,,,,,,,,,,AMNE11.jpg,AMSA08.jpg,AMNE20.jpg,AMSA13.jpg,AMNE20.jpg,MN,1,num_2,32,num_4,1.26683054306,,,2017_May_02_1656,60.000942951,MAFE4ImagesEEG,001,100281,
AFNE01.JPG,AFNE01.JPG,AFNE01.JPG,AFNE01.JPG,AFNE01.JPG,AFNE01.JPG,,,,,,,,,4,5,45,7,,,,,,,,,,,,,,,AMSA05.jpg,AMNE19.jpg,AMNE03.jpg,AMSA20.jpg,AMSA05.jpg,MS,2,num_8,16,num_8,1.03375490219,,,2017_May_02_1656,60.000942951,MAFE4ImagesEEG,001,100281,
AFNE01.JPG,AFNE01.JPG,AFNE01.JPG,AFNE01.JPG,AFNE01.JPG,AFNE01.JPG,,,,,,,,,4,6,46,9,,,,,,,,,,,,,,,AMSA13.jpg,AMSA03.jpg,AMNE20.jpg,AMNE04.jpg,AMSA03.jpg,MS,2,num_6,32,num_2,1.26669519092,,,2017_May_02_1656,60.000942951,MAFE4ImagesEEG,001,100281,
AFNE01.JPG,AFNE01.JPG,AFNE01.JPG,AFNE01.JPG,AFNE01.JPG,AFNE01.JPG,,,,,,,,,4,7,47,8,,,,,,,,,,,,,,,AMNE18.jpg,AMNE02.jpg,AMSA02.jpg,AMSA19.jpg,AMSA19.jpg,MS,2,num_4,32,num_6,3.38338680589,,,2017_May_02_1656,60.000942951,MAFE4ImagesEEG,001,100281,
AFNE01.JPG,AFNE01.JPG,AFNE01.JPG,AFNE01.JPG,AFNE01.JPG,AFNE01.JPG,,,,,,,,,4,8,48,6,,,,,,,,,,,,,,,AMSA17.jpg,AMNE18.jpg,AMSA07.jpg,AMNE06.jpg,AMSA07.jpg,MS,2,num_2,16,num_2,2.70001016743,,,2017_May_02_1656,60.000942951,MAFE4ImagesEEG,001,100281,
AFNE01.JPG,AFNE01.JPG,AFNE01.JPG,AFNE01.JPG,AFNE01.JPG,AFNE01.JPG,,,,,,,,,4,9,49,3,,,,,,,,,,,,,,,AMNE18.jpg,AMSA07.jpg,AMSA18.jpg,AMNE03.jpg,AMNE03.jpg,MN,1,num_4,32,num_8,1.73337280564,,,2017_May_02_1656,60.000942951,MAFE4ImagesEEG,001,100281,
AFNE01.JPG,AFNE01.JPG,AFNE01.JPG,AFNE01.JPG,AFNE01.JPG,AFNE01.JPG,,,,,,,,,5,0,50,3,,,,,,,,,,,,,,,AMSA12.jpg,AMSA17.jpg,AMNE09.jpg,AMNE17.jpg,AMSA17.jpg,MS,2,num_6,16,num_6,0.716768143233,,,2017_May_02_1656,60.000942951,MAFE4ImagesEEG,001,100281,
AFNE01.JPG,AFNE01.JPG,AFNE01.JPG,AFNE01.JPG,AFNE01.JPG,AFNE01.JPG,,,,,,,,,5,1,51,7,,,,,,,,,,,,,,,AMSA01.jpg,AMNE19.jpg,AMSA03.jpg,AMNE18.jpg,AMSA01.jpg,MS,2,num_8,48,None,,,,2017_May_02_1656,60.000942951,MAFE4ImagesEEG,001,100281,
AFNE01.JPG,AFNE01.JPG,AFNE01.JPG,AFNE01.JPG,AFNE01.JPG,AFNE01.JPG,,,,,,,,,5,2,52,9,,,,,,,,,,,,,,,AMNE12.jpg,AMSA17.jpg,AMNE20.jpg,AMSA03.jpg,AMNE12.jpg,MN,1,num_8,32,num_6,0.600131053943,,,2017_May_02_1656,60.000942951,MAFE4ImagesEEG,001,100281,
AFNE01.JPG,AFNE01.JPG,AFNE01.JPG,AFNE01.JPG,AFNE01.JPG,AFNE01.JPG,,,,,,,,,5,3,53,5,,,,,,,,,,,,,,,AMSA07.jpg,AMNE18.jpg,AMSA13.jpg,AMNE07.jpg,AMNE07.jpg,MN,1,num_4,16,num_4,1.21675515315,,,2017_May_02_1656,60.000942951,MAFE4ImagesEEG,001,100281,
AFNE01.JPG,AFNE01.JPG,AFNE01.JPG,AFNE01.JPG,AFNE01.JPG,AFNE01.JPG,,,,,,,,,5,4,54,2,,,,,,,,,,,,,,,AMSA14.jpg,AMSA18.jpg,AMNE13.jpg,AMNE09.jpg,AMNE09.jpg,MN,1,num_4,16,num_4,0.683466445422,,,2017_May_02_1656,60.000942951,MAFE4ImagesEEG,001,100281,
AFNE01.JPG,AFNE01.JPG,AFNE01.JPG,AFNE01.JPG,AFNE01.JPG,AFNE01.JPG,,,,,,,,,5,5,55,4,,,,,,,,,,,,,,,AMSA09.jpg,AMNE17.jpg,AMSA08.jpg,AMNE10.jpg,AMNE17.jpg,MN,1,num_6,32,num_2,1.45005627372,,,2017_May_02_1656,60.000942951,MAFE4ImagesEEG,001,100281,
AFNE01.JPG,AFNE01.JPG,AFNE01.JPG,AFNE01.JPG,AFNE01.JPG,AFNE01.JPG,,,,,,,,,5,6,56,8,,,,,,,,,,,,,,,AMNE12.jpg,AMNE01.jpg,AMSA11.jpg,AMSA16.jpg,AMNE12.jpg,MN,1,num_8,32,num_4,1.3167253565,,,2017_May_02_1656,60.000942951,MAFE4ImagesEEG,001,100281,
AFNE01.JPG,AFNE01.JPG,AFNE01.JPG,AFNE01.JPG,AFNE01.JPG,AFNE01.JPG,,,,,,,,,5,7,57,6,,,,,,,,,,,,,,,AMSA03.jpg,AMNE03.jpg,AMSA17.jpg,AMNE10.jpg,AMNE03.jpg,MN,1,num_6,32,num_4,0.9667656573,,,2017_May_02_1656,60.000942951,MAFE4ImagesEEG,001,100281,
AFNE01.JPG,AFNE01.JPG,AFNE01.JPG,AFNE01.JPG,AFNE01.JPG,AFNE01.JPG,,,,,,,,,5,8,58,0,,,,,,,,,,,,,,,AMSA05.jpg,AMNE05.jpg,AMSA09.jpg,AMNE02.jpg,AMNE02.jpg,MN,1,num_4,32,num_8,1.750110575,,,2017_May_02_1656,60.000942951,MAFE4ImagesEEG,001,100281,
AFNE01.JPG,AFNE01.JPG,AFNE01.JPG,AFNE01.JPG,AFNE01.JPG,AFNE01.JPG,,,,,,,,,5,9,59,1,,,,,,,,,,,,,,,AMNE18.jpg,AMSA13.jpg,AMSA02.jpg,AMNE08.jpg,AMSA02.jpg,MS,2,num_2,16,num_2,1.46673053643,,,2017_May_02_1656,60.000942951,MAFE4ImagesEEG,001,100281,
,,,,,,,,,,,,,,,,,,,,,,,,,,,,,,,,,,,,,,,,,,,space,15.5987191605,2017_May_02_1656,60.000942951,MAFE4ImagesEEG,001,100281,
AFNE01.JPG,AFNE01.JPG,AFNE01.JPG,AFNE01.JPG,AFNE01.JPG,AFNE01.JPG,,,,,,,,,,,,,0,0,0,4,,,,,,,,,,,AFNE04.jpg,AFNE07.jpg,AFSA13.jpg,AFSA16.jpg,AFNE04.jpg,FN,3,num_8,32,num_6,1.58340739715,,,2017_May_02_1656,60.000942951,MAFE4ImagesEEG,001,100281,
AFNE01.JPG,AFNE01.JPG,AFNE01.JPG,AFNE01.JPG,AFNE01.JPG,AFNE01.JPG,,,,,,,,,,,,,0,1,1,8,,,,,,,,,,,AFSA20.jpg,AFSA08.jpg,AFNE06.jpg,AFNE12.jpg,AFNE06.jpg,FN,3,num_2,16,num_2,1.06677563232,,,2017_May_02_1656,60.000942951,MAFE4ImagesEEG,001,100281,
AFNE01.JPG,AFNE01.JPG,AFNE01.JPG,AFNE01.JPG,AFNE01.JPG,AFNE01.JPG,,,,,,,,,,,,,0,2,2,9,,,,,,,,,,,AFSA13.jpg,AFNE05.jpg,AFNE03.jpg,AFSA15.jpg,AFNE03.jpg,FN,3,num_2,32,num_4,1.30007963954,,,2017_May_02_1656,60.000942951,MAFE4ImagesEEG,001,100281,
AFNE01.JPG,AFNE01.JPG,AFNE01.JPG,AFNE01.JPG,AFNE01.JPG,AFNE01.JPG,,,,,,,,,,,,,0,3,3,0,,,,,,,,,,,AFSA07.jpg,AFNE01.jpg,AFNE14.jpg,AFSA14.jpg,AFSA14.jpg,FS,4,num_4,32,num_2,1.71668186435,,,2017_May_02_1656,60.000942951,MAFE4ImagesEEG,001,100281,
AFNE01.JPG,AFNE01.JPG,AFNE01.JPG,AFNE01.JPG,AFNE01.JPG,AFNE01.JPG,,,,,,,,,,,,,0,4,4,1,,,,,,,,,,,AFSA10.jpg,AFSA06.jpg,AFNE01.jpg,AFNE04.jpg,AFNE04.jpg,FN,3,num_4,16,num_4,1.05011291616,,,2017_May_02_1656,60.000942951,MAFE4ImagesEEG,001,100281,
AFNE01.JPG,AFNE01.JPG,AFNE01.JPG,AFNE01.JPG,AFNE01.JPG,AFNE01.JPG,,,,,,,,,,,,,0,5,5,2,,,,,,,,,,,AFNE09.jpg,AFNE10.jpg,AFSA14.jpg,AFSA20.jpg,AFNE09.jpg,FN,3,num_8,32,num_2,1.83343281597,,,2017_May_02_1656,60.000942951,MAFE4ImagesEEG,001,100281,
AFNE01.JPG,AFNE01.JPG,AFNE01.JPG,AFNE01.JPG,AFNE01.JPG,AFNE01.JPG,,,,,,,,,,,,,0,6,6,5,,,,,,,,,,,AFNE17.jpg,AFSA15.jpg,AFSA04.jpg,AFNE12.jpg,AFSA15.jpg,FS,4,num_6,32,num_4,3.31640076847,,,2017_May_02_1656,60.000942951,MAFE4ImagesEEG,001,100281,
AFNE01.JPG,AFNE01.JPG,AFNE01.JPG,AFNE01.JPG,AFNE01.JPG,AFNE01.JPG,,,,,,,,,,,,,0,7,7,7,,,,,,,,,,,AFNE07.jpg,AFSA19.jpg,AFNE11.jpg,AFSA05.jpg,AFNE11.jpg,FN,3,num_2,16,num_2,1.26658710209,,,2017_May_02_1656,60.000942951,MAFE4ImagesEEG,001,100281,
AFNE01.JPG,AFNE01.JPG,AFNE01.JPG,AFNE01.JPG,AFNE01.JPG,AFNE01.JPG,,,,,,,,,,,,,0,8,8,3,,,,,,,,,,,AFNE20.jpg,AFNE18.jpg,AFSA18.jpg,AFSA16.jpg,AFSA16.jpg,FS,4,num_4,16,num_4,1.10011742264,,,2017_May_02_1656,60.000942951,MAFE4ImagesEEG,001,100281,
AFNE01.JPG,AFNE01.JPG,AFNE01.JPG,AFNE01.JPG,AFNE01.JPG,AFNE01.JPG,,,,,,,,,,,,,0,9,9,6,,,,,,,,,,,AFNE12.jpg,AFSA16.jpg,AFSA07.jpg,AFNE16.jpg,AFSA07.jpg,FS,4,num_2,16,num_2,0.866807000712,,,2017_May_02_1656,60.000942951,MAFE4ImagesEEG,001,100281,
AFNE01.JPG,AFNE01.JPG,AFNE01.JPG,AFNE01.JPG,AFNE01.JPG,AFNE01.JPG,,,,,,,,,,,,,1,0,10,0,,,,,,,,,,,AFSA11.jpg,AFNE17.jpg,AFSA06.jpg,AFNE03.jpg,AFNE17.jpg,FN,3,num_6,16,num_6,0.783493740251,,,2017_May_02_1656,60.000942951,MAFE4ImagesEEG,001,100281,
AFNE01.JPG,AFNE01.JPG,AFNE01.JPG,AFNE01.JPG,AFNE01.JPG,AFNE01.JPG,,,,,,,,,,,,,1,1,11,5,,,,,,,,,,,AFNE16.jpg,AFSA11.jpg,AFNE01.jpg,AFSA15.jpg,AFSA15.jpg,FS,4,num_4,16,num_4,1.41671897378,,,2017_May_02_1656,60.000942951,MAFE4ImagesEEG,001,100281,
AFNE01.JPG,AFNE01.JPG,AFNE01.JPG,AFNE01.JPG,AFNE01.JPG,AFNE01.JPG,,,,,,,,,,,,,1,2,12,1,,,,,,,,,,,AFNE18.jpg,AFSA01.jpg,AFSA20.jpg,AFNE13.jpg,AFNE13.jpg,FN,3,num_4,32,num_2,1.53338396735,,,2017_May_02_1656,60.000942951,MAFE4ImagesEEG,001,100281,
AFNE01.JPG,AFNE01.JPG,AFNE01.JPG,AFNE01.JPG,AFNE01.JPG,AFNE01.JPG,,,,,,,,,,,,,1,3,13,7,,,,,,,,,,,AFNE13.jpg,AFNE14.jpg,AFSA05.jpg,AFSA10.jpg,AFNE13.jpg,FN,3,num_8,32,num_4,2.0666592042,,,2017_May_02_1656,60.000942951,MAFE4ImagesEEG,001,100281,
AFNE01.JPG,AFNE01.JPG,AFNE01.JPG,AFNE01.JPG,AFNE01.JPG,AFNE01.JPG,,,,,,,,,,,,,1,4,14,6,,,,,,,,,,,AFSA02.jpg,AFSA11.jpg,AFNE01.jpg,AFNE10.jpg,AFNE01.jpg,FN,3,num_2,32,num_4,1.66668120702,,,2017_May_02_1656,60.000942951,MAFE4ImagesEEG,001,100281,
AFNE01.JPG,AFNE01.JPG,AFNE01.JPG,AFNE01.JPG,AFNE01.JPG,AFNE01.JPG,,,,,,,,,,,,,1,5,15,9,,,,,,,,,,,AFSA05.jpg,AFNE05.jpg,AFSA03.jpg,AFNE06.jpg,AFSA05.jpg,FS,4,num_8,16,num_8,3.84985305322,,,2017_May_02_1656,60.000942951,MAFE4ImagesEEG,001,100281,
AFNE01.JPG,AFNE01.JPG,AFNE01.JPG,AFNE01.JPG,AFNE01.JPG,AFNE01.JPG,,,,,,,,,,,,,1,6,16,3,,,,,,,,,,,AFSA12.jpg,AFNE10.jpg,AFNE04.jpg,AFSA17.jpg,AFSA17.jpg,FS,4,num_4,32,num_2,1.41672218125,,,2017_May_02_1656,60.000942951,MAFE4ImagesEEG,001,100281,
AFNE01.JPG,AFNE01.JPG,AFNE01.JPG,AFNE01.JPG,AFNE01.JPG,AFNE01.JPG,,,,,,,,,,,,,1,7,17,4,,,,,,,,,,,AFNE13.jpg,AFSA20.jpg,AFNE20.jpg,AFSA10.jpg,AFNE20.jpg,FN,3,num_2,32,num_6,0.633501389762,,,2017_May_02_1656,60.000942951,MAFE4ImagesEEG,001,100281,
AFNE01.JPG,AFNE01.JPG,AFNE01.JPG,AFNE01.JPG,AFNE01.JPG,AFNE01.JPG,,,,,,,,,,,,,1,8,18,8,,,,,,,,,,,AFNE13.jpg,AFNE11.jpg,AFSA18.jpg,AFSA19.jpg,AFSA19.jpg,FS,4,num_4,32,num_8,2.91643335577,,,2017_May_02_1656,60.000942951,MAFE4ImagesEEG,001,100281,
AFNE01.JPG,AFNE01.JPG,AFNE01.JPG,AFNE01.JPG,AFNE01.JPG,AFNE01.JPG,,,,,,,,,,,,,1,9,19,2,,,,,,,,,,,AFSA19.jpg,AFNE03.jpg,AFSA15.jpg,AFNE06.jpg,AFSA15.jpg,FS,4,num_2,16,num_2,0.950069263577,,,2017_May_02_1656,60.000942951,MAFE4ImagesEEG,001,100281,
AFNE01.JPG,AFNE01.JPG,AFNE01.JPG,AFNE01.JPG,AFNE01.JPG,AFNE01.JPG,,,,,,,,,,,,,2,0,20,7,,,,,,,,,,,AFNE04.jpg,AFSA17.jpg,AFNE07.jpg,AFSA05.jpg,AFSA05.jpg,FS,4,num_4,32,num_2,1.16676219343,,,2017_May_02_1656,60.000942951,MAFE4ImagesEEG,001,100281,
AFNE01.JPG,AFNE01.JPG,AFNE01.JPG,AFNE01.JPG,AFNE01.JPG,AFNE01.JPG,,,,,,,,,,,,,2,1,21,9,,,,,,,,,,,AFSA17.jpg,AFNE09.jpg,AFSA18.jpg,AFNE02.jpg,AFNE09.jpg,FN,3,num_6,32,num_4,2.08360384987,,,2017_May_02_1656,60.000942951,MAFE4ImagesEEG,001,100281,
AFNE01.JPG,AFNE01.JPG,AFNE01.JPG,AFNE01.JPG,AFNE01.JPG,AFNE01.JPG,,,,,,,,,,,,,2,2,22,2,,,,,,,,,,,AFSA07.jpg,AFSA18.jpg,AFNE06.jpg,AFNE11.jpg,AFNE11.jpg,FN,3,num_4,32,num_2,2.28327772254,,,2017_May_02_1656,60.000942951,MAFE4ImagesEEG,001,100281,
AFNE01.JPG,AFNE01.JPG,AFNE01.JPG,AFNE01.JPG,AFNE01.JPG,AFNE01.JPG,,,,,,,,,,,,,2,3,23,3,,,,,,,,,,,AFSA17.jpg,AFNE03.jpg,AFSA13.jpg,AFNE17.jpg,AFNE03.jpg,FN,3,num_6,16,num_6,0.933457865613,,,2017_May_02_1656,60.000942951,MAFE4ImagesEEG,001,100281,
AFNE01.JPG,AFNE01.JPG,AFNE01.JPG,AFNE01.JPG,AFNE01.JPG,AFNE01.JPG,,,,,,,,,,,,,2,4,24,5,,,,,,,,,,,AFNE19.jpg,AFSA17.jpg,AFSA15.jpg,AFNE10.jpg,AFNE19.jpg,FN,3,num_8,32,num_4,0.833480926929,,,2017_May_02_1656,60.000942951,MAFE4ImagesEEG,001,100281,
AFNE01.JPG,AFNE01.JPG,AFNE01.JPG,AFNE01.JPG,AFNE01.JPG,AFNE01.JPG,,,,,,,,,,,,,2,5,25,0,,,,,,,,,,,AFSA10.jpg,AFNE01.jpg,AFNE16.jpg,AFSA03.jpg,AFSA03.jpg,FS,4,num_4,16,num_4,0.850103229983,,,2017_May_02_1656,60.000942951,MAFE4ImagesEEG,001,100281,
AFNE01.JPG,AFNE01.JPG,AFNE01.JPG,AFNE01.JPG,AFNE01.JPG,AFNE01.JPG,,,,,,,,,,,,,2,6,26,8,,,,,,,,,,,AFSA20.jpg,AFSA19.jpg,AFNE16.jpg,AFNE12.jpg,AFSA19.jpg,FS,4,num_6,16,num_6,0.55014322605,,,2017_May_02_1656,60.000942951,MAFE4ImagesEEG,001,100281,
AFNE01.JPG,AFNE01.JPG,AFNE01.JPG,AFNE01.JPG,AFNE01.JPG,AFNE01.JPG,,,,,,,,,,,,,2,7,27,1,,,,,,,,,,,AFSA10.jpg,AFSA14.jpg,AFNE01.jpg,AFNE03.jpg,AFSA14.jpg,FS,4,num_6,32,num_8,0.850154548185,,,2017_May_02_1656,60.000942951,MAFE4ImagesEEG,001,100281,
AFNE01.JPG,AFNE01.JPG,AFNE01.JPG,AFNE01.JPG,AFNE01.JPG,AFNE01.JPG,,,,,,,,,,,,,2,8,28,6,,,,,,,,,,,AFSA07.jpg,AFNE20.jpg,AFNE02.jpg,AFSA17.jpg,AFNE02.jpg,FN,3,num_2,32,num_6,4.11650205799,,,2017_May_02_1656,60.000942951,MAFE4ImagesEEG,001,100281,
AFNE01.JPG,AFNE01.JPG,AFNE01.JPG,AFNE01.JPG,AFNE01.JPG,AFNE01.JPG,,,,,,,,,,,,,2,9,29,4,,,,,,,,,,,AFNE18.jpg,AFSA01.jpg,AFNE17.jpg,AFSA07.jpg,AFNE18.jpg,FN,3,num_8,16,num_8,1.26671219012,,,2017_May_02_1656,60.000942951,MAFE4ImagesEEG,001,100281,
AFNE01.JPG,AFNE01.JPG,AFNE01.JPG,AFNE01.JPG,AFNE01.JPG,AFNE01.JPG,,,,,,,,,,,,,3,0,30,9,,,,,,,,,,,AFNE20.jpg,AFNE07.jpg,AFSA16.jpg,AFSA11.jpg,AFSA16.jpg,FS,4,num_2,16,num_2,1.16677309852,,,2017_May_02_1656,60.000942951,MAFE4ImagesEEG,001,100281,
AFNE01.JPG,AFNE01.JPG,AFNE01.JPG,AFNE01.JPG,AFNE01.JPG,AFNE01.JPG,,,,,,,,,,,,,3,1,31,6,,,,,,,,,,,AFNE07.jpg,AFNE08.jpg,AFSA19.jpg,AFSA14.jpg,AFSA14.jpg,FS,4,num_4,16,num_4,1.01675573038,,,2017_May_02_1656,60.000942951,MAFE4ImagesEEG,001,100281,
AFNE01.JPG,AFNE01.JPG,AFNE01.JPG,AFNE01.JPG,AFNE01.JPG,AFNE01.JPG,,,,,,,,,,,,,3,2,32,2,,,,,,,,,,,AFSA19.jpg,AFNE20.jpg,AFNE13.jpg,AFSA18.jpg,AFNE20.jpg,FN,3,num_6,16,num_6,0.633496257942,,,2017_May_02_1656,60.000942951,MAFE4ImagesEEG,001,100281,
AFNE01.JPG,AFNE01.JPG,AFNE01.JPG,AFNE01.JPG,AFNE01.JPG,AFNE01.JPG,,,,,,,,,,,,,3,3,33,7,,,,,,,,,,,AFNE04.jpg,AFSA03.jpg,AFNE20.jpg,AFSA15.jpg,AFSA03.jpg,FS,4,num_6,32,num_4,1.41673501092,,,2017_May_02_1656,60.000942951,MAFE4ImagesEEG,001,100281,
AFNE01.JPG,AFNE01.JPG,AFNE01.JPG,AFNE01.JPG,AFNE01.JPG,AFNE01.JPG,,,,,,,,,,,,,3,4,34,8,,,,,,,,,,,AFSA16.jpg,AFNE20.jpg,AFNE19.jpg,AFSA03.jpg,AFNE19.jpg,FN,3,num_2,16,num_2,1.05012414185,,,2017_May_02_1656,60.000942951,MAFE4ImagesEEG,001,100281,
AFNE01.JPG,AFNE01.JPG,AFNE01.JPG,AFNE01.JPG,AFNE01.JPG,AFNE01.JPG,,,,,,,,,,,,,3,5,35,5,,,,,,,,,,,AFSA04.jpg,AFNE11.jpg,AFNE19.jpg,AFSA16.jpg,AFNE11.jpg,FN,3,num_6,32,num_4,1.15006772405,,,2017_May_02_1656,60.000942951,MAFE4ImagesEEG,001,100281,
AFNE01.JPG,AFNE01.JPG,AFNE01.JPG,AFNE01.JPG,AFNE01.JPG,AFNE01.JPG,,,,,,,,,,,,,3,6,36,4,,,,,,,,,,,AFNE15.jpg,AFSA15.jpg,AFSA11.jpg,AFNE01.jpg,AFNE01.jpg,FN,3,num_4,32,num_8,2.29999368126,,,2017_May_02_1656,60.000942951,MAFE4ImagesEEG,001,100281,
AFNE01.JPG,AFNE01.JPG,AFNE01.JPG,AFNE01.JPG,AFNE01.JPG,AFNE01.JPG,,,,,,,,,,,,,3,7,37,1,,,,,,,,,,,AFSA05.jpg,AFSA03.jpg,AFNE15.jpg,AFNE19.jpg,AFSA03.jpg,FS,4,num_6,32,num_4,0.800158380764,,,2017_May_02_1656,60.000942951,MAFE4ImagesEEG,001,100281,
AFNE01.JPG,AFNE01.JPG,AFNE01.JPG,AFNE01.JPG,AFNE01.JPG,AFNE01.JPG,,,,,,,,,,,,,3,8,38,3,,,,,,,,,,,AFNE16.jpg,AFNE20.jpg,AFSA03.jpg,AFSA08.jpg,AFSA03.jpg,FS,4,num_2,32,num_4,0.950081772404,,,2017_May_02_1656,60.000942951,MAFE4ImagesEEG,001,100281,
AFNE01.JPG,AFNE01.JPG,AFNE01.JPG,AFNE01.JPG,AFNE01.JPG,AFNE01.JPG,,,,,,,,,,,,,3,9,39,0,,,,,,,,,,,AFSA01.jpg,AFNE04.jpg,AFNE19.jpg,AFSA12.jpg,AFSA12.jpg,FS,4,num_4,16,num_4,0.933452413185,,,2017_May_02_1656,60.000942951,MAFE4ImagesEEG,001,100281,
AFNE01.JPG,AFNE01.JPG,AFNE01.JPG,AFNE01.JPG,AFNE01.JPG,AFNE01.JPG,,,,,,,,,,,,,4,0,40,6,,,,,,,,,,,AFNE12.jpg,AFNE14.jpg,AFSA09.jpg,AFSA07.jpg,AFSA09.jpg,FS,4,num_2,16,num_2,0.78346776031,,,2017_May_02_1656,60.000942951,MAFE4ImagesEEG,001,100281,
AFNE01.JPG,AFNE01.JPG,AFNE01.JPG,AFNE01.JPG,AFNE01.JPG,AFNE01.JPG,,,,,,,,,,,,,4,1,41,2,,,,,,,,,,,AFSA20.jpg,AFSA03.jpg,AFNE08.jpg,AFNE06.jpg,AFNE06.jpg,FN,3,num_4,16,num_4,0.566783490358,,,2017_May_02_1656,60.000942951,MAFE4ImagesEEG,001,100281,
AFNE01.JPG,AFNE01.JPG,AFNE01.JPG,AFNE01.JPG,AFNE01.JPG,AFNE01.JPG,,,,,,,,,,,,,4,2,42,3,,,,,,,,,,,AFNE02.jpg,AFNE12.jpg,AFSA09.jpg,AFSA10.jpg,AFNE12.jpg,FN,3,num_6,32,num_4,0.800151645439,,,2017_May_02_1656,60.000942951,MAFE4ImagesEEG,001,100281,
AFNE01.JPG,AFNE01.JPG,AFNE01.JPG,AFNE01.JPG,AFNE01.JPG,AFNE01.JPG,,,,,,,,,,,,,4,3,43,5,,,,,,,,,,,AFSA07.jpg,AFNE15.jpg,AFSA15.jpg,AFNE08.jpg,AFNE08.jpg,FN,3,num_4,16,num_4,0.933455941267,,,2017_May_02_1656,60.000942951,MAFE4ImagesEEG,001,100281,
AFNE01.JPG,AFNE01.JPG,AFNE01.JPG,AFNE01.JPG,AFNE01.JPG,AFNE01.JPG,,,,,,,,,,,,,4,4,44,7,,,,,,,,,,,AFNE14.jpg,AFSA16.jpg,AFNE15.jpg,AFSA11.jpg,AFSA16.jpg,FS,4,num_6,32,num_4,2.03356213775,,,2017_May_02_1656,60.000942951,MAFE4ImagesEEG,001,100281,
AFNE01.JPG,AFNE01.JPG,AFNE01.JPG,AFNE01.JPG,AFNE01.JPG,AFNE01.JPG,,,,,,,,,,,,,4,5,45,0,,,,,,,,,,,AFNE10.jpg,AFNE13.jpg,AFSA13.jpg,AFSA17.jpg,AFNE10.jpg,FN,3,num_8,16,num_8,1.03329624515,,,2017_May_02_1656,60.000942951,MAFE4ImagesEEG,001,100281,
AFNE01.JPG,AFNE01.JPG,AFNE01.JPG,AFNE01.JPG,AFNE01.JPG,AFNE01.JPG,,,,,,,,,,,,,4,6,46,8,,,,,,,,,,,AFNE02.jpg,AFSA09.jpg,AFNE05.jpg,AFSA12.jpg,AFNE05.jpg,FN,3,num_2,32,num_4,1.03342742752,,,2017_May_02_1656,60.000942951,MAFE4ImagesEEG,001,100281,
AFNE01.JPG,AFNE01.JPG,AFNE01.JPG,AFNE01.JPG,AFNE01.JPG,AFNE01.JPG,,,,,,,,,,,,,4,7,47,1,,,,,,,,,,,AFNE16.jpg,AFSA08.jpg,AFSA13.jpg,AFNE20.jpg,AFNE16.jpg,FN,3,num_8,16,num_8,0.850147171179,,,2017_May_02_1656,60.000942951,MAFE4ImagesEEG,001,100281,
AFNE01.JPG,AFNE01.JPG,AFNE01.JPG,AFNE01.JPG,AFNE01.JPG,AFNE01.JPG,,,,,,,,,,,,,4,8,48,9,,,,,,,,,,,AFSA02.jpg,AFNE08.jpg,AFSA11.jpg,AFNE15.jpg,AFNE15.jpg,FN,3,num_4,32,num_6,2.91658859327,,,2017_May_02_1656,60.000942951,MAFE4ImagesEEG,001,100281,
AFNE01.JPG,AFNE01.JPG,AFNE01.JPG,AFNE01.JPG,AFNE01.JPG,AFNE01.JPG,,,,,,,,,,,,,4,9,49,4,,,,,,,,,,,AFNE05.jpg,AFNE16.jpg,AFSA01.jpg,AFSA09.jpg,AFNE16.jpg,FN,3,num_6,32,num_8,1.21674873843,,,2017_May_02_1656,60.000942951,MAFE4ImagesEEG,001,100281,
AFNE01.JPG,AFNE01.JPG,AFNE01.JPG,AFNE01.JPG,AFNE01.JPG,AFNE01.JPG,,,,,,,,,,,,,5,0,50,6,,,,,,,,,,,AFNE13.jpg,AFSA02.jpg,AFSA09.jpg,AFNE09.jpg,AFNE09.jpg,FN,3,num_4,32,num_8,1.01676727715,,,2017_May_02_1656,60.000942951,MAFE4ImagesEEG,001,100281,
AFNE01.JPG,AFNE01.JPG,AFNE01.JPG,AFNE01.JPG,AFNE01.JPG,AFNE01.JPG,,,,,,,,,,,,,5,1,51,5,,,,,,,,,,,AFNE19.jpg,AFNE16.jpg,AFSA01.jpg,AFSA11.jpg,AFSA01.jpg,FS,4,num_2,32,num_8,0.900119924452,,,2017_May_02_1656,60.000942951,MAFE4ImagesEEG,001,100281,
AFNE01.JPG,AFNE01.JPG,AFNE01.JPG,AFNE01.JPG,AFNE01.JPG,AFNE01.JPG,,,,,,,,,,,,,5,2,52,2,,,,,,,,,,,AFSA09.jpg,AFNE08.jpg,AFSA13.jpg,AFNE01.jpg,AFSA13.jpg,FS,4,num_2,32,num_8,1.50041712122,,,2017_May_02_1656,60.000942951,MAFE4ImagesEEG,001,100281,
AFNE01.JPG,AFNE01.JPG,AFNE01.JPG,AFNE01.JPG,AFNE01.JPG,AFNE01.JPG,,,,,,,,,,,,,5,3,53,1,,,,,,,,,,,AFSA11.jpg,AFSA04.jpg,AFNE14.jpg,AFNE17.jpg,AFNE17.jpg,FN,3,num_4,32,num_8,2.40001039207,,,2017_May_02_1656,60.000942951,MAFE4ImagesEEG,001,100281,
AFNE01.JPG,AFNE01.JPG,AFNE01.JPG,AFNE01.JPG,AFNE01.JPG,AFNE01.JPG,,,,,,,,,,,,,5,4,54,4,,,,,,,,,,,AFNE08.jpg,AFNE15.jpg,AFSA12.jpg,AFSA05.jpg,AFSA12.jpg,FS,4,num_2,16,num_2,0.783458458958,,,2017_May_02_1656,60.000942951,MAFE4ImagesEEG,001,100281,
AFNE01.JPG,AFNE01.JPG,AFNE01.JPG,AFNE01.JPG,AFNE01.JPG,AFNE01.JPG,,,,,,,,,,,,,5,5,55,0,,,,,,,,,,,AFSA16.jpg,AFSA15.jpg,AFNE13.jpg,AFNE07.jpg,AFNE07.jpg,FN,3,num_4,32,num_2,1.20011937921,,,2017_May_02_1656,60.000942951,MAFE4ImagesEEG,001,100281,
AFNE01.JPG,AFNE01.JPG,AFNE01.JPG,AFNE01.JPG,AFNE01.JPG,AFNE01.JPG,,,,,,,,,,,,,5,6,56,8,,,,,,,,,,,AFSA13.jpg,AFNE08.jpg,AFSA01.jpg,AFNE12.jpg,AFSA13.jpg,FS,4,num_8,32,num_4,0.783465515357,,,2017_May_02_1656,60.000942951,MAFE4ImagesEEG,001,100281,
AFNE01.JPG,AFNE01.JPG,AFNE01.JPG,AFNE01.JPG,AFNE01.JPG,AFNE01.JPG,,,,,,,,,,,,,5,7,57,7,,,,,,,,,,,AFNE08.jpg,AFNE16.jpg,AFSA13.jpg,AFSA19.jpg,AFNE08.jpg,FN,3,num_8,16,num_8,1.45005563227,,,2017_May_02_1656,60.000942951,MAFE4ImagesEEG,001,100281,
AFNE01.JPG,AFNE01.JPG,AFNE01.JPG,AFNE01.JPG,AFNE01.JPG,AFNE01.JPG,,,,,,,,,,,,,5,8,58,9,,,,,,,,,,,AFNE11.jpg,AFSA01.jpg,AFSA08.jpg,AFNE01.jpg,AFNE01.jpg,FN,3,num_4,32,num_8,3.46657177061,,,2017_May_02_1656,60.000942951,MAFE4ImagesEEG,001,100281,
AFNE01.JPG,AFNE01.JPG,AFNE01.JPG,AFNE01.JPG,AFNE01.JPG,AFNE01.JPG,,,,,,,,,,,,,5,9,59,3,,,,,,,,,,,AFSA19.jpg,AFSA11.jpg,AFNE04.jpg,AFNE11.jpg,AFSA19.jpg,FS,4,num_8,32,num_2,0.966767581878,,,2017_May_02_1656,60.000942951,MAFE4ImagesEEG,001,100281,
,,,,,,,,,,,,,,,,,,,,,,,,,,,,,,,,,,,,,,,,,,,space,15.3653272709,2017_May_02_1656,60.000942951,MAFE4ImagesEEG,001,100281,
AFNE01.JPG,AFNE01.JPG,AFNE01.JPG,AFNE01.JPG,AFNE01.JPG,AFNE01.JPG,,,,,,,,,,,,,,,,,0,0,0,8,,,,,,,AMNE13.jpg,AMNE12.jpg,AMSA19.jpg,AMSA06.jpg,AMNE13.jpg,MN,1,num_8,16,num_8,1.65003420669,,,2017_May_02_1656,60.000942951,MAFE4ImagesEEG,001,100281,
AFNE01.JPG,AFNE01.JPG,AFNE01.JPG,AFNE01.JPG,AFNE01.JPG,AFNE01.JPG,,,,,,,,,,,,,,,,,0,1,1,2,,,,,,,AMNE20.jpg,AMNE01.jpg,AMSA18.jpg,AMSA20.jpg,AMSA20.jpg,MS,2,num_4,16,num_4,0.950094922679,,,2017_May_02_1656,60.000942951,MAFE4ImagesEEG,001,100281,
AFNE01.JPG,AFNE01.JPG,AFNE01.JPG,AFNE01.JPG,AFNE01.JPG,AFNE01.JPG,,,,,,,,,,,,,,,,,0,2,2,5,,,,,,,AMNE02.jpg,AMSA09.jpg,AMNE03.jpg,AMSA13.jpg,AMSA09.jpg,MS,2,num_6,32,num_4,1.79998325743,,,2017_May_02_1656,60.000942951,MAFE4ImagesEEG,001,100281,
AFNE01.JPG,AFNE01.JPG,AFNE01.JPG,AFNE01.JPG,AFNE01.JPG,AFNE01.JPG,,,,,,,,,,,,,,,,,0,3,3,6,,,,,,,AMNE16.jpg,AMNE18.jpg,AMSA19.jpg,AMSA15.jpg,AMNE18.jpg,MN,1,num_6,32,num_2,0.883486716077,,,2017_May_02_1656,60.000942951,MAFE4ImagesEEG,001,100281,
AFNE01.JPG,AFNE01.JPG,AFNE01.JPG,AFNE01.JPG,AFNE01.JPG,AFNE01.JPG,,,,,,,,,,,,,,,,,0,4,4,0,,,,,,,AMSA14.jpg,AMNE16.jpg,AMNE05.jpg,AMSA18.jpg,AMNE16.jpg,MN,1,num_6,32,num_8,1.50007553399,,,2017_May_02_1656,60.000942951,MAFE4ImagesEEG,001,100281,
AFNE01.JPG,AFNE01.JPG,AFNE01.JPG,AFNE01.JPG,AFNE01.JPG,AFNE01.JPG,,,,,,,,,,,,,,,,,0,5,5,9,,,,,,,AMNE13.jpg,AMSA18.jpg,AMSA14.jpg,AMNE09.jpg,AMSA18.jpg,MS,2,num_6,32,num_2,0.900127622066,,,2017_May_02_1656,60.000942951,MAFE4ImagesEEG,001,100281,
AFNE01.JPG,AFNE01.JPG,AFNE01.JPG,AFNE01.JPG,AFNE01.JPG,AFNE01.JPG,,,,,,,,,,,,,,,,,0,6,6,4,,,,,,,AMNE16.jpg,AMSA19.jpg,AMNE19.jpg,AMSA16.jpg,AMNE16.jpg,MN,1,num_8,32,num_4,1.01675124001,,,2017_May_02_1656,60.000942951,MAFE4ImagesEEG,001,100281,
AFNE01.JPG,AFNE01.JPG,AFNE01.JPG,AFNE01.JPG,AFNE01.JPG,AFNE01.JPG,,,,,,,,,,,,,,,,,0,7,7,7,,,,,,,AMNE20.jpg,AMSA07.jpg,AMSA12.jpg,AMNE06.jpg,AMNE06.jpg,MN,1,num_4,32,num_8,0.816766571486,,,2017_May_02_1656,60.000942951,MAFE4ImagesEEG,001,100281,
AFNE01.JPG,AFNE01.JPG,AFNE01.JPG,AFNE01.JPG,AFNE01.JPG,AFNE01.JPG,,,,,,,,,,,,,,,,,0,8,8,1,,,,,,,AMNE10.jpg,AMNE14.jpg,AMSA08.jpg,AMSA14.jpg,AMSA14.jpg,MS,2,num_4,32,num_2,2.41669812566,,,2017_May_02_1656,60.000942951,MAFE4ImagesEEG,001,100281,
AFNE01.JPG,AFNE01.JPG,AFNE01.JPG,AFNE01.JPG,AFNE01.JPG,AFNE01.JPG,,,,,,,,,,,,,,,,,0,9,9,3,,,,,,,AMNE04.jpg,AMNE19.jpg,AMSA01.jpg,AMSA05.jpg,AMNE04.jpg,MN,1,num_8,16,num_8,1.66702119028,,,2017_May_02_1656,60.000942951,MAFE4ImagesEEG,001,100281,
AFNE01.JPG,AFNE01.JPG,AFNE01.JPG,AFNE01.JPG,AFNE01.JPG,AFNE01.JPG,,,,,,,,,,,,,,,,,1,0,10,1,,,,,,,AMNE17.jpg,AMSA08.jpg,AMNE20.jpg,AMSA18.jpg,AMSA18.jpg,MS,2,num_4,32,num_2,1.33341180743,,,2017_May_02_1656,60.000942951,MAFE4ImagesEEG,001,100281,
AFNE01.JPG,AFNE01.JPG,AFNE01.JPG,AFNE01.JPG,AFNE01.JPG,AFNE01.JPG,,,,,,,,,,,,,,,,,1,1,11,4,,,,,,,AMNE04.jpg,AMNE19.jpg,AMSA01.jpg,AMSA15.jpg,AMSA15.jpg,MS,2,num_4,16,num_4,1.23340183264,,,2017_May_02_1656,60.000942951,MAFE4ImagesEEG,001,100281,
AFNE01.JPG,AFNE01.JPG,AFNE01.JPG,AFNE01.JPG,AFNE01.JPG,AFNE01.JPG,,,,,,,,,,,,,,,,,1,2,12,7,,,,,,,AMNE03.jpg,AMNE07.jpg,AMSA16.jpg,AMSA12.jpg,AMNE07.jpg,MN,1,num_6,32,num_2,4.34986123233,,,2017_May_02_1656,60.000942951,MAFE4ImagesEEG,001,100281,
AFNE01.JPG,AFNE01.JPG,AFNE01.JPG,AFNE01.JPG,AFNE01.JPG,AFNE01.JPG,,,,,,,,,,,,,,,,,1,3,13,6,,,,,,,AMNE14.jpg,AMSA17.jpg,AMSA05.jpg,AMNE08.jpg,AMSA17.jpg,MS,2,num_6,32,num_2,1.81668125489,,,2017_May_02_1656,60.000942951,MAFE4ImagesEEG,001,100281,
AFNE01.JPG,AFNE01.JPG,AFNE01.JPG,AFNE01.JPG,AFNE01.JPG,AFNE01.JPG,,,,,,,,,,,,,,,,,1,4,14,5,,,,,,,AMSA19.jpg,AMSA03.jpg,AMNE11.jpg,AMNE16.jpg,AMSA19.jpg,MS,2,num_8,32,num_6,1.20012579393,,,2017_May_02_1656,60.000942951,MAFE4ImagesEEG,001,100281,
AFNE01.JPG,AFNE01.JPG,AFNE01.JPG,AFNE01.JPG,AFNE01.JPG,AFNE01.JPG,,,,,,,,,,,,,,,,,1,5,15,0,,,,,,,AMNE15.jpg,AMSA12.jpg,AMNE16.jpg,AMSA03.jpg,AMNE15.jpg,MN,1,num_8,16,num_8,2.4833380857,,,2017_May_02_1656,60.000942951,MAFE4ImagesEEG,001,100281,
AFNE01.JPG,AFNE01.JPG,AFNE01.JPG,AFNE01.JPG,AFNE01.JPG,AFNE01.JPG,,,,,,,,,,,,,,,,,1,6,16,3,,,,,,,AMNE03.jpg,AMSA13.jpg,AMNE05.jpg,AMSA17.jpg,AMNE05.jpg,MN,1,num_2,16,num_2,0.783245809143,,,2017_May_02_1656,60.000942951,MAFE4ImagesEEG,001,100281,
AFNE01.JPG,AFNE01.JPG,AFNE01.JPG,AFNE01.JPG,AFNE01.JPG,AFNE01.JPG,,,,,,,,,,,,,,,,,1,7,17,2,,,,,,,AMNE04.jpg,AMSA12.jpg,AMSA09.jpg,AMNE08.jpg,AMSA12.jpg,MS,2,num_6,16,num_6,1.16671504476,,,2017_May_02_1656,60.000942951,MAFE4ImagesEEG,001,100281,
AFNE01.JPG,AFNE01.JPG,AFNE01.JPG,AFNE01.JPG,AFNE01.JPG,AFNE01.JPG,,,,,,,,,,,,,,,,,1,8,18,8,,,,,,,AMNE17.jpg,AMSA05.jpg,AMSA06.jpg,AMNE06.jpg,AMSA06.jpg,MS,2,num_2,16,num_2,0.550224052276,,,2017_May_02_1656,60.000942951,MAFE4ImagesEEG,001,100281,
AFNE01.JPG,AFNE01.JPG,AFNE01.JPG,AFNE01.JPG,AFNE01.JPG,AFNE01.JPG,,,,,,,,,,,,,,,,,1,9,19,9,,,,,,,AMSA10.jpg,AMNE10.jpg,AMSA20.jpg,AMNE17.jpg,AMNE10.jpg,MN,1,num_6,16,num_6,0.666801484069,,,2017_May_02_1656,60.000942951,MAFE4ImagesEEG,001,100281,
AFNE01.JPG,AFNE01.JPG,AFNE01.JPG,AFNE01.JPG,AFNE01.JPG,AFNE01.JPG,,,,,,,,,,,,,,,,,2,0,20,2,,,,,,,AMSA15.jpg,AMSA17.jpg,AMNE18.jpg,AMNE05.jpg,AMSA15.jpg,MS,2,num_8,16,num_8,2.08341204794,,,2017_May_02_1656,60.000942951,MAFE4ImagesEEG,001,100281,
AFNE01.JPG,AFNE01.JPG,AFNE01.JPG,AFNE01.JPG,AFNE01.JPG,AFNE01.JPG,,,,,,,,,,,,,,,,,2,1,21,7,,,,,,,AMNE07.jpg,AMNE11.jpg,AMSA15.jpg,AMSA06.jpg,AMNE07.jpg,MN,1,num_8,32,num_2,1.20015915064,,,2017_May_02_1656,60.000942951,MAFE4ImagesEEG,001,100281,
AFNE01.JPG,AFNE01.JPG,AFNE01.JPG,AFNE01.JPG,AFNE01.JPG,AFNE01.JPG,,,,,,,,,,,,,,,,,2,2,22,1,,,,,,,AMNE11.jpg,AMSA15.jpg,AMNE06.jpg,AMSA03.jpg,AMSA03.jpg,MS,2,num_4,32,num_2,0.900262332521,,,2017_May_02_1656,60.000942951,MAFE4ImagesEEG,001,100281,
AFNE01.JPG,AFNE01.JPG,AFNE01.JPG,AFNE01.JPG,AFNE01.JPG,AFNE01.JPG,,,,,,,,,,,,,,,,,2,3,23,9,,,,,,,AMSA10.jpg,AMNE16.jpg,AMSA03.jpg,AMNE13.jpg,AMSA03.jpg,MS,2,num_2,16,num_2,1.41670614434,,,2017_May_02_1656,60.000942951,MAFE4ImagesEEG,001,100281,
AFNE01.JPG,AFNE01.JPG,AFNE01.JPG,AFNE01.JPG,AFNE01.JPG,AFNE01.JPG,,,,,,,,,,,,,,,,,2,4,24,0,,,,,,,AMSA18.jpg,AMNE12.jpg,AMNE04.jpg,AMSA01.jpg,AMSA18.jpg,MS,2,num_8,32,num_2,2.31661149417,,,2017_May_02_1656,60.000942951,MAFE4ImagesEEG,001,100281,
AFNE01.JPG,AFNE01.JPG,AFNE01.JPG,AFNE01.JPG,AFNE01.JPG,AFNE01.JPG,,,,,,,,,,,,,,,,,2,5,25,3,,,,,,,AMSA06.jpg,AMNE16.jpg,AMNE12.jpg,AMSA03.jpg,AMSA06.jpg,MS,2,num_8,32,num_4,2.38340572966,,,2017_May_02_1656,60.000942951,MAFE4ImagesEEG,001,100281,
AFNE01.JPG,AFNE01.JPG,AFNE01.JPG,AFNE01.JPG,AFNE01.JPG,AFNE01.JPG,,,,,,,,,,,,,,,,,2,6,26,6,,,,,,,AMSA05.jpg,AMNE15.jpg,AMSA17.jpg,AMNE03.jpg,AMNE15.jpg,MN,1,num_6,16,num_6,1.56645409134,,,2017_May_02_1656,60.000942951,MAFE4ImagesEEG,001,100281,
AFNE01.JPG,AFNE01.JPG,AFNE01.JPG,AFNE01.JPG,AFNE01.JPG,AFNE01.JPG,,,,,,,,,,,,,,,,,2,7,27,4,,,,,,,AMSA12.jpg,AMSA07.jpg,AMNE07.jpg,AMNE10.jpg,AMSA07.jpg,MS,2,num_6,16,num_6,1.29995519272,,,2017_May_02_1656,60.000942951,MAFE4ImagesEEG,001,100281,
AFNE01.JPG,AFNE01.JPG,AFNE01.JPG,AFNE01.JPG,AFNE01.JPG,AFNE01.JPG,,,,,,,,,,,,,,,,,2,8,28,5,,,,,,,AMNE14.jpg,AMSA01.jpg,AMSA07.jpg,AMNE16.jpg,AMNE14.jpg,MN,1,num_8,32,num_2,1.43337912415,,,2017_May_02_1656,60.000942951,MAFE4ImagesEEG,001,100281,
AFNE01.JPG,AFNE01.JPG,AFNE01.JPG,AFNE01.JPG,AFNE01.JPG,AFNE01.JPG,,,,,,,,,,,,,,,,,2,9,29,8,,,,,,,AMSA08.jpg,AMNE08.jpg,AMSA18.jpg,AMNE11.jpg,AMNE11.jpg,MN,1,num_4,32,num_6,1.43339933059,,,2017_May_02_1656,60.000942951,MAFE4ImagesEEG,001,100281,
AFNE01.JPG,AFNE01.JPG,AFNE01.JPG,AFNE01.JPG,AFNE01.JPG,AFNE01.JPG,,,,,,,,,,,,,,,,,3,0,30,3,,,,,,,AMSA11.jpg,AMNE19.jpg,AMNE15.jpg,AMSA15.jpg,AMNE15.jpg,MN,1,num_2,32,num_4,1.94999292772,,,2017_May_02_1656,60.000942951,MAFE4ImagesEEG,001,100281,
AFNE01.JPG,AFNE01.JPG,AFNE01.JPG,AFNE01.JPG,AFNE01.JPG,AFNE01.JPG,,,,,,,,,,,,,,,,,3,1,31,1,,,,,,,AMNE19.jpg,AMSA01.jpg,AMSA02.jpg,AMNE06.jpg,AMSA01.jpg,MS,2,num_6,16,num_6,2.73328299867,,,2017_May_02_1656,60.000942951,MAFE4ImagesEEG,001,100281,
AFNE01.JPG,AFNE01.JPG,AFNE01.JPG,AFNE01.JPG,AFNE01.JPG,AFNE01.JPG,,,,,,,,,,,,,,,,,3,2,32,9,,,,,,,AMNE03.jpg,AMSA20.jpg,AMNE11.jpg,AMSA07.jpg,AMNE03.jpg,MN,1,num_8,32,num_2,2.23319463502,,,2017_May_02_1656,60.000942951,MAFE4ImagesEEG,001,100281,
AFNE01.JPG,AFNE01.JPG,AFNE01.JPG,AFNE01.JPG,AFNE01.JPG,AFNE01.JPG,,,,,,,,,,,,,,,,,3,3,33,0,,,,,,,AMSA11.jpg,AMSA07.jpg,AMNE18.jpg,AMNE01.jpg,AMSA11.jpg,MS,2,num_8,16,num_8,0.600139713846,,,2017_May_02_1656,60.000942951,MAFE4ImagesEEG,001,100281,
AFNE01.JPG,AFNE01.JPG,AFNE01.JPG,AFNE01.JPG,AFNE01.JPG,AFNE01.JPG,,,,,,,,,,,,,,,,,3,4,34,2,,,,,,,AMSA05.jpg,AMSA11.jpg,AMNE13.jpg,AMNE11.jpg,AMSA05.jpg,MS,2,num_8,32,num_2,1.46671866905,,,2017_May_02_1656,60.000942951,MAFE4ImagesEEG,001,100281,
AFNE01.JPG,AFNE01.JPG,AFNE01.JPG,AFNE01.JPG,AFNE01.JPG,AFNE01.JPG,,,,,,,,,,,,,,,,,3,5,35,5,,,,,,,AMSA06.jpg,AMNE09.jpg,AMSA18.jpg,AMNE12.jpg,AMSA06.jpg,MS,2,num_8,32,num_4,1.93328787386,,,2017_May_02_1656,60.000942951,MAFE4ImagesEEG,001,100281,
AFNE01.JPG,AFNE01.JPG,AFNE01.JPG,AFNE01.JPG,AFNE01.JPG,AFNE01.JPG,,,,,,,,,,,,,,,,,3,6,36,7,,,,,,,AMNE09.jpg,AMNE13.jpg,AMSA01.jpg,AMSA05.jpg,AMSA01.jpg,MS,2,num_2,32,num_4,1.80020809546,,,2017_May_02_1656,60.000942951,MAFE4ImagesEEG,001,100281,
AFNE01.JPG,AFNE01.JPG,AFNE01.JPG,AFNE01.JPG,AFNE01.JPG,AFNE01.JPG,,,,,,,,,,,,,,,,,3,7,37,4,,,,,,,AMSA02.jpg,AMNE12.jpg,AMNE17.jpg,AMSA18.jpg,AMNE12.jpg,MN,1,num_6,32,num_2,1.11674165027,,,2017_May_02_1656,60.000942951,MAFE4ImagesEEG,001,100281,
AFNE01.JPG,AFNE01.JPG,AFNE01.JPG,AFNE01.JPG,AFNE01.JPG,AFNE01.JPG,,,,,,,,,,,,,,,,,3,8,38,6,,,,,,,AMSA14.jpg,AMNE16.jpg,AMNE11.jpg,AMSA03.jpg,AMSA14.jpg,MS,2,num_8,32,num_2,2.80001019966,,,2017_May_02_1656,60.000942951,MAFE4ImagesEEG,001,100281,
AFNE01.JPG,AFNE01.JPG,AFNE01.JPG,AFNE01.JPG,AFNE01.JPG,AFNE01.JPG,,,,,,,,,,,,,,,,,3,9,39,8,,,,,,,AMNE20.jpg,AMSA10.jpg,AMNE11.jpg,AMSA02.jpg,AMSA10.jpg,MS,2,num_6,16,num_6,1.4834089689,,,2017_May_02_1656,60.000942951,MAFE4ImagesEEG,001,100281,
AFNE01.JPG,AFNE01.JPG,AFNE01.JPG,AFNE01.JPG,AFNE01.JPG,AFNE01.JPG,,,,,,,,,,,,,,,,,4,0,40,2,,,,,,,AMNE14.jpg,AMNE08.jpg,AMSA05.jpg,AMSA13.jpg,AMNE08.jpg,MN,1,num_6,32,num_2,1.16673108167,,,2017_May_02_1656,60.000942951,MAFE4ImagesEEG,001,100281,
AFNE01.JPG,AFNE01.JPG,AFNE01.JPG,AFNE01.JPG,AFNE01.JPG,AFNE01.JPG,,,,,,,,,,,,,,,,,4,1,41,8,,,,,,,AMNE14.jpg,AMSA18.jpg,AMSA11.jpg,AMNE04.jpg,AMSA18.jpg,MS,2,num_6,32,num_8,1.83337091329,,,2017_May_02_1656,60.000942951,MAFE4ImagesEEG,001,100281,
AFNE01.JPG,AFNE01.JPG,AFNE01.JPG,AFNE01.JPG,AFNE01.JPG,AFNE01.JPG,,,,,,,,,,,,,,,,,4,2,42,7,,,,,,,AMNE12.jpg,AMNE15.jpg,AMSA05.jpg,AMSA18.jpg,AMSA18.jpg,MS,2,num_4,32,num_6,1.40006299317,,,2017_May_02_1656,60.000942951,MAFE4ImagesEEG,001,100281,
AFNE01.JPG,AFNE01.JPG,AFNE01.JPG,AFNE01.JPG,AFNE01.JPG,AFNE01.JPG,,,,,,,,,,,,,,,,,4,3,43,3,,,,,,,AMNE03.jpg,AMSA17.jpg,AMSA09.jpg,AMNE09.jpg,AMSA09.jpg,MS,2,num_2,32,num_4,2.44984586886,,,2017_May_02_1656,60.000942951,MAFE4ImagesEEG,001,100281,
AFNE01.JPG,AFNE01.JPG,AFNE01.JPG,AFNE01.JPG,AFNE01.JPG,AFNE01.JPG,,,,,,,,,,,,,,,,,4,4,44,4,,,,,,,AMNE13.jpg,AMSA01.jpg,AMNE08.jpg,AMSA17.jpg,AMNE13.jpg,MN,1,num_8,32,num_6,1.20011809608,,,2017_May_02_1656,60.000942951,MAFE4ImagesEEG,001,100281,
AFNE01.JPG,AFNE01.JPG,AFNE01.JPG,AFNE01.JPG,AFNE01.JPG,AFNE01.JPG,,,,,,,,,,,,,,,,,4,5,45,9,,,,,,,AMNE19.jpg,AMSA02.jpg,AMSA13.jpg,AMNE13.jpg,AMSA02.jpg,MS,2,num_6,16,num_6,0.750134309521,,,2017_May_02_1656,60.000942951,MAFE4ImagesEEG,001,100281,
AFNE01.JPG,AFNE01.JPG,AFNE01.JPG,AFNE01.JPG,AFNE01.JPG,AFNE01.JPG,,,,,,,,,,,,,,,,,4,6,46,0,,,,,,,AMSA12.jpg,AMNE03.jpg,AMNE09.jpg,AMSA02.jpg,AMNE03.jpg,MN,1,num_6,16,num_6,1.08344380138,,,2017_May_02_1656,60.000942951,MAFE4ImagesEEG,001,100281,
AFNE01.JPG,AFNE01.JPG,AFNE01.JPG,AFNE01.JPG,AFNE01.JPG,AFNE01.JPG,,,,,,,,,,,,,,,,,4,7,47,6,,,,,,,AMSA07.jpg,AMSA18.jpg,AMNE04.jpg,AMNE17.jpg,AMSA18.jpg,MS,2,num_6,32,num_4,1.18344607833,,,2017_May_02_1656,60.000942951,MAFE4ImagesEEG,001,100281,
AFNE01.JPG,AFNE01.JPG,AFNE01.JPG,AFNE01.JPG,AFNE01.JPG,AFNE01.JPG,,,,,,,,,,,,,,,,,4,8,48,5,,,,,,,AMNE12.jpg,AMSA12.jpg,AMSA01.jpg,AMNE05.jpg,AMSA01.jpg,MS,2,num_2,32,num_6,0.800151324831,,,2017_May_02_1656,60.000942951,MAFE4ImagesEEG,001,100281,
AFNE01.JPG,AFNE01.JPG,AFNE01.JPG,AFNE01.JPG,AFNE01.JPG,AFNE01.JPG,,,,,,,,,,,,,,,,,4,9,49,1,,,,,,,AMSA10.jpg,AMSA12.jpg,AMNE15.jpg,AMNE11.jpg,AMNE15.jpg,MN,1,num_2,16,num_2,1.7166885999,,,2017_May_02_1656,60.000942951,MAFE4ImagesEEG,001,100281,
AFNE01.JPG,AFNE01.JPG,AFNE01.JPG,AFNE01.JPG,AFNE01.JPG,AFNE01.JPG,,,,,,,,,,,,,,,,,5,0,50,9,,,,,,,AMNE08.jpg,AMNE12.jpg,AMSA02.jpg,AMSA03.jpg,AMSA02.jpg,MS,2,num_2,32,num_4,0.833473870531,,,2017_May_02_1656,60.000942951,MAFE4ImagesEEG,001,100281,
AFNE01.JPG,AFNE01.JPG,AFNE01.JPG,AFNE01.JPG,AFNE01.JPG,AFNE01.JPG,,,,,,,,,,,,,,,,,5,1,51,6,,,,,,,AMNE10.jpg,AMSA06.jpg,AMNE08.jpg,AMSA18.jpg,AMSA18.jpg,MS,2,num_4,32,num_2,1.95004713256,,,2017_May_02_1656,60.000942951,MAFE4ImagesEEG,001,100281,
AFNE01.JPG,AFNE01.JPG,AFNE01.JPG,AFNE01.JPG,AFNE01.JPG,AFNE01.JPG,,,,,,,,,,,,,,,,,5,2,52,3,,,,,,,AMNE09.jpg,AMSA06.jpg,AMSA20.jpg,AMNE11.jpg,AMSA06.jpg,MS,2,num_6,32,num_8,1.30022589653,,,2017_May_02_1656,60.000942951,MAFE4ImagesEEG,001,100281,
AFNE01.JPG,AFNE01.JPG,AFNE01.JPG,AFNE01.JPG,AFNE01.JPG,AFNE01.JPG,,,,,,,,,,,,,,,,,5,3,53,0,,,,,,,AMNE10.jpg,AMSA03.jpg,AMSA11.jpg,AMNE03.jpg,AMSA11.jpg,MS,2,num_2,32,num_4,1.70001754444,,,2017_May_02_1656,60.000942951,MAFE4ImagesEEG,001,100281,
AFNE01.JPG,AFNE01.JPG,AFNE01.JPG,AFNE01.JPG,AFNE01.JPG,AFNE01.JPG,,,,,,,,,,,,,,,,,5,4,54,7,,,,,,,AMNE19.jpg,AMSA08.jpg,AMSA12.jpg,AMNE18.jpg,AMNE19.jpg,MN,1,num_8,32,num_6,1.20011681318,,,2017_May_02_1656,60.000942951,MAFE4ImagesEEG,001,100281,
AFNE01.JPG,AFNE01.JPG,AFNE01.JPG,AFNE01.JPG,AFNE01.JPG,AFNE01.JPG,,,,,,,,,,,,,,,,,5,5,55,1,,,,,,,AMNE20.jpg,AMNE18.jpg,AMSA02.jpg,AMSA18.jpg,AMSA02.jpg,MS,2,num_2,32,num_4,1.98339213012,,,2017_May_02_1656,60.000942951,MAFE4ImagesEEG,001,100281,
AFNE01.JPG,AFNE01.JPG,AFNE01.JPG,AFNE01.JPG,AFNE01.JPG,AFNE01.JPG,,,,,,,,,,,,,,,,,5,6,56,4,,,,,,,AMNE01.jpg,AMNE08.jpg,AMSA05.jpg,AMSA16.jpg,AMSA05.jpg,MS,2,num_2,16,num_2,1.35006233561,,,2017_May_02_1656,60.000942951,MAFE4ImagesEEG,001,100281,
AFNE01.JPG,AFNE01.JPG,AFNE01.JPG,AFNE01.JPG,AFNE01.JPG,AFNE01.JPG,,,,,,,,,,,,,,,,,5,7,57,5,,,,,,,AMSA13.jpg,AMSA16.jpg,AMNE13.jpg,AMNE01.jpg,AMNE01.jpg,MN,1,num_4,32,num_2,1.21656784159,,,2017_May_02_1656,60.000942951,MAFE4ImagesEEG,001,100281,
AFNE01.JPG,AFNE01.JPG,AFNE01.JPG,AFNE01.JPG,AFNE01.JPG,AFNE01.JPG,,,,,,,,,,,,,,,,,5,8,58,2,,,,,,,AMNE03.jpg,AMSA15.jpg,AMSA01.jpg,AMNE12.jpg,AMSA15.jpg,MS,2,num_6,16,num_6,0.850123115582,,,2017_May_02_1656,60.000942951,MAFE4ImagesEEG,001,100281,
AFNE01.JPG,AFNE01.JPG,AFNE01.JPG,AFNE01.JPG,AFNE01.JPG,AFNE01.JPG,,,,,,,,,,,,,,,,,5,9,59,8,,,,,,,AMNE15.jpg,AMSA17.jpg,AMSA18.jpg,AMNE10.jpg,AMNE15.jpg,MN,1,num_8,16,num_8,1.50008130725,,,2017_May_02_1656,60.000942951,MAFE4ImagesEEG,001,100281,
,,,,,,,,,,,,,,,,,,,,,,,,,,,,,,,,,,,,,,,,,,,space,18.2987370256,2017_May_02_1656,60.000942951,MAFE4ImagesEEG,001,100281,
AFNE01.JPG,AFNE01.JPG,AFNE01.JPG,AFNE01.JPG,AFNE01.JPG,AFNE01.JPG,,,,,,,,,,,,,,,,,,,,,0,0,0,7,,,AFSA14.jpg,AFNE15.jpg,AFNE02.jpg,AFSA07.jpg,AFNE15.jpg,FN,3,num_6,16,num_6,1.5000816281,,,2017_May_02_1656,60.000942951,MAFE4ImagesEEG,001,100281,
AFNE01.JPG,AFNE01.JPG,AFNE01.JPG,AFNE01.JPG,AFNE01.JPG,AFNE01.JPG,,,,,,,,,,,,,,,,,,,,,0,1,1,3,,,AFNE07.jpg,AFSA02.jpg,AFNE18.jpg,AFSA06.jpg,AFNE07.jpg,FN,3,num_8,32,num_2,1.05012350064,,,2017_May_02_1656,60.000942951,MAFE4ImagesEEG,001,100281,
AFNE01.JPG,AFNE01.JPG,AFNE01.JPG,AFNE01.JPG,AFNE01.JPG,AFNE01.JPG,,,,,,,,,,,,,,,,,,,,,0,2,2,5,,,AFSA16.jpg,AFSA14.jpg,AFNE12.jpg,AFNE10.jpg,AFSA14.jpg,FS,4,num_6,32,num_8,1.06675221841,,,2017_May_02_1656,60.000942951,MAFE4ImagesEEG,001,100281,
AFNE01.JPG,AFNE01.JPG,AFNE01.JPG,AFNE01.JPG,AFNE01.JPG,AFNE01.JPG,,,,,,,,,,,,,,,,,,,,,0,3,3,1,,,AFSA16.jpg,AFNE08.jpg,AFNE03.jpg,AFSA05.jpg,AFSA16.jpg,FS,4,num_8,32,num_2,0.900097151985,,,2017_May_02_1656,60.000942951,MAFE4ImagesEEG,001,100281,
AFNE01.JPG,AFNE01.JPG,AFNE01.JPG,AFNE01.JPG,AFNE01.JPG,AFNE01.JPG,,,,,,,,,,,,,,,,,,,,,0,4,4,6,,,AFNE13.jpg,AFSA16.jpg,AFNE01.jpg,AFSA12.jpg,AFNE01.jpg,FN,3,num_2,32,num_4,2.06667716568,,,2017_May_02_1656,60.000942951,MAFE4ImagesEEG,001,100281,
AFNE01.JPG,AFNE01.JPG,AFNE01.JPG,AFNE01.JPG,AFNE01.JPG,AFNE01.JPG,,,,,,,,,,,,,,,,,,,,,0,5,5,9,,,AFSA18.jpg,AFNE07.jpg,AFNE15.jpg,AFSA13.jpg,AFSA13.jpg,FS,4,num_4,32,num_6,1.90026201168,,,2017_May_02_1656,60.000942951,MAFE4ImagesEEG,001,100281,
AFNE01.JPG,AFNE01.JPG,AFNE01.JPG,AFNE01.JPG,AFNE01.JPG,AFNE01.JPG,,,,,,,,,,,,,,,,,,,,,0,6,6,4,,,AFNE18.jpg,AFSA19.jpg,AFNE10.jpg,AFSA07.jpg,AFNE18.jpg,FN,3,num_8,32,num_4,1.75013270578,,,2017_May_02_1656,60.000942951,MAFE4ImagesEEG,001,100281,
AFNE01.JPG,AFNE01.JPG,AFNE01.JPG,AFNE01.JPG,AFNE01.JPG,AFNE01.JPG,,,,,,,,,,,,,,,,,,,,,0,7,7,8,,,AFSA10.jpg,AFNE17.jpg,AFNE07.jpg,AFSA13.jpg,AFSA13.jpg,FS,4,num_4,32,num_2,1.13345183572,,,2017_May_02_1656,60.000942951,MAFE4ImagesEEG,001,100281,
AFNE01.JPG,AFNE01.JPG,AFNE01.JPG,AFNE01.JPG,AFNE01.JPG,AFNE01.JPG,,,,,,,,,,,,,,,,,,,,,0,8,8,2,,,AFNE06.jpg,AFSA02.jpg,AFSA04.jpg,AFNE07.jpg,AFSA02.jpg,FS,4,num_6,32,num_4,1.98340624268,,,2017_May_02_1656,60.000942951,MAFE4ImagesEEG,001,100281,
AFNE01.JPG,AFNE01.JPG,AFNE01.JPG,AFNE01.JPG,AFNE01.JPG,AFNE01.JPG,,,,,,,,,,,,,,,,,,,,,0,9,9,0,,,AFNE14.jpg,AFSA17.jpg,AFNE13.jpg,AFSA08.jpg,AFSA08.jpg,FS,4,num_4,32,num_6,0.600158637622,,,2017_May_02_1656,60.000942951,MAFE4ImagesEEG,001,100281,
AFNE01.JPG,AFNE01.JPG,AFNE01.JPG,AFNE01.JPG,AFNE01.JPG,AFNE01.JPG,,,,,,,,,,,,,,,,,,,,,1,0,10,7,,,AFSA17.jpg,AFNE14.jpg,AFSA19.jpg,AFNE02.jpg,AFSA19.jpg,FS,4,num_2,16,num_2,2.25003407849,,,2017_May_02_1656,60.000942951,MAFE4ImagesEEG,001,100281,
AFNE01.JPG,AFNE01.JPG,AFNE01.JPG,AFNE01.JPG,AFNE01.JPG,AFNE01.JPG,,,,,,,,,,,,,,,,,,,,,1,1,11,0,,,AFNE03.jpg,AFNE15.jpg,AFSA03.jpg,AFSA17.jpg,AFNE03.jpg,FN,3,num_8,16,num_8,1.13355896249,,,2017_May_02_1656,60.000942951,MAFE4ImagesEEG,001,100281,
AFNE01.JPG,AFNE01.JPG,AFNE01.JPG,AFNE01.JPG,AFNE01.JPG,AFNE01.JPG,,,,,,,,,,,,,,,,,,,,,1,2,12,1,,,AFNE10.jpg,AFSA03.jpg,AFSA07.jpg,AFNE11.jpg,AFNE10.jpg,FN,3,num_8,16,num_8,2.23302656785,,,2017_May_02_1656,60.000942951,MAFE4ImagesEEG,001,100281,
AFNE01.JPG,AFNE01.JPG,AFNE01.JPG,AFNE01.JPG,AFNE01.JPG,AFNE01.JPG,,,,,,,,,,,,,,,,,,,,,1,3,13,2,,,AFSA01.jpg,AFNE12.jpg,AFNE05.jpg,AFSA13.jpg,AFSA13.jpg,FS,4,num_4,32,num_8,0.93344920571,,,2017_May_02_1656,60.000942951,MAFE4ImagesEEG,001,100281,
AFNE01.JPG,AFNE01.JPG,AFNE01.JPG,AFNE01.JPG,AFNE01.JPG,AFNE01.JPG,,,,,,,,,,,,,,,,,,,,,1,4,14,8,,,AFSA16.jpg,AFNE11.jpg,AFNE10.jpg,AFSA01.jpg,AFSA01.jpg,FS,4,num_4,32,num_2,3.26663168473,,,2017_May_02_1656,60.000942951,MAFE4ImagesEEG,001,100281,
AFNE01.JPG,AFNE01.JPG,AFNE01.JPG,AFNE01.JPG,AFNE01.JPG,AFNE01.JPG,,,,,,,,,,,,,,,,,,,,,1,5,15,5,,,AFNE09.jpg,AFSA13.jpg,AFNE07.jpg,AFSA16.jpg,AFNE09.jpg,FN,3,num_8,16,num_8,0.816814040765,,,2017_May_02_1656,60.000942951,MAFE4ImagesEEG,001,100281,
AFNE01.JPG,AFNE01.JPG,AFNE01.JPG,AFNE01.JPG,AFNE01.JPG,AFNE01.JPG,,,,,,,,,,,,,,,,,,,,,1,6,16,4,,,AFSA13.jpg,AFNE18.jpg,AFSA08.jpg,AFNE17.jpg,AFSA08.jpg,FS,4,num_2,16,num_2,1.96668386902,,,2017_May_02_1656,60.000942951,MAFE4ImagesEEG,001,100281,
AFNE01.JPG,AFNE01.JPG,AFNE01.JPG,AFNE01.JPG,AFNE01.JPG,AFNE01.JPG,,,,,,,,,,,,,,,,,,,,,1,7,17,6,,,AFNE10.jpg,AFSA15.jpg,AFNE12.jpg,AFSA18.jpg,AFSA18.jpg,FS,4,num_4,16,num_4,1.36669586459,,,2017_May_02_1656,60.000942951,MAFE4ImagesEEG,001,100281,
AFNE01.JPG,AFNE01.JPG,AFNE01.JPG,AFNE01.JPG,AFNE01.JPG,AFNE01.JPG,,,,,,,,,,,,,,,,,,,,,1,8,18,9,,,AFSA08.jpg,AFSA05.jpg,AFNE17.jpg,AFNE20.jpg,AFNE20.jpg,FN,3,num_4,32,num_8,0.766768159112,,,2017_May_02_1656,60.000942951,MAFE4ImagesEEG,001,100281,
AFNE01.JPG,AFNE01.JPG,AFNE01.JPG,AFNE01.JPG,AFNE01.JPG,AFNE01.JPG,,,,,,,,,,,,,,,,,,,,,1,9,19,3,,,AFSA05.jpg,AFNE03.jpg,AFSA02.jpg,AFNE09.jpg,AFNE09.jpg,FN,3,num_4,32,num_6,1.91667936253,,,2017_May_02_1656,60.000942951,MAFE4ImagesEEG,001,100281,
AFNE01.JPG,AFNE01.JPG,AFNE01.JPG,AFNE01.JPG,AFNE01.JPG,AFNE01.JPG,,,,,,,,,,,,,,,,,,,,,2,0,20,3,,,AFNE04.jpg,AFSA12.jpg,AFSA17.jpg,AFNE14.jpg,AFSA12.jpg,FS,4,num_6,32,num_4,2.20003726985,,,2017_May_02_1656,60.000942951,MAFE4ImagesEEG,001,100281,
AFNE01.JPG,AFNE01.JPG,AFNE01.JPG,AFNE01.JPG,AFNE01.JPG,AFNE01.JPG,,,,,,,,,,,,,,,,,,,,,2,1,21,4,,,AFNE01.jpg,AFSA20.jpg,AFSA04.jpg,AFNE20.jpg,AFNE20.jpg,FN,3,num_4,32,num_2,1.1000814999,,,2017_May_02_1656,60.000942951,MAFE4ImagesEEG,001,100281,
AFNE01.JPG,AFNE01.JPG,AFNE01.JPG,AFNE01.JPG,AFNE01.JPG,AFNE01.JPG,,,,,,,,,,,,,,,,,,,,,2,2,22,8,,,AFSA01.jpg,AFSA11.jpg,AFNE05.jpg,AFNE18.jpg,AFSA01.jpg,FS,4,num_8,16,num_8,1.24980763672,,,2017_May_02_1656,60.000942951,MAFE4ImagesEEG,001,100281,
AFNE01.JPG,AFNE01.JPG,AFNE01.JPG,AFNE01.JPG,AFNE01.JPG,AFNE01.JPG,,,,,,,,,,,,,,,,,,,,,2,3,23,9,,,AFSA10.jpg,AFSA11.jpg,AFNE14.jpg,AFNE07.jpg,AFSA11.jpg,FS,4,num_6,32,num_8,1.39994913084,,,2017_May_02_1656,60.000942951,MAFE4ImagesEEG,001,100281,
AFNE01.JPG,AFNE01.JPG,AFNE01.JPG,AFNE01.JPG,AFNE01.JPG,AFNE01.JPG,,,,,,,,,,,,,,,,,,,,,2,4,24,7,,,AFNE19.jpg,AFSA02.jpg,AFSA11.jpg,AFNE09.jpg,AFNE09.jpg,FN,3,num_4,32,num_6,1.68366434122,,,2017_May_02_1656,60.000942951,MAFE4ImagesEEG,001,100281,
AFNE01.JPG,AFNE01.JPG,AFNE01.JPG,AFNE01.JPG,AFNE01.JPG,AFNE01.JPG,,,,,,,,,,,,,,,,,,,,,2,5,25,6,,,AFNE08.jpg,AFNE20.jpg,AFSA11.jpg,AFSA09.jpg,AFSA11.jpg,FS,4,num_2,32,num_4,1.41674238769,,,2017_May_02_1656,60.000942951,MAFE4ImagesEEG,001,100281,
AFNE01.JPG,AFNE01.JPG,AFNE01.JPG,AFNE01.JPG,AFNE01.JPG,AFNE01.JPG,,,,,,,,,,,,,,,,,,,,,2,6,26,0,,,AFNE13.jpg,AFNE14.jpg,AFSA07.jpg,AFSA14.jpg,AFSA07.jpg,FS,4,num_2,16,num_2,0.699991564732,,,2017_May_02_1656,60.000942951,MAFE4ImagesEEG,001,100281,
AFNE01.JPG,AFNE01.JPG,AFNE01.JPG,AFNE01.JPG,AFNE01.JPG,AFNE01.JPG,,,,,,,,,,,,,,,,,,,,,2,7,27,5,,,AFSA13.jpg,AFNE13.jpg,AFSA18.jpg,AFNE03.jpg,AFNE13.jpg,FN,3,num_6,32,num_4,1.86667966726,,,2017_May_02_1656,60.000942951,MAFE4ImagesEEG,001,100281,
AFNE01.JPG,AFNE01.JPG,AFNE01.JPG,AFNE01.JPG,AFNE01.JPG,AFNE01.JPG,,,,,,,,,,,,,,,,,,,,,2,8,28,1,,,AFNE06.jpg,AFNE03.jpg,AFSA01.jpg,AFSA20.jpg,AFSA20.jpg,FS,4,num_4,32,num_6,1.83333948092,,,2017_May_02_1656,60.000942951,MAFE4ImagesEEG,001,100281,
AFNE01.JPG,AFNE01.JPG,AFNE01.JPG,AFNE01.JPG,AFNE01.JPG,AFNE01.JPG,,,,,,,,,,,,,,,,,,,,,2,9,29,2,,,AFSA07.jpg,AFNE06.jpg,AFNE08.jpg,AFSA06.jpg,AFNE08.jpg,FN,3,num_2,32,num_6,3.76653818926,,,2017_May_02_1656,60.000942951,MAFE4ImagesEEG,001,100281,
AFNE01.JPG,AFNE01.JPG,AFNE01.JPG,AFNE01.JPG,AFNE01.JPG,AFNE01.JPG,,,,,,,,,,,,,,,,,,,,,3,0,30,7,,,AFNE14.jpg,AFSA04.jpg,AFSA07.jpg,AFNE10.jpg,AFNE10.jpg,FN,3,num_4,32,num_6,1.11674966849,,,2017_May_02_1656,60.000942951,MAFE4ImagesEEG,001,100281,
AFNE01.JPG,AFNE01.JPG,AFNE01.JPG,AFNE01.JPG,AFNE01.JPG,AFNE01.JPG,,,,,,,,,,,,,,,,,,,,,3,1,31,9,,,AFSA19.jpg,AFSA18.jpg,AFNE13.jpg,AFNE20.jpg,AFSA19.jpg,FS,4,num_8,32,num_4,2.21670447639,,,2017_May_02_1656,60.000942951,MAFE4ImagesEEG,001,100281,
AFNE01.JPG,AFNE01.JPG,AFNE01.JPG,AFNE01.JPG,AFNE01.JPG,AFNE01.JPG,,,,,,,,,,,,,,,,,,,,,3,2,32,2,,,AFNE13.jpg,AFNE06.jpg,AFSA15.jpg,AFSA05.jpg,AFNE13.jpg,FN,3,num_8,32,num_6,0.950121223461,,,2017_May_02_1656,60.000942951,MAFE4ImagesEEG,001,100281,
AFNE01.JPG,AFNE01.JPG,AFNE01.JPG,AFNE01.JPG,AFNE01.JPG,AFNE01.JPG,,,,,,,,,,,,,,,,,,,,,3,3,33,4,,,AFSA16.jpg,AFNE20.jpg,AFNE01.jpg,AFSA04.jpg,AFNE01.jpg,FN,3,num_2,32,num_4,1.30009920453,,,2017_May_02_1656,60.000942951,MAFE4ImagesEEG,001,100281,
AFNE01.JPG,AFNE01.JPG,AFNE01.JPG,AFNE01.JPG,AFNE01.JPG,AFNE01.JPG,,,,,,,,,,,,,,,,,,,,,3,4,34,0,,,AFSA16.jpg,AFNE05.jpg,AFNE10.jpg,AFSA10.jpg,AFSA16.jpg,FS,4,num_8,16,num_8,0.600136827212,,,2017_May_02_1656,60.000942951,MAFE4ImagesEEG,001,100281,
AFNE01.JPG,AFNE01.JPG,AFNE01.JPG,AFNE01.JPG,AFNE01.JPG,AFNE01.JPG,,,,,,,,,,,,,,,,,,,,,3,5,35,3,,,AFSA12.jpg,AFSA14.jpg,AFNE18.jpg,AFNE02.jpg,AFSA12.jpg,FS,4,num_8,32,num_4,1.60007652827,,,2017_May_02_1656,60.000942951,MAFE4ImagesEEG,001,100281,
AFNE01.JPG,AFNE01.JPG,AFNE01.JPG,AFNE01.JPG,AFNE01.JPG,AFNE01.JPG,,,,,,,,,,,,,,,,,,,,,3,6,36,1,,,AFNE02.jpg,AFSA20.jpg,AFNE13.jpg,AFSA09.jpg,AFSA20.jpg,FS,4,num_6,32,num_4,1.20015369821,,,2017_May_02_1656,60.000942951,MAFE4ImagesEEG,001,100281,
AFNE01.JPG,AFNE01.JPG,AFNE01.JPG,AFNE01.JPG,AFNE01.JPG,AFNE01.JPG,,,,,,,,,,,,,,,,,,,,,3,7,37,5,,,AFNE09.jpg,AFNE10.jpg,AFSA17.jpg,AFSA14.jpg,AFNE10.jpg,FN,3,num_6,16,num_6,0.983429656597,,,2017_May_02_1656,60.000942951,MAFE4ImagesEEG,001,100281,
AFNE01.JPG,AFNE01.JPG,AFNE01.JPG,AFNE01.JPG,AFNE01.JPG,AFNE01.JPG,,,,,,,,,,,,,,,,,,,,,3,8,38,8,,,AFNE07.jpg,AFNE11.jpg,AFSA12.jpg,AFSA03.jpg,AFSA12.jpg,FS,4,num_2,16,num_2,2.88326123659,,,2017_May_02_1656,60.000942951,MAFE4ImagesEEG,001,100281,
AFNE01.JPG,AFNE01.JPG,AFNE01.JPG,AFNE01.JPG,AFNE01.JPG,AFNE01.JPG,,,,,,,,,,,,,,,,,,,,,3,9,39,6,,,AFSA08.jpg,AFNE15.jpg,AFSA10.jpg,AFNE19.jpg,AFSA10.jpg,FS,4,num_2,32,num_4,2.15000582137,,,2017_May_02_1656,60.000942951,MAFE4ImagesEEG,001,100281,
AFNE01.JPG,AFNE01.JPG,AFNE01.JPG,AFNE01.JPG,AFNE01.JPG,AFNE01.JPG,,,,,,,,,,,,,,,,,,,,,4,0,40,4,,,AFSA08.jpg,AFNE04.jpg,AFNE08.jpg,AFSA04.jpg,AFNE08.jpg,FN,3,num_2,32,num_6,0.766766555607,,,2017_May_02_1656,60.000942951,MAFE4ImagesEEG,001,100281,
AFNE01.JPG,AFNE01.JPG,AFNE01.JPG,AFNE01.JPG,AFNE01.JPG,AFNE01.JPG,,,,,,,,,,,,,,,,,,,,,4,1,41,8,,,AFNE01.jpg,AFSA01.jpg,AFSA08.jpg,AFNE13.jpg,AFNE13.jpg,FN,3,num_4,32,num_6,1.73341321875,,,2017_May_02_1656,60.000942951,MAFE4ImagesEEG,001,100281,
