IPosition2,IPosition3,IPosition1,IPosition6,IPosition4,IPosition5,TrialsF1.thisRepN,TrialsF1.thisTrialN,TrialsF1.thisN,TrialsF1.thisIndex,TrialsM1.thisRepN,TrialsM1.thisTrialN,TrialsM1.thisN,TrialsM1.thisIndex,TrialsF2.thisRepN,TrialsF2.thisTrialN,TrialsF2.thisN,TrialsF2.thisIndex,TrialsM2.thisRepN,TrialsM2.thisTrialN,TrialsM2.thisN,TrialsM2.thisIndex,TrialsF3.thisRepN,TrialsF3.thisTrialN,TrialsF3.thisN,TrialsF3.thisIndex,TrialsM3.thisRepN,TrialsM3.thisTrialN,TrialsM3.thisN,TrialsM3.thisIndex,InstrKey_resp.keys,InstrKey_resp.rt,Image0 _Position,Image1 _Position,Image2 _Position,Image3 _Position,Center_image,condition,code,correct_answer,accuracy,Key_Resp.keys,Key_Resp.rt,BreakKey_resp.keys,BreakKey_resp.rt,date,frameRate,expName,session,participant,
,,,,,,,,,,,,,,,,,,,,,,,,,,,,,,space,117.957806132,,,,,,,,,,,,,,2017_Apr_28_1701,60.0067170591,FEMA4ImagesEEG,001,100214,
AFNE23.JPG,AFNE24.JPG,AFNE22.JPG,AFSA24.JPG,AFSA22.JPG,AFSA23.JPG,0,0,0,8,,,,,,,,,,,,,,,,,,,,,,,AFSA06.jpg,AFNE07.jpg,AFNE06.jpg,AFSA01.jpg,AFNE06.jpg,FN,3,num_2,32,num_6,1.35011172947,,,2017_Apr_28_1701,60.0067170591,FEMA4ImagesEEG,001,100214,
AMSA21.JPG,AMNE22.JPG,AMNE21.JPG,AMSA23.JPG,AMSA22.JPG,AMNE23.JPG,0,1,1,1,,,,,,,,,,,,,,,,,,,,,,,AFSA12.jpg,AFNE15.jpg,AFNE03.jpg,AFSA17.jpg,AFSA12.jpg,FS,4,num_8,32,num_4,2.60005279374,,,2017_Apr_28_1701,60.0067170591,FEMA4ImagesEEG,001,100214,
AFSA21.JPG,AFNE22.JPG,AFNE21.JPG,AFSA23.JPG,AFSA22.JPG,AFNE23.JPG,0,2,2,0,,,,,,,,,,,,,,,,,,,,,,,AFNE03.jpg,AFSA15.jpg,AFSA05.jpg,AFNE15.jpg,AFNE15.jpg,FN,3,num_4,16,num_4,1.56669015542,,,2017_Apr_28_1701,60.0067170591,FEMA4ImagesEEG,001,100214,
AFSA25.JPG,AFNE24.JPG,AFSA24.JPG,AFNE21.JPG,AFSA21.JPG,AFNE25.JPG,0,3,3,2,,,,,,,,,,,,,,,,,,,,,,,AFSA01.jpg,AFSA18.jpg,AFNE18.jpg,AFNE07.jpg,AFSA18.jpg,FS,4,num_6,16,num_6,1.05018893129,,,2017_Apr_28_1701,60.0067170591,FEMA4ImagesEEG,001,100214,
AMSA25.JPG,AMNE24.JPG,AMSA24.JPG,AMNE26.JPG,AMSA21.JPG,AMNE25.JPG,0,4,4,3,,,,,,,,,,,,,,,,,,,,,,,AFNE04.jpg,AFSA11.jpg,AFSA06.jpg,AFNE03.jpg,AFSA06.jpg,FS,4,num_2,32,num_6,2.18330976437,,,2017_Apr_28_1701,60.0067170591,FEMA4ImagesEEG,001,100214,
AFNE22.JPG,AFSA24.JPG,AFSA22.JPG,AFNE25.JPG,AFNE24.JPG,AFSA25.JPG,0,5,5,6,,,,,,,,,,,,,,,,,,,,,,,AFSA17.jpg,AFNE02.jpg,AFSA10.jpg,AFNE14.jpg,AFSA17.jpg,FS,4,num_8,32,num_6,1.35009697545,,,2017_Apr_28_1701,60.0067170591,FEMA4ImagesEEG,001,100214,
AMNE22.JPG,AMSA24.JPG,AMSA22.JPG,AMNE25.JPG,AMNE24.JPG,AMSA25.JPG,0,6,6,7,,,,,,,,,,,,,,,,,,,,,,,AFNE12.jpg,AFSA02.jpg,AFSA08.jpg,AFNE13.jpg,AFSA08.jpg,FS,4,num_2,16,num_2,1.66671841266,,,2017_Apr_28_1701,60.0067170591,FEMA4ImagesEEG,001,100214,
AMSA21.JPG,AMNE23.JPG,AMNE21.JPG,AMSA25.JPG,AMNE25.JPG,AMSA23.JPG,0,7,7,5,,,,,,,,,,,,,,,,,,,,,,,AFSA17.jpg,AFNE02.jpg,AFSA13.jpg,AFNE01.jpg,AFNE01.jpg,FN,3,num_4,16,num_4,1.93364485656,,,2017_Apr_28_1701,60.0067170591,FEMA4ImagesEEG,001,100214,
AFSA21.JPG,AFNE23.JPG,AFNE21.JPG,AFSA25.JPG,AFNE25.JPG,AFSA23.JPG,0,8,8,4,,,,,,,,,,,,,,,,,,,,,,,AFNE09.jpg,AFSA09.jpg,AFNE01.jpg,AFSA12.jpg,AFSA09.jpg,FS,4,num_6,32,num_8,2.31664677546,,,2017_Apr_28_1701,60.0067170591,FEMA4ImagesEEG,001,100214,
AMNE23.JPG,AMNE24.JPG,AMNE22.JPG,AMSA24.JPG,AMSA22.JPG,AMSA23.JPG,0,9,9,9,,,,,,,,,,,,,,,,,,,,,,,AFNE12.jpg,AFSA03.jpg,AFNE06.jpg,AFSA15.jpg,AFNE12.jpg,FN,3,num_8,32,num_4,2.34998183022,,,2017_Apr_28_1701,60.0067170591,FEMA4ImagesEEG,001,100214,
AFSA21.JPG,AFNE22.JPG,AFNE21.JPG,AFSA23.JPG,AFSA22.JPG,AFNE23.JPG,,,,,0,0,0,0,,,,,,,,,,,,,,,,,,,AMNE09.jpg,AMSA15.jpg,AMNE05.jpg,AMSA02.jpg,AMNE05.jpg,MN,1,num_2,32,num_6,1.61669562408,,,2017_Apr_28_1701,60.0067170591,FEMA4ImagesEEG,001,100214,
AFNE22.JPG,AFSA24.JPG,AFSA22.JPG,AFNE25.JPG,AFNE24.JPG,AFSA25.JPG,,,,,0,1,1,6,,,,,,,,,,,,,,,,,,,AMNE05.jpg,AMSA18.jpg,AMSA20.jpg,AMNE18.jpg,AMSA18.jpg,MS,2,num_6,16,num_6,0.883417115663,,,2017_Apr_28_1701,60.0067170591,FEMA4ImagesEEG,001,100214,
AFSA21.JPG,AFNE23.JPG,AFNE21.JPG,AFSA25.JPG,AFNE25.JPG,AFSA23.JPG,,,,,0,2,2,4,,,,,,,,,,,,,,,,,,,AMNE03.jpg,AMSA02.jpg,AMNE04.jpg,AMSA15.jpg,AMNE03.jpg,MN,1,num_8,16,num_8,1.4167154457,,,2017_Apr_28_1701,60.0067170591,FEMA4ImagesEEG,001,100214,
AMNE23.JPG,AMNE24.JPG,AMNE22.JPG,AMSA24.JPG,AMSA22.JPG,AMSA23.JPG,,,,,0,3,3,9,,,,,,,,,,,,,,,,,,,AMSA10.jpg,AMNE15.jpg,AMNE07.jpg,AMSA19.jpg,AMNE15.jpg,MN,1,num_6,16,num_6,2.60000468278,,,2017_Apr_28_1701,60.0067170591,FEMA4ImagesEEG,001,100214,
AMSA21.JPG,AMNE22.JPG,AMNE21.JPG,AMSA23.JPG,AMSA22.JPG,AMNE23.JPG,,,,,0,4,4,1,,,,,,,,,,,,,,,,,,,AMNE17.jpg,AMSA14.jpg,AMNE18.jpg,AMSA20.jpg,AMNE18.jpg,MN,1,num_2,16,num_2,3.29964439652,,,2017_Apr_28_1701,60.0067170591,FEMA4ImagesEEG,001,100214,
AMSA21.JPG,AMNE23.JPG,AMNE21.JPG,AMSA25.JPG,AMNE25.JPG,AMSA23.JPG,,,,,0,5,5,5,,,,,,,,,,,,,,,,,,,AMNE02.jpg,AMNE15.jpg,AMSA05.jpg,AMSA14.jpg,AMSA14.jpg,MS,2,num_4,16,num_4,0.600138751674,,,2017_Apr_28_1701,60.0067170591,FEMA4ImagesEEG,001,100214,
AMSA25.JPG,AMNE24.JPG,AMSA24.JPG,AMNE26.JPG,AMSA21.JPG,AMNE25.JPG,,,,,0,6,6,3,,,,,,,,,,,,,,,,,,,AMSA18.jpg,AMNE19.jpg,AMSA06.jpg,AMNE13.jpg,AMNE13.jpg,MN,1,num_4,32,num_6,1.26675388636,,,2017_Apr_28_1701,60.0067170591,FEMA4ImagesEEG,001,100214,
AFNE23.JPG,AFNE24.JPG,AFNE22.JPG,AFSA24.JPG,AFSA22.JPG,AFSA23.JPG,,,,,0,7,7,8,,,,,,,,,,,,,,,,,,,AMSA10.jpg,AMNE18.jpg,AMSA07.jpg,AMNE05.jpg,AMSA10.jpg,MS,2,num_8,32,num_2,2.69997135794,,,2017_Apr_28_1701,60.0067170591,FEMA4ImagesEEG,001,100214,
AFSA25.JPG,AFNE24.JPG,AFSA24.JPG,AFNE21.JPG,AFSA21.JPG,AFNE25.JPG,,,,,0,8,8,2,,,,,,,,,,,,,,,,,,,AMNE09.jpg,AMSA08.jpg,AMSA15.jpg,AMNE06.jpg,AMNE09.jpg,MN,1,num_8,32,num_4,1.91667326854,,,2017_Apr_28_1701,60.0067170591,FEMA4ImagesEEG,001,100214,
AMNE22.JPG,AMSA24.JPG,AMSA22.JPG,AMNE25.JPG,AMNE24.JPG,AMSA25.JPG,,,,,0,9,9,7,,,,,,,,,,,,,,,,,,,AMSA19.jpg,AMSA16.jpg,AMNE14.jpg,AMNE06.jpg,AMSA16.jpg,MS,2,num_6,32,num_8,2.48329671018,,,2017_Apr_28_1701,60.0067170591,FEMA4ImagesEEG,001,100214,
AFNE23.JPG,AFNE24.JPG,AFNE22.JPG,AFSA24.JPG,AFSA22.JPG,AFSA23.JPG,,,,,,,,,0,0,0,8,,,,,,,,,,,,,,,AFSA20.jpg,AFNE18.jpg,AFSA06.jpg,AFNE01.jpg,AFNE18.jpg,FN,3,num_6,32,num_2,3.74986264354,,,2017_Apr_28_1701,60.0067170591,FEMA4ImagesEEG,001,100214,
AFNE22.JPG,AFSA24.JPG,AFSA22.JPG,AFNE25.JPG,AFNE24.JPG,AFSA25.JPG,,,,,,,,,0,1,1,6,,,,,,,,,,,,,,,AFNE05.jpg,AFSA03.jpg,AFNE17.jpg,AFSA15.jpg,AFNE05.jpg,FN,3,num_8,16,num_8,0.883470679168,,,2017_Apr_28_1701,60.0067170591,FEMA4ImagesEEG,001,100214,
AMNE23.JPG,AMNE24.JPG,AMNE22.JPG,AMSA24.JPG,AMSA22.JPG,AMSA23.JPG,,,,,,,,,0,2,2,9,,,,,,,,,,,,,,,AFSA06.jpg,AFNE19.jpg,AFNE03.jpg,AFSA14.jpg,AFSA14.jpg,FS,4,num_4,32,num_8,1.44975798635,,,2017_Apr_28_1701,60.0067170591,FEMA4ImagesEEG,001,100214,
AMSA21.JPG,AMNE23.JPG,AMNE21.JPG,AMSA25.JPG,AMNE25.JPG,AMSA23.JPG,,,,,,,,,0,3,3,5,,,,,,,,,,,,,,,AFSA11.jpg,AFNE09.jpg,AFSA20.jpg,AFNE15.jpg,AFNE09.jpg,FN,3,num_6,32,num_8,1.26677441364,,,2017_Apr_28_1701,60.0067170591,FEMA4ImagesEEG,001,100214,
AFSA25.JPG,AFNE24.JPG,AFSA24.JPG,AFNE21.JPG,AFSA21.JPG,AFNE25.JPG,,,,,,,,,0,4,4,2,,,,,,,,,,,,,,,AFNE03.jpg,AFNE18.jpg,AFSA18.jpg,AFSA11.jpg,AFNE03.jpg,FN,3,num_8,16,num_8,1.16677181562,,,2017_Apr_28_1701,60.0067170591,FEMA4ImagesEEG,001,100214,
AFSA21.JPG,AFNE22.JPG,AFNE21.JPG,AFSA23.JPG,AFSA22.JPG,AFNE23.JPG,,,,,,,,,0,5,5,0,,,,,,,,,,,,,,,AFNE06.jpg,AFNE20.jpg,AFSA07.jpg,AFSA16.jpg,AFNE20.jpg,FN,3,num_6,32,num_8,1.18339892977,,,2017_Apr_28_1701,60.0067170591,FEMA4ImagesEEG,001,100214,
AFSA21.JPG,AFNE23.JPG,AFNE21.JPG,AFSA25.JPG,AFNE25.JPG,AFSA23.JPG,,,,,,,,,0,6,6,4,,,,,,,,,,,,,,,AFSA06.jpg,AFSA05.jpg,AFNE10.jpg,AFNE15.jpg,AFSA05.jpg,FS,4,num_6,16,num_6,0.683442710782,,,2017_Apr_28_1701,60.0067170591,FEMA4ImagesEEG,001,100214,
AMSA25.JPG,AMNE24.JPG,AMSA24.JPG,AMNE26.JPG,AMSA21.JPG,AMNE25.JPG,,,,,,,,,0,7,7,3,,,,,,,,,,,,,,,AFNE06.jpg,AFSA05.jpg,AFNE05.jpg,AFSA11.jpg,AFSA11.jpg,FS,4,num_4,16,num_4,1.11672176432,,,2017_Apr_28_1701,60.0067170591,FEMA4ImagesEEG,001,100214,
AMNE22.JPG,AMSA24.JPG,AMSA22.JPG,AMNE25.JPG,AMNE24.JPG,AMSA25.JPG,,,,,,,,,0,8,8,7,,,,,,,,,,,,,,,AFNE13.jpg,AFSA20.jpg,AFSA06.jpg,AFNE04.jpg,AFSA06.jpg,FS,4,num_2,32,num_6,0.750129498425,,,2017_Apr_28_1701,60.0067170591,FEMA4ImagesEEG,001,100214,
AMSA21.JPG,AMNE22.JPG,AMNE21.JPG,AMSA23.JPG,AMSA22.JPG,AMNE23.JPG,,,,,,,,,0,9,9,1,,,,,,,,,,,,,,,AFSA13.jpg,AFNE14.jpg,AFNE16.jpg,AFSA18.jpg,AFNE16.jpg,FN,3,num_2,16,num_2,1.45017077751,,,2017_Apr_28_1701,60.0067170591,FEMA4ImagesEEG,001,100214,
AMSA21.JPG,AMNE22.JPG,AMNE21.JPG,AMSA23.JPG,AMSA22.JPG,AMNE23.JPG,,,,,,,,,,,,,0,0,0,1,,,,,,,,,,,AMSA02.jpg,AMSA04.jpg,AMNE07.jpg,AMNE15.jpg,AMSA02.jpg,MS,2,num_8,32,num_6,0.550159262959,,,2017_Apr_28_1701,60.0067170591,FEMA4ImagesEEG,001,100214,
AMSA21.JPG,AMNE23.JPG,AMNE21.JPG,AMSA25.JPG,AMNE25.JPG,AMSA23.JPG,,,,,,,,,,,,,0,1,1,5,,,,,,,,,,,AMNE14.jpg,AMSA06.jpg,AMNE20.jpg,AMSA19.jpg,AMNE20.jpg,MN,1,num_2,16,num_2,1.66678801295,,,2017_Apr_28_1701,60.0067170591,FEMA4ImagesEEG,001,100214,
AFNE23.JPG,AFNE24.JPG,AFNE22.JPG,AFSA24.JPG,AFSA22.JPG,AFSA23.JPG,,,,,,,,,,,,,0,2,2,8,,,,,,,,,,,AMNE11.jpg,AMNE20.jpg,AMSA14.jpg,AMSA09.jpg,AMNE11.jpg,MN,1,num_8,32,num_2,1.28343841282,,,2017_Apr_28_1701,60.0067170591,FEMA4ImagesEEG,001,100214,
AMSA25.JPG,AMNE24.JPG,AMSA24.JPG,AMNE26.JPG,AMSA21.JPG,AMNE25.JPG,,,,,,,,,,,,,0,3,3,3,,,,,,,,,,,AMNE16.jpg,AMSA11.jpg,AMSA09.jpg,AMNE03.jpg,AMNE03.jpg,MN,1,num_4,32,num_2,1.40004759771,,,2017_Apr_28_1701,60.0067170591,FEMA4ImagesEEG,001,100214,
AMNE22.JPG,AMSA24.JPG,AMSA22.JPG,AMNE25.JPG,AMNE24.JPG,AMSA25.JPG,,,,,,,,,,,,,0,4,4,7,,,,,,,,,,,AMSA04.jpg,AMNE15.jpg,AMNE01.jpg,AMSA18.jpg,AMSA18.jpg,MS,2,num_4,32,num_8,1.41647649521,,,2017_Apr_28_1701,60.0067170591,FEMA4ImagesEEG,001,100214,
AFSA21.JPG,AFNE23.JPG,AFNE21.JPG,AFSA25.JPG,AFNE25.JPG,AFSA23.JPG,,,,,,,,,,,,,0,5,5,4,,,,,,,,,,,AMSA10.jpg,AMNE05.jpg,AMSA20.jpg,AMNE20.jpg,AMNE05.jpg,MN,1,num_6,32,num_2,2.06667395809,,,2017_Apr_28_1701,60.0067170591,FEMA4ImagesEEG,001,100214,
AFSA21.JPG,AFNE22.JPG,AFNE21.JPG,AFSA23.JPG,AFSA22.JPG,AFNE23.JPG,,,,,,,,,,,,,0,6,6,0,,,,,,,,,,,AMNE13.jpg,AMSA18.jpg,AMNE12.jpg,AMSA06.jpg,AMNE13.jpg,MN,1,num_8,16,num_8,0.816807626165,,,2017_Apr_28_1701,60.0067170591,FEMA4ImagesEEG,001,100214,
AFNE22.JPG,AFSA24.JPG,AFSA22.JPG,AFNE25.JPG,AFNE24.JPG,AFSA25.JPG,,,,,,,,,,,,,0,7,7,6,,,,,,,,,,,AMSA06.jpg,AMSA19.jpg,AMNE06.jpg,AMNE11.jpg,AMNE11.jpg,MN,1,num_4,32,num_2,1.21672404162,,,2017_Apr_28_1701,60.0067170591,FEMA4ImagesEEG,001,100214,
AFSA25.JPG,AFNE24.JPG,AFSA24.JPG,AFNE21.JPG,AFSA21.JPG,AFNE25.JPG,,,,,,,,,,,,,0,8,8,2,,,,,,,,,,,AMSA03.jpg,AMSA09.jpg,AMNE06.jpg,AMNE16.jpg,AMSA09.jpg,MS,2,num_6,32,num_2,0.95014207135,,,2017_Apr_28_1701,60.0067170591,FEMA4ImagesEEG,001,100214,
AMNE23.JPG,AMNE24.JPG,AMNE22.JPG,AMSA24.JPG,AMSA22.JPG,AMSA23.JPG,,,,,,,,,,,,,0,9,9,9,,,,,,,,,,,AMNE07.jpg,AMNE08.jpg,AMSA18.jpg,AMSA11.jpg,AMSA18.jpg,MS,2,num_2,16,num_2,0.80011925078,,,2017_Apr_28_1701,60.0067170591,FEMA4ImagesEEG,001,100214,
AMNE23.JPG,AMNE24.JPG,AMNE22.JPG,AMSA24.JPG,AMSA22.JPG,AMSA23.JPG,,,,,,,,,,,,,,,,,0,0,0,9,,,,,,,AFSA16.jpg,AFNE09.jpg,AFSA07.jpg,AFNE02.jpg,AFSA07.jpg,FS,4,num_2,16,num_2,1.7166982221,,,2017_Apr_28_1701,60.0067170591,FEMA4ImagesEEG,001,100214,
AMNE22.JPG,AMSA24.JPG,AMSA22.JPG,AMNE25.JPG,AMNE24.JPG,AMSA25.JPG,,,,,,,,,,,,,,,,,0,1,1,7,,,,,,,AFSA07.jpg,AFSA12.jpg,AFNE12.jpg,AFNE20.jpg,AFNE12.jpg,FN,3,num_2,16,num_2,0.633344548522,,,2017_Apr_28_1701,60.0067170591,FEMA4ImagesEEG,001,100214,
AFNE22.JPG,AFSA24.JPG,AFSA22.JPG,AFNE25.JPG,AFNE24.JPG,AFSA25.JPG,,,,,,,,,,,,,,,,,0,2,2,6,,,,,,,AFSA07.jpg,AFNE20.jpg,AFNE15.jpg,AFSA17.jpg,AFNE15.jpg,FN,3,num_2,16,num_2,1.51659327617,,,2017_Apr_28_1701,60.0067170591,FEMA4ImagesEEG,001,100214,
AMSA21.JPG,AMNE23.JPG,AMNE21.JPG,AMSA25.JPG,AMNE25.JPG,AMSA23.JPG,,,,,,,,,,,,,,,,,0,3,3,5,,,,,,,AFSA12.jpg,AFNE17.jpg,AFNE04.jpg,AFSA08.jpg,AFNE04.jpg,FN,3,num_2,16,num_2,1.01676374907,,,2017_Apr_28_1701,60.0067170591,FEMA4ImagesEEG,001,100214,
AMSA21.JPG,AMNE22.JPG,AMNE21.JPG,AMSA23.JPG,AMSA22.JPG,AMNE23.JPG,,,,,,,,,,,,,,,,,0,4,4,1,,,,,,,AFSA09.jpg,AFSA15.jpg,AFNE08.jpg,AFNE14.jpg,AFNE08.jpg,FN,3,num_2,16,num_2,2.68302125949,,,2017_Apr_28_1701,60.0067170591,FEMA4ImagesEEG,001,100214,
AFSA25.JPG,AFNE24.JPG,AFSA24.JPG,AFNE21.JPG,AFSA21.JPG,AFNE25.JPG,,,,,,,,,,,,,,,,,0,5,5,2,,,,,,,AFSA02.jpg,AFNE10.jpg,AFSA15.jpg,AFNE02.jpg,AFNE10.jpg,FN,3,num_6,32,num_2,1.80002655718,,,2017_Apr_28_1701,60.0067170591,FEMA4ImagesEEG,001,100214,
AMSA25.JPG,AMNE24.JPG,AMSA24.JPG,AMNE26.JPG,AMSA21.JPG,AMNE25.JPG,,,,,,,,,,,,,,,,,0,6,6,3,,,,,,,AFNE07.jpg,AFSA04.jpg,AFSA14.jpg,AFNE16.jpg,AFNE07.jpg,FN,3,num_8,32,num_6,0.966754752328,,,2017_Apr_28_1701,60.0067170591,FEMA4ImagesEEG,001,100214,
AFSA21.JPG,AFNE22.JPG,AFNE21.JPG,AFSA23.JPG,AFSA22.JPG,AFNE23.JPG,,,,,,,,,,,,,,,,,0,7,7,0,,,,,,,AFSA10.jpg,AFNE15.jpg,AFSA01.jpg,AFNE04.jpg,AFSA01.jpg,FS,4,num_2,16,num_2,0.733434708207,,,2017_Apr_28_1701,60.0067170591,FEMA4ImagesEEG,001,100214,
AFNE23.JPG,AFNE24.JPG,AFNE22.JPG,AFSA24.JPG,AFSA22.JPG,AFSA23.JPG,,,,,,,,,,,,,,,,,0,8,8,8,,,,,,,AFSA03.jpg,AFNE09.jpg,AFNE03.jpg,AFSA10.jpg,AFSA03.jpg,FS,4,num_8,32,num_6,1.03346527473,,,2017_Apr_28_1701,60.0067170591,FEMA4ImagesEEG,001,100214,
AFSA21.JPG,AFNE23.JPG,AFNE21.JPG,AFSA25.JPG,AFNE25.JPG,AFSA23.JPG,,,,,,,,,,,,,,,,,0,9,9,4,,,,,,,AFNE20.jpg,AFSA02.jpg,AFNE07.jpg,AFSA18.jpg,AFSA18.jpg,FS,4,num_4,32,num_8,0.85011477652,,,2017_Apr_28_1701,60.0067170591,FEMA4ImagesEEG,001,100214,
AFSA25.JPG,AFNE24.JPG,AFSA24.JPG,AFNE21.JPG,AFSA21.JPG,AFNE25.JPG,,,,,,,,,,,,,,,,,,,,,0,0,0,2,,,AMSA14.jpg,AMSA09.jpg,AMNE11.jpg,AMNE15.jpg,AMSA14.jpg,MS,2,num_8,32,num_2,0.583461922943,,,2017_Apr_28_1701,60.0067170591,FEMA4ImagesEEG,001,100214,
AMSA21.JPG,AMNE22.JPG,AMNE21.JPG,AMSA23.JPG,AMSA22.JPG,AMNE23.JPG,,,,,,,,,,,,,,,,,,,,,0,1,1,1,,,AMNE05.jpg,AMNE09.jpg,AMSA03.jpg,AMSA16.jpg,AMSA03.jpg,MS,2,num_2,16,num_2,1.3000658477,,,2017_Apr_28_1701,60.0067170591,FEMA4ImagesEEG,001,100214,
AMNE22.JPG,AMSA24.JPG,AMSA22.JPG,AMNE25.JPG,AMNE24.JPG,AMSA25.JPG,,,,,,,,,,,,,,,,,,,,,0,2,2,7,,,AMSA01.jpg,AMSA10.jpg,AMNE02.jpg,AMNE15.jpg,AMSA01.jpg,MS,2,num_8,32,num_2,0.999992622994,,,2017_Apr_28_1701,60.0067170591,FEMA4ImagesEEG,001,100214,
AFNE23.JPG,AFNE24.JPG,AFNE22.JPG,AFSA24.JPG,AFSA22.JPG,AFSA23.JPG,,,,,,,,,,,,,,,,,,,,,0,3,3,8,,,AMNE13.jpg,AMSA03.jpg,AMNE20.jpg,AMSA08.jpg,AMSA03.jpg,MS,2,num_6,16,num_6,1.75005957729,,,2017_Apr_28_1701,60.0067170591,FEMA4ImagesEEG,001,100214,
AMNE23.JPG,AMNE24.JPG,AMNE22.JPG,AMSA24.JPG,AMSA22.JPG,AMSA23.JPG,,,,,,,,,,,,,,,,,,,,,0,4,4,9,,,AMSA02.jpg,AMSA12.jpg,AMNE12.jpg,AMNE06.jpg,AMNE06.jpg,MN,1,num_4,32,num_2,1.56666577933,,,2017_Apr_28_1701,60.0067170591,FEMA4ImagesEEG,001,100214,
AFNE22.JPG,AFSA24.JPG,AFSA22.JPG,AFNE25.JPG,AFNE24.JPG,AFSA25.JPG,,,,,,,,,,,,,,,,,,,,,0,5,5,6,,,AMNE12.jpg,AMNE02.jpg,AMSA18.jpg,AMSA11.jpg,AMSA11.jpg,MS,2,num_4,32,num_2,1.01677561644,,,2017_Apr_28_1701,60.0067170591,FEMA4ImagesEEG,001,100214,
AFSA21.JPG,AFNE22.JPG,AFNE21.JPG,AFSA23.JPG,AFSA22.JPG,AFNE23.JPG,,,,,,,,,,,,,,,,,,,,,0,6,6,0,,,AMNE12.jpg,AMSA15.jpg,AMSA17.jpg,AMNE20.jpg,AMNE20.jpg,MN,1,num_4,32,num_2,1.48342660966,,,2017_Apr_28_1701,60.0067170591,FEMA4ImagesEEG,001,100214,
AMSA25.JPG,AMNE24.JPG,AMSA24.JPG,AMNE26.JPG,AMSA21.JPG,AMNE25.JPG,,,,,,,,,,,,,,,,,,,,,0,7,7,3,,,AMSA15.jpg,AMSA05.jpg,AMNE12.jpg,AMNE05.jpg,AMSA15.jpg,MS,2,num_8,32,num_6,1.90007790748,,,2017_Apr_28_1701,60.0067170591,FEMA4ImagesEEG,001,100214,
AFSA21.JPG,AFNE23.JPG,AFNE21.JPG,AFSA25.JPG,AFNE25.JPG,AFSA23.JPG,,,,,,,,,,,,,,,,,,,,,0,8,8,4,,,AMSA01.jpg,AMSA14.jpg,AMNE03.jpg,AMNE01.jpg,AMSA14.jpg,MS,2,num_6,16,num_6,1.1001450062,,,2017_Apr_28_1701,60.0067170591,FEMA4ImagesEEG,001,100214,
AMSA21.JPG,AMNE23.JPG,AMNE21.JPG,AMSA25.JPG,AMNE25.JPG,AMSA23.JPG,,,,,,,,,,,,,,,,,,,,,0,9,9,5,,,AMSA04.jpg,AMNE09.jpg,AMNE15.jpg,AMSA08.jpg,AMNE09.jpg,MN,1,num_6,32,num_8,0.966723640682,,,2017_Apr_28_1701,60.0067170591,FEMA4ImagesEEG,001,100214,
,,,,,,,,,,,,,,,,,,,,,,,,,,,,,,,,,,,,,,,,,,,space,16.9655304912,2017_Apr_28_1701,60.0067170591,FEMA4ImagesEEG,001,100214,
AFNE01.JPG,AFNE01.JPG,AFNE01.JPG,AFNE01.JPG,AFNE01.JPG,AFNE01.JPG,0,0,0,6,,,,,,,,,,,,,,,,,,,,,,,AFNE01.jpg,AFSA06.jpg,AFNE09.jpg,AFSA15.jpg,AFNE09.jpg,FN,3,num_2,16,num_2,0.900136282085,,,2017_Apr_28_1701,60.0067170591,FEMA4ImagesEEG,001,100214,
AFNE01.JPG,AFNE01.JPG,AFNE01.JPG,AFNE01.JPG,AFNE01.JPG,AFNE01.JPG,0,1,1,8,,,,,,,,,,,,,,,,,,,,,,,AFSA04.jpg,AFNE14.jpg,AFNE06.jpg,AFSA07.jpg,AFNE14.jpg,FN,3,num_6,16,num_6,0.83346328605,,,2017_Apr_28_1701,60.0067170591,FEMA4ImagesEEG,001,100214,
AFNE01.JPG,AFNE01.JPG,AFNE01.JPG,AFNE01.JPG,AFNE01.JPG,AFNE01.JPG,0,2,2,0,,,,,,,,,,,,,,,,,,,,,,,AFNE02.jpg,AFSA01.jpg,AFSA05.jpg,AFNE01.jpg,AFSA05.jpg,FS,4,num_2,16,num_2,0.950091715436,,,2017_Apr_28_1701,60.0067170591,FEMA4ImagesEEG,001,100214,
AFNE01.JPG,AFNE01.JPG,AFNE01.JPG,AFNE01.JPG,AFNE01.JPG,AFNE01.JPG,0,3,3,5,,,,,,,,,,,,,,,,,,,,,,,AFNE06.jpg,AFSA06.jpg,AFSA14.jpg,AFNE01.jpg,AFSA06.jpg,FS,4,num_6,32,num_2,1.40010885894,,,2017_Apr_28_1701,60.0067170591,FEMA4ImagesEEG,001,100214,
AFNE01.JPG,AFNE01.JPG,AFNE01.JPG,AFNE01.JPG,AFNE01.JPG,AFNE01.JPG,0,4,4,3,,,,,,,,,,,,,,,,,,,,,,,AFNE01.jpg,AFNE20.jpg,AFSA05.jpg,AFSA06.jpg,AFSA05.jpg,FS,4,num_2,16,num_2,1.11676987517,,,2017_Apr_28_1701,60.0067170591,FEMA4ImagesEEG,001,100214,
AFNE01.JPG,AFNE01.JPG,AFNE01.JPG,AFNE01.JPG,AFNE01.JPG,AFNE01.JPG,0,5,5,4,,,,,,,,,,,,,,,,,,,,,,,AFSA01.jpg,AFSA02.jpg,AFNE03.jpg,AFNE04.jpg,AFNE03.jpg,FN,3,num_2,32,num_8,1.01678780443,,,2017_Apr_28_1701,60.0067170591,FEMA4ImagesEEG,001,100214,
AFNE01.JPG,AFNE01.JPG,AFNE01.JPG,AFNE01.JPG,AFNE01.JPG,AFNE01.JPG,0,6,6,7,,,,,,,,,,,,,,,,,,,,,,,AFNE17.jpg,AFSA08.jpg,AFNE19.jpg,AFSA20.jpg,AFNE17.jpg,FN,3,num_8,32,num_2,0.883503394551,,,2017_Apr_28_1701,60.0067170591,FEMA4ImagesEEG,001,100214,
AFNE01.JPG,AFNE01.JPG,AFNE01.JPG,AFNE01.JPG,AFNE01.JPG,AFNE01.JPG,0,7,7,9,,,,,,,,,,,,,,,,,,,,,,,AFSA10.jpg,AFNE01.jpg,AFSA18.jpg,AFNE16.jpg,AFSA18.jpg,FS,4,num_2,16,num_2,1.18342074007,,,2017_Apr_28_1701,60.0067170591,FEMA4ImagesEEG,001,100214,
AFNE01.JPG,AFNE01.JPG,AFNE01.JPG,AFNE01.JPG,AFNE01.JPG,AFNE01.JPG,0,8,8,1,,,,,,,,,,,,,,,,,,,,,,,AFNE14.jpg,AFNE13.jpg,AFSA19.jpg,AFSA16.jpg,AFNE14.jpg,FN,3,num_8,16,num_8,1.20005555206,,,2017_Apr_28_1701,60.0067170591,FEMA4ImagesEEG,001,100214,
AFNE01.JPG,AFNE01.JPG,AFNE01.JPG,AFNE01.JPG,AFNE01.JPG,AFNE01.JPG,0,9,9,2,,,,,,,,,,,,,,,,,,,,,,,AFNE09.jpg,AFSA20.jpg,AFNE07.jpg,AFSA13.jpg,AFNE07.jpg,FN,3,num_2,32,num_8,2.21666149737,,,2017_Apr_28_1701,60.0067170591,FEMA4ImagesEEG,001,100214,
AFNE01.JPG,AFNE01.JPG,AFNE01.JPG,AFNE01.JPG,AFNE01.JPG,AFNE01.JPG,1,0,10,9,,,,,,,,,,,,,,,,,,,,,,,AFNE06.jpg,AFNE14.jpg,AFSA07.jpg,AFSA17.jpg,AFSA17.jpg,FS,4,num_4,16,num_4,1.06675799179,,,2017_Apr_28_1701,60.0067170591,FEMA4ImagesEEG,001,100214,
AFNE01.JPG,AFNE01.JPG,AFNE01.JPG,AFNE01.JPG,AFNE01.JPG,AFNE01.JPG,1,1,11,6,,,,,,,,,,,,,,,,,,,,,,,AFSA09.jpg,AFNE02.jpg,AFSA10.jpg,AFNE11.jpg,AFSA10.jpg,FS,4,num_2,16,num_2,0.966768864775,,,2017_Apr_28_1701,60.0067170591,FEMA4ImagesEEG,001,100214,
AFNE01.JPG,AFNE01.JPG,AFNE01.JPG,AFNE01.JPG,AFNE01.JPG,AFNE01.JPG,1,2,12,4,,,,,,,,,,,,,,,,,,,,,,,AFSA17.jpg,AFSA07.jpg,AFNE02.jpg,AFNE07.jpg,AFNE02.jpg,FN,3,num_2,16,num_2,1.40012393356,,,2017_Apr_28_1701,60.0067170591,FEMA4ImagesEEG,001,100214,
AFNE01.JPG,AFNE01.JPG,AFNE01.JPG,AFNE01.JPG,AFNE01.JPG,AFNE01.JPG,1,3,13,7,,,,,,,,,,,,,,,,,,,,,,,AFSA02.jpg,AFNE12.jpg,AFNE11.jpg,AFSA13.jpg,AFSA13.jpg,FS,4,num_4,32,num_2,1.35008767399,,,2017_Apr_28_1701,60.0067170591,FEMA4ImagesEEG,001,100214,
AFNE01.JPG,AFNE01.JPG,AFNE01.JPG,AFNE01.JPG,AFNE01.JPG,AFNE01.JPG,1,4,14,5,,,,,,,,,,,,,,,,,,,,,,,AFNE08.jpg,AFSA15.jpg,AFNE05.jpg,AFSA11.jpg,AFSA15.jpg,FS,4,num_6,32,num_8,1.26675516926,,,2017_Apr_28_1701,60.0067170591,FEMA4ImagesEEG,001,100214,
AFNE01.JPG,AFNE01.JPG,AFNE01.JPG,AFNE01.JPG,AFNE01.JPG,AFNE01.JPG,1,5,15,1,,,,,,,,,,,,,,,,,,,,,,,AFNE10.jpg,AFSA06.jpg,AFSA16.jpg,AFNE07.jpg,AFSA06.jpg,FS,4,num_6,32,num_2,0.983446655795,,,2017_Apr_28_1701,60.0067170591,FEMA4ImagesEEG,001,100214,
AFNE01.JPG,AFNE01.JPG,AFNE01.JPG,AFNE01.JPG,AFNE01.JPG,AFNE01.JPG,1,6,16,0,,,,,,,,,,,,,,,,,,,,,,,AFNE13.jpg,AFSA09.jpg,AFNE12.jpg,AFSA02.jpg,AFNE12.jpg,FN,3,num_2,32,num_6,1.10011132853,,,2017_Apr_28_1701,60.0067170591,FEMA4ImagesEEG,001,100214,
AFNE01.JPG,AFNE01.JPG,AFNE01.JPG,AFNE01.JPG,AFNE01.JPG,AFNE01.JPG,1,7,17,8,,,,,,,,,,,,,,,,,,,,,,,AFSA04.jpg,AFNE04.jpg,AFSA09.jpg,AFNE03.jpg,AFNE03.jpg,FN,3,num_4,16,num_4,1.06673265342,,,2017_Apr_28_1701,60.0067170591,FEMA4ImagesEEG,001,100214,
AFNE01.JPG,AFNE01.JPG,AFNE01.JPG,AFNE01.JPG,AFNE01.JPG,AFNE01.JPG,1,8,18,2,,,,,,,,,,,,,,,,,,,,,,,AFNE15.jpg,AFSA03.jpg,AFSA04.jpg,AFNE16.jpg,AFNE15.jpg,FN,3,num_8,16,num_8,1.20013317093,,,2017_Apr_28_1701,60.0067170591,FEMA4ImagesEEG,001,100214,
AFNE01.JPG,AFNE01.JPG,AFNE01.JPG,AFNE01.JPG,AFNE01.JPG,AFNE01.JPG,1,9,19,3,,,,,,,,,,,,,,,,,,,,,,,AFNE16.jpg,AFNE07.jpg,AFSA20.jpg,AFSA05.jpg,AFNE07.jpg,FN,3,num_6,32,num_8,0.916768207331,,,2017_Apr_28_1701,60.0067170591,FEMA4ImagesEEG,001,100214,
AFNE01.JPG,AFNE01.JPG,AFNE01.JPG,AFNE01.JPG,AFNE01.JPG,AFNE01.JPG,2,0,20,2,,,,,,,,,,,,,,,,,,,,,,,AFSA01.jpg,AFSA04.jpg,AFNE04.jpg,AFNE07.jpg,AFSA01.jpg,FS,4,num_8,32,num_6,0.883407814312,,,2017_Apr_28_1701,60.0067170591,FEMA4ImagesEEG,001,100214,
AFNE01.JPG,AFNE01.JPG,AFNE01.JPG,AFNE01.JPG,AFNE01.JPG,AFNE01.JPG,2,1,21,9,,,,,,,,,,,,,,,,,,,,,,,AFNE04.jpg,AFNE15.jpg,AFSA03.jpg,AFSA12.jpg,AFNE15.jpg,FN,3,num_6,32,num_2,2.93323495204,,,2017_Apr_28_1701,60.0067170591,FEMA4ImagesEEG,001,100214,
AFNE01.JPG,AFNE01.JPG,AFNE01.JPG,AFNE01.JPG,AFNE01.JPG,AFNE01.JPG,2,2,22,4,,,,,,,,,,,,,,,,,,,,,,,AFNE07.jpg,AFSA06.jpg,AFNE17.jpg,AFSA13.jpg,AFNE07.jpg,FN,3,num_8,32,num_2,0.933438942069,,,2017_Apr_28_1701,60.0067170591,FEMA4ImagesEEG,001,100214,
AFNE01.JPG,AFNE01.JPG,AFNE01.JPG,AFNE01.JPG,AFNE01.JPG,AFNE01.JPG,2,3,23,5,,,,,,,,,,,,,,,,,,,,,,,AFNE03.jpg,AFNE10.jpg,AFSA03.jpg,AFSA20.jpg,AFSA20.jpg,FS,4,num_4,16,num_4,1.7333930122,,,2017_Apr_28_1701,60.0067170591,FEMA4ImagesEEG,001,100214,
AFNE01.JPG,AFNE01.JPG,AFNE01.JPG,AFNE01.JPG,AFNE01.JPG,AFNE01.JPG,2,4,24,1,,,,,,,,,,,,,,,,,,,,,,,AFSA06.jpg,AFNE14.jpg,AFSA20.jpg,AFNE02.jpg,AFNE02.jpg,FN,3,num_4,32,num_2,1.23341690726,,,2017_Apr_28_1701,60.0067170591,FEMA4ImagesEEG,001,100214,
AFNE01.JPG,AFNE01.JPG,AFNE01.JPG,AFNE01.JPG,AFNE01.JPG,AFNE01.JPG,2,5,25,6,,,,,,,,,,,,,,,,,,,,,,,AFSA02.jpg,AFNE12.jpg,AFNE20.jpg,AFSA06.jpg,AFNE12.jpg,FN,3,num_6,16,num_6,1.36672569334,,,2017_Apr_28_1701,60.0067170591,FEMA4ImagesEEG,001,100214,
AFNE01.JPG,AFNE01.JPG,AFNE01.JPG,AFNE01.JPG,AFNE01.JPG,AFNE01.JPG,2,6,26,3,,,,,,,,,,,,,,,,,,,,,,,AFSA10.jpg,AFSA09.jpg,AFNE05.jpg,AFNE08.jpg,AFSA10.jpg,FS,4,num_8,32,num_2,0.816730969469,,,2017_Apr_28_1701,60.0067170591,FEMA4ImagesEEG,001,100214,
AFNE01.JPG,AFNE01.JPG,AFNE01.JPG,AFNE01.JPG,AFNE01.JPG,AFNE01.JPG,2,7,27,8,,,,,,,,,,,,,,,,,,,,,,,AFNE10.jpg,AFNE05.jpg,AFSA01.jpg,AFSA19.jpg,AFNE05.jpg,FN,3,num_6,16,num_6,0.766788686509,,,2017_Apr_28_1701,60.0067170591,FEMA4ImagesEEG,001,100214,
AFNE01.JPG,AFNE01.JPG,AFNE01.JPG,AFNE01.JPG,AFNE01.JPG,AFNE01.JPG,2,8,28,0,,,,,,,,,,,,,,,,,,,,,,,AFSA06.jpg,AFNE20.jpg,AFNE13.jpg,AFSA01.jpg,AFSA06.jpg,FS,4,num_8,32,num_2,1.81673129031,,,2017_Apr_28_1701,60.0067170591,FEMA4ImagesEEG,001,100214,
AFNE01.JPG,AFNE01.JPG,AFNE01.JPG,AFNE01.JPG,AFNE01.JPG,AFNE01.JPG,2,9,29,7,,,,,,,,,,,,,,,,,,,,,,,AFSA11.jpg,AFNE03.jpg,AFSA14.jpg,AFNE13.jpg,AFNE03.jpg,FN,3,num_6,32,num_2,1.01677850308,,,2017_Apr_28_1701,60.0067170591,FEMA4ImagesEEG,001,100214,
AFNE01.JPG,AFNE01.JPG,AFNE01.JPG,AFNE01.JPG,AFNE01.JPG,AFNE01.JPG,3,0,30,1,,,,,,,,,,,,,,,,,,,,,,,AFSA17.jpg,AFSA16.jpg,AFNE08.jpg,AFNE05.jpg,AFNE08.jpg,FN,3,num_2,16,num_2,1.05012895318,,,2017_Apr_28_1701,60.0067170591,FEMA4ImagesEEG,001,100214,
AFNE01.JPG,AFNE01.JPG,AFNE01.JPG,AFNE01.JPG,AFNE01.JPG,AFNE01.JPG,3,1,31,8,,,,,,,,,,,,,,,,,,,,,,,AFSA08.jpg,AFSA17.jpg,AFNE08.jpg,AFNE16.jpg,AFSA08.jpg,FS,4,num_8,16,num_8,3.78323650756,,,2017_Apr_28_1701,60.0067170591,FEMA4ImagesEEG,001,100214,
AFNE01.JPG,AFNE01.JPG,AFNE01.JPG,AFNE01.JPG,AFNE01.JPG,AFNE01.JPG,3,2,32,0,,,,,,,,,,,,,,,,,,,,,,,AFNE20.jpg,AFSA18.jpg,AFSA11.jpg,AFNE03.jpg,AFSA11.jpg,FS,4,num_2,32,num_6,1.95025593368,,,2017_Apr_28_1701,60.0067170591,FEMA4ImagesEEG,001,100214,
AFNE01.JPG,AFNE01.JPG,AFNE01.JPG,AFNE01.JPG,AFNE01.JPG,AFNE01.JPG,3,3,33,7,,,,,,,,,,,,,,,,,,,,,,,AFSA10.jpg,AFSA04.jpg,AFNE05.jpg,AFNE03.jpg,AFSA04.jpg,FS,4,num_6,16,num_6,0.833479964524,,,2017_Apr_28_1701,60.0067170591,FEMA4ImagesEEG,001,100214,
AFNE01.JPG,AFNE01.JPG,AFNE01.JPG,AFNE01.JPG,AFNE01.JPG,AFNE01.JPG,3,4,34,9,,,,,,,,,,,,,,,,,,,,,,,AFNE02.jpg,AFSA19.jpg,AFSA14.jpg,AFNE10.jpg,AFNE10.jpg,FN,3,num_4,32,num_6,1.7165837182,,,2017_Apr_28_1701,60.0067170591,FEMA4ImagesEEG,001,100214,
AFNE01.JPG,AFNE01.JPG,AFNE01.JPG,AFNE01.JPG,AFNE01.JPG,AFNE01.JPG,3,5,35,6,,,,,,,,,,,,,,,,,,,,,,,AFNE19.jpg,AFSA07.jpg,AFSA02.jpg,AFNE07.jpg,AFSA02.jpg,FS,4,num_2,16,num_2,0.883462339872,,,2017_Apr_28_1701,60.0067170591,FEMA4ImagesEEG,001,100214,
AFNE01.JPG,AFNE01.JPG,AFNE01.JPG,AFNE01.JPG,AFNE01.JPG,AFNE01.JPG,3,6,36,3,,,,,,,,,,,,,,,,,,,,,,,AFNE14.jpg,AFSA12.jpg,AFSA07.jpg,AFNE13.jpg,AFSA07.jpg,FS,4,num_2,32,num_6,0.600173712359,,,2017_Apr_28_1701,60.0067170591,FEMA4ImagesEEG,001,100214,
AFNE01.JPG,AFNE01.JPG,AFNE01.JPG,AFNE01.JPG,AFNE01.JPG,AFNE01.JPG,3,7,37,2,,,,,,,,,,,,,,,,,,,,,,,AFNE14.jpg,AFNE08.jpg,AFSA04.jpg,AFSA10.jpg,AFSA10.jpg,FS,4,num_4,16,num_4,1.03349029238,,,2017_Apr_28_1701,60.0067170591,FEMA4ImagesEEG,001,100214,
AFNE01.JPG,AFNE01.JPG,AFNE01.JPG,AFNE01.JPG,AFNE01.JPG,AFNE01.JPG,3,8,38,5,,,,,,,,,,,,,,,,,,,,,,,AFNE07.jpg,AFSA07.jpg,AFSA18.jpg,AFNE16.jpg,AFNE16.jpg,FN,3,num_4,32,num_2,0.666774862679,,,2017_Apr_28_1701,60.0067170591,FEMA4ImagesEEG,001,100214,
AFNE01.JPG,AFNE01.JPG,AFNE01.JPG,AFNE01.JPG,AFNE01.JPG,AFNE01.JPG,3,9,39,4,,,,,,,,,,,,,,,,,,,,,,,AFNE15.jpg,AFSA19.jpg,AFSA15.jpg,AFNE03.jpg,AFSA19.jpg,FS,4,num_6,16,num_6,0.666775824851,,,2017_Apr_28_1701,60.0067170591,FEMA4ImagesEEG,001,100214,
AFNE01.JPG,AFNE01.JPG,AFNE01.JPG,AFNE01.JPG,AFNE01.JPG,AFNE01.JPG,4,0,40,6,,,,,,,,,,,,,,,,,,,,,,,AFSA16.jpg,AFNE10.jpg,AFSA06.jpg,AFNE02.jpg,AFNE10.jpg,FN,3,num_6,32,num_2,1.08355830505,,,2017_Apr_28_1701,60.0067170591,FEMA4ImagesEEG,001,100214,
AFNE01.JPG,AFNE01.JPG,AFNE01.JPG,AFNE01.JPG,AFNE01.JPG,AFNE01.JPG,4,1,41,4,,,,,,,,,,,,,,,,,,,,,,,AFSA04.jpg,AFNE11.jpg,AFNE04.jpg,AFSA07.jpg,AFSA07.jpg,FS,4,num_4,16,num_4,1.35015567066,,,2017_Apr_28_1701,60.0067170591,FEMA4ImagesEEG,001,100214,
AFNE01.JPG,AFNE01.JPG,AFNE01.JPG,AFNE01.JPG,AFNE01.JPG,AFNE01.JPG,4,2,42,8,,,,,,,,,,,,,,,,,,,,,,,AFNE14.jpg,AFSA04.jpg,AFSA10.jpg,AFNE13.jpg,AFSA04.jpg,FS,4,num_6,32,num_2,1.70007816411,,,2017_Apr_28_1701,60.0067170591,FEMA4ImagesEEG,001,100214,
AFNE01.JPG,AFNE01.JPG,AFNE01.JPG,AFNE01.JPG,AFNE01.JPG,AFNE01.JPG,4,3,43,0,,,,,,,,,,,,,,,,,,,,,,,AFSA17.jpg,AFNE10.jpg,AFNE20.jpg,AFSA14.jpg,AFSA17.jpg,FS,4,num_8,16,num_8,1.15002378286,,,2017_Apr_28_1701,60.0067170591,FEMA4ImagesEEG,001,100214,
AFNE01.JPG,AFNE01.JPG,AFNE01.JPG,AFNE01.JPG,AFNE01.JPG,AFNE01.JPG,4,4,44,5,,,,,,,,,,,,,,,,,,,,,,,AFNE09.jpg,AFSA08.jpg,AFSA19.jpg,AFNE16.jpg,AFSA08.jpg,FS,4,num_6,16,num_6,1.55010249221,,,2017_Apr_28_1701,60.0067170591,FEMA4ImagesEEG,001,100214,
AFNE01.JPG,AFNE01.JPG,AFNE01.JPG,AFNE01.JPG,AFNE01.JPG,AFNE01.JPG,4,5,45,3,,,,,,,,,,,,,,,,,,,,,,,AFNE10.jpg,AFSA09.jpg,AFSA16.jpg,AFNE07.jpg,AFSA16.jpg,FS,4,num_2,32,num_6,0.750025258283,,,2017_Apr_28_1701,60.0067170591,FEMA4ImagesEEG,001,100214,
AFNE01.JPG,AFNE01.JPG,AFNE01.JPG,AFNE01.JPG,AFNE01.JPG,AFNE01.JPG,4,6,46,9,,,,,,,,,,,,,,,,,,,,,,,AFNE11.jpg,AFSA04.jpg,AFNE07.jpg,AFSA06.jpg,AFNE11.jpg,FN,3,num_8,16,num_8,1.25012260256,,,2017_Apr_28_1701,60.0067170591,FEMA4ImagesEEG,001,100214,
AFNE01.JPG,AFNE01.JPG,AFNE01.JPG,AFNE01.JPG,AFNE01.JPG,AFNE01.JPG,4,7,47,2,,,,,,,,,,,,,,,,,,,,,,,AFNE02.jpg,AFNE09.jpg,AFSA13.jpg,AFSA04.jpg,AFNE09.jpg,FN,3,num_6,32,num_8,0.850115417968,,,2017_Apr_28_1701,60.0067170591,FEMA4ImagesEEG,001,100214,
AFNE01.JPG,AFNE01.JPG,AFNE01.JPG,AFNE01.JPG,AFNE01.JPG,AFNE01.JPG,4,8,48,7,,,,,,,,,,,,,,,,,,,,,,,AFNE02.jpg,AFSA20.jpg,AFNE14.jpg,AFSA05.jpg,AFNE02.jpg,FN,3,num_8,32,num_6,1.05013280199,,,2017_Apr_28_1701,60.0067170591,FEMA4ImagesEEG,001,100214,
AFNE01.JPG,AFNE01.JPG,AFNE01.JPG,AFNE01.JPG,AFNE01.JPG,AFNE01.JPG,4,9,49,1,,,,,,,,,,,,,,,,,,,,,,,AFSA10.jpg,AFNE01.jpg,AFSA18.jpg,AFNE14.jpg,AFSA10.jpg,FS,4,num_8,16,num_8,0.983467183076,,,2017_Apr_28_1701,60.0067170591,FEMA4ImagesEEG,001,100214,
AFNE01.JPG,AFNE01.JPG,AFNE01.JPG,AFNE01.JPG,AFNE01.JPG,AFNE01.JPG,5,0,50,1,,,,,,,,,,,,,,,,,,,,,,,AFNE12.jpg,AFSA09.jpg,AFSA07.jpg,AFNE04.jpg,AFSA09.jpg,FS,4,num_6,32,num_8,0.950116412248,,,2017_Apr_28_1701,60.0067170591,FEMA4ImagesEEG,001,100214,
AFNE01.JPG,AFNE01.JPG,AFNE01.JPG,AFNE01.JPG,AFNE01.JPG,AFNE01.JPG,5,1,51,2,,,,,,,,,,,,,,,,,,,,,,,AFSA01.jpg,AFNE04.jpg,AFSA08.jpg,AFNE20.jpg,AFSA01.jpg,FS,4,num_8,16,num_8,1.46673342318,,,2017_Apr_28_1701,60.0067170591,FEMA4ImagesEEG,001,100214,
AFNE01.JPG,AFNE01.JPG,AFNE01.JPG,AFNE01.JPG,AFNE01.JPG,AFNE01.JPG,5,2,52,9,,,,,,,,,,,,,,,,,,,,,,,AFSA20.jpg,AFNE07.jpg,AFNE20.jpg,AFSA17.jpg,AFNE07.jpg,FN,3,num_6,16,num_6,0.750183382537,,,2017_Apr_28_1701,60.0067170591,FEMA4ImagesEEG,001,100214,
AFNE01.JPG,AFNE01.JPG,AFNE01.JPG,AFNE01.JPG,AFNE01.JPG,AFNE01.JPG,5,3,53,3,,,,,,,,,,,,,,,,,,,,,,,AFSA08.jpg,AFSA04.jpg,AFNE09.jpg,AFNE16.jpg,AFNE09.jpg,FN,3,num_2,32,num_6,0.916756019229,,,2017_Apr_28_1701,60.0067170591,FEMA4ImagesEEG,001,100214,
AFNE01.JPG,AFNE01.JPG,AFNE01.JPG,AFNE01.JPG,AFNE01.JPG,AFNE01.JPG,5,4,54,7,,,,,,,,,,,,,,,,,,,,,,,AFNE08.jpg,AFNE15.jpg,AFSA10.jpg,AFSA14.jpg,AFSA14.jpg,FS,4,num_4,32,num_2,1.50005949708,,,2017_Apr_28_1701,60.0067170591,FEMA4ImagesEEG,001,100214,
AFNE01.JPG,AFNE01.JPG,AFNE01.JPG,AFNE01.JPG,AFNE01.JPG,AFNE01.JPG,5,5,55,8,,,,,,,,,,,,,,,,,,,,,,,AFSA11.jpg,AFNE01.jpg,AFSA14.jpg,AFNE14.jpg,AFNE01.jpg,FN,3,num_6,32,num_8,1.66673765692,,,2017_Apr_28_1701,60.0067170591,FEMA4ImagesEEG,001,100214,
AFNE01.JPG,AFNE01.JPG,AFNE01.JPG,AFNE01.JPG,AFNE01.JPG,AFNE01.JPG,5,6,56,4,,,,,,,,,,,,,,,,,,,,,,,AFNE02.jpg,AFSA02.jpg,AFNE03.jpg,AFSA06.jpg,AFSA02.jpg,FS,4,num_6,16,num_6,0.966756035341,,,2017_Apr_28_1701,60.0067170591,FEMA4ImagesEEG,001,100214,
AFNE01.JPG,AFNE01.JPG,AFNE01.JPG,AFNE01.JPG,AFNE01.JPG,AFNE01.JPG,5,7,57,5,,,,,,,,,,,,,,,,,,,,,,,AFNE05.jpg,AFSA19.jpg,AFSA06.jpg,AFNE20.jpg,AFNE05.jpg,FN,3,num_8,32,num_6,1.45008225355,,,2017_Apr_28_1701,60.0067170591,FEMA4ImagesEEG,001,100214,
AFNE01.JPG,AFNE01.JPG,AFNE01.JPG,AFNE01.JPG,AFNE01.JPG,AFNE01.JPG,5,8,58,0,,,,,,,,,,,,,,,,,,,,,,,AFNE14.jpg,AFNE09.jpg,AFSA19.jpg,AFSA17.jpg,AFSA19.jpg,FS,4,num_2,16,num_2,0.833458795678,,,2017_Apr_28_1701,60.0067170591,FEMA4ImagesEEG,001,100214,
AFNE01.JPG,AFNE01.JPG,AFNE01.JPG,AFNE01.JPG,AFNE01.JPG,AFNE01.JPG,5,9,59,6,,,,,,,,,,,,,,,,,,,,,,,AFSA17.jpg,AFSA05.jpg,AFNE06.jpg,AFNE11.jpg,AFSA17.jpg,FS,4,num_8,32,num_4,0.766745066037,,,2017_Apr_28_1701,60.0067170591,FEMA4ImagesEEG,001,100214,
,,,,,,,,,,,,,,,,,,,,,,,,,,,,,,,,,,,,,,,,,,,space,28.2642822709,2017_Apr_28_1701,60.0067170591,FEMA4ImagesEEG,001,100214,
AFNE01.JPG,AFNE01.JPG,AFNE01.JPG,AFNE01.JPG,AFNE01.JPG,AFNE01.JPG,,,,,0,0,0,5,,,,,,,,,,,,,,,,,,,AMSA11.jpg,AMSA08.jpg,AMNE01.jpg,AMNE10.jpg,AMSA08.jpg,MS,2,num_6,16,num_6,0.650111184106,,,2017_Apr_28_1701,60.0067170591,FEMA4ImagesEEG,001,100214,
AFNE01.JPG,AFNE01.JPG,AFNE01.JPG,AFNE01.JPG,AFNE01.JPG,AFNE01.JPG,,,,,0,1,1,8,,,,,,,,,,,,,,,,,,,AMSA08.jpg,AMSA09.jpg,AMNE18.jpg,AMNE10.jpg,AMSA09.jpg,MS,2,num_6,16,num_6,0.683440144872,,,2017_Apr_28_1701,60.0067170591,FEMA4ImagesEEG,001,100214,
AFNE01.JPG,AFNE01.JPG,AFNE01.JPG,AFNE01.JPG,AFNE01.JPG,AFNE01.JPG,,,,,0,2,2,0,,,,,,,,,,,,,,,,,,,AMSA04.jpg,AMNE01.jpg,AMNE10.jpg,AMSA18.jpg,AMNE01.jpg,MN,1,num_6,32,num_2,1.08343738643,,,2017_Apr_28_1701,60.0067170591,FEMA4ImagesEEG,001,100214,
AFNE01.JPG,AFNE01.JPG,AFNE01.JPG,AFNE01.JPG,AFNE01.JPG,AFNE01.JPG,,,,,0,3,3,3,,,,,,,,,,,,,,,,,,,AMSA17.jpg,AMNE16.jpg,AMNE06.jpg,AMSA05.jpg,AMSA17.jpg,MS,2,num_8,32,num_2,1.83336321556,,,2017_Apr_28_1701,60.0067170591,FEMA4ImagesEEG,001,100214,
AFNE01.JPG,AFNE01.JPG,AFNE01.JPG,AFNE01.JPG,AFNE01.JPG,AFNE01.JPG,,,,,0,4,4,4,,,,,,,,,,,,,,,,,,,AMNE09.jpg,AMNE03.jpg,AMSA12.jpg,AMSA04.jpg,AMSA04.jpg,MS,2,num_4,32,num_6,1.06675157708,,,2017_Apr_28_1701,60.0067170591,FEMA4ImagesEEG,001,100214,
AFNE01.JPG,AFNE01.JPG,AFNE01.JPG,AFNE01.JPG,AFNE01.JPG,AFNE01.JPG,,,,,0,5,5,7,,,,,,,,,,,,,,,,,,,AMSA03.jpg,AMNE12.jpg,AMSA01.jpg,AMNE09.jpg,AMNE09.jpg,MN,1,num_4,32,num_6,1.78335229435,,,2017_Apr_28_1701,60.0067170591,FEMA4ImagesEEG,001,100214,
AFNE01.JPG,AFNE01.JPG,AFNE01.JPG,AFNE01.JPG,AFNE01.JPG,AFNE01.JPG,,,,,0,6,6,2,,,,,,,,,,,,,,,,,,,AMNE18.jpg,AMSA06.jpg,AMNE13.jpg,AMSA05.jpg,AMNE13.jpg,MN,1,num_2,32,num_8,0.966799655813,,,2017_Apr_28_1701,60.0067170591,FEMA4ImagesEEG,001,100214,
AFNE01.JPG,AFNE01.JPG,AFNE01.JPG,AFNE01.JPG,AFNE01.JPG,AFNE01.JPG,,,,,0,7,7,9,,,,,,,,,,,,,,,,,,,AMSA13.jpg,AMNE20.jpg,AMSA11.jpg,AMNE10.jpg,AMSA13.jpg,MS,2,num_8,32,num_2,0.966587005765,,,2017_Apr_28_1701,60.0067170591,FEMA4ImagesEEG,001,100214,
AFNE01.JPG,AFNE01.JPG,AFNE01.JPG,AFNE01.JPG,AFNE01.JPG,AFNE01.JPG,,,,,0,8,8,6,,,,,,,,,,,,,,,,,,,AMSA04.jpg,AMNE11.jpg,AMNE20.jpg,AMSA10.jpg,AMNE20.jpg,MN,1,num_2,16,num_2,1.38341182354,,,2017_Apr_28_1701,60.0067170591,FEMA4ImagesEEG,001,100214,
AFNE01.JPG,AFNE01.JPG,AFNE01.JPG,AFNE01.JPG,AFNE01.JPG,AFNE01.JPG,,,,,0,9,9,1,,,,,,,,,,,,,,,,,,,AMSA04.jpg,AMNE19.jpg,AMNE11.jpg,AMSA13.jpg,AMNE11.jpg,MN,1,num_2,32,num_8,1.0334527659,,,2017_Apr_28_1701,60.0067170591,FEMA4ImagesEEG,001,100214,
AFNE01.JPG,AFNE01.JPG,AFNE01.JPG,AFNE01.JPG,AFNE01.JPG,AFNE01.JPG,,,,,1,0,10,8,,,,,,,,,,,,,,,,,,,AMNE19.jpg,AMSA12.jpg,AMSA08.jpg,AMNE07.jpg,AMNE19.jpg,MN,1,num_8,32,num_6,0.81664661516,,,2017_Apr_28_1701,60.0067170591,FEMA4ImagesEEG,001,100214,
AFNE01.JPG,AFNE01.JPG,AFNE01.JPG,AFNE01.JPG,AFNE01.JPG,AFNE01.JPG,,,,,1,1,11,2,,,,,,,,,,,,,,,,,,,AMNE14.jpg,AMSA20.jpg,AMSA13.jpg,AMNE10.jpg,AMSA13.jpg,MS,2,num_2,32,num_6,3.16661689861,,,2017_Apr_28_1701,60.0067170591,FEMA4ImagesEEG,001,100214,
AFNE01.JPG,AFNE01.JPG,AFNE01.JPG,AFNE01.JPG,AFNE01.JPG,AFNE01.JPG,,,,,1,2,12,4,,,,,,,,,,,,,,,,,,,AMNE16.jpg,AMSA12.jpg,AMNE15.jpg,AMSA16.jpg,AMNE16.jpg,MN,1,num_8,16,num_8,0.683487293427,,,2017_Apr_28_1701,60.0067170591,FEMA4ImagesEEG,001,100214,
AFNE01.JPG,AFNE01.JPG,AFNE01.JPG,AFNE01.JPG,AFNE01.JPG,AFNE01.JPG,,,,,1,3,13,7,,,,,,,,,,,,,,,,,,,AMSA09.jpg,AMNE03.jpg,AMSA20.jpg,AMNE08.jpg,AMSA20.jpg,MS,2,num_2,32,num_6,0.966771430802,,,2017_Apr_28_1701,60.0067170591,FEMA4ImagesEEG,001,100214,
AFNE01.JPG,AFNE01.JPG,AFNE01.JPG,AFNE01.JPG,AFNE01.JPG,AFNE01.JPG,,,,,1,4,14,0,,,,,,,,,,,,,,,,,,,AMNE06.jpg,AMNE01.jpg,AMSA04.jpg,AMSA05.jpg,AMSA04.jpg,MS,2,num_2,32,num_6,2.36672152369,,,2017_Apr_28_1701,60.0067170591,FEMA4ImagesEEG,001,100214,
AFNE01.JPG,AFNE01.JPG,AFNE01.JPG,AFNE01.JPG,AFNE01.JPG,AFNE01.JPG,,,,,1,5,15,1,,,,,,,,,,,,,,,,,,,AMSA14.jpg,AMNE19.jpg,AMSA03.jpg,AMNE08.jpg,AMSA03.jpg,MS,2,num_2,32,num_6,0.850167377619,,,2017_Apr_28_1701,60.0067170591,FEMA4ImagesEEG,001,100214,
AFNE01.JPG,AFNE01.JPG,AFNE01.JPG,AFNE01.JPG,AFNE01.JPG,AFNE01.JPG,,,,,1,6,16,6,,,,,,,,,,,,,,,,,,,AMSA16.jpg,AMSA12.jpg,AMNE11.jpg,AMNE02.jpg,AMNE02.jpg,MN,1,num_4,16,num_4,1.70002043108,,,2017_Apr_28_1701,60.0067170591,FEMA4ImagesEEG,001,100214,
AFNE01.JPG,AFNE01.JPG,AFNE01.JPG,AFNE01.JPG,AFNE01.JPG,AFNE01.JPG,,,,,1,7,17,3,,,,,,,,,,,,,,,,,,,AMSA03.jpg,AMNE01.jpg,AMNE15.jpg,AMSA08.jpg,AMNE01.jpg,MN,1,num_6,32,num_2,0.833476115717,,,2017_Apr_28_1701,60.0067170591,FEMA4ImagesEEG,001,100214,
AFNE01.JPG,AFNE01.JPG,AFNE01.JPG,AFNE01.JPG,AFNE01.JPG,AFNE01.JPG,,,,,1,8,18,9,,,,,,,,,,,,,,,,,,,AMSA09.jpg,AMNE13.jpg,AMSA06.jpg,AMNE20.jpg,AMNE13.jpg,MN,1,num_6,32,num_8,1.05013087753,,,2017_Apr_28_1701,60.0067170591,FEMA4ImagesEEG,001,100214,
AFNE01.JPG,AFNE01.JPG,AFNE01.JPG,AFNE01.JPG,AFNE01.JPG,AFNE01.JPG,,,,,1,9,19,5,,,,,,,,,,,,,,,,,,,AMSA04.jpg,AMNE13.jpg,AMSA06.jpg,AMNE07.jpg,AMSA04.jpg,MS,2,num_8,32,num_2,1.61668087007,,,2017_Apr_28_1701,60.0067170591,FEMA4ImagesEEG,001,100214,
AFNE01.JPG,AFNE01.JPG,AFNE01.JPG,AFNE01.JPG,AFNE01.JPG,AFNE01.JPG,,,,,2,0,20,9,,,,,,,,,,,,,,,,,,,AMNE11.jpg,AMSA04.jpg,AMNE14.jpg,AMSA03.jpg,AMSA04.jpg,MS,2,num_6,16,num_6,0.733473517699,,,2017_Apr_28_1701,60.0067170591,FEMA4ImagesEEG,001,100214,
AFNE01.JPG,AFNE01.JPG,AFNE01.JPG,AFNE01.JPG,AFNE01.JPG,AFNE01.JPG,,,,,2,1,21,7,,,,,,,,,,,,,,,,,,,AMSA09.jpg,AMNE18.jpg,AMSA20.jpg,AMNE17.jpg,AMSA09.jpg,MS,2,num_8,32,num_6,0.866775247618,,,2017_Apr_28_1701,60.0067170591,FEMA4ImagesEEG,001,100214,
AFNE01.JPG,AFNE01.JPG,AFNE01.JPG,AFNE01.JPG,AFNE01.JPG,AFNE01.JPG,,,,,2,2,22,2,,,,,,,,,,,,,,,,,,,AMNE07.jpg,AMNE10.jpg,AMSA16.jpg,AMSA03.jpg,AMNE10.jpg,MN,1,num_6,16,num_6,0.983432863955,,,2017_Apr_28_1701,60.0067170591,FEMA4ImagesEEG,001,100214,
AFNE01.JPG,AFNE01.JPG,AFNE01.JPG,AFNE01.JPG,AFNE01.JPG,AFNE01.JPG,,,,,2,3,23,0,,,,,,,,,,,,,,,,,,,AMSA13.jpg,AMSA20.jpg,AMNE07.jpg,AMNE06.jpg,AMNE06.jpg,MN,1,num_4,32,num_2,1.2837027018,,,2017_Apr_28_1701,60.0067170591,FEMA4ImagesEEG,001,100214,
AFNE01.JPG,AFNE01.JPG,AFNE01.JPG,AFNE01.JPG,AFNE01.JPG,AFNE01.JPG,,,,,2,4,24,1,,,,,,,,,,,,,,,,,,,AMSA04.jpg,AMSA03.jpg,AMNE14.jpg,AMNE02.jpg,AMSA04.jpg,MS,2,num_8,32,num_6,1.2000988517,,,2017_Apr_28_1701,60.0067170591,FEMA4ImagesEEG,001,100214,
AFNE01.JPG,AFNE01.JPG,AFNE01.JPG,AFNE01.JPG,AFNE01.JPG,AFNE01.JPG,,,,,2,5,25,4,,,,,,,,,,,,,,,,,,,AMSA02.jpg,AMNE09.jpg,AMSA04.jpg,AMNE07.jpg,AMNE09.jpg,MN,1,num_6,32,num_4,1.15009819425,,,2017_Apr_28_1701,60.0067170591,FEMA4ImagesEEG,001,100214,
AFNE01.JPG,AFNE01.JPG,AFNE01.JPG,AFNE01.JPG,AFNE01.JPG,AFNE01.JPG,,,,,2,6,26,5,,,,,,,,,,,,,,,,,,,AMNE18.jpg,AMSA04.jpg,AMSA19.jpg,AMNE07.jpg,AMSA04.jpg,MS,2,num_6,16,num_6,1.0167339202,,,2017_Apr_28_1701,60.0067170591,FEMA4ImagesEEG,001,100214,
AFNE01.JPG,AFNE01.JPG,AFNE01.JPG,AFNE01.JPG,AFNE01.JPG,AFNE01.JPG,,,,,2,7,27,3,,,,,,,,,,,,,,,,,,,AMNE19.jpg,AMSA20.jpg,AMNE11.jpg,AMSA18.jpg,AMNE19.jpg,MN,1,num_8,16,num_8,0.883440529695,,,2017_Apr_28_1701,60.0067170591,FEMA4ImagesEEG,001,100214,
AFNE01.JPG,AFNE01.JPG,AFNE01.JPG,AFNE01.JPG,AFNE01.JPG,AFNE01.JPG,,,,,2,8,28,6,,,,,,,,,,,,,,,,,,,AMSA14.jpg,AMNE07.jpg,AMNE20.jpg,AMSA19.jpg,AMNE20.jpg,MN,1,num_2,32,num_6,0.916732605314,,,2017_Apr_28_1701,60.0067170591,FEMA4ImagesEEG,001,100214,
AFNE01.JPG,AFNE01.JPG,AFNE01.JPG,AFNE01.JPG,AFNE01.JPG,AFNE01.JPG,,,,,2,9,29,8,,,,,,,,,,,,,,,,,,,AMSA05.jpg,AMSA12.jpg,AMNE11.jpg,AMNE03.jpg,AMNE11.jpg,MN,1,num_2,16,num_2,1.01679550216,,,2017_Apr_28_1701,60.0067170591,FEMA4ImagesEEG,001,100214,
AFNE01.JPG,AFNE01.JPG,AFNE01.JPG,AFNE01.JPG,AFNE01.JPG,AFNE01.JPG,,,,,3,0,30,6,,,,,,,,,,,,,,,,,,,AMNE13.jpg,AMNE19.jpg,AMSA04.jpg,AMSA07.jpg,AMNE13.jpg,MN,1,num_8,32,num_6,0.783453006414,,,2017_Apr_28_1701,60.0067170591,FEMA4ImagesEEG,001,100214,
AFNE01.JPG,AFNE01.JPG,AFNE01.JPG,AFNE01.JPG,AFNE01.JPG,AFNE01.JPG,,,,,3,1,31,5,,,,,,,,,,,,,,,,,,,AMSA15.jpg,AMNE11.jpg,AMNE14.jpg,AMSA14.jpg,AMSA14.jpg,MS,2,num_4,32,num_2,0.783461666433,,,2017_Apr_28_1701,60.0067170591,FEMA4ImagesEEG,001,100214,
AFNE01.JPG,AFNE01.JPG,AFNE01.JPG,AFNE01.JPG,AFNE01.JPG,AFNE01.JPG,,,,,3,2,32,8,,,,,,,,,,,,,,,,,,,AMNE10.jpg,AMNE12.jpg,AMSA05.jpg,AMSA20.jpg,AMNE12.jpg,MN,1,num_6,16,num_6,1.01673552394,,,2017_Apr_28_1701,60.0067170591,FEMA4ImagesEEG,001,100214,
AFNE01.JPG,AFNE01.JPG,AFNE01.JPG,AFNE01.JPG,AFNE01.JPG,AFNE01.JPG,,,,,3,3,33,4,,,,,,,,,,,,,,,,,,,AMSA07.jpg,AMNE14.jpg,AMSA02.jpg,AMNE17.jpg,AMSA07.jpg,MS,2,num_8,16,num_8,1.03342742752,,,2017_Apr_28_1701,60.0067170591,FEMA4ImagesEEG,001,100214,
AFNE01.JPG,AFNE01.JPG,AFNE01.JPG,AFNE01.JPG,AFNE01.JPG,AFNE01.JPG,,,,,3,4,34,2,,,,,,,,,,,,,,,,,,,AMSA01.jpg,AMNE13.jpg,AMNE19.jpg,AMSA02.jpg,AMSA01.jpg,MS,2,num_8,16,num_8,0.750186590012,,,2017_Apr_28_1701,60.0067170591,FEMA4ImagesEEG,001,100214,
AFNE01.JPG,AFNE01.JPG,AFNE01.JPG,AFNE01.JPG,AFNE01.JPG,AFNE01.JPG,,,,,3,5,35,7,,,,,,,,,,,,,,,,,,,AMNE09.jpg,AMSA01.jpg,AMSA20.jpg,AMNE15.jpg,AMSA01.jpg,MS,2,num_6,16,num_6,0.6501329944,,,2017_Apr_28_1701,60.0067170591,FEMA4ImagesEEG,001,100214,
AFNE01.JPG,AFNE01.JPG,AFNE01.JPG,AFNE01.JPG,AFNE01.JPG,AFNE01.JPG,,,,,3,6,36,3,,,,,,,,,,,,,,,,,,,AMSA04.jpg,AMNE02.jpg,AMSA03.jpg,AMNE05.jpg,AMSA04.jpg,MS,2,num_8,32,num_6,1.38339129626,,,2017_Apr_28_1701,60.0067170591,FEMA4ImagesEEG,001,100214,
AFNE01.JPG,AFNE01.JPG,AFNE01.JPG,AFNE01.JPG,AFNE01.JPG,AFNE01.JPG,,,,,3,7,37,1,,,,,,,,,,,,,,,,,,,AMSA19.jpg,AMNE12.jpg,AMSA03.jpg,AMNE13.jpg,AMSA19.jpg,MS,2,num_8,32,num_6,0.650107014575,,,2017_Apr_28_1701,60.0067170591,FEMA4ImagesEEG,001,100214,
AFNE01.JPG,AFNE01.JPG,AFNE01.JPG,AFNE01.JPG,AFNE01.JPG,AFNE01.JPG,,,,,3,8,38,0,,,,,,,,,,,,,,,,,,,AMNE18.jpg,AMSA19.jpg,AMNE19.jpg,AMSA12.jpg,AMNE19.jpg,MN,1,num_2,16,num_2,3.81655135565,,,2017_Apr_28_1701,60.0067170591,FEMA4ImagesEEG,001,100214,
AFNE01.JPG,AFNE01.JPG,AFNE01.JPG,AFNE01.JPG,AFNE01.JPG,AFNE01.JPG,,,,,3,9,39,9,,,,,,,,,,,,,,,,,,,AMSA03.jpg,AMNE05.jpg,AMNE20.jpg,AMSA16.jpg,AMNE05.jpg,MN,1,num_6,16,num_6,0.900092661497,,,2017_Apr_28_1701,60.0067170591,FEMA4ImagesEEG,001,100214,
AFNE01.JPG,AFNE01.JPG,AFNE01.JPG,AFNE01.JPG,AFNE01.JPG,AFNE01.JPG,,,,,4,0,40,1,,,,,,,,,,,,,,,,,,,AMNE10.jpg,AMNE14.jpg,AMSA07.jpg,AMSA12.jpg,AMNE14.jpg,MN,1,num_6,16,num_6,0.583330419962,,,2017_Apr_28_1701,60.0067170591,FEMA4ImagesEEG,001,100214,
AFNE01.JPG,AFNE01.JPG,AFNE01.JPG,AFNE01.JPG,AFNE01.JPG,AFNE01.JPG,,,,,4,1,41,9,,,,,,,,,,,,,,,,,,,AMNE14.jpg,AMNE06.jpg,AMSA09.jpg,AMSA03.jpg,AMSA09.jpg,MS,2,num_2,16,num_2,0.983455636422,,,2017_Apr_28_1701,60.0067170591,FEMA4ImagesEEG,001,100214,
AFNE01.JPG,AFNE01.JPG,AFNE01.JPG,AFNE01.JPG,AFNE01.JPG,AFNE01.JPG,,,,,4,2,42,8,,,,,,,,,,,,,,,,,,,AMNE10.jpg,AMSA03.jpg,AMNE07.jpg,AMSA10.jpg,AMSA10.jpg,MS,2,num_4,16,num_4,0.700177272549,,,2017_Apr_28_1701,60.0067170591,FEMA4ImagesEEG,001,100214,
AFNE01.JPG,AFNE01.JPG,AFNE01.JPG,AFNE01.JPG,AFNE01.JPG,AFNE01.JPG,,,,,4,3,43,7,,,,,,,,,,,,,,,,,,,AMSA19.jpg,AMNE20.jpg,AMSA11.jpg,AMNE09.jpg,AMSA11.jpg,MS,2,num_2,16,num_2,1.76671459584,,,2017_Apr_28_1701,60.0067170591,FEMA4ImagesEEG,001,100214,
AFNE01.JPG,AFNE01.JPG,AFNE01.JPG,AFNE01.JPG,AFNE01.JPG,AFNE01.JPG,,,,,4,4,44,4,,,,,,,,,,,,,,,,,,,AMSA06.jpg,AMSA11.jpg,AMNE05.jpg,AMNE02.jpg,AMNE02.jpg,MN,1,num_4,16,num_4,0.783509456436,,,2017_Apr_28_1701,60.0067170591,FEMA4ImagesEEG,001,100214,
AFNE01.JPG,AFNE01.JPG,AFNE01.JPG,AFNE01.JPG,AFNE01.JPG,AFNE01.JPG,,,,,4,5,45,5,,,,,,,,,,,,,,,,,,,AMNE12.jpg,AMSA20.jpg,AMSA13.jpg,AMNE14.jpg,AMNE14.jpg,MN,1,num_4,16,num_4,0.616784468875,,,2017_Apr_28_1701,60.0067170591,FEMA4ImagesEEG,001,100214,
AFNE01.JPG,AFNE01.JPG,AFNE01.JPG,AFNE01.JPG,AFNE01.JPG,AFNE01.JPG,,,,,4,6,46,0,,,,,,,,,,,,,,,,,,,AMSA13.jpg,AMSA10.jpg,AMNE07.jpg,AMNE11.jpg,AMSA10.jpg,MS,2,num_6,16,num_6,0.916767565766,,,2017_Apr_28_1701,60.0067170591,FEMA4ImagesEEG,001,100214,
AFNE01.JPG,AFNE01.JPG,AFNE01.JPG,AFNE01.JPG,AFNE01.JPG,AFNE01.JPG,,,,,4,7,47,3,,,,,,,,,,,,,,,,,,,AMNE09.jpg,AMNE17.jpg,AMSA06.jpg,AMSA04.jpg,AMSA06.jpg,MS,2,num_2,16,num_2,0.666782239685,,,2017_Apr_28_1701,60.0067170591,FEMA4ImagesEEG,001,100214,
AFNE01.JPG,AFNE01.JPG,AFNE01.JPG,AFNE01.JPG,AFNE01.JPG,AFNE01.JPG,,,,,4,8,48,6,,,,,,,,,,,,,,,,,,,AMNE16.jpg,AMNE19.jpg,AMSA11.jpg,AMSA13.jpg,AMSA13.jpg,MS,2,num_4,32,num_8,1.56659008481,,,2017_Apr_28_1701,60.0067170591,FEMA4ImagesEEG,001,100214,
AFNE01.JPG,AFNE01.JPG,AFNE01.JPG,AFNE01.JPG,AFNE01.JPG,AFNE01.JPG,,,,,4,9,49,2,,,,,,,,,,,,,,,,,,,AMSA20.jpg,AMSA17.jpg,AMNE17.jpg,AMNE15.jpg,AMSA20.jpg,MS,2,num_8,32,num_2,0.883463622886,,,2017_Apr_28_1701,60.0067170591,FEMA4ImagesEEG,001,100214,
AFNE01.JPG,AFNE01.JPG,AFNE01.JPG,AFNE01.JPG,AFNE01.JPG,AFNE01.JPG,,,,,5,0,50,9,,,,,,,,,,,,,,,,,,,AMSA11.jpg,AMNE19.jpg,AMSA14.jpg,AMNE11.jpg,AMNE19.jpg,MN,1,num_6,16,num_6,0.833451739512,,,2017_Apr_28_1701,60.0067170591,FEMA4ImagesEEG,001,100214,
AFNE01.JPG,AFNE01.JPG,AFNE01.JPG,AFNE01.JPG,AFNE01.JPG,AFNE01.JPG,,,,,5,1,51,3,,,,,,,,,,,,,,,,,,,AMSA04.jpg,AMSA05.jpg,AMNE08.jpg,AMNE19.jpg,AMNE19.jpg,MN,1,num_4,32,num_2,1.51672926953,,,2017_Apr_28_1701,60.0067170591,FEMA4ImagesEEG,001,100214,
AFNE01.JPG,AFNE01.JPG,AFNE01.JPG,AFNE01.JPG,AFNE01.JPG,AFNE01.JPG,,,,,5,2,52,2,,,,,,,,,,,,,,,,,,,AMNE19.jpg,AMNE09.jpg,AMSA11.jpg,AMSA04.jpg,AMNE19.jpg,MN,1,num_8,16,num_8,0.600174032967,,,2017_Apr_28_1701,60.0067170591,FEMA4ImagesEEG,001,100214,
AFNE01.JPG,AFNE01.JPG,AFNE01.JPG,AFNE01.JPG,AFNE01.JPG,AFNE01.JPG,,,,,5,3,53,4,,,,,,,,,,,,,,,,,,,AMSA19.jpg,AMNE11.jpg,AMNE05.jpg,AMSA15.jpg,AMSA15.jpg,MS,2,num_4,16,num_4,1.01677369187,,,2017_Apr_28_1701,60.0067170591,FEMA4ImagesEEG,001,100214,
AFNE01.JPG,AFNE01.JPG,AFNE01.JPG,AFNE01.JPG,AFNE01.JPG,AFNE01.JPG,,,,,5,4,54,7,,,,,,,,,,,,,,,,,,,AMNE07.jpg,AMSA07.jpg,AMNE06.jpg,AMSA17.jpg,AMNE06.jpg,MN,1,num_2,32,num_6,0.733525477466,,,2017_Apr_28_1701,60.0067170591,FEMA4ImagesEEG,001,100214,
AFNE01.JPG,AFNE01.JPG,AFNE01.JPG,AFNE01.JPG,AFNE01.JPG,AFNE01.JPG,,,,,5,5,55,6,,,,,,,,,,,,,,,,,,,AMSA20.jpg,AMNE03.jpg,AMSA11.jpg,AMNE19.jpg,AMNE03.jpg,MN,1,num_6,16,num_6,1.11677147879,,,2017_Apr_28_1701,60.0067170591,FEMA4ImagesEEG,001,100214,
AFNE01.JPG,AFNE01.JPG,AFNE01.JPG,AFNE01.JPG,AFNE01.JPG,AFNE01.JPG,,,,,5,6,56,1,,,,,,,,,,,,,,,,,,,AMSA06.jpg,AMNE02.jpg,AMSA16.jpg,AMNE15.jpg,AMSA06.jpg,MS,2,num_8,32,num_2,0.966730055399,,,2017_Apr_28_1701,60.0067170591,FEMA4ImagesEEG,001,100214,
AFNE01.JPG,AFNE01.JPG,AFNE01.JPG,AFNE01.JPG,AFNE01.JPG,AFNE01.JPG,,,,,5,7,57,0,,,,,,,,,,,,,,,,,,,AMNE20.jpg,AMSA08.jpg,AMSA13.jpg,AMNE09.jpg,AMNE09.jpg,MN,1,num_4,32,num_2,0.900117999874,,,2017_Apr_28_1701,60.0067170591,FEMA4ImagesEEG,001,100214,
AFNE01.JPG,AFNE01.JPG,AFNE01.JPG,AFNE01.JPG,AFNE01.JPG,AFNE01.JPG,,,,,5,8,58,5,,,,,,,,,,,,,,,,,,,AMNE13.jpg,AMSA20.jpg,AMNE20.jpg,AMSA14.jpg,AMNE20.jpg,MN,1,num_2,16,num_2,1.48340255418,,,2017_Apr_28_1701,60.0067170591,FEMA4ImagesEEG,001,100214,
AFNE01.JPG,AFNE01.JPG,AFNE01.JPG,AFNE01.JPG,AFNE01.JPG,AFNE01.JPG,,,,,5,9,59,8,,,,,,,,,,,,,,,,,,,AMSA09.jpg,AMSA02.jpg,AMNE02.jpg,AMNE12.jpg,AMNE02.jpg,MN,1,num_2,32,num_8,1.10007027397,,,2017_Apr_28_1701,60.0067170591,FEMA4ImagesEEG,001,100214,
,,,,,,,,,,,,,,,,,,,,,,,,,,,,,,,,,,,,,,,,,,,space,29.4808340756,2017_Apr_28_1701,60.0067170591,FEMA4ImagesEEG,001,100214,
AFNE01.JPG,AFNE01.JPG,AFNE01.JPG,AFNE01.JPG,AFNE01.JPG,AFNE01.JPG,,,,,,,,,0,0,0,1,,,,,,,,,,,,,,,AFNE09.jpg,AFSA08.jpg,AFNE05.jpg,AFSA17.jpg,AFSA17.jpg,FS,4,num_4,32,num_2,0.816840341548,,,2017_Apr_28_1701,60.0067170591,FEMA4ImagesEEG,001,100214,
AFNE01.JPG,AFNE01.JPG,AFNE01.JPG,AFNE01.JPG,AFNE01.JPG,AFNE01.JPG,,,,,,,,,0,1,1,9,,,,,,,,,,,,,,,AFSA18.jpg,AFNE19.jpg,AFSA20.jpg,AFNE02.jpg,AFNE19.jpg,FN,3,num_6,32,num_8,1.70005699538,,,2017_Apr_28_1701,60.0067170591,FEMA4ImagesEEG,001,100214,
AFNE01.JPG,AFNE01.JPG,AFNE01.JPG,AFNE01.JPG,AFNE01.JPG,AFNE01.JPG,,,,,,,,,0,2,2,0,,,,,,,,,,,,,,,AFNE19.jpg,AFSA11.jpg,AFSA18.jpg,AFNE20.jpg,AFSA11.jpg,FS,4,num_6,16,num_6,0.74998612795,,,2017_Apr_28_1701,60.0067170591,FEMA4ImagesEEG,001,100214,
AFNE01.JPG,AFNE01.JPG,AFNE01.JPG,AFNE01.JPG,AFNE01.JPG,AFNE01.JPG,,,,,,,,,0,3,3,6,,,,,,,,,,,,,,,AFNE03.jpg,AFNE16.jpg,AFSA18.jpg,AFSA20.jpg,AFNE03.jpg,FN,3,num_8,32,num_6,0.850141718518,,,2017_Apr_28_1701,60.0067170591,FEMA4ImagesEEG,001,100214,
AFNE01.JPG,AFNE01.JPG,AFNE01.JPG,AFNE01.JPG,AFNE01.JPG,AFNE01.JPG,,,,,,,,,0,4,4,4,,,,,,,,,,,,,,,AFSA13.jpg,AFNE14.jpg,AFSA10.jpg,AFNE18.jpg,AFNE14.jpg,FN,3,num_6,32,num_4,1.15018319013,,,2017_Apr_28_1701,60.0067170591,FEMA4ImagesEEG,001,100214,
AFNE01.JPG,AFNE01.JPG,AFNE01.JPG,AFNE01.JPG,AFNE01.JPG,AFNE01.JPG,,,,,,,,,0,5,5,8,,,,,,,,,,,,,,,AFNE15.jpg,AFNE06.jpg,AFSA15.jpg,AFSA08.jpg,AFNE15.jpg,FN,3,num_8,32,num_6,1.10016392975,,,2017_Apr_28_1701,60.0067170591,FEMA4ImagesEEG,001,100214,
AFNE01.JPG,AFNE01.JPG,AFNE01.JPG,AFNE01.JPG,AFNE01.JPG,AFNE01.JPG,,,,,,,,,0,6,6,2,,,,,,,,,,,,,,,AFNE18.jpg,AFSA10.jpg,AFSA09.jpg,AFNE11.jpg,AFNE18.jpg,FN,3,num_8,16,num_8,1.65007012966,,,2017_Apr_28_1701,60.0067170591,FEMA4ImagesEEG,001,100214,
AFNE01.JPG,AFNE01.JPG,AFNE01.JPG,AFNE01.JPG,AFNE01.JPG,AFNE01.JPG,,,,,,,,,0,7,7,5,,,,,,,,,,,,,,,AFNE20.jpg,AFSA04.jpg,AFNE03.jpg,AFSA12.jpg,AFNE20.jpg,FN,3,num_8,16,num_8,1.11674132943,,,2017_Apr_28_1701,60.0067170591,FEMA4ImagesEEG,001,100214,
AFNE01.JPG,AFNE01.JPG,AFNE01.JPG,AFNE01.JPG,AFNE01.JPG,AFNE01.JPG,,,,,,,,,0,8,8,7,,,,,,,,,,,,,,,AFNE02.jpg,AFSA19.jpg,AFSA20.jpg,AFNE03.jpg,AFSA19.jpg,FS,4,num_6,16,num_6,2.74997329852,,,2017_Apr_28_1701,60.0067170591,FEMA4ImagesEEG,001,100214,
AFNE01.JPG,AFNE01.JPG,AFNE01.JPG,AFNE01.JPG,AFNE01.JPG,AFNE01.JPG,,,,,,,,,0,9,9,3,,,,,,,,,,,,,,,AFNE03.jpg,AFSA03.jpg,AFSA10.jpg,AFNE13.jpg,AFSA10.jpg,FS,4,num_2,32,num_6,0.800184681546,,,2017_Apr_28_1701,60.0067170591,FEMA4ImagesEEG,001,100214,
AFNE01.JPG,AFNE01.JPG,AFNE01.JPG,AFNE01.JPG,AFNE01.JPG,AFNE01.JPG,,,,,,,,,1,0,10,8,,,,,,,,,,,,,,,AFNE03.jpg,AFSA19.jpg,AFSA11.jpg,AFNE18.jpg,AFNE18.jpg,FN,3,num_4,32,num_8,0.783478665515,,,2017_Apr_28_1701,60.0067170591,FEMA4ImagesEEG,001,100214,
AFNE01.JPG,AFNE01.JPG,AFNE01.JPG,AFNE01.JPG,AFNE01.JPG,AFNE01.JPG,,,,,,,,,1,1,11,7,,,,,,,,,,,,,,,AFNE08.jpg,AFSA07.jpg,AFNE07.jpg,AFSA16.jpg,AFNE07.jpg,FN,3,num_2,16,num_2,0.716817857814,,,2017_Apr_28_1701,60.0067170591,FEMA4ImagesEEG,001,100214,
AFNE01.JPG,AFNE01.JPG,AFNE01.JPG,AFNE01.JPG,AFNE01.JPG,AFNE01.JPG,,,,,,,,,1,2,12,6,,,,,,,,,,,,,,,AFSA06.jpg,AFNE09.jpg,AFNE08.jpg,AFSA08.jpg,AFSA06.jpg,FS,4,num_8,16,num_8,1.63335577445,,,2017_Apr_28_1701,60.0067170591,FEMA4ImagesEEG,001,100214,
AFNE01.JPG,AFNE01.JPG,AFNE01.JPG,AFNE01.JPG,AFNE01.JPG,AFNE01.JPG,,,,,,,,,1,3,13,2,,,,,,,,,,,,,,,AFSA19.jpg,AFNE03.jpg,AFNE18.jpg,AFSA03.jpg,AFNE18.jpg,FN,3,num_2,32,num_6,0.76677489467,,,2017_Apr_28_1701,60.0067170591,FEMA4ImagesEEG,001,100214,
AFNE01.JPG,AFNE01.JPG,AFNE01.JPG,AFNE01.JPG,AFNE01.JPG,AFNE01.JPG,,,,,,,,,1,4,14,3,,,,,,,,,,,,,,,AFNE11.jpg,AFSA04.jpg,AFNE09.jpg,AFSA16.jpg,AFSA04.jpg,FS,4,num_6,32,num_2,0.850096173701,,,2017_Apr_28_1701,60.0067170591,FEMA4ImagesEEG,001,100214,
AFNE01.JPG,AFNE01.JPG,AFNE01.JPG,AFNE01.JPG,AFNE01.JPG,AFNE01.JPG,,,,,,,,,1,5,15,1,,,,,,,,,,,,,,,AFSA01.jpg,AFSA02.jpg,AFNE17.jpg,AFNE13.jpg,AFNE13.jpg,FN,3,num_4,32,num_2,0.666754976846,,,2017_Apr_28_1701,60.0067170591,FEMA4ImagesEEG,001,100214,
AFNE01.JPG,AFNE01.JPG,AFNE01.JPG,AFNE01.JPG,AFNE01.JPG,AFNE01.JPG,,,,,,,,,1,6,16,4,,,,,,,,,,,,,,,AFSA12.jpg,AFSA01.jpg,AFNE04.jpg,AFNE14.jpg,AFNE14.jpg,FN,3,num_4,32,num_2,0.916773659876,,,2017_Apr_28_1701,60.0067170591,FEMA4ImagesEEG,001,100214,
AFNE01.JPG,AFNE01.JPG,AFNE01.JPG,AFNE01.JPG,AFNE01.JPG,AFNE01.JPG,,,,,,,,,1,7,17,5,,,,,,,,,,,,,,,AFSA17.jpg,AFSA08.jpg,AFNE10.jpg,AFNE11.jpg,AFNE10.jpg,FN,3,num_2,16,num_2,0.950098771602,,,2017_Apr_28_1701,60.0067170591,FEMA4ImagesEEG,001,100214,
AFNE01.JPG,AFNE01.JPG,AFNE01.JPG,AFNE01.JPG,AFNE01.JPG,AFNE01.JPG,,,,,,,,,1,8,18,9,,,,,,,,,,,,,,,AFSA05.jpg,AFNE08.jpg,AFSA08.jpg,AFNE05.jpg,AFNE05.jpg,FN,3,num_4,32,num_2,1.26674907526,,,2017_Apr_28_1701,60.0067170591,FEMA4ImagesEEG,001,100214,
AFNE01.JPG,AFNE01.JPG,AFNE01.JPG,AFNE01.JPG,AFNE01.JPG,AFNE01.JPG,,,,,,,,,1,9,19,0,,,,,,,,,,,,,,,AFSA02.jpg,AFSA04.jpg,AFNE18.jpg,AFNE10.jpg,AFNE18.jpg,FN,3,num_2,32,num_6,0.950120261172,,,2017_Apr_28_1701,60.0067170591,FEMA4ImagesEEG,001,100214,
AFNE01.JPG,AFNE01.JPG,AFNE01.JPG,AFNE01.JPG,AFNE01.JPG,AFNE01.JPG,,,,,,,,,2,0,20,2,,,,,,,,,,,,,,,AFSA04.jpg,AFNE13.jpg,AFSA01.jpg,AFNE16.jpg,AFSA04.jpg,FS,4,num_8,16,num_8,1.0334322385,,,2017_Apr_28_1701,60.0067170591,FEMA4ImagesEEG,001,100214,
AFNE01.JPG,AFNE01.JPG,AFNE01.JPG,AFNE01.JPG,AFNE01.JPG,AFNE01.JPG,,,,,,,,,2,1,21,8,,,,,,,,,,,,,,,AFSA02.jpg,AFNE05.jpg,AFNE10.jpg,AFSA16.jpg,AFNE10.jpg,FN,3,num_2,16,num_2,0.650160577963,,,2017_Apr_28_1701,60.0067170591,FEMA4ImagesEEG,001,100214,
AFNE01.JPG,AFNE01.JPG,AFNE01.JPG,AFNE01.JPG,AFNE01.JPG,AFNE01.JPG,,,,,,,,,2,2,22,3,,,,,,,,,,,,,,,AFNE17.jpg,AFSA02.jpg,AFNE16.jpg,AFSA04.jpg,AFNE17.jpg,FN,3,num_8,16,num_8,0.783682976384,,,2017_Apr_28_1701,60.0067170591,FEMA4ImagesEEG,001,100214,
AFNE01.JPG,AFNE01.JPG,AFNE01.JPG,AFNE01.JPG,AFNE01.JPG,AFNE01.JPG,,,,,,,,,2,3,23,7,,,,,,,,,,,,,,,AFNE03.jpg,AFNE01.jpg,AFSA07.jpg,AFSA12.jpg,AFSA07.jpg,FS,4,num_2,16,num_2,0.68343533366,,,2017_Apr_28_1701,60.0067170591,FEMA4ImagesEEG,001,100214,
AFNE01.JPG,AFNE01.JPG,AFNE01.JPG,AFNE01.JPG,AFNE01.JPG,AFNE01.JPG,,,,,,,,,2,4,24,4,,,,,,,,,,,,,,,AFSA08.jpg,AFNE17.jpg,AFNE05.jpg,AFSA19.jpg,AFSA19.jpg,FS,4,num_4,16,num_4,0.916775584337,,,2017_Apr_28_1701,60.0067170591,FEMA4ImagesEEG,001,100214,
AFNE01.JPG,AFNE01.JPG,AFNE01.JPG,AFNE01.JPG,AFNE01.JPG,AFNE01.JPG,,,,,,,,,2,5,25,9,,,,,,,,,,,,,,,AFNE11.jpg,AFSA07.jpg,AFSA06.jpg,AFNE01.jpg,AFSA06.jpg,FS,4,num_2,16,num_2,3.28326713818,,,2017_Apr_28_1701,60.0067170591,FEMA4ImagesEEG,001,100214,
AFNE01.JPG,AFNE01.JPG,AFNE01.JPG,AFNE01.JPG,AFNE01.JPG,AFNE01.JPG,,,,,,,,,2,6,26,0,,,,,,,,,,,,,,,AFNE06.jpg,AFNE05.jpg,AFSA06.jpg,AFSA09.jpg,AFSA06.jpg,FS,4,num_2,32,num_6,0.883458170341,,,2017_Apr_28_1701,60.0067170591,FEMA4ImagesEEG,001,100214,
AFNE01.JPG,AFNE01.JPG,AFNE01.JPG,AFNE01.JPG,AFNE01.JPG,AFNE01.JPG,,,,,,,,,2,7,27,1,,,,,,,,,,,,,,,AFSA09.jpg,AFSA16.jpg,AFNE17.jpg,AFNE10.jpg,AFNE17.jpg,FN,3,num_2,16,num_2,1.30005879153,,,2017_Apr_28_1701,60.0067170591,FEMA4ImagesEEG,001,100214,
AFNE01.JPG,AFNE01.JPG,AFNE01.JPG,AFNE01.JPG,AFNE01.JPG,AFNE01.JPG,,,,,,,,,2,8,28,6,,,,,,,,,,,,,,,AFSA06.jpg,AFNE02.jpg,AFSA20.jpg,AFNE20.jpg,AFNE02.jpg,FN,3,num_6,32,num_8,0.950135656632,,,2017_Apr_28_1701,60.0067170591,FEMA4ImagesEEG,001,100214,
AFNE01.JPG,AFNE01.JPG,AFNE01.JPG,AFNE01.JPG,AFNE01.JPG,AFNE01.JPG,,,,,,,,,2,9,29,5,,,,,,,,,,,,,,,AFSA19.jpg,AFSA09.jpg,AFNE04.jpg,AFNE01.jpg,AFSA09.jpg,FS,4,num_6,16,num_6,1.03333313018,,,2017_Apr_28_1701,60.0067170591,FEMA4ImagesEEG,001,100214,
AFNE01.JPG,AFNE01.JPG,AFNE01.JPG,AFNE01.JPG,AFNE01.JPG,AFNE01.JPG,,,,,,,,,3,0,30,7,,,,,,,,,,,,,,,AFNE05.jpg,AFNE13.jpg,AFSA16.jpg,AFSA04.jpg,AFNE05.jpg,FN,3,num_8,16,num_8,0.716971812421,,,2017_Apr_28_1701,60.0067170591,FEMA4ImagesEEG,001,100214,
AFNE01.JPG,AFNE01.JPG,AFNE01.JPG,AFNE01.JPG,AFNE01.JPG,AFNE01.JPG,,,,,,,,,3,1,31,0,,,,,,,,,,,,,,,AFSA09.jpg,AFNE09.jpg,AFSA20.jpg,AFNE16.jpg,AFSA20.jpg,FS,4,num_2,16,num_2,0.716771350475,,,2017_Apr_28_1701,60.0067170591,FEMA4ImagesEEG,001,100214,
AFNE01.JPG,AFNE01.JPG,AFNE01.JPG,AFNE01.JPG,AFNE01.JPG,AFNE01.JPG,,,,,,,,,3,2,32,4,,,,,,,,,,,,,,,AFSA07.jpg,AFNE12.jpg,AFNE20.jpg,AFSA12.jpg,AFNE20.jpg,FN,3,num_2,16,num_2,0.933768661809,,,2017_Apr_28_1701,60.0067170591,FEMA4ImagesEEG,001,100214,
AFNE01.JPG,AFNE01.JPG,AFNE01.JPG,AFNE01.JPG,AFNE01.JPG,AFNE01.JPG,,,,,,,,,3,3,33,8,,,,,,,,,,,,,,,AFNE14.jpg,AFSA05.jpg,AFSA02.jpg,AFNE03.jpg,AFNE14.jpg,FN,3,num_8,32,num_2,0.716618358041,,,2017_Apr_28_1701,60.0067170591,FEMA4ImagesEEG,001,100214,
AFNE01.JPG,AFNE01.JPG,AFNE01.JPG,AFNE01.JPG,AFNE01.JPG,AFNE01.JPG,,,,,,,,,3,4,34,2,,,,,,,,,,,,,,,AFNE09.jpg,AFSA20.jpg,AFNE11.jpg,AFSA18.jpg,AFNE11.jpg,FN,3,num_2,32,num_4,1.33345286211,,,2017_Apr_28_1701,60.0067170591,FEMA4ImagesEEG,001,100214,
AFNE01.JPG,AFNE01.JPG,AFNE01.JPG,AFNE01.JPG,AFNE01.JPG,AFNE01.JPG,,,,,,,,,3,5,35,1,,,,,,,,,,,,,,,AFNE13.jpg,AFSA13.jpg,AFNE15.jpg,AFSA09.jpg,AFNE15.jpg,FN,3,num_2,32,num_8,1.0000853166,,,2017_Apr_28_1701,60.0067170591,FEMA4ImagesEEG,001,100214,
AFNE01.JPG,AFNE01.JPG,AFNE01.JPG,AFNE01.JPG,AFNE01.JPG,AFNE01.JPG,,,,,,,,,3,6,36,5,,,,,,,,,,,,,,,AFSA06.jpg,AFSA19.jpg,AFNE14.jpg,AFNE08.jpg,AFNE08.jpg,FN,3,num_4,32,num_2,0.783483155887,,,2017_Apr_28_1701,60.0067170591,FEMA4ImagesEEG,001,100214,
AFNE01.JPG,AFNE01.JPG,AFNE01.JPG,AFNE01.JPG,AFNE01.JPG,AFNE01.JPG,,,,,,,,,3,7,37,6,,,,,,,,,,,,,,,AFNE01.jpg,AFSA13.jpg,AFSA20.jpg,AFNE19.jpg,AFNE01.jpg,FN,3,num_8,16,num_8,0.800117967767,,,2017_Apr_28_1701,60.0067170591,FEMA4ImagesEEG,001,100214,
AFNE01.JPG,AFNE01.JPG,AFNE01.JPG,AFNE01.JPG,AFNE01.JPG,AFNE01.JPG,,,,,,,,,3,8,38,3,,,,,,,,,,,,,,,AFSA09.jpg,AFNE16.jpg,AFNE13.jpg,AFSA07.jpg,AFSA09.jpg,FS,4,num_8,32,num_2,2.0668384973,,,2017_Apr_28_1701,60.0067170591,FEMA4ImagesEEG,001,100214,
AFNE01.JPG,AFNE01.JPG,AFNE01.JPG,AFNE01.JPG,AFNE01.JPG,AFNE01.JPG,,,,,,,,,3,9,39,9,,,,,,,,,,,,,,,AFSA11.jpg,AFNE08.jpg,AFNE05.jpg,AFSA19.jpg,AFSA19.jpg,FS,4,num_4,32,num_2,0.800121175125,,,2017_Apr_28_1701,60.0067170591,FEMA4ImagesEEG,001,100214,
AFNE01.JPG,AFNE01.JPG,AFNE01.JPG,AFNE01.JPG,AFNE01.JPG,AFNE01.JPG,,,,,,,,,4,0,40,1,,,,,,,,,,,,,,,AFSA05.jpg,AFNE19.jpg,AFNE20.jpg,AFSA11.jpg,AFNE19.jpg,FN,3,num_6,16,num_6,0.733441443881,,,2017_Apr_28_1701,60.0067170591,FEMA4ImagesEEG,001,100214,
AFNE01.JPG,AFNE01.JPG,AFNE01.JPG,AFNE01.JPG,AFNE01.JPG,AFNE01.JPG,,,,,,,,,4,1,41,2,,,,,,,,,,,,,,,AFSA11.jpg,AFNE04.jpg,AFNE19.jpg,AFSA16.jpg,AFSA16.jpg,FS,4,num_4,16,num_4,1.15009659051,,,2017_Apr_28_1701,60.0067170591,FEMA4ImagesEEG,001,100214,
AFNE01.JPG,AFNE01.JPG,AFNE01.JPG,AFNE01.JPG,AFNE01.JPG,AFNE01.JPG,,,,,,,,,4,2,42,8,,,,,,,,,,,,,,,AFNE07.jpg,AFSA01.jpg,AFSA04.jpg,AFNE01.jpg,AFNE01.jpg,FN,3,num_4,32,num_2,0.800104817608,,,2017_Apr_28_1701,60.0067170591,FEMA4ImagesEEG,001,100214,
AFNE01.JPG,AFNE01.JPG,AFNE01.JPG,AFNE01.JPG,AFNE01.JPG,AFNE01.JPG,,,,,,,,,4,3,43,0,,,,,,,,,,,,,,,AFNE15.jpg,AFSA06.jpg,AFNE11.jpg,AFSA11.jpg,AFSA11.jpg,FS,4,num_4,16,num_4,1.2167923589,,,2017_Apr_28_1701,60.0067170591,FEMA4ImagesEEG,001,100214,
AFNE01.JPG,AFNE01.JPG,AFNE01.JPG,AFNE01.JPG,AFNE01.JPG,AFNE01.JPG,,,,,,,,,4,4,44,9,,,,,,,,,,,,,,,AFSA01.jpg,AFSA03.jpg,AFNE06.jpg,AFNE02.jpg,AFNE02.jpg,FN,3,num_4,32,num_8,0.633465787861,,,2017_Apr_28_1701,60.0067170591,FEMA4ImagesEEG,001,100214,
AFNE01.JPG,AFNE01.JPG,AFNE01.JPG,AFNE01.JPG,AFNE01.JPG,AFNE01.JPG,,,,,,,,,4,5,45,6,,,,,,,,,,,,,,,AFNE02.jpg,AFSA03.jpg,AFNE01.jpg,AFSA18.jpg,AFNE02.jpg,FN,3,num_8,32,num_2,0.533520281548,,,2017_Apr_28_1701,60.0067170591,FEMA4ImagesEEG,001,100214,
AFNE01.JPG,AFNE01.JPG,AFNE01.JPG,AFNE01.JPG,AFNE01.JPG,AFNE01.JPG,,,,,,,,,4,6,46,7,,,,,,,,,,,,,,,AFSA18.jpg,AFNE07.jpg,AFNE09.jpg,AFSA20.jpg,AFNE09.jpg,FN,3,num_2,16,num_2,0.916724907584,,,2017_Apr_28_1701,60.0067170591,FEMA4ImagesEEG,001,100214,
AFNE01.JPG,AFNE01.JPG,AFNE01.JPG,AFNE01.JPG,AFNE01.JPG,AFNE01.JPG,,,,,,,,,4,7,47,3,,,,,,,,,,,,,,,AFNE03.jpg,AFSA10.jpg,AFSA07.jpg,AFNE14.jpg,AFSA07.jpg,FS,4,num_2,16,num_2,1.45009091345,,,2017_Apr_28_1701,60.0067170591,FEMA4ImagesEEG,001,100214,
AFNE01.JPG,AFNE01.JPG,AFNE01.JPG,AFNE01.JPG,AFNE01.JPG,AFNE01.JPG,,,,,,,,,4,8,48,4,,,,,,,,,,,,,,,AFSA04.jpg,AFSA13.jpg,AFNE10.jpg,AFNE15.jpg,AFNE15.jpg,FN,3,num_4,32,num_8,0.333370432258,,,2017_Apr_28_1701,60.0067170591,FEMA4ImagesEEG,001,100214,
AFNE01.JPG,AFNE01.JPG,AFNE01.JPG,AFNE01.JPG,AFNE01.JPG,AFNE01.JPG,,,,,,,,,4,9,49,5,,,,,,,,,,,,,,,AFSA17.jpg,AFNE01.jpg,AFNE10.jpg,AFSA09.jpg,AFSA09.jpg,FS,4,num_4,16,num_4,1.1501244948,,,2017_Apr_28_1701,60.0067170591,FEMA4ImagesEEG,001,100214,
AFNE01.JPG,AFNE01.JPG,AFNE01.JPG,AFNE01.JPG,AFNE01.JPG,AFNE01.JPG,,,,,,,,,5,0,50,3,,,,,,,,,,,,,,,AFSA02.jpg,AFSA13.jpg,AFNE18.jpg,AFNE19.jpg,AFNE18.jpg,FN,3,num_2,16,num_2,1.0667653688,,,2017_Apr_28_1701,60.0067170591,FEMA4ImagesEEG,001,100214,
AFNE01.JPG,AFNE01.JPG,AFNE01.JPG,AFNE01.JPG,AFNE01.JPG,AFNE01.JPG,,,,,,,,,5,1,51,7,,,,,,,,,,,,,,,AFNE04.jpg,AFNE14.jpg,AFSA16.jpg,AFSA15.jpg,AFSA15.jpg,FS,4,num_4,32,num_8,1.08342872642,,,2017_Apr_28_1701,60.0067170591,FEMA4ImagesEEG,001,100214,
AFNE01.JPG,AFNE01.JPG,AFNE01.JPG,AFNE01.JPG,AFNE01.JPG,AFNE01.JPG,,,,,,,,,5,2,52,6,,,,,,,,,,,,,,,AFNE13.jpg,AFSA08.jpg,AFNE14.jpg,AFSA10.jpg,AFSA10.jpg,FS,4,num_4,16,num_4,0.68348344462,,,2017_Apr_28_1701,60.0067170591,FEMA4ImagesEEG,001,100214,
AFNE01.JPG,AFNE01.JPG,AFNE01.JPG,AFNE01.JPG,AFNE01.JPG,AFNE01.JPG,,,,,,,,,5,3,53,0,,,,,,,,,,,,,,,AFSA17.jpg,AFNE10.jpg,AFNE05.jpg,AFSA14.jpg,AFSA17.jpg,FS,4,num_8,32,num_2,0.900361761684,,,2017_Apr_28_1701,60.0067170591,FEMA4ImagesEEG,001,100214,
AFNE01.JPG,AFNE01.JPG,AFNE01.JPG,AFNE01.JPG,AFNE01.JPG,AFNE01.JPG,,,,,,,,,5,4,54,9,,,,,,,,,,,,,,,AFSA04.jpg,AFNE18.jpg,AFSA20.jpg,AFNE07.jpg,AFSA20.jpg,FS,4,num_2,16,num_2,1.4834064031,,,2017_Apr_28_1701,60.0067170591,FEMA4ImagesEEG,001,100214,
AFNE01.JPG,AFNE01.JPG,AFNE01.JPG,AFNE01.JPG,AFNE01.JPG,AFNE01.JPG,,,,,,,,,5,5,55,1,,,,,,,,,,,,,,,AFSA18.jpg,AFNE11.jpg,AFSA17.jpg,AFNE03.jpg,AFSA17.jpg,FS,4,num_2,32,num_4,0.800127589959,,,2017_Apr_28_1701,60.0067170591,FEMA4ImagesEEG,001,100214,
AFNE01.JPG,AFNE01.JPG,AFNE01.JPG,AFNE01.JPG,AFNE01.JPG,AFNE01.JPG,,,,,,,,,5,6,56,2,,,,,,,,,,,,,,,AFSA05.jpg,AFSA04.jpg,AFNE11.jpg,AFNE12.jpg,AFNE12.jpg,FN,3,num_4,32,num_2,1.21688152442,,,2017_Apr_28_1701,60.0067170591,FEMA4ImagesEEG,001,100214,
AFNE01.JPG,AFNE01.JPG,AFNE01.JPG,AFNE01.JPG,AFNE01.JPG,AFNE01.JPG,,,,,,,,,5,7,57,5,,,,,,,,,,,,,,,AFNE16.jpg,AFNE18.jpg,AFSA16.jpg,AFSA02.jpg,AFNE18.jpg,FN,3,num_6,32,num_2,1.91665851453,,,2017_Apr_28_1701,60.0067170591,FEMA4ImagesEEG,001,100214,
AFNE01.JPG,AFNE01.JPG,AFNE01.JPG,AFNE01.JPG,AFNE01.JPG,AFNE01.JPG,,,,,,,,,5,8,58,8,,,,,,,,,,,,,,,AFSA15.jpg,AFNE03.jpg,AFNE19.jpg,AFSA20.jpg,AFNE03.jpg,FN,3,num_6,32,num_4,1.00013791781,,,2017_Apr_28_1701,60.0067170591,FEMA4ImagesEEG,001,100214,
AFNE01.JPG,AFNE01.JPG,AFNE01.JPG,AFNE01.JPG,AFNE01.JPG,AFNE01.JPG,,,,,,,,,5,9,59,4,,,,,,,,,,,,,,,AFNE06.jpg,AFNE11.jpg,AFSA04.jpg,AFSA17.jpg,AFNE06.jpg,FN,3,num_8,32,num_4,0.933417131775,,,2017_Apr_28_1701,60.0067170591,FEMA4ImagesEEG,001,100214,
,,,,,,,,,,,,,,,,,,,,,,,,,,,,,,,,,,,,,,,,,,,space,19.8983115973,2017_Apr_28_1701,60.0067170591,FEMA4ImagesEEG,001,100214,
AFNE01.JPG,AFNE01.JPG,AFNE01.JPG,AFNE01.JPG,AFNE01.JPG,AFNE01.JPG,,,,,,,,,,,,,0,0,0,7,,,,,,,,,,,AMSA20.jpg,AMSA17.jpg,AMNE17.jpg,AMNE19.jpg,AMNE17.jpg,MN,1,num_2,16,num_2,0.733459084411,,,2017_Apr_28_1701,60.0067170591,FEMA4ImagesEEG,001,100214,
AFNE01.JPG,AFNE01.JPG,AFNE01.JPG,AFNE01.JPG,AFNE01.JPG,AFNE01.JPG,,,,,,,,,,,,,0,1,1,0,,,,,,,,,,,AMNE09.jpg,AMSA12.jpg,AMSA08.jpg,AMNE17.jpg,AMNE17.jpg,MN,1,num_4,16,num_4,0.750114423689,,,2017_Apr_28_1701,60.0067170591,FEMA4ImagesEEG,001,100214,
AFNE01.JPG,AFNE01.JPG,AFNE01.JPG,AFNE01.JPG,AFNE01.JPG,AFNE01.JPG,,,,,,,,,,,,,0,2,2,6,,,,,,,,,,,AMSA13.jpg,AMSA06.jpg,AMNE11.jpg,AMNE13.jpg,AMSA13.jpg,MS,2,num_8,32,num_2,0.550138414954,,,2017_Apr_28_1701,60.0067170591,FEMA4ImagesEEG,001,100214,
AFNE01.JPG,AFNE01.JPG,AFNE01.JPG,AFNE01.JPG,AFNE01.JPG,AFNE01.JPG,,,,,,,,,,,,,0,3,3,4,,,,,,,,,,,AMSA03.jpg,AMNE16.jpg,AMNE15.jpg,AMSA18.jpg,AMNE16.jpg,MN,1,num_6,32,num_4,0.866792246699,,,2017_Apr_28_1701,60.0067170591,FEMA4ImagesEEG,001,100214,
AFNE01.JPG,AFNE01.JPG,AFNE01.JPG,AFNE01.JPG,AFNE01.JPG,AFNE01.JPG,,,,,,,,,,,,,0,4,4,8,,,,,,,,,,,AMNE13.jpg,AMNE06.jpg,AMSA11.jpg,AMSA13.jpg,AMSA11.jpg,MS,2,num_2,16,num_2,0.583486940595,,,2017_Apr_28_1701,60.0067170591,FEMA4ImagesEEG,001,100214,
AFNE01.JPG,AFNE01.JPG,AFNE01.JPG,AFNE01.JPG,AFNE01.JPG,AFNE01.JPG,,,,,,,,,,,,,0,5,5,5,,,,,,,,,,,AMSA08.jpg,AMSA13.jpg,AMNE09.jpg,AMNE10.jpg,AMSA08.jpg,MS,2,num_8,32,num_6,0.683460672153,,,2017_Apr_28_1701,60.0067170591,FEMA4ImagesEEG,001,100214,
AFNE01.JPG,AFNE01.JPG,AFNE01.JPG,AFNE01.JPG,AFNE01.JPG,AFNE01.JPG,,,,,,,,,,,,,0,6,6,9,,,,,,,,,,,AMSA07.jpg,AMSA17.jpg,AMNE11.jpg,AMNE01.jpg,AMNE01.jpg,MN,1,num_4,16,num_4,0.883460094803,,,2017_Apr_28_1701,60.0067170591,FEMA4ImagesEEG,001,100214,
AFNE01.JPG,AFNE01.JPG,AFNE01.JPG,AFNE01.JPG,AFNE01.JPG,AFNE01.JPG,,,,,,,,,,,,,0,7,7,3,,,,,,,,,,,AMNE05.jpg,AMSA12.jpg,AMNE03.jpg,AMSA09.jpg,AMNE03.jpg,MN,1,num_2,16,num_2,0.450308374595,,,2017_Apr_28_1701,60.0067170591,FEMA4ImagesEEG,001,100214,
AFNE01.JPG,AFNE01.JPG,AFNE01.JPG,AFNE01.JPG,AFNE01.JPG,AFNE01.JPG,,,,,,,,,,,,,0,8,8,1,,,,,,,,,,,AMSA10.jpg,AMSA06.jpg,AMNE13.jpg,AMNE20.jpg,AMSA06.jpg,MS,2,num_6,16,num_6,1.20009371988,,,2017_Apr_28_1701,60.0067170591,FEMA4ImagesEEG,001,100214,
AFNE01.JPG,AFNE01.JPG,AFNE01.JPG,AFNE01.JPG,AFNE01.JPG,AFNE01.JPG,,,,,,,,,,,,,0,9,9,2,,,,,,,,,,,AMSA05.jpg,AMNE01.jpg,AMNE12.jpg,AMSA18.jpg,AMSA18.jpg,MS,2,num_4,32,num_8,0.650102524203,,,2017_Apr_28_1701,60.0067170591,FEMA4ImagesEEG,001,100214,
AFNE01.JPG,AFNE01.JPG,AFNE01.JPG,AFNE01.JPG,AFNE01.JPG,AFNE01.JPG,,,,,,,,,,,,,1,0,10,9,,,,,,,,,,,AMSA13.jpg,AMNE14.jpg,AMSA10.jpg,AMNE13.jpg,AMNE13.jpg,MN,1,num_4,32,num_8,1.45004151971,,,2017_Apr_28_1701,60.0067170591,FEMA4ImagesEEG,001,100214,
AFNE01.JPG,AFNE01.JPG,AFNE01.JPG,AFNE01.JPG,AFNE01.JPG,AFNE01.JPG,,,,,,,,,,,,,1,1,11,1,,,,,,,,,,,AMSA14.jpg,AMSA10.jpg,AMNE11.jpg,AMNE09.jpg,AMSA10.jpg,MS,2,num_6,16,num_6,1.71668539243,,,2017_Apr_28_1701,60.0067170591,FEMA4ImagesEEG,001,100214,
AFNE01.JPG,AFNE01.JPG,AFNE01.JPG,AFNE01.JPG,AFNE01.JPG,AFNE01.JPG,,,,,,,,,,,,,1,2,12,4,,,,,,,,,,,AMNE20.jpg,AMSA17.jpg,AMSA01.jpg,AMNE08.jpg,AMSA17.jpg,MS,2,num_6,32,num_4,0.983712227782,,,2017_Apr_28_1701,60.0067170591,FEMA4ImagesEEG,001,100214,
AFNE01.JPG,AFNE01.JPG,AFNE01.JPG,AFNE01.JPG,AFNE01.JPG,AFNE01.JPG,,,,,,,,,,,,,1,3,13,5,,,,,,,,,,,AMNE19.jpg,AMSA05.jpg,AMNE12.jpg,AMSA01.jpg,AMNE12.jpg,MN,1,num_2,32,num_4,2.0,,,2017_Apr_28_1701,60.0067170591,FEMA4ImagesEEG,001,100214,
AFNE01.JPG,AFNE01.JPG,AFNE01.JPG,AFNE01.JPG,AFNE01.JPG,AFNE01.JPG,,,,,,,,,,,,,1,4,14,0,,,,,,,,,,,AMNE16.jpg,AMSA06.jpg,AMNE19.jpg,AMSA05.jpg,AMSA05.jpg,MS,2,num_4,16,num_4,0.900100680068,,,2017_Apr_28_1701,60.0067170591,FEMA4ImagesEEG,001,100214,
AFNE01.JPG,AFNE01.JPG,AFNE01.JPG,AFNE01.JPG,AFNE01.JPG,AFNE01.JPG,,,,,,,,,,,,,1,5,15,7,,,,,,,,,,,AMSA16.jpg,AMNE04.jpg,AMNE07.jpg,AMSA13.jpg,AMNE04.jpg,MN,1,num_6,32,num_2,0.633535708999,,,2017_Apr_28_1701,60.0067170591,FEMA4ImagesEEG,001,100214,
AFNE01.JPG,AFNE01.JPG,AFNE01.JPG,AFNE01.JPG,AFNE01.JPG,AFNE01.JPG,,,,,,,,,,,,,1,6,16,6,,,,,,,,,,,AMNE02.jpg,AMNE20.jpg,AMSA08.jpg,AMSA19.jpg,AMSA19.jpg,MS,2,num_4,32,num_6,0.883488319814,,,2017_Apr_28_1701,60.0067170591,FEMA4ImagesEEG,001,100214,
AFNE01.JPG,AFNE01.JPG,AFNE01.JPG,AFNE01.JPG,AFNE01.JPG,AFNE01.JPG,,,,,,,,,,,,,1,7,17,3,,,,,,,,,,,AMSA20.jpg,AMNE20.jpg,AMSA07.jpg,AMNE19.jpg,AMSA07.jpg,MS,2,num_2,32,num_6,2.03336616629,,,2017_Apr_28_1701,60.0067170591,FEMA4ImagesEEG,001,100214,
AFNE01.JPG,AFNE01.JPG,AFNE01.JPG,AFNE01.JPG,AFNE01.JPG,AFNE01.JPG,,,,,,,,,,,,,1,8,18,8,,,,,,,,,,,AMSA14.jpg,AMNE09.jpg,AMNE11.jpg,AMSA10.jpg,AMNE09.jpg,MN,1,num_6,32,num_8,2.15002410358,,,2017_Apr_28_1701,60.0067170591,FEMA4ImagesEEG,001,100214,
AFNE01.JPG,AFNE01.JPG,AFNE01.JPG,AFNE01.JPG,AFNE01.JPG,AFNE01.JPG,,,,,,,,,,,,,1,9,19,2,,,,,,,,,,,AMSA12.jpg,AMNE09.jpg,AMNE16.jpg,AMSA03.jpg,AMNE16.jpg,MN,1,num_2,32,num_8,0.916605271865,,,2017_Apr_28_1701,60.0067170591,FEMA4ImagesEEG,001,100214,
AFNE01.JPG,AFNE01.JPG,AFNE01.JPG,AFNE01.JPG,AFNE01.JPG,AFNE01.JPG,,,,,,,,,,,,,2,0,20,5,,,,,,,,,,,AMNE04.jpg,AMSA14.jpg,AMSA05.jpg,AMNE17.jpg,AMSA14.jpg,MS,2,num_6,16,num_6,0.666521799518,,,2017_Apr_28_1701,60.0067170591,FEMA4ImagesEEG,001,100214,
AFNE01.JPG,AFNE01.JPG,AFNE01.JPG,AFNE01.JPG,AFNE01.JPG,AFNE01.JPG,,,,,,,,,,,,,2,1,21,4,,,,,,,,,,,AMNE07.jpg,AMSA04.jpg,AMNE08.jpg,AMSA06.jpg,AMNE08.jpg,MN,1,num_2,16,num_2,2.2333745698,,,2017_Apr_28_1701,60.0067170591,FEMA4ImagesEEG,001,100214,
AFNE01.JPG,AFNE01.JPG,AFNE01.JPG,AFNE01.JPG,AFNE01.JPG,AFNE01.JPG,,,,,,,,,,,,,2,2,22,7,,,,,,,,,,,AMNE09.jpg,AMSA16.jpg,AMNE03.jpg,AMSA11.jpg,AMNE09.jpg,MN,1,num_8,16,num_8,1.36672184442,,,2017_Apr_28_1701,60.0067170591,FEMA4ImagesEEG,001,100214,
AFNE01.JPG,AFNE01.JPG,AFNE01.JPG,AFNE01.JPG,AFNE01.JPG,AFNE01.JPG,,,,,,,,,,,,,2,3,23,0,,,,,,,,,,,AMNE09.jpg,AMNE05.jpg,AMSA04.jpg,AMSA09.jpg,AMNE05.jpg,MN,1,num_6,32,num_8,0.716762690572,,,2017_Apr_28_1701,60.0067170591,FEMA4ImagesEEG,001,100214,
AFNE01.JPG,AFNE01.JPG,AFNE01.JPG,AFNE01.JPG,AFNE01.JPG,AFNE01.JPG,,,,,,,,,,,,,2,4,24,9,,,,,,,,,,,AMSA08.jpg,AMNE17.jpg,AMNE10.jpg,AMSA06.jpg,AMSA06.jpg,MS,2,num_4,16,num_4,0.716477874201,,,2017_Apr_28_1701,60.0067170591,FEMA4ImagesEEG,001,100214,
AFNE01.JPG,AFNE01.JPG,AFNE01.JPG,AFNE01.JPG,AFNE01.JPG,AFNE01.JPG,,,,,,,,,,,,,2,5,25,2,,,,,,,,,,,AMNE06.jpg,AMSA17.jpg,AMNE03.jpg,AMSA16.jpg,AMSA16.jpg,MS,2,num_4,32,num_6,1.05013280199,,,2017_Apr_28_1701,60.0067170591,FEMA4ImagesEEG,001,100214,
AFNE01.JPG,AFNE01.JPG,AFNE01.JPG,AFNE01.JPG,AFNE01.JPG,AFNE01.JPG,,,,,,,,,,,,,2,6,26,6,,,,,,,,,,,AMSA05.jpg,AMSA08.jpg,AMNE11.jpg,AMNE04.jpg,AMNE11.jpg,MN,1,num_2,16,num_2,1.11674998933,,,2017_Apr_28_1701,60.0067170591,FEMA4ImagesEEG,001,100214,
AFNE01.JPG,AFNE01.JPG,AFNE01.JPG,AFNE01.JPG,AFNE01.JPG,AFNE01.JPG,,,,,,,,,,,,,2,7,27,8,,,,,,,,,,,AMSA07.jpg,AMNE13.jpg,AMSA17.jpg,AMNE04.jpg,AMNE04.jpg,MN,1,num_4,16,num_4,3.09995320416,,,2017_Apr_28_1701,60.0067170591,FEMA4ImagesEEG,001,100214,
AFNE01.JPG,AFNE01.JPG,AFNE01.JPG,AFNE01.JPG,AFNE01.JPG,AFNE01.JPG,,,,,,,,,,,,,2,8,28,1,,,,,,,,,,,AMNE01.jpg,AMSA18.jpg,AMSA01.jpg,AMNE08.jpg,AMSA18.jpg,MS,2,num_6,16,num_6,0.916769169504,,,2017_Apr_28_1701,60.0067170591,FEMA4ImagesEEG,001,100214,
AFNE01.JPG,AFNE01.JPG,AFNE01.JPG,AFNE01.JPG,AFNE01.JPG,AFNE01.JPG,,,,,,,,,,,,,2,9,29,3,,,,,,,,,,,AMNE14.jpg,AMSA05.jpg,AMSA17.jpg,AMNE03.jpg,AMNE14.jpg,MN,1,num_8,16,num_8,1.08340691624,,,2017_Apr_28_1701,60.0067170591,FEMA4ImagesEEG,001,100214,
AFNE01.JPG,AFNE01.JPG,AFNE01.JPG,AFNE01.JPG,AFNE01.JPG,AFNE01.JPG,,,,,,,,,,,,,3,0,30,0,,,,,,,,,,,AMNE06.jpg,AMSA06.jpg,AMSA13.jpg,AMNE03.jpg,AMNE06.jpg,MN,1,num_8,32,num_2,1.45008353656,,,2017_Apr_28_1701,60.0067170591,FEMA4ImagesEEG,001,100214,
AFNE01.JPG,AFNE01.JPG,AFNE01.JPG,AFNE01.JPG,AFNE01.JPG,AFNE01.JPG,,,,,,,,,,,,,3,1,31,8,,,,,,,,,,,AMSA14.jpg,AMSA01.jpg,AMNE12.jpg,AMNE03.jpg,AMNE12.jpg,MN,1,num_2,16,num_2,0.95014207135,,,2017_Apr_28_1701,60.0067170591,FEMA4ImagesEEG,001,100214,
AFNE01.JPG,AFNE01.JPG,AFNE01.JPG,AFNE01.JPG,AFNE01.JPG,AFNE01.JPG,,,,,,,,,,,,,3,2,32,3,,,,,,,,,,,AMNE05.jpg,AMSA08.jpg,AMSA06.jpg,AMNE10.jpg,AMSA08.jpg,MS,2,num_6,16,num_6,2.03322183376,,,2017_Apr_28_1701,60.0067170591,FEMA4ImagesEEG,001,100214,
AFNE01.JPG,AFNE01.JPG,AFNE01.JPG,AFNE01.JPG,AFNE01.JPG,AFNE01.JPG,,,,,,,,,,,,,3,3,33,6,,,,,,,,,,,AMNE09.jpg,AMNE04.jpg,AMSA20.jpg,AMSA03.jpg,AMNE04.jpg,MN,1,num_6,16,num_6,1.18343613565,,,2017_Apr_28_1701,60.0067170591,FEMA4ImagesEEG,001,100214,
AFNE01.JPG,AFNE01.JPG,AFNE01.JPG,AFNE01.JPG,AFNE01.JPG,AFNE01.JPG,,,,,,,,,,,,,3,4,34,5,,,,,,,,,,,AMSA18.jpg,AMNE16.jpg,AMNE08.jpg,AMSA03.jpg,AMNE08.jpg,MN,1,num_2,16,num_2,1.5501182084,,,2017_Apr_28_1701,60.0067170591,FEMA4ImagesEEG,001,100214,
AFNE01.JPG,AFNE01.JPG,AFNE01.JPG,AFNE01.JPG,AFNE01.JPG,AFNE01.JPG,,,,,,,,,,,,,3,5,35,7,,,,,,,,,,,AMSA19.jpg,AMNE18.jpg,AMNE10.jpg,AMSA03.jpg,AMNE10.jpg,MN,1,num_2,16,num_2,1.21671153279,,,2017_Apr_28_1701,60.0067170591,FEMA4ImagesEEG,001,100214,
AFNE01.JPG,AFNE01.JPG,AFNE01.JPG,AFNE01.JPG,AFNE01.JPG,AFNE01.JPG,,,,,,,,,,,,,3,6,36,4,,,,,,,,,,,AMNE14.jpg,AMSA09.jpg,AMNE20.jpg,AMSA11.jpg,AMSA09.jpg,MS,2,num_6,16,num_6,1.20005042024,,,2017_Apr_28_1701,60.0067170591,FEMA4ImagesEEG,001,100214,
AFNE01.JPG,AFNE01.JPG,AFNE01.JPG,AFNE01.JPG,AFNE01.JPG,AFNE01.JPG,,,,,,,,,,,,,3,7,37,1,,,,,,,,,,,AMNE07.jpg,AMSA13.jpg,AMSA15.jpg,AMNE19.jpg,AMNE07.jpg,MN,1,num_8,32,num_2,1.6834199382,,,2017_Apr_28_1701,60.0067170591,FEMA4ImagesEEG,001,100214,
AFNE01.JPG,AFNE01.JPG,AFNE01.JPG,AFNE01.JPG,AFNE01.JPG,AFNE01.JPG,,,,,,,,,,,,,3,8,38,9,,,,,,,,,,,AMNE08.jpg,AMSA15.jpg,AMNE19.jpg,AMSA14.jpg,AMNE19.jpg,MN,1,num_2,32,num_6,0.700209987932,,,2017_Apr_28_1701,60.0067170591,FEMA4ImagesEEG,001,100214,
AFNE01.JPG,AFNE01.JPG,AFNE01.JPG,AFNE01.JPG,AFNE01.JPG,AFNE01.JPG,,,,,,,,,,,,,3,9,39,2,,,,,,,,,,,AMNE17.jpg,AMSA17.jpg,AMSA06.jpg,AMNE15.jpg,AMNE15.jpg,MN,1,num_4,16,num_4,0.800155815086,,,2017_Apr_28_1701,60.0067170591,FEMA4ImagesEEG,001,100214,
AFNE01.JPG,AFNE01.JPG,AFNE01.JPG,AFNE01.JPG,AFNE01.JPG,AFNE01.JPG,,,,,,,,,,,,,4,0,40,2,,,,,,,,,,,AMSA20.jpg,AMNE09.jpg,AMSA18.jpg,AMNE01.jpg,AMSA18.jpg,MS,2,num_2,16,num_2,1.16673236468,,,2017_Apr_28_1701,60.0067170591,FEMA4ImagesEEG,001,100214,
AFNE01.JPG,AFNE01.JPG,AFNE01.JPG,AFNE01.JPG,AFNE01.JPG,AFNE01.JPG,,,,,,,,,,,,,4,1,41,4,,,,,,,,,,,AMSA17.jpg,AMNE17.jpg,AMSA03.jpg,AMNE06.jpg,AMSA17.jpg,MS,2,num_8,32,num_2,0.88344886899,,,2017_Apr_28_1701,60.0067170591,FEMA4ImagesEEG,001,100214,
AFNE01.JPG,AFNE01.JPG,AFNE01.JPG,AFNE01.JPG,AFNE01.JPG,AFNE01.JPG,,,,,,,,,,,,,4,2,42,7,,,,,,,,,,,AMNE15.jpg,AMSA10.jpg,AMNE05.jpg,AMSA12.jpg,AMSA12.jpg,MS,2,num_4,16,num_4,1.01675059868,,,2017_Apr_28_1701,60.0067170591,FEMA4ImagesEEG,001,100214,
AFNE01.JPG,AFNE01.JPG,AFNE01.JPG,AFNE01.JPG,AFNE01.JPG,AFNE01.JPG,,,,,,,,,,,,,4,3,43,8,,,,,,,,,,,AMSA08.jpg,AMNE11.jpg,AMSA03.jpg,AMNE14.jpg,AMNE14.jpg,MN,1,num_4,16,num_4,0.916757943691,,,2017_Apr_28_1701,60.0067170591,FEMA4ImagesEEG,001,100214,
AFNE01.JPG,AFNE01.JPG,AFNE01.JPG,AFNE01.JPG,AFNE01.JPG,AFNE01.JPG,,,,,,,,,,,,,4,4,44,1,,,,,,,,,,,AMSA14.jpg,AMSA10.jpg,AMNE07.jpg,AMNE10.jpg,AMNE07.jpg,MN,1,num_2,32,num_6,0.983727623243,,,2017_Apr_28_1701,60.0067170591,FEMA4ImagesEEG,001,100214,
AFNE01.JPG,AFNE01.JPG,AFNE01.JPG,AFNE01.JPG,AFNE01.JPG,AFNE01.JPG,,,,,,,,,,,,,4,5,45,3,,,,,,,,,,,AMNE20.jpg,AMSA11.jpg,AMSA05.jpg,AMNE01.jpg,AMNE01.jpg,MN,1,num_4,32,num_2,0.983450183878,,,2017_Apr_28_1701,60.0067170591,FEMA4ImagesEEG,001,100214,
AFNE01.JPG,AFNE01.JPG,AFNE01.JPG,AFNE01.JPG,AFNE01.JPG,AFNE01.JPG,,,,,,,,,,,,,4,6,46,6,,,,,,,,,,,AMSA16.jpg,AMNE03.jpg,AMSA20.jpg,AMNE05.jpg,AMNE03.jpg,MN,1,num_6,16,num_6,0.666798597318,,,2017_Apr_28_1701,60.0067170591,FEMA4ImagesEEG,001,100214,
AFNE01.JPG,AFNE01.JPG,AFNE01.JPG,AFNE01.JPG,AFNE01.JPG,AFNE01.JPG,,,,,,,,,,,,,4,7,47,5,,,,,,,,,,,AMNE16.jpg,AMNE04.jpg,AMSA05.jpg,AMSA03.jpg,AMSA03.jpg,MS,2,num_4,32,num_6,0.950096205692,,,2017_Apr_28_1701,60.0067170591,FEMA4ImagesEEG,001,100214,
AFNE01.JPG,AFNE01.JPG,AFNE01.JPG,AFNE01.JPG,AFNE01.JPG,AFNE01.JPG,,,,,,,,,,,,,4,8,48,9,,,,,,,,,,,AMSA01.jpg,AMNE12.jpg,AMSA11.jpg,AMNE13.jpg,AMSA01.jpg,MS,2,num_8,32,num_2,0.83344821143,,,2017_Apr_28_1701,60.0067170591,FEMA4ImagesEEG,001,100214,
AFNE01.JPG,AFNE01.JPG,AFNE01.JPG,AFNE01.JPG,AFNE01.JPG,AFNE01.JPG,,,,,,,,,,,,,4,9,49,0,,,,,,,,,,,AMSA06.jpg,AMNE11.jpg,AMSA19.jpg,AMNE05.jpg,AMNE05.jpg,MN,1,num_4,32,num_2,0.766744424473,,,2017_Apr_28_1701,60.0067170591,FEMA4ImagesEEG,001,100214,
AFNE01.JPG,AFNE01.JPG,AFNE01.JPG,AFNE01.JPG,AFNE01.JPG,AFNE01.JPG,,,,,,,,,,,,,5,0,50,8,,,,,,,,,,,AMNE11.jpg,AMSA07.jpg,AMSA09.jpg,AMNE06.jpg,AMNE11.jpg,MN,1,num_8,32,num_6,1.11672529241,,,2017_Apr_28_1701,60.0067170591,FEMA4ImagesEEG,001,100214,
AFNE01.JPG,AFNE01.JPG,AFNE01.JPG,AFNE01.JPG,AFNE01.JPG,AFNE01.JPG,,,,,,,,,,,,,5,1,51,6,,,,,,,,,,,AMSA03.jpg,AMNE08.jpg,AMNE11.jpg,AMSA07.jpg,AMSA03.jpg,MS,2,num_8,32,num_2,0.750099028111,,,2017_Apr_28_1701,60.0067170591,FEMA4ImagesEEG,001,100214,
AFNE01.JPG,AFNE01.JPG,AFNE01.JPG,AFNE01.JPG,AFNE01.JPG,AFNE01.JPG,,,,,,,,,,,,,5,2,52,3,,,,,,,,,,,AMSA15.jpg,AMNE03.jpg,AMNE05.jpg,AMSA11.jpg,AMSA11.jpg,MS,2,num_4,32,num_8,0.716375879245,,,2017_Apr_28_1701,60.0067170591,FEMA4ImagesEEG,001,100214,
AFNE01.JPG,AFNE01.JPG,AFNE01.JPG,AFNE01.JPG,AFNE01.JPG,AFNE01.JPG,,,,,,,,,,,,,5,3,53,2,,,,,,,,,,,AMNE20.jpg,AMSA15.jpg,AMSA01.jpg,AMNE02.jpg,AMSA01.jpg,MS,2,num_2,32,num_4,0.900100679952,,,2017_Apr_28_1701,60.0067170591,FEMA4ImagesEEG,001,100214,
AFNE01.JPG,AFNE01.JPG,AFNE01.JPG,AFNE01.JPG,AFNE01.JPG,AFNE01.JPG,,,,,,,,,,,,,5,4,54,1,,,,,,,,,,,AMSA09.jpg,AMNE08.jpg,AMNE17.jpg,AMSA03.jpg,AMSA03.jpg,MS,2,num_4,16,num_4,0.916790017509,,,2017_Apr_28_1701,60.0067170591,FEMA4ImagesEEG,001,100214,
AFNE01.JPG,AFNE01.JPG,AFNE01.JPG,AFNE01.JPG,AFNE01.JPG,AFNE01.JPG,,,,,,,,,,,,,5,5,55,9,,,,,,,,,,,AMNE14.jpg,AMNE15.jpg,AMSA05.jpg,AMSA20.jpg,AMSA05.jpg,MS,2,num_2,16,num_2,1.08344187681,,,2017_Apr_28_1701,60.0067170591,FEMA4ImagesEEG,001,100214,
AFNE01.JPG,AFNE01.JPG,AFNE01.JPG,AFNE01.JPG,AFNE01.JPG,AFNE01.JPG,,,,,,,,,,,,,5,6,56,5,,,,,,,,,,,AMNE16.jpg,AMSA17.jpg,AMNE19.jpg,AMSA04.jpg,AMSA17.jpg,MS,2,num_6,16,num_6,0.850089117303,,,2017_Apr_28_1701,60.0067170591,FEMA4ImagesEEG,001,100214,
AFNE01.JPG,AFNE01.JPG,AFNE01.JPG,AFNE01.JPG,AFNE01.JPG,AFNE01.JPG,,,,,,,,,,,,,5,7,57,0,,,,,,,,,,,AMNE10.jpg,AMSA15.jpg,AMNE04.jpg,AMSA01.jpg,AMNE10.jpg,MN,1,num_8,16,num_8,0.533506168984,,,2017_Apr_28_1701,60.0067170591,FEMA4ImagesEEG,001,100214,
AFNE01.JPG,AFNE01.JPG,AFNE01.JPG,AFNE01.JPG,AFNE01.JPG,AFNE01.JPG,,,,,,,,,,,,,5,8,58,7,,,,,,,,,,,AMNE10.jpg,AMSA01.jpg,AMSA02.jpg,AMNE04.jpg,AMNE10.jpg,MN,1,num_8,16,num_8,0.716793802218,,,2017_Apr_28_1701,60.0067170591,FEMA4ImagesEEG,001,100214,
AFNE01.JPG,AFNE01.JPG,AFNE01.JPG,AFNE01.JPG,AFNE01.JPG,AFNE01.JPG,,,,,,,,,,,,,5,9,59,4,,,,,,,,,,,AMNE01.jpg,AMSA01.jpg,AMSA07.jpg,AMNE20.jpg,AMSA07.jpg,MS,2,num_2,16,num_2,2.23346565955,,,2017_Apr_28_1701,60.0067170591,FEMA4ImagesEEG,001,100214,
,,,,,,,,,,,,,,,,,,,,,,,,,,,,,,,,,,,,,,,,,,,space,31.8142853341,2017_Apr_28_1701,60.0067170591,FEMA4ImagesEEG,001,100214,
AFNE01.JPG,AFNE01.JPG,AFNE01.JPG,AFNE01.JPG,AFNE01.JPG,AFNE01.JPG,,,,,,,,,,,,,,,,,0,0,0,3,,,,,,,AFSA16.jpg,AFNE14.jpg,AFNE20.jpg,AFSA07.jpg,AFNE14.jpg,FN,3,num_6,16,num_6,0.983473597793,,,2017_Apr_28_1701,60.0067170591,FEMA4ImagesEEG,001,100214,
AFNE01.JPG,AFNE01.JPG,AFNE01.JPG,AFNE01.JPG,AFNE01.JPG,AFNE01.JPG,,,,,,,,,,,,,,,,,0,1,1,0,,,,,,,AFNE20.jpg,AFSA11.jpg,AFNE04.jpg,AFSA01.jpg,AFSA11.jpg,FS,4,num_6,16,num_6,0.966751224245,,,2017_Apr_28_1701,60.0067170591,FEMA4ImagesEEG,001,100214,
AFNE01.JPG,AFNE01.JPG,AFNE01.JPG,AFNE01.JPG,AFNE01.JPG,AFNE01.JPG,,,,,,,,,,,,,,,,,0,2,2,7,,,,,,,AFSA15.jpg,AFNE11.jpg,AFSA17.jpg,AFNE19.jpg,AFSA17.jpg,FS,4,num_2,32,num_6,0.833466493525,,,2017_Apr_28_1701,60.0067170591,FEMA4ImagesEEG,001,100214,
AFNE01.JPG,AFNE01.JPG,AFNE01.JPG,AFNE01.JPG,AFNE01.JPG,AFNE01.JPG,,,,,,,,,,,,,,,,,0,3,3,2,,,,,,,AFNE15.jpg,AFSA16.jpg,AFSA05.jpg,AFNE13.jpg,AFNE15.jpg,FN,3,num_8,16,num_8,0.816848360002,,,2017_Apr_28_1701,60.0067170591,FEMA4ImagesEEG,001,100214,
AFNE01.JPG,AFNE01.JPG,AFNE01.JPG,AFNE01.JPG,AFNE01.JPG,AFNE01.JPG,,,,,,,,,,,,,,,,,0,4,4,6,,,,,,,AFNE19.jpg,AFSA02.jpg,AFNE16.jpg,AFSA19.jpg,AFNE16.jpg,FN,3,num_2,32,num_6,0.883449831163,,,2017_Apr_28_1701,60.0067170591,FEMA4ImagesEEG,001,100214,
AFNE01.JPG,AFNE01.JPG,AFNE01.JPG,AFNE01.JPG,AFNE01.JPG,AFNE01.JPG,,,,,,,,,,,,,,,,,0,5,5,4,,,,,,,AFSA15.jpg,AFNE02.jpg,AFSA03.jpg,AFNE09.jpg,AFSA15.jpg,FS,4,num_8,16,num_8,1.11673363158,,,2017_Apr_28_1701,60.0067170591,FEMA4ImagesEEG,001,100214,
AFNE01.JPG,AFNE01.JPG,AFNE01.JPG,AFNE01.JPG,AFNE01.JPG,AFNE01.JPG,,,,,,,,,,,,,,,,,0,6,6,9,,,,,,,AFSA13.jpg,AFNE01.jpg,AFSA11.jpg,AFNE18.jpg,AFNE18.jpg,FN,3,num_4,16,num_4,0.966789071448,,,2017_Apr_28_1701,60.0067170591,FEMA4ImagesEEG,001,100214,
AFNE01.JPG,AFNE01.JPG,AFNE01.JPG,AFNE01.JPG,AFNE01.JPG,AFNE01.JPG,,,,,,,,,,,,,,,,,0,7,7,5,,,,,,,AFSA06.jpg,AFNE09.jpg,AFSA20.jpg,AFNE14.jpg,AFSA06.jpg,FS,4,num_8,32,num_2,1.99970973108,,,2017_Apr_28_1701,60.0067170591,FEMA4ImagesEEG,001,100214,
AFNE01.JPG,AFNE01.JPG,AFNE01.JPG,AFNE01.JPG,AFNE01.JPG,AFNE01.JPG,,,,,,,,,,,,,,,,,0,8,8,1,,,,,,,AFSA09.jpg,AFNE04.jpg,AFNE09.jpg,AFSA17.jpg,AFSA09.jpg,FS,4,num_8,32,num_6,1.14986020583,,,2017_Apr_28_1701,60.0067170591,FEMA4ImagesEEG,001,100214,
AFNE01.JPG,AFNE01.JPG,AFNE01.JPG,AFNE01.JPG,AFNE01.JPG,AFNE01.JPG,,,,,,,,,,,,,,,,,0,9,9,8,,,,,,,AFSA14.jpg,AFSA18.jpg,AFNE04.jpg,AFNE19.jpg,AFSA14.jpg,FS,4,num_8,32,num_6,0.616821353789,,,2017_Apr_28_1701,60.0067170591,FEMA4ImagesEEG,001,100214,
AFNE01.JPG,AFNE01.JPG,AFNE01.JPG,AFNE01.JPG,AFNE01.JPG,AFNE01.JPG,,,,,,,,,,,,,,,,,1,0,10,6,,,,,,,AFNE05.jpg,AFSA20.jpg,AFNE09.jpg,AFSA13.jpg,AFNE09.jpg,FN,3,num_2,32,num_4,1.16696810792,,,2017_Apr_28_1701,60.0067170591,FEMA4ImagesEEG,001,100214,
AFNE01.JPG,AFNE01.JPG,AFNE01.JPG,AFNE01.JPG,AFNE01.JPG,AFNE01.JPG,,,,,,,,,,,,,,,,,1,1,11,5,,,,,,,AFNE10.jpg,AFSA10.jpg,AFSA11.jpg,AFNE05.jpg,AFNE10.jpg,FN,3,num_8,16,num_8,0.716644979315,,,2017_Apr_28_1701,60.0067170591,FEMA4ImagesEEG,001,100214,
AFNE01.JPG,AFNE01.JPG,AFNE01.JPG,AFNE01.JPG,AFNE01.JPG,AFNE01.JPG,,,,,,,,,,,,,,,,,1,2,12,7,,,,,,,AFSA16.jpg,AFSA09.jpg,AFNE03.jpg,AFNE06.jpg,AFNE03.jpg,FN,3,num_2,32,num_6,0.616790242027,,,2017_Apr_28_1701,60.0067170591,FEMA4ImagesEEG,001,100214,
AFNE01.JPG,AFNE01.JPG,AFNE01.JPG,AFNE01.JPG,AFNE01.JPG,AFNE01.JPG,,,,,,,,,,,,,,,,,1,3,13,4,,,,,,,AFNE05.jpg,AFSA12.jpg,AFSA18.jpg,AFNE08.jpg,AFNE05.jpg,FN,3,num_8,32,num_2,1.30007739435,,,2017_Apr_28_1701,60.0067170591,FEMA4ImagesEEG,001,100214,
AFNE01.JPG,AFNE01.JPG,AFNE01.JPG,AFNE01.JPG,AFNE01.JPG,AFNE01.JPG,,,,,,,,,,,,,,,,,1,4,14,0,,,,,,,AFSA20.jpg,AFNE05.jpg,AFSA14.jpg,AFNE07.jpg,AFSA14.jpg,FS,4,num_2,32,num_4,1.03342742752,,,2017_Apr_28_1701,60.0067170591,FEMA4ImagesEEG,001,100214,
AFNE01.JPG,AFNE01.JPG,AFNE01.JPG,AFNE01.JPG,AFNE01.JPG,AFNE01.JPG,,,,,,,,,,,,,,,,,1,5,15,8,,,,,,,AFSA17.jpg,AFNE02.jpg,AFSA09.jpg,AFNE09.jpg,AFNE09.jpg,FN,3,num_4,16,num_4,0.88349313091,,,2017_Apr_28_1701,60.0067170591,FEMA4ImagesEEG,001,100214,
AFNE01.JPG,AFNE01.JPG,AFNE01.JPG,AFNE01.JPG,AFNE01.JPG,AFNE01.JPG,,,,,,,,,,,,,,,,,1,6,16,9,,,,,,,AFSA04.jpg,AFNE15.jpg,AFNE14.jpg,AFSA09.jpg,AFSA09.jpg,FS,4,num_4,16,num_4,0.866767870612,,,2017_Apr_28_1701,60.0067170591,FEMA4ImagesEEG,001,100214,
AFNE01.JPG,AFNE01.JPG,AFNE01.JPG,AFNE01.JPG,AFNE01.JPG,AFNE01.JPG,,,,,,,,,,,,,,,,,1,7,17,3,,,,,,,AFSA02.jpg,AFNE10.jpg,AFSA12.jpg,AFNE07.jpg,AFSA02.jpg,FS,4,num_8,32,num_4,1.00027487346,,,2017_Apr_28_1701,60.0067170591,FEMA4ImagesEEG,001,100214,
AFNE01.JPG,AFNE01.JPG,AFNE01.JPG,AFNE01.JPG,AFNE01.JPG,AFNE01.JPG,,,,,,,,,,,,,,,,,1,8,18,2,,,,,,,AFNE10.jpg,AFSA19.jpg,AFSA10.jpg,AFNE02.jpg,AFSA10.jpg,FS,4,num_2,32,num_8,2.06639202847,,,2017_Apr_28_1701,60.0067170591,FEMA4ImagesEEG,001,100214,
AFNE01.JPG,AFNE01.JPG,AFNE01.JPG,AFNE01.JPG,AFNE01.JPG,AFNE01.JPG,,,,,,,,,,,,,,,,,1,9,19,1,,,,,,,AFSA15.jpg,AFNE16.jpg,AFNE03.jpg,AFSA07.jpg,AFSA07.jpg,FS,4,num_4,16,num_4,0.71680117934,,,2017_Apr_28_1701,60.0067170591,FEMA4ImagesEEG,001,100214,
AFNE01.JPG,AFNE01.JPG,AFNE01.JPG,AFNE01.JPG,AFNE01.JPG,AFNE01.JPG,,,,,,,,,,,,,,,,,2,0,20,4,,,,,,,AFSA16.jpg,AFNE02.jpg,AFSA04.jpg,AFNE07.jpg,AFSA16.jpg,FS,4,num_8,32,num_6,1.39997703501,,,2017_Apr_28_1701,60.0067170591,FEMA4ImagesEEG,001,100214,
AFNE01.JPG,AFNE01.JPG,AFNE01.JPG,AFNE01.JPG,AFNE01.JPG,AFNE01.JPG,,,,,,,,,,,,,,,,,2,1,21,5,,,,,,,AFSA04.jpg,AFNE04.jpg,AFSA16.jpg,AFNE19.jpg,AFSA16.jpg,FS,4,num_2,32,num_4,0.750123404316,,,2017_Apr_28_1701,60.0067170591,FEMA4ImagesEEG,001,100214,
AFNE01.JPG,AFNE01.JPG,AFNE01.JPG,AFNE01.JPG,AFNE01.JPG,AFNE01.JPG,,,,,,,,,,,,,,,,,2,2,22,0,,,,,,,AFSA08.jpg,AFNE01.jpg,AFSA07.jpg,AFNE02.jpg,AFSA07.jpg,FS,4,num_2,16,num_2,1.18344800291,,,2017_Apr_28_1701,60.0067170591,FEMA4ImagesEEG,001,100214,
AFNE01.JPG,AFNE01.JPG,AFNE01.JPG,AFNE01.JPG,AFNE01.JPG,AFNE01.JPG,,,,,,,,,,,,,,,,,2,3,23,3,,,,,,,AFSA05.jpg,AFSA10.jpg,AFNE16.jpg,AFNE04.jpg,AFNE04.jpg,FN,3,num_4,32,num_2,1.68334969645,,,2017_Apr_28_1701,60.0067170591,FEMA4ImagesEEG,001,100214,
AFNE01.JPG,AFNE01.JPG,AFNE01.JPG,AFNE01.JPG,AFNE01.JPG,AFNE01.JPG,,,,,,,,,,,,,,,,,2,4,24,7,,,,,,,AFNE19.jpg,AFSA02.jpg,AFNE06.jpg,AFSA06.jpg,AFNE06.jpg,FN,3,num_2,16,num_2,1.30009054462,,,2017_Apr_28_1701,60.0067170591,FEMA4ImagesEEG,001,100214,
AFNE01.JPG,AFNE01.JPG,AFNE01.JPG,AFNE01.JPG,AFNE01.JPG,AFNE01.JPG,,,,,,,,,,,,,,,,,2,5,25,6,,,,,,,AFSA04.jpg,AFNE01.jpg,AFSA19.jpg,AFNE13.jpg,AFSA19.jpg,FS,4,num_2,16,num_2,0.933464921894,,,2017_Apr_28_1701,60.0067170591,FEMA4ImagesEEG,001,100214,
AFNE01.JPG,AFNE01.JPG,AFNE01.JPG,AFNE01.JPG,AFNE01.JPG,AFNE01.JPG,,,,,,,,,,,,,,,,,2,6,26,1,,,,,,,AFNE02.jpg,AFSA01.jpg,AFNE18.jpg,AFSA02.jpg,AFSA02.jpg,FS,4,num_4,32,num_6,1.0501353679,,,2017_Apr_28_1701,60.0067170591,FEMA4ImagesEEG,001,100214,
AFNE01.JPG,AFNE01.JPG,AFNE01.JPG,AFNE01.JPG,AFNE01.JPG,AFNE01.JPG,,,,,,,,,,,,,,,,,2,7,27,2,,,,,,,AFNE05.jpg,AFNE06.jpg,AFSA09.jpg,AFSA19.jpg,AFSA09.jpg,FS,4,num_2,16,num_2,1.43342531053,,,2017_Apr_28_1701,60.0067170591,FEMA4ImagesEEG,001,100214,
AFNE01.JPG,AFNE01.JPG,AFNE01.JPG,AFNE01.JPG,AFNE01.JPG,AFNE01.JPG,,,,,,,,,,,,,,,,,2,8,28,9,,,,,,,AFSA12.jpg,AFNE14.jpg,AFNE04.jpg,AFSA13.jpg,AFNE14.jpg,FN,3,num_6,32,num_4,0.950122185517,,,2017_Apr_28_1701,60.0067170591,FEMA4ImagesEEG,001,100214,
AFNE01.JPG,AFNE01.JPG,AFNE01.JPG,AFNE01.JPG,AFNE01.JPG,AFNE01.JPG,,,,,,,,,,,,,,,,,2,9,29,8,,,,,,,AFNE08.jpg,AFSA08.jpg,AFSA10.jpg,AFNE18.jpg,AFSA08.jpg,FS,4,num_6,32,num_4,0.783417083672,,,2017_Apr_28_1701,60.0067170591,FEMA4ImagesEEG,001,100214,
AFNE01.JPG,AFNE01.JPG,AFNE01.JPG,AFNE01.JPG,AFNE01.JPG,AFNE01.JPG,,,,,,,,,,,,,,,,,3,0,30,8,,,,,,,AFNE14.jpg,AFSA15.jpg,AFSA04.jpg,AFNE08.jpg,AFNE08.jpg,FN,3,num_4,32,num_2,0.700155141531,,,2017_Apr_28_1701,60.0067170591,FEMA4ImagesEEG,001,100214,
AFNE01.JPG,AFNE01.JPG,AFNE01.JPG,AFNE01.JPG,AFNE01.JPG,AFNE01.JPG,,,,,,,,,,,,,,,,,3,1,31,0,,,,,,,AFNE09.jpg,AFNE10.jpg,AFSA09.jpg,AFSA20.jpg,AFNE10.jpg,FN,3,num_6,16,num_6,0.750120838522,,,2017_Apr_28_1701,60.0067170591,FEMA4ImagesEEG,001,100214,
AFNE01.JPG,AFNE01.JPG,AFNE01.JPG,AFNE01.JPG,AFNE01.JPG,AFNE01.JPG,,,,,,,,,,,,,,,,,3,2,32,1,,,,,,,AFSA06.jpg,AFSA09.jpg,AFNE09.jpg,AFNE04.jpg,AFNE04.jpg,FN,3,num_4,32,num_8,1.13367282494,,,2017_Apr_28_1701,60.0067170591,FEMA4ImagesEEG,001,100214,
AFNE01.JPG,AFNE01.JPG,AFNE01.JPG,AFNE01.JPG,AFNE01.JPG,AFNE01.JPG,,,,,,,,,,,,,,,,,3,3,33,7,,,,,,,AFSA05.jpg,AFSA09.jpg,AFNE17.jpg,AFNE11.jpg,AFSA09.jpg,FS,4,num_6,48,None,,,,2017_Apr_28_1701,60.0067170591,FEMA4ImagesEEG,001,100214,
AFNE01.JPG,AFNE01.JPG,AFNE01.JPG,AFNE01.JPG,AFNE01.JPG,AFNE01.JPG,,,,,,,,,,,,,,,,,3,4,34,4,,,,,,,AFNE04.jpg,AFSA15.jpg,AFNE01.jpg,AFSA09.jpg,AFSA15.jpg,FS,4,num_6,32,num_8,2.949979136,,,2017_Apr_28_1701,60.0067170591,FEMA4ImagesEEG,001,100214,
AFNE01.JPG,AFNE01.JPG,AFNE01.JPG,AFNE01.JPG,AFNE01.JPG,AFNE01.JPG,,,,,,,,,,,,,,,,,3,5,35,3,,,,,,,AFNE19.jpg,AFSA15.jpg,AFNE07.jpg,AFSA01.jpg,AFSA15.jpg,FS,4,num_6,32,num_8,1.63339875347,,,2017_Apr_28_1701,60.0067170591,FEMA4ImagesEEG,001,100214,
AFNE01.JPG,AFNE01.JPG,AFNE01.JPG,AFNE01.JPG,AFNE01.JPG,AFNE01.JPG,,,,,,,,,,,,,,,,,3,6,36,6,,,,,,,AFSA20.jpg,AFNE06.jpg,AFSA09.jpg,AFNE20.jpg,AFNE20.jpg,FN,3,num_4,16,num_4,0.80014811724,,,2017_Apr_28_1701,60.0067170591,FEMA4ImagesEEG,001,100214,
AFNE01.JPG,AFNE01.JPG,AFNE01.JPG,AFNE01.JPG,AFNE01.JPG,AFNE01.JPG,,,,,,,,,,,,,,,,,3,7,37,5,,,,,,,AFSA06.jpg,AFNE07.jpg,AFSA08.jpg,AFNE03.jpg,AFNE03.jpg,FN,3,num_4,16,num_4,1.38341567246,,,2017_Apr_28_1701,60.0067170591,FEMA4ImagesEEG,001,100214,
AFNE01.JPG,AFNE01.JPG,AFNE01.JPG,AFNE01.JPG,AFNE01.JPG,AFNE01.JPG,,,,,,,,,,,,,,,,,3,8,38,2,,,,,,,AFNE06.jpg,AFNE14.jpg,AFSA15.jpg,AFSA16.jpg,AFSA15.jpg,FS,4,num_2,32,num_4,0.883549580933,,,2017_Apr_28_1701,60.0067170591,FEMA4ImagesEEG,001,100214,
AFNE01.JPG,AFNE01.JPG,AFNE01.JPG,AFNE01.JPG,AFNE01.JPG,AFNE01.JPG,,,,,,,,,,,,,,,,,3,9,39,9,,,,,,,AFSA14.jpg,AFSA08.jpg,AFNE07.jpg,AFNE20.jpg,AFNE07.jpg,FN,3,num_2,16,num_2,1.68339684501,,,2017_Apr_28_1701,60.0067170591,FEMA4ImagesEEG,001,100214,
AFNE01.JPG,AFNE01.JPG,AFNE01.JPG,AFNE01.JPG,AFNE01.JPG,AFNE01.JPG,,,,,,,,,,,,,,,,,4,0,40,1,,,,,,,AFNE11.jpg,AFSA19.jpg,AFNE16.jpg,AFSA08.jpg,AFNE16.jpg,FN,3,num_2,16,num_2,0.86680507625,,,2017_Apr_28_1701,60.0067170591,FEMA4ImagesEEG,001,100214,
AFNE01.JPG,AFNE01.JPG,AFNE01.JPG,AFNE01.JPG,AFNE01.JPG,AFNE01.JPG,,,,,,,,,,,,,,,,,4,1,41,7,,,,,,,AFSA18.jpg,AFSA16.jpg,AFNE20.jpg,AFNE07.jpg,AFNE07.jpg,FN,3,num_4,32,num_2,0.816719422932,,,2017_Apr_28_1701,60.0067170591,FEMA4ImagesEEG,001,100214,
AFNE01.JPG,AFNE01.JPG,AFNE01.JPG,AFNE01.JPG,AFNE01.JPG,AFNE01.JPG,,,,,,,,,,,,,,,,,4,2,42,4,,,,,,,AFSA15.jpg,AFSA01.jpg,AFNE04.jpg,AFNE07.jpg,AFSA15.jpg,FS,4,num_8,32,num_2,1.88335553382,,,2017_Apr_28_1701,60.0067170591,FEMA4ImagesEEG,001,100214,
AFNE01.JPG,AFNE01.JPG,AFNE01.JPG,AFNE01.JPG,AFNE01.JPG,AFNE01.JPG,,,,,,,,,,,,,,,,,4,3,43,2,,,,,,,AFSA08.jpg,AFNE17.jpg,AFSA09.jpg,AFNE13.jpg,AFNE17.jpg,FN,3,num_6,32,num_8,0.583490468794,,,2017_Apr_28_1701,60.0067170591,FEMA4ImagesEEG,001,100214,
AFNE01.JPG,AFNE01.JPG,AFNE01.JPG,AFNE01.JPG,AFNE01.JPG,AFNE01.JPG,,,,,,,,,,,,,,,,,4,4,44,3,,,,,,,AFSA04.jpg,AFNE18.jpg,AFSA20.jpg,AFNE14.jpg,AFNE14.jpg,FN,3,num_4,16,num_4,0.683548875269,,,2017_Apr_28_1701,60.0067170591,FEMA4ImagesEEG,001,100214,
AFNE01.JPG,AFNE01.JPG,AFNE01.JPG,AFNE01.JPG,AFNE01.JPG,AFNE01.JPG,,,,,,,,,,,,,,,,,4,5,45,8,,,,,,,AFNE15.jpg,AFSA07.jpg,AFSA13.jpg,AFNE08.jpg,AFNE08.jpg,FN,3,num_4,32,num_6,1.20010013483,,,2017_Apr_28_1701,60.0067170591,FEMA4ImagesEEG,001,100214,
AFNE01.JPG,AFNE01.JPG,AFNE01.JPG,AFNE01.JPG,AFNE01.JPG,AFNE01.JPG,,,,,,,,,,,,,,,,,4,6,46,6,,,,,,,AFNE19.jpg,AFNE08.jpg,AFSA09.jpg,AFSA02.jpg,AFNE19.jpg,FN,3,num_8,32,num_4,1.43339836854,,,2017_Apr_28_1701,60.0067170591,FEMA4ImagesEEG,001,100214,
AFNE01.JPG,AFNE01.JPG,AFNE01.JPG,AFNE01.JPG,AFNE01.JPG,AFNE01.JPG,,,,,,,,,,,,,,,,,4,7,47,9,,,,,,,AFNE10.jpg,AFSA19.jpg,AFSA09.jpg,AFNE17.jpg,AFSA09.jpg,FS,4,num_2,16,num_2,1.86664855562,,,2017_Apr_28_1701,60.0067170591,FEMA4ImagesEEG,001,100214,
AFNE01.JPG,AFNE01.JPG,AFNE01.JPG,AFNE01.JPG,AFNE01.JPG,AFNE01.JPG,,,,,,,,,,,,,,,,,4,8,48,5,,,,,,,AFSA16.jpg,AFNE04.jpg,AFSA12.jpg,AFNE19.jpg,AFNE19.jpg,FN,3,num_4,16,num_4,1.43346636521,,,2017_Apr_28_1701,60.0067170591,FEMA4ImagesEEG,001,100214,
AFNE01.JPG,AFNE01.JPG,AFNE01.JPG,AFNE01.JPG,AFNE01.JPG,AFNE01.JPG,,,,,,,,,,,,,,,,,4,9,49,0,,,,,,,AFSA01.jpg,AFSA14.jpg,AFNE13.jpg,AFNE14.jpg,AFNE13.jpg,FN,3,num_2,32,num_6,2.19998691382,,,2017_Apr_28_1701,60.0067170591,FEMA4ImagesEEG,001,100214,
AFNE01.JPG,AFNE01.JPG,AFNE01.JPG,AFNE01.JPG,AFNE01.JPG,AFNE01.JPG,,,,,,,,,,,,,,,,,5,0,50,3,,,,,,,AFNE04.jpg,AFSA19.jpg,AFSA07.jpg,AFNE07.jpg,AFSA19.jpg,FS,4,num_6,32,num_2,0.9834675038,,,2017_Apr_28_1701,60.0067170591,FEMA4ImagesEEG,001,100214,
AFNE01.JPG,AFNE01.JPG,AFNE01.JPG,AFNE01.JPG,AFNE01.JPG,AFNE01.JPG,,,,,,,,,,,,,,,,,5,1,51,2,,,,,,,AFSA09.jpg,AFNE07.jpg,AFNE12.jpg,AFSA10.jpg,AFSA09.jpg,FS,4,num_8,16,num_8,2.28336849168,,,2017_Apr_28_1701,60.0067170591,FEMA4ImagesEEG,001,100214,
AFNE01.JPG,AFNE01.JPG,AFNE01.JPG,AFNE01.JPG,AFNE01.JPG,AFNE01.JPG,,,,,,,,,,,,,,,,,5,2,52,8,,,,,,,AFNE17.jpg,AFNE10.jpg,AFSA06.jpg,AFSA18.jpg,AFNE17.jpg,FN,3,num_8,32,num_4,1.83324807009,,,2017_Apr_28_1701,60.0067170591,FEMA4ImagesEEG,001,100214,
AFNE01.JPG,AFNE01.JPG,AFNE01.JPG,AFNE01.JPG,AFNE01.JPG,AFNE01.JPG,,,,,,,,,,,,,,,,,5,3,53,4,,,,,,,AFNE04.jpg,AFNE14.jpg,AFSA13.jpg,AFSA19.jpg,AFNE14.jpg,FN,3,num_6,32,num_2,3.58327012102,,,2017_Apr_28_1701,60.0067170591,FEMA4ImagesEEG,001,100214,
AFNE01.JPG,AFNE01.JPG,AFNE01.JPG,AFNE01.JPG,AFNE01.JPG,AFNE01.JPG,,,,,,,,,,,,,,,,,5,4,54,0,,,,,,,AFNE01.jpg,AFNE17.jpg,AFSA05.jpg,AFSA08.jpg,AFSA08.jpg,FS,4,num_4,32,num_8,0.70014712296,,,2017_Apr_28_1701,60.0067170591,FEMA4ImagesEEG,001,100214,
AFNE01.JPG,AFNE01.JPG,AFNE01.JPG,AFNE01.JPG,AFNE01.JPG,AFNE01.JPG,,,,,,,,,,,,,,,,,5,5,55,1,,,,,,,AFSA03.jpg,AFSA17.jpg,AFNE02.jpg,AFNE19.jpg,AFSA03.jpg,FS,4,num_8,32,num_4,1.03342325788,,,2017_Apr_28_1701,60.0067170591,FEMA4ImagesEEG,001,100214,
AFNE01.JPG,AFNE01.JPG,AFNE01.JPG,AFNE01.JPG,AFNE01.JPG,AFNE01.JPG,,,,,,,,,,,,,,,,,5,6,56,7,,,,,,,AFNE19.jpg,AFNE02.jpg,AFSA11.jpg,AFSA13.jpg,AFNE02.jpg,FN,3,num_6,32,num_4,1.78339751856,,,2017_Apr_28_1701,60.0067170591,FEMA4ImagesEEG,001,100214,
AFNE01.JPG,AFNE01.JPG,AFNE01.JPG,AFNE01.JPG,AFNE01.JPG,AFNE01.JPG,,,,,,,,,,,,,,,,,5,7,57,6,,,,,,,AFSA20.jpg,AFSA02.jpg,AFNE13.jpg,AFNE11.jpg,AFNE11.jpg,FN,3,num_4,32,num_2,0.683463879512,,,2017_Apr_28_1701,60.0067170591,FEMA4ImagesEEG,001,100214,
AFNE01.JPG,AFNE01.JPG,AFNE01.JPG,AFNE01.JPG,AFNE01.JPG,AFNE01.JPG,,,,,,,,,,,,,,,,,5,8,58,9,,,,,,,AFSA08.jpg,AFNE08.jpg,AFNE10.jpg,AFSA04.jpg,AFNE10.jpg,FN,3,num_2,32,num_6,1.46652654652,,,2017_Apr_28_1701,60.0067170591,FEMA4ImagesEEG,001,100214,
AFNE01.JPG,AFNE01.JPG,AFNE01.JPG,AFNE01.JPG,AFNE01.JPG,AFNE01.JPG,,,,,,,,,,,,,,,,,5,9,59,5,,,,,,,AFNE06.jpg,AFNE12.jpg,AFSA11.jpg,AFSA18.jpg,AFNE06.jpg,FN,3,num_8,16,num_8,2.6499828886,,,2017_Apr_28_1701,60.0067170591,FEMA4ImagesEEG,001,100214,
,,,,,,,,,,,,,,,,,,,,,,,,,,,,,,,,,,,,,,,,,,,space,39.9306610208,2017_Apr_28_1701,60.0067170591,FEMA4ImagesEEG,001,100214,
AFNE01.JPG,AFNE01.JPG,AFNE01.JPG,AFNE01.JPG,AFNE01.JPG,AFNE01.JPG,,,,,,,,,,,,,,,,,,,,,0,0,0,6,,,AMNE01.jpg,AMSA03.jpg,AMSA02.jpg,AMNE06.jpg,AMSA02.jpg,MS,2,num_2,32,num_8,0.750120838406,,,2017_Apr_28_1701,60.0067170591,FEMA4ImagesEEG,001,100214,
AFNE01.JPG,AFNE01.JPG,AFNE01.JPG,AFNE01.JPG,AFNE01.JPG,AFNE01.JPG,,,,,,,,,,,,,,,,,,,,,0,1,1,9,,,AMNE14.jpg,AMSA13.jpg,AMSA19.jpg,AMNE03.jpg,AMSA19.jpg,MS,2,num_2,32,num_4,4.29991093068,,,2017_Apr_28_1701,60.0067170591,FEMA4ImagesEEG,001,100214,
AFNE01.JPG,AFNE01.JPG,AFNE01.JPG,AFNE01.JPG,AFNE01.JPG,AFNE01.JPG,,,,,,,,,,,,,,,,,,,,,0,2,2,3,,,AMNE17.jpg,AMSA10.jpg,AMNE10.jpg,AMSA01.jpg,AMSA10.jpg,MS,2,num_6,16,num_6,1.40014478157,,,2017_Apr_28_1701,60.0067170591,FEMA4ImagesEEG,001,100214,
AFNE01.JPG,AFNE01.JPG,AFNE01.JPG,AFNE01.JPG,AFNE01.JPG,AFNE01.JPG,,,,,,,,,,,,,,,,,,,,,0,3,3,4,,,AMNE16.jpg,AMNE06.jpg,AMSA02.jpg,AMSA19.jpg,AMNE06.jpg,MN,1,num_6,32,num_2,1.41675874556,,,2017_Apr_28_1701,60.0067170591,FEMA4ImagesEEG,001,100214,
AFNE01.JPG,AFNE01.JPG,AFNE01.JPG,AFNE01.JPG,AFNE01.JPG,AFNE01.JPG,,,,,,,,,,,,,,,,,,,,,0,4,4,8,,,AMSA02.jpg,AMSA13.jpg,AMNE06.jpg,AMNE17.jpg,AMNE17.jpg,MN,1,num_4,32,num_2,0.683442389942,,,2017_Apr_28_1701,60.0067170591,FEMA4ImagesEEG,001,100214,
AFNE01.JPG,AFNE01.JPG,AFNE01.JPG,AFNE01.JPG,AFNE01.JPG,AFNE01.JPG,,,,,,,,,,,,,,,,,,,,,0,5,5,5,,,AMSA04.jpg,AMNE20.jpg,AMNE08.jpg,AMSA07.jpg,AMNE20.jpg,MN,1,num_6,16,num_6,0.800096799037,,,2017_Apr_28_1701,60.0067170591,FEMA4ImagesEEG,001,100214,
AFNE01.JPG,AFNE01.JPG,AFNE01.JPG,AFNE01.JPG,AFNE01.JPG,AFNE01.JPG,,,,,,,,,,,,,,,,,,,,,0,6,6,2,,,AMSA02.jpg,AMNE07.jpg,AMNE04.jpg,AMSA03.jpg,AMNE07.jpg,MN,1,num_6,32,num_2,1.20013188792,,,2017_Apr_28_1701,60.0067170591,FEMA4ImagesEEG,001,100214,
AFNE01.JPG,AFNE01.JPG,AFNE01.JPG,AFNE01.JPG,AFNE01.JPG,AFNE01.JPG,,,,,,,,,,,,,,,,,,,,,0,7,7,0,,,AMNE07.jpg,AMNE08.jpg,AMSA17.jpg,AMSA20.jpg,AMSA17.jpg,MS,2,num_2,16,num_2,2.98322759103,,,2017_Apr_28_1701,60.0067170591,FEMA4ImagesEEG,001,100214,
AFNE01.JPG,AFNE01.JPG,AFNE01.JPG,AFNE01.JPG,AFNE01.JPG,AFNE01.JPG,,,,,,,,,,,,,,,,,,,,,0,8,8,7,,,AMSA02.jpg,AMNE06.jpg,AMSA19.jpg,AMNE10.jpg,AMNE06.jpg,MN,1,num_6,32,num_2,1.43342017883,,,2017_Apr_28_1701,60.0067170591,FEMA4ImagesEEG,001,100214,
AFNE01.JPG,AFNE01.JPG,AFNE01.JPG,AFNE01.JPG,AFNE01.JPG,AFNE01.JPG,,,,,,,,,,,,,,,,,,,,,0,9,9,1,,,AMNE17.jpg,AMSA03.jpg,AMNE10.jpg,AMSA12.jpg,AMNE17.jpg,MN,1,num_8,16,num_8,0.883463943726,,,2017_Apr_28_1701,60.0067170591,FEMA4ImagesEEG,001,100214,
AFNE01.JPG,AFNE01.JPG,AFNE01.JPG,AFNE01.JPG,AFNE01.JPG,AFNE01.JPG,,,,,,,,,,,,,,,,,,,,,1,0,10,1,,,AMSA10.jpg,AMNE06.jpg,AMSA17.jpg,AMNE04.jpg,AMNE04.jpg,MN,1,num_4,32,num_8,0.899814259959,,,2017_Apr_28_1701,60.0067170591,FEMA4ImagesEEG,001,100214,
AFNE01.JPG,AFNE01.JPG,AFNE01.JPG,AFNE01.JPG,AFNE01.JPG,AFNE01.JPG,,,,,,,,,,,,,,,,,,,,,1,1,11,6,,,AMSA04.jpg,AMNE01.jpg,AMSA07.jpg,AMNE12.jpg,AMSA04.jpg,MS,2,num_8,32,num_6,0.683473180979,,,2017_Apr_28_1701,60.0067170591,FEMA4ImagesEEG,001,100214,
AFNE01.JPG,AFNE01.JPG,AFNE01.JPG,AFNE01.JPG,AFNE01.JPG,AFNE01.JPG,,,,,,,,,,,,,,,,,,,,,1,2,12,3,,,AMSA19.jpg,AMNE12.jpg,AMSA11.jpg,AMNE20.jpg,AMSA11.jpg,MS,2,num_2,16,num_2,0.933302307152,,,2017_Apr_28_1701,60.0067170591,FEMA4ImagesEEG,001,100214,
AFNE01.JPG,AFNE01.JPG,AFNE01.JPG,AFNE01.JPG,AFNE01.JPG,AFNE01.JPG,,,,,,,,,,,,,,,,,,,,,1,3,13,7,,,AMSA04.jpg,AMNE05.jpg,AMSA10.jpg,AMNE03.jpg,AMNE05.jpg,MN,1,num_6,32,num_8,0.933405585238,,,2017_Apr_28_1701,60.0067170591,FEMA4ImagesEEG,001,100214,
AFNE01.JPG,AFNE01.JPG,AFNE01.JPG,AFNE01.JPG,AFNE01.JPG,AFNE01.JPG,,,,,,,,,,,,,,,,,,,,,1,4,14,2,,,AMSA06.jpg,AMNE14.jpg,AMSA12.jpg,AMNE10.jpg,AMSA12.jpg,MS,2,num_2,32,num_8,0.700131086051,,,2017_Apr_28_1701,60.0067170591,FEMA4ImagesEEG,001,100214,
AFNE01.JPG,AFNE01.JPG,AFNE01.JPG,AFNE01.JPG,AFNE01.JPG,AFNE01.JPG,,,,,,,,,,,,,,,,,,,,,1,5,15,4,,,AMSA09.jpg,AMNE02.jpg,AMNE03.jpg,AMSA15.jpg,AMSA15.jpg,MS,2,num_4,16,num_4,0.816758232308,,,2017_Apr_28_1701,60.0067170591,FEMA4ImagesEEG,001,100214,
AFNE01.JPG,AFNE01.JPG,AFNE01.JPG,AFNE01.JPG,AFNE01.JPG,AFNE01.JPG,,,,,,,,,,,,,,,,,,,,,1,6,16,9,,,AMSA06.jpg,AMNE10.jpg,AMSA05.jpg,AMNE11.jpg,AMNE11.jpg,MN,1,num_4,16,num_4,0.783461666317,,,2017_Apr_28_1701,60.0067170591,FEMA4ImagesEEG,001,100214,
AFNE01.JPG,AFNE01.JPG,AFNE01.JPG,AFNE01.JPG,AFNE01.JPG,AFNE01.JPG,,,,,,,,,,,,,,,,,,,,,1,7,17,0,,,AMSA10.jpg,AMSA13.jpg,AMNE05.jpg,AMNE14.jpg,AMSA13.jpg,MS,2,num_6,32,num_4,1.66671745037,,,2017_Apr_28_1701,60.0067170591,FEMA4ImagesEEG,001,100214,
AFNE01.JPG,AFNE01.JPG,AFNE01.JPG,AFNE01.JPG,AFNE01.JPG,AFNE01.JPG,,,,,,,,,,,,,,,,,,,,,1,8,18,8,,,AMSA18.jpg,AMNE20.jpg,AMNE13.jpg,AMSA02.jpg,AMNE20.jpg,MN,1,num_6,32,num_8,0.683490180061,,,2017_Apr_28_1701,60.0067170591,FEMA4ImagesEEG,001,100214,
AFNE01.JPG,AFNE01.JPG,AFNE01.JPG,AFNE01.JPG,AFNE01.JPG,AFNE01.JPG,,,,,,,,,,,,,,,,,,,,,1,9,19,5,,,AMSA12.jpg,AMNE11.jpg,AMNE09.jpg,AMSA08.jpg,AMNE11.jpg,MN,1,num_6,16,num_6,0.883409097209,,,2017_Apr_28_1701,60.0067170591,FEMA4ImagesEEG,001,100214,
AFNE01.JPG,AFNE01.JPG,AFNE01.JPG,AFNE01.JPG,AFNE01.JPG,AFNE01.JPG,,,,,,,,,,,,,,,,,,,,,2,0,20,8,,,AMSA15.jpg,AMSA12.jpg,AMNE02.jpg,AMNE19.jpg,AMSA12.jpg,MS,2,num_6,32,num_4,1.15009819425,,,2017_Apr_28_1701,60.0067170591,FEMA4ImagesEEG,001,100214,
AFNE01.JPG,AFNE01.JPG,AFNE01.JPG,AFNE01.JPG,AFNE01.JPG,AFNE01.JPG,,,,,,,,,,,,,,,,,,,,,2,1,21,7,,,AMNE19.jpg,AMSA17.jpg,AMSA02.jpg,AMNE11.jpg,AMNE11.jpg,MN,1,num_4,32,num_8,1.44967234903,,,2017_Apr_28_1701,60.0067170591,FEMA4ImagesEEG,001,100214,
AFNE01.JPG,AFNE01.JPG,AFNE01.JPG,AFNE01.JPG,AFNE01.JPG,AFNE01.JPG,,,,,,,,,,,,,,,,,,,,,2,2,22,5,,,AMNE10.jpg,AMSA15.jpg,AMNE18.jpg,AMSA03.jpg,AMSA03.jpg,MS,2,num_4,32,num_2,1.88337734411,,,2017_Apr_28_1701,60.0067170591,FEMA4ImagesEEG,001,100214,
AFNE01.JPG,AFNE01.JPG,AFNE01.JPG,AFNE01.JPG,AFNE01.JPG,AFNE01.JPG,,,,,,,,,,,,,,,,,,,,,2,3,23,1,,,AMNE11.jpg,AMSA16.jpg,AMSA15.jpg,AMNE10.jpg,AMSA16.jpg,MS,2,num_6,32,num_4,0.816731611034,,,2017_Apr_28_1701,60.0067170591,FEMA4ImagesEEG,001,100214,
AFNE01.JPG,AFNE01.JPG,AFNE01.JPG,AFNE01.JPG,AFNE01.JPG,AFNE01.JPG,,,,,,,,,,,,,,,,,,,,,2,4,24,4,,,AMSA18.jpg,AMSA10.jpg,AMNE05.jpg,AMNE13.jpg,AMSA10.jpg,MS,2,num_6,32,num_4,0.733540872927,,,2017_Apr_28_1701,60.0067170591,FEMA4ImagesEEG,001,100214,
AFNE01.JPG,AFNE01.JPG,AFNE01.JPG,AFNE01.JPG,AFNE01.JPG,AFNE01.JPG,,,,,,,,,,,,,,,,,,,,,2,5,25,2,,,AMSA06.jpg,AMNE17.jpg,AMNE10.jpg,AMSA16.jpg,AMNE17.jpg,MN,1,num_6,32,num_8,1.38338231563,,,2017_Apr_28_1701,60.0067170591,FEMA4ImagesEEG,001,100214,
AFNE01.JPG,AFNE01.JPG,AFNE01.JPG,AFNE01.JPG,AFNE01.JPG,AFNE01.JPG,,,,,,,,,,,,,,,,,,,,,2,6,26,6,,,AMNE08.jpg,AMSA07.jpg,AMSA10.jpg,AMNE10.jpg,AMSA07.jpg,MS,2,num_6,32,num_8,0.983449221705,,,2017_Apr_28_1701,60.0067170591,FEMA4ImagesEEG,001,100214,
AFNE01.JPG,AFNE01.JPG,AFNE01.JPG,AFNE01.JPG,AFNE01.JPG,AFNE01.JPG,,,,,,,,,,,,,,,,,,,,,2,7,27,0,,,AMNE14.jpg,AMNE20.jpg,AMSA12.jpg,AMSA10.jpg,AMSA10.jpg,MS,2,num_4,32,num_8,0.683452974306,,,2017_Apr_28_1701,60.0067170591,FEMA4ImagesEEG,001,100214,
AFNE01.JPG,AFNE01.JPG,AFNE01.JPG,AFNE01.JPG,AFNE01.JPG,AFNE01.JPG,,,,,,,,,,,,,,,,,,,,,2,8,28,3,,,AMNE10.jpg,AMNE20.jpg,AMSA18.jpg,AMSA13.jpg,AMNE20.jpg,MN,1,num_6,32,num_2,0.783470326336,,,2017_Apr_28_1701,60.0067170591,FEMA4ImagesEEG,001,100214,
AFNE01.JPG,AFNE01.JPG,AFNE01.JPG,AFNE01.JPG,AFNE01.JPG,AFNE01.JPG,,,,,,,,,,,,,,,,,,,,,2,9,29,9,,,AMNE13.jpg,AMSA06.jpg,AMNE20.jpg,AMSA20.jpg,AMSA06.jpg,MS,2,num_6,32,num_4,0.966758921975,,,2017_Apr_28_1701,60.0067170591,FEMA4ImagesEEG,001,100214,
AFNE01.JPG,AFNE01.JPG,AFNE01.JPG,AFNE01.JPG,AFNE01.JPG,AFNE01.JPG,,,,,,,,,,,,,,,,,,,,,3,0,30,0,,,AMNE02.jpg,AMSA15.jpg,AMSA06.jpg,AMNE05.jpg,AMNE02.jpg,MN,1,num_8,32,num_6,0.983442806988,,,2017_Apr_28_1701,60.0067170591,FEMA4ImagesEEG,001,100214,
AFNE01.JPG,AFNE01.JPG,AFNE01.JPG,AFNE01.JPG,AFNE01.JPG,AFNE01.JPG,,,,,,,,,,,,,,,,,,,,,3,1,31,7,,,AMSA07.jpg,AMSA12.jpg,AMNE12.jpg,AMNE07.jpg,AMNE07.jpg,MN,1,num_4,32,num_6,1.60004092625,,,2017_Apr_28_1701,60.0067170591,FEMA4ImagesEEG,001,100214,
AFNE01.JPG,AFNE01.JPG,AFNE01.JPG,AFNE01.JPG,AFNE01.JPG,AFNE01.JPG,,,,,,,,,,,,,,,,,,,,,3,2,32,3,,,AMSA14.jpg,AMSA10.jpg,AMNE13.jpg,AMNE01.jpg,AMSA10.jpg,MS,2,num_6,16,num_6,0.732962259557,,,2017_Apr_28_1701,60.0067170591,FEMA4ImagesEEG,001,100214,
AFNE01.JPG,AFNE01.JPG,AFNE01.JPG,AFNE01.JPG,AFNE01.JPG,AFNE01.JPG,,,,,,,,,,,,,,,,,,,,,3,3,33,5,,,AMNE01.jpg,AMNE08.jpg,AMSA09.jpg,AMSA06.jpg,AMNE08.jpg,MN,1,num_6,32,num_2,0.766827175277,,,2017_Apr_28_1701,60.0067170591,FEMA4ImagesEEG,001,100214,
AFNE01.JPG,AFNE01.JPG,AFNE01.JPG,AFNE01.JPG,AFNE01.JPG,AFNE01.JPG,,,,,,,,,,,,,,,,,,,,,3,4,34,6,,,AMNE09.jpg,AMSA19.jpg,AMSA07.jpg,AMNE03.jpg,AMNE03.jpg,MN,1,num_4,16,num_4,0.666681206785,,,2017_Apr_28_1701,60.0067170591,FEMA4ImagesEEG,001,100214,
AFNE01.JPG,AFNE01.JPG,AFNE01.JPG,AFNE01.JPG,AFNE01.JPG,AFNE01.JPG,,,,,,,,,,,,,,,,,,,,,3,5,35,4,,,AMSA18.jpg,AMNE19.jpg,AMSA08.jpg,AMNE05.jpg,AMNE05.jpg,MN,1,num_4,16,num_4,0.733474159264,,,2017_Apr_28_1701,60.0067170591,FEMA4ImagesEEG,001,100214,
AFNE01.JPG,AFNE01.JPG,AFNE01.JPG,AFNE01.JPG,AFNE01.JPG,AFNE01.JPG,,,,,,,,,,,,,,,,,,,,,3,6,36,9,,,AMNE02.jpg,AMNE19.jpg,AMSA15.jpg,AMSA01.jpg,AMSA15.jpg,MS,2,num_2,32,num_6,1.01664122671,,,2017_Apr_28_1701,60.0067170591,FEMA4ImagesEEG,001,100214,
AFNE01.JPG,AFNE01.JPG,AFNE01.JPG,AFNE01.JPG,AFNE01.JPG,AFNE01.JPG,,,,,,,,,,,,,,,,,,,,,3,7,37,2,,,AMNE20.jpg,AMSA10.jpg,AMNE17.jpg,AMSA02.jpg,AMNE17.jpg,MN,1,num_2,32,num_8,0.733437274233,,,2017_Apr_28_1701,60.0067170591,FEMA4ImagesEEG,001,100214,
AFNE01.JPG,AFNE01.JPG,AFNE01.JPG,AFNE01.JPG,AFNE01.JPG,AFNE01.JPG,,,,,,,,,,,,,,,,,,,,,3,8,38,8,,,AMNE16.jpg,AMSA07.jpg,AMNE20.jpg,AMSA02.jpg,AMNE16.jpg,MN,1,num_8,16,num_8,1.03345885989,,,2017_Apr_28_1701,60.0067170591,FEMA4ImagesEEG,001,100214,
