IPosition2,IPosition3,IPosition1,IPosition6,IPosition4,IPosition5,TrialsM1.thisRepN,TrialsM1.thisTrialN,TrialsM1.thisN,TrialsM1.thisIndex,TrialsF1.thisRepN,TrialsF1.thisTrialN,TrialsF1.thisN,TrialsF1.thisIndex,TrialsM2.thisRepN,TrialsM2.thisTrialN,TrialsM2.thisN,TrialsM2.thisIndex,TrialsF2.thisRepN,TrialsF2.thisTrialN,TrialsF2.thisN,TrialsF2.thisIndex,TrialsM3.thisRepN,TrialsM3.thisTrialN,TrialsM3.thisN,TrialsM3.thisIndex,TrialsF3.thisRepN,TrialsF3.thisTrialN,TrialsF3.thisN,TrialsF3.thisIndex,InstrKey_resp.keys,InstrKey_resp.rt,Image0 _Position,Image1 _Position,Image2 _Position,Image3 _Position,Center_image,condition,code,correct_answer,accuracy,Key_Resp.keys,Key_Resp.rt,BreakKey_resp.keys,BreakKey_resp.rt,date,frameRate,expName,session,participant,
,,,,,,,,,,,,,,,,,,,,,,,,,,,,,,space,21.8815780911,,,,,,,,,,,,,,2017_Apr_12_1104,60.1123469831,MAFE4ImagesEEG,001,100209,
AMNE22.JPG,AMSA24.JPG,AMSA22.JPG,AMNE25.JPG,AMNE24.JPG,AMSA25.JPG,0,0,0,7,,,,,,,,,,,,,,,,,,,,,,,AMNE18.jpg,AMNE07.jpg,AMSA10.jpg,AMSA04.jpg,AMNE07.jpg,MN,1,num_6,48,None,,,,2017_Apr_12_1104,60.1123469831,MAFE4ImagesEEG,001,100209,
AMSA21.JPG,AMNE22.JPG,AMNE21.JPG,AMSA23.JPG,AMSA22.JPG,AMNE23.JPG,0,1,1,1,,,,,,,,,,,,,,,,,,,,,,,AMNE15.jpg,AMSA06.jpg,AMSA04.jpg,AMNE13.jpg,AMSA04.jpg,MS,2,num_2,32,num_6,0.965267097577,,,2017_Apr_12_1104,60.1123469831,MAFE4ImagesEEG,001,100209,
AFNE22.JPG,AFSA24.JPG,AFSA22.JPG,AFNE25.JPG,AFNE24.JPG,AFSA25.JPG,0,2,2,6,,,,,,,,,,,,,,,,,,,,,,,AMSA04.jpg,AMNE17.jpg,AMNE01.jpg,AMSA17.jpg,AMSA17.jpg,MS,2,num_4,48,None,,,,2017_Apr_12_1104,60.1123469831,MAFE4ImagesEEG,001,100209,
AFSA21.JPG,AFNE22.JPG,AFNE21.JPG,AFSA23.JPG,AFSA22.JPG,AFNE23.JPG,0,3,3,0,,,,,,,,,,,,,,,,,,,,,,,AMSA18.jpg,AMNE10.jpg,AMNE03.jpg,AMSA10.jpg,AMNE10.jpg,MN,1,num_6,32,num_2,1.71684168885,,,2017_Apr_12_1104,60.1123469831,MAFE4ImagesEEG,001,100209,
AFSA21.JPG,AFNE23.JPG,AFNE21.JPG,AFSA25.JPG,AFNE25.JPG,AFSA23.JPG,0,4,4,4,,,,,,,,,,,,,,,,,,,,,,,AMSA03.jpg,AMNE16.jpg,AMNE01.jpg,AMSA14.jpg,AMNE16.jpg,MN,1,num_6,32,num_4,1.56649527419,,,2017_Apr_12_1104,60.1123469831,MAFE4ImagesEEG,001,100209,
AMNE23.JPG,AMNE24.JPG,AMNE22.JPG,AMSA24.JPG,AMSA22.JPG,AMSA23.JPG,0,5,5,9,,,,,,,,,,,,,,,,,,,,,,,AMNE04.jpg,AMSA05.jpg,AMNE12.jpg,AMSA02.jpg,AMNE12.jpg,MN,1,num_2,32,num_6,1.18361642351,,,2017_Apr_12_1104,60.1123469831,MAFE4ImagesEEG,001,100209,
AFNE23.JPG,AFNE24.JPG,AFNE22.JPG,AFSA24.JPG,AFSA22.JPG,AFSA23.JPG,0,6,6,8,,,,,,,,,,,,,,,,,,,,,,,AMNE20.jpg,AMSA08.jpg,AMNE01.jpg,AMSA07.jpg,AMNE20.jpg,MN,1,num_8,16,num_8,0.916012063622,,,2017_Apr_12_1104,60.1123469831,MAFE4ImagesEEG,001,100209,
AFSA25.JPG,AFNE24.JPG,AFSA24.JPG,AFNE21.JPG,AFSA21.JPG,AFNE25.JPG,0,7,7,2,,,,,,,,,,,,,,,,,,,,,,,AMSA16.jpg,AMNE15.jpg,AMSA12.jpg,AMNE14.jpg,AMSA16.jpg,MS,2,num_8,32,num_6,1.68538578413,,,2017_Apr_12_1104,60.1123469831,MAFE4ImagesEEG,001,100209,
AMSA21.JPG,AMNE23.JPG,AMNE21.JPG,AMSA25.JPG,AMNE25.JPG,AMSA23.JPG,0,8,8,5,,,,,,,,,,,,,,,,,,,,,,,AMNE10.jpg,AMNE15.jpg,AMSA14.jpg,AMSA19.jpg,AMNE15.jpg,MN,1,num_6,32,num_2,1.19990679342,,,2017_Apr_12_1104,60.1123469831,MAFE4ImagesEEG,001,100209,
AMSA25.JPG,AMNE24.JPG,AMSA24.JPG,AMNE26.JPG,AMSA21.JPG,AMNE25.JPG,0,9,9,3,,,,,,,,,,,,,,,,,,,,,,,AMSA20.jpg,AMNE09.jpg,AMNE03.jpg,AMSA18.jpg,AMSA20.jpg,MS,2,num_8,32,num_6,1.70000734506,,,2017_Apr_12_1104,60.1123469831,MAFE4ImagesEEG,001,100209,
AMSA25.JPG,AMNE24.JPG,AMSA24.JPG,AMNE26.JPG,AMSA21.JPG,AMNE25.JPG,,,,,0,0,0,3,,,,,,,,,,,,,,,,,,,AFNE19.jpg,AFNE10.jpg,AFSA02.jpg,AFSA06.jpg,AFNE19.jpg,FN,3,num_8,32,num_2,0.866066477261,,,2017_Apr_12_1104,60.1123469831,MAFE4ImagesEEG,001,100209,
AFNE22.JPG,AFSA24.JPG,AFSA22.JPG,AFNE25.JPG,AFNE24.JPG,AFSA25.JPG,,,,,0,1,1,6,,,,,,,,,,,,,,,,,,,AFNE13.jpg,AFSA09.jpg,AFNE07.jpg,AFSA04.jpg,AFSA09.jpg,FS,4,num_6,16,num_6,0.751854597125,,,2017_Apr_12_1104,60.1123469831,MAFE4ImagesEEG,001,100209,
AFNE23.JPG,AFNE24.JPG,AFNE22.JPG,AFSA24.JPG,AFSA22.JPG,AFSA23.JPG,,,,,0,2,2,8,,,,,,,,,,,,,,,,,,,AFNE06.jpg,AFSA15.jpg,AFSA20.jpg,AFNE14.jpg,AFNE06.jpg,FN,3,num_8,32,num_6,1.4333693739,,,2017_Apr_12_1104,60.1123469831,MAFE4ImagesEEG,001,100209,
AMSA21.JPG,AMNE22.JPG,AMNE21.JPG,AMSA23.JPG,AMSA22.JPG,AMNE23.JPG,,,,,0,3,3,1,,,,,,,,,,,,,,,,,,,AFSA09.jpg,AFSA14.jpg,AFNE06.jpg,AFNE07.jpg,AFNE06.jpg,FN,3,num_2,16,num_2,0.717470980249,,,2017_Apr_12_1104,60.1123469831,MAFE4ImagesEEG,001,100209,
AFSA21.JPG,AFNE23.JPG,AFNE21.JPG,AFSA25.JPG,AFNE25.JPG,AFSA23.JPG,,,,,0,4,4,4,,,,,,,,,,,,,,,,,,,AFNE15.jpg,AFSA20.jpg,AFNE13.jpg,AFSA14.jpg,AFSA20.jpg,FS,4,num_6,32,num_4,0.866612696555,,,2017_Apr_12_1104,60.1123469831,MAFE4ImagesEEG,001,100209,
AFSA21.JPG,AFNE22.JPG,AFNE21.JPG,AFSA23.JPG,AFSA22.JPG,AFNE23.JPG,,,,,0,5,5,0,,,,,,,,,,,,,,,,,,,AFSA18.jpg,AFSA03.jpg,AFNE07.jpg,AFNE11.jpg,AFNE11.jpg,FN,3,num_4,32,num_6,1.30030794209,,,2017_Apr_12_1104,60.1123469831,MAFE4ImagesEEG,001,100209,
AMNE22.JPG,AMSA24.JPG,AMSA22.JPG,AMNE25.JPG,AMNE24.JPG,AMSA25.JPG,,,,,0,6,6,7,,,,,,,,,,,,,,,,,,,AFNE01.jpg,AFNE12.jpg,AFSA16.jpg,AFSA09.jpg,AFNE12.jpg,FN,3,num_6,32,num_2,0.733390574809,,,2017_Apr_12_1104,60.1123469831,MAFE4ImagesEEG,001,100209,
AMSA21.JPG,AMNE23.JPG,AMNE21.JPG,AMSA25.JPG,AMNE25.JPG,AMSA23.JPG,,,,,0,7,7,5,,,,,,,,,,,,,,,,,,,AFSA14.jpg,AFNE14.jpg,AFNE18.jpg,AFSA18.jpg,AFNE18.jpg,FN,3,num_2,32,num_8,1.01685487106,,,2017_Apr_12_1104,60.1123469831,MAFE4ImagesEEG,001,100209,
AMNE23.JPG,AMNE24.JPG,AMNE22.JPG,AMSA24.JPG,AMSA22.JPG,AMSA23.JPG,,,,,0,8,8,9,,,,,,,,,,,,,,,,,,,AFSA15.jpg,AFSA11.jpg,AFNE06.jpg,AFNE08.jpg,AFNE06.jpg,FN,3,num_2,16,num_2,1.21591876028,,,2017_Apr_12_1104,60.1123469831,MAFE4ImagesEEG,001,100209,
AFSA25.JPG,AFNE24.JPG,AFSA24.JPG,AFNE21.JPG,AFSA21.JPG,AFNE25.JPG,,,,,0,9,9,2,,,,,,,,,,,,,,,,,,,AFSA18.jpg,AFSA20.jpg,AFNE05.jpg,AFNE17.jpg,AFSA20.jpg,FS,4,num_6,16,num_6,0.625293276273,,,2017_Apr_12_1104,60.1123469831,MAFE4ImagesEEG,001,100209,
AFNE23.JPG,AFNE24.JPG,AFNE22.JPG,AFSA24.JPG,AFSA22.JPG,AFSA23.JPG,,,,,,,,,0,0,0,8,,,,,,,,,,,,,,,AMSA08.jpg,AMNE09.jpg,AMSA04.jpg,AMNE10.jpg,AMSA08.jpg,MS,2,num_8,32,num_6,1.06487634033,,,2017_Apr_12_1104,60.1123469831,MAFE4ImagesEEG,001,100209,
AMNE23.JPG,AMNE24.JPG,AMNE22.JPG,AMSA24.JPG,AMSA22.JPG,AMSA23.JPG,,,,,,,,,0,1,1,9,,,,,,,,,,,,,,,AMNE11.jpg,AMSA07.jpg,AMNE01.jpg,AMSA17.jpg,AMSA07.jpg,MS,2,num_6,32,num_2,1.76661022753,,,2017_Apr_12_1104,60.1123469831,MAFE4ImagesEEG,001,100209,
AFNE22.JPG,AFSA24.JPG,AFSA22.JPG,AFNE25.JPG,AFNE24.JPG,AFSA25.JPG,,,,,,,,,0,2,2,6,,,,,,,,,,,,,,,AMSA16.jpg,AMNE20.jpg,AMSA18.jpg,AMNE19.jpg,AMSA16.jpg,MS,2,num_8,16,num_8,0.783536944073,,,2017_Apr_12_1104,60.1123469831,MAFE4ImagesEEG,001,100209,
AMNE22.JPG,AMSA24.JPG,AMSA22.JPG,AMNE25.JPG,AMNE24.JPG,AMSA25.JPG,,,,,,,,,0,3,3,7,,,,,,,,,,,,,,,AMSA01.jpg,AMNE06.jpg,AMSA13.jpg,AMNE04.jpg,AMNE06.jpg,MN,1,num_6,16,num_6,1.26886262186,,,2017_Apr_12_1104,60.1123469831,MAFE4ImagesEEG,001,100209,
AMSA21.JPG,AMNE23.JPG,AMNE21.JPG,AMSA25.JPG,AMNE25.JPG,AMSA23.JPG,,,,,,,,,0,4,4,5,,,,,,,,,,,,,,,AMSA14.jpg,AMSA08.jpg,AMNE08.jpg,AMNE07.jpg,AMSA08.jpg,MS,2,num_6,32,num_8,0.866719182115,,,2017_Apr_12_1104,60.1123469831,MAFE4ImagesEEG,001,100209,
AMSA25.JPG,AMNE24.JPG,AMSA24.JPG,AMNE26.JPG,AMSA21.JPG,AMNE25.JPG,,,,,,,,,0,5,5,3,,,,,,,,,,,,,,,AMSA11.jpg,AMNE11.jpg,AMSA05.jpg,AMNE15.jpg,AMNE15.jpg,MN,1,num_4,16,num_4,1.98393094074,,,2017_Apr_12_1104,60.1123469831,MAFE4ImagesEEG,001,100209,
AMSA21.JPG,AMNE22.JPG,AMNE21.JPG,AMSA23.JPG,AMSA22.JPG,AMNE23.JPG,,,,,,,,,0,6,6,1,,,,,,,,,,,,,,,AMSA12.jpg,AMNE14.jpg,AMSA10.jpg,AMNE03.jpg,AMSA12.jpg,MS,2,num_8,32,num_2,0.884831994772,,,2017_Apr_12_1104,60.1123469831,MAFE4ImagesEEG,001,100209,
AFSA25.JPG,AFNE24.JPG,AFSA24.JPG,AFNE21.JPG,AFSA21.JPG,AFNE25.JPG,,,,,,,,,0,7,7,2,,,,,,,,,,,,,,,AMNE04.jpg,AMSA13.jpg,AMNE11.jpg,AMSA03.jpg,AMNE11.jpg,MN,1,num_2,32,num_4,0.734893560875,,,2017_Apr_12_1104,60.1123469831,MAFE4ImagesEEG,001,100209,
AFSA21.JPG,AFNE22.JPG,AFNE21.JPG,AFSA23.JPG,AFSA22.JPG,AFNE23.JPG,,,,,,,,,0,8,8,0,,,,,,,,,,,,,,,AMSA06.jpg,AMNE04.jpg,AMSA08.jpg,AMNE16.jpg,AMNE16.jpg,MN,1,num_4,32,num_6,0.651715813205,,,2017_Apr_12_1104,60.1123469831,MAFE4ImagesEEG,001,100209,
AFSA21.JPG,AFNE23.JPG,AFNE21.JPG,AFSA25.JPG,AFNE25.JPG,AFSA23.JPG,,,,,,,,,0,9,9,4,,,,,,,,,,,,,,,AMSA07.jpg,AMNE14.jpg,AMSA09.jpg,AMNE19.jpg,AMNE19.jpg,MN,1,num_4,16,num_4,1.26563245244,,,2017_Apr_12_1104,60.1123469831,MAFE4ImagesEEG,001,100209,
AMNE22.JPG,AMSA24.JPG,AMSA22.JPG,AMNE25.JPG,AMNE24.JPG,AMSA25.JPG,,,,,,,,,,,,,0,0,0,7,,,,,,,,,,,AFNE19.jpg,AFSA18.jpg,AFSA04.jpg,AFNE15.jpg,AFSA04.jpg,FS,4,num_2,16,num_2,1.21777006984,,,2017_Apr_12_1104,60.1123469831,MAFE4ImagesEEG,001,100209,
AMSA25.JPG,AMNE24.JPG,AMSA24.JPG,AMNE26.JPG,AMSA21.JPG,AMNE25.JPG,,,,,,,,,,,,,0,1,1,3,,,,,,,,,,,AFSA10.jpg,AFNE11.jpg,AFSA20.jpg,AFNE16.jpg,AFNE11.jpg,FN,3,num_6,32,num_8,0.94921952812,,,2017_Apr_12_1104,60.1123469831,MAFE4ImagesEEG,001,100209,
AFSA25.JPG,AFNE24.JPG,AFSA24.JPG,AFNE21.JPG,AFSA21.JPG,AFNE25.JPG,,,,,,,,,,,,,0,2,2,2,,,,,,,,,,,AFNE01.jpg,AFNE12.jpg,AFSA08.jpg,AFSA20.jpg,AFNE01.jpg,FN,3,num_8,32,num_4,0.916813591961,,,2017_Apr_12_1104,60.1123469831,MAFE4ImagesEEG,001,100209,
AMSA21.JPG,AMNE22.JPG,AMNE21.JPG,AMSA23.JPG,AMSA22.JPG,AMNE23.JPG,,,,,,,,,,,,,0,3,3,1,,,,,,,,,,,AFNE12.jpg,AFNE17.jpg,AFSA10.jpg,AFSA04.jpg,AFSA04.jpg,FS,4,num_4,32,num_6,0.966380064376,,,2017_Apr_12_1104,60.1123469831,MAFE4ImagesEEG,001,100209,
AFNE22.JPG,AFSA24.JPG,AFSA22.JPG,AFNE25.JPG,AFNE24.JPG,AFSA25.JPG,,,,,,,,,,,,,0,4,4,6,,,,,,,,,,,AFSA20.jpg,AFNE19.jpg,AFSA03.jpg,AFNE17.jpg,AFNE17.jpg,FN,3,num_4,32,num_2,0.915246137418,,,2017_Apr_12_1104,60.1123469831,MAFE4ImagesEEG,001,100209,
AFSA21.JPG,AFNE22.JPG,AFNE21.JPG,AFSA23.JPG,AFSA22.JPG,AFNE23.JPG,,,,,,,,,,,,,0,5,5,0,,,,,,,,,,,AFNE14.jpg,AFSA10.jpg,AFSA19.jpg,AFNE18.jpg,AFNE14.jpg,FN,3,num_8,32,num_6,0.649272097275,,,2017_Apr_12_1104,60.1123469831,MAFE4ImagesEEG,001,100209,
AMNE23.JPG,AMNE24.JPG,AMNE22.JPG,AMSA24.JPG,AMSA22.JPG,AMSA23.JPG,,,,,,,,,,,,,0,6,6,9,,,,,,,,,,,AFNE17.jpg,AFSA13.jpg,AFSA03.jpg,AFNE12.jpg,AFNE12.jpg,FN,3,num_4,16,num_4,1.20150824636,,,2017_Apr_12_1104,60.1123469831,MAFE4ImagesEEG,001,100209,
AMSA21.JPG,AMNE23.JPG,AMNE21.JPG,AMSA25.JPG,AMNE25.JPG,AMSA23.JPG,,,,,,,,,,,,,0,7,7,5,,,,,,,,,,,AFNE13.jpg,AFSA03.jpg,AFNE10.jpg,AFSA05.jpg,AFSA03.jpg,FS,4,num_6,32,num_4,0.767261008266,,,2017_Apr_12_1104,60.1123469831,MAFE4ImagesEEG,001,100209,
AFNE23.JPG,AFNE24.JPG,AFNE22.JPG,AFSA24.JPG,AFSA22.JPG,AFSA23.JPG,,,,,,,,,,,,,0,8,8,8,,,,,,,,,,,AFSA13.jpg,AFNE09.jpg,AFSA19.jpg,AFNE06.jpg,AFSA19.jpg,FS,4,num_2,16,num_2,1.03186773462,,,2017_Apr_12_1104,60.1123469831,MAFE4ImagesEEG,001,100209,
AFSA21.JPG,AFNE23.JPG,AFNE21.JPG,AFSA25.JPG,AFNE25.JPG,AFSA23.JPG,,,,,,,,,,,,,0,9,9,4,,,,,,,,,,,AFSA14.jpg,AFNE14.jpg,AFSA04.jpg,AFNE16.jpg,AFNE16.jpg,FN,3,num_4,32,num_6,1.06680366537,,,2017_Apr_12_1104,60.1123469831,MAFE4ImagesEEG,001,100209,
AMNE23.JPG,AMNE24.JPG,AMNE22.JPG,AMSA24.JPG,AMSA22.JPG,AMSA23.JPG,,,,,,,,,,,,,,,,,0,0,0,9,,,,,,,AMNE15.jpg,AMNE17.jpg,AMSA19.jpg,AMSA14.jpg,AMSA14.jpg,MS,2,num_4,32,num_8,0.633519928902,,,2017_Apr_12_1104,60.1123469831,MAFE4ImagesEEG,001,100209,
AMSA25.JPG,AMNE24.JPG,AMSA24.JPG,AMNE26.JPG,AMSA21.JPG,AMNE25.JPG,,,,,,,,,,,,,,,,,0,1,1,3,,,,,,,AMNE12.jpg,AMSA14.jpg,AMSA08.jpg,AMNE01.jpg,AMSA08.jpg,MS,2,num_2,16,num_2,0.798146958463,,,2017_Apr_12_1104,60.1123469831,MAFE4ImagesEEG,001,100209,
AFNE23.JPG,AFNE24.JPG,AFNE22.JPG,AFSA24.JPG,AFSA22.JPG,AFSA23.JPG,,,,,,,,,,,,,,,,,0,2,2,8,,,,,,,AMNE15.jpg,AMSA09.jpg,AMNE10.jpg,AMSA05.jpg,AMNE10.jpg,MN,1,num_2,32,num_4,0.968160811346,,,2017_Apr_12_1104,60.1123469831,MAFE4ImagesEEG,001,100209,
AFSA21.JPG,AFNE23.JPG,AFNE21.JPG,AFSA25.JPG,AFNE25.JPG,AFSA23.JPG,,,,,,,,,,,,,,,,,0,3,3,4,,,,,,,AMSA11.jpg,AMNE10.jpg,AMSA10.jpg,AMNE01.jpg,AMNE01.jpg,MN,1,num_4,16,num_4,0.70042430656,,,2017_Apr_12_1104,60.1123469831,MAFE4ImagesEEG,001,100209,
AFSA25.JPG,AFNE24.JPG,AFSA24.JPG,AFNE21.JPG,AFSA21.JPG,AFNE25.JPG,,,,,,,,,,,,,,,,,0,4,4,2,,,,,,,AMSA12.jpg,AMNE08.jpg,AMNE18.jpg,AMSA18.jpg,AMSA12.jpg,MS,2,num_8,16,num_8,1.30018509924,,,2017_Apr_12_1104,60.1123469831,MAFE4ImagesEEG,001,100209,
AMNE22.JPG,AMSA24.JPG,AMSA22.JPG,AMNE25.JPG,AMNE24.JPG,AMSA25.JPG,,,,,,,,,,,,,,,,,0,5,5,7,,,,,,,AMSA09.jpg,AMSA07.jpg,AMNE02.jpg,AMNE01.jpg,AMNE01.jpg,MN,1,num_4,16,num_4,0.98206455633,,,2017_Apr_12_1104,60.1123469831,MAFE4ImagesEEG,001,100209,
AMSA21.JPG,AMNE22.JPG,AMNE21.JPG,AMSA23.JPG,AMSA22.JPG,AMNE23.JPG,,,,,,,,,,,,,,,,,0,6,6,1,,,,,,,AMSA06.jpg,AMNE04.jpg,AMSA07.jpg,AMNE01.jpg,AMNE01.jpg,MN,1,num_4,16,num_4,1.05009825854,,,2017_Apr_12_1104,60.1123469831,MAFE4ImagesEEG,001,100209,
AFSA21.JPG,AFNE22.JPG,AFNE21.JPG,AFSA23.JPG,AFSA22.JPG,AFNE23.JPG,,,,,,,,,,,,,,,,,0,7,7,0,,,,,,,AMNE19.jpg,AMSA19.jpg,AMSA04.jpg,AMNE17.jpg,AMNE19.jpg,MN,1,num_8,16,num_8,1.13269065646,,,2017_Apr_12_1104,60.1123469831,MAFE4ImagesEEG,001,100209,
AMSA21.JPG,AMNE23.JPG,AMNE21.JPG,AMSA25.JPG,AMNE25.JPG,AMSA23.JPG,,,,,,,,,,,,,,,,,0,8,8,5,,,,,,,AMSA20.jpg,AMNE07.jpg,AMNE15.jpg,AMSA13.jpg,AMNE15.jpg,MN,1,num_2,16,num_2,0.849153872579,,,2017_Apr_12_1104,60.1123469831,MAFE4ImagesEEG,001,100209,
AFNE22.JPG,AFSA24.JPG,AFSA22.JPG,AFNE25.JPG,AFNE24.JPG,AFSA25.JPG,,,,,,,,,,,,,,,,,0,9,9,6,,,,,,,AMSA02.jpg,AMNE20.jpg,AMSA06.jpg,AMNE19.jpg,AMSA06.jpg,MS,2,num_2,32,num_4,0.699866219424,,,2017_Apr_12_1104,60.1123469831,MAFE4ImagesEEG,001,100209,
AFSA25.JPG,AFNE24.JPG,AFSA24.JPG,AFNE21.JPG,AFSA21.JPG,AFNE25.JPG,,,,,,,,,,,,,,,,,,,,,0,0,0,2,,,AFSA10.jpg,AFNE20.jpg,AFNE06.jpg,AFSA04.jpg,AFNE20.jpg,FN,3,num_6,32,num_8,0.768869517837,,,2017_Apr_12_1104,60.1123469831,MAFE4ImagesEEG,001,100209,
AFSA21.JPG,AFNE23.JPG,AFNE21.JPG,AFSA25.JPG,AFNE25.JPG,AFSA23.JPG,,,,,,,,,,,,,,,,,,,,,0,1,1,4,,,AFNE14.jpg,AFNE20.jpg,AFSA03.jpg,AFSA13.jpg,AFSA03.jpg,FS,4,num_2,32,num_4,0.984591343906,,,2017_Apr_12_1104,60.1123469831,MAFE4ImagesEEG,001,100209,
AFSA21.JPG,AFNE22.JPG,AFNE21.JPG,AFSA23.JPG,AFSA22.JPG,AFNE23.JPG,,,,,,,,,,,,,,,,,,,,,0,2,2,0,,,AFSA17.jpg,AFSA03.jpg,AFNE09.jpg,AFNE17.jpg,AFNE09.jpg,FN,3,num_2,32,num_8,1.16800922947,,,2017_Apr_12_1104,60.1123469831,MAFE4ImagesEEG,001,100209,
AMNE23.JPG,AMNE24.JPG,AMNE22.JPG,AMSA24.JPG,AMSA22.JPG,AMSA23.JPG,,,,,,,,,,,,,,,,,,,,,0,3,3,9,,,AFSA11.jpg,AFNE02.jpg,AFSA09.jpg,AFNE14.jpg,AFNE02.jpg,FN,3,num_6,16,num_6,0.451078695711,,,2017_Apr_12_1104,60.1123469831,MAFE4ImagesEEG,001,100209,
AMNE22.JPG,AMSA24.JPG,AMSA22.JPG,AMNE25.JPG,AMNE24.JPG,AMSA25.JPG,,,,,,,,,,,,,,,,,,,,,0,4,4,7,,,AFNE01.jpg,AFSA08.jpg,AFNE04.jpg,AFSA10.jpg,AFNE04.jpg,FN,3,num_2,32,num_4,0.868521418888,,,2017_Apr_12_1104,60.1123469831,MAFE4ImagesEEG,001,100209,
AMSA25.JPG,AMNE24.JPG,AMSA24.JPG,AMNE26.JPG,AMSA21.JPG,AMNE25.JPG,,,,,,,,,,,,,,,,,,,,,0,5,5,3,,,AFNE15.jpg,AFNE19.jpg,AFSA16.jpg,AFSA12.jpg,AFNE15.jpg,FN,3,num_8,32,num_4,1.00096382294,,,2017_Apr_12_1104,60.1123469831,MAFE4ImagesEEG,001,100209,
AMSA21.JPG,AMNE22.JPG,AMNE21.JPG,AMSA23.JPG,AMSA22.JPG,AMNE23.JPG,,,,,,,,,,,,,,,,,,,,,0,6,6,1,,,AFSA13.jpg,AFNE05.jpg,AFNE07.jpg,AFSA04.jpg,AFNE07.jpg,FN,3,num_2,32,num_6,0.850190823898,,,2017_Apr_12_1104,60.1123469831,MAFE4ImagesEEG,001,100209,
AFNE23.JPG,AFNE24.JPG,AFNE22.JPG,AFSA24.JPG,AFSA22.JPG,AFSA23.JPG,,,,,,,,,,,,,,,,,,,,,0,7,7,8,,,AFNE19.jpg,AFNE17.jpg,AFSA17.jpg,AFSA04.jpg,AFSA04.jpg,FS,4,num_4,32,num_8,0.416497503407,,,2017_Apr_12_1104,60.1123469831,MAFE4ImagesEEG,001,100209,
AFNE22.JPG,AFSA24.JPG,AFSA22.JPG,AFNE25.JPG,AFNE24.JPG,AFSA25.JPG,,,,,,,,,,,,,,,,,,,,,0,8,8,6,,,AFSA12.jpg,AFNE04.jpg,AFNE18.jpg,AFSA01.jpg,AFSA12.jpg,FS,4,num_8,32,num_2,0.916683692485,,,2017_Apr_12_1104,60.1123469831,MAFE4ImagesEEG,001,100209,
AMSA21.JPG,AMNE23.JPG,AMNE21.JPG,AMSA25.JPG,AMNE25.JPG,AMSA23.JPG,,,,,,,,,,,,,,,,,,,,,0,9,9,5,,,AFSA09.jpg,AFNE12.jpg,AFSA06.jpg,AFNE18.jpg,AFSA09.jpg,FS,4,num_8,16,num_8,0.616833766457,,,2017_Apr_12_1104,60.1123469831,MAFE4ImagesEEG,001,100209,
,,,,,,,,,,,,,,,,,,,,,,,,,,,,,,,,,,,,,,,,,,,space,9.73275551014,2017_Apr_12_1104,60.1123469831,MAFE4ImagesEEG,001,100209,
AFNE01.JPG,AFNE01.JPG,AFNE01.JPG,AFNE01.JPG,AFNE01.JPG,AFNE01.JPG,0,0,0,7,,,,,,,,,,,,,,,,,,,,,,,AMNE18.jpg,AMSA08.jpg,AMNE14.jpg,AMSA06.jpg,AMNE14.jpg,MN,1,num_2,32,num_6,0.66631973302,,,2017_Apr_12_1104,60.1123469831,MAFE4ImagesEEG,001,100209,
AFNE01.JPG,AFNE01.JPG,AFNE01.JPG,AFNE01.JPG,AFNE01.JPG,AFNE01.JPG,0,1,1,2,,,,,,,,,,,,,,,,,,,,,,,AMNE17.jpg,AMSA04.jpg,AMSA13.jpg,AMNE14.jpg,AMSA13.jpg,MS,2,num_2,32,num_8,0.967928595841,,,2017_Apr_12_1104,60.1123469831,MAFE4ImagesEEG,001,100209,
AFNE01.JPG,AFNE01.JPG,AFNE01.JPG,AFNE01.JPG,AFNE01.JPG,AFNE01.JPG,0,2,2,9,,,,,,,,,,,,,,,,,,,,,,,AMNE12.jpg,AMNE06.jpg,AMSA09.jpg,AMSA20.jpg,AMNE12.jpg,MN,1,num_8,16,num_8,0.884608439635,,,2017_Apr_12_1104,60.1123469831,MAFE4ImagesEEG,001,100209,
AFNE01.JPG,AFNE01.JPG,AFNE01.JPG,AFNE01.JPG,AFNE01.JPG,AFNE01.JPG,0,3,3,5,,,,,,,,,,,,,,,,,,,,,,,AMNE05.jpg,AMSA10.jpg,AMNE06.jpg,AMSA06.jpg,AMNE05.jpg,MN,1,num_8,32,num_6,0.717207332142,,,2017_Apr_12_1104,60.1123469831,MAFE4ImagesEEG,001,100209,
AFNE01.JPG,AFNE01.JPG,AFNE01.JPG,AFNE01.JPG,AFNE01.JPG,AFNE01.JPG,0,4,4,8,,,,,,,,,,,,,,,,,,,,,,,AMSA14.jpg,AMNE18.jpg,AMSA04.jpg,AMNE19.jpg,AMSA04.jpg,MS,2,num_2,16,num_2,0.953083479311,,,2017_Apr_12_1104,60.1123469831,MAFE4ImagesEEG,001,100209,
AFNE01.JPG,AFNE01.JPG,AFNE01.JPG,AFNE01.JPG,AFNE01.JPG,AFNE01.JPG,0,5,5,0,,,,,,,,,,,,,,,,,,,,,,,AMNE01.jpg,AMSA14.jpg,AMSA17.jpg,AMNE03.jpg,AMSA17.jpg,MS,2,num_2,32,num_4,0.983529374469,,,2017_Apr_12_1104,60.1123469831,MAFE4ImagesEEG,001,100209,
AFNE01.JPG,AFNE01.JPG,AFNE01.JPG,AFNE01.JPG,AFNE01.JPG,AFNE01.JPG,0,6,6,4,,,,,,,,,,,,,,,,,,,,,,,AMNE08.jpg,AMSA02.jpg,AMSA14.jpg,AMNE11.jpg,AMNE11.jpg,MN,1,num_4,32,num_8,0.875989842694,,,2017_Apr_12_1104,60.1123469831,MAFE4ImagesEEG,001,100209,
AFNE01.JPG,AFNE01.JPG,AFNE01.JPG,AFNE01.JPG,AFNE01.JPG,AFNE01.JPG,0,7,7,3,,,,,,,,,,,,,,,,,,,,,,,AMSA14.jpg,AMSA04.jpg,AMNE19.jpg,AMNE05.jpg,AMNE19.jpg,MN,1,num_2,32,num_4,0.866000725888,,,2017_Apr_12_1104,60.1123469831,MAFE4ImagesEEG,001,100209,
AFNE01.JPG,AFNE01.JPG,AFNE01.JPG,AFNE01.JPG,AFNE01.JPG,AFNE01.JPG,0,8,8,1,,,,,,,,,,,,,,,,,,,,,,,AMSA19.jpg,AMNE08.jpg,AMSA17.jpg,AMNE07.jpg,AMNE07.jpg,MN,1,num_4,16,num_4,0.99834498344,,,2017_Apr_12_1104,60.1123469831,MAFE4ImagesEEG,001,100209,
AFNE01.JPG,AFNE01.JPG,AFNE01.JPG,AFNE01.JPG,AFNE01.JPG,AFNE01.JPG,0,9,9,6,,,,,,,,,,,,,,,,,,,,,,,AMNE15.jpg,AMSA07.jpg,AMSA11.jpg,AMNE17.jpg,AMSA07.jpg,MS,2,num_6,16,num_6,1.28460869612,,,2017_Apr_12_1104,60.1123469831,MAFE4ImagesEEG,001,100209,
AFNE01.JPG,AFNE01.JPG,AFNE01.JPG,AFNE01.JPG,AFNE01.JPG,AFNE01.JPG,1,0,10,7,,,,,,,,,,,,,,,,,,,,,,,AMSA18.jpg,AMNE06.jpg,AMNE12.jpg,AMSA01.jpg,AMSA18.jpg,MS,2,num_8,32,num_4,0.950166992843,,,2017_Apr_12_1104,60.1123469831,MAFE4ImagesEEG,001,100209,
AFNE01.JPG,AFNE01.JPG,AFNE01.JPG,AFNE01.JPG,AFNE01.JPG,AFNE01.JPG,1,1,11,4,,,,,,,,,,,,,,,,,,,,,,,AMSA13.jpg,AMNE15.jpg,AMNE07.jpg,AMSA11.jpg,AMNE15.jpg,MN,1,num_6,32,num_8,0.702307689935,,,2017_Apr_12_1104,60.1123469831,MAFE4ImagesEEG,001,100209,
AFNE01.JPG,AFNE01.JPG,AFNE01.JPG,AFNE01.JPG,AFNE01.JPG,AFNE01.JPG,1,2,12,1,,,,,,,,,,,,,,,,,,,,,,,AMSA16.jpg,AMSA18.jpg,AMNE05.jpg,AMNE03.jpg,AMSA18.jpg,MS,2,num_6,16,num_6,0.517032079864,,,2017_Apr_12_1104,60.1123469831,MAFE4ImagesEEG,001,100209,
AFNE01.JPG,AFNE01.JPG,AFNE01.JPG,AFNE01.JPG,AFNE01.JPG,AFNE01.JPG,1,3,13,3,,,,,,,,,,,,,,,,,,,,,,,AMNE14.jpg,AMSA19.jpg,AMSA07.jpg,AMNE02.jpg,AMSA19.jpg,MS,2,num_6,32,num_2,0.834759074729,,,2017_Apr_12_1104,60.1123469831,MAFE4ImagesEEG,001,100209,
AFNE01.JPG,AFNE01.JPG,AFNE01.JPG,AFNE01.JPG,AFNE01.JPG,AFNE01.JPG,1,4,14,6,,,,,,,,,,,,,,,,,,,,,,,AMSA16.jpg,AMSA14.jpg,AMNE10.jpg,AMNE05.jpg,AMSA14.jpg,MS,2,num_6,32,num_8,0.582715081051,,,2017_Apr_12_1104,60.1123469831,MAFE4ImagesEEG,001,100209,
AFNE01.JPG,AFNE01.JPG,AFNE01.JPG,AFNE01.JPG,AFNE01.JPG,AFNE01.JPG,1,5,15,5,,,,,,,,,,,,,,,,,,,,,,,AMSA13.jpg,AMNE04.jpg,AMSA05.jpg,AMNE15.jpg,AMSA13.jpg,MS,2,num_8,16,num_8,0.699481010903,,,2017_Apr_12_1104,60.1123469831,MAFE4ImagesEEG,001,100209,
AFNE01.JPG,AFNE01.JPG,AFNE01.JPG,AFNE01.JPG,AFNE01.JPG,AFNE01.JPG,1,6,16,2,,,,,,,,,,,,,,,,,,,,,,,AMSA07.jpg,AMNE18.jpg,AMSA13.jpg,AMNE03.jpg,AMNE18.jpg,MN,1,num_6,32,num_4,0.968696446624,,,2017_Apr_12_1104,60.1123469831,MAFE4ImagesEEG,001,100209,
AFNE01.JPG,AFNE01.JPG,AFNE01.JPG,AFNE01.JPG,AFNE01.JPG,AFNE01.JPG,1,7,17,0,,,,,,,,,,,,,,,,,,,,,,,AMSA13.jpg,AMNE16.jpg,AMNE10.jpg,AMSA07.jpg,AMNE16.jpg,MN,1,num_6,16,num_6,1.16876360914,,,2017_Apr_12_1104,60.1123469831,MAFE4ImagesEEG,001,100209,
AFNE01.JPG,AFNE01.JPG,AFNE01.JPG,AFNE01.JPG,AFNE01.JPG,AFNE01.JPG,1,8,18,9,,,,,,,,,,,,,,,,,,,,,,,AMSA16.jpg,AMSA06.jpg,AMNE05.jpg,AMNE08.jpg,AMNE05.jpg,MN,1,num_2,32,num_4,1.03356188163,,,2017_Apr_12_1104,60.1123469831,MAFE4ImagesEEG,001,100209,
AFNE01.JPG,AFNE01.JPG,AFNE01.JPG,AFNE01.JPG,AFNE01.JPG,AFNE01.JPG,1,9,19,8,,,,,,,,,,,,,,,,,,,,,,,AMNE07.jpg,AMNE20.jpg,AMSA09.jpg,AMSA01.jpg,AMNE07.jpg,MN,1,num_8,16,num_8,0.733887079637,,,2017_Apr_12_1104,60.1123469831,MAFE4ImagesEEG,001,100209,
AFNE01.JPG,AFNE01.JPG,AFNE01.JPG,AFNE01.JPG,AFNE01.JPG,AFNE01.JPG,2,0,20,5,,,,,,,,,,,,,,,,,,,,,,,AMNE14.jpg,AMNE03.jpg,AMSA14.jpg,AMSA10.jpg,AMNE14.jpg,MN,1,num_8,32,num_6,0.898816887755,,,2017_Apr_12_1104,60.1123469831,MAFE4ImagesEEG,001,100209,
AFNE01.JPG,AFNE01.JPG,AFNE01.JPG,AFNE01.JPG,AFNE01.JPG,AFNE01.JPG,2,1,21,1,,,,,,,,,,,,,,,,,,,,,,,AMSA18.jpg,AMSA11.jpg,AMNE08.jpg,AMNE01.jpg,AMNE01.jpg,MN,1,num_4,32,num_8,1.00013984228,,,2017_Apr_12_1104,60.1123469831,MAFE4ImagesEEG,001,100209,
AFNE01.JPG,AFNE01.JPG,AFNE01.JPG,AFNE01.JPG,AFNE01.JPG,AFNE01.JPG,2,2,22,3,,,,,,,,,,,,,,,,,,,,,,,AMNE07.jpg,AMSA06.jpg,AMSA03.jpg,AMNE01.jpg,AMNE07.jpg,MN,1,num_8,32,num_6,0.867916824762,,,2017_Apr_12_1104,60.1123469831,MAFE4ImagesEEG,001,100209,
AFNE01.JPG,AFNE01.JPG,AFNE01.JPG,AFNE01.JPG,AFNE01.JPG,AFNE01.JPG,2,3,23,0,,,,,,,,,,,,,,,,,,,,,,,AMSA17.jpg,AMNE07.jpg,AMNE05.jpg,AMSA01.jpg,AMSA17.jpg,MS,2,num_8,32,num_4,0.766815821175,,,2017_Apr_12_1104,60.1123469831,MAFE4ImagesEEG,001,100209,
AFNE01.JPG,AFNE01.JPG,AFNE01.JPG,AFNE01.JPG,AFNE01.JPG,AFNE01.JPG,2,4,24,9,,,,,,,,,,,,,,,,,,,,,,,AMNE07.jpg,AMSA12.jpg,AMNE19.jpg,AMSA14.jpg,AMSA14.jpg,MS,2,num_4,16,num_4,0.748199768364,,,2017_Apr_12_1104,60.1123469831,MAFE4ImagesEEG,001,100209,
AFNE01.JPG,AFNE01.JPG,AFNE01.JPG,AFNE01.JPG,AFNE01.JPG,AFNE01.JPG,2,5,25,4,,,,,,,,,,,,,,,,,,,,,,,AMSA13.jpg,AMNE17.jpg,AMSA12.jpg,AMNE12.jpg,AMSA13.jpg,MS,2,num_8,32,num_2,1.28406568384,,,2017_Apr_12_1104,60.1123469831,MAFE4ImagesEEG,001,100209,
AFNE01.JPG,AFNE01.JPG,AFNE01.JPG,AFNE01.JPG,AFNE01.JPG,AFNE01.JPG,2,6,26,7,,,,,,,,,,,,,,,,,,,,,,,AMNE18.jpg,AMSA07.jpg,AMNE03.jpg,AMSA01.jpg,AMNE18.jpg,MN,1,num_8,16,num_8,0.599885880947,,,2017_Apr_12_1104,60.1123469831,MAFE4ImagesEEG,001,100209,
AFNE01.JPG,AFNE01.JPG,AFNE01.JPG,AFNE01.JPG,AFNE01.JPG,AFNE01.JPG,2,7,27,2,,,,,,,,,,,,,,,,,,,,,,,AMSA06.jpg,AMNE05.jpg,AMSA10.jpg,AMNE01.jpg,AMNE01.jpg,MN,1,num_4,32,num_2,0.814852685668,,,2017_Apr_12_1104,60.1123469831,MAFE4ImagesEEG,001,100209,
AFNE01.JPG,AFNE01.JPG,AFNE01.JPG,AFNE01.JPG,AFNE01.JPG,AFNE01.JPG,2,8,28,8,,,,,,,,,,,,,,,,,,,,,,,AMSA12.jpg,AMSA17.jpg,AMNE08.jpg,AMNE04.jpg,AMSA12.jpg,MS,2,num_8,16,num_8,0.648276841734,,,2017_Apr_12_1104,60.1123469831,MAFE4ImagesEEG,001,100209,
AFNE01.JPG,AFNE01.JPG,AFNE01.JPG,AFNE01.JPG,AFNE01.JPG,AFNE01.JPG,2,9,29,6,,,,,,,,,,,,,,,,,,,,,,,AMSA17.jpg,AMSA12.jpg,AMNE20.jpg,AMNE01.jpg,AMSA17.jpg,MS,2,num_8,32,num_2,0.967727812473,,,2017_Apr_12_1104,60.1123469831,MAFE4ImagesEEG,001,100209,
AFNE01.JPG,AFNE01.JPG,AFNE01.JPG,AFNE01.JPG,AFNE01.JPG,AFNE01.JPG,3,0,30,7,,,,,,,,,,,,,,,,,,,,,,,AMNE13.jpg,AMNE18.jpg,AMSA19.jpg,AMSA20.jpg,AMNE18.jpg,MN,1,num_6,32,num_8,0.802153638564,,,2017_Apr_12_1104,60.1123469831,MAFE4ImagesEEG,001,100209,
AFNE01.JPG,AFNE01.JPG,AFNE01.JPG,AFNE01.JPG,AFNE01.JPG,AFNE01.JPG,3,1,31,9,,,,,,,,,,,,,,,,,,,,,,,AMSA17.jpg,AMSA18.jpg,AMNE06.jpg,AMNE15.jpg,AMSA17.jpg,MS,2,num_8,32,num_2,0.9503004211,,,2017_Apr_12_1104,60.1123469831,MAFE4ImagesEEG,001,100209,
AFNE01.JPG,AFNE01.JPG,AFNE01.JPG,AFNE01.JPG,AFNE01.JPG,AFNE01.JPG,3,2,32,8,,,,,,,,,,,,,,,,,,,,,,,AMNE16.jpg,AMNE09.jpg,AMSA19.jpg,AMSA01.jpg,AMSA19.jpg,MS,2,num_2,32,num_6,0.781957942527,,,2017_Apr_12_1104,60.1123469831,MAFE4ImagesEEG,001,100209,
AFNE01.JPG,AFNE01.JPG,AFNE01.JPG,AFNE01.JPG,AFNE01.JPG,AFNE01.JPG,3,3,33,5,,,,,,,,,,,,,,,,,,,,,,,AMSA10.jpg,AMNE16.jpg,AMSA15.jpg,AMNE20.jpg,AMSA10.jpg,MS,2,num_8,32,num_2,0.566878558137,,,2017_Apr_12_1104,60.1123469831,MAFE4ImagesEEG,001,100209,
AFNE01.JPG,AFNE01.JPG,AFNE01.JPG,AFNE01.JPG,AFNE01.JPG,AFNE01.JPG,3,4,34,6,,,,,,,,,,,,,,,,,,,,,,,AMSA05.jpg,AMNE16.jpg,AMNE01.jpg,AMSA11.jpg,AMSA11.jpg,MS,2,num_4,16,num_4,0.802088849247,,,2017_Apr_12_1104,60.1123469831,MAFE4ImagesEEG,001,100209,
AFNE01.JPG,AFNE01.JPG,AFNE01.JPG,AFNE01.JPG,AFNE01.JPG,AFNE01.JPG,3,5,35,4,,,,,,,,,,,,,,,,,,,,,,,AMNE05.jpg,AMNE19.jpg,AMSA08.jpg,AMSA15.jpg,AMNE19.jpg,MN,1,num_6,16,num_6,0.549550916534,,,2017_Apr_12_1104,60.1123469831,MAFE4ImagesEEG,001,100209,
AFNE01.JPG,AFNE01.JPG,AFNE01.JPG,AFNE01.JPG,AFNE01.JPG,AFNE01.JPG,3,6,36,1,,,,,,,,,,,,,,,,,,,,,,,AMSA19.jpg,AMNE10.jpg,AMNE14.jpg,AMSA11.jpg,AMSA19.jpg,MS,2,num_8,16,num_8,0.583337957505,,,2017_Apr_12_1104,60.1123469831,MAFE4ImagesEEG,001,100209,
AFNE01.JPG,AFNE01.JPG,AFNE01.JPG,AFNE01.JPG,AFNE01.JPG,AFNE01.JPG,3,7,37,0,,,,,,,,,,,,,,,,,,,,,,,AMNE12.jpg,AMSA16.jpg,AMSA09.jpg,AMNE13.jpg,AMNE13.jpg,MN,1,num_4,16,num_4,1.00203573471,,,2017_Apr_12_1104,60.1123469831,MAFE4ImagesEEG,001,100209,
AFNE01.JPG,AFNE01.JPG,AFNE01.JPG,AFNE01.JPG,AFNE01.JPG,AFNE01.JPG,3,8,38,2,,,,,,,,,,,,,,,,,,,,,,,AMNE05.jpg,AMNE07.jpg,AMSA10.jpg,AMSA02.jpg,AMNE07.jpg,MN,1,num_6,16,num_6,0.633412802126,,,2017_Apr_12_1104,60.1123469831,MAFE4ImagesEEG,001,100209,
AFNE01.JPG,AFNE01.JPG,AFNE01.JPG,AFNE01.JPG,AFNE01.JPG,AFNE01.JPG,3,9,39,3,,,,,,,,,,,,,,,,,,,,,,,AMNE06.jpg,AMNE10.jpg,AMSA09.jpg,AMSA18.jpg,AMSA09.jpg,MS,2,num_2,32,num_8,0.715652065352,,,2017_Apr_12_1104,60.1123469831,MAFE4ImagesEEG,001,100209,
AFNE01.JPG,AFNE01.JPG,AFNE01.JPG,AFNE01.JPG,AFNE01.JPG,AFNE01.JPG,4,0,40,1,,,,,,,,,,,,,,,,,,,,,,,AMNE05.jpg,AMNE06.jpg,AMSA06.jpg,AMSA15.jpg,AMSA15.jpg,MS,2,num_4,16,num_4,0.431571307126,,,2017_Apr_12_1104,60.1123469831,MAFE4ImagesEEG,001,100209,
AFNE01.JPG,AFNE01.JPG,AFNE01.JPG,AFNE01.JPG,AFNE01.JPG,AFNE01.JPG,4,1,41,5,,,,,,,,,,,,,,,,,,,,,,,AMSA07.jpg,AMSA11.jpg,AMNE01.jpg,AMNE20.jpg,AMSA07.jpg,MS,2,num_8,16,num_8,0.766830575652,,,2017_Apr_12_1104,60.1123469831,MAFE4ImagesEEG,001,100209,
AFNE01.JPG,AFNE01.JPG,AFNE01.JPG,AFNE01.JPG,AFNE01.JPG,AFNE01.JPG,4,2,42,8,,,,,,,,,,,,,,,,,,,,,,,AMNE16.jpg,AMSA10.jpg,AMSA09.jpg,AMNE11.jpg,AMNE16.jpg,MN,1,num_8,32,num_2,0.833771517035,,,2017_Apr_12_1104,60.1123469831,MAFE4ImagesEEG,001,100209,
AFNE01.JPG,AFNE01.JPG,AFNE01.JPG,AFNE01.JPG,AFNE01.JPG,AFNE01.JPG,4,3,43,6,,,,,,,,,,,,,,,,,,,,,,,AMSA16.jpg,AMNE11.jpg,AMNE03.jpg,AMSA05.jpg,AMSA16.jpg,MS,2,num_8,16,num_8,0.8154576011,,,2017_Apr_12_1104,60.1123469831,MAFE4ImagesEEG,001,100209,
AFNE01.JPG,AFNE01.JPG,AFNE01.JPG,AFNE01.JPG,AFNE01.JPG,AFNE01.JPG,4,4,44,4,,,,,,,,,,,,,,,,,,,,,,,AMNE14.jpg,AMNE09.jpg,AMSA03.jpg,AMSA04.jpg,AMNE09.jpg,MN,1,num_6,16,num_6,0.650283389725,,,2017_Apr_12_1104,60.1123469831,MAFE4ImagesEEG,001,100209,
AFNE01.JPG,AFNE01.JPG,AFNE01.JPG,AFNE01.JPG,AFNE01.JPG,AFNE01.JPG,4,5,45,0,,,,,,,,,,,,,,,,,,,,,,,AMNE07.jpg,AMNE02.jpg,AMSA12.jpg,AMSA07.jpg,AMNE07.jpg,MN,1,num_8,32,num_4,1.16690299846,,,2017_Apr_12_1104,60.1123469831,MAFE4ImagesEEG,001,100209,
AFNE01.JPG,AFNE01.JPG,AFNE01.JPG,AFNE01.JPG,AFNE01.JPG,AFNE01.JPG,4,6,46,9,,,,,,,,,,,,,,,,,,,,,,,AMNE06.jpg,AMNE05.jpg,AMSA18.jpg,AMSA20.jpg,AMSA20.jpg,MS,2,num_4,32,num_2,0.448474289384,,,2017_Apr_12_1104,60.1123469831,MAFE4ImagesEEG,001,100209,
AFNE01.JPG,AFNE01.JPG,AFNE01.JPG,AFNE01.JPG,AFNE01.JPG,AFNE01.JPG,4,7,47,2,,,,,,,,,,,,,,,,,,,,,,,AMNE15.jpg,AMNE18.jpg,AMSA16.jpg,AMSA05.jpg,AMSA05.jpg,MS,2,num_4,32,num_8,0.818169455044,,,2017_Apr_12_1104,60.1123469831,MAFE4ImagesEEG,001,100209,
AFNE01.JPG,AFNE01.JPG,AFNE01.JPG,AFNE01.JPG,AFNE01.JPG,AFNE01.JPG,4,8,48,3,,,,,,,,,,,,,,,,,,,,,,,AMNE10.jpg,AMNE08.jpg,AMSA19.jpg,AMSA07.jpg,AMSA19.jpg,MS,2,num_2,32,num_6,0.651125010569,,,2017_Apr_12_1104,60.1123469831,MAFE4ImagesEEG,001,100209,
AFNE01.JPG,AFNE01.JPG,AFNE01.JPG,AFNE01.JPG,AFNE01.JPG,AFNE01.JPG,4,9,49,7,,,,,,,,,,,,,,,,,,,,,,,AMSA15.jpg,AMSA19.jpg,AMNE08.jpg,AMNE02.jpg,AMSA19.jpg,MS,2,num_6,16,num_6,0.750100792386,,,2017_Apr_12_1104,60.1123469831,MAFE4ImagesEEG,001,100209,
AFNE01.JPG,AFNE01.JPG,AFNE01.JPG,AFNE01.JPG,AFNE01.JPG,AFNE01.JPG,5,0,50,8,,,,,,,,,,,,,,,,,,,,,,,AMNE17.jpg,AMSA17.jpg,AMNE13.jpg,AMSA01.jpg,AMNE17.jpg,MN,1,num_8,32,num_2,0.699433541857,,,2017_Apr_12_1104,60.1123469831,MAFE4ImagesEEG,001,100209,
AFNE01.JPG,AFNE01.JPG,AFNE01.JPG,AFNE01.JPG,AFNE01.JPG,AFNE01.JPG,5,1,51,0,,,,,,,,,,,,,,,,,,,,,,,AMSA18.jpg,AMSA12.jpg,AMNE09.jpg,AMNE14.jpg,AMNE09.jpg,MN,1,num_2,16,num_2,0.734766548034,,,2017_Apr_12_1104,60.1123469831,MAFE4ImagesEEG,001,100209,
AFNE01.JPG,AFNE01.JPG,AFNE01.JPG,AFNE01.JPG,AFNE01.JPG,AFNE01.JPG,5,2,52,7,,,,,,,,,,,,,,,,,,,,,,,AMNE13.jpg,AMSA12.jpg,AMNE02.jpg,AMSA09.jpg,AMNE02.jpg,MN,1,num_2,16,num_2,0.665980390739,,,2017_Apr_12_1104,60.1123469831,MAFE4ImagesEEG,001,100209,
AFNE01.JPG,AFNE01.JPG,AFNE01.JPG,AFNE01.JPG,AFNE01.JPG,AFNE01.JPG,5,3,53,9,,,,,,,,,,,,,,,,,,,,,,,AMNE06.jpg,AMSA14.jpg,AMNE16.jpg,AMSA17.jpg,AMSA17.jpg,MS,2,num_4,16,num_4,1.28371030418,,,2017_Apr_12_1104,60.1123469831,MAFE4ImagesEEG,001,100209,
AFNE01.JPG,AFNE01.JPG,AFNE01.JPG,AFNE01.JPG,AFNE01.JPG,AFNE01.JPG,5,4,54,2,,,,,,,,,,,,,,,,,,,,,,,AMNE18.jpg,AMSA05.jpg,AMNE15.jpg,AMSA01.jpg,AMNE18.jpg,MN,1,num_8,16,num_8,0.90049531823,,,2017_Apr_12_1104,60.1123469831,MAFE4ImagesEEG,001,100209,
AFNE01.JPG,AFNE01.JPG,AFNE01.JPG,AFNE01.JPG,AFNE01.JPG,AFNE01.JPG,5,5,55,3,,,,,,,,,,,,,,,,,,,,,,,AMNE11.jpg,AMSA16.jpg,AMNE03.jpg,AMSA08.jpg,AMNE11.jpg,MN,1,num_8,16,num_8,0.616845955141,,,2017_Apr_12_1104,60.1123469831,MAFE4ImagesEEG,001,100209,
AFNE01.JPG,AFNE01.JPG,AFNE01.JPG,AFNE01.JPG,AFNE01.JPG,AFNE01.JPG,5,6,56,1,,,,,,,,,,,,,,,,,,,,,,,AMSA15.jpg,AMNE02.jpg,AMSA06.jpg,AMNE20.jpg,AMSA06.jpg,MS,2,num_2,16,num_2,1.2019822998,,,2017_Apr_12_1104,60.1123469831,MAFE4ImagesEEG,001,100209,
AFNE01.JPG,AFNE01.JPG,AFNE01.JPG,AFNE01.JPG,AFNE01.JPG,AFNE01.JPG,5,7,57,4,,,,,,,,,,,,,,,,,,,,,,,AMNE16.jpg,AMSA19.jpg,AMSA12.jpg,AMNE18.jpg,AMNE16.jpg,MN,1,num_8,32,num_4,0.749978269916,,,2017_Apr_12_1104,60.1123469831,MAFE4ImagesEEG,001,100209,
AFNE01.JPG,AFNE01.JPG,AFNE01.JPG,AFNE01.JPG,AFNE01.JPG,AFNE01.JPG,5,8,58,5,,,,,,,,,,,,,,,,,,,,,,,AMSA05.jpg,AMNE12.jpg,AMNE03.jpg,AMSA16.jpg,AMSA05.jpg,MS,2,num_8,32,num_6,0.550175717566,,,2017_Apr_12_1104,60.1123469831,MAFE4ImagesEEG,001,100209,
AFNE01.JPG,AFNE01.JPG,AFNE01.JPG,AFNE01.JPG,AFNE01.JPG,AFNE01.JPG,5,9,59,6,,,,,,,,,,,,,,,,,,,,,,,AMSA14.jpg,AMNE09.jpg,AMSA18.jpg,AMNE20.jpg,AMNE20.jpg,MN,1,num_4,16,num_4,0.664727260359,,,2017_Apr_12_1104,60.1123469831,MAFE4ImagesEEG,001,100209,
,,,,,,,,,,,,,,,,,,,,,,,,,,,,,,,,,,,,,,,,,,,space,8.21631230833,2017_Apr_12_1104,60.1123469831,MAFE4ImagesEEG,001,100209,
AFNE01.JPG,AFNE01.JPG,AFNE01.JPG,AFNE01.JPG,AFNE01.JPG,AFNE01.JPG,,,,,0,0,0,3,,,,,,,,,,,,,,,,,,,AFNE15.jpg,AFSA03.jpg,AFNE05.jpg,AFSA06.jpg,AFSA06.jpg,FS,4,num_4,32,num_8,0.964964960702,,,2017_Apr_12_1104,60.1123469831,MAFE4ImagesEEG,001,100209,
AFNE01.JPG,AFNE01.JPG,AFNE01.JPG,AFNE01.JPG,AFNE01.JPG,AFNE01.JPG,,,,,0,1,1,5,,,,,,,,,,,,,,,,,,,AFNE03.jpg,AFSA04.jpg,AFNE16.jpg,AFSA08.jpg,AFSA08.jpg,FS,4,num_4,32,num_2,0.466863579582,,,2017_Apr_12_1104,60.1123469831,MAFE4ImagesEEG,001,100209,
AFNE01.JPG,AFNE01.JPG,AFNE01.JPG,AFNE01.JPG,AFNE01.JPG,AFNE01.JPG,,,,,0,2,2,8,,,,,,,,,,,,,,,,,,,AFSA02.jpg,AFNE05.jpg,AFNE08.jpg,AFSA09.jpg,AFNE05.jpg,FN,3,num_6,16,num_6,0.865722323768,,,2017_Apr_12_1104,60.1123469831,MAFE4ImagesEEG,001,100209,
AFNE01.JPG,AFNE01.JPG,AFNE01.JPG,AFNE01.JPG,AFNE01.JPG,AFNE01.JPG,,,,,0,3,3,6,,,,,,,,,,,,,,,,,,,AFNE19.jpg,AFSA06.jpg,AFNE02.jpg,AFSA04.jpg,AFSA04.jpg,FS,4,num_4,16,num_4,0.466849787626,,,2017_Apr_12_1104,60.1123469831,MAFE4ImagesEEG,001,100209,
AFNE01.JPG,AFNE01.JPG,AFNE01.JPG,AFNE01.JPG,AFNE01.JPG,AFNE01.JPG,,,,,0,4,4,9,,,,,,,,,,,,,,,,,,,AFSA08.jpg,AFNE11.jpg,AFSA01.jpg,AFNE07.jpg,AFSA08.jpg,FS,4,num_8,16,num_8,0.548932850827,,,2017_Apr_12_1104,60.1123469831,MAFE4ImagesEEG,001,100209,
AFNE01.JPG,AFNE01.JPG,AFNE01.JPG,AFNE01.JPG,AFNE01.JPG,AFNE01.JPG,,,,,0,5,5,0,,,,,,,,,,,,,,,,,,,AFNE04.jpg,AFSA19.jpg,AFNE11.jpg,AFSA12.jpg,AFSA19.jpg,FS,4,num_6,32,num_2,0.418352661654,,,2017_Apr_12_1104,60.1123469831,MAFE4ImagesEEG,001,100209,
AFNE01.JPG,AFNE01.JPG,AFNE01.JPG,AFNE01.JPG,AFNE01.JPG,AFNE01.JPG,,,,,0,6,6,4,,,,,,,,,,,,,,,,,,,AFNE03.jpg,AFNE02.jpg,AFSA04.jpg,AFSA01.jpg,AFNE02.jpg,FN,3,num_6,16,num_6,0.685564115644,,,2017_Apr_12_1104,60.1123469831,MAFE4ImagesEEG,001,100209,
AFNE01.JPG,AFNE01.JPG,AFNE01.JPG,AFNE01.JPG,AFNE01.JPG,AFNE01.JPG,,,,,0,7,7,2,,,,,,,,,,,,,,,,,,,AFSA12.jpg,AFSA19.jpg,AFNE16.jpg,AFNE06.jpg,AFNE16.jpg,FN,3,num_2,32,num_4,0.683590924833,,,2017_Apr_12_1104,60.1123469831,MAFE4ImagesEEG,001,100209,
AFNE01.JPG,AFNE01.JPG,AFNE01.JPG,AFNE01.JPG,AFNE01.JPG,AFNE01.JPG,,,,,0,8,8,1,,,,,,,,,,,,,,,,,,,AFSA13.jpg,AFNE06.jpg,AFNE15.jpg,AFSA09.jpg,AFSA13.jpg,FS,4,num_8,16,num_8,0.533873480279,,,2017_Apr_12_1104,60.1123469831,MAFE4ImagesEEG,001,100209,
AFNE01.JPG,AFNE01.JPG,AFNE01.JPG,AFNE01.JPG,AFNE01.JPG,AFNE01.JPG,,,,,0,9,9,7,,,,,,,,,,,,,,,,,,,AFSA06.jpg,AFNE14.jpg,AFSA09.jpg,AFNE13.jpg,AFNE13.jpg,FN,3,num_4,16,num_4,0.58414686285,,,2017_Apr_12_1104,60.1123469831,MAFE4ImagesEEG,001,100209,
AFNE01.JPG,AFNE01.JPG,AFNE01.JPG,AFNE01.JPG,AFNE01.JPG,AFNE01.JPG,,,,,1,0,10,6,,,,,,,,,,,,,,,,,,,AFNE17.jpg,AFSA06.jpg,AFNE14.jpg,AFSA10.jpg,AFNE17.jpg,FN,3,num_8,32,num_6,0.881528696977,,,2017_Apr_12_1104,60.1123469831,MAFE4ImagesEEG,001,100209,
AFNE01.JPG,AFNE01.JPG,AFNE01.JPG,AFNE01.JPG,AFNE01.JPG,AFNE01.JPG,,,,,1,1,11,5,,,,,,,,,,,,,,,,,,,AFSA12.jpg,AFNE17.jpg,AFNE13.jpg,AFSA17.jpg,AFSA12.jpg,FS,4,num_8,16,num_8,1.23241761094,,,2017_Apr_12_1104,60.1123469831,MAFE4ImagesEEG,001,100209,
AFNE01.JPG,AFNE01.JPG,AFNE01.JPG,AFNE01.JPG,AFNE01.JPG,AFNE01.JPG,,,,,1,2,12,2,,,,,,,,,,,,,,,,,,,AFSA09.jpg,AFNE07.jpg,AFSA17.jpg,AFNE09.jpg,AFSA17.jpg,FS,4,num_2,16,num_2,0.449895486701,,,2017_Apr_12_1104,60.1123469831,MAFE4ImagesEEG,001,100209,
AFNE01.JPG,AFNE01.JPG,AFNE01.JPG,AFNE01.JPG,AFNE01.JPG,AFNE01.JPG,,,,,1,3,13,4,,,,,,,,,,,,,,,,,,,AFNE02.jpg,AFNE07.jpg,AFSA07.jpg,AFSA13.jpg,AFNE02.jpg,FN,3,num_8,16,num_8,0.385456635617,,,2017_Apr_12_1104,60.1123469831,MAFE4ImagesEEG,001,100209,
AFNE01.JPG,AFNE01.JPG,AFNE01.JPG,AFNE01.JPG,AFNE01.JPG,AFNE01.JPG,,,,,1,4,14,1,,,,,,,,,,,,,,,,,,,AFSA06.jpg,AFNE16.jpg,AFSA03.jpg,AFNE02.jpg,AFNE16.jpg,FN,3,num_6,16,num_6,0.733504116535,,,2017_Apr_12_1104,60.1123469831,MAFE4ImagesEEG,001,100209,
AFNE01.JPG,AFNE01.JPG,AFNE01.JPG,AFNE01.JPG,AFNE01.JPG,AFNE01.JPG,,,,,1,5,15,3,,,,,,,,,,,,,,,,,,,AFNE06.jpg,AFNE18.jpg,AFSA09.jpg,AFSA13.jpg,AFSA13.jpg,FS,4,num_4,16,num_4,0.850079527125,,,2017_Apr_12_1104,60.1123469831,MAFE4ImagesEEG,001,100209,
AFNE01.JPG,AFNE01.JPG,AFNE01.JPG,AFNE01.JPG,AFNE01.JPG,AFNE01.JPG,,,,,1,6,16,7,,,,,,,,,,,,,,,,,,,AFSA05.jpg,AFNE16.jpg,AFSA16.jpg,AFNE02.jpg,AFNE16.jpg,FN,3,num_6,32,num_2,1.38379937317,,,2017_Apr_12_1104,60.1123469831,MAFE4ImagesEEG,001,100209,
AFNE01.JPG,AFNE01.JPG,AFNE01.JPG,AFNE01.JPG,AFNE01.JPG,AFNE01.JPG,,,,,1,7,17,8,,,,,,,,,,,,,,,,,,,AFSA20.jpg,AFNE06.jpg,AFSA09.jpg,AFNE08.jpg,AFNE08.jpg,FN,3,num_4,32,num_8,1.01681028865,,,2017_Apr_12_1104,60.1123469831,MAFE4ImagesEEG,001,100209,
AFNE01.JPG,AFNE01.JPG,AFNE01.JPG,AFNE01.JPG,AFNE01.JPG,AFNE01.JPG,,,,,1,8,18,0,,,,,,,,,,,,,,,,,,,AFSA16.jpg,AFNE06.jpg,AFNE07.jpg,AFSA20.jpg,AFSA20.jpg,FS,4,num_4,32,num_2,1.05013129488,,,2017_Apr_12_1104,60.1123469831,MAFE4ImagesEEG,001,100209,
AFNE01.JPG,AFNE01.JPG,AFNE01.JPG,AFNE01.JPG,AFNE01.JPG,AFNE01.JPG,,,,,1,9,19,9,,,,,,,,,,,,,,,,,,,AFSA16.jpg,AFSA18.jpg,AFNE06.jpg,AFNE05.jpg,AFSA16.jpg,FS,4,num_8,32,num_4,0.568456276786,,,2017_Apr_12_1104,60.1123469831,MAFE4ImagesEEG,001,100209,
AFNE01.JPG,AFNE01.JPG,AFNE01.JPG,AFNE01.JPG,AFNE01.JPG,AFNE01.JPG,,,,,2,0,20,4,,,,,,,,,,,,,,,,,,,AFNE20.jpg,AFNE07.jpg,AFSA16.jpg,AFSA01.jpg,AFNE20.jpg,FN,3,num_8,32,num_6,0.284272240009,,,2017_Apr_12_1104,60.1123469831,MAFE4ImagesEEG,001,100209,
AFNE01.JPG,AFNE01.JPG,AFNE01.JPG,AFNE01.JPG,AFNE01.JPG,AFNE01.JPG,,,,,2,1,21,3,,,,,,,,,,,,,,,,,,,AFSA05.jpg,AFNE02.jpg,AFSA18.jpg,AFNE16.jpg,AFSA18.jpg,FS,4,num_2,32,num_8,0.38421858009,,,2017_Apr_12_1104,60.1123469831,MAFE4ImagesEEG,001,100209,
AFNE01.JPG,AFNE01.JPG,AFNE01.JPG,AFNE01.JPG,AFNE01.JPG,AFNE01.JPG,,,,,2,2,22,1,,,,,,,,,,,,,,,,,,,AFSA19.jpg,AFNE02.jpg,AFSA17.jpg,AFNE15.jpg,AFSA17.jpg,FS,4,num_2,16,num_2,0.399268328212,,,2017_Apr_12_1104,60.1123469831,MAFE4ImagesEEG,001,100209,
AFNE01.JPG,AFNE01.JPG,AFNE01.JPG,AFNE01.JPG,AFNE01.JPG,AFNE01.JPG,,,,,2,3,23,5,,,,,,,,,,,,,,,,,,,AFSA03.jpg,AFSA16.jpg,AFNE04.jpg,AFNE17.jpg,AFNE04.jpg,FN,3,num_2,16,num_2,0.784035373945,,,2017_Apr_12_1104,60.1123469831,MAFE4ImagesEEG,001,100209,
AFNE01.JPG,AFNE01.JPG,AFNE01.JPG,AFNE01.JPG,AFNE01.JPG,AFNE01.JPG,,,,,2,4,24,8,,,,,,,,,,,,,,,,,,,AFNE17.jpg,AFSA15.jpg,AFSA14.jpg,AFNE02.jpg,AFNE17.jpg,FN,3,num_8,32,num_4,0.400205530226,,,2017_Apr_12_1104,60.1123469831,MAFE4ImagesEEG,001,100209,
AFNE01.JPG,AFNE01.JPG,AFNE01.JPG,AFNE01.JPG,AFNE01.JPG,AFNE01.JPG,,,,,2,5,25,7,,,,,,,,,,,,,,,,,,,AFNE16.jpg,AFSA09.jpg,AFNE06.jpg,AFSA07.jpg,AFSA07.jpg,FS,4,num_4,32,num_6,0.235470731743,,,2017_Apr_12_1104,60.1123469831,MAFE4ImagesEEG,001,100209,
AFNE01.JPG,AFNE01.JPG,AFNE01.JPG,AFNE01.JPG,AFNE01.JPG,AFNE01.JPG,,,,,2,6,26,0,,,,,,,,,,,,,,,,,,,AFSA01.jpg,AFNE01.jpg,AFSA16.jpg,AFNE10.jpg,AFNE10.jpg,FN,3,num_4,32,num_8,0.533543439582,,,2017_Apr_12_1104,60.1123469831,MAFE4ImagesEEG,001,100209,
AFNE01.JPG,AFNE01.JPG,AFNE01.JPG,AFNE01.JPG,AFNE01.JPG,AFNE01.JPG,,,,,2,7,27,9,,,,,,,,,,,,,,,,,,,AFSA09.jpg,AFNE09.jpg,AFSA04.jpg,AFNE18.jpg,AFSA09.jpg,FS,4,num_8,32,num_2,0.221029747743,,,2017_Apr_12_1104,60.1123469831,MAFE4ImagesEEG,001,100209,
AFNE01.JPG,AFNE01.JPG,AFNE01.JPG,AFNE01.JPG,AFNE01.JPG,AFNE01.JPG,,,,,2,8,28,2,,,,,,,,,,,,,,,,,,,AFSA03.jpg,AFNE05.jpg,AFNE16.jpg,AFSA17.jpg,AFNE16.jpg,FN,3,num_2,32,num_4,0.799101479352,,,2017_Apr_12_1104,60.1123469831,MAFE4ImagesEEG,001,100209,
AFNE01.JPG,AFNE01.JPG,AFNE01.JPG,AFNE01.JPG,AFNE01.JPG,AFNE01.JPG,,,,,2,9,29,6,,,,,,,,,,,,,,,,,,,AFSA09.jpg,AFNE10.jpg,AFNE20.jpg,AFSA05.jpg,AFNE20.jpg,FN,3,num_2,32,num_6,0.250052841846,,,2017_Apr_12_1104,60.1123469831,MAFE4ImagesEEG,001,100209,
AFNE01.JPG,AFNE01.JPG,AFNE01.JPG,AFNE01.JPG,AFNE01.JPG,AFNE01.JPG,,,,,3,0,30,6,,,,,,,,,,,,,,,,,,,AFNE08.jpg,AFSA06.jpg,AFSA08.jpg,AFNE20.jpg,AFSA06.jpg,FS,4,num_6,32,num_2,0.750822136179,,,2017_Apr_12_1104,60.1123469831,MAFE4ImagesEEG,001,100209,
AFNE01.JPG,AFNE01.JPG,AFNE01.JPG,AFNE01.JPG,AFNE01.JPG,AFNE01.JPG,,,,,3,1,31,5,,,,,,,,,,,,,,,,,,,AFSA19.jpg,AFNE07.jpg,AFSA17.jpg,AFNE17.jpg,AFNE07.jpg,FN,3,num_6,16,num_6,0.566309886519,,,2017_Apr_12_1104,60.1123469831,MAFE4ImagesEEG,001,100209,
AFNE01.JPG,AFNE01.JPG,AFNE01.JPG,AFNE01.JPG,AFNE01.JPG,AFNE01.JPG,,,,,3,2,32,7,,,,,,,,,,,,,,,,,,,AFSA06.jpg,AFNE16.jpg,AFSA13.jpg,AFNE04.jpg,AFNE04.jpg,FN,3,num_4,32,num_8,0.833469380625,,,2017_Apr_12_1104,60.1123469831,MAFE4ImagesEEG,001,100209,
AFNE01.JPG,AFNE01.JPG,AFNE01.JPG,AFNE01.JPG,AFNE01.JPG,AFNE01.JPG,,,,,3,3,33,4,,,,,,,,,,,,,,,,,,,AFNE14.jpg,AFSA20.jpg,AFNE15.jpg,AFSA16.jpg,AFNE14.jpg,FN,3,num_8,32,num_2,0.699488067068,,,2017_Apr_12_1104,60.1123469831,MAFE4ImagesEEG,001,100209,
AFNE01.JPG,AFNE01.JPG,AFNE01.JPG,AFNE01.JPG,AFNE01.JPG,AFNE01.JPG,,,,,3,4,34,0,,,,,,,,,,,,,,,,,,,AFNE14.jpg,AFSA20.jpg,AFNE08.jpg,AFSA08.jpg,AFNE08.jpg,FN,3,num_2,32,num_4,0.284192054998,,,2017_Apr_12_1104,60.1123469831,MAFE4ImagesEEG,001,100209,
AFNE01.JPG,AFNE01.JPG,AFNE01.JPG,AFNE01.JPG,AFNE01.JPG,AFNE01.JPG,,,,,3,5,35,9,,,,,,,,,,,,,,,,,,,AFSA16.jpg,AFSA11.jpg,AFNE20.jpg,AFNE02.jpg,AFNE02.jpg,FN,3,num_4,32,num_6,1.15109117236,,,2017_Apr_12_1104,60.1123469831,MAFE4ImagesEEG,001,100209,
AFNE01.JPG,AFNE01.JPG,AFNE01.JPG,AFNE01.JPG,AFNE01.JPG,AFNE01.JPG,,,,,3,6,36,1,,,,,,,,,,,,,,,,,,,AFSA04.jpg,AFNE14.jpg,AFNE15.jpg,AFSA07.jpg,AFSA04.jpg,FS,4,num_8,32,num_4,0.483539477922,,,2017_Apr_12_1104,60.1123469831,MAFE4ImagesEEG,001,100209,
AFNE01.JPG,AFNE01.JPG,AFNE01.JPG,AFNE01.JPG,AFNE01.JPG,AFNE01.JPG,,,,,3,7,37,2,,,,,,,,,,,,,,,,,,,AFSA16.jpg,AFSA14.jpg,AFNE05.jpg,AFNE01.jpg,AFNE01.jpg,FN,3,num_4,32,num_8,0.465291313361,,,2017_Apr_12_1104,60.1123469831,MAFE4ImagesEEG,001,100209,
AFNE01.JPG,AFNE01.JPG,AFNE01.JPG,AFNE01.JPG,AFNE01.JPG,AFNE01.JPG,,,,,3,8,38,3,,,,,,,,,,,,,,,,,,,AFNE12.jpg,AFSA20.jpg,AFNE18.jpg,AFSA08.jpg,AFNE18.jpg,FN,3,num_2,16,num_2,3.04820236657,,,2017_Apr_12_1104,60.1123469831,MAFE4ImagesEEG,001,100209,
AFNE01.JPG,AFNE01.JPG,AFNE01.JPG,AFNE01.JPG,AFNE01.JPG,AFNE01.JPG,,,,,3,9,39,8,,,,,,,,,,,,,,,,,,,AFSA18.jpg,AFNE20.jpg,AFNE08.jpg,AFSA04.jpg,AFNE08.jpg,FN,3,num_2,32,num_6,0.966871437617,,,2017_Apr_12_1104,60.1123469831,MAFE4ImagesEEG,001,100209,
AFNE01.JPG,AFNE01.JPG,AFNE01.JPG,AFNE01.JPG,AFNE01.JPG,AFNE01.JPG,,,,,4,0,40,1,,,,,,,,,,,,,,,,,,,AFNE11.jpg,AFSA08.jpg,AFNE15.jpg,AFSA04.jpg,AFNE15.jpg,FN,3,num_2,32,num_8,0.700156488921,,,2017_Apr_12_1104,60.1123469831,MAFE4ImagesEEG,001,100209,
AFNE01.JPG,AFNE01.JPG,AFNE01.JPG,AFNE01.JPG,AFNE01.JPG,AFNE01.JPG,,,,,4,1,41,6,,,,,,,,,,,,,,,,,,,AFSA04.jpg,AFNE11.jpg,AFNE07.jpg,AFSA12.jpg,AFSA12.jpg,FS,4,num_4,16,num_4,1.06866459688,,,2017_Apr_12_1104,60.1123469831,MAFE4ImagesEEG,001,100209,
AFNE01.JPG,AFNE01.JPG,AFNE01.JPG,AFNE01.JPG,AFNE01.JPG,AFNE01.JPG,,,,,4,2,42,8,,,,,,,,,,,,,,,,,,,AFSA15.jpg,AFNE02.jpg,AFNE04.jpg,AFSA07.jpg,AFNE02.jpg,FN,3,num_6,16,num_6,1.11676593032,,,2017_Apr_12_1104,60.1123469831,MAFE4ImagesEEG,001,100209,
AFNE01.JPG,AFNE01.JPG,AFNE01.JPG,AFNE01.JPG,AFNE01.JPG,AFNE01.JPG,,,,,4,3,43,0,,,,,,,,,,,,,,,,,,,AFNE20.jpg,AFSA06.jpg,AFNE02.jpg,AFSA13.jpg,AFSA13.jpg,FS,4,num_4,16,num_4,0.466227873694,,,2017_Apr_12_1104,60.1123469831,MAFE4ImagesEEG,001,100209,
AFNE01.JPG,AFNE01.JPG,AFNE01.JPG,AFNE01.JPG,AFNE01.JPG,AFNE01.JPG,,,,,4,4,44,7,,,,,,,,,,,,,,,,,,,AFNE06.jpg,AFNE05.jpg,AFSA17.jpg,AFSA02.jpg,AFNE06.jpg,FN,3,num_8,32,num_2,0.617104150355,,,2017_Apr_12_1104,60.1123469831,MAFE4ImagesEEG,001,100209,
AFNE01.JPG,AFNE01.JPG,AFNE01.JPG,AFNE01.JPG,AFNE01.JPG,AFNE01.JPG,,,,,4,5,45,5,,,,,,,,,,,,,,,,,,,AFSA01.jpg,AFNE05.jpg,AFSA04.jpg,AFNE16.jpg,AFNE05.jpg,FN,3,num_6,32,num_8,0.68334684195,,,2017_Apr_12_1104,60.1123469831,MAFE4ImagesEEG,001,100209,
AFNE01.JPG,AFNE01.JPG,AFNE01.JPG,AFNE01.JPG,AFNE01.JPG,AFNE01.JPG,,,,,4,6,46,9,,,,,,,,,,,,,,,,,,,AFSA12.jpg,AFNE02.jpg,AFSA10.jpg,AFNE16.jpg,AFSA12.jpg,FS,4,num_8,32,num_4,0.850058038253,,,2017_Apr_12_1104,60.1123469831,MAFE4ImagesEEG,001,100209,
AFNE01.JPG,AFNE01.JPG,AFNE01.JPG,AFNE01.JPG,AFNE01.JPG,AFNE01.JPG,,,,,4,7,47,4,,,,,,,,,,,,,,,,,,,AFSA19.jpg,AFNE02.jpg,AFSA13.jpg,AFNE16.jpg,AFNE16.jpg,FN,3,num_4,32,num_6,0.533485064283,,,2017_Apr_12_1104,60.1123469831,MAFE4ImagesEEG,001,100209,
AFNE01.JPG,AFNE01.JPG,AFNE01.JPG,AFNE01.JPG,AFNE01.JPG,AFNE01.JPG,,,,,4,8,48,3,,,,,,,,,,,,,,,,,,,AFSA04.jpg,AFSA20.jpg,AFNE06.jpg,AFNE07.jpg,AFSA04.jpg,FS,4,num_8,32,num_4,0.801612230018,,,2017_Apr_12_1104,60.1123469831,MAFE4ImagesEEG,001,100209,
AFNE01.JPG,AFNE01.JPG,AFNE01.JPG,AFNE01.JPG,AFNE01.JPG,AFNE01.JPG,,,,,4,9,49,2,,,,,,,,,,,,,,,,,,,AFNE01.jpg,AFNE04.jpg,AFSA09.jpg,AFSA05.jpg,AFSA05.jpg,FS,4,num_4,32,num_2,0.783506473992,,,2017_Apr_12_1104,60.1123469831,MAFE4ImagesEEG,001,100209,
AFNE01.JPG,AFNE01.JPG,AFNE01.JPG,AFNE01.JPG,AFNE01.JPG,AFNE01.JPG,,,,,5,0,50,8,,,,,,,,,,,,,,,,,,,AFNE05.jpg,AFSA11.jpg,AFNE11.jpg,AFSA18.jpg,AFSA18.jpg,FS,4,num_4,32,num_6,0.700149432756,,,2017_Apr_12_1104,60.1123469831,MAFE4ImagesEEG,001,100209,
AFNE01.JPG,AFNE01.JPG,AFNE01.JPG,AFNE01.JPG,AFNE01.JPG,AFNE01.JPG,,,,,5,1,51,0,,,,,,,,,,,,,,,,,,,AFSA13.jpg,AFSA02.jpg,AFNE16.jpg,AFNE18.jpg,AFSA13.jpg,FS,4,num_8,32,num_4,0.799703187309,,,2017_Apr_12_1104,60.1123469831,MAFE4ImagesEEG,001,100209,
AFNE01.JPG,AFNE01.JPG,AFNE01.JPG,AFNE01.JPG,AFNE01.JPG,AFNE01.JPG,,,,,5,2,52,1,,,,,,,,,,,,,,,,,,,AFSA14.jpg,AFNE07.jpg,AFNE18.jpg,AFSA13.jpg,AFSA14.jpg,FS,4,num_8,32,num_2,1.41684261896,,,2017_Apr_12_1104,60.1123469831,MAFE4ImagesEEG,001,100209,
AFNE01.JPG,AFNE01.JPG,AFNE01.JPG,AFNE01.JPG,AFNE01.JPG,AFNE01.JPG,,,,,5,3,53,7,,,,,,,,,,,,,,,,,,,AFNE18.jpg,AFSA01.jpg,AFNE10.jpg,AFSA05.jpg,AFNE10.jpg,FN,3,num_2,32,num_6,0.750474454369,,,2017_Apr_12_1104,60.1123469831,MAFE4ImagesEEG,001,100209,
AFNE01.JPG,AFNE01.JPG,AFNE01.JPG,AFNE01.JPG,AFNE01.JPG,AFNE01.JPG,,,,,5,4,54,3,,,,,,,,,,,,,,,,,,,AFNE09.jpg,AFSA20.jpg,AFNE06.jpg,AFSA12.jpg,AFNE09.jpg,FN,3,num_8,32,num_4,0.550384839531,,,2017_Apr_12_1104,60.1123469831,MAFE4ImagesEEG,001,100209,
AFNE01.JPG,AFNE01.JPG,AFNE01.JPG,AFNE01.JPG,AFNE01.JPG,AFNE01.JPG,,,,,5,5,55,9,,,,,,,,,,,,,,,,,,,AFSA19.jpg,AFSA02.jpg,AFNE20.jpg,AFNE10.jpg,AFNE10.jpg,FN,3,num_4,16,num_4,0.76636838913,,,2017_Apr_12_1104,60.1123469831,MAFE4ImagesEEG,001,100209,
AFNE01.JPG,AFNE01.JPG,AFNE01.JPG,AFNE01.JPG,AFNE01.JPG,AFNE01.JPG,,,,,5,6,56,5,,,,,,,,,,,,,,,,,,,AFNE02.jpg,AFSA18.jpg,AFNE05.jpg,AFSA14.jpg,AFSA18.jpg,FS,4,num_6,32,num_8,0.901403011288,,,2017_Apr_12_1104,60.1123469831,MAFE4ImagesEEG,001,100209,
AFNE01.JPG,AFNE01.JPG,AFNE01.JPG,AFNE01.JPG,AFNE01.JPG,AFNE01.JPG,,,,,5,7,57,6,,,,,,,,,,,,,,,,,,,AFNE09.jpg,AFNE13.jpg,AFSA07.jpg,AFSA18.jpg,AFNE13.jpg,FN,3,num_6,32,num_2,0.851064198185,,,2017_Apr_12_1104,60.1123469831,MAFE4ImagesEEG,001,100209,
AFNE01.JPG,AFNE01.JPG,AFNE01.JPG,AFNE01.JPG,AFNE01.JPG,AFNE01.JPG,,,,,5,8,58,4,,,,,,,,,,,,,,,,,,,AFNE05.jpg,AFSA10.jpg,AFNE12.jpg,AFSA08.jpg,AFSA10.jpg,FS,4,num_6,16,num_6,0.950221198145,,,2017_Apr_12_1104,60.1123469831,MAFE4ImagesEEG,001,100209,
AFNE01.JPG,AFNE01.JPG,AFNE01.JPG,AFNE01.JPG,AFNE01.JPG,AFNE01.JPG,,,,,5,9,59,2,,,,,,,,,,,,,,,,,,,AFNE13.jpg,AFSA18.jpg,AFSA01.jpg,AFNE11.jpg,AFSA18.jpg,FS,4,num_6,32,num_2,0.850565127097,,,2017_Apr_12_1104,60.1123469831,MAFE4ImagesEEG,001,100209,
,,,,,,,,,,,,,,,,,,,,,,,,,,,,,,,,,,,,,,,,,,,space,17.5492789294,2017_Apr_12_1104,60.1123469831,MAFE4ImagesEEG,001,100209,
AFNE01.JPG,AFNE01.JPG,AFNE01.JPG,AFNE01.JPG,AFNE01.JPG,AFNE01.JPG,,,,,,,,,0,0,0,0,,,,,,,,,,,,,,,AMSA06.jpg,AMSA19.jpg,AMNE16.jpg,AMNE02.jpg,AMSA06.jpg,MS,2,num_8,16,num_8,0.601525181439,,,2017_Apr_12_1104,60.1123469831,MAFE4ImagesEEG,001,100209,
AFNE01.JPG,AFNE01.JPG,AFNE01.JPG,AFNE01.JPG,AFNE01.JPG,AFNE01.JPG,,,,,,,,,0,1,1,2,,,,,,,,,,,,,,,AMSA10.jpg,AMNE01.jpg,AMSA13.jpg,AMNE18.jpg,AMNE18.jpg,MN,1,num_4,16,num_4,0.933171958197,,,2017_Apr_12_1104,60.1123469831,MAFE4ImagesEEG,001,100209,
AFNE01.JPG,AFNE01.JPG,AFNE01.JPG,AFNE01.JPG,AFNE01.JPG,AFNE01.JPG,,,,,,,,,0,2,2,9,,,,,,,,,,,,,,,AMSA09.jpg,AMNE16.jpg,AMSA12.jpg,AMNE03.jpg,AMSA12.jpg,MS,2,num_2,32,num_6,0.965577573981,,,2017_Apr_12_1104,60.1123469831,MAFE4ImagesEEG,001,100209,
AFNE01.JPG,AFNE01.JPG,AFNE01.JPG,AFNE01.JPG,AFNE01.JPG,AFNE01.JPG,,,,,,,,,0,3,3,3,,,,,,,,,,,,,,,AMNE20.jpg,AMSA01.jpg,AMNE15.jpg,AMSA19.jpg,AMSA01.jpg,MS,2,num_6,16,num_6,0.998757454101,,,2017_Apr_12_1104,60.1123469831,MAFE4ImagesEEG,001,100209,
AFNE01.JPG,AFNE01.JPG,AFNE01.JPG,AFNE01.JPG,AFNE01.JPG,AFNE01.JPG,,,,,,,,,0,4,4,7,,,,,,,,,,,,,,,AMNE17.jpg,AMNE19.jpg,AMSA20.jpg,AMSA19.jpg,AMNE17.jpg,MN,1,num_8,32,num_4,0.534361966886,,,2017_Apr_12_1104,60.1123469831,MAFE4ImagesEEG,001,100209,
AFNE01.JPG,AFNE01.JPG,AFNE01.JPG,AFNE01.JPG,AFNE01.JPG,AFNE01.JPG,,,,,,,,,0,5,5,8,,,,,,,,,,,,,,,AMSA05.jpg,AMSA01.jpg,AMNE10.jpg,AMNE16.jpg,AMNE16.jpg,MN,1,num_4,32,num_8,1.10014167102,,,2017_Apr_12_1104,60.1123469831,MAFE4ImagesEEG,001,100209,
AFNE01.JPG,AFNE01.JPG,AFNE01.JPG,AFNE01.JPG,AFNE01.JPG,AFNE01.JPG,,,,,,,,,0,6,6,6,,,,,,,,,,,,,,,AMNE16.jpg,AMNE02.jpg,AMSA11.jpg,AMSA03.jpg,AMNE02.jpg,MN,1,num_6,16,num_6,0.915226572193,,,2017_Apr_12_1104,60.1123469831,MAFE4ImagesEEG,001,100209,
AFNE01.JPG,AFNE01.JPG,AFNE01.JPG,AFNE01.JPG,AFNE01.JPG,AFNE01.JPG,,,,,,,,,0,7,7,5,,,,,,,,,,,,,,,AMNE14.jpg,AMSA14.jpg,AMNE11.jpg,AMSA20.jpg,AMNE11.jpg,MN,1,num_2,32,num_4,0.716030538548,,,2017_Apr_12_1104,60.1123469831,MAFE4ImagesEEG,001,100209,
AFNE01.JPG,AFNE01.JPG,AFNE01.JPG,AFNE01.JPG,AFNE01.JPG,AFNE01.JPG,,,,,,,,,0,8,8,1,,,,,,,,,,,,,,,AMSA02.jpg,AMNE15.jpg,AMNE07.jpg,AMSA04.jpg,AMNE07.jpg,MN,1,num_2,32,num_8,0.51776497066,,,2017_Apr_12_1104,60.1123469831,MAFE4ImagesEEG,001,100209,
AFNE01.JPG,AFNE01.JPG,AFNE01.JPG,AFNE01.JPG,AFNE01.JPG,AFNE01.JPG,,,,,,,,,0,9,9,4,,,,,,,,,,,,,,,AMSA08.jpg,AMNE14.jpg,AMSA04.jpg,AMNE01.jpg,AMNE14.jpg,MN,1,num_6,16,num_6,0.800191353075,,,2017_Apr_12_1104,60.1123469831,MAFE4ImagesEEG,001,100209,
AFNE01.JPG,AFNE01.JPG,AFNE01.JPG,AFNE01.JPG,AFNE01.JPG,AFNE01.JPG,,,,,,,,,1,0,10,9,,,,,,,,,,,,,,,AMNE04.jpg,AMNE14.jpg,AMSA04.jpg,AMSA11.jpg,AMNE14.jpg,MN,1,num_6,16,num_6,0.667242821772,,,2017_Apr_12_1104,60.1123469831,MAFE4ImagesEEG,001,100209,
AFNE01.JPG,AFNE01.JPG,AFNE01.JPG,AFNE01.JPG,AFNE01.JPG,AFNE01.JPG,,,,,,,,,1,1,11,5,,,,,,,,,,,,,,,AMSA16.jpg,AMSA14.jpg,AMNE05.jpg,AMNE06.jpg,AMSA14.jpg,MS,2,num_6,32,num_4,0.416855448857,,,2017_Apr_12_1104,60.1123469831,MAFE4ImagesEEG,001,100209,
AFNE01.JPG,AFNE01.JPG,AFNE01.JPG,AFNE01.JPG,AFNE01.JPG,AFNE01.JPG,,,,,,,,,1,2,12,4,,,,,,,,,,,,,,,AMNE04.jpg,AMSA02.jpg,AMNE10.jpg,AMSA20.jpg,AMSA20.jpg,MS,2,num_4,32,num_8,1.05041450774,,,2017_Apr_12_1104,60.1123469831,MAFE4ImagesEEG,001,100209,
AFNE01.JPG,AFNE01.JPG,AFNE01.JPG,AFNE01.JPG,AFNE01.JPG,AFNE01.JPG,,,,,,,,,1,3,13,3,,,,,,,,,,,,,,,AMSA10.jpg,AMSA11.jpg,AMNE17.jpg,AMNE13.jpg,AMNE17.jpg,MN,1,num_2,32,num_4,0.601385659538,,,2017_Apr_12_1104,60.1123469831,MAFE4ImagesEEG,001,100209,
AFNE01.JPG,AFNE01.JPG,AFNE01.JPG,AFNE01.JPG,AFNE01.JPG,AFNE01.JPG,,,,,,,,,1,4,14,6,,,,,,,,,,,,,,,AMSA09.jpg,AMSA08.jpg,AMNE13.jpg,AMNE17.jpg,AMSA08.jpg,MS,2,num_6,16,num_6,0.250709395856,,,2017_Apr_12_1104,60.1123469831,MAFE4ImagesEEG,001,100209,
AFNE01.JPG,AFNE01.JPG,AFNE01.JPG,AFNE01.JPG,AFNE01.JPG,AFNE01.JPG,,,,,,,,,1,5,15,1,,,,,,,,,,,,,,,AMSA03.jpg,AMNE10.jpg,AMNE03.jpg,AMSA01.jpg,AMNE10.jpg,MN,1,num_6,32,num_8,0.749294452835,,,2017_Apr_12_1104,60.1123469831,MAFE4ImagesEEG,001,100209,
AFNE01.JPG,AFNE01.JPG,AFNE01.JPG,AFNE01.JPG,AFNE01.JPG,AFNE01.JPG,,,,,,,,,1,6,16,0,,,,,,,,,,,,,,,AMNE06.jpg,AMSA16.jpg,AMNE01.jpg,AMSA10.jpg,AMSA16.jpg,MS,2,num_6,32,num_8,0.285286098253,,,2017_Apr_12_1104,60.1123469831,MAFE4ImagesEEG,001,100209,
AFNE01.JPG,AFNE01.JPG,AFNE01.JPG,AFNE01.JPG,AFNE01.JPG,AFNE01.JPG,,,,,,,,,1,7,17,8,,,,,,,,,,,,,,,AMNE13.jpg,AMSA06.jpg,AMNE05.jpg,AMSA02.jpg,AMSA02.jpg,MS,2,num_4,16,num_4,0.98324776534,,,2017_Apr_12_1104,60.1123469831,MAFE4ImagesEEG,001,100209,
AFNE01.JPG,AFNE01.JPG,AFNE01.JPG,AFNE01.JPG,AFNE01.JPG,AFNE01.JPG,,,,,,,,,1,8,18,2,,,,,,,,,,,,,,,AMNE05.jpg,AMNE17.jpg,AMSA11.jpg,AMSA04.jpg,AMSA11.jpg,MS,2,num_2,16,num_2,1.41602697829,,,2017_Apr_12_1104,60.1123469831,MAFE4ImagesEEG,001,100209,
AFNE01.JPG,AFNE01.JPG,AFNE01.JPG,AFNE01.JPG,AFNE01.JPG,AFNE01.JPG,,,,,,,,,1,9,19,7,,,,,,,,,,,,,,,AMNE09.jpg,AMSA19.jpg,AMSA15.jpg,AMNE15.jpg,AMNE09.jpg,MN,1,num_8,16,num_8,1.03560980456,,,2017_Apr_12_1104,60.1123469831,MAFE4ImagesEEG,001,100209,
AFNE01.JPG,AFNE01.JPG,AFNE01.JPG,AFNE01.JPG,AFNE01.JPG,AFNE01.JPG,,,,,,,,,2,0,20,3,,,,,,,,,,,,,,,AMNE06.jpg,AMSA08.jpg,AMNE09.jpg,AMSA02.jpg,AMSA08.jpg,MS,2,num_6,16,num_6,0.53349949792,,,2017_Apr_12_1104,60.1123469831,MAFE4ImagesEEG,001,100209,
AFNE01.JPG,AFNE01.JPG,AFNE01.JPG,AFNE01.JPG,AFNE01.JPG,AFNE01.JPG,,,,,,,,,2,1,21,4,,,,,,,,,,,,,,,AMNE09.jpg,AMNE14.jpg,AMSA12.jpg,AMSA07.jpg,AMNE09.jpg,MN,1,num_8,32,num_2,0.784520973917,,,2017_Apr_12_1104,60.1123469831,MAFE4ImagesEEG,001,100209,
AFNE01.JPG,AFNE01.JPG,AFNE01.JPG,AFNE01.JPG,AFNE01.JPG,AFNE01.JPG,,,,,,,,,2,2,22,5,,,,,,,,,,,,,,,AMSA03.jpg,AMNE19.jpg,AMNE05.jpg,AMSA19.jpg,AMNE05.jpg,MN,1,num_2,32,num_6,1.13344022492,,,2017_Apr_12_1104,60.1123469831,MAFE4ImagesEEG,001,100209,
AFNE01.JPG,AFNE01.JPG,AFNE01.JPG,AFNE01.JPG,AFNE01.JPG,AFNE01.JPG,,,,,,,,,2,3,23,6,,,,,,,,,,,,,,,AMSA10.jpg,AMNE19.jpg,AMSA13.jpg,AMNE09.jpg,AMSA10.jpg,MS,2,num_8,32,num_4,0.666341543663,,,2017_Apr_12_1104,60.1123469831,MAFE4ImagesEEG,001,100209,
AFNE01.JPG,AFNE01.JPG,AFNE01.JPG,AFNE01.JPG,AFNE01.JPG,AFNE01.JPG,,,,,,,,,2,4,24,2,,,,,,,,,,,,,,,AMSA05.jpg,AMNE19.jpg,AMSA14.jpg,AMNE12.jpg,AMNE12.jpg,MN,1,num_4,32,num_8,0.683447233401,,,2017_Apr_12_1104,60.1123469831,MAFE4ImagesEEG,001,100209,
AFNE01.JPG,AFNE01.JPG,AFNE01.JPG,AFNE01.JPG,AFNE01.JPG,AFNE01.JPG,,,,,,,,,2,5,25,9,,,,,,,,,,,,,,,AMNE13.jpg,AMSA16.jpg,AMNE01.jpg,AMSA19.jpg,AMSA16.jpg,MS,2,num_6,16,num_6,1.03555399599,,,2017_Apr_12_1104,60.1123469831,MAFE4ImagesEEG,001,100209,
AFNE01.JPG,AFNE01.JPG,AFNE01.JPG,AFNE01.JPG,AFNE01.JPG,AFNE01.JPG,,,,,,,,,2,6,26,8,,,,,,,,,,,,,,,AMSA03.jpg,AMSA05.jpg,AMNE14.jpg,AMNE07.jpg,AMSA03.jpg,MS,2,num_8,32,num_4,0.650126868859,,,2017_Apr_12_1104,60.1123469831,MAFE4ImagesEEG,001,100209,
AFNE01.JPG,AFNE01.JPG,AFNE01.JPG,AFNE01.JPG,AFNE01.JPG,AFNE01.JPG,,,,,,,,,2,7,27,1,,,,,,,,,,,,,,,AMSA19.jpg,AMNE01.jpg,AMNE17.jpg,AMSA10.jpg,AMNE17.jpg,MN,1,num_2,32,num_8,0.416756018996,,,2017_Apr_12_1104,60.1123469831,MAFE4ImagesEEG,001,100209,
AFNE01.JPG,AFNE01.JPG,AFNE01.JPG,AFNE01.JPG,AFNE01.JPG,AFNE01.JPG,,,,,,,,,2,8,28,7,,,,,,,,,,,,,,,AMSA16.jpg,AMSA12.jpg,AMNE15.jpg,AMNE01.jpg,AMNE15.jpg,MN,1,num_2,16,num_2,1.08327685622,,,2017_Apr_12_1104,60.1123469831,MAFE4ImagesEEG,001,100209,
AFNE01.JPG,AFNE01.JPG,AFNE01.JPG,AFNE01.JPG,AFNE01.JPG,AFNE01.JPG,,,,,,,,,2,9,29,0,,,,,,,,,,,,,,,AMNE10.jpg,AMNE01.jpg,AMSA07.jpg,AMSA14.jpg,AMNE10.jpg,MN,1,num_8,32,num_2,1.8186855251,,,2017_Apr_12_1104,60.1123469831,MAFE4ImagesEEG,001,100209,
AFNE01.JPG,AFNE01.JPG,AFNE01.JPG,AFNE01.JPG,AFNE01.JPG,AFNE01.JPG,,,,,,,,,3,0,30,2,,,,,,,,,,,,,,,AMSA10.jpg,AMNE04.jpg,AMNE07.jpg,AMSA02.jpg,AMSA10.jpg,MS,2,num_8,32,num_6,0.449825886171,,,2017_Apr_12_1104,60.1123469831,MAFE4ImagesEEG,001,100209,
AFNE01.JPG,AFNE01.JPG,AFNE01.JPG,AFNE01.JPG,AFNE01.JPG,AFNE01.JPG,,,,,,,,,3,1,31,6,,,,,,,,,,,,,,,AMNE07.jpg,AMNE14.jpg,AMSA17.jpg,AMSA05.jpg,AMNE07.jpg,MN,1,num_8,16,num_8,0.685334144626,,,2017_Apr_12_1104,60.1123469831,MAFE4ImagesEEG,001,100209,
AFNE01.JPG,AFNE01.JPG,AFNE01.JPG,AFNE01.JPG,AFNE01.JPG,AFNE01.JPG,,,,,,,,,3,2,32,5,,,,,,,,,,,,,,,AMNE04.jpg,AMNE09.jpg,AMSA15.jpg,AMSA09.jpg,AMNE04.jpg,MN,1,num_8,32,num_2,0.599612289574,,,2017_Apr_12_1104,60.1123469831,MAFE4ImagesEEG,001,100209,
AFNE01.JPG,AFNE01.JPG,AFNE01.JPG,AFNE01.JPG,AFNE01.JPG,AFNE01.JPG,,,,,,,,,3,3,33,0,,,,,,,,,,,,,,,AMNE07.jpg,AMNE18.jpg,AMSA10.jpg,AMSA08.jpg,AMSA08.jpg,MS,2,num_4,32,num_8,0.384817401413,,,2017_Apr_12_1104,60.1123469831,MAFE4ImagesEEG,001,100209,
AFNE01.JPG,AFNE01.JPG,AFNE01.JPG,AFNE01.JPG,AFNE01.JPG,AFNE01.JPG,,,,,,,,,3,4,34,7,,,,,,,,,,,,,,,AMSA17.jpg,AMNE08.jpg,AMSA02.jpg,AMNE16.jpg,AMNE16.jpg,MN,1,num_4,32,num_6,0.366720625665,,,2017_Apr_12_1104,60.1123469831,MAFE4ImagesEEG,001,100209,
AFNE01.JPG,AFNE01.JPG,AFNE01.JPG,AFNE01.JPG,AFNE01.JPG,AFNE01.JPG,,,,,,,,,3,5,35,8,,,,,,,,,,,,,,,AMNE05.jpg,AMSA10.jpg,AMNE08.jpg,AMSA05.jpg,AMNE08.jpg,MN,1,num_2,32,num_8,0.799333053641,,,2017_Apr_12_1104,60.1123469831,MAFE4ImagesEEG,001,100209,
AFNE01.JPG,AFNE01.JPG,AFNE01.JPG,AFNE01.JPG,AFNE01.JPG,AFNE01.JPG,,,,,,,,,3,6,36,3,,,,,,,,,,,,,,,AMSA16.jpg,AMNE18.jpg,AMNE08.jpg,AMSA12.jpg,AMNE08.jpg,MN,1,num_2,32,num_4,1.03351794044,,,2017_Apr_12_1104,60.1123469831,MAFE4ImagesEEG,001,100209,
AFNE01.JPG,AFNE01.JPG,AFNE01.JPG,AFNE01.JPG,AFNE01.JPG,AFNE01.JPG,,,,,,,,,3,7,37,1,,,,,,,,,,,,,,,AMNE19.jpg,AMSA19.jpg,AMNE08.jpg,AMSA18.jpg,AMSA18.jpg,MS,2,num_4,32,num_8,0.666335128713,,,2017_Apr_12_1104,60.1123469831,MAFE4ImagesEEG,001,100209,
AFNE01.JPG,AFNE01.JPG,AFNE01.JPG,AFNE01.JPG,AFNE01.JPG,AFNE01.JPG,,,,,,,,,3,8,38,9,,,,,,,,,,,,,,,AMNE03.jpg,AMSA09.jpg,AMSA03.jpg,AMNE18.jpg,AMSA03.jpg,MS,2,num_2,32,num_6,0.466958839446,,,2017_Apr_12_1104,60.1123469831,MAFE4ImagesEEG,001,100209,
AFNE01.JPG,AFNE01.JPG,AFNE01.JPG,AFNE01.JPG,AFNE01.JPG,AFNE01.JPG,,,,,,,,,3,9,39,4,,,,,,,,,,,,,,,AMSA06.jpg,AMNE06.jpg,AMNE20.jpg,AMSA02.jpg,AMSA06.jpg,MS,2,num_8,32,num_4,1.08148809103,,,2017_Apr_12_1104,60.1123469831,MAFE4ImagesEEG,001,100209,
AFNE01.JPG,AFNE01.JPG,AFNE01.JPG,AFNE01.JPG,AFNE01.JPG,AFNE01.JPG,,,,,,,,,4,0,40,7,,,,,,,,,,,,,,,AMNE03.jpg,AMSA15.jpg,AMNE13.jpg,AMSA16.jpg,AMNE13.jpg,MN,1,num_2,16,num_2,0.531796370167,,,2017_Apr_12_1104,60.1123469831,MAFE4ImagesEEG,001,100209,
AFNE01.JPG,AFNE01.JPG,AFNE01.JPG,AFNE01.JPG,AFNE01.JPG,AFNE01.JPG,,,,,,,,,4,1,41,0,,,,,,,,,,,,,,,AMNE12.jpg,AMSA06.jpg,AMSA03.jpg,AMNE06.jpg,AMNE06.jpg,MN,1,num_4,32,num_6,0.568719924893,,,2017_Apr_12_1104,60.1123469831,MAFE4ImagesEEG,001,100209,
AFNE01.JPG,AFNE01.JPG,AFNE01.JPG,AFNE01.JPG,AFNE01.JPG,AFNE01.JPG,,,,,,,,,4,2,42,1,,,,,,,,,,,,,,,AMSA16.jpg,AMNE05.jpg,AMSA12.jpg,AMNE19.jpg,AMSA16.jpg,MS,2,num_8,32,num_4,0.417549529579,,,2017_Apr_12_1104,60.1123469831,MAFE4ImagesEEG,001,100209,
AFNE01.JPG,AFNE01.JPG,AFNE01.JPG,AFNE01.JPG,AFNE01.JPG,AFNE01.JPG,,,,,,,,,4,3,43,9,,,,,,,,,,,,,,,AMSA02.jpg,AMNE07.jpg,AMSA08.jpg,AMNE13.jpg,AMNE07.jpg,MN,1,num_6,32,num_4,0.866179377772,,,2017_Apr_12_1104,60.1123469831,MAFE4ImagesEEG,001,100209,
AFNE01.JPG,AFNE01.JPG,AFNE01.JPG,AFNE01.JPG,AFNE01.JPG,AFNE01.JPG,,,,,,,,,4,4,44,4,,,,,,,,,,,,,,,AMSA18.jpg,AMNE07.jpg,AMSA06.jpg,AMNE04.jpg,AMNE04.jpg,MN,1,num_4,32,num_2,1.00200013258,,,2017_Apr_12_1104,60.1123469831,MAFE4ImagesEEG,001,100209,
AFNE01.JPG,AFNE01.JPG,AFNE01.JPG,AFNE01.JPG,AFNE01.JPG,AFNE01.JPG,,,,,,,,,4,5,45,6,,,,,,,,,,,,,,,AMSA12.jpg,AMNE17.jpg,AMNE11.jpg,AMSA13.jpg,AMNE11.jpg,MN,1,num_2,32,num_8,0.866592810955,,,2017_Apr_12_1104,60.1123469831,MAFE4ImagesEEG,001,100209,
AFNE01.JPG,AFNE01.JPG,AFNE01.JPG,AFNE01.JPG,AFNE01.JPG,AFNE01.JPG,,,,,,,,,4,6,46,3,,,,,,,,,,,,,,,AMNE09.jpg,AMNE17.jpg,AMSA08.jpg,AMSA04.jpg,AMSA08.jpg,MS,2,num_2,32,num_4,0.933754421771,,,2017_Apr_12_1104,60.1123469831,MAFE4ImagesEEG,001,100209,
AFNE01.JPG,AFNE01.JPG,AFNE01.JPG,AFNE01.JPG,AFNE01.JPG,AFNE01.JPG,,,,,,,,,4,7,47,8,,,,,,,,,,,,,,,AMSA12.jpg,AMNE10.jpg,AMSA19.jpg,AMNE05.jpg,AMNE05.jpg,MN,1,num_4,32,num_6,0.550222866237,,,2017_Apr_12_1104,60.1123469831,MAFE4ImagesEEG,001,100209,
AFNE01.JPG,AFNE01.JPG,AFNE01.JPG,AFNE01.JPG,AFNE01.JPG,AFNE01.JPG,,,,,,,,,4,8,48,5,,,,,,,,,,,,,,,AMSA17.jpg,AMSA03.jpg,AMNE08.jpg,AMNE01.jpg,AMNE01.jpg,MN,1,num_4,32,num_8,0.25158694014,,,2017_Apr_12_1104,60.1123469831,MAFE4ImagesEEG,001,100209,
AFNE01.JPG,AFNE01.JPG,AFNE01.JPG,AFNE01.JPG,AFNE01.JPG,AFNE01.JPG,,,,,,,,,4,9,49,2,,,,,,,,,,,,,,,AMNE15.jpg,AMSA01.jpg,AMNE17.jpg,AMSA19.jpg,AMSA19.jpg,MS,2,num_4,16,num_4,0.51888948353,,,2017_Apr_12_1104,60.1123469831,MAFE4ImagesEEG,001,100209,
AFNE01.JPG,AFNE01.JPG,AFNE01.JPG,AFNE01.JPG,AFNE01.JPG,AFNE01.JPG,,,,,,,,,5,0,50,6,,,,,,,,,,,,,,,AMSA17.jpg,AMSA16.jpg,AMNE20.jpg,AMNE03.jpg,AMSA17.jpg,MS,2,num_8,32,num_2,1.35050017759,,,2017_Apr_12_1104,60.1123469831,MAFE4ImagesEEG,001,100209,
AFNE01.JPG,AFNE01.JPG,AFNE01.JPG,AFNE01.JPG,AFNE01.JPG,AFNE01.JPG,,,,,,,,,5,1,51,5,,,,,,,,,,,,,,,AMSA19.jpg,AMNE07.jpg,AMNE10.jpg,AMSA07.jpg,AMNE10.jpg,MN,1,num_2,32,num_8,0.251382628921,,,2017_Apr_12_1104,60.1123469831,MAFE4ImagesEEG,001,100209,
AFNE01.JPG,AFNE01.JPG,AFNE01.JPG,AFNE01.JPG,AFNE01.JPG,AFNE01.JPG,,,,,,,,,5,2,52,0,,,,,,,,,,,,,,,AMNE06.jpg,AMSA20.jpg,AMSA05.jpg,AMNE20.jpg,AMNE20.jpg,MN,1,num_4,16,num_4,0.816351502202,,,2017_Apr_12_1104,60.1123469831,MAFE4ImagesEEG,001,100209,
AFNE01.JPG,AFNE01.JPG,AFNE01.JPG,AFNE01.JPG,AFNE01.JPG,AFNE01.JPG,,,,,,,,,5,3,53,2,,,,,,,,,,,,,,,AMNE02.jpg,AMNE06.jpg,AMSA17.jpg,AMSA10.jpg,AMNE02.jpg,MN,1,num_8,32,num_6,0.817929221317,,,2017_Apr_12_1104,60.1123469831,MAFE4ImagesEEG,001,100209,
AFNE01.JPG,AFNE01.JPG,AFNE01.JPG,AFNE01.JPG,AFNE01.JPG,AFNE01.JPG,,,,,,,,,5,4,54,4,,,,,,,,,,,,,,,AMNE11.jpg,AMSA01.jpg,AMSA20.jpg,AMNE05.jpg,AMNE11.jpg,MN,1,num_8,32,num_4,1.03347303672,,,2017_Apr_12_1104,60.1123469831,MAFE4ImagesEEG,001,100209,
AFNE01.JPG,AFNE01.JPG,AFNE01.JPG,AFNE01.JPG,AFNE01.JPG,AFNE01.JPG,,,,,,,,,5,5,55,8,,,,,,,,,,,,,,,AMSA05.jpg,AMNE19.jpg,AMNE17.jpg,AMSA07.jpg,AMSA05.jpg,MS,2,num_8,16,num_8,0.766807161272,,,2017_Apr_12_1104,60.1123469831,MAFE4ImagesEEG,001,100209,
AFNE01.JPG,AFNE01.JPG,AFNE01.JPG,AFNE01.JPG,AFNE01.JPG,AFNE01.JPG,,,,,,,,,5,6,56,9,,,,,,,,,,,,,,,AMSA06.jpg,AMNE12.jpg,AMNE10.jpg,AMSA11.jpg,AMNE10.jpg,MN,1,num_2,32,num_6,0.36683673365,,,2017_Apr_12_1104,60.1123469831,MAFE4ImagesEEG,001,100209,
AFNE01.JPG,AFNE01.JPG,AFNE01.JPG,AFNE01.JPG,AFNE01.JPG,AFNE01.JPG,,,,,,,,,5,7,57,7,,,,,,,,,,,,,,,AMSA17.jpg,AMNE05.jpg,AMNE10.jpg,AMSA12.jpg,AMNE10.jpg,MN,1,num_2,16,num_2,0.532079583034,,,2017_Apr_12_1104,60.1123469831,MAFE4ImagesEEG,001,100209,
AFNE01.JPG,AFNE01.JPG,AFNE01.JPG,AFNE01.JPG,AFNE01.JPG,AFNE01.JPG,,,,,,,,,5,8,58,3,,,,,,,,,,,,,,,AMSA07.jpg,AMNE11.jpg,AMSA13.jpg,AMNE04.jpg,AMSA07.jpg,MS,2,num_8,16,num_8,0.600342934951,,,2017_Apr_12_1104,60.1123469831,MAFE4ImagesEEG,001,100209,
AFNE01.JPG,AFNE01.JPG,AFNE01.JPG,AFNE01.JPG,AFNE01.JPG,AFNE01.JPG,,,,,,,,,5,9,59,1,,,,,,,,,,,,,,,AMNE18.jpg,AMSA14.jpg,AMNE06.jpg,AMSA17.jpg,AMNE18.jpg,MN,1,num_8,32,num_4,1.31642030133,,,2017_Apr_12_1104,60.1123469831,MAFE4ImagesEEG,001,100209,
,,,,,,,,,,,,,,,,,,,,,,,,,,,,,,,,,,,,,,,,,,,space,31.9818862253,2017_Apr_12_1104,60.1123469831,MAFE4ImagesEEG,001,100209,
AFNE01.JPG,AFNE01.JPG,AFNE01.JPG,AFNE01.JPG,AFNE01.JPG,AFNE01.JPG,,,,,,,,,,,,,0,0,0,4,,,,,,,,,,,AFSA01.jpg,AFSA08.jpg,AFNE15.jpg,AFNE18.jpg,AFSA08.jpg,FS,4,num_6,16,num_6,0.732622082345,,,2017_Apr_12_1104,60.1123469831,MAFE4ImagesEEG,001,100209,
AFNE01.JPG,AFNE01.JPG,AFNE01.JPG,AFNE01.JPG,AFNE01.JPG,AFNE01.JPG,,,,,,,,,,,,,0,1,1,7,,,,,,,,,,,AFNE17.jpg,AFSA04.jpg,AFNE18.jpg,AFSA11.jpg,AFSA11.jpg,FS,4,num_4,32,num_2,0.700094586238,,,2017_Apr_12_1104,60.1123469831,MAFE4ImagesEEG,001,100209,
AFNE01.JPG,AFNE01.JPG,AFNE01.JPG,AFNE01.JPG,AFNE01.JPG,AFNE01.JPG,,,,,,,,,,,,,0,2,2,9,,,,,,,,,,,AFSA07.jpg,AFNE15.jpg,AFSA05.jpg,AFNE20.jpg,AFNE15.jpg,FN,3,num_6,32,num_8,0.284616714343,,,2017_Apr_12_1104,60.1123469831,MAFE4ImagesEEG,001,100209,
AFNE01.JPG,AFNE01.JPG,AFNE01.JPG,AFNE01.JPG,AFNE01.JPG,AFNE01.JPG,,,,,,,,,,,,,0,3,3,8,,,,,,,,,,,AFNE13.jpg,AFNE08.jpg,AFSA03.jpg,AFSA02.jpg,AFSA02.jpg,FS,4,num_4,32,num_2,0.283462372143,,,2017_Apr_12_1104,60.1123469831,MAFE4ImagesEEG,001,100209,
AFNE01.JPG,AFNE01.JPG,AFNE01.JPG,AFNE01.JPG,AFNE01.JPG,AFNE01.JPG,,,,,,,,,,,,,0,4,4,5,,,,,,,,,,,AFNE16.jpg,AFNE04.jpg,AFSA14.jpg,AFSA05.jpg,AFNE04.jpg,FN,3,num_6,16,num_6,0.450726202689,,,2017_Apr_12_1104,60.1123469831,MAFE4ImagesEEG,001,100209,
AFNE01.JPG,AFNE01.JPG,AFNE01.JPG,AFNE01.JPG,AFNE01.JPG,AFNE01.JPG,,,,,,,,,,,,,0,5,5,0,,,,,,,,,,,AFSA14.jpg,AFSA01.jpg,AFNE18.jpg,AFNE15.jpg,AFNE15.jpg,FN,3,num_4,16,num_4,0.716900704894,,,2017_Apr_12_1104,60.1123469831,MAFE4ImagesEEG,001,100209,
AFNE01.JPG,AFNE01.JPG,AFNE01.JPG,AFNE01.JPG,AFNE01.JPG,AFNE01.JPG,,,,,,,,,,,,,0,6,6,6,,,,,,,,,,,AFSA15.jpg,AFNE08.jpg,AFNE09.jpg,AFSA01.jpg,AFSA01.jpg,FS,4,num_4,32,num_8,0.216337967198,,,2017_Apr_12_1104,60.1123469831,MAFE4ImagesEEG,001,100209,
AFNE01.JPG,AFNE01.JPG,AFNE01.JPG,AFNE01.JPG,AFNE01.JPG,AFNE01.JPG,,,,,,,,,,,,,0,7,7,1,,,,,,,,,,,AFNE12.jpg,AFNE15.jpg,AFSA08.jpg,AFSA03.jpg,AFNE15.jpg,FN,3,num_6,32,num_2,1.26766914967,,,2017_Apr_12_1104,60.1123469831,MAFE4ImagesEEG,001,100209,
AFNE01.JPG,AFNE01.JPG,AFNE01.JPG,AFNE01.JPG,AFNE01.JPG,AFNE01.JPG,,,,,,,,,,,,,0,8,8,3,,,,,,,,,,,AFSA11.jpg,AFSA08.jpg,AFNE01.jpg,AFNE02.jpg,AFSA08.jpg,FS,4,num_6,16,num_6,0.514843352139,,,2017_Apr_12_1104,60.1123469831,MAFE4ImagesEEG,001,100209,
AFNE01.JPG,AFNE01.JPG,AFNE01.JPG,AFNE01.JPG,AFNE01.JPG,AFNE01.JPG,,,,,,,,,,,,,0,9,9,2,,,,,,,,,,,AFNE10.jpg,AFSA03.jpg,AFSA20.jpg,AFNE13.jpg,AFNE10.jpg,FN,3,num_8,16,num_8,0.681494569872,,,2017_Apr_12_1104,60.1123469831,MAFE4ImagesEEG,001,100209,
AFNE01.JPG,AFNE01.JPG,AFNE01.JPG,AFNE01.JPG,AFNE01.JPG,AFNE01.JPG,,,,,,,,,,,,,1,0,10,9,,,,,,,,,,,AFSA15.jpg,AFNE07.jpg,AFSA12.jpg,AFNE19.jpg,AFSA12.jpg,FS,4,num_2,32,num_4,0.533005238045,,,2017_Apr_12_1104,60.1123469831,MAFE4ImagesEEG,001,100209,
AFNE01.JPG,AFNE01.JPG,AFNE01.JPG,AFNE01.JPG,AFNE01.JPG,AFNE01.JPG,,,,,,,,,,,,,1,1,11,1,,,,,,,,,,,AFSA06.jpg,AFNE05.jpg,AFSA16.jpg,AFNE04.jpg,AFSA06.jpg,FS,4,num_8,32,num_6,0.268475167919,,,2017_Apr_12_1104,60.1123469831,MAFE4ImagesEEG,001,100209,
AFNE01.JPG,AFNE01.JPG,AFNE01.JPG,AFNE01.JPG,AFNE01.JPG,AFNE01.JPG,,,,,,,,,,,,,1,2,12,5,,,,,,,,,,,AFSA05.jpg,AFNE20.jpg,AFSA16.jpg,AFNE19.jpg,AFNE20.jpg,FN,3,num_6,32,num_2,0.484660142567,,,2017_Apr_12_1104,60.1123469831,MAFE4ImagesEEG,001,100209,
AFNE01.JPG,AFNE01.JPG,AFNE01.JPG,AFNE01.JPG,AFNE01.JPG,AFNE01.JPG,,,,,,,,,,,,,1,3,13,6,,,,,,,,,,,AFNE12.jpg,AFSA19.jpg,AFNE06.jpg,AFSA15.jpg,AFNE12.jpg,FN,3,num_8,16,num_8,0.748875566758,,,2017_Apr_12_1104,60.1123469831,MAFE4ImagesEEG,001,100209,
AFNE01.JPG,AFNE01.JPG,AFNE01.JPG,AFNE01.JPG,AFNE01.JPG,AFNE01.JPG,,,,,,,,,,,,,1,4,14,3,,,,,,,,,,,AFNE18.jpg,AFNE14.jpg,AFSA15.jpg,AFSA07.jpg,AFNE14.jpg,FN,3,num_6,32,num_4,2.11745038908,,,2017_Apr_12_1104,60.1123469831,MAFE4ImagesEEG,001,100209,
AFNE01.JPG,AFNE01.JPG,AFNE01.JPG,AFNE01.JPG,AFNE01.JPG,AFNE01.JPG,,,,,,,,,,,,,1,5,15,2,,,,,,,,,,,AFSA20.jpg,AFNE10.jpg,AFSA12.jpg,AFNE20.jpg,AFSA20.jpg,FS,4,num_8,16,num_8,0.768426576164,,,2017_Apr_12_1104,60.1123469831,MAFE4ImagesEEG,001,100209,
AFNE01.JPG,AFNE01.JPG,AFNE01.JPG,AFNE01.JPG,AFNE01.JPG,AFNE01.JPG,,,,,,,,,,,,,1,6,16,7,,,,,,,,,,,AFSA11.jpg,AFSA03.jpg,AFNE10.jpg,AFNE12.jpg,AFNE10.jpg,FN,3,num_2,32,num_4,0.799333054107,,,2017_Apr_12_1104,60.1123469831,MAFE4ImagesEEG,001,100209,
AFNE01.JPG,AFNE01.JPG,AFNE01.JPG,AFNE01.JPG,AFNE01.JPG,AFNE01.JPG,,,,,,,,,,,,,1,7,17,8,,,,,,,,,,,AFSA11.jpg,AFNE09.jpg,AFSA04.jpg,AFNE11.jpg,AFSA04.jpg,FS,4,num_2,16,num_2,0.301523866132,,,2017_Apr_12_1104,60.1123469831,MAFE4ImagesEEG,001,100209,
AFNE01.JPG,AFNE01.JPG,AFNE01.JPG,AFNE01.JPG,AFNE01.JPG,AFNE01.JPG,,,,,,,,,,,,,1,8,18,4,,,,,,,,,,,AFNE06.jpg,AFNE02.jpg,AFSA19.jpg,AFSA04.jpg,AFSA04.jpg,FS,4,num_4,32,num_8,0.715198218822,,,2017_Apr_12_1104,60.1123469831,MAFE4ImagesEEG,001,100209,
AFNE01.JPG,AFNE01.JPG,AFNE01.JPG,AFNE01.JPG,AFNE01.JPG,AFNE01.JPG,,,,,,,,,,,,,1,9,19,0,,,,,,,,,,,AFSA18.jpg,AFNE04.jpg,AFNE05.jpg,AFSA03.jpg,AFSA03.jpg,FS,4,num_4,32,num_8,0.600036628079,,,2017_Apr_12_1104,60.1123469831,MAFE4ImagesEEG,001,100209,
AFNE01.JPG,AFNE01.JPG,AFNE01.JPG,AFNE01.JPG,AFNE01.JPG,AFNE01.JPG,,,,,,,,,,,,,2,0,20,0,,,,,,,,,,,AFNE09.jpg,AFSA08.jpg,AFNE08.jpg,AFSA17.jpg,AFNE09.jpg,FN,3,num_8,16,num_8,2.35014543915,,,2017_Apr_12_1104,60.1123469831,MAFE4ImagesEEG,001,100209,
AFNE01.JPG,AFNE01.JPG,AFNE01.JPG,AFNE01.JPG,AFNE01.JPG,AFNE01.JPG,,,,,,,,,,,,,2,1,21,9,,,,,,,,,,,AFNE18.jpg,AFSA09.jpg,AFSA01.jpg,AFNE12.jpg,AFNE12.jpg,FN,3,num_4,16,num_4,0.733549020253,,,2017_Apr_12_1104,60.1123469831,MAFE4ImagesEEG,001,100209,
AFNE01.JPG,AFNE01.JPG,AFNE01.JPG,AFNE01.JPG,AFNE01.JPG,AFNE01.JPG,,,,,,,,,,,,,2,2,22,5,,,,,,,,,,,AFSA10.jpg,AFSA15.jpg,AFNE11.jpg,AFNE19.jpg,AFNE19.jpg,FN,3,num_4,32,num_8,0.781619241461,,,2017_Apr_12_1104,60.1123469831,MAFE4ImagesEEG,001,100209,
AFNE01.JPG,AFNE01.JPG,AFNE01.JPG,AFNE01.JPG,AFNE01.JPG,AFNE01.JPG,,,,,,,,,,,,,2,3,23,4,,,,,,,,,,,AFSA18.jpg,AFNE03.jpg,AFSA20.jpg,AFNE14.jpg,AFSA20.jpg,FS,4,num_2,32,num_4,0.500382802449,,,2017_Apr_12_1104,60.1123469831,MAFE4ImagesEEG,001,100209,
AFNE01.JPG,AFNE01.JPG,AFNE01.JPG,AFNE01.JPG,AFNE01.JPG,AFNE01.JPG,,,,,,,,,,,,,2,4,24,8,,,,,,,,,,,AFSA17.jpg,AFNE07.jpg,AFNE02.jpg,AFSA13.jpg,AFNE02.jpg,FN,3,num_2,32,num_6,0.350221775472,,,2017_Apr_12_1104,60.1123469831,MAFE4ImagesEEG,001,100209,
AFNE01.JPG,AFNE01.JPG,AFNE01.JPG,AFNE01.JPG,AFNE01.JPG,AFNE01.JPG,,,,,,,,,,,,,2,5,25,2,,,,,,,,,,,AFSA19.jpg,AFNE09.jpg,AFNE15.jpg,AFSA09.jpg,AFSA09.jpg,FS,4,num_4,32,num_2,1.20224402333,,,2017_Apr_12_1104,60.1123469831,MAFE4ImagesEEG,001,100209,
AFNE01.JPG,AFNE01.JPG,AFNE01.JPG,AFNE01.JPG,AFNE01.JPG,AFNE01.JPG,,,,,,,,,,,,,2,6,26,3,,,,,,,,,,,AFNE06.jpg,AFSA09.jpg,AFSA17.jpg,AFNE17.jpg,AFNE17.jpg,FN,3,num_4,32,num_6,0.683849120047,,,2017_Apr_12_1104,60.1123469831,MAFE4ImagesEEG,001,100209,
AFNE01.JPG,AFNE01.JPG,AFNE01.JPG,AFNE01.JPG,AFNE01.JPG,AFNE01.JPG,,,,,,,,,,,,,2,7,27,1,,,,,,,,,,,AFSA07.jpg,AFNE11.jpg,AFNE15.jpg,AFSA05.jpg,AFSA07.jpg,FS,4,num_8,32,num_4,1.56808646349,,,2017_Apr_12_1104,60.1123469831,MAFE4ImagesEEG,001,100209,
AFNE01.JPG,AFNE01.JPG,AFNE01.JPG,AFNE01.JPG,AFNE01.JPG,AFNE01.JPG,,,,,,,,,,,,,2,8,28,7,,,,,,,,,,,AFNE18.jpg,AFNE09.jpg,AFSA08.jpg,AFSA19.jpg,AFSA08.jpg,FS,4,num_2,32,num_6,0.765433433466,,,2017_Apr_12_1104,60.1123469831,MAFE4ImagesEEG,001,100209,
AFNE01.JPG,AFNE01.JPG,AFNE01.JPG,AFNE01.JPG,AFNE01.JPG,AFNE01.JPG,,,,,,,,,,,,,2,9,29,6,,,,,,,,,,,AFNE04.jpg,AFNE15.jpg,AFSA06.jpg,AFSA03.jpg,AFNE04.jpg,FN,3,num_8,16,num_8,0.299402493984,,,2017_Apr_12_1104,60.1123469831,MAFE4ImagesEEG,001,100209,
AFNE01.JPG,AFNE01.JPG,AFNE01.JPG,AFNE01.JPG,AFNE01.JPG,AFNE01.JPG,,,,,,,,,,,,,3,0,30,5,,,,,,,,,,,AFNE17.jpg,AFSA04.jpg,AFSA19.jpg,AFNE09.jpg,AFSA19.jpg,FS,4,num_2,16,num_2,0.451580653433,,,2017_Apr_12_1104,60.1123469831,MAFE4ImagesEEG,001,100209,
AFNE01.JPG,AFNE01.JPG,AFNE01.JPG,AFNE01.JPG,AFNE01.JPG,AFNE01.JPG,,,,,,,,,,,,,3,1,31,9,,,,,,,,,,,AFNE01.jpg,AFNE11.jpg,AFSA12.jpg,AFSA09.jpg,AFNE01.jpg,FN,3,num_8,32,num_4,0.699462729041,,,2017_Apr_12_1104,60.1123469831,MAFE4ImagesEEG,001,100209,
AFNE01.JPG,AFNE01.JPG,AFNE01.JPG,AFNE01.JPG,AFNE01.JPG,AFNE01.JPG,,,,,,,,,,,,,3,2,32,8,,,,,,,,,,,AFNE02.jpg,AFSA20.jpg,AFNE04.jpg,AFSA08.jpg,AFSA20.jpg,FS,4,num_6,16,num_6,0.666915346868,,,2017_Apr_12_1104,60.1123469831,MAFE4ImagesEEG,001,100209,
AFNE01.JPG,AFNE01.JPG,AFNE01.JPG,AFNE01.JPG,AFNE01.JPG,AFNE01.JPG,,,,,,,,,,,,,3,3,33,3,,,,,,,,,,,AFSA02.jpg,AFSA06.jpg,AFNE16.jpg,AFNE18.jpg,AFSA02.jpg,FS,4,num_8,32,num_4,0.948867035098,,,2017_Apr_12_1104,60.1123469831,MAFE4ImagesEEG,001,100209,
AFNE01.JPG,AFNE01.JPG,AFNE01.JPG,AFNE01.JPG,AFNE01.JPG,AFNE01.JPG,,,,,,,,,,,,,3,4,34,6,,,,,,,,,,,AFNE18.jpg,AFSA20.jpg,AFNE12.jpg,AFSA02.jpg,AFSA02.jpg,FS,4,num_4,32,num_6,0.650097039994,,,2017_Apr_12_1104,60.1123469831,MAFE4ImagesEEG,001,100209,
AFNE01.JPG,AFNE01.JPG,AFNE01.JPG,AFNE01.JPG,AFNE01.JPG,AFNE01.JPG,,,,,,,,,,,,,3,5,35,2,,,,,,,,,,,AFSA03.jpg,AFNE15.jpg,AFSA12.jpg,AFNE08.jpg,AFSA12.jpg,FS,4,num_2,32,num_4,0.885258578695,,,2017_Apr_12_1104,60.1123469831,MAFE4ImagesEEG,001,100209,
AFNE01.JPG,AFNE01.JPG,AFNE01.JPG,AFNE01.JPG,AFNE01.JPG,AFNE01.JPG,,,,,,,,,,,,,3,6,36,0,,,,,,,,,,,AFSA07.jpg,AFNE04.jpg,AFNE09.jpg,AFSA06.jpg,AFSA06.jpg,FS,4,num_4,32,num_2,0.683353256434,,,2017_Apr_12_1104,60.1123469831,MAFE4ImagesEEG,001,100209,
AFNE01.JPG,AFNE01.JPG,AFNE01.JPG,AFNE01.JPG,AFNE01.JPG,AFNE01.JPG,,,,,,,,,,,,,3,7,37,4,,,,,,,,,,,AFNE06.jpg,AFSA19.jpg,AFSA12.jpg,AFNE01.jpg,AFSA12.jpg,FS,4,num_2,32,num_6,0.798844246659,,,2017_Apr_12_1104,60.1123469831,MAFE4ImagesEEG,001,100209,
AFNE01.JPG,AFNE01.JPG,AFNE01.JPG,AFNE01.JPG,AFNE01.JPG,AFNE01.JPG,,,,,,,,,,,,,3,8,38,7,,,,,,,,,,,AFNE19.jpg,AFSA09.jpg,AFSA19.jpg,AFNE18.jpg,AFSA09.jpg,FS,4,num_6,16,num_6,0.465375667904,,,2017_Apr_12_1104,60.1123469831,MAFE4ImagesEEG,001,100209,
AFNE01.JPG,AFNE01.JPG,AFNE01.JPG,AFNE01.JPG,AFNE01.JPG,AFNE01.JPG,,,,,,,,,,,,,3,9,39,1,,,,,,,,,,,AFSA07.jpg,AFSA16.jpg,AFNE12.jpg,AFNE03.jpg,AFNE03.jpg,FN,3,num_4,16,num_4,0.600010007154,,,2017_Apr_12_1104,60.1123469831,MAFE4ImagesEEG,001,100209,
AFNE01.JPG,AFNE01.JPG,AFNE01.JPG,AFNE01.JPG,AFNE01.JPG,AFNE01.JPG,,,,,,,,,,,,,4,0,40,6,,,,,,,,,,,AFSA16.jpg,AFNE04.jpg,AFSA13.jpg,AFNE19.jpg,AFNE04.jpg,FN,3,num_6,32,num_4,2.55052853096,,,2017_Apr_12_1104,60.1123469831,MAFE4ImagesEEG,001,100209,
AFNE01.JPG,AFNE01.JPG,AFNE01.JPG,AFNE01.JPG,AFNE01.JPG,AFNE01.JPG,,,,,,,,,,,,,4,1,41,3,,,,,,,,,,,AFSA20.jpg,AFNE18.jpg,AFNE07.jpg,AFSA06.jpg,AFSA20.jpg,FS,4,num_8,32,num_6,0.433480028994,,,2017_Apr_12_1104,60.1123469831,MAFE4ImagesEEG,001,100209,
AFNE01.JPG,AFNE01.JPG,AFNE01.JPG,AFNE01.JPG,AFNE01.JPG,AFNE01.JPG,,,,,,,,,,,,,4,2,42,0,,,,,,,,,,,AFSA15.jpg,AFNE10.jpg,AFNE01.jpg,AFSA03.jpg,AFNE10.jpg,FN,3,num_6,32,num_4,0.617362666875,,,2017_Apr_12_1104,60.1123469831,MAFE4ImagesEEG,001,100209,
AFNE01.JPG,AFNE01.JPG,AFNE01.JPG,AFNE01.JPG,AFNE01.JPG,AFNE01.JPG,,,,,,,,,,,,,4,3,43,2,,,,,,,,,,,AFSA16.jpg,AFSA10.jpg,AFNE18.jpg,AFNE08.jpg,AFNE08.jpg,FN,3,num_4,32,num_8,0.634441734757,,,2017_Apr_12_1104,60.1123469831,MAFE4ImagesEEG,001,100209,
AFNE01.JPG,AFNE01.JPG,AFNE01.JPG,AFNE01.JPG,AFNE01.JPG,AFNE01.JPG,,,,,,,,,,,,,4,4,44,9,,,,,,,,,,,AFSA05.jpg,AFNE14.jpg,AFSA16.jpg,AFNE01.jpg,AFSA16.jpg,FS,4,num_2,16,num_2,0.465829514433,,,2017_Apr_12_1104,60.1123469831,MAFE4ImagesEEG,001,100209,
AFNE01.JPG,AFNE01.JPG,AFNE01.JPG,AFNE01.JPG,AFNE01.JPG,AFNE01.JPG,,,,,,,,,,,,,4,5,45,5,,,,,,,,,,,AFSA17.jpg,AFNE11.jpg,AFNE18.jpg,AFSA14.jpg,AFSA17.jpg,FS,4,num_8,32,num_6,0.883383213542,,,2017_Apr_12_1104,60.1123469831,MAFE4ImagesEEG,001,100209,
AFNE01.JPG,AFNE01.JPG,AFNE01.JPG,AFNE01.JPG,AFNE01.JPG,AFNE01.JPG,,,,,,,,,,,,,4,6,46,7,,,,,,,,,,,AFSA03.jpg,AFNE11.jpg,AFSA06.jpg,AFNE01.jpg,AFSA03.jpg,FS,4,num_8,32,num_2,0.350100856274,,,2017_Apr_12_1104,60.1123469831,MAFE4ImagesEEG,001,100209,
AFNE01.JPG,AFNE01.JPG,AFNE01.JPG,AFNE01.JPG,AFNE01.JPG,AFNE01.JPG,,,,,,,,,,,,,4,7,47,4,,,,,,,,,,,AFSA06.jpg,AFSA13.jpg,AFNE14.jpg,AFNE08.jpg,AFSA06.jpg,FS,4,num_8,32,num_4,0.650202883873,,,2017_Apr_12_1104,60.1123469831,MAFE4ImagesEEG,001,100209,
AFNE01.JPG,AFNE01.JPG,AFNE01.JPG,AFNE01.JPG,AFNE01.JPG,AFNE01.JPG,,,,,,,,,,,,,4,8,48,8,,,,,,,,,,,AFSA04.jpg,AFNE09.jpg,AFNE07.jpg,AFSA02.jpg,AFNE09.jpg,FN,3,num_6,32,num_4,0.799768297467,,,2017_Apr_12_1104,60.1123469831,MAFE4ImagesEEG,001,100209,
AFNE01.JPG,AFNE01.JPG,AFNE01.JPG,AFNE01.JPG,AFNE01.JPG,AFNE01.JPG,,,,,,,,,,,,,4,9,49,1,,,,,,,,,,,AFNE15.jpg,AFSA20.jpg,AFSA19.jpg,AFNE13.jpg,AFSA20.jpg,FS,4,num_6,16,num_6,0.61627856642,,,2017_Apr_12_1104,60.1123469831,MAFE4ImagesEEG,001,100209,
AFNE01.JPG,AFNE01.JPG,AFNE01.JPG,AFNE01.JPG,AFNE01.JPG,AFNE01.JPG,,,,,,,,,,,,,5,0,50,4,,,,,,,,,,,AFSA18.jpg,AFNE10.jpg,AFSA08.jpg,AFNE01.jpg,AFSA08.jpg,FS,4,num_2,32,num_4,0.71803836897,,,2017_Apr_12_1104,60.1123469831,MAFE4ImagesEEG,001,100209,
AFNE01.JPG,AFNE01.JPG,AFNE01.JPG,AFNE01.JPG,AFNE01.JPG,AFNE01.JPG,,,,,,,,,,,,,5,1,51,3,,,,,,,,,,,AFNE18.jpg,AFNE02.jpg,AFSA05.jpg,AFSA02.jpg,AFNE18.jpg,FN,3,num_8,16,num_8,0.618215192575,,,2017_Apr_12_1104,60.1123469831,MAFE4ImagesEEG,001,100209,
AFNE01.JPG,AFNE01.JPG,AFNE01.JPG,AFNE01.JPG,AFNE01.JPG,AFNE01.JPG,,,,,,,,,,,,,5,2,52,2,,,,,,,,,,,AFNE07.jpg,AFSA04.jpg,AFNE01.jpg,AFSA02.jpg,AFSA04.jpg,FS,4,num_6,32,num_2,0.284086211119,,,2017_Apr_12_1104,60.1123469831,MAFE4ImagesEEG,001,100209,
AFNE01.JPG,AFNE01.JPG,AFNE01.JPG,AFNE01.JPG,AFNE01.JPG,AFNE01.JPG,,,,,,,,,,,,,5,3,53,6,,,,,,,,,,,AFSA04.jpg,AFNE20.jpg,AFNE08.jpg,AFSA03.jpg,AFSA03.jpg,FS,4,num_4,32,num_2,0.84951213887,,,2017_Apr_12_1104,60.1123469831,MAFE4ImagesEEG,001,100209,
AFNE01.JPG,AFNE01.JPG,AFNE01.JPG,AFNE01.JPG,AFNE01.JPG,AFNE01.JPG,,,,,,,,,,,,,5,4,54,8,,,,,,,,,,,AFSA11.jpg,AFNE16.jpg,AFNE03.jpg,AFSA01.jpg,AFNE03.jpg,FN,3,num_2,32,num_6,0.833986092359,,,2017_Apr_12_1104,60.1123469831,MAFE4ImagesEEG,001,100209,
AFNE01.JPG,AFNE01.JPG,AFNE01.JPG,AFNE01.JPG,AFNE01.JPG,AFNE01.JPG,,,,,,,,,,,,,5,5,55,0,,,,,,,,,,,AFSA09.jpg,AFNE03.jpg,AFSA14.jpg,AFNE16.jpg,AFSA14.jpg,FS,4,num_2,16,num_2,0.350257377606,,,2017_Apr_12_1104,60.1123469831,MAFE4ImagesEEG,001,100209,
AFNE01.JPG,AFNE01.JPG,AFNE01.JPG,AFNE01.JPG,AFNE01.JPG,AFNE01.JPG,,,,,,,,,,,,,5,6,56,9,,,,,,,,,,,AFNE02.jpg,AFSA18.jpg,AFSA01.jpg,AFNE13.jpg,AFSA18.jpg,FS,4,num_6,32,num_4,0.566252474207,,,2017_Apr_12_1104,60.1123469831,MAFE4ImagesEEG,001,100209,
AFNE01.JPG,AFNE01.JPG,AFNE01.JPG,AFNE01.JPG,AFNE01.JPG,AFNE01.JPG,,,,,,,,,,,,,5,7,57,7,,,,,,,,,,,AFSA03.jpg,AFSA11.jpg,AFNE10.jpg,AFNE08.jpg,AFSA03.jpg,FS,4,num_8,32,num_6,0.283306172118,,,2017_Apr_12_1104,60.1123469831,MAFE4ImagesEEG,001,100209,
AFNE01.JPG,AFNE01.JPG,AFNE01.JPG,AFNE01.JPG,AFNE01.JPG,AFNE01.JPG,,,,,,,,,,,,,5,8,58,1,,,,,,,,,,,AFNE03.jpg,AFNE08.jpg,AFSA08.jpg,AFSA04.jpg,AFSA04.jpg,FS,4,num_4,32,num_8,0.916753934231,,,2017_Apr_12_1104,60.1123469831,MAFE4ImagesEEG,001,100209,
AFNE01.JPG,AFNE01.JPG,AFNE01.JPG,AFNE01.JPG,AFNE01.JPG,AFNE01.JPG,,,,,,,,,,,,,5,9,59,5,,,,,,,,,,,AFNE02.jpg,AFSA15.jpg,AFSA12.jpg,AFNE13.jpg,AFSA15.jpg,FS,4,num_6,32,num_8,0.950173407793,,,2017_Apr_12_1104,60.1123469831,MAFE4ImagesEEG,001,100209,
,,,,,,,,,,,,,,,,,,,,,,,,,,,,,,,,,,,,,,,,,,,space,38.248971628,2017_Apr_12_1104,60.1123469831,MAFE4ImagesEEG,001,100209,
AFNE01.JPG,AFNE01.JPG,AFNE01.JPG,AFNE01.JPG,AFNE01.JPG,AFNE01.JPG,,,,,,,,,,,,,,,,,0,0,0,6,,,,,,,AMSA19.jpg,AMSA07.jpg,AMNE18.jpg,AMNE13.jpg,AMSA07.jpg,MS,2,num_6,32,num_8,0.800045417156,,,2017_Apr_12_1104,60.1123469831,MAFE4ImagesEEG,001,100209,
AFNE01.JPG,AFNE01.JPG,AFNE01.JPG,AFNE01.JPG,AFNE01.JPG,AFNE01.JPG,,,,,,,,,,,,,,,,,0,1,1,7,,,,,,,AMSA07.jpg,AMNE06.jpg,AMSA12.jpg,AMNE16.jpg,AMNE06.jpg,MN,1,num_6,32,num_4,0.415673843585,,,2017_Apr_12_1104,60.1123469831,MAFE4ImagesEEG,001,100209,
AFNE01.JPG,AFNE01.JPG,AFNE01.JPG,AFNE01.JPG,AFNE01.JPG,AFNE01.JPG,,,,,,,,,,,,,,,,,0,2,2,0,,,,,,,AMNE03.jpg,AMNE10.jpg,AMSA11.jpg,AMSA09.jpg,AMSA11.jpg,MS,2,num_2,16,num_2,0.451881506946,,,2017_Apr_12_1104,60.1123469831,MAFE4ImagesEEG,001,100209,
AFNE01.JPG,AFNE01.JPG,AFNE01.JPG,AFNE01.JPG,AFNE01.JPG,AFNE01.JPG,,,,,,,,,,,,,,,,,0,3,3,5,,,,,,,AMNE15.jpg,AMNE05.jpg,AMSA09.jpg,AMSA13.jpg,AMSA13.jpg,MS,2,num_4,32,num_6,0.965919161681,,,2017_Apr_12_1104,60.1123469831,MAFE4ImagesEEG,001,100209,
AFNE01.JPG,AFNE01.JPG,AFNE01.JPG,AFNE01.JPG,AFNE01.JPG,AFNE01.JPG,,,,,,,,,,,,,,,,,0,4,4,9,,,,,,,AMNE03.jpg,AMSA15.jpg,AMNE07.jpg,AMSA01.jpg,AMNE07.jpg,MN,1,num_2,32,num_8,0.618253681343,,,2017_Apr_12_1104,60.1123469831,MAFE4ImagesEEG,001,100209,
AFNE01.JPG,AFNE01.JPG,AFNE01.JPG,AFNE01.JPG,AFNE01.JPG,AFNE01.JPG,,,,,,,,,,,,,,,,,0,5,5,8,,,,,,,AMNE04.jpg,AMNE18.jpg,AMSA19.jpg,AMSA05.jpg,AMSA19.jpg,MS,2,num_2,16,num_2,0.283470711205,,,2017_Apr_12_1104,60.1123469831,MAFE4ImagesEEG,001,100209,
AFNE01.JPG,AFNE01.JPG,AFNE01.JPG,AFNE01.JPG,AFNE01.JPG,AFNE01.JPG,,,,,,,,,,,,,,,,,0,6,6,1,,,,,,,AMSA07.jpg,AMNE16.jpg,AMNE10.jpg,AMSA06.jpg,AMNE16.jpg,MN,1,num_6,32,num_4,0.199061643798,,,2017_Apr_12_1104,60.1123469831,MAFE4ImagesEEG,001,100209,
AFNE01.JPG,AFNE01.JPG,AFNE01.JPG,AFNE01.JPG,AFNE01.JPG,AFNE01.JPG,,,,,,,,,,,,,,,,,0,7,7,4,,,,,,,AMNE04.jpg,AMNE13.jpg,AMSA15.jpg,AMSA18.jpg,AMSA18.jpg,MS,2,num_4,32,num_8,0.266923429444,,,2017_Apr_12_1104,60.1123469831,MAFE4ImagesEEG,001,100209,
AFNE01.JPG,AFNE01.JPG,AFNE01.JPG,AFNE01.JPG,AFNE01.JPG,AFNE01.JPG,,,,,,,,,,,,,,,,,0,8,8,2,,,,,,,AMNE15.jpg,AMNE10.jpg,AMSA06.jpg,AMSA12.jpg,AMSA06.jpg,MS,2,num_2,32,num_6,0.667057113722,,,2017_Apr_12_1104,60.1123469831,MAFE4ImagesEEG,001,100209,
AFNE01.JPG,AFNE01.JPG,AFNE01.JPG,AFNE01.JPG,AFNE01.JPG,AFNE01.JPG,,,,,,,,,,,,,,,,,0,9,9,3,,,,,,,AMSA09.jpg,AMNE11.jpg,AMNE03.jpg,AMSA10.jpg,AMSA09.jpg,MS,2,num_8,32,num_2,0.0151187074371,,,2017_Apr_12_1104,60.1123469831,MAFE4ImagesEEG,001,100209,
AFNE01.JPG,AFNE01.JPG,AFNE01.JPG,AFNE01.JPG,AFNE01.JPG,AFNE01.JPG,,,,,,,,,,,,,,,,,1,0,10,4,,,,,,,AMNE16.jpg,AMSA18.jpg,AMNE02.jpg,AMSA13.jpg,AMNE02.jpg,MN,1,num_2,32,num_4,0.350793012884,,,2017_Apr_12_1104,60.1123469831,MAFE4ImagesEEG,001,100209,
AFNE01.JPG,AFNE01.JPG,AFNE01.JPG,AFNE01.JPG,AFNE01.JPG,AFNE01.JPG,,,,,,,,,,,,,,,,,1,1,11,7,,,,,,,AMNE20.jpg,AMNE17.jpg,AMSA08.jpg,AMSA11.jpg,AMSA08.jpg,MS,2,num_2,16,num_2,0.483743147459,,,2017_Apr_12_1104,60.1123469831,MAFE4ImagesEEG,001,100209,
AFNE01.JPG,AFNE01.JPG,AFNE01.JPG,AFNE01.JPG,AFNE01.JPG,AFNE01.JPG,,,,,,,,,,,,,,,,,1,2,12,1,,,,,,,AMNE17.jpg,AMSA15.jpg,AMNE02.jpg,AMSA06.jpg,AMNE02.jpg,MN,1,num_2,32,num_6,0.601196102798,,,2017_Apr_12_1104,60.1123469831,MAFE4ImagesEEG,001,100209,
AFNE01.JPG,AFNE01.JPG,AFNE01.JPG,AFNE01.JPG,AFNE01.JPG,AFNE01.JPG,,,,,,,,,,,,,,,,,1,3,13,2,,,,,,,AMSA14.jpg,AMNE05.jpg,AMNE02.jpg,AMSA01.jpg,AMNE05.jpg,MN,1,num_6,32,num_2,0.700099397451,,,2017_Apr_12_1104,60.1123469831,MAFE4ImagesEEG,001,100209,
AFNE01.JPG,AFNE01.JPG,AFNE01.JPG,AFNE01.JPG,AFNE01.JPG,AFNE01.JPG,,,,,,,,,,,,,,,,,1,4,14,6,,,,,,,AMNE13.jpg,AMSA20.jpg,AMNE01.jpg,AMSA08.jpg,AMNE13.jpg,MN,1,num_8,16,num_8,0.550143322442,,,2017_Apr_12_1104,60.1123469831,MAFE4ImagesEEG,001,100209,
AFNE01.JPG,AFNE01.JPG,AFNE01.JPG,AFNE01.JPG,AFNE01.JPG,AFNE01.JPG,,,,,,,,,,,,,,,,,1,5,15,8,,,,,,,AMSA02.jpg,AMNE17.jpg,AMSA18.jpg,AMNE11.jpg,AMNE17.jpg,MN,1,num_6,32,num_8,0.600384310354,,,2017_Apr_12_1104,60.1123469831,MAFE4ImagesEEG,001,100209,
AFNE01.JPG,AFNE01.JPG,AFNE01.JPG,AFNE01.JPG,AFNE01.JPG,AFNE01.JPG,,,,,,,,,,,,,,,,,1,6,16,9,,,,,,,AMNE05.jpg,AMSA02.jpg,AMNE12.jpg,AMSA15.jpg,AMSA02.jpg,MS,2,num_6,32,num_4,0.566858672071,,,2017_Apr_12_1104,60.1123469831,MAFE4ImagesEEG,001,100209,
AFNE01.JPG,AFNE01.JPG,AFNE01.JPG,AFNE01.JPG,AFNE01.JPG,AFNE01.JPG,,,,,,,,,,,,,,,,,1,7,17,3,,,,,,,AMNE18.jpg,AMSA14.jpg,AMSA11.jpg,AMNE07.jpg,AMNE07.jpg,MN,1,num_4,32,num_2,0.950752343051,,,2017_Apr_12_1104,60.1123469831,MAFE4ImagesEEG,001,100209,
AFNE01.JPG,AFNE01.JPG,AFNE01.JPG,AFNE01.JPG,AFNE01.JPG,AFNE01.JPG,,,,,,,,,,,,,,,,,1,8,18,5,,,,,,,AMSA08.jpg,AMSA05.jpg,AMNE17.jpg,AMNE19.jpg,AMSA08.jpg,MS,2,num_8,32,num_6,2.21881311573,,,2017_Apr_12_1104,60.1123469831,MAFE4ImagesEEG,001,100209,
AFNE01.JPG,AFNE01.JPG,AFNE01.JPG,AFNE01.JPG,AFNE01.JPG,AFNE01.JPG,,,,,,,,,,,,,,,,,1,9,19,0,,,,,,,AMSA02.jpg,AMSA16.jpg,AMNE15.jpg,AMNE07.jpg,AMSA02.jpg,MS,2,num_8,32,num_4,0.466812902596,,,2017_Apr_12_1104,60.1123469831,MAFE4ImagesEEG,001,100209,
AFNE01.JPG,AFNE01.JPG,AFNE01.JPG,AFNE01.JPG,AFNE01.JPG,AFNE01.JPG,,,,,,,,,,,,,,,,,2,0,20,5,,,,,,,AMNE05.jpg,AMNE02.jpg,AMSA19.jpg,AMSA13.jpg,AMSA13.jpg,MS,2,num_4,32,num_8,0.750474133529,,,2017_Apr_12_1104,60.1123469831,MAFE4ImagesEEG,001,100209,
AFNE01.JPG,AFNE01.JPG,AFNE01.JPG,AFNE01.JPG,AFNE01.JPG,AFNE01.JPG,,,,,,,,,,,,,,,,,2,1,21,8,,,,,,,AMSA18.jpg,AMNE09.jpg,AMSA05.jpg,AMNE16.jpg,AMNE16.jpg,MN,1,num_4,16,num_4,0.701610401738,,,2017_Apr_12_1104,60.1123469831,MAFE4ImagesEEG,001,100209,
AFNE01.JPG,AFNE01.JPG,AFNE01.JPG,AFNE01.JPG,AFNE01.JPG,AFNE01.JPG,,,,,,,,,,,,,,,,,2,2,22,1,,,,,,,AMNE20.jpg,AMNE15.jpg,AMSA04.jpg,AMSA15.jpg,AMSA15.jpg,MS,2,num_4,32,num_8,0.633102325723,,,2017_Apr_12_1104,60.1123469831,MAFE4ImagesEEG,001,100209,
AFNE01.JPG,AFNE01.JPG,AFNE01.JPG,AFNE01.JPG,AFNE01.JPG,AFNE01.JPG,,,,,,,,,,,,,,,,,2,3,23,9,,,,,,,AMSA09.jpg,AMNE06.jpg,AMNE12.jpg,AMSA18.jpg,AMSA18.jpg,MS,2,num_4,32,num_2,0.699673134368,,,2017_Apr_12_1104,60.1123469831,MAFE4ImagesEEG,001,100209,
AFNE01.JPG,AFNE01.JPG,AFNE01.JPG,AFNE01.JPG,AFNE01.JPG,AFNE01.JPG,,,,,,,,,,,,,,,,,2,4,24,4,,,,,,,AMNE05.jpg,AMSA06.jpg,AMNE11.jpg,AMSA13.jpg,AMSA13.jpg,MS,2,num_4,16,num_4,0.966631203424,,,2017_Apr_12_1104,60.1123469831,MAFE4ImagesEEG,001,100209,
AFNE01.JPG,AFNE01.JPG,AFNE01.JPG,AFNE01.JPG,AFNE01.JPG,AFNE01.JPG,,,,,,,,,,,,,,,,,2,5,25,3,,,,,,,AMNE07.jpg,AMNE14.jpg,AMSA05.jpg,AMSA03.jpg,AMNE14.jpg,MN,1,num_6,16,num_6,0.735369859729,,,2017_Apr_12_1104,60.1123469831,MAFE4ImagesEEG,001,100209,
AFNE01.JPG,AFNE01.JPG,AFNE01.JPG,AFNE01.JPG,AFNE01.JPG,AFNE01.JPG,,,,,,,,,,,,,,,,,2,6,26,0,,,,,,,AMSA08.jpg,AMNE10.jpg,AMSA04.jpg,AMNE19.jpg,AMSA04.jpg,MS,2,num_2,32,num_8,0.699997722637,,,2017_Apr_12_1104,60.1123469831,MAFE4ImagesEEG,001,100209,
AFNE01.JPG,AFNE01.JPG,AFNE01.JPG,AFNE01.JPG,AFNE01.JPG,AFNE01.JPG,,,,,,,,,,,,,,,,,2,7,27,2,,,,,,,AMNE01.jpg,AMSA01.jpg,AMSA20.jpg,AMNE19.jpg,AMSA01.jpg,MS,2,num_6,32,num_8,1.43519342039,,,2017_Apr_12_1104,60.1123469831,MAFE4ImagesEEG,001,100209,
AFNE01.JPG,AFNE01.JPG,AFNE01.JPG,AFNE01.JPG,AFNE01.JPG,AFNE01.JPG,,,,,,,,,,,,,,,,,2,8,28,7,,,,,,,AMSA18.jpg,AMSA20.jpg,AMNE11.jpg,AMNE19.jpg,AMSA18.jpg,MS,2,num_8,32,num_6,1.01684621163,,,2017_Apr_12_1104,60.1123469831,MAFE4ImagesEEG,001,100209,
AFNE01.JPG,AFNE01.JPG,AFNE01.JPG,AFNE01.JPG,AFNE01.JPG,AFNE01.JPG,,,,,,,,,,,,,,,,,2,9,29,6,,,,,,,AMNE04.jpg,AMSA08.jpg,AMNE20.jpg,AMSA03.jpg,AMSA03.jpg,MS,2,num_4,16,num_4,0.56687470898,,,2017_Apr_12_1104,60.1123469831,MAFE4ImagesEEG,001,100209,
AFNE01.JPG,AFNE01.JPG,AFNE01.JPG,AFNE01.JPG,AFNE01.JPG,AFNE01.JPG,,,,,,,,,,,,,,,,,3,0,30,5,,,,,,,AMNE16.jpg,AMSA17.jpg,AMSA12.jpg,AMNE06.jpg,AMNE06.jpg,MN,1,num_4,32,num_8,0.650147075299,,,2017_Apr_12_1104,60.1123469831,MAFE4ImagesEEG,001,100209,
AFNE01.JPG,AFNE01.JPG,AFNE01.JPG,AFNE01.JPG,AFNE01.JPG,AFNE01.JPG,,,,,,,,,,,,,,,,,3,1,31,3,,,,,,,AMSA13.jpg,AMNE11.jpg,AMNE13.jpg,AMSA09.jpg,AMNE11.jpg,MN,1,num_6,16,num_6,0.583274771925,,,2017_Apr_12_1104,60.1123469831,MAFE4ImagesEEG,001,100209,
AFNE01.JPG,AFNE01.JPG,AFNE01.JPG,AFNE01.JPG,AFNE01.JPG,AFNE01.JPG,,,,,,,,,,,,,,,,,3,2,32,9,,,,,,,AMNE06.jpg,AMNE12.jpg,AMSA17.jpg,AMSA16.jpg,AMSA16.jpg,MS,2,num_4,32,num_2,0.335220779758,,,2017_Apr_12_1104,60.1123469831,MAFE4ImagesEEG,001,100209,
AFNE01.JPG,AFNE01.JPG,AFNE01.JPG,AFNE01.JPG,AFNE01.JPG,AFNE01.JPG,,,,,,,,,,,,,,,,,3,3,33,1,,,,,,,AMNE03.jpg,AMSA04.jpg,AMSA06.jpg,AMNE14.jpg,AMSA06.jpg,MS,2,num_2,32,num_6,2.03333864687,,,2017_Apr_12_1104,60.1123469831,MAFE4ImagesEEG,001,100209,
AFNE01.JPG,AFNE01.JPG,AFNE01.JPG,AFNE01.JPG,AFNE01.JPG,AFNE01.JPG,,,,,,,,,,,,,,,,,3,4,34,7,,,,,,,AMSA01.jpg,AMNE16.jpg,AMNE01.jpg,AMSA04.jpg,AMNE16.jpg,MN,1,num_6,32,num_8,0.600705049932,,,2017_Apr_12_1104,60.1123469831,MAFE4ImagesEEG,001,100209,
AFNE01.JPG,AFNE01.JPG,AFNE01.JPG,AFNE01.JPG,AFNE01.JPG,AFNE01.JPG,,,,,,,,,,,,,,,,,3,5,35,2,,,,,,,AMNE07.jpg,AMSA12.jpg,AMSA13.jpg,AMNE08.jpg,AMSA13.jpg,MS,2,num_2,16,num_2,0.550884872675,,,2017_Apr_12_1104,60.1123469831,MAFE4ImagesEEG,001,100209,
AFNE01.JPG,AFNE01.JPG,AFNE01.JPG,AFNE01.JPG,AFNE01.JPG,AFNE01.JPG,,,,,,,,,,,,,,,,,3,6,36,8,,,,,,,AMSA07.jpg,AMNE07.jpg,AMSA13.jpg,AMNE09.jpg,AMSA13.jpg,MS,2,num_2,32,num_4,0.499673006125,,,2017_Apr_12_1104,60.1123469831,MAFE4ImagesEEG,001,100209,
AFNE01.JPG,AFNE01.JPG,AFNE01.JPG,AFNE01.JPG,AFNE01.JPG,AFNE01.JPG,,,,,,,,,,,,,,,,,3,7,37,6,,,,,,,AMNE02.jpg,AMNE04.jpg,AMSA20.jpg,AMSA03.jpg,AMSA03.jpg,MS,2,num_4,32,num_8,0.650019099936,,,2017_Apr_12_1104,60.1123469831,MAFE4ImagesEEG,001,100209,
AFNE01.JPG,AFNE01.JPG,AFNE01.JPG,AFNE01.JPG,AFNE01.JPG,AFNE01.JPG,,,,,,,,,,,,,,,,,3,8,38,4,,,,,,,AMSA01.jpg,AMNE01.jpg,AMSA07.jpg,AMNE20.jpg,AMNE01.jpg,MN,1,num_6,16,num_6,0.551469581202,,,2017_Apr_12_1104,60.1123469831,MAFE4ImagesEEG,001,100209,
AFNE01.JPG,AFNE01.JPG,AFNE01.JPG,AFNE01.JPG,AFNE01.JPG,AFNE01.JPG,,,,,,,,,,,,,,,,,3,9,39,0,,,,,,,AMSA04.jpg,AMNE08.jpg,AMNE13.jpg,AMSA20.jpg,AMNE13.jpg,MN,1,num_2,32,num_6,1.13374204142,,,2017_Apr_12_1104,60.1123469831,MAFE4ImagesEEG,001,100209,
AFNE01.JPG,AFNE01.JPG,AFNE01.JPG,AFNE01.JPG,AFNE01.JPG,AFNE01.JPG,,,,,,,,,,,,,,,,,4,0,40,6,,,,,,,AMNE11.jpg,AMSA16.jpg,AMNE12.jpg,AMSA11.jpg,AMSA16.jpg,MS,2,num_6,32,num_2,0.567006533034,,,2017_Apr_12_1104,60.1123469831,MAFE4ImagesEEG,001,100209,
AFNE01.JPG,AFNE01.JPG,AFNE01.JPG,AFNE01.JPG,AFNE01.JPG,AFNE01.JPG,,,,,,,,,,,,,,,,,4,1,41,4,,,,,,,AMSA09.jpg,AMNE16.jpg,AMNE11.jpg,AMSA15.jpg,AMNE16.jpg,MN,1,num_6,32,num_4,0.534124619793,,,2017_Apr_12_1104,60.1123469831,MAFE4ImagesEEG,001,100209,
AFNE01.JPG,AFNE01.JPG,AFNE01.JPG,AFNE01.JPG,AFNE01.JPG,AFNE01.JPG,,,,,,,,,,,,,,,,,4,2,42,7,,,,,,,AMSA03.jpg,AMNE18.jpg,AMNE08.jpg,AMSA20.jpg,AMSA03.jpg,MS,2,num_8,16,num_8,0.518535707612,,,2017_Apr_12_1104,60.1123469831,MAFE4ImagesEEG,001,100209,
AFNE01.JPG,AFNE01.JPG,AFNE01.JPG,AFNE01.JPG,AFNE01.JPG,AFNE01.JPG,,,,,,,,,,,,,,,,,4,3,43,3,,,,,,,AMNE13.jpg,AMSA08.jpg,AMSA12.jpg,AMNE20.jpg,AMSA08.jpg,MS,2,num_6,32,num_2,1.08412457164,,,2017_Apr_12_1104,60.1123469831,MAFE4ImagesEEG,001,100209,
AFNE01.JPG,AFNE01.JPG,AFNE01.JPG,AFNE01.JPG,AFNE01.JPG,AFNE01.JPG,,,,,,,,,,,,,,,,,4,4,44,0,,,,,,,AMNE04.jpg,AMSA08.jpg,AMSA10.jpg,AMNE08.jpg,AMNE04.jpg,MN,1,num_8,32,num_6,0.918025025632,,,2017_Apr_12_1104,60.1123469831,MAFE4ImagesEEG,001,100209,
AFNE01.JPG,AFNE01.JPG,AFNE01.JPG,AFNE01.JPG,AFNE01.JPG,AFNE01.JPG,,,,,,,,,,,,,,,,,4,5,45,8,,,,,,,AMSA08.jpg,AMNE03.jpg,AMSA02.jpg,AMNE14.jpg,AMSA08.jpg,MS,2,num_8,32,num_4,0.885473153554,,,2017_Apr_12_1104,60.1123469831,MAFE4ImagesEEG,001,100209,
AFNE01.JPG,AFNE01.JPG,AFNE01.JPG,AFNE01.JPG,AFNE01.JPG,AFNE01.JPG,,,,,,,,,,,,,,,,,4,6,46,9,,,,,,,AMNE03.jpg,AMNE13.jpg,AMSA20.jpg,AMSA14.jpg,AMNE03.jpg,MN,1,num_8,16,num_8,0.633214905392,,,2017_Apr_12_1104,60.1123469831,MAFE4ImagesEEG,001,100209,
AFNE01.JPG,AFNE01.JPG,AFNE01.JPG,AFNE01.JPG,AFNE01.JPG,AFNE01.JPG,,,,,,,,,,,,,,,,,4,7,47,2,,,,,,,AMNE01.jpg,AMSA08.jpg,AMNE12.jpg,AMSA18.jpg,AMSA08.jpg,MS,2,num_6,16,num_6,0.917439676356,,,2017_Apr_12_1104,60.1123469831,MAFE4ImagesEEG,001,100209,
AFNE01.JPG,AFNE01.JPG,AFNE01.JPG,AFNE01.JPG,AFNE01.JPG,AFNE01.JPG,,,,,,,,,,,,,,,,,4,8,48,1,,,,,,,AMSA06.jpg,AMSA01.jpg,AMNE01.jpg,AMNE08.jpg,AMNE08.jpg,MN,1,num_4,32,num_8,0.584081752691,,,2017_Apr_12_1104,60.1123469831,MAFE4ImagesEEG,001,100209,
AFNE01.JPG,AFNE01.JPG,AFNE01.JPG,AFNE01.JPG,AFNE01.JPG,AFNE01.JPG,,,,,,,,,,,,,,,,,4,9,49,5,,,,,,,AMNE14.jpg,AMNE03.jpg,AMSA20.jpg,AMSA13.jpg,AMNE03.jpg,MN,1,num_6,32,num_2,1.68211456016,,,2017_Apr_12_1104,60.1123469831,MAFE4ImagesEEG,001,100209,
AFNE01.JPG,AFNE01.JPG,AFNE01.JPG,AFNE01.JPG,AFNE01.JPG,AFNE01.JPG,,,,,,,,,,,,,,,,,5,0,50,5,,,,,,,AMSA03.jpg,AMSA12.jpg,AMNE17.jpg,AMNE11.jpg,AMNE17.jpg,MN,1,num_2,32,num_8,0.88288029423,,,2017_Apr_12_1104,60.1123469831,MAFE4ImagesEEG,001,100209,
AFNE01.JPG,AFNE01.JPG,AFNE01.JPG,AFNE01.JPG,AFNE01.JPG,AFNE01.JPG,,,,,,,,,,,,,,,,,5,1,51,6,,,,,,,AMSA11.jpg,AMNE12.jpg,AMNE04.jpg,AMSA12.jpg,AMNE04.jpg,MN,1,num_2,32,num_6,0.866691919509,,,2017_Apr_12_1104,60.1123469831,MAFE4ImagesEEG,001,100209,
AFNE01.JPG,AFNE01.JPG,AFNE01.JPG,AFNE01.JPG,AFNE01.JPG,AFNE01.JPG,,,,,,,,,,,,,,,,,5,2,52,8,,,,,,,AMSA01.jpg,AMNE06.jpg,AMSA05.jpg,AMNE20.jpg,AMNE20.jpg,MN,1,num_4,32,num_8,0.568942838814,,,2017_Apr_12_1104,60.1123469831,MAFE4ImagesEEG,001,100209,
AFNE01.JPG,AFNE01.JPG,AFNE01.JPG,AFNE01.JPG,AFNE01.JPG,AFNE01.JPG,,,,,,,,,,,,,,,,,5,3,53,0,,,,,,,AMSA18.jpg,AMNE09.jpg,AMSA02.jpg,AMNE10.jpg,AMSA02.jpg,MS,2,num_2,16,num_2,0.916963377502,,,2017_Apr_12_1104,60.1123469831,MAFE4ImagesEEG,001,100209,
AFNE01.JPG,AFNE01.JPG,AFNE01.JPG,AFNE01.JPG,AFNE01.JPG,AFNE01.JPG,,,,,,,,,,,,,,,,,5,4,54,4,,,,,,,AMNE02.jpg,AMNE15.jpg,AMSA10.jpg,AMSA15.jpg,AMNE15.jpg,MN,1,num_6,16,num_6,0.700288954191,,,2017_Apr_12_1104,60.1123469831,MAFE4ImagesEEG,001,100209,
AFNE01.JPG,AFNE01.JPG,AFNE01.JPG,AFNE01.JPG,AFNE01.JPG,AFNE01.JPG,,,,,,,,,,,,,,,,,5,5,55,2,,,,,,,AMSA09.jpg,AMSA13.jpg,AMNE11.jpg,AMNE12.jpg,AMSA09.jpg,MS,2,num_8,32,num_4,0.717600558884,,,2017_Apr_12_1104,60.1123469831,MAFE4ImagesEEG,001,100209,
AFNE01.JPG,AFNE01.JPG,AFNE01.JPG,AFNE01.JPG,AFNE01.JPG,AFNE01.JPG,,,,,,,,,,,,,,,,,5,6,56,9,,,,,,,AMNE20.jpg,AMSA07.jpg,AMNE12.jpg,AMSA20.jpg,AMSA20.jpg,MS,2,num_4,32,num_6,0.582854282111,,,2017_Apr_12_1104,60.1123469831,MAFE4ImagesEEG,001,100209,
AFNE01.JPG,AFNE01.JPG,AFNE01.JPG,AFNE01.JPG,AFNE01.JPG,AFNE01.JPG,,,,,,,,,,,,,,,,,5,7,57,3,,,,,,,AMSA07.jpg,AMSA09.jpg,AMNE20.jpg,AMNE08.jpg,AMSA09.jpg,MS,2,num_6,32,num_2,0.616259001195,,,2017_Apr_12_1104,60.1123469831,MAFE4ImagesEEG,001,100209,
AFNE01.JPG,AFNE01.JPG,AFNE01.JPG,AFNE01.JPG,AFNE01.JPG,AFNE01.JPG,,,,,,,,,,,,,,,,,5,8,58,1,,,,,,,AMNE11.jpg,AMNE13.jpg,AMSA12.jpg,AMSA03.jpg,AMSA03.jpg,MS,2,num_4,16,num_4,0.416459976695,,,2017_Apr_12_1104,60.1123469831,MAFE4ImagesEEG,001,100209,
AFNE01.JPG,AFNE01.JPG,AFNE01.JPG,AFNE01.JPG,AFNE01.JPG,AFNE01.JPG,,,,,,,,,,,,,,,,,5,9,59,7,,,,,,,AMNE02.jpg,AMNE18.jpg,AMSA17.jpg,AMSA07.jpg,AMNE02.jpg,MN,1,num_8,16,num_8,1.01561072236,,,2017_Apr_12_1104,60.1123469831,MAFE4ImagesEEG,001,100209,
,,,,,,,,,,,,,,,,,,,,,,,,,,,,,,,,,,,,,,,,,,,space,21.2148227929,2017_Apr_12_1104,60.1123469831,MAFE4ImagesEEG,001,100209,
AFNE01.JPG,AFNE01.JPG,AFNE01.JPG,AFNE01.JPG,AFNE01.JPG,AFNE01.JPG,,,,,,,,,,,,,,,,,,,,,0,0,0,1,,,AFSA15.jpg,AFNE02.jpg,AFNE18.jpg,AFSA13.jpg,AFNE02.jpg,FN,3,num_6,32,num_4,0.701349961571,,,2017_Apr_12_1104,60.1123469831,MAFE4ImagesEEG,001,100209,
AFNE01.JPG,AFNE01.JPG,AFNE01.JPG,AFNE01.JPG,AFNE01.JPG,AFNE01.JPG,,,,,,,,,,,,,,,,,,,,,0,1,1,4,,,AFNE20.jpg,AFSA06.jpg,AFSA01.jpg,AFNE07.jpg,AFSA06.jpg,FS,4,num_6,16,num_6,0.550867552869,,,2017_Apr_12_1104,60.1123469831,MAFE4ImagesEEG,001,100209,
AFNE01.JPG,AFNE01.JPG,AFNE01.JPG,AFNE01.JPG,AFNE01.JPG,AFNE01.JPG,,,,,,,,,,,,,,,,,,,,,0,2,2,6,,,AFSA07.jpg,AFNE10.jpg,AFSA16.jpg,AFNE19.jpg,AFNE19.jpg,FN,3,num_4,32,num_8,0.650215392932,,,2017_Apr_12_1104,60.1123469831,MAFE4ImagesEEG,001,100209,
AFNE01.JPG,AFNE01.JPG,AFNE01.JPG,AFNE01.JPG,AFNE01.JPG,AFNE01.JPG,,,,,,,,,,,,,,,,,,,,,0,3,3,0,,,AFSA09.jpg,AFNE11.jpg,AFSA08.jpg,AFNE13.jpg,AFNE11.jpg,FN,3,num_6,32,num_4,0.598086852115,,,2017_Apr_12_1104,60.1123469831,MAFE4ImagesEEG,001,100209,
AFNE01.JPG,AFNE01.JPG,AFNE01.JPG,AFNE01.JPG,AFNE01.JPG,AFNE01.JPG,,,,,,,,,,,,,,,,,,,,,0,4,4,8,,,AFNE04.jpg,AFSA02.jpg,AFSA09.jpg,AFNE19.jpg,AFNE04.jpg,FN,3,num_8,32,num_6,0.316372190136,,,2017_Apr_12_1104,60.1123469831,MAFE4ImagesEEG,001,100209,
AFNE01.JPG,AFNE01.JPG,AFNE01.JPG,AFNE01.JPG,AFNE01.JPG,AFNE01.JPG,,,,,,,,,,,,,,,,,,,,,0,5,5,3,,,AFNE12.jpg,AFSA19.jpg,AFSA01.jpg,AFNE09.jpg,AFSA19.jpg,FS,4,num_6,32,num_8,0.599601063877,,,2017_Apr_12_1104,60.1123469831,MAFE4ImagesEEG,001,100209,
AFNE01.JPG,AFNE01.JPG,AFNE01.JPG,AFNE01.JPG,AFNE01.JPG,AFNE01.JPG,,,,,,,,,,,,,,,,,,,,,0,6,6,7,,,AFSA12.jpg,AFNE07.jpg,AFSA05.jpg,AFNE17.jpg,AFSA05.jpg,FS,4,num_2,32,num_4,0.500884439796,,,2017_Apr_12_1104,60.1123469831,MAFE4ImagesEEG,001,100209,
AFNE01.JPG,AFNE01.JPG,AFNE01.JPG,AFNE01.JPG,AFNE01.JPG,AFNE01.JPG,,,,,,,,,,,,,,,,,,,,,0,7,7,2,,,AFSA19.jpg,AFSA06.jpg,AFNE09.jpg,AFNE19.jpg,AFNE19.jpg,FN,3,num_4,32,num_8,0.531678017229,,,2017_Apr_12_1104,60.1123469831,MAFE4ImagesEEG,001,100209,
AFNE01.JPG,AFNE01.JPG,AFNE01.JPG,AFNE01.JPG,AFNE01.JPG,AFNE01.JPG,,,,,,,,,,,,,,,,,,,,,0,8,8,9,,,AFNE20.jpg,AFNE03.jpg,AFSA01.jpg,AFSA08.jpg,AFSA08.jpg,FS,4,num_4,16,num_4,0.883464040235,,,2017_Apr_12_1104,60.1123469831,MAFE4ImagesEEG,001,100209,
AFNE01.JPG,AFNE01.JPG,AFNE01.JPG,AFNE01.JPG,AFNE01.JPG,AFNE01.JPG,,,,,,,,,,,,,,,,,,,,,0,9,9,5,,,AFNE20.jpg,AFSA14.jpg,AFSA04.jpg,AFNE04.jpg,AFNE04.jpg,FN,3,num_4,32,num_6,0.901881875936,,,2017_Apr_12_1104,60.1123469831,MAFE4ImagesEEG,001,100209,
AFNE01.JPG,AFNE01.JPG,AFNE01.JPG,AFNE01.JPG,AFNE01.JPG,AFNE01.JPG,,,,,,,,,,,,,,,,,,,,,1,0,10,1,,,AFSA20.jpg,AFNE14.jpg,AFSA13.jpg,AFNE06.jpg,AFNE06.jpg,FN,3,num_4,16,num_4,0.666166419629,,,2017_Apr_12_1104,60.1123469831,MAFE4ImagesEEG,001,100209,
AFNE01.JPG,AFNE01.JPG,AFNE01.JPG,AFNE01.JPG,AFNE01.JPG,AFNE01.JPG,,,,,,,,,,,,,,,,,,,,,1,1,11,6,,,AFNE02.jpg,AFNE10.jpg,AFSA04.jpg,AFSA08.jpg,AFNE10.jpg,FN,3,num_6,16,num_6,0.898550673388,,,2017_Apr_12_1104,60.1123469831,MAFE4ImagesEEG,001,100209,
AFNE01.JPG,AFNE01.JPG,AFNE01.JPG,AFNE01.JPG,AFNE01.JPG,AFNE01.JPG,,,,,,,,,,,,,,,,,,,,,1,2,12,3,,,AFSA17.jpg,AFNE10.jpg,AFSA01.jpg,AFNE01.jpg,AFNE01.jpg,FN,3,num_4,32,num_8,0.568927122746,,,2017_Apr_12_1104,60.1123469831,MAFE4ImagesEEG,001,100209,
AFNE01.JPG,AFNE01.JPG,AFNE01.JPG,AFNE01.JPG,AFNE01.JPG,AFNE01.JPG,,,,,,,,,,,,,,,,,,,,,1,3,13,5,,,AFNE17.jpg,AFNE15.jpg,AFSA15.jpg,AFSA16.jpg,AFNE17.jpg,FN,3,num_8,16,num_8,0.584718741477,,,2017_Apr_12_1104,60.1123469831,MAFE4ImagesEEG,001,100209,
AFNE01.JPG,AFNE01.JPG,AFNE01.JPG,AFNE01.JPG,AFNE01.JPG,AFNE01.JPG,,,,,,,,,,,,,,,,,,,,,1,4,14,0,,,AFSA08.jpg,AFSA15.jpg,AFNE05.jpg,AFNE01.jpg,AFNE01.jpg,FN,3,num_4,16,num_4,1.01683177799,,,2017_Apr_12_1104,60.1123469831,MAFE4ImagesEEG,001,100209,
AFNE01.JPG,AFNE01.JPG,AFNE01.JPG,AFNE01.JPG,AFNE01.JPG,AFNE01.JPG,,,,,,,,,,,,,,,,,,,,,1,5,15,9,,,AFSA01.jpg,AFNE14.jpg,AFSA08.jpg,AFNE18.jpg,AFNE18.jpg,FN,3,num_4,16,num_4,0.449682836421,,,2017_Apr_12_1104,60.1123469831,MAFE4ImagesEEG,001,100209,
AFNE01.JPG,AFNE01.JPG,AFNE01.JPG,AFNE01.JPG,AFNE01.JPG,AFNE01.JPG,,,,,,,,,,,,,,,,,,,,,1,6,16,8,,,AFSA02.jpg,AFNE10.jpg,AFSA06.jpg,AFNE06.jpg,AFNE06.jpg,FN,3,num_4,16,num_4,0.783330067527,,,2017_Apr_12_1104,60.1123469831,MAFE4ImagesEEG,001,100209,
AFNE01.JPG,AFNE01.JPG,AFNE01.JPG,AFNE01.JPG,AFNE01.JPG,AFNE01.JPG,,,,,,,,,,,,,,,,,,,,,1,7,17,7,,,AFNE02.jpg,AFNE18.jpg,AFSA05.jpg,AFSA03.jpg,AFNE18.jpg,FN,3,num_6,16,num_6,0.48275815649,,,2017_Apr_12_1104,60.1123469831,MAFE4ImagesEEG,001,100209,
AFNE01.JPG,AFNE01.JPG,AFNE01.JPG,AFNE01.JPG,AFNE01.JPG,AFNE01.JPG,,,,,,,,,,,,,,,,,,,,,1,8,18,4,,,AFNE11.jpg,AFSA01.jpg,AFSA12.jpg,AFNE03.jpg,AFNE03.jpg,FN,3,num_4,16,num_4,0.566827560309,,,2017_Apr_12_1104,60.1123469831,MAFE4ImagesEEG,001,100209,
AFNE01.JPG,AFNE01.JPG,AFNE01.JPG,AFNE01.JPG,AFNE01.JPG,AFNE01.JPG,,,,,,,,,,,,,,,,,,,,,1,9,19,2,,,AFNE19.jpg,AFSA07.jpg,AFSA08.jpg,AFNE18.jpg,AFNE19.jpg,FN,3,num_8,32,num_2,0.702353555709,,,2017_Apr_12_1104,60.1123469831,MAFE4ImagesEEG,001,100209,
AFNE01.JPG,AFNE01.JPG,AFNE01.JPG,AFNE01.JPG,AFNE01.JPG,AFNE01.JPG,,,,,,,,,,,,,,,,,,,,,2,0,20,3,,,AFNE09.jpg,AFSA15.jpg,AFSA07.jpg,AFNE02.jpg,AFSA07.jpg,FS,4,num_2,16,num_2,0.65163659025,,,2017_Apr_12_1104,60.1123469831,MAFE4ImagesEEG,001,100209,
AFNE01.JPG,AFNE01.JPG,AFNE01.JPG,AFNE01.JPG,AFNE01.JPG,AFNE01.JPG,,,,,,,,,,,,,,,,,,,,,2,1,21,8,,,AFNE06.jpg,AFNE08.jpg,AFSA19.jpg,AFSA15.jpg,AFNE08.jpg,FN,3,num_6,16,num_6,0.650020062458,,,2017_Apr_12_1104,60.1123469831,MAFE4ImagesEEG,001,100209,
AFNE01.JPG,AFNE01.JPG,AFNE01.JPG,AFNE01.JPG,AFNE01.JPG,AFNE01.JPG,,,,,,,,,,,,,,,,,,,,,2,2,22,2,,,AFNE14.jpg,AFSA02.jpg,AFSA01.jpg,AFNE04.jpg,AFSA01.jpg,FS,4,num_2,16,num_2,0.89916905947,,,2017_Apr_12_1104,60.1123469831,MAFE4ImagesEEG,001,100209,
AFNE01.JPG,AFNE01.JPG,AFNE01.JPG,AFNE01.JPG,AFNE01.JPG,AFNE01.JPG,,,,,,,,,,,,,,,,,,,,,2,3,23,7,,,AFSA06.jpg,AFNE14.jpg,AFNE20.jpg,AFSA02.jpg,AFNE14.jpg,FN,3,num_6,16,num_6,0.468482352793,,,2017_Apr_12_1104,60.1123469831,MAFE4ImagesEEG,001,100209,
AFNE01.JPG,AFNE01.JPG,AFNE01.JPG,AFNE01.JPG,AFNE01.JPG,AFNE01.JPG,,,,,,,,,,,,,,,,,,,,,2,4,24,0,,,AFSA01.jpg,AFNE16.jpg,AFNE06.jpg,AFSA09.jpg,AFNE16.jpg,FN,3,num_6,32,num_8,0.699834786821,,,2017_Apr_12_1104,60.1123469831,MAFE4ImagesEEG,001,100209,
AFNE01.JPG,AFNE01.JPG,AFNE01.JPG,AFNE01.JPG,AFNE01.JPG,AFNE01.JPG,,,,,,,,,,,,,,,,,,,,,2,5,25,9,,,AFNE10.jpg,AFSA13.jpg,AFNE13.jpg,AFSA11.jpg,AFSA13.jpg,FS,4,num_6,32,num_8,0.617097093724,,,2017_Apr_12_1104,60.1123469831,MAFE4ImagesEEG,001,100209,
AFNE01.JPG,AFNE01.JPG,AFNE01.JPG,AFNE01.JPG,AFNE01.JPG,AFNE01.JPG,,,,,,,,,,,,,,,,,,,,,2,6,26,5,,,AFSA03.jpg,AFNE20.jpg,AFNE11.jpg,AFSA16.jpg,AFSA16.jpg,FS,4,num_4,16,num_4,0.883980751503,,,2017_Apr_12_1104,60.1123469831,MAFE4ImagesEEG,001,100209,
AFNE01.JPG,AFNE01.JPG,AFNE01.JPG,AFNE01.JPG,AFNE01.JPG,AFNE01.JPG,,,,,,,,,,,,,,,,,,,,,2,7,27,6,,,AFSA14.jpg,AFNE18.jpg,AFNE11.jpg,AFSA20.jpg,AFSA14.jpg,FS,4,num_8,32,num_2,0.698093170766,,,2017_Apr_12_1104,60.1123469831,MAFE4ImagesEEG,001,100209,
AFNE01.JPG,AFNE01.JPG,AFNE01.JPG,AFNE01.JPG,AFNE01.JPG,AFNE01.JPG,,,,,,,,,,,,,,,,,,,,,2,8,28,1,,,AFNE02.jpg,AFNE01.jpg,AFSA10.jpg,AFSA08.jpg,AFSA08.jpg,FS,4,num_4,16,num_4,0.534010115545,,,2017_Apr_12_1104,60.1123469831,MAFE4ImagesEEG,001,100209,
AFNE01.JPG,AFNE01.JPG,AFNE01.JPG,AFNE01.JPG,AFNE01.JPG,AFNE01.JPG,,,,,,,,,,,,,,,,,,,,,2,9,29,4,,,AFNE08.jpg,AFSA18.jpg,AFSA06.jpg,AFNE20.jpg,AFSA06.jpg,FS,4,num_2,32,num_6,0.764760842081,,,2017_Apr_12_1104,60.1123469831,MAFE4ImagesEEG,001,100209,
AFNE01.JPG,AFNE01.JPG,AFNE01.JPG,AFNE01.JPG,AFNE01.JPG,AFNE01.JPG,,,,,,,,,,,,,,,,,,,,,3,0,30,6,,,AFSA18.jpg,AFSA04.jpg,AFNE07.jpg,AFNE19.jpg,AFSA18.jpg,FS,4,num_8,16,num_8,0.74501033267,,,2017_Apr_12_1104,60.1123469831,MAFE4ImagesEEG,001,100209,
AFNE01.JPG,AFNE01.JPG,AFNE01.JPG,AFNE01.JPG,AFNE01.JPG,AFNE01.JPG,,,,,,,,,,,,,,,,,,,,,3,1,31,1,,,AFSA17.jpg,AFNE01.jpg,AFSA08.jpg,AFNE17.jpg,AFSA08.jpg,FS,4,num_2,16,num_2,0.50084402645,,,2017_Apr_12_1104,60.1123469831,MAFE4ImagesEEG,001,100209,
AFNE01.JPG,AFNE01.JPG,AFNE01.JPG,AFNE01.JPG,AFNE01.JPG,AFNE01.JPG,,,,,,,,,,,,,,,,,,,,,3,2,32,7,,,AFNE01.jpg,AFNE08.jpg,AFSA05.jpg,AFSA18.jpg,AFSA05.jpg,FS,4,num_2,32,num_6,1.14998782799,,,2017_Apr_12_1104,60.1123469831,MAFE4ImagesEEG,001,100209,
AFNE01.JPG,AFNE01.JPG,AFNE01.JPG,AFNE01.JPG,AFNE01.JPG,AFNE01.JPG,,,,,,,,,,,,,,,,,,,,,3,3,33,0,,,AFSA07.jpg,AFSA16.jpg,AFNE04.jpg,AFNE14.jpg,AFNE04.jpg,FN,3,num_2,16,num_2,0.848351382185,,,2017_Apr_12_1104,60.1123469831,MAFE4ImagesEEG,001,100209,
AFNE01.JPG,AFNE01.JPG,AFNE01.JPG,AFNE01.JPG,AFNE01.JPG,AFNE01.JPG,,,,,,,,,,,,,,,,,,,,,3,4,34,2,,,AFNE19.jpg,AFSA11.jpg,AFSA06.jpg,AFNE17.jpg,AFNE17.jpg,FN,3,num_4,32,num_8,0.831756630447,,,2017_Apr_12_1104,60.1123469831,MAFE4ImagesEEG,001,100209,
AFNE01.JPG,AFNE01.JPG,AFNE01.JPG,AFNE01.JPG,AFNE01.JPG,AFNE01.JPG,,,,,,,,,,,,,,,,,,,,,3,5,35,3,,,AFSA14.jpg,AFSA03.jpg,AFNE04.jpg,AFNE11.jpg,AFNE11.jpg,FN,3,num_4,16,num_4,1.09951173794,,,2017_Apr_12_1104,60.1123469831,MAFE4ImagesEEG,001,100209,
AFNE01.JPG,AFNE01.JPG,AFNE01.JPG,AFNE01.JPG,AFNE01.JPG,AFNE01.JPG,,,,,,,,,,,,,,,,,,,,,3,6,36,4,,,AFNE03.jpg,AFNE18.jpg,AFSA16.jpg,AFSA13.jpg,AFSA13.jpg,FS,4,num_4,16,num_4,0.501281194855,,,2017_Apr_12_1104,60.1123469831,MAFE4ImagesEEG,001,100209,
AFNE01.JPG,AFNE01.JPG,AFNE01.JPG,AFNE01.JPG,AFNE01.JPG,AFNE01.JPG,,,,,,,,,,,,,,,,,,,,,3,7,37,8,,,AFNE16.jpg,AFNE06.jpg,AFSA07.jpg,AFSA09.jpg,AFSA09.jpg,FS,4,num_4,16,num_4,0.633495552931,,,2017_Apr_12_1104,60.1123469831,MAFE4ImagesEEG,001,100209,
AFNE01.JPG,AFNE01.JPG,AFNE01.JPG,AFNE01.JPG,AFNE01.JPG,AFNE01.JPG,,,,,,,,,,,,,,,,,,,,,3,8,38,9,,,AFSA13.jpg,AFNE13.jpg,AFSA02.jpg,AFNE15.jpg,AFSA13.jpg,FS,4,num_8,32,num_6,0.833131320775,,,2017_Apr_12_1104,60.1123469831,MAFE4ImagesEEG,001,100209,
