IPosition2,IPosition3,IPosition1,IPosition6,IPosition4,IPosition5,TrialsM1.thisRepN,TrialsM1.thisTrialN,TrialsM1.thisN,TrialsM1.thisIndex,TrialsF1.thisRepN,TrialsF1.thisTrialN,TrialsF1.thisN,TrialsF1.thisIndex,TrialsM2.thisRepN,TrialsM2.thisTrialN,TrialsM2.thisN,TrialsM2.thisIndex,TrialsF2.thisRepN,TrialsF2.thisTrialN,TrialsF2.thisN,TrialsF2.thisIndex,TrialsM3.thisRepN,TrialsM3.thisTrialN,TrialsM3.thisN,TrialsM3.thisIndex,TrialsF3.thisRepN,TrialsF3.thisTrialN,TrialsF3.thisN,TrialsF3.thisIndex,InstrKey_resp.keys,InstrKey_resp.rt,Image0 _Position,Image1 _Position,Image2 _Position,Image3 _Position,Center_image,condition,code,correct_answer,accuracy,Key_Resp.keys,Key_Resp.rt,BreakKey_resp.keys,BreakKey_resp.rt,date,frameRate,expName,session,participant,
,,,,,,,,,,,,,,,,,,,,,,,,,,,,,,space,43.8804470718,,,,,,,,,,,,,,2017_Apr_21_1520,60.008218464,MAFE4ImagesEEG,001,100221,
AMSA21.JPG,AMNE22.JPG,AMNE21.JPG,AMSA23.JPG,AMSA22.JPG,AMNE23.JPG,0,0,0,1,,,,,,,,,,,,,,,,,,,,,,,AMSA10.jpg,AMNE07.jpg,AMSA19.jpg,AMNE04.jpg,AMSA10.jpg,MS,2,num_8,16,num_8,1.66642365331,,,2017_Apr_21_1520,60.008218464,MAFE4ImagesEEG,001,100221,
AFNE23.JPG,AFNE24.JPG,AFNE22.JPG,AFSA24.JPG,AFSA22.JPG,AFSA23.JPG,0,1,1,8,,,,,,,,,,,,,,,,,,,,,,,AMNE20.jpg,AMSA07.jpg,AMSA01.jpg,AMNE06.jpg,AMNE20.jpg,MN,1,num_8,32,num_2,1.28339286789,,,2017_Apr_21_1520,60.008218464,MAFE4ImagesEEG,001,100221,
AFSA25.JPG,AFNE24.JPG,AFSA24.JPG,AFNE21.JPG,AFSA21.JPG,AFNE25.JPG,0,2,2,2,,,,,,,,,,,,,,,,,,,,,,,AMSA06.jpg,AMNE06.jpg,AMNE08.jpg,AMSA14.jpg,AMNE06.jpg,MN,1,num_6,32,num_8,0.983425166283,,,2017_Apr_21_1520,60.008218464,MAFE4ImagesEEG,001,100221,
AMNE23.JPG,AMNE24.JPG,AMNE22.JPG,AMSA24.JPG,AMSA22.JPG,AMSA23.JPG,0,3,3,9,,,,,,,,,,,,,,,,,,,,,,,AMSA18.jpg,AMNE01.jpg,AMSA15.jpg,AMNE16.jpg,AMNE16.jpg,MN,1,num_4,16,num_4,1.25008892495,,,2017_Apr_21_1520,60.008218464,MAFE4ImagesEEG,001,100221,
AFSA21.JPG,AFNE23.JPG,AFNE21.JPG,AFSA25.JPG,AFNE25.JPG,AFSA23.JPG,0,4,4,4,,,,,,,,,,,,,,,,,,,,,,,AMNE10.jpg,AMNE20.jpg,AMSA09.jpg,AMSA07.jpg,AMSA07.jpg,MS,2,num_4,32,num_8,1.2000962859,,,2017_Apr_21_1520,60.008218464,MAFE4ImagesEEG,001,100221,
AFNE22.JPG,AFSA24.JPG,AFSA22.JPG,AFNE25.JPG,AFNE24.JPG,AFSA25.JPG,0,5,5,6,,,,,,,,,,,,,,,,,,,,,,,AMSA02.jpg,AMNE03.jpg,AMSA06.jpg,AMNE18.jpg,AMNE18.jpg,MN,1,num_4,16,num_4,0.68345938914,,,2017_Apr_21_1520,60.008218464,MAFE4ImagesEEG,001,100221,
AMSA25.JPG,AMNE24.JPG,AMSA24.JPG,AMNE26.JPG,AMSA21.JPG,AMNE25.JPG,0,6,6,3,,,,,,,,,,,,,,,,,,,,,,,AMNE02.jpg,AMSA17.jpg,AMNE16.jpg,AMSA11.jpg,AMNE16.jpg,MN,1,num_2,16,num_2,1.20004945801,,,2017_Apr_21_1520,60.008218464,MAFE4ImagesEEG,001,100221,
AMSA21.JPG,AMNE23.JPG,AMNE21.JPG,AMSA25.JPG,AMNE25.JPG,AMSA23.JPG,0,7,7,5,,,,,,,,,,,,,,,,,,,,,,,AMSA04.jpg,AMSA08.jpg,AMNE17.jpg,AMNE20.jpg,AMSA08.jpg,MS,2,num_6,32,num_8,1.75011506514,,,2017_Apr_21_1520,60.008218464,MAFE4ImagesEEG,001,100221,
AFSA21.JPG,AFNE22.JPG,AFNE21.JPG,AFSA23.JPG,AFSA22.JPG,AFNE23.JPG,0,8,8,0,,,,,,,,,,,,,,,,,,,,,,,AMNE02.jpg,AMNE06.jpg,AMSA01.jpg,AMSA18.jpg,AMSA18.jpg,MS,2,num_4,16,num_4,1.33341886377,,,2017_Apr_21_1520,60.008218464,MAFE4ImagesEEG,001,100221,
AMNE22.JPG,AMSA24.JPG,AMSA22.JPG,AMNE25.JPG,AMNE24.JPG,AMSA25.JPG,0,9,9,7,,,,,,,,,,,,,,,,,,,,,,,AMNE19.jpg,AMSA03.jpg,AMNE10.jpg,AMSA13.jpg,AMNE10.jpg,MN,1,num_2,16,num_2,1.30006488552,,,2017_Apr_21_1520,60.008218464,MAFE4ImagesEEG,001,100221,
AFSA21.JPG,AFNE23.JPG,AFNE21.JPG,AFSA25.JPG,AFNE25.JPG,AFSA23.JPG,,,,,0,0,0,4,,,,,,,,,,,,,,,,,,,AFNE11.jpg,AFSA03.jpg,AFSA17.jpg,AFNE06.jpg,AFSA17.jpg,FS,4,num_2,16,num_2,1.01675027801,,,2017_Apr_21_1520,60.008218464,MAFE4ImagesEEG,001,100221,
AMNE23.JPG,AMNE24.JPG,AMNE22.JPG,AMSA24.JPG,AMSA22.JPG,AMSA23.JPG,,,,,0,1,1,9,,,,,,,,,,,,,,,,,,,AFSA11.jpg,AFNE18.jpg,AFNE14.jpg,AFSA09.jpg,AFSA11.jpg,FS,4,num_8,16,num_8,0.650108618313,,,2017_Apr_21_1520,60.008218464,MAFE4ImagesEEG,001,100221,
AMSA21.JPG,AMNE23.JPG,AMNE21.JPG,AMSA25.JPG,AMNE25.JPG,AMSA23.JPG,,,,,0,2,2,5,,,,,,,,,,,,,,,,,,,AFNE15.jpg,AFSA20.jpg,AFNE18.jpg,AFSA15.jpg,AFNE18.jpg,FN,3,num_2,32,num_8,1.08339248295,,,2017_Apr_21_1520,60.008218464,MAFE4ImagesEEG,001,100221,
AMSA25.JPG,AMNE24.JPG,AMSA24.JPG,AMNE26.JPG,AMSA21.JPG,AMNE25.JPG,,,,,0,3,3,3,,,,,,,,,,,,,,,,,,,AFSA04.jpg,AFNE19.jpg,AFNE02.jpg,AFSA19.jpg,AFSA04.jpg,FS,4,num_8,16,num_8,1.38347212248,,,2017_Apr_21_1520,60.008218464,MAFE4ImagesEEG,001,100221,
AFSA25.JPG,AFNE24.JPG,AFSA24.JPG,AFNE21.JPG,AFSA21.JPG,AFNE25.JPG,,,,,0,4,4,2,,,,,,,,,,,,,,,,,,,AFNE18.jpg,AFSA01.jpg,AFNE10.jpg,AFSA07.jpg,AFNE10.jpg,FN,3,num_2,16,num_2,2.76657667797,,,2017_Apr_21_1520,60.008218464,MAFE4ImagesEEG,001,100221,
AMNE22.JPG,AMSA24.JPG,AMSA22.JPG,AMNE25.JPG,AMNE24.JPG,AMSA25.JPG,,,,,0,5,5,7,,,,,,,,,,,,,,,,,,,AFNE05.jpg,AFSA19.jpg,AFSA11.jpg,AFNE04.jpg,AFSA19.jpg,FS,4,num_6,32,num_8,1.21674809698,,,2017_Apr_21_1520,60.008218464,MAFE4ImagesEEG,001,100221,
AFNE22.JPG,AFSA24.JPG,AFSA22.JPG,AFNE25.JPG,AFNE24.JPG,AFSA25.JPG,,,,,0,6,6,6,,,,,,,,,,,,,,,,,,,AFSA03.jpg,AFNE05.jpg,AFNE15.jpg,AFSA16.jpg,AFNE15.jpg,FN,3,num_2,16,num_2,1.45006204693,,,2017_Apr_21_1520,60.008218464,MAFE4ImagesEEG,001,100221,
AFNE23.JPG,AFNE24.JPG,AFNE22.JPG,AFSA24.JPG,AFSA22.JPG,AFSA23.JPG,,,,,0,7,7,8,,,,,,,,,,,,,,,,,,,AFNE16.jpg,AFSA17.jpg,AFSA05.jpg,AFNE17.jpg,AFSA17.jpg,FS,4,num_6,32,num_4,1.23340119107,,,2017_Apr_21_1520,60.008218464,MAFE4ImagesEEG,001,100221,
AMSA21.JPG,AMNE22.JPG,AMNE21.JPG,AMSA23.JPG,AMSA22.JPG,AMNE23.JPG,,,,,0,8,8,1,,,,,,,,,,,,,,,,,,,AFNE13.jpg,AFSA05.jpg,AFSA18.jpg,AFNE14.jpg,AFSA18.jpg,FS,4,num_2,16,num_2,1.00006735523,,,2017_Apr_21_1520,60.008218464,MAFE4ImagesEEG,001,100221,
AFSA21.JPG,AFNE22.JPG,AFNE21.JPG,AFSA23.JPG,AFSA22.JPG,AFNE23.JPG,,,,,0,9,9,0,,,,,,,,,,,,,,,,,,,AFNE09.jpg,AFSA03.jpg,AFSA13.jpg,AFNE08.jpg,AFSA03.jpg,FS,4,num_6,32,num_4,0.916756019229,,,2017_Apr_21_1520,60.008218464,MAFE4ImagesEEG,001,100221,
AMNE22.JPG,AMSA24.JPG,AMSA22.JPG,AMNE25.JPG,AMNE24.JPG,AMSA25.JPG,,,,,,,,,0,0,0,7,,,,,,,,,,,,,,,AMNE08.jpg,AMNE01.jpg,AMSA06.jpg,AMSA05.jpg,AMSA06.jpg,MS,2,num_2,32,num_4,0.883430266054,,,2017_Apr_21_1520,60.008218464,MAFE4ImagesEEG,001,100221,
AMSA25.JPG,AMNE24.JPG,AMSA24.JPG,AMNE26.JPG,AMSA21.JPG,AMNE25.JPG,,,,,,,,,0,1,1,3,,,,,,,,,,,,,,,AMNE10.jpg,AMSA12.jpg,AMNE04.jpg,AMSA11.jpg,AMSA12.jpg,MS,2,num_6,32,num_2,2.73299112607,,,2017_Apr_21_1520,60.008218464,MAFE4ImagesEEG,001,100221,
AFNE22.JPG,AFSA24.JPG,AFSA22.JPG,AFNE25.JPG,AFNE24.JPG,AFSA25.JPG,,,,,,,,,0,2,2,6,,,,,,,,,,,,,,,AMSA18.jpg,AMNE03.jpg,AMSA09.jpg,AMNE06.jpg,AMNE03.jpg,MN,1,num_6,16,num_6,0.73347447993,,,2017_Apr_21_1520,60.008218464,MAFE4ImagesEEG,001,100221,
AMSA21.JPG,AMNE23.JPG,AMNE21.JPG,AMSA25.JPG,AMNE25.JPG,AMSA23.JPG,,,,,,,,,0,3,3,5,,,,,,,,,,,,,,,AMSA11.jpg,AMSA13.jpg,AMNE05.jpg,AMNE03.jpg,AMNE03.jpg,MN,1,num_4,16,num_4,0.883437963785,,,2017_Apr_21_1520,60.008218464,MAFE4ImagesEEG,001,100221,
AMSA21.JPG,AMNE22.JPG,AMNE21.JPG,AMSA23.JPG,AMSA22.JPG,AMNE23.JPG,,,,,,,,,0,4,4,1,,,,,,,,,,,,,,,AMNE06.jpg,AMNE19.jpg,AMSA17.jpg,AMSA07.jpg,AMSA17.jpg,MS,2,num_2,32,num_6,1.23366868746,,,2017_Apr_21_1520,60.008218464,MAFE4ImagesEEG,001,100221,
AFSA25.JPG,AFNE24.JPG,AFSA24.JPG,AFNE21.JPG,AFSA21.JPG,AFNE25.JPG,,,,,,,,,0,5,5,2,,,,,,,,,,,,,,,AMNE19.jpg,AMNE09.jpg,AMSA09.jpg,AMSA19.jpg,AMSA09.jpg,MS,2,num_2,32,num_8,2.000301174,,,2017_Apr_21_1520,60.008218464,MAFE4ImagesEEG,001,100221,
AFSA21.JPG,AFNE23.JPG,AFNE21.JPG,AFSA25.JPG,AFNE25.JPG,AFSA23.JPG,,,,,,,,,0,6,6,4,,,,,,,,,,,,,,,AMSA08.jpg,AMNE08.jpg,AMNE15.jpg,AMSA13.jpg,AMSA08.jpg,MS,2,num_8,32,num_2,0.583402265504,,,2017_Apr_21_1520,60.008218464,MAFE4ImagesEEG,001,100221,
AFSA21.JPG,AFNE22.JPG,AFNE21.JPG,AFSA23.JPG,AFSA22.JPG,AFNE23.JPG,,,,,,,,,0,7,7,0,,,,,,,,,,,,,,,AMSA19.jpg,AMNE16.jpg,AMNE06.jpg,AMSA13.jpg,AMNE16.jpg,MN,1,num_6,32,num_2,1.616712944,,,2017_Apr_21_1520,60.008218464,MAFE4ImagesEEG,001,100221,
AFNE23.JPG,AFNE24.JPG,AFNE22.JPG,AFSA24.JPG,AFSA22.JPG,AFSA23.JPG,,,,,,,,,0,8,8,8,,,,,,,,,,,,,,,AMNE15.jpg,AMSA02.jpg,AMNE03.jpg,AMSA04.jpg,AMNE03.jpg,MN,1,num_2,16,num_2,1.45005851885,,,2017_Apr_21_1520,60.008218464,MAFE4ImagesEEG,001,100221,
AMNE23.JPG,AMNE24.JPG,AMNE22.JPG,AMSA24.JPG,AMSA22.JPG,AMSA23.JPG,,,,,,,,,0,9,9,9,,,,,,,,,,,,,,,AMNE08.jpg,AMSA11.jpg,AMNE01.jpg,AMSA17.jpg,AMSA17.jpg,MS,2,num_4,32,num_2,2.43333133409,,,2017_Apr_21_1520,60.008218464,MAFE4ImagesEEG,001,100221,
AMNE23.JPG,AMNE24.JPG,AMNE22.JPG,AMSA24.JPG,AMSA22.JPG,AMSA23.JPG,,,,,,,,,,,,,0,0,0,9,,,,,,,,,,,AFNE04.jpg,AFNE08.jpg,AFSA08.jpg,AFSA07.jpg,AFSA08.jpg,FS,4,num_2,32,num_6,1.51670328976,,,2017_Apr_21_1520,60.008218464,MAFE4ImagesEEG,001,100221,
AFSA21.JPG,AFNE22.JPG,AFNE21.JPG,AFSA23.JPG,AFSA22.JPG,AFNE23.JPG,,,,,,,,,,,,,0,1,1,0,,,,,,,,,,,AFSA04.jpg,AFNE05.jpg,AFNE09.jpg,AFSA05.jpg,AFNE05.jpg,FN,3,num_6,32,num_8,3.48296346236,,,2017_Apr_21_1520,60.008218464,MAFE4ImagesEEG,001,100221,
AFNE22.JPG,AFSA24.JPG,AFSA22.JPG,AFNE25.JPG,AFNE24.JPG,AFSA25.JPG,,,,,,,,,,,,,0,2,2,6,,,,,,,,,,,AFNE15.jpg,AFNE13.jpg,AFSA10.jpg,AFSA12.jpg,AFSA12.jpg,FS,4,num_4,32,num_8,1.65005826222,,,2017_Apr_21_1520,60.008218464,MAFE4ImagesEEG,001,100221,
AFSA25.JPG,AFNE24.JPG,AFSA24.JPG,AFNE21.JPG,AFSA21.JPG,AFNE25.JPG,,,,,,,,,,,,,0,3,3,2,,,,,,,,,,,AFNE12.jpg,AFSA01.jpg,AFNE02.jpg,AFSA18.jpg,AFNE12.jpg,FN,3,num_8,16,num_8,0.683490821568,,,2017_Apr_21_1520,60.008218464,MAFE4ImagesEEG,001,100221,
AFSA21.JPG,AFNE23.JPG,AFNE21.JPG,AFSA25.JPG,AFNE25.JPG,AFSA23.JPG,,,,,,,,,,,,,0,4,4,4,,,,,,,,,,,AFSA10.jpg,AFNE02.jpg,AFSA03.jpg,AFNE03.jpg,AFSA10.jpg,FS,4,num_8,16,num_8,0.750109933317,,,2017_Apr_21_1520,60.008218464,MAFE4ImagesEEG,001,100221,
AMNE22.JPG,AMSA24.JPG,AMSA22.JPG,AMNE25.JPG,AMNE24.JPG,AMSA25.JPG,,,,,,,,,,,,,0,5,5,7,,,,,,,,,,,AFSA16.jpg,AFNE05.jpg,AFSA07.jpg,AFNE09.jpg,AFSA07.jpg,FS,4,num_2,32,num_6,1.7334735177,,,2017_Apr_21_1520,60.008218464,MAFE4ImagesEEG,001,100221,
AMSA25.JPG,AMNE24.JPG,AMSA24.JPG,AMNE26.JPG,AMSA21.JPG,AMNE25.JPG,,,,,,,,,,,,,0,6,6,3,,,,,,,,,,,AFNE19.jpg,AFSA08.jpg,AFSA06.jpg,AFNE01.jpg,AFNE01.jpg,FN,3,num_4,32,num_8,1.6666892253,,,2017_Apr_21_1520,60.008218464,MAFE4ImagesEEG,001,100221,
AMSA21.JPG,AMNE23.JPG,AMNE21.JPG,AMSA25.JPG,AMNE25.JPG,AMSA23.JPG,,,,,,,,,,,,,0,7,7,5,,,,,,,,,,,AFSA05.jpg,AFSA11.jpg,AFNE03.jpg,AFNE10.jpg,AFSA11.jpg,FS,4,num_6,16,num_6,1.02001027006,,,2017_Apr_21_1520,60.008218464,MAFE4ImagesEEG,001,100221,
AMSA21.JPG,AMNE22.JPG,AMNE21.JPG,AMSA23.JPG,AMSA22.JPG,AMNE23.JPG,,,,,,,,,,,,,0,8,8,1,,,,,,,,,,,AFNE17.jpg,AFSA17.jpg,AFSA18.jpg,AFNE20.jpg,AFSA18.jpg,FS,4,num_2,48,None,,,,2017_Apr_21_1520,60.008218464,MAFE4ImagesEEG,001,100221,
AFNE23.JPG,AFNE24.JPG,AFNE22.JPG,AFSA24.JPG,AFSA22.JPG,AFSA23.JPG,,,,,,,,,,,,,0,9,9,8,,,,,,,,,,,AFSA05.jpg,AFNE06.jpg,AFSA11.jpg,AFNE01.jpg,AFNE01.jpg,FN,3,num_4,32,num_6,1.10008566943,,,2017_Apr_21_1520,60.008218464,MAFE4ImagesEEG,001,100221,
AFSA25.JPG,AFNE24.JPG,AFSA24.JPG,AFNE21.JPG,AFSA21.JPG,AFNE25.JPG,,,,,,,,,,,,,,,,,0,0,0,2,,,,,,,AMSA16.jpg,AMNE16.jpg,AMSA20.jpg,AMNE14.jpg,AMNE16.jpg,MN,1,num_6,16,num_6,0.883439888188,,,2017_Apr_21_1520,60.008218464,MAFE4ImagesEEG,001,100221,
AMNE22.JPG,AMSA24.JPG,AMSA22.JPG,AMNE25.JPG,AMNE24.JPG,AMSA25.JPG,,,,,,,,,,,,,,,,,0,1,1,7,,,,,,,AMSA04.jpg,AMSA19.jpg,AMNE19.jpg,AMNE16.jpg,AMNE19.jpg,MN,1,num_2,16,num_2,1.36675231467,,,2017_Apr_21_1520,60.008218464,MAFE4ImagesEEG,001,100221,
AFNE22.JPG,AFSA24.JPG,AFSA22.JPG,AFNE25.JPG,AFNE24.JPG,AFSA25.JPG,,,,,,,,,,,,,,,,,0,2,2,6,,,,,,,AMSA13.jpg,AMNE16.jpg,AMNE17.jpg,AMSA10.jpg,AMSA10.jpg,MS,2,num_4,16,num_4,1.38348815945,,,2017_Apr_21_1520,60.008218464,MAFE4ImagesEEG,001,100221,
AFNE23.JPG,AFNE24.JPG,AFNE22.JPG,AFSA24.JPG,AFSA22.JPG,AFSA23.JPG,,,,,,,,,,,,,,,,,0,3,3,8,,,,,,,AMSA02.jpg,AMNE14.jpg,AMNE09.jpg,AMSA13.jpg,AMNE14.jpg,MN,1,num_6,16,num_6,0.983420675911,,,2017_Apr_21_1520,60.008218464,MAFE4ImagesEEG,001,100221,
AFSA21.JPG,AFNE23.JPG,AFNE21.JPG,AFSA25.JPG,AFNE25.JPG,AFSA23.JPG,,,,,,,,,,,,,,,,,0,4,4,4,,,,,,,AMNE19.jpg,AMSA05.jpg,AMNE20.jpg,AMSA06.jpg,AMNE20.jpg,MN,1,num_2,32,num_8,1.83337315847,,,2017_Apr_21_1520,60.008218464,MAFE4ImagesEEG,001,100221,
AMNE23.JPG,AMNE24.JPG,AMNE22.JPG,AMSA24.JPG,AMSA22.JPG,AMSA23.JPG,,,,,,,,,,,,,,,,,0,5,5,9,,,,,,,AMNE13.jpg,AMSA15.jpg,AMSA14.jpg,AMNE10.jpg,AMSA14.jpg,MS,2,num_2,48,None,,,,2017_Apr_21_1520,60.008218464,MAFE4ImagesEEG,001,100221,
AFSA21.JPG,AFNE22.JPG,AFNE21.JPG,AFSA23.JPG,AFSA22.JPG,AFNE23.JPG,,,,,,,,,,,,,,,,,0,6,6,0,,,,,,,AMNE15.jpg,AMSA13.jpg,AMSA08.jpg,AMNE20.jpg,AMSA13.jpg,MS,2,num_6,16,num_6,1.55006015464,,,2017_Apr_21_1520,60.008218464,MAFE4ImagesEEG,001,100221,
AMSA21.JPG,AMNE23.JPG,AMNE21.JPG,AMSA25.JPG,AMNE25.JPG,AMSA23.JPG,,,,,,,,,,,,,,,,,0,7,7,5,,,,,,,AMSA19.jpg,AMNE04.jpg,AMSA14.jpg,AMNE14.jpg,AMSA14.jpg,MS,2,num_2,16,num_2,0.966728772444,,,2017_Apr_21_1520,60.008218464,MAFE4ImagesEEG,001,100221,
AMSA21.JPG,AMNE22.JPG,AMNE21.JPG,AMSA23.JPG,AMSA22.JPG,AMNE23.JPG,,,,,,,,,,,,,,,,,0,8,8,1,,,,,,,AMNE18.jpg,AMNE20.jpg,AMSA11.jpg,AMSA13.jpg,AMNE20.jpg,MN,1,num_6,32,num_4,1.35008382518,,,2017_Apr_21_1520,60.008218464,MAFE4ImagesEEG,001,100221,
AMSA25.JPG,AMNE24.JPG,AMSA24.JPG,AMNE26.JPG,AMSA21.JPG,AMNE25.JPG,,,,,,,,,,,,,,,,,0,9,9,3,,,,,,,AMSA05.jpg,AMNE05.jpg,AMSA20.jpg,AMNE19.jpg,AMNE05.jpg,MN,1,num_6,16,num_6,0.716764935758,,,2017_Apr_21_1520,60.008218464,MAFE4ImagesEEG,001,100221,
AFNE22.JPG,AFSA24.JPG,AFSA22.JPG,AFNE25.JPG,AFNE24.JPG,AFSA25.JPG,,,,,,,,,,,,,,,,,,,,,0,0,0,6,,,AFNE07.jpg,AFSA14.jpg,AFNE17.jpg,AFSA02.jpg,AFNE17.jpg,FN,3,num_2,32,num_8,2.01665918808,,,2017_Apr_21_1520,60.008218464,MAFE4ImagesEEG,001,100221,
AFSA21.JPG,AFNE22.JPG,AFNE21.JPG,AFSA23.JPG,AFSA22.JPG,AFNE23.JPG,,,,,,,,,,,,,,,,,,,,,0,1,1,0,,,AFSA15.jpg,AFNE20.jpg,AFSA10.jpg,AFNE14.jpg,AFNE20.jpg,FN,3,num_6,32,num_8,1.33353336761,,,2017_Apr_21_1520,60.008218464,MAFE4ImagesEEG,001,100221,
AFSA21.JPG,AFNE23.JPG,AFNE21.JPG,AFSA25.JPG,AFNE25.JPG,AFSA23.JPG,,,,,,,,,,,,,,,,,,,,,0,2,2,4,,,AFNE11.jpg,AFSA17.jpg,AFNE20.jpg,AFSA05.jpg,AFNE20.jpg,FN,3,num_2,16,num_2,1.09995769447,,,2017_Apr_21_1520,60.008218464,MAFE4ImagesEEG,001,100221,
AMNE23.JPG,AMNE24.JPG,AMNE22.JPG,AMSA24.JPG,AMSA22.JPG,AMSA23.JPG,,,,,,,,,,,,,,,,,,,,,0,3,3,9,,,AFNE14.jpg,AFSA09.jpg,AFSA05.jpg,AFNE01.jpg,AFNE14.jpg,FN,3,num_8,32,num_6,3.59986740648,,,2017_Apr_21_1520,60.008218464,MAFE4ImagesEEG,001,100221,
AMSA21.JPG,AMNE22.JPG,AMNE21.JPG,AMSA23.JPG,AMSA22.JPG,AMNE23.JPG,,,,,,,,,,,,,,,,,,,,,0,4,4,1,,,AFSA20.jpg,AFSA17.jpg,AFNE04.jpg,AFNE15.jpg,AFSA20.jpg,FS,4,num_8,32,num_2,1.2667708855,,,2017_Apr_21_1520,60.008218464,MAFE4ImagesEEG,001,100221,
AFSA25.JPG,AFNE24.JPG,AFSA24.JPG,AFNE21.JPG,AFSA21.JPG,AFNE25.JPG,,,,,,,,,,,,,,,,,,,,,0,5,5,2,,,AFSA19.jpg,AFNE06.jpg,AFNE08.jpg,AFSA09.jpg,AFSA09.jpg,FS,4,num_4,16,num_4,1.88345752889,,,2017_Apr_21_1520,60.008218464,MAFE4ImagesEEG,001,100221,
AMSA25.JPG,AMNE24.JPG,AMSA24.JPG,AMNE26.JPG,AMSA21.JPG,AMNE25.JPG,,,,,,,,,,,,,,,,,,,,,0,6,6,3,,,AFSA16.jpg,AFNE09.jpg,AFNE07.jpg,AFSA17.jpg,AFSA16.jpg,FS,4,num_8,32,num_6,1.45006685803,,,2017_Apr_21_1520,60.008218464,MAFE4ImagesEEG,001,100221,
AFNE23.JPG,AFNE24.JPG,AFNE22.JPG,AFSA24.JPG,AFSA22.JPG,AFSA23.JPG,,,,,,,,,,,,,,,,,,,,,0,7,7,8,,,AFNE17.jpg,AFSA16.jpg,AFSA18.jpg,AFNE15.jpg,AFSA16.jpg,FS,4,num_6,16,num_6,0.900068926858,,,2017_Apr_21_1520,60.008218464,MAFE4ImagesEEG,001,100221,
AMSA21.JPG,AMNE23.JPG,AMNE21.JPG,AMSA25.JPG,AMNE25.JPG,AMSA23.JPG,,,,,,,,,,,,,,,,,,,,,0,8,8,5,,,AFSA15.jpg,AFSA12.jpg,AFNE12.jpg,AFNE18.jpg,AFSA12.jpg,FS,4,num_6,32,num_4,1.61670460476,,,2017_Apr_21_1520,60.008218464,MAFE4ImagesEEG,001,100221,
AMNE22.JPG,AMSA24.JPG,AMSA22.JPG,AMNE25.JPG,AMNE24.JPG,AMSA25.JPG,,,,,,,,,,,,,,,,,,,,,0,9,9,7,,,AFSA06.jpg,AFSA04.jpg,AFNE08.jpg,AFNE17.jpg,AFSA04.jpg,FS,4,num_6,32,num_8,1.1334210448,,,2017_Apr_21_1520,60.008218464,MAFE4ImagesEEG,001,100221,
,,,,,,,,,,,,,,,,,,,,,,,,,,,,,,,,,,,,,,,,,,,space,43.5967402004,2017_Apr_21_1520,60.008218464,MAFE4ImagesEEG,001,100221,
AFNE01.JPG,AFNE01.JPG,AFNE01.JPG,AFNE01.JPG,AFNE01.JPG,AFNE01.JPG,0,0,0,5,,,,,,,,,,,,,,,,,,,,,,,AMNE17.jpg,AMSA15.jpg,AMNE09.jpg,AMSA19.jpg,AMSA19.jpg,MS,2,num_4,32,num_2,2.28332326747,,,2017_Apr_21_1520,60.008218464,MAFE4ImagesEEG,001,100221,
AFNE01.JPG,AFNE01.JPG,AFNE01.JPG,AFNE01.JPG,AFNE01.JPG,AFNE01.JPG,0,1,1,6,,,,,,,,,,,,,,,,,,,,,,,AMNE09.jpg,AMNE12.jpg,AMSA06.jpg,AMSA10.jpg,AMSA06.jpg,MS,2,num_2,32,num_4,2.0165629664,,,2017_Apr_21_1520,60.008218464,MAFE4ImagesEEG,001,100221,
AFNE01.JPG,AFNE01.JPG,AFNE01.JPG,AFNE01.JPG,AFNE01.JPG,AFNE01.JPG,0,2,2,3,,,,,,,,,,,,,,,,,,,,,,,AMSA05.jpg,AMSA04.jpg,AMNE10.jpg,AMNE14.jpg,AMSA04.jpg,MS,2,num_6,16,num_6,0.633455524221,,,2017_Apr_21_1520,60.008218464,MAFE4ImagesEEG,001,100221,
AFNE01.JPG,AFNE01.JPG,AFNE01.JPG,AFNE01.JPG,AFNE01.JPG,AFNE01.JPG,0,3,3,4,,,,,,,,,,,,,,,,,,,,,,,AMSA09.jpg,AMSA04.jpg,AMNE08.jpg,AMNE16.jpg,AMNE08.jpg,MN,1,num_2,32,num_8,1.10039037158,,,2017_Apr_21_1520,60.008218464,MAFE4ImagesEEG,001,100221,
AFNE01.JPG,AFNE01.JPG,AFNE01.JPG,AFNE01.JPG,AFNE01.JPG,AFNE01.JPG,0,4,4,8,,,,,,,,,,,,,,,,,,,,,,,AMSA07.jpg,AMSA03.jpg,AMNE11.jpg,AMNE06.jpg,AMSA07.jpg,MS,2,num_8,16,num_8,1.09992818651,,,2017_Apr_21_1520,60.008218464,MAFE4ImagesEEG,001,100221,
AFNE01.JPG,AFNE01.JPG,AFNE01.JPG,AFNE01.JPG,AFNE01.JPG,AFNE01.JPG,0,5,5,2,,,,,,,,,,,,,,,,,,,,,,,AMSA04.jpg,AMSA06.jpg,AMNE16.jpg,AMNE14.jpg,AMNE16.jpg,MN,1,num_2,16,num_2,1.85002464877,,,2017_Apr_21_1520,60.008218464,MAFE4ImagesEEG,001,100221,
AFNE01.JPG,AFNE01.JPG,AFNE01.JPG,AFNE01.JPG,AFNE01.JPG,AFNE01.JPG,0,6,6,1,,,,,,,,,,,,,,,,,,,,,,,AMSA20.jpg,AMNE18.jpg,AMSA09.jpg,AMNE07.jpg,AMSA20.jpg,MS,2,num_8,32,num_6,1.46671353735,,,2017_Apr_21_1520,60.008218464,MAFE4ImagesEEG,001,100221,
AFNE01.JPG,AFNE01.JPG,AFNE01.JPG,AFNE01.JPG,AFNE01.JPG,AFNE01.JPG,0,7,7,7,,,,,,,,,,,,,,,,,,,,,,,AMNE10.jpg,AMSA15.jpg,AMSA06.jpg,AMNE15.jpg,AMNE10.jpg,MN,1,num_8,16,num_8,1.26670673769,,,2017_Apr_21_1520,60.008218464,MAFE4ImagesEEG,001,100221,
AFNE01.JPG,AFNE01.JPG,AFNE01.JPG,AFNE01.JPG,AFNE01.JPG,AFNE01.JPG,0,8,8,0,,,,,,,,,,,,,,,,,,,,,,,AMSA01.jpg,AMSA19.jpg,AMNE19.jpg,AMNE17.jpg,AMNE19.jpg,MN,1,num_2,16,num_2,1.20005394833,,,2017_Apr_21_1520,60.008218464,MAFE4ImagesEEG,001,100221,
AFNE01.JPG,AFNE01.JPG,AFNE01.JPG,AFNE01.JPG,AFNE01.JPG,AFNE01.JPG,0,9,9,9,,,,,,,,,,,,,,,,,,,,,,,AMNE19.jpg,AMSA13.jpg,AMNE16.jpg,AMSA03.jpg,AMSA13.jpg,MS,2,num_6,32,num_8,1.00011161721,,,2017_Apr_21_1520,60.008218464,MAFE4ImagesEEG,001,100221,
AFNE01.JPG,AFNE01.JPG,AFNE01.JPG,AFNE01.JPG,AFNE01.JPG,AFNE01.JPG,1,0,10,7,,,,,,,,,,,,,,,,,,,,,,,AMSA14.jpg,AMSA07.jpg,AMNE14.jpg,AMNE03.jpg,AMSA14.jpg,MS,2,num_8,32,num_6,1.66672354442,,,2017_Apr_21_1520,60.008218464,MAFE4ImagesEEG,001,100221,
AFNE01.JPG,AFNE01.JPG,AFNE01.JPG,AFNE01.JPG,AFNE01.JPG,AFNE01.JPG,1,1,11,5,,,,,,,,,,,,,,,,,,,,,,,AMNE11.jpg,AMNE12.jpg,AMSA05.jpg,AMSA15.jpg,AMSA05.jpg,MS,2,num_2,48,None,,,,2017_Apr_21_1520,60.008218464,MAFE4ImagesEEG,001,100221,
AFNE01.JPG,AFNE01.JPG,AFNE01.JPG,AFNE01.JPG,AFNE01.JPG,AFNE01.JPG,1,2,12,9,,,,,,,,,,,,,,,,,,,,,,,AMNE07.jpg,AMSA15.jpg,AMNE14.jpg,AMSA10.jpg,AMSA15.jpg,MS,2,num_6,16,num_6,2.38331977138,,,2017_Apr_21_1520,60.008218464,MAFE4ImagesEEG,001,100221,
AFNE01.JPG,AFNE01.JPG,AFNE01.JPG,AFNE01.JPG,AFNE01.JPG,AFNE01.JPG,1,3,13,1,,,,,,,,,,,,,,,,,,,,,,,AMNE18.jpg,AMSA07.jpg,AMSA19.jpg,AMNE03.jpg,AMNE18.jpg,MN,1,num_8,16,num_8,0.800477837096,,,2017_Apr_21_1520,60.008218464,MAFE4ImagesEEG,001,100221,
AFNE01.JPG,AFNE01.JPG,AFNE01.JPG,AFNE01.JPG,AFNE01.JPG,AFNE01.JPG,1,4,14,4,,,,,,,,,,,,,,,,,,,,,,,AMSA05.jpg,AMNE04.jpg,AMSA02.jpg,AMNE14.jpg,AMNE14.jpg,MN,1,num_4,16,num_4,1.08343385829,,,2017_Apr_21_1520,60.008218464,MAFE4ImagesEEG,001,100221,
AFNE01.JPG,AFNE01.JPG,AFNE01.JPG,AFNE01.JPG,AFNE01.JPG,AFNE01.JPG,1,5,15,8,,,,,,,,,,,,,,,,,,,,,,,AMSA17.jpg,AMNE08.jpg,AMNE02.jpg,AMSA07.jpg,AMNE02.jpg,MN,1,num_2,16,num_2,1.6666892253,,,2017_Apr_21_1520,60.008218464,MAFE4ImagesEEG,001,100221,
AFNE01.JPG,AFNE01.JPG,AFNE01.JPG,AFNE01.JPG,AFNE01.JPG,AFNE01.JPG,1,6,16,2,,,,,,,,,,,,,,,,,,,,,,,AMSA13.jpg,AMSA03.jpg,AMNE16.jpg,AMNE08.jpg,AMSA13.jpg,MS,2,num_8,32,num_4,0.583468016994,,,2017_Apr_21_1520,60.008218464,MAFE4ImagesEEG,001,100221,
AFNE01.JPG,AFNE01.JPG,AFNE01.JPG,AFNE01.JPG,AFNE01.JPG,AFNE01.JPG,1,7,17,3,,,,,,,,,,,,,,,,,,,,,,,AMSA11.jpg,AMSA04.jpg,AMNE11.jpg,AMNE20.jpg,AMNE11.jpg,MN,1,num_2,32,num_8,1.00010937202,,,2017_Apr_21_1520,60.008218464,MAFE4ImagesEEG,001,100221,
AFNE01.JPG,AFNE01.JPG,AFNE01.JPG,AFNE01.JPG,AFNE01.JPG,AFNE01.JPG,1,8,18,6,,,,,,,,,,,,,,,,,,,,,,,AMSA06.jpg,AMSA03.jpg,AMNE04.jpg,AMNE03.jpg,AMSA06.jpg,MS,2,num_8,16,num_8,1.75004482333,,,2017_Apr_21_1520,60.008218464,MAFE4ImagesEEG,001,100221,
AFNE01.JPG,AFNE01.JPG,AFNE01.JPG,AFNE01.JPG,AFNE01.JPG,AFNE01.JPG,1,9,19,0,,,,,,,,,,,,,,,,,,,,,,,AMSA07.jpg,AMNE19.jpg,AMSA14.jpg,AMNE01.jpg,AMSA07.jpg,MS,2,num_8,16,num_8,0.833294577373,,,2017_Apr_21_1520,60.008218464,MAFE4ImagesEEG,001,100221,
AFNE01.JPG,AFNE01.JPG,AFNE01.JPG,AFNE01.JPG,AFNE01.JPG,AFNE01.JPG,2,0,20,7,,,,,,,,,,,,,,,,,,,,,,,AMSA16.jpg,AMNE19.jpg,AMNE04.jpg,AMSA10.jpg,AMNE04.jpg,MN,1,num_2,32,num_8,1.31674203498,,,2017_Apr_21_1520,60.008218464,MAFE4ImagesEEG,001,100221,
AFNE01.JPG,AFNE01.JPG,AFNE01.JPG,AFNE01.JPG,AFNE01.JPG,AFNE01.JPG,2,1,21,9,,,,,,,,,,,,,,,,,,,,,,,AMSA02.jpg,AMNE15.jpg,AMSA13.jpg,AMNE04.jpg,AMSA02.jpg,MS,2,num_8,48,None,,,,2017_Apr_21_1520,60.008218464,MAFE4ImagesEEG,001,100221,
AFNE01.JPG,AFNE01.JPG,AFNE01.JPG,AFNE01.JPG,AFNE01.JPG,AFNE01.JPG,2,2,22,0,,,,,,,,,,,,,,,,,,,,,,,AMNE01.jpg,AMNE04.jpg,AMSA20.jpg,AMSA18.jpg,AMSA18.jpg,MS,2,num_4,32,num_6,2.11695879052,,,2017_Apr_21_1520,60.008218464,MAFE4ImagesEEG,001,100221,
AFNE01.JPG,AFNE01.JPG,AFNE01.JPG,AFNE01.JPG,AFNE01.JPG,AFNE01.JPG,2,3,23,3,,,,,,,,,,,,,,,,,,,,,,,AMSA15.jpg,AMSA16.jpg,AMNE11.jpg,AMNE19.jpg,AMSA15.jpg,MS,2,num_8,16,num_8,1.23337007937,,,2017_Apr_21_1520,60.008218464,MAFE4ImagesEEG,001,100221,
AFNE01.JPG,AFNE01.JPG,AFNE01.JPG,AFNE01.JPG,AFNE01.JPG,AFNE01.JPG,2,4,24,2,,,,,,,,,,,,,,,,,,,,,,,AMSA11.jpg,AMNE14.jpg,AMSA17.jpg,AMNE20.jpg,AMSA17.jpg,MS,2,num_2,16,num_2,3.93321827357,,,2017_Apr_21_1520,60.008218464,MAFE4ImagesEEG,001,100221,
AFNE01.JPG,AFNE01.JPG,AFNE01.JPG,AFNE01.JPG,AFNE01.JPG,AFNE01.JPG,2,5,25,5,,,,,,,,,,,,,,,,,,,,,,,AMSA09.jpg,AMSA20.jpg,AMNE14.jpg,AMNE05.jpg,AMSA09.jpg,MS,2,num_8,16,num_8,0.833449173602,,,2017_Apr_21_1520,60.008218464,MAFE4ImagesEEG,001,100221,
AFNE01.JPG,AFNE01.JPG,AFNE01.JPG,AFNE01.JPG,AFNE01.JPG,AFNE01.JPG,2,6,26,6,,,,,,,,,,,,,,,,,,,,,,,AMNE11.jpg,AMSA02.jpg,AMNE03.jpg,AMSA07.jpg,AMSA07.jpg,MS,2,num_4,16,num_4,0.500128455984,,,2017_Apr_21_1520,60.008218464,MAFE4ImagesEEG,001,100221,
AFNE01.JPG,AFNE01.JPG,AFNE01.JPG,AFNE01.JPG,AFNE01.JPG,AFNE01.JPG,2,7,27,4,,,,,,,,,,,,,,,,,,,,,,,AMSA16.jpg,AMSA08.jpg,AMNE20.jpg,AMNE07.jpg,AMNE07.jpg,MN,1,num_4,16,num_4,0.850116380199,,,2017_Apr_21_1520,60.008218464,MAFE4ImagesEEG,001,100221,
AFNE01.JPG,AFNE01.JPG,AFNE01.JPG,AFNE01.JPG,AFNE01.JPG,AFNE01.JPG,2,8,28,1,,,,,,,,,,,,,,,,,,,,,,,AMSA01.jpg,AMSA18.jpg,AMNE16.jpg,AMNE03.jpg,AMSA01.jpg,MS,2,num_8,32,num_6,0.916798356804,,,2017_Apr_21_1520,60.008218464,MAFE4ImagesEEG,001,100221,
AFNE01.JPG,AFNE01.JPG,AFNE01.JPG,AFNE01.JPG,AFNE01.JPG,AFNE01.JPG,2,9,29,8,,,,,,,,,,,,,,,,,,,,,,,AMNE11.jpg,AMSA02.jpg,AMNE07.jpg,AMSA12.jpg,AMSA02.jpg,MS,2,num_6,32,num_8,0.616794090951,,,2017_Apr_21_1520,60.008218464,MAFE4ImagesEEG,001,100221,
AFNE01.JPG,AFNE01.JPG,AFNE01.JPG,AFNE01.JPG,AFNE01.JPG,AFNE01.JPG,3,0,30,4,,,,,,,,,,,,,,,,,,,,,,,AMSA20.jpg,AMNE16.jpg,AMSA16.jpg,AMNE04.jpg,AMSA20.jpg,MS,2,num_8,16,num_8,0.999790557369,,,2017_Apr_21_1520,60.008218464,MAFE4ImagesEEG,001,100221,
AFNE01.JPG,AFNE01.JPG,AFNE01.JPG,AFNE01.JPG,AFNE01.JPG,AFNE01.JPG,3,1,31,2,,,,,,,,,,,,,,,,,,,,,,,AMNE08.jpg,AMSA05.jpg,AMSA15.jpg,AMNE13.jpg,AMNE13.jpg,MN,1,num_4,32,num_2,1.56681620592,,,2017_Apr_21_1520,60.008218464,MAFE4ImagesEEG,001,100221,
AFNE01.JPG,AFNE01.JPG,AFNE01.JPG,AFNE01.JPG,AFNE01.JPG,AFNE01.JPG,3,2,32,9,,,,,,,,,,,,,,,,,,,,,,,AMNE05.jpg,AMSA17.jpg,AMSA20.jpg,AMNE20.jpg,AMSA20.jpg,MS,2,num_2,32,num_8,1.98333215195,,,2017_Apr_21_1520,60.008218464,MAFE4ImagesEEG,001,100221,
AFNE01.JPG,AFNE01.JPG,AFNE01.JPG,AFNE01.JPG,AFNE01.JPG,AFNE01.JPG,3,3,33,3,,,,,,,,,,,,,,,,,,,,,,,AMSA12.jpg,AMNE08.jpg,AMSA16.jpg,AMNE05.jpg,AMSA16.jpg,MS,2,num_2,32,num_4,1.48374863161,,,2017_Apr_21_1520,60.008218464,MAFE4ImagesEEG,001,100221,
AFNE01.JPG,AFNE01.JPG,AFNE01.JPG,AFNE01.JPG,AFNE01.JPG,AFNE01.JPG,3,4,34,0,,,,,,,,,,,,,,,,,,,,,,,AMSA08.jpg,AMNE01.jpg,AMNE02.jpg,AMSA17.jpg,AMSA08.jpg,MS,2,num_8,16,num_8,3.71653304144,,,2017_Apr_21_1520,60.008218464,MAFE4ImagesEEG,001,100221,
AFNE01.JPG,AFNE01.JPG,AFNE01.JPG,AFNE01.JPG,AFNE01.JPG,AFNE01.JPG,3,5,35,7,,,,,,,,,,,,,,,,,,,,,,,AMSA08.jpg,AMNE11.jpg,AMNE08.jpg,AMSA20.jpg,AMNE08.jpg,MN,1,num_2,32,num_6,2.06666818482,,,2017_Apr_21_1520,60.008218464,MAFE4ImagesEEG,001,100221,
AFNE01.JPG,AFNE01.JPG,AFNE01.JPG,AFNE01.JPG,AFNE01.JPG,AFNE01.JPG,3,6,36,6,,,,,,,,,,,,,,,,,,,,,,,AMSA08.jpg,AMNE02.jpg,AMNE10.jpg,AMSA04.jpg,AMSA04.jpg,MS,2,num_4,32,num_6,1.16671793145,,,2017_Apr_21_1520,60.008218464,MAFE4ImagesEEG,001,100221,
AFNE01.JPG,AFNE01.JPG,AFNE01.JPG,AFNE01.JPG,AFNE01.JPG,AFNE01.JPG,3,7,37,8,,,,,,,,,,,,,,,,,,,,,,,AMNE14.jpg,AMNE13.jpg,AMSA09.jpg,AMSA03.jpg,AMSA03.jpg,MS,2,num_4,16,num_4,0.866729381843,,,2017_Apr_21_1520,60.008218464,MAFE4ImagesEEG,001,100221,
AFNE01.JPG,AFNE01.JPG,AFNE01.JPG,AFNE01.JPG,AFNE01.JPG,AFNE01.JPG,3,8,38,1,,,,,,,,,,,,,,,,,,,,,,,AMSA13.jpg,AMSA18.jpg,AMNE20.jpg,AMNE16.jpg,AMSA18.jpg,MS,2,num_6,16,num_6,0.499985727132,,,2017_Apr_21_1520,60.008218464,MAFE4ImagesEEG,001,100221,
AFNE01.JPG,AFNE01.JPG,AFNE01.JPG,AFNE01.JPG,AFNE01.JPG,AFNE01.JPG,3,9,39,5,,,,,,,,,,,,,,,,,,,,,,,AMSA05.jpg,AMSA14.jpg,AMNE05.jpg,AMNE20.jpg,AMSA05.jpg,MS,2,num_8,32,num_2,2.64995017316,,,2017_Apr_21_1520,60.008218464,MAFE4ImagesEEG,001,100221,
AFNE01.JPG,AFNE01.JPG,AFNE01.JPG,AFNE01.JPG,AFNE01.JPG,AFNE01.JPG,4,0,40,8,,,,,,,,,,,,,,,,,,,,,,,AMSA02.jpg,AMNE08.jpg,AMNE13.jpg,AMSA16.jpg,AMNE13.jpg,MN,1,num_2,32,num_4,1.65006467706,,,2017_Apr_21_1520,60.008218464,MAFE4ImagesEEG,001,100221,
AFNE01.JPG,AFNE01.JPG,AFNE01.JPG,AFNE01.JPG,AFNE01.JPG,AFNE01.JPG,4,1,41,0,,,,,,,,,,,,,,,,,,,,,,,AMNE08.jpg,AMSA12.jpg,AMNE16.jpg,AMSA20.jpg,AMSA20.jpg,MS,2,num_4,32,num_8,3.69991073833,,,2017_Apr_21_1520,60.008218464,MAFE4ImagesEEG,001,100221,
AFNE01.JPG,AFNE01.JPG,AFNE01.JPG,AFNE01.JPG,AFNE01.JPG,AFNE01.JPG,4,2,42,5,,,,,,,,,,,,,,,,,,,,,,,AMNE07.jpg,AMSA08.jpg,AMSA20.jpg,AMNE10.jpg,AMSA08.jpg,MS,2,num_6,16,num_6,1.40006652131,,,2017_Apr_21_1520,60.008218464,MAFE4ImagesEEG,001,100221,
AFNE01.JPG,AFNE01.JPG,AFNE01.JPG,AFNE01.JPG,AFNE01.JPG,AFNE01.JPG,4,3,43,9,,,,,,,,,,,,,,,,,,,,,,,AMNE07.jpg,AMNE19.jpg,AMSA03.jpg,AMSA18.jpg,AMSA18.jpg,MS,2,num_4,32,num_2,1.53343913448,,,2017_Apr_21_1520,60.008218464,MAFE4ImagesEEG,001,100221,
AFNE01.JPG,AFNE01.JPG,AFNE01.JPG,AFNE01.JPG,AFNE01.JPG,AFNE01.JPG,4,4,44,1,,,,,,,,,,,,,,,,,,,,,,,AMNE02.jpg,AMSA05.jpg,AMSA17.jpg,AMNE06.jpg,AMSA05.jpg,MS,2,num_6,16,num_6,0.850150057755,,,2017_Apr_21_1520,60.008218464,MAFE4ImagesEEG,001,100221,
AFNE01.JPG,AFNE01.JPG,AFNE01.JPG,AFNE01.JPG,AFNE01.JPG,AFNE01.JPG,4,5,45,7,,,,,,,,,,,,,,,,,,,,,,,AMSA14.jpg,AMNE18.jpg,AMSA04.jpg,AMNE14.jpg,AMNE18.jpg,MN,1,num_6,16,num_6,0.983452749846,,,2017_Apr_21_1520,60.008218464,MAFE4ImagesEEG,001,100221,
AFNE01.JPG,AFNE01.JPG,AFNE01.JPG,AFNE01.JPG,AFNE01.JPG,AFNE01.JPG,4,6,46,3,,,,,,,,,,,,,,,,,,,,,,,AMNE10.jpg,AMSA09.jpg,AMNE18.jpg,AMSA04.jpg,AMNE18.jpg,MN,1,num_2,48,None,,,,2017_Apr_21_1520,60.008218464,MAFE4ImagesEEG,001,100221,
AFNE01.JPG,AFNE01.JPG,AFNE01.JPG,AFNE01.JPG,AFNE01.JPG,AFNE01.JPG,4,7,47,4,,,,,,,,,,,,,,,,,,,,,,,AMSA06.jpg,AMNE15.jpg,AMNE16.jpg,AMSA18.jpg,AMNE15.jpg,MN,1,num_6,16,num_6,1.33341661858,,,2017_Apr_21_1520,60.008218464,MAFE4ImagesEEG,001,100221,
AFNE01.JPG,AFNE01.JPG,AFNE01.JPG,AFNE01.JPG,AFNE01.JPG,AFNE01.JPG,4,8,48,6,,,,,,,,,,,,,,,,,,,,,,,AMNE03.jpg,AMNE14.jpg,AMSA20.jpg,AMSA19.jpg,AMNE03.jpg,MN,1,num_8,32,num_4,0.93350373127,,,2017_Apr_21_1520,60.008218464,MAFE4ImagesEEG,001,100221,
AFNE01.JPG,AFNE01.JPG,AFNE01.JPG,AFNE01.JPG,AFNE01.JPG,AFNE01.JPG,4,9,49,2,,,,,,,,,,,,,,,,,,,,,,,AMNE03.jpg,AMSA15.jpg,AMSA07.jpg,AMNE16.jpg,AMNE16.jpg,MN,1,num_4,32,num_2,1.95013437368,,,2017_Apr_21_1520,60.008218464,MAFE4ImagesEEG,001,100221,
AFNE01.JPG,AFNE01.JPG,AFNE01.JPG,AFNE01.JPG,AFNE01.JPG,AFNE01.JPG,5,0,50,0,,,,,,,,,,,,,,,,,,,,,,,AMNE15.jpg,AMSA12.jpg,AMSA17.jpg,AMNE03.jpg,AMNE03.jpg,MN,1,num_4,16,num_4,1.08338189858,,,2017_Apr_21_1520,60.008218464,MAFE4ImagesEEG,001,100221,
AFNE01.JPG,AFNE01.JPG,AFNE01.JPG,AFNE01.JPG,AFNE01.JPG,AFNE01.JPG,5,1,51,1,,,,,,,,,,,,,,,,,,,,,,,AMSA06.jpg,AMNE06.jpg,AMNE16.jpg,AMSA18.jpg,AMNE06.jpg,MN,1,num_6,16,num_6,1.03361217317,,,2017_Apr_21_1520,60.008218464,MAFE4ImagesEEG,001,100221,
AFNE01.JPG,AFNE01.JPG,AFNE01.JPG,AFNE01.JPG,AFNE01.JPG,AFNE01.JPG,5,2,52,5,,,,,,,,,,,,,,,,,,,,,,,AMSA01.jpg,AMNE20.jpg,AMNE02.jpg,AMSA10.jpg,AMNE02.jpg,MN,1,num_2,16,num_2,3.79984373593,,,2017_Apr_21_1520,60.008218464,MAFE4ImagesEEG,001,100221,
AFNE01.JPG,AFNE01.JPG,AFNE01.JPG,AFNE01.JPG,AFNE01.JPG,AFNE01.JPG,5,3,53,9,,,,,,,,,,,,,,,,,,,,,,,AMSA08.jpg,AMNE13.jpg,AMSA07.jpg,AMNE20.jpg,AMSA07.jpg,MS,2,num_2,32,num_6,3.23326166952,,,2017_Apr_21_1520,60.008218464,MAFE4ImagesEEG,001,100221,
AFNE01.JPG,AFNE01.JPG,AFNE01.JPG,AFNE01.JPG,AFNE01.JPG,AFNE01.JPG,5,4,54,6,,,,,,,,,,,,,,,,,,,,,,,AMSA17.jpg,AMNE05.jpg,AMSA03.jpg,AMNE14.jpg,AMNE05.jpg,MN,1,num_6,32,num_4,2.29999175703,,,2017_Apr_21_1520,60.008218464,MAFE4ImagesEEG,001,100221,
AFNE01.JPG,AFNE01.JPG,AFNE01.JPG,AFNE01.JPG,AFNE01.JPG,AFNE01.JPG,5,5,55,2,,,,,,,,,,,,,,,,,,,,,,,AMNE14.jpg,AMNE16.jpg,AMSA05.jpg,AMSA11.jpg,AMSA11.jpg,MS,2,num_4,32,num_8,1.23348650761,,,2017_Apr_21_1520,60.008218464,MAFE4ImagesEEG,001,100221,
AFNE01.JPG,AFNE01.JPG,AFNE01.JPG,AFNE01.JPG,AFNE01.JPG,AFNE01.JPG,5,6,56,3,,,,,,,,,,,,,,,,,,,,,,,AMSA08.jpg,AMNE17.jpg,AMSA17.jpg,AMNE19.jpg,AMSA08.jpg,MS,2,num_8,16,num_8,1.21671024978,,,2017_Apr_21_1520,60.008218464,MAFE4ImagesEEG,001,100221,
AFNE01.JPG,AFNE01.JPG,AFNE01.JPG,AFNE01.JPG,AFNE01.JPG,AFNE01.JPG,5,7,57,7,,,,,,,,,,,,,,,,,,,,,,,AMSA04.jpg,AMNE08.jpg,AMNE04.jpg,AMSA03.jpg,AMSA04.jpg,MS,2,num_8,32,num_2,2.44994016615,,,2017_Apr_21_1520,60.008218464,MAFE4ImagesEEG,001,100221,
AFNE01.JPG,AFNE01.JPG,AFNE01.JPG,AFNE01.JPG,AFNE01.JPG,AFNE01.JPG,5,8,58,8,,,,,,,,,,,,,,,,,,,,,,,AMSA17.jpg,AMNE13.jpg,AMSA15.jpg,AMNE06.jpg,AMNE13.jpg,MN,1,num_6,16,num_6,1.31680842803,,,2017_Apr_21_1520,60.008218464,MAFE4ImagesEEG,001,100221,
AFNE01.JPG,AFNE01.JPG,AFNE01.JPG,AFNE01.JPG,AFNE01.JPG,AFNE01.JPG,5,9,59,4,,,,,,,,,,,,,,,,,,,,,,,AMNE08.jpg,AMNE13.jpg,AMSA14.jpg,AMSA01.jpg,AMNE08.jpg,MN,1,num_8,16,num_8,0.916758585139,,,2017_Apr_21_1520,60.008218464,MAFE4ImagesEEG,001,100221,
,,,,,,,,,,,,,,,,,,,,,,,,,,,,,,,,,,,,,,,,,,,space,8.01652640209,2017_Apr_21_1520,60.008218464,MAFE4ImagesEEG,001,100221,
AFNE01.JPG,AFNE01.JPG,AFNE01.JPG,AFNE01.JPG,AFNE01.JPG,AFNE01.JPG,,,,,0,0,0,6,,,,,,,,,,,,,,,,,,,AFNE01.jpg,AFNE14.jpg,AFSA18.jpg,AFSA12.jpg,AFNE01.jpg,FN,3,num_8,32,num_6,1.05011387839,,,2017_Apr_21_1520,60.008218464,MAFE4ImagesEEG,001,100221,
AFNE01.JPG,AFNE01.JPG,AFNE01.JPG,AFNE01.JPG,AFNE01.JPG,AFNE01.JPG,,,,,0,1,1,5,,,,,,,,,,,,,,,,,,,AFSA09.jpg,AFSA14.jpg,AFNE19.jpg,AFNE06.jpg,AFNE19.jpg,FN,3,num_2,32,num_8,1.3001877286,,,2017_Apr_21_1520,60.008218464,MAFE4ImagesEEG,001,100221,
AFNE01.JPG,AFNE01.JPG,AFNE01.JPG,AFNE01.JPG,AFNE01.JPG,AFNE01.JPG,,,,,0,2,2,7,,,,,,,,,,,,,,,,,,,AFSA13.jpg,AFNE08.jpg,AFNE01.jpg,AFSA18.jpg,AFNE08.jpg,FN,3,num_6,32,num_8,1.51657563559,,,2017_Apr_21_1520,60.008218464,MAFE4ImagesEEG,001,100221,
AFNE01.JPG,AFNE01.JPG,AFNE01.JPG,AFNE01.JPG,AFNE01.JPG,AFNE01.JPG,,,,,0,3,3,9,,,,,,,,,,,,,,,,,,,AFNE18.jpg,AFSA05.jpg,AFNE10.jpg,AFSA13.jpg,AFSA13.jpg,FS,4,num_4,16,num_4,0.766770725138,,,2017_Apr_21_1520,60.008218464,MAFE4ImagesEEG,001,100221,
AFNE01.JPG,AFNE01.JPG,AFNE01.JPG,AFNE01.JPG,AFNE01.JPG,AFNE01.JPG,,,,,0,4,4,3,,,,,,,,,,,,,,,,,,,AFNE17.jpg,AFSA10.jpg,AFNE15.jpg,AFSA17.jpg,AFSA10.jpg,FS,4,num_6,32,num_2,1.28342654544,,,2017_Apr_21_1520,60.008218464,MAFE4ImagesEEG,001,100221,
AFNE01.JPG,AFNE01.JPG,AFNE01.JPG,AFNE01.JPG,AFNE01.JPG,AFNE01.JPG,,,,,0,5,5,2,,,,,,,,,,,,,,,,,,,AFSA05.jpg,AFNE08.jpg,AFSA06.jpg,AFNE14.jpg,AFNE14.jpg,FN,3,num_4,48,None,,,,2017_Apr_21_1520,60.008218464,MAFE4ImagesEEG,001,100221,
AFNE01.JPG,AFNE01.JPG,AFNE01.JPG,AFNE01.JPG,AFNE01.JPG,AFNE01.JPG,,,,,0,6,6,4,,,,,,,,,,,,,,,,,,,AFNE11.jpg,AFSA08.jpg,AFNE01.jpg,AFSA10.jpg,AFNE01.jpg,FN,3,num_2,32,num_8,2.56662408321,,,2017_Apr_21_1520,60.008218464,MAFE4ImagesEEG,001,100221,
AFNE01.JPG,AFNE01.JPG,AFNE01.JPG,AFNE01.JPG,AFNE01.JPG,AFNE01.JPG,,,,,0,7,7,8,,,,,,,,,,,,,,,,,,,AFNE20.jpg,AFSA04.jpg,AFNE13.jpg,AFSA12.jpg,AFNE20.jpg,FN,3,num_8,48,None,,,,2017_Apr_21_1520,60.008218464,MAFE4ImagesEEG,001,100221,
AFNE01.JPG,AFNE01.JPG,AFNE01.JPG,AFNE01.JPG,AFNE01.JPG,AFNE01.JPG,,,,,0,8,8,1,,,,,,,,,,,,,,,,,,,AFSA19.jpg,AFNE19.jpg,AFSA01.jpg,AFNE02.jpg,AFSA19.jpg,FS,4,num_8,48,None,,,,2017_Apr_21_1520,60.008218464,MAFE4ImagesEEG,001,100221,
AFNE01.JPG,AFNE01.JPG,AFNE01.JPG,AFNE01.JPG,AFNE01.JPG,AFNE01.JPG,,,,,0,9,9,0,,,,,,,,,,,,,,,,,,,AFNE05.jpg,AFSA13.jpg,AFNE02.jpg,AFSA11.jpg,AFSA11.jpg,FS,4,num_4,32,num_6,2.74996367627,,,2017_Apr_21_1520,60.008218464,MAFE4ImagesEEG,001,100221,
AFNE01.JPG,AFNE01.JPG,AFNE01.JPG,AFNE01.JPG,AFNE01.JPG,AFNE01.JPG,,,,,1,0,10,0,,,,,,,,,,,,,,,,,,,AFSA16.jpg,AFNE18.jpg,AFSA01.jpg,AFNE20.jpg,AFSA16.jpg,FS,4,num_8,48,None,,,,2017_Apr_21_1520,60.008218464,MAFE4ImagesEEG,001,100221,
AFNE01.JPG,AFNE01.JPG,AFNE01.JPG,AFNE01.JPG,AFNE01.JPG,AFNE01.JPG,,,,,1,1,11,8,,,,,,,,,,,,,,,,,,,AFSA14.jpg,AFSA09.jpg,AFNE11.jpg,AFNE20.jpg,AFSA09.jpg,FS,4,num_6,16,num_6,0.816846435599,,,2017_Apr_21_1520,60.008218464,MAFE4ImagesEEG,001,100221,
AFNE01.JPG,AFNE01.JPG,AFNE01.JPG,AFNE01.JPG,AFNE01.JPG,AFNE01.JPG,,,,,1,2,12,3,,,,,,,,,,,,,,,,,,,AFNE07.jpg,AFNE13.jpg,AFSA19.jpg,AFSA07.jpg,AFNE13.jpg,FN,3,num_6,16,num_6,2.15001929243,,,2017_Apr_21_1520,60.008218464,MAFE4ImagesEEG,001,100221,
AFNE01.JPG,AFNE01.JPG,AFNE01.JPG,AFNE01.JPG,AFNE01.JPG,AFNE01.JPG,,,,,1,3,13,2,,,,,,,,,,,,,,,,,,,AFNE09.jpg,AFSA16.jpg,AFSA07.jpg,AFNE20.jpg,AFNE09.jpg,FN,3,num_8,32,num_4,0.650121127139,,,2017_Apr_21_1520,60.008218464,MAFE4ImagesEEG,001,100221,
AFNE01.JPG,AFNE01.JPG,AFNE01.JPG,AFNE01.JPG,AFNE01.JPG,AFNE01.JPG,,,,,1,4,14,9,,,,,,,,,,,,,,,,,,,AFNE12.jpg,AFSA01.jpg,AFNE06.jpg,AFSA05.jpg,AFSA01.jpg,FS,4,num_6,32,num_4,1.18359875027,,,2017_Apr_21_1520,60.008218464,MAFE4ImagesEEG,001,100221,
AFNE01.JPG,AFNE01.JPG,AFNE01.JPG,AFNE01.JPG,AFNE01.JPG,AFNE01.JPG,,,,,1,5,15,6,,,,,,,,,,,,,,,,,,,AFNE16.jpg,AFNE17.jpg,AFSA18.jpg,AFSA04.jpg,AFSA04.jpg,FS,4,num_4,16,num_4,0.833449815051,,,2017_Apr_21_1520,60.008218464,MAFE4ImagesEEG,001,100221,
AFNE01.JPG,AFNE01.JPG,AFNE01.JPG,AFNE01.JPG,AFNE01.JPG,AFNE01.JPG,,,,,1,6,16,1,,,,,,,,,,,,,,,,,,,AFNE13.jpg,AFSA10.jpg,AFNE04.jpg,AFSA01.jpg,AFSA01.jpg,FS,4,num_4,32,num_2,1.13378893252,,,2017_Apr_21_1520,60.008218464,MAFE4ImagesEEG,001,100221,
AFNE01.JPG,AFNE01.JPG,AFNE01.JPG,AFNE01.JPG,AFNE01.JPG,AFNE01.JPG,,,,,1,7,17,4,,,,,,,,,,,,,,,,,,,AFNE04.jpg,AFSA15.jpg,AFSA14.jpg,AFNE05.jpg,AFSA14.jpg,FS,4,num_2,32,num_6,1.16670413967,,,2017_Apr_21_1520,60.008218464,MAFE4ImagesEEG,001,100221,
AFNE01.JPG,AFNE01.JPG,AFNE01.JPG,AFNE01.JPG,AFNE01.JPG,AFNE01.JPG,,,,,1,8,18,5,,,,,,,,,,,,,,,,,,,AFSA02.jpg,AFNE06.jpg,AFNE10.jpg,AFSA12.jpg,AFSA02.jpg,FS,4,num_8,32,num_6,1.03343929484,,,2017_Apr_21_1520,60.008218464,MAFE4ImagesEEG,001,100221,
AFNE01.JPG,AFNE01.JPG,AFNE01.JPG,AFNE01.JPG,AFNE01.JPG,AFNE01.JPG,,,,,1,9,19,7,,,,,,,,,,,,,,,,,,,AFSA14.jpg,AFSA08.jpg,AFNE07.jpg,AFNE01.jpg,AFNE01.jpg,FN,3,num_4,32,num_2,0.833437306224,,,2017_Apr_21_1520,60.008218464,MAFE4ImagesEEG,001,100221,
AFNE01.JPG,AFNE01.JPG,AFNE01.JPG,AFNE01.JPG,AFNE01.JPG,AFNE01.JPG,,,,,2,0,20,6,,,,,,,,,,,,,,,,,,,AFNE10.jpg,AFNE19.jpg,AFSA20.jpg,AFSA15.jpg,AFSA15.jpg,FS,4,num_4,16,num_4,1.81669632968,,,2017_Apr_21_1520,60.008218464,MAFE4ImagesEEG,001,100221,
AFNE01.JPG,AFNE01.JPG,AFNE01.JPG,AFNE01.JPG,AFNE01.JPG,AFNE01.JPG,,,,,2,1,21,1,,,,,,,,,,,,,,,,,,,AFSA15.jpg,AFNE04.jpg,AFSA01.jpg,AFNE05.jpg,AFNE04.jpg,FN,3,num_6,16,num_6,0.966731017572,,,2017_Apr_21_1520,60.008218464,MAFE4ImagesEEG,001,100221,
AFNE01.JPG,AFNE01.JPG,AFNE01.JPG,AFNE01.JPG,AFNE01.JPG,AFNE01.JPG,,,,,2,2,22,7,,,,,,,,,,,,,,,,,,,AFNE13.jpg,AFSA01.jpg,AFNE04.jpg,AFSA18.jpg,AFSA18.jpg,FS,4,num_4,16,num_4,3.79990820447,,,2017_Apr_21_1520,60.008218464,MAFE4ImagesEEG,001,100221,
AFNE01.JPG,AFNE01.JPG,AFNE01.JPG,AFNE01.JPG,AFNE01.JPG,AFNE01.JPG,,,,,2,3,23,9,,,,,,,,,,,,,,,,,,,AFNE02.jpg,AFSA05.jpg,AFNE18.jpg,AFSA06.jpg,AFSA05.jpg,FS,4,num_6,16,num_6,0.616825202596,,,2017_Apr_21_1520,60.008218464,MAFE4ImagesEEG,001,100221,
AFNE01.JPG,AFNE01.JPG,AFNE01.JPG,AFNE01.JPG,AFNE01.JPG,AFNE01.JPG,,,,,2,4,24,4,,,,,,,,,,,,,,,,,,,AFSA08.jpg,AFNE08.jpg,AFSA02.jpg,AFNE13.jpg,AFSA02.jpg,FS,4,num_2,32,num_4,1.21662910277,,,2017_Apr_21_1520,60.008218464,MAFE4ImagesEEG,001,100221,
AFNE01.JPG,AFNE01.JPG,AFNE01.JPG,AFNE01.JPG,AFNE01.JPG,AFNE01.JPG,,,,,2,5,25,3,,,,,,,,,,,,,,,,,,,AFNE18.jpg,AFSA14.jpg,AFNE13.jpg,AFSA07.jpg,AFNE13.jpg,FN,3,num_2,32,num_8,1.28354072856,,,2017_Apr_21_1520,60.008218464,MAFE4ImagesEEG,001,100221,
AFNE01.JPG,AFNE01.JPG,AFNE01.JPG,AFNE01.JPG,AFNE01.JPG,AFNE01.JPG,,,,,2,6,26,2,,,,,,,,,,,,,,,,,,,AFSA16.jpg,AFNE05.jpg,AFNE13.jpg,AFSA01.jpg,AFNE05.jpg,FN,3,num_6,32,num_4,1.35011493688,,,2017_Apr_21_1520,60.008218464,MAFE4ImagesEEG,001,100221,
AFNE01.JPG,AFNE01.JPG,AFNE01.JPG,AFNE01.JPG,AFNE01.JPG,AFNE01.JPG,,,,,2,7,27,8,,,,,,,,,,,,,,,,,,,AFNE01.jpg,AFSA09.jpg,AFSA08.jpg,AFNE16.jpg,AFSA09.jpg,FS,4,num_6,32,num_8,0.81678838178,,,2017_Apr_21_1520,60.008218464,MAFE4ImagesEEG,001,100221,
AFNE01.JPG,AFNE01.JPG,AFNE01.JPG,AFNE01.JPG,AFNE01.JPG,AFNE01.JPG,,,,,2,8,28,0,,,,,,,,,,,,,,,,,,,AFSA08.jpg,AFNE19.jpg,AFNE08.jpg,AFSA03.jpg,AFNE19.jpg,FN,3,num_6,32,num_4,1.06672206899,,,2017_Apr_21_1520,60.008218464,MAFE4ImagesEEG,001,100221,
AFNE01.JPG,AFNE01.JPG,AFNE01.JPG,AFNE01.JPG,AFNE01.JPG,AFNE01.JPG,,,,,2,9,29,5,,,,,,,,,,,,,,,,,,,AFNE07.jpg,AFSA03.jpg,AFSA13.jpg,AFNE04.jpg,AFSA13.jpg,FS,4,num_2,32,num_6,1.76667674858,,,2017_Apr_21_1520,60.008218464,MAFE4ImagesEEG,001,100221,
AFNE01.JPG,AFNE01.JPG,AFNE01.JPG,AFNE01.JPG,AFNE01.JPG,AFNE01.JPG,,,,,3,0,30,1,,,,,,,,,,,,,,,,,,,AFNE14.jpg,AFSA18.jpg,AFSA04.jpg,AFNE17.jpg,AFSA18.jpg,FS,4,num_6,32,num_2,1.41672923754,,,2017_Apr_21_1520,60.008218464,MAFE4ImagesEEG,001,100221,
AFNE01.JPG,AFNE01.JPG,AFNE01.JPG,AFNE01.JPG,AFNE01.JPG,AFNE01.JPG,,,,,3,1,31,4,,,,,,,,,,,,,,,,,,,AFSA15.jpg,AFNE19.jpg,AFNE03.jpg,AFSA03.jpg,AFSA03.jpg,FS,4,num_4,32,num_8,1.90009041631,,,2017_Apr_21_1520,60.008218464,MAFE4ImagesEEG,001,100221,
AFNE01.JPG,AFNE01.JPG,AFNE01.JPG,AFNE01.JPG,AFNE01.JPG,AFNE01.JPG,,,,,3,2,32,3,,,,,,,,,,,,,,,,,,,AFSA02.jpg,AFSA12.jpg,AFNE10.jpg,AFNE18.jpg,AFNE18.jpg,FN,3,num_4,32,num_2,0.950117053755,,,2017_Apr_21_1520,60.008218464,MAFE4ImagesEEG,001,100221,
AFNE01.JPG,AFNE01.JPG,AFNE01.JPG,AFNE01.JPG,AFNE01.JPG,AFNE01.JPG,,,,,3,3,33,8,,,,,,,,,,,,,,,,,,,AFNE05.jpg,AFNE16.jpg,AFSA17.jpg,AFSA18.jpg,AFNE16.jpg,FN,3,num_6,32,num_8,2.11650526541,,,2017_Apr_21_1520,60.008218464,MAFE4ImagesEEG,001,100221,
AFNE01.JPG,AFNE01.JPG,AFNE01.JPG,AFNE01.JPG,AFNE01.JPG,AFNE01.JPG,,,,,3,4,34,6,,,,,,,,,,,,,,,,,,,AFSA14.jpg,AFSA16.jpg,AFNE16.jpg,AFNE18.jpg,AFSA14.jpg,FS,4,num_8,32,num_4,1.26673913229,,,2017_Apr_21_1520,60.008218464,MAFE4ImagesEEG,001,100221,
AFNE01.JPG,AFNE01.JPG,AFNE01.JPG,AFNE01.JPG,AFNE01.JPG,AFNE01.JPG,,,,,3,5,35,9,,,,,,,,,,,,,,,,,,,AFNE14.jpg,AFNE12.jpg,AFSA15.jpg,AFSA16.jpg,AFSA15.jpg,FS,4,num_2,32,num_8,2.71685345977,,,2017_Apr_21_1520,60.008218464,MAFE4ImagesEEG,001,100221,
AFNE01.JPG,AFNE01.JPG,AFNE01.JPG,AFNE01.JPG,AFNE01.JPG,AFNE01.JPG,,,,,3,6,36,2,,,,,,,,,,,,,,,,,,,AFSA04.jpg,AFNE02.jpg,AFSA06.jpg,AFNE05.jpg,AFNE05.jpg,FN,3,num_4,16,num_4,0.817050746409,,,2017_Apr_21_1520,60.008218464,MAFE4ImagesEEG,001,100221,
AFNE01.JPG,AFNE01.JPG,AFNE01.JPG,AFNE01.JPG,AFNE01.JPG,AFNE01.JPG,,,,,3,7,37,5,,,,,,,,,,,,,,,,,,,AFNE17.jpg,AFSA04.jpg,AFNE10.jpg,AFSA07.jpg,AFSA04.jpg,FS,4,num_6,32,num_8,1.56673088932,,,2017_Apr_21_1520,60.008218464,MAFE4ImagesEEG,001,100221,
AFNE01.JPG,AFNE01.JPG,AFNE01.JPG,AFNE01.JPG,AFNE01.JPG,AFNE01.JPG,,,,,3,8,38,0,,,,,,,,,,,,,,,,,,,AFNE06.jpg,AFNE10.jpg,AFSA04.jpg,AFSA08.jpg,AFSA08.jpg,FS,4,num_4,16,num_4,0.800115081191,,,2017_Apr_21_1520,60.008218464,MAFE4ImagesEEG,001,100221,
AFNE01.JPG,AFNE01.JPG,AFNE01.JPG,AFNE01.JPG,AFNE01.JPG,AFNE01.JPG,,,,,3,9,39,7,,,,,,,,,,,,,,,,,,,AFSA06.jpg,AFSA02.jpg,AFNE14.jpg,AFNE06.jpg,AFNE06.jpg,FN,3,num_4,16,num_4,1.28343039431,,,2017_Apr_21_1520,60.008218464,MAFE4ImagesEEG,001,100221,
AFNE01.JPG,AFNE01.JPG,AFNE01.JPG,AFNE01.JPG,AFNE01.JPG,AFNE01.JPG,,,,,4,0,40,0,,,,,,,,,,,,,,,,,,,AFSA05.jpg,AFNE01.jpg,AFNE14.jpg,AFSA09.jpg,AFSA05.jpg,FS,4,num_8,32,num_4,1.50006944005,,,2017_Apr_21_1520,60.008218464,MAFE4ImagesEEG,001,100221,
AFNE01.JPG,AFNE01.JPG,AFNE01.JPG,AFNE01.JPG,AFNE01.JPG,AFNE01.JPG,,,,,4,1,41,7,,,,,,,,,,,,,,,,,,,AFNE20.jpg,AFNE01.jpg,AFSA18.jpg,AFSA04.jpg,AFSA18.jpg,FS,4,num_2,32,num_4,2.20002636476,,,2017_Apr_21_1520,60.008218464,MAFE4ImagesEEG,001,100221,
AFNE01.JPG,AFNE01.JPG,AFNE01.JPG,AFNE01.JPG,AFNE01.JPG,AFNE01.JPG,,,,,4,2,42,3,,,,,,,,,,,,,,,,,,,AFSA18.jpg,AFSA07.jpg,AFNE20.jpg,AFNE02.jpg,AFSA18.jpg,FS,4,num_8,16,num_8,3.54976122576,,,2017_Apr_21_1520,60.008218464,MAFE4ImagesEEG,001,100221,
AFNE01.JPG,AFNE01.JPG,AFNE01.JPG,AFNE01.JPG,AFNE01.JPG,AFNE01.JPG,,,,,4,3,43,5,,,,,,,,,,,,,,,,,,,AFSA08.jpg,AFNE19.jpg,AFNE04.jpg,AFSA07.jpg,AFNE19.jpg,FN,3,num_6,32,num_4,4.11618420557,,,2017_Apr_21_1520,60.008218464,MAFE4ImagesEEG,001,100221,
AFNE01.JPG,AFNE01.JPG,AFNE01.JPG,AFNE01.JPG,AFNE01.JPG,AFNE01.JPG,,,,,4,4,44,4,,,,,,,,,,,,,,,,,,,AFSA15.jpg,AFNE01.jpg,AFSA02.jpg,AFNE14.jpg,AFSA15.jpg,FS,4,num_8,16,num_8,1.48343366588,,,2017_Apr_21_1520,60.008218464,MAFE4ImagesEEG,001,100221,
AFNE01.JPG,AFNE01.JPG,AFNE01.JPG,AFNE01.JPG,AFNE01.JPG,AFNE01.JPG,,,,,4,5,45,8,,,,,,,,,,,,,,,,,,,AFSA03.jpg,AFNE19.jpg,AFSA17.jpg,AFNE07.jpg,AFSA17.jpg,FS,4,num_2,32,num_6,1.01675476832,,,2017_Apr_21_1520,60.008218464,MAFE4ImagesEEG,001,100221,
AFNE01.JPG,AFNE01.JPG,AFNE01.JPG,AFNE01.JPG,AFNE01.JPG,AFNE01.JPG,,,,,4,6,46,9,,,,,,,,,,,,,,,,,,,AFSA09.jpg,AFNE02.jpg,AFNE01.jpg,AFSA18.jpg,AFSA18.jpg,FS,4,num_4,16,num_4,2.33334092417,,,2017_Apr_21_1520,60.008218464,MAFE4ImagesEEG,001,100221,
AFNE01.JPG,AFNE01.JPG,AFNE01.JPG,AFNE01.JPG,AFNE01.JPG,AFNE01.JPG,,,,,4,7,47,1,,,,,,,,,,,,,,,,,,,AFSA03.jpg,AFNE09.jpg,AFSA10.jpg,AFNE08.jpg,AFNE08.jpg,FN,3,num_4,16,num_4,1.56685020425,,,2017_Apr_21_1520,60.008218464,MAFE4ImagesEEG,001,100221,
AFNE01.JPG,AFNE01.JPG,AFNE01.JPG,AFNE01.JPG,AFNE01.JPG,AFNE01.JPG,,,,,4,8,48,6,,,,,,,,,,,,,,,,,,,AFNE09.jpg,AFNE20.jpg,AFSA07.jpg,AFSA06.jpg,AFSA06.jpg,FS,4,num_4,32,num_2,1.25007962348,,,2017_Apr_21_1520,60.008218464,MAFE4ImagesEEG,001,100221,
AFNE01.JPG,AFNE01.JPG,AFNE01.JPG,AFNE01.JPG,AFNE01.JPG,AFNE01.JPG,,,,,4,9,49,2,,,,,,,,,,,,,,,,,,,AFSA19.jpg,AFNE10.jpg,AFSA06.jpg,AFNE07.jpg,AFNE10.jpg,FN,3,num_6,32,num_4,1.0002017449,,,2017_Apr_21_1520,60.008218464,MAFE4ImagesEEG,001,100221,
AFNE01.JPG,AFNE01.JPG,AFNE01.JPG,AFNE01.JPG,AFNE01.JPG,AFNE01.JPG,,,,,5,0,50,1,,,,,,,,,,,,,,,,,,,AFNE19.jpg,AFSA11.jpg,AFNE09.jpg,AFSA17.jpg,AFSA17.jpg,FS,4,num_4,16,num_4,0.700075277477,,,2017_Apr_21_1520,60.008218464,MAFE4ImagesEEG,001,100221,
AFNE01.JPG,AFNE01.JPG,AFNE01.JPG,AFNE01.JPG,AFNE01.JPG,AFNE01.JPG,,,,,5,1,51,4,,,,,,,,,,,,,,,,,,,AFNE10.jpg,AFNE19.jpg,AFSA13.jpg,AFSA03.jpg,AFSA03.jpg,FS,4,num_4,16,num_4,1.36670965637,,,2017_Apr_21_1520,60.008218464,MAFE4ImagesEEG,001,100221,
AFNE01.JPG,AFNE01.JPG,AFNE01.JPG,AFNE01.JPG,AFNE01.JPG,AFNE01.JPG,,,,,5,2,52,7,,,,,,,,,,,,,,,,,,,AFNE20.jpg,AFSA20.jpg,AFNE11.jpg,AFSA19.jpg,AFSA19.jpg,FS,4,num_4,48,None,,,,2017_Apr_21_1520,60.008218464,MAFE4ImagesEEG,001,100221,
AFNE01.JPG,AFNE01.JPG,AFNE01.JPG,AFNE01.JPG,AFNE01.JPG,AFNE01.JPG,,,,,5,3,53,9,,,,,,,,,,,,,,,,,,,AFSA18.jpg,AFSA17.jpg,AFNE05.jpg,AFNE04.jpg,AFNE04.jpg,FN,3,num_4,16,num_4,0.866768512002,,,2017_Apr_21_1520,60.008218464,MAFE4ImagesEEG,001,100221,
AFNE01.JPG,AFNE01.JPG,AFNE01.JPG,AFNE01.JPG,AFNE01.JPG,AFNE01.JPG,,,,,5,4,54,6,,,,,,,,,,,,,,,,,,,AFNE15.jpg,AFSA17.jpg,AFSA14.jpg,AFNE17.jpg,AFSA17.jpg,FS,4,num_6,32,num_8,1.3167471668,,,2017_Apr_21_1520,60.008218464,MAFE4ImagesEEG,001,100221,
AFNE01.JPG,AFNE01.JPG,AFNE01.JPG,AFNE01.JPG,AFNE01.JPG,AFNE01.JPG,,,,,5,5,55,5,,,,,,,,,,,,,,,,,,,AFNE01.jpg,AFNE18.jpg,AFSA04.jpg,AFSA19.jpg,AFSA19.jpg,FS,4,num_4,48,None,,,,2017_Apr_21_1520,60.008218464,MAFE4ImagesEEG,001,100221,
AFNE01.JPG,AFNE01.JPG,AFNE01.JPG,AFNE01.JPG,AFNE01.JPG,AFNE01.JPG,,,,,5,6,56,3,,,,,,,,,,,,,,,,,,,AFSA09.jpg,AFSA04.jpg,AFNE11.jpg,AFNE14.jpg,AFNE11.jpg,FN,3,num_2,32,num_6,2.54997066839,,,2017_Apr_21_1520,60.008218464,MAFE4ImagesEEG,001,100221,
AFNE01.JPG,AFNE01.JPG,AFNE01.JPG,AFNE01.JPG,AFNE01.JPG,AFNE01.JPG,,,,,5,7,57,2,,,,,,,,,,,,,,,,,,,AFSA07.jpg,AFNE07.jpg,AFSA05.jpg,AFNE20.jpg,AFNE20.jpg,FN,3,num_4,32,num_6,1.11676025297,,,2017_Apr_21_1520,60.008218464,MAFE4ImagesEEG,001,100221,
AFNE01.JPG,AFNE01.JPG,AFNE01.JPG,AFNE01.JPG,AFNE01.JPG,AFNE01.JPG,,,,,5,8,58,8,,,,,,,,,,,,,,,,,,,AFSA04.jpg,AFNE06.jpg,AFNE14.jpg,AFSA17.jpg,AFNE14.jpg,FN,3,num_2,32,num_4,3.38328384864,,,2017_Apr_21_1520,60.008218464,MAFE4ImagesEEG,001,100221,
AFNE01.JPG,AFNE01.JPG,AFNE01.JPG,AFNE01.JPG,AFNE01.JPG,AFNE01.JPG,,,,,5,9,59,0,,,,,,,,,,,,,,,,,,,AFSA10.jpg,AFNE09.jpg,AFNE01.jpg,AFSA11.jpg,AFNE01.jpg,FN,3,num_2,48,None,,,,2017_Apr_21_1520,60.008218464,MAFE4ImagesEEG,001,100221,
,,,,,,,,,,,,,,,,,,,,,,,,,,,,,,,,,,,,,,,,,,,space,28.4312587181,2017_Apr_21_1520,60.008218464,MAFE4ImagesEEG,001,100221,
AFNE01.JPG,AFNE01.JPG,AFNE01.JPG,AFNE01.JPG,AFNE01.JPG,AFNE01.JPG,,,,,,,,,0,0,0,6,,,,,,,,,,,,,,,AMSA01.jpg,AMNE10.jpg,AMSA16.jpg,AMNE15.jpg,AMSA01.jpg,MS,2,num_8,16,num_8,0.716765256482,,,2017_Apr_21_1520,60.008218464,MAFE4ImagesEEG,001,100221,
AFNE01.JPG,AFNE01.JPG,AFNE01.JPG,AFNE01.JPG,AFNE01.JPG,AFNE01.JPG,,,,,,,,,0,1,1,5,,,,,,,,,,,,,,,AMSA19.jpg,AMNE09.jpg,AMNE07.jpg,AMSA05.jpg,AMSA05.jpg,MS,2,num_4,32,num_8,1.05010746367,,,2017_Apr_21_1520,60.008218464,MAFE4ImagesEEG,001,100221,
AFNE01.JPG,AFNE01.JPG,AFNE01.JPG,AFNE01.JPG,AFNE01.JPG,AFNE01.JPG,,,,,,,,,0,2,2,0,,,,,,,,,,,,,,,AMSA12.jpg,AMSA04.jpg,AMNE13.jpg,AMNE12.jpg,AMNE13.jpg,MN,1,num_2,32,num_4,0.733462933276,,,2017_Apr_21_1520,60.008218464,MAFE4ImagesEEG,001,100221,
AFNE01.JPG,AFNE01.JPG,AFNE01.JPG,AFNE01.JPG,AFNE01.JPG,AFNE01.JPG,,,,,,,,,0,3,3,3,,,,,,,,,,,,,,,AMNE08.jpg,AMSA13.jpg,AMSA20.jpg,AMNE20.jpg,AMNE20.jpg,MN,1,num_4,16,num_4,0.550172734016,,,2017_Apr_21_1520,60.008218464,MAFE4ImagesEEG,001,100221,
AFNE01.JPG,AFNE01.JPG,AFNE01.JPG,AFNE01.JPG,AFNE01.JPG,AFNE01.JPG,,,,,,,,,0,4,4,2,,,,,,,,,,,,,,,AMSA20.jpg,AMNE04.jpg,AMNE17.jpg,AMSA03.jpg,AMNE17.jpg,MN,1,num_2,16,num_2,2.58329578012,,,2017_Apr_21_1520,60.008218464,MAFE4ImagesEEG,001,100221,
AFNE01.JPG,AFNE01.JPG,AFNE01.JPG,AFNE01.JPG,AFNE01.JPG,AFNE01.JPG,,,,,,,,,0,5,5,1,,,,,,,,,,,,,,,AMNE15.jpg,AMNE18.jpg,AMSA09.jpg,AMSA16.jpg,AMNE18.jpg,MN,1,num_6,16,num_6,1.88308547146,,,2017_Apr_21_1520,60.008218464,MAFE4ImagesEEG,001,100221,
AFNE01.JPG,AFNE01.JPG,AFNE01.JPG,AFNE01.JPG,AFNE01.JPG,AFNE01.JPG,,,,,,,,,0,6,6,8,,,,,,,,,,,,,,,AMSA11.jpg,AMNE09.jpg,AMSA07.jpg,AMNE07.jpg,AMSA07.jpg,MS,2,num_2,16,num_2,2.33339031797,,,2017_Apr_21_1520,60.008218464,MAFE4ImagesEEG,001,100221,
AFNE01.JPG,AFNE01.JPG,AFNE01.JPG,AFNE01.JPG,AFNE01.JPG,AFNE01.JPG,,,,,,,,,0,7,7,7,,,,,,,,,,,,,,,AMNE12.jpg,AMNE04.jpg,AMSA11.jpg,AMSA17.jpg,AMNE04.jpg,MN,1,num_6,16,num_6,1.10024443525,,,2017_Apr_21_1520,60.008218464,MAFE4ImagesEEG,001,100221,
AFNE01.JPG,AFNE01.JPG,AFNE01.JPG,AFNE01.JPG,AFNE01.JPG,AFNE01.JPG,,,,,,,,,0,8,8,9,,,,,,,,,,,,,,,AMSA08.jpg,AMSA11.jpg,AMNE17.jpg,AMNE04.jpg,AMSA08.jpg,MS,2,num_8,16,num_8,0.833335631993,,,2017_Apr_21_1520,60.008218464,MAFE4ImagesEEG,001,100221,
AFNE01.JPG,AFNE01.JPG,AFNE01.JPG,AFNE01.JPG,AFNE01.JPG,AFNE01.JPG,,,,,,,,,0,9,9,4,,,,,,,,,,,,,,,AMSA10.jpg,AMNE04.jpg,AMNE16.jpg,AMSA01.jpg,AMNE16.jpg,MN,1,num_2,32,num_8,0.800131438882,,,2017_Apr_21_1520,60.008218464,MAFE4ImagesEEG,001,100221,
AFNE01.JPG,AFNE01.JPG,AFNE01.JPG,AFNE01.JPG,AFNE01.JPG,AFNE01.JPG,,,,,,,,,1,0,10,9,,,,,,,,,,,,,,,AMNE18.jpg,AMNE04.jpg,AMSA08.jpg,AMSA19.jpg,AMSA19.jpg,MS,2,num_4,32,num_6,2.00007986405,,,2017_Apr_21_1520,60.008218464,MAFE4ImagesEEG,001,100221,
AFNE01.JPG,AFNE01.JPG,AFNE01.JPG,AFNE01.JPG,AFNE01.JPG,AFNE01.JPG,,,,,,,,,1,1,11,7,,,,,,,,,,,,,,,AMNE12.jpg,AMSA19.jpg,AMSA15.jpg,AMNE05.jpg,AMSA19.jpg,MS,2,num_6,32,num_8,0.816629295237,,,2017_Apr_21_1520,60.008218464,MAFE4ImagesEEG,001,100221,
AFNE01.JPG,AFNE01.JPG,AFNE01.JPG,AFNE01.JPG,AFNE01.JPG,AFNE01.JPG,,,,,,,,,1,2,12,3,,,,,,,,,,,,,,,AMSA13.jpg,AMNE07.jpg,AMSA03.jpg,AMNE13.jpg,AMSA13.jpg,MS,2,num_8,48,None,,,,2017_Apr_21_1520,60.008218464,MAFE4ImagesEEG,001,100221,
AFNE01.JPG,AFNE01.JPG,AFNE01.JPG,AFNE01.JPG,AFNE01.JPG,AFNE01.JPG,,,,,,,,,1,3,13,0,,,,,,,,,,,,,,,AMSA20.jpg,AMNE03.jpg,AMSA18.jpg,AMNE06.jpg,AMNE03.jpg,MN,1,num_6,32,num_4,1.51667698915,,,2017_Apr_21_1520,60.008218464,MAFE4ImagesEEG,001,100221,
AFNE01.JPG,AFNE01.JPG,AFNE01.JPG,AFNE01.JPG,AFNE01.JPG,AFNE01.JPG,,,,,,,,,1,4,14,4,,,,,,,,,,,,,,,AMSA01.jpg,AMSA14.jpg,AMNE13.jpg,AMNE09.jpg,AMSA14.jpg,MS,2,num_6,16,num_6,0.683498519356,,,2017_Apr_21_1520,60.008218464,MAFE4ImagesEEG,001,100221,
AFNE01.JPG,AFNE01.JPG,AFNE01.JPG,AFNE01.JPG,AFNE01.JPG,AFNE01.JPG,,,,,,,,,1,5,15,6,,,,,,,,,,,,,,,AMSA09.jpg,AMNE05.jpg,AMSA14.jpg,AMNE20.jpg,AMNE20.jpg,MN,1,num_4,32,num_6,0.750131422828,,,2017_Apr_21_1520,60.008218464,MAFE4ImagesEEG,001,100221,
AFNE01.JPG,AFNE01.JPG,AFNE01.JPG,AFNE01.JPG,AFNE01.JPG,AFNE01.JPG,,,,,,,,,1,6,16,1,,,,,,,,,,,,,,,AMNE06.jpg,AMNE16.jpg,AMSA20.jpg,AMSA17.jpg,AMNE06.jpg,MN,1,num_8,32,num_6,1.43345578085,,,2017_Apr_21_1520,60.008218464,MAFE4ImagesEEG,001,100221,
AFNE01.JPG,AFNE01.JPG,AFNE01.JPG,AFNE01.JPG,AFNE01.JPG,AFNE01.JPG,,,,,,,,,1,7,17,2,,,,,,,,,,,,,,,AMSA04.jpg,AMNE20.jpg,AMSA03.jpg,AMNE14.jpg,AMNE20.jpg,MN,1,num_6,32,num_8,0.866783586796,,,2017_Apr_21_1520,60.008218464,MAFE4ImagesEEG,001,100221,
AFNE01.JPG,AFNE01.JPG,AFNE01.JPG,AFNE01.JPG,AFNE01.JPG,AFNE01.JPG,,,,,,,,,1,8,18,5,,,,,,,,,,,,,,,AMSA10.jpg,AMNE07.jpg,AMSA20.jpg,AMNE16.jpg,AMSA20.jpg,MS,2,num_2,16,num_2,2.89998136502,,,2017_Apr_21_1520,60.008218464,MAFE4ImagesEEG,001,100221,
AFNE01.JPG,AFNE01.JPG,AFNE01.JPG,AFNE01.JPG,AFNE01.JPG,AFNE01.JPG,,,,,,,,,1,9,19,8,,,,,,,,,,,,,,,AMNE19.jpg,AMSA11.jpg,AMNE13.jpg,AMSA02.jpg,AMNE19.jpg,MN,1,num_8,48,None,,,,2017_Apr_21_1520,60.008218464,MAFE4ImagesEEG,001,100221,
AFNE01.JPG,AFNE01.JPG,AFNE01.JPG,AFNE01.JPG,AFNE01.JPG,AFNE01.JPG,,,,,,,,,2,0,20,7,,,,,,,,,,,,,,,AMSA20.jpg,AMSA02.jpg,AMNE19.jpg,AMNE08.jpg,AMNE19.jpg,MN,1,num_2,32,num_8,1.23343903827,,,2017_Apr_21_1520,60.008218464,MAFE4ImagesEEG,001,100221,
AFNE01.JPG,AFNE01.JPG,AFNE01.JPG,AFNE01.JPG,AFNE01.JPG,AFNE01.JPG,,,,,,,,,2,1,21,2,,,,,,,,,,,,,,,AMNE16.jpg,AMSA12.jpg,AMNE02.jpg,AMSA08.jpg,AMSA12.jpg,MS,2,num_6,32,num_4,4.04984253313,,,2017_Apr_21_1520,60.008218464,MAFE4ImagesEEG,001,100221,
AFNE01.JPG,AFNE01.JPG,AFNE01.JPG,AFNE01.JPG,AFNE01.JPG,AFNE01.JPG,,,,,,,,,2,2,22,8,,,,,,,,,,,,,,,AMSA15.jpg,AMNE14.jpg,AMNE16.jpg,AMSA18.jpg,AMNE14.jpg,MN,1,num_6,32,num_4,2.01665822585,,,2017_Apr_21_1520,60.008218464,MAFE4ImagesEEG,001,100221,
AFNE01.JPG,AFNE01.JPG,AFNE01.JPG,AFNE01.JPG,AFNE01.JPG,AFNE01.JPG,,,,,,,,,2,3,23,4,,,,,,,,,,,,,,,AMSA15.jpg,AMNE05.jpg,AMSA11.jpg,AMNE16.jpg,AMSA15.jpg,MS,2,num_8,48,None,,,,2017_Apr_21_1520,60.008218464,MAFE4ImagesEEG,001,100221,
AFNE01.JPG,AFNE01.JPG,AFNE01.JPG,AFNE01.JPG,AFNE01.JPG,AFNE01.JPG,,,,,,,,,2,4,24,5,,,,,,,,,,,,,,,AMSA16.jpg,AMNE09.jpg,AMNE10.jpg,AMSA02.jpg,AMNE09.jpg,MN,1,num_6,16,num_6,1.45006365067,,,2017_Apr_21_1520,60.008218464,MAFE4ImagesEEG,001,100221,
AFNE01.JPG,AFNE01.JPG,AFNE01.JPG,AFNE01.JPG,AFNE01.JPG,AFNE01.JPG,,,,,,,,,2,5,25,6,,,,,,,,,,,,,,,AMNE06.jpg,AMSA12.jpg,AMSA05.jpg,AMNE14.jpg,AMSA12.jpg,MS,2,num_6,48,None,,,,2017_Apr_21_1520,60.008218464,MAFE4ImagesEEG,001,100221,
AFNE01.JPG,AFNE01.JPG,AFNE01.JPG,AFNE01.JPG,AFNE01.JPG,AFNE01.JPG,,,,,,,,,2,6,26,1,,,,,,,,,,,,,,,AMNE07.jpg,AMNE04.jpg,AMSA08.jpg,AMSA06.jpg,AMSA08.jpg,MS,2,num_2,48,None,,,,2017_Apr_21_1520,60.008218464,MAFE4ImagesEEG,001,100221,
AFNE01.JPG,AFNE01.JPG,AFNE01.JPG,AFNE01.JPG,AFNE01.JPG,AFNE01.JPG,,,,,,,,,2,7,27,3,,,,,,,,,,,,,,,AMNE08.jpg,AMSA09.jpg,AMNE09.jpg,AMSA01.jpg,AMSA01.jpg,MS,2,num_4,32,num_6,4.49985999736,,,2017_Apr_21_1520,60.008218464,MAFE4ImagesEEG,001,100221,
AFNE01.JPG,AFNE01.JPG,AFNE01.JPG,AFNE01.JPG,AFNE01.JPG,AFNE01.JPG,,,,,,,,,2,8,28,0,,,,,,,,,,,,,,,AMNE05.jpg,AMSA12.jpg,AMNE09.jpg,AMSA06.jpg,AMSA12.jpg,MS,2,num_6,32,num_8,3.08328375244,,,2017_Apr_21_1520,60.008218464,MAFE4ImagesEEG,001,100221,
AFNE01.JPG,AFNE01.JPG,AFNE01.JPG,AFNE01.JPG,AFNE01.JPG,AFNE01.JPG,,,,,,,,,2,9,29,9,,,,,,,,,,,,,,,AMNE02.jpg,AMNE12.jpg,AMSA06.jpg,AMSA20.jpg,AMNE12.jpg,MN,1,num_6,48,None,,,,2017_Apr_21_1520,60.008218464,MAFE4ImagesEEG,001,100221,
AFNE01.JPG,AFNE01.JPG,AFNE01.JPG,AFNE01.JPG,AFNE01.JPG,AFNE01.JPG,,,,,,,,,3,0,30,3,,,,,,,,,,,,,,,AMNE18.jpg,AMSA12.jpg,AMNE19.jpg,AMSA07.jpg,AMNE18.jpg,MN,1,num_8,16,num_8,2.93326670513,,,2017_Apr_21_1520,60.008218464,MAFE4ImagesEEG,001,100221,
AFNE01.JPG,AFNE01.JPG,AFNE01.JPG,AFNE01.JPG,AFNE01.JPG,AFNE01.JPG,,,,,,,,,3,1,31,1,,,,,,,,,,,,,,,AMSA01.jpg,AMNE16.jpg,AMNE12.jpg,AMSA03.jpg,AMSA03.jpg,MS,2,num_4,48,None,,,,2017_Apr_21_1520,60.008218464,MAFE4ImagesEEG,001,100221,
AFNE01.JPG,AFNE01.JPG,AFNE01.JPG,AFNE01.JPG,AFNE01.JPG,AFNE01.JPG,,,,,,,,,3,2,32,4,,,,,,,,,,,,,,,AMNE13.jpg,AMSA11.jpg,AMSA20.jpg,AMNE09.jpg,AMSA11.jpg,MS,2,num_6,48,None,,,,2017_Apr_21_1520,60.008218464,MAFE4ImagesEEG,001,100221,
AFNE01.JPG,AFNE01.JPG,AFNE01.JPG,AFNE01.JPG,AFNE01.JPG,AFNE01.JPG,,,,,,,,,3,3,33,2,,,,,,,,,,,,,,,AMSA07.jpg,AMNE10.jpg,AMSA04.jpg,AMNE14.jpg,AMSA04.jpg,MS,2,num_2,32,num_8,4.6164685408,,,2017_Apr_21_1520,60.008218464,MAFE4ImagesEEG,001,100221,
AFNE01.JPG,AFNE01.JPG,AFNE01.JPG,AFNE01.JPG,AFNE01.JPG,AFNE01.JPG,,,,,,,,,3,4,34,0,,,,,,,,,,,,,,,AMSA18.jpg,AMNE18.jpg,AMSA17.jpg,AMNE09.jpg,AMNE09.jpg,MN,1,num_4,48,None,,,,2017_Apr_21_1520,60.008218464,MAFE4ImagesEEG,001,100221,
AFNE01.JPG,AFNE01.JPG,AFNE01.JPG,AFNE01.JPG,AFNE01.JPG,AFNE01.JPG,,,,,,,,,3,5,35,9,,,,,,,,,,,,,,,AMSA15.jpg,AMNE12.jpg,AMNE06.jpg,AMSA06.jpg,AMSA06.jpg,MS,2,num_4,32,num_6,1.95003558596,,,2017_Apr_21_1520,60.008218464,MAFE4ImagesEEG,001,100221,
AFNE01.JPG,AFNE01.JPG,AFNE01.JPG,AFNE01.JPG,AFNE01.JPG,AFNE01.JPG,,,,,,,,,3,6,36,5,,,,,,,,,,,,,,,AMSA09.jpg,AMNE15.jpg,AMNE06.jpg,AMSA16.jpg,AMNE06.jpg,MN,1,num_2,16,num_2,1.75002269231,,,2017_Apr_21_1520,60.008218464,MAFE4ImagesEEG,001,100221,
AFNE01.JPG,AFNE01.JPG,AFNE01.JPG,AFNE01.JPG,AFNE01.JPG,AFNE01.JPG,,,,,,,,,3,7,37,6,,,,,,,,,,,,,,,AMNE10.jpg,AMSA08.jpg,AMNE03.jpg,AMSA19.jpg,AMNE03.jpg,MN,1,num_2,16,num_2,2.13334663329,,,2017_Apr_21_1520,60.008218464,MAFE4ImagesEEG,001,100221,
AFNE01.JPG,AFNE01.JPG,AFNE01.JPG,AFNE01.JPG,AFNE01.JPG,AFNE01.JPG,,,,,,,,,3,8,38,7,,,,,,,,,,,,,,,AMNE14.jpg,AMSA12.jpg,AMSA13.jpg,AMNE06.jpg,AMNE14.jpg,MN,1,num_8,32,num_2,1.41679530975,,,2017_Apr_21_1520,60.008218464,MAFE4ImagesEEG,001,100221,
AFNE01.JPG,AFNE01.JPG,AFNE01.JPG,AFNE01.JPG,AFNE01.JPG,AFNE01.JPG,,,,,,,,,3,9,39,8,,,,,,,,,,,,,,,AMNE02.jpg,AMSA15.jpg,AMNE04.jpg,AMSA16.jpg,AMNE04.jpg,MN,1,num_2,32,num_8,0.850249166193,,,2017_Apr_21_1520,60.008218464,MAFE4ImagesEEG,001,100221,
AFNE01.JPG,AFNE01.JPG,AFNE01.JPG,AFNE01.JPG,AFNE01.JPG,AFNE01.JPG,,,,,,,,,4,0,40,4,,,,,,,,,,,,,,,AMSA03.jpg,AMSA07.jpg,AMNE03.jpg,AMNE13.jpg,AMSA03.jpg,MS,2,num_8,16,num_8,1.68339716573,,,2017_Apr_21_1520,60.008218464,MAFE4ImagesEEG,001,100221,
AFNE01.JPG,AFNE01.JPG,AFNE01.JPG,AFNE01.JPG,AFNE01.JPG,AFNE01.JPG,,,,,,,,,4,1,41,2,,,,,,,,,,,,,,,AMNE07.jpg,AMSA11.jpg,AMNE06.jpg,AMSA18.jpg,AMSA18.jpg,MS,2,num_4,16,num_4,2.18333189533,,,2017_Apr_21_1520,60.008218464,MAFE4ImagesEEG,001,100221,
AFNE01.JPG,AFNE01.JPG,AFNE01.JPG,AFNE01.JPG,AFNE01.JPG,AFNE01.JPG,,,,,,,,,4,2,42,0,,,,,,,,,,,,,,,AMSA17.jpg,AMSA02.jpg,AMNE18.jpg,AMNE06.jpg,AMNE06.jpg,MN,1,num_4,32,num_8,1.33339897793,,,2017_Apr_21_1520,60.008218464,MAFE4ImagesEEG,001,100221,
AFNE01.JPG,AFNE01.JPG,AFNE01.JPG,AFNE01.JPG,AFNE01.JPG,AFNE01.JPG,,,,,,,,,4,3,43,9,,,,,,,,,,,,,,,AMNE16.jpg,AMNE19.jpg,AMSA07.jpg,AMSA20.jpg,AMNE19.jpg,MN,1,num_6,32,num_4,3.49990522163,,,2017_Apr_21_1520,60.008218464,MAFE4ImagesEEG,001,100221,
AFNE01.JPG,AFNE01.JPG,AFNE01.JPG,AFNE01.JPG,AFNE01.JPG,AFNE01.JPG,,,,,,,,,4,4,44,1,,,,,,,,,,,,,,,AMSA13.jpg,AMSA14.jpg,AMNE18.jpg,AMNE09.jpg,AMSA13.jpg,MS,2,num_8,48,None,,,,2017_Apr_21_1520,60.008218464,MAFE4ImagesEEG,001,100221,
AFNE01.JPG,AFNE01.JPG,AFNE01.JPG,AFNE01.JPG,AFNE01.JPG,AFNE01.JPG,,,,,,,,,4,5,45,7,,,,,,,,,,,,,,,AMNE09.jpg,AMSA16.jpg,AMNE15.jpg,AMSA12.jpg,AMNE15.jpg,MN,1,num_2,32,num_4,2.68296994129,,,2017_Apr_21_1520,60.008218464,MAFE4ImagesEEG,001,100221,
AFNE01.JPG,AFNE01.JPG,AFNE01.JPG,AFNE01.JPG,AFNE01.JPG,AFNE01.JPG,,,,,,,,,4,6,46,6,,,,,,,,,,,,,,,AMSA01.jpg,AMNE10.jpg,AMSA12.jpg,AMNE14.jpg,AMSA01.jpg,MS,2,num_8,16,num_8,0.733479291026,,,2017_Apr_21_1520,60.008218464,MAFE4ImagesEEG,001,100221,
AFNE01.JPG,AFNE01.JPG,AFNE01.JPG,AFNE01.JPG,AFNE01.JPG,AFNE01.JPG,,,,,,,,,4,7,47,5,,,,,,,,,,,,,,,AMSA14.jpg,AMNE11.jpg,AMSA05.jpg,AMNE03.jpg,AMNE11.jpg,MN,1,num_6,32,num_8,3.31685108627,,,2017_Apr_21_1520,60.008218464,MAFE4ImagesEEG,001,100221,
AFNE01.JPG,AFNE01.JPG,AFNE01.JPG,AFNE01.JPG,AFNE01.JPG,AFNE01.JPG,,,,,,,,,4,8,48,8,,,,,,,,,,,,,,,AMNE02.jpg,AMSA05.jpg,AMNE19.jpg,AMSA12.jpg,AMSA12.jpg,MS,2,num_4,16,num_4,1.41672121908,,,2017_Apr_21_1520,60.008218464,MAFE4ImagesEEG,001,100221,
AFNE01.JPG,AFNE01.JPG,AFNE01.JPG,AFNE01.JPG,AFNE01.JPG,AFNE01.JPG,,,,,,,,,4,9,49,3,,,,,,,,,,,,,,,AMNE13.jpg,AMNE01.jpg,AMSA15.jpg,AMSA20.jpg,AMNE01.jpg,MN,1,num_6,32,num_2,2.63331471977,,,2017_Apr_21_1520,60.008218464,MAFE4ImagesEEG,001,100221,
AFNE01.JPG,AFNE01.JPG,AFNE01.JPG,AFNE01.JPG,AFNE01.JPG,AFNE01.JPG,,,,,,,,,5,0,50,3,,,,,,,,,,,,,,,AMSA18.jpg,AMSA15.jpg,AMNE13.jpg,AMNE02.jpg,AMNE13.jpg,MN,1,num_2,32,num_6,2.54997066839,,,2017_Apr_21_1520,60.008218464,MAFE4ImagesEEG,001,100221,
AFNE01.JPG,AFNE01.JPG,AFNE01.JPG,AFNE01.JPG,AFNE01.JPG,AFNE01.JPG,,,,,,,,,5,1,51,9,,,,,,,,,,,,,,,AMSA08.jpg,AMNE19.jpg,AMSA13.jpg,AMNE14.jpg,AMSA08.jpg,MS,2,num_8,16,num_8,2.39998601575,,,2017_Apr_21_1520,60.008218464,MAFE4ImagesEEG,001,100221,
AFNE01.JPG,AFNE01.JPG,AFNE01.JPG,AFNE01.JPG,AFNE01.JPG,AFNE01.JPG,,,,,,,,,5,2,52,8,,,,,,,,,,,,,,,AMSA17.jpg,AMSA18.jpg,AMNE03.jpg,AMNE07.jpg,AMSA18.jpg,MS,2,num_6,32,num_2,1.05014723528,,,2017_Apr_21_1520,60.008218464,MAFE4ImagesEEG,001,100221,
AFNE01.JPG,AFNE01.JPG,AFNE01.JPG,AFNE01.JPG,AFNE01.JPG,AFNE01.JPG,,,,,,,,,5,3,53,2,,,,,,,,,,,,,,,AMNE20.jpg,AMSA16.jpg,AMNE15.jpg,AMSA14.jpg,AMNE15.jpg,MN,1,num_2,32,num_8,1.36668335577,,,2017_Apr_21_1520,60.008218464,MAFE4ImagesEEG,001,100221,
AFNE01.JPG,AFNE01.JPG,AFNE01.JPG,AFNE01.JPG,AFNE01.JPG,AFNE01.JPG,,,,,,,,,5,4,54,7,,,,,,,,,,,,,,,AMNE17.jpg,AMNE05.jpg,AMSA10.jpg,AMSA12.jpg,AMSA12.jpg,MS,2,num_4,16,num_4,1.13340147969,,,2017_Apr_21_1520,60.008218464,MAFE4ImagesEEG,001,100221,
AFNE01.JPG,AFNE01.JPG,AFNE01.JPG,AFNE01.JPG,AFNE01.JPG,AFNE01.JPG,,,,,,,,,5,5,55,5,,,,,,,,,,,,,,,AMNE06.jpg,AMSA03.jpg,AMNE15.jpg,AMSA12.jpg,AMSA03.jpg,MS,2,num_6,32,num_2,1.21673943702,,,2017_Apr_21_1520,60.008218464,MAFE4ImagesEEG,001,100221,
AFNE01.JPG,AFNE01.JPG,AFNE01.JPG,AFNE01.JPG,AFNE01.JPG,AFNE01.JPG,,,,,,,,,5,6,56,1,,,,,,,,,,,,,,,AMNE04.jpg,AMSA02.jpg,AMSA13.jpg,AMNE02.jpg,AMSA13.jpg,MS,2,num_2,32,num_4,0.850096815091,,,2017_Apr_21_1520,60.008218464,MAFE4ImagesEEG,001,100221,
AFNE01.JPG,AFNE01.JPG,AFNE01.JPG,AFNE01.JPG,AFNE01.JPG,AFNE01.JPG,,,,,,,,,5,7,57,4,,,,,,,,,,,,,,,AMSA15.jpg,AMNE14.jpg,AMSA20.jpg,AMNE17.jpg,AMNE17.jpg,MN,1,num_4,32,num_8,1.8833606657,,,2017_Apr_21_1520,60.008218464,MAFE4ImagesEEG,001,100221,
AFNE01.JPG,AFNE01.JPG,AFNE01.JPG,AFNE01.JPG,AFNE01.JPG,AFNE01.JPG,,,,,,,,,5,8,58,0,,,,,,,,,,,,,,,AMSA02.jpg,AMSA15.jpg,AMNE13.jpg,AMNE07.jpg,AMSA15.jpg,MS,2,num_6,16,num_6,0.550161187421,,,2017_Apr_21_1520,60.008218464,MAFE4ImagesEEG,001,100221,
AFNE01.JPG,AFNE01.JPG,AFNE01.JPG,AFNE01.JPG,AFNE01.JPG,AFNE01.JPG,,,,,,,,,5,9,59,6,,,,,,,,,,,,,,,AMSA02.jpg,AMSA09.jpg,AMNE14.jpg,AMNE17.jpg,AMSA02.jpg,MS,2,num_8,16,num_8,0.96675828041,,,2017_Apr_21_1520,60.008218464,MAFE4ImagesEEG,001,100221,
,,,,,,,,,,,,,,,,,,,,,,,,,,,,,,,,,,,,,,,,,,,space,15.8155750259,2017_Apr_21_1520,60.008218464,MAFE4ImagesEEG,001,100221,
AFNE01.JPG,AFNE01.JPG,AFNE01.JPG,AFNE01.JPG,AFNE01.JPG,AFNE01.JPG,,,,,,,,,,,,,0,0,0,8,,,,,,,,,,,AFSA01.jpg,AFNE13.jpg,AFSA11.jpg,AFNE05.jpg,AFNE13.jpg,FN,3,num_6,32,num_8,0.966767261154,,,2017_Apr_21_1520,60.008218464,MAFE4ImagesEEG,001,100221,
AFNE01.JPG,AFNE01.JPG,AFNE01.JPG,AFNE01.JPG,AFNE01.JPG,AFNE01.JPG,,,,,,,,,,,,,0,1,1,3,,,,,,,,,,,AFNE06.jpg,AFNE09.jpg,AFSA04.jpg,AFSA01.jpg,AFNE09.jpg,FN,3,num_6,16,num_6,1.06672046531,,,2017_Apr_21_1520,60.008218464,MAFE4ImagesEEG,001,100221,
AFNE01.JPG,AFNE01.JPG,AFNE01.JPG,AFNE01.JPG,AFNE01.JPG,AFNE01.JPG,,,,,,,,,,,,,0,2,2,4,,,,,,,,,,,AFSA06.jpg,AFNE19.jpg,AFNE09.jpg,AFSA17.jpg,AFNE09.jpg,FN,3,num_2,32,num_6,0.86678037938,,,2017_Apr_21_1520,60.008218464,MAFE4ImagesEEG,001,100221,
AFNE01.JPG,AFNE01.JPG,AFNE01.JPG,AFNE01.JPG,AFNE01.JPG,AFNE01.JPG,,,,,,,,,,,,,0,3,3,1,,,,,,,,,,,AFSA06.jpg,AFNE05.jpg,AFSA03.jpg,AFNE11.jpg,AFSA03.jpg,FS,4,num_2,16,num_2,2.63325762819,,,2017_Apr_21_1520,60.008218464,MAFE4ImagesEEG,001,100221,
AFNE01.JPG,AFNE01.JPG,AFNE01.JPG,AFNE01.JPG,AFNE01.JPG,AFNE01.JPG,,,,,,,,,,,,,0,4,4,9,,,,,,,,,,,AFSA16.jpg,AFNE19.jpg,AFNE05.jpg,AFSA14.jpg,AFNE05.jpg,FN,3,num_2,16,num_2,0.733755768102,,,2017_Apr_21_1520,60.008218464,MAFE4ImagesEEG,001,100221,
AFNE01.JPG,AFNE01.JPG,AFNE01.JPG,AFNE01.JPG,AFNE01.JPG,AFNE01.JPG,,,,,,,,,,,,,0,5,5,7,,,,,,,,,,,AFNE04.jpg,AFSA16.jpg,AFSA10.jpg,AFNE14.jpg,AFSA16.jpg,FS,4,num_6,16,num_6,1.08340370882,,,2017_Apr_21_1520,60.008218464,MAFE4ImagesEEG,001,100221,
AFNE01.JPG,AFNE01.JPG,AFNE01.JPG,AFNE01.JPG,AFNE01.JPG,AFNE01.JPG,,,,,,,,,,,,,0,6,6,0,,,,,,,,,,,AFNE20.jpg,AFSA11.jpg,AFNE18.jpg,AFSA05.jpg,AFSA11.jpg,FS,4,num_6,32,num_4,2.233372966,,,2017_Apr_21_1520,60.008218464,MAFE4ImagesEEG,001,100221,
AFNE01.JPG,AFNE01.JPG,AFNE01.JPG,AFNE01.JPG,AFNE01.JPG,AFNE01.JPG,,,,,,,,,,,,,0,7,7,6,,,,,,,,,,,AFSA09.jpg,AFSA17.jpg,AFNE13.jpg,AFNE07.jpg,AFNE07.jpg,FN,3,num_4,16,num_4,1.13344542094,,,2017_Apr_21_1520,60.008218464,MAFE4ImagesEEG,001,100221,
AFNE01.JPG,AFNE01.JPG,AFNE01.JPG,AFNE01.JPG,AFNE01.JPG,AFNE01.JPG,,,,,,,,,,,,,0,8,8,5,,,,,,,,,,,AFNE17.jpg,AFNE08.jpg,AFSA08.jpg,AFSA10.jpg,AFNE08.jpg,FN,3,num_6,32,num_4,0.616791204317,,,2017_Apr_21_1520,60.008218464,MAFE4ImagesEEG,001,100221,
AFNE01.JPG,AFNE01.JPG,AFNE01.JPG,AFNE01.JPG,AFNE01.JPG,AFNE01.JPG,,,,,,,,,,,,,0,9,9,2,,,,,,,,,,,AFNE16.jpg,AFNE01.jpg,AFSA15.jpg,AFSA16.jpg,AFNE01.jpg,FN,3,num_6,16,num_6,1.5667122865,,,2017_Apr_21_1520,60.008218464,MAFE4ImagesEEG,001,100221,
AFNE01.JPG,AFNE01.JPG,AFNE01.JPG,AFNE01.JPG,AFNE01.JPG,AFNE01.JPG,,,,,,,,,,,,,1,0,10,4,,,,,,,,,,,AFSA17.jpg,AFSA01.jpg,AFNE15.jpg,AFNE06.jpg,AFSA17.jpg,FS,4,num_8,16,num_8,1.46668884048,,,2017_Apr_21_1520,60.008218464,MAFE4ImagesEEG,001,100221,
AFNE01.JPG,AFNE01.JPG,AFNE01.JPG,AFNE01.JPG,AFNE01.JPG,AFNE01.JPG,,,,,,,,,,,,,1,1,11,8,,,,,,,,,,,AFSA20.jpg,AFNE03.jpg,AFSA04.jpg,AFNE11.jpg,AFSA20.jpg,FS,4,num_8,16,num_8,1.13346658973,,,2017_Apr_21_1520,60.008218464,MAFE4ImagesEEG,001,100221,
AFNE01.JPG,AFNE01.JPG,AFNE01.JPG,AFNE01.JPG,AFNE01.JPG,AFNE01.JPG,,,,,,,,,,,,,1,2,12,2,,,,,,,,,,,AFNE06.jpg,AFNE08.jpg,AFSA04.jpg,AFSA07.jpg,AFNE06.jpg,FN,3,num_8,32,num_6,1.94976488221,,,2017_Apr_21_1520,60.008218464,MAFE4ImagesEEG,001,100221,
AFNE01.JPG,AFNE01.JPG,AFNE01.JPG,AFNE01.JPG,AFNE01.JPG,AFNE01.JPG,,,,,,,,,,,,,1,3,13,6,,,,,,,,,,,AFNE19.jpg,AFSA11.jpg,AFSA17.jpg,AFNE17.jpg,AFSA17.jpg,FS,4,num_2,32,num_8,3.93323591421,,,2017_Apr_21_1520,60.008218464,MAFE4ImagesEEG,001,100221,
AFNE01.JPG,AFNE01.JPG,AFNE01.JPG,AFNE01.JPG,AFNE01.JPG,AFNE01.JPG,,,,,,,,,,,,,1,4,14,7,,,,,,,,,,,AFNE19.jpg,AFSA16.jpg,AFNE10.jpg,AFSA08.jpg,AFSA16.jpg,FS,4,num_6,32,num_8,2.1002627174,,,2017_Apr_21_1520,60.008218464,MAFE4ImagesEEG,001,100221,
AFNE01.JPG,AFNE01.JPG,AFNE01.JPG,AFNE01.JPG,AFNE01.JPG,AFNE01.JPG,,,,,,,,,,,,,1,5,15,0,,,,,,,,,,,AFSA12.jpg,AFNE07.jpg,AFSA16.jpg,AFNE10.jpg,AFNE10.jpg,FN,3,num_4,16,num_4,0.666949344683,,,2017_Apr_21_1520,60.008218464,MAFE4ImagesEEG,001,100221,
AFNE01.JPG,AFNE01.JPG,AFNE01.JPG,AFNE01.JPG,AFNE01.JPG,AFNE01.JPG,,,,,,,,,,,,,1,6,16,1,,,,,,,,,,,AFSA03.jpg,AFSA10.jpg,AFNE06.jpg,AFNE11.jpg,AFNE11.jpg,FN,3,num_4,16,num_4,1.40006331389,,,2017_Apr_21_1520,60.008218464,MAFE4ImagesEEG,001,100221,
AFNE01.JPG,AFNE01.JPG,AFNE01.JPG,AFNE01.JPG,AFNE01.JPG,AFNE01.JPG,,,,,,,,,,,,,1,7,17,5,,,,,,,,,,,AFSA03.jpg,AFNE20.jpg,AFNE19.jpg,AFSA16.jpg,AFNE19.jpg,FN,3,num_2,32,num_4,1.25011009368,,,2017_Apr_21_1520,60.008218464,MAFE4ImagesEEG,001,100221,
AFNE01.JPG,AFNE01.JPG,AFNE01.JPG,AFNE01.JPG,AFNE01.JPG,AFNE01.JPG,,,,,,,,,,,,,1,8,18,3,,,,,,,,,,,AFSA17.jpg,AFSA09.jpg,AFNE07.jpg,AFNE01.jpg,AFNE01.jpg,FN,3,num_4,32,num_6,0.900084643043,,,2017_Apr_21_1520,60.008218464,MAFE4ImagesEEG,001,100221,
AFNE01.JPG,AFNE01.JPG,AFNE01.JPG,AFNE01.JPG,AFNE01.JPG,AFNE01.JPG,,,,,,,,,,,,,1,9,19,9,,,,,,,,,,,AFSA03.jpg,AFNE14.jpg,AFNE15.jpg,AFSA14.jpg,AFNE15.jpg,FN,3,num_2,32,num_4,4.08348581806,,,2017_Apr_21_1520,60.008218464,MAFE4ImagesEEG,001,100221,
AFNE01.JPG,AFNE01.JPG,AFNE01.JPG,AFNE01.JPG,AFNE01.JPG,AFNE01.JPG,,,,,,,,,,,,,2,0,20,4,,,,,,,,,,,AFSA14.jpg,AFNE15.jpg,AFSA19.jpg,AFNE03.jpg,AFNE15.jpg,FN,3,num_6,16,num_6,0.600130412495,,,2017_Apr_21_1520,60.008218464,MAFE4ImagesEEG,001,100221,
AFNE01.JPG,AFNE01.JPG,AFNE01.JPG,AFNE01.JPG,AFNE01.JPG,AFNE01.JPG,,,,,,,,,,,,,2,1,21,7,,,,,,,,,,,AFSA15.jpg,AFNE12.jpg,AFNE05.jpg,AFSA10.jpg,AFNE12.jpg,FN,3,num_6,32,num_4,2.11641289253,,,2017_Apr_21_1520,60.008218464,MAFE4ImagesEEG,001,100221,
AFNE01.JPG,AFNE01.JPG,AFNE01.JPG,AFNE01.JPG,AFNE01.JPG,AFNE01.JPG,,,,,,,,,,,,,2,2,22,3,,,,,,,,,,,AFSA13.jpg,AFSA20.jpg,AFNE07.jpg,AFNE17.jpg,AFSA13.jpg,FS,4,num_8,32,num_4,4.56645633664,,,2017_Apr_21_1520,60.008218464,MAFE4ImagesEEG,001,100221,
AFNE01.JPG,AFNE01.JPG,AFNE01.JPG,AFNE01.JPG,AFNE01.JPG,AFNE01.JPG,,,,,,,,,,,,,2,3,23,2,,,,,,,,,,,AFSA13.jpg,AFNE01.jpg,AFNE04.jpg,AFSA18.jpg,AFSA13.jpg,FS,4,num_8,16,num_8,1.18337294995,,,2017_Apr_21_1520,60.008218464,MAFE4ImagesEEG,001,100221,
AFNE01.JPG,AFNE01.JPG,AFNE01.JPG,AFNE01.JPG,AFNE01.JPG,AFNE01.JPG,,,,,,,,,,,,,2,4,24,1,,,,,,,,,,,AFSA17.jpg,AFNE07.jpg,AFNE12.jpg,AFSA09.jpg,AFSA09.jpg,FS,4,num_4,32,num_8,0.950101016788,,,2017_Apr_21_1520,60.008218464,MAFE4ImagesEEG,001,100221,
AFNE01.JPG,AFNE01.JPG,AFNE01.JPG,AFNE01.JPG,AFNE01.JPG,AFNE01.JPG,,,,,,,,,,,,,2,5,25,8,,,,,,,,,,,AFNE07.jpg,AFNE11.jpg,AFSA04.jpg,AFSA05.jpg,AFSA04.jpg,FS,4,num_2,48,None,,,,2017_Apr_21_1520,60.008218464,MAFE4ImagesEEG,001,100221,
AFNE01.JPG,AFNE01.JPG,AFNE01.JPG,AFNE01.JPG,AFNE01.JPG,AFNE01.JPG,,,,,,,,,,,,,2,6,26,9,,,,,,,,,,,AFSA16.jpg,AFNE08.jpg,AFSA15.jpg,AFNE04.jpg,AFNE08.jpg,FN,3,num_6,16,num_6,1.46671931067,,,2017_Apr_21_1520,60.008218464,MAFE4ImagesEEG,001,100221,
AFNE01.JPG,AFNE01.JPG,AFNE01.JPG,AFNE01.JPG,AFNE01.JPG,AFNE01.JPG,,,,,,,,,,,,,2,7,27,5,,,,,,,,,,,AFNE19.jpg,AFSA10.jpg,AFSA17.jpg,AFNE02.jpg,AFNE02.jpg,FN,3,num_4,16,num_4,1.16672723292,,,2017_Apr_21_1520,60.008218464,MAFE4ImagesEEG,001,100221,
AFNE01.JPG,AFNE01.JPG,AFNE01.JPG,AFNE01.JPG,AFNE01.JPG,AFNE01.JPG,,,,,,,,,,,,,2,8,28,0,,,,,,,,,,,AFNE19.jpg,AFNE04.jpg,AFSA06.jpg,AFSA01.jpg,AFSA01.jpg,FS,4,num_4,32,num_2,2.35006361856,,,2017_Apr_21_1520,60.008218464,MAFE4ImagesEEG,001,100221,
AFNE01.JPG,AFNE01.JPG,AFNE01.JPG,AFNE01.JPG,AFNE01.JPG,AFNE01.JPG,,,,,,,,,,,,,2,9,29,6,,,,,,,,,,,AFNE03.jpg,AFSA15.jpg,AFSA12.jpg,AFNE02.jpg,AFSA15.jpg,FS,4,num_6,16,num_6,0.850002517807,,,2017_Apr_21_1520,60.008218464,MAFE4ImagesEEG,001,100221,
AFNE01.JPG,AFNE01.JPG,AFNE01.JPG,AFNE01.JPG,AFNE01.JPG,AFNE01.JPG,,,,,,,,,,,,,3,0,30,8,,,,,,,,,,,AFSA01.jpg,AFNE03.jpg,AFNE18.jpg,AFSA04.jpg,AFSA01.jpg,FS,4,num_8,32,num_4,0.899859484227,,,2017_Apr_21_1520,60.008218464,MAFE4ImagesEEG,001,100221,
AFNE01.JPG,AFNE01.JPG,AFNE01.JPG,AFNE01.JPG,AFNE01.JPG,AFNE01.JPG,,,,,,,,,,,,,3,1,31,4,,,,,,,,,,,AFSA08.jpg,AFSA04.jpg,AFNE10.jpg,AFNE02.jpg,AFNE10.jpg,FN,3,num_2,16,num_2,1.66658113629,,,2017_Apr_21_1520,60.008218464,MAFE4ImagesEEG,001,100221,
AFNE01.JPG,AFNE01.JPG,AFNE01.JPG,AFNE01.JPG,AFNE01.JPG,AFNE01.JPG,,,,,,,,,,,,,3,2,32,9,,,,,,,,,,,AFNE09.jpg,AFNE16.jpg,AFSA01.jpg,AFSA12.jpg,AFSA01.jpg,FS,4,num_2,32,num_6,0.666644642537,,,2017_Apr_21_1520,60.008218464,MAFE4ImagesEEG,001,100221,
AFNE01.JPG,AFNE01.JPG,AFNE01.JPG,AFNE01.JPG,AFNE01.JPG,AFNE01.JPG,,,,,,,,,,,,,3,3,33,3,,,,,,,,,,,AFSA19.jpg,AFNE14.jpg,AFNE06.jpg,AFSA18.jpg,AFNE06.jpg,FN,3,num_2,32,num_6,1.30032500497,,,2017_Apr_21_1520,60.008218464,MAFE4ImagesEEG,001,100221,
AFNE01.JPG,AFNE01.JPG,AFNE01.JPG,AFNE01.JPG,AFNE01.JPG,AFNE01.JPG,,,,,,,,,,,,,3,4,34,0,,,,,,,,,,,AFSA20.jpg,AFNE15.jpg,AFSA18.jpg,AFNE01.jpg,AFSA20.jpg,FS,4,num_8,16,num_8,1.30008862022,,,2017_Apr_21_1520,60.008218464,MAFE4ImagesEEG,001,100221,
AFNE01.JPG,AFNE01.JPG,AFNE01.JPG,AFNE01.JPG,AFNE01.JPG,AFNE01.JPG,,,,,,,,,,,,,3,5,35,6,,,,,,,,,,,AFSA19.jpg,AFNE17.jpg,AFSA18.jpg,AFNE07.jpg,AFNE17.jpg,FN,3,num_6,16,num_6,0.850116700865,,,2017_Apr_21_1520,60.008218464,MAFE4ImagesEEG,001,100221,
AFNE01.JPG,AFNE01.JPG,AFNE01.JPG,AFNE01.JPG,AFNE01.JPG,AFNE01.JPG,,,,,,,,,,,,,3,6,36,5,,,,,,,,,,,AFSA17.jpg,AFNE09.jpg,AFSA05.jpg,AFNE11.jpg,AFNE09.jpg,FN,3,num_6,32,num_8,4.44967716007,,,2017_Apr_21_1520,60.008218464,MAFE4ImagesEEG,001,100221,
AFNE01.JPG,AFNE01.JPG,AFNE01.JPG,AFNE01.JPG,AFNE01.JPG,AFNE01.JPG,,,,,,,,,,,,,3,7,37,1,,,,,,,,,,,AFNE17.jpg,AFSA01.jpg,AFNE04.jpg,AFSA05.jpg,AFSA01.jpg,FS,4,num_6,16,num_6,4.44977274031,,,2017_Apr_21_1520,60.008218464,MAFE4ImagesEEG,001,100221,
AFNE01.JPG,AFNE01.JPG,AFNE01.JPG,AFNE01.JPG,AFNE01.JPG,AFNE01.JPG,,,,,,,,,,,,,3,8,38,2,,,,,,,,,,,AFSA03.jpg,AFNE11.jpg,AFNE14.jpg,AFSA09.jpg,AFSA03.jpg,FS,4,num_8,48,None,,,,2017_Apr_21_1520,60.008218464,MAFE4ImagesEEG,001,100221,
AFNE01.JPG,AFNE01.JPG,AFNE01.JPG,AFNE01.JPG,AFNE01.JPG,AFNE01.JPG,,,,,,,,,,,,,3,9,39,7,,,,,,,,,,,AFNE06.jpg,AFSA10.jpg,AFSA19.jpg,AFNE17.jpg,AFNE06.jpg,FN,3,num_8,16,num_8,1.00032170129,,,2017_Apr_21_1520,60.008218464,MAFE4ImagesEEG,001,100221,
AFNE01.JPG,AFNE01.JPG,AFNE01.JPG,AFNE01.JPG,AFNE01.JPG,AFNE01.JPG,,,,,,,,,,,,,4,0,40,7,,,,,,,,,,,AFSA08.jpg,AFNE11.jpg,AFSA04.jpg,AFNE04.jpg,AFNE04.jpg,FN,3,num_4,16,num_4,0.500236545049,,,2017_Apr_21_1520,60.008218464,MAFE4ImagesEEG,001,100221,
AFNE01.JPG,AFNE01.JPG,AFNE01.JPG,AFNE01.JPG,AFNE01.JPG,AFNE01.JPG,,,,,,,,,,,,,4,1,41,1,,,,,,,,,,,AFSA08.jpg,AFNE03.jpg,AFNE14.jpg,AFSA04.jpg,AFSA04.jpg,FS,4,num_4,32,num_6,2.66677807004,,,2017_Apr_21_1520,60.008218464,MAFE4ImagesEEG,001,100221,
AFNE01.JPG,AFNE01.JPG,AFNE01.JPG,AFNE01.JPG,AFNE01.JPG,AFNE01.JPG,,,,,,,,,,,,,4,2,42,5,,,,,,,,,,,AFNE10.jpg,AFNE07.jpg,AFSA08.jpg,AFSA18.jpg,AFSA18.jpg,FS,4,num_4,32,num_2,0.916745114082,,,2017_Apr_21_1520,60.008218464,MAFE4ImagesEEG,001,100221,
AFNE01.JPG,AFNE01.JPG,AFNE01.JPG,AFNE01.JPG,AFNE01.JPG,AFNE01.JPG,,,,,,,,,,,,,4,3,43,9,,,,,,,,,,,AFSA20.jpg,AFSA18.jpg,AFNE08.jpg,AFNE16.jpg,AFNE16.jpg,FN,3,num_4,32,num_8,0.966757959686,,,2017_Apr_21_1520,60.008218464,MAFE4ImagesEEG,001,100221,
AFNE01.JPG,AFNE01.JPG,AFNE01.JPG,AFNE01.JPG,AFNE01.JPG,AFNE01.JPG,,,,,,,,,,,,,4,4,44,2,,,,,,,,,,,AFSA13.jpg,AFNE13.jpg,AFSA18.jpg,AFNE01.jpg,AFSA13.jpg,FS,4,num_8,32,num_4,1.08343385835,,,2017_Apr_21_1520,60.008218464,MAFE4ImagesEEG,001,100221,
AFNE01.JPG,AFNE01.JPG,AFNE01.JPG,AFNE01.JPG,AFNE01.JPG,AFNE01.JPG,,,,,,,,,,,,,4,5,45,3,,,,,,,,,,,AFNE18.jpg,AFSA16.jpg,AFNE16.jpg,AFSA11.jpg,AFNE18.jpg,FN,3,num_8,16,num_8,0.183504452987,,,2017_Apr_21_1520,60.008218464,MAFE4ImagesEEG,001,100221,
AFNE01.JPG,AFNE01.JPG,AFNE01.JPG,AFNE01.JPG,AFNE01.JPG,AFNE01.JPG,,,,,,,,,,,,,4,6,46,6,,,,,,,,,,,AFSA17.jpg,AFNE02.jpg,AFNE08.jpg,AFSA14.jpg,AFSA17.jpg,FS,4,num_8,16,num_8,2.31664453034,,,2017_Apr_21_1520,60.008218464,MAFE4ImagesEEG,001,100221,
AFNE01.JPG,AFNE01.JPG,AFNE01.JPG,AFNE01.JPG,AFNE01.JPG,AFNE01.JPG,,,,,,,,,,,,,4,7,47,4,,,,,,,,,,,AFSA19.jpg,AFNE09.jpg,AFNE12.jpg,AFSA12.jpg,AFNE09.jpg,FN,3,num_6,16,num_6,4.28315391723,,,2017_Apr_21_1520,60.008218464,MAFE4ImagesEEG,001,100221,
AFNE01.JPG,AFNE01.JPG,AFNE01.JPG,AFNE01.JPG,AFNE01.JPG,AFNE01.JPG,,,,,,,,,,,,,4,8,48,8,,,,,,,,,,,AFSA11.jpg,AFSA04.jpg,AFNE11.jpg,AFNE04.jpg,AFSA11.jpg,FS,4,num_8,16,num_8,2.93296585185,,,2017_Apr_21_1520,60.008218464,MAFE4ImagesEEG,001,100221,
AFNE01.JPG,AFNE01.JPG,AFNE01.JPG,AFNE01.JPG,AFNE01.JPG,AFNE01.JPG,,,,,,,,,,,,,4,9,49,0,,,,,,,,,,,AFNE10.jpg,AFSA12.jpg,AFNE19.jpg,AFSA08.jpg,AFNE19.jpg,FN,3,num_2,16,num_2,1.40006042726,,,2017_Apr_21_1520,60.008218464,MAFE4ImagesEEG,001,100221,
AFNE01.JPG,AFNE01.JPG,AFNE01.JPG,AFNE01.JPG,AFNE01.JPG,AFNE01.JPG,,,,,,,,,,,,,5,0,50,9,,,,,,,,,,,AFSA01.jpg,AFNE14.jpg,AFSA14.jpg,AFNE08.jpg,AFNE08.jpg,FN,3,num_4,16,num_4,0.850406649057,,,2017_Apr_21_1520,60.008218464,MAFE4ImagesEEG,001,100221,
AFNE01.JPG,AFNE01.JPG,AFNE01.JPG,AFNE01.JPG,AFNE01.JPG,AFNE01.JPG,,,,,,,,,,,,,5,1,51,4,,,,,,,,,,,AFSA05.jpg,AFNE09.jpg,AFNE07.jpg,AFSA20.jpg,AFNE07.jpg,FN,3,num_2,16,num_2,1.70028632379,,,2017_Apr_21_1520,60.008218464,MAFE4ImagesEEG,001,100221,
AFNE01.JPG,AFNE01.JPG,AFNE01.JPG,AFNE01.JPG,AFNE01.JPG,AFNE01.JPG,,,,,,,,,,,,,5,2,52,2,,,,,,,,,,,AFNE01.jpg,AFSA06.jpg,AFSA18.jpg,AFNE06.jpg,AFNE01.jpg,FN,3,num_8,32,num_4,0.749871303444,,,2017_Apr_21_1520,60.008218464,MAFE4ImagesEEG,001,100221,
AFNE01.JPG,AFNE01.JPG,AFNE01.JPG,AFNE01.JPG,AFNE01.JPG,AFNE01.JPG,,,,,,,,,,,,,5,3,53,6,,,,,,,,,,,AFSA02.jpg,AFSA03.jpg,AFNE05.jpg,AFNE02.jpg,AFSA03.jpg,FS,4,num_6,16,num_6,0.98340945004,,,2017_Apr_21_1520,60.008218464,MAFE4ImagesEEG,001,100221,
AFNE01.JPG,AFNE01.JPG,AFNE01.JPG,AFNE01.JPG,AFNE01.JPG,AFNE01.JPG,,,,,,,,,,,,,5,4,54,3,,,,,,,,,,,AFNE07.jpg,AFNE19.jpg,AFSA01.jpg,AFSA09.jpg,AFNE07.jpg,FN,3,num_8,16,num_8,2.43320496287,,,2017_Apr_21_1520,60.008218464,MAFE4ImagesEEG,001,100221,
AFNE01.JPG,AFNE01.JPG,AFNE01.JPG,AFNE01.JPG,AFNE01.JPG,AFNE01.JPG,,,,,,,,,,,,,5,5,55,0,,,,,,,,,,,AFSA09.jpg,AFNE01.jpg,AFSA18.jpg,AFNE05.jpg,AFSA18.jpg,FS,4,num_2,32,num_4,1.00012733345,,,2017_Apr_21_1520,60.008218464,MAFE4ImagesEEG,001,100221,
AFNE01.JPG,AFNE01.JPG,AFNE01.JPG,AFNE01.JPG,AFNE01.JPG,AFNE01.JPG,,,,,,,,,,,,,5,6,56,7,,,,,,,,,,,AFNE17.jpg,AFNE03.jpg,AFSA11.jpg,AFSA04.jpg,AFNE03.jpg,FN,3,num_6,32,num_4,1.03351081966,,,2017_Apr_21_1520,60.008218464,MAFE4ImagesEEG,001,100221,
AFNE01.JPG,AFNE01.JPG,AFNE01.JPG,AFNE01.JPG,AFNE01.JPG,AFNE01.JPG,,,,,,,,,,,,,5,7,57,8,,,,,,,,,,,AFNE15.jpg,AFSA03.jpg,AFNE07.jpg,AFSA15.jpg,AFSA03.jpg,FS,4,num_6,16,num_6,0.683485689748,,,2017_Apr_21_1520,60.008218464,MAFE4ImagesEEG,001,100221,
AFNE01.JPG,AFNE01.JPG,AFNE01.JPG,AFNE01.JPG,AFNE01.JPG,AFNE01.JPG,,,,,,,,,,,,,5,8,58,5,,,,,,,,,,,AFNE12.jpg,AFSA13.jpg,AFNE15.jpg,AFSA05.jpg,AFSA13.jpg,FS,4,num_6,32,num_2,2.31664677546,,,2017_Apr_21_1520,60.008218464,MAFE4ImagesEEG,001,100221,
AFNE01.JPG,AFNE01.JPG,AFNE01.JPG,AFNE01.JPG,AFNE01.JPG,AFNE01.JPG,,,,,,,,,,,,,5,9,59,1,,,,,,,,,,,AFSA15.jpg,AFNE17.jpg,AFSA14.jpg,AFNE04.jpg,AFNE04.jpg,FN,3,num_4,16,num_4,2.63328585326,,,2017_Apr_21_1520,60.008218464,MAFE4ImagesEEG,001,100221,
,,,,,,,,,,,,,,,,,,,,,,,,,,,,,,,,,,,,,,,,,,,space,8.783089609,2017_Apr_21_1520,60.008218464,MAFE4ImagesEEG,001,100221,
AFNE01.JPG,AFNE01.JPG,AFNE01.JPG,AFNE01.JPG,AFNE01.JPG,AFNE01.JPG,,,,,,,,,,,,,,,,,0,0,0,2,,,,,,,AMSA08.jpg,AMNE11.jpg,AMNE14.jpg,AMSA19.jpg,AMSA19.jpg,MS,2,num_4,32,num_6,2.21664193238,,,2017_Apr_21_1520,60.008218464,MAFE4ImagesEEG,001,100221,
AFNE01.JPG,AFNE01.JPG,AFNE01.JPG,AFNE01.JPG,AFNE01.JPG,AFNE01.JPG,,,,,,,,,,,,,,,,,0,1,1,1,,,,,,,AMNE19.jpg,AMNE11.jpg,AMSA18.jpg,AMSA05.jpg,AMSA05.jpg,MS,2,num_4,32,num_6,0.983461730531,,,2017_Apr_21_1520,60.008218464,MAFE4ImagesEEG,001,100221,
AFNE01.JPG,AFNE01.JPG,AFNE01.JPG,AFNE01.JPG,AFNE01.JPG,AFNE01.JPG,,,,,,,,,,,,,,,,,0,2,2,3,,,,,,,AMSA19.jpg,AMNE15.jpg,AMNE02.jpg,AMSA14.jpg,AMSA14.jpg,MS,2,num_4,16,num_4,0.816788061056,,,2017_Apr_21_1520,60.008218464,MAFE4ImagesEEG,001,100221,
AFNE01.JPG,AFNE01.JPG,AFNE01.JPG,AFNE01.JPG,AFNE01.JPG,AFNE01.JPG,,,,,,,,,,,,,,,,,0,3,3,5,,,,,,,AMSA15.jpg,AMSA20.jpg,AMNE07.jpg,AMNE15.jpg,AMNE07.jpg,MN,1,num_2,32,num_4,0.850099701725,,,2017_Apr_21_1520,60.008218464,MAFE4ImagesEEG,001,100221,
AFNE01.JPG,AFNE01.JPG,AFNE01.JPG,AFNE01.JPG,AFNE01.JPG,AFNE01.JPG,,,,,,,,,,,,,,,,,0,4,4,0,,,,,,,AMSA17.jpg,AMNE09.jpg,AMNE18.jpg,AMSA13.jpg,AMSA17.jpg,MS,2,num_8,32,num_4,0.616749508248,,,2017_Apr_21_1520,60.008218464,MAFE4ImagesEEG,001,100221,
AFNE01.JPG,AFNE01.JPG,AFNE01.JPG,AFNE01.JPG,AFNE01.JPG,AFNE01.JPG,,,,,,,,,,,,,,,,,0,5,5,6,,,,,,,AMSA15.jpg,AMNE07.jpg,AMSA11.jpg,AMNE01.jpg,AMSA11.jpg,MS,2,num_2,16,num_2,0.650106373127,,,2017_Apr_21_1520,60.008218464,MAFE4ImagesEEG,001,100221,
AFNE01.JPG,AFNE01.JPG,AFNE01.JPG,AFNE01.JPG,AFNE01.JPG,AFNE01.JPG,,,,,,,,,,,,,,,,,0,6,6,9,,,,,,,AMNE03.jpg,AMSA13.jpg,AMNE06.jpg,AMSA07.jpg,AMNE06.jpg,MN,1,num_2,16,num_2,1.51658910658,,,2017_Apr_21_1520,60.008218464,MAFE4ImagesEEG,001,100221,
AFNE01.JPG,AFNE01.JPG,AFNE01.JPG,AFNE01.JPG,AFNE01.JPG,AFNE01.JPG,,,,,,,,,,,,,,,,,0,7,7,4,,,,,,,AMNE18.jpg,AMNE20.jpg,AMSA08.jpg,AMSA14.jpg,AMNE20.jpg,MN,1,num_6,16,num_6,0.866797057795,,,2017_Apr_21_1520,60.008218464,MAFE4ImagesEEG,001,100221,
AFNE01.JPG,AFNE01.JPG,AFNE01.JPG,AFNE01.JPG,AFNE01.JPG,AFNE01.JPG,,,,,,,,,,,,,,,,,0,8,8,8,,,,,,,AMNE05.jpg,AMSA19.jpg,AMNE08.jpg,AMSA11.jpg,AMSA19.jpg,MS,2,num_6,16,num_6,0.666773579724,,,2017_Apr_21_1520,60.008218464,MAFE4ImagesEEG,001,100221,
AFNE01.JPG,AFNE01.JPG,AFNE01.JPG,AFNE01.JPG,AFNE01.JPG,AFNE01.JPG,,,,,,,,,,,,,,,,,0,9,9,7,,,,,,,AMSA09.jpg,AMNE04.jpg,AMSA08.jpg,AMNE01.jpg,AMSA09.jpg,MS,2,num_8,48,None,,,,2017_Apr_21_1520,60.008218464,MAFE4ImagesEEG,001,100221,
AFNE01.JPG,AFNE01.JPG,AFNE01.JPG,AFNE01.JPG,AFNE01.JPG,AFNE01.JPG,,,,,,,,,,,,,,,,,1,0,10,4,,,,,,,AMSA19.jpg,AMSA08.jpg,AMNE10.jpg,AMNE04.jpg,AMNE10.jpg,MN,1,num_2,48,None,,,,2017_Apr_21_1520,60.008218464,MAFE4ImagesEEG,001,100221,
AFNE01.JPG,AFNE01.JPG,AFNE01.JPG,AFNE01.JPG,AFNE01.JPG,AFNE01.JPG,,,,,,,,,,,,,,,,,1,1,11,0,,,,,,,AMNE05.jpg,AMSA19.jpg,AMSA07.jpg,AMNE03.jpg,AMSA19.jpg,MS,2,num_6,16,num_6,0.733530288504,,,2017_Apr_21_1520,60.008218464,MAFE4ImagesEEG,001,100221,
AFNE01.JPG,AFNE01.JPG,AFNE01.JPG,AFNE01.JPG,AFNE01.JPG,AFNE01.JPG,,,,,,,,,,,,,,,,,1,2,12,5,,,,,,,AMNE02.jpg,AMNE17.jpg,AMSA05.jpg,AMSA15.jpg,AMSA05.jpg,MS,2,num_2,32,num_4,0.733478008013,,,2017_Apr_21_1520,60.008218464,MAFE4ImagesEEG,001,100221,
AFNE01.JPG,AFNE01.JPG,AFNE01.JPG,AFNE01.JPG,AFNE01.JPG,AFNE01.JPG,,,,,,,,,,,,,,,,,1,3,13,9,,,,,,,AMNE16.jpg,AMNE07.jpg,AMSA05.jpg,AMSA11.jpg,AMSA11.jpg,MS,2,num_4,32,num_6,1.2668080912,,,2017_Apr_21_1520,60.008218464,MAFE4ImagesEEG,001,100221,
AFNE01.JPG,AFNE01.JPG,AFNE01.JPG,AFNE01.JPG,AFNE01.JPG,AFNE01.JPG,,,,,,,,,,,,,,,,,1,4,14,6,,,,,,,AMSA05.jpg,AMNE02.jpg,AMNE04.jpg,AMSA03.jpg,AMSA05.jpg,MS,2,num_8,16,num_8,0.983420996694,,,2017_Apr_21_1520,60.008218464,MAFE4ImagesEEG,001,100221,
AFNE01.JPG,AFNE01.JPG,AFNE01.JPG,AFNE01.JPG,AFNE01.JPG,AFNE01.JPG,,,,,,,,,,,,,,,,,1,5,15,3,,,,,,,AMNE08.jpg,AMSA05.jpg,AMNE19.jpg,AMSA16.jpg,AMNE19.jpg,MN,1,num_2,32,num_6,1.45011978003,,,2017_Apr_21_1520,60.008218464,MAFE4ImagesEEG,001,100221,
AFNE01.JPG,AFNE01.JPG,AFNE01.JPG,AFNE01.JPG,AFNE01.JPG,AFNE01.JPG,,,,,,,,,,,,,,,,,1,6,16,1,,,,,,,AMSA02.jpg,AMNE19.jpg,AMSA03.jpg,AMNE16.jpg,AMNE19.jpg,MN,1,num_6,32,num_8,1.21671281569,,,2017_Apr_21_1520,60.008218464,MAFE4ImagesEEG,001,100221,
AFNE01.JPG,AFNE01.JPG,AFNE01.JPG,AFNE01.JPG,AFNE01.JPG,AFNE01.JPG,,,,,,,,,,,,,,,,,1,7,17,8,,,,,,,AMSA18.jpg,AMNE13.jpg,AMNE08.jpg,AMSA08.jpg,AMSA08.jpg,MS,2,num_4,32,num_8,1.21675771917,,,2017_Apr_21_1520,60.008218464,MAFE4ImagesEEG,001,100221,
AFNE01.JPG,AFNE01.JPG,AFNE01.JPG,AFNE01.JPG,AFNE01.JPG,AFNE01.JPG,,,,,,,,,,,,,,,,,1,8,18,7,,,,,,,AMNE17.jpg,AMSA05.jpg,AMSA09.jpg,AMNE02.jpg,AMSA09.jpg,MS,2,num_2,16,num_2,0.566793112666,,,2017_Apr_21_1520,60.008218464,MAFE4ImagesEEG,001,100221,
AFNE01.JPG,AFNE01.JPG,AFNE01.JPG,AFNE01.JPG,AFNE01.JPG,AFNE01.JPG,,,,,,,,,,,,,,,,,1,9,19,2,,,,,,,AMSA01.jpg,AMNE09.jpg,AMNE03.jpg,AMSA06.jpg,AMSA06.jpg,MS,2,num_4,16,num_4,0.85011734243,,,2017_Apr_21_1520,60.008218464,MAFE4ImagesEEG,001,100221,
AFNE01.JPG,AFNE01.JPG,AFNE01.JPG,AFNE01.JPG,AFNE01.JPG,AFNE01.JPG,,,,,,,,,,,,,,,,,2,0,20,1,,,,,,,AMNE04.jpg,AMSA02.jpg,AMNE13.jpg,AMSA13.jpg,AMNE13.jpg,MN,1,num_2,48,None,,,,2017_Apr_21_1520,60.008218464,MAFE4ImagesEEG,001,100221,
AFNE01.JPG,AFNE01.JPG,AFNE01.JPG,AFNE01.JPG,AFNE01.JPG,AFNE01.JPG,,,,,,,,,,,,,,,,,2,1,21,2,,,,,,,AMSA02.jpg,AMNE11.jpg,AMSA13.jpg,AMNE05.jpg,AMNE05.jpg,MN,1,num_4,32,num_6,0.900059304666,,,2017_Apr_21_1520,60.008218464,MAFE4ImagesEEG,001,100221,
AFNE01.JPG,AFNE01.JPG,AFNE01.JPG,AFNE01.JPG,AFNE01.JPG,AFNE01.JPG,,,,,,,,,,,,,,,,,2,2,22,7,,,,,,,AMSA01.jpg,AMSA11.jpg,AMNE01.jpg,AMNE16.jpg,AMSA11.jpg,MS,2,num_6,32,num_8,1.10014083656,,,2017_Apr_21_1520,60.008218464,MAFE4ImagesEEG,001,100221,
AFNE01.JPG,AFNE01.JPG,AFNE01.JPG,AFNE01.JPG,AFNE01.JPG,AFNE01.JPG,,,,,,,,,,,,,,,,,2,3,23,5,,,,,,,AMNE07.jpg,AMNE17.jpg,AMSA01.jpg,AMSA06.jpg,AMNE17.jpg,MN,1,num_6,32,num_4,0.78345364792,,,2017_Apr_21_1520,60.008218464,MAFE4ImagesEEG,001,100221,
AFNE01.JPG,AFNE01.JPG,AFNE01.JPG,AFNE01.JPG,AFNE01.JPG,AFNE01.JPG,,,,,,,,,,,,,,,,,2,4,24,8,,,,,,,AMNE11.jpg,AMSA18.jpg,AMSA11.jpg,AMNE15.jpg,AMSA18.jpg,MS,2,num_6,32,num_2,1.08350313792,,,2017_Apr_21_1520,60.008218464,MAFE4ImagesEEG,001,100221,
AFNE01.JPG,AFNE01.JPG,AFNE01.JPG,AFNE01.JPG,AFNE01.JPG,AFNE01.JPG,,,,,,,,,,,,,,,,,2,5,25,3,,,,,,,AMNE07.jpg,AMSA09.jpg,AMSA17.jpg,AMNE04.jpg,AMSA09.jpg,MS,2,num_6,16,num_6,1.00011193793,,,2017_Apr_21_1520,60.008218464,MAFE4ImagesEEG,001,100221,
AFNE01.JPG,AFNE01.JPG,AFNE01.JPG,AFNE01.JPG,AFNE01.JPG,AFNE01.JPG,,,,,,,,,,,,,,,,,2,6,26,4,,,,,,,AMNE06.jpg,AMSA07.jpg,AMNE19.jpg,AMSA01.jpg,AMNE06.jpg,MN,1,num_8,32,num_2,0.983617288992,,,2017_Apr_21_1520,60.008218464,MAFE4ImagesEEG,001,100221,
AFNE01.JPG,AFNE01.JPG,AFNE01.JPG,AFNE01.JPG,AFNE01.JPG,AFNE01.JPG,,,,,,,,,,,,,,,,,2,7,27,9,,,,,,,AMSA13.jpg,AMNE11.jpg,AMSA18.jpg,AMNE18.jpg,AMSA13.jpg,MS,2,num_8,32,num_2,0.933513674245,,,2017_Apr_21_1520,60.008218464,MAFE4ImagesEEG,001,100221,
AFNE01.JPG,AFNE01.JPG,AFNE01.JPG,AFNE01.JPG,AFNE01.JPG,AFNE01.JPG,,,,,,,,,,,,,,,,,2,8,28,6,,,,,,,AMSA17.jpg,AMNE06.jpg,AMNE04.jpg,AMSA16.jpg,AMSA17.jpg,MS,2,num_8,16,num_8,0.666790899588,,,2017_Apr_21_1520,60.008218464,MAFE4ImagesEEG,001,100221,
AFNE01.JPG,AFNE01.JPG,AFNE01.JPG,AFNE01.JPG,AFNE01.JPG,AFNE01.JPG,,,,,,,,,,,,,,,,,2,9,29,0,,,,,,,AMSA11.jpg,AMNE17.jpg,AMNE05.jpg,AMSA15.jpg,AMSA11.jpg,MS,2,num_8,16,num_8,1.25012388546,,,2017_Apr_21_1520,60.008218464,MAFE4ImagesEEG,001,100221,
AFNE01.JPG,AFNE01.JPG,AFNE01.JPG,AFNE01.JPG,AFNE01.JPG,AFNE01.JPG,,,,,,,,,,,,,,,,,3,0,30,5,,,,,,,AMNE06.jpg,AMSA01.jpg,AMNE15.jpg,AMSA11.jpg,AMNE15.jpg,MN,1,num_2,32,num_8,3.84996916092,,,2017_Apr_21_1520,60.008218464,MAFE4ImagesEEG,001,100221,
AFNE01.JPG,AFNE01.JPG,AFNE01.JPG,AFNE01.JPG,AFNE01.JPG,AFNE01.JPG,,,,,,,,,,,,,,,,,3,1,31,0,,,,,,,AMSA01.jpg,AMNE15.jpg,AMSA07.jpg,AMNE18.jpg,AMNE18.jpg,MN,1,num_4,32,num_6,0.550189733156,,,2017_Apr_21_1520,60.008218464,MAFE4ImagesEEG,001,100221,
AFNE01.JPG,AFNE01.JPG,AFNE01.JPG,AFNE01.JPG,AFNE01.JPG,AFNE01.JPG,,,,,,,,,,,,,,,,,3,2,32,1,,,,,,,AMSA03.jpg,AMSA08.jpg,AMNE20.jpg,AMNE19.jpg,AMSA08.jpg,MS,2,num_6,16,num_6,0.416880305624,,,2017_Apr_21_1520,60.008218464,MAFE4ImagesEEG,001,100221,
AFNE01.JPG,AFNE01.JPG,AFNE01.JPG,AFNE01.JPG,AFNE01.JPG,AFNE01.JPG,,,,,,,,,,,,,,,,,3,3,33,2,,,,,,,AMNE04.jpg,AMNE03.jpg,AMSA14.jpg,AMSA04.jpg,AMNE04.jpg,MN,1,num_8,32,num_6,0.616942272405,,,2017_Apr_21_1520,60.008218464,MAFE4ImagesEEG,001,100221,
AFNE01.JPG,AFNE01.JPG,AFNE01.JPG,AFNE01.JPG,AFNE01.JPG,AFNE01.JPG,,,,,,,,,,,,,,,,,3,4,34,6,,,,,,,AMNE18.jpg,AMSA19.jpg,AMNE19.jpg,AMSA05.jpg,AMNE19.jpg,MN,1,num_2,32,num_8,4.91642501648,,,2017_Apr_21_1520,60.008218464,MAFE4ImagesEEG,001,100221,
AFNE01.JPG,AFNE01.JPG,AFNE01.JPG,AFNE01.JPG,AFNE01.JPG,AFNE01.JPG,,,,,,,,,,,,,,,,,3,5,35,8,,,,,,,AMSA09.jpg,AMSA13.jpg,AMNE20.jpg,AMNE01.jpg,AMSA09.jpg,MS,2,num_8,32,num_4,0.750131102104,,,2017_Apr_21_1520,60.008218464,MAFE4ImagesEEG,001,100221,
AFNE01.JPG,AFNE01.JPG,AFNE01.JPG,AFNE01.JPG,AFNE01.JPG,AFNE01.JPG,,,,,,,,,,,,,,,,,3,6,36,7,,,,,,,AMNE09.jpg,AMSA15.jpg,AMSA11.jpg,AMNE15.jpg,AMSA15.jpg,MS,2,num_6,16,num_6,1.33340346825,,,2017_Apr_21_1520,60.008218464,MAFE4ImagesEEG,001,100221,
AFNE01.JPG,AFNE01.JPG,AFNE01.JPG,AFNE01.JPG,AFNE01.JPG,AFNE01.JPG,,,,,,,,,,,,,,,,,3,7,37,4,,,,,,,AMNE15.jpg,AMSA03.jpg,AMNE02.jpg,AMSA19.jpg,AMNE02.jpg,MN,1,num_2,32,num_4,1.46671834844,,,2017_Apr_21_1520,60.008218464,MAFE4ImagesEEG,001,100221,
AFNE01.JPG,AFNE01.JPG,AFNE01.JPG,AFNE01.JPG,AFNE01.JPG,AFNE01.JPG,,,,,,,,,,,,,,,,,3,8,38,3,,,,,,,AMNE14.jpg,AMNE09.jpg,AMSA10.jpg,AMSA19.jpg,AMSA10.jpg,MS,2,num_2,32,num_6,0.883519752184,,,2017_Apr_21_1520,60.008218464,MAFE4ImagesEEG,001,100221,
AFNE01.JPG,AFNE01.JPG,AFNE01.JPG,AFNE01.JPG,AFNE01.JPG,AFNE01.JPG,,,,,,,,,,,,,,,,,3,9,39,9,,,,,,,AMSA16.jpg,AMSA11.jpg,AMNE12.jpg,AMNE03.jpg,AMNE03.jpg,MN,1,num_4,32,num_2,1.33342271263,,,2017_Apr_21_1520,60.008218464,MAFE4ImagesEEG,001,100221,
AFNE01.JPG,AFNE01.JPG,AFNE01.JPG,AFNE01.JPG,AFNE01.JPG,AFNE01.JPG,,,,,,,,,,,,,,,,,4,0,40,9,,,,,,,AMSA03.jpg,AMSA11.jpg,AMNE12.jpg,AMNE01.jpg,AMSA11.jpg,MS,2,num_6,16,num_6,1.55008453078,,,2017_Apr_21_1520,60.008218464,MAFE4ImagesEEG,001,100221,
AFNE01.JPG,AFNE01.JPG,AFNE01.JPG,AFNE01.JPG,AFNE01.JPG,AFNE01.JPG,,,,,,,,,,,,,,,,,4,1,41,1,,,,,,,AMNE01.jpg,AMSA14.jpg,AMNE11.jpg,AMSA10.jpg,AMSA10.jpg,MS,2,num_4,32,num_2,1.81671140442,,,2017_Apr_21_1520,60.008218464,MAFE4ImagesEEG,001,100221,
AFNE01.JPG,AFNE01.JPG,AFNE01.JPG,AFNE01.JPG,AFNE01.JPG,AFNE01.JPG,,,,,,,,,,,,,,,,,4,2,42,7,,,,,,,AMSA16.jpg,AMNE11.jpg,AMNE02.jpg,AMSA06.jpg,AMNE11.jpg,MN,1,num_6,16,num_6,0.683632588247,,,2017_Apr_21_1520,60.008218464,MAFE4ImagesEEG,001,100221,
AFNE01.JPG,AFNE01.JPG,AFNE01.JPG,AFNE01.JPG,AFNE01.JPG,AFNE01.JPG,,,,,,,,,,,,,,,,,4,3,43,3,,,,,,,AMSA07.jpg,AMNE15.jpg,AMSA03.jpg,AMNE17.jpg,AMNE15.jpg,MN,1,num_6,16,num_6,0.866711741197,,,2017_Apr_21_1520,60.008218464,MAFE4ImagesEEG,001,100221,
AFNE01.JPG,AFNE01.JPG,AFNE01.JPG,AFNE01.JPG,AFNE01.JPG,AFNE01.JPG,,,,,,,,,,,,,,,,,4,4,44,8,,,,,,,AMNE02.jpg,AMSA12.jpg,AMNE08.jpg,AMSA15.jpg,AMSA15.jpg,MS,2,num_4,16,num_4,0.583464488911,,,2017_Apr_21_1520,60.008218464,MAFE4ImagesEEG,001,100221,
AFNE01.JPG,AFNE01.JPG,AFNE01.JPG,AFNE01.JPG,AFNE01.JPG,AFNE01.JPG,,,,,,,,,,,,,,,,,4,5,45,4,,,,,,,AMNE14.jpg,AMSA05.jpg,AMSA15.jpg,AMNE17.jpg,AMSA15.jpg,MS,2,num_2,16,num_2,0.583573860873,,,2017_Apr_21_1520,60.008218464,MAFE4ImagesEEG,001,100221,
AFNE01.JPG,AFNE01.JPG,AFNE01.JPG,AFNE01.JPG,AFNE01.JPG,AFNE01.JPG,,,,,,,,,,,,,,,,,4,6,46,0,,,,,,,AMNE10.jpg,AMNE19.jpg,AMSA07.jpg,AMSA08.jpg,AMNE10.jpg,MN,1,num_8,32,num_6,0.716853459773,,,2017_Apr_21_1520,60.008218464,MAFE4ImagesEEG,001,100221,
AFNE01.JPG,AFNE01.JPG,AFNE01.JPG,AFNE01.JPG,AFNE01.JPG,AFNE01.JPG,,,,,,,,,,,,,,,,,4,7,47,6,,,,,,,AMSA12.jpg,AMNE09.jpg,AMSA15.jpg,AMNE12.jpg,AMNE09.jpg,MN,1,num_6,32,num_2,0.816900961276,,,2017_Apr_21_1520,60.008218464,MAFE4ImagesEEG,001,100221,
AFNE01.JPG,AFNE01.JPG,AFNE01.JPG,AFNE01.JPG,AFNE01.JPG,AFNE01.JPG,,,,,,,,,,,,,,,,,4,8,48,5,,,,,,,AMNE01.jpg,AMSA04.jpg,AMSA12.jpg,AMNE09.jpg,AMSA12.jpg,MS,2,num_2,32,num_4,0.750209362421,,,2017_Apr_21_1520,60.008218464,MAFE4ImagesEEG,001,100221,
AFNE01.JPG,AFNE01.JPG,AFNE01.JPG,AFNE01.JPG,AFNE01.JPG,AFNE01.JPG,,,,,,,,,,,,,,,,,4,9,49,2,,,,,,,AMNE14.jpg,AMSA07.jpg,AMNE20.jpg,AMSA05.jpg,AMSA07.jpg,MS,2,num_6,16,num_6,0.733446575585,,,2017_Apr_21_1520,60.008218464,MAFE4ImagesEEG,001,100221,
AFNE01.JPG,AFNE01.JPG,AFNE01.JPG,AFNE01.JPG,AFNE01.JPG,AFNE01.JPG,,,,,,,,,,,,,,,,,5,0,50,0,,,,,,,AMNE07.jpg,AMSA01.jpg,AMNE15.jpg,AMSA19.jpg,AMSA19.jpg,MS,2,num_4,16,num_4,1.9500439252,,,2017_Apr_21_1520,60.008218464,MAFE4ImagesEEG,001,100221,
AFNE01.JPG,AFNE01.JPG,AFNE01.JPG,AFNE01.JPG,AFNE01.JPG,AFNE01.JPG,,,,,,,,,,,,,,,,,5,1,51,8,,,,,,,AMSA15.jpg,AMNE16.jpg,AMNE14.jpg,AMSA17.jpg,AMSA15.jpg,MS,2,num_8,32,num_2,0.950106148608,,,2017_Apr_21_1520,60.008218464,MAFE4ImagesEEG,001,100221,
AFNE01.JPG,AFNE01.JPG,AFNE01.JPG,AFNE01.JPG,AFNE01.JPG,AFNE01.JPG,,,,,,,,,,,,,,,,,5,2,52,2,,,,,,,AMSA08.jpg,AMSA14.jpg,AMNE20.jpg,AMNE09.jpg,AMSA08.jpg,MS,2,num_8,16,num_8,0.950100375281,,,2017_Apr_21_1520,60.008218464,MAFE4ImagesEEG,001,100221,
AFNE01.JPG,AFNE01.JPG,AFNE01.JPG,AFNE01.JPG,AFNE01.JPG,AFNE01.JPG,,,,,,,,,,,,,,,,,5,3,53,3,,,,,,,AMNE03.jpg,AMNE18.jpg,AMSA01.jpg,AMSA07.jpg,AMSA07.jpg,MS,2,num_4,32,num_2,0.833416778944,,,2017_Apr_21_1520,60.008218464,MAFE4ImagesEEG,001,100221,
AFNE01.JPG,AFNE01.JPG,AFNE01.JPG,AFNE01.JPG,AFNE01.JPG,AFNE01.JPG,,,,,,,,,,,,,,,,,5,4,54,5,,,,,,,AMNE03.jpg,AMSA16.jpg,AMNE10.jpg,AMSA10.jpg,AMSA16.jpg,MS,2,num_6,32,num_4,1.81667484017,,,2017_Apr_21_1520,60.008218464,MAFE4ImagesEEG,001,100221,
AFNE01.JPG,AFNE01.JPG,AFNE01.JPG,AFNE01.JPG,AFNE01.JPG,AFNE01.JPG,,,,,,,,,,,,,,,,,5,5,55,9,,,,,,,AMSA14.jpg,AMNE02.jpg,AMSA18.jpg,AMNE06.jpg,AMSA18.jpg,MS,2,num_2,32,num_8,0.999788632966,,,2017_Apr_21_1520,60.008218464,MAFE4ImagesEEG,001,100221,
AFNE01.JPG,AFNE01.JPG,AFNE01.JPG,AFNE01.JPG,AFNE01.JPG,AFNE01.JPG,,,,,,,,,,,,,,,,,5,6,56,4,,,,,,,AMSA13.jpg,AMNE13.jpg,AMSA06.jpg,AMNE14.jpg,AMSA06.jpg,MS,2,num_2,16,num_2,0.783474495984,,,2017_Apr_21_1520,60.008218464,MAFE4ImagesEEG,001,100221,
AFNE01.JPG,AFNE01.JPG,AFNE01.JPG,AFNE01.JPG,AFNE01.JPG,AFNE01.JPG,,,,,,,,,,,,,,,,,5,7,57,7,,,,,,,AMNE02.jpg,AMSA11.jpg,AMSA01.jpg,AMNE09.jpg,AMSA11.jpg,MS,2,num_6,32,num_4,0.533468321722,,,2017_Apr_21_1520,60.008218464,MAFE4ImagesEEG,001,100221,
AFNE01.JPG,AFNE01.JPG,AFNE01.JPG,AFNE01.JPG,AFNE01.JPG,AFNE01.JPG,,,,,,,,,,,,,,,,,5,8,58,6,,,,,,,AMNE20.jpg,AMSA08.jpg,AMSA20.jpg,AMNE19.jpg,AMSA20.jpg,MS,2,num_2,16,num_2,0.650144541112,,,2017_Apr_21_1520,60.008218464,MAFE4ImagesEEG,001,100221,
AFNE01.JPG,AFNE01.JPG,AFNE01.JPG,AFNE01.JPG,AFNE01.JPG,AFNE01.JPG,,,,,,,,,,,,,,,,,5,9,59,1,,,,,,,AMNE05.jpg,AMSA13.jpg,AMNE09.jpg,AMSA02.jpg,AMNE05.jpg,MN,1,num_8,32,num_6,0.616862408351,,,2017_Apr_21_1520,60.008218464,MAFE4ImagesEEG,001,100221,
,,,,,,,,,,,,,,,,,,,,,,,,,,,,,,,,,,,,,,,,,,,space,64.945265875,2017_Apr_21_1520,60.008218464,MAFE4ImagesEEG,001,100221,
AFNE01.JPG,AFNE01.JPG,AFNE01.JPG,AFNE01.JPG,AFNE01.JPG,AFNE01.JPG,,,,,,,,,,,,,,,,,,,,,0,0,0,3,,,AFNE05.jpg,AFNE02.jpg,AFSA02.jpg,AFSA05.jpg,AFNE02.jpg,FN,3,num_6,16,num_6,0.533446190704,,,2017_Apr_21_1520,60.008218464,MAFE4ImagesEEG,001,100221,
AFNE01.JPG,AFNE01.JPG,AFNE01.JPG,AFNE01.JPG,AFNE01.JPG,AFNE01.JPG,,,,,,,,,,,,,,,,,,,,,0,1,1,7,,,AFSA03.jpg,AFSA02.jpg,AFNE18.jpg,AFNE07.jpg,AFNE18.jpg,FN,3,num_2,32,num_4,0.51679726626,,,2017_Apr_21_1520,60.008218464,MAFE4ImagesEEG,001,100221,
AFNE01.JPG,AFNE01.JPG,AFNE01.JPG,AFNE01.JPG,AFNE01.JPG,AFNE01.JPG,,,,,,,,,,,,,,,,,,,,,0,2,2,2,,,AFNE16.jpg,AFSA19.jpg,AFNE08.jpg,AFSA02.jpg,AFSA19.jpg,FS,4,num_6,16,num_6,0.583534730773,,,2017_Apr_21_1520,60.008218464,MAFE4ImagesEEG,001,100221,
AFNE01.JPG,AFNE01.JPG,AFNE01.JPG,AFNE01.JPG,AFNE01.JPG,AFNE01.JPG,,,,,,,,,,,,,,,,,,,,,0,3,3,5,,,AFNE20.jpg,AFSA11.jpg,AFSA20.jpg,AFNE16.jpg,AFSA20.jpg,FS,4,num_2,32,num_8,1.10007700947,,,2017_Apr_21_1520,60.008218464,MAFE4ImagesEEG,001,100221,
AFNE01.JPG,AFNE01.JPG,AFNE01.JPG,AFNE01.JPG,AFNE01.JPG,AFNE01.JPG,,,,,,,,,,,,,,,,,,,,,0,4,4,8,,,AFSA15.jpg,AFNE11.jpg,AFNE17.jpg,AFSA14.jpg,AFNE17.jpg,FN,3,num_2,32,num_4,0.600175636704,,,2017_Apr_21_1520,60.008218464,MAFE4ImagesEEG,001,100221,
AFNE01.JPG,AFNE01.JPG,AFNE01.JPG,AFNE01.JPG,AFNE01.JPG,AFNE01.JPG,,,,,,,,,,,,,,,,,,,,,0,5,5,9,,,AFSA10.jpg,AFNE03.jpg,AFNE19.jpg,AFSA07.jpg,AFSA10.jpg,FS,4,num_8,16,num_8,0.850124719378,,,2017_Apr_21_1520,60.008218464,MAFE4ImagesEEG,001,100221,
AFNE01.JPG,AFNE01.JPG,AFNE01.JPG,AFNE01.JPG,AFNE01.JPG,AFNE01.JPG,,,,,,,,,,,,,,,,,,,,,0,6,6,4,,,AFNE08.jpg,AFSA10.jpg,AFNE17.jpg,AFSA19.jpg,AFNE08.jpg,FN,3,num_8,16,num_8,0.983451787615,,,2017_Apr_21_1520,60.008218464,MAFE4ImagesEEG,001,100221,
AFNE01.JPG,AFNE01.JPG,AFNE01.JPG,AFNE01.JPG,AFNE01.JPG,AFNE01.JPG,,,,,,,,,,,,,,,,,,,,,0,7,7,6,,,AFSA18.jpg,AFNE11.jpg,AFSA11.jpg,AFNE08.jpg,AFSA11.jpg,FS,4,num_2,16,num_2,0.966741281271,,,2017_Apr_21_1520,60.008218464,MAFE4ImagesEEG,001,100221,
AFNE01.JPG,AFNE01.JPG,AFNE01.JPG,AFNE01.JPG,AFNE01.JPG,AFNE01.JPG,,,,,,,,,,,,,,,,,,,,,0,8,8,0,,,AFNE07.jpg,AFSA17.jpg,AFSA04.jpg,AFNE10.jpg,AFNE07.jpg,FN,3,num_8,16,num_8,0.866783586738,,,2017_Apr_21_1520,60.008218464,MAFE4ImagesEEG,001,100221,
AFNE01.JPG,AFNE01.JPG,AFNE01.JPG,AFNE01.JPG,AFNE01.JPG,AFNE01.JPG,,,,,,,,,,,,,,,,,,,,,0,9,9,1,,,AFNE12.jpg,AFSA14.jpg,AFNE03.jpg,AFSA02.jpg,AFNE03.jpg,FN,3,num_2,16,num_2,1.08340723696,,,2017_Apr_21_1520,60.008218464,MAFE4ImagesEEG,001,100221,
AFNE01.JPG,AFNE01.JPG,AFNE01.JPG,AFNE01.JPG,AFNE01.JPG,AFNE01.JPG,,,,,,,,,,,,,,,,,,,,,1,0,10,5,,,AFSA07.jpg,AFNE04.jpg,AFSA09.jpg,AFNE06.jpg,AFSA07.jpg,FS,4,num_8,16,num_8,1.28351731464,,,2017_Apr_21_1520,60.008218464,MAFE4ImagesEEG,001,100221,
AFNE01.JPG,AFNE01.JPG,AFNE01.JPG,AFNE01.JPG,AFNE01.JPG,AFNE01.JPG,,,,,,,,,,,,,,,,,,,,,1,1,11,2,,,AFSA18.jpg,AFSA08.jpg,AFNE15.jpg,AFNE10.jpg,AFSA08.jpg,FS,4,num_6,32,num_4,1.03339631576,,,2017_Apr_21_1520,60.008218464,MAFE4ImagesEEG,001,100221,
AFNE01.JPG,AFNE01.JPG,AFNE01.JPG,AFNE01.JPG,AFNE01.JPG,AFNE01.JPG,,,,,,,,,,,,,,,,,,,,,1,2,12,6,,,AFNE06.jpg,AFSA16.jpg,AFNE05.jpg,AFSA13.jpg,AFSA13.jpg,FS,4,num_4,16,num_4,0.600115017034,,,2017_Apr_21_1520,60.008218464,MAFE4ImagesEEG,001,100221,
AFNE01.JPG,AFNE01.JPG,AFNE01.JPG,AFNE01.JPG,AFNE01.JPG,AFNE01.JPG,,,,,,,,,,,,,,,,,,,,,1,3,13,7,,,AFSA16.jpg,AFSA18.jpg,AFNE07.jpg,AFNE03.jpg,AFNE03.jpg,FN,3,num_4,32,num_8,1.03343801189,,,2017_Apr_21_1520,60.008218464,MAFE4ImagesEEG,001,100221,
AFNE01.JPG,AFNE01.JPG,AFNE01.JPG,AFNE01.JPG,AFNE01.JPG,AFNE01.JPG,,,,,,,,,,,,,,,,,,,,,1,4,14,8,,,AFNE14.jpg,AFSA20.jpg,AFNE18.jpg,AFSA10.jpg,AFNE14.jpg,FN,3,num_8,32,num_4,1.60000211687,,,2017_Apr_21_1520,60.008218464,MAFE4ImagesEEG,001,100221,
AFNE01.JPG,AFNE01.JPG,AFNE01.JPG,AFNE01.JPG,AFNE01.JPG,AFNE01.JPG,,,,,,,,,,,,,,,,,,,,,1,5,15,4,,,AFNE20.jpg,AFNE12.jpg,AFSA20.jpg,AFSA13.jpg,AFNE20.jpg,FN,3,num_8,32,num_2,1.16670061159,,,2017_Apr_21_1520,60.008218464,MAFE4ImagesEEG,001,100221,
AFNE01.JPG,AFNE01.JPG,AFNE01.JPG,AFNE01.JPG,AFNE01.JPG,AFNE01.JPG,,,,,,,,,,,,,,,,,,,,,1,6,16,9,,,AFNE12.jpg,AFSA15.jpg,AFSA09.jpg,AFNE04.jpg,AFSA15.jpg,FS,4,num_6,32,num_8,1.48342821328,,,2017_Apr_21_1520,60.008218464,MAFE4ImagesEEG,001,100221,
AFNE01.JPG,AFNE01.JPG,AFNE01.JPG,AFNE01.JPG,AFNE01.JPG,AFNE01.JPG,,,,,,,,,,,,,,,,,,,,,1,7,17,0,,,AFNE05.jpg,AFNE04.jpg,AFSA02.jpg,AFSA17.jpg,AFNE04.jpg,FN,3,num_6,16,num_6,1.10012768622,,,2017_Apr_21_1520,60.008218464,MAFE4ImagesEEG,001,100221,
AFNE01.JPG,AFNE01.JPG,AFNE01.JPG,AFNE01.JPG,AFNE01.JPG,AFNE01.JPG,,,,,,,,,,,,,,,,,,,,,1,8,18,3,,,AFSA19.jpg,AFNE14.jpg,AFSA08.jpg,AFNE06.jpg,AFNE06.jpg,FN,3,num_4,16,num_4,0.983409770823,,,2017_Apr_21_1520,60.008218464,MAFE4ImagesEEG,001,100221,
AFNE01.JPG,AFNE01.JPG,AFNE01.JPG,AFNE01.JPG,AFNE01.JPG,AFNE01.JPG,,,,,,,,,,,,,,,,,,,,,1,9,19,1,,,AFNE06.jpg,AFNE11.jpg,AFSA15.jpg,AFSA16.jpg,AFSA15.jpg,FS,4,num_2,16,num_2,1.15010300541,,,2017_Apr_21_1520,60.008218464,MAFE4ImagesEEG,001,100221,
AFNE01.JPG,AFNE01.JPG,AFNE01.JPG,AFNE01.JPG,AFNE01.JPG,AFNE01.JPG,,,,,,,,,,,,,,,,,,,,,2,0,20,3,,,AFSA08.jpg,AFSA18.jpg,AFNE19.jpg,AFNE01.jpg,AFSA08.jpg,FS,4,num_8,16,num_8,1.0834175006,,,2017_Apr_21_1520,60.008218464,MAFE4ImagesEEG,001,100221,
AFNE01.JPG,AFNE01.JPG,AFNE01.JPG,AFNE01.JPG,AFNE01.JPG,AFNE01.JPG,,,,,,,,,,,,,,,,,,,,,2,1,21,9,,,AFSA06.jpg,AFNE07.jpg,AFNE17.jpg,AFSA04.jpg,AFSA06.jpg,FS,4,num_8,16,num_8,1.53337306221,,,2017_Apr_21_1520,60.008218464,MAFE4ImagesEEG,001,100221,
AFNE01.JPG,AFNE01.JPG,AFNE01.JPG,AFNE01.JPG,AFNE01.JPG,AFNE01.JPG,,,,,,,,,,,,,,,,,,,,,2,2,22,5,,,AFSA01.jpg,AFSA11.jpg,AFNE03.jpg,AFNE13.jpg,AFSA11.jpg,FS,4,num_6,16,num_6,1.46654322487,,,2017_Apr_21_1520,60.008218464,MAFE4ImagesEEG,001,100221,
AFNE01.JPG,AFNE01.JPG,AFNE01.JPG,AFNE01.JPG,AFNE01.JPG,AFNE01.JPG,,,,,,,,,,,,,,,,,,,,,2,3,23,4,,,AFNE09.jpg,AFNE11.jpg,AFSA12.jpg,AFSA15.jpg,AFNE09.jpg,FN,3,num_8,32,num_4,2.0333600723,,,2017_Apr_21_1520,60.008218464,MAFE4ImagesEEG,001,100221,
AFNE01.JPG,AFNE01.JPG,AFNE01.JPG,AFNE01.JPG,AFNE01.JPG,AFNE01.JPG,,,,,,,,,,,,,,,,,,,,,2,4,24,6,,,AFSA14.jpg,AFNE17.jpg,AFNE07.jpg,AFSA03.jpg,AFSA03.jpg,FS,4,num_4,16,num_4,1.05016134778,,,2017_Apr_21_1520,60.008218464,MAFE4ImagesEEG,001,100221,
AFNE01.JPG,AFNE01.JPG,AFNE01.JPG,AFNE01.JPG,AFNE01.JPG,AFNE01.JPG,,,,,,,,,,,,,,,,,,,,,2,5,25,8,,,AFNE15.jpg,AFSA02.jpg,AFSA03.jpg,AFNE13.jpg,AFSA03.jpg,FS,4,num_2,16,num_2,0.900188241736,,,2017_Apr_21_1520,60.008218464,MAFE4ImagesEEG,001,100221,
AFNE01.JPG,AFNE01.JPG,AFNE01.JPG,AFNE01.JPG,AFNE01.JPG,AFNE01.JPG,,,,,,,,,,,,,,,,,,,,,2,6,26,0,,,AFNE03.jpg,AFNE17.jpg,AFSA10.jpg,AFSA03.jpg,AFSA03.jpg,FS,4,num_4,16,num_4,0.616750791203,,,2017_Apr_21_1520,60.008218464,MAFE4ImagesEEG,001,100221,
AFNE01.JPG,AFNE01.JPG,AFNE01.JPG,AFNE01.JPG,AFNE01.JPG,AFNE01.JPG,,,,,,,,,,,,,,,,,,,,,2,7,27,1,,,AFNE13.jpg,AFNE06.jpg,AFSA02.jpg,AFSA09.jpg,AFSA09.jpg,FS,4,num_4,32,num_2,1.83337925252,,,2017_Apr_21_1520,60.008218464,MAFE4ImagesEEG,001,100221,
AFNE01.JPG,AFNE01.JPG,AFNE01.JPG,AFNE01.JPG,AFNE01.JPG,AFNE01.JPG,,,,,,,,,,,,,,,,,,,,,2,8,28,2,,,AFNE05.jpg,AFSA08.jpg,AFSA19.jpg,AFNE08.jpg,AFSA08.jpg,FS,4,num_6,32,num_4,2.84992778557,,,2017_Apr_21_1520,60.008218464,MAFE4ImagesEEG,001,100221,
AFNE01.JPG,AFNE01.JPG,AFNE01.JPG,AFNE01.JPG,AFNE01.JPG,AFNE01.JPG,,,,,,,,,,,,,,,,,,,,,2,9,29,7,,,AFNE04.jpg,AFNE08.jpg,AFSA14.jpg,AFSA19.jpg,AFNE04.jpg,FN,3,num_8,16,num_8,0.866798661533,,,2017_Apr_21_1520,60.008218464,MAFE4ImagesEEG,001,100221,
AFNE01.JPG,AFNE01.JPG,AFNE01.JPG,AFNE01.JPG,AFNE01.JPG,AFNE01.JPG,,,,,,,,,,,,,,,,,,,,,3,0,30,0,,,AFNE16.jpg,AFSA09.jpg,AFNE08.jpg,AFSA04.jpg,AFSA09.jpg,FS,4,num_6,32,num_2,1.06661911175,,,2017_Apr_21_1520,60.008218464,MAFE4ImagesEEG,001,100221,
AFNE01.JPG,AFNE01.JPG,AFNE01.JPG,AFNE01.JPG,AFNE01.JPG,AFNE01.JPG,,,,,,,,,,,,,,,,,,,,,3,1,31,2,,,AFSA08.jpg,AFNE01.jpg,AFSA04.jpg,AFNE11.jpg,AFSA04.jpg,FS,4,num_2,16,num_2,1.15008311952,,,2017_Apr_21_1520,60.008218464,MAFE4ImagesEEG,001,100221,
AFNE01.JPG,AFNE01.JPG,AFNE01.JPG,AFNE01.JPG,AFNE01.JPG,AFNE01.JPG,,,,,,,,,,,,,,,,,,,,,3,2,32,4,,,AFSA15.jpg,AFSA07.jpg,AFNE17.jpg,AFNE04.jpg,AFNE17.jpg,FN,3,num_2,32,num_4,1.10012768622,,,2017_Apr_21_1520,60.008218464,MAFE4ImagesEEG,001,100221,
AFNE01.JPG,AFNE01.JPG,AFNE01.JPG,AFNE01.JPG,AFNE01.JPG,AFNE01.JPG,,,,,,,,,,,,,,,,,,,,,3,3,33,1,,,AFNE05.jpg,AFSA01.jpg,AFNE16.jpg,AFSA15.jpg,AFNE16.jpg,FN,3,num_2,32,num_4,1.11672785837,,,2017_Apr_21_1520,60.008218464,MAFE4ImagesEEG,001,100221,
AFNE01.JPG,AFNE01.JPG,AFNE01.JPG,AFNE01.JPG,AFNE01.JPG,AFNE01.JPG,,,,,,,,,,,,,,,,,,,,,3,4,34,8,,,AFNE02.jpg,AFSA19.jpg,AFNE07.jpg,AFSA13.jpg,AFNE07.jpg,FN,3,num_2,16,num_2,1.71652534371,,,2017_Apr_21_1520,60.008218464,MAFE4ImagesEEG,001,100221,
AFNE01.JPG,AFNE01.JPG,AFNE01.JPG,AFNE01.JPG,AFNE01.JPG,AFNE01.JPG,,,,,,,,,,,,,,,,,,,,,3,5,35,9,,,AFNE16.jpg,AFSA18.jpg,AFSA02.jpg,AFNE17.jpg,AFNE17.jpg,FN,3,num_4,16,num_4,0.900085284491,,,2017_Apr_21_1520,60.008218464,MAFE4ImagesEEG,001,100221,
AFNE01.JPG,AFNE01.JPG,AFNE01.JPG,AFNE01.JPG,AFNE01.JPG,AFNE01.JPG,,,,,,,,,,,,,,,,,,,,,3,6,36,5,,,AFNE10.jpg,AFNE08.jpg,AFSA15.jpg,AFSA03.jpg,AFNE10.jpg,FN,3,num_8,32,num_2,1.46673342318,,,2017_Apr_21_1520,60.008218464,MAFE4ImagesEEG,001,100221,
AFNE01.JPG,AFNE01.JPG,AFNE01.JPG,AFNE01.JPG,AFNE01.JPG,AFNE01.JPG,,,,,,,,,,,,,,,,,,,,,3,7,37,7,,,AFNE01.jpg,AFSA17.jpg,AFNE17.jpg,AFSA08.jpg,AFSA17.jpg,FS,4,num_6,32,num_2,0.766780667996,,,2017_Apr_21_1520,60.008218464,MAFE4ImagesEEG,001,100221,
AFNE01.JPG,AFNE01.JPG,AFNE01.JPG,AFNE01.JPG,AFNE01.JPG,AFNE01.JPG,,,,,,,,,,,,,,,,,,,,,3,8,38,6,,,AFNE15.jpg,AFSA20.jpg,AFSA16.jpg,AFNE01.jpg,AFNE01.jpg,FN,3,num_4,16,num_4,0.950128279568,,,2017_Apr_21_1520,60.008218464,MAFE4ImagesEEG,001,100221,
AFNE01.JPG,AFNE01.JPG,AFNE01.JPG,AFNE01.JPG,AFNE01.JPG,AFNE01.JPG,,,,,,,,,,,,,,,,,,,,,3,9,39,3,,,AFNE12.jpg,AFSA09.jpg,AFNE05.jpg,AFSA17.jpg,AFNE05.jpg,FN,3,num_2,32,num_4,1.88336355228,,,2017_Apr_21_1520,60.008218464,MAFE4ImagesEEG,001,100221,
AFNE01.JPG,AFNE01.JPG,AFNE01.JPG,AFNE01.JPG,AFNE01.JPG,AFNE01.JPG,,,,,,,,,,,,,,,,,,,,,4,0,40,1,,,AFSA18.jpg,AFSA02.jpg,AFNE08.jpg,AFNE20.jpg,AFNE20.jpg,FN,3,num_4,32,num_2,1.28343969572,,,2017_Apr_21_1520,60.008218464,MAFE4ImagesEEG,001,100221,
AFNE01.JPG,AFNE01.JPG,AFNE01.JPG,AFNE01.JPG,AFNE01.JPG,AFNE01.JPG,,,,,,,,,,,,,,,,,,,,,4,1,41,3,,,AFSA03.jpg,AFNE17.jpg,AFSA11.jpg,AFNE04.jpg,AFNE17.jpg,FN,3,num_6,16,num_6,1.71678514237,,,2017_Apr_21_1520,60.008218464,MAFE4ImagesEEG,001,100221,
AFNE01.JPG,AFNE01.JPG,AFNE01.JPG,AFNE01.JPG,AFNE01.JPG,AFNE01.JPG,,,,,,,,,,,,,,,,,,,,,4,2,42,0,,,AFSA02.jpg,AFNE03.jpg,AFSA01.jpg,AFNE11.jpg,AFNE03.jpg,FN,3,num_6,16,num_6,0.750119555509,,,2017_Apr_21_1520,60.008218464,MAFE4ImagesEEG,001,100221,
