IPosition2,IPosition3,IPosition1,IPosition6,IPosition4,IPosition5,TrialsF1.thisRepN,TrialsF1.thisTrialN,TrialsF1.thisN,TrialsF1.thisIndex,TrialsM1.thisRepN,TrialsM1.thisTrialN,TrialsM1.thisN,TrialsM1.thisIndex,TrialsF2.thisRepN,TrialsF2.thisTrialN,TrialsF2.thisN,TrialsF2.thisIndex,TrialsM2.thisRepN,TrialsM2.thisTrialN,TrialsM2.thisN,TrialsM2.thisIndex,TrialsF3.thisRepN,TrialsF3.thisTrialN,TrialsF3.thisN,TrialsF3.thisIndex,TrialsM3.thisRepN,TrialsM3.thisTrialN,TrialsM3.thisN,TrialsM3.thisIndex,InstrKey_resp.keys,InstrKey_resp.rt,Image0 _Position,Image1 _Position,Image2 _Position,Image3 _Position,Center_image,condition,code,correct_answer,accuracy,Key_Resp.keys,Key_Resp.rt,BreakKey_resp.keys,BreakKey_resp.rt,date,frameRate,expName,session,participant,
,,,,,,,,,,,,,,,,,,,,,,,,,,,,,,space,14.5493853196,,,,,,,,,,,,,,2017_Apr_28_1243,59.9933229368,FEMA4ImagesEEG,001,100287,
AMSA21.JPG,AMNE23.JPG,AMNE21.JPG,AMSA25.JPG,AMNE25.JPG,AMSA23.JPG,0,0,0,5,,,,,,,,,,,,,,,,,,,,,,,AFNE03.jpg,AFSA02.jpg,AFSA14.jpg,AFNE17.jpg,AFNE17.jpg,FN,3,num_4,32,num_6,1.78338853782,,,2017_Apr_28_1243,59.9933229368,FEMA4ImagesEEG,001,100287,
AMNE22.JPG,AMSA24.JPG,AMSA22.JPG,AMNE25.JPG,AMNE24.JPG,AMSA25.JPG,0,1,1,7,,,,,,,,,,,,,,,,,,,,,,,AFNE04.jpg,AFSA08.jpg,AFSA05.jpg,AFNE16.jpg,AFNE04.jpg,FN,3,num_8,32,num_2,1.40009218047,,,2017_Apr_28_1243,59.9933229368,FEMA4ImagesEEG,001,100287,
AMSA21.JPG,AMNE22.JPG,AMNE21.JPG,AMSA23.JPG,AMSA22.JPG,AMNE23.JPG,0,2,2,1,,,,,,,,,,,,,,,,,,,,,,,AFNE19.jpg,AFNE09.jpg,AFSA15.jpg,AFSA07.jpg,AFSA07.jpg,FS,4,num_4,32,num_8,0.750088443747,,,2017_Apr_28_1243,59.9933229368,FEMA4ImagesEEG,001,100287,
AFSA25.JPG,AFNE24.JPG,AFSA24.JPG,AFNE21.JPG,AFSA21.JPG,AFNE25.JPG,0,3,3,2,,,,,,,,,,,,,,,,,,,,,,,AFNE16.jpg,AFSA08.jpg,AFNE06.jpg,AFSA10.jpg,AFSA08.jpg,FS,4,num_6,32,num_4,1.54989561543,,,2017_Apr_28_1243,59.9933229368,FEMA4ImagesEEG,001,100287,
AFNE23.JPG,AFNE24.JPG,AFNE22.JPG,AFSA24.JPG,AFSA22.JPG,AFSA23.JPG,0,4,4,8,,,,,,,,,,,,,,,,,,,,,,,AFNE16.jpg,AFNE07.jpg,AFSA09.jpg,AFSA02.jpg,AFNE16.jpg,FN,3,num_8,32,num_2,0.950131166261,,,2017_Apr_28_1243,59.9933229368,FEMA4ImagesEEG,001,100287,
AFSA21.JPG,AFNE23.JPG,AFNE21.JPG,AFSA25.JPG,AFNE25.JPG,AFSA23.JPG,0,5,5,4,,,,,,,,,,,,,,,,,,,,,,,AFNE15.jpg,AFNE19.jpg,AFSA02.jpg,AFSA15.jpg,AFNE19.jpg,FN,3,num_6,32,num_8,1.40009731217,,,2017_Apr_28_1243,59.9933229368,FEMA4ImagesEEG,001,100287,
AFSA21.JPG,AFNE22.JPG,AFNE21.JPG,AFSA23.JPG,AFSA22.JPG,AFNE23.JPG,0,6,6,0,,,,,,,,,,,,,,,,,,,,,,,AFNE10.jpg,AFNE12.jpg,AFSA01.jpg,AFSA09.jpg,AFNE10.jpg,FN,3,num_8,32,num_6,1.60004669963,,,2017_Apr_28_1243,59.9933229368,FEMA4ImagesEEG,001,100287,
AFNE22.JPG,AFSA24.JPG,AFSA22.JPG,AFNE25.JPG,AFNE24.JPG,AFSA25.JPG,0,7,7,6,,,,,,,,,,,,,,,,,,,,,,,AFNE01.jpg,AFNE05.jpg,AFSA03.jpg,AFSA15.jpg,AFNE05.jpg,FN,3,num_6,32,num_8,0.966794523876,,,2017_Apr_28_1243,59.9933229368,FEMA4ImagesEEG,001,100287,
AMSA25.JPG,AMNE24.JPG,AMSA24.JPG,AMNE26.JPG,AMSA21.JPG,AMNE25.JPG,0,8,8,3,,,,,,,,,,,,,,,,,,,,,,,AFNE20.jpg,AFSA17.jpg,AFNE16.jpg,AFSA13.jpg,AFNE16.jpg,FN,3,num_2,32,num_4,1.13343964762,,,2017_Apr_28_1243,59.9933229368,FEMA4ImagesEEG,001,100287,
AMNE23.JPG,AMNE24.JPG,AMNE22.JPG,AMSA24.JPG,AMSA22.JPG,AMSA23.JPG,0,9,9,9,,,,,,,,,,,,,,,,,,,,,,,AFSA16.jpg,AFNE16.jpg,AFSA14.jpg,AFNE02.jpg,AFSA16.jpg,FS,4,num_8,32,num_2,1.63342761993,,,2017_Apr_28_1243,59.9933229368,FEMA4ImagesEEG,001,100287,
AFSA21.JPG,AFNE22.JPG,AFNE21.JPG,AFSA23.JPG,AFSA22.JPG,AFNE23.JPG,,,,,0,0,0,0,,,,,,,,,,,,,,,,,,,AMNE11.jpg,AMNE15.jpg,AMSA17.jpg,AMSA16.jpg,AMSA17.jpg,MS,2,num_2,16,num_2,1.21672019269,,,2017_Apr_28_1243,59.9933229368,FEMA4ImagesEEG,001,100287,
AFSA21.JPG,AFNE23.JPG,AFNE21.JPG,AFSA25.JPG,AFNE25.JPG,AFSA23.JPG,,,,,0,1,1,4,,,,,,,,,,,,,,,,,,,AMSA02.jpg,AMNE17.jpg,AMNE14.jpg,AMSA20.jpg,AMSA20.jpg,MS,2,num_4,16,num_4,1.46676806302,,,2017_Apr_28_1243,59.9933229368,FEMA4ImagesEEG,001,100287,
AFSA25.JPG,AFNE24.JPG,AFSA24.JPG,AFNE21.JPG,AFSA21.JPG,AFNE25.JPG,,,,,0,2,2,2,,,,,,,,,,,,,,,,,,,AMSA09.jpg,AMSA12.jpg,AMNE20.jpg,AMNE09.jpg,AMNE20.jpg,MN,1,num_2,32,num_8,1.80006376293,,,2017_Apr_28_1243,59.9933229368,FEMA4ImagesEEG,001,100287,
AMNE23.JPG,AMNE24.JPG,AMNE22.JPG,AMSA24.JPG,AMSA22.JPG,AMSA23.JPG,,,,,0,3,3,9,,,,,,,,,,,,,,,,,,,AMSA12.jpg,AMNE06.jpg,AMNE10.jpg,AMSA04.jpg,AMNE10.jpg,MN,1,num_2,32,num_8,1.20009853109,,,2017_Apr_28_1243,59.9933229368,FEMA4ImagesEEG,001,100287,
AMSA25.JPG,AMNE24.JPG,AMSA24.JPG,AMNE26.JPG,AMSA21.JPG,AMNE25.JPG,,,,,0,4,4,3,,,,,,,,,,,,,,,,,,,AMSA04.jpg,AMNE12.jpg,AMNE05.jpg,AMSA17.jpg,AMSA17.jpg,MS,2,num_4,32,num_6,1.16667270719,,,2017_Apr_28_1243,59.9933229368,FEMA4ImagesEEG,001,100287,
AFNE22.JPG,AFSA24.JPG,AFSA22.JPG,AFNE25.JPG,AFNE24.JPG,AFSA25.JPG,,,,,0,5,5,6,,,,,,,,,,,,,,,,,,,AMSA05.jpg,AMNE06.jpg,AMSA19.jpg,AMNE02.jpg,AMNE02.jpg,MN,1,num_4,32,num_2,0.983448580257,,,2017_Apr_28_1243,59.9933229368,FEMA4ImagesEEG,001,100287,
AMNE22.JPG,AMSA24.JPG,AMSA22.JPG,AMNE25.JPG,AMNE24.JPG,AMSA25.JPG,,,,,0,6,6,7,,,,,,,,,,,,,,,,,,,AMNE02.jpg,AMNE04.jpg,AMSA09.jpg,AMSA04.jpg,AMNE04.jpg,MN,1,num_6,32,num_8,1.51639794605,,,2017_Apr_28_1243,59.9933229368,FEMA4ImagesEEG,001,100287,
AFNE23.JPG,AFNE24.JPG,AFNE22.JPG,AFSA24.JPG,AFSA22.JPG,AFSA23.JPG,,,,,0,7,7,8,,,,,,,,,,,,,,,,,,,AMSA19.jpg,AMNE20.jpg,AMNE06.jpg,AMSA13.jpg,AMSA19.jpg,MS,2,num_8,16,num_8,0.800112836063,,,2017_Apr_28_1243,59.9933229368,FEMA4ImagesEEG,001,100287,
AMSA21.JPG,AMNE23.JPG,AMNE21.JPG,AMSA25.JPG,AMNE25.JPG,AMSA23.JPG,,,,,0,8,8,5,,,,,,,,,,,,,,,,,,,AMNE18.jpg,AMNE15.jpg,AMSA17.jpg,AMSA19.jpg,AMSA17.jpg,MS,2,num_2,32,num_4,0.850134983077,,,2017_Apr_28_1243,59.9933229368,FEMA4ImagesEEG,001,100287,
AMSA21.JPG,AMNE22.JPG,AMNE21.JPG,AMSA23.JPG,AMSA22.JPG,AMNE23.JPG,,,,,0,9,9,1,,,,,,,,,,,,,,,,,,,AMNE15.jpg,AMSA19.jpg,AMSA13.jpg,AMNE16.jpg,AMNE15.jpg,MN,1,num_8,32,num_2,0.700141991139,,,2017_Apr_28_1243,59.9933229368,FEMA4ImagesEEG,001,100287,
AFNE22.JPG,AFSA24.JPG,AFSA22.JPG,AFNE25.JPG,AFNE24.JPG,AFSA25.JPG,,,,,,,,,0,0,0,6,,,,,,,,,,,,,,,AFNE01.jpg,AFSA15.jpg,AFNE18.jpg,AFSA19.jpg,AFSA15.jpg,FS,4,num_6,32,num_2,1.43344166828,,,2017_Apr_28_1243,59.9933229368,FEMA4ImagesEEG,001,100287,
AMSA21.JPG,AMNE22.JPG,AMNE21.JPG,AMSA23.JPG,AMSA22.JPG,AMNE23.JPG,,,,,,,,,0,1,1,1,,,,,,,,,,,,,,,AFNE16.jpg,AFSA17.jpg,AFSA10.jpg,AFNE03.jpg,AFSA17.jpg,FS,4,num_6,16,num_6,1.10010523442,,,2017_Apr_28_1243,59.9933229368,FEMA4ImagesEEG,001,100287,
AFSA21.JPG,AFNE23.JPG,AFNE21.JPG,AFSA25.JPG,AFNE25.JPG,AFSA23.JPG,,,,,,,,,0,2,2,4,,,,,,,,,,,,,,,AFNE13.jpg,AFSA15.jpg,AFSA11.jpg,AFNE12.jpg,AFSA15.jpg,FS,4,num_6,32,num_8,0.91676884878,,,2017_Apr_28_1243,59.9933229368,FEMA4ImagesEEG,001,100287,
AMSA21.JPG,AMNE23.JPG,AMNE21.JPG,AMSA25.JPG,AMNE25.JPG,AMSA23.JPG,,,,,,,,,0,3,3,5,,,,,,,,,,,,,,,AFSA16.jpg,AFNE20.jpg,AFSA19.jpg,AFNE01.jpg,AFSA16.jpg,FS,4,num_8,16,num_8,0.766822043341,,,2017_Apr_28_1243,59.9933229368,FEMA4ImagesEEG,001,100287,
AMNE23.JPG,AMNE24.JPG,AMNE22.JPG,AMSA24.JPG,AMSA22.JPG,AMSA23.JPG,,,,,,,,,0,4,4,9,,,,,,,,,,,,,,,AFNE11.jpg,AFSA18.jpg,AFNE01.jpg,AFSA20.jpg,AFNE11.jpg,FN,3,num_8,32,num_4,1.10010106489,,,2017_Apr_28_1243,59.9933229368,FEMA4ImagesEEG,001,100287,
AMSA25.JPG,AMNE24.JPG,AMSA24.JPG,AMNE26.JPG,AMSA21.JPG,AMNE25.JPG,,,,,,,,,0,5,5,3,,,,,,,,,,,,,,,AFSA03.jpg,AFSA17.jpg,AFNE17.jpg,AFNE08.jpg,AFSA17.jpg,FS,4,num_6,16,num_6,0.316813239129,,,2017_Apr_28_1243,59.9933229368,FEMA4ImagesEEG,001,100287,
AFNE23.JPG,AFNE24.JPG,AFNE22.JPG,AFSA24.JPG,AFSA22.JPG,AFSA23.JPG,,,,,,,,,0,6,6,8,,,,,,,,,,,,,,,AFNE16.jpg,AFNE06.jpg,AFSA12.jpg,AFSA01.jpg,AFNE16.jpg,FN,3,num_8,32,num_6,0.933431565063,,,2017_Apr_28_1243,59.9933229368,FEMA4ImagesEEG,001,100287,
AFSA25.JPG,AFNE24.JPG,AFSA24.JPG,AFNE21.JPG,AFSA21.JPG,AFNE25.JPG,,,,,,,,,0,7,7,2,,,,,,,,,,,,,,,AFSA02.jpg,AFNE06.jpg,AFNE04.jpg,AFSA07.jpg,AFSA07.jpg,FS,4,num_4,16,num_4,0.650134918978,,,2017_Apr_28_1243,59.9933229368,FEMA4ImagesEEG,001,100287,
AFSA21.JPG,AFNE22.JPG,AFNE21.JPG,AFSA23.JPG,AFSA22.JPG,AFNE23.JPG,,,,,,,,,0,8,8,0,,,,,,,,,,,,,,,AFNE05.jpg,AFSA03.jpg,AFSA09.jpg,AFNE16.jpg,AFNE16.jpg,FN,3,num_4,32,num_8,0.900119924336,,,2017_Apr_28_1243,59.9933229368,FEMA4ImagesEEG,001,100287,
AMNE22.JPG,AMSA24.JPG,AMSA22.JPG,AMNE25.JPG,AMNE24.JPG,AMSA25.JPG,,,,,,,,,0,9,9,7,,,,,,,,,,,,,,,AFNE10.jpg,AFSA19.jpg,AFSA20.jpg,AFNE13.jpg,AFSA20.jpg,FS,4,num_2,32,num_6,0.783482514438,,,2017_Apr_28_1243,59.9933229368,FEMA4ImagesEEG,001,100287,
AFSA21.JPG,AFNE22.JPG,AFNE21.JPG,AFSA23.JPG,AFSA22.JPG,AFNE23.JPG,,,,,,,,,,,,,0,0,0,0,,,,,,,,,,,AMNE14.jpg,AMNE12.jpg,AMSA03.jpg,AMSA12.jpg,AMNE14.jpg,MN,1,num_8,32,num_4,0.900128905079,,,2017_Apr_28_1243,59.9933229368,FEMA4ImagesEEG,001,100287,
AMSA21.JPG,AMNE23.JPG,AMNE21.JPG,AMSA25.JPG,AMNE25.JPG,AMSA23.JPG,,,,,,,,,,,,,0,1,1,5,,,,,,,,,,,AMNE19.jpg,AMSA03.jpg,AMNE20.jpg,AMSA06.jpg,AMSA06.jpg,MS,2,num_4,16,num_4,1.40011142474,,,2017_Apr_28_1243,59.9933229368,FEMA4ImagesEEG,001,100287,
AFSA25.JPG,AFNE24.JPG,AFSA24.JPG,AFNE21.JPG,AFSA21.JPG,AFNE25.JPG,,,,,,,,,,,,,0,2,2,2,,,,,,,,,,,AMSA15.jpg,AMNE14.jpg,AMNE13.jpg,AMSA20.jpg,AMSA20.jpg,MS,2,num_4,16,num_4,0.816772344755,,,2017_Apr_28_1243,59.9933229368,FEMA4ImagesEEG,001,100287,
AMSA25.JPG,AMNE24.JPG,AMSA24.JPG,AMNE26.JPG,AMSA21.JPG,AMNE25.JPG,,,,,,,,,,,,,0,3,3,3,,,,,,,,,,,AMSA10.jpg,AMNE08.jpg,AMNE06.jpg,AMSA18.jpg,AMNE06.jpg,MN,1,num_2,32,num_6,0.950131486985,,,2017_Apr_28_1243,59.9933229368,FEMA4ImagesEEG,001,100287,
AFNE22.JPG,AFSA24.JPG,AFSA22.JPG,AFNE25.JPG,AFNE24.JPG,AFSA25.JPG,,,,,,,,,,,,,0,4,4,6,,,,,,,,,,,AMNE10.jpg,AMSA17.jpg,AMNE04.jpg,AMSA01.jpg,AMNE10.jpg,MN,1,num_8,16,num_8,0.8167678545,,,2017_Apr_28_1243,59.9933229368,FEMA4ImagesEEG,001,100287,
AMSA21.JPG,AMNE22.JPG,AMNE21.JPG,AMSA23.JPG,AMSA22.JPG,AMNE23.JPG,,,,,,,,,,,,,0,5,5,1,,,,,,,,,,,AMSA14.jpg,AMNE09.jpg,AMNE17.jpg,AMSA18.jpg,AMSA14.jpg,MS,2,num_8,16,num_8,0.75014521461,,,2017_Apr_28_1243,59.9933229368,FEMA4ImagesEEG,001,100287,
AFNE23.JPG,AFNE24.JPG,AFNE22.JPG,AFSA24.JPG,AFSA22.JPG,AFSA23.JPG,,,,,,,,,,,,,0,6,6,8,,,,,,,,,,,AMSA05.jpg,AMNE19.jpg,AMSA04.jpg,AMNE06.jpg,AMSA04.jpg,MS,2,num_2,32,num_6,2.03341908823,,,2017_Apr_28_1243,59.9933229368,FEMA4ImagesEEG,001,100287,
AMNE23.JPG,AMNE24.JPG,AMNE22.JPG,AMSA24.JPG,AMSA22.JPG,AMSA23.JPG,,,,,,,,,,,,,0,7,7,9,,,,,,,,,,,AMNE03.jpg,AMSA13.jpg,AMSA17.jpg,AMNE16.jpg,AMNE03.jpg,MN,1,num_8,16,num_8,0.95016003272,,,2017_Apr_28_1243,59.9933229368,FEMA4ImagesEEG,001,100287,
AFSA21.JPG,AFNE23.JPG,AFNE21.JPG,AFSA25.JPG,AFNE25.JPG,AFSA23.JPG,,,,,,,,,,,,,0,8,8,4,,,,,,,,,,,AMNE12.jpg,AMNE03.jpg,AMSA14.jpg,AMSA05.jpg,AMNE03.jpg,MN,1,num_6,32,num_4,0.733322128886,,,2017_Apr_28_1243,59.9933229368,FEMA4ImagesEEG,001,100287,
AMNE22.JPG,AMSA24.JPG,AMSA22.JPG,AMNE25.JPG,AMNE24.JPG,AMSA25.JPG,,,,,,,,,,,,,0,9,9,7,,,,,,,,,,,AMSA15.jpg,AMSA17.jpg,AMNE15.jpg,AMNE17.jpg,AMSA17.jpg,MS,2,num_6,32,num_4,1.05007827643,,,2017_Apr_28_1243,59.9933229368,FEMA4ImagesEEG,001,100287,
AMSA25.JPG,AMNE24.JPG,AMSA24.JPG,AMNE26.JPG,AMSA21.JPG,AMNE25.JPG,,,,,,,,,,,,,,,,,0,0,0,3,,,,,,,AFSA10.jpg,AFNE02.jpg,AFNE15.jpg,AFSA08.jpg,AFNE15.jpg,FN,3,num_2,16,num_2,0.766820118879,,,2017_Apr_28_1243,59.9933229368,FEMA4ImagesEEG,001,100287,
AFSA25.JPG,AFNE24.JPG,AFSA24.JPG,AFNE21.JPG,AFSA21.JPG,AFNE25.JPG,,,,,,,,,,,,,,,,,0,1,1,2,,,,,,,AFNE07.jpg,AFNE17.jpg,AFSA13.jpg,AFSA10.jpg,AFNE17.jpg,FN,3,num_6,32,num_8,1.18370074523,,,2017_Apr_28_1243,59.9933229368,FEMA4ImagesEEG,001,100287,
AMNE22.JPG,AMSA24.JPG,AMSA22.JPG,AMNE25.JPG,AMNE24.JPG,AMSA25.JPG,,,,,,,,,,,,,,,,,0,2,2,7,,,,,,,AFSA04.jpg,AFNE05.jpg,AFSA17.jpg,AFNE10.jpg,AFNE05.jpg,FN,3,num_6,16,num_6,1.55010409595,,,2017_Apr_28_1243,59.9933229368,FEMA4ImagesEEG,001,100287,
AFNE23.JPG,AFNE24.JPG,AFNE22.JPG,AFSA24.JPG,AFSA22.JPG,AFSA23.JPG,,,,,,,,,,,,,,,,,0,3,3,8,,,,,,,AFSA10.jpg,AFNE04.jpg,AFNE20.jpg,AFSA08.jpg,AFSA08.jpg,FS,4,num_4,32,num_6,1.38342689828,,,2017_Apr_28_1243,59.9933229368,FEMA4ImagesEEG,001,100287,
AFNE22.JPG,AFSA24.JPG,AFSA22.JPG,AFNE25.JPG,AFNE24.JPG,AFSA25.JPG,,,,,,,,,,,,,,,,,0,4,4,6,,,,,,,AFSA20.jpg,AFNE18.jpg,AFSA18.jpg,AFNE17.jpg,AFSA18.jpg,FS,4,num_2,32,num_8,0.666733487393,,,2017_Apr_28_1243,59.9933229368,FEMA4ImagesEEG,001,100287,
AMSA21.JPG,AMNE22.JPG,AMNE21.JPG,AMSA23.JPG,AMSA22.JPG,AMNE23.JPG,,,,,,,,,,,,,,,,,0,5,5,1,,,,,,,AFNE19.jpg,AFNE20.jpg,AFSA19.jpg,AFSA02.jpg,AFSA19.jpg,FS,4,num_2,32,num_6,0.783468401874,,,2017_Apr_28_1243,59.9933229368,FEMA4ImagesEEG,001,100287,
AMNE23.JPG,AMNE24.JPG,AMNE22.JPG,AMSA24.JPG,AMSA22.JPG,AMSA23.JPG,,,,,,,,,,,,,,,,,0,6,6,9,,,,,,,AFSA15.jpg,AFNE19.jpg,AFSA03.jpg,AFNE14.jpg,AFNE14.jpg,FN,3,num_4,16,num_4,0.933480317355,,,2017_Apr_28_1243,59.9933229368,FEMA4ImagesEEG,001,100287,
AFSA21.JPG,AFNE23.JPG,AFNE21.JPG,AFSA25.JPG,AFNE25.JPG,AFSA23.JPG,,,,,,,,,,,,,,,,,0,7,7,4,,,,,,,AFSA12.jpg,AFNE18.jpg,AFNE04.jpg,AFSA05.jpg,AFNE04.jpg,FN,3,num_2,32,num_8,0.833420948591,,,2017_Apr_28_1243,59.9933229368,FEMA4ImagesEEG,001,100287,
AMSA21.JPG,AMNE23.JPG,AMNE21.JPG,AMSA25.JPG,AMNE25.JPG,AMSA23.JPG,,,,,,,,,,,,,,,,,0,8,8,5,,,,,,,AFSA16.jpg,AFSA09.jpg,AFNE15.jpg,AFNE11.jpg,AFSA16.jpg,FS,4,num_8,32,num_4,0.800114439684,,,2017_Apr_28_1243,59.9933229368,FEMA4ImagesEEG,001,100287,
AFSA21.JPG,AFNE22.JPG,AFNE21.JPG,AFSA23.JPG,AFSA22.JPG,AFNE23.JPG,,,,,,,,,,,,,,,,,0,9,9,0,,,,,,,AFSA06.jpg,AFSA08.jpg,AFNE14.jpg,AFNE18.jpg,AFNE18.jpg,FN,3,num_4,32,num_8,0.416814554017,,,2017_Apr_28_1243,59.9933229368,FEMA4ImagesEEG,001,100287,
AMNE23.JPG,AMNE24.JPG,AMNE22.JPG,AMSA24.JPG,AMSA22.JPG,AMSA23.JPG,,,,,,,,,,,,,,,,,,,,,0,0,0,9,,,AMSA17.jpg,AMNE10.jpg,AMSA03.jpg,AMNE09.jpg,AMSA03.jpg,MS,2,num_2,16,num_2,0.566784132039,,,2017_Apr_28_1243,59.9933229368,FEMA4ImagesEEG,001,100287,
AMSA21.JPG,AMNE22.JPG,AMNE21.JPG,AMSA23.JPG,AMSA22.JPG,AMNE23.JPG,,,,,,,,,,,,,,,,,,,,,0,1,1,1,,,AMSA19.jpg,AMSA14.jpg,AMNE11.jpg,AMNE19.jpg,AMSA14.jpg,MS,2,num_6,32,num_4,0.550108265481,,,2017_Apr_28_1243,59.9933229368,FEMA4ImagesEEG,001,100287,
AMSA25.JPG,AMNE24.JPG,AMSA24.JPG,AMNE26.JPG,AMSA21.JPG,AMNE25.JPG,,,,,,,,,,,,,,,,,,,,,0,2,2,3,,,AMSA17.jpg,AMNE04.jpg,AMNE05.jpg,AMSA12.jpg,AMSA17.jpg,MS,2,num_8,16,num_8,0.500114984927,,,2017_Apr_28_1243,59.9933229368,FEMA4ImagesEEG,001,100287,
AFNE23.JPG,AFNE24.JPG,AFNE22.JPG,AFSA24.JPG,AFSA22.JPG,AFSA23.JPG,,,,,,,,,,,,,,,,,,,,,0,3,3,8,,,AMNE14.jpg,AMNE09.jpg,AMSA14.jpg,AMSA19.jpg,AMSA19.jpg,MS,2,num_4,32,num_2,0.616764903651,,,2017_Apr_28_1243,59.9933229368,FEMA4ImagesEEG,001,100287,
AFNE22.JPG,AFSA24.JPG,AFSA22.JPG,AFNE25.JPG,AFNE24.JPG,AFSA25.JPG,,,,,,,,,,,,,,,,,,,,,0,4,4,6,,,AMNE16.jpg,AMSA05.jpg,AMNE09.jpg,AMSA04.jpg,AMNE09.jpg,MN,1,num_2,32,num_6,0.366828650585,,,2017_Apr_28_1243,59.9933229368,FEMA4ImagesEEG,001,100287,
AFSA25.JPG,AFNE24.JPG,AFSA24.JPG,AFNE21.JPG,AFSA21.JPG,AFNE25.JPG,,,,,,,,,,,,,,,,,,,,,0,5,5,2,,,AMSA11.jpg,AMSA18.jpg,AMNE14.jpg,AMNE11.jpg,AMSA18.jpg,MS,2,num_6,32,num_4,0.566804338596,,,2017_Apr_28_1243,59.9933229368,FEMA4ImagesEEG,001,100287,
AMNE22.JPG,AMSA24.JPG,AMSA22.JPG,AMNE25.JPG,AMNE24.JPG,AMSA25.JPG,,,,,,,,,,,,,,,,,,,,,0,6,6,7,,,AMNE10.jpg,AMSA04.jpg,AMNE15.jpg,AMSA01.jpg,AMSA01.jpg,MS,2,num_4,32,num_8,0.600141959032,,,2017_Apr_28_1243,59.9933229368,FEMA4ImagesEEG,001,100287,
AMSA21.JPG,AMNE23.JPG,AMNE21.JPG,AMSA25.JPG,AMNE25.JPG,AMSA23.JPG,,,,,,,,,,,,,,,,,,,,,0,7,7,5,,,AMSA06.jpg,AMSA20.jpg,AMNE05.jpg,AMNE03.jpg,AMSA06.jpg,MS,2,num_8,32,num_2,0.916788093164,,,2017_Apr_28_1243,59.9933229368,FEMA4ImagesEEG,001,100287,
AFSA21.JPG,AFNE23.JPG,AFNE21.JPG,AFSA25.JPG,AFNE25.JPG,AFSA23.JPG,,,,,,,,,,,,,,,,,,,,,0,8,8,4,,,AMSA20.jpg,AMSA19.jpg,AMNE05.jpg,AMNE19.jpg,AMNE19.jpg,MN,1,num_4,16,num_4,0.633533143089,,,2017_Apr_28_1243,59.9933229368,FEMA4ImagesEEG,001,100287,
AFSA21.JPG,AFNE22.JPG,AFNE21.JPG,AFSA23.JPG,AFSA22.JPG,AFNE23.JPG,,,,,,,,,,,,,,,,,,,,,0,9,9,0,,,AMSA12.jpg,AMNE08.jpg,AMSA16.jpg,AMNE06.jpg,AMNE08.jpg,MN,1,num_6,16,num_6,0.550152848242,,,2017_Apr_28_1243,59.9933229368,FEMA4ImagesEEG,001,100287,
,,,,,,,,,,,,,,,,,,,,,,,,,,,,,,,,,,,,,,,,,,,space,11.8489886615,2017_Apr_28_1243,59.9933229368,FEMA4ImagesEEG,001,100287,
AFNE01.JPG,AFNE01.JPG,AFNE01.JPG,AFNE01.JPG,AFNE01.JPG,AFNE01.JPG,0,0,0,6,,,,,,,,,,,,,,,,,,,,,,,AFNE03.jpg,AFNE12.jpg,AFSA09.jpg,AFSA04.jpg,AFNE12.jpg,FN,3,num_6,32,num_8,1.01681763318,,,2017_Apr_28_1243,59.9933229368,FEMA4ImagesEEG,001,100287,
AFNE01.JPG,AFNE01.JPG,AFNE01.JPG,AFNE01.JPG,AFNE01.JPG,AFNE01.JPG,0,1,1,1,,,,,,,,,,,,,,,,,,,,,,,AFNE14.jpg,AFSA15.jpg,AFSA08.jpg,AFNE08.jpg,AFNE08.jpg,FN,3,num_4,32,num_2,0.633477655239,,,2017_Apr_28_1243,59.9933229368,FEMA4ImagesEEG,001,100287,
AFNE01.JPG,AFNE01.JPG,AFNE01.JPG,AFNE01.JPG,AFNE01.JPG,AFNE01.JPG,0,2,2,2,,,,,,,,,,,,,,,,,,,,,,,AFNE08.jpg,AFNE09.jpg,AFSA07.jpg,AFSA08.jpg,AFSA08.jpg,FS,4,num_4,16,num_4,0.583477959968,,,2017_Apr_28_1243,59.9933229368,FEMA4ImagesEEG,001,100287,
AFNE01.JPG,AFNE01.JPG,AFNE01.JPG,AFNE01.JPG,AFNE01.JPG,AFNE01.JPG,0,3,3,5,,,,,,,,,,,,,,,,,,,,,,,AFNE18.jpg,AFSA09.jpg,AFSA15.jpg,AFNE07.jpg,AFNE18.jpg,FN,3,num_8,32,num_6,0.850121832686,,,2017_Apr_28_1243,59.9933229368,FEMA4ImagesEEG,001,100287,
AFNE01.JPG,AFNE01.JPG,AFNE01.JPG,AFNE01.JPG,AFNE01.JPG,AFNE01.JPG,0,4,4,0,,,,,,,,,,,,,,,,,,,,,,,AFSA14.jpg,AFSA02.jpg,AFNE05.jpg,AFNE17.jpg,AFSA14.jpg,FS,4,num_8,16,num_8,0.383384239976,,,2017_Apr_28_1243,59.9933229368,FEMA4ImagesEEG,001,100287,
AFNE01.JPG,AFNE01.JPG,AFNE01.JPG,AFNE01.JPG,AFNE01.JPG,AFNE01.JPG,0,5,5,8,,,,,,,,,,,,,,,,,,,,,,,AFSA12.jpg,AFNE11.jpg,AFSA01.jpg,AFNE18.jpg,AFSA12.jpg,FS,4,num_8,32,num_2,0.666767806397,,,2017_Apr_28_1243,59.9933229368,FEMA4ImagesEEG,001,100287,
AFNE01.JPG,AFNE01.JPG,AFNE01.JPG,AFNE01.JPG,AFNE01.JPG,AFNE01.JPG,0,6,6,3,,,,,,,,,,,,,,,,,,,,,,,AFSA17.jpg,AFSA05.jpg,AFNE02.jpg,AFNE07.jpg,AFSA17.jpg,FS,4,num_8,16,num_8,1.05017032847,,,2017_Apr_28_1243,59.9933229368,FEMA4ImagesEEG,001,100287,
AFNE01.JPG,AFNE01.JPG,AFNE01.JPG,AFNE01.JPG,AFNE01.JPG,AFNE01.JPG,0,7,7,7,,,,,,,,,,,,,,,,,,,,,,,AFNE08.jpg,AFNE11.jpg,AFSA02.jpg,AFSA11.jpg,AFNE08.jpg,FN,3,num_8,32,num_4,0.750144252437,,,2017_Apr_28_1243,59.9933229368,FEMA4ImagesEEG,001,100287,
AFNE01.JPG,AFNE01.JPG,AFNE01.JPG,AFNE01.JPG,AFNE01.JPG,AFNE01.JPG,0,8,8,4,,,,,,,,,,,,,,,,,,,,,,,AFNE18.jpg,AFNE17.jpg,AFSA14.jpg,AFSA08.jpg,AFSA14.jpg,FS,4,num_2,32,num_4,1.21667432704,,,2017_Apr_28_1243,59.9933229368,FEMA4ImagesEEG,001,100287,
AFNE01.JPG,AFNE01.JPG,AFNE01.JPG,AFNE01.JPG,AFNE01.JPG,AFNE01.JPG,0,9,9,9,,,,,,,,,,,,,,,,,,,,,,,AFSA18.jpg,AFNE05.jpg,AFNE11.jpg,AFSA14.jpg,AFNE05.jpg,FN,3,num_6,16,num_6,0.966762770782,,,2017_Apr_28_1243,59.9933229368,FEMA4ImagesEEG,001,100287,
AFNE01.JPG,AFNE01.JPG,AFNE01.JPG,AFNE01.JPG,AFNE01.JPG,AFNE01.JPG,1,0,10,6,,,,,,,,,,,,,,,,,,,,,,,AFNE05.jpg,AFSA09.jpg,AFSA13.jpg,AFNE04.jpg,AFSA09.jpg,FS,4,num_6,32,num_8,0.700176630984,,,2017_Apr_28_1243,59.9933229368,FEMA4ImagesEEG,001,100287,
AFNE01.JPG,AFNE01.JPG,AFNE01.JPG,AFNE01.JPG,AFNE01.JPG,AFNE01.JPG,1,1,11,3,,,,,,,,,,,,,,,,,,,,,,,AFNE05.jpg,AFSA11.jpg,AFNE08.jpg,AFSA01.jpg,AFSA11.jpg,FS,4,num_6,32,num_4,1.10011293215,,,2017_Apr_28_1243,59.9933229368,FEMA4ImagesEEG,001,100287,
AFNE01.JPG,AFNE01.JPG,AFNE01.JPG,AFNE01.JPG,AFNE01.JPG,AFNE01.JPG,1,2,12,9,,,,,,,,,,,,,,,,,,,,,,,AFNE16.jpg,AFNE06.jpg,AFSA02.jpg,AFSA08.jpg,AFNE16.jpg,FN,3,num_8,32,num_6,0.750064067659,,,2017_Apr_28_1243,59.9933229368,FEMA4ImagesEEG,001,100287,
AFNE01.JPG,AFNE01.JPG,AFNE01.JPG,AFNE01.JPG,AFNE01.JPG,AFNE01.JPG,1,3,13,2,,,,,,,,,,,,,,,,,,,,,,,AFNE19.jpg,AFSA04.jpg,AFNE06.jpg,AFSA16.jpg,AFSA16.jpg,FS,4,num_4,32,num_2,0.40017076151,,,2017_Apr_28_1243,59.9933229368,FEMA4ImagesEEG,001,100287,
AFNE01.JPG,AFNE01.JPG,AFNE01.JPG,AFNE01.JPG,AFNE01.JPG,AFNE01.JPG,1,4,14,8,,,,,,,,,,,,,,,,,,,,,,,AFSA04.jpg,AFNE02.jpg,AFSA10.jpg,AFNE17.jpg,AFSA10.jpg,FS,4,num_2,32,num_4,0.500135832932,,,2017_Apr_28_1243,59.9933229368,FEMA4ImagesEEG,001,100287,
AFNE01.JPG,AFNE01.JPG,AFNE01.JPG,AFNE01.JPG,AFNE01.JPG,AFNE01.JPG,1,5,15,4,,,,,,,,,,,,,,,,,,,,,,,AFSA09.jpg,AFNE05.jpg,AFNE13.jpg,AFSA01.jpg,AFSA09.jpg,FS,4,num_8,32,num_6,0.300142183667,,,2017_Apr_28_1243,59.9933229368,FEMA4ImagesEEG,001,100287,
AFNE01.JPG,AFNE01.JPG,AFNE01.JPG,AFNE01.JPG,AFNE01.JPG,AFNE01.JPG,1,6,16,0,,,,,,,,,,,,,,,,,,,,,,,AFSA05.jpg,AFNE11.jpg,AFSA14.jpg,AFNE17.jpg,AFSA05.jpg,FS,4,num_8,16,num_8,0.350194159313,,,2017_Apr_28_1243,59.9933229368,FEMA4ImagesEEG,001,100287,
AFNE01.JPG,AFNE01.JPG,AFNE01.JPG,AFNE01.JPG,AFNE01.JPG,AFNE01.JPG,1,7,17,5,,,,,,,,,,,,,,,,,,,,,,,AFNE08.jpg,AFSA04.jpg,AFSA20.jpg,AFNE01.jpg,AFSA04.jpg,FS,4,num_6,32,num_2,0.300181955332,,,2017_Apr_28_1243,59.9933229368,FEMA4ImagesEEG,001,100287,
AFNE01.JPG,AFNE01.JPG,AFNE01.JPG,AFNE01.JPG,AFNE01.JPG,AFNE01.JPG,1,8,18,7,,,,,,,,,,,,,,,,,,,,,,,AFSA18.jpg,AFNE12.jpg,AFNE03.jpg,AFSA16.jpg,AFNE12.jpg,FN,3,num_6,16,num_6,0.716808235622,,,2017_Apr_28_1243,59.9933229368,FEMA4ImagesEEG,001,100287,
AFNE01.JPG,AFNE01.JPG,AFNE01.JPG,AFNE01.JPG,AFNE01.JPG,AFNE01.JPG,1,9,19,1,,,,,,,,,,,,,,,,,,,,,,,AFSA18.jpg,AFSA20.jpg,AFNE10.jpg,AFNE19.jpg,AFNE10.jpg,FN,3,num_2,16,num_2,1.01641510567,,,2017_Apr_28_1243,59.9933229368,FEMA4ImagesEEG,001,100287,
AFNE01.JPG,AFNE01.JPG,AFNE01.JPG,AFNE01.JPG,AFNE01.JPG,AFNE01.JPG,2,0,20,4,,,,,,,,,,,,,,,,,,,,,,,AFSA14.jpg,AFSA12.jpg,AFNE11.jpg,AFNE05.jpg,AFNE05.jpg,FN,3,num_4,32,num_8,1.15009434544,,,2017_Apr_28_1243,59.9933229368,FEMA4ImagesEEG,001,100287,
AFNE01.JPG,AFNE01.JPG,AFNE01.JPG,AFNE01.JPG,AFNE01.JPG,AFNE01.JPG,2,1,21,3,,,,,,,,,,,,,,,,,,,,,,,AFNE17.jpg,AFNE18.jpg,AFSA18.jpg,AFSA20.jpg,AFSA20.jpg,FS,4,num_4,16,num_4,0.633515823283,,,2017_Apr_28_1243,59.9933229368,FEMA4ImagesEEG,001,100287,
AFNE01.JPG,AFNE01.JPG,AFNE01.JPG,AFNE01.JPG,AFNE01.JPG,AFNE01.JPG,2,2,22,7,,,,,,,,,,,,,,,,,,,,,,,AFSA06.jpg,AFNE14.jpg,AFNE01.jpg,AFSA04.jpg,AFSA06.jpg,FS,4,num_8,32,num_4,0.916714964667,,,2017_Apr_28_1243,59.9933229368,FEMA4ImagesEEG,001,100287,
AFNE01.JPG,AFNE01.JPG,AFNE01.JPG,AFNE01.JPG,AFNE01.JPG,AFNE01.JPG,2,3,23,8,,,,,,,,,,,,,,,,,,,,,,,AFSA05.jpg,AFNE15.jpg,AFNE13.jpg,AFSA16.jpg,AFNE15.jpg,FN,3,num_6,32,num_2,1.03347714199,,,2017_Apr_28_1243,59.9933229368,FEMA4ImagesEEG,001,100287,
AFNE01.JPG,AFNE01.JPG,AFNE01.JPG,AFNE01.JPG,AFNE01.JPG,AFNE01.JPG,2,4,24,9,,,,,,,,,,,,,,,,,,,,,,,AFNE20.jpg,AFSA17.jpg,AFSA04.jpg,AFNE17.jpg,AFSA17.jpg,FS,4,num_6,16,num_6,1.03340176831,,,2017_Apr_28_1243,59.9933229368,FEMA4ImagesEEG,001,100287,
AFNE01.JPG,AFNE01.JPG,AFNE01.JPG,AFNE01.JPG,AFNE01.JPG,AFNE01.JPG,2,5,25,6,,,,,,,,,,,,,,,,,,,,,,,AFSA07.jpg,AFNE19.jpg,AFSA13.jpg,AFNE08.jpg,AFSA13.jpg,FS,4,num_2,32,num_6,0.933819338679,,,2017_Apr_28_1243,59.9933229368,FEMA4ImagesEEG,001,100287,
AFNE01.JPG,AFNE01.JPG,AFNE01.JPG,AFNE01.JPG,AFNE01.JPG,AFNE01.JPG,2,6,26,5,,,,,,,,,,,,,,,,,,,,,,,AFSA10.jpg,AFSA04.jpg,AFNE03.jpg,AFNE12.jpg,AFNE03.jpg,FN,3,num_2,32,num_4,0.866793529596,,,2017_Apr_28_1243,59.9933229368,FEMA4ImagesEEG,001,100287,
AFNE01.JPG,AFNE01.JPG,AFNE01.JPG,AFNE01.JPG,AFNE01.JPG,AFNE01.JPG,2,7,27,1,,,,,,,,,,,,,,,,,,,,,,,AFNE07.jpg,AFSA01.jpg,AFNE15.jpg,AFSA09.jpg,AFNE15.jpg,FN,3,num_2,32,num_8,0.650180143071,,,2017_Apr_28_1243,59.9933229368,FEMA4ImagesEEG,001,100287,
AFNE01.JPG,AFNE01.JPG,AFNE01.JPG,AFNE01.JPG,AFNE01.JPG,AFNE01.JPG,2,8,28,2,,,,,,,,,,,,,,,,,,,,,,,AFNE15.jpg,AFSA18.jpg,AFNE20.jpg,AFSA17.jpg,AFNE20.jpg,FN,3,num_2,16,num_2,0.766778743593,,,2017_Apr_28_1243,59.9933229368,FEMA4ImagesEEG,001,100287,
AFNE01.JPG,AFNE01.JPG,AFNE01.JPG,AFNE01.JPG,AFNE01.JPG,AFNE01.JPG,2,9,29,0,,,,,,,,,,,,,,,,,,,,,,,AFNE08.jpg,AFNE20.jpg,AFSA11.jpg,AFSA10.jpg,AFNE08.jpg,FN,3,num_8,32,num_6,0.450172060402,,,2017_Apr_28_1243,59.9933229368,FEMA4ImagesEEG,001,100287,
AFNE01.JPG,AFNE01.JPG,AFNE01.JPG,AFNE01.JPG,AFNE01.JPG,AFNE01.JPG,3,0,30,5,,,,,,,,,,,,,,,,,,,,,,,AFNE17.jpg,AFSA12.jpg,AFSA14.jpg,AFNE03.jpg,AFSA14.jpg,FS,4,num_2,32,num_8,0.433442309848,,,2017_Apr_28_1243,59.9933229368,FEMA4ImagesEEG,001,100287,
AFNE01.JPG,AFNE01.JPG,AFNE01.JPG,AFNE01.JPG,AFNE01.JPG,AFNE01.JPG,3,1,31,3,,,,,,,,,,,,,,,,,,,,,,,AFNE11.jpg,AFNE07.jpg,AFSA01.jpg,AFSA04.jpg,AFNE11.jpg,FN,3,num_8,32,num_2,0.633445260581,,,2017_Apr_28_1243,59.9933229368,FEMA4ImagesEEG,001,100287,
AFNE01.JPG,AFNE01.JPG,AFNE01.JPG,AFNE01.JPG,AFNE01.JPG,AFNE01.JPG,3,2,32,6,,,,,,,,,,,,,,,,,,,,,,,AFSA15.jpg,AFNE16.jpg,AFNE09.jpg,AFSA02.jpg,AFNE16.jpg,FN,3,num_6,32,num_4,0.616814618232,,,2017_Apr_28_1243,59.9933229368,FEMA4ImagesEEG,001,100287,
AFNE01.JPG,AFNE01.JPG,AFNE01.JPG,AFNE01.JPG,AFNE01.JPG,AFNE01.JPG,3,3,33,2,,,,,,,,,,,,,,,,,,,,,,,AFNE20.jpg,AFNE09.jpg,AFSA02.jpg,AFSA06.jpg,AFNE20.jpg,FN,3,num_8,16,num_8,0.400126820197,,,2017_Apr_28_1243,59.9933229368,FEMA4ImagesEEG,001,100287,
AFNE01.JPG,AFNE01.JPG,AFNE01.JPG,AFNE01.JPG,AFNE01.JPG,AFNE01.JPG,3,4,34,8,,,,,,,,,,,,,,,,,,,,,,,AFNE04.jpg,AFSA13.jpg,AFNE08.jpg,AFSA02.jpg,AFSA02.jpg,FS,4,num_4,32,num_6,1.74978149647,,,2017_Apr_28_1243,59.9933229368,FEMA4ImagesEEG,001,100287,
AFNE01.JPG,AFNE01.JPG,AFNE01.JPG,AFNE01.JPG,AFNE01.JPG,AFNE01.JPG,3,5,35,4,,,,,,,,,,,,,,,,,,,,,,,AFSA15.jpg,AFSA01.jpg,AFNE20.jpg,AFNE19.jpg,AFNE19.jpg,FN,3,num_4,32,num_2,0.633470919682,,,2017_Apr_28_1243,59.9933229368,FEMA4ImagesEEG,001,100287,
AFNE01.JPG,AFNE01.JPG,AFNE01.JPG,AFNE01.JPG,AFNE01.JPG,AFNE01.JPG,3,6,36,9,,,,,,,,,,,,,,,,,,,,,,,AFNE12.jpg,AFNE08.jpg,AFSA20.jpg,AFSA05.jpg,AFSA20.jpg,FS,4,num_2,32,num_4,1.28337586869,,,2017_Apr_28_1243,59.9933229368,FEMA4ImagesEEG,001,100287,
AFNE01.JPG,AFNE01.JPG,AFNE01.JPG,AFNE01.JPG,AFNE01.JPG,AFNE01.JPG,3,7,37,0,,,,,,,,,,,,,,,,,,,,,,,AFSA15.jpg,AFNE19.jpg,AFNE16.jpg,AFSA01.jpg,AFNE19.jpg,FN,3,num_6,32,num_8,0.50011113612,,,2017_Apr_28_1243,59.9933229368,FEMA4ImagesEEG,001,100287,
AFNE01.JPG,AFNE01.JPG,AFNE01.JPG,AFNE01.JPG,AFNE01.JPG,AFNE01.JPG,3,8,38,7,,,,,,,,,,,,,,,,,,,,,,,AFNE19.jpg,AFSA15.jpg,AFNE12.jpg,AFSA12.jpg,AFSA15.jpg,FS,4,num_6,32,num_2,0.600113734137,,,2017_Apr_28_1243,59.9933229368,FEMA4ImagesEEG,001,100287,
AFNE01.JPG,AFNE01.JPG,AFNE01.JPG,AFNE01.JPG,AFNE01.JPG,AFNE01.JPG,3,9,39,1,,,,,,,,,,,,,,,,,,,,,,,AFSA11.jpg,AFNE18.jpg,AFNE19.jpg,AFSA12.jpg,AFNE19.jpg,FN,3,num_2,32,num_6,0.650116636767,,,2017_Apr_28_1243,59.9933229368,FEMA4ImagesEEG,001,100287,
AFNE01.JPG,AFNE01.JPG,AFNE01.JPG,AFNE01.JPG,AFNE01.JPG,AFNE01.JPG,4,0,40,2,,,,,,,,,,,,,,,,,,,,,,,AFNE18.jpg,AFNE02.jpg,AFSA01.jpg,AFSA10.jpg,AFSA10.jpg,FS,4,num_4,16,num_4,0.516816831427,,,2017_Apr_28_1243,59.9933229368,FEMA4ImagesEEG,001,100287,
AFNE01.JPG,AFNE01.JPG,AFNE01.JPG,AFNE01.JPG,AFNE01.JPG,AFNE01.JPG,4,1,41,9,,,,,,,,,,,,,,,,,,,,,,,AFNE09.jpg,AFNE02.jpg,AFSA17.jpg,AFSA08.jpg,AFNE09.jpg,FN,3,num_8,32,num_6,0.333457673201,,,2017_Apr_28_1243,59.9933229368,FEMA4ImagesEEG,001,100287,
AFNE01.JPG,AFNE01.JPG,AFNE01.JPG,AFNE01.JPG,AFNE01.JPG,AFNE01.JPG,4,2,42,6,,,,,,,,,,,,,,,,,,,,,,,AFNE16.jpg,AFSA20.jpg,AFSA19.jpg,AFNE12.jpg,AFSA20.jpg,FS,4,num_6,32,num_8,0.366748786648,,,2017_Apr_28_1243,59.9933229368,FEMA4ImagesEEG,001,100287,
AFNE01.JPG,AFNE01.JPG,AFNE01.JPG,AFNE01.JPG,AFNE01.JPG,AFNE01.JPG,4,3,43,4,,,,,,,,,,,,,,,,,,,,,,,AFSA03.jpg,AFNE19.jpg,AFSA20.jpg,AFNE13.jpg,AFNE13.jpg,FN,3,num_4,32,num_2,0.516814906849,,,2017_Apr_28_1243,59.9933229368,FEMA4ImagesEEG,001,100287,
AFNE01.JPG,AFNE01.JPG,AFNE01.JPG,AFNE01.JPG,AFNE01.JPG,AFNE01.JPG,4,4,44,8,,,,,,,,,,,,,,,,,,,,,,,AFNE04.jpg,AFSA18.jpg,AFSA07.jpg,AFNE09.jpg,AFSA07.jpg,FS,4,num_2,32,num_6,0.633421525941,,,2017_Apr_28_1243,59.9933229368,FEMA4ImagesEEG,001,100287,
AFNE01.JPG,AFNE01.JPG,AFNE01.JPG,AFNE01.JPG,AFNE01.JPG,AFNE01.JPG,4,5,45,1,,,,,,,,,,,,,,,,,,,,,,,AFSA03.jpg,AFNE18.jpg,AFNE08.jpg,AFSA19.jpg,AFSA19.jpg,FS,4,num_4,32,num_6,0.750115706585,,,2017_Apr_28_1243,59.9933229368,FEMA4ImagesEEG,001,100287,
AFNE01.JPG,AFNE01.JPG,AFNE01.JPG,AFNE01.JPG,AFNE01.JPG,AFNE01.JPG,4,6,46,0,,,,,,,,,,,,,,,,,,,,,,,AFNE08.jpg,AFSA07.jpg,AFNE11.jpg,AFSA12.jpg,AFSA12.jpg,FS,4,num_4,32,num_8,0.616915971856,,,2017_Apr_28_1243,59.9933229368,FEMA4ImagesEEG,001,100287,
AFNE01.JPG,AFNE01.JPG,AFNE01.JPG,AFNE01.JPG,AFNE01.JPG,AFNE01.JPG,4,7,47,7,,,,,,,,,,,,,,,,,,,,,,,AFNE18.jpg,AFSA10.jpg,AFNE04.jpg,AFSA16.jpg,AFSA16.jpg,FS,4,num_4,16,num_4,0.583534409991,,,2017_Apr_28_1243,59.9933229368,FEMA4ImagesEEG,001,100287,
AFNE01.JPG,AFNE01.JPG,AFNE01.JPG,AFNE01.JPG,AFNE01.JPG,AFNE01.JPG,4,8,48,3,,,,,,,,,,,,,,,,,,,,,,,AFSA16.jpg,AFSA15.jpg,AFNE19.jpg,AFNE08.jpg,AFSA15.jpg,FS,4,num_6,32,num_8,0.350142520387,,,2017_Apr_28_1243,59.9933229368,FEMA4ImagesEEG,001,100287,
AFNE01.JPG,AFNE01.JPG,AFNE01.JPG,AFNE01.JPG,AFNE01.JPG,AFNE01.JPG,4,9,49,5,,,,,,,,,,,,,,,,,,,,,,,AFSA16.jpg,AFNE17.jpg,AFNE12.jpg,AFSA10.jpg,AFNE17.jpg,FN,3,num_6,16,num_6,0.666836123797,,,2017_Apr_28_1243,59.9933229368,FEMA4ImagesEEG,001,100287,
AFNE01.JPG,AFNE01.JPG,AFNE01.JPG,AFNE01.JPG,AFNE01.JPG,AFNE01.JPG,5,0,50,9,,,,,,,,,,,,,,,,,,,,,,,AFNE01.jpg,AFNE20.jpg,AFSA15.jpg,AFSA05.jpg,AFNE20.jpg,FN,3,num_6,32,num_4,0.483490115963,,,2017_Apr_28_1243,59.9933229368,FEMA4ImagesEEG,001,100287,
AFNE01.JPG,AFNE01.JPG,AFNE01.JPG,AFNE01.JPG,AFNE01.JPG,AFNE01.JPG,5,1,51,5,,,,,,,,,,,,,,,,,,,,,,,AFNE14.jpg,AFSA20.jpg,AFNE01.jpg,AFSA03.jpg,AFNE01.jpg,FN,3,num_2,16,num_2,0.566778358771,,,2017_Apr_28_1243,59.9933229368,FEMA4ImagesEEG,001,100287,
AFNE01.JPG,AFNE01.JPG,AFNE01.JPG,AFNE01.JPG,AFNE01.JPG,AFNE01.JPG,5,2,52,8,,,,,,,,,,,,,,,,,,,,,,,AFNE10.jpg,AFNE12.jpg,AFSA17.jpg,AFSA15.jpg,AFNE10.jpg,FN,3,num_8,16,num_8,0.716814008774,,,2017_Apr_28_1243,59.9933229368,FEMA4ImagesEEG,001,100287,
AFNE01.JPG,AFNE01.JPG,AFNE01.JPG,AFNE01.JPG,AFNE01.JPG,AFNE01.JPG,5,3,53,7,,,,,,,,,,,,,,,,,,,,,,,AFNE10.jpg,AFNE20.jpg,AFSA05.jpg,AFSA11.jpg,AFSA11.jpg,FS,4,num_4,32,num_6,0.533488207497,,,2017_Apr_28_1243,59.9933229368,FEMA4ImagesEEG,001,100287,
AFNE01.JPG,AFNE01.JPG,AFNE01.JPG,AFNE01.JPG,AFNE01.JPG,AFNE01.JPG,5,4,54,4,,,,,,,,,,,,,,,,,,,,,,,AFSA01.jpg,AFNE09.jpg,AFNE10.jpg,AFSA05.jpg,AFNE09.jpg,FN,3,num_6,32,num_8,0.883501149365,,,2017_Apr_28_1243,59.9933229368,FEMA4ImagesEEG,001,100287,
AFNE01.JPG,AFNE01.JPG,AFNE01.JPG,AFNE01.JPG,AFNE01.JPG,AFNE01.JPG,5,5,55,3,,,,,,,,,,,,,,,,,,,,,,,AFNE01.jpg,AFSA02.jpg,AFNE10.jpg,AFSA16.jpg,AFSA02.jpg,FS,4,num_6,32,num_8,1.13336267031,,,2017_Apr_28_1243,59.9933229368,FEMA4ImagesEEG,001,100287,
AFNE01.JPG,AFNE01.JPG,AFNE01.JPG,AFNE01.JPG,AFNE01.JPG,AFNE01.JPG,5,6,56,1,,,,,,,,,,,,,,,,,,,,,,,AFNE16.jpg,AFSA09.jpg,AFNE05.jpg,AFSA19.jpg,AFNE05.jpg,FN,3,num_2,16,num_2,1.63344365684,,,2017_Apr_28_1243,59.9933229368,FEMA4ImagesEEG,001,100287,
AFNE01.JPG,AFNE01.JPG,AFNE01.JPG,AFNE01.JPG,AFNE01.JPG,AFNE01.JPG,5,7,57,0,,,,,,,,,,,,,,,,,,,,,,,AFSA07.jpg,AFSA19.jpg,AFNE03.jpg,AFNE19.jpg,AFNE19.jpg,FN,3,num_4,32,num_8,1.60005632183,,,2017_Apr_28_1243,59.9933229368,FEMA4ImagesEEG,001,100287,
AFNE01.JPG,AFNE01.JPG,AFNE01.JPG,AFNE01.JPG,AFNE01.JPG,AFNE01.JPG,5,8,58,2,,,,,,,,,,,,,,,,,,,,,,,AFNE03.jpg,AFSA04.jpg,AFSA15.jpg,AFNE05.jpg,AFNE05.jpg,FN,3,num_4,32,num_8,1.0001523511,,,2017_Apr_28_1243,59.9933229368,FEMA4ImagesEEG,001,100287,
AFNE01.JPG,AFNE01.JPG,AFNE01.JPG,AFNE01.JPG,AFNE01.JPG,AFNE01.JPG,5,9,59,6,,,,,,,,,,,,,,,,,,,,,,,AFNE12.jpg,AFNE11.jpg,AFSA01.jpg,AFSA20.jpg,AFSA01.jpg,FS,4,num_2,32,num_4,0.7334308594,,,2017_Apr_28_1243,59.9933229368,FEMA4ImagesEEG,001,100287,
,,,,,,,,,,,,,,,,,,,,,,,,,,,,,,,,,,,,,,,,,,,space,7.66649998922,2017_Apr_28_1243,59.9933229368,FEMA4ImagesEEG,001,100287,
AFNE01.JPG,AFNE01.JPG,AFNE01.JPG,AFNE01.JPG,AFNE01.JPG,AFNE01.JPG,,,,,0,0,0,9,,,,,,,,,,,,,,,,,,,AMNE10.jpg,AMSA18.jpg,AMSA01.jpg,AMNE15.jpg,AMSA18.jpg,MS,2,num_6,16,num_6,1.16675802378,,,2017_Apr_28_1243,59.9933229368,FEMA4ImagesEEG,001,100287,
AFNE01.JPG,AFNE01.JPG,AFNE01.JPG,AFNE01.JPG,AFNE01.JPG,AFNE01.JPG,,,,,0,1,1,8,,,,,,,,,,,,,,,,,,,AMNE14.jpg,AMNE04.jpg,AMSA13.jpg,AMSA12.jpg,AMSA13.jpg,MS,2,num_2,16,num_2,0.416943170479,,,2017_Apr_28_1243,59.9933229368,FEMA4ImagesEEG,001,100287,
AFNE01.JPG,AFNE01.JPG,AFNE01.JPG,AFNE01.JPG,AFNE01.JPG,AFNE01.JPG,,,,,0,2,2,3,,,,,,,,,,,,,,,,,,,AMNE09.jpg,AMNE01.jpg,AMSA14.jpg,AMSA13.jpg,AMNE01.jpg,MN,1,num_6,32,num_4,0.616798581323,,,2017_Apr_28_1243,59.9933229368,FEMA4ImagesEEG,001,100287,
AFNE01.JPG,AFNE01.JPG,AFNE01.JPG,AFNE01.JPG,AFNE01.JPG,AFNE01.JPG,,,,,0,3,3,7,,,,,,,,,,,,,,,,,,,AMSA14.jpg,AMNE09.jpg,AMSA19.jpg,AMNE07.jpg,AMNE07.jpg,MN,1,num_4,32,num_8,0.316821257584,,,2017_Apr_28_1243,59.9933229368,FEMA4ImagesEEG,001,100287,
AFNE01.JPG,AFNE01.JPG,AFNE01.JPG,AFNE01.JPG,AFNE01.JPG,AFNE01.JPG,,,,,0,4,4,0,,,,,,,,,,,,,,,,,,,AMNE08.jpg,AMSA04.jpg,AMSA09.jpg,AMNE17.jpg,AMNE17.jpg,MN,1,num_4,32,num_2,0.733476404333,,,2017_Apr_28_1243,59.9933229368,FEMA4ImagesEEG,001,100287,
AFNE01.JPG,AFNE01.JPG,AFNE01.JPG,AFNE01.JPG,AFNE01.JPG,AFNE01.JPG,,,,,0,5,5,1,,,,,,,,,,,,,,,,,,,AMSA20.jpg,AMNE10.jpg,AMSA08.jpg,AMNE12.jpg,AMSA08.jpg,MS,2,num_2,32,num_8,0.883429303765,,,2017_Apr_28_1243,59.9933229368,FEMA4ImagesEEG,001,100287,
AFNE01.JPG,AFNE01.JPG,AFNE01.JPG,AFNE01.JPG,AFNE01.JPG,AFNE01.JPG,,,,,0,6,6,4,,,,,,,,,,,,,,,,,,,AMSA12.jpg,AMSA16.jpg,AMNE11.jpg,AMNE16.jpg,AMSA16.jpg,MS,2,num_6,32,num_4,0.416797234211,,,2017_Apr_28_1243,59.9933229368,FEMA4ImagesEEG,001,100287,
AFNE01.JPG,AFNE01.JPG,AFNE01.JPG,AFNE01.JPG,AFNE01.JPG,AFNE01.JPG,,,,,0,7,7,2,,,,,,,,,,,,,,,,,,,AMNE07.jpg,AMSA01.jpg,AMSA16.jpg,AMNE11.jpg,AMNE11.jpg,MN,1,num_4,32,num_6,0.750108329696,,,2017_Apr_28_1243,59.9933229368,FEMA4ImagesEEG,001,100287,
AFNE01.JPG,AFNE01.JPG,AFNE01.JPG,AFNE01.JPG,AFNE01.JPG,AFNE01.JPG,,,,,0,8,8,6,,,,,,,,,,,,,,,,,,,AMSA09.jpg,AMSA10.jpg,AMNE02.jpg,AMNE04.jpg,AMNE02.jpg,MN,1,num_2,32,num_8,0.866751192138,,,2017_Apr_28_1243,59.9933229368,FEMA4ImagesEEG,001,100287,
AFNE01.JPG,AFNE01.JPG,AFNE01.JPG,AFNE01.JPG,AFNE01.JPG,AFNE01.JPG,,,,,0,9,9,5,,,,,,,,,,,,,,,,,,,AMSA08.jpg,AMNE15.jpg,AMSA12.jpg,AMNE09.jpg,AMNE15.jpg,MN,1,num_6,32,num_4,0.700132689672,,,2017_Apr_28_1243,59.9933229368,FEMA4ImagesEEG,001,100287,
AFNE01.JPG,AFNE01.JPG,AFNE01.JPG,AFNE01.JPG,AFNE01.JPG,AFNE01.JPG,,,,,1,0,10,5,,,,,,,,,,,,,,,,,,,AMNE10.jpg,AMNE01.jpg,AMSA14.jpg,AMSA11.jpg,AMNE01.jpg,MN,1,num_6,16,num_6,0.566775151296,,,2017_Apr_28_1243,59.9933229368,FEMA4ImagesEEG,001,100287,
AFNE01.JPG,AFNE01.JPG,AFNE01.JPG,AFNE01.JPG,AFNE01.JPG,AFNE01.JPG,,,,,1,1,11,9,,,,,,,,,,,,,,,,,,,AMSA03.jpg,AMNE04.jpg,AMNE20.jpg,AMSA13.jpg,AMSA13.jpg,MS,2,num_4,32,num_8,0.466789231752,,,2017_Apr_28_1243,59.9933229368,FEMA4ImagesEEG,001,100287,
AFNE01.JPG,AFNE01.JPG,AFNE01.JPG,AFNE01.JPG,AFNE01.JPG,AFNE01.JPG,,,,,1,2,12,0,,,,,,,,,,,,,,,,,,,AMNE01.jpg,AMSA19.jpg,AMSA16.jpg,AMNE19.jpg,AMSA16.jpg,MS,2,num_2,16,num_2,0.466805268661,,,2017_Apr_28_1243,59.9933229368,FEMA4ImagesEEG,001,100287,
AFNE01.JPG,AFNE01.JPG,AFNE01.JPG,AFNE01.JPG,AFNE01.JPG,AFNE01.JPG,,,,,1,3,13,3,,,,,,,,,,,,,,,,,,,AMNE13.jpg,AMSA03.jpg,AMSA06.jpg,AMNE08.jpg,AMSA03.jpg,MS,2,num_6,32,num_8,0.400156007498,,,2017_Apr_28_1243,59.9933229368,FEMA4ImagesEEG,001,100287,
AFNE01.JPG,AFNE01.JPG,AFNE01.JPG,AFNE01.JPG,AFNE01.JPG,AFNE01.JPG,,,,,1,4,14,7,,,,,,,,,,,,,,,,,,,AMNE05.jpg,AMSA09.jpg,AMNE12.jpg,AMSA07.jpg,AMSA07.jpg,MS,2,num_4,16,num_4,0.766830382636,,,2017_Apr_28_1243,59.9933229368,FEMA4ImagesEEG,001,100287,
AFNE01.JPG,AFNE01.JPG,AFNE01.JPG,AFNE01.JPG,AFNE01.JPG,AFNE01.JPG,,,,,1,5,15,6,,,,,,,,,,,,,,,,,,,AMNE19.jpg,AMSA19.jpg,AMNE15.jpg,AMSA04.jpg,AMNE19.jpg,MN,1,num_8,32,num_6,0.616824561148,,,2017_Apr_28_1243,59.9933229368,FEMA4ImagesEEG,001,100287,
AFNE01.JPG,AFNE01.JPG,AFNE01.JPG,AFNE01.JPG,AFNE01.JPG,AFNE01.JPG,,,,,1,6,16,2,,,,,,,,,,,,,,,,,,,AMSA02.jpg,AMSA07.jpg,AMNE12.jpg,AMNE04.jpg,AMSA02.jpg,MS,2,num_8,16,num_8,0.700117294211,,,2017_Apr_28_1243,59.9933229368,FEMA4ImagesEEG,001,100287,
AFNE01.JPG,AFNE01.JPG,AFNE01.JPG,AFNE01.JPG,AFNE01.JPG,AFNE01.JPG,,,,,1,7,17,1,,,,,,,,,,,,,,,,,,,AMNE06.jpg,AMNE07.jpg,AMSA14.jpg,AMSA07.jpg,AMSA14.jpg,MS,2,num_2,16,num_2,0.816776835127,,,2017_Apr_28_1243,59.9933229368,FEMA4ImagesEEG,001,100287,
AFNE01.JPG,AFNE01.JPG,AFNE01.JPG,AFNE01.JPG,AFNE01.JPG,AFNE01.JPG,,,,,1,8,18,8,,,,,,,,,,,,,,,,,,,AMNE17.jpg,AMSA14.jpg,AMNE03.jpg,AMSA13.jpg,AMNE03.jpg,MN,1,num_2,32,num_8,1.36671478825,,,2017_Apr_28_1243,59.9933229368,FEMA4ImagesEEG,001,100287,
AFNE01.JPG,AFNE01.JPG,AFNE01.JPG,AFNE01.JPG,AFNE01.JPG,AFNE01.JPG,,,,,1,9,19,4,,,,,,,,,,,,,,,,,,,AMSA14.jpg,AMSA19.jpg,AMNE12.jpg,AMNE20.jpg,AMNE12.jpg,MN,1,num_2,16,num_2,1.1664571705,,,2017_Apr_28_1243,59.9933229368,FEMA4ImagesEEG,001,100287,
AFNE01.JPG,AFNE01.JPG,AFNE01.JPG,AFNE01.JPG,AFNE01.JPG,AFNE01.JPG,,,,,2,0,20,4,,,,,,,,,,,,,,,,,,,AMNE16.jpg,AMSA05.jpg,AMNE04.jpg,AMSA15.jpg,AMNE16.jpg,MN,1,num_8,32,num_4,0.633454562048,,,2017_Apr_28_1243,59.9933229368,FEMA4ImagesEEG,001,100287,
AFNE01.JPG,AFNE01.JPG,AFNE01.JPG,AFNE01.JPG,AFNE01.JPG,AFNE01.JPG,,,,,2,1,21,0,,,,,,,,,,,,,,,,,,,AMSA07.jpg,AMNE13.jpg,AMNE03.jpg,AMSA16.jpg,AMNE13.jpg,MN,1,num_6,16,num_6,0.816767533775,,,2017_Apr_28_1243,59.9933229368,FEMA4ImagesEEG,001,100287,
AFNE01.JPG,AFNE01.JPG,AFNE01.JPG,AFNE01.JPG,AFNE01.JPG,AFNE01.JPG,,,,,2,2,22,6,,,,,,,,,,,,,,,,,,,AMNE07.jpg,AMNE08.jpg,AMSA13.jpg,AMSA20.jpg,AMSA13.jpg,MS,2,num_2,32,num_8,0.533499433426,,,2017_Apr_28_1243,59.9933229368,FEMA4ImagesEEG,001,100287,
AFNE01.JPG,AFNE01.JPG,AFNE01.JPG,AFNE01.JPG,AFNE01.JPG,AFNE01.JPG,,,,,2,3,23,1,,,,,,,,,,,,,,,,,,,AMSA01.jpg,AMNE05.jpg,AMNE20.jpg,AMSA10.jpg,AMSA01.jpg,MS,2,num_8,32,num_2,0.333540744614,,,2017_Apr_28_1243,59.9933229368,FEMA4ImagesEEG,001,100287,
AFNE01.JPG,AFNE01.JPG,AFNE01.JPG,AFNE01.JPG,AFNE01.JPG,AFNE01.JPG,,,,,2,4,24,9,,,,,,,,,,,,,,,,,,,AMSA10.jpg,AMSA12.jpg,AMNE11.jpg,AMNE14.jpg,AMSA12.jpg,MS,2,num_6,16,num_6,0.63312644593,,,2017_Apr_28_1243,59.9933229368,FEMA4ImagesEEG,001,100287,
AFNE01.JPG,AFNE01.JPG,AFNE01.JPG,AFNE01.JPG,AFNE01.JPG,AFNE01.JPG,,,,,2,5,25,7,,,,,,,,,,,,,,,,,,,AMNE13.jpg,AMSA15.jpg,AMNE20.jpg,AMSA19.jpg,AMSA19.jpg,MS,2,num_4,16,num_4,0.733500780538,,,2017_Apr_28_1243,59.9933229368,FEMA4ImagesEEG,001,100287,
AFNE01.JPG,AFNE01.JPG,AFNE01.JPG,AFNE01.JPG,AFNE01.JPG,AFNE01.JPG,,,,,2,6,26,5,,,,,,,,,,,,,,,,,,,AMSA09.jpg,AMSA11.jpg,AMNE03.jpg,AMNE05.jpg,AMNE03.jpg,MN,1,num_2,32,num_8,1.05016327219,,,2017_Apr_28_1243,59.9933229368,FEMA4ImagesEEG,001,100287,
AFNE01.JPG,AFNE01.JPG,AFNE01.JPG,AFNE01.JPG,AFNE01.JPG,AFNE01.JPG,,,,,2,7,27,3,,,,,,,,,,,,,,,,,,,AMNE08.jpg,AMSA08.jpg,AMSA01.jpg,AMNE11.jpg,AMSA08.jpg,MS,2,num_6,32,num_8,1.4000328437,,,2017_Apr_28_1243,59.9933229368,FEMA4ImagesEEG,001,100287,
AFNE01.JPG,AFNE01.JPG,AFNE01.JPG,AFNE01.JPG,AFNE01.JPG,AFNE01.JPG,,,,,2,8,28,8,,,,,,,,,,,,,,,,,,,AMNE07.jpg,AMSA12.jpg,AMSA09.jpg,AMNE15.jpg,AMSA09.jpg,MS,2,num_2,32,num_6,1.05015140492,,,2017_Apr_28_1243,59.9933229368,FEMA4ImagesEEG,001,100287,
AFNE01.JPG,AFNE01.JPG,AFNE01.JPG,AFNE01.JPG,AFNE01.JPG,AFNE01.JPG,,,,,2,9,29,2,,,,,,,,,,,,,,,,,,,AMSA02.jpg,AMNE10.jpg,AMSA19.jpg,AMNE16.jpg,AMNE10.jpg,MN,1,num_6,32,num_4,1.13340180041,,,2017_Apr_28_1243,59.9933229368,FEMA4ImagesEEG,001,100287,
AFNE01.JPG,AFNE01.JPG,AFNE01.JPG,AFNE01.JPG,AFNE01.JPG,AFNE01.JPG,,,,,3,0,30,8,,,,,,,,,,,,,,,,,,,AMSA05.jpg,AMSA20.jpg,AMNE11.jpg,AMNE13.jpg,AMNE13.jpg,MN,1,num_4,32,num_2,0.733442406054,,,2017_Apr_28_1243,59.9933229368,FEMA4ImagesEEG,001,100287,
AFNE01.JPG,AFNE01.JPG,AFNE01.JPG,AFNE01.JPG,AFNE01.JPG,AFNE01.JPG,,,,,3,1,31,1,,,,,,,,,,,,,,,,,,,AMSA19.jpg,AMNE02.jpg,AMNE16.jpg,AMSA08.jpg,AMSA19.jpg,MS,2,num_8,16,num_8,0.500159246963,,,2017_Apr_28_1243,59.9933229368,FEMA4ImagesEEG,001,100287,
AFNE01.JPG,AFNE01.JPG,AFNE01.JPG,AFNE01.JPG,AFNE01.JPG,AFNE01.JPG,,,,,3,2,32,7,,,,,,,,,,,,,,,,,,,AMSA19.jpg,AMNE05.jpg,AMNE20.jpg,AMSA13.jpg,AMSA13.jpg,MS,2,num_4,32,num_8,0.433518324862,,,2017_Apr_28_1243,59.9933229368,FEMA4ImagesEEG,001,100287,
AFNE01.JPG,AFNE01.JPG,AFNE01.JPG,AFNE01.JPG,AFNE01.JPG,AFNE01.JPG,,,,,3,3,33,4,,,,,,,,,,,,,,,,,,,AMNE02.jpg,AMSA14.jpg,AMSA03.jpg,AMNE09.jpg,AMNE09.jpg,MN,1,num_4,16,num_4,0.46686685062,,,2017_Apr_28_1243,59.9933229368,FEMA4ImagesEEG,001,100287,
AFNE01.JPG,AFNE01.JPG,AFNE01.JPG,AFNE01.JPG,AFNE01.JPG,AFNE01.JPG,,,,,3,4,34,2,,,,,,,,,,,,,,,,,,,AMNE17.jpg,AMNE18.jpg,AMSA04.jpg,AMSA20.jpg,AMSA20.jpg,MS,2,num_4,32,num_6,0.666806615889,,,2017_Apr_28_1243,59.9933229368,FEMA4ImagesEEG,001,100287,
AFNE01.JPG,AFNE01.JPG,AFNE01.JPG,AFNE01.JPG,AFNE01.JPG,AFNE01.JPG,,,,,3,5,35,5,,,,,,,,,,,,,,,,,,,AMSA06.jpg,AMNE08.jpg,AMNE17.jpg,AMSA02.jpg,AMSA06.jpg,MS,2,num_8,32,num_2,1.1000866316,,,2017_Apr_28_1243,59.9933229368,FEMA4ImagesEEG,001,100287,
AFNE01.JPG,AFNE01.JPG,AFNE01.JPG,AFNE01.JPG,AFNE01.JPG,AFNE01.JPG,,,,,3,6,36,0,,,,,,,,,,,,,,,,,,,AMSA09.jpg,AMSA08.jpg,AMNE12.jpg,AMNE04.jpg,AMSA09.jpg,MS,2,num_8,32,num_4,0.600127846701,,,2017_Apr_28_1243,59.9933229368,FEMA4ImagesEEG,001,100287,
AFNE01.JPG,AFNE01.JPG,AFNE01.JPG,AFNE01.JPG,AFNE01.JPG,AFNE01.JPG,,,,,3,7,37,6,,,,,,,,,,,,,,,,,,,AMNE05.jpg,AMSA11.jpg,AMNE06.jpg,AMSA13.jpg,AMSA13.jpg,MS,2,num_4,32,num_8,0.333485898213,,,2017_Apr_28_1243,59.9933229368,FEMA4ImagesEEG,001,100287,
AFNE01.JPG,AFNE01.JPG,AFNE01.JPG,AFNE01.JPG,AFNE01.JPG,AFNE01.JPG,,,,,3,8,38,9,,,,,,,,,,,,,,,,,,,AMSA14.jpg,AMSA13.jpg,AMNE02.jpg,AMNE05.jpg,AMNE05.jpg,MN,1,num_4,32,num_6,0.650170520879,,,2017_Apr_28_1243,59.9933229368,FEMA4ImagesEEG,001,100287,
AFNE01.JPG,AFNE01.JPG,AFNE01.JPG,AFNE01.JPG,AFNE01.JPG,AFNE01.JPG,,,,,3,9,39,3,,,,,,,,,,,,,,,,,,,AMSA09.jpg,AMNE10.jpg,AMSA20.jpg,AMNE08.jpg,AMSA09.jpg,MS,2,num_8,32,num_2,0.400167233311,,,2017_Apr_28_1243,59.9933229368,FEMA4ImagesEEG,001,100287,
AFNE01.JPG,AFNE01.JPG,AFNE01.JPG,AFNE01.JPG,AFNE01.JPG,AFNE01.JPG,,,,,4,0,40,6,,,,,,,,,,,,,,,,,,,AMNE05.jpg,AMSA15.jpg,AMSA06.jpg,AMNE04.jpg,AMNE04.jpg,MN,1,num_4,32,num_8,0.600139393122,,,2017_Apr_28_1243,59.9933229368,FEMA4ImagesEEG,001,100287,
AFNE01.JPG,AFNE01.JPG,AFNE01.JPG,AFNE01.JPG,AFNE01.JPG,AFNE01.JPG,,,,,4,1,41,8,,,,,,,,,,,,,,,,,,,AMNE02.jpg,AMNE06.jpg,AMSA04.jpg,AMSA02.jpg,AMNE02.jpg,MN,1,num_8,32,num_4,0.466824833769,,,2017_Apr_28_1243,59.9933229368,FEMA4ImagesEEG,001,100287,
AFNE01.JPG,AFNE01.JPG,AFNE01.JPG,AFNE01.JPG,AFNE01.JPG,AFNE01.JPG,,,,,4,2,42,2,,,,,,,,,,,,,,,,,,,AMSA12.jpg,AMSA06.jpg,AMNE06.jpg,AMNE15.jpg,AMNE06.jpg,MN,1,num_2,32,num_6,0.633386886097,,,2017_Apr_28_1243,59.9933229368,FEMA4ImagesEEG,001,100287,
AFNE01.JPG,AFNE01.JPG,AFNE01.JPG,AFNE01.JPG,AFNE01.JPG,AFNE01.JPG,,,,,4,3,43,3,,,,,,,,,,,,,,,,,,,AMSA08.jpg,AMNE13.jpg,AMNE16.jpg,AMSA05.jpg,AMNE13.jpg,MN,1,num_6,32,num_8,0.733501421986,,,2017_Apr_28_1243,59.9933229368,FEMA4ImagesEEG,001,100287,
AFNE01.JPG,AFNE01.JPG,AFNE01.JPG,AFNE01.JPG,AFNE01.JPG,AFNE01.JPG,,,,,4,4,44,7,,,,,,,,,,,,,,,,,,,AMNE14.jpg,AMSA19.jpg,AMSA15.jpg,AMNE09.jpg,AMSA15.jpg,MS,2,num_2,16,num_2,0.850108361687,,,2017_Apr_28_1243,59.9933229368,FEMA4ImagesEEG,001,100287,
AFNE01.JPG,AFNE01.JPG,AFNE01.JPG,AFNE01.JPG,AFNE01.JPG,AFNE01.JPG,,,,,4,5,45,4,,,,,,,,,,,,,,,,,,,AMSA17.jpg,AMNE05.jpg,AMNE01.jpg,AMSA14.jpg,AMNE05.jpg,MN,1,num_6,32,num_4,0.483476324123,,,2017_Apr_28_1243,59.9933229368,FEMA4ImagesEEG,001,100287,
AFNE01.JPG,AFNE01.JPG,AFNE01.JPG,AFNE01.JPG,AFNE01.JPG,AFNE01.JPG,,,,,4,6,46,0,,,,,,,,,,,,,,,,,,,AMSA11.jpg,AMNE08.jpg,AMSA12.jpg,AMNE19.jpg,AMNE19.jpg,MN,1,num_4,32,num_8,0.650182708981,,,2017_Apr_28_1243,59.9933229368,FEMA4ImagesEEG,001,100287,
AFNE01.JPG,AFNE01.JPG,AFNE01.JPG,AFNE01.JPG,AFNE01.JPG,AFNE01.JPG,,,,,4,7,47,9,,,,,,,,,,,,,,,,,,,AMSA07.jpg,AMSA18.jpg,AMNE14.jpg,AMNE08.jpg,AMNE08.jpg,MN,1,num_4,32,num_6,0.750170232262,,,2017_Apr_28_1243,59.9933229368,FEMA4ImagesEEG,001,100287,
AFNE01.JPG,AFNE01.JPG,AFNE01.JPG,AFNE01.JPG,AFNE01.JPG,AFNE01.JPG,,,,,4,8,48,1,,,,,,,,,,,,,,,,,,,AMNE17.jpg,AMNE18.jpg,AMSA12.jpg,AMSA05.jpg,AMNE18.jpg,MN,1,num_6,32,num_4,0.633505880251,,,2017_Apr_28_1243,59.9933229368,FEMA4ImagesEEG,001,100287,
AFNE01.JPG,AFNE01.JPG,AFNE01.JPG,AFNE01.JPG,AFNE01.JPG,AFNE01.JPG,,,,,4,9,49,5,,,,,,,,,,,,,,,,,,,AMNE05.jpg,AMSA13.jpg,AMNE11.jpg,AMSA17.jpg,AMNE05.jpg,MN,1,num_8,32,num_2,0.500149624771,,,2017_Apr_28_1243,59.9933229368,FEMA4ImagesEEG,001,100287,
AFNE01.JPG,AFNE01.JPG,AFNE01.JPG,AFNE01.JPG,AFNE01.JPG,AFNE01.JPG,,,,,5,0,50,8,,,,,,,,,,,,,,,,,,,AMSA13.jpg,AMNE12.jpg,AMNE01.jpg,AMSA05.jpg,AMNE12.jpg,MN,1,num_6,32,num_8,0.416786970571,,,2017_Apr_28_1243,59.9933229368,FEMA4ImagesEEG,001,100287,
AFNE01.JPG,AFNE01.JPG,AFNE01.JPG,AFNE01.JPG,AFNE01.JPG,AFNE01.JPG,,,,,5,1,51,5,,,,,,,,,,,,,,,,,,,AMSA11.jpg,AMNE19.jpg,AMSA04.jpg,AMNE14.jpg,AMSA11.jpg,MS,2,num_8,32,num_6,0.516766796005,,,2017_Apr_28_1243,59.9933229368,FEMA4ImagesEEG,001,100287,
AFNE01.JPG,AFNE01.JPG,AFNE01.JPG,AFNE01.JPG,AFNE01.JPG,AFNE01.JPG,,,,,5,2,52,3,,,,,,,,,,,,,,,,,,,AMSA16.jpg,AMNE07.jpg,AMSA12.jpg,AMNE10.jpg,AMSA12.jpg,MS,2,num_2,32,num_4,0.799992558896,,,2017_Apr_28_1243,59.9933229368,FEMA4ImagesEEG,001,100287,
AFNE01.JPG,AFNE01.JPG,AFNE01.JPG,AFNE01.JPG,AFNE01.JPG,AFNE01.JPG,,,,,5,3,53,7,,,,,,,,,,,,,,,,,,,AMSA15.jpg,AMNE14.jpg,AMSA07.jpg,AMNE15.jpg,AMNE14.jpg,MN,1,num_6,32,num_8,0.53349462233,,,2017_Apr_28_1243,59.9933229368,FEMA4ImagesEEG,001,100287,
AFNE01.JPG,AFNE01.JPG,AFNE01.JPG,AFNE01.JPG,AFNE01.JPG,AFNE01.JPG,,,,,5,4,54,1,,,,,,,,,,,,,,,,,,,AMSA03.jpg,AMSA12.jpg,AMNE08.jpg,AMNE06.jpg,AMNE06.jpg,MN,1,num_4,32,num_2,0.733484743512,,,2017_Apr_28_1243,59.9933229368,FEMA4ImagesEEG,001,100287,
AFNE01.JPG,AFNE01.JPG,AFNE01.JPG,AFNE01.JPG,AFNE01.JPG,AFNE01.JPG,,,,,5,5,55,6,,,,,,,,,,,,,,,,,,,AMSA10.jpg,AMNE01.jpg,AMNE18.jpg,AMSA18.jpg,AMNE01.jpg,MN,1,num_6,16,num_6,0.550136490492,,,2017_Apr_28_1243,59.9933229368,FEMA4ImagesEEG,001,100287,
AFNE01.JPG,AFNE01.JPG,AFNE01.JPG,AFNE01.JPG,AFNE01.JPG,AFNE01.JPG,,,,,5,6,56,9,,,,,,,,,,,,,,,,,,,AMSA10.jpg,AMSA06.jpg,AMNE14.jpg,AMNE06.jpg,AMSA06.jpg,MS,2,num_6,32,num_4,0.683489217889,,,2017_Apr_28_1243,59.9933229368,FEMA4ImagesEEG,001,100287,
AFNE01.JPG,AFNE01.JPG,AFNE01.JPG,AFNE01.JPG,AFNE01.JPG,AFNE01.JPG,,,,,5,7,57,4,,,,,,,,,,,,,,,,,,,AMNE04.jpg,AMNE02.jpg,AMSA09.jpg,AMSA02.jpg,AMNE04.jpg,MN,1,num_8,32,num_6,0.550123019493,,,2017_Apr_28_1243,59.9933229368,FEMA4ImagesEEG,001,100287,
AFNE01.JPG,AFNE01.JPG,AFNE01.JPG,AFNE01.JPG,AFNE01.JPG,AFNE01.JPG,,,,,5,8,58,2,,,,,,,,,,,,,,,,,,,AMNE20.jpg,AMNE16.jpg,AMSA19.jpg,AMSA02.jpg,AMNE20.jpg,MN,1,num_8,16,num_8,0.500149945496,,,2017_Apr_28_1243,59.9933229368,FEMA4ImagesEEG,001,100287,
AFNE01.JPG,AFNE01.JPG,AFNE01.JPG,AFNE01.JPG,AFNE01.JPG,AFNE01.JPG,,,,,5,9,59,0,,,,,,,,,,,,,,,,,,,AMSA13.jpg,AMNE07.jpg,AMNE15.jpg,AMSA04.jpg,AMSA13.jpg,MS,2,num_8,32,num_4,1.06681893219,,,2017_Apr_28_1243,59.9933229368,FEMA4ImagesEEG,001,100287,
,,,,,,,,,,,,,,,,,,,,,,,,,,,,,,,,,,,,,,,,,,,space,20.0318734465,2017_Apr_28_1243,59.9933229368,FEMA4ImagesEEG,001,100287,
AFNE01.JPG,AFNE01.JPG,AFNE01.JPG,AFNE01.JPG,AFNE01.JPG,AFNE01.JPG,,,,,,,,,0,0,0,2,,,,,,,,,,,,,,,AFNE19.jpg,AFNE08.jpg,AFSA15.jpg,AFSA16.jpg,AFSA15.jpg,FS,4,num_2,32,num_8,0.566682457691,,,2017_Apr_28_1243,59.9933229368,FEMA4ImagesEEG,001,100287,
AFNE01.JPG,AFNE01.JPG,AFNE01.JPG,AFNE01.JPG,AFNE01.JPG,AFNE01.JPG,,,,,,,,,0,1,1,1,,,,,,,,,,,,,,,AFNE11.jpg,AFSA10.jpg,AFNE01.jpg,AFSA03.jpg,AFNE11.jpg,FN,3,num_8,32,num_4,0.450170456781,,,2017_Apr_28_1243,59.9933229368,FEMA4ImagesEEG,001,100287,
AFNE01.JPG,AFNE01.JPG,AFNE01.JPG,AFNE01.JPG,AFNE01.JPG,AFNE01.JPG,,,,,,,,,0,2,2,9,,,,,,,,,,,,,,,AFSA07.jpg,AFNE15.jpg,AFSA05.jpg,AFNE18.jpg,AFSA05.jpg,FS,4,num_2,16,num_2,0.716475629131,,,2017_Apr_28_1243,59.9933229368,FEMA4ImagesEEG,001,100287,
AFNE01.JPG,AFNE01.JPG,AFNE01.JPG,AFNE01.JPG,AFNE01.JPG,AFNE01.JPG,,,,,,,,,0,3,3,7,,,,,,,,,,,,,,,AFNE01.jpg,AFNE18.jpg,AFSA02.jpg,AFSA16.jpg,AFNE01.jpg,FN,3,num_8,32,num_6,0.733478008071,,,2017_Apr_28_1243,59.9933229368,FEMA4ImagesEEG,001,100287,
AFNE01.JPG,AFNE01.JPG,AFNE01.JPG,AFNE01.JPG,AFNE01.JPG,AFNE01.JPG,,,,,,,,,0,4,4,6,,,,,,,,,,,,,,,AFSA15.jpg,AFNE07.jpg,AFSA18.jpg,AFNE19.jpg,AFNE07.jpg,FN,3,num_6,32,num_8,0.416787612019,,,2017_Apr_28_1243,59.9933229368,FEMA4ImagesEEG,001,100287,
AFNE01.JPG,AFNE01.JPG,AFNE01.JPG,AFNE01.JPG,AFNE01.JPG,AFNE01.JPG,,,,,,,,,0,5,5,5,,,,,,,,,,,,,,,AFSA06.jpg,AFNE10.jpg,AFNE11.jpg,AFSA03.jpg,AFSA03.jpg,FS,4,num_4,32,num_2,0.63352961489,,,2017_Apr_28_1243,59.9933229368,FEMA4ImagesEEG,001,100287,
AFNE01.JPG,AFNE01.JPG,AFNE01.JPG,AFNE01.JPG,AFNE01.JPG,AFNE01.JPG,,,,,,,,,0,6,6,4,,,,,,,,,,,,,,,AFNE17.jpg,AFSA13.jpg,AFSA17.jpg,AFNE04.jpg,AFSA13.jpg,FS,4,num_6,32,num_4,0.283535917522,,,2017_Apr_28_1243,59.9933229368,FEMA4ImagesEEG,001,100287,
AFNE01.JPG,AFNE01.JPG,AFNE01.JPG,AFNE01.JPG,AFNE01.JPG,AFNE01.JPG,,,,,,,,,0,7,7,8,,,,,,,,,,,,,,,AFNE09.jpg,AFNE15.jpg,AFSA07.jpg,AFSA20.jpg,AFSA07.jpg,FS,4,num_2,32,num_4,0.31679688138,,,2017_Apr_28_1243,59.9933229368,FEMA4ImagesEEG,001,100287,
AFNE01.JPG,AFNE01.JPG,AFNE01.JPG,AFNE01.JPG,AFNE01.JPG,AFNE01.JPG,,,,,,,,,0,8,8,0,,,,,,,,,,,,,,,AFNE18.jpg,AFSA08.jpg,AFNE10.jpg,AFSA02.jpg,AFSA02.jpg,FS,4,num_4,32,num_8,0.766884908197,,,2017_Apr_28_1243,59.9933229368,FEMA4ImagesEEG,001,100287,
AFNE01.JPG,AFNE01.JPG,AFNE01.JPG,AFNE01.JPG,AFNE01.JPG,AFNE01.JPG,,,,,,,,,0,9,9,3,,,,,,,,,,,,,,,AFSA11.jpg,AFNE19.jpg,AFNE11.jpg,AFSA10.jpg,AFNE19.jpg,FN,3,num_6,32,num_2,0.600167297525,,,2017_Apr_28_1243,59.9933229368,FEMA4ImagesEEG,001,100287,
AFNE01.JPG,AFNE01.JPG,AFNE01.JPG,AFNE01.JPG,AFNE01.JPG,AFNE01.JPG,,,,,,,,,1,0,10,4,,,,,,,,,,,,,,,AFSA04.jpg,AFNE03.jpg,AFNE14.jpg,AFSA15.jpg,AFNE14.jpg,FN,3,num_2,32,num_6,0.41679178155,,,2017_Apr_28_1243,59.9933229368,FEMA4ImagesEEG,001,100287,
AFNE01.JPG,AFNE01.JPG,AFNE01.JPG,AFNE01.JPG,AFNE01.JPG,AFNE01.JPG,,,,,,,,,1,1,11,9,,,,,,,,,,,,,,,AFNE03.jpg,AFSA12.jpg,AFNE06.jpg,AFSA06.jpg,AFSA12.jpg,FS,4,num_6,32,num_8,0.400177497067,,,2017_Apr_28_1243,59.9933229368,FEMA4ImagesEEG,001,100287,
AFNE01.JPG,AFNE01.JPG,AFNE01.JPG,AFNE01.JPG,AFNE01.JPG,AFNE01.JPG,,,,,,,,,1,2,12,1,,,,,,,,,,,,,,,AFNE05.jpg,AFSA14.jpg,AFNE15.jpg,AFSA04.jpg,AFSA14.jpg,FS,4,num_6,32,num_4,0.350156953675,,,2017_Apr_28_1243,59.9933229368,FEMA4ImagesEEG,001,100287,
AFNE01.JPG,AFNE01.JPG,AFNE01.JPG,AFNE01.JPG,AFNE01.JPG,AFNE01.JPG,,,,,,,,,1,3,13,6,,,,,,,,,,,,,,,AFSA05.jpg,AFSA13.jpg,AFNE09.jpg,AFNE19.jpg,AFSA05.jpg,FS,4,num_8,32,num_2,0.500183302443,,,2017_Apr_28_1243,59.9933229368,FEMA4ImagesEEG,001,100287,
AFNE01.JPG,AFNE01.JPG,AFNE01.JPG,AFNE01.JPG,AFNE01.JPG,AFNE01.JPG,,,,,,,,,1,4,14,3,,,,,,,,,,,,,,,AFNE15.jpg,AFSA12.jpg,AFNE11.jpg,AFSA20.jpg,AFNE15.jpg,FN,3,num_8,16,num_8,0.550213147188,,,2017_Apr_28_1243,59.9933229368,FEMA4ImagesEEG,001,100287,
AFNE01.JPG,AFNE01.JPG,AFNE01.JPG,AFNE01.JPG,AFNE01.JPG,AFNE01.JPG,,,,,,,,,1,5,15,2,,,,,,,,,,,,,,,AFNE10.jpg,AFNE04.jpg,AFSA06.jpg,AFSA11.jpg,AFNE10.jpg,FN,3,num_8,32,num_2,0.983491238556,,,2017_Apr_28_1243,59.9933229368,FEMA4ImagesEEG,001,100287,
AFNE01.JPG,AFNE01.JPG,AFNE01.JPG,AFNE01.JPG,AFNE01.JPG,AFNE01.JPG,,,,,,,,,1,6,16,5,,,,,,,,,,,,,,,AFNE19.jpg,AFSA10.jpg,AFNE06.jpg,AFSA18.jpg,AFNE06.jpg,FN,3,num_2,32,num_8,0.883477735333,,,2017_Apr_28_1243,59.9933229368,FEMA4ImagesEEG,001,100287,
AFNE01.JPG,AFNE01.JPG,AFNE01.JPG,AFNE01.JPG,AFNE01.JPG,AFNE01.JPG,,,,,,,,,1,7,17,8,,,,,,,,,,,,,,,AFNE08.jpg,AFNE14.jpg,AFSA02.jpg,AFSA03.jpg,AFSA02.jpg,FS,4,num_2,32,num_4,0.633487598156,,,2017_Apr_28_1243,59.9933229368,FEMA4ImagesEEG,001,100287,
AFNE01.JPG,AFNE01.JPG,AFNE01.JPG,AFNE01.JPG,AFNE01.JPG,AFNE01.JPG,,,,,,,,,1,8,18,0,,,,,,,,,,,,,,,AFSA07.jpg,AFNE17.jpg,AFSA03.jpg,AFNE13.jpg,AFSA03.jpg,FS,4,num_2,32,num_6,2.30004147161,,,2017_Apr_28_1243,59.9933229368,FEMA4ImagesEEG,001,100287,
AFNE01.JPG,AFNE01.JPG,AFNE01.JPG,AFNE01.JPG,AFNE01.JPG,AFNE01.JPG,,,,,,,,,1,9,19,7,,,,,,,,,,,,,,,AFNE06.jpg,AFSA16.jpg,AFSA12.jpg,AFNE07.jpg,AFNE07.jpg,FN,3,num_4,16,num_4,1.23347303655,,,2017_Apr_28_1243,59.9933229368,FEMA4ImagesEEG,001,100287,
AFNE01.JPG,AFNE01.JPG,AFNE01.JPG,AFNE01.JPG,AFNE01.JPG,AFNE01.JPG,,,,,,,,,2,0,20,7,,,,,,,,,,,,,,,AFNE04.jpg,AFNE17.jpg,AFSA01.jpg,AFSA11.jpg,AFNE17.jpg,FN,3,num_6,32,num_8,0.66680821951,,,2017_Apr_28_1243,59.9933229368,FEMA4ImagesEEG,001,100287,
AFNE01.JPG,AFNE01.JPG,AFNE01.JPG,AFNE01.JPG,AFNE01.JPG,AFNE01.JPG,,,,,,,,,2,1,21,0,,,,,,,,,,,,,,,AFSA12.jpg,AFNE01.jpg,AFNE04.jpg,AFSA04.jpg,AFNE04.jpg,FN,3,num_2,32,num_4,0.650152559625,,,2017_Apr_28_1243,59.9933229368,FEMA4ImagesEEG,001,100287,
AFNE01.JPG,AFNE01.JPG,AFNE01.JPG,AFNE01.JPG,AFNE01.JPG,AFNE01.JPG,,,,,,,,,2,2,22,1,,,,,,,,,,,,,,,AFNE16.jpg,AFNE07.jpg,AFSA20.jpg,AFSA19.jpg,AFSA20.jpg,FS,4,num_2,16,num_2,0.70020806347,,,2017_Apr_28_1243,59.9933229368,FEMA4ImagesEEG,001,100287,
AFNE01.JPG,AFNE01.JPG,AFNE01.JPG,AFNE01.JPG,AFNE01.JPG,AFNE01.JPG,,,,,,,,,2,3,23,6,,,,,,,,,,,,,,,AFNE16.jpg,AFNE08.jpg,AFSA11.jpg,AFSA17.jpg,AFSA11.jpg,FS,4,num_2,32,num_8,1.05013504717,,,2017_Apr_28_1243,59.9933229368,FEMA4ImagesEEG,001,100287,
AFNE01.JPG,AFNE01.JPG,AFNE01.JPG,AFNE01.JPG,AFNE01.JPG,AFNE01.JPG,,,,,,,,,2,4,24,2,,,,,,,,,,,,,,,AFNE10.jpg,AFSA14.jpg,AFSA15.jpg,AFNE02.jpg,AFNE10.jpg,FN,3,num_8,16,num_8,0.483482738957,,,2017_Apr_28_1243,59.9933229368,FEMA4ImagesEEG,001,100287,
AFNE01.JPG,AFNE01.JPG,AFNE01.JPG,AFNE01.JPG,AFNE01.JPG,AFNE01.JPG,,,,,,,,,2,5,25,8,,,,,,,,,,,,,,,AFNE17.jpg,AFSA06.jpg,AFSA01.jpg,AFNE18.jpg,AFSA01.jpg,FS,4,num_2,32,num_8,0.583441716386,,,2017_Apr_28_1243,59.9933229368,FEMA4ImagesEEG,001,100287,
AFNE01.JPG,AFNE01.JPG,AFNE01.JPG,AFNE01.JPG,AFNE01.JPG,AFNE01.JPG,,,,,,,,,2,6,26,9,,,,,,,,,,,,,,,AFNE15.jpg,AFSA02.jpg,AFNE10.jpg,AFSA16.jpg,AFSA16.jpg,FS,4,num_4,16,num_4,0.533527337713,,,2017_Apr_28_1243,59.9933229368,FEMA4ImagesEEG,001,100287,
AFNE01.JPG,AFNE01.JPG,AFNE01.JPG,AFNE01.JPG,AFNE01.JPG,AFNE01.JPG,,,,,,,,,2,7,27,3,,,,,,,,,,,,,,,AFSA01.jpg,AFSA19.jpg,AFNE19.jpg,AFNE18.jpg,AFSA19.jpg,FS,4,num_6,32,num_8,2.03336584556,,,2017_Apr_28_1243,59.9933229368,FEMA4ImagesEEG,001,100287,
AFNE01.JPG,AFNE01.JPG,AFNE01.JPG,AFNE01.JPG,AFNE01.JPG,AFNE01.JPG,,,,,,,,,2,8,28,4,,,,,,,,,,,,,,,AFSA19.jpg,AFNE10.jpg,AFSA09.jpg,AFNE01.jpg,AFNE10.jpg,FN,3,num_6,16,num_6,0.45017655089,,,2017_Apr_28_1243,59.9933229368,FEMA4ImagesEEG,001,100287,
AFNE01.JPG,AFNE01.JPG,AFNE01.JPG,AFNE01.JPG,AFNE01.JPG,AFNE01.JPG,,,,,,,,,2,9,29,5,,,,,,,,,,,,,,,AFSA17.jpg,AFNE10.jpg,AFSA02.jpg,AFNE19.jpg,AFNE10.jpg,FN,3,num_6,16,num_6,0.966780411429,,,2017_Apr_28_1243,59.9933229368,FEMA4ImagesEEG,001,100287,
AFNE01.JPG,AFNE01.JPG,AFNE01.JPG,AFNE01.JPG,AFNE01.JPG,AFNE01.JPG,,,,,,,,,3,0,30,9,,,,,,,,,,,,,,,AFNE04.jpg,AFSA17.jpg,AFNE06.jpg,AFSA14.jpg,AFNE06.jpg,FN,3,num_2,32,num_8,0.883459773962,,,2017_Apr_28_1243,59.9933229368,FEMA4ImagesEEG,001,100287,
AFNE01.JPG,AFNE01.JPG,AFNE01.JPG,AFNE01.JPG,AFNE01.JPG,AFNE01.JPG,,,,,,,,,3,1,31,7,,,,,,,,,,,,,,,AFSA13.jpg,AFSA01.jpg,AFNE05.jpg,AFNE02.jpg,AFSA13.jpg,FS,4,num_8,32,num_4,0.550082926988,,,2017_Apr_28_1243,59.9933229368,FEMA4ImagesEEG,001,100287,
AFNE01.JPG,AFNE01.JPG,AFNE01.JPG,AFNE01.JPG,AFNE01.JPG,AFNE01.JPG,,,,,,,,,3,2,32,1,,,,,,,,,,,,,,,AFNE08.jpg,AFSA11.jpg,AFNE12.jpg,AFSA20.jpg,AFNE08.jpg,FN,3,num_8,16,num_8,0.450175588601,,,2017_Apr_28_1243,59.9933229368,FEMA4ImagesEEG,001,100287,
AFNE01.JPG,AFNE01.JPG,AFNE01.JPG,AFNE01.JPG,AFNE01.JPG,AFNE01.JPG,,,,,,,,,3,3,33,3,,,,,,,,,,,,,,,AFNE20.jpg,AFSA08.jpg,AFSA15.jpg,AFNE07.jpg,AFNE20.jpg,FN,3,num_8,32,num_6,0.566446073004,,,2017_Apr_28_1243,59.9933229368,FEMA4ImagesEEG,001,100287,
AFNE01.JPG,AFNE01.JPG,AFNE01.JPG,AFNE01.JPG,AFNE01.JPG,AFNE01.JPG,,,,,,,,,3,4,34,5,,,,,,,,,,,,,,,AFSA06.jpg,AFNE14.jpg,AFSA17.jpg,AFNE15.jpg,AFSA06.jpg,FS,4,num_8,16,num_8,0.9167739806,,,2017_Apr_28_1243,59.9933229368,FEMA4ImagesEEG,001,100287,
AFNE01.JPG,AFNE01.JPG,AFNE01.JPG,AFNE01.JPG,AFNE01.JPG,AFNE01.JPG,,,,,,,,,3,5,35,2,,,,,,,,,,,,,,,AFSA05.jpg,AFNE07.jpg,AFSA08.jpg,AFNE15.jpg,AFSA08.jpg,FS,4,num_2,32,num_8,0.850181490299,,,2017_Apr_28_1243,59.9933229368,FEMA4ImagesEEG,001,100287,
AFNE01.JPG,AFNE01.JPG,AFNE01.JPG,AFNE01.JPG,AFNE01.JPG,AFNE01.JPG,,,,,,,,,3,6,36,6,,,,,,,,,,,,,,,AFNE06.jpg,AFNE07.jpg,AFSA14.jpg,AFSA18.jpg,AFSA14.jpg,FS,4,num_2,32,num_4,3.79991654365,,,2017_Apr_28_1243,59.9933229368,FEMA4ImagesEEG,001,100287,
AFNE01.JPG,AFNE01.JPG,AFNE01.JPG,AFNE01.JPG,AFNE01.JPG,AFNE01.JPG,,,,,,,,,3,7,37,4,,,,,,,,,,,,,,,AFNE07.jpg,AFNE03.jpg,AFSA20.jpg,AFSA07.jpg,AFSA07.jpg,FS,4,num_4,32,num_6,0.333516689134,,,2017_Apr_28_1243,59.9933229368,FEMA4ImagesEEG,001,100287,
AFNE01.JPG,AFNE01.JPG,AFNE01.JPG,AFNE01.JPG,AFNE01.JPG,AFNE01.JPG,,,,,,,,,3,8,38,0,,,,,,,,,,,,,,,AFSA11.jpg,AFNE08.jpg,AFNE06.jpg,AFSA15.jpg,AFNE06.jpg,FN,3,num_2,16,num_2,0.366822877317,,,2017_Apr_28_1243,59.9933229368,FEMA4ImagesEEG,001,100287,
AFNE01.JPG,AFNE01.JPG,AFNE01.JPG,AFNE01.JPG,AFNE01.JPG,AFNE01.JPG,,,,,,,,,3,9,39,8,,,,,,,,,,,,,,,AFNE20.jpg,AFSA04.jpg,AFSA06.jpg,AFNE08.jpg,AFNE08.jpg,FN,3,num_4,32,num_8,0.316890216433,,,2017_Apr_28_1243,59.9933229368,FEMA4ImagesEEG,001,100287,
AFNE01.JPG,AFNE01.JPG,AFNE01.JPG,AFNE01.JPG,AFNE01.JPG,AFNE01.JPG,,,,,,,,,4,0,40,2,,,,,,,,,,,,,,,AFNE02.jpg,AFNE03.jpg,AFSA04.jpg,AFSA13.jpg,AFSA04.jpg,FS,4,num_2,32,num_4,0.850418195594,,,2017_Apr_28_1243,59.9933229368,FEMA4ImagesEEG,001,100287,
AFNE01.JPG,AFNE01.JPG,AFNE01.JPG,AFNE01.JPG,AFNE01.JPG,AFNE01.JPG,,,,,,,,,4,1,41,5,,,,,,,,,,,,,,,AFSA05.jpg,AFNE11.jpg,AFSA17.jpg,AFNE20.jpg,AFSA05.jpg,FS,4,num_8,32,num_4,0.416812629672,,,2017_Apr_28_1243,59.9933229368,FEMA4ImagesEEG,001,100287,
AFNE01.JPG,AFNE01.JPG,AFNE01.JPG,AFNE01.JPG,AFNE01.JPG,AFNE01.JPG,,,,,,,,,4,2,42,3,,,,,,,,,,,,,,,AFSA02.jpg,AFNE13.jpg,AFSA01.jpg,AFNE01.jpg,AFSA02.jpg,FS,4,num_8,32,num_6,0.916809262009,,,2017_Apr_28_1243,59.9933229368,FEMA4ImagesEEG,001,100287,
AFNE01.JPG,AFNE01.JPG,AFNE01.JPG,AFNE01.JPG,AFNE01.JPG,AFNE01.JPG,,,,,,,,,4,3,43,8,,,,,,,,,,,,,,,AFNE01.jpg,AFNE11.jpg,AFSA04.jpg,AFSA01.jpg,AFSA04.jpg,FS,4,num_2,32,num_8,0.816781967063,,,2017_Apr_28_1243,59.9933229368,FEMA4ImagesEEG,001,100287,
AFNE01.JPG,AFNE01.JPG,AFNE01.JPG,AFNE01.JPG,AFNE01.JPG,AFNE01.JPG,,,,,,,,,4,4,44,6,,,,,,,,,,,,,,,AFSA12.jpg,AFNE13.jpg,AFNE19.jpg,AFSA05.jpg,AFNE19.jpg,FN,3,num_2,16,num_2,1.50001138623,,,2017_Apr_28_1243,59.9933229368,FEMA4ImagesEEG,001,100287,
AFNE01.JPG,AFNE01.JPG,AFNE01.JPG,AFNE01.JPG,AFNE01.JPG,AFNE01.JPG,,,,,,,,,4,5,45,9,,,,,,,,,,,,,,,AFNE20.jpg,AFNE19.jpg,AFSA01.jpg,AFSA03.jpg,AFNE19.jpg,FN,3,num_6,16,num_6,0.816808267613,,,2017_Apr_28_1243,59.9933229368,FEMA4ImagesEEG,001,100287,
AFNE01.JPG,AFNE01.JPG,AFNE01.JPG,AFNE01.JPG,AFNE01.JPG,AFNE01.JPG,,,,,,,,,4,6,46,1,,,,,,,,,,,,,,,AFNE02.jpg,AFSA11.jpg,AFNE10.jpg,AFSA06.jpg,AFNE10.jpg,FN,3,num_2,16,num_2,0.683424107847,,,2017_Apr_28_1243,59.9933229368,FEMA4ImagesEEG,001,100287,
AFNE01.JPG,AFNE01.JPG,AFNE01.JPG,AFNE01.JPG,AFNE01.JPG,AFNE01.JPG,,,,,,,,,4,7,47,7,,,,,,,,,,,,,,,AFNE20.jpg,AFSA15.jpg,AFSA07.jpg,AFNE14.jpg,AFSA15.jpg,FS,4,num_6,32,num_8,0.850123115699,,,2017_Apr_28_1243,59.9933229368,FEMA4ImagesEEG,001,100287,
AFNE01.JPG,AFNE01.JPG,AFNE01.JPG,AFNE01.JPG,AFNE01.JPG,AFNE01.JPG,,,,,,,,,4,8,48,0,,,,,,,,,,,,,,,AFNE05.jpg,AFNE18.jpg,AFSA02.jpg,AFSA07.jpg,AFNE05.jpg,FN,3,num_8,32,num_4,0.899798543775,,,2017_Apr_28_1243,59.9933229368,FEMA4ImagesEEG,001,100287,
AFNE01.JPG,AFNE01.JPG,AFNE01.JPG,AFNE01.JPG,AFNE01.JPG,AFNE01.JPG,,,,,,,,,4,9,49,4,,,,,,,,,,,,,,,AFNE14.jpg,AFSA14.jpg,AFNE04.jpg,AFSA12.jpg,AFSA12.jpg,FS,4,num_4,16,num_4,0.866720721941,,,2017_Apr_28_1243,59.9933229368,FEMA4ImagesEEG,001,100287,
AFNE01.JPG,AFNE01.JPG,AFNE01.JPG,AFNE01.JPG,AFNE01.JPG,AFNE01.JPG,,,,,,,,,5,0,50,4,,,,,,,,,,,,,,,AFNE20.jpg,AFSA03.jpg,AFSA05.jpg,AFNE09.jpg,AFNE20.jpg,FN,3,num_8,32,num_6,1.08348934609,,,2017_Apr_28_1243,59.9933229368,FEMA4ImagesEEG,001,100287,
AFNE01.JPG,AFNE01.JPG,AFNE01.JPG,AFNE01.JPG,AFNE01.JPG,AFNE01.JPG,,,,,,,,,5,1,51,9,,,,,,,,,,,,,,,AFNE17.jpg,AFSA10.jpg,AFSA05.jpg,AFNE13.jpg,AFNE17.jpg,FN,3,num_8,32,num_2,1.06675638806,,,2017_Apr_28_1243,59.9933229368,FEMA4ImagesEEG,001,100287,
AFNE01.JPG,AFNE01.JPG,AFNE01.JPG,AFNE01.JPG,AFNE01.JPG,AFNE01.JPG,,,,,,,,,5,2,52,6,,,,,,,,,,,,,,,AFNE01.jpg,AFSA10.jpg,AFSA05.jpg,AFNE17.jpg,AFSA05.jpg,FS,4,num_2,32,num_8,0.933461393812,,,2017_Apr_28_1243,59.9933229368,FEMA4ImagesEEG,001,100287,
AFNE01.JPG,AFNE01.JPG,AFNE01.JPG,AFNE01.JPG,AFNE01.JPG,AFNE01.JPG,,,,,,,,,5,3,53,8,,,,,,,,,,,,,,,AFNE02.jpg,AFSA14.jpg,AFNE08.jpg,AFSA08.jpg,AFNE02.jpg,FN,3,num_8,32,num_4,0.583538900362,,,2017_Apr_28_1243,59.9933229368,FEMA4ImagesEEG,001,100287,
AFNE01.JPG,AFNE01.JPG,AFNE01.JPG,AFNE01.JPG,AFNE01.JPG,AFNE01.JPG,,,,,,,,,5,4,54,0,,,,,,,,,,,,,,,AFSA14.jpg,AFSA04.jpg,AFNE03.jpg,AFNE14.jpg,AFNE14.jpg,FN,3,num_4,32,num_6,1.51672060962,,,2017_Apr_28_1243,59.9933229368,FEMA4ImagesEEG,001,100287,
AFNE01.JPG,AFNE01.JPG,AFNE01.JPG,AFNE01.JPG,AFNE01.JPG,AFNE01.JPG,,,,,,,,,5,5,55,3,,,,,,,,,,,,,,,AFNE03.jpg,AFNE10.jpg,AFSA02.jpg,AFSA13.jpg,AFSA02.jpg,FS,4,num_2,16,num_2,1.10009753669,,,2017_Apr_28_1243,59.9933229368,FEMA4ImagesEEG,001,100287,
AFNE01.JPG,AFNE01.JPG,AFNE01.JPG,AFNE01.JPG,AFNE01.JPG,AFNE01.JPG,,,,,,,,,5,6,56,7,,,,,,,,,,,,,,,AFNE18.jpg,AFSA06.jpg,AFSA10.jpg,AFNE13.jpg,AFSA06.jpg,FS,4,num_6,32,num_4,0.58336602198,,,2017_Apr_28_1243,59.9933229368,FEMA4ImagesEEG,001,100287,
AFNE01.JPG,AFNE01.JPG,AFNE01.JPG,AFNE01.JPG,AFNE01.JPG,AFNE01.JPG,,,,,,,,,5,7,57,5,,,,,,,,,,,,,,,AFNE06.jpg,AFSA16.jpg,AFNE08.jpg,AFSA11.jpg,AFSA11.jpg,FS,4,num_4,32,num_8,0.800082365749,,,2017_Apr_28_1243,59.9933229368,FEMA4ImagesEEG,001,100287,
AFNE01.JPG,AFNE01.JPG,AFNE01.JPG,AFNE01.JPG,AFNE01.JPG,AFNE01.JPG,,,,,,,,,5,8,58,1,,,,,,,,,,,,,,,AFSA05.jpg,AFSA13.jpg,AFNE11.jpg,AFNE19.jpg,AFSA05.jpg,FS,4,num_8,32,num_4,0.783504004008,,,2017_Apr_28_1243,59.9933229368,FEMA4ImagesEEG,001,100287,
AFNE01.JPG,AFNE01.JPG,AFNE01.JPG,AFNE01.JPG,AFNE01.JPG,AFNE01.JPG,,,,,,,,,5,9,59,2,,,,,,,,,,,,,,,AFNE01.jpg,AFSA01.jpg,AFSA10.jpg,AFNE06.jpg,AFNE01.jpg,FN,3,num_8,32,num_6,0.900142055238,,,2017_Apr_28_1243,59.9933229368,FEMA4ImagesEEG,001,100287,
,,,,,,,,,,,,,,,,,,,,,,,,,,,,,,,,,,,,,,,,,,,space,38.1804452435,2017_Apr_28_1243,59.9933229368,FEMA4ImagesEEG,001,100287,
AFNE01.JPG,AFNE01.JPG,AFNE01.JPG,AFNE01.JPG,AFNE01.JPG,AFNE01.JPG,,,,,,,,,,,,,0,0,0,2,,,,,,,,,,,AMSA05.jpg,AMNE05.jpg,AMSA02.jpg,AMNE11.jpg,AMNE11.jpg,MN,1,num_4,16,num_4,0.566840902786,,,2017_Apr_28_1243,59.9933229368,FEMA4ImagesEEG,001,100287,
AFNE01.JPG,AFNE01.JPG,AFNE01.JPG,AFNE01.JPG,AFNE01.JPG,AFNE01.JPG,,,,,,,,,,,,,0,1,1,6,,,,,,,,,,,AMNE18.jpg,AMSA06.jpg,AMNE05.jpg,AMSA05.jpg,AMNE05.jpg,MN,1,num_2,32,num_4,0.650137805496,,,2017_Apr_28_1243,59.9933229368,FEMA4ImagesEEG,001,100287,
AFNE01.JPG,AFNE01.JPG,AFNE01.JPG,AFNE01.JPG,AFNE01.JPG,AFNE01.JPG,,,,,,,,,,,,,0,2,2,1,,,,,,,,,,,AMSA12.jpg,AMSA11.jpg,AMNE12.jpg,AMNE05.jpg,AMSA12.jpg,MS,2,num_8,32,num_6,0.500143530662,,,2017_Apr_28_1243,59.9933229368,FEMA4ImagesEEG,001,100287,
AFNE01.JPG,AFNE01.JPG,AFNE01.JPG,AFNE01.JPG,AFNE01.JPG,AFNE01.JPG,,,,,,,,,,,,,0,3,3,8,,,,,,,,,,,AMSA03.jpg,AMSA09.jpg,AMNE15.jpg,AMNE17.jpg,AMSA03.jpg,MS,2,num_8,32,num_2,0.516820038785,,,2017_Apr_28_1243,59.9933229368,FEMA4ImagesEEG,001,100287,
AFNE01.JPG,AFNE01.JPG,AFNE01.JPG,AFNE01.JPG,AFNE01.JPG,AFNE01.JPG,,,,,,,,,,,,,0,4,4,9,,,,,,,,,,,AMSA14.jpg,AMNE18.jpg,AMSA06.jpg,AMNE07.jpg,AMNE07.jpg,MN,1,num_4,32,num_8,0.650142295868,,,2017_Apr_28_1243,59.9933229368,FEMA4ImagesEEG,001,100287,
AFNE01.JPG,AFNE01.JPG,AFNE01.JPG,AFNE01.JPG,AFNE01.JPG,AFNE01.JPG,,,,,,,,,,,,,0,5,5,7,,,,,,,,,,,AMSA16.jpg,AMSA07.jpg,AMNE06.jpg,AMNE19.jpg,AMSA16.jpg,MS,2,num_8,32,num_4,0.483801232884,,,2017_Apr_28_1243,59.9933229368,FEMA4ImagesEEG,001,100287,
AFNE01.JPG,AFNE01.JPG,AFNE01.JPG,AFNE01.JPG,AFNE01.JPG,AFNE01.JPG,,,,,,,,,,,,,0,6,6,4,,,,,,,,,,,AMNE07.jpg,AMSA14.jpg,AMSA18.jpg,AMNE19.jpg,AMNE19.jpg,MN,1,num_4,32,num_6,0.616774846683,,,2017_Apr_28_1243,59.9933229368,FEMA4ImagesEEG,001,100287,
AFNE01.JPG,AFNE01.JPG,AFNE01.JPG,AFNE01.JPG,AFNE01.JPG,AFNE01.JPG,,,,,,,,,,,,,0,7,7,0,,,,,,,,,,,AMSA13.jpg,AMNE04.jpg,AMSA11.jpg,AMNE05.jpg,AMSA13.jpg,MS,2,num_8,32,num_2,1.16644658614,,,2017_Apr_28_1243,59.9933229368,FEMA4ImagesEEG,001,100287,
AFNE01.JPG,AFNE01.JPG,AFNE01.JPG,AFNE01.JPG,AFNE01.JPG,AFNE01.JPG,,,,,,,,,,,,,0,8,8,5,,,,,,,,,,,AMSA08.jpg,AMNE19.jpg,AMSA09.jpg,AMNE13.jpg,AMNE13.jpg,MN,1,num_4,32,num_8,0.916715285275,,,2017_Apr_28_1243,59.9933229368,FEMA4ImagesEEG,001,100287,
AFNE01.JPG,AFNE01.JPG,AFNE01.JPG,AFNE01.JPG,AFNE01.JPG,AFNE01.JPG,,,,,,,,,,,,,0,9,9,3,,,,,,,,,,,AMSA08.jpg,AMNE12.jpg,AMSA11.jpg,AMNE06.jpg,AMNE12.jpg,MN,1,num_6,32,num_4,0.483499096707,,,2017_Apr_28_1243,59.9933229368,FEMA4ImagesEEG,001,100287,
AFNE01.JPG,AFNE01.JPG,AFNE01.JPG,AFNE01.JPG,AFNE01.JPG,AFNE01.JPG,,,,,,,,,,,,,1,0,10,6,,,,,,,,,,,AMSA10.jpg,AMSA05.jpg,AMNE16.jpg,AMNE12.jpg,AMNE12.jpg,MN,1,num_4,32,num_6,0.733801633818,,,2017_Apr_28_1243,59.9933229368,FEMA4ImagesEEG,001,100287,
AFNE01.JPG,AFNE01.JPG,AFNE01.JPG,AFNE01.JPG,AFNE01.JPG,AFNE01.JPG,,,,,,,,,,,,,1,1,11,1,,,,,,,,,,,AMSA04.jpg,AMNE20.jpg,AMNE09.jpg,AMSA20.jpg,AMNE09.jpg,MN,1,num_2,32,num_8,1.41675201,,,2017_Apr_28_1243,59.9933229368,FEMA4ImagesEEG,001,100287,
AFNE01.JPG,AFNE01.JPG,AFNE01.JPG,AFNE01.JPG,AFNE01.JPG,AFNE01.JPG,,,,,,,,,,,,,1,2,12,3,,,,,,,,,,,AMSA08.jpg,AMSA01.jpg,AMNE18.jpg,AMNE17.jpg,AMNE18.jpg,MN,1,num_2,16,num_2,0.466798853944,,,2017_Apr_28_1243,59.9933229368,FEMA4ImagesEEG,001,100287,
AFNE01.JPG,AFNE01.JPG,AFNE01.JPG,AFNE01.JPG,AFNE01.JPG,AFNE01.JPG,,,,,,,,,,,,,1,3,13,5,,,,,,,,,,,AMNE07.jpg,AMSA12.jpg,AMSA08.jpg,AMNE18.jpg,AMNE18.jpg,MN,1,num_4,16,num_4,0.516761984909,,,2017_Apr_28_1243,59.9933229368,FEMA4ImagesEEG,001,100287,
AFNE01.JPG,AFNE01.JPG,AFNE01.JPG,AFNE01.JPG,AFNE01.JPG,AFNE01.JPG,,,,,,,,,,,,,1,4,14,2,,,,,,,,,,,AMSA02.jpg,AMNE07.jpg,AMSA19.jpg,AMNE18.jpg,AMSA02.jpg,MS,2,num_8,16,num_8,0.716542663635,,,2017_Apr_28_1243,59.9933229368,FEMA4ImagesEEG,001,100287,
AFNE01.JPG,AFNE01.JPG,AFNE01.JPG,AFNE01.JPG,AFNE01.JPG,AFNE01.JPG,,,,,,,,,,,,,1,5,15,9,,,,,,,,,,,AMSA12.jpg,AMNE18.jpg,AMSA10.jpg,AMNE09.jpg,AMSA10.jpg,MS,2,num_2,16,num_2,1.25011394254,,,2017_Apr_28_1243,59.9933229368,FEMA4ImagesEEG,001,100287,
AFNE01.JPG,AFNE01.JPG,AFNE01.JPG,AFNE01.JPG,AFNE01.JPG,AFNE01.JPG,,,,,,,,,,,,,1,6,16,4,,,,,,,,,,,AMNE19.jpg,AMSA09.jpg,AMNE06.jpg,AMSA12.jpg,AMSA12.jpg,MS,2,num_4,32,num_6,1.26673945307,,,2017_Apr_28_1243,59.9933229368,FEMA4ImagesEEG,001,100287,
AFNE01.JPG,AFNE01.JPG,AFNE01.JPG,AFNE01.JPG,AFNE01.JPG,AFNE01.JPG,,,,,,,,,,,,,1,7,17,8,,,,,,,,,,,AMSA04.jpg,AMSA17.jpg,AMNE16.jpg,AMNE02.jpg,AMSA04.jpg,MS,2,num_8,32,num_4,1.68365119107,,,2017_Apr_28_1243,59.9933229368,FEMA4ImagesEEG,001,100287,
AFNE01.JPG,AFNE01.JPG,AFNE01.JPG,AFNE01.JPG,AFNE01.JPG,AFNE01.JPG,,,,,,,,,,,,,1,8,18,7,,,,,,,,,,,AMSA06.jpg,AMNE12.jpg,AMSA02.jpg,AMNE09.jpg,AMNE12.jpg,MN,1,num_6,16,num_6,0.500130701228,,,2017_Apr_28_1243,59.9933229368,FEMA4ImagesEEG,001,100287,
AFNE01.JPG,AFNE01.JPG,AFNE01.JPG,AFNE01.JPG,AFNE01.JPG,AFNE01.JPG,,,,,,,,,,,,,1,9,19,0,,,,,,,,,,,AMSA02.jpg,AMNE09.jpg,AMNE16.jpg,AMSA01.jpg,AMSA02.jpg,MS,2,num_8,16,num_8,0.850173151004,,,2017_Apr_28_1243,59.9933229368,FEMA4ImagesEEG,001,100287,
AFNE01.JPG,AFNE01.JPG,AFNE01.JPG,AFNE01.JPG,AFNE01.JPG,AFNE01.JPG,,,,,,,,,,,,,2,0,20,5,,,,,,,,,,,AMSA01.jpg,AMNE07.jpg,AMSA18.jpg,AMNE02.jpg,AMSA01.jpg,MS,2,num_8,32,num_2,0.466831248603,,,2017_Apr_28_1243,59.9933229368,FEMA4ImagesEEG,001,100287,
AFNE01.JPG,AFNE01.JPG,AFNE01.JPG,AFNE01.JPG,AFNE01.JPG,AFNE01.JPG,,,,,,,,,,,,,2,1,21,8,,,,,,,,,,,AMNE18.jpg,AMSA20.jpg,AMSA12.jpg,AMNE19.jpg,AMNE19.jpg,MN,1,num_4,16,num_4,0.600161524257,,,2017_Apr_28_1243,59.9933229368,FEMA4ImagesEEG,001,100287,
AFNE01.JPG,AFNE01.JPG,AFNE01.JPG,AFNE01.JPG,AFNE01.JPG,AFNE01.JPG,,,,,,,,,,,,,2,2,22,3,,,,,,,,,,,AMNE20.jpg,AMNE01.jpg,AMSA09.jpg,AMSA13.jpg,AMNE20.jpg,MN,1,num_8,16,num_8,0.36682416033,,,2017_Apr_28_1243,59.9933229368,FEMA4ImagesEEG,001,100287,
AFNE01.JPG,AFNE01.JPG,AFNE01.JPG,AFNE01.JPG,AFNE01.JPG,AFNE01.JPG,,,,,,,,,,,,,2,3,23,7,,,,,,,,,,,AMSA19.jpg,AMNE16.jpg,AMNE18.jpg,AMSA11.jpg,AMSA19.jpg,MS,2,num_8,32,num_2,0.333462484297,,,2017_Apr_28_1243,59.9933229368,FEMA4ImagesEEG,001,100287,
AFNE01.JPG,AFNE01.JPG,AFNE01.JPG,AFNE01.JPG,AFNE01.JPG,AFNE01.JPG,,,,,,,,,,,,,2,4,24,1,,,,,,,,,,,AMSA04.jpg,AMNE09.jpg,AMNE20.jpg,AMSA14.jpg,AMNE20.jpg,MN,1,num_2,32,num_6,0.300140900654,,,2017_Apr_28_1243,59.9933229368,FEMA4ImagesEEG,001,100287,
AFNE01.JPG,AFNE01.JPG,AFNE01.JPG,AFNE01.JPG,AFNE01.JPG,AFNE01.JPG,,,,,,,,,,,,,2,5,25,4,,,,,,,,,,,AMNE09.jpg,AMSA19.jpg,AMSA11.jpg,AMNE19.jpg,AMSA19.jpg,MS,2,num_6,32,num_4,0.516818114324,,,2017_Apr_28_1243,59.9933229368,FEMA4ImagesEEG,001,100287,
AFNE01.JPG,AFNE01.JPG,AFNE01.JPG,AFNE01.JPG,AFNE01.JPG,AFNE01.JPG,,,,,,,,,,,,,2,6,26,2,,,,,,,,,,,AMNE06.jpg,AMNE01.jpg,AMSA09.jpg,AMSA17.jpg,AMSA17.jpg,MS,2,num_4,32,num_8,0.383488159394,,,2017_Apr_28_1243,59.9933229368,FEMA4ImagesEEG,001,100287,
AFNE01.JPG,AFNE01.JPG,AFNE01.JPG,AFNE01.JPG,AFNE01.JPG,AFNE01.JPG,,,,,,,,,,,,,2,7,27,0,,,,,,,,,,,AMSA15.jpg,AMSA10.jpg,AMNE14.jpg,AMNE20.jpg,AMNE14.jpg,MN,1,num_2,16,num_2,1.083451499,,,2017_Apr_28_1243,59.9933229368,FEMA4ImagesEEG,001,100287,
AFNE01.JPG,AFNE01.JPG,AFNE01.JPG,AFNE01.JPG,AFNE01.JPG,AFNE01.JPG,,,,,,,,,,,,,2,8,28,9,,,,,,,,,,,AMSA17.jpg,AMNE10.jpg,AMSA20.jpg,AMNE20.jpg,AMNE10.jpg,MN,1,num_6,32,num_4,0.583454225212,,,2017_Apr_28_1243,59.9933229368,FEMA4ImagesEEG,001,100287,
AFNE01.JPG,AFNE01.JPG,AFNE01.JPG,AFNE01.JPG,AFNE01.JPG,AFNE01.JPG,,,,,,,,,,,,,2,9,29,6,,,,,,,,,,,AMSA20.jpg,AMNE16.jpg,AMNE10.jpg,AMSA11.jpg,AMNE16.jpg,MN,1,num_6,16,num_6,0.283558369265,,,2017_Apr_28_1243,59.9933229368,FEMA4ImagesEEG,001,100287,
AFNE01.JPG,AFNE01.JPG,AFNE01.JPG,AFNE01.JPG,AFNE01.JPG,AFNE01.JPG,,,,,,,,,,,,,3,0,30,8,,,,,,,,,,,AMSA09.jpg,AMSA04.jpg,AMNE12.jpg,AMNE08.jpg,AMSA09.jpg,MS,2,num_8,32,num_4,0.700185291003,,,2017_Apr_28_1243,59.9933229368,FEMA4ImagesEEG,001,100287,
AFNE01.JPG,AFNE01.JPG,AFNE01.JPG,AFNE01.JPG,AFNE01.JPG,AFNE01.JPG,,,,,,,,,,,,,3,1,31,4,,,,,,,,,,,AMNE20.jpg,AMSA10.jpg,AMNE19.jpg,AMSA13.jpg,AMSA10.jpg,MS,2,num_6,32,num_2,0.966783939628,,,2017_Apr_28_1243,59.9933229368,FEMA4ImagesEEG,001,100287,
AFNE01.JPG,AFNE01.JPG,AFNE01.JPG,AFNE01.JPG,AFNE01.JPG,AFNE01.JPG,,,,,,,,,,,,,3,2,32,7,,,,,,,,,,,AMNE13.jpg,AMSA13.jpg,AMNE10.jpg,AMSA20.jpg,AMSA20.jpg,MS,2,num_4,32,num_8,0.716796368244,,,2017_Apr_28_1243,59.9933229368,FEMA4ImagesEEG,001,100287,
AFNE01.JPG,AFNE01.JPG,AFNE01.JPG,AFNE01.JPG,AFNE01.JPG,AFNE01.JPG,,,,,,,,,,,,,3,3,33,5,,,,,,,,,,,AMNE15.jpg,AMNE11.jpg,AMSA16.jpg,AMSA19.jpg,AMNE11.jpg,MN,1,num_6,32,num_4,0.383461538004,,,2017_Apr_28_1243,59.9933229368,FEMA4ImagesEEG,001,100287,
AFNE01.JPG,AFNE01.JPG,AFNE01.JPG,AFNE01.JPG,AFNE01.JPG,AFNE01.JPG,,,,,,,,,,,,,3,4,34,9,,,,,,,,,,,AMSA08.jpg,AMSA13.jpg,AMNE19.jpg,AMNE17.jpg,AMSA08.jpg,MS,2,num_8,32,num_6,0.433484968147,,,2017_Apr_28_1243,59.9933229368,FEMA4ImagesEEG,001,100287,
AFNE01.JPG,AFNE01.JPG,AFNE01.JPG,AFNE01.JPG,AFNE01.JPG,AFNE01.JPG,,,,,,,,,,,,,3,5,35,3,,,,,,,,,,,AMNE06.jpg,AMNE07.jpg,AMSA10.jpg,AMSA20.jpg,AMSA10.jpg,MS,2,num_2,32,num_4,0.433392274426,,,2017_Apr_28_1243,59.9933229368,FEMA4ImagesEEG,001,100287,
AFNE01.JPG,AFNE01.JPG,AFNE01.JPG,AFNE01.JPG,AFNE01.JPG,AFNE01.JPG,,,,,,,,,,,,,3,6,36,0,,,,,,,,,,,AMSA10.jpg,AMNE06.jpg,AMNE18.jpg,AMSA15.jpg,AMSA15.jpg,MS,2,num_4,32,num_2,0.450153136975,,,2017_Apr_28_1243,59.9933229368,FEMA4ImagesEEG,001,100287,
AFNE01.JPG,AFNE01.JPG,AFNE01.JPG,AFNE01.JPG,AFNE01.JPG,AFNE01.JPG,,,,,,,,,,,,,3,7,37,6,,,,,,,,,,,AMNE14.jpg,AMSA01.jpg,AMSA19.jpg,AMNE03.jpg,AMNE14.jpg,MN,1,num_8,32,num_6,0.333505142597,,,2017_Apr_28_1243,59.9933229368,FEMA4ImagesEEG,001,100287,
AFNE01.JPG,AFNE01.JPG,AFNE01.JPG,AFNE01.JPG,AFNE01.JPG,AFNE01.JPG,,,,,,,,,,,,,3,8,38,2,,,,,,,,,,,AMSA04.jpg,AMNE13.jpg,AMNE08.jpg,AMSA20.jpg,AMSA20.jpg,MS,2,num_4,32,num_8,0.383536591078,,,2017_Apr_28_1243,59.9933229368,FEMA4ImagesEEG,001,100287,
AFNE01.JPG,AFNE01.JPG,AFNE01.JPG,AFNE01.JPG,AFNE01.JPG,AFNE01.JPG,,,,,,,,,,,,,3,9,39,1,,,,,,,,,,,AMSA07.jpg,AMSA12.jpg,AMNE04.jpg,AMNE15.jpg,AMSA07.jpg,MS,2,num_8,32,num_4,0.433495552395,,,2017_Apr_28_1243,59.9933229368,FEMA4ImagesEEG,001,100287,
AFNE01.JPG,AFNE01.JPG,AFNE01.JPG,AFNE01.JPG,AFNE01.JPG,AFNE01.JPG,,,,,,,,,,,,,4,0,40,3,,,,,,,,,,,AMNE17.jpg,AMSA02.jpg,AMNE01.jpg,AMSA06.jpg,AMSA02.jpg,MS,2,num_6,16,num_6,0.40015696967,,,2017_Apr_28_1243,59.9933229368,FEMA4ImagesEEG,001,100287,
AFNE01.JPG,AFNE01.JPG,AFNE01.JPG,AFNE01.JPG,AFNE01.JPG,AFNE01.JPG,,,,,,,,,,,,,4,1,41,9,,,,,,,,,,,AMNE04.jpg,AMNE08.jpg,AMSA18.jpg,AMSA20.jpg,AMNE04.jpg,MN,1,num_8,16,num_8,0.50014032342,,,2017_Apr_28_1243,59.9933229368,FEMA4ImagesEEG,001,100287,
AFNE01.JPG,AFNE01.JPG,AFNE01.JPG,AFNE01.JPG,AFNE01.JPG,AFNE01.JPG,,,,,,,,,,,,,4,2,42,1,,,,,,,,,,,AMNE10.jpg,AMNE08.jpg,AMSA04.jpg,AMSA12.jpg,AMNE10.jpg,MN,1,num_8,32,num_2,0.483495568507,,,2017_Apr_28_1243,59.9933229368,FEMA4ImagesEEG,001,100287,
AFNE01.JPG,AFNE01.JPG,AFNE01.JPG,AFNE01.JPG,AFNE01.JPG,AFNE01.JPG,,,,,,,,,,,,,4,3,43,8,,,,,,,,,,,AMSA13.jpg,AMNE18.jpg,AMNE15.jpg,AMSA06.jpg,AMSA06.jpg,MS,2,num_4,16,num_4,0.416825780063,,,2017_Apr_28_1243,59.9933229368,FEMA4ImagesEEG,001,100287,
AFNE01.JPG,AFNE01.JPG,AFNE01.JPG,AFNE01.JPG,AFNE01.JPG,AFNE01.JPG,,,,,,,,,,,,,4,4,44,7,,,,,,,,,,,AMSA16.jpg,AMSA09.jpg,AMNE04.jpg,AMNE18.jpg,AMSA09.jpg,MS,2,num_6,16,num_6,0.683518405072,,,2017_Apr_28_1243,59.9933229368,FEMA4ImagesEEG,001,100287,
AFNE01.JPG,AFNE01.JPG,AFNE01.JPG,AFNE01.JPG,AFNE01.JPG,AFNE01.JPG,,,,,,,,,,,,,4,5,45,0,,,,,,,,,,,AMNE15.jpg,AMSA05.jpg,AMSA16.jpg,AMNE10.jpg,AMNE15.jpg,MN,1,num_8,16,num_8,0.35013867158,,,2017_Apr_28_1243,59.9933229368,FEMA4ImagesEEG,001,100287,
AFNE01.JPG,AFNE01.JPG,AFNE01.JPG,AFNE01.JPG,AFNE01.JPG,AFNE01.JPG,,,,,,,,,,,,,4,6,46,5,,,,,,,,,,,AMSA19.jpg,AMSA16.jpg,AMNE07.jpg,AMNE15.jpg,AMSA16.jpg,MS,2,num_6,32,num_2,0.533583146287,,,2017_Apr_28_1243,59.9933229368,FEMA4ImagesEEG,001,100287,
AFNE01.JPG,AFNE01.JPG,AFNE01.JPG,AFNE01.JPG,AFNE01.JPG,AFNE01.JPG,,,,,,,,,,,,,4,7,47,2,,,,,,,,,,,AMSA10.jpg,AMNE09.jpg,AMSA18.jpg,AMNE12.jpg,AMSA18.jpg,MS,2,num_2,32,num_4,0.600179164903,,,2017_Apr_28_1243,59.9933229368,FEMA4ImagesEEG,001,100287,
AFNE01.JPG,AFNE01.JPG,AFNE01.JPG,AFNE01.JPG,AFNE01.JPG,AFNE01.JPG,,,,,,,,,,,,,4,8,48,4,,,,,,,,,,,AMSA09.jpg,AMNE20.jpg,AMNE14.jpg,AMSA15.jpg,AMSA15.jpg,MS,2,num_4,32,num_6,0.800101930858,,,2017_Apr_28_1243,59.9933229368,FEMA4ImagesEEG,001,100287,
AFNE01.JPG,AFNE01.JPG,AFNE01.JPG,AFNE01.JPG,AFNE01.JPG,AFNE01.JPG,,,,,,,,,,,,,4,9,49,6,,,,,,,,,,,AMNE18.jpg,AMSA17.jpg,AMNE07.jpg,AMSA08.jpg,AMSA17.jpg,MS,2,num_6,32,num_8,0.55014066014,,,2017_Apr_28_1243,59.9933229368,FEMA4ImagesEEG,001,100287,
AFNE01.JPG,AFNE01.JPG,AFNE01.JPG,AFNE01.JPG,AFNE01.JPG,AFNE01.JPG,,,,,,,,,,,,,5,0,50,1,,,,,,,,,,,AMSA16.jpg,AMSA15.jpg,AMNE19.jpg,AMNE01.jpg,AMSA16.jpg,MS,2,num_8,32,num_4,0.333489426412,,,2017_Apr_28_1243,59.9933229368,FEMA4ImagesEEG,001,100287,
AFNE01.JPG,AFNE01.JPG,AFNE01.JPG,AFNE01.JPG,AFNE01.JPG,AFNE01.JPG,,,,,,,,,,,,,5,1,51,5,,,,,,,,,,,AMSA01.jpg,AMNE15.jpg,AMSA12.jpg,AMNE17.jpg,AMNE15.jpg,MN,1,num_6,16,num_6,0.350148614496,,,2017_Apr_28_1243,59.9933229368,FEMA4ImagesEEG,001,100287,
AFNE01.JPG,AFNE01.JPG,AFNE01.JPG,AFNE01.JPG,AFNE01.JPG,AFNE01.JPG,,,,,,,,,,,,,5,2,52,0,,,,,,,,,,,AMNE13.jpg,AMSA11.jpg,AMNE09.jpg,AMSA13.jpg,AMNE13.jpg,MN,1,num_8,32,num_2,0.383473726106,,,2017_Apr_28_1243,59.9933229368,FEMA4ImagesEEG,001,100287,
AFNE01.JPG,AFNE01.JPG,AFNE01.JPG,AFNE01.JPG,AFNE01.JPG,AFNE01.JPG,,,,,,,,,,,,,5,3,53,4,,,,,,,,,,,AMNE07.jpg,AMNE02.jpg,AMSA09.jpg,AMSA07.jpg,AMSA09.jpg,MS,2,num_2,16,num_2,0.433523777523,,,2017_Apr_28_1243,59.9933229368,FEMA4ImagesEEG,001,100287,
AFNE01.JPG,AFNE01.JPG,AFNE01.JPG,AFNE01.JPG,AFNE01.JPG,AFNE01.JPG,,,,,,,,,,,,,5,4,54,9,,,,,,,,,,,AMNE06.jpg,AMSA08.jpg,AMSA15.jpg,AMNE09.jpg,AMNE06.jpg,MN,1,num_8,16,num_8,0.350156312226,,,2017_Apr_28_1243,59.9933229368,FEMA4ImagesEEG,001,100287,
AFNE01.JPG,AFNE01.JPG,AFNE01.JPG,AFNE01.JPG,AFNE01.JPG,AFNE01.JPG,,,,,,,,,,,,,5,5,55,6,,,,,,,,,,,AMNE04.jpg,AMSA11.jpg,AMSA01.jpg,AMNE08.jpg,AMSA01.jpg,MS,2,num_2,32,num_4,0.366755201365,,,2017_Apr_28_1243,59.9933229368,FEMA4ImagesEEG,001,100287,
AFNE01.JPG,AFNE01.JPG,AFNE01.JPG,AFNE01.JPG,AFNE01.JPG,AFNE01.JPG,,,,,,,,,,,,,5,6,56,2,,,,,,,,,,,AMNE01.jpg,AMSA12.jpg,AMSA09.jpg,AMNE09.jpg,AMSA09.jpg,MS,2,num_2,32,num_6,0.56671485235,,,2017_Apr_28_1243,59.9933229368,FEMA4ImagesEEG,001,100287,
AFNE01.JPG,AFNE01.JPG,AFNE01.JPG,AFNE01.JPG,AFNE01.JPG,AFNE01.JPG,,,,,,,,,,,,,5,7,57,3,,,,,,,,,,,AMSA20.jpg,AMNE08.jpg,AMSA10.jpg,AMNE17.jpg,AMNE08.jpg,MN,1,num_6,32,num_4,0.516668329248,,,2017_Apr_28_1243,59.9933229368,FEMA4ImagesEEG,001,100287,
AFNE01.JPG,AFNE01.JPG,AFNE01.JPG,AFNE01.JPG,AFNE01.JPG,AFNE01.JPG,,,,,,,,,,,,,5,8,58,7,,,,,,,,,,,AMSA15.jpg,AMNE13.jpg,AMNE16.jpg,AMSA16.jpg,AMSA16.jpg,MS,2,num_4,16,num_4,0.300167842768,,,2017_Apr_28_1243,59.9933229368,FEMA4ImagesEEG,001,100287,
AFNE01.JPG,AFNE01.JPG,AFNE01.JPG,AFNE01.JPG,AFNE01.JPG,AFNE01.JPG,,,,,,,,,,,,,5,9,59,8,,,,,,,,,,,AMNE09.jpg,AMNE10.jpg,AMSA17.jpg,AMSA09.jpg,AMSA09.jpg,MS,2,num_4,32,num_6,0.283490372472,,,2017_Apr_28_1243,59.9933229368,FEMA4ImagesEEG,001,100287,
,,,,,,,,,,,,,,,,,,,,,,,,,,,,,,,,,,,,,,,,,,,space,45.6966055221,2017_Apr_28_1243,59.9933229368,FEMA4ImagesEEG,001,100287,
AFNE01.JPG,AFNE01.JPG,AFNE01.JPG,AFNE01.JPG,AFNE01.JPG,AFNE01.JPG,,,,,,,,,,,,,,,,,0,0,0,0,,,,,,,AFSA07.jpg,AFNE06.jpg,AFNE10.jpg,AFSA02.jpg,AFSA07.jpg,FS,4,num_8,32,num_2,0.716765577323,,,2017_Apr_28_1243,59.9933229368,FEMA4ImagesEEG,001,100287,
AFNE01.JPG,AFNE01.JPG,AFNE01.JPG,AFNE01.JPG,AFNE01.JPG,AFNE01.JPG,,,,,,,,,,,,,,,,,0,1,1,4,,,,,,,AFNE16.jpg,AFNE09.jpg,AFSA15.jpg,AFSA16.jpg,AFSA16.jpg,FS,4,num_4,16,num_4,0.300196388504,,,2017_Apr_28_1243,59.9933229368,FEMA4ImagesEEG,001,100287,
AFNE01.JPG,AFNE01.JPG,AFNE01.JPG,AFNE01.JPG,AFNE01.JPG,AFNE01.JPG,,,,,,,,,,,,,,,,,0,2,2,7,,,,,,,AFSA06.jpg,AFNE05.jpg,AFNE07.jpg,AFSA19.jpg,AFSA06.jpg,FS,4,num_8,32,num_4,0.300173295313,,,2017_Apr_28_1243,59.9933229368,FEMA4ImagesEEG,001,100287,
AFNE01.JPG,AFNE01.JPG,AFNE01.JPG,AFNE01.JPG,AFNE01.JPG,AFNE01.JPG,,,,,,,,,,,,,,,,,0,3,3,9,,,,,,,AFSA17.jpg,AFSA04.jpg,AFNE17.jpg,AFNE06.jpg,AFSA17.jpg,FS,4,num_8,32,num_6,0.283503522864,,,2017_Apr_28_1243,59.9933229368,FEMA4ImagesEEG,001,100287,
AFNE01.JPG,AFNE01.JPG,AFNE01.JPG,AFNE01.JPG,AFNE01.JPG,AFNE01.JPG,,,,,,,,,,,,,,,,,0,4,4,5,,,,,,,AFNE20.jpg,AFSA19.jpg,AFNE09.jpg,AFSA06.jpg,AFSA19.jpg,FS,4,num_6,32,num_8,0.300045320415,,,2017_Apr_28_1243,59.9933229368,FEMA4ImagesEEG,001,100287,
AFNE01.JPG,AFNE01.JPG,AFNE01.JPG,AFNE01.JPG,AFNE01.JPG,AFNE01.JPG,,,,,,,,,,,,,,,,,0,5,5,2,,,,,,,AFSA15.jpg,AFSA03.jpg,AFNE15.jpg,AFNE19.jpg,AFNE19.jpg,FN,3,num_4,32,num_2,0.283512824331,,,2017_Apr_28_1243,59.9933229368,FEMA4ImagesEEG,001,100287,
AFNE01.JPG,AFNE01.JPG,AFNE01.JPG,AFNE01.JPG,AFNE01.JPG,AFNE01.JPG,,,,,,,,,,,,,,,,,0,6,6,3,,,,,,,AFNE14.jpg,AFSA02.jpg,AFSA03.jpg,AFNE19.jpg,AFSA02.jpg,FS,4,num_6,32,num_4,0.283507050946,,,2017_Apr_28_1243,59.9933229368,FEMA4ImagesEEG,001,100287,
AFNE01.JPG,AFNE01.JPG,AFNE01.JPG,AFNE01.JPG,AFNE01.JPG,AFNE01.JPG,,,,,,,,,,,,,,,,,0,7,7,8,,,,,,,AFNE18.jpg,AFNE08.jpg,AFSA15.jpg,AFSA13.jpg,AFNE08.jpg,FN,3,num_6,16,num_6,0.483395177172,,,2017_Apr_28_1243,59.9933229368,FEMA4ImagesEEG,001,100287,
AFNE01.JPG,AFNE01.JPG,AFNE01.JPG,AFNE01.JPG,AFNE01.JPG,AFNE01.JPG,,,,,,,,,,,,,,,,,0,8,8,1,,,,,,,AFSA06.jpg,AFNE12.jpg,AFNE09.jpg,AFSA14.jpg,AFSA14.jpg,FS,4,num_4,32,num_6,0.350132577587,,,2017_Apr_28_1243,59.9933229368,FEMA4ImagesEEG,001,100287,
AFNE01.JPG,AFNE01.JPG,AFNE01.JPG,AFNE01.JPG,AFNE01.JPG,AFNE01.JPG,,,,,,,,,,,,,,,,,0,9,9,6,,,,,,,AFNE07.jpg,AFNE04.jpg,AFSA14.jpg,AFSA07.jpg,AFSA07.jpg,FS,4,num_4,32,num_2,0.366843725322,,,2017_Apr_28_1243,59.9933229368,FEMA4ImagesEEG,001,100287,
AFNE01.JPG,AFNE01.JPG,AFNE01.JPG,AFNE01.JPG,AFNE01.JPG,AFNE01.JPG,,,,,,,,,,,,,,,,,1,0,10,6,,,,,,,AFNE05.jpg,AFNE09.jpg,AFSA18.jpg,AFSA14.jpg,AFSA18.jpg,FS,4,num_2,32,num_8,0.466820343398,,,2017_Apr_28_1243,59.9933229368,FEMA4ImagesEEG,001,100287,
AFNE01.JPG,AFNE01.JPG,AFNE01.JPG,AFNE01.JPG,AFNE01.JPG,AFNE01.JPG,,,,,,,,,,,,,,,,,1,1,11,7,,,,,,,AFSA18.jpg,AFSA19.jpg,AFNE13.jpg,AFNE15.jpg,AFNE13.jpg,FN,3,num_2,32,num_4,0.333498407039,,,2017_Apr_28_1243,59.9933229368,FEMA4ImagesEEG,001,100287,
AFNE01.JPG,AFNE01.JPG,AFNE01.JPG,AFNE01.JPG,AFNE01.JPG,AFNE01.JPG,,,,,,,,,,,,,,,,,1,2,12,5,,,,,,,AFSA20.jpg,AFNE10.jpg,AFSA19.jpg,AFNE17.jpg,AFNE10.jpg,FN,3,num_6,16,num_6,0.350147010759,,,2017_Apr_28_1243,59.9933229368,FEMA4ImagesEEG,001,100287,
AFNE01.JPG,AFNE01.JPG,AFNE01.JPG,AFNE01.JPG,AFNE01.JPG,AFNE01.JPG,,,,,,,,,,,,,,,,,1,3,13,2,,,,,,,AFNE01.jpg,AFSA02.jpg,AFSA16.jpg,AFNE19.jpg,AFSA16.jpg,FS,4,num_2,32,num_8,0.800195586751,,,2017_Apr_28_1243,59.9933229368,FEMA4ImagesEEG,001,100287,
AFNE01.JPG,AFNE01.JPG,AFNE01.JPG,AFNE01.JPG,AFNE01.JPG,AFNE01.JPG,,,,,,,,,,,,,,,,,1,4,14,9,,,,,,,AFNE15.jpg,AFNE09.jpg,AFSA11.jpg,AFSA16.jpg,AFSA11.jpg,FS,4,num_2,32,num_6,0.616801788681,,,2017_Apr_28_1243,59.9933229368,FEMA4ImagesEEG,001,100287,
AFNE01.JPG,AFNE01.JPG,AFNE01.JPG,AFNE01.JPG,AFNE01.JPG,AFNE01.JPG,,,,,,,,,,,,,,,,,1,5,15,1,,,,,,,AFSA18.jpg,AFNE16.jpg,AFSA20.jpg,AFNE14.jpg,AFSA20.jpg,FS,4,num_2,16,num_2,0.416799158673,,,2017_Apr_28_1243,59.9933229368,FEMA4ImagesEEG,001,100287,
AFNE01.JPG,AFNE01.JPG,AFNE01.JPG,AFNE01.JPG,AFNE01.JPG,AFNE01.JPG,,,,,,,,,,,,,,,,,1,6,16,3,,,,,,,AFNE16.jpg,AFNE14.jpg,AFSA14.jpg,AFSA09.jpg,AFSA09.jpg,FS,4,num_4,16,num_4,0.366812292952,,,2017_Apr_28_1243,59.9933229368,FEMA4ImagesEEG,001,100287,
AFNE01.JPG,AFNE01.JPG,AFNE01.JPG,AFNE01.JPG,AFNE01.JPG,AFNE01.JPG,,,,,,,,,,,,,,,,,1,7,17,0,,,,,,,AFSA20.jpg,AFNE06.jpg,AFNE03.jpg,AFSA14.jpg,AFNE03.jpg,FN,3,num_2,32,num_6,0.650125617511,,,2017_Apr_28_1243,59.9933229368,FEMA4ImagesEEG,001,100287,
AFNE01.JPG,AFNE01.JPG,AFNE01.JPG,AFNE01.JPG,AFNE01.JPG,AFNE01.JPG,,,,,,,,,,,,,,,,,1,8,18,8,,,,,,,AFNE06.jpg,AFSA05.jpg,AFSA11.jpg,AFNE11.jpg,AFNE11.jpg,FN,3,num_4,32,num_2,0.400154724484,,,2017_Apr_28_1243,59.9933229368,FEMA4ImagesEEG,001,100287,
AFNE01.JPG,AFNE01.JPG,AFNE01.JPG,AFNE01.JPG,AFNE01.JPG,AFNE01.JPG,,,,,,,,,,,,,,,,,1,9,19,4,,,,,,,AFNE16.jpg,AFSA13.jpg,AFSA19.jpg,AFNE12.jpg,AFNE12.jpg,FN,3,num_4,32,num_8,0.600187504082,,,2017_Apr_28_1243,59.9933229368,FEMA4ImagesEEG,001,100287,
AFNE01.JPG,AFNE01.JPG,AFNE01.JPG,AFNE01.JPG,AFNE01.JPG,AFNE01.JPG,,,,,,,,,,,,,,,,,2,0,20,9,,,,,,,AFNE12.jpg,AFSA06.jpg,AFSA12.jpg,AFNE14.jpg,AFNE12.jpg,FN,3,num_8,32,num_4,0.400115915108,,,2017_Apr_28_1243,59.9933229368,FEMA4ImagesEEG,001,100287,
AFNE01.JPG,AFNE01.JPG,AFNE01.JPG,AFNE01.JPG,AFNE01.JPG,AFNE01.JPG,,,,,,,,,,,,,,,,,2,1,21,3,,,,,,,AFSA06.jpg,AFNE03.jpg,AFNE13.jpg,AFSA01.jpg,AFSA01.jpg,FS,4,num_4,32,num_6,0.333511878038,,,2017_Apr_28_1243,59.9933229368,FEMA4ImagesEEG,001,100287,
AFNE01.JPG,AFNE01.JPG,AFNE01.JPG,AFNE01.JPG,AFNE01.JPG,AFNE01.JPG,,,,,,,,,,,,,,,,,2,2,22,6,,,,,,,AFSA09.jpg,AFNE16.jpg,AFSA15.jpg,AFNE18.jpg,AFNE18.jpg,FN,3,num_4,16,num_4,0.450151533238,,,2017_Apr_28_1243,59.9933229368,FEMA4ImagesEEG,001,100287,
AFNE01.JPG,AFNE01.JPG,AFNE01.JPG,AFNE01.JPG,AFNE01.JPG,AFNE01.JPG,,,,,,,,,,,,,,,,,2,3,23,7,,,,,,,AFNE17.jpg,AFNE07.jpg,AFSA19.jpg,AFSA20.jpg,AFNE07.jpg,FN,3,num_6,32,num_2,0.350215007435,,,2017_Apr_28_1243,59.9933229368,FEMA4ImagesEEG,001,100287,
AFNE01.JPG,AFNE01.JPG,AFNE01.JPG,AFNE01.JPG,AFNE01.JPG,AFNE01.JPG,,,,,,,,,,,,,,,,,2,4,24,1,,,,,,,AFNE03.jpg,AFSA18.jpg,AFSA06.jpg,AFNE10.jpg,AFSA06.jpg,FS,4,num_2,32,num_8,0.366770596826,,,2017_Apr_28_1243,59.9933229368,FEMA4ImagesEEG,001,100287,
AFNE01.JPG,AFNE01.JPG,AFNE01.JPG,AFNE01.JPG,AFNE01.JPG,AFNE01.JPG,,,,,,,,,,,,,,,,,2,5,25,2,,,,,,,AFSA18.jpg,AFNE11.jpg,AFSA15.jpg,AFNE08.jpg,AFNE11.jpg,FN,3,num_6,16,num_6,0.31682093686,,,2017_Apr_28_1243,59.9933229368,FEMA4ImagesEEG,001,100287,
AFNE01.JPG,AFNE01.JPG,AFNE01.JPG,AFNE01.JPG,AFNE01.JPG,AFNE01.JPG,,,,,,,,,,,,,,,,,2,6,26,4,,,,,,,AFSA15.jpg,AFNE10.jpg,AFSA11.jpg,AFNE16.jpg,AFSA15.jpg,FS,4,num_8,32,num_4,0.616766186664,,,2017_Apr_28_1243,59.9933229368,FEMA4ImagesEEG,001,100287,
AFNE01.JPG,AFNE01.JPG,AFNE01.JPG,AFNE01.JPG,AFNE01.JPG,AFNE01.JPG,,,,,,,,,,,,,,,,,2,7,27,8,,,,,,,AFNE19.jpg,AFSA20.jpg,AFNE17.jpg,AFSA09.jpg,AFNE19.jpg,FN,3,num_8,32,num_4,0.300150522846,,,2017_Apr_28_1243,59.9933229368,FEMA4ImagesEEG,001,100287,
AFNE01.JPG,AFNE01.JPG,AFNE01.JPG,AFNE01.JPG,AFNE01.JPG,AFNE01.JPG,,,,,,,,,,,,,,,,,2,8,28,0,,,,,,,AFSA13.jpg,AFSA16.jpg,AFNE03.jpg,AFNE14.jpg,AFSA13.jpg,FS,4,num_8,16,num_8,0.333495841129,,,2017_Apr_28_1243,59.9933229368,FEMA4ImagesEEG,001,100287,
AFNE01.JPG,AFNE01.JPG,AFNE01.JPG,AFNE01.JPG,AFNE01.JPG,AFNE01.JPG,,,,,,,,,,,,,,,,,2,9,29,5,,,,,,,AFSA01.jpg,AFSA15.jpg,AFNE02.jpg,AFNE06.jpg,AFNE06.jpg,FN,3,num_4,32,num_2,0.333499690052,,,2017_Apr_28_1243,59.9933229368,FEMA4ImagesEEG,001,100287,
AFNE01.JPG,AFNE01.JPG,AFNE01.JPG,AFNE01.JPG,AFNE01.JPG,AFNE01.JPG,,,,,,,,,,,,,,,,,3,0,30,6,,,,,,,AFSA05.jpg,AFNE04.jpg,AFNE01.jpg,AFSA11.jpg,AFNE04.jpg,FN,3,num_6,16,num_6,0.333455107291,,,2017_Apr_28_1243,59.9933229368,FEMA4ImagesEEG,001,100287,
AFNE01.JPG,AFNE01.JPG,AFNE01.JPG,AFNE01.JPG,AFNE01.JPG,AFNE01.JPG,,,,,,,,,,,,,,,,,3,1,31,8,,,,,,,AFNE13.jpg,AFSA09.jpg,AFSA07.jpg,AFNE02.jpg,AFNE13.jpg,FN,3,num_8,32,num_4,0.50016918988,,,2017_Apr_28_1243,59.9933229368,FEMA4ImagesEEG,001,100287,
AFNE01.JPG,AFNE01.JPG,AFNE01.JPG,AFNE01.JPG,AFNE01.JPG,AFNE01.JPG,,,,,,,,,,,,,,,,,3,2,32,2,,,,,,,AFNE09.jpg,AFSA20.jpg,AFNE19.jpg,AFSA19.jpg,AFSA19.jpg,FS,4,num_4,32,num_2,0.550142584485,,,2017_Apr_28_1243,59.9933229368,FEMA4ImagesEEG,001,100287,
AFNE01.JPG,AFNE01.JPG,AFNE01.JPG,AFNE01.JPG,AFNE01.JPG,AFNE01.JPG,,,,,,,,,,,,,,,,,3,3,33,0,,,,,,,AFNE18.jpg,AFSA05.jpg,AFNE07.jpg,AFSA03.jpg,AFNE07.jpg,FN,3,num_2,32,num_6,0.567034950014,,,2017_Apr_28_1243,59.9933229368,FEMA4ImagesEEG,001,100287,
AFNE01.JPG,AFNE01.JPG,AFNE01.JPG,AFNE01.JPG,AFNE01.JPG,AFNE01.JPG,,,,,,,,,,,,,,,,,3,4,34,5,,,,,,,AFSA13.jpg,AFNE01.jpg,AFNE13.jpg,AFSA03.jpg,AFSA13.jpg,FS,4,num_8,16,num_8,0.833443079609,,,2017_Apr_28_1243,59.9933229368,FEMA4ImagesEEG,001,100287,
AFNE01.JPG,AFNE01.JPG,AFNE01.JPG,AFNE01.JPG,AFNE01.JPG,AFNE01.JPG,,,,,,,,,,,,,,,,,3,5,35,3,,,,,,,AFSA12.jpg,AFNE02.jpg,AFNE19.jpg,AFSA20.jpg,AFNE19.jpg,FN,3,num_2,16,num_2,0.666788654518,,,2017_Apr_28_1243,59.9933229368,FEMA4ImagesEEG,001,100287,
AFNE01.JPG,AFNE01.JPG,AFNE01.JPG,AFNE01.JPG,AFNE01.JPG,AFNE01.JPG,,,,,,,,,,,,,,,,,3,6,36,9,,,,,,,AFSA11.jpg,AFSA18.jpg,AFNE05.jpg,AFNE01.jpg,AFNE05.jpg,FN,3,num_2,32,num_4,0.900201712735,,,2017_Apr_28_1243,59.9933229368,FEMA4ImagesEEG,001,100287,
AFNE01.JPG,AFNE01.JPG,AFNE01.JPG,AFNE01.JPG,AFNE01.JPG,AFNE01.JPG,,,,,,,,,,,,,,,,,3,7,37,7,,,,,,,AFSA13.jpg,AFNE11.jpg,AFSA07.jpg,AFNE17.jpg,AFNE17.jpg,FN,3,num_4,32,num_8,0.300170408678,,,2017_Apr_28_1243,59.9933229368,FEMA4ImagesEEG,001,100287,
AFNE01.JPG,AFNE01.JPG,AFNE01.JPG,AFNE01.JPG,AFNE01.JPG,AFNE01.JPG,,,,,,,,,,,,,,,,,3,8,38,4,,,,,,,AFNE18.jpg,AFSA05.jpg,AFNE19.jpg,AFSA15.jpg,AFNE18.jpg,FN,3,num_8,16,num_8,0.316810031654,,,2017_Apr_28_1243,59.9933229368,FEMA4ImagesEEG,001,100287,
AFNE01.JPG,AFNE01.JPG,AFNE01.JPG,AFNE01.JPG,AFNE01.JPG,AFNE01.JPG,,,,,,,,,,,,,,,,,3,9,39,1,,,,,,,AFSA02.jpg,AFNE06.jpg,AFNE07.jpg,AFSA12.jpg,AFSA12.jpg,FS,4,num_4,32,num_2,0.616822636803,,,2017_Apr_28_1243,59.9933229368,FEMA4ImagesEEG,001,100287,
AFNE01.JPG,AFNE01.JPG,AFNE01.JPG,AFNE01.JPG,AFNE01.JPG,AFNE01.JPG,,,,,,,,,,,,,,,,,4,0,40,4,,,,,,,AFNE16.jpg,AFNE11.jpg,AFSA19.jpg,AFSA20.jpg,AFSA19.jpg,FS,4,num_2,32,num_6,0.783536077826,,,2017_Apr_28_1243,59.9933229368,FEMA4ImagesEEG,001,100287,
AFNE01.JPG,AFNE01.JPG,AFNE01.JPG,AFNE01.JPG,AFNE01.JPG,AFNE01.JPG,,,,,,,,,,,,,,,,,4,1,41,5,,,,,,,AFSA14.jpg,AFNE10.jpg,AFNE17.jpg,AFSA18.jpg,AFSA18.jpg,FS,4,num_4,32,num_2,0.500305183232,,,2017_Apr_28_1243,59.9933229368,FEMA4ImagesEEG,001,100287,
AFNE01.JPG,AFNE01.JPG,AFNE01.JPG,AFNE01.JPG,AFNE01.JPG,AFNE01.JPG,,,,,,,,,,,,,,,,,4,2,42,8,,,,,,,AFNE11.jpg,AFSA20.jpg,AFSA08.jpg,AFNE16.jpg,AFNE16.jpg,FN,3,num_4,16,num_4,0.500204471173,,,2017_Apr_28_1243,59.9933229368,FEMA4ImagesEEG,001,100287,
AFNE01.JPG,AFNE01.JPG,AFNE01.JPG,AFNE01.JPG,AFNE01.JPG,AFNE01.JPG,,,,,,,,,,,,,,,,,4,3,43,0,,,,,,,AFNE04.jpg,AFSA14.jpg,AFSA04.jpg,AFNE05.jpg,AFSA14.jpg,FS,4,num_6,16,num_6,0.366900816909,,,2017_Apr_28_1243,59.9933229368,FEMA4ImagesEEG,001,100287,
AFNE01.JPG,AFNE01.JPG,AFNE01.JPG,AFNE01.JPG,AFNE01.JPG,AFNE01.JPG,,,,,,,,,,,,,,,,,4,4,44,9,,,,,,,AFNE13.jpg,AFNE04.jpg,AFSA01.jpg,AFSA06.jpg,AFNE13.jpg,FN,3,num_8,32,num_2,0.53345292632,,,2017_Apr_28_1243,59.9933229368,FEMA4ImagesEEG,001,100287,
AFNE01.JPG,AFNE01.JPG,AFNE01.JPG,AFNE01.JPG,AFNE01.JPG,AFNE01.JPG,,,,,,,,,,,,,,,,,4,5,45,1,,,,,,,AFNE16.jpg,AFNE14.jpg,AFSA17.jpg,AFSA16.jpg,AFSA17.jpg,FS,4,num_2,32,num_8,0.500185226905,,,2017_Apr_28_1243,59.9933229368,FEMA4ImagesEEG,001,100287,
AFNE01.JPG,AFNE01.JPG,AFNE01.JPG,AFNE01.JPG,AFNE01.JPG,AFNE01.JPG,,,,,,,,,,,,,,,,,4,6,46,7,,,,,,,AFSA07.jpg,AFNE12.jpg,AFNE03.jpg,AFSA03.jpg,AFNE12.jpg,FN,3,num_6,32,num_4,0.450167249423,,,2017_Apr_28_1243,59.9933229368,FEMA4ImagesEEG,001,100287,
AFNE01.JPG,AFNE01.JPG,AFNE01.JPG,AFNE01.JPG,AFNE01.JPG,AFNE01.JPG,,,,,,,,,,,,,,,,,4,7,47,2,,,,,,,AFSA19.jpg,AFNE20.jpg,AFSA03.jpg,AFNE18.jpg,AFSA19.jpg,FS,4,num_8,32,num_2,0.833494718536,,,2017_Apr_28_1243,59.9933229368,FEMA4ImagesEEG,001,100287,
AFNE01.JPG,AFNE01.JPG,AFNE01.JPG,AFNE01.JPG,AFNE01.JPG,AFNE01.JPG,,,,,,,,,,,,,,,,,4,8,48,6,,,,,,,AFNE13.jpg,AFSA05.jpg,AFSA16.jpg,AFNE06.jpg,AFNE06.jpg,FN,3,num_4,32,num_6,0.367012113449,,,2017_Apr_28_1243,59.9933229368,FEMA4ImagesEEG,001,100287,
AFNE01.JPG,AFNE01.JPG,AFNE01.JPG,AFNE01.JPG,AFNE01.JPG,AFNE01.JPG,,,,,,,,,,,,,,,,,4,9,49,3,,,,,,,AFNE07.jpg,AFNE05.jpg,AFSA15.jpg,AFSA14.jpg,AFNE05.jpg,FN,3,num_6,32,num_8,0.28357665136,,,2017_Apr_28_1243,59.9933229368,FEMA4ImagesEEG,001,100287,
AFNE01.JPG,AFNE01.JPG,AFNE01.JPG,AFNE01.JPG,AFNE01.JPG,AFNE01.JPG,,,,,,,,,,,,,,,,,5,0,50,0,,,,,,,AFSA07.jpg,AFSA12.jpg,AFNE05.jpg,AFNE16.jpg,AFSA07.jpg,FS,4,num_8,32,num_4,0.333493916783,,,2017_Apr_28_1243,59.9933229368,FEMA4ImagesEEG,001,100287,
AFNE01.JPG,AFNE01.JPG,AFNE01.JPG,AFNE01.JPG,AFNE01.JPG,AFNE01.JPG,,,,,,,,,,,,,,,,,5,1,51,7,,,,,,,AFNE07.jpg,AFNE03.jpg,AFSA05.jpg,AFSA01.jpg,AFSA01.jpg,FS,4,num_4,32,num_2,0.500219545909,,,2017_Apr_28_1243,59.9933229368,FEMA4ImagesEEG,001,100287,
AFNE01.JPG,AFNE01.JPG,AFNE01.JPG,AFNE01.JPG,AFNE01.JPG,AFNE01.JPG,,,,,,,,,,,,,,,,,5,2,52,1,,,,,,,AFNE16.jpg,AFNE12.jpg,AFSA18.jpg,AFSA09.jpg,AFSA18.jpg,FS,4,num_2,32,num_6,0.333454786567,,,2017_Apr_28_1243,59.9933229368,FEMA4ImagesEEG,001,100287,
AFNE01.JPG,AFNE01.JPG,AFNE01.JPG,AFNE01.JPG,AFNE01.JPG,AFNE01.JPG,,,,,,,,,,,,,,,,,5,3,53,6,,,,,,,AFSA07.jpg,AFNE10.jpg,AFNE07.jpg,AFSA14.jpg,AFNE10.jpg,FN,3,num_6,32,num_8,0.600153185078,,,2017_Apr_28_1243,59.9933229368,FEMA4ImagesEEG,001,100287,
AFNE01.JPG,AFNE01.JPG,AFNE01.JPG,AFNE01.JPG,AFNE01.JPG,AFNE01.JPG,,,,,,,,,,,,,,,,,5,4,54,2,,,,,,,AFNE16.jpg,AFSA02.jpg,AFSA20.jpg,AFNE13.jpg,AFNE13.jpg,FN,3,num_4,16,num_4,0.316832804121,,,2017_Apr_28_1243,59.9933229368,FEMA4ImagesEEG,001,100287,
AFNE01.JPG,AFNE01.JPG,AFNE01.JPG,AFNE01.JPG,AFNE01.JPG,AFNE01.JPG,,,,,,,,,,,,,,,,,5,5,55,4,,,,,,,AFSA17.jpg,AFSA13.jpg,AFNE16.jpg,AFNE11.jpg,AFSA13.jpg,FS,4,num_6,32,num_2,0.500183302327,,,2017_Apr_28_1243,59.9933229368,FEMA4ImagesEEG,001,100287,
AFNE01.JPG,AFNE01.JPG,AFNE01.JPG,AFNE01.JPG,AFNE01.JPG,AFNE01.JPG,,,,,,,,,,,,,,,,,5,6,56,9,,,,,,,AFNE07.jpg,AFSA11.jpg,AFSA20.jpg,AFNE14.jpg,AFNE07.jpg,FN,3,num_8,32,num_6,0.416719936067,,,2017_Apr_28_1243,59.9933229368,FEMA4ImagesEEG,001,100287,
AFNE01.JPG,AFNE01.JPG,AFNE01.JPG,AFNE01.JPG,AFNE01.JPG,AFNE01.JPG,,,,,,,,,,,,,,,,,5,7,57,3,,,,,,,AFNE16.jpg,AFSA03.jpg,AFSA12.jpg,AFNE17.jpg,AFNE17.jpg,FN,3,num_4,32,num_8,0.350137709291,,,2017_Apr_28_1243,59.9933229368,FEMA4ImagesEEG,001,100287,
AFNE01.JPG,AFNE01.JPG,AFNE01.JPG,AFNE01.JPG,AFNE01.JPG,AFNE01.JPG,,,,,,,,,,,,,,,,,5,8,58,8,,,,,,,AFNE15.jpg,AFSA09.jpg,AFNE16.jpg,AFSA13.jpg,AFSA13.jpg,FS,4,num_4,16,num_4,0.350168821053,,,2017_Apr_28_1243,59.9933229368,FEMA4ImagesEEG,001,100287,
AFNE01.JPG,AFNE01.JPG,AFNE01.JPG,AFNE01.JPG,AFNE01.JPG,AFNE01.JPG,,,,,,,,,,,,,,,,,5,9,59,5,,,,,,,AFNE09.jpg,AFSA17.jpg,AFNE04.jpg,AFSA12.jpg,AFNE09.jpg,FN,3,num_8,16,num_8,0.55019261979,,,2017_Apr_28_1243,59.9933229368,FEMA4ImagesEEG,001,100287,
,,,,,,,,,,,,,,,,,,,,,,,,,,,,,,,,,,,,,,,,,,,space,13.7657254365,2017_Apr_28_1243,59.9933229368,FEMA4ImagesEEG,001,100287,
AFNE01.JPG,AFNE01.JPG,AFNE01.JPG,AFNE01.JPG,AFNE01.JPG,AFNE01.JPG,,,,,,,,,,,,,,,,,,,,,0,0,0,6,,,AMSA02.jpg,AMSA16.jpg,AMNE16.jpg,AMNE20.jpg,AMSA16.jpg,MS,2,num_6,32,num_2,0.300228462438,,,2017_Apr_28_1243,59.9933229368,FEMA4ImagesEEG,001,100287,
AFNE01.JPG,AFNE01.JPG,AFNE01.JPG,AFNE01.JPG,AFNE01.JPG,AFNE01.JPG,,,,,,,,,,,,,,,,,,,,,0,1,1,9,,,AMSA20.jpg,AMSA05.jpg,AMNE15.jpg,AMNE13.jpg,AMSA20.jpg,MS,2,num_8,32,num_4,0.250156280119,,,2017_Apr_28_1243,59.9933229368,FEMA4ImagesEEG,001,100287,
AFNE01.JPG,AFNE01.JPG,AFNE01.JPG,AFNE01.JPG,AFNE01.JPG,AFNE01.JPG,,,,,,,,,,,,,,,,,,,,,0,2,2,8,,,AMNE13.jpg,AMNE19.jpg,AMSA01.jpg,AMSA06.jpg,AMSA01.jpg,MS,2,num_2,32,num_6,0.250141205383,,,2017_Apr_28_1243,59.9933229368,FEMA4ImagesEEG,001,100287,
AFNE01.JPG,AFNE01.JPG,AFNE01.JPG,AFNE01.JPG,AFNE01.JPG,AFNE01.JPG,,,,,,,,,,,,,,,,,,,,,0,3,3,2,,,AMSA03.jpg,AMNE18.jpg,AMNE01.jpg,AMSA14.jpg,AMSA14.jpg,MS,2,num_4,32,num_8,0.0335156307556,,,2017_Apr_28_1243,59.9933229368,FEMA4ImagesEEG,001,100287,
AFNE01.JPG,AFNE01.JPG,AFNE01.JPG,AFNE01.JPG,AFNE01.JPG,AFNE01.JPG,,,,,,,,,,,,,,,,,,,,,0,4,4,0,,,AMNE03.jpg,AMNE18.jpg,AMSA06.jpg,AMSA11.jpg,AMSA06.jpg,MS,2,num_2,16,num_2,0.533472491428,,,2017_Apr_28_1243,59.9933229368,FEMA4ImagesEEG,001,100287,
AFNE01.JPG,AFNE01.JPG,AFNE01.JPG,AFNE01.JPG,AFNE01.JPG,AFNE01.JPG,,,,,,,,,,,,,,,,,,,,,0,5,5,1,,,AMNE16.jpg,AMNE11.jpg,AMSA11.jpg,AMSA01.jpg,AMNE11.jpg,MN,1,num_6,32,num_4,0.300343287061,,,2017_Apr_28_1243,59.9933229368,FEMA4ImagesEEG,001,100287,
AFNE01.JPG,AFNE01.JPG,AFNE01.JPG,AFNE01.JPG,AFNE01.JPG,AFNE01.JPG,,,,,,,,,,,,,,,,,,,,,0,6,6,5,,,AMNE20.jpg,AMSA17.jpg,AMSA09.jpg,AMNE15.jpg,AMSA09.jpg,MS,2,num_2,32,num_8,0.400139329024,,,2017_Apr_28_1243,59.9933229368,FEMA4ImagesEEG,001,100287,
AFNE01.JPG,AFNE01.JPG,AFNE01.JPG,AFNE01.JPG,AFNE01.JPG,AFNE01.JPG,,,,,,,,,,,,,,,,,,,,,0,7,7,4,,,AMSA06.jpg,AMNE08.jpg,AMSA19.jpg,AMNE13.jpg,AMNE13.jpg,MN,1,num_4,32,num_2,0.350104673184,,,2017_Apr_28_1243,59.9933229368,FEMA4ImagesEEG,001,100287,
AFNE01.JPG,AFNE01.JPG,AFNE01.JPG,AFNE01.JPG,AFNE01.JPG,AFNE01.JPG,,,,,,,,,,,,,,,,,,,,,0,8,8,3,,,AMSA17.jpg,AMNE02.jpg,AMSA09.jpg,AMNE05.jpg,AMSA09.jpg,MS,2,num_2,32,num_6,0.416796592646,,,2017_Apr_28_1243,59.9933229368,FEMA4ImagesEEG,001,100287,
AFNE01.JPG,AFNE01.JPG,AFNE01.JPG,AFNE01.JPG,AFNE01.JPG,AFNE01.JPG,,,,,,,,,,,,,,,,,,,,,0,9,9,7,,,AMSA03.jpg,AMSA14.jpg,AMNE12.jpg,AMNE08.jpg,AMSA03.jpg,MS,2,num_8,32,num_4,0.383493611938,,,2017_Apr_28_1243,59.9933229368,FEMA4ImagesEEG,001,100287,
AFNE01.JPG,AFNE01.JPG,AFNE01.JPG,AFNE01.JPG,AFNE01.JPG,AFNE01.JPG,,,,,,,,,,,,,,,,,,,,,1,0,10,0,,,AMNE07.jpg,AMSA01.jpg,AMNE16.jpg,AMSA20.jpg,AMSA01.jpg,MS,2,num_6,32,num_8,0.30018259678,,,2017_Apr_28_1243,59.9933229368,FEMA4ImagesEEG,001,100287,
AFNE01.JPG,AFNE01.JPG,AFNE01.JPG,AFNE01.JPG,AFNE01.JPG,AFNE01.JPG,,,,,,,,,,,,,,,,,,,,,1,1,11,4,,,AMNE19.jpg,AMNE16.jpg,AMSA19.jpg,AMSA02.jpg,AMSA02.jpg,MS,2,num_4,32,num_6,0.35019415943,,,2017_Apr_28_1243,59.9933229368,FEMA4ImagesEEG,001,100287,
AFNE01.JPG,AFNE01.JPG,AFNE01.JPG,AFNE01.JPG,AFNE01.JPG,AFNE01.JPG,,,,,,,,,,,,,,,,,,,,,1,2,12,2,,,AMNE01.jpg,AMSA16.jpg,AMSA15.jpg,AMNE08.jpg,AMSA16.jpg,MS,2,num_6,32,num_2,0.383478858043,,,2017_Apr_28_1243,59.9933229368,FEMA4ImagesEEG,001,100287,
AFNE01.JPG,AFNE01.JPG,AFNE01.JPG,AFNE01.JPG,AFNE01.JPG,AFNE01.JPG,,,,,,,,,,,,,,,,,,,,,1,3,13,8,,,AMNE20.jpg,AMNE15.jpg,AMSA16.jpg,AMSA12.jpg,AMNE20.jpg,MN,1,num_8,32,num_4,0.383493611938,,,2017_Apr_28_1243,59.9933229368,FEMA4ImagesEEG,001,100287,
AFNE01.JPG,AFNE01.JPG,AFNE01.JPG,AFNE01.JPG,AFNE01.JPG,AFNE01.JPG,,,,,,,,,,,,,,,,,,,,,1,4,14,1,,,AMSA18.jpg,AMSA07.jpg,AMNE06.jpg,AMNE08.jpg,AMSA18.jpg,MS,2,num_8,16,num_8,0.316808428033,,,2017_Apr_28_1243,59.9933229368,FEMA4ImagesEEG,001,100287,
AFNE01.JPG,AFNE01.JPG,AFNE01.JPG,AFNE01.JPG,AFNE01.JPG,AFNE01.JPG,,,,,,,,,,,,,,,,,,,,,1,5,15,3,,,AMSA08.jpg,AMSA14.jpg,AMNE02.jpg,AMNE18.jpg,AMSA14.jpg,MS,2,num_6,32,num_4,1.40006812499,,,2017_Apr_28_1243,59.9933229368,FEMA4ImagesEEG,001,100287,
AFNE01.JPG,AFNE01.JPG,AFNE01.JPG,AFNE01.JPG,AFNE01.JPG,AFNE01.JPG,,,,,,,,,,,,,,,,,,,,,1,6,16,5,,,AMSA18.jpg,AMNE18.jpg,AMNE11.jpg,AMSA02.jpg,AMNE11.jpg,MN,1,num_2,32,num_6,1.13304962893,,,2017_Apr_28_1243,59.9933229368,FEMA4ImagesEEG,001,100287,
AFNE01.JPG,AFNE01.JPG,AFNE01.JPG,AFNE01.JPG,AFNE01.JPG,AFNE01.JPG,,,,,,,,,,,,,,,,,,,,,1,7,17,7,,,AMSA18.jpg,AMSA13.jpg,AMNE05.jpg,AMNE12.jpg,AMSA13.jpg,MS,2,num_6,32,num_8,0.850137548987,,,2017_Apr_28_1243,59.9933229368,FEMA4ImagesEEG,001,100287,
AFNE01.JPG,AFNE01.JPG,AFNE01.JPG,AFNE01.JPG,AFNE01.JPG,AFNE01.JPG,,,,,,,,,,,,,,,,,,,,,1,8,18,9,,,AMNE02.jpg,AMSA11.jpg,AMSA03.jpg,AMNE15.jpg,AMNE15.jpg,MN,1,num_4,32,num_2,0.333477559034,,,2017_Apr_28_1243,59.9933229368,FEMA4ImagesEEG,001,100287,
AFNE01.JPG,AFNE01.JPG,AFNE01.JPG,AFNE01.JPG,AFNE01.JPG,AFNE01.JPG,,,,,,,,,,,,,,,,,,,,,1,9,19,6,,,AMSA17.jpg,AMNE02.jpg,AMNE06.jpg,AMSA15.jpg,AMSA17.jpg,MS,2,num_8,32,num_4,0.383517025854,,,2017_Apr_28_1243,59.9933229368,FEMA4ImagesEEG,001,100287,
AFNE01.JPG,AFNE01.JPG,AFNE01.JPG,AFNE01.JPG,AFNE01.JPG,AFNE01.JPG,,,,,,,,,,,,,,,,,,,,,2,0,20,2,,,AMNE05.jpg,AMSA02.jpg,AMNE20.jpg,AMSA18.jpg,AMNE20.jpg,MN,1,num_2,32,num_8,0.350210517063,,,2017_Apr_28_1243,59.9933229368,FEMA4ImagesEEG,001,100287,
AFNE01.JPG,AFNE01.JPG,AFNE01.JPG,AFNE01.JPG,AFNE01.JPG,AFNE01.JPG,,,,,,,,,,,,,,,,,,,,,2,1,21,4,,,AMNE09.jpg,AMSA05.jpg,AMNE14.jpg,AMSA03.jpg,AMSA03.jpg,MS,2,num_4,32,num_6,0.400127461646,,,2017_Apr_28_1243,59.9933229368,FEMA4ImagesEEG,001,100287,
AFNE01.JPG,AFNE01.JPG,AFNE01.JPG,AFNE01.JPG,AFNE01.JPG,AFNE01.JPG,,,,,,,,,,,,,,,,,,,,,2,2,22,9,,,AMSA16.jpg,AMNE18.jpg,AMSA15.jpg,AMNE20.jpg,AMNE18.jpg,MN,1,num_6,32,num_2,0.566777396598,,,2017_Apr_28_1243,59.9933229368,FEMA4ImagesEEG,001,100287,
AFNE01.JPG,AFNE01.JPG,AFNE01.JPG,AFNE01.JPG,AFNE01.JPG,AFNE01.JPG,,,,,,,,,,,,,,,,,,,,,2,3,23,3,,,AMSA08.jpg,AMNE03.jpg,AMNE20.jpg,AMSA19.jpg,AMSA08.jpg,MS,2,num_8,16,num_8,0.336471979041,,,2017_Apr_28_1243,59.9933229368,FEMA4ImagesEEG,001,100287,
AFNE01.JPG,AFNE01.JPG,AFNE01.JPG,AFNE01.JPG,AFNE01.JPG,AFNE01.JPG,,,,,,,,,,,,,,,,,,,,,2,4,24,1,,,AMSA18.jpg,AMSA16.jpg,AMNE01.jpg,AMNE16.jpg,AMSA18.jpg,MS,2,num_8,32,num_4,0.733444009675,,,2017_Apr_28_1243,59.9933229368,FEMA4ImagesEEG,001,100287,
AFNE01.JPG,AFNE01.JPG,AFNE01.JPG,AFNE01.JPG,AFNE01.JPG,AFNE01.JPG,,,,,,,,,,,,,,,,,,,,,2,5,25,8,,,AMNE07.jpg,AMSA18.jpg,AMNE02.jpg,AMSA08.jpg,AMSA08.jpg,MS,2,num_4,32,num_6,0.433533399715,,,2017_Apr_28_1243,59.9933229368,FEMA4ImagesEEG,001,100287,
AFNE01.JPG,AFNE01.JPG,AFNE01.JPG,AFNE01.JPG,AFNE01.JPG,AFNE01.JPG,,,,,,,,,,,,,,,,,,,,,2,6,26,7,,,AMSA17.jpg,AMNE18.jpg,AMNE02.jpg,AMSA07.jpg,AMSA17.jpg,MS,2,num_8,16,num_8,0.916764037684,,,2017_Apr_28_1243,59.9933229368,FEMA4ImagesEEG,001,100287,
AFNE01.JPG,AFNE01.JPG,AFNE01.JPG,AFNE01.JPG,AFNE01.JPG,AFNE01.JPG,,,,,,,,,,,,,,,,,,,,,2,7,27,6,,,AMNE01.jpg,AMSA13.jpg,AMSA01.jpg,AMNE15.jpg,AMNE15.jpg,MN,1,num_4,32,num_2,1.08344187681,,,2017_Apr_28_1243,59.9933229368,FEMA4ImagesEEG,001,100287,
AFNE01.JPG,AFNE01.JPG,AFNE01.JPG,AFNE01.JPG,AFNE01.JPG,AFNE01.JPG,,,,,,,,,,,,,,,,,,,,,2,8,28,0,,,AMSA09.jpg,AMSA04.jpg,AMNE11.jpg,AMNE16.jpg,AMSA04.jpg,MS,2,num_6,32,num_4,0.599856822053,,,2017_Apr_28_1243,59.9933229368,FEMA4ImagesEEG,001,100287,
AFNE01.JPG,AFNE01.JPG,AFNE01.JPG,AFNE01.JPG,AFNE01.JPG,AFNE01.JPG,,,,,,,,,,,,,,,,,,,,,2,9,29,5,,,AMSA07.jpg,AMNE08.jpg,AMNE09.jpg,AMSA16.jpg,AMNE08.jpg,MN,1,num_6,32,num_8,0.466830607154,,,2017_Apr_28_1243,59.9933229368,FEMA4ImagesEEG,001,100287,
AFNE01.JPG,AFNE01.JPG,AFNE01.JPG,AFNE01.JPG,AFNE01.JPG,AFNE01.JPG,,,,,,,,,,,,,,,,,,,,,3,0,30,3,,,AMSA14.jpg,AMNE14.jpg,AMNE18.jpg,AMSA07.jpg,AMSA14.jpg,MS,2,num_8,32,num_6,0.43349875987,,,2017_Apr_28_1243,59.9933229368,FEMA4ImagesEEG,001,100287,
AFNE01.JPG,AFNE01.JPG,AFNE01.JPG,AFNE01.JPG,AFNE01.JPG,AFNE01.JPG,,,,,,,,,,,,,,,,,,,,,3,1,31,9,,,AMNE12.jpg,AMSA06.jpg,AMSA14.jpg,AMNE08.jpg,AMNE12.jpg,MN,1,num_8,32,num_2,0.73343599122,,,2017_Apr_28_1243,59.9933229368,FEMA4ImagesEEG,001,100287,
AFNE01.JPG,AFNE01.JPG,AFNE01.JPG,AFNE01.JPG,AFNE01.JPG,AFNE01.JPG,,,,,,,,,,,,,,,,,,,,,3,2,32,2,,,AMNE10.jpg,AMNE03.jpg,AMSA17.jpg,AMSA03.jpg,AMNE10.jpg,MN,1,num_8,32,num_4,0.350145407137,,,2017_Apr_28_1243,59.9933229368,FEMA4ImagesEEG,001,100287,
AFNE01.JPG,AFNE01.JPG,AFNE01.JPG,AFNE01.JPG,AFNE01.JPG,AFNE01.JPG,,,,,,,,,,,,,,,,,,,,,3,3,33,6,,,AMNE13.jpg,AMNE01.jpg,AMSA08.jpg,AMSA12.jpg,AMNE13.jpg,MN,1,num_8,16,num_8,0.41680044157,,,2017_Apr_28_1243,59.9933229368,FEMA4ImagesEEG,001,100287,
AFNE01.JPG,AFNE01.JPG,AFNE01.JPG,AFNE01.JPG,AFNE01.JPG,AFNE01.JPG,,,,,,,,,,,,,,,,,,,,,3,4,34,8,,,AMSA18.jpg,AMSA15.jpg,AMNE12.jpg,AMNE07.jpg,AMSA18.jpg,MS,2,num_8,32,num_6,0.750047710026,,,2017_Apr_28_1243,59.9933229368,FEMA4ImagesEEG,001,100287,
AFNE01.JPG,AFNE01.JPG,AFNE01.JPG,AFNE01.JPG,AFNE01.JPG,AFNE01.JPG,,,,,,,,,,,,,,,,,,,,,3,5,35,1,,,AMNE14.jpg,AMNE03.jpg,AMSA03.jpg,AMSA13.jpg,AMNE03.jpg,MN,1,num_6,32,num_2,0.833508189535,,,2017_Apr_28_1243,59.9933229368,FEMA4ImagesEEG,001,100287,
AFNE01.JPG,AFNE01.JPG,AFNE01.JPG,AFNE01.JPG,AFNE01.JPG,AFNE01.JPG,,,,,,,,,,,,,,,,,,,,,3,6,36,0,,,AMSA02.jpg,AMSA06.jpg,AMNE03.jpg,AMNE07.jpg,AMNE03.jpg,MN,1,num_2,32,num_4,0.333473389503,,,2017_Apr_28_1243,59.9933229368,FEMA4ImagesEEG,001,100287,
AFNE01.JPG,AFNE01.JPG,AFNE01.JPG,AFNE01.JPG,AFNE01.JPG,AFNE01.JPG,,,,,,,,,,,,,,,,,,,,,3,7,37,4,,,AMSA07.jpg,AMSA12.jpg,AMNE05.jpg,AMNE20.jpg,AMSA07.jpg,MS,2,num_8,16,num_8,0.36680748174,,,2017_Apr_28_1243,59.9933229368,FEMA4ImagesEEG,001,100287,
AFNE01.JPG,AFNE01.JPG,AFNE01.JPG,AFNE01.JPG,AFNE01.JPG,AFNE01.JPG,,,,,,,,,,,,,,,,,,,,,3,8,38,7,,,AMNE20.jpg,AMSA20.jpg,AMNE08.jpg,AMSA10.jpg,AMSA10.jpg,MS,2,num_4,32,num_6,0.366792086395,,,2017_Apr_28_1243,59.9933229368,FEMA4ImagesEEG,001,100287,
