IPosition2,IPosition3,IPosition1,IPosition6,IPosition4,IPosition5,TrialsM1.thisRepN,TrialsM1.thisTrialN,TrialsM1.thisN,TrialsM1.thisIndex,TrialsF1.thisRepN,TrialsF1.thisTrialN,TrialsF1.thisN,TrialsF1.thisIndex,TrialsM2.thisRepN,TrialsM2.thisTrialN,TrialsM2.thisN,TrialsM2.thisIndex,TrialsF2.thisRepN,TrialsF2.thisTrialN,TrialsF2.thisN,TrialsF2.thisIndex,TrialsM3.thisRepN,TrialsM3.thisTrialN,TrialsM3.thisN,TrialsM3.thisIndex,TrialsF3.thisRepN,TrialsF3.thisTrialN,TrialsF3.thisN,TrialsF3.thisIndex,InstrKey_resp.keys,InstrKey_resp.rt,Image0 _Position,Image1 _Position,Image2 _Position,Image3 _Position,Center_image,condition,code,correct_answer,accuracy,Key_Resp.keys,Key_Resp.rt,BreakKey_resp.keys,BreakKey_resp.rt,date,frameRate,expName,session,participant,
,,,,,,,,,,,,,,,,,,,,,,,,,,,,,,space,107.608357049,,,,,,,,,,,,,,2017_May_02_1203,59.9944773092,MAFE4ImagesEEG,001,100341,
AFSA21.JPG,AFNE23.JPG,AFNE21.JPG,AFSA25.JPG,AFNE25.JPG,AFSA23.JPG,0,0,0,4,,,,,,,,,,,,,,,,,,,,,,,AMSA01.jpg,AMSA08.jpg,AMNE15.jpg,AMNE12.jpg,AMNE15.jpg,MN,1,num_2,32,num_6,1.46704261564,,,2017_May_02_1203,59.9944773092,MAFE4ImagesEEG,001,100341,
AMNE23.JPG,AMNE24.JPG,AMNE22.JPG,AMSA24.JPG,AMSA22.JPG,AMSA23.JPG,0,1,1,9,,,,,,,,,,,,,,,,,,,,,,,AMSA15.jpg,AMNE13.jpg,AMNE07.jpg,AMSA18.jpg,AMSA18.jpg,MS,2,num_4,32,num_8,0.900193052832,,,2017_May_02_1203,59.9944773092,MAFE4ImagesEEG,001,100341,
AFNE22.JPG,AFSA24.JPG,AFSA22.JPG,AFNE25.JPG,AFNE24.JPG,AFSA25.JPG,0,2,2,6,,,,,,,,,,,,,,,,,,,,,,,AMSA14.jpg,AMSA19.jpg,AMNE17.jpg,AMNE13.jpg,AMNE17.jpg,MN,1,num_2,32,num_6,1.9499108186,,,2017_May_02_1203,59.9944773092,MAFE4ImagesEEG,001,100341,
AMNE22.JPG,AMSA24.JPG,AMSA22.JPG,AMNE25.JPG,AMNE24.JPG,AMSA25.JPG,0,3,3,7,,,,,,,,,,,,,,,,,,,,,,,AMSA03.jpg,AMNE11.jpg,AMSA08.jpg,AMNE04.jpg,AMSA08.jpg,MS,2,num_2,32,num_8,1.65000886843,,,2017_May_02_1203,59.9944773092,MAFE4ImagesEEG,001,100341,
AMSA21.JPG,AMNE23.JPG,AMNE21.JPG,AMSA25.JPG,AMNE25.JPG,AMSA23.JPG,0,4,4,5,,,,,,,,,,,,,,,,,,,,,,,AMNE02.jpg,AMSA01.jpg,AMNE09.jpg,AMSA05.jpg,AMNE09.jpg,MN,1,num_2,16,num_2,1.56674660533,,,2017_May_02_1203,59.9944773092,MAFE4ImagesEEG,001,100341,
AFSA21.JPG,AFNE22.JPG,AFNE21.JPG,AFSA23.JPG,AFSA22.JPG,AFNE23.JPG,0,5,5,0,,,,,,,,,,,,,,,,,,,,,,,AMSA03.jpg,AMSA05.jpg,AMNE05.jpg,AMNE14.jpg,AMSA03.jpg,MS,2,num_8,16,num_8,0.966750261839,,,2017_May_02_1203,59.9944773092,MAFE4ImagesEEG,001,100341,
AFSA25.JPG,AFNE24.JPG,AFSA24.JPG,AFNE21.JPG,AFSA21.JPG,AFNE25.JPG,0,6,6,2,,,,,,,,,,,,,,,,,,,,,,,AMNE04.jpg,AMNE19.jpg,AMSA16.jpg,AMSA07.jpg,AMNE19.jpg,MN,1,num_6,16,num_6,1.89996532816,,,2017_May_02_1203,59.9944773092,MAFE4ImagesEEG,001,100341,
AMSA25.JPG,AMNE24.JPG,AMSA24.JPG,AMNE26.JPG,AMSA21.JPG,AMNE25.JPG,0,7,7,3,,,,,,,,,,,,,,,,,,,,,,,AMNE03.jpg,AMSA06.jpg,AMNE19.jpg,AMSA19.jpg,AMSA19.jpg,MS,2,num_4,32,num_6,1.01645263215,,,2017_May_02_1203,59.9944773092,MAFE4ImagesEEG,001,100341,
AFNE23.JPG,AFNE24.JPG,AFNE22.JPG,AFSA24.JPG,AFSA22.JPG,AFSA23.JPG,0,8,8,8,,,,,,,,,,,,,,,,,,,,,,,AMNE16.jpg,AMSA12.jpg,AMNE20.jpg,AMSA03.jpg,AMNE16.jpg,MN,1,num_8,16,num_8,1.01677048462,,,2017_May_02_1203,59.9944773092,MAFE4ImagesEEG,001,100341,
AMSA21.JPG,AMNE22.JPG,AMNE21.JPG,AMSA23.JPG,AMSA22.JPG,AMNE23.JPG,0,9,9,1,,,,,,,,,,,,,,,,,,,,,,,AMSA01.jpg,AMNE16.jpg,AMSA08.jpg,AMNE09.jpg,AMSA08.jpg,MS,2,num_2,16,num_2,1.65005152673,,,2017_May_02_1203,59.9944773092,MAFE4ImagesEEG,001,100341,
AMNE23.JPG,AMNE24.JPG,AMNE22.JPG,AMSA24.JPG,AMSA22.JPG,AMSA23.JPG,,,,,0,0,0,9,,,,,,,,,,,,,,,,,,,AFSA02.jpg,AFNE08.jpg,AFNE15.jpg,AFSA04.jpg,AFSA02.jpg,FS,4,num_8,32,num_6,1.6667103942,,,2017_May_02_1203,59.9944773092,MAFE4ImagesEEG,001,100341,
AMSA25.JPG,AMNE24.JPG,AMSA24.JPG,AMNE26.JPG,AMSA21.JPG,AMNE25.JPG,,,,,0,1,1,3,,,,,,,,,,,,,,,,,,,AFNE06.jpg,AFSA15.jpg,AFSA09.jpg,AFNE09.jpg,AFSA15.jpg,FS,4,num_6,32,num_4,1.60006947187,,,2017_May_02_1203,59.9944773092,MAFE4ImagesEEG,001,100341,
AMNE22.JPG,AMSA24.JPG,AMSA22.JPG,AMNE25.JPG,AMNE24.JPG,AMSA25.JPG,,,,,0,2,2,7,,,,,,,,,,,,,,,,,,,AFSA18.jpg,AFNE06.jpg,AFNE08.jpg,AFSA20.jpg,AFNE08.jpg,FN,3,num_2,16,num_2,1.20009147469,,,2017_May_02_1203,59.9944773092,MAFE4ImagesEEG,001,100341,
AFNE22.JPG,AFSA24.JPG,AFSA22.JPG,AFNE25.JPG,AFNE24.JPG,AFSA25.JPG,,,,,0,3,3,6,,,,,,,,,,,,,,,,,,,AFSA12.jpg,AFNE08.jpg,AFNE15.jpg,AFSA01.jpg,AFNE15.jpg,FN,3,num_2,32,num_8,2.73333271313,,,2017_May_02_1203,59.9944773092,MAFE4ImagesEEG,001,100341,
AMSA21.JPG,AMNE22.JPG,AMNE21.JPG,AMSA23.JPG,AMSA22.JPG,AMNE23.JPG,,,,,0,4,4,1,,,,,,,,,,,,,,,,,,,AFSA19.jpg,AFNE15.jpg,AFNE13.jpg,AFSA18.jpg,AFNE15.jpg,FN,3,num_6,16,num_6,0.883444699459,,,2017_May_02_1203,59.9944773092,MAFE4ImagesEEG,001,100341,
AFNE23.JPG,AFNE24.JPG,AFNE22.JPG,AFSA24.JPG,AFSA22.JPG,AFSA23.JPG,,,,,0,5,5,8,,,,,,,,,,,,,,,,,,,AFNE15.jpg,AFNE11.jpg,AFSA01.jpg,AFSA15.jpg,AFSA01.jpg,FS,4,num_2,16,num_2,3.28328092978,,,2017_May_02_1203,59.9944773092,MAFE4ImagesEEG,001,100341,
AFSA21.JPG,AFNE23.JPG,AFNE21.JPG,AFSA25.JPG,AFNE25.JPG,AFSA23.JPG,,,,,0,6,6,4,,,,,,,,,,,,,,,,,,,AFSA13.jpg,AFNE02.jpg,AFSA08.jpg,AFNE01.jpg,AFSA13.jpg,FS,4,num_8,16,num_8,1.13329756027,,,2017_May_02_1203,59.9944773092,MAFE4ImagesEEG,001,100341,
AFSA21.JPG,AFNE22.JPG,AFNE21.JPG,AFSA23.JPG,AFSA22.JPG,AFNE23.JPG,,,,,0,7,7,0,,,,,,,,,,,,,,,,,,,AFNE15.jpg,AFNE04.jpg,AFSA20.jpg,AFSA11.jpg,AFNE15.jpg,FN,3,num_8,16,num_8,0.833479964407,,,2017_May_02_1203,59.9944773092,MAFE4ImagesEEG,001,100341,
AMSA21.JPG,AMNE23.JPG,AMNE21.JPG,AMSA25.JPG,AMNE25.JPG,AMSA23.JPG,,,,,0,8,8,5,,,,,,,,,,,,,,,,,,,AFSA11.jpg,AFNE05.jpg,AFSA02.jpg,AFNE06.jpg,AFNE05.jpg,FN,3,num_6,32,num_2,2.56664204458,,,2017_May_02_1203,59.9944773092,MAFE4ImagesEEG,001,100341,
AFSA25.JPG,AFNE24.JPG,AFSA24.JPG,AFNE21.JPG,AFSA21.JPG,AFNE25.JPG,,,,,0,9,9,2,,,,,,,,,,,,,,,,,,,AFNE15.jpg,AFSA19.jpg,AFSA20.jpg,AFNE08.jpg,AFNE08.jpg,FN,3,num_4,32,num_2,2.95000447426,,,2017_May_02_1203,59.9944773092,MAFE4ImagesEEG,001,100341,
AFSA25.JPG,AFNE24.JPG,AFSA24.JPG,AFNE21.JPG,AFSA21.JPG,AFNE25.JPG,,,,,,,,,0,0,0,2,,,,,,,,,,,,,,,AMSA15.jpg,AMSA06.jpg,AMNE18.jpg,AMNE02.jpg,AMSA06.jpg,MS,2,num_6,16,num_6,0.8001243826,,,2017_May_02_1203,59.9944773092,MAFE4ImagesEEG,001,100341,
AFNE22.JPG,AFSA24.JPG,AFSA22.JPG,AFNE25.JPG,AFNE24.JPG,AFSA25.JPG,,,,,,,,,0,1,1,6,,,,,,,,,,,,,,,AMNE04.jpg,AMSA08.jpg,AMSA10.jpg,AMNE06.jpg,AMSA08.jpg,MS,2,num_6,32,num_8,1.45010695048,,,2017_May_02_1203,59.9944773092,MAFE4ImagesEEG,001,100341,
AFNE23.JPG,AFNE24.JPG,AFNE22.JPG,AFSA24.JPG,AFSA22.JPG,AFSA23.JPG,,,,,,,,,0,2,2,8,,,,,,,,,,,,,,,AMSA04.jpg,AMSA18.jpg,AMNE12.jpg,AMNE06.jpg,AMNE06.jpg,MN,1,num_4,16,num_4,1.86667453567,,,2017_May_02_1203,59.9944773092,MAFE4ImagesEEG,001,100341,
AFSA21.JPG,AFNE23.JPG,AFNE21.JPG,AFSA25.JPG,AFNE25.JPG,AFSA23.JPG,,,,,,,,,0,3,3,4,,,,,,,,,,,,,,,AMSA19.jpg,AMNE17.jpg,AMNE02.jpg,AMSA06.jpg,AMNE17.jpg,MN,1,num_6,16,num_6,0.700143915601,,,2017_May_02_1203,59.9944773092,MAFE4ImagesEEG,001,100341,
AFSA21.JPG,AFNE22.JPG,AFNE21.JPG,AFSA23.JPG,AFSA22.JPG,AFNE23.JPG,,,,,,,,,0,4,4,0,,,,,,,,,,,,,,,AMNE12.jpg,AMSA04.jpg,AMSA15.jpg,AMNE11.jpg,AMNE11.jpg,MN,1,num_4,32,num_8,1.0167579758,,,2017_May_02_1203,59.9944773092,MAFE4ImagesEEG,001,100341,
AMSA21.JPG,AMNE23.JPG,AMNE21.JPG,AMSA25.JPG,AMNE25.JPG,AMSA23.JPG,,,,,,,,,0,5,5,5,,,,,,,,,,,,,,,AMNE09.jpg,AMSA04.jpg,AMSA20.jpg,AMNE17.jpg,AMSA20.jpg,MS,2,num_2,32,num_8,1.78339527338,,,2017_May_02_1203,59.9944773092,MAFE4ImagesEEG,001,100341,
AMNE23.JPG,AMNE24.JPG,AMNE22.JPG,AMSA24.JPG,AMSA22.JPG,AMSA23.JPG,,,,,,,,,0,6,6,9,,,,,,,,,,,,,,,AMSA06.jpg,AMSA18.jpg,AMNE17.jpg,AMNE10.jpg,AMSA18.jpg,MS,2,num_6,16,num_6,2.8333574424,,,2017_May_02_1203,59.9944773092,MAFE4ImagesEEG,001,100341,
AMSA25.JPG,AMNE24.JPG,AMSA24.JPG,AMNE26.JPG,AMSA21.JPG,AMNE25.JPG,,,,,,,,,0,7,7,3,,,,,,,,,,,,,,,AMNE06.jpg,AMSA11.jpg,AMSA06.jpg,AMNE07.jpg,AMNE06.jpg,MN,1,num_8,32,num_4,1.48340993118,,,2017_May_02_1203,59.9944773092,MAFE4ImagesEEG,001,100341,
AMNE22.JPG,AMSA24.JPG,AMSA22.JPG,AMNE25.JPG,AMNE24.JPG,AMSA25.JPG,,,,,,,,,0,8,8,7,,,,,,,,,,,,,,,AMSA13.jpg,AMNE01.jpg,AMSA02.jpg,AMNE17.jpg,AMNE17.jpg,MN,1,num_4,32,num_2,1.65008424222,,,2017_May_02_1203,59.9944773092,MAFE4ImagesEEG,001,100341,
AMSA21.JPG,AMNE22.JPG,AMNE21.JPG,AMSA23.JPG,AMSA22.JPG,AMNE23.JPG,,,,,,,,,0,9,9,1,,,,,,,,,,,,,,,AMSA18.jpg,AMNE04.jpg,AMNE14.jpg,AMSA05.jpg,AMNE04.jpg,MN,1,num_6,32,num_4,1.10014596838,,,2017_May_02_1203,59.9944773092,MAFE4ImagesEEG,001,100341,
AFNE23.JPG,AFNE24.JPG,AFNE22.JPG,AFSA24.JPG,AFSA22.JPG,AFSA23.JPG,,,,,,,,,,,,,0,0,0,8,,,,,,,,,,,AFNE07.jpg,AFSA11.jpg,AFNE19.jpg,AFSA08.jpg,AFNE07.jpg,FN,3,num_8,32,num_4,1.05011612363,,,2017_May_02_1203,59.9944773092,MAFE4ImagesEEG,001,100341,
AMSA21.JPG,AMNE22.JPG,AMNE21.JPG,AMSA23.JPG,AMSA22.JPG,AMNE23.JPG,,,,,,,,,,,,,0,1,1,1,,,,,,,,,,,AFSA10.jpg,AFNE09.jpg,AFNE06.jpg,AFSA04.jpg,AFNE06.jpg,FN,3,num_2,32,num_8,1.08341653831,,,2017_May_02_1203,59.9944773092,MAFE4ImagesEEG,001,100341,
AFSA21.JPG,AFNE23.JPG,AFNE21.JPG,AFSA25.JPG,AFNE25.JPG,AFSA23.JPG,,,,,,,,,,,,,0,2,2,4,,,,,,,,,,,AFNE16.jpg,AFNE03.jpg,AFSA17.jpg,AFSA11.jpg,AFNE16.jpg,FN,3,num_8,32,num_4,1.0330919344,,,2017_May_02_1203,59.9944773092,MAFE4ImagesEEG,001,100341,
AFSA21.JPG,AFNE22.JPG,AFNE21.JPG,AFSA23.JPG,AFSA22.JPG,AFNE23.JPG,,,,,,,,,,,,,0,3,3,0,,,,,,,,,,,AFNE09.jpg,AFNE11.jpg,AFSA05.jpg,AFSA07.jpg,AFNE11.jpg,FN,3,num_6,32,num_8,1.20011007763,,,2017_May_02_1203,59.9944773092,MAFE4ImagesEEG,001,100341,
AMNE23.JPG,AMNE24.JPG,AMNE22.JPG,AMSA24.JPG,AMSA22.JPG,AMSA23.JPG,,,,,,,,,,,,,0,4,4,9,,,,,,,,,,,AFSA08.jpg,AFSA12.jpg,AFNE06.jpg,AFNE20.jpg,AFSA08.jpg,FS,4,num_8,16,num_8,2.63328328729,,,2017_May_02_1203,59.9944773092,MAFE4ImagesEEG,001,100341,
AFSA25.JPG,AFNE24.JPG,AFSA24.JPG,AFNE21.JPG,AFSA21.JPG,AFNE25.JPG,,,,,,,,,,,,,0,5,5,2,,,,,,,,,,,AFSA04.jpg,AFNE03.jpg,AFSA20.jpg,AFNE13.jpg,AFNE03.jpg,FN,3,num_6,32,num_4,0.999951247592,,,2017_May_02_1203,59.9944773092,MAFE4ImagesEEG,001,100341,
AMSA21.JPG,AMNE23.JPG,AMNE21.JPG,AMSA25.JPG,AMNE25.JPG,AMSA23.JPG,,,,,,,,,,,,,0,6,6,5,,,,,,,,,,,AFNE20.jpg,AFSA01.jpg,AFNE03.jpg,AFSA08.jpg,AFNE20.jpg,FN,3,num_8,16,num_8,2.43331625941,,,2017_May_02_1203,59.9944773092,MAFE4ImagesEEG,001,100341,
AMSA25.JPG,AMNE24.JPG,AMSA24.JPG,AMNE26.JPG,AMSA21.JPG,AMNE25.JPG,,,,,,,,,,,,,0,7,7,3,,,,,,,,,,,AFNE08.jpg,AFSA01.jpg,AFSA02.jpg,AFNE05.jpg,AFSA02.jpg,FS,4,num_2,16,num_2,1.35013386048,,,2017_May_02_1203,59.9944773092,MAFE4ImagesEEG,001,100341,
AMNE22.JPG,AMSA24.JPG,AMSA22.JPG,AMNE25.JPG,AMNE24.JPG,AMSA25.JPG,,,,,,,,,,,,,0,8,8,7,,,,,,,,,,,AFSA16.jpg,AFSA18.jpg,AFNE02.jpg,AFNE17.jpg,AFNE02.jpg,FN,3,num_2,32,num_4,1.20012739766,,,2017_May_02_1203,59.9944773092,MAFE4ImagesEEG,001,100341,
AFNE22.JPG,AFSA24.JPG,AFSA22.JPG,AFNE25.JPG,AFNE24.JPG,AFSA25.JPG,,,,,,,,,,,,,0,9,9,6,,,,,,,,,,,AFNE05.jpg,AFSA10.jpg,AFSA03.jpg,AFNE20.jpg,AFNE05.jpg,FN,3,num_8,16,num_8,1.90002274048,,,2017_May_02_1203,59.9944773092,MAFE4ImagesEEG,001,100341,
AMSA25.JPG,AMNE24.JPG,AMSA24.JPG,AMNE26.JPG,AMSA21.JPG,AMNE25.JPG,,,,,,,,,,,,,,,,,0,0,0,3,,,,,,,AMSA08.jpg,AMNE07.jpg,AMSA15.jpg,AMNE08.jpg,AMSA08.jpg,MS,2,num_8,32,num_6,3.14994648471,,,2017_May_02_1203,59.9944773092,MAFE4ImagesEEG,001,100341,
AMNE23.JPG,AMNE24.JPG,AMNE22.JPG,AMSA24.JPG,AMSA22.JPG,AMSA23.JPG,,,,,,,,,,,,,,,,,0,1,1,9,,,,,,,AMNE01.jpg,AMNE18.jpg,AMSA18.jpg,AMSA05.jpg,AMNE01.jpg,MN,1,num_8,32,num_4,1.70014551934,,,2017_May_02_1203,59.9944773092,MAFE4ImagesEEG,001,100341,
AFSA25.JPG,AFNE24.JPG,AFSA24.JPG,AFNE21.JPG,AFSA21.JPG,AFNE25.JPG,,,,,,,,,,,,,,,,,0,2,2,2,,,,,,,AMSA10.jpg,AMNE17.jpg,AMSA07.jpg,AMNE05.jpg,AMSA10.jpg,MS,2,num_8,16,num_8,1.28341820627,,,2017_May_02_1203,59.9944773092,MAFE4ImagesEEG,001,100341,
AMNE22.JPG,AMSA24.JPG,AMSA22.JPG,AMNE25.JPG,AMNE24.JPG,AMSA25.JPG,,,,,,,,,,,,,,,,,0,3,3,7,,,,,,,AMNE20.jpg,AMSA20.jpg,AMSA10.jpg,AMNE17.jpg,AMSA10.jpg,MS,2,num_2,16,num_2,1.0334505206,,,2017_May_02_1203,59.9944773092,MAFE4ImagesEEG,001,100341,
AMSA21.JPG,AMNE23.JPG,AMNE21.JPG,AMSA25.JPG,AMNE25.JPG,AMSA23.JPG,,,,,,,,,,,,,,,,,0,4,4,5,,,,,,,AMSA17.jpg,AMSA19.jpg,AMNE07.jpg,AMNE14.jpg,AMNE07.jpg,MN,1,num_2,16,num_2,0.900157771539,,,2017_May_02_1203,59.9944773092,MAFE4ImagesEEG,001,100341,
AFNE23.JPG,AFNE24.JPG,AFNE22.JPG,AFSA24.JPG,AFSA22.JPG,AFSA23.JPG,,,,,,,,,,,,,,,,,0,5,5,8,,,,,,,AMSA08.jpg,AMNE14.jpg,AMSA16.jpg,AMNE05.jpg,AMSA16.jpg,MS,2,num_2,32,num_8,0.883452397073,,,2017_May_02_1203,59.9944773092,MAFE4ImagesEEG,001,100341,
AMSA21.JPG,AMNE22.JPG,AMNE21.JPG,AMSA23.JPG,AMSA22.JPG,AMNE23.JPG,,,,,,,,,,,,,,,,,0,6,6,1,,,,,,,AMNE11.jpg,AMSA14.jpg,AMNE20.jpg,AMSA20.jpg,AMSA14.jpg,MS,2,num_6,32,num_2,1.91669764463,,,2017_May_02_1203,59.9944773092,MAFE4ImagesEEG,001,100341,
AFSA21.JPG,AFNE22.JPG,AFNE21.JPG,AFSA23.JPG,AFSA22.JPG,AFNE23.JPG,,,,,,,,,,,,,,,,,0,7,7,0,,,,,,,AMNE17.jpg,AMSA02.jpg,AMNE04.jpg,AMSA14.jpg,AMNE04.jpg,MN,1,num_2,32,num_6,0.700199724175,,,2017_May_02_1203,59.9944773092,MAFE4ImagesEEG,001,100341,
AFSA21.JPG,AFNE23.JPG,AFNE21.JPG,AFSA25.JPG,AFNE25.JPG,AFSA23.JPG,,,,,,,,,,,,,,,,,0,8,8,4,,,,,,,AMNE03.jpg,AMSA06.jpg,AMNE01.jpg,AMSA19.jpg,AMSA06.jpg,MS,2,num_6,32,num_4,1.03344891709,,,2017_May_02_1203,59.9944773092,MAFE4ImagesEEG,001,100341,
AFNE22.JPG,AFSA24.JPG,AFSA22.JPG,AFNE25.JPG,AFNE24.JPG,AFSA25.JPG,,,,,,,,,,,,,,,,,0,9,9,6,,,,,,,AMNE01.jpg,AMSA17.jpg,AMSA16.jpg,AMNE11.jpg,AMNE11.jpg,MN,1,num_4,32,num_8,1.81675919448,,,2017_May_02_1203,59.9944773092,MAFE4ImagesEEG,001,100341,
AFSA21.JPG,AFNE22.JPG,AFNE21.JPG,AFSA23.JPG,AFSA22.JPG,AFNE23.JPG,,,,,,,,,,,,,,,,,,,,,0,0,0,0,,,AFNE09.jpg,AFSA13.jpg,AFNE02.jpg,AFSA16.jpg,AFNE09.jpg,FN,3,num_8,16,num_8,1.03345116205,,,2017_May_02_1203,59.9944773092,MAFE4ImagesEEG,001,100341,
AMSA25.JPG,AMNE24.JPG,AMSA24.JPG,AMNE26.JPG,AMSA21.JPG,AMNE25.JPG,,,,,,,,,,,,,,,,,,,,,0,1,1,3,,,AFNE15.jpg,AFSA05.jpg,AFNE11.jpg,AFSA08.jpg,AFSA08.jpg,FS,4,num_4,32,num_6,1.58344845194,,,2017_May_02_1203,59.9944773092,MAFE4ImagesEEG,001,100341,
AFNE23.JPG,AFNE24.JPG,AFNE22.JPG,AFSA24.JPG,AFSA22.JPG,AFSA23.JPG,,,,,,,,,,,,,,,,,,,,,0,2,2,8,,,AFSA10.jpg,AFNE05.jpg,AFSA09.jpg,AFNE12.jpg,AFNE05.jpg,FN,3,num_6,32,num_8,1.3333806959,,,2017_May_02_1203,59.9944773092,MAFE4ImagesEEG,001,100341,
AFSA25.JPG,AFNE24.JPG,AFSA24.JPG,AFNE21.JPG,AFSA21.JPG,AFNE25.JPG,,,,,,,,,,,,,,,,,,,,,0,3,3,2,,,AFNE07.jpg,AFSA03.jpg,AFSA19.jpg,AFNE01.jpg,AFSA03.jpg,FS,4,num_6,16,num_6,1.51667666831,,,2017_May_02_1203,59.9944773092,MAFE4ImagesEEG,001,100341,
AMNE22.JPG,AMSA24.JPG,AMSA22.JPG,AMNE25.JPG,AMNE24.JPG,AMSA25.JPG,,,,,,,,,,,,,,,,,,,,,0,4,4,7,,,AFSA14.jpg,AFNE12.jpg,AFNE19.jpg,AFSA13.jpg,AFNE19.jpg,FN,3,num_2,32,num_8,1.13347107987,,,2017_May_02_1203,59.9944773092,MAFE4ImagesEEG,001,100341,
AFSA21.JPG,AFNE23.JPG,AFNE21.JPG,AFSA25.JPG,AFNE25.JPG,AFSA23.JPG,,,,,,,,,,,,,,,,,,,,,0,5,5,4,,,AFSA08.jpg,AFNE05.jpg,AFSA19.jpg,AFNE10.jpg,AFSA08.jpg,FS,4,num_8,16,num_8,1.61668439815,,,2017_May_02_1203,59.9944773092,MAFE4ImagesEEG,001,100341,
AMNE23.JPG,AMNE24.JPG,AMNE22.JPG,AMSA24.JPG,AMSA22.JPG,AMSA23.JPG,,,,,,,,,,,,,,,,,,,,,0,6,6,9,,,AFNE01.jpg,AFSA18.jpg,AFSA01.jpg,AFNE06.jpg,AFSA01.jpg,FS,4,num_2,32,num_6,2.1166688425,,,2017_May_02_1203,59.9944773092,MAFE4ImagesEEG,001,100341,
AMSA21.JPG,AMNE23.JPG,AMNE21.JPG,AMSA25.JPG,AMNE25.JPG,AMSA23.JPG,,,,,,,,,,,,,,,,,,,,,0,7,7,5,,,AFSA16.jpg,AFNE10.jpg,AFSA03.jpg,AFNE12.jpg,AFNE12.jpg,FN,3,num_4,32,num_6,1.6000694721,,,2017_May_02_1203,59.9944773092,MAFE4ImagesEEG,001,100341,
AFNE22.JPG,AFSA24.JPG,AFSA22.JPG,AFNE25.JPG,AFNE24.JPG,AFSA25.JPG,,,,,,,,,,,,,,,,,,,,,0,8,8,6,,,AFSA02.jpg,AFNE08.jpg,AFNE20.jpg,AFSA06.jpg,AFSA06.jpg,FS,4,num_4,16,num_4,1.21674841759,,,2017_May_02_1203,59.9944773092,MAFE4ImagesEEG,001,100341,
AMSA21.JPG,AMNE22.JPG,AMNE21.JPG,AMSA23.JPG,AMSA22.JPG,AMNE23.JPG,,,,,,,,,,,,,,,,,,,,,0,9,9,1,,,AFSA20.jpg,AFNE01.jpg,AFNE17.jpg,AFSA02.jpg,AFSA02.jpg,FS,4,num_4,32,num_8,3.11685005995,,,2017_May_02_1203,59.9944773092,MAFE4ImagesEEG,001,100341,
,,,,,,,,,,,,,,,,,,,,,,,,,,,,,,,,,,,,,,,,,,,space,10.8160051371,2017_May_02_1203,59.9944773092,MAFE4ImagesEEG,001,100341,
AFNE01.JPG,AFNE01.JPG,AFNE01.JPG,AFNE01.JPG,AFNE01.JPG,AFNE01.JPG,0,0,0,5,,,,,,,,,,,,,,,,,,,,,,,AMSA02.jpg,AMNE02.jpg,AMNE04.jpg,AMSA05.jpg,AMSA05.jpg,MS,2,num_4,16,num_4,1.15008600615,,,2017_May_02_1203,59.9944773092,MAFE4ImagesEEG,001,100341,
AFNE01.JPG,AFNE01.JPG,AFNE01.JPG,AFNE01.JPG,AFNE01.JPG,AFNE01.JPG,0,1,1,0,,,,,,,,,,,,,,,,,,,,,,,AMSA20.jpg,AMNE07.jpg,AMNE05.jpg,AMSA16.jpg,AMNE07.jpg,MN,1,num_6,16,num_6,0.933450488606,,,2017_May_02_1203,59.9944773092,MAFE4ImagesEEG,001,100341,
AFNE01.JPG,AFNE01.JPG,AFNE01.JPG,AFNE01.JPG,AFNE01.JPG,AFNE01.JPG,0,2,2,8,,,,,,,,,,,,,,,,,,,,,,,AMNE18.jpg,AMNE12.jpg,AMSA04.jpg,AMSA02.jpg,AMNE18.jpg,MN,1,num_8,16,num_8,0.933432206511,,,2017_May_02_1203,59.9944773092,MAFE4ImagesEEG,001,100341,
AFNE01.JPG,AFNE01.JPG,AFNE01.JPG,AFNE01.JPG,AFNE01.JPG,AFNE01.JPG,0,3,3,6,,,,,,,,,,,,,,,,,,,,,,,AMSA20.jpg,AMNE03.jpg,AMSA18.jpg,AMNE13.jpg,AMSA18.jpg,MS,2,num_2,32,num_6,2.03336488339,,,2017_May_02_1203,59.9944773092,MAFE4ImagesEEG,001,100341,
AFNE01.JPG,AFNE01.JPG,AFNE01.JPG,AFNE01.JPG,AFNE01.JPG,AFNE01.JPG,0,4,4,2,,,,,,,,,,,,,,,,,,,,,,,AMNE10.jpg,AMSA02.jpg,AMNE01.jpg,AMSA18.jpg,AMNE10.jpg,MN,1,num_8,32,num_6,1.64976927638,,,2017_May_02_1203,59.9944773092,MAFE4ImagesEEG,001,100341,
AFNE01.JPG,AFNE01.JPG,AFNE01.JPG,AFNE01.JPG,AFNE01.JPG,AFNE01.JPG,0,5,5,4,,,,,,,,,,,,,,,,,,,,,,,AMSA07.jpg,AMSA03.jpg,AMNE06.jpg,AMNE15.jpg,AMNE15.jpg,MN,1,num_4,16,num_4,0.616784468759,,,2017_May_02_1203,59.9944773092,MAFE4ImagesEEG,001,100341,
AFNE01.JPG,AFNE01.JPG,AFNE01.JPG,AFNE01.JPG,AFNE01.JPG,AFNE01.JPG,0,6,6,7,,,,,,,,,,,,,,,,,,,,,,,AMSA11.jpg,AMNE20.jpg,AMNE09.jpg,AMSA15.jpg,AMSA15.jpg,MS,2,num_4,16,num_4,0.700240137288,,,2017_May_02_1203,59.9944773092,MAFE4ImagesEEG,001,100341,
AFNE01.JPG,AFNE01.JPG,AFNE01.JPG,AFNE01.JPG,AFNE01.JPG,AFNE01.JPG,0,7,7,1,,,,,,,,,,,,,,,,,,,,,,,AMSA18.jpg,AMSA04.jpg,AMNE12.jpg,AMNE02.jpg,AMSA18.jpg,MS,2,num_8,16,num_8,0.883461056976,,,2017_May_02_1203,59.9944773092,MAFE4ImagesEEG,001,100341,
AFNE01.JPG,AFNE01.JPG,AFNE01.JPG,AFNE01.JPG,AFNE01.JPG,AFNE01.JPG,0,8,8,3,,,,,,,,,,,,,,,,,,,,,,,AMSA05.jpg,AMSA18.jpg,AMNE06.jpg,AMNE13.jpg,AMNE13.jpg,MN,1,num_4,16,num_4,0.900112547446,,,2017_May_02_1203,59.9944773092,MAFE4ImagesEEG,001,100341,
AFNE01.JPG,AFNE01.JPG,AFNE01.JPG,AFNE01.JPG,AFNE01.JPG,AFNE01.JPG,0,9,9,9,,,,,,,,,,,,,,,,,,,,,,,AMNE01.jpg,AMNE03.jpg,AMSA03.jpg,AMSA12.jpg,AMNE03.jpg,MN,1,num_6,16,num_6,0.716814008774,,,2017_May_02_1203,59.9944773092,MAFE4ImagesEEG,001,100341,
AFNE01.JPG,AFNE01.JPG,AFNE01.JPG,AFNE01.JPG,AFNE01.JPG,AFNE01.JPG,1,0,10,9,,,,,,,,,,,,,,,,,,,,,,,AMNE04.jpg,AMSA16.jpg,AMNE08.jpg,AMSA07.jpg,AMNE04.jpg,MN,1,num_8,16,num_8,2.94998587156,,,2017_May_02_1203,59.9944773092,MAFE4ImagesEEG,001,100341,
AFNE01.JPG,AFNE01.JPG,AFNE01.JPG,AFNE01.JPG,AFNE01.JPG,AFNE01.JPG,1,1,11,1,,,,,,,,,,,,,,,,,,,,,,,AMNE13.jpg,AMSA01.jpg,AMSA06.jpg,AMNE04.jpg,AMNE04.jpg,MN,1,num_4,32,num_2,1.5330613039,,,2017_May_02_1203,59.9944773092,MAFE4ImagesEEG,001,100341,
AFNE01.JPG,AFNE01.JPG,AFNE01.JPG,AFNE01.JPG,AFNE01.JPG,AFNE01.JPG,1,2,12,7,,,,,,,,,,,,,,,,,,,,,,,AMSA08.jpg,AMNE10.jpg,AMNE17.jpg,AMSA10.jpg,AMNE10.jpg,MN,1,num_6,32,num_4,1.36673980579,,,2017_May_02_1203,59.9944773092,MAFE4ImagesEEG,001,100341,
AFNE01.JPG,AFNE01.JPG,AFNE01.JPG,AFNE01.JPG,AFNE01.JPG,AFNE01.JPG,1,3,13,2,,,,,,,,,,,,,,,,,,,,,,,AMNE18.jpg,AMSA14.jpg,AMNE16.jpg,AMSA18.jpg,AMSA14.jpg,MS,2,num_6,16,num_6,1.86665625335,,,2017_May_02_1203,59.9944773092,MAFE4ImagesEEG,001,100341,
AFNE01.JPG,AFNE01.JPG,AFNE01.JPG,AFNE01.JPG,AFNE01.JPG,AFNE01.JPG,1,4,14,3,,,,,,,,,,,,,,,,,,,,,,,AMNE15.jpg,AMNE01.jpg,AMSA15.jpg,AMSA05.jpg,AMSA15.jpg,MS,2,num_2,32,num_8,1.0834601589,,,2017_May_02_1203,59.9944773092,MAFE4ImagesEEG,001,100341,
AFNE01.JPG,AFNE01.JPG,AFNE01.JPG,AFNE01.JPG,AFNE01.JPG,AFNE01.JPG,1,5,15,0,,,,,,,,,,,,,,,,,,,,,,,AMSA07.jpg,AMNE13.jpg,AMNE06.jpg,AMSA16.jpg,AMNE06.jpg,MN,1,num_2,32,num_8,1.6000694721,,,2017_May_02_1203,59.9944773092,MAFE4ImagesEEG,001,100341,
AFNE01.JPG,AFNE01.JPG,AFNE01.JPG,AFNE01.JPG,AFNE01.JPG,AFNE01.JPG,1,6,16,6,,,,,,,,,,,,,,,,,,,,,,,AMSA20.jpg,AMNE03.jpg,AMNE05.jpg,AMSA10.jpg,AMNE05.jpg,MN,1,num_2,32,num_6,1.13343932689,,,2017_May_02_1203,59.9944773092,MAFE4ImagesEEG,001,100341,
AFNE01.JPG,AFNE01.JPG,AFNE01.JPG,AFNE01.JPG,AFNE01.JPG,AFNE01.JPG,1,7,17,8,,,,,,,,,,,,,,,,,,,,,,,AMNE10.jpg,AMNE14.jpg,AMSA20.jpg,AMSA16.jpg,AMSA16.jpg,MS,2,num_4,16,num_4,0.70018144208,,,2017_May_02_1203,59.9944773092,MAFE4ImagesEEG,001,100341,
AFNE01.JPG,AFNE01.JPG,AFNE01.JPG,AFNE01.JPG,AFNE01.JPG,AFNE01.JPG,1,8,18,4,,,,,,,,,,,,,,,,,,,,,,,AMNE15.jpg,AMNE12.jpg,AMSA15.jpg,AMSA13.jpg,AMNE15.jpg,MN,1,num_8,16,num_8,0.700143594993,,,2017_May_02_1203,59.9944773092,MAFE4ImagesEEG,001,100341,
AFNE01.JPG,AFNE01.JPG,AFNE01.JPG,AFNE01.JPG,AFNE01.JPG,AFNE01.JPG,1,9,19,5,,,,,,,,,,,,,,,,,,,,,,,AMSA19.jpg,AMNE18.jpg,AMSA12.jpg,AMNE10.jpg,AMSA19.jpg,MS,2,num_8,16,num_8,0.783456855454,,,2017_May_02_1203,59.9944773092,MAFE4ImagesEEG,001,100341,
AFNE01.JPG,AFNE01.JPG,AFNE01.JPG,AFNE01.JPG,AFNE01.JPG,AFNE01.JPG,2,0,20,8,,,,,,,,,,,,,,,,,,,,,,,AMSA08.jpg,AMNE17.jpg,AMNE12.jpg,AMSA18.jpg,AMSA18.jpg,MS,2,num_4,16,num_4,1.06681123446,,,2017_May_02_1203,59.9944773092,MAFE4ImagesEEG,001,100341,
AFNE01.JPG,AFNE01.JPG,AFNE01.JPG,AFNE01.JPG,AFNE01.JPG,AFNE01.JPG,2,1,21,0,,,,,,,,,,,,,,,,,,,,,,,AMNE19.jpg,AMSA03.jpg,AMNE03.jpg,AMSA08.jpg,AMSA08.jpg,MS,2,num_4,16,num_4,1.28344322369,,,2017_May_02_1203,59.9944773092,MAFE4ImagesEEG,001,100341,
AFNE01.JPG,AFNE01.JPG,AFNE01.JPG,AFNE01.JPG,AFNE01.JPG,AFNE01.JPG,2,2,22,4,,,,,,,,,,,,,,,,,,,,,,,AMSA17.jpg,AMNE20.jpg,AMNE09.jpg,AMSA13.jpg,AMNE20.jpg,MN,1,num_6,32,num_8,0.666814313503,,,2017_May_02_1203,59.9944773092,MAFE4ImagesEEG,001,100341,
AFNE01.JPG,AFNE01.JPG,AFNE01.JPG,AFNE01.JPG,AFNE01.JPG,AFNE01.JPG,2,3,23,3,,,,,,,,,,,,,,,,,,,,,,,AMSA13.jpg,AMNE12.jpg,AMSA20.jpg,AMNE06.jpg,AMSA13.jpg,MS,2,num_8,32,num_2,1.65005729999,,,2017_May_02_1203,59.9944773092,MAFE4ImagesEEG,001,100341,
AFNE01.JPG,AFNE01.JPG,AFNE01.JPG,AFNE01.JPG,AFNE01.JPG,AFNE01.JPG,2,4,24,6,,,,,,,,,,,,,,,,,,,,,,,AMNE07.jpg,AMSA03.jpg,AMNE04.jpg,AMSA01.jpg,AMNE07.jpg,MN,1,num_8,16,num_8,1.11673427327,,,2017_May_02_1203,59.9944773092,MAFE4ImagesEEG,001,100341,
AFNE01.JPG,AFNE01.JPG,AFNE01.JPG,AFNE01.JPG,AFNE01.JPG,AFNE01.JPG,2,5,25,5,,,,,,,,,,,,,,,,,,,,,,,AMNE06.jpg,AMSA16.jpg,AMNE13.jpg,AMSA12.jpg,AMSA16.jpg,MS,2,num_6,16,num_6,0.733521949267,,,2017_May_02_1203,59.9944773092,MAFE4ImagesEEG,001,100341,
AFNE01.JPG,AFNE01.JPG,AFNE01.JPG,AFNE01.JPG,AFNE01.JPG,AFNE01.JPG,2,6,26,7,,,,,,,,,,,,,,,,,,,,,,,AMSA12.jpg,AMNE12.jpg,AMSA17.jpg,AMNE02.jpg,AMNE02.jpg,MN,1,num_4,16,num_4,1.21677119029,,,2017_May_02_1203,59.9944773092,MAFE4ImagesEEG,001,100341,
AFNE01.JPG,AFNE01.JPG,AFNE01.JPG,AFNE01.JPG,AFNE01.JPG,AFNE01.JPG,2,7,27,9,,,,,,,,,,,,,,,,,,,,,,,AMSA15.jpg,AMNE15.jpg,AMNE14.jpg,AMSA14.jpg,AMSA14.jpg,MS,2,num_4,16,num_4,0.600149656879,,,2017_May_02_1203,59.9944773092,MAFE4ImagesEEG,001,100341,
AFNE01.JPG,AFNE01.JPG,AFNE01.JPG,AFNE01.JPG,AFNE01.JPG,AFNE01.JPG,2,8,28,1,,,,,,,,,,,,,,,,,,,,,,,AMNE19.jpg,AMNE18.jpg,AMSA14.jpg,AMSA10.jpg,AMNE19.jpg,MN,1,num_8,16,num_8,0.850109965308,,,2017_May_02_1203,59.9944773092,MAFE4ImagesEEG,001,100341,
AFNE01.JPG,AFNE01.JPG,AFNE01.JPG,AFNE01.JPG,AFNE01.JPG,AFNE01.JPG,2,9,29,2,,,,,,,,,,,,,,,,,,,,,,,AMSA20.jpg,AMSA11.jpg,AMNE07.jpg,AMNE10.jpg,AMNE07.jpg,MN,1,num_2,16,num_2,1.26679397887,,,2017_May_02_1203,59.9944773092,MAFE4ImagesEEG,001,100341,
AFNE01.JPG,AFNE01.JPG,AFNE01.JPG,AFNE01.JPG,AFNE01.JPG,AFNE01.JPG,3,0,30,0,,,,,,,,,,,,,,,,,,,,,,,AMSA12.jpg,AMNE05.jpg,AMSA10.jpg,AMNE13.jpg,AMNE13.jpg,MN,1,num_4,32,num_6,0.933452413185,,,2017_May_02_1203,59.9944773092,MAFE4ImagesEEG,001,100341,
AFNE01.JPG,AFNE01.JPG,AFNE01.JPG,AFNE01.JPG,AFNE01.JPG,AFNE01.JPG,3,1,31,8,,,,,,,,,,,,,,,,,,,,,,,AMSA15.jpg,AMNE18.jpg,AMSA03.jpg,AMNE19.jpg,AMSA03.jpg,MS,2,num_2,32,num_8,1.00013374817,,,2017_May_02_1203,59.9944773092,MAFE4ImagesEEG,001,100341,
AFNE01.JPG,AFNE01.JPG,AFNE01.JPG,AFNE01.JPG,AFNE01.JPG,AFNE01.JPG,3,2,32,1,,,,,,,,,,,,,,,,,,,,,,,AMNE11.jpg,AMSA12.jpg,AMSA14.jpg,AMNE06.jpg,AMNE11.jpg,MN,1,num_8,16,num_8,1.9833869983,,,2017_May_02_1203,59.9944773092,MAFE4ImagesEEG,001,100341,
AFNE01.JPG,AFNE01.JPG,AFNE01.JPG,AFNE01.JPG,AFNE01.JPG,AFNE01.JPG,3,3,33,3,,,,,,,,,,,,,,,,,,,,,,,AMSA08.jpg,AMNE02.jpg,AMNE09.jpg,AMSA05.jpg,AMSA08.jpg,MS,2,num_8,16,num_8,1.05012414209,,,2017_May_02_1203,59.9944773092,MAFE4ImagesEEG,001,100341,
AFNE01.JPG,AFNE01.JPG,AFNE01.JPG,AFNE01.JPG,AFNE01.JPG,AFNE01.JPG,3,4,34,9,,,,,,,,,,,,,,,,,,,,,,,AMNE03.jpg,AMNE09.jpg,AMSA16.jpg,AMSA01.jpg,AMNE09.jpg,MN,1,num_6,16,num_6,0.616745017935,,,2017_May_02_1203,59.9944773092,MAFE4ImagesEEG,001,100341,
AFNE01.JPG,AFNE01.JPG,AFNE01.JPG,AFNE01.JPG,AFNE01.JPG,AFNE01.JPG,3,5,35,7,,,,,,,,,,,,,,,,,,,,,,,AMSA19.jpg,AMNE14.jpg,AMSA04.jpg,AMNE07.jpg,AMSA19.jpg,MS,2,num_8,16,num_8,0.966759884031,,,2017_May_02_1203,59.9944773092,MAFE4ImagesEEG,001,100341,
AFNE01.JPG,AFNE01.JPG,AFNE01.JPG,AFNE01.JPG,AFNE01.JPG,AFNE01.JPG,3,6,36,6,,,,,,,,,,,,,,,,,,,,,,,AMSA13.jpg,AMNE07.jpg,AMNE15.jpg,AMSA17.jpg,AMNE15.jpg,MN,1,num_2,16,num_2,2.03311663121,,,2017_May_02_1203,59.9944773092,MAFE4ImagesEEG,001,100341,
AFNE01.JPG,AFNE01.JPG,AFNE01.JPG,AFNE01.JPG,AFNE01.JPG,AFNE01.JPG,3,7,37,2,,,,,,,,,,,,,,,,,,,,,,,AMNE01.jpg,AMNE09.jpg,AMSA09.jpg,AMSA02.jpg,AMSA09.jpg,MS,2,num_2,32,num_6,1.73341995431,,,2017_May_02_1203,59.9944773092,MAFE4ImagesEEG,001,100341,
AFNE01.JPG,AFNE01.JPG,AFNE01.JPG,AFNE01.JPG,AFNE01.JPG,AFNE01.JPG,3,8,38,5,,,,,,,,,,,,,,,,,,,,,,,AMSA15.jpg,AMSA01.jpg,AMNE19.jpg,AMNE16.jpg,AMNE16.jpg,MN,1,num_4,16,num_4,1.00013631419,,,2017_May_02_1203,59.9944773092,MAFE4ImagesEEG,001,100341,
AFNE01.JPG,AFNE01.JPG,AFNE01.JPG,AFNE01.JPG,AFNE01.JPG,AFNE01.JPG,3,9,39,4,,,,,,,,,,,,,,,,,,,,,,,AMSA09.jpg,AMNE11.jpg,AMSA07.jpg,AMNE17.jpg,AMNE17.jpg,MN,1,num_4,16,num_4,0.716806310927,,,2017_May_02_1203,59.9944773092,MAFE4ImagesEEG,001,100341,
AFNE01.JPG,AFNE01.JPG,AFNE01.JPG,AFNE01.JPG,AFNE01.JPG,AFNE01.JPG,4,0,40,6,,,,,,,,,,,,,,,,,,,,,,,AMNE15.jpg,AMSA01.jpg,AMNE10.jpg,AMSA18.jpg,AMNE15.jpg,MN,1,num_8,16,num_8,1.00012476742,,,2017_May_02_1203,59.9944773092,MAFE4ImagesEEG,001,100341,
AFNE01.JPG,AFNE01.JPG,AFNE01.JPG,AFNE01.JPG,AFNE01.JPG,AFNE01.JPG,4,1,41,9,,,,,,,,,,,,,,,,,,,,,,,AMSA12.jpg,AMSA04.jpg,AMNE11.jpg,AMNE01.jpg,AMSA12.jpg,MS,2,num_8,16,num_8,1.23341562413,,,2017_May_02_1203,59.9944773092,MAFE4ImagesEEG,001,100341,
AFNE01.JPG,AFNE01.JPG,AFNE01.JPG,AFNE01.JPG,AFNE01.JPG,AFNE01.JPG,4,2,42,2,,,,,,,,,,,,,,,,,,,,,,,AMNE09.jpg,AMNE18.jpg,AMSA03.jpg,AMSA12.jpg,AMNE09.jpg,MN,1,num_8,16,num_8,1.14998208685,,,2017_May_02_1203,59.9944773092,MAFE4ImagesEEG,001,100341,
AFNE01.JPG,AFNE01.JPG,AFNE01.JPG,AFNE01.JPG,AFNE01.JPG,AFNE01.JPG,4,3,43,7,,,,,,,,,,,,,,,,,,,,,,,AMNE02.jpg,AMSA19.jpg,AMSA12.jpg,AMNE04.jpg,AMNE02.jpg,MN,1,num_8,32,num_4,1.63342697849,,,2017_May_02_1203,59.9944773092,MAFE4ImagesEEG,001,100341,
AFNE01.JPG,AFNE01.JPG,AFNE01.JPG,AFNE01.JPG,AFNE01.JPG,AFNE01.JPG,4,4,44,8,,,,,,,,,,,,,,,,,,,,,,,AMNE14.jpg,AMSA20.jpg,AMNE01.jpg,AMSA05.jpg,AMNE14.jpg,MN,1,num_8,32,num_2,1.68342186254,,,2017_May_02_1203,59.9944773092,MAFE4ImagesEEG,001,100341,
AFNE01.JPG,AFNE01.JPG,AFNE01.JPG,AFNE01.JPG,AFNE01.JPG,AFNE01.JPG,4,5,45,5,,,,,,,,,,,,,,,,,,,,,,,AMSA03.jpg,AMNE06.jpg,AMNE17.jpg,AMSA01.jpg,AMNE17.jpg,MN,1,num_2,32,num_8,2.53333361144,,,2017_May_02_1203,59.9944773092,MAFE4ImagesEEG,001,100341,
AFNE01.JPG,AFNE01.JPG,AFNE01.JPG,AFNE01.JPG,AFNE01.JPG,AFNE01.JPG,4,6,46,3,,,,,,,,,,,,,,,,,,,,,,,AMSA09.jpg,AMSA17.jpg,AMNE03.jpg,AMNE14.jpg,AMSA09.jpg,MS,2,num_8,16,num_8,0.833420627983,,,2017_May_02_1203,59.9944773092,MAFE4ImagesEEG,001,100341,
AFNE01.JPG,AFNE01.JPG,AFNE01.JPG,AFNE01.JPG,AFNE01.JPG,AFNE01.JPG,4,7,47,0,,,,,,,,,,,,,,,,,,,,,,,AMNE17.jpg,AMSA01.jpg,AMNE14.jpg,AMSA15.jpg,AMSA01.jpg,MS,2,num_6,32,num_4,1.18344222941,,,2017_May_02_1203,59.9944773092,MAFE4ImagesEEG,001,100341,
AFNE01.JPG,AFNE01.JPG,AFNE01.JPG,AFNE01.JPG,AFNE01.JPG,AFNE01.JPG,4,8,48,4,,,,,,,,,,,,,,,,,,,,,,,AMSA02.jpg,AMNE12.jpg,AMNE20.jpg,AMSA08.jpg,AMSA08.jpg,MS,2,num_4,16,num_4,0.900133074727,,,2017_May_02_1203,59.9944773092,MAFE4ImagesEEG,001,100341,
AFNE01.JPG,AFNE01.JPG,AFNE01.JPG,AFNE01.JPG,AFNE01.JPG,AFNE01.JPG,4,9,49,1,,,,,,,,,,,,,,,,,,,,,,,AMNE08.jpg,AMSA07.jpg,AMSA10.jpg,AMNE15.jpg,AMNE08.jpg,MN,1,num_8,32,num_2,1.08345566876,,,2017_May_02_1203,59.9944773092,MAFE4ImagesEEG,001,100341,
AFNE01.JPG,AFNE01.JPG,AFNE01.JPG,AFNE01.JPG,AFNE01.JPG,AFNE01.JPG,5,0,50,2,,,,,,,,,,,,,,,,,,,,,,,AMSA14.jpg,AMNE10.jpg,AMNE13.jpg,AMSA18.jpg,AMNE10.jpg,MN,1,num_6,32,num_2,1.01676278678,,,2017_May_02_1203,59.9944773092,MAFE4ImagesEEG,001,100341,
AFNE01.JPG,AFNE01.JPG,AFNE01.JPG,AFNE01.JPG,AFNE01.JPG,AFNE01.JPG,5,1,51,5,,,,,,,,,,,,,,,,,,,,,,,AMSA17.jpg,AMSA14.jpg,AMNE05.jpg,AMNE07.jpg,AMSA17.jpg,MS,2,num_8,16,num_8,2.20003726985,,,2017_May_02_1203,59.9944773092,MAFE4ImagesEEG,001,100341,
AFNE01.JPG,AFNE01.JPG,AFNE01.JPG,AFNE01.JPG,AFNE01.JPG,AFNE01.JPG,5,2,52,6,,,,,,,,,,,,,,,,,,,,,,,AMNE10.jpg,AMSA05.jpg,AMNE11.jpg,AMSA03.jpg,AMSA05.jpg,MS,2,num_6,32,num_4,1.03380686184,,,2017_May_02_1203,59.9944773092,MAFE4ImagesEEG,001,100341,
AFNE01.JPG,AFNE01.JPG,AFNE01.JPG,AFNE01.JPG,AFNE01.JPG,AFNE01.JPG,5,3,53,8,,,,,,,,,,,,,,,,,,,,,,,AMSA17.jpg,AMNE06.jpg,AMSA12.jpg,AMNE05.jpg,AMNE05.jpg,MN,1,num_4,32,num_6,1.38340797462,,,2017_May_02_1203,59.9944773092,MAFE4ImagesEEG,001,100341,
AFNE01.JPG,AFNE01.JPG,AFNE01.JPG,AFNE01.JPG,AFNE01.JPG,AFNE01.JPG,5,4,54,3,,,,,,,,,,,,,,,,,,,,,,,AMSA07.jpg,AMNE17.jpg,AMSA05.jpg,AMNE16.jpg,AMNE16.jpg,MN,1,num_4,16,num_4,0.900133395335,,,2017_May_02_1203,59.9944773092,MAFE4ImagesEEG,001,100341,
AFNE01.JPG,AFNE01.JPG,AFNE01.JPG,AFNE01.JPG,AFNE01.JPG,AFNE01.JPG,5,5,55,1,,,,,,,,,,,,,,,,,,,,,,,AMSA20.jpg,AMNE12.jpg,AMSA01.jpg,AMNE01.jpg,AMNE12.jpg,MN,1,num_6,32,num_4,0.983446014114,,,2017_May_02_1203,59.9944773092,MAFE4ImagesEEG,001,100341,
AFNE01.JPG,AFNE01.JPG,AFNE01.JPG,AFNE01.JPG,AFNE01.JPG,AFNE01.JPG,5,6,56,7,,,,,,,,,,,,,,,,,,,,,,,AMNE10.jpg,AMSA03.jpg,AMSA02.jpg,AMNE16.jpg,AMNE16.jpg,MN,1,num_4,16,num_4,0.683466124814,,,2017_May_02_1203,59.9944773092,MAFE4ImagesEEG,001,100341,
AFNE01.JPG,AFNE01.JPG,AFNE01.JPG,AFNE01.JPG,AFNE01.JPG,AFNE01.JPG,5,7,57,0,,,,,,,,,,,,,,,,,,,,,,,AMSA15.jpg,AMSA19.jpg,AMNE14.jpg,AMNE06.jpg,AMSA15.jpg,MS,2,num_8,16,num_8,1.34987309971,,,2017_May_02_1203,59.9944773092,MAFE4ImagesEEG,001,100341,
AFNE01.JPG,AFNE01.JPG,AFNE01.JPG,AFNE01.JPG,AFNE01.JPG,AFNE01.JPG,5,8,58,4,,,,,,,,,,,,,,,,,,,,,,,AMNE04.jpg,AMNE10.jpg,AMSA03.jpg,AMSA11.jpg,AMSA03.jpg,MS,2,num_2,16,num_2,1.11675480055,,,2017_May_02_1203,59.9944773092,MAFE4ImagesEEG,001,100341,
AFNE01.JPG,AFNE01.JPG,AFNE01.JPG,AFNE01.JPG,AFNE01.JPG,AFNE01.JPG,5,9,59,9,,,,,,,,,,,,,,,,,,,,,,,AMSA15.jpg,AMNE20.jpg,AMNE04.jpg,AMSA02.jpg,AMNE04.jpg,MN,1,num_2,16,num_2,1.13344349666,,,2017_May_02_1203,59.9944773092,MAFE4ImagesEEG,001,100341,
,,,,,,,,,,,,,,,,,,,,,,,,,,,,,,,,,,,,,,,,,,,space,14.2993262233,2017_May_02_1203,59.9944773092,MAFE4ImagesEEG,001,100341,
AFNE01.JPG,AFNE01.JPG,AFNE01.JPG,AFNE01.JPG,AFNE01.JPG,AFNE01.JPG,,,,,0,0,0,9,,,,,,,,,,,,,,,,,,,AFSA08.jpg,AFNE12.jpg,AFSA10.jpg,AFNE09.jpg,AFNE09.jpg,FN,3,num_4,16,num_4,0.833459116518,,,2017_May_02_1203,59.9944773092,MAFE4ImagesEEG,001,100341,
AFNE01.JPG,AFNE01.JPG,AFNE01.JPG,AFNE01.JPG,AFNE01.JPG,AFNE01.JPG,,,,,0,1,1,4,,,,,,,,,,,,,,,,,,,AFNE20.jpg,AFSA05.jpg,AFSA11.jpg,AFNE12.jpg,AFNE12.jpg,FN,3,num_4,32,num_6,0.733469989616,,,2017_May_02_1203,59.9944773092,MAFE4ImagesEEG,001,100341,
AFNE01.JPG,AFNE01.JPG,AFNE01.JPG,AFNE01.JPG,AFNE01.JPG,AFNE01.JPG,,,,,0,2,2,7,,,,,,,,,,,,,,,,,,,AFSA10.jpg,AFSA11.jpg,AFNE05.jpg,AFNE15.jpg,AFSA11.jpg,FS,4,num_6,32,num_2,1.13344510016,,,2017_May_02_1203,59.9944773092,MAFE4ImagesEEG,001,100341,
AFNE01.JPG,AFNE01.JPG,AFNE01.JPG,AFNE01.JPG,AFNE01.JPG,AFNE01.JPG,,,,,0,3,3,5,,,,,,,,,,,,,,,,,,,AFNE04.jpg,AFSA09.jpg,AFSA15.jpg,AFNE15.jpg,AFNE04.jpg,FN,3,num_8,32,num_4,1.18343485263,,,2017_May_02_1203,59.9944773092,MAFE4ImagesEEG,001,100341,
AFNE01.JPG,AFNE01.JPG,AFNE01.JPG,AFNE01.JPG,AFNE01.JPG,AFNE01.JPG,,,,,0,4,4,3,,,,,,,,,,,,,,,,,,,AFNE07.jpg,AFNE15.jpg,AFSA16.jpg,AFSA12.jpg,AFSA12.jpg,FS,4,num_4,16,num_4,1.01673135441,,,2017_May_02_1203,59.9944773092,MAFE4ImagesEEG,001,100341,
AFNE01.JPG,AFNE01.JPG,AFNE01.JPG,AFNE01.JPG,AFNE01.JPG,AFNE01.JPG,,,,,0,5,5,1,,,,,,,,,,,,,,,,,,,AFSA15.jpg,AFNE03.jpg,AFNE18.jpg,AFSA16.jpg,AFNE18.jpg,FN,3,num_2,32,num_4,1.1500953075,,,2017_May_02_1203,59.9944773092,MAFE4ImagesEEG,001,100341,
AFNE01.JPG,AFNE01.JPG,AFNE01.JPG,AFNE01.JPG,AFNE01.JPG,AFNE01.JPG,,,,,0,6,6,6,,,,,,,,,,,,,,,,,,,AFSA17.jpg,AFNE13.jpg,AFSA11.jpg,AFNE16.jpg,AFNE13.jpg,FN,3,num_6,32,num_4,0.983438957948,,,2017_May_02_1203,59.9944773092,MAFE4ImagesEEG,001,100341,
AFNE01.JPG,AFNE01.JPG,AFNE01.JPG,AFNE01.JPG,AFNE01.JPG,AFNE01.JPG,,,,,0,7,7,2,,,,,,,,,,,,,,,,,,,AFNE19.jpg,AFNE17.jpg,AFSA13.jpg,AFSA02.jpg,AFSA02.jpg,FS,4,num_4,32,num_8,1.31673112977,,,2017_May_02_1203,59.9944773092,MAFE4ImagesEEG,001,100341,
AFNE01.JPG,AFNE01.JPG,AFNE01.JPG,AFNE01.JPG,AFNE01.JPG,AFNE01.JPG,,,,,0,8,8,8,,,,,,,,,,,,,,,,,,,AFSA15.jpg,AFNE05.jpg,AFNE02.jpg,AFSA19.jpg,AFNE05.jpg,FN,3,num_6,32,num_2,1.73338403134,,,2017_May_02_1203,59.9944773092,MAFE4ImagesEEG,001,100341,
AFNE01.JPG,AFNE01.JPG,AFNE01.JPG,AFNE01.JPG,AFNE01.JPG,AFNE01.JPG,,,,,0,9,9,0,,,,,,,,,,,,,,,,,,,AFNE10.jpg,AFSA11.jpg,AFNE19.jpg,AFSA15.jpg,AFNE19.jpg,FN,3,num_2,32,num_8,1.23344513238,,,2017_May_02_1203,59.9944773092,MAFE4ImagesEEG,001,100341,
AFNE01.JPG,AFNE01.JPG,AFNE01.JPG,AFNE01.JPG,AFNE01.JPG,AFNE01.JPG,,,,,1,0,10,7,,,,,,,,,,,,,,,,,,,AFSA15.jpg,AFNE17.jpg,AFSA17.jpg,AFNE19.jpg,AFSA17.jpg,FS,4,num_2,32,num_6,1.40003861696,,,2017_May_02_1203,59.9944773092,MAFE4ImagesEEG,001,100341,
AFNE01.JPG,AFNE01.JPG,AFNE01.JPG,AFNE01.JPG,AFNE01.JPG,AFNE01.JPG,,,,,1,1,11,5,,,,,,,,,,,,,,,,,,,AFNE11.jpg,AFNE01.jpg,AFSA08.jpg,AFSA01.jpg,AFNE01.jpg,FN,3,num_6,32,num_8,1.35008190083,,,2017_May_02_1203,59.9944773092,MAFE4ImagesEEG,001,100341,
AFNE01.JPG,AFNE01.JPG,AFNE01.JPG,AFNE01.JPG,AFNE01.JPG,AFNE01.JPG,,,,,1,2,12,8,,,,,,,,,,,,,,,,,,,AFNE10.jpg,AFSA08.jpg,AFNE17.jpg,AFSA12.jpg,AFNE17.jpg,FN,3,num_2,32,num_8,1.13343772315,,,2017_May_02_1203,59.9944773092,MAFE4ImagesEEG,001,100341,
AFNE01.JPG,AFNE01.JPG,AFNE01.JPG,AFNE01.JPG,AFNE01.JPG,AFNE01.JPG,,,,,1,3,13,4,,,,,,,,,,,,,,,,,,,AFNE06.jpg,AFNE05.jpg,AFSA02.jpg,AFSA04.jpg,AFNE05.jpg,FN,3,num_6,32,num_8,0.800159663893,,,2017_May_02_1203,59.9944773092,MAFE4ImagesEEG,001,100341,
AFNE01.JPG,AFNE01.JPG,AFNE01.JPG,AFNE01.JPG,AFNE01.JPG,AFNE01.JPG,,,,,1,4,14,2,,,,,,,,,,,,,,,,,,,AFNE17.jpg,AFSA14.jpg,AFNE05.jpg,AFSA10.jpg,AFSA10.jpg,FS,4,num_4,16,num_4,1.18341945717,,,2017_May_02_1203,59.9944773092,MAFE4ImagesEEG,001,100341,
AFNE01.JPG,AFNE01.JPG,AFNE01.JPG,AFNE01.JPG,AFNE01.JPG,AFNE01.JPG,,,,,1,5,15,6,,,,,,,,,,,,,,,,,,,AFNE03.jpg,AFSA07.jpg,AFSA09.jpg,AFNE17.jpg,AFSA07.jpg,FS,4,num_6,16,num_6,1.10011870554,,,2017_May_02_1203,59.9944773092,MAFE4ImagesEEG,001,100341,
AFNE01.JPG,AFNE01.JPG,AFNE01.JPG,AFNE01.JPG,AFNE01.JPG,AFNE01.JPG,,,,,1,6,16,1,,,,,,,,,,,,,,,,,,,AFSA20.jpg,AFNE09.jpg,AFSA09.jpg,AFNE04.jpg,AFSA09.jpg,FS,4,num_2,16,num_2,1.50009638211,,,2017_May_02_1203,59.9944773092,MAFE4ImagesEEG,001,100341,
AFNE01.JPG,AFNE01.JPG,AFNE01.JPG,AFNE01.JPG,AFNE01.JPG,AFNE01.JPG,,,,,1,7,17,3,,,,,,,,,,,,,,,,,,,AFNE05.jpg,AFSA16.jpg,AFSA04.jpg,AFNE14.jpg,AFNE14.jpg,FN,3,num_4,32,num_8,1.51673504291,,,2017_May_02_1203,59.9944773092,MAFE4ImagesEEG,001,100341,
AFNE01.JPG,AFNE01.JPG,AFNE01.JPG,AFNE01.JPG,AFNE01.JPG,AFNE01.JPG,,,,,1,8,18,0,,,,,,,,,,,,,,,,,,,AFNE10.jpg,AFSA04.jpg,AFNE16.jpg,AFSA12.jpg,AFSA12.jpg,FS,4,num_4,16,num_4,0.866784228245,,,2017_May_02_1203,59.9944773092,MAFE4ImagesEEG,001,100341,
AFNE01.JPG,AFNE01.JPG,AFNE01.JPG,AFNE01.JPG,AFNE01.JPG,AFNE01.JPG,,,,,1,9,19,9,,,,,,,,,,,,,,,,,,,AFNE16.jpg,AFNE09.jpg,AFSA06.jpg,AFSA17.jpg,AFSA17.jpg,FS,4,num_4,16,num_4,0.98340688413,,,2017_May_02_1203,59.9944773092,MAFE4ImagesEEG,001,100341,
AFNE01.JPG,AFNE01.JPG,AFNE01.JPG,AFNE01.JPG,AFNE01.JPG,AFNE01.JPG,,,,,2,0,20,3,,,,,,,,,,,,,,,,,,,AFNE02.jpg,AFSA07.jpg,AFSA11.jpg,AFNE07.jpg,AFSA11.jpg,FS,4,num_2,32,num_6,1.01672044909,,,2017_May_02_1203,59.9944773092,MAFE4ImagesEEG,001,100341,
AFNE01.JPG,AFNE01.JPG,AFNE01.JPG,AFNE01.JPG,AFNE01.JPG,AFNE01.JPG,,,,,2,1,21,2,,,,,,,,,,,,,,,,,,,AFNE19.jpg,AFSA16.jpg,AFSA05.jpg,AFNE12.jpg,AFNE19.jpg,FN,3,num_8,32,num_4,0.649981926428,,,2017_May_02_1203,59.9944773092,MAFE4ImagesEEG,001,100341,
AFNE01.JPG,AFNE01.JPG,AFNE01.JPG,AFNE01.JPG,AFNE01.JPG,AFNE01.JPG,,,,,2,2,22,7,,,,,,,,,,,,,,,,,,,AFNE08.jpg,AFNE03.jpg,AFSA07.jpg,AFSA01.jpg,AFSA07.jpg,FS,4,num_2,16,num_2,1.26683150511,,,2017_May_02_1203,59.9944773092,MAFE4ImagesEEG,001,100341,
AFNE01.JPG,AFNE01.JPG,AFNE01.JPG,AFNE01.JPG,AFNE01.JPG,AFNE01.JPG,,,,,2,3,23,0,,,,,,,,,,,,,,,,,,,AFSA20.jpg,AFNE10.jpg,AFSA03.jpg,AFNE01.jpg,AFSA03.jpg,FS,4,num_2,32,num_6,1.61668664333,,,2017_May_02_1203,59.9944773092,MAFE4ImagesEEG,001,100341,
AFNE01.JPG,AFNE01.JPG,AFNE01.JPG,AFNE01.JPG,AFNE01.JPG,AFNE01.JPG,,,,,2,4,24,1,,,,,,,,,,,,,,,,,,,AFSA01.jpg,AFSA13.jpg,AFNE10.jpg,AFNE15.jpg,AFNE10.jpg,FN,3,num_2,16,num_2,1.01673712768,,,2017_May_02_1203,59.9944773092,MAFE4ImagesEEG,001,100341,
AFNE01.JPG,AFNE01.JPG,AFNE01.JPG,AFNE01.JPG,AFNE01.JPG,AFNE01.JPG,,,,,2,5,25,9,,,,,,,,,,,,,,,,,,,AFNE13.jpg,AFNE20.jpg,AFSA18.jpg,AFSA12.jpg,AFSA12.jpg,FS,4,num_4,16,num_4,0.91679290426,,,2017_May_02_1203,59.9944773092,MAFE4ImagesEEG,001,100341,
AFNE01.JPG,AFNE01.JPG,AFNE01.JPG,AFNE01.JPG,AFNE01.JPG,AFNE01.JPG,,,,,2,6,26,4,,,,,,,,,,,,,,,,,,,AFNE10.jpg,AFSA20.jpg,AFSA10.jpg,AFNE04.jpg,AFSA20.jpg,FS,4,num_6,32,num_8,3.44960371079,,,2017_May_02_1203,59.9944773092,MAFE4ImagesEEG,001,100341,
AFNE01.JPG,AFNE01.JPG,AFNE01.JPG,AFNE01.JPG,AFNE01.JPG,AFNE01.JPG,,,,,2,7,27,8,,,,,,,,,,,,,,,,,,,AFSA08.jpg,AFSA06.jpg,AFNE13.jpg,AFNE18.jpg,AFSA08.jpg,FS,4,num_8,32,num_6,1.01680352073,,,2017_May_02_1203,59.9944773092,MAFE4ImagesEEG,001,100341,
AFNE01.JPG,AFNE01.JPG,AFNE01.JPG,AFNE01.JPG,AFNE01.JPG,AFNE01.JPG,,,,,2,8,28,5,,,,,,,,,,,,,,,,,,,AFNE08.jpg,AFSA03.jpg,AFSA01.jpg,AFNE06.jpg,AFSA03.jpg,FS,4,num_6,16,num_6,0.88349569682,,,2017_May_02_1203,59.9944773092,MAFE4ImagesEEG,001,100341,
AFNE01.JPG,AFNE01.JPG,AFNE01.JPG,AFNE01.JPG,AFNE01.JPG,AFNE01.JPG,,,,,2,9,29,6,,,,,,,,,,,,,,,,,,,AFNE07.jpg,AFSA11.jpg,AFSA04.jpg,AFNE03.jpg,AFNE03.jpg,FN,3,num_4,16,num_4,0.566791188437,,,2017_May_02_1203,59.9944773092,MAFE4ImagesEEG,001,100341,
AFNE01.JPG,AFNE01.JPG,AFNE01.JPG,AFNE01.JPG,AFNE01.JPG,AFNE01.JPG,,,,,3,0,30,1,,,,,,,,,,,,,,,,,,,AFSA07.jpg,AFNE11.jpg,AFSA08.jpg,AFNE07.jpg,AFNE07.jpg,FN,3,num_4,32,num_8,0.550147716189,,,2017_May_02_1203,59.9944773092,MAFE4ImagesEEG,001,100341,
AFNE01.JPG,AFNE01.JPG,AFNE01.JPG,AFNE01.JPG,AFNE01.JPG,AFNE01.JPG,,,,,3,1,31,0,,,,,,,,,,,,,,,,,,,AFNE15.jpg,AFSA07.jpg,AFNE08.jpg,AFSA15.jpg,AFSA15.jpg,FS,4,num_4,16,num_4,0.883450472495,,,2017_May_02_1203,59.9944773092,MAFE4ImagesEEG,001,100341,
AFNE01.JPG,AFNE01.JPG,AFNE01.JPG,AFNE01.JPG,AFNE01.JPG,AFNE01.JPG,,,,,3,2,32,9,,,,,,,,,,,,,,,,,,,AFNE02.jpg,AFNE19.jpg,AFSA01.jpg,AFSA06.jpg,AFNE19.jpg,FN,3,num_6,16,num_6,1.70012691664,,,2017_May_02_1203,59.9944773092,MAFE4ImagesEEG,001,100341,
AFNE01.JPG,AFNE01.JPG,AFNE01.JPG,AFNE01.JPG,AFNE01.JPG,AFNE01.JPG,,,,,3,3,33,2,,,,,,,,,,,,,,,,,,,AFNE15.jpg,AFSA17.jpg,AFSA15.jpg,AFNE19.jpg,AFSA17.jpg,FS,4,num_6,16,num_6,0.766782913357,,,2017_May_02_1203,59.9944773092,MAFE4ImagesEEG,001,100341,
AFNE01.JPG,AFNE01.JPG,AFNE01.JPG,AFNE01.JPG,AFNE01.JPG,AFNE01.JPG,,,,,3,4,34,4,,,,,,,,,,,,,,,,,,,AFNE19.jpg,AFNE04.jpg,AFSA20.jpg,AFSA19.jpg,AFNE19.jpg,FN,3,num_8,16,num_8,1.50006527035,,,2017_May_02_1203,59.9944773092,MAFE4ImagesEEG,001,100341,
AFNE01.JPG,AFNE01.JPG,AFNE01.JPG,AFNE01.JPG,AFNE01.JPG,AFNE01.JPG,,,,,3,5,35,3,,,,,,,,,,,,,,,,,,,AFNE08.jpg,AFNE17.jpg,AFSA19.jpg,AFSA13.jpg,AFSA19.jpg,FS,4,num_2,16,num_2,1.3501075597,,,2017_May_02_1203,59.9944773092,MAFE4ImagesEEG,001,100341,
AFNE01.JPG,AFNE01.JPG,AFNE01.JPG,AFNE01.JPG,AFNE01.JPG,AFNE01.JPG,,,,,3,6,36,7,,,,,,,,,,,,,,,,,,,AFNE11.jpg,AFNE17.jpg,AFSA12.jpg,AFSA07.jpg,AFNE11.jpg,FN,3,num_8,32,num_6,1.01676759799,,,2017_May_02_1203,59.9944773092,MAFE4ImagesEEG,001,100341,
AFNE01.JPG,AFNE01.JPG,AFNE01.JPG,AFNE01.JPG,AFNE01.JPG,AFNE01.JPG,,,,,3,7,37,5,,,,,,,,,,,,,,,,,,,AFNE07.jpg,AFNE03.jpg,AFSA17.jpg,AFSA06.jpg,AFSA06.jpg,FS,4,num_4,32,num_2,0.83349503926,,,2017_May_02_1203,59.9944773092,MAFE4ImagesEEG,001,100341,
AFNE01.JPG,AFNE01.JPG,AFNE01.JPG,AFNE01.JPG,AFNE01.JPG,AFNE01.JPG,,,,,3,8,38,6,,,,,,,,,,,,,,,,,,,AFNE11.jpg,AFSA01.jpg,AFSA04.jpg,AFNE08.jpg,AFNE08.jpg,FN,3,num_4,16,num_4,0.716825876152,,,2017_May_02_1203,59.9944773092,MAFE4ImagesEEG,001,100341,
AFNE01.JPG,AFNE01.JPG,AFNE01.JPG,AFNE01.JPG,AFNE01.JPG,AFNE01.JPG,,,,,3,9,39,8,,,,,,,,,,,,,,,,,,,AFSA07.jpg,AFNE15.jpg,AFNE02.jpg,AFSA03.jpg,AFNE02.jpg,FN,3,num_2,32,num_4,1.00014593638,,,2017_May_02_1203,59.9944773092,MAFE4ImagesEEG,001,100341,
AFNE01.JPG,AFNE01.JPG,AFNE01.JPG,AFNE01.JPG,AFNE01.JPG,AFNE01.JPG,,,,,4,0,40,5,,,,,,,,,,,,,,,,,,,AFNE17.jpg,AFNE14.jpg,AFSA01.jpg,AFSA08.jpg,AFNE17.jpg,FN,3,num_8,16,num_8,3.0165815691,,,2017_May_02_1203,59.9944773092,MAFE4ImagesEEG,001,100341,
AFNE01.JPG,AFNE01.JPG,AFNE01.JPG,AFNE01.JPG,AFNE01.JPG,AFNE01.JPG,,,,,4,1,41,1,,,,,,,,,,,,,,,,,,,AFSA18.jpg,AFNE19.jpg,AFSA08.jpg,AFNE14.jpg,AFSA18.jpg,FS,4,num_8,32,num_2,0.966771430802,,,2017_May_02_1203,59.9944773092,MAFE4ImagesEEG,001,100341,
AFNE01.JPG,AFNE01.JPG,AFNE01.JPG,AFNE01.JPG,AFNE01.JPG,AFNE01.JPG,,,,,4,2,42,0,,,,,,,,,,,,,,,,,,,AFNE12.jpg,AFSA04.jpg,AFNE02.jpg,AFSA12.jpg,AFSA04.jpg,FS,4,num_6,16,num_6,1.30008380907,,,2017_May_02_1203,59.9944773092,MAFE4ImagesEEG,001,100341,
AFNE01.JPG,AFNE01.JPG,AFNE01.JPG,AFNE01.JPG,AFNE01.JPG,AFNE01.JPG,,,,,4,3,43,2,,,,,,,,,,,,,,,,,,,AFSA05.jpg,AFNE18.jpg,AFNE02.jpg,AFSA11.jpg,AFNE18.jpg,FN,3,num_6,16,num_6,0.933425150346,,,2017_May_02_1203,59.9944773092,MAFE4ImagesEEG,001,100341,
AFNE01.JPG,AFNE01.JPG,AFNE01.JPG,AFNE01.JPG,AFNE01.JPG,AFNE01.JPG,,,,,4,4,44,7,,,,,,,,,,,,,,,,,,,AFNE12.jpg,AFNE15.jpg,AFSA20.jpg,AFSA16.jpg,AFNE12.jpg,FN,3,num_8,32,num_6,0.60012752586,,,2017_May_02_1203,59.9944773092,MAFE4ImagesEEG,001,100341,
AFNE01.JPG,AFNE01.JPG,AFNE01.JPG,AFNE01.JPG,AFNE01.JPG,AFNE01.JPG,,,,,4,5,45,9,,,,,,,,,,,,,,,,,,,AFSA10.jpg,AFSA04.jpg,AFNE17.jpg,AFNE03.jpg,AFSA10.jpg,FS,4,num_8,16,num_8,0.583459357033,,,2017_May_02_1203,59.9944773092,MAFE4ImagesEEG,001,100341,
AFNE01.JPG,AFNE01.JPG,AFNE01.JPG,AFNE01.JPG,AFNE01.JPG,AFNE01.JPG,,,,,4,6,46,3,,,,,,,,,,,,,,,,,,,AFNE01.jpg,AFSA08.jpg,AFSA16.jpg,AFNE14.jpg,AFSA16.jpg,FS,4,num_2,32,num_6,1.71669309004,,,2017_May_02_1203,59.9944773092,MAFE4ImagesEEG,001,100341,
AFNE01.JPG,AFNE01.JPG,AFNE01.JPG,AFNE01.JPG,AFNE01.JPG,AFNE01.JPG,,,,,4,7,47,8,,,,,,,,,,,,,,,,,,,AFSA20.jpg,AFNE15.jpg,AFSA08.jpg,AFNE03.jpg,AFNE03.jpg,FN,3,num_4,16,num_4,1.5164159073,,,2017_May_02_1203,59.9944773092,MAFE4ImagesEEG,001,100341,
AFNE01.JPG,AFNE01.JPG,AFNE01.JPG,AFNE01.JPG,AFNE01.JPG,AFNE01.JPG,,,,,4,8,48,6,,,,,,,,,,,,,,,,,,,AFSA11.jpg,AFNE18.jpg,AFSA09.jpg,AFNE13.jpg,AFNE13.jpg,FN,3,num_4,32,num_8,0.900103245862,,,2017_May_02_1203,59.9944773092,MAFE4ImagesEEG,001,100341,
AFNE01.JPG,AFNE01.JPG,AFNE01.JPG,AFNE01.JPG,AFNE01.JPG,AFNE01.JPG,,,,,4,9,49,4,,,,,,,,,,,,,,,,,,,AFSA07.jpg,AFSA03.jpg,AFNE06.jpg,AFNE03.jpg,AFSA07.jpg,FS,4,num_8,32,num_6,0.716795406071,,,2017_May_02_1203,59.9944773092,MAFE4ImagesEEG,001,100341,
AFNE01.JPG,AFNE01.JPG,AFNE01.JPG,AFNE01.JPG,AFNE01.JPG,AFNE01.JPG,,,,,5,0,50,1,,,,,,,,,,,,,,,,,,,AFSA06.jpg,AFNE15.jpg,AFSA19.jpg,AFNE12.jpg,AFSA19.jpg,FS,4,num_2,16,num_2,1.15014373907,,,2017_May_02_1203,59.9944773092,MAFE4ImagesEEG,001,100341,
AFNE01.JPG,AFNE01.JPG,AFNE01.JPG,AFNE01.JPG,AFNE01.JPG,AFNE01.JPG,,,,,5,1,51,7,,,,,,,,,,,,,,,,,,,AFSA13.jpg,AFSA06.jpg,AFNE09.jpg,AFNE13.jpg,AFNE09.jpg,FN,3,num_2,16,num_2,1.33343490073,,,2017_May_02_1203,59.9944773092,MAFE4ImagesEEG,001,100341,
AFNE01.JPG,AFNE01.JPG,AFNE01.JPG,AFNE01.JPG,AFNE01.JPG,AFNE01.JPG,,,,,5,2,52,8,,,,,,,,,,,,,,,,,,,AFSA14.jpg,AFSA09.jpg,AFNE08.jpg,AFNE06.jpg,AFNE08.jpg,FN,3,num_2,32,num_4,0.783460383303,,,2017_May_02_1203,59.9944773092,MAFE4ImagesEEG,001,100341,
AFNE01.JPG,AFNE01.JPG,AFNE01.JPG,AFNE01.JPG,AFNE01.JPG,AFNE01.JPG,,,,,5,3,53,9,,,,,,,,,,,,,,,,,,,AFSA12.jpg,AFNE15.jpg,AFNE20.jpg,AFSA16.jpg,AFSA16.jpg,FS,4,num_4,16,num_4,0.850084627047,,,2017_May_02_1203,59.9944773092,MAFE4ImagesEEG,001,100341,
AFNE01.JPG,AFNE01.JPG,AFNE01.JPG,AFNE01.JPG,AFNE01.JPG,AFNE01.JPG,,,,,5,4,54,2,,,,,,,,,,,,,,,,,,,AFNE09.jpg,AFSA08.jpg,AFSA06.jpg,AFNE04.jpg,AFNE04.jpg,FN,3,num_4,16,num_4,0.883523601107,,,2017_May_02_1203,59.9944773092,MAFE4ImagesEEG,001,100341,
AFNE01.JPG,AFNE01.JPG,AFNE01.JPG,AFNE01.JPG,AFNE01.JPG,AFNE01.JPG,,,,,5,5,55,6,,,,,,,,,,,,,,,,,,,AFSA10.jpg,AFSA19.jpg,AFNE07.jpg,AFNE06.jpg,AFNE07.jpg,FN,3,num_2,32,num_8,1.73338242783,,,2017_May_02_1203,59.9944773092,MAFE4ImagesEEG,001,100341,
AFNE01.JPG,AFNE01.JPG,AFNE01.JPG,AFNE01.JPG,AFNE01.JPG,AFNE01.JPG,,,,,5,6,56,4,,,,,,,,,,,,,,,,,,,AFSA16.jpg,AFSA17.jpg,AFNE15.jpg,AFNE05.jpg,AFSA17.jpg,FS,4,num_6,16,num_6,0.766843532911,,,2017_May_02_1203,59.9944773092,MAFE4ImagesEEG,001,100341,
AFNE01.JPG,AFNE01.JPG,AFNE01.JPG,AFNE01.JPG,AFNE01.JPG,AFNE01.JPG,,,,,5,7,57,3,,,,,,,,,,,,,,,,,,,AFSA06.jpg,AFNE18.jpg,AFSA04.jpg,AFNE15.jpg,AFNE15.jpg,FN,3,num_4,16,num_4,0.633466108702,,,2017_May_02_1203,59.9944773092,MAFE4ImagesEEG,001,100341,
AFNE01.JPG,AFNE01.JPG,AFNE01.JPG,AFNE01.JPG,AFNE01.JPG,AFNE01.JPG,,,,,5,8,58,0,,,,,,,,,,,,,,,,,,,AFNE08.jpg,AFNE11.jpg,AFSA05.jpg,AFSA12.jpg,AFNE11.jpg,FN,3,num_6,32,num_8,2.13303519576,,,2017_May_02_1203,59.9944773092,MAFE4ImagesEEG,001,100341,
AFNE01.JPG,AFNE01.JPG,AFNE01.JPG,AFNE01.JPG,AFNE01.JPG,AFNE01.JPG,,,,,5,9,59,5,,,,,,,,,,,,,,,,,,,AFNE17.jpg,AFSA03.jpg,AFSA10.jpg,AFNE18.jpg,AFNE18.jpg,FN,3,num_4,16,num_4,0.550167281413,,,2017_May_02_1203,59.9944773092,MAFE4ImagesEEG,001,100341,
,,,,,,,,,,,,,,,,,,,,,,,,,,,,,,,,,,,,,,,,,,,space,18.4990007374,2017_May_02_1203,59.9944773092,MAFE4ImagesEEG,001,100341,
AFNE01.JPG,AFNE01.JPG,AFNE01.JPG,AFNE01.JPG,AFNE01.JPG,AFNE01.JPG,,,,,,,,,0,0,0,3,,,,,,,,,,,,,,,AMNE01.jpg,AMNE05.jpg,AMSA11.jpg,AMSA13.jpg,AMSA11.jpg,MS,2,num_2,16,num_2,0.783472250681,,,2017_May_02_1203,59.9944773092,MAFE4ImagesEEG,001,100341,
AFNE01.JPG,AFNE01.JPG,AFNE01.JPG,AFNE01.JPG,AFNE01.JPG,AFNE01.JPG,,,,,,,,,0,1,1,4,,,,,,,,,,,,,,,AMNE07.jpg,AMSA07.jpg,AMSA03.jpg,AMNE19.jpg,AMSA07.jpg,MS,2,num_6,32,num_4,0.883493451634,,,2017_May_02_1203,59.9944773092,MAFE4ImagesEEG,001,100341,
AFNE01.JPG,AFNE01.JPG,AFNE01.JPG,AFNE01.JPG,AFNE01.JPG,AFNE01.JPG,,,,,,,,,0,2,2,6,,,,,,,,,,,,,,,AMNE10.jpg,AMSA15.jpg,AMSA16.jpg,AMNE14.jpg,AMSA16.jpg,MS,2,num_2,16,num_2,0.683477671118,,,2017_May_02_1203,59.9944773092,MAFE4ImagesEEG,001,100341,
AFNE01.JPG,AFNE01.JPG,AFNE01.JPG,AFNE01.JPG,AFNE01.JPG,AFNE01.JPG,,,,,,,,,0,3,3,1,,,,,,,,,,,,,,,AMSA11.jpg,AMSA16.jpg,AMNE13.jpg,AMNE02.jpg,AMNE02.jpg,MN,1,num_4,16,num_4,0.816624484025,,,2017_May_02_1203,59.9944773092,MAFE4ImagesEEG,001,100341,
AFNE01.JPG,AFNE01.JPG,AFNE01.JPG,AFNE01.JPG,AFNE01.JPG,AFNE01.JPG,,,,,,,,,0,4,4,2,,,,,,,,,,,,,,,AMSA05.jpg,AMSA13.jpg,AMNE19.jpg,AMNE17.jpg,AMSA13.jpg,MS,2,num_6,32,num_4,2.13333893544,,,2017_May_02_1203,59.9944773092,MAFE4ImagesEEG,001,100341,
AFNE01.JPG,AFNE01.JPG,AFNE01.JPG,AFNE01.JPG,AFNE01.JPG,AFNE01.JPG,,,,,,,,,0,5,5,0,,,,,,,,,,,,,,,AMNE16.jpg,AMSA15.jpg,AMSA13.jpg,AMNE10.jpg,AMNE10.jpg,MN,1,num_4,16,num_4,1.26677184762,,,2017_May_02_1203,59.9944773092,MAFE4ImagesEEG,001,100341,
AFNE01.JPG,AFNE01.JPG,AFNE01.JPG,AFNE01.JPG,AFNE01.JPG,AFNE01.JPG,,,,,,,,,0,6,6,9,,,,,,,,,,,,,,,AMSA16.jpg,AMNE08.jpg,AMSA17.jpg,AMNE17.jpg,AMNE17.jpg,MN,1,num_4,16,num_4,0.933451450896,,,2017_May_02_1203,59.9944773092,MAFE4ImagesEEG,001,100341,
AFNE01.JPG,AFNE01.JPG,AFNE01.JPG,AFNE01.JPG,AFNE01.JPG,AFNE01.JPG,,,,,,,,,0,7,7,5,,,,,,,,,,,,,,,AMSA03.jpg,AMNE08.jpg,AMSA14.jpg,AMNE18.jpg,AMSA14.jpg,MS,2,num_2,16,num_2,0.733487950871,,,2017_May_02_1203,59.9944773092,MAFE4ImagesEEG,001,100341,
AFNE01.JPG,AFNE01.JPG,AFNE01.JPG,AFNE01.JPG,AFNE01.JPG,AFNE01.JPG,,,,,,,,,0,8,8,7,,,,,,,,,,,,,,,AMNE11.jpg,AMSA05.jpg,AMNE01.jpg,AMSA16.jpg,AMSA05.jpg,MS,2,num_6,16,num_6,0.55010153004,,,2017_May_02_1203,59.9944773092,MAFE4ImagesEEG,001,100341,
AFNE01.JPG,AFNE01.JPG,AFNE01.JPG,AFNE01.JPG,AFNE01.JPG,AFNE01.JPG,,,,,,,,,0,9,9,8,,,,,,,,,,,,,,,AMSA16.jpg,AMSA06.jpg,AMNE09.jpg,AMNE15.jpg,AMNE09.jpg,MN,1,num_2,16,num_2,1.21671185363,,,2017_May_02_1203,59.9944773092,MAFE4ImagesEEG,001,100341,
AFNE01.JPG,AFNE01.JPG,AFNE01.JPG,AFNE01.JPG,AFNE01.JPG,AFNE01.JPG,,,,,,,,,1,0,10,5,,,,,,,,,,,,,,,AMNE18.jpg,AMNE17.jpg,AMSA05.jpg,AMSA06.jpg,AMNE17.jpg,MN,1,num_6,16,num_6,0.966772713698,,,2017_May_02_1203,59.9944773092,MAFE4ImagesEEG,001,100341,
AFNE01.JPG,AFNE01.JPG,AFNE01.JPG,AFNE01.JPG,AFNE01.JPG,AFNE01.JPG,,,,,,,,,1,1,11,8,,,,,,,,,,,,,,,AMSA19.jpg,AMNE07.jpg,AMNE04.jpg,AMSA09.jpg,AMNE04.jpg,MN,1,num_2,32,num_6,1.1167714789,,,2017_May_02_1203,59.9944773092,MAFE4ImagesEEG,001,100341,
AFNE01.JPG,AFNE01.JPG,AFNE01.JPG,AFNE01.JPG,AFNE01.JPG,AFNE01.JPG,,,,,,,,,1,2,12,3,,,,,,,,,,,,,,,AMSA09.jpg,AMSA20.jpg,AMNE17.jpg,AMNE02.jpg,AMNE02.jpg,MN,1,num_4,16,num_4,0.566793433391,,,2017_May_02_1203,59.9944773092,MAFE4ImagesEEG,001,100341,
AFNE01.JPG,AFNE01.JPG,AFNE01.JPG,AFNE01.JPG,AFNE01.JPG,AFNE01.JPG,,,,,,,,,1,3,13,1,,,,,,,,,,,,,,,AMSA15.jpg,AMNE06.jpg,AMSA10.jpg,AMNE16.jpg,AMNE06.jpg,MN,1,num_6,16,num_6,0.900074058678,,,2017_May_02_1203,59.9944773092,MAFE4ImagesEEG,001,100341,
AFNE01.JPG,AFNE01.JPG,AFNE01.JPG,AFNE01.JPG,AFNE01.JPG,AFNE01.JPG,,,,,,,,,1,4,14,7,,,,,,,,,,,,,,,AMNE19.jpg,AMSA14.jpg,AMSA01.jpg,AMNE15.jpg,AMSA14.jpg,MS,2,num_6,32,num_8,0.983414261136,,,2017_May_02_1203,59.9944773092,MAFE4ImagesEEG,001,100341,
AFNE01.JPG,AFNE01.JPG,AFNE01.JPG,AFNE01.JPG,AFNE01.JPG,AFNE01.JPG,,,,,,,,,1,5,15,4,,,,,,,,,,,,,,,AMNE12.jpg,AMNE16.jpg,AMSA06.jpg,AMSA18.jpg,AMSA18.jpg,MS,2,num_4,16,num_4,0.76673704735,,,2017_May_02_1203,59.9944773092,MAFE4ImagesEEG,001,100341,
AFNE01.JPG,AFNE01.JPG,AFNE01.JPG,AFNE01.JPG,AFNE01.JPG,AFNE01.JPG,,,,,,,,,1,6,16,0,,,,,,,,,,,,,,,AMNE18.jpg,AMSA08.jpg,AMNE01.jpg,AMSA09.jpg,AMSA09.jpg,MS,2,num_4,32,num_6,0.900135640521,,,2017_May_02_1203,59.9944773092,MAFE4ImagesEEG,001,100341,
AFNE01.JPG,AFNE01.JPG,AFNE01.JPG,AFNE01.JPG,AFNE01.JPG,AFNE01.JPG,,,,,,,,,1,7,17,6,,,,,,,,,,,,,,,AMNE04.jpg,AMSA18.jpg,AMNE16.jpg,AMSA05.jpg,AMNE16.jpg,MN,1,num_2,16,num_2,1.35005143052,,,2017_May_02_1203,59.9944773092,MAFE4ImagesEEG,001,100341,
AFNE01.JPG,AFNE01.JPG,AFNE01.JPG,AFNE01.JPG,AFNE01.JPG,AFNE01.JPG,,,,,,,,,1,8,18,9,,,,,,,,,,,,,,,AMNE02.jpg,AMSA08.jpg,AMNE11.jpg,AMSA14.jpg,AMSA14.jpg,MS,2,num_4,16,num_4,0.53346543503,,,2017_May_02_1203,59.9944773092,MAFE4ImagesEEG,001,100341,
AFNE01.JPG,AFNE01.JPG,AFNE01.JPG,AFNE01.JPG,AFNE01.JPG,AFNE01.JPG,,,,,,,,,1,9,19,2,,,,,,,,,,,,,,,AMNE16.jpg,AMNE07.jpg,AMSA03.jpg,AMSA12.jpg,AMNE07.jpg,MN,1,num_6,16,num_6,0.50013294653,,,2017_May_02_1203,59.9944773092,MAFE4ImagesEEG,001,100341,
AFNE01.JPG,AFNE01.JPG,AFNE01.JPG,AFNE01.JPG,AFNE01.JPG,AFNE01.JPG,,,,,,,,,2,0,20,5,,,,,,,,,,,,,,,AMNE19.jpg,AMNE02.jpg,AMSA17.jpg,AMSA20.jpg,AMNE02.jpg,MN,1,num_6,16,num_6,0.583501373883,,,2017_May_02_1203,59.9944773092,MAFE4ImagesEEG,001,100341,
AFNE01.JPG,AFNE01.JPG,AFNE01.JPG,AFNE01.JPG,AFNE01.JPG,AFNE01.JPG,,,,,,,,,2,1,21,8,,,,,,,,,,,,,,,AMSA03.jpg,AMNE10.jpg,AMNE12.jpg,AMSA08.jpg,AMSA03.jpg,MS,2,num_8,16,num_8,0.700173423626,,,2017_May_02_1203,59.9944773092,MAFE4ImagesEEG,001,100341,
AFNE01.JPG,AFNE01.JPG,AFNE01.JPG,AFNE01.JPG,AFNE01.JPG,AFNE01.JPG,,,,,,,,,2,2,22,2,,,,,,,,,,,,,,,AMNE06.jpg,AMNE03.jpg,AMSA01.jpg,AMSA04.jpg,AMSA04.jpg,MS,2,num_4,16,num_4,0.533426946495,,,2017_May_02_1203,59.9944773092,MAFE4ImagesEEG,001,100341,
AFNE01.JPG,AFNE01.JPG,AFNE01.JPG,AFNE01.JPG,AFNE01.JPG,AFNE01.JPG,,,,,,,,,2,3,23,3,,,,,,,,,,,,,,,AMNE18.jpg,AMSA18.jpg,AMSA09.jpg,AMNE08.jpg,AMNE08.jpg,MN,1,num_4,16,num_4,0.916806695983,,,2017_May_02_1203,59.9944773092,MAFE4ImagesEEG,001,100341,
AFNE01.JPG,AFNE01.JPG,AFNE01.JPG,AFNE01.JPG,AFNE01.JPG,AFNE01.JPG,,,,,,,,,2,4,24,1,,,,,,,,,,,,,,,AMNE08.jpg,AMSA18.jpg,AMNE03.jpg,AMSA19.jpg,AMNE03.jpg,MN,1,num_2,32,num_4,0.650146465516,,,2017_May_02_1203,59.9944773092,MAFE4ImagesEEG,001,100341,
AFNE01.JPG,AFNE01.JPG,AFNE01.JPG,AFNE01.JPG,AFNE01.JPG,AFNE01.JPG,,,,,,,,,2,5,25,7,,,,,,,,,,,,,,,AMSA15.jpg,AMSA02.jpg,AMNE12.jpg,AMNE15.jpg,AMSA02.jpg,MS,2,num_6,16,num_6,0.650155766867,,,2017_May_02_1203,59.9944773092,MAFE4ImagesEEG,001,100341,
AFNE01.JPG,AFNE01.JPG,AFNE01.JPG,AFNE01.JPG,AFNE01.JPG,AFNE01.JPG,,,,,,,,,2,6,26,6,,,,,,,,,,,,,,,AMSA14.jpg,AMNE18.jpg,AMSA20.jpg,AMNE04.jpg,AMSA14.jpg,MS,2,num_8,16,num_8,0.900139810052,,,2017_May_02_1203,59.9944773092,MAFE4ImagesEEG,001,100341,
AFNE01.JPG,AFNE01.JPG,AFNE01.JPG,AFNE01.JPG,AFNE01.JPG,AFNE01.JPG,,,,,,,,,2,7,27,9,,,,,,,,,,,,,,,AMNE12.jpg,AMSA15.jpg,AMNE01.jpg,AMSA12.jpg,AMSA12.jpg,MS,2,num_4,32,num_6,0.75014040363,,,2017_May_02_1203,59.9944773092,MAFE4ImagesEEG,001,100341,
AFNE01.JPG,AFNE01.JPG,AFNE01.JPG,AFNE01.JPG,AFNE01.JPG,AFNE01.JPG,,,,,,,,,2,8,28,0,,,,,,,,,,,,,,,AMSA13.jpg,AMNE10.jpg,AMNE19.jpg,AMSA10.jpg,AMSA13.jpg,MS,2,num_8,32,num_4,0.900114150951,,,2017_May_02_1203,59.9944773092,MAFE4ImagesEEG,001,100341,
AFNE01.JPG,AFNE01.JPG,AFNE01.JPG,AFNE01.JPG,AFNE01.JPG,AFNE01.JPG,,,,,,,,,2,9,29,4,,,,,,,,,,,,,,,AMNE09.jpg,AMSA19.jpg,AMNE20.jpg,AMSA04.jpg,AMNE20.jpg,MN,1,num_2,16,num_2,0.733565249015,,,2017_May_02_1203,59.9944773092,MAFE4ImagesEEG,001,100341,
AFNE01.JPG,AFNE01.JPG,AFNE01.JPG,AFNE01.JPG,AFNE01.JPG,AFNE01.JPG,,,,,,,,,3,0,30,0,,,,,,,,,,,,,,,AMSA17.jpg,AMNE05.jpg,AMNE04.jpg,AMSA06.jpg,AMSA06.jpg,MS,2,num_4,16,num_4,0.466796608642,,,2017_May_02_1203,59.9944773092,MAFE4ImagesEEG,001,100341,
AFNE01.JPG,AFNE01.JPG,AFNE01.JPG,AFNE01.JPG,AFNE01.JPG,AFNE01.JPG,,,,,,,,,3,1,31,5,,,,,,,,,,,,,,,AMNE01.jpg,AMSA09.jpg,AMSA16.jpg,AMNE06.jpg,AMSA16.jpg,MS,2,num_2,16,num_2,0.916761471657,,,2017_May_02_1203,59.9944773092,MAFE4ImagesEEG,001,100341,
AFNE01.JPG,AFNE01.JPG,AFNE01.JPG,AFNE01.JPG,AFNE01.JPG,AFNE01.JPG,,,,,,,,,3,2,32,8,,,,,,,,,,,,,,,AMSA17.jpg,AMNE06.jpg,AMSA04.jpg,AMNE02.jpg,AMNE02.jpg,MN,1,num_4,16,num_4,0.500155077316,,,2017_May_02_1203,59.9944773092,MAFE4ImagesEEG,001,100341,
AFNE01.JPG,AFNE01.JPG,AFNE01.JPG,AFNE01.JPG,AFNE01.JPG,AFNE01.JPG,,,,,,,,,3,3,33,9,,,,,,,,,,,,,,,AMSA07.jpg,AMSA02.jpg,AMNE08.jpg,AMNE07.jpg,AMSA02.jpg,MS,2,num_6,32,num_4,1.16674743942,,,2017_May_02_1203,59.9944773092,MAFE4ImagesEEG,001,100341,
AFNE01.JPG,AFNE01.JPG,AFNE01.JPG,AFNE01.JPG,AFNE01.JPG,AFNE01.JPG,,,,,,,,,3,4,34,6,,,,,,,,,,,,,,,AMNE08.jpg,AMNE13.jpg,AMSA18.jpg,AMSA14.jpg,AMSA18.jpg,MS,2,num_2,16,num_2,0.883477093885,,,2017_May_02_1203,59.9944773092,MAFE4ImagesEEG,001,100341,
AFNE01.JPG,AFNE01.JPG,AFNE01.JPG,AFNE01.JPG,AFNE01.JPG,AFNE01.JPG,,,,,,,,,3,5,35,3,,,,,,,,,,,,,,,AMNE19.jpg,AMNE16.jpg,AMSA01.jpg,AMSA04.jpg,AMSA04.jpg,MS,2,num_4,16,num_4,0.683443031507,,,2017_May_02_1203,59.9944773092,MAFE4ImagesEEG,001,100341,
AFNE01.JPG,AFNE01.JPG,AFNE01.JPG,AFNE01.JPG,AFNE01.JPG,AFNE01.JPG,,,,,,,,,3,6,36,2,,,,,,,,,,,,,,,AMSA15.jpg,AMNE07.jpg,AMSA02.jpg,AMNE18.jpg,AMSA02.jpg,MS,2,num_2,16,num_2,0.850140756229,,,2017_May_02_1203,59.9944773092,MAFE4ImagesEEG,001,100341,
AFNE01.JPG,AFNE01.JPG,AFNE01.JPG,AFNE01.JPG,AFNE01.JPG,AFNE01.JPG,,,,,,,,,3,7,37,4,,,,,,,,,,,,,,,AMSA18.jpg,AMNE01.jpg,AMNE16.jpg,AMSA09.jpg,AMSA09.jpg,MS,2,num_4,16,num_4,0.600191994337,,,2017_May_02_1203,59.9944773092,MAFE4ImagesEEG,001,100341,
AFNE01.JPG,AFNE01.JPG,AFNE01.JPG,AFNE01.JPG,AFNE01.JPG,AFNE01.JPG,,,,,,,,,3,8,38,1,,,,,,,,,,,,,,,AMSA16.jpg,AMSA07.jpg,AMNE12.jpg,AMNE05.jpg,AMNE12.jpg,MN,1,num_2,16,num_2,0.800156777259,,,2017_May_02_1203,59.9944773092,MAFE4ImagesEEG,001,100341,
AFNE01.JPG,AFNE01.JPG,AFNE01.JPG,AFNE01.JPG,AFNE01.JPG,AFNE01.JPG,,,,,,,,,3,9,39,7,,,,,,,,,,,,,,,AMSA05.jpg,AMNE18.jpg,AMNE12.jpg,AMSA10.jpg,AMSA05.jpg,MS,2,num_8,32,num_6,1.28344835574,,,2017_May_02_1203,59.9944773092,MAFE4ImagesEEG,001,100341,
AFNE01.JPG,AFNE01.JPG,AFNE01.JPG,AFNE01.JPG,AFNE01.JPG,AFNE01.JPG,,,,,,,,,4,0,40,6,,,,,,,,,,,,,,,AMSA03.jpg,AMNE18.jpg,AMNE03.jpg,AMSA14.jpg,AMSA14.jpg,MS,2,num_4,16,num_4,0.800120533677,,,2017_May_02_1203,59.9944773092,MAFE4ImagesEEG,001,100341,
AFNE01.JPG,AFNE01.JPG,AFNE01.JPG,AFNE01.JPG,AFNE01.JPG,AFNE01.JPG,,,,,,,,,4,1,41,2,,,,,,,,,,,,,,,AMNE06.jpg,AMSA05.jpg,AMNE13.jpg,AMSA10.jpg,AMNE06.jpg,MN,1,num_8,32,num_4,0.916720737936,,,2017_May_02_1203,59.9944773092,MAFE4ImagesEEG,001,100341,
AFNE01.JPG,AFNE01.JPG,AFNE01.JPG,AFNE01.JPG,AFNE01.JPG,AFNE01.JPG,,,,,,,,,4,2,42,8,,,,,,,,,,,,,,,AMNE19.jpg,AMNE03.jpg,AMSA10.jpg,AMSA02.jpg,AMNE03.jpg,MN,1,num_6,32,num_4,0.817087631207,,,2017_May_02_1203,59.9944773092,MAFE4ImagesEEG,001,100341,
AFNE01.JPG,AFNE01.JPG,AFNE01.JPG,AFNE01.JPG,AFNE01.JPG,AFNE01.JPG,,,,,,,,,4,3,43,5,,,,,,,,,,,,,,,AMNE10.jpg,AMNE16.jpg,AMSA14.jpg,AMSA03.jpg,AMSA14.jpg,MS,2,num_2,16,num_2,0.866791605251,,,2017_May_02_1203,59.9944773092,MAFE4ImagesEEG,001,100341,
AFNE01.JPG,AFNE01.JPG,AFNE01.JPG,AFNE01.JPG,AFNE01.JPG,AFNE01.JPG,,,,,,,,,4,4,44,4,,,,,,,,,,,,,,,AMSA09.jpg,AMNE07.jpg,AMSA12.jpg,AMNE10.jpg,AMNE07.jpg,MN,1,num_6,16,num_6,0.66683195415,,,2017_May_02_1203,59.9944773092,MAFE4ImagesEEG,001,100341,
AFNE01.JPG,AFNE01.JPG,AFNE01.JPG,AFNE01.JPG,AFNE01.JPG,AFNE01.JPG,,,,,,,,,4,5,45,9,,,,,,,,,,,,,,,AMSA14.jpg,AMNE16.jpg,AMNE18.jpg,AMSA16.jpg,AMNE18.jpg,MN,1,num_2,32,num_8,0.950098450761,,,2017_May_02_1203,59.9944773092,MAFE4ImagesEEG,001,100341,
AFNE01.JPG,AFNE01.JPG,AFNE01.JPG,AFNE01.JPG,AFNE01.JPG,AFNE01.JPG,,,,,,,,,4,6,46,7,,,,,,,,,,,,,,,AMSA08.jpg,AMNE10.jpg,AMNE07.jpg,AMSA19.jpg,AMSA19.jpg,MS,2,num_4,16,num_4,0.666811426869,,,2017_May_02_1203,59.9944773092,MAFE4ImagesEEG,001,100341,
AFNE01.JPG,AFNE01.JPG,AFNE01.JPG,AFNE01.JPG,AFNE01.JPG,AFNE01.JPG,,,,,,,,,4,7,47,1,,,,,,,,,,,,,,,AMSA09.jpg,AMNE02.jpg,AMSA13.jpg,AMNE14.jpg,AMSA13.jpg,MS,2,num_2,32,num_6,0.833429929335,,,2017_May_02_1203,59.9944773092,MAFE4ImagesEEG,001,100341,
AFNE01.JPG,AFNE01.JPG,AFNE01.JPG,AFNE01.JPG,AFNE01.JPG,AFNE01.JPG,,,,,,,,,4,8,48,0,,,,,,,,,,,,,,,AMSA01.jpg,AMNE02.jpg,AMNE11.jpg,AMSA17.jpg,AMSA01.jpg,MS,2,num_8,16,num_8,1.68340550503,,,2017_May_02_1203,59.9944773092,MAFE4ImagesEEG,001,100341,
AFNE01.JPG,AFNE01.JPG,AFNE01.JPG,AFNE01.JPG,AFNE01.JPG,AFNE01.JPG,,,,,,,,,4,9,49,3,,,,,,,,,,,,,,,AMNE14.jpg,AMNE12.jpg,AMSA09.jpg,AMSA20.jpg,AMNE12.jpg,MN,1,num_6,32,num_2,0.883493130794,,,2017_May_02_1203,59.9944773092,MAFE4ImagesEEG,001,100341,
AFNE01.JPG,AFNE01.JPG,AFNE01.JPG,AFNE01.JPG,AFNE01.JPG,AFNE01.JPG,,,,,,,,,5,0,50,3,,,,,,,,,,,,,,,AMSA12.jpg,AMSA10.jpg,AMNE19.jpg,AMNE04.jpg,AMNE19.jpg,MN,1,num_2,32,num_4,0.916753132595,,,2017_May_02_1203,59.9944773092,MAFE4ImagesEEG,001,100341,
AFNE01.JPG,AFNE01.JPG,AFNE01.JPG,AFNE01.JPG,AFNE01.JPG,AFNE01.JPG,,,,,,,,,5,1,51,9,,,,,,,,,,,,,,,AMSA09.jpg,AMNE18.jpg,AMNE14.jpg,AMSA04.jpg,AMSA04.jpg,MS,2,num_4,16,num_4,1.1334281012,,,2017_May_02_1203,59.9944773092,MAFE4ImagesEEG,001,100341,
AFNE01.JPG,AFNE01.JPG,AFNE01.JPG,AFNE01.JPG,AFNE01.JPG,AFNE01.JPG,,,,,,,,,5,2,52,0,,,,,,,,,,,,,,,AMSA10.jpg,AMSA13.jpg,AMNE15.jpg,AMNE05.jpg,AMNE15.jpg,MN,1,num_2,32,num_4,2.01668709237,,,2017_May_02_1203,59.9944773092,MAFE4ImagesEEG,001,100341,
AFNE01.JPG,AFNE01.JPG,AFNE01.JPG,AFNE01.JPG,AFNE01.JPG,AFNE01.JPG,,,,,,,,,5,3,53,8,,,,,,,,,,,,,,,AMNE15.jpg,AMSA08.jpg,AMSA09.jpg,AMNE06.jpg,AMNE15.jpg,MN,1,num_8,16,num_8,0.566842827247,,,2017_May_02_1203,59.9944773092,MAFE4ImagesEEG,001,100341,
AFNE01.JPG,AFNE01.JPG,AFNE01.JPG,AFNE01.JPG,AFNE01.JPG,AFNE01.JPG,,,,,,,,,5,4,54,1,,,,,,,,,,,,,,,AMNE13.jpg,AMSA02.jpg,AMSA15.jpg,AMNE11.jpg,AMNE11.jpg,MN,1,num_4,16,num_4,0.483531811973,,,2017_May_02_1203,59.9944773092,MAFE4ImagesEEG,001,100341,
AFNE01.JPG,AFNE01.JPG,AFNE01.JPG,AFNE01.JPG,AFNE01.JPG,AFNE01.JPG,,,,,,,,,5,5,55,6,,,,,,,,,,,,,,,AMSA14.jpg,AMNE18.jpg,AMSA11.jpg,AMNE14.jpg,AMSA14.jpg,MS,2,num_8,16,num_8,1.63340196083,,,2017_May_02_1203,59.9944773092,MAFE4ImagesEEG,001,100341,
AFNE01.JPG,AFNE01.JPG,AFNE01.JPG,AFNE01.JPG,AFNE01.JPG,AFNE01.JPG,,,,,,,,,5,6,56,5,,,,,,,,,,,,,,,AMSA06.jpg,AMNE08.jpg,AMNE18.jpg,AMSA10.jpg,AMNE08.jpg,MN,1,num_6,16,num_6,1.45004312345,,,2017_May_02_1203,59.9944773092,MAFE4ImagesEEG,001,100341,
AFNE01.JPG,AFNE01.JPG,AFNE01.JPG,AFNE01.JPG,AFNE01.JPG,AFNE01.JPG,,,,,,,,,5,7,57,7,,,,,,,,,,,,,,,AMNE11.jpg,AMNE09.jpg,AMSA15.jpg,AMSA13.jpg,AMSA13.jpg,MS,2,num_4,16,num_4,0.583490147954,,,2017_May_02_1203,59.9944773092,MAFE4ImagesEEG,001,100341,
AFNE01.JPG,AFNE01.JPG,AFNE01.JPG,AFNE01.JPG,AFNE01.JPG,AFNE01.JPG,,,,,,,,,5,8,58,4,,,,,,,,,,,,,,,AMNE11.jpg,AMNE03.jpg,AMSA17.jpg,AMSA19.jpg,AMSA17.jpg,MS,2,num_2,32,num_8,0.983314832207,,,2017_May_02_1203,59.9944773092,MAFE4ImagesEEG,001,100341,
AFNE01.JPG,AFNE01.JPG,AFNE01.JPG,AFNE01.JPG,AFNE01.JPG,AFNE01.JPG,,,,,,,,,5,9,59,2,,,,,,,,,,,,,,,AMNE09.jpg,AMSA01.jpg,AMSA09.jpg,AMNE17.jpg,AMNE09.jpg,MN,1,num_8,16,num_8,1.016782352,,,2017_May_02_1203,59.9944773092,MAFE4ImagesEEG,001,100341,
,,,,,,,,,,,,,,,,,,,,,,,,,,,,,,,,,,,,,,,,,,,space,8.48279090482,2017_May_02_1203,59.9944773092,MAFE4ImagesEEG,001,100341,
AFNE01.JPG,AFNE01.JPG,AFNE01.JPG,AFNE01.JPG,AFNE01.JPG,AFNE01.JPG,,,,,,,,,,,,,0,0,0,0,,,,,,,,,,,AFSA13.jpg,AFNE02.jpg,AFNE12.jpg,AFSA18.jpg,AFSA18.jpg,FS,4,num_4,16,num_4,1.10016072239,,,2017_May_02_1203,59.9944773092,MAFE4ImagesEEG,001,100341,
AFNE01.JPG,AFNE01.JPG,AFNE01.JPG,AFNE01.JPG,AFNE01.JPG,AFNE01.JPG,,,,,,,,,,,,,0,1,1,2,,,,,,,,,,,AFNE15.jpg,AFSA01.jpg,AFNE02.jpg,AFSA19.jpg,AFSA19.jpg,FS,4,num_4,32,num_2,1.5167616643,,,2017_May_02_1203,59.9944773092,MAFE4ImagesEEG,001,100341,
AFNE01.JPG,AFNE01.JPG,AFNE01.JPG,AFNE01.JPG,AFNE01.JPG,AFNE01.JPG,,,,,,,,,,,,,0,2,2,3,,,,,,,,,,,AFSA16.jpg,AFNE05.jpg,AFSA17.jpg,AFNE17.jpg,AFSA17.jpg,FS,4,num_2,32,num_6,1.0837674269,,,2017_May_02_1203,59.9944773092,MAFE4ImagesEEG,001,100341,
AFNE01.JPG,AFNE01.JPG,AFNE01.JPG,AFNE01.JPG,AFNE01.JPG,AFNE01.JPG,,,,,,,,,,,,,0,3,3,9,,,,,,,,,,,AFNE18.jpg,AFSA09.jpg,AFNE12.jpg,AFSA06.jpg,AFNE12.jpg,FN,3,num_2,16,num_2,0.700126916403,,,2017_May_02_1203,59.9944773092,MAFE4ImagesEEG,001,100341,
AFNE01.JPG,AFNE01.JPG,AFNE01.JPG,AFNE01.JPG,AFNE01.JPG,AFNE01.JPG,,,,,,,,,,,,,0,4,4,6,,,,,,,,,,,AFNE04.jpg,AFNE08.jpg,AFSA08.jpg,AFSA12.jpg,AFSA08.jpg,FS,4,num_2,32,num_6,0.916736133397,,,2017_May_02_1203,59.9944773092,MAFE4ImagesEEG,001,100341,
AFNE01.JPG,AFNE01.JPG,AFNE01.JPG,AFNE01.JPG,AFNE01.JPG,AFNE01.JPG,,,,,,,,,,,,,0,5,5,4,,,,,,,,,,,AFNE02.jpg,AFNE18.jpg,AFSA18.jpg,AFSA03.jpg,AFNE18.jpg,FN,3,num_6,16,num_6,1.10014404403,,,2017_May_02_1203,59.9944773092,MAFE4ImagesEEG,001,100341,
AFNE01.JPG,AFNE01.JPG,AFNE01.JPG,AFNE01.JPG,AFNE01.JPG,AFNE01.JPG,,,,,,,,,,,,,0,6,6,1,,,,,,,,,,,AFNE07.jpg,AFSA02.jpg,AFSA19.jpg,AFNE06.jpg,AFNE07.jpg,FN,3,num_8,16,num_8,0.566811715486,,,2017_May_02_1203,59.9944773092,MAFE4ImagesEEG,001,100341,
AFNE01.JPG,AFNE01.JPG,AFNE01.JPG,AFNE01.JPG,AFNE01.JPG,AFNE01.JPG,,,,,,,,,,,,,0,7,7,5,,,,,,,,,,,AFSA13.jpg,AFSA05.jpg,AFNE16.jpg,AFNE14.jpg,AFSA13.jpg,FS,4,num_8,32,num_6,0.966715622228,,,2017_May_02_1203,59.9944773092,MAFE4ImagesEEG,001,100341,
AFNE01.JPG,AFNE01.JPG,AFNE01.JPG,AFNE01.JPG,AFNE01.JPG,AFNE01.JPG,,,,,,,,,,,,,0,8,8,8,,,,,,,,,,,AFNE06.jpg,AFSA12.jpg,AFSA10.jpg,AFNE01.jpg,AFNE06.jpg,FN,3,num_8,16,num_8,1.1167727618,,,2017_May_02_1203,59.9944773092,MAFE4ImagesEEG,001,100341,
AFNE01.JPG,AFNE01.JPG,AFNE01.JPG,AFNE01.JPG,AFNE01.JPG,AFNE01.JPG,,,,,,,,,,,,,0,9,9,7,,,,,,,,,,,AFSA07.jpg,AFNE14.jpg,AFNE19.jpg,AFSA15.jpg,AFSA15.jpg,FS,4,num_4,16,num_4,1.31671765889,,,2017_May_02_1203,59.9944773092,MAFE4ImagesEEG,001,100341,
AFNE01.JPG,AFNE01.JPG,AFNE01.JPG,AFNE01.JPG,AFNE01.JPG,AFNE01.JPG,,,,,,,,,,,,,1,0,10,5,,,,,,,,,,,AFNE16.jpg,AFSA02.jpg,AFNE05.jpg,AFSA01.jpg,AFSA02.jpg,FS,4,num_6,16,num_6,0.483511926141,,,2017_May_02_1203,59.9944773092,MAFE4ImagesEEG,001,100341,
AFNE01.JPG,AFNE01.JPG,AFNE01.JPG,AFNE01.JPG,AFNE01.JPG,AFNE01.JPG,,,,,,,,,,,,,1,1,11,0,,,,,,,,,,,AFNE17.jpg,AFNE15.jpg,AFSA19.jpg,AFSA01.jpg,AFNE15.jpg,FN,3,num_6,16,num_6,0.483425326645,,,2017_May_02_1203,59.9944773092,MAFE4ImagesEEG,001,100341,
AFNE01.JPG,AFNE01.JPG,AFNE01.JPG,AFNE01.JPG,AFNE01.JPG,AFNE01.JPG,,,,,,,,,,,,,1,2,12,8,,,,,,,,,,,AFSA05.jpg,AFSA10.jpg,AFNE18.jpg,AFNE10.jpg,AFSA10.jpg,FS,4,num_6,16,num_6,0.983431581175,,,2017_May_02_1203,59.9944773092,MAFE4ImagesEEG,001,100341,
AFNE01.JPG,AFNE01.JPG,AFNE01.JPG,AFNE01.JPG,AFNE01.JPG,AFNE01.JPG,,,,,,,,,,,,,1,3,13,6,,,,,,,,,,,AFNE14.jpg,AFSA13.jpg,AFSA07.jpg,AFNE05.jpg,AFNE14.jpg,FN,3,num_8,32,num_4,2.25019508949,,,2017_May_02_1203,59.9944773092,MAFE4ImagesEEG,001,100341,
AFNE01.JPG,AFNE01.JPG,AFNE01.JPG,AFNE01.JPG,AFNE01.JPG,AFNE01.JPG,,,,,,,,,,,,,1,4,14,7,,,,,,,,,,,AFNE16.jpg,AFSA17.jpg,AFNE19.jpg,AFSA12.jpg,AFSA12.jpg,FS,4,num_4,16,num_4,0.450184248388,,,2017_May_02_1203,59.9944773092,MAFE4ImagesEEG,001,100341,
AFNE01.JPG,AFNE01.JPG,AFNE01.JPG,AFNE01.JPG,AFNE01.JPG,AFNE01.JPG,,,,,,,,,,,,,1,5,15,1,,,,,,,,,,,AFSA03.jpg,AFNE18.jpg,AFNE15.jpg,AFSA05.jpg,AFSA05.jpg,FS,4,num_4,16,num_4,0.483517699642,,,2017_May_02_1203,59.9944773092,MAFE4ImagesEEG,001,100341,
AFNE01.JPG,AFNE01.JPG,AFNE01.JPG,AFNE01.JPG,AFNE01.JPG,AFNE01.JPG,,,,,,,,,,,,,1,6,16,2,,,,,,,,,,,AFNE01.jpg,AFSA13.jpg,AFNE09.jpg,AFSA06.jpg,AFSA06.jpg,FS,4,num_4,16,num_4,0.600168259814,,,2017_May_02_1203,59.9944773092,MAFE4ImagesEEG,001,100341,
AFNE01.JPG,AFNE01.JPG,AFNE01.JPG,AFNE01.JPG,AFNE01.JPG,AFNE01.JPG,,,,,,,,,,,,,1,7,17,4,,,,,,,,,,,AFNE09.jpg,AFSA18.jpg,AFNE16.jpg,AFSA19.jpg,AFSA18.jpg,FS,4,num_6,16,num_6,0.466783458367,,,2017_May_02_1203,59.9944773092,MAFE4ImagesEEG,001,100341,
AFNE01.JPG,AFNE01.JPG,AFNE01.JPG,AFNE01.JPG,AFNE01.JPG,AFNE01.JPG,,,,,,,,,,,,,1,8,18,3,,,,,,,,,,,AFNE19.jpg,AFSA07.jpg,AFSA19.jpg,AFNE20.jpg,AFSA19.jpg,FS,4,num_2,32,num_8,0.733477045782,,,2017_May_02_1203,59.9944773092,MAFE4ImagesEEG,001,100341,
AFNE01.JPG,AFNE01.JPG,AFNE01.JPG,AFNE01.JPG,AFNE01.JPG,AFNE01.JPG,,,,,,,,,,,,,1,9,19,9,,,,,,,,,,,AFSA07.jpg,AFNE03.jpg,AFNE16.jpg,AFSA17.jpg,AFNE16.jpg,FN,3,num_2,32,num_4,0.950114487903,,,2017_May_02_1203,59.9944773092,MAFE4ImagesEEG,001,100341,
AFNE01.JPG,AFNE01.JPG,AFNE01.JPG,AFNE01.JPG,AFNE01.JPG,AFNE01.JPG,,,,,,,,,,,,,2,0,20,5,,,,,,,,,,,AFSA06.jpg,AFSA02.jpg,AFNE02.jpg,AFNE09.jpg,AFSA06.jpg,FS,4,num_8,32,num_6,0.983475522371,,,2017_May_02_1203,59.9944773092,MAFE4ImagesEEG,001,100341,
AFNE01.JPG,AFNE01.JPG,AFNE01.JPG,AFNE01.JPG,AFNE01.JPG,AFNE01.JPG,,,,,,,,,,,,,2,1,21,1,,,,,,,,,,,AFNE05.jpg,AFSA07.jpg,AFSA12.jpg,AFNE02.jpg,AFSA12.jpg,FS,4,num_2,16,num_2,0.666760429507,,,2017_May_02_1203,59.9944773092,MAFE4ImagesEEG,001,100341,
AFNE01.JPG,AFNE01.JPG,AFNE01.JPG,AFNE01.JPG,AFNE01.JPG,AFNE01.JPG,,,,,,,,,,,,,2,2,22,6,,,,,,,,,,,AFSA09.jpg,AFNE09.jpg,AFNE17.jpg,AFSA12.jpg,AFNE09.jpg,FN,3,num_6,32,num_8,0.650188802974,,,2017_May_02_1203,59.9944773092,MAFE4ImagesEEG,001,100341,
AFNE01.JPG,AFNE01.JPG,AFNE01.JPG,AFNE01.JPG,AFNE01.JPG,AFNE01.JPG,,,,,,,,,,,,,2,3,23,2,,,,,,,,,,,AFSA10.jpg,AFSA18.jpg,AFNE03.jpg,AFNE18.jpg,AFSA10.jpg,FS,4,num_8,16,num_8,0.966833974933,,,2017_May_02_1203,59.9944773092,MAFE4ImagesEEG,001,100341,
AFNE01.JPG,AFNE01.JPG,AFNE01.JPG,AFNE01.JPG,AFNE01.JPG,AFNE01.JPG,,,,,,,,,,,,,2,4,24,3,,,,,,,,,,,AFSA19.jpg,AFNE14.jpg,AFSA10.jpg,AFNE02.jpg,AFNE02.jpg,FN,3,num_4,16,num_4,0.883444057778,,,2017_May_02_1203,59.9944773092,MAFE4ImagesEEG,001,100341,
AFNE01.JPG,AFNE01.JPG,AFNE01.JPG,AFNE01.JPG,AFNE01.JPG,AFNE01.JPG,,,,,,,,,,,,,2,5,25,0,,,,,,,,,,,AFSA19.jpg,AFNE11.jpg,AFSA13.jpg,AFNE19.jpg,AFSA19.jpg,FS,4,num_8,32,num_2,1.36669265712,,,2017_May_02_1203,59.9944773092,MAFE4ImagesEEG,001,100341,
AFNE01.JPG,AFNE01.JPG,AFNE01.JPG,AFNE01.JPG,AFNE01.JPG,AFNE01.JPG,,,,,,,,,,,,,2,6,26,8,,,,,,,,,,,AFNE15.jpg,AFSA04.jpg,AFSA12.jpg,AFNE14.jpg,AFNE15.jpg,FN,3,num_8,16,num_8,0.483436552575,,,2017_May_02_1203,59.9944773092,MAFE4ImagesEEG,001,100341,
AFNE01.JPG,AFNE01.JPG,AFNE01.JPG,AFNE01.JPG,AFNE01.JPG,AFNE01.JPG,,,,,,,,,,,,,2,7,27,7,,,,,,,,,,,AFNE07.jpg,AFSA11.jpg,AFSA02.jpg,AFNE01.jpg,AFNE07.jpg,FN,3,num_8,32,num_4,0.716791557148,,,2017_May_02_1203,59.9944773092,MAFE4ImagesEEG,001,100341,
AFNE01.JPG,AFNE01.JPG,AFNE01.JPG,AFNE01.JPG,AFNE01.JPG,AFNE01.JPG,,,,,,,,,,,,,2,8,28,9,,,,,,,,,,,AFSA15.jpg,AFNE17.jpg,AFNE05.jpg,AFSA11.jpg,AFNE05.jpg,FN,3,num_2,32,num_6,0.833466814132,,,2017_May_02_1203,59.9944773092,MAFE4ImagesEEG,001,100341,
AFNE01.JPG,AFNE01.JPG,AFNE01.JPG,AFNE01.JPG,AFNE01.JPG,AFNE01.JPG,,,,,,,,,,,,,2,9,29,4,,,,,,,,,,,AFNE04.jpg,AFSA16.jpg,AFNE15.jpg,AFSA06.jpg,AFSA06.jpg,FS,4,num_4,32,num_6,1.6666690188,,,2017_May_02_1203,59.9944773092,MAFE4ImagesEEG,001,100341,
AFNE01.JPG,AFNE01.JPG,AFNE01.JPG,AFNE01.JPG,AFNE01.JPG,AFNE01.JPG,,,,,,,,,,,,,3,0,30,7,,,,,,,,,,,AFSA19.jpg,AFNE11.jpg,AFSA04.jpg,AFNE10.jpg,AFNE10.jpg,FN,3,num_4,16,num_4,2.36667886539,,,2017_May_02_1203,59.9944773092,MAFE4ImagesEEG,001,100341,
AFNE01.JPG,AFNE01.JPG,AFNE01.JPG,AFNE01.JPG,AFNE01.JPG,AFNE01.JPG,,,,,,,,,,,,,3,1,31,2,,,,,,,,,,,AFNE05.jpg,AFNE01.jpg,AFSA15.jpg,AFSA07.jpg,AFSA15.jpg,FS,4,num_2,16,num_2,0.950080489507,,,2017_May_02_1203,59.9944773092,MAFE4ImagesEEG,001,100341,
AFNE01.JPG,AFNE01.JPG,AFNE01.JPG,AFNE01.JPG,AFNE01.JPG,AFNE01.JPG,,,,,,,,,,,,,3,2,32,6,,,,,,,,,,,AFNE02.jpg,AFNE12.jpg,AFSA01.jpg,AFSA14.jpg,AFSA14.jpg,FS,4,num_4,16,num_4,1.46669846261,,,2017_May_02_1203,59.9944773092,MAFE4ImagesEEG,001,100341,
AFNE01.JPG,AFNE01.JPG,AFNE01.JPG,AFNE01.JPG,AFNE01.JPG,AFNE01.JPG,,,,,,,,,,,,,3,3,33,0,,,,,,,,,,,AFNE10.jpg,AFSA12.jpg,AFNE14.jpg,AFSA13.jpg,AFNE14.jpg,FN,3,num_2,32,num_8,1.15012000455,,,2017_May_02_1203,59.9944773092,MAFE4ImagesEEG,001,100341,
AFNE01.JPG,AFNE01.JPG,AFNE01.JPG,AFNE01.JPG,AFNE01.JPG,AFNE01.JPG,,,,,,,,,,,,,3,4,34,5,,,,,,,,,,,AFNE05.jpg,AFSA09.jpg,AFSA01.jpg,AFNE18.jpg,AFSA09.jpg,FS,4,num_6,16,num_6,0.750152270775,,,2017_May_02_1203,59.9944773092,MAFE4ImagesEEG,001,100341,
AFNE01.JPG,AFNE01.JPG,AFNE01.JPG,AFNE01.JPG,AFNE01.JPG,AFNE01.JPG,,,,,,,,,,,,,3,5,35,3,,,,,,,,,,,AFNE03.jpg,AFSA08.jpg,AFSA17.jpg,AFNE11.jpg,AFNE03.jpg,FN,3,num_8,16,num_8,1.63341639424,,,2017_May_02_1203,59.9944773092,MAFE4ImagesEEG,001,100341,
AFNE01.JPG,AFNE01.JPG,AFNE01.JPG,AFNE01.JPG,AFNE01.JPG,AFNE01.JPG,,,,,,,,,,,,,3,6,36,4,,,,,,,,,,,AFSA20.jpg,AFNE18.jpg,AFNE17.jpg,AFSA17.jpg,AFSA20.jpg,FS,4,num_8,16,num_8,0.800113798119,,,2017_May_02_1203,59.9944773092,MAFE4ImagesEEG,001,100341,
AFNE01.JPG,AFNE01.JPG,AFNE01.JPG,AFNE01.JPG,AFNE01.JPG,AFNE01.JPG,,,,,,,,,,,,,3,7,37,9,,,,,,,,,,,AFSA18.jpg,AFNE20.jpg,AFNE10.jpg,AFSA19.jpg,AFSA18.jpg,FS,4,num_8,16,num_8,0.683491783682,,,2017_May_02_1203,59.9944773092,MAFE4ImagesEEG,001,100341,
AFNE01.JPG,AFNE01.JPG,AFNE01.JPG,AFNE01.JPG,AFNE01.JPG,AFNE01.JPG,,,,,,,,,,,,,3,8,38,1,,,,,,,,,,,AFNE01.jpg,AFSA09.jpg,AFSA18.jpg,AFNE12.jpg,AFNE01.jpg,FN,3,num_8,16,num_8,1.05010008649,,,2017_May_02_1203,59.9944773092,MAFE4ImagesEEG,001,100341,
AFNE01.JPG,AFNE01.JPG,AFNE01.JPG,AFNE01.JPG,AFNE01.JPG,AFNE01.JPG,,,,,,,,,,,,,3,9,39,8,,,,,,,,,,,AFSA18.jpg,AFSA10.jpg,AFNE02.jpg,AFNE10.jpg,AFNE10.jpg,FN,3,num_4,16,num_4,2.91659308388,,,2017_May_02_1203,59.9944773092,MAFE4ImagesEEG,001,100341,
AFNE01.JPG,AFNE01.JPG,AFNE01.JPG,AFNE01.JPG,AFNE01.JPG,AFNE01.JPG,,,,,,,,,,,,,4,0,40,2,,,,,,,,,,,AFSA06.jpg,AFNE17.jpg,AFNE13.jpg,AFSA02.jpg,AFNE17.jpg,FN,3,num_6,16,num_6,0.833450777223,,,2017_May_02_1203,59.9944773092,MAFE4ImagesEEG,001,100341,
AFNE01.JPG,AFNE01.JPG,AFNE01.JPG,AFNE01.JPG,AFNE01.JPG,AFNE01.JPG,,,,,,,,,,,,,4,1,41,9,,,,,,,,,,,AFSA01.jpg,AFNE05.jpg,AFNE16.jpg,AFSA13.jpg,AFSA13.jpg,FS,4,num_4,32,num_8,0.950127638178,,,2017_May_02_1203,59.9944773092,MAFE4ImagesEEG,001,100341,
AFNE01.JPG,AFNE01.JPG,AFNE01.JPG,AFNE01.JPG,AFNE01.JPG,AFNE01.JPG,,,,,,,,,,,,,4,2,42,7,,,,,,,,,,,AFNE20.jpg,AFSA14.jpg,AFSA03.jpg,AFNE12.jpg,AFNE20.jpg,FN,3,num_8,32,num_4,1.06671437132,,,2017_May_02_1203,59.9944773092,MAFE4ImagesEEG,001,100341,
AFNE01.JPG,AFNE01.JPG,AFNE01.JPG,AFNE01.JPG,AFNE01.JPG,AFNE01.JPG,,,,,,,,,,,,,4,3,43,6,,,,,,,,,,,AFSA12.jpg,AFNE16.jpg,AFNE14.jpg,AFSA11.jpg,AFNE14.jpg,FN,3,num_2,16,num_2,2.15001351922,,,2017_May_02_1203,59.9944773092,MAFE4ImagesEEG,001,100341,
AFNE01.JPG,AFNE01.JPG,AFNE01.JPG,AFNE01.JPG,AFNE01.JPG,AFNE01.JPG,,,,,,,,,,,,,4,4,44,8,,,,,,,,,,,AFSA02.jpg,AFNE02.jpg,AFNE14.jpg,AFSA04.jpg,AFNE02.jpg,FN,3,num_6,16,num_6,1.58339232276,,,2017_May_02_1203,59.9944773092,MAFE4ImagesEEG,001,100341,
AFNE01.JPG,AFNE01.JPG,AFNE01.JPG,AFNE01.JPG,AFNE01.JPG,AFNE01.JPG,,,,,,,,,,,,,4,5,45,4,,,,,,,,,,,AFNE17.jpg,AFNE06.jpg,AFSA07.jpg,AFSA04.jpg,AFSA04.jpg,FS,4,num_4,16,num_4,0.58349399711,,,2017_May_02_1203,59.9944773092,MAFE4ImagesEEG,001,100341,
AFNE01.JPG,AFNE01.JPG,AFNE01.JPG,AFNE01.JPG,AFNE01.JPG,AFNE01.JPG,,,,,,,,,,,,,4,6,46,5,,,,,,,,,,,AFNE20.jpg,AFNE18.jpg,AFSA18.jpg,AFSA06.jpg,AFNE20.jpg,FN,3,num_8,32,num_6,0.866772681475,,,2017_May_02_1203,59.9944773092,MAFE4ImagesEEG,001,100341,
AFNE01.JPG,AFNE01.JPG,AFNE01.JPG,AFNE01.JPG,AFNE01.JPG,AFNE01.JPG,,,,,,,,,,,,,4,7,47,1,,,,,,,,,,,AFNE18.jpg,AFSA09.jpg,AFSA08.jpg,AFNE15.jpg,AFNE15.jpg,FN,3,num_4,16,num_4,0.566856618971,,,2017_May_02_1203,59.9944773092,MAFE4ImagesEEG,001,100341,
AFNE01.JPG,AFNE01.JPG,AFNE01.JPG,AFNE01.JPG,AFNE01.JPG,AFNE01.JPG,,,,,,,,,,,,,4,8,48,0,,,,,,,,,,,AFNE18.jpg,AFSA08.jpg,AFNE02.jpg,AFSA06.jpg,AFSA08.jpg,FS,4,num_6,16,num_6,1.10016489192,,,2017_May_02_1203,59.9944773092,MAFE4ImagesEEG,001,100341,
AFNE01.JPG,AFNE01.JPG,AFNE01.JPG,AFNE01.JPG,AFNE01.JPG,AFNE01.JPG,,,,,,,,,,,,,4,9,49,3,,,,,,,,,,,AFSA04.jpg,AFNE19.jpg,AFNE13.jpg,AFSA09.jpg,AFNE13.jpg,FN,3,num_2,32,num_8,1.00012893695,,,2017_May_02_1203,59.9944773092,MAFE4ImagesEEG,001,100341,
AFNE01.JPG,AFNE01.JPG,AFNE01.JPG,AFNE01.JPG,AFNE01.JPG,AFNE01.JPG,,,,,,,,,,,,,5,0,50,4,,,,,,,,,,,AFNE07.jpg,AFSA17.jpg,AFNE04.jpg,AFSA03.jpg,AFNE04.jpg,FN,3,num_2,32,num_8,1.06675863336,,,2017_May_02_1203,59.9944773092,MAFE4ImagesEEG,001,100341,
AFNE01.JPG,AFNE01.JPG,AFNE01.JPG,AFNE01.JPG,AFNE01.JPG,AFNE01.JPG,,,,,,,,,,,,,5,1,51,9,,,,,,,,,,,AFNE15.jpg,AFNE04.jpg,AFSA20.jpg,AFSA15.jpg,AFNE04.jpg,FN,3,num_6,16,num_6,1.00011803186,,,2017_May_02_1203,59.9944773092,MAFE4ImagesEEG,001,100341,
AFNE01.JPG,AFNE01.JPG,AFNE01.JPG,AFNE01.JPG,AFNE01.JPG,AFNE01.JPG,,,,,,,,,,,,,5,2,52,6,,,,,,,,,,,AFNE10.jpg,AFSA04.jpg,AFNE05.jpg,AFSA02.jpg,AFSA04.jpg,FS,4,num_6,16,num_6,1.71665331861,,,2017_May_02_1203,59.9944773092,MAFE4ImagesEEG,001,100341,
AFNE01.JPG,AFNE01.JPG,AFNE01.JPG,AFNE01.JPG,AFNE01.JPG,AFNE01.JPG,,,,,,,,,,,,,5,3,53,5,,,,,,,,,,,AFSA19.jpg,AFNE02.jpg,AFNE14.jpg,AFSA16.jpg,AFSA19.jpg,FS,4,num_8,16,num_8,0.666770051466,,,2017_May_02_1203,59.9944773092,MAFE4ImagesEEG,001,100341,
AFNE01.JPG,AFNE01.JPG,AFNE01.JPG,AFNE01.JPG,AFNE01.JPG,AFNE01.JPG,,,,,,,,,,,,,5,4,54,8,,,,,,,,,,,AFSA13.jpg,AFNE12.jpg,AFNE15.jpg,AFSA07.jpg,AFSA13.jpg,FS,4,num_8,16,num_8,0.833477078006,,,2017_May_02_1203,59.9944773092,MAFE4ImagesEEG,001,100341,
AFNE01.JPG,AFNE01.JPG,AFNE01.JPG,AFNE01.JPG,AFNE01.JPG,AFNE01.JPG,,,,,,,,,,,,,5,5,55,1,,,,,,,,,,,AFNE16.jpg,AFNE10.jpg,AFSA10.jpg,AFSA11.jpg,AFSA11.jpg,FS,4,num_4,16,num_4,0.766799912555,,,2017_May_02_1203,59.9944773092,MAFE4ImagesEEG,001,100341,
AFNE01.JPG,AFNE01.JPG,AFNE01.JPG,AFNE01.JPG,AFNE01.JPG,AFNE01.JPG,,,,,,,,,,,,,5,6,56,3,,,,,,,,,,,AFNE11.jpg,AFNE16.jpg,AFSA13.jpg,AFSA01.jpg,AFNE16.jpg,FN,3,num_6,16,num_6,0.800097440602,,,2017_May_02_1203,59.9944773092,MAFE4ImagesEEG,001,100341,
AFNE01.JPG,AFNE01.JPG,AFNE01.JPG,AFNE01.JPG,AFNE01.JPG,AFNE01.JPG,,,,,,,,,,,,,5,7,57,2,,,,,,,,,,,AFNE11.jpg,AFSA03.jpg,AFSA13.jpg,AFNE04.jpg,AFSA13.jpg,FS,4,num_2,32,num_6,0.800093591679,,,2017_May_02_1203,59.9944773092,MAFE4ImagesEEG,001,100341,
AFNE01.JPG,AFNE01.JPG,AFNE01.JPG,AFNE01.JPG,AFNE01.JPG,AFNE01.JPG,,,,,,,,,,,,,5,8,58,0,,,,,,,,,,,AFNE01.jpg,AFNE16.jpg,AFSA18.jpg,AFSA03.jpg,AFNE16.jpg,FN,3,num_6,32,num_8,1.23344513215,,,2017_May_02_1203,59.9944773092,MAFE4ImagesEEG,001,100341,
AFNE01.JPG,AFNE01.JPG,AFNE01.JPG,AFNE01.JPG,AFNE01.JPG,AFNE01.JPG,,,,,,,,,,,,,5,9,59,7,,,,,,,,,,,AFSA04.jpg,AFNE19.jpg,AFSA06.jpg,AFNE20.jpg,AFSA06.jpg,FS,4,num_2,32,num_8,0.56674660556,,,2017_May_02_1203,59.9944773092,MAFE4ImagesEEG,001,100341,
,,,,,,,,,,,,,,,,,,,,,,,,,,,,,,,,,,,,,,,,,,,space,11.8492192731,2017_May_02_1203,59.9944773092,MAFE4ImagesEEG,001,100341,
AFNE01.JPG,AFNE01.JPG,AFNE01.JPG,AFNE01.JPG,AFNE01.JPG,AFNE01.JPG,,,,,,,,,,,,,,,,,0,0,0,4,,,,,,,AMNE20.jpg,AMNE09.jpg,AMSA20.jpg,AMSA08.jpg,AMSA20.jpg,MS,2,num_2,16,num_2,0.650136843324,,,2017_May_02_1203,59.9944773092,MAFE4ImagesEEG,001,100341,
AFNE01.JPG,AFNE01.JPG,AFNE01.JPG,AFNE01.JPG,AFNE01.JPG,AFNE01.JPG,,,,,,,,,,,,,,,,,0,1,1,7,,,,,,,AMNE18.jpg,AMNE03.jpg,AMSA05.jpg,AMSA11.jpg,AMSA11.jpg,MS,2,num_4,32,num_6,0.733485064469,,,2017_May_02_1203,59.9944773092,MAFE4ImagesEEG,001,100341,
AFNE01.JPG,AFNE01.JPG,AFNE01.JPG,AFNE01.JPG,AFNE01.JPG,AFNE01.JPG,,,,,,,,,,,,,,,,,0,2,2,8,,,,,,,AMSA10.jpg,AMNE15.jpg,AMSA11.jpg,AMNE11.jpg,AMSA10.jpg,MS,2,num_8,16,num_8,1.15008279867,,,2017_May_02_1203,59.9944773092,MAFE4ImagesEEG,001,100341,
AFNE01.JPG,AFNE01.JPG,AFNE01.JPG,AFNE01.JPG,AFNE01.JPG,AFNE01.JPG,,,,,,,,,,,,,,,,,0,3,3,2,,,,,,,AMNE05.jpg,AMNE01.jpg,AMSA01.jpg,AMSA03.jpg,AMSA01.jpg,MS,2,num_2,16,num_2,1.883183297,,,2017_May_02_1203,59.9944773092,MAFE4ImagesEEG,001,100341,
AFNE01.JPG,AFNE01.JPG,AFNE01.JPG,AFNE01.JPG,AFNE01.JPG,AFNE01.JPG,,,,,,,,,,,,,,,,,0,4,4,0,,,,,,,AMSA10.jpg,AMSA09.jpg,AMNE02.jpg,AMNE19.jpg,AMNE19.jpg,MN,1,num_4,32,num_2,0.999959266279,,,2017_May_02_1203,59.9944773092,MAFE4ImagesEEG,001,100341,
AFNE01.JPG,AFNE01.JPG,AFNE01.JPG,AFNE01.JPG,AFNE01.JPG,AFNE01.JPG,,,,,,,,,,,,,,,,,0,5,5,5,,,,,,,AMNE01.jpg,AMNE17.jpg,AMSA16.jpg,AMSA13.jpg,AMNE01.jpg,MN,1,num_8,32,num_4,0.850188546581,,,2017_May_02_1203,59.9944773092,MAFE4ImagesEEG,001,100341,
AFNE01.JPG,AFNE01.JPG,AFNE01.JPG,AFNE01.JPG,AFNE01.JPG,AFNE01.JPG,,,,,,,,,,,,,,,,,0,6,6,9,,,,,,,AMNE10.jpg,AMSA11.jpg,AMSA13.jpg,AMNE02.jpg,AMNE02.jpg,MN,1,num_4,32,num_8,1.01676054159,,,2017_May_02_1203,59.9944773092,MAFE4ImagesEEG,001,100341,
AFNE01.JPG,AFNE01.JPG,AFNE01.JPG,AFNE01.JPG,AFNE01.JPG,AFNE01.JPG,,,,,,,,,,,,,,,,,0,7,7,1,,,,,,,AMSA18.jpg,AMNE19.jpg,AMNE11.jpg,AMSA05.jpg,AMNE11.jpg,MN,1,num_2,16,num_2,0.983466862468,,,2017_May_02_1203,59.9944773092,MAFE4ImagesEEG,001,100341,
AFNE01.JPG,AFNE01.JPG,AFNE01.JPG,AFNE01.JPG,AFNE01.JPG,AFNE01.JPG,,,,,,,,,,,,,,,,,0,8,8,6,,,,,,,AMSA04.jpg,AMSA12.jpg,AMNE15.jpg,AMNE08.jpg,AMSA04.jpg,MS,2,num_8,32,num_4,0.616831296822,,,2017_May_02_1203,59.9944773092,MAFE4ImagesEEG,001,100341,
AFNE01.JPG,AFNE01.JPG,AFNE01.JPG,AFNE01.JPG,AFNE01.JPG,AFNE01.JPG,,,,,,,,,,,,,,,,,0,9,9,3,,,,,,,AMSA06.jpg,AMNE14.jpg,AMSA13.jpg,AMNE10.jpg,AMNE10.jpg,MN,1,num_4,16,num_4,0.850221582456,,,2017_May_02_1203,59.9944773092,MAFE4ImagesEEG,001,100341,
AFNE01.JPG,AFNE01.JPG,AFNE01.JPG,AFNE01.JPG,AFNE01.JPG,AFNE01.JPG,,,,,,,,,,,,,,,,,1,0,10,5,,,,,,,AMSA02.jpg,AMNE01.jpg,AMNE18.jpg,AMSA16.jpg,AMNE18.jpg,MN,1,num_2,16,num_2,0.783455251483,,,2017_May_02_1203,59.9944773092,MAFE4ImagesEEG,001,100341,
AFNE01.JPG,AFNE01.JPG,AFNE01.JPG,AFNE01.JPG,AFNE01.JPG,AFNE01.JPG,,,,,,,,,,,,,,,,,1,1,11,8,,,,,,,AMSA19.jpg,AMSA04.jpg,AMNE16.jpg,AMNE15.jpg,AMSA04.jpg,MS,2,num_6,16,num_6,1.06675895397,,,2017_May_02_1203,59.9944773092,MAFE4ImagesEEG,001,100341,
AFNE01.JPG,AFNE01.JPG,AFNE01.JPG,AFNE01.JPG,AFNE01.JPG,AFNE01.JPG,,,,,,,,,,,,,,,,,1,2,12,1,,,,,,,AMNE16.jpg,AMSA10.jpg,AMSA06.jpg,AMNE08.jpg,AMNE16.jpg,MN,1,num_8,16,num_8,0.783472571522,,,2017_May_02_1203,59.9944773092,MAFE4ImagesEEG,001,100341,
AFNE01.JPG,AFNE01.JPG,AFNE01.JPG,AFNE01.JPG,AFNE01.JPG,AFNE01.JPG,,,,,,,,,,,,,,,,,1,3,13,6,,,,,,,AMNE13.jpg,AMNE07.jpg,AMSA11.jpg,AMSA05.jpg,AMNE13.jpg,MN,1,num_8,32,num_6,1.13330140896,,,2017_May_02_1203,59.9944773092,MAFE4ImagesEEG,001,100341,
AFNE01.JPG,AFNE01.JPG,AFNE01.JPG,AFNE01.JPG,AFNE01.JPG,AFNE01.JPG,,,,,,,,,,,,,,,,,1,4,14,4,,,,,,,AMSA07.jpg,AMNE12.jpg,AMSA02.jpg,AMNE09.jpg,AMSA02.jpg,MS,2,num_2,32,num_8,1.09978449554,,,2017_May_02_1203,59.9944773092,MAFE4ImagesEEG,001,100341,
AFNE01.JPG,AFNE01.JPG,AFNE01.JPG,AFNE01.JPG,AFNE01.JPG,AFNE01.JPG,,,,,,,,,,,,,,,,,1,5,15,9,,,,,,,AMNE09.jpg,AMSA02.jpg,AMSA05.jpg,AMNE06.jpg,AMSA05.jpg,MS,2,num_2,16,num_2,0.950160994893,,,2017_May_02_1203,59.9944773092,MAFE4ImagesEEG,001,100341,
AFNE01.JPG,AFNE01.JPG,AFNE01.JPG,AFNE01.JPG,AFNE01.JPG,AFNE01.JPG,,,,,,,,,,,,,,,,,1,6,16,0,,,,,,,AMNE01.jpg,AMSA02.jpg,AMNE16.jpg,AMSA03.jpg,AMNE01.jpg,MN,1,num_8,32,num_6,0.80019366229,,,2017_May_02_1203,59.9944773092,MAFE4ImagesEEG,001,100341,
AFNE01.JPG,AFNE01.JPG,AFNE01.JPG,AFNE01.JPG,AFNE01.JPG,AFNE01.JPG,,,,,,,,,,,,,,,,,1,7,17,2,,,,,,,AMSA02.jpg,AMNE18.jpg,AMSA04.jpg,AMNE03.jpg,AMNE18.jpg,MN,1,num_6,16,num_6,0.700135897147,,,2017_May_02_1203,59.9944773092,MAFE4ImagesEEG,001,100341,
AFNE01.JPG,AFNE01.JPG,AFNE01.JPG,AFNE01.JPG,AFNE01.JPG,AFNE01.JPG,,,,,,,,,,,,,,,,,1,8,18,3,,,,,,,AMNE06.jpg,AMSA14.jpg,AMSA02.jpg,AMNE11.jpg,AMSA14.jpg,MS,2,num_6,16,num_6,0.666829708964,,,2017_May_02_1203,59.9944773092,MAFE4ImagesEEG,001,100341,
AFNE01.JPG,AFNE01.JPG,AFNE01.JPG,AFNE01.JPG,AFNE01.JPG,AFNE01.JPG,,,,,,,,,,,,,,,,,1,9,19,7,,,,,,,AMSA04.jpg,AMNE10.jpg,AMNE13.jpg,AMSA10.jpg,AMSA04.jpg,MS,2,num_8,16,num_8,1.4667263669,,,2017_May_02_1203,59.9944773092,MAFE4ImagesEEG,001,100341,
AFNE01.JPG,AFNE01.JPG,AFNE01.JPG,AFNE01.JPG,AFNE01.JPG,AFNE01.JPG,,,,,,,,,,,,,,,,,2,0,20,8,,,,,,,AMSA15.jpg,AMNE17.jpg,AMNE20.jpg,AMSA04.jpg,AMSA04.jpg,MS,2,num_4,32,num_8,0.883476773277,,,2017_May_02_1203,59.9944773092,MAFE4ImagesEEG,001,100341,
AFNE01.JPG,AFNE01.JPG,AFNE01.JPG,AFNE01.JPG,AFNE01.JPG,AFNE01.JPG,,,,,,,,,,,,,,,,,2,1,21,9,,,,,,,AMNE10.jpg,AMSA13.jpg,AMNE14.jpg,AMSA05.jpg,AMNE14.jpg,MN,1,num_2,16,num_2,0.800176983699,,,2017_May_02_1203,59.9944773092,MAFE4ImagesEEG,001,100341,
AFNE01.JPG,AFNE01.JPG,AFNE01.JPG,AFNE01.JPG,AFNE01.JPG,AFNE01.JPG,,,,,,,,,,,,,,,,,2,2,22,2,,,,,,,AMNE16.jpg,AMSA20.jpg,AMSA04.jpg,AMNE15.jpg,AMSA20.jpg,MS,2,num_6,16,num_6,0.70013461425,,,2017_May_02_1203,59.9944773092,MAFE4ImagesEEG,001,100341,
AFNE01.JPG,AFNE01.JPG,AFNE01.JPG,AFNE01.JPG,AFNE01.JPG,AFNE01.JPG,,,,,,,,,,,,,,,,,2,3,23,6,,,,,,,AMNE02.jpg,AMSA04.jpg,AMSA11.jpg,AMNE09.jpg,AMSA11.jpg,MS,2,num_2,32,num_8,1.35010531452,,,2017_May_02_1203,59.9944773092,MAFE4ImagesEEG,001,100341,
AFNE01.JPG,AFNE01.JPG,AFNE01.JPG,AFNE01.JPG,AFNE01.JPG,AFNE01.JPG,,,,,,,,,,,,,,,,,2,4,24,3,,,,,,,AMNE05.jpg,AMSA05.jpg,AMSA08.jpg,AMNE10.jpg,AMNE05.jpg,MN,1,num_8,16,num_8,0.850152623607,,,2017_May_02_1203,59.9944773092,MAFE4ImagesEEG,001,100341,
AFNE01.JPG,AFNE01.JPG,AFNE01.JPG,AFNE01.JPG,AFNE01.JPG,AFNE01.JPG,,,,,,,,,,,,,,,,,2,5,25,5,,,,,,,AMSA15.jpg,AMNE17.jpg,AMNE03.jpg,AMSA18.jpg,AMSA15.jpg,MS,2,num_8,16,num_8,0.666748241289,,,2017_May_02_1203,59.9944773092,MAFE4ImagesEEG,001,100341,
AFNE01.JPG,AFNE01.JPG,AFNE01.JPG,AFNE01.JPG,AFNE01.JPG,AFNE01.JPG,,,,,,,,,,,,,,,,,2,6,26,0,,,,,,,AMNE12.jpg,AMSA12.jpg,AMNE17.jpg,AMSA05.jpg,AMSA05.jpg,MS,2,num_4,32,num_6,1.41674784035,,,2017_May_02_1203,59.9944773092,MAFE4ImagesEEG,001,100341,
AFNE01.JPG,AFNE01.JPG,AFNE01.JPG,AFNE01.JPG,AFNE01.JPG,AFNE01.JPG,,,,,,,,,,,,,,,,,2,7,27,4,,,,,,,AMSA19.jpg,AMNE11.jpg,AMSA16.jpg,AMNE01.jpg,AMNE01.jpg,MN,1,num_4,16,num_4,0.783450119896,,,2017_May_02_1203,59.9944773092,MAFE4ImagesEEG,001,100341,
AFNE01.JPG,AFNE01.JPG,AFNE01.JPG,AFNE01.JPG,AFNE01.JPG,AFNE01.JPG,,,,,,,,,,,,,,,,,2,8,28,1,,,,,,,AMNE13.jpg,AMSA13.jpg,AMNE05.jpg,AMSA19.jpg,AMNE13.jpg,MN,1,num_8,16,num_8,0.750135592418,,,2017_May_02_1203,59.9944773092,MAFE4ImagesEEG,001,100341,
AFNE01.JPG,AFNE01.JPG,AFNE01.JPG,AFNE01.JPG,AFNE01.JPG,AFNE01.JPG,,,,,,,,,,,,,,,,,2,9,29,7,,,,,,,AMNE04.jpg,AMNE02.jpg,AMSA11.jpg,AMSA07.jpg,AMNE02.jpg,MN,1,num_6,32,num_4,0.783460704144,,,2017_May_02_1203,59.9944773092,MAFE4ImagesEEG,001,100341,
AFNE01.JPG,AFNE01.JPG,AFNE01.JPG,AFNE01.JPG,AFNE01.JPG,AFNE01.JPG,,,,,,,,,,,,,,,,,3,0,30,1,,,,,,,AMSA13.jpg,AMNE10.jpg,AMNE02.jpg,AMSA14.jpg,AMNE02.jpg,MN,1,num_2,16,num_2,1.30021082168,,,2017_May_02_1203,59.9944773092,MAFE4ImagesEEG,001,100341,
AFNE01.JPG,AFNE01.JPG,AFNE01.JPG,AFNE01.JPG,AFNE01.JPG,AFNE01.JPG,,,,,,,,,,,,,,,,,3,1,31,8,,,,,,,AMSA03.jpg,AMNE07.jpg,AMSA09.jpg,AMNE11.jpg,AMNE07.jpg,MN,1,num_6,16,num_6,0.516793096671,,,2017_May_02_1203,59.9944773092,MAFE4ImagesEEG,001,100341,
AFNE01.JPG,AFNE01.JPG,AFNE01.JPG,AFNE01.JPG,AFNE01.JPG,AFNE01.JPG,,,,,,,,,,,,,,,,,3,2,32,0,,,,,,,AMNE03.jpg,AMSA03.jpg,AMNE20.jpg,AMSA09.jpg,AMSA09.jpg,MS,2,num_4,16,num_4,0.999942266848,,,2017_May_02_1203,59.9944773092,MAFE4ImagesEEG,001,100341,
AFNE01.JPG,AFNE01.JPG,AFNE01.JPG,AFNE01.JPG,AFNE01.JPG,AFNE01.JPG,,,,,,,,,,,,,,,,,3,3,33,5,,,,,,,AMSA20.jpg,AMNE18.jpg,AMNE17.jpg,AMSA18.jpg,AMSA18.jpg,MS,2,num_4,16,num_4,0.516814906849,,,2017_May_02_1203,59.9944773092,MAFE4ImagesEEG,001,100341,
AFNE01.JPG,AFNE01.JPG,AFNE01.JPG,AFNE01.JPG,AFNE01.JPG,AFNE01.JPG,,,,,,,,,,,,,,,,,3,4,34,4,,,,,,,AMNE19.jpg,AMSA10.jpg,AMNE07.jpg,AMSA20.jpg,AMSA10.jpg,MS,2,num_6,16,num_6,0.816781646339,,,2017_May_02_1203,59.9944773092,MAFE4ImagesEEG,001,100341,
AFNE01.JPG,AFNE01.JPG,AFNE01.JPG,AFNE01.JPG,AFNE01.JPG,AFNE01.JPG,,,,,,,,,,,,,,,,,3,5,35,7,,,,,,,AMSA16.jpg,AMSA04.jpg,AMNE03.jpg,AMNE11.jpg,AMSA16.jpg,MS,2,num_8,32,num_4,1.45017302269,,,2017_May_02_1203,59.9944773092,MAFE4ImagesEEG,001,100341,
AFNE01.JPG,AFNE01.JPG,AFNE01.JPG,AFNE01.JPG,AFNE01.JPG,AFNE01.JPG,,,,,,,,,,,,,,,,,3,6,36,3,,,,,,,AMNE05.jpg,AMNE16.jpg,AMSA13.jpg,AMSA01.jpg,AMNE05.jpg,MN,1,num_8,16,num_8,1.18352337647,,,2017_May_02_1203,59.9944773092,MAFE4ImagesEEG,001,100341,
AFNE01.JPG,AFNE01.JPG,AFNE01.JPG,AFNE01.JPG,AFNE01.JPG,AFNE01.JPG,,,,,,,,,,,,,,,,,3,7,37,6,,,,,,,AMNE16.jpg,AMNE14.jpg,AMSA07.jpg,AMSA14.jpg,AMSA14.jpg,MS,2,num_4,16,num_4,0.883461698424,,,2017_May_02_1203,59.9944773092,MAFE4ImagesEEG,001,100341,
AFNE01.JPG,AFNE01.JPG,AFNE01.JPG,AFNE01.JPG,AFNE01.JPG,AFNE01.JPG,,,,,,,,,,,,,,,,,3,8,38,2,,,,,,,AMNE17.jpg,AMSA11.jpg,AMNE16.jpg,AMSA05.jpg,AMNE17.jpg,MN,1,num_8,16,num_8,1.68339556199,,,2017_May_02_1203,59.9944773092,MAFE4ImagesEEG,001,100341,
AFNE01.JPG,AFNE01.JPG,AFNE01.JPG,AFNE01.JPG,AFNE01.JPG,AFNE01.JPG,,,,,,,,,,,,,,,,,3,9,39,9,,,,,,,AMNE19.jpg,AMSA16.jpg,AMSA20.jpg,AMNE03.jpg,AMSA16.jpg,MS,2,num_6,32,num_2,1.75004450255,,,2017_May_02_1203,59.9944773092,MAFE4ImagesEEG,001,100341,
AFNE01.JPG,AFNE01.JPG,AFNE01.JPG,AFNE01.JPG,AFNE01.JPG,AFNE01.JPG,,,,,,,,,,,,,,,,,4,0,40,6,,,,,,,AMSA14.jpg,AMNE05.jpg,AMNE12.jpg,AMSA04.jpg,AMSA04.jpg,MS,2,num_4,16,num_4,0.816809871234,,,2017_May_02_1203,59.9944773092,MAFE4ImagesEEG,001,100341,
AFNE01.JPG,AFNE01.JPG,AFNE01.JPG,AFNE01.JPG,AFNE01.JPG,AFNE01.JPG,,,,,,,,,,,,,,,,,4,1,41,4,,,,,,,AMNE03.jpg,AMSA13.jpg,AMNE08.jpg,AMSA03.jpg,AMNE03.jpg,MN,1,num_8,16,num_8,0.816721026553,,,2017_May_02_1203,59.9944773092,MAFE4ImagesEEG,001,100341,
AFNE01.JPG,AFNE01.JPG,AFNE01.JPG,AFNE01.JPG,AFNE01.JPG,AFNE01.JPG,,,,,,,,,,,,,,,,,4,2,42,3,,,,,,,AMNE10.jpg,AMNE09.jpg,AMSA16.jpg,AMSA19.jpg,AMSA19.jpg,MS,2,num_4,32,num_6,1.88339370163,,,2017_May_02_1203,59.9944773092,MAFE4ImagesEEG,001,100341,
AFNE01.JPG,AFNE01.JPG,AFNE01.JPG,AFNE01.JPG,AFNE01.JPG,AFNE01.JPG,,,,,,,,,,,,,,,,,4,3,43,0,,,,,,,AMSA06.jpg,AMNE04.jpg,AMNE10.jpg,AMSA01.jpg,AMSA06.jpg,MS,2,num_8,32,num_4,0.716780331451,,,2017_May_02_1203,59.9944773092,MAFE4ImagesEEG,001,100341,
AFNE01.JPG,AFNE01.JPG,AFNE01.JPG,AFNE01.JPG,AFNE01.JPG,AFNE01.JPG,,,,,,,,,,,,,,,,,4,4,44,2,,,,,,,AMSA17.jpg,AMSA07.jpg,AMNE12.jpg,AMNE20.jpg,AMSA17.jpg,MS,2,num_8,16,num_8,0.933452092344,,,2017_May_02_1203,59.9944773092,MAFE4ImagesEEG,001,100341,
AFNE01.JPG,AFNE01.JPG,AFNE01.JPG,AFNE01.JPG,AFNE01.JPG,AFNE01.JPG,,,,,,,,,,,,,,,,,4,5,45,9,,,,,,,AMSA03.jpg,AMSA11.jpg,AMNE03.jpg,AMNE15.jpg,AMNE15.jpg,MN,1,num_4,16,num_4,0.683543102117,,,2017_May_02_1203,59.9944773092,MAFE4ImagesEEG,001,100341,
AFNE01.JPG,AFNE01.JPG,AFNE01.JPG,AFNE01.JPG,AFNE01.JPG,AFNE01.JPG,,,,,,,,,,,,,,,,,4,6,46,7,,,,,,,AMNE20.jpg,AMSA16.jpg,AMNE05.jpg,AMSA03.jpg,AMSA03.jpg,MS,2,num_4,16,num_4,0.666788333794,,,2017_May_02_1203,59.9944773092,MAFE4ImagesEEG,001,100341,
AFNE01.JPG,AFNE01.JPG,AFNE01.JPG,AFNE01.JPG,AFNE01.JPG,AFNE01.JPG,,,,,,,,,,,,,,,,,4,7,47,1,,,,,,,AMNE11.jpg,AMSA14.jpg,AMNE04.jpg,AMSA16.jpg,AMSA16.jpg,MS,2,num_4,32,num_6,0.783510418842,,,2017_May_02_1203,59.9944773092,MAFE4ImagesEEG,001,100341,
AFNE01.JPG,AFNE01.JPG,AFNE01.JPG,AFNE01.JPG,AFNE01.JPG,AFNE01.JPG,,,,,,,,,,,,,,,,,4,8,48,8,,,,,,,AMNE10.jpg,AMNE01.jpg,AMSA03.jpg,AMSA13.jpg,AMSA03.jpg,MS,2,num_2,16,num_2,0.966664624633,,,2017_May_02_1203,59.9944773092,MAFE4ImagesEEG,001,100341,
AFNE01.JPG,AFNE01.JPG,AFNE01.JPG,AFNE01.JPG,AFNE01.JPG,AFNE01.JPG,,,,,,,,,,,,,,,,,4,9,49,5,,,,,,,AMNE20.jpg,AMNE18.jpg,AMSA15.jpg,AMSA10.jpg,AMSA15.jpg,MS,2,num_2,32,num_4,1.05010297336,,,2017_May_02_1203,59.9944773092,MAFE4ImagesEEG,001,100341,
AFNE01.JPG,AFNE01.JPG,AFNE01.JPG,AFNE01.JPG,AFNE01.JPG,AFNE01.JPG,,,,,,,,,,,,,,,,,5,0,50,9,,,,,,,AMNE19.jpg,AMSA06.jpg,AMNE02.jpg,AMSA05.jpg,AMSA05.jpg,MS,2,num_4,32,num_8,0.883457849501,,,2017_May_02_1203,59.9944773092,MAFE4ImagesEEG,001,100341,
AFNE01.JPG,AFNE01.JPG,AFNE01.JPG,AFNE01.JPG,AFNE01.JPG,AFNE01.JPG,,,,,,,,,,,,,,,,,5,1,51,6,,,,,,,AMNE02.jpg,AMSA04.jpg,AMNE17.jpg,AMSA11.jpg,AMNE02.jpg,MN,1,num_8,32,num_2,1.03345853928,,,2017_May_02_1203,59.9944773092,MAFE4ImagesEEG,001,100341,
AFNE01.JPG,AFNE01.JPG,AFNE01.JPG,AFNE01.JPG,AFNE01.JPG,AFNE01.JPG,,,,,,,,,,,,,,,,,5,2,52,0,,,,,,,AMSA12.jpg,AMSA14.jpg,AMNE07.jpg,AMNE20.jpg,AMSA14.jpg,MS,2,num_6,16,num_6,0.466811683495,,,2017_May_02_1203,59.9944773092,MAFE4ImagesEEG,001,100341,
AFNE01.JPG,AFNE01.JPG,AFNE01.JPG,AFNE01.JPG,AFNE01.JPG,AFNE01.JPG,,,,,,,,,,,,,,,,,5,3,53,7,,,,,,,AMSA20.jpg,AMSA12.jpg,AMNE15.jpg,AMNE09.jpg,AMSA12.jpg,MS,2,num_6,32,num_4,0.916583140846,,,2017_May_02_1203,59.9944773092,MAFE4ImagesEEG,001,100341,
AFNE01.JPG,AFNE01.JPG,AFNE01.JPG,AFNE01.JPG,AFNE01.JPG,AFNE01.JPG,,,,,,,,,,,,,,,,,5,4,54,1,,,,,,,AMSA10.jpg,AMNE17.jpg,AMNE13.jpg,AMSA04.jpg,AMNE17.jpg,MN,1,num_6,16,num_6,0.833517491119,,,2017_May_02_1203,59.9944773092,MAFE4ImagesEEG,001,100341,
AFNE01.JPG,AFNE01.JPG,AFNE01.JPG,AFNE01.JPG,AFNE01.JPG,AFNE01.JPG,,,,,,,,,,,,,,,,,5,5,55,8,,,,,,,AMSA06.jpg,AMSA04.jpg,AMNE05.jpg,AMNE16.jpg,AMNE05.jpg,MN,1,num_2,32,num_4,0.450109195663,,,2017_May_02_1203,59.9944773092,MAFE4ImagesEEG,001,100341,
AFNE01.JPG,AFNE01.JPG,AFNE01.JPG,AFNE01.JPG,AFNE01.JPG,AFNE01.JPG,,,,,,,,,,,,,,,,,5,6,56,4,,,,,,,AMSA01.jpg,AMNE13.jpg,AMNE10.jpg,AMSA16.jpg,AMSA01.jpg,MS,2,num_8,32,num_6,1.31679688138,,,2017_May_02_1203,59.9944773092,MAFE4ImagesEEG,001,100341,
AFNE01.JPG,AFNE01.JPG,AFNE01.JPG,AFNE01.JPG,AFNE01.JPG,AFNE01.JPG,,,,,,,,,,,,,,,,,5,7,57,5,,,,,,,AMNE17.jpg,AMNE04.jpg,AMSA13.jpg,AMSA08.jpg,AMSA13.jpg,MS,2,num_2,32,num_4,1.86671398627,,,2017_May_02_1203,59.9944773092,MAFE4ImagesEEG,001,100341,
AFNE01.JPG,AFNE01.JPG,AFNE01.JPG,AFNE01.JPG,AFNE01.JPG,AFNE01.JPG,,,,,,,,,,,,,,,,,5,8,58,2,,,,,,,AMSA19.jpg,AMNE18.jpg,AMSA01.jpg,AMNE04.jpg,AMNE04.jpg,MN,1,num_4,16,num_4,0.816772344755,,,2017_May_02_1203,59.9944773092,MAFE4ImagesEEG,001,100341,
AFNE01.JPG,AFNE01.JPG,AFNE01.JPG,AFNE01.JPG,AFNE01.JPG,AFNE01.JPG,,,,,,,,,,,,,,,,,5,9,59,3,,,,,,,AMSA09.jpg,AMNE13.jpg,AMNE04.jpg,AMSA06.jpg,AMSA09.jpg,MS,2,num_8,32,num_6,0.68349851924,,,2017_May_02_1203,59.9944773092,MAFE4ImagesEEG,001,100341,
,,,,,,,,,,,,,,,,,,,,,,,,,,,,,,,,,,,,,,,,,,,space,13.5660714498,2017_May_02_1203,59.9944773092,MAFE4ImagesEEG,001,100341,
AFNE01.JPG,AFNE01.JPG,AFNE01.JPG,AFNE01.JPG,AFNE01.JPG,AFNE01.JPG,,,,,,,,,,,,,,,,,,,,,0,0,0,0,,,AFNE06.jpg,AFSA11.jpg,AFSA19.jpg,AFNE20.jpg,AFSA11.jpg,FS,4,num_6,16,num_6,0.700156424427,,,2017_May_02_1203,59.9944773092,MAFE4ImagesEEG,001,100341,
AFNE01.JPG,AFNE01.JPG,AFNE01.JPG,AFNE01.JPG,AFNE01.JPG,AFNE01.JPG,,,,,,,,,,,,,,,,,,,,,0,1,1,9,,,AFSA09.jpg,AFNE07.jpg,AFNE18.jpg,AFSA17.jpg,AFSA17.jpg,FS,4,num_4,16,num_4,0.966746413149,,,2017_May_02_1203,59.9944773092,MAFE4ImagesEEG,001,100341,
AFNE01.JPG,AFNE01.JPG,AFNE01.JPG,AFNE01.JPG,AFNE01.JPG,AFNE01.JPG,,,,,,,,,,,,,,,,,,,,,0,2,2,2,,,AFSA12.jpg,AFNE14.jpg,AFSA08.jpg,AFNE10.jpg,AFSA08.jpg,FS,4,num_2,16,num_2,0.716766860103,,,2017_May_02_1203,59.9944773092,MAFE4ImagesEEG,001,100341,
AFNE01.JPG,AFNE01.JPG,AFNE01.JPG,AFNE01.JPG,AFNE01.JPG,AFNE01.JPG,,,,,,,,,,,,,,,,,,,,,0,3,3,5,,,AFNE14.jpg,AFSA15.jpg,AFSA10.jpg,AFNE13.jpg,AFNE13.jpg,FN,3,num_4,16,num_4,1.46669685887,,,2017_May_02_1203,59.9944773092,MAFE4ImagesEEG,001,100341,
AFNE01.JPG,AFNE01.JPG,AFNE01.JPG,AFNE01.JPG,AFNE01.JPG,AFNE01.JPG,,,,,,,,,,,,,,,,,,,,,0,4,4,7,,,AFSA03.jpg,AFNE13.jpg,AFNE16.jpg,AFSA20.jpg,AFNE16.jpg,FN,3,num_2,32,num_6,1.0001109757,,,2017_May_02_1203,59.9944773092,MAFE4ImagesEEG,001,100341,
AFNE01.JPG,AFNE01.JPG,AFNE01.JPG,AFNE01.JPG,AFNE01.JPG,AFNE01.JPG,,,,,,,,,,,,,,,,,,,,,0,5,5,8,,,AFSA19.jpg,AFNE16.jpg,AFNE15.jpg,AFSA14.jpg,AFSA14.jpg,FS,4,num_4,16,num_4,1.2501171499,,,2017_May_02_1203,59.9944773092,MAFE4ImagesEEG,001,100341,
AFNE01.JPG,AFNE01.JPG,AFNE01.JPG,AFNE01.JPG,AFNE01.JPG,AFNE01.JPG,,,,,,,,,,,,,,,,,,,,,0,6,6,3,,,AFSA18.jpg,AFSA20.jpg,AFNE09.jpg,AFNE03.jpg,AFNE09.jpg,FN,3,num_2,16,num_2,1.21676092665,,,2017_May_02_1203,59.9944773092,MAFE4ImagesEEG,001,100341,
AFNE01.JPG,AFNE01.JPG,AFNE01.JPG,AFNE01.JPG,AFNE01.JPG,AFNE01.JPG,,,,,,,,,,,,,,,,,,,,,0,7,7,4,,,AFSA15.jpg,AFSA08.jpg,AFNE08.jpg,AFNE18.jpg,AFSA15.jpg,FS,4,num_8,32,num_6,0.866757606855,,,2017_May_02_1203,59.9944773092,MAFE4ImagesEEG,001,100341,
AFNE01.JPG,AFNE01.JPG,AFNE01.JPG,AFNE01.JPG,AFNE01.JPG,AFNE01.JPG,,,,,,,,,,,,,,,,,,,,,0,8,8,1,,,AFSA08.jpg,AFNE01.jpg,AFSA19.jpg,AFNE16.jpg,AFNE01.jpg,FN,3,num_6,16,num_6,0.800122458255,,,2017_May_02_1203,59.9944773092,MAFE4ImagesEEG,001,100341,
AFNE01.JPG,AFNE01.JPG,AFNE01.JPG,AFNE01.JPG,AFNE01.JPG,AFNE01.JPG,,,,,,,,,,,,,,,,,,,,,0,9,9,6,,,AFNE01.jpg,AFSA05.jpg,AFNE19.jpg,AFSA12.jpg,AFNE01.jpg,FN,3,num_8,16,num_8,0.899999967776,,,2017_May_02_1203,59.9944773092,MAFE4ImagesEEG,001,100341,
AFNE01.JPG,AFNE01.JPG,AFNE01.JPG,AFNE01.JPG,AFNE01.JPG,AFNE01.JPG,,,,,,,,,,,,,,,,,,,,,1,0,10,9,,,AFNE05.jpg,AFNE02.jpg,AFSA03.jpg,AFSA02.jpg,AFSA02.jpg,FS,4,num_4,32,num_2,1.78809217643,,,2017_May_02_1203,59.9944773092,MAFE4ImagesEEG,001,100341,
AFNE01.JPG,AFNE01.JPG,AFNE01.JPG,AFNE01.JPG,AFNE01.JPG,AFNE01.JPG,,,,,,,,,,,,,,,,,,,,,1,1,11,6,,,AFSA09.jpg,AFSA08.jpg,AFNE14.jpg,AFNE02.jpg,AFSA08.jpg,FS,4,num_6,16,num_6,0.550156696932,,,2017_May_02_1203,59.9944773092,MAFE4ImagesEEG,001,100341,
AFNE01.JPG,AFNE01.JPG,AFNE01.JPG,AFNE01.JPG,AFNE01.JPG,AFNE01.JPG,,,,,,,,,,,,,,,,,,,,,1,2,12,0,,,AFNE09.jpg,AFSA02.jpg,AFNE11.jpg,AFSA14.jpg,AFNE11.jpg,FN,3,num_2,16,num_2,1.0001350313,,,2017_May_02_1203,59.9944773092,MAFE4ImagesEEG,001,100341,
AFNE01.JPG,AFNE01.JPG,AFNE01.JPG,AFNE01.JPG,AFNE01.JPG,AFNE01.JPG,,,,,,,,,,,,,,,,,,,,,1,3,13,7,,,AFNE12.jpg,AFSA09.jpg,AFNE06.jpg,AFSA07.jpg,AFNE12.jpg,FN,3,num_8,32,num_2,2.16670253593,,,2017_May_02_1203,59.9944773092,MAFE4ImagesEEG,001,100341,
AFNE01.JPG,AFNE01.JPG,AFNE01.JPG,AFNE01.JPG,AFNE01.JPG,AFNE01.JPG,,,,,,,,,,,,,,,,,,,,,1,4,14,5,,,AFSA16.jpg,AFSA05.jpg,AFNE13.jpg,AFNE09.jpg,AFNE13.jpg,FN,3,num_2,32,num_4,0.750174722634,,,2017_May_02_1203,59.9944773092,MAFE4ImagesEEG,001,100341,
AFNE01.JPG,AFNE01.JPG,AFNE01.JPG,AFNE01.JPG,AFNE01.JPG,AFNE01.JPG,,,,,,,,,,,,,,,,,,,,,1,5,15,1,,,AFSA20.jpg,AFSA12.jpg,AFNE07.jpg,AFNE15.jpg,AFNE07.jpg,FN,3,num_2,16,num_2,1.08342872653,,,2017_May_02_1203,59.9944773092,MAFE4ImagesEEG,001,100341,
AFNE01.JPG,AFNE01.JPG,AFNE01.JPG,AFNE01.JPG,AFNE01.JPG,AFNE01.JPG,,,,,,,,,,,,,,,,,,,,,1,6,16,2,,,AFNE03.jpg,AFSA14.jpg,AFNE11.jpg,AFSA04.jpg,AFSA14.jpg,FS,4,num_6,16,num_6,1.88338151365,,,2017_May_02_1203,59.9944773092,MAFE4ImagesEEG,001,100341,
AFNE01.JPG,AFNE01.JPG,AFNE01.JPG,AFNE01.JPG,AFNE01.JPG,AFNE01.JPG,,,,,,,,,,,,,,,,,,,,,1,7,17,8,,,AFNE15.jpg,AFSA20.jpg,AFNE02.jpg,AFSA05.jpg,AFNE15.jpg,FN,3,num_8,16,num_8,0.566799206892,,,2017_May_02_1203,59.9944773092,MAFE4ImagesEEG,001,100341,
AFNE01.JPG,AFNE01.JPG,AFNE01.JPG,AFNE01.JPG,AFNE01.JPG,AFNE01.JPG,,,,,,,,,,,,,,,,,,,,,1,8,18,3,,,AFNE08.jpg,AFSA09.jpg,AFNE05.jpg,AFSA07.jpg,AFNE08.jpg,FN,3,num_8,32,num_4,0.83340042131,,,2017_May_02_1203,59.9944773092,MAFE4ImagesEEG,001,100341,
AFNE01.JPG,AFNE01.JPG,AFNE01.JPG,AFNE01.JPG,AFNE01.JPG,AFNE01.JPG,,,,,,,,,,,,,,,,,,,,,1,9,19,4,,,AFSA08.jpg,AFNE20.jpg,AFSA16.jpg,AFNE17.jpg,AFNE20.jpg,FN,3,num_6,16,num_6,0.65014422033,,,2017_May_02_1203,59.9944773092,MAFE4ImagesEEG,001,100341,
AFNE01.JPG,AFNE01.JPG,AFNE01.JPG,AFNE01.JPG,AFNE01.JPG,AFNE01.JPG,,,,,,,,,,,,,,,,,,,,,2,0,20,0,,,AFSA17.jpg,AFNE17.jpg,AFSA09.jpg,AFNE08.jpg,AFNE08.jpg,FN,3,num_4,16,num_4,0.733473517699,,,2017_May_02_1203,59.9944773092,MAFE4ImagesEEG,001,100341,
AFNE01.JPG,AFNE01.JPG,AFNE01.JPG,AFNE01.JPG,AFNE01.JPG,AFNE01.JPG,,,,,,,,,,,,,,,,,,,,,2,1,21,3,,,AFNE07.jpg,AFSA14.jpg,AFNE09.jpg,AFSA11.jpg,AFSA14.jpg,FS,4,num_6,32,num_4,0.883455604548,,,2017_May_02_1203,59.9944773092,MAFE4ImagesEEG,001,100341,
AFNE01.JPG,AFNE01.JPG,AFNE01.JPG,AFNE01.JPG,AFNE01.JPG,AFNE01.JPG,,,,,,,,,,,,,,,,,,,,,2,2,22,1,,,AFSA20.jpg,AFSA17.jpg,AFNE03.jpg,AFNE11.jpg,AFSA17.jpg,FS,4,num_6,16,num_6,0.933481279528,,,2017_May_02_1203,59.9944773092,MAFE4ImagesEEG,001,100341,
AFNE01.JPG,AFNE01.JPG,AFNE01.JPG,AFNE01.JPG,AFNE01.JPG,AFNE01.JPG,,,,,,,,,,,,,,,,,,,,,2,3,23,2,,,AFSA17.jpg,AFSA20.jpg,AFNE09.jpg,AFNE08.jpg,AFSA20.jpg,FS,4,num_6,16,num_6,0.800134967081,,,2017_May_02_1203,59.9944773092,MAFE4ImagesEEG,001,100341,
AFNE01.JPG,AFNE01.JPG,AFNE01.JPG,AFNE01.JPG,AFNE01.JPG,AFNE01.JPG,,,,,,,,,,,,,,,,,,,,,2,4,24,7,,,AFNE04.jpg,AFNE14.jpg,AFSA03.jpg,AFSA11.jpg,AFSA03.jpg,FS,4,num_2,16,num_2,1.13343644026,,,2017_May_02_1203,59.9944773092,MAFE4ImagesEEG,001,100341,
AFNE01.JPG,AFNE01.JPG,AFNE01.JPG,AFNE01.JPG,AFNE01.JPG,AFNE01.JPG,,,,,,,,,,,,,,,,,,,,,2,5,25,6,,,AFSA06.jpg,AFNE07.jpg,AFNE05.jpg,AFSA05.jpg,AFNE07.jpg,FN,3,num_6,16,num_6,0.666799880331,,,2017_May_02_1203,59.9944773092,MAFE4ImagesEEG,001,100341,
AFNE01.JPG,AFNE01.JPG,AFNE01.JPG,AFNE01.JPG,AFNE01.JPG,AFNE01.JPG,,,,,,,,,,,,,,,,,,,,,2,6,26,5,,,AFNE20.jpg,AFSA19.jpg,AFNE02.jpg,AFSA06.jpg,AFSA19.jpg,FS,4,num_6,16,num_6,0.733470310224,,,2017_May_02_1203,59.9944773092,MAFE4ImagesEEG,001,100341,
AFNE01.JPG,AFNE01.JPG,AFNE01.JPG,AFNE01.JPG,AFNE01.JPG,AFNE01.JPG,,,,,,,,,,,,,,,,,,,,,2,7,27,8,,,AFNE02.jpg,AFSA16.jpg,AFSA15.jpg,AFNE16.jpg,AFNE16.jpg,FN,3,num_4,32,num_8,1.39994528191,,,2017_May_02_1203,59.9944773092,MAFE4ImagesEEG,001,100341,
AFNE01.JPG,AFNE01.JPG,AFNE01.JPG,AFNE01.JPG,AFNE01.JPG,AFNE01.JPG,,,,,,,,,,,,,,,,,,,,,2,8,28,4,,,AFSA09.jpg,AFNE16.jpg,AFSA15.jpg,AFNE20.jpg,AFNE20.jpg,FN,3,num_4,16,num_4,0.900172204711,,,2017_May_02_1203,59.9944773092,MAFE4ImagesEEG,001,100341,
AFNE01.JPG,AFNE01.JPG,AFNE01.JPG,AFNE01.JPG,AFNE01.JPG,AFNE01.JPG,,,,,,,,,,,,,,,,,,,,,2,9,29,9,,,AFNE20.jpg,AFSA11.jpg,AFNE18.jpg,AFSA18.jpg,AFSA18.jpg,FS,4,num_4,32,num_6,0.483502303949,,,2017_May_02_1203,59.9944773092,MAFE4ImagesEEG,001,100341,
AFNE01.JPG,AFNE01.JPG,AFNE01.JPG,AFNE01.JPG,AFNE01.JPG,AFNE01.JPG,,,,,,,,,,,,,,,,,,,,,3,0,30,7,,,AFSA11.jpg,AFNE02.jpg,AFNE14.jpg,AFSA12.jpg,AFSA11.jpg,FS,4,num_8,16,num_8,1.00023798854,,,2017_May_02_1203,59.9944773092,MAFE4ImagesEEG,001,100341,
AFNE01.JPG,AFNE01.JPG,AFNE01.JPG,AFNE01.JPG,AFNE01.JPG,AFNE01.JPG,,,,,,,,,,,,,,,,,,,,,3,1,31,8,,,AFNE18.jpg,AFSA20.jpg,AFSA15.jpg,AFNE17.jpg,AFNE17.jpg,FN,3,num_4,16,num_4,0.950152655831,,,2017_May_02_1203,59.9944773092,MAFE4ImagesEEG,001,100341,
AFNE01.JPG,AFNE01.JPG,AFNE01.JPG,AFNE01.JPG,AFNE01.JPG,AFNE01.JPG,,,,,,,,,,,,,,,,,,,,,3,2,32,1,,,AFSA17.jpg,AFNE05.jpg,AFNE08.jpg,AFSA07.jpg,AFNE05.jpg,FN,3,num_6,32,num_2,1.43326686556,,,2017_May_02_1203,59.9944773092,MAFE4ImagesEEG,001,100341,
AFNE01.JPG,AFNE01.JPG,AFNE01.JPG,AFNE01.JPG,AFNE01.JPG,AFNE01.JPG,,,,,,,,,,,,,,,,,,,,,3,3,33,0,,,AFSA01.jpg,AFSA17.jpg,AFNE17.jpg,AFNE08.jpg,AFNE08.jpg,FN,3,num_4,16,num_4,0.933460431639,,,2017_May_02_1203,59.9944773092,MAFE4ImagesEEG,001,100341,
AFNE01.JPG,AFNE01.JPG,AFNE01.JPG,AFNE01.JPG,AFNE01.JPG,AFNE01.JPG,,,,,,,,,,,,,,,,,,,,,3,4,34,3,,,AFNE19.jpg,AFSA10.jpg,AFNE17.jpg,AFSA01.jpg,AFNE17.jpg,FN,3,num_2,32,num_8,0.800168324029,,,2017_May_02_1203,59.9944773092,MAFE4ImagesEEG,001,100341,
AFNE01.JPG,AFNE01.JPG,AFNE01.JPG,AFNE01.JPG,AFNE01.JPG,AFNE01.JPG,,,,,,,,,,,,,,,,,,,,,3,5,35,2,,,AFNE16.jpg,AFNE20.jpg,AFSA11.jpg,AFSA05.jpg,AFSA05.jpg,FS,4,num_4,16,num_4,0.83352166065,,,2017_May_02_1203,59.9944773092,MAFE4ImagesEEG,001,100341,
AFNE01.JPG,AFNE01.JPG,AFNE01.JPG,AFNE01.JPG,AFNE01.JPG,AFNE01.JPG,,,,,,,,,,,,,,,,,,,,,3,6,36,6,,,AFNE02.jpg,AFSA09.jpg,AFSA03.jpg,AFNE15.jpg,AFNE02.jpg,FN,3,num_8,16,num_8,1.15018319013,,,2017_May_02_1203,59.9944773092,MAFE4ImagesEEG,001,100341,
AFNE01.JPG,AFNE01.JPG,AFNE01.JPG,AFNE01.JPG,AFNE01.JPG,AFNE01.JPG,,,,,,,,,,,,,,,,,,,,,3,7,37,9,,,AFSA06.jpg,AFNE11.jpg,AFSA11.jpg,AFNE03.jpg,AFSA06.jpg,FS,4,num_8,32,num_4,0.700167329749,,,2017_May_02_1203,59.9944773092,MAFE4ImagesEEG,001,100341,
AFNE01.JPG,AFNE01.JPG,AFNE01.JPG,AFNE01.JPG,AFNE01.JPG,AFNE01.JPG,,,,,,,,,,,,,,,,,,,,,3,8,38,4,,,AFSA13.jpg,AFNE20.jpg,AFSA03.jpg,AFNE02.jpg,AFSA13.jpg,FS,4,num_8,32,num_2,0.883502752986,,,2017_May_02_1203,59.9944773092,MAFE4ImagesEEG,001,100341,
