IPosition2,IPosition3,IPosition1,IPosition6,IPosition4,IPosition5,TrialsM1.thisRepN,TrialsM1.thisTrialN,TrialsM1.thisN,TrialsM1.thisIndex,TrialsF1.thisRepN,TrialsF1.thisTrialN,TrialsF1.thisN,TrialsF1.thisIndex,TrialsM2.thisRepN,TrialsM2.thisTrialN,TrialsM2.thisN,TrialsM2.thisIndex,TrialsF2.thisRepN,TrialsF2.thisTrialN,TrialsF2.thisN,TrialsF2.thisIndex,TrialsM3.thisRepN,TrialsM3.thisTrialN,TrialsM3.thisN,TrialsM3.thisIndex,TrialsF3.thisRepN,TrialsF3.thisTrialN,TrialsF3.thisN,TrialsF3.thisIndex,InstrKey_resp.keys,InstrKey_resp.rt,Image0 _Position,Image1 _Position,Image2 _Position,Image3 _Position,Center_image,condition,code,correct_answer,accuracy,Key_Resp.keys,Key_Resp.rt,BreakKey_resp.keys,BreakKey_resp.rt,date,frameRate,expName,session,participant,
,,,,,,,,,,,,,,,,,,,,,,,,,,,,,,space,40.3473043004,,,,,,,,,,,,,,2017_May_04_1609,60.0072944556,MAFE4ImagesEEG,001,100334,
AFNE22.JPG,AFSA24.JPG,AFSA22.JPG,AFNE25.JPG,AFNE24.JPG,AFSA25.JPG,0,0,0,6,,,,,,,,,,,,,,,,,,,,,,,AMNE05.jpg,AMSA03.jpg,AMSA06.jpg,AMNE09.jpg,AMNE09.jpg,MN,1,num_4,32,num_8,1.46668563294,,,2017_May_04_1609,60.0072944556,MAFE4ImagesEEG,001,100334,
AFNE23.JPG,AFNE24.JPG,AFNE22.JPG,AFSA24.JPG,AFSA22.JPG,AFSA23.JPG,0,1,1,8,,,,,,,,,,,,,,,,,,,,,,,AMSA12.jpg,AMNE12.jpg,AMNE20.jpg,AMSA14.jpg,AMSA14.jpg,MS,2,num_4,16,num_4,0.81677042041,,,2017_May_04_1609,60.0072944556,MAFE4ImagesEEG,001,100334,
AMNE22.JPG,AMSA24.JPG,AMSA22.JPG,AMNE25.JPG,AMNE24.JPG,AMSA25.JPG,0,2,2,7,,,,,,,,,,,,,,,,,,,,,,,AMNE08.jpg,AMSA19.jpg,AMSA17.jpg,AMNE18.jpg,AMNE18.jpg,MN,1,num_4,32,num_2,1.61671166099,,,2017_May_04_1609,60.0072944556,MAFE4ImagesEEG,001,100334,
AMSA21.JPG,AMNE22.JPG,AMNE21.JPG,AMSA23.JPG,AMSA22.JPG,AMNE23.JPG,0,3,3,1,,,,,,,,,,,,,,,,,,,,,,,AMSA07.jpg,AMSA06.jpg,AMNE08.jpg,AMNE02.jpg,AMSA07.jpg,MS,2,num_8,32,num_6,1.58367521432,,,2017_May_04_1609,60.0072944556,MAFE4ImagesEEG,001,100334,
AMSA21.JPG,AMNE23.JPG,AMNE21.JPG,AMSA25.JPG,AMNE25.JPG,AMSA23.JPG,0,4,4,5,,,,,,,,,,,,,,,,,,,,,,,AMSA02.jpg,AMSA06.jpg,AMNE02.jpg,AMNE16.jpg,AMSA06.jpg,MS,2,num_6,32,num_2,2.2664924839,,,2017_May_04_1609,60.0072944556,MAFE4ImagesEEG,001,100334,
AFSA25.JPG,AFNE24.JPG,AFSA24.JPG,AFNE21.JPG,AFSA21.JPG,AFNE25.JPG,0,5,5,2,,,,,,,,,,,,,,,,,,,,,,,AMSA14.jpg,AMNE04.jpg,AMSA07.jpg,AMNE12.jpg,AMSA14.jpg,MS,2,num_8,16,num_8,1.36671799561,,,2017_May_04_1609,60.0072944556,MAFE4ImagesEEG,001,100334,
AFSA21.JPG,AFNE23.JPG,AFNE21.JPG,AFSA25.JPG,AFNE25.JPG,AFSA23.JPG,0,6,6,4,,,,,,,,,,,,,,,,,,,,,,,AMSA08.jpg,AMNE09.jpg,AMSA12.jpg,AMNE11.jpg,AMSA08.jpg,MS,2,num_8,32,num_4,2.01668613008,,,2017_May_04_1609,60.0072944556,MAFE4ImagesEEG,001,100334,
AMNE23.JPG,AMNE24.JPG,AMNE22.JPG,AMSA24.JPG,AMSA22.JPG,AMSA23.JPG,0,7,7,9,,,,,,,,,,,,,,,,,,,,,,,AMNE11.jpg,AMSA02.jpg,AMNE03.jpg,AMSA16.jpg,AMNE11.jpg,MN,1,num_8,16,num_8,1.79998293682,,,2017_May_04_1609,60.0072944556,MAFE4ImagesEEG,001,100334,
AFSA21.JPG,AFNE22.JPG,AFNE21.JPG,AFSA23.JPG,AFSA22.JPG,AFNE23.JPG,0,8,8,0,,,,,,,,,,,,,,,,,,,,,,,AMSA05.jpg,AMSA12.jpg,AMNE10.jpg,AMNE01.jpg,AMSA05.jpg,MS,2,num_8,32,num_6,2.20000519603,,,2017_May_04_1609,60.0072944556,MAFE4ImagesEEG,001,100334,
AMSA25.JPG,AMNE24.JPG,AMSA24.JPG,AMNE26.JPG,AMSA21.JPG,AMNE25.JPG,0,9,9,3,,,,,,,,,,,,,,,,,,,,,,,AMNE04.jpg,AMNE17.jpg,AMSA13.jpg,AMSA17.jpg,AMSA13.jpg,MS,2,num_2,16,num_2,1.18344030506,,,2017_May_04_1609,60.0072944556,MAFE4ImagesEEG,001,100334,
AFNE22.JPG,AFSA24.JPG,AFSA22.JPG,AFNE25.JPG,AFNE24.JPG,AFSA25.JPG,,,,,0,0,0,6,,,,,,,,,,,,,,,,,,,AFNE18.jpg,AFNE05.jpg,AFSA20.jpg,AFSA07.jpg,AFSA07.jpg,FS,4,num_4,16,num_4,2.65008199681,,,2017_May_04_1609,60.0072944556,MAFE4ImagesEEG,001,100334,
AMSA21.JPG,AMNE23.JPG,AMNE21.JPG,AMSA25.JPG,AMNE25.JPG,AMSA23.JPG,,,,,0,1,1,5,,,,,,,,,,,,,,,,,,,AFSA12.jpg,AFNE13.jpg,AFNE10.jpg,AFSA17.jpg,AFSA17.jpg,FS,4,num_4,16,num_4,1.48338106461,,,2017_May_04_1609,60.0072944556,MAFE4ImagesEEG,001,100334,
AFSA21.JPG,AFNE22.JPG,AFNE21.JPG,AFSA23.JPG,AFSA22.JPG,AFNE23.JPG,,,,,0,2,2,0,,,,,,,,,,,,,,,,,,,AFNE11.jpg,AFSA17.jpg,AFSA14.jpg,AFNE07.jpg,AFSA17.jpg,FS,4,num_6,16,num_6,1.78334491723,,,2017_May_04_1609,60.0072944556,MAFE4ImagesEEG,001,100334,
AFNE23.JPG,AFNE24.JPG,AFNE22.JPG,AFSA24.JPG,AFSA22.JPG,AFSA23.JPG,,,,,0,3,3,8,,,,,,,,,,,,,,,,,,,AFSA01.jpg,AFSA18.jpg,AFNE17.jpg,AFNE06.jpg,AFNE06.jpg,FN,3,num_4,16,num_4,1.78364063893,,,2017_May_04_1609,60.0072944556,MAFE4ImagesEEG,001,100334,
AMSA21.JPG,AMNE22.JPG,AMNE21.JPG,AMSA23.JPG,AMSA22.JPG,AMNE23.JPG,,,,,0,4,4,1,,,,,,,,,,,,,,,,,,,AFSA02.jpg,AFNE10.jpg,AFNE20.jpg,AFSA11.jpg,AFSA11.jpg,FS,4,num_4,16,num_4,0.966744167963,,,2017_May_04_1609,60.0072944556,MAFE4ImagesEEG,001,100334,
AFSA25.JPG,AFNE24.JPG,AFSA24.JPG,AFNE21.JPG,AFSA21.JPG,AFNE25.JPG,,,,,0,5,5,2,,,,,,,,,,,,,,,,,,,AFNE17.jpg,AFNE19.jpg,AFSA19.jpg,AFSA06.jpg,AFNE17.jpg,FN,3,num_8,16,num_8,1.10010042344,,,2017_May_04_1609,60.0072944556,MAFE4ImagesEEG,001,100334,
AMNE22.JPG,AMSA24.JPG,AMSA22.JPG,AMNE25.JPG,AMNE24.JPG,AMSA25.JPG,,,,,0,6,6,7,,,,,,,,,,,,,,,,,,,AFNE19.jpg,AFSA05.jpg,AFSA20.jpg,AFNE12.jpg,AFNE12.jpg,FN,3,num_4,16,num_4,0.866753758164,,,2017_May_04_1609,60.0072944556,MAFE4ImagesEEG,001,100334,
AFSA21.JPG,AFNE23.JPG,AFNE21.JPG,AFSA25.JPG,AFNE25.JPG,AFSA23.JPG,,,,,0,7,7,4,,,,,,,,,,,,,,,,,,,AFSA19.jpg,AFNE13.jpg,AFSA12.jpg,AFNE10.jpg,AFNE13.jpg,FN,3,num_6,16,num_6,0.716743767029,,,2017_May_04_1609,60.0072944556,MAFE4ImagesEEG,001,100334,
AMNE23.JPG,AMNE24.JPG,AMNE22.JPG,AMSA24.JPG,AMSA22.JPG,AMSA23.JPG,,,,,0,8,8,9,,,,,,,,,,,,,,,,,,,AFSA03.jpg,AFNE03.jpg,AFSA06.jpg,AFNE18.jpg,AFSA06.jpg,FS,4,num_2,16,num_2,2.43332491932,,,2017_May_04_1609,60.0072944556,MAFE4ImagesEEG,001,100334,
AMSA25.JPG,AMNE24.JPG,AMSA24.JPG,AMNE26.JPG,AMSA21.JPG,AMNE25.JPG,,,,,0,9,9,3,,,,,,,,,,,,,,,,,,,AFSA10.jpg,AFNE17.jpg,AFNE10.jpg,AFSA17.jpg,AFSA17.jpg,FS,4,num_4,16,num_4,0.866755041061,,,2017_May_04_1609,60.0072944556,MAFE4ImagesEEG,001,100334,
AFSA21.JPG,AFNE22.JPG,AFNE21.JPG,AFSA23.JPG,AFSA22.JPG,AFNE23.JPG,,,,,,,,,0,0,0,0,,,,,,,,,,,,,,,AMNE05.jpg,AMSA09.jpg,AMSA05.jpg,AMNE06.jpg,AMSA05.jpg,MS,2,num_2,16,num_2,1.20011745463,,,2017_May_04_1609,60.0072944556,MAFE4ImagesEEG,001,100334,
AMSA21.JPG,AMNE22.JPG,AMNE21.JPG,AMSA23.JPG,AMSA22.JPG,AMNE23.JPG,,,,,,,,,0,1,1,1,,,,,,,,,,,,,,,AMSA19.jpg,AMNE19.jpg,AMNE20.jpg,AMSA14.jpg,AMSA14.jpg,MS,2,num_4,16,num_4,0.750116027193,,,2017_May_04_1609,60.0072944556,MAFE4ImagesEEG,001,100334,
AFSA25.JPG,AFNE24.JPG,AFSA24.JPG,AFNE21.JPG,AFSA21.JPG,AFNE25.JPG,,,,,,,,,0,2,2,2,,,,,,,,,,,,,,,AMSA05.jpg,AMSA15.jpg,AMNE03.jpg,AMNE08.jpg,AMSA15.jpg,MS,2,num_6,16,num_6,0.700165084563,,,2017_May_04_1609,60.0072944556,MAFE4ImagesEEG,001,100334,
AMNE23.JPG,AMNE24.JPG,AMNE22.JPG,AMSA24.JPG,AMSA22.JPG,AMSA23.JPG,,,,,,,,,0,3,3,9,,,,,,,,,,,,,,,AMNE16.jpg,AMNE12.jpg,AMSA08.jpg,AMSA14.jpg,AMSA08.jpg,MS,2,num_2,16,num_2,3.11689303908,,,2017_May_04_1609,60.0072944556,MAFE4ImagesEEG,001,100334,
AFNE23.JPG,AFNE24.JPG,AFNE22.JPG,AFSA24.JPG,AFSA22.JPG,AFSA23.JPG,,,,,,,,,0,4,4,8,,,,,,,,,,,,,,,AMSA20.jpg,AMNE06.jpg,AMNE04.jpg,AMSA07.jpg,AMSA07.jpg,MS,2,num_4,16,num_4,0.650129787158,,,2017_May_04_1609,60.0072944556,MAFE4ImagesEEG,001,100334,
AFNE22.JPG,AFSA24.JPG,AFSA22.JPG,AFNE25.JPG,AFNE24.JPG,AFSA25.JPG,,,,,,,,,0,5,5,6,,,,,,,,,,,,,,,AMNE05.jpg,AMSA16.jpg,AMNE06.jpg,AMSA12.jpg,AMNE05.jpg,MN,1,num_8,16,num_8,1.18342330609,,,2017_May_04_1609,60.0072944556,MAFE4ImagesEEG,001,100334,
AMSA25.JPG,AMNE24.JPG,AMSA24.JPG,AMNE26.JPG,AMSA21.JPG,AMNE25.JPG,,,,,,,,,0,6,6,3,,,,,,,,,,,,,,,AMSA11.jpg,AMSA12.jpg,AMNE16.jpg,AMNE11.jpg,AMSA12.jpg,MS,2,num_6,32,num_4,1.00010873051,,,2017_May_04_1609,60.0072944556,MAFE4ImagesEEG,001,100334,
AFSA21.JPG,AFNE23.JPG,AFNE21.JPG,AFSA25.JPG,AFNE25.JPG,AFSA23.JPG,,,,,,,,,0,7,7,4,,,,,,,,,,,,,,,AMSA12.jpg,AMNE15.jpg,AMNE10.jpg,AMSA18.jpg,AMSA18.jpg,MS,2,num_4,16,num_4,0.600122714881,,,2017_May_04_1609,60.0072944556,MAFE4ImagesEEG,001,100334,
AMNE22.JPG,AMSA24.JPG,AMSA22.JPG,AMNE25.JPG,AMNE24.JPG,AMSA25.JPG,,,,,,,,,0,8,8,7,,,,,,,,,,,,,,,AMNE04.jpg,AMNE15.jpg,AMSA16.jpg,AMSA09.jpg,AMNE15.jpg,MN,1,num_6,16,num_6,0.933417452499,,,2017_May_04_1609,60.0072944556,MAFE4ImagesEEG,001,100334,
AMSA21.JPG,AMNE23.JPG,AMNE21.JPG,AMSA25.JPG,AMNE25.JPG,AMSA23.JPG,,,,,,,,,0,9,9,5,,,,,,,,,,,,,,,AMNE19.jpg,AMNE07.jpg,AMSA12.jpg,AMSA09.jpg,AMSA09.jpg,MS,2,num_4,32,num_2,1.26685940963,,,2017_May_04_1609,60.0072944556,MAFE4ImagesEEG,001,100334,
AMSA25.JPG,AMNE24.JPG,AMSA24.JPG,AMNE26.JPG,AMSA21.JPG,AMNE25.JPG,,,,,,,,,,,,,0,0,0,3,,,,,,,,,,,AFSA11.jpg,AFNE03.jpg,AFSA10.jpg,AFNE04.jpg,AFSA10.jpg,FS,4,num_2,32,num_6,0.833488945384,,,2017_May_04_1609,60.0072944556,MAFE4ImagesEEG,001,100334,
AFSA25.JPG,AFNE24.JPG,AFSA24.JPG,AFNE21.JPG,AFSA21.JPG,AFNE25.JPG,,,,,,,,,,,,,0,1,1,2,,,,,,,,,,,AFSA18.jpg,AFNE10.jpg,AFNE17.jpg,AFSA20.jpg,AFSA18.jpg,FS,4,num_8,32,num_4,0.983436712762,,,2017_May_04_1609,60.0072944556,MAFE4ImagesEEG,001,100334,
AMSA21.JPG,AMNE22.JPG,AMNE21.JPG,AMSA23.JPG,AMSA22.JPG,AMNE23.JPG,,,,,,,,,,,,,0,2,2,1,,,,,,,,,,,AFSA15.jpg,AFNE04.jpg,AFNE20.jpg,AFSA01.jpg,AFSA15.jpg,FS,4,num_8,16,num_8,1.16674583592,,,2017_May_04_1609,60.0072944556,MAFE4ImagesEEG,001,100334,
AMNE22.JPG,AMSA24.JPG,AMSA22.JPG,AMNE25.JPG,AMNE24.JPG,AMSA25.JPG,,,,,,,,,,,,,0,3,3,7,,,,,,,,,,,AFSA06.jpg,AFSA03.jpg,AFNE12.jpg,AFNE06.jpg,AFSA06.jpg,FS,4,num_8,32,num_4,1.31675294018,,,2017_May_04_1609,60.0072944556,MAFE4ImagesEEG,001,100334,
AFNE23.JPG,AFNE24.JPG,AFNE22.JPG,AFSA24.JPG,AFSA22.JPG,AFSA23.JPG,,,,,,,,,,,,,0,4,4,8,,,,,,,,,,,AFSA09.jpg,AFNE13.jpg,AFNE17.jpg,AFSA20.jpg,AFSA20.jpg,FS,4,num_4,32,num_8,1.80031650537,,,2017_May_04_1609,60.0072944556,MAFE4ImagesEEG,001,100334,
AFSA21.JPG,AFNE22.JPG,AFNE21.JPG,AFSA23.JPG,AFSA22.JPG,AFNE23.JPG,,,,,,,,,,,,,0,5,5,0,,,,,,,,,,,AFNE11.jpg,AFSA09.jpg,AFNE14.jpg,AFSA02.jpg,AFSA02.jpg,FS,4,num_4,32,num_8,1.60003419081,,,2017_May_04_1609,60.0072944556,MAFE4ImagesEEG,001,100334,
AFSA21.JPG,AFNE23.JPG,AFNE21.JPG,AFSA25.JPG,AFNE25.JPG,AFSA23.JPG,,,,,,,,,,,,,0,6,6,4,,,,,,,,,,,AFNE17.jpg,AFSA05.jpg,AFNE04.jpg,AFSA13.jpg,AFSA05.jpg,FS,4,num_6,16,num_6,2.38330501737,,,2017_May_04_1609,60.0072944556,MAFE4ImagesEEG,001,100334,
AMNE23.JPG,AMNE24.JPG,AMNE22.JPG,AMSA24.JPG,AMSA22.JPG,AMSA23.JPG,,,,,,,,,,,,,0,7,7,9,,,,,,,,,,,AFSA12.jpg,AFNE05.jpg,AFNE18.jpg,AFSA09.jpg,AFSA12.jpg,FS,4,num_8,16,num_8,1.13343644026,,,2017_May_04_1609,60.0072944556,MAFE4ImagesEEG,001,100334,
AMSA21.JPG,AMNE23.JPG,AMNE21.JPG,AMSA25.JPG,AMNE25.JPG,AMSA23.JPG,,,,,,,,,,,,,0,8,8,5,,,,,,,,,,,AFSA19.jpg,AFNE13.jpg,AFNE10.jpg,AFSA04.jpg,AFNE13.jpg,FN,3,num_6,16,num_6,0.900085926056,,,2017_May_04_1609,60.0072944556,MAFE4ImagesEEG,001,100334,
AFNE22.JPG,AFSA24.JPG,AFSA22.JPG,AFNE25.JPG,AFNE24.JPG,AFSA25.JPG,,,,,,,,,,,,,0,9,9,6,,,,,,,,,,,AFSA20.jpg,AFNE01.jpg,AFSA01.jpg,AFNE20.jpg,AFNE01.jpg,FN,3,num_6,16,num_6,1.93336164369,,,2017_May_04_1609,60.0072944556,MAFE4ImagesEEG,001,100334,
AMSA25.JPG,AMNE24.JPG,AMSA24.JPG,AMNE26.JPG,AMSA21.JPG,AMNE25.JPG,,,,,,,,,,,,,,,,,0,0,0,3,,,,,,,AMSA15.jpg,AMNE09.jpg,AMNE03.jpg,AMSA03.jpg,AMNE09.jpg,MN,1,num_6,16,num_6,0.766761102946,,,2017_May_04_1609,60.0072944556,MAFE4ImagesEEG,001,100334,
AFNE22.JPG,AFSA24.JPG,AFSA22.JPG,AFNE25.JPG,AFNE24.JPG,AFSA25.JPG,,,,,,,,,,,,,,,,,0,1,1,6,,,,,,,AMSA11.jpg,AMNE11.jpg,AMNE04.jpg,AMSA15.jpg,AMSA11.jpg,MS,2,num_8,16,num_8,1.61671262304,,,2017_May_04_1609,60.0072944556,MAFE4ImagesEEG,001,100334,
AFSA21.JPG,AFNE23.JPG,AFNE21.JPG,AFSA25.JPG,AFNE25.JPG,AFSA23.JPG,,,,,,,,,,,,,,,,,0,2,2,4,,,,,,,AMSA02.jpg,AMNE07.jpg,AMNE06.jpg,AMSA16.jpg,AMSA02.jpg,MS,2,num_8,16,num_8,0.950081130955,,,2017_May_04_1609,60.0072944556,MAFE4ImagesEEG,001,100334,
AMNE22.JPG,AMSA24.JPG,AMSA22.JPG,AMNE25.JPG,AMNE24.JPG,AMSA25.JPG,,,,,,,,,,,,,,,,,0,3,3,7,,,,,,,AMNE13.jpg,AMNE11.jpg,AMSA04.jpg,AMSA15.jpg,AMSA15.jpg,MS,2,num_4,16,num_4,0.833457512781,,,2017_May_04_1609,60.0072944556,MAFE4ImagesEEG,001,100334,
AFSA25.JPG,AFNE24.JPG,AFSA24.JPG,AFNE21.JPG,AFSA21.JPG,AFNE25.JPG,,,,,,,,,,,,,,,,,0,4,4,2,,,,,,,AMNE13.jpg,AMSA02.jpg,AMSA19.jpg,AMNE11.jpg,AMSA02.jpg,MS,2,num_6,16,num_6,0.700107672019,,,2017_May_04_1609,60.0072944556,MAFE4ImagesEEG,001,100334,
AMSA21.JPG,AMNE22.JPG,AMNE21.JPG,AMSA23.JPG,AMSA22.JPG,AMNE23.JPG,,,,,,,,,,,,,,,,,0,5,5,1,,,,,,,AMSA05.jpg,AMNE09.jpg,AMSA14.jpg,AMNE18.jpg,AMSA05.jpg,MS,2,num_8,16,num_8,0.866767549654,,,2017_May_04_1609,60.0072944556,MAFE4ImagesEEG,001,100334,
AFNE23.JPG,AFNE24.JPG,AFNE22.JPG,AFSA24.JPG,AFSA22.JPG,AFSA23.JPG,,,,,,,,,,,,,,,,,0,6,6,8,,,,,,,AMSA11.jpg,AMSA20.jpg,AMNE16.jpg,AMNE12.jpg,AMSA11.jpg,MS,2,num_8,32,num_6,0.76674859412,,,2017_May_04_1609,60.0072944556,MAFE4ImagesEEG,001,100334,
AFSA21.JPG,AFNE22.JPG,AFNE21.JPG,AFSA23.JPG,AFSA22.JPG,AFNE23.JPG,,,,,,,,,,,,,,,,,0,7,7,0,,,,,,,AMSA05.jpg,AMNE18.jpg,AMSA20.jpg,AMNE07.jpg,AMSA05.jpg,MS,2,num_8,16,num_8,1.30012582592,,,2017_May_04_1609,60.0072944556,MAFE4ImagesEEG,001,100334,
AMNE23.JPG,AMNE24.JPG,AMNE22.JPG,AMSA24.JPG,AMSA22.JPG,AMSA23.JPG,,,,,,,,,,,,,,,,,0,8,8,9,,,,,,,AMNE13.jpg,AMNE06.jpg,AMSA07.jpg,AMSA16.jpg,AMSA07.jpg,MS,2,num_2,16,num_2,1.2000693439,,,2017_May_04_1609,60.0072944556,MAFE4ImagesEEG,001,100334,
AMSA21.JPG,AMNE23.JPG,AMNE21.JPG,AMSA25.JPG,AMNE25.JPG,AMSA23.JPG,,,,,,,,,,,,,,,,,0,9,9,5,,,,,,,AMSA08.jpg,AMNE20.jpg,AMNE03.jpg,AMSA06.jpg,AMSA08.jpg,MS,2,num_8,32,num_2,1.86667838437,,,2017_May_04_1609,60.0072944556,MAFE4ImagesEEG,001,100334,
AMSA25.JPG,AMNE24.JPG,AMSA24.JPG,AMNE26.JPG,AMSA21.JPG,AMNE25.JPG,,,,,,,,,,,,,,,,,,,,,0,0,0,3,,,AFNE20.jpg,AFSA20.jpg,AFSA08.jpg,AFNE05.jpg,AFSA08.jpg,FS,4,num_2,16,num_2,0.900090416428,,,2017_May_04_1609,60.0072944556,MAFE4ImagesEEG,001,100334,
AFSA21.JPG,AFNE22.JPG,AFNE21.JPG,AFSA23.JPG,AFSA22.JPG,AFNE23.JPG,,,,,,,,,,,,,,,,,,,,,0,1,1,0,,,AFNE19.jpg,AFNE09.jpg,AFSA04.jpg,AFSA12.jpg,AFSA04.jpg,FS,4,num_2,16,num_2,1.05011868943,,,2017_May_04_1609,60.0072944556,MAFE4ImagesEEG,001,100334,
AMSA21.JPG,AMNE22.JPG,AMNE21.JPG,AMSA23.JPG,AMSA22.JPG,AMNE23.JPG,,,,,,,,,,,,,,,,,,,,,0,2,2,1,,,AFNE14.jpg,AFNE13.jpg,AFSA08.jpg,AFSA10.jpg,AFNE14.jpg,FN,3,num_8,16,num_8,0.783452364849,,,2017_May_04_1609,60.0072944556,MAFE4ImagesEEG,001,100334,
AFNE22.JPG,AFSA24.JPG,AFSA22.JPG,AFNE25.JPG,AFNE24.JPG,AFSA25.JPG,,,,,,,,,,,,,,,,,,,,,0,3,3,6,,,AFNE11.jpg,AFNE14.jpg,AFSA07.jpg,AFSA13.jpg,AFNE14.jpg,FN,3,num_6,16,num_6,0.850128247635,,,2017_May_04_1609,60.0072944556,MAFE4ImagesEEG,001,100334,
AFNE23.JPG,AFNE24.JPG,AFNE22.JPG,AFSA24.JPG,AFSA22.JPG,AFSA23.JPG,,,,,,,,,,,,,,,,,,,,,0,4,4,8,,,AFSA18.jpg,AFNE16.jpg,AFSA11.jpg,AFNE04.jpg,AFSA11.jpg,FS,4,num_2,16,num_2,0.90013660281,,,2017_May_04_1609,60.0072944556,MAFE4ImagesEEG,001,100334,
AMNE22.JPG,AMSA24.JPG,AMSA22.JPG,AMNE25.JPG,AMNE24.JPG,AMSA25.JPG,,,,,,,,,,,,,,,,,,,,,0,5,5,7,,,AFNE06.jpg,AFSA12.jpg,AFSA07.jpg,AFNE20.jpg,AFNE06.jpg,FN,3,num_8,32,num_4,1.16674936377,,,2017_May_04_1609,60.0072944556,MAFE4ImagesEEG,001,100334,
AMSA21.JPG,AMNE23.JPG,AMNE21.JPG,AMSA25.JPG,AMNE25.JPG,AMSA23.JPG,,,,,,,,,,,,,,,,,,,,,0,6,6,5,,,AFNE11.jpg,AFSA05.jpg,AFSA07.jpg,AFNE04.jpg,AFNE04.jpg,FN,3,num_4,32,num_2,1.78342510224,,,2017_May_04_1609,60.0072944556,MAFE4ImagesEEG,001,100334,
AMNE23.JPG,AMNE24.JPG,AMNE22.JPG,AMSA24.JPG,AMSA22.JPG,AMSA23.JPG,,,,,,,,,,,,,,,,,,,,,0,7,7,9,,,AFNE08.jpg,AFSA06.jpg,AFNE10.jpg,AFSA02.jpg,AFSA06.jpg,FS,4,num_6,16,num_6,1.68337407243,,,2017_May_04_1609,60.0072944556,MAFE4ImagesEEG,001,100334,
AFSA25.JPG,AFNE24.JPG,AFSA24.JPG,AFNE21.JPG,AFSA21.JPG,AFNE25.JPG,,,,,,,,,,,,,,,,,,,,,0,8,8,2,,,AFNE01.jpg,AFNE03.jpg,AFSA01.jpg,AFSA11.jpg,AFNE01.jpg,FN,3,num_8,16,num_8,0.75014008279,,,2017_May_04_1609,60.0072944556,MAFE4ImagesEEG,001,100334,
AFSA21.JPG,AFNE23.JPG,AFNE21.JPG,AFSA25.JPG,AFNE25.JPG,AFSA23.JPG,,,,,,,,,,,,,,,,,,,,,0,9,9,4,,,AFSA02.jpg,AFNE12.jpg,AFSA07.jpg,AFNE05.jpg,AFSA07.jpg,FS,4,num_2,16,num_2,1.68337695929,,,2017_May_04_1609,60.0072944556,MAFE4ImagesEEG,001,100334,
,,,,,,,,,,,,,,,,,,,,,,,,,,,,,,,,,,,,,,,,,,,space,14.5155303469,2017_May_04_1609,60.0072944556,MAFE4ImagesEEG,001,100334,
AFNE01.JPG,AFNE01.JPG,AFNE01.JPG,AFNE01.JPG,AFNE01.JPG,AFNE01.JPG,0,0,0,3,,,,,,,,,,,,,,,,,,,,,,,AMSA04.jpg,AMNE05.jpg,AMNE13.jpg,AMSA18.jpg,AMSA18.jpg,MS,2,num_4,32,num_2,1.70004448667,,,2017_May_04_1609,60.0072944556,MAFE4ImagesEEG,001,100334,
AFNE01.JPG,AFNE01.JPG,AFNE01.JPG,AFNE01.JPG,AFNE01.JPG,AFNE01.JPG,0,1,1,4,,,,,,,,,,,,,,,,,,,,,,,AMNE01.jpg,AMSA17.jpg,AMNE13.jpg,AMSA19.jpg,AMNE13.jpg,MN,1,num_2,32,num_6,1.31676416611,,,2017_May_04_1609,60.0072944556,MAFE4ImagesEEG,001,100334,
AFNE01.JPG,AFNE01.JPG,AFNE01.JPG,AFNE01.JPG,AFNE01.JPG,AFNE01.JPG,0,2,2,6,,,,,,,,,,,,,,,,,,,,,,,AMNE12.jpg,AMSA20.jpg,AMSA13.jpg,AMNE08.jpg,AMSA13.jpg,MS,2,num_2,16,num_2,0.950414058054,,,2017_May_04_1609,60.0072944556,MAFE4ImagesEEG,001,100334,
AFNE01.JPG,AFNE01.JPG,AFNE01.JPG,AFNE01.JPG,AFNE01.JPG,AFNE01.JPG,0,3,3,2,,,,,,,,,,,,,,,,,,,,,,,AMNE06.jpg,AMSA18.jpg,AMSA19.jpg,AMNE10.jpg,AMSA19.jpg,MS,2,num_2,32,num_4,0.783460704144,,,2017_May_04_1609,60.0072944556,MAFE4ImagesEEG,001,100334,
AFNE01.JPG,AFNE01.JPG,AFNE01.JPG,AFNE01.JPG,AFNE01.JPG,AFNE01.JPG,0,4,4,7,,,,,,,,,,,,,,,,,,,,,,,AMNE03.jpg,AMNE05.jpg,AMSA19.jpg,AMSA13.jpg,AMNE05.jpg,MN,1,num_6,16,num_6,0.933391472558,,,2017_May_04_1609,60.0072944556,MAFE4ImagesEEG,001,100334,
AFNE01.JPG,AFNE01.JPG,AFNE01.JPG,AFNE01.JPG,AFNE01.JPG,AFNE01.JPG,0,5,5,0,,,,,,,,,,,,,,,,,,,,,,,AMSA06.jpg,AMNE01.jpg,AMSA02.jpg,AMNE15.jpg,AMSA02.jpg,MS,2,num_2,32,num_8,0.916771735298,,,2017_May_04_1609,60.0072944556,MAFE4ImagesEEG,001,100334,
AFNE01.JPG,AFNE01.JPG,AFNE01.JPG,AFNE01.JPG,AFNE01.JPG,AFNE01.JPG,0,6,6,8,,,,,,,,,,,,,,,,,,,,,,,AMNE09.jpg,AMNE08.jpg,AMSA06.jpg,AMSA01.jpg,AMSA01.jpg,MS,2,num_4,16,num_4,1.06673521921,,,2017_May_04_1609,60.0072944556,MAFE4ImagesEEG,001,100334,
AFNE01.JPG,AFNE01.JPG,AFNE01.JPG,AFNE01.JPG,AFNE01.JPG,AFNE01.JPG,0,7,7,9,,,,,,,,,,,,,,,,,,,,,,,AMNE12.jpg,AMSA16.jpg,AMSA03.jpg,AMNE16.jpg,AMNE16.jpg,MN,1,num_4,32,num_6,0.800135929137,,,2017_May_04_1609,60.0072944556,MAFE4ImagesEEG,001,100334,
AFNE01.JPG,AFNE01.JPG,AFNE01.JPG,AFNE01.JPG,AFNE01.JPG,AFNE01.JPG,0,8,8,5,,,,,,,,,,,,,,,,,,,,,,,AMNE05.jpg,AMNE02.jpg,AMSA12.jpg,AMSA20.jpg,AMNE02.jpg,MN,1,num_6,16,num_6,0.883395305369,,,2017_May_04_1609,60.0072944556,MAFE4ImagesEEG,001,100334,
AFNE01.JPG,AFNE01.JPG,AFNE01.JPG,AFNE01.JPG,AFNE01.JPG,AFNE01.JPG,0,9,9,1,,,,,,,,,,,,,,,,,,,,,,,AMSA14.jpg,AMNE18.jpg,AMNE08.jpg,AMSA16.jpg,AMNE18.jpg,MN,1,num_6,32,num_2,1.75004803087,,,2017_May_04_1609,60.0072944556,MAFE4ImagesEEG,001,100334,
AFNE01.JPG,AFNE01.JPG,AFNE01.JPG,AFNE01.JPG,AFNE01.JPG,AFNE01.JPG,1,0,10,2,,,,,,,,,,,,,,,,,,,,,,,AMNE06.jpg,AMNE12.jpg,AMSA15.jpg,AMSA18.jpg,AMSA15.jpg,MS,2,num_2,16,num_2,1.10015526973,,,2017_May_04_1609,60.0072944556,MAFE4ImagesEEG,001,100334,
AFNE01.JPG,AFNE01.JPG,AFNE01.JPG,AFNE01.JPG,AFNE01.JPG,AFNE01.JPG,1,1,11,1,,,,,,,,,,,,,,,,,,,,,,,AMSA15.jpg,AMNE10.jpg,AMNE03.jpg,AMSA17.jpg,AMNE10.jpg,MN,1,num_6,16,num_6,0.900145262713,,,2017_May_04_1609,60.0072944556,MAFE4ImagesEEG,001,100334,
AFNE01.JPG,AFNE01.JPG,AFNE01.JPG,AFNE01.JPG,AFNE01.JPG,AFNE01.JPG,1,2,12,7,,,,,,,,,,,,,,,,,,,,,,,AMNE03.jpg,AMSA14.jpg,AMNE02.jpg,AMSA07.jpg,AMSA07.jpg,MS,2,num_4,32,num_8,1.31669681077,,,2017_May_04_1609,60.0072944556,MAFE4ImagesEEG,001,100334,
AFNE01.JPG,AFNE01.JPG,AFNE01.JPG,AFNE01.JPG,AFNE01.JPG,AFNE01.JPG,1,3,13,8,,,,,,,,,,,,,,,,,,,,,,,AMNE17.jpg,AMNE16.jpg,AMSA15.jpg,AMSA09.jpg,AMNE17.jpg,MN,1,num_8,16,num_8,1.78341323487,,,2017_May_04_1609,60.0072944556,MAFE4ImagesEEG,001,100334,
AFNE01.JPG,AFNE01.JPG,AFNE01.JPG,AFNE01.JPG,AFNE01.JPG,AFNE01.JPG,1,4,14,6,,,,,,,,,,,,,,,,,,,,,,,AMNE04.jpg,AMNE17.jpg,AMSA20.jpg,AMSA17.jpg,AMNE04.jpg,MN,1,num_8,32,num_4,1.13345343946,,,2017_May_04_1609,60.0072944556,MAFE4ImagesEEG,001,100334,
AFNE01.JPG,AFNE01.JPG,AFNE01.JPG,AFNE01.JPG,AFNE01.JPG,AFNE01.JPG,1,5,15,3,,,,,,,,,,,,,,,,,,,,,,,AMSA04.jpg,AMNE11.jpg,AMNE06.jpg,AMSA17.jpg,AMSA17.jpg,MS,2,num_4,16,num_4,0.833429929335,,,2017_May_04_1609,60.0072944556,MAFE4ImagesEEG,001,100334,
AFNE01.JPG,AFNE01.JPG,AFNE01.JPG,AFNE01.JPG,AFNE01.JPG,AFNE01.JPG,1,6,16,0,,,,,,,,,,,,,,,,,,,,,,,AMNE06.jpg,AMSA06.jpg,AMSA01.jpg,AMNE01.jpg,AMSA01.jpg,MS,2,num_2,32,num_4,0.9001532814,,,2017_May_04_1609,60.0072944556,MAFE4ImagesEEG,001,100334,
AFNE01.JPG,AFNE01.JPG,AFNE01.JPG,AFNE01.JPG,AFNE01.JPG,AFNE01.JPG,1,7,17,9,,,,,,,,,,,,,,,,,,,,,,,AMNE16.jpg,AMSA07.jpg,AMSA08.jpg,AMNE04.jpg,AMNE16.jpg,MN,1,num_8,16,num_8,0.900103566702,,,2017_May_04_1609,60.0072944556,MAFE4ImagesEEG,001,100334,
AFNE01.JPG,AFNE01.JPG,AFNE01.JPG,AFNE01.JPG,AFNE01.JPG,AFNE01.JPG,1,8,18,4,,,,,,,,,,,,,,,,,,,,,,,AMSA16.jpg,AMNE03.jpg,AMNE14.jpg,AMSA01.jpg,AMSA01.jpg,MS,2,num_4,16,num_4,0.783448516158,,,2017_May_04_1609,60.0072944556,MAFE4ImagesEEG,001,100334,
AFNE01.JPG,AFNE01.JPG,AFNE01.JPG,AFNE01.JPG,AFNE01.JPG,AFNE01.JPG,1,9,19,5,,,,,,,,,,,,,,,,,,,,,,,AMNE05.jpg,AMSA07.jpg,AMSA08.jpg,AMNE13.jpg,AMSA07.jpg,MS,2,num_6,16,num_6,0.600131695624,,,2017_May_04_1609,60.0072944556,MAFE4ImagesEEG,001,100334,
AFNE01.JPG,AFNE01.JPG,AFNE01.JPG,AFNE01.JPG,AFNE01.JPG,AFNE01.JPG,2,0,20,8,,,,,,,,,,,,,,,,,,,,,,,AMSA20.jpg,AMNE04.jpg,AMSA14.jpg,AMNE15.jpg,AMNE15.jpg,MN,1,num_4,16,num_4,0.983400790021,,,2017_May_04_1609,60.0072944556,MAFE4ImagesEEG,001,100334,
AFNE01.JPG,AFNE01.JPG,AFNE01.JPG,AFNE01.JPG,AFNE01.JPG,AFNE01.JPG,2,1,21,1,,,,,,,,,,,,,,,,,,,,,,,AMSA03.jpg,AMNE09.jpg,AMSA04.jpg,AMNE18.jpg,AMNE09.jpg,MN,1,num_6,16,num_6,0.900091378484,,,2017_May_04_1609,60.0072944556,MAFE4ImagesEEG,001,100334,
AFNE01.JPG,AFNE01.JPG,AFNE01.JPG,AFNE01.JPG,AFNE01.JPG,AFNE01.JPG,2,2,22,3,,,,,,,,,,,,,,,,,,,,,,,AMNE09.jpg,AMSA08.jpg,AMSA07.jpg,AMNE01.jpg,AMNE09.jpg,MN,1,num_8,16,num_8,0.950066697784,,,2017_May_04_1609,60.0072944556,MAFE4ImagesEEG,001,100334,
AFNE01.JPG,AFNE01.JPG,AFNE01.JPG,AFNE01.JPG,AFNE01.JPG,AFNE01.JPG,2,3,23,4,,,,,,,,,,,,,,,,,,,,,,,AMSA08.jpg,AMNE05.jpg,AMSA13.jpg,AMNE09.jpg,AMSA08.jpg,MS,2,num_8,32,num_2,3.13324656268,,,2017_May_04_1609,60.0072944556,MAFE4ImagesEEG,001,100334,
AFNE01.JPG,AFNE01.JPG,AFNE01.JPG,AFNE01.JPG,AFNE01.JPG,AFNE01.JPG,2,4,24,0,,,,,,,,,,,,,,,,,,,,,,,AMNE17.jpg,AMNE19.jpg,AMSA10.jpg,AMSA06.jpg,AMNE17.jpg,MN,1,num_8,16,num_8,0.883445982356,,,2017_May_04_1609,60.0072944556,MAFE4ImagesEEG,001,100334,
AFNE01.JPG,AFNE01.JPG,AFNE01.JPG,AFNE01.JPG,AFNE01.JPG,AFNE01.JPG,2,5,25,9,,,,,,,,,,,,,,,,,,,,,,,AMNE14.jpg,AMSA20.jpg,AMSA11.jpg,AMNE20.jpg,AMSA11.jpg,MS,2,num_2,32,num_6,0.733497252222,,,2017_May_04_1609,60.0072944556,MAFE4ImagesEEG,001,100334,
AFNE01.JPG,AFNE01.JPG,AFNE01.JPG,AFNE01.JPG,AFNE01.JPG,AFNE01.JPG,2,6,26,7,,,,,,,,,,,,,,,,,,,,,,,AMNE08.jpg,AMSA12.jpg,AMNE06.jpg,AMSA17.jpg,AMNE08.jpg,MN,1,num_8,16,num_8,1.96662581502,,,2017_May_04_1609,60.0072944556,MAFE4ImagesEEG,001,100334,
AFNE01.JPG,AFNE01.JPG,AFNE01.JPG,AFNE01.JPG,AFNE01.JPG,AFNE01.JPG,2,7,27,5,,,,,,,,,,,,,,,,,,,,,,,AMSA06.jpg,AMNE10.jpg,AMSA10.jpg,AMNE01.jpg,AMSA06.jpg,MS,2,num_8,32,num_6,0.916793866316,,,2017_May_04_1609,60.0072944556,MAFE4ImagesEEG,001,100334,
AFNE01.JPG,AFNE01.JPG,AFNE01.JPG,AFNE01.JPG,AFNE01.JPG,AFNE01.JPG,2,8,28,2,,,,,,,,,,,,,,,,,,,,,,,AMSA14.jpg,AMNE06.jpg,AMNE19.jpg,AMSA04.jpg,AMNE06.jpg,MN,1,num_6,16,num_6,2.10000099428,,,2017_May_04_1609,60.0072944556,MAFE4ImagesEEG,001,100334,
AFNE01.JPG,AFNE01.JPG,AFNE01.JPG,AFNE01.JPG,AFNE01.JPG,AFNE01.JPG,2,9,29,6,,,,,,,,,,,,,,,,,,,,,,,AMNE11.jpg,AMSA19.jpg,AMNE14.jpg,AMSA13.jpg,AMNE14.jpg,MN,1,num_2,16,num_2,0.883437001612,,,2017_May_04_1609,60.0072944556,MAFE4ImagesEEG,001,100334,
AFNE01.JPG,AFNE01.JPG,AFNE01.JPG,AFNE01.JPG,AFNE01.JPG,AFNE01.JPG,3,0,30,1,,,,,,,,,,,,,,,,,,,,,,,AMNE05.jpg,AMNE19.jpg,AMSA08.jpg,AMSA02.jpg,AMSA02.jpg,MS,2,num_4,16,num_4,0.800086535513,,,2017_May_04_1609,60.0072944556,MAFE4ImagesEEG,001,100334,
AFNE01.JPG,AFNE01.JPG,AFNE01.JPG,AFNE01.JPG,AFNE01.JPG,AFNE01.JPG,3,1,31,2,,,,,,,,,,,,,,,,,,,,,,,AMSA17.jpg,AMNE19.jpg,AMNE12.jpg,AMSA05.jpg,AMNE19.jpg,MN,1,num_6,16,num_6,0.650121447863,,,2017_May_04_1609,60.0072944556,MAFE4ImagesEEG,001,100334,
AFNE01.JPG,AFNE01.JPG,AFNE01.JPG,AFNE01.JPG,AFNE01.JPG,AFNE01.JPG,3,2,32,8,,,,,,,,,,,,,,,,,,,,,,,AMSA20.jpg,AMNE08.jpg,AMNE11.jpg,AMSA09.jpg,AMSA20.jpg,MS,2,num_8,32,num_4,1.63340452663,,,2017_May_04_1609,60.0072944556,MAFE4ImagesEEG,001,100334,
AFNE01.JPG,AFNE01.JPG,AFNE01.JPG,AFNE01.JPG,AFNE01.JPG,AFNE01.JPG,3,3,33,5,,,,,,,,,,,,,,,,,,,,,,,AMNE20.jpg,AMSA09.jpg,AMNE07.jpg,AMSA13.jpg,AMSA09.jpg,MS,2,num_6,16,num_6,0.633446864318,,,2017_May_04_1609,60.0072944556,MAFE4ImagesEEG,001,100334,
AFNE01.JPG,AFNE01.JPG,AFNE01.JPG,AFNE01.JPG,AFNE01.JPG,AFNE01.JPG,3,4,34,3,,,,,,,,,,,,,,,,,,,,,,,AMSA01.jpg,AMNE05.jpg,AMSA05.jpg,AMNE08.jpg,AMNE08.jpg,MN,1,num_4,32,num_8,1.33327356889,,,2017_May_04_1609,60.0072944556,MAFE4ImagesEEG,001,100334,
AFNE01.JPG,AFNE01.JPG,AFNE01.JPG,AFNE01.JPG,AFNE01.JPG,AFNE01.JPG,3,5,35,7,,,,,,,,,,,,,,,,,,,,,,,AMSA05.jpg,AMSA07.jpg,AMNE01.jpg,AMNE03.jpg,AMNE01.jpg,MN,1,num_2,32,num_4,1.36670869426,,,2017_May_04_1609,60.0072944556,MAFE4ImagesEEG,001,100334,
AFNE01.JPG,AFNE01.JPG,AFNE01.JPG,AFNE01.JPG,AFNE01.JPG,AFNE01.JPG,3,6,36,4,,,,,,,,,,,,,,,,,,,,,,,AMNE19.jpg,AMSA12.jpg,AMSA13.jpg,AMNE11.jpg,AMSA12.jpg,MS,2,num_6,16,num_6,0.916788093047,,,2017_May_04_1609,60.0072944556,MAFE4ImagesEEG,001,100334,
AFNE01.JPG,AFNE01.JPG,AFNE01.JPG,AFNE01.JPG,AFNE01.JPG,AFNE01.JPG,3,7,37,6,,,,,,,,,,,,,,,,,,,,,,,AMSA08.jpg,AMNE11.jpg,AMSA05.jpg,AMNE07.jpg,AMNE11.jpg,MN,1,num_6,16,num_6,1.20008698455,,,2017_May_04_1609,60.0072944556,MAFE4ImagesEEG,001,100334,
AFNE01.JPG,AFNE01.JPG,AFNE01.JPG,AFNE01.JPG,AFNE01.JPG,AFNE01.JPG,3,8,38,0,,,,,,,,,,,,,,,,,,,,,,,AMSA02.jpg,AMNE10.jpg,AMSA03.jpg,AMNE05.jpg,AMSA03.jpg,MS,2,num_2,16,num_2,1.3000866957,,,2017_May_04_1609,60.0072944556,MAFE4ImagesEEG,001,100334,
AFNE01.JPG,AFNE01.JPG,AFNE01.JPG,AFNE01.JPG,AFNE01.JPG,AFNE01.JPG,3,9,39,9,,,,,,,,,,,,,,,,,,,,,,,AMNE01.jpg,AMNE11.jpg,AMSA19.jpg,AMSA14.jpg,AMSA14.jpg,MS,2,num_4,16,num_4,1.80040085968,,,2017_May_04_1609,60.0072944556,MAFE4ImagesEEG,001,100334,
AFNE01.JPG,AFNE01.JPG,AFNE01.JPG,AFNE01.JPG,AFNE01.JPG,AFNE01.JPG,4,0,40,6,,,,,,,,,,,,,,,,,,,,,,,AMSA06.jpg,AMNE01.jpg,AMNE10.jpg,AMSA08.jpg,AMNE01.jpg,MN,1,num_6,16,num_6,1.00011931499,,,2017_May_04_1609,60.0072944556,MAFE4ImagesEEG,001,100334,
AFNE01.JPG,AFNE01.JPG,AFNE01.JPG,AFNE01.JPG,AFNE01.JPG,AFNE01.JPG,4,1,41,1,,,,,,,,,,,,,,,,,,,,,,,AMNE17.jpg,AMSA06.jpg,AMNE15.jpg,AMSA08.jpg,AMNE15.jpg,MN,1,num_2,16,num_2,0.83355437615,,,2017_May_04_1609,60.0072944556,MAFE4ImagesEEG,001,100334,
AFNE01.JPG,AFNE01.JPG,AFNE01.JPG,AFNE01.JPG,AFNE01.JPG,AFNE01.JPG,4,2,42,4,,,,,,,,,,,,,,,,,,,,,,,AMNE10.jpg,AMSA02.jpg,AMSA04.jpg,AMNE05.jpg,AMNE10.jpg,MN,1,num_8,16,num_8,1.33341533574,,,2017_May_04_1609,60.0072944556,MAFE4ImagesEEG,001,100334,
AFNE01.JPG,AFNE01.JPG,AFNE01.JPG,AFNE01.JPG,AFNE01.JPG,AFNE01.JPG,4,3,43,3,,,,,,,,,,,,,,,,,,,,,,,AMNE16.jpg,AMSA13.jpg,AMNE06.jpg,AMSA14.jpg,AMNE16.jpg,MN,1,num_8,16,num_8,0.933403019328,,,2017_May_04_1609,60.0072944556,MAFE4ImagesEEG,001,100334,
AFNE01.JPG,AFNE01.JPG,AFNE01.JPG,AFNE01.JPG,AFNE01.JPG,AFNE01.JPG,4,4,44,2,,,,,,,,,,,,,,,,,,,,,,,AMNE04.jpg,AMSA20.jpg,AMNE13.jpg,AMSA09.jpg,AMSA09.jpg,MS,2,num_4,32,num_6,0.650093543576,,,2017_May_04_1609,60.0072944556,MAFE4ImagesEEG,001,100334,
AFNE01.JPG,AFNE01.JPG,AFNE01.JPG,AFNE01.JPG,AFNE01.JPG,AFNE01.JPG,4,5,45,8,,,,,,,,,,,,,,,,,,,,,,,AMSA01.jpg,AMNE06.jpg,AMSA13.jpg,AMNE03.jpg,AMNE03.jpg,MN,1,num_4,16,num_4,2.78327467549,,,2017_May_04_1609,60.0072944556,MAFE4ImagesEEG,001,100334,
AFNE01.JPG,AFNE01.JPG,AFNE01.JPG,AFNE01.JPG,AFNE01.JPG,AFNE01.JPG,4,6,46,5,,,,,,,,,,,,,,,,,,,,,,,AMSA19.jpg,AMSA20.jpg,AMNE03.jpg,AMNE11.jpg,AMSA20.jpg,MS,2,num_6,16,num_6,0.43348111934,,,2017_May_04_1609,60.0072944556,MAFE4ImagesEEG,001,100334,
AFNE01.JPG,AFNE01.JPG,AFNE01.JPG,AFNE01.JPG,AFNE01.JPG,AFNE01.JPG,4,7,47,7,,,,,,,,,,,,,,,,,,,,,,,AMNE08.jpg,AMNE02.jpg,AMSA12.jpg,AMSA13.jpg,AMSA12.jpg,MS,2,num_2,16,num_2,1.35008671181,,,2017_May_04_1609,60.0072944556,MAFE4ImagesEEG,001,100334,
AFNE01.JPG,AFNE01.JPG,AFNE01.JPG,AFNE01.JPG,AFNE01.JPG,AFNE01.JPG,4,8,48,9,,,,,,,,,,,,,,,,,,,,,,,AMNE05.jpg,AMSA03.jpg,AMSA05.jpg,AMNE20.jpg,AMSA05.jpg,MS,2,num_2,16,num_2,2.05003754259,,,2017_May_04_1609,60.0072944556,MAFE4ImagesEEG,001,100334,
AFNE01.JPG,AFNE01.JPG,AFNE01.JPG,AFNE01.JPG,AFNE01.JPG,AFNE01.JPG,4,9,49,0,,,,,,,,,,,,,,,,,,,,,,,AMNE11.jpg,AMNE07.jpg,AMSA15.jpg,AMSA14.jpg,AMNE11.jpg,MN,1,num_8,16,num_8,1.16672627069,,,2017_May_04_1609,60.0072944556,MAFE4ImagesEEG,001,100334,
AFNE01.JPG,AFNE01.JPG,AFNE01.JPG,AFNE01.JPG,AFNE01.JPG,AFNE01.JPG,5,0,50,6,,,,,,,,,,,,,,,,,,,,,,,AMSA10.jpg,AMNE03.jpg,AMSA12.jpg,AMNE08.jpg,AMSA12.jpg,MS,2,num_2,32,num_8,0.933473261073,,,2017_May_04_1609,60.0072944556,MAFE4ImagesEEG,001,100334,
AFNE01.JPG,AFNE01.JPG,AFNE01.JPG,AFNE01.JPG,AFNE01.JPG,AFNE01.JPG,5,1,51,7,,,,,,,,,,,,,,,,,,,,,,,AMNE18.jpg,AMNE14.jpg,AMSA12.jpg,AMSA03.jpg,AMNE14.jpg,MN,1,num_6,16,num_6,0.866742852842,,,2017_May_04_1609,60.0072944556,MAFE4ImagesEEG,001,100334,
AFNE01.JPG,AFNE01.JPG,AFNE01.JPG,AFNE01.JPG,AFNE01.JPG,AFNE01.JPG,5,2,52,8,,,,,,,,,,,,,,,,,,,,,,,AMSA15.jpg,AMNE02.jpg,AMNE07.jpg,AMSA17.jpg,AMSA15.jpg,MS,2,num_8,16,num_8,0.550167922862,,,2017_May_04_1609,60.0072944556,MAFE4ImagesEEG,001,100334,
AFNE01.JPG,AFNE01.JPG,AFNE01.JPG,AFNE01.JPG,AFNE01.JPG,AFNE01.JPG,5,3,53,2,,,,,,,,,,,,,,,,,,,,,,,AMNE06.jpg,AMSA03.jpg,AMNE18.jpg,AMSA05.jpg,AMNE18.jpg,MN,1,num_2,16,num_2,1.5663482477,,,2017_May_04_1609,60.0072944556,MAFE4ImagesEEG,001,100334,
AFNE01.JPG,AFNE01.JPG,AFNE01.JPG,AFNE01.JPG,AFNE01.JPG,AFNE01.JPG,5,4,54,3,,,,,,,,,,,,,,,,,,,,,,,AMNE05.jpg,AMSA07.jpg,AMNE07.jpg,AMSA15.jpg,AMNE07.jpg,MN,1,num_2,32,num_8,0.866772040259,,,2017_May_04_1609,60.0072944556,MAFE4ImagesEEG,001,100334,
AFNE01.JPG,AFNE01.JPG,AFNE01.JPG,AFNE01.JPG,AFNE01.JPG,AFNE01.JPG,5,5,55,4,,,,,,,,,,,,,,,,,,,,,,,AMSA20.jpg,AMSA10.jpg,AMNE15.jpg,AMNE02.jpg,AMSA20.jpg,MS,2,num_8,16,num_8,1.21678401972,,,2017_May_04_1609,60.0072944556,MAFE4ImagesEEG,001,100334,
AFNE01.JPG,AFNE01.JPG,AFNE01.JPG,AFNE01.JPG,AFNE01.JPG,AFNE01.JPG,5,6,56,5,,,,,,,,,,,,,,,,,,,,,,,AMSA07.jpg,AMNE03.jpg,AMSA06.jpg,AMNE18.jpg,AMNE03.jpg,MN,1,num_6,16,num_6,1.03363398346,,,2017_May_04_1609,60.0072944556,MAFE4ImagesEEG,001,100334,
AFNE01.JPG,AFNE01.JPG,AFNE01.JPG,AFNE01.JPG,AFNE01.JPG,AFNE01.JPG,5,7,57,0,,,,,,,,,,,,,,,,,,,,,,,AMNE02.jpg,AMNE12.jpg,AMSA16.jpg,AMSA10.jpg,AMSA10.jpg,MS,2,num_4,16,num_4,1.25007994426,,,2017_May_04_1609,60.0072944556,MAFE4ImagesEEG,001,100334,
AFNE01.JPG,AFNE01.JPG,AFNE01.JPG,AFNE01.JPG,AFNE01.JPG,AFNE01.JPG,5,8,58,9,,,,,,,,,,,,,,,,,,,,,,,AMNE02.jpg,AMSA04.jpg,AMNE13.jpg,AMSA14.jpg,AMNE13.jpg,MN,1,num_2,16,num_2,1.19994714204,,,2017_May_04_1609,60.0072944556,MAFE4ImagesEEG,001,100334,
AFNE01.JPG,AFNE01.JPG,AFNE01.JPG,AFNE01.JPG,AFNE01.JPG,AFNE01.JPG,5,9,59,1,,,,,,,,,,,,,,,,,,,,,,,AMSA05.jpg,AMNE09.jpg,AMSA02.jpg,AMNE16.jpg,AMSA05.jpg,MS,2,num_8,32,num_6,1.4001155945,,,2017_May_04_1609,60.0072944556,MAFE4ImagesEEG,001,100334,
,,,,,,,,,,,,,,,,,,,,,,,,,,,,,,,,,,,,,,,,,,,space,16.9321425145,2017_May_04_1609,60.0072944556,MAFE4ImagesEEG,001,100334,
AFNE01.JPG,AFNE01.JPG,AFNE01.JPG,AFNE01.JPG,AFNE01.JPG,AFNE01.JPG,,,,,0,0,0,4,,,,,,,,,,,,,,,,,,,AFNE17.jpg,AFNE07.jpg,AFSA16.jpg,AFSA10.jpg,AFSA16.jpg,FS,4,num_2,32,num_8,1.0831285147,,,2017_May_04_1609,60.0072944556,MAFE4ImagesEEG,001,100334,
AFNE01.JPG,AFNE01.JPG,AFNE01.JPG,AFNE01.JPG,AFNE01.JPG,AFNE01.JPG,,,,,0,1,1,1,,,,,,,,,,,,,,,,,,,AFNE18.jpg,AFNE09.jpg,AFSA18.jpg,AFSA20.jpg,AFSA18.jpg,FS,4,num_2,16,num_2,0.850186622236,,,2017_May_04_1609,60.0072944556,MAFE4ImagesEEG,001,100334,
AFNE01.JPG,AFNE01.JPG,AFNE01.JPG,AFNE01.JPG,AFNE01.JPG,AFNE01.JPG,,,,,0,2,2,3,,,,,,,,,,,,,,,,,,,AFNE15.jpg,AFSA12.jpg,AFNE18.jpg,AFSA07.jpg,AFNE15.jpg,FN,3,num_8,16,num_8,1.03347072727,,,2017_May_04_1609,60.0072944556,MAFE4ImagesEEG,001,100334,
AFNE01.JPG,AFNE01.JPG,AFNE01.JPG,AFNE01.JPG,AFNE01.JPG,AFNE01.JPG,,,,,0,3,3,9,,,,,,,,,,,,,,,,,,,AFSA10.jpg,AFNE04.jpg,AFSA19.jpg,AFNE17.jpg,AFNE04.jpg,FN,3,num_6,16,num_6,0.75007208623,,,2017_May_04_1609,60.0072944556,MAFE4ImagesEEG,001,100334,
AFNE01.JPG,AFNE01.JPG,AFNE01.JPG,AFNE01.JPG,AFNE01.JPG,AFNE01.JPG,,,,,0,4,4,8,,,,,,,,,,,,,,,,,,,AFSA20.jpg,AFNE16.jpg,AFSA11.jpg,AFNE02.jpg,AFNE02.jpg,FN,3,num_4,16,num_4,1.05012574582,,,2017_May_04_1609,60.0072944556,MAFE4ImagesEEG,001,100334,
AFNE01.JPG,AFNE01.JPG,AFNE01.JPG,AFNE01.JPG,AFNE01.JPG,AFNE01.JPG,,,,,0,5,5,0,,,,,,,,,,,,,,,,,,,AFNE20.jpg,AFNE13.jpg,AFSA16.jpg,AFSA05.jpg,AFNE13.jpg,FN,3,num_6,32,num_8,1.93334945571,,,2017_May_04_1609,60.0072944556,MAFE4ImagesEEG,001,100334,
AFNE01.JPG,AFNE01.JPG,AFNE01.JPG,AFNE01.JPG,AFNE01.JPG,AFNE01.JPG,,,,,0,6,6,7,,,,,,,,,,,,,,,,,,,AFSA05.jpg,AFNE18.jpg,AFNE06.jpg,AFSA19.jpg,AFNE06.jpg,FN,3,num_2,16,num_2,1.18327480368,,,2017_May_04_1609,60.0072944556,MAFE4ImagesEEG,001,100334,
AFNE01.JPG,AFNE01.JPG,AFNE01.JPG,AFNE01.JPG,AFNE01.JPG,AFNE01.JPG,,,,,0,7,7,2,,,,,,,,,,,,,,,,,,,AFNE04.jpg,AFSA11.jpg,AFSA20.jpg,AFNE19.jpg,AFSA11.jpg,FS,4,num_6,16,num_6,0.88346394361,,,2017_May_04_1609,60.0072944556,MAFE4ImagesEEG,001,100334,
AFNE01.JPG,AFNE01.JPG,AFNE01.JPG,AFNE01.JPG,AFNE01.JPG,AFNE01.JPG,,,,,0,8,8,5,,,,,,,,,,,,,,,,,,,AFNE19.jpg,AFNE11.jpg,AFSA11.jpg,AFSA03.jpg,AFSA11.jpg,FS,4,num_2,16,num_2,1.23340311553,,,2017_May_04_1609,60.0072944556,MAFE4ImagesEEG,001,100334,
AFNE01.JPG,AFNE01.JPG,AFNE01.JPG,AFNE01.JPG,AFNE01.JPG,AFNE01.JPG,,,,,0,9,9,6,,,,,,,,,,,,,,,,,,,AFNE07.jpg,AFNE17.jpg,AFSA13.jpg,AFSA15.jpg,AFNE17.jpg,FN,3,num_6,32,num_4,0.683450408513,,,2017_May_04_1609,60.0072944556,MAFE4ImagesEEG,001,100334,
AFNE01.JPG,AFNE01.JPG,AFNE01.JPG,AFNE01.JPG,AFNE01.JPG,AFNE01.JPG,,,,,1,0,10,8,,,,,,,,,,,,,,,,,,,AFNE19.jpg,AFSA07.jpg,AFSA02.jpg,AFNE01.jpg,AFNE01.jpg,FN,3,num_4,32,num_8,1.15015304065,,,2017_May_04_1609,60.0072944556,MAFE4ImagesEEG,001,100334,
AFNE01.JPG,AFNE01.JPG,AFNE01.JPG,AFNE01.JPG,AFNE01.JPG,AFNE01.JPG,,,,,1,1,11,0,,,,,,,,,,,,,,,,,,,AFNE08.jpg,AFSA13.jpg,AFNE09.jpg,AFSA06.jpg,AFSA06.jpg,FS,4,num_4,16,num_4,0.666797955753,,,2017_May_04_1609,60.0072944556,MAFE4ImagesEEG,001,100334,
AFNE01.JPG,AFNE01.JPG,AFNE01.JPG,AFNE01.JPG,AFNE01.JPG,AFNE01.JPG,,,,,1,2,12,2,,,,,,,,,,,,,,,,,,,AFSA06.jpg,AFNE13.jpg,AFSA02.jpg,AFNE19.jpg,AFSA02.jpg,FS,4,num_2,16,num_2,1.31672279071,,,2017_May_04_1609,60.0072944556,MAFE4ImagesEEG,001,100334,
AFNE01.JPG,AFNE01.JPG,AFNE01.JPG,AFNE01.JPG,AFNE01.JPG,AFNE01.JPG,,,,,1,3,13,1,,,,,,,,,,,,,,,,,,,AFNE12.jpg,AFNE05.jpg,AFSA14.jpg,AFSA10.jpg,AFNE05.jpg,FN,3,num_6,32,num_4,1.61670717061,,,2017_May_04_1609,60.0072944556,MAFE4ImagesEEG,001,100334,
AFNE01.JPG,AFNE01.JPG,AFNE01.JPG,AFNE01.JPG,AFNE01.JPG,AFNE01.JPG,,,,,1,4,14,5,,,,,,,,,,,,,,,,,,,AFSA14.jpg,AFNE07.jpg,AFNE14.jpg,AFSA07.jpg,AFSA14.jpg,FS,4,num_8,16,num_8,0.950153938727,,,2017_May_04_1609,60.0072944556,MAFE4ImagesEEG,001,100334,
AFNE01.JPG,AFNE01.JPG,AFNE01.JPG,AFNE01.JPG,AFNE01.JPG,AFNE01.JPG,,,,,1,5,15,9,,,,,,,,,,,,,,,,,,,AFSA08.jpg,AFNE14.jpg,AFNE06.jpg,AFSA15.jpg,AFNE14.jpg,FN,3,num_6,16,num_6,0.700200365623,,,2017_May_04_1609,60.0072944556,MAFE4ImagesEEG,001,100334,
AFNE01.JPG,AFNE01.JPG,AFNE01.JPG,AFNE01.JPG,AFNE01.JPG,AFNE01.JPG,,,,,1,6,16,3,,,,,,,,,,,,,,,,,,,AFNE15.jpg,AFNE13.jpg,AFSA03.jpg,AFSA19.jpg,AFSA03.jpg,FS,4,num_2,32,num_4,1.21675675688,,,2017_May_04_1609,60.0072944556,MAFE4ImagesEEG,001,100334,
AFNE01.JPG,AFNE01.JPG,AFNE01.JPG,AFNE01.JPG,AFNE01.JPG,AFNE01.JPG,,,,,1,7,17,4,,,,,,,,,,,,,,,,,,,AFNE15.jpg,AFSA20.jpg,AFSA15.jpg,AFNE02.jpg,AFNE15.jpg,FN,3,num_8,16,num_8,1.05007603113,,,2017_May_04_1609,60.0072944556,MAFE4ImagesEEG,001,100334,
AFNE01.JPG,AFNE01.JPG,AFNE01.JPG,AFNE01.JPG,AFNE01.JPG,AFNE01.JPG,,,,,1,8,18,6,,,,,,,,,,,,,,,,,,,AFNE01.jpg,AFSA13.jpg,AFSA10.jpg,AFNE08.jpg,AFNE08.jpg,FN,3,num_4,32,num_2,2.40002642898,,,2017_May_04_1609,60.0072944556,MAFE4ImagesEEG,001,100334,
AFNE01.JPG,AFNE01.JPG,AFNE01.JPG,AFNE01.JPG,AFNE01.JPG,AFNE01.JPG,,,,,1,9,19,7,,,,,,,,,,,,,,,,,,,AFSA08.jpg,AFNE17.jpg,AFNE02.jpg,AFSA14.jpg,AFSA14.jpg,FS,4,num_4,32,num_6,0.93344920571,,,2017_May_04_1609,60.0072944556,MAFE4ImagesEEG,001,100334,
AFNE01.JPG,AFNE01.JPG,AFNE01.JPG,AFNE01.JPG,AFNE01.JPG,AFNE01.JPG,,,,,2,0,20,2,,,,,,,,,,,,,,,,,,,AFSA10.jpg,AFSA13.jpg,AFNE19.jpg,AFNE11.jpg,AFSA13.jpg,FS,4,num_6,32,num_4,0.600140034687,,,2017_May_04_1609,60.0072944556,MAFE4ImagesEEG,001,100334,
AFNE01.JPG,AFNE01.JPG,AFNE01.JPG,AFNE01.JPG,AFNE01.JPG,AFNE01.JPG,,,,,2,1,21,5,,,,,,,,,,,,,,,,,,,AFNE15.jpg,AFSA20.jpg,AFSA06.jpg,AFNE12.jpg,AFSA06.jpg,FS,4,num_2,32,num_8,0.966716905124,,,2017_May_04_1609,60.0072944556,MAFE4ImagesEEG,001,100334,
AFNE01.JPG,AFNE01.JPG,AFNE01.JPG,AFNE01.JPG,AFNE01.JPG,AFNE01.JPG,,,,,2,2,22,7,,,,,,,,,,,,,,,,,,,AFSA07.jpg,AFNE19.jpg,AFNE20.jpg,AFSA10.jpg,AFNE19.jpg,FN,3,num_6,16,num_6,0.916776225669,,,2017_May_04_1609,60.0072944556,MAFE4ImagesEEG,001,100334,
AFNE01.JPG,AFNE01.JPG,AFNE01.JPG,AFNE01.JPG,AFNE01.JPG,AFNE01.JPG,,,,,2,3,23,4,,,,,,,,,,,,,,,,,,,AFSA08.jpg,AFSA01.jpg,AFNE14.jpg,AFNE03.jpg,AFSA08.jpg,FS,4,num_8,16,num_8,1.10011421517,,,2017_May_04_1609,60.0072944556,MAFE4ImagesEEG,001,100334,
AFNE01.JPG,AFNE01.JPG,AFNE01.JPG,AFNE01.JPG,AFNE01.JPG,AFNE01.JPG,,,,,2,4,24,6,,,,,,,,,,,,,,,,,,,AFNE06.jpg,AFSA16.jpg,AFNE20.jpg,AFSA12.jpg,AFSA12.jpg,FS,4,num_4,16,num_4,0.833491511177,,,2017_May_04_1609,60.0072944556,MAFE4ImagesEEG,001,100334,
AFNE01.JPG,AFNE01.JPG,AFNE01.JPG,AFNE01.JPG,AFNE01.JPG,AFNE01.JPG,,,,,2,5,25,1,,,,,,,,,,,,,,,,,,,AFSA11.jpg,AFNE08.jpg,AFSA16.jpg,AFNE05.jpg,AFNE08.jpg,FN,3,num_6,16,num_6,0.683492745971,,,2017_May_04_1609,60.0072944556,MAFE4ImagesEEG,001,100334,
AFNE01.JPG,AFNE01.JPG,AFNE01.JPG,AFNE01.JPG,AFNE01.JPG,AFNE01.JPG,,,,,2,6,26,9,,,,,,,,,,,,,,,,,,,AFNE20.jpg,AFSA09.jpg,AFNE11.jpg,AFSA08.jpg,AFNE11.jpg,FN,3,num_2,16,num_2,1.28339190572,,,2017_May_04_1609,60.0072944556,MAFE4ImagesEEG,001,100334,
AFNE01.JPG,AFNE01.JPG,AFNE01.JPG,AFNE01.JPG,AFNE01.JPG,AFNE01.JPG,,,,,2,7,27,8,,,,,,,,,,,,,,,,,,,AFNE06.jpg,AFSA12.jpg,AFSA03.jpg,AFNE09.jpg,AFNE06.jpg,FN,3,num_8,16,num_8,1.81667516078,,,2017_May_04_1609,60.0072944556,MAFE4ImagesEEG,001,100334,
AFNE01.JPG,AFNE01.JPG,AFNE01.JPG,AFNE01.JPG,AFNE01.JPG,AFNE01.JPG,,,,,2,8,28,3,,,,,,,,,,,,,,,,,,,AFSA17.jpg,AFSA01.jpg,AFNE08.jpg,AFNE05.jpg,AFNE08.jpg,FN,3,num_2,16,num_2,1.58336634259,,,2017_May_04_1609,60.0072944556,MAFE4ImagesEEG,001,100334,
AFNE01.JPG,AFNE01.JPG,AFNE01.JPG,AFNE01.JPG,AFNE01.JPG,AFNE01.JPG,,,,,2,9,29,0,,,,,,,,,,,,,,,,,,,AFNE18.jpg,AFSA09.jpg,AFSA10.jpg,AFNE15.jpg,AFNE15.jpg,FN,3,num_4,16,num_4,0.733159193536,,,2017_May_04_1609,60.0072944556,MAFE4ImagesEEG,001,100334,
AFNE01.JPG,AFNE01.JPG,AFNE01.JPG,AFNE01.JPG,AFNE01.JPG,AFNE01.JPG,,,,,3,0,30,7,,,,,,,,,,,,,,,,,,,AFNE14.jpg,AFNE18.jpg,AFSA14.jpg,AFSA05.jpg,AFNE18.jpg,FN,3,num_6,32,num_8,2.21666566702,,,2017_May_04_1609,60.0072944556,MAFE4ImagesEEG,001,100334,
AFNE01.JPG,AFNE01.JPG,AFNE01.JPG,AFNE01.JPG,AFNE01.JPG,AFNE01.JPG,,,,,3,1,31,6,,,,,,,,,,,,,,,,,,,AFSA17.jpg,AFNE10.jpg,AFNE01.jpg,AFSA13.jpg,AFSA17.jpg,FS,4,num_8,32,num_4,1.21673302236,,,2017_May_04_1609,60.0072944556,MAFE4ImagesEEG,001,100334,
AFNE01.JPG,AFNE01.JPG,AFNE01.JPG,AFNE01.JPG,AFNE01.JPG,AFNE01.JPG,,,,,3,2,32,0,,,,,,,,,,,,,,,,,,,AFSA04.jpg,AFNE01.jpg,AFSA09.jpg,AFNE13.jpg,AFNE13.jpg,FN,3,num_4,16,num_4,1.51648550783,,,2017_May_04_1609,60.0072944556,MAFE4ImagesEEG,001,100334,
AFNE01.JPG,AFNE01.JPG,AFNE01.JPG,AFNE01.JPG,AFNE01.JPG,AFNE01.JPG,,,,,3,3,33,2,,,,,,,,,,,,,,,,,,,AFNE08.jpg,AFSA11.jpg,AFNE09.jpg,AFSA01.jpg,AFNE09.jpg,FN,3,num_2,16,num_2,1.36672505178,,,2017_May_04_1609,60.0072944556,MAFE4ImagesEEG,001,100334,
AFNE01.JPG,AFNE01.JPG,AFNE01.JPG,AFNE01.JPG,AFNE01.JPG,AFNE01.JPG,,,,,3,4,34,4,,,,,,,,,,,,,,,,,,,AFNE05.jpg,AFNE20.jpg,AFSA13.jpg,AFSA05.jpg,AFNE20.jpg,FN,3,num_6,16,num_6,0.916775905062,,,2017_May_04_1609,60.0072944556,MAFE4ImagesEEG,001,100334,
AFNE01.JPG,AFNE01.JPG,AFNE01.JPG,AFNE01.JPG,AFNE01.JPG,AFNE01.JPG,,,,,3,5,35,9,,,,,,,,,,,,,,,,,,,AFSA13.jpg,AFSA16.jpg,AFNE02.jpg,AFNE10.jpg,AFNE02.jpg,FN,3,num_2,32,num_6,0.9167447933,,,2017_May_04_1609,60.0072944556,MAFE4ImagesEEG,001,100334,
AFNE01.JPG,AFNE01.JPG,AFNE01.JPG,AFNE01.JPG,AFNE01.JPG,AFNE01.JPG,,,,,3,6,36,1,,,,,,,,,,,,,,,,,,,AFSA17.jpg,AFNE18.jpg,AFSA14.jpg,AFNE05.jpg,AFNE18.jpg,FN,3,num_6,16,num_6,1.75006118114,,,2017_May_04_1609,60.0072944556,MAFE4ImagesEEG,001,100334,
AFNE01.JPG,AFNE01.JPG,AFNE01.JPG,AFNE01.JPG,AFNE01.JPG,AFNE01.JPG,,,,,3,7,37,5,,,,,,,,,,,,,,,,,,,AFNE19.jpg,AFSA02.jpg,AFSA04.jpg,AFNE07.jpg,AFSA04.jpg,FS,4,num_2,16,num_2,0.816755024716,,,2017_May_04_1609,60.0072944556,MAFE4ImagesEEG,001,100334,
AFNE01.JPG,AFNE01.JPG,AFNE01.JPG,AFNE01.JPG,AFNE01.JPG,AFNE01.JPG,,,,,3,8,38,3,,,,,,,,,,,,,,,,,,,AFSA05.jpg,AFNE19.jpg,AFNE02.jpg,AFSA02.jpg,AFSA02.jpg,FS,4,num_4,16,num_4,0.583389115054,,,2017_May_04_1609,60.0072944556,MAFE4ImagesEEG,001,100334,
AFNE01.JPG,AFNE01.JPG,AFNE01.JPG,AFNE01.JPG,AFNE01.JPG,AFNE01.JPG,,,,,3,9,39,8,,,,,,,,,,,,,,,,,,,AFNE11.jpg,AFSA05.jpg,AFSA09.jpg,AFNE13.jpg,AFSA09.jpg,FS,4,num_2,32,num_4,1.13341687503,,,2017_May_04_1609,60.0072944556,MAFE4ImagesEEG,001,100334,
AFNE01.JPG,AFNE01.JPG,AFNE01.JPG,AFNE01.JPG,AFNE01.JPG,AFNE01.JPG,,,,,4,0,40,1,,,,,,,,,,,,,,,,,,,AFSA06.jpg,AFNE19.jpg,AFNE09.jpg,AFSA05.jpg,AFSA05.jpg,FS,4,num_4,32,num_6,0.833428004757,,,2017_May_04_1609,60.0072944556,MAFE4ImagesEEG,001,100334,
AFNE01.JPG,AFNE01.JPG,AFNE01.JPG,AFNE01.JPG,AFNE01.JPG,AFNE01.JPG,,,,,4,1,41,8,,,,,,,,,,,,,,,,,,,AFSA03.jpg,AFNE20.jpg,AFNE11.jpg,AFSA13.jpg,AFSA03.jpg,FS,4,num_8,16,num_8,1.01673808997,,,2017_May_04_1609,60.0072944556,MAFE4ImagesEEG,001,100334,
AFNE01.JPG,AFNE01.JPG,AFNE01.JPG,AFNE01.JPG,AFNE01.JPG,AFNE01.JPG,,,,,4,2,42,0,,,,,,,,,,,,,,,,,,,AFSA09.jpg,AFSA14.jpg,AFNE10.jpg,AFNE19.jpg,AFSA14.jpg,FS,4,num_6,16,num_6,3.91644233628,,,2017_May_04_1609,60.0072944556,MAFE4ImagesEEG,001,100334,
AFNE01.JPG,AFNE01.JPG,AFNE01.JPG,AFNE01.JPG,AFNE01.JPG,AFNE01.JPG,,,,,4,3,43,6,,,,,,,,,,,,,,,,,,,AFNE04.jpg,AFSA03.jpg,AFNE13.jpg,AFSA16.jpg,AFSA03.jpg,FS,4,num_6,32,num_2,1.63336315146,,,2017_May_04_1609,60.0072944556,MAFE4ImagesEEG,001,100334,
AFNE01.JPG,AFNE01.JPG,AFNE01.JPG,AFNE01.JPG,AFNE01.JPG,AFNE01.JPG,,,,,4,4,44,5,,,,,,,,,,,,,,,,,,,AFSA10.jpg,AFNE02.jpg,AFNE08.jpg,AFSA01.jpg,AFNE08.jpg,FN,3,num_2,16,num_2,1.45008481946,,,2017_May_04_1609,60.0072944556,MAFE4ImagesEEG,001,100334,
AFNE01.JPG,AFNE01.JPG,AFNE01.JPG,AFNE01.JPG,AFNE01.JPG,AFNE01.JPG,,,,,4,5,45,3,,,,,,,,,,,,,,,,,,,AFNE13.jpg,AFNE14.jpg,AFSA15.jpg,AFSA03.jpg,AFNE13.jpg,FN,3,num_8,16,num_8,1.11700209044,,,2017_May_04_1609,60.0072944556,MAFE4ImagesEEG,001,100334,
AFNE01.JPG,AFNE01.JPG,AFNE01.JPG,AFNE01.JPG,AFNE01.JPG,AFNE01.JPG,,,,,4,6,46,9,,,,,,,,,,,,,,,,,,,AFNE19.jpg,AFSA01.jpg,AFSA02.jpg,AFNE05.jpg,AFNE05.jpg,FN,3,num_4,32,num_2,1.733389484,,,2017_May_04_1609,60.0072944556,MAFE4ImagesEEG,001,100334,
AFNE01.JPG,AFNE01.JPG,AFNE01.JPG,AFNE01.JPG,AFNE01.JPG,AFNE01.JPG,,,,,4,7,47,2,,,,,,,,,,,,,,,,,,,AFSA12.jpg,AFNE03.jpg,AFNE20.jpg,AFSA01.jpg,AFSA01.jpg,FS,4,num_4,16,num_4,1.00011578691,,,2017_May_04_1609,60.0072944556,MAFE4ImagesEEG,001,100334,
AFNE01.JPG,AFNE01.JPG,AFNE01.JPG,AFNE01.JPG,AFNE01.JPG,AFNE01.JPG,,,,,4,8,48,7,,,,,,,,,,,,,,,,,,,AFNE20.jpg,AFSA14.jpg,AFSA19.jpg,AFNE16.jpg,AFSA19.jpg,FS,4,num_2,16,num_2,2.75003071059,,,2017_May_04_1609,60.0072944556,MAFE4ImagesEEG,001,100334,
AFNE01.JPG,AFNE01.JPG,AFNE01.JPG,AFNE01.JPG,AFNE01.JPG,AFNE01.JPG,,,,,4,9,49,4,,,,,,,,,,,,,,,,,,,AFNE03.jpg,AFSA07.jpg,AFNE13.jpg,AFSA01.jpg,AFNE03.jpg,FN,3,num_8,16,num_8,1.36672569346,,,2017_May_04_1609,60.0072944556,MAFE4ImagesEEG,001,100334,
AFNE01.JPG,AFNE01.JPG,AFNE01.JPG,AFNE01.JPG,AFNE01.JPG,AFNE01.JPG,,,,,5,0,50,4,,,,,,,,,,,,,,,,,,,AFSA19.jpg,AFNE18.jpg,AFNE06.jpg,AFSA04.jpg,AFNE06.jpg,FN,3,num_2,16,num_2,1.11668616231,,,2017_May_04_1609,60.0072944556,MAFE4ImagesEEG,001,100334,
AFNE01.JPG,AFNE01.JPG,AFNE01.JPG,AFNE01.JPG,AFNE01.JPG,AFNE01.JPG,,,,,5,1,51,5,,,,,,,,,,,,,,,,,,,AFNE07.jpg,AFNE14.jpg,AFSA13.jpg,AFSA02.jpg,AFNE14.jpg,FN,3,num_6,16,num_6,0.700077522779,,,2017_May_04_1609,60.0072944556,MAFE4ImagesEEG,001,100334,
AFNE01.JPG,AFNE01.JPG,AFNE01.JPG,AFNE01.JPG,AFNE01.JPG,AFNE01.JPG,,,,,5,2,52,9,,,,,,,,,,,,,,,,,,,AFSA10.jpg,AFNE14.jpg,AFSA19.jpg,AFNE03.jpg,AFNE03.jpg,FN,3,num_4,16,num_4,0.816751496634,,,2017_May_04_1609,60.0072944556,MAFE4ImagesEEG,001,100334,
AFNE01.JPG,AFNE01.JPG,AFNE01.JPG,AFNE01.JPG,AFNE01.JPG,AFNE01.JPG,,,,,5,3,53,3,,,,,,,,,,,,,,,,,,,AFNE10.jpg,AFSA03.jpg,AFNE20.jpg,AFSA11.jpg,AFNE20.jpg,FN,3,num_2,16,num_2,1.13344060979,,,2017_May_04_1609,60.0072944556,MAFE4ImagesEEG,001,100334,
AFNE01.JPG,AFNE01.JPG,AFNE01.JPG,AFNE01.JPG,AFNE01.JPG,AFNE01.JPG,,,,,5,4,54,2,,,,,,,,,,,,,,,,,,,AFNE09.jpg,AFNE11.jpg,AFSA12.jpg,AFSA07.jpg,AFNE11.jpg,FN,3,num_6,16,num_6,0.816764967749,,,2017_May_04_1609,60.0072944556,MAFE4ImagesEEG,001,100334,
AFNE01.JPG,AFNE01.JPG,AFNE01.JPG,AFNE01.JPG,AFNE01.JPG,AFNE01.JPG,,,,,5,5,55,0,,,,,,,,,,,,,,,,,,,AFSA02.jpg,AFNE14.jpg,AFSA17.jpg,AFNE20.jpg,AFNE20.jpg,FN,3,num_4,16,num_4,1.16702680336,,,2017_May_04_1609,60.0072944556,MAFE4ImagesEEG,001,100334,
AFNE01.JPG,AFNE01.JPG,AFNE01.JPG,AFNE01.JPG,AFNE01.JPG,AFNE01.JPG,,,,,5,6,56,7,,,,,,,,,,,,,,,,,,,AFSA08.jpg,AFNE10.jpg,AFSA13.jpg,AFNE08.jpg,AFNE10.jpg,FN,3,num_6,16,num_6,0.783466798253,,,2017_May_04_1609,60.0072944556,MAFE4ImagesEEG,001,100334,
AFNE01.JPG,AFNE01.JPG,AFNE01.JPG,AFNE01.JPG,AFNE01.JPG,AFNE01.JPG,,,,,5,7,57,1,,,,,,,,,,,,,,,,,,,AFNE11.jpg,AFSA18.jpg,AFSA07.jpg,AFNE01.jpg,AFSA18.jpg,FS,4,num_6,16,num_6,0.566834167344,,,2017_May_04_1609,60.0072944556,MAFE4ImagesEEG,001,100334,
AFNE01.JPG,AFNE01.JPG,AFNE01.JPG,AFNE01.JPG,AFNE01.JPG,AFNE01.JPG,,,,,5,8,58,6,,,,,,,,,,,,,,,,,,,AFSA19.jpg,AFNE17.jpg,AFNE10.jpg,AFSA14.jpg,AFSA19.jpg,FS,4,num_8,16,num_8,0.866742532002,,,2017_May_04_1609,60.0072944556,MAFE4ImagesEEG,001,100334,
AFNE01.JPG,AFNE01.JPG,AFNE01.JPG,AFNE01.JPG,AFNE01.JPG,AFNE01.JPG,,,,,5,9,59,8,,,,,,,,,,,,,,,,,,,AFNE05.jpg,AFSA01.jpg,AFNE01.jpg,AFSA03.jpg,AFSA01.jpg,FS,4,num_6,32,num_2,1.43353372044,,,2017_May_04_1609,60.0072944556,MAFE4ImagesEEG,001,100334,
,,,,,,,,,,,,,,,,,,,,,,,,,,,,,,,,,,,,,,,,,,,space,21.1981766624,2017_May_04_1609,60.0072944556,MAFE4ImagesEEG,001,100334,
AFNE01.JPG,AFNE01.JPG,AFNE01.JPG,AFNE01.JPG,AFNE01.JPG,AFNE01.JPG,,,,,,,,,0,0,0,1,,,,,,,,,,,,,,,AMSA01.jpg,AMNE16.jpg,AMNE18.jpg,AMSA04.jpg,AMNE16.jpg,MN,1,num_6,16,num_6,1.55007587094,,,2017_May_04_1609,60.0072944556,MAFE4ImagesEEG,001,100334,
AFNE01.JPG,AFNE01.JPG,AFNE01.JPG,AFNE01.JPG,AFNE01.JPG,AFNE01.JPG,,,,,,,,,0,1,1,6,,,,,,,,,,,,,,,AMSA15.jpg,AMNE02.jpg,AMNE06.jpg,AMSA06.jpg,AMSA06.jpg,MS,2,num_4,32,num_8,0.666778711602,,,2017_May_04_1609,60.0072944556,MAFE4ImagesEEG,001,100334,
AFNE01.JPG,AFNE01.JPG,AFNE01.JPG,AFNE01.JPG,AFNE01.JPG,AFNE01.JPG,,,,,,,,,0,2,2,4,,,,,,,,,,,,,,,AMNE19.jpg,AMSA01.jpg,AMNE12.jpg,AMSA03.jpg,AMSA01.jpg,MS,2,num_6,32,num_4,0.60044569918,,,2017_May_04_1609,60.0072944556,MAFE4ImagesEEG,001,100334,
AFNE01.JPG,AFNE01.JPG,AFNE01.JPG,AFNE01.JPG,AFNE01.JPG,AFNE01.JPG,,,,,,,,,0,3,3,5,,,,,,,,,,,,,,,AMSA13.jpg,AMNE10.jpg,AMNE14.jpg,AMSA17.jpg,AMSA17.jpg,MS,2,num_4,32,num_8,0.916758585023,,,2017_May_04_1609,60.0072944556,MAFE4ImagesEEG,001,100334,
AFNE01.JPG,AFNE01.JPG,AFNE01.JPG,AFNE01.JPG,AFNE01.JPG,AFNE01.JPG,,,,,,,,,0,4,4,7,,,,,,,,,,,,,,,AMNE13.jpg,AMSA17.jpg,AMSA10.jpg,AMNE04.jpg,AMNE13.jpg,MN,1,num_8,32,num_2,2.51662246347,,,2017_May_04_1609,60.0072944556,MAFE4ImagesEEG,001,100334,
AFNE01.JPG,AFNE01.JPG,AFNE01.JPG,AFNE01.JPG,AFNE01.JPG,AFNE01.JPG,,,,,,,,,0,5,5,0,,,,,,,,,,,,,,,AMNE11.jpg,AMSA14.jpg,AMNE06.jpg,AMSA04.jpg,AMNE11.jpg,MN,1,num_8,16,num_8,0.516833830625,,,2017_May_04_1609,60.0072944556,MAFE4ImagesEEG,001,100334,
AFNE01.JPG,AFNE01.JPG,AFNE01.JPG,AFNE01.JPG,AFNE01.JPG,AFNE01.JPG,,,,,,,,,0,6,6,9,,,,,,,,,,,,,,,AMNE01.jpg,AMSA04.jpg,AMNE07.jpg,AMSA09.jpg,AMSA04.jpg,MS,2,num_6,16,num_6,0.916743831011,,,2017_May_04_1609,60.0072944556,MAFE4ImagesEEG,001,100334,
AFNE01.JPG,AFNE01.JPG,AFNE01.JPG,AFNE01.JPG,AFNE01.JPG,AFNE01.JPG,,,,,,,,,0,7,7,2,,,,,,,,,,,,,,,AMSA11.jpg,AMSA02.jpg,AMNE16.jpg,AMNE07.jpg,AMNE07.jpg,MN,1,num_4,32,num_2,1.31670065969,,,2017_May_04_1609,60.0072944556,MAFE4ImagesEEG,001,100334,
AFNE01.JPG,AFNE01.JPG,AFNE01.JPG,AFNE01.JPG,AFNE01.JPG,AFNE01.JPG,,,,,,,,,0,8,8,8,,,,,,,,,,,,,,,AMNE16.jpg,AMSA18.jpg,AMSA03.jpg,AMNE11.jpg,AMNE11.jpg,MN,1,num_4,16,num_4,0.883414228912,,,2017_May_04_1609,60.0072944556,MAFE4ImagesEEG,001,100334,
AFNE01.JPG,AFNE01.JPG,AFNE01.JPG,AFNE01.JPG,AFNE01.JPG,AFNE01.JPG,,,,,,,,,0,9,9,3,,,,,,,,,,,,,,,AMNE03.jpg,AMNE20.jpg,AMSA15.jpg,AMSA06.jpg,AMSA15.jpg,MS,2,num_2,16,num_2,0.716853138991,,,2017_May_04_1609,60.0072944556,MAFE4ImagesEEG,001,100334,
AFNE01.JPG,AFNE01.JPG,AFNE01.JPG,AFNE01.JPG,AFNE01.JPG,AFNE01.JPG,,,,,,,,,1,0,10,1,,,,,,,,,,,,,,,AMNE12.jpg,AMSA11.jpg,AMNE03.jpg,AMSA06.jpg,AMNE12.jpg,MN,1,num_8,16,num_8,0.933532918571,,,2017_May_04_1609,60.0072944556,MAFE4ImagesEEG,001,100334,
AFNE01.JPG,AFNE01.JPG,AFNE01.JPG,AFNE01.JPG,AFNE01.JPG,AFNE01.JPG,,,,,,,,,1,1,11,4,,,,,,,,,,,,,,,AMNE10.jpg,AMNE09.jpg,AMSA11.jpg,AMSA15.jpg,AMSA15.jpg,MS,2,num_4,16,num_4,1.46674785647,,,2017_May_04_1609,60.0072944556,MAFE4ImagesEEG,001,100334,
AFNE01.JPG,AFNE01.JPG,AFNE01.JPG,AFNE01.JPG,AFNE01.JPG,AFNE01.JPG,,,,,,,,,1,2,12,3,,,,,,,,,,,,,,,AMSA09.jpg,AMNE08.jpg,AMSA16.jpg,AMNE06.jpg,AMNE08.jpg,MN,1,num_6,16,num_6,0.866768832784,,,2017_May_04_1609,60.0072944556,MAFE4ImagesEEG,001,100334,
AFNE01.JPG,AFNE01.JPG,AFNE01.JPG,AFNE01.JPG,AFNE01.JPG,AFNE01.JPG,,,,,,,,,1,3,13,8,,,,,,,,,,,,,,,AMSA08.jpg,AMNE02.jpg,AMSA17.jpg,AMNE11.jpg,AMNE11.jpg,MN,1,num_4,32,num_8,1.70005571237,,,2017_May_04_1609,60.0072944556,MAFE4ImagesEEG,001,100334,
AFNE01.JPG,AFNE01.JPG,AFNE01.JPG,AFNE01.JPG,AFNE01.JPG,AFNE01.JPG,,,,,,,,,1,4,14,0,,,,,,,,,,,,,,,AMNE13.jpg,AMSA04.jpg,AMSA19.jpg,AMNE01.jpg,AMSA19.jpg,MS,2,num_2,16,num_2,1.70006148564,,,2017_May_04_1609,60.0072944556,MAFE4ImagesEEG,001,100334,
AFNE01.JPG,AFNE01.JPG,AFNE01.JPG,AFNE01.JPG,AFNE01.JPG,AFNE01.JPG,,,,,,,,,1,5,15,5,,,,,,,,,,,,,,,AMSA19.jpg,AMNE09.jpg,AMNE16.jpg,AMSA11.jpg,AMNE09.jpg,MN,1,num_6,16,num_6,0.966746413149,,,2017_May_04_1609,60.0072944556,MAFE4ImagesEEG,001,100334,
AFNE01.JPG,AFNE01.JPG,AFNE01.JPG,AFNE01.JPG,AFNE01.JPG,AFNE01.JPG,,,,,,,,,1,6,16,2,,,,,,,,,,,,,,,AMNE10.jpg,AMSA09.jpg,AMNE14.jpg,AMSA15.jpg,AMNE10.jpg,MN,1,num_8,32,num_2,2.94995251461,,,2017_May_04_1609,60.0072944556,MAFE4ImagesEEG,001,100334,
AFNE01.JPG,AFNE01.JPG,AFNE01.JPG,AFNE01.JPG,AFNE01.JPG,AFNE01.JPG,,,,,,,,,1,7,17,7,,,,,,,,,,,,,,,AMSA08.jpg,AMNE07.jpg,AMSA16.jpg,AMNE13.jpg,AMSA16.jpg,MS,2,num_2,16,num_2,2.24997698702,,,2017_May_04_1609,60.0072944556,MAFE4ImagesEEG,001,100334,
AFNE01.JPG,AFNE01.JPG,AFNE01.JPG,AFNE01.JPG,AFNE01.JPG,AFNE01.JPG,,,,,,,,,1,8,18,9,,,,,,,,,,,,,,,AMNE07.jpg,AMSA06.jpg,AMNE03.jpg,AMSA18.jpg,AMNE03.jpg,MN,1,num_2,32,num_4,1.45006621652,,,2017_May_04_1609,60.0072944556,MAFE4ImagesEEG,001,100334,
AFNE01.JPG,AFNE01.JPG,AFNE01.JPG,AFNE01.JPG,AFNE01.JPG,AFNE01.JPG,,,,,,,,,1,9,19,6,,,,,,,,,,,,,,,AMSA12.jpg,AMNE06.jpg,AMSA01.jpg,AMNE05.jpg,AMNE05.jpg,MN,1,num_4,32,num_8,1.60009064083,,,2017_May_04_1609,60.0072944556,MAFE4ImagesEEG,001,100334,
AFNE01.JPG,AFNE01.JPG,AFNE01.JPG,AFNE01.JPG,AFNE01.JPG,AFNE01.JPG,,,,,,,,,2,0,20,1,,,,,,,,,,,,,,,AMNE15.jpg,AMSA14.jpg,AMSA15.jpg,AMNE12.jpg,AMNE15.jpg,MN,1,num_8,16,num_8,1.01676888089,,,2017_May_04_1609,60.0072944556,MAFE4ImagesEEG,001,100334,
AFNE01.JPG,AFNE01.JPG,AFNE01.JPG,AFNE01.JPG,AFNE01.JPG,AFNE01.JPG,,,,,,,,,2,1,21,3,,,,,,,,,,,,,,,AMSA10.jpg,AMSA15.jpg,AMNE07.jpg,AMNE06.jpg,AMNE06.jpg,MN,1,num_4,32,num_2,3.29995519272,,,2017_May_04_1609,60.0072944556,MAFE4ImagesEEG,001,100334,
AFNE01.JPG,AFNE01.JPG,AFNE01.JPG,AFNE01.JPG,AFNE01.JPG,AFNE01.JPG,,,,,,,,,2,2,22,2,,,,,,,,,,,,,,,AMSA15.jpg,AMNE04.jpg,AMSA09.jpg,AMNE19.jpg,AMNE04.jpg,MN,1,num_6,16,num_6,0.866777172079,,,2017_May_04_1609,60.0072944556,MAFE4ImagesEEG,001,100334,
AFNE01.JPG,AFNE01.JPG,AFNE01.JPG,AFNE01.JPG,AFNE01.JPG,AFNE01.JPG,,,,,,,,,2,3,23,6,,,,,,,,,,,,,,,AMSA14.jpg,AMNE03.jpg,AMSA01.jpg,AMNE17.jpg,AMNE17.jpg,MN,1,num_4,16,num_4,1.7002292322,,,2017_May_04_1609,60.0072944556,MAFE4ImagesEEG,001,100334,
AFNE01.JPG,AFNE01.JPG,AFNE01.JPG,AFNE01.JPG,AFNE01.JPG,AFNE01.JPG,,,,,,,,,2,4,24,9,,,,,,,,,,,,,,,AMNE03.jpg,AMSA09.jpg,AMNE09.jpg,AMSA07.jpg,AMNE09.jpg,MN,1,num_2,32,num_6,0.58342439658,,,2017_May_04_1609,60.0072944556,MAFE4ImagesEEG,001,100334,
AFNE01.JPG,AFNE01.JPG,AFNE01.JPG,AFNE01.JPG,AFNE01.JPG,AFNE01.JPG,,,,,,,,,2,5,25,4,,,,,,,,,,,,,,,AMSA12.jpg,AMSA01.jpg,AMNE11.jpg,AMNE09.jpg,AMSA12.jpg,MS,2,num_8,32,num_4,0.900118320715,,,2017_May_04_1609,60.0072944556,MAFE4ImagesEEG,001,100334,
AFNE01.JPG,AFNE01.JPG,AFNE01.JPG,AFNE01.JPG,AFNE01.JPG,AFNE01.JPG,,,,,,,,,2,6,26,7,,,,,,,,,,,,,,,AMSA13.jpg,AMNE08.jpg,AMNE12.jpg,AMSA09.jpg,AMSA09.jpg,MS,2,num_4,16,num_4,1.01675701351,,,2017_May_04_1609,60.0072944556,MAFE4ImagesEEG,001,100334,
AFNE01.JPG,AFNE01.JPG,AFNE01.JPG,AFNE01.JPG,AFNE01.JPG,AFNE01.JPG,,,,,,,,,2,7,27,5,,,,,,,,,,,,,,,AMSA12.jpg,AMNE15.jpg,AMNE11.jpg,AMSA03.jpg,AMNE11.jpg,MN,1,num_2,32,num_8,1.55010569957,,,2017_May_04_1609,60.0072944556,MAFE4ImagesEEG,001,100334,
AFNE01.JPG,AFNE01.JPG,AFNE01.JPG,AFNE01.JPG,AFNE01.JPG,AFNE01.JPG,,,,,,,,,2,8,28,8,,,,,,,,,,,,,,,AMNE02.jpg,AMNE19.jpg,AMSA20.jpg,AMSA09.jpg,AMNE02.jpg,MN,1,num_8,32,num_6,1.10007059458,,,2017_May_04_1609,60.0072944556,MAFE4ImagesEEG,001,100334,
AFNE01.JPG,AFNE01.JPG,AFNE01.JPG,AFNE01.JPG,AFNE01.JPG,AFNE01.JPG,,,,,,,,,2,9,29,0,,,,,,,,,,,,,,,AMSA08.jpg,AMNE16.jpg,AMNE04.jpg,AMSA09.jpg,AMSA08.jpg,MS,2,num_8,16,num_8,2.08335976768,,,2017_May_04_1609,60.0072944556,MAFE4ImagesEEG,001,100334,
AFNE01.JPG,AFNE01.JPG,AFNE01.JPG,AFNE01.JPG,AFNE01.JPG,AFNE01.JPG,,,,,,,,,3,0,30,2,,,,,,,,,,,,,,,AMNE09.jpg,AMSA05.jpg,AMSA19.jpg,AMNE08.jpg,AMNE08.jpg,MN,1,num_4,16,num_4,0.933420659974,,,2017_May_04_1609,60.0072944556,MAFE4ImagesEEG,001,100334,
AFNE01.JPG,AFNE01.JPG,AFNE01.JPG,AFNE01.JPG,AFNE01.JPG,AFNE01.JPG,,,,,,,,,3,1,31,1,,,,,,,,,,,,,,,AMNE05.jpg,AMSA11.jpg,AMNE07.jpg,AMSA12.jpg,AMSA12.jpg,MS,2,num_4,32,num_8,1.36658841697,,,2017_May_04_1609,60.0072944556,MAFE4ImagesEEG,001,100334,
AFNE01.JPG,AFNE01.JPG,AFNE01.JPG,AFNE01.JPG,AFNE01.JPG,AFNE01.JPG,,,,,,,,,3,2,32,9,,,,,,,,,,,,,,,AMNE15.jpg,AMSA10.jpg,AMSA18.jpg,AMNE06.jpg,AMNE15.jpg,MN,1,num_8,32,num_6,0.733758975519,,,2017_May_04_1609,60.0072944556,MAFE4ImagesEEG,001,100334,
AFNE01.JPG,AFNE01.JPG,AFNE01.JPG,AFNE01.JPG,AFNE01.JPG,AFNE01.JPG,,,,,,,,,3,3,33,4,,,,,,,,,,,,,,,AMNE07.jpg,AMSA13.jpg,AMSA17.jpg,AMNE13.jpg,AMNE13.jpg,MN,1,num_4,16,num_4,1.01675669267,,,2017_May_04_1609,60.0072944556,MAFE4ImagesEEG,001,100334,
AFNE01.JPG,AFNE01.JPG,AFNE01.JPG,AFNE01.JPG,AFNE01.JPG,AFNE01.JPG,,,,,,,,,3,4,34,6,,,,,,,,,,,,,,,AMNE14.jpg,AMSA13.jpg,AMNE06.jpg,AMSA17.jpg,AMNE14.jpg,MN,1,num_8,32,num_2,2.69993222784,,,2017_May_04_1609,60.0072944556,MAFE4ImagesEEG,001,100334,
AFNE01.JPG,AFNE01.JPG,AFNE01.JPG,AFNE01.JPG,AFNE01.JPG,AFNE01.JPG,,,,,,,,,3,5,35,7,,,,,,,,,,,,,,,AMNE18.jpg,AMSA13.jpg,AMNE09.jpg,AMSA19.jpg,AMNE09.jpg,MN,1,num_2,16,num_2,1.16668040492,,,2017_May_04_1609,60.0072944556,MAFE4ImagesEEG,001,100334,
AFNE01.JPG,AFNE01.JPG,AFNE01.JPG,AFNE01.JPG,AFNE01.JPG,AFNE01.JPG,,,,,,,,,3,6,36,0,,,,,,,,,,,,,,,AMSA15.jpg,AMSA12.jpg,AMNE03.jpg,AMNE15.jpg,AMSA12.jpg,MS,2,num_6,16,num_6,0.650100279134,,,2017_May_04_1609,60.0072944556,MAFE4ImagesEEG,001,100334,
AFNE01.JPG,AFNE01.JPG,AFNE01.JPG,AFNE01.JPG,AFNE01.JPG,AFNE01.JPG,,,,,,,,,3,7,37,3,,,,,,,,,,,,,,,AMNE03.jpg,AMSA16.jpg,AMNE10.jpg,AMSA20.jpg,AMNE10.jpg,MN,1,num_2,32,num_6,4.36646172521,,,2017_May_04_1609,60.0072944556,MAFE4ImagesEEG,001,100334,
AFNE01.JPG,AFNE01.JPG,AFNE01.JPG,AFNE01.JPG,AFNE01.JPG,AFNE01.JPG,,,,,,,,,3,8,38,8,,,,,,,,,,,,,,,AMNE20.jpg,AMSA03.jpg,AMSA16.jpg,AMNE17.jpg,AMNE20.jpg,MN,1,num_8,16,num_8,0.683327886276,,,2017_May_04_1609,60.0072944556,MAFE4ImagesEEG,001,100334,
AFNE01.JPG,AFNE01.JPG,AFNE01.JPG,AFNE01.JPG,AFNE01.JPG,AFNE01.JPG,,,,,,,,,3,9,39,5,,,,,,,,,,,,,,,AMSA08.jpg,AMNE20.jpg,AMSA04.jpg,AMNE07.jpg,AMSA08.jpg,MS,2,num_8,32,num_4,0.633156595519,,,2017_May_04_1609,60.0072944556,MAFE4ImagesEEG,001,100334,
AFNE01.JPG,AFNE01.JPG,AFNE01.JPG,AFNE01.JPG,AFNE01.JPG,AFNE01.JPG,,,,,,,,,4,0,40,5,,,,,,,,,,,,,,,AMNE11.jpg,AMSA20.jpg,AMNE15.jpg,AMSA16.jpg,AMNE11.jpg,MN,1,num_8,32,num_2,1.15006098873,,,2017_May_04_1609,60.0072944556,MAFE4ImagesEEG,001,100334,
AFNE01.JPG,AFNE01.JPG,AFNE01.JPG,AFNE01.JPG,AFNE01.JPG,AFNE01.JPG,,,,,,,,,4,1,41,3,,,,,,,,,,,,,,,AMSA14.jpg,AMSA09.jpg,AMNE11.jpg,AMNE01.jpg,AMSA14.jpg,MS,2,num_8,16,num_8,0.866809566738,,,2017_May_04_1609,60.0072944556,MAFE4ImagesEEG,001,100334,
AFNE01.JPG,AFNE01.JPG,AFNE01.JPG,AFNE01.JPG,AFNE01.JPG,AFNE01.JPG,,,,,,,,,4,2,42,6,,,,,,,,,,,,,,,AMSA20.jpg,AMNE20.jpg,AMSA16.jpg,AMNE12.jpg,AMNE12.jpg,MN,1,num_4,32,num_6,0.950090111699,,,2017_May_04_1609,60.0072944556,MAFE4ImagesEEG,001,100334,
AFNE01.JPG,AFNE01.JPG,AFNE01.JPG,AFNE01.JPG,AFNE01.JPG,AFNE01.JPG,,,,,,,,,4,3,43,7,,,,,,,,,,,,,,,AMNE19.jpg,AMSA01.jpg,AMSA09.jpg,AMNE07.jpg,AMSA09.jpg,MS,2,num_2,16,num_2,0.883461377583,,,2017_May_04_1609,60.0072944556,MAFE4ImagesEEG,001,100334,
AFNE01.JPG,AFNE01.JPG,AFNE01.JPG,AFNE01.JPG,AFNE01.JPG,AFNE01.JPG,,,,,,,,,4,4,44,9,,,,,,,,,,,,,,,AMSA03.jpg,AMNE09.jpg,AMNE14.jpg,AMSA19.jpg,AMSA19.jpg,MS,2,num_4,16,num_4,0.416778631276,,,2017_May_04_1609,60.0072944556,MAFE4ImagesEEG,001,100334,
AFNE01.JPG,AFNE01.JPG,AFNE01.JPG,AFNE01.JPG,AFNE01.JPG,AFNE01.JPG,,,,,,,,,4,5,45,4,,,,,,,,,,,,,,,AMSA01.jpg,AMNE09.jpg,AMNE10.jpg,AMSA13.jpg,AMNE09.jpg,MN,1,num_6,16,num_6,0.833334990544,,,2017_May_04_1609,60.0072944556,MAFE4ImagesEEG,001,100334,
AFNE01.JPG,AFNE01.JPG,AFNE01.JPG,AFNE01.JPG,AFNE01.JPG,AFNE01.JPG,,,,,,,,,4,6,46,0,,,,,,,,,,,,,,,AMNE09.jpg,AMNE02.jpg,AMSA02.jpg,AMSA06.jpg,AMSA02.jpg,MS,2,num_2,32,num_6,0.633473806549,,,2017_May_04_1609,60.0072944556,MAFE4ImagesEEG,001,100334,
AFNE01.JPG,AFNE01.JPG,AFNE01.JPG,AFNE01.JPG,AFNE01.JPG,AFNE01.JPG,,,,,,,,,4,7,47,8,,,,,,,,,,,,,,,AMNE14.jpg,AMSA05.jpg,AMSA13.jpg,AMNE18.jpg,AMNE14.jpg,MN,1,num_8,32,num_4,1.01663609501,,,2017_May_04_1609,60.0072944556,MAFE4ImagesEEG,001,100334,
AFNE01.JPG,AFNE01.JPG,AFNE01.JPG,AFNE01.JPG,AFNE01.JPG,AFNE01.JPG,,,,,,,,,4,8,48,2,,,,,,,,,,,,,,,AMSA01.jpg,AMNE02.jpg,AMNE13.jpg,AMSA11.jpg,AMSA01.jpg,MS,2,num_8,32,num_6,0.466834776802,,,2017_May_04_1609,60.0072944556,MAFE4ImagesEEG,001,100334,
AFNE01.JPG,AFNE01.JPG,AFNE01.JPG,AFNE01.JPG,AFNE01.JPG,AFNE01.JPG,,,,,,,,,4,9,49,1,,,,,,,,,,,,,,,AMSA18.jpg,AMNE12.jpg,AMNE10.jpg,AMSA05.jpg,AMNE12.jpg,MN,1,num_6,32,num_2,1.68344688043,,,2017_May_04_1609,60.0072944556,MAFE4ImagesEEG,001,100334,
AFNE01.JPG,AFNE01.JPG,AFNE01.JPG,AFNE01.JPG,AFNE01.JPG,AFNE01.JPG,,,,,,,,,5,0,50,9,,,,,,,,,,,,,,,AMSA04.jpg,AMSA06.jpg,AMNE01.jpg,AMNE09.jpg,AMSA04.jpg,MS,2,num_8,16,num_8,0.900113830343,,,2017_May_04_1609,60.0072944556,MAFE4ImagesEEG,001,100334,
AFNE01.JPG,AFNE01.JPG,AFNE01.JPG,AFNE01.JPG,AFNE01.JPG,AFNE01.JPG,,,,,,,,,5,1,51,0,,,,,,,,,,,,,,,AMNE14.jpg,AMSA18.jpg,AMSA14.jpg,AMNE06.jpg,AMSA14.jpg,MS,2,num_2,16,num_2,0.883172712522,,,2017_May_04_1609,60.0072944556,MAFE4ImagesEEG,001,100334,
AFNE01.JPG,AFNE01.JPG,AFNE01.JPG,AFNE01.JPG,AFNE01.JPG,AFNE01.JPG,,,,,,,,,5,2,52,4,,,,,,,,,,,,,,,AMNE16.jpg,AMSA18.jpg,AMSA20.jpg,AMNE11.jpg,AMNE11.jpg,MN,1,num_4,16,num_4,0.783468401991,,,2017_May_04_1609,60.0072944556,MAFE4ImagesEEG,001,100334,
AFNE01.JPG,AFNE01.JPG,AFNE01.JPG,AFNE01.JPG,AFNE01.JPG,AFNE01.JPG,,,,,,,,,5,3,53,8,,,,,,,,,,,,,,,AMNE03.jpg,AMSA17.jpg,AMSA20.jpg,AMNE14.jpg,AMSA20.jpg,MS,2,num_2,16,num_2,0.85013626609,,,2017_May_04_1609,60.0072944556,MAFE4ImagesEEG,001,100334,
AFNE01.JPG,AFNE01.JPG,AFNE01.JPG,AFNE01.JPG,AFNE01.JPG,AFNE01.JPG,,,,,,,,,5,4,54,3,,,,,,,,,,,,,,,AMSA09.jpg,AMSA07.jpg,AMNE12.jpg,AMNE07.jpg,AMNE07.jpg,MN,1,num_4,32,num_2,1.46654963959,,,2017_May_04_1609,60.0072944556,MAFE4ImagesEEG,001,100334,
AFNE01.JPG,AFNE01.JPG,AFNE01.JPG,AFNE01.JPG,AFNE01.JPG,AFNE01.JPG,,,,,,,,,5,5,55,2,,,,,,,,,,,,,,,AMSA04.jpg,AMNE14.jpg,AMSA17.jpg,AMNE18.jpg,AMSA17.jpg,MS,2,num_2,32,num_8,0.983412657632,,,2017_May_04_1609,60.0072944556,MAFE4ImagesEEG,001,100334,
AFNE01.JPG,AFNE01.JPG,AFNE01.JPG,AFNE01.JPG,AFNE01.JPG,AFNE01.JPG,,,,,,,,,5,6,56,7,,,,,,,,,,,,,,,AMSA07.jpg,AMNE05.jpg,AMSA14.jpg,AMNE17.jpg,AMSA07.jpg,MS,2,num_8,32,num_6,0.766622543568,,,2017_May_04_1609,60.0072944556,MAFE4ImagesEEG,001,100334,
AFNE01.JPG,AFNE01.JPG,AFNE01.JPG,AFNE01.JPG,AFNE01.JPG,AFNE01.JPG,,,,,,,,,5,7,57,6,,,,,,,,,,,,,,,AMSA16.jpg,AMNE19.jpg,AMSA19.jpg,AMNE14.jpg,AMNE19.jpg,MN,1,num_6,16,num_6,0.866816302063,,,2017_May_04_1609,60.0072944556,MAFE4ImagesEEG,001,100334,
AFNE01.JPG,AFNE01.JPG,AFNE01.JPG,AFNE01.JPG,AFNE01.JPG,AFNE01.JPG,,,,,,,,,5,8,58,1,,,,,,,,,,,,,,,AMSA03.jpg,AMNE05.jpg,AMNE12.jpg,AMSA16.jpg,AMSA16.jpg,MS,2,num_4,32,num_6,0.816766892094,,,2017_May_04_1609,60.0072944556,MAFE4ImagesEEG,001,100334,
AFNE01.JPG,AFNE01.JPG,AFNE01.JPG,AFNE01.JPG,AFNE01.JPG,AFNE01.JPG,,,,,,,,,5,9,59,5,,,,,,,,,,,,,,,AMNE10.jpg,AMNE19.jpg,AMSA02.jpg,AMSA05.jpg,AMNE19.jpg,MN,1,num_6,16,num_6,0.983488672646,,,2017_May_04_1609,60.0072944556,MAFE4ImagesEEG,001,100334,
,,,,,,,,,,,,,,,,,,,,,,,,,,,,,,,,,,,,,,,,,,,space,26.9977166585,2017_May_04_1609,60.0072944556,MAFE4ImagesEEG,001,100334,
AFNE01.JPG,AFNE01.JPG,AFNE01.JPG,AFNE01.JPG,AFNE01.JPG,AFNE01.JPG,,,,,,,,,,,,,0,0,0,3,,,,,,,,,,,AFNE11.jpg,AFSA03.jpg,AFNE10.jpg,AFSA19.jpg,AFNE10.jpg,FN,3,num_2,32,num_6,0.900148470188,,,2017_May_04_1609,60.0072944556,MAFE4ImagesEEG,001,100334,
AFNE01.JPG,AFNE01.JPG,AFNE01.JPG,AFNE01.JPG,AFNE01.JPG,AFNE01.JPG,,,,,,,,,,,,,0,1,1,0,,,,,,,,,,,AFSA12.jpg,AFNE16.jpg,AFNE14.jpg,AFSA17.jpg,AFNE16.jpg,FN,3,num_6,16,num_6,0.550148678711,,,2017_May_04_1609,60.0072944556,MAFE4ImagesEEG,001,100334,
AFNE01.JPG,AFNE01.JPG,AFNE01.JPG,AFNE01.JPG,AFNE01.JPG,AFNE01.JPG,,,,,,,,,,,,,0,2,2,1,,,,,,,,,,,AFNE15.jpg,AFSA15.jpg,AFNE14.jpg,AFSA20.jpg,AFNE14.jpg,FN,3,num_2,16,num_2,1.51666800841,,,2017_May_04_1609,60.0072944556,MAFE4ImagesEEG,001,100334,
AFNE01.JPG,AFNE01.JPG,AFNE01.JPG,AFNE01.JPG,AFNE01.JPG,AFNE01.JPG,,,,,,,,,,,,,0,3,3,6,,,,,,,,,,,AFNE12.jpg,AFSA09.jpg,AFNE20.jpg,AFSA20.jpg,AFNE20.jpg,FN,3,num_2,32,num_4,1.3670021703,,,2017_May_04_1609,60.0072944556,MAFE4ImagesEEG,001,100334,
AFNE01.JPG,AFNE01.JPG,AFNE01.JPG,AFNE01.JPG,AFNE01.JPG,AFNE01.JPG,,,,,,,,,,,,,0,4,4,9,,,,,,,,,,,AFNE07.jpg,AFSA19.jpg,AFSA14.jpg,AFNE06.jpg,AFSA19.jpg,FS,4,num_6,16,num_6,0.533468963113,,,2017_May_04_1609,60.0072944556,MAFE4ImagesEEG,001,100334,
AFNE01.JPG,AFNE01.JPG,AFNE01.JPG,AFNE01.JPG,AFNE01.JPG,AFNE01.JPG,,,,,,,,,,,,,0,5,5,4,,,,,,,,,,,AFNE13.jpg,AFSA10.jpg,AFNE05.jpg,AFSA15.jpg,AFSA15.jpg,FS,4,num_4,16,num_4,0.533435927238,,,2017_May_04_1609,60.0072944556,MAFE4ImagesEEG,001,100334,
AFNE01.JPG,AFNE01.JPG,AFNE01.JPG,AFNE01.JPG,AFNE01.JPG,AFNE01.JPG,,,,,,,,,,,,,0,6,6,7,,,,,,,,,,,AFNE12.jpg,AFSA18.jpg,AFSA08.jpg,AFNE03.jpg,AFSA08.jpg,FS,4,num_2,16,num_2,1.01709731785,,,2017_May_04_1609,60.0072944556,MAFE4ImagesEEG,001,100334,
AFNE01.JPG,AFNE01.JPG,AFNE01.JPG,AFNE01.JPG,AFNE01.JPG,AFNE01.JPG,,,,,,,,,,,,,0,7,7,5,,,,,,,,,,,AFSA06.jpg,AFNE14.jpg,AFSA10.jpg,AFNE05.jpg,AFSA10.jpg,FS,4,num_2,16,num_2,0.850105795776,,,2017_May_04_1609,60.0072944556,MAFE4ImagesEEG,001,100334,
AFNE01.JPG,AFNE01.JPG,AFNE01.JPG,AFNE01.JPG,AFNE01.JPG,AFNE01.JPG,,,,,,,,,,,,,0,8,8,8,,,,,,,,,,,AFSA16.jpg,AFNE05.jpg,AFSA09.jpg,AFNE11.jpg,AFSA16.jpg,FS,4,num_8,16,num_8,0.450155061204,,,2017_May_04_1609,60.0072944556,MAFE4ImagesEEG,001,100334,
AFNE01.JPG,AFNE01.JPG,AFNE01.JPG,AFNE01.JPG,AFNE01.JPG,AFNE01.JPG,,,,,,,,,,,,,0,9,9,2,,,,,,,,,,,AFNE09.jpg,AFSA13.jpg,AFSA15.jpg,AFNE05.jpg,AFNE05.jpg,FN,3,num_4,32,num_6,0.883425134234,,,2017_May_04_1609,60.0072944556,MAFE4ImagesEEG,001,100334,
AFNE01.JPG,AFNE01.JPG,AFNE01.JPG,AFNE01.JPG,AFNE01.JPG,AFNE01.JPG,,,,,,,,,,,,,1,0,10,7,,,,,,,,,,,AFSA08.jpg,AFNE13.jpg,AFNE20.jpg,AFSA16.jpg,AFNE13.jpg,FN,3,num_6,32,num_8,1.10012896918,,,2017_May_04_1609,60.0072944556,MAFE4ImagesEEG,001,100334,
AFNE01.JPG,AFNE01.JPG,AFNE01.JPG,AFNE01.JPG,AFNE01.JPG,AFNE01.JPG,,,,,,,,,,,,,1,1,11,4,,,,,,,,,,,AFNE10.jpg,AFSA09.jpg,AFNE08.jpg,AFSA16.jpg,AFSA09.jpg,FS,4,num_6,16,num_6,1.51669687498,,,2017_May_04_1609,60.0072944556,MAFE4ImagesEEG,001,100334,
AFNE01.JPG,AFNE01.JPG,AFNE01.JPG,AFNE01.JPG,AFNE01.JPG,AFNE01.JPG,,,,,,,,,,,,,1,2,12,6,,,,,,,,,,,AFSA18.jpg,AFNE09.jpg,AFNE18.jpg,AFSA13.jpg,AFSA18.jpg,FS,4,num_8,32,num_2,2.2166691951,,,2017_May_04_1609,60.0072944556,MAFE4ImagesEEG,001,100334,
AFNE01.JPG,AFNE01.JPG,AFNE01.JPG,AFNE01.JPG,AFNE01.JPG,AFNE01.JPG,,,,,,,,,,,,,1,3,13,9,,,,,,,,,,,AFSA12.jpg,AFNE17.jpg,AFSA06.jpg,AFNE14.jpg,AFSA06.jpg,FS,4,num_2,16,num_2,3.08324365993,,,2017_May_04_1609,60.0072944556,MAFE4ImagesEEG,001,100334,
AFNE01.JPG,AFNE01.JPG,AFNE01.JPG,AFNE01.JPG,AFNE01.JPG,AFNE01.JPG,,,,,,,,,,,,,1,4,14,2,,,,,,,,,,,AFSA01.jpg,AFNE13.jpg,AFSA17.jpg,AFNE15.jpg,AFSA01.jpg,FS,4,num_8,32,num_6,1.60005824617,,,2017_May_04_1609,60.0072944556,MAFE4ImagesEEG,001,100334,
AFNE01.JPG,AFNE01.JPG,AFNE01.JPG,AFNE01.JPG,AFNE01.JPG,AFNE01.JPG,,,,,,,,,,,,,1,5,15,3,,,,,,,,,,,AFSA04.jpg,AFNE03.jpg,AFSA16.jpg,AFNE05.jpg,AFSA04.jpg,FS,4,num_8,16,num_8,0.683318264084,,,2017_May_04_1609,60.0072944556,MAFE4ImagesEEG,001,100334,
AFNE01.JPG,AFNE01.JPG,AFNE01.JPG,AFNE01.JPG,AFNE01.JPG,AFNE01.JPG,,,,,,,,,,,,,1,6,16,8,,,,,,,,,,,AFSA03.jpg,AFNE20.jpg,AFNE05.jpg,AFSA12.jpg,AFNE05.jpg,FN,3,num_2,32,num_6,0.666765561095,,,2017_May_04_1609,60.0072944556,MAFE4ImagesEEG,001,100334,
AFNE01.JPG,AFNE01.JPG,AFNE01.JPG,AFNE01.JPG,AFNE01.JPG,AFNE01.JPG,,,,,,,,,,,,,1,7,17,0,,,,,,,,,,,AFSA04.jpg,AFNE13.jpg,AFSA17.jpg,AFNE04.jpg,AFNE13.jpg,FN,3,num_6,16,num_6,0.733516175998,,,2017_May_04_1609,60.0072944556,MAFE4ImagesEEG,001,100334,
AFNE01.JPG,AFNE01.JPG,AFNE01.JPG,AFNE01.JPG,AFNE01.JPG,AFNE01.JPG,,,,,,,,,,,,,1,8,18,5,,,,,,,,,,,AFSA08.jpg,AFNE17.jpg,AFNE04.jpg,AFSA18.jpg,AFNE17.jpg,FN,3,num_6,16,num_6,1.2667484337,,,2017_May_04_1609,60.0072944556,MAFE4ImagesEEG,001,100334,
AFNE01.JPG,AFNE01.JPG,AFNE01.JPG,AFNE01.JPG,AFNE01.JPG,AFNE01.JPG,,,,,,,,,,,,,1,9,19,1,,,,,,,,,,,AFSA12.jpg,AFSA15.jpg,AFNE10.jpg,AFNE12.jpg,AFSA15.jpg,FS,4,num_6,16,num_6,0.516792455222,,,2017_May_04_1609,60.0072944556,MAFE4ImagesEEG,001,100334,
AFNE01.JPG,AFNE01.JPG,AFNE01.JPG,AFNE01.JPG,AFNE01.JPG,AFNE01.JPG,,,,,,,,,,,,,2,0,20,9,,,,,,,,,,,AFNE14.jpg,AFNE08.jpg,AFSA06.jpg,AFSA12.jpg,AFSA12.jpg,FS,4,num_4,16,num_4,0.700117294211,,,2017_May_04_1609,60.0072944556,MAFE4ImagesEEG,001,100334,
AFNE01.JPG,AFNE01.JPG,AFNE01.JPG,AFNE01.JPG,AFNE01.JPG,AFNE01.JPG,,,,,,,,,,,,,2,1,21,1,,,,,,,,,,,AFNE05.jpg,AFNE20.jpg,AFSA04.jpg,AFSA07.jpg,AFSA07.jpg,FS,4,num_4,16,num_4,1.10032590292,,,2017_May_04_1609,60.0072944556,MAFE4ImagesEEG,001,100334,
AFNE01.JPG,AFNE01.JPG,AFNE01.JPG,AFNE01.JPG,AFNE01.JPG,AFNE01.JPG,,,,,,,,,,,,,2,2,22,7,,,,,,,,,,,AFSA10.jpg,AFNE07.jpg,AFNE05.jpg,AFSA04.jpg,AFNE07.jpg,FN,3,num_6,16,num_6,0.600179806352,,,2017_May_04_1609,60.0072944556,MAFE4ImagesEEG,001,100334,
AFNE01.JPG,AFNE01.JPG,AFNE01.JPG,AFNE01.JPG,AFNE01.JPG,AFNE01.JPG,,,,,,,,,,,,,2,3,23,3,,,,,,,,,,,AFNE13.jpg,AFSA07.jpg,AFSA18.jpg,AFNE05.jpg,AFNE13.jpg,FN,3,num_8,16,num_8,2.00000160374,,,2017_May_04_1609,60.0072944556,MAFE4ImagesEEG,001,100334,
AFNE01.JPG,AFNE01.JPG,AFNE01.JPG,AFNE01.JPG,AFNE01.JPG,AFNE01.JPG,,,,,,,,,,,,,2,4,24,5,,,,,,,,,,,AFNE01.jpg,AFNE09.jpg,AFSA15.jpg,AFSA20.jpg,AFSA15.jpg,FS,4,num_2,16,num_2,1.50007457193,,,2017_May_04_1609,60.0072944556,MAFE4ImagesEEG,001,100334,
AFNE01.JPG,AFNE01.JPG,AFNE01.JPG,AFNE01.JPG,AFNE01.JPG,AFNE01.JPG,,,,,,,,,,,,,2,5,25,2,,,,,,,,,,,AFNE10.jpg,AFNE14.jpg,AFSA11.jpg,AFSA07.jpg,AFNE10.jpg,FN,3,num_8,32,num_6,1.23340985109,,,2017_May_04_1609,60.0072944556,MAFE4ImagesEEG,001,100334,
AFNE01.JPG,AFNE01.JPG,AFNE01.JPG,AFNE01.JPG,AFNE01.JPG,AFNE01.JPG,,,,,,,,,,,,,2,6,26,6,,,,,,,,,,,AFSA20.jpg,AFNE06.jpg,AFNE02.jpg,AFSA15.jpg,AFNE02.jpg,FN,3,num_2,32,num_4,1.43336886051,,,2017_May_04_1609,60.0072944556,MAFE4ImagesEEG,001,100334,
AFNE01.JPG,AFNE01.JPG,AFNE01.JPG,AFNE01.JPG,AFNE01.JPG,AFNE01.JPG,,,,,,,,,,,,,2,7,27,4,,,,,,,,,,,AFNE12.jpg,AFSA07.jpg,AFNE03.jpg,AFSA19.jpg,AFSA19.jpg,FS,4,num_4,16,num_4,0.500100872479,,,2017_May_04_1609,60.0072944556,MAFE4ImagesEEG,001,100334,
AFNE01.JPG,AFNE01.JPG,AFNE01.JPG,AFNE01.JPG,AFNE01.JPG,AFNE01.JPG,,,,,,,,,,,,,2,8,28,0,,,,,,,,,,,AFSA14.jpg,AFSA12.jpg,AFNE17.jpg,AFNE11.jpg,AFSA14.jpg,FS,4,num_8,32,num_2,1.4667068019,,,2017_May_04_1609,60.0072944556,MAFE4ImagesEEG,001,100334,
AFNE01.JPG,AFNE01.JPG,AFNE01.JPG,AFNE01.JPG,AFNE01.JPG,AFNE01.JPG,,,,,,,,,,,,,2,9,29,8,,,,,,,,,,,AFSA12.jpg,AFSA17.jpg,AFNE07.jpg,AFNE05.jpg,AFSA12.jpg,FS,4,num_8,16,num_8,1.00009365589,,,2017_May_04_1609,60.0072944556,MAFE4ImagesEEG,001,100334,
AFNE01.JPG,AFNE01.JPG,AFNE01.JPG,AFNE01.JPG,AFNE01.JPG,AFNE01.JPG,,,,,,,,,,,,,3,0,30,6,,,,,,,,,,,AFSA01.jpg,AFNE08.jpg,AFSA19.jpg,AFNE03.jpg,AFNE03.jpg,FN,3,num_4,16,num_4,0.666785126319,,,2017_May_04_1609,60.0072944556,MAFE4ImagesEEG,001,100334,
AFNE01.JPG,AFNE01.JPG,AFNE01.JPG,AFNE01.JPG,AFNE01.JPG,AFNE01.JPG,,,,,,,,,,,,,3,1,31,8,,,,,,,,,,,AFNE17.jpg,AFSA05.jpg,AFNE14.jpg,AFSA09.jpg,AFNE17.jpg,FN,3,num_8,16,num_8,0.916749283671,,,2017_May_04_1609,60.0072944556,MAFE4ImagesEEG,001,100334,
AFNE01.JPG,AFNE01.JPG,AFNE01.JPG,AFNE01.JPG,AFNE01.JPG,AFNE01.JPG,,,,,,,,,,,,,3,2,32,3,,,,,,,,,,,AFSA03.jpg,AFNE01.jpg,AFSA17.jpg,AFNE04.jpg,AFSA03.jpg,FS,4,num_8,16,num_8,2.38331688475,,,2017_May_04_1609,60.0072944556,MAFE4ImagesEEG,001,100334,
AFNE01.JPG,AFNE01.JPG,AFNE01.JPG,AFNE01.JPG,AFNE01.JPG,AFNE01.JPG,,,,,,,,,,,,,3,3,33,0,,,,,,,,,,,AFNE06.jpg,AFNE09.jpg,AFSA15.jpg,AFSA19.jpg,AFSA15.jpg,FS,4,num_2,16,num_2,1.23344930192,,,2017_May_04_1609,60.0072944556,MAFE4ImagesEEG,001,100334,
AFNE01.JPG,AFNE01.JPG,AFNE01.JPG,AFNE01.JPG,AFNE01.JPG,AFNE01.JPG,,,,,,,,,,,,,3,4,34,5,,,,,,,,,,,AFSA02.jpg,AFNE13.jpg,AFNE05.jpg,AFSA15.jpg,AFNE05.jpg,FN,3,num_2,16,num_2,0.900238597766,,,2017_May_04_1609,60.0072944556,MAFE4ImagesEEG,001,100334,
AFNE01.JPG,AFNE01.JPG,AFNE01.JPG,AFNE01.JPG,AFNE01.JPG,AFNE01.JPG,,,,,,,,,,,,,3,5,35,9,,,,,,,,,,,AFSA07.jpg,AFNE07.jpg,AFSA05.jpg,AFNE19.jpg,AFSA07.jpg,FS,4,num_8,32,num_2,1.56672319164,,,2017_May_04_1609,60.0072944556,MAFE4ImagesEEG,001,100334,
AFNE01.JPG,AFNE01.JPG,AFNE01.JPG,AFNE01.JPG,AFNE01.JPG,AFNE01.JPG,,,,,,,,,,,,,3,6,36,4,,,,,,,,,,,AFSA01.jpg,AFNE02.jpg,AFNE12.jpg,AFSA16.jpg,AFNE02.jpg,FN,3,num_6,16,num_6,1.66671360144,,,2017_May_04_1609,60.0072944556,MAFE4ImagesEEG,001,100334,
AFNE01.JPG,AFNE01.JPG,AFNE01.JPG,AFNE01.JPG,AFNE01.JPG,AFNE01.JPG,,,,,,,,,,,,,3,7,37,2,,,,,,,,,,,AFNE02.jpg,AFSA03.jpg,AFNE10.jpg,AFSA14.jpg,AFNE10.jpg,FN,3,num_2,16,num_2,1.26669615344,,,2017_May_04_1609,60.0072944556,MAFE4ImagesEEG,001,100334,
AFNE01.JPG,AFNE01.JPG,AFNE01.JPG,AFNE01.JPG,AFNE01.JPG,AFNE01.JPG,,,,,,,,,,,,,3,8,38,1,,,,,,,,,,,AFNE17.jpg,AFSA09.jpg,AFSA19.jpg,AFNE01.jpg,AFNE01.jpg,FN,3,num_4,16,num_4,1.0667605577,,,2017_May_04_1609,60.0072944556,MAFE4ImagesEEG,001,100334,
AFNE01.JPG,AFNE01.JPG,AFNE01.JPG,AFNE01.JPG,AFNE01.JPG,AFNE01.JPG,,,,,,,,,,,,,3,9,39,7,,,,,,,,,,,AFSA08.jpg,AFNE18.jpg,AFNE11.jpg,AFSA09.jpg,AFNE11.jpg,FN,3,num_2,32,num_6,1.48309015436,,,2017_May_04_1609,60.0072944556,MAFE4ImagesEEG,001,100334,
AFNE01.JPG,AFNE01.JPG,AFNE01.JPG,AFNE01.JPG,AFNE01.JPG,AFNE01.JPG,,,,,,,,,,,,,4,0,40,6,,,,,,,,,,,AFSA10.jpg,AFNE11.jpg,AFNE20.jpg,AFSA03.jpg,AFSA10.jpg,FS,4,num_8,32,num_2,1.76672838768,,,2017_May_04_1609,60.0072944556,MAFE4ImagesEEG,001,100334,
AFNE01.JPG,AFNE01.JPG,AFNE01.JPG,AFNE01.JPG,AFNE01.JPG,AFNE01.JPG,,,,,,,,,,,,,4,1,41,1,,,,,,,,,,,AFSA11.jpg,AFNE13.jpg,AFSA02.jpg,AFNE18.jpg,AFSA11.jpg,FS,4,num_8,16,num_8,0.766750518698,,,2017_May_04_1609,60.0072944556,MAFE4ImagesEEG,001,100334,
AFNE01.JPG,AFNE01.JPG,AFNE01.JPG,AFNE01.JPG,AFNE01.JPG,AFNE01.JPG,,,,,,,,,,,,,4,2,42,8,,,,,,,,,,,AFNE04.jpg,AFSA06.jpg,AFSA20.jpg,AFNE06.jpg,AFNE06.jpg,FN,3,num_4,16,num_4,0.783579698298,,,2017_May_04_1609,60.0072944556,MAFE4ImagesEEG,001,100334,
AFNE01.JPG,AFNE01.JPG,AFNE01.JPG,AFNE01.JPG,AFNE01.JPG,AFNE01.JPG,,,,,,,,,,,,,4,3,43,0,,,,,,,,,,,AFNE20.jpg,AFSA18.jpg,AFNE18.jpg,AFSA09.jpg,AFSA09.jpg,FS,4,num_4,32,num_2,1.18337294995,,,2017_May_04_1609,60.0072944556,MAFE4ImagesEEG,001,100334,
AFNE01.JPG,AFNE01.JPG,AFNE01.JPG,AFNE01.JPG,AFNE01.JPG,AFNE01.JPG,,,,,,,,,,,,,4,4,44,9,,,,,,,,,,,AFSA16.jpg,AFNE17.jpg,AFNE15.jpg,AFSA13.jpg,AFSA13.jpg,FS,4,num_4,32,num_2,1.41669106949,,,2017_May_04_1609,60.0072944556,MAFE4ImagesEEG,001,100334,
AFNE01.JPG,AFNE01.JPG,AFNE01.JPG,AFNE01.JPG,AFNE01.JPG,AFNE01.JPG,,,,,,,,,,,,,4,5,45,2,,,,,,,,,,,AFNE08.jpg,AFNE03.jpg,AFSA05.jpg,AFSA20.jpg,AFNE08.jpg,FN,3,num_8,16,num_8,0.950178314932,,,2017_May_04_1609,60.0072944556,MAFE4ImagesEEG,001,100334,
AFNE01.JPG,AFNE01.JPG,AFNE01.JPG,AFNE01.JPG,AFNE01.JPG,AFNE01.JPG,,,,,,,,,,,,,4,6,46,7,,,,,,,,,,,AFNE10.jpg,AFNE02.jpg,AFSA11.jpg,AFSA20.jpg,AFNE10.jpg,FN,3,num_8,16,num_8,0.799984219717,,,2017_May_04_1609,60.0072944556,MAFE4ImagesEEG,001,100334,
AFNE01.JPG,AFNE01.JPG,AFNE01.JPG,AFNE01.JPG,AFNE01.JPG,AFNE01.JPG,,,,,,,,,,,,,4,7,47,3,,,,,,,,,,,AFNE17.jpg,AFNE12.jpg,AFSA13.jpg,AFSA16.jpg,AFSA13.jpg,FS,4,num_2,16,num_2,1.31671060249,,,2017_May_04_1609,60.0072944556,MAFE4ImagesEEG,001,100334,
AFNE01.JPG,AFNE01.JPG,AFNE01.JPG,AFNE01.JPG,AFNE01.JPG,AFNE01.JPG,,,,,,,,,,,,,4,8,48,4,,,,,,,,,,,AFSA12.jpg,AFSA17.jpg,AFNE04.jpg,AFNE16.jpg,AFNE16.jpg,FN,3,num_4,16,num_4,0.616764903767,,,2017_May_04_1609,60.0072944556,MAFE4ImagesEEG,001,100334,
AFNE01.JPG,AFNE01.JPG,AFNE01.JPG,AFNE01.JPG,AFNE01.JPG,AFNE01.JPG,,,,,,,,,,,,,4,9,49,5,,,,,,,,,,,AFNE09.jpg,AFNE06.jpg,AFSA05.jpg,AFSA04.jpg,AFNE06.jpg,FN,3,num_6,16,num_6,1.15011711791,,,2017_May_04_1609,60.0072944556,MAFE4ImagesEEG,001,100334,
AFNE01.JPG,AFNE01.JPG,AFNE01.JPG,AFNE01.JPG,AFNE01.JPG,AFNE01.JPG,,,,,,,,,,,,,5,0,50,7,,,,,,,,,,,AFNE17.jpg,AFSA08.jpg,AFNE04.jpg,AFSA06.jpg,AFNE04.jpg,FN,3,num_2,32,num_8,1.91666460852,,,2017_May_04_1609,60.0072944556,MAFE4ImagesEEG,001,100334,
AFNE01.JPG,AFNE01.JPG,AFNE01.JPG,AFNE01.JPG,AFNE01.JPG,AFNE01.JPG,,,,,,,,,,,,,5,1,51,9,,,,,,,,,,,AFNE04.jpg,AFSA07.jpg,AFSA11.jpg,AFNE08.jpg,AFNE04.jpg,FN,3,num_8,16,num_8,0.600160561968,,,2017_May_04_1609,60.0072944556,MAFE4ImagesEEG,001,100334,
AFNE01.JPG,AFNE01.JPG,AFNE01.JPG,AFNE01.JPG,AFNE01.JPG,AFNE01.JPG,,,,,,,,,,,,,5,2,52,5,,,,,,,,,,,AFNE19.jpg,AFNE10.jpg,AFSA15.jpg,AFSA10.jpg,AFNE10.jpg,FN,3,num_6,32,num_2,1.31705475575,,,2017_May_04_1609,60.0072944556,MAFE4ImagesEEG,001,100334,
AFNE01.JPG,AFNE01.JPG,AFNE01.JPG,AFNE01.JPG,AFNE01.JPG,AFNE01.JPG,,,,,,,,,,,,,5,3,53,0,,,,,,,,,,,AFSA02.jpg,AFNE17.jpg,AFSA13.jpg,AFNE20.jpg,AFNE17.jpg,FN,3,num_6,16,num_6,0.716781293508,,,2017_May_04_1609,60.0072944556,MAFE4ImagesEEG,001,100334,
AFNE01.JPG,AFNE01.JPG,AFNE01.JPG,AFNE01.JPG,AFNE01.JPG,AFNE01.JPG,,,,,,,,,,,,,5,4,54,1,,,,,,,,,,,AFNE01.jpg,AFSA14.jpg,AFNE08.jpg,AFSA08.jpg,AFSA08.jpg,FS,4,num_4,16,num_4,0.61681525968,,,2017_May_04_1609,60.0072944556,MAFE4ImagesEEG,001,100334,
AFNE01.JPG,AFNE01.JPG,AFNE01.JPG,AFNE01.JPG,AFNE01.JPG,AFNE01.JPG,,,,,,,,,,,,,5,5,55,3,,,,,,,,,,,AFSA11.jpg,AFSA15.jpg,AFNE14.jpg,AFNE06.jpg,AFSA11.jpg,FS,4,num_8,32,num_4,0.700172461336,,,2017_May_04_1609,60.0072944556,MAFE4ImagesEEG,001,100334,
AFNE01.JPG,AFNE01.JPG,AFNE01.JPG,AFNE01.JPG,AFNE01.JPG,AFNE01.JPG,,,,,,,,,,,,,5,6,56,2,,,,,,,,,,,AFNE05.jpg,AFSA20.jpg,AFNE01.jpg,AFSA08.jpg,AFSA20.jpg,FS,4,num_6,32,num_2,1.41670229542,,,2017_May_04_1609,60.0072944556,MAFE4ImagesEEG,001,100334,
AFNE01.JPG,AFNE01.JPG,AFNE01.JPG,AFNE01.JPG,AFNE01.JPG,AFNE01.JPG,,,,,,,,,,,,,5,7,57,8,,,,,,,,,,,AFSA13.jpg,AFNE17.jpg,AFNE13.jpg,AFSA15.jpg,AFNE17.jpg,FN,3,num_6,16,num_6,0.716712655267,,,2017_May_04_1609,60.0072944556,MAFE4ImagesEEG,001,100334,
AFNE01.JPG,AFNE01.JPG,AFNE01.JPG,AFNE01.JPG,AFNE01.JPG,AFNE01.JPG,,,,,,,,,,,,,5,8,58,6,,,,,,,,,,,AFNE04.jpg,AFSA11.jpg,AFNE01.jpg,AFSA01.jpg,AFNE01.jpg,FN,3,num_2,16,num_2,1.15012545697,,,2017_May_04_1609,60.0072944556,MAFE4ImagesEEG,001,100334,
AFNE01.JPG,AFNE01.JPG,AFNE01.JPG,AFNE01.JPG,AFNE01.JPG,AFNE01.JPG,,,,,,,,,,,,,5,9,59,4,,,,,,,,,,,AFNE18.jpg,AFNE20.jpg,AFSA14.jpg,AFSA10.jpg,AFNE18.jpg,FN,3,num_8,16,num_8,0.716748578008,,,2017_May_04_1609,60.0072944556,MAFE4ImagesEEG,001,100334,
,,,,,,,,,,,,,,,,,,,,,,,,,,,,,,,,,,,,,,,,,,,space,44.3966025391,2017_May_04_1609,60.0072944556,MAFE4ImagesEEG,001,100334,
AFNE01.JPG,AFNE01.JPG,AFNE01.JPG,AFNE01.JPG,AFNE01.JPG,AFNE01.JPG,,,,,,,,,,,,,,,,,0,0,0,3,,,,,,,AMSA08.jpg,AMNE07.jpg,AMSA12.jpg,AMNE03.jpg,AMSA08.jpg,MS,2,num_8,32,num_2,2.15001095319,,,2017_May_04_1609,60.0072944556,MAFE4ImagesEEG,001,100334,
AFNE01.JPG,AFNE01.JPG,AFNE01.JPG,AFNE01.JPG,AFNE01.JPG,AFNE01.JPG,,,,,,,,,,,,,,,,,0,1,1,4,,,,,,,AMSA20.jpg,AMSA03.jpg,AMNE12.jpg,AMNE05.jpg,AMNE05.jpg,MN,1,num_4,16,num_4,0.683451370802,,,2017_May_04_1609,60.0072944556,MAFE4ImagesEEG,001,100334,
AFNE01.JPG,AFNE01.JPG,AFNE01.JPG,AFNE01.JPG,AFNE01.JPG,AFNE01.JPG,,,,,,,,,,,,,,,,,0,2,2,7,,,,,,,AMSA18.jpg,AMNE05.jpg,AMNE20.jpg,AMSA06.jpg,AMSA06.jpg,MS,2,num_4,32,num_8,1.24977716641,,,2017_May_04_1609,60.0072944556,MAFE4ImagesEEG,001,100334,
AFNE01.JPG,AFNE01.JPG,AFNE01.JPG,AFNE01.JPG,AFNE01.JPG,AFNE01.JPG,,,,,,,,,,,,,,,,,0,3,3,5,,,,,,,AMNE07.jpg,AMSA09.jpg,AMSA01.jpg,AMNE05.jpg,AMNE07.jpg,MN,1,num_8,32,num_6,1.31672984711,,,2017_May_04_1609,60.0072944556,MAFE4ImagesEEG,001,100334,
AFNE01.JPG,AFNE01.JPG,AFNE01.JPG,AFNE01.JPG,AFNE01.JPG,AFNE01.JPG,,,,,,,,,,,,,,,,,0,4,4,0,,,,,,,AMSA14.jpg,AMNE12.jpg,AMSA10.jpg,AMNE14.jpg,AMSA10.jpg,MS,2,num_2,32,num_6,0.766818515258,,,2017_May_04_1609,60.0072944556,MAFE4ImagesEEG,001,100334,
AFNE01.JPG,AFNE01.JPG,AFNE01.JPG,AFNE01.JPG,AFNE01.JPG,AFNE01.JPG,,,,,,,,,,,,,,,,,0,5,5,9,,,,,,,AMSA10.jpg,AMNE11.jpg,AMNE08.jpg,AMSA07.jpg,AMSA10.jpg,MS,2,num_8,32,num_4,0.583307326771,,,2017_May_04_1609,60.0072944556,MAFE4ImagesEEG,001,100334,
AFNE01.JPG,AFNE01.JPG,AFNE01.JPG,AFNE01.JPG,AFNE01.JPG,AFNE01.JPG,,,,,,,,,,,,,,,,,0,6,6,8,,,,,,,AMSA08.jpg,AMSA04.jpg,AMNE01.jpg,AMNE05.jpg,AMSA04.jpg,MS,2,num_6,32,num_2,0.86678102077,,,2017_May_04_1609,60.0072944556,MAFE4ImagesEEG,001,100334,
AFNE01.JPG,AFNE01.JPG,AFNE01.JPG,AFNE01.JPG,AFNE01.JPG,AFNE01.JPG,,,,,,,,,,,,,,,,,0,7,7,1,,,,,,,AMNE20.jpg,AMSA04.jpg,AMNE05.jpg,AMSA20.jpg,AMNE20.jpg,MN,1,num_8,32,num_4,1.03344923793,,,2017_May_04_1609,60.0072944556,MAFE4ImagesEEG,001,100334,
AFNE01.JPG,AFNE01.JPG,AFNE01.JPG,AFNE01.JPG,AFNE01.JPG,AFNE01.JPG,,,,,,,,,,,,,,,,,0,8,8,6,,,,,,,AMSA02.jpg,AMNE08.jpg,AMNE04.jpg,AMSA03.jpg,AMSA03.jpg,MS,2,num_4,16,num_4,1.60005792556,,,2017_May_04_1609,60.0072944556,MAFE4ImagesEEG,001,100334,
AFNE01.JPG,AFNE01.JPG,AFNE01.JPG,AFNE01.JPG,AFNE01.JPG,AFNE01.JPG,,,,,,,,,,,,,,,,,0,9,9,2,,,,,,,AMNE16.jpg,AMSA09.jpg,AMSA18.jpg,AMNE18.jpg,AMNE18.jpg,MN,1,num_4,16,num_4,1.08343770704,,,2017_May_04_1609,60.0072944556,MAFE4ImagesEEG,001,100334,
AFNE01.JPG,AFNE01.JPG,AFNE01.JPG,AFNE01.JPG,AFNE01.JPG,AFNE01.JPG,,,,,,,,,,,,,,,,,1,0,10,4,,,,,,,AMNE01.jpg,AMSA06.jpg,AMSA07.jpg,AMNE05.jpg,AMSA07.jpg,MS,2,num_2,16,num_2,3.28328285436,,,2017_May_04_1609,60.0072944556,MAFE4ImagesEEG,001,100334,
AFNE01.JPG,AFNE01.JPG,AFNE01.JPG,AFNE01.JPG,AFNE01.JPG,AFNE01.JPG,,,,,,,,,,,,,,,,,1,1,11,3,,,,,,,AMSA12.jpg,AMSA13.jpg,AMNE17.jpg,AMNE11.jpg,AMSA13.jpg,MS,2,num_6,16,num_6,1.05009944504,,,2017_May_04_1609,60.0072944556,MAFE4ImagesEEG,001,100334,
AFNE01.JPG,AFNE01.JPG,AFNE01.JPG,AFNE01.JPG,AFNE01.JPG,AFNE01.JPG,,,,,,,,,,,,,,,,,1,2,12,5,,,,,,,AMNE05.jpg,AMNE17.jpg,AMSA02.jpg,AMSA08.jpg,AMSA02.jpg,MS,2,num_2,16,num_2,1.58345903642,,,2017_May_04_1609,60.0072944556,MAFE4ImagesEEG,001,100334,
AFNE01.JPG,AFNE01.JPG,AFNE01.JPG,AFNE01.JPG,AFNE01.JPG,AFNE01.JPG,,,,,,,,,,,,,,,,,1,3,13,8,,,,,,,AMSA15.jpg,AMNE03.jpg,AMNE04.jpg,AMSA18.jpg,AMSA18.jpg,MS,2,num_4,16,num_4,0.533452605596,,,2017_May_04_1609,60.0072944556,MAFE4ImagesEEG,001,100334,
AFNE01.JPG,AFNE01.JPG,AFNE01.JPG,AFNE01.JPG,AFNE01.JPG,AFNE01.JPG,,,,,,,,,,,,,,,,,1,4,14,7,,,,,,,AMNE03.jpg,AMSA10.jpg,AMNE15.jpg,AMSA03.jpg,AMNE03.jpg,MN,1,num_8,16,num_8,1.41675842484,,,2017_May_04_1609,60.0072944556,MAFE4ImagesEEG,001,100334,
AFNE01.JPG,AFNE01.JPG,AFNE01.JPG,AFNE01.JPG,AFNE01.JPG,AFNE01.JPG,,,,,,,,,,,,,,,,,1,5,15,9,,,,,,,AMNE08.jpg,AMSA01.jpg,AMNE18.jpg,AMSA05.jpg,AMSA05.jpg,MS,2,num_4,16,num_4,0.566823262023,,,2017_May_04_1609,60.0072944556,MAFE4ImagesEEG,001,100334,
AFNE01.JPG,AFNE01.JPG,AFNE01.JPG,AFNE01.JPG,AFNE01.JPG,AFNE01.JPG,,,,,,,,,,,,,,,,,1,6,16,2,,,,,,,AMNE02.jpg,AMSA08.jpg,AMNE15.jpg,AMSA04.jpg,AMSA04.jpg,MS,2,num_4,16,num_4,0.73345619766,,,2017_May_04_1609,60.0072944556,MAFE4ImagesEEG,001,100334,
AFNE01.JPG,AFNE01.JPG,AFNE01.JPG,AFNE01.JPG,AFNE01.JPG,AFNE01.JPG,,,,,,,,,,,,,,,,,1,7,17,1,,,,,,,AMNE13.jpg,AMNE09.jpg,AMSA14.jpg,AMSA18.jpg,AMNE09.jpg,MN,1,num_6,16,num_6,1.18339283578,,,2017_May_04_1609,60.0072944556,MAFE4ImagesEEG,001,100334,
AFNE01.JPG,AFNE01.JPG,AFNE01.JPG,AFNE01.JPG,AFNE01.JPG,AFNE01.JPG,,,,,,,,,,,,,,,,,1,8,18,0,,,,,,,AMSA10.jpg,AMSA03.jpg,AMNE14.jpg,AMNE02.jpg,AMSA10.jpg,MS,2,num_8,16,num_8,0.716760445386,,,2017_May_04_1609,60.0072944556,MAFE4ImagesEEG,001,100334,
AFNE01.JPG,AFNE01.JPG,AFNE01.JPG,AFNE01.JPG,AFNE01.JPG,AFNE01.JPG,,,,,,,,,,,,,,,,,1,9,19,6,,,,,,,AMNE20.jpg,AMNE04.jpg,AMSA10.jpg,AMSA18.jpg,AMNE04.jpg,MN,1,num_6,16,num_6,1.21682186704,,,2017_May_04_1609,60.0072944556,MAFE4ImagesEEG,001,100334,
AFNE01.JPG,AFNE01.JPG,AFNE01.JPG,AFNE01.JPG,AFNE01.JPG,AFNE01.JPG,,,,,,,,,,,,,,,,,2,0,20,4,,,,,,,AMNE17.jpg,AMSA06.jpg,AMSA17.jpg,AMNE05.jpg,AMNE17.jpg,MN,1,num_8,32,num_6,1.06662167772,,,2017_May_04_1609,60.0072944556,MAFE4ImagesEEG,001,100334,
AFNE01.JPG,AFNE01.JPG,AFNE01.JPG,AFNE01.JPG,AFNE01.JPG,AFNE01.JPG,,,,,,,,,,,,,,,,,2,1,21,7,,,,,,,AMSA09.jpg,AMNE06.jpg,AMSA18.jpg,AMNE01.jpg,AMSA18.jpg,MS,2,num_2,16,num_2,1.40006876644,,,2017_May_04_1609,60.0072944556,MAFE4ImagesEEG,001,100334,
AFNE01.JPG,AFNE01.JPG,AFNE01.JPG,AFNE01.JPG,AFNE01.JPG,AFNE01.JPG,,,,,,,,,,,,,,,,,2,2,22,9,,,,,,,AMSA11.jpg,AMSA13.jpg,AMNE08.jpg,AMNE12.jpg,AMNE12.jpg,MN,1,num_4,16,num_4,0.733495648718,,,2017_May_04_1609,60.0072944556,MAFE4ImagesEEG,001,100334,
AFNE01.JPG,AFNE01.JPG,AFNE01.JPG,AFNE01.JPG,AFNE01.JPG,AFNE01.JPG,,,,,,,,,,,,,,,,,2,3,23,6,,,,,,,AMNE14.jpg,AMSA20.jpg,AMSA03.jpg,AMNE06.jpg,AMSA03.jpg,MS,2,num_2,16,num_2,0.866420830833,,,2017_May_04_1609,60.0072944556,MAFE4ImagesEEG,001,100334,
AFNE01.JPG,AFNE01.JPG,AFNE01.JPG,AFNE01.JPG,AFNE01.JPG,AFNE01.JPG,,,,,,,,,,,,,,,,,2,4,24,8,,,,,,,AMSA13.jpg,AMSA03.jpg,AMNE17.jpg,AMNE13.jpg,AMNE13.jpg,MN,1,num_4,16,num_4,0.700181121239,,,2017_May_04_1609,60.0072944556,MAFE4ImagesEEG,001,100334,
AFNE01.JPG,AFNE01.JPG,AFNE01.JPG,AFNE01.JPG,AFNE01.JPG,AFNE01.JPG,,,,,,,,,,,,,,,,,2,5,25,1,,,,,,,AMNE17.jpg,AMSA09.jpg,AMSA06.jpg,AMNE09.jpg,AMNE17.jpg,MN,1,num_8,32,num_2,1.63338752743,,,2017_May_04_1609,60.0072944556,MAFE4ImagesEEG,001,100334,
AFNE01.JPG,AFNE01.JPG,AFNE01.JPG,AFNE01.JPG,AFNE01.JPG,AFNE01.JPG,,,,,,,,,,,,,,,,,2,6,26,0,,,,,,,AMSA03.jpg,AMNE15.jpg,AMSA16.jpg,AMNE13.jpg,AMNE15.jpg,MN,1,num_6,16,num_6,1.05016680039,,,2017_May_04_1609,60.0072944556,MAFE4ImagesEEG,001,100334,
AFNE01.JPG,AFNE01.JPG,AFNE01.JPG,AFNE01.JPG,AFNE01.JPG,AFNE01.JPG,,,,,,,,,,,,,,,,,2,7,27,5,,,,,,,AMNE01.jpg,AMSA18.jpg,AMNE10.jpg,AMSA17.jpg,AMNE10.jpg,MN,1,num_2,32,num_6,0.800127910683,,,2017_May_04_1609,60.0072944556,MAFE4ImagesEEG,001,100334,
AFNE01.JPG,AFNE01.JPG,AFNE01.JPG,AFNE01.JPG,AFNE01.JPG,AFNE01.JPG,,,,,,,,,,,,,,,,,2,8,28,2,,,,,,,AMNE16.jpg,AMSA05.jpg,AMSA01.jpg,AMNE03.jpg,AMSA01.jpg,MS,2,num_2,16,num_2,1.6500204152,,,2017_May_04_1609,60.0072944556,MAFE4ImagesEEG,001,100334,
AFNE01.JPG,AFNE01.JPG,AFNE01.JPG,AFNE01.JPG,AFNE01.JPG,AFNE01.JPG,,,,,,,,,,,,,,,,,2,9,29,3,,,,,,,AMSA20.jpg,AMNE04.jpg,AMNE02.jpg,AMSA12.jpg,AMSA12.jpg,MS,2,num_4,16,num_4,0.833289766451,,,2017_May_04_1609,60.0072944556,MAFE4ImagesEEG,001,100334,
AFNE01.JPG,AFNE01.JPG,AFNE01.JPG,AFNE01.JPG,AFNE01.JPG,AFNE01.JPG,,,,,,,,,,,,,,,,,3,0,30,5,,,,,,,AMNE17.jpg,AMSA01.jpg,AMNE08.jpg,AMSA09.jpg,AMSA09.jpg,MS,2,num_4,16,num_4,0.583510033786,,,2017_May_04_1609,60.0072944556,MAFE4ImagesEEG,001,100334,
AFNE01.JPG,AFNE01.JPG,AFNE01.JPG,AFNE01.JPG,AFNE01.JPG,AFNE01.JPG,,,,,,,,,,,,,,,,,3,1,31,9,,,,,,,AMSA17.jpg,AMNE19.jpg,AMNE20.jpg,AMSA02.jpg,AMSA17.jpg,MS,2,num_8,32,num_6,1.00009076926,,,2017_May_04_1609,60.0072944556,MAFE4ImagesEEG,001,100334,
AFNE01.JPG,AFNE01.JPG,AFNE01.JPG,AFNE01.JPG,AFNE01.JPG,AFNE01.JPG,,,,,,,,,,,,,,,,,3,2,32,4,,,,,,,AMSA17.jpg,AMNE18.jpg,AMSA09.jpg,AMNE13.jpg,AMNE18.jpg,MN,1,num_6,16,num_6,0.616776129464,,,2017_May_04_1609,60.0072944556,MAFE4ImagesEEG,001,100334,
AFNE01.JPG,AFNE01.JPG,AFNE01.JPG,AFNE01.JPG,AFNE01.JPG,AFNE01.JPG,,,,,,,,,,,,,,,,,3,3,33,7,,,,,,,AMNE19.jpg,AMSA06.jpg,AMSA04.jpg,AMNE12.jpg,AMSA06.jpg,MS,2,num_6,16,num_6,1.36668592156,,,2017_May_04_1609,60.0072944556,MAFE4ImagesEEG,001,100334,
AFNE01.JPG,AFNE01.JPG,AFNE01.JPG,AFNE01.JPG,AFNE01.JPG,AFNE01.JPG,,,,,,,,,,,,,,,,,3,4,34,8,,,,,,,AMSA12.jpg,AMSA03.jpg,AMNE02.jpg,AMNE01.jpg,AMNE01.jpg,MN,1,num_4,16,num_4,0.666740543675,,,2017_May_04_1609,60.0072944556,MAFE4ImagesEEG,001,100334,
AFNE01.JPG,AFNE01.JPG,AFNE01.JPG,AFNE01.JPG,AFNE01.JPG,AFNE01.JPG,,,,,,,,,,,,,,,,,3,5,35,2,,,,,,,AMNE01.jpg,AMSA04.jpg,AMNE12.jpg,AMSA15.jpg,AMNE12.jpg,MN,1,num_2,16,num_2,1.55005181557,,,2017_May_04_1609,60.0072944556,MAFE4ImagesEEG,001,100334,
AFNE01.JPG,AFNE01.JPG,AFNE01.JPG,AFNE01.JPG,AFNE01.JPG,AFNE01.JPG,,,,,,,,,,,,,,,,,3,6,36,1,,,,,,,AMSA10.jpg,AMSA08.jpg,AMNE16.jpg,AMNE17.jpg,AMNE16.jpg,MN,1,num_2,32,num_4,0.633247043705,,,2017_May_04_1609,60.0072944556,MAFE4ImagesEEG,001,100334,
AFNE01.JPG,AFNE01.JPG,AFNE01.JPG,AFNE01.JPG,AFNE01.JPG,AFNE01.JPG,,,,,,,,,,,,,,,,,3,7,37,6,,,,,,,AMSA07.jpg,AMNE02.jpg,AMSA14.jpg,AMNE18.jpg,AMNE18.jpg,MN,1,num_4,16,num_4,1.30034168344,,,2017_May_04_1609,60.0072944556,MAFE4ImagesEEG,001,100334,
AFNE01.JPG,AFNE01.JPG,AFNE01.JPG,AFNE01.JPG,AFNE01.JPG,AFNE01.JPG,,,,,,,,,,,,,,,,,3,8,38,3,,,,,,,AMNE18.jpg,AMNE11.jpg,AMSA08.jpg,AMSA10.jpg,AMNE11.jpg,MN,1,num_6,32,num_2,1.76654877374,,,2017_May_04_1609,60.0072944556,MAFE4ImagesEEG,001,100334,
AFNE01.JPG,AFNE01.JPG,AFNE01.JPG,AFNE01.JPG,AFNE01.JPG,AFNE01.JPG,,,,,,,,,,,,,,,,,3,9,39,0,,,,,,,AMNE04.jpg,AMSA03.jpg,AMSA10.jpg,AMNE20.jpg,AMSA03.jpg,MS,2,num_6,16,num_6,1.73338916339,,,2017_May_04_1609,60.0072944556,MAFE4ImagesEEG,001,100334,
AFNE01.JPG,AFNE01.JPG,AFNE01.JPG,AFNE01.JPG,AFNE01.JPG,AFNE01.JPG,,,,,,,,,,,,,,,,,4,0,40,5,,,,,,,AMNE05.jpg,AMNE15.jpg,AMSA19.jpg,AMSA15.jpg,AMSA15.jpg,MS,2,num_4,16,num_4,0.800132080447,,,2017_May_04_1609,60.0072944556,MAFE4ImagesEEG,001,100334,
AFNE01.JPG,AFNE01.JPG,AFNE01.JPG,AFNE01.JPG,AFNE01.JPG,AFNE01.JPG,,,,,,,,,,,,,,,,,4,1,41,9,,,,,,,AMSA11.jpg,AMNE08.jpg,AMSA15.jpg,AMNE20.jpg,AMNE20.jpg,MN,1,num_4,32,num_6,1.10005487851,,,2017_May_04_1609,60.0072944556,MAFE4ImagesEEG,001,100334,
AFNE01.JPG,AFNE01.JPG,AFNE01.JPG,AFNE01.JPG,AFNE01.JPG,AFNE01.JPG,,,,,,,,,,,,,,,,,4,2,42,6,,,,,,,AMSA15.jpg,AMNE08.jpg,AMSA14.jpg,AMNE09.jpg,AMSA15.jpg,MS,2,num_8,16,num_8,0.71679989621,,,2017_May_04_1609,60.0072944556,MAFE4ImagesEEG,001,100334,
AFNE01.JPG,AFNE01.JPG,AFNE01.JPG,AFNE01.JPG,AFNE01.JPG,AFNE01.JPG,,,,,,,,,,,,,,,,,4,3,43,3,,,,,,,AMNE20.jpg,AMNE07.jpg,AMSA02.jpg,AMSA10.jpg,AMSA02.jpg,MS,2,num_2,32,num_6,2.94998651301,,,2017_May_04_1609,60.0072944556,MAFE4ImagesEEG,001,100334,
AFNE01.JPG,AFNE01.JPG,AFNE01.JPG,AFNE01.JPG,AFNE01.JPG,AFNE01.JPG,,,,,,,,,,,,,,,,,4,4,44,2,,,,,,,AMNE08.jpg,AMNE09.jpg,AMSA13.jpg,AMSA20.jpg,AMSA13.jpg,MS,2,num_2,16,num_2,1.48338042316,,,2017_May_04_1609,60.0072944556,MAFE4ImagesEEG,001,100334,
AFNE01.JPG,AFNE01.JPG,AFNE01.JPG,AFNE01.JPG,AFNE01.JPG,AFNE01.JPG,,,,,,,,,,,,,,,,,4,5,45,4,,,,,,,AMSA03.jpg,AMNE01.jpg,AMNE07.jpg,AMSA05.jpg,AMSA05.jpg,MS,2,num_4,16,num_4,0.633499465417,,,2017_May_04_1609,60.0072944556,MAFE4ImagesEEG,001,100334,
AFNE01.JPG,AFNE01.JPG,AFNE01.JPG,AFNE01.JPG,AFNE01.JPG,AFNE01.JPG,,,,,,,,,,,,,,,,,4,6,46,7,,,,,,,AMSA12.jpg,AMNE18.jpg,AMNE01.jpg,AMSA10.jpg,AMNE01.jpg,MN,1,num_2,16,num_2,0.833444041666,,,2017_May_04_1609,60.0072944556,MAFE4ImagesEEG,001,100334,
AFNE01.JPG,AFNE01.JPG,AFNE01.JPG,AFNE01.JPG,AFNE01.JPG,AFNE01.JPG,,,,,,,,,,,,,,,,,4,7,47,1,,,,,,,AMNE12.jpg,AMSA05.jpg,AMSA12.jpg,AMNE08.jpg,AMSA12.jpg,MS,2,num_2,32,num_6,0.833460720256,,,2017_May_04_1609,60.0072944556,MAFE4ImagesEEG,001,100334,
AFNE01.JPG,AFNE01.JPG,AFNE01.JPG,AFNE01.JPG,AFNE01.JPG,AFNE01.JPG,,,,,,,,,,,,,,,,,4,8,48,8,,,,,,,AMNE12.jpg,AMNE10.jpg,AMSA12.jpg,AMSA06.jpg,AMSA12.jpg,MS,2,num_2,16,num_2,0.750422653975,,,2017_May_04_1609,60.0072944556,MAFE4ImagesEEG,001,100334,
AFNE01.JPG,AFNE01.JPG,AFNE01.JPG,AFNE01.JPG,AFNE01.JPG,AFNE01.JPG,,,,,,,,,,,,,,,,,4,9,49,0,,,,,,,AMNE15.jpg,AMSA14.jpg,AMSA09.jpg,AMNE14.jpg,AMNE14.jpg,MN,1,num_4,16,num_4,0.483482418116,,,2017_May_04_1609,60.0072944556,MAFE4ImagesEEG,001,100334,
AFNE01.JPG,AFNE01.JPG,AFNE01.JPG,AFNE01.JPG,AFNE01.JPG,AFNE01.JPG,,,,,,,,,,,,,,,,,5,0,50,0,,,,,,,AMNE18.jpg,AMSA10.jpg,AMNE08.jpg,AMSA02.jpg,AMSA10.jpg,MS,2,num_6,16,num_6,1.21672628657,,,2017_May_04_1609,60.0072944556,MAFE4ImagesEEG,001,100334,
AFNE01.JPG,AFNE01.JPG,AFNE01.JPG,AFNE01.JPG,AFNE01.JPG,AFNE01.JPG,,,,,,,,,,,,,,,,,5,1,51,8,,,,,,,AMSA14.jpg,AMSA01.jpg,AMNE12.jpg,AMNE03.jpg,AMNE12.jpg,MN,1,num_2,32,num_4,0.916765641421,,,2017_May_04_1609,60.0072944556,MAFE4ImagesEEG,001,100334,
AFNE01.JPG,AFNE01.JPG,AFNE01.JPG,AFNE01.JPG,AFNE01.JPG,AFNE01.JPG,,,,,,,,,,,,,,,,,5,2,52,3,,,,,,,AMSA06.jpg,AMNE10.jpg,AMSA20.jpg,AMNE13.jpg,AMNE13.jpg,MN,1,num_4,32,num_6,1.38341438933,,,2017_May_04_1609,60.0072944556,MAFE4ImagesEEG,001,100334,
AFNE01.JPG,AFNE01.JPG,AFNE01.JPG,AFNE01.JPG,AFNE01.JPG,AFNE01.JPG,,,,,,,,,,,,,,,,,5,3,53,4,,,,,,,AMNE04.jpg,AMSA19.jpg,AMNE01.jpg,AMSA06.jpg,AMNE01.jpg,MN,1,num_2,16,num_2,0.866784228245,,,2017_May_04_1609,60.0072944556,MAFE4ImagesEEG,001,100334,
AFNE01.JPG,AFNE01.JPG,AFNE01.JPG,AFNE01.JPG,AFNE01.JPG,AFNE01.JPG,,,,,,,,,,,,,,,,,5,4,54,5,,,,,,,AMNE17.jpg,AMSA04.jpg,AMSA11.jpg,AMNE20.jpg,AMNE20.jpg,MN,1,num_4,16,num_4,1.05012221751,,,2017_May_04_1609,60.0072944556,MAFE4ImagesEEG,001,100334,
AFNE01.JPG,AFNE01.JPG,AFNE01.JPG,AFNE01.JPG,AFNE01.JPG,AFNE01.JPG,,,,,,,,,,,,,,,,,5,5,55,1,,,,,,,AMNE02.jpg,AMNE18.jpg,AMSA06.jpg,AMSA10.jpg,AMSA10.jpg,MS,2,num_4,32,num_6,1.38339418289,,,2017_May_04_1609,60.0072944556,MAFE4ImagesEEG,001,100334,
AFNE01.JPG,AFNE01.JPG,AFNE01.JPG,AFNE01.JPG,AFNE01.JPG,AFNE01.JPG,,,,,,,,,,,,,,,,,5,6,56,7,,,,,,,AMNE20.jpg,AMNE16.jpg,AMSA12.jpg,AMSA19.jpg,AMSA12.jpg,MS,2,num_2,32,num_6,0.800071460661,,,2017_May_04_1609,60.0072944556,MAFE4ImagesEEG,001,100334,
AFNE01.JPG,AFNE01.JPG,AFNE01.JPG,AFNE01.JPG,AFNE01.JPG,AFNE01.JPG,,,,,,,,,,,,,,,,,5,7,57,2,,,,,,,AMNE09.jpg,AMNE04.jpg,AMSA08.jpg,AMSA02.jpg,AMNE04.jpg,MN,1,num_6,16,num_6,0.750084594823,,,2017_May_04_1609,60.0072944556,MAFE4ImagesEEG,001,100334,
AFNE01.JPG,AFNE01.JPG,AFNE01.JPG,AFNE01.JPG,AFNE01.JPG,AFNE01.JPG,,,,,,,,,,,,,,,,,5,8,58,9,,,,,,,AMNE17.jpg,AMSA19.jpg,AMSA01.jpg,AMNE19.jpg,AMSA19.jpg,MS,2,num_6,16,num_6,0.866780700162,,,2017_May_04_1609,60.0072944556,MAFE4ImagesEEG,001,100334,
AFNE01.JPG,AFNE01.JPG,AFNE01.JPG,AFNE01.JPG,AFNE01.JPG,AFNE01.JPG,,,,,,,,,,,,,,,,,5,9,59,6,,,,,,,AMSA02.jpg,AMNE05.jpg,AMSA17.jpg,AMNE07.jpg,AMSA17.jpg,MS,2,num_2,32,num_6,1.33338711062,,,2017_May_04_1609,60.0072944556,MAFE4ImagesEEG,001,100334,
