IPosition2,IPosition3,IPosition1,IPosition6,IPosition4,IPosition5,TrialsF1.thisRepN,TrialsF1.thisTrialN,TrialsF1.thisN,TrialsF1.thisIndex,TrialsM1.thisRepN,TrialsM1.thisTrialN,TrialsM1.thisN,TrialsM1.thisIndex,TrialsF2.thisRepN,TrialsF2.thisTrialN,TrialsF2.thisN,TrialsF2.thisIndex,TrialsM2.thisRepN,TrialsM2.thisTrialN,TrialsM2.thisN,TrialsM2.thisIndex,TrialsF3.thisRepN,TrialsF3.thisTrialN,TrialsF3.thisN,TrialsF3.thisIndex,TrialsM3.thisRepN,TrialsM3.thisTrialN,TrialsM3.thisN,TrialsM3.thisIndex,InstrKey_resp.keys,InstrKey_resp.rt,Image0 _Position,Image1 _Position,Image2 _Position,Image3 _Position,Center_image,condition,code,correct_answer,accuracy,Key_Resp.keys,Key_Resp.rt,BreakKey_resp.keys,BreakKey_resp.rt,date,frameRate,expName,session,participant,
,,,,,,,,,,,,,,,,,,,,,,,,,,,,,,space,20.7823452567,,,,,,,,,,,,,,2017_May_24_1050,60.0062165936,FEMA4ImagesEEG,001,100364,
AMNE23.JPG,AMNE24.JPG,AMNE22.JPG,AMSA24.JPG,AMSA22.JPG,AMSA23.JPG,0,0,0,9,,,,,,,,,,,,,,,,,,,,,,,AFNE08.jpg,AFNE01.jpg,AFSA01.jpg,AFSA12.jpg,AFNE01.jpg,FN,3,num_6,16,num_6,2.24998468463,,,2017_May_24_1050,60.0062165936,FEMA4ImagesEEG,001,100364,
AFSA25.JPG,AFNE24.JPG,AFSA24.JPG,AFNE21.JPG,AFSA21.JPG,AFNE25.JPG,0,1,1,2,,,,,,,,,,,,,,,,,,,,,,,AFSA02.jpg,AFSA01.jpg,AFNE14.jpg,AFNE06.jpg,AFSA02.jpg,FS,4,num_8,32,num_2,1.15010595636,,,2017_May_24_1050,60.0062165936,FEMA4ImagesEEG,001,100364,
AFNE23.JPG,AFNE24.JPG,AFNE22.JPG,AFSA24.JPG,AFSA22.JPG,AFSA23.JPG,0,2,2,8,,,,,,,,,,,,,,,,,,,,,,,AFSA11.jpg,AFNE11.jpg,AFSA20.jpg,AFNE06.jpg,AFNE11.jpg,FN,3,num_6,16,num_6,1.01673813292,,,2017_May_24_1050,60.0062165936,FEMA4ImagesEEG,001,100364,
AMSA21.JPG,AMNE23.JPG,AMNE21.JPG,AMSA25.JPG,AMNE25.JPG,AMSA23.JPG,0,3,3,5,,,,,,,,,,,,,,,,,,,,,,,AFSA20.jpg,AFNE09.jpg,AFNE11.jpg,AFSA18.jpg,AFNE09.jpg,FN,3,num_6,16,num_6,1.01675705658,,,2017_May_24_1050,60.0062165936,FEMA4ImagesEEG,001,100364,
AMSA21.JPG,AMNE22.JPG,AMNE21.JPG,AMSA23.JPG,AMSA22.JPG,AMNE23.JPG,0,4,4,1,,,,,,,,,,,,,,,,,,,,,,,AFSA19.jpg,AFNE12.jpg,AFNE10.jpg,AFSA18.jpg,AFSA19.jpg,FS,4,num_8,32,num_2,1.11667716014,,,2017_May_24_1050,60.0062165936,FEMA4ImagesEEG,001,100364,
AFNE22.JPG,AFSA24.JPG,AFSA22.JPG,AFNE25.JPG,AFNE24.JPG,AFSA25.JPG,0,5,5,6,,,,,,,,,,,,,,,,,,,,,,,AFSA06.jpg,AFNE20.jpg,AFNE08.jpg,AFSA09.jpg,AFNE08.jpg,FN,3,num_2,16,num_2,0.983448537765,,,2017_May_24_1050,60.0062165936,FEMA4ImagesEEG,001,100364,
AMSA25.JPG,AMNE24.JPG,AMSA24.JPG,AMNE26.JPG,AMSA21.JPG,AMNE25.JPG,0,6,6,3,,,,,,,,,,,,,,,,,,,,,,,AFSA12.jpg,AFNE14.jpg,AFNE15.jpg,AFSA20.jpg,AFSA20.jpg,FS,4,num_4,16,num_4,0.950297181611,,,2017_May_24_1050,60.0062165936,FEMA4ImagesEEG,001,100364,
AFSA21.JPG,AFNE23.JPG,AFNE21.JPG,AFSA25.JPG,AFNE25.JPG,AFSA23.JPG,0,7,7,4,,,,,,,,,,,,,,,,,,,,,,,AFSA03.jpg,AFNE06.jpg,AFSA11.jpg,AFNE04.jpg,AFSA11.jpg,FS,4,num_2,16,num_2,0.900115498458,,,2017_May_24_1050,60.0062165936,FEMA4ImagesEEG,001,100364,
AFSA21.JPG,AFNE22.JPG,AFNE21.JPG,AFSA23.JPG,AFSA22.JPG,AFNE23.JPG,0,8,8,0,,,,,,,,,,,,,,,,,,,,,,,AFSA18.jpg,AFSA15.jpg,AFNE10.jpg,AFNE16.jpg,AFNE16.jpg,FN,3,num_4,16,num_4,1.05007455603,,,2017_May_24_1050,60.0062165936,FEMA4ImagesEEG,001,100364,
AMNE22.JPG,AMSA24.JPG,AMSA22.JPG,AMNE25.JPG,AMNE24.JPG,AMSA25.JPG,0,9,9,7,,,,,,,,,,,,,,,,,,,,,,,AFNE01.jpg,AFSA02.jpg,AFSA09.jpg,AFNE17.jpg,AFNE17.jpg,FN,3,num_4,32,num_8,1.23343675048,,,2017_May_24_1050,60.0062165936,FEMA4ImagesEEG,001,100364,
AFSA25.JPG,AFNE24.JPG,AFSA24.JPG,AFNE21.JPG,AFSA21.JPG,AFNE25.JPG,,,,,0,0,0,2,,,,,,,,,,,,,,,,,,,AMNE01.jpg,AMNE04.jpg,AMSA04.jpg,AMSA10.jpg,AMSA04.jpg,MS,2,num_2,16,num_2,0.916747145588,,,2017_May_24_1050,60.0062165936,FEMA4ImagesEEG,001,100364,
AMNE22.JPG,AMSA24.JPG,AMSA22.JPG,AMNE25.JPG,AMNE24.JPG,AMSA25.JPG,,,,,0,1,1,7,,,,,,,,,,,,,,,,,,,AMNE09.jpg,AMNE10.jpg,AMSA14.jpg,AMSA16.jpg,AMNE09.jpg,MN,1,num_8,32,num_6,1.28307157219,,,2017_May_24_1050,60.0062165936,FEMA4ImagesEEG,001,100364,
AFNE22.JPG,AFSA24.JPG,AFSA22.JPG,AFNE25.JPG,AFNE24.JPG,AFSA25.JPG,,,,,0,2,2,6,,,,,,,,,,,,,,,,,,,AMSA10.jpg,AMNE03.jpg,AMSA08.jpg,AMNE04.jpg,AMNE03.jpg,MN,1,num_6,16,num_6,0.733510360355,,,2017_May_24_1050,60.0062165936,FEMA4ImagesEEG,001,100364,
AFNE23.JPG,AFNE24.JPG,AFNE22.JPG,AFSA24.JPG,AFSA22.JPG,AFSA23.JPG,,,,,0,3,3,8,,,,,,,,,,,,,,,,,,,AMSA05.jpg,AMNE04.jpg,AMNE18.jpg,AMSA03.jpg,AMNE18.jpg,MN,1,num_2,16,num_2,0.96676525136,,,2017_May_24_1050,60.0062165936,FEMA4ImagesEEG,001,100364,
AFSA21.JPG,AFNE22.JPG,AFNE21.JPG,AFSA23.JPG,AFSA22.JPG,AFNE23.JPG,,,,,0,4,4,0,,,,,,,,,,,,,,,,,,,AMNE05.jpg,AMSA09.jpg,AMNE01.jpg,AMSA07.jpg,AMNE01.jpg,MN,1,num_2,16,num_2,0.966798608424,,,2017_May_24_1050,60.0062165936,FEMA4ImagesEEG,001,100364,
AMSA21.JPG,AMNE22.JPG,AMNE21.JPG,AMSA23.JPG,AMSA22.JPG,AMNE23.JPG,,,,,0,5,5,1,,,,,,,,,,,,,,,,,,,AMSA14.jpg,AMNE16.jpg,AMSA11.jpg,AMNE12.jpg,AMSA11.jpg,MS,2,num_2,32,num_8,1.41668828984,,,2017_May_24_1050,60.0062165936,FEMA4ImagesEEG,001,100364,
AFSA21.JPG,AFNE23.JPG,AFNE21.JPG,AFSA25.JPG,AFNE25.JPG,AFSA23.JPG,,,,,0,6,6,4,,,,,,,,,,,,,,,,,,,AMSA15.jpg,AMNE03.jpg,AMNE20.jpg,AMSA07.jpg,AMNE20.jpg,MN,1,num_2,16,num_2,0.850110543077,,,2017_May_24_1050,60.0062165936,FEMA4ImagesEEG,001,100364,
AMSA25.JPG,AMNE24.JPG,AMSA24.JPG,AMNE26.JPG,AMSA21.JPG,AMNE25.JPG,,,,,0,7,7,3,,,,,,,,,,,,,,,,,,,AMNE04.jpg,AMSA14.jpg,AMSA08.jpg,AMNE09.jpg,AMNE09.jpg,MN,1,num_4,16,num_4,1.71671385283,,,2017_May_24_1050,60.0062165936,FEMA4ImagesEEG,001,100364,
AMNE23.JPG,AMNE24.JPG,AMNE22.JPG,AMSA24.JPG,AMSA22.JPG,AMSA23.JPG,,,,,0,8,8,9,,,,,,,,,,,,,,,,,,,AMNE10.jpg,AMNE08.jpg,AMSA16.jpg,AMSA07.jpg,AMSA07.jpg,MS,2,num_4,16,num_4,1.75012276322,,,2017_May_24_1050,60.0062165936,FEMA4ImagesEEG,001,100364,
AMSA21.JPG,AMNE23.JPG,AMNE21.JPG,AMSA25.JPG,AMNE25.JPG,AMSA23.JPG,,,,,0,9,9,5,,,,,,,,,,,,,,,,,,,AMSA04.jpg,AMSA14.jpg,AMNE13.jpg,AMNE06.jpg,AMSA14.jpg,MS,2,num_6,16,num_6,0.750247210264,,,2017_May_24_1050,60.0062165936,FEMA4ImagesEEG,001,100364,
AFNE23.JPG,AFNE24.JPG,AFNE22.JPG,AFSA24.JPG,AFSA22.JPG,AFSA23.JPG,,,,,,,,,0,0,0,8,,,,,,,,,,,,,,,AFNE14.jpg,AFNE04.jpg,AFSA16.jpg,AFSA15.jpg,AFNE04.jpg,FN,3,num_6,16,num_6,0.700129675213,,,2017_May_24_1050,60.0062165936,FEMA4ImagesEEG,001,100364,
AFSA21.JPG,AFNE22.JPG,AFNE21.JPG,AFSA23.JPG,AFSA22.JPG,AFNE23.JPG,,,,,,,,,0,1,1,0,,,,,,,,,,,,,,,AFSA08.jpg,AFSA09.jpg,AFNE05.jpg,AFNE11.jpg,AFNE05.jpg,FN,3,num_2,32,num_4,1.2834128394,,,2017_May_24_1050,60.0062165936,FEMA4ImagesEEG,001,100364,
AFNE22.JPG,AFSA24.JPG,AFSA22.JPG,AFNE25.JPG,AFNE24.JPG,AFSA25.JPG,,,,,,,,,0,2,2,6,,,,,,,,,,,,,,,AFSA18.jpg,AFSA13.jpg,AFNE09.jpg,AFNE02.jpg,AFSA18.jpg,FS,4,num_8,32,num_6,1.33347167913,,,2017_May_24_1050,60.0062165936,FEMA4ImagesEEG,001,100364,
AFSA21.JPG,AFNE23.JPG,AFNE21.JPG,AFSA25.JPG,AFNE25.JPG,AFSA23.JPG,,,,,,,,,0,3,3,4,,,,,,,,,,,,,,,AFSA02.jpg,AFSA15.jpg,AFNE17.jpg,AFNE20.jpg,AFSA15.jpg,FS,4,num_6,32,num_8,1.11672559194,,,2017_May_24_1050,60.0062165936,FEMA4ImagesEEG,001,100364,
AMSA21.JPG,AMNE22.JPG,AMNE21.JPG,AMSA23.JPG,AMSA22.JPG,AMNE23.JPG,,,,,,,,,0,4,4,1,,,,,,,,,,,,,,,AFSA20.jpg,AFNE20.jpg,AFSA01.jpg,AFNE08.jpg,AFNE08.jpg,FN,3,num_4,16,num_4,0.816822551657,,,2017_May_24_1050,60.0062165936,FEMA4ImagesEEG,001,100364,
AMSA25.JPG,AMNE24.JPG,AMSA24.JPG,AMNE26.JPG,AMSA21.JPG,AMNE25.JPG,,,,,,,,,0,5,5,3,,,,,,,,,,,,,,,AFNE07.jpg,AFNE06.jpg,AFSA11.jpg,AFSA15.jpg,AFNE06.jpg,FN,3,num_6,16,num_6,1.10001408041,,,2017_May_24_1050,60.0062165936,FEMA4ImagesEEG,001,100364,
AMNE22.JPG,AMSA24.JPG,AMSA22.JPG,AMNE25.JPG,AMNE24.JPG,AMSA25.JPG,,,,,,,,,0,6,6,7,,,,,,,,,,,,,,,AFSA11.jpg,AFSA16.jpg,AFNE02.jpg,AFNE09.jpg,AFSA11.jpg,FS,4,num_8,16,num_8,0.650100664236,,,2017_May_24_1050,60.0062165936,FEMA4ImagesEEG,001,100364,
AFSA25.JPG,AFNE24.JPG,AFSA24.JPG,AFNE21.JPG,AFSA21.JPG,AFNE25.JPG,,,,,,,,,0,7,7,2,,,,,,,,,,,,,,,AFNE02.jpg,AFSA02.jpg,AFNE18.jpg,AFSA18.jpg,AFSA02.jpg,FS,4,num_6,32,num_4,2.29996686766,,,2017_May_24_1050,60.0062165936,FEMA4ImagesEEG,001,100364,
AMNE23.JPG,AMNE24.JPG,AMNE22.JPG,AMSA24.JPG,AMSA22.JPG,AMSA23.JPG,,,,,,,,,0,8,8,9,,,,,,,,,,,,,,,AFSA19.jpg,AFNE02.jpg,AFNE16.jpg,AFSA10.jpg,AFNE02.jpg,FN,3,num_6,32,num_4,0.766790012596,,,2017_May_24_1050,60.0062165936,FEMA4ImagesEEG,001,100364,
AMSA21.JPG,AMNE23.JPG,AMNE21.JPG,AMSA25.JPG,AMNE25.JPG,AMSA23.JPG,,,,,,,,,0,9,9,5,,,,,,,,,,,,,,,AFSA17.jpg,AFNE15.jpg,AFSA04.jpg,AFNE06.jpg,AFNE15.jpg,FN,3,num_6,16,num_6,0.600119764335,,,2017_May_24_1050,60.0062165936,FEMA4ImagesEEG,001,100364,
AFSA21.JPG,AFNE22.JPG,AFNE21.JPG,AFSA23.JPG,AFSA22.JPG,AFNE23.JPG,,,,,,,,,,,,,0,0,0,0,,,,,,,,,,,AMSA01.jpg,AMNE07.jpg,AMSA08.jpg,AMNE12.jpg,AMSA08.jpg,MS,2,num_2,16,num_2,1.93337013293,,,2017_May_24_1050,60.0062165936,FEMA4ImagesEEG,001,100364,
AFSA21.JPG,AFNE23.JPG,AFNE21.JPG,AFSA25.JPG,AFNE25.JPG,AFSA23.JPG,,,,,,,,,,,,,0,1,1,4,,,,,,,,,,,AMNE11.jpg,AMSA03.jpg,AMNE08.jpg,AMSA10.jpg,AMNE08.jpg,MN,1,num_2,16,num_2,1.06677003042,,,2017_May_24_1050,60.0062165936,FEMA4ImagesEEG,001,100364,
AMNE23.JPG,AMNE24.JPG,AMNE22.JPG,AMSA24.JPG,AMSA22.JPG,AMSA23.JPG,,,,,,,,,,,,,0,2,2,9,,,,,,,,,,,AMSA17.jpg,AMNE07.jpg,AMSA14.jpg,AMNE03.jpg,AMNE03.jpg,MN,1,num_4,32,num_6,1.76700619119,,,2017_May_24_1050,60.0062165936,FEMA4ImagesEEG,001,100364,
AFNE22.JPG,AFSA24.JPG,AFSA22.JPG,AFNE25.JPG,AFNE24.JPG,AFSA25.JPG,,,,,,,,,,,,,0,3,3,6,,,,,,,,,,,AMNE03.jpg,AMSA08.jpg,AMNE13.jpg,AMSA10.jpg,AMNE03.jpg,MN,1,num_8,16,num_8,1.96666582196,,,2017_May_24_1050,60.0062165936,FEMA4ImagesEEG,001,100364,
AMSA21.JPG,AMNE22.JPG,AMNE21.JPG,AMSA23.JPG,AMSA22.JPG,AMNE23.JPG,,,,,,,,,,,,,0,4,4,1,,,,,,,,,,,AMSA10.jpg,AMNE02.jpg,AMSA05.jpg,AMNE19.jpg,AMNE19.jpg,MN,1,num_4,32,num_8,1.70021242602,,,2017_May_24_1050,60.0062165936,FEMA4ImagesEEG,001,100364,
AFSA25.JPG,AFNE24.JPG,AFSA24.JPG,AFNE21.JPG,AFSA21.JPG,AFNE25.JPG,,,,,,,,,,,,,0,5,5,2,,,,,,,,,,,AMSA08.jpg,AMNE05.jpg,AMNE09.jpg,AMSA18.jpg,AMNE05.jpg,MN,1,num_6,32,num_2,1.21670342877,,,2017_May_24_1050,60.0062165936,FEMA4ImagesEEG,001,100364,
AFNE23.JPG,AFNE24.JPG,AFNE22.JPG,AFSA24.JPG,AFSA22.JPG,AFSA23.JPG,,,,,,,,,,,,,0,6,6,8,,,,,,,,,,,AMSA10.jpg,AMNE15.jpg,AMSA18.jpg,AMNE08.jpg,AMSA18.jpg,MS,2,num_2,16,num_2,1.38341344881,,,2017_May_24_1050,60.0062165936,FEMA4ImagesEEG,001,100364,
AMNE22.JPG,AMSA24.JPG,AMSA22.JPG,AMNE25.JPG,AMNE24.JPG,AMSA25.JPG,,,,,,,,,,,,,0,7,7,7,,,,,,,,,,,AMNE10.jpg,AMSA11.jpg,AMNE08.jpg,AMSA15.jpg,AMSA15.jpg,MS,2,num_4,16,num_4,0.700174578815,,,2017_May_24_1050,60.0062165936,FEMA4ImagesEEG,001,100364,
AMSA25.JPG,AMNE24.JPG,AMSA24.JPG,AMNE26.JPG,AMSA21.JPG,AMNE25.JPG,,,,,,,,,,,,,0,8,8,3,,,,,,,,,,,AMNE13.jpg,AMSA15.jpg,AMSA08.jpg,AMNE11.jpg,AMSA08.jpg,MS,2,num_2,16,num_2,0.983457197784,,,2017_May_24_1050,60.0062165936,FEMA4ImagesEEG,001,100364,
AMSA21.JPG,AMNE23.JPG,AMNE21.JPG,AMSA25.JPG,AMNE25.JPG,AMSA23.JPG,,,,,,,,,,,,,0,9,9,5,,,,,,,,,,,AMSA01.jpg,AMSA13.jpg,AMNE14.jpg,AMNE04.jpg,AMNE14.jpg,MN,1,num_2,16,num_2,0.700163673609,,,2017_May_24_1050,60.0062165936,FEMA4ImagesEEG,001,100364,
AFSA25.JPG,AFNE24.JPG,AFSA24.JPG,AFNE21.JPG,AFSA21.JPG,AFNE25.JPG,,,,,,,,,,,,,,,,,0,0,0,2,,,,,,,AFSA20.jpg,AFNE16.jpg,AFSA11.jpg,AFNE19.jpg,AFSA20.jpg,FS,4,num_8,16,num_8,1.13340823678,,,2017_May_24_1050,60.0062165936,FEMA4ImagesEEG,001,100364,
AFNE23.JPG,AFNE24.JPG,AFNE22.JPG,AFSA24.JPG,AFSA22.JPG,AFSA23.JPG,,,,,,,,,,,,,,,,,0,1,1,8,,,,,,,AFNE03.jpg,AFSA17.jpg,AFSA13.jpg,AFNE11.jpg,AFSA17.jpg,FS,4,num_6,32,num_2,0.800219450262,,,2017_May_24_1050,60.0062165936,FEMA4ImagesEEG,001,100364,
AMSA25.JPG,AMNE24.JPG,AMSA24.JPG,AMNE26.JPG,AMSA21.JPG,AMNE25.JPG,,,,,,,,,,,,,,,,,0,2,2,3,,,,,,,AFSA18.jpg,AFNE20.jpg,AFNE12.jpg,AFSA08.jpg,AFSA18.jpg,FS,4,num_8,32,num_4,1.01663902414,,,2017_May_24_1050,60.0062165936,FEMA4ImagesEEG,001,100364,
AMSA21.JPG,AMNE23.JPG,AMNE21.JPG,AMSA25.JPG,AMNE25.JPG,AMSA23.JPG,,,,,,,,,,,,,,,,,0,3,3,5,,,,,,,AFSA16.jpg,AFNE17.jpg,AFNE02.jpg,AFSA01.jpg,AFNE17.jpg,FN,3,num_6,32,num_2,1.05011208262,,,2017_May_24_1050,60.0062165936,FEMA4ImagesEEG,001,100364,
AFSA21.JPG,AFNE22.JPG,AFNE21.JPG,AFSA23.JPG,AFSA22.JPG,AFNE23.JPG,,,,,,,,,,,,,,,,,0,4,4,0,,,,,,,AFNE01.jpg,AFNE07.jpg,AFSA13.jpg,AFSA02.jpg,AFNE07.jpg,FN,3,num_6,16,num_6,0.833438161761,,,2017_May_24_1050,60.0062165936,FEMA4ImagesEEG,001,100364,
AMNE23.JPG,AMNE24.JPG,AMNE22.JPG,AMSA24.JPG,AMSA22.JPG,AMSA23.JPG,,,,,,,,,,,,,,,,,0,5,5,9,,,,,,,AFNE13.jpg,AFSA06.jpg,AFNE17.jpg,AFSA13.jpg,AFNE17.jpg,FN,3,num_2,32,num_8,1.25007385039,,,2017_May_24_1050,60.0062165936,FEMA4ImagesEEG,001,100364,
AMSA21.JPG,AMNE22.JPG,AMNE21.JPG,AMSA23.JPG,AMSA22.JPG,AMNE23.JPG,,,,,,,,,,,,,,,,,0,6,6,1,,,,,,,AFSA09.jpg,AFSA14.jpg,AFNE12.jpg,AFNE07.jpg,AFNE12.jpg,FN,3,num_2,32,num_4,0.883457229822,,,2017_May_24_1050,60.0062165936,FEMA4ImagesEEG,001,100364,
AFSA21.JPG,AFNE23.JPG,AFNE21.JPG,AFSA25.JPG,AFNE25.JPG,AFSA23.JPG,,,,,,,,,,,,,,,,,0,7,7,4,,,,,,,AFSA08.jpg,AFNE13.jpg,AFNE16.jpg,AFSA20.jpg,AFNE16.jpg,FN,3,num_2,32,num_4,0.966747610713,,,2017_May_24_1050,60.0062165936,FEMA4ImagesEEG,001,100364,
AMNE22.JPG,AMSA24.JPG,AMSA22.JPG,AMNE25.JPG,AMNE24.JPG,AMSA25.JPG,,,,,,,,,,,,,,,,,0,8,8,7,,,,,,,AFNE07.jpg,AFNE09.jpg,AFSA09.jpg,AFSA12.jpg,AFSA12.jpg,FS,4,num_4,16,num_4,0.716767737176,,,2017_May_24_1050,60.0062165936,FEMA4ImagesEEG,001,100364,
AFNE22.JPG,AFSA24.JPG,AFSA22.JPG,AFNE25.JPG,AFNE24.JPG,AFSA25.JPG,,,,,,,,,,,,,,,,,0,9,9,6,,,,,,,AFNE08.jpg,AFSA19.jpg,AFNE05.jpg,AFSA11.jpg,AFNE08.jpg,FN,3,num_8,32,num_2,1.40004381305,,,2017_May_24_1050,60.0062165936,FEMA4ImagesEEG,001,100364,
AFNE23.JPG,AFNE24.JPG,AFNE22.JPG,AFSA24.JPG,AFSA22.JPG,AFSA23.JPG,,,,,,,,,,,,,,,,,,,,,0,0,0,8,,,AMNE12.jpg,AMSA04.jpg,AMSA20.jpg,AMNE02.jpg,AMSA04.jpg,MS,2,num_6,16,num_6,0.683485519141,,,2017_May_24_1050,60.0062165936,FEMA4ImagesEEG,001,100364,
AFSA25.JPG,AFNE24.JPG,AFSA24.JPG,AFNE21.JPG,AFSA21.JPG,AFNE25.JPG,,,,,,,,,,,,,,,,,,,,,0,1,1,2,,,AMNE14.jpg,AMSA01.jpg,AMNE02.jpg,AMSA02.jpg,AMNE14.jpg,MN,1,num_8,32,num_2,0.966719385586,,,2017_May_24_1050,60.0062165936,FEMA4ImagesEEG,001,100364,
AFSA21.JPG,AFNE23.JPG,AFNE21.JPG,AFSA25.JPG,AFNE25.JPG,AFSA23.JPG,,,,,,,,,,,,,,,,,,,,,0,2,2,4,,,AMNE08.jpg,AMSA09.jpg,AMNE19.jpg,AMSA07.jpg,AMNE08.jpg,MN,1,num_8,32,num_4,0.750159327639,,,2017_May_24_1050,60.0062165936,FEMA4ImagesEEG,001,100364,
AMSA21.JPG,AMNE23.JPG,AMNE21.JPG,AMSA25.JPG,AMNE25.JPG,AMSA23.JPG,,,,,,,,,,,,,,,,,,,,,0,3,3,5,,,AMSA15.jpg,AMNE18.jpg,AMNE15.jpg,AMSA03.jpg,AMSA15.jpg,MS,2,num_8,32,num_4,0.750114744646,,,2017_May_24_1050,60.0062165936,FEMA4ImagesEEG,001,100364,
AFNE22.JPG,AFSA24.JPG,AFSA22.JPG,AFNE25.JPG,AFNE24.JPG,AFSA25.JPG,,,,,,,,,,,,,,,,,,,,,0,4,4,6,,,AMNE15.jpg,AMSA12.jpg,AMNE07.jpg,AMSA05.jpg,AMNE07.jpg,MN,1,num_2,32,num_4,0.850097071961,,,2017_May_24_1050,60.0062165936,FEMA4ImagesEEG,001,100364,
AFSA21.JPG,AFNE22.JPG,AFNE21.JPG,AFSA23.JPG,AFSA22.JPG,AFNE23.JPG,,,,,,,,,,,,,,,,,,,,,0,5,5,0,,,AMNE06.jpg,AMSA18.jpg,AMSA08.jpg,AMNE20.jpg,AMSA18.jpg,MS,2,num_6,16,num_6,0.466749695479,,,2017_May_24_1050,60.0062165936,FEMA4ImagesEEG,001,100364,
AMNE23.JPG,AMNE24.JPG,AMNE22.JPG,AMSA24.JPG,AMSA22.JPG,AMSA23.JPG,,,,,,,,,,,,,,,,,,,,,0,6,6,9,,,AMSA05.jpg,AMNE01.jpg,AMNE06.jpg,AMSA19.jpg,AMNE06.jpg,MN,1,num_2,32,num_4,0.933446148178,,,2017_May_24_1050,60.0062165936,FEMA4ImagesEEG,001,100364,
AMNE22.JPG,AMSA24.JPG,AMSA22.JPG,AMNE25.JPG,AMNE24.JPG,AMSA25.JPG,,,,,,,,,,,,,,,,,,,,,0,7,7,7,,,AMSA13.jpg,AMNE14.jpg,AMSA12.jpg,AMNE02.jpg,AMNE02.jpg,MN,1,num_4,16,num_4,1.05009604548,,,2017_May_24_1050,60.0062165936,FEMA4ImagesEEG,001,100364,
AMSA25.JPG,AMNE24.JPG,AMSA24.JPG,AMNE26.JPG,AMSA21.JPG,AMNE25.JPG,,,,,,,,,,,,,,,,,,,,,0,8,8,3,,,AMNE04.jpg,AMSA05.jpg,AMNE13.jpg,AMSA14.jpg,AMNE13.jpg,MN,1,num_2,32,num_8,0.983461046591,,,2017_May_24_1050,60.0062165936,FEMA4ImagesEEG,001,100364,
AMSA21.JPG,AMNE22.JPG,AMNE21.JPG,AMSA23.JPG,AMSA22.JPG,AMNE23.JPG,,,,,,,,,,,,,,,,,,,,,0,9,9,1,,,AMNE05.jpg,AMSA19.jpg,AMNE03.jpg,AMSA06.jpg,AMNE05.jpg,MN,1,num_8,16,num_8,0.900065463036,,,2017_May_24_1050,60.0062165936,FEMA4ImagesEEG,001,100364,
,,,,,,,,,,,,,,,,,,,,,,,,,,,,,,,,,,,,,,,,,,,space,7.51718380093,2017_May_24_1050,60.0062165936,FEMA4ImagesEEG,001,100364,
AFNE01.JPG,AFNE01.JPG,AFNE01.JPG,AFNE01.JPG,AFNE01.JPG,AFNE01.JPG,0,0,0,6,,,,,,,,,,,,,,,,,,,,,,,AFNE05.jpg,AFSA12.jpg,AFNE02.jpg,AFSA16.jpg,AFNE02.jpg,FN,3,num_2,32,num_8,1.00020463206,,,2017_May_24_1050,60.0062165936,FEMA4ImagesEEG,001,100364,
AFNE01.JPG,AFNE01.JPG,AFNE01.JPG,AFNE01.JPG,AFNE01.JPG,AFNE01.JPG,0,1,1,9,,,,,,,,,,,,,,,,,,,,,,,AFSA20.jpg,AFNE18.jpg,AFSA04.jpg,AFNE01.jpg,AFSA20.jpg,FS,4,num_8,32,num_4,0.733466739766,,,2017_May_24_1050,60.0062165936,FEMA4ImagesEEG,001,100364,
AFNE01.JPG,AFNE01.JPG,AFNE01.JPG,AFNE01.JPG,AFNE01.JPG,AFNE01.JPG,0,2,2,3,,,,,,,,,,,,,,,,,,,,,,,AFNE17.jpg,AFSA10.jpg,AFSA15.jpg,AFNE13.jpg,AFSA10.jpg,FS,4,num_6,16,num_6,0.583500946756,,,2017_May_24_1050,60.0062165936,FEMA4ImagesEEG,001,100364,
AFNE01.JPG,AFNE01.JPG,AFNE01.JPG,AFNE01.JPG,AFNE01.JPG,AFNE01.JPG,0,3,3,7,,,,,,,,,,,,,,,,,,,,,,,AFSA14.jpg,AFSA13.jpg,AFNE05.jpg,AFNE03.jpg,AFSA14.jpg,FS,4,num_8,16,num_8,1.35016939871,,,2017_May_24_1050,60.0062165936,FEMA4ImagesEEG,001,100364,
AFNE01.JPG,AFNE01.JPG,AFNE01.JPG,AFNE01.JPG,AFNE01.JPG,AFNE01.JPG,0,4,4,4,,,,,,,,,,,,,,,,,,,,,,,AFSA15.jpg,AFNE07.jpg,AFNE09.jpg,AFSA09.jpg,AFSA09.jpg,FS,4,num_4,16,num_4,0.983451424516,,,2017_May_24_1050,60.0062165936,FEMA4ImagesEEG,001,100364,
AFNE01.JPG,AFNE01.JPG,AFNE01.JPG,AFNE01.JPG,AFNE01.JPG,AFNE01.JPG,0,5,5,1,,,,,,,,,,,,,,,,,,,,,,,AFSA11.jpg,AFSA04.jpg,AFNE11.jpg,AFNE19.jpg,AFNE19.jpg,FN,3,num_4,32,num_6,1.23346208909,,,2017_May_24_1050,60.0062165936,FEMA4ImagesEEG,001,100364,
AFNE01.JPG,AFNE01.JPG,AFNE01.JPG,AFNE01.JPG,AFNE01.JPG,AFNE01.JPG,0,6,6,0,,,,,,,,,,,,,,,,,,,,,,,AFNE02.jpg,AFSA11.jpg,AFNE10.jpg,AFSA13.jpg,AFNE10.jpg,FN,3,num_2,16,num_2,0.666824363754,,,2017_May_24_1050,60.0062165936,FEMA4ImagesEEG,001,100364,
AFNE01.JPG,AFNE01.JPG,AFNE01.JPG,AFNE01.JPG,AFNE01.JPG,AFNE01.JPG,0,7,7,5,,,,,,,,,,,,,,,,,,,,,,,AFNE08.jpg,AFNE18.jpg,AFSA13.jpg,AFSA12.jpg,AFSA12.jpg,FS,4,num_4,16,num_4,1.0002318949,,,2017_May_24_1050,60.0062165936,FEMA4ImagesEEG,001,100364,
AFNE01.JPG,AFNE01.JPG,AFNE01.JPG,AFNE01.JPG,AFNE01.JPG,AFNE01.JPG,0,8,8,2,,,,,,,,,,,,,,,,,,,,,,,AFSA19.jpg,AFSA07.jpg,AFNE01.jpg,AFNE09.jpg,AFNE09.jpg,FN,3,num_4,16,num_4,1.01679073425,,,2017_May_24_1050,60.0062165936,FEMA4ImagesEEG,001,100364,
AFNE01.JPG,AFNE01.JPG,AFNE01.JPG,AFNE01.JPG,AFNE01.JPG,AFNE01.JPG,0,9,9,8,,,,,,,,,,,,,,,,,,,,,,,AFNE14.jpg,AFSA15.jpg,AFSA01.jpg,AFNE18.jpg,AFSA15.jpg,FS,4,num_6,16,num_6,0.683417842956,,,2017_May_24_1050,60.0062165936,FEMA4ImagesEEG,001,100364,
AFNE01.JPG,AFNE01.JPG,AFNE01.JPG,AFNE01.JPG,AFNE01.JPG,AFNE01.JPG,1,0,10,2,,,,,,,,,,,,,,,,,,,,,,,AFSA07.jpg,AFNE10.jpg,AFSA04.jpg,AFNE08.jpg,AFSA04.jpg,FS,4,num_2,16,num_2,1.00009718421,,,2017_May_24_1050,60.0062165936,FEMA4ImagesEEG,001,100364,
AFNE01.JPG,AFNE01.JPG,AFNE01.JPG,AFNE01.JPG,AFNE01.JPG,AFNE01.JPG,1,1,11,9,,,,,,,,,,,,,,,,,,,,,,,AFNE15.jpg,AFSA16.jpg,AFNE07.jpg,AFSA14.jpg,AFSA16.jpg,FS,4,num_6,16,num_6,0.633584483294,,,2017_May_24_1050,60.0062165936,FEMA4ImagesEEG,001,100364,
AFNE01.JPG,AFNE01.JPG,AFNE01.JPG,AFNE01.JPG,AFNE01.JPG,AFNE01.JPG,1,2,12,5,,,,,,,,,,,,,,,,,,,,,,,AFNE04.jpg,AFSA20.jpg,AFNE13.jpg,AFSA05.jpg,AFSA05.jpg,FS,4,num_4,16,num_4,0.950089021353,,,2017_May_24_1050,60.0062165936,FEMA4ImagesEEG,001,100364,
AFNE01.JPG,AFNE01.JPG,AFNE01.JPG,AFNE01.JPG,AFNE01.JPG,AFNE01.JPG,1,3,13,7,,,,,,,,,,,,,,,,,,,,,,,AFNE07.jpg,AFSA05.jpg,AFSA10.jpg,AFNE16.jpg,AFNE16.jpg,FN,3,num_4,32,num_8,1.45013055718,,,2017_May_24_1050,60.0062165936,FEMA4ImagesEEG,001,100364,
AFNE01.JPG,AFNE01.JPG,AFNE01.JPG,AFNE01.JPG,AFNE01.JPG,AFNE01.JPG,1,4,14,6,,,,,,,,,,,,,,,,,,,,,,,AFNE18.jpg,AFSA01.jpg,AFNE19.jpg,AFSA17.jpg,AFNE19.jpg,FN,3,num_2,16,num_2,1.00026525185,,,2017_May_24_1050,60.0062165936,FEMA4ImagesEEG,001,100364,
AFNE01.JPG,AFNE01.JPG,AFNE01.JPG,AFNE01.JPG,AFNE01.JPG,AFNE01.JPG,1,5,15,3,,,,,,,,,,,,,,,,,,,,,,,AFSA01.jpg,AFNE20.jpg,AFNE19.jpg,AFSA11.jpg,AFSA01.jpg,FS,4,num_8,32,num_4,1.03359141131,,,2017_May_24_1050,60.0062165936,FEMA4ImagesEEG,001,100364,
AFNE01.JPG,AFNE01.JPG,AFNE01.JPG,AFNE01.JPG,AFNE01.JPG,AFNE01.JPG,1,6,16,8,,,,,,,,,,,,,,,,,,,,,,,AFSA05.jpg,AFNE17.jpg,AFSA15.jpg,AFNE14.jpg,AFNE17.jpg,FN,3,num_6,16,num_6,0.683589118067,,,2017_May_24_1050,60.0062165936,FEMA4ImagesEEG,001,100364,
AFNE01.JPG,AFNE01.JPG,AFNE01.JPG,AFNE01.JPG,AFNE01.JPG,AFNE01.JPG,1,7,17,1,,,,,,,,,,,,,,,,,,,,,,,AFSA02.jpg,AFSA01.jpg,AFNE09.jpg,AFNE01.jpg,AFNE09.jpg,FN,3,num_2,16,num_2,1.45023928792,,,2017_May_24_1050,60.0062165936,FEMA4ImagesEEG,001,100364,
AFNE01.JPG,AFNE01.JPG,AFNE01.JPG,AFNE01.JPG,AFNE01.JPG,AFNE01.JPG,1,8,18,4,,,,,,,,,,,,,,,,,,,,,,,AFNE11.jpg,AFNE20.jpg,AFSA05.jpg,AFSA13.jpg,AFNE11.jpg,FN,3,num_8,32,num_4,1.00019821734,,,2017_May_24_1050,60.0062165936,FEMA4ImagesEEG,001,100364,
AFNE01.JPG,AFNE01.JPG,AFNE01.JPG,AFNE01.JPG,AFNE01.JPG,AFNE01.JPG,1,9,19,0,,,,,,,,,,,,,,,,,,,,,,,AFNE14.jpg,AFSA15.jpg,AFSA13.jpg,AFNE16.jpg,AFNE14.jpg,FN,3,num_8,32,num_4,1.21687310026,,,2017_May_24_1050,60.0062165936,FEMA4ImagesEEG,001,100364,
AFNE01.JPG,AFNE01.JPG,AFNE01.JPG,AFNE01.JPG,AFNE01.JPG,AFNE01.JPG,2,0,20,2,,,,,,,,,,,,,,,,,,,,,,,AFNE05.jpg,AFSA12.jpg,AFNE13.jpg,AFSA19.jpg,AFSA19.jpg,FS,4,num_4,16,num_4,0.71683252661,,,2017_May_24_1050,60.0062165936,FEMA4ImagesEEG,001,100364,
AFNE01.JPG,AFNE01.JPG,AFNE01.JPG,AFNE01.JPG,AFNE01.JPG,AFNE01.JPG,2,1,21,1,,,,,,,,,,,,,,,,,,,,,,,AFNE11.jpg,AFSA01.jpg,AFSA02.jpg,AFNE07.jpg,AFSA01.jpg,FS,4,num_6,32,num_2,0.783456620411,,,2017_May_24_1050,60.0062165936,FEMA4ImagesEEG,001,100364,
AFNE01.JPG,AFNE01.JPG,AFNE01.JPG,AFNE01.JPG,AFNE01.JPG,AFNE01.JPG,2,2,22,6,,,,,,,,,,,,,,,,,,,,,,,AFNE17.jpg,AFSA17.jpg,AFSA01.jpg,AFNE05.jpg,AFSA17.jpg,FS,4,num_6,16,num_6,0.90013025247,,,2017_May_24_1050,60.0062165936,FEMA4ImagesEEG,001,100364,
AFNE01.JPG,AFNE01.JPG,AFNE01.JPG,AFNE01.JPG,AFNE01.JPG,AFNE01.JPG,2,3,23,3,,,,,,,,,,,,,,,,,,,,,,,AFSA07.jpg,AFSA19.jpg,AFNE10.jpg,AFNE03.jpg,AFNE03.jpg,FN,3,num_4,32,num_8,1.10004968266,,,2017_May_24_1050,60.0062165936,FEMA4ImagesEEG,001,100364,
AFNE01.JPG,AFNE01.JPG,AFNE01.JPG,AFNE01.JPG,AFNE01.JPG,AFNE01.JPG,2,4,24,4,,,,,,,,,,,,,,,,,,,,,,,AFNE12.jpg,AFSA14.jpg,AFSA02.jpg,AFNE16.jpg,AFNE12.jpg,FN,3,num_8,16,num_8,1.4834272085,,,2017_May_24_1050,60.0062165936,FEMA4ImagesEEG,001,100364,
AFNE01.JPG,AFNE01.JPG,AFNE01.JPG,AFNE01.JPG,AFNE01.JPG,AFNE01.JPG,2,5,25,7,,,,,,,,,,,,,,,,,,,,,,,AFNE07.jpg,AFNE10.jpg,AFSA06.jpg,AFSA18.jpg,AFNE07.jpg,FN,3,num_8,16,num_8,0.783190727001,,,2017_May_24_1050,60.0062165936,FEMA4ImagesEEG,001,100364,
AFNE01.JPG,AFNE01.JPG,AFNE01.JPG,AFNE01.JPG,AFNE01.JPG,AFNE01.JPG,2,6,26,9,,,,,,,,,,,,,,,,,,,,,,,AFSA05.jpg,AFSA03.jpg,AFNE05.jpg,AFNE03.jpg,AFSA05.jpg,FS,4,num_8,32,num_4,1.1667751302,,,2017_May_24_1050,60.0062165936,FEMA4ImagesEEG,001,100364,
AFNE01.JPG,AFNE01.JPG,AFNE01.JPG,AFNE01.JPG,AFNE01.JPG,AFNE01.JPG,2,7,27,0,,,,,,,,,,,,,,,,,,,,,,,AFSA13.jpg,AFNE09.jpg,AFSA10.jpg,AFNE18.jpg,AFSA13.jpg,FS,4,num_8,32,num_2,1.20011411933,,,2017_May_24_1050,60.0062165936,FEMA4ImagesEEG,001,100364,
AFNE01.JPG,AFNE01.JPG,AFNE01.JPG,AFNE01.JPG,AFNE01.JPG,AFNE01.JPG,2,8,28,8,,,,,,,,,,,,,,,,,,,,,,,AFNE16.jpg,AFSA19.jpg,AFNE07.jpg,AFSA08.jpg,AFNE07.jpg,FN,3,num_2,16,num_2,0.916772163357,,,2017_May_24_1050,60.0062165936,FEMA4ImagesEEG,001,100364,
AFNE01.JPG,AFNE01.JPG,AFNE01.JPG,AFNE01.JPG,AFNE01.JPG,AFNE01.JPG,2,9,29,5,,,,,,,,,,,,,,,,,,,,,,,AFNE19.jpg,AFSA02.jpg,AFSA08.jpg,AFNE17.jpg,AFSA02.jpg,FS,4,num_6,32,num_8,0.850100920768,,,2017_May_24_1050,60.0062165936,FEMA4ImagesEEG,001,100364,
AFNE01.JPG,AFNE01.JPG,AFNE01.JPG,AFNE01.JPG,AFNE01.JPG,AFNE01.JPG,3,0,30,5,,,,,,,,,,,,,,,,,,,,,,,AFNE03.jpg,AFSA13.jpg,AFSA11.jpg,AFNE19.jpg,AFNE03.jpg,FN,3,num_8,32,num_4,0.650169302593,,,2017_May_24_1050,60.0062165936,FEMA4ImagesEEG,001,100364,
AFNE01.JPG,AFNE01.JPG,AFNE01.JPG,AFNE01.JPG,AFNE01.JPG,AFNE01.JPG,3,1,31,0,,,,,,,,,,,,,,,,,,,,,,,AFNE19.jpg,AFSA07.jpg,AFNE18.jpg,AFSA02.jpg,AFSA02.jpg,FS,4,num_4,32,num_8,1.06679729337,,,2017_May_24_1050,60.0062165936,FEMA4ImagesEEG,001,100364,
AFNE01.JPG,AFNE01.JPG,AFNE01.JPG,AFNE01.JPG,AFNE01.JPG,AFNE01.JPG,3,2,32,9,,,,,,,,,,,,,,,,,,,,,,,AFSA10.jpg,AFNE01.jpg,AFNE06.jpg,AFSA15.jpg,AFSA10.jpg,FS,4,num_8,32,num_4,0.900117102196,,,2017_May_24_1050,60.0062165936,FEMA4ImagesEEG,001,100364,
AFNE01.JPG,AFNE01.JPG,AFNE01.JPG,AFNE01.JPG,AFNE01.JPG,AFNE01.JPG,3,3,33,6,,,,,,,,,,,,,,,,,,,,,,,AFSA10.jpg,AFNE03.jpg,AFSA15.jpg,AFNE19.jpg,AFSA10.jpg,FS,4,num_8,32,num_2,0.816760007292,,,2017_May_24_1050,60.0062165936,FEMA4ImagesEEG,001,100364,
AFNE01.JPG,AFNE01.JPG,AFNE01.JPG,AFNE01.JPG,AFNE01.JPG,AFNE01.JPG,3,4,34,2,,,,,,,,,,,,,,,,,,,,,,,AFNE03.jpg,AFSA18.jpg,AFNE13.jpg,AFSA10.jpg,AFNE13.jpg,FN,3,num_2,16,num_2,1.60003059858,,,2017_May_24_1050,60.0062165936,FEMA4ImagesEEG,001,100364,
AFNE01.JPG,AFNE01.JPG,AFNE01.JPG,AFNE01.JPG,AFNE01.JPG,AFNE01.JPG,3,5,35,7,,,,,,,,,,,,,,,,,,,,,,,AFNE08.jpg,AFNE15.jpg,AFSA08.jpg,AFSA10.jpg,AFNE15.jpg,FN,3,num_6,16,num_6,0.63351199613,,,2017_May_24_1050,60.0062165936,FEMA4ImagesEEG,001,100364,
AFNE01.JPG,AFNE01.JPG,AFNE01.JPG,AFNE01.JPG,AFNE01.JPG,AFNE01.JPG,3,6,36,8,,,,,,,,,,,,,,,,,,,,,,,AFSA16.jpg,AFNE15.jpg,AFNE01.jpg,AFSA03.jpg,AFSA03.jpg,FS,4,num_4,16,num_4,0.91653417435,,,2017_May_24_1050,60.0062165936,FEMA4ImagesEEG,001,100364,
AFNE01.JPG,AFNE01.JPG,AFNE01.JPG,AFNE01.JPG,AFNE01.JPG,AFNE01.JPG,3,7,37,4,,,,,,,,,,,,,,,,,,,,,,,AFNE04.jpg,AFSA01.jpg,AFNE17.jpg,AFSA02.jpg,AFNE17.jpg,FN,3,num_2,16,num_2,1.03343232442,,,2017_May_24_1050,60.0062165936,FEMA4ImagesEEG,001,100364,
AFNE01.JPG,AFNE01.JPG,AFNE01.JPG,AFNE01.JPG,AFNE01.JPG,AFNE01.JPG,3,8,38,1,,,,,,,,,,,,,,,,,,,,,,,AFSA14.jpg,AFNE08.jpg,AFNE17.jpg,AFSA03.jpg,AFSA14.jpg,FS,4,num_8,16,num_8,1.20014394808,,,2017_May_24_1050,60.0062165936,FEMA4ImagesEEG,001,100364,
AFNE01.JPG,AFNE01.JPG,AFNE01.JPG,AFNE01.JPG,AFNE01.JPG,AFNE01.JPG,3,9,39,3,,,,,,,,,,,,,,,,,,,,,,,AFSA02.jpg,AFNE19.jpg,AFSA11.jpg,AFNE17.jpg,AFNE17.jpg,FN,3,num_4,16,num_4,0.766815030249,,,2017_May_24_1050,60.0062165936,FEMA4ImagesEEG,001,100364,
AFNE01.JPG,AFNE01.JPG,AFNE01.JPG,AFNE01.JPG,AFNE01.JPG,AFNE01.JPG,4,0,40,6,,,,,,,,,,,,,,,,,,,,,,,AFNE15.jpg,AFSA18.jpg,AFSA05.jpg,AFNE05.jpg,AFNE15.jpg,FN,3,num_8,16,num_8,1.16669911495,,,2017_May_24_1050,60.0062165936,FEMA4ImagesEEG,001,100364,
AFNE01.JPG,AFNE01.JPG,AFNE01.JPG,AFNE01.JPG,AFNE01.JPG,AFNE01.JPG,4,1,41,1,,,,,,,,,,,,,,,,,,,,,,,AFNE07.jpg,AFSA11.jpg,AFNE02.jpg,AFSA04.jpg,AFSA04.jpg,FS,4,num_4,32,num_6,0.833313393989,,,2017_May_24_1050,60.0062165936,FEMA4ImagesEEG,001,100364,
AFNE01.JPG,AFNE01.JPG,AFNE01.JPG,AFNE01.JPG,AFNE01.JPG,AFNE01.JPG,4,2,42,5,,,,,,,,,,,,,,,,,,,,,,,AFSA13.jpg,AFSA17.jpg,AFNE20.jpg,AFNE06.jpg,AFNE20.jpg,FN,3,num_2,32,num_4,0.866659439285,,,2017_May_24_1050,60.0062165936,FEMA4ImagesEEG,001,100364,
AFNE01.JPG,AFNE01.JPG,AFNE01.JPG,AFNE01.JPG,AFNE01.JPG,AFNE01.JPG,4,3,43,9,,,,,,,,,,,,,,,,,,,,,,,AFSA01.jpg,AFNE07.jpg,AFNE11.jpg,AFSA10.jpg,AFSA01.jpg,FS,4,num_8,32,num_2,1.41672806162,,,2017_May_24_1050,60.0062165936,FEMA4ImagesEEG,001,100364,
AFNE01.JPG,AFNE01.JPG,AFNE01.JPG,AFNE01.JPG,AFNE01.JPG,AFNE01.JPG,4,4,44,8,,,,,,,,,,,,,,,,,,,,,,,AFSA17.jpg,AFSA07.jpg,AFNE18.jpg,AFNE19.jpg,AFNE18.jpg,FN,3,num_2,32,num_6,0.650130813825,,,2017_May_24_1050,60.0062165936,FEMA4ImagesEEG,001,100364,
AFNE01.JPG,AFNE01.JPG,AFNE01.JPG,AFNE01.JPG,AFNE01.JPG,AFNE01.JPG,4,5,45,3,,,,,,,,,,,,,,,,,,,,,,,AFSA12.jpg,AFNE19.jpg,AFSA02.jpg,AFNE13.jpg,AFNE13.jpg,FN,3,num_4,32,num_8,1.91667337541,,,2017_May_24_1050,60.0062165936,FEMA4ImagesEEG,001,100364,
AFNE01.JPG,AFNE01.JPG,AFNE01.JPG,AFNE01.JPG,AFNE01.JPG,AFNE01.JPG,4,6,46,0,,,,,,,,,,,,,,,,,,,,,,,AFSA15.jpg,AFSA07.jpg,AFNE16.jpg,AFNE05.jpg,AFSA15.jpg,FS,4,num_8,32,num_2,1.3038272931,,,2017_May_24_1050,60.0062165936,FEMA4ImagesEEG,001,100364,
AFNE01.JPG,AFNE01.JPG,AFNE01.JPG,AFNE01.JPG,AFNE01.JPG,AFNE01.JPG,4,7,47,7,,,,,,,,,,,,,,,,,,,,,,,AFNE02.jpg,AFSA03.jpg,AFNE12.jpg,AFSA07.jpg,AFSA03.jpg,FS,4,num_6,16,num_6,0.533633267973,,,2017_May_24_1050,60.0062165936,FEMA4ImagesEEG,001,100364,
AFNE01.JPG,AFNE01.JPG,AFNE01.JPG,AFNE01.JPG,AFNE01.JPG,AFNE01.JPG,4,8,48,4,,,,,,,,,,,,,,,,,,,,,,,AFSA12.jpg,AFNE14.jpg,AFNE10.jpg,AFSA06.jpg,AFNE10.jpg,FN,3,num_2,16,num_2,1.05010919587,,,2017_May_24_1050,60.0062165936,FEMA4ImagesEEG,001,100364,
AFNE01.JPG,AFNE01.JPG,AFNE01.JPG,AFNE01.JPG,AFNE01.JPG,AFNE01.JPG,4,9,49,2,,,,,,,,,,,,,,,,,,,,,,,AFNE10.jpg,AFSA15.jpg,AFSA01.jpg,AFNE02.jpg,AFSA15.jpg,FS,4,num_6,16,num_6,0.533474822412,,,2017_May_24_1050,60.0062165936,FEMA4ImagesEEG,001,100364,
AFNE01.JPG,AFNE01.JPG,AFNE01.JPG,AFNE01.JPG,AFNE01.JPG,AFNE01.JPG,5,0,50,6,,,,,,,,,,,,,,,,,,,,,,,AFNE15.jpg,AFNE05.jpg,AFSA07.jpg,AFSA18.jpg,AFSA18.jpg,FS,4,num_4,16,num_4,0.750185628189,,,2017_May_24_1050,60.0062165936,FEMA4ImagesEEG,001,100364,
AFNE01.JPG,AFNE01.JPG,AFNE01.JPG,AFNE01.JPG,AFNE01.JPG,AFNE01.JPG,5,1,51,0,,,,,,,,,,,,,,,,,,,,,,,AFSA18.jpg,AFSA20.jpg,AFNE05.jpg,AFNE20.jpg,AFSA20.jpg,FS,4,num_6,16,num_6,0.616766486201,,,2017_May_24_1050,60.0062165936,FEMA4ImagesEEG,001,100364,
AFNE01.JPG,AFNE01.JPG,AFNE01.JPG,AFNE01.JPG,AFNE01.JPG,AFNE01.JPG,5,2,52,7,,,,,,,,,,,,,,,,,,,,,,,AFNE16.jpg,AFSA15.jpg,AFSA02.jpg,AFNE18.jpg,AFNE18.jpg,FN,3,num_4,16,num_4,0.816763214651,,,2017_May_24_1050,60.0062165936,FEMA4ImagesEEG,001,100364,
AFNE01.JPG,AFNE01.JPG,AFNE01.JPG,AFNE01.JPG,AFNE01.JPG,AFNE01.JPG,5,3,53,2,,,,,,,,,,,,,,,,,,,,,,,AFSA06.jpg,AFNE19.jpg,AFNE01.jpg,AFSA19.jpg,AFNE19.jpg,FN,3,num_6,32,num_4,0.716774793458,,,2017_May_24_1050,60.0062165936,FEMA4ImagesEEG,001,100364,
AFNE01.JPG,AFNE01.JPG,AFNE01.JPG,AFNE01.JPG,AFNE01.JPG,AFNE01.JPG,5,4,54,8,,,,,,,,,,,,,,,,,,,,,,,AFNE12.jpg,AFNE05.jpg,AFSA13.jpg,AFSA18.jpg,AFNE12.jpg,FN,3,num_8,16,num_8,1.01675801876,,,2017_May_24_1050,60.0062165936,FEMA4ImagesEEG,001,100364,
AFNE01.JPG,AFNE01.JPG,AFNE01.JPG,AFNE01.JPG,AFNE01.JPG,AFNE01.JPG,5,5,55,3,,,,,,,,,,,,,,,,,,,,,,,AFNE01.jpg,AFSA14.jpg,AFSA20.jpg,AFNE04.jpg,AFSA20.jpg,FS,4,num_2,16,num_2,0.866836166941,,,2017_May_24_1050,60.0062165936,FEMA4ImagesEEG,001,100364,
AFNE01.JPG,AFNE01.JPG,AFNE01.JPG,AFNE01.JPG,AFNE01.JPG,AFNE01.JPG,5,6,56,1,,,,,,,,,,,,,,,,,,,,,,,AFSA03.jpg,AFSA06.jpg,AFNE05.jpg,AFNE16.jpg,AFSA06.jpg,FS,4,num_6,16,num_6,1.31674605503,,,2017_May_24_1050,60.0062165936,FEMA4ImagesEEG,001,100364,
AFNE01.JPG,AFNE01.JPG,AFNE01.JPG,AFNE01.JPG,AFNE01.JPG,AFNE01.JPG,5,7,57,4,,,,,,,,,,,,,,,,,,,,,,,AFSA03.jpg,AFNE17.jpg,AFSA10.jpg,AFNE08.jpg,AFSA10.jpg,FS,4,num_2,16,num_2,0.833325582207,,,2017_May_24_1050,60.0062165936,FEMA4ImagesEEG,001,100364,
AFNE01.JPG,AFNE01.JPG,AFNE01.JPG,AFNE01.JPG,AFNE01.JPG,AFNE01.JPG,5,8,58,9,,,,,,,,,,,,,,,,,,,,,,,AFNE15.jpg,AFSA06.jpg,AFNE09.jpg,AFSA01.jpg,AFNE15.jpg,FN,3,num_8,16,num_8,0.850128825172,,,2017_May_24_1050,60.0062165936,FEMA4ImagesEEG,001,100364,
AFNE01.JPG,AFNE01.JPG,AFNE01.JPG,AFNE01.JPG,AFNE01.JPG,AFNE01.JPG,5,9,59,5,,,,,,,,,,,,,,,,,,,,,,,AFNE11.jpg,AFSA18.jpg,AFNE09.jpg,AFSA08.jpg,AFNE11.jpg,FN,3,num_8,16,num_8,2.46666822757,,,2017_May_24_1050,60.0062165936,FEMA4ImagesEEG,001,100364,
,,,,,,,,,,,,,,,,,,,,,,,,,,,,,,,,,,,,,,,,,,,space,5.64970743703,2017_May_24_1050,60.0062165936,FEMA4ImagesEEG,001,100364,
AFNE01.JPG,AFNE01.JPG,AFNE01.JPG,AFNE01.JPG,AFNE01.JPG,AFNE01.JPG,,,,,0,0,0,7,,,,,,,,,,,,,,,,,,,AMNE10.jpg,AMSA03.jpg,AMNE08.jpg,AMSA17.jpg,AMNE10.jpg,MN,1,num_8,32,num_2,1.5167379725,,,2017_May_24_1050,60.0062165936,FEMA4ImagesEEG,001,100364,
AFNE01.JPG,AFNE01.JPG,AFNE01.JPG,AFNE01.JPG,AFNE01.JPG,AFNE01.JPG,,,,,0,1,1,2,,,,,,,,,,,,,,,,,,,AMSA09.jpg,AMNE15.jpg,AMNE07.jpg,AMSA13.jpg,AMNE15.jpg,MN,1,num_6,16,num_6,0.700112675899,,,2017_May_24_1050,60.0062165936,FEMA4ImagesEEG,001,100364,
AFNE01.JPG,AFNE01.JPG,AFNE01.JPG,AFNE01.JPG,AFNE01.JPG,AFNE01.JPG,,,,,0,2,2,9,,,,,,,,,,,,,,,,,,,AMSA14.jpg,AMSA17.jpg,AMNE18.jpg,AMNE17.jpg,AMNE17.jpg,MN,1,num_4,16,num_4,2.19961472717,,,2017_May_24_1050,60.0062165936,FEMA4ImagesEEG,001,100364,
AFNE01.JPG,AFNE01.JPG,AFNE01.JPG,AFNE01.JPG,AFNE01.JPG,AFNE01.JPG,,,,,0,3,3,4,,,,,,,,,,,,,,,,,,,AMSA01.jpg,AMNE02.jpg,AMNE14.jpg,AMSA11.jpg,AMSA01.jpg,MS,2,num_8,32,num_4,0.800136699341,,,2017_May_24_1050,60.0062165936,FEMA4ImagesEEG,001,100364,
AFNE01.JPG,AFNE01.JPG,AFNE01.JPG,AFNE01.JPG,AFNE01.JPG,AFNE01.JPG,,,,,0,4,4,1,,,,,,,,,,,,,,,,,,,AMNE01.jpg,AMNE15.jpg,AMSA03.jpg,AMSA12.jpg,AMSA03.jpg,MS,2,num_2,32,num_4,0.833460292895,,,2017_May_24_1050,60.0062165936,FEMA4ImagesEEG,001,100364,
AFNE01.JPG,AFNE01.JPG,AFNE01.JPG,AFNE01.JPG,AFNE01.JPG,AFNE01.JPG,,,,,0,5,5,6,,,,,,,,,,,,,,,,,,,AMSA14.jpg,AMSA11.jpg,AMNE08.jpg,AMNE04.jpg,AMNE08.jpg,MN,1,num_2,16,num_2,0.749884132762,,,2017_May_24_1050,60.0062165936,FEMA4ImagesEEG,001,100364,
AFNE01.JPG,AFNE01.JPG,AFNE01.JPG,AFNE01.JPG,AFNE01.JPG,AFNE01.JPG,,,,,0,6,6,8,,,,,,,,,,,,,,,,,,,AMSA10.jpg,AMNE03.jpg,AMNE06.jpg,AMSA09.jpg,AMSA10.jpg,MS,2,num_8,16,num_8,0.800114889047,,,2017_May_24_1050,60.0062165936,FEMA4ImagesEEG,001,100364,
AFNE01.JPG,AFNE01.JPG,AFNE01.JPG,AFNE01.JPG,AFNE01.JPG,AFNE01.JPG,,,,,0,7,7,3,,,,,,,,,,,,,,,,,,,AMSA01.jpg,AMNE11.jpg,AMNE01.jpg,AMSA15.jpg,AMSA01.jpg,MS,2,num_8,16,num_8,1.95004540076,,,2017_May_24_1050,60.0062165936,FEMA4ImagesEEG,001,100364,
AFNE01.JPG,AFNE01.JPG,AFNE01.JPG,AFNE01.JPG,AFNE01.JPG,AFNE01.JPG,,,,,0,8,8,5,,,,,,,,,,,,,,,,,,,AMSA20.jpg,AMNE12.jpg,AMSA15.jpg,AMNE17.jpg,AMNE17.jpg,MN,1,num_4,16,num_4,1.50007906242,,,2017_May_24_1050,60.0062165936,FEMA4ImagesEEG,001,100364,
AFNE01.JPG,AFNE01.JPG,AFNE01.JPG,AFNE01.JPG,AFNE01.JPG,AFNE01.JPG,,,,,0,9,9,0,,,,,,,,,,,,,,,,,,,AMSA18.jpg,AMNE10.jpg,AMNE14.jpg,AMSA05.jpg,AMNE14.jpg,MN,1,num_2,32,num_6,1.13343165081,,,2017_May_24_1050,60.0062165936,FEMA4ImagesEEG,001,100364,
AFNE01.JPG,AFNE01.JPG,AFNE01.JPG,AFNE01.JPG,AFNE01.JPG,AFNE01.JPG,,,,,1,0,10,8,,,,,,,,,,,,,,,,,,,AMNE02.jpg,AMNE15.jpg,AMSA11.jpg,AMSA19.jpg,AMSA19.jpg,MS,2,num_4,32,num_8,0.883449532092,,,2017_May_24_1050,60.0062165936,FEMA4ImagesEEG,001,100364,
AFNE01.JPG,AFNE01.JPG,AFNE01.JPG,AFNE01.JPG,AFNE01.JPG,AFNE01.JPG,,,,,1,1,11,9,,,,,,,,,,,,,,,,,,,AMNE07.jpg,AMSA05.jpg,AMSA02.jpg,AMNE04.jpg,AMNE04.jpg,MN,1,num_4,32,num_8,1.23341846839,,,2017_May_24_1050,60.0062165936,FEMA4ImagesEEG,001,100364,
AFNE01.JPG,AFNE01.JPG,AFNE01.JPG,AFNE01.JPG,AFNE01.JPG,AFNE01.JPG,,,,,1,2,12,4,,,,,,,,,,,,,,,,,,,AMSA05.jpg,AMNE13.jpg,AMSA08.jpg,AMNE17.jpg,AMNE17.jpg,MN,1,num_4,16,num_4,0.73344653321,,,2017_May_24_1050,60.0062165936,FEMA4ImagesEEG,001,100364,
AFNE01.JPG,AFNE01.JPG,AFNE01.JPG,AFNE01.JPG,AFNE01.JPG,AFNE01.JPG,,,,,1,3,13,6,,,,,,,,,,,,,,,,,,,AMNE11.jpg,AMNE06.jpg,AMSA03.jpg,AMSA10.jpg,AMNE06.jpg,MN,1,num_6,16,num_6,0.666750914417,,,2017_May_24_1050,60.0062165936,FEMA4ImagesEEG,001,100364,
AFNE01.JPG,AFNE01.JPG,AFNE01.JPG,AFNE01.JPG,AFNE01.JPG,AFNE01.JPG,,,,,1,4,14,2,,,,,,,,,,,,,,,,,,,AMSA01.jpg,AMNE03.jpg,AMSA15.jpg,AMNE11.jpg,AMNE03.jpg,MN,1,num_6,32,num_8,1.06677548296,,,2017_May_24_1050,60.0062165936,FEMA4ImagesEEG,001,100364,
AFNE01.JPG,AFNE01.JPG,AFNE01.JPG,AFNE01.JPG,AFNE01.JPG,AFNE01.JPG,,,,,1,5,15,7,,,,,,,,,,,,,,,,,,,AMNE18.jpg,AMNE05.jpg,AMSA18.jpg,AMSA08.jpg,AMSA18.jpg,MS,2,num_2,16,num_2,0.950132321217,,,2017_May_24_1050,60.0062165936,FEMA4ImagesEEG,001,100364,
AFNE01.JPG,AFNE01.JPG,AFNE01.JPG,AFNE01.JPG,AFNE01.JPG,AFNE01.JPG,,,,,1,6,16,1,,,,,,,,,,,,,,,,,,,AMNE19.jpg,AMNE14.jpg,AMSA09.jpg,AMSA18.jpg,AMSA09.jpg,MS,2,num_2,32,num_4,0.783477147692,,,2017_May_24_1050,60.0062165936,FEMA4ImagesEEG,001,100364,
AFNE01.JPG,AFNE01.JPG,AFNE01.JPG,AFNE01.JPG,AFNE01.JPG,AFNE01.JPG,,,,,1,7,17,5,,,,,,,,,,,,,,,,,,,AMNE20.jpg,AMSA03.jpg,AMNE11.jpg,AMSA20.jpg,AMNE11.jpg,MN,1,num_2,16,num_2,1.01677148987,,,2017_May_24_1050,60.0062165936,FEMA4ImagesEEG,001,100364,
AFNE01.JPG,AFNE01.JPG,AFNE01.JPG,AFNE01.JPG,AFNE01.JPG,AFNE01.JPG,,,,,1,8,18,3,,,,,,,,,,,,,,,,,,,AMNE16.jpg,AMSA11.jpg,AMNE15.jpg,AMSA14.jpg,AMSA14.jpg,MS,2,num_4,16,num_4,0.633465168183,,,2017_May_24_1050,60.0062165936,FEMA4ImagesEEG,001,100364,
AFNE01.JPG,AFNE01.JPG,AFNE01.JPG,AFNE01.JPG,AFNE01.JPG,AFNE01.JPG,,,,,1,9,19,0,,,,,,,,,,,,,,,,,,,AMSA18.jpg,AMSA13.jpg,AMNE19.jpg,AMNE01.jpg,AMNE19.jpg,MN,1,num_2,32,num_6,1.10010196315,,,2017_May_24_1050,60.0062165936,FEMA4ImagesEEG,001,100364,
AFNE01.JPG,AFNE01.JPG,AFNE01.JPG,AFNE01.JPG,AFNE01.JPG,AFNE01.JPG,,,,,2,0,20,6,,,,,,,,,,,,,,,,,,,AMNE07.jpg,AMNE08.jpg,AMSA13.jpg,AMSA09.jpg,AMNE07.jpg,MN,1,num_8,32,num_6,0.666775611229,,,2017_May_24_1050,60.0062165936,FEMA4ImagesEEG,001,100364,
AFNE01.JPG,AFNE01.JPG,AFNE01.JPG,AFNE01.JPG,AFNE01.JPG,AFNE01.JPG,,,,,2,1,21,8,,,,,,,,,,,,,,,,,,,AMNE06.jpg,AMSA12.jpg,AMSA08.jpg,AMNE18.jpg,AMSA12.jpg,MS,2,num_6,16,num_6,0.516778706457,,,2017_May_24_1050,60.0062165936,FEMA4ImagesEEG,001,100364,
AFNE01.JPG,AFNE01.JPG,AFNE01.JPG,AFNE01.JPG,AFNE01.JPG,AFNE01.JPG,,,,,2,2,22,1,,,,,,,,,,,,,,,,,,,AMNE13.jpg,AMNE14.jpg,AMSA01.jpg,AMSA07.jpg,AMSA01.jpg,MS,2,num_2,32,num_4,0.816732103005,,,2017_May_24_1050,60.0062165936,FEMA4ImagesEEG,001,100364,
AFNE01.JPG,AFNE01.JPG,AFNE01.JPG,AFNE01.JPG,AFNE01.JPG,AFNE01.JPG,,,,,2,3,23,9,,,,,,,,,,,,,,,,,,,AMSA01.jpg,AMNE18.jpg,AMNE15.jpg,AMSA03.jpg,AMNE15.jpg,MN,1,num_2,32,num_8,1.15006939205,,,2017_May_24_1050,60.0062165936,FEMA4ImagesEEG,001,100364,
AFNE01.JPG,AFNE01.JPG,AFNE01.JPG,AFNE01.JPG,AFNE01.JPG,AFNE01.JPG,,,,,2,4,24,3,,,,,,,,,,,,,,,,,,,AMNE02.jpg,AMSA01.jpg,AMSA05.jpg,AMNE05.jpg,AMNE05.jpg,MN,1,num_4,16,num_4,0.766775258584,,,2017_May_24_1050,60.0062165936,FEMA4ImagesEEG,001,100364,
AFNE01.JPG,AFNE01.JPG,AFNE01.JPG,AFNE01.JPG,AFNE01.JPG,AFNE01.JPG,,,,,2,5,25,5,,,,,,,,,,,,,,,,,,,AMSA12.jpg,AMNE03.jpg,AMNE14.jpg,AMSA16.jpg,AMSA16.jpg,MS,2,num_4,16,num_4,0.950124944327,,,2017_May_24_1050,60.0062165936,FEMA4ImagesEEG,001,100364,
AFNE01.JPG,AFNE01.JPG,AFNE01.JPG,AFNE01.JPG,AFNE01.JPG,AFNE01.JPG,,,,,2,6,26,2,,,,,,,,,,,,,,,,,,,AMSA06.jpg,AMNE02.jpg,AMSA07.jpg,AMNE06.jpg,AMNE06.jpg,MN,1,num_4,32,num_8,1.01677726314,,,2017_May_24_1050,60.0062165936,FEMA4ImagesEEG,001,100364,
AFNE01.JPG,AFNE01.JPG,AFNE01.JPG,AFNE01.JPG,AFNE01.JPG,AFNE01.JPG,,,,,2,7,27,7,,,,,,,,,,,,,,,,,,,AMNE13.jpg,AMNE20.jpg,AMSA17.jpg,AMSA07.jpg,AMNE13.jpg,MN,1,num_8,16,num_8,1.30009163544,,,2017_May_24_1050,60.0062165936,FEMA4ImagesEEG,001,100364,
AFNE01.JPG,AFNE01.JPG,AFNE01.JPG,AFNE01.JPG,AFNE01.JPG,AFNE01.JPG,,,,,2,8,28,0,,,,,,,,,,,,,,,,,,,AMNE19.jpg,AMNE16.jpg,AMSA18.jpg,AMSA10.jpg,AMNE16.jpg,MN,1,num_6,16,num_6,0.783463355969,,,2017_May_24_1050,60.0062165936,FEMA4ImagesEEG,001,100364,
AFNE01.JPG,AFNE01.JPG,AFNE01.JPG,AFNE01.JPG,AFNE01.JPG,AFNE01.JPG,,,,,2,9,29,4,,,,,,,,,,,,,,,,,,,AMNE17.jpg,AMNE12.jpg,AMSA11.jpg,AMSA20.jpg,AMNE17.jpg,MN,1,num_8,32,num_6,1.75000024063,,,2017_May_24_1050,60.0062165936,FEMA4ImagesEEG,001,100364,
AFNE01.JPG,AFNE01.JPG,AFNE01.JPG,AFNE01.JPG,AFNE01.JPG,AFNE01.JPG,,,,,3,0,30,4,,,,,,,,,,,,,,,,,,,AMSA19.jpg,AMNE18.jpg,AMNE13.jpg,AMSA13.jpg,AMSA13.jpg,MS,2,num_4,32,num_8,1.6500576851,,,2017_May_24_1050,60.0062165936,FEMA4ImagesEEG,001,100364,
AFNE01.JPG,AFNE01.JPG,AFNE01.JPG,AFNE01.JPG,AFNE01.JPG,AFNE01.JPG,,,,,3,1,31,7,,,,,,,,,,,,,,,,,,,AMSA04.jpg,AMNE16.jpg,AMNE02.jpg,AMSA05.jpg,AMNE16.jpg,MN,1,num_6,32,num_8,1.56670475984,,,2017_May_24_1050,60.0062165936,FEMA4ImagesEEG,001,100364,
AFNE01.JPG,AFNE01.JPG,AFNE01.JPG,AFNE01.JPG,AFNE01.JPG,AFNE01.JPG,,,,,3,2,32,2,,,,,,,,,,,,,,,,,,,AMSA13.jpg,AMNE18.jpg,AMSA14.jpg,AMNE01.jpg,AMNE01.jpg,MN,1,num_4,16,num_4,0.933406055789,,,2017_May_24_1050,60.0062165936,FEMA4ImagesEEG,001,100364,
AFNE01.JPG,AFNE01.JPG,AFNE01.JPG,AFNE01.JPG,AFNE01.JPG,AFNE01.JPG,,,,,3,3,33,1,,,,,,,,,,,,,,,,,,,AMNE08.jpg,AMSA03.jpg,AMNE03.jpg,AMSA17.jpg,AMSA03.jpg,MS,2,num_6,16,num_6,0.500131984474,,,2017_May_24_1050,60.0062165936,FEMA4ImagesEEG,001,100364,
AFNE01.JPG,AFNE01.JPG,AFNE01.JPG,AFNE01.JPG,AFNE01.JPG,AFNE01.JPG,,,,,3,4,34,3,,,,,,,,,,,,,,,,,,,AMSA03.jpg,AMNE14.jpg,AMNE13.jpg,AMSA07.jpg,AMNE14.jpg,MN,1,num_6,16,num_6,0.750109292101,,,2017_May_24_1050,60.0062165936,FEMA4ImagesEEG,001,100364,
AFNE01.JPG,AFNE01.JPG,AFNE01.JPG,AFNE01.JPG,AFNE01.JPG,AFNE01.JPG,,,,,3,5,35,6,,,,,,,,,,,,,,,,,,,AMNE15.jpg,AMSA19.jpg,AMSA12.jpg,AMNE10.jpg,AMSA19.jpg,MS,2,num_6,32,num_4,0.849914570921,,,2017_May_24_1050,60.0062165936,FEMA4ImagesEEG,001,100364,
AFNE01.JPG,AFNE01.JPG,AFNE01.JPG,AFNE01.JPG,AFNE01.JPG,AFNE01.JPG,,,,,3,6,36,9,,,,,,,,,,,,,,,,,,,AMSA05.jpg,AMNE01.jpg,AMNE06.jpg,AMSA20.jpg,AMSA20.jpg,MS,2,num_4,16,num_4,0.68349385832,,,2017_May_24_1050,60.0062165936,FEMA4ImagesEEG,001,100364,
AFNE01.JPG,AFNE01.JPG,AFNE01.JPG,AFNE01.JPG,AFNE01.JPG,AFNE01.JPG,,,,,3,7,37,5,,,,,,,,,,,,,,,,,,,AMSA10.jpg,AMNE05.jpg,AMNE15.jpg,AMSA03.jpg,AMSA03.jpg,MS,2,num_4,16,num_4,0.616806257982,,,2017_May_24_1050,60.0062165936,FEMA4ImagesEEG,001,100364,
AFNE01.JPG,AFNE01.JPG,AFNE01.JPG,AFNE01.JPG,AFNE01.JPG,AFNE01.JPG,,,,,3,8,38,0,,,,,,,,,,,,,,,,,,,AMSA16.jpg,AMNE07.jpg,AMSA05.jpg,AMNE05.jpg,AMSA16.jpg,MS,2,num_8,32,num_2,0.70011812856,,,2017_May_24_1050,60.0062165936,FEMA4ImagesEEG,001,100364,
AFNE01.JPG,AFNE01.JPG,AFNE01.JPG,AFNE01.JPG,AFNE01.JPG,AFNE01.JPG,,,,,3,9,39,8,,,,,,,,,,,,,,,,,,,AMSA15.jpg,AMNE20.jpg,AMSA19.jpg,AMNE13.jpg,AMSA15.jpg,MS,2,num_8,16,num_8,0.766643755138,,,2017_May_24_1050,60.0062165936,FEMA4ImagesEEG,001,100364,
AFNE01.JPG,AFNE01.JPG,AFNE01.JPG,AFNE01.JPG,AFNE01.JPG,AFNE01.JPG,,,,,4,0,40,3,,,,,,,,,,,,,,,,,,,AMSA07.jpg,AMNE05.jpg,AMSA10.jpg,AMNE04.jpg,AMNE05.jpg,MN,1,num_6,16,num_6,0.516885512858,,,2017_May_24_1050,60.0062165936,FEMA4ImagesEEG,001,100364,
AFNE01.JPG,AFNE01.JPG,AFNE01.JPG,AFNE01.JPG,AFNE01.JPG,AFNE01.JPG,,,,,4,1,41,6,,,,,,,,,,,,,,,,,,,AMNE08.jpg,AMNE06.jpg,AMSA10.jpg,AMSA20.jpg,AMSA20.jpg,MS,2,num_4,16,num_4,0.610801044619,,,2017_May_24_1050,60.0062165936,FEMA4ImagesEEG,001,100364,
AFNE01.JPG,AFNE01.JPG,AFNE01.JPG,AFNE01.JPG,AFNE01.JPG,AFNE01.JPG,,,,,4,2,42,9,,,,,,,,,,,,,,,,,,,AMNE19.jpg,AMSA05.jpg,AMSA07.jpg,AMNE17.jpg,AMSA07.jpg,MS,2,num_2,32,num_6,1.38339837408,,,2017_May_24_1050,60.0062165936,FEMA4ImagesEEG,001,100364,
AFNE01.JPG,AFNE01.JPG,AFNE01.JPG,AFNE01.JPG,AFNE01.JPG,AFNE01.JPG,,,,,4,3,43,1,,,,,,,,,,,,,,,,,,,AMNE01.jpg,AMNE13.jpg,AMSA12.jpg,AMSA20.jpg,AMNE01.jpg,MN,1,num_8,16,num_8,1.15008991945,,,2017_May_24_1050,60.0062165936,FEMA4ImagesEEG,001,100364,
AFNE01.JPG,AFNE01.JPG,AFNE01.JPG,AFNE01.JPG,AFNE01.JPG,AFNE01.JPG,,,,,4,4,44,8,,,,,,,,,,,,,,,,,,,AMNE03.jpg,AMNE20.jpg,AMSA09.jpg,AMSA10.jpg,AMSA09.jpg,MS,2,num_2,32,num_4,1.26673596783,,,2017_May_24_1050,60.0062165936,FEMA4ImagesEEG,001,100364,
AFNE01.JPG,AFNE01.JPG,AFNE01.JPG,AFNE01.JPG,AFNE01.JPG,AFNE01.JPG,,,,,4,5,45,4,,,,,,,,,,,,,,,,,,,AMNE17.jpg,AMNE13.jpg,AMSA10.jpg,AMSA06.jpg,AMNE17.jpg,MN,1,num_8,16,num_8,1.25001643784,,,2017_May_24_1050,60.0062165936,FEMA4ImagesEEG,001,100364,
AFNE01.JPG,AFNE01.JPG,AFNE01.JPG,AFNE01.JPG,AFNE01.JPG,AFNE01.JPG,,,,,4,6,46,7,,,,,,,,,,,,,,,,,,,AMSA05.jpg,AMNE07.jpg,AMSA04.jpg,AMNE18.jpg,AMNE18.jpg,MN,1,num_4,32,num_8,1.73340483697,,,2017_May_24_1050,60.0062165936,FEMA4ImagesEEG,001,100364,
AFNE01.JPG,AFNE01.JPG,AFNE01.JPG,AFNE01.JPG,AFNE01.JPG,AFNE01.JPG,,,,,4,7,47,2,,,,,,,,,,,,,,,,,,,AMSA18.jpg,AMNE20.jpg,AMNE08.jpg,AMSA09.jpg,AMSA18.jpg,MS,2,num_8,32,num_4,0.950103454641,,,2017_May_24_1050,60.0062165936,FEMA4ImagesEEG,001,100364,
AFNE01.JPG,AFNE01.JPG,AFNE01.JPG,AFNE01.JPG,AFNE01.JPG,AFNE01.JPG,,,,,4,8,48,5,,,,,,,,,,,,,,,,,,,AMSA01.jpg,AMNE19.jpg,AMNE11.jpg,AMSA12.jpg,AMNE19.jpg,MN,1,num_6,16,num_6,0.900153987226,,,2017_May_24_1050,60.0062165936,FEMA4ImagesEEG,001,100364,
AFNE01.JPG,AFNE01.JPG,AFNE01.JPG,AFNE01.JPG,AFNE01.JPG,AFNE01.JPG,,,,,4,9,49,0,,,,,,,,,,,,,,,,,,,AMSA15.jpg,AMSA16.jpg,AMNE06.jpg,AMNE17.jpg,AMNE06.jpg,MN,1,num_2,32,num_4,0.766767239897,,,2017_May_24_1050,60.0062165936,FEMA4ImagesEEG,001,100364,
AFNE01.JPG,AFNE01.JPG,AFNE01.JPG,AFNE01.JPG,AFNE01.JPG,AFNE01.JPG,,,,,5,0,50,3,,,,,,,,,,,,,,,,,,,AMNE15.jpg,AMSA07.jpg,AMSA12.jpg,AMNE02.jpg,AMSA07.jpg,MS,2,num_6,16,num_6,1.18346996314,,,2017_May_24_1050,60.0062165936,FEMA4ImagesEEG,001,100364,
AFNE01.JPG,AFNE01.JPG,AFNE01.JPG,AFNE01.JPG,AFNE01.JPG,AFNE01.JPG,,,,,5,1,51,1,,,,,,,,,,,,,,,,,,,AMNE02.jpg,AMSA15.jpg,AMSA02.jpg,AMNE19.jpg,AMNE02.jpg,MN,1,num_8,32,num_4,0.783449243405,,,2017_May_24_1050,60.0062165936,FEMA4ImagesEEG,001,100364,
AFNE01.JPG,AFNE01.JPG,AFNE01.JPG,AFNE01.JPG,AFNE01.JPG,AFNE01.JPG,,,,,5,2,52,9,,,,,,,,,,,,,,,,,,,AMNE20.jpg,AMSA08.jpg,AMSA14.jpg,AMNE06.jpg,AMNE06.jpg,MN,1,num_4,32,num_8,1.03352373524,,,2017_May_24_1050,60.0062165936,FEMA4ImagesEEG,001,100364,
AFNE01.JPG,AFNE01.JPG,AFNE01.JPG,AFNE01.JPG,AFNE01.JPG,AFNE01.JPG,,,,,5,3,53,5,,,,,,,,,,,,,,,,,,,AMNE17.jpg,AMSA06.jpg,AMNE10.jpg,AMSA14.jpg,AMNE10.jpg,MN,1,num_2,32,num_8,0.866749246488,,,2017_May_24_1050,60.0062165936,FEMA4ImagesEEG,001,100364,
AFNE01.JPG,AFNE01.JPG,AFNE01.JPG,AFNE01.JPG,AFNE01.JPG,AFNE01.JPG,,,,,5,4,54,7,,,,,,,,,,,,,,,,,,,AMSA14.jpg,AMSA03.jpg,AMNE07.jpg,AMNE15.jpg,AMNE15.jpg,MN,1,num_4,16,num_4,0.733482135343,,,2017_May_24_1050,60.0062165936,FEMA4ImagesEEG,001,100364,
AFNE01.JPG,AFNE01.JPG,AFNE01.JPG,AFNE01.JPG,AFNE01.JPG,AFNE01.JPG,,,,,5,5,55,4,,,,,,,,,,,,,,,,,,,AMSA14.jpg,AMNE10.jpg,AMSA02.jpg,AMNE16.jpg,AMSA14.jpg,MS,2,num_8,16,num_8,0.91678371001,,,2017_May_24_1050,60.0062165936,FEMA4ImagesEEG,001,100364,
AFNE01.JPG,AFNE01.JPG,AFNE01.JPG,AFNE01.JPG,AFNE01.JPG,AFNE01.JPG,,,,,5,6,56,0,,,,,,,,,,,,,,,,,,,AMSA13.jpg,AMNE05.jpg,AMNE07.jpg,AMSA04.jpg,AMNE05.jpg,MN,1,num_6,32,num_2,1.13343357528,,,2017_May_24_1050,60.0062165936,FEMA4ImagesEEG,001,100364,
AFNE01.JPG,AFNE01.JPG,AFNE01.JPG,AFNE01.JPG,AFNE01.JPG,AFNE01.JPG,,,,,5,7,57,2,,,,,,,,,,,,,,,,,,,AMSA18.jpg,AMSA14.jpg,AMNE02.jpg,AMNE17.jpg,AMSA18.jpg,MS,2,num_8,32,num_2,0.78346784634,,,2017_May_24_1050,60.0062165936,FEMA4ImagesEEG,001,100364,
AFNE01.JPG,AFNE01.JPG,AFNE01.JPG,AFNE01.JPG,AFNE01.JPG,AFNE01.JPG,,,,,5,8,58,8,,,,,,,,,,,,,,,,,,,AMSA18.jpg,AMNE14.jpg,AMNE04.jpg,AMSA05.jpg,AMNE14.jpg,MN,1,num_6,32,num_2,1.05005819828,,,2017_May_24_1050,60.0062165936,FEMA4ImagesEEG,001,100364,
AFNE01.JPG,AFNE01.JPG,AFNE01.JPG,AFNE01.JPG,AFNE01.JPG,AFNE01.JPG,,,,,5,9,59,6,,,,,,,,,,,,,,,,,,,AMSA01.jpg,AMNE03.jpg,AMSA04.jpg,AMNE06.jpg,AMNE06.jpg,MN,1,num_4,16,num_4,0.583465344505,,,2017_May_24_1050,60.0062165936,FEMA4ImagesEEG,001,100364,
,,,,,,,,,,,,,,,,,,,,,,,,,,,,,,,,,,,,,,,,,,,space,2.63331570325,2017_May_24_1050,60.0062165936,FEMA4ImagesEEG,001,100364,
AFNE01.JPG,AFNE01.JPG,AFNE01.JPG,AFNE01.JPG,AFNE01.JPG,AFNE01.JPG,,,,,,,,,0,0,0,1,,,,,,,,,,,,,,,AFSA02.jpg,AFNE08.jpg,AFSA16.jpg,AFNE07.jpg,AFNE07.jpg,FN,3,num_4,16,num_4,0.633500449476,,,2017_May_24_1050,60.0062165936,FEMA4ImagesEEG,001,100364,
AFNE01.JPG,AFNE01.JPG,AFNE01.JPG,AFNE01.JPG,AFNE01.JPG,AFNE01.JPG,,,,,,,,,0,1,1,3,,,,,,,,,,,,,,,AFSA01.jpg,AFNE17.jpg,AFNE16.jpg,AFSA14.jpg,AFSA01.jpg,FS,4,num_8,32,num_6,0.633463243721,,,2017_May_24_1050,60.0062165936,FEMA4ImagesEEG,001,100364,
AFNE01.JPG,AFNE01.JPG,AFNE01.JPG,AFNE01.JPG,AFNE01.JPG,AFNE01.JPG,,,,,,,,,0,2,2,5,,,,,,,,,,,,,,,AFSA19.jpg,AFNE04.jpg,AFSA15.jpg,AFNE09.jpg,AFSA19.jpg,FS,4,num_8,32,num_4,1.63331666554,,,2017_May_24_1050,60.0062165936,FEMA4ImagesEEG,001,100364,
AFNE01.JPG,AFNE01.JPG,AFNE01.JPG,AFNE01.JPG,AFNE01.JPG,AFNE01.JPG,,,,,,,,,0,3,3,9,,,,,,,,,,,,,,,AFSA12.jpg,AFNE15.jpg,AFNE19.jpg,AFSA06.jpg,AFSA12.jpg,FS,4,num_8,16,num_8,0.683459218475,,,2017_May_24_1050,60.0062165936,FEMA4ImagesEEG,001,100364,
AFNE01.JPG,AFNE01.JPG,AFNE01.JPG,AFNE01.JPG,AFNE01.JPG,AFNE01.JPG,,,,,,,,,0,4,4,0,,,,,,,,,,,,,,,AFSA03.jpg,AFNE13.jpg,AFNE11.jpg,AFSA06.jpg,AFNE11.jpg,FN,3,num_2,32,num_4,2.08335196308,,,2017_May_24_1050,60.0062165936,FEMA4ImagesEEG,001,100364,
AFNE01.JPG,AFNE01.JPG,AFNE01.JPG,AFNE01.JPG,AFNE01.JPG,AFNE01.JPG,,,,,,,,,0,5,5,8,,,,,,,,,,,,,,,AFSA14.jpg,AFNE08.jpg,AFNE13.jpg,AFSA09.jpg,AFSA14.jpg,FS,4,num_8,32,num_2,2.28331661748,,,2017_May_24_1050,60.0062165936,FEMA4ImagesEEG,001,100364,
AFNE01.JPG,AFNE01.JPG,AFNE01.JPG,AFNE01.JPG,AFNE01.JPG,AFNE01.JPG,,,,,,,,,0,6,6,4,,,,,,,,,,,,,,,AFNE03.jpg,AFNE16.jpg,AFSA02.jpg,AFSA01.jpg,AFNE16.jpg,FN,3,num_6,16,num_6,0.816789836157,,,2017_May_24_1050,60.0062165936,FEMA4ImagesEEG,001,100364,
AFNE01.JPG,AFNE01.JPG,AFNE01.JPG,AFNE01.JPG,AFNE01.JPG,AFNE01.JPG,,,,,,,,,0,7,7,7,,,,,,,,,,,,,,,AFNE07.jpg,AFSA13.jpg,AFNE03.jpg,AFSA06.jpg,AFNE07.jpg,FN,3,num_8,16,num_8,0.633462281432,,,2017_May_24_1050,60.0062165936,FEMA4ImagesEEG,001,100364,
AFNE01.JPG,AFNE01.JPG,AFNE01.JPG,AFNE01.JPG,AFNE01.JPG,AFNE01.JPG,,,,,,,,,0,8,8,2,,,,,,,,,,,,,,,AFNE16.jpg,AFSA15.jpg,AFNE08.jpg,AFSA12.jpg,AFNE16.jpg,FN,3,num_8,16,num_8,1.45006159809,,,2017_May_24_1050,60.0062165936,FEMA4ImagesEEG,001,100364,
AFNE01.JPG,AFNE01.JPG,AFNE01.JPG,AFNE01.JPG,AFNE01.JPG,AFNE01.JPG,,,,,,,,,0,9,9,6,,,,,,,,,,,,,,,AFSA15.jpg,AFSA01.jpg,AFNE07.jpg,AFNE16.jpg,AFSA01.jpg,FS,4,num_6,16,num_6,1.33345788729,,,2017_May_24_1050,60.0062165936,FEMA4ImagesEEG,001,100364,
AFNE01.JPG,AFNE01.JPG,AFNE01.JPG,AFNE01.JPG,AFNE01.JPG,AFNE01.JPG,,,,,,,,,1,0,10,5,,,,,,,,,,,,,,,AFSA19.jpg,AFNE08.jpg,AFSA14.jpg,AFNE05.jpg,AFNE08.jpg,FN,3,num_6,32,num_2,2.83342661522,,,2017_May_24_1050,60.0062165936,FEMA4ImagesEEG,001,100364,
AFNE01.JPG,AFNE01.JPG,AFNE01.JPG,AFNE01.JPG,AFNE01.JPG,AFNE01.JPG,,,,,,,,,1,1,11,1,,,,,,,,,,,,,,,AFSA08.jpg,AFSA05.jpg,AFNE17.jpg,AFNE14.jpg,AFNE17.jpg,FN,3,num_2,32,num_8,1.21676757687,,,2017_May_24_1050,60.0062165936,FEMA4ImagesEEG,001,100364,
AFNE01.JPG,AFNE01.JPG,AFNE01.JPG,AFNE01.JPG,AFNE01.JPG,AFNE01.JPG,,,,,,,,,1,2,12,7,,,,,,,,,,,,,,,AFSA08.jpg,AFNE13.jpg,AFNE01.jpg,AFSA16.jpg,AFNE01.jpg,FN,3,num_2,32,num_6,0.850110863685,,,2017_May_24_1050,60.0062165936,FEMA4ImagesEEG,001,100364,
AFNE01.JPG,AFNE01.JPG,AFNE01.JPG,AFNE01.JPG,AFNE01.JPG,AFNE01.JPG,,,,,,,,,1,3,13,4,,,,,,,,,,,,,,,AFNE10.jpg,AFSA12.jpg,AFSA09.jpg,AFNE02.jpg,AFNE10.jpg,FN,3,num_8,16,num_8,0.850111505133,,,2017_May_24_1050,60.0062165936,FEMA4ImagesEEG,001,100364,
AFNE01.JPG,AFNE01.JPG,AFNE01.JPG,AFNE01.JPG,AFNE01.JPG,AFNE01.JPG,,,,,,,,,1,4,14,2,,,,,,,,,,,,,,,AFSA09.jpg,AFNE14.jpg,AFNE06.jpg,AFSA01.jpg,AFNE14.jpg,FN,3,num_6,32,num_2,1.1001061328,,,2017_May_24_1050,60.0062165936,FEMA4ImagesEEG,001,100364,
AFNE01.JPG,AFNE01.JPG,AFNE01.JPG,AFNE01.JPG,AFNE01.JPG,AFNE01.JPG,,,,,,,,,1,5,15,0,,,,,,,,,,,,,,,AFSA02.jpg,AFNE01.jpg,AFNE07.jpg,AFSA17.jpg,AFNE07.jpg,FN,3,num_2,16,num_2,0.700154692749,,,2017_May_24_1050,60.0062165936,FEMA4ImagesEEG,001,100364,
AFNE01.JPG,AFNE01.JPG,AFNE01.JPG,AFNE01.JPG,AFNE01.JPG,AFNE01.JPG,,,,,,,,,1,6,16,6,,,,,,,,,,,,,,,AFSA16.jpg,AFNE07.jpg,AFSA01.jpg,AFNE19.jpg,AFSA16.jpg,FS,4,num_8,16,num_8,1.03368891636,,,2017_May_24_1050,60.0062165936,FEMA4ImagesEEG,001,100364,
AFNE01.JPG,AFNE01.JPG,AFNE01.JPG,AFNE01.JPG,AFNE01.JPG,AFNE01.JPG,,,,,,,,,1,7,17,8,,,,,,,,,,,,,,,AFSA07.jpg,AFNE13.jpg,AFNE16.jpg,AFSA12.jpg,AFNE13.jpg,FN,3,num_6,32,num_4,1.1333803325,,,2017_May_24_1050,60.0062165936,FEMA4ImagesEEG,001,100364,
AFNE01.JPG,AFNE01.JPG,AFNE01.JPG,AFNE01.JPG,AFNE01.JPG,AFNE01.JPG,,,,,,,,,1,8,18,3,,,,,,,,,,,,,,,AFSA09.jpg,AFSA07.jpg,AFNE04.jpg,AFNE08.jpg,AFSA09.jpg,FS,4,num_8,16,num_8,0.76672810968,,,2017_May_24_1050,60.0062165936,FEMA4ImagesEEG,001,100364,
AFNE01.JPG,AFNE01.JPG,AFNE01.JPG,AFNE01.JPG,AFNE01.JPG,AFNE01.JPG,,,,,,,,,1,9,19,9,,,,,,,,,,,,,,,AFNE09.jpg,AFSA07.jpg,AFNE02.jpg,AFSA15.jpg,AFNE09.jpg,FN,3,num_8,16,num_8,0.766791295493,,,2017_May_24_1050,60.0062165936,FEMA4ImagesEEG,001,100364,
AFNE01.JPG,AFNE01.JPG,AFNE01.JPG,AFNE01.JPG,AFNE01.JPG,AFNE01.JPG,,,,,,,,,2,0,20,7,,,,,,,,,,,,,,,AFNE20.jpg,AFSA08.jpg,AFSA20.jpg,AFNE08.jpg,AFNE20.jpg,FN,3,num_8,16,num_8,0.733463211684,,,2017_May_24_1050,60.0062165936,FEMA4ImagesEEG,001,100364,
AFNE01.JPG,AFNE01.JPG,AFNE01.JPG,AFNE01.JPG,AFNE01.JPG,AFNE01.JPG,,,,,,,,,2,1,21,1,,,,,,,,,,,,,,,AFSA18.jpg,AFSA07.jpg,AFNE12.jpg,AFNE18.jpg,AFSA18.jpg,FS,4,num_8,16,num_8,1.45011772763,,,2017_May_24_1050,60.0062165936,FEMA4ImagesEEG,001,100364,
AFNE01.JPG,AFNE01.JPG,AFNE01.JPG,AFNE01.JPG,AFNE01.JPG,AFNE01.JPG,,,,,,,,,2,2,22,8,,,,,,,,,,,,,,,AFSA09.jpg,AFNE20.jpg,AFNE06.jpg,AFSA04.jpg,AFSA09.jpg,FS,4,num_8,16,num_8,0.866740265861,,,2017_May_24_1050,60.0062165936,FEMA4ImagesEEG,001,100364,
AFNE01.JPG,AFNE01.JPG,AFNE01.JPG,AFNE01.JPG,AFNE01.JPG,AFNE01.JPG,,,,,,,,,2,3,23,5,,,,,,,,,,,,,,,AFSA03.jpg,AFNE05.jpg,AFSA08.jpg,AFNE08.jpg,AFNE08.jpg,FN,3,num_4,16,num_4,0.900122875464,,,2017_May_24_1050,60.0062165936,FEMA4ImagesEEG,001,100364,
AFNE01.JPG,AFNE01.JPG,AFNE01.JPG,AFNE01.JPG,AFNE01.JPG,AFNE01.JPG,,,,,,,,,2,4,24,6,,,,,,,,,,,,,,,AFNE19.jpg,AFSA01.jpg,AFNE01.jpg,AFSA13.jpg,AFSA01.jpg,FS,4,num_6,16,num_6,0.483567051124,,,2017_May_24_1050,60.0062165936,FEMA4ImagesEEG,001,100364,
AFNE01.JPG,AFNE01.JPG,AFNE01.JPG,AFNE01.JPG,AFNE01.JPG,AFNE01.JPG,,,,,,,,,2,5,25,0,,,,,,,,,,,,,,,AFNE20.jpg,AFSA04.jpg,AFNE01.jpg,AFSA03.jpg,AFNE20.jpg,FN,3,num_8,32,num_2,1.11670859274,,,2017_May_24_1050,60.0062165936,FEMA4ImagesEEG,001,100364,
AFNE01.JPG,AFNE01.JPG,AFNE01.JPG,AFNE01.JPG,AFNE01.JPG,AFNE01.JPG,,,,,,,,,2,6,26,4,,,,,,,,,,,,,,,AFNE16.jpg,AFSA10.jpg,AFSA13.jpg,AFNE08.jpg,AFNE08.jpg,FN,3,num_4,16,num_4,1.51657824405,,,2017_May_24_1050,60.0062165936,FEMA4ImagesEEG,001,100364,
AFNE01.JPG,AFNE01.JPG,AFNE01.JPG,AFNE01.JPG,AFNE01.JPG,AFNE01.JPG,,,,,,,,,2,7,27,9,,,,,,,,,,,,,,,AFNE02.jpg,AFSA02.jpg,AFSA14.jpg,AFNE05.jpg,AFNE02.jpg,FN,3,num_8,16,num_8,0.950095756911,,,2017_May_24_1050,60.0062165936,FEMA4ImagesEEG,001,100364,
AFNE01.JPG,AFNE01.JPG,AFNE01.JPG,AFNE01.JPG,AFNE01.JPG,AFNE01.JPG,,,,,,,,,2,8,28,2,,,,,,,,,,,,,,,AFNE06.jpg,AFSA13.jpg,AFNE08.jpg,AFSA14.jpg,AFNE08.jpg,FN,3,num_2,32,num_8,0.799987876089,,,2017_May_24_1050,60.0062165936,FEMA4ImagesEEG,001,100364,
AFNE01.JPG,AFNE01.JPG,AFNE01.JPG,AFNE01.JPG,AFNE01.JPG,AFNE01.JPG,,,,,,,,,2,9,29,3,,,,,,,,,,,,,,,AFNE03.jpg,AFSA12.jpg,AFSA07.jpg,AFNE05.jpg,AFNE03.jpg,FN,3,num_8,16,num_8,0.900117102079,,,2017_May_24_1050,60.0062165936,FEMA4ImagesEEG,001,100364,
AFNE01.JPG,AFNE01.JPG,AFNE01.JPG,AFNE01.JPG,AFNE01.JPG,AFNE01.JPG,,,,,,,,,3,0,30,5,,,,,,,,,,,,,,,AFNE11.jpg,AFSA07.jpg,AFNE18.jpg,AFSA13.jpg,AFNE18.jpg,FN,3,num_2,16,num_2,1.18345039804,,,2017_May_24_1050,60.0062165936,FEMA4ImagesEEG,001,100364,
AFNE01.JPG,AFNE01.JPG,AFNE01.JPG,AFNE01.JPG,AFNE01.JPG,AFNE01.JPG,,,,,,,,,3,1,31,3,,,,,,,,,,,,,,,AFSA10.jpg,AFNE16.jpg,AFNE13.jpg,AFSA09.jpg,AFSA09.jpg,FS,4,num_4,16,num_4,0.633488902939,,,2017_May_24_1050,60.0062165936,FEMA4ImagesEEG,001,100364,
AFNE01.JPG,AFNE01.JPG,AFNE01.JPG,AFNE01.JPG,AFNE01.JPG,AFNE01.JPG,,,,,,,,,3,2,32,8,,,,,,,,,,,,,,,AFNE13.jpg,AFSA10.jpg,AFNE07.jpg,AFSA02.jpg,AFNE07.jpg,FN,3,num_2,16,num_2,1.01706208009,,,2017_May_24_1050,60.0062165936,FEMA4ImagesEEG,001,100364,
AFNE01.JPG,AFNE01.JPG,AFNE01.JPG,AFNE01.JPG,AFNE01.JPG,AFNE01.JPG,,,,,,,,,3,3,33,2,,,,,,,,,,,,,,,AFSA16.jpg,AFSA08.jpg,AFNE13.jpg,AFNE07.jpg,AFSA08.jpg,FS,4,num_6,32,num_8,1.13342683972,,,2017_May_24_1050,60.0062165936,FEMA4ImagesEEG,001,100364,
AFNE01.JPG,AFNE01.JPG,AFNE01.JPG,AFNE01.JPG,AFNE01.JPG,AFNE01.JPG,,,,,,,,,3,4,34,9,,,,,,,,,,,,,,,AFSA13.jpg,AFSA18.jpg,AFNE19.jpg,AFNE12.jpg,AFSA18.jpg,FS,4,num_6,32,num_8,0.816742045921,,,2017_May_24_1050,60.0062165936,FEMA4ImagesEEG,001,100364,
AFNE01.JPG,AFNE01.JPG,AFNE01.JPG,AFNE01.JPG,AFNE01.JPG,AFNE01.JPG,,,,,,,,,3,5,35,1,,,,,,,,,,,,,,,AFSA02.jpg,AFNE20.jpg,AFNE03.jpg,AFSA05.jpg,AFSA05.jpg,FS,4,num_4,16,num_4,1.04998763558,,,2017_May_24_1050,60.0062165936,FEMA4ImagesEEG,001,100364,
AFNE01.JPG,AFNE01.JPG,AFNE01.JPG,AFNE01.JPG,AFNE01.JPG,AFNE01.JPG,,,,,,,,,3,6,36,0,,,,,,,,,,,,,,,AFSA17.jpg,AFNE03.jpg,AFNE07.jpg,AFSA09.jpg,AFSA09.jpg,FS,4,num_4,16,num_4,0.766804445768,,,2017_May_24_1050,60.0062165936,FEMA4ImagesEEG,001,100364,
AFNE01.JPG,AFNE01.JPG,AFNE01.JPG,AFNE01.JPG,AFNE01.JPG,AFNE01.JPG,,,,,,,,,3,7,37,7,,,,,,,,,,,,,,,AFNE13.jpg,AFSA16.jpg,AFNE07.jpg,AFSA09.jpg,AFNE07.jpg,FN,3,num_2,16,num_2,0.933475335594,,,2017_May_24_1050,60.0062165936,FEMA4ImagesEEG,001,100364,
AFNE01.JPG,AFNE01.JPG,AFNE01.JPG,AFNE01.JPG,AFNE01.JPG,AFNE01.JPG,,,,,,,,,3,8,38,6,,,,,,,,,,,,,,,AFNE03.jpg,AFSA16.jpg,AFNE19.jpg,AFSA06.jpg,AFNE19.jpg,FN,3,num_2,32,num_8,1.05013325135,,,2017_May_24_1050,60.0062165936,FEMA4ImagesEEG,001,100364,
AFNE01.JPG,AFNE01.JPG,AFNE01.JPG,AFNE01.JPG,AFNE01.JPG,AFNE01.JPG,,,,,,,,,3,9,39,4,,,,,,,,,,,,,,,AFSA17.jpg,AFSA18.jpg,AFNE20.jpg,AFNE17.jpg,AFNE20.jpg,FN,3,num_2,16,num_2,1.13346757367,,,2017_May_24_1050,60.0062165936,FEMA4ImagesEEG,001,100364,
AFNE01.JPG,AFNE01.JPG,AFNE01.JPG,AFNE01.JPG,AFNE01.JPG,AFNE01.JPG,,,,,,,,,4,0,40,2,,,,,,,,,,,,,,,AFSA12.jpg,AFSA13.jpg,AFNE08.jpg,AFNE15.jpg,AFNE15.jpg,FN,3,num_4,16,num_4,0.86673737911,,,2017_May_24_1050,60.0062165936,FEMA4ImagesEEG,001,100364,
AFNE01.JPG,AFNE01.JPG,AFNE01.JPG,AFNE01.JPG,AFNE01.JPG,AFNE01.JPG,,,,,,,,,4,1,41,6,,,,,,,,,,,,,,,AFNE19.jpg,AFSA02.jpg,AFNE06.jpg,AFSA20.jpg,AFSA02.jpg,FS,4,num_6,32,num_8,0.833440086339,,,2017_May_24_1050,60.0062165936,FEMA4ImagesEEG,001,100364,
AFNE01.JPG,AFNE01.JPG,AFNE01.JPG,AFNE01.JPG,AFNE01.JPG,AFNE01.JPG,,,,,,,,,4,2,42,3,,,,,,,,,,,,,,,AFSA06.jpg,AFNE19.jpg,AFNE13.jpg,AFSA09.jpg,AFNE19.jpg,FN,3,num_6,16,num_6,0.816755196196,,,2017_May_24_1050,60.0062165936,FEMA4ImagesEEG,001,100364,
AFNE01.JPG,AFNE01.JPG,AFNE01.JPG,AFNE01.JPG,AFNE01.JPG,AFNE01.JPG,,,,,,,,,4,3,43,0,,,,,,,,,,,,,,,AFNE11.jpg,AFNE19.jpg,AFSA18.jpg,AFSA09.jpg,AFNE11.jpg,FN,3,num_8,32,num_2,1.2334768431,,,2017_May_24_1050,60.0062165936,FEMA4ImagesEEG,001,100364,
AFNE01.JPG,AFNE01.JPG,AFNE01.JPG,AFNE01.JPG,AFNE01.JPG,AFNE01.JPG,,,,,,,,,4,4,44,4,,,,,,,,,,,,,,,AFSA02.jpg,AFNE04.jpg,AFSA14.jpg,AFNE07.jpg,AFSA14.jpg,FS,4,num_2,32,num_8,1.00012669223,,,2017_May_24_1050,60.0062165936,FEMA4ImagesEEG,001,100364,
AFNE01.JPG,AFNE01.JPG,AFNE01.JPG,AFNE01.JPG,AFNE01.JPG,AFNE01.JPG,,,,,,,,,4,5,45,7,,,,,,,,,,,,,,,AFSA11.jpg,AFNE09.jpg,AFNE03.jpg,AFSA12.jpg,AFNE03.jpg,FN,3,num_2,16,num_2,1.31655746012,,,2017_May_24_1050,60.0062165936,FEMA4ImagesEEG,001,100364,
AFNE01.JPG,AFNE01.JPG,AFNE01.JPG,AFNE01.JPG,AFNE01.JPG,AFNE01.JPG,,,,,,,,,4,6,46,5,,,,,,,,,,,,,,,AFSA13.jpg,AFNE06.jpg,AFSA05.jpg,AFNE18.jpg,AFSA13.jpg,FS,4,num_8,32,num_2,0.833593720687,,,2017_May_24_1050,60.0062165936,FEMA4ImagesEEG,001,100364,
AFNE01.JPG,AFNE01.JPG,AFNE01.JPG,AFNE01.JPG,AFNE01.JPG,AFNE01.JPG,,,,,,,,,4,7,47,1,,,,,,,,,,,,,,,AFSA08.jpg,AFNE04.jpg,AFSA20.jpg,AFNE12.jpg,AFSA08.jpg,FS,4,num_8,16,num_8,0.50016951107,,,2017_May_24_1050,60.0062165936,FEMA4ImagesEEG,001,100364,
AFNE01.JPG,AFNE01.JPG,AFNE01.JPG,AFNE01.JPG,AFNE01.JPG,AFNE01.JPG,,,,,,,,,4,8,48,9,,,,,,,,,,,,,,,AFSA07.jpg,AFNE12.jpg,AFSA19.jpg,AFNE03.jpg,AFNE12.jpg,FN,3,num_6,16,num_6,0.55017799465,,,2017_May_24_1050,60.0062165936,FEMA4ImagesEEG,001,100364,
AFNE01.JPG,AFNE01.JPG,AFNE01.JPG,AFNE01.JPG,AFNE01.JPG,AFNE01.JPG,,,,,,,,,4,9,49,8,,,,,,,,,,,,,,,AFSA06.jpg,AFNE03.jpg,AFNE19.jpg,AFSA13.jpg,AFSA06.jpg,FS,4,num_8,16,num_8,0.850136202178,,,2017_May_24_1050,60.0062165936,FEMA4ImagesEEG,001,100364,
AFNE01.JPG,AFNE01.JPG,AFNE01.JPG,AFNE01.JPG,AFNE01.JPG,AFNE01.JPG,,,,,,,,,5,0,50,4,,,,,,,,,,,,,,,AFSA15.jpg,AFSA12.jpg,AFNE02.jpg,AFNE03.jpg,AFSA15.jpg,FS,4,num_8,16,num_8,0.700140580302,,,2017_May_24_1050,60.0062165936,FEMA4ImagesEEG,001,100364,
AFNE01.JPG,AFNE01.JPG,AFNE01.JPG,AFNE01.JPG,AFNE01.JPG,AFNE01.JPG,,,,,,,,,5,1,51,3,,,,,,,,,,,,,,,AFSA15.jpg,AFNE08.jpg,AFNE17.jpg,AFSA01.jpg,AFNE17.jpg,FN,3,num_2,16,num_2,0.80016139627,,,2017_May_24_1050,60.0062165936,FEMA4ImagesEEG,001,100364,
AFNE01.JPG,AFNE01.JPG,AFNE01.JPG,AFNE01.JPG,AFNE01.JPG,AFNE01.JPG,,,,,,,,,5,2,52,6,,,,,,,,,,,,,,,AFSA08.jpg,AFSA07.jpg,AFNE19.jpg,AFNE05.jpg,AFNE05.jpg,FN,3,num_4,32,num_6,0.966856983025,,,2017_May_24_1050,60.0062165936,FEMA4ImagesEEG,001,100364,
AFNE01.JPG,AFNE01.JPG,AFNE01.JPG,AFNE01.JPG,AFNE01.JPG,AFNE01.JPG,,,,,,,,,5,3,53,1,,,,,,,,,,,,,,,AFSA04.jpg,AFNE10.jpg,AFNE07.jpg,AFSA05.jpg,AFNE07.jpg,FN,3,num_2,16,num_2,0.900130893919,,,2017_May_24_1050,60.0062165936,FEMA4ImagesEEG,001,100364,
AFNE01.JPG,AFNE01.JPG,AFNE01.JPG,AFNE01.JPG,AFNE01.JPG,AFNE01.JPG,,,,,,,,,5,4,54,9,,,,,,,,,,,,,,,AFSA19.jpg,AFNE07.jpg,AFNE18.jpg,AFSA14.jpg,AFNE07.jpg,FN,3,num_6,16,num_6,0.56665151706,,,2017_May_24_1050,60.0062165936,FEMA4ImagesEEG,001,100364,
AFNE01.JPG,AFNE01.JPG,AFNE01.JPG,AFNE01.JPG,AFNE01.JPG,AFNE01.JPG,,,,,,,,,5,5,55,5,,,,,,,,,,,,,,,AFSA11.jpg,AFNE06.jpg,AFSA05.jpg,AFNE13.jpg,AFNE06.jpg,FN,3,num_6,32,num_2,3.06657758658,,,2017_May_24_1050,60.0062165936,FEMA4ImagesEEG,001,100364,
AFNE01.JPG,AFNE01.JPG,AFNE01.JPG,AFNE01.JPG,AFNE01.JPG,AFNE01.JPG,,,,,,,,,5,6,56,0,,,,,,,,,,,,,,,AFSA15.jpg,AFSA03.jpg,AFNE19.jpg,AFNE11.jpg,AFSA15.jpg,FS,4,num_8,32,num_6,2.30009291833,,,2017_May_24_1050,60.0062165936,FEMA4ImagesEEG,001,100364,
AFNE01.JPG,AFNE01.JPG,AFNE01.JPG,AFNE01.JPG,AFNE01.JPG,AFNE01.JPG,,,,,,,,,5,7,57,2,,,,,,,,,,,,,,,AFNE13.jpg,AFSA07.jpg,AFSA11.jpg,AFNE02.jpg,AFNE13.jpg,FN,3,num_8,32,num_4,0.95012077468,,,2017_May_24_1050,60.0062165936,FEMA4ImagesEEG,001,100364,
AFNE01.JPG,AFNE01.JPG,AFNE01.JPG,AFNE01.JPG,AFNE01.JPG,AFNE01.JPG,,,,,,,,,5,8,58,7,,,,,,,,,,,,,,,AFSA20.jpg,AFSA19.jpg,AFNE14.jpg,AFNE20.jpg,AFSA20.jpg,FS,4,num_8,32,num_6,0.633454262977,,,2017_May_24_1050,60.0062165936,FEMA4ImagesEEG,001,100364,
AFNE01.JPG,AFNE01.JPG,AFNE01.JPG,AFNE01.JPG,AFNE01.JPG,AFNE01.JPG,,,,,,,,,5,9,59,8,,,,,,,,,,,,,,,AFSA12.jpg,AFNE13.jpg,AFNE06.jpg,AFSA13.jpg,AFSA12.jpg,FS,4,num_8,16,num_8,1.16673824505,,,2017_May_24_1050,60.0062165936,FEMA4ImagesEEG,001,100364,
,,,,,,,,,,,,,,,,,,,,,,,,,,,,,,,,,,,,,,,,,,,space,2.48330885556,2017_May_24_1050,60.0062165936,FEMA4ImagesEEG,001,100364,
AFNE01.JPG,AFNE01.JPG,AFNE01.JPG,AFNE01.JPG,AFNE01.JPG,AFNE01.JPG,,,,,,,,,,,,,0,0,0,6,,,,,,,,,,,AMNE02.jpg,AMSA03.jpg,AMNE13.jpg,AMSA16.jpg,AMSA03.jpg,MS,2,num_6,16,num_6,0.600140612456,,,2017_May_24_1050,60.0062165936,FEMA4ImagesEEG,001,100364,
AFNE01.JPG,AFNE01.JPG,AFNE01.JPG,AFNE01.JPG,AFNE01.JPG,AFNE01.JPG,,,,,,,,,,,,,0,1,1,5,,,,,,,,,,,AMSA13.jpg,AMNE01.jpg,AMNE07.jpg,AMSA10.jpg,AMNE01.jpg,MN,1,num_6,16,num_6,0.566764738294,,,2017_May_24_1050,60.0062165936,FEMA4ImagesEEG,001,100364,
AFNE01.JPG,AFNE01.JPG,AFNE01.JPG,AFNE01.JPG,AFNE01.JPG,AFNE01.JPG,,,,,,,,,,,,,0,2,2,2,,,,,,,,,,,AMNE20.jpg,AMNE11.jpg,AMSA13.jpg,AMSA03.jpg,AMSA13.jpg,MS,2,num_2,16,num_2,1.18314794032,,,2017_May_24_1050,60.0062165936,FEMA4ImagesEEG,001,100364,
AFNE01.JPG,AFNE01.JPG,AFNE01.JPG,AFNE01.JPG,AFNE01.JPG,AFNE01.JPG,,,,,,,,,,,,,0,3,3,9,,,,,,,,,,,AMSA04.jpg,AMNE03.jpg,AMSA20.jpg,AMNE17.jpg,AMNE03.jpg,MN,1,num_6,16,num_6,1.0834180353,,,2017_May_24_1050,60.0062165936,FEMA4ImagesEEG,001,100364,
AFNE01.JPG,AFNE01.JPG,AFNE01.JPG,AFNE01.JPG,AFNE01.JPG,AFNE01.JPG,,,,,,,,,,,,,0,4,4,1,,,,,,,,,,,AMNE04.jpg,AMNE02.jpg,AMSA20.jpg,AMSA14.jpg,AMNE04.jpg,MN,1,num_8,32,num_6,0.883530679159,,,2017_May_24_1050,60.0062165936,FEMA4ImagesEEG,001,100364,
AFNE01.JPG,AFNE01.JPG,AFNE01.JPG,AFNE01.JPG,AFNE01.JPG,AFNE01.JPG,,,,,,,,,,,,,0,5,5,0,,,,,,,,,,,AMNE18.jpg,AMNE05.jpg,AMSA19.jpg,AMSA11.jpg,AMSA11.jpg,MS,2,num_4,16,num_4,0.483465697384,,,2017_May_24_1050,60.0062165936,FEMA4ImagesEEG,001,100364,
AFNE01.JPG,AFNE01.JPG,AFNE01.JPG,AFNE01.JPG,AFNE01.JPG,AFNE01.JPG,,,,,,,,,,,,,0,6,6,3,,,,,,,,,,,AMNE05.jpg,AMSA09.jpg,AMNE16.jpg,AMSA12.jpg,AMSA09.jpg,MS,2,num_6,16,num_6,1.01677982905,,,2017_May_24_1050,60.0062165936,FEMA4ImagesEEG,001,100364,
AFNE01.JPG,AFNE01.JPG,AFNE01.JPG,AFNE01.JPG,AFNE01.JPG,AFNE01.JPG,,,,,,,,,,,,,0,7,7,4,,,,,,,,,,,AMSA03.jpg,AMNE04.jpg,AMNE18.jpg,AMSA05.jpg,AMSA03.jpg,MS,2,num_8,16,num_8,0.733472833876,,,2017_May_24_1050,60.0062165936,FEMA4ImagesEEG,001,100364,
AFNE01.JPG,AFNE01.JPG,AFNE01.JPG,AFNE01.JPG,AFNE01.JPG,AFNE01.JPG,,,,,,,,,,,,,0,8,8,8,,,,,,,,,,,AMSA14.jpg,AMSA11.jpg,AMNE08.jpg,AMNE04.jpg,AMNE04.jpg,MN,1,num_4,16,num_4,1.00007056282,,,2017_May_24_1050,60.0062165936,FEMA4ImagesEEG,001,100364,
AFNE01.JPG,AFNE01.JPG,AFNE01.JPG,AFNE01.JPG,AFNE01.JPG,AFNE01.JPG,,,,,,,,,,,,,0,9,9,7,,,,,,,,,,,AMNE12.jpg,AMNE09.jpg,AMSA09.jpg,AMSA02.jpg,AMSA09.jpg,MS,2,num_2,16,num_2,0.816757120774,,,2017_May_24_1050,60.0062165936,FEMA4ImagesEEG,001,100364,
AFNE01.JPG,AFNE01.JPG,AFNE01.JPG,AFNE01.JPG,AFNE01.JPG,AFNE01.JPG,,,,,,,,,,,,,1,0,10,2,,,,,,,,,,,AMSA06.jpg,AMNE06.jpg,AMSA18.jpg,AMNE17.jpg,AMNE17.jpg,MN,1,num_4,16,num_4,1.03343039984,,,2017_May_24_1050,60.0062165936,FEMA4ImagesEEG,001,100364,
AFNE01.JPG,AFNE01.JPG,AFNE01.JPG,AFNE01.JPG,AFNE01.JPG,AFNE01.JPG,,,,,,,,,,,,,1,1,11,0,,,,,,,,,,,AMNE14.jpg,AMNE08.jpg,AMSA15.jpg,AMSA03.jpg,AMNE08.jpg,MN,1,num_6,16,num_6,0.916741693043,,,2017_May_24_1050,60.0062165936,FEMA4ImagesEEG,001,100364,
AFNE01.JPG,AFNE01.JPG,AFNE01.JPG,AFNE01.JPG,AFNE01.JPG,AFNE01.JPG,,,,,,,,,,,,,1,2,12,1,,,,,,,,,,,AMNE18.jpg,AMSA12.jpg,AMSA11.jpg,AMNE15.jpg,AMNE15.jpg,MN,1,num_4,16,num_4,1.10008400178,,,2017_May_24_1050,60.0062165936,FEMA4ImagesEEG,001,100364,
AFNE01.JPG,AFNE01.JPG,AFNE01.JPG,AFNE01.JPG,AFNE01.JPG,AFNE01.JPG,,,,,,,,,,,,,1,3,13,6,,,,,,,,,,,AMNE19.jpg,AMNE20.jpg,AMSA20.jpg,AMSA02.jpg,AMSA02.jpg,MS,2,num_4,16,num_4,0.983388880151,,,2017_May_24_1050,60.0062165936,FEMA4ImagesEEG,001,100364,
AFNE01.JPG,AFNE01.JPG,AFNE01.JPG,AFNE01.JPG,AFNE01.JPG,AFNE01.JPG,,,,,,,,,,,,,1,4,14,8,,,,,,,,,,,AMNE15.jpg,AMSA01.jpg,AMNE08.jpg,AMSA05.jpg,AMNE08.jpg,MN,1,num_2,32,num_8,0.983414539369,,,2017_May_24_1050,60.0062165936,FEMA4ImagesEEG,001,100364,
AFNE01.JPG,AFNE01.JPG,AFNE01.JPG,AFNE01.JPG,AFNE01.JPG,AFNE01.JPG,,,,,,,,,,,,,1,5,15,4,,,,,,,,,,,AMSA06.jpg,AMNE04.jpg,AMSA12.jpg,AMNE05.jpg,AMSA12.jpg,MS,2,num_2,32,num_6,1.6167251108,,,2017_May_24_1050,60.0062165936,FEMA4ImagesEEG,001,100364,
AFNE01.JPG,AFNE01.JPG,AFNE01.JPG,AFNE01.JPG,AFNE01.JPG,AFNE01.JPG,,,,,,,,,,,,,1,6,16,5,,,,,,,,,,,AMSA04.jpg,AMNE08.jpg,AMSA05.jpg,AMNE13.jpg,AMSA04.jpg,MS,2,num_8,16,num_8,0.6334423956,,,2017_May_24_1050,60.0062165936,FEMA4ImagesEEG,001,100364,
AFNE01.JPG,AFNE01.JPG,AFNE01.JPG,AFNE01.JPG,AFNE01.JPG,AFNE01.JPG,,,,,,,,,,,,,1,7,17,9,,,,,,,,,,,AMNE02.jpg,AMSA05.jpg,AMNE13.jpg,AMSA03.jpg,AMSA05.jpg,MS,2,num_6,32,num_8,1.1667096992,,,2017_May_24_1050,60.0062165936,FEMA4ImagesEEG,001,100364,
AFNE01.JPG,AFNE01.JPG,AFNE01.JPG,AFNE01.JPG,AFNE01.JPG,AFNE01.JPG,,,,,,,,,,,,,1,8,18,7,,,,,,,,,,,AMSA12.jpg,AMNE13.jpg,AMNE19.jpg,AMSA18.jpg,AMNE19.jpg,MN,1,num_2,16,num_2,1.25010496215,,,2017_May_24_1050,60.0062165936,FEMA4ImagesEEG,001,100364,
AFNE01.JPG,AFNE01.JPG,AFNE01.JPG,AFNE01.JPG,AFNE01.JPG,AFNE01.JPG,,,,,,,,,,,,,1,9,19,3,,,,,,,,,,,AMSA05.jpg,AMNE15.jpg,AMSA01.jpg,AMNE03.jpg,AMNE03.jpg,MN,1,num_4,16,num_4,0.850109260064,,,2017_May_24_1050,60.0062165936,FEMA4ImagesEEG,001,100364,
AFNE01.JPG,AFNE01.JPG,AFNE01.JPG,AFNE01.JPG,AFNE01.JPG,AFNE01.JPG,,,,,,,,,,,,,2,0,20,2,,,,,,,,,,,AMSA18.jpg,AMSA16.jpg,AMNE20.jpg,AMNE10.jpg,AMNE10.jpg,MN,1,num_4,16,num_4,0.550129562849,,,2017_May_24_1050,60.0062165936,FEMA4ImagesEEG,001,100364,
AFNE01.JPG,AFNE01.JPG,AFNE01.JPG,AFNE01.JPG,AFNE01.JPG,AFNE01.JPG,,,,,,,,,,,,,2,1,21,4,,,,,,,,,,,AMSA18.jpg,AMNE19.jpg,AMNE12.jpg,AMSA05.jpg,AMNE19.jpg,MN,1,num_6,16,num_6,0.683462425834,,,2017_May_24_1050,60.0062165936,FEMA4ImagesEEG,001,100364,
AFNE01.JPG,AFNE01.JPG,AFNE01.JPG,AFNE01.JPG,AFNE01.JPG,AFNE01.JPG,,,,,,,,,,,,,2,2,22,8,,,,,,,,,,,AMSA16.jpg,AMSA06.jpg,AMNE14.jpg,AMNE13.jpg,AMSA06.jpg,MS,2,num_6,16,num_6,0.733469947125,,,2017_May_24_1050,60.0062165936,FEMA4ImagesEEG,001,100364,
AFNE01.JPG,AFNE01.JPG,AFNE01.JPG,AFNE01.JPG,AFNE01.JPG,AFNE01.JPG,,,,,,,,,,,,,2,3,23,7,,,,,,,,,,,AMNE04.jpg,AMSA12.jpg,AMSA11.jpg,AMNE03.jpg,AMNE03.jpg,MN,1,num_4,32,num_8,0.816761290305,,,2017_May_24_1050,60.0062165936,FEMA4ImagesEEG,001,100364,
AFNE01.JPG,AFNE01.JPG,AFNE01.JPG,AFNE01.JPG,AFNE01.JPG,AFNE01.JPG,,,,,,,,,,,,,2,4,24,6,,,,,,,,,,,AMNE08.jpg,AMSA12.jpg,AMNE14.jpg,AMSA02.jpg,AMNE08.jpg,MN,1,num_8,32,num_2,1.00014016335,,,2017_May_24_1050,60.0062165936,FEMA4ImagesEEG,001,100364,
AFNE01.JPG,AFNE01.JPG,AFNE01.JPG,AFNE01.JPG,AFNE01.JPG,AFNE01.JPG,,,,,,,,,,,,,2,5,25,3,,,,,,,,,,,AMNE20.jpg,AMSA18.jpg,AMNE15.jpg,AMSA05.jpg,AMNE20.jpg,MN,1,num_8,16,num_8,0.633500449592,,,2017_May_24_1050,60.0062165936,FEMA4ImagesEEG,001,100364,
AFNE01.JPG,AFNE01.JPG,AFNE01.JPG,AFNE01.JPG,AFNE01.JPG,AFNE01.JPG,,,,,,,,,,,,,2,6,26,1,,,,,,,,,,,AMSA16.jpg,AMNE16.jpg,AMNE07.jpg,AMSA08.jpg,AMNE16.jpg,MN,1,num_6,16,num_6,1.15008286317,,,2017_May_24_1050,60.0062165936,FEMA4ImagesEEG,001,100364,
AFNE01.JPG,AFNE01.JPG,AFNE01.JPG,AFNE01.JPG,AFNE01.JPG,AFNE01.JPG,,,,,,,,,,,,,2,7,27,0,,,,,,,,,,,AMNE10.jpg,AMSA20.jpg,AMNE04.jpg,AMSA08.jpg,AMSA08.jpg,MS,2,num_4,16,num_4,0.900184136815,,,2017_May_24_1050,60.0062165936,FEMA4ImagesEEG,001,100364,
AFNE01.JPG,AFNE01.JPG,AFNE01.JPG,AFNE01.JPG,AFNE01.JPG,AFNE01.JPG,,,,,,,,,,,,,2,8,28,9,,,,,,,,,,,AMSA13.jpg,AMNE16.jpg,AMNE09.jpg,AMSA16.jpg,AMSA13.jpg,MS,2,num_8,16,num_8,0.616726714536,,,2017_May_24_1050,60.0062165936,FEMA4ImagesEEG,001,100364,
AFNE01.JPG,AFNE01.JPG,AFNE01.JPG,AFNE01.JPG,AFNE01.JPG,AFNE01.JPG,,,,,,,,,,,,,2,9,29,5,,,,,,,,,,,AMSA02.jpg,AMNE19.jpg,AMNE12.jpg,AMSA14.jpg,AMSA14.jpg,MS,2,num_4,16,num_4,1.13343004708,,,2017_May_24_1050,60.0062165936,FEMA4ImagesEEG,001,100364,
AFNE01.JPG,AFNE01.JPG,AFNE01.JPG,AFNE01.JPG,AFNE01.JPG,AFNE01.JPG,,,,,,,,,,,,,3,0,30,3,,,,,,,,,,,AMNE17.jpg,AMNE05.jpg,AMSA07.jpg,AMSA05.jpg,AMNE17.jpg,MN,1,num_8,16,num_8,0.583470155601,,,2017_May_24_1050,60.0062165936,FEMA4ImagesEEG,001,100364,
AFNE01.JPG,AFNE01.JPG,AFNE01.JPG,AFNE01.JPG,AFNE01.JPG,AFNE01.JPG,,,,,,,,,,,,,3,1,31,8,,,,,,,,,,,AMNE07.jpg,AMSA03.jpg,AMNE20.jpg,AMSA06.jpg,AMNE20.jpg,MN,1,num_2,32,num_8,0.883479040116,,,2017_May_24_1050,60.0062165936,FEMA4ImagesEEG,001,100364,
AFNE01.JPG,AFNE01.JPG,AFNE01.JPG,AFNE01.JPG,AFNE01.JPG,AFNE01.JPG,,,,,,,,,,,,,3,2,32,6,,,,,,,,,,,AMSA07.jpg,AMNE07.jpg,AMNE03.jpg,AMSA08.jpg,AMNE03.jpg,MN,1,num_2,32,num_4,0.883430287708,,,2017_May_24_1050,60.0062165936,FEMA4ImagesEEG,001,100364,
AFNE01.JPG,AFNE01.JPG,AFNE01.JPG,AFNE01.JPG,AFNE01.JPG,AFNE01.JPG,,,,,,,,,,,,,3,3,33,7,,,,,,,,,,,AMSA14.jpg,AMSA02.jpg,AMNE15.jpg,AMNE10.jpg,AMSA02.jpg,MS,2,num_6,16,num_6,0.733443967183,,,2017_May_24_1050,60.0062165936,FEMA4ImagesEEG,001,100364,
AFNE01.JPG,AFNE01.JPG,AFNE01.JPG,AFNE01.JPG,AFNE01.JPG,AFNE01.JPG,,,,,,,,,,,,,3,4,34,1,,,,,,,,,,,AMSA02.jpg,AMNE02.jpg,AMSA16.jpg,AMNE03.jpg,AMSA16.jpg,MS,2,num_2,32,num_8,1.06670203363,,,2017_May_24_1050,60.0062165936,FEMA4ImagesEEG,001,100364,
AFNE01.JPG,AFNE01.JPG,AFNE01.JPG,AFNE01.JPG,AFNE01.JPG,AFNE01.JPG,,,,,,,,,,,,,3,5,35,5,,,,,,,,,,,AMSA09.jpg,AMSA01.jpg,AMNE11.jpg,AMNE05.jpg,AMNE11.jpg,MN,1,num_2,32,num_4,0.616770655965,,,2017_May_24_1050,60.0062165936,FEMA4ImagesEEG,001,100364,
AFNE01.JPG,AFNE01.JPG,AFNE01.JPG,AFNE01.JPG,AFNE01.JPG,AFNE01.JPG,,,,,,,,,,,,,3,6,36,4,,,,,,,,,,,AMNE03.jpg,AMSA07.jpg,AMSA10.jpg,AMNE11.jpg,AMSA07.jpg,MS,2,num_6,16,num_6,0.766920553637,,,2017_May_24_1050,60.0062165936,FEMA4ImagesEEG,001,100364,
AFNE01.JPG,AFNE01.JPG,AFNE01.JPG,AFNE01.JPG,AFNE01.JPG,AFNE01.JPG,,,,,,,,,,,,,3,7,37,2,,,,,,,,,,,AMSA15.jpg,AMNE01.jpg,AMSA11.jpg,AMNE17.jpg,AMNE17.jpg,MN,1,num_4,16,num_4,0.633567163488,,,2017_May_24_1050,60.0062165936,FEMA4ImagesEEG,001,100364,
AFNE01.JPG,AFNE01.JPG,AFNE01.JPG,AFNE01.JPG,AFNE01.JPG,AFNE01.JPG,,,,,,,,,,,,,3,8,38,0,,,,,,,,,,,AMNE19.jpg,AMSA08.jpg,AMSA15.jpg,AMNE12.jpg,AMNE12.jpg,MN,1,num_4,16,num_4,0.73344525008,,,2017_May_24_1050,60.0062165936,FEMA4ImagesEEG,001,100364,
AFNE01.JPG,AFNE01.JPG,AFNE01.JPG,AFNE01.JPG,AFNE01.JPG,AFNE01.JPG,,,,,,,,,,,,,3,9,39,9,,,,,,,,,,,AMSA11.jpg,AMNE09.jpg,AMNE12.jpg,AMSA08.jpg,AMSA11.jpg,MS,2,num_8,32,num_6,1.75005284196,,,2017_May_24_1050,60.0062165936,FEMA4ImagesEEG,001,100364,
AFNE01.JPG,AFNE01.JPG,AFNE01.JPG,AFNE01.JPG,AFNE01.JPG,AFNE01.JPG,,,,,,,,,,,,,4,0,40,0,,,,,,,,,,,AMSA07.jpg,AMSA03.jpg,AMNE14.jpg,AMNE20.jpg,AMSA07.jpg,MS,2,num_8,16,num_8,0.933465713402,,,2017_May_24_1050,60.0062165936,FEMA4ImagesEEG,001,100364,
AFNE01.JPG,AFNE01.JPG,AFNE01.JPG,AFNE01.JPG,AFNE01.JPG,AFNE01.JPG,,,,,,,,,,,,,4,1,41,2,,,,,,,,,,,AMSA18.jpg,AMSA07.jpg,AMNE12.jpg,AMNE19.jpg,AMNE12.jpg,MN,1,num_2,16,num_2,1.01659925247,,,2017_May_24_1050,60.0062165936,FEMA4ImagesEEG,001,100364,
AFNE01.JPG,AFNE01.JPG,AFNE01.JPG,AFNE01.JPG,AFNE01.JPG,AFNE01.JPG,,,,,,,,,,,,,4,2,42,1,,,,,,,,,,,AMNE07.jpg,AMSA16.jpg,AMNE02.jpg,AMSA18.jpg,AMSA16.jpg,MS,2,num_6,16,num_6,0.833451632876,,,2017_May_24_1050,60.0062165936,FEMA4ImagesEEG,001,100364,
AFNE01.JPG,AFNE01.JPG,AFNE01.JPG,AFNE01.JPG,AFNE01.JPG,AFNE01.JPG,,,,,,,,,,,,,4,3,43,3,,,,,,,,,,,AMSA18.jpg,AMSA06.jpg,AMNE13.jpg,AMNE09.jpg,AMSA06.jpg,MS,2,num_6,16,num_6,0.800182565232,,,2017_May_24_1050,60.0062165936,FEMA4ImagesEEG,001,100364,
AFNE01.JPG,AFNE01.JPG,AFNE01.JPG,AFNE01.JPG,AFNE01.JPG,AFNE01.JPG,,,,,,,,,,,,,4,4,44,5,,,,,,,,,,,AMNE13.jpg,AMNE05.jpg,AMSA14.jpg,AMSA20.jpg,AMSA14.jpg,MS,2,num_2,16,num_2,0.700139618129,,,2017_May_24_1050,60.0062165936,FEMA4ImagesEEG,001,100364,
AFNE01.JPG,AFNE01.JPG,AFNE01.JPG,AFNE01.JPG,AFNE01.JPG,AFNE01.JPG,,,,,,,,,,,,,4,5,45,9,,,,,,,,,,,AMSA19.jpg,AMNE06.jpg,AMSA05.jpg,AMNE12.jpg,AMSA05.jpg,MS,2,num_2,16,num_2,0.900196645642,,,2017_May_24_1050,60.0062165936,FEMA4ImagesEEG,001,100364,
AFNE01.JPG,AFNE01.JPG,AFNE01.JPG,AFNE01.JPG,AFNE01.JPG,AFNE01.JPG,,,,,,,,,,,,,4,6,46,6,,,,,,,,,,,AMNE19.jpg,AMSA04.jpg,AMNE17.jpg,AMSA13.jpg,AMSA04.jpg,MS,2,num_6,16,num_6,0.516767480527,,,2017_May_24_1050,60.0062165936,FEMA4ImagesEEG,001,100364,
AFNE01.JPG,AFNE01.JPG,AFNE01.JPG,AFNE01.JPG,AFNE01.JPG,AFNE01.JPG,,,,,,,,,,,,,4,7,47,4,,,,,,,,,,,AMSA03.jpg,AMNE01.jpg,AMNE15.jpg,AMSA13.jpg,AMSA13.jpg,MS,2,num_4,32,num_2,1.21644362947,,,2017_May_24_1050,60.0062165936,FEMA4ImagesEEG,001,100364,
AFNE01.JPG,AFNE01.JPG,AFNE01.JPG,AFNE01.JPG,AFNE01.JPG,AFNE01.JPG,,,,,,,,,,,,,4,8,48,7,,,,,,,,,,,AMSA17.jpg,AMNE03.jpg,AMNE06.jpg,AMSA13.jpg,AMSA13.jpg,MS,2,num_4,32,num_8,0.716724758036,,,2017_May_24_1050,60.0062165936,FEMA4ImagesEEG,001,100364,
AFNE01.JPG,AFNE01.JPG,AFNE01.JPG,AFNE01.JPG,AFNE01.JPG,AFNE01.JPG,,,,,,,,,,,,,4,9,49,8,,,,,,,,,,,AMSA03.jpg,AMSA10.jpg,AMNE10.jpg,AMNE06.jpg,AMNE10.jpg,MN,1,num_2,16,num_2,1.28341219795,,,2017_May_24_1050,60.0062165936,FEMA4ImagesEEG,001,100364,
AFNE01.JPG,AFNE01.JPG,AFNE01.JPG,AFNE01.JPG,AFNE01.JPG,AFNE01.JPG,,,,,,,,,,,,,5,0,50,6,,,,,,,,,,,AMNE18.jpg,AMNE19.jpg,AMSA08.jpg,AMSA04.jpg,AMSA08.jpg,MS,2,num_2,16,num_2,1.10006892704,,,2017_May_24_1050,60.0062165936,FEMA4ImagesEEG,001,100364,
AFNE01.JPG,AFNE01.JPG,AFNE01.JPG,AFNE01.JPG,AFNE01.JPG,AFNE01.JPG,,,,,,,,,,,,,5,1,51,1,,,,,,,,,,,AMNE16.jpg,AMSA01.jpg,AMNE11.jpg,AMSA15.jpg,AMNE11.jpg,MN,1,num_2,32,num_8,1.05008931004,,,2017_May_24_1050,60.0062165936,FEMA4ImagesEEG,001,100364,
AFNE01.JPG,AFNE01.JPG,AFNE01.JPG,AFNE01.JPG,AFNE01.JPG,AFNE01.JPG,,,,,,,,,,,,,5,2,52,9,,,,,,,,,,,AMNE13.jpg,AMSA05.jpg,AMNE01.jpg,AMSA04.jpg,AMSA04.jpg,MS,2,num_4,16,num_4,0.633473507361,,,2017_May_24_1050,60.0062165936,FEMA4ImagesEEG,001,100364,
AFNE01.JPG,AFNE01.JPG,AFNE01.JPG,AFNE01.JPG,AFNE01.JPG,AFNE01.JPG,,,,,,,,,,,,,5,3,53,7,,,,,,,,,,,AMNE11.jpg,AMSA12.jpg,AMSA09.jpg,AMNE19.jpg,AMNE11.jpg,MN,1,num_8,32,num_4,0.950094794622,,,2017_May_24_1050,60.0062165936,FEMA4ImagesEEG,001,100364,
AFNE01.JPG,AFNE01.JPG,AFNE01.JPG,AFNE01.JPG,AFNE01.JPG,AFNE01.JPG,,,,,,,,,,,,,5,4,54,0,,,,,,,,,,,AMSA06.jpg,AMNE13.jpg,AMSA04.jpg,AMNE09.jpg,AMSA04.jpg,MS,2,num_2,32,num_8,1.68340276822,,,2017_May_24_1050,60.0062165936,FEMA4ImagesEEG,001,100364,
AFNE01.JPG,AFNE01.JPG,AFNE01.JPG,AFNE01.JPG,AFNE01.JPG,AFNE01.JPG,,,,,,,,,,,,,5,5,55,2,,,,,,,,,,,AMSA17.jpg,AMSA16.jpg,AMNE20.jpg,AMNE07.jpg,AMNE07.jpg,MN,1,num_4,16,num_4,0.933404452051,,,2017_May_24_1050,60.0062165936,FEMA4ImagesEEG,001,100364,
AFNE01.JPG,AFNE01.JPG,AFNE01.JPG,AFNE01.JPG,AFNE01.JPG,AFNE01.JPG,,,,,,,,,,,,,5,6,56,5,,,,,,,,,,,AMNE02.jpg,AMSA11.jpg,AMSA16.jpg,AMNE16.jpg,AMSA16.jpg,MS,2,num_2,32,num_4,0.600054333336,,,2017_May_24_1050,60.0062165936,FEMA4ImagesEEG,001,100364,
AFNE01.JPG,AFNE01.JPG,AFNE01.JPG,AFNE01.JPG,AFNE01.JPG,AFNE01.JPG,,,,,,,,,,,,,5,7,57,3,,,,,,,,,,,AMSA13.jpg,AMSA14.jpg,AMNE03.jpg,AMNE15.jpg,AMNE03.jpg,MN,1,num_2,32,num_8,0.800110398675,,,2017_May_24_1050,60.0062165936,FEMA4ImagesEEG,001,100364,
AFNE01.JPG,AFNE01.JPG,AFNE01.JPG,AFNE01.JPG,AFNE01.JPG,AFNE01.JPG,,,,,,,,,,,,,5,8,58,4,,,,,,,,,,,AMSA19.jpg,AMNE13.jpg,AMNE18.jpg,AMSA18.jpg,AMSA19.jpg,MS,2,num_8,16,num_8,0.933423054987,,,2017_May_24_1050,60.0062165936,FEMA4ImagesEEG,001,100364,
AFNE01.JPG,AFNE01.JPG,AFNE01.JPG,AFNE01.JPG,AFNE01.JPG,AFNE01.JPG,,,,,,,,,,,,,5,9,59,8,,,,,,,,,,,AMNE08.jpg,AMSA18.jpg,AMNE03.jpg,AMSA02.jpg,AMNE03.jpg,MN,1,num_2,16,num_2,0.883443437982,,,2017_May_24_1050,60.0062165936,FEMA4ImagesEEG,001,100364,
,,,,,,,,,,,,,,,,,,,,,,,,,,,,,,,,,,,,,,,,,,,space,12.216190245,2017_May_24_1050,60.0062165936,FEMA4ImagesEEG,001,100364,
AFNE01.JPG,AFNE01.JPG,AFNE01.JPG,AFNE01.JPG,AFNE01.JPG,AFNE01.JPG,,,,,,,,,,,,,,,,,0,0,0,6,,,,,,,AFSA02.jpg,AFNE15.jpg,AFNE20.jpg,AFSA15.jpg,AFSA15.jpg,FS,4,num_4,32,num_6,0.783418131643,,,2017_May_24_1050,60.0062165936,FEMA4ImagesEEG,001,100364,
AFNE01.JPG,AFNE01.JPG,AFNE01.JPG,AFNE01.JPG,AFNE01.JPG,AFNE01.JPG,,,,,,,,,,,,,,,,,0,1,1,5,,,,,,,AFSA08.jpg,AFSA02.jpg,AFNE05.jpg,AFNE12.jpg,AFNE05.jpg,FN,3,num_2,16,num_2,1.13341850042,,,2017_May_24_1050,60.0062165936,FEMA4ImagesEEG,001,100364,
AFNE01.JPG,AFNE01.JPG,AFNE01.JPG,AFNE01.JPG,AFNE01.JPG,AFNE01.JPG,,,,,,,,,,,,,,,,,0,2,2,8,,,,,,,AFNE06.jpg,AFSA08.jpg,AFNE17.jpg,AFSA07.jpg,AFSA07.jpg,FS,4,num_4,16,num_4,0.566780454479,,,2017_May_24_1050,60.0062165936,FEMA4ImagesEEG,001,100364,
AFNE01.JPG,AFNE01.JPG,AFNE01.JPG,AFNE01.JPG,AFNE01.JPG,AFNE01.JPG,,,,,,,,,,,,,,,,,0,3,3,4,,,,,,,AFSA09.jpg,AFNE14.jpg,AFSA11.jpg,AFNE17.jpg,AFNE17.jpg,FN,3,num_4,16,num_4,0.616780278157,,,2017_May_24_1050,60.0062165936,FEMA4ImagesEEG,001,100364,
AFNE01.JPG,AFNE01.JPG,AFNE01.JPG,AFNE01.JPG,AFNE01.JPG,AFNE01.JPG,,,,,,,,,,,,,,,,,0,4,4,0,,,,,,,AFNE11.jpg,AFNE08.jpg,AFSA13.jpg,AFSA07.jpg,AFNE11.jpg,FN,3,num_8,32,num_6,0.950147075346,,,2017_May_24_1050,60.0062165936,FEMA4ImagesEEG,001,100364,
AFNE01.JPG,AFNE01.JPG,AFNE01.JPG,AFNE01.JPG,AFNE01.JPG,AFNE01.JPG,,,,,,,,,,,,,,,,,0,5,5,7,,,,,,,AFSA20.jpg,AFSA06.jpg,AFNE13.jpg,AFNE20.jpg,AFSA06.jpg,FS,4,num_6,16,num_6,1.00014625734,,,2017_May_24_1050,60.0062165936,FEMA4ImagesEEG,001,100364,
AFNE01.JPG,AFNE01.JPG,AFNE01.JPG,AFNE01.JPG,AFNE01.JPG,AFNE01.JPG,,,,,,,,,,,,,,,,,0,6,6,1,,,,,,,AFNE19.jpg,AFSA16.jpg,AFSA04.jpg,AFNE15.jpg,AFNE15.jpg,FN,3,num_4,16,num_4,0.833494291292,,,2017_May_24_1050,60.0062165936,FEMA4ImagesEEG,001,100364,
AFNE01.JPG,AFNE01.JPG,AFNE01.JPG,AFNE01.JPG,AFNE01.JPG,AFNE01.JPG,,,,,,,,,,,,,,,,,0,7,7,2,,,,,,,AFSA05.jpg,AFNE20.jpg,AFNE18.jpg,AFSA20.jpg,AFNE18.jpg,FN,3,num_2,32,num_6,0.550155542791,,,2017_May_24_1050,60.0062165936,FEMA4ImagesEEG,001,100364,
AFNE01.JPG,AFNE01.JPG,AFNE01.JPG,AFNE01.JPG,AFNE01.JPG,AFNE01.JPG,,,,,,,,,,,,,,,,,0,8,8,3,,,,,,,AFNE19.jpg,AFSA08.jpg,AFNE20.jpg,AFSA15.jpg,AFNE20.jpg,FN,3,num_2,32,num_4,0.600181346294,,,2017_May_24_1050,60.0062165936,FEMA4ImagesEEG,001,100364,
AFNE01.JPG,AFNE01.JPG,AFNE01.JPG,AFNE01.JPG,AFNE01.JPG,AFNE01.JPG,,,,,,,,,,,,,,,,,0,9,9,9,,,,,,,AFNE03.jpg,AFSA07.jpg,AFSA09.jpg,AFNE04.jpg,AFNE03.jpg,FN,3,num_8,16,num_8,0.850145182922,,,2017_May_24_1050,60.0062165936,FEMA4ImagesEEG,001,100364,
AFNE01.JPG,AFNE01.JPG,AFNE01.JPG,AFNE01.JPG,AFNE01.JPG,AFNE01.JPG,,,,,,,,,,,,,,,,,1,0,10,0,,,,,,,AFSA18.jpg,AFNE12.jpg,AFNE10.jpg,AFSA17.jpg,AFSA18.jpg,FS,4,num_8,16,num_8,1.23344701435,,,2017_May_24_1050,60.0062165936,FEMA4ImagesEEG,001,100364,
AFNE01.JPG,AFNE01.JPG,AFNE01.JPG,AFNE01.JPG,AFNE01.JPG,AFNE01.JPG,,,,,,,,,,,,,,,,,1,1,11,4,,,,,,,AFNE08.jpg,AFNE03.jpg,AFSA02.jpg,AFSA08.jpg,AFNE08.jpg,FN,3,num_8,16,num_8,0.933452883735,,,2017_May_24_1050,60.0062165936,FEMA4ImagesEEG,001,100364,
AFNE01.JPG,AFNE01.JPG,AFNE01.JPG,AFNE01.JPG,AFNE01.JPG,AFNE01.JPG,,,,,,,,,,,,,,,,,1,2,12,5,,,,,,,AFSA13.jpg,AFSA12.jpg,AFNE17.jpg,AFNE16.jpg,AFNE16.jpg,FN,3,num_4,16,num_4,0.816766101401,,,2017_May_24_1050,60.0062165936,FEMA4ImagesEEG,001,100364,
AFNE01.JPG,AFNE01.JPG,AFNE01.JPG,AFNE01.JPG,AFNE01.JPG,AFNE01.JPG,,,,,,,,,,,,,,,,,1,3,13,2,,,,,,,AFSA10.jpg,AFNE03.jpg,AFNE18.jpg,AFSA01.jpg,AFSA10.jpg,FS,4,num_8,16,num_8,0.833438161877,,,2017_May_24_1050,60.0062165936,FEMA4ImagesEEG,001,100364,
AFNE01.JPG,AFNE01.JPG,AFNE01.JPG,AFNE01.JPG,AFNE01.JPG,AFNE01.JPG,,,,,,,,,,,,,,,,,1,4,14,6,,,,,,,AFSA13.jpg,AFNE18.jpg,AFSA18.jpg,AFNE15.jpg,AFNE15.jpg,FN,3,num_4,16,num_4,0.58353045478,,,2017_May_24_1050,60.0062165936,FEMA4ImagesEEG,001,100364,
AFNE01.JPG,AFNE01.JPG,AFNE01.JPG,AFNE01.JPG,AFNE01.JPG,AFNE01.JPG,,,,,,,,,,,,,,,,,1,5,15,8,,,,,,,AFNE08.jpg,AFSA13.jpg,AFNE04.jpg,AFSA20.jpg,AFSA13.jpg,FS,4,num_6,32,num_4,0.583515059203,,,2017_May_24_1050,60.0062165936,FEMA4ImagesEEG,001,100364,
AFNE01.JPG,AFNE01.JPG,AFNE01.JPG,AFNE01.JPG,AFNE01.JPG,AFNE01.JPG,,,,,,,,,,,,,,,,,1,6,16,3,,,,,,,AFNE13.jpg,AFNE09.jpg,AFSA20.jpg,AFSA14.jpg,AFSA14.jpg,FS,4,num_4,32,num_2,1.30011825683,,,2017_May_24_1050,60.0062165936,FEMA4ImagesEEG,001,100364,
AFNE01.JPG,AFNE01.JPG,AFNE01.JPG,AFNE01.JPG,AFNE01.JPG,AFNE01.JPG,,,,,,,,,,,,,,,,,1,7,17,9,,,,,,,AFNE12.jpg,AFSA17.jpg,AFNE09.jpg,AFSA18.jpg,AFNE09.jpg,FN,3,num_2,32,num_8,0.716776076471,,,2017_May_24_1050,60.0062165936,FEMA4ImagesEEG,001,100364,
AFNE01.JPG,AFNE01.JPG,AFNE01.JPG,AFNE01.JPG,AFNE01.JPG,AFNE01.JPG,,,,,,,,,,,,,,,,,1,8,18,7,,,,,,,AFSA16.jpg,AFNE15.jpg,AFSA02.jpg,AFNE16.jpg,AFNE15.jpg,FN,3,num_6,16,num_6,0.683489047224,,,2017_May_24_1050,60.0062165936,FEMA4ImagesEEG,001,100364,
AFNE01.JPG,AFNE01.JPG,AFNE01.JPG,AFNE01.JPG,AFNE01.JPG,AFNE01.JPG,,,,,,,,,,,,,,,,,1,9,19,1,,,,,,,AFNE01.jpg,AFNE10.jpg,AFSA15.jpg,AFSA08.jpg,AFNE01.jpg,FN,3,num_8,32,num_4,0.900239945506,,,2017_May_24_1050,60.0062165936,FEMA4ImagesEEG,001,100364,
AFNE01.JPG,AFNE01.JPG,AFNE01.JPG,AFNE01.JPG,AFNE01.JPG,AFNE01.JPG,,,,,,,,,,,,,,,,,2,0,20,4,,,,,,,AFNE01.jpg,AFNE12.jpg,AFSA07.jpg,AFSA05.jpg,AFNE12.jpg,FN,3,num_6,16,num_6,0.783491260372,,,2017_May_24_1050,60.0062165936,FEMA4ImagesEEG,001,100364,
AFNE01.JPG,AFNE01.JPG,AFNE01.JPG,AFNE01.JPG,AFNE01.JPG,AFNE01.JPG,,,,,,,,,,,,,,,,,2,1,21,1,,,,,,,AFSA03.jpg,AFSA08.jpg,AFNE16.jpg,AFNE01.jpg,AFNE01.jpg,FN,3,num_4,32,num_8,1.06679087854,,,2017_May_24_1050,60.0062165936,FEMA4ImagesEEG,001,100364,
AFNE01.JPG,AFNE01.JPG,AFNE01.JPG,AFNE01.JPG,AFNE01.JPG,AFNE01.JPG,,,,,,,,,,,,,,,,,2,2,22,8,,,,,,,AFNE08.jpg,AFSA17.jpg,AFNE04.jpg,AFSA16.jpg,AFSA16.jpg,FS,4,num_4,16,num_4,0.8834982845,,,2017_May_24_1050,60.0062165936,FEMA4ImagesEEG,001,100364,
AFNE01.JPG,AFNE01.JPG,AFNE01.JPG,AFNE01.JPG,AFNE01.JPG,AFNE01.JPG,,,,,,,,,,,,,,,,,2,3,23,6,,,,,,,AFNE08.jpg,AFSA10.jpg,AFNE09.jpg,AFSA07.jpg,AFNE09.jpg,FN,3,num_2,32,num_6,1.41654395696,,,2017_May_24_1050,60.0062165936,FEMA4ImagesEEG,001,100364,
AFNE01.JPG,AFNE01.JPG,AFNE01.JPG,AFNE01.JPG,AFNE01.JPG,AFNE01.JPG,,,,,,,,,,,,,,,,,2,4,24,7,,,,,,,AFNE04.jpg,AFNE14.jpg,AFSA02.jpg,AFSA05.jpg,AFNE04.jpg,FN,3,num_8,16,num_8,0.816804590169,,,2017_May_24_1050,60.0062165936,FEMA4ImagesEEG,001,100364,
AFNE01.JPG,AFNE01.JPG,AFNE01.JPG,AFNE01.JPG,AFNE01.JPG,AFNE01.JPG,,,,,,,,,,,,,,,,,2,5,25,5,,,,,,,AFSA12.jpg,AFSA07.jpg,AFNE14.jpg,AFNE08.jpg,AFNE14.jpg,FN,3,num_2,32,num_8,0.800089550554,,,2017_May_24_1050,60.0062165936,FEMA4ImagesEEG,001,100364,
AFNE01.JPG,AFNE01.JPG,AFNE01.JPG,AFNE01.JPG,AFNE01.JPG,AFNE01.JPG,,,,,,,,,,,,,,,,,2,6,26,2,,,,,,,AFSA09.jpg,AFNE06.jpg,AFSA01.jpg,AFNE05.jpg,AFNE05.jpg,FN,3,num_4,32,num_8,0.900126403547,,,2017_May_24_1050,60.0062165936,FEMA4ImagesEEG,001,100364,
AFNE01.JPG,AFNE01.JPG,AFNE01.JPG,AFNE01.JPG,AFNE01.JPG,AFNE01.JPG,,,,,,,,,,,,,,,,,2,7,27,0,,,,,,,AFNE12.jpg,AFNE04.jpg,AFSA20.jpg,AFSA05.jpg,AFNE12.jpg,FN,3,num_8,16,num_8,0.633525467245,,,2017_May_24_1050,60.0062165936,FEMA4ImagesEEG,001,100364,
AFNE01.JPG,AFNE01.JPG,AFNE01.JPG,AFNE01.JPG,AFNE01.JPG,AFNE01.JPG,,,,,,,,,,,,,,,,,2,8,28,3,,,,,,,AFNE20.jpg,AFSA07.jpg,AFNE04.jpg,AFSA01.jpg,AFNE04.jpg,FN,3,num_2,32,num_8,0.767106582876,,,2017_May_24_1050,60.0062165936,FEMA4ImagesEEG,001,100364,
AFNE01.JPG,AFNE01.JPG,AFNE01.JPG,AFNE01.JPG,AFNE01.JPG,AFNE01.JPG,,,,,,,,,,,,,,,,,2,9,29,9,,,,,,,AFSA19.jpg,AFSA12.jpg,AFNE17.jpg,AFNE16.jpg,AFNE17.jpg,FN,3,num_2,32,num_4,0.883457550546,,,2017_May_24_1050,60.0062165936,FEMA4ImagesEEG,001,100364,
AFNE01.JPG,AFNE01.JPG,AFNE01.JPG,AFNE01.JPG,AFNE01.JPG,AFNE01.JPG,,,,,,,,,,,,,,,,,3,0,30,6,,,,,,,AFSA12.jpg,AFSA13.jpg,AFNE11.jpg,AFNE13.jpg,AFNE11.jpg,FN,3,num_2,32,num_8,0.683461784385,,,2017_May_24_1050,60.0062165936,FEMA4ImagesEEG,001,100364,
AFNE01.JPG,AFNE01.JPG,AFNE01.JPG,AFNE01.JPG,AFNE01.JPG,AFNE01.JPG,,,,,,,,,,,,,,,,,3,1,31,7,,,,,,,AFNE02.jpg,AFNE01.jpg,AFSA18.jpg,AFSA15.jpg,AFSA18.jpg,FS,4,num_2,32,num_6,0.866781320423,,,2017_May_24_1050,60.0062165936,FEMA4ImagesEEG,001,100364,
AFNE01.JPG,AFNE01.JPG,AFNE01.JPG,AFNE01.JPG,AFNE01.JPG,AFNE01.JPG,,,,,,,,,,,,,,,,,3,2,32,8,,,,,,,AFNE16.jpg,AFSA07.jpg,AFNE19.jpg,AFSA08.jpg,AFNE19.jpg,FN,3,num_2,32,num_8,0.900175476796,,,2017_May_24_1050,60.0062165936,FEMA4ImagesEEG,001,100364,
AFNE01.JPG,AFNE01.JPG,AFNE01.JPG,AFNE01.JPG,AFNE01.JPG,AFNE01.JPG,,,,,,,,,,,,,,,,,3,3,33,9,,,,,,,AFSA10.jpg,AFSA15.jpg,AFNE10.jpg,AFNE11.jpg,AFSA10.jpg,FS,4,num_8,16,num_8,1.06704265939,,,2017_May_24_1050,60.0062165936,FEMA4ImagesEEG,001,100364,
AFNE01.JPG,AFNE01.JPG,AFNE01.JPG,AFNE01.JPG,AFNE01.JPG,AFNE01.JPG,,,,,,,,,,,,,,,,,3,4,34,2,,,,,,,AFNE07.jpg,AFNE08.jpg,AFSA04.jpg,AFSA12.jpg,AFNE08.jpg,FN,3,num_6,32,num_8,0.800097569125,,,2017_May_24_1050,60.0062165936,FEMA4ImagesEEG,001,100364,
AFNE01.JPG,AFNE01.JPG,AFNE01.JPG,AFNE01.JPG,AFNE01.JPG,AFNE01.JPG,,,,,,,,,,,,,,,,,3,5,35,3,,,,,,,AFSA18.jpg,AFNE16.jpg,AFNE08.jpg,AFSA19.jpg,AFNE16.jpg,FN,3,num_6,32,num_2,1.58340889437,,,2017_May_24_1050,60.0062165936,FEMA4ImagesEEG,001,100364,
AFNE01.JPG,AFNE01.JPG,AFNE01.JPG,AFNE01.JPG,AFNE01.JPG,AFNE01.JPG,,,,,,,,,,,,,,,,,3,6,36,0,,,,,,,AFSA07.jpg,AFNE18.jpg,AFSA06.jpg,AFNE07.jpg,AFSA07.jpg,FS,4,num_8,16,num_8,0.866796074552,,,2017_May_24_1050,60.0062165936,FEMA4ImagesEEG,001,100364,
AFNE01.JPG,AFNE01.JPG,AFNE01.JPG,AFNE01.JPG,AFNE01.JPG,AFNE01.JPG,,,,,,,,,,,,,,,,,3,7,37,5,,,,,,,AFNE19.jpg,AFNE13.jpg,AFSA12.jpg,AFSA20.jpg,AFNE19.jpg,FN,3,num_8,16,num_8,1.10011800018,,,2017_May_24_1050,60.0062165936,FEMA4ImagesEEG,001,100364,
AFNE01.JPG,AFNE01.JPG,AFNE01.JPG,AFNE01.JPG,AFNE01.JPG,AFNE01.JPG,,,,,,,,,,,,,,,,,3,8,38,1,,,,,,,AFSA17.jpg,AFNE02.jpg,AFSA19.jpg,AFNE17.jpg,AFNE17.jpg,FN,3,num_4,16,num_4,0.750143931946,,,2017_May_24_1050,60.0062165936,FEMA4ImagesEEG,001,100364,
AFNE01.JPG,AFNE01.JPG,AFNE01.JPG,AFNE01.JPG,AFNE01.JPG,AFNE01.JPG,,,,,,,,,,,,,,,,,3,9,39,4,,,,,,,AFNE03.jpg,AFNE09.jpg,AFSA18.jpg,AFSA11.jpg,AFNE09.jpg,FN,3,num_6,32,num_8,1.06674372975,,,2017_May_24_1050,60.0062165936,FEMA4ImagesEEG,001,100364,
AFNE01.JPG,AFNE01.JPG,AFNE01.JPG,AFNE01.JPG,AFNE01.JPG,AFNE01.JPG,,,,,,,,,,,,,,,,,4,0,40,6,,,,,,,AFSA19.jpg,AFSA20.jpg,AFNE10.jpg,AFNE11.jpg,AFNE11.jpg,FN,3,num_4,32,num_8,0.750138158677,,,2017_May_24_1050,60.0062165936,FEMA4ImagesEEG,001,100364,
AFNE01.JPG,AFNE01.JPG,AFNE01.JPG,AFNE01.JPG,AFNE01.JPG,AFNE01.JPG,,,,,,,,,,,,,,,,,4,1,41,3,,,,,,,AFNE06.jpg,AFSA12.jpg,AFSA18.jpg,AFNE18.jpg,AFSA18.jpg,FS,4,num_2,16,num_2,1.21694077633,,,2017_May_24_1050,60.0062165936,FEMA4ImagesEEG,001,100364,
AFNE01.JPG,AFNE01.JPG,AFNE01.JPG,AFNE01.JPG,AFNE01.JPG,AFNE01.JPG,,,,,,,,,,,,,,,,,4,2,42,8,,,,,,,AFSA13.jpg,AFNE17.jpg,AFNE18.jpg,AFSA17.jpg,AFSA17.jpg,FS,4,num_4,16,num_4,1.03353945154,,,2017_May_24_1050,60.0062165936,FEMA4ImagesEEG,001,100364,
AFNE01.JPG,AFNE01.JPG,AFNE01.JPG,AFNE01.JPG,AFNE01.JPG,AFNE01.JPG,,,,,,,,,,,,,,,,,4,3,43,7,,,,,,,AFNE15.jpg,AFSA02.jpg,AFNE02.jpg,AFSA18.jpg,AFSA02.jpg,FS,4,num_6,16,num_6,0.533444352099,,,2017_May_24_1050,60.0062165936,FEMA4ImagesEEG,001,100364,
AFNE01.JPG,AFNE01.JPG,AFNE01.JPG,AFNE01.JPG,AFNE01.JPG,AFNE01.JPG,,,,,,,,,,,,,,,,,4,4,44,4,,,,,,,AFSA08.jpg,AFSA06.jpg,AFNE03.jpg,AFNE04.jpg,AFSA08.jpg,FS,4,num_8,16,num_8,0.883461078745,,,2017_May_24_1050,60.0062165936,FEMA4ImagesEEG,001,100364,
AFNE01.JPG,AFNE01.JPG,AFNE01.JPG,AFNE01.JPG,AFNE01.JPG,AFNE01.JPG,,,,,,,,,,,,,,,,,4,5,45,0,,,,,,,AFSA16.jpg,AFSA17.jpg,AFNE13.jpg,AFNE01.jpg,AFSA17.jpg,FS,4,num_6,16,num_6,0.566815415164,,,2017_May_24_1050,60.0062165936,FEMA4ImagesEEG,001,100364,
AFNE01.JPG,AFNE01.JPG,AFNE01.JPG,AFNE01.JPG,AFNE01.JPG,AFNE01.JPG,,,,,,,,,,,,,,,,,4,6,46,5,,,,,,,AFNE02.jpg,AFSA02.jpg,AFNE07.jpg,AFSA15.jpg,AFSA15.jpg,FS,4,num_4,16,num_4,0.833472160273,,,2017_May_24_1050,60.0062165936,FEMA4ImagesEEG,001,100364,
AFNE01.JPG,AFNE01.JPG,AFNE01.JPG,AFNE01.JPG,AFNE01.JPG,AFNE01.JPG,,,,,,,,,,,,,,,,,4,7,47,9,,,,,,,AFNE11.jpg,AFNE08.jpg,AFSA03.jpg,AFSA14.jpg,AFSA03.jpg,FS,4,num_2,16,num_2,1.91671410948,,,2017_May_24_1050,60.0062165936,FEMA4ImagesEEG,001,100364,
AFNE01.JPG,AFNE01.JPG,AFNE01.JPG,AFNE01.JPG,AFNE01.JPG,AFNE01.JPG,,,,,,,,,,,,,,,,,4,8,48,1,,,,,,,AFNE04.jpg,AFSA17.jpg,AFNE12.jpg,AFSA10.jpg,AFNE12.jpg,FN,3,num_2,32,num_4,1.03339319408,,,2017_May_24_1050,60.0062165936,FEMA4ImagesEEG,001,100364,
AFNE01.JPG,AFNE01.JPG,AFNE01.JPG,AFNE01.JPG,AFNE01.JPG,AFNE01.JPG,,,,,,,,,,,,,,,,,4,9,49,2,,,,,,,AFSA01.jpg,AFNE01.jpg,AFNE08.jpg,AFSA14.jpg,AFNE01.jpg,FN,3,num_6,16,num_6,0.766951344674,,,2017_May_24_1050,60.0062165936,FEMA4ImagesEEG,001,100364,
AFNE01.JPG,AFNE01.JPG,AFNE01.JPG,AFNE01.JPG,AFNE01.JPG,AFNE01.JPG,,,,,,,,,,,,,,,,,5,0,50,3,,,,,,,AFSA19.jpg,AFNE03.jpg,AFNE15.jpg,AFSA08.jpg,AFSA19.jpg,FS,4,num_8,32,num_4,0.866796716,,,2017_May_24_1050,60.0062165936,FEMA4ImagesEEG,001,100364,
AFNE01.JPG,AFNE01.JPG,AFNE01.JPG,AFNE01.JPG,AFNE01.JPG,AFNE01.JPG,,,,,,,,,,,,,,,,,5,1,51,2,,,,,,,AFNE18.jpg,AFSA08.jpg,AFNE03.jpg,AFSA09.jpg,AFNE03.jpg,FN,3,num_2,32,num_4,0.850099317147,,,2017_May_24_1050,60.0062165936,FEMA4ImagesEEG,001,100364,
AFNE01.JPG,AFNE01.JPG,AFNE01.JPG,AFNE01.JPG,AFNE01.JPG,AFNE01.JPG,,,,,,,,,,,,,,,,,5,2,52,9,,,,,,,AFSA09.jpg,AFSA13.jpg,AFNE16.jpg,AFNE07.jpg,AFSA09.jpg,FS,4,num_8,32,num_2,2.54969624337,,,2017_May_24_1050,60.0062165936,FEMA4ImagesEEG,001,100364,
AFNE01.JPG,AFNE01.JPG,AFNE01.JPG,AFNE01.JPG,AFNE01.JPG,AFNE01.JPG,,,,,,,,,,,,,,,,,5,3,53,8,,,,,,,AFSA10.jpg,AFNE06.jpg,AFSA12.jpg,AFNE03.jpg,AFNE03.jpg,FN,3,num_4,16,num_4,0.500147059327,,,2017_May_24_1050,60.0062165936,FEMA4ImagesEEG,001,100364,
AFNE01.JPG,AFNE01.JPG,AFNE01.JPG,AFNE01.JPG,AFNE01.JPG,AFNE01.JPG,,,,,,,,,,,,,,,,,5,4,54,7,,,,,,,AFSA03.jpg,AFNE13.jpg,AFNE19.jpg,AFSA12.jpg,AFSA03.jpg,FS,4,num_8,32,num_6,0.716794358566,,,2017_May_24_1050,60.0062165936,FEMA4ImagesEEG,001,100364,
AFNE01.JPG,AFNE01.JPG,AFNE01.JPG,AFNE01.JPG,AFNE01.JPG,AFNE01.JPG,,,,,,,,,,,,,,,,,5,5,55,4,,,,,,,AFSA10.jpg,AFNE12.jpg,AFNE07.jpg,AFSA08.jpg,AFNE07.jpg,FN,3,num_2,32,num_6,0.966963147977,,,2017_May_24_1050,60.0062165936,FEMA4ImagesEEG,001,100364,
AFNE01.JPG,AFNE01.JPG,AFNE01.JPG,AFNE01.JPG,AFNE01.JPG,AFNE01.JPG,,,,,,,,,,,,,,,,,5,6,56,6,,,,,,,AFNE01.jpg,AFSA02.jpg,AFSA07.jpg,AFNE07.jpg,AFNE07.jpg,FN,3,num_4,32,num_2,0.833423407748,,,2017_May_24_1050,60.0062165936,FEMA4ImagesEEG,001,100364,
AFNE01.JPG,AFNE01.JPG,AFNE01.JPG,AFNE01.JPG,AFNE01.JPG,AFNE01.JPG,,,,,,,,,,,,,,,,,5,7,57,0,,,,,,,AFNE10.jpg,AFSA15.jpg,AFNE04.jpg,AFSA07.jpg,AFSA15.jpg,FS,4,num_6,16,num_6,0.666757970583,,,2017_May_24_1050,60.0062165936,FEMA4ImagesEEG,001,100364,
AFNE01.JPG,AFNE01.JPG,AFNE01.JPG,AFNE01.JPG,AFNE01.JPG,AFNE01.JPG,,,,,,,,,,,,,,,,,5,8,58,5,,,,,,,AFSA06.jpg,AFNE18.jpg,AFSA20.jpg,AFNE11.jpg,AFNE11.jpg,FN,3,num_4,16,num_4,1.16686525813,,,2017_May_24_1050,60.0062165936,FEMA4ImagesEEG,001,100364,
AFNE01.JPG,AFNE01.JPG,AFNE01.JPG,AFNE01.JPG,AFNE01.JPG,AFNE01.JPG,,,,,,,,,,,,,,,,,5,9,59,1,,,,,,,AFNE07.jpg,AFSA06.jpg,AFNE02.jpg,AFSA14.jpg,AFSA06.jpg,FS,4,num_6,16,num_6,1.43351109803,,,2017_May_24_1050,60.0062165936,FEMA4ImagesEEG,001,100364,
,,,,,,,,,,,,,,,,,,,,,,,,,,,,,,,,,,,,,,,,,,,space,33.0142960192,2017_May_24_1050,60.0062165936,FEMA4ImagesEEG,001,100364,
AFNE01.JPG,AFNE01.JPG,AFNE01.JPG,AFNE01.JPG,AFNE01.JPG,AFNE01.JPG,,,,,,,,,,,,,,,,,,,,,0,0,0,2,,,AMSA10.jpg,AMNE08.jpg,AMSA05.jpg,AMNE01.jpg,AMNE01.jpg,MN,1,num_4,16,num_4,0.550140788779,,,2017_May_24_1050,60.0062165936,FEMA4ImagesEEG,001,100364,
AFNE01.JPG,AFNE01.JPG,AFNE01.JPG,AFNE01.JPG,AFNE01.JPG,AFNE01.JPG,,,,,,,,,,,,,,,,,,,,,0,1,1,7,,,AMNE16.jpg,AMSA16.jpg,AMNE20.jpg,AMSA13.jpg,AMNE20.jpg,MN,1,num_2,16,num_2,0.733485342702,,,2017_May_24_1050,60.0062165936,FEMA4ImagesEEG,001,100364,
AFNE01.JPG,AFNE01.JPG,AFNE01.JPG,AFNE01.JPG,AFNE01.JPG,AFNE01.JPG,,,,,,,,,,,,,,,,,,,,,0,2,2,8,,,AMNE17.jpg,AMSA18.jpg,AMSA10.jpg,AMNE02.jpg,AMNE17.jpg,MN,1,num_8,32,num_2,0.850121448166,,,2017_May_24_1050,60.0062165936,FEMA4ImagesEEG,001,100364,
AFNE01.JPG,AFNE01.JPG,AFNE01.JPG,AFNE01.JPG,AFNE01.JPG,AFNE01.JPG,,,,,,,,,,,,,,,,,,,,,0,3,3,3,,,AMNE16.jpg,AMSA07.jpg,AMSA10.jpg,AMNE12.jpg,AMNE16.jpg,MN,1,num_8,16,num_8,0.750117631396,,,2017_May_24_1050,60.0062165936,FEMA4ImagesEEG,001,100364,
AFNE01.JPG,AFNE01.JPG,AFNE01.JPG,AFNE01.JPG,AFNE01.JPG,AFNE01.JPG,,,,,,,,,,,,,,,,,,,,,0,4,4,5,,,AMSA08.jpg,AMNE02.jpg,AMNE17.jpg,AMSA10.jpg,AMSA08.jpg,MS,2,num_8,32,num_6,1.0667527105,,,2017_May_24_1050,60.0062165936,FEMA4ImagesEEG,001,100364,
AFNE01.JPG,AFNE01.JPG,AFNE01.JPG,AFNE01.JPG,AFNE01.JPG,AFNE01.JPG,,,,,,,,,,,,,,,,,,,,,0,5,5,0,,,AMSA02.jpg,AMNE14.jpg,AMSA05.jpg,AMNE13.jpg,AMNE14.jpg,MN,1,num_6,16,num_6,0.783473940333,,,2017_May_24_1050,60.0062165936,FEMA4ImagesEEG,001,100364,
AFNE01.JPG,AFNE01.JPG,AFNE01.JPG,AFNE01.JPG,AFNE01.JPG,AFNE01.JPG,,,,,,,,,,,,,,,,,,,,,0,6,6,6,,,AMSA17.jpg,AMNE06.jpg,AMNE13.jpg,AMSA06.jpg,AMSA17.jpg,MS,2,num_8,16,num_8,0.950126227224,,,2017_May_24_1050,60.0062165936,FEMA4ImagesEEG,001,100364,
AFNE01.JPG,AFNE01.JPG,AFNE01.JPG,AFNE01.JPG,AFNE01.JPG,AFNE01.JPG,,,,,,,,,,,,,,,,,,,,,0,7,7,4,,,AMNE04.jpg,AMSA18.jpg,AMSA04.jpg,AMNE06.jpg,AMSA18.jpg,MS,2,num_6,16,num_6,0.600080954726,,,2017_May_24_1050,60.0062165936,FEMA4ImagesEEG,001,100364,
AFNE01.JPG,AFNE01.JPG,AFNE01.JPG,AFNE01.JPG,AFNE01.JPG,AFNE01.JPG,,,,,,,,,,,,,,,,,,,,,0,8,8,9,,,AMNE17.jpg,AMSA06.jpg,AMNE12.jpg,AMSA12.jpg,AMSA06.jpg,MS,2,num_6,32,num_4,0.616807861719,,,2017_May_24_1050,60.0062165936,FEMA4ImagesEEG,001,100364,
AFNE01.JPG,AFNE01.JPG,AFNE01.JPG,AFNE01.JPG,AFNE01.JPG,AFNE01.JPG,,,,,,,,,,,,,,,,,,,,,0,9,9,1,,,AMNE20.jpg,AMNE13.jpg,AMSA04.jpg,AMSA01.jpg,AMSA01.jpg,MS,2,num_4,16,num_4,1.30009452207,,,2017_May_24_1050,60.0062165936,FEMA4ImagesEEG,001,100364,
AFNE01.JPG,AFNE01.JPG,AFNE01.JPG,AFNE01.JPG,AFNE01.JPG,AFNE01.JPG,,,,,,,,,,,,,,,,,,,,,1,0,10,3,,,AMNE03.jpg,AMSA13.jpg,AMNE12.jpg,AMSA02.jpg,AMNE12.jpg,MN,1,num_2,16,num_2,1.0169928004,,,2017_May_24_1050,60.0062165936,FEMA4ImagesEEG,001,100364,
AFNE01.JPG,AFNE01.JPG,AFNE01.JPG,AFNE01.JPG,AFNE01.JPG,AFNE01.JPG,,,,,,,,,,,,,,,,,,,,,1,1,11,6,,,AMSA08.jpg,AMSA04.jpg,AMNE03.jpg,AMNE11.jpg,AMSA08.jpg,MS,2,num_8,32,num_2,1.03344419168,,,2017_May_24_1050,60.0062165936,FEMA4ImagesEEG,001,100364,
AFNE01.JPG,AFNE01.JPG,AFNE01.JPG,AFNE01.JPG,AFNE01.JPG,AFNE01.JPG,,,,,,,,,,,,,,,,,,,,,1,2,12,1,,,AMSA19.jpg,AMNE17.jpg,AMSA01.jpg,AMNE09.jpg,AMNE17.jpg,MN,1,num_6,16,num_6,0.666664956021,,,2017_May_24_1050,60.0062165936,FEMA4ImagesEEG,001,100364,
AFNE01.JPG,AFNE01.JPG,AFNE01.JPG,AFNE01.JPG,AFNE01.JPG,AFNE01.JPG,,,,,,,,,,,,,,,,,,,,,1,3,13,8,,,AMSA03.jpg,AMNE13.jpg,AMSA19.jpg,AMNE09.jpg,AMNE09.jpg,MN,1,num_4,32,num_6,0.683468840551,,,2017_May_24_1050,60.0062165936,FEMA4ImagesEEG,001,100364,
AFNE01.JPG,AFNE01.JPG,AFNE01.JPG,AFNE01.JPG,AFNE01.JPG,AFNE01.JPG,,,,,,,,,,,,,,,,,,,,,1,4,14,5,,,AMNE03.jpg,AMSA15.jpg,AMSA19.jpg,AMNE12.jpg,AMNE12.jpg,MN,1,num_4,16,num_4,1.06674501277,,,2017_May_24_1050,60.0062165936,FEMA4ImagesEEG,001,100364,
AFNE01.JPG,AFNE01.JPG,AFNE01.JPG,AFNE01.JPG,AFNE01.JPG,AFNE01.JPG,,,,,,,,,,,,,,,,,,,,,1,5,15,7,,,AMNE05.jpg,AMNE09.jpg,AMSA05.jpg,AMSA12.jpg,AMNE09.jpg,MN,1,num_6,16,num_6,0.700141542591,,,2017_May_24_1050,60.0062165936,FEMA4ImagesEEG,001,100364,
AFNE01.JPG,AFNE01.JPG,AFNE01.JPG,AFNE01.JPG,AFNE01.JPG,AFNE01.JPG,,,,,,,,,,,,,,,,,,,,,1,6,16,9,,,AMSA09.jpg,AMSA14.jpg,AMNE12.jpg,AMNE02.jpg,AMSA09.jpg,MS,2,num_8,16,num_8,1.1501149371,,,2017_May_24_1050,60.0062165936,FEMA4ImagesEEG,001,100364,
AFNE01.JPG,AFNE01.JPG,AFNE01.JPG,AFNE01.JPG,AFNE01.JPG,AFNE01.JPG,,,,,,,,,,,,,,,,,,,,,1,7,17,0,,,AMNE11.jpg,AMNE09.jpg,AMSA19.jpg,AMSA18.jpg,AMNE11.jpg,MN,1,num_8,32,num_6,0.61674852483,,,2017_May_24_1050,60.0062165936,FEMA4ImagesEEG,001,100364,
AFNE01.JPG,AFNE01.JPG,AFNE01.JPG,AFNE01.JPG,AFNE01.JPG,AFNE01.JPG,,,,,,,,,,,,,,,,,,,,,1,8,18,2,,,AMNE12.jpg,AMSA07.jpg,AMSA06.jpg,AMNE20.jpg,AMSA07.jpg,MS,2,num_6,16,num_6,1.73306677712,,,2017_May_24_1050,60.0062165936,FEMA4ImagesEEG,001,100364,
AFNE01.JPG,AFNE01.JPG,AFNE01.JPG,AFNE01.JPG,AFNE01.JPG,AFNE01.JPG,,,,,,,,,,,,,,,,,,,,,1,9,19,4,,,AMNE10.jpg,AMSA14.jpg,AMNE20.jpg,AMSA04.jpg,AMNE10.jpg,MN,1,num_8,16,num_8,0.583452514955,,,2017_May_24_1050,60.0062165936,FEMA4ImagesEEG,001,100364,
AFNE01.JPG,AFNE01.JPG,AFNE01.JPG,AFNE01.JPG,AFNE01.JPG,AFNE01.JPG,,,,,,,,,,,,,,,,,,,,,2,0,20,8,,,AMNE12.jpg,AMSA05.jpg,AMNE14.jpg,AMSA03.jpg,AMNE14.jpg,MN,1,num_2,32,num_4,1.00014914409,,,2017_May_24_1050,60.0062165936,FEMA4ImagesEEG,001,100364,
AFNE01.JPG,AFNE01.JPG,AFNE01.JPG,AFNE01.JPG,AFNE01.JPG,AFNE01.JPG,,,,,,,,,,,,,,,,,,,,,2,1,21,0,,,AMSA09.jpg,AMNE06.jpg,AMNE12.jpg,AMSA20.jpg,AMNE12.jpg,MN,1,num_2,32,num_6,0.983453348861,,,2017_May_24_1050,60.0062165936,FEMA4ImagesEEG,001,100364,
AFNE01.JPG,AFNE01.JPG,AFNE01.JPG,AFNE01.JPG,AFNE01.JPG,AFNE01.JPG,,,,,,,,,,,,,,,,,,,,,2,2,22,2,,,AMNE20.jpg,AMNE04.jpg,AMSA08.jpg,AMSA05.jpg,AMSA05.jpg,MS,2,num_4,32,num_8,0.700182276429,,,2017_May_24_1050,60.0062165936,FEMA4ImagesEEG,001,100364,
AFNE01.JPG,AFNE01.JPG,AFNE01.JPG,AFNE01.JPG,AFNE01.JPG,AFNE01.JPG,,,,,,,,,,,,,,,,,,,,,2,3,23,1,,,AMNE18.jpg,AMSA12.jpg,AMNE08.jpg,AMSA10.jpg,AMNE08.jpg,MN,1,num_2,32,num_4,0.633456828888,,,2017_May_24_1050,60.0062165936,FEMA4ImagesEEG,001,100364,
AFNE01.JPG,AFNE01.JPG,AFNE01.JPG,AFNE01.JPG,AFNE01.JPG,AFNE01.JPG,,,,,,,,,,,,,,,,,,,,,2,4,24,9,,,AMSA06.jpg,AMSA08.jpg,AMNE13.jpg,AMNE12.jpg,AMSA08.jpg,MS,2,num_6,16,num_6,0.966423984151,,,2017_May_24_1050,60.0062165936,FEMA4ImagesEEG,001,100364,
AFNE01.JPG,AFNE01.JPG,AFNE01.JPG,AFNE01.JPG,AFNE01.JPG,AFNE01.JPG,,,,,,,,,,,,,,,,,,,,,2,5,25,7,,,AMSA13.jpg,AMSA05.jpg,AMNE04.jpg,AMNE17.jpg,AMNE04.jpg,MN,1,num_2,32,num_4,1.10009009577,,,2017_May_24_1050,60.0062165936,FEMA4ImagesEEG,001,100364,
AFNE01.JPG,AFNE01.JPG,AFNE01.JPG,AFNE01.JPG,AFNE01.JPG,AFNE01.JPG,,,,,,,,,,,,,,,,,,,,,2,6,26,6,,,AMSA04.jpg,AMSA16.jpg,AMNE06.jpg,AMNE15.jpg,AMNE15.jpg,MN,1,num_4,32,num_2,1.30012018129,,,2017_May_24_1050,60.0062165936,FEMA4ImagesEEG,001,100364,
AFNE01.JPG,AFNE01.JPG,AFNE01.JPG,AFNE01.JPG,AFNE01.JPG,AFNE01.JPG,,,,,,,,,,,,,,,,,,,,,2,7,27,5,,,AMSA01.jpg,AMSA12.jpg,AMNE20.jpg,AMNE17.jpg,AMNE17.jpg,MN,1,num_4,32,num_6,0.700476715807,,,2017_May_24_1050,60.0062165936,FEMA4ImagesEEG,001,100364,
AFNE01.JPG,AFNE01.JPG,AFNE01.JPG,AFNE01.JPG,AFNE01.JPG,AFNE01.JPG,,,,,,,,,,,,,,,,,,,,,2,8,28,3,,,AMNE17.jpg,AMSA20.jpg,AMNE10.jpg,AMSA14.jpg,AMSA14.jpg,MS,2,num_4,16,num_4,0.71678184974,,,2017_May_24_1050,60.0062165936,FEMA4ImagesEEG,001,100364,
AFNE01.JPG,AFNE01.JPG,AFNE01.JPG,AFNE01.JPG,AFNE01.JPG,AFNE01.JPG,,,,,,,,,,,,,,,,,,,,,2,9,29,4,,,AMSA13.jpg,AMSA16.jpg,AMNE11.jpg,AMNE17.jpg,AMSA13.jpg,MS,2,num_8,32,num_4,0.683463388006,,,2017_May_24_1050,60.0062165936,FEMA4ImagesEEG,001,100364,
AFNE01.JPG,AFNE01.JPG,AFNE01.JPG,AFNE01.JPG,AFNE01.JPG,AFNE01.JPG,,,,,,,,,,,,,,,,,,,,,3,0,30,3,,,AMNE09.jpg,AMNE18.jpg,AMSA16.jpg,AMSA09.jpg,AMSA09.jpg,MS,2,num_4,32,num_8,1.61672799743,,,2017_May_24_1050,60.0062165936,FEMA4ImagesEEG,001,100364,
AFNE01.JPG,AFNE01.JPG,AFNE01.JPG,AFNE01.JPG,AFNE01.JPG,AFNE01.JPG,,,,,,,,,,,,,,,,,,,,,3,1,31,0,,,AMNE16.jpg,AMSA11.jpg,AMNE08.jpg,AMSA12.jpg,AMNE16.jpg,MN,1,num_8,32,num_4,0.33349252725,,,2017_May_24_1050,60.0062165936,FEMA4ImagesEEG,001,100364,
AFNE01.JPG,AFNE01.JPG,AFNE01.JPG,AFNE01.JPG,AFNE01.JPG,AFNE01.JPG,,,,,,,,,,,,,,,,,,,,,3,2,32,6,,,AMNE15.jpg,AMSA17.jpg,AMNE03.jpg,AMSA18.jpg,AMSA18.jpg,MS,2,num_4,32,num_6,0.517067693174,,,2017_May_24_1050,60.0062165936,FEMA4ImagesEEG,001,100364,
AFNE01.JPG,AFNE01.JPG,AFNE01.JPG,AFNE01.JPG,AFNE01.JPG,AFNE01.JPG,,,,,,,,,,,,,,,,,,,,,3,3,33,1,,,AMNE10.jpg,AMSA05.jpg,AMSA11.jpg,AMNE13.jpg,AMSA05.jpg,MS,2,num_6,32,num_2,1.55005964159,,,2017_May_24_1050,60.0062165936,FEMA4ImagesEEG,001,100364,
AFNE01.JPG,AFNE01.JPG,AFNE01.JPG,AFNE01.JPG,AFNE01.JPG,AFNE01.JPG,,,,,,,,,,,,,,,,,,,,,3,4,34,8,,,AMSA12.jpg,AMNE04.jpg,AMNE09.jpg,AMSA06.jpg,AMSA12.jpg,MS,2,num_8,16,num_8,1.25005845481,,,2017_May_24_1050,60.0062165936,FEMA4ImagesEEG,001,100364,
AFNE01.JPG,AFNE01.JPG,AFNE01.JPG,AFNE01.JPG,AFNE01.JPG,AFNE01.JPG,,,,,,,,,,,,,,,,,,,,,3,5,35,5,,,AMSA03.jpg,AMNE09.jpg,AMSA16.jpg,AMNE18.jpg,AMSA16.jpg,MS,2,num_2,32,num_6,0.550177673926,,,2017_May_24_1050,60.0062165936,FEMA4ImagesEEG,001,100364,
AFNE01.JPG,AFNE01.JPG,AFNE01.JPG,AFNE01.JPG,AFNE01.JPG,AFNE01.JPG,,,,,,,,,,,,,,,,,,,,,3,6,36,4,,,AMNE05.jpg,AMSA08.jpg,AMNE10.jpg,AMSA15.jpg,AMSA15.jpg,MS,2,num_4,16,num_4,0.7500935758,,,2017_May_24_1050,60.0062165936,FEMA4ImagesEEG,001,100364,
AFNE01.JPG,AFNE01.JPG,AFNE01.JPG,AFNE01.JPG,AFNE01.JPG,AFNE01.JPG,,,,,,,,,,,,,,,,,,,,,3,7,37,7,,,AMSA02.jpg,AMNE02.jpg,AMNE11.jpg,AMSA14.jpg,AMSA14.jpg,MS,2,num_4,16,num_4,0.850136202178,,,2017_May_24_1050,60.0062165936,FEMA4ImagesEEG,001,100364,
AFNE01.JPG,AFNE01.JPG,AFNE01.JPG,AFNE01.JPG,AFNE01.JPG,AFNE01.JPG,,,,,,,,,,,,,,,,,,,,,3,8,38,9,,,AMNE01.jpg,AMSA08.jpg,AMNE09.jpg,AMSA19.jpg,AMNE09.jpg,MN,1,num_2,16,num_2,1.35007862933,,,2017_May_24_1050,60.0062165936,FEMA4ImagesEEG,001,100364,
