IPosition2,IPosition3,IPosition1,IPosition6,IPosition4,IPosition5,TrialsF1.thisRepN,TrialsF1.thisTrialN,TrialsF1.thisN,TrialsF1.thisIndex,TrialsM1.thisRepN,TrialsM1.thisTrialN,TrialsM1.thisN,TrialsM1.thisIndex,TrialsF2.thisRepN,TrialsF2.thisTrialN,TrialsF2.thisN,TrialsF2.thisIndex,TrialsM2.thisRepN,TrialsM2.thisTrialN,TrialsM2.thisN,TrialsM2.thisIndex,TrialsF3.thisRepN,TrialsF3.thisTrialN,TrialsF3.thisN,TrialsF3.thisIndex,TrialsM3.thisRepN,TrialsM3.thisTrialN,TrialsM3.thisN,TrialsM3.thisIndex,InstrKey_resp.keys,InstrKey_resp.rt,Image0 _Position,Image1 _Position,Image2 _Position,Image3 _Position,Center_image,condition,code,correct_answer,accuracy,Key_Resp.keys,Key_Resp.rt,BreakKey_resp.keys,BreakKey_resp.rt,date,frameRate,expName,session,participant,
,,,,,,,,,,,,,,,,,,,,,,,,,,,,,,space,34.3311746523,,,,,,,,,,,,,,2017_May_09_1447,60.0078720309,FEMA4ImagesEEG,001,100366,
AMSA21.JPG,AMNE23.JPG,AMNE21.JPG,AMSA25.JPG,AMNE25.JPG,AMSA23.JPG,0,0,0,5,,,,,,,,,,,,,,,,,,,,,,,AFNE13.jpg,AFSA06.jpg,AFSA12.jpg,AFNE12.jpg,AFNE13.jpg,FN,3,num_8,32,num_4,3.08333378774,,,2017_May_09_1447,60.0078720309,FEMA4ImagesEEG,001,100366,
AFSA25.JPG,AFNE24.JPG,AFSA24.JPG,AFNE21.JPG,AFSA21.JPG,AFNE25.JPG,0,1,1,2,,,,,,,,,,,,,,,,,,,,,,,AFNE03.jpg,AFSA04.jpg,AFSA03.jpg,AFNE02.jpg,AFSA04.jpg,FS,4,num_6,32,num_2,1.90014365898,,,2017_May_09_1447,60.0078720309,FEMA4ImagesEEG,001,100366,
AMSA25.JPG,AMNE24.JPG,AMSA24.JPG,AMNE26.JPG,AMSA21.JPG,AMNE25.JPG,0,2,2,3,,,,,,,,,,,,,,,,,,,,,,,AFSA04.jpg,AFNE07.jpg,AFNE06.jpg,AFSA05.jpg,AFNE06.jpg,FN,3,num_2,32,num_4,1.3167253565,,,2017_May_09_1447,60.0078720309,FEMA4ImagesEEG,001,100366,
AFSA21.JPG,AFNE23.JPG,AFNE21.JPG,AFSA25.JPG,AFNE25.JPG,AFSA23.JPG,0,3,3,4,,,,,,,,,,,,,,,,,,,,,,,AFSA20.jpg,AFNE06.jpg,AFSA04.jpg,AFNE02.jpg,AFNE06.jpg,FN,3,num_6,32,num_4,2.21668555285,,,2017_May_09_1447,60.0078720309,FEMA4ImagesEEG,001,100366,
AMNE23.JPG,AMNE24.JPG,AMNE22.JPG,AMSA24.JPG,AMSA22.JPG,AMSA23.JPG,0,4,4,9,,,,,,,,,,,,,,,,,,,,,,,AFNE05.jpg,AFNE02.jpg,AFSA11.jpg,AFSA04.jpg,AFSA04.jpg,FS,4,num_4,16,num_4,1.76667129598,,,2017_May_09_1447,60.0078720309,FEMA4ImagesEEG,001,100366,
AFNE22.JPG,AFSA24.JPG,AFSA22.JPG,AFNE25.JPG,AFNE24.JPG,AFSA25.JPG,0,5,5,6,,,,,,,,,,,,,,,,,,,,,,,AFNE08.jpg,AFSA13.jpg,AFNE19.jpg,AFSA16.jpg,AFNE19.jpg,FN,3,num_2,32,num_6,2.28329247655,,,2017_May_09_1447,60.0078720309,FEMA4ImagesEEG,001,100366,
AMNE22.JPG,AMSA24.JPG,AMSA22.JPG,AMNE25.JPG,AMNE24.JPG,AMSA25.JPG,0,6,6,7,,,,,,,,,,,,,,,,,,,,,,,AFNE01.jpg,AFSA11.jpg,AFSA03.jpg,AFNE10.jpg,AFNE10.jpg,FN,3,num_4,32,num_2,1.41675265157,,,2017_May_09_1447,60.0078720309,FEMA4ImagesEEG,001,100366,
AFNE23.JPG,AFNE24.JPG,AFNE22.JPG,AFSA24.JPG,AFSA22.JPG,AFSA23.JPG,0,7,7,8,,,,,,,,,,,,,,,,,,,,,,,AFNE16.jpg,AFNE18.jpg,AFSA14.jpg,AFSA10.jpg,AFNE16.jpg,FN,3,num_8,32,num_6,1.46668338776,,,2017_May_09_1447,60.0078720309,FEMA4ImagesEEG,001,100366,
AMSA21.JPG,AMNE22.JPG,AMNE21.JPG,AMSA23.JPG,AMSA22.JPG,AMNE23.JPG,0,8,8,1,,,,,,,,,,,,,,,,,,,,,,,AFNE10.jpg,AFSA10.jpg,AFSA04.jpg,AFNE04.jpg,AFSA10.jpg,FS,4,num_6,16,num_6,1.40013515949,,,2017_May_09_1447,60.0078720309,FEMA4ImagesEEG,001,100366,
AFSA21.JPG,AFNE22.JPG,AFNE21.JPG,AFSA23.JPG,AFSA22.JPG,AFNE23.JPG,0,9,9,0,,,,,,,,,,,,,,,,,,,,,,,AFNE12.jpg,AFNE20.jpg,AFSA13.jpg,AFSA19.jpg,AFSA13.jpg,FS,4,num_2,16,num_2,1.00008050562,,,2017_May_09_1447,60.0078720309,FEMA4ImagesEEG,001,100366,
AMNE23.JPG,AMNE24.JPG,AMNE22.JPG,AMSA24.JPG,AMSA22.JPG,AMSA23.JPG,,,,,0,0,0,9,,,,,,,,,,,,,,,,,,,AMSA05.jpg,AMNE19.jpg,AMSA17.jpg,AMNE11.jpg,AMSA17.jpg,MS,2,num_2,32,num_8,1.80007049837,,,2017_May_09_1447,60.0078720309,FEMA4ImagesEEG,001,100366,
AMSA21.JPG,AMNE23.JPG,AMNE21.JPG,AMSA25.JPG,AMNE25.JPG,AMSA23.JPG,,,,,0,1,1,5,,,,,,,,,,,,,,,,,,,AMNE16.jpg,AMSA14.jpg,AMNE13.jpg,AMSA01.jpg,AMSA01.jpg,MS,2,num_4,16,num_4,1.23346854607,,,2017_May_09_1447,60.0078720309,FEMA4ImagesEEG,001,100366,
AMSA21.JPG,AMNE22.JPG,AMNE21.JPG,AMSA23.JPG,AMSA22.JPG,AMNE23.JPG,,,,,0,2,2,1,,,,,,,,,,,,,,,,,,,AMSA06.jpg,AMNE03.jpg,AMSA15.jpg,AMNE18.jpg,AMSA06.jpg,MS,2,num_8,16,num_8,1.0334078623,,,2017_May_09_1447,60.0078720309,FEMA4ImagesEEG,001,100366,
AFNE22.JPG,AFSA24.JPG,AFSA22.JPG,AFNE25.JPG,AFNE24.JPG,AFSA25.JPG,,,,,0,3,3,6,,,,,,,,,,,,,,,,,,,AMSA09.jpg,AMSA06.jpg,AMNE03.jpg,AMNE16.jpg,AMNE03.jpg,MN,1,num_2,32,num_6,1.73339942703,,,2017_May_09_1447,60.0078720309,FEMA4ImagesEEG,001,100366,
AFSA25.JPG,AFNE24.JPG,AFSA24.JPG,AFNE21.JPG,AFSA21.JPG,AFNE25.JPG,,,,,0,4,4,2,,,,,,,,,,,,,,,,,,,AMSA15.jpg,AMNE08.jpg,AMNE19.jpg,AMSA20.jpg,AMNE19.jpg,MN,1,num_2,16,num_2,2.333586931,,,2017_May_09_1447,60.0078720309,FEMA4ImagesEEG,001,100366,
AFNE23.JPG,AFNE24.JPG,AFNE22.JPG,AFSA24.JPG,AFSA22.JPG,AFSA23.JPG,,,,,0,5,5,8,,,,,,,,,,,,,,,,,,,AMSA18.jpg,AMNE09.jpg,AMNE16.jpg,AMSA20.jpg,AMNE16.jpg,MN,1,num_2,16,num_2,1.38357828697,,,2017_May_09_1447,60.0078720309,FEMA4ImagesEEG,001,100366,
AFSA21.JPG,AFNE22.JPG,AFNE21.JPG,AFSA23.JPG,AFSA22.JPG,AFNE23.JPG,,,,,0,6,6,0,,,,,,,,,,,,,,,,,,,AMNE06.jpg,AMSA20.jpg,AMNE17.jpg,AMSA06.jpg,AMSA06.jpg,MS,2,num_4,32,num_2,1.7333981439,,,2017_May_09_1447,60.0078720309,FEMA4ImagesEEG,001,100366,
AFSA21.JPG,AFNE23.JPG,AFNE21.JPG,AFSA25.JPG,AFNE25.JPG,AFSA23.JPG,,,,,0,7,7,4,,,,,,,,,,,,,,,,,,,AMSA01.jpg,AMNE19.jpg,AMSA06.jpg,AMNE04.jpg,AMNE19.jpg,MN,1,num_6,16,num_6,1.55006272066,,,2017_May_09_1447,60.0078720309,FEMA4ImagesEEG,001,100366,
AMSA25.JPG,AMNE24.JPG,AMSA24.JPG,AMNE26.JPG,AMSA21.JPG,AMNE25.JPG,,,,,0,8,8,3,,,,,,,,,,,,,,,,,,,AMSA08.jpg,AMSA12.jpg,AMNE06.jpg,AMNE16.jpg,AMNE16.jpg,MN,1,num_4,32,num_8,2.08333699498,,,2017_May_09_1447,60.0078720309,FEMA4ImagesEEG,001,100366,
AMNE22.JPG,AMSA24.JPG,AMSA22.JPG,AMNE25.JPG,AMNE24.JPG,AMSA25.JPG,,,,,0,9,9,7,,,,,,,,,,,,,,,,,,,AMNE13.jpg,AMSA01.jpg,AMSA06.jpg,AMNE19.jpg,AMNE19.jpg,MN,1,num_4,16,num_4,1.73340295511,,,2017_May_09_1447,60.0078720309,FEMA4ImagesEEG,001,100366,
AFSA21.JPG,AFNE23.JPG,AFNE21.JPG,AFSA25.JPG,AFNE25.JPG,AFSA23.JPG,,,,,,,,,0,0,0,4,,,,,,,,,,,,,,,AFNE18.jpg,AFSA16.jpg,AFSA07.jpg,AFNE16.jpg,AFSA16.jpg,FS,4,num_6,32,num_4,1.65000950987,,,2017_May_09_1447,60.0078720309,FEMA4ImagesEEG,001,100366,
AFNE23.JPG,AFNE24.JPG,AFNE22.JPG,AFSA24.JPG,AFSA22.JPG,AFSA23.JPG,,,,,,,,,0,1,1,8,,,,,,,,,,,,,,,AFSA12.jpg,AFNE14.jpg,AFSA01.jpg,AFNE06.jpg,AFSA12.jpg,FS,4,num_8,16,num_8,0.749805231113,,,2017_May_09_1447,60.0078720309,FEMA4ImagesEEG,001,100366,
AMSA21.JPG,AMNE23.JPG,AMNE21.JPG,AMSA25.JPG,AMNE25.JPG,AMSA23.JPG,,,,,,,,,0,2,2,5,,,,,,,,,,,,,,,AFNE15.jpg,AFSA05.jpg,AFNE02.jpg,AFSA08.jpg,AFSA05.jpg,FS,4,num_6,32,num_2,1.23340471904,,,2017_May_09_1447,60.0078720309,FEMA4ImagesEEG,001,100366,
AMNE22.JPG,AMSA24.JPG,AMSA22.JPG,AMNE25.JPG,AMNE24.JPG,AMSA25.JPG,,,,,,,,,0,3,3,7,,,,,,,,,,,,,,,AFSA08.jpg,AFNE01.jpg,AFNE10.jpg,AFSA19.jpg,AFSA19.jpg,FS,4,num_4,32,num_6,1.21673783334,,,2017_May_09_1447,60.0078720309,FEMA4ImagesEEG,001,100366,
AFSA25.JPG,AFNE24.JPG,AFSA24.JPG,AFNE21.JPG,AFSA21.JPG,AFNE25.JPG,,,,,,,,,0,4,4,2,,,,,,,,,,,,,,,AFNE11.jpg,AFSA15.jpg,AFNE18.jpg,AFSA18.jpg,AFSA15.jpg,FS,4,num_6,16,num_6,2.03335718554,,,2017_May_09_1447,60.0078720309,FEMA4ImagesEEG,001,100366,
AMSA21.JPG,AMNE22.JPG,AMNE21.JPG,AMSA23.JPG,AMSA22.JPG,AMNE23.JPG,,,,,,,,,0,5,5,1,,,,,,,,,,,,,,,AFSA09.jpg,AFNE05.jpg,AFSA04.jpg,AFNE15.jpg,AFNE05.jpg,FN,3,num_6,32,num_2,1.18342298525,,,2017_May_09_1447,60.0078720309,FEMA4ImagesEEG,001,100366,
AMSA25.JPG,AMNE24.JPG,AMSA24.JPG,AMNE26.JPG,AMSA21.JPG,AMNE25.JPG,,,,,,,,,0,6,6,3,,,,,,,,,,,,,,,AFNE14.jpg,AFNE05.jpg,AFSA02.jpg,AFSA11.jpg,AFNE05.jpg,FN,3,num_6,16,num_6,0.633544048062,,,2017_May_09_1447,60.0078720309,FEMA4ImagesEEG,001,100366,
AFSA21.JPG,AFNE22.JPG,AFNE21.JPG,AFSA23.JPG,AFSA22.JPG,AFNE23.JPG,,,,,,,,,0,7,7,0,,,,,,,,,,,,,,,AFSA02.jpg,AFNE17.jpg,AFNE13.jpg,AFSA06.jpg,AFNE13.jpg,FN,3,num_2,32,num_6,1.63339426322,,,2017_May_09_1447,60.0078720309,FEMA4ImagesEEG,001,100366,
AMNE23.JPG,AMNE24.JPG,AMNE22.JPG,AMSA24.JPG,AMSA22.JPG,AMSA23.JPG,,,,,,,,,0,8,8,9,,,,,,,,,,,,,,,AFSA09.jpg,AFNE18.jpg,AFSA12.jpg,AFNE10.jpg,AFNE10.jpg,FN,3,num_4,32,num_8,0.866761776619,,,2017_May_09_1447,60.0078720309,FEMA4ImagesEEG,001,100366,
AFNE22.JPG,AFSA24.JPG,AFSA22.JPG,AFNE25.JPG,AFNE24.JPG,AFSA25.JPG,,,,,,,,,0,9,9,6,,,,,,,,,,,,,,,AFNE13.jpg,AFNE15.jpg,AFSA09.jpg,AFSA10.jpg,AFNE15.jpg,FN,3,num_6,16,num_6,1.26671347301,,,2017_May_09_1447,60.0078720309,FEMA4ImagesEEG,001,100366,
AMNE22.JPG,AMSA24.JPG,AMSA22.JPG,AMNE25.JPG,AMNE24.JPG,AMSA25.JPG,,,,,,,,,,,,,0,0,0,7,,,,,,,,,,,AMNE12.jpg,AMSA16.jpg,AMSA12.jpg,AMNE10.jpg,AMSA12.jpg,MS,2,num_2,32,num_4,1.11669642595,,,2017_May_09_1447,60.0078720309,FEMA4ImagesEEG,001,100366,
AMNE23.JPG,AMNE24.JPG,AMNE22.JPG,AMSA24.JPG,AMSA22.JPG,AMSA23.JPG,,,,,,,,,,,,,0,1,1,9,,,,,,,,,,,AMNE07.jpg,AMNE16.jpg,AMSA10.jpg,AMSA03.jpg,AMNE07.jpg,MN,1,num_8,32,num_6,1.10007348121,,,2017_May_09_1447,60.0078720309,FEMA4ImagesEEG,001,100366,
AFSA21.JPG,AFNE23.JPG,AFNE21.JPG,AFSA25.JPG,AFNE25.JPG,AFSA23.JPG,,,,,,,,,,,,,0,2,2,4,,,,,,,,,,,AMSA15.jpg,AMNE01.jpg,AMSA09.jpg,AMNE05.jpg,AMNE01.jpg,MN,1,num_6,32,num_4,1.96667777491,,,2017_May_09_1447,60.0078720309,FEMA4ImagesEEG,001,100366,
AMSA21.JPG,AMNE23.JPG,AMNE21.JPG,AMSA25.JPG,AMNE25.JPG,AMSA23.JPG,,,,,,,,,,,,,0,3,3,5,,,,,,,,,,,AMSA10.jpg,AMNE06.jpg,AMNE16.jpg,AMSA04.jpg,AMSA04.jpg,MS,2,num_4,32,num_6,1.20007447572,,,2017_May_09_1447,60.0078720309,FEMA4ImagesEEG,001,100366,
AFNE23.JPG,AFNE24.JPG,AFNE22.JPG,AFSA24.JPG,AFSA22.JPG,AFSA23.JPG,,,,,,,,,,,,,0,4,4,8,,,,,,,,,,,AMNE11.jpg,AMSA01.jpg,AMSA06.jpg,AMNE17.jpg,AMNE17.jpg,MN,1,num_4,32,num_2,1.26670930372,,,2017_May_09_1447,60.0078720309,FEMA4ImagesEEG,001,100366,
AFSA21.JPG,AFNE22.JPG,AFNE21.JPG,AFSA23.JPG,AFSA22.JPG,AFNE23.JPG,,,,,,,,,,,,,0,5,5,0,,,,,,,,,,,AMNE02.jpg,AMSA16.jpg,AMNE07.jpg,AMSA18.jpg,AMSA16.jpg,MS,2,num_6,32,num_4,0.916741585825,,,2017_May_09_1447,60.0078720309,FEMA4ImagesEEG,001,100366,
AFNE22.JPG,AFSA24.JPG,AFSA22.JPG,AFNE25.JPG,AFNE24.JPG,AFSA25.JPG,,,,,,,,,,,,,0,6,6,6,,,,,,,,,,,AMSA16.jpg,AMNE17.jpg,AMNE02.jpg,AMSA19.jpg,AMSA19.jpg,MS,2,num_4,32,num_8,1.4666994249,,,2017_May_09_1447,60.0078720309,FEMA4ImagesEEG,001,100366,
AMSA25.JPG,AMNE24.JPG,AMSA24.JPG,AMNE26.JPG,AMSA21.JPG,AMNE25.JPG,,,,,,,,,,,,,0,7,7,3,,,,,,,,,,,AMNE13.jpg,AMSA13.jpg,AMNE03.jpg,AMSA01.jpg,AMSA01.jpg,MS,2,num_4,16,num_4,2.20000904496,,,2017_May_09_1447,60.0078720309,FEMA4ImagesEEG,001,100366,
AFSA25.JPG,AFNE24.JPG,AFSA24.JPG,AFNE21.JPG,AFSA21.JPG,AFNE25.JPG,,,,,,,,,,,,,0,8,8,2,,,,,,,,,,,AMSA18.jpg,AMNE05.jpg,AMSA17.jpg,AMNE17.jpg,AMNE17.jpg,MN,1,num_4,32,num_2,0.683469011448,,,2017_May_09_1447,60.0078720309,FEMA4ImagesEEG,001,100366,
AMSA21.JPG,AMNE22.JPG,AMNE21.JPG,AMSA23.JPG,AMSA22.JPG,AMNE23.JPG,,,,,,,,,,,,,0,9,9,1,,,,,,,,,,,AMNE02.jpg,AMSA14.jpg,AMNE10.jpg,AMSA08.jpg,AMSA14.jpg,MS,2,num_6,16,num_6,0.483484022086,,,2017_May_09_1447,60.0078720309,FEMA4ImagesEEG,001,100366,
AFNE22.JPG,AFSA24.JPG,AFSA22.JPG,AFNE25.JPG,AFNE24.JPG,AFSA25.JPG,,,,,,,,,,,,,,,,,0,0,0,6,,,,,,,AFSA20.jpg,AFSA14.jpg,AFNE04.jpg,AFNE15.jpg,AFSA14.jpg,FS,4,num_6,32,num_8,0.866749909241,,,2017_May_09_1447,60.0078720309,FEMA4ImagesEEG,001,100366,
AMSA21.JPG,AMNE23.JPG,AMNE21.JPG,AMSA25.JPG,AMNE25.JPG,AMSA23.JPG,,,,,,,,,,,,,,,,,0,1,1,5,,,,,,,AFSA18.jpg,AFNE03.jpg,AFNE16.jpg,AFSA14.jpg,AFNE16.jpg,FN,3,num_2,16,num_2,1.21670736326,,,2017_May_09_1447,60.0078720309,FEMA4ImagesEEG,001,100366,
AMNE22.JPG,AMSA24.JPG,AMSA22.JPG,AMNE25.JPG,AMNE24.JPG,AMSA25.JPG,,,,,,,,,,,,,,,,,0,2,2,7,,,,,,,AFNE07.jpg,AFNE01.jpg,AFSA17.jpg,AFSA11.jpg,AFSA17.jpg,FS,4,num_2,32,num_6,0.983142274432,,,2017_May_09_1447,60.0078720309,FEMA4ImagesEEG,001,100366,
AMSA21.JPG,AMNE22.JPG,AMNE21.JPG,AMSA23.JPG,AMSA22.JPG,AMNE23.JPG,,,,,,,,,,,,,,,,,0,3,3,1,,,,,,,AFSA12.jpg,AFNE03.jpg,AFSA02.jpg,AFNE13.jpg,AFSA02.jpg,FS,4,num_2,16,num_2,1.26672566123,,,2017_May_09_1447,60.0078720309,FEMA4ImagesEEG,001,100366,
AFNE23.JPG,AFNE24.JPG,AFNE22.JPG,AFSA24.JPG,AFSA22.JPG,AFSA23.JPG,,,,,,,,,,,,,,,,,0,4,4,8,,,,,,,AFSA05.jpg,AFNE17.jpg,AFNE01.jpg,AFSA17.jpg,AFSA17.jpg,FS,4,num_4,16,num_4,1.25014569587,,,2017_May_09_1447,60.0078720309,FEMA4ImagesEEG,001,100366,
AFSA25.JPG,AFNE24.JPG,AFSA24.JPG,AFNE21.JPG,AFSA21.JPG,AFNE25.JPG,,,,,,,,,,,,,,,,,0,5,5,2,,,,,,,AFSA01.jpg,AFNE03.jpg,AFSA09.jpg,AFNE09.jpg,AFSA09.jpg,FS,4,num_2,32,num_8,0.666774542071,,,2017_May_09_1447,60.0078720309,FEMA4ImagesEEG,001,100366,
AFSA21.JPG,AFNE23.JPG,AFNE21.JPG,AFSA25.JPG,AFNE25.JPG,AFSA23.JPG,,,,,,,,,,,,,,,,,0,6,6,4,,,,,,,AFNE19.jpg,AFNE17.jpg,AFSA10.jpg,AFSA20.jpg,AFNE17.jpg,FN,3,num_6,16,num_6,1.58340066182,,,2017_May_09_1447,60.0078720309,FEMA4ImagesEEG,001,100366,
AMNE23.JPG,AMNE24.JPG,AMNE22.JPG,AMSA24.JPG,AMSA22.JPG,AMSA23.JPG,,,,,,,,,,,,,,,,,0,7,7,9,,,,,,,AFSA17.jpg,AFSA19.jpg,AFNE14.jpg,AFNE10.jpg,AFNE14.jpg,FN,3,num_2,16,num_2,1.48345258948,,,2017_May_09_1447,60.0078720309,FEMA4ImagesEEG,001,100366,
AMSA25.JPG,AMNE24.JPG,AMSA24.JPG,AMNE26.JPG,AMSA21.JPG,AMNE25.JPG,,,,,,,,,,,,,,,,,0,8,8,3,,,,,,,AFSA17.jpg,AFNE19.jpg,AFSA04.jpg,AFNE13.jpg,AFSA17.jpg,FS,4,num_8,32,num_6,0.933468449861,,,2017_May_09_1447,60.0078720309,FEMA4ImagesEEG,001,100366,
AFSA21.JPG,AFNE22.JPG,AFNE21.JPG,AFSA23.JPG,AFSA22.JPG,AFNE23.JPG,,,,,,,,,,,,,,,,,0,9,9,0,,,,,,,AFNE17.jpg,AFSA09.jpg,AFSA08.jpg,AFNE04.jpg,AFNE17.jpg,FN,3,num_8,32,num_4,1.30010016682,,,2017_May_09_1447,60.0078720309,FEMA4ImagesEEG,001,100366,
AFSA21.JPG,AFNE23.JPG,AFNE21.JPG,AFSA25.JPG,AFNE25.JPG,AFSA23.JPG,,,,,,,,,,,,,,,,,,,,,0,0,0,4,,,AMSA19.jpg,AMNE17.jpg,AMNE07.jpg,AMSA02.jpg,AMNE17.jpg,MN,1,num_6,32,num_8,1.83336706436,,,2017_May_09_1447,60.0078720309,FEMA4ImagesEEG,001,100366,
AFSA21.JPG,AFNE22.JPG,AFNE21.JPG,AFSA23.JPG,AFSA22.JPG,AFNE23.JPG,,,,,,,,,,,,,,,,,,,,,0,1,1,0,,,AMNE20.jpg,AMSA11.jpg,AMNE03.jpg,AMSA07.jpg,AMNE20.jpg,MN,1,num_8,32,num_2,0.883436039323,,,2017_May_09_1447,60.0078720309,FEMA4ImagesEEG,001,100366,
AFNE23.JPG,AFNE24.JPG,AFNE22.JPG,AFSA24.JPG,AFSA22.JPG,AFSA23.JPG,,,,,,,,,,,,,,,,,,,,,0,2,2,8,,,AMSA15.jpg,AMNE19.jpg,AMSA11.jpg,AMNE03.jpg,AMNE19.jpg,MN,1,num_6,16,num_6,0.700097408378,,,2017_May_09_1447,60.0078720309,FEMA4ImagesEEG,001,100366,
AMSA25.JPG,AMNE24.JPG,AMSA24.JPG,AMNE26.JPG,AMSA21.JPG,AMNE25.JPG,,,,,,,,,,,,,,,,,,,,,0,3,3,3,,,AMNE15.jpg,AMNE02.jpg,AMSA17.jpg,AMSA08.jpg,AMNE02.jpg,MN,1,num_6,32,num_4,0.866763059283,,,2017_May_09_1447,60.0078720309,FEMA4ImagesEEG,001,100366,
AMSA21.JPG,AMNE23.JPG,AMNE21.JPG,AMSA25.JPG,AMNE25.JPG,AMSA23.JPG,,,,,,,,,,,,,,,,,,,,,0,4,4,5,,,AMSA08.jpg,AMNE02.jpg,AMNE15.jpg,AMSA10.jpg,AMSA10.jpg,MS,2,num_4,32,num_8,2.40000846749,,,2017_May_09_1447,60.0078720309,FEMA4ImagesEEG,001,100366,
AMNE22.JPG,AMSA24.JPG,AMSA22.JPG,AMNE25.JPG,AMNE24.JPG,AMSA25.JPG,,,,,,,,,,,,,,,,,,,,,0,5,5,7,,,AMSA08.jpg,AMNE05.jpg,AMSA03.jpg,AMNE12.jpg,AMNE05.jpg,MN,1,num_6,16,num_6,0.416983583476,,,2017_May_09_1447,60.0078720309,FEMA4ImagesEEG,001,100366,
AFNE22.JPG,AFSA24.JPG,AFSA22.JPG,AFNE25.JPG,AFNE24.JPG,AFSA25.JPG,,,,,,,,,,,,,,,,,,,,,0,6,6,6,,,AMNE08.jpg,AMNE12.jpg,AMSA07.jpg,AMSA17.jpg,AMSA17.jpg,MS,2,num_4,16,num_4,0.866745418869,,,2017_May_09_1447,60.0078720309,FEMA4ImagesEEG,001,100366,
AMNE23.JPG,AMNE24.JPG,AMNE22.JPG,AMSA24.JPG,AMSA22.JPG,AMSA23.JPG,,,,,,,,,,,,,,,,,,,,,0,7,7,9,,,AMSA15.jpg,AMNE14.jpg,AMSA01.jpg,AMNE02.jpg,AMNE02.jpg,MN,1,num_4,16,num_4,0.83354315022,,,2017_May_09_1447,60.0078720309,FEMA4ImagesEEG,001,100366,
AFSA25.JPG,AFNE24.JPG,AFSA24.JPG,AFNE21.JPG,AFSA21.JPG,AFNE25.JPG,,,,,,,,,,,,,,,,,,,,,0,8,8,2,,,AMSA13.jpg,AMNE10.jpg,AMSA05.jpg,AMNE18.jpg,AMNE10.jpg,MN,1,num_6,32,num_2,1.04999488429,,,2017_May_09_1447,60.0078720309,FEMA4ImagesEEG,001,100366,
AMSA21.JPG,AMNE22.JPG,AMNE21.JPG,AMSA23.JPG,AMSA22.JPG,AMNE23.JPG,,,,,,,,,,,,,,,,,,,,,0,9,9,1,,,AMSA08.jpg,AMNE08.jpg,AMNE14.jpg,AMSA09.jpg,AMSA08.jpg,MS,2,num_8,32,num_2,1.23336943798,,,2017_May_09_1447,60.0078720309,FEMA4ImagesEEG,001,100366,
,,,,,,,,,,,,,,,,,,,,,,,,,,,,,,,,,,,,,,,,,,,space,13.1490978089,2017_May_09_1447,60.0078720309,FEMA4ImagesEEG,001,100366,
AFNE01.JPG,AFNE01.JPG,AFNE01.JPG,AFNE01.JPG,AFNE01.JPG,AFNE01.JPG,0,0,0,0,,,,,,,,,,,,,,,,,,,,,,,AFSA06.jpg,AFNE13.jpg,AFNE17.jpg,AFSA07.jpg,AFNE13.jpg,FN,3,num_6,32,num_8,4.3328700792,,,2017_May_09_1447,60.0078720309,FEMA4ImagesEEG,001,100366,
AFNE01.JPG,AFNE01.JPG,AFNE01.JPG,AFNE01.JPG,AFNE01.JPG,AFNE01.JPG,0,1,1,9,,,,,,,,,,,,,,,,,,,,,,,AFSA05.jpg,AFNE17.jpg,AFNE02.jpg,AFSA17.jpg,AFSA05.jpg,FS,4,num_8,32,num_2,2.08336008829,,,2017_May_09_1447,60.0078720309,FEMA4ImagesEEG,001,100366,
AFNE01.JPG,AFNE01.JPG,AFNE01.JPG,AFNE01.JPG,AFNE01.JPG,AFNE01.JPG,0,2,2,6,,,,,,,,,,,,,,,,,,,,,,,AFNE13.jpg,AFNE20.jpg,AFSA07.jpg,AFSA10.jpg,AFNE20.jpg,FN,3,num_6,32,num_8,1.28341692337,,,2017_May_09_1447,60.0078720309,FEMA4ImagesEEG,001,100366,
AFNE01.JPG,AFNE01.JPG,AFNE01.JPG,AFNE01.JPG,AFNE01.JPG,AFNE01.JPG,0,3,3,4,,,,,,,,,,,,,,,,,,,,,,,AFSA02.jpg,AFNE09.jpg,AFNE11.jpg,AFSA08.jpg,AFNE11.jpg,FN,3,num_2,32,num_4,1.0999634678,,,2017_May_09_1447,60.0078720309,FEMA4ImagesEEG,001,100366,
AFNE01.JPG,AFNE01.JPG,AFNE01.JPG,AFNE01.JPG,AFNE01.JPG,AFNE01.JPG,0,4,4,7,,,,,,,,,,,,,,,,,,,,,,,AFSA09.jpg,AFNE06.jpg,AFSA20.jpg,AFNE03.jpg,AFNE03.jpg,FN,3,num_4,32,num_6,0.533452605596,,,2017_May_09_1447,60.0078720309,FEMA4ImagesEEG,001,100366,
AFNE01.JPG,AFNE01.JPG,AFNE01.JPG,AFNE01.JPG,AFNE01.JPG,AFNE01.JPG,0,5,5,5,,,,,,,,,,,,,,,,,,,,,,,AFNE14.jpg,AFSA16.jpg,AFSA09.jpg,AFNE03.jpg,AFSA09.jpg,FS,4,num_2,32,num_8,0.616794411791,,,2017_May_09_1447,60.0078720309,FEMA4ImagesEEG,001,100366,
AFNE01.JPG,AFNE01.JPG,AFNE01.JPG,AFNE01.JPG,AFNE01.JPG,AFNE01.JPG,0,6,6,8,,,,,,,,,,,,,,,,,,,,,,,AFNE04.jpg,AFSA16.jpg,AFNE10.jpg,AFSA05.jpg,AFSA05.jpg,FS,4,num_4,32,num_8,0.38344902941,,,2017_May_09_1447,60.0078720309,FEMA4ImagesEEG,001,100366,
AFNE01.JPG,AFNE01.JPG,AFNE01.JPG,AFNE01.JPG,AFNE01.JPG,AFNE01.JPG,0,7,7,3,,,,,,,,,,,,,,,,,,,,,,,AFNE02.jpg,AFSA05.jpg,AFSA01.jpg,AFNE12.jpg,AFNE02.jpg,FN,3,num_8,32,num_4,3.99982166896,,,2017_May_09_1447,60.0078720309,FEMA4ImagesEEG,001,100366,
AFNE01.JPG,AFNE01.JPG,AFNE01.JPG,AFNE01.JPG,AFNE01.JPG,AFNE01.JPG,0,8,8,1,,,,,,,,,,,,,,,,,,,,,,,AFSA04.jpg,AFNE05.jpg,AFNE19.jpg,AFSA11.jpg,AFSA04.jpg,FS,4,num_8,16,num_8,1.48340993118,,,2017_May_09_1447,60.0078720309,FEMA4ImagesEEG,001,100366,
AFNE01.JPG,AFNE01.JPG,AFNE01.JPG,AFNE01.JPG,AFNE01.JPG,AFNE01.JPG,0,9,9,2,,,,,,,,,,,,,,,,,,,,,,,AFSA15.jpg,AFNE19.jpg,AFNE20.jpg,AFSA17.jpg,AFNE19.jpg,FN,3,num_6,32,num_8,1.43340574554,,,2017_May_09_1447,60.0078720309,FEMA4ImagesEEG,001,100366,
AFNE01.JPG,AFNE01.JPG,AFNE01.JPG,AFNE01.JPG,AFNE01.JPG,AFNE01.JPG,1,0,10,3,,,,,,,,,,,,,,,,,,,,,,,AFNE06.jpg,AFSA20.jpg,AFNE01.jpg,AFSA17.jpg,AFNE06.jpg,FN,3,num_8,32,num_6,0.966499443864,,,2017_May_09_1447,60.0078720309,FEMA4ImagesEEG,001,100366,
AFNE01.JPG,AFNE01.JPG,AFNE01.JPG,AFNE01.JPG,AFNE01.JPG,AFNE01.JPG,1,1,11,1,,,,,,,,,,,,,,,,,,,,,,,AFNE01.jpg,AFSA17.jpg,AFSA15.jpg,AFNE18.jpg,AFSA17.jpg,FS,4,num_6,16,num_6,0.666853123112,,,2017_May_09_1447,60.0078720309,FEMA4ImagesEEG,001,100366,
AFNE01.JPG,AFNE01.JPG,AFNE01.JPG,AFNE01.JPG,AFNE01.JPG,AFNE01.JPG,1,2,12,7,,,,,,,,,,,,,,,,,,,,,,,AFNE20.jpg,AFNE10.jpg,AFSA04.jpg,AFSA09.jpg,AFSA04.jpg,FS,4,num_2,16,num_2,1.33344965475,,,2017_May_09_1447,60.0078720309,FEMA4ImagesEEG,001,100366,
AFNE01.JPG,AFNE01.JPG,AFNE01.JPG,AFNE01.JPG,AFNE01.JPG,AFNE01.JPG,1,3,13,8,,,,,,,,,,,,,,,,,,,,,,,AFNE14.jpg,AFSA09.jpg,AFNE20.jpg,AFSA10.jpg,AFNE20.jpg,FN,3,num_2,32,num_8,1.15009113797,,,2017_May_09_1447,60.0078720309,FEMA4ImagesEEG,001,100366,
AFNE01.JPG,AFNE01.JPG,AFNE01.JPG,AFNE01.JPG,AFNE01.JPG,AFNE01.JPG,1,4,14,6,,,,,,,,,,,,,,,,,,,,,,,AFSA01.jpg,AFNE09.jpg,AFSA08.jpg,AFNE12.jpg,AFSA08.jpg,FS,4,num_2,16,num_2,1.41673597298,,,2017_May_09_1447,60.0078720309,FEMA4ImagesEEG,001,100366,
AFNE01.JPG,AFNE01.JPG,AFNE01.JPG,AFNE01.JPG,AFNE01.JPG,AFNE01.JPG,1,5,15,9,,,,,,,,,,,,,,,,,,,,,,,AFNE07.jpg,AFSA17.jpg,AFSA11.jpg,AFNE02.jpg,AFSA11.jpg,FS,4,num_2,16,num_2,1.01673392043,,,2017_May_09_1447,60.0078720309,FEMA4ImagesEEG,001,100366,
AFNE01.JPG,AFNE01.JPG,AFNE01.JPG,AFNE01.JPG,AFNE01.JPG,AFNE01.JPG,1,6,16,4,,,,,,,,,,,,,,,,,,,,,,,AFSA02.jpg,AFNE20.jpg,AFSA01.jpg,AFNE16.jpg,AFNE20.jpg,FN,3,num_6,32,num_4,1.21677632187,,,2017_May_09_1447,60.0078720309,FEMA4ImagesEEG,001,100366,
AFNE01.JPG,AFNE01.JPG,AFNE01.JPG,AFNE01.JPG,AFNE01.JPG,AFNE01.JPG,1,7,17,0,,,,,,,,,,,,,,,,,,,,,,,AFNE14.jpg,AFSA11.jpg,AFSA20.jpg,AFNE12.jpg,AFSA11.jpg,FS,4,num_6,16,num_6,0.483428533887,,,2017_May_09_1447,60.0078720309,FEMA4ImagesEEG,001,100366,
AFNE01.JPG,AFNE01.JPG,AFNE01.JPG,AFNE01.JPG,AFNE01.JPG,AFNE01.JPG,1,8,18,5,,,,,,,,,,,,,,,,,,,,,,,AFNE11.jpg,AFNE17.jpg,AFSA14.jpg,AFSA17.jpg,AFSA14.jpg,FS,4,num_2,32,num_8,1.06676023686,,,2017_May_09_1447,60.0078720309,FEMA4ImagesEEG,001,100366,
AFNE01.JPG,AFNE01.JPG,AFNE01.JPG,AFNE01.JPG,AFNE01.JPG,AFNE01.JPG,1,9,19,2,,,,,,,,,,,,,,,,,,,,,,,AFSA12.jpg,AFNE01.jpg,AFNE17.jpg,AFSA14.jpg,AFSA14.jpg,FS,4,num_4,32,num_8,1.1500779877,,,2017_May_09_1447,60.0078720309,FEMA4ImagesEEG,001,100366,
AFNE01.JPG,AFNE01.JPG,AFNE01.JPG,AFNE01.JPG,AFNE01.JPG,AFNE01.JPG,2,0,20,3,,,,,,,,,,,,,,,,,,,,,,,AFNE20.jpg,AFSA01.jpg,AFSA18.jpg,AFNE08.jpg,AFSA18.jpg,FS,4,num_2,32,num_6,1.38335505291,,,2017_May_09_1447,60.0078720309,FEMA4ImagesEEG,001,100366,
AFNE01.JPG,AFNE01.JPG,AFNE01.JPG,AFNE01.JPG,AFNE01.JPG,AFNE01.JPG,2,1,21,0,,,,,,,,,,,,,,,,,,,,,,,AFNE03.jpg,AFNE13.jpg,AFSA15.jpg,AFSA14.jpg,AFNE03.jpg,FN,3,num_8,32,num_4,1.69972727541,,,2017_May_09_1447,60.0078720309,FEMA4ImagesEEG,001,100366,
AFNE01.JPG,AFNE01.JPG,AFNE01.JPG,AFNE01.JPG,AFNE01.JPG,AFNE01.JPG,2,2,22,5,,,,,,,,,,,,,,,,,,,,,,,AFSA06.jpg,AFSA07.jpg,AFNE19.jpg,AFNE12.jpg,AFNE12.jpg,FN,3,num_4,16,num_4,0.566798885819,,,2017_May_09_1447,60.0078720309,FEMA4ImagesEEG,001,100366,
AFNE01.JPG,AFNE01.JPG,AFNE01.JPG,AFNE01.JPG,AFNE01.JPG,AFNE01.JPG,2,3,23,4,,,,,,,,,,,,,,,,,,,,,,,AFSA13.jpg,AFSA15.jpg,AFNE07.jpg,AFNE12.jpg,AFNE12.jpg,FN,3,num_4,16,num_4,0.666769410018,,,2017_May_09_1447,60.0078720309,FEMA4ImagesEEG,001,100366,
AFNE01.JPG,AFNE01.JPG,AFNE01.JPG,AFNE01.JPG,AFNE01.JPG,AFNE01.JPG,2,4,24,6,,,,,,,,,,,,,,,,,,,,,,,AFSA18.jpg,AFNE05.jpg,AFNE02.jpg,AFSA11.jpg,AFNE02.jpg,FN,3,num_2,32,num_8,1.05035186675,,,2017_May_09_1447,60.0078720309,FEMA4ImagesEEG,001,100366,
AFNE01.JPG,AFNE01.JPG,AFNE01.JPG,AFNE01.JPG,AFNE01.JPG,AFNE01.JPG,2,5,25,1,,,,,,,,,,,,,,,,,,,,,,,AFSA15.jpg,AFNE04.jpg,AFNE18.jpg,AFSA06.jpg,AFNE04.jpg,FN,3,num_6,32,num_8,1.78337538755,,,2017_May_09_1447,60.0078720309,FEMA4ImagesEEG,001,100366,
AFNE01.JPG,AFNE01.JPG,AFNE01.JPG,AFNE01.JPG,AFNE01.JPG,AFNE01.JPG,2,6,26,7,,,,,,,,,,,,,,,,,,,,,,,AFNE14.jpg,AFSA16.jpg,AFNE16.jpg,AFSA11.jpg,AFNE14.jpg,FN,3,num_8,16,num_8,1.60002873815,,,2017_May_09_1447,60.0078720309,FEMA4ImagesEEG,001,100366,
AFNE01.JPG,AFNE01.JPG,AFNE01.JPG,AFNE01.JPG,AFNE01.JPG,AFNE01.JPG,2,7,27,8,,,,,,,,,,,,,,,,,,,,,,,AFSA11.jpg,AFSA06.jpg,AFNE06.jpg,AFNE07.jpg,AFSA06.jpg,FS,4,num_6,32,num_8,1.03310348094,,,2017_May_09_1447,60.0078720309,FEMA4ImagesEEG,001,100366,
AFNE01.JPG,AFNE01.JPG,AFNE01.JPG,AFNE01.JPG,AFNE01.JPG,AFNE01.JPG,2,8,28,2,,,,,,,,,,,,,,,,,,,,,,,AFSA13.jpg,AFNE17.jpg,AFSA19.jpg,AFNE15.jpg,AFNE15.jpg,FN,3,num_4,32,num_6,1.15008055372,,,2017_May_09_1447,60.0078720309,FEMA4ImagesEEG,001,100366,
AFNE01.JPG,AFNE01.JPG,AFNE01.JPG,AFNE01.JPG,AFNE01.JPG,AFNE01.JPG,2,9,29,9,,,,,,,,,,,,,,,,,,,,,,,AFSA09.jpg,AFSA15.jpg,AFNE07.jpg,AFNE05.jpg,AFSA09.jpg,FS,4,num_8,32,num_6,2.51656825864,,,2017_May_09_1447,60.0078720309,FEMA4ImagesEEG,001,100366,
AFNE01.JPG,AFNE01.JPG,AFNE01.JPG,AFNE01.JPG,AFNE01.JPG,AFNE01.JPG,3,0,30,4,,,,,,,,,,,,,,,,,,,,,,,AFSA07.jpg,AFSA15.jpg,AFNE08.jpg,AFNE09.jpg,AFNE09.jpg,FN,3,num_4,16,num_4,1.56670009834,,,2017_May_09_1447,60.0078720309,FEMA4ImagesEEG,001,100366,
AFNE01.JPG,AFNE01.JPG,AFNE01.JPG,AFNE01.JPG,AFNE01.JPG,AFNE01.JPG,3,1,31,3,,,,,,,,,,,,,,,,,,,,,,,AFNE05.jpg,AFSA11.jpg,AFSA15.jpg,AFNE07.jpg,AFSA11.jpg,FS,4,num_6,32,num_8,0.266863900004,,,2017_May_09_1447,60.0078720309,FEMA4ImagesEEG,001,100366,
AFNE01.JPG,AFNE01.JPG,AFNE01.JPG,AFNE01.JPG,AFNE01.JPG,AFNE01.JPG,3,2,32,6,,,,,,,,,,,,,,,,,,,,,,,AFSA11.jpg,AFNE20.jpg,AFSA13.jpg,AFNE01.jpg,AFNE01.jpg,FN,3,num_4,32,num_6,0.800074026454,,,2017_May_09_1447,60.0078720309,FEMA4ImagesEEG,001,100366,
AFNE01.JPG,AFNE01.JPG,AFNE01.JPG,AFNE01.JPG,AFNE01.JPG,AFNE01.JPG,3,3,33,8,,,,,,,,,,,,,,,,,,,,,,,AFNE16.jpg,AFSA06.jpg,AFSA13.jpg,AFNE12.jpg,AFNE16.jpg,FN,3,num_8,32,num_2,1.28341724421,,,2017_May_09_1447,60.0078720309,FEMA4ImagesEEG,001,100366,
AFNE01.JPG,AFNE01.JPG,AFNE01.JPG,AFNE01.JPG,AFNE01.JPG,AFNE01.JPG,3,4,34,9,,,,,,,,,,,,,,,,,,,,,,,AFSA12.jpg,AFNE20.jpg,AFNE11.jpg,AFSA07.jpg,AFNE20.jpg,FN,3,num_6,32,num_8,1.90002370253,,,2017_May_09_1447,60.0078720309,FEMA4ImagesEEG,001,100366,
AFNE01.JPG,AFNE01.JPG,AFNE01.JPG,AFNE01.JPG,AFNE01.JPG,AFNE01.JPG,3,5,35,0,,,,,,,,,,,,,,,,,,,,,,,AFNE19.jpg,AFNE06.jpg,AFSA10.jpg,AFSA02.jpg,AFSA02.jpg,FS,4,num_4,32,num_8,1.73342380323,,,2017_May_09_1447,60.0078720309,FEMA4ImagesEEG,001,100366,
AFNE01.JPG,AFNE01.JPG,AFNE01.JPG,AFNE01.JPG,AFNE01.JPG,AFNE01.JPG,3,6,36,7,,,,,,,,,,,,,,,,,,,,,,,AFNE06.jpg,AFSA07.jpg,AFNE16.jpg,AFSA05.jpg,AFSA05.jpg,FS,4,num_4,32,num_2,1.1501193631,,,2017_May_09_1447,60.0078720309,FEMA4ImagesEEG,001,100366,
AFNE01.JPG,AFNE01.JPG,AFNE01.JPG,AFNE01.JPG,AFNE01.JPG,AFNE01.JPG,3,7,37,2,,,,,,,,,,,,,,,,,,,,,,,AFSA12.jpg,AFNE20.jpg,AFNE06.jpg,AFSA02.jpg,AFNE20.jpg,FN,3,num_6,16,num_6,1.06677242508,,,2017_May_09_1447,60.0078720309,FEMA4ImagesEEG,001,100366,
AFNE01.JPG,AFNE01.JPG,AFNE01.JPG,AFNE01.JPG,AFNE01.JPG,AFNE01.JPG,3,8,38,5,,,,,,,,,,,,,,,,,,,,,,,AFSA04.jpg,AFNE05.jpg,AFNE12.jpg,AFSA09.jpg,AFNE05.jpg,FN,3,num_6,16,num_6,1.2833870945,,,2017_May_09_1447,60.0078720309,FEMA4ImagesEEG,001,100366,
AFNE01.JPG,AFNE01.JPG,AFNE01.JPG,AFNE01.JPG,AFNE01.JPG,AFNE01.JPG,3,9,39,1,,,,,,,,,,,,,,,,,,,,,,,AFSA04.jpg,AFSA16.jpg,AFNE09.jpg,AFNE01.jpg,AFNE01.jpg,FN,3,num_4,32,num_6,2.16665538726,,,2017_May_09_1447,60.0078720309,FEMA4ImagesEEG,001,100366,
AFNE01.JPG,AFNE01.JPG,AFNE01.JPG,AFNE01.JPG,AFNE01.JPG,AFNE01.JPG,4,0,40,2,,,,,,,,,,,,,,,,,,,,,,,AFSA04.jpg,AFNE13.jpg,AFSA15.jpg,AFNE15.jpg,AFSA15.jpg,FS,4,num_2,32,num_4,0.783589641098,,,2017_May_09_1447,60.0078720309,FEMA4ImagesEEG,001,100366,
AFNE01.JPG,AFNE01.JPG,AFNE01.JPG,AFNE01.JPG,AFNE01.JPG,AFNE01.JPG,4,1,41,9,,,,,,,,,,,,,,,,,,,,,,,AFSA13.jpg,AFNE12.jpg,AFSA15.jpg,AFNE04.jpg,AFSA15.jpg,FS,4,num_2,16,num_2,1.00009429734,,,2017_May_09_1447,60.0078720309,FEMA4ImagesEEG,001,100366,
AFNE01.JPG,AFNE01.JPG,AFNE01.JPG,AFNE01.JPG,AFNE01.JPG,AFNE01.JPG,4,2,42,3,,,,,,,,,,,,,,,,,,,,,,,AFNE10.jpg,AFSA10.jpg,AFSA01.jpg,AFNE09.jpg,AFNE09.jpg,FN,3,num_4,32,num_6,1.01674610842,,,2017_May_09_1447,60.0078720309,FEMA4ImagesEEG,001,100366,
AFNE01.JPG,AFNE01.JPG,AFNE01.JPG,AFNE01.JPG,AFNE01.JPG,AFNE01.JPG,4,3,43,7,,,,,,,,,,,,,,,,,,,,,,,AFSA09.jpg,AFSA08.jpg,AFNE07.jpg,AFNE13.jpg,AFSA09.jpg,FS,4,num_8,32,num_4,1.44997769245,,,2017_May_09_1447,60.0078720309,FEMA4ImagesEEG,001,100366,
AFNE01.JPG,AFNE01.JPG,AFNE01.JPG,AFNE01.JPG,AFNE01.JPG,AFNE01.JPG,4,4,44,5,,,,,,,,,,,,,,,,,,,,,,,AFNE07.jpg,AFSA05.jpg,AFNE20.jpg,AFSA10.jpg,AFNE20.jpg,FN,3,num_2,32,num_6,0.483437835472,,,2017_May_09_1447,60.0078720309,FEMA4ImagesEEG,001,100366,
AFNE01.JPG,AFNE01.JPG,AFNE01.JPG,AFNE01.JPG,AFNE01.JPG,AFNE01.JPG,4,5,45,6,,,,,,,,,,,,,,,,,,,,,,,AFNE03.jpg,AFNE05.jpg,AFSA03.jpg,AFSA02.jpg,AFNE03.jpg,FN,3,num_8,32,num_6,1.01674386323,,,2017_May_09_1447,60.0078720309,FEMA4ImagesEEG,001,100366,
AFNE01.JPG,AFNE01.JPG,AFNE01.JPG,AFNE01.JPG,AFNE01.JPG,AFNE01.JPG,4,6,46,1,,,,,,,,,,,,,,,,,,,,,,,AFNE03.jpg,AFNE08.jpg,AFSA18.jpg,AFSA03.jpg,AFNE08.jpg,FN,3,num_6,32,num_4,4.53311005631,,,2017_May_09_1447,60.0078720309,FEMA4ImagesEEG,001,100366,
AFNE01.JPG,AFNE01.JPG,AFNE01.JPG,AFNE01.JPG,AFNE01.JPG,AFNE01.JPG,4,7,47,8,,,,,,,,,,,,,,,,,,,,,,,AFSA17.jpg,AFNE03.jpg,AFNE19.jpg,AFSA09.jpg,AFNE03.jpg,FN,3,num_6,32,num_8,1.21676060581,,,2017_May_09_1447,60.0078720309,FEMA4ImagesEEG,001,100366,
AFNE01.JPG,AFNE01.JPG,AFNE01.JPG,AFNE01.JPG,AFNE01.JPG,AFNE01.JPG,4,8,48,4,,,,,,,,,,,,,,,,,,,,,,,AFNE06.jpg,AFSA12.jpg,AFNE05.jpg,AFSA13.jpg,AFNE05.jpg,FN,3,num_2,32,num_4,1.51670393138,,,2017_May_09_1447,60.0078720309,FEMA4ImagesEEG,001,100366,
AFNE01.JPG,AFNE01.JPG,AFNE01.JPG,AFNE01.JPG,AFNE01.JPG,AFNE01.JPG,4,9,49,0,,,,,,,,,,,,,,,,,,,,,,,AFSA02.jpg,AFNE13.jpg,AFSA19.jpg,AFNE10.jpg,AFSA19.jpg,FS,4,num_2,32,num_8,1.20005843858,,,2017_May_09_1447,60.0078720309,FEMA4ImagesEEG,001,100366,
AFNE01.JPG,AFNE01.JPG,AFNE01.JPG,AFNE01.JPG,AFNE01.JPG,AFNE01.JPG,5,0,50,3,,,,,,,,,,,,,,,,,,,,,,,AFNE11.jpg,AFSA11.jpg,AFNE19.jpg,AFSA12.jpg,AFNE11.jpg,FN,3,num_8,32,num_2,1.23340696422,,,2017_May_09_1447,60.0078720309,FEMA4ImagesEEG,001,100366,
AFNE01.JPG,AFNE01.JPG,AFNE01.JPG,AFNE01.JPG,AFNE01.JPG,AFNE01.JPG,5,1,51,9,,,,,,,,,,,,,,,,,,,,,,,AFNE17.jpg,AFSA01.jpg,AFNE14.jpg,AFSA09.jpg,AFNE14.jpg,FN,3,num_2,32,num_8,1.39993886696,,,2017_May_09_1447,60.0078720309,FEMA4ImagesEEG,001,100366,
AFNE01.JPG,AFNE01.JPG,AFNE01.JPG,AFNE01.JPG,AFNE01.JPG,AFNE01.JPG,5,2,52,0,,,,,,,,,,,,,,,,,,,,,,,AFSA01.jpg,AFNE17.jpg,AFNE15.jpg,AFSA11.jpg,AFSA01.jpg,FS,4,num_8,32,num_4,1.6334102999,,,2017_May_09_1447,60.0078720309,FEMA4ImagesEEG,001,100366,
AFNE01.JPG,AFNE01.JPG,AFNE01.JPG,AFNE01.JPG,AFNE01.JPG,AFNE01.JPG,5,3,53,4,,,,,,,,,,,,,,,,,,,,,,,AFSA14.jpg,AFNE15.jpg,AFNE17.jpg,AFSA03.jpg,AFNE15.jpg,FN,3,num_6,32,num_8,0.816739950329,,,2017_May_09_1447,60.0078720309,FEMA4ImagesEEG,001,100366,
AFNE01.JPG,AFNE01.JPG,AFNE01.JPG,AFNE01.JPG,AFNE01.JPG,AFNE01.JPG,5,4,54,8,,,,,,,,,,,,,,,,,,,,,,,AFNE08.jpg,AFSA03.jpg,AFSA15.jpg,AFNE03.jpg,AFNE08.jpg,FN,3,num_8,32,num_6,3.76682396769,,,2017_May_09_1447,60.0078720309,FEMA4ImagesEEG,001,100366,
AFNE01.JPG,AFNE01.JPG,AFNE01.JPG,AFNE01.JPG,AFNE01.JPG,AFNE01.JPG,5,5,55,7,,,,,,,,,,,,,,,,,,,,,,,AFNE09.jpg,AFSA05.jpg,AFNE02.jpg,AFSA20.jpg,AFSA20.jpg,FS,4,num_4,32,num_6,2.18338545877,,,2017_May_09_1447,60.0078720309,FEMA4ImagesEEG,001,100366,
AFNE01.JPG,AFNE01.JPG,AFNE01.JPG,AFNE01.JPG,AFNE01.JPG,AFNE01.JPG,5,6,56,5,,,,,,,,,,,,,,,,,,,,,,,AFNE04.jpg,AFSA13.jpg,AFNE03.jpg,AFSA05.jpg,AFSA05.jpg,FS,4,num_4,32,num_8,0.0335582890548,,,2017_May_09_1447,60.0078720309,FEMA4ImagesEEG,001,100366,
AFNE01.JPG,AFNE01.JPG,AFNE01.JPG,AFNE01.JPG,AFNE01.JPG,AFNE01.JPG,5,7,57,6,,,,,,,,,,,,,,,,,,,,,,,AFSA18.jpg,AFNE03.jpg,AFNE01.jpg,AFSA04.jpg,AFSA04.jpg,FS,4,num_4,32,num_2,0.900123131927,,,2017_May_09_1447,60.0078720309,FEMA4ImagesEEG,001,100366,
AFNE01.JPG,AFNE01.JPG,AFNE01.JPG,AFNE01.JPG,AFNE01.JPG,AFNE01.JPG,5,8,58,2,,,,,,,,,,,,,,,,,,,,,,,AFNE14.jpg,AFSA13.jpg,AFNE18.jpg,AFSA07.jpg,AFSA13.jpg,FS,4,num_6,32,num_8,1.76669759676,,,2017_May_09_1447,60.0078720309,FEMA4ImagesEEG,001,100366,
AFNE01.JPG,AFNE01.JPG,AFNE01.JPG,AFNE01.JPG,AFNE01.JPG,AFNE01.JPG,5,9,59,1,,,,,,,,,,,,,,,,,,,,,,,AFSA11.jpg,AFSA06.jpg,AFNE15.jpg,AFNE12.jpg,AFSA11.jpg,FS,4,num_8,32,num_4,1.55005823006,,,2017_May_09_1447,60.0078720309,FEMA4ImagesEEG,001,100366,
,,,,,,,,,,,,,,,,,,,,,,,,,,,,,,,,,,,,,,,,,,,space,22.2480984181,2017_May_09_1447,60.0078720309,FEMA4ImagesEEG,001,100366,
AFNE01.JPG,AFNE01.JPG,AFNE01.JPG,AFNE01.JPG,AFNE01.JPG,AFNE01.JPG,,,,,0,0,0,9,,,,,,,,,,,,,,,,,,,AMNE04.jpg,AMSA01.jpg,AMNE19.jpg,AMSA04.jpg,AMNE19.jpg,MN,1,num_2,16,num_2,1.6501086182,,,2017_May_09_1447,60.0078720309,FEMA4ImagesEEG,001,100366,
AFNE01.JPG,AFNE01.JPG,AFNE01.JPG,AFNE01.JPG,AFNE01.JPG,AFNE01.JPG,,,,,0,1,1,3,,,,,,,,,,,,,,,,,,,AMSA04.jpg,AMNE10.jpg,AMSA10.jpg,AMNE20.jpg,AMSA10.jpg,MS,2,num_2,16,num_2,1.05008757766,,,2017_May_09_1447,60.0078720309,FEMA4ImagesEEG,001,100366,
AFNE01.JPG,AFNE01.JPG,AFNE01.JPG,AFNE01.JPG,AFNE01.JPG,AFNE01.JPG,,,,,0,2,2,1,,,,,,,,,,,,,,,,,,,AMSA02.jpg,AMNE04.jpg,AMNE05.jpg,AMSA19.jpg,AMNE04.jpg,MN,1,num_6,16,num_6,0.850241468288,,,2017_May_09_1447,60.0078720309,FEMA4ImagesEEG,001,100366,
AFNE01.JPG,AFNE01.JPG,AFNE01.JPG,AFNE01.JPG,AFNE01.JPG,AFNE01.JPG,,,,,0,3,3,8,,,,,,,,,,,,,,,,,,,AMSA06.jpg,AMNE11.jpg,AMNE04.jpg,AMSA13.jpg,AMSA06.jpg,MS,2,num_8,32,num_4,0.966778166359,,,2017_May_09_1447,60.0078720309,FEMA4ImagesEEG,001,100366,
AFNE01.JPG,AFNE01.JPG,AFNE01.JPG,AFNE01.JPG,AFNE01.JPG,AFNE01.JPG,,,,,0,4,4,7,,,,,,,,,,,,,,,,,,,AMSA14.jpg,AMNE03.jpg,AMSA17.jpg,AMNE12.jpg,AMSA14.jpg,MS,2,num_8,32,num_6,1.01672333595,,,2017_May_09_1447,60.0078720309,FEMA4ImagesEEG,001,100366,
AFNE01.JPG,AFNE01.JPG,AFNE01.JPG,AFNE01.JPG,AFNE01.JPG,AFNE01.JPG,,,,,0,5,5,5,,,,,,,,,,,,,,,,,,,AMNE11.jpg,AMSA02.jpg,AMNE16.jpg,AMSA17.jpg,AMNE16.jpg,MN,1,num_2,32,num_8,1.05011644447,,,2017_May_09_1447,60.0078720309,FEMA4ImagesEEG,001,100366,
AFNE01.JPG,AFNE01.JPG,AFNE01.JPG,AFNE01.JPG,AFNE01.JPG,AFNE01.JPG,,,,,0,6,6,6,,,,,,,,,,,,,,,,,,,AMSA13.jpg,AMNE07.jpg,AMNE15.jpg,AMSA04.jpg,AMNE07.jpg,MN,1,num_6,32,num_8,0.85012504016,,,2017_May_09_1447,60.0078720309,FEMA4ImagesEEG,001,100366,
AFNE01.JPG,AFNE01.JPG,AFNE01.JPG,AFNE01.JPG,AFNE01.JPG,AFNE01.JPG,,,,,0,7,7,4,,,,,,,,,,,,,,,,,,,AMSA02.jpg,AMNE10.jpg,AMSA19.jpg,AMNE17.jpg,AMSA19.jpg,MS,2,num_2,32,num_8,0.983561480418,,,2017_May_09_1447,60.0078720309,FEMA4ImagesEEG,001,100366,
AFNE01.JPG,AFNE01.JPG,AFNE01.JPG,AFNE01.JPG,AFNE01.JPG,AFNE01.JPG,,,,,0,8,8,0,,,,,,,,,,,,,,,,,,,AMSA17.jpg,AMNE06.jpg,AMSA01.jpg,AMNE03.jpg,AMNE06.jpg,MN,1,num_6,32,num_4,0.850145246834,,,2017_May_09_1447,60.0078720309,FEMA4ImagesEEG,001,100366,
AFNE01.JPG,AFNE01.JPG,AFNE01.JPG,AFNE01.JPG,AFNE01.JPG,AFNE01.JPG,,,,,0,9,9,2,,,,,,,,,,,,,,,,,,,AMSA04.jpg,AMNE03.jpg,AMSA09.jpg,AMNE09.jpg,AMNE09.jpg,MN,1,num_4,32,num_2,3.19993559574,,,2017_May_09_1447,60.0078720309,FEMA4ImagesEEG,001,100366,
AFNE01.JPG,AFNE01.JPG,AFNE01.JPG,AFNE01.JPG,AFNE01.JPG,AFNE01.JPG,,,,,1,0,10,4,,,,,,,,,,,,,,,,,,,AMSA15.jpg,AMNE09.jpg,AMSA19.jpg,AMNE11.jpg,AMSA19.jpg,MS,2,num_2,32,num_8,2.19995355699,,,2017_May_09_1447,60.0078720309,FEMA4ImagesEEG,001,100366,
AFNE01.JPG,AFNE01.JPG,AFNE01.JPG,AFNE01.JPG,AFNE01.JPG,AFNE01.JPG,,,,,1,1,11,8,,,,,,,,,,,,,,,,,,,AMSA20.jpg,AMNE09.jpg,AMSA17.jpg,AMNE01.jpg,AMSA20.jpg,MS,2,num_8,32,num_6,0.48348658788,,,2017_May_09_1447,60.0078720309,FEMA4ImagesEEG,001,100366,
AFNE01.JPG,AFNE01.JPG,AFNE01.JPG,AFNE01.JPG,AFNE01.JPG,AFNE01.JPG,,,,,1,2,12,2,,,,,,,,,,,,,,,,,,,AMSA06.jpg,AMNE20.jpg,AMNE14.jpg,AMSA12.jpg,AMSA06.jpg,MS,2,num_8,16,num_8,1.26675260346,,,2017_May_09_1447,60.0078720309,FEMA4ImagesEEG,001,100366,
AFNE01.JPG,AFNE01.JPG,AFNE01.JPG,AFNE01.JPG,AFNE01.JPG,AFNE01.JPG,,,,,1,3,13,7,,,,,,,,,,,,,,,,,,,AMNE03.jpg,AMSA09.jpg,AMSA03.jpg,AMNE19.jpg,AMSA09.jpg,MS,2,num_6,16,num_6,0.816768816672,,,2017_May_09_1447,60.0078720309,FEMA4ImagesEEG,001,100366,
AFNE01.JPG,AFNE01.JPG,AFNE01.JPG,AFNE01.JPG,AFNE01.JPG,AFNE01.JPG,,,,,1,4,14,6,,,,,,,,,,,,,,,,,,,AMNE18.jpg,AMSA07.jpg,AMNE19.jpg,AMSA19.jpg,AMSA07.jpg,MS,2,num_6,16,num_6,1.28341211216,,,2017_May_09_1447,60.0078720309,FEMA4ImagesEEG,001,100366,
AFNE01.JPG,AFNE01.JPG,AFNE01.JPG,AFNE01.JPG,AFNE01.JPG,AFNE01.JPG,,,,,1,5,15,9,,,,,,,,,,,,,,,,,,,AMSA19.jpg,AMNE12.jpg,AMNE01.jpg,AMSA07.jpg,AMSA07.jpg,MS,2,num_4,16,num_4,0.633436600678,,,2017_May_09_1447,60.0078720309,FEMA4ImagesEEG,001,100366,
AFNE01.JPG,AFNE01.JPG,AFNE01.JPG,AFNE01.JPG,AFNE01.JPG,AFNE01.JPG,,,,,1,6,16,0,,,,,,,,,,,,,,,,,,,AMNE20.jpg,AMSA18.jpg,AMSA03.jpg,AMNE19.jpg,AMNE19.jpg,MN,1,num_4,32,num_8,1.6166837567,,,2017_May_09_1447,60.0078720309,FEMA4ImagesEEG,001,100366,
AFNE01.JPG,AFNE01.JPG,AFNE01.JPG,AFNE01.JPG,AFNE01.JPG,AFNE01.JPG,,,,,1,7,17,5,,,,,,,,,,,,,,,,,,,AMNE05.jpg,AMSA18.jpg,AMSA02.jpg,AMNE04.jpg,AMSA18.jpg,MS,2,num_6,16,num_6,0.933313853573,,,2017_May_09_1447,60.0078720309,FEMA4ImagesEEG,001,100366,
AFNE01.JPG,AFNE01.JPG,AFNE01.JPG,AFNE01.JPG,AFNE01.JPG,AFNE01.JPG,,,,,1,8,18,1,,,,,,,,,,,,,,,,,,,AMSA02.jpg,AMSA09.jpg,AMNE08.jpg,AMNE10.jpg,AMNE10.jpg,MN,1,num_4,32,num_8,2.68289360544,,,2017_May_09_1447,60.0078720309,FEMA4ImagesEEG,001,100366,
AFNE01.JPG,AFNE01.JPG,AFNE01.JPG,AFNE01.JPG,AFNE01.JPG,AFNE01.JPG,,,,,1,9,19,3,,,,,,,,,,,,,,,,,,,AMSA19.jpg,AMNE08.jpg,AMSA02.jpg,AMNE10.jpg,AMNE08.jpg,MN,1,num_6,16,num_6,0.91673869919,,,2017_May_09_1447,60.0078720309,FEMA4ImagesEEG,001,100366,
AFNE01.JPG,AFNE01.JPG,AFNE01.JPG,AFNE01.JPG,AFNE01.JPG,AFNE01.JPG,,,,,2,0,20,1,,,,,,,,,,,,,,,,,,,AMSA02.jpg,AMNE05.jpg,AMSA06.jpg,AMNE04.jpg,AMNE04.jpg,MN,1,num_4,32,num_8,1.26681835484,,,2017_May_09_1447,60.0078720309,FEMA4ImagesEEG,001,100366,
AFNE01.JPG,AFNE01.JPG,AFNE01.JPG,AFNE01.JPG,AFNE01.JPG,AFNE01.JPG,,,,,2,1,21,6,,,,,,,,,,,,,,,,,,,AMNE06.jpg,AMNE03.jpg,AMSA08.jpg,AMSA03.jpg,AMNE06.jpg,MN,1,num_8,32,num_6,0.700086182682,,,2017_May_09_1447,60.0078720309,FEMA4ImagesEEG,001,100366,
AFNE01.JPG,AFNE01.JPG,AFNE01.JPG,AFNE01.JPG,AFNE01.JPG,AFNE01.JPG,,,,,2,2,22,8,,,,,,,,,,,,,,,,,,,AMNE07.jpg,AMNE06.jpg,AMSA19.jpg,AMSA08.jpg,AMNE07.jpg,MN,1,num_8,16,num_8,2.38331912993,,,2017_May_09_1447,60.0078720309,FEMA4ImagesEEG,001,100366,
AFNE01.JPG,AFNE01.JPG,AFNE01.JPG,AFNE01.JPG,AFNE01.JPG,AFNE01.JPG,,,,,2,3,23,9,,,,,,,,,,,,,,,,,,,AMNE07.jpg,AMSA02.jpg,AMNE20.jpg,AMSA08.jpg,AMSA08.jpg,MS,2,num_4,16,num_4,2.76657892321,,,2017_May_09_1447,60.0078720309,FEMA4ImagesEEG,001,100366,
AFNE01.JPG,AFNE01.JPG,AFNE01.JPG,AFNE01.JPG,AFNE01.JPG,AFNE01.JPG,,,,,2,4,24,7,,,,,,,,,,,,,,,,,,,AMSA01.jpg,AMNE07.jpg,AMSA06.jpg,AMNE19.jpg,AMSA01.jpg,MS,2,num_8,32,num_6,1.16671151668,,,2017_May_09_1447,60.0078720309,FEMA4ImagesEEG,001,100366,
AFNE01.JPG,AFNE01.JPG,AFNE01.JPG,AFNE01.JPG,AFNE01.JPG,AFNE01.JPG,,,,,2,5,25,4,,,,,,,,,,,,,,,,,,,AMNE04.jpg,AMSA02.jpg,AMNE05.jpg,AMSA04.jpg,AMSA04.jpg,MS,2,num_4,16,num_4,0.966778807575,,,2017_May_09_1447,60.0078720309,FEMA4ImagesEEG,001,100366,
AFNE01.JPG,AFNE01.JPG,AFNE01.JPG,AFNE01.JPG,AFNE01.JPG,AFNE01.JPG,,,,,2,6,26,5,,,,,,,,,,,,,,,,,,,AMSA04.jpg,AMSA13.jpg,AMNE08.jpg,AMNE14.jpg,AMNE14.jpg,MN,1,num_4,32,num_6,1.40010180278,,,2017_May_09_1447,60.0078720309,FEMA4ImagesEEG,001,100366,
AFNE01.JPG,AFNE01.JPG,AFNE01.JPG,AFNE01.JPG,AFNE01.JPG,AFNE01.JPG,,,,,2,7,27,2,,,,,,,,,,,,,,,,,,,AMSA08.jpg,AMSA15.jpg,AMNE10.jpg,AMNE07.jpg,AMSA15.jpg,MS,2,num_6,16,num_6,1.13342553494,,,2017_May_09_1447,60.0078720309,FEMA4ImagesEEG,001,100366,
AFNE01.JPG,AFNE01.JPG,AFNE01.JPG,AFNE01.JPG,AFNE01.JPG,AFNE01.JPG,,,,,2,8,28,0,,,,,,,,,,,,,,,,,,,AMNE17.jpg,AMNE13.jpg,AMSA06.jpg,AMSA02.jpg,AMSA02.jpg,MS,2,num_4,16,num_4,3.55019261991,,,2017_May_09_1447,60.0078720309,FEMA4ImagesEEG,001,100366,
AFNE01.JPG,AFNE01.JPG,AFNE01.JPG,AFNE01.JPG,AFNE01.JPG,AFNE01.JPG,,,,,2,9,29,3,,,,,,,,,,,,,,,,,,,AMSA12.jpg,AMSA02.jpg,AMNE12.jpg,AMNE11.jpg,AMNE11.jpg,MN,1,num_4,32,num_8,1.08350666612,,,2017_May_09_1447,60.0078720309,FEMA4ImagesEEG,001,100366,
AFNE01.JPG,AFNE01.JPG,AFNE01.JPG,AFNE01.JPG,AFNE01.JPG,AFNE01.JPG,,,,,3,0,30,8,,,,,,,,,,,,,,,,,,,AMNE06.jpg,AMSA03.jpg,AMSA20.jpg,AMNE17.jpg,AMSA20.jpg,MS,2,num_2,32,num_6,0.966663021129,,,2017_May_09_1447,60.0078720309,FEMA4ImagesEEG,001,100366,
AFNE01.JPG,AFNE01.JPG,AFNE01.JPG,AFNE01.JPG,AFNE01.JPG,AFNE01.JPG,,,,,3,1,31,1,,,,,,,,,,,,,,,,,,,AMNE11.jpg,AMNE13.jpg,AMSA18.jpg,AMSA12.jpg,AMNE13.jpg,MN,1,num_6,32,num_8,2.88333661016,,,2017_May_09_1447,60.0078720309,FEMA4ImagesEEG,001,100366,
AFNE01.JPG,AFNE01.JPG,AFNE01.JPG,AFNE01.JPG,AFNE01.JPG,AFNE01.JPG,,,,,3,2,32,3,,,,,,,,,,,,,,,,,,,AMNE17.jpg,AMSA04.jpg,AMSA15.jpg,AMNE12.jpg,AMNE12.jpg,MN,1,num_4,32,num_2,1.11673812196,,,2017_May_09_1447,60.0078720309,FEMA4ImagesEEG,001,100366,
AFNE01.JPG,AFNE01.JPG,AFNE01.JPG,AFNE01.JPG,AFNE01.JPG,AFNE01.JPG,,,,,3,3,33,4,,,,,,,,,,,,,,,,,,,AMNE15.jpg,AMNE01.jpg,AMSA04.jpg,AMSA02.jpg,AMSA02.jpg,MS,2,num_4,32,num_6,0.666792503325,,,2017_May_09_1447,60.0078720309,FEMA4ImagesEEG,001,100366,
AFNE01.JPG,AFNE01.JPG,AFNE01.JPG,AFNE01.JPG,AFNE01.JPG,AFNE01.JPG,,,,,3,4,34,7,,,,,,,,,,,,,,,,,,,AMSA04.jpg,AMSA18.jpg,AMNE02.jpg,AMNE16.jpg,AMSA04.jpg,MS,2,num_8,32,num_2,0.950107752346,,,2017_May_09_1447,60.0078720309,FEMA4ImagesEEG,001,100366,
AFNE01.JPG,AFNE01.JPG,AFNE01.JPG,AFNE01.JPG,AFNE01.JPG,AFNE01.JPG,,,,,3,5,35,6,,,,,,,,,,,,,,,,,,,AMSA17.jpg,AMNE20.jpg,AMSA12.jpg,AMNE14.jpg,AMSA12.jpg,MS,2,num_2,16,num_2,0.883479980752,,,2017_May_09_1447,60.0078720309,FEMA4ImagesEEG,001,100366,
AFNE01.JPG,AFNE01.JPG,AFNE01.JPG,AFNE01.JPG,AFNE01.JPG,AFNE01.JPG,,,,,3,6,36,0,,,,,,,,,,,,,,,,,,,AMNE13.jpg,AMSA07.jpg,AMSA13.jpg,AMNE03.jpg,AMNE03.jpg,MN,1,num_4,32,num_2,1.16677053273,,,2017_May_09_1447,60.0078720309,FEMA4ImagesEEG,001,100366,
AFNE01.JPG,AFNE01.JPG,AFNE01.JPG,AFNE01.JPG,AFNE01.JPG,AFNE01.JPG,,,,,3,7,37,5,,,,,,,,,,,,,,,,,,,AMNE15.jpg,AMSA05.jpg,AMNE06.jpg,AMSA16.jpg,AMSA05.jpg,MS,2,num_6,32,num_2,1.76669823821,,,2017_May_09_1447,60.0078720309,FEMA4ImagesEEG,001,100366,
AFNE01.JPG,AFNE01.JPG,AFNE01.JPG,AFNE01.JPG,AFNE01.JPG,AFNE01.JPG,,,,,3,8,38,2,,,,,,,,,,,,,,,,,,,AMNE17.jpg,AMSA10.jpg,AMNE15.jpg,AMSA01.jpg,AMNE15.jpg,MN,1,num_2,32,num_6,1.83336097025,,,2017_May_09_1447,60.0078720309,FEMA4ImagesEEG,001,100366,
AFNE01.JPG,AFNE01.JPG,AFNE01.JPG,AFNE01.JPG,AFNE01.JPG,AFNE01.JPG,,,,,3,9,39,9,,,,,,,,,,,,,,,,,,,AMNE06.jpg,AMSA19.jpg,AMNE11.jpg,AMSA08.jpg,AMSA19.jpg,MS,2,num_6,16,num_6,1.96665981365,,,2017_May_09_1447,60.0078720309,FEMA4ImagesEEG,001,100366,
AFNE01.JPG,AFNE01.JPG,AFNE01.JPG,AFNE01.JPG,AFNE01.JPG,AFNE01.JPG,,,,,4,0,40,1,,,,,,,,,,,,,,,,,,,AMNE07.jpg,AMSA18.jpg,AMSA20.jpg,AMNE01.jpg,AMSA20.jpg,MS,2,num_2,32,num_6,1.05009463406,,,2017_May_09_1447,60.0078720309,FEMA4ImagesEEG,001,100366,
AFNE01.JPG,AFNE01.JPG,AFNE01.JPG,AFNE01.JPG,AFNE01.JPG,AFNE01.JPG,,,,,4,1,41,3,,,,,,,,,,,,,,,,,,,AMSA15.jpg,AMNE13.jpg,AMSA09.jpg,AMNE17.jpg,AMSA15.jpg,MS,2,num_8,16,num_8,0.7167582002,,,2017_May_09_1447,60.0078720309,FEMA4ImagesEEG,001,100366,
AFNE01.JPG,AFNE01.JPG,AFNE01.JPG,AFNE01.JPG,AFNE01.JPG,AFNE01.JPG,,,,,4,2,42,7,,,,,,,,,,,,,,,,,,,AMNE17.jpg,AMSA10.jpg,AMNE12.jpg,AMSA05.jpg,AMNE12.jpg,MN,1,num_2,16,num_2,1.28343777149,,,2017_May_09_1447,60.0078720309,FEMA4ImagesEEG,001,100366,
AFNE01.JPG,AFNE01.JPG,AFNE01.JPG,AFNE01.JPG,AFNE01.JPG,AFNE01.JPG,,,,,4,3,43,9,,,,,,,,,,,,,,,,,,,AMSA10.jpg,AMNE19.jpg,AMNE07.jpg,AMSA14.jpg,AMSA14.jpg,MS,2,num_4,32,num_6,1.01674771192,,,2017_May_09_1447,60.0078720309,FEMA4ImagesEEG,001,100366,
AFNE01.JPG,AFNE01.JPG,AFNE01.JPG,AFNE01.JPG,AFNE01.JPG,AFNE01.JPG,,,,,4,4,44,2,,,,,,,,,,,,,,,,,,,AMSA12.jpg,AMNE09.jpg,AMSA19.jpg,AMNE03.jpg,AMSA19.jpg,MS,2,num_2,16,num_2,2.16666244343,,,2017_May_09_1447,60.0078720309,FEMA4ImagesEEG,001,100366,
AFNE01.JPG,AFNE01.JPG,AFNE01.JPG,AFNE01.JPG,AFNE01.JPG,AFNE01.JPG,,,,,4,5,45,6,,,,,,,,,,,,,,,,,,,AMSA02.jpg,AMNE20.jpg,AMSA03.jpg,AMNE04.jpg,AMNE04.jpg,MN,1,num_4,32,num_8,0.850115417968,,,2017_May_09_1447,60.0078720309,FEMA4ImagesEEG,001,100366,
AFNE01.JPG,AFNE01.JPG,AFNE01.JPG,AFNE01.JPG,AFNE01.JPG,AFNE01.JPG,,,,,4,6,46,8,,,,,,,,,,,,,,,,,,,AMNE05.jpg,AMNE04.jpg,AMSA02.jpg,AMSA09.jpg,AMNE05.jpg,MN,1,num_8,16,num_8,0.583481808659,,,2017_May_09_1447,60.0078720309,FEMA4ImagesEEG,001,100366,
AFNE01.JPG,AFNE01.JPG,AFNE01.JPG,AFNE01.JPG,AFNE01.JPG,AFNE01.JPG,,,,,4,7,47,0,,,,,,,,,,,,,,,,,,,AMNE20.jpg,AMNE01.jpg,AMSA10.jpg,AMSA02.jpg,AMSA10.jpg,MS,2,num_2,32,num_8,0.700098370668,,,2017_May_09_1447,60.0078720309,FEMA4ImagesEEG,001,100366,
AFNE01.JPG,AFNE01.JPG,AFNE01.JPG,AFNE01.JPG,AFNE01.JPG,AFNE01.JPG,,,,,4,8,48,5,,,,,,,,,,,,,,,,,,,AMNE14.jpg,AMNE19.jpg,AMSA04.jpg,AMSA18.jpg,AMNE14.jpg,MN,1,num_8,32,num_2,1.13341751671,,,2017_May_09_1447,60.0078720309,FEMA4ImagesEEG,001,100366,
AFNE01.JPG,AFNE01.JPG,AFNE01.JPG,AFNE01.JPG,AFNE01.JPG,AFNE01.JPG,,,,,4,9,49,4,,,,,,,,,,,,,,,,,,,AMNE08.jpg,AMSA05.jpg,AMSA10.jpg,AMNE11.jpg,AMNE11.jpg,MN,1,num_4,32,num_8,1.73339974787,,,2017_May_09_1447,60.0078720309,FEMA4ImagesEEG,001,100366,
AFNE01.JPG,AFNE01.JPG,AFNE01.JPG,AFNE01.JPG,AFNE01.JPG,AFNE01.JPG,,,,,5,0,50,1,,,,,,,,,,,,,,,,,,,AMNE12.jpg,AMNE15.jpg,AMSA09.jpg,AMSA17.jpg,AMNE12.jpg,MN,1,num_8,16,num_8,4.44999212585,,,2017_May_09_1447,60.0078720309,FEMA4ImagesEEG,001,100366,
AFNE01.JPG,AFNE01.JPG,AFNE01.JPG,AFNE01.JPG,AFNE01.JPG,AFNE01.JPG,,,,,5,1,51,3,,,,,,,,,,,,,,,,,,,AMSA19.jpg,AMNE14.jpg,AMSA13.jpg,AMNE16.jpg,AMNE14.jpg,MN,1,num_6,16,num_6,1.76670497376,,,2017_May_09_1447,60.0078720309,FEMA4ImagesEEG,001,100366,
AFNE01.JPG,AFNE01.JPG,AFNE01.JPG,AFNE01.JPG,AFNE01.JPG,AFNE01.JPG,,,,,5,2,52,6,,,,,,,,,,,,,,,,,,,AMSA03.jpg,AMSA07.jpg,AMNE05.jpg,AMNE12.jpg,AMSA03.jpg,MS,2,num_8,32,num_4,0.950214237673,,,2017_May_09_1447,60.0078720309,FEMA4ImagesEEG,001,100366,
AFNE01.JPG,AFNE01.JPG,AFNE01.JPG,AFNE01.JPG,AFNE01.JPG,AFNE01.JPG,,,,,5,3,53,0,,,,,,,,,,,,,,,,,,,AMSA08.jpg,AMNE15.jpg,AMNE02.jpg,AMSA12.jpg,AMSA12.jpg,MS,2,num_4,32,num_2,1.53339872137,,,2017_May_09_1447,60.0078720309,FEMA4ImagesEEG,001,100366,
AFNE01.JPG,AFNE01.JPG,AFNE01.JPG,AFNE01.JPG,AFNE01.JPG,AFNE01.JPG,,,,,5,4,54,7,,,,,,,,,,,,,,,,,,,AMNE03.jpg,AMSA12.jpg,AMNE06.jpg,AMSA07.jpg,AMNE06.jpg,MN,1,num_2,32,num_6,0.616783185862,,,2017_May_09_1447,60.0078720309,FEMA4ImagesEEG,001,100366,
AFNE01.JPG,AFNE01.JPG,AFNE01.JPG,AFNE01.JPG,AFNE01.JPG,AFNE01.JPG,,,,,5,5,55,8,,,,,,,,,,,,,,,,,,,AMNE13.jpg,AMSA07.jpg,AMSA03.jpg,AMNE17.jpg,AMNE17.jpg,MN,1,num_4,32,num_8,0.766769121401,,,2017_May_09_1447,60.0078720309,FEMA4ImagesEEG,001,100366,
AFNE01.JPG,AFNE01.JPG,AFNE01.JPG,AFNE01.JPG,AFNE01.JPG,AFNE01.JPG,,,,,5,6,56,5,,,,,,,,,,,,,,,,,,,AMNE12.jpg,AMSA03.jpg,AMNE01.jpg,AMSA14.jpg,AMSA14.jpg,MS,2,num_4,32,num_2,2.4331661535,,,2017_May_09_1447,60.0078720309,FEMA4ImagesEEG,001,100366,
AFNE01.JPG,AFNE01.JPG,AFNE01.JPG,AFNE01.JPG,AFNE01.JPG,AFNE01.JPG,,,,,5,7,57,4,,,,,,,,,,,,,,,,,,,AMNE01.jpg,AMSA13.jpg,AMNE14.jpg,AMSA12.jpg,AMSA12.jpg,MS,2,num_4,32,num_8,0.800121816806,,,2017_May_09_1447,60.0078720309,FEMA4ImagesEEG,001,100366,
AFNE01.JPG,AFNE01.JPG,AFNE01.JPG,AFNE01.JPG,AFNE01.JPG,AFNE01.JPG,,,,,5,8,58,9,,,,,,,,,,,,,,,,,,,AMSA13.jpg,AMNE13.jpg,AMSA02.jpg,AMNE09.jpg,AMSA02.jpg,MS,2,num_2,16,num_2,1.09978834447,,,2017_May_09_1447,60.0078720309,FEMA4ImagesEEG,001,100366,
AFNE01.JPG,AFNE01.JPG,AFNE01.JPG,AFNE01.JPG,AFNE01.JPG,AFNE01.JPG,,,,,5,9,59,2,,,,,,,,,,,,,,,,,,,AMSA15.jpg,AMSA03.jpg,AMNE12.jpg,AMNE16.jpg,AMNE12.jpg,MN,1,num_2,32,num_8,0.833483492723,,,2017_May_09_1447,60.0078720309,FEMA4ImagesEEG,001,100366,
,,,,,,,,,,,,,,,,,,,,,,,,,,,,,,,,,,,,,,,,,,,space,35.5142852378,2017_May_09_1447,60.0078720309,FEMA4ImagesEEG,001,100366,
AFNE01.JPG,AFNE01.JPG,AFNE01.JPG,AFNE01.JPG,AFNE01.JPG,AFNE01.JPG,,,,,,,,,0,0,0,0,,,,,,,,,,,,,,,AFNE10.jpg,AFSA14.jpg,AFNE01.jpg,AFSA11.jpg,AFSA11.jpg,FS,4,num_4,32,num_6,1.10010074428,,,2017_May_09_1447,60.0078720309,FEMA4ImagesEEG,001,100366,
AFNE01.JPG,AFNE01.JPG,AFNE01.JPG,AFNE01.JPG,AFNE01.JPG,AFNE01.JPG,,,,,,,,,0,1,1,2,,,,,,,,,,,,,,,AFNE11.jpg,AFSA15.jpg,AFSA18.jpg,AFNE16.jpg,AFSA18.jpg,FS,4,num_2,32,num_4,0.933423867216,,,2017_May_09_1447,60.0078720309,FEMA4ImagesEEG,001,100366,
AFNE01.JPG,AFNE01.JPG,AFNE01.JPG,AFNE01.JPG,AFNE01.JPG,AFNE01.JPG,,,,,,,,,0,2,2,7,,,,,,,,,,,,,,,AFSA08.jpg,AFNE16.jpg,AFSA20.jpg,AFNE19.jpg,AFNE16.jpg,FN,3,num_6,32,num_4,0.700126916636,,,2017_May_09_1447,60.0078720309,FEMA4ImagesEEG,001,100366,
AFNE01.JPG,AFNE01.JPG,AFNE01.JPG,AFNE01.JPG,AFNE01.JPG,AFNE01.JPG,,,,,,,,,0,3,3,4,,,,,,,,,,,,,,,AFNE06.jpg,AFNE05.jpg,AFSA13.jpg,AFSA05.jpg,AFSA05.jpg,FS,4,num_4,32,num_2,1.26685363613,,,2017_May_09_1447,60.0078720309,FEMA4ImagesEEG,001,100366,
AFNE01.JPG,AFNE01.JPG,AFNE01.JPG,AFNE01.JPG,AFNE01.JPG,AFNE01.JPG,,,,,,,,,0,4,4,6,,,,,,,,,,,,,,,AFNE15.jpg,AFSA06.jpg,AFNE01.jpg,AFSA11.jpg,AFNE01.jpg,FN,3,num_2,32,num_6,0.800103855319,,,2017_May_09_1447,60.0078720309,FEMA4ImagesEEG,001,100366,
AFNE01.JPG,AFNE01.JPG,AFNE01.JPG,AFNE01.JPG,AFNE01.JPG,AFNE01.JPG,,,,,,,,,0,5,5,5,,,,,,,,,,,,,,,AFNE20.jpg,AFSA13.jpg,AFNE14.jpg,AFSA01.jpg,AFSA13.jpg,FS,4,num_6,32,num_4,0.816778438864,,,2017_May_09_1447,60.0078720309,FEMA4ImagesEEG,001,100366,
AFNE01.JPG,AFNE01.JPG,AFNE01.JPG,AFNE01.JPG,AFNE01.JPG,AFNE01.JPG,,,,,,,,,0,6,6,3,,,,,,,,,,,,,,,AFNE16.jpg,AFNE04.jpg,AFSA03.jpg,AFSA07.jpg,AFSA07.jpg,FS,4,num_4,32,num_6,0.833471304504,,,2017_May_09_1447,60.0078720309,FEMA4ImagesEEG,001,100366,
AFNE01.JPG,AFNE01.JPG,AFNE01.JPG,AFNE01.JPG,AFNE01.JPG,AFNE01.JPG,,,,,,,,,0,7,7,1,,,,,,,,,,,,,,,AFNE14.jpg,AFSA19.jpg,AFSA02.jpg,AFNE11.jpg,AFNE11.jpg,FN,3,num_4,32,num_2,0.433469251962,,,2017_May_09_1447,60.0078720309,FEMA4ImagesEEG,001,100366,
AFNE01.JPG,AFNE01.JPG,AFNE01.JPG,AFNE01.JPG,AFNE01.JPG,AFNE01.JPG,,,,,,,,,0,8,8,9,,,,,,,,,,,,,,,AFNE13.jpg,AFNE10.jpg,AFSA14.jpg,AFSA06.jpg,AFSA14.jpg,FS,4,num_2,32,num_8,1.58337853081,,,2017_May_09_1447,60.0078720309,FEMA4ImagesEEG,001,100366,
AFNE01.JPG,AFNE01.JPG,AFNE01.JPG,AFNE01.JPG,AFNE01.JPG,AFNE01.JPG,,,,,,,,,0,9,9,8,,,,,,,,,,,,,,,AFSA16.jpg,AFSA09.jpg,AFNE02.jpg,AFNE11.jpg,AFSA09.jpg,FS,4,num_6,16,num_6,1.08342102892,,,2017_May_09_1447,60.0078720309,FEMA4ImagesEEG,001,100366,
AFNE01.JPG,AFNE01.JPG,AFNE01.JPG,AFNE01.JPG,AFNE01.JPG,AFNE01.JPG,,,,,,,,,1,0,10,0,,,,,,,,,,,,,,,AFSA11.jpg,AFSA13.jpg,AFNE01.jpg,AFNE02.jpg,AFSA11.jpg,FS,4,num_8,32,num_2,1.55008324794,,,2017_May_09_1447,60.0078720309,FEMA4ImagesEEG,001,100366,
AFNE01.JPG,AFNE01.JPG,AFNE01.JPG,AFNE01.JPG,AFNE01.JPG,AFNE01.JPG,,,,,,,,,1,1,11,2,,,,,,,,,,,,,,,AFSA05.jpg,AFSA19.jpg,AFNE01.jpg,AFNE15.jpg,AFSA19.jpg,FS,4,num_6,16,num_6,0.566785414936,,,2017_May_09_1447,60.0078720309,FEMA4ImagesEEG,001,100366,
AFNE01.JPG,AFNE01.JPG,AFNE01.JPG,AFNE01.JPG,AFNE01.JPG,AFNE01.JPG,,,,,,,,,1,2,12,1,,,,,,,,,,,,,,,AFSA14.jpg,AFSA19.jpg,AFNE12.jpg,AFNE09.jpg,AFNE12.jpg,FN,3,num_2,16,num_2,0.716802141396,,,2017_May_09_1447,60.0078720309,FEMA4ImagesEEG,001,100366,
AFNE01.JPG,AFNE01.JPG,AFNE01.JPG,AFNE01.JPG,AFNE01.JPG,AFNE01.JPG,,,,,,,,,1,3,13,4,,,,,,,,,,,,,,,AFSA06.jpg,AFNE16.jpg,AFNE11.jpg,AFSA01.jpg,AFSA01.jpg,FS,4,num_4,32,num_8,0.616792487213,,,2017_May_09_1447,60.0078720309,FEMA4ImagesEEG,001,100366,
AFNE01.JPG,AFNE01.JPG,AFNE01.JPG,AFNE01.JPG,AFNE01.JPG,AFNE01.JPG,,,,,,,,,1,4,14,6,,,,,,,,,,,,,,,AFNE10.jpg,AFNE05.jpg,AFSA20.jpg,AFSA02.jpg,AFSA02.jpg,FS,4,num_4,16,num_4,0.850122794975,,,2017_May_09_1447,60.0078720309,FEMA4ImagesEEG,001,100366,
AFNE01.JPG,AFNE01.JPG,AFNE01.JPG,AFNE01.JPG,AFNE01.JPG,AFNE01.JPG,,,,,,,,,1,5,15,8,,,,,,,,,,,,,,,AFNE15.jpg,AFNE12.jpg,AFSA17.jpg,AFSA20.jpg,AFNE12.jpg,FN,3,num_6,16,num_6,1.11679008161,,,2017_May_09_1447,60.0078720309,FEMA4ImagesEEG,001,100366,
AFNE01.JPG,AFNE01.JPG,AFNE01.JPG,AFNE01.JPG,AFNE01.JPG,AFNE01.JPG,,,,,,,,,1,6,16,3,,,,,,,,,,,,,,,AFSA20.jpg,AFNE02.jpg,AFSA03.jpg,AFNE10.jpg,AFSA03.jpg,FS,4,num_2,32,num_4,1.00018506637,,,2017_May_09_1447,60.0078720309,FEMA4ImagesEEG,001,100366,
AFNE01.JPG,AFNE01.JPG,AFNE01.JPG,AFNE01.JPG,AFNE01.JPG,AFNE01.JPG,,,,,,,,,1,7,17,7,,,,,,,,,,,,,,,AFNE09.jpg,AFNE03.jpg,AFSA09.jpg,AFSA05.jpg,AFNE03.jpg,FN,3,num_6,32,num_8,0.966842314228,,,2017_May_09_1447,60.0078720309,FEMA4ImagesEEG,001,100366,
AFNE01.JPG,AFNE01.JPG,AFNE01.JPG,AFNE01.JPG,AFNE01.JPG,AFNE01.JPG,,,,,,,,,1,8,18,5,,,,,,,,,,,,,,,AFSA02.jpg,AFSA08.jpg,AFNE08.jpg,AFNE13.jpg,AFNE08.jpg,FN,3,num_2,32,num_8,0.933444073889,,,2017_May_09_1447,60.0078720309,FEMA4ImagesEEG,001,100366,
AFNE01.JPG,AFNE01.JPG,AFNE01.JPG,AFNE01.JPG,AFNE01.JPG,AFNE01.JPG,,,,,,,,,1,9,19,9,,,,,,,,,,,,,,,AFSA13.jpg,AFNE11.jpg,AFNE04.jpg,AFSA15.jpg,AFNE11.jpg,FN,3,num_6,16,num_6,0.783444346627,,,2017_May_09_1447,60.0078720309,FEMA4ImagesEEG,001,100366,
AFNE01.JPG,AFNE01.JPG,AFNE01.JPG,AFNE01.JPG,AFNE01.JPG,AFNE01.JPG,,,,,,,,,2,0,20,0,,,,,,,,,,,,,,,AFSA20.jpg,AFSA09.jpg,AFNE04.jpg,AFNE07.jpg,AFSA20.jpg,FS,4,num_8,16,num_8,0.916797394399,,,2017_May_09_1447,60.0078720309,FEMA4ImagesEEG,001,100366,
AFNE01.JPG,AFNE01.JPG,AFNE01.JPG,AFNE01.JPG,AFNE01.JPG,AFNE01.JPG,,,,,,,,,2,1,21,1,,,,,,,,,,,,,,,AFSA04.jpg,AFSA16.jpg,AFNE17.jpg,AFNE02.jpg,AFSA04.jpg,FS,4,num_8,32,num_6,0.533513225149,,,2017_May_09_1447,60.0078720309,FEMA4ImagesEEG,001,100366,
AFNE01.JPG,AFNE01.JPG,AFNE01.JPG,AFNE01.JPG,AFNE01.JPG,AFNE01.JPG,,,,,,,,,2,2,22,9,,,,,,,,,,,,,,,AFSA11.jpg,AFNE08.jpg,AFNE18.jpg,AFSA03.jpg,AFSA03.jpg,FS,4,num_4,32,num_6,1.10026656627,,,2017_May_09_1447,60.0078720309,FEMA4ImagesEEG,001,100366,
AFNE01.JPG,AFNE01.JPG,AFNE01.JPG,AFNE01.JPG,AFNE01.JPG,AFNE01.JPG,,,,,,,,,2,3,23,2,,,,,,,,,,,,,,,AFSA03.jpg,AFNE06.jpg,AFSA16.jpg,AFNE08.jpg,AFSA03.jpg,FS,4,num_8,16,num_8,2.65011727833,,,2017_May_09_1447,60.0078720309,FEMA4ImagesEEG,001,100366,
AFNE01.JPG,AFNE01.JPG,AFNE01.JPG,AFNE01.JPG,AFNE01.JPG,AFNE01.JPG,,,,,,,,,2,4,24,8,,,,,,,,,,,,,,,AFSA13.jpg,AFNE08.jpg,AFNE11.jpg,AFSA14.jpg,AFSA14.jpg,FS,4,num_4,32,num_8,0.800093591679,,,2017_May_09_1447,60.0078720309,FEMA4ImagesEEG,001,100366,
AFNE01.JPG,AFNE01.JPG,AFNE01.JPG,AFNE01.JPG,AFNE01.JPG,AFNE01.JPG,,,,,,,,,2,5,25,3,,,,,,,,,,,,,,,AFNE11.jpg,AFNE03.jpg,AFSA02.jpg,AFSA16.jpg,AFSA02.jpg,FS,4,num_2,32,num_4,0.500126210973,,,2017_May_09_1447,60.0078720309,FEMA4ImagesEEG,001,100366,
AFNE01.JPG,AFNE01.JPG,AFNE01.JPG,AFNE01.JPG,AFNE01.JPG,AFNE01.JPG,,,,,,,,,2,6,26,5,,,,,,,,,,,,,,,AFNE13.jpg,AFSA17.jpg,AFNE07.jpg,AFSA06.jpg,AFNE07.jpg,FN,3,num_2,32,num_6,0.80017858767,,,2017_May_09_1447,60.0078720309,FEMA4ImagesEEG,001,100366,
AFNE01.JPG,AFNE01.JPG,AFNE01.JPG,AFNE01.JPG,AFNE01.JPG,AFNE01.JPG,,,,,,,,,2,7,27,4,,,,,,,,,,,,,,,AFNE03.jpg,AFNE02.jpg,AFSA13.jpg,AFSA09.jpg,AFNE03.jpg,FN,3,num_8,16,num_8,2.66664656717,,,2017_May_09_1447,60.0078720309,FEMA4ImagesEEG,001,100366,
AFNE01.JPG,AFNE01.JPG,AFNE01.JPG,AFNE01.JPG,AFNE01.JPG,AFNE01.JPG,,,,,,,,,2,8,28,7,,,,,,,,,,,,,,,AFNE16.jpg,AFSA13.jpg,AFSA18.jpg,AFNE05.jpg,AFNE16.jpg,FN,3,num_8,16,num_8,3.04992368002,,,2017_May_09_1447,60.0078720309,FEMA4ImagesEEG,001,100366,
AFNE01.JPG,AFNE01.JPG,AFNE01.JPG,AFNE01.JPG,AFNE01.JPG,AFNE01.JPG,,,,,,,,,2,9,29,6,,,,,,,,,,,,,,,AFSA01.jpg,AFSA17.jpg,AFNE12.jpg,AFNE11.jpg,AFNE11.jpg,FN,3,num_4,32,num_6,0.316774429521,,,2017_May_09_1447,60.0078720309,FEMA4ImagesEEG,001,100366,
AFNE01.JPG,AFNE01.JPG,AFNE01.JPG,AFNE01.JPG,AFNE01.JPG,AFNE01.JPG,,,,,,,,,3,0,30,4,,,,,,,,,,,,,,,AFSA11.jpg,AFNE20.jpg,AFSA06.jpg,AFNE02.jpg,AFSA06.jpg,FS,4,num_2,16,num_2,0.200168772833,,,2017_May_09_1447,60.0078720309,FEMA4ImagesEEG,001,100366,
AFNE01.JPG,AFNE01.JPG,AFNE01.JPG,AFNE01.JPG,AFNE01.JPG,AFNE01.JPG,,,,,,,,,3,1,31,2,,,,,,,,,,,,,,,AFSA09.jpg,AFSA18.jpg,AFNE14.jpg,AFNE04.jpg,AFNE14.jpg,FN,3,num_2,16,num_2,1.3667529563,,,2017_May_09_1447,60.0078720309,FEMA4ImagesEEG,001,100366,
AFNE01.JPG,AFNE01.JPG,AFNE01.JPG,AFNE01.JPG,AFNE01.JPG,AFNE01.JPG,,,,,,,,,3,2,32,1,,,,,,,,,,,,,,,AFSA19.jpg,AFNE10.jpg,AFNE20.jpg,AFSA05.jpg,AFSA19.jpg,FS,4,num_8,16,num_8,0.550126547692,,,2017_May_09_1447,60.0078720309,FEMA4ImagesEEG,001,100366,
AFNE01.JPG,AFNE01.JPG,AFNE01.JPG,AFNE01.JPG,AFNE01.JPG,AFNE01.JPG,,,,,,,,,3,3,33,8,,,,,,,,,,,,,,,AFNE04.jpg,AFNE11.jpg,AFSA07.jpg,AFSA10.jpg,AFNE11.jpg,FN,3,num_6,16,num_6,0.333510915749,,,2017_May_09_1447,60.0078720309,FEMA4ImagesEEG,001,100366,
AFNE01.JPG,AFNE01.JPG,AFNE01.JPG,AFNE01.JPG,AFNE01.JPG,AFNE01.JPG,,,,,,,,,3,4,34,0,,,,,,,,,,,,,,,AFNE17.jpg,AFSA10.jpg,AFNE16.jpg,AFSA05.jpg,AFSA05.jpg,FS,4,num_4,16,num_4,0.833331141621,,,2017_May_09_1447,60.0078720309,FEMA4ImagesEEG,001,100366,
AFNE01.JPG,AFNE01.JPG,AFNE01.JPG,AFNE01.JPG,AFNE01.JPG,AFNE01.JPG,,,,,,,,,3,5,35,3,,,,,,,,,,,,,,,AFNE06.jpg,AFSA12.jpg,AFSA09.jpg,AFNE13.jpg,AFSA12.jpg,FS,4,num_6,16,num_6,0.516766796121,,,2017_May_09_1447,60.0078720309,FEMA4ImagesEEG,001,100366,
AFNE01.JPG,AFNE01.JPG,AFNE01.JPG,AFNE01.JPG,AFNE01.JPG,AFNE01.JPG,,,,,,,,,3,6,36,7,,,,,,,,,,,,,,,AFNE08.jpg,AFSA13.jpg,AFSA17.jpg,AFNE06.jpg,AFNE06.jpg,FN,3,num_4,16,num_4,1.41670261603,,,2017_May_09_1447,60.0078720309,FEMA4ImagesEEG,001,100366,
AFNE01.JPG,AFNE01.JPG,AFNE01.JPG,AFNE01.JPG,AFNE01.JPG,AFNE01.JPG,,,,,,,,,3,7,37,5,,,,,,,,,,,,,,,AFNE15.jpg,AFSA18.jpg,AFSA14.jpg,AFNE03.jpg,AFNE15.jpg,FN,3,num_8,16,num_8,1.33339224244,,,2017_May_09_1447,60.0078720309,FEMA4ImagesEEG,001,100366,
AFNE01.JPG,AFNE01.JPG,AFNE01.JPG,AFNE01.JPG,AFNE01.JPG,AFNE01.JPG,,,,,,,,,3,8,38,6,,,,,,,,,,,,,,,AFSA13.jpg,AFNE14.jpg,AFSA08.jpg,AFNE13.jpg,AFSA13.jpg,FS,4,num_8,32,num_2,1.03356213798,,,2017_May_09_1447,60.0078720309,FEMA4ImagesEEG,001,100366,
AFNE01.JPG,AFNE01.JPG,AFNE01.JPG,AFNE01.JPG,AFNE01.JPG,AFNE01.JPG,,,,,,,,,3,9,39,9,,,,,,,,,,,,,,,AFSA15.jpg,AFNE02.jpg,AFSA04.jpg,AFNE19.jpg,AFNE02.jpg,FN,3,num_6,16,num_6,0.750124687329,,,2017_May_09_1447,60.0078720309,FEMA4ImagesEEG,001,100366,
AFNE01.JPG,AFNE01.JPG,AFNE01.JPG,AFNE01.JPG,AFNE01.JPG,AFNE01.JPG,,,,,,,,,4,0,40,4,,,,,,,,,,,,,,,AFSA17.jpg,AFNE15.jpg,AFNE11.jpg,AFSA10.jpg,AFNE15.jpg,FN,3,num_6,16,num_6,0.616809807252,,,2017_May_09_1447,60.0078720309,FEMA4ImagesEEG,001,100366,
AFNE01.JPG,AFNE01.JPG,AFNE01.JPG,AFNE01.JPG,AFNE01.JPG,AFNE01.JPG,,,,,,,,,4,1,41,0,,,,,,,,,,,,,,,AFNE20.jpg,AFSA12.jpg,AFSA17.jpg,AFNE19.jpg,AFNE20.jpg,FN,3,num_8,16,num_8,0.750207117293,,,2017_May_09_1447,60.0078720309,FEMA4ImagesEEG,001,100366,
AFNE01.JPG,AFNE01.JPG,AFNE01.JPG,AFNE01.JPG,AFNE01.JPG,AFNE01.JPG,,,,,,,,,4,2,42,2,,,,,,,,,,,,,,,AFNE09.jpg,AFSA04.jpg,AFSA06.jpg,AFNE02.jpg,AFSA04.jpg,FS,4,num_6,16,num_6,0.566619272111,,,2017_May_09_1447,60.0078720309,FEMA4ImagesEEG,001,100366,
AFNE01.JPG,AFNE01.JPG,AFNE01.JPG,AFNE01.JPG,AFNE01.JPG,AFNE01.JPG,,,,,,,,,4,3,43,9,,,,,,,,,,,,,,,AFSA11.jpg,AFNE12.jpg,AFNE18.jpg,AFSA18.jpg,AFNE18.jpg,FN,3,num_2,32,num_4,0.716795085231,,,2017_May_09_1447,60.0078720309,FEMA4ImagesEEG,001,100366,
AFNE01.JPG,AFNE01.JPG,AFNE01.JPG,AFNE01.JPG,AFNE01.JPG,AFNE01.JPG,,,,,,,,,4,4,44,6,,,,,,,,,,,,,,,AFSA17.jpg,AFSA13.jpg,AFNE14.jpg,AFNE01.jpg,AFNE14.jpg,FN,3,num_2,32,num_6,0.766738972161,,,2017_May_09_1447,60.0078720309,FEMA4ImagesEEG,001,100366,
AFNE01.JPG,AFNE01.JPG,AFNE01.JPG,AFNE01.JPG,AFNE01.JPG,AFNE01.JPG,,,,,,,,,4,5,45,3,,,,,,,,,,,,,,,AFNE02.jpg,AFSA19.jpg,AFNE04.jpg,AFSA06.jpg,AFNE04.jpg,FN,3,num_2,16,num_2,0.933434130857,,,2017_May_09_1447,60.0078720309,FEMA4ImagesEEG,001,100366,
AFNE01.JPG,AFNE01.JPG,AFNE01.JPG,AFNE01.JPG,AFNE01.JPG,AFNE01.JPG,,,,,,,,,4,6,46,1,,,,,,,,,,,,,,,AFNE15.jpg,AFSA05.jpg,AFNE04.jpg,AFSA19.jpg,AFNE15.jpg,FN,3,num_8,32,num_6,0.41681840294,,,2017_May_09_1447,60.0078720309,FEMA4ImagesEEG,001,100366,
AFNE01.JPG,AFNE01.JPG,AFNE01.JPG,AFNE01.JPG,AFNE01.JPG,AFNE01.JPG,,,,,,,,,4,7,47,7,,,,,,,,,,,,,,,AFNE20.jpg,AFSA01.jpg,AFNE02.jpg,AFSA09.jpg,AFSA01.jpg,FS,4,num_6,32,num_4,0.783306428697,,,2017_May_09_1447,60.0078720309,FEMA4ImagesEEG,001,100366,
AFNE01.JPG,AFNE01.JPG,AFNE01.JPG,AFNE01.JPG,AFNE01.JPG,AFNE01.JPG,,,,,,,,,4,8,48,8,,,,,,,,,,,,,,,AFNE07.jpg,AFNE11.jpg,AFSA16.jpg,AFSA01.jpg,AFSA01.jpg,FS,4,num_4,32,num_2,0.850000593346,,,2017_May_09_1447,60.0078720309,FEMA4ImagesEEG,001,100366,
AFNE01.JPG,AFNE01.JPG,AFNE01.JPG,AFNE01.JPG,AFNE01.JPG,AFNE01.JPG,,,,,,,,,4,9,49,5,,,,,,,,,,,,,,,AFSA18.jpg,AFNE08.jpg,AFNE17.jpg,AFSA11.jpg,AFSA11.jpg,FS,4,num_4,32,num_8,0.316863274435,,,2017_May_09_1447,60.0078720309,FEMA4ImagesEEG,001,100366,
AFNE01.JPG,AFNE01.JPG,AFNE01.JPG,AFNE01.JPG,AFNE01.JPG,AFNE01.JPG,,,,,,,,,5,0,50,2,,,,,,,,,,,,,,,AFNE16.jpg,AFSA01.jpg,AFNE06.jpg,AFSA13.jpg,AFSA13.jpg,FS,4,num_4,16,num_4,1.70009869128,,,2017_May_09_1447,60.0078720309,FEMA4ImagesEEG,001,100366,
AFNE01.JPG,AFNE01.JPG,AFNE01.JPG,AFNE01.JPG,AFNE01.JPG,AFNE01.JPG,,,,,,,,,5,1,51,4,,,,,,,,,,,,,,,AFNE11.jpg,AFSA15.jpg,AFSA14.jpg,AFNE12.jpg,AFNE12.jpg,FN,3,num_4,32,num_2,1.3334336176,,,2017_May_09_1447,60.0078720309,FEMA4ImagesEEG,001,100366,
AFNE01.JPG,AFNE01.JPG,AFNE01.JPG,AFNE01.JPG,AFNE01.JPG,AFNE01.JPG,,,,,,,,,5,2,52,8,,,,,,,,,,,,,,,AFSA07.jpg,AFSA19.jpg,AFNE05.jpg,AFNE09.jpg,AFNE05.jpg,FN,3,num_2,32,num_8,1.25013318681,,,2017_May_09_1447,60.0078720309,FEMA4ImagesEEG,001,100366,
AFNE01.JPG,AFNE01.JPG,AFNE01.JPG,AFNE01.JPG,AFNE01.JPG,AFNE01.JPG,,,,,,,,,5,3,53,0,,,,,,,,,,,,,,,AFSA02.jpg,AFNE10.jpg,AFSA03.jpg,AFNE11.jpg,AFSA02.jpg,FS,4,num_8,16,num_8,1.71672869241,,,2017_May_09_1447,60.0078720309,FEMA4ImagesEEG,001,100366,
AFNE01.JPG,AFNE01.JPG,AFNE01.JPG,AFNE01.JPG,AFNE01.JPG,AFNE01.JPG,,,,,,,,,5,4,54,1,,,,,,,,,,,,,,,AFSA08.jpg,AFSA02.jpg,AFNE15.jpg,AFNE20.jpg,AFSA08.jpg,FS,4,num_8,32,num_4,1.71671682503,,,2017_May_09_1447,60.0078720309,FEMA4ImagesEEG,001,100366,
AFNE01.JPG,AFNE01.JPG,AFNE01.JPG,AFNE01.JPG,AFNE01.JPG,AFNE01.JPG,,,,,,,,,5,5,55,6,,,,,,,,,,,,,,,AFNE16.jpg,AFSA13.jpg,AFSA04.jpg,AFNE12.jpg,AFNE12.jpg,FN,3,num_4,16,num_4,1.18344094674,,,2017_May_09_1447,60.0078720309,FEMA4ImagesEEG,001,100366,
AFNE01.JPG,AFNE01.JPG,AFNE01.JPG,AFNE01.JPG,AFNE01.JPG,AFNE01.JPG,,,,,,,,,5,6,56,3,,,,,,,,,,,,,,,AFNE15.jpg,AFSA15.jpg,AFSA07.jpg,AFNE05.jpg,AFSA15.jpg,FS,4,num_6,32,num_4,2.4164181205,,,2017_May_09_1447,60.0078720309,FEMA4ImagesEEG,001,100366,
AFNE01.JPG,AFNE01.JPG,AFNE01.JPG,AFNE01.JPG,AFNE01.JPG,AFNE01.JPG,,,,,,,,,5,7,57,5,,,,,,,,,,,,,,,AFNE13.jpg,AFNE01.jpg,AFSA18.jpg,AFSA17.jpg,AFSA17.jpg,FS,4,num_4,32,num_8,0.316867123358,,,2017_May_09_1447,60.0078720309,FEMA4ImagesEEG,001,100366,
AFNE01.JPG,AFNE01.JPG,AFNE01.JPG,AFNE01.JPG,AFNE01.JPG,AFNE01.JPG,,,,,,,,,5,8,58,9,,,,,,,,,,,,,,,AFSA18.jpg,AFSA16.jpg,AFNE19.jpg,AFNE03.jpg,AFNE03.jpg,FN,3,num_4,32,num_8,1.51674947632,,,2017_May_09_1447,60.0078720309,FEMA4ImagesEEG,001,100366,
AFNE01.JPG,AFNE01.JPG,AFNE01.JPG,AFNE01.JPG,AFNE01.JPG,AFNE01.JPG,,,,,,,,,5,9,59,7,,,,,,,,,,,,,,,AFSA12.jpg,AFNE15.jpg,AFSA16.jpg,AFNE03.jpg,AFNE03.jpg,FN,3,num_4,16,num_4,0.500209602993,,,2017_May_09_1447,60.0078720309,FEMA4ImagesEEG,001,100366,
,,,,,,,,,,,,,,,,,,,,,,,,,,,,,,,,,,,,,,,,,,,space,25.8150281657,2017_May_09_1447,60.0078720309,FEMA4ImagesEEG,001,100366,
AFNE01.JPG,AFNE01.JPG,AFNE01.JPG,AFNE01.JPG,AFNE01.JPG,AFNE01.JPG,,,,,,,,,,,,,0,0,0,2,,,,,,,,,,,AMSA03.jpg,AMSA08.jpg,AMNE03.jpg,AMNE08.jpg,AMNE03.jpg,MN,1,num_2,32,num_6,0.933477751445,,,2017_May_09_1447,60.0078720309,FEMA4ImagesEEG,001,100366,
AFNE01.JPG,AFNE01.JPG,AFNE01.JPG,AFNE01.JPG,AFNE01.JPG,AFNE01.JPG,,,,,,,,,,,,,0,1,1,6,,,,,,,,,,,AMSA05.jpg,AMNE02.jpg,AMNE14.jpg,AMSA09.jpg,AMNE14.jpg,MN,1,num_2,16,num_2,0.816737384303,,,2017_May_09_1447,60.0078720309,FEMA4ImagesEEG,001,100366,
AFNE01.JPG,AFNE01.JPG,AFNE01.JPG,AFNE01.JPG,AFNE01.JPG,AFNE01.JPG,,,,,,,,,,,,,0,2,2,4,,,,,,,,,,,AMNE11.jpg,AMNE12.jpg,AMSA02.jpg,AMSA13.jpg,AMNE12.jpg,MN,1,num_6,32,num_4,1.10008887667,,,2017_May_09_1447,60.0078720309,FEMA4ImagesEEG,001,100366,
AFNE01.JPG,AFNE01.JPG,AFNE01.JPG,AFNE01.JPG,AFNE01.JPG,AFNE01.JPG,,,,,,,,,,,,,0,3,3,1,,,,,,,,,,,AMNE05.jpg,AMSA20.jpg,AMNE14.jpg,AMSA19.jpg,AMSA19.jpg,MS,2,num_4,32,num_8,0.550162470434,,,2017_May_09_1447,60.0078720309,FEMA4ImagesEEG,001,100366,
AFNE01.JPG,AFNE01.JPG,AFNE01.JPG,AFNE01.JPG,AFNE01.JPG,AFNE01.JPG,,,,,,,,,,,,,0,4,4,7,,,,,,,,,,,AMNE16.jpg,AMNE06.jpg,AMSA12.jpg,AMSA16.jpg,AMSA12.jpg,MS,2,num_2,32,num_4,1.13345857128,,,2017_May_09_1447,60.0078720309,FEMA4ImagesEEG,001,100366,
AFNE01.JPG,AFNE01.JPG,AFNE01.JPG,AFNE01.JPG,AFNE01.JPG,AFNE01.JPG,,,,,,,,,,,,,0,5,5,0,,,,,,,,,,,AMNE10.jpg,AMSA16.jpg,AMNE06.jpg,AMSA08.jpg,AMSA16.jpg,MS,2,num_6,16,num_6,0.76676495187,,,2017_May_09_1447,60.0078720309,FEMA4ImagesEEG,001,100366,
AFNE01.JPG,AFNE01.JPG,AFNE01.JPG,AFNE01.JPG,AFNE01.JPG,AFNE01.JPG,,,,,,,,,,,,,0,6,6,9,,,,,,,,,,,AMSA09.jpg,AMNE04.jpg,AMNE03.jpg,AMSA12.jpg,AMNE04.jpg,MN,1,num_6,16,num_6,0.55014707474,,,2017_May_09_1447,60.0078720309,FEMA4ImagesEEG,001,100366,
AFNE01.JPG,AFNE01.JPG,AFNE01.JPG,AFNE01.JPG,AFNE01.JPG,AFNE01.JPG,,,,,,,,,,,,,0,7,7,3,,,,,,,,,,,AMNE15.jpg,AMSA14.jpg,AMSA08.jpg,AMNE20.jpg,AMNE15.jpg,MN,1,num_8,16,num_8,0.883457849734,,,2017_May_09_1447,60.0078720309,FEMA4ImagesEEG,001,100366,
AFNE01.JPG,AFNE01.JPG,AFNE01.JPG,AFNE01.JPG,AFNE01.JPG,AFNE01.JPG,,,,,,,,,,,,,0,8,8,5,,,,,,,,,,,AMSA15.jpg,AMNE16.jpg,AMNE12.jpg,AMSA11.jpg,AMNE12.jpg,MN,1,num_2,16,num_2,1.06686126976,,,2017_May_09_1447,60.0078720309,FEMA4ImagesEEG,001,100366,
AFNE01.JPG,AFNE01.JPG,AFNE01.JPG,AFNE01.JPG,AFNE01.JPG,AFNE01.JPG,,,,,,,,,,,,,0,9,9,8,,,,,,,,,,,AMNE15.jpg,AMNE07.jpg,AMSA04.jpg,AMSA07.jpg,AMNE15.jpg,MN,1,num_8,32,num_6,1.23347367812,,,2017_May_09_1447,60.0078720309,FEMA4ImagesEEG,001,100366,
AFNE01.JPG,AFNE01.JPG,AFNE01.JPG,AFNE01.JPG,AFNE01.JPG,AFNE01.JPG,,,,,,,,,,,,,1,0,10,5,,,,,,,,,,,AMNE12.jpg,AMNE03.jpg,AMSA17.jpg,AMSA02.jpg,AMNE03.jpg,MN,1,num_6,16,num_6,1.51673151483,,,2017_May_09_1447,60.0078720309,FEMA4ImagesEEG,001,100366,
AFNE01.JPG,AFNE01.JPG,AFNE01.JPG,AFNE01.JPG,AFNE01.JPG,AFNE01.JPG,,,,,,,,,,,,,1,1,11,6,,,,,,,,,,,AMSA11.jpg,AMNE17.jpg,AMSA14.jpg,AMNE15.jpg,AMSA11.jpg,MS,2,num_8,32,num_6,1.01664507552,,,2017_May_09_1447,60.0078720309,FEMA4ImagesEEG,001,100366,
AFNE01.JPG,AFNE01.JPG,AFNE01.JPG,AFNE01.JPG,AFNE01.JPG,AFNE01.JPG,,,,,,,,,,,,,1,2,12,3,,,,,,,,,,,AMSA05.jpg,AMNE06.jpg,AMNE07.jpg,AMSA06.jpg,AMNE06.jpg,MN,1,num_6,32,num_8,0.00028257118538,,,2017_May_09_1447,60.0078720309,FEMA4ImagesEEG,001,100366,
AFNE01.JPG,AFNE01.JPG,AFNE01.JPG,AFNE01.JPG,AFNE01.JPG,AFNE01.JPG,,,,,,,,,,,,,1,3,13,2,,,,,,,,,,,AMSA05.jpg,AMNE02.jpg,AMSA15.jpg,AMNE08.jpg,AMSA05.jpg,MS,2,num_8,16,num_8,0.533476019511,,,2017_May_09_1447,60.0078720309,FEMA4ImagesEEG,001,100366,
AFNE01.JPG,AFNE01.JPG,AFNE01.JPG,AFNE01.JPG,AFNE01.JPG,AFNE01.JPG,,,,,,,,,,,,,1,4,14,7,,,,,,,,,,,AMSA15.jpg,AMSA18.jpg,AMNE06.jpg,AMNE04.jpg,AMNE06.jpg,MN,1,num_2,32,num_4,0.666782560293,,,2017_May_09_1447,60.0078720309,FEMA4ImagesEEG,001,100366,
AFNE01.JPG,AFNE01.JPG,AFNE01.JPG,AFNE01.JPG,AFNE01.JPG,AFNE01.JPG,,,,,,,,,,,,,1,5,15,9,,,,,,,,,,,AMNE19.jpg,AMSA02.jpg,AMNE13.jpg,AMSA01.jpg,AMSA01.jpg,MS,2,num_4,32,num_6,0.833507868694,,,2017_May_09_1447,60.0078720309,FEMA4ImagesEEG,001,100366,
AFNE01.JPG,AFNE01.JPG,AFNE01.JPG,AFNE01.JPG,AFNE01.JPG,AFNE01.JPG,,,,,,,,,,,,,1,6,16,8,,,,,,,,,,,AMNE11.jpg,AMSA19.jpg,AMSA11.jpg,AMNE19.jpg,AMSA19.jpg,MS,2,num_6,32,num_4,0.716807914898,,,2017_May_09_1447,60.0078720309,FEMA4ImagesEEG,001,100366,
AFNE01.JPG,AFNE01.JPG,AFNE01.JPG,AFNE01.JPG,AFNE01.JPG,AFNE01.JPG,,,,,,,,,,,,,1,7,17,0,,,,,,,,,,,AMSA09.jpg,AMSA18.jpg,AMNE12.jpg,AMNE06.jpg,AMNE06.jpg,MN,1,num_4,32,num_8,1.03343576682,,,2017_May_09_1447,60.0078720309,FEMA4ImagesEEG,001,100366,
AFNE01.JPG,AFNE01.JPG,AFNE01.JPG,AFNE01.JPG,AFNE01.JPG,AFNE01.JPG,,,,,,,,,,,,,1,8,18,1,,,,,,,,,,,AMSA15.jpg,AMNE15.jpg,AMSA13.jpg,AMNE10.jpg,AMNE10.jpg,MN,1,num_4,32,num_2,0.633443015395,,,2017_May_09_1447,60.0078720309,FEMA4ImagesEEG,001,100366,
AFNE01.JPG,AFNE01.JPG,AFNE01.JPG,AFNE01.JPG,AFNE01.JPG,AFNE01.JPG,,,,,,,,,,,,,1,9,19,4,,,,,,,,,,,AMNE10.jpg,AMSA17.jpg,AMNE16.jpg,AMSA06.jpg,AMNE10.jpg,MN,1,num_8,32,num_4,0.666920478223,,,2017_May_09_1447,60.0078720309,FEMA4ImagesEEG,001,100366,
AFNE01.JPG,AFNE01.JPG,AFNE01.JPG,AFNE01.JPG,AFNE01.JPG,AFNE01.JPG,,,,,,,,,,,,,2,0,20,2,,,,,,,,,,,AMSA05.jpg,AMNE08.jpg,AMNE19.jpg,AMSA18.jpg,AMNE08.jpg,MN,1,num_6,32,num_2,0.333481087117,,,2017_May_09_1447,60.0078720309,FEMA4ImagesEEG,001,100366,
AFNE01.JPG,AFNE01.JPG,AFNE01.JPG,AFNE01.JPG,AFNE01.JPG,AFNE01.JPG,,,,,,,,,,,,,2,1,21,4,,,,,,,,,,,AMSA02.jpg,AMNE19.jpg,AMSA18.jpg,AMNE06.jpg,AMNE06.jpg,MN,1,num_4,32,num_8,0.333350225585,,,2017_May_09_1447,60.0078720309,FEMA4ImagesEEG,001,100366,
AFNE01.JPG,AFNE01.JPG,AFNE01.JPG,AFNE01.JPG,AFNE01.JPG,AFNE01.JPG,,,,,,,,,,,,,2,2,22,1,,,,,,,,,,,AMNE09.jpg,AMSA01.jpg,AMSA14.jpg,AMNE07.jpg,AMNE07.jpg,MN,1,num_4,32,num_6,1.05008565332,,,2017_May_09_1447,60.0078720309,FEMA4ImagesEEG,001,100366,
AFNE01.JPG,AFNE01.JPG,AFNE01.JPG,AFNE01.JPG,AFNE01.JPG,AFNE01.JPG,,,,,,,,,,,,,2,3,23,7,,,,,,,,,,,AMSA15.jpg,AMNE12.jpg,AMNE08.jpg,AMSA18.jpg,AMNE08.jpg,MN,1,num_2,32,num_8,2.59998575924,,,2017_May_09_1447,60.0078720309,FEMA4ImagesEEG,001,100366,
AFNE01.JPG,AFNE01.JPG,AFNE01.JPG,AFNE01.JPG,AFNE01.JPG,AFNE01.JPG,,,,,,,,,,,,,2,4,24,5,,,,,,,,,,,AMSA12.jpg,AMSA09.jpg,AMNE06.jpg,AMNE11.jpg,AMNE11.jpg,MN,1,num_4,32,num_8,1.68309727451,,,2017_May_09_1447,60.0078720309,FEMA4ImagesEEG,001,100366,
AFNE01.JPG,AFNE01.JPG,AFNE01.JPG,AFNE01.JPG,AFNE01.JPG,AFNE01.JPG,,,,,,,,,,,,,2,5,25,0,,,,,,,,,,,AMSA18.jpg,AMNE09.jpg,AMNE08.jpg,AMSA13.jpg,AMNE08.jpg,MN,1,num_2,32,num_8,1.61672256608,,,2017_May_09_1447,60.0078720309,FEMA4ImagesEEG,001,100366,
AFNE01.JPG,AFNE01.JPG,AFNE01.JPG,AFNE01.JPG,AFNE01.JPG,AFNE01.JPG,,,,,,,,,,,,,2,6,26,3,,,,,,,,,,,AMSA16.jpg,AMNE15.jpg,AMSA01.jpg,AMNE18.jpg,AMNE15.jpg,MN,1,num_6,32,num_2,1.2500898873,,,2017_May_09_1447,60.0078720309,FEMA4ImagesEEG,001,100366,
AFNE01.JPG,AFNE01.JPG,AFNE01.JPG,AFNE01.JPG,AFNE01.JPG,AFNE01.JPG,,,,,,,,,,,,,2,7,27,9,,,,,,,,,,,AMNE10.jpg,AMSA07.jpg,AMNE15.jpg,AMSA14.jpg,AMSA14.jpg,MS,2,num_4,16,num_4,1.06698699947,,,2017_May_09_1447,60.0078720309,FEMA4ImagesEEG,001,100366,
AFNE01.JPG,AFNE01.JPG,AFNE01.JPG,AFNE01.JPG,AFNE01.JPG,AFNE01.JPG,,,,,,,,,,,,,2,8,28,8,,,,,,,,,,,AMSA09.jpg,AMNE09.jpg,AMNE17.jpg,AMSA18.jpg,AMNE17.jpg,MN,1,num_2,32,num_6,0.850134662353,,,2017_May_09_1447,60.0078720309,FEMA4ImagesEEG,001,100366,
AFNE01.JPG,AFNE01.JPG,AFNE01.JPG,AFNE01.JPG,AFNE01.JPG,AFNE01.JPG,,,,,,,,,,,,,2,9,29,6,,,,,,,,,,,AMNE16.jpg,AMSA08.jpg,AMNE07.jpg,AMSA10.jpg,AMSA10.jpg,MS,2,num_4,16,num_4,0.550209298264,,,2017_May_09_1447,60.0078720309,FEMA4ImagesEEG,001,100366,
AFNE01.JPG,AFNE01.JPG,AFNE01.JPG,AFNE01.JPG,AFNE01.JPG,AFNE01.JPG,,,,,,,,,,,,,3,0,30,7,,,,,,,,,,,AMSA06.jpg,AMNE15.jpg,AMSA04.jpg,AMNE16.jpg,AMSA04.jpg,MS,2,num_2,32,num_8,0.66677390039,,,2017_May_09_1447,60.0078720309,FEMA4ImagesEEG,001,100366,
AFNE01.JPG,AFNE01.JPG,AFNE01.JPG,AFNE01.JPG,AFNE01.JPG,AFNE01.JPG,,,,,,,,,,,,,3,1,31,9,,,,,,,,,,,AMSA08.jpg,AMNE07.jpg,AMSA10.jpg,AMNE11.jpg,AMSA10.jpg,MS,2,num_2,32,num_6,0.68347221869,,,2017_May_09_1447,60.0078720309,FEMA4ImagesEEG,001,100366,
AFNE01.JPG,AFNE01.JPG,AFNE01.JPG,AFNE01.JPG,AFNE01.JPG,AFNE01.JPG,,,,,,,,,,,,,3,2,32,1,,,,,,,,,,,AMSA19.jpg,AMSA18.jpg,AMNE04.jpg,AMNE17.jpg,AMSA18.jpg,MS,2,num_6,32,num_4,0.95009043254,,,2017_May_09_1447,60.0078720309,FEMA4ImagesEEG,001,100366,
AFNE01.JPG,AFNE01.JPG,AFNE01.JPG,AFNE01.JPG,AFNE01.JPG,AFNE01.JPG,,,,,,,,,,,,,3,3,33,5,,,,,,,,,,,AMSA08.jpg,AMNE11.jpg,AMSA19.jpg,AMNE13.jpg,AMSA19.jpg,MS,2,num_2,32,num_8,1.00011193799,,,2017_May_09_1447,60.0078720309,FEMA4ImagesEEG,001,100366,
AFNE01.JPG,AFNE01.JPG,AFNE01.JPG,AFNE01.JPG,AFNE01.JPG,AFNE01.JPG,,,,,,,,,,,,,3,4,34,8,,,,,,,,,,,AMSA15.jpg,AMSA20.jpg,AMNE08.jpg,AMNE18.jpg,AMNE18.jpg,MN,1,num_4,32,num_6,2.48328772979,,,2017_May_09_1447,60.0078720309,FEMA4ImagesEEG,001,100366,
AFNE01.JPG,AFNE01.JPG,AFNE01.JPG,AFNE01.JPG,AFNE01.JPG,AFNE01.JPG,,,,,,,,,,,,,3,5,35,2,,,,,,,,,,,AMNE02.jpg,AMSA20.jpg,AMNE11.jpg,AMSA06.jpg,AMNE11.jpg,MN,1,num_2,32,num_6,0.916760830441,,,2017_May_09_1447,60.0078720309,FEMA4ImagesEEG,001,100366,
AFNE01.JPG,AFNE01.JPG,AFNE01.JPG,AFNE01.JPG,AFNE01.JPG,AFNE01.JPG,,,,,,,,,,,,,3,6,36,4,,,,,,,,,,,AMNE06.jpg,AMSA02.jpg,AMSA01.jpg,AMNE19.jpg,AMSA01.jpg,MS,2,num_2,16,num_2,0.866806038655,,,2017_May_09_1447,60.0078720309,FEMA4ImagesEEG,001,100366,
AFNE01.JPG,AFNE01.JPG,AFNE01.JPG,AFNE01.JPG,AFNE01.JPG,AFNE01.JPG,,,,,,,,,,,,,3,7,37,0,,,,,,,,,,,AMSA04.jpg,AMNE08.jpg,AMNE18.jpg,AMSA13.jpg,AMNE18.jpg,MN,1,num_2,32,num_4,1.01673424104,,,2017_May_09_1447,60.0078720309,FEMA4ImagesEEG,001,100366,
AFNE01.JPG,AFNE01.JPG,AFNE01.JPG,AFNE01.JPG,AFNE01.JPG,AFNE01.JPG,,,,,,,,,,,,,3,8,38,3,,,,,,,,,,,AMNE11.jpg,AMNE07.jpg,AMSA03.jpg,AMSA04.jpg,AMSA03.jpg,MS,2,num_2,32,num_6,1.46668948187,,,2017_May_09_1447,60.0078720309,FEMA4ImagesEEG,001,100366,
AFNE01.JPG,AFNE01.JPG,AFNE01.JPG,AFNE01.JPG,AFNE01.JPG,AFNE01.JPG,,,,,,,,,,,,,3,9,39,6,,,,,,,,,,,AMSA15.jpg,AMNE10.jpg,AMSA11.jpg,AMNE19.jpg,AMSA15.jpg,MS,2,num_8,32,num_4,0.716764614917,,,2017_May_09_1447,60.0078720309,FEMA4ImagesEEG,001,100366,
AFNE01.JPG,AFNE01.JPG,AFNE01.JPG,AFNE01.JPG,AFNE01.JPG,AFNE01.JPG,,,,,,,,,,,,,4,0,40,5,,,,,,,,,,,AMSA19.jpg,AMSA16.jpg,AMNE18.jpg,AMNE14.jpg,AMSA16.jpg,MS,2,num_6,32,num_8,0.816789023345,,,2017_May_09_1447,60.0078720309,FEMA4ImagesEEG,001,100366,
AFNE01.JPG,AFNE01.JPG,AFNE01.JPG,AFNE01.JPG,AFNE01.JPG,AFNE01.JPG,,,,,,,,,,,,,4,1,41,2,,,,,,,,,,,AMSA04.jpg,AMSA05.jpg,AMNE12.jpg,AMNE09.jpg,AMSA04.jpg,MS,2,num_8,32,num_2,0.533512904309,,,2017_May_09_1447,60.0078720309,FEMA4ImagesEEG,001,100366,
AFNE01.JPG,AFNE01.JPG,AFNE01.JPG,AFNE01.JPG,AFNE01.JPG,AFNE01.JPG,,,,,,,,,,,,,4,2,42,8,,,,,,,,,,,AMNE11.jpg,AMSA01.jpg,AMNE17.jpg,AMSA03.jpg,AMNE11.jpg,MN,1,num_8,16,num_8,2.08338125702,,,2017_May_09_1447,60.0078720309,FEMA4ImagesEEG,001,100366,
AFNE01.JPG,AFNE01.JPG,AFNE01.JPG,AFNE01.JPG,AFNE01.JPG,AFNE01.JPG,,,,,,,,,,,,,4,3,43,9,,,,,,,,,,,AMNE17.jpg,AMSA15.jpg,AMSA12.jpg,AMNE14.jpg,AMNE14.jpg,MN,1,num_4,32,num_2,0.683445597533,,,2017_May_09_1447,60.0078720309,FEMA4ImagesEEG,001,100366,
AFNE01.JPG,AFNE01.JPG,AFNE01.JPG,AFNE01.JPG,AFNE01.JPG,AFNE01.JPG,,,,,,,,,,,,,4,4,44,7,,,,,,,,,,,AMSA15.jpg,AMSA17.jpg,AMNE04.jpg,AMNE15.jpg,AMNE04.jpg,MN,1,num_2,32,num_6,3.01658926695,,,2017_May_09_1447,60.0078720309,FEMA4ImagesEEG,001,100366,
AFNE01.JPG,AFNE01.JPG,AFNE01.JPG,AFNE01.JPG,AFNE01.JPG,AFNE01.JPG,,,,,,,,,,,,,4,5,45,4,,,,,,,,,,,AMNE18.jpg,AMSA14.jpg,AMSA06.jpg,AMNE09.jpg,AMSA14.jpg,MS,2,num_6,32,num_2,2.18331970717,,,2017_May_09_1447,60.0078720309,FEMA4ImagesEEG,001,100366,
AFNE01.JPG,AFNE01.JPG,AFNE01.JPG,AFNE01.JPG,AFNE01.JPG,AFNE01.JPG,,,,,,,,,,,,,4,6,46,3,,,,,,,,,,,AMNE06.jpg,AMSA02.jpg,AMNE04.jpg,AMSA16.jpg,AMNE04.jpg,MN,1,num_2,32,num_8,1.20002957224,,,2017_May_09_1447,60.0078720309,FEMA4ImagesEEG,001,100366,
AFNE01.JPG,AFNE01.JPG,AFNE01.JPG,AFNE01.JPG,AFNE01.JPG,AFNE01.JPG,,,,,,,,,,,,,4,7,47,0,,,,,,,,,,,AMSA13.jpg,AMSA12.jpg,AMNE19.jpg,AMNE11.jpg,AMNE11.jpg,MN,1,num_4,32,num_2,0.816786136478,,,2017_May_09_1447,60.0078720309,FEMA4ImagesEEG,001,100366,
AFNE01.JPG,AFNE01.JPG,AFNE01.JPG,AFNE01.JPG,AFNE01.JPG,AFNE01.JPG,,,,,,,,,,,,,4,8,48,6,,,,,,,,,,,AMNE19.jpg,AMSA04.jpg,AMSA18.jpg,AMNE12.jpg,AMSA18.jpg,MS,2,num_2,32,num_4,0.950101658236,,,2017_May_09_1447,60.0078720309,FEMA4ImagesEEG,001,100366,
AFNE01.JPG,AFNE01.JPG,AFNE01.JPG,AFNE01.JPG,AFNE01.JPG,AFNE01.JPG,,,,,,,,,,,,,4,9,49,1,,,,,,,,,,,AMNE20.jpg,AMSA08.jpg,AMNE17.jpg,AMSA05.jpg,AMSA05.jpg,MS,2,num_4,32,num_8,0.850095852744,,,2017_May_09_1447,60.0078720309,FEMA4ImagesEEG,001,100366,
AFNE01.JPG,AFNE01.JPG,AFNE01.JPG,AFNE01.JPG,AFNE01.JPG,AFNE01.JPG,,,,,,,,,,,,,5,0,50,5,,,,,,,,,,,AMSA01.jpg,AMSA04.jpg,AMNE20.jpg,AMNE14.jpg,AMNE14.jpg,MN,1,num_4,32,num_2,0.950098450761,,,2017_May_09_1447,60.0078720309,FEMA4ImagesEEG,001,100366,
AFNE01.JPG,AFNE01.JPG,AFNE01.JPG,AFNE01.JPG,AFNE01.JPG,AFNE01.JPG,,,,,,,,,,,,,5,1,51,2,,,,,,,,,,,AMNE06.jpg,AMSA10.jpg,AMNE13.jpg,AMSA17.jpg,AMSA10.jpg,MS,2,num_6,16,num_6,0.700140066678,,,2017_May_09_1447,60.0078720309,FEMA4ImagesEEG,001,100366,
AFNE01.JPG,AFNE01.JPG,AFNE01.JPG,AFNE01.JPG,AFNE01.JPG,AFNE01.JPG,,,,,,,,,,,,,5,2,52,4,,,,,,,,,,,AMSA05.jpg,AMNE12.jpg,AMSA18.jpg,AMNE03.jpg,AMNE12.jpg,MN,1,num_6,16,num_6,0.733457159949,,,2017_May_09_1447,60.0078720309,FEMA4ImagesEEG,001,100366,
AFNE01.JPG,AFNE01.JPG,AFNE01.JPG,AFNE01.JPG,AFNE01.JPG,AFNE01.JPG,,,,,,,,,,,,,5,3,53,7,,,,,,,,,,,AMSA05.jpg,AMNE04.jpg,AMNE18.jpg,AMSA02.jpg,AMSA05.jpg,MS,2,num_8,32,num_2,0.916754736332,,,2017_May_09_1447,60.0078720309,FEMA4ImagesEEG,001,100366,
AFNE01.JPG,AFNE01.JPG,AFNE01.JPG,AFNE01.JPG,AFNE01.JPG,AFNE01.JPG,,,,,,,,,,,,,5,4,54,3,,,,,,,,,,,AMSA14.jpg,AMSA17.jpg,AMNE19.jpg,AMNE10.jpg,AMSA17.jpg,MS,2,num_6,16,num_6,3.36652587284,,,2017_May_09_1447,60.0078720309,FEMA4ImagesEEG,001,100366,
AFNE01.JPG,AFNE01.JPG,AFNE01.JPG,AFNE01.JPG,AFNE01.JPG,AFNE01.JPG,,,,,,,,,,,,,5,5,55,0,,,,,,,,,,,AMSA03.jpg,AMNE01.jpg,AMNE16.jpg,AMSA12.jpg,AMNE16.jpg,MN,1,num_2,32,num_8,0.866750550456,,,2017_May_09_1447,60.0078720309,FEMA4ImagesEEG,001,100366,
AFNE01.JPG,AFNE01.JPG,AFNE01.JPG,AFNE01.JPG,AFNE01.JPG,AFNE01.JPG,,,,,,,,,,,,,5,6,56,6,,,,,,,,,,,AMSA08.jpg,AMSA20.jpg,AMNE06.jpg,AMNE16.jpg,AMSA20.jpg,MS,2,num_6,32,num_4,3.26627726806,,,2017_May_09_1447,60.0078720309,FEMA4ImagesEEG,001,100366,
AFNE01.JPG,AFNE01.JPG,AFNE01.JPG,AFNE01.JPG,AFNE01.JPG,AFNE01.JPG,,,,,,,,,,,,,5,7,57,8,,,,,,,,,,,AMSA14.jpg,AMSA03.jpg,AMNE09.jpg,AMNE03.jpg,AMSA14.jpg,MS,2,num_8,32,num_2,1.43344808323,,,2017_May_09_1447,60.0078720309,FEMA4ImagesEEG,001,100366,
AFNE01.JPG,AFNE01.JPG,AFNE01.JPG,AFNE01.JPG,AFNE01.JPG,AFNE01.JPG,,,,,,,,,,,,,5,8,58,1,,,,,,,,,,,AMNE10.jpg,AMSA18.jpg,AMSA15.jpg,AMNE17.jpg,AMSA18.jpg,MS,2,num_6,32,num_2,1.33340699621,,,2017_May_09_1447,60.0078720309,FEMA4ImagesEEG,001,100366,
AFNE01.JPG,AFNE01.JPG,AFNE01.JPG,AFNE01.JPG,AFNE01.JPG,AFNE01.JPG,,,,,,,,,,,,,5,9,59,9,,,,,,,,,,,AMNE14.jpg,AMSA13.jpg,AMSA10.jpg,AMNE16.jpg,AMSA13.jpg,MS,2,num_6,32,num_2,1.63335545361,,,2017_May_09_1447,60.0078720309,FEMA4ImagesEEG,001,100366,
,,,,,,,,,,,,,,,,,,,,,,,,,,,,,,,,,,,,,,,,,,,space,31.8806520239,2017_May_09_1447,60.0078720309,FEMA4ImagesEEG,001,100366,
AFNE01.JPG,AFNE01.JPG,AFNE01.JPG,AFNE01.JPG,AFNE01.JPG,AFNE01.JPG,,,,,,,,,,,,,,,,,0,0,0,2,,,,,,,AFNE09.jpg,AFNE06.jpg,AFSA09.jpg,AFSA05.jpg,AFSA09.jpg,FS,4,num_2,32,num_4,0.966756676789,,,2017_May_09_1447,60.0078720309,FEMA4ImagesEEG,001,100366,
AFNE01.JPG,AFNE01.JPG,AFNE01.JPG,AFNE01.JPG,AFNE01.JPG,AFNE01.JPG,,,,,,,,,,,,,,,,,0,1,1,8,,,,,,,AFSA12.jpg,AFSA14.jpg,AFNE20.jpg,AFNE09.jpg,AFNE20.jpg,FN,3,num_2,32,num_8,0.866621934343,,,2017_May_09_1447,60.0078720309,FEMA4ImagesEEG,001,100366,
AFNE01.JPG,AFNE01.JPG,AFNE01.JPG,AFNE01.JPG,AFNE01.JPG,AFNE01.JPG,,,,,,,,,,,,,,,,,0,2,2,0,,,,,,,AFSA16.jpg,AFNE10.jpg,AFNE09.jpg,AFSA13.jpg,AFNE09.jpg,FN,3,num_2,16,num_2,0.566849242197,,,2017_May_09_1447,60.0078720309,FEMA4ImagesEEG,001,100366,
AFNE01.JPG,AFNE01.JPG,AFNE01.JPG,AFNE01.JPG,AFNE01.JPG,AFNE01.JPG,,,,,,,,,,,,,,,,,0,3,3,6,,,,,,,AFNE02.jpg,AFSA12.jpg,AFSA03.jpg,AFNE12.jpg,AFSA12.jpg,FS,4,num_6,32,num_4,1.18346083257,,,2017_May_09_1447,60.0078720309,FEMA4ImagesEEG,001,100366,
AFNE01.JPG,AFNE01.JPG,AFNE01.JPG,AFNE01.JPG,AFNE01.JPG,AFNE01.JPG,,,,,,,,,,,,,,,,,0,4,4,3,,,,,,,AFSA05.jpg,AFNE08.jpg,AFSA10.jpg,AFNE17.jpg,AFNE17.jpg,FN,3,num_4,32,num_6,0.849987763911,,,2017_May_09_1447,60.0078720309,FEMA4ImagesEEG,001,100366,
AFNE01.JPG,AFNE01.JPG,AFNE01.JPG,AFNE01.JPG,AFNE01.JPG,AFNE01.JPG,,,,,,,,,,,,,,,,,0,5,5,4,,,,,,,AFNE14.jpg,AFSA18.jpg,AFNE13.jpg,AFSA02.jpg,AFNE13.jpg,FN,3,num_2,16,num_2,1.11673555593,,,2017_May_09_1447,60.0078720309,FEMA4ImagesEEG,001,100366,
AFNE01.JPG,AFNE01.JPG,AFNE01.JPG,AFNE01.JPG,AFNE01.JPG,AFNE01.JPG,,,,,,,,,,,,,,,,,0,6,6,1,,,,,,,AFSA19.jpg,AFSA03.jpg,AFNE14.jpg,AFNE09.jpg,AFNE09.jpg,FN,3,num_4,32,num_6,0.866731947754,,,2017_May_09_1447,60.0078720309,FEMA4ImagesEEG,001,100366,
AFNE01.JPG,AFNE01.JPG,AFNE01.JPG,AFNE01.JPG,AFNE01.JPG,AFNE01.JPG,,,,,,,,,,,,,,,,,0,7,7,7,,,,,,,AFSA01.jpg,AFNE08.jpg,AFNE18.jpg,AFSA15.jpg,AFNE08.jpg,FN,3,num_6,16,num_6,0.950111922109,,,2017_May_09_1447,60.0078720309,FEMA4ImagesEEG,001,100366,
AFNE01.JPG,AFNE01.JPG,AFNE01.JPG,AFNE01.JPG,AFNE01.JPG,AFNE01.JPG,,,,,,,,,,,,,,,,,0,8,8,9,,,,,,,AFSA02.jpg,AFSA20.jpg,AFNE06.jpg,AFNE07.jpg,AFNE07.jpg,FN,3,num_4,32,num_2,1.10007861303,,,2017_May_09_1447,60.0078720309,FEMA4ImagesEEG,001,100366,
AFNE01.JPG,AFNE01.JPG,AFNE01.JPG,AFNE01.JPG,AFNE01.JPG,AFNE01.JPG,,,,,,,,,,,,,,,,,0,9,9,5,,,,,,,AFSA11.jpg,AFNE07.jpg,AFSA13.jpg,AFNE06.jpg,AFSA11.jpg,FS,4,num_8,32,num_6,3.69992453023,,,2017_May_09_1447,60.0078720309,FEMA4ImagesEEG,001,100366,
AFNE01.JPG,AFNE01.JPG,AFNE01.JPG,AFNE01.JPG,AFNE01.JPG,AFNE01.JPG,,,,,,,,,,,,,,,,,1,0,10,5,,,,,,,AFNE04.jpg,AFSA19.jpg,AFNE17.jpg,AFSA12.jpg,AFSA19.jpg,FS,4,num_6,32,num_8,0.550113718025,,,2017_May_09_1447,60.0078720309,FEMA4ImagesEEG,001,100366,
AFNE01.JPG,AFNE01.JPG,AFNE01.JPG,AFNE01.JPG,AFNE01.JPG,AFNE01.JPG,,,,,,,,,,,,,,,,,1,1,11,9,,,,,,,AFNE14.jpg,AFNE03.jpg,AFSA17.jpg,AFSA09.jpg,AFSA09.jpg,FS,4,num_4,16,num_4,0.466658049496,,,2017_May_09_1447,60.0078720309,FEMA4ImagesEEG,001,100366,
AFNE01.JPG,AFNE01.JPG,AFNE01.JPG,AFNE01.JPG,AFNE01.JPG,AFNE01.JPG,,,,,,,,,,,,,,,,,1,2,12,8,,,,,,,AFSA14.jpg,AFSA06.jpg,AFNE18.jpg,AFNE14.jpg,AFNE18.jpg,FN,3,num_2,32,num_6,0.650105090113,,,2017_May_09_1447,60.0078720309,FEMA4ImagesEEG,001,100366,
AFNE01.JPG,AFNE01.JPG,AFNE01.JPG,AFNE01.JPG,AFNE01.JPG,AFNE01.JPG,,,,,,,,,,,,,,,,,1,3,13,7,,,,,,,AFNE13.jpg,AFNE06.jpg,AFSA01.jpg,AFSA03.jpg,AFNE06.jpg,FN,3,num_6,32,num_8,0.883427058579,,,2017_May_09_1447,60.0078720309,FEMA4ImagesEEG,001,100366,
AFNE01.JPG,AFNE01.JPG,AFNE01.JPG,AFNE01.JPG,AFNE01.JPG,AFNE01.JPG,,,,,,,,,,,,,,,,,1,4,14,3,,,,,,,AFSA02.jpg,AFNE04.jpg,AFNE13.jpg,AFSA12.jpg,AFSA12.jpg,FS,4,num_4,16,num_4,0.716797971865,,,2017_May_09_1447,60.0078720309,FEMA4ImagesEEG,001,100366,
AFNE01.JPG,AFNE01.JPG,AFNE01.JPG,AFNE01.JPG,AFNE01.JPG,AFNE01.JPG,,,,,,,,,,,,,,,,,1,5,15,6,,,,,,,AFSA08.jpg,AFNE14.jpg,AFSA15.jpg,AFNE06.jpg,AFSA15.jpg,FS,4,num_2,32,num_6,0.783451402793,,,2017_May_09_1447,60.0078720309,FEMA4ImagesEEG,001,100366,
AFNE01.JPG,AFNE01.JPG,AFNE01.JPG,AFNE01.JPG,AFNE01.JPG,AFNE01.JPG,,,,,,,,,,,,,,,,,1,6,16,1,,,,,,,AFSA05.jpg,AFSA03.jpg,AFNE06.jpg,AFNE13.jpg,AFSA05.jpg,FS,4,num_8,32,num_4,0.966915763449,,,2017_May_09_1447,60.0078720309,FEMA4ImagesEEG,001,100366,
AFNE01.JPG,AFNE01.JPG,AFNE01.JPG,AFNE01.JPG,AFNE01.JPG,AFNE01.JPG,,,,,,,,,,,,,,,,,1,7,17,4,,,,,,,AFSA06.jpg,AFNE18.jpg,AFSA02.jpg,AFNE01.jpg,AFNE01.jpg,FN,3,num_4,32,num_6,0.833470021607,,,2017_May_09_1447,60.0078720309,FEMA4ImagesEEG,001,100366,
AFNE01.JPG,AFNE01.JPG,AFNE01.JPG,AFNE01.JPG,AFNE01.JPG,AFNE01.JPG,,,,,,,,,,,,,,,,,1,8,18,0,,,,,,,AFSA02.jpg,AFNE02.jpg,AFNE13.jpg,AFSA09.jpg,AFNE13.jpg,FN,3,num_2,32,num_6,1.00011642836,,,2017_May_09_1447,60.0078720309,FEMA4ImagesEEG,001,100366,
AFNE01.JPG,AFNE01.JPG,AFNE01.JPG,AFNE01.JPG,AFNE01.JPG,AFNE01.JPG,,,,,,,,,,,,,,,,,1,9,19,2,,,,,,,AFNE14.jpg,AFSA04.jpg,AFNE06.jpg,AFSA11.jpg,AFNE14.jpg,FN,3,num_8,32,num_4,2.49996167165,,,2017_May_09_1447,60.0078720309,FEMA4ImagesEEG,001,100366,
AFNE01.JPG,AFNE01.JPG,AFNE01.JPG,AFNE01.JPG,AFNE01.JPG,AFNE01.JPG,,,,,,,,,,,,,,,,,2,0,20,4,,,,,,,AFNE08.jpg,AFSA18.jpg,AFSA14.jpg,AFNE16.jpg,AFSA18.jpg,FS,4,num_6,32,num_2,1.00013022008,,,2017_May_09_1447,60.0078720309,FEMA4ImagesEEG,001,100366,
AFNE01.JPG,AFNE01.JPG,AFNE01.JPG,AFNE01.JPG,AFNE01.JPG,AFNE01.JPG,,,,,,,,,,,,,,,,,2,1,21,0,,,,,,,AFSA07.jpg,AFNE19.jpg,AFNE17.jpg,AFSA11.jpg,AFSA07.jpg,FS,4,num_8,16,num_8,0.200143755414,,,2017_May_09_1447,60.0078720309,FEMA4ImagesEEG,001,100366,
AFNE01.JPG,AFNE01.JPG,AFNE01.JPG,AFNE01.JPG,AFNE01.JPG,AFNE01.JPG,,,,,,,,,,,,,,,,,2,2,22,2,,,,,,,AFSA06.jpg,AFNE05.jpg,AFSA13.jpg,AFNE19.jpg,AFSA06.jpg,FS,4,num_8,32,num_6,0.45015249541,,,2017_May_09_1447,60.0078720309,FEMA4ImagesEEG,001,100366,
AFNE01.JPG,AFNE01.JPG,AFNE01.JPG,AFNE01.JPG,AFNE01.JPG,AFNE01.JPG,,,,,,,,,,,,,,,,,2,3,23,1,,,,,,,AFSA06.jpg,AFNE14.jpg,AFNE18.jpg,AFSA17.jpg,AFNE18.jpg,FN,3,num_2,32,num_4,0.750124045881,,,2017_May_09_1447,60.0078720309,FEMA4ImagesEEG,001,100366,
AFNE01.JPG,AFNE01.JPG,AFNE01.JPG,AFNE01.JPG,AFNE01.JPG,AFNE01.JPG,,,,,,,,,,,,,,,,,2,4,24,3,,,,,,,AFSA19.jpg,AFNE10.jpg,AFNE09.jpg,AFSA09.jpg,AFNE09.jpg,FN,3,num_2,32,num_6,3.50019869767,,,2017_May_09_1447,60.0078720309,FEMA4ImagesEEG,001,100366,
AFNE01.JPG,AFNE01.JPG,AFNE01.JPG,AFNE01.JPG,AFNE01.JPG,AFNE01.JPG,,,,,,,,,,,,,,,,,2,5,25,6,,,,,,,AFSA03.jpg,AFSA20.jpg,AFNE15.jpg,AFNE03.jpg,AFSA03.jpg,FS,4,num_8,16,num_8,2.9165911593,,,2017_May_09_1447,60.0078720309,FEMA4ImagesEEG,001,100366,
AFNE01.JPG,AFNE01.JPG,AFNE01.JPG,AFNE01.JPG,AFNE01.JPG,AFNE01.JPG,,,,,,,,,,,,,,,,,2,6,26,8,,,,,,,AFSA01.jpg,AFNE14.jpg,AFSA05.jpg,AFNE02.jpg,AFNE14.jpg,FN,3,num_6,32,num_8,0.700115690706,,,2017_May_09_1447,60.0078720309,FEMA4ImagesEEG,001,100366,
AFNE01.JPG,AFNE01.JPG,AFNE01.JPG,AFNE01.JPG,AFNE01.JPG,AFNE01.JPG,,,,,,,,,,,,,,,,,2,7,27,7,,,,,,,AFNE17.jpg,AFNE05.jpg,AFSA09.jpg,AFSA11.jpg,AFNE17.jpg,FN,3,num_8,32,num_6,0.883475490147,,,2017_May_09_1447,60.0078720309,FEMA4ImagesEEG,001,100366,
AFNE01.JPG,AFNE01.JPG,AFNE01.JPG,AFNE01.JPG,AFNE01.JPG,AFNE01.JPG,,,,,,,,,,,,,,,,,2,8,28,9,,,,,,,AFNE16.jpg,AFSA03.jpg,AFSA15.jpg,AFNE18.jpg,AFNE16.jpg,FN,3,num_8,32,num_4,0.733490516897,,,2017_May_09_1447,60.0078720309,FEMA4ImagesEEG,001,100366,
AFNE01.JPG,AFNE01.JPG,AFNE01.JPG,AFNE01.JPG,AFNE01.JPG,AFNE01.JPG,,,,,,,,,,,,,,,,,2,9,29,5,,,,,,,AFSA04.jpg,AFNE17.jpg,AFNE09.jpg,AFSA10.jpg,AFSA10.jpg,FS,4,num_4,32,num_2,0.733489875216,,,2017_May_09_1447,60.0078720309,FEMA4ImagesEEG,001,100366,
AFNE01.JPG,AFNE01.JPG,AFNE01.JPG,AFNE01.JPG,AFNE01.JPG,AFNE01.JPG,,,,,,,,,,,,,,,,,3,0,30,8,,,,,,,AFNE16.jpg,AFSA20.jpg,AFSA10.jpg,AFNE20.jpg,AFNE20.jpg,FN,3,num_4,48,None,,,,2017_May_09_1447,60.0078720309,FEMA4ImagesEEG,001,100366,
AFNE01.JPG,AFNE01.JPG,AFNE01.JPG,AFNE01.JPG,AFNE01.JPG,AFNE01.JPG,,,,,,,,,,,,,,,,,3,1,31,9,,,,,,,AFSA20.jpg,AFNE16.jpg,AFNE06.jpg,AFSA02.jpg,AFNE06.jpg,FN,3,num_2,32,num_4,1.11681477865,,,2017_May_09_1447,60.0078720309,FEMA4ImagesEEG,001,100366,
AFNE01.JPG,AFNE01.JPG,AFNE01.JPG,AFNE01.JPG,AFNE01.JPG,AFNE01.JPG,,,,,,,,,,,,,,,,,3,2,32,4,,,,,,,AFSA06.jpg,AFNE09.jpg,AFNE19.jpg,AFSA01.jpg,AFNE09.jpg,FN,3,num_6,16,num_6,1.23340920941,,,2017_May_09_1447,60.0078720309,FEMA4ImagesEEG,001,100366,
AFNE01.JPG,AFNE01.JPG,AFNE01.JPG,AFNE01.JPG,AFNE01.JPG,AFNE01.JPG,,,,,,,,,,,,,,,,,3,3,33,1,,,,,,,AFNE10.jpg,AFSA03.jpg,AFNE09.jpg,AFSA08.jpg,AFNE10.jpg,FN,3,num_8,16,num_8,0.183441267349,,,2017_May_09_1447,60.0078720309,FEMA4ImagesEEG,001,100366,
AFNE01.JPG,AFNE01.JPG,AFNE01.JPG,AFNE01.JPG,AFNE01.JPG,AFNE01.JPG,,,,,,,,,,,,,,,,,3,4,34,2,,,,,,,AFNE04.jpg,AFNE18.jpg,AFSA08.jpg,AFSA14.jpg,AFNE04.jpg,FN,3,num_8,16,num_8,0.966725565027,,,2017_May_09_1447,60.0078720309,FEMA4ImagesEEG,001,100366,
AFNE01.JPG,AFNE01.JPG,AFNE01.JPG,AFNE01.JPG,AFNE01.JPG,AFNE01.JPG,,,,,,,,,,,,,,,,,3,5,35,7,,,,,,,AFNE07.jpg,AFSA03.jpg,AFSA08.jpg,AFNE19.jpg,AFNE19.jpg,FN,3,num_4,32,num_8,2.98328660685,,,2017_May_09_1447,60.0078720309,FEMA4ImagesEEG,001,100366,
AFNE01.JPG,AFNE01.JPG,AFNE01.JPG,AFNE01.JPG,AFNE01.JPG,AFNE01.JPG,,,,,,,,,,,,,,,,,3,6,36,5,,,,,,,AFSA08.jpg,AFNE12.jpg,AFNE04.jpg,AFSA20.jpg,AFSA20.jpg,FS,4,num_4,16,num_4,1.31668622652,,,2017_May_09_1447,60.0078720309,FEMA4ImagesEEG,001,100366,
AFNE01.JPG,AFNE01.JPG,AFNE01.JPG,AFNE01.JPG,AFNE01.JPG,AFNE01.JPG,,,,,,,,,,,,,,,,,3,7,37,0,,,,,,,AFNE12.jpg,AFSA08.jpg,AFNE13.jpg,AFSA20.jpg,AFNE12.jpg,FN,3,num_8,16,num_8,0.916732284473,,,2017_May_09_1447,60.0078720309,FEMA4ImagesEEG,001,100366,
AFNE01.JPG,AFNE01.JPG,AFNE01.JPG,AFNE01.JPG,AFNE01.JPG,AFNE01.JPG,,,,,,,,,,,,,,,,,3,8,38,3,,,,,,,AFNE15.jpg,AFNE19.jpg,AFSA15.jpg,AFSA04.jpg,AFNE15.jpg,FN,3,num_8,32,num_6,1.26671315241,,,2017_May_09_1447,60.0078720309,FEMA4ImagesEEG,001,100366,
AFNE01.JPG,AFNE01.JPG,AFNE01.JPG,AFNE01.JPG,AFNE01.JPG,AFNE01.JPG,,,,,,,,,,,,,,,,,3,9,39,6,,,,,,,AFNE13.jpg,AFNE17.jpg,AFSA04.jpg,AFSA13.jpg,AFSA13.jpg,FS,4,num_4,32,num_2,0.616949970135,,,2017_May_09_1447,60.0078720309,FEMA4ImagesEEG,001,100366,
AFNE01.JPG,AFNE01.JPG,AFNE01.JPG,AFNE01.JPG,AFNE01.JPG,AFNE01.JPG,,,,,,,,,,,,,,,,,4,0,40,6,,,,,,,AFSA20.jpg,AFSA04.jpg,AFNE18.jpg,AFNE02.jpg,AFNE18.jpg,FN,3,num_2,32,num_4,0.533484679414,,,2017_May_09_1447,60.0078720309,FEMA4ImagesEEG,001,100366,
AFNE01.JPG,AFNE01.JPG,AFNE01.JPG,AFNE01.JPG,AFNE01.JPG,AFNE01.JPG,,,,,,,,,,,,,,,,,4,1,41,4,,,,,,,AFNE01.jpg,AFSA18.jpg,AFSA12.jpg,AFNE13.jpg,AFSA18.jpg,FS,4,num_6,16,num_6,0.901417313842,,,2017_May_09_1447,60.0078720309,FEMA4ImagesEEG,001,100366,
AFNE01.JPG,AFNE01.JPG,AFNE01.JPG,AFNE01.JPG,AFNE01.JPG,AFNE01.JPG,,,,,,,,,,,,,,,,,4,2,42,3,,,,,,,AFSA06.jpg,AFNE03.jpg,AFNE10.jpg,AFSA11.jpg,AFNE10.jpg,FN,3,num_2,32,num_8,1.33328094613,,,2017_May_09_1447,60.0078720309,FEMA4ImagesEEG,001,100366,
AFNE01.JPG,AFNE01.JPG,AFNE01.JPG,AFNE01.JPG,AFNE01.JPG,AFNE01.JPG,,,,,,,,,,,,,,,,,4,3,43,5,,,,,,,AFSA20.jpg,AFNE05.jpg,AFNE02.jpg,AFSA04.jpg,AFSA20.jpg,FS,4,num_8,16,num_8,0.550057588611,,,2017_May_09_1447,60.0078720309,FEMA4ImagesEEG,001,100366,
AFNE01.JPG,AFNE01.JPG,AFNE01.JPG,AFNE01.JPG,AFNE01.JPG,AFNE01.JPG,,,,,,,,,,,,,,,,,4,4,44,1,,,,,,,AFNE13.jpg,AFSA20.jpg,AFNE08.jpg,AFSA11.jpg,AFSA11.jpg,FS,4,num_4,16,num_4,0.966741922777,,,2017_May_09_1447,60.0078720309,FEMA4ImagesEEG,001,100366,
AFNE01.JPG,AFNE01.JPG,AFNE01.JPG,AFNE01.JPG,AFNE01.JPG,AFNE01.JPG,,,,,,,,,,,,,,,,,4,5,45,7,,,,,,,AFSA01.jpg,AFNE16.jpg,AFNE04.jpg,AFSA10.jpg,AFSA10.jpg,FS,4,num_4,32,num_6,1.01676439052,,,2017_May_09_1447,60.0078720309,FEMA4ImagesEEG,001,100366,
AFNE01.JPG,AFNE01.JPG,AFNE01.JPG,AFNE01.JPG,AFNE01.JPG,AFNE01.JPG,,,,,,,,,,,,,,,,,4,6,46,9,,,,,,,AFNE20.jpg,AFSA20.jpg,AFSA13.jpg,AFNE05.jpg,AFNE05.jpg,FN,3,num_4,32,num_6,0.700149047421,,,2017_May_09_1447,60.0078720309,FEMA4ImagesEEG,001,100366,
AFNE01.JPG,AFNE01.JPG,AFNE01.JPG,AFNE01.JPG,AFNE01.JPG,AFNE01.JPG,,,,,,,,,,,,,,,,,4,7,47,0,,,,,,,AFSA15.jpg,AFNE03.jpg,AFSA20.jpg,AFNE14.jpg,AFSA15.jpg,FS,4,num_8,32,num_6,1.15023931931,,,2017_May_09_1447,60.0078720309,FEMA4ImagesEEG,001,100366,
AFNE01.JPG,AFNE01.JPG,AFNE01.JPG,AFNE01.JPG,AFNE01.JPG,AFNE01.JPG,,,,,,,,,,,,,,,,,4,8,48,2,,,,,,,AFNE06.jpg,AFSA02.jpg,AFSA18.jpg,AFNE10.jpg,AFSA18.jpg,FS,4,num_2,32,num_6,1.71672933362,,,2017_May_09_1447,60.0078720309,FEMA4ImagesEEG,001,100366,
AFNE01.JPG,AFNE01.JPG,AFNE01.JPG,AFNE01.JPG,AFNE01.JPG,AFNE01.JPG,,,,,,,,,,,,,,,,,4,9,49,8,,,,,,,AFNE14.jpg,AFNE10.jpg,AFSA14.jpg,AFSA17.jpg,AFNE14.jpg,FN,3,num_8,16,num_8,0.766908322228,,,2017_May_09_1447,60.0078720309,FEMA4ImagesEEG,001,100366,
AFNE01.JPG,AFNE01.JPG,AFNE01.JPG,AFNE01.JPG,AFNE01.JPG,AFNE01.JPG,,,,,,,,,,,,,,,,,5,0,50,9,,,,,,,AFSA16.jpg,AFNE11.jpg,AFSA13.jpg,AFNE08.jpg,AFNE08.jpg,FN,3,num_4,16,num_4,0.116694822209,,,2017_May_09_1447,60.0078720309,FEMA4ImagesEEG,001,100366,
AFNE01.JPG,AFNE01.JPG,AFNE01.JPG,AFNE01.JPG,AFNE01.JPG,AFNE01.JPG,,,,,,,,,,,,,,,,,5,1,51,8,,,,,,,AFSA12.jpg,AFNE10.jpg,AFNE09.jpg,AFSA07.jpg,AFSA07.jpg,FS,4,num_4,32,num_8,1.06670378707,,,2017_May_09_1447,60.0078720309,FEMA4ImagesEEG,001,100366,
AFNE01.JPG,AFNE01.JPG,AFNE01.JPG,AFNE01.JPG,AFNE01.JPG,AFNE01.JPG,,,,,,,,,,,,,,,,,5,2,52,5,,,,,,,AFNE18.jpg,AFNE01.jpg,AFSA17.jpg,AFSA09.jpg,AFNE18.jpg,FN,3,num_8,32,num_6,1.10000099428,,,2017_May_09_1447,60.0078720309,FEMA4ImagesEEG,001,100366,
AFNE01.JPG,AFNE01.JPG,AFNE01.JPG,AFNE01.JPG,AFNE01.JPG,AFNE01.JPG,,,,,,,,,,,,,,,,,5,3,53,1,,,,,,,AFNE02.jpg,AFSA11.jpg,AFNE05.jpg,AFSA14.jpg,AFSA11.jpg,FS,4,num_6,16,num_6,1.06678557536,,,2017_May_09_1447,60.0078720309,FEMA4ImagesEEG,001,100366,
AFNE01.JPG,AFNE01.JPG,AFNE01.JPG,AFNE01.JPG,AFNE01.JPG,AFNE01.JPG,,,,,,,,,,,,,,,,,5,4,54,3,,,,,,,AFNE01.jpg,AFNE03.jpg,AFSA08.jpg,AFSA13.jpg,AFNE03.jpg,FN,3,num_6,16,num_6,3.43324633827,,,2017_May_09_1447,60.0078720309,FEMA4ImagesEEG,001,100366,
AFNE01.JPG,AFNE01.JPG,AFNE01.JPG,AFNE01.JPG,AFNE01.JPG,AFNE01.JPG,,,,,,,,,,,,,,,,,5,5,55,0,,,,,,,AFSA11.jpg,AFSA10.jpg,AFNE13.jpg,AFNE09.jpg,AFSA10.jpg,FS,4,num_6,16,num_6,0.46675555408,,,2017_May_09_1447,60.0078720309,FEMA4ImagesEEG,001,100366,
AFNE01.JPG,AFNE01.JPG,AFNE01.JPG,AFNE01.JPG,AFNE01.JPG,AFNE01.JPG,,,,,,,,,,,,,,,,,5,6,56,4,,,,,,,AFNE16.jpg,AFSA11.jpg,AFSA12.jpg,AFNE17.jpg,AFNE16.jpg,FN,3,num_8,32,num_4,0.783458779799,,,2017_May_09_1447,60.0078720309,FEMA4ImagesEEG,001,100366,
AFNE01.JPG,AFNE01.JPG,AFNE01.JPG,AFNE01.JPG,AFNE01.JPG,AFNE01.JPG,,,,,,,,,,,,,,,,,5,7,57,7,,,,,,,AFNE13.jpg,AFNE04.jpg,AFSA09.jpg,AFSA20.jpg,AFNE04.jpg,FN,3,num_6,32,num_2,1.01673103357,,,2017_May_09_1447,60.0078720309,FEMA4ImagesEEG,001,100366,
AFNE01.JPG,AFNE01.JPG,AFNE01.JPG,AFNE01.JPG,AFNE01.JPG,AFNE01.JPG,,,,,,,,,,,,,,,,,5,8,58,2,,,,,,,AFSA13.jpg,AFNE14.jpg,AFNE07.jpg,AFSA06.jpg,AFSA13.jpg,FS,4,num_8,32,num_6,0.550129434327,,,2017_May_09_1447,60.0078720309,FEMA4ImagesEEG,001,100366,
AFNE01.JPG,AFNE01.JPG,AFNE01.JPG,AFNE01.JPG,AFNE01.JPG,AFNE01.JPG,,,,,,,,,,,,,,,,,5,9,59,6,,,,,,,AFNE13.jpg,AFSA04.jpg,AFSA16.jpg,AFNE09.jpg,AFNE13.jpg,FN,3,num_8,32,num_4,0.816762722796,,,2017_May_09_1447,60.0078720309,FEMA4ImagesEEG,001,100366,
,,,,,,,,,,,,,,,,,,,,,,,,,,,,,,,,,,,,,,,,,,,space,54.3125352212,2017_May_09_1447,60.0078720309,FEMA4ImagesEEG,001,100366,
AFNE01.JPG,AFNE01.JPG,AFNE01.JPG,AFNE01.JPG,AFNE01.JPG,AFNE01.JPG,,,,,,,,,,,,,,,,,,,,,0,0,0,6,,,AMSA10.jpg,AMSA09.jpg,AMNE10.jpg,AMNE03.jpg,AMNE10.jpg,MN,1,num_2,32,num_8,0.916748000775,,,2017_May_09_1447,60.0078720309,FEMA4ImagesEEG,001,100366,
AFNE01.JPG,AFNE01.JPG,AFNE01.JPG,AFNE01.JPG,AFNE01.JPG,AFNE01.JPG,,,,,,,,,,,,,,,,,,,,,0,1,1,7,,,AMSA14.jpg,AMNE17.jpg,AMSA11.jpg,AMNE16.jpg,AMSA11.jpg,MS,2,num_2,16,num_2,0.683543422725,,,2017_May_09_1447,60.0078720309,FEMA4ImagesEEG,001,100366,
AFNE01.JPG,AFNE01.JPG,AFNE01.JPG,AFNE01.JPG,AFNE01.JPG,AFNE01.JPG,,,,,,,,,,,,,,,,,,,,,0,2,2,0,,,AMNE04.jpg,AMSA10.jpg,AMSA15.jpg,AMNE05.jpg,AMNE04.jpg,MN,1,num_8,16,num_8,0.60014869459,,,2017_May_09_1447,60.0078720309,FEMA4ImagesEEG,001,100366,
AFNE01.JPG,AFNE01.JPG,AFNE01.JPG,AFNE01.JPG,AFNE01.JPG,AFNE01.JPG,,,,,,,,,,,,,,,,,,,,,0,3,3,9,,,AMSA20.jpg,AMSA12.jpg,AMNE03.jpg,AMNE12.jpg,AMSA20.jpg,MS,2,num_8,32,num_4,1.24999334454,,,2017_May_09_1447,60.0078720309,FEMA4ImagesEEG,001,100366,
AFNE01.JPG,AFNE01.JPG,AFNE01.JPG,AFNE01.JPG,AFNE01.JPG,AFNE01.JPG,,,,,,,,,,,,,,,,,,,,,0,4,4,2,,,AMNE07.jpg,AMSA16.jpg,AMNE02.jpg,AMSA14.jpg,AMSA16.jpg,MS,2,num_6,16,num_6,0.766761102946,,,2017_May_09_1447,60.0078720309,FEMA4ImagesEEG,001,100366,
AFNE01.JPG,AFNE01.JPG,AFNE01.JPG,AFNE01.JPG,AFNE01.JPG,AFNE01.JPG,,,,,,,,,,,,,,,,,,,,,0,5,5,3,,,AMNE08.jpg,AMNE20.jpg,AMSA18.jpg,AMSA15.jpg,AMNE08.jpg,MN,1,num_8,16,num_8,0.750150667271,,,2017_May_09_1447,60.0078720309,FEMA4ImagesEEG,001,100366,
AFNE01.JPG,AFNE01.JPG,AFNE01.JPG,AFNE01.JPG,AFNE01.JPG,AFNE01.JPG,,,,,,,,,,,,,,,,,,,,,0,6,6,5,,,AMSA15.jpg,AMSA06.jpg,AMNE17.jpg,AMNE09.jpg,AMSA06.jpg,MS,2,num_6,32,num_4,0.683488576207,,,2017_May_09_1447,60.0078720309,FEMA4ImagesEEG,001,100366,
AFNE01.JPG,AFNE01.JPG,AFNE01.JPG,AFNE01.JPG,AFNE01.JPG,AFNE01.JPG,,,,,,,,,,,,,,,,,,,,,0,7,7,4,,,AMNE06.jpg,AMSA13.jpg,AMSA15.jpg,AMNE13.jpg,AMSA13.jpg,MS,2,num_6,32,num_4,0.516778984107,,,2017_May_09_1447,60.0078720309,FEMA4ImagesEEG,001,100366,
AFNE01.JPG,AFNE01.JPG,AFNE01.JPG,AFNE01.JPG,AFNE01.JPG,AFNE01.JPG,,,,,,,,,,,,,,,,,,,,,0,8,8,8,,,AMSA02.jpg,AMNE09.jpg,AMSA18.jpg,AMNE18.jpg,AMSA02.jpg,MS,2,num_8,32,num_2,1.00010007061,,,2017_May_09_1447,60.0078720309,FEMA4ImagesEEG,001,100366,
AFNE01.JPG,AFNE01.JPG,AFNE01.JPG,AFNE01.JPG,AFNE01.JPG,AFNE01.JPG,,,,,,,,,,,,,,,,,,,,,0,9,9,1,,,AMNE20.jpg,AMSA02.jpg,AMNE10.jpg,AMSA14.jpg,AMSA02.jpg,MS,2,num_6,32,num_4,0.916864108294,,,2017_May_09_1447,60.0078720309,FEMA4ImagesEEG,001,100366,
AFNE01.JPG,AFNE01.JPG,AFNE01.JPG,AFNE01.JPG,AFNE01.JPG,AFNE01.JPG,,,,,,,,,,,,,,,,,,,,,1,0,10,6,,,AMNE19.jpg,AMNE18.jpg,AMSA04.jpg,AMSA19.jpg,AMSA04.jpg,MS,2,num_2,16,num_2,1.50002357434,,,2017_May_09_1447,60.0078720309,FEMA4ImagesEEG,001,100366,
AFNE01.JPG,AFNE01.JPG,AFNE01.JPG,AFNE01.JPG,AFNE01.JPG,AFNE01.JPG,,,,,,,,,,,,,,,,,,,,,1,1,11,3,,,AMSA06.jpg,AMSA13.jpg,AMNE09.jpg,AMNE11.jpg,AMNE11.jpg,MN,1,num_4,16,num_4,0.466756516369,,,2017_May_09_1447,60.0078720309,FEMA4ImagesEEG,001,100366,
AFNE01.JPG,AFNE01.JPG,AFNE01.JPG,AFNE01.JPG,AFNE01.JPG,AFNE01.JPG,,,,,,,,,,,,,,,,,,,,,1,2,12,2,,,AMSA03.jpg,AMSA14.jpg,AMNE20.jpg,AMNE13.jpg,AMNE13.jpg,MN,1,num_4,32,num_8,1.00006735511,,,2017_May_09_1447,60.0078720309,FEMA4ImagesEEG,001,100366,
AFNE01.JPG,AFNE01.JPG,AFNE01.JPG,AFNE01.JPG,AFNE01.JPG,AFNE01.JPG,,,,,,,,,,,,,,,,,,,,,1,3,13,7,,,AMNE19.jpg,AMSA07.jpg,AMSA16.jpg,AMNE16.jpg,AMNE16.jpg,MN,1,num_4,32,num_2,1.91666621226,,,2017_May_09_1447,60.0078720309,FEMA4ImagesEEG,001,100366,
AFNE01.JPG,AFNE01.JPG,AFNE01.JPG,AFNE01.JPG,AFNE01.JPG,AFNE01.JPG,,,,,,,,,,,,,,,,,,,,,1,4,14,1,,,AMNE02.jpg,AMSA09.jpg,AMSA18.jpg,AMNE07.jpg,AMSA09.jpg,MS,2,num_6,16,num_6,0.933446960524,,,2017_May_09_1447,60.0078720309,FEMA4ImagesEEG,001,100366,
AFNE01.JPG,AFNE01.JPG,AFNE01.JPG,AFNE01.JPG,AFNE01.JPG,AFNE01.JPG,,,,,,,,,,,,,,,,,,,,,1,5,15,4,,,AMNE18.jpg,AMSA10.jpg,AMSA07.jpg,AMNE09.jpg,AMSA10.jpg,MS,2,num_6,32,num_4,0.816755345557,,,2017_May_09_1447,60.0078720309,FEMA4ImagesEEG,001,100366,
AFNE01.JPG,AFNE01.JPG,AFNE01.JPG,AFNE01.JPG,AFNE01.JPG,AFNE01.JPG,,,,,,,,,,,,,,,,,,,,,1,6,16,8,,,AMSA11.jpg,AMSA19.jpg,AMNE15.jpg,AMNE18.jpg,AMNE15.jpg,MN,1,num_2,32,num_6,0.733522590715,,,2017_May_09_1447,60.0078720309,FEMA4ImagesEEG,001,100366,
AFNE01.JPG,AFNE01.JPG,AFNE01.JPG,AFNE01.JPG,AFNE01.JPG,AFNE01.JPG,,,,,,,,,,,,,,,,,,,,,1,7,17,9,,,AMNE09.jpg,AMNE18.jpg,AMSA16.jpg,AMSA20.jpg,AMSA20.jpg,MS,2,num_4,32,num_8,1.28340730094,,,2017_May_09_1447,60.0078720309,FEMA4ImagesEEG,001,100366,
AFNE01.JPG,AFNE01.JPG,AFNE01.JPG,AFNE01.JPG,AFNE01.JPG,AFNE01.JPG,,,,,,,,,,,,,,,,,,,,,1,8,18,5,,,AMNE05.jpg,AMNE14.jpg,AMSA16.jpg,AMSA01.jpg,AMSA01.jpg,MS,2,num_4,32,num_8,1.36671991996,,,2017_May_09_1447,60.0078720309,FEMA4ImagesEEG,001,100366,
AFNE01.JPG,AFNE01.JPG,AFNE01.JPG,AFNE01.JPG,AFNE01.JPG,AFNE01.JPG,,,,,,,,,,,,,,,,,,,,,1,9,19,0,,,AMSA05.jpg,AMNE14.jpg,AMSA11.jpg,AMNE20.jpg,AMSA11.jpg,MS,2,num_2,16,num_2,1.34993339842,,,2017_May_09_1447,60.0078720309,FEMA4ImagesEEG,001,100366,
AFNE01.JPG,AFNE01.JPG,AFNE01.JPG,AFNE01.JPG,AFNE01.JPG,AFNE01.JPG,,,,,,,,,,,,,,,,,,,,,2,0,20,4,,,AMNE18.jpg,AMSA17.jpg,AMSA14.jpg,AMNE19.jpg,AMSA14.jpg,MS,2,num_2,16,num_2,0.866625462426,,,2017_May_09_1447,60.0078720309,FEMA4ImagesEEG,001,100366,
AFNE01.JPG,AFNE01.JPG,AFNE01.JPG,AFNE01.JPG,AFNE01.JPG,AFNE01.JPG,,,,,,,,,,,,,,,,,,,,,2,1,21,8,,,AMSA08.jpg,AMNE07.jpg,AMSA01.jpg,AMNE11.jpg,AMNE07.jpg,MN,1,num_6,16,num_6,2.64995915396,,,2017_May_09_1447,60.0078720309,FEMA4ImagesEEG,001,100366,
AFNE01.JPG,AFNE01.JPG,AFNE01.JPG,AFNE01.JPG,AFNE01.JPG,AFNE01.JPG,,,,,,,,,,,,,,,,,,,,,2,2,22,0,,,AMNE08.jpg,AMNE12.jpg,AMSA14.jpg,AMSA02.jpg,AMSA02.jpg,MS,2,num_4,32,num_6,0.766751480754,,,2017_May_09_1447,60.0078720309,FEMA4ImagesEEG,001,100366,
AFNE01.JPG,AFNE01.JPG,AFNE01.JPG,AFNE01.JPG,AFNE01.JPG,AFNE01.JPG,,,,,,,,,,,,,,,,,,,,,2,3,23,1,,,AMNE18.jpg,AMSA11.jpg,AMNE20.jpg,AMSA05.jpg,AMNE18.jpg,MN,1,num_8,16,num_8,0.633434034884,,,2017_May_09_1447,60.0078720309,FEMA4ImagesEEG,001,100366,
AFNE01.JPG,AFNE01.JPG,AFNE01.JPG,AFNE01.JPG,AFNE01.JPG,AFNE01.JPG,,,,,,,,,,,,,,,,,,,,,2,4,24,6,,,AMSA04.jpg,AMNE02.jpg,AMSA03.jpg,AMNE20.jpg,AMSA04.jpg,MS,2,num_8,32,num_6,0.533444266301,,,2017_May_09_1447,60.0078720309,FEMA4ImagesEEG,001,100366,
AFNE01.JPG,AFNE01.JPG,AFNE01.JPG,AFNE01.JPG,AFNE01.JPG,AFNE01.JPG,,,,,,,,,,,,,,,,,,,,,2,5,25,9,,,AMSA14.jpg,AMNE07.jpg,AMSA01.jpg,AMNE17.jpg,AMSA01.jpg,MS,2,num_2,16,num_2,0.466761006741,,,2017_May_09_1447,60.0078720309,FEMA4ImagesEEG,001,100366,
AFNE01.JPG,AFNE01.JPG,AFNE01.JPG,AFNE01.JPG,AFNE01.JPG,AFNE01.JPG,,,,,,,,,,,,,,,,,,,,,2,6,26,7,,,AMNE03.jpg,AMNE10.jpg,AMSA16.jpg,AMSA20.jpg,AMSA16.jpg,MS,2,num_2,16,num_2,0.966581553221,,,2017_May_09_1447,60.0078720309,FEMA4ImagesEEG,001,100366,
AFNE01.JPG,AFNE01.JPG,AFNE01.JPG,AFNE01.JPG,AFNE01.JPG,AFNE01.JPG,,,,,,,,,,,,,,,,,,,,,2,7,27,5,,,AMNE14.jpg,AMSA06.jpg,AMNE06.jpg,AMSA09.jpg,AMNE06.jpg,MN,1,num_2,32,num_6,0.766785479151,,,2017_May_09_1447,60.0078720309,FEMA4ImagesEEG,001,100366,
AFNE01.JPG,AFNE01.JPG,AFNE01.JPG,AFNE01.JPG,AFNE01.JPG,AFNE01.JPG,,,,,,,,,,,,,,,,,,,,,2,8,28,3,,,AMNE05.jpg,AMNE16.jpg,AMSA09.jpg,AMSA15.jpg,AMSA09.jpg,MS,2,num_2,32,num_8,1.36674044747,,,2017_May_09_1447,60.0078720309,FEMA4ImagesEEG,001,100366,
AFNE01.JPG,AFNE01.JPG,AFNE01.JPG,AFNE01.JPG,AFNE01.JPG,AFNE01.JPG,,,,,,,,,,,,,,,,,,,,,2,9,29,2,,,AMNE05.jpg,AMSA03.jpg,AMNE09.jpg,AMSA14.jpg,AMNE09.jpg,MN,1,num_2,32,num_8,0.550167281413,,,2017_May_09_1447,60.0078720309,FEMA4ImagesEEG,001,100366,
AFNE01.JPG,AFNE01.JPG,AFNE01.JPG,AFNE01.JPG,AFNE01.JPG,AFNE01.JPG,,,,,,,,,,,,,,,,,,,,,3,0,30,2,,,AMSA06.jpg,AMNE04.jpg,AMNE03.jpg,AMSA08.jpg,AMNE04.jpg,MN,1,num_6,32,num_8,0.0500304861926,,,2017_May_09_1447,60.0078720309,FEMA4ImagesEEG,001,100366,
AFNE01.JPG,AFNE01.JPG,AFNE01.JPG,AFNE01.JPG,AFNE01.JPG,AFNE01.JPG,,,,,,,,,,,,,,,,,,,,,3,1,31,5,,,AMNE03.jpg,AMNE20.jpg,AMSA07.jpg,AMSA20.jpg,AMSA20.jpg,MS,2,num_4,16,num_4,0.733423482394,,,2017_May_09_1447,60.0078720309,FEMA4ImagesEEG,001,100366,
AFNE01.JPG,AFNE01.JPG,AFNE01.JPG,AFNE01.JPG,AFNE01.JPG,AFNE01.JPG,,,,,,,,,,,,,,,,,,,,,3,2,32,3,,,AMNE16.jpg,AMSA01.jpg,AMNE03.jpg,AMSA08.jpg,AMNE03.jpg,MN,1,num_2,32,num_8,0.750121800695,,,2017_May_09_1447,60.0078720309,FEMA4ImagesEEG,001,100366,
AFNE01.JPG,AFNE01.JPG,AFNE01.JPG,AFNE01.JPG,AFNE01.JPG,AFNE01.JPG,,,,,,,,,,,,,,,,,,,,,3,3,33,4,,,AMNE06.jpg,AMSA03.jpg,AMNE01.jpg,AMSA07.jpg,AMNE01.jpg,MN,1,num_2,16,num_2,0.516708421521,,,2017_May_09_1447,60.0078720309,FEMA4ImagesEEG,001,100366,
AFNE01.JPG,AFNE01.JPG,AFNE01.JPG,AFNE01.JPG,AFNE01.JPG,AFNE01.JPG,,,,,,,,,,,,,,,,,,,,,3,4,34,0,,,AMSA09.jpg,AMSA19.jpg,AMNE16.jpg,AMNE02.jpg,AMSA09.jpg,MS,2,num_8,32,num_6,0.850228959462,,,2017_May_09_1447,60.0078720309,FEMA4ImagesEEG,001,100366,
AFNE01.JPG,AFNE01.JPG,AFNE01.JPG,AFNE01.JPG,AFNE01.JPG,AFNE01.JPG,,,,,,,,,,,,,,,,,,,,,3,5,35,7,,,AMSA10.jpg,AMNE09.jpg,AMSA17.jpg,AMNE04.jpg,AMSA10.jpg,MS,2,num_8,32,num_6,1.26675484842,,,2017_May_09_1447,60.0078720309,FEMA4ImagesEEG,001,100366,
AFNE01.JPG,AFNE01.JPG,AFNE01.JPG,AFNE01.JPG,AFNE01.JPG,AFNE01.JPG,,,,,,,,,,,,,,,,,,,,,3,6,36,6,,,AMNE17.jpg,AMSA11.jpg,AMNE07.jpg,AMSA03.jpg,AMSA03.jpg,MS,2,num_4,32,num_6,0.66681591724,,,2017_May_09_1447,60.0078720309,FEMA4ImagesEEG,001,100366,
AFNE01.JPG,AFNE01.JPG,AFNE01.JPG,AFNE01.JPG,AFNE01.JPG,AFNE01.JPG,,,,,,,,,,,,,,,,,,,,,3,7,37,9,,,AMSA19.jpg,AMSA20.jpg,AMNE16.jpg,AMNE01.jpg,AMSA19.jpg,MS,2,num_8,32,num_6,3.39991769847,,,2017_May_09_1447,60.0078720309,FEMA4ImagesEEG,001,100366,
AFNE01.JPG,AFNE01.JPG,AFNE01.JPG,AFNE01.JPG,AFNE01.JPG,AFNE01.JPG,,,,,,,,,,,,,,,,,,,,,3,8,38,8,,,AMNE02.jpg,AMSA13.jpg,AMNE03.jpg,AMSA03.jpg,AMNE03.jpg,MN,1,num_2,32,num_6,3.55016984744,,,2017_May_09_1447,60.0078720309,FEMA4ImagesEEG,001,100366,
