IPosition2,IPosition3,IPosition1,IPosition6,IPosition4,IPosition5,TrialsF1.thisRepN,TrialsF1.thisTrialN,TrialsF1.thisN,TrialsF1.thisIndex,TrialsM1.thisRepN,TrialsM1.thisTrialN,TrialsM1.thisN,TrialsM1.thisIndex,TrialsF2.thisRepN,TrialsF2.thisTrialN,TrialsF2.thisN,TrialsF2.thisIndex,TrialsM2.thisRepN,TrialsM2.thisTrialN,TrialsM2.thisN,TrialsM2.thisIndex,TrialsF3.thisRepN,TrialsF3.thisTrialN,TrialsF3.thisN,TrialsF3.thisIndex,TrialsM3.thisRepN,TrialsM3.thisTrialN,TrialsM3.thisN,TrialsM3.thisIndex,InstrKey_resp.keys,InstrKey_resp.rt,Image0 _Position,Image1 _Position,Image2 _Position,Image3 _Position,Center_image,condition,code,correct_answer,accuracy,Key_Resp.keys,Key_Resp.rt,BreakKey_resp.keys,BreakKey_resp.rt,date,frameRate,expName,session,participant,
,,,,,,,,,,,,,,,,,,,,,,,,,,,,,,space,24.4152499889,,,,,,,,,,,,,,2017_May_03_1427,60.008218464,FEMA4ImagesEEG,001,100384,
AMSA21.JPG,AMNE22.JPG,AMNE21.JPG,AMSA23.JPG,AMSA22.JPG,AMNE23.JPG,0,0,0,1,,,,,,,,,,,,,,,,,,,,,,,AFNE05.jpg,AFNE04.jpg,AFSA19.jpg,AFSA02.jpg,AFSA02.jpg,FS,4,num_4,32,num_6,1.58336955006,,,2017_May_03_1427,60.008218464,FEMA4ImagesEEG,001,100384,
AFSA21.JPG,AFNE23.JPG,AFNE21.JPG,AFSA25.JPG,AFNE25.JPG,AFSA23.JPG,0,1,1,4,,,,,,,,,,,,,,,,,,,,,,,AFSA16.jpg,AFNE07.jpg,AFNE02.jpg,AFSA19.jpg,AFNE02.jpg,FN,3,num_2,32,num_8,1.23342268053,,,2017_May_03_1427,60.008218464,FEMA4ImagesEEG,001,100384,
AFNE23.JPG,AFNE24.JPG,AFNE22.JPG,AFSA24.JPG,AFSA22.JPG,AFSA23.JPG,0,2,2,8,,,,,,,,,,,,,,,,,,,,,,,AFNE03.jpg,AFSA16.jpg,AFNE14.jpg,AFSA10.jpg,AFSA16.jpg,FS,4,num_6,32,num_2,2.09999425872,,,2017_May_03_1427,60.008218464,FEMA4ImagesEEG,001,100384,
AFSA21.JPG,AFNE22.JPG,AFNE21.JPG,AFSA23.JPG,AFSA22.JPG,AFNE23.JPG,0,3,3,0,,,,,,,,,,,,,,,,,,,,,,,AFNE17.jpg,AFSA10.jpg,AFNE16.jpg,AFSA16.jpg,AFSA10.jpg,FS,4,num_6,16,num_6,1.86665464961,,,2017_May_03_1427,60.008218464,FEMA4ImagesEEG,001,100384,
AMNE23.JPG,AMNE24.JPG,AMNE22.JPG,AMSA24.JPG,AMSA22.JPG,AMSA23.JPG,0,4,4,9,,,,,,,,,,,,,,,,,,,,,,,AFSA15.jpg,AFNE13.jpg,AFNE12.jpg,AFSA18.jpg,AFNE13.jpg,FN,3,num_6,32,num_8,2.2166252539,,,2017_May_03_1427,60.008218464,FEMA4ImagesEEG,001,100384,
AMSA21.JPG,AMNE23.JPG,AMNE21.JPG,AMSA25.JPG,AMNE25.JPG,AMSA23.JPG,0,5,5,5,,,,,,,,,,,,,,,,,,,,,,,AFSA17.jpg,AFNE16.jpg,AFSA15.jpg,AFNE12.jpg,AFSA15.jpg,FS,4,num_2,16,num_2,1.3500607321,,,2017_May_03_1427,60.008218464,FEMA4ImagesEEG,001,100384,
AFNE22.JPG,AFSA24.JPG,AFSA22.JPG,AFNE25.JPG,AFNE24.JPG,AFSA25.JPG,0,6,6,6,,,,,,,,,,,,,,,,,,,,,,,AFNE20.jpg,AFSA16.jpg,AFNE07.jpg,AFSA14.jpg,AFNE07.jpg,FN,3,num_2,16,num_2,1.20046898467,,,2017_May_03_1427,60.008218464,FEMA4ImagesEEG,001,100384,
AMNE22.JPG,AMSA24.JPG,AMSA22.JPG,AMNE25.JPG,AMNE24.JPG,AMSA25.JPG,0,7,7,7,,,,,,,,,,,,,,,,,,,,,,,AFSA01.jpg,AFSA11.jpg,AFNE07.jpg,AFNE20.jpg,AFNE20.jpg,FN,3,num_4,16,num_4,1.16675128834,,,2017_May_03_1427,60.008218464,FEMA4ImagesEEG,001,100384,
AFSA25.JPG,AFNE24.JPG,AFSA24.JPG,AFNE21.JPG,AFSA21.JPG,AFNE25.JPG,0,8,8,2,,,,,,,,,,,,,,,,,,,,,,,AFNE07.jpg,AFNE05.jpg,AFSA20.jpg,AFSA11.jpg,AFNE07.jpg,FN,3,num_8,32,num_6,1.31676352466,,,2017_May_03_1427,60.008218464,FEMA4ImagesEEG,001,100384,
AMSA25.JPG,AMNE24.JPG,AMSA24.JPG,AMNE26.JPG,AMSA21.JPG,AMNE25.JPG,0,9,9,3,,,,,,,,,,,,,,,,,,,,,,,AFNE05.jpg,AFNE11.jpg,AFSA18.jpg,AFSA01.jpg,AFNE11.jpg,FN,3,num_6,32,num_8,1.30009439355,,,2017_May_03_1427,60.008218464,FEMA4ImagesEEG,001,100384,
AMSA21.JPG,AMNE22.JPG,AMNE21.JPG,AMSA23.JPG,AMSA22.JPG,AMNE23.JPG,,,,,0,0,0,1,,,,,,,,,,,,,,,,,,,AMNE17.jpg,AMNE02.jpg,AMSA17.jpg,AMSA13.jpg,AMSA13.jpg,MS,2,num_4,32,num_2,1.94992493116,,,2017_May_03_1427,60.008218464,FEMA4ImagesEEG,001,100384,
AFSA21.JPG,AFNE23.JPG,AFNE21.JPG,AFSA25.JPG,AFNE25.JPG,AFSA23.JPG,,,,,0,1,1,4,,,,,,,,,,,,,,,,,,,AMNE18.jpg,AMNE20.jpg,AMSA01.jpg,AMSA14.jpg,AMSA14.jpg,MS,2,num_4,32,num_6,1.6667116771,,,2017_May_03_1427,60.008218464,FEMA4ImagesEEG,001,100384,
AFNE22.JPG,AFSA24.JPG,AFSA22.JPG,AFNE25.JPG,AFNE24.JPG,AFSA25.JPG,,,,,0,2,2,6,,,,,,,,,,,,,,,,,,,AMSA12.jpg,AMNE12.jpg,AMSA20.jpg,AMNE05.jpg,AMSA20.jpg,MS,2,num_2,32,num_8,0.866725853877,,,2017_May_03_1427,60.008218464,FEMA4ImagesEEG,001,100384,
AMNE22.JPG,AMSA24.JPG,AMSA22.JPG,AMNE25.JPG,AMNE24.JPG,AMSA25.JPG,,,,,0,3,3,7,,,,,,,,,,,,,,,,,,,AMNE01.jpg,AMSA11.jpg,AMSA14.jpg,AMNE11.jpg,AMNE11.jpg,MN,1,num_4,16,num_4,1.10008117906,,,2017_May_03_1427,60.008218464,FEMA4ImagesEEG,001,100384,
AMSA21.JPG,AMNE23.JPG,AMNE21.JPG,AMSA25.JPG,AMNE25.JPG,AMSA23.JPG,,,,,0,4,4,5,,,,,,,,,,,,,,,,,,,AMSA19.jpg,AMSA12.jpg,AMNE02.jpg,AMNE04.jpg,AMSA19.jpg,MS,2,num_8,32,num_6,1.68290675571,,,2017_May_03_1427,60.008218464,FEMA4ImagesEEG,001,100384,
AMNE23.JPG,AMNE24.JPG,AMNE22.JPG,AMSA24.JPG,AMSA22.JPG,AMSA23.JPG,,,,,0,5,5,9,,,,,,,,,,,,,,,,,,,AMSA16.jpg,AMNE17.jpg,AMSA04.jpg,AMNE04.jpg,AMNE17.jpg,MN,1,num_6,32,num_8,1.05013023596,,,2017_May_03_1427,60.008218464,FEMA4ImagesEEG,001,100384,
AFSA25.JPG,AFNE24.JPG,AFSA24.JPG,AFNE21.JPG,AFSA21.JPG,AFNE25.JPG,,,,,0,6,6,2,,,,,,,,,,,,,,,,,,,AMSA19.jpg,AMNE14.jpg,AMSA18.jpg,AMNE09.jpg,AMSA18.jpg,MS,2,num_2,16,num_2,0.966879199026,,,2017_May_03_1427,60.008218464,FEMA4ImagesEEG,001,100384,
AFSA21.JPG,AFNE22.JPG,AFNE21.JPG,AFSA23.JPG,AFSA22.JPG,AFNE23.JPG,,,,,0,7,7,0,,,,,,,,,,,,,,,,,,,AMNE11.jpg,AMNE18.jpg,AMSA18.jpg,AMSA05.jpg,AMSA05.jpg,MS,2,num_4,16,num_4,2.6499780775,,,2017_May_03_1427,60.008218464,FEMA4ImagesEEG,001,100384,
AMSA25.JPG,AMNE24.JPG,AMSA24.JPG,AMNE26.JPG,AMSA21.JPG,AMNE25.JPG,,,,,0,8,8,3,,,,,,,,,,,,,,,,,,,AMSA02.jpg,AMNE03.jpg,AMSA04.jpg,AMNE16.jpg,AMSA04.jpg,MS,2,num_2,16,num_2,1.31678244821,,,2017_May_03_1427,60.008218464,FEMA4ImagesEEG,001,100384,
AFNE23.JPG,AFNE24.JPG,AFNE22.JPG,AFSA24.JPG,AFSA22.JPG,AFSA23.JPG,,,,,0,9,9,8,,,,,,,,,,,,,,,,,,,AMSA05.jpg,AMSA08.jpg,AMNE05.jpg,AMNE08.jpg,AMSA05.jpg,MS,2,num_8,32,num_6,1.56667091115,,,2017_May_03_1427,60.008218464,FEMA4ImagesEEG,001,100384,
AMNE22.JPG,AMSA24.JPG,AMSA22.JPG,AMNE25.JPG,AMNE24.JPG,AMSA25.JPG,,,,,,,,,0,0,0,7,,,,,,,,,,,,,,,AFNE16.jpg,AFSA11.jpg,AFSA04.jpg,AFNE03.jpg,AFSA11.jpg,FS,4,num_6,32,num_8,1.49993921979,,,2017_May_03_1427,60.008218464,FEMA4ImagesEEG,001,100384,
AMSA21.JPG,AMNE22.JPG,AMNE21.JPG,AMSA23.JPG,AMSA22.JPG,AMNE23.JPG,,,,,,,,,0,1,1,1,,,,,,,,,,,,,,,AFNE20.jpg,AFSA10.jpg,AFNE02.jpg,AFSA05.jpg,AFSA05.jpg,FS,4,num_4,16,num_4,1.51669655438,,,2017_May_03_1427,60.008218464,FEMA4ImagesEEG,001,100384,
AFNE23.JPG,AFNE24.JPG,AFNE22.JPG,AFSA24.JPG,AFSA22.JPG,AFSA23.JPG,,,,,,,,,0,2,2,8,,,,,,,,,,,,,,,AFNE20.jpg,AFNE03.jpg,AFSA01.jpg,AFSA18.jpg,AFSA01.jpg,FS,4,num_2,32,num_6,2.30004179245,,,2017_May_03_1427,60.008218464,FEMA4ImagesEEG,001,100384,
AFSA21.JPG,AFNE22.JPG,AFNE21.JPG,AFSA23.JPG,AFSA22.JPG,AFNE23.JPG,,,,,,,,,0,3,3,0,,,,,,,,,,,,,,,AFSA03.jpg,AFNE13.jpg,AFSA10.jpg,AFNE15.jpg,AFSA03.jpg,FS,4,num_8,32,num_6,1.48348819162,,,2017_May_03_1427,60.008218464,FEMA4ImagesEEG,001,100384,
AFSA25.JPG,AFNE24.JPG,AFSA24.JPG,AFNE21.JPG,AFSA21.JPG,AFNE25.JPG,,,,,,,,,0,4,4,2,,,,,,,,,,,,,,,AFSA11.jpg,AFNE20.jpg,AFNE13.jpg,AFSA18.jpg,AFSA11.jpg,FS,4,num_8,16,num_8,1.18341079727,,,2017_May_03_1427,60.008218464,FEMA4ImagesEEG,001,100384,
AMSA21.JPG,AMNE23.JPG,AMNE21.JPG,AMSA25.JPG,AMNE25.JPG,AMSA23.JPG,,,,,,,,,0,5,5,5,,,,,,,,,,,,,,,AFSA05.jpg,AFNE11.jpg,AFNE06.jpg,AFSA17.jpg,AFSA17.jpg,FS,4,num_4,32,num_2,1.41676965053,,,2017_May_03_1427,60.008218464,FEMA4ImagesEEG,001,100384,
AMSA25.JPG,AMNE24.JPG,AMSA24.JPG,AMNE26.JPG,AMSA21.JPG,AMNE25.JPG,,,,,,,,,0,6,6,3,,,,,,,,,,,,,,,AFSA04.jpg,AFNE14.jpg,AFNE05.jpg,AFSA07.jpg,AFNE05.jpg,FN,3,num_2,16,num_2,1.56676135957,,,2017_May_03_1427,60.008218464,FEMA4ImagesEEG,001,100384,
AMNE23.JPG,AMNE24.JPG,AMNE22.JPG,AMSA24.JPG,AMSA22.JPG,AMSA23.JPG,,,,,,,,,0,7,7,9,,,,,,,,,,,,,,,AFNE09.jpg,AFSA05.jpg,AFNE19.jpg,AFSA15.jpg,AFNE09.jpg,FN,3,num_8,32,num_2,3.0833491832,,,2017_May_03_1427,60.008218464,FEMA4ImagesEEG,001,100384,
AFSA21.JPG,AFNE23.JPG,AFNE21.JPG,AFSA25.JPG,AFNE25.JPG,AFSA23.JPG,,,,,,,,,0,8,8,4,,,,,,,,,,,,,,,AFNE16.jpg,AFSA16.jpg,AFSA20.jpg,AFNE10.jpg,AFNE10.jpg,FN,3,num_4,16,num_4,0.866665234091,,,2017_May_03_1427,60.008218464,FEMA4ImagesEEG,001,100384,
AFNE22.JPG,AFSA24.JPG,AFSA22.JPG,AFNE25.JPG,AFNE24.JPG,AFSA25.JPG,,,,,,,,,0,9,9,6,,,,,,,,,,,,,,,AFSA07.jpg,AFSA15.jpg,AFNE15.jpg,AFNE01.jpg,AFSA15.jpg,FS,4,num_6,32,num_4,1.3667131844,,,2017_May_03_1427,60.008218464,FEMA4ImagesEEG,001,100384,
AFSA25.JPG,AFNE24.JPG,AFSA24.JPG,AFNE21.JPG,AFSA21.JPG,AFNE25.JPG,,,,,,,,,,,,,0,0,0,2,,,,,,,,,,,AMNE01.jpg,AMSA06.jpg,AMSA15.jpg,AMNE04.jpg,AMSA15.jpg,MS,2,num_2,32,num_6,2.56663402612,,,2017_May_03_1427,60.008218464,FEMA4ImagesEEG,001,100384,
AMSA21.JPG,AMNE22.JPG,AMNE21.JPG,AMSA23.JPG,AMSA22.JPG,AMNE23.JPG,,,,,,,,,,,,,0,1,1,1,,,,,,,,,,,AMNE12.jpg,AMSA13.jpg,AMNE07.jpg,AMSA15.jpg,AMNE07.jpg,MN,1,num_2,32,num_6,1.29999079462,,,2017_May_03_1427,60.008218464,FEMA4ImagesEEG,001,100384,
AFSA21.JPG,AFNE22.JPG,AFNE21.JPG,AFSA23.JPG,AFSA22.JPG,AFNE23.JPG,,,,,,,,,,,,,0,2,2,0,,,,,,,,,,,AMNE18.jpg,AMNE07.jpg,AMSA20.jpg,AMSA17.jpg,AMNE07.jpg,MN,1,num_6,32,num_8,1.31669392413,,,2017_May_03_1427,60.008218464,FEMA4ImagesEEG,001,100384,
AMSA21.JPG,AMNE23.JPG,AMNE21.JPG,AMSA25.JPG,AMNE25.JPG,AMSA23.JPG,,,,,,,,,,,,,0,3,3,5,,,,,,,,,,,AMNE05.jpg,AMNE15.jpg,AMSA15.jpg,AMSA02.jpg,AMSA02.jpg,MS,2,num_4,16,num_4,1.50007489254,,,2017_May_03_1427,60.008218464,FEMA4ImagesEEG,001,100384,
AMNE23.JPG,AMNE24.JPG,AMNE22.JPG,AMSA24.JPG,AMSA22.JPG,AMSA23.JPG,,,,,,,,,,,,,0,4,4,9,,,,,,,,,,,AMNE15.jpg,AMSA01.jpg,AMNE18.jpg,AMSA19.jpg,AMSA01.jpg,MS,2,num_6,16,num_6,0.583442678442,,,2017_May_03_1427,60.008218464,FEMA4ImagesEEG,001,100384,
AFNE23.JPG,AFNE24.JPG,AFNE22.JPG,AFSA24.JPG,AFSA22.JPG,AFSA23.JPG,,,,,,,,,,,,,0,5,5,8,,,,,,,,,,,AMNE20.jpg,AMSA09.jpg,AMSA07.jpg,AMNE09.jpg,AMNE20.jpg,MN,1,num_8,16,num_8,0.9334431116,,,2017_May_03_1427,60.008218464,FEMA4ImagesEEG,001,100384,
AMSA25.JPG,AMNE24.JPG,AMSA24.JPG,AMNE26.JPG,AMSA21.JPG,AMNE25.JPG,,,,,,,,,,,,,0,6,6,3,,,,,,,,,,,AMSA14.jpg,AMSA04.jpg,AMNE04.jpg,AMNE06.jpg,AMNE06.jpg,MN,1,num_4,32,num_2,0.717088561505,,,2017_May_03_1427,60.008218464,FEMA4ImagesEEG,001,100384,
AMNE22.JPG,AMSA24.JPG,AMSA22.JPG,AMNE25.JPG,AMNE24.JPG,AMSA25.JPG,,,,,,,,,,,,,0,7,7,7,,,,,,,,,,,AMNE10.jpg,AMSA05.jpg,AMSA09.jpg,AMNE03.jpg,AMNE03.jpg,MN,1,num_4,32,num_8,1.66668922547,,,2017_May_03_1427,60.008218464,FEMA4ImagesEEG,001,100384,
AFSA21.JPG,AFNE23.JPG,AFNE21.JPG,AFSA25.JPG,AFNE25.JPG,AFSA23.JPG,,,,,,,,,,,,,0,8,8,4,,,,,,,,,,,AMSA02.jpg,AMNE05.jpg,AMSA17.jpg,AMNE19.jpg,AMNE05.jpg,MN,1,num_6,32,num_4,0.78348957072,,,2017_May_03_1427,60.008218464,FEMA4ImagesEEG,001,100384,
AFNE22.JPG,AFSA24.JPG,AFSA22.JPG,AFNE25.JPG,AFNE24.JPG,AFSA25.JPG,,,,,,,,,,,,,0,9,9,6,,,,,,,,,,,AMSA04.jpg,AMNE02.jpg,AMNE03.jpg,AMSA11.jpg,AMNE03.jpg,MN,1,num_2,16,num_2,1.23341337917,,,2017_May_03_1427,60.008218464,FEMA4ImagesEEG,001,100384,
AFNE22.JPG,AFSA24.JPG,AFSA22.JPG,AFNE25.JPG,AFNE24.JPG,AFSA25.JPG,,,,,,,,,,,,,,,,,0,0,0,6,,,,,,,AFSA08.jpg,AFNE18.jpg,AFNE10.jpg,AFSA05.jpg,AFNE18.jpg,FN,3,num_6,16,num_6,1.66668858379,,,2017_May_03_1427,60.008218464,FEMA4ImagesEEG,001,100384,
AMNE22.JPG,AMSA24.JPG,AMSA22.JPG,AMNE25.JPG,AMNE24.JPG,AMSA25.JPG,,,,,,,,,,,,,,,,,0,1,1,7,,,,,,,AFNE02.jpg,AFSA17.jpg,AFNE17.jpg,AFSA11.jpg,AFSA11.jpg,FS,4,num_4,32,num_8,1.08341397252,,,2017_May_03_1427,60.008218464,FEMA4ImagesEEG,001,100384,
AFSA25.JPG,AFNE24.JPG,AFSA24.JPG,AFNE21.JPG,AFSA21.JPG,AFNE25.JPG,,,,,,,,,,,,,,,,,0,2,2,2,,,,,,,AFSA20.jpg,AFSA08.jpg,AFNE13.jpg,AFNE06.jpg,AFSA20.jpg,FS,4,num_8,32,num_2,3.94987297128,,,2017_May_03_1427,60.008218464,FEMA4ImagesEEG,001,100384,
AFSA21.JPG,AFNE22.JPG,AFNE21.JPG,AFSA23.JPG,AFSA22.JPG,AFNE23.JPG,,,,,,,,,,,,,,,,,0,3,3,0,,,,,,,AFNE17.jpg,AFSA20.jpg,AFNE16.jpg,AFSA17.jpg,AFSA17.jpg,FS,4,num_4,16,num_4,1.11676602624,,,2017_May_03_1427,60.008218464,FEMA4ImagesEEG,001,100384,
AFNE23.JPG,AFNE24.JPG,AFNE22.JPG,AFSA24.JPG,AFSA22.JPG,AFSA23.JPG,,,,,,,,,,,,,,,,,0,4,4,8,,,,,,,AFNE17.jpg,AFSA13.jpg,AFSA05.jpg,AFNE16.jpg,AFNE17.jpg,FN,3,num_8,16,num_8,1.13344445871,,,2017_May_03_1427,60.008218464,FEMA4ImagesEEG,001,100384,
AFSA21.JPG,AFNE23.JPG,AFNE21.JPG,AFSA25.JPG,AFNE25.JPG,AFSA23.JPG,,,,,,,,,,,,,,,,,0,5,5,4,,,,,,,AFNE10.jpg,AFSA18.jpg,AFNE09.jpg,AFSA07.jpg,AFNE10.jpg,FN,3,num_8,32,num_2,1.58323804708,,,2017_May_03_1427,60.008218464,FEMA4ImagesEEG,001,100384,
AMSA21.JPG,AMNE22.JPG,AMNE21.JPG,AMSA23.JPG,AMSA22.JPG,AMNE23.JPG,,,,,,,,,,,,,,,,,0,6,6,1,,,,,,,AFSA08.jpg,AFSA14.jpg,AFNE06.jpg,AFNE04.jpg,AFNE04.jpg,FN,3,num_4,32,num_6,1.46675298829,,,2017_May_03_1427,60.008218464,FEMA4ImagesEEG,001,100384,
AMSA25.JPG,AMNE24.JPG,AMSA24.JPG,AMNE26.JPG,AMSA21.JPG,AMNE25.JPG,,,,,,,,,,,,,,,,,0,7,7,3,,,,,,,AFSA04.jpg,AFNE06.jpg,AFSA16.jpg,AFNE08.jpg,AFNE06.jpg,FN,3,num_6,32,num_8,1.08344155597,,,2017_May_03_1427,60.008218464,FEMA4ImagesEEG,001,100384,
AMNE23.JPG,AMNE24.JPG,AMNE22.JPG,AMSA24.JPG,AMSA22.JPG,AMSA23.JPG,,,,,,,,,,,,,,,,,0,8,8,9,,,,,,,AFNE08.jpg,AFSA09.jpg,AFSA03.jpg,AFNE16.jpg,AFNE16.jpg,FN,3,num_4,16,num_4,0.816731931875,,,2017_May_03_1427,60.008218464,FEMA4ImagesEEG,001,100384,
AMSA21.JPG,AMNE23.JPG,AMNE21.JPG,AMSA25.JPG,AMNE25.JPG,AMSA23.JPG,,,,,,,,,,,,,,,,,0,9,9,5,,,,,,,AFNE16.jpg,AFNE01.jpg,AFSA11.jpg,AFSA05.jpg,AFNE16.jpg,FN,3,num_8,32,num_6,0.750159006333,,,2017_May_03_1427,60.008218464,FEMA4ImagesEEG,001,100384,
AMSA21.JPG,AMNE23.JPG,AMNE21.JPG,AMSA25.JPG,AMNE25.JPG,AMSA23.JPG,,,,,,,,,,,,,,,,,,,,,0,0,0,5,,,AMSA13.jpg,AMNE11.jpg,AMNE06.jpg,AMSA04.jpg,AMSA13.jpg,MS,2,num_8,32,num_4,1.2833941509,,,2017_May_03_1427,60.008218464,FEMA4ImagesEEG,001,100384,
AMNE23.JPG,AMNE24.JPG,AMNE22.JPG,AMSA24.JPG,AMSA22.JPG,AMSA23.JPG,,,,,,,,,,,,,,,,,,,,,0,1,1,9,,,AMNE13.jpg,AMSA08.jpg,AMSA04.jpg,AMNE04.jpg,AMSA04.jpg,MS,2,num_2,16,num_2,1.71670912718,,,2017_May_03_1427,60.008218464,FEMA4ImagesEEG,001,100384,
AFSA25.JPG,AFNE24.JPG,AFSA24.JPG,AFNE21.JPG,AFSA21.JPG,AFNE25.JPG,,,,,,,,,,,,,,,,,,,,,0,2,2,2,,,AMNE04.jpg,AMNE06.jpg,AMSA02.jpg,AMSA06.jpg,AMSA02.jpg,MS,2,num_2,32,num_8,0.983413940528,,,2017_May_03_1427,60.008218464,FEMA4ImagesEEG,001,100384,
AMSA21.JPG,AMNE22.JPG,AMNE21.JPG,AMSA23.JPG,AMSA22.JPG,AMNE23.JPG,,,,,,,,,,,,,,,,,,,,,0,3,3,1,,,AMSA15.jpg,AMNE04.jpg,AMNE05.jpg,AMSA04.jpg,AMNE04.jpg,MN,1,num_6,16,num_6,0.683517443016,,,2017_May_03_1427,60.008218464,FEMA4ImagesEEG,001,100384,
AMNE22.JPG,AMSA24.JPG,AMSA22.JPG,AMNE25.JPG,AMNE24.JPG,AMSA25.JPG,,,,,,,,,,,,,,,,,,,,,0,4,4,7,,,AMSA06.jpg,AMSA08.jpg,AMNE12.jpg,AMNE19.jpg,AMSA08.jpg,MS,2,num_6,32,num_8,1.74976096931,,,2017_May_03_1427,60.008218464,FEMA4ImagesEEG,001,100384,
AFNE23.JPG,AFNE24.JPG,AFNE22.JPG,AFSA24.JPG,AFSA22.JPG,AFSA23.JPG,,,,,,,,,,,,,,,,,,,,,0,5,5,8,,,AMSA03.jpg,AMNE02.jpg,AMSA13.jpg,AMNE01.jpg,AMSA03.jpg,MS,2,num_8,16,num_8,1.66671456373,,,2017_May_03_1427,60.008218464,FEMA4ImagesEEG,001,100384,
AFSA21.JPG,AFNE22.JPG,AFNE21.JPG,AFSA23.JPG,AFSA22.JPG,AFNE23.JPG,,,,,,,,,,,,,,,,,,,,,0,6,6,0,,,AMNE03.jpg,AMSA01.jpg,AMSA18.jpg,AMNE19.jpg,AMSA01.jpg,MS,2,num_6,32,num_2,1.86672296701,,,2017_May_03_1427,60.008218464,FEMA4ImagesEEG,001,100384,
AFSA21.JPG,AFNE23.JPG,AFNE21.JPG,AFSA25.JPG,AFNE25.JPG,AFSA23.JPG,,,,,,,,,,,,,,,,,,,,,0,7,7,4,,,AMSA03.jpg,AMSA02.jpg,AMNE20.jpg,AMNE02.jpg,AMNE02.jpg,MN,1,num_4,32,num_8,1.33344003255,,,2017_May_03_1427,60.008218464,FEMA4ImagesEEG,001,100384,
AFNE22.JPG,AFSA24.JPG,AFSA22.JPG,AFNE25.JPG,AFNE24.JPG,AFSA25.JPG,,,,,,,,,,,,,,,,,,,,,0,8,8,6,,,AMSA09.jpg,AMNE14.jpg,AMNE10.jpg,AMSA10.jpg,AMNE10.jpg,MN,1,num_2,32,num_4,0.766877531074,,,2017_May_03_1427,60.008218464,FEMA4ImagesEEG,001,100384,
AMSA25.JPG,AMNE24.JPG,AMSA24.JPG,AMNE26.JPG,AMSA21.JPG,AMNE25.JPG,,,,,,,,,,,,,,,,,,,,,0,9,9,3,,,AMNE19.jpg,AMSA09.jpg,AMSA14.jpg,AMNE08.jpg,AMSA09.jpg,MS,2,num_6,16,num_6,0.866725212196,,,2017_May_03_1427,60.008218464,FEMA4ImagesEEG,001,100384,
,,,,,,,,,,,,,,,,,,,,,,,,,,,,,,,,,,,,,,,,,,,space,11.2825781906,2017_May_03_1427,60.008218464,FEMA4ImagesEEG,001,100384,
AFNE01.JPG,AFNE01.JPG,AFNE01.JPG,AFNE01.JPG,AFNE01.JPG,AFNE01.JPG,0,0,0,8,,,,,,,,,,,,,,,,,,,,,,,AFSA15.jpg,AFNE16.jpg,AFNE18.jpg,AFSA02.jpg,AFNE16.jpg,FN,3,num_6,16,num_6,0.833476115717,,,2017_May_03_1427,60.008218464,FEMA4ImagesEEG,001,100384,
AFNE01.JPG,AFNE01.JPG,AFNE01.JPG,AFNE01.JPG,AFNE01.JPG,AFNE01.JPG,0,1,1,3,,,,,,,,,,,,,,,,,,,,,,,AFSA03.jpg,AFSA02.jpg,AFNE02.jpg,AFNE04.jpg,AFSA03.jpg,FS,4,num_8,16,num_8,1.06681444193,,,2017_May_03_1427,60.008218464,FEMA4ImagesEEG,001,100384,
AFNE01.JPG,AFNE01.JPG,AFNE01.JPG,AFNE01.JPG,AFNE01.JPG,AFNE01.JPG,0,2,2,5,,,,,,,,,,,,,,,,,,,,,,,AFNE03.jpg,AFSA20.jpg,AFNE04.jpg,AFSA02.jpg,AFSA02.jpg,FS,4,num_4,16,num_4,1.01673680707,,,2017_May_03_1427,60.008218464,FEMA4ImagesEEG,001,100384,
AFNE01.JPG,AFNE01.JPG,AFNE01.JPG,AFNE01.JPG,AFNE01.JPG,AFNE01.JPG,0,3,3,0,,,,,,,,,,,,,,,,,,,,,,,AFNE10.jpg,AFSA12.jpg,AFNE03.jpg,AFSA17.jpg,AFNE10.jpg,FN,3,num_8,32,num_2,0.983418751508,,,2017_May_03_1427,60.008218464,FEMA4ImagesEEG,001,100384,
AFNE01.JPG,AFNE01.JPG,AFNE01.JPG,AFNE01.JPG,AFNE01.JPG,AFNE01.JPG,0,4,4,9,,,,,,,,,,,,,,,,,,,,,,,AFSA07.jpg,AFSA03.jpg,AFNE02.jpg,AFNE14.jpg,AFSA07.jpg,FS,4,num_8,16,num_8,0.850099381059,,,2017_May_03_1427,60.008218464,FEMA4ImagesEEG,001,100384,
AFNE01.JPG,AFNE01.JPG,AFNE01.JPG,AFNE01.JPG,AFNE01.JPG,AFNE01.JPG,0,5,5,4,,,,,,,,,,,,,,,,,,,,,,,AFSA04.jpg,AFNE14.jpg,AFSA20.jpg,AFNE13.jpg,AFNE14.jpg,FN,3,num_6,32,num_2,0.866806679871,,,2017_May_03_1427,60.008218464,FEMA4ImagesEEG,001,100384,
AFNE01.JPG,AFNE01.JPG,AFNE01.JPG,AFNE01.JPG,AFNE01.JPG,AFNE01.JPG,0,6,6,2,,,,,,,,,,,,,,,,,,,,,,,AFNE19.jpg,AFSA01.jpg,AFNE07.jpg,AFSA04.jpg,AFNE07.jpg,FN,3,num_2,32,num_6,0.950132128317,,,2017_May_03_1427,60.008218464,FEMA4ImagesEEG,001,100384,
AFNE01.JPG,AFNE01.JPG,AFNE01.JPG,AFNE01.JPG,AFNE01.JPG,AFNE01.JPG,0,7,7,7,,,,,,,,,,,,,,,,,,,,,,,AFNE16.jpg,AFSA14.jpg,AFNE20.jpg,AFSA17.jpg,AFNE20.jpg,FN,3,num_2,16,num_2,1.48338972451,,,2017_May_03_1427,60.008218464,FEMA4ImagesEEG,001,100384,
AFNE01.JPG,AFNE01.JPG,AFNE01.JPG,AFNE01.JPG,AFNE01.JPG,AFNE01.JPG,0,8,8,1,,,,,,,,,,,,,,,,,,,,,,,AFNE12.jpg,AFSA18.jpg,AFNE17.jpg,AFSA05.jpg,AFSA05.jpg,FS,4,num_4,16,num_4,1.1000831034,,,2017_May_03_1427,60.008218464,FEMA4ImagesEEG,001,100384,
AFNE01.JPG,AFNE01.JPG,AFNE01.JPG,AFNE01.JPG,AFNE01.JPG,AFNE01.JPG,0,9,9,6,,,,,,,,,,,,,,,,,,,,,,,AFNE05.jpg,AFSA07.jpg,AFSA19.jpg,AFNE15.jpg,AFSA19.jpg,FS,4,num_2,32,num_8,0.999782538973,,,2017_May_03_1427,60.008218464,FEMA4ImagesEEG,001,100384,
AFNE01.JPG,AFNE01.JPG,AFNE01.JPG,AFNE01.JPG,AFNE01.JPG,AFNE01.JPG,1,0,10,1,,,,,,,,,,,,,,,,,,,,,,,AFNE20.jpg,AFSA05.jpg,AFSA11.jpg,AFNE13.jpg,AFSA11.jpg,FS,4,num_2,16,num_2,1.13345760899,,,2017_May_03_1427,60.008218464,FEMA4ImagesEEG,001,100384,
AFNE01.JPG,AFNE01.JPG,AFNE01.JPG,AFNE01.JPG,AFNE01.JPG,AFNE01.JPG,1,1,11,4,,,,,,,,,,,,,,,,,,,,,,,AFSA07.jpg,AFNE09.jpg,AFSA12.jpg,AFNE05.jpg,AFSA12.jpg,FS,4,num_2,16,num_2,1.18341047643,,,2017_May_03_1427,60.008218464,FEMA4ImagesEEG,001,100384,
AFNE01.JPG,AFNE01.JPG,AFNE01.JPG,AFNE01.JPG,AFNE01.JPG,AFNE01.JPG,1,2,12,9,,,,,,,,,,,,,,,,,,,,,,,AFSA12.jpg,AFNE14.jpg,AFSA15.jpg,AFNE12.jpg,AFSA12.jpg,FS,4,num_8,32,num_4,1.44988724426,,,2017_May_03_1427,60.008218464,FEMA4ImagesEEG,001,100384,
AFNE01.JPG,AFNE01.JPG,AFNE01.JPG,AFNE01.JPG,AFNE01.JPG,AFNE01.JPG,1,3,13,0,,,,,,,,,,,,,,,,,,,,,,,AFSA01.jpg,AFNE14.jpg,AFNE07.jpg,AFSA17.jpg,AFNE14.jpg,FN,3,num_6,16,num_6,0.966467370046,,,2017_May_03_1427,60.008218464,FEMA4ImagesEEG,001,100384,
AFNE01.JPG,AFNE01.JPG,AFNE01.JPG,AFNE01.JPG,AFNE01.JPG,AFNE01.JPG,1,4,14,8,,,,,,,,,,,,,,,,,,,,,,,AFNE17.jpg,AFNE14.jpg,AFSA18.jpg,AFSA13.jpg,AFNE17.jpg,FN,3,num_8,32,num_2,1.58336153161,,,2017_May_03_1427,60.008218464,FEMA4ImagesEEG,001,100384,
AFNE01.JPG,AFNE01.JPG,AFNE01.JPG,AFNE01.JPG,AFNE01.JPG,AFNE01.JPG,1,5,15,5,,,,,,,,,,,,,,,,,,,,,,,AFNE16.jpg,AFNE18.jpg,AFSA15.jpg,AFSA01.jpg,AFNE16.jpg,FN,3,num_8,16,num_8,1.01673295815,,,2017_May_03_1427,60.008218464,FEMA4ImagesEEG,001,100384,
AFNE01.JPG,AFNE01.JPG,AFNE01.JPG,AFNE01.JPG,AFNE01.JPG,AFNE01.JPG,1,6,16,7,,,,,,,,,,,,,,,,,,,,,,,AFNE15.jpg,AFNE12.jpg,AFSA12.jpg,AFSA04.jpg,AFSA04.jpg,FS,4,num_4,32,num_8,1.23344577383,,,2017_May_03_1427,60.008218464,FEMA4ImagesEEG,001,100384,
AFNE01.JPG,AFNE01.JPG,AFNE01.JPG,AFNE01.JPG,AFNE01.JPG,AFNE01.JPG,1,7,17,2,,,,,,,,,,,,,,,,,,,,,,,AFSA07.jpg,AFNE14.jpg,AFNE02.jpg,AFSA06.jpg,AFNE02.jpg,FN,3,num_2,32,num_6,1.30010818527,,,2017_May_03_1427,60.008218464,FEMA4ImagesEEG,001,100384,
AFNE01.JPG,AFNE01.JPG,AFNE01.JPG,AFNE01.JPG,AFNE01.JPG,AFNE01.JPG,1,8,18,6,,,,,,,,,,,,,,,,,,,,,,,AFNE16.jpg,AFSA03.jpg,AFNE15.jpg,AFSA15.jpg,AFNE16.jpg,FN,3,num_8,32,num_6,0.983450183878,,,2017_May_03_1427,60.008218464,FEMA4ImagesEEG,001,100384,
AFNE01.JPG,AFNE01.JPG,AFNE01.JPG,AFNE01.JPG,AFNE01.JPG,AFNE01.JPG,1,9,19,3,,,,,,,,,,,,,,,,,,,,,,,AFSA16.jpg,AFSA07.jpg,AFNE13.jpg,AFNE03.jpg,AFSA16.jpg,FS,4,num_8,16,num_8,0.400132914307,,,2017_May_03_1427,60.008218464,FEMA4ImagesEEG,001,100384,
AFNE01.JPG,AFNE01.JPG,AFNE01.JPG,AFNE01.JPG,AFNE01.JPG,AFNE01.JPG,2,0,20,5,,,,,,,,,,,,,,,,,,,,,,,AFNE13.jpg,AFNE10.jpg,AFSA08.jpg,AFSA19.jpg,AFSA19.jpg,FS,4,num_4,16,num_4,0.916632213863,,,2017_May_03_1427,60.008218464,FEMA4ImagesEEG,001,100384,
AFNE01.JPG,AFNE01.JPG,AFNE01.JPG,AFNE01.JPG,AFNE01.JPG,AFNE01.JPG,2,1,21,2,,,,,,,,,,,,,,,,,,,,,,,AFSA14.jpg,AFNE05.jpg,AFNE17.jpg,AFSA03.jpg,AFSA03.jpg,FS,4,num_4,32,num_2,0.416783442488,,,2017_May_03_1427,60.008218464,FEMA4ImagesEEG,001,100384,
AFNE01.JPG,AFNE01.JPG,AFNE01.JPG,AFNE01.JPG,AFNE01.JPG,AFNE01.JPG,2,2,22,9,,,,,,,,,,,,,,,,,,,,,,,AFNE19.jpg,AFSA05.jpg,AFSA07.jpg,AFNE09.jpg,AFSA07.jpg,FS,4,num_2,32,num_6,0.93331160862,,,2017_May_03_1427,60.008218464,FEMA4ImagesEEG,001,100384,
AFNE01.JPG,AFNE01.JPG,AFNE01.JPG,AFNE01.JPG,AFNE01.JPG,AFNE01.JPG,2,3,23,4,,,,,,,,,,,,,,,,,,,,,,,AFSA17.jpg,AFNE03.jpg,AFSA08.jpg,AFNE20.jpg,AFSA17.jpg,FS,4,num_8,16,num_8,0.78345781751,,,2017_May_03_1427,60.008218464,FEMA4ImagesEEG,001,100384,
AFNE01.JPG,AFNE01.JPG,AFNE01.JPG,AFNE01.JPG,AFNE01.JPG,AFNE01.JPG,2,4,24,1,,,,,,,,,,,,,,,,,,,,,,,AFNE02.jpg,AFSA14.jpg,AFSA20.jpg,AFNE09.jpg,AFNE02.jpg,FN,3,num_8,32,num_2,0.900149111636,,,2017_May_03_1427,60.008218464,FEMA4ImagesEEG,001,100384,
AFNE01.JPG,AFNE01.JPG,AFNE01.JPG,AFNE01.JPG,AFNE01.JPG,AFNE01.JPG,2,5,25,6,,,,,,,,,,,,,,,,,,,,,,,AFSA04.jpg,AFNE02.jpg,AFSA02.jpg,AFNE01.jpg,AFNE02.jpg,FN,3,num_6,32,num_4,1.06678365078,,,2017_May_03_1427,60.008218464,FEMA4ImagesEEG,001,100384,
AFNE01.JPG,AFNE01.JPG,AFNE01.JPG,AFNE01.JPG,AFNE01.JPG,AFNE01.JPG,2,6,26,7,,,,,,,,,,,,,,,,,,,,,,,AFNE12.jpg,AFSA16.jpg,AFSA02.jpg,AFNE04.jpg,AFSA16.jpg,FS,4,num_6,16,num_6,0.816721026553,,,2017_May_03_1427,60.008218464,FEMA4ImagesEEG,001,100384,
AFNE01.JPG,AFNE01.JPG,AFNE01.JPG,AFNE01.JPG,AFNE01.JPG,AFNE01.JPG,2,7,27,3,,,,,,,,,,,,,,,,,,,,,,,AFSA07.jpg,AFNE02.jpg,AFSA15.jpg,AFNE16.jpg,AFSA07.jpg,FS,4,num_8,16,num_8,0.650304910727,,,2017_May_03_1427,60.008218464,FEMA4ImagesEEG,001,100384,
AFNE01.JPG,AFNE01.JPG,AFNE01.JPG,AFNE01.JPG,AFNE01.JPG,AFNE01.JPG,2,8,28,8,,,,,,,,,,,,,,,,,,,,,,,AFNE03.jpg,AFSA19.jpg,AFSA03.jpg,AFNE06.jpg,AFNE06.jpg,FN,3,num_4,32,num_8,1.03346752003,,,2017_May_03_1427,60.008218464,FEMA4ImagesEEG,001,100384,
AFNE01.JPG,AFNE01.JPG,AFNE01.JPG,AFNE01.JPG,AFNE01.JPG,AFNE01.JPG,2,9,29,0,,,,,,,,,,,,,,,,,,,,,,,AFNE01.jpg,AFNE09.jpg,AFSA18.jpg,AFSA08.jpg,AFNE01.jpg,FN,3,num_8,32,num_6,0.983420355013,,,2017_May_03_1427,60.008218464,FEMA4ImagesEEG,001,100384,
AFNE01.JPG,AFNE01.JPG,AFNE01.JPG,AFNE01.JPG,AFNE01.JPG,AFNE01.JPG,3,0,30,1,,,,,,,,,,,,,,,,,,,,,,,AFSA04.jpg,AFNE08.jpg,AFSA03.jpg,AFNE10.jpg,AFSA04.jpg,FS,4,num_8,32,num_4,0.833422872936,,,2017_May_03_1427,60.008218464,FEMA4ImagesEEG,001,100384,
AFNE01.JPG,AFNE01.JPG,AFNE01.JPG,AFNE01.JPG,AFNE01.JPG,AFNE01.JPG,3,1,31,2,,,,,,,,,,,,,,,,,,,,,,,AFSA18.jpg,AFSA20.jpg,AFNE01.jpg,AFNE16.jpg,AFNE01.jpg,FN,3,num_2,32,num_6,1.33341790154,,,2017_May_03_1427,60.008218464,FEMA4ImagesEEG,001,100384,
AFNE01.JPG,AFNE01.JPG,AFNE01.JPG,AFNE01.JPG,AFNE01.JPG,AFNE01.JPG,3,2,32,7,,,,,,,,,,,,,,,,,,,,,,,AFNE04.jpg,AFNE10.jpg,AFSA17.jpg,AFSA05.jpg,AFSA17.jpg,FS,4,num_2,16,num_2,1.0834527819,,,2017_May_03_1427,60.008218464,FEMA4ImagesEEG,001,100384,
AFNE01.JPG,AFNE01.JPG,AFNE01.JPG,AFNE01.JPG,AFNE01.JPG,AFNE01.JPG,3,3,33,5,,,,,,,,,,,,,,,,,,,,,,,AFSA16.jpg,AFNE07.jpg,AFSA11.jpg,AFNE03.jpg,AFNE03.jpg,FN,3,num_4,32,num_8,2.11664542835,,,2017_May_03_1427,60.008218464,FEMA4ImagesEEG,001,100384,
AFNE01.JPG,AFNE01.JPG,AFNE01.JPG,AFNE01.JPG,AFNE01.JPG,AFNE01.JPG,3,4,34,3,,,,,,,,,,,,,,,,,,,,,,,AFSA20.jpg,AFNE01.jpg,AFSA13.jpg,AFNE10.jpg,AFSA20.jpg,FS,4,num_8,32,num_2,0.950150731485,,,2017_May_03_1427,60.008218464,FEMA4ImagesEEG,001,100384,
AFNE01.JPG,AFNE01.JPG,AFNE01.JPG,AFNE01.JPG,AFNE01.JPG,AFNE01.JPG,3,5,35,8,,,,,,,,,,,,,,,,,,,,,,,AFNE09.jpg,AFNE08.jpg,AFSA10.jpg,AFSA05.jpg,AFSA10.jpg,FS,4,num_2,16,num_2,1.38310391409,,,2017_May_03_1427,60.008218464,FEMA4ImagesEEG,001,100384,
AFNE01.JPG,AFNE01.JPG,AFNE01.JPG,AFNE01.JPG,AFNE01.JPG,AFNE01.JPG,3,6,36,9,,,,,,,,,,,,,,,,,,,,,,,AFSA11.jpg,AFSA10.jpg,AFNE17.jpg,AFNE20.jpg,AFNE17.jpg,FN,3,num_2,32,num_4,1.48356452724,,,2017_May_03_1427,60.008218464,FEMA4ImagesEEG,001,100384,
AFNE01.JPG,AFNE01.JPG,AFNE01.JPG,AFNE01.JPG,AFNE01.JPG,AFNE01.JPG,3,7,37,4,,,,,,,,,,,,,,,,,,,,,,,AFNE06.jpg,AFSA06.jpg,AFNE11.jpg,AFSA01.jpg,AFNE11.jpg,FN,3,num_2,32,num_6,1.3333723566,,,2017_May_03_1427,60.008218464,FEMA4ImagesEEG,001,100384,
AFNE01.JPG,AFNE01.JPG,AFNE01.JPG,AFNE01.JPG,AFNE01.JPG,AFNE01.JPG,3,8,38,0,,,,,,,,,,,,,,,,,,,,,,,AFSA19.jpg,AFNE08.jpg,AFNE02.jpg,AFSA04.jpg,AFSA19.jpg,FS,4,num_8,16,num_8,0.883431869559,,,2017_May_03_1427,60.008218464,FEMA4ImagesEEG,001,100384,
AFNE01.JPG,AFNE01.JPG,AFNE01.JPG,AFNE01.JPG,AFNE01.JPG,AFNE01.JPG,3,9,39,6,,,,,,,,,,,,,,,,,,,,,,,AFNE16.jpg,AFNE17.jpg,AFSA16.jpg,AFSA11.jpg,AFSA16.jpg,FS,4,num_2,16,num_2,0.900112547446,,,2017_May_03_1427,60.008218464,FEMA4ImagesEEG,001,100384,
AFNE01.JPG,AFNE01.JPG,AFNE01.JPG,AFNE01.JPG,AFNE01.JPG,AFNE01.JPG,4,0,40,4,,,,,,,,,,,,,,,,,,,,,,,AFNE09.jpg,AFSA16.jpg,AFSA19.jpg,AFNE20.jpg,AFNE09.jpg,FN,3,num_8,32,num_4,1.01660690759,,,2017_May_03_1427,60.008218464,FEMA4ImagesEEG,001,100384,
AFNE01.JPG,AFNE01.JPG,AFNE01.JPG,AFNE01.JPG,AFNE01.JPG,AFNE01.JPG,4,1,41,6,,,,,,,,,,,,,,,,,,,,,,,AFSA13.jpg,AFNE11.jpg,AFSA10.jpg,AFNE06.jpg,AFNE06.jpg,FN,3,num_4,32,num_8,1.13340564934,,,2017_May_03_1427,60.008218464,FEMA4ImagesEEG,001,100384,
AFNE01.JPG,AFNE01.JPG,AFNE01.JPG,AFNE01.JPG,AFNE01.JPG,AFNE01.JPG,4,2,42,1,,,,,,,,,,,,,,,,,,,,,,,AFNE14.jpg,AFSA02.jpg,AFNE13.jpg,AFSA08.jpg,AFSA08.jpg,FS,4,num_4,32,num_2,1.01674065576,,,2017_May_03_1427,60.008218464,FEMA4ImagesEEG,001,100384,
AFNE01.JPG,AFNE01.JPG,AFNE01.JPG,AFNE01.JPG,AFNE01.JPG,AFNE01.JPG,4,3,43,8,,,,,,,,,,,,,,,,,,,,,,,AFNE19.jpg,AFSA18.jpg,AFNE18.jpg,AFSA05.jpg,AFNE18.jpg,FN,3,num_2,32,num_6,0.850057685049,,,2017_May_03_1427,60.008218464,FEMA4ImagesEEG,001,100384,
AFNE01.JPG,AFNE01.JPG,AFNE01.JPG,AFNE01.JPG,AFNE01.JPG,AFNE01.JPG,4,4,44,7,,,,,,,,,,,,,,,,,,,,,,,AFNE04.jpg,AFSA02.jpg,AFNE03.jpg,AFSA03.jpg,AFNE03.jpg,FN,3,num_2,16,num_2,1.15008793049,,,2017_May_03_1427,60.008218464,FEMA4ImagesEEG,001,100384,
AFNE01.JPG,AFNE01.JPG,AFNE01.JPG,AFNE01.JPG,AFNE01.JPG,AFNE01.JPG,4,5,45,3,,,,,,,,,,,,,,,,,,,,,,,AFSA18.jpg,AFNE09.jpg,AFSA13.jpg,AFNE12.jpg,AFNE09.jpg,FN,3,num_6,32,num_4,1.2834028108,,,2017_May_03_1427,60.008218464,FEMA4ImagesEEG,001,100384,
AFNE01.JPG,AFNE01.JPG,AFNE01.JPG,AFNE01.JPG,AFNE01.JPG,AFNE01.JPG,4,6,46,2,,,,,,,,,,,,,,,,,,,,,,,AFNE14.jpg,AFNE18.jpg,AFSA05.jpg,AFSA01.jpg,AFNE14.jpg,FN,3,num_8,16,num_8,0.90010035946,,,2017_May_03_1427,60.008218464,FEMA4ImagesEEG,001,100384,
AFNE01.JPG,AFNE01.JPG,AFNE01.JPG,AFNE01.JPG,AFNE01.JPG,AFNE01.JPG,4,7,47,0,,,,,,,,,,,,,,,,,,,,,,,AFNE16.jpg,AFSA14.jpg,AFSA02.jpg,AFNE10.jpg,AFNE16.jpg,FN,3,num_8,16,num_8,0.783492136747,,,2017_May_03_1427,60.008218464,FEMA4ImagesEEG,001,100384,
AFNE01.JPG,AFNE01.JPG,AFNE01.JPG,AFNE01.JPG,AFNE01.JPG,AFNE01.JPG,4,8,48,9,,,,,,,,,,,,,,,,,,,,,,,AFSA03.jpg,AFNE16.jpg,AFNE14.jpg,AFSA18.jpg,AFNE14.jpg,FN,3,num_2,32,num_6,0.650157691445,,,2017_May_03_1427,60.008218464,FEMA4ImagesEEG,001,100384,
AFNE01.JPG,AFNE01.JPG,AFNE01.JPG,AFNE01.JPG,AFNE01.JPG,AFNE01.JPG,4,9,49,5,,,,,,,,,,,,,,,,,,,,,,,AFNE15.jpg,AFSA07.jpg,AFNE12.jpg,AFSA19.jpg,AFNE15.jpg,FN,3,num_8,32,num_2,0.950423359405,,,2017_May_03_1427,60.008218464,FEMA4ImagesEEG,001,100384,
AFNE01.JPG,AFNE01.JPG,AFNE01.JPG,AFNE01.JPG,AFNE01.JPG,AFNE01.JPG,5,0,50,6,,,,,,,,,,,,,,,,,,,,,,,AFSA13.jpg,AFNE02.jpg,AFSA08.jpg,AFNE13.jpg,AFSA13.jpg,FS,4,num_8,32,num_6,0.850085909944,,,2017_May_03_1427,60.008218464,FEMA4ImagesEEG,001,100384,
AFNE01.JPG,AFNE01.JPG,AFNE01.JPG,AFNE01.JPG,AFNE01.JPG,AFNE01.JPG,5,1,51,5,,,,,,,,,,,,,,,,,,,,,,,AFNE14.jpg,AFSA12.jpg,AFSA02.jpg,AFNE13.jpg,AFSA02.jpg,FS,4,num_2,32,num_8,0.983745263889,,,2017_May_03_1427,60.008218464,FEMA4ImagesEEG,001,100384,
AFNE01.JPG,AFNE01.JPG,AFNE01.JPG,AFNE01.JPG,AFNE01.JPG,AFNE01.JPG,5,2,52,2,,,,,,,,,,,,,,,,,,,,,,,AFSA18.jpg,AFSA03.jpg,AFNE03.jpg,AFNE16.jpg,AFSA18.jpg,FS,4,num_8,32,num_2,0.800096478313,,,2017_May_03_1427,60.008218464,FEMA4ImagesEEG,001,100384,
AFNE01.JPG,AFNE01.JPG,AFNE01.JPG,AFNE01.JPG,AFNE01.JPG,AFNE01.JPG,5,3,53,0,,,,,,,,,,,,,,,,,,,,,,,AFSA09.jpg,AFSA06.jpg,AFNE05.jpg,AFNE12.jpg,AFNE05.jpg,FN,3,num_2,32,num_6,0.700130123878,,,2017_May_03_1427,60.008218464,FEMA4ImagesEEG,001,100384,
AFNE01.JPG,AFNE01.JPG,AFNE01.JPG,AFNE01.JPG,AFNE01.JPG,AFNE01.JPG,5,4,54,9,,,,,,,,,,,,,,,,,,,,,,,AFNE14.jpg,AFSA07.jpg,AFSA18.jpg,AFNE15.jpg,AFSA07.jpg,FS,4,num_6,32,num_2,0.916471523698,,,2017_May_03_1427,60.008218464,FEMA4ImagesEEG,001,100384,
AFNE01.JPG,AFNE01.JPG,AFNE01.JPG,AFNE01.JPG,AFNE01.JPG,AFNE01.JPG,5,5,55,7,,,,,,,,,,,,,,,,,,,,,,,AFSA19.jpg,AFNE11.jpg,AFSA02.jpg,AFNE13.jpg,AFNE13.jpg,FN,3,num_4,16,num_4,1.31669039605,,,2017_May_03_1427,60.008218464,FEMA4ImagesEEG,001,100384,
AFNE01.JPG,AFNE01.JPG,AFNE01.JPG,AFNE01.JPG,AFNE01.JPG,AFNE01.JPG,5,6,56,3,,,,,,,,,,,,,,,,,,,,,,,AFSA07.jpg,AFNE12.jpg,AFNE13.jpg,AFSA10.jpg,AFSA07.jpg,FS,4,num_8,32,num_6,0.93351623998,,,2017_May_03_1427,60.008218464,FEMA4ImagesEEG,001,100384,
AFNE01.JPG,AFNE01.JPG,AFNE01.JPG,AFNE01.JPG,AFNE01.JPG,AFNE01.JPG,5,7,57,8,,,,,,,,,,,,,,,,,,,,,,,AFNE19.jpg,AFNE06.jpg,AFSA06.jpg,AFSA14.jpg,AFNE06.jpg,FN,3,num_6,32,num_2,0.816756308079,,,2017_May_03_1427,60.008218464,FEMA4ImagesEEG,001,100384,
AFNE01.JPG,AFNE01.JPG,AFNE01.JPG,AFNE01.JPG,AFNE01.JPG,AFNE01.JPG,5,8,58,1,,,,,,,,,,,,,,,,,,,,,,,AFSA13.jpg,AFSA12.jpg,AFNE12.jpg,AFNE10.jpg,AFNE12.jpg,FN,3,num_2,32,num_8,1.08342231158,,,2017_May_03_1427,60.008218464,FEMA4ImagesEEG,001,100384,
AFNE01.JPG,AFNE01.JPG,AFNE01.JPG,AFNE01.JPG,AFNE01.JPG,AFNE01.JPG,5,9,59,4,,,,,,,,,,,,,,,,,,,,,,,AFSA01.jpg,AFNE03.jpg,AFSA19.jpg,AFNE18.jpg,AFSA01.jpg,FS,4,num_8,32,num_2,0.983437033603,,,2017_May_03_1427,60.008218464,FEMA4ImagesEEG,001,100384,
,,,,,,,,,,,,,,,,,,,,,,,,,,,,,,,,,,,,,,,,,,,space,13.0994486816,2017_May_03_1427,60.008218464,FEMA4ImagesEEG,001,100384,
AFNE01.JPG,AFNE01.JPG,AFNE01.JPG,AFNE01.JPG,AFNE01.JPG,AFNE01.JPG,,,,,0,0,0,4,,,,,,,,,,,,,,,,,,,AMSA18.jpg,AMSA06.jpg,AMNE01.jpg,AMNE08.jpg,AMNE08.jpg,MN,1,num_4,16,num_4,1.13345472259,,,2017_May_03_1427,60.008218464,FEMA4ImagesEEG,001,100384,
AFNE01.JPG,AFNE01.JPG,AFNE01.JPG,AFNE01.JPG,AFNE01.JPG,AFNE01.JPG,,,,,0,1,1,2,,,,,,,,,,,,,,,,,,,AMNE12.jpg,AMNE09.jpg,AMSA10.jpg,AMSA08.jpg,AMNE09.jpg,MN,1,num_6,16,num_6,0.733423482394,,,2017_May_03_1427,60.008218464,FEMA4ImagesEEG,001,100384,
AFNE01.JPG,AFNE01.JPG,AFNE01.JPG,AFNE01.JPG,AFNE01.JPG,AFNE01.JPG,,,,,0,2,2,7,,,,,,,,,,,,,,,,,,,AMNE02.jpg,AMNE19.jpg,AMSA12.jpg,AMSA18.jpg,AMNE02.jpg,MN,1,num_8,16,num_8,0.783474816475,,,2017_May_03_1427,60.008218464,FEMA4ImagesEEG,001,100384,
AFNE01.JPG,AFNE01.JPG,AFNE01.JPG,AFNE01.JPG,AFNE01.JPG,AFNE01.JPG,,,,,0,3,3,1,,,,,,,,,,,,,,,,,,,AMNE14.jpg,AMSA15.jpg,AMSA06.jpg,AMNE18.jpg,AMSA06.jpg,MS,2,num_2,16,num_2,0.916770773241,,,2017_May_03_1427,60.008218464,FEMA4ImagesEEG,001,100384,
AFNE01.JPG,AFNE01.JPG,AFNE01.JPG,AFNE01.JPG,AFNE01.JPG,AFNE01.JPG,,,,,0,4,4,9,,,,,,,,,,,,,,,,,,,AMSA17.jpg,AMNE02.jpg,AMNE10.jpg,AMSA01.jpg,AMSA17.jpg,MS,2,num_8,32,num_6,0.866757286014,,,2017_May_03_1427,60.008218464,FEMA4ImagesEEG,001,100384,
AFNE01.JPG,AFNE01.JPG,AFNE01.JPG,AFNE01.JPG,AFNE01.JPG,AFNE01.JPG,,,,,0,5,5,6,,,,,,,,,,,,,,,,,,,AMSA15.jpg,AMNE18.jpg,AMNE05.jpg,AMSA12.jpg,AMSA15.jpg,MS,2,num_8,16,num_8,0.933468129486,,,2017_May_03_1427,60.008218464,FEMA4ImagesEEG,001,100384,
AFNE01.JPG,AFNE01.JPG,AFNE01.JPG,AFNE01.JPG,AFNE01.JPG,AFNE01.JPG,,,,,0,6,6,8,,,,,,,,,,,,,,,,,,,AMNE14.jpg,AMSA20.jpg,AMNE12.jpg,AMSA05.jpg,AMNE14.jpg,MN,1,num_8,16,num_8,0.750100311125,,,2017_May_03_1427,60.008218464,FEMA4ImagesEEG,001,100384,
AFNE01.JPG,AFNE01.JPG,AFNE01.JPG,AFNE01.JPG,AFNE01.JPG,AFNE01.JPG,,,,,0,7,7,0,,,,,,,,,,,,,,,,,,,AMSA20.jpg,AMNE03.jpg,AMNE08.jpg,AMSA04.jpg,AMNE03.jpg,MN,1,num_6,32,num_2,1.08337740833,,,2017_May_03_1427,60.008218464,FEMA4ImagesEEG,001,100384,
AFNE01.JPG,AFNE01.JPG,AFNE01.JPG,AFNE01.JPG,AFNE01.JPG,AFNE01.JPG,,,,,0,8,8,3,,,,,,,,,,,,,,,,,,,AMSA19.jpg,AMSA01.jpg,AMNE20.jpg,AMNE16.jpg,AMNE16.jpg,MN,1,num_4,16,num_4,0.633526086807,,,2017_May_03_1427,60.008218464,FEMA4ImagesEEG,001,100384,
AFNE01.JPG,AFNE01.JPG,AFNE01.JPG,AFNE01.JPG,AFNE01.JPG,AFNE01.JPG,,,,,0,9,9,5,,,,,,,,,,,,,,,,,,,AMNE11.jpg,AMNE06.jpg,AMSA07.jpg,AMSA15.jpg,AMNE06.jpg,MN,1,num_6,16,num_6,0.666838689707,,,2017_May_03_1427,60.008218464,FEMA4ImagesEEG,001,100384,
AFNE01.JPG,AFNE01.JPG,AFNE01.JPG,AFNE01.JPG,AFNE01.JPG,AFNE01.JPG,,,,,1,0,10,9,,,,,,,,,,,,,,,,,,,AMSA16.jpg,AMNE16.jpg,AMSA20.jpg,AMNE15.jpg,AMNE16.jpg,MN,1,num_6,32,num_8,1.16672081803,,,2017_May_03_1427,60.008218464,FEMA4ImagesEEG,001,100384,
AFNE01.JPG,AFNE01.JPG,AFNE01.JPG,AFNE01.JPG,AFNE01.JPG,AFNE01.JPG,,,,,1,1,11,7,,,,,,,,,,,,,,,,,,,AMNE08.jpg,AMSA09.jpg,AMNE06.jpg,AMSA12.jpg,AMSA12.jpg,MS,2,num_4,16,num_4,0.700095163193,,,2017_May_03_1427,60.008218464,FEMA4ImagesEEG,001,100384,
AFNE01.JPG,AFNE01.JPG,AFNE01.JPG,AFNE01.JPG,AFNE01.JPG,AFNE01.JPG,,,,,1,2,12,8,,,,,,,,,,,,,,,,,,,AMNE18.jpg,AMNE09.jpg,AMSA02.jpg,AMSA19.jpg,AMSA19.jpg,MS,2,num_4,32,num_6,0.950069905026,,,2017_May_03_1427,60.008218464,FEMA4ImagesEEG,001,100384,
AFNE01.JPG,AFNE01.JPG,AFNE01.JPG,AFNE01.JPG,AFNE01.JPG,AFNE01.JPG,,,,,1,3,13,1,,,,,,,,,,,,,,,,,,,AMNE05.jpg,AMSA09.jpg,AMNE06.jpg,AMSA16.jpg,AMNE05.jpg,MN,1,num_8,16,num_8,0.733439198695,,,2017_May_03_1427,60.008218464,FEMA4ImagesEEG,001,100384,
AFNE01.JPG,AFNE01.JPG,AFNE01.JPG,AFNE01.JPG,AFNE01.JPG,AFNE01.JPG,,,,,1,4,14,2,,,,,,,,,,,,,,,,,,,AMNE04.jpg,AMSA10.jpg,AMNE13.jpg,AMSA11.jpg,AMSA11.jpg,MS,2,num_4,32,num_2,0.899960196344,,,2017_May_03_1427,60.008218464,FEMA4ImagesEEG,001,100384,
AFNE01.JPG,AFNE01.JPG,AFNE01.JPG,AFNE01.JPG,AFNE01.JPG,AFNE01.JPG,,,,,1,5,15,6,,,,,,,,,,,,,,,,,,,AMSA20.jpg,AMNE11.jpg,AMSA19.jpg,AMNE08.jpg,AMSA20.jpg,MS,2,num_8,16,num_8,1.3333976951,,,2017_May_03_1427,60.008218464,FEMA4ImagesEEG,001,100384,
AFNE01.JPG,AFNE01.JPG,AFNE01.JPG,AFNE01.JPG,AFNE01.JPG,AFNE01.JPG,,,,,1,6,16,0,,,,,,,,,,,,,,,,,,,AMNE17.jpg,AMNE01.jpg,AMSA15.jpg,AMSA02.jpg,AMSA15.jpg,MS,2,num_2,16,num_2,1.36670099641,,,2017_May_03_1427,60.008218464,FEMA4ImagesEEG,001,100384,
AFNE01.JPG,AFNE01.JPG,AFNE01.JPG,AFNE01.JPG,AFNE01.JPG,AFNE01.JPG,,,,,1,7,17,5,,,,,,,,,,,,,,,,,,,AMSA14.jpg,AMNE08.jpg,AMNE04.jpg,AMSA02.jpg,AMSA14.jpg,MS,2,num_8,32,num_4,1.01672846754,,,2017_May_03_1427,60.008218464,FEMA4ImagesEEG,001,100384,
AFNE01.JPG,AFNE01.JPG,AFNE01.JPG,AFNE01.JPG,AFNE01.JPG,AFNE01.JPG,,,,,1,8,18,4,,,,,,,,,,,,,,,,,,,AMSA08.jpg,AMNE11.jpg,AMSA19.jpg,AMNE01.jpg,AMNE01.jpg,MN,1,num_4,32,num_2,1.6166750968,,,2017_May_03_1427,60.008218464,FEMA4ImagesEEG,001,100384,
AFNE01.JPG,AFNE01.JPG,AFNE01.JPG,AFNE01.JPG,AFNE01.JPG,AFNE01.JPG,,,,,1,9,19,3,,,,,,,,,,,,,,,,,,,AMNE18.jpg,AMSA11.jpg,AMNE08.jpg,AMSA01.jpg,AMSA01.jpg,MS,2,num_4,16,num_4,1.05045033363,,,2017_May_03_1427,60.008218464,FEMA4ImagesEEG,001,100384,
AFNE01.JPG,AFNE01.JPG,AFNE01.JPG,AFNE01.JPG,AFNE01.JPG,AFNE01.JPG,,,,,2,0,20,5,,,,,,,,,,,,,,,,,,,AMSA18.jpg,AMSA03.jpg,AMNE10.jpg,AMNE03.jpg,AMNE03.jpg,MN,1,num_4,32,num_6,1.08349127066,,,2017_May_03_1427,60.008218464,FEMA4ImagesEEG,001,100384,
AFNE01.JPG,AFNE01.JPG,AFNE01.JPG,AFNE01.JPG,AFNE01.JPG,AFNE01.JPG,,,,,2,1,21,8,,,,,,,,,,,,,,,,,,,AMSA05.jpg,AMSA04.jpg,AMNE07.jpg,AMNE19.jpg,AMSA04.jpg,MS,2,num_6,16,num_6,1.23341049231,,,2017_May_03_1427,60.008218464,FEMA4ImagesEEG,001,100384,
AFNE01.JPG,AFNE01.JPG,AFNE01.JPG,AFNE01.JPG,AFNE01.JPG,AFNE01.JPG,,,,,2,2,22,3,,,,,,,,,,,,,,,,,,,AMSA06.jpg,AMNE04.jpg,AMSA01.jpg,AMNE09.jpg,AMNE04.jpg,MN,1,num_6,32,num_8,1.26675677299,,,2017_May_03_1427,60.008218464,FEMA4ImagesEEG,001,100384,
AFNE01.JPG,AFNE01.JPG,AFNE01.JPG,AFNE01.JPG,AFNE01.JPG,AFNE01.JPG,,,,,2,3,23,1,,,,,,,,,,,,,,,,,,,AMSA11.jpg,AMNE13.jpg,AMNE14.jpg,AMSA10.jpg,AMSA10.jpg,MS,2,num_4,32,num_2,1.81667227438,,,2017_May_03_1427,60.008218464,FEMA4ImagesEEG,001,100384,
AFNE01.JPG,AFNE01.JPG,AFNE01.JPG,AFNE01.JPG,AFNE01.JPG,AFNE01.JPG,,,,,2,4,24,9,,,,,,,,,,,,,,,,,,,AMSA20.jpg,AMSA16.jpg,AMNE12.jpg,AMNE05.jpg,AMSA16.jpg,MS,2,num_6,32,num_4,1.43337463378,,,2017_May_03_1427,60.008218464,FEMA4ImagesEEG,001,100384,
AFNE01.JPG,AFNE01.JPG,AFNE01.JPG,AFNE01.JPG,AFNE01.JPG,AFNE01.JPG,,,,,2,5,25,2,,,,,,,,,,,,,,,,,,,AMSA15.jpg,AMNE18.jpg,AMNE16.jpg,AMSA12.jpg,AMSA15.jpg,MS,2,num_8,16,num_8,1.15015079547,,,2017_May_03_1427,60.008218464,FEMA4ImagesEEG,001,100384,
AFNE01.JPG,AFNE01.JPG,AFNE01.JPG,AFNE01.JPG,AFNE01.JPG,AFNE01.JPG,,,,,2,6,26,6,,,,,,,,,,,,,,,,,,,AMSA17.jpg,AMNE13.jpg,AMSA04.jpg,AMNE15.jpg,AMNE15.jpg,MN,1,num_4,32,num_2,0.750009862706,,,2017_May_03_1427,60.008218464,FEMA4ImagesEEG,001,100384,
AFNE01.JPG,AFNE01.JPG,AFNE01.JPG,AFNE01.JPG,AFNE01.JPG,AFNE01.JPG,,,,,2,7,27,7,,,,,,,,,,,,,,,,,,,AMNE13.jpg,AMSA09.jpg,AMNE07.jpg,AMSA06.jpg,AMSA06.jpg,MS,2,num_4,32,num_8,0.616843163967,,,2017_May_03_1427,60.008218464,FEMA4ImagesEEG,001,100384,
AFNE01.JPG,AFNE01.JPG,AFNE01.JPG,AFNE01.JPG,AFNE01.JPG,AFNE01.JPG,,,,,2,8,28,0,,,,,,,,,,,,,,,,,,,AMNE08.jpg,AMNE11.jpg,AMSA17.jpg,AMSA09.jpg,AMSA17.jpg,MS,2,num_2,32,num_6,0.400222721277,,,2017_May_03_1427,60.008218464,FEMA4ImagesEEG,001,100384,
AFNE01.JPG,AFNE01.JPG,AFNE01.JPG,AFNE01.JPG,AFNE01.JPG,AFNE01.JPG,,,,,2,9,29,4,,,,,,,,,,,,,,,,,,,AMSA07.jpg,AMNE17.jpg,AMSA05.jpg,AMNE15.jpg,AMNE15.jpg,MN,1,num_4,32,num_2,1.20008666371,,,2017_May_03_1427,60.008218464,FEMA4ImagesEEG,001,100384,
AFNE01.JPG,AFNE01.JPG,AFNE01.JPG,AFNE01.JPG,AFNE01.JPG,AFNE01.JPG,,,,,3,0,30,9,,,,,,,,,,,,,,,,,,,AMNE01.jpg,AMNE14.jpg,AMSA15.jpg,AMSA01.jpg,AMSA01.jpg,MS,2,num_4,32,num_8,0.983442165656,,,2017_May_03_1427,60.008218464,FEMA4ImagesEEG,001,100384,
AFNE01.JPG,AFNE01.JPG,AFNE01.JPG,AFNE01.JPG,AFNE01.JPG,AFNE01.JPG,,,,,3,1,31,4,,,,,,,,,,,,,,,,,,,AMSA06.jpg,AMNE08.jpg,AMSA07.jpg,AMNE03.jpg,AMNE03.jpg,MN,1,num_4,32,num_2,0.666757863481,,,2017_May_03_1427,60.008218464,FEMA4ImagesEEG,001,100384,
AFNE01.JPG,AFNE01.JPG,AFNE01.JPG,AFNE01.JPG,AFNE01.JPG,AFNE01.JPG,,,,,3,2,32,8,,,,,,,,,,,,,,,,,,,AMNE01.jpg,AMSA11.jpg,AMNE11.jpg,AMSA13.jpg,AMNE11.jpg,MN,1,num_2,32,num_8,0.50013775751,,,2017_May_03_1427,60.008218464,FEMA4ImagesEEG,001,100384,
AFNE01.JPG,AFNE01.JPG,AFNE01.JPG,AFNE01.JPG,AFNE01.JPG,AFNE01.JPG,,,,,3,3,33,0,,,,,,,,,,,,,,,,,,,AMSA10.jpg,AMNE09.jpg,AMSA03.jpg,AMNE18.jpg,AMSA03.jpg,MS,2,num_2,16,num_2,0.650128183421,,,2017_May_03_1427,60.008218464,FEMA4ImagesEEG,001,100384,
AFNE01.JPG,AFNE01.JPG,AFNE01.JPG,AFNE01.JPG,AFNE01.JPG,AFNE01.JPG,,,,,3,4,34,2,,,,,,,,,,,,,,,,,,,AMSA18.jpg,AMNE08.jpg,AMSA12.jpg,AMNE11.jpg,AMNE08.jpg,MN,1,num_6,16,num_6,0.983304568566,,,2017_May_03_1427,60.008218464,FEMA4ImagesEEG,001,100384,
AFNE01.JPG,AFNE01.JPG,AFNE01.JPG,AFNE01.JPG,AFNE01.JPG,AFNE01.JPG,,,,,3,5,35,6,,,,,,,,,,,,,,,,,,,AMNE10.jpg,AMNE20.jpg,AMSA11.jpg,AMSA15.jpg,AMSA15.jpg,MS,2,num_4,32,num_8,0.666765240487,,,2017_May_03_1427,60.008218464,FEMA4ImagesEEG,001,100384,
AFNE01.JPG,AFNE01.JPG,AFNE01.JPG,AFNE01.JPG,AFNE01.JPG,AFNE01.JPG,,,,,3,6,36,3,,,,,,,,,,,,,,,,,,,AMNE04.jpg,AMSA11.jpg,AMNE06.jpg,AMSA03.jpg,AMSA11.jpg,MS,2,num_6,32,num_2,0.550148999318,,,2017_May_03_1427,60.008218464,FEMA4ImagesEEG,001,100384,
AFNE01.JPG,AFNE01.JPG,AFNE01.JPG,AFNE01.JPG,AFNE01.JPG,AFNE01.JPG,,,,,3,7,37,1,,,,,,,,,,,,,,,,,,,AMSA12.jpg,AMNE01.jpg,AMNE15.jpg,AMSA13.jpg,AMSA12.jpg,MS,2,num_8,32,num_4,0.933441507863,,,2017_May_03_1427,60.008218464,FEMA4ImagesEEG,001,100384,
AFNE01.JPG,AFNE01.JPG,AFNE01.JPG,AFNE01.JPG,AFNE01.JPG,AFNE01.JPG,,,,,3,8,38,7,,,,,,,,,,,,,,,,,,,AMSA05.jpg,AMNE15.jpg,AMNE11.jpg,AMSA09.jpg,AMSA05.jpg,MS,2,num_8,16,num_8,0.366828650469,,,2017_May_03_1427,60.008218464,FEMA4ImagesEEG,001,100384,
AFNE01.JPG,AFNE01.JPG,AFNE01.JPG,AFNE01.JPG,AFNE01.JPG,AFNE01.JPG,,,,,3,9,39,5,,,,,,,,,,,,,,,,,,,AMNE02.jpg,AMSA09.jpg,AMNE07.jpg,AMSA05.jpg,AMNE02.jpg,MN,1,num_8,32,num_2,0.95014239219,,,2017_May_03_1427,60.008218464,FEMA4ImagesEEG,001,100384,
AFNE01.JPG,AFNE01.JPG,AFNE01.JPG,AFNE01.JPG,AFNE01.JPG,AFNE01.JPG,,,,,4,0,40,9,,,,,,,,,,,,,,,,,,,AMNE16.jpg,AMNE03.jpg,AMSA10.jpg,AMSA19.jpg,AMNE03.jpg,MN,1,num_6,32,num_4,1.03350632917,,,2017_May_03_1427,60.008218464,FEMA4ImagesEEG,001,100384,
AFNE01.JPG,AFNE01.JPG,AFNE01.JPG,AFNE01.JPG,AFNE01.JPG,AFNE01.JPG,,,,,4,1,41,4,,,,,,,,,,,,,,,,,,,AMNE04.jpg,AMSA20.jpg,AMSA17.jpg,AMNE05.jpg,AMSA17.jpg,MS,2,num_2,32,num_6,0.683439824032,,,2017_May_03_1427,60.008218464,FEMA4ImagesEEG,001,100384,
AFNE01.JPG,AFNE01.JPG,AFNE01.JPG,AFNE01.JPG,AFNE01.JPG,AFNE01.JPG,,,,,4,2,42,7,,,,,,,,,,,,,,,,,,,AMSA14.jpg,AMNE10.jpg,AMNE09.jpg,AMSA16.jpg,AMNE10.jpg,MN,1,num_6,32,num_2,0.799996086862,,,2017_May_03_1427,60.008218464,FEMA4ImagesEEG,001,100384,
AFNE01.JPG,AFNE01.JPG,AFNE01.JPG,AFNE01.JPG,AFNE01.JPG,AFNE01.JPG,,,,,4,3,43,8,,,,,,,,,,,,,,,,,,,AMSA02.jpg,AMNE16.jpg,AMSA01.jpg,AMNE03.jpg,AMSA01.jpg,MS,2,num_2,32,num_4,1.68338882667,,,2017_May_03_1427,60.008218464,FEMA4ImagesEEG,001,100384,
AFNE01.JPG,AFNE01.JPG,AFNE01.JPG,AFNE01.JPG,AFNE01.JPG,AFNE01.JPG,,,,,4,4,44,6,,,,,,,,,,,,,,,,,,,AMNE01.jpg,AMSA02.jpg,AMSA05.jpg,AMNE20.jpg,AMNE20.jpg,MN,1,num_4,32,num_6,0.650133636082,,,2017_May_03_1427,60.008218464,FEMA4ImagesEEG,001,100384,
AFNE01.JPG,AFNE01.JPG,AFNE01.JPG,AFNE01.JPG,AFNE01.JPG,AFNE01.JPG,,,,,4,5,45,3,,,,,,,,,,,,,,,,,,,AMNE01.jpg,AMSA07.jpg,AMNE04.jpg,AMSA08.jpg,AMSA08.jpg,MS,2,num_4,32,num_8,0.716762690572,,,2017_May_03_1427,60.008218464,FEMA4ImagesEEG,001,100384,
AFNE01.JPG,AFNE01.JPG,AFNE01.JPG,AFNE01.JPG,AFNE01.JPG,AFNE01.JPG,,,,,4,6,46,2,,,,,,,,,,,,,,,,,,,AMSA15.jpg,AMNE11.jpg,AMNE02.jpg,AMSA14.jpg,AMNE02.jpg,MN,1,num_2,16,num_2,0.766716199461,,,2017_May_03_1427,60.008218464,FEMA4ImagesEEG,001,100384,
AFNE01.JPG,AFNE01.JPG,AFNE01.JPG,AFNE01.JPG,AFNE01.JPG,AFNE01.JPG,,,,,4,7,47,0,,,,,,,,,,,,,,,,,,,AMNE20.jpg,AMNE06.jpg,AMSA20.jpg,AMSA12.jpg,AMSA12.jpg,MS,2,num_4,16,num_4,1.30009278981,,,2017_May_03_1427,60.008218464,FEMA4ImagesEEG,001,100384,
AFNE01.JPG,AFNE01.JPG,AFNE01.JPG,AFNE01.JPG,AFNE01.JPG,AFNE01.JPG,,,,,4,8,48,1,,,,,,,,,,,,,,,,,,,AMSA19.jpg,AMNE04.jpg,AMSA17.jpg,AMNE12.jpg,AMNE04.jpg,MN,1,num_6,32,num_8,0.949944175314,,,2017_May_03_1427,60.008218464,FEMA4ImagesEEG,001,100384,
AFNE01.JPG,AFNE01.JPG,AFNE01.JPG,AFNE01.JPG,AFNE01.JPG,AFNE01.JPG,,,,,4,9,49,5,,,,,,,,,,,,,,,,,,,AMSA04.jpg,AMSA10.jpg,AMNE18.jpg,AMNE14.jpg,AMSA04.jpg,MS,2,num_8,16,num_8,0.866765304701,,,2017_May_03_1427,60.008218464,FEMA4ImagesEEG,001,100384,
AFNE01.JPG,AFNE01.JPG,AFNE01.JPG,AFNE01.JPG,AFNE01.JPG,AFNE01.JPG,,,,,5,0,50,1,,,,,,,,,,,,,,,,,,,AMSA12.jpg,AMSA13.jpg,AMNE14.jpg,AMNE18.jpg,AMNE14.jpg,MN,1,num_2,16,num_2,1.3664572346,,,2017_May_03_1427,60.008218464,FEMA4ImagesEEG,001,100384,
AFNE01.JPG,AFNE01.JPG,AFNE01.JPG,AFNE01.JPG,AFNE01.JPG,AFNE01.JPG,,,,,5,1,51,3,,,,,,,,,,,,,,,,,,,AMNE01.jpg,AMSA11.jpg,AMNE07.jpg,AMSA05.jpg,AMNE07.jpg,MN,1,num_2,32,num_6,0.866769153392,,,2017_May_03_1427,60.008218464,FEMA4ImagesEEG,001,100384,
AFNE01.JPG,AFNE01.JPG,AFNE01.JPG,AFNE01.JPG,AFNE01.JPG,AFNE01.JPG,,,,,5,2,52,2,,,,,,,,,,,,,,,,,,,AMSA08.jpg,AMSA18.jpg,AMNE08.jpg,AMNE20.jpg,AMNE20.jpg,MN,1,num_4,32,num_8,0.766902228119,,,2017_May_03_1427,60.008218464,FEMA4ImagesEEG,001,100384,
AFNE01.JPG,AFNE01.JPG,AFNE01.JPG,AFNE01.JPG,AFNE01.JPG,AFNE01.JPG,,,,,5,3,53,0,,,,,,,,,,,,,,,,,,,AMNE20.jpg,AMSA01.jpg,AMSA02.jpg,AMNE17.jpg,AMSA01.jpg,MS,2,num_6,16,num_6,0.783436969388,,,2017_May_03_1427,60.008218464,FEMA4ImagesEEG,001,100384,
AFNE01.JPG,AFNE01.JPG,AFNE01.JPG,AFNE01.JPG,AFNE01.JPG,AFNE01.JPG,,,,,5,4,54,8,,,,,,,,,,,,,,,,,,,AMSA04.jpg,AMNE06.jpg,AMNE19.jpg,AMSA13.jpg,AMSA13.jpg,MS,2,num_4,32,num_8,1.233398946,,,2017_May_03_1427,60.008218464,FEMA4ImagesEEG,001,100384,
AFNE01.JPG,AFNE01.JPG,AFNE01.JPG,AFNE01.JPG,AFNE01.JPG,AFNE01.JPG,,,,,5,5,55,6,,,,,,,,,,,,,,,,,,,AMSA13.jpg,AMNE01.jpg,AMSA03.jpg,AMNE14.jpg,AMNE14.jpg,MN,1,num_4,16,num_4,1.08345342334,,,2017_May_03_1427,60.008218464,FEMA4ImagesEEG,001,100384,
AFNE01.JPG,AFNE01.JPG,AFNE01.JPG,AFNE01.JPG,AFNE01.JPG,AFNE01.JPG,,,,,5,6,56,5,,,,,,,,,,,,,,,,,,,AMSA12.jpg,AMSA06.jpg,AMNE12.jpg,AMNE18.jpg,AMSA12.jpg,MS,2,num_8,32,num_4,0.900174450129,,,2017_May_03_1427,60.008218464,FEMA4ImagesEEG,001,100384,
AFNE01.JPG,AFNE01.JPG,AFNE01.JPG,AFNE01.JPG,AFNE01.JPG,AFNE01.JPG,,,,,5,7,57,4,,,,,,,,,,,,,,,,,,,AMNE04.jpg,AMSA01.jpg,AMNE20.jpg,AMSA03.jpg,AMNE04.jpg,MN,1,num_8,32,num_2,0.550183960004,,,2017_May_03_1427,60.008218464,FEMA4ImagesEEG,001,100384,
AFNE01.JPG,AFNE01.JPG,AFNE01.JPG,AFNE01.JPG,AFNE01.JPG,AFNE01.JPG,,,,,5,8,58,9,,,,,,,,,,,,,,,,,,,AMSA06.jpg,AMNE15.jpg,AMNE19.jpg,AMSA04.jpg,AMSA06.jpg,MS,2,num_8,16,num_8,0.783481231425,,,2017_May_03_1427,60.008218464,FEMA4ImagesEEG,001,100384,
AFNE01.JPG,AFNE01.JPG,AFNE01.JPG,AFNE01.JPG,AFNE01.JPG,AFNE01.JPG,,,,,5,9,59,7,,,,,,,,,,,,,,,,,,,AMSA15.jpg,AMSA20.jpg,AMNE11.jpg,AMNE10.jpg,AMNE11.jpg,MN,1,num_2,16,num_2,0.883397229947,,,2017_May_03_1427,60.008218464,FEMA4ImagesEEG,001,100384,
,,,,,,,,,,,,,,,,,,,,,,,,,,,,,,,,,,,,,,,,,,,space,14.8486618283,2017_May_03_1427,60.008218464,FEMA4ImagesEEG,001,100384,
AFNE01.JPG,AFNE01.JPG,AFNE01.JPG,AFNE01.JPG,AFNE01.JPG,AFNE01.JPG,,,,,,,,,0,0,0,3,,,,,,,,,,,,,,,AFSA12.jpg,AFNE17.jpg,AFSA07.jpg,AFNE15.jpg,AFNE17.jpg,FN,3,num_6,32,num_4,0.500147379702,,,2017_May_03_1427,60.008218464,FEMA4ImagesEEG,001,100384,
AFNE01.JPG,AFNE01.JPG,AFNE01.JPG,AFNE01.JPG,AFNE01.JPG,AFNE01.JPG,,,,,,,,,0,1,1,0,,,,,,,,,,,,,,,AFSA20.jpg,AFSA19.jpg,AFNE06.jpg,AFNE10.jpg,AFNE10.jpg,FN,3,num_4,32,num_6,0.433497797698,,,2017_May_03_1427,60.008218464,FEMA4ImagesEEG,001,100384,
AFNE01.JPG,AFNE01.JPG,AFNE01.JPG,AFNE01.JPG,AFNE01.JPG,AFNE01.JPG,,,,,,,,,0,2,2,5,,,,,,,,,,,,,,,AFNE14.jpg,AFSA04.jpg,AFSA01.jpg,AFNE04.jpg,AFSA04.jpg,FS,4,num_6,32,num_8,0.333524707472,,,2017_May_03_1427,60.008218464,FEMA4ImagesEEG,001,100384,
AFNE01.JPG,AFNE01.JPG,AFNE01.JPG,AFNE01.JPG,AFNE01.JPG,AFNE01.JPG,,,,,,,,,0,3,3,8,,,,,,,,,,,,,,,AFNE01.jpg,AFSA05.jpg,AFNE07.jpg,AFSA18.jpg,AFNE01.jpg,FN,3,num_8,32,num_2,0.383492329158,,,2017_May_03_1427,60.008218464,FEMA4ImagesEEG,001,100384,
AFNE01.JPG,AFNE01.JPG,AFNE01.JPG,AFNE01.JPG,AFNE01.JPG,AFNE01.JPG,,,,,,,,,0,4,4,2,,,,,,,,,,,,,,,AFSA08.jpg,AFSA20.jpg,AFNE06.jpg,AFNE10.jpg,AFNE10.jpg,FN,3,num_4,16,num_4,0.56675173738,,,2017_May_03_1427,60.008218464,FEMA4ImagesEEG,001,100384,
AFNE01.JPG,AFNE01.JPG,AFNE01.JPG,AFNE01.JPG,AFNE01.JPG,AFNE01.JPG,,,,,,,,,0,5,5,7,,,,,,,,,,,,,,,AFNE08.jpg,AFSA10.jpg,AFNE17.jpg,AFSA12.jpg,AFSA12.jpg,FS,4,num_4,32,num_8,0.500168548431,,,2017_May_03_1427,60.008218464,FEMA4ImagesEEG,001,100384,
AFNE01.JPG,AFNE01.JPG,AFNE01.JPG,AFNE01.JPG,AFNE01.JPG,AFNE01.JPG,,,,,,,,,0,6,6,6,,,,,,,,,,,,,,,AFSA11.jpg,AFSA08.jpg,AFNE12.jpg,AFNE03.jpg,AFSA08.jpg,FS,4,num_6,32,num_2,1.36669650604,,,2017_May_03_1427,60.008218464,FEMA4ImagesEEG,001,100384,
AFNE01.JPG,AFNE01.JPG,AFNE01.JPG,AFNE01.JPG,AFNE01.JPG,AFNE01.JPG,,,,,,,,,0,7,7,4,,,,,,,,,,,,,,,AFNE10.jpg,AFNE08.jpg,AFSA01.jpg,AFSA10.jpg,AFNE08.jpg,FN,3,num_6,32,num_8,0.633477334399,,,2017_May_03_1427,60.008218464,FEMA4ImagesEEG,001,100384,
AFNE01.JPG,AFNE01.JPG,AFNE01.JPG,AFNE01.JPG,AFNE01.JPG,AFNE01.JPG,,,,,,,,,0,8,8,9,,,,,,,,,,,,,,,AFSA12.jpg,AFNE17.jpg,AFNE10.jpg,AFSA09.jpg,AFNE10.jpg,FN,3,num_2,16,num_2,0.500135191483,,,2017_May_03_1427,60.008218464,FEMA4ImagesEEG,001,100384,
AFNE01.JPG,AFNE01.JPG,AFNE01.JPG,AFNE01.JPG,AFNE01.JPG,AFNE01.JPG,,,,,,,,,0,9,9,1,,,,,,,,,,,,,,,AFNE15.jpg,AFNE10.jpg,AFSA05.jpg,AFSA10.jpg,AFNE10.jpg,FN,3,num_6,32,num_4,0.733426689869,,,2017_May_03_1427,60.008218464,FEMA4ImagesEEG,001,100384,
AFNE01.JPG,AFNE01.JPG,AFNE01.JPG,AFNE01.JPG,AFNE01.JPG,AFNE01.JPG,,,,,,,,,1,0,10,9,,,,,,,,,,,,,,,AFNE11.jpg,AFSA01.jpg,AFNE19.jpg,AFSA20.jpg,AFSA01.jpg,FS,4,num_6,16,num_6,0.583167163655,,,2017_May_03_1427,60.008218464,FEMA4ImagesEEG,001,100384,
AFNE01.JPG,AFNE01.JPG,AFNE01.JPG,AFNE01.JPG,AFNE01.JPG,AFNE01.JPG,,,,,,,,,1,1,11,0,,,,,,,,,,,,,,,AFSA17.jpg,AFNE14.jpg,AFNE01.jpg,AFSA05.jpg,AFSA05.jpg,FS,4,num_4,32,num_8,0.93344279076,,,2017_May_03_1427,60.008218464,FEMA4ImagesEEG,001,100384,
AFNE01.JPG,AFNE01.JPG,AFNE01.JPG,AFNE01.JPG,AFNE01.JPG,AFNE01.JPG,,,,,,,,,1,2,12,4,,,,,,,,,,,,,,,AFNE12.jpg,AFSA08.jpg,AFSA03.jpg,AFNE16.jpg,AFNE16.jpg,FN,3,num_4,32,num_2,0.550161508145,,,2017_May_03_1427,60.008218464,FEMA4ImagesEEG,001,100384,
AFNE01.JPG,AFNE01.JPG,AFNE01.JPG,AFNE01.JPG,AFNE01.JPG,AFNE01.JPG,,,,,,,,,1,3,13,3,,,,,,,,,,,,,,,AFSA07.jpg,AFNE04.jpg,AFNE01.jpg,AFSA09.jpg,AFNE04.jpg,FN,3,num_6,32,num_8,0.333477238426,,,2017_May_03_1427,60.008218464,FEMA4ImagesEEG,001,100384,
AFNE01.JPG,AFNE01.JPG,AFNE01.JPG,AFNE01.JPG,AFNE01.JPG,AFNE01.JPG,,,,,,,,,1,4,14,1,,,,,,,,,,,,,,,AFSA16.jpg,AFNE02.jpg,AFNE07.jpg,AFSA10.jpg,AFNE07.jpg,FN,3,num_2,16,num_2,2.96662549442,,,2017_May_03_1427,60.008218464,FEMA4ImagesEEG,001,100384,
AFNE01.JPG,AFNE01.JPG,AFNE01.JPG,AFNE01.JPG,AFNE01.JPG,AFNE01.JPG,,,,,,,,,1,5,15,8,,,,,,,,,,,,,,,AFNE14.jpg,AFSA18.jpg,AFSA16.jpg,AFNE08.jpg,AFSA18.jpg,FS,4,num_6,16,num_6,0.816745082149,,,2017_May_03_1427,60.008218464,FEMA4ImagesEEG,001,100384,
AFNE01.JPG,AFNE01.JPG,AFNE01.JPG,AFNE01.JPG,AFNE01.JPG,AFNE01.JPG,,,,,,,,,1,6,16,2,,,,,,,,,,,,,,,AFSA19.jpg,AFSA18.jpg,AFNE07.jpg,AFNE05.jpg,AFSA18.jpg,FS,4,num_6,16,num_6,0.900100038387,,,2017_May_03_1427,60.008218464,FEMA4ImagesEEG,001,100384,
AFNE01.JPG,AFNE01.JPG,AFNE01.JPG,AFNE01.JPG,AFNE01.JPG,AFNE01.JPG,,,,,,,,,1,7,17,5,,,,,,,,,,,,,,,AFSA15.jpg,AFSA07.jpg,AFNE08.jpg,AFNE11.jpg,AFSA07.jpg,FS,4,num_6,32,num_8,1.10014885501,,,2017_May_03_1427,60.008218464,FEMA4ImagesEEG,001,100384,
AFNE01.JPG,AFNE01.JPG,AFNE01.JPG,AFNE01.JPG,AFNE01.JPG,AFNE01.JPG,,,,,,,,,1,8,18,7,,,,,,,,,,,,,,,AFSA13.jpg,AFNE10.jpg,AFSA05.jpg,AFNE04.jpg,AFNE10.jpg,FN,3,num_6,32,num_4,1.81669568829,,,2017_May_03_1427,60.008218464,FEMA4ImagesEEG,001,100384,
AFNE01.JPG,AFNE01.JPG,AFNE01.JPG,AFNE01.JPG,AFNE01.JPG,AFNE01.JPG,,,,,,,,,1,9,19,6,,,,,,,,,,,,,,,AFSA07.jpg,AFSA18.jpg,AFNE07.jpg,AFNE13.jpg,AFSA07.jpg,FS,4,num_8,16,num_8,0.683478633408,,,2017_May_03_1427,60.008218464,FEMA4ImagesEEG,001,100384,
AFNE01.JPG,AFNE01.JPG,AFNE01.JPG,AFNE01.JPG,AFNE01.JPG,AFNE01.JPG,,,,,,,,,2,0,20,0,,,,,,,,,,,,,,,AFSA01.jpg,AFNE16.jpg,AFNE03.jpg,AFSA16.jpg,AFNE16.jpg,FN,3,num_6,32,num_4,1.78338436829,,,2017_May_03_1427,60.008218464,FEMA4ImagesEEG,001,100384,
AFNE01.JPG,AFNE01.JPG,AFNE01.JPG,AFNE01.JPG,AFNE01.JPG,AFNE01.JPG,,,,,,,,,2,1,21,3,,,,,,,,,,,,,,,AFNE15.jpg,AFNE13.jpg,AFSA19.jpg,AFSA16.jpg,AFNE15.jpg,FN,3,num_8,16,num_8,0.766780668171,,,2017_May_03_1427,60.008218464,FEMA4ImagesEEG,001,100384,
AFNE01.JPG,AFNE01.JPG,AFNE01.JPG,AFNE01.JPG,AFNE01.JPG,AFNE01.JPG,,,,,,,,,2,2,22,7,,,,,,,,,,,,,,,AFSA13.jpg,AFNE05.jpg,AFSA01.jpg,AFNE02.jpg,AFSA13.jpg,FS,4,num_8,32,num_4,1.23347143293,,,2017_May_03_1427,60.008218464,FEMA4ImagesEEG,001,100384,
AFNE01.JPG,AFNE01.JPG,AFNE01.JPG,AFNE01.JPG,AFNE01.JPG,AFNE01.JPG,,,,,,,,,2,3,23,2,,,,,,,,,,,,,,,AFSA07.jpg,AFSA06.jpg,AFNE08.jpg,AFNE14.jpg,AFSA06.jpg,FS,4,num_6,16,num_6,0.883456245996,,,2017_May_03_1427,60.008218464,FEMA4ImagesEEG,001,100384,
AFNE01.JPG,AFNE01.JPG,AFNE01.JPG,AFNE01.JPG,AFNE01.JPG,AFNE01.JPG,,,,,,,,,2,4,24,1,,,,,,,,,,,,,,,AFNE07.jpg,AFNE08.jpg,AFSA15.jpg,AFSA19.jpg,AFSA19.jpg,FS,4,num_4,32,num_2,0.78346808115,,,2017_May_03_1427,60.008218464,FEMA4ImagesEEG,001,100384,
AFNE01.JPG,AFNE01.JPG,AFNE01.JPG,AFNE01.JPG,AFNE01.JPG,AFNE01.JPG,,,,,,,,,2,5,25,8,,,,,,,,,,,,,,,AFSA16.jpg,AFNE05.jpg,AFSA05.jpg,AFNE01.jpg,AFSA05.jpg,FS,4,num_2,32,num_6,1.28339350922,,,2017_May_03_1427,60.008218464,FEMA4ImagesEEG,001,100384,
AFNE01.JPG,AFNE01.JPG,AFNE01.JPG,AFNE01.JPG,AFNE01.JPG,AFNE01.JPG,,,,,,,,,2,6,26,9,,,,,,,,,,,,,,,AFNE18.jpg,AFSA01.jpg,AFSA13.jpg,AFNE14.jpg,AFNE14.jpg,FN,3,num_4,32,num_8,1.03342967248,,,2017_May_03_1427,60.008218464,FEMA4ImagesEEG,001,100384,
AFNE01.JPG,AFNE01.JPG,AFNE01.JPG,AFNE01.JPG,AFNE01.JPG,AFNE01.JPG,,,,,,,,,2,7,27,5,,,,,,,,,,,,,,,AFNE20.jpg,AFSA14.jpg,AFSA03.jpg,AFNE06.jpg,AFSA03.jpg,FS,4,num_2,16,num_2,0.900084964,,,2017_May_03_1427,60.008218464,FEMA4ImagesEEG,001,100384,
AFNE01.JPG,AFNE01.JPG,AFNE01.JPG,AFNE01.JPG,AFNE01.JPG,AFNE01.JPG,,,,,,,,,2,8,28,6,,,,,,,,,,,,,,,AFSA02.jpg,AFNE19.jpg,AFSA03.jpg,AFNE15.jpg,AFSA03.jpg,FS,4,num_2,32,num_8,0.916716889013,,,2017_May_03_1427,60.008218464,FEMA4ImagesEEG,001,100384,
AFNE01.JPG,AFNE01.JPG,AFNE01.JPG,AFNE01.JPG,AFNE01.JPG,AFNE01.JPG,,,,,,,,,2,9,29,4,,,,,,,,,,,,,,,AFNE04.jpg,AFSA07.jpg,AFNE03.jpg,AFSA01.jpg,AFNE04.jpg,FN,3,num_8,32,num_6,0.733291017124,,,2017_May_03_1427,60.008218464,FEMA4ImagesEEG,001,100384,
AFNE01.JPG,AFNE01.JPG,AFNE01.JPG,AFNE01.JPG,AFNE01.JPG,AFNE01.JPG,,,,,,,,,3,0,30,8,,,,,,,,,,,,,,,AFNE19.jpg,AFSA10.jpg,AFNE07.jpg,AFSA07.jpg,AFSA07.jpg,FS,4,num_4,32,num_8,0.50011113612,,,2017_May_03_1427,60.008218464,FEMA4ImagesEEG,001,100384,
AFNE01.JPG,AFNE01.JPG,AFNE01.JPG,AFNE01.JPG,AFNE01.JPG,AFNE01.JPG,,,,,,,,,3,1,31,2,,,,,,,,,,,,,,,AFNE01.jpg,AFSA16.jpg,AFSA15.jpg,AFNE18.jpg,AFNE01.jpg,FN,3,num_8,32,num_2,1.033457577,,,2017_May_03_1427,60.008218464,FEMA4ImagesEEG,001,100384,
AFNE01.JPG,AFNE01.JPG,AFNE01.JPG,AFNE01.JPG,AFNE01.JPG,AFNE01.JPG,,,,,,,,,3,2,32,9,,,,,,,,,,,,,,,AFSA05.jpg,AFNE05.jpg,AFNE06.jpg,AFSA12.jpg,AFNE05.jpg,FN,3,num_6,32,num_8,0.533468321664,,,2017_May_03_1427,60.008218464,FEMA4ImagesEEG,001,100384,
AFNE01.JPG,AFNE01.JPG,AFNE01.JPG,AFNE01.JPG,AFNE01.JPG,AFNE01.JPG,,,,,,,,,3,3,33,0,,,,,,,,,,,,,,,AFSA02.jpg,AFNE15.jpg,AFNE17.jpg,AFSA11.jpg,AFSA11.jpg,FS,4,num_4,16,num_4,0.450138382846,,,2017_May_03_1427,60.008218464,FEMA4ImagesEEG,001,100384,
AFNE01.JPG,AFNE01.JPG,AFNE01.JPG,AFNE01.JPG,AFNE01.JPG,AFNE01.JPG,,,,,,,,,3,4,34,1,,,,,,,,,,,,,,,AFSA03.jpg,AFSA14.jpg,AFNE10.jpg,AFNE17.jpg,AFNE17.jpg,FN,3,num_4,32,num_2,0.70013974607,,,2017_May_03_1427,60.008218464,FEMA4ImagesEEG,001,100384,
AFNE01.JPG,AFNE01.JPG,AFNE01.JPG,AFNE01.JPG,AFNE01.JPG,AFNE01.JPG,,,,,,,,,3,5,35,3,,,,,,,,,,,,,,,AFNE13.jpg,AFSA19.jpg,AFNE08.jpg,AFSA13.jpg,AFSA19.jpg,FS,4,num_6,32,num_8,0.883512375178,,,2017_May_03_1427,60.008218464,FEMA4ImagesEEG,001,100384,
AFNE01.JPG,AFNE01.JPG,AFNE01.JPG,AFNE01.JPG,AFNE01.JPG,AFNE01.JPG,,,,,,,,,3,6,36,5,,,,,,,,,,,,,,,AFNE14.jpg,AFNE09.jpg,AFSA20.jpg,AFSA02.jpg,AFNE14.jpg,FN,3,num_8,32,num_2,1.00015138881,,,2017_May_03_1427,60.008218464,FEMA4ImagesEEG,001,100384,
AFNE01.JPG,AFNE01.JPG,AFNE01.JPG,AFNE01.JPG,AFNE01.JPG,AFNE01.JPG,,,,,,,,,3,7,37,6,,,,,,,,,,,,,,,AFNE20.jpg,AFSA15.jpg,AFNE08.jpg,AFSA12.jpg,AFNE08.jpg,FN,3,num_2,32,num_8,0.833495360101,,,2017_May_03_1427,60.008218464,FEMA4ImagesEEG,001,100384,
AFNE01.JPG,AFNE01.JPG,AFNE01.JPG,AFNE01.JPG,AFNE01.JPG,AFNE01.JPG,,,,,,,,,3,8,38,4,,,,,,,,,,,,,,,AFNE17.jpg,AFNE07.jpg,AFSA12.jpg,AFSA14.jpg,AFNE07.jpg,FN,3,num_6,32,num_2,0.650123051601,,,2017_May_03_1427,60.008218464,FEMA4ImagesEEG,001,100384,
AFNE01.JPG,AFNE01.JPG,AFNE01.JPG,AFNE01.JPG,AFNE01.JPG,AFNE01.JPG,,,,,,,,,3,9,39,7,,,,,,,,,,,,,,,AFNE12.jpg,AFNE15.jpg,AFSA04.jpg,AFSA10.jpg,AFSA10.jpg,FS,4,num_4,32,num_8,0.616785751656,,,2017_May_03_1427,60.008218464,FEMA4ImagesEEG,001,100384,
AFNE01.JPG,AFNE01.JPG,AFNE01.JPG,AFNE01.JPG,AFNE01.JPG,AFNE01.JPG,,,,,,,,,4,0,40,8,,,,,,,,,,,,,,,AFSA08.jpg,AFSA19.jpg,AFNE12.jpg,AFNE09.jpg,AFSA19.jpg,FS,4,num_6,32,num_2,1.20007543778,,,2017_May_03_1427,60.008218464,FEMA4ImagesEEG,001,100384,
AFNE01.JPG,AFNE01.JPG,AFNE01.JPG,AFNE01.JPG,AFNE01.JPG,AFNE01.JPG,,,,,,,,,4,1,41,5,,,,,,,,,,,,,,,AFNE16.jpg,AFSA19.jpg,AFNE02.jpg,AFSA20.jpg,AFNE16.jpg,FN,3,num_8,32,num_6,0.966717867181,,,2017_May_03_1427,60.008218464,FEMA4ImagesEEG,001,100384,
AFNE01.JPG,AFNE01.JPG,AFNE01.JPG,AFNE01.JPG,AFNE01.JPG,AFNE01.JPG,,,,,,,,,4,2,42,4,,,,,,,,,,,,,,,AFSA13.jpg,AFSA05.jpg,AFNE13.jpg,AFNE12.jpg,AFNE13.jpg,FN,3,num_2,32,num_8,0.666782560293,,,2017_May_03_1427,60.008218464,FEMA4ImagesEEG,001,100384,
AFNE01.JPG,AFNE01.JPG,AFNE01.JPG,AFNE01.JPG,AFNE01.JPG,AFNE01.JPG,,,,,,,,,4,3,43,7,,,,,,,,,,,,,,,AFNE20.jpg,AFSA16.jpg,AFSA07.jpg,AFNE10.jpg,AFSA16.jpg,FS,4,num_6,32,num_2,0.91671977588,,,2017_May_03_1427,60.008218464,FEMA4ImagesEEG,001,100384,
AFNE01.JPG,AFNE01.JPG,AFNE01.JPG,AFNE01.JPG,AFNE01.JPG,AFNE01.JPG,,,,,,,,,4,4,44,2,,,,,,,,,,,,,,,AFNE04.jpg,AFNE11.jpg,AFSA15.jpg,AFSA16.jpg,AFSA15.jpg,FS,4,num_2,16,num_2,1.0500975207,,,2017_May_03_1427,60.008218464,FEMA4ImagesEEG,001,100384,
AFNE01.JPG,AFNE01.JPG,AFNE01.JPG,AFNE01.JPG,AFNE01.JPG,AFNE01.JPG,,,,,,,,,4,5,45,0,,,,,,,,,,,,,,,AFSA07.jpg,AFSA20.jpg,AFNE13.jpg,AFNE09.jpg,AFNE13.jpg,FN,3,num_2,32,num_4,0.76678644144,,,2017_May_03_1427,60.008218464,FEMA4ImagesEEG,001,100384,
AFNE01.JPG,AFNE01.JPG,AFNE01.JPG,AFNE01.JPG,AFNE01.JPG,AFNE01.JPG,,,,,,,,,4,6,46,1,,,,,,,,,,,,,,,AFNE05.jpg,AFSA20.jpg,AFSA03.jpg,AFNE09.jpg,AFNE05.jpg,FN,3,num_8,32,num_6,0.833462965442,,,2017_May_03_1427,60.008218464,FEMA4ImagesEEG,001,100384,
AFNE01.JPG,AFNE01.JPG,AFNE01.JPG,AFNE01.JPG,AFNE01.JPG,AFNE01.JPG,,,,,,,,,4,7,47,3,,,,,,,,,,,,,,,AFSA11.jpg,AFNE07.jpg,AFNE19.jpg,AFSA13.jpg,AFNE19.jpg,FN,3,num_2,16,num_2,0.800197832054,,,2017_May_03_1427,60.008218464,FEMA4ImagesEEG,001,100384,
AFNE01.JPG,AFNE01.JPG,AFNE01.JPG,AFNE01.JPG,AFNE01.JPG,AFNE01.JPG,,,,,,,,,4,8,48,6,,,,,,,,,,,,,,,AFSA12.jpg,AFSA10.jpg,AFNE15.jpg,AFNE05.jpg,AFSA10.jpg,FS,4,num_6,32,num_8,0.816642766353,,,2017_May_03_1427,60.008218464,FEMA4ImagesEEG,001,100384,
AFNE01.JPG,AFNE01.JPG,AFNE01.JPG,AFNE01.JPG,AFNE01.JPG,AFNE01.JPG,,,,,,,,,4,9,49,9,,,,,,,,,,,,,,,AFNE11.jpg,AFSA13.jpg,AFSA14.jpg,AFNE20.jpg,AFNE20.jpg,FN,3,num_4,32,num_2,0.650136522716,,,2017_May_03_1427,60.008218464,FEMA4ImagesEEG,001,100384,
AFNE01.JPG,AFNE01.JPG,AFNE01.JPG,AFNE01.JPG,AFNE01.JPG,AFNE01.JPG,,,,,,,,,5,0,50,4,,,,,,,,,,,,,,,AFSA20.jpg,AFSA12.jpg,AFNE20.jpg,AFNE16.jpg,AFNE16.jpg,FN,3,num_4,16,num_4,1.08345085755,,,2017_May_03_1427,60.008218464,FEMA4ImagesEEG,001,100384,
AFNE01.JPG,AFNE01.JPG,AFNE01.JPG,AFNE01.JPG,AFNE01.JPG,AFNE01.JPG,,,,,,,,,5,1,51,7,,,,,,,,,,,,,,,AFNE05.jpg,AFSA13.jpg,AFNE19.jpg,AFSA15.jpg,AFSA13.jpg,FS,4,num_6,16,num_6,0.666749203578,,,2017_May_03_1427,60.008218464,FEMA4ImagesEEG,001,100384,
AFNE01.JPG,AFNE01.JPG,AFNE01.JPG,AFNE01.JPG,AFNE01.JPG,AFNE01.JPG,,,,,,,,,5,2,52,0,,,,,,,,,,,,,,,AFSA18.jpg,AFNE11.jpg,AFNE09.jpg,AFSA19.jpg,AFNE11.jpg,FN,3,num_6,16,num_6,0.550298463786,,,2017_May_03_1427,60.008218464,FEMA4ImagesEEG,001,100384,
AFNE01.JPG,AFNE01.JPG,AFNE01.JPG,AFNE01.JPG,AFNE01.JPG,AFNE01.JPG,,,,,,,,,5,3,53,6,,,,,,,,,,,,,,,AFNE02.jpg,AFNE16.jpg,AFSA18.jpg,AFSA05.jpg,AFNE16.jpg,FN,3,num_6,32,num_8,0.800099685788,,,2017_May_03_1427,60.008218464,FEMA4ImagesEEG,001,100384,
AFNE01.JPG,AFNE01.JPG,AFNE01.JPG,AFNE01.JPG,AFNE01.JPG,AFNE01.JPG,,,,,,,,,5,4,54,2,,,,,,,,,,,,,,,AFNE06.jpg,AFSA11.jpg,AFNE08.jpg,AFSA02.jpg,AFNE08.jpg,FN,3,num_2,32,num_8,0.816778438864,,,2017_May_03_1427,60.008218464,FEMA4ImagesEEG,001,100384,
AFNE01.JPG,AFNE01.JPG,AFNE01.JPG,AFNE01.JPG,AFNE01.JPG,AFNE01.JPG,,,,,,,,,5,5,55,1,,,,,,,,,,,,,,,AFNE15.jpg,AFNE12.jpg,AFSA20.jpg,AFSA05.jpg,AFSA20.jpg,FS,4,num_2,16,num_2,0.583172616316,,,2017_May_03_1427,60.008218464,FEMA4ImagesEEG,001,100384,
AFNE01.JPG,AFNE01.JPG,AFNE01.JPG,AFNE01.JPG,AFNE01.JPG,AFNE01.JPG,,,,,,,,,5,6,56,3,,,,,,,,,,,,,,,AFSA19.jpg,AFNE13.jpg,AFSA11.jpg,AFNE04.jpg,AFSA11.jpg,FS,4,num_2,32,num_4,0.583439792041,,,2017_May_03_1427,60.008218464,FEMA4ImagesEEG,001,100384,
AFNE01.JPG,AFNE01.JPG,AFNE01.JPG,AFNE01.JPG,AFNE01.JPG,AFNE01.JPG,,,,,,,,,5,7,57,5,,,,,,,,,,,,,,,AFSA05.jpg,AFNE05.jpg,AFNE08.jpg,AFSA18.jpg,AFSA05.jpg,FS,4,num_8,32,num_4,0.88344245404,,,2017_May_03_1427,60.008218464,FEMA4ImagesEEG,001,100384,
AFNE01.JPG,AFNE01.JPG,AFNE01.JPG,AFNE01.JPG,AFNE01.JPG,AFNE01.JPG,,,,,,,,,5,8,58,8,,,,,,,,,,,,,,,AFNE15.jpg,AFNE01.jpg,AFSA02.jpg,AFSA06.jpg,AFSA06.jpg,FS,4,num_4,32,num_6,0.48347119242,,,2017_May_03_1427,60.008218464,FEMA4ImagesEEG,001,100384,
AFNE01.JPG,AFNE01.JPG,AFNE01.JPG,AFNE01.JPG,AFNE01.JPG,AFNE01.JPG,,,,,,,,,5,9,59,9,,,,,,,,,,,,,,,AFSA09.jpg,AFNE17.jpg,AFNE08.jpg,AFSA19.jpg,AFSA09.jpg,FS,4,num_8,16,num_8,0.366845329059,,,2017_May_03_1427,60.008218464,FEMA4ImagesEEG,001,100384,
,,,,,,,,,,,,,,,,,,,,,,,,,,,,,,,,,,,,,,,,,,,space,38.2634477078,2017_May_03_1427,60.008218464,FEMA4ImagesEEG,001,100384,
AFNE01.JPG,AFNE01.JPG,AFNE01.JPG,AFNE01.JPG,AFNE01.JPG,AFNE01.JPG,,,,,,,,,,,,,0,0,0,7,,,,,,,,,,,AMSA18.jpg,AMNE17.jpg,AMNE19.jpg,AMSA04.jpg,AMSA18.jpg,MS,2,num_8,32,num_6,0.866807321552,,,2017_May_03_1427,60.008218464,FEMA4ImagesEEG,001,100384,
AFNE01.JPG,AFNE01.JPG,AFNE01.JPG,AFNE01.JPG,AFNE01.JPG,AFNE01.JPG,,,,,,,,,,,,,0,1,1,6,,,,,,,,,,,AMSA10.jpg,AMNE17.jpg,AMNE14.jpg,AMSA08.jpg,AMNE17.jpg,MN,1,num_6,32,num_2,0.883509809384,,,2017_May_03_1427,60.008218464,FEMA4ImagesEEG,001,100384,
AFNE01.JPG,AFNE01.JPG,AFNE01.JPG,AFNE01.JPG,AFNE01.JPG,AFNE01.JPG,,,,,,,,,,,,,0,2,2,4,,,,,,,,,,,AMNE17.jpg,AMSA01.jpg,AMSA04.jpg,AMNE09.jpg,AMSA01.jpg,MS,2,num_6,16,num_6,0.516769361915,,,2017_May_03_1427,60.008218464,FEMA4ImagesEEG,001,100384,
AFNE01.JPG,AFNE01.JPG,AFNE01.JPG,AFNE01.JPG,AFNE01.JPG,AFNE01.JPG,,,,,,,,,,,,,0,3,3,5,,,,,,,,,,,AMSA05.jpg,AMNE19.jpg,AMSA06.jpg,AMNE08.jpg,AMNE19.jpg,MN,1,num_6,32,num_8,0.58340258617,,,2017_May_03_1427,60.008218464,FEMA4ImagesEEG,001,100384,
AFNE01.JPG,AFNE01.JPG,AFNE01.JPG,AFNE01.JPG,AFNE01.JPG,AFNE01.JPG,,,,,,,,,,,,,0,4,4,8,,,,,,,,,,,AMNE20.jpg,AMNE16.jpg,AMSA07.jpg,AMSA17.jpg,AMSA07.jpg,MS,2,num_2,16,num_2,0.783473533578,,,2017_May_03_1427,60.008218464,FEMA4ImagesEEG,001,100384,
AFNE01.JPG,AFNE01.JPG,AFNE01.JPG,AFNE01.JPG,AFNE01.JPG,AFNE01.JPG,,,,,,,,,,,,,0,5,5,1,,,,,,,,,,,AMSA11.jpg,AMSA07.jpg,AMNE10.jpg,AMNE05.jpg,AMSA11.jpg,MS,2,num_8,32,num_4,0.583472828148,,,2017_May_03_1427,60.008218464,FEMA4ImagesEEG,001,100384,
AFNE01.JPG,AFNE01.JPG,AFNE01.JPG,AFNE01.JPG,AFNE01.JPG,AFNE01.JPG,,,,,,,,,,,,,0,6,6,9,,,,,,,,,,,AMNE10.jpg,AMSA02.jpg,AMSA18.jpg,AMNE09.jpg,AMSA02.jpg,MS,2,num_6,32,num_8,0.533535997616,,,2017_May_03_1427,60.008218464,FEMA4ImagesEEG,001,100384,
AFNE01.JPG,AFNE01.JPG,AFNE01.JPG,AFNE01.JPG,AFNE01.JPG,AFNE01.JPG,,,,,,,,,,,,,0,7,7,0,,,,,,,,,,,AMSA19.jpg,AMSA20.jpg,AMNE06.jpg,AMNE14.jpg,AMNE06.jpg,MN,1,num_2,16,num_2,0.616852465551,,,2017_May_03_1427,60.008218464,FEMA4ImagesEEG,001,100384,
AFNE01.JPG,AFNE01.JPG,AFNE01.JPG,AFNE01.JPG,AFNE01.JPG,AFNE01.JPG,,,,,,,,,,,,,0,8,8,3,,,,,,,,,,,AMNE02.jpg,AMNE18.jpg,AMSA07.jpg,AMSA06.jpg,AMSA07.jpg,MS,2,num_2,16,num_2,0.950081772404,,,2017_May_03_1427,60.008218464,FEMA4ImagesEEG,001,100384,
AFNE01.JPG,AFNE01.JPG,AFNE01.JPG,AFNE01.JPG,AFNE01.JPG,AFNE01.JPG,,,,,,,,,,,,,0,9,9,2,,,,,,,,,,,AMSA09.jpg,AMNE16.jpg,AMNE09.jpg,AMSA08.jpg,AMNE09.jpg,MN,1,num_2,16,num_2,0.566777717322,,,2017_May_03_1427,60.008218464,FEMA4ImagesEEG,001,100384,
AFNE01.JPG,AFNE01.JPG,AFNE01.JPG,AFNE01.JPG,AFNE01.JPG,AFNE01.JPG,,,,,,,,,,,,,1,0,10,0,,,,,,,,,,,AMNE04.jpg,AMNE10.jpg,AMSA08.jpg,AMSA04.jpg,AMNE10.jpg,MN,1,num_6,32,num_4,0.866742211627,,,2017_May_03_1427,60.008218464,FEMA4ImagesEEG,001,100384,
AFNE01.JPG,AFNE01.JPG,AFNE01.JPG,AFNE01.JPG,AFNE01.JPG,AFNE01.JPG,,,,,,,,,,,,,1,1,11,1,,,,,,,,,,,AMNE20.jpg,AMSA17.jpg,AMSA01.jpg,AMNE14.jpg,AMSA17.jpg,MS,2,num_6,16,num_6,0.633468353655,,,2017_May_03_1427,60.008218464,FEMA4ImagesEEG,001,100384,
AFNE01.JPG,AFNE01.JPG,AFNE01.JPG,AFNE01.JPG,AFNE01.JPG,AFNE01.JPG,,,,,,,,,,,,,1,2,12,4,,,,,,,,,,,AMNE05.jpg,AMSA05.jpg,AMNE15.jpg,AMSA20.jpg,AMSA05.jpg,MS,2,num_6,32,num_2,1.2500927737,,,2017_May_03_1427,60.008218464,FEMA4ImagesEEG,001,100384,
AFNE01.JPG,AFNE01.JPG,AFNE01.JPG,AFNE01.JPG,AFNE01.JPG,AFNE01.JPG,,,,,,,,,,,,,1,3,13,3,,,,,,,,,,,AMNE16.jpg,AMSA07.jpg,AMNE20.jpg,AMSA02.jpg,AMSA02.jpg,MS,2,num_4,32,num_8,0.466754912632,,,2017_May_03_1427,60.008218464,FEMA4ImagesEEG,001,100384,
AFNE01.JPG,AFNE01.JPG,AFNE01.JPG,AFNE01.JPG,AFNE01.JPG,AFNE01.JPG,,,,,,,,,,,,,1,4,14,5,,,,,,,,,,,AMSA04.jpg,AMSA14.jpg,AMNE18.jpg,AMNE13.jpg,AMNE18.jpg,MN,1,num_2,32,num_4,0.850138511276,,,2017_May_03_1427,60.008218464,FEMA4ImagesEEG,001,100384,
AFNE01.JPG,AFNE01.JPG,AFNE01.JPG,AFNE01.JPG,AFNE01.JPG,AFNE01.JPG,,,,,,,,,,,,,1,5,15,7,,,,,,,,,,,AMSA13.jpg,AMNE20.jpg,AMNE14.jpg,AMSA10.jpg,AMNE14.jpg,MN,1,num_2,16,num_2,0.650161219528,,,2017_May_03_1427,60.008218464,FEMA4ImagesEEG,001,100384,
AFNE01.JPG,AFNE01.JPG,AFNE01.JPG,AFNE01.JPG,AFNE01.JPG,AFNE01.JPG,,,,,,,,,,,,,1,6,16,9,,,,,,,,,,,AMSA17.jpg,AMNE14.jpg,AMNE08.jpg,AMSA06.jpg,AMSA06.jpg,MS,2,num_4,16,num_4,0.516775135417,,,2017_May_03_1427,60.008218464,FEMA4ImagesEEG,001,100384,
AFNE01.JPG,AFNE01.JPG,AFNE01.JPG,AFNE01.JPG,AFNE01.JPG,AFNE01.JPG,,,,,,,,,,,,,1,7,17,2,,,,,,,,,,,AMNE14.jpg,AMSA05.jpg,AMNE11.jpg,AMSA03.jpg,AMNE14.jpg,MN,1,num_8,16,num_8,0.983472956577,,,2017_May_03_1427,60.008218464,FEMA4ImagesEEG,001,100384,
AFNE01.JPG,AFNE01.JPG,AFNE01.JPG,AFNE01.JPG,AFNE01.JPG,AFNE01.JPG,,,,,,,,,,,,,1,8,18,6,,,,,,,,,,,AMSA18.jpg,AMNE13.jpg,AMSA15.jpg,AMNE20.jpg,AMNE20.jpg,MN,1,num_4,32,num_2,1.25008090655,,,2017_May_03_1427,60.008218464,FEMA4ImagesEEG,001,100384,
AFNE01.JPG,AFNE01.JPG,AFNE01.JPG,AFNE01.JPG,AFNE01.JPG,AFNE01.JPG,,,,,,,,,,,,,1,9,19,8,,,,,,,,,,,AMSA04.jpg,AMSA17.jpg,AMNE14.jpg,AMNE19.jpg,AMNE19.jpg,MN,1,num_4,16,num_4,0.900097793434,,,2017_May_03_1427,60.008218464,FEMA4ImagesEEG,001,100384,
AFNE01.JPG,AFNE01.JPG,AFNE01.JPG,AFNE01.JPG,AFNE01.JPG,AFNE01.JPG,,,,,,,,,,,,,2,0,20,5,,,,,,,,,,,AMSA05.jpg,AMNE09.jpg,AMSA19.jpg,AMNE18.jpg,AMSA19.jpg,MS,2,num_2,32,num_8,0.433593698777,,,2017_May_03_1427,60.008218464,FEMA4ImagesEEG,001,100384,
AFNE01.JPG,AFNE01.JPG,AFNE01.JPG,AFNE01.JPG,AFNE01.JPG,AFNE01.JPG,,,,,,,,,,,,,2,1,21,1,,,,,,,,,,,AMSA08.jpg,AMSA09.jpg,AMNE10.jpg,AMNE05.jpg,AMNE05.jpg,MN,1,num_4,32,num_6,1.63342088438,,,2017_May_03_1427,60.008218464,FEMA4ImagesEEG,001,100384,
AFNE01.JPG,AFNE01.JPG,AFNE01.JPG,AFNE01.JPG,AFNE01.JPG,AFNE01.JPG,,,,,,,,,,,,,2,2,22,9,,,,,,,,,,,AMSA08.jpg,AMNE17.jpg,AMNE02.jpg,AMSA10.jpg,AMSA10.jpg,MS,2,num_4,32,num_2,0.5334968674,,,2017_May_03_1427,60.008218464,FEMA4ImagesEEG,001,100384,
AFNE01.JPG,AFNE01.JPG,AFNE01.JPG,AFNE01.JPG,AFNE01.JPG,AFNE01.JPG,,,,,,,,,,,,,2,3,23,3,,,,,,,,,,,AMNE11.jpg,AMNE19.jpg,AMSA18.jpg,AMSA17.jpg,AMNE11.jpg,MN,1,num_8,32,num_4,0.650149672991,,,2017_May_03_1427,60.008218464,FEMA4ImagesEEG,001,100384,
AFNE01.JPG,AFNE01.JPG,AFNE01.JPG,AFNE01.JPG,AFNE01.JPG,AFNE01.JPG,,,,,,,,,,,,,2,4,24,0,,,,,,,,,,,AMSA13.jpg,AMSA09.jpg,AMNE07.jpg,AMNE18.jpg,AMNE18.jpg,MN,1,num_4,32,num_6,0.91678296146,,,2017_May_03_1427,60.008218464,FEMA4ImagesEEG,001,100384,
AFNE01.JPG,AFNE01.JPG,AFNE01.JPG,AFNE01.JPG,AFNE01.JPG,AFNE01.JPG,,,,,,,,,,,,,2,5,25,4,,,,,,,,,,,AMSA02.jpg,AMNE19.jpg,AMNE09.jpg,AMSA11.jpg,AMNE19.jpg,MN,1,num_6,32,num_8,0.633448147215,,,2017_May_03_1427,60.008218464,FEMA4ImagesEEG,001,100384,
AFNE01.JPG,AFNE01.JPG,AFNE01.JPG,AFNE01.JPG,AFNE01.JPG,AFNE01.JPG,,,,,,,,,,,,,2,6,26,8,,,,,,,,,,,AMSA05.jpg,AMNE10.jpg,AMSA06.jpg,AMNE11.jpg,AMSA05.jpg,MS,2,num_8,32,num_2,0.500156681053,,,2017_May_03_1427,60.008218464,FEMA4ImagesEEG,001,100384,
AFNE01.JPG,AFNE01.JPG,AFNE01.JPG,AFNE01.JPG,AFNE01.JPG,AFNE01.JPG,,,,,,,,,,,,,2,7,27,2,,,,,,,,,,,AMNE08.jpg,AMSA11.jpg,AMNE10.jpg,AMSA15.jpg,AMNE10.jpg,MN,1,num_2,32,num_6,0.866755361669,,,2017_May_03_1427,60.008218464,FEMA4ImagesEEG,001,100384,
AFNE01.JPG,AFNE01.JPG,AFNE01.JPG,AFNE01.JPG,AFNE01.JPG,AFNE01.JPG,,,,,,,,,,,,,2,8,28,7,,,,,,,,,,,AMNE07.jpg,AMSA12.jpg,AMSA05.jpg,AMNE20.jpg,AMSA05.jpg,MS,2,num_2,16,num_2,1.71670816489,,,2017_May_03_1427,60.008218464,FEMA4ImagesEEG,001,100384,
AFNE01.JPG,AFNE01.JPG,AFNE01.JPG,AFNE01.JPG,AFNE01.JPG,AFNE01.JPG,,,,,,,,,,,,,2,9,29,6,,,,,,,,,,,AMSA11.jpg,AMNE03.jpg,AMNE18.jpg,AMSA09.jpg,AMSA11.jpg,MS,2,num_8,32,num_2,0.866756965406,,,2017_May_03_1427,60.008218464,FEMA4ImagesEEG,001,100384,
AFNE01.JPG,AFNE01.JPG,AFNE01.JPG,AFNE01.JPG,AFNE01.JPG,AFNE01.JPG,,,,,,,,,,,,,3,0,30,3,,,,,,,,,,,AMSA01.jpg,AMSA04.jpg,AMNE06.jpg,AMNE01.jpg,AMSA01.jpg,MS,2,num_8,16,num_8,0.616792166606,,,2017_May_03_1427,60.008218464,FEMA4ImagesEEG,001,100384,
AFNE01.JPG,AFNE01.JPG,AFNE01.JPG,AFNE01.JPG,AFNE01.JPG,AFNE01.JPG,,,,,,,,,,,,,3,1,31,2,,,,,,,,,,,AMNE09.jpg,AMNE20.jpg,AMSA06.jpg,AMSA04.jpg,AMNE20.jpg,MN,1,num_6,32,num_8,1.25009694323,,,2017_May_03_1427,60.008218464,FEMA4ImagesEEG,001,100384,
AFNE01.JPG,AFNE01.JPG,AFNE01.JPG,AFNE01.JPG,AFNE01.JPG,AFNE01.JPG,,,,,,,,,,,,,3,2,32,5,,,,,,,,,,,AMNE18.jpg,AMSA12.jpg,AMNE01.jpg,AMSA03.jpg,AMNE01.jpg,MN,1,num_2,16,num_2,1.00009750458,,,2017_May_03_1427,60.008218464,FEMA4ImagesEEG,001,100384,
AFNE01.JPG,AFNE01.JPG,AFNE01.JPG,AFNE01.JPG,AFNE01.JPG,AFNE01.JPG,,,,,,,,,,,,,3,3,33,8,,,,,,,,,,,AMSA08.jpg,AMNE07.jpg,AMNE15.jpg,AMSA18.jpg,AMNE07.jpg,MN,1,num_6,16,num_6,0.550149641,,,2017_May_03_1427,60.008218464,FEMA4ImagesEEG,001,100384,
AFNE01.JPG,AFNE01.JPG,AFNE01.JPG,AFNE01.JPG,AFNE01.JPG,AFNE01.JPG,,,,,,,,,,,,,3,4,34,7,,,,,,,,,,,AMSA03.jpg,AMNE07.jpg,AMSA09.jpg,AMNE15.jpg,AMSA09.jpg,MS,2,num_2,32,num_8,0.750088764587,,,2017_May_03_1427,60.008218464,FEMA4ImagesEEG,001,100384,
AFNE01.JPG,AFNE01.JPG,AFNE01.JPG,AFNE01.JPG,AFNE01.JPG,AFNE01.JPG,,,,,,,,,,,,,3,5,35,9,,,,,,,,,,,AMSA09.jpg,AMNE17.jpg,AMSA02.jpg,AMNE20.jpg,AMNE17.jpg,MN,1,num_6,32,num_2,0.73345748079,,,2017_May_03_1427,60.008218464,FEMA4ImagesEEG,001,100384,
AFNE01.JPG,AFNE01.JPG,AFNE01.JPG,AFNE01.JPG,AFNE01.JPG,AFNE01.JPG,,,,,,,,,,,,,3,6,36,1,,,,,,,,,,,AMSA10.jpg,AMSA08.jpg,AMNE08.jpg,AMNE09.jpg,AMSA10.jpg,MS,2,num_8,32,num_6,0.966816334287,,,2017_May_03_1427,60.008218464,FEMA4ImagesEEG,001,100384,
AFNE01.JPG,AFNE01.JPG,AFNE01.JPG,AFNE01.JPG,AFNE01.JPG,AFNE01.JPG,,,,,,,,,,,,,3,7,37,0,,,,,,,,,,,AMNE06.jpg,AMSA01.jpg,AMSA19.jpg,AMNE11.jpg,AMNE11.jpg,MN,1,num_4,32,num_2,3.26657972508,,,2017_May_03_1427,60.008218464,FEMA4ImagesEEG,001,100384,
AFNE01.JPG,AFNE01.JPG,AFNE01.JPG,AFNE01.JPG,AFNE01.JPG,AFNE01.JPG,,,,,,,,,,,,,3,8,38,4,,,,,,,,,,,AMSA19.jpg,AMNE17.jpg,AMSA01.jpg,AMNE07.jpg,AMNE07.jpg,MN,1,num_4,16,num_4,0.633464184124,,,2017_May_03_1427,60.008218464,FEMA4ImagesEEG,001,100384,
AFNE01.JPG,AFNE01.JPG,AFNE01.JPG,AFNE01.JPG,AFNE01.JPG,AFNE01.JPG,,,,,,,,,,,,,3,9,39,6,,,,,,,,,,,AMNE06.jpg,AMSA18.jpg,AMSA02.jpg,AMNE11.jpg,AMNE11.jpg,MN,1,num_4,32,num_2,0.983419072116,,,2017_May_03_1427,60.008218464,FEMA4ImagesEEG,001,100384,
AFNE01.JPG,AFNE01.JPG,AFNE01.JPG,AFNE01.JPG,AFNE01.JPG,AFNE01.JPG,,,,,,,,,,,,,4,0,40,9,,,,,,,,,,,AMNE15.jpg,AMSA19.jpg,AMSA13.jpg,AMNE10.jpg,AMNE15.jpg,MN,1,num_8,16,num_8,0.633480221033,,,2017_May_03_1427,60.008218464,FEMA4ImagesEEG,001,100384,
AFNE01.JPG,AFNE01.JPG,AFNE01.JPG,AFNE01.JPG,AFNE01.JPG,AFNE01.JPG,,,,,,,,,,,,,4,1,41,2,,,,,,,,,,,AMNE16.jpg,AMNE09.jpg,AMSA19.jpg,AMSA15.jpg,AMNE09.jpg,MN,1,num_6,16,num_6,1.00010456098,,,2017_May_03_1427,60.008218464,FEMA4ImagesEEG,001,100384,
AFNE01.JPG,AFNE01.JPG,AFNE01.JPG,AFNE01.JPG,AFNE01.JPG,AFNE01.JPG,,,,,,,,,,,,,4,2,42,8,,,,,,,,,,,AMNE20.jpg,AMSA07.jpg,AMSA14.jpg,AMNE18.jpg,AMNE20.jpg,MN,1,num_8,32,num_2,0.88342256844,,,2017_May_03_1427,60.008218464,FEMA4ImagesEEG,001,100384,
AFNE01.JPG,AFNE01.JPG,AFNE01.JPG,AFNE01.JPG,AFNE01.JPG,AFNE01.JPG,,,,,,,,,,,,,4,3,43,6,,,,,,,,,,,AMNE09.jpg,AMSA04.jpg,AMNE05.jpg,AMSA16.jpg,AMNE09.jpg,MN,1,num_8,16,num_8,0.516792134382,,,2017_May_03_1427,60.008218464,FEMA4ImagesEEG,001,100384,
AFNE01.JPG,AFNE01.JPG,AFNE01.JPG,AFNE01.JPG,AFNE01.JPG,AFNE01.JPG,,,,,,,,,,,,,4,4,44,7,,,,,,,,,,,AMNE17.jpg,AMNE06.jpg,AMSA19.jpg,AMSA03.jpg,AMSA03.jpg,MS,2,num_4,16,num_4,0.316821257584,,,2017_May_03_1427,60.008218464,FEMA4ImagesEEG,001,100384,
AFNE01.JPG,AFNE01.JPG,AFNE01.JPG,AFNE01.JPG,AFNE01.JPG,AFNE01.JPG,,,,,,,,,,,,,4,5,45,5,,,,,,,,,,,AMSA01.jpg,AMSA06.jpg,AMNE18.jpg,AMNE08.jpg,AMNE18.jpg,MN,1,num_2,32,num_6,0.866759852041,,,2017_May_03_1427,60.008218464,FEMA4ImagesEEG,001,100384,
AFNE01.JPG,AFNE01.JPG,AFNE01.JPG,AFNE01.JPG,AFNE01.JPG,AFNE01.JPG,,,,,,,,,,,,,4,6,46,4,,,,,,,,,,,AMSA13.jpg,AMNE03.jpg,AMSA19.jpg,AMNE15.jpg,AMSA13.jpg,MS,2,num_8,16,num_8,0.633461618097,,,2017_May_03_1427,60.008218464,FEMA4ImagesEEG,001,100384,
AFNE01.JPG,AFNE01.JPG,AFNE01.JPG,AFNE01.JPG,AFNE01.JPG,AFNE01.JPG,,,,,,,,,,,,,4,7,47,0,,,,,,,,,,,AMSA01.jpg,AMNE20.jpg,AMSA16.jpg,AMNE10.jpg,AMNE10.jpg,MN,1,num_4,32,num_2,1.18343260745,,,2017_May_03_1427,60.008218464,FEMA4ImagesEEG,001,100384,
AFNE01.JPG,AFNE01.JPG,AFNE01.JPG,AFNE01.JPG,AFNE01.JPG,AFNE01.JPG,,,,,,,,,,,,,4,8,48,3,,,,,,,,,,,AMNE07.jpg,AMSA06.jpg,AMSA19.jpg,AMNE04.jpg,AMSA06.jpg,MS,2,num_6,32,num_4,1.00012893719,,,2017_May_03_1427,60.008218464,FEMA4ImagesEEG,001,100384,
AFNE01.JPG,AFNE01.JPG,AFNE01.JPG,AFNE01.JPG,AFNE01.JPG,AFNE01.JPG,,,,,,,,,,,,,4,9,49,1,,,,,,,,,,,AMSA05.jpg,AMNE01.jpg,AMNE18.jpg,AMSA06.jpg,AMSA06.jpg,MS,2,num_4,32,num_8,0.583427603822,,,2017_May_03_1427,60.008218464,FEMA4ImagesEEG,001,100384,
AFNE01.JPG,AFNE01.JPG,AFNE01.JPG,AFNE01.JPG,AFNE01.JPG,AFNE01.JPG,,,,,,,,,,,,,5,0,50,1,,,,,,,,,,,AMNE16.jpg,AMNE12.jpg,AMSA06.jpg,AMSA14.jpg,AMNE12.jpg,MN,1,num_6,32,num_2,0.666456368752,,,2017_May_03_1427,60.008218464,FEMA4ImagesEEG,001,100384,
AFNE01.JPG,AFNE01.JPG,AFNE01.JPG,AFNE01.JPG,AFNE01.JPG,AFNE01.JPG,,,,,,,,,,,,,5,1,51,2,,,,,,,,,,,AMSA13.jpg,AMNE07.jpg,AMSA14.jpg,AMNE16.jpg,AMSA14.jpg,MS,2,num_2,32,num_8,0.766737047583,,,2017_May_03_1427,60.008218464,FEMA4ImagesEEG,001,100384,
AFNE01.JPG,AFNE01.JPG,AFNE01.JPG,AFNE01.JPG,AFNE01.JPG,AFNE01.JPG,,,,,,,,,,,,,5,2,52,6,,,,,,,,,,,AMNE04.jpg,AMSA03.jpg,AMSA06.jpg,AMNE20.jpg,AMSA06.jpg,MS,2,num_2,32,num_4,0.733506233199,,,2017_May_03_1427,60.008218464,FEMA4ImagesEEG,001,100384,
AFNE01.JPG,AFNE01.JPG,AFNE01.JPG,AFNE01.JPG,AFNE01.JPG,AFNE01.JPG,,,,,,,,,,,,,5,3,53,9,,,,,,,,,,,AMNE08.jpg,AMSA16.jpg,AMNE11.jpg,AMSA11.jpg,AMNE08.jpg,MN,1,num_8,32,num_2,0.633485032246,,,2017_May_03_1427,60.008218464,FEMA4ImagesEEG,001,100384,
AFNE01.JPG,AFNE01.JPG,AFNE01.JPG,AFNE01.JPG,AFNE01.JPG,AFNE01.JPG,,,,,,,,,,,,,5,4,54,8,,,,,,,,,,,AMSA20.jpg,AMNE01.jpg,AMNE13.jpg,AMSA03.jpg,AMSA20.jpg,MS,2,num_8,16,num_8,0.850131775485,,,2017_May_03_1427,60.008218464,FEMA4ImagesEEG,001,100384,
AFNE01.JPG,AFNE01.JPG,AFNE01.JPG,AFNE01.JPG,AFNE01.JPG,AFNE01.JPG,,,,,,,,,,,,,5,5,55,4,,,,,,,,,,,AMSA09.jpg,AMNE19.jpg,AMNE08.jpg,AMSA02.jpg,AMSA02.jpg,MS,2,num_4,32,num_2,0.95010069618,,,2017_May_03_1427,60.008218464,FEMA4ImagesEEG,001,100384,
AFNE01.JPG,AFNE01.JPG,AFNE01.JPG,AFNE01.JPG,AFNE01.JPG,AFNE01.JPG,,,,,,,,,,,,,5,6,56,3,,,,,,,,,,,AMSA16.jpg,AMSA01.jpg,AMNE09.jpg,AMNE07.jpg,AMNE07.jpg,MN,1,num_4,16,num_4,0.683480237145,,,2017_May_03_1427,60.008218464,FEMA4ImagesEEG,001,100384,
AFNE01.JPG,AFNE01.JPG,AFNE01.JPG,AFNE01.JPG,AFNE01.JPG,AFNE01.JPG,,,,,,,,,,,,,5,7,57,0,,,,,,,,,,,AMSA06.jpg,AMSA11.jpg,AMNE09.jpg,AMNE02.jpg,AMNE09.jpg,MN,1,num_2,16,num_2,0.750062463805,,,2017_May_03_1427,60.008218464,FEMA4ImagesEEG,001,100384,
AFNE01.JPG,AFNE01.JPG,AFNE01.JPG,AFNE01.JPG,AFNE01.JPG,AFNE01.JPG,,,,,,,,,,,,,5,8,58,5,,,,,,,,,,,AMNE04.jpg,AMSA15.jpg,AMNE02.jpg,AMSA10.jpg,AMNE02.jpg,MN,1,num_2,32,num_8,1.06677274592,,,2017_May_03_1427,60.008218464,FEMA4ImagesEEG,001,100384,
AFNE01.JPG,AFNE01.JPG,AFNE01.JPG,AFNE01.JPG,AFNE01.JPG,AFNE01.JPG,,,,,,,,,,,,,5,9,59,7,,,,,,,,,,,AMSA03.jpg,AMNE02.jpg,AMNE05.jpg,AMSA20.jpg,AMSA20.jpg,MS,2,num_4,16,num_4,1.7000515426,,,2017_May_03_1427,60.008218464,FEMA4ImagesEEG,001,100384,
,,,,,,,,,,,,,,,,,,,,,,,,,,,,,,,,,,,,,,,,,,,space,17.8320449779,2017_May_03_1427,60.008218464,FEMA4ImagesEEG,001,100384,
AFNE01.JPG,AFNE01.JPG,AFNE01.JPG,AFNE01.JPG,AFNE01.JPG,AFNE01.JPG,,,,,,,,,,,,,,,,,0,0,0,6,,,,,,,AFNE03.jpg,AFSA04.jpg,AFNE11.jpg,AFSA05.jpg,AFNE11.jpg,FN,3,num_2,32,num_4,0.600150298327,,,2017_May_03_1427,60.008218464,FEMA4ImagesEEG,001,100384,
AFNE01.JPG,AFNE01.JPG,AFNE01.JPG,AFNE01.JPG,AFNE01.JPG,AFNE01.JPG,,,,,,,,,,,,,,,,,0,1,1,9,,,,,,,AFNE16.jpg,AFNE20.jpg,AFSA06.jpg,AFSA05.jpg,AFNE20.jpg,FN,3,num_6,32,num_8,0.350173632149,,,2017_May_03_1427,60.008218464,FEMA4ImagesEEG,001,100384,
AFNE01.JPG,AFNE01.JPG,AFNE01.JPG,AFNE01.JPG,AFNE01.JPG,AFNE01.JPG,,,,,,,,,,,,,,,,,0,2,2,3,,,,,,,AFNE12.jpg,AFNE17.jpg,AFSA06.jpg,AFSA20.jpg,AFSA20.jpg,FS,4,num_4,32,num_2,0.333504180424,,,2017_May_03_1427,60.008218464,FEMA4ImagesEEG,001,100384,
AFNE01.JPG,AFNE01.JPG,AFNE01.JPG,AFNE01.JPG,AFNE01.JPG,AFNE01.JPG,,,,,,,,,,,,,,,,,0,3,3,2,,,,,,,AFNE09.jpg,AFSA03.jpg,AFNE03.jpg,AFSA16.jpg,AFNE03.jpg,FN,3,num_2,32,num_6,0.35015118029,,,2017_May_03_1427,60.008218464,FEMA4ImagesEEG,001,100384,
AFNE01.JPG,AFNE01.JPG,AFNE01.JPG,AFNE01.JPG,AFNE01.JPG,AFNE01.JPG,,,,,,,,,,,,,,,,,0,4,4,0,,,,,,,AFNE02.jpg,AFSA10.jpg,AFNE17.jpg,AFSA18.jpg,AFSA18.jpg,FS,4,num_4,32,num_8,0.483471513027,,,2017_May_03_1427,60.008218464,FEMA4ImagesEEG,001,100384,
AFNE01.JPG,AFNE01.JPG,AFNE01.JPG,AFNE01.JPG,AFNE01.JPG,AFNE01.JPG,,,,,,,,,,,,,,,,,0,5,5,7,,,,,,,AFNE16.jpg,AFSA05.jpg,AFSA08.jpg,AFNE08.jpg,AFSA05.jpg,FS,4,num_6,32,num_2,0.466886415612,,,2017_May_03_1427,60.008218464,FEMA4ImagesEEG,001,100384,
AFNE01.JPG,AFNE01.JPG,AFNE01.JPG,AFNE01.JPG,AFNE01.JPG,AFNE01.JPG,,,,,,,,,,,,,,,,,0,6,6,5,,,,,,,AFNE16.jpg,AFSA16.jpg,AFSA15.jpg,AFNE12.jpg,AFNE16.jpg,FN,3,num_8,32,num_4,0.316826389404,,,2017_May_03_1427,60.008218464,FEMA4ImagesEEG,001,100384,
AFNE01.JPG,AFNE01.JPG,AFNE01.JPG,AFNE01.JPG,AFNE01.JPG,AFNE01.JPG,,,,,,,,,,,,,,,,,0,7,7,8,,,,,,,AFSA18.jpg,AFNE12.jpg,AFSA17.jpg,AFNE11.jpg,AFNE12.jpg,FN,3,num_6,16,num_6,0.366863931995,,,2017_May_03_1427,60.008218464,FEMA4ImagesEEG,001,100384,
AFNE01.JPG,AFNE01.JPG,AFNE01.JPG,AFNE01.JPG,AFNE01.JPG,AFNE01.JPG,,,,,,,,,,,,,,,,,0,8,8,1,,,,,,,AFSA19.jpg,AFSA12.jpg,AFNE20.jpg,AFNE07.jpg,AFNE07.jpg,FN,3,num_4,32,num_8,0.500130701112,,,2017_May_03_1427,60.008218464,FEMA4ImagesEEG,001,100384,
AFNE01.JPG,AFNE01.JPG,AFNE01.JPG,AFNE01.JPG,AFNE01.JPG,AFNE01.JPG,,,,,,,,,,,,,,,,,0,9,9,4,,,,,,,AFNE18.jpg,AFNE16.jpg,AFSA10.jpg,AFSA01.jpg,AFNE16.jpg,FN,3,num_6,32,num_2,0.366819990799,,,2017_May_03_1427,60.008218464,FEMA4ImagesEEG,001,100384,
AFNE01.JPG,AFNE01.JPG,AFNE01.JPG,AFNE01.JPG,AFNE01.JPG,AFNE01.JPG,,,,,,,,,,,,,,,,,1,0,10,4,,,,,,,AFSA17.jpg,AFNE20.jpg,AFSA18.jpg,AFNE02.jpg,AFNE02.jpg,FN,3,num_4,32,num_6,0.550169205992,,,2017_May_03_1427,60.008218464,FEMA4ImagesEEG,001,100384,
AFNE01.JPG,AFNE01.JPG,AFNE01.JPG,AFNE01.JPG,AFNE01.JPG,AFNE01.JPG,,,,,,,,,,,,,,,,,1,1,11,2,,,,,,,AFNE06.jpg,AFSA19.jpg,AFSA04.jpg,AFNE01.jpg,AFNE06.jpg,FN,3,num_8,32,num_4,0.33347338927,,,2017_May_03_1427,60.008218464,FEMA4ImagesEEG,001,100384,
AFNE01.JPG,AFNE01.JPG,AFNE01.JPG,AFNE01.JPG,AFNE01.JPG,AFNE01.JPG,,,,,,,,,,,,,,,,,1,2,12,6,,,,,,,AFSA07.jpg,AFNE07.jpg,AFSA18.jpg,AFNE12.jpg,AFSA07.jpg,FS,4,num_8,16,num_8,0.366778294556,,,2017_May_03_1427,60.008218464,FEMA4ImagesEEG,001,100384,
AFNE01.JPG,AFNE01.JPG,AFNE01.JPG,AFNE01.JPG,AFNE01.JPG,AFNE01.JPG,,,,,,,,,,,,,,,,,1,3,13,5,,,,,,,AFSA05.jpg,AFNE08.jpg,AFNE09.jpg,AFSA20.jpg,AFSA05.jpg,FS,4,num_8,32,num_2,1.18341560825,,,2017_May_03_1427,60.008218464,FEMA4ImagesEEG,001,100384,
AFNE01.JPG,AFNE01.JPG,AFNE01.JPG,AFNE01.JPG,AFNE01.JPG,AFNE01.JPG,,,,,,,,,,,,,,,,,1,4,14,0,,,,,,,AFSA20.jpg,AFSA11.jpg,AFNE14.jpg,AFNE07.jpg,AFSA20.jpg,FS,4,num_8,32,num_6,0.883433794137,,,2017_May_03_1427,60.008218464,FEMA4ImagesEEG,001,100384,
AFNE01.JPG,AFNE01.JPG,AFNE01.JPG,AFNE01.JPG,AFNE01.JPG,AFNE01.JPG,,,,,,,,,,,,,,,,,1,5,15,9,,,,,,,AFSA02.jpg,AFSA16.jpg,AFNE12.jpg,AFNE11.jpg,AFNE11.jpg,FN,3,num_4,16,num_4,0.599925139453,,,2017_May_03_1427,60.008218464,FEMA4ImagesEEG,001,100384,
AFNE01.JPG,AFNE01.JPG,AFNE01.JPG,AFNE01.JPG,AFNE01.JPG,AFNE01.JPG,,,,,,,,,,,,,,,,,1,6,16,1,,,,,,,AFSA09.jpg,AFSA03.jpg,AFNE17.jpg,AFNE20.jpg,AFSA09.jpg,FS,4,num_8,32,num_2,0.58349880809,,,2017_May_03_1427,60.008218464,FEMA4ImagesEEG,001,100384,
AFNE01.JPG,AFNE01.JPG,AFNE01.JPG,AFNE01.JPG,AFNE01.JPG,AFNE01.JPG,,,,,,,,,,,,,,,,,1,7,17,7,,,,,,,AFSA07.jpg,AFSA03.jpg,AFNE11.jpg,AFNE02.jpg,AFSA03.jpg,FS,4,num_6,32,num_8,0.366658658721,,,2017_May_03_1427,60.008218464,FEMA4ImagesEEG,001,100384,
AFNE01.JPG,AFNE01.JPG,AFNE01.JPG,AFNE01.JPG,AFNE01.JPG,AFNE01.JPG,,,,,,,,,,,,,,,,,1,8,18,3,,,,,,,AFSA07.jpg,AFNE15.jpg,AFNE08.jpg,AFSA17.jpg,AFNE08.jpg,FN,3,num_2,32,num_4,0.800144268433,,,2017_May_03_1427,60.008218464,FEMA4ImagesEEG,001,100384,
AFNE01.JPG,AFNE01.JPG,AFNE01.JPG,AFNE01.JPG,AFNE01.JPG,AFNE01.JPG,,,,,,,,,,,,,,,,,1,9,19,8,,,,,,,AFSA16.jpg,AFSA17.jpg,AFNE06.jpg,AFNE14.jpg,AFNE14.jpg,FN,3,num_4,32,num_8,0.450168532319,,,2017_May_03_1427,60.008218464,FEMA4ImagesEEG,001,100384,
AFNE01.JPG,AFNE01.JPG,AFNE01.JPG,AFNE01.JPG,AFNE01.JPG,AFNE01.JPG,,,,,,,,,,,,,,,,,2,0,20,7,,,,,,,AFSA03.jpg,AFSA02.jpg,AFNE03.jpg,AFNE14.jpg,AFNE14.jpg,FN,3,num_4,32,num_6,0.783427026588,,,2017_May_03_1427,60.008218464,FEMA4ImagesEEG,001,100384,
AFNE01.JPG,AFNE01.JPG,AFNE01.JPG,AFNE01.JPG,AFNE01.JPG,AFNE01.JPG,,,,,,,,,,,,,,,,,2,1,21,1,,,,,,,AFNE20.jpg,AFNE10.jpg,AFSA04.jpg,AFSA18.jpg,AFNE20.jpg,FN,3,num_8,32,num_6,0.683506537694,,,2017_May_03_1427,60.008218464,FEMA4ImagesEEG,001,100384,
AFNE01.JPG,AFNE01.JPG,AFNE01.JPG,AFNE01.JPG,AFNE01.JPG,AFNE01.JPG,,,,,,,,,,,,,,,,,2,2,22,5,,,,,,,AFSA10.jpg,AFSA05.jpg,AFNE12.jpg,AFNE03.jpg,AFSA05.jpg,FS,4,num_6,16,num_6,0.900086567504,,,2017_May_03_1427,60.008218464,FEMA4ImagesEEG,001,100384,
AFNE01.JPG,AFNE01.JPG,AFNE01.JPG,AFNE01.JPG,AFNE01.JPG,AFNE01.JPG,,,,,,,,,,,,,,,,,2,3,23,9,,,,,,,AFNE05.jpg,AFNE16.jpg,AFSA11.jpg,AFSA08.jpg,AFNE16.jpg,FN,3,num_6,32,num_8,0.550336631713,,,2017_May_03_1427,60.008218464,FEMA4ImagesEEG,001,100384,
AFNE01.JPG,AFNE01.JPG,AFNE01.JPG,AFNE01.JPG,AFNE01.JPG,AFNE01.JPG,,,,,,,,,,,,,,,,,2,4,24,8,,,,,,,AFSA02.jpg,AFSA06.jpg,AFNE20.jpg,AFNE09.jpg,AFSA02.jpg,FS,4,num_8,32,num_2,0.500204791781,,,2017_May_03_1427,60.008218464,FEMA4ImagesEEG,001,100384,
AFNE01.JPG,AFNE01.JPG,AFNE01.JPG,AFNE01.JPG,AFNE01.JPG,AFNE01.JPG,,,,,,,,,,,,,,,,,2,5,25,3,,,,,,,AFSA18.jpg,AFSA14.jpg,AFNE03.jpg,AFNE08.jpg,AFNE03.jpg,FN,3,num_2,32,num_6,0.550115963211,,,2017_May_03_1427,60.008218464,FEMA4ImagesEEG,001,100384,
AFNE01.JPG,AFNE01.JPG,AFNE01.JPG,AFNE01.JPG,AFNE01.JPG,AFNE01.JPG,,,,,,,,,,,,,,,,,2,6,26,4,,,,,,,AFNE12.jpg,AFSA06.jpg,AFSA14.jpg,AFNE09.jpg,AFNE12.jpg,FN,3,num_8,16,num_8,0.950116732856,,,2017_May_03_1427,60.008218464,FEMA4ImagesEEG,001,100384,
AFNE01.JPG,AFNE01.JPG,AFNE01.JPG,AFNE01.JPG,AFNE01.JPG,AFNE01.JPG,,,,,,,,,,,,,,,,,2,7,27,6,,,,,,,AFNE13.jpg,AFSA20.jpg,AFNE12.jpg,AFSA12.jpg,AFSA20.jpg,FS,4,num_6,32,num_2,0.933201915817,,,2017_May_03_1427,60.008218464,FEMA4ImagesEEG,001,100384,
AFNE01.JPG,AFNE01.JPG,AFNE01.JPG,AFNE01.JPG,AFNE01.JPG,AFNE01.JPG,,,,,,,,,,,,,,,,,2,8,28,0,,,,,,,AFNE10.jpg,AFSA20.jpg,AFNE20.jpg,AFSA07.jpg,AFNE20.jpg,FN,3,num_2,32,num_6,0.516801756574,,,2017_May_03_1427,60.008218464,FEMA4ImagesEEG,001,100384,
AFNE01.JPG,AFNE01.JPG,AFNE01.JPG,AFNE01.JPG,AFNE01.JPG,AFNE01.JPG,,,,,,,,,,,,,,,,,2,9,29,2,,,,,,,AFSA05.jpg,AFNE11.jpg,AFNE14.jpg,AFSA12.jpg,AFNE14.jpg,FN,3,num_2,32,num_8,0.500159246847,,,2017_May_03_1427,60.008218464,FEMA4ImagesEEG,001,100384,
AFNE01.JPG,AFNE01.JPG,AFNE01.JPG,AFNE01.JPG,AFNE01.JPG,AFNE01.JPG,,,,,,,,,,,,,,,,,3,0,30,9,,,,,,,AFNE05.jpg,AFSA09.jpg,AFNE18.jpg,AFSA14.jpg,AFNE18.jpg,FN,3,num_2,16,num_2,0.700121463975,,,2017_May_03_1427,60.008218464,FEMA4ImagesEEG,001,100384,
AFNE01.JPG,AFNE01.JPG,AFNE01.JPG,AFNE01.JPG,AFNE01.JPG,AFNE01.JPG,,,,,,,,,,,,,,,,,3,1,31,4,,,,,,,AFSA04.jpg,AFNE05.jpg,AFNE01.jpg,AFSA18.jpg,AFSA18.jpg,FS,4,num_4,16,num_4,0.750095179304,,,2017_May_03_1427,60.008218464,FEMA4ImagesEEG,001,100384,
AFNE01.JPG,AFNE01.JPG,AFNE01.JPG,AFNE01.JPG,AFNE01.JPG,AFNE01.JPG,,,,,,,,,,,,,,,,,3,2,32,6,,,,,,,AFNE02.jpg,AFSA20.jpg,AFSA01.jpg,AFNE12.jpg,AFNE12.jpg,FN,3,num_4,32,num_6,0.766781951068,,,2017_May_03_1427,60.008218464,FEMA4ImagesEEG,001,100384,
AFNE01.JPG,AFNE01.JPG,AFNE01.JPG,AFNE01.JPG,AFNE01.JPG,AFNE01.JPG,,,,,,,,,,,,,,,,,3,3,33,8,,,,,,,AFSA05.jpg,AFSA10.jpg,AFNE01.jpg,AFNE11.jpg,AFNE11.jpg,FN,3,num_4,32,num_8,0.633474126924,,,2017_May_03_1427,60.008218464,FEMA4ImagesEEG,001,100384,
AFNE01.JPG,AFNE01.JPG,AFNE01.JPG,AFNE01.JPG,AFNE01.JPG,AFNE01.JPG,,,,,,,,,,,,,,,,,3,4,34,2,,,,,,,AFNE03.jpg,AFSA18.jpg,AFNE08.jpg,AFSA05.jpg,AFSA05.jpg,FS,4,num_4,16,num_4,0.433513834607,,,2017_May_03_1427,60.008218464,FEMA4ImagesEEG,001,100384,
AFNE01.JPG,AFNE01.JPG,AFNE01.JPG,AFNE01.JPG,AFNE01.JPG,AFNE01.JPG,,,,,,,,,,,,,,,,,3,5,35,3,,,,,,,AFSA16.jpg,AFNE17.jpg,AFNE14.jpg,AFSA20.jpg,AFNE14.jpg,FN,3,num_2,16,num_2,0.483488191385,,,2017_May_03_1427,60.008218464,FEMA4ImagesEEG,001,100384,
AFNE01.JPG,AFNE01.JPG,AFNE01.JPG,AFNE01.JPG,AFNE01.JPG,AFNE01.JPG,,,,,,,,,,,,,,,,,3,6,36,0,,,,,,,AFNE03.jpg,AFSA15.jpg,AFSA09.jpg,AFNE11.jpg,AFSA15.jpg,FS,4,num_6,16,num_6,0.500150266103,,,2017_May_03_1427,60.008218464,FEMA4ImagesEEG,001,100384,
AFNE01.JPG,AFNE01.JPG,AFNE01.JPG,AFNE01.JPG,AFNE01.JPG,AFNE01.JPG,,,,,,,,,,,,,,,,,3,7,37,7,,,,,,,AFSA19.jpg,AFNE03.jpg,AFSA09.jpg,AFNE20.jpg,AFSA09.jpg,FS,4,num_2,32,num_8,0.366792406887,,,2017_May_03_1427,60.008218464,FEMA4ImagesEEG,001,100384,
AFNE01.JPG,AFNE01.JPG,AFNE01.JPG,AFNE01.JPG,AFNE01.JPG,AFNE01.JPG,,,,,,,,,,,,,,,,,3,8,38,5,,,,,,,AFNE05.jpg,AFSA10.jpg,AFSA16.jpg,AFNE17.jpg,AFNE05.jpg,FN,3,num_8,32,num_2,0.633506521815,,,2017_May_03_1427,60.008218464,FEMA4ImagesEEG,001,100384,
AFNE01.JPG,AFNE01.JPG,AFNE01.JPG,AFNE01.JPG,AFNE01.JPG,AFNE01.JPG,,,,,,,,,,,,,,,,,3,9,39,1,,,,,,,AFSA05.jpg,AFNE03.jpg,AFSA03.jpg,AFNE08.jpg,AFNE08.jpg,FN,3,num_4,16,num_4,0.683215948287,,,2017_May_03_1427,60.008218464,FEMA4ImagesEEG,001,100384,
AFNE01.JPG,AFNE01.JPG,AFNE01.JPG,AFNE01.JPG,AFNE01.JPG,AFNE01.JPG,,,,,,,,,,,,,,,,,4,0,40,6,,,,,,,AFNE09.jpg,AFNE20.jpg,AFSA02.jpg,AFSA09.jpg,AFNE20.jpg,FN,3,num_6,16,num_6,0.633438204182,,,2017_May_03_1427,60.008218464,FEMA4ImagesEEG,001,100384,
AFNE01.JPG,AFNE01.JPG,AFNE01.JPG,AFNE01.JPG,AFNE01.JPG,AFNE01.JPG,,,,,,,,,,,,,,,,,4,1,41,3,,,,,,,AFSA14.jpg,AFNE20.jpg,AFNE10.jpg,AFSA16.jpg,AFNE20.jpg,FN,3,num_6,32,num_8,0.333469861187,,,2017_May_03_1427,60.008218464,FEMA4ImagesEEG,001,100384,
AFNE01.JPG,AFNE01.JPG,AFNE01.JPG,AFNE01.JPG,AFNE01.JPG,AFNE01.JPG,,,,,,,,,,,,,,,,,4,2,42,1,,,,,,,AFNE08.jpg,AFNE05.jpg,AFSA03.jpg,AFSA14.jpg,AFSA03.jpg,FS,4,num_2,16,num_2,0.583454866661,,,2017_May_03_1427,60.008218464,FEMA4ImagesEEG,001,100384,
AFNE01.JPG,AFNE01.JPG,AFNE01.JPG,AFNE01.JPG,AFNE01.JPG,AFNE01.JPG,,,,,,,,,,,,,,,,,4,3,43,2,,,,,,,AFSA20.jpg,AFSA18.jpg,AFNE08.jpg,AFNE07.jpg,AFSA18.jpg,FS,4,num_6,32,num_4,0.516816189745,,,2017_May_03_1427,60.008218464,FEMA4ImagesEEG,001,100384,
AFNE01.JPG,AFNE01.JPG,AFNE01.JPG,AFNE01.JPG,AFNE01.JPG,AFNE01.JPG,,,,,,,,,,,,,,,,,4,4,44,8,,,,,,,AFNE02.jpg,AFNE14.jpg,AFSA16.jpg,AFSA10.jpg,AFNE14.jpg,FN,3,num_6,32,num_8,0.516756532481,,,2017_May_03_1427,60.008218464,FEMA4ImagesEEG,001,100384,
AFNE01.JPG,AFNE01.JPG,AFNE01.JPG,AFNE01.JPG,AFNE01.JPG,AFNE01.JPG,,,,,,,,,,,,,,,,,4,5,45,0,,,,,,,AFSA12.jpg,AFSA02.jpg,AFNE12.jpg,AFNE14.jpg,AFNE12.jpg,FN,3,num_2,16,num_2,0.61677356367,,,2017_May_03_1427,60.008218464,FEMA4ImagesEEG,001,100384,
AFNE01.JPG,AFNE01.JPG,AFNE01.JPG,AFNE01.JPG,AFNE01.JPG,AFNE01.JPG,,,,,,,,,,,,,,,,,4,6,46,4,,,,,,,AFNE19.jpg,AFSA05.jpg,AFNE12.jpg,AFSA08.jpg,AFSA08.jpg,FS,4,num_4,16,num_4,0.350153425476,,,2017_May_03_1427,60.008218464,FEMA4ImagesEEG,001,100384,
AFNE01.JPG,AFNE01.JPG,AFNE01.JPG,AFNE01.JPG,AFNE01.JPG,AFNE01.JPG,,,,,,,,,,,,,,,,,4,7,47,5,,,,,,,AFNE05.jpg,AFNE03.jpg,AFSA09.jpg,AFSA08.jpg,AFNE05.jpg,FN,3,num_8,32,num_4,0.616643022746,,,2017_May_03_1427,60.008218464,FEMA4ImagesEEG,001,100384,
AFNE01.JPG,AFNE01.JPG,AFNE01.JPG,AFNE01.JPG,AFNE01.JPG,AFNE01.JPG,,,,,,,,,,,,,,,,,4,8,48,7,,,,,,,AFNE06.jpg,AFNE05.jpg,AFSA12.jpg,AFSA14.jpg,AFSA14.jpg,FS,4,num_4,32,num_8,0.766786120599,,,2017_May_03_1427,60.008218464,FEMA4ImagesEEG,001,100384,
AFNE01.JPG,AFNE01.JPG,AFNE01.JPG,AFNE01.JPG,AFNE01.JPG,AFNE01.JPG,,,,,,,,,,,,,,,,,4,9,49,9,,,,,,,AFNE10.jpg,AFSA09.jpg,AFNE19.jpg,AFSA14.jpg,AFNE19.jpg,FN,3,num_2,16,num_2,0.500135191483,,,2017_May_03_1427,60.008218464,FEMA4ImagesEEG,001,100384,
AFNE01.JPG,AFNE01.JPG,AFNE01.JPG,AFNE01.JPG,AFNE01.JPG,AFNE01.JPG,,,,,,,,,,,,,,,,,5,0,50,0,,,,,,,AFSA08.jpg,AFSA17.jpg,AFNE14.jpg,AFNE05.jpg,AFSA08.jpg,FS,4,num_8,16,num_8,0.400138046127,,,2017_May_03_1427,60.008218464,FEMA4ImagesEEG,001,100384,
AFNE01.JPG,AFNE01.JPG,AFNE01.JPG,AFNE01.JPG,AFNE01.JPG,AFNE01.JPG,,,,,,,,,,,,,,,,,5,1,51,1,,,,,,,AFNE04.jpg,AFSA06.jpg,AFSA03.jpg,AFNE02.jpg,AFSA06.jpg,FS,4,num_6,32,num_4,0.583461922826,,,2017_May_03_1427,60.008218464,FEMA4ImagesEEG,001,100384,
AFNE01.JPG,AFNE01.JPG,AFNE01.JPG,AFNE01.JPG,AFNE01.JPG,AFNE01.JPG,,,,,,,,,,,,,,,,,5,2,52,5,,,,,,,AFSA20.jpg,AFNE19.jpg,AFNE14.jpg,AFSA01.jpg,AFSA01.jpg,FS,4,num_4,32,num_6,0.716856987914,,,2017_May_03_1427,60.008218464,FEMA4ImagesEEG,001,100384,
AFNE01.JPG,AFNE01.JPG,AFNE01.JPG,AFNE01.JPG,AFNE01.JPG,AFNE01.JPG,,,,,,,,,,,,,,,,,5,3,53,6,,,,,,,AFNE08.jpg,AFNE02.jpg,AFSA17.jpg,AFSA01.jpg,AFNE02.jpg,FN,3,num_6,32,num_2,1.03342582379,,,2017_May_03_1427,60.008218464,FEMA4ImagesEEG,001,100384,
AFNE01.JPG,AFNE01.JPG,AFNE01.JPG,AFNE01.JPG,AFNE01.JPG,AFNE01.JPG,,,,,,,,,,,,,,,,,5,4,54,2,,,,,,,AFNE07.jpg,AFSA20.jpg,AFSA04.jpg,AFNE02.jpg,AFSA04.jpg,FS,4,num_2,32,num_6,0.733451707289,,,2017_May_03_1427,60.008218464,FEMA4ImagesEEG,001,100384,
AFNE01.JPG,AFNE01.JPG,AFNE01.JPG,AFNE01.JPG,AFNE01.JPG,AFNE01.JPG,,,,,,,,,,,,,,,,,5,5,55,7,,,,,,,AFNE10.jpg,AFSA01.jpg,AFNE18.jpg,AFSA07.jpg,AFSA07.jpg,FS,4,num_4,32,num_2,3.56658591516,,,2017_May_03_1427,60.008218464,FEMA4ImagesEEG,001,100384,
AFNE01.JPG,AFNE01.JPG,AFNE01.JPG,AFNE01.JPG,AFNE01.JPG,AFNE01.JPG,,,,,,,,,,,,,,,,,5,6,56,4,,,,,,,AFSA05.jpg,AFSA01.jpg,AFNE06.jpg,AFNE12.jpg,AFNE12.jpg,FN,3,num_4,32,num_8,0.61675848905,,,2017_May_03_1427,60.008218464,FEMA4ImagesEEG,001,100384,
AFNE01.JPG,AFNE01.JPG,AFNE01.JPG,AFNE01.JPG,AFNE01.JPG,AFNE01.JPG,,,,,,,,,,,,,,,,,5,7,57,8,,,,,,,AFNE02.jpg,AFNE09.jpg,AFSA20.jpg,AFSA13.jpg,AFSA13.jpg,FS,4,num_4,32,num_2,0.750114102848,,,2017_May_03_1427,60.008218464,FEMA4ImagesEEG,001,100384,
AFNE01.JPG,AFNE01.JPG,AFNE01.JPG,AFNE01.JPG,AFNE01.JPG,AFNE01.JPG,,,,,,,,,,,,,,,,,5,8,58,9,,,,,,,AFNE09.jpg,AFNE08.jpg,AFSA08.jpg,AFSA03.jpg,AFSA08.jpg,FS,4,num_2,32,num_6,1.93335138028,,,2017_May_03_1427,60.008218464,FEMA4ImagesEEG,001,100384,
AFNE01.JPG,AFNE01.JPG,AFNE01.JPG,AFNE01.JPG,AFNE01.JPG,AFNE01.JPG,,,,,,,,,,,,,,,,,5,9,59,3,,,,,,,AFSA01.jpg,AFNE05.jpg,AFNE10.jpg,AFSA14.jpg,AFSA14.jpg,FS,4,num_4,32,num_8,0.666747920448,,,2017_May_03_1427,60.008218464,FEMA4ImagesEEG,001,100384,
,,,,,,,,,,,,,,,,,,,,,,,,,,,,,,,,,,,,,,,,,,,space,12.232525894,2017_May_03_1427,60.008218464,FEMA4ImagesEEG,001,100384,
AFNE01.JPG,AFNE01.JPG,AFNE01.JPG,AFNE01.JPG,AFNE01.JPG,AFNE01.JPG,,,,,,,,,,,,,,,,,,,,,0,0,0,3,,,AMSA08.jpg,AMNE14.jpg,AMNE15.jpg,AMSA03.jpg,AMSA08.jpg,MS,2,num_8,16,num_8,0.933438300621,,,2017_May_03_1427,60.008218464,FEMA4ImagesEEG,001,100384,
AFNE01.JPG,AFNE01.JPG,AFNE01.JPG,AFNE01.JPG,AFNE01.JPG,AFNE01.JPG,,,,,,,,,,,,,,,,,,,,,0,1,1,7,,,AMNE16.jpg,AMSA11.jpg,AMNE01.jpg,AMSA15.jpg,AMNE16.jpg,MN,1,num_8,32,num_4,0.78343632794,,,2017_May_03_1427,60.008218464,FEMA4ImagesEEG,001,100384,
AFNE01.JPG,AFNE01.JPG,AFNE01.JPG,AFNE01.JPG,AFNE01.JPG,AFNE01.JPG,,,,,,,,,,,,,,,,,,,,,0,2,2,0,,,AMNE09.jpg,AMNE03.jpg,AMSA02.jpg,AMSA05.jpg,AMSA02.jpg,MS,2,num_2,16,num_2,0.600128808757,,,2017_May_03_1427,60.008218464,FEMA4ImagesEEG,001,100384,
AFNE01.JPG,AFNE01.JPG,AFNE01.JPG,AFNE01.JPG,AFNE01.JPG,AFNE01.JPG,,,,,,,,,,,,,,,,,,,,,0,3,3,2,,,AMNE10.jpg,AMSA03.jpg,AMNE16.jpg,AMSA05.jpg,AMNE10.jpg,MN,1,num_8,32,num_6,0.500191320898,,,2017_May_03_1427,60.008218464,FEMA4ImagesEEG,001,100384,
AFNE01.JPG,AFNE01.JPG,AFNE01.JPG,AFNE01.JPG,AFNE01.JPG,AFNE01.JPG,,,,,,,,,,,,,,,,,,,,,0,4,4,5,,,AMNE08.jpg,AMNE03.jpg,AMSA18.jpg,AMSA05.jpg,AMSA18.jpg,MS,2,num_2,32,num_8,0.38345897221,,,2017_May_03_1427,60.008218464,FEMA4ImagesEEG,001,100384,
AFNE01.JPG,AFNE01.JPG,AFNE01.JPG,AFNE01.JPG,AFNE01.JPG,AFNE01.JPG,,,,,,,,,,,,,,,,,,,,,0,5,5,1,,,AMNE16.jpg,AMSA18.jpg,AMNE10.jpg,AMSA05.jpg,AMNE16.jpg,MN,1,num_8,32,num_2,0.766738972161,,,2017_May_03_1427,60.008218464,FEMA4ImagesEEG,001,100384,
AFNE01.JPG,AFNE01.JPG,AFNE01.JPG,AFNE01.JPG,AFNE01.JPG,AFNE01.JPG,,,,,,,,,,,,,,,,,,,,,0,6,6,9,,,AMNE16.jpg,AMNE04.jpg,AMSA10.jpg,AMSA01.jpg,AMNE04.jpg,MN,1,num_6,32,num_4,1.10012672399,,,2017_May_03_1427,60.008218464,FEMA4ImagesEEG,001,100384,
AFNE01.JPG,AFNE01.JPG,AFNE01.JPG,AFNE01.JPG,AFNE01.JPG,AFNE01.JPG,,,,,,,,,,,,,,,,,,,,,0,7,7,6,,,AMSA06.jpg,AMNE11.jpg,AMNE16.jpg,AMSA13.jpg,AMNE11.jpg,MN,1,num_6,32,num_8,0.933326362632,,,2017_May_03_1427,60.008218464,FEMA4ImagesEEG,001,100384,
AFNE01.JPG,AFNE01.JPG,AFNE01.JPG,AFNE01.JPG,AFNE01.JPG,AFNE01.JPG,,,,,,,,,,,,,,,,,,,,,0,8,8,4,,,AMNE01.jpg,AMNE12.jpg,AMSA12.jpg,AMSA18.jpg,AMSA18.jpg,MS,2,num_4,32,num_2,0.883490885841,,,2017_May_03_1427,60.008218464,FEMA4ImagesEEG,001,100384,
AFNE01.JPG,AFNE01.JPG,AFNE01.JPG,AFNE01.JPG,AFNE01.JPG,AFNE01.JPG,,,,,,,,,,,,,,,,,,,,,0,9,9,8,,,AMNE09.jpg,AMNE17.jpg,AMSA02.jpg,AMSA10.jpg,AMSA10.jpg,MS,2,num_4,16,num_4,0.633466750151,,,2017_May_03_1427,60.008218464,FEMA4ImagesEEG,001,100384,
AFNE01.JPG,AFNE01.JPG,AFNE01.JPG,AFNE01.JPG,AFNE01.JPG,AFNE01.JPG,,,,,,,,,,,,,,,,,,,,,1,0,10,3,,,AMNE13.jpg,AMSA11.jpg,AMNE16.jpg,AMSA18.jpg,AMSA18.jpg,MS,2,num_4,32,num_6,0.850099381059,,,2017_May_03_1427,60.008218464,FEMA4ImagesEEG,001,100384,
AFNE01.JPG,AFNE01.JPG,AFNE01.JPG,AFNE01.JPG,AFNE01.JPG,AFNE01.JPG,,,,,,,,,,,,,,,,,,,,,1,1,11,4,,,AMNE06.jpg,AMSA10.jpg,AMNE16.jpg,AMSA14.jpg,AMSA14.jpg,MS,2,num_4,16,num_4,0.633523841854,,,2017_May_03_1427,60.008218464,FEMA4ImagesEEG,001,100384,
AFNE01.JPG,AFNE01.JPG,AFNE01.JPG,AFNE01.JPG,AFNE01.JPG,AFNE01.JPG,,,,,,,,,,,,,,,,,,,,,1,2,12,0,,,AMNE04.jpg,AMSA20.jpg,AMNE15.jpg,AMSA03.jpg,AMNE04.jpg,MN,1,num_8,32,num_6,0.683464200236,,,2017_May_03_1427,60.008218464,FEMA4ImagesEEG,001,100384,
AFNE01.JPG,AFNE01.JPG,AFNE01.JPG,AFNE01.JPG,AFNE01.JPG,AFNE01.JPG,,,,,,,,,,,,,,,,,,,,,1,3,13,2,,,AMNE04.jpg,AMSA20.jpg,AMSA02.jpg,AMNE05.jpg,AMNE05.jpg,MN,1,num_4,32,num_2,1.78325061989,,,2017_May_03_1427,60.008218464,FEMA4ImagesEEG,001,100384,
AFNE01.JPG,AFNE01.JPG,AFNE01.JPG,AFNE01.JPG,AFNE01.JPG,AFNE01.JPG,,,,,,,,,,,,,,,,,,,,,1,4,14,7,,,AMNE12.jpg,AMSA09.jpg,AMSA06.jpg,AMNE20.jpg,AMNE12.jpg,MN,1,num_8,16,num_8,0.616717113415,,,2017_May_03_1427,60.008218464,FEMA4ImagesEEG,001,100384,
AFNE01.JPG,AFNE01.JPG,AFNE01.JPG,AFNE01.JPG,AFNE01.JPG,AFNE01.JPG,,,,,,,,,,,,,,,,,,,,,1,5,15,5,,,AMNE12.jpg,AMSA11.jpg,AMSA17.jpg,AMNE05.jpg,AMNE12.jpg,MN,1,num_8,32,num_6,0.466810721206,,,2017_May_03_1427,60.008218464,FEMA4ImagesEEG,001,100384,
AFNE01.JPG,AFNE01.JPG,AFNE01.JPG,AFNE01.JPG,AFNE01.JPG,AFNE01.JPG,,,,,,,,,,,,,,,,,,,,,1,6,16,1,,,AMSA19.jpg,AMNE10.jpg,AMSA07.jpg,AMNE09.jpg,AMNE10.jpg,MN,1,num_6,16,num_6,0.600083263824,,,2017_May_03_1427,60.008218464,FEMA4ImagesEEG,001,100384,
AFNE01.JPG,AFNE01.JPG,AFNE01.JPG,AFNE01.JPG,AFNE01.JPG,AFNE01.JPG,,,,,,,,,,,,,,,,,,,,,1,7,17,9,,,AMNE10.jpg,AMNE04.jpg,AMSA04.jpg,AMSA01.jpg,AMNE10.jpg,MN,1,num_8,16,num_8,0.4001681956,,,2017_May_03_1427,60.008218464,FEMA4ImagesEEG,001,100384,
AFNE01.JPG,AFNE01.JPG,AFNE01.JPG,AFNE01.JPG,AFNE01.JPG,AFNE01.JPG,,,,,,,,,,,,,,,,,,,,,1,8,18,8,,,AMSA02.jpg,AMNE08.jpg,AMSA06.jpg,AMNE19.jpg,AMSA02.jpg,MS,2,num_8,32,num_2,0.78346936428,,,2017_May_03_1427,60.008218464,FEMA4ImagesEEG,001,100384,
AFNE01.JPG,AFNE01.JPG,AFNE01.JPG,AFNE01.JPG,AFNE01.JPG,AFNE01.JPG,,,,,,,,,,,,,,,,,,,,,1,9,19,6,,,AMNE01.jpg,AMSA07.jpg,AMSA17.jpg,AMNE09.jpg,AMSA17.jpg,MS,2,num_2,32,num_4,0.900126980618,,,2017_May_03_1427,60.008218464,FEMA4ImagesEEG,001,100384,
AFNE01.JPG,AFNE01.JPG,AFNE01.JPG,AFNE01.JPG,AFNE01.JPG,AFNE01.JPG,,,,,,,,,,,,,,,,,,,,,2,0,20,6,,,AMSA19.jpg,AMSA06.jpg,AMNE17.jpg,AMNE10.jpg,AMNE17.jpg,MN,1,num_2,32,num_6,0.500132304849,,,2017_May_03_1427,60.008218464,FEMA4ImagesEEG,001,100384,
AFNE01.JPG,AFNE01.JPG,AFNE01.JPG,AFNE01.JPG,AFNE01.JPG,AFNE01.JPG,,,,,,,,,,,,,,,,,,,,,2,1,21,3,,,AMSA08.jpg,AMNE07.jpg,AMSA17.jpg,AMNE10.jpg,AMNE07.jpg,MN,1,num_6,16,num_6,0.550080361078,,,2017_May_03_1427,60.008218464,FEMA4ImagesEEG,001,100384,
AFNE01.JPG,AFNE01.JPG,AFNE01.JPG,AFNE01.JPG,AFNE01.JPG,AFNE01.JPG,,,,,,,,,,,,,,,,,,,,,2,2,22,8,,,AMSA19.jpg,AMSA11.jpg,AMNE11.jpg,AMNE14.jpg,AMSA19.jpg,MS,2,num_8,32,num_2,0.950172862504,,,2017_May_03_1427,60.008218464,FEMA4ImagesEEG,001,100384,
AFNE01.JPG,AFNE01.JPG,AFNE01.JPG,AFNE01.JPG,AFNE01.JPG,AFNE01.JPG,,,,,,,,,,,,,,,,,,,,,2,3,23,4,,,AMSA13.jpg,AMNE08.jpg,AMNE20.jpg,AMSA05.jpg,AMSA13.jpg,MS,2,num_8,16,num_8,0.816783249844,,,2017_May_03_1427,60.008218464,FEMA4ImagesEEG,001,100384,
AFNE01.JPG,AFNE01.JPG,AFNE01.JPG,AFNE01.JPG,AFNE01.JPG,AFNE01.JPG,,,,,,,,,,,,,,,,,,,,,2,4,24,7,,,AMNE10.jpg,AMSA05.jpg,AMSA14.jpg,AMNE07.jpg,AMSA14.jpg,MS,2,num_2,16,num_2,0.900085925823,,,2017_May_03_1427,60.008218464,FEMA4ImagesEEG,001,100384,
AFNE01.JPG,AFNE01.JPG,AFNE01.JPG,AFNE01.JPG,AFNE01.JPG,AFNE01.JPG,,,,,,,,,,,,,,,,,,,,,2,5,25,2,,,AMSA16.jpg,AMNE10.jpg,AMNE13.jpg,AMSA01.jpg,AMNE10.jpg,MN,1,num_6,32,num_4,1.26678884681,,,2017_May_03_1427,60.008218464,FEMA4ImagesEEG,001,100384,
AFNE01.JPG,AFNE01.JPG,AFNE01.JPG,AFNE01.JPG,AFNE01.JPG,AFNE01.JPG,,,,,,,,,,,,,,,,,,,,,2,6,26,5,,,AMSA08.jpg,AMSA15.jpg,AMNE04.jpg,AMNE17.jpg,AMNE17.jpg,MN,1,num_4,16,num_4,0.883470358327,,,2017_May_03_1427,60.008218464,FEMA4ImagesEEG,001,100384,
AFNE01.JPG,AFNE01.JPG,AFNE01.JPG,AFNE01.JPG,AFNE01.JPG,AFNE01.JPG,,,,,,,,,,,,,,,,,,,,,2,7,27,1,,,AMSA12.jpg,AMNE05.jpg,AMSA18.jpg,AMNE16.jpg,AMNE05.jpg,MN,1,num_6,32,num_2,0.450153778307,,,2017_May_03_1427,60.008218464,FEMA4ImagesEEG,001,100384,
AFNE01.JPG,AFNE01.JPG,AFNE01.JPG,AFNE01.JPG,AFNE01.JPG,AFNE01.JPG,,,,,,,,,,,,,,,,,,,,,2,8,28,9,,,AMSA04.jpg,AMSA20.jpg,AMNE18.jpg,AMNE19.jpg,AMSA20.jpg,MS,2,num_6,32,num_8,0.416665089549,,,2017_May_03_1427,60.008218464,FEMA4ImagesEEG,001,100384,
AFNE01.JPG,AFNE01.JPG,AFNE01.JPG,AFNE01.JPG,AFNE01.JPG,AFNE01.JPG,,,,,,,,,,,,,,,,,,,,,2,9,29,0,,,AMSA20.jpg,AMNE04.jpg,AMSA16.jpg,AMNE05.jpg,AMSA20.jpg,MS,2,num_8,16,num_8,0.666776145576,,,2017_May_03_1427,60.008218464,FEMA4ImagesEEG,001,100384,
AFNE01.JPG,AFNE01.JPG,AFNE01.JPG,AFNE01.JPG,AFNE01.JPG,AFNE01.JPG,,,,,,,,,,,,,,,,,,,,,3,0,30,3,,,AMSA07.jpg,AMNE05.jpg,AMSA19.jpg,AMNE01.jpg,AMNE01.jpg,MN,1,num_4,16,num_4,0.666759467218,,,2017_May_03_1427,60.008218464,FEMA4ImagesEEG,001,100384,
AFNE01.JPG,AFNE01.JPG,AFNE01.JPG,AFNE01.JPG,AFNE01.JPG,AFNE01.JPG,,,,,,,,,,,,,,,,,,,,,3,1,31,0,,,AMNE10.jpg,AMSA13.jpg,AMNE07.jpg,AMSA17.jpg,AMSA17.jpg,MS,2,num_4,32,num_6,0.933453695849,,,2017_May_03_1427,60.008218464,FEMA4ImagesEEG,001,100384,
AFNE01.JPG,AFNE01.JPG,AFNE01.JPG,AFNE01.JPG,AFNE01.JPG,AFNE01.JPG,,,,,,,,,,,,,,,,,,,,,3,2,32,4,,,AMSA14.jpg,AMNE19.jpg,AMSA05.jpg,AMNE08.jpg,AMNE19.jpg,MN,1,num_6,32,num_4,0.550247787032,,,2017_May_03_1427,60.008218464,FEMA4ImagesEEG,001,100384,
AFNE01.JPG,AFNE01.JPG,AFNE01.JPG,AFNE01.JPG,AFNE01.JPG,AFNE01.JPG,,,,,,,,,,,,,,,,,,,,,3,3,33,5,,,AMSA09.jpg,AMSA12.jpg,AMNE09.jpg,AMNE15.jpg,AMSA12.jpg,MS,2,num_6,32,num_8,0.350172670092,,,2017_May_03_1427,60.008218464,FEMA4ImagesEEG,001,100384,
AFNE01.JPG,AFNE01.JPG,AFNE01.JPG,AFNE01.JPG,AFNE01.JPG,AFNE01.JPG,,,,,,,,,,,,,,,,,,,,,3,4,34,1,,,AMNE06.jpg,AMSA12.jpg,AMNE17.jpg,AMSA01.jpg,AMSA12.jpg,MS,2,num_6,32,num_2,0.600213483907,,,2017_May_03_1427,60.008218464,FEMA4ImagesEEG,001,100384,
AFNE01.JPG,AFNE01.JPG,AFNE01.JPG,AFNE01.JPG,AFNE01.JPG,AFNE01.JPG,,,,,,,,,,,,,,,,,,,,,3,5,35,6,,,AMNE04.jpg,AMSA15.jpg,AMSA20.jpg,AMNE12.jpg,AMSA20.jpg,MS,2,num_2,32,num_6,0.616787355393,,,2017_May_03_1427,60.008218464,FEMA4ImagesEEG,001,100384,
AFNE01.JPG,AFNE01.JPG,AFNE01.JPG,AFNE01.JPG,AFNE01.JPG,AFNE01.JPG,,,,,,,,,,,,,,,,,,,,,3,6,36,2,,,AMNE09.jpg,AMNE18.jpg,AMSA20.jpg,AMSA13.jpg,AMSA13.jpg,MS,2,num_4,32,num_8,0.616840598173,,,2017_May_03_1427,60.008218464,FEMA4ImagesEEG,001,100384,
AFNE01.JPG,AFNE01.JPG,AFNE01.JPG,AFNE01.JPG,AFNE01.JPG,AFNE01.JPG,,,,,,,,,,,,,,,,,,,,,3,7,37,9,,,AMNE10.jpg,AMSA03.jpg,AMNE13.jpg,AMSA04.jpg,AMSA04.jpg,MS,2,num_4,32,num_2,0.850426855497,,,2017_May_03_1427,60.008218464,FEMA4ImagesEEG,001,100384,
AFNE01.JPG,AFNE01.JPG,AFNE01.JPG,AFNE01.JPG,AFNE01.JPG,AFNE01.JPG,,,,,,,,,,,,,,,,,,,,,3,8,38,7,,,AMSA13.jpg,AMNE18.jpg,AMSA14.jpg,AMNE02.jpg,AMSA13.jpg,MS,2,num_8,32,num_4,2.38343363372,,,2017_May_03_1427,60.008218464,FEMA4ImagesEEG,001,100384,
AFNE01.JPG,AFNE01.JPG,AFNE01.JPG,AFNE01.JPG,AFNE01.JPG,AFNE01.JPG,,,,,,,,,,,,,,,,,,,,,3,9,39,8,,,AMSA11.jpg,AMSA14.jpg,AMNE02.jpg,AMNE03.jpg,AMSA14.jpg,MS,2,num_6,32,num_8,0.466810721438,,,2017_May_03_1427,60.008218464,FEMA4ImagesEEG,001,100384,
AFNE01.JPG,AFNE01.JPG,AFNE01.JPG,AFNE01.JPG,AFNE01.JPG,AFNE01.JPG,,,,,,,,,,,,,,,,,,,,,4,0,40,1,,,AMNE15.jpg,AMSA08.jpg,AMNE02.jpg,AMSA12.jpg,AMNE02.jpg,MN,1,num_2,16,num_2,0.516797587043,,,2017_May_03_1427,60.008218464,FEMA4ImagesEEG,001,100384,
