IPosition2,IPosition3,IPosition1,IPosition6,IPosition4,IPosition5,TrialsF1.thisRepN,TrialsF1.thisTrialN,TrialsF1.thisN,TrialsF1.thisIndex,TrialsM1.thisRepN,TrialsM1.thisTrialN,TrialsM1.thisN,TrialsM1.thisIndex,TrialsF2.thisRepN,TrialsF2.thisTrialN,TrialsF2.thisN,TrialsF2.thisIndex,TrialsM2.thisRepN,TrialsM2.thisTrialN,TrialsM2.thisN,TrialsM2.thisIndex,TrialsF3.thisRepN,TrialsF3.thisTrialN,TrialsF3.thisN,TrialsF3.thisIndex,TrialsM3.thisRepN,TrialsM3.thisTrialN,TrialsM3.thisN,TrialsM3.thisIndex,InstrKey_resp.keys,InstrKey_resp.rt,Image0 _Position,Image1 _Position,Image2 _Position,Image3 _Position,Center_image,condition,code,correct_answer,accuracy,Key_Resp.keys,Key_Resp.rt,BreakKey_resp.keys,BreakKey_resp.rt,date,frameRate,expName,session,participant,
,,,,,,,,,,,,,,,,,,,,,,,,,,,,,,space,79.0775011474,,,,,,,,,,,,,,2017_Apr_24_1234,60.0151491407,FEMA4ImagesEEG,001,100301,
AMNE23.JPG,AMNE24.JPG,AMNE22.JPG,AMSA24.JPG,AMSA22.JPG,AMSA23.JPG,0,0,0,9,,,,,,,,,,,,,,,,,,,,,,,AFSA16.jpg,AFSA12.jpg,AFNE11.jpg,AFNE04.jpg,AFNE11.jpg,FN,3,num_2,32,num_4,2.19999685686,,,2017_Apr_24_1234,60.0151491407,FEMA4ImagesEEG,001,100301,
AFNE22.JPG,AFSA24.JPG,AFSA22.JPG,AFNE25.JPG,AFNE24.JPG,AFSA25.JPG,0,1,1,6,,,,,,,,,,,,,,,,,,,,,,,AFSA06.jpg,AFNE14.jpg,AFSA09.jpg,AFNE07.jpg,AFSA06.jpg,FS,4,num_8,32,num_2,1.86669506272,,,2017_Apr_24_1234,60.0151491407,FEMA4ImagesEEG,001,100301,
AMSA21.JPG,AMNE23.JPG,AMNE21.JPG,AMSA25.JPG,AMNE25.JPG,AMSA23.JPG,0,2,2,5,,,,,,,,,,,,,,,,,,,,,,,AFSA02.jpg,AFNE03.jpg,AFSA17.jpg,AFNE12.jpg,AFSA17.jpg,FS,4,num_2,32,num_4,2.58330636448,,,2017_Apr_24_1234,60.0151491407,FEMA4ImagesEEG,001,100301,
AFSA21.JPG,AFNE23.JPG,AFNE21.JPG,AFSA25.JPG,AFNE25.JPG,AFSA23.JPG,0,3,3,4,,,,,,,,,,,,,,,,,,,,,,,AFNE15.jpg,AFSA13.jpg,AFSA17.jpg,AFNE03.jpg,AFSA17.jpg,FS,4,num_2,32,num_8,3.06663546944,,,2017_Apr_24_1234,60.0151491407,FEMA4ImagesEEG,001,100301,
AFSA21.JPG,AFNE22.JPG,AFNE21.JPG,AFSA23.JPG,AFSA22.JPG,AFNE23.JPG,0,4,4,0,,,,,,,,,,,,,,,,,,,,,,,AFSA04.jpg,AFNE20.jpg,AFNE07.jpg,AFSA03.jpg,AFSA04.jpg,FS,4,num_8,16,num_8,0.783473533811,,,2017_Apr_24_1234,60.0151491407,FEMA4ImagesEEG,001,100301,
AMNE22.JPG,AMSA24.JPG,AMSA22.JPG,AMNE25.JPG,AMNE24.JPG,AMSA25.JPG,0,5,5,7,,,,,,,,,,,,,,,,,,,,,,,AFSA11.jpg,AFSA14.jpg,AFNE05.jpg,AFNE01.jpg,AFSA11.jpg,FS,4,num_8,32,num_6,1.7168056696,,,2017_Apr_24_1234,60.0151491407,FEMA4ImagesEEG,001,100301,
AFNE23.JPG,AFNE24.JPG,AFNE22.JPG,AFSA24.JPG,AFSA22.JPG,AFSA23.JPG,0,6,6,8,,,,,,,,,,,,,,,,,,,,,,,AFSA19.jpg,AFNE16.jpg,AFNE14.jpg,AFSA08.jpg,AFNE14.jpg,FN,3,num_2,32,num_8,1.30011780746,,,2017_Apr_24_1234,60.0151491407,FEMA4ImagesEEG,001,100301,
AMSA21.JPG,AMNE22.JPG,AMNE21.JPG,AMSA23.JPG,AMSA22.JPG,AMNE23.JPG,0,7,7,1,,,,,,,,,,,,,,,,,,,,,,,AFNE09.jpg,AFSA03.jpg,AFSA12.jpg,AFNE11.jpg,AFSA03.jpg,FS,4,num_6,32,num_8,2.40001776896,,,2017_Apr_24_1234,60.0151491407,FEMA4ImagesEEG,001,100301,
AFSA25.JPG,AFNE24.JPG,AFSA24.JPG,AFNE21.JPG,AFSA21.JPG,AFNE25.JPG,0,8,8,2,,,,,,,,,,,,,,,,,,,,,,,AFSA03.jpg,AFNE09.jpg,AFSA04.jpg,AFNE17.jpg,AFNE09.jpg,FN,3,num_6,32,num_8,1.88340172032,,,2017_Apr_24_1234,60.0151491407,FEMA4ImagesEEG,001,100301,
AMSA25.JPG,AMNE24.JPG,AMSA24.JPG,AMNE26.JPG,AMSA21.JPG,AMNE25.JPG,0,9,9,3,,,,,,,,,,,,,,,,,,,,,,,AFNE03.jpg,AFSA11.jpg,AFSA03.jpg,AFNE13.jpg,AFSA11.jpg,FS,4,num_6,16,num_6,1.91652187973,,,2017_Apr_24_1234,60.0151491407,FEMA4ImagesEEG,001,100301,
AMSA21.JPG,AMNE22.JPG,AMNE21.JPG,AMSA23.JPG,AMSA22.JPG,AMNE23.JPG,,,,,0,0,0,1,,,,,,,,,,,,,,,,,,,AMSA17.jpg,AMNE17.jpg,AMNE16.jpg,AMSA05.jpg,AMNE17.jpg,MN,1,num_6,32,num_8,1.18342779635,,,2017_Apr_24_1234,60.0151491407,FEMA4ImagesEEG,001,100301,
AMNE23.JPG,AMNE24.JPG,AMNE22.JPG,AMSA24.JPG,AMSA22.JPG,AMSA23.JPG,,,,,0,1,1,9,,,,,,,,,,,,,,,,,,,AMNE08.jpg,AMSA03.jpg,AMNE03.jpg,AMSA16.jpg,AMNE08.jpg,MN,1,num_8,32,num_2,3.44996614603,,,2017_Apr_24_1234,60.0151491407,FEMA4ImagesEEG,001,100301,
AMSA25.JPG,AMNE24.JPG,AMSA24.JPG,AMNE26.JPG,AMSA21.JPG,AMNE25.JPG,,,,,0,2,2,3,,,,,,,,,,,,,,,,,,,AMNE07.jpg,AMSA15.jpg,AMNE16.jpg,AMSA01.jpg,AMNE16.jpg,MN,1,num_2,32,num_8,1.56685854343,,,2017_Apr_24_1234,60.0151491407,FEMA4ImagesEEG,001,100301,
AFSA21.JPG,AFNE23.JPG,AFNE21.JPG,AFSA25.JPG,AFNE25.JPG,AFSA23.JPG,,,,,0,3,3,4,,,,,,,,,,,,,,,,,,,AMSA04.jpg,AMNE01.jpg,AMNE10.jpg,AMSA18.jpg,AMSA04.jpg,MS,2,num_8,32,num_6,1.38338423998,,,2017_Apr_24_1234,60.0151491407,FEMA4ImagesEEG,001,100301,
AFNE23.JPG,AFNE24.JPG,AFNE22.JPG,AFSA24.JPG,AFSA22.JPG,AFSA23.JPG,,,,,0,4,4,8,,,,,,,,,,,,,,,,,,,AMNE18.jpg,AMSA06.jpg,AMNE16.jpg,AMSA09.jpg,AMNE18.jpg,MN,1,num_8,16,num_8,1.10010715888,,,2017_Apr_24_1234,60.0151491407,FEMA4ImagesEEG,001,100301,
AFSA21.JPG,AFNE22.JPG,AFNE21.JPG,AFSA23.JPG,AFSA22.JPG,AFNE23.JPG,,,,,0,5,5,0,,,,,,,,,,,,,,,,,,,AMNE01.jpg,AMSA06.jpg,AMNE06.jpg,AMSA04.jpg,AMNE06.jpg,MN,1,num_2,16,num_2,1.30005526333,,,2017_Apr_24_1234,60.0151491407,FEMA4ImagesEEG,001,100301,
AFNE22.JPG,AFSA24.JPG,AFSA22.JPG,AFNE25.JPG,AFNE24.JPG,AFSA25.JPG,,,,,0,6,6,6,,,,,,,,,,,,,,,,,,,AMSA06.jpg,AMNE11.jpg,AMSA08.jpg,AMNE04.jpg,AMNE04.jpg,MN,1,num_4,16,num_4,3.34978136828,,,2017_Apr_24_1234,60.0151491407,FEMA4ImagesEEG,001,100301,
AFSA25.JPG,AFNE24.JPG,AFSA24.JPG,AFNE21.JPG,AFSA21.JPG,AFNE25.JPG,,,,,0,7,7,2,,,,,,,,,,,,,,,,,,,AMNE04.jpg,AMSA01.jpg,AMNE16.jpg,AMSA03.jpg,AMNE04.jpg,MN,1,num_8,32,num_2,1.85003683693,,,2017_Apr_24_1234,60.0151491407,FEMA4ImagesEEG,001,100301,
AMNE22.JPG,AMSA24.JPG,AMSA22.JPG,AMNE25.JPG,AMNE24.JPG,AMSA25.JPG,,,,,0,8,8,7,,,,,,,,,,,,,,,,,,,AMSA01.jpg,AMSA10.jpg,AMNE09.jpg,AMNE05.jpg,AMSA01.jpg,MS,2,num_8,16,num_8,0.666782881017,,,2017_Apr_24_1234,60.0151491407,FEMA4ImagesEEG,001,100301,
AMSA21.JPG,AMNE23.JPG,AMNE21.JPG,AMSA25.JPG,AMNE25.JPG,AMSA23.JPG,,,,,0,9,9,5,,,,,,,,,,,,,,,,,,,AMNE14.jpg,AMSA10.jpg,AMSA07.jpg,AMNE20.jpg,AMSA07.jpg,MS,2,num_2,32,num_6,1.18336974259,,,2017_Apr_24_1234,60.0151491407,FEMA4ImagesEEG,001,100301,
AFSA25.JPG,AFNE24.JPG,AFSA24.JPG,AFNE21.JPG,AFSA21.JPG,AFNE25.JPG,,,,,,,,,0,0,0,2,,,,,,,,,,,,,,,AFSA18.jpg,AFNE16.jpg,AFSA06.jpg,AFNE04.jpg,AFNE16.jpg,FN,3,num_6,16,num_6,1.48340544081,,,2017_Apr_24_1234,60.0151491407,FEMA4ImagesEEG,001,100301,
AMNE23.JPG,AMNE24.JPG,AMNE22.JPG,AMSA24.JPG,AMSA22.JPG,AMSA23.JPG,,,,,,,,,0,1,1,9,,,,,,,,,,,,,,,AFNE17.jpg,AFSA15.jpg,AFNE04.jpg,AFSA01.jpg,AFSA01.jpg,FS,4,num_4,32,num_2,1.99972159846,,,2017_Apr_24_1234,60.0151491407,FEMA4ImagesEEG,001,100301,
AMSA21.JPG,AMNE23.JPG,AMNE21.JPG,AMSA25.JPG,AMNE25.JPG,AMSA23.JPG,,,,,,,,,0,2,2,5,,,,,,,,,,,,,,,AFNE18.jpg,AFNE08.jpg,AFSA13.jpg,AFSA05.jpg,AFNE08.jpg,FN,3,num_6,32,num_4,1.06678525463,,,2017_Apr_24_1234,60.0151491407,FEMA4ImagesEEG,001,100301,
AFNE23.JPG,AFNE24.JPG,AFNE22.JPG,AFSA24.JPG,AFSA22.JPG,AFSA23.JPG,,,,,,,,,0,3,3,8,,,,,,,,,,,,,,,AFNE09.jpg,AFSA19.jpg,AFNE20.jpg,AFSA02.jpg,AFNE20.jpg,FN,3,num_2,32,num_6,2.20002123283,,,2017_Apr_24_1234,60.0151491407,FEMA4ImagesEEG,001,100301,
AMNE22.JPG,AMSA24.JPG,AMSA22.JPG,AMNE25.JPG,AMNE24.JPG,AMSA25.JPG,,,,,,,,,0,4,4,7,,,,,,,,,,,,,,,AFNE08.jpg,AFNE10.jpg,AFSA03.jpg,AFSA02.jpg,AFNE08.jpg,FN,3,num_8,32,num_4,2.25027623645,,,2017_Apr_24_1234,60.0151491407,FEMA4ImagesEEG,001,100301,
AFSA21.JPG,AFNE23.JPG,AFNE21.JPG,AFSA25.JPG,AFNE25.JPG,AFSA23.JPG,,,,,,,,,0,5,5,4,,,,,,,,,,,,,,,AFSA06.jpg,AFNE06.jpg,AFNE09.jpg,AFSA20.jpg,AFNE09.jpg,FN,3,num_2,32,num_6,1.70002973254,,,2017_Apr_24_1234,60.0151491407,FEMA4ImagesEEG,001,100301,
AFNE22.JPG,AFSA24.JPG,AFSA22.JPG,AFNE25.JPG,AFNE24.JPG,AFSA25.JPG,,,,,,,,,0,6,6,6,,,,,,,,,,,,,,,AFNE10.jpg,AFSA15.jpg,AFSA14.jpg,AFNE04.jpg,AFSA15.jpg,FS,4,num_6,32,num_8,1.43347085558,,,2017_Apr_24_1234,60.0151491407,FEMA4ImagesEEG,001,100301,
AMSA21.JPG,AMNE22.JPG,AMNE21.JPG,AMSA23.JPG,AMSA22.JPG,AMNE23.JPG,,,,,,,,,0,7,7,1,,,,,,,,,,,,,,,AFSA04.jpg,AFNE18.jpg,AFNE05.jpg,AFSA19.jpg,AFNE18.jpg,FN,3,num_6,32,num_2,1.25010784855,,,2017_Apr_24_1234,60.0151491407,FEMA4ImagesEEG,001,100301,
AMSA25.JPG,AMNE24.JPG,AMSA24.JPG,AMNE26.JPG,AMSA21.JPG,AMNE25.JPG,,,,,,,,,0,8,8,3,,,,,,,,,,,,,,,AFSA04.jpg,AFNE02.jpg,AFNE01.jpg,AFSA16.jpg,AFNE02.jpg,FN,3,num_6,16,num_6,0.70011055877,,,2017_Apr_24_1234,60.0151491407,FEMA4ImagesEEG,001,100301,
AFSA21.JPG,AFNE22.JPG,AFNE21.JPG,AFSA23.JPG,AFSA22.JPG,AFNE23.JPG,,,,,,,,,0,9,9,0,,,,,,,,,,,,,,,AFNE14.jpg,AFSA11.jpg,AFNE04.jpg,AFSA07.jpg,AFNE14.jpg,FN,3,num_8,32,num_4,1.56669817388,,,2017_Apr_24_1234,60.0151491407,FEMA4ImagesEEG,001,100301,
AFNE23.JPG,AFNE24.JPG,AFNE22.JPG,AFSA24.JPG,AFSA22.JPG,AFSA23.JPG,,,,,,,,,,,,,0,0,0,8,,,,,,,,,,,AMSA01.jpg,AMSA08.jpg,AMNE07.jpg,AMNE11.jpg,AMSA08.jpg,MS,2,num_6,32,num_8,0.91680829972,,,2017_Apr_24_1234,60.0151491407,FEMA4ImagesEEG,001,100301,
AFSA21.JPG,AFNE22.JPG,AFNE21.JPG,AFSA23.JPG,AFSA22.JPG,AFNE23.JPG,,,,,,,,,,,,,0,1,1,0,,,,,,,,,,,AMSA02.jpg,AMNE14.jpg,AMNE03.jpg,AMSA18.jpg,AMNE14.jpg,MN,1,num_6,32,num_2,1.46660608985,,,2017_Apr_24_1234,60.0151491407,FEMA4ImagesEEG,001,100301,
AMSA21.JPG,AMNE23.JPG,AMNE21.JPG,AMSA25.JPG,AMNE25.JPG,AMSA23.JPG,,,,,,,,,,,,,0,2,2,5,,,,,,,,,,,AMSA07.jpg,AMSA11.jpg,AMNE08.jpg,AMNE16.jpg,AMSA07.jpg,MS,2,num_8,32,num_6,0.916780395433,,,2017_Apr_24_1234,60.0151491407,FEMA4ImagesEEG,001,100301,
AMNE23.JPG,AMNE24.JPG,AMNE22.JPG,AMSA24.JPG,AMSA22.JPG,AMSA23.JPG,,,,,,,,,,,,,0,3,3,9,,,,,,,,,,,AMSA11.jpg,AMSA17.jpg,AMNE11.jpg,AMNE02.jpg,AMSA17.jpg,MS,2,num_6,32,num_4,1.75001852273,,,2017_Apr_24_1234,60.0151491407,FEMA4ImagesEEG,001,100301,
AFSA21.JPG,AFNE23.JPG,AFNE21.JPG,AFSA25.JPG,AFNE25.JPG,AFSA23.JPG,,,,,,,,,,,,,0,4,4,4,,,,,,,,,,,AMNE17.jpg,AMNE02.jpg,AMSA02.jpg,AMSA08.jpg,AMNE02.jpg,MN,1,num_6,32,num_4,1.11675704562,,,2017_Apr_24_1234,60.0151491407,FEMA4ImagesEEG,001,100301,
AMSA25.JPG,AMNE24.JPG,AMSA24.JPG,AMNE26.JPG,AMSA21.JPG,AMNE25.JPG,,,,,,,,,,,,,0,5,5,3,,,,,,,,,,,AMSA08.jpg,AMSA04.jpg,AMNE11.jpg,AMNE12.jpg,AMNE12.jpg,MN,1,num_4,32,num_8,1.00009012769,,,2017_Apr_24_1234,60.0151491407,FEMA4ImagesEEG,001,100301,
AMSA21.JPG,AMNE22.JPG,AMNE21.JPG,AMSA23.JPG,AMSA22.JPG,AMNE23.JPG,,,,,,,,,,,,,0,6,6,1,,,,,,,,,,,AMNE09.jpg,AMNE02.jpg,AMSA16.jpg,AMSA14.jpg,AMNE09.jpg,MN,1,num_8,32,num_4,0.683472218807,,,2017_Apr_24_1234,60.0151491407,FEMA4ImagesEEG,001,100301,
AMNE22.JPG,AMSA24.JPG,AMSA22.JPG,AMNE25.JPG,AMNE24.JPG,AMSA25.JPG,,,,,,,,,,,,,0,7,7,7,,,,,,,,,,,AMSA01.jpg,AMNE06.jpg,AMSA09.jpg,AMNE15.jpg,AMNE06.jpg,MN,1,num_6,16,num_6,1.01673648623,,,2017_Apr_24_1234,60.0151491407,FEMA4ImagesEEG,001,100301,
AFSA25.JPG,AFNE24.JPG,AFSA24.JPG,AFNE21.JPG,AFSA21.JPG,AFNE25.JPG,,,,,,,,,,,,,0,8,8,2,,,,,,,,,,,AMNE03.jpg,AMNE20.jpg,AMSA13.jpg,AMSA18.jpg,AMNE03.jpg,MN,1,num_8,32,num_4,0.650110542774,,,2017_Apr_24_1234,60.0151491407,FEMA4ImagesEEG,001,100301,
AFNE22.JPG,AFSA24.JPG,AFSA22.JPG,AFNE25.JPG,AFNE24.JPG,AFSA25.JPG,,,,,,,,,,,,,0,9,9,6,,,,,,,,,,,AMSA18.jpg,AMNE07.jpg,AMNE06.jpg,AMSA12.jpg,AMNE07.jpg,MN,1,num_6,32,num_2,0.783439856023,,,2017_Apr_24_1234,60.0151491407,FEMA4ImagesEEG,001,100301,
AFSA21.JPG,AFNE23.JPG,AFNE21.JPG,AFSA25.JPG,AFNE25.JPG,AFSA23.JPG,,,,,,,,,,,,,,,,,0,0,0,4,,,,,,,AFSA09.jpg,AFNE09.jpg,AFNE16.jpg,AFSA08.jpg,AFSA09.jpg,FS,4,num_8,32,num_4,0.900148470071,,,2017_Apr_24_1234,60.0151491407,FEMA4ImagesEEG,001,100301,
AFNE23.JPG,AFNE24.JPG,AFNE22.JPG,AFSA24.JPG,AFSA22.JPG,AFSA23.JPG,,,,,,,,,,,,,,,,,0,1,1,8,,,,,,,AFNE05.jpg,AFSA13.jpg,AFSA15.jpg,AFNE20.jpg,AFNE20.jpg,FN,3,num_4,32,num_6,0.750130460598,,,2017_Apr_24_1234,60.0151491407,FEMA4ImagesEEG,001,100301,
AMSA21.JPG,AMNE22.JPG,AMNE21.JPG,AMSA23.JPG,AMSA22.JPG,AMNE23.JPG,,,,,,,,,,,,,,,,,0,2,2,1,,,,,,,AFSA06.jpg,AFSA03.jpg,AFNE19.jpg,AFNE20.jpg,AFSA03.jpg,FS,4,num_6,32,num_8,0.916771093966,,,2017_Apr_24_1234,60.0151491407,FEMA4ImagesEEG,001,100301,
AMSA25.JPG,AMNE24.JPG,AMSA24.JPG,AMNE26.JPG,AMSA21.JPG,AMNE25.JPG,,,,,,,,,,,,,,,,,0,3,3,3,,,,,,,AFNE17.jpg,AFSA06.jpg,AFSA15.jpg,AFNE13.jpg,AFNE17.jpg,FN,3,num_8,16,num_8,1.16674391134,,,2017_Apr_24_1234,60.0151491407,FEMA4ImagesEEG,001,100301,
AMNE22.JPG,AMSA24.JPG,AMSA22.JPG,AMNE25.JPG,AMNE24.JPG,AMSA25.JPG,,,,,,,,,,,,,,,,,0,4,4,7,,,,,,,AFNE03.jpg,AFSA06.jpg,AFNE07.jpg,AFSA10.jpg,AFSA10.jpg,FS,4,num_4,16,num_4,0.633470598958,,,2017_Apr_24_1234,60.0151491407,FEMA4ImagesEEG,001,100301,
AFSA21.JPG,AFNE22.JPG,AFNE21.JPG,AFSA23.JPG,AFSA22.JPG,AFNE23.JPG,,,,,,,,,,,,,,,,,0,5,5,0,,,,,,,AFSA14.jpg,AFSA03.jpg,AFNE06.jpg,AFNE19.jpg,AFSA14.jpg,FS,4,num_8,32,num_2,1.61673443357,,,2017_Apr_24_1234,60.0151491407,FEMA4ImagesEEG,001,100301,
AMSA21.JPG,AMNE23.JPG,AMNE21.JPG,AMSA25.JPG,AMNE25.JPG,AMSA23.JPG,,,,,,,,,,,,,,,,,0,6,6,5,,,,,,,AFNE14.jpg,AFSA17.jpg,AFSA19.jpg,AFNE13.jpg,AFSA19.jpg,FS,4,num_2,32,num_8,0.850111569045,,,2017_Apr_24_1234,60.0151491407,FEMA4ImagesEEG,001,100301,
AFSA25.JPG,AFNE24.JPG,AFSA24.JPG,AFNE21.JPG,AFSA21.JPG,AFNE25.JPG,,,,,,,,,,,,,,,,,0,7,7,2,,,,,,,AFNE12.jpg,AFSA03.jpg,AFSA04.jpg,AFNE10.jpg,AFSA03.jpg,FS,4,num_6,32,num_2,0.950117053697,,,2017_Apr_24_1234,60.0151491407,FEMA4ImagesEEG,001,100301,
AMNE23.JPG,AMNE24.JPG,AMNE22.JPG,AMSA24.JPG,AMSA22.JPG,AMSA23.JPG,,,,,,,,,,,,,,,,,0,8,8,9,,,,,,,AFSA06.jpg,AFSA15.jpg,AFNE07.jpg,AFNE19.jpg,AFNE07.jpg,FN,3,num_2,32,num_8,1.45004119899,,,2017_Apr_24_1234,60.0151491407,FEMA4ImagesEEG,001,100301,
AFNE22.JPG,AFSA24.JPG,AFSA22.JPG,AFNE25.JPG,AFNE24.JPG,AFSA25.JPG,,,,,,,,,,,,,,,,,0,9,9,6,,,,,,,AFSA03.jpg,AFNE13.jpg,AFSA14.jpg,AFNE02.jpg,AFNE13.jpg,FN,3,num_6,16,num_6,1.93341296213,,,2017_Apr_24_1234,60.0151491407,FEMA4ImagesEEG,001,100301,
AMSA21.JPG,AMNE23.JPG,AMNE21.JPG,AMSA25.JPG,AMNE25.JPG,AMSA23.JPG,,,,,,,,,,,,,,,,,,,,,0,0,0,5,,,AMNE13.jpg,AMSA04.jpg,AMNE20.jpg,AMSA09.jpg,AMSA09.jpg,MS,2,num_4,16,num_4,1.60003803961,,,2017_Apr_24_1234,60.0151491407,FEMA4ImagesEEG,001,100301,
AFSA25.JPG,AFNE24.JPG,AFSA24.JPG,AFNE21.JPG,AFSA21.JPG,AFNE25.JPG,,,,,,,,,,,,,,,,,,,,,0,1,1,2,,,AMNE13.jpg,AMNE15.jpg,AMSA05.jpg,AMSA02.jpg,AMSA02.jpg,MS,2,num_4,32,num_8,1.43326429965,,,2017_Apr_24_1234,60.0151491407,FEMA4ImagesEEG,001,100301,
AFSA21.JPG,AFNE23.JPG,AFNE21.JPG,AFSA25.JPG,AFNE25.JPG,AFSA23.JPG,,,,,,,,,,,,,,,,,,,,,0,2,2,4,,,AMNE12.jpg,AMNE02.jpg,AMSA09.jpg,AMSA20.jpg,AMNE12.jpg,MN,1,num_8,32,num_6,0.883332761354,,,2017_Apr_24_1234,60.0151491407,FEMA4ImagesEEG,001,100301,
AFNE22.JPG,AFSA24.JPG,AFSA22.JPG,AFNE25.JPG,AFNE24.JPG,AFSA25.JPG,,,,,,,,,,,,,,,,,,,,,0,3,3,6,,,AMSA08.jpg,AMNE17.jpg,AMNE19.jpg,AMSA13.jpg,AMSA08.jpg,MS,2,num_8,16,num_8,1.13342168625,,,2017_Apr_24_1234,60.0151491407,FEMA4ImagesEEG,001,100301,
AMSA21.JPG,AMNE22.JPG,AMNE21.JPG,AMSA23.JPG,AMSA22.JPG,AMNE23.JPG,,,,,,,,,,,,,,,,,,,,,0,4,4,1,,,AMSA07.jpg,AMSA19.jpg,AMNE03.jpg,AMNE06.jpg,AMNE06.jpg,MN,1,num_4,16,num_4,0.750126932515,,,2017_Apr_24_1234,60.0151491407,FEMA4ImagesEEG,001,100301,
AMNE23.JPG,AMNE24.JPG,AMNE22.JPG,AMSA24.JPG,AMSA22.JPG,AMSA23.JPG,,,,,,,,,,,,,,,,,,,,,0,5,5,9,,,AMNE03.jpg,AMSA01.jpg,AMSA03.jpg,AMNE05.jpg,AMSA01.jpg,MS,2,num_6,32,num_2,1.38337461778,,,2017_Apr_24_1234,60.0151491407,FEMA4ImagesEEG,001,100301,
AMSA25.JPG,AMNE24.JPG,AMSA24.JPG,AMNE26.JPG,AMSA21.JPG,AMNE25.JPG,,,,,,,,,,,,,,,,,,,,,0,6,6,3,,,AMNE06.jpg,AMNE17.jpg,AMSA13.jpg,AMSA15.jpg,AMSA15.jpg,MS,2,num_4,16,num_4,1.45012234594,,,2017_Apr_24_1234,60.0151491407,FEMA4ImagesEEG,001,100301,
AFNE23.JPG,AFNE24.JPG,AFNE22.JPG,AFSA24.JPG,AFSA22.JPG,AFSA23.JPG,,,,,,,,,,,,,,,,,,,,,0,7,7,8,,,AMSA18.jpg,AMSA06.jpg,AMNE17.jpg,AMNE15.jpg,AMSA18.jpg,MS,2,num_8,48,None,,,,2017_Apr_24_1234,60.0151491407,FEMA4ImagesEEG,001,100301,
AMNE22.JPG,AMSA24.JPG,AMSA22.JPG,AMNE25.JPG,AMNE24.JPG,AMSA25.JPG,,,,,,,,,,,,,,,,,,,,,0,8,8,7,,,AMSA03.jpg,AMSA12.jpg,AMNE05.jpg,AMNE19.jpg,AMNE05.jpg,MN,1,num_2,32,num_4,1.25006358651,,,2017_Apr_24_1234,60.0151491407,FEMA4ImagesEEG,001,100301,
AFSA21.JPG,AFNE22.JPG,AFNE21.JPG,AFSA23.JPG,AFSA22.JPG,AFNE23.JPG,,,,,,,,,,,,,,,,,,,,,0,9,9,0,,,AMSA11.jpg,AMSA19.jpg,AMNE13.jpg,AMNE05.jpg,AMSA11.jpg,MS,2,num_8,32,num_6,0.800171851995,,,2017_Apr_24_1234,60.0151491407,FEMA4ImagesEEG,001,100301,
,,,,,,,,,,,,,,,,,,,,,,,,,,,,,,,,,,,,,,,,,,,space,10.4826747973,2017_Apr_24_1234,60.0151491407,FEMA4ImagesEEG,001,100301,
AFNE01.JPG,AFNE01.JPG,AFNE01.JPG,AFNE01.JPG,AFNE01.JPG,AFNE01.JPG,0,0,0,4,,,,,,,,,,,,,,,,,,,,,,,AFSA14.jpg,AFSA19.jpg,AFNE13.jpg,AFNE01.jpg,AFSA14.jpg,FS,4,num_8,32,num_4,1.91662291251,,,2017_Apr_24_1234,60.0151491407,FEMA4ImagesEEG,001,100301,
AFNE01.JPG,AFNE01.JPG,AFNE01.JPG,AFNE01.JPG,AFNE01.JPG,AFNE01.JPG,0,1,1,8,,,,,,,,,,,,,,,,,,,,,,,AFSA01.jpg,AFNE12.jpg,AFNE01.jpg,AFSA11.jpg,AFSA11.jpg,FS,4,num_4,16,num_4,1.03348259465,,,2017_Apr_24_1234,60.0151491407,FEMA4ImagesEEG,001,100301,
AFNE01.JPG,AFNE01.JPG,AFNE01.JPG,AFNE01.JPG,AFNE01.JPG,AFNE01.JPG,0,2,2,6,,,,,,,,,,,,,,,,,,,,,,,AFSA13.jpg,AFNE04.jpg,AFNE12.jpg,AFSA04.jpg,AFNE04.jpg,FN,3,num_6,32,num_8,1.1001193471,,,2017_Apr_24_1234,60.0151491407,FEMA4ImagesEEG,001,100301,
AFNE01.JPG,AFNE01.JPG,AFNE01.JPG,AFNE01.JPG,AFNE01.JPG,AFNE01.JPG,0,3,3,5,,,,,,,,,,,,,,,,,,,,,,,AFNE17.jpg,AFNE01.jpg,AFSA07.jpg,AFSA02.jpg,AFNE17.jpg,FN,3,num_8,32,num_6,1.11676121515,,,2017_Apr_24_1234,60.0151491407,FEMA4ImagesEEG,001,100301,
AFNE01.JPG,AFNE01.JPG,AFNE01.JPG,AFNE01.JPG,AFNE01.JPG,AFNE01.JPG,0,4,4,2,,,,,,,,,,,,,,,,,,,,,,,AFSA13.jpg,AFNE15.jpg,AFNE03.jpg,AFSA15.jpg,AFNE15.jpg,FN,3,num_6,16,num_6,0.583175823675,,,2017_Apr_24_1234,60.0151491407,FEMA4ImagesEEG,001,100301,
AFNE01.JPG,AFNE01.JPG,AFNE01.JPG,AFNE01.JPG,AFNE01.JPG,AFNE01.JPG,0,5,5,9,,,,,,,,,,,,,,,,,,,,,,,AFNE15.jpg,AFSA01.jpg,AFNE05.jpg,AFSA17.jpg,AFNE05.jpg,FN,3,num_2,32,num_6,1.16676989128,,,2017_Apr_24_1234,60.0151491407,FEMA4ImagesEEG,001,100301,
AFNE01.JPG,AFNE01.JPG,AFNE01.JPG,AFNE01.JPG,AFNE01.JPG,AFNE01.JPG,0,6,6,1,,,,,,,,,,,,,,,,,,,,,,,AFSA07.jpg,AFSA10.jpg,AFNE06.jpg,AFNE03.jpg,AFNE03.jpg,FN,3,num_4,16,num_4,1.03340818314,,,2017_Apr_24_1234,60.0151491407,FEMA4ImagesEEG,001,100301,
AFNE01.JPG,AFNE01.JPG,AFNE01.JPG,AFNE01.JPG,AFNE01.JPG,AFNE01.JPG,0,7,7,3,,,,,,,,,,,,,,,,,,,,,,,AFSA18.jpg,AFNE05.jpg,AFNE08.jpg,AFSA08.jpg,AFSA18.jpg,FS,4,num_8,32,num_2,0.71689579729,,,2017_Apr_24_1234,60.0151491407,FEMA4ImagesEEG,001,100301,
AFNE01.JPG,AFNE01.JPG,AFNE01.JPG,AFNE01.JPG,AFNE01.JPG,AFNE01.JPG,0,8,8,7,,,,,,,,,,,,,,,,,,,,,,,AFNE03.jpg,AFSA03.jpg,AFSA20.jpg,AFNE16.jpg,AFSA03.jpg,FS,4,num_6,32,num_8,0.933472619625,,,2017_Apr_24_1234,60.0151491407,FEMA4ImagesEEG,001,100301,
AFNE01.JPG,AFNE01.JPG,AFNE01.JPG,AFNE01.JPG,AFNE01.JPG,AFNE01.JPG,0,9,9,0,,,,,,,,,,,,,,,,,,,,,,,AFNE07.jpg,AFNE05.jpg,AFSA19.jpg,AFSA12.jpg,AFSA19.jpg,FS,4,num_2,32,num_4,0.93342547107,,,2017_Apr_24_1234,60.0151491407,FEMA4ImagesEEG,001,100301,
AFNE01.JPG,AFNE01.JPG,AFNE01.JPG,AFNE01.JPG,AFNE01.JPG,AFNE01.JPG,1,0,10,1,,,,,,,,,,,,,,,,,,,,,,,AFNE16.jpg,AFNE04.jpg,AFSA19.jpg,AFSA15.jpg,AFSA15.jpg,FS,4,num_4,32,num_6,0.850160321454,,,2017_Apr_24_1234,60.0151491407,FEMA4ImagesEEG,001,100301,
AFNE01.JPG,AFNE01.JPG,AFNE01.JPG,AFNE01.JPG,AFNE01.JPG,AFNE01.JPG,1,1,11,0,,,,,,,,,,,,,,,,,,,,,,,AFSA09.jpg,AFNE05.jpg,AFSA03.jpg,AFNE02.jpg,AFSA09.jpg,FS,4,num_8,32,num_2,2.93302358501,,,2017_Apr_24_1234,60.0151491407,FEMA4ImagesEEG,001,100301,
AFNE01.JPG,AFNE01.JPG,AFNE01.JPG,AFNE01.JPG,AFNE01.JPG,AFNE01.JPG,1,2,12,4,,,,,,,,,,,,,,,,,,,,,,,AFNE03.jpg,AFSA19.jpg,AFNE20.jpg,AFSA04.jpg,AFNE03.jpg,FN,3,num_8,32,num_4,1.05011901015,,,2017_Apr_24_1234,60.0151491407,FEMA4ImagesEEG,001,100301,
AFNE01.JPG,AFNE01.JPG,AFNE01.JPG,AFNE01.JPG,AFNE01.JPG,AFNE01.JPG,1,3,13,2,,,,,,,,,,,,,,,,,,,,,,,AFSA01.jpg,AFNE15.jpg,AFSA13.jpg,AFNE04.jpg,AFNE15.jpg,FN,3,num_6,32,num_2,0.983449542429,,,2017_Apr_24_1234,60.0151491407,FEMA4ImagesEEG,001,100301,
AFNE01.JPG,AFNE01.JPG,AFNE01.JPG,AFNE01.JPG,AFNE01.JPG,AFNE01.JPG,1,4,14,3,,,,,,,,,,,,,,,,,,,,,,,AFNE09.jpg,AFSA12.jpg,AFNE02.jpg,AFSA11.jpg,AFSA12.jpg,FS,4,num_6,16,num_6,0.833484454895,,,2017_Apr_24_1234,60.0151491407,FEMA4ImagesEEG,001,100301,
AFNE01.JPG,AFNE01.JPG,AFNE01.JPG,AFNE01.JPG,AFNE01.JPG,AFNE01.JPG,1,5,15,8,,,,,,,,,,,,,,,,,,,,,,,AFNE13.jpg,AFSA02.jpg,AFSA17.jpg,AFNE12.jpg,AFSA02.jpg,FS,4,num_6,32,num_8,1.91653021902,,,2017_Apr_24_1234,60.0151491407,FEMA4ImagesEEG,001,100301,
AFNE01.JPG,AFNE01.JPG,AFNE01.JPG,AFNE01.JPG,AFNE01.JPG,AFNE01.JPG,1,6,16,6,,,,,,,,,,,,,,,,,,,,,,,AFSA08.jpg,AFNE13.jpg,AFSA04.jpg,AFNE16.jpg,AFNE13.jpg,FN,3,num_6,16,num_6,1.23343390645,,,2017_Apr_24_1234,60.0151491407,FEMA4ImagesEEG,001,100301,
AFNE01.JPG,AFNE01.JPG,AFNE01.JPG,AFNE01.JPG,AFNE01.JPG,AFNE01.JPG,1,7,17,9,,,,,,,,,,,,,,,,,,,,,,,AFNE19.jpg,AFSA02.jpg,AFNE10.jpg,AFSA15.jpg,AFNE19.jpg,FN,3,num_8,32,num_4,0.183517924044,,,2017_Apr_24_1234,60.0151491407,FEMA4ImagesEEG,001,100301,
AFNE01.JPG,AFNE01.JPG,AFNE01.JPG,AFNE01.JPG,AFNE01.JPG,AFNE01.JPG,1,8,18,5,,,,,,,,,,,,,,,,,,,,,,,AFSA14.jpg,AFNE06.jpg,AFNE09.jpg,AFSA18.jpg,AFNE06.jpg,FN,3,num_6,32,num_2,1.93335138028,,,2017_Apr_24_1234,60.0151491407,FEMA4ImagesEEG,001,100301,
AFNE01.JPG,AFNE01.JPG,AFNE01.JPG,AFNE01.JPG,AFNE01.JPG,AFNE01.JPG,1,9,19,7,,,,,,,,,,,,,,,,,,,,,,,AFNE19.jpg,AFSA15.jpg,AFNE01.jpg,AFSA01.jpg,AFSA01.jpg,FS,4,num_4,16,num_4,0.933439583518,,,2017_Apr_24_1234,60.0151491407,FEMA4ImagesEEG,001,100301,
AFNE01.JPG,AFNE01.JPG,AFNE01.JPG,AFNE01.JPG,AFNE01.JPG,AFNE01.JPG,2,0,20,7,,,,,,,,,,,,,,,,,,,,,,,AFSA03.jpg,AFNE04.jpg,AFSA04.jpg,AFNE02.jpg,AFNE04.jpg,FN,3,num_6,32,num_8,0.900065398659,,,2017_Apr_24_1234,60.0151491407,FEMA4ImagesEEG,001,100301,
AFNE01.JPG,AFNE01.JPG,AFNE01.JPG,AFNE01.JPG,AFNE01.JPG,AFNE01.JPG,2,1,21,9,,,,,,,,,,,,,,,,,,,,,,,AFSA03.jpg,AFNE02.jpg,AFSA14.jpg,AFNE12.jpg,AFSA14.jpg,FS,4,num_2,16,num_2,1.16673300625,,,2017_Apr_24_1234,60.0151491407,FEMA4ImagesEEG,001,100301,
AFNE01.JPG,AFNE01.JPG,AFNE01.JPG,AFNE01.JPG,AFNE01.JPG,AFNE01.JPG,2,2,22,1,,,,,,,,,,,,,,,,,,,,,,,AFNE06.jpg,AFNE15.jpg,AFSA03.jpg,AFSA06.jpg,AFSA03.jpg,FS,4,num_2,32,num_4,1.05010746361,,,2017_Apr_24_1234,60.0151491407,FEMA4ImagesEEG,001,100301,
AFNE01.JPG,AFNE01.JPG,AFNE01.JPG,AFNE01.JPG,AFNE01.JPG,AFNE01.JPG,2,3,23,4,,,,,,,,,,,,,,,,,,,,,,,AFSA03.jpg,AFNE18.jpg,AFNE16.jpg,AFSA04.jpg,AFSA04.jpg,FS,4,num_4,16,num_4,1.96669349121,,,2017_Apr_24_1234,60.0151491407,FEMA4ImagesEEG,001,100301,
AFNE01.JPG,AFNE01.JPG,AFNE01.JPG,AFNE01.JPG,AFNE01.JPG,AFNE01.JPG,2,4,24,2,,,,,,,,,,,,,,,,,,,,,,,AFSA12.jpg,AFNE20.jpg,AFSA03.jpg,AFNE07.jpg,AFNE07.jpg,FN,3,num_4,32,num_6,0.883791418164,,,2017_Apr_24_1234,60.0151491407,FEMA4ImagesEEG,001,100301,
AFNE01.JPG,AFNE01.JPG,AFNE01.JPG,AFNE01.JPG,AFNE01.JPG,AFNE01.JPG,2,5,25,8,,,,,,,,,,,,,,,,,,,,,,,AFSA11.jpg,AFSA16.jpg,AFNE16.jpg,AFNE13.jpg,AFSA16.jpg,FS,4,num_6,32,num_8,0.983468466089,,,2017_Apr_24_1234,60.0151491407,FEMA4ImagesEEG,001,100301,
AFNE01.JPG,AFNE01.JPG,AFNE01.JPG,AFNE01.JPG,AFNE01.JPG,AFNE01.JPG,2,6,26,6,,,,,,,,,,,,,,,,,,,,,,,AFNE20.jpg,AFSA15.jpg,AFSA19.jpg,AFNE13.jpg,AFSA19.jpg,FS,4,num_2,16,num_2,1.93338217121,,,2017_Apr_24_1234,60.0151491407,FEMA4ImagesEEG,001,100301,
AFNE01.JPG,AFNE01.JPG,AFNE01.JPG,AFNE01.JPG,AFNE01.JPG,AFNE01.JPG,2,7,27,5,,,,,,,,,,,,,,,,,,,,,,,AFNE02.jpg,AFSA10.jpg,AFSA09.jpg,AFNE13.jpg,AFSA09.jpg,FS,4,num_2,16,num_2,0.18349867966,,,2017_Apr_24_1234,60.0151491407,FEMA4ImagesEEG,001,100301,
AFNE01.JPG,AFNE01.JPG,AFNE01.JPG,AFNE01.JPG,AFNE01.JPG,AFNE01.JPG,2,8,28,0,,,,,,,,,,,,,,,,,,,,,,,AFNE18.jpg,AFSA14.jpg,AFSA17.jpg,AFNE19.jpg,AFSA17.jpg,FS,4,num_2,32,num_4,0.950085942051,,,2017_Apr_24_1234,60.0151491407,FEMA4ImagesEEG,001,100301,
AFNE01.JPG,AFNE01.JPG,AFNE01.JPG,AFNE01.JPG,AFNE01.JPG,AFNE01.JPG,2,9,29,3,,,,,,,,,,,,,,,,,,,,,,,AFSA14.jpg,AFNE05.jpg,AFSA05.jpg,AFNE15.jpg,AFSA05.jpg,FS,4,num_2,32,num_4,1.03318494873,,,2017_Apr_24_1234,60.0151491407,FEMA4ImagesEEG,001,100301,
AFNE01.JPG,AFNE01.JPG,AFNE01.JPG,AFNE01.JPG,AFNE01.JPG,AFNE01.JPG,3,0,30,6,,,,,,,,,,,,,,,,,,,,,,,AFSA16.jpg,AFNE11.jpg,AFNE12.jpg,AFSA09.jpg,AFSA09.jpg,FS,4,num_4,16,num_4,3.14994680544,,,2017_Apr_24_1234,60.0151491407,FEMA4ImagesEEG,001,100301,
AFNE01.JPG,AFNE01.JPG,AFNE01.JPG,AFNE01.JPG,AFNE01.JPG,AFNE01.JPG,3,1,31,1,,,,,,,,,,,,,,,,,,,,,,,AFSA15.jpg,AFNE05.jpg,AFNE17.jpg,AFSA19.jpg,AFSA15.jpg,FS,4,num_8,16,num_8,0.816793513601,,,2017_Apr_24_1234,60.0151491407,FEMA4ImagesEEG,001,100301,
AFNE01.JPG,AFNE01.JPG,AFNE01.JPG,AFNE01.JPG,AFNE01.JPG,AFNE01.JPG,3,2,32,5,,,,,,,,,,,,,,,,,,,,,,,AFSA15.jpg,AFNE01.jpg,AFNE04.jpg,AFSA18.jpg,AFSA18.jpg,FS,4,num_4,16,num_4,4.81616903457,,,2017_Apr_24_1234,60.0151491407,FEMA4ImagesEEG,001,100301,
AFNE01.JPG,AFNE01.JPG,AFNE01.JPG,AFNE01.JPG,AFNE01.JPG,AFNE01.JPG,3,3,33,9,,,,,,,,,,,,,,,,,,,,,,,AFNE11.jpg,AFNE10.jpg,AFSA05.jpg,AFSA19.jpg,AFNE11.jpg,FN,3,num_8,32,num_4,0.91677654651,,,2017_Apr_24_1234,60.0151491407,FEMA4ImagesEEG,001,100301,
AFNE01.JPG,AFNE01.JPG,AFNE01.JPG,AFNE01.JPG,AFNE01.JPG,AFNE01.JPG,3,4,34,0,,,,,,,,,,,,,,,,,,,,,,,AFNE07.jpg,AFSA05.jpg,AFNE16.jpg,AFSA14.jpg,AFNE07.jpg,FN,3,num_8,32,num_4,1.10013442172,,,2017_Apr_24_1234,60.0151491407,FEMA4ImagesEEG,001,100301,
AFNE01.JPG,AFNE01.JPG,AFNE01.JPG,AFNE01.JPG,AFNE01.JPG,AFNE01.JPG,3,5,35,8,,,,,,,,,,,,,,,,,,,,,,,AFNE03.jpg,AFSA14.jpg,AFNE16.jpg,AFSA16.jpg,AFSA14.jpg,FS,4,num_6,16,num_6,0.816830077907,,,2017_Apr_24_1234,60.0151491407,FEMA4ImagesEEG,001,100301,
AFNE01.JPG,AFNE01.JPG,AFNE01.JPG,AFNE01.JPG,AFNE01.JPG,AFNE01.JPG,3,6,36,2,,,,,,,,,,,,,,,,,,,,,,,AFNE04.jpg,AFSA04.jpg,AFNE18.jpg,AFSA08.jpg,AFNE18.jpg,FN,3,num_2,16,num_2,1.90011735843,,,2017_Apr_24_1234,60.0151491407,FEMA4ImagesEEG,001,100301,
AFNE01.JPG,AFNE01.JPG,AFNE01.JPG,AFNE01.JPG,AFNE01.JPG,AFNE01.JPG,3,7,37,7,,,,,,,,,,,,,,,,,,,,,,,AFNE20.jpg,AFSA03.jpg,AFSA09.jpg,AFNE15.jpg,AFNE20.jpg,FN,3,num_8,32,num_4,1.80002912309,,,2017_Apr_24_1234,60.0151491407,FEMA4ImagesEEG,001,100301,
AFNE01.JPG,AFNE01.JPG,AFNE01.JPG,AFNE01.JPG,AFNE01.JPG,AFNE01.JPG,3,8,38,4,,,,,,,,,,,,,,,,,,,,,,,AFNE05.jpg,AFSA13.jpg,AFSA04.jpg,AFNE15.jpg,AFNE05.jpg,FN,3,num_8,32,num_6,1.83341774123,,,2017_Apr_24_1234,60.0151491407,FEMA4ImagesEEG,001,100301,
AFNE01.JPG,AFNE01.JPG,AFNE01.JPG,AFNE01.JPG,AFNE01.JPG,AFNE01.JPG,3,9,39,3,,,,,,,,,,,,,,,,,,,,,,,AFNE04.jpg,AFNE08.jpg,AFSA17.jpg,AFSA19.jpg,AFNE08.jpg,FN,3,num_6,32,num_8,2.81660459831,,,2017_Apr_24_1234,60.0151491407,FEMA4ImagesEEG,001,100301,
AFNE01.JPG,AFNE01.JPG,AFNE01.JPG,AFNE01.JPG,AFNE01.JPG,AFNE01.JPG,4,0,40,1,,,,,,,,,,,,,,,,,,,,,,,AFNE08.jpg,AFSA08.jpg,AFNE19.jpg,AFSA18.jpg,AFNE19.jpg,FN,3,num_2,48,None,,,,2017_Apr_24_1234,60.0151491407,FEMA4ImagesEEG,001,100301,
AFNE01.JPG,AFNE01.JPG,AFNE01.JPG,AFNE01.JPG,AFNE01.JPG,AFNE01.JPG,4,1,41,9,,,,,,,,,,,,,,,,,,,,,,,AFSA14.jpg,AFNE18.jpg,AFSA07.jpg,AFNE19.jpg,AFNE19.jpg,FN,3,num_4,16,num_4,1.71667737409,,,2017_Apr_24_1234,60.0151491407,FEMA4ImagesEEG,001,100301,
AFNE01.JPG,AFNE01.JPG,AFNE01.JPG,AFNE01.JPG,AFNE01.JPG,AFNE01.JPG,4,2,42,2,,,,,,,,,,,,,,,,,,,,,,,AFSA18.jpg,AFNE05.jpg,AFSA04.jpg,AFNE20.jpg,AFNE20.jpg,FN,3,num_4,32,num_6,0.433502929402,,,2017_Apr_24_1234,60.0151491407,FEMA4ImagesEEG,001,100301,
AFNE01.JPG,AFNE01.JPG,AFNE01.JPG,AFNE01.JPG,AFNE01.JPG,AFNE01.JPG,4,3,43,8,,,,,,,,,,,,,,,,,,,,,,,AFSA15.jpg,AFNE18.jpg,AFNE17.jpg,AFSA14.jpg,AFSA14.jpg,FS,4,num_4,32,num_2,1.83363905107,,,2017_Apr_24_1234,60.0151491407,FEMA4ImagesEEG,001,100301,
AFNE01.JPG,AFNE01.JPG,AFNE01.JPG,AFNE01.JPG,AFNE01.JPG,AFNE01.JPG,4,4,44,7,,,,,,,,,,,,,,,,,,,,,,,AFNE03.jpg,AFSA06.jpg,AFNE14.jpg,AFSA01.jpg,AFSA06.jpg,FS,4,num_6,16,num_6,1.15011487273,,,2017_Apr_24_1234,60.0151491407,FEMA4ImagesEEG,001,100301,
AFNE01.JPG,AFNE01.JPG,AFNE01.JPG,AFNE01.JPG,AFNE01.JPG,AFNE01.JPG,4,5,45,6,,,,,,,,,,,,,,,,,,,,,,,AFSA02.jpg,AFSA13.jpg,AFNE04.jpg,AFNE19.jpg,AFNE19.jpg,FN,3,num_4,48,None,,,,2017_Apr_24_1234,60.0151491407,FEMA4ImagesEEG,001,100301,
AFNE01.JPG,AFNE01.JPG,AFNE01.JPG,AFNE01.JPG,AFNE01.JPG,AFNE01.JPG,4,6,46,4,,,,,,,,,,,,,,,,,,,,,,,AFSA11.jpg,AFSA04.jpg,AFNE05.jpg,AFNE16.jpg,AFNE16.jpg,FN,3,num_4,32,num_2,1.1167519138,,,2017_Apr_24_1234,60.0151491407,FEMA4ImagesEEG,001,100301,
AFNE01.JPG,AFNE01.JPG,AFNE01.JPG,AFNE01.JPG,AFNE01.JPG,AFNE01.JPG,4,7,47,3,,,,,,,,,,,,,,,,,,,,,,,AFNE05.jpg,AFNE04.jpg,AFSA06.jpg,AFSA05.jpg,AFNE04.jpg,FN,3,num_6,32,num_4,1.16671857284,,,2017_Apr_24_1234,60.0151491407,FEMA4ImagesEEG,001,100301,
AFNE01.JPG,AFNE01.JPG,AFNE01.JPG,AFNE01.JPG,AFNE01.JPG,AFNE01.JPG,4,8,48,0,,,,,,,,,,,,,,,,,,,,,,,AFSA09.jpg,AFNE08.jpg,AFNE18.jpg,AFSA04.jpg,AFSA04.jpg,FS,4,num_4,32,num_8,3.38324535987,,,2017_Apr_24_1234,60.0151491407,FEMA4ImagesEEG,001,100301,
AFNE01.JPG,AFNE01.JPG,AFNE01.JPG,AFNE01.JPG,AFNE01.JPG,AFNE01.JPG,4,9,49,5,,,,,,,,,,,,,,,,,,,,,,,AFSA15.jpg,AFSA16.jpg,AFNE20.jpg,AFNE10.jpg,AFSA16.jpg,FS,4,num_6,16,num_6,3.79989184684,,,2017_Apr_24_1234,60.0151491407,FEMA4ImagesEEG,001,100301,
AFNE01.JPG,AFNE01.JPG,AFNE01.JPG,AFNE01.JPG,AFNE01.JPG,AFNE01.JPG,5,0,50,5,,,,,,,,,,,,,,,,,,,,,,,AFSA18.jpg,AFNE07.jpg,AFNE01.jpg,AFSA13.jpg,AFSA18.jpg,FS,4,num_8,32,num_2,2.33332552866,,,2017_Apr_24_1234,60.0151491407,FEMA4ImagesEEG,001,100301,
AFNE01.JPG,AFNE01.JPG,AFNE01.JPG,AFNE01.JPG,AFNE01.JPG,AFNE01.JPG,5,1,51,7,,,,,,,,,,,,,,,,,,,,,,,AFNE12.jpg,AFNE19.jpg,AFSA18.jpg,AFSA14.jpg,AFSA14.jpg,FS,4,num_4,16,num_4,0.783475778881,,,2017_Apr_24_1234,60.0151491407,FEMA4ImagesEEG,001,100301,
AFNE01.JPG,AFNE01.JPG,AFNE01.JPG,AFNE01.JPG,AFNE01.JPG,AFNE01.JPG,5,2,52,8,,,,,,,,,,,,,,,,,,,,,,,AFSA20.jpg,AFSA18.jpg,AFNE05.jpg,AFNE10.jpg,AFNE10.jpg,FN,3,num_4,32,num_6,3.61679024214,,,2017_Apr_24_1234,60.0151491407,FEMA4ImagesEEG,001,100301,
AFNE01.JPG,AFNE01.JPG,AFNE01.JPG,AFNE01.JPG,AFNE01.JPG,AFNE01.JPG,5,3,53,0,,,,,,,,,,,,,,,,,,,,,,,AFNE01.jpg,AFSA06.jpg,AFSA03.jpg,AFNE06.jpg,AFNE06.jpg,FN,3,num_4,48,None,,,,2017_Apr_24_1234,60.0151491407,FEMA4ImagesEEG,001,100301,
AFNE01.JPG,AFNE01.JPG,AFNE01.JPG,AFNE01.JPG,AFNE01.JPG,AFNE01.JPG,5,4,54,6,,,,,,,,,,,,,,,,,,,,,,,AFNE04.jpg,AFSA15.jpg,AFSA07.jpg,AFNE02.jpg,AFNE02.jpg,FN,3,num_4,16,num_4,0.733460367424,,,2017_Apr_24_1234,60.0151491407,FEMA4ImagesEEG,001,100301,
AFNE01.JPG,AFNE01.JPG,AFNE01.JPG,AFNE01.JPG,AFNE01.JPG,AFNE01.JPG,5,5,55,1,,,,,,,,,,,,,,,,,,,,,,,AFNE01.jpg,AFSA12.jpg,AFSA17.jpg,AFNE17.jpg,AFSA17.jpg,FS,4,num_2,32,num_4,0.766775536234,,,2017_Apr_24_1234,60.0151491407,FEMA4ImagesEEG,001,100301,
AFNE01.JPG,AFNE01.JPG,AFNE01.JPG,AFNE01.JPG,AFNE01.JPG,AFNE01.JPG,5,6,56,3,,,,,,,,,,,,,,,,,,,,,,,AFNE05.jpg,AFNE06.jpg,AFSA02.jpg,AFSA09.jpg,AFNE05.jpg,FN,3,num_8,16,num_8,1.05010393553,,,2017_Apr_24_1234,60.0151491407,FEMA4ImagesEEG,001,100301,
AFNE01.JPG,AFNE01.JPG,AFNE01.JPG,AFNE01.JPG,AFNE01.JPG,AFNE01.JPG,5,7,57,4,,,,,,,,,,,,,,,,,,,,,,,AFNE05.jpg,AFSA19.jpg,AFSA08.jpg,AFNE01.jpg,AFSA08.jpg,FS,4,num_2,32,num_6,0.900132112438,,,2017_Apr_24_1234,60.0151491407,FEMA4ImagesEEG,001,100301,
AFNE01.JPG,AFNE01.JPG,AFNE01.JPG,AFNE01.JPG,AFNE01.JPG,AFNE01.JPG,5,8,58,2,,,,,,,,,,,,,,,,,,,,,,,AFSA13.jpg,AFNE10.jpg,AFSA01.jpg,AFNE12.jpg,AFSA13.jpg,FS,4,num_8,32,num_2,1.88340268249,,,2017_Apr_24_1234,60.0151491407,FEMA4ImagesEEG,001,100301,
AFNE01.JPG,AFNE01.JPG,AFNE01.JPG,AFNE01.JPG,AFNE01.JPG,AFNE01.JPG,5,9,59,9,,,,,,,,,,,,,,,,,,,,,,,AFNE03.jpg,AFNE05.jpg,AFSA19.jpg,AFSA17.jpg,AFNE03.jpg,FN,3,num_8,32,num_4,2.26657651761,,,2017_Apr_24_1234,60.0151491407,FEMA4ImagesEEG,001,100301,
,,,,,,,,,,,,,,,,,,,,,,,,,,,,,,,,,,,,,,,,,,,space,9.06644046004,2017_Apr_24_1234,60.0151491407,FEMA4ImagesEEG,001,100301,
AFNE01.JPG,AFNE01.JPG,AFNE01.JPG,AFNE01.JPG,AFNE01.JPG,AFNE01.JPG,,,,,0,0,0,2,,,,,,,,,,,,,,,,,,,AMSA01.jpg,AMNE10.jpg,AMSA11.jpg,AMNE01.jpg,AMNE10.jpg,MN,1,num_6,16,num_6,1.73342284095,,,2017_Apr_24_1234,60.0151491407,FEMA4ImagesEEG,001,100301,
AFNE01.JPG,AFNE01.JPG,AFNE01.JPG,AFNE01.JPG,AFNE01.JPG,AFNE01.JPG,,,,,0,1,1,8,,,,,,,,,,,,,,,,,,,AMNE08.jpg,AMSA10.jpg,AMSA08.jpg,AMNE09.jpg,AMSA10.jpg,MS,2,num_6,16,num_6,0.866744135856,,,2017_Apr_24_1234,60.0151491407,FEMA4ImagesEEG,001,100301,
AFNE01.JPG,AFNE01.JPG,AFNE01.JPG,AFNE01.JPG,AFNE01.JPG,AFNE01.JPG,,,,,0,2,2,4,,,,,,,,,,,,,,,,,,,AMNE10.jpg,AMNE04.jpg,AMSA14.jpg,AMSA03.jpg,AMSA14.jpg,MS,2,num_2,16,num_2,1.13341366779,,,2017_Apr_24_1234,60.0151491407,FEMA4ImagesEEG,001,100301,
AFNE01.JPG,AFNE01.JPG,AFNE01.JPG,AFNE01.JPG,AFNE01.JPG,AFNE01.JPG,,,,,0,3,3,7,,,,,,,,,,,,,,,,,,,AMNE17.jpg,AMNE16.jpg,AMSA10.jpg,AMSA14.jpg,AMSA10.jpg,MS,2,num_2,32,num_6,1.21672115487,,,2017_Apr_24_1234,60.0151491407,FEMA4ImagesEEG,001,100301,
AFNE01.JPG,AFNE01.JPG,AFNE01.JPG,AFNE01.JPG,AFNE01.JPG,AFNE01.JPG,,,,,0,4,4,3,,,,,,,,,,,,,,,,,,,AMNE15.jpg,AMSA12.jpg,AMSA05.jpg,AMNE20.jpg,AMSA05.jpg,MS,2,num_2,32,num_8,1.03343416296,,,2017_Apr_24_1234,60.0151491407,FEMA4ImagesEEG,001,100301,
AFNE01.JPG,AFNE01.JPG,AFNE01.JPG,AFNE01.JPG,AFNE01.JPG,AFNE01.JPG,,,,,0,5,5,9,,,,,,,,,,,,,,,,,,,AMNE17.jpg,AMSA04.jpg,AMSA17.jpg,AMNE01.jpg,AMSA04.jpg,MS,2,num_6,32,num_4,0.800142343971,,,2017_Apr_24_1234,60.0151491407,FEMA4ImagesEEG,001,100301,
AFNE01.JPG,AFNE01.JPG,AFNE01.JPG,AFNE01.JPG,AFNE01.JPG,AFNE01.JPG,,,,,0,6,6,0,,,,,,,,,,,,,,,,,,,AMSA12.jpg,AMSA17.jpg,AMNE17.jpg,AMNE03.jpg,AMNE03.jpg,MN,1,num_4,32,num_2,3.78319641517,,,2017_Apr_24_1234,60.0151491407,FEMA4ImagesEEG,001,100301,
AFNE01.JPG,AFNE01.JPG,AFNE01.JPG,AFNE01.JPG,AFNE01.JPG,AFNE01.JPG,,,,,0,7,7,6,,,,,,,,,,,,,,,,,,,AMNE19.jpg,AMSA02.jpg,AMNE09.jpg,AMSA08.jpg,AMSA02.jpg,MS,2,num_6,32,num_4,1.06677595316,,,2017_Apr_24_1234,60.0151491407,FEMA4ImagesEEG,001,100301,
AFNE01.JPG,AFNE01.JPG,AFNE01.JPG,AFNE01.JPG,AFNE01.JPG,AFNE01.JPG,,,,,0,8,8,1,,,,,,,,,,,,,,,,,,,AMNE01.jpg,AMSA03.jpg,AMSA07.jpg,AMNE20.jpg,AMNE20.jpg,MN,1,num_4,32,num_8,0.950150410528,,,2017_Apr_24_1234,60.0151491407,FEMA4ImagesEEG,001,100301,
AFNE01.JPG,AFNE01.JPG,AFNE01.JPG,AFNE01.JPG,AFNE01.JPG,AFNE01.JPG,,,,,0,9,9,5,,,,,,,,,,,,,,,,,,,AMSA19.jpg,AMNE11.jpg,AMSA15.jpg,AMNE14.jpg,AMNE14.jpg,MN,1,num_4,16,num_4,1.31675294007,,,2017_Apr_24_1234,60.0151491407,FEMA4ImagesEEG,001,100301,
AFNE01.JPG,AFNE01.JPG,AFNE01.JPG,AFNE01.JPG,AFNE01.JPG,AFNE01.JPG,,,,,1,0,10,1,,,,,,,,,,,,,,,,,,,AMSA02.jpg,AMSA12.jpg,AMNE01.jpg,AMNE11.jpg,AMNE11.jpg,MN,1,num_4,32,num_6,1.35012455902,,,2017_Apr_24_1234,60.0151491407,FEMA4ImagesEEG,001,100301,
AFNE01.JPG,AFNE01.JPG,AFNE01.JPG,AFNE01.JPG,AFNE01.JPG,AFNE01.JPG,,,,,1,1,11,7,,,,,,,,,,,,,,,,,,,AMSA13.jpg,AMSA05.jpg,AMNE12.jpg,AMNE16.jpg,AMSA05.jpg,MS,2,num_6,32,num_4,1.8334661728,,,2017_Apr_24_1234,60.0151491407,FEMA4ImagesEEG,001,100301,
AFNE01.JPG,AFNE01.JPG,AFNE01.JPG,AFNE01.JPG,AFNE01.JPG,AFNE01.JPG,,,,,1,2,12,9,,,,,,,,,,,,,,,,,,,AMSA08.jpg,AMNE20.jpg,AMSA03.jpg,AMNE15.jpg,AMSA08.jpg,MS,2,num_8,16,num_8,1.40014895122,,,2017_Apr_24_1234,60.0151491407,FEMA4ImagesEEG,001,100301,
AFNE01.JPG,AFNE01.JPG,AFNE01.JPG,AFNE01.JPG,AFNE01.JPG,AFNE01.JPG,,,,,1,3,13,6,,,,,,,,,,,,,,,,,,,AMNE17.jpg,AMSA01.jpg,AMSA15.jpg,AMNE05.jpg,AMSA01.jpg,MS,2,num_6,32,num_4,2.16665795317,,,2017_Apr_24_1234,60.0151491407,FEMA4ImagesEEG,001,100301,
AFNE01.JPG,AFNE01.JPG,AFNE01.JPG,AFNE01.JPG,AFNE01.JPG,AFNE01.JPG,,,,,1,4,14,5,,,,,,,,,,,,,,,,,,,AMNE06.jpg,AMSA15.jpg,AMSA04.jpg,AMNE04.jpg,AMSA15.jpg,MS,2,num_6,32,num_2,2.44993760029,,,2017_Apr_24_1234,60.0151491407,FEMA4ImagesEEG,001,100301,
AFNE01.JPG,AFNE01.JPG,AFNE01.JPG,AFNE01.JPG,AFNE01.JPG,AFNE01.JPG,,,,,1,5,15,3,,,,,,,,,,,,,,,,,,,AMSA19.jpg,AMNE03.jpg,AMNE14.jpg,AMSA17.jpg,AMNE14.jpg,MN,1,num_2,48,None,,,,2017_Apr_24_1234,60.0151491407,FEMA4ImagesEEG,001,100301,
AFNE01.JPG,AFNE01.JPG,AFNE01.JPG,AFNE01.JPG,AFNE01.JPG,AFNE01.JPG,,,,,1,6,16,2,,,,,,,,,,,,,,,,,,,AMSA11.jpg,AMSA16.jpg,AMNE07.jpg,AMNE03.jpg,AMNE07.jpg,MN,1,num_2,16,num_2,0.966806391254,,,2017_Apr_24_1234,60.0151491407,FEMA4ImagesEEG,001,100301,
AFNE01.JPG,AFNE01.JPG,AFNE01.JPG,AFNE01.JPG,AFNE01.JPG,AFNE01.JPG,,,,,1,7,17,0,,,,,,,,,,,,,,,,,,,AMSA05.jpg,AMSA07.jpg,AMNE13.jpg,AMNE17.jpg,AMNE17.jpg,MN,1,num_4,32,num_8,1.11687700206,,,2017_Apr_24_1234,60.0151491407,FEMA4ImagesEEG,001,100301,
AFNE01.JPG,AFNE01.JPG,AFNE01.JPG,AFNE01.JPG,AFNE01.JPG,AFNE01.JPG,,,,,1,8,18,8,,,,,,,,,,,,,,,,,,,AMSA19.jpg,AMNE07.jpg,AMSA12.jpg,AMNE18.jpg,AMSA12.jpg,MS,2,num_2,32,num_4,0.733443688951,,,2017_Apr_24_1234,60.0151491407,FEMA4ImagesEEG,001,100301,
AFNE01.JPG,AFNE01.JPG,AFNE01.JPG,AFNE01.JPG,AFNE01.JPG,AFNE01.JPG,,,,,1,9,19,4,,,,,,,,,,,,,,,,,,,AMSA05.jpg,AMNE04.jpg,AMNE02.jpg,AMSA03.jpg,AMNE04.jpg,MN,1,num_6,16,num_6,0.933446960524,,,2017_Apr_24_1234,60.0151491407,FEMA4ImagesEEG,001,100301,
AFNE01.JPG,AFNE01.JPG,AFNE01.JPG,AFNE01.JPG,AFNE01.JPG,AFNE01.JPG,,,,,2,0,20,3,,,,,,,,,,,,,,,,,,,AMNE04.jpg,AMSA03.jpg,AMNE05.jpg,AMSA04.jpg,AMSA04.jpg,MS,2,num_4,16,num_4,1.33343233482,,,2017_Apr_24_1234,60.0151491407,FEMA4ImagesEEG,001,100301,
AFNE01.JPG,AFNE01.JPG,AFNE01.JPG,AFNE01.JPG,AFNE01.JPG,AFNE01.JPG,,,,,2,1,21,4,,,,,,,,,,,,,,,,,,,AMSA13.jpg,AMNE03.jpg,AMNE01.jpg,AMSA14.jpg,AMSA14.jpg,MS,2,num_4,16,num_4,1.08347074327,,,2017_Apr_24_1234,60.0151491407,FEMA4ImagesEEG,001,100301,
AFNE01.JPG,AFNE01.JPG,AFNE01.JPG,AFNE01.JPG,AFNE01.JPG,AFNE01.JPG,,,,,2,2,22,8,,,,,,,,,,,,,,,,,,,AMSA17.jpg,AMNE15.jpg,AMNE17.jpg,AMSA02.jpg,AMNE17.jpg,MN,1,num_2,32,num_6,0.900119282771,,,2017_Apr_24_1234,60.0151491407,FEMA4ImagesEEG,001,100301,
AFNE01.JPG,AFNE01.JPG,AFNE01.JPG,AFNE01.JPG,AFNE01.JPG,AFNE01.JPG,,,,,2,3,23,2,,,,,,,,,,,,,,,,,,,AMNE15.jpg,AMSA13.jpg,AMSA07.jpg,AMNE18.jpg,AMSA13.jpg,MS,2,num_6,32,num_8,2.61664494732,,,2017_Apr_24_1234,60.0151491407,FEMA4ImagesEEG,001,100301,
AFNE01.JPG,AFNE01.JPG,AFNE01.JPG,AFNE01.JPG,AFNE01.JPG,AFNE01.JPG,,,,,2,4,24,5,,,,,,,,,,,,,,,,,,,AMSA11.jpg,AMNE03.jpg,AMSA14.jpg,AMNE20.jpg,AMSA14.jpg,MS,2,num_2,16,num_2,1.13337068877,,,2017_Apr_24_1234,60.0151491407,FEMA4ImagesEEG,001,100301,
AFNE01.JPG,AFNE01.JPG,AFNE01.JPG,AFNE01.JPG,AFNE01.JPG,AFNE01.JPG,,,,,2,5,25,9,,,,,,,,,,,,,,,,,,,AMNE19.jpg,AMSA07.jpg,AMNE05.jpg,AMSA12.jpg,AMNE19.jpg,MN,1,num_8,32,num_4,1.18340887281,,,2017_Apr_24_1234,60.0151491407,FEMA4ImagesEEG,001,100301,
AFNE01.JPG,AFNE01.JPG,AFNE01.JPG,AFNE01.JPG,AFNE01.JPG,AFNE01.JPG,,,,,2,6,26,0,,,,,,,,,,,,,,,,,,,AMSA07.jpg,AMSA12.jpg,AMNE17.jpg,AMNE13.jpg,AMNE17.jpg,MN,1,num_2,32,num_6,1.58311776991,,,2017_Apr_24_1234,60.0151491407,FEMA4ImagesEEG,001,100301,
AFNE01.JPG,AFNE01.JPG,AFNE01.JPG,AFNE01.JPG,AFNE01.JPG,AFNE01.JPG,,,,,2,7,27,7,,,,,,,,,,,,,,,,,,,AMSA07.jpg,AMNE10.jpg,AMSA19.jpg,AMNE11.jpg,AMSA19.jpg,MS,2,num_2,32,num_6,1.75006118091,,,2017_Apr_24_1234,60.0151491407,FEMA4ImagesEEG,001,100301,
AFNE01.JPG,AFNE01.JPG,AFNE01.JPG,AFNE01.JPG,AFNE01.JPG,AFNE01.JPG,,,,,2,8,28,6,,,,,,,,,,,,,,,,,,,AMSA19.jpg,AMNE11.jpg,AMSA18.jpg,AMNE01.jpg,AMSA19.jpg,MS,2,num_8,32,num_2,0.633485994418,,,2017_Apr_24_1234,60.0151491407,FEMA4ImagesEEG,001,100301,
AFNE01.JPG,AFNE01.JPG,AFNE01.JPG,AFNE01.JPG,AFNE01.JPG,AFNE01.JPG,,,,,2,9,29,1,,,,,,,,,,,,,,,,,,,AMSA06.jpg,AMNE12.jpg,AMSA11.jpg,AMNE20.jpg,AMNE20.jpg,MN,1,num_4,32,num_8,0.466789231752,,,2017_Apr_24_1234,60.0151491407,FEMA4ImagesEEG,001,100301,
AFNE01.JPG,AFNE01.JPG,AFNE01.JPG,AFNE01.JPG,AFNE01.JPG,AFNE01.JPG,,,,,3,0,30,3,,,,,,,,,,,,,,,,,,,AMNE20.jpg,AMSA20.jpg,AMNE18.jpg,AMSA13.jpg,AMNE18.jpg,MN,1,num_2,32,num_4,3.01661781268,,,2017_Apr_24_1234,60.0151491407,FEMA4ImagesEEG,001,100301,
AFNE01.JPG,AFNE01.JPG,AFNE01.JPG,AFNE01.JPG,AFNE01.JPG,AFNE01.JPG,,,,,3,1,31,0,,,,,,,,,,,,,,,,,,,AMSA02.jpg,AMNE06.jpg,AMSA19.jpg,AMNE08.jpg,AMNE08.jpg,MN,1,num_4,32,num_2,1.70005956118,,,2017_Apr_24_1234,60.0151491407,FEMA4ImagesEEG,001,100301,
AFNE01.JPG,AFNE01.JPG,AFNE01.JPG,AFNE01.JPG,AFNE01.JPG,AFNE01.JPG,,,,,3,2,32,4,,,,,,,,,,,,,,,,,,,AMNE09.jpg,AMSA16.jpg,AMNE17.jpg,AMSA05.jpg,AMNE17.jpg,MN,1,num_2,16,num_2,1.23348586622,,,2017_Apr_24_1234,60.0151491407,FEMA4ImagesEEG,001,100301,
AFNE01.JPG,AFNE01.JPG,AFNE01.JPG,AFNE01.JPG,AFNE01.JPG,AFNE01.JPG,,,,,3,3,33,9,,,,,,,,,,,,,,,,,,,AMNE06.jpg,AMSA19.jpg,AMNE08.jpg,AMSA03.jpg,AMSA03.jpg,MS,2,num_4,16,num_4,0.883474527975,,,2017_Apr_24_1234,60.0151491407,FEMA4ImagesEEG,001,100301,
AFNE01.JPG,AFNE01.JPG,AFNE01.JPG,AFNE01.JPG,AFNE01.JPG,AFNE01.JPG,,,,,3,4,34,5,,,,,,,,,,,,,,,,,,,AMSA16.jpg,AMNE03.jpg,AMSA10.jpg,AMNE08.jpg,AMNE08.jpg,MN,1,num_4,32,num_6,1.00012508826,,,2017_Apr_24_1234,60.0151491407,FEMA4ImagesEEG,001,100301,
AFNE01.JPG,AFNE01.JPG,AFNE01.JPG,AFNE01.JPG,AFNE01.JPG,AFNE01.JPG,,,,,3,5,35,6,,,,,,,,,,,,,,,,,,,AMSA20.jpg,AMNE18.jpg,AMNE07.jpg,AMSA05.jpg,AMSA05.jpg,MS,2,num_4,48,None,,,,2017_Apr_24_1234,60.0151491407,FEMA4ImagesEEG,001,100301,
AFNE01.JPG,AFNE01.JPG,AFNE01.JPG,AFNE01.JPG,AFNE01.JPG,AFNE01.JPG,,,,,3,6,36,7,,,,,,,,,,,,,,,,,,,AMNE03.jpg,AMNE11.jpg,AMSA17.jpg,AMSA16.jpg,AMNE11.jpg,MN,1,num_6,32,num_2,0.850126643782,,,2017_Apr_24_1234,60.0151491407,FEMA4ImagesEEG,001,100301,
AFNE01.JPG,AFNE01.JPG,AFNE01.JPG,AFNE01.JPG,AFNE01.JPG,AFNE01.JPG,,,,,3,7,37,1,,,,,,,,,,,,,,,,,,,AMNE15.jpg,AMSA05.jpg,AMSA08.jpg,AMNE03.jpg,AMNE15.jpg,MN,1,num_8,32,num_4,0.616800184944,,,2017_Apr_24_1234,60.0151491407,FEMA4ImagesEEG,001,100301,
AFNE01.JPG,AFNE01.JPG,AFNE01.JPG,AFNE01.JPG,AFNE01.JPG,AFNE01.JPG,,,,,3,8,38,2,,,,,,,,,,,,,,,,,,,AMNE18.jpg,AMSA02.jpg,AMNE01.jpg,AMSA18.jpg,AMSA18.jpg,MS,2,num_4,32,num_8,0.600253255572,,,2017_Apr_24_1234,60.0151491407,FEMA4ImagesEEG,001,100301,
AFNE01.JPG,AFNE01.JPG,AFNE01.JPG,AFNE01.JPG,AFNE01.JPG,AFNE01.JPG,,,,,3,9,39,8,,,,,,,,,,,,,,,,,,,AMSA04.jpg,AMNE17.jpg,AMNE12.jpg,AMSA20.jpg,AMNE12.jpg,MN,1,num_2,16,num_2,1.23353493924,,,2017_Apr_24_1234,60.0151491407,FEMA4ImagesEEG,001,100301,
AFNE01.JPG,AFNE01.JPG,AFNE01.JPG,AFNE01.JPG,AFNE01.JPG,AFNE01.JPG,,,,,4,0,40,0,,,,,,,,,,,,,,,,,,,AMNE03.jpg,AMNE02.jpg,AMSA02.jpg,AMSA14.jpg,AMNE02.jpg,MN,1,num_6,16,num_6,1.05009367177,,,2017_Apr_24_1234,60.0151491407,FEMA4ImagesEEG,001,100301,
AFNE01.JPG,AFNE01.JPG,AFNE01.JPG,AFNE01.JPG,AFNE01.JPG,AFNE01.JPG,,,,,4,1,41,7,,,,,,,,,,,,,,,,,,,AMNE02.jpg,AMSA03.jpg,AMNE03.jpg,AMSA16.jpg,AMNE02.jpg,MN,1,num_8,16,num_8,1.53345036029,,,2017_Apr_24_1234,60.0151491407,FEMA4ImagesEEG,001,100301,
AFNE01.JPG,AFNE01.JPG,AFNE01.JPG,AFNE01.JPG,AFNE01.JPG,AFNE01.JPG,,,,,4,2,42,2,,,,,,,,,,,,,,,,,,,AMNE09.jpg,AMNE14.jpg,AMSA11.jpg,AMSA14.jpg,AMNE09.jpg,MN,1,num_8,32,num_2,1.53347537806,,,2017_Apr_24_1234,60.0151491407,FEMA4ImagesEEG,001,100301,
AFNE01.JPG,AFNE01.JPG,AFNE01.JPG,AFNE01.JPG,AFNE01.JPG,AFNE01.JPG,,,,,4,3,43,8,,,,,,,,,,,,,,,,,,,AMNE12.jpg,AMNE02.jpg,AMSA10.jpg,AMSA12.jpg,AMNE02.jpg,MN,1,num_6,16,num_6,0.466765176388,,,2017_Apr_24_1234,60.0151491407,FEMA4ImagesEEG,001,100301,
AFNE01.JPG,AFNE01.JPG,AFNE01.JPG,AFNE01.JPG,AFNE01.JPG,AFNE01.JPG,,,,,4,4,44,4,,,,,,,,,,,,,,,,,,,AMSA02.jpg,AMSA03.jpg,AMNE16.jpg,AMNE02.jpg,AMNE16.jpg,MN,1,num_2,32,num_4,1.00014754001,,,2017_Apr_24_1234,60.0151491407,FEMA4ImagesEEG,001,100301,
AFNE01.JPG,AFNE01.JPG,AFNE01.JPG,AFNE01.JPG,AFNE01.JPG,AFNE01.JPG,,,,,4,5,45,3,,,,,,,,,,,,,,,,,,,AMSA14.jpg,AMSA12.jpg,AMNE09.jpg,AMNE05.jpg,AMSA14.jpg,MS,2,num_8,32,num_4,2.51660642656,,,2017_Apr_24_1234,60.0151491407,FEMA4ImagesEEG,001,100301,
AFNE01.JPG,AFNE01.JPG,AFNE01.JPG,AFNE01.JPG,AFNE01.JPG,AFNE01.JPG,,,,,4,6,46,6,,,,,,,,,,,,,,,,,,,AMNE09.jpg,AMSA19.jpg,AMNE17.jpg,AMSA13.jpg,AMNE17.jpg,MN,1,num_2,32,num_6,0.916790979798,,,2017_Apr_24_1234,60.0151491407,FEMA4ImagesEEG,001,100301,
AFNE01.JPG,AFNE01.JPG,AFNE01.JPG,AFNE01.JPG,AFNE01.JPG,AFNE01.JPG,,,,,4,7,47,5,,,,,,,,,,,,,,,,,,,AMNE11.jpg,AMSA19.jpg,AMSA01.jpg,AMNE12.jpg,AMSA19.jpg,MS,2,num_6,32,num_4,1.93330743897,,,2017_Apr_24_1234,60.0151491407,FEMA4ImagesEEG,001,100301,
AFNE01.JPG,AFNE01.JPG,AFNE01.JPG,AFNE01.JPG,AFNE01.JPG,AFNE01.JPG,,,,,4,8,48,1,,,,,,,,,,,,,,,,,,,AMSA18.jpg,AMSA17.jpg,AMNE08.jpg,AMNE18.jpg,AMSA18.jpg,MS,2,num_8,16,num_8,1.85005447757,,,2017_Apr_24_1234,60.0151491407,FEMA4ImagesEEG,001,100301,
AFNE01.JPG,AFNE01.JPG,AFNE01.JPG,AFNE01.JPG,AFNE01.JPG,AFNE01.JPG,,,,,4,9,49,9,,,,,,,,,,,,,,,,,,,AMSA09.jpg,AMNE17.jpg,AMNE14.jpg,AMSA03.jpg,AMSA03.jpg,MS,2,num_4,32,num_8,0.833444362506,,,2017_Apr_24_1234,60.0151491407,FEMA4ImagesEEG,001,100301,
AFNE01.JPG,AFNE01.JPG,AFNE01.JPG,AFNE01.JPG,AFNE01.JPG,AFNE01.JPG,,,,,5,0,50,7,,,,,,,,,,,,,,,,,,,AMNE15.jpg,AMSA17.jpg,AMSA07.jpg,AMNE14.jpg,AMSA07.jpg,MS,2,num_2,32,num_4,0.433520890889,,,2017_Apr_24_1234,60.0151491407,FEMA4ImagesEEG,001,100301,
AFNE01.JPG,AFNE01.JPG,AFNE01.JPG,AFNE01.JPG,AFNE01.JPG,AFNE01.JPG,,,,,5,1,51,4,,,,,,,,,,,,,,,,,,,AMSA14.jpg,AMSA19.jpg,AMNE20.jpg,AMNE03.jpg,AMSA19.jpg,MS,2,num_6,32,num_4,1.21673783334,,,2017_Apr_24_1234,60.0151491407,FEMA4ImagesEEG,001,100301,
AFNE01.JPG,AFNE01.JPG,AFNE01.JPG,AFNE01.JPG,AFNE01.JPG,AFNE01.JPG,,,,,5,2,52,5,,,,,,,,,,,,,,,,,,,AMSA17.jpg,AMNE16.jpg,AMNE13.jpg,AMSA09.jpg,AMNE13.jpg,MN,1,num_2,16,num_2,1.08350794914,,,2017_Apr_24_1234,60.0151491407,FEMA4ImagesEEG,001,100301,
AFNE01.JPG,AFNE01.JPG,AFNE01.JPG,AFNE01.JPG,AFNE01.JPG,AFNE01.JPG,,,,,5,3,53,0,,,,,,,,,,,,,,,,,,,AMNE11.jpg,AMNE14.jpg,AMSA11.jpg,AMSA10.jpg,AMNE11.jpg,MN,1,num_8,16,num_8,1.66670782818,,,2017_Apr_24_1234,60.0151491407,FEMA4ImagesEEG,001,100301,
AFNE01.JPG,AFNE01.JPG,AFNE01.JPG,AFNE01.JPG,AFNE01.JPG,AFNE01.JPG,,,,,5,4,54,8,,,,,,,,,,,,,,,,,,,AMNE09.jpg,AMNE04.jpg,AMSA01.jpg,AMSA06.jpg,AMSA06.jpg,MS,2,num_4,32,num_8,0.849964029039,,,2017_Apr_24_1234,60.0151491407,FEMA4ImagesEEG,001,100301,
AFNE01.JPG,AFNE01.JPG,AFNE01.JPG,AFNE01.JPG,AFNE01.JPG,AFNE01.JPG,,,,,5,5,55,1,,,,,,,,,,,,,,,,,,,AMSA02.jpg,AMSA12.jpg,AMNE15.jpg,AMNE19.jpg,AMNE19.jpg,MN,1,num_4,32,num_6,1.11673683906,,,2017_Apr_24_1234,60.0151491407,FEMA4ImagesEEG,001,100301,
AFNE01.JPG,AFNE01.JPG,AFNE01.JPG,AFNE01.JPG,AFNE01.JPG,AFNE01.JPG,,,,,5,6,56,2,,,,,,,,,,,,,,,,,,,AMSA01.jpg,AMNE16.jpg,AMSA02.jpg,AMNE13.jpg,AMNE16.jpg,MN,1,num_6,16,num_6,0.750071123824,,,2017_Apr_24_1234,60.0151491407,FEMA4ImagesEEG,001,100301,
AFNE01.JPG,AFNE01.JPG,AFNE01.JPG,AFNE01.JPG,AFNE01.JPG,AFNE01.JPG,,,,,5,7,57,6,,,,,,,,,,,,,,,,,,,AMSA16.jpg,AMSA08.jpg,AMNE10.jpg,AMNE07.jpg,AMSA16.jpg,MS,2,num_8,32,num_6,0.15019473678,,,2017_Apr_24_1234,60.0151491407,FEMA4ImagesEEG,001,100301,
AFNE01.JPG,AFNE01.JPG,AFNE01.JPG,AFNE01.JPG,AFNE01.JPG,AFNE01.JPG,,,,,5,8,58,3,,,,,,,,,,,,,,,,,,,AMNE01.jpg,AMSA01.jpg,AMNE09.jpg,AMSA20.jpg,AMSA01.jpg,MS,2,num_6,32,num_2,1.21671345714,,,2017_Apr_24_1234,60.0151491407,FEMA4ImagesEEG,001,100301,
AFNE01.JPG,AFNE01.JPG,AFNE01.JPG,AFNE01.JPG,AFNE01.JPG,AFNE01.JPG,,,,,5,9,59,9,,,,,,,,,,,,,,,,,,,AMNE14.jpg,AMSA07.jpg,AMNE08.jpg,AMSA12.jpg,AMNE14.jpg,MN,1,num_8,32,num_6,0.783532229019,,,2017_Apr_24_1234,60.0151491407,FEMA4ImagesEEG,001,100301,
,,,,,,,,,,,,,,,,,,,,,,,,,,,,,,,,,,,,,,,,,,,space,14.1658458419,2017_Apr_24_1234,60.0151491407,FEMA4ImagesEEG,001,100301,
AFNE01.JPG,AFNE01.JPG,AFNE01.JPG,AFNE01.JPG,AFNE01.JPG,AFNE01.JPG,,,,,,,,,0,0,0,6,,,,,,,,,,,,,,,AFNE14.jpg,AFSA14.jpg,AFNE17.jpg,AFSA12.jpg,AFSA14.jpg,FS,4,num_6,32,num_2,2.03335301601,,,2017_Apr_24_1234,60.0151491407,FEMA4ImagesEEG,001,100301,
AFNE01.JPG,AFNE01.JPG,AFNE01.JPG,AFNE01.JPG,AFNE01.JPG,AFNE01.JPG,,,,,,,,,0,1,1,1,,,,,,,,,,,,,,,AFSA20.jpg,AFNE11.jpg,AFNE16.jpg,AFSA04.jpg,AFNE16.jpg,FN,3,num_2,32,num_8,1.01677305053,,,2017_Apr_24_1234,60.0151491407,FEMA4ImagesEEG,001,100301,
AFNE01.JPG,AFNE01.JPG,AFNE01.JPG,AFNE01.JPG,AFNE01.JPG,AFNE01.JPG,,,,,,,,,0,2,2,4,,,,,,,,,,,,,,,AFSA03.jpg,AFNE10.jpg,AFNE17.jpg,AFSA17.jpg,AFNE10.jpg,FN,3,num_6,32,num_4,3.86653597618,,,2017_Apr_24_1234,60.0151491407,FEMA4ImagesEEG,001,100301,
AFNE01.JPG,AFNE01.JPG,AFNE01.JPG,AFNE01.JPG,AFNE01.JPG,AFNE01.JPG,,,,,,,,,0,3,3,2,,,,,,,,,,,,,,,AFNE19.jpg,AFSA03.jpg,AFSA09.jpg,AFNE03.jpg,AFSA03.jpg,FS,4,num_6,32,num_4,0.683469011332,,,2017_Apr_24_1234,60.0151491407,FEMA4ImagesEEG,001,100301,
AFNE01.JPG,AFNE01.JPG,AFNE01.JPG,AFNE01.JPG,AFNE01.JPG,AFNE01.JPG,,,,,,,,,0,4,4,3,,,,,,,,,,,,,,,AFNE18.jpg,AFSA05.jpg,AFNE11.jpg,AFSA16.jpg,AFNE18.jpg,FN,3,num_8,16,num_8,1.75006278476,,,2017_Apr_24_1234,60.0151491407,FEMA4ImagesEEG,001,100301,
AFNE01.JPG,AFNE01.JPG,AFNE01.JPG,AFNE01.JPG,AFNE01.JPG,AFNE01.JPG,,,,,,,,,0,5,5,5,,,,,,,,,,,,,,,AFNE12.jpg,AFSA02.jpg,AFSA16.jpg,AFNE19.jpg,AFSA02.jpg,FS,4,num_6,32,num_8,1.06678172643,,,2017_Apr_24_1234,60.0151491407,FEMA4ImagesEEG,001,100301,
AFNE01.JPG,AFNE01.JPG,AFNE01.JPG,AFNE01.JPG,AFNE01.JPG,AFNE01.JPG,,,,,,,,,0,6,6,0,,,,,,,,,,,,,,,AFNE13.jpg,AFSA03.jpg,AFNE10.jpg,AFSA16.jpg,AFSA16.jpg,FS,4,num_4,16,num_4,0.76672197273,,,2017_Apr_24_1234,60.0151491407,FEMA4ImagesEEG,001,100301,
AFNE01.JPG,AFNE01.JPG,AFNE01.JPG,AFNE01.JPG,AFNE01.JPG,AFNE01.JPG,,,,,,,,,0,7,7,7,,,,,,,,,,,,,,,AFNE02.jpg,AFNE20.jpg,AFSA19.jpg,AFSA09.jpg,AFSA19.jpg,FS,4,num_2,32,num_4,0.800131118158,,,2017_Apr_24_1234,60.0151491407,FEMA4ImagesEEG,001,100301,
AFNE01.JPG,AFNE01.JPG,AFNE01.JPG,AFNE01.JPG,AFNE01.JPG,AFNE01.JPG,,,,,,,,,0,8,8,8,,,,,,,,,,,,,,,AFNE10.jpg,AFSA05.jpg,AFNE18.jpg,AFSA11.jpg,AFSA11.jpg,FS,4,num_4,32,num_8,1.06675478444,,,2017_Apr_24_1234,60.0151491407,FEMA4ImagesEEG,001,100301,
AFNE01.JPG,AFNE01.JPG,AFNE01.JPG,AFNE01.JPG,AFNE01.JPG,AFNE01.JPG,,,,,,,,,0,9,9,9,,,,,,,,,,,,,,,AFSA02.jpg,AFNE13.jpg,AFSA11.jpg,AFNE19.jpg,AFNE13.jpg,FN,3,num_6,32,num_8,1.01674867421,,,2017_Apr_24_1234,60.0151491407,FEMA4ImagesEEG,001,100301,
AFNE01.JPG,AFNE01.JPG,AFNE01.JPG,AFNE01.JPG,AFNE01.JPG,AFNE01.JPG,,,,,,,,,1,0,10,3,,,,,,,,,,,,,,,AFSA04.jpg,AFSA20.jpg,AFNE13.jpg,AFNE01.jpg,AFSA04.jpg,FS,4,num_8,32,num_4,0.63348022115,,,2017_Apr_24_1234,60.0151491407,FEMA4ImagesEEG,001,100301,
AFNE01.JPG,AFNE01.JPG,AFNE01.JPG,AFNE01.JPG,AFNE01.JPG,AFNE01.JPG,,,,,,,,,1,1,11,6,,,,,,,,,,,,,,,AFNE01.jpg,AFSA10.jpg,AFSA18.jpg,AFNE09.jpg,AFNE09.jpg,FN,3,num_4,32,num_8,0.533473453484,,,2017_Apr_24_1234,60.0151491407,FEMA4ImagesEEG,001,100301,
AFNE01.JPG,AFNE01.JPG,AFNE01.JPG,AFNE01.JPG,AFNE01.JPG,AFNE01.JPG,,,,,,,,,1,2,12,0,,,,,,,,,,,,,,,AFNE12.jpg,AFNE05.jpg,AFSA04.jpg,AFSA19.jpg,AFSA04.jpg,FS,4,num_2,32,num_8,0.283487165114,,,2017_Apr_24_1234,60.0151491407,FEMA4ImagesEEG,001,100301,
AFNE01.JPG,AFNE01.JPG,AFNE01.JPG,AFNE01.JPG,AFNE01.JPG,AFNE01.JPG,,,,,,,,,1,3,13,1,,,,,,,,,,,,,,,AFNE13.jpg,AFSA19.jpg,AFSA06.jpg,AFNE06.jpg,AFNE13.jpg,FN,3,num_8,32,num_6,0.416813912569,,,2017_Apr_24_1234,60.0151491407,FEMA4ImagesEEG,001,100301,
