IPosition2,IPosition3,IPosition1,IPosition6,IPosition4,IPosition5,TrialsF1.thisRepN,TrialsF1.thisTrialN,TrialsF1.thisN,TrialsF1.thisIndex,TrialsM1.thisRepN,TrialsM1.thisTrialN,TrialsM1.thisN,TrialsM1.thisIndex,TrialsF2.thisRepN,TrialsF2.thisTrialN,TrialsF2.thisN,TrialsF2.thisIndex,TrialsM2.thisRepN,TrialsM2.thisTrialN,TrialsM2.thisN,TrialsM2.thisIndex,TrialsF3.thisRepN,TrialsF3.thisTrialN,TrialsF3.thisN,TrialsF3.thisIndex,TrialsM3.thisRepN,TrialsM3.thisTrialN,TrialsM3.thisN,TrialsM3.thisIndex,InstrKey_resp.keys,InstrKey_resp.rt,Image0 _Position,Image1 _Position,Image2 _Position,Image3 _Position,Center_image,condition,code,correct_answer,accuracy,Key_Resp.keys,Key_Resp.rt,BreakKey_resp.keys,BreakKey_resp.rt,date,frameRate,expName,session,participant,
,,,,,,,,,,,,,,,,,,,,,,,,,,,,,,space,15.9326837495,,,,,,,,,,,,,,2017_May_17_1348,59.993053578,FEMA4ImagesEEG,001,100476,
AMSA21.JPG,AMNE23.JPG,AMNE21.JPG,AMSA25.JPG,AMNE25.JPG,AMSA23.JPG,0,0,0,5,,,,,,,,,,,,,,,,,,,,,,,AFSA18.jpg,AFNE13.jpg,AFNE18.jpg,AFSA14.jpg,AFNE18.jpg,FN,3,num_2,32,num_4,2.30003678887,,,2017_May_17_1348,59.993053578,FEMA4ImagesEEG,001,100476,
AMNE22.JPG,AMSA24.JPG,AMSA22.JPG,AMNE25.JPG,AMNE24.JPG,AMSA25.JPG,0,1,1,7,,,,,,,,,,,,,,,,,,,,,,,AFNE05.jpg,AFSA04.jpg,AFNE17.jpg,AFSA05.jpg,AFSA05.jpg,FS,4,num_4,16,num_4,1.1834234559,,,2017_May_17_1348,59.993053578,FEMA4ImagesEEG,001,100476,
AFNE23.JPG,AFNE24.JPG,AFNE22.JPG,AFSA24.JPG,AFSA22.JPG,AFSA23.JPG,0,2,2,8,,,,,,,,,,,,,,,,,,,,,,,AFSA17.jpg,AFNE12.jpg,AFNE07.jpg,AFSA15.jpg,AFNE12.jpg,FN,3,num_6,32,num_2,1.56677596413,,,2017_May_17_1348,59.993053578,FEMA4ImagesEEG,001,100476,
AMNE23.JPG,AMNE24.JPG,AMNE22.JPG,AMSA24.JPG,AMSA22.JPG,AMSA23.JPG,0,3,3,9,,,,,,,,,,,,,,,,,,,,,,,AFSA05.jpg,AFNE01.jpg,AFNE20.jpg,AFSA15.jpg,AFNE20.jpg,FN,3,num_2,16,num_2,1.76665241512,,,2017_May_17_1348,59.993053578,FEMA4ImagesEEG,001,100476,
AMSA25.JPG,AMNE24.JPG,AMSA24.JPG,AMNE26.JPG,AMSA21.JPG,AMNE25.JPG,0,4,4,3,,,,,,,,,,,,,,,,,,,,,,,AFNE04.jpg,AFSA02.jpg,AFNE05.jpg,AFSA17.jpg,AFSA02.jpg,FS,4,num_6,16,num_6,1.55007920672,,,2017_May_17_1348,59.993053578,FEMA4ImagesEEG,001,100476,
AFNE22.JPG,AFSA24.JPG,AFSA22.JPG,AFNE25.JPG,AFNE24.JPG,AFSA25.JPG,0,5,5,6,,,,,,,,,,,,,,,,,,,,,,,AFNE08.jpg,AFNE02.jpg,AFSA14.jpg,AFSA08.jpg,AFNE02.jpg,FN,3,num_6,32,num_4,2.1498002913,,,2017_May_17_1348,59.993053578,FEMA4ImagesEEG,001,100476,
AFSA25.JPG,AFNE24.JPG,AFSA24.JPG,AFNE21.JPG,AFSA21.JPG,AFNE25.JPG,0,6,6,2,,,,,,,,,,,,,,,,,,,,,,,AFNE10.jpg,AFNE16.jpg,AFSA03.jpg,AFSA11.jpg,AFSA11.jpg,FS,4,num_4,16,num_4,1.16674722584,,,2017_May_17_1348,59.993053578,FEMA4ImagesEEG,001,100476,
AFSA21.JPG,AFNE22.JPG,AFNE21.JPG,AFSA23.JPG,AFSA22.JPG,AFNE23.JPG,0,7,7,0,,,,,,,,,,,,,,,,,,,,,,,AFNE04.jpg,AFSA18.jpg,AFNE12.jpg,AFSA04.jpg,AFNE04.jpg,FN,3,num_8,16,num_8,1.30020164918,,,2017_May_17_1348,59.993053578,FEMA4ImagesEEG,001,100476,
AMSA21.JPG,AMNE22.JPG,AMNE21.JPG,AMSA23.JPG,AMSA22.JPG,AMNE23.JPG,0,8,8,1,,,,,,,,,,,,,,,,,,,,,,,AFSA12.jpg,AFNE04.jpg,AFNE17.jpg,AFSA14.jpg,AFNE04.jpg,FN,3,num_6,16,num_6,2.26677894702,,,2017_May_17_1348,59.993053578,FEMA4ImagesEEG,001,100476,
AFSA21.JPG,AFNE23.JPG,AFNE21.JPG,AFSA25.JPG,AFNE25.JPG,AFSA23.JPG,0,9,9,4,,,,,,,,,,,,,,,,,,,,,,,AFSA08.jpg,AFSA01.jpg,AFNE12.jpg,AFNE20.jpg,AFSA08.jpg,FS,4,num_8,16,num_8,1.18338689155,,,2017_May_17_1348,59.993053578,FEMA4ImagesEEG,001,100476,
AMNE22.JPG,AMSA24.JPG,AMSA22.JPG,AMNE25.JPG,AMNE24.JPG,AMSA25.JPG,,,,,0,0,0,7,,,,,,,,,,,,,,,,,,,AMNE18.jpg,AMNE05.jpg,AMSA02.jpg,AMSA10.jpg,AMNE05.jpg,MN,1,num_6,32,num_8,1.28343978156,,,2017_May_17_1348,59.993053578,FEMA4ImagesEEG,001,100476,
AMSA21.JPG,AMNE22.JPG,AMNE21.JPG,AMSA23.JPG,AMSA22.JPG,AMNE23.JPG,,,,,0,1,1,1,,,,,,,,,,,,,,,,,,,AMNE01.jpg,AMSA16.jpg,AMSA01.jpg,AMNE03.jpg,AMSA01.jpg,MS,2,num_2,16,num_2,1.08342861982,,,2017_May_17_1348,59.993053578,FEMA4ImagesEEG,001,100476,
AFSA21.JPG,AFNE22.JPG,AFNE21.JPG,AFSA23.JPG,AFSA22.JPG,AFNE23.JPG,,,,,0,2,2,0,,,,,,,,,,,,,,,,,,,AMNE05.jpg,AMSA19.jpg,AMNE20.jpg,AMSA04.jpg,AMNE20.jpg,MN,1,num_2,32,num_6,0.650129210073,,,2017_May_17_1348,59.993053578,FEMA4ImagesEEG,001,100476,
AMSA25.JPG,AMNE24.JPG,AMSA24.JPG,AMNE26.JPG,AMSA21.JPG,AMNE25.JPG,,,,,0,3,3,3,,,,,,,,,,,,,,,,,,,AMSA10.jpg,AMNE10.jpg,AMSA01.jpg,AMNE06.jpg,AMSA01.jpg,MS,2,num_2,16,num_2,1.15007644836,,,2017_May_17_1348,59.993053578,FEMA4ImagesEEG,001,100476,
AFSA21.JPG,AFNE23.JPG,AFNE21.JPG,AFSA25.JPG,AFNE25.JPG,AFSA23.JPG,,,,,0,4,4,4,,,,,,,,,,,,,,,,,,,AMSA14.jpg,AMSA07.jpg,AMNE14.jpg,AMNE18.jpg,AMNE18.jpg,MN,1,num_4,16,num_4,1.45008148397,,,2017_May_17_1348,59.993053578,FEMA4ImagesEEG,001,100476,
AMNE23.JPG,AMNE24.JPG,AMNE22.JPG,AMSA24.JPG,AMSA22.JPG,AMSA23.JPG,,,,,0,5,5,9,,,,,,,,,,,,,,,,,,,AMSA10.jpg,AMSA04.jpg,AMNE10.jpg,AMNE18.jpg,AMSA04.jpg,MS,2,num_6,16,num_6,1.56667364811,,,2017_May_17_1348,59.993053578,FEMA4ImagesEEG,001,100476,
AFSA25.JPG,AFNE24.JPG,AFSA24.JPG,AFNE21.JPG,AFSA21.JPG,AFNE25.JPG,,,,,0,6,6,2,,,,,,,,,,,,,,,,,,,AMNE14.jpg,AMSA16.jpg,AMNE06.jpg,AMSA15.jpg,AMSA15.jpg,MS,2,num_4,16,num_4,1.00028866592,,,2017_May_17_1348,59.993053578,FEMA4ImagesEEG,001,100476,
AFNE22.JPG,AFSA24.JPG,AFSA22.JPG,AFNE25.JPG,AFNE24.JPG,AFSA25.JPG,,,,,0,7,7,6,,,,,,,,,,,,,,,,,,,AMSA09.jpg,AMNE03.jpg,AMSA08.jpg,AMNE01.jpg,AMSA08.jpg,MS,2,num_2,16,num_2,1.18338753303,,,2017_May_17_1348,59.993053578,FEMA4ImagesEEG,001,100476,
AMSA21.JPG,AMNE23.JPG,AMNE21.JPG,AMSA25.JPG,AMNE25.JPG,AMSA23.JPG,,,,,0,8,8,5,,,,,,,,,,,,,,,,,,,AMNE17.jpg,AMSA14.jpg,AMNE20.jpg,AMSA11.jpg,AMSA11.jpg,MS,2,num_4,16,num_4,0.883479360869,,,2017_May_17_1348,59.993053578,FEMA4ImagesEEG,001,100476,
AFNE23.JPG,AFNE24.JPG,AFNE22.JPG,AFSA24.JPG,AFSA22.JPG,AFSA23.JPG,,,,,0,9,9,8,,,,,,,,,,,,,,,,,,,AMNE17.jpg,AMNE16.jpg,AMSA19.jpg,AMSA11.jpg,AMNE17.jpg,MN,1,num_8,16,num_8,1.30007784357,,,2017_May_17_1348,59.993053578,FEMA4ImagesEEG,001,100476,
AMNE22.JPG,AMSA24.JPG,AMSA22.JPG,AMNE25.JPG,AMNE24.JPG,AMSA25.JPG,,,,,,,,,0,0,0,7,,,,,,,,,,,,,,,AFSA01.jpg,AFNE10.jpg,AFNE11.jpg,AFSA15.jpg,AFSA01.jpg,FS,4,num_8,16,num_8,0.900176759764,,,2017_May_17_1348,59.993053578,FEMA4ImagesEEG,001,100476,
AMSA25.JPG,AMNE24.JPG,AMSA24.JPG,AMNE26.JPG,AMSA21.JPG,AMNE25.JPG,,,,,,,,,0,1,1,3,,,,,,,,,,,,,,,AFSA04.jpg,AFNE03.jpg,AFNE17.jpg,AFSA16.jpg,AFNE17.jpg,FN,3,num_2,32,num_6,1.51672450142,,,2017_May_17_1348,59.993053578,FEMA4ImagesEEG,001,100476,
AMSA21.JPG,AMNE23.JPG,AMNE21.JPG,AMSA25.JPG,AMNE25.JPG,AMSA23.JPG,,,,,,,,,0,2,2,5,,,,,,,,,,,,,,,AFSA13.jpg,AFNE20.jpg,AFSA17.jpg,AFNE12.jpg,AFNE20.jpg,FN,3,num_6,16,num_6,1.15011942751,,,2017_May_17_1348,59.993053578,FEMA4ImagesEEG,001,100476,
AFNE23.JPG,AFNE24.JPG,AFNE22.JPG,AFSA24.JPG,AFSA22.JPG,AFSA23.JPG,,,,,,,,,0,3,3,8,,,,,,,,,,,,,,,AFNE19.jpg,AFSA02.jpg,AFNE11.jpg,AFSA16.jpg,AFSA16.jpg,FS,4,num_4,16,num_4,1.28348693033,,,2017_May_17_1348,59.993053578,FEMA4ImagesEEG,001,100476,
AFSA21.JPG,AFNE22.JPG,AFNE21.JPG,AFSA23.JPG,AFSA22.JPG,AFNE23.JPG,,,,,,,,,0,4,4,0,,,,,,,,,,,,,,,AFSA13.jpg,AFNE01.jpg,AFSA19.jpg,AFNE08.jpg,AFSA19.jpg,FS,4,num_2,16,num_2,1.9833789372,,,2017_May_17_1348,59.993053578,FEMA4ImagesEEG,001,100476,
AMNE23.JPG,AMNE24.JPG,AMNE22.JPG,AMSA24.JPG,AMSA22.JPG,AMSA23.JPG,,,,,,,,,0,5,5,9,,,,,,,,,,,,,,,AFNE18.jpg,AFSA03.jpg,AFNE03.jpg,AFSA10.jpg,AFSA10.jpg,FS,4,num_4,32,num_8,1.16678250723,,,2017_May_17_1348,59.993053578,FEMA4ImagesEEG,001,100476,
AFSA21.JPG,AFNE23.JPG,AFNE21.JPG,AFSA25.JPG,AFNE25.JPG,AFSA23.JPG,,,,,,,,,0,6,6,4,,,,,,,,,,,,,,,AFSA11.jpg,AFSA07.jpg,AFNE18.jpg,AFNE13.jpg,AFNE13.jpg,FN,3,num_4,32,num_6,1.85006179054,,,2017_May_17_1348,59.993053578,FEMA4ImagesEEG,001,100476,
AFNE22.JPG,AFSA24.JPG,AFSA22.JPG,AFNE25.JPG,AFNE24.JPG,AFSA25.JPG,,,,,,,,,0,7,7,6,,,,,,,,,,,,,,,AFNE09.jpg,AFSA08.jpg,AFNE02.jpg,AFSA15.jpg,AFNE02.jpg,FN,3,num_2,32,num_8,1.88327665325,,,2017_May_17_1348,59.993053578,FEMA4ImagesEEG,001,100476,
AMSA21.JPG,AMNE22.JPG,AMNE21.JPG,AMSA23.JPG,AMSA22.JPG,AMNE23.JPG,,,,,,,,,0,8,8,1,,,,,,,,,,,,,,,AFNE11.jpg,AFNE04.jpg,AFSA10.jpg,AFSA19.jpg,AFNE04.jpg,FN,3,num_6,32,num_4,1.98337444685,,,2017_May_17_1348,59.993053578,FEMA4ImagesEEG,001,100476,
AFSA25.JPG,AFNE24.JPG,AFSA24.JPG,AFNE21.JPG,AFSA21.JPG,AFNE25.JPG,,,,,,,,,0,9,9,2,,,,,,,,,,,,,,,AFSA10.jpg,AFNE04.jpg,AFSA19.jpg,AFNE02.jpg,AFSA10.jpg,FS,4,num_8,16,num_8,0.83346189658,,,2017_May_17_1348,59.993053578,FEMA4ImagesEEG,001,100476,
AMNE22.JPG,AMSA24.JPG,AMSA22.JPG,AMNE25.JPG,AMNE24.JPG,AMSA25.JPG,,,,,,,,,,,,,0,0,0,7,,,,,,,,,,,AMNE13.jpg,AMNE09.jpg,AMSA08.jpg,AMSA16.jpg,AMNE09.jpg,MN,1,num_6,32,num_8,1.6667127463,,,2017_May_17_1348,59.993053578,FEMA4ImagesEEG,001,100476,
AFSA21.JPG,AFNE23.JPG,AFNE21.JPG,AFSA25.JPG,AFNE25.JPG,AFSA23.JPG,,,,,,,,,,,,,0,1,1,4,,,,,,,,,,,AMNE03.jpg,AMSA09.jpg,AMNE07.jpg,AMSA19.jpg,AMSA19.jpg,MS,2,num_4,32,num_8,1.6667031241,,,2017_May_17_1348,59.993053578,FEMA4ImagesEEG,001,100476,
AMNE23.JPG,AMNE24.JPG,AMNE22.JPG,AMSA24.JPG,AMSA22.JPG,AMSA23.JPG,,,,,,,,,,,,,0,2,2,9,,,,,,,,,,,AMSA15.jpg,AMSA03.jpg,AMNE16.jpg,AMNE03.jpg,AMNE03.jpg,MN,1,num_4,16,num_4,1.35013700405,,,2017_May_17_1348,59.993053578,FEMA4ImagesEEG,001,100476,
AFSA21.JPG,AFNE22.JPG,AFNE21.JPG,AFSA23.JPG,AFSA22.JPG,AFNE23.JPG,,,,,,,,,,,,,0,3,3,0,,,,,,,,,,,AMSA15.jpg,AMSA09.jpg,AMNE20.jpg,AMNE13.jpg,AMNE13.jpg,MN,1,num_4,32,num_2,1.08349757889,,,2017_May_17_1348,59.993053578,FEMA4ImagesEEG,001,100476,
AMSA21.JPG,AMNE23.JPG,AMNE21.JPG,AMSA25.JPG,AMNE25.JPG,AMSA23.JPG,,,,,,,,,,,,,0,4,4,5,,,,,,,,,,,AMNE15.jpg,AMSA14.jpg,AMNE12.jpg,AMSA03.jpg,AMNE15.jpg,MN,1,num_8,16,num_8,1.45006384328,,,2017_May_17_1348,59.993053578,FEMA4ImagesEEG,001,100476,
AMSA25.JPG,AMNE24.JPG,AMSA24.JPG,AMNE26.JPG,AMSA21.JPG,AMNE25.JPG,,,,,,,,,,,,,0,5,5,3,,,,,,,,,,,AMNE06.jpg,AMNE10.jpg,AMSA12.jpg,AMSA07.jpg,AMNE06.jpg,MN,1,num_8,16,num_8,1.76674158082,,,2017_May_17_1348,59.993053578,FEMA4ImagesEEG,001,100476,
AMSA21.JPG,AMNE22.JPG,AMNE21.JPG,AMSA23.JPG,AMSA22.JPG,AMNE23.JPG,,,,,,,,,,,,,0,6,6,1,,,,,,,,,,,AMNE15.jpg,AMNE12.jpg,AMSA08.jpg,AMSA13.jpg,AMSA08.jpg,MS,2,num_2,32,num_4,2.90002440831,,,2017_May_17_1348,59.993053578,FEMA4ImagesEEG,001,100476,
AFNE22.JPG,AFSA24.JPG,AFSA22.JPG,AFNE25.JPG,AFNE24.JPG,AFSA25.JPG,,,,,,,,,,,,,0,7,7,6,,,,,,,,,,,AMSA12.jpg,AMNE07.jpg,AMSA15.jpg,AMNE04.jpg,AMSA15.jpg,MS,2,num_2,32,num_8,2.31667773754,,,2017_May_17_1348,59.993053578,FEMA4ImagesEEG,001,100476,
AFSA25.JPG,AFNE24.JPG,AFSA24.JPG,AFNE21.JPG,AFSA21.JPG,AFNE25.JPG,,,,,,,,,,,,,0,8,8,2,,,,,,,,,,,AMSA03.jpg,AMNE19.jpg,AMNE03.jpg,AMSA07.jpg,AMSA07.jpg,MS,2,num_4,16,num_4,1.11678492882,,,2017_May_17_1348,59.993053578,FEMA4ImagesEEG,001,100476,
AFNE23.JPG,AFNE24.JPG,AFNE22.JPG,AFSA24.JPG,AFSA22.JPG,AFSA23.JPG,,,,,,,,,,,,,0,9,9,8,,,,,,,,,,,AMSA04.jpg,AMNE02.jpg,AMNE06.jpg,AMSA18.jpg,AMNE06.jpg,MN,1,num_2,16,num_2,0.78348773218,,,2017_May_17_1348,59.993053578,FEMA4ImagesEEG,001,100476,
AFNE22.JPG,AFSA24.JPG,AFSA22.JPG,AFNE25.JPG,AFNE24.JPG,AFSA25.JPG,,,,,,,,,,,,,,,,,0,0,0,6,,,,,,,AFNE01.jpg,AFSA15.jpg,AFSA18.jpg,AFNE18.jpg,AFNE01.jpg,FN,3,num_8,16,num_8,1.26676547594,,,2017_May_17_1348,59.993053578,FEMA4ImagesEEG,001,100476,
AFNE23.JPG,AFNE24.JPG,AFNE22.JPG,AFSA24.JPG,AFSA22.JPG,AFSA23.JPG,,,,,,,,,,,,,,,,,0,1,1,8,,,,,,,AFSA17.jpg,AFNE04.jpg,AFSA06.jpg,AFNE16.jpg,AFNE04.jpg,FN,3,num_6,32,num_8,1.55004745347,,,2017_May_17_1348,59.993053578,FEMA4ImagesEEG,001,100476,
AFSA21.JPG,AFNE23.JPG,AFNE21.JPG,AFSA25.JPG,AFNE25.JPG,AFSA23.JPG,,,,,,,,,,,,,,,,,0,2,2,4,,,,,,,AFSA18.jpg,AFSA15.jpg,AFNE14.jpg,AFNE08.jpg,AFNE14.jpg,FN,3,num_2,32,num_4,1.25009084958,,,2017_May_17_1348,59.993053578,FEMA4ImagesEEG,001,100476,
AMSA25.JPG,AMNE24.JPG,AMSA24.JPG,AMNE26.JPG,AMSA21.JPG,AMNE25.JPG,,,,,,,,,,,,,,,,,0,3,3,3,,,,,,,AFNE07.jpg,AFNE11.jpg,AFSA07.jpg,AFSA04.jpg,AFNE11.jpg,FN,3,num_6,16,num_6,0.883476153469,,,2017_May_17_1348,59.993053578,FEMA4ImagesEEG,001,100476,
AMNE22.JPG,AMSA24.JPG,AMSA22.JPG,AMNE25.JPG,AMNE24.JPG,AMSA25.JPG,,,,,,,,,,,,,,,,,0,4,4,7,,,,,,,AFSA15.jpg,AFSA10.jpg,AFNE01.jpg,AFNE07.jpg,AFNE07.jpg,FN,3,num_4,16,num_4,0.750106726206,,,2017_May_17_1348,59.993053578,FEMA4ImagesEEG,001,100476,
AMSA21.JPG,AMNE22.JPG,AMNE21.JPG,AMSA23.JPG,AMSA22.JPG,AMNE23.JPG,,,,,,,,,,,,,,,,,0,5,5,1,,,,,,,AFNE20.jpg,AFSA20.jpg,AFNE14.jpg,AFSA17.jpg,AFSA20.jpg,FS,4,num_6,16,num_6,1.01674871728,,,2017_May_17_1348,59.993053578,FEMA4ImagesEEG,001,100476,
AFSA21.JPG,AFNE22.JPG,AFNE21.JPG,AFSA23.JPG,AFSA22.JPG,AFNE23.JPG,,,,,,,,,,,,,,,,,0,6,6,0,,,,,,,AFNE14.jpg,AFSA09.jpg,AFSA13.jpg,AFNE06.jpg,AFNE14.jpg,FN,3,num_8,16,num_8,1.5833598211,,,2017_May_17_1348,59.993053578,FEMA4ImagesEEG,001,100476,
AFSA25.JPG,AFNE24.JPG,AFSA24.JPG,AFNE21.JPG,AFSA21.JPG,AFNE25.JPG,,,,,,,,,,,,,,,,,0,7,7,2,,,,,,,AFNE10.jpg,AFNE06.jpg,AFSA04.jpg,AFSA18.jpg,AFSA04.jpg,FS,4,num_2,16,num_2,0.866809545605,,,2017_May_17_1348,59.993053578,FEMA4ImagesEEG,001,100476,
AMNE23.JPG,AMNE24.JPG,AMNE22.JPG,AMSA24.JPG,AMSA22.JPG,AMSA23.JPG,,,,,,,,,,,,,,,,,0,8,8,9,,,,,,,AFSA10.jpg,AFSA09.jpg,AFNE13.jpg,AFNE12.jpg,AFNE12.jpg,FN,3,num_4,16,num_4,0.850106052651,,,2017_May_17_1348,59.993053578,FEMA4ImagesEEG,001,100476,
AMSA21.JPG,AMNE23.JPG,AMNE21.JPG,AMSA25.JPG,AMNE25.JPG,AMSA23.JPG,,,,,,,,,,,,,,,,,0,9,9,5,,,,,,,AFNE07.jpg,AFNE09.jpg,AFSA05.jpg,AFSA09.jpg,AFSA05.jpg,FS,4,num_2,16,num_2,0.850131391102,,,2017_May_17_1348,59.993053578,FEMA4ImagesEEG,001,100476,
AMSA21.JPG,AMNE22.JPG,AMNE21.JPG,AMSA23.JPG,AMSA22.JPG,AMNE23.JPG,,,,,,,,,,,,,,,,,,,,,0,0,0,1,,,AMSA07.jpg,AMNE07.jpg,AMSA04.jpg,AMNE14.jpg,AMNE14.jpg,MN,1,num_4,32,num_6,1.25011971617,,,2017_May_17_1348,59.993053578,FEMA4ImagesEEG,001,100476,
AFSA25.JPG,AFNE24.JPG,AFSA24.JPG,AFNE21.JPG,AFSA21.JPG,AFNE25.JPG,,,,,,,,,,,,,,,,,,,,,0,1,1,2,,,AMNE16.jpg,AMNE03.jpg,AMSA14.jpg,AMSA10.jpg,AMNE16.jpg,MN,1,num_8,16,num_8,1.18345649211,,,2017_May_17_1348,59.993053578,FEMA4ImagesEEG,001,100476,
AFNE23.JPG,AFNE24.JPG,AFNE22.JPG,AFSA24.JPG,AFSA22.JPG,AFSA23.JPG,,,,,,,,,,,,,,,,,,,,,0,2,2,8,,,AMNE06.jpg,AMSA01.jpg,AMNE01.jpg,AMSA14.jpg,AMNE06.jpg,MN,1,num_8,32,num_2,2.25007320888,,,2017_May_17_1348,59.993053578,FEMA4ImagesEEG,001,100476,
AMNE23.JPG,AMNE24.JPG,AMNE22.JPG,AMSA24.JPG,AMSA22.JPG,AMSA23.JPG,,,,,,,,,,,,,,,,,,,,,0,3,3,9,,,AMNE01.jpg,AMNE20.jpg,AMSA03.jpg,AMSA18.jpg,AMNE01.jpg,MN,1,num_8,16,num_8,1.2167958019,,,2017_May_17_1348,59.993053578,FEMA4ImagesEEG,001,100476,
AMSA25.JPG,AMNE24.JPG,AMSA24.JPG,AMNE26.JPG,AMSA21.JPG,AMNE25.JPG,,,,,,,,,,,,,,,,,,,,,0,4,4,3,,,AMNE03.jpg,AMSA09.jpg,AMNE13.jpg,AMSA06.jpg,AMSA09.jpg,MS,2,num_6,16,num_6,1.33339855045,,,2017_May_17_1348,59.993053578,FEMA4ImagesEEG,001,100476,
AFSA21.JPG,AFNE23.JPG,AFNE21.JPG,AFSA25.JPG,AFNE25.JPG,AFSA23.JPG,,,,,,,,,,,,,,,,,,,,,0,5,5,4,,,AMNE04.jpg,AMSA15.jpg,AMSA18.jpg,AMNE17.jpg,AMSA15.jpg,MS,2,num_6,16,num_6,1.13348617659,,,2017_May_17_1348,59.993053578,FEMA4ImagesEEG,001,100476,
AFNE22.JPG,AFSA24.JPG,AFSA22.JPG,AFNE25.JPG,AFNE24.JPG,AFSA25.JPG,,,,,,,,,,,,,,,,,,,,,0,6,6,6,,,AMNE04.jpg,AMNE01.jpg,AMSA17.jpg,AMSA08.jpg,AMNE01.jpg,MN,1,num_6,16,num_6,1.16674337696,,,2017_May_17_1348,59.993053578,FEMA4ImagesEEG,001,100476,
AMSA21.JPG,AMNE23.JPG,AMNE21.JPG,AMSA25.JPG,AMNE25.JPG,AMSA23.JPG,,,,,,,,,,,,,,,,,,,,,0,7,7,5,,,AMSA11.jpg,AMNE09.jpg,AMNE01.jpg,AMSA06.jpg,AMSA11.jpg,MS,2,num_8,32,num_4,1.65008174056,,,2017_May_17_1348,59.993053578,FEMA4ImagesEEG,001,100476,
AFSA21.JPG,AFNE22.JPG,AFNE21.JPG,AFSA23.JPG,AFSA22.JPG,AFNE23.JPG,,,,,,,,,,,,,,,,,,,,,0,8,8,0,,,AMNE11.jpg,AMSA06.jpg,AMSA20.jpg,AMNE01.jpg,AMSA20.jpg,MS,2,num_2,16,num_2,0.883488662326,,,2017_May_17_1348,59.993053578,FEMA4ImagesEEG,001,100476,
AMNE22.JPG,AMSA24.JPG,AMSA22.JPG,AMNE25.JPG,AMNE24.JPG,AMSA25.JPG,,,,,,,,,,,,,,,,,,,,,0,9,9,7,,,AMNE03.jpg,AMSA20.jpg,AMNE15.jpg,AMSA05.jpg,AMSA05.jpg,MS,2,num_4,32,num_6,1.13345281964,,,2017_May_17_1348,59.993053578,FEMA4ImagesEEG,001,100476,
,,,,,,,,,,,,,,,,,,,,,,,,,,,,,,,,,,,,,,,,,,,space,22.032093556,2017_May_17_1348,59.993053578,FEMA4ImagesEEG,001,100476,
AFNE01.JPG,AFNE01.JPG,AFNE01.JPG,AFNE01.JPG,AFNE01.JPG,AFNE01.JPG,0,0,0,7,,,,,,,,,,,,,,,,,,,,,,,AFSA18.jpg,AFSA20.jpg,AFNE19.jpg,AFNE01.jpg,AFNE01.jpg,FN,3,num_4,16,num_4,1.0167352462,,,2017_May_17_1348,59.993053578,FEMA4ImagesEEG,001,100476,
AFNE01.JPG,AFNE01.JPG,AFNE01.JPG,AFNE01.JPG,AFNE01.JPG,AFNE01.JPG,0,1,1,8,,,,,,,,,,,,,,,,,,,,,,,AFSA12.jpg,AFSA02.jpg,AFNE09.jpg,AFNE03.jpg,AFSA12.jpg,FS,4,num_8,16,num_8,0.650115418255,,,2017_May_17_1348,59.993053578,FEMA4ImagesEEG,001,100476,
AFNE01.JPG,AFNE01.JPG,AFNE01.JPG,AFNE01.JPG,AFNE01.JPG,AFNE01.JPG,0,2,2,5,,,,,,,,,,,,,,,,,,,,,,,AFSA04.jpg,AFNE06.jpg,AFSA14.jpg,AFNE01.jpg,AFNE01.jpg,FN,3,num_4,16,num_4,1.01684141111,,,2017_May_17_1348,59.993053578,FEMA4ImagesEEG,001,100476,
AFNE01.JPG,AFNE01.JPG,AFNE01.JPG,AFNE01.JPG,AFNE01.JPG,AFNE01.JPG,0,3,3,3,,,,,,,,,,,,,,,,,,,,,,,AFNE05.jpg,AFSA10.jpg,AFSA13.jpg,AFNE09.jpg,AFNE05.jpg,FN,3,num_8,32,num_2,0.883467172751,,,2017_May_17_1348,59.993053578,FEMA4ImagesEEG,001,100476,
AFNE01.JPG,AFNE01.JPG,AFNE01.JPG,AFNE01.JPG,AFNE01.JPG,AFNE01.JPG,0,4,4,4,,,,,,,,,,,,,,,,,,,,,,,AFSA08.jpg,AFSA15.jpg,AFNE08.jpg,AFNE10.jpg,AFNE10.jpg,FN,3,num_4,16,num_4,1.2168086315,,,2017_May_17_1348,59.993053578,FEMA4ImagesEEG,001,100476,
AFNE01.JPG,AFNE01.JPG,AFNE01.JPG,AFNE01.JPG,AFNE01.JPG,AFNE01.JPG,0,5,5,2,,,,,,,,,,,,,,,,,,,,,,,AFSA05.jpg,AFNE10.jpg,AFNE11.jpg,AFSA03.jpg,AFSA03.jpg,FS,4,num_4,32,num_8,1.49996552046,,,2017_May_17_1348,59.993053578,FEMA4ImagesEEG,001,100476,
AFNE01.JPG,AFNE01.JPG,AFNE01.JPG,AFNE01.JPG,AFNE01.JPG,AFNE01.JPG,0,6,6,0,,,,,,,,,,,,,,,,,,,,,,,AFNE02.jpg,AFSA11.jpg,AFNE15.jpg,AFSA09.jpg,AFNE02.jpg,FN,3,num_8,16,num_8,1.43336451994,,,2017_May_17_1348,59.993053578,FEMA4ImagesEEG,001,100476,
AFNE01.JPG,AFNE01.JPG,AFNE01.JPG,AFNE01.JPG,AFNE01.JPG,AFNE01.JPG,0,7,7,6,,,,,,,,,,,,,,,,,,,,,,,AFSA07.jpg,AFNE16.jpg,AFSA13.jpg,AFNE04.jpg,AFSA13.jpg,FS,4,num_2,16,num_2,1.45004620258,,,2017_May_17_1348,59.993053578,FEMA4ImagesEEG,001,100476,
AFNE01.JPG,AFNE01.JPG,AFNE01.JPG,AFNE01.JPG,AFNE01.JPG,AFNE01.JPG,0,8,8,1,,,,,,,,,,,,,,,,,,,,,,,AFNE14.jpg,AFSA17.jpg,AFNE18.jpg,AFSA18.jpg,AFSA18.jpg,FS,4,num_4,16,num_4,0.966781929897,,,2017_May_17_1348,59.993053578,FEMA4ImagesEEG,001,100476,
AFNE01.JPG,AFNE01.JPG,AFNE01.JPG,AFNE01.JPG,AFNE01.JPG,AFNE01.JPG,0,9,9,9,,,,,,,,,,,,,,,,,,,,,,,AFSA17.jpg,AFNE08.jpg,AFSA20.jpg,AFNE15.jpg,AFSA17.jpg,FS,4,num_8,16,num_8,0.900095933306,,,2017_May_17_1348,59.993053578,FEMA4ImagesEEG,001,100476,
AFNE01.JPG,AFNE01.JPG,AFNE01.JPG,AFNE01.JPG,AFNE01.JPG,AFNE01.JPG,1,0,10,0,,,,,,,,,,,,,,,,,,,,,,,AFNE18.jpg,AFSA02.jpg,AFSA07.jpg,AFNE01.jpg,AFSA02.jpg,FS,4,num_6,16,num_6,0.766853839787,,,2017_May_17_1348,59.993053578,FEMA4ImagesEEG,001,100476,
AFNE01.JPG,AFNE01.JPG,AFNE01.JPG,AFNE01.JPG,AFNE01.JPG,AFNE01.JPG,1,1,11,6,,,,,,,,,,,,,,,,,,,,,,,AFNE03.jpg,AFSA18.jpg,AFSA01.jpg,AFNE09.jpg,AFSA01.jpg,FS,4,num_2,32,num_6,1.6666951056,,,2017_May_17_1348,59.993053578,FEMA4ImagesEEG,001,100476,
AFNE01.JPG,AFNE01.JPG,AFNE01.JPG,AFNE01.JPG,AFNE01.JPG,AFNE01.JPG,1,2,12,1,,,,,,,,,,,,,,,,,,,,,,,AFSA11.jpg,AFSA19.jpg,AFNE09.jpg,AFNE13.jpg,AFSA11.jpg,FS,4,num_8,16,num_8,0.833442331446,,,2017_May_17_1348,59.993053578,FEMA4ImagesEEG,001,100476,
AFNE01.JPG,AFNE01.JPG,AFNE01.JPG,AFNE01.JPG,AFNE01.JPG,AFNE01.JPG,1,3,13,3,,,,,,,,,,,,,,,,,,,,,,,AFNE08.jpg,AFNE06.jpg,AFSA13.jpg,AFSA11.jpg,AFNE08.jpg,FN,3,num_8,16,num_8,0.949818958357,,,2017_May_17_1348,59.993053578,FEMA4ImagesEEG,001,100476,
AFNE01.JPG,AFNE01.JPG,AFNE01.JPG,AFNE01.JPG,AFNE01.JPG,AFNE01.JPG,1,4,14,7,,,,,,,,,,,,,,,,,,,,,,,AFSA05.jpg,AFNE05.jpg,AFNE07.jpg,AFSA13.jpg,AFSA13.jpg,FS,4,num_4,16,num_4,0.816775723582,,,2017_May_17_1348,59.993053578,FEMA4ImagesEEG,001,100476,
AFNE01.JPG,AFNE01.JPG,AFNE01.JPG,AFNE01.JPG,AFNE01.JPG,AFNE01.JPG,1,5,15,8,,,,,,,,,,,,,,,,,,,,,,,AFNE18.jpg,AFNE09.jpg,AFSA13.jpg,AFSA10.jpg,AFSA10.jpg,FS,4,num_4,16,num_4,1.10015424382,,,2017_May_17_1348,59.993053578,FEMA4ImagesEEG,001,100476,
AFNE01.JPG,AFNE01.JPG,AFNE01.JPG,AFNE01.JPG,AFNE01.JPG,AFNE01.JPG,1,6,16,5,,,,,,,,,,,,,,,,,,,,,,,AFNE20.jpg,AFNE04.jpg,AFSA03.jpg,AFSA05.jpg,AFNE04.jpg,FN,3,num_6,16,num_6,0.983697431933,,,2017_May_17_1348,59.993053578,FEMA4ImagesEEG,001,100476,
AFNE01.JPG,AFNE01.JPG,AFNE01.JPG,AFNE01.JPG,AFNE01.JPG,AFNE01.JPG,1,7,17,9,,,,,,,,,,,,,,,,,,,,,,,AFNE13.jpg,AFSA18.jpg,AFNE20.jpg,AFSA19.jpg,AFNE13.jpg,FN,3,num_8,16,num_8,2.00007280796,,,2017_May_17_1348,59.993053578,FEMA4ImagesEEG,001,100476,
AFNE01.JPG,AFNE01.JPG,AFNE01.JPG,AFNE01.JPG,AFNE01.JPG,AFNE01.JPG,1,8,18,2,,,,,,,,,,,,,,,,,,,,,,,AFSA09.jpg,AFSA05.jpg,AFNE14.jpg,AFNE10.jpg,AFSA09.jpg,FS,4,num_8,32,num_4,1.53341548552,,,2017_May_17_1348,59.993053578,FEMA4ImagesEEG,001,100476,
AFNE01.JPG,AFNE01.JPG,AFNE01.JPG,AFNE01.JPG,AFNE01.JPG,AFNE01.JPG,1,9,19,4,,,,,,,,,,,,,,,,,,,,,,,AFSA01.jpg,AFSA19.jpg,AFNE06.jpg,AFNE17.jpg,AFNE06.jpg,FN,3,num_2,32,num_8,1.6166638495,,,2017_May_17_1348,59.993053578,FEMA4ImagesEEG,001,100476,
AFNE01.JPG,AFNE01.JPG,AFNE01.JPG,AFNE01.JPG,AFNE01.JPG,AFNE01.JPG,2,0,20,5,,,,,,,,,,,,,,,,,,,,,,,AFNE06.jpg,AFSA05.jpg,AFNE05.jpg,AFSA04.jpg,AFNE06.jpg,FN,3,num_8,16,num_8,1.58343711942,,,2017_May_17_1348,59.993053578,FEMA4ImagesEEG,001,100476,
AFNE01.JPG,AFNE01.JPG,AFNE01.JPG,AFNE01.JPG,AFNE01.JPG,AFNE01.JPG,2,1,21,2,,,,,,,,,,,,,,,,,,,,,,,AFSA01.jpg,AFNE11.jpg,AFSA20.jpg,AFNE06.jpg,AFNE11.jpg,FN,3,num_6,16,num_6,1.03340506147,,,2017_May_17_1348,59.993053578,FEMA4ImagesEEG,001,100476,
AFNE01.JPG,AFNE01.JPG,AFNE01.JPG,AFNE01.JPG,AFNE01.JPG,AFNE01.JPG,2,2,22,6,,,,,,,,,,,,,,,,,,,,,,,AFSA19.jpg,AFSA07.jpg,AFNE16.jpg,AFNE03.jpg,AFNE16.jpg,FN,3,num_2,32,num_8,1.96664016286,,,2017_May_17_1348,59.993053578,FEMA4ImagesEEG,001,100476,
AFNE01.JPG,AFNE01.JPG,AFNE01.JPG,AFNE01.JPG,AFNE01.JPG,AFNE01.JPG,2,3,23,9,,,,,,,,,,,,,,,,,,,,,,,AFNE07.jpg,AFSA13.jpg,AFNE02.jpg,AFSA06.jpg,AFNE02.jpg,FN,3,num_2,32,num_8,1.00010359899,,,2017_May_17_1348,59.993053578,FEMA4ImagesEEG,001,100476,
AFNE01.JPG,AFNE01.JPG,AFNE01.JPG,AFNE01.JPG,AFNE01.JPG,AFNE01.JPG,2,4,24,0,,,,,,,,,,,,,,,,,,,,,,,AFSA07.jpg,AFSA18.jpg,AFNE17.jpg,AFNE10.jpg,AFSA18.jpg,FS,4,num_6,32,num_8,1.08339301768,,,2017_May_17_1348,59.993053578,FEMA4ImagesEEG,001,100476,
AFNE01.JPG,AFNE01.JPG,AFNE01.JPG,AFNE01.JPG,AFNE01.JPG,AFNE01.JPG,2,5,25,8,,,,,,,,,,,,,,,,,,,,,,,AFSA06.jpg,AFSA03.jpg,AFNE19.jpg,AFNE12.jpg,AFNE12.jpg,FN,3,num_4,16,num_4,1.20011091186,,,2017_May_17_1348,59.993053578,FEMA4ImagesEEG,001,100476,
AFNE01.JPG,AFNE01.JPG,AFNE01.JPG,AFNE01.JPG,AFNE01.JPG,AFNE01.JPG,2,6,26,1,,,,,,,,,,,,,,,,,,,,,,,AFNE19.jpg,AFSA12.jpg,AFSA03.jpg,AFNE08.jpg,AFSA12.jpg,FS,4,num_6,16,num_6,1.00007761906,,,2017_May_17_1348,59.993053578,FEMA4ImagesEEG,001,100476,
AFNE01.JPG,AFNE01.JPG,AFNE01.JPG,AFNE01.JPG,AFNE01.JPG,AFNE01.JPG,2,7,27,7,,,,,,,,,,,,,,,,,,,,,,,AFNE03.jpg,AFNE12.jpg,AFSA19.jpg,AFSA07.jpg,AFSA07.jpg,FS,4,num_4,16,num_4,1.13342587749,,,2017_May_17_1348,59.993053578,FEMA4ImagesEEG,001,100476,
AFNE01.JPG,AFNE01.JPG,AFNE01.JPG,AFNE01.JPG,AFNE01.JPG,AFNE01.JPG,2,8,28,3,,,,,,,,,,,,,,,,,,,,,,,AFSA18.jpg,AFNE09.jpg,AFSA01.jpg,AFNE03.jpg,AFSA18.jpg,FS,4,num_8,16,num_8,1.68343387995,,,2017_May_17_1348,59.993053578,FEMA4ImagesEEG,001,100476,
AFNE01.JPG,AFNE01.JPG,AFNE01.JPG,AFNE01.JPG,AFNE01.JPG,AFNE01.JPG,2,9,29,4,,,,,,,,,,,,,,,,,,,,,,,AFNE17.jpg,AFSA20.jpg,AFNE09.jpg,AFSA02.jpg,AFSA02.jpg,FS,4,num_4,16,num_4,0.950123340532,,,2017_May_17_1348,59.993053578,FEMA4ImagesEEG,001,100476,
AFNE01.JPG,AFNE01.JPG,AFNE01.JPG,AFNE01.JPG,AFNE01.JPG,AFNE01.JPG,3,0,30,5,,,,,,,,,,,,,,,,,,,,,,,AFSA08.jpg,AFNE18.jpg,AFNE01.jpg,AFSA06.jpg,AFSA08.jpg,FS,4,num_8,16,num_8,0.933452563049,,,2017_May_17_1348,59.993053578,FEMA4ImagesEEG,001,100476,
AFNE01.JPG,AFNE01.JPG,AFNE01.JPG,AFNE01.JPG,AFNE01.JPG,AFNE01.JPG,3,1,31,3,,,,,,,,,,,,,,,,,,,,,,,AFNE18.jpg,AFNE09.jpg,AFSA01.jpg,AFSA15.jpg,AFNE09.jpg,FN,3,num_6,32,num_8,1.71668017516,,,2017_May_17_1348,59.993053578,FEMA4ImagesEEG,001,100476,
AFNE01.JPG,AFNE01.JPG,AFNE01.JPG,AFNE01.JPG,AFNE01.JPG,AFNE01.JPG,3,2,32,8,,,,,,,,,,,,,,,,,,,,,,,AFNE06.jpg,AFSA06.jpg,AFSA07.jpg,AFNE08.jpg,AFSA07.jpg,FS,4,num_2,16,num_2,1.23349480449,,,2017_May_17_1348,59.993053578,FEMA4ImagesEEG,001,100476,
AFNE01.JPG,AFNE01.JPG,AFNE01.JPG,AFNE01.JPG,AFNE01.JPG,AFNE01.JPG,3,3,33,2,,,,,,,,,,,,,,,,,,,,,,,AFNE17.jpg,AFNE14.jpg,AFSA04.jpg,AFSA02.jpg,AFNE14.jpg,FN,3,num_6,32,num_8,1.43340012207,,,2017_May_17_1348,59.993053578,FEMA4ImagesEEG,001,100476,
AFNE01.JPG,AFNE01.JPG,AFNE01.JPG,AFNE01.JPG,AFNE01.JPG,AFNE01.JPG,3,4,34,7,,,,,,,,,,,,,,,,,,,,,,,AFNE06.jpg,AFSA05.jpg,AFSA07.jpg,AFNE18.jpg,AFSA07.jpg,FS,4,num_2,32,num_8,1.40008358482,,,2017_May_17_1348,59.993053578,FEMA4ImagesEEG,001,100476,
AFNE01.JPG,AFNE01.JPG,AFNE01.JPG,AFNE01.JPG,AFNE01.JPG,AFNE01.JPG,3,5,35,4,,,,,,,,,,,,,,,,,,,,,,,AFSA13.jpg,AFSA07.jpg,AFNE14.jpg,AFNE15.jpg,AFNE14.jpg,FN,3,num_2,32,num_4,1.15013257784,,,2017_May_17_1348,59.993053578,FEMA4ImagesEEG,001,100476,
AFNE01.JPG,AFNE01.JPG,AFNE01.JPG,AFNE01.JPG,AFNE01.JPG,AFNE01.JPG,3,6,36,0,,,,,,,,,,,,,,,,,,,,,,,AFSA06.jpg,AFNE17.jpg,AFNE16.jpg,AFSA12.jpg,AFSA06.jpg,FS,4,num_8,16,num_8,1.40011469659,,,2017_May_17_1348,59.993053578,FEMA4ImagesEEG,001,100476,
AFNE01.JPG,AFNE01.JPG,AFNE01.JPG,AFNE01.JPG,AFNE01.JPG,AFNE01.JPG,3,7,37,1,,,,,,,,,,,,,,,,,,,,,,,AFNE14.jpg,AFNE08.jpg,AFSA13.jpg,AFSA15.jpg,AFSA15.jpg,FS,4,num_4,16,num_4,0.950098002078,,,2017_May_17_1348,59.993053578,FEMA4ImagesEEG,001,100476,
AFNE01.JPG,AFNE01.JPG,AFNE01.JPG,AFNE01.JPG,AFNE01.JPG,AFNE01.JPG,3,8,38,6,,,,,,,,,,,,,,,,,,,,,,,AFSA16.jpg,AFNE12.jpg,AFSA13.jpg,AFNE17.jpg,AFNE12.jpg,FN,3,num_6,16,num_6,1.05011336552,,,2017_May_17_1348,59.993053578,FEMA4ImagesEEG,001,100476,
AFNE01.JPG,AFNE01.JPG,AFNE01.JPG,AFNE01.JPG,AFNE01.JPG,AFNE01.JPG,3,9,39,9,,,,,,,,,,,,,,,,,,,,,,,AFNE06.jpg,AFNE17.jpg,AFSA14.jpg,AFSA19.jpg,AFNE17.jpg,FN,3,num_6,16,num_6,1.31676369584,,,2017_May_17_1348,59.993053578,FEMA4ImagesEEG,001,100476,
AFNE01.JPG,AFNE01.JPG,AFNE01.JPG,AFNE01.JPG,AFNE01.JPG,AFNE01.JPG,4,0,40,7,,,,,,,,,,,,,,,,,,,,,,,AFSA09.jpg,AFNE02.jpg,AFNE10.jpg,AFSA03.jpg,AFNE10.jpg,FN,3,num_2,32,num_8,1.5500846593,,,2017_May_17_1348,59.993053578,FEMA4ImagesEEG,001,100476,
AFNE01.JPG,AFNE01.JPG,AFNE01.JPG,AFNE01.JPG,AFNE01.JPG,AFNE01.JPG,4,1,41,1,,,,,,,,,,,,,,,,,,,,,,,AFNE20.jpg,AFNE13.jpg,AFSA02.jpg,AFSA13.jpg,AFNE13.jpg,FN,3,num_6,16,num_6,1.88339051591,,,2017_May_17_1348,59.993053578,FEMA4ImagesEEG,001,100476,
AFNE01.JPG,AFNE01.JPG,AFNE01.JPG,AFNE01.JPG,AFNE01.JPG,AFNE01.JPG,4,2,42,0,,,,,,,,,,,,,,,,,,,,,,,AFNE01.jpg,AFSA06.jpg,AFNE17.jpg,AFSA09.jpg,AFSA06.jpg,FS,4,num_6,16,num_6,2.08334522744,,,2017_May_17_1348,59.993053578,FEMA4ImagesEEG,001,100476,
AFNE01.JPG,AFNE01.JPG,AFNE01.JPG,AFNE01.JPG,AFNE01.JPG,AFNE01.JPG,4,3,43,5,,,,,,,,,,,,,,,,,,,,,,,AFSA12.jpg,AFNE10.jpg,AFSA11.jpg,AFNE11.jpg,AFSA12.jpg,FS,4,num_8,16,num_8,0.983446292585,,,2017_May_17_1348,59.993053578,FEMA4ImagesEEG,001,100476,
AFNE01.JPG,AFNE01.JPG,AFNE01.JPG,AFNE01.JPG,AFNE01.JPG,AFNE01.JPG,4,4,44,6,,,,,,,,,,,,,,,,,,,,,,,AFSA07.jpg,AFNE02.jpg,AFSA10.jpg,AFNE10.jpg,AFSA10.jpg,FS,4,num_2,16,num_2,1.36647549499,,,2017_May_17_1348,59.993053578,FEMA4ImagesEEG,001,100476,
AFNE01.JPG,AFNE01.JPG,AFNE01.JPG,AFNE01.JPG,AFNE01.JPG,AFNE01.JPG,4,5,45,8,,,,,,,,,,,,,,,,,,,,,,,AFSA15.jpg,AFSA14.jpg,AFNE02.jpg,AFNE13.jpg,AFNE13.jpg,FN,3,num_4,16,num_4,1.31674926254,,,2017_May_17_1348,59.993053578,FEMA4ImagesEEG,001,100476,
AFNE01.JPG,AFNE01.JPG,AFNE01.JPG,AFNE01.JPG,AFNE01.JPG,AFNE01.JPG,4,6,46,2,,,,,,,,,,,,,,,,,,,,,,,AFSA01.jpg,AFSA05.jpg,AFNE04.jpg,AFNE17.jpg,AFSA05.jpg,FS,4,num_6,32,num_4,2.3502611304,,,2017_May_17_1348,59.993053578,FEMA4ImagesEEG,001,100476,
AFNE01.JPG,AFNE01.JPG,AFNE01.JPG,AFNE01.JPG,AFNE01.JPG,AFNE01.JPG,4,7,47,9,,,,,,,,,,,,,,,,,,,,,,,AFSA19.jpg,AFSA13.jpg,AFNE11.jpg,AFNE19.jpg,AFNE19.jpg,FN,3,num_4,32,num_6,2.66661941099,,,2017_May_17_1348,59.993053578,FEMA4ImagesEEG,001,100476,
AFNE01.JPG,AFNE01.JPG,AFNE01.JPG,AFNE01.JPG,AFNE01.JPG,AFNE01.JPG,4,8,48,3,,,,,,,,,,,,,,,,,,,,,,,AFNE10.jpg,AFSA10.jpg,AFNE20.jpg,AFSA06.jpg,AFSA10.jpg,FS,4,num_6,16,num_6,0.900133780615,,,2017_May_17_1348,59.993053578,FEMA4ImagesEEG,001,100476,
AFNE01.JPG,AFNE01.JPG,AFNE01.JPG,AFNE01.JPG,AFNE01.JPG,AFNE01.JPG,4,9,49,4,,,,,,,,,,,,,,,,,,,,,,,AFNE08.jpg,AFSA15.jpg,AFSA20.jpg,AFNE12.jpg,AFSA15.jpg,FS,4,num_6,16,num_6,1.00011225897,,,2017_May_17_1348,59.993053578,FEMA4ImagesEEG,001,100476,
AFNE01.JPG,AFNE01.JPG,AFNE01.JPG,AFNE01.JPG,AFNE01.JPG,AFNE01.JPG,5,0,50,4,,,,,,,,,,,,,,,,,,,,,,,AFSA01.jpg,AFSA13.jpg,AFNE05.jpg,AFNE14.jpg,AFNE14.jpg,FN,3,num_4,16,num_4,1.60018038412,,,2017_May_17_1348,59.993053578,FEMA4ImagesEEG,001,100476,
AFNE01.JPG,AFNE01.JPG,AFNE01.JPG,AFNE01.JPG,AFNE01.JPG,AFNE01.JPG,5,1,51,2,,,,,,,,,,,,,,,,,,,,,,,AFSA18.jpg,AFNE02.jpg,AFSA07.jpg,AFNE19.jpg,AFNE02.jpg,FN,3,num_6,32,num_8,1.83337369311,,,2017_May_17_1348,59.993053578,FEMA4ImagesEEG,001,100476,
AFNE01.JPG,AFNE01.JPG,AFNE01.JPG,AFNE01.JPG,AFNE01.JPG,AFNE01.JPG,5,2,52,8,,,,,,,,,,,,,,,,,,,,,,,AFNE03.jpg,AFSA19.jpg,AFSA18.jpg,AFNE13.jpg,AFNE03.jpg,FN,3,num_8,32,num_2,1.46673077188,,,2017_May_17_1348,59.993053578,FEMA4ImagesEEG,001,100476,
AFNE01.JPG,AFNE01.JPG,AFNE01.JPG,AFNE01.JPG,AFNE01.JPG,AFNE01.JPG,5,3,53,6,,,,,,,,,,,,,,,,,,,,,,,AFNE02.jpg,AFSA06.jpg,AFSA05.jpg,AFNE06.jpg,AFNE06.jpg,FN,3,num_4,32,num_6,1.20006889493,,,2017_May_17_1348,59.993053578,FEMA4ImagesEEG,001,100476,
AFNE01.JPG,AFNE01.JPG,AFNE01.JPG,AFNE01.JPG,AFNE01.JPG,AFNE01.JPG,5,4,54,3,,,,,,,,,,,,,,,,,,,,,,,AFNE02.jpg,AFSA15.jpg,AFNE01.jpg,AFSA07.jpg,AFSA07.jpg,FS,4,num_4,32,num_6,1.30007014582,,,2017_May_17_1348,59.993053578,FEMA4ImagesEEG,001,100476,
AFNE01.JPG,AFNE01.JPG,AFNE01.JPG,AFNE01.JPG,AFNE01.JPG,AFNE01.JPG,5,5,55,9,,,,,,,,,,,,,,,,,,,,,,,AFSA01.jpg,AFSA18.jpg,AFNE14.jpg,AFNE02.jpg,AFSA18.jpg,FS,4,num_6,16,num_6,0.783464638906,,,2017_May_17_1348,59.993053578,FEMA4ImagesEEG,001,100476,
AFNE01.JPG,AFNE01.JPG,AFNE01.JPG,AFNE01.JPG,AFNE01.JPG,AFNE01.JPG,5,6,56,5,,,,,,,,,,,,,,,,,,,,,,,AFNE12.jpg,AFSA16.jpg,AFNE17.jpg,AFSA13.jpg,AFSA16.jpg,FS,4,num_6,16,num_6,1.35007157311,,,2017_May_17_1348,59.993053578,FEMA4ImagesEEG,001,100476,
AFNE01.JPG,AFNE01.JPG,AFNE01.JPG,AFNE01.JPG,AFNE01.JPG,AFNE01.JPG,5,7,57,0,,,,,,,,,,,,,,,,,,,,,,,AFSA02.jpg,AFNE18.jpg,AFNE11.jpg,AFSA15.jpg,AFSA02.jpg,FS,4,num_8,16,num_8,1.06689896789,,,2017_May_17_1348,59.993053578,FEMA4ImagesEEG,001,100476,
AFNE01.JPG,AFNE01.JPG,AFNE01.JPG,AFNE01.JPG,AFNE01.JPG,AFNE01.JPG,5,8,58,1,,,,,,,,,,,,,,,,,,,,,,,AFSA11.jpg,AFNE11.jpg,AFSA14.jpg,AFNE10.jpg,AFSA14.jpg,FS,4,num_2,16,num_2,0.866806658945,,,2017_May_17_1348,59.993053578,FEMA4ImagesEEG,001,100476,
AFNE01.JPG,AFNE01.JPG,AFNE01.JPG,AFNE01.JPG,AFNE01.JPG,AFNE01.JPG,5,9,59,7,,,,,,,,,,,,,,,,,,,,,,,AFSA08.jpg,AFNE10.jpg,AFSA12.jpg,AFNE08.jpg,AFSA08.jpg,FS,4,num_8,16,num_8,0.933528578407,,,2017_May_17_1348,59.993053578,FEMA4ImagesEEG,001,100476,
,,,,,,,,,,,,,,,,,,,,,,,,,,,,,,,,,,,,,,,,,,,space,17.6154629993,2017_May_17_1348,59.993053578,FEMA4ImagesEEG,001,100476,
AFNE01.JPG,AFNE01.JPG,AFNE01.JPG,AFNE01.JPG,AFNE01.JPG,AFNE01.JPG,,,,,0,0,0,0,,,,,,,,,,,,,,,,,,,AMNE14.jpg,AMSA10.jpg,AMSA01.jpg,AMNE04.jpg,AMNE04.jpg,MN,1,num_4,16,num_4,1.20011155334,,,2017_May_17_1348,59.993053578,FEMA4ImagesEEG,001,100476,
AFNE01.JPG,AFNE01.JPG,AFNE01.JPG,AFNE01.JPG,AFNE01.JPG,AFNE01.JPG,,,,,0,1,1,6,,,,,,,,,,,,,,,,,,,AMSA01.jpg,AMNE08.jpg,AMNE12.jpg,AMSA03.jpg,AMNE08.jpg,MN,1,num_6,32,num_8,1.08345492049,,,2017_May_17_1348,59.993053578,FEMA4ImagesEEG,001,100476,
AFNE01.JPG,AFNE01.JPG,AFNE01.JPG,AFNE01.JPG,AFNE01.JPG,AFNE01.JPG,,,,,0,2,2,2,,,,,,,,,,,,,,,,,,,AMSA16.jpg,AMNE17.jpg,AMSA12.jpg,AMNE11.jpg,AMSA12.jpg,MS,2,num_2,32,num_6,1.08331347419,,,2017_May_17_1348,59.993053578,FEMA4ImagesEEG,001,100476,
AFNE01.JPG,AFNE01.JPG,AFNE01.JPG,AFNE01.JPG,AFNE01.JPG,AFNE01.JPG,,,,,0,3,3,8,,,,,,,,,,,,,,,,,,,AMSA05.jpg,AMSA12.jpg,AMNE19.jpg,AMNE06.jpg,AMNE06.jpg,MN,1,num_4,32,num_8,1.03358275138,,,2017_May_17_1348,59.993053578,FEMA4ImagesEEG,001,100476,
AFNE01.JPG,AFNE01.JPG,AFNE01.JPG,AFNE01.JPG,AFNE01.JPG,AFNE01.JPG,,,,,0,4,4,3,,,,,,,,,,,,,,,,,,,AMNE03.jpg,AMSA17.jpg,AMSA07.jpg,AMNE02.jpg,AMNE02.jpg,MN,1,num_4,32,num_8,1.23343354317,,,2017_May_17_1348,59.993053578,FEMA4ImagesEEG,001,100476,
AFNE01.JPG,AFNE01.JPG,AFNE01.JPG,AFNE01.JPG,AFNE01.JPG,AFNE01.JPG,,,,,0,5,5,4,,,,,,,,,,,,,,,,,,,AMNE06.jpg,AMNE15.jpg,AMSA13.jpg,AMSA10.jpg,AMNE06.jpg,MN,1,num_8,32,num_6,1.03347658647,,,2017_May_17_1348,59.993053578,FEMA4ImagesEEG,001,100476,
AFNE01.JPG,AFNE01.JPG,AFNE01.JPG,AFNE01.JPG,AFNE01.JPG,AFNE01.JPG,,,,,0,6,6,1,,,,,,,,,,,,,,,,,,,AMNE05.jpg,AMNE17.jpg,AMSA03.jpg,AMSA13.jpg,AMSA03.jpg,MS,2,num_2,16,num_2,0.716787943771,,,2017_May_17_1348,59.993053578,FEMA4ImagesEEG,001,100476,
AFNE01.JPG,AFNE01.JPG,AFNE01.JPG,AFNE01.JPG,AFNE01.JPG,AFNE01.JPG,,,,,0,7,7,9,,,,,,,,,,,,,,,,,,,AMNE19.jpg,AMNE04.jpg,AMSA18.jpg,AMSA04.jpg,AMNE19.jpg,MN,1,num_8,16,num_8,1.00010135381,,,2017_May_17_1348,59.993053578,FEMA4ImagesEEG,001,100476,
AFNE01.JPG,AFNE01.JPG,AFNE01.JPG,AFNE01.JPG,AFNE01.JPG,AFNE01.JPG,,,,,0,8,8,5,,,,,,,,,,,,,,,,,,,AMSA04.jpg,AMNE10.jpg,AMSA18.jpg,AMNE03.jpg,AMSA18.jpg,MS,2,num_2,16,num_2,1.0167609054,,,2017_May_17_1348,59.993053578,FEMA4ImagesEEG,001,100476,
AFNE01.JPG,AFNE01.JPG,AFNE01.JPG,AFNE01.JPG,AFNE01.JPG,AFNE01.JPG,,,,,0,9,9,7,,,,,,,,,,,,,,,,,,,AMNE13.jpg,AMSA17.jpg,AMNE14.jpg,AMSA05.jpg,AMSA05.jpg,MS,2,num_4,16,num_4,0.566819264022,,,2017_May_17_1348,59.993053578,FEMA4ImagesEEG,001,100476,
AFNE01.JPG,AFNE01.JPG,AFNE01.JPG,AFNE01.JPG,AFNE01.JPG,AFNE01.JPG,,,,,1,0,10,0,,,,,,,,,,,,,,,,,,,AMNE09.jpg,AMSA05.jpg,AMNE11.jpg,AMSA11.jpg,AMSA11.jpg,MS,2,num_4,16,num_4,0.850123051867,,,2017_May_17_1348,59.993053578,FEMA4ImagesEEG,001,100476,
AFNE01.JPG,AFNE01.JPG,AFNE01.JPG,AFNE01.JPG,AFNE01.JPG,AFNE01.JPG,,,,,1,1,11,9,,,,,,,,,,,,,,,,,,,AMSA17.jpg,AMNE06.jpg,AMNE05.jpg,AMSA11.jpg,AMSA17.jpg,MS,2,num_8,32,num_2,1.45012061424,,,2017_May_17_1348,59.993053578,FEMA4ImagesEEG,001,100476,
AFNE01.JPG,AFNE01.JPG,AFNE01.JPG,AFNE01.JPG,AFNE01.JPG,AFNE01.JPG,,,,,1,2,12,8,,,,,,,,,,,,,,,,,,,AMSA02.jpg,AMNE13.jpg,AMSA01.jpg,AMNE10.jpg,AMNE13.jpg,MN,1,num_6,32,num_4,1.44991469922,,,2017_May_17_1348,59.993053578,FEMA4ImagesEEG,001,100476,
AFNE01.JPG,AFNE01.JPG,AFNE01.JPG,AFNE01.JPG,AFNE01.JPG,AFNE01.JPG,,,,,1,3,13,6,,,,,,,,,,,,,,,,,,,AMSA12.jpg,AMNE14.jpg,AMNE04.jpg,AMSA01.jpg,AMNE04.jpg,MN,1,num_2,32,num_4,1.03347851091,,,2017_May_17_1348,59.993053578,FEMA4ImagesEEG,001,100476,
AFNE01.JPG,AFNE01.JPG,AFNE01.JPG,AFNE01.JPG,AFNE01.JPG,AFNE01.JPG,,,,,1,4,14,1,,,,,,,,,,,,,,,,,,,AMNE09.jpg,AMSA14.jpg,AMSA19.jpg,AMNE08.jpg,AMSA19.jpg,MS,2,num_2,16,num_2,1.13340567087,,,2017_May_17_1348,59.993053578,FEMA4ImagesEEG,001,100476,
AFNE01.JPG,AFNE01.JPG,AFNE01.JPG,AFNE01.JPG,AFNE01.JPG,AFNE01.JPG,,,,,1,5,15,2,,,,,,,,,,,,,,,,,,,AMSA01.jpg,AMSA10.jpg,AMNE13.jpg,AMNE19.jpg,AMNE13.jpg,MN,1,num_2,32,num_4,1.15037441573,,,2017_May_17_1348,59.993053578,FEMA4ImagesEEG,001,100476,
AFNE01.JPG,AFNE01.JPG,AFNE01.JPG,AFNE01.JPG,AFNE01.JPG,AFNE01.JPG,,,,,1,6,16,4,,,,,,,,,,,,,,,,,,,AMSA17.jpg,AMNE13.jpg,AMSA14.jpg,AMNE11.jpg,AMSA17.jpg,MS,2,num_8,32,num_2,2.01672883141,,,2017_May_17_1348,59.993053578,FEMA4ImagesEEG,001,100476,
AFNE01.JPG,AFNE01.JPG,AFNE01.JPG,AFNE01.JPG,AFNE01.JPG,AFNE01.JPG,,,,,1,7,17,3,,,,,,,,,,,,,,,,,,,AMSA11.jpg,AMNE02.jpg,AMNE05.jpg,AMSA14.jpg,AMSA14.jpg,MS,2,num_4,16,num_4,0.766746712658,,,2017_May_17_1348,59.993053578,FEMA4ImagesEEG,001,100476,
AFNE01.JPG,AFNE01.JPG,AFNE01.JPG,AFNE01.JPG,AFNE01.JPG,AFNE01.JPG,,,,,1,8,18,5,,,,,,,,,,,,,,,,,,,AMNE17.jpg,AMSA20.jpg,AMSA01.jpg,AMNE20.jpg,AMSA20.jpg,MS,2,num_6,16,num_6,0.750063105577,,,2017_May_17_1348,59.993053578,FEMA4ImagesEEG,001,100476,
AFNE01.JPG,AFNE01.JPG,AFNE01.JPG,AFNE01.JPG,AFNE01.JPG,AFNE01.JPG,,,,,1,9,19,7,,,,,,,,,,,,,,,,,,,AMNE06.jpg,AMSA15.jpg,AMSA08.jpg,AMNE10.jpg,AMSA08.jpg,MS,2,num_2,32,num_4,0.933433639393,,,2017_May_17_1348,59.993053578,FEMA4ImagesEEG,001,100476,
AFNE01.JPG,AFNE01.JPG,AFNE01.JPG,AFNE01.JPG,AFNE01.JPG,AFNE01.JPG,,,,,2,0,20,9,,,,,,,,,,,,,,,,,,,AMNE03.jpg,AMSA12.jpg,AMSA15.jpg,AMNE15.jpg,AMNE03.jpg,MN,1,num_8,16,num_8,1.01679875271,,,2017_May_17_1348,59.993053578,FEMA4ImagesEEG,001,100476,
AFNE01.JPG,AFNE01.JPG,AFNE01.JPG,AFNE01.JPG,AFNE01.JPG,AFNE01.JPG,,,,,2,1,21,7,,,,,,,,,,,,,,,,,,,AMSA17.jpg,AMNE09.jpg,AMNE19.jpg,AMSA02.jpg,AMSA17.jpg,MS,2,num_8,16,num_8,2.10000349607,,,2017_May_17_1348,59.993053578,FEMA4ImagesEEG,001,100476,
AFNE01.JPG,AFNE01.JPG,AFNE01.JPG,AFNE01.JPG,AFNE01.JPG,AFNE01.JPG,,,,,2,2,22,2,,,,,,,,,,,,,,,,,,,AMSA03.jpg,AMSA10.jpg,AMNE18.jpg,AMNE02.jpg,AMNE18.jpg,MN,1,num_2,32,num_6,0.983470989557,,,2017_May_17_1348,59.993053578,FEMA4ImagesEEG,001,100476,
AFNE01.JPG,AFNE01.JPG,AFNE01.JPG,AFNE01.JPG,AFNE01.JPG,AFNE01.JPG,,,,,2,3,23,8,,,,,,,,,,,,,,,,,,,AMNE01.jpg,AMSA14.jpg,AMNE07.jpg,AMSA04.jpg,AMSA04.jpg,MS,2,num_4,16,num_4,0.783489335879,,,2017_May_17_1348,59.993053578,FEMA4ImagesEEG,001,100476,
AFNE01.JPG,AFNE01.JPG,AFNE01.JPG,AFNE01.JPG,AFNE01.JPG,AFNE01.JPG,,,,,2,4,24,0,,,,,,,,,,,,,,,,,,,AMNE17.jpg,AMSA14.jpg,AMNE20.jpg,AMSA11.jpg,AMNE20.jpg,MN,1,num_2,32,num_8,0.816882529971,,,2017_May_17_1348,59.993053578,FEMA4ImagesEEG,001,100476,
AFNE01.JPG,AFNE01.JPG,AFNE01.JPG,AFNE01.JPG,AFNE01.JPG,AFNE01.JPG,,,,,2,5,25,4,,,,,,,,,,,,,,,,,,,AMSA13.jpg,AMSA05.jpg,AMNE09.jpg,AMNE03.jpg,AMNE09.jpg,MN,1,num_2,32,num_8,0.86710943742,,,2017_May_17_1348,59.993053578,FEMA4ImagesEEG,001,100476,
AFNE01.JPG,AFNE01.JPG,AFNE01.JPG,AFNE01.JPG,AFNE01.JPG,AFNE01.JPG,,,,,2,6,26,5,,,,,,,,,,,,,,,,,,,AMSA04.jpg,AMNE12.jpg,AMSA10.jpg,AMNE14.jpg,AMNE14.jpg,MN,1,num_4,32,num_6,1.48342977448,,,2017_May_17_1348,59.993053578,FEMA4ImagesEEG,001,100476,
AFNE01.JPG,AFNE01.JPG,AFNE01.JPG,AFNE01.JPG,AFNE01.JPG,AFNE01.JPG,,,,,2,7,27,6,,,,,,,,,,,,,,,,,,,AMNE11.jpg,AMSA07.jpg,AMSA02.jpg,AMNE20.jpg,AMNE11.jpg,MN,1,num_8,32,num_2,1.40002937977,,,2017_May_17_1348,59.993053578,FEMA4ImagesEEG,001,100476,
AFNE01.JPG,AFNE01.JPG,AFNE01.JPG,AFNE01.JPG,AFNE01.JPG,AFNE01.JPG,,,,,2,8,28,1,,,,,,,,,,,,,,,,,,,AMSA10.jpg,AMSA07.jpg,AMNE12.jpg,AMNE03.jpg,AMSA07.jpg,MS,2,num_6,16,num_6,0.666831740808,,,2017_May_17_1348,59.993053578,FEMA4ImagesEEG,001,100476,
AFNE01.JPG,AFNE01.JPG,AFNE01.JPG,AFNE01.JPG,AFNE01.JPG,AFNE01.JPG,,,,,2,9,29,3,,,,,,,,,,,,,,,,,,,AMNE12.jpg,AMSA10.jpg,AMNE03.jpg,AMSA17.jpg,AMSA10.jpg,MS,2,num_6,32,num_8,1.03349166124,,,2017_May_17_1348,59.993053578,FEMA4ImagesEEG,001,100476,
AFNE01.JPG,AFNE01.JPG,AFNE01.JPG,AFNE01.JPG,AFNE01.JPG,AFNE01.JPG,,,,,3,0,30,4,,,,,,,,,,,,,,,,,,,AMNE18.jpg,AMSA02.jpg,AMNE10.jpg,AMSA05.jpg,AMSA02.jpg,MS,2,num_6,16,num_6,0.883409760307,,,2017_May_17_1348,59.993053578,FEMA4ImagesEEG,001,100476,
AFNE01.JPG,AFNE01.JPG,AFNE01.JPG,AFNE01.JPG,AFNE01.JPG,AFNE01.JPG,,,,,3,1,31,7,,,,,,,,,,,,,,,,,,,AMNE05.jpg,AMSA09.jpg,AMSA16.jpg,AMNE14.jpg,AMSA16.jpg,MS,2,num_2,16,num_2,1.30012595456,,,2017_May_17_1348,59.993053578,FEMA4ImagesEEG,001,100476,
AFNE01.JPG,AFNE01.JPG,AFNE01.JPG,AFNE01.JPG,AFNE01.JPG,AFNE01.JPG,,,,,3,2,32,9,,,,,,,,,,,,,,,,,,,AMNE07.jpg,AMSA16.jpg,AMSA13.jpg,AMNE06.jpg,AMNE06.jpg,MN,1,num_4,16,num_4,0.98345591478,,,2017_May_17_1348,59.993053578,FEMA4ImagesEEG,001,100476,
AFNE01.JPG,AFNE01.JPG,AFNE01.JPG,AFNE01.JPG,AFNE01.JPG,AFNE01.JPG,,,,,3,3,33,8,,,,,,,,,,,,,,,,,,,AMNE02.jpg,AMNE05.jpg,AMSA14.jpg,AMSA01.jpg,AMSA01.jpg,MS,2,num_4,32,num_2,1.00008852422,,,2017_May_17_1348,59.993053578,FEMA4ImagesEEG,001,100476,
AFNE01.JPG,AFNE01.JPG,AFNE01.JPG,AFNE01.JPG,AFNE01.JPG,AFNE01.JPG,,,,,3,4,34,0,,,,,,,,,,,,,,,,,,,AMNE06.jpg,AMSA06.jpg,AMSA13.jpg,AMNE09.jpg,AMNE09.jpg,MN,1,num_4,16,num_4,0.983432500767,,,2017_May_17_1348,59.993053578,FEMA4ImagesEEG,001,100476,
AFNE01.JPG,AFNE01.JPG,AFNE01.JPG,AFNE01.JPG,AFNE01.JPG,AFNE01.JPG,,,,,3,5,35,1,,,,,,,,,,,,,,,,,,,AMSA12.jpg,AMNE11.jpg,AMNE05.jpg,AMSA19.jpg,AMNE05.jpg,MN,1,num_2,32,num_4,2.13333895697,,,2017_May_17_1348,59.993053578,FEMA4ImagesEEG,001,100476,
AFNE01.JPG,AFNE01.JPG,AFNE01.JPG,AFNE01.JPG,AFNE01.JPG,AFNE01.JPG,,,,,3,6,36,6,,,,,,,,,,,,,,,,,,,AMSA04.jpg,AMNE19.jpg,AMNE01.jpg,AMSA11.jpg,AMNE19.jpg,MN,1,num_6,16,num_6,1.01676732019,,,2017_May_17_1348,59.993053578,FEMA4ImagesEEG,001,100476,
AFNE01.JPG,AFNE01.JPG,AFNE01.JPG,AFNE01.JPG,AFNE01.JPG,AFNE01.JPG,,,,,3,7,37,5,,,,,,,,,,,,,,,,,,,AMNE17.jpg,AMSA14.jpg,AMNE20.jpg,AMSA01.jpg,AMSA01.jpg,MS,2,num_4,16,num_4,0.81678534578,,,2017_May_17_1348,59.993053578,FEMA4ImagesEEG,001,100476,
AFNE01.JPG,AFNE01.JPG,AFNE01.JPG,AFNE01.JPG,AFNE01.JPG,AFNE01.JPG,,,,,3,8,38,3,,,,,,,,,,,,,,,,,,,AMNE10.jpg,AMSA11.jpg,AMNE01.jpg,AMSA06.jpg,AMSA11.jpg,MS,2,num_6,32,num_2,0.933516711031,,,2017_May_17_1348,59.993053578,FEMA4ImagesEEG,001,100476,
AFNE01.JPG,AFNE01.JPG,AFNE01.JPG,AFNE01.JPG,AFNE01.JPG,AFNE01.JPG,,,,,3,9,39,2,,,,,,,,,,,,,,,,,,,AMNE15.jpg,AMSA07.jpg,AMNE20.jpg,AMSA13.jpg,AMNE15.jpg,MN,1,num_8,16,num_8,0.983433142248,,,2017_May_17_1348,59.993053578,FEMA4ImagesEEG,001,100476,
AFNE01.JPG,AFNE01.JPG,AFNE01.JPG,AFNE01.JPG,AFNE01.JPG,AFNE01.JPG,,,,,4,0,40,4,,,,,,,,,,,,,,,,,,,AMNE02.jpg,AMSA06.jpg,AMSA13.jpg,AMNE01.jpg,AMNE01.jpg,MN,1,num_4,32,num_8,1.0667953689,,,2017_May_17_1348,59.993053578,FEMA4ImagesEEG,001,100476,
AFNE01.JPG,AFNE01.JPG,AFNE01.JPG,AFNE01.JPG,AFNE01.JPG,AFNE01.JPG,,,,,4,1,41,3,,,,,,,,,,,,,,,,,,,AMSA04.jpg,AMSA12.jpg,AMNE04.jpg,AMNE11.jpg,AMNE11.jpg,MN,1,num_4,16,num_4,1.31671815077,,,2017_May_17_1348,59.993053578,FEMA4ImagesEEG,001,100476,
AFNE01.JPG,AFNE01.JPG,AFNE01.JPG,AFNE01.JPG,AFNE01.JPG,AFNE01.JPG,,,,,4,2,42,5,,,,,,,,,,,,,,,,,,,AMNE09.jpg,AMNE15.jpg,AMSA19.jpg,AMSA20.jpg,AMSA19.jpg,MS,2,num_2,32,num_4,1.23340114844,,,2017_May_17_1348,59.993053578,FEMA4ImagesEEG,001,100476,
AFNE01.JPG,AFNE01.JPG,AFNE01.JPG,AFNE01.JPG,AFNE01.JPG,AFNE01.JPG,,,,,4,3,43,9,,,,,,,,,,,,,,,,,,,AMNE06.jpg,AMSA18.jpg,AMNE03.jpg,AMSA08.jpg,AMSA18.jpg,MS,2,num_6,16,num_6,0.833453557343,,,2017_May_17_1348,59.993053578,FEMA4ImagesEEG,001,100476,
AFNE01.JPG,AFNE01.JPG,AFNE01.JPG,AFNE01.JPG,AFNE01.JPG,AFNE01.JPG,,,,,4,4,44,7,,,,,,,,,,,,,,,,,,,AMSA11.jpg,AMNE04.jpg,AMSA05.jpg,AMNE13.jpg,AMNE04.jpg,MN,1,num_6,16,num_6,0.816511754636,,,2017_May_17_1348,59.993053578,FEMA4ImagesEEG,001,100476,
AFNE01.JPG,AFNE01.JPG,AFNE01.JPG,AFNE01.JPG,AFNE01.JPG,AFNE01.JPG,,,,,4,5,45,8,,,,,,,,,,,,,,,,,,,AMNE02.jpg,AMSA03.jpg,AMNE04.jpg,AMSA11.jpg,AMNE04.jpg,MN,1,num_2,32,num_8,2.26668240431,,,2017_May_17_1348,59.993053578,FEMA4ImagesEEG,001,100476,
AFNE01.JPG,AFNE01.JPG,AFNE01.JPG,AFNE01.JPG,AFNE01.JPG,AFNE01.JPG,,,,,4,6,46,1,,,,,,,,,,,,,,,,,,,AMNE17.jpg,AMSA03.jpg,AMNE05.jpg,AMSA20.jpg,AMSA20.jpg,MS,2,num_4,32,num_8,1.21677302937,,,2017_May_17_1348,59.993053578,FEMA4ImagesEEG,001,100476,
AFNE01.JPG,AFNE01.JPG,AFNE01.JPG,AFNE01.JPG,AFNE01.JPG,AFNE01.JPG,,,,,4,7,47,6,,,,,,,,,,,,,,,,,,,AMNE09.jpg,AMSA11.jpg,AMSA01.jpg,AMNE19.jpg,AMNE09.jpg,MN,1,num_8,32,num_4,1.31672520705,,,2017_May_17_1348,59.993053578,FEMA4ImagesEEG,001,100476,
AFNE01.JPG,AFNE01.JPG,AFNE01.JPG,AFNE01.JPG,AFNE01.JPG,AFNE01.JPG,,,,,4,8,48,0,,,,,,,,,,,,,,,,,,,AMNE19.jpg,AMSA08.jpg,AMSA12.jpg,AMNE07.jpg,AMSA08.jpg,MS,2,num_6,32,num_4,1.28329609008,,,2017_May_17_1348,59.993053578,FEMA4ImagesEEG,001,100476,
AFNE01.JPG,AFNE01.JPG,AFNE01.JPG,AFNE01.JPG,AFNE01.JPG,AFNE01.JPG,,,,,4,9,49,2,,,,,,,,,,,,,,,,,,,AMSA08.jpg,AMSA04.jpg,AMNE20.jpg,AMNE12.jpg,AMSA04.jpg,MS,2,num_6,32,num_8,1.48326363121,,,2017_May_17_1348,59.993053578,FEMA4ImagesEEG,001,100476,
AFNE01.JPG,AFNE01.JPG,AFNE01.JPG,AFNE01.JPG,AFNE01.JPG,AFNE01.JPG,,,,,5,0,50,6,,,,,,,,,,,,,,,,,,,AMNE06.jpg,AMSA18.jpg,AMNE12.jpg,AMSA12.jpg,AMNE06.jpg,MN,1,num_8,16,num_8,1.3000772021,,,2017_May_17_1348,59.993053578,FEMA4ImagesEEG,001,100476,
AFNE01.JPG,AFNE01.JPG,AFNE01.JPG,AFNE01.JPG,AFNE01.JPG,AFNE01.JPG,,,,,5,1,51,2,,,,,,,,,,,,,,,,,,,AMSA07.jpg,AMSA13.jpg,AMNE19.jpg,AMNE06.jpg,AMNE06.jpg,MN,1,num_4,16,num_4,0.833440086266,,,2017_May_17_1348,59.993053578,FEMA4ImagesEEG,001,100476,
AFNE01.JPG,AFNE01.JPG,AFNE01.JPG,AFNE01.JPG,AFNE01.JPG,AFNE01.JPG,,,,,5,2,52,8,,,,,,,,,,,,,,,,,,,AMNE20.jpg,AMSA02.jpg,AMNE08.jpg,AMSA08.jpg,AMNE20.jpg,MN,1,num_8,16,num_8,0.800127077151,,,2017_May_17_1348,59.993053578,FEMA4ImagesEEG,001,100476,
AFNE01.JPG,AFNE01.JPG,AFNE01.JPG,AFNE01.JPG,AFNE01.JPG,AFNE01.JPG,,,,,5,3,53,9,,,,,,,,,,,,,,,,,,,AMNE02.jpg,AMNE06.jpg,AMSA19.jpg,AMSA14.jpg,AMNE06.jpg,MN,1,num_6,16,num_6,0.783497995857,,,2017_May_17_1348,59.993053578,FEMA4ImagesEEG,001,100476,
AFNE01.JPG,AFNE01.JPG,AFNE01.JPG,AFNE01.JPG,AFNE01.JPG,AFNE01.JPG,,,,,5,4,54,5,,,,,,,,,,,,,,,,,,,AMNE08.jpg,AMSA03.jpg,AMSA17.jpg,AMNE04.jpg,AMSA03.jpg,MS,2,num_6,32,num_4,0.950149320464,,,2017_May_17_1348,59.993053578,FEMA4ImagesEEG,001,100476,
AFNE01.JPG,AFNE01.JPG,AFNE01.JPG,AFNE01.JPG,AFNE01.JPG,AFNE01.JPG,,,,,5,5,55,1,,,,,,,,,,,,,,,,,,,AMSA04.jpg,AMSA05.jpg,AMNE08.jpg,AMNE16.jpg,AMSA04.jpg,MS,2,num_8,32,num_2,1.00010199529,,,2017_May_17_1348,59.993053578,FEMA4ImagesEEG,001,100476,
AFNE01.JPG,AFNE01.JPG,AFNE01.JPG,AFNE01.JPG,AFNE01.JPG,AFNE01.JPG,,,,,5,6,56,0,,,,,,,,,,,,,,,,,,,AMSA16.jpg,AMNE19.jpg,AMNE13.jpg,AMSA08.jpg,AMSA08.jpg,MS,2,num_4,32,num_2,1.01680741268,,,2017_May_17_1348,59.993053578,FEMA4ImagesEEG,001,100476,
AFNE01.JPG,AFNE01.JPG,AFNE01.JPG,AFNE01.JPG,AFNE01.JPG,AFNE01.JPG,,,,,5,7,57,4,,,,,,,,,,,,,,,,,,,AMNE09.jpg,AMNE06.jpg,AMSA11.jpg,AMSA16.jpg,AMNE09.jpg,MN,1,num_8,16,num_8,1.16677031911,,,2017_May_17_1348,59.993053578,FEMA4ImagesEEG,001,100476,
AFNE01.JPG,AFNE01.JPG,AFNE01.JPG,AFNE01.JPG,AFNE01.JPG,AFNE01.JPG,,,,,5,8,58,7,,,,,,,,,,,,,,,,,,,AMNE20.jpg,AMSA04.jpg,AMNE01.jpg,AMSA19.jpg,AMNE01.jpg,MN,1,num_2,16,num_2,0.816786307998,,,2017_May_17_1348,59.993053578,FEMA4ImagesEEG,001,100476,
AFNE01.JPG,AFNE01.JPG,AFNE01.JPG,AFNE01.JPG,AFNE01.JPG,AFNE01.JPG,,,,,5,9,59,3,,,,,,,,,,,,,,,,,,,AMSA20.jpg,AMNE12.jpg,AMSA11.jpg,AMNE20.jpg,AMNE12.jpg,MN,1,num_6,32,num_4,1.08362651634,,,2017_May_17_1348,59.993053578,FEMA4ImagesEEG,001,100476,
,,,,,,,,,,,,,,,,,,,,,,,,,,,,,,,,,,,,,,,,,,,space,22.1151116287,2017_May_17_1348,59.993053578,FEMA4ImagesEEG,001,100476,
AFNE01.JPG,AFNE01.JPG,AFNE01.JPG,AFNE01.JPG,AFNE01.JPG,AFNE01.JPG,,,,,,,,,0,0,0,9,,,,,,,,,,,,,,,AFSA20.jpg,AFNE18.jpg,AFNE14.jpg,AFSA04.jpg,AFNE14.jpg,FN,3,num_2,32,num_4,0.666767272083,,,2017_May_17_1348,59.993053578,FEMA4ImagesEEG,001,100476,
AFNE01.JPG,AFNE01.JPG,AFNE01.JPG,AFNE01.JPG,AFNE01.JPG,AFNE01.JPG,,,,,,,,,0,1,1,8,,,,,,,,,,,,,,,AFNE05.jpg,AFSA14.jpg,AFSA17.jpg,AFNE09.jpg,AFSA14.jpg,FS,4,num_6,32,num_2,1.3001503308,,,2017_May_17_1348,59.993053578,FEMA4ImagesEEG,001,100476,
AFNE01.JPG,AFNE01.JPG,AFNE01.JPG,AFNE01.JPG,AFNE01.JPG,AFNE01.JPG,,,,,,,,,0,2,2,1,,,,,,,,,,,,,,,AFSA06.jpg,AFNE04.jpg,AFSA11.jpg,AFNE16.jpg,AFNE04.jpg,FN,3,num_6,16,num_6,1.06677259637,,,2017_May_17_1348,59.993053578,FEMA4ImagesEEG,001,100476,
AFNE01.JPG,AFNE01.JPG,AFNE01.JPG,AFNE01.JPG,AFNE01.JPG,AFNE01.JPG,,,,,,,,,0,3,3,7,,,,,,,,,,,,,,,AFSA08.jpg,AFNE04.jpg,AFSA07.jpg,AFNE07.jpg,AFNE07.jpg,FN,3,num_4,16,num_4,0.716811037044,,,2017_May_17_1348,59.993053578,FEMA4ImagesEEG,001,100476,
AFNE01.JPG,AFNE01.JPG,AFNE01.JPG,AFNE01.JPG,AFNE01.JPG,AFNE01.JPG,,,,,,,,,0,4,4,6,,,,,,,,,,,,,,,AFSA12.jpg,AFNE05.jpg,AFNE17.jpg,AFSA02.jpg,AFNE05.jpg,FN,3,num_6,16,num_6,0.700106902612,,,2017_May_17_1348,59.993053578,FEMA4ImagesEEG,001,100476,
AFNE01.JPG,AFNE01.JPG,AFNE01.JPG,AFNE01.JPG,AFNE01.JPG,AFNE01.JPG,,,,,,,,,0,5,5,5,,,,,,,,,,,,,,,AFNE04.jpg,AFNE11.jpg,AFSA12.jpg,AFSA14.jpg,AFNE11.jpg,FN,3,num_6,16,num_6,0.716782811933,,,2017_May_17_1348,59.993053578,FEMA4ImagesEEG,001,100476,
AFNE01.JPG,AFNE01.JPG,AFNE01.JPG,AFNE01.JPG,AFNE01.JPG,AFNE01.JPG,,,,,,,,,0,6,6,3,,,,,,,,,,,,,,,AFSA09.jpg,AFNE01.jpg,AFSA10.jpg,AFNE11.jpg,AFNE01.jpg,FN,3,num_6,16,num_6,1.26675264634,,,2017_May_17_1348,59.993053578,FEMA4ImagesEEG,001,100476,
AFNE01.JPG,AFNE01.JPG,AFNE01.JPG,AFNE01.JPG,AFNE01.JPG,AFNE01.JPG,,,,,,,,,0,7,7,0,,,,,,,,,,,,,,,AFSA12.jpg,AFNE01.jpg,AFNE09.jpg,AFSA15.jpg,AFNE09.jpg,FN,3,num_2,32,num_6,0.900115498442,,,2017_May_17_1348,59.993053578,FEMA4ImagesEEG,001,100476,
AFNE01.JPG,AFNE01.JPG,AFNE01.JPG,AFNE01.JPG,AFNE01.JPG,AFNE01.JPG,,,,,,,,,0,8,8,4,,,,,,,,,,,,,,,AFNE02.jpg,AFSA12.jpg,AFSA06.jpg,AFNE07.jpg,AFNE02.jpg,FN,3,num_8,32,num_4,1.25006839779,,,2017_May_17_1348,59.993053578,FEMA4ImagesEEG,001,100476,
AFNE01.JPG,AFNE01.JPG,AFNE01.JPG,AFNE01.JPG,AFNE01.JPG,AFNE01.JPG,,,,,,,,,0,9,9,2,,,,,,,,,,,,,,,AFNE20.jpg,AFSA09.jpg,AFSA14.jpg,AFNE07.jpg,AFNE20.jpg,FN,3,num_8,32,num_4,0.933427545337,,,2017_May_17_1348,59.993053578,FEMA4ImagesEEG,001,100476,
AFNE01.JPG,AFNE01.JPG,AFNE01.JPG,AFNE01.JPG,AFNE01.JPG,AFNE01.JPG,,,,,,,,,1,0,10,2,,,,,,,,,,,,,,,AFSA01.jpg,AFSA04.jpg,AFNE06.jpg,AFNE09.jpg,AFSA01.jpg,FS,4,num_8,32,num_6,0.816769629522,,,2017_May_17_1348,59.993053578,FEMA4ImagesEEG,001,100476,
AFNE01.JPG,AFNE01.JPG,AFNE01.JPG,AFNE01.JPG,AFNE01.JPG,AFNE01.JPG,,,,,,,,,1,1,11,7,,,,,,,,,,,,,,,AFNE06.jpg,AFSA03.jpg,AFSA18.jpg,AFNE07.jpg,AFNE07.jpg,FN,3,num_4,16,num_4,1.06676586083,,,2017_May_17_1348,59.993053578,FEMA4ImagesEEG,001,100476,
AFNE01.JPG,AFNE01.JPG,AFNE01.JPG,AFNE01.JPG,AFNE01.JPG,AFNE01.JPG,,,,,,,,,1,2,12,1,,,,,,,,,,,,,,,AFNE15.jpg,AFSA03.jpg,AFSA20.jpg,AFNE10.jpg,AFSA20.jpg,FS,4,num_2,32,num_6,1.18314922328,,,2017_May_17_1348,59.993053578,FEMA4ImagesEEG,001,100476,
AFNE01.JPG,AFNE01.JPG,AFNE01.JPG,AFNE01.JPG,AFNE01.JPG,AFNE01.JPG,,,,,,,,,1,3,13,3,,,,,,,,,,,,,,,AFNE10.jpg,AFSA15.jpg,AFNE15.jpg,AFSA07.jpg,AFNE15.jpg,FN,3,num_2,32,num_8,1.90004621862,,,2017_May_17_1348,59.993053578,FEMA4ImagesEEG,001,100476,
AFNE01.JPG,AFNE01.JPG,AFNE01.JPG,AFNE01.JPG,AFNE01.JPG,AFNE01.JPG,,,,,,,,,1,4,14,4,,,,,,,,,,,,,,,AFNE18.jpg,AFNE11.jpg,AFSA10.jpg,AFSA04.jpg,AFSA10.jpg,FS,4,num_2,16,num_2,1.45004107075,,,2017_May_17_1348,59.993053578,FEMA4ImagesEEG,001,100476,
AFNE01.JPG,AFNE01.JPG,AFNE01.JPG,AFNE01.JPG,AFNE01.JPG,AFNE01.JPG,,,,,,,,,1,5,15,0,,,,,,,,,,,,,,,AFNE13.jpg,AFSA18.jpg,AFSA06.jpg,AFNE10.jpg,AFNE13.jpg,FN,3,num_8,16,num_8,1.11676408072,,,2017_May_17_1348,59.993053578,FEMA4ImagesEEG,001,100476,
AFNE01.JPG,AFNE01.JPG,AFNE01.JPG,AFNE01.JPG,AFNE01.JPG,AFNE01.JPG,,,,,,,,,1,6,16,6,,,,,,,,,,,,,,,AFNE12.jpg,AFNE19.jpg,AFSA06.jpg,AFSA18.jpg,AFNE12.jpg,FN,3,num_8,16,num_8,1.23345246683,,,2017_May_17_1348,59.993053578,FEMA4ImagesEEG,001,100476,
AFNE01.JPG,AFNE01.JPG,AFNE01.JPG,AFNE01.JPG,AFNE01.JPG,AFNE01.JPG,,,,,,,,,1,7,17,8,,,,,,,,,,,,,,,AFSA15.jpg,AFNE02.jpg,AFSA13.jpg,AFNE06.jpg,AFSA15.jpg,FS,4,num_8,16,num_8,0.833468952858,,,2017_May_17_1348,59.993053578,FEMA4ImagesEEG,001,100476,
AFNE01.JPG,AFNE01.JPG,AFNE01.JPG,AFNE01.JPG,AFNE01.JPG,AFNE01.JPG,,,,,,,,,1,8,18,5,,,,,,,,,,,,,,,AFNE10.jpg,AFNE19.jpg,AFSA18.jpg,AFSA07.jpg,AFNE19.jpg,FN,3,num_6,32,num_4,1.10010068026,,,2017_May_17_1348,59.993053578,FEMA4ImagesEEG,001,100476,
AFNE01.JPG,AFNE01.JPG,AFNE01.JPG,AFNE01.JPG,AFNE01.JPG,AFNE01.JPG,,,,,,,,,1,9,19,9,,,,,,,,,,,,,,,AFNE07.jpg,AFSA14.jpg,AFNE09.jpg,AFSA16.jpg,AFSA16.jpg,FS,4,num_4,16,num_4,1.19999287957,,,2017_May_17_1348,59.993053578,FEMA4ImagesEEG,001,100476,
AFNE01.JPG,AFNE01.JPG,AFNE01.JPG,AFNE01.JPG,AFNE01.JPG,AFNE01.JPG,,,,,,,,,2,0,20,9,,,,,,,,,,,,,,,AFSA03.jpg,AFSA20.jpg,AFNE15.jpg,AFNE17.jpg,AFSA03.jpg,FS,4,num_8,32,num_6,1.00015876626,,,2017_May_17_1348,59.993053578,FEMA4ImagesEEG,001,100476,
AFNE01.JPG,AFNE01.JPG,AFNE01.JPG,AFNE01.JPG,AFNE01.JPG,AFNE01.JPG,,,,,,,,,2,1,21,8,,,,,,,,,,,,,,,AFSA17.jpg,AFNE06.jpg,AFNE02.jpg,AFSA04.jpg,AFNE02.jpg,FN,3,num_2,32,num_8,1.03348075609,,,2017_May_17_1348,59.993053578,FEMA4ImagesEEG,001,100476,
AFNE01.JPG,AFNE01.JPG,AFNE01.JPG,AFNE01.JPG,AFNE01.JPG,AFNE01.JPG,,,,,,,,,2,2,22,7,,,,,,,,,,,,,,,AFSA16.jpg,AFNE13.jpg,AFNE17.jpg,AFSA07.jpg,AFSA07.jpg,FS,4,num_4,16,num_4,0.833463179541,,,2017_May_17_1348,59.993053578,FEMA4ImagesEEG,001,100476,
AFNE01.JPG,AFNE01.JPG,AFNE01.JPG,AFNE01.JPG,AFNE01.JPG,AFNE01.JPG,,,,,,,,,2,3,23,5,,,,,,,,,,,,,,,AFNE04.jpg,AFSA11.jpg,AFSA17.jpg,AFNE19.jpg,AFSA17.jpg,FS,4,num_2,32,num_6,1.90009048073,,,2017_May_17_1348,59.993053578,FEMA4ImagesEEG,001,100476,
AFNE01.JPG,AFNE01.JPG,AFNE01.JPG,AFNE01.JPG,AFNE01.JPG,AFNE01.JPG,,,,,,,,,2,4,24,2,,,,,,,,,,,,,,,AFSA09.jpg,AFNE20.jpg,AFNE15.jpg,AFSA07.jpg,AFSA07.jpg,FS,4,num_4,32,num_8,0.73346994715,,,2017_May_17_1348,59.993053578,FEMA4ImagesEEG,001,100476,
AFNE01.JPG,AFNE01.JPG,AFNE01.JPG,AFNE01.JPG,AFNE01.JPG,AFNE01.JPG,,,,,,,,,2,5,25,1,,,,,,,,,,,,,,,AFNE07.jpg,AFSA19.jpg,AFNE02.jpg,AFSA16.jpg,AFNE02.jpg,FN,3,num_2,32,num_8,1.73365565556,,,2017_May_17_1348,59.993053578,FEMA4ImagesEEG,001,100476,
AFNE01.JPG,AFNE01.JPG,AFNE01.JPG,AFNE01.JPG,AFNE01.JPG,AFNE01.JPG,,,,,,,,,2,6,26,3,,,,,,,,,,,,,,,AFNE06.jpg,AFSA18.jpg,AFSA08.jpg,AFNE17.jpg,AFSA18.jpg,FS,4,num_6,16,num_6,1.13344095226,,,2017_May_17_1348,59.993053578,FEMA4ImagesEEG,001,100476,
AFNE01.JPG,AFNE01.JPG,AFNE01.JPG,AFNE01.JPG,AFNE01.JPG,AFNE01.JPG,,,,,,,,,2,7,27,4,,,,,,,,,,,,,,,AFNE15.jpg,AFSA16.jpg,AFNE13.jpg,AFSA04.jpg,AFSA04.jpg,FS,4,num_4,16,num_4,0.666791327578,,,2017_May_17_1348,59.993053578,FEMA4ImagesEEG,001,100476,
AFNE01.JPG,AFNE01.JPG,AFNE01.JPG,AFNE01.JPG,AFNE01.JPG,AFNE01.JPG,,,,,,,,,2,8,28,0,,,,,,,,,,,,,,,AFSA20.jpg,AFNE03.jpg,AFSA08.jpg,AFNE17.jpg,AFSA08.jpg,FS,4,num_2,32,num_8,1.51672578438,,,2017_May_17_1348,59.993053578,FEMA4ImagesEEG,001,100476,
AFNE01.JPG,AFNE01.JPG,AFNE01.JPG,AFNE01.JPG,AFNE01.JPG,AFNE01.JPG,,,,,,,,,2,9,29,6,,,,,,,,,,,,,,,AFNE07.jpg,AFSA02.jpg,AFSA01.jpg,AFNE16.jpg,AFNE16.jpg,FN,3,num_4,16,num_4,0.933479505202,,,2017_May_17_1348,59.993053578,FEMA4ImagesEEG,001,100476,
AFNE01.JPG,AFNE01.JPG,AFNE01.JPG,AFNE01.JPG,AFNE01.JPG,AFNE01.JPG,,,,,,,,,3,0,30,3,,,,,,,,,,,,,,,AFNE11.jpg,AFSA09.jpg,AFSA10.jpg,AFNE05.jpg,AFNE11.jpg,FN,3,num_8,16,num_8,1.33327153745,,,2017_May_17_1348,59.993053578,FEMA4ImagesEEG,001,100476,
AFNE01.JPG,AFNE01.JPG,AFNE01.JPG,AFNE01.JPG,AFNE01.JPG,AFNE01.JPG,,,,,,,,,3,1,31,9,,,,,,,,,,,,,,,AFNE07.jpg,AFSA08.jpg,AFNE16.jpg,AFSA09.jpg,AFSA08.jpg,FS,4,num_6,32,num_4,1.28335157809,,,2017_May_17_1348,59.993053578,FEMA4ImagesEEG,001,100476,
AFNE01.JPG,AFNE01.JPG,AFNE01.JPG,AFNE01.JPG,AFNE01.JPG,AFNE01.JPG,,,,,,,,,3,2,32,8,,,,,,,,,,,,,,,AFSA16.jpg,AFNE10.jpg,AFNE17.jpg,AFSA20.jpg,AFSA16.jpg,FS,4,num_8,32,num_6,1.06665263964,,,2017_May_17_1348,59.993053578,FEMA4ImagesEEG,001,100476,
AFNE01.JPG,AFNE01.JPG,AFNE01.JPG,AFNE01.JPG,AFNE01.JPG,AFNE01.JPG,,,,,,,,,3,3,33,6,,,,,,,,,,,,,,,AFNE07.jpg,AFSA14.jpg,AFSA09.jpg,AFNE02.jpg,AFSA14.jpg,FS,4,num_6,16,num_6,1.41644356533,,,2017_May_17_1348,59.993053578,FEMA4ImagesEEG,001,100476,
AFNE01.JPG,AFNE01.JPG,AFNE01.JPG,AFNE01.JPG,AFNE01.JPG,AFNE01.JPG,,,,,,,,,3,4,34,0,,,,,,,,,,,,,,,AFSA18.jpg,AFSA03.jpg,AFNE18.jpg,AFNE11.jpg,AFNE11.jpg,FN,3,num_4,16,num_4,0.983446613323,,,2017_May_17_1348,59.993053578,FEMA4ImagesEEG,001,100476,
AFNE01.JPG,AFNE01.JPG,AFNE01.JPG,AFNE01.JPG,AFNE01.JPG,AFNE01.JPG,,,,,,,,,3,5,35,5,,,,,,,,,,,,,,,AFSA08.jpg,AFNE08.jpg,AFSA18.jpg,AFNE13.jpg,AFNE13.jpg,FN,3,num_4,32,num_8,2.25006390743,,,2017_May_17_1348,59.993053578,FEMA4ImagesEEG,001,100476,
AFNE01.JPG,AFNE01.JPG,AFNE01.JPG,AFNE01.JPG,AFNE01.JPG,AFNE01.JPG,,,,,,,,,3,6,36,4,,,,,,,,,,,,,,,AFNE15.jpg,AFNE09.jpg,AFSA18.jpg,AFSA10.jpg,AFNE09.jpg,FN,3,num_6,32,num_8,0.967039804786,,,2017_May_17_1348,59.993053578,FEMA4ImagesEEG,001,100476,
AFNE01.JPG,AFNE01.JPG,AFNE01.JPG,AFNE01.JPG,AFNE01.JPG,AFNE01.JPG,,,,,,,,,3,7,37,7,,,,,,,,,,,,,,,AFSA10.jpg,AFSA04.jpg,AFNE13.jpg,AFNE15.jpg,AFSA04.jpg,FS,4,num_6,16,num_6,0.76677237185,,,2017_May_17_1348,59.993053578,FEMA4ImagesEEG,001,100476,
AFNE01.JPG,AFNE01.JPG,AFNE01.JPG,AFNE01.JPG,AFNE01.JPG,AFNE01.JPG,,,,,,,,,3,8,38,2,,,,,,,,,,,,,,,AFSA08.jpg,AFSA02.jpg,AFNE11.jpg,AFNE07.jpg,AFSA08.jpg,FS,4,num_8,32,num_4,0.950143867885,,,2017_May_17_1348,59.993053578,FEMA4ImagesEEG,001,100476,
AFNE01.JPG,AFNE01.JPG,AFNE01.JPG,AFNE01.JPG,AFNE01.JPG,AFNE01.JPG,,,,,,,,,3,9,39,1,,,,,,,,,,,,,,,AFSA20.jpg,AFNE02.jpg,AFNE19.jpg,AFSA03.jpg,AFSA20.jpg,FS,4,num_8,32,num_4,0.883524264455,,,2017_May_17_1348,59.993053578,FEMA4ImagesEEG,001,100476,
AFNE01.JPG,AFNE01.JPG,AFNE01.JPG,AFNE01.JPG,AFNE01.JPG,AFNE01.JPG,,,,,,,,,4,0,40,8,,,,,,,,,,,,,,,AFSA04.jpg,AFNE06.jpg,AFNE12.jpg,AFSA15.jpg,AFSA04.jpg,FS,4,num_8,16,num_8,0.933326833005,,,2017_May_17_1348,59.993053578,FEMA4ImagesEEG,001,100476,
AFNE01.JPG,AFNE01.JPG,AFNE01.JPG,AFNE01.JPG,AFNE01.JPG,AFNE01.JPG,,,,,,,,,4,1,41,2,,,,,,,,,,,,,,,AFSA02.jpg,AFNE09.jpg,AFNE17.jpg,AFSA03.jpg,AFSA03.jpg,FS,4,num_4,16,num_4,0.933555841299,,,2017_May_17_1348,59.993053578,FEMA4ImagesEEG,001,100476,
AFNE01.JPG,AFNE01.JPG,AFNE01.JPG,AFNE01.JPG,AFNE01.JPG,AFNE01.JPG,,,,,,,,,4,2,42,1,,,,,,,,,,,,,,,AFNE18.jpg,AFNE14.jpg,AFSA14.jpg,AFSA04.jpg,AFNE14.jpg,FN,3,num_6,32,num_2,1.76674350526,,,2017_May_17_1348,59.993053578,FEMA4ImagesEEG,001,100476,
AFNE01.JPG,AFNE01.JPG,AFNE01.JPG,AFNE01.JPG,AFNE01.JPG,AFNE01.JPG,,,,,,,,,4,3,43,0,,,,,,,,,,,,,,,AFSA14.jpg,AFNE03.jpg,AFSA01.jpg,AFNE11.jpg,AFSA14.jpg,FS,4,num_8,16,num_8,0.900144685773,,,2017_May_17_1348,59.993053578,FEMA4ImagesEEG,001,100476,
AFNE01.JPG,AFNE01.JPG,AFNE01.JPG,AFNE01.JPG,AFNE01.JPG,AFNE01.JPG,,,,,,,,,4,4,44,6,,,,,,,,,,,,,,,AFSA12.jpg,AFNE16.jpg,AFNE01.jpg,AFSA01.jpg,AFNE01.jpg,FN,3,num_2,32,num_6,1.45004588184,,,2017_May_17_1348,59.993053578,FEMA4ImagesEEG,001,100476,
AFNE01.JPG,AFNE01.JPG,AFNE01.JPG,AFNE01.JPG,AFNE01.JPG,AFNE01.JPG,,,,,,,,,4,5,45,4,,,,,,,,,,,,,,,AFNE05.jpg,AFSA10.jpg,AFSA14.jpg,AFNE03.jpg,AFSA10.jpg,FS,4,num_6,16,num_6,1.20013496735,,,2017_May_17_1348,59.993053578,FEMA4ImagesEEG,001,100476,
AFNE01.JPG,AFNE01.JPG,AFNE01.JPG,AFNE01.JPG,AFNE01.JPG,AFNE01.JPG,,,,,,,,,4,6,46,7,,,,,,,,,,,,,,,AFSA11.jpg,AFSA10.jpg,AFNE14.jpg,AFNE06.jpg,AFSA10.jpg,FS,4,num_6,16,num_6,0.716823866642,,,2017_May_17_1348,59.993053578,FEMA4ImagesEEG,001,100476,
AFNE01.JPG,AFNE01.JPG,AFNE01.JPG,AFNE01.JPG,AFNE01.JPG,AFNE01.JPG,,,,,,,,,4,7,47,9,,,,,,,,,,,,,,,AFSA20.jpg,AFNE09.jpg,AFSA06.jpg,AFNE01.jpg,AFNE09.jpg,FN,3,num_6,32,num_4,1.30011537014,,,2017_May_17_1348,59.993053578,FEMA4ImagesEEG,001,100476,
AFNE01.JPG,AFNE01.JPG,AFNE01.JPG,AFNE01.JPG,AFNE01.JPG,AFNE01.JPG,,,,,,,,,4,8,48,3,,,,,,,,,,,,,,,AFSA01.jpg,AFSA10.jpg,AFNE20.jpg,AFNE09.jpg,AFSA01.jpg,FS,4,num_8,16,num_8,0.833470556558,,,2017_May_17_1348,59.993053578,FEMA4ImagesEEG,001,100476,
AFNE01.JPG,AFNE01.JPG,AFNE01.JPG,AFNE01.JPG,AFNE01.JPG,AFNE01.JPG,,,,,,,,,4,9,49,5,,,,,,,,,,,,,,,AFSA02.jpg,AFNE10.jpg,AFNE18.jpg,AFSA16.jpg,AFNE18.jpg,FN,3,num_2,32,num_6,0.950132962729,,,2017_May_17_1348,59.993053578,FEMA4ImagesEEG,001,100476,
AFNE01.JPG,AFNE01.JPG,AFNE01.JPG,AFNE01.JPG,AFNE01.JPG,AFNE01.JPG,,,,,,,,,5,0,50,3,,,,,,,,,,,,,,,AFSA19.jpg,AFNE06.jpg,AFNE03.jpg,AFSA14.jpg,AFSA14.jpg,FS,4,num_4,16,num_4,1.25007641628,,,2017_May_17_1348,59.993053578,FEMA4ImagesEEG,001,100476,
AFNE01.JPG,AFNE01.JPG,AFNE01.JPG,AFNE01.JPG,AFNE01.JPG,AFNE01.JPG,,,,,,,,,5,1,51,9,,,,,,,,,,,,,,,AFNE03.jpg,AFNE05.jpg,AFSA15.jpg,AFSA14.jpg,AFSA14.jpg,FS,4,num_4,16,num_4,0.700156296556,,,2017_May_17_1348,59.993053578,FEMA4ImagesEEG,001,100476,
AFNE01.JPG,AFNE01.JPG,AFNE01.JPG,AFNE01.JPG,AFNE01.JPG,AFNE01.JPG,,,,,,,,,5,2,52,5,,,,,,,,,,,,,,,AFSA10.jpg,AFNE13.jpg,AFSA09.jpg,AFNE01.jpg,AFSA10.jpg,FS,4,num_8,32,num_2,0.65013658709,,,2017_May_17_1348,59.993053578,FEMA4ImagesEEG,001,100476,
AFNE01.JPG,AFNE01.JPG,AFNE01.JPG,AFNE01.JPG,AFNE01.JPG,AFNE01.JPG,,,,,,,,,5,3,53,1,,,,,,,,,,,,,,,AFSA14.jpg,AFSA15.jpg,AFNE19.jpg,AFNE04.jpg,AFNE04.jpg,FN,3,num_4,16,num_4,0.950106341317,,,2017_May_17_1348,59.993053578,FEMA4ImagesEEG,001,100476,
AFNE01.JPG,AFNE01.JPG,AFNE01.JPG,AFNE01.JPG,AFNE01.JPG,AFNE01.JPG,,,,,,,,,5,4,54,8,,,,,,,,,,,,,,,AFSA03.jpg,AFNE10.jpg,AFNE09.jpg,AFSA12.jpg,AFSA03.jpg,FS,4,num_8,32,num_4,0.966795080236,,,2017_May_17_1348,59.993053578,FEMA4ImagesEEG,001,100476,
AFNE01.JPG,AFNE01.JPG,AFNE01.JPG,AFNE01.JPG,AFNE01.JPG,AFNE01.JPG,,,,,,,,,5,5,55,4,,,,,,,,,,,,,,,AFNE09.jpg,AFNE08.jpg,AFSA12.jpg,AFSA06.jpg,AFNE08.jpg,FN,3,num_6,32,num_4,1.80011585125,,,2017_May_17_1348,59.993053578,FEMA4ImagesEEG,001,100476,
AFNE01.JPG,AFNE01.JPG,AFNE01.JPG,AFNE01.JPG,AFNE01.JPG,AFNE01.JPG,,,,,,,,,5,6,56,6,,,,,,,,,,,,,,,AFNE14.jpg,AFSA18.jpg,AFNE05.jpg,AFSA04.jpg,AFNE14.jpg,FN,3,num_8,16,num_8,1.15005784544,,,2017_May_17_1348,59.993053578,FEMA4ImagesEEG,001,100476,
AFNE01.JPG,AFNE01.JPG,AFNE01.JPG,AFNE01.JPG,AFNE01.JPG,AFNE01.JPG,,,,,,,,,5,7,57,7,,,,,,,,,,,,,,,AFNE13.jpg,AFNE09.jpg,AFSA13.jpg,AFSA07.jpg,AFNE09.jpg,FN,3,num_6,32,num_8,0.866785169372,,,2017_May_17_1348,59.993053578,FEMA4ImagesEEG,001,100476,
AFNE01.JPG,AFNE01.JPG,AFNE01.JPG,AFNE01.JPG,AFNE01.JPG,AFNE01.JPG,,,,,,,,,5,8,58,2,,,,,,,,,,,,,,,AFNE03.jpg,AFSA20.jpg,AFNE08.jpg,AFSA19.jpg,AFSA19.jpg,FS,4,num_4,16,num_4,1.13341304789,,,2017_May_17_1348,59.993053578,FEMA4ImagesEEG,001,100476,
AFNE01.JPG,AFNE01.JPG,AFNE01.JPG,AFNE01.JPG,AFNE01.JPG,AFNE01.JPG,,,,,,,,,5,9,59,0,,,,,,,,,,,,,,,AFNE17.jpg,AFSA07.jpg,AFNE19.jpg,AFSA09.jpg,AFSA09.jpg,FS,4,num_4,16,num_4,0.683455690261,,,2017_May_17_1348,59.993053578,FEMA4ImagesEEG,001,100476,
,,,,,,,,,,,,,,,,,,,,,,,,,,,,,,,,,,,,,,,,,,,space,42.2466685548,2017_May_17_1348,59.993053578,FEMA4ImagesEEG,001,100476,
AFNE01.JPG,AFNE01.JPG,AFNE01.JPG,AFNE01.JPG,AFNE01.JPG,AFNE01.JPG,,,,,,,,,,,,,0,0,0,8,,,,,,,,,,,AMSA02.jpg,AMNE15.jpg,AMNE08.jpg,AMSA17.jpg,AMSA02.jpg,MS,2,num_8,16,num_8,1.01672049217,,,2017_May_17_1348,59.993053578,FEMA4ImagesEEG,001,100476,
AFNE01.JPG,AFNE01.JPG,AFNE01.JPG,AFNE01.JPG,AFNE01.JPG,AFNE01.JPG,,,,,,,,,,,,,0,1,1,7,,,,,,,,,,,AMSA08.jpg,AMNE12.jpg,AMNE17.jpg,AMSA04.jpg,AMNE17.jpg,MN,1,num_2,16,num_2,0.783426470856,,,2017_May_17_1348,59.993053578,FEMA4ImagesEEG,001,100476,
AFNE01.JPG,AFNE01.JPG,AFNE01.JPG,AFNE01.JPG,AFNE01.JPG,AFNE01.JPG,,,,,,,,,,,,,0,2,2,2,,,,,,,,,,,AMNE11.jpg,AMSA08.jpg,AMSA15.jpg,AMNE09.jpg,AMSA08.jpg,MS,2,num_6,16,num_6,0.866803772285,,,2017_May_17_1348,59.993053578,FEMA4ImagesEEG,001,100476,
AFNE01.JPG,AFNE01.JPG,AFNE01.JPG,AFNE01.JPG,AFNE01.JPG,AFNE01.JPG,,,,,,,,,,,,,0,3,3,6,,,,,,,,,,,AMNE07.jpg,AMSA12.jpg,AMNE03.jpg,AMSA13.jpg,AMSA12.jpg,MS,2,num_6,32,num_8,0.666741933632,,,2017_May_17_1348,59.993053578,FEMA4ImagesEEG,001,100476,
AFNE01.JPG,AFNE01.JPG,AFNE01.JPG,AFNE01.JPG,AFNE01.JPG,AFNE01.JPG,,,,,,,,,,,,,0,4,4,5,,,,,,,,,,,AMNE02.jpg,AMNE18.jpg,AMSA16.jpg,AMSA17.jpg,AMSA16.jpg,MS,2,num_2,16,num_2,0.650181811417,,,2017_May_17_1348,59.993053578,FEMA4ImagesEEG,001,100476,
AFNE01.JPG,AFNE01.JPG,AFNE01.JPG,AFNE01.JPG,AFNE01.JPG,AFNE01.JPG,,,,,,,,,,,,,0,5,5,4,,,,,,,,,,,AMNE13.jpg,AMNE05.jpg,AMSA19.jpg,AMSA09.jpg,AMSA19.jpg,MS,2,num_2,32,num_4,0.90011934732,,,2017_May_17_1348,59.993053578,FEMA4ImagesEEG,001,100476,
AFNE01.JPG,AFNE01.JPG,AFNE01.JPG,AFNE01.JPG,AFNE01.JPG,AFNE01.JPG,,,,,,,,,,,,,0,6,6,1,,,,,,,,,,,AMNE11.jpg,AMSA02.jpg,AMNE18.jpg,AMSA11.jpg,AMSA02.jpg,MS,2,num_6,16,num_6,0.766781994047,,,2017_May_17_1348,59.993053578,FEMA4ImagesEEG,001,100476,
AFNE01.JPG,AFNE01.JPG,AFNE01.JPG,AFNE01.JPG,AFNE01.JPG,AFNE01.JPG,,,,,,,,,,,,,0,7,7,9,,,,,,,,,,,AMSA07.jpg,AMNE19.jpg,AMNE16.jpg,AMSA09.jpg,AMNE16.jpg,MN,1,num_2,16,num_2,0.78341652792,,,2017_May_17_1348,59.993053578,FEMA4ImagesEEG,001,100476,
AFNE01.JPG,AFNE01.JPG,AFNE01.JPG,AFNE01.JPG,AFNE01.JPG,AFNE01.JPG,,,,,,,,,,,,,0,8,8,0,,,,,,,,,,,AMSA11.jpg,AMSA20.jpg,AMNE04.jpg,AMNE17.jpg,AMNE17.jpg,MN,1,num_4,32,num_8,1.40011469659,,,2017_May_17_1348,59.993053578,FEMA4ImagesEEG,001,100476,
AFNE01.JPG,AFNE01.JPG,AFNE01.JPG,AFNE01.JPG,AFNE01.JPG,AFNE01.JPG,,,,,,,,,,,,,0,9,9,3,,,,,,,,,,,AMNE13.jpg,AMSA19.jpg,AMNE10.jpg,AMSA08.jpg,AMNE13.jpg,MN,1,num_8,16,num_8,0.90009080147,,,2017_May_17_1348,59.993053578,FEMA4ImagesEEG,001,100476,
AFNE01.JPG,AFNE01.JPG,AFNE01.JPG,AFNE01.JPG,AFNE01.JPG,AFNE01.JPG,,,,,,,,,,,,,1,0,10,3,,,,,,,,,,,AMNE17.jpg,AMNE14.jpg,AMSA05.jpg,AMSA04.jpg,AMSA05.jpg,MS,2,num_2,32,num_4,0.850172125072,,,2017_May_17_1348,59.993053578,FEMA4ImagesEEG,001,100476,
AFNE01.JPG,AFNE01.JPG,AFNE01.JPG,AFNE01.JPG,AFNE01.JPG,AFNE01.JPG,,,,,,,,,,,,,1,1,11,0,,,,,,,,,,,AMNE15.jpg,AMSA16.jpg,AMNE01.jpg,AMSA13.jpg,AMNE15.jpg,MN,1,num_8,32,num_4,1.1834362855,,,2017_May_17_1348,59.993053578,FEMA4ImagesEEG,001,100476,
AFNE01.JPG,AFNE01.JPG,AFNE01.JPG,AFNE01.JPG,AFNE01.JPG,AFNE01.JPG,,,,,,,,,,,,,1,2,12,6,,,,,,,,,,,AMNE06.jpg,AMSA05.jpg,AMNE11.jpg,AMSA10.jpg,AMNE11.jpg,MN,1,num_2,32,num_6,1.00008820347,,,2017_May_17_1348,59.993053578,FEMA4ImagesEEG,001,100476,
AFNE01.JPG,AFNE01.JPG,AFNE01.JPG,AFNE01.JPG,AFNE01.JPG,AFNE01.JPG,,,,,,,,,,,,,1,3,13,2,,,,,,,,,,,AMNE14.jpg,AMNE04.jpg,AMSA15.jpg,AMSA05.jpg,AMSA15.jpg,MS,2,num_2,32,num_4,0.833505837947,,,2017_May_17_1348,59.993053578,FEMA4ImagesEEG,001,100476,
AFNE01.JPG,AFNE01.JPG,AFNE01.JPG,AFNE01.JPG,AFNE01.JPG,AFNE01.JPG,,,,,,,,,,,,,1,4,14,7,,,,,,,,,,,AMNE11.jpg,AMSA02.jpg,AMNE08.jpg,AMSA01.jpg,AMSA01.jpg,MS,2,num_4,16,num_4,0.716778000835,,,2017_May_17_1348,59.993053578,FEMA4ImagesEEG,001,100476,
AFNE01.JPG,AFNE01.JPG,AFNE01.JPG,AFNE01.JPG,AFNE01.JPG,AFNE01.JPG,,,,,,,,,,,,,1,5,15,8,,,,,,,,,,,AMSA04.jpg,AMNE14.jpg,AMSA08.jpg,AMNE13.jpg,AMSA08.jpg,MS,2,num_2,16,num_2,1.78342486716,,,2017_May_17_1348,59.993053578,FEMA4ImagesEEG,001,100476,
AFNE01.JPG,AFNE01.JPG,AFNE01.JPG,AFNE01.JPG,AFNE01.JPG,AFNE01.JPG,,,,,,,,,,,,,1,6,16,4,,,,,,,,,,,AMNE17.jpg,AMSA02.jpg,AMSA08.jpg,AMNE09.jpg,AMSA08.jpg,MS,2,num_2,16,num_2,1.41676462598,,,2017_May_17_1348,59.993053578,FEMA4ImagesEEG,001,100476,
AFNE01.JPG,AFNE01.JPG,AFNE01.JPG,AFNE01.JPG,AFNE01.JPG,AFNE01.JPG,,,,,,,,,,,,,1,7,17,5,,,,,,,,,,,AMSA19.jpg,AMSA05.jpg,AMNE04.jpg,AMNE06.jpg,AMNE04.jpg,MN,1,num_2,16,num_2,1.13333029699,,,2017_May_17_1348,59.993053578,FEMA4ImagesEEG,001,100476,
AFNE01.JPG,AFNE01.JPG,AFNE01.JPG,AFNE01.JPG,AFNE01.JPG,AFNE01.JPG,,,,,,,,,,,,,1,8,18,1,,,,,,,,,,,AMSA06.jpg,AMNE19.jpg,AMSA07.jpg,AMNE16.jpg,AMNE16.jpg,MN,1,num_4,16,num_4,0.883462040912,,,2017_May_17_1348,59.993053578,FEMA4ImagesEEG,001,100476,
AFNE01.JPG,AFNE01.JPG,AFNE01.JPG,AFNE01.JPG,AFNE01.JPG,AFNE01.JPG,,,,,,,,,,,,,1,9,19,9,,,,,,,,,,,AMSA05.jpg,AMSA03.jpg,AMNE14.jpg,AMNE18.jpg,AMNE14.jpg,MN,1,num_2,16,num_2,1.80005875955,,,2017_May_17_1348,59.993053578,FEMA4ImagesEEG,001,100476,
AFNE01.JPG,AFNE01.JPG,AFNE01.JPG,AFNE01.JPG,AFNE01.JPG,AFNE01.JPG,,,,,,,,,,,,,2,0,20,0,,,,,,,,,,,AMSA08.jpg,AMNE05.jpg,AMSA20.jpg,AMNE04.jpg,AMSA08.jpg,MS,2,num_8,32,num_4,1.20008846007,,,2017_May_17_1348,59.993053578,FEMA4ImagesEEG,001,100476,
AFNE01.JPG,AFNE01.JPG,AFNE01.JPG,AFNE01.JPG,AFNE01.JPG,AFNE01.JPG,,,,,,,,,,,,,2,1,21,3,,,,,,,,,,,AMNE07.jpg,AMNE10.jpg,AMSA16.jpg,AMSA03.jpg,AMSA03.jpg,MS,2,num_4,16,num_4,0.683490971653,,,2017_May_17_1348,59.993053578,FEMA4ImagesEEG,001,100476,
AFNE01.JPG,AFNE01.JPG,AFNE01.JPG,AFNE01.JPG,AFNE01.JPG,AFNE01.JPG,,,,,,,,,,,,,2,2,22,7,,,,,,,,,,,AMSA09.jpg,AMSA07.jpg,AMNE18.jpg,AMNE20.jpg,AMSA09.jpg,MS,2,num_8,16,num_8,1.01659989396,,,2017_May_17_1348,59.993053578,FEMA4ImagesEEG,001,100476,
AFNE01.JPG,AFNE01.JPG,AFNE01.JPG,AFNE01.JPG,AFNE01.JPG,AFNE01.JPG,,,,,,,,,,,,,2,3,23,4,,,,,,,,,,,AMSA09.jpg,AMNE05.jpg,AMSA04.jpg,AMNE16.jpg,AMNE16.jpg,MN,1,num_4,16,num_4,1.00014818184,,,2017_May_17_1348,59.993053578,FEMA4ImagesEEG,001,100476,
AFNE01.JPG,AFNE01.JPG,AFNE01.JPG,AFNE01.JPG,AFNE01.JPG,AFNE01.JPG,,,,,,,,,,,,,2,4,24,8,,,,,,,,,,,AMSA01.jpg,AMNE03.jpg,AMNE14.jpg,AMSA19.jpg,AMSA01.jpg,MS,2,num_8,32,num_4,1.28341989569,,,2017_May_17_1348,59.993053578,FEMA4ImagesEEG,001,100476,
AFNE01.JPG,AFNE01.JPG,AFNE01.JPG,AFNE01.JPG,AFNE01.JPG,AFNE01.JPG,,,,,,,,,,,,,2,5,25,6,,,,,,,,,,,AMNE04.jpg,AMNE08.jpg,AMSA08.jpg,AMSA05.jpg,AMSA08.jpg,MS,2,num_2,16,num_2,1.40003836049,,,2017_May_17_1348,59.993053578,FEMA4ImagesEEG,001,100476,
AFNE01.JPG,AFNE01.JPG,AFNE01.JPG,AFNE01.JPG,AFNE01.JPG,AFNE01.JPG,,,,,,,,,,,,,2,6,26,2,,,,,,,,,,,AMSA13.jpg,AMSA19.jpg,AMNE03.jpg,AMNE09.jpg,AMNE03.jpg,MN,1,num_2,32,num_6,1.1170492185,,,2017_May_17_1348,59.993053578,FEMA4ImagesEEG,001,100476,
AFNE01.JPG,AFNE01.JPG,AFNE01.JPG,AFNE01.JPG,AFNE01.JPG,AFNE01.JPG,,,,,,,,,,,,,2,7,27,9,,,,,,,,,,,AMNE15.jpg,AMSA12.jpg,AMNE01.jpg,AMSA18.jpg,AMNE15.jpg,MN,1,num_8,16,num_8,0.966761723284,,,2017_May_17_1348,59.993053578,FEMA4ImagesEEG,001,100476,
AFNE01.JPG,AFNE01.JPG,AFNE01.JPG,AFNE01.JPG,AFNE01.JPG,AFNE01.JPG,,,,,,,,,,,,,2,8,28,1,,,,,,,,,,,AMSA10.jpg,AMNE06.jpg,AMSA02.jpg,AMNE14.jpg,AMSA02.jpg,MS,2,num_2,32,num_4,1.18343660624,,,2017_May_17_1348,59.993053578,FEMA4ImagesEEG,001,100476,
AFNE01.JPG,AFNE01.JPG,AFNE01.JPG,AFNE01.JPG,AFNE01.JPG,AFNE01.JPG,,,,,,,,,,,,,2,9,29,5,,,,,,,,,,,AMSA19.jpg,AMSA14.jpg,AMNE12.jpg,AMNE06.jpg,AMSA14.jpg,MS,2,num_6,32,num_2,1.10012890537,,,2017_May_17_1348,59.993053578,FEMA4ImagesEEG,001,100476,
AFNE01.JPG,AFNE01.JPG,AFNE01.JPG,AFNE01.JPG,AFNE01.JPG,AFNE01.JPG,,,,,,,,,,,,,3,0,30,0,,,,,,,,,,,AMNE08.jpg,AMSA07.jpg,AMSA17.jpg,AMNE10.jpg,AMNE10.jpg,MN,1,num_4,32,num_8,1.30030043707,,,2017_May_17_1348,59.993053578,FEMA4ImagesEEG,001,100476,
AFNE01.JPG,AFNE01.JPG,AFNE01.JPG,AFNE01.JPG,AFNE01.JPG,AFNE01.JPG,,,,,,,,,,,,,3,1,31,7,,,,,,,,,,,AMNE11.jpg,AMSA16.jpg,AMNE10.jpg,AMSA13.jpg,AMSA16.jpg,MS,2,num_6,32,num_4,0.633461319247,,,2017_May_17_1348,59.993053578,FEMA4ImagesEEG,001,100476,
AFNE01.JPG,AFNE01.JPG,AFNE01.JPG,AFNE01.JPG,AFNE01.JPG,AFNE01.JPG,,,,,,,,,,,,,3,2,32,5,,,,,,,,,,,AMNE05.jpg,AMSA20.jpg,AMSA11.jpg,AMNE03.jpg,AMNE05.jpg,MN,1,num_8,16,num_8,1.16674145252,,,2017_May_17_1348,59.993053578,FEMA4ImagesEEG,001,100476,
AFNE01.JPG,AFNE01.JPG,AFNE01.JPG,AFNE01.JPG,AFNE01.JPG,AFNE01.JPG,,,,,,,,,,,,,3,3,33,1,,,,,,,,,,,AMNE07.jpg,AMSA10.jpg,AMSA11.jpg,AMNE08.jpg,AMNE08.jpg,MN,1,num_4,16,num_4,1.15010531495,,,2017_May_17_1348,59.993053578,FEMA4ImagesEEG,001,100476,
AFNE01.JPG,AFNE01.JPG,AFNE01.JPG,AFNE01.JPG,AFNE01.JPG,AFNE01.JPG,,,,,,,,,,,,,3,4,34,6,,,,,,,,,,,AMSA03.jpg,AMNE17.jpg,AMSA20.jpg,AMNE19.jpg,AMSA03.jpg,MS,2,num_8,16,num_8,0.916796860341,,,2017_May_17_1348,59.993053578,FEMA4ImagesEEG,001,100476,
AFNE01.JPG,AFNE01.JPG,AFNE01.JPG,AFNE01.JPG,AFNE01.JPG,AFNE01.JPG,,,,,,,,,,,,,3,5,35,3,,,,,,,,,,,AMSA09.jpg,AMNE08.jpg,AMSA06.jpg,AMNE13.jpg,AMSA06.jpg,MS,2,num_2,16,num_2,1.68342329553,,,2017_May_17_1348,59.993053578,FEMA4ImagesEEG,001,100476,
AFNE01.JPG,AFNE01.JPG,AFNE01.JPG,AFNE01.JPG,AFNE01.JPG,AFNE01.JPG,,,,,,,,,,,,,3,6,36,8,,,,,,,,,,,AMNE10.jpg,AMSA12.jpg,AMSA18.jpg,AMNE19.jpg,AMNE19.jpg,MN,1,num_4,16,num_4,1.0167448684,,,2017_May_17_1348,59.993053578,FEMA4ImagesEEG,001,100476,
AFNE01.JPG,AFNE01.JPG,AFNE01.JPG,AFNE01.JPG,AFNE01.JPG,AFNE01.JPG,,,,,,,,,,,,,3,7,37,2,,,,,,,,,,,AMNE20.jpg,AMNE02.jpg,AMSA08.jpg,AMSA18.jpg,AMSA08.jpg,MS,2,num_2,32,num_6,0.983457197741,,,2017_May_17_1348,59.993053578,FEMA4ImagesEEG,001,100476,
AFNE01.JPG,AFNE01.JPG,AFNE01.JPG,AFNE01.JPG,AFNE01.JPG,AFNE01.JPG,,,,,,,,,,,,,3,8,38,9,,,,,,,,,,,AMNE09.jpg,AMNE10.jpg,AMSA19.jpg,AMSA08.jpg,AMNE09.jpg,MN,1,num_8,16,num_8,1.16675203694,,,2017_May_17_1348,59.993053578,FEMA4ImagesEEG,001,100476,
AFNE01.JPG,AFNE01.JPG,AFNE01.JPG,AFNE01.JPG,AFNE01.JPG,AFNE01.JPG,,,,,,,,,,,,,3,9,39,4,,,,,,,,,,,AMSA08.jpg,AMSA11.jpg,AMNE11.jpg,AMNE16.jpg,AMSA11.jpg,MS,2,num_6,16,num_6,0.783460790028,,,2017_May_17_1348,59.993053578,FEMA4ImagesEEG,001,100476,
AFNE01.JPG,AFNE01.JPG,AFNE01.JPG,AFNE01.JPG,AFNE01.JPG,AFNE01.JPG,,,,,,,,,,,,,4,0,40,3,,,,,,,,,,,AMSA05.jpg,AMSA20.jpg,AMNE02.jpg,AMNE07.jpg,AMNE02.jpg,MN,1,num_2,16,num_2,0.999796009417,,,2017_May_17_1348,59.993053578,FEMA4ImagesEEG,001,100476,
AFNE01.JPG,AFNE01.JPG,AFNE01.JPG,AFNE01.JPG,AFNE01.JPG,AFNE01.JPG,,,,,,,,,,,,,4,1,41,4,,,,,,,,,,,AMNE04.jpg,AMSA01.jpg,AMSA19.jpg,AMNE08.jpg,AMNE08.jpg,MN,1,num_4,32,num_8,0.833435916647,,,2017_May_17_1348,59.993053578,FEMA4ImagesEEG,001,100476,
AFNE01.JPG,AFNE01.JPG,AFNE01.JPG,AFNE01.JPG,AFNE01.JPG,AFNE01.JPG,,,,,,,,,,,,,4,2,42,9,,,,,,,,,,,AMSA06.jpg,AMSA11.jpg,AMNE06.jpg,AMNE20.jpg,AMNE20.jpg,MN,1,num_4,16,num_4,1.18345168101,,,2017_May_17_1348,59.993053578,FEMA4ImagesEEG,001,100476,
AFNE01.JPG,AFNE01.JPG,AFNE01.JPG,AFNE01.JPG,AFNE01.JPG,AFNE01.JPG,,,,,,,,,,,,,4,3,43,6,,,,,,,,,,,AMNE17.jpg,AMSA17.jpg,AMNE08.jpg,AMSA06.jpg,AMSA17.jpg,MS,2,num_6,32,num_8,1.13343678265,,,2017_May_17_1348,59.993053578,FEMA4ImagesEEG,001,100476,
AFNE01.JPG,AFNE01.JPG,AFNE01.JPG,AFNE01.JPG,AFNE01.JPG,AFNE01.JPG,,,,,,,,,,,,,4,4,44,0,,,,,,,,,,,AMNE15.jpg,AMSA06.jpg,AMSA07.jpg,AMNE06.jpg,AMSA07.jpg,MS,2,num_2,32,num_6,1.40003707753,,,2017_May_17_1348,59.993053578,FEMA4ImagesEEG,001,100476,
AFNE01.JPG,AFNE01.JPG,AFNE01.JPG,AFNE01.JPG,AFNE01.JPG,AFNE01.JPG,,,,,,,,,,,,,4,5,45,5,,,,,,,,,,,AMNE19.jpg,AMNE20.jpg,AMSA03.jpg,AMSA13.jpg,AMSA03.jpg,MS,2,num_2,32,num_4,0.850135239982,,,2017_May_17_1348,59.993053578,FEMA4ImagesEEG,001,100476,
AFNE01.JPG,AFNE01.JPG,AFNE01.JPG,AFNE01.JPG,AFNE01.JPG,AFNE01.JPG,,,,,,,,,,,,,4,6,46,1,,,,,,,,,,,AMNE09.jpg,AMNE19.jpg,AMSA09.jpg,AMSA10.jpg,AMSA09.jpg,MS,2,num_2,32,num_4,0.86674892576,,,2017_May_17_1348,59.993053578,FEMA4ImagesEEG,001,100476,
AFNE01.JPG,AFNE01.JPG,AFNE01.JPG,AFNE01.JPG,AFNE01.JPG,AFNE01.JPG,,,,,,,,,,,,,4,7,47,8,,,,,,,,,,,AMSA19.jpg,AMSA06.jpg,AMNE14.jpg,AMNE12.jpg,AMSA19.jpg,MS,2,num_8,32,num_6,1.13339636942,,,2017_May_17_1348,59.993053578,FEMA4ImagesEEG,001,100476,
AFNE01.JPG,AFNE01.JPG,AFNE01.JPG,AFNE01.JPG,AFNE01.JPG,AFNE01.JPG,,,,,,,,,,,,,4,8,48,2,,,,,,,,,,,AMNE09.jpg,AMSA09.jpg,AMSA16.jpg,AMNE12.jpg,AMNE09.jpg,MN,1,num_8,16,num_8,1.28341476385,,,2017_May_17_1348,59.993053578,FEMA4ImagesEEG,001,100476,
AFNE01.JPG,AFNE01.JPG,AFNE01.JPG,AFNE01.JPG,AFNE01.JPG,AFNE01.JPG,,,,,,,,,,,,,4,9,49,7,,,,,,,,,,,AMNE14.jpg,AMSA13.jpg,AMSA09.jpg,AMNE04.jpg,AMSA09.jpg,MS,2,num_2,16,num_2,0.716779925275,,,2017_May_17_1348,59.993053578,FEMA4ImagesEEG,001,100476,
AFNE01.JPG,AFNE01.JPG,AFNE01.JPG,AFNE01.JPG,AFNE01.JPG,AFNE01.JPG,,,,,,,,,,,,,5,0,50,5,,,,,,,,,,,AMSA02.jpg,AMNE01.jpg,AMNE02.jpg,AMSA19.jpg,AMSA02.jpg,MS,2,num_8,32,num_6,0.95006239995,,,2017_May_17_1348,59.993053578,FEMA4ImagesEEG,001,100476,
AFNE01.JPG,AFNE01.JPG,AFNE01.JPG,AFNE01.JPG,AFNE01.JPG,AFNE01.JPG,,,,,,,,,,,,,5,1,51,8,,,,,,,,,,,AMSA08.jpg,AMNE16.jpg,AMNE12.jpg,AMSA03.jpg,AMSA03.jpg,MS,2,num_4,16,num_4,0.833210436491,,,2017_May_17_1348,59.993053578,FEMA4ImagesEEG,001,100476,
AFNE01.JPG,AFNE01.JPG,AFNE01.JPG,AFNE01.JPG,AFNE01.JPG,AFNE01.JPG,,,,,,,,,,,,,5,2,52,6,,,,,,,,,,,AMSA15.jpg,AMSA20.jpg,AMNE03.jpg,AMNE05.jpg,AMNE03.jpg,MN,1,num_2,32,num_6,0.933446789732,,,2017_May_17_1348,59.993053578,FEMA4ImagesEEG,001,100476,
AFNE01.JPG,AFNE01.JPG,AFNE01.JPG,AFNE01.JPG,AFNE01.JPG,AFNE01.JPG,,,,,,,,,,,,,5,3,53,4,,,,,,,,,,,AMNE07.jpg,AMSA02.jpg,AMSA19.jpg,AMNE03.jpg,AMSA19.jpg,MS,2,num_2,32,num_4,0.933425941636,,,2017_May_17_1348,59.993053578,FEMA4ImagesEEG,001,100476,
AFNE01.JPG,AFNE01.JPG,AFNE01.JPG,AFNE01.JPG,AFNE01.JPG,AFNE01.JPG,,,,,,,,,,,,,5,4,54,9,,,,,,,,,,,AMNE20.jpg,AMNE16.jpg,AMSA10.jpg,AMSA16.jpg,AMNE20.jpg,MN,1,num_8,32,num_2,1.33341170079,,,2017_May_17_1348,59.993053578,FEMA4ImagesEEG,001,100476,
AFNE01.JPG,AFNE01.JPG,AFNE01.JPG,AFNE01.JPG,AFNE01.JPG,AFNE01.JPG,,,,,,,,,,,,,5,5,55,0,,,,,,,,,,,AMNE03.jpg,AMSA14.jpg,AMSA20.jpg,AMNE14.jpg,AMSA14.jpg,MS,2,num_6,32,num_2,0.933459940066,,,2017_May_17_1348,59.993053578,FEMA4ImagesEEG,001,100476,
AFNE01.JPG,AFNE01.JPG,AFNE01.JPG,AFNE01.JPG,AFNE01.JPG,AFNE01.JPG,,,,,,,,,,,,,5,6,56,2,,,,,,,,,,,AMNE16.jpg,AMNE17.jpg,AMSA02.jpg,AMSA11.jpg,AMNE16.jpg,MN,1,num_8,32,num_6,0.799993007869,,,2017_May_17_1348,59.993053578,FEMA4ImagesEEG,001,100476,
AFNE01.JPG,AFNE01.JPG,AFNE01.JPG,AFNE01.JPG,AFNE01.JPG,AFNE01.JPG,,,,,,,,,,,,,5,7,57,3,,,,,,,,,,,AMNE09.jpg,AMSA17.jpg,AMNE07.jpg,AMSA11.jpg,AMNE07.jpg,MN,1,num_2,32,num_8,1.00018121805,,,2017_May_17_1348,59.993053578,FEMA4ImagesEEG,001,100476,
AFNE01.JPG,AFNE01.JPG,AFNE01.JPG,AFNE01.JPG,AFNE01.JPG,AFNE01.JPG,,,,,,,,,,,,,5,8,58,7,,,,,,,,,,,AMSA18.jpg,AMNE02.jpg,AMNE15.jpg,AMSA04.jpg,AMNE02.jpg,MN,1,num_6,32,num_4,1.03348203905,,,2017_May_17_1348,59.993053578,FEMA4ImagesEEG,001,100476,
AFNE01.JPG,AFNE01.JPG,AFNE01.JPG,AFNE01.JPG,AFNE01.JPG,AFNE01.JPG,,,,,,,,,,,,,5,9,59,1,,,,,,,,,,,AMSA15.jpg,AMNE15.jpg,AMNE10.jpg,AMSA13.jpg,AMSA13.jpg,MS,2,num_4,32,num_8,1.13348553511,,,2017_May_17_1348,59.993053578,FEMA4ImagesEEG,001,100476,
,,,,,,,,,,,,,,,,,,,,,,,,,,,,,,,,,,,,,,,,,,,space,90.9598555516,2017_May_17_1348,59.993053578,FEMA4ImagesEEG,001,100476,
AFNE01.JPG,AFNE01.JPG,AFNE01.JPG,AFNE01.JPG,AFNE01.JPG,AFNE01.JPG,,,,,,,,,,,,,,,,,0,0,0,4,,,,,,,AFNE13.jpg,AFSA15.jpg,AFNE02.jpg,AFSA03.jpg,AFNE02.jpg,FN,3,num_2,32,num_6,0.733466419013,,,2017_May_17_1348,59.993053578,FEMA4ImagesEEG,001,100476,
AFNE01.JPG,AFNE01.JPG,AFNE01.JPG,AFNE01.JPG,AFNE01.JPG,AFNE01.JPG,,,,,,,,,,,,,,,,,0,1,1,3,,,,,,,AFNE09.jpg,AFNE03.jpg,AFSA04.jpg,AFSA08.jpg,AFSA04.jpg,FS,4,num_2,32,num_8,0.783436413794,,,2017_May_17_1348,59.993053578,FEMA4ImagesEEG,001,100476,
AFNE01.JPG,AFNE01.JPG,AFNE01.JPG,AFNE01.JPG,AFNE01.JPG,AFNE01.JPG,,,,,,,,,,,,,,,,,0,2,2,5,,,,,,,AFSA19.jpg,AFNE10.jpg,AFSA08.jpg,AFNE16.jpg,AFSA08.jpg,FS,4,num_2,32,num_4,0.750146497952,,,2017_May_17_1348,59.993053578,FEMA4ImagesEEG,001,100476,
AFNE01.JPG,AFNE01.JPG,AFNE01.JPG,AFNE01.JPG,AFNE01.JPG,AFNE01.JPG,,,,,,,,,,,,,,,,,0,3,3,0,,,,,,,AFSA17.jpg,AFSA06.jpg,AFNE16.jpg,AFNE05.jpg,AFNE16.jpg,FN,3,num_2,16,num_2,0.866653345269,,,2017_May_17_1348,59.993053578,FEMA4ImagesEEG,001,100476,
AFNE01.JPG,AFNE01.JPG,AFNE01.JPG,AFNE01.JPG,AFNE01.JPG,AFNE01.JPG,,,,,,,,,,,,,,,,,0,4,4,2,,,,,,,AFSA06.jpg,AFNE09.jpg,AFNE20.jpg,AFSA08.jpg,AFSA06.jpg,FS,4,num_8,32,num_4,0.516847986282,,,2017_May_17_1348,59.993053578,FEMA4ImagesEEG,001,100476,
AFNE01.JPG,AFNE01.JPG,AFNE01.JPG,AFNE01.JPG,AFNE01.JPG,AFNE01.JPG,,,,,,,,,,,,,,,,,0,5,5,9,,,,,,,AFNE12.jpg,AFSA13.jpg,AFNE16.jpg,AFSA12.jpg,AFSA13.jpg,FS,4,num_6,32,num_4,0.550132128807,,,2017_May_17_1348,59.993053578,FEMA4ImagesEEG,001,100476,
AFNE01.JPG,AFNE01.JPG,AFNE01.JPG,AFNE01.JPG,AFNE01.JPG,AFNE01.JPG,,,,,,,,,,,,,,,,,0,6,6,8,,,,,,,AFSA09.jpg,AFNE08.jpg,AFSA08.jpg,AFNE14.jpg,AFSA08.jpg,FS,4,num_2,32,num_8,0.516881343234,,,2017_May_17_1348,59.993053578,FEMA4ImagesEEG,001,100476,
AFNE01.JPG,AFNE01.JPG,AFNE01.JPG,AFNE01.JPG,AFNE01.JPG,AFNE01.JPG,,,,,,,,,,,,,,,,,0,7,7,1,,,,,,,AFNE03.jpg,AFSA11.jpg,AFNE15.jpg,AFSA10.jpg,AFSA11.jpg,FS,4,num_6,16,num_6,0.416821396944,,,2017_May_17_1348,59.993053578,FEMA4ImagesEEG,001,100476,
AFNE01.JPG,AFNE01.JPG,AFNE01.JPG,AFNE01.JPG,AFNE01.JPG,AFNE01.JPG,,,,,,,,,,,,,,,,,0,8,8,6,,,,,,,AFSA08.jpg,AFNE13.jpg,AFSA18.jpg,AFNE15.jpg,AFNE15.jpg,FN,3,num_4,16,num_4,0.850099317113,,,2017_May_17_1348,59.993053578,FEMA4ImagesEEG,001,100476,
AFNE01.JPG,AFNE01.JPG,AFNE01.JPG,AFNE01.JPG,AFNE01.JPG,AFNE01.JPG,,,,,,,,,,,,,,,,,0,9,9,7,,,,,,,AFSA02.jpg,AFSA13.jpg,AFNE15.jpg,AFNE10.jpg,AFSA13.jpg,FS,4,num_6,16,num_6,0.999995830382,,,2017_May_17_1348,59.993053578,FEMA4ImagesEEG,001,100476,
AFNE01.JPG,AFNE01.JPG,AFNE01.JPG,AFNE01.JPG,AFNE01.JPG,AFNE01.JPG,,,,,,,,,,,,,,,,,1,0,10,8,,,,,,,AFNE17.jpg,AFSA16.jpg,AFSA10.jpg,AFNE05.jpg,AFSA10.jpg,FS,4,num_2,16,num_2,1.08332053047,,,2017_May_17_1348,59.993053578,FEMA4ImagesEEG,001,100476,
AFNE01.JPG,AFNE01.JPG,AFNE01.JPG,AFNE01.JPG,AFNE01.JPG,AFNE01.JPG,,,,,,,,,,,,,,,,,1,1,11,2,,,,,,,AFSA09.jpg,AFSA08.jpg,AFNE15.jpg,AFNE10.jpg,AFSA09.jpg,FS,4,num_8,32,num_6,0.716800131888,,,2017_May_17_1348,59.993053578,FEMA4ImagesEEG,001,100476,
AFNE01.JPG,AFNE01.JPG,AFNE01.JPG,AFNE01.JPG,AFNE01.JPG,AFNE01.JPG,,,,,,,,,,,,,,,,,1,2,12,4,,,,,,,AFSA01.jpg,AFSA15.jpg,AFNE09.jpg,AFNE02.jpg,AFNE09.jpg,FN,3,num_2,16,num_2,0.550142071743,,,2017_May_17_1348,59.993053578,FEMA4ImagesEEG,001,100476,
AFNE01.JPG,AFNE01.JPG,AFNE01.JPG,AFNE01.JPG,AFNE01.JPG,AFNE01.JPG,,,,,,,,,,,,,,,,,1,3,13,3,,,,,,,AFSA03.jpg,AFNE10.jpg,AFSA16.jpg,AFNE19.jpg,AFSA16.jpg,FS,4,num_2,32,num_4,0.883494435644,,,2017_May_17_1348,59.993053578,FEMA4ImagesEEG,001,100476,
AFNE01.JPG,AFNE01.JPG,AFNE01.JPG,AFNE01.JPG,AFNE01.JPG,AFNE01.JPG,,,,,,,,,,,,,,,,,1,4,14,0,,,,,,,AFNE11.jpg,AFNE17.jpg,AFSA05.jpg,AFSA20.jpg,AFNE11.jpg,FN,3,num_8,16,num_8,1.08344016645,,,2017_May_17_1348,59.993053578,FEMA4ImagesEEG,001,100476,
AFNE01.JPG,AFNE01.JPG,AFNE01.JPG,AFNE01.JPG,AFNE01.JPG,AFNE01.JPG,,,,,,,,,,,,,,,,,1,5,15,7,,,,,,,AFNE11.jpg,AFSA01.jpg,AFSA15.jpg,AFNE04.jpg,AFSA15.jpg,FS,4,num_2,16,num_2,0.783470091485,,,2017_May_17_1348,59.993053578,FEMA4ImagesEEG,001,100476,
AFNE01.JPG,AFNE01.JPG,AFNE01.JPG,AFNE01.JPG,AFNE01.JPG,AFNE01.JPG,,,,,,,,,,,,,,,,,1,6,16,6,,,,,,,AFNE19.jpg,AFNE16.jpg,AFSA17.jpg,AFSA18.jpg,AFNE19.jpg,FN,3,num_8,32,num_6,0.83315077887,,,2017_May_17_1348,59.993053578,FEMA4ImagesEEG,001,100476,
AFNE01.JPG,AFNE01.JPG,AFNE01.JPG,AFNE01.JPG,AFNE01.JPG,AFNE01.JPG,,,,,,,,,,,,,,,,,1,7,17,9,,,,,,,AFSA11.jpg,AFNE09.jpg,AFNE17.jpg,AFSA06.jpg,AFSA06.jpg,FS,4,num_4,16,num_4,0.566774681176,,,2017_May_17_1348,59.993053578,FEMA4ImagesEEG,001,100476,
AFNE01.JPG,AFNE01.JPG,AFNE01.JPG,AFNE01.JPG,AFNE01.JPG,AFNE01.JPG,,,,,,,,,,,,,,,,,1,8,18,1,,,,,,,AFSA04.jpg,AFNE10.jpg,AFNE01.jpg,AFSA17.jpg,AFNE01.jpg,FN,3,num_2,32,num_8,0.850156729555,,,2017_May_17_1348,59.993053578,FEMA4ImagesEEG,001,100476,
AFNE01.JPG,AFNE01.JPG,AFNE01.JPG,AFNE01.JPG,AFNE01.JPG,AFNE01.JPG,,,,,,,,,,,,,,,,,1,9,19,5,,,,,,,AFSA07.jpg,AFSA03.jpg,AFNE18.jpg,AFNE19.jpg,AFSA03.jpg,FS,4,num_6,32,num_4,1.4000938485,,,2017_May_17_1348,59.993053578,FEMA4ImagesEEG,001,100476,
AFNE01.JPG,AFNE01.JPG,AFNE01.JPG,AFNE01.JPG,AFNE01.JPG,AFNE01.JPG,,,,,,,,,,,,,,,,,2,0,20,1,,,,,,,AFSA11.jpg,AFSA16.jpg,AFNE08.jpg,AFNE18.jpg,AFNE18.jpg,FN,3,num_4,16,num_4,0.850131070363,,,2017_May_17_1348,59.993053578,FEMA4ImagesEEG,001,100476,
AFNE01.JPG,AFNE01.JPG,AFNE01.JPG,AFNE01.JPG,AFNE01.JPG,AFNE01.JPG,,,,,,,,,,,,,,,,,2,1,21,6,,,,,,,AFNE09.jpg,AFSA14.jpg,AFNE02.jpg,AFSA03.jpg,AFSA14.jpg,FS,4,num_6,32,num_4,1.11672078084,,,2017_May_17_1348,59.993053578,FEMA4ImagesEEG,001,100476,
AFNE01.JPG,AFNE01.JPG,AFNE01.JPG,AFNE01.JPG,AFNE01.JPG,AFNE01.JPG,,,,,,,,,,,,,,,,,2,2,22,5,,,,,,,AFSA18.jpg,AFNE06.jpg,AFNE15.jpg,AFSA11.jpg,AFSA11.jpg,FS,4,num_4,32,num_8,1.06675399345,,,2017_May_17_1348,59.993053578,FEMA4ImagesEEG,001,100476,
AFNE01.JPG,AFNE01.JPG,AFNE01.JPG,AFNE01.JPG,AFNE01.JPG,AFNE01.JPG,,,,,,,,,,,,,,,,,2,3,23,0,,,,,,,AFNE07.jpg,AFNE19.jpg,AFSA04.jpg,AFSA06.jpg,AFNE19.jpg,FN,3,num_6,16,num_6,0.666838797084,,,2017_May_17_1348,59.993053578,FEMA4ImagesEEG,001,100476,
AFNE01.JPG,AFNE01.JPG,AFNE01.JPG,AFNE01.JPG,AFNE01.JPG,AFNE01.JPG,,,,,,,,,,,,,,,,,2,4,24,2,,,,,,,AFSA17.jpg,AFNE17.jpg,AFSA05.jpg,AFNE03.jpg,AFSA05.jpg,FS,4,num_2,16,num_2,1.00014240852,,,2017_May_17_1348,59.993053578,FEMA4ImagesEEG,001,100476,
AFNE01.JPG,AFNE01.JPG,AFNE01.JPG,AFNE01.JPG,AFNE01.JPG,AFNE01.JPG,,,,,,,,,,,,,,,,,2,5,25,9,,,,,,,AFSA16.jpg,AFNE08.jpg,AFSA03.jpg,AFNE14.jpg,AFNE08.jpg,FN,3,num_6,32,num_4,1.2001064215,,,2017_May_17_1348,59.993053578,FEMA4ImagesEEG,001,100476,
AFNE01.JPG,AFNE01.JPG,AFNE01.JPG,AFNE01.JPG,AFNE01.JPG,AFNE01.JPG,,,,,,,,,,,,,,,,,2,6,26,7,,,,,,,AFSA04.jpg,AFNE03.jpg,AFNE10.jpg,AFSA19.jpg,AFNE03.jpg,FN,3,num_6,32,num_4,0.933404131321,,,2017_May_17_1348,59.993053578,FEMA4ImagesEEG,001,100476,
AFNE01.JPG,AFNE01.JPG,AFNE01.JPG,AFNE01.JPG,AFNE01.JPG,AFNE01.JPG,,,,,,,,,,,,,,,,,2,7,27,8,,,,,,,AFSA11.jpg,AFNE06.jpg,AFNE07.jpg,AFSA06.jpg,AFSA06.jpg,FS,4,num_4,32,num_8,1.33310892231,,,2017_May_17_1348,59.993053578,FEMA4ImagesEEG,001,100476,
AFNE01.JPG,AFNE01.JPG,AFNE01.JPG,AFNE01.JPG,AFNE01.JPG,AFNE01.JPG,,,,,,,,,,,,,,,,,2,8,28,3,,,,,,,AFNE02.jpg,AFSA18.jpg,AFSA01.jpg,AFNE13.jpg,AFSA18.jpg,FS,4,num_6,16,num_6,0.56683177288,,,2017_May_17_1348,59.993053578,FEMA4ImagesEEG,001,100476,
AFNE01.JPG,AFNE01.JPG,AFNE01.JPG,AFNE01.JPG,AFNE01.JPG,AFNE01.JPG,,,,,,,,,,,,,,,,,2,9,29,4,,,,,,,AFSA10.jpg,AFSA11.jpg,AFNE14.jpg,AFNE15.jpg,AFSA11.jpg,FS,4,num_6,16,num_6,1.0334470784,,,2017_May_17_1348,59.993053578,FEMA4ImagesEEG,001,100476,
AFNE01.JPG,AFNE01.JPG,AFNE01.JPG,AFNE01.JPG,AFNE01.JPG,AFNE01.JPG,,,,,,,,,,,,,,,,,3,0,30,1,,,,,,,AFSA12.jpg,AFSA19.jpg,AFNE04.jpg,AFNE01.jpg,AFNE04.jpg,FN,3,num_2,32,num_8,0.816760969545,,,2017_May_17_1348,59.993053578,FEMA4ImagesEEG,001,100476,
AFNE01.JPG,AFNE01.JPG,AFNE01.JPG,AFNE01.JPG,AFNE01.JPG,AFNE01.JPG,,,,,,,,,,,,,,,,,3,1,31,7,,,,,,,AFNE11.jpg,AFNE10.jpg,AFSA08.jpg,AFSA13.jpg,AFSA08.jpg,FS,4,num_2,32,num_8,1.16672284961,,,2017_May_17_1348,59.993053578,FEMA4ImagesEEG,001,100476,
AFNE01.JPG,AFNE01.JPG,AFNE01.JPG,AFNE01.JPG,AFNE01.JPG,AFNE01.JPG,,,,,,,,,,,,,,,,,3,2,32,9,,,,,,,AFNE16.jpg,AFSA11.jpg,AFNE03.jpg,AFSA04.jpg,AFSA11.jpg,FS,4,num_6,16,num_6,0.783486128481,,,2017_May_17_1348,59.993053578,FEMA4ImagesEEG,001,100476,
AFNE01.JPG,AFNE01.JPG,AFNE01.JPG,AFNE01.JPG,AFNE01.JPG,AFNE01.JPG,,,,,,,,,,,,,,,,,3,3,33,4,,,,,,,AFNE18.jpg,AFNE14.jpg,AFSA15.jpg,AFSA18.jpg,AFSA15.jpg,FS,4,num_2,32,num_8,0.783513712113,,,2017_May_17_1348,59.993053578,FEMA4ImagesEEG,001,100476,
AFNE01.JPG,AFNE01.JPG,AFNE01.JPG,AFNE01.JPG,AFNE01.JPG,AFNE01.JPG,,,,,,,,,,,,,,,,,3,4,34,5,,,,,,,AFSA10.jpg,AFSA07.jpg,AFNE14.jpg,AFNE19.jpg,AFNE14.jpg,FN,3,num_2,32,num_8,1.00010520269,,,2017_May_17_1348,59.993053578,FEMA4ImagesEEG,001,100476,
AFNE01.JPG,AFNE01.JPG,AFNE01.JPG,AFNE01.JPG,AFNE01.JPG,AFNE01.JPG,,,,,,,,,,,,,,,,,3,5,35,3,,,,,,,AFSA13.jpg,AFNE13.jpg,AFNE16.jpg,AFSA11.jpg,AFNE13.jpg,FN,3,num_6,16,num_6,1.01677694239,,,2017_May_17_1348,59.993053578,FEMA4ImagesEEG,001,100476,
AFNE01.JPG,AFNE01.JPG,AFNE01.JPG,AFNE01.JPG,AFNE01.JPG,AFNE01.JPG,,,,,,,,,,,,,,,,,3,6,36,0,,,,,,,AFSA09.jpg,AFNE05.jpg,AFNE06.jpg,AFSA15.jpg,AFSA09.jpg,FS,4,num_8,32,num_6,0.733491757464,,,2017_May_17_1348,59.993053578,FEMA4ImagesEEG,001,100476,
AFNE01.JPG,AFNE01.JPG,AFNE01.JPG,AFNE01.JPG,AFNE01.JPG,AFNE01.JPG,,,,,,,,,,,,,,,,,3,7,37,2,,,,,,,AFSA06.jpg,AFNE07.jpg,AFSA08.jpg,AFNE20.jpg,AFSA08.jpg,FS,4,num_2,16,num_2,0.783466884084,,,2017_May_17_1348,59.993053578,FEMA4ImagesEEG,001,100476,
AFNE01.JPG,AFNE01.JPG,AFNE01.JPG,AFNE01.JPG,AFNE01.JPG,AFNE01.JPG,,,,,,,,,,,,,,,,,3,8,38,6,,,,,,,AFSA13.jpg,AFNE07.jpg,AFNE09.jpg,AFSA16.jpg,AFSA16.jpg,FS,4,num_4,32,num_8,1.30009708797,,,2017_May_17_1348,59.993053578,FEMA4ImagesEEG,001,100476,
AFNE01.JPG,AFNE01.JPG,AFNE01.JPG,AFNE01.JPG,AFNE01.JPG,AFNE01.JPG,,,,,,,,,,,,,,,,,3,9,39,8,,,,,,,AFNE02.jpg,AFSA04.jpg,AFNE18.jpg,AFSA17.jpg,AFSA17.jpg,FS,4,num_4,16,num_4,1.98341614303,,,2017_May_17_1348,59.993053578,FEMA4ImagesEEG,001,100476,
AFNE01.JPG,AFNE01.JPG,AFNE01.JPG,AFNE01.JPG,AFNE01.JPG,AFNE01.JPG,,,,,,,,,,,,,,,,,4,0,40,3,,,,,,,AFSA10.jpg,AFNE04.jpg,AFNE18.jpg,AFSA02.jpg,AFSA02.jpg,FS,4,num_4,16,num_4,0.916749070095,,,2017_May_17_1348,59.993053578,FEMA4ImagesEEG,001,100476,
AFNE01.JPG,AFNE01.JPG,AFNE01.JPG,AFNE01.JPG,AFNE01.JPG,AFNE01.JPG,,,,,,,,,,,,,,,,,4,1,41,5,,,,,,,AFNE03.jpg,AFSA18.jpg,AFSA16.jpg,AFNE19.jpg,AFSA18.jpg,FS,4,num_6,16,num_6,0.816801703513,,,2017_May_17_1348,59.993053578,FEMA4ImagesEEG,001,100476,
AFNE01.JPG,AFNE01.JPG,AFNE01.JPG,AFNE01.JPG,AFNE01.JPG,AFNE01.JPG,,,,,,,,,,,,,,,,,4,2,42,9,,,,,,,AFSA15.jpg,AFNE03.jpg,AFSA14.jpg,AFNE20.jpg,AFNE03.jpg,FN,3,num_6,32,num_2,1.28345100746,,,2017_May_17_1348,59.993053578,FEMA4ImagesEEG,001,100476,
AFNE01.JPG,AFNE01.JPG,AFNE01.JPG,AFNE01.JPG,AFNE01.JPG,AFNE01.JPG,,,,,,,,,,,,,,,,,4,3,43,6,,,,,,,AFSA19.jpg,AFNE10.jpg,AFSA11.jpg,AFNE19.jpg,AFSA19.jpg,FS,4,num_8,16,num_8,0.850129787405,,,2017_May_17_1348,59.993053578,FEMA4ImagesEEG,001,100476,
AFNE01.JPG,AFNE01.JPG,AFNE01.JPG,AFNE01.JPG,AFNE01.JPG,AFNE01.JPG,,,,,,,,,,,,,,,,,4,4,44,7,,,,,,,AFNE14.jpg,AFSA18.jpg,AFSA01.jpg,AFNE16.jpg,AFNE14.jpg,FN,3,num_8,16,num_8,0.683538441161,,,2017_May_17_1348,59.993053578,FEMA4ImagesEEG,001,100476,
AFNE01.JPG,AFNE01.JPG,AFNE01.JPG,AFNE01.JPG,AFNE01.JPG,AFNE01.JPG,,,,,,,,,,,,,,,,,4,5,45,1,,,,,,,AFSA03.jpg,AFSA14.jpg,AFNE13.jpg,AFNE20.jpg,AFNE20.jpg,FN,3,num_4,32,num_2,2.45007378622,,,2017_May_17_1348,59.993053578,FEMA4ImagesEEG,001,100476,
AFNE01.JPG,AFNE01.JPG,AFNE01.JPG,AFNE01.JPG,AFNE01.JPG,AFNE01.JPG,,,,,,,,,,,,,,,,,4,6,46,4,,,,,,,AFSA11.jpg,AFNE04.jpg,AFSA12.jpg,AFNE05.jpg,AFSA11.jpg,FS,4,num_8,16,num_8,0.816767384344,,,2017_May_17_1348,59.993053578,FEMA4ImagesEEG,001,100476,
AFNE01.JPG,AFNE01.JPG,AFNE01.JPG,AFNE01.JPG,AFNE01.JPG,AFNE01.JPG,,,,,,,,,,,,,,,,,4,7,47,2,,,,,,,AFNE14.jpg,AFNE08.jpg,AFSA03.jpg,AFSA07.jpg,AFSA07.jpg,FS,4,num_4,32,num_2,1.03341532515,,,2017_May_17_1348,59.993053578,FEMA4ImagesEEG,001,100476,
AFNE01.JPG,AFNE01.JPG,AFNE01.JPG,AFNE01.JPG,AFNE01.JPG,AFNE01.JPG,,,,,,,,,,,,,,,,,4,8,48,8,,,,,,,AFNE19.jpg,AFSA08.jpg,AFNE11.jpg,AFSA11.jpg,AFNE11.jpg,FN,3,num_2,16,num_2,1.95011596351,,,2017_May_17_1348,59.993053578,FEMA4ImagesEEG,001,100476,
AFNE01.JPG,AFNE01.JPG,AFNE01.JPG,AFNE01.JPG,AFNE01.JPG,AFNE01.JPG,,,,,,,,,,,,,,,,,4,9,49,0,,,,,,,AFNE04.jpg,AFSA14.jpg,AFSA15.jpg,AFNE13.jpg,AFSA15.jpg,FS,4,num_2,16,num_2,1.00017255807,,,2017_May_17_1348,59.993053578,FEMA4ImagesEEG,001,100476,
AFNE01.JPG,AFNE01.JPG,AFNE01.JPG,AFNE01.JPG,AFNE01.JPG,AFNE01.JPG,,,,,,,,,,,,,,,,,5,0,50,2,,,,,,,AFSA10.jpg,AFNE02.jpg,AFNE01.jpg,AFSA05.jpg,AFNE01.jpg,FN,3,num_2,32,num_6,1.1167695333,,,2017_May_17_1348,59.993053578,FEMA4ImagesEEG,001,100476,
AFNE01.JPG,AFNE01.JPG,AFNE01.JPG,AFNE01.JPG,AFNE01.JPG,AFNE01.JPG,,,,,,,,,,,,,,,,,5,1,51,4,,,,,,,AFNE07.jpg,AFSA16.jpg,AFSA05.jpg,AFNE13.jpg,AFNE07.jpg,FN,3,num_8,16,num_8,0.983458801438,,,2017_May_17_1348,59.993053578,FEMA4ImagesEEG,001,100476,
AFNE01.JPG,AFNE01.JPG,AFNE01.JPG,AFNE01.JPG,AFNE01.JPG,AFNE01.JPG,,,,,,,,,,,,,,,,,5,2,52,1,,,,,,,AFSA15.jpg,AFNE19.jpg,AFNE01.jpg,AFSA05.jpg,AFNE19.jpg,FN,3,num_6,16,num_6,0.950170489299,,,2017_May_17_1348,59.993053578,FEMA4ImagesEEG,001,100476,
AFNE01.JPG,AFNE01.JPG,AFNE01.JPG,AFNE01.JPG,AFNE01.JPG,AFNE01.JPG,,,,,,,,,,,,,,,,,5,3,53,9,,,,,,,AFSA02.jpg,AFSA18.jpg,AFNE09.jpg,AFNE06.jpg,AFNE06.jpg,FN,3,num_4,32,num_8,0.983451745162,,,2017_May_17_1348,59.993053578,FEMA4ImagesEEG,001,100476,
AFNE01.JPG,AFNE01.JPG,AFNE01.JPG,AFNE01.JPG,AFNE01.JPG,AFNE01.JPG,,,,,,,,,,,,,,,,,5,4,54,8,,,,,,,AFSA17.jpg,AFNE11.jpg,AFSA08.jpg,AFNE15.jpg,AFNE15.jpg,FN,3,num_4,32,num_2,0.683475255399,,,2017_May_17_1348,59.993053578,FEMA4ImagesEEG,001,100476,
AFNE01.JPG,AFNE01.JPG,AFNE01.JPG,AFNE01.JPG,AFNE01.JPG,AFNE01.JPG,,,,,,,,,,,,,,,,,5,5,55,7,,,,,,,AFNE17.jpg,AFSA18.jpg,AFSA02.jpg,AFNE18.jpg,AFNE18.jpg,FN,3,num_4,16,num_4,0.95009511542,,,2017_May_17_1348,59.993053578,FEMA4ImagesEEG,001,100476,
AFNE01.JPG,AFNE01.JPG,AFNE01.JPG,AFNE01.JPG,AFNE01.JPG,AFNE01.JPG,,,,,,,,,,,,,,,,,5,6,56,6,,,,,,,AFNE19.jpg,AFSA20.jpg,AFSA16.jpg,AFNE18.jpg,AFNE19.jpg,FN,3,num_8,16,num_8,0.683519517504,,,2017_May_17_1348,59.993053578,FEMA4ImagesEEG,001,100476,
AFNE01.JPG,AFNE01.JPG,AFNE01.JPG,AFNE01.JPG,AFNE01.JPG,AFNE01.JPG,,,,,,,,,,,,,,,,,5,7,57,3,,,,,,,AFNE17.jpg,AFSA12.jpg,AFNE03.jpg,AFSA13.jpg,AFNE17.jpg,FN,3,num_8,32,num_4,1.21676533161,,,2017_May_17_1348,59.993053578,FEMA4ImagesEEG,001,100476,
AFNE01.JPG,AFNE01.JPG,AFNE01.JPG,AFNE01.JPG,AFNE01.JPG,AFNE01.JPG,,,,,,,,,,,,,,,,,5,8,58,5,,,,,,,AFNE09.jpg,AFSA09.jpg,AFSA12.jpg,AFNE18.jpg,AFNE18.jpg,FN,3,num_4,32,num_8,0.966683783487,,,2017_May_17_1348,59.993053578,FEMA4ImagesEEG,001,100476,
AFNE01.JPG,AFNE01.JPG,AFNE01.JPG,AFNE01.JPG,AFNE01.JPG,AFNE01.JPG,,,,,,,,,,,,,,,,,5,9,59,0,,,,,,,AFNE13.jpg,AFSA16.jpg,AFSA18.jpg,AFNE09.jpg,AFNE13.jpg,FN,3,num_8,32,num_4,0.883434457281,,,2017_May_17_1348,59.993053578,FEMA4ImagesEEG,001,100476,
,,,,,,,,,,,,,,,,,,,,,,,,,,,,,,,,,,,,,,,,,,,space,47.763119465,2017_May_17_1348,59.993053578,FEMA4ImagesEEG,001,100476,
AFNE01.JPG,AFNE01.JPG,AFNE01.JPG,AFNE01.JPG,AFNE01.JPG,AFNE01.JPG,,,,,,,,,,,,,,,,,,,,,0,0,0,3,,,AMNE09.jpg,AMNE17.jpg,AMSA15.jpg,AMSA18.jpg,AMSA15.jpg,MS,2,num_2,16,num_2,0.66678042242,,,2017_May_17_1348,59.993053578,FEMA4ImagesEEG,001,100476,
AFNE01.JPG,AFNE01.JPG,AFNE01.JPG,AFNE01.JPG,AFNE01.JPG,AFNE01.JPG,,,,,,,,,,,,,,,,,,,,,0,1,1,5,,,AMNE12.jpg,AMNE02.jpg,AMSA10.jpg,AMSA03.jpg,AMNE12.jpg,MN,1,num_8,16,num_8,0.700122618868,,,2017_May_17_1348,59.993053578,FEMA4ImagesEEG,001,100476,
AFNE01.JPG,AFNE01.JPG,AFNE01.JPG,AFNE01.JPG,AFNE01.JPG,AFNE01.JPG,,,,,,,,,,,,,,,,,,,,,0,2,2,9,,,AMSA13.jpg,AMNE10.jpg,AMSA03.jpg,AMNE01.jpg,AMSA03.jpg,MS,2,num_2,32,num_8,0.850215104221,,,2017_May_17_1348,59.993053578,FEMA4ImagesEEG,001,100476,
AFNE01.JPG,AFNE01.JPG,AFNE01.JPG,AFNE01.JPG,AFNE01.JPG,AFNE01.JPG,,,,,,,,,,,,,,,,,,,,,0,3,3,1,,,AMNE04.jpg,AMSA14.jpg,AMSA09.jpg,AMNE13.jpg,AMNE13.jpg,MN,1,num_4,16,num_4,0.950167923378,,,2017_May_17_1348,59.993053578,FEMA4ImagesEEG,001,100476,
AFNE01.JPG,AFNE01.JPG,AFNE01.JPG,AFNE01.JPG,AFNE01.JPG,AFNE01.JPG,,,,,,,,,,,,,,,,,,,,,0,4,4,2,,,AMSA05.jpg,AMNE19.jpg,AMNE13.jpg,AMSA06.jpg,AMSA05.jpg,MS,2,num_8,16,num_8,0.616835124612,,,2017_May_17_1348,59.993053578,FEMA4ImagesEEG,001,100476,
AFNE01.JPG,AFNE01.JPG,AFNE01.JPG,AFNE01.JPG,AFNE01.JPG,AFNE01.JPG,,,,,,,,,,,,,,,,,,,,,0,5,5,7,,,AMNE20.jpg,AMNE12.jpg,AMSA06.jpg,AMSA16.jpg,AMSA06.jpg,MS,2,num_2,32,num_4,0.866759189439,,,2017_May_17_1348,59.993053578,FEMA4ImagesEEG,001,100476,
AFNE01.JPG,AFNE01.JPG,AFNE01.JPG,AFNE01.JPG,AFNE01.JPG,AFNE01.JPG,,,,,,,,,,,,,,,,,,,,,0,6,6,8,,,AMSA12.jpg,AMNE07.jpg,AMNE05.jpg,AMSA08.jpg,AMNE07.jpg,MN,1,num_6,32,num_4,1.15015246372,,,2017_May_17_1348,59.993053578,FEMA4ImagesEEG,001,100476,
AFNE01.JPG,AFNE01.JPG,AFNE01.JPG,AFNE01.JPG,AFNE01.JPG,AFNE01.JPG,,,,,,,,,,,,,,,,,,,,,0,7,7,0,,,AMNE06.jpg,AMSA03.jpg,AMNE12.jpg,AMSA19.jpg,AMSA03.jpg,MS,2,num_6,32,num_4,1.03348011461,,,2017_May_17_1348,59.993053578,FEMA4ImagesEEG,001,100476,
AFNE01.JPG,AFNE01.JPG,AFNE01.JPG,AFNE01.JPG,AFNE01.JPG,AFNE01.JPG,,,,,,,,,,,,,,,,,,,,,0,8,8,6,,,AMSA07.jpg,AMSA11.jpg,AMNE18.jpg,AMNE07.jpg,AMNE18.jpg,MN,1,num_2,32,num_4,0.966791872836,,,2017_May_17_1348,59.993053578,FEMA4ImagesEEG,001,100476,
AFNE01.JPG,AFNE01.JPG,AFNE01.JPG,AFNE01.JPG,AFNE01.JPG,AFNE01.JPG,,,,,,,,,,,,,,,,,,,,,0,9,9,4,,,AMNE13.jpg,AMNE02.jpg,AMSA02.jpg,AMSA10.jpg,AMSA02.jpg,MS,2,num_2,32,num_6,0.666789723877,,,2017_May_17_1348,59.993053578,FEMA4ImagesEEG,001,100476,
AFNE01.JPG,AFNE01.JPG,AFNE01.JPG,AFNE01.JPG,AFNE01.JPG,AFNE01.JPG,,,,,,,,,,,,,,,,,,,,,1,0,10,8,,,AMSA09.jpg,AMNE20.jpg,AMSA12.jpg,AMNE12.jpg,AMNE12.jpg,MN,1,num_4,16,num_4,0.816807156092,,,2017_May_17_1348,59.993053578,FEMA4ImagesEEG,001,100476,
AFNE01.JPG,AFNE01.JPG,AFNE01.JPG,AFNE01.JPG,AFNE01.JPG,AFNE01.JPG,,,,,,,,,,,,,,,,,,,,,1,1,11,0,,,AMSA02.jpg,AMNE17.jpg,AMSA16.jpg,AMNE01.jpg,AMSA02.jpg,MS,2,num_8,16,num_8,1.1833711753,,,2017_May_17_1348,59.993053578,FEMA4ImagesEEG,001,100476,
AFNE01.JPG,AFNE01.JPG,AFNE01.JPG,AFNE01.JPG,AFNE01.JPG,AFNE01.JPG,,,,,,,,,,,,,,,,,,,,,1,2,12,4,,,AMSA07.jpg,AMSA05.jpg,AMNE04.jpg,AMNE15.jpg,AMSA07.jpg,MS,2,num_8,32,num_6,0.966788344696,,,2017_May_17_1348,59.993053578,FEMA4ImagesEEG,001,100476,
AFNE01.JPG,AFNE01.JPG,AFNE01.JPG,AFNE01.JPG,AFNE01.JPG,AFNE01.JPG,,,,,,,,,,,,,,,,,,,,,1,3,13,9,,,AMNE04.jpg,AMSA04.jpg,AMSA20.jpg,AMNE05.jpg,AMNE04.jpg,MN,1,num_8,32,num_2,1.25008892514,,,2017_May_17_1348,59.993053578,FEMA4ImagesEEG,001,100476,
AFNE01.JPG,AFNE01.JPG,AFNE01.JPG,AFNE01.JPG,AFNE01.JPG,AFNE01.JPG,,,,,,,,,,,,,,,,,,,,,1,4,14,7,,,AMNE19.jpg,AMSA06.jpg,AMSA04.jpg,AMNE06.jpg,AMNE19.jpg,MN,1,num_8,16,num_8,1.5167806309,,,2017_May_17_1348,59.993053578,FEMA4ImagesEEG,001,100476,
AFNE01.JPG,AFNE01.JPG,AFNE01.JPG,AFNE01.JPG,AFNE01.JPG,AFNE01.JPG,,,,,,,,,,,,,,,,,,,,,1,5,15,3,,,AMSA11.jpg,AMNE02.jpg,AMSA04.jpg,AMNE04.jpg,AMSA04.jpg,MS,2,num_2,32,num_8,1.18339747597,,,2017_May_17_1348,59.993053578,FEMA4ImagesEEG,001,100476,
AFNE01.JPG,AFNE01.JPG,AFNE01.JPG,AFNE01.JPG,AFNE01.JPG,AFNE01.JPG,,,,,,,,,,,,,,,,,,,,,1,6,16,1,,,AMNE03.jpg,AMSA09.jpg,AMNE01.jpg,AMSA16.jpg,AMSA16.jpg,MS,2,num_4,16,num_4,0.683454728043,,,2017_May_17_1348,59.993053578,FEMA4ImagesEEG,001,100476,
AFNE01.JPG,AFNE01.JPG,AFNE01.JPG,AFNE01.JPG,AFNE01.JPG,AFNE01.JPG,,,,,,,,,,,,,,,,,,,,,1,7,17,2,,,AMSA02.jpg,AMSA05.jpg,AMNE05.jpg,AMNE19.jpg,AMSA02.jpg,MS,2,num_8,16,num_8,0.800162679281,,,2017_May_17_1348,59.993053578,FEMA4ImagesEEG,001,100476,
AFNE01.JPG,AFNE01.JPG,AFNE01.JPG,AFNE01.JPG,AFNE01.JPG,AFNE01.JPG,,,,,,,,,,,,,,,,,,,,,1,8,18,6,,,AMNE18.jpg,AMNE16.jpg,AMSA12.jpg,AMSA01.jpg,AMNE16.jpg,MN,1,num_6,32,num_8,1.03342719252,,,2017_May_17_1348,59.993053578,FEMA4ImagesEEG,001,100476,
AFNE01.JPG,AFNE01.JPG,AFNE01.JPG,AFNE01.JPG,AFNE01.JPG,AFNE01.JPG,,,,,,,,,,,,,,,,,,,,,1,9,19,5,,,AMSA18.jpg,AMSA15.jpg,AMNE05.jpg,AMNE14.jpg,AMNE05.jpg,MN,1,num_2,32,num_8,0.966660690214,,,2017_May_17_1348,59.993053578,FEMA4ImagesEEG,001,100476,
AFNE01.JPG,AFNE01.JPG,AFNE01.JPG,AFNE01.JPG,AFNE01.JPG,AFNE01.JPG,,,,,,,,,,,,,,,,,,,,,2,0,20,7,,,AMNE04.jpg,AMSA12.jpg,AMNE12.jpg,AMSA20.jpg,AMSA12.jpg,MS,2,num_6,32,num_4,0.800111040156,,,2017_May_17_1348,59.993053578,FEMA4ImagesEEG,001,100476,
AFNE01.JPG,AFNE01.JPG,AFNE01.JPG,AFNE01.JPG,AFNE01.JPG,AFNE01.JPG,,,,,,,,,,,,,,,,,,,,,2,1,21,5,,,AMSA09.jpg,AMSA10.jpg,AMNE14.jpg,AMNE08.jpg,AMNE08.jpg,MN,1,num_4,16,num_4,1.03346760575,,,2017_May_17_1348,59.993053578,FEMA4ImagesEEG,001,100476,
AFNE01.JPG,AFNE01.JPG,AFNE01.JPG,AFNE01.JPG,AFNE01.JPG,AFNE01.JPG,,,,,,,,,,,,,,,,,,,,,2,2,22,2,,,AMSA12.jpg,AMNE10.jpg,AMSA15.jpg,AMNE15.jpg,AMNE10.jpg,MN,1,num_6,32,num_2,1.16674754658,,,2017_May_17_1348,59.993053578,FEMA4ImagesEEG,001,100476,
AFNE01.JPG,AFNE01.JPG,AFNE01.JPG,AFNE01.JPG,AFNE01.JPG,AFNE01.JPG,,,,,,,,,,,,,,,,,,,,,2,3,23,0,,,AMSA08.jpg,AMNE03.jpg,AMNE04.jpg,AMSA12.jpg,AMSA12.jpg,MS,2,num_4,16,num_4,0.750161572729,,,2017_May_17_1348,59.993053578,FEMA4ImagesEEG,001,100476,
AFNE01.JPG,AFNE01.JPG,AFNE01.JPG,AFNE01.JPG,AFNE01.JPG,AFNE01.JPG,,,,,,,,,,,,,,,,,,,,,2,4,24,8,,,AMSA16.jpg,AMSA17.jpg,AMNE19.jpg,AMNE10.jpg,AMNE19.jpg,MN,1,num_2,32,num_4,1.06678959558,,,2017_May_17_1348,59.993053578,FEMA4ImagesEEG,001,100476,
AFNE01.JPG,AFNE01.JPG,AFNE01.JPG,AFNE01.JPG,AFNE01.JPG,AFNE01.JPG,,,,,,,,,,,,,,,,,,,,,2,5,25,1,,,AMNE14.jpg,AMNE15.jpg,AMSA02.jpg,AMSA06.jpg,AMNE15.jpg,MN,1,num_6,32,num_4,0.766790012543,,,2017_May_17_1348,59.993053578,FEMA4ImagesEEG,001,100476,
AFNE01.JPG,AFNE01.JPG,AFNE01.JPG,AFNE01.JPG,AFNE01.JPG,AFNE01.JPG,,,,,,,,,,,,,,,,,,,,,2,6,26,3,,,AMSA17.jpg,AMNE16.jpg,AMSA12.jpg,AMNE02.jpg,AMNE02.jpg,MN,1,num_4,16,num_4,0.783694609421,,,2017_May_17_1348,59.993053578,FEMA4ImagesEEG,001,100476,
AFNE01.JPG,AFNE01.JPG,AFNE01.JPG,AFNE01.JPG,AFNE01.JPG,AFNE01.JPG,,,,,,,,,,,,,,,,,,,,,2,7,27,4,,,AMNE08.jpg,AMSA07.jpg,AMNE12.jpg,AMSA10.jpg,AMNE08.jpg,MN,1,num_8,32,num_4,0.716786340074,,,2017_May_17_1348,59.993053578,FEMA4ImagesEEG,001,100476,
AFNE01.JPG,AFNE01.JPG,AFNE01.JPG,AFNE01.JPG,AFNE01.JPG,AFNE01.JPG,,,,,,,,,,,,,,,,,,,,,2,8,28,6,,,AMNE02.jpg,AMSA08.jpg,AMNE16.jpg,AMSA11.jpg,AMSA11.jpg,MS,2,num_4,16,num_4,0.650121191575,,,2017_May_17_1348,59.993053578,FEMA4ImagesEEG,001,100476,
AFNE01.JPG,AFNE01.JPG,AFNE01.JPG,AFNE01.JPG,AFNE01.JPG,AFNE01.JPG,,,,,,,,,,,,,,,,,,,,,2,9,29,9,,,AMSA16.jpg,AMNE19.jpg,AMSA12.jpg,AMNE02.jpg,AMNE02.jpg,MN,1,num_4,16,num_4,0.766768202231,,,2017_May_17_1348,59.993053578,FEMA4ImagesEEG,001,100476,
AFNE01.JPG,AFNE01.JPG,AFNE01.JPG,AFNE01.JPG,AFNE01.JPG,AFNE01.JPG,,,,,,,,,,,,,,,,,,,,,3,0,30,0,,,AMNE02.jpg,AMSA13.jpg,AMNE01.jpg,AMSA11.jpg,AMSA13.jpg,MS,2,num_6,16,num_6,0.883429325442,,,2017_May_17_1348,59.993053578,FEMA4ImagesEEG,001,100476,
AFNE01.JPG,AFNE01.JPG,AFNE01.JPG,AFNE01.JPG,AFNE01.JPG,AFNE01.JPG,,,,,,,,,,,,,,,,,,,,,3,1,31,1,,,AMNE14.jpg,AMNE04.jpg,AMSA01.jpg,AMSA15.jpg,AMNE04.jpg,MN,1,num_6,32,num_2,0.966782250638,,,2017_May_17_1348,59.993053578,FEMA4ImagesEEG,001,100476,
AFNE01.JPG,AFNE01.JPG,AFNE01.JPG,AFNE01.JPG,AFNE01.JPG,AFNE01.JPG,,,,,,,,,,,,,,,,,,,,,3,2,32,8,,,AMNE17.jpg,AMNE20.jpg,AMSA03.jpg,AMSA09.jpg,AMSA03.jpg,MS,2,num_2,16,num_2,0.78345213005,,,2017_May_17_1348,59.993053578,FEMA4ImagesEEG,001,100476,
AFNE01.JPG,AFNE01.JPG,AFNE01.JPG,AFNE01.JPG,AFNE01.JPG,AFNE01.JPG,,,,,,,,,,,,,,,,,,,,,3,3,33,2,,,AMSA05.jpg,AMNE12.jpg,AMSA11.jpg,AMNE02.jpg,AMSA11.jpg,MS,2,num_2,16,num_2,1.15011365419,,,2017_May_17_1348,59.993053578,FEMA4ImagesEEG,001,100476,
AFNE01.JPG,AFNE01.JPG,AFNE01.JPG,AFNE01.JPG,AFNE01.JPG,AFNE01.JPG,,,,,,,,,,,,,,,,,,,,,3,4,34,5,,,AMSA16.jpg,AMNE05.jpg,AMSA09.jpg,AMNE18.jpg,AMSA09.jpg,MS,2,num_2,32,num_4,0.916479007092,,,2017_May_17_1348,59.993053578,FEMA4ImagesEEG,001,100476,
AFNE01.JPG,AFNE01.JPG,AFNE01.JPG,AFNE01.JPG,AFNE01.JPG,AFNE01.JPG,,,,,,,,,,,,,,,,,,,,,3,5,35,6,,,AMSA19.jpg,AMSA04.jpg,AMNE20.jpg,AMNE17.jpg,AMNE17.jpg,MN,1,num_4,32,num_8,1.35011134486,,,2017_May_17_1348,59.993053578,FEMA4ImagesEEG,001,100476,
AFNE01.JPG,AFNE01.JPG,AFNE01.JPG,AFNE01.JPG,AFNE01.JPG,AFNE01.JPG,,,,,,,,,,,,,,,,,,,,,3,6,36,4,,,AMSA10.jpg,AMNE03.jpg,AMNE18.jpg,AMSA13.jpg,AMSA13.jpg,MS,2,num_4,32,num_8,0.933529219887,,,2017_May_17_1348,59.993053578,FEMA4ImagesEEG,001,100476,
AFNE01.JPG,AFNE01.JPG,AFNE01.JPG,AFNE01.JPG,AFNE01.JPG,AFNE01.JPG,,,,,,,,,,,,,,,,,,,,,3,7,37,9,,,AMSA14.jpg,AMNE14.jpg,AMSA20.jpg,AMNE20.jpg,AMNE20.jpg,MN,1,num_4,16,num_4,1.13344993298,,,2017_May_17_1348,59.993053578,FEMA4ImagesEEG,001,100476,
AFNE01.JPG,AFNE01.JPG,AFNE01.JPG,AFNE01.JPG,AFNE01.JPG,AFNE01.JPG,,,,,,,,,,,,,,,,,,,,,3,8,38,7,,,AMSA01.jpg,AMSA02.jpg,AMNE20.jpg,AMNE18.jpg,AMSA02.jpg,MS,2,num_6,16,num_6,1.01678913051,,,2017_May_17_1348,59.993053578,FEMA4ImagesEEG,001,100476,
AFNE01.JPG,AFNE01.JPG,AFNE01.JPG,AFNE01.JPG,AFNE01.JPG,AFNE01.JPG,,,,,,,,,,,,,,,,,,,,,3,9,39,3,,,AMSA09.jpg,AMNE08.jpg,AMSA18.jpg,AMNE04.jpg,AMNE04.jpg,MN,1,num_4,16,num_4,0.966723875976,,,2017_May_17_1348,59.993053578,FEMA4ImagesEEG,001,100476,
AFNE01.JPG,AFNE01.JPG,AFNE01.JPG,AFNE01.JPG,AFNE01.JPG,AFNE01.JPG,,,,,,,,,,,,,,,,,,,,,4,0,40,2,,,AMSA03.jpg,AMNE08.jpg,AMSA10.jpg,AMNE09.jpg,AMNE09.jpg,MN,1,num_4,16,num_4,0.983294582606,,,2017_May_17_1348,59.993053578,FEMA4ImagesEEG,001,100476,
