IPosition2,IPosition3,IPosition1,IPosition6,IPosition4,IPosition5,TrialsF1.thisRepN,TrialsF1.thisTrialN,TrialsF1.thisN,TrialsF1.thisIndex,TrialsM1.thisRepN,TrialsM1.thisTrialN,TrialsM1.thisN,TrialsM1.thisIndex,TrialsF2.thisRepN,TrialsF2.thisTrialN,TrialsF2.thisN,TrialsF2.thisIndex,TrialsM2.thisRepN,TrialsM2.thisTrialN,TrialsM2.thisN,TrialsM2.thisIndex,TrialsF3.thisRepN,TrialsF3.thisTrialN,TrialsF3.thisN,TrialsF3.thisIndex,TrialsM3.thisRepN,TrialsM3.thisTrialN,TrialsM3.thisN,TrialsM3.thisIndex,InstrKey_resp.keys,InstrKey_resp.rt,Image0 _Position,Image1 _Position,Image2 _Position,Image3 _Position,Center_image,condition,code,correct_answer,accuracy,Key_Resp.keys,Key_Resp.rt,BreakKey_resp.keys,BreakKey_resp.rt,date,frameRate,expName,session,participant,
,,,,,,,,,,,,,,,,,,,,,,,,,,,,,,space,85.9103165406,,,,,,,,,,,,,,2017_May_10_1715,60.004407249,FEMA4ImagesEEG,001,100439,
AFSA21.JPG,AFNE22.JPG,AFNE21.JPG,AFSA23.JPG,AFSA22.JPG,AFNE23.JPG,0,0,0,0,,,,,,,,,,,,,,,,,,,,,,,AFSA06.jpg,AFNE12.jpg,AFNE02.jpg,AFSA03.jpg,AFNE12.jpg,FN,3,num_6,16,num_6,1.38331560185,,,2017_May_10_1715,60.004407249,FEMA4ImagesEEG,001,100439,
AMSA21.JPG,AMNE23.JPG,AMNE21.JPG,AMSA25.JPG,AMNE25.JPG,AMSA23.JPG,0,1,1,5,,,,,,,,,,,,,,,,,,,,,,,AFNE04.jpg,AFSA10.jpg,AFSA04.jpg,AFNE18.jpg,AFNE18.jpg,FN,3,num_4,32,num_2,3.68296641321,,,2017_May_10_1715,60.004407249,FEMA4ImagesEEG,001,100439,
AMSA21.JPG,AMNE22.JPG,AMNE21.JPG,AMSA23.JPG,AMSA22.JPG,AMNE23.JPG,0,2,2,1,,,,,,,,,,,,,,,,,,,,,,,AFNE03.jpg,AFSA13.jpg,AFSA12.jpg,AFNE07.jpg,AFSA12.jpg,FS,4,num_2,16,num_2,1.2168571481,,,2017_May_10_1715,60.004407249,FEMA4ImagesEEG,001,100439,
AFSA25.JPG,AFNE24.JPG,AFSA24.JPG,AFNE21.JPG,AFSA21.JPG,AFNE25.JPG,0,3,3,2,,,,,,,,,,,,,,,,,,,,,,,AFNE18.jpg,AFNE16.jpg,AFSA13.jpg,AFSA14.jpg,AFSA14.jpg,FS,4,num_4,16,num_4,1.13340564934,,,2017_May_10_1715,60.004407249,FEMA4ImagesEEG,001,100439,
AFSA21.JPG,AFNE23.JPG,AFNE21.JPG,AFSA25.JPG,AFNE25.JPG,AFSA23.JPG,0,4,4,4,,,,,,,,,,,,,,,,,,,,,,,AFSA11.jpg,AFNE20.jpg,AFNE17.jpg,AFSA04.jpg,AFNE20.jpg,FN,3,num_6,16,num_6,1.43366105389,,,2017_May_10_1715,60.004407249,FEMA4ImagesEEG,001,100439,
AFNE23.JPG,AFNE24.JPG,AFNE22.JPG,AFSA24.JPG,AFSA22.JPG,AFSA23.JPG,0,5,5,8,,,,,,,,,,,,,,,,,,,,,,,AFSA08.jpg,AFNE09.jpg,AFNE11.jpg,AFSA14.jpg,AFNE11.jpg,FN,3,num_2,16,num_2,1.33342880663,,,2017_May_10_1715,60.004407249,FEMA4ImagesEEG,001,100439,
AMSA25.JPG,AMNE24.JPG,AMSA24.JPG,AMNE26.JPG,AMSA21.JPG,AMNE25.JPG,0,6,6,3,,,,,,,,,,,,,,,,,,,,,,,AFNE02.jpg,AFNE17.jpg,AFSA02.jpg,AFSA11.jpg,AFSA02.jpg,FS,4,num_2,32,num_4,1.13341302634,,,2017_May_10_1715,60.004407249,FEMA4ImagesEEG,001,100439,
AMNE23.JPG,AMNE24.JPG,AMNE22.JPG,AMSA24.JPG,AMSA22.JPG,AMSA23.JPG,0,7,7,9,,,,,,,,,,,,,,,,,,,,,,,AFNE17.jpg,AFSA01.jpg,AFNE03.jpg,AFSA13.jpg,AFNE17.jpg,FN,3,num_8,32,num_2,2.29997892748,,,2017_May_10_1715,60.004407249,FEMA4ImagesEEG,001,100439,
AFNE22.JPG,AFSA24.JPG,AFSA22.JPG,AFNE25.JPG,AFNE24.JPG,AFSA25.JPG,0,8,8,6,,,,,,,,,,,,,,,,,,,,,,,AFSA05.jpg,AFNE17.jpg,AFNE16.jpg,AFSA09.jpg,AFNE17.jpg,FN,3,num_6,16,num_6,2.83329361514,,,2017_May_10_1715,60.004407249,FEMA4ImagesEEG,001,100439,
AMNE22.JPG,AMSA24.JPG,AMSA22.JPG,AMNE25.JPG,AMNE24.JPG,AMSA25.JPG,0,9,9,7,,,,,,,,,,,,,,,,,,,,,,,AFNE07.jpg,AFNE05.jpg,AFSA05.jpg,AFSA02.jpg,AFSA02.jpg,FS,4,num_4,16,num_4,1.45004440635,,,2017_May_10_1715,60.004407249,FEMA4ImagesEEG,001,100439,
AMNE22.JPG,AMSA24.JPG,AMSA22.JPG,AMNE25.JPG,AMNE24.JPG,AMSA25.JPG,,,,,0,0,0,7,,,,,,,,,,,,,,,,,,,AMSA17.jpg,AMNE10.jpg,AMSA06.jpg,AMNE18.jpg,AMSA06.jpg,MS,2,num_2,32,num_4,1.13357724482,,,2017_May_10_1715,60.004407249,FEMA4ImagesEEG,001,100439,
AMSA25.JPG,AMNE24.JPG,AMSA24.JPG,AMNE26.JPG,AMSA21.JPG,AMNE25.JPG,,,,,0,1,1,3,,,,,,,,,,,,,,,,,,,AMSA15.jpg,AMSA08.jpg,AMNE17.jpg,AMNE06.jpg,AMNE06.jpg,MN,1,num_4,16,num_4,4.31625483232,,,2017_May_10_1715,60.004407249,FEMA4ImagesEEG,001,100439,
AFSA25.JPG,AFNE24.JPG,AFSA24.JPG,AFNE21.JPG,AFSA21.JPG,AFNE25.JPG,,,,,0,2,2,2,,,,,,,,,,,,,,,,,,,AMSA15.jpg,AMNE04.jpg,AMSA12.jpg,AMNE02.jpg,AMSA12.jpg,MS,2,num_2,32,num_8,3.39986862545,,,2017_May_10_1715,60.004407249,FEMA4ImagesEEG,001,100439,
AFSA21.JPG,AFNE22.JPG,AFNE21.JPG,AFSA23.JPG,AFSA22.JPG,AFNE23.JPG,,,,,0,3,3,0,,,,,,,,,,,,,,,,,,,AMSA14.jpg,AMNE11.jpg,AMSA09.jpg,AMNE02.jpg,AMNE11.jpg,MN,1,num_6,32,num_4,2.78329231613,,,2017_May_10_1715,60.004407249,FEMA4ImagesEEG,001,100439,
AFSA21.JPG,AFNE23.JPG,AFNE21.JPG,AFSA25.JPG,AFNE25.JPG,AFSA23.JPG,,,,,0,4,4,4,,,,,,,,,,,,,,,,,,,AMSA08.jpg,AMSA07.jpg,AMNE02.jpg,AMNE03.jpg,AMSA07.jpg,MS,2,num_6,16,num_6,3.35003314842,,,2017_May_10_1715,60.004407249,FEMA4ImagesEEG,001,100439,
AFNE22.JPG,AFSA24.JPG,AFSA22.JPG,AFNE25.JPG,AFNE24.JPG,AFSA25.JPG,,,,,0,5,5,6,,,,,,,,,,,,,,,,,,,AMNE13.jpg,AMNE10.jpg,AMSA11.jpg,AMSA04.jpg,AMNE10.jpg,MN,1,num_6,32,num_8,1.24998725043,,,2017_May_10_1715,60.004407249,FEMA4ImagesEEG,001,100439,
AMNE23.JPG,AMNE24.JPG,AMNE22.JPG,AMSA24.JPG,AMSA22.JPG,AMSA23.JPG,,,,,0,6,6,9,,,,,,,,,,,,,,,,,,,AMSA19.jpg,AMNE12.jpg,AMNE10.jpg,AMSA15.jpg,AMNE10.jpg,MN,1,num_2,32,num_6,1.45008706464,,,2017_May_10_1715,60.004407249,FEMA4ImagesEEG,001,100439,
AMSA21.JPG,AMNE23.JPG,AMNE21.JPG,AMSA25.JPG,AMNE25.JPG,AMSA23.JPG,,,,,0,7,7,5,,,,,,,,,,,,,,,,,,,AMNE15.jpg,AMSA19.jpg,AMSA05.jpg,AMNE06.jpg,AMSA05.jpg,MS,2,num_2,32,num_6,2.30047703534,,,2017_May_10_1715,60.004407249,FEMA4ImagesEEG,001,100439,
AFNE23.JPG,AFNE24.JPG,AFNE22.JPG,AFSA24.JPG,AFSA22.JPG,AFSA23.JPG,,,,,0,8,8,8,,,,,,,,,,,,,,,,,,,AMSA18.jpg,AMNE12.jpg,AMSA03.jpg,AMNE05.jpg,AMSA18.jpg,MS,2,num_8,32,num_2,1.40024389001,,,2017_May_10_1715,60.004407249,FEMA4ImagesEEG,001,100439,
AMSA21.JPG,AMNE22.JPG,AMNE21.JPG,AMSA23.JPG,AMSA22.JPG,AMNE23.JPG,,,,,0,9,9,1,,,,,,,,,,,,,,,,,,,AMSA01.jpg,AMSA20.jpg,AMNE14.jpg,AMNE20.jpg,AMNE14.jpg,MN,1,num_2,16,num_2,1.18339989218,,,2017_May_10_1715,60.004407249,FEMA4ImagesEEG,001,100439,
AMNE22.JPG,AMSA24.JPG,AMSA22.JPG,AMNE25.JPG,AMNE24.JPG,AMSA25.JPG,,,,,,,,,0,0,0,7,,,,,,,,,,,,,,,AFNE09.jpg,AFSA09.jpg,AFNE10.jpg,AFSA08.jpg,AFNE10.jpg,FN,3,num_2,32,num_6,2.15003725397,,,2017_May_10_1715,60.004407249,FEMA4ImagesEEG,001,100439,
AFSA21.JPG,AFNE22.JPG,AFNE21.JPG,AFSA23.JPG,AFSA22.JPG,AFNE23.JPG,,,,,,,,,0,1,1,0,,,,,,,,,,,,,,,AFNE01.jpg,AFNE12.jpg,AFSA06.jpg,AFSA04.jpg,AFSA04.jpg,FS,4,num_4,16,num_4,2.69997103722,,,2017_May_10_1715,60.004407249,FEMA4ImagesEEG,001,100439,
AFNE23.JPG,AFNE24.JPG,AFNE22.JPG,AFSA24.JPG,AFSA22.JPG,AFSA23.JPG,,,,,,,,,0,2,2,8,,,,,,,,,,,,,,,AFNE02.jpg,AFSA01.jpg,AFNE10.jpg,AFSA05.jpg,AFSA01.jpg,FS,4,num_6,16,num_6,1.10011100769,,,2017_May_10_1715,60.004407249,FEMA4ImagesEEG,001,100439,
AFNE22.JPG,AFSA24.JPG,AFSA22.JPG,AFNE25.JPG,AFNE24.JPG,AFSA25.JPG,,,,,,,,,0,3,3,6,,,,,,,,,,,,,,,AFNE02.jpg,AFNE03.jpg,AFSA10.jpg,AFSA20.jpg,AFNE03.jpg,FN,3,num_6,16,num_6,1.28338067979,,,2017_May_10_1715,60.004407249,FEMA4ImagesEEG,001,100439,
AMSA25.JPG,AMNE24.JPG,AMSA24.JPG,AMNE26.JPG,AMSA21.JPG,AMNE25.JPG,,,,,,,,,0,4,4,3,,,,,,,,,,,,,,,AFNE17.jpg,AFSA02.jpg,AFNE11.jpg,AFSA09.jpg,AFNE11.jpg,FN,3,num_2,16,num_2,3.15010492993,,,2017_May_10_1715,60.004407249,FEMA4ImagesEEG,001,100439,
AMSA21.JPG,AMNE23.JPG,AMNE21.JPG,AMSA25.JPG,AMNE25.JPG,AMSA23.JPG,,,,,,,,,0,5,5,5,,,,,,,,,,,,,,,AFNE18.jpg,AFNE17.jpg,AFSA08.jpg,AFSA18.jpg,AFSA08.jpg,FS,4,num_2,32,num_4,1.35007484443,,,2017_May_10_1715,60.004407249,FEMA4ImagesEEG,001,100439,
AMNE23.JPG,AMNE24.JPG,AMNE22.JPG,AMSA24.JPG,AMSA22.JPG,AMSA23.JPG,,,,,,,,,0,6,6,9,,,,,,,,,,,,,,,AFSA15.jpg,AFNE08.jpg,AFNE17.jpg,AFSA07.jpg,AFSA15.jpg,FS,4,num_8,16,num_8,1.70010927576,,,2017_May_10_1715,60.004407249,FEMA4ImagesEEG,001,100439,
AFSA25.JPG,AFNE24.JPG,AFSA24.JPG,AFNE21.JPG,AFSA21.JPG,AFNE25.JPG,,,,,,,,,0,7,7,2,,,,,,,,,,,,,,,AFSA08.jpg,AFSA05.jpg,AFNE13.jpg,AFNE07.jpg,AFNE13.jpg,FN,3,num_2,16,num_2,1.90009651054,,,2017_May_10_1715,60.004407249,FEMA4ImagesEEG,001,100439,
AMSA21.JPG,AMNE22.JPG,AMNE21.JPG,AMSA23.JPG,AMSA22.JPG,AMNE23.JPG,,,,,,,,,0,8,8,1,,,,,,,,,,,,,,,AFSA09.jpg,AFSA08.jpg,AFNE07.jpg,AFNE17.jpg,AFNE07.jpg,FN,3,num_2,16,num_2,1.05003722175,,,2017_May_10_1715,60.004407249,FEMA4ImagesEEG,001,100439,
AFSA21.JPG,AFNE23.JPG,AFNE21.JPG,AFSA25.JPG,AFNE25.JPG,AFSA23.JPG,,,,,,,,,0,9,9,4,,,,,,,,,,,,,,,AFNE09.jpg,AFNE04.jpg,AFSA07.jpg,AFSA10.jpg,AFNE04.jpg,FN,3,num_6,32,num_2,1.43340221746,,,2017_May_10_1715,60.004407249,FEMA4ImagesEEG,001,100439,
AFSA21.JPG,AFNE23.JPG,AFNE21.JPG,AFSA25.JPG,AFNE25.JPG,AFSA23.JPG,,,,,,,,,,,,,0,0,0,4,,,,,,,,,,,AMNE07.jpg,AMNE17.jpg,AMSA19.jpg,AMSA03.jpg,AMSA19.jpg,MS,2,num_2,16,num_2,1.33341148682,,,2017_May_10_1715,60.004407249,FEMA4ImagesEEG,001,100439,
AFSA21.JPG,AFNE22.JPG,AFNE21.JPG,AFSA23.JPG,AFSA22.JPG,AFNE23.JPG,,,,,,,,,,,,,0,1,1,0,,,,,,,,,,,AMNE19.jpg,AMSA03.jpg,AMSA05.jpg,AMNE20.jpg,AMNE20.jpg,MN,1,num_4,16,num_4,0.933494429803,,,2017_May_10_1715,60.004407249,FEMA4ImagesEEG,001,100439,
AFNE23.JPG,AFNE24.JPG,AFNE22.JPG,AFSA24.JPG,AFSA22.JPG,AFSA23.JPG,,,,,,,,,,,,,0,2,2,8,,,,,,,,,,,AMNE10.jpg,AMSA02.jpg,AMNE14.jpg,AMSA01.jpg,AMSA01.jpg,MS,2,num_4,16,num_4,3.08316636179,,,2017_May_10_1715,60.004407249,FEMA4ImagesEEG,001,100439,
AFSA25.JPG,AFNE24.JPG,AFSA24.JPG,AFNE21.JPG,AFSA21.JPG,AFNE25.JPG,,,,,,,,,,,,,0,3,3,2,,,,,,,,,,,AMNE19.jpg,AMSA06.jpg,AMSA12.jpg,AMNE20.jpg,AMSA12.jpg,MS,2,num_2,16,num_2,1.08342391532,,,2017_May_10_1715,60.004407249,FEMA4ImagesEEG,001,100439,
AFNE22.JPG,AFSA24.JPG,AFSA22.JPG,AFNE25.JPG,AFNE24.JPG,AFSA25.JPG,,,,,,,,,,,,,0,4,4,6,,,,,,,,,,,AMNE11.jpg,AMSA13.jpg,AMNE04.jpg,AMSA17.jpg,AMNE04.jpg,MN,1,num_2,16,num_2,1.10013442161,,,2017_May_10_1715,60.004407249,FEMA4ImagesEEG,001,100439,
AMSA21.JPG,AMNE23.JPG,AMNE21.JPG,AMSA25.JPG,AMNE25.JPG,AMSA23.JPG,,,,,,,,,,,,,0,5,5,5,,,,,,,,,,,AMSA15.jpg,AMNE01.jpg,AMSA12.jpg,AMNE18.jpg,AMSA12.jpg,MS,2,num_2,16,num_2,1.1834390224,,,2017_May_10_1715,60.004407249,FEMA4ImagesEEG,001,100439,
AMNE23.JPG,AMNE24.JPG,AMNE22.JPG,AMSA24.JPG,AMSA22.JPG,AMSA23.JPG,,,,,,,,,,,,,0,6,6,9,,,,,,,,,,,AMNE13.jpg,AMSA03.jpg,AMNE12.jpg,AMSA17.jpg,AMNE13.jpg,MN,1,num_8,32,num_4,1.93336132308,,,2017_May_10_1715,60.004407249,FEMA4ImagesEEG,001,100439,
AMSA25.JPG,AMNE24.JPG,AMSA24.JPG,AMNE26.JPG,AMSA21.JPG,AMNE25.JPG,,,,,,,,,,,,,0,7,7,3,,,,,,,,,,,AMNE20.jpg,AMNE01.jpg,AMSA09.jpg,AMSA04.jpg,AMNE20.jpg,MN,1,num_8,32,num_4,2.31666217092,,,2017_May_10_1715,60.004407249,FEMA4ImagesEEG,001,100439,
AMSA21.JPG,AMNE22.JPG,AMNE21.JPG,AMSA23.JPG,AMSA22.JPG,AMNE23.JPG,,,,,,,,,,,,,0,8,8,1,,,,,,,,,,,AMSA13.jpg,AMNE03.jpg,AMNE11.jpg,AMSA14.jpg,AMSA14.jpg,MS,2,num_4,16,num_4,0.800131759606,,,2017_May_10_1715,60.004407249,FEMA4ImagesEEG,001,100439,
AMNE22.JPG,AMSA24.JPG,AMSA22.JPG,AMNE25.JPG,AMNE24.JPG,AMSA25.JPG,,,,,,,,,,,,,0,9,9,7,,,,,,,,,,,AMNE09.jpg,AMNE15.jpg,AMSA16.jpg,AMSA19.jpg,AMSA19.jpg,MS,2,num_4,32,num_2,1.1166460698,,,2017_May_10_1715,60.004407249,FEMA4ImagesEEG,001,100439,
AMNE22.JPG,AMSA24.JPG,AMSA22.JPG,AMNE25.JPG,AMNE24.JPG,AMSA25.JPG,,,,,,,,,,,,,,,,,0,0,0,7,,,,,,,AFNE05.jpg,AFSA17.jpg,AFNE07.jpg,AFSA15.jpg,AFSA15.jpg,FS,4,num_4,16,num_4,0.933442149544,,,2017_May_10_1715,60.004407249,FEMA4ImagesEEG,001,100439,
AFSA21.JPG,AFNE22.JPG,AFNE21.JPG,AFSA23.JPG,AFSA22.JPG,AFNE23.JPG,,,,,,,,,,,,,,,,,0,1,1,0,,,,,,,AFSA09.jpg,AFNE05.jpg,AFSA10.jpg,AFNE07.jpg,AFSA09.jpg,FS,4,num_8,16,num_8,2.78357424587,,,2017_May_10_1715,60.004407249,FEMA4ImagesEEG,001,100439,
AFNE22.JPG,AFSA24.JPG,AFSA22.JPG,AFNE25.JPG,AFNE24.JPG,AFSA25.JPG,,,,,,,,,,,,,,,,,0,2,2,6,,,,,,,AFSA19.jpg,AFSA07.jpg,AFNE20.jpg,AFNE07.jpg,AFNE20.jpg,FN,3,num_2,16,num_2,1.83342768415,,,2017_May_10_1715,60.004407249,FEMA4ImagesEEG,001,100439,
AMSA21.JPG,AMNE22.JPG,AMNE21.JPG,AMSA23.JPG,AMSA22.JPG,AMNE23.JPG,,,,,,,,,,,,,,,,,0,3,3,1,,,,,,,AFNE19.jpg,AFNE06.jpg,AFSA11.jpg,AFSA17.jpg,AFSA11.jpg,FS,4,num_2,16,num_2,1.03357176017,,,2017_May_10_1715,60.004407249,FEMA4ImagesEEG,001,100439,
AMSA25.JPG,AMNE24.JPG,AMSA24.JPG,AMNE26.JPG,AMSA21.JPG,AMNE25.JPG,,,,,,,,,,,,,,,,,0,4,4,3,,,,,,,AFNE11.jpg,AFNE10.jpg,AFSA16.jpg,AFSA03.jpg,AFSA03.jpg,FS,4,num_4,32,num_2,3.49988854327,,,2017_May_10_1715,60.004407249,FEMA4ImagesEEG,001,100439,
AFNE23.JPG,AFNE24.JPG,AFNE22.JPG,AFSA24.JPG,AFSA22.JPG,AFSA23.JPG,,,,,,,,,,,,,,,,,0,5,5,8,,,,,,,AFSA19.jpg,AFNE02.jpg,AFNE10.jpg,AFSA18.jpg,AFSA18.jpg,FS,4,num_4,16,num_4,0.933456582716,,,2017_May_10_1715,60.004407249,FEMA4ImagesEEG,001,100439,
AFSA25.JPG,AFNE24.JPG,AFSA24.JPG,AFNE21.JPG,AFSA21.JPG,AFNE25.JPG,,,,,,,,,,,,,,,,,0,6,6,2,,,,,,,AFSA05.jpg,AFNE03.jpg,AFSA14.jpg,AFNE06.jpg,AFNE06.jpg,FN,3,num_4,16,num_4,0.816765609197,,,2017_May_10_1715,60.004407249,FEMA4ImagesEEG,001,100439,
AMSA21.JPG,AMNE23.JPG,AMNE21.JPG,AMSA25.JPG,AMNE25.JPG,AMSA23.JPG,,,,,,,,,,,,,,,,,0,7,7,5,,,,,,,AFSA11.jpg,AFNE07.jpg,AFSA10.jpg,AFNE11.jpg,AFNE11.jpg,FN,3,num_4,32,num_8,1.08355477685,,,2017_May_10_1715,60.004407249,FEMA4ImagesEEG,001,100439,
AMNE23.JPG,AMNE24.JPG,AMNE22.JPG,AMSA24.JPG,AMSA22.JPG,AMSA23.JPG,,,,,,,,,,,,,,,,,0,8,8,9,,,,,,,AFSA18.jpg,AFNE04.jpg,AFSA02.jpg,AFNE03.jpg,AFNE03.jpg,FN,3,num_4,16,num_4,0.766610997031,,,2017_May_10_1715,60.004407249,FEMA4ImagesEEG,001,100439,
AFSA21.JPG,AFNE23.JPG,AFNE21.JPG,AFSA25.JPG,AFNE25.JPG,AFSA23.JPG,,,,,,,,,,,,,,,,,0,9,9,4,,,,,,,AFNE15.jpg,AFSA01.jpg,AFSA15.jpg,AFNE06.jpg,AFNE06.jpg,FN,3,num_4,16,num_4,0.883615332423,,,2017_May_10_1715,60.004407249,FEMA4ImagesEEG,001,100439,
AFNE23.JPG,AFNE24.JPG,AFNE22.JPG,AFSA24.JPG,AFSA22.JPG,AFSA23.JPG,,,,,,,,,,,,,,,,,,,,,0,0,0,8,,,AMNE15.jpg,AMSA19.jpg,AMSA13.jpg,AMNE12.jpg,AMNE15.jpg,MN,1,num_8,32,num_2,1.65003645211,,,2017_May_10_1715,60.004407249,FEMA4ImagesEEG,001,100439,
AMNE22.JPG,AMSA24.JPG,AMSA22.JPG,AMNE25.JPG,AMNE24.JPG,AMSA25.JPG,,,,,,,,,,,,,,,,,,,,,0,1,1,7,,,AMNE16.jpg,AMSA07.jpg,AMNE15.jpg,AMSA10.jpg,AMSA10.jpg,MS,2,num_4,16,num_4,1.38340316364,,,2017_May_10_1715,60.004407249,FEMA4ImagesEEG,001,100439,
AFSA25.JPG,AFNE24.JPG,AFSA24.JPG,AFNE21.JPG,AFSA21.JPG,AFNE25.JPG,,,,,,,,,,,,,,,,,,,,,0,2,2,2,,,AMNE14.jpg,AMNE07.jpg,AMSA13.jpg,AMSA01.jpg,AMNE14.jpg,MN,1,num_8,16,num_8,0.88346907543,,,2017_May_10_1715,60.004407249,FEMA4ImagesEEG,001,100439,
AMSA21.JPG,AMNE22.JPG,AMNE21.JPG,AMSA23.JPG,AMSA22.JPG,AMNE23.JPG,,,,,,,,,,,,,,,,,,,,,0,3,3,1,,,AMSA19.jpg,AMSA08.jpg,AMNE01.jpg,AMNE03.jpg,AMNE03.jpg,MN,1,num_4,16,num_4,0.783433120465,,,2017_May_10_1715,60.004407249,FEMA4ImagesEEG,001,100439,
AMSA25.JPG,AMNE24.JPG,AMSA24.JPG,AMNE26.JPG,AMSA21.JPG,AMNE25.JPG,,,,,,,,,,,,,,,,,,,,,0,4,4,3,,,AMNE12.jpg,AMSA06.jpg,AMSA08.jpg,AMNE01.jpg,AMSA08.jpg,MS,2,num_2,16,num_2,1.43338938779,,,2017_May_10_1715,60.004407249,FEMA4ImagesEEG,001,100439,
AMNE23.JPG,AMNE24.JPG,AMNE22.JPG,AMSA24.JPG,AMSA22.JPG,AMSA23.JPG,,,,,,,,,,,,,,,,,,,,,0,5,5,9,,,AMSA14.jpg,AMNE18.jpg,AMSA20.jpg,AMNE10.jpg,AMSA14.jpg,MS,2,num_8,32,num_2,1.78337378381,,,2017_May_10_1715,60.004407249,FEMA4ImagesEEG,001,100439,
AFSA21.JPG,AFNE22.JPG,AFNE21.JPG,AFSA23.JPG,AFSA22.JPG,AFNE23.JPG,,,,,,,,,,,,,,,,,,,,,0,6,6,0,,,AMNE09.jpg,AMSA10.jpg,AMSA05.jpg,AMNE11.jpg,AMNE11.jpg,MN,1,num_4,32,num_2,1.98345435364,,,2017_May_10_1715,60.004407249,FEMA4ImagesEEG,001,100439,
AMSA21.JPG,AMNE23.JPG,AMNE21.JPG,AMSA25.JPG,AMNE25.JPG,AMSA23.JPG,,,,,,,,,,,,,,,,,,,,,0,7,7,5,,,AMNE02.jpg,AMSA18.jpg,AMNE01.jpg,AMSA20.jpg,AMSA18.jpg,MS,2,num_6,16,num_6,2.16666533006,,,2017_May_10_1715,60.004407249,FEMA4ImagesEEG,001,100439,
AFNE22.JPG,AFSA24.JPG,AFSA22.JPG,AFNE25.JPG,AFNE24.JPG,AFSA25.JPG,,,,,,,,,,,,,,,,,,,,,0,8,8,6,,,AMNE12.jpg,AMSA07.jpg,AMNE09.jpg,AMSA19.jpg,AMNE09.jpg,MN,1,num_2,32,num_4,1.2667240575,,,2017_May_10_1715,60.004407249,FEMA4ImagesEEG,001,100439,
AFSA21.JPG,AFNE23.JPG,AFNE21.JPG,AFSA25.JPG,AFNE25.JPG,AFSA23.JPG,,,,,,,,,,,,,,,,,,,,,0,9,9,4,,,AMSA04.jpg,AMSA20.jpg,AMNE02.jpg,AMNE14.jpg,AMNE02.jpg,MN,1,num_2,16,num_2,1.60000436218,,,2017_May_10_1715,60.004407249,FEMA4ImagesEEG,001,100439,
,,,,,,,,,,,,,,,,,,,,,,,,,,,,,,,,,,,,,,,,,,,space,18.7156359341,2017_May_10_1715,60.004407249,FEMA4ImagesEEG,001,100439,
AFNE01.JPG,AFNE01.JPG,AFNE01.JPG,AFNE01.JPG,AFNE01.JPG,AFNE01.JPG,0,0,0,3,,,,,,,,,,,,,,,,,,,,,,,AFNE05.jpg,AFSA09.jpg,AFNE01.jpg,AFSA12.jpg,AFSA12.jpg,FS,4,num_4,32,num_2,1.66677422123,,,2017_May_10_1715,60.004407249,FEMA4ImagesEEG,001,100439,
AFNE01.JPG,AFNE01.JPG,AFNE01.JPG,AFNE01.JPG,AFNE01.JPG,AFNE01.JPG,0,1,1,5,,,,,,,,,,,,,,,,,,,,,,,AFSA14.jpg,AFNE10.jpg,AFNE09.jpg,AFSA06.jpg,AFSA06.jpg,FS,4,num_4,32,num_6,2.11682568374,,,2017_May_10_1715,60.004407249,FEMA4ImagesEEG,001,100439,
AFNE01.JPG,AFNE01.JPG,AFNE01.JPG,AFNE01.JPG,AFNE01.JPG,AFNE01.JPG,0,2,2,7,,,,,,,,,,,,,,,,,,,,,,,AFNE20.jpg,AFSA14.jpg,AFSA05.jpg,AFNE14.jpg,AFSA05.jpg,FS,4,num_2,16,num_2,1.23340985086,,,2017_May_10_1715,60.004407249,FEMA4ImagesEEG,001,100439,
AFNE01.JPG,AFNE01.JPG,AFNE01.JPG,AFNE01.JPG,AFNE01.JPG,AFNE01.JPG,0,3,3,8,,,,,,,,,,,,,,,,,,,,,,,AFSA19.jpg,AFNE16.jpg,AFSA05.jpg,AFNE15.jpg,AFSA19.jpg,FS,4,num_8,16,num_8,1.66670814878,,,2017_May_10_1715,60.004407249,FEMA4ImagesEEG,001,100439,
AFNE01.JPG,AFNE01.JPG,AFNE01.JPG,AFNE01.JPG,AFNE01.JPG,AFNE01.JPG,0,4,4,6,,,,,,,,,,,,,,,,,,,,,,,AFSA16.jpg,AFNE10.jpg,AFNE19.jpg,AFSA09.jpg,AFNE19.jpg,FN,3,num_2,16,num_2,1.83335776301,,,2017_May_10_1715,60.004407249,FEMA4ImagesEEG,001,100439,
AFNE01.JPG,AFNE01.JPG,AFNE01.JPG,AFNE01.JPG,AFNE01.JPG,AFNE01.JPG,0,5,5,1,,,,,,,,,,,,,,,,,,,,,,,AFSA19.jpg,AFSA10.jpg,AFNE12.jpg,AFNE01.jpg,AFSA19.jpg,FS,4,num_8,32,num_2,1.6000678686,,,2017_May_10_1715,60.004407249,FEMA4ImagesEEG,001,100439,
AFNE01.JPG,AFNE01.JPG,AFNE01.JPG,AFNE01.JPG,AFNE01.JPG,AFNE01.JPG,0,6,6,2,,,,,,,,,,,,,,,,,,,,,,,AFNE10.jpg,AFSA18.jpg,AFNE05.jpg,AFSA11.jpg,AFNE05.jpg,FN,3,num_2,32,num_6,1.53343464411,,,2017_May_10_1715,60.004407249,FEMA4ImagesEEG,001,100439,
AFNE01.JPG,AFNE01.JPG,AFNE01.JPG,AFNE01.JPG,AFNE01.JPG,AFNE01.JPG,0,7,7,0,,,,,,,,,,,,,,,,,,,,,,,AFNE19.jpg,AFSA15.jpg,AFNE11.jpg,AFSA17.jpg,AFNE19.jpg,FN,3,num_8,16,num_8,2.09992433758,,,2017_May_10_1715,60.004407249,FEMA4ImagesEEG,001,100439,
AFNE01.JPG,AFNE01.JPG,AFNE01.JPG,AFNE01.JPG,AFNE01.JPG,AFNE01.JPG,0,8,8,9,,,,,,,,,,,,,,,,,,,,,,,AFSA12.jpg,AFNE19.jpg,AFNE04.jpg,AFSA14.jpg,AFSA12.jpg,FS,4,num_8,32,num_2,2.00002245163,,,2017_May_10_1715,60.004407249,FEMA4ImagesEEG,001,100439,
AFNE01.JPG,AFNE01.JPG,AFNE01.JPG,AFNE01.JPG,AFNE01.JPG,AFNE01.JPG,0,9,9,4,,,,,,,,,,,,,,,,,,,,,,,AFSA20.jpg,AFSA15.jpg,AFNE05.jpg,AFNE14.jpg,AFNE14.jpg,FN,3,num_4,16,num_4,1.38339482434,,,2017_May_10_1715,60.004407249,FEMA4ImagesEEG,001,100439,
AFNE01.JPG,AFNE01.JPG,AFNE01.JPG,AFNE01.JPG,AFNE01.JPG,AFNE01.JPG,1,0,10,2,,,,,,,,,,,,,,,,,,,,,,,AFNE01.jpg,AFNE10.jpg,AFSA19.jpg,AFSA14.jpg,AFSA19.jpg,FS,4,num_2,16,num_2,1.16674743942,,,2017_May_10_1715,60.004407249,FEMA4ImagesEEG,001,100439,
AFNE01.JPG,AFNE01.JPG,AFNE01.JPG,AFNE01.JPG,AFNE01.JPG,AFNE01.JPG,1,1,11,1,,,,,,,,,,,,,,,,,,,,,,,AFSA06.jpg,AFSA13.jpg,AFNE15.jpg,AFNE03.jpg,AFSA06.jpg,FS,4,num_8,16,num_8,1.50004313956,,,2017_May_10_1715,60.004407249,FEMA4ImagesEEG,001,100439,
AFNE01.JPG,AFNE01.JPG,AFNE01.JPG,AFNE01.JPG,AFNE01.JPG,AFNE01.JPG,1,2,12,8,,,,,,,,,,,,,,,,,,,,,,,AFNE07.jpg,AFNE01.jpg,AFSA01.jpg,AFSA20.jpg,AFNE07.jpg,FN,3,num_8,16,num_8,2.88328080159,,,2017_May_10_1715,60.004407249,FEMA4ImagesEEG,001,100439,
AFNE01.JPG,AFNE01.JPG,AFNE01.JPG,AFNE01.JPG,AFNE01.JPG,AFNE01.JPG,1,3,13,0,,,,,,,,,,,,,,,,,,,,,,,AFSA05.jpg,AFNE03.jpg,AFNE04.jpg,AFSA20.jpg,AFSA05.jpg,FS,4,num_8,16,num_8,0.883434435586,,,2017_May_10_1715,60.004407249,FEMA4ImagesEEG,001,100439,
AFNE01.JPG,AFNE01.JPG,AFNE01.JPG,AFNE01.JPG,AFNE01.JPG,AFNE01.JPG,1,4,14,3,,,,,,,,,,,,,,,,,,,,,,,AFNE13.jpg,AFNE18.jpg,AFSA03.jpg,AFSA02.jpg,AFSA03.jpg,FS,4,num_2,16,num_2,1.11683049472,,,2017_May_10_1715,60.004407249,FEMA4ImagesEEG,001,100439,
AFNE01.JPG,AFNE01.JPG,AFNE01.JPG,AFNE01.JPG,AFNE01.JPG,AFNE01.JPG,1,5,15,4,,,,,,,,,,,,,,,,,,,,,,,AFNE20.jpg,AFSA15.jpg,AFNE15.jpg,AFSA12.jpg,AFSA15.jpg,FS,4,num_6,16,num_6,1.43338553887,,,2017_May_10_1715,60.004407249,FEMA4ImagesEEG,001,100439,
AFNE01.JPG,AFNE01.JPG,AFNE01.JPG,AFNE01.JPG,AFNE01.JPG,AFNE01.JPG,1,6,16,7,,,,,,,,,,,,,,,,,,,,,,,AFSA06.jpg,AFNE16.jpg,AFNE17.jpg,AFSA14.jpg,AFNE17.jpg,FN,3,num_2,16,num_2,1.01677497476,,,2017_May_10_1715,60.004407249,FEMA4ImagesEEG,001,100439,
AFNE01.JPG,AFNE01.JPG,AFNE01.JPG,AFNE01.JPG,AFNE01.JPG,AFNE01.JPG,1,7,17,5,,,,,,,,,,,,,,,,,,,,,,,AFNE16.jpg,AFSA05.jpg,AFNE14.jpg,AFSA09.jpg,AFNE14.jpg,FN,3,num_2,16,num_2,1.05014082044,,,2017_May_10_1715,60.004407249,FEMA4ImagesEEG,001,100439,
AFNE01.JPG,AFNE01.JPG,AFNE01.JPG,AFNE01.JPG,AFNE01.JPG,AFNE01.JPG,1,8,18,6,,,,,,,,,,,,,,,,,,,,,,,AFNE04.jpg,AFSA03.jpg,AFSA05.jpg,AFNE16.jpg,AFNE16.jpg,FN,3,num_4,16,num_4,1.4667606859,,,2017_May_10_1715,60.004407249,FEMA4ImagesEEG,001,100439,
AFNE01.JPG,AFNE01.JPG,AFNE01.JPG,AFNE01.JPG,AFNE01.JPG,AFNE01.JPG,1,9,19,9,,,,,,,,,,,,,,,,,,,,,,,AFNE03.jpg,AFNE08.jpg,AFSA07.jpg,AFSA15.jpg,AFNE03.jpg,FN,3,num_8,32,num_4,1.10008310364,,,2017_May_10_1715,60.004407249,FEMA4ImagesEEG,001,100439,
AFNE01.JPG,AFNE01.JPG,AFNE01.JPG,AFNE01.JPG,AFNE01.JPG,AFNE01.JPG,2,0,20,3,,,,,,,,,,,,,,,,,,,,,,,AFSA11.jpg,AFNE03.jpg,AFNE17.jpg,AFSA20.jpg,AFNE03.jpg,FN,3,num_6,16,num_6,0.933483845554,,,2017_May_10_1715,60.004407249,FEMA4ImagesEEG,001,100439,
AFNE01.JPG,AFNE01.JPG,AFNE01.JPG,AFNE01.JPG,AFNE01.JPG,AFNE01.JPG,2,1,21,9,,,,,,,,,,,,,,,,,,,,,,,AFSA01.jpg,AFSA10.jpg,AFNE03.jpg,AFNE19.jpg,AFSA10.jpg,FS,4,num_6,16,num_6,1.03344955854,,,2017_May_10_1715,60.004407249,FEMA4ImagesEEG,001,100439,
AFNE01.JPG,AFNE01.JPG,AFNE01.JPG,AFNE01.JPG,AFNE01.JPG,AFNE01.JPG,2,2,22,2,,,,,,,,,,,,,,,,,,,,,,,AFNE11.jpg,AFSA09.jpg,AFSA03.jpg,AFNE14.jpg,AFNE11.jpg,FN,3,num_8,32,num_4,1.21673270129,,,2017_May_10_1715,60.004407249,FEMA4ImagesEEG,001,100439,
AFNE01.JPG,AFNE01.JPG,AFNE01.JPG,AFNE01.JPG,AFNE01.JPG,AFNE01.JPG,2,3,23,4,,,,,,,,,,,,,,,,,,,,,,,AFSA01.jpg,AFSA04.jpg,AFNE11.jpg,AFNE04.jpg,AFNE04.jpg,FN,3,num_4,16,num_4,1.8165523177,,,2017_May_10_1715,60.004407249,FEMA4ImagesEEG,001,100439,
AFNE01.JPG,AFNE01.JPG,AFNE01.JPG,AFNE01.JPG,AFNE01.JPG,AFNE01.JPG,2,4,24,5,,,,,,,,,,,,,,,,,,,,,,,AFSA13.jpg,AFNE08.jpg,AFSA16.jpg,AFNE11.jpg,AFNE11.jpg,FN,3,num_4,32,num_6,1.70005442947,,,2017_May_10_1715,60.004407249,FEMA4ImagesEEG,001,100439,
AFNE01.JPG,AFNE01.JPG,AFNE01.JPG,AFNE01.JPG,AFNE01.JPG,AFNE01.JPG,2,5,25,0,,,,,,,,,,,,,,,,,,,,,,,AFSA03.jpg,AFNE15.jpg,AFSA19.jpg,AFNE17.jpg,AFNE17.jpg,FN,3,num_4,32,num_2,1.23340504011,,,2017_May_10_1715,60.004407249,FEMA4ImagesEEG,001,100439,
AFNE01.JPG,AFNE01.JPG,AFNE01.JPG,AFNE01.JPG,AFNE01.JPG,AFNE01.JPG,2,6,26,7,,,,,,,,,,,,,,,,,,,,,,,AFNE16.jpg,AFNE04.jpg,AFSA17.jpg,AFSA03.jpg,AFSA17.jpg,FS,4,num_2,16,num_2,0.950136618922,,,2017_May_10_1715,60.004407249,FEMA4ImagesEEG,001,100439,
AFNE01.JPG,AFNE01.JPG,AFNE01.JPG,AFNE01.JPG,AFNE01.JPG,AFNE01.JPG,2,7,27,6,,,,,,,,,,,,,,,,,,,,,,,AFNE03.jpg,AFSA13.jpg,AFNE06.jpg,AFSA05.jpg,AFNE06.jpg,FN,3,num_2,32,num_6,1.9000779076,,,2017_May_10_1715,60.004407249,FEMA4ImagesEEG,001,100439,
AFNE01.JPG,AFNE01.JPG,AFNE01.JPG,AFNE01.JPG,AFNE01.JPG,AFNE01.JPG,2,8,28,8,,,,,,,,,,,,,,,,,,,,,,,AFNE13.jpg,AFSA08.jpg,AFNE15.jpg,AFSA01.jpg,AFSA08.jpg,FS,4,num_6,16,num_6,2.08335880539,,,2017_May_10_1715,60.004407249,FEMA4ImagesEEG,001,100439,
AFNE01.JPG,AFNE01.JPG,AFNE01.JPG,AFNE01.JPG,AFNE01.JPG,AFNE01.JPG,2,9,29,1,,,,,,,,,,,,,,,,,,,,,,,AFNE14.jpg,AFSA19.jpg,AFSA14.jpg,AFNE11.jpg,AFSA19.jpg,FS,4,num_6,16,num_6,1.15009274171,,,2017_May_10_1715,60.004407249,FEMA4ImagesEEG,001,100439,
AFNE01.JPG,AFNE01.JPG,AFNE01.JPG,AFNE01.JPG,AFNE01.JPG,AFNE01.JPG,3,0,30,6,,,,,,,,,,,,,,,,,,,,,,,AFNE08.jpg,AFSA06.jpg,AFNE07.jpg,AFSA15.jpg,AFNE08.jpg,FN,3,num_8,32,num_4,1.91675441572,,,2017_May_10_1715,60.004407249,FEMA4ImagesEEG,001,100439,
AFNE01.JPG,AFNE01.JPG,AFNE01.JPG,AFNE01.JPG,AFNE01.JPG,AFNE01.JPG,3,1,31,8,,,,,,,,,,,,,,,,,,,,,,,AFSA04.jpg,AFNE06.jpg,AFSA12.jpg,AFNE08.jpg,AFSA12.jpg,FS,4,num_2,16,num_2,0.800142664695,,,2017_May_10_1715,60.004407249,FEMA4ImagesEEG,001,100439,
AFNE01.JPG,AFNE01.JPG,AFNE01.JPG,AFNE01.JPG,AFNE01.JPG,AFNE01.JPG,3,2,32,9,,,,,,,,,,,,,,,,,,,,,,,AFNE14.jpg,AFNE19.jpg,AFSA10.jpg,AFSA04.jpg,AFSA10.jpg,FS,4,num_2,16,num_2,3.61653076415,,,2017_May_10_1715,60.004407249,FEMA4ImagesEEG,001,100439,
AFNE01.JPG,AFNE01.JPG,AFNE01.JPG,AFNE01.JPG,AFNE01.JPG,AFNE01.JPG,3,3,33,7,,,,,,,,,,,,,,,,,,,,,,,AFSA18.jpg,AFSA11.jpg,AFNE15.jpg,AFNE09.jpg,AFNE09.jpg,FN,3,num_4,16,num_4,1.1167227265,,,2017_May_10_1715,60.004407249,FEMA4ImagesEEG,001,100439,
AFNE01.JPG,AFNE01.JPG,AFNE01.JPG,AFNE01.JPG,AFNE01.JPG,AFNE01.JPG,3,4,34,3,,,,,,,,,,,,,,,,,,,,,,,AFSA11.jpg,AFSA07.jpg,AFNE07.jpg,AFNE16.jpg,AFNE07.jpg,FN,3,num_2,16,num_2,1.03345693555,,,2017_May_10_1715,60.004407249,FEMA4ImagesEEG,001,100439,
AFNE01.JPG,AFNE01.JPG,AFNE01.JPG,AFNE01.JPG,AFNE01.JPG,AFNE01.JPG,3,5,35,1,,,,,,,,,,,,,,,,,,,,,,,AFNE16.jpg,AFSA14.jpg,AFNE17.jpg,AFSA10.jpg,AFSA14.jpg,FS,4,num_6,32,num_2,2.03319617477,,,2017_May_10_1715,60.004407249,FEMA4ImagesEEG,001,100439,
AFNE01.JPG,AFNE01.JPG,AFNE01.JPG,AFNE01.JPG,AFNE01.JPG,AFNE01.JPG,3,6,36,5,,,,,,,,,,,,,,,,,,,,,,,AFSA13.jpg,AFSA02.jpg,AFNE13.jpg,AFNE20.jpg,AFNE20.jpg,FN,3,num_4,16,num_4,1.16676058969,,,2017_May_10_1715,60.004407249,FEMA4ImagesEEG,001,100439,
AFNE01.JPG,AFNE01.JPG,AFNE01.JPG,AFNE01.JPG,AFNE01.JPG,AFNE01.JPG,3,7,37,4,,,,,,,,,,,,,,,,,,,,,,,AFNE04.jpg,AFNE20.jpg,AFSA11.jpg,AFSA06.jpg,AFNE20.jpg,FN,3,num_6,16,num_6,1.61686465354,,,2017_May_10_1715,60.004407249,FEMA4ImagesEEG,001,100439,
AFNE01.JPG,AFNE01.JPG,AFNE01.JPG,AFNE01.JPG,AFNE01.JPG,AFNE01.JPG,3,8,38,2,,,,,,,,,,,,,,,,,,,,,,,AFNE20.jpg,AFSA04.jpg,AFSA07.jpg,AFNE05.jpg,AFNE20.jpg,FN,3,num_8,16,num_8,1.31673562038,,,2017_May_10_1715,60.004407249,FEMA4ImagesEEG,001,100439,
AFNE01.JPG,AFNE01.JPG,AFNE01.JPG,AFNE01.JPG,AFNE01.JPG,AFNE01.JPG,3,9,39,0,,,,,,,,,,,,,,,,,,,,,,,AFSA13.jpg,AFSA16.jpg,AFNE06.jpg,AFNE11.jpg,AFNE06.jpg,FN,3,num_2,16,num_2,0.933425150346,,,2017_May_10_1715,60.004407249,FEMA4ImagesEEG,001,100439,
AFNE01.JPG,AFNE01.JPG,AFNE01.JPG,AFNE01.JPG,AFNE01.JPG,AFNE01.JPG,4,0,40,6,,,,,,,,,,,,,,,,,,,,,,,AFSA02.jpg,AFNE18.jpg,AFSA10.jpg,AFNE14.jpg,AFNE18.jpg,FN,3,num_6,16,num_6,2.20003502467,,,2017_May_10_1715,60.004407249,FEMA4ImagesEEG,001,100439,
AFNE01.JPG,AFNE01.JPG,AFNE01.JPG,AFNE01.JPG,AFNE01.JPG,AFNE01.JPG,4,1,41,1,,,,,,,,,,,,,,,,,,,,,,,AFNE11.jpg,AFSA04.jpg,AFNE19.jpg,AFSA01.jpg,AFSA01.jpg,FS,4,num_4,16,num_4,1.9166508168,,,2017_May_10_1715,60.004407249,FEMA4ImagesEEG,001,100439,
AFNE01.JPG,AFNE01.JPG,AFNE01.JPG,AFNE01.JPG,AFNE01.JPG,AFNE01.JPG,4,2,42,3,,,,,,,,,,,,,,,,,,,,,,,AFSA18.jpg,AFNE14.jpg,AFSA20.jpg,AFNE04.jpg,AFNE04.jpg,FN,3,num_4,16,num_4,1.600197447,,,2017_May_10_1715,60.004407249,FEMA4ImagesEEG,001,100439,
AFNE01.JPG,AFNE01.JPG,AFNE01.JPG,AFNE01.JPG,AFNE01.JPG,AFNE01.JPG,4,3,43,5,,,,,,,,,,,,,,,,,,,,,,,AFNE14.jpg,AFSA19.jpg,AFSA05.jpg,AFNE03.jpg,AFNE14.jpg,FN,3,num_8,32,num_6,3.5165323359,,,2017_May_10_1715,60.004407249,FEMA4ImagesEEG,001,100439,
AFNE01.JPG,AFNE01.JPG,AFNE01.JPG,AFNE01.JPG,AFNE01.JPG,AFNE01.JPG,4,4,44,7,,,,,,,,,,,,,,,,,,,,,,,AFSA13.jpg,AFNE03.jpg,AFNE05.jpg,AFSA03.jpg,AFNE03.jpg,FN,3,num_6,32,num_2,1.19978452753,,,2017_May_10_1715,60.004407249,FEMA4ImagesEEG,001,100439,
AFNE01.JPG,AFNE01.JPG,AFNE01.JPG,AFNE01.JPG,AFNE01.JPG,AFNE01.JPG,4,5,45,8,,,,,,,,,,,,,,,,,,,,,,,AFSA02.jpg,AFNE18.jpg,AFSA14.jpg,AFNE17.jpg,AFSA02.jpg,FS,4,num_8,32,num_2,2.25003439933,,,2017_May_10_1715,60.004407249,FEMA4ImagesEEG,001,100439,
AFNE01.JPG,AFNE01.JPG,AFNE01.JPG,AFNE01.JPG,AFNE01.JPG,AFNE01.JPG,4,6,46,0,,,,,,,,,,,,,,,,,,,,,,,AFNE02.jpg,AFSA19.jpg,AFSA02.jpg,AFNE19.jpg,AFSA02.jpg,FS,4,num_2,16,num_2,1.66673380812,,,2017_May_10_1715,60.004407249,FEMA4ImagesEEG,001,100439,
AFNE01.JPG,AFNE01.JPG,AFNE01.JPG,AFNE01.JPG,AFNE01.JPG,AFNE01.JPG,4,7,47,4,,,,,,,,,,,,,,,,,,,,,,,AFNE19.jpg,AFSA06.jpg,AFSA07.jpg,AFNE15.jpg,AFSA07.jpg,FS,4,num_2,32,num_6,1.55004668352,,,2017_May_10_1715,60.004407249,FEMA4ImagesEEG,001,100439,
AFNE01.JPG,AFNE01.JPG,AFNE01.JPG,AFNE01.JPG,AFNE01.JPG,AFNE01.JPG,4,8,48,2,,,,,,,,,,,,,,,,,,,,,,,AFSA18.jpg,AFNE02.jpg,AFSA19.jpg,AFNE20.jpg,AFNE20.jpg,FN,3,num_4,16,num_4,1.03340850398,,,2017_May_10_1715,60.004407249,FEMA4ImagesEEG,001,100439,
AFNE01.JPG,AFNE01.JPG,AFNE01.JPG,AFNE01.JPG,AFNE01.JPG,AFNE01.JPG,4,9,49,9,,,,,,,,,,,,,,,,,,,,,,,AFNE02.jpg,AFSA12.jpg,AFSA08.jpg,AFNE07.jpg,AFSA08.jpg,FS,4,num_2,16,num_2,1.01676920149,,,2017_May_10_1715,60.004407249,FEMA4ImagesEEG,001,100439,
AFNE01.JPG,AFNE01.JPG,AFNE01.JPG,AFNE01.JPG,AFNE01.JPG,AFNE01.JPG,5,0,50,1,,,,,,,,,,,,,,,,,,,,,,,AFNE05.jpg,AFSA19.jpg,AFSA17.jpg,AFNE19.jpg,AFSA19.jpg,FS,4,num_6,32,num_2,1.51671932684,,,2017_May_10_1715,60.004407249,FEMA4ImagesEEG,001,100439,
AFNE01.JPG,AFNE01.JPG,AFNE01.JPG,AFNE01.JPG,AFNE01.JPG,AFNE01.JPG,5,1,51,8,,,,,,,,,,,,,,,,,,,,,,,AFSA03.jpg,AFSA07.jpg,AFNE10.jpg,AFNE05.jpg,AFNE10.jpg,FN,3,num_2,16,num_2,1.29992376012,,,2017_May_10_1715,60.004407249,FEMA4ImagesEEG,001,100439,
AFNE01.JPG,AFNE01.JPG,AFNE01.JPG,AFNE01.JPG,AFNE01.JPG,AFNE01.JPG,5,2,52,6,,,,,,,,,,,,,,,,,,,,,,,AFSA04.jpg,AFSA02.jpg,AFNE05.jpg,AFNE12.jpg,AFNE05.jpg,FN,3,num_2,16,num_2,1.23341177544,,,2017_May_10_1715,60.004407249,FEMA4ImagesEEG,001,100439,
AFNE01.JPG,AFNE01.JPG,AFNE01.JPG,AFNE01.JPG,AFNE01.JPG,AFNE01.JPG,5,3,53,7,,,,,,,,,,,,,,,,,,,,,,,AFNE09.jpg,AFSA20.jpg,AFNE16.jpg,AFSA02.jpg,AFNE16.jpg,FN,3,num_2,16,num_2,1.31680650357,,,2017_May_10_1715,60.004407249,FEMA4ImagesEEG,001,100439,
AFNE01.JPG,AFNE01.JPG,AFNE01.JPG,AFNE01.JPG,AFNE01.JPG,AFNE01.JPG,5,4,54,3,,,,,,,,,,,,,,,,,,,,,,,AFSA10.jpg,AFNE01.jpg,AFNE17.jpg,AFSA16.jpg,AFNE17.jpg,FN,3,num_2,16,num_2,2.33304295759,,,2017_May_10_1715,60.004407249,FEMA4ImagesEEG,001,100439,
AFNE01.JPG,AFNE01.JPG,AFNE01.JPG,AFNE01.JPG,AFNE01.JPG,AFNE01.JPG,5,5,55,4,,,,,,,,,,,,,,,,,,,,,,,AFSA11.jpg,AFSA15.jpg,AFNE08.jpg,AFNE04.jpg,AFSA11.jpg,FS,4,num_8,32,num_2,2.23336430592,,,2017_May_10_1715,60.004407249,FEMA4ImagesEEG,001,100439,
AFNE01.JPG,AFNE01.JPG,AFNE01.JPG,AFNE01.JPG,AFNE01.JPG,AFNE01.JPG,5,6,56,5,,,,,,,,,,,,,,,,,,,,,,,AFNE02.jpg,AFNE14.jpg,AFSA02.jpg,AFSA19.jpg,AFSA02.jpg,FS,4,num_2,16,num_2,2.38364275568,,,2017_May_10_1715,60.004407249,FEMA4ImagesEEG,001,100439,
AFNE01.JPG,AFNE01.JPG,AFNE01.JPG,AFNE01.JPG,AFNE01.JPG,AFNE01.JPG,5,7,57,0,,,,,,,,,,,,,,,,,,,,,,,AFSA08.jpg,AFNE02.jpg,AFSA07.jpg,AFNE09.jpg,AFNE09.jpg,FN,3,num_4,16,num_4,1.0000853166,,,2017_May_10_1715,60.004407249,FEMA4ImagesEEG,001,100439,
AFNE01.JPG,AFNE01.JPG,AFNE01.JPG,AFNE01.JPG,AFNE01.JPG,AFNE01.JPG,5,8,58,2,,,,,,,,,,,,,,,,,,,,,,,AFNE15.jpg,AFNE09.jpg,AFSA02.jpg,AFSA04.jpg,AFNE09.jpg,FN,3,num_6,32,num_2,1.78340329183,,,2017_May_10_1715,60.004407249,FEMA4ImagesEEG,001,100439,
AFNE01.JPG,AFNE01.JPG,AFNE01.JPG,AFNE01.JPG,AFNE01.JPG,AFNE01.JPG,5,9,59,9,,,,,,,,,,,,,,,,,,,,,,,AFSA16.jpg,AFNE18.jpg,AFSA08.jpg,AFNE16.jpg,AFSA16.jpg,FS,4,num_8,32,num_6,1.73337280564,,,2017_May_10_1715,60.004407249,FEMA4ImagesEEG,001,100439,
,,,,,,,,,,,,,,,,,,,,,,,,,,,,,,,,,,,,,,,,,,,space,6.78292314545,2017_May_10_1715,60.004407249,FEMA4ImagesEEG,001,100439,
AFNE01.JPG,AFNE01.JPG,AFNE01.JPG,AFNE01.JPG,AFNE01.JPG,AFNE01.JPG,,,,,0,0,0,5,,,,,,,,,,,,,,,,,,,AMNE07.jpg,AMSA17.jpg,AMSA02.jpg,AMNE18.jpg,AMNE07.jpg,MN,1,num_8,16,num_8,1.23345956556,,,2017_May_10_1715,60.004407249,FEMA4ImagesEEG,001,100439,
AFNE01.JPG,AFNE01.JPG,AFNE01.JPG,AFNE01.JPG,AFNE01.JPG,AFNE01.JPG,,,,,0,1,1,7,,,,,,,,,,,,,,,,,,,AMSA07.jpg,AMNE07.jpg,AMSA08.jpg,AMNE11.jpg,AMNE07.jpg,MN,1,num_6,16,num_6,0.916731643025,,,2017_May_10_1715,60.004407249,FEMA4ImagesEEG,001,100439,
AFNE01.JPG,AFNE01.JPG,AFNE01.JPG,AFNE01.JPG,AFNE01.JPG,AFNE01.JPG,,,,,0,2,2,8,,,,,,,,,,,,,,,,,,,AMSA03.jpg,AMNE11.jpg,AMNE16.jpg,AMSA13.jpg,AMSA03.jpg,MS,2,num_8,32,num_2,1.30008380907,,,2017_May_10_1715,60.004407249,FEMA4ImagesEEG,001,100439,
AFNE01.JPG,AFNE01.JPG,AFNE01.JPG,AFNE01.JPG,AFNE01.JPG,AFNE01.JPG,,,,,0,3,3,3,,,,,,,,,,,,,,,,,,,AMNE07.jpg,AMSA02.jpg,AMSA18.jpg,AMNE08.jpg,AMNE07.jpg,MN,1,num_8,32,num_4,2.08342616051,,,2017_May_10_1715,60.004407249,FEMA4ImagesEEG,001,100439,
AFNE01.JPG,AFNE01.JPG,AFNE01.JPG,AFNE01.JPG,AFNE01.JPG,AFNE01.JPG,,,,,0,4,4,2,,,,,,,,,,,,,,,,,,,AMSA08.jpg,AMSA04.jpg,AMNE12.jpg,AMNE03.jpg,AMNE03.jpg,MN,1,num_4,16,num_4,1.10010780045,,,2017_May_10_1715,60.004407249,FEMA4ImagesEEG,001,100439,
AFNE01.JPG,AFNE01.JPG,AFNE01.JPG,AFNE01.JPG,AFNE01.JPG,AFNE01.JPG,,,,,0,5,5,6,,,,,,,,,,,,,,,,,,,AMNE20.jpg,AMSA10.jpg,AMSA02.jpg,AMNE16.jpg,AMNE16.jpg,MN,1,num_4,16,num_4,1.06703960081,,,2017_May_10_1715,60.004407249,FEMA4ImagesEEG,001,100439,
AFNE01.JPG,AFNE01.JPG,AFNE01.JPG,AFNE01.JPG,AFNE01.JPG,AFNE01.JPG,,,,,0,6,6,0,,,,,,,,,,,,,,,,,,,AMNE12.jpg,AMSA17.jpg,AMSA14.jpg,AMNE05.jpg,AMNE12.jpg,MN,1,num_8,32,num_4,1.00008146791,,,2017_May_10_1715,60.004407249,FEMA4ImagesEEG,001,100439,
AFNE01.JPG,AFNE01.JPG,AFNE01.JPG,AFNE01.JPG,AFNE01.JPG,AFNE01.JPG,,,,,0,7,7,9,,,,,,,,,,,,,,,,,,,AMNE05.jpg,AMSA13.jpg,AMSA17.jpg,AMNE19.jpg,AMNE19.jpg,MN,1,num_4,16,num_4,0.883452397073,,,2017_May_10_1715,60.004407249,FEMA4ImagesEEG,001,100439,
AFNE01.JPG,AFNE01.JPG,AFNE01.JPG,AFNE01.JPG,AFNE01.JPG,AFNE01.JPG,,,,,0,8,8,1,,,,,,,,,,,,,,,,,,,AMSA10.jpg,AMNE14.jpg,AMSA03.jpg,AMNE20.jpg,AMNE14.jpg,MN,1,num_6,16,num_6,0.916747359093,,,2017_May_10_1715,60.004407249,FEMA4ImagesEEG,001,100439,
AFNE01.JPG,AFNE01.JPG,AFNE01.JPG,AFNE01.JPG,AFNE01.JPG,AFNE01.JPG,,,,,0,9,9,4,,,,,,,,,,,,,,,,,,,AMNE10.jpg,AMNE03.jpg,AMSA07.jpg,AMSA19.jpg,AMNE10.jpg,MN,1,num_8,16,num_8,1.30012454279,,,2017_May_10_1715,60.004407249,FEMA4ImagesEEG,001,100439,
AFNE01.JPG,AFNE01.JPG,AFNE01.JPG,AFNE01.JPG,AFNE01.JPG,AFNE01.JPG,,,,,1,0,10,4,,,,,,,,,,,,,,,,,,,AMSA14.jpg,AMNE03.jpg,AMSA17.jpg,AMNE17.jpg,AMNE03.jpg,MN,1,num_6,16,num_6,1.6000694721,,,2017_May_10_1715,60.004407249,FEMA4ImagesEEG,001,100439,
AFNE01.JPG,AFNE01.JPG,AFNE01.JPG,AFNE01.JPG,AFNE01.JPG,AFNE01.JPG,,,,,1,1,11,8,,,,,,,,,,,,,,,,,,,AMSA07.jpg,AMNE10.jpg,AMNE02.jpg,AMSA04.jpg,AMNE02.jpg,MN,1,num_2,16,num_2,1.00008563721,,,2017_May_10_1715,60.004407249,FEMA4ImagesEEG,001,100439,
AFNE01.JPG,AFNE01.JPG,AFNE01.JPG,AFNE01.JPG,AFNE01.JPG,AFNE01.JPG,,,,,1,2,12,2,,,,,,,,,,,,,,,,,,,AMSA19.jpg,AMNE08.jpg,AMSA06.jpg,AMNE11.jpg,AMSA06.jpg,MS,2,num_2,16,num_2,1.19992436981,,,2017_May_10_1715,60.004407249,FEMA4ImagesEEG,001,100439,
AFNE01.JPG,AFNE01.JPG,AFNE01.JPG,AFNE01.JPG,AFNE01.JPG,AFNE01.JPG,,,,,1,3,13,0,,,,,,,,,,,,,,,,,,,AMSA03.jpg,AMNE06.jpg,AMNE09.jpg,AMSA13.jpg,AMSA13.jpg,MS,2,num_4,16,num_4,0.683437579079,,,2017_May_10_1715,60.004407249,FEMA4ImagesEEG,001,100439,
AFNE01.JPG,AFNE01.JPG,AFNE01.JPG,AFNE01.JPG,AFNE01.JPG,AFNE01.JPG,,,,,1,4,14,3,,,,,,,,,,,,,,,,,,,AMSA14.jpg,AMNE07.jpg,AMSA02.jpg,AMNE17.jpg,AMNE07.jpg,MN,1,num_6,16,num_6,1.16679619183,,,2017_May_10_1715,60.004407249,FEMA4ImagesEEG,001,100439,
AFNE01.JPG,AFNE01.JPG,AFNE01.JPG,AFNE01.JPG,AFNE01.JPG,AFNE01.JPG,,,,,1,5,15,1,,,,,,,,,,,,,,,,,,,AMSA07.jpg,AMNE02.jpg,AMNE19.jpg,AMSA19.jpg,AMSA07.jpg,MS,2,num_8,32,num_2,1.15007638396,,,2017_May_10_1715,60.004407249,FEMA4ImagesEEG,001,100439,
AFNE01.JPG,AFNE01.JPG,AFNE01.JPG,AFNE01.JPG,AFNE01.JPG,AFNE01.JPG,,,,,1,6,16,9,,,,,,,,,,,,,,,,,,,AMNE13.jpg,AMSA18.jpg,AMNE10.jpg,AMSA06.jpg,AMNE13.jpg,MN,1,num_8,16,num_8,1.35006458079,,,2017_May_10_1715,60.004407249,FEMA4ImagesEEG,001,100439,
AFNE01.JPG,AFNE01.JPG,AFNE01.JPG,AFNE01.JPG,AFNE01.JPG,AFNE01.JPG,,,,,1,7,17,6,,,,,,,,,,,,,,,,,,,AMSA07.jpg,AMNE11.jpg,AMSA10.jpg,AMNE09.jpg,AMSA07.jpg,MS,2,num_8,16,num_8,1.2502194657,,,2017_May_10_1715,60.004407249,FEMA4ImagesEEG,001,100439,
AFNE01.JPG,AFNE01.JPG,AFNE01.JPG,AFNE01.JPG,AFNE01.JPG,AFNE01.JPG,,,,,1,8,18,7,,,,,,,,,,,,,,,,,,,AMSA17.jpg,AMSA07.jpg,AMNE18.jpg,AMNE14.jpg,AMSA17.jpg,MS,2,num_8,32,num_2,1.70004961826,,,2017_May_10_1715,60.004407249,FEMA4ImagesEEG,001,100439,
AFNE01.JPG,AFNE01.JPG,AFNE01.JPG,AFNE01.JPG,AFNE01.JPG,AFNE01.JPG,,,,,1,9,19,5,,,,,,,,,,,,,,,,,,,AMSA03.jpg,AMSA19.jpg,AMNE09.jpg,AMNE16.jpg,AMNE16.jpg,MN,1,num_4,16,num_4,1.23341819015,,,2017_May_10_1715,60.004407249,FEMA4ImagesEEG,001,100439,
AFNE01.JPG,AFNE01.JPG,AFNE01.JPG,AFNE01.JPG,AFNE01.JPG,AFNE01.JPG,,,,,2,0,20,0,,,,,,,,,,,,,,,,,,,AMNE11.jpg,AMNE20.jpg,AMSA20.jpg,AMSA14.jpg,AMNE20.jpg,MN,1,num_6,32,num_2,1.06676825532,,,2017_May_10_1715,60.004407249,FEMA4ImagesEEG,001,100439,
AFNE01.JPG,AFNE01.JPG,AFNE01.JPG,AFNE01.JPG,AFNE01.JPG,AFNE01.JPG,,,,,2,1,21,3,,,,,,,,,,,,,,,,,,,AMSA03.jpg,AMNE14.jpg,AMSA13.jpg,AMNE11.jpg,AMNE14.jpg,MN,1,num_6,32,num_2,1.10005904804,,,2017_May_10_1715,60.004407249,FEMA4ImagesEEG,001,100439,
AFNE01.JPG,AFNE01.JPG,AFNE01.JPG,AFNE01.JPG,AFNE01.JPG,AFNE01.JPG,,,,,2,2,22,2,,,,,,,,,,,,,,,,,,,AMSA10.jpg,AMSA01.jpg,AMNE08.jpg,AMNE18.jpg,AMSA10.jpg,MS,2,num_8,32,num_2,1.06670731516,,,2017_May_10_1715,60.004407249,FEMA4ImagesEEG,001,100439,
AFNE01.JPG,AFNE01.JPG,AFNE01.JPG,AFNE01.JPG,AFNE01.JPG,AFNE01.JPG,,,,,2,3,23,6,,,,,,,,,,,,,,,,,,,AMSA12.jpg,AMNE02.jpg,AMNE12.jpg,AMSA11.jpg,AMSA11.jpg,MS,2,num_4,16,num_4,1.75004706834,,,2017_May_10_1715,60.004407249,FEMA4ImagesEEG,001,100439,
AFNE01.JPG,AFNE01.JPG,AFNE01.JPG,AFNE01.JPG,AFNE01.JPG,AFNE01.JPG,,,,,2,4,24,1,,,,,,,,,,,,,,,,,,,AMNE02.jpg,AMNE10.jpg,AMSA19.jpg,AMSA11.jpg,AMNE10.jpg,MN,1,num_6,32,num_4,1.16673011961,,,2017_May_10_1715,60.004407249,FEMA4ImagesEEG,001,100439,
AFNE01.JPG,AFNE01.JPG,AFNE01.JPG,AFNE01.JPG,AFNE01.JPG,AFNE01.JPG,,,,,2,5,25,4,,,,,,,,,,,,,,,,,,,AMNE09.jpg,AMNE03.jpg,AMSA15.jpg,AMSA16.jpg,AMSA16.jpg,MS,2,num_4,32,num_2,1.35005239281,,,2017_May_10_1715,60.004407249,FEMA4ImagesEEG,001,100439,
AFNE01.JPG,AFNE01.JPG,AFNE01.JPG,AFNE01.JPG,AFNE01.JPG,AFNE01.JPG,,,,,2,6,26,7,,,,,,,,,,,,,,,,,,,AMNE11.jpg,AMSA15.jpg,AMSA10.jpg,AMNE10.jpg,AMNE10.jpg,MN,1,num_4,32,num_2,1.00009910855,,,2017_May_10_1715,60.004407249,FEMA4ImagesEEG,001,100439,
AFNE01.JPG,AFNE01.JPG,AFNE01.JPG,AFNE01.JPG,AFNE01.JPG,AFNE01.JPG,,,,,2,7,27,8,,,,,,,,,,,,,,,,,,,AMNE01.jpg,AMNE03.jpg,AMSA03.jpg,AMSA18.jpg,AMSA03.jpg,MS,2,num_2,16,num_2,1.18341400474,,,2017_May_10_1715,60.004407249,FEMA4ImagesEEG,001,100439,
AFNE01.JPG,AFNE01.JPG,AFNE01.JPG,AFNE01.JPG,AFNE01.JPG,AFNE01.JPG,,,,,2,8,28,9,,,,,,,,,,,,,,,,,,,AMSA06.jpg,AMNE07.jpg,AMNE18.jpg,AMSA04.jpg,AMNE07.jpg,MN,1,num_6,32,num_8,1.18341560825,,,2017_May_10_1715,60.004407249,FEMA4ImagesEEG,001,100439,
AFNE01.JPG,AFNE01.JPG,AFNE01.JPG,AFNE01.JPG,AFNE01.JPG,AFNE01.JPG,,,,,2,9,29,5,,,,,,,,,,,,,,,,,,,AMNE11.jpg,AMSA12.jpg,AMSA11.jpg,AMNE05.jpg,AMNE11.jpg,MN,1,num_8,32,num_4,1.3166823776,,,2017_May_10_1715,60.004407249,FEMA4ImagesEEG,001,100439,
AFNE01.JPG,AFNE01.JPG,AFNE01.JPG,AFNE01.JPG,AFNE01.JPG,AFNE01.JPG,,,,,3,0,30,3,,,,,,,,,,,,,,,,,,,AMNE15.jpg,AMNE12.jpg,AMSA07.jpg,AMSA15.jpg,AMNE12.jpg,MN,1,num_6,16,num_6,1.23346084845,,,2017_May_10_1715,60.004407249,FEMA4ImagesEEG,001,100439,
AFNE01.JPG,AFNE01.JPG,AFNE01.JPG,AFNE01.JPG,AFNE01.JPG,AFNE01.JPG,,,,,3,1,31,7,,,,,,,,,,,,,,,,,,,AMNE14.jpg,AMSA19.jpg,AMNE16.jpg,AMSA16.jpg,AMNE16.jpg,MN,1,num_2,32,num_8,1.15007445961,,,2017_May_10_1715,60.004407249,FEMA4ImagesEEG,001,100439,
AFNE01.JPG,AFNE01.JPG,AFNE01.JPG,AFNE01.JPG,AFNE01.JPG,AFNE01.JPG,,,,,3,2,32,8,,,,,,,,,,,,,,,,,,,AMSA18.jpg,AMSA12.jpg,AMNE04.jpg,AMNE19.jpg,AMNE19.jpg,MN,1,num_4,16,num_4,1.03345084144,,,2017_May_10_1715,60.004407249,FEMA4ImagesEEG,001,100439,
AFNE01.JPG,AFNE01.JPG,AFNE01.JPG,AFNE01.JPG,AFNE01.JPG,AFNE01.JPG,,,,,3,3,33,1,,,,,,,,,,,,,,,,,,,AMNE08.jpg,AMNE01.jpg,AMSA17.jpg,AMSA15.jpg,AMNE08.jpg,MN,1,num_8,32,num_6,1.80010898714,,,2017_May_10_1715,60.004407249,FEMA4ImagesEEG,001,100439,
AFNE01.JPG,AFNE01.JPG,AFNE01.JPG,AFNE01.JPG,AFNE01.JPG,AFNE01.JPG,,,,,3,4,34,2,,,,,,,,,,,,,,,,,,,AMSA09.jpg,AMNE15.jpg,AMNE02.jpg,AMSA02.jpg,AMNE15.jpg,MN,1,num_6,16,num_6,2.00004811073,,,2017_May_10_1715,60.004407249,FEMA4ImagesEEG,001,100439,
AFNE01.JPG,AFNE01.JPG,AFNE01.JPG,AFNE01.JPG,AFNE01.JPG,AFNE01.JPG,,,,,3,5,35,5,,,,,,,,,,,,,,,,,,,AMSA13.jpg,AMSA16.jpg,AMNE10.jpg,AMNE16.jpg,AMNE16.jpg,MN,1,num_4,16,num_4,1.03345661471,,,2017_May_10_1715,60.004407249,FEMA4ImagesEEG,001,100439,
AFNE01.JPG,AFNE01.JPG,AFNE01.JPG,AFNE01.JPG,AFNE01.JPG,AFNE01.JPG,,,,,3,6,36,6,,,,,,,,,,,,,,,,,,,AMSA17.jpg,AMNE18.jpg,AMNE09.jpg,AMSA13.jpg,AMSA13.jpg,MS,2,num_4,16,num_4,0.833826042013,,,2017_May_10_1715,60.004407249,FEMA4ImagesEEG,001,100439,
AFNE01.JPG,AFNE01.JPG,AFNE01.JPG,AFNE01.JPG,AFNE01.JPG,AFNE01.JPG,,,,,3,7,37,9,,,,,,,,,,,,,,,,,,,AMSA19.jpg,AMNE15.jpg,AMSA18.jpg,AMNE10.jpg,AMSA18.jpg,MS,2,num_2,16,num_2,1.13354966114,,,2017_May_10_1715,60.004407249,FEMA4ImagesEEG,001,100439,
AFNE01.JPG,AFNE01.JPG,AFNE01.JPG,AFNE01.JPG,AFNE01.JPG,AFNE01.JPG,,,,,3,8,38,4,,,,,,,,,,,,,,,,,,,AMSA10.jpg,AMNE13.jpg,AMNE04.jpg,AMSA17.jpg,AMSA17.jpg,MS,2,num_4,16,num_4,0.733537986409,,,2017_May_10_1715,60.004407249,FEMA4ImagesEEG,001,100439,
AFNE01.JPG,AFNE01.JPG,AFNE01.JPG,AFNE01.JPG,AFNE01.JPG,AFNE01.JPG,,,,,3,9,39,0,,,,,,,,,,,,,,,,,,,AMNE08.jpg,AMSA06.jpg,AMNE06.jpg,AMSA18.jpg,AMNE08.jpg,MN,1,num_8,16,num_8,1.35010691825,,,2017_May_10_1715,60.004407249,FEMA4ImagesEEG,001,100439,
AFNE01.JPG,AFNE01.JPG,AFNE01.JPG,AFNE01.JPG,AFNE01.JPG,AFNE01.JPG,,,,,4,0,40,7,,,,,,,,,,,,,,,,,,,AMSA12.jpg,AMNE12.jpg,AMSA04.jpg,AMNE06.jpg,AMNE12.jpg,MN,1,num_6,16,num_6,1.18338834541,,,2017_May_10_1715,60.004407249,FEMA4ImagesEEG,001,100439,
AFNE01.JPG,AFNE01.JPG,AFNE01.JPG,AFNE01.JPG,AFNE01.JPG,AFNE01.JPG,,,,,4,1,41,8,,,,,,,,,,,,,,,,,,,AMNE11.jpg,AMNE07.jpg,AMSA01.jpg,AMSA06.jpg,AMSA01.jpg,MS,2,num_2,16,num_2,1.08340819925,,,2017_May_10_1715,60.004407249,FEMA4ImagesEEG,001,100439,
AFNE01.JPG,AFNE01.JPG,AFNE01.JPG,AFNE01.JPG,AFNE01.JPG,AFNE01.JPG,,,,,4,2,42,4,,,,,,,,,,,,,,,,,,,AMSA13.jpg,AMNE17.jpg,AMSA09.jpg,AMNE13.jpg,AMSA13.jpg,MS,2,num_8,32,num_6,1.26673464198,,,2017_May_10_1715,60.004407249,FEMA4ImagesEEG,001,100439,
AFNE01.JPG,AFNE01.JPG,AFNE01.JPG,AFNE01.JPG,AFNE01.JPG,AFNE01.JPG,,,,,4,3,43,9,,,,,,,,,,,,,,,,,,,AMSA16.jpg,AMNE09.jpg,AMNE19.jpg,AMSA13.jpg,AMNE09.jpg,MN,1,num_6,32,num_2,2.08333507064,,,2017_May_10_1715,60.004407249,FEMA4ImagesEEG,001,100439,
AFNE01.JPG,AFNE01.JPG,AFNE01.JPG,AFNE01.JPG,AFNE01.JPG,AFNE01.JPG,,,,,4,4,44,1,,,,,,,,,,,,,,,,,,,AMNE07.jpg,AMSA20.jpg,AMSA19.jpg,AMNE11.jpg,AMNE11.jpg,MN,1,num_4,16,num_4,1.23345186794,,,2017_May_10_1715,60.004407249,FEMA4ImagesEEG,001,100439,
AFNE01.JPG,AFNE01.JPG,AFNE01.JPG,AFNE01.JPG,AFNE01.JPG,AFNE01.JPG,,,,,4,5,45,2,,,,,,,,,,,,,,,,,,,AMNE11.jpg,AMSA18.jpg,AMSA19.jpg,AMNE01.jpg,AMSA18.jpg,MS,2,num_6,32,num_2,1.05012093484,,,2017_May_10_1715,60.004407249,FEMA4ImagesEEG,001,100439,
AFNE01.JPG,AFNE01.JPG,AFNE01.JPG,AFNE01.JPG,AFNE01.JPG,AFNE01.JPG,,,,,4,6,46,3,,,,,,,,,,,,,,,,,,,AMNE11.jpg,AMSA03.jpg,AMSA20.jpg,AMNE03.jpg,AMSA03.jpg,MS,2,num_6,32,num_2,1.01683559455,,,2017_May_10_1715,60.004407249,FEMA4ImagesEEG,001,100439,
AFNE01.JPG,AFNE01.JPG,AFNE01.JPG,AFNE01.JPG,AFNE01.JPG,AFNE01.JPG,,,,,4,7,47,6,,,,,,,,,,,,,,,,,,,AMNE19.jpg,AMSA19.jpg,AMSA18.jpg,AMNE20.jpg,AMNE20.jpg,MN,1,num_4,16,num_4,2.26691457652,,,2017_May_10_1715,60.004407249,FEMA4ImagesEEG,001,100439,
AFNE01.JPG,AFNE01.JPG,AFNE01.JPG,AFNE01.JPG,AFNE01.JPG,AFNE01.JPG,,,,,4,8,48,0,,,,,,,,,,,,,,,,,,,AMSA13.jpg,AMSA01.jpg,AMNE02.jpg,AMNE09.jpg,AMSA13.jpg,MS,2,num_8,32,num_4,1.05012670788,,,2017_May_10_1715,60.004407249,FEMA4ImagesEEG,001,100439,
AFNE01.JPG,AFNE01.JPG,AFNE01.JPG,AFNE01.JPG,AFNE01.JPG,AFNE01.JPG,,,,,4,9,49,5,,,,,,,,,,,,,,,,,,,AMNE09.jpg,AMNE04.jpg,AMSA08.jpg,AMSA07.jpg,AMNE04.jpg,MN,1,num_6,32,num_2,1.11673042434,,,2017_May_10_1715,60.004407249,FEMA4ImagesEEG,001,100439,
AFNE01.JPG,AFNE01.JPG,AFNE01.JPG,AFNE01.JPG,AFNE01.JPG,AFNE01.JPG,,,,,5,0,50,0,,,,,,,,,,,,,,,,,,,AMNE05.jpg,AMSA12.jpg,AMSA16.jpg,AMNE02.jpg,AMSA12.jpg,MS,2,num_6,16,num_6,1.25007288787,,,2017_May_10_1715,60.004407249,FEMA4ImagesEEG,001,100439,
AFNE01.JPG,AFNE01.JPG,AFNE01.JPG,AFNE01.JPG,AFNE01.JPG,AFNE01.JPG,,,,,5,1,51,2,,,,,,,,,,,,,,,,,,,AMSA16.jpg,AMNE11.jpg,AMNE16.jpg,AMSA03.jpg,AMSA16.jpg,MS,2,num_8,32,num_2,1.13341078116,,,2017_May_10_1715,60.004407249,FEMA4ImagesEEG,001,100439,
AFNE01.JPG,AFNE01.JPG,AFNE01.JPG,AFNE01.JPG,AFNE01.JPG,AFNE01.JPG,,,,,5,2,52,4,,,,,,,,,,,,,,,,,,,AMNE09.jpg,AMSA15.jpg,AMSA16.jpg,AMNE03.jpg,AMSA16.jpg,MS,2,num_2,16,num_2,0.88331095106,,,2017_May_10_1715,60.004407249,FEMA4ImagesEEG,001,100439,
AFNE01.JPG,AFNE01.JPG,AFNE01.JPG,AFNE01.JPG,AFNE01.JPG,AFNE01.JPG,,,,,5,3,53,9,,,,,,,,,,,,,,,,,,,AMSA02.jpg,AMNE20.jpg,AMSA13.jpg,AMNE19.jpg,AMSA02.jpg,MS,2,num_8,32,num_2,1.78339110385,,,2017_May_10_1715,60.004407249,FEMA4ImagesEEG,001,100439,
AFNE01.JPG,AFNE01.JPG,AFNE01.JPG,AFNE01.JPG,AFNE01.JPG,AFNE01.JPG,,,,,5,4,54,8,,,,,,,,,,,,,,,,,,,AMNE19.jpg,AMSA01.jpg,AMNE18.jpg,AMSA08.jpg,AMSA08.jpg,MS,2,num_4,16,num_4,1.16657840996,,,2017_May_10_1715,60.004407249,FEMA4ImagesEEG,001,100439,
AFNE01.JPG,AFNE01.JPG,AFNE01.JPG,AFNE01.JPG,AFNE01.JPG,AFNE01.JPG,,,,,5,5,55,7,,,,,,,,,,,,,,,,,,,AMNE03.jpg,AMNE05.jpg,AMSA17.jpg,AMSA16.jpg,AMNE03.jpg,MN,1,num_8,32,num_2,1.1167653848,,,2017_May_10_1715,60.004407249,FEMA4ImagesEEG,001,100439,
AFNE01.JPG,AFNE01.JPG,AFNE01.JPG,AFNE01.JPG,AFNE01.JPG,AFNE01.JPG,,,,,5,6,56,5,,,,,,,,,,,,,,,,,,,AMSA10.jpg,AMNE10.jpg,AMNE12.jpg,AMSA07.jpg,AMNE10.jpg,MN,1,num_6,16,num_6,1.51673857099,,,2017_May_10_1715,60.004407249,FEMA4ImagesEEG,001,100439,
AFNE01.JPG,AFNE01.JPG,AFNE01.JPG,AFNE01.JPG,AFNE01.JPG,AFNE01.JPG,,,,,5,7,57,3,,,,,,,,,,,,,,,,,,,AMNE11.jpg,AMNE04.jpg,AMSA16.jpg,AMSA05.jpg,AMSA05.jpg,MS,2,num_4,16,num_4,1.7336370945,,,2017_May_10_1715,60.004407249,FEMA4ImagesEEG,001,100439,
AFNE01.JPG,AFNE01.JPG,AFNE01.JPG,AFNE01.JPG,AFNE01.JPG,AFNE01.JPG,,,,,5,8,58,6,,,,,,,,,,,,,,,,,,,AMNE15.jpg,AMSA20.jpg,AMNE14.jpg,AMSA02.jpg,AMNE15.jpg,MN,1,num_8,32,num_6,1.03346431255,,,2017_May_10_1715,60.004407249,FEMA4ImagesEEG,001,100439,
AFNE01.JPG,AFNE01.JPG,AFNE01.JPG,AFNE01.JPG,AFNE01.JPG,AFNE01.JPG,,,,,5,9,59,1,,,,,,,,,,,,,,,,,,,AMNE20.jpg,AMSA04.jpg,AMNE15.jpg,AMSA20.jpg,AMNE15.jpg,MN,1,num_2,32,num_6,1.23341017193,,,2017_May_10_1715,60.004407249,FEMA4ImagesEEG,001,100439,
,,,,,,,,,,,,,,,,,,,,,,,,,,,,,,,,,,,,,,,,,,,space,2.16664159554,2017_May_10_1715,60.004407249,FEMA4ImagesEEG,001,100439,
AFNE01.JPG,AFNE01.JPG,AFNE01.JPG,AFNE01.JPG,AFNE01.JPG,AFNE01.JPG,,,,,,,,,0,0,0,9,,,,,,,,,,,,,,,AFSA08.jpg,AFSA01.jpg,AFNE05.jpg,AFNE17.jpg,AFNE05.jpg,FN,3,num_2,32,num_4,1.11674806499,,,2017_May_10_1715,60.004407249,FEMA4ImagesEEG,001,100439,
AFNE01.JPG,AFNE01.JPG,AFNE01.JPG,AFNE01.JPG,AFNE01.JPG,AFNE01.JPG,,,,,,,,,0,1,1,8,,,,,,,,,,,,,,,AFSA12.jpg,AFSA09.jpg,AFNE19.jpg,AFNE04.jpg,AFNE19.jpg,FN,3,num_2,32,num_6,1.51673953328,,,2017_May_10_1715,60.004407249,FEMA4ImagesEEG,001,100439,
AFNE01.JPG,AFNE01.JPG,AFNE01.JPG,AFNE01.JPG,AFNE01.JPG,AFNE01.JPG,,,,,,,,,0,2,2,3,,,,,,,,,,,,,,,AFSA20.jpg,AFNE20.jpg,AFNE02.jpg,AFSA11.jpg,AFNE20.jpg,FN,3,num_6,16,num_6,1.1834162497,,,2017_May_10_1715,60.004407249,FEMA4ImagesEEG,001,100439,
AFNE01.JPG,AFNE01.JPG,AFNE01.JPG,AFNE01.JPG,AFNE01.JPG,AFNE01.JPG,,,,,,,,,0,3,3,5,,,,,,,,,,,,,,,AFNE01.jpg,AFNE12.jpg,AFSA06.jpg,AFSA07.jpg,AFSA07.jpg,FS,4,num_4,32,num_2,1.06670859805,,,2017_May_10_1715,60.004407249,FEMA4ImagesEEG,001,100439,
AFNE01.JPG,AFNE01.JPG,AFNE01.JPG,AFNE01.JPG,AFNE01.JPG,AFNE01.JPG,,,,,,,,,0,4,4,6,,,,,,,,,,,,,,,AFSA08.jpg,AFNE19.jpg,AFSA05.jpg,AFNE14.jpg,AFSA05.jpg,FS,4,num_2,32,num_6,1.30007931893,,,2017_May_10_1715,60.004407249,FEMA4ImagesEEG,001,100439,
AFNE01.JPG,AFNE01.JPG,AFNE01.JPG,AFNE01.JPG,AFNE01.JPG,AFNE01.JPG,,,,,,,,,0,5,5,1,,,,,,,,,,,,,,,AFSA09.jpg,AFNE09.jpg,AFSA06.jpg,AFNE08.jpg,AFNE09.jpg,FN,3,num_6,16,num_6,1.13344574161,,,2017_May_10_1715,60.004407249,FEMA4ImagesEEG,001,100439,
AFNE01.JPG,AFNE01.JPG,AFNE01.JPG,AFNE01.JPG,AFNE01.JPG,AFNE01.JPG,,,,,,,,,0,6,6,7,,,,,,,,,,,,,,,AFSA14.jpg,AFNE10.jpg,AFSA20.jpg,AFNE05.jpg,AFNE10.jpg,FN,3,num_6,16,num_6,1.05011419905,,,2017_May_10_1715,60.004407249,FEMA4ImagesEEG,001,100439,
AFNE01.JPG,AFNE01.JPG,AFNE01.JPG,AFNE01.JPG,AFNE01.JPG,AFNE01.JPG,,,,,,,,,0,7,7,2,,,,,,,,,,,,,,,AFSA10.jpg,AFNE20.jpg,AFNE04.jpg,AFSA07.jpg,AFNE20.jpg,FN,3,num_6,32,num_4,0.933724079281,,,2017_May_10_1715,60.004407249,FEMA4ImagesEEG,001,100439,
AFNE01.JPG,AFNE01.JPG,AFNE01.JPG,AFNE01.JPG,AFNE01.JPG,AFNE01.JPG,,,,,,,,,0,8,8,0,,,,,,,,,,,,,,,AFNE06.jpg,AFSA15.jpg,AFSA16.jpg,AFNE20.jpg,AFSA16.jpg,FS,4,num_2,32,num_6,1.25007898198,,,2017_May_10_1715,60.004407249,FEMA4ImagesEEG,001,100439,
AFNE01.JPG,AFNE01.JPG,AFNE01.JPG,AFNE01.JPG,AFNE01.JPG,AFNE01.JPG,,,,,,,,,0,9,9,4,,,,,,,,,,,,,,,AFSA19.jpg,AFNE10.jpg,AFNE13.jpg,AFSA04.jpg,AFSA04.jpg,FS,4,num_4,16,num_4,1.00008499576,,,2017_May_10_1715,60.004407249,FEMA4ImagesEEG,001,100439,
AFNE01.JPG,AFNE01.JPG,AFNE01.JPG,AFNE01.JPG,AFNE01.JPG,AFNE01.JPG,,,,,,,,,1,0,10,2,,,,,,,,,,,,,,,AFNE05.jpg,AFSA13.jpg,AFSA04.jpg,AFNE04.jpg,AFNE04.jpg,FN,3,num_4,16,num_4,1.08344732947,,,2017_May_10_1715,60.004407249,FEMA4ImagesEEG,001,100439,
AFNE01.JPG,AFNE01.JPG,AFNE01.JPG,AFNE01.JPG,AFNE01.JPG,AFNE01.JPG,,,,,,,,,1,1,11,9,,,,,,,,,,,,,,,AFSA14.jpg,AFSA05.jpg,AFNE17.jpg,AFNE12.jpg,AFSA05.jpg,FS,4,num_6,16,num_6,1.3333906387,,,2017_May_10_1715,60.004407249,FEMA4ImagesEEG,001,100439,
AFNE01.JPG,AFNE01.JPG,AFNE01.JPG,AFNE01.JPG,AFNE01.JPG,AFNE01.JPG,,,,,,,,,1,2,12,3,,,,,,,,,,,,,,,AFSA10.jpg,AFNE17.jpg,AFNE02.jpg,AFSA14.jpg,AFNE02.jpg,FN,3,num_2,32,num_6,1.09977840143,,,2017_May_10_1715,60.004407249,FEMA4ImagesEEG,001,100439,
AFNE01.JPG,AFNE01.JPG,AFNE01.JPG,AFNE01.JPG,AFNE01.JPG,AFNE01.JPG,,,,,,,,,1,3,13,8,,,,,,,,,,,,,,,AFNE17.jpg,AFSA20.jpg,AFNE14.jpg,AFSA05.jpg,AFSA05.jpg,FS,4,num_4,16,num_4,0.816774269333,,,2017_May_10_1715,60.004407249,FEMA4ImagesEEG,001,100439,
AFNE01.JPG,AFNE01.JPG,AFNE01.JPG,AFNE01.JPG,AFNE01.JPG,AFNE01.JPG,,,,,,,,,1,4,14,5,,,,,,,,,,,,,,,AFNE01.jpg,AFSA18.jpg,AFNE18.jpg,AFSA05.jpg,AFSA18.jpg,FS,4,num_6,32,num_2,1.15009498689,,,2017_May_10_1715,60.004407249,FEMA4ImagesEEG,001,100439,
AFNE01.JPG,AFNE01.JPG,AFNE01.JPG,AFNE01.JPG,AFNE01.JPG,AFNE01.JPG,,,,,,,,,1,5,15,0,,,,,,,,,,,,,,,AFSA05.jpg,AFNE16.jpg,AFNE18.jpg,AFSA02.jpg,AFNE16.jpg,FN,3,num_6,16,num_6,1.98336550896,,,2017_May_10_1715,60.004407249,FEMA4ImagesEEG,001,100439,
AFNE01.JPG,AFNE01.JPG,AFNE01.JPG,AFNE01.JPG,AFNE01.JPG,AFNE01.JPG,,,,,,,,,1,6,16,1,,,,,,,,,,,,,,,AFSA12.jpg,AFNE07.jpg,AFSA18.jpg,AFNE19.jpg,AFNE19.jpg,FN,3,num_4,16,num_4,1.00009173132,,,2017_May_10_1715,60.004407249,FEMA4ImagesEEG,001,100439,
AFNE01.JPG,AFNE01.JPG,AFNE01.JPG,AFNE01.JPG,AFNE01.JPG,AFNE01.JPG,,,,,,,,,1,7,17,6,,,,,,,,,,,,,,,AFNE08.jpg,AFSA10.jpg,AFNE13.jpg,AFSA09.jpg,AFSA10.jpg,FS,4,num_6,16,num_6,1.53339519305,,,2017_May_10_1715,60.004407249,FEMA4ImagesEEG,001,100439,
AFNE01.JPG,AFNE01.JPG,AFNE01.JPG,AFNE01.JPG,AFNE01.JPG,AFNE01.JPG,,,,,,,,,1,8,18,4,,,,,,,,,,,,,,,AFNE16.jpg,AFSA08.jpg,AFNE19.jpg,AFSA05.jpg,AFSA08.jpg,FS,4,num_6,32,num_2,1.04999328032,,,2017_May_10_1715,60.004407249,FEMA4ImagesEEG,001,100439,
AFNE01.JPG,AFNE01.JPG,AFNE01.JPG,AFNE01.JPG,AFNE01.JPG,AFNE01.JPG,,,,,,,,,1,9,19,7,,,,,,,,,,,,,,,AFSA07.jpg,AFNE19.jpg,AFNE15.jpg,AFSA09.jpg,AFNE19.jpg,FN,3,num_6,16,num_6,2.03343480453,,,2017_May_10_1715,60.004407249,FEMA4ImagesEEG,001,100439,
AFNE01.JPG,AFNE01.JPG,AFNE01.JPG,AFNE01.JPG,AFNE01.JPG,AFNE01.JPG,,,,,,,,,2,0,20,5,,,,,,,,,,,,,,,AFSA02.jpg,AFNE04.jpg,AFSA10.jpg,AFNE02.jpg,AFSA02.jpg,FS,4,num_8,32,num_6,1.75005027605,,,2017_May_10_1715,60.004407249,FEMA4ImagesEEG,001,100439,
AFNE01.JPG,AFNE01.JPG,AFNE01.JPG,AFNE01.JPG,AFNE01.JPG,AFNE01.JPG,,,,,,,,,2,1,21,7,,,,,,,,,,,,,,,AFSA11.jpg,AFNE19.jpg,AFSA12.jpg,AFNE03.jpg,AFSA12.jpg,FS,4,num_2,16,num_2,1.06679423526,,,2017_May_10_1715,60.004407249,FEMA4ImagesEEG,001,100439,
AFNE01.JPG,AFNE01.JPG,AFNE01.JPG,AFNE01.JPG,AFNE01.JPG,AFNE01.JPG,,,,,,,,,2,2,22,3,,,,,,,,,,,,,,,AFNE03.jpg,AFSA15.jpg,AFSA10.jpg,AFNE02.jpg,AFNE03.jpg,FN,3,num_8,32,num_4,0.916735171108,,,2017_May_10_1715,60.004407249,FEMA4ImagesEEG,001,100439,
AFNE01.JPG,AFNE01.JPG,AFNE01.JPG,AFNE01.JPG,AFNE01.JPG,AFNE01.JPG,,,,,,,,,2,3,23,0,,,,,,,,,,,,,,,AFNE10.jpg,AFSA04.jpg,AFSA03.jpg,AFNE09.jpg,AFNE09.jpg,FN,3,num_4,32,num_2,1.30005911225,,,2017_May_10_1715,60.004407249,FEMA4ImagesEEG,001,100439,
AFNE01.JPG,AFNE01.JPG,AFNE01.JPG,AFNE01.JPG,AFNE01.JPG,AFNE01.JPG,,,,,,,,,2,4,24,4,,,,,,,,,,,,,,,AFNE15.jpg,AFSA18.jpg,AFSA06.jpg,AFNE20.jpg,AFNE20.jpg,FN,3,num_4,16,num_4,0.850069552194,,,2017_May_10_1715,60.004407249,FEMA4ImagesEEG,001,100439,
AFNE01.JPG,AFNE01.JPG,AFNE01.JPG,AFNE01.JPG,AFNE01.JPG,AFNE01.JPG,,,,,,,,,2,5,25,2,,,,,,,,,,,,,,,AFNE07.jpg,AFNE15.jpg,AFSA20.jpg,AFSA17.jpg,AFSA20.jpg,FS,4,num_2,32,num_4,2.20001449739,,,2017_May_10_1715,60.004407249,FEMA4ImagesEEG,001,100439,
AFNE01.JPG,AFNE01.JPG,AFNE01.JPG,AFNE01.JPG,AFNE01.JPG,AFNE01.JPG,,,,,,,,,2,6,26,1,,,,,,,,,,,,,,,AFNE16.jpg,AFNE20.jpg,AFSA05.jpg,AFSA16.jpg,AFSA16.jpg,FS,4,num_4,16,num_4,0.650158332894,,,2017_May_10_1715,60.004407249,FEMA4ImagesEEG,001,100439,
AFNE01.JPG,AFNE01.JPG,AFNE01.JPG,AFNE01.JPG,AFNE01.JPG,AFNE01.JPG,,,,,,,,,2,7,27,6,,,,,,,,,,,,,,,AFNE17.jpg,AFSA09.jpg,AFNE15.jpg,AFSA17.jpg,AFNE15.jpg,FN,3,num_2,16,num_2,0.900127622299,,,2017_May_10_1715,60.004407249,FEMA4ImagesEEG,001,100439,
AFNE01.JPG,AFNE01.JPG,AFNE01.JPG,AFNE01.JPG,AFNE01.JPG,AFNE01.JPG,,,,,,,,,2,8,28,9,,,,,,,,,,,,,,,AFNE02.jpg,AFNE14.jpg,AFSA14.jpg,AFSA16.jpg,AFSA16.jpg,FS,4,num_4,16,num_4,1.38371107308,,,2017_May_10_1715,60.004407249,FEMA4ImagesEEG,001,100439,
AFNE01.JPG,AFNE01.JPG,AFNE01.JPG,AFNE01.JPG,AFNE01.JPG,AFNE01.JPG,,,,,,,,,2,9,29,8,,,,,,,,,,,,,,,AFSA07.jpg,AFNE03.jpg,AFSA04.jpg,AFNE13.jpg,AFNE03.jpg,FN,3,num_6,32,num_4,0.750121800695,,,2017_May_10_1715,60.004407249,FEMA4ImagesEEG,001,100439,
AFNE01.JPG,AFNE01.JPG,AFNE01.JPG,AFNE01.JPG,AFNE01.JPG,AFNE01.JPG,,,,,,,,,3,0,30,9,,,,,,,,,,,,,,,AFSA16.jpg,AFNE15.jpg,AFNE09.jpg,AFSA15.jpg,AFNE09.jpg,FN,3,num_2,32,num_6,1.4334907413,,,2017_May_10_1715,60.004407249,FEMA4ImagesEEG,001,100439,
AFNE01.JPG,AFNE01.JPG,AFNE01.JPG,AFNE01.JPG,AFNE01.JPG,AFNE01.JPG,,,,,,,,,3,1,31,8,,,,,,,,,,,,,,,AFNE19.jpg,AFSA03.jpg,AFSA17.jpg,AFNE06.jpg,AFNE06.jpg,FN,3,num_4,16,num_4,1.20007415488,,,2017_May_10_1715,60.004407249,FEMA4ImagesEEG,001,100439,
AFNE01.JPG,AFNE01.JPG,AFNE01.JPG,AFNE01.JPG,AFNE01.JPG,AFNE01.JPG,,,,,,,,,3,2,32,4,,,,,,,,,,,,,,,AFNE17.jpg,AFSA11.jpg,AFNE08.jpg,AFSA12.jpg,AFNE17.jpg,FN,3,num_8,32,num_2,1.45006397157,,,2017_May_10_1715,60.004407249,FEMA4ImagesEEG,001,100439,
AFNE01.JPG,AFNE01.JPG,AFNE01.JPG,AFNE01.JPG,AFNE01.JPG,AFNE01.JPG,,,,,,,,,3,3,33,3,,,,,,,,,,,,,,,AFNE09.jpg,AFNE11.jpg,AFSA17.jpg,AFSA18.jpg,AFNE11.jpg,FN,3,num_6,32,num_2,1.08343129233,,,2017_May_10_1715,60.004407249,FEMA4ImagesEEG,001,100439,
AFNE01.JPG,AFNE01.JPG,AFNE01.JPG,AFNE01.JPG,AFNE01.JPG,AFNE01.JPG,,,,,,,,,3,4,34,0,,,,,,,,,,,,,,,AFNE05.jpg,AFSA11.jpg,AFSA03.jpg,AFNE20.jpg,AFNE20.jpg,FN,3,num_4,16,num_4,0.933481279528,,,2017_May_10_1715,60.004407249,FEMA4ImagesEEG,001,100439,
AFNE01.JPG,AFNE01.JPG,AFNE01.JPG,AFNE01.JPG,AFNE01.JPG,AFNE01.JPG,,,,,,,,,3,5,35,6,,,,,,,,,,,,,,,AFSA12.jpg,AFNE10.jpg,AFNE17.jpg,AFSA02.jpg,AFNE17.jpg,FN,3,num_2,16,num_2,1.05010361481,,,2017_May_10_1715,60.004407249,FEMA4ImagesEEG,001,100439,
AFNE01.JPG,AFNE01.JPG,AFNE01.JPG,AFNE01.JPG,AFNE01.JPG,AFNE01.JPG,,,,,,,,,3,6,36,7,,,,,,,,,,,,,,,AFSA05.jpg,AFSA03.jpg,AFNE09.jpg,AFNE15.jpg,AFSA05.jpg,FS,4,num_8,16,num_8,0.866873393767,,,2017_May_10_1715,60.004407249,FEMA4ImagesEEG,001,100439,
AFNE01.JPG,AFNE01.JPG,AFNE01.JPG,AFNE01.JPG,AFNE01.JPG,AFNE01.JPG,,,,,,,,,3,7,37,2,,,,,,,,,,,,,,,AFNE18.jpg,AFSA02.jpg,AFNE11.jpg,AFSA20.jpg,AFNE18.jpg,FN,3,num_8,32,num_6,1.33339352533,,,2017_May_10_1715,60.004407249,FEMA4ImagesEEG,001,100439,
AFNE01.JPG,AFNE01.JPG,AFNE01.JPG,AFNE01.JPG,AFNE01.JPG,AFNE01.JPG,,,,,,,,,3,8,38,1,,,,,,,,,,,,,,,AFNE06.jpg,AFSA08.jpg,AFNE08.jpg,AFSA20.jpg,AFSA08.jpg,FS,4,num_6,16,num_6,1.36683378252,,,2017_May_10_1715,60.004407249,FEMA4ImagesEEG,001,100439,
AFNE01.JPG,AFNE01.JPG,AFNE01.JPG,AFNE01.JPG,AFNE01.JPG,AFNE01.JPG,,,,,,,,,3,9,39,5,,,,,,,,,,,,,,,AFSA17.jpg,AFNE06.jpg,AFSA09.jpg,AFNE02.jpg,AFNE06.jpg,FN,3,num_6,16,num_6,1.38377073058,,,2017_May_10_1715,60.004407249,FEMA4ImagesEEG,001,100439,
AFNE01.JPG,AFNE01.JPG,AFNE01.JPG,AFNE01.JPG,AFNE01.JPG,AFNE01.JPG,,,,,,,,,4,0,40,9,,,,,,,,,,,,,,,AFNE11.jpg,AFSA01.jpg,AFNE04.jpg,AFSA03.jpg,AFNE04.jpg,FN,3,num_2,16,num_2,1.0001023158,,,2017_May_10_1715,60.004407249,FEMA4ImagesEEG,001,100439,
AFNE01.JPG,AFNE01.JPG,AFNE01.JPG,AFNE01.JPG,AFNE01.JPG,AFNE01.JPG,,,,,,,,,4,1,41,0,,,,,,,,,,,,,,,AFNE04.jpg,AFSA12.jpg,AFSA15.jpg,AFNE13.jpg,AFSA15.jpg,FS,4,num_2,32,num_4,1.93334400328,,,2017_May_10_1715,60.004407249,FEMA4ImagesEEG,001,100439,
AFNE01.JPG,AFNE01.JPG,AFNE01.JPG,AFNE01.JPG,AFNE01.JPG,AFNE01.JPG,,,,,,,,,4,2,42,1,,,,,,,,,,,,,,,AFSA11.jpg,AFSA01.jpg,AFNE03.jpg,AFNE13.jpg,AFSA11.jpg,FS,4,num_8,32,num_6,1.71667512879,,,2017_May_10_1715,60.004407249,FEMA4ImagesEEG,001,100439,
AFNE01.JPG,AFNE01.JPG,AFNE01.JPG,AFNE01.JPG,AFNE01.JPG,AFNE01.JPG,,,,,,,,,4,3,43,8,,,,,,,,,,,,,,,AFSA09.jpg,AFNE17.jpg,AFSA07.jpg,AFNE18.jpg,AFNE17.jpg,FN,3,num_6,32,num_2,1.54990972788,,,2017_May_10_1715,60.004407249,FEMA4ImagesEEG,001,100439,
AFNE01.JPG,AFNE01.JPG,AFNE01.JPG,AFNE01.JPG,AFNE01.JPG,AFNE01.JPG,,,,,,,,,4,4,44,3,,,,,,,,,,,,,,,AFSA04.jpg,AFSA12.jpg,AFNE20.jpg,AFNE02.jpg,AFNE20.jpg,FN,3,num_2,16,num_2,1.95005515101,,,2017_May_10_1715,60.004407249,FEMA4ImagesEEG,001,100439,
AFNE01.JPG,AFNE01.JPG,AFNE01.JPG,AFNE01.JPG,AFNE01.JPG,AFNE01.JPG,,,,,,,,,4,5,45,2,,,,,,,,,,,,,,,AFNE11.jpg,AFSA01.jpg,AFNE10.jpg,AFSA18.jpg,AFNE11.jpg,FN,3,num_8,32,num_6,1.81668382068,,,2017_May_10_1715,60.004407249,FEMA4ImagesEEG,001,100439,
AFNE01.JPG,AFNE01.JPG,AFNE01.JPG,AFNE01.JPG,AFNE01.JPG,AFNE01.JPG,,,,,,,,,4,6,46,4,,,,,,,,,,,,,,,AFNE03.jpg,AFNE16.jpg,AFSA12.jpg,AFSA01.jpg,AFNE03.jpg,FN,3,num_8,32,num_4,1.00010199496,,,2017_May_10_1715,60.004407249,FEMA4ImagesEEG,001,100439,
AFNE01.JPG,AFNE01.JPG,AFNE01.JPG,AFNE01.JPG,AFNE01.JPG,AFNE01.JPG,,,,,,,,,4,7,47,7,,,,,,,,,,,,,,,AFNE04.jpg,AFNE11.jpg,AFSA07.jpg,AFSA01.jpg,AFSA01.jpg,FS,4,num_4,32,num_6,1.58340066182,,,2017_May_10_1715,60.004407249,FEMA4ImagesEEG,001,100439,
AFNE01.JPG,AFNE01.JPG,AFNE01.JPG,AFNE01.JPG,AFNE01.JPG,AFNE01.JPG,,,,,,,,,4,8,48,5,,,,,,,,,,,,,,,AFNE13.jpg,AFSA13.jpg,AFSA16.jpg,AFNE20.jpg,AFNE13.jpg,FN,3,num_8,16,num_8,2.16666757548,,,2017_May_10_1715,60.004407249,FEMA4ImagesEEG,001,100439,
AFNE01.JPG,AFNE01.JPG,AFNE01.JPG,AFNE01.JPG,AFNE01.JPG,AFNE01.JPG,,,,,,,,,4,9,49,6,,,,,,,,,,,,,,,AFSA08.jpg,AFNE10.jpg,AFNE18.jpg,AFSA14.jpg,AFSA14.jpg,FS,4,num_4,32,num_2,1.83340587374,,,2017_May_10_1715,60.004407249,FEMA4ImagesEEG,001,100439,
AFNE01.JPG,AFNE01.JPG,AFNE01.JPG,AFNE01.JPG,AFNE01.JPG,AFNE01.JPG,,,,,,,,,5,0,50,3,,,,,,,,,,,,,,,AFNE07.jpg,AFSA11.jpg,AFSA12.jpg,AFNE05.jpg,AFNE07.jpg,FN,3,num_8,16,num_8,1.68335129996,,,2017_May_10_1715,60.004407249,FEMA4ImagesEEG,001,100439,
AFNE01.JPG,AFNE01.JPG,AFNE01.JPG,AFNE01.JPG,AFNE01.JPG,AFNE01.JPG,,,,,,,,,5,1,51,9,,,,,,,,,,,,,,,AFNE19.jpg,AFSA12.jpg,AFNE18.jpg,AFSA20.jpg,AFSA12.jpg,FS,4,num_6,32,num_8,3.53324637027,,,2017_May_10_1715,60.004407249,FEMA4ImagesEEG,001,100439,
AFNE01.JPG,AFNE01.JPG,AFNE01.JPG,AFNE01.JPG,AFNE01.JPG,AFNE01.JPG,,,,,,,,,5,2,52,8,,,,,,,,,,,,,,,AFSA15.jpg,AFNE11.jpg,AFSA19.jpg,AFNE17.jpg,AFNE17.jpg,FN,3,num_4,32,num_8,3.14997823769,,,2017_May_10_1715,60.004407249,FEMA4ImagesEEG,001,100439,
AFNE01.JPG,AFNE01.JPG,AFNE01.JPG,AFNE01.JPG,AFNE01.JPG,AFNE01.JPG,,,,,,,,,5,3,53,5,,,,,,,,,,,,,,,AFNE15.jpg,AFSA06.jpg,AFNE18.jpg,AFSA05.jpg,AFNE15.jpg,FN,3,num_8,16,num_8,2.94993230817,,,2017_May_10_1715,60.004407249,FEMA4ImagesEEG,001,100439,
AFNE01.JPG,AFNE01.JPG,AFNE01.JPG,AFNE01.JPG,AFNE01.JPG,AFNE01.JPG,,,,,,,,,5,4,54,0,,,,,,,,,,,,,,,AFSA13.jpg,AFSA19.jpg,AFNE16.jpg,AFNE12.jpg,AFNE12.jpg,FN,3,num_4,16,num_4,1.05010553915,,,2017_May_10_1715,60.004407249,FEMA4ImagesEEG,001,100439,
AFNE01.JPG,AFNE01.JPG,AFNE01.JPG,AFNE01.JPG,AFNE01.JPG,AFNE01.JPG,,,,,,,,,5,5,55,2,,,,,,,,,,,,,,,AFNE01.jpg,AFSA08.jpg,AFNE18.jpg,AFSA10.jpg,AFSA08.jpg,FS,4,num_6,16,num_6,1.46640691068,,,2017_May_10_1715,60.004407249,FEMA4ImagesEEG,001,100439,
AFNE01.JPG,AFNE01.JPG,AFNE01.JPG,AFNE01.JPG,AFNE01.JPG,AFNE01.JPG,,,,,,,,,5,6,56,7,,,,,,,,,,,,,,,AFNE13.jpg,AFNE04.jpg,AFSA03.jpg,AFSA08.jpg,AFNE04.jpg,FN,3,num_6,16,num_6,0.866797057679,,,2017_May_10_1715,60.004407249,FEMA4ImagesEEG,001,100439,
AFNE01.JPG,AFNE01.JPG,AFNE01.JPG,AFNE01.JPG,AFNE01.JPG,AFNE01.JPG,,,,,,,,,5,7,57,4,,,,,,,,,,,,,,,AFSA18.jpg,AFNE13.jpg,AFNE20.jpg,AFSA11.jpg,AFSA18.jpg,FS,4,num_8,16,num_8,2.23335404228,,,2017_May_10_1715,60.004407249,FEMA4ImagesEEG,001,100439,
AFNE01.JPG,AFNE01.JPG,AFNE01.JPG,AFNE01.JPG,AFNE01.JPG,AFNE01.JPG,,,,,,,,,5,8,58,6,,,,,,,,,,,,,,,AFNE05.jpg,AFSA01.jpg,AFSA07.jpg,AFNE13.jpg,AFSA07.jpg,FS,4,num_2,16,num_2,2.29998213495,,,2017_May_10_1715,60.004407249,FEMA4ImagesEEG,001,100439,
AFNE01.JPG,AFNE01.JPG,AFNE01.JPG,AFNE01.JPG,AFNE01.JPG,AFNE01.JPG,,,,,,,,,5,9,59,1,,,,,,,,,,,,,,,AFNE08.jpg,AFSA01.jpg,AFNE13.jpg,AFSA03.jpg,AFNE13.jpg,FN,3,num_2,16,num_2,1.31671894179,,,2017_May_10_1715,60.004407249,FEMA4ImagesEEG,001,100439,
,,,,,,,,,,,,,,,,,,,,,,,,,,,,,,,,,,,,,,,,,,,space,4.71648460999,2017_May_10_1715,60.004407249,FEMA4ImagesEEG,001,100439,
AFNE01.JPG,AFNE01.JPG,AFNE01.JPG,AFNE01.JPG,AFNE01.JPG,AFNE01.JPG,,,,,,,,,,,,,0,0,0,5,,,,,,,,,,,AMSA04.jpg,AMSA09.jpg,AMNE17.jpg,AMNE05.jpg,AMNE17.jpg,MN,1,num_2,32,num_4,1.01675188169,,,2017_May_10_1715,60.004407249,FEMA4ImagesEEG,001,100439,
AFNE01.JPG,AFNE01.JPG,AFNE01.JPG,AFNE01.JPG,AFNE01.JPG,AFNE01.JPG,,,,,,,,,,,,,0,1,1,3,,,,,,,,,,,AMNE12.jpg,AMSA08.jpg,AMNE10.jpg,AMSA09.jpg,AMSA08.jpg,MS,2,num_6,32,num_2,1.38339225855,,,2017_May_10_1715,60.004407249,FEMA4ImagesEEG,001,100439,
AFNE01.JPG,AFNE01.JPG,AFNE01.JPG,AFNE01.JPG,AFNE01.JPG,AFNE01.JPG,,,,,,,,,,,,,0,2,2,8,,,,,,,,,,,AMSA11.jpg,AMNE05.jpg,AMSA04.jpg,AMNE06.jpg,AMSA04.jpg,MS,2,num_2,16,num_2,1.05006608833,,,2017_May_10_1715,60.004407249,FEMA4ImagesEEG,001,100439,
AFNE01.JPG,AFNE01.JPG,AFNE01.JPG,AFNE01.JPG,AFNE01.JPG,AFNE01.JPG,,,,,,,,,,,,,0,3,3,0,,,,,,,,,,,AMNE16.jpg,AMSA20.jpg,AMSA08.jpg,AMNE19.jpg,AMNE19.jpg,MN,1,num_4,16,num_4,0.900151356822,,,2017_May_10_1715,60.004407249,FEMA4ImagesEEG,001,100439,
AFNE01.JPG,AFNE01.JPG,AFNE01.JPG,AFNE01.JPG,AFNE01.JPG,AFNE01.JPG,,,,,,,,,,,,,0,4,4,2,,,,,,,,,,,AMSA05.jpg,AMNE04.jpg,AMSA19.jpg,AMNE01.jpg,AMSA19.jpg,MS,2,num_2,16,num_2,1.83293791534,,,2017_May_10_1715,60.004407249,FEMA4ImagesEEG,001,100439,
AFNE01.JPG,AFNE01.JPG,AFNE01.JPG,AFNE01.JPG,AFNE01.JPG,AFNE01.JPG,,,,,,,,,,,,,0,5,5,9,,,,,,,,,,,AMNE03.jpg,AMSA09.jpg,AMSA20.jpg,AMNE18.jpg,AMNE03.jpg,MN,1,num_8,32,num_2,2.78326729848,,,2017_May_10_1715,60.004407249,FEMA4ImagesEEG,001,100439,
AFNE01.JPG,AFNE01.JPG,AFNE01.JPG,AFNE01.JPG,AFNE01.JPG,AFNE01.JPG,,,,,,,,,,,,,0,6,6,7,,,,,,,,,,,AMSA02.jpg,AMNE02.jpg,AMSA06.jpg,AMNE18.jpg,AMNE18.jpg,MN,1,num_4,16,num_4,0.86678615259,,,2017_May_10_1715,60.004407249,FEMA4ImagesEEG,001,100439,
AFNE01.JPG,AFNE01.JPG,AFNE01.JPG,AFNE01.JPG,AFNE01.JPG,AFNE01.JPG,,,,,,,,,,,,,0,7,7,4,,,,,,,,,,,AMNE10.jpg,AMNE11.jpg,AMSA09.jpg,AMSA03.jpg,AMNE11.jpg,MN,1,num_6,32,num_2,1.43338521826,,,2017_May_10_1715,60.004407249,FEMA4ImagesEEG,001,100439,
AFNE01.JPG,AFNE01.JPG,AFNE01.JPG,AFNE01.JPG,AFNE01.JPG,AFNE01.JPG,,,,,,,,,,,,,0,8,8,1,,,,,,,,,,,AMNE12.jpg,AMSA17.jpg,AMNE17.jpg,AMSA08.jpg,AMSA08.jpg,MS,2,num_4,16,num_4,0.866757606855,,,2017_May_10_1715,60.004407249,FEMA4ImagesEEG,001,100439,
AFNE01.JPG,AFNE01.JPG,AFNE01.JPG,AFNE01.JPG,AFNE01.JPG,AFNE01.JPG,,,,,,,,,,,,,0,9,9,6,,,,,,,,,,,AMSA18.jpg,AMNE05.jpg,AMNE11.jpg,AMSA20.jpg,AMNE11.jpg,MN,1,num_2,32,num_8,1.36682191514,,,2017_May_10_1715,60.004407249,FEMA4ImagesEEG,001,100439,
AFNE01.JPG,AFNE01.JPG,AFNE01.JPG,AFNE01.JPG,AFNE01.JPG,AFNE01.JPG,,,,,,,,,,,,,1,0,10,1,,,,,,,,,,,AMSA16.jpg,AMNE20.jpg,AMSA09.jpg,AMNE04.jpg,AMNE04.jpg,MN,1,num_4,16,num_4,0.866746060317,,,2017_May_10_1715,60.004407249,FEMA4ImagesEEG,001,100439,
AFNE01.JPG,AFNE01.JPG,AFNE01.JPG,AFNE01.JPG,AFNE01.JPG,AFNE01.JPG,,,,,,,,,,,,,1,1,11,9,,,,,,,,,,,AMSA11.jpg,AMNE19.jpg,AMSA18.jpg,AMNE08.jpg,AMNE19.jpg,MN,1,num_6,16,num_6,1.36675776727,,,2017_May_10_1715,60.004407249,FEMA4ImagesEEG,001,100439,
AFNE01.JPG,AFNE01.JPG,AFNE01.JPG,AFNE01.JPG,AFNE01.JPG,AFNE01.JPG,,,,,,,,,,,,,1,2,12,6,,,,,,,,,,,AMSA12.jpg,AMNE17.jpg,AMSA10.jpg,AMNE09.jpg,AMNE09.jpg,MN,1,num_4,16,num_4,1.0667448414,,,2017_May_10_1715,60.004407249,FEMA4ImagesEEG,001,100439,
AFNE01.JPG,AFNE01.JPG,AFNE01.JPG,AFNE01.JPG,AFNE01.JPG,AFNE01.JPG,,,,,,,,,,,,,1,3,13,8,,,,,,,,,,,AMNE04.jpg,AMSA13.jpg,AMSA12.jpg,AMNE14.jpg,AMNE04.jpg,MN,1,num_8,32,num_2,2.60012431862,,,2017_May_10_1715,60.004407249,FEMA4ImagesEEG,001,100439,
AFNE01.JPG,AFNE01.JPG,AFNE01.JPG,AFNE01.JPG,AFNE01.JPG,AFNE01.JPG,,,,,,,,,,,,,1,4,14,3,,,,,,,,,,,AMSA19.jpg,AMNE04.jpg,AMSA18.jpg,AMNE10.jpg,AMNE10.jpg,MN,1,num_4,16,num_4,1.01674514613,,,2017_May_10_1715,60.004407249,FEMA4ImagesEEG,001,100439,
AFNE01.JPG,AFNE01.JPG,AFNE01.JPG,AFNE01.JPG,AFNE01.JPG,AFNE01.JPG,,,,,,,,,,,,,1,5,15,4,,,,,,,,,,,AMNE04.jpg,AMNE12.jpg,AMSA10.jpg,AMSA06.jpg,AMSA10.jpg,MS,2,num_2,16,num_2,1.31672824337,,,2017_May_10_1715,60.004407249,FEMA4ImagesEEG,001,100439,
AFNE01.JPG,AFNE01.JPG,AFNE01.JPG,AFNE01.JPG,AFNE01.JPG,AFNE01.JPG,,,,,,,,,,,,,1,6,16,7,,,,,,,,,,,AMSA02.jpg,AMNE07.jpg,AMSA17.jpg,AMNE15.jpg,AMSA17.jpg,MS,2,num_2,16,num_2,0.983403356047,,,2017_May_10_1715,60.004407249,FEMA4ImagesEEG,001,100439,
AFNE01.JPG,AFNE01.JPG,AFNE01.JPG,AFNE01.JPG,AFNE01.JPG,AFNE01.JPG,,,,,,,,,,,,,1,7,17,5,,,,,,,,,,,AMNE05.jpg,AMNE06.jpg,AMSA04.jpg,AMSA03.jpg,AMSA03.jpg,MS,2,num_4,16,num_4,0.883439888246,,,2017_May_10_1715,60.004407249,FEMA4ImagesEEG,001,100439,
AFNE01.JPG,AFNE01.JPG,AFNE01.JPG,AFNE01.JPG,AFNE01.JPG,AFNE01.JPG,,,,,,,,,,,,,1,8,18,2,,,,,,,,,,,AMNE14.jpg,AMSA20.jpg,AMNE20.jpg,AMSA06.jpg,AMNE20.jpg,MN,1,num_2,32,num_6,1.15011743852,,,2017_May_10_1715,60.004407249,FEMA4ImagesEEG,001,100439,
AFNE01.JPG,AFNE01.JPG,AFNE01.JPG,AFNE01.JPG,AFNE01.JPG,AFNE01.JPG,,,,,,,,,,,,,1,9,19,0,,,,,,,,,,,AMNE11.jpg,AMSA03.jpg,AMSA19.jpg,AMNE06.jpg,AMSA19.jpg,MS,2,num_2,32,num_4,1.70029819105,,,2017_May_10_1715,60.004407249,FEMA4ImagesEEG,001,100439,
AFNE01.JPG,AFNE01.JPG,AFNE01.JPG,AFNE01.JPG,AFNE01.JPG,AFNE01.JPG,,,,,,,,,,,,,2,0,20,9,,,,,,,,,,,AMNE01.jpg,AMSA18.jpg,AMSA11.jpg,AMNE06.jpg,AMNE06.jpg,MN,1,num_4,16,num_4,1.20008056983,,,2017_May_10_1715,60.004407249,FEMA4ImagesEEG,001,100439,
AFNE01.JPG,AFNE01.JPG,AFNE01.JPG,AFNE01.JPG,AFNE01.JPG,AFNE01.JPG,,,,,,,,,,,,,2,1,21,0,,,,,,,,,,,AMSA11.jpg,AMSA17.jpg,AMNE07.jpg,AMNE04.jpg,AMNE07.jpg,MN,1,num_2,32,num_6,1.63336667954,,,2017_May_10_1715,60.004407249,FEMA4ImagesEEG,001,100439,
AFNE01.JPG,AFNE01.JPG,AFNE01.JPG,AFNE01.JPG,AFNE01.JPG,AFNE01.JPG,,,,,,,,,,,,,2,2,22,1,,,,,,,,,,,AMNE02.jpg,AMNE04.jpg,AMSA20.jpg,AMSA18.jpg,AMSA20.jpg,MS,2,num_2,16,num_2,1.03344763396,,,2017_May_10_1715,60.004407249,FEMA4ImagesEEG,001,100439,
AFNE01.JPG,AFNE01.JPG,AFNE01.JPG,AFNE01.JPG,AFNE01.JPG,AFNE01.JPG,,,,,,,,,,,,,2,3,23,2,,,,,,,,,,,AMSA11.jpg,AMNE03.jpg,AMSA20.jpg,AMNE16.jpg,AMSA11.jpg,MS,2,num_8,32,num_2,1.20013541589,,,2017_May_10_1715,60.004407249,FEMA4ImagesEEG,001,100439,
AFNE01.JPG,AFNE01.JPG,AFNE01.JPG,AFNE01.JPG,AFNE01.JPG,AFNE01.JPG,,,,,,,,,,,,,2,4,24,8,,,,,,,,,,,AMSA06.jpg,AMSA03.jpg,AMNE15.jpg,AMNE14.jpg,AMSA06.jpg,MS,2,num_8,32,num_6,1.43340574554,,,2017_May_10_1715,60.004407249,FEMA4ImagesEEG,001,100439,
AFNE01.JPG,AFNE01.JPG,AFNE01.JPG,AFNE01.JPG,AFNE01.JPG,AFNE01.JPG,,,,,,,,,,,,,2,5,25,7,,,,,,,,,,,AMSA14.jpg,AMNE01.jpg,AMSA08.jpg,AMNE14.jpg,AMNE01.jpg,MN,1,num_6,32,num_8,1.63337598089,,,2017_May_10_1715,60.004407249,FEMA4ImagesEEG,001,100439,
AFNE01.JPG,AFNE01.JPG,AFNE01.JPG,AFNE01.JPG,AFNE01.JPG,AFNE01.JPG,,,,,,,,,,,,,2,6,26,3,,,,,,,,,,,AMNE07.jpg,AMNE05.jpg,AMSA05.jpg,AMSA19.jpg,AMSA19.jpg,MS,2,num_4,16,num_4,0.81678549503,,,2017_May_10_1715,60.004407249,FEMA4ImagesEEG,001,100439,
AFNE01.JPG,AFNE01.JPG,AFNE01.JPG,AFNE01.JPG,AFNE01.JPG,AFNE01.JPG,,,,,,,,,,,,,2,7,27,4,,,,,,,,,,,AMNE15.jpg,AMSA07.jpg,AMNE04.jpg,AMSA17.jpg,AMSA17.jpg,MS,2,num_4,16,num_4,0.900396401528,,,2017_May_10_1715,60.004407249,FEMA4ImagesEEG,001,100439,
AFNE01.JPG,AFNE01.JPG,AFNE01.JPG,AFNE01.JPG,AFNE01.JPG,AFNE01.JPG,,,,,,,,,,,,,2,8,28,5,,,,,,,,,,,AMNE04.jpg,AMSA20.jpg,AMNE02.jpg,AMSA10.jpg,AMNE04.jpg,MN,1,num_8,32,num_2,1.68339235475,,,2017_May_10_1715,60.004407249,FEMA4ImagesEEG,001,100439,
AFNE01.JPG,AFNE01.JPG,AFNE01.JPG,AFNE01.JPG,AFNE01.JPG,AFNE01.JPG,,,,,,,,,,,,,2,9,29,6,,,,,,,,,,,AMSA02.jpg,AMSA10.jpg,AMNE16.jpg,AMNE10.jpg,AMSA02.jpg,MS,2,num_8,16,num_8,1.10013089376,,,2017_May_10_1715,60.004407249,FEMA4ImagesEEG,001,100439,
AFNE01.JPG,AFNE01.JPG,AFNE01.JPG,AFNE01.JPG,AFNE01.JPG,AFNE01.JPG,,,,,,,,,,,,,3,0,30,5,,,,,,,,,,,AMSA04.jpg,AMNE07.jpg,AMNE03.jpg,AMSA13.jpg,AMNE03.jpg,MN,1,num_2,16,num_2,1.46670199069,,,2017_May_10_1715,60.004407249,FEMA4ImagesEEG,001,100439,
AFNE01.JPG,AFNE01.JPG,AFNE01.JPG,AFNE01.JPG,AFNE01.JPG,AFNE01.JPG,,,,,,,,,,,,,3,1,31,9,,,,,,,,,,,AMNE07.jpg,AMSA14.jpg,AMNE14.jpg,AMSA02.jpg,AMNE07.jpg,MN,1,num_8,32,num_6,2.05003529717,,,2017_May_10_1715,60.004407249,FEMA4ImagesEEG,001,100439,
AFNE01.JPG,AFNE01.JPG,AFNE01.JPG,AFNE01.JPG,AFNE01.JPG,AFNE01.JPG,,,,,,,,,,,,,3,2,32,2,,,,,,,,,,,AMNE12.jpg,AMSA18.jpg,AMSA05.jpg,AMNE13.jpg,AMSA05.jpg,MS,2,num_2,32,num_6,2.15003212215,,,2017_May_10_1715,60.004407249,FEMA4ImagesEEG,001,100439,
AFNE01.JPG,AFNE01.JPG,AFNE01.JPG,AFNE01.JPG,AFNE01.JPG,AFNE01.JPG,,,,,,,,,,,,,3,3,33,8,,,,,,,,,,,AMSA17.jpg,AMNE11.jpg,AMSA09.jpg,AMNE05.jpg,AMNE11.jpg,MN,1,num_6,32,num_2,2.03334660106,,,2017_May_10_1715,60.004407249,FEMA4ImagesEEG,001,100439,
AFNE01.JPG,AFNE01.JPG,AFNE01.JPG,AFNE01.JPG,AFNE01.JPG,AFNE01.JPG,,,,,,,,,,,,,3,4,34,6,,,,,,,,,,,AMNE20.jpg,AMNE18.jpg,AMSA05.jpg,AMSA16.jpg,AMSA05.jpg,MS,2,num_2,16,num_2,1.13340308354,,,2017_May_10_1715,60.004407249,FEMA4ImagesEEG,001,100439,
AFNE01.JPG,AFNE01.JPG,AFNE01.JPG,AFNE01.JPG,AFNE01.JPG,AFNE01.JPG,,,,,,,,,,,,,3,5,35,1,,,,,,,,,,,AMNE11.jpg,AMSA16.jpg,AMNE16.jpg,AMSA14.jpg,AMNE11.jpg,MN,1,num_8,32,num_6,2.73336574924,,,2017_May_10_1715,60.004407249,FEMA4ImagesEEG,001,100439,
AFNE01.JPG,AFNE01.JPG,AFNE01.JPG,AFNE01.JPG,AFNE01.JPG,AFNE01.JPG,,,,,,,,,,,,,3,6,36,3,,,,,,,,,,,AMNE03.jpg,AMNE17.jpg,AMSA06.jpg,AMSA16.jpg,AMNE03.jpg,MN,1,num_8,16,num_8,1.21671602316,,,2017_May_10_1715,60.004407249,FEMA4ImagesEEG,001,100439,
AFNE01.JPG,AFNE01.JPG,AFNE01.JPG,AFNE01.JPG,AFNE01.JPG,AFNE01.JPG,,,,,,,,,,,,,3,7,37,4,,,,,,,,,,,AMSA02.jpg,AMSA10.jpg,AMNE04.jpg,AMNE15.jpg,AMNE15.jpg,MN,1,num_4,16,num_4,1.05007635197,,,2017_May_10_1715,60.004407249,FEMA4ImagesEEG,001,100439,
AFNE01.JPG,AFNE01.JPG,AFNE01.JPG,AFNE01.JPG,AFNE01.JPG,AFNE01.JPG,,,,,,,,,,,,,3,8,38,7,,,,,,,,,,,AMSA13.jpg,AMSA18.jpg,AMNE03.jpg,AMNE13.jpg,AMNE13.jpg,MN,1,num_4,16,num_4,0.800080762245,,,2017_May_10_1715,60.004407249,FEMA4ImagesEEG,001,100439,
AFNE01.JPG,AFNE01.JPG,AFNE01.JPG,AFNE01.JPG,AFNE01.JPG,AFNE01.JPG,,,,,,,,,,,,,3,9,39,0,,,,,,,,,,,AMNE10.jpg,AMSA20.jpg,AMSA07.jpg,AMNE01.jpg,AMNE10.jpg,MN,1,num_8,16,num_8,1.20013830275,,,2017_May_10_1715,60.004407249,FEMA4ImagesEEG,001,100439,
AFNE01.JPG,AFNE01.JPG,AFNE01.JPG,AFNE01.JPG,AFNE01.JPG,AFNE01.JPG,,,,,,,,,,,,,4,0,40,4,,,,,,,,,,,AMNE20.jpg,AMNE08.jpg,AMSA01.jpg,AMSA11.jpg,AMNE08.jpg,MN,1,num_6,16,num_6,0.983432543231,,,2017_May_10_1715,60.004407249,FEMA4ImagesEEG,001,100439,
AFNE01.JPG,AFNE01.JPG,AFNE01.JPG,AFNE01.JPG,AFNE01.JPG,AFNE01.JPG,,,,,,,,,,,,,4,1,41,2,,,,,,,,,,,AMSA09.jpg,AMNE12.jpg,AMSA16.jpg,AMNE01.jpg,AMNE01.jpg,MN,1,num_4,32,num_6,1.80006408365,,,2017_May_10_1715,60.004407249,FEMA4ImagesEEG,001,100439,
AFNE01.JPG,AFNE01.JPG,AFNE01.JPG,AFNE01.JPG,AFNE01.JPG,AFNE01.JPG,,,,,,,,,,,,,4,2,42,6,,,,,,,,,,,AMNE17.jpg,AMSA10.jpg,AMSA13.jpg,AMNE15.jpg,AMSA13.jpg,MS,2,num_2,32,num_4,1.3000780358,,,2017_May_10_1715,60.004407249,FEMA4ImagesEEG,001,100439,
AFNE01.JPG,AFNE01.JPG,AFNE01.JPG,AFNE01.JPG,AFNE01.JPG,AFNE01.JPG,,,,,,,,,,,,,4,3,43,3,,,,,,,,,,,AMSA04.jpg,AMNE08.jpg,AMNE06.jpg,AMSA18.jpg,AMSA04.jpg,MS,2,num_8,16,num_8,1.41670999327,,,2017_May_10_1715,60.004407249,FEMA4ImagesEEG,001,100439,
AFNE01.JPG,AFNE01.JPG,AFNE01.JPG,AFNE01.JPG,AFNE01.JPG,AFNE01.JPG,,,,,,,,,,,,,4,4,44,8,,,,,,,,,,,AMNE03.jpg,AMNE04.jpg,AMSA04.jpg,AMSA06.jpg,AMSA04.jpg,MS,2,num_2,16,num_2,1.08324301871,,,2017_May_10_1715,60.004407249,FEMA4ImagesEEG,001,100439,
AFNE01.JPG,AFNE01.JPG,AFNE01.JPG,AFNE01.JPG,AFNE01.JPG,AFNE01.JPG,,,,,,,,,,,,,4,5,45,1,,,,,,,,,,,AMNE16.jpg,AMNE06.jpg,AMSA02.jpg,AMSA09.jpg,AMNE06.jpg,MN,1,num_6,32,num_8,1.26674201898,,,2017_May_10_1715,60.004407249,FEMA4ImagesEEG,001,100439,
AFNE01.JPG,AFNE01.JPG,AFNE01.JPG,AFNE01.JPG,AFNE01.JPG,AFNE01.JPG,,,,,,,,,,,,,4,6,46,5,,,,,,,,,,,AMSA11.jpg,AMNE11.jpg,AMNE15.jpg,AMSA14.jpg,AMSA11.jpg,MS,2,num_8,16,num_8,1.26673047245,,,2017_May_10_1715,60.004407249,FEMA4ImagesEEG,001,100439,
AFNE01.JPG,AFNE01.JPG,AFNE01.JPG,AFNE01.JPG,AFNE01.JPG,AFNE01.JPG,,,,,,,,,,,,,4,7,47,9,,,,,,,,,,,AMNE09.jpg,AMSA05.jpg,AMSA04.jpg,AMNE11.jpg,AMSA04.jpg,MS,2,num_2,16,num_2,1.11670733104,,,2017_May_10_1715,60.004407249,FEMA4ImagesEEG,001,100439,
AFNE01.JPG,AFNE01.JPG,AFNE01.JPG,AFNE01.JPG,AFNE01.JPG,AFNE01.JPG,,,,,,,,,,,,,4,8,48,0,,,,,,,,,,,AMNE20.jpg,AMNE04.jpg,AMSA13.jpg,AMSA03.jpg,AMNE04.jpg,MN,1,num_6,32,num_8,1.88334270427,,,2017_May_10_1715,60.004407249,FEMA4ImagesEEG,001,100439,
AFNE01.JPG,AFNE01.JPG,AFNE01.JPG,AFNE01.JPG,AFNE01.JPG,AFNE01.JPG,,,,,,,,,,,,,4,9,49,7,,,,,,,,,,,AMSA19.jpg,AMSA07.jpg,AMNE14.jpg,AMNE12.jpg,AMSA07.jpg,MS,2,num_6,16,num_6,1.11683209846,,,2017_May_10_1715,60.004407249,FEMA4ImagesEEG,001,100439,
AFNE01.JPG,AFNE01.JPG,AFNE01.JPG,AFNE01.JPG,AFNE01.JPG,AFNE01.JPG,,,,,,,,,,,,,5,0,50,2,,,,,,,,,,,AMNE02.jpg,AMSA08.jpg,AMNE12.jpg,AMSA19.jpg,AMSA19.jpg,MS,2,num_4,16,num_4,1.01673552417,,,2017_May_10_1715,60.004407249,FEMA4ImagesEEG,001,100439,
AFNE01.JPG,AFNE01.JPG,AFNE01.JPG,AFNE01.JPG,AFNE01.JPG,AFNE01.JPG,,,,,,,,,,,,,5,1,51,9,,,,,,,,,,,AMSA04.jpg,AMNE07.jpg,AMSA17.jpg,AMNE02.jpg,AMSA04.jpg,MS,2,num_8,16,num_8,1.58324670698,,,2017_May_10_1715,60.004407249,FEMA4ImagesEEG,001,100439,
AFNE01.JPG,AFNE01.JPG,AFNE01.JPG,AFNE01.JPG,AFNE01.JPG,AFNE01.JPG,,,,,,,,,,,,,5,2,52,3,,,,,,,,,,,AMNE11.jpg,AMSA02.jpg,AMSA18.jpg,AMNE02.jpg,AMNE11.jpg,MN,1,num_8,16,num_8,1.00011995644,,,2017_May_10_1715,60.004407249,FEMA4ImagesEEG,001,100439,
AFNE01.JPG,AFNE01.JPG,AFNE01.JPG,AFNE01.JPG,AFNE01.JPG,AFNE01.JPG,,,,,,,,,,,,,5,3,53,0,,,,,,,,,,,AMSA05.jpg,AMNE17.jpg,AMNE18.jpg,AMSA09.jpg,AMSA09.jpg,MS,2,num_4,16,num_4,0.700132048223,,,2017_May_10_1715,60.004407249,FEMA4ImagesEEG,001,100439,
AFNE01.JPG,AFNE01.JPG,AFNE01.JPG,AFNE01.JPG,AFNE01.JPG,AFNE01.JPG,,,,,,,,,,,,,5,4,54,5,,,,,,,,,,,AMNE11.jpg,AMSA07.jpg,AMSA18.jpg,AMNE03.jpg,AMSA18.jpg,MS,2,num_2,16,num_2,1.26673496258,,,2017_May_10_1715,60.004407249,FEMA4ImagesEEG,001,100439,
AFNE01.JPG,AFNE01.JPG,AFNE01.JPG,AFNE01.JPG,AFNE01.JPG,AFNE01.JPG,,,,,,,,,,,,,5,5,55,8,,,,,,,,,,,AMNE09.jpg,AMSA07.jpg,AMNE03.jpg,AMSA04.jpg,AMSA04.jpg,MS,2,num_4,16,num_4,1.58353697602,,,2017_May_10_1715,60.004407249,FEMA4ImagesEEG,001,100439,
AFNE01.JPG,AFNE01.JPG,AFNE01.JPG,AFNE01.JPG,AFNE01.JPG,AFNE01.JPG,,,,,,,,,,,,,5,6,56,7,,,,,,,,,,,AMSA16.jpg,AMNE03.jpg,AMSA18.jpg,AMNE17.jpg,AMNE17.jpg,MN,1,num_4,16,num_4,0.700125633506,,,2017_May_10_1715,60.004407249,FEMA4ImagesEEG,001,100439,
AFNE01.JPG,AFNE01.JPG,AFNE01.JPG,AFNE01.JPG,AFNE01.JPG,AFNE01.JPG,,,,,,,,,,,,,5,7,57,6,,,,,,,,,,,AMSA07.jpg,AMNE01.jpg,AMNE02.jpg,AMSA17.jpg,AMSA17.jpg,MS,2,num_4,16,num_4,0.666776787257,,,2017_May_10_1715,60.004407249,FEMA4ImagesEEG,001,100439,
AFNE01.JPG,AFNE01.JPG,AFNE01.JPG,AFNE01.JPG,AFNE01.JPG,AFNE01.JPG,,,,,,,,,,,,,5,8,58,1,,,,,,,,,,,AMSA17.jpg,AMNE19.jpg,AMNE04.jpg,AMSA06.jpg,AMNE04.jpg,MN,1,num_2,32,num_4,1.4165861879,,,2017_May_10_1715,60.004407249,FEMA4ImagesEEG,001,100439,
AFNE01.JPG,AFNE01.JPG,AFNE01.JPG,AFNE01.JPG,AFNE01.JPG,AFNE01.JPG,,,,,,,,,,,,,5,9,59,4,,,,,,,,,,,AMNE12.jpg,AMSA20.jpg,AMSA09.jpg,AMNE20.jpg,AMNE12.jpg,MN,1,num_8,32,num_6,1.20008217334,,,2017_May_10_1715,60.004407249,FEMA4ImagesEEG,001,100439,
,,,,,,,,,,,,,,,,,,,,,,,,,,,,,,,,,,,,,,,,,,,space,36.4303590448,2017_May_10_1715,60.004407249,FEMA4ImagesEEG,001,100439,
AFNE01.JPG,AFNE01.JPG,AFNE01.JPG,AFNE01.JPG,AFNE01.JPG,AFNE01.JPG,,,,,,,,,,,,,,,,,0,0,0,1,,,,,,,AFNE02.jpg,AFSA02.jpg,AFNE20.jpg,AFSA04.jpg,AFNE02.jpg,FN,3,num_8,32,num_4,1.53348949039,,,2017_May_10_1715,60.004407249,FEMA4ImagesEEG,001,100439,
AFNE01.JPG,AFNE01.JPG,AFNE01.JPG,AFNE01.JPG,AFNE01.JPG,AFNE01.JPG,,,,,,,,,,,,,,,,,0,1,1,6,,,,,,,AFNE12.jpg,AFSA14.jpg,AFNE06.jpg,AFSA01.jpg,AFNE06.jpg,FN,3,num_2,32,num_4,2.10027586785,,,2017_May_10_1715,60.004407249,FEMA4ImagesEEG,001,100439,
AFNE01.JPG,AFNE01.JPG,AFNE01.JPG,AFNE01.JPG,AFNE01.JPG,AFNE01.JPG,,,,,,,,,,,,,,,,,0,2,2,5,,,,,,,AFNE18.jpg,AFNE04.jpg,AFSA13.jpg,AFSA07.jpg,AFNE18.jpg,FN,3,num_8,16,num_8,1.7334847434,,,2017_May_10_1715,60.004407249,FEMA4ImagesEEG,001,100439,
AFNE01.JPG,AFNE01.JPG,AFNE01.JPG,AFNE01.JPG,AFNE01.JPG,AFNE01.JPG,,,,,,,,,,,,,,,,,0,3,3,4,,,,,,,AFSA11.jpg,AFNE12.jpg,AFNE05.jpg,AFSA17.jpg,AFNE12.jpg,FN,3,num_6,32,num_2,1.63334968034,,,2017_May_10_1715,60.004407249,FEMA4ImagesEEG,001,100439,
AFNE01.JPG,AFNE01.JPG,AFNE01.JPG,AFNE01.JPG,AFNE01.JPG,AFNE01.JPG,,,,,,,,,,,,,,,,,0,4,4,8,,,,,,,AFNE09.jpg,AFNE15.jpg,AFSA18.jpg,AFSA02.jpg,AFNE09.jpg,FN,3,num_8,32,num_4,0.733456518501,,,2017_May_10_1715,60.004407249,FEMA4ImagesEEG,001,100439,
AFNE01.JPG,AFNE01.JPG,AFNE01.JPG,AFNE01.JPG,AFNE01.JPG,AFNE01.JPG,,,,,,,,,,,,,,,,,0,5,5,3,,,,,,,AFSA11.jpg,AFNE05.jpg,AFSA13.jpg,AFNE07.jpg,AFNE05.jpg,FN,3,num_6,16,num_6,0.783470968017,,,2017_May_10_1715,60.004407249,FEMA4ImagesEEG,001,100439,
AFNE01.JPG,AFNE01.JPG,AFNE01.JPG,AFNE01.JPG,AFNE01.JPG,AFNE01.JPG,,,,,,,,,,,,,,,,,0,6,6,9,,,,,,,AFNE09.jpg,AFSA02.jpg,AFNE12.jpg,AFSA04.jpg,AFNE12.jpg,FN,3,num_2,16,num_2,1.13342008251,,,2017_May_10_1715,60.004407249,FEMA4ImagesEEG,001,100439,
AFNE01.JPG,AFNE01.JPG,AFNE01.JPG,AFNE01.JPG,AFNE01.JPG,AFNE01.JPG,,,,,,,,,,,,,,,,,0,7,7,0,,,,,,,AFNE05.jpg,AFSA02.jpg,AFSA01.jpg,AFNE02.jpg,AFNE05.jpg,FN,3,num_8,32,num_4,1.03331164061,,,2017_May_10_1715,60.004407249,FEMA4ImagesEEG,001,100439,
AFNE01.JPG,AFNE01.JPG,AFNE01.JPG,AFNE01.JPG,AFNE01.JPG,AFNE01.JPG,,,,,,,,,,,,,,,,,0,8,8,7,,,,,,,AFNE03.jpg,AFSA08.jpg,AFNE14.jpg,AFSA14.jpg,AFSA08.jpg,FS,4,num_6,32,num_4,1.01679037046,,,2017_May_10_1715,60.004407249,FEMA4ImagesEEG,001,100439,
AFNE01.JPG,AFNE01.JPG,AFNE01.JPG,AFNE01.JPG,AFNE01.JPG,AFNE01.JPG,,,,,,,,,,,,,,,,,0,9,9,2,,,,,,,AFSA07.jpg,AFNE19.jpg,AFSA11.jpg,AFNE06.jpg,AFNE06.jpg,FN,3,num_4,16,num_4,0.916749604512,,,2017_May_10_1715,60.004407249,FEMA4ImagesEEG,001,100439,
AFNE01.JPG,AFNE01.JPG,AFNE01.JPG,AFNE01.JPG,AFNE01.JPG,AFNE01.JPG,,,,,,,,,,,,,,,,,1,0,10,5,,,,,,,AFSA10.jpg,AFSA16.jpg,AFNE14.jpg,AFNE09.jpg,AFNE14.jpg,FN,3,num_2,16,num_2,1.23342813295,,,2017_May_10_1715,60.004407249,FEMA4ImagesEEG,001,100439,
AFNE01.JPG,AFNE01.JPG,AFNE01.JPG,AFNE01.JPG,AFNE01.JPG,AFNE01.JPG,,,,,,,,,,,,,,,,,1,1,11,9,,,,,,,AFNE01.jpg,AFSA11.jpg,AFNE12.jpg,AFSA02.jpg,AFSA11.jpg,FS,4,num_6,32,num_4,0.883512375411,,,2017_May_10_1715,60.004407249,FEMA4ImagesEEG,001,100439,
AFNE01.JPG,AFNE01.JPG,AFNE01.JPG,AFNE01.JPG,AFNE01.JPG,AFNE01.JPG,,,,,,,,,,,,,,,,,1,2,12,6,,,,,,,AFNE06.jpg,AFNE14.jpg,AFSA12.jpg,AFSA04.jpg,AFSA04.jpg,FS,4,num_4,16,num_4,1.05009431345,,,2017_May_10_1715,60.004407249,FEMA4ImagesEEG,001,100439,
AFNE01.JPG,AFNE01.JPG,AFNE01.JPG,AFNE01.JPG,AFNE01.JPG,AFNE01.JPG,,,,,,,,,,,,,,,,,1,3,13,7,,,,,,,AFSA18.jpg,AFNE19.jpg,AFSA06.jpg,AFNE05.jpg,AFSA06.jpg,FS,4,num_2,16,num_2,1.13355832128,,,2017_May_10_1715,60.004407249,FEMA4ImagesEEG,001,100439,
AFNE01.JPG,AFNE01.JPG,AFNE01.JPG,AFNE01.JPG,AFNE01.JPG,AFNE01.JPG,,,,,,,,,,,,,,,,,1,4,14,3,,,,,,,AFNE06.jpg,AFNE13.jpg,AFSA07.jpg,AFSA14.jpg,AFSA07.jpg,FS,4,num_2,32,num_6,1.11675127223,,,2017_May_10_1715,60.004407249,FEMA4ImagesEEG,001,100439,
AFNE01.JPG,AFNE01.JPG,AFNE01.JPG,AFNE01.JPG,AFNE01.JPG,AFNE01.JPG,,,,,,,,,,,,,,,,,1,5,15,4,,,,,,,AFNE07.jpg,AFNE19.jpg,AFSA19.jpg,AFSA01.jpg,AFNE19.jpg,FN,3,num_6,32,num_2,0.933505335124,,,2017_May_10_1715,60.004407249,FEMA4ImagesEEG,001,100439,
AFNE01.JPG,AFNE01.JPG,AFNE01.JPG,AFNE01.JPG,AFNE01.JPG,AFNE01.JPG,,,,,,,,,,,,,,,,,1,6,16,1,,,,,,,AFNE13.jpg,AFSA10.jpg,AFNE08.jpg,AFSA08.jpg,AFNE08.jpg,FN,3,num_2,32,num_4,1.30010433635,,,2017_May_10_1715,60.004407249,FEMA4ImagesEEG,001,100439,
AFNE01.JPG,AFNE01.JPG,AFNE01.JPG,AFNE01.JPG,AFNE01.JPG,AFNE01.JPG,,,,,,,,,,,,,,,,,1,7,17,2,,,,,,,AFSA01.jpg,AFNE16.jpg,AFNE08.jpg,AFSA05.jpg,AFSA05.jpg,FS,4,num_4,16,num_4,0.816784212133,,,2017_May_10_1715,60.004407249,FEMA4ImagesEEG,001,100439,
AFNE01.JPG,AFNE01.JPG,AFNE01.JPG,AFNE01.JPG,AFNE01.JPG,AFNE01.JPG,,,,,,,,,,,,,,,,,1,8,18,8,,,,,,,AFNE16.jpg,AFSA10.jpg,AFSA20.jpg,AFNE13.jpg,AFSA10.jpg,FS,4,num_6,16,num_6,1.45010791253,,,2017_May_10_1715,60.004407249,FEMA4ImagesEEG,001,100439,
AFNE01.JPG,AFNE01.JPG,AFNE01.JPG,AFNE01.JPG,AFNE01.JPG,AFNE01.JPG,,,,,,,,,,,,,,,,,1,9,19,0,,,,,,,AFSA12.jpg,AFNE07.jpg,AFSA11.jpg,AFNE18.jpg,AFNE18.jpg,FN,3,num_4,16,num_4,0.866897128522,,,2017_May_10_1715,60.004407249,FEMA4ImagesEEG,001,100439,
AFNE01.JPG,AFNE01.JPG,AFNE01.JPG,AFNE01.JPG,AFNE01.JPG,AFNE01.JPG,,,,,,,,,,,,,,,,,2,0,20,9,,,,,,,AFNE07.jpg,AFSA11.jpg,AFSA05.jpg,AFNE10.jpg,AFSA05.jpg,FS,4,num_2,16,num_2,1.0500705787,,,2017_May_10_1715,60.004407249,FEMA4ImagesEEG,001,100439,
AFNE01.JPG,AFNE01.JPG,AFNE01.JPG,AFNE01.JPG,AFNE01.JPG,AFNE01.JPG,,,,,,,,,,,,,,,,,2,1,21,6,,,,,,,AFNE19.jpg,AFNE08.jpg,AFSA05.jpg,AFSA14.jpg,AFSA14.jpg,FS,4,num_4,16,num_4,1.00007216632,,,2017_May_10_1715,60.004407249,FEMA4ImagesEEG,001,100439,
AFNE01.JPG,AFNE01.JPG,AFNE01.JPG,AFNE01.JPG,AFNE01.JPG,AFNE01.JPG,,,,,,,,,,,,,,,,,2,2,22,7,,,,,,,AFNE09.jpg,AFSA02.jpg,AFSA09.jpg,AFNE05.jpg,AFSA09.jpg,FS,4,num_2,16,num_2,1.3165130273,,,2017_May_10_1715,60.004407249,FEMA4ImagesEEG,001,100439,
AFNE01.JPG,AFNE01.JPG,AFNE01.JPG,AFNE01.JPG,AFNE01.JPG,AFNE01.JPG,,,,,,,,,,,,,,,,,2,3,23,2,,,,,,,AFSA14.jpg,AFSA04.jpg,AFNE18.jpg,AFNE13.jpg,AFNE13.jpg,FN,3,num_4,16,num_4,0.95015746681,,,2017_May_10_1715,60.004407249,FEMA4ImagesEEG,001,100439,
AFNE01.JPG,AFNE01.JPG,AFNE01.JPG,AFNE01.JPG,AFNE01.JPG,AFNE01.JPG,,,,,,,,,,,,,,,,,2,4,24,8,,,,,,,AFNE02.jpg,AFSA18.jpg,AFSA10.jpg,AFNE03.jpg,AFSA10.jpg,FS,4,num_2,16,num_2,0.916739661712,,,2017_May_10_1715,60.004407249,FEMA4ImagesEEG,001,100439,
AFNE01.JPG,AFNE01.JPG,AFNE01.JPG,AFNE01.JPG,AFNE01.JPG,AFNE01.JPG,,,,,,,,,,,,,,,,,2,5,25,1,,,,,,,AFSA07.jpg,AFNE11.jpg,AFNE03.jpg,AFSA19.jpg,AFSA19.jpg,FS,4,num_4,16,num_4,0.683459068416,,,2017_May_10_1715,60.004407249,FEMA4ImagesEEG,001,100439,
AFNE01.JPG,AFNE01.JPG,AFNE01.JPG,AFNE01.JPG,AFNE01.JPG,AFNE01.JPG,,,,,,,,,,,,,,,,,2,6,26,4,,,,,,,AFSA01.jpg,AFSA15.jpg,AFNE17.jpg,AFNE20.jpg,AFSA15.jpg,FS,4,num_6,16,num_6,1.71665973333,,,2017_May_10_1715,60.004407249,FEMA4ImagesEEG,001,100439,
AFNE01.JPG,AFNE01.JPG,AFNE01.JPG,AFNE01.JPG,AFNE01.JPG,AFNE01.JPG,,,,,,,,,,,,,,,,,2,7,27,0,,,,,,,AFNE06.jpg,AFSA08.jpg,AFSA13.jpg,AFNE01.jpg,AFSA08.jpg,FS,4,num_6,32,num_2,1.01693598577,,,2017_May_10_1715,60.004407249,FEMA4ImagesEEG,001,100439,
AFNE01.JPG,AFNE01.JPG,AFNE01.JPG,AFNE01.JPG,AFNE01.JPG,AFNE01.JPG,,,,,,,,,,,,,,,,,2,8,28,5,,,,,,,AFNE07.jpg,AFNE16.jpg,AFSA15.jpg,AFSA06.jpg,AFNE07.jpg,FN,3,num_8,32,num_4,1.56669368362,,,2017_May_10_1715,60.004407249,FEMA4ImagesEEG,001,100439,
AFNE01.JPG,AFNE01.JPG,AFNE01.JPG,AFNE01.JPG,AFNE01.JPG,AFNE01.JPG,,,,,,,,,,,,,,,,,2,9,29,3,,,,,,,AFSA04.jpg,AFNE05.jpg,AFSA15.jpg,AFNE04.jpg,AFNE04.jpg,FN,3,num_4,16,num_4,0.650087770075,,,2017_May_10_1715,60.004407249,FEMA4ImagesEEG,001,100439,
AFNE01.JPG,AFNE01.JPG,AFNE01.JPG,AFNE01.JPG,AFNE01.JPG,AFNE01.JPG,,,,,,,,,,,,,,,,,3,0,30,6,,,,,,,AFNE15.jpg,AFSA15.jpg,AFNE10.jpg,AFSA07.jpg,AFNE15.jpg,FN,3,num_8,32,num_6,1.38350098883,,,2017_May_10_1715,60.004407249,FEMA4ImagesEEG,001,100439,
AFNE01.JPG,AFNE01.JPG,AFNE01.JPG,AFNE01.JPG,AFNE01.JPG,AFNE01.JPG,,,,,,,,,,,,,,,,,3,1,31,4,,,,,,,AFSA14.jpg,AFSA17.jpg,AFNE07.jpg,AFNE18.jpg,AFSA14.jpg,FS,4,num_8,32,num_6,1.25014441274,,,2017_May_10_1715,60.004407249,FEMA4ImagesEEG,001,100439,
AFNE01.JPG,AFNE01.JPG,AFNE01.JPG,AFNE01.JPG,AFNE01.JPG,AFNE01.JPG,,,,,,,,,,,,,,,,,3,2,32,0,,,,,,,AFNE05.jpg,AFSA16.jpg,AFNE16.jpg,AFSA19.jpg,AFSA19.jpg,FS,4,num_4,16,num_4,0.683354828274,,,2017_May_10_1715,60.004407249,FEMA4ImagesEEG,001,100439,
AFNE01.JPG,AFNE01.JPG,AFNE01.JPG,AFNE01.JPG,AFNE01.JPG,AFNE01.JPG,,,,,,,,,,,,,,,,,3,3,33,1,,,,,,,AFNE17.jpg,AFSA06.jpg,AFSA07.jpg,AFNE09.jpg,AFSA07.jpg,FS,4,num_2,32,num_6,1.80011155317,,,2017_May_10_1715,60.004407249,FEMA4ImagesEEG,001,100439,
AFNE01.JPG,AFNE01.JPG,AFNE01.JPG,AFNE01.JPG,AFNE01.JPG,AFNE01.JPG,,,,,,,,,,,,,,,,,3,4,34,2,,,,,,,AFSA17.jpg,AFNE08.jpg,AFNE20.jpg,AFSA15.jpg,AFSA15.jpg,FS,4,num_4,16,num_4,0.916727152653,,,2017_May_10_1715,60.004407249,FEMA4ImagesEEG,001,100439,
AFNE01.JPG,AFNE01.JPG,AFNE01.JPG,AFNE01.JPG,AFNE01.JPG,AFNE01.JPG,,,,,,,,,,,,,,,,,3,5,35,8,,,,,,,AFNE15.jpg,AFSA08.jpg,AFSA20.jpg,AFNE18.jpg,AFNE15.jpg,FN,3,num_8,16,num_8,1.26670737914,,,2017_May_10_1715,60.004407249,FEMA4ImagesEEG,001,100439,
AFNE01.JPG,AFNE01.JPG,AFNE01.JPG,AFNE01.JPG,AFNE01.JPG,AFNE01.JPG,,,,,,,,,,,,,,,,,3,6,36,7,,,,,,,AFNE12.jpg,AFSA03.jpg,AFNE09.jpg,AFSA18.jpg,AFSA18.jpg,FS,4,num_4,16,num_4,0.766766876215,,,2017_May_10_1715,60.004407249,FEMA4ImagesEEG,001,100439,
AFNE01.JPG,AFNE01.JPG,AFNE01.JPG,AFNE01.JPG,AFNE01.JPG,AFNE01.JPG,,,,,,,,,,,,,,,,,3,7,37,5,,,,,,,AFSA17.jpg,AFNE13.jpg,AFSA12.jpg,AFNE16.jpg,AFNE13.jpg,FN,3,num_6,16,num_6,1.28338581161,,,2017_May_10_1715,60.004407249,FEMA4ImagesEEG,001,100439,
AFNE01.JPG,AFNE01.JPG,AFNE01.JPG,AFNE01.JPG,AFNE01.JPG,AFNE01.JPG,,,,,,,,,,,,,,,,,3,8,38,3,,,,,,,AFNE04.jpg,AFNE17.jpg,AFSA02.jpg,AFSA20.jpg,AFSA20.jpg,FS,4,num_4,32,num_2,1.46670487756,,,2017_May_10_1715,60.004407249,FEMA4ImagesEEG,001,100439,
AFNE01.JPG,AFNE01.JPG,AFNE01.JPG,AFNE01.JPG,AFNE01.JPG,AFNE01.JPG,,,,,,,,,,,,,,,,,3,9,39,9,,,,,,,AFSA15.jpg,AFSA02.jpg,AFNE17.jpg,AFNE15.jpg,AFNE15.jpg,FN,3,num_4,16,num_4,1.33338967641,,,2017_May_10_1715,60.004407249,FEMA4ImagesEEG,001,100439,
AFNE01.JPG,AFNE01.JPG,AFNE01.JPG,AFNE01.JPG,AFNE01.JPG,AFNE01.JPG,,,,,,,,,,,,,,,,,4,0,40,8,,,,,,,AFSA03.jpg,AFNE20.jpg,AFSA13.jpg,AFNE01.jpg,AFNE20.jpg,FN,3,num_6,16,num_6,0.733510723338,,,2017_May_10_1715,60.004407249,FEMA4ImagesEEG,001,100439,
AFNE01.JPG,AFNE01.JPG,AFNE01.JPG,AFNE01.JPG,AFNE01.JPG,AFNE01.JPG,,,,,,,,,,,,,,,,,4,1,41,2,,,,,,,AFSA08.jpg,AFSA05.jpg,AFNE13.jpg,AFNE05.jpg,AFSA08.jpg,FS,4,num_8,32,num_4,1.41645468492,,,2017_May_10_1715,60.004407249,FEMA4ImagesEEG,001,100439,
AFNE01.JPG,AFNE01.JPG,AFNE01.JPG,AFNE01.JPG,AFNE01.JPG,AFNE01.JPG,,,,,,,,,,,,,,,,,4,2,42,5,,,,,,,AFSA07.jpg,AFNE01.jpg,AFNE16.jpg,AFSA04.jpg,AFNE01.jpg,FN,3,num_6,32,num_2,0.933439262677,,,2017_May_10_1715,60.004407249,FEMA4ImagesEEG,001,100439,
AFNE01.JPG,AFNE01.JPG,AFNE01.JPG,AFNE01.JPG,AFNE01.JPG,AFNE01.JPG,,,,,,,,,,,,,,,,,4,3,43,3,,,,,,,AFNE08.jpg,AFSA18.jpg,AFSA07.jpg,AFNE17.jpg,AFSA07.jpg,FS,4,num_2,16,num_2,2.55024041003,,,2017_May_10_1715,60.004407249,FEMA4ImagesEEG,001,100439,
AFNE01.JPG,AFNE01.JPG,AFNE01.JPG,AFNE01.JPG,AFNE01.JPG,AFNE01.JPG,,,,,,,,,,,,,,,,,4,4,44,6,,,,,,,AFNE04.jpg,AFSA16.jpg,AFNE02.jpg,AFSA01.jpg,AFSA16.jpg,FS,4,num_6,32,num_4,1.11673619761,,,2017_May_10_1715,60.004407249,FEMA4ImagesEEG,001,100439,
AFNE01.JPG,AFNE01.JPG,AFNE01.JPG,AFNE01.JPG,AFNE01.JPG,AFNE01.JPG,,,,,,,,,,,,,,,,,4,5,45,9,,,,,,,AFNE10.jpg,AFNE11.jpg,AFSA12.jpg,AFSA01.jpg,AFSA12.jpg,FS,4,num_2,16,num_2,0.783507531974,,,2017_May_10_1715,60.004407249,FEMA4ImagesEEG,001,100439,
AFNE01.JPG,AFNE01.JPG,AFNE01.JPG,AFNE01.JPG,AFNE01.JPG,AFNE01.JPG,,,,,,,,,,,,,,,,,4,6,46,4,,,,,,,AFNE02.jpg,AFSA13.jpg,AFSA14.jpg,AFNE11.jpg,AFNE11.jpg,FN,3,num_4,16,num_4,1.08328471449,,,2017_May_10_1715,60.004407249,FEMA4ImagesEEG,001,100439,
AFNE01.JPG,AFNE01.JPG,AFNE01.JPG,AFNE01.JPG,AFNE01.JPG,AFNE01.JPG,,,,,,,,,,,,,,,,,4,7,47,1,,,,,,,AFNE17.jpg,AFSA03.jpg,AFSA08.jpg,AFNE04.jpg,AFSA03.jpg,FS,4,num_6,16,num_6,1.11673780135,,,2017_May_10_1715,60.004407249,FEMA4ImagesEEG,001,100439,
AFNE01.JPG,AFNE01.JPG,AFNE01.JPG,AFNE01.JPG,AFNE01.JPG,AFNE01.JPG,,,,,,,,,,,,,,,,,4,8,48,7,,,,,,,AFSA11.jpg,AFNE10.jpg,AFNE02.jpg,AFSA09.jpg,AFNE02.jpg,FN,3,num_2,16,num_2,0.950160674285,,,2017_May_10_1715,60.004407249,FEMA4ImagesEEG,001,100439,
AFNE01.JPG,AFNE01.JPG,AFNE01.JPG,AFNE01.JPG,AFNE01.JPG,AFNE01.JPG,,,,,,,,,,,,,,,,,4,9,49,0,,,,,,,AFNE02.jpg,AFNE11.jpg,AFSA10.jpg,AFSA06.jpg,AFSA06.jpg,FS,4,num_4,16,num_4,0.966637361795,,,2017_May_10_1715,60.004407249,FEMA4ImagesEEG,001,100439,
AFNE01.JPG,AFNE01.JPG,AFNE01.JPG,AFNE01.JPG,AFNE01.JPG,AFNE01.JPG,,,,,,,,,,,,,,,,,5,0,50,6,,,,,,,AFSA02.jpg,AFNE09.jpg,AFSA07.jpg,AFNE03.jpg,AFNE09.jpg,FN,3,num_6,16,num_6,1.15007702564,,,2017_May_10_1715,60.004407249,FEMA4ImagesEEG,001,100439,
AFNE01.JPG,AFNE01.JPG,AFNE01.JPG,AFNE01.JPG,AFNE01.JPG,AFNE01.JPG,,,,,,,,,,,,,,,,,5,1,51,1,,,,,,,AFSA15.jpg,AFNE07.jpg,AFNE04.jpg,AFSA02.jpg,AFNE07.jpg,FN,3,num_6,16,num_6,1.05008886079,,,2017_May_10_1715,60.004407249,FEMA4ImagesEEG,001,100439,
AFNE01.JPG,AFNE01.JPG,AFNE01.JPG,AFNE01.JPG,AFNE01.JPG,AFNE01.JPG,,,,,,,,,,,,,,,,,5,2,52,3,,,,,,,AFSA08.jpg,AFNE02.jpg,AFSA18.jpg,AFNE19.jpg,AFSA08.jpg,FS,4,num_8,32,num_6,1.25008379295,,,2017_May_10_1715,60.004407249,FEMA4ImagesEEG,001,100439,
AFNE01.JPG,AFNE01.JPG,AFNE01.JPG,AFNE01.JPG,AFNE01.JPG,AFNE01.JPG,,,,,,,,,,,,,,,,,5,3,53,2,,,,,,,AFSA03.jpg,AFNE18.jpg,AFNE14.jpg,AFSA07.jpg,AFSA03.jpg,FS,4,num_8,32,num_4,1.03342999332,,,2017_May_10_1715,60.004407249,FEMA4ImagesEEG,001,100439,
AFNE01.JPG,AFNE01.JPG,AFNE01.JPG,AFNE01.JPG,AFNE01.JPG,AFNE01.JPG,,,,,,,,,,,,,,,,,5,4,54,9,,,,,,,AFSA13.jpg,AFNE05.jpg,AFNE17.jpg,AFSA09.jpg,AFNE05.jpg,FN,3,num_6,32,num_2,2.7666507687,,,2017_May_10_1715,60.004407249,FEMA4ImagesEEG,001,100439,
AFNE01.JPG,AFNE01.JPG,AFNE01.JPG,AFNE01.JPG,AFNE01.JPG,AFNE01.JPG,,,,,,,,,,,,,,,,,5,5,55,7,,,,,,,AFNE16.jpg,AFNE05.jpg,AFSA03.jpg,AFSA10.jpg,AFNE16.jpg,FN,3,num_8,32,num_2,1.0500878985,,,2017_May_10_1715,60.004407249,FEMA4ImagesEEG,001,100439,
AFNE01.JPG,AFNE01.JPG,AFNE01.JPG,AFNE01.JPG,AFNE01.JPG,AFNE01.JPG,,,,,,,,,,,,,,,,,5,6,56,5,,,,,,,AFNE02.jpg,AFSA07.jpg,AFNE12.jpg,AFSA05.jpg,AFSA07.jpg,FS,4,num_6,32,num_2,1.30006873445,,,2017_May_10_1715,60.004407249,FEMA4ImagesEEG,001,100439,
AFNE01.JPG,AFNE01.JPG,AFNE01.JPG,AFNE01.JPG,AFNE01.JPG,AFNE01.JPG,,,,,,,,,,,,,,,,,5,7,57,8,,,,,,,AFSA17.jpg,AFNE04.jpg,AFSA15.jpg,AFNE14.jpg,AFNE04.jpg,FN,3,num_6,16,num_6,1.53336953418,,,2017_May_10_1715,60.004407249,FEMA4ImagesEEG,001,100439,
AFNE01.JPG,AFNE01.JPG,AFNE01.JPG,AFNE01.JPG,AFNE01.JPG,AFNE01.JPG,,,,,,,,,,,,,,,,,5,8,58,0,,,,,,,AFNE13.jpg,AFSA07.jpg,AFSA05.jpg,AFNE12.jpg,AFSA07.jpg,FS,4,num_6,16,num_6,1.36672986299,,,2017_May_10_1715,60.004407249,FEMA4ImagesEEG,001,100439,
AFNE01.JPG,AFNE01.JPG,AFNE01.JPG,AFNE01.JPG,AFNE01.JPG,AFNE01.JPG,,,,,,,,,,,,,,,,,5,9,59,4,,,,,,,AFNE12.jpg,AFSA02.jpg,AFNE09.jpg,AFSA04.jpg,AFSA04.jpg,FS,4,num_4,16,num_4,0.80016094679,,,2017_May_10_1715,60.004407249,FEMA4ImagesEEG,001,100439,
,,,,,,,,,,,,,,,,,,,,,,,,,,,,,,,,,,,,,,,,,,,space,36.9305519697,2017_May_10_1715,60.004407249,FEMA4ImagesEEG,001,100439,
AFNE01.JPG,AFNE01.JPG,AFNE01.JPG,AFNE01.JPG,AFNE01.JPG,AFNE01.JPG,,,,,,,,,,,,,,,,,,,,,0,0,0,2,,,AMSA05.jpg,AMNE04.jpg,AMNE18.jpg,AMSA11.jpg,AMNE04.jpg,MN,1,num_6,32,num_4,1.05015140492,,,2017_May_10_1715,60.004407249,FEMA4ImagesEEG,001,100439,
AFNE01.JPG,AFNE01.JPG,AFNE01.JPG,AFNE01.JPG,AFNE01.JPG,AFNE01.JPG,,,,,,,,,,,,,,,,,,,,,0,1,1,9,,,AMNE20.jpg,AMSA11.jpg,AMSA01.jpg,AMNE02.jpg,AMSA01.jpg,MS,2,num_2,32,num_4,1.00010840991,,,2017_May_10_1715,60.004407249,FEMA4ImagesEEG,001,100439,
AFNE01.JPG,AFNE01.JPG,AFNE01.JPG,AFNE01.JPG,AFNE01.JPG,AFNE01.JPG,,,,,,,,,,,,,,,,,,,,,0,2,2,5,,,AMNE05.jpg,AMSA01.jpg,AMNE03.jpg,AMSA18.jpg,AMNE03.jpg,MN,1,num_2,16,num_2,0.749995750142,,,2017_May_10_1715,60.004407249,FEMA4ImagesEEG,001,100439,
AFNE01.JPG,AFNE01.JPG,AFNE01.JPG,AFNE01.JPG,AFNE01.JPG,AFNE01.JPG,,,,,,,,,,,,,,,,,,,,,0,3,3,7,,,AMNE13.jpg,AMNE03.jpg,AMSA05.jpg,AMSA10.jpg,AMSA05.jpg,MS,2,num_2,32,num_4,1.05013600946,,,2017_May_10_1715,60.004407249,FEMA4ImagesEEG,001,100439,
AFNE01.JPG,AFNE01.JPG,AFNE01.JPG,AFNE01.JPG,AFNE01.JPG,AFNE01.JPG,,,,,,,,,,,,,,,,,,,,,0,4,4,6,,,AMNE05.jpg,AMNE17.jpg,AMSA08.jpg,AMSA07.jpg,AMSA07.jpg,MS,2,num_4,16,num_4,0.716758841649,,,2017_May_10_1715,60.004407249,FEMA4ImagesEEG,001,100439,
AFNE01.JPG,AFNE01.JPG,AFNE01.JPG,AFNE01.JPG,AFNE01.JPG,AFNE01.JPG,,,,,,,,,,,,,,,,,,,,,0,5,5,0,,,AMNE18.jpg,AMNE06.jpg,AMSA11.jpg,AMSA19.jpg,AMSA19.jpg,MS,2,num_4,16,num_4,0.883507884806,,,2017_May_10_1715,60.004407249,FEMA4ImagesEEG,001,100439,
AFNE01.JPG,AFNE01.JPG,AFNE01.JPG,AFNE01.JPG,AFNE01.JPG,AFNE01.JPG,,,,,,,,,,,,,,,,,,,,,0,6,6,3,,,AMSA06.jpg,AMNE06.jpg,AMNE04.jpg,AMSA16.jpg,AMSA16.jpg,MS,2,num_4,16,num_4,0.666776466416,,,2017_May_10_1715,60.004407249,FEMA4ImagesEEG,001,100439,
AFNE01.JPG,AFNE01.JPG,AFNE01.JPG,AFNE01.JPG,AFNE01.JPG,AFNE01.JPG,,,,,,,,,,,,,,,,,,,,,0,7,7,1,,,AMSA07.jpg,AMNE16.jpg,AMSA18.jpg,AMNE12.jpg,AMSA18.jpg,MS,2,num_2,16,num_2,0.950267801061,,,2017_May_10_1715,60.004407249,FEMA4ImagesEEG,001,100439,
AFNE01.JPG,AFNE01.JPG,AFNE01.JPG,AFNE01.JPG,AFNE01.JPG,AFNE01.JPG,,,,,,,,,,,,,,,,,,,,,0,8,8,4,,,AMNE02.jpg,AMSA19.jpg,AMNE17.jpg,AMSA05.jpg,AMSA19.jpg,MS,2,num_6,32,num_4,1.3500905605,,,2017_May_10_1715,60.004407249,FEMA4ImagesEEG,001,100439,
AFNE01.JPG,AFNE01.JPG,AFNE01.JPG,AFNE01.JPG,AFNE01.JPG,AFNE01.JPG,,,,,,,,,,,,,,,,,,,,,0,9,9,8,,,AMSA14.jpg,AMSA07.jpg,AMNE08.jpg,AMNE14.jpg,AMSA14.jpg,MS,2,num_8,16,num_8,1.38337141043,,,2017_May_10_1715,60.004407249,FEMA4ImagesEEG,001,100439,
AFNE01.JPG,AFNE01.JPG,AFNE01.JPG,AFNE01.JPG,AFNE01.JPG,AFNE01.JPG,,,,,,,,,,,,,,,,,,,,,1,0,10,1,,,AMSA17.jpg,AMNE04.jpg,AMSA11.jpg,AMNE01.jpg,AMSA17.jpg,MS,2,num_8,16,num_8,1.26674458501,,,2017_May_10_1715,60.004407249,FEMA4ImagesEEG,001,100439,
AFNE01.JPG,AFNE01.JPG,AFNE01.JPG,AFNE01.JPG,AFNE01.JPG,AFNE01.JPG,,,,,,,,,,,,,,,,,,,,,1,1,11,0,,,AMSA11.jpg,AMNE18.jpg,AMSA02.jpg,AMNE08.jpg,AMSA02.jpg,MS,2,num_2,16,num_2,0.750154515961,,,2017_May_10_1715,60.004407249,FEMA4ImagesEEG,001,100439,
AFNE01.JPG,AFNE01.JPG,AFNE01.JPG,AFNE01.JPG,AFNE01.JPG,AFNE01.JPG,,,,,,,,,,,,,,,,,,,,,1,2,12,8,,,AMSA20.jpg,AMNE17.jpg,AMSA03.jpg,AMNE12.jpg,AMSA20.jpg,MS,2,num_8,16,num_8,1.45006204699,,,2017_May_10_1715,60.004407249,FEMA4ImagesEEG,001,100439,
AFNE01.JPG,AFNE01.JPG,AFNE01.JPG,AFNE01.JPG,AFNE01.JPG,AFNE01.JPG,,,,,,,,,,,,,,,,,,,,,1,3,13,9,,,AMSA02.jpg,AMSA09.jpg,AMNE08.jpg,AMNE12.jpg,AMSA09.jpg,MS,2,num_6,16,num_6,0.700133651961,,,2017_May_10_1715,60.004407249,FEMA4ImagesEEG,001,100439,
AFNE01.JPG,AFNE01.JPG,AFNE01.JPG,AFNE01.JPG,AFNE01.JPG,AFNE01.JPG,,,,,,,,,,,,,,,,,,,,,1,4,14,7,,,AMNE16.jpg,AMSA09.jpg,AMSA20.jpg,AMNE08.jpg,AMNE16.jpg,MN,1,num_8,32,num_4,1.95002949215,,,2017_May_10_1715,60.004407249,FEMA4ImagesEEG,001,100439,
AFNE01.JPG,AFNE01.JPG,AFNE01.JPG,AFNE01.JPG,AFNE01.JPG,AFNE01.JPG,,,,,,,,,,,,,,,,,,,,,1,5,15,4,,,AMSA04.jpg,AMSA16.jpg,AMNE10.jpg,AMNE05.jpg,AMNE05.jpg,MN,1,num_4,16,num_4,1.1000988197,,,2017_May_10_1715,60.004407249,FEMA4ImagesEEG,001,100439,
AFNE01.JPG,AFNE01.JPG,AFNE01.JPG,AFNE01.JPG,AFNE01.JPG,AFNE01.JPG,,,,,,,,,,,,,,,,,,,,,1,6,16,6,,,AMNE03.jpg,AMNE12.jpg,AMSA16.jpg,AMSA03.jpg,AMNE12.jpg,MN,1,num_6,16,num_6,1.23345764121,,,2017_May_10_1715,60.004407249,FEMA4ImagesEEG,001,100439,
AFNE01.JPG,AFNE01.JPG,AFNE01.JPG,AFNE01.JPG,AFNE01.JPG,AFNE01.JPG,,,,,,,,,,,,,,,,,,,,,1,7,17,5,,,AMSA05.jpg,AMNE10.jpg,AMNE19.jpg,AMSA18.jpg,AMSA18.jpg,MS,2,num_4,16,num_4,0.966699585086,,,2017_May_10_1715,60.004407249,FEMA4ImagesEEG,001,100439,
AFNE01.JPG,AFNE01.JPG,AFNE01.JPG,AFNE01.JPG,AFNE01.JPG,AFNE01.JPG,,,,,,,,,,,,,,,,,,,,,1,8,18,2,,,AMNE13.jpg,AMSA20.jpg,AMNE15.jpg,AMSA08.jpg,AMNE13.jpg,MN,1,num_8,16,num_8,1.18343100371,,,2017_May_10_1715,60.004407249,FEMA4ImagesEEG,001,100439,
AFNE01.JPG,AFNE01.JPG,AFNE01.JPG,AFNE01.JPG,AFNE01.JPG,AFNE01.JPG,,,,,,,,,,,,,,,,,,,,,1,9,19,3,,,AMNE08.jpg,AMSA20.jpg,AMNE02.jpg,AMSA01.jpg,AMNE08.jpg,MN,1,num_8,32,num_6,2.19999493239,,,2017_May_10_1715,60.004407249,FEMA4ImagesEEG,001,100439,
AFNE01.JPG,AFNE01.JPG,AFNE01.JPG,AFNE01.JPG,AFNE01.JPG,AFNE01.JPG,,,,,,,,,,,,,,,,,,,,,2,0,20,0,,,AMNE18.jpg,AMNE19.jpg,AMSA19.jpg,AMSA20.jpg,AMNE18.jpg,MN,1,num_8,32,num_6,1.83337315847,,,2017_May_10_1715,60.004407249,FEMA4ImagesEEG,001,100439,
AFNE01.JPG,AFNE01.JPG,AFNE01.JPG,AFNE01.JPG,AFNE01.JPG,AFNE01.JPG,,,,,,,,,,,,,,,,,,,,,2,1,21,5,,,AMSA10.jpg,AMSA09.jpg,AMNE19.jpg,AMNE09.jpg,AMSA09.jpg,MS,2,num_6,16,num_6,1.28342494182,,,2017_May_10_1715,60.004407249,FEMA4ImagesEEG,001,100439,
AFNE01.JPG,AFNE01.JPG,AFNE01.JPG,AFNE01.JPG,AFNE01.JPG,AFNE01.JPG,,,,,,,,,,,,,,,,,,,,,2,2,22,8,,,AMNE15.jpg,AMNE10.jpg,AMSA06.jpg,AMSA11.jpg,AMSA06.jpg,MS,2,num_2,16,num_2,1.40006876644,,,2017_May_10_1715,60.004407249,FEMA4ImagesEEG,001,100439,
AFNE01.JPG,AFNE01.JPG,AFNE01.JPG,AFNE01.JPG,AFNE01.JPG,AFNE01.JPG,,,,,,,,,,,,,,,,,,,,,2,3,23,4,,,AMNE05.jpg,AMNE03.jpg,AMSA20.jpg,AMSA06.jpg,AMNE03.jpg,MN,1,num_6,32,num_4,0.783417404396,,,2017_May_10_1715,60.004407249,FEMA4ImagesEEG,001,100439,
AFNE01.JPG,AFNE01.JPG,AFNE01.JPG,AFNE01.JPG,AFNE01.JPG,AFNE01.JPG,,,,,,,,,,,,,,,,,,,,,2,4,24,9,,,AMSA04.jpg,AMNE14.jpg,AMNE07.jpg,AMSA14.jpg,AMNE07.jpg,MN,1,num_2,16,num_2,0.866773002548,,,2017_May_10_1715,60.004407249,FEMA4ImagesEEG,001,100439,
AFNE01.JPG,AFNE01.JPG,AFNE01.JPG,AFNE01.JPG,AFNE01.JPG,AFNE01.JPG,,,,,,,,,,,,,,,,,,,,,2,5,25,2,,,AMNE16.jpg,AMSA15.jpg,AMNE17.jpg,AMSA16.jpg,AMNE16.jpg,MN,1,num_8,16,num_8,1.4167154457,,,2017_May_10_1715,60.004407249,FEMA4ImagesEEG,001,100439,
AFNE01.JPG,AFNE01.JPG,AFNE01.JPG,AFNE01.JPG,AFNE01.JPG,AFNE01.JPG,,,,,,,,,,,,,,,,,,,,,2,6,26,6,,,AMSA04.jpg,AMNE05.jpg,AMNE09.jpg,AMSA17.jpg,AMSA04.jpg,MS,2,num_8,16,num_8,0.999807556625,,,2017_May_10_1715,60.004407249,FEMA4ImagesEEG,001,100439,
AFNE01.JPG,AFNE01.JPG,AFNE01.JPG,AFNE01.JPG,AFNE01.JPG,AFNE01.JPG,,,,,,,,,,,,,,,,,,,,,2,7,27,3,,,AMSA10.jpg,AMSA03.jpg,AMNE16.jpg,AMNE17.jpg,AMNE17.jpg,MN,1,num_4,16,num_4,1.06673072884,,,2017_May_10_1715,60.004407249,FEMA4ImagesEEG,001,100439,
AFNE01.JPG,AFNE01.JPG,AFNE01.JPG,AFNE01.JPG,AFNE01.JPG,AFNE01.JPG,,,,,,,,,,,,,,,,,,,,,2,8,28,1,,,AMSA01.jpg,AMNE03.jpg,AMSA20.jpg,AMNE13.jpg,AMNE13.jpg,MN,1,num_4,16,num_4,0.733537986409,,,2017_May_10_1715,60.004407249,FEMA4ImagesEEG,001,100439,
AFNE01.JPG,AFNE01.JPG,AFNE01.JPG,AFNE01.JPG,AFNE01.JPG,AFNE01.JPG,,,,,,,,,,,,,,,,,,,,,2,9,29,7,,,AMNE12.jpg,AMSA14.jpg,AMSA08.jpg,AMNE14.jpg,AMNE14.jpg,MN,1,num_4,16,num_4,0.666801163228,,,2017_May_10_1715,60.004407249,FEMA4ImagesEEG,001,100439,
AFNE01.JPG,AFNE01.JPG,AFNE01.JPG,AFNE01.JPG,AFNE01.JPG,AFNE01.JPG,,,,,,,,,,,,,,,,,,,,,3,0,30,7,,,AMSA01.jpg,AMNE02.jpg,AMNE11.jpg,AMSA08.jpg,AMNE02.jpg,MN,1,num_6,32,num_2,2.36664262204,,,2017_May_10_1715,60.004407249,FEMA4ImagesEEG,001,100439,
AFNE01.JPG,AFNE01.JPG,AFNE01.JPG,AFNE01.JPG,AFNE01.JPG,AFNE01.JPG,,,,,,,,,,,,,,,,,,,,,3,1,31,1,,,AMNE11.jpg,AMNE01.jpg,AMSA09.jpg,AMSA15.jpg,AMNE01.jpg,MN,1,num_6,16,num_6,1.16690973332,,,2017_May_10_1715,60.004407249,FEMA4ImagesEEG,001,100439,
AFNE01.JPG,AFNE01.JPG,AFNE01.JPG,AFNE01.JPG,AFNE01.JPG,AFNE01.JPG,,,,,,,,,,,,,,,,,,,,,3,2,32,2,,,AMNE19.jpg,AMNE11.jpg,AMSA16.jpg,AMSA15.jpg,AMNE11.jpg,MN,1,num_6,32,num_2,1.71674729511,,,2017_May_10_1715,60.004407249,FEMA4ImagesEEG,001,100439,
AFNE01.JPG,AFNE01.JPG,AFNE01.JPG,AFNE01.JPG,AFNE01.JPG,AFNE01.JPG,,,,,,,,,,,,,,,,,,,,,3,3,33,5,,,AMSA14.jpg,AMSA09.jpg,AMNE18.jpg,AMNE15.jpg,AMSA14.jpg,MS,2,num_8,16,num_8,0.950143033639,,,2017_May_10_1715,60.004407249,FEMA4ImagesEEG,001,100439,
AFNE01.JPG,AFNE01.JPG,AFNE01.JPG,AFNE01.JPG,AFNE01.JPG,AFNE01.JPG,,,,,,,,,,,,,,,,,,,,,3,4,34,4,,,AMSA13.jpg,AMNE08.jpg,AMSA18.jpg,AMNE17.jpg,AMNE08.jpg,MN,1,num_6,32,num_2,1.50003383798,,,2017_May_10_1715,60.004407249,FEMA4ImagesEEG,001,100439,
AFNE01.JPG,AFNE01.JPG,AFNE01.JPG,AFNE01.JPG,AFNE01.JPG,AFNE01.JPG,,,,,,,,,,,,,,,,,,,,,3,5,35,3,,,AMNE16.jpg,AMSA20.jpg,AMSA17.jpg,AMNE10.jpg,AMNE10.jpg,MN,1,num_4,16,num_4,1.08345181961,,,2017_May_10_1715,60.004407249,FEMA4ImagesEEG,001,100439,
AFNE01.JPG,AFNE01.JPG,AFNE01.JPG,AFNE01.JPG,AFNE01.JPG,AFNE01.JPG,,,,,,,,,,,,,,,,,,,,,3,6,36,6,,,AMSA13.jpg,AMSA17.jpg,AMNE12.jpg,AMNE16.jpg,AMNE12.jpg,MN,1,num_2,16,num_2,1.70006790035,,,2017_May_10_1715,60.004407249,FEMA4ImagesEEG,001,100439,
AFNE01.JPG,AFNE01.JPG,AFNE01.JPG,AFNE01.JPG,AFNE01.JPG,AFNE01.JPG,,,,,,,,,,,,,,,,,,,,,3,7,37,9,,,AMSA03.jpg,AMNE03.jpg,AMSA07.jpg,AMNE14.jpg,AMNE14.jpg,MN,1,num_4,16,num_4,1.20008473936,,,2017_May_10_1715,60.004407249,FEMA4ImagesEEG,001,100439,
AFNE01.JPG,AFNE01.JPG,AFNE01.JPG,AFNE01.JPG,AFNE01.JPG,AFNE01.JPG,,,,,,,,,,,,,,,,,,,,,3,8,38,0,,,AMSA05.jpg,AMNE10.jpg,AMNE16.jpg,AMSA03.jpg,AMNE16.jpg,MN,1,num_2,16,num_2,1.33342431625,,,2017_May_10_1715,60.004407249,FEMA4ImagesEEG,001,100439,
AFNE01.JPG,AFNE01.JPG,AFNE01.JPG,AFNE01.JPG,AFNE01.JPG,AFNE01.JPG,,,,,,,,,,,,,,,,,,,,,3,9,39,8,,,AMSA09.jpg,AMSA01.jpg,AMNE15.jpg,AMNE18.jpg,AMSA01.jpg,MS,2,num_6,32,num_8,1.28356831218,,,2017_May_10_1715,60.004407249,FEMA4ImagesEEG,001,100439,
AFNE01.JPG,AFNE01.JPG,AFNE01.JPG,AFNE01.JPG,AFNE01.JPG,AFNE01.JPG,,,,,,,,,,,,,,,,,,,,,4,0,40,9,,,AMNE15.jpg,AMNE07.jpg,AMSA05.jpg,AMSA01.jpg,AMSA01.jpg,MS,2,num_4,16,num_4,0.71690092911,,,2017_May_10_1715,60.004407249,FEMA4ImagesEEG,001,100439,
