IPosition2,IPosition3,IPosition1,IPosition6,IPosition4,IPosition5,TrialsF1.thisRepN,TrialsF1.thisTrialN,TrialsF1.thisN,TrialsF1.thisIndex,TrialsM1.thisRepN,TrialsM1.thisTrialN,TrialsM1.thisN,TrialsM1.thisIndex,TrialsF2.thisRepN,TrialsF2.thisTrialN,TrialsF2.thisN,TrialsF2.thisIndex,TrialsM2.thisRepN,TrialsM2.thisTrialN,TrialsM2.thisN,TrialsM2.thisIndex,TrialsF3.thisRepN,TrialsF3.thisTrialN,TrialsF3.thisN,TrialsF3.thisIndex,TrialsM3.thisRepN,TrialsM3.thisTrialN,TrialsM3.thisN,TrialsM3.thisIndex,InstrKey_resp.keys,InstrKey_resp.rt,Image0 _Position,Image1 _Position,Image2 _Position,Image3 _Position,Center_image,condition,code,correct_answer,accuracy,Key_Resp.keys,Key_Resp.rt,BreakKey_resp.keys,BreakKey_resp.rt,date,frameRate,expName,session,participant,
,,,,,,,,,,,,,,,,,,,,,,,,,,,,,,space,70.0116014609,,,,,,,,,,,,,,2017_May_16_1830,59.9955933634,FEMA4ImagesEEG,001,100481,
AMNE23.JPG,AMNE24.JPG,AMNE22.JPG,AMSA24.JPG,AMSA22.JPG,AMSA23.JPG,0,0,0,9,,,,,,,,,,,,,,,,,,,,,,,AFNE11.jpg,AFSA09.jpg,AFSA12.jpg,AFNE04.jpg,AFSA12.jpg,FS,4,num_2,32,num_8,1.40007511714,,,2017_May_16_1830,59.9955933634,FEMA4ImagesEEG,001,100481,
AFNE23.JPG,AFNE24.JPG,AFNE22.JPG,AFSA24.JPG,AFSA22.JPG,AFSA23.JPG,0,1,1,8,,,,,,,,,,,,,,,,,,,,,,,AFSA05.jpg,AFSA08.jpg,AFNE19.jpg,AFNE05.jpg,AFSA08.jpg,FS,4,num_6,32,num_4,2.966664924,,,2017_May_16_1830,59.9955933634,FEMA4ImagesEEG,001,100481,
AMNE22.JPG,AMSA24.JPG,AMSA22.JPG,AMNE25.JPG,AMNE24.JPG,AMSA25.JPG,0,2,2,7,,,,,,,,,,,,,,,,,,,,,,,AFSA12.jpg,AFNE11.jpg,AFNE08.jpg,AFSA14.jpg,AFNE11.jpg,FN,3,num_6,32,num_8,2.86665296041,,,2017_May_16_1830,59.9955933634,FEMA4ImagesEEG,001,100481,
AFSA25.JPG,AFNE24.JPG,AFSA24.JPG,AFNE21.JPG,AFSA21.JPG,AFNE25.JPG,0,3,3,2,,,,,,,,,,,,,,,,,,,,,,,AFNE20.jpg,AFNE12.jpg,AFSA15.jpg,AFSA14.jpg,AFNE12.jpg,FN,3,num_6,48,None,,,,2017_May_16_1830,59.9955933634,FEMA4ImagesEEG,001,100481,
AFSA21.JPG,AFNE22.JPG,AFNE21.JPG,AFSA23.JPG,AFSA22.JPG,AFNE23.JPG,0,4,4,0,,,,,,,,,,,,,,,,,,,,,,,AFNE20.jpg,AFSA01.jpg,AFNE05.jpg,AFSA07.jpg,AFNE05.jpg,FN,3,num_2,32,num_8,1.9167386459,,,2017_May_16_1830,59.9955933634,FEMA4ImagesEEG,001,100481,
AMSA21.JPG,AMNE23.JPG,AMNE21.JPG,AMSA25.JPG,AMNE25.JPG,AMSA23.JPG,0,5,5,5,,,,,,,,,,,,,,,,,,,,,,,AFNE01.jpg,AFSA03.jpg,AFSA04.jpg,AFNE10.jpg,AFNE10.jpg,FN,3,num_4,32,num_6,1.85003289182,,,2017_May_16_1830,59.9955933634,FEMA4ImagesEEG,001,100481,
AMSA25.JPG,AMNE24.JPG,AMSA24.JPG,AMNE26.JPG,AMSA21.JPG,AMNE25.JPG,0,6,6,3,,,,,,,,,,,,,,,,,,,,,,,AFNE03.jpg,AFSA10.jpg,AFSA08.jpg,AFNE10.jpg,AFSA10.jpg,FS,4,num_6,16,num_6,1.40035095293,,,2017_May_16_1830,59.9955933634,FEMA4ImagesEEG,001,100481,
AMSA21.JPG,AMNE22.JPG,AMNE21.JPG,AMSA23.JPG,AMSA22.JPG,AMNE23.JPG,0,7,7,1,,,,,,,,,,,,,,,,,,,,,,,AFNE10.jpg,AFSA04.jpg,AFSA13.jpg,AFNE05.jpg,AFSA04.jpg,FS,4,num_6,16,num_6,1.23351776911,,,2017_May_16_1830,59.9955933634,FEMA4ImagesEEG,001,100481,
AFSA21.JPG,AFNE23.JPG,AFNE21.JPG,AFSA25.JPG,AFNE25.JPG,AFSA23.JPG,0,8,8,4,,,,,,,,,,,,,,,,,,,,,,,AFSA03.jpg,AFNE10.jpg,AFNE13.jpg,AFSA13.jpg,AFNE13.jpg,FN,3,num_2,32,num_6,1.30005641804,,,2017_May_16_1830,59.9955933634,FEMA4ImagesEEG,001,100481,
AFNE22.JPG,AFSA24.JPG,AFSA22.JPG,AFNE25.JPG,AFNE24.JPG,AFSA25.JPG,0,9,9,6,,,,,,,,,,,,,,,,,,,,,,,AFNE09.jpg,AFNE10.jpg,AFSA14.jpg,AFSA08.jpg,AFSA14.jpg,FS,4,num_2,32,num_4,1.40010847403,,,2017_May_16_1830,59.9955933634,FEMA4ImagesEEG,001,100481,
AMSA21.JPG,AMNE22.JPG,AMNE21.JPG,AMSA23.JPG,AMSA22.JPG,AMNE23.JPG,,,,,0,0,0,1,,,,,,,,,,,,,,,,,,,AMSA08.jpg,AMNE07.jpg,AMNE17.jpg,AMSA05.jpg,AMNE17.jpg,MN,1,num_2,16,num_2,2.050048159,,,2017_May_16_1830,59.9955933634,FEMA4ImagesEEG,001,100481,
AMSA21.JPG,AMNE23.JPG,AMNE21.JPG,AMSA25.JPG,AMNE25.JPG,AMSA23.JPG,,,,,0,1,1,5,,,,,,,,,,,,,,,,,,,AMSA01.jpg,AMSA08.jpg,AMNE19.jpg,AMNE10.jpg,AMNE10.jpg,MN,1,num_4,16,num_4,2.04992916473,,,2017_May_16_1830,59.9955933634,FEMA4ImagesEEG,001,100481,
AMNE22.JPG,AMSA24.JPG,AMSA22.JPG,AMNE25.JPG,AMNE24.JPG,AMSA25.JPG,,,,,0,2,2,7,,,,,,,,,,,,,,,,,,,AMNE09.jpg,AMSA09.jpg,AMSA11.jpg,AMNE06.jpg,AMSA11.jpg,MS,2,num_2,16,num_2,2.13333581371,,,2017_May_16_1830,59.9955933634,FEMA4ImagesEEG,001,100481,
AFSA21.JPG,AFNE22.JPG,AFNE21.JPG,AFSA23.JPG,AFSA22.JPG,AFNE23.JPG,,,,,0,3,3,0,,,,,,,,,,,,,,,,,,,AMNE02.jpg,AMSA19.jpg,AMNE20.jpg,AMSA09.jpg,AMNE02.jpg,MN,1,num_8,16,num_8,1.74975695979,,,2017_May_16_1830,59.9955933634,FEMA4ImagesEEG,001,100481,
AFSA21.JPG,AFNE23.JPG,AFNE21.JPG,AFSA25.JPG,AFNE25.JPG,AFSA23.JPG,,,,,0,4,4,4,,,,,,,,,,,,,,,,,,,AMSA06.jpg,AMNE08.jpg,AMSA09.jpg,AMNE20.jpg,AMSA09.jpg,MS,2,num_2,16,num_2,1.14997159854,,,2017_May_16_1830,59.9955933634,FEMA4ImagesEEG,001,100481,
AMSA25.JPG,AMNE24.JPG,AMSA24.JPG,AMNE26.JPG,AMSA21.JPG,AMNE25.JPG,,,,,0,5,5,3,,,,,,,,,,,,,,,,,,,AMNE01.jpg,AMNE12.jpg,AMSA11.jpg,AMSA17.jpg,AMSA11.jpg,MS,2,num_2,16,num_2,1.28347098929,,,2017_May_16_1830,59.9955933634,FEMA4ImagesEEG,001,100481,
AFNE23.JPG,AFNE24.JPG,AFNE22.JPG,AFSA24.JPG,AFSA22.JPG,AFSA23.JPG,,,,,0,6,6,8,,,,,,,,,,,,,,,,,,,AMSA11.jpg,AMNE20.jpg,AMSA20.jpg,AMNE03.jpg,AMNE20.jpg,MN,1,num_6,32,num_4,3.88346900072,,,2017_May_16_1830,59.9955933634,FEMA4ImagesEEG,001,100481,
AMNE23.JPG,AMNE24.JPG,AMNE22.JPG,AMSA24.JPG,AMSA22.JPG,AMSA23.JPG,,,,,0,7,7,9,,,,,,,,,,,,,,,,,,,AMNE01.jpg,AMNE13.jpg,AMSA10.jpg,AMSA17.jpg,AMNE01.jpg,MN,1,num_8,16,num_8,1.40028167324,,,2017_May_16_1830,59.9955933634,FEMA4ImagesEEG,001,100481,
AFNE22.JPG,AFSA24.JPG,AFSA22.JPG,AFNE25.JPG,AFNE24.JPG,AFSA25.JPG,,,,,0,8,8,6,,,,,,,,,,,,,,,,,,,AMNE17.jpg,AMSA09.jpg,AMNE11.jpg,AMSA16.jpg,AMSA09.jpg,MS,2,num_6,32,num_8,2.49997450122,,,2017_May_16_1830,59.9955933634,FEMA4ImagesEEG,001,100481,
AFSA25.JPG,AFNE24.JPG,AFSA24.JPG,AFNE21.JPG,AFSA21.JPG,AFNE25.JPG,,,,,0,9,9,2,,,,,,,,,,,,,,,,,,,AMSA03.jpg,AMSA04.jpg,AMNE19.jpg,AMNE10.jpg,AMSA04.jpg,MS,2,num_6,16,num_6,1.55004158385,,,2017_May_16_1830,59.9955933634,FEMA4ImagesEEG,001,100481,
AFNE22.JPG,AFSA24.JPG,AFSA22.JPG,AFNE25.JPG,AFNE24.JPG,AFSA25.JPG,,,,,,,,,0,0,0,6,,,,,,,,,,,,,,,AFSA17.jpg,AFNE20.jpg,AFSA10.jpg,AFNE17.jpg,AFSA10.jpg,FS,4,num_2,16,num_2,1.38341367317,,,2017_May_16_1830,59.9955933634,FEMA4ImagesEEG,001,100481,
AMSA21.JPG,AMNE22.JPG,AMNE21.JPG,AMSA23.JPG,AMSA22.JPG,AMNE23.JPG,,,,,,,,,0,1,1,1,,,,,,,,,,,,,,,AFNE17.jpg,AFSA18.jpg,AFSA08.jpg,AFNE02.jpg,AFSA08.jpg,FS,4,num_2,32,num_8,2.13332490857,,,2017_May_16_1830,59.9955933634,FEMA4ImagesEEG,001,100481,
AFNE23.JPG,AFNE24.JPG,AFNE22.JPG,AFSA24.JPG,AFSA22.JPG,AFSA23.JPG,,,,,,,,,0,2,2,8,,,,,,,,,,,,,,,AFSA03.jpg,AFNE18.jpg,AFNE15.jpg,AFSA15.jpg,AFSA15.jpg,FS,4,num_4,32,num_2,1.45004084615,,,2017_May_16_1830,59.9955933634,FEMA4ImagesEEG,001,100481,
AMSA21.JPG,AMNE23.JPG,AMNE21.JPG,AMSA25.JPG,AMNE25.JPG,AMSA23.JPG,,,,,,,,,0,3,3,5,,,,,,,,,,,,,,,AFNE16.jpg,AFSA15.jpg,AFNE01.jpg,AFSA12.jpg,AFSA15.jpg,FS,4,num_6,32,num_2,1.35006576759,,,2017_May_16_1830,59.9955933634,FEMA4ImagesEEG,001,100481,
AFSA21.JPG,AFNE23.JPG,AFNE21.JPG,AFSA25.JPG,AFNE25.JPG,AFSA23.JPG,,,,,,,,,0,4,4,4,,,,,,,,,,,,,,,AFSA19.jpg,AFSA17.jpg,AFNE12.jpg,AFNE05.jpg,AFNE05.jpg,FN,3,num_4,32,num_6,2.10001164283,,,2017_May_16_1830,59.9955933634,FEMA4ImagesEEG,001,100481,
AFSA25.JPG,AFNE24.JPG,AFSA24.JPG,AFNE21.JPG,AFSA21.JPG,AFNE25.JPG,,,,,,,,,0,5,5,2,,,,,,,,,,,,,,,AFSA11.jpg,AFNE01.jpg,AFNE10.jpg,AFSA20.jpg,AFSA11.jpg,FS,4,num_8,16,num_8,1.26698915934,,,2017_May_16_1830,59.9955933634,FEMA4ImagesEEG,001,100481,
AFSA21.JPG,AFNE22.JPG,AFNE21.JPG,AFSA23.JPG,AFSA22.JPG,AFNE23.JPG,,,,,,,,,0,6,6,0,,,,,,,,,,,,,,,AFSA04.jpg,AFNE19.jpg,AFSA13.jpg,AFNE01.jpg,AFNE19.jpg,FN,3,num_6,16,num_6,1.483470861,,,2017_May_16_1830,59.9955933634,FEMA4ImagesEEG,001,100481,
AMSA25.JPG,AMNE24.JPG,AMSA24.JPG,AMNE26.JPG,AMSA21.JPG,AMNE25.JPG,,,,,,,,,0,7,7,3,,,,,,,,,,,,,,,AFNE09.jpg,AFSA08.jpg,AFSA13.jpg,AFNE13.jpg,AFNE13.jpg,FN,3,num_4,16,num_4,2.79998890242,,,2017_May_16_1830,59.9955933634,FEMA4ImagesEEG,001,100481,
AMNE22.JPG,AMSA24.JPG,AMSA22.JPG,AMNE25.JPG,AMNE24.JPG,AMSA25.JPG,,,,,,,,,0,8,8,7,,,,,,,,,,,,,,,AFSA13.jpg,AFNE09.jpg,AFNE16.jpg,AFSA07.jpg,AFNE09.jpg,FN,3,num_6,16,num_6,0.916859564619,,,2017_May_16_1830,59.9955933634,FEMA4ImagesEEG,001,100481,
AMNE23.JPG,AMNE24.JPG,AMNE22.JPG,AMSA24.JPG,AMSA22.JPG,AMSA23.JPG,,,,,,,,,0,9,9,9,,,,,,,,,,,,,,,AFNE16.jpg,AFSA08.jpg,AFSA18.jpg,AFNE09.jpg,AFNE09.jpg,FN,3,num_4,32,num_6,1.30008015274,,,2017_May_16_1830,59.9955933634,FEMA4ImagesEEG,001,100481,
AFSA25.JPG,AFNE24.JPG,AFSA24.JPG,AFNE21.JPG,AFSA21.JPG,AFNE25.JPG,,,,,,,,,,,,,0,0,0,2,,,,,,,,,,,AMSA04.jpg,AMNE13.jpg,AMSA17.jpg,AMNE20.jpg,AMNE20.jpg,MN,1,num_4,32,num_2,2.24999446725,,,2017_May_16_1830,59.9955933634,FEMA4ImagesEEG,001,100481,
AFNE23.JPG,AFNE24.JPG,AFNE22.JPG,AFSA24.JPG,AFSA22.JPG,AFSA23.JPG,,,,,,,,,,,,,0,1,1,8,,,,,,,,,,,AMNE12.jpg,AMSA15.jpg,AMNE08.jpg,AMSA03.jpg,AMSA15.jpg,MS,2,num_6,16,num_6,1.21669884217,,,2017_May_16_1830,59.9955933634,FEMA4ImagesEEG,001,100481,
AFSA21.JPG,AFNE22.JPG,AFNE21.JPG,AFSA23.JPG,AFSA22.JPG,AFNE23.JPG,,,,,,,,,,,,,0,2,2,0,,,,,,,,,,,AMNE11.jpg,AMSA15.jpg,AMNE05.jpg,AMSA11.jpg,AMNE11.jpg,MN,1,num_8,32,num_2,1.2498398709,,,2017_May_16_1830,59.9955933634,FEMA4ImagesEEG,001,100481,
AMSA21.JPG,AMNE22.JPG,AMNE21.JPG,AMSA23.JPG,AMSA22.JPG,AMNE23.JPG,,,,,,,,,,,,,0,3,3,1,,,,,,,,,,,AMNE07.jpg,AMSA02.jpg,AMNE19.jpg,AMSA08.jpg,AMNE19.jpg,MN,1,num_2,32,num_8,2.9168903556,,,2017_May_16_1830,59.9955933634,FEMA4ImagesEEG,001,100481,
AMNE23.JPG,AMNE24.JPG,AMNE22.JPG,AMSA24.JPG,AMSA22.JPG,AMSA23.JPG,,,,,,,,,,,,,0,4,4,9,,,,,,,,,,,AMNE12.jpg,AMSA07.jpg,AMSA19.jpg,AMNE17.jpg,AMNE17.jpg,MN,1,num_4,32,num_6,1.38344093601,,,2017_May_16_1830,59.9955933634,FEMA4ImagesEEG,001,100481,
AFSA21.JPG,AFNE23.JPG,AFNE21.JPG,AFSA25.JPG,AFNE25.JPG,AFSA23.JPG,,,,,,,,,,,,,0,5,5,4,,,,,,,,,,,AMSA17.jpg,AMNE03.jpg,AMNE01.jpg,AMSA14.jpg,AMSA14.jpg,MS,2,num_4,32,num_2,1.43342943751,,,2017_May_16_1830,59.9955933634,FEMA4ImagesEEG,001,100481,
AMNE22.JPG,AMSA24.JPG,AMSA22.JPG,AMNE25.JPG,AMNE24.JPG,AMSA25.JPG,,,,,,,,,,,,,0,6,6,7,,,,,,,,,,,AMNE15.jpg,AMSA04.jpg,AMSA02.jpg,AMNE16.jpg,AMSA02.jpg,MS,2,num_2,32,num_8,2.20000564502,,,2017_May_16_1830,59.9955933634,FEMA4ImagesEEG,001,100481,
AMSA25.JPG,AMNE24.JPG,AMSA24.JPG,AMNE26.JPG,AMSA21.JPG,AMNE25.JPG,,,,,,,,,,,,,0,7,7,3,,,,,,,,,,,AMNE12.jpg,AMSA14.jpg,AMNE07.jpg,AMSA09.jpg,AMNE07.jpg,MN,1,num_2,16,num_2,2.56666646354,,,2017_May_16_1830,59.9955933634,FEMA4ImagesEEG,001,100481,
AFNE22.JPG,AFSA24.JPG,AFSA22.JPG,AFNE25.JPG,AFNE24.JPG,AFSA25.JPG,,,,,,,,,,,,,0,8,8,6,,,,,,,,,,,AMNE07.jpg,AMSA17.jpg,AMSA07.jpg,AMNE04.jpg,AMNE07.jpg,MN,1,num_8,16,num_8,1.08347240055,,,2017_May_16_1830,59.9955933634,FEMA4ImagesEEG,001,100481,
AMSA21.JPG,AMNE23.JPG,AMNE21.JPG,AMSA25.JPG,AMNE25.JPG,AMSA23.JPG,,,,,,,,,,,,,0,9,9,5,,,,,,,,,,,AMNE06.jpg,AMSA15.jpg,AMSA18.jpg,AMNE10.jpg,AMSA15.jpg,MS,2,num_6,16,num_6,1.15011753493,,,2017_May_16_1830,59.9955933634,FEMA4ImagesEEG,001,100481,
AFSA21.JPG,AFNE23.JPG,AFNE21.JPG,AFSA25.JPG,AFNE25.JPG,AFSA23.JPG,,,,,,,,,,,,,,,,,0,0,0,4,,,,,,,AFSA05.jpg,AFNE15.jpg,AFNE06.jpg,AFSA11.jpg,AFSA05.jpg,FS,4,num_8,32,num_6,1.88332146063,,,2017_May_16_1830,59.9955933634,FEMA4ImagesEEG,001,100481,
AMSA21.JPG,AMNE22.JPG,AMNE21.JPG,AMSA23.JPG,AMSA22.JPG,AMNE23.JPG,,,,,,,,,,,,,,,,,0,1,1,1,,,,,,,AFNE04.jpg,AFNE16.jpg,AFSA17.jpg,AFSA02.jpg,AFNE16.jpg,FN,3,num_6,32,num_4,2.39998883827,,,2017_May_16_1830,59.9955933634,FEMA4ImagesEEG,001,100481,
AMSA21.JPG,AMNE23.JPG,AMNE21.JPG,AMSA25.JPG,AMNE25.JPG,AMSA23.JPG,,,,,,,,,,,,,,,,,0,2,2,5,,,,,,,AFNE10.jpg,AFSA01.jpg,AFNE01.jpg,AFSA12.jpg,AFNE10.jpg,FN,3,num_8,32,num_4,1.70003082305,,,2017_May_16_1830,59.9955933634,FEMA4ImagesEEG,001,100481,
AFNE23.JPG,AFNE24.JPG,AFNE22.JPG,AFSA24.JPG,AFSA22.JPG,AFSA23.JPG,,,,,,,,,,,,,,,,,0,3,3,8,,,,,,,AFNE12.jpg,AFSA08.jpg,AFNE13.jpg,AFSA20.jpg,AFSA08.jpg,FS,4,num_6,32,num_2,1.80006427615,,,2017_May_16_1830,59.9955933634,FEMA4ImagesEEG,001,100481,
AFSA21.JPG,AFNE22.JPG,AFNE21.JPG,AFSA23.JPG,AFSA22.JPG,AFNE23.JPG,,,,,,,,,,,,,,,,,0,4,4,0,,,,,,,AFSA09.jpg,AFNE07.jpg,AFSA18.jpg,AFNE03.jpg,AFSA18.jpg,FS,4,num_2,32,num_6,1.05038910487,,,2017_May_16_1830,59.9955933634,FEMA4ImagesEEG,001,100481,
AMSA25.JPG,AMNE24.JPG,AMSA24.JPG,AMNE26.JPG,AMSA21.JPG,AMNE25.JPG,,,,,,,,,,,,,,,,,0,5,5,3,,,,,,,AFNE01.jpg,AFSA02.jpg,AFNE09.jpg,AFSA07.jpg,AFNE01.jpg,FN,3,num_8,16,num_8,3.95015294453,,,2017_May_16_1830,59.9955933634,FEMA4ImagesEEG,001,100481,
AMNE22.JPG,AMSA24.JPG,AMSA22.JPG,AMNE25.JPG,AMNE24.JPG,AMSA25.JPG,,,,,,,,,,,,,,,,,0,6,6,7,,,,,,,AFSA01.jpg,AFSA17.jpg,AFNE14.jpg,AFNE04.jpg,AFNE14.jpg,FN,3,num_2,32,num_6,1.21676491447,,,2017_May_16_1830,59.9955933634,FEMA4ImagesEEG,001,100481,
AMNE23.JPG,AMNE24.JPG,AMNE22.JPG,AMSA24.JPG,AMSA22.JPG,AMSA23.JPG,,,,,,,,,,,,,,,,,0,7,7,9,,,,,,,AFSA06.jpg,AFNE14.jpg,AFNE20.jpg,AFSA05.jpg,AFSA05.jpg,FS,4,num_4,32,num_2,1.73337135163,,,2017_May_16_1830,59.9955933634,FEMA4ImagesEEG,001,100481,
AFNE22.JPG,AFSA24.JPG,AFSA22.JPG,AFNE25.JPG,AFNE24.JPG,AFSA25.JPG,,,,,,,,,,,,,,,,,0,8,8,6,,,,,,,AFSA01.jpg,AFNE20.jpg,AFNE12.jpg,AFSA03.jpg,AFNE20.jpg,FN,3,num_6,32,num_8,2.26667098596,,,2017_May_16_1830,59.9955933634,FEMA4ImagesEEG,001,100481,
AFSA25.JPG,AFNE24.JPG,AFSA24.JPG,AFNE21.JPG,AFSA21.JPG,AFNE25.JPG,,,,,,,,,,,,,,,,,0,9,9,2,,,,,,,AFSA02.jpg,AFSA12.jpg,AFNE03.jpg,AFNE06.jpg,AFNE03.jpg,FN,3,num_2,32,num_4,1.51672831811,,,2017_May_16_1830,59.9955933634,FEMA4ImagesEEG,001,100481,
AFSA25.JPG,AFNE24.JPG,AFSA24.JPG,AFNE21.JPG,AFSA21.JPG,AFNE25.JPG,,,,,,,,,,,,,,,,,,,,,0,0,0,2,,,AMNE17.jpg,AMSA11.jpg,AMNE16.jpg,AMSA01.jpg,AMNE16.jpg,MN,1,num_2,16,num_2,1.35007923865,,,2017_May_16_1830,59.9955933634,FEMA4ImagesEEG,001,100481,
AMSA25.JPG,AMNE24.JPG,AMSA24.JPG,AMNE26.JPG,AMSA21.JPG,AMNE25.JPG,,,,,,,,,,,,,,,,,,,,,0,1,1,3,,,AMNE19.jpg,AMNE16.jpg,AMSA06.jpg,AMSA11.jpg,AMNE19.jpg,MN,1,num_8,16,num_8,0.98347775689,,,2017_May_16_1830,59.9955933634,FEMA4ImagesEEG,001,100481,
AFSA21.JPG,AFNE22.JPG,AFNE21.JPG,AFSA23.JPG,AFSA22.JPG,AFNE23.JPG,,,,,,,,,,,,,,,,,,,,,0,2,2,0,,,AMNE04.jpg,AMNE16.jpg,AMSA07.jpg,AMSA12.jpg,AMSA12.jpg,MS,2,num_4,32,num_6,1.30009266159,,,2017_May_16_1830,59.9955933634,FEMA4ImagesEEG,001,100481,
AFNE22.JPG,AFSA24.JPG,AFSA22.JPG,AFNE25.JPG,AFNE24.JPG,AFSA25.JPG,,,,,,,,,,,,,,,,,,,,,0,3,3,6,,,AMSA03.jpg,AMSA19.jpg,AMNE03.jpg,AMNE13.jpg,AMNE03.jpg,MN,1,num_2,16,num_2,1.11680106177,,,2017_May_16_1830,59.9955933634,FEMA4ImagesEEG,001,100481,
AMNE23.JPG,AMNE24.JPG,AMNE22.JPG,AMSA24.JPG,AMSA22.JPG,AMSA23.JPG,,,,,,,,,,,,,,,,,,,,,0,4,4,9,,,AMNE19.jpg,AMNE20.jpg,AMSA10.jpg,AMSA12.jpg,AMNE20.jpg,MN,1,num_6,16,num_6,1.16669975627,,,2017_May_16_1830,59.9955933634,FEMA4ImagesEEG,001,100481,
AMSA21.JPG,AMNE22.JPG,AMNE21.JPG,AMSA23.JPG,AMSA22.JPG,AMNE23.JPG,,,,,,,,,,,,,,,,,,,,,0,5,5,1,,,AMNE01.jpg,AMSA03.jpg,AMSA18.jpg,AMNE11.jpg,AMNE11.jpg,MN,1,num_4,16,num_4,1.05014277709,,,2017_May_16_1830,59.9955933634,FEMA4ImagesEEG,001,100481,
AFNE23.JPG,AFNE24.JPG,AFNE22.JPG,AFSA24.JPG,AFSA22.JPG,AFSA23.JPG,,,,,,,,,,,,,,,,,,,,,0,6,6,8,,,AMNE16.jpg,AMSA05.jpg,AMNE10.jpg,AMSA08.jpg,AMSA08.jpg,MS,2,num_4,32,num_2,1.63340493303,,,2017_May_16_1830,59.9955933634,FEMA4ImagesEEG,001,100481,
AMSA21.JPG,AMNE23.JPG,AMNE21.JPG,AMSA25.JPG,AMNE25.JPG,AMSA23.JPG,,,,,,,,,,,,,,,,,,,,,0,7,7,5,,,AMSA14.jpg,AMSA20.jpg,AMNE14.jpg,AMNE03.jpg,AMSA14.jpg,MS,2,num_8,32,num_2,2.41662366087,,,2017_May_16_1830,59.9955933634,FEMA4ImagesEEG,001,100481,
AFSA21.JPG,AFNE23.JPG,AFNE21.JPG,AFSA25.JPG,AFNE25.JPG,AFSA23.JPG,,,,,,,,,,,,,,,,,,,,,0,8,8,4,,,AMSA20.jpg,AMNE07.jpg,AMSA18.jpg,AMNE19.jpg,AMSA18.jpg,MS,2,num_2,16,num_2,1.00009525957,,,2017_May_16_1830,59.9955933634,FEMA4ImagesEEG,001,100481,
AMNE22.JPG,AMSA24.JPG,AMSA22.JPG,AMNE25.JPG,AMNE24.JPG,AMSA25.JPG,,,,,,,,,,,,,,,,,,,,,0,9,9,7,,,AMSA17.jpg,AMSA05.jpg,AMNE12.jpg,AMNE04.jpg,AMNE12.jpg,MN,1,num_2,32,num_8,1.53337757397,,,2017_May_16_1830,59.9955933634,FEMA4ImagesEEG,001,100481,
,,,,,,,,,,,,,,,,,,,,,,,,,,,,,,,,,,,,,,,,,,,space,12.3821993542,2017_May_16_1830,59.9955933634,FEMA4ImagesEEG,001,100481,
AFNE01.JPG,AFNE01.JPG,AFNE01.JPG,AFNE01.JPG,AFNE01.JPG,AFNE01.JPG,0,0,0,1,,,,,,,,,,,,,,,,,,,,,,,AFSA16.jpg,AFNE10.jpg,AFSA09.jpg,AFNE16.jpg,AFSA16.jpg,FS,4,num_8,16,num_8,1.08344128884,,,2017_May_16_1830,59.9955933634,FEMA4ImagesEEG,001,100481,
AFNE01.JPG,AFNE01.JPG,AFNE01.JPG,AFNE01.JPG,AFNE01.JPG,AFNE01.JPG,0,1,1,3,,,,,,,,,,,,,,,,,,,,,,,AFNE06.jpg,AFNE13.jpg,AFSA09.jpg,AFSA13.jpg,AFNE13.jpg,FN,3,num_6,32,num_4,2.8832746327,,,2017_May_16_1830,59.9955933634,FEMA4ImagesEEG,001,100481,
AFNE01.JPG,AFNE01.JPG,AFNE01.JPG,AFNE01.JPG,AFNE01.JPG,AFNE01.JPG,0,2,2,0,,,,,,,,,,,,,,,,,,,,,,,AFNE08.jpg,AFSA19.jpg,AFNE17.jpg,AFSA05.jpg,AFSA05.jpg,FS,4,num_4,32,num_2,1.00009654253,,,2017_May_16_1830,59.9955933634,FEMA4ImagesEEG,001,100481,
AFNE01.JPG,AFNE01.JPG,AFNE01.JPG,AFNE01.JPG,AFNE01.JPG,AFNE01.JPG,0,3,3,6,,,,,,,,,,,,,,,,,,,,,,,AFNE10.jpg,AFSA07.jpg,AFNE11.jpg,AFSA08.jpg,AFNE11.jpg,FN,3,num_2,32,num_8,2.13348559897,,,2017_May_16_1830,59.9955933634,FEMA4ImagesEEG,001,100481,
AFNE01.JPG,AFNE01.JPG,AFNE01.JPG,AFNE01.JPG,AFNE01.JPG,AFNE01.JPG,0,4,4,8,,,,,,,,,,,,,,,,,,,,,,,AFNE17.jpg,AFSA05.jpg,AFSA03.jpg,AFNE09.jpg,AFNE09.jpg,FN,3,num_4,16,num_4,1.75014345064,,,2017_May_16_1830,59.9955933634,FEMA4ImagesEEG,001,100481,
AFNE01.JPG,AFNE01.JPG,AFNE01.JPG,AFNE01.JPG,AFNE01.JPG,AFNE01.JPG,0,5,5,5,,,,,,,,,,,,,,,,,,,,,,,AFSA09.jpg,AFSA12.jpg,AFNE13.jpg,AFNE20.jpg,AFNE13.jpg,FN,3,num_2,32,num_6,1.36672432489,,,2017_May_16_1830,59.9955933634,FEMA4ImagesEEG,001,100481,
AFNE01.JPG,AFNE01.JPG,AFNE01.JPG,AFNE01.JPG,AFNE01.JPG,AFNE01.JPG,0,6,6,4,,,,,,,,,,,,,,,,,,,,,,,AFNE18.jpg,AFNE13.jpg,AFSA01.jpg,AFSA09.jpg,AFSA01.jpg,FS,4,num_2,16,num_2,1.30008239792,,,2017_May_16_1830,59.9955933634,FEMA4ImagesEEG,001,100481,
AFNE01.JPG,AFNE01.JPG,AFNE01.JPG,AFNE01.JPG,AFNE01.JPG,AFNE01.JPG,0,7,7,2,,,,,,,,,,,,,,,,,,,,,,,AFNE18.jpg,AFSA09.jpg,AFSA18.jpg,AFNE06.jpg,AFNE06.jpg,FN,3,num_4,16,num_4,1.40008730524,,,2017_May_16_1830,59.9955933634,FEMA4ImagesEEG,001,100481,
AFNE01.JPG,AFNE01.JPG,AFNE01.JPG,AFNE01.JPG,AFNE01.JPG,AFNE01.JPG,0,8,8,7,,,,,,,,,,,,,,,,,,,,,,,AFSA12.jpg,AFSA16.jpg,AFNE15.jpg,AFNE02.jpg,AFNE02.jpg,FN,3,num_4,32,num_2,1.51628537715,,,2017_May_16_1830,59.9955933634,FEMA4ImagesEEG,001,100481,
AFNE01.JPG,AFNE01.JPG,AFNE01.JPG,AFNE01.JPG,AFNE01.JPG,AFNE01.JPG,0,9,9,9,,,,,,,,,,,,,,,,,,,,,,,AFSA07.jpg,AFNE16.jpg,AFSA12.jpg,AFNE17.jpg,AFSA07.jpg,FS,4,num_8,16,num_8,1.15005691518,,,2017_May_16_1830,59.9955933634,FEMA4ImagesEEG,001,100481,
AFNE01.JPG,AFNE01.JPG,AFNE01.JPG,AFNE01.JPG,AFNE01.JPG,AFNE01.JPG,1,0,10,2,,,,,,,,,,,,,,,,,,,,,,,AFSA20.jpg,AFNE08.jpg,AFSA02.jpg,AFNE13.jpg,AFSA20.jpg,FS,4,num_8,32,num_6,1.30004679586,,,2017_May_16_1830,59.9955933634,FEMA4ImagesEEG,001,100481,
AFNE01.JPG,AFNE01.JPG,AFNE01.JPG,AFNE01.JPG,AFNE01.JPG,AFNE01.JPG,1,1,11,4,,,,,,,,,,,,,,,,,,,,,,,AFNE05.jpg,AFSA11.jpg,AFNE01.jpg,AFSA02.jpg,AFSA02.jpg,FS,4,num_4,16,num_4,1.23353733421,,,2017_May_16_1830,59.9955933634,FEMA4ImagesEEG,001,100481,
AFNE01.JPG,AFNE01.JPG,AFNE01.JPG,AFNE01.JPG,AFNE01.JPG,AFNE01.JPG,1,2,12,1,,,,,,,,,,,,,,,,,,,,,,,AFNE08.jpg,AFNE03.jpg,AFSA05.jpg,AFSA16.jpg,AFNE08.jpg,FN,3,num_8,16,num_8,1.28339304964,,,2017_May_16_1830,59.9955933634,FEMA4ImagesEEG,001,100481,
AFNE01.JPG,AFNE01.JPG,AFNE01.JPG,AFNE01.JPG,AFNE01.JPG,AFNE01.JPG,1,3,13,8,,,,,,,,,,,,,,,,,,,,,,,AFSA07.jpg,AFNE10.jpg,AFSA02.jpg,AFNE08.jpg,AFNE08.jpg,FN,3,num_4,32,num_6,1.01676472201,,,2017_May_16_1830,59.9955933634,FEMA4ImagesEEG,001,100481,
AFNE01.JPG,AFNE01.JPG,AFNE01.JPG,AFNE01.JPG,AFNE01.JPG,AFNE01.JPG,1,4,14,0,,,,,,,,,,,,,,,,,,,,,,,AFNE16.jpg,AFSA18.jpg,AFNE13.jpg,AFSA10.jpg,AFNE16.jpg,FN,3,num_8,32,num_2,0.983440871874,,,2017_May_16_1830,59.9955933634,FEMA4ImagesEEG,001,100481,
AFNE01.JPG,AFNE01.JPG,AFNE01.JPG,AFNE01.JPG,AFNE01.JPG,AFNE01.JPG,1,5,15,6,,,,,,,,,,,,,,,,,,,,,,,AFNE07.jpg,AFSA11.jpg,AFNE08.jpg,AFSA06.jpg,AFNE08.jpg,FN,3,num_2,32,num_8,1.15018456943,,,2017_May_16_1830,59.9955933634,FEMA4ImagesEEG,001,100481,
AFNE01.JPG,AFNE01.JPG,AFNE01.JPG,AFNE01.JPG,AFNE01.JPG,AFNE01.JPG,1,6,16,3,,,,,,,,,,,,,,,,,,,,,,,AFSA11.jpg,AFNE19.jpg,AFNE11.jpg,AFSA15.jpg,AFNE19.jpg,FN,3,num_6,32,num_2,1.35006929573,,,2017_May_16_1830,59.9955933634,FEMA4ImagesEEG,001,100481,
AFNE01.JPG,AFNE01.JPG,AFNE01.JPG,AFNE01.JPG,AFNE01.JPG,AFNE01.JPG,1,7,17,5,,,,,,,,,,,,,,,,,,,,,,,AFSA04.jpg,AFNE02.jpg,AFNE20.jpg,AFSA15.jpg,AFNE20.jpg,FN,3,num_2,32,num_8,2.01672687478,,,2017_May_16_1830,59.9955933634,FEMA4ImagesEEG,001,100481,
AFNE01.JPG,AFNE01.JPG,AFNE01.JPG,AFNE01.JPG,AFNE01.JPG,AFNE01.JPG,1,8,18,9,,,,,,,,,,,,,,,,,,,,,,,AFSA09.jpg,AFSA02.jpg,AFNE05.jpg,AFNE18.jpg,AFSA09.jpg,FS,4,num_8,32,num_6,1.95004421391,,,2017_May_16_1830,59.9955933634,FEMA4ImagesEEG,001,100481,
AFNE01.JPG,AFNE01.JPG,AFNE01.JPG,AFNE01.JPG,AFNE01.JPG,AFNE01.JPG,1,9,19,7,,,,,,,,,,,,,,,,,,,,,,,AFSA15.jpg,AFNE18.jpg,AFSA17.jpg,AFNE17.jpg,AFSA17.jpg,FS,4,num_2,32,num_8,1.63335553919,,,2017_May_16_1830,59.9955933634,FEMA4ImagesEEG,001,100481,
AFNE01.JPG,AFNE01.JPG,AFNE01.JPG,AFNE01.JPG,AFNE01.JPG,AFNE01.JPG,2,0,20,6,,,,,,,,,,,,,,,,,,,,,,,AFSA14.jpg,AFSA05.jpg,AFNE19.jpg,AFNE04.jpg,AFSA14.jpg,FS,4,num_8,32,num_2,0.900111521056,,,2017_May_16_1830,59.9955933634,FEMA4ImagesEEG,001,100481,
AFNE01.JPG,AFNE01.JPG,AFNE01.JPG,AFNE01.JPG,AFNE01.JPG,AFNE01.JPG,2,1,21,2,,,,,,,,,,,,,,,,,,,,,,,AFNE11.jpg,AFSA18.jpg,AFSA07.jpg,AFNE17.jpg,AFSA07.jpg,FS,4,num_2,32,num_8,1.2165702257,,,2017_May_16_1830,59.9955933634,FEMA4ImagesEEG,001,100481,
AFNE01.JPG,AFNE01.JPG,AFNE01.JPG,AFNE01.JPG,AFNE01.JPG,AFNE01.JPG,2,2,22,5,,,,,,,,,,,,,,,,,,,,,,,AFNE16.jpg,AFSA16.jpg,AFSA09.jpg,AFNE14.jpg,AFSA09.jpg,FS,4,num_2,32,num_8,1.13341022523,,,2017_May_16_1830,59.9955933634,FEMA4ImagesEEG,001,100481,
AFNE01.JPG,AFNE01.JPG,AFNE01.JPG,AFNE01.JPG,AFNE01.JPG,AFNE01.JPG,2,3,23,7,,,,,,,,,,,,,,,,,,,,,,,AFNE12.jpg,AFSA19.jpg,AFNE07.jpg,AFSA08.jpg,AFSA08.jpg,FS,4,num_4,16,num_4,1.19995015711,,,2017_May_16_1830,59.9955933634,FEMA4ImagesEEG,001,100481,
AFNE01.JPG,AFNE01.JPG,AFNE01.JPG,AFNE01.JPG,AFNE01.JPG,AFNE01.JPG,2,4,24,4,,,,,,,,,,,,,,,,,,,,,,,AFSA19.jpg,AFSA14.jpg,AFNE16.jpg,AFNE04.jpg,AFNE16.jpg,FN,3,num_2,32,num_6,1.3167236353,,,2017_May_16_1830,59.9955933634,FEMA4ImagesEEG,001,100481,
AFNE01.JPG,AFNE01.JPG,AFNE01.JPG,AFNE01.JPG,AFNE01.JPG,AFNE01.JPG,2,5,25,1,,,,,,,,,,,,,,,,,,,,,,,AFNE09.jpg,AFSA17.jpg,AFSA07.jpg,AFNE12.jpg,AFSA07.jpg,FS,4,num_2,32,num_8,1.08343230814,,,2017_May_16_1830,59.9955933634,FEMA4ImagesEEG,001,100481,
AFNE01.JPG,AFNE01.JPG,AFNE01.JPG,AFNE01.JPG,AFNE01.JPG,AFNE01.JPG,2,6,26,9,,,,,,,,,,,,,,,,,,,,,,,AFSA09.jpg,AFNE20.jpg,AFNE06.jpg,AFSA04.jpg,AFSA04.jpg,FS,4,num_4,16,num_4,1.40015530196,,,2017_May_16_1830,59.9955933634,FEMA4ImagesEEG,001,100481,
AFNE01.JPG,AFNE01.JPG,AFNE01.JPG,AFNE01.JPG,AFNE01.JPG,AFNE01.JPG,2,7,27,3,,,,,,,,,,,,,,,,,,,,,,,AFNE06.jpg,AFSA05.jpg,AFNE13.jpg,AFSA15.jpg,AFSA05.jpg,FS,4,num_6,32,num_8,1.55012080645,,,2017_May_16_1830,59.9955933634,FEMA4ImagesEEG,001,100481,
AFNE01.JPG,AFNE01.JPG,AFNE01.JPG,AFNE01.JPG,AFNE01.JPG,AFNE01.JPG,2,8,28,8,,,,,,,,,,,,,,,,,,,,,,,AFSA17.jpg,AFNE06.jpg,AFNE10.jpg,AFSA18.jpg,AFSA18.jpg,FS,4,num_4,16,num_4,1.3834970654,,,2017_May_16_1830,59.9955933634,FEMA4ImagesEEG,001,100481,
AFNE01.JPG,AFNE01.JPG,AFNE01.JPG,AFNE01.JPG,AFNE01.JPG,AFNE01.JPG,2,9,29,0,,,,,,,,,,,,,,,,,,,,,,,AFNE12.jpg,AFSA20.jpg,AFSA01.jpg,AFNE08.jpg,AFSA01.jpg,FS,4,num_2,32,num_6,1.50005532753,,,2017_May_16_1830,59.9955933634,FEMA4ImagesEEG,001,100481,
AFNE01.JPG,AFNE01.JPG,AFNE01.JPG,AFNE01.JPG,AFNE01.JPG,AFNE01.JPG,3,0,30,5,,,,,,,,,,,,,,,,,,,,,,,AFNE13.jpg,AFSA07.jpg,AFSA09.jpg,AFNE20.jpg,AFSA09.jpg,FS,4,num_2,32,num_6,1.15011561048,,,2017_May_16_1830,59.9955933634,FEMA4ImagesEEG,001,100481,
AFNE01.JPG,AFNE01.JPG,AFNE01.JPG,AFNE01.JPG,AFNE01.JPG,AFNE01.JPG,3,1,31,3,,,,,,,,,,,,,,,,,,,,,,,AFNE09.jpg,AFSA02.jpg,AFSA14.jpg,AFNE11.jpg,AFSA14.jpg,FS,4,num_2,16,num_2,0.800163384585,,,2017_May_16_1830,59.9955933634,FEMA4ImagesEEG,001,100481,
AFNE01.JPG,AFNE01.JPG,AFNE01.JPG,AFNE01.JPG,AFNE01.JPG,AFNE01.JPG,3,2,32,6,,,,,,,,,,,,,,,,,,,,,,,AFNE12.jpg,AFSA04.jpg,AFNE18.jpg,AFSA19.jpg,AFSA04.jpg,FS,4,num_6,16,num_6,1.65004552895,,,2017_May_16_1830,59.9955933634,FEMA4ImagesEEG,001,100481,
AFNE01.JPG,AFNE01.JPG,AFNE01.JPG,AFNE01.JPG,AFNE01.JPG,AFNE01.JPG,3,3,33,7,,,,,,,,,,,,,,,,,,,,,,,AFNE18.jpg,AFNE19.jpg,AFSA08.jpg,AFSA07.jpg,AFNE18.jpg,FN,3,num_8,32,num_4,1.33347648998,,,2017_May_16_1830,59.9955933634,FEMA4ImagesEEG,001,100481,
AFNE01.JPG,AFNE01.JPG,AFNE01.JPG,AFNE01.JPG,AFNE01.JPG,AFNE01.JPG,3,4,34,0,,,,,,,,,,,,,,,,,,,,,,,AFNE20.jpg,AFSA01.jpg,AFNE12.jpg,AFSA02.jpg,AFNE12.jpg,FN,3,num_2,16,num_2,1.00015106821,,,2017_May_16_1830,59.9955933634,FEMA4ImagesEEG,001,100481,
AFNE01.JPG,AFNE01.JPG,AFNE01.JPG,AFNE01.JPG,AFNE01.JPG,AFNE01.JPG,3,5,35,9,,,,,,,,,,,,,,,,,,,,,,,AFNE20.jpg,AFNE04.jpg,AFSA03.jpg,AFSA09.jpg,AFSA03.jpg,FS,4,num_2,32,num_8,2.433437456,,,2017_May_16_1830,59.9955933634,FEMA4ImagesEEG,001,100481,
AFNE01.JPG,AFNE01.JPG,AFNE01.JPG,AFNE01.JPG,AFNE01.JPG,AFNE01.JPG,3,6,36,2,,,,,,,,,,,,,,,,,,,,,,,AFNE06.jpg,AFNE14.jpg,AFSA01.jpg,AFSA06.jpg,AFSA06.jpg,FS,4,num_4,16,num_4,0.783482696279,,,2017_May_16_1830,59.9955933634,FEMA4ImagesEEG,001,100481,
AFNE01.JPG,AFNE01.JPG,AFNE01.JPG,AFNE01.JPG,AFNE01.JPG,AFNE01.JPG,3,7,37,4,,,,,,,,,,,,,,,,,,,,,,,AFNE05.jpg,AFSA03.jpg,AFNE10.jpg,AFSA16.jpg,AFSA16.jpg,FS,4,num_4,16,num_4,0.783441000167,,,2017_May_16_1830,59.9955933634,FEMA4ImagesEEG,001,100481,
AFNE01.JPG,AFNE01.JPG,AFNE01.JPG,AFNE01.JPG,AFNE01.JPG,AFNE01.JPG,3,8,38,1,,,,,,,,,,,,,,,,,,,,,,,AFNE20.jpg,AFNE15.jpg,AFSA05.jpg,AFSA01.jpg,AFSA05.jpg,FS,4,num_2,16,num_2,1.08341595043,,,2017_May_16_1830,59.9955933634,FEMA4ImagesEEG,001,100481,
AFNE01.JPG,AFNE01.JPG,AFNE01.JPG,AFNE01.JPG,AFNE01.JPG,AFNE01.JPG,3,9,39,8,,,,,,,,,,,,,,,,,,,,,,,AFSA18.jpg,AFNE17.jpg,AFSA04.jpg,AFNE15.jpg,AFSA04.jpg,FS,4,num_2,32,num_8,1.56632455545,,,2017_May_16_1830,59.9955933634,FEMA4ImagesEEG,001,100481,
AFNE01.JPG,AFNE01.JPG,AFNE01.JPG,AFNE01.JPG,AFNE01.JPG,AFNE01.JPG,4,0,40,6,,,,,,,,,,,,,,,,,,,,,,,AFSA11.jpg,AFNE03.jpg,AFNE13.jpg,AFSA09.jpg,AFNE03.jpg,FN,3,num_6,16,num_6,0.916777455364,,,2017_May_16_1830,59.9955933634,FEMA4ImagesEEG,001,100481,
AFNE01.JPG,AFNE01.JPG,AFNE01.JPG,AFNE01.JPG,AFNE01.JPG,AFNE01.JPG,4,1,41,8,,,,,,,,,,,,,,,,,,,,,,,AFSA15.jpg,AFNE16.jpg,AFNE17.jpg,AFSA18.jpg,AFNE16.jpg,FN,3,num_6,16,num_6,0.583439524766,,,2017_May_16_1830,59.9955933634,FEMA4ImagesEEG,001,100481,
AFNE01.JPG,AFNE01.JPG,AFNE01.JPG,AFNE01.JPG,AFNE01.JPG,AFNE01.JPG,4,2,42,4,,,,,,,,,,,,,,,,,,,,,,,AFSA13.jpg,AFSA01.jpg,AFNE16.jpg,AFNE15.jpg,AFNE15.jpg,FN,3,num_4,32,num_2,1.23345137609,,,2017_May_16_1830,59.9955933634,FEMA4ImagesEEG,001,100481,
AFNE01.JPG,AFNE01.JPG,AFNE01.JPG,AFNE01.JPG,AFNE01.JPG,AFNE01.JPG,4,3,43,9,,,,,,,,,,,,,,,,,,,,,,,AFNE01.jpg,AFNE07.jpg,AFSA17.jpg,AFSA19.jpg,AFSA19.jpg,FS,4,num_4,16,num_4,0.766765122942,,,2017_May_16_1830,59.9955933634,FEMA4ImagesEEG,001,100481,
AFNE01.JPG,AFNE01.JPG,AFNE01.JPG,AFNE01.JPG,AFNE01.JPG,AFNE01.JPG,4,4,44,1,,,,,,,,,,,,,,,,,,,,,,,AFSA15.jpg,AFNE05.jpg,AFNE20.jpg,AFSA11.jpg,AFNE05.jpg,FN,3,num_6,32,num_2,1.20019103233,,,2017_May_16_1830,59.9955933634,FEMA4ImagesEEG,001,100481,
AFNE01.JPG,AFNE01.JPG,AFNE01.JPG,AFNE01.JPG,AFNE01.JPG,AFNE01.JPG,4,5,45,5,,,,,,,,,,,,,,,,,,,,,,,AFSA01.jpg,AFNE05.jpg,AFNE17.jpg,AFSA16.jpg,AFSA16.jpg,FS,4,num_4,16,num_4,1.45008158004,,,2017_May_16_1830,59.9955933634,FEMA4ImagesEEG,001,100481,
AFNE01.JPG,AFNE01.JPG,AFNE01.JPG,AFNE01.JPG,AFNE01.JPG,AFNE01.JPG,4,6,46,7,,,,,,,,,,,,,,,,,,,,,,,AFNE03.jpg,AFSA01.jpg,AFSA03.jpg,AFNE11.jpg,AFSA03.jpg,FS,4,num_2,32,num_8,0.850093190806,,,2017_May_16_1830,59.9955933634,FEMA4ImagesEEG,001,100481,
AFNE01.JPG,AFNE01.JPG,AFNE01.JPG,AFNE01.JPG,AFNE01.JPG,AFNE01.JPG,4,7,47,3,,,,,,,,,,,,,,,,,,,,,,,AFSA17.jpg,AFNE09.jpg,AFNE20.jpg,AFSA07.jpg,AFSA07.jpg,FS,4,num_4,32,num_6,1.26686118435,,,2017_May_16_1830,59.9955933634,FEMA4ImagesEEG,001,100481,
AFNE01.JPG,AFNE01.JPG,AFNE01.JPG,AFNE01.JPG,AFNE01.JPG,AFNE01.JPG,4,8,48,0,,,,,,,,,,,,,,,,,,,,,,,AFNE02.jpg,AFSA03.jpg,AFNE03.jpg,AFSA06.jpg,AFNE02.jpg,FN,3,num_8,16,num_8,1.08357824452,,,2017_May_16_1830,59.9955933634,FEMA4ImagesEEG,001,100481,
AFNE01.JPG,AFNE01.JPG,AFNE01.JPG,AFNE01.JPG,AFNE01.JPG,AFNE01.JPG,4,9,49,2,,,,,,,,,,,,,,,,,,,,,,,AFSA16.jpg,AFSA17.jpg,AFNE18.jpg,AFNE17.jpg,AFSA17.jpg,FS,4,num_6,32,num_2,1.05007766702,,,2017_May_16_1830,59.9955933634,FEMA4ImagesEEG,001,100481,
AFNE01.JPG,AFNE01.JPG,AFNE01.JPG,AFNE01.JPG,AFNE01.JPG,AFNE01.JPG,5,0,50,4,,,,,,,,,,,,,,,,,,,,,,,AFSA02.jpg,AFNE07.jpg,AFSA07.jpg,AFNE11.jpg,AFNE07.jpg,FN,3,num_6,16,num_6,0.683164426664,,,2017_May_16_1830,59.9955933634,FEMA4ImagesEEG,001,100481,
AFNE01.JPG,AFNE01.JPG,AFNE01.JPG,AFNE01.JPG,AFNE01.JPG,AFNE01.JPG,5,1,51,1,,,,,,,,,,,,,,,,,,,,,,,AFNE02.jpg,AFSA07.jpg,AFNE06.jpg,AFSA13.jpg,AFNE02.jpg,FN,3,num_8,16,num_8,1.08351441739,,,2017_May_16_1830,59.9955933634,FEMA4ImagesEEG,001,100481,
AFNE01.JPG,AFNE01.JPG,AFNE01.JPG,AFNE01.JPG,AFNE01.JPG,AFNE01.JPG,5,2,52,0,,,,,,,,,,,,,,,,,,,,,,,AFNE03.jpg,AFSA09.jpg,AFNE16.jpg,AFSA08.jpg,AFSA08.jpg,FS,4,num_4,16,num_4,0.766775386597,,,2017_May_16_1830,59.9955933634,FEMA4ImagesEEG,001,100481,
AFNE01.JPG,AFNE01.JPG,AFNE01.JPG,AFNE01.JPG,AFNE01.JPG,AFNE01.JPG,5,3,53,7,,,,,,,,,,,,,,,,,,,,,,,AFNE14.jpg,AFNE16.jpg,AFSA04.jpg,AFSA19.jpg,AFNE14.jpg,FN,3,num_8,16,num_8,1.20008326392,,,2017_May_16_1830,59.9955933634,FEMA4ImagesEEG,001,100481,
AFNE01.JPG,AFNE01.JPG,AFNE01.JPG,AFNE01.JPG,AFNE01.JPG,AFNE01.JPG,5,4,54,8,,,,,,,,,,,,,,,,,,,,,,,AFSA10.jpg,AFSA02.jpg,AFNE16.jpg,AFNE13.jpg,AFNE13.jpg,FN,3,num_4,16,num_4,1.33347681072,,,2017_May_16_1830,59.9955933634,FEMA4ImagesEEG,001,100481,
AFNE01.JPG,AFNE01.JPG,AFNE01.JPG,AFNE01.JPG,AFNE01.JPG,AFNE01.JPG,5,5,55,9,,,,,,,,,,,,,,,,,,,,,,,AFNE13.jpg,AFSA15.jpg,AFNE11.jpg,AFSA10.jpg,AFNE11.jpg,FN,3,num_2,16,num_2,1.03350218119,,,2017_May_16_1830,59.9955933634,FEMA4ImagesEEG,001,100481,
AFNE01.JPG,AFNE01.JPG,AFNE01.JPG,AFNE01.JPG,AFNE01.JPG,AFNE01.JPG,5,6,56,3,,,,,,,,,,,,,,,,,,,,,,,AFNE10.jpg,AFNE16.jpg,AFSA17.jpg,AFSA06.jpg,AFNE10.jpg,FN,3,num_8,16,num_8,1.16672990577,,,2017_May_16_1830,59.9955933634,FEMA4ImagesEEG,001,100481,
AFNE01.JPG,AFNE01.JPG,AFNE01.JPG,AFNE01.JPG,AFNE01.JPG,AFNE01.JPG,5,7,57,6,,,,,,,,,,,,,,,,,,,,,,,AFSA11.jpg,AFNE11.jpg,AFSA03.jpg,AFNE12.jpg,AFNE11.jpg,FN,3,num_6,32,num_2,1.03351661445,,,2017_May_16_1830,59.9955933634,FEMA4ImagesEEG,001,100481,
AFNE01.JPG,AFNE01.JPG,AFNE01.JPG,AFNE01.JPG,AFNE01.JPG,AFNE01.JPG,5,8,58,2,,,,,,,,,,,,,,,,,,,,,,,AFNE06.jpg,AFSA14.jpg,AFNE16.jpg,AFSA19.jpg,AFSA14.jpg,FS,4,num_6,16,num_6,0.533460003979,,,2017_May_16_1830,59.9955933634,FEMA4ImagesEEG,001,100481,
AFNE01.JPG,AFNE01.JPG,AFNE01.JPG,AFNE01.JPG,AFNE01.JPG,AFNE01.JPG,5,9,59,5,,,,,,,,,,,,,,,,,,,,,,,AFNE20.jpg,AFSA15.jpg,AFSA03.jpg,AFNE19.jpg,AFNE20.jpg,FN,3,num_8,32,num_2,1.08342557261,,,2017_May_16_1830,59.9955933634,FEMA4ImagesEEG,001,100481,
,,,,,,,,,,,,,,,,,,,,,,,,,,,,,,,,,,,,,,,,,,,space,16.0486487735,2017_May_16_1830,59.9955933634,FEMA4ImagesEEG,001,100481,
AFNE01.JPG,AFNE01.JPG,AFNE01.JPG,AFNE01.JPG,AFNE01.JPG,AFNE01.JPG,,,,,0,0,0,2,,,,,,,,,,,,,,,,,,,AMSA11.jpg,AMNE11.jpg,AMNE17.jpg,AMSA07.jpg,AMNE17.jpg,MN,1,num_2,16,num_2,1.38341527687,,,2017_May_16_1830,59.9955933634,FEMA4ImagesEEG,001,100481,
AFNE01.JPG,AFNE01.JPG,AFNE01.JPG,AFNE01.JPG,AFNE01.JPG,AFNE01.JPG,,,,,0,1,1,6,,,,,,,,,,,,,,,,,,,AMNE14.jpg,AMSA11.jpg,AMNE06.jpg,AMSA19.jpg,AMNE06.jpg,MN,1,num_2,32,num_6,1.4500649016,,,2017_May_16_1830,59.9955933634,FEMA4ImagesEEG,001,100481,
AFNE01.JPG,AFNE01.JPG,AFNE01.JPG,AFNE01.JPG,AFNE01.JPG,AFNE01.JPG,,,,,0,2,2,8,,,,,,,,,,,,,,,,,,,AMNE16.jpg,AMSA05.jpg,AMSA20.jpg,AMNE12.jpg,AMNE12.jpg,MN,1,num_4,32,num_8,1.26689614494,,,2017_May_16_1830,59.9955933634,FEMA4ImagesEEG,001,100481,
AFNE01.JPG,AFNE01.JPG,AFNE01.JPG,AFNE01.JPG,AFNE01.JPG,AFNE01.JPG,,,,,0,3,3,0,,,,,,,,,,,,,,,,,,,AMNE03.jpg,AMNE19.jpg,AMSA19.jpg,AMSA10.jpg,AMNE03.jpg,MN,1,num_8,32,num_6,1.10009278987,,,2017_May_16_1830,59.9955933634,FEMA4ImagesEEG,001,100481,
AFNE01.JPG,AFNE01.JPG,AFNE01.JPG,AFNE01.JPG,AFNE01.JPG,AFNE01.JPG,,,,,0,4,4,1,,,,,,,,,,,,,,,,,,,AMSA15.jpg,AMSA18.jpg,AMNE04.jpg,AMNE14.jpg,AMNE14.jpg,MN,1,num_4,16,num_4,1.20011469636,,,2017_May_16_1830,59.9955933634,FEMA4ImagesEEG,001,100481,
AFNE01.JPG,AFNE01.JPG,AFNE01.JPG,AFNE01.JPG,AFNE01.JPG,AFNE01.JPG,,,,,0,5,5,7,,,,,,,,,,,,,,,,,,,AMNE08.jpg,AMNE11.jpg,AMSA01.jpg,AMSA02.jpg,AMSA02.jpg,MS,2,num_4,32,num_8,0.999945795047,,,2017_May_16_1830,59.9955933634,FEMA4ImagesEEG,001,100481,
AFNE01.JPG,AFNE01.JPG,AFNE01.JPG,AFNE01.JPG,AFNE01.JPG,AFNE01.JPG,,,,,0,6,6,4,,,,,,,,,,,,,,,,,,,AMNE20.jpg,AMSA12.jpg,AMSA19.jpg,AMNE13.jpg,AMNE20.jpg,MN,1,num_8,32,num_6,1.08329310728,,,2017_May_16_1830,59.9955933634,FEMA4ImagesEEG,001,100481,
AFNE01.JPG,AFNE01.JPG,AFNE01.JPG,AFNE01.JPG,AFNE01.JPG,AFNE01.JPG,,,,,0,7,7,5,,,,,,,,,,,,,,,,,,,AMSA09.jpg,AMNE11.jpg,AMNE12.jpg,AMSA20.jpg,AMNE12.jpg,MN,1,num_2,16,num_2,0.883425059423,,,2017_May_16_1830,59.9955933634,FEMA4ImagesEEG,001,100481,
AFNE01.JPG,AFNE01.JPG,AFNE01.JPG,AFNE01.JPG,AFNE01.JPG,AFNE01.JPG,,,,,0,8,8,3,,,,,,,,,,,,,,,,,,,AMNE11.jpg,AMSA02.jpg,AMSA14.jpg,AMNE10.jpg,AMSA02.jpg,MS,2,num_6,32,num_4,1.08343102518,,,2017_May_16_1830,59.9955933634,FEMA4ImagesEEG,001,100481,
AFNE01.JPG,AFNE01.JPG,AFNE01.JPG,AFNE01.JPG,AFNE01.JPG,AFNE01.JPG,,,,,0,9,9,9,,,,,,,,,,,,,,,,,,,AMNE04.jpg,AMSA19.jpg,AMNE18.jpg,AMSA16.jpg,AMNE18.jpg,MN,1,num_2,32,num_6,2.11669136894,,,2017_May_16_1830,59.9955933634,FEMA4ImagesEEG,001,100481,
AFNE01.JPG,AFNE01.JPG,AFNE01.JPG,AFNE01.JPG,AFNE01.JPG,AFNE01.JPG,,,,,1,0,10,3,,,,,,,,,,,,,,,,,,,AMSA10.jpg,AMNE11.jpg,AMNE02.jpg,AMSA14.jpg,AMNE11.jpg,MN,1,num_6,32,num_4,0.916798624152,,,2017_May_16_1830,59.9955933634,FEMA4ImagesEEG,001,100481,
AFNE01.JPG,AFNE01.JPG,AFNE01.JPG,AFNE01.JPG,AFNE01.JPG,AFNE01.JPG,,,,,1,1,11,2,,,,,,,,,,,,,,,,,,,AMSA05.jpg,AMNE14.jpg,AMNE20.jpg,AMSA11.jpg,AMSA11.jpg,MS,2,num_4,16,num_4,1.01701650236,,,2017_May_16_1830,59.9955933634,FEMA4ImagesEEG,001,100481,
AFNE01.JPG,AFNE01.JPG,AFNE01.JPG,AFNE01.JPG,AFNE01.JPG,AFNE01.JPG,,,,,1,2,12,5,,,,,,,,,,,,,,,,,,,AMNE12.jpg,AMSA16.jpg,AMNE19.jpg,AMSA15.jpg,AMSA15.jpg,MS,2,num_4,32,num_6,1.36682664073,,,2017_May_16_1830,59.9955933634,FEMA4ImagesEEG,001,100481,
AFNE01.JPG,AFNE01.JPG,AFNE01.JPG,AFNE01.JPG,AFNE01.JPG,AFNE01.JPG,,,,,1,3,13,9,,,,,,,,,,,,,,,,,,,AMNE18.jpg,AMSA09.jpg,AMNE14.jpg,AMSA02.jpg,AMSA09.jpg,MS,2,num_6,16,num_6,0.63344534619,,,2017_May_16_1830,59.9955933634,FEMA4ImagesEEG,001,100481,
AFNE01.JPG,AFNE01.JPG,AFNE01.JPG,AFNE01.JPG,AFNE01.JPG,AFNE01.JPG,,,,,1,4,14,8,,,,,,,,,,,,,,,,,,,AMNE14.jpg,AMSA16.jpg,AMNE06.jpg,AMSA04.jpg,AMSA04.jpg,MS,2,num_4,16,num_4,0.683574010749,,,2017_May_16_1830,59.9955933634,FEMA4ImagesEEG,001,100481,
AFNE01.JPG,AFNE01.JPG,AFNE01.JPG,AFNE01.JPG,AFNE01.JPG,AFNE01.JPG,,,,,1,5,15,7,,,,,,,,,,,,,,,,,,,AMSA04.jpg,AMNE19.jpg,AMNE08.jpg,AMSA02.jpg,AMNE08.jpg,MN,1,num_2,16,num_2,1.35006897498,,,2017_May_16_1830,59.9955933634,FEMA4ImagesEEG,001,100481,
AFNE01.JPG,AFNE01.JPG,AFNE01.JPG,AFNE01.JPG,AFNE01.JPG,AFNE01.JPG,,,,,1,6,16,0,,,,,,,,,,,,,,,,,,,AMSA14.jpg,AMNE10.jpg,AMSA18.jpg,AMNE13.jpg,AMNE13.jpg,MN,1,num_4,16,num_4,1.71671664319,,,2017_May_16_1830,59.9955933634,FEMA4ImagesEEG,001,100481,
AFNE01.JPG,AFNE01.JPG,AFNE01.JPG,AFNE01.JPG,AFNE01.JPG,AFNE01.JPG,,,,,1,7,17,1,,,,,,,,,,,,,,,,,,,AMSA13.jpg,AMNE12.jpg,AMNE01.jpg,AMSA07.jpg,AMSA07.jpg,MS,2,num_4,16,num_4,0.983608618524,,,2017_May_16_1830,59.9955933634,FEMA4ImagesEEG,001,100481,
AFNE01.JPG,AFNE01.JPG,AFNE01.JPG,AFNE01.JPG,AFNE01.JPG,AFNE01.JPG,,,,,1,8,18,4,,,,,,,,,,,,,,,,,,,AMSA19.jpg,AMNE14.jpg,AMSA01.jpg,AMNE20.jpg,AMSA19.jpg,MS,2,num_8,16,num_8,1.06682763503,,,2017_May_16_1830,59.9955933634,FEMA4ImagesEEG,001,100481,
AFNE01.JPG,AFNE01.JPG,AFNE01.JPG,AFNE01.JPG,AFNE01.JPG,AFNE01.JPG,,,,,1,9,19,6,,,,,,,,,,,,,,,,,,,AMNE13.jpg,AMNE20.jpg,AMSA03.jpg,AMSA11.jpg,AMNE13.jpg,MN,1,num_8,32,num_6,0.950117021726,,,2017_May_16_1830,59.9955933634,FEMA4ImagesEEG,001,100481,
AFNE01.JPG,AFNE01.JPG,AFNE01.JPG,AFNE01.JPG,AFNE01.JPG,AFNE01.JPG,,,,,2,0,20,8,,,,,,,,,,,,,,,,,,,AMSA06.jpg,AMNE16.jpg,AMSA01.jpg,AMNE02.jpg,AMNE02.jpg,MN,1,num_4,16,num_4,0.966696677177,,,2017_May_16_1830,59.9955933634,FEMA4ImagesEEG,001,100481,
AFNE01.JPG,AFNE01.JPG,AFNE01.JPG,AFNE01.JPG,AFNE01.JPG,AFNE01.JPG,,,,,2,1,21,6,,,,,,,,,,,,,,,,,,,AMSA15.jpg,AMNE11.jpg,AMNE01.jpg,AMSA16.jpg,AMNE11.jpg,MN,1,num_6,32,num_4,0.916757569532,,,2017_May_16_1830,59.9955933634,FEMA4ImagesEEG,001,100481,
AFNE01.JPG,AFNE01.JPG,AFNE01.JPG,AFNE01.JPG,AFNE01.JPG,AFNE01.JPG,,,,,2,2,22,2,,,,,,,,,,,,,,,,,,,AMNE07.jpg,AMNE01.jpg,AMSA01.jpg,AMSA05.jpg,AMSA05.jpg,MS,2,num_4,32,num_8,2.36677949206,,,2017_May_16_1830,59.9955933634,FEMA4ImagesEEG,001,100481,
AFNE01.JPG,AFNE01.JPG,AFNE01.JPG,AFNE01.JPG,AFNE01.JPG,AFNE01.JPG,,,,,2,3,23,3,,,,,,,,,,,,,,,,,,,AMNE18.jpg,AMSA15.jpg,AMSA04.jpg,AMNE19.jpg,AMNE19.jpg,MN,1,num_4,32,num_8,1.35013793393,,,2017_May_16_1830,59.9955933634,FEMA4ImagesEEG,001,100481,
AFNE01.JPG,AFNE01.JPG,AFNE01.JPG,AFNE01.JPG,AFNE01.JPG,AFNE01.JPG,,,,,2,4,24,9,,,,,,,,,,,,,,,,,,,AMSA18.jpg,AMNE07.jpg,AMSA15.jpg,AMNE05.jpg,AMSA18.jpg,MS,2,num_8,32,num_4,1.76666344858,,,2017_May_16_1830,59.9955933634,FEMA4ImagesEEG,001,100481,
AFNE01.JPG,AFNE01.JPG,AFNE01.JPG,AFNE01.JPG,AFNE01.JPG,AFNE01.JPG,,,,,2,5,25,5,,,,,,,,,,,,,,,,,,,AMNE04.jpg,AMSA20.jpg,AMNE10.jpg,AMSA05.jpg,AMSA20.jpg,MS,2,num_6,16,num_6,0.933458143671,,,2017_May_16_1830,59.9955933634,FEMA4ImagesEEG,001,100481,
AFNE01.JPG,AFNE01.JPG,AFNE01.JPG,AFNE01.JPG,AFNE01.JPG,AFNE01.JPG,,,,,2,6,26,1,,,,,,,,,,,,,,,,,,,AMSA05.jpg,AMNE13.jpg,AMNE06.jpg,AMSA19.jpg,AMNE13.jpg,MN,1,num_6,16,num_6,0.616764978608,,,2017_May_16_1830,59.9955933634,FEMA4ImagesEEG,001,100481,
AFNE01.JPG,AFNE01.JPG,AFNE01.JPG,AFNE01.JPG,AFNE01.JPG,AFNE01.JPG,,,,,2,7,27,4,,,,,,,,,,,,,,,,,,,AMSA18.jpg,AMNE01.jpg,AMSA20.jpg,AMNE19.jpg,AMNE19.jpg,MN,1,num_4,16,num_4,1.31676404846,,,2017_May_16_1830,59.9955933634,FEMA4ImagesEEG,001,100481,
AFNE01.JPG,AFNE01.JPG,AFNE01.JPG,AFNE01.JPG,AFNE01.JPG,AFNE01.JPG,,,,,2,8,28,0,,,,,,,,,,,,,,,,,,,AMNE10.jpg,AMNE13.jpg,AMSA10.jpg,AMSA17.jpg,AMNE10.jpg,MN,1,num_8,16,num_8,1.05000742512,,,2017_May_16_1830,59.9955933634,FEMA4ImagesEEG,001,100481,
AFNE01.JPG,AFNE01.JPG,AFNE01.JPG,AFNE01.JPG,AFNE01.JPG,AFNE01.JPG,,,,,2,9,29,7,,,,,,,,,,,,,,,,,,,AMSA03.jpg,AMSA14.jpg,AMNE02.jpg,AMNE11.jpg,AMSA14.jpg,MS,2,num_6,32,num_2,1.15005595297,,,2017_May_16_1830,59.9955933634,FEMA4ImagesEEG,001,100481,
AFNE01.JPG,AFNE01.JPG,AFNE01.JPG,AFNE01.JPG,AFNE01.JPG,AFNE01.JPG,,,,,3,0,30,5,,,,,,,,,,,,,,,,,,,AMSA11.jpg,AMNE18.jpg,AMNE20.jpg,AMSA01.jpg,AMSA11.jpg,MS,2,num_8,16,num_8,1.1834099526,,,2017_May_16_1830,59.9955933634,FEMA4ImagesEEG,001,100481,
AFNE01.JPG,AFNE01.JPG,AFNE01.JPG,AFNE01.JPG,AFNE01.JPG,AFNE01.JPG,,,,,3,1,31,9,,,,,,,,,,,,,,,,,,,AMNE18.jpg,AMSA07.jpg,AMNE13.jpg,AMSA10.jpg,AMSA07.jpg,MS,2,num_6,16,num_6,0.683459506821,,,2017_May_16_1830,59.9955933634,FEMA4ImagesEEG,001,100481,
AFNE01.JPG,AFNE01.JPG,AFNE01.JPG,AFNE01.JPG,AFNE01.JPG,AFNE01.JPG,,,,,3,2,32,6,,,,,,,,,,,,,,,,,,,AMNE13.jpg,AMSA05.jpg,AMNE03.jpg,AMSA06.jpg,AMNE13.jpg,MN,1,num_8,16,num_8,1.31673165379,,,2017_May_16_1830,59.9955933634,FEMA4ImagesEEG,001,100481,
AFNE01.JPG,AFNE01.JPG,AFNE01.JPG,AFNE01.JPG,AFNE01.JPG,AFNE01.JPG,,,,,3,3,33,1,,,,,,,,,,,,,,,,,,,AMSA11.jpg,AMNE14.jpg,AMNE20.jpg,AMSA10.jpg,AMNE20.jpg,MN,1,num_2,16,num_2,0.800215665105,,,2017_May_16_1830,59.9955933634,FEMA4ImagesEEG,001,100481,
AFNE01.JPG,AFNE01.JPG,AFNE01.JPG,AFNE01.JPG,AFNE01.JPG,AFNE01.JPG,,,,,3,4,34,3,,,,,,,,,,,,,,,,,,,AMNE17.jpg,AMSA16.jpg,AMNE10.jpg,AMSA12.jpg,AMNE10.jpg,MN,1,num_2,32,num_8,1.66670312404,,,2017_May_16_1830,59.9955933634,FEMA4ImagesEEG,001,100481,
AFNE01.JPG,AFNE01.JPG,AFNE01.JPG,AFNE01.JPG,AFNE01.JPG,AFNE01.JPG,,,,,3,5,35,0,,,,,,,,,,,,,,,,,,,AMNE17.jpg,AMSA14.jpg,AMSA01.jpg,AMNE02.jpg,AMSA14.jpg,MS,2,num_6,16,num_6,1.23336445574,,,2017_May_16_1830,59.9955933634,FEMA4ImagesEEG,001,100481,
AFNE01.JPG,AFNE01.JPG,AFNE01.JPG,AFNE01.JPG,AFNE01.JPG,AFNE01.JPG,,,,,3,6,36,4,,,,,,,,,,,,,,,,,,,AMNE05.jpg,AMSA15.jpg,AMSA19.jpg,AMNE12.jpg,AMSA15.jpg,MS,2,num_6,16,num_6,0.583436958841,,,2017_May_16_1830,59.9955933634,FEMA4ImagesEEG,001,100481,
AFNE01.JPG,AFNE01.JPG,AFNE01.JPG,AFNE01.JPG,AFNE01.JPG,AFNE01.JPG,,,,,3,7,37,2,,,,,,,,,,,,,,,,,,,AMSA02.jpg,AMNE05.jpg,AMNE16.jpg,AMSA01.jpg,AMSA02.jpg,MS,2,num_8,16,num_8,1.15008674393,,,2017_May_16_1830,59.9955933634,FEMA4ImagesEEG,001,100481,
AFNE01.JPG,AFNE01.JPG,AFNE01.JPG,AFNE01.JPG,AFNE01.JPG,AFNE01.JPG,,,,,3,8,38,8,,,,,,,,,,,,,,,,,,,AMNE17.jpg,AMSA11.jpg,AMSA05.jpg,AMNE04.jpg,AMSA11.jpg,MS,2,num_6,32,num_2,1.13349457966,,,2017_May_16_1830,59.9955933634,FEMA4ImagesEEG,001,100481,
AFNE01.JPG,AFNE01.JPG,AFNE01.JPG,AFNE01.JPG,AFNE01.JPG,AFNE01.JPG,,,,,3,9,39,7,,,,,,,,,,,,,,,,,,,AMSA08.jpg,AMNE07.jpg,AMNE01.jpg,AMSA10.jpg,AMSA08.jpg,MS,2,num_8,16,num_8,1.05007478037,,,2017_May_16_1830,59.9955933634,FEMA4ImagesEEG,001,100481,
AFNE01.JPG,AFNE01.JPG,AFNE01.JPG,AFNE01.JPG,AFNE01.JPG,AFNE01.JPG,,,,,4,0,40,9,,,,,,,,,,,,,,,,,,,AMNE19.jpg,AMSA15.jpg,AMNE12.jpg,AMSA03.jpg,AMNE12.jpg,MN,1,num_2,16,num_2,0.816767736964,,,2017_May_16_1830,59.9955933634,FEMA4ImagesEEG,001,100481,
AFNE01.JPG,AFNE01.JPG,AFNE01.JPG,AFNE01.JPG,AFNE01.JPG,AFNE01.JPG,,,,,4,1,41,5,,,,,,,,,,,,,,,,,,,AMNE06.jpg,AMSA11.jpg,AMSA10.jpg,AMNE12.jpg,AMNE06.jpg,MN,1,num_8,16,num_8,1.29988033217,,,2017_May_16_1830,59.9955933634,FEMA4ImagesEEG,001,100481,
AFNE01.JPG,AFNE01.JPG,AFNE01.JPG,AFNE01.JPG,AFNE01.JPG,AFNE01.JPG,,,,,4,2,42,3,,,,,,,,,,,,,,,,,,,AMNE18.jpg,AMSA19.jpg,AMNE16.jpg,AMSA11.jpg,AMSA11.jpg,MS,2,num_4,16,num_4,1.38342393684,,,2017_May_16_1830,59.9955933634,FEMA4ImagesEEG,001,100481,
AFNE01.JPG,AFNE01.JPG,AFNE01.JPG,AFNE01.JPG,AFNE01.JPG,AFNE01.JPG,,,,,4,3,43,7,,,,,,,,,,,,,,,,,,,AMSA09.jpg,AMSA13.jpg,AMNE07.jpg,AMNE03.jpg,AMSA09.jpg,MS,2,num_8,16,num_8,0.866690486917,,,2017_May_16_1830,59.9955933634,FEMA4ImagesEEG,001,100481,
AFNE01.JPG,AFNE01.JPG,AFNE01.JPG,AFNE01.JPG,AFNE01.JPG,AFNE01.JPG,,,,,4,4,44,0,,,,,,,,,,,,,,,,,,,AMNE09.jpg,AMNE10.jpg,AMSA09.jpg,AMSA13.jpg,AMNE10.jpg,MN,1,num_6,32,num_2,1.55019842536,,,2017_May_16_1830,59.9955933634,FEMA4ImagesEEG,001,100481,
AFNE01.JPG,AFNE01.JPG,AFNE01.JPG,AFNE01.JPG,AFNE01.JPG,AFNE01.JPG,,,,,4,5,45,4,,,,,,,,,,,,,,,,,,,AMNE09.jpg,AMSA10.jpg,AMNE04.jpg,AMSA17.jpg,AMNE09.jpg,MN,1,num_8,16,num_8,1.48341858049,,,2017_May_16_1830,59.9955933634,FEMA4ImagesEEG,001,100481,
AFNE01.JPG,AFNE01.JPG,AFNE01.JPG,AFNE01.JPG,AFNE01.JPG,AFNE01.JPG,,,,,4,6,46,1,,,,,,,,,,,,,,,,,,,AMNE14.jpg,AMSA01.jpg,AMSA11.jpg,AMNE12.jpg,AMSA01.jpg,MS,2,num_6,32,num_8,1.233371512,,,2017_May_16_1830,59.9955933634,FEMA4ImagesEEG,001,100481,
AFNE01.JPG,AFNE01.JPG,AFNE01.JPG,AFNE01.JPG,AFNE01.JPG,AFNE01.JPG,,,,,4,7,47,6,,,,,,,,,,,,,,,,,,,AMSA06.jpg,AMSA13.jpg,AMNE03.jpg,AMNE11.jpg,AMSA13.jpg,MS,2,num_6,16,num_6,1.13341279115,,,2017_May_16_1830,59.9955933634,FEMA4ImagesEEG,001,100481,
AFNE01.JPG,AFNE01.JPG,AFNE01.JPG,AFNE01.JPG,AFNE01.JPG,AFNE01.JPG,,,,,4,8,48,8,,,,,,,,,,,,,,,,,,,AMSA06.jpg,AMNE03.jpg,AMSA07.jpg,AMNE07.jpg,AMNE07.jpg,MN,1,num_4,32,num_2,1.28342929318,,,2017_May_16_1830,59.9955933634,FEMA4ImagesEEG,001,100481,
AFNE01.JPG,AFNE01.JPG,AFNE01.JPG,AFNE01.JPG,AFNE01.JPG,AFNE01.JPG,,,,,4,9,49,2,,,,,,,,,,,,,,,,,,,AMNE17.jpg,AMSA03.jpg,AMNE11.jpg,AMSA10.jpg,AMSA10.jpg,MS,2,num_4,16,num_4,0.550320627037,,,2017_May_16_1830,59.9955933634,FEMA4ImagesEEG,001,100481,
AFNE01.JPG,AFNE01.JPG,AFNE01.JPG,AFNE01.JPG,AFNE01.JPG,AFNE01.JPG,,,,,5,0,50,3,,,,,,,,,,,,,,,,,,,AMNE02.jpg,AMNE16.jpg,AMSA04.jpg,AMSA17.jpg,AMNE02.jpg,MN,1,num_8,16,num_8,1.6001211753,,,2017_May_16_1830,59.9955933634,FEMA4ImagesEEG,001,100481,
AFNE01.JPG,AFNE01.JPG,AFNE01.JPG,AFNE01.JPG,AFNE01.JPG,AFNE01.JPG,,,,,5,1,51,1,,,,,,,,,,,,,,,,,,,AMNE06.jpg,AMSA10.jpg,AMNE12.jpg,AMSA12.jpg,AMSA12.jpg,MS,2,num_4,16,num_4,0.766766405897,,,2017_May_16_1830,59.9955933634,FEMA4ImagesEEG,001,100481,
AFNE01.JPG,AFNE01.JPG,AFNE01.JPG,AFNE01.JPG,AFNE01.JPG,AFNE01.JPG,,,,,5,2,52,9,,,,,,,,,,,,,,,,,,,AMNE05.jpg,AMSA14.jpg,AMNE01.jpg,AMSA08.jpg,AMNE05.jpg,MN,1,num_8,16,num_8,1.11678791147,,,2017_May_16_1830,59.9955933634,FEMA4ImagesEEG,001,100481,
AFNE01.JPG,AFNE01.JPG,AFNE01.JPG,AFNE01.JPG,AFNE01.JPG,AFNE01.JPG,,,,,5,3,53,6,,,,,,,,,,,,,,,,,,,AMSA06.jpg,AMNE06.jpg,AMNE01.jpg,AMSA03.jpg,AMNE01.jpg,MN,1,num_2,32,num_8,0.86685887503,,,2017_May_16_1830,59.9955933634,FEMA4ImagesEEG,001,100481,
AFNE01.JPG,AFNE01.JPG,AFNE01.JPG,AFNE01.JPG,AFNE01.JPG,AFNE01.JPG,,,,,5,4,54,5,,,,,,,,,,,,,,,,,,,AMSA19.jpg,AMNE15.jpg,AMSA15.jpg,AMNE11.jpg,AMNE11.jpg,MN,1,num_4,32,num_6,0.833488517703,,,2017_May_16_1830,59.9955933634,FEMA4ImagesEEG,001,100481,
AFNE01.JPG,AFNE01.JPG,AFNE01.JPG,AFNE01.JPG,AFNE01.JPG,AFNE01.JPG,,,,,5,5,55,2,,,,,,,,,,,,,,,,,,,AMNE14.jpg,AMNE20.jpg,AMSA08.jpg,AMSA06.jpg,AMSA06.jpg,MS,2,num_4,32,num_2,1.20007556619,,,2017_May_16_1830,59.9955933634,FEMA4ImagesEEG,001,100481,
AFNE01.JPG,AFNE01.JPG,AFNE01.JPG,AFNE01.JPG,AFNE01.JPG,AFNE01.JPG,,,,,5,6,56,7,,,,,,,,,,,,,,,,,,,AMNE02.jpg,AMNE20.jpg,AMSA03.jpg,AMSA01.jpg,AMNE02.jpg,MN,1,num_8,32,num_4,2.35000161974,,,2017_May_16_1830,59.9955933634,FEMA4ImagesEEG,001,100481,
AFNE01.JPG,AFNE01.JPG,AFNE01.JPG,AFNE01.JPG,AFNE01.JPG,AFNE01.JPG,,,,,5,7,57,8,,,,,,,,,,,,,,,,,,,AMNE12.jpg,AMSA07.jpg,AMNE09.jpg,AMSA05.jpg,AMNE09.jpg,MN,1,num_2,16,num_2,0.966788729347,,,2017_May_16_1830,59.9955933634,FEMA4ImagesEEG,001,100481,
AFNE01.JPG,AFNE01.JPG,AFNE01.JPG,AFNE01.JPG,AFNE01.JPG,AFNE01.JPG,,,,,5,8,58,0,,,,,,,,,,,,,,,,,,,AMSA07.jpg,AMNE01.jpg,AMNE10.jpg,AMSA19.jpg,AMSA07.jpg,MS,2,num_8,16,num_8,0.750130300337,,,2017_May_16_1830,59.9955933634,FEMA4ImagesEEG,001,100481,
AFNE01.JPG,AFNE01.JPG,AFNE01.JPG,AFNE01.JPG,AFNE01.JPG,AFNE01.JPG,,,,,5,9,59,4,,,,,,,,,,,,,,,,,,,AMNE10.jpg,AMNE06.jpg,AMSA16.jpg,AMSA13.jpg,AMNE06.jpg,MN,1,num_6,32,num_4,0.900227628663,,,2017_May_16_1830,59.9955933634,FEMA4ImagesEEG,001,100481,
,,,,,,,,,,,,,,,,,,,,,,,,,,,,,,,,,,,,,,,,,,,space,25.914781174,2017_May_16_1830,59.9955933634,FEMA4ImagesEEG,001,100481,
AFNE01.JPG,AFNE01.JPG,AFNE01.JPG,AFNE01.JPG,AFNE01.JPG,AFNE01.JPG,,,,,,,,,0,0,0,9,,,,,,,,,,,,,,,AFSA12.jpg,AFSA06.jpg,AFNE03.jpg,AFNE06.jpg,AFSA12.jpg,FS,4,num_8,16,num_8,1.03342680745,,,2017_May_16_1830,59.9955933634,FEMA4ImagesEEG,001,100481,
AFNE01.JPG,AFNE01.JPG,AFNE01.JPG,AFNE01.JPG,AFNE01.JPG,AFNE01.JPG,,,,,,,,,0,1,1,1,,,,,,,,,,,,,,,AFNE11.jpg,AFNE15.jpg,AFSA04.jpg,AFSA01.jpg,AFSA04.jpg,FS,4,num_2,32,num_8,0.83346766964,,,2017_May_16_1830,59.9955933634,FEMA4ImagesEEG,001,100481,
AFNE01.JPG,AFNE01.JPG,AFNE01.JPG,AFNE01.JPG,AFNE01.JPG,AFNE01.JPG,,,,,,,,,0,2,2,6,,,,,,,,,,,,,,,AFNE15.jpg,AFSA07.jpg,AFSA17.jpg,AFNE01.jpg,AFNE15.jpg,FN,3,num_8,16,num_8,1.00022900786,,,2017_May_16_1830,59.9955933634,FEMA4ImagesEEG,001,100481,
AFNE01.JPG,AFNE01.JPG,AFNE01.JPG,AFNE01.JPG,AFNE01.JPG,AFNE01.JPG,,,,,,,,,0,3,3,7,,,,,,,,,,,,,,,AFSA13.jpg,AFSA05.jpg,AFNE11.jpg,AFNE18.jpg,AFNE11.jpg,FN,3,num_2,16,num_2,0.816858826918,,,2017_May_16_1830,59.9955933634,FEMA4ImagesEEG,001,100481,
AFNE01.JPG,AFNE01.JPG,AFNE01.JPG,AFNE01.JPG,AFNE01.JPG,AFNE01.JPG,,,,,,,,,0,4,4,8,,,,,,,,,,,,,,,AFSA11.jpg,AFSA19.jpg,AFNE19.jpg,AFNE04.jpg,AFSA11.jpg,FS,4,num_8,16,num_8,0.800106613737,,,2017_May_16_1830,59.9955933634,FEMA4ImagesEEG,001,100481,
AFNE01.JPG,AFNE01.JPG,AFNE01.JPG,AFNE01.JPG,AFNE01.JPG,AFNE01.JPG,,,,,,,,,0,5,5,2,,,,,,,,,,,,,,,AFSA03.jpg,AFNE12.jpg,AFSA04.jpg,AFNE09.jpg,AFSA03.jpg,FS,4,num_8,32,num_6,1.00010488175,,,2017_May_16_1830,59.9955933634,FEMA4ImagesEEG,001,100481,
AFNE01.JPG,AFNE01.JPG,AFNE01.JPG,AFNE01.JPG,AFNE01.JPG,AFNE01.JPG,,,,,,,,,0,6,6,5,,,,,,,,,,,,,,,AFNE02.jpg,AFSA09.jpg,AFSA02.jpg,AFNE09.jpg,AFSA09.jpg,FS,4,num_6,16,num_6,0.816678571442,,,2017_May_16_1830,59.9955933634,FEMA4ImagesEEG,001,100481,
AFNE01.JPG,AFNE01.JPG,AFNE01.JPG,AFNE01.JPG,AFNE01.JPG,AFNE01.JPG,,,,,,,,,0,7,7,0,,,,,,,,,,,,,,,AFNE08.jpg,AFSA10.jpg,AFSA04.jpg,AFNE06.jpg,AFSA04.jpg,FS,4,num_2,16,num_2,0.616481124322,,,2017_May_16_1830,59.9955933634,FEMA4ImagesEEG,001,100481,
AFNE01.JPG,AFNE01.JPG,AFNE01.JPG,AFNE01.JPG,AFNE01.JPG,AFNE01.JPG,,,,,,,,,0,8,8,4,,,,,,,,,,,,,,,AFSA07.jpg,AFNE20.jpg,AFNE08.jpg,AFSA03.jpg,AFNE20.jpg,FN,3,num_6,32,num_4,0.866762973979,,,2017_May_16_1830,59.9955933634,FEMA4ImagesEEG,001,100481,
AFNE01.JPG,AFNE01.JPG,AFNE01.JPG,AFNE01.JPG,AFNE01.JPG,AFNE01.JPG,,,,,,,,,0,9,9,3,,,,,,,,,,,,,,,AFNE14.jpg,AFSA12.jpg,AFNE11.jpg,AFSA02.jpg,AFNE11.jpg,FN,3,num_2,32,num_8,1.05007125223,,,2017_May_16_1830,59.9955933634,FEMA4ImagesEEG,001,100481,
AFNE01.JPG,AFNE01.JPG,AFNE01.JPG,AFNE01.JPG,AFNE01.JPG,AFNE01.JPG,,,,,,,,,1,0,10,5,,,,,,,,,,,,,,,AFSA07.jpg,AFNE17.jpg,AFNE19.jpg,AFSA18.jpg,AFNE17.jpg,FN,3,num_6,16,num_6,2.45034683144,,,2017_May_16_1830,59.9955933634,FEMA4ImagesEEG,001,100481,
AFNE01.JPG,AFNE01.JPG,AFNE01.JPG,AFNE01.JPG,AFNE01.JPG,AFNE01.JPG,,,,,,,,,1,1,11,3,,,,,,,,,,,,,,,AFNE01.jpg,AFSA14.jpg,AFNE16.jpg,AFSA06.jpg,AFNE01.jpg,FN,3,num_8,16,num_8,0.600249150288,,,2017_May_16_1830,59.9955933634,FEMA4ImagesEEG,001,100481,
AFNE01.JPG,AFNE01.JPG,AFNE01.JPG,AFNE01.JPG,AFNE01.JPG,AFNE01.JPG,,,,,,,,,1,2,12,6,,,,,,,,,,,,,,,AFNE05.jpg,AFSA20.jpg,AFSA16.jpg,AFNE15.jpg,AFSA16.jpg,FS,4,num_2,16,num_2,0.633444063234,,,2017_May_16_1830,59.9955933634,FEMA4ImagesEEG,001,100481,
AFNE01.JPG,AFNE01.JPG,AFNE01.JPG,AFNE01.JPG,AFNE01.JPG,AFNE01.JPG,,,,,,,,,1,3,13,7,,,,,,,,,,,,,,,AFNE18.jpg,AFNE07.jpg,AFSA13.jpg,AFSA18.jpg,AFSA13.jpg,FS,4,num_2,16,num_2,0.650286404139,,,2017_May_16_1830,59.9955933634,FEMA4ImagesEEG,001,100481,
AFNE01.JPG,AFNE01.JPG,AFNE01.JPG,AFNE01.JPG,AFNE01.JPG,AFNE01.JPG,,,,,,,,,1,4,14,8,,,,,,,,,,,,,,,AFSA02.jpg,AFNE07.jpg,AFSA20.jpg,AFNE17.jpg,AFSA20.jpg,FS,4,num_2,16,num_2,0.566746327604,,,2017_May_16_1830,59.9955933634,FEMA4ImagesEEG,001,100481,
AFNE01.JPG,AFNE01.JPG,AFNE01.JPG,AFNE01.JPG,AFNE01.JPG,AFNE01.JPG,,,,,,,,,1,5,15,4,,,,,,,,,,,,,,,AFNE10.jpg,AFNE05.jpg,AFSA05.jpg,AFSA12.jpg,AFSA05.jpg,FS,4,num_2,32,num_6,1.33340785177,,,2017_May_16_1830,59.9955933634,FEMA4ImagesEEG,001,100481,
AFNE01.JPG,AFNE01.JPG,AFNE01.JPG,AFNE01.JPG,AFNE01.JPG,AFNE01.JPG,,,,,,,,,1,6,16,0,,,,,,,,,,,,,,,AFSA05.jpg,AFNE06.jpg,AFSA09.jpg,AFNE05.jpg,AFNE05.jpg,FN,3,num_4,16,num_4,1.18331244786,,,2017_May_16_1830,59.9955933634,FEMA4ImagesEEG,001,100481,
AFNE01.JPG,AFNE01.JPG,AFNE01.JPG,AFNE01.JPG,AFNE01.JPG,AFNE01.JPG,,,,,,,,,1,7,17,9,,,,,,,,,,,,,,,AFNE13.jpg,AFNE14.jpg,AFSA01.jpg,AFSA08.jpg,AFNE14.jpg,FN,3,num_6,16,num_6,1.04998561485,,,2017_May_16_1830,59.9955933634,FEMA4ImagesEEG,001,100481,
AFNE01.JPG,AFNE01.JPG,AFNE01.JPG,AFNE01.JPG,AFNE01.JPG,AFNE01.JPG,,,,,,,,,1,8,18,2,,,,,,,,,,,,,,,AFSA16.jpg,AFNE05.jpg,AFNE06.jpg,AFSA02.jpg,AFNE06.jpg,FN,3,num_2,16,num_2,0.833119026036,,,2017_May_16_1830,59.9955933634,FEMA4ImagesEEG,001,100481,
AFNE01.JPG,AFNE01.JPG,AFNE01.JPG,AFNE01.JPG,AFNE01.JPG,AFNE01.JPG,,,,,,,,,1,9,19,1,,,,,,,,,,,,,,,AFSA05.jpg,AFNE09.jpg,AFNE14.jpg,AFSA15.jpg,AFSA05.jpg,FS,4,num_8,16,num_8,0.666779459978,,,2017_May_16_1830,59.9955933634,FEMA4ImagesEEG,001,100481,
AFNE01.JPG,AFNE01.JPG,AFNE01.JPG,AFNE01.JPG,AFNE01.JPG,AFNE01.JPG,,,,,,,,,2,0,20,1,,,,,,,,,,,,,,,AFSA07.jpg,AFSA01.jpg,AFNE09.jpg,AFNE01.jpg,AFNE01.jpg,FN,3,num_4,32,num_8,2.31667007186,,,2017_May_16_1830,59.9955933634,FEMA4ImagesEEG,001,100481,
AFNE01.JPG,AFNE01.JPG,AFNE01.JPG,AFNE01.JPG,AFNE01.JPG,AFNE01.JPG,,,,,,,,,2,1,21,5,,,,,,,,,,,,,,,AFSA16.jpg,AFSA18.jpg,AFNE07.jpg,AFNE16.jpg,AFNE07.jpg,FN,3,num_2,32,num_6,1.10021274637,,,2017_May_16_1830,59.9955933634,FEMA4ImagesEEG,001,100481,
AFNE01.JPG,AFNE01.JPG,AFNE01.JPG,AFNE01.JPG,AFNE01.JPG,AFNE01.JPG,,,,,,,,,2,2,22,3,,,,,,,,,,,,,,,AFSA09.jpg,AFNE03.jpg,AFNE01.jpg,AFSA15.jpg,AFNE03.jpg,FN,3,num_6,16,num_6,0.783473074087,,,2017_May_16_1830,59.9955933634,FEMA4ImagesEEG,001,100481,
AFNE01.JPG,AFNE01.JPG,AFNE01.JPG,AFNE01.JPG,AFNE01.JPG,AFNE01.JPG,,,,,,,,,2,3,23,4,,,,,,,,,,,,,,,AFSA15.jpg,AFSA17.jpg,AFNE16.jpg,AFNE15.jpg,AFNE16.jpg,FN,3,num_2,32,num_4,1.75001964529,,,2017_May_16_1830,59.9955933634,FEMA4ImagesEEG,001,100481,
AFNE01.JPG,AFNE01.JPG,AFNE01.JPG,AFNE01.JPG,AFNE01.JPG,AFNE01.JPG,,,,,,,,,2,4,24,0,,,,,,,,,,,,,,,AFNE07.jpg,AFSA09.jpg,AFNE11.jpg,AFSA01.jpg,AFSA09.jpg,FS,4,num_6,16,num_6,0.883430511982,,,2017_May_16_1830,59.9955933634,FEMA4ImagesEEG,001,100481,
AFNE01.JPG,AFNE01.JPG,AFNE01.JPG,AFNE01.JPG,AFNE01.JPG,AFNE01.JPG,,,,,,,,,2,5,25,9,,,,,,,,,,,,,,,AFNE07.jpg,AFNE18.jpg,AFSA09.jpg,AFSA13.jpg,AFNE07.jpg,FN,3,num_8,16,num_8,1.28352262832,,,2017_May_16_1830,59.9955933634,FEMA4ImagesEEG,001,100481,
AFNE01.JPG,AFNE01.JPG,AFNE01.JPG,AFNE01.JPG,AFNE01.JPG,AFNE01.JPG,,,,,,,,,2,6,26,8,,,,,,,,,,,,,,,AFNE20.jpg,AFSA11.jpg,AFNE10.jpg,AFSA16.jpg,AFSA11.jpg,FS,4,num_6,16,num_6,0.766809384964,,,2017_May_16_1830,59.9955933634,FEMA4ImagesEEG,001,100481,
AFNE01.JPG,AFNE01.JPG,AFNE01.JPG,AFNE01.JPG,AFNE01.JPG,AFNE01.JPG,,,,,,,,,2,7,27,6,,,,,,,,,,,,,,,AFNE17.jpg,AFSA20.jpg,AFSA04.jpg,AFNE20.jpg,AFSA04.jpg,FS,4,num_2,16,num_2,0.683520126549,,,2017_May_16_1830,59.9955933634,FEMA4ImagesEEG,001,100481,
AFNE01.JPG,AFNE01.JPG,AFNE01.JPG,AFNE01.JPG,AFNE01.JPG,AFNE01.JPG,,,,,,,,,2,8,28,2,,,,,,,,,,,,,,,AFNE07.jpg,AFSA04.jpg,AFNE13.jpg,AFSA15.jpg,AFNE07.jpg,FN,3,num_8,16,num_8,0.900180479992,,,2017_May_16_1830,59.9955933634,FEMA4ImagesEEG,001,100481,
AFNE01.JPG,AFNE01.JPG,AFNE01.JPG,AFNE01.JPG,AFNE01.JPG,AFNE01.JPG,,,,,,,,,2,9,29,7,,,,,,,,,,,,,,,AFNE20.jpg,AFSA15.jpg,AFNE01.jpg,AFSA17.jpg,AFSA15.jpg,FS,4,num_6,16,num_6,0.400152094575,,,2017_May_16_1830,59.9955933634,FEMA4ImagesEEG,001,100481,
AFNE01.JPG,AFNE01.JPG,AFNE01.JPG,AFNE01.JPG,AFNE01.JPG,AFNE01.JPG,,,,,,,,,3,0,30,6,,,,,,,,,,,,,,,AFSA09.jpg,AFNE10.jpg,AFSA03.jpg,AFNE20.jpg,AFNE20.jpg,FN,3,num_4,16,num_4,0.800117839608,,,2017_May_16_1830,59.9955933634,FEMA4ImagesEEG,001,100481,
AFNE01.JPG,AFNE01.JPG,AFNE01.JPG,AFNE01.JPG,AFNE01.JPG,AFNE01.JPG,,,,,,,,,3,1,31,8,,,,,,,,,,,,,,,AFNE10.jpg,AFNE18.jpg,AFSA20.jpg,AFSA06.jpg,AFNE10.jpg,FN,3,num_8,16,num_8,0.983574620157,,,2017_May_16_1830,59.9955933634,FEMA4ImagesEEG,001,100481,
AFNE01.JPG,AFNE01.JPG,AFNE01.JPG,AFNE01.JPG,AFNE01.JPG,AFNE01.JPG,,,,,,,,,3,2,32,4,,,,,,,,,,,,,,,AFNE02.jpg,AFNE01.jpg,AFSA08.jpg,AFSA03.jpg,AFNE02.jpg,FN,3,num_8,32,num_6,0.733492591084,,,2017_May_16_1830,59.9955933634,FEMA4ImagesEEG,001,100481,
AFNE01.JPG,AFNE01.JPG,AFNE01.JPG,AFNE01.JPG,AFNE01.JPG,AFNE01.JPG,,,,,,,,,3,3,33,0,,,,,,,,,,,,,,,AFSA17.jpg,AFNE13.jpg,AFNE03.jpg,AFSA13.jpg,AFNE03.jpg,FN,3,num_2,32,num_6,1.23345650792,,,2017_May_16_1830,59.9955933634,FEMA4ImagesEEG,001,100481,
AFNE01.JPG,AFNE01.JPG,AFNE01.JPG,AFNE01.JPG,AFNE01.JPG,AFNE01.JPG,,,,,,,,,3,4,34,5,,,,,,,,,,,,,,,AFSA03.jpg,AFNE05.jpg,AFNE18.jpg,AFSA06.jpg,AFNE18.jpg,FN,3,num_2,16,num_2,0.983453701454,,,2017_May_16_1830,59.9955933634,FEMA4ImagesEEG,001,100481,
AFNE01.JPG,AFNE01.JPG,AFNE01.JPG,AFNE01.JPG,AFNE01.JPG,AFNE01.JPG,,,,,,,,,3,5,35,9,,,,,,,,,,,,,,,AFNE12.jpg,AFNE11.jpg,AFSA05.jpg,AFSA08.jpg,AFSA08.jpg,FS,4,num_4,16,num_4,1.15013100595,,,2017_May_16_1830,59.9955933634,FEMA4ImagesEEG,001,100481,
AFNE01.JPG,AFNE01.JPG,AFNE01.JPG,AFNE01.JPG,AFNE01.JPG,AFNE01.JPG,,,,,,,,,3,6,36,7,,,,,,,,,,,,,,,AFNE09.jpg,AFNE20.jpg,AFSA07.jpg,AFSA15.jpg,AFNE09.jpg,FN,3,num_8,32,num_6,0.816796603496,,,2017_May_16_1830,59.9955933634,FEMA4ImagesEEG,001,100481,
AFNE01.JPG,AFNE01.JPG,AFNE01.JPG,AFNE01.JPG,AFNE01.JPG,AFNE01.JPG,,,,,,,,,3,7,37,1,,,,,,,,,,,,,,,AFSA20.jpg,AFNE12.jpg,AFNE14.jpg,AFSA19.jpg,AFNE12.jpg,FN,3,num_6,32,num_2,0.966882385226,,,2017_May_16_1830,59.9955933634,FEMA4ImagesEEG,001,100481,
AFNE01.JPG,AFNE01.JPG,AFNE01.JPG,AFNE01.JPG,AFNE01.JPG,AFNE01.JPG,,,,,,,,,3,8,38,2,,,,,,,,,,,,,,,AFSA02.jpg,AFNE09.jpg,AFSA01.jpg,AFNE18.jpg,AFSA02.jpg,FS,4,num_8,16,num_8,0.81673277638,,,2017_May_16_1830,59.9955933634,FEMA4ImagesEEG,001,100481,
AFNE01.JPG,AFNE01.JPG,AFNE01.JPG,AFNE01.JPG,AFNE01.JPG,AFNE01.JPG,,,,,,,,,3,9,39,3,,,,,,,,,,,,,,,AFNE02.jpg,AFNE17.jpg,AFSA07.jpg,AFSA18.jpg,AFNE17.jpg,FN,3,num_6,32,num_2,0.933528385591,,,2017_May_16_1830,59.9955933634,FEMA4ImagesEEG,001,100481,
AFNE01.JPG,AFNE01.JPG,AFNE01.JPG,AFNE01.JPG,AFNE01.JPG,AFNE01.JPG,,,,,,,,,4,0,40,9,,,,,,,,,,,,,,,AFSA15.jpg,AFNE13.jpg,AFSA16.jpg,AFNE09.jpg,AFNE13.jpg,FN,3,num_6,16,num_6,0.550171162511,,,2017_May_16_1830,59.9955933634,FEMA4ImagesEEG,001,100481,
AFNE01.JPG,AFNE01.JPG,AFNE01.JPG,AFNE01.JPG,AFNE01.JPG,AFNE01.JPG,,,,,,,,,4,1,41,4,,,,,,,,,,,,,,,AFNE14.jpg,AFNE02.jpg,AFSA04.jpg,AFSA20.jpg,AFNE02.jpg,FN,3,num_6,32,num_8,0.983463002878,,,2017_May_16_1830,59.9955933634,FEMA4ImagesEEG,001,100481,
AFNE01.JPG,AFNE01.JPG,AFNE01.JPG,AFNE01.JPG,AFNE01.JPG,AFNE01.JPG,,,,,,,,,4,2,42,8,,,,,,,,,,,,,,,AFSA09.jpg,AFNE13.jpg,AFSA10.jpg,AFNE06.jpg,AFNE13.jpg,FN,3,num_6,32,num_8,0.883449435612,,,2017_May_16_1830,59.9955933634,FEMA4ImagesEEG,001,100481,
AFNE01.JPG,AFNE01.JPG,AFNE01.JPG,AFNE01.JPG,AFNE01.JPG,AFNE01.JPG,,,,,,,,,4,3,43,1,,,,,,,,,,,,,,,AFSA19.jpg,AFNE01.jpg,AFSA15.jpg,AFNE17.jpg,AFSA15.jpg,FS,4,num_2,16,num_2,0.650126675973,,,2017_May_16_1830,59.9955933634,FEMA4ImagesEEG,001,100481,
AFNE01.JPG,AFNE01.JPG,AFNE01.JPG,AFNE01.JPG,AFNE01.JPG,AFNE01.JPG,,,,,,,,,4,4,44,6,,,,,,,,,,,,,,,AFSA09.jpg,AFNE09.jpg,AFSA16.jpg,AFNE18.jpg,AFNE18.jpg,FN,3,num_4,32,num_8,1.03342424154,,,2017_May_16_1830,59.9955933634,FEMA4ImagesEEG,001,100481,
AFNE01.JPG,AFNE01.JPG,AFNE01.JPG,AFNE01.JPG,AFNE01.JPG,AFNE01.JPG,,,,,,,,,4,5,45,0,,,,,,,,,,,,,,,AFSA06.jpg,AFNE04.jpg,AFSA10.jpg,AFNE10.jpg,AFSA10.jpg,FS,4,num_2,32,num_8,1.25011891409,,,2017_May_16_1830,59.9955933634,FEMA4ImagesEEG,001,100481,
AFNE01.JPG,AFNE01.JPG,AFNE01.JPG,AFNE01.JPG,AFNE01.JPG,AFNE01.JPG,,,,,,,,,4,6,46,2,,,,,,,,,,,,,,,AFNE08.jpg,AFSA01.jpg,AFSA09.jpg,AFNE19.jpg,AFSA09.jpg,FS,4,num_2,16,num_2,0.683455978695,,,2017_May_16_1830,59.9955933634,FEMA4ImagesEEG,001,100481,
AFNE01.JPG,AFNE01.JPG,AFNE01.JPG,AFNE01.JPG,AFNE01.JPG,AFNE01.JPG,,,,,,,,,4,7,47,5,,,,,,,,,,,,,,,AFNE15.jpg,AFSA03.jpg,AFSA12.jpg,AFNE03.jpg,AFNE03.jpg,FN,3,num_4,32,num_6,0.666854833718,,,2017_May_16_1830,59.9955933634,FEMA4ImagesEEG,001,100481,
AFNE01.JPG,AFNE01.JPG,AFNE01.JPG,AFNE01.JPG,AFNE01.JPG,AFNE01.JPG,,,,,,,,,4,8,48,7,,,,,,,,,,,,,,,AFNE15.jpg,AFNE18.jpg,AFSA13.jpg,AFSA20.jpg,AFSA13.jpg,FS,4,num_2,32,num_4,0.933497594611,,,2017_May_16_1830,59.9955933634,FEMA4ImagesEEG,001,100481,
AFNE01.JPG,AFNE01.JPG,AFNE01.JPG,AFNE01.JPG,AFNE01.JPG,AFNE01.JPG,,,,,,,,,4,9,49,3,,,,,,,,,,,,,,,AFSA04.jpg,AFNE05.jpg,AFSA15.jpg,AFNE13.jpg,AFNE05.jpg,FN,3,num_6,32,num_8,1.05030571265,,,2017_May_16_1830,59.9955933634,FEMA4ImagesEEG,001,100481,
AFNE01.JPG,AFNE01.JPG,AFNE01.JPG,AFNE01.JPG,AFNE01.JPG,AFNE01.JPG,,,,,,,,,5,0,50,2,,,,,,,,,,,,,,,AFSA09.jpg,AFSA20.jpg,AFNE06.jpg,AFNE07.jpg,AFSA09.jpg,FS,4,num_8,32,num_2,1.41664803706,,,2017_May_16_1830,59.9955933634,FEMA4ImagesEEG,001,100481,
AFNE01.JPG,AFNE01.JPG,AFNE01.JPG,AFNE01.JPG,AFNE01.JPG,AFNE01.JPG,,,,,,,,,5,1,51,4,,,,,,,,,,,,,,,AFNE10.jpg,AFSA12.jpg,AFSA07.jpg,AFNE14.jpg,AFNE14.jpg,FN,3,num_4,32,num_8,1.16668949262,,,2017_May_16_1830,59.9955933634,FEMA4ImagesEEG,001,100481,
AFNE01.JPG,AFNE01.JPG,AFNE01.JPG,AFNE01.JPG,AFNE01.JPG,AFNE01.JPG,,,,,,,,,5,2,52,3,,,,,,,,,,,,,,,AFNE16.jpg,AFSA16.jpg,AFNE20.jpg,AFSA07.jpg,AFSA07.jpg,FS,4,num_4,32,num_8,0.966870197139,,,2017_May_16_1830,59.9955933634,FEMA4ImagesEEG,001,100481,
AFNE01.JPG,AFNE01.JPG,AFNE01.JPG,AFNE01.JPG,AFNE01.JPG,AFNE01.JPG,,,,,,,,,5,3,53,9,,,,,,,,,,,,,,,AFNE01.jpg,AFSA19.jpg,AFSA02.jpg,AFNE05.jpg,AFSA19.jpg,FS,4,num_6,16,num_6,2.11664389951,,,2017_May_16_1830,59.9955933634,FEMA4ImagesEEG,001,100481,
AFNE01.JPG,AFNE01.JPG,AFNE01.JPG,AFNE01.JPG,AFNE01.JPG,AFNE01.JPG,,,,,,,,,5,4,54,8,,,,,,,,,,,,,,,AFNE10.jpg,AFNE08.jpg,AFSA03.jpg,AFSA07.jpg,AFNE10.jpg,FN,3,num_8,32,num_6,1.0834409681,,,2017_May_16_1830,59.9955933634,FEMA4ImagesEEG,001,100481,
AFNE01.JPG,AFNE01.JPG,AFNE01.JPG,AFNE01.JPG,AFNE01.JPG,AFNE01.JPG,,,,,,,,,5,5,55,5,,,,,,,,,,,,,,,AFNE07.jpg,AFSA20.jpg,AFNE12.jpg,AFSA15.jpg,AFNE12.jpg,FN,3,num_2,16,num_2,1.06660568345,,,2017_May_16_1830,59.9955933634,FEMA4ImagesEEG,001,100481,
AFNE01.JPG,AFNE01.JPG,AFNE01.JPG,AFNE01.JPG,AFNE01.JPG,AFNE01.JPG,,,,,,,,,5,6,56,1,,,,,,,,,,,,,,,AFSA12.jpg,AFNE03.jpg,AFNE10.jpg,AFSA06.jpg,AFSA12.jpg,FS,4,num_8,32,num_6,1.0834573258,,,2017_May_16_1830,59.9955933634,FEMA4ImagesEEG,001,100481,
AFNE01.JPG,AFNE01.JPG,AFNE01.JPG,AFNE01.JPG,AFNE01.JPG,AFNE01.JPG,,,,,,,,,5,7,57,7,,,,,,,,,,,,,,,AFSA02.jpg,AFNE11.jpg,AFSA05.jpg,AFNE01.jpg,AFNE11.jpg,FN,3,num_6,16,num_6,0.750155959482,,,2017_May_16_1830,59.9955933634,FEMA4ImagesEEG,001,100481,
AFNE01.JPG,AFNE01.JPG,AFNE01.JPG,AFNE01.JPG,AFNE01.JPG,AFNE01.JPG,,,,,,,,,5,8,58,0,,,,,,,,,,,,,,,AFSA07.jpg,AFSA17.jpg,AFNE03.jpg,AFNE12.jpg,AFNE12.jpg,FN,3,num_4,32,num_8,1.18330346716,,,2017_May_16_1830,59.9955933634,FEMA4ImagesEEG,001,100481,
AFNE01.JPG,AFNE01.JPG,AFNE01.JPG,AFNE01.JPG,AFNE01.JPG,AFNE01.JPG,,,,,,,,,5,9,59,6,,,,,,,,,,,,,,,AFNE19.jpg,AFSA06.jpg,AFNE09.jpg,AFSA17.jpg,AFNE09.jpg,FN,3,num_2,32,num_6,0.916737362961,,,2017_May_16_1830,59.9955933634,FEMA4ImagesEEG,001,100481,
,,,,,,,,,,,,,,,,,,,,,,,,,,,,,,,,,,,,,,,,,,,space,37.2139167495,2017_May_16_1830,59.9955933634,FEMA4ImagesEEG,001,100481,
AFNE01.JPG,AFNE01.JPG,AFNE01.JPG,AFNE01.JPG,AFNE01.JPG,AFNE01.JPG,,,,,,,,,,,,,0,0,0,5,,,,,,,,,,,AMSA04.jpg,AMNE17.jpg,AMSA12.jpg,AMNE13.jpg,AMSA04.jpg,MS,2,num_8,16,num_8,1.11677059154,,,2017_May_16_1830,59.9955933634,FEMA4ImagesEEG,001,100481,
AFNE01.JPG,AFNE01.JPG,AFNE01.JPG,AFNE01.JPG,AFNE01.JPG,AFNE01.JPG,,,,,,,,,,,,,0,1,1,6,,,,,,,,,,,AMSA11.jpg,AMNE19.jpg,AMNE12.jpg,AMSA10.jpg,AMNE19.jpg,MN,1,num_6,16,num_6,0.68349318445,,,2017_May_16_1830,59.9955933634,FEMA4ImagesEEG,001,100481,
AFNE01.JPG,AFNE01.JPG,AFNE01.JPG,AFNE01.JPG,AFNE01.JPG,AFNE01.JPG,,,,,,,,,,,,,0,2,2,1,,,,,,,,,,,AMSA14.jpg,AMNE18.jpg,AMSA07.jpg,AMNE08.jpg,AMSA07.jpg,MS,2,num_2,16,num_2,0.716776942179,,,2017_May_16_1830,59.9955933634,FEMA4ImagesEEG,001,100481,
AFNE01.JPG,AFNE01.JPG,AFNE01.JPG,AFNE01.JPG,AFNE01.JPG,AFNE01.JPG,,,,,,,,,,,,,0,3,3,2,,,,,,,,,,,AMNE09.jpg,AMNE11.jpg,AMSA05.jpg,AMSA02.jpg,AMNE09.jpg,MN,1,num_8,32,num_4,1.21675625449,,,2017_May_16_1830,59.9955933634,FEMA4ImagesEEG,001,100481,
AFNE01.JPG,AFNE01.JPG,AFNE01.JPG,AFNE01.JPG,AFNE01.JPG,AFNE01.JPG,,,,,,,,,,,,,0,4,4,4,,,,,,,,,,,AMNE05.jpg,AMSA20.jpg,AMNE10.jpg,AMSA17.jpg,AMSA20.jpg,MS,2,num_6,16,num_6,0.800150234281,,,2017_May_16_1830,59.9955933634,FEMA4ImagesEEG,001,100481,
AFNE01.JPG,AFNE01.JPG,AFNE01.JPG,AFNE01.JPG,AFNE01.JPG,AFNE01.JPG,,,,,,,,,,,,,0,5,5,0,,,,,,,,,,,AMNE02.jpg,AMSA11.jpg,AMSA18.jpg,AMNE15.jpg,AMNE02.jpg,MN,1,num_8,16,num_8,0.833185419062,,,2017_May_16_1830,59.9955933634,FEMA4ImagesEEG,001,100481,
AFNE01.JPG,AFNE01.JPG,AFNE01.JPG,AFNE01.JPG,AFNE01.JPG,AFNE01.JPG,,,,,,,,,,,,,0,6,6,7,,,,,,,,,,,AMSA20.jpg,AMNE01.jpg,AMNE06.jpg,AMSA13.jpg,AMSA13.jpg,MS,2,num_4,32,num_6,0.616845163429,,,2017_May_16_1830,59.9955933634,FEMA4ImagesEEG,001,100481,
AFNE01.JPG,AFNE01.JPG,AFNE01.JPG,AFNE01.JPG,AFNE01.JPG,AFNE01.JPG,,,,,,,,,,,,,0,7,7,3,,,,,,,,,,,AMSA01.jpg,AMNE14.jpg,AMNE06.jpg,AMSA13.jpg,AMSA01.jpg,MS,2,num_8,32,num_4,1.10009695949,,,2017_May_16_1830,59.9955933634,FEMA4ImagesEEG,001,100481,
AFNE01.JPG,AFNE01.JPG,AFNE01.JPG,AFNE01.JPG,AFNE01.JPG,AFNE01.JPG,,,,,,,,,,,,,0,8,8,8,,,,,,,,,,,AMSA05.jpg,AMSA20.jpg,AMNE15.jpg,AMNE12.jpg,AMSA05.jpg,MS,2,num_8,16,num_8,0.78351573243,,,2017_May_16_1830,59.9955933634,FEMA4ImagesEEG,001,100481,
AFNE01.JPG,AFNE01.JPG,AFNE01.JPG,AFNE01.JPG,AFNE01.JPG,AFNE01.JPG,,,,,,,,,,,,,0,9,9,9,,,,,,,,,,,AMSA09.jpg,AMNE03.jpg,AMNE01.jpg,AMSA19.jpg,AMNE03.jpg,MN,1,num_6,32,num_4,0.850216354695,,,2017_May_16_1830,59.9955933634,FEMA4ImagesEEG,001,100481,
AFNE01.JPG,AFNE01.JPG,AFNE01.JPG,AFNE01.JPG,AFNE01.JPG,AFNE01.JPG,,,,,,,,,,,,,1,0,10,0,,,,,,,,,,,AMSA20.jpg,AMNE06.jpg,AMSA12.jpg,AMNE02.jpg,AMSA12.jpg,MS,2,num_2,32,num_8,0.80008512421,,,2017_May_16_1830,59.9955933634,FEMA4ImagesEEG,001,100481,
AFNE01.JPG,AFNE01.JPG,AFNE01.JPG,AFNE01.JPG,AFNE01.JPG,AFNE01.JPG,,,,,,,,,,,,,1,1,11,7,,,,,,,,,,,AMNE09.jpg,AMSA05.jpg,AMNE04.jpg,AMSA02.jpg,AMSA05.jpg,MS,2,num_6,16,num_6,1.00016646369,,,2017_May_16_1830,59.9955933634,FEMA4ImagesEEG,001,100481,
AFNE01.JPG,AFNE01.JPG,AFNE01.JPG,AFNE01.JPG,AFNE01.JPG,AFNE01.JPG,,,,,,,,,,,,,1,2,12,9,,,,,,,,,,,AMNE10.jpg,AMNE01.jpg,AMSA15.jpg,AMSA19.jpg,AMNE01.jpg,MN,1,num_6,16,num_6,0.850104095938,,,2017_May_16_1830,59.9955933634,FEMA4ImagesEEG,001,100481,
AFNE01.JPG,AFNE01.JPG,AFNE01.JPG,AFNE01.JPG,AFNE01.JPG,AFNE01.JPG,,,,,,,,,,,,,1,3,13,6,,,,,,,,,,,AMNE07.jpg,AMSA14.jpg,AMSA07.jpg,AMNE03.jpg,AMSA07.jpg,MS,2,num_2,32,num_8,0.716789130267,,,2017_May_16_1830,59.9955933634,FEMA4ImagesEEG,001,100481,
AFNE01.JPG,AFNE01.JPG,AFNE01.JPG,AFNE01.JPG,AFNE01.JPG,AFNE01.JPG,,,,,,,,,,,,,1,4,14,1,,,,,,,,,,,AMSA15.jpg,AMNE11.jpg,AMNE10.jpg,AMSA03.jpg,AMSA15.jpg,MS,2,num_8,32,num_4,0.883441417129,,,2017_May_16_1830,59.9955933634,FEMA4ImagesEEG,001,100481,
AFNE01.JPG,AFNE01.JPG,AFNE01.JPG,AFNE01.JPG,AFNE01.JPG,AFNE01.JPG,,,,,,,,,,,,,1,5,15,4,,,,,,,,,,,AMNE08.jpg,AMSA07.jpg,AMNE15.jpg,AMSA11.jpg,AMNE08.jpg,MN,1,num_8,16,num_8,0.733444159458,,,2017_May_16_1830,59.9955933634,FEMA4ImagesEEG,001,100481,
AFNE01.JPG,AFNE01.JPG,AFNE01.JPG,AFNE01.JPG,AFNE01.JPG,AFNE01.JPG,,,,,,,,,,,,,1,6,16,2,,,,,,,,,,,AMSA12.jpg,AMNE14.jpg,AMNE09.jpg,AMSA04.jpg,AMNE14.jpg,MN,1,num_6,16,num_6,0.816895391195,,,2017_May_16_1830,59.9955933634,FEMA4ImagesEEG,001,100481,
AFNE01.JPG,AFNE01.JPG,AFNE01.JPG,AFNE01.JPG,AFNE01.JPG,AFNE01.JPG,,,,,,,,,,,,,1,7,17,8,,,,,,,,,,,AMNE06.jpg,AMSA03.jpg,AMSA18.jpg,AMNE15.jpg,AMNE06.jpg,MN,1,num_8,16,num_8,0.716773414053,,,2017_May_16_1830,59.9955933634,FEMA4ImagesEEG,001,100481,
AFNE01.JPG,AFNE01.JPG,AFNE01.JPG,AFNE01.JPG,AFNE01.JPG,AFNE01.JPG,,,,,,,,,,,,,1,8,18,3,,,,,,,,,,,AMNE02.jpg,AMNE11.jpg,AMSA16.jpg,AMSA01.jpg,AMNE11.jpg,MN,1,num_6,32,num_4,0.700155590632,,,2017_May_16_1830,59.9955933634,FEMA4ImagesEEG,001,100481,
AFNE01.JPG,AFNE01.JPG,AFNE01.JPG,AFNE01.JPG,AFNE01.JPG,AFNE01.JPG,,,,,,,,,,,,,1,9,19,5,,,,,,,,,,,AMNE05.jpg,AMSA06.jpg,AMSA07.jpg,AMNE04.jpg,AMNE05.jpg,MN,1,num_8,16,num_8,0.700104272342,,,2017_May_16_1830,59.9955933634,FEMA4ImagesEEG,001,100481,
AFNE01.JPG,AFNE01.JPG,AFNE01.JPG,AFNE01.JPG,AFNE01.JPG,AFNE01.JPG,,,,,,,,,,,,,2,0,20,1,,,,,,,,,,,AMNE19.jpg,AMSA17.jpg,AMNE06.jpg,AMSA04.jpg,AMSA04.jpg,MS,2,num_4,16,num_4,0.783639537796,,,2017_May_16_1830,59.9955933634,FEMA4ImagesEEG,001,100481,
AFNE01.JPG,AFNE01.JPG,AFNE01.JPG,AFNE01.JPG,AFNE01.JPG,AFNE01.JPG,,,,,,,,,,,,,2,1,21,3,,,,,,,,,,,AMSA01.jpg,AMNE06.jpg,AMSA10.jpg,AMNE10.jpg,AMNE06.jpg,MN,1,num_6,32,num_8,0.816735663029,,,2017_May_16_1830,59.9955933634,FEMA4ImagesEEG,001,100481,
AFNE01.JPG,AFNE01.JPG,AFNE01.JPG,AFNE01.JPG,AFNE01.JPG,AFNE01.JPG,,,,,,,,,,,,,2,2,22,0,,,,,,,,,,,AMSA08.jpg,AMSA05.jpg,AMNE14.jpg,AMNE20.jpg,AMNE14.jpg,MN,1,num_2,16,num_2,1.20007107583,,,2017_May_16_1830,59.9955933634,FEMA4ImagesEEG,001,100481,
AFNE01.JPG,AFNE01.JPG,AFNE01.JPG,AFNE01.JPG,AFNE01.JPG,AFNE01.JPG,,,,,,,,,,,,,2,3,23,4,,,,,,,,,,,AMNE19.jpg,AMNE04.jpg,AMSA20.jpg,AMSA12.jpg,AMSA20.jpg,MS,2,num_2,32,num_8,0.966789050086,,,2017_May_16_1830,59.9955933634,FEMA4ImagesEEG,001,100481,
AFNE01.JPG,AFNE01.JPG,AFNE01.JPG,AFNE01.JPG,AFNE01.JPG,AFNE01.JPG,,,,,,,,,,,,,2,4,24,6,,,,,,,,,,,AMNE14.jpg,AMSA05.jpg,AMSA08.jpg,AMNE13.jpg,AMSA08.jpg,MS,2,num_2,16,num_2,0.916813698903,,,2017_May_16_1830,59.9955933634,FEMA4ImagesEEG,001,100481,
AFNE01.JPG,AFNE01.JPG,AFNE01.JPG,AFNE01.JPG,AFNE01.JPG,AFNE01.JPG,,,,,,,,,,,,,2,5,25,2,,,,,,,,,,,AMNE05.jpg,AMSA11.jpg,AMNE08.jpg,AMSA18.jpg,AMSA11.jpg,MS,2,num_6,32,num_8,1.00014240824,,,2017_May_16_1830,59.9955933634,FEMA4ImagesEEG,001,100481,
AFNE01.JPG,AFNE01.JPG,AFNE01.JPG,AFNE01.JPG,AFNE01.JPG,AFNE01.JPG,,,,,,,,,,,,,2,6,26,8,,,,,,,,,,,AMSA18.jpg,AMSA08.jpg,AMNE11.jpg,AMNE05.jpg,AMNE11.jpg,MN,1,num_2,32,num_4,0.850118208473,,,2017_May_16_1830,59.9955933634,FEMA4ImagesEEG,001,100481,
AFNE01.JPG,AFNE01.JPG,AFNE01.JPG,AFNE01.JPG,AFNE01.JPG,AFNE01.JPG,,,,,,,,,,,,,2,7,27,7,,,,,,,,,,,AMNE08.jpg,AMNE18.jpg,AMSA17.jpg,AMSA14.jpg,AMNE08.jpg,MN,1,num_8,16,num_8,0.766776348813,,,2017_May_16_1830,59.9955933634,FEMA4ImagesEEG,001,100481,
AFNE01.JPG,AFNE01.JPG,AFNE01.JPG,AFNE01.JPG,AFNE01.JPG,AFNE01.JPG,,,,,,,,,,,,,2,8,28,9,,,,,,,,,,,AMNE12.jpg,AMSA09.jpg,AMSA17.jpg,AMNE10.jpg,AMSA17.jpg,MS,2,num_2,16,num_2,0.916482375222,,,2017_May_16_1830,59.9955933634,FEMA4ImagesEEG,001,100481,
AFNE01.JPG,AFNE01.JPG,AFNE01.JPG,AFNE01.JPG,AFNE01.JPG,AFNE01.JPG,,,,,,,,,,,,,2,9,29,5,,,,,,,,,,,AMNE20.jpg,AMNE11.jpg,AMSA12.jpg,AMSA11.jpg,AMNE11.jpg,MN,1,num_6,32,num_8,0.800099236745,,,2017_May_16_1830,59.9955933634,FEMA4ImagesEEG,001,100481,
AFNE01.JPG,AFNE01.JPG,AFNE01.JPG,AFNE01.JPG,AFNE01.JPG,AFNE01.JPG,,,,,,,,,,,,,3,0,30,0,,,,,,,,,,,AMNE12.jpg,AMSA09.jpg,AMSA20.jpg,AMNE10.jpg,AMSA09.jpg,MS,2,num_6,16,num_6,0.550137164159,,,2017_May_16_1830,59.9955933634,FEMA4ImagesEEG,001,100481,
AFNE01.JPG,AFNE01.JPG,AFNE01.JPG,AFNE01.JPG,AFNE01.JPG,AFNE01.JPG,,,,,,,,,,,,,3,1,31,3,,,,,,,,,,,AMNE15.jpg,AMSA14.jpg,AMSA05.jpg,AMNE20.jpg,AMNE20.jpg,MN,1,num_4,32,num_8,0.766780839156,,,2017_May_16_1830,59.9955933634,FEMA4ImagesEEG,001,100481,
AFNE01.JPG,AFNE01.JPG,AFNE01.JPG,AFNE01.JPG,AFNE01.JPG,AFNE01.JPG,,,,,,,,,,,,,3,2,32,5,,,,,,,,,,,AMSA05.jpg,AMNE02.jpg,AMNE06.jpg,AMSA03.jpg,AMSA03.jpg,MS,2,num_4,16,num_4,1.00008018482,,,2017_May_16_1830,59.9955933634,FEMA4ImagesEEG,001,100481,
AFNE01.JPG,AFNE01.JPG,AFNE01.JPG,AFNE01.JPG,AFNE01.JPG,AFNE01.JPG,,,,,,,,,,,,,3,3,33,7,,,,,,,,,,,AMNE11.jpg,AMSA14.jpg,AMNE20.jpg,AMSA07.jpg,AMNE20.jpg,MN,1,num_2,32,num_8,1.50007810001,,,2017_May_16_1830,59.9955933634,FEMA4ImagesEEG,001,100481,
AFNE01.JPG,AFNE01.JPG,AFNE01.JPG,AFNE01.JPG,AFNE01.JPG,AFNE01.JPG,,,,,,,,,,,,,3,4,34,1,,,,,,,,,,,AMSA08.jpg,AMSA13.jpg,AMNE11.jpg,AMNE05.jpg,AMSA13.jpg,MS,2,num_6,16,num_6,0.91674281552,,,2017_May_16_1830,59.9955933634,FEMA4ImagesEEG,001,100481,
AFNE01.JPG,AFNE01.JPG,AFNE01.JPG,AFNE01.JPG,AFNE01.JPG,AFNE01.JPG,,,,,,,,,,,,,3,5,35,6,,,,,,,,,,,AMSA02.jpg,AMNE12.jpg,AMSA15.jpg,AMNE07.jpg,AMNE12.jpg,MN,1,num_6,32,num_2,1.48341537311,,,2017_May_16_1830,59.9955933634,FEMA4ImagesEEG,001,100481,
AFNE01.JPG,AFNE01.JPG,AFNE01.JPG,AFNE01.JPG,AFNE01.JPG,AFNE01.JPG,,,,,,,,,,,,,3,6,36,2,,,,,,,,,,,AMNE12.jpg,AMSA11.jpg,AMSA18.jpg,AMNE07.jpg,AMNE07.jpg,MN,1,num_4,32,num_8,0.983481926509,,,2017_May_16_1830,59.9955933634,FEMA4ImagesEEG,001,100481,
AFNE01.JPG,AFNE01.JPG,AFNE01.JPG,AFNE01.JPG,AFNE01.JPG,AFNE01.JPG,,,,,,,,,,,,,3,7,37,9,,,,,,,,,,,AMNE13.jpg,AMSA07.jpg,AMSA05.jpg,AMNE04.jpg,AMNE04.jpg,MN,1,num_4,32,num_2,1.70003755858,,,2017_May_16_1830,59.9955933634,FEMA4ImagesEEG,001,100481,
AFNE01.JPG,AFNE01.JPG,AFNE01.JPG,AFNE01.JPG,AFNE01.JPG,AFNE01.JPG,,,,,,,,,,,,,3,8,38,4,,,,,,,,,,,AMNE20.jpg,AMSA19.jpg,AMSA02.jpg,AMNE04.jpg,AMSA02.jpg,MS,2,num_2,32,num_6,0.133520880292,,,2017_May_16_1830,59.9955933634,FEMA4ImagesEEG,001,100481,
AFNE01.JPG,AFNE01.JPG,AFNE01.JPG,AFNE01.JPG,AFNE01.JPG,AFNE01.JPG,,,,,,,,,,,,,3,9,39,8,,,,,,,,,,,AMSA14.jpg,AMNE16.jpg,AMNE10.jpg,AMSA05.jpg,AMNE10.jpg,MN,1,num_2,32,num_4,1.01647958478,,,2017_May_16_1830,59.9955933634,FEMA4ImagesEEG,001,100481,
AFNE01.JPG,AFNE01.JPG,AFNE01.JPG,AFNE01.JPG,AFNE01.JPG,AFNE01.JPG,,,,,,,,,,,,,4,0,40,4,,,,,,,,,,,AMNE20.jpg,AMNE11.jpg,AMSA09.jpg,AMSA17.jpg,AMNE11.jpg,MN,1,num_6,32,num_8,0.850275049976,,,2017_May_16_1830,59.9955933634,FEMA4ImagesEEG,001,100481,
AFNE01.JPG,AFNE01.JPG,AFNE01.JPG,AFNE01.JPG,AFNE01.JPG,AFNE01.JPG,,,,,,,,,,,,,4,1,41,9,,,,,,,,,,,AMSA10.jpg,AMNE19.jpg,AMNE13.jpg,AMSA06.jpg,AMSA10.jpg,MS,2,num_8,32,num_2,0.866819424104,,,2017_May_16_1830,59.9955933634,FEMA4ImagesEEG,001,100481,
AFNE01.JPG,AFNE01.JPG,AFNE01.JPG,AFNE01.JPG,AFNE01.JPG,AFNE01.JPG,,,,,,,,,,,,,4,2,42,5,,,,,,,,,,,AMSA06.jpg,AMNE16.jpg,AMSA19.jpg,AMNE20.jpg,AMNE16.jpg,MN,1,num_6,32,num_8,0.833457726723,,,2017_May_16_1830,59.9955933634,FEMA4ImagesEEG,001,100481,
AFNE01.JPG,AFNE01.JPG,AFNE01.JPG,AFNE01.JPG,AFNE01.JPG,AFNE01.JPG,,,,,,,,,,,,,4,3,43,8,,,,,,,,,,,AMNE01.jpg,AMSA15.jpg,AMNE06.jpg,AMSA17.jpg,AMSA15.jpg,MS,2,num_6,32,num_8,0.86676008733,,,2017_May_16_1830,59.9955933634,FEMA4ImagesEEG,001,100481,
AFNE01.JPG,AFNE01.JPG,AFNE01.JPG,AFNE01.JPG,AFNE01.JPG,AFNE01.JPG,,,,,,,,,,,,,4,4,44,7,,,,,,,,,,,AMNE16.jpg,AMSA20.jpg,AMSA19.jpg,AMNE03.jpg,AMNE03.jpg,MN,1,num_4,32,num_8,0.833445538621,,,2017_May_16_1830,59.9955933634,FEMA4ImagesEEG,001,100481,
AFNE01.JPG,AFNE01.JPG,AFNE01.JPG,AFNE01.JPG,AFNE01.JPG,AFNE01.JPG,,,,,,,,,,,,,4,5,45,1,,,,,,,,,,,AMSA18.jpg,AMNE04.jpg,AMSA15.jpg,AMNE17.jpg,AMSA15.jpg,MS,2,num_2,32,num_8,0.883470283676,,,2017_May_16_1830,59.9955933634,FEMA4ImagesEEG,001,100481,
AFNE01.JPG,AFNE01.JPG,AFNE01.JPG,AFNE01.JPG,AFNE01.JPG,AFNE01.JPG,,,,,,,,,,,,,4,6,46,0,,,,,,,,,,,AMSA02.jpg,AMNE18.jpg,AMSA08.jpg,AMNE01.jpg,AMSA02.jpg,MS,2,num_8,32,num_4,0.98349571829,,,2017_May_16_1830,59.9955933634,FEMA4ImagesEEG,001,100481,
AFNE01.JPG,AFNE01.JPG,AFNE01.JPG,AFNE01.JPG,AFNE01.JPG,AFNE01.JPG,,,,,,,,,,,,,4,7,47,3,,,,,,,,,,,AMSA08.jpg,AMNE11.jpg,AMSA10.jpg,AMNE03.jpg,AMSA08.jpg,MS,2,num_8,32,num_2,0.80015953572,,,2017_May_16_1830,59.9955933634,FEMA4ImagesEEG,001,100481,
AFNE01.JPG,AFNE01.JPG,AFNE01.JPG,AFNE01.JPG,AFNE01.JPG,AFNE01.JPG,,,,,,,,,,,,,4,8,48,2,,,,,,,,,,,AMNE20.jpg,AMSA20.jpg,AMNE08.jpg,AMSA11.jpg,AMSA11.jpg,MS,2,num_4,32,num_2,0.833440086062,,,2017_May_16_1830,59.9955933634,FEMA4ImagesEEG,001,100481,
AFNE01.JPG,AFNE01.JPG,AFNE01.JPG,AFNE01.JPG,AFNE01.JPG,AFNE01.JPG,,,,,,,,,,,,,4,9,49,6,,,,,,,,,,,AMNE16.jpg,AMSA07.jpg,AMSA09.jpg,AMNE03.jpg,AMNE16.jpg,MN,1,num_8,16,num_8,0.91674024961,,,2017_May_16_1830,59.9955933634,FEMA4ImagesEEG,001,100481,
AFNE01.JPG,AFNE01.JPG,AFNE01.JPG,AFNE01.JPG,AFNE01.JPG,AFNE01.JPG,,,,,,,,,,,,,5,0,50,2,,,,,,,,,,,AMNE19.jpg,AMSA14.jpg,AMSA03.jpg,AMNE06.jpg,AMNE06.jpg,MN,1,num_4,16,num_4,0.866752710339,,,2017_May_16_1830,59.9955933634,FEMA4ImagesEEG,001,100481,
AFNE01.JPG,AFNE01.JPG,AFNE01.JPG,AFNE01.JPG,AFNE01.JPG,AFNE01.JPG,,,,,,,,,,,,,5,1,51,1,,,,,,,,,,,AMNE10.jpg,AMNE13.jpg,AMSA02.jpg,AMSA04.jpg,AMSA02.jpg,MS,2,num_2,32,num_8,0.95046053351,,,2017_May_16_1830,59.9955933634,FEMA4ImagesEEG,001,100481,
AFNE01.JPG,AFNE01.JPG,AFNE01.JPG,AFNE01.JPG,AFNE01.JPG,AFNE01.JPG,,,,,,,,,,,,,5,2,52,6,,,,,,,,,,,AMNE12.jpg,AMNE09.jpg,AMSA01.jpg,AMSA17.jpg,AMNE12.jpg,MN,1,num_8,16,num_8,0.850273125543,,,2017_May_16_1830,59.9955933634,FEMA4ImagesEEG,001,100481,
AFNE01.JPG,AFNE01.JPG,AFNE01.JPG,AFNE01.JPG,AFNE01.JPG,AFNE01.JPG,,,,,,,,,,,,,5,3,53,4,,,,,,,,,,,AMNE11.jpg,AMSA10.jpg,AMNE07.jpg,AMSA14.jpg,AMNE07.jpg,MN,1,num_2,32,num_8,0.700415710191,,,2017_May_16_1830,59.9955933634,FEMA4ImagesEEG,001,100481,
AFNE01.JPG,AFNE01.JPG,AFNE01.JPG,AFNE01.JPG,AFNE01.JPG,AFNE01.JPG,,,,,,,,,,,,,5,4,54,5,,,,,,,,,,,AMSA02.jpg,AMNE01.jpg,AMNE20.jpg,AMSA04.jpg,AMSA02.jpg,MS,2,num_8,16,num_8,0.700117101922,,,2017_May_16_1830,59.9955933634,FEMA4ImagesEEG,001,100481,
AFNE01.JPG,AFNE01.JPG,AFNE01.JPG,AFNE01.JPG,AFNE01.JPG,AFNE01.JPG,,,,,,,,,,,,,5,5,55,8,,,,,,,,,,,AMNE20.jpg,AMSA16.jpg,AMNE10.jpg,AMSA14.jpg,AMNE20.jpg,MN,1,num_8,16,num_8,0.75024737019,,,2017_May_16_1830,59.9955933634,FEMA4ImagesEEG,001,100481,
AFNE01.JPG,AFNE01.JPG,AFNE01.JPG,AFNE01.JPG,AFNE01.JPG,AFNE01.JPG,,,,,,,,,,,,,5,6,56,3,,,,,,,,,,,AMNE19.jpg,AMSA05.jpg,AMNE12.jpg,AMSA13.jpg,AMNE12.jpg,MN,1,num_2,32,num_8,1.10021146342,,,2017_May_16_1830,59.9955933634,FEMA4ImagesEEG,001,100481,
AFNE01.JPG,AFNE01.JPG,AFNE01.JPG,AFNE01.JPG,AFNE01.JPG,AFNE01.JPG,,,,,,,,,,,,,5,7,57,0,,,,,,,,,,,AMSA03.jpg,AMNE08.jpg,AMNE04.jpg,AMSA18.jpg,AMSA03.jpg,MS,2,num_8,32,num_4,0.666809288741,,,2017_May_16_1830,59.9955933634,FEMA4ImagesEEG,001,100481,
AFNE01.JPG,AFNE01.JPG,AFNE01.JPG,AFNE01.JPG,AFNE01.JPG,AFNE01.JPG,,,,,,,,,,,,,5,8,58,7,,,,,,,,,,,AMNE13.jpg,AMSA13.jpg,AMSA11.jpg,AMNE19.jpg,AMNE13.jpg,MN,1,num_8,32,num_6,0.700211399278,,,2017_May_16_1830,59.9955933634,FEMA4ImagesEEG,001,100481,
AFNE01.JPG,AFNE01.JPG,AFNE01.JPG,AFNE01.JPG,AFNE01.JPG,AFNE01.JPG,,,,,,,,,,,,,5,9,59,9,,,,,,,,,,,AMSA08.jpg,AMNE07.jpg,AMSA19.jpg,AMNE09.jpg,AMSA08.jpg,MS,2,num_8,16,num_8,0.750201825198,,,2017_May_16_1830,59.9955933634,FEMA4ImagesEEG,001,100481,
,,,,,,,,,,,,,,,,,,,,,,,,,,,,,,,,,,,,,,,,,,,space,453.197596893,2017_May_16_1830,59.9955933634,FEMA4ImagesEEG,001,100481,
AFNE01.JPG,AFNE01.JPG,AFNE01.JPG,AFNE01.JPG,AFNE01.JPG,AFNE01.JPG,,,,,,,,,,,,,,,,,0,0,0,6,,,,,,,AFSA04.jpg,AFSA07.jpg,AFNE13.jpg,AFNE16.jpg,AFSA04.jpg,FS,4,num_8,16,num_8,0.966880140055,,,2017_May_16_1830,59.9955933634,FEMA4ImagesEEG,001,100481,
AFNE01.JPG,AFNE01.JPG,AFNE01.JPG,AFNE01.JPG,AFNE01.JPG,AFNE01.JPG,,,,,,,,,,,,,,,,,0,1,1,0,,,,,,,AFNE11.jpg,AFNE10.jpg,AFSA05.jpg,AFSA07.jpg,AFNE10.jpg,FN,3,num_6,32,num_8,1.749810844,,,2017_May_16_1830,59.9955933634,FEMA4ImagesEEG,001,100481,
AFNE01.JPG,AFNE01.JPG,AFNE01.JPG,AFNE01.JPG,AFNE01.JPG,AFNE01.JPG,,,,,,,,,,,,,,,,,0,2,2,4,,,,,,,AFSA15.jpg,AFNE18.jpg,AFSA08.jpg,AFNE06.jpg,AFSA15.jpg,FS,4,num_8,32,num_4,1.29997655396,,,2017_May_16_1830,59.9955933634,FEMA4ImagesEEG,001,100481,
AFNE01.JPG,AFNE01.JPG,AFNE01.JPG,AFNE01.JPG,AFNE01.JPG,AFNE01.JPG,,,,,,,,,,,,,,,,,0,3,3,7,,,,,,,AFNE10.jpg,AFSA19.jpg,AFSA02.jpg,AFNE18.jpg,AFSA02.jpg,FS,4,num_2,32,num_8,1.05010685429,,,2017_May_16_1830,59.9955933634,FEMA4ImagesEEG,001,100481,
AFNE01.JPG,AFNE01.JPG,AFNE01.JPG,AFNE01.JPG,AFNE01.JPG,AFNE01.JPG,,,,,,,,,,,,,,,,,0,4,4,3,,,,,,,AFSA17.jpg,AFNE02.jpg,AFSA07.jpg,AFNE20.jpg,AFNE02.jpg,FN,3,num_6,16,num_6,0.650498733565,,,2017_May_16_1830,59.9955933634,FEMA4ImagesEEG,001,100481,
AFNE01.JPG,AFNE01.JPG,AFNE01.JPG,AFNE01.JPG,AFNE01.JPG,AFNE01.JPG,,,,,,,,,,,,,,,,,0,5,5,9,,,,,,,AFSA11.jpg,AFNE17.jpg,AFSA12.jpg,AFNE05.jpg,AFNE05.jpg,FN,3,num_4,16,num_4,1.21671135099,,,2017_May_16_1830,59.9955933634,FEMA4ImagesEEG,001,100481,
AFNE01.JPG,AFNE01.JPG,AFNE01.JPG,AFNE01.JPG,AFNE01.JPG,AFNE01.JPG,,,,,,,,,,,,,,,,,0,6,6,8,,,,,,,AFNE06.jpg,AFSA19.jpg,AFNE08.jpg,AFSA13.jpg,AFNE08.jpg,FN,3,num_2,16,num_2,0.750150827662,,,2017_May_16_1830,59.9955933634,FEMA4ImagesEEG,001,100481,
AFNE01.JPG,AFNE01.JPG,AFNE01.JPG,AFNE01.JPG,AFNE01.JPG,AFNE01.JPG,,,,,,,,,,,,,,,,,0,7,7,5,,,,,,,AFNE01.jpg,AFNE12.jpg,AFSA05.jpg,AFSA10.jpg,AFNE12.jpg,FN,3,num_6,32,num_8,0.999986208204,,,2017_May_16_1830,59.9955933634,FEMA4ImagesEEG,001,100481,
AFNE01.JPG,AFNE01.JPG,AFNE01.JPG,AFNE01.JPG,AFNE01.JPG,AFNE01.JPG,,,,,,,,,,,,,,,,,0,8,8,1,,,,,,,AFSA10.jpg,AFNE07.jpg,AFSA15.jpg,AFNE20.jpg,AFNE07.jpg,FN,3,num_6,16,num_6,0.750092453105,,,2017_May_16_1830,59.9955933634,FEMA4ImagesEEG,001,100481,
AFNE01.JPG,AFNE01.JPG,AFNE01.JPG,AFNE01.JPG,AFNE01.JPG,AFNE01.JPG,,,,,,,,,,,,,,,,,0,9,9,2,,,,,,,AFSA11.jpg,AFNE04.jpg,AFSA13.jpg,AFNE03.jpg,AFNE04.jpg,FN,3,num_6,32,num_8,0.750087962762,,,2017_May_16_1830,59.9955933634,FEMA4ImagesEEG,001,100481,
AFNE01.JPG,AFNE01.JPG,AFNE01.JPG,AFNE01.JPG,AFNE01.JPG,AFNE01.JPG,,,,,,,,,,,,,,,,,1,0,10,2,,,,,,,AFSA10.jpg,AFNE14.jpg,AFSA13.jpg,AFNE09.jpg,AFSA10.jpg,FS,4,num_8,16,num_8,1.11672472583,,,2017_May_16_1830,59.9955933634,FEMA4ImagesEEG,001,100481,
AFNE01.JPG,AFNE01.JPG,AFNE01.JPG,AFNE01.JPG,AFNE01.JPG,AFNE01.JPG,,,,,,,,,,,,,,,,,1,1,11,4,,,,,,,AFSA11.jpg,AFNE01.jpg,AFSA13.jpg,AFNE05.jpg,AFSA11.jpg,FS,4,num_8,16,num_8,0.866771954679,,,2017_May_16_1830,59.9955933634,FEMA4ImagesEEG,001,100481,
AFNE01.JPG,AFNE01.JPG,AFNE01.JPG,AFNE01.JPG,AFNE01.JPG,AFNE01.JPG,,,,,,,,,,,,,,,,,1,2,12,9,,,,,,,AFNE14.jpg,AFNE18.jpg,AFSA05.jpg,AFSA10.jpg,AFNE18.jpg,FN,3,num_6,32,num_8,0.983127830332,,,2017_May_16_1830,59.9955933634,FEMA4ImagesEEG,001,100481,
AFNE01.JPG,AFNE01.JPG,AFNE01.JPG,AFNE01.JPG,AFNE01.JPG,AFNE01.JPG,,,,,,,,,,,,,,,,,1,3,13,0,,,,,,,AFNE10.jpg,AFNE09.jpg,AFSA15.jpg,AFSA10.jpg,AFSA10.jpg,FS,4,num_4,32,num_6,0.883507168692,,,2017_May_16_1830,59.9955933634,FEMA4ImagesEEG,001,100481,
AFNE01.JPG,AFNE01.JPG,AFNE01.JPG,AFNE01.JPG,AFNE01.JPG,AFNE01.JPG,,,,,,,,,,,,,,,,,1,4,14,6,,,,,,,AFNE01.jpg,AFSA08.jpg,AFNE17.jpg,AFSA20.jpg,AFNE01.jpg,FN,3,num_8,16,num_8,1.06675418573,,,2017_May_16_1830,59.9955933634,FEMA4ImagesEEG,001,100481,
AFNE01.JPG,AFNE01.JPG,AFNE01.JPG,AFNE01.JPG,AFNE01.JPG,AFNE01.JPG,,,,,,,,,,,,,,,,,1,5,15,7,,,,,,,AFSA12.jpg,AFSA03.jpg,AFNE11.jpg,AFNE15.jpg,AFSA12.jpg,FS,4,num_8,16,num_8,1.11674525314,,,2017_May_16_1830,59.9955933634,FEMA4ImagesEEG,001,100481,
AFNE01.JPG,AFNE01.JPG,AFNE01.JPG,AFNE01.JPG,AFNE01.JPG,AFNE01.JPG,,,,,,,,,,,,,,,,,1,6,16,5,,,,,,,AFNE12.jpg,AFNE06.jpg,AFSA20.jpg,AFSA09.jpg,AFNE12.jpg,FN,3,num_8,16,num_8,0.850149320177,,,2017_May_16_1830,59.9955933634,FEMA4ImagesEEG,001,100481,
AFNE01.JPG,AFNE01.JPG,AFNE01.JPG,AFNE01.JPG,AFNE01.JPG,AFNE01.JPG,,,,,,,,,,,,,,,,,1,7,17,1,,,,,,,AFNE04.jpg,AFNE10.jpg,AFSA14.jpg,AFSA06.jpg,AFSA14.jpg,FS,4,num_2,32,num_6,0.783453188269,,,2017_May_16_1830,59.9955933634,FEMA4ImagesEEG,001,100481,
AFNE01.JPG,AFNE01.JPG,AFNE01.JPG,AFNE01.JPG,AFNE01.JPG,AFNE01.JPG,,,,,,,,,,,,,,,,,1,8,18,8,,,,,,,AFSA07.jpg,AFNE14.jpg,AFSA08.jpg,AFNE12.jpg,AFSA07.jpg,FS,4,num_8,32,num_4,0.850157659399,,,2017_May_16_1830,59.9955933634,FEMA4ImagesEEG,001,100481,
AFNE01.JPG,AFNE01.JPG,AFNE01.JPG,AFNE01.JPG,AFNE01.JPG,AFNE01.JPG,,,,,,,,,,,,,,,,,1,9,19,3,,,,,,,AFNE02.jpg,AFSA06.jpg,AFNE15.jpg,AFSA13.jpg,AFSA13.jpg,FS,4,num_4,32,num_8,1.10020953897,,,2017_May_16_1830,59.9955933634,FEMA4ImagesEEG,001,100481,
AFNE01.JPG,AFNE01.JPG,AFNE01.JPG,AFNE01.JPG,AFNE01.JPG,AFNE01.JPG,,,,,,,,,,,,,,,,,2,0,20,1,,,,,,,AFSA14.jpg,AFNE09.jpg,AFNE18.jpg,AFSA15.jpg,AFSA15.jpg,FS,4,num_4,32,num_6,1.1001793895,,,2017_May_16_1830,59.9955933634,FEMA4ImagesEEG,001,100481,
AFNE01.JPG,AFNE01.JPG,AFNE01.JPG,AFNE01.JPG,AFNE01.JPG,AFNE01.JPG,,,,,,,,,,,,,,,,,2,1,21,8,,,,,,,AFNE10.jpg,AFSA08.jpg,AFNE16.jpg,AFSA01.jpg,AFSA01.jpg,FS,4,num_4,32,num_8,0.850124302509,,,2017_May_16_1830,59.9955933634,FEMA4ImagesEEG,001,100481,
AFNE01.JPG,AFNE01.JPG,AFNE01.JPG,AFNE01.JPG,AFNE01.JPG,AFNE01.JPG,,,,,,,,,,,,,,,,,2,2,22,2,,,,,,,AFSA01.jpg,AFSA06.jpg,AFNE06.jpg,AFNE08.jpg,AFNE08.jpg,FN,3,num_4,16,num_4,1.38349032987,,,2017_May_16_1830,59.9955933634,FEMA4ImagesEEG,001,100481,
AFNE01.JPG,AFNE01.JPG,AFNE01.JPG,AFNE01.JPG,AFNE01.JPG,AFNE01.JPG,,,,,,,,,,,,,,,,,2,3,23,4,,,,,,,AFNE07.jpg,AFNE05.jpg,AFSA19.jpg,AFSA13.jpg,AFSA19.jpg,FS,4,num_2,16,num_2,0.850141622432,,,2017_May_16_1830,59.9955933634,FEMA4ImagesEEG,001,100481,
AFNE01.JPG,AFNE01.JPG,AFNE01.JPG,AFNE01.JPG,AFNE01.JPG,AFNE01.JPG,,,,,,,,,,,,,,,,,2,4,24,3,,,,,,,AFSA11.jpg,AFSA02.jpg,AFNE03.jpg,AFNE05.jpg,AFSA02.jpg,FS,4,num_6,16,num_6,1.03344091997,,,2017_May_16_1830,59.9955933634,FEMA4ImagesEEG,001,100481,
AFNE01.JPG,AFNE01.JPG,AFNE01.JPG,AFNE01.JPG,AFNE01.JPG,AFNE01.JPG,,,,,,,,,,,,,,,,,2,5,25,7,,,,,,,AFSA17.jpg,AFSA08.jpg,AFNE09.jpg,AFNE04.jpg,AFNE09.jpg,FN,3,num_2,32,num_6,0.733475912639,,,2017_May_16_1830,59.9955933634,FEMA4ImagesEEG,001,100481,
AFNE01.JPG,AFNE01.JPG,AFNE01.JPG,AFNE01.JPG,AFNE01.JPG,AFNE01.JPG,,,,,,,,,,,,,,,,,2,6,26,9,,,,,,,AFNE05.jpg,AFSA11.jpg,AFSA08.jpg,AFNE11.jpg,AFSA11.jpg,FS,4,num_6,32,num_8,0.966784239004,,,2017_May_16_1830,59.9955933634,FEMA4ImagesEEG,001,100481,
AFNE01.JPG,AFNE01.JPG,AFNE01.JPG,AFNE01.JPG,AFNE01.JPG,AFNE01.JPG,,,,,,,,,,,,,,,,,2,7,27,5,,,,,,,AFNE15.jpg,AFNE10.jpg,AFSA10.jpg,AFSA16.jpg,AFNE10.jpg,FN,3,num_6,16,num_6,0.666750593446,,,2017_May_16_1830,59.9955933634,FEMA4ImagesEEG,001,100481,
AFNE01.JPG,AFNE01.JPG,AFNE01.JPG,AFNE01.JPG,AFNE01.JPG,AFNE01.JPG,,,,,,,,,,,,,,,,,2,8,28,6,,,,,,,AFSA13.jpg,AFNE12.jpg,AFSA12.jpg,AFNE18.jpg,AFSA13.jpg,FS,4,num_8,16,num_8,1.0667548272,,,2017_May_16_1830,59.9955933634,FEMA4ImagesEEG,001,100481,
AFNE01.JPG,AFNE01.JPG,AFNE01.JPG,AFNE01.JPG,AFNE01.JPG,AFNE01.JPG,,,,,,,,,,,,,,,,,2,9,29,0,,,,,,,AFSA06.jpg,AFNE09.jpg,AFSA15.jpg,AFNE11.jpg,AFSA15.jpg,FS,4,num_2,32,num_8,1.2833853519,,,2017_May_16_1830,59.9955933634,FEMA4ImagesEEG,001,100481,
AFNE01.JPG,AFNE01.JPG,AFNE01.JPG,AFNE01.JPG,AFNE01.JPG,AFNE01.JPG,,,,,,,,,,,,,,,,,3,0,30,0,,,,,,,AFNE04.jpg,AFNE18.jpg,AFSA14.jpg,AFSA18.jpg,AFSA18.jpg,FS,4,num_4,32,num_6,0.733461800119,,,2017_May_16_1830,59.9955933634,FEMA4ImagesEEG,001,100481,
AFNE01.JPG,AFNE01.JPG,AFNE01.JPG,AFNE01.JPG,AFNE01.JPG,AFNE01.JPG,,,,,,,,,,,,,,,,,3,1,31,1,,,,,,,AFNE12.jpg,AFSA12.jpg,AFSA15.jpg,AFNE05.jpg,AFNE12.jpg,FN,3,num_8,16,num_8,0.983492190164,,,2017_May_16_1830,59.9955933634,FEMA4ImagesEEG,001,100481,
AFNE01.JPG,AFNE01.JPG,AFNE01.JPG,AFNE01.JPG,AFNE01.JPG,AFNE01.JPG,,,,,,,,,,,,,,,,,3,2,32,6,,,,,,,AFSA17.jpg,AFSA03.jpg,AFNE12.jpg,AFNE14.jpg,AFNE14.jpg,FN,3,num_4,32,num_2,2.6998409454,,,2017_May_16_1830,59.9955933634,FEMA4ImagesEEG,001,100481,
AFNE01.JPG,AFNE01.JPG,AFNE01.JPG,AFNE01.JPG,AFNE01.JPG,AFNE01.JPG,,,,,,,,,,,,,,,,,3,3,33,2,,,,,,,AFNE09.jpg,AFSA15.jpg,AFSA13.jpg,AFNE18.jpg,AFSA13.jpg,FS,4,num_2,16,num_2,0.83343687866,,,2017_May_16_1830,59.9955933634,FEMA4ImagesEEG,001,100481,
AFNE01.JPG,AFNE01.JPG,AFNE01.JPG,AFNE01.JPG,AFNE01.JPG,AFNE01.JPG,,,,,,,,,,,,,,,,,3,4,34,5,,,,,,,AFSA12.jpg,AFNE12.jpg,AFNE04.jpg,AFSA19.jpg,AFSA12.jpg,FS,4,num_8,16,num_8,0.983161187207,,,2017_May_16_1830,59.9955933634,FEMA4ImagesEEG,001,100481,
AFNE01.JPG,AFNE01.JPG,AFNE01.JPG,AFNE01.JPG,AFNE01.JPG,AFNE01.JPG,,,,,,,,,,,,,,,,,3,5,35,8,,,,,,,AFNE20.jpg,AFSA11.jpg,AFNE04.jpg,AFSA06.jpg,AFNE04.jpg,FN,3,num_2,32,num_8,0.933531592978,,,2017_May_16_1830,59.9955933634,FEMA4ImagesEEG,001,100481,
AFNE01.JPG,AFNE01.JPG,AFNE01.JPG,AFNE01.JPG,AFNE01.JPG,AFNE01.JPG,,,,,,,,,,,,,,,,,3,6,36,9,,,,,,,AFSA20.jpg,AFNE18.jpg,AFSA01.jpg,AFNE11.jpg,AFSA20.jpg,FS,4,num_8,32,num_4,1.96671111044,,,2017_May_16_1830,59.9955933634,FEMA4ImagesEEG,001,100481,
AFNE01.JPG,AFNE01.JPG,AFNE01.JPG,AFNE01.JPG,AFNE01.JPG,AFNE01.JPG,,,,,,,,,,,,,,,,,3,7,37,7,,,,,,,AFSA12.jpg,AFSA01.jpg,AFNE19.jpg,AFNE20.jpg,AFNE19.jpg,FN,3,num_2,16,num_2,1.01674194953,,,2017_May_16_1830,59.9955933634,FEMA4ImagesEEG,001,100481,
AFNE01.JPG,AFNE01.JPG,AFNE01.JPG,AFNE01.JPG,AFNE01.JPG,AFNE01.JPG,,,,,,,,,,,,,,,,,3,8,38,4,,,,,,,AFSA10.jpg,AFNE19.jpg,AFNE20.jpg,AFSA13.jpg,AFSA13.jpg,FS,4,num_4,32,num_6,1.35009399265,,,2017_May_16_1830,59.9955933634,FEMA4ImagesEEG,001,100481,
AFNE01.JPG,AFNE01.JPG,AFNE01.JPG,AFNE01.JPG,AFNE01.JPG,AFNE01.JPG,,,,,,,,,,,,,,,,,3,9,39,3,,,,,,,AFSA12.jpg,AFNE09.jpg,AFNE13.jpg,AFSA02.jpg,AFNE09.jpg,FN,3,num_6,32,num_4,1.15015025032,,,2017_May_16_1830,59.9955933634,FEMA4ImagesEEG,001,100481,
AFNE01.JPG,AFNE01.JPG,AFNE01.JPG,AFNE01.JPG,AFNE01.JPG,AFNE01.JPG,,,,,,,,,,,,,,,,,4,0,40,9,,,,,,,AFSA07.jpg,AFNE10.jpg,AFSA02.jpg,AFNE08.jpg,AFNE08.jpg,FN,3,num_4,32,num_8,0.950097777371,,,2017_May_16_1830,59.9955933634,FEMA4ImagesEEG,001,100481,
AFNE01.JPG,AFNE01.JPG,AFNE01.JPG,AFNE01.JPG,AFNE01.JPG,AFNE01.JPG,,,,,,,,,,,,,,,,,4,1,41,4,,,,,,,AFSA16.jpg,AFNE14.jpg,AFSA02.jpg,AFNE04.jpg,AFSA16.jpg,FS,4,num_8,32,num_4,0.983422589736,,,2017_May_16_1830,59.9955933634,FEMA4ImagesEEG,001,100481,
AFNE01.JPG,AFNE01.JPG,AFNE01.JPG,AFNE01.JPG,AFNE01.JPG,AFNE01.JPG,,,,,,,,,,,,,,,,,4,2,42,3,,,,,,,AFNE07.jpg,AFSA13.jpg,AFSA02.jpg,AFNE16.jpg,AFNE07.jpg,FN,3,num_8,32,num_6,0.833454198597,,,2017_May_16_1830,59.9955933634,FEMA4ImagesEEG,001,100481,
AFNE01.JPG,AFNE01.JPG,AFNE01.JPG,AFNE01.JPG,AFNE01.JPG,AFNE01.JPG,,,,,,,,,,,,,,,,,4,3,43,8,,,,,,,AFSA14.jpg,AFNE17.jpg,AFSA02.jpg,AFNE09.jpg,AFSA14.jpg,FS,4,num_8,16,num_8,1.30012505625,,,2017_May_16_1830,59.9955933634,FEMA4ImagesEEG,001,100481,
AFNE01.JPG,AFNE01.JPG,AFNE01.JPG,AFNE01.JPG,AFNE01.JPG,AFNE01.JPG,,,,,,,,,,,,,,,,,4,4,44,5,,,,,,,AFSA10.jpg,AFSA15.jpg,AFNE03.jpg,AFNE07.jpg,AFSA15.jpg,FS,4,num_6,16,num_6,0.483477596528,,,2017_May_16_1830,59.9955933634,FEMA4ImagesEEG,001,100481,
AFNE01.JPG,AFNE01.JPG,AFNE01.JPG,AFNE01.JPG,AFNE01.JPG,AFNE01.JPG,,,,,,,,,,,,,,,,,4,5,45,1,,,,,,,AFNE06.jpg,AFSA15.jpg,AFNE05.jpg,AFSA12.jpg,AFNE06.jpg,FN,3,num_8,16,num_8,1.11674878128,,,2017_May_16_1830,59.9955933634,FEMA4ImagesEEG,001,100481,
AFNE01.JPG,AFNE01.JPG,AFNE01.JPG,AFNE01.JPG,AFNE01.JPG,AFNE01.JPG,,,,,,,,,,,,,,,,,4,6,46,2,,,,,,,AFNE18.jpg,AFNE08.jpg,AFSA05.jpg,AFSA09.jpg,AFNE18.jpg,FN,3,num_8,16,num_8,1.28343250058,,,2017_May_16_1830,59.9955933634,FEMA4ImagesEEG,001,100481,
AFNE01.JPG,AFNE01.JPG,AFNE01.JPG,AFNE01.JPG,AFNE01.JPG,AFNE01.JPG,,,,,,,,,,,,,,,,,4,7,47,0,,,,,,,AFSA12.jpg,AFNE19.jpg,AFSA10.jpg,AFNE07.jpg,AFSA10.jpg,FS,4,num_2,16,num_2,0.816755548876,,,2017_May_16_1830,59.9955933634,FEMA4ImagesEEG,001,100481,
AFNE01.JPG,AFNE01.JPG,AFNE01.JPG,AFNE01.JPG,AFNE01.JPG,AFNE01.JPG,,,,,,,,,,,,,,,,,4,8,48,7,,,,,,,AFNE12.jpg,AFSA17.jpg,AFNE06.jpg,AFSA10.jpg,AFSA17.jpg,FS,4,num_6,16,num_6,0.900100936648,,,2017_May_16_1830,59.9955933634,FEMA4ImagesEEG,001,100481,
AFNE01.JPG,AFNE01.JPG,AFNE01.JPG,AFNE01.JPG,AFNE01.JPG,AFNE01.JPG,,,,,,,,,,,,,,,,,4,9,49,6,,,,,,,AFSA14.jpg,AFNE06.jpg,AFNE04.jpg,AFSA05.jpg,AFSA14.jpg,FS,4,num_8,16,num_8,0.85018684667,,,2017_May_16_1830,59.9955933634,FEMA4ImagesEEG,001,100481,
AFNE01.JPG,AFNE01.JPG,AFNE01.JPG,AFNE01.JPG,AFNE01.JPG,AFNE01.JPG,,,,,,,,,,,,,,,,,5,0,50,5,,,,,,,AFNE02.jpg,AFSA06.jpg,AFSA10.jpg,AFNE03.jpg,AFSA10.jpg,FS,4,num_2,16,num_2,2.19999762652,,,2017_May_16_1830,59.9955933634,FEMA4ImagesEEG,001,100481,
AFNE01.JPG,AFNE01.JPG,AFNE01.JPG,AFNE01.JPG,AFNE01.JPG,AFNE01.JPG,,,,,,,,,,,,,,,,,5,1,51,8,,,,,,,AFSA13.jpg,AFSA12.jpg,AFNE08.jpg,AFNE19.jpg,AFNE08.jpg,FN,3,num_2,32,num_6,1.03345278735,,,2017_May_16_1830,59.9955933634,FEMA4ImagesEEG,001,100481,
AFNE01.JPG,AFNE01.JPG,AFNE01.JPG,AFNE01.JPG,AFNE01.JPG,AFNE01.JPG,,,,,,,,,,,,,,,,,5,2,52,0,,,,,,,AFSA10.jpg,AFNE14.jpg,AFNE08.jpg,AFSA09.jpg,AFNE14.jpg,FN,3,num_6,32,num_8,0.783431698728,,,2017_May_16_1830,59.9955933634,FEMA4ImagesEEG,001,100481,
AFNE01.JPG,AFNE01.JPG,AFNE01.JPG,AFNE01.JPG,AFNE01.JPG,AFNE01.JPG,,,,,,,,,,,,,,,,,5,3,53,7,,,,,,,AFSA01.jpg,AFNE15.jpg,AFSA08.jpg,AFNE16.jpg,AFSA08.jpg,FS,4,num_2,32,num_8,1.08349292785,,,2017_May_16_1830,59.9955933634,FEMA4ImagesEEG,001,100481,
AFNE01.JPG,AFNE01.JPG,AFNE01.JPG,AFNE01.JPG,AFNE01.JPG,AFNE01.JPG,,,,,,,,,,,,,,,,,5,4,54,6,,,,,,,AFNE01.jpg,AFSA05.jpg,AFNE05.jpg,AFSA20.jpg,AFNE01.jpg,FN,3,num_8,16,num_8,0.850162791234,,,2017_May_16_1830,59.9955933634,FEMA4ImagesEEG,001,100481,
AFNE01.JPG,AFNE01.JPG,AFNE01.JPG,AFNE01.JPG,AFNE01.JPG,AFNE01.JPG,,,,,,,,,,,,,,,,,5,5,55,1,,,,,,,AFSA20.jpg,AFNE16.jpg,AFSA04.jpg,AFNE03.jpg,AFNE16.jpg,FN,3,num_6,32,num_4,0.866734748939,,,2017_May_16_1830,59.9955933634,FEMA4ImagesEEG,001,100481,
AFNE01.JPG,AFNE01.JPG,AFNE01.JPG,AFNE01.JPG,AFNE01.JPG,AFNE01.JPG,,,,,,,,,,,,,,,,,5,6,56,2,,,,,,,AFNE15.jpg,AFSA08.jpg,AFNE17.jpg,AFSA13.jpg,AFSA13.jpg,FS,4,num_4,32,num_8,0.733415934403,,,2017_May_16_1830,59.9955933634,FEMA4ImagesEEG,001,100481,
AFNE01.JPG,AFNE01.JPG,AFNE01.JPG,AFNE01.JPG,AFNE01.JPG,AFNE01.JPG,,,,,,,,,,,,,,,,,5,7,57,9,,,,,,,AFNE20.jpg,AFNE02.jpg,AFSA02.jpg,AFSA11.jpg,AFNE02.jpg,FN,3,num_6,32,num_2,0.716770848143,,,2017_May_16_1830,59.9955933634,FEMA4ImagesEEG,001,100481,
AFNE01.JPG,AFNE01.JPG,AFNE01.JPG,AFNE01.JPG,AFNE01.JPG,AFNE01.JPG,,,,,,,,,,,,,,,,,5,8,58,4,,,,,,,AFNE19.jpg,AFNE03.jpg,AFSA04.jpg,AFSA02.jpg,AFSA04.jpg,FS,4,num_2,32,num_8,0.966750882115,,,2017_May_16_1830,59.9955933634,FEMA4ImagesEEG,001,100481,
AFNE01.JPG,AFNE01.JPG,AFNE01.JPG,AFNE01.JPG,AFNE01.JPG,AFNE01.JPG,,,,,,,,,,,,,,,,,5,9,59,3,,,,,,,AFNE09.jpg,AFSA10.jpg,AFSA19.jpg,AFNE11.jpg,AFSA10.jpg,FS,4,num_6,16,num_6,0.750132545523,,,2017_May_16_1830,59.9955933634,FEMA4ImagesEEG,001,100481,
