IPosition2,IPosition3,IPosition1,IPosition6,IPosition4,IPosition5,TrialsF1.thisRepN,TrialsF1.thisTrialN,TrialsF1.thisN,TrialsF1.thisIndex,TrialsM1.thisRepN,TrialsM1.thisTrialN,TrialsM1.thisN,TrialsM1.thisIndex,TrialsF2.thisRepN,TrialsF2.thisTrialN,TrialsF2.thisN,TrialsF2.thisIndex,TrialsM2.thisRepN,TrialsM2.thisTrialN,TrialsM2.thisN,TrialsM2.thisIndex,TrialsF3.thisRepN,TrialsF3.thisTrialN,TrialsF3.thisN,TrialsF3.thisIndex,TrialsM3.thisRepN,TrialsM3.thisTrialN,TrialsM3.thisN,TrialsM3.thisIndex,InstrKey_resp.keys,InstrKey_resp.rt,Image0 _Position,Image1 _Position,Image2 _Position,Image3 _Position,Center_image,condition,code,correct_answer,accuracy,Key_Resp.keys,Key_Resp.rt,BreakKey_resp.keys,BreakKey_resp.rt,date,frameRate,expName,session,participant,
,,,,,,,,,,,,,,,,,,,,,,,,,,,,,,space,86.9102042243,,,,,,,,,,,,,,2017_May_16_1205,59.9877438458,FEMA4ImagesEEG,001,100445,
AMSA25.JPG,AMNE24.JPG,AMSA24.JPG,AMNE26.JPG,AMSA21.JPG,AMNE25.JPG,0,0,0,3,,,,,,,,,,,,,,,,,,,,,,,AFSA20.jpg,AFNE04.jpg,AFSA03.jpg,AFNE12.jpg,AFSA03.jpg,FS,4,num_2,32,num_6,3.78334092951,,,2017_May_16_1205,59.9877438458,FEMA4ImagesEEG,001,100445,
AMNE23.JPG,AMNE24.JPG,AMNE22.JPG,AMSA24.JPG,AMSA22.JPG,AMSA23.JPG,0,1,1,9,,,,,,,,,,,,,,,,,,,,,,,AFNE11.jpg,AFNE06.jpg,AFSA14.jpg,AFSA16.jpg,AFSA14.jpg,FS,4,num_2,32,num_8,1.2667505293,,,2017_May_16_1205,59.9877438458,FEMA4ImagesEEG,001,100445,
AFSA25.JPG,AFNE24.JPG,AFSA24.JPG,AFNE21.JPG,AFSA21.JPG,AFNE25.JPG,0,2,2,2,,,,,,,,,,,,,,,,,,,,,,,AFSA10.jpg,AFNE02.jpg,AFNE09.jpg,AFSA06.jpg,AFNE09.jpg,FN,3,num_2,32,num_8,2.1833740298,,,2017_May_16_1205,59.9877438458,FEMA4ImagesEEG,001,100445,
AMSA21.JPG,AMNE23.JPG,AMNE21.JPG,AMSA25.JPG,AMNE25.JPG,AMSA23.JPG,0,3,3,5,,,,,,,,,,,,,,,,,,,,,,,AFNE10.jpg,AFSA05.jpg,AFSA01.jpg,AFNE06.jpg,AFSA05.jpg,FS,4,num_6,32,num_2,2.79998152542,,,2017_May_16_1205,59.9877438458,FEMA4ImagesEEG,001,100445,
AFSA21.JPG,AFNE22.JPG,AFNE21.JPG,AFSA23.JPG,AFSA22.JPG,AFNE23.JPG,0,4,4,0,,,,,,,,,,,,,,,,,,,,,,,AFSA11.jpg,AFSA03.jpg,AFNE15.jpg,AFNE19.jpg,AFSA11.jpg,FS,4,num_8,16,num_8,1.35011901032,,,2017_May_16_1205,59.9877438458,FEMA4ImagesEEG,001,100445,
AFSA21.JPG,AFNE23.JPG,AFNE21.JPG,AFSA25.JPG,AFNE25.JPG,AFSA23.JPG,0,5,5,4,,,,,,,,,,,,,,,,,,,,,,,AFNE12.jpg,AFNE05.jpg,AFSA12.jpg,AFSA14.jpg,AFSA12.jpg,FS,4,num_2,16,num_2,1.56669500933,,,2017_May_16_1205,59.9877438458,FEMA4ImagesEEG,001,100445,
AFNE23.JPG,AFNE24.JPG,AFNE22.JPG,AFSA24.JPG,AFSA22.JPG,AFSA23.JPG,0,6,6,8,,,,,,,,,,,,,,,,,,,,,,,AFNE16.jpg,AFSA05.jpg,AFNE09.jpg,AFSA19.jpg,AFNE16.jpg,FN,3,num_8,32,num_6,1.11674653609,,,2017_May_16_1205,59.9877438458,FEMA4ImagesEEG,001,100445,
AMSA21.JPG,AMNE22.JPG,AMNE21.JPG,AMSA23.JPG,AMSA22.JPG,AMNE23.JPG,0,7,7,1,,,,,,,,,,,,,,,,,,,,,,,AFSA18.jpg,AFSA10.jpg,AFNE04.jpg,AFNE01.jpg,AFSA10.jpg,FS,4,num_6,16,num_6,1.41659543582,,,2017_May_16_1205,59.9877438458,FEMA4ImagesEEG,001,100445,
AFNE22.JPG,AFSA24.JPG,AFSA22.JPG,AFNE25.JPG,AFNE24.JPG,AFSA25.JPG,0,8,8,6,,,,,,,,,,,,,,,,,,,,,,,AFNE12.jpg,AFSA04.jpg,AFSA10.jpg,AFNE11.jpg,AFSA04.jpg,FS,4,num_6,32,num_2,1.86671229717,,,2017_May_16_1205,59.9877438458,FEMA4ImagesEEG,001,100445,
AMNE22.JPG,AMSA24.JPG,AMSA22.JPG,AMNE25.JPG,AMNE24.JPG,AMSA25.JPG,0,9,9,7,,,,,,,,,,,,,,,,,,,,,,,AFSA16.jpg,AFNE16.jpg,AFNE10.jpg,AFSA15.jpg,AFNE16.jpg,FN,3,num_6,32,num_8,1.26680730016,,,2017_May_16_1205,59.9877438458,FEMA4ImagesEEG,001,100445,
AFSA21.JPG,AFNE23.JPG,AFNE21.JPG,AFSA25.JPG,AFNE25.JPG,AFSA23.JPG,,,,,0,0,0,4,,,,,,,,,,,,,,,,,,,AMNE14.jpg,AMNE09.jpg,AMSA10.jpg,AMSA18.jpg,AMNE14.jpg,MN,1,num_8,16,num_8,0.950086551493,,,2017_May_16_1205,59.9877438458,FEMA4ImagesEEG,001,100445,
AMNE22.JPG,AMSA24.JPG,AMSA22.JPG,AMNE25.JPG,AMNE24.JPG,AMSA25.JPG,,,,,0,1,1,7,,,,,,,,,,,,,,,,,,,AMSA09.jpg,AMNE16.jpg,AMNE15.jpg,AMSA12.jpg,AMNE16.jpg,MN,1,num_6,32,num_8,1.00012284315,,,2017_May_16_1205,59.9877438458,FEMA4ImagesEEG,001,100445,
AFNE23.JPG,AFNE24.JPG,AFNE22.JPG,AFSA24.JPG,AFSA22.JPG,AFSA23.JPG,,,,,0,2,2,8,,,,,,,,,,,,,,,,,,,AMNE08.jpg,AMSA18.jpg,AMSA16.jpg,AMNE16.jpg,AMNE08.jpg,MN,1,num_8,16,num_8,0.983528112956,,,2017_May_16_1205,59.9877438458,FEMA4ImagesEEG,001,100445,
AFSA21.JPG,AFNE22.JPG,AFNE21.JPG,AFSA23.JPG,AFSA22.JPG,AFNE23.JPG,,,,,0,3,3,0,,,,,,,,,,,,,,,,,,,AMNE02.jpg,AMSA05.jpg,AMNE13.jpg,AMSA04.jpg,AMNE13.jpg,MN,1,num_2,16,num_2,1.53346417358,,,2017_May_16_1205,59.9877438458,FEMA4ImagesEEG,001,100445,
AFNE22.JPG,AFSA24.JPG,AFSA22.JPG,AFNE25.JPG,AFNE24.JPG,AFSA25.JPG,,,,,0,4,4,6,,,,,,,,,,,,,,,,,,,AMSA10.jpg,AMNE18.jpg,AMSA11.jpg,AMNE10.jpg,AMSA11.jpg,MS,2,num_2,32,num_6,1.25023726689,,,2017_May_16_1205,59.9877438458,FEMA4ImagesEEG,001,100445,
AMNE23.JPG,AMNE24.JPG,AMNE22.JPG,AMSA24.JPG,AMSA22.JPG,AMSA23.JPG,,,,,0,5,5,9,,,,,,,,,,,,,,,,,,,AMSA08.jpg,AMNE02.jpg,AMSA07.jpg,AMNE09.jpg,AMSA07.jpg,MS,2,num_2,16,num_2,0.866799538264,,,2017_May_16_1205,59.9877438458,FEMA4ImagesEEG,001,100445,
AMSA21.JPG,AMNE23.JPG,AMNE21.JPG,AMSA25.JPG,AMNE25.JPG,AMSA23.JPG,,,,,0,6,6,5,,,,,,,,,,,,,,,,,,,AMNE15.jpg,AMNE01.jpg,AMSA17.jpg,AMSA20.jpg,AMNE01.jpg,MN,1,num_6,16,num_6,0.800168837159,,,2017_May_16_1205,59.9877438458,FEMA4ImagesEEG,001,100445,
AMSA25.JPG,AMNE24.JPG,AMSA24.JPG,AMNE26.JPG,AMSA21.JPG,AMNE25.JPG,,,,,0,7,7,3,,,,,,,,,,,,,,,,,,,AMNE08.jpg,AMNE19.jpg,AMSA03.jpg,AMSA16.jpg,AMSA16.jpg,MS,2,num_4,16,num_4,1.65005611334,,,2017_May_16_1205,59.9877438458,FEMA4ImagesEEG,001,100445,
AMSA21.JPG,AMNE22.JPG,AMNE21.JPG,AMSA23.JPG,AMSA22.JPG,AMNE23.JPG,,,,,0,8,8,1,,,,,,,,,,,,,,,,,,,AMNE02.jpg,AMNE13.jpg,AMSA19.jpg,AMSA11.jpg,AMSA19.jpg,MS,2,num_2,32,num_8,1.30013660287,,,2017_May_16_1205,59.9877438458,FEMA4ImagesEEG,001,100445,
AFSA25.JPG,AFNE24.JPG,AFSA24.JPG,AFNE21.JPG,AFSA21.JPG,AFNE25.JPG,,,,,0,9,9,2,,,,,,,,,,,,,,,,,,,AMNE05.jpg,AMSA04.jpg,AMNE10.jpg,AMSA08.jpg,AMSA04.jpg,MS,2,num_6,32,num_8,2.05003500869,,,2017_May_16_1205,59.9877438458,FEMA4ImagesEEG,001,100445,
AFSA21.JPG,AFNE23.JPG,AFNE21.JPG,AFSA25.JPG,AFNE25.JPG,AFSA23.JPG,,,,,,,,,0,0,0,4,,,,,,,,,,,,,,,AFNE01.jpg,AFSA05.jpg,AFNE07.jpg,AFSA03.jpg,AFSA05.jpg,FS,4,num_6,16,num_6,0.783466659312,,,2017_May_16_1205,59.9877438458,FEMA4ImagesEEG,001,100445,
AFSA21.JPG,AFNE22.JPG,AFNE21.JPG,AFSA23.JPG,AFSA22.JPG,AFNE23.JPG,,,,,,,,,0,1,1,0,,,,,,,,,,,,,,,AFNE13.jpg,AFSA06.jpg,AFNE08.jpg,AFSA12.jpg,AFSA06.jpg,FS,4,num_6,16,num_6,0.999832894835,,,2017_May_16_1205,59.9877438458,FEMA4ImagesEEG,001,100445,
AMNE23.JPG,AMNE24.JPG,AMNE22.JPG,AMSA24.JPG,AMSA22.JPG,AMSA23.JPG,,,,,,,,,0,2,2,9,,,,,,,,,,,,,,,AFSA13.jpg,AFNE18.jpg,AFSA20.jpg,AFNE16.jpg,AFNE16.jpg,FN,3,num_4,16,num_4,1.16673728277,,,2017_May_16_1205,59.9877438458,FEMA4ImagesEEG,001,100445,
AFNE23.JPG,AFNE24.JPG,AFNE22.JPG,AFSA24.JPG,AFSA22.JPG,AFSA23.JPG,,,,,,,,,0,3,3,8,,,,,,,,,,,,,,,AFNE16.jpg,AFNE19.jpg,AFSA02.jpg,AFSA08.jpg,AFNE19.jpg,FN,3,num_6,16,num_6,1.18342791401,,,2017_May_16_1205,59.9877438458,FEMA4ImagesEEG,001,100445,
AFSA25.JPG,AFNE24.JPG,AFSA24.JPG,AFNE21.JPG,AFSA21.JPG,AFNE25.JPG,,,,,,,,,0,4,4,2,,,,,,,,,,,,,,,AFSA06.jpg,AFNE10.jpg,AFNE17.jpg,AFSA07.jpg,AFNE17.jpg,FN,3,num_2,16,num_2,1.00040958408,,,2017_May_16_1205,59.9877438458,FEMA4ImagesEEG,001,100445,
AMSA21.JPG,AMNE22.JPG,AMNE21.JPG,AMSA23.JPG,AMSA22.JPG,AMNE23.JPG,,,,,,,,,0,5,5,1,,,,,,,,,,,,,,,AFSA03.jpg,AFSA12.jpg,AFNE04.jpg,AFNE16.jpg,AFSA03.jpg,FS,4,num_8,32,num_6,0.900164763771,,,2017_May_16_1205,59.9877438458,FEMA4ImagesEEG,001,100445,
AFNE22.JPG,AFSA24.JPG,AFSA22.JPG,AFNE25.JPG,AFNE24.JPG,AFSA25.JPG,,,,,,,,,0,6,6,6,,,,,,,,,,,,,,,AFSA20.jpg,AFSA14.jpg,AFNE12.jpg,AFNE06.jpg,AFNE06.jpg,FN,3,num_4,32,num_6,1.01674996801,,,2017_May_16_1205,59.9877438458,FEMA4ImagesEEG,001,100445,
AMSA21.JPG,AMNE23.JPG,AMNE21.JPG,AMSA25.JPG,AMNE25.JPG,AMSA23.JPG,,,,,,,,,0,7,7,5,,,,,,,,,,,,,,,AFSA04.jpg,AFNE14.jpg,AFSA20.jpg,AFNE03.jpg,AFNE03.jpg,FN,3,num_4,32,num_6,1.30009875563,,,2017_May_16_1205,59.9877438458,FEMA4ImagesEEG,001,100445,
AMSA25.JPG,AMNE24.JPG,AMSA24.JPG,AMNE26.JPG,AMSA21.JPG,AMNE25.JPG,,,,,,,,,0,8,8,3,,,,,,,,,,,,,,,AFSA17.jpg,AFSA01.jpg,AFNE11.jpg,AFNE04.jpg,AFNE11.jpg,FN,3,num_2,32,num_4,0.766796876123,,,2017_May_16_1205,59.9877438458,FEMA4ImagesEEG,001,100445,
AMNE22.JPG,AMSA24.JPG,AMSA22.JPG,AMNE25.JPG,AMNE24.JPG,AMSA25.JPG,,,,,,,,,0,9,9,7,,,,,,,,,,,,,,,AFSA08.jpg,AFSA01.jpg,AFNE02.jpg,AFNE04.jpg,AFSA08.jpg,FS,4,num_8,32,num_6,1.300065078,,,2017_May_16_1205,59.9877438458,FEMA4ImagesEEG,001,100445,
AFNE23.JPG,AFNE24.JPG,AFNE22.JPG,AFSA24.JPG,AFSA22.JPG,AFSA23.JPG,,,,,,,,,,,,,0,0,0,8,,,,,,,,,,,AMSA01.jpg,AMNE05.jpg,AMSA11.jpg,AMNE14.jpg,AMNE05.jpg,MN,1,num_6,16,num_6,0.733476874862,,,2017_May_16_1205,59.9877438458,FEMA4ImagesEEG,001,100445,
AFSA21.JPG,AFNE23.JPG,AFNE21.JPG,AFSA25.JPG,AFNE25.JPG,AFSA23.JPG,,,,,,,,,,,,,0,1,1,4,,,,,,,,,,,AMNE14.jpg,AMSA04.jpg,AMNE20.jpg,AMSA03.jpg,AMSA04.jpg,MS,2,num_6,16,num_6,0.883458737051,,,2017_May_16_1205,59.9877438458,FEMA4ImagesEEG,001,100445,
AMNE23.JPG,AMNE24.JPG,AMNE22.JPG,AMSA24.JPG,AMSA22.JPG,AMSA23.JPG,,,,,,,,,,,,,0,2,2,9,,,,,,,,,,,AMNE18.jpg,AMNE06.jpg,AMSA18.jpg,AMSA13.jpg,AMNE06.jpg,MN,1,num_6,16,num_6,0.699907979899,,,2017_May_16_1205,59.9877438458,FEMA4ImagesEEG,001,100445,
AFSA25.JPG,AFNE24.JPG,AFSA24.JPG,AFNE21.JPG,AFSA21.JPG,AFNE25.JPG,,,,,,,,,,,,,0,3,3,2,,,,,,,,,,,AMNE16.jpg,AMSA13.jpg,AMNE14.jpg,AMSA02.jpg,AMSA13.jpg,MS,2,num_6,16,num_6,1.15007840472,,,2017_May_16_1205,59.9877438458,FEMA4ImagesEEG,001,100445,
AFSA21.JPG,AFNE22.JPG,AFNE21.JPG,AFSA23.JPG,AFSA22.JPG,AFNE23.JPG,,,,,,,,,,,,,0,4,4,0,,,,,,,,,,,AMNE06.jpg,AMNE12.jpg,AMSA11.jpg,AMSA16.jpg,AMNE12.jpg,MN,1,num_6,32,num_8,1.31677751951,,,2017_May_16_1205,59.9877438458,FEMA4ImagesEEG,001,100445,
AMSA21.JPG,AMNE23.JPG,AMNE21.JPG,AMSA25.JPG,AMNE25.JPG,AMSA23.JPG,,,,,,,,,,,,,0,5,5,5,,,,,,,,,,,AMNE13.jpg,AMNE02.jpg,AMSA19.jpg,AMSA10.jpg,AMSA19.jpg,MS,2,num_2,32,num_6,1.2836653573,,,2017_May_16_1205,59.9877438458,FEMA4ImagesEEG,001,100445,
AFNE22.JPG,AFSA24.JPG,AFSA22.JPG,AFNE25.JPG,AFNE24.JPG,AFSA25.JPG,,,,,,,,,,,,,0,6,6,6,,,,,,,,,,,AMNE12.jpg,AMNE02.jpg,AMSA06.jpg,AMSA05.jpg,AMNE12.jpg,MN,1,num_8,16,num_8,1.00001090514,,,2017_May_16_1205,59.9877438458,FEMA4ImagesEEG,001,100445,
AMSA25.JPG,AMNE24.JPG,AMSA24.JPG,AMNE26.JPG,AMSA21.JPG,AMNE25.JPG,,,,,,,,,,,,,0,7,7,3,,,,,,,,,,,AMSA19.jpg,AMNE10.jpg,AMNE05.jpg,AMSA10.jpg,AMSA19.jpg,MS,2,num_8,16,num_8,0.966805087053,,,2017_May_16_1205,59.9877438458,FEMA4ImagesEEG,001,100445,
AMSA21.JPG,AMNE22.JPG,AMNE21.JPG,AMSA23.JPG,AMSA22.JPG,AMNE23.JPG,,,,,,,,,,,,,0,8,8,1,,,,,,,,,,,AMNE19.jpg,AMNE05.jpg,AMSA13.jpg,AMSA14.jpg,AMNE19.jpg,MN,1,num_8,16,num_8,1.01676408054,,,2017_May_16_1205,59.9877438458,FEMA4ImagesEEG,001,100445,
AMNE22.JPG,AMSA24.JPG,AMSA22.JPG,AMNE25.JPG,AMNE24.JPG,AMSA25.JPG,,,,,,,,,,,,,0,9,9,7,,,,,,,,,,,AMNE05.jpg,AMNE15.jpg,AMSA10.jpg,AMSA13.jpg,AMSA10.jpg,MS,2,num_2,16,num_2,1.46675328766,,,2017_May_16_1205,59.9877438458,FEMA4ImagesEEG,001,100445,
AMNE22.JPG,AMSA24.JPG,AMSA22.JPG,AMNE25.JPG,AMNE24.JPG,AMSA25.JPG,,,,,,,,,,,,,,,,,0,0,0,7,,,,,,,AFSA08.jpg,AFNE06.jpg,AFNE10.jpg,AFSA05.jpg,AFSA08.jpg,FS,4,num_8,16,num_8,0.716787847312,,,2017_May_16_1205,59.9877438458,FEMA4ImagesEEG,001,100445,
AFSA21.JPG,AFNE22.JPG,AFNE21.JPG,AFSA23.JPG,AFSA22.JPG,AFNE23.JPG,,,,,,,,,,,,,,,,,0,1,1,0,,,,,,,AFNE19.jpg,AFNE16.jpg,AFSA12.jpg,AFSA18.jpg,AFSA12.jpg,FS,4,num_2,16,num_2,1.33341105916,,,2017_May_16_1205,59.9877438458,FEMA4ImagesEEG,001,100445,
AMNE23.JPG,AMNE24.JPG,AMNE22.JPG,AMSA24.JPG,AMSA22.JPG,AMSA23.JPG,,,,,,,,,,,,,,,,,0,2,2,9,,,,,,,AFNE03.jpg,AFNE11.jpg,AFSA01.jpg,AFSA09.jpg,AFSA01.jpg,FS,4,num_2,16,num_2,1.40009051262,,,2017_May_16_1205,59.9877438458,FEMA4ImagesEEG,001,100445,
AFNE22.JPG,AFSA24.JPG,AFSA22.JPG,AFNE25.JPG,AFNE24.JPG,AFSA25.JPG,,,,,,,,,,,,,,,,,0,3,3,6,,,,,,,AFNE07.jpg,AFNE15.jpg,AFSA07.jpg,AFSA12.jpg,AFNE07.jpg,FN,3,num_8,32,num_2,1.98333310348,,,2017_May_16_1205,59.9877438458,FEMA4ImagesEEG,001,100445,
AMSA25.JPG,AMNE24.JPG,AMSA24.JPG,AMNE26.JPG,AMSA21.JPG,AMNE25.JPG,,,,,,,,,,,,,,,,,0,4,4,3,,,,,,,AFNE15.jpg,AFNE14.jpg,AFSA08.jpg,AFSA19.jpg,AFSA19.jpg,FS,4,num_4,16,num_4,1.23344143316,,,2017_May_16_1205,59.9877438458,FEMA4ImagesEEG,001,100445,
AMSA21.JPG,AMNE22.JPG,AMNE21.JPG,AMSA23.JPG,AMSA22.JPG,AMNE23.JPG,,,,,,,,,,,,,,,,,0,5,5,1,,,,,,,AFSA20.jpg,AFNE10.jpg,AFSA01.jpg,AFNE03.jpg,AFSA20.jpg,FS,4,num_8,16,num_8,0.950118625427,,,2017_May_16_1205,59.9877438458,FEMA4ImagesEEG,001,100445,
AMSA21.JPG,AMNE23.JPG,AMNE21.JPG,AMSA25.JPG,AMNE25.JPG,AMSA23.JPG,,,,,,,,,,,,,,,,,0,6,6,5,,,,,,,AFSA18.jpg,AFNE17.jpg,AFSA20.jpg,AFNE11.jpg,AFNE11.jpg,FN,3,num_4,16,num_4,0.93345493629,,,2017_May_16_1205,59.9877438458,FEMA4ImagesEEG,001,100445,
AFSA25.JPG,AFNE24.JPG,AFSA24.JPG,AFNE21.JPG,AFSA21.JPG,AFNE25.JPG,,,,,,,,,,,,,,,,,0,7,7,2,,,,,,,AFNE12.jpg,AFSA11.jpg,AFNE17.jpg,AFSA06.jpg,AFSA11.jpg,FS,4,num_6,16,num_6,0.750188033409,,,2017_May_16_1205,59.9877438458,FEMA4ImagesEEG,001,100445,
AFNE23.JPG,AFNE24.JPG,AFNE22.JPG,AFSA24.JPG,AFSA22.JPG,AFSA23.JPG,,,,,,,,,,,,,,,,,0,8,8,8,,,,,,,AFSA16.jpg,AFNE03.jpg,AFSA12.jpg,AFNE04.jpg,AFNE03.jpg,FN,3,num_6,32,num_4,2.35015108424,,,2017_May_16_1205,59.9877438458,FEMA4ImagesEEG,001,100445,
AFSA21.JPG,AFNE23.JPG,AFNE21.JPG,AFSA25.JPG,AFNE25.JPG,AFSA23.JPG,,,,,,,,,,,,,,,,,0,9,9,4,,,,,,,AFNE12.jpg,AFSA16.jpg,AFSA20.jpg,AFNE18.jpg,AFSA20.jpg,FS,4,num_2,32,num_4,0.833494291001,,,2017_May_16_1205,59.9877438458,FEMA4ImagesEEG,001,100445,
AFNE22.JPG,AFSA24.JPG,AFSA22.JPG,AFNE25.JPG,AFNE24.JPG,AFSA25.JPG,,,,,,,,,,,,,,,,,,,,,0,0,0,6,,,AMSA03.jpg,AMSA05.jpg,AMNE16.jpg,AMNE13.jpg,AMNE16.jpg,MN,1,num_2,16,num_2,1.53341542121,,,2017_May_16_1205,59.9877438458,FEMA4ImagesEEG,001,100445,
AFSA21.JPG,AFNE23.JPG,AFNE21.JPG,AFSA25.JPG,AFNE25.JPG,AFSA23.JPG,,,,,,,,,,,,,,,,,,,,,0,1,1,4,,,AMSA08.jpg,AMSA13.jpg,AMNE20.jpg,AMNE05.jpg,AMSA13.jpg,MS,2,num_6,32,num_2,1.21670589843,,,2017_May_16_1205,59.9877438458,FEMA4ImagesEEG,001,100445,
AFSA25.JPG,AFNE24.JPG,AFSA24.JPG,AFNE21.JPG,AFSA21.JPG,AFNE25.JPG,,,,,,,,,,,,,,,,,,,,,0,2,2,2,,,AMNE09.jpg,AMSA12.jpg,AMSA13.jpg,AMNE08.jpg,AMNE09.jpg,MN,1,num_8,16,num_8,1.33323272811,,,2017_May_16_1205,59.9877438458,FEMA4ImagesEEG,001,100445,
AMSA21.JPG,AMNE23.JPG,AMNE21.JPG,AMSA25.JPG,AMNE25.JPG,AMSA23.JPG,,,,,,,,,,,,,,,,,,,,,0,3,3,5,,,AMNE05.jpg,AMSA01.jpg,AMSA19.jpg,AMNE01.jpg,AMSA19.jpg,MS,2,num_2,16,num_2,0.933170119803,,,2017_May_16_1205,59.9877438458,FEMA4ImagesEEG,001,100445,
AMSA25.JPG,AMNE24.JPG,AMSA24.JPG,AMNE26.JPG,AMSA21.JPG,AMNE25.JPG,,,,,,,,,,,,,,,,,,,,,0,4,4,3,,,AMNE14.jpg,AMNE18.jpg,AMSA04.jpg,AMSA17.jpg,AMSA17.jpg,MS,2,num_4,16,num_4,1.06678946706,,,2017_May_16_1205,59.9877438458,FEMA4ImagesEEG,001,100445,
AMSA21.JPG,AMNE22.JPG,AMNE21.JPG,AMSA23.JPG,AMSA22.JPG,AMNE23.JPG,,,,,,,,,,,,,,,,,,,,,0,5,5,1,,,AMSA02.jpg,AMNE04.jpg,AMNE09.jpg,AMSA15.jpg,AMSA02.jpg,MS,2,num_8,32,num_6,0.850154131265,,,2017_May_16_1205,59.9877438458,FEMA4ImagesEEG,001,100445,
AMNE23.JPG,AMNE24.JPG,AMNE22.JPG,AMSA24.JPG,AMSA22.JPG,AMSA23.JPG,,,,,,,,,,,,,,,,,,,,,0,6,6,9,,,AMSA16.jpg,AMNE12.jpg,AMSA15.jpg,AMNE01.jpg,AMSA15.jpg,MS,2,num_2,32,num_8,1.04998208671,,,2017_May_16_1205,59.9877438458,FEMA4ImagesEEG,001,100445,
AMNE22.JPG,AMSA24.JPG,AMSA22.JPG,AMNE25.JPG,AMNE24.JPG,AMSA25.JPG,,,,,,,,,,,,,,,,,,,,,0,7,7,7,,,AMNE09.jpg,AMSA08.jpg,AMNE04.jpg,AMSA16.jpg,AMNE09.jpg,MN,1,num_8,32,num_6,0.766775386597,,,2017_May_16_1205,59.9877438458,FEMA4ImagesEEG,001,100445,
AFNE23.JPG,AFNE24.JPG,AFNE22.JPG,AFSA24.JPG,AFSA22.JPG,AFSA23.JPG,,,,,,,,,,,,,,,,,,,,,0,8,8,8,,,AMNE05.jpg,AMNE07.jpg,AMSA11.jpg,AMSA09.jpg,AMNE07.jpg,MN,1,num_6,16,num_6,0.950105475116,,,2017_May_16_1205,59.9877438458,FEMA4ImagesEEG,001,100445,
AFSA21.JPG,AFNE22.JPG,AFNE21.JPG,AFSA23.JPG,AFSA22.JPG,AFNE23.JPG,,,,,,,,,,,,,,,,,,,,,0,9,9,0,,,AMSA12.jpg,AMNE12.jpg,AMSA15.jpg,AMNE02.jpg,AMSA15.jpg,MS,2,num_2,16,num_2,0.966734845148,,,2017_May_16_1205,59.9877438458,FEMA4ImagesEEG,001,100445,
,,,,,,,,,,,,,,,,,,,,,,,,,,,,,,,,,,,,,,,,,,,space,11.1325814349,2017_May_16_1205,59.9877438458,FEMA4ImagesEEG,001,100445,
AFNE01.JPG,AFNE01.JPG,AFNE01.JPG,AFNE01.JPG,AFNE01.JPG,AFNE01.JPG,0,0,0,1,,,,,,,,,,,,,,,,,,,,,,,AFNE14.jpg,AFSA16.jpg,AFNE04.jpg,AFSA04.jpg,AFSA16.jpg,FS,4,num_6,32,num_2,2.84996842322,,,2017_May_16_1205,59.9877438458,FEMA4ImagesEEG,001,100445,
AFNE01.JPG,AFNE01.JPG,AFNE01.JPG,AFNE01.JPG,AFNE01.JPG,AFNE01.JPG,0,1,1,0,,,,,,,,,,,,,,,,,,,,,,,AFNE04.jpg,AFSA06.jpg,AFSA04.jpg,AFNE08.jpg,AFNE08.jpg,FN,3,num_4,16,num_4,0.816810395285,,,2017_May_16_1205,59.9877438458,FEMA4ImagesEEG,001,100445,
AFNE01.JPG,AFNE01.JPG,AFNE01.JPG,AFNE01.JPG,AFNE01.JPG,AFNE01.JPG,0,2,2,8,,,,,,,,,,,,,,,,,,,,,,,AFSA06.jpg,AFNE11.jpg,AFNE05.jpg,AFSA17.jpg,AFNE05.jpg,FN,3,num_2,32,num_8,1.06687029335,,,2017_May_16_1205,59.9877438458,FEMA4ImagesEEG,001,100445,
AFNE01.JPG,AFNE01.JPG,AFNE01.JPG,AFNE01.JPG,AFNE01.JPG,AFNE01.JPG,0,3,3,4,,,,,,,,,,,,,,,,,,,,,,,AFSA16.jpg,AFNE11.jpg,AFSA12.jpg,AFNE02.jpg,AFSA12.jpg,FS,4,num_2,16,num_2,0.466816473301,,,2017_May_16_1205,59.9877438458,FEMA4ImagesEEG,001,100445,
AFNE01.JPG,AFNE01.JPG,AFNE01.JPG,AFNE01.JPG,AFNE01.JPG,AFNE01.JPG,0,4,4,5,,,,,,,,,,,,,,,,,,,,,,,AFNE17.jpg,AFSA19.jpg,AFNE01.jpg,AFSA04.jpg,AFNE17.jpg,FN,3,num_8,32,num_6,1.31677527433,,,2017_May_16_1205,59.9877438458,FEMA4ImagesEEG,001,100445,
AFNE01.JPG,AFNE01.JPG,AFNE01.JPG,AFNE01.JPG,AFNE01.JPG,AFNE01.JPG,0,5,5,6,,,,,,,,,,,,,,,,,,,,,,,AFNE20.jpg,AFSA12.jpg,AFSA02.jpg,AFNE03.jpg,AFNE20.jpg,FN,3,num_8,16,num_8,1.11680555213,,,2017_May_16_1205,59.9877438458,FEMA4ImagesEEG,001,100445,
AFNE01.JPG,AFNE01.JPG,AFNE01.JPG,AFNE01.JPG,AFNE01.JPG,AFNE01.JPG,0,6,6,3,,,,,,,,,,,,,,,,,,,,,,,AFNE14.jpg,AFSA08.jpg,AFSA12.jpg,AFNE07.jpg,AFNE07.jpg,FN,3,num_4,32,num_8,1.60015517367,,,2017_May_16_1205,59.9877438458,FEMA4ImagesEEG,001,100445,
AFNE01.JPG,AFNE01.JPG,AFNE01.JPG,AFNE01.JPG,AFNE01.JPG,AFNE01.JPG,0,7,7,7,,,,,,,,,,,,,,,,,,,,,,,AFNE13.jpg,AFNE12.jpg,AFSA14.jpg,AFSA13.jpg,AFNE12.jpg,FN,3,num_6,32,num_4,0.966641830753,,,2017_May_16_1205,59.9877438458,FEMA4ImagesEEG,001,100445,
AFNE01.JPG,AFNE01.JPG,AFNE01.JPG,AFNE01.JPG,AFNE01.JPG,AFNE01.JPG,0,8,8,2,,,,,,,,,,,,,,,,,,,,,,,AFSA19.jpg,AFNE19.jpg,AFNE17.jpg,AFSA13.jpg,AFSA19.jpg,FS,4,num_8,32,num_2,0.783456395649,,,2017_May_16_1205,59.9877438458,FEMA4ImagesEEG,001,100445,
AFNE01.JPG,AFNE01.JPG,AFNE01.JPG,AFNE01.JPG,AFNE01.JPG,AFNE01.JPG,0,9,9,9,,,,,,,,,,,,,,,,,,,,,,,AFSA13.jpg,AFNE13.jpg,AFNE06.jpg,AFSA11.jpg,AFNE06.jpg,FN,3,num_2,32,num_8,1.71664030724,,,2017_May_16_1205,59.9877438458,FEMA4ImagesEEG,001,100445,
AFNE01.JPG,AFNE01.JPG,AFNE01.JPG,AFNE01.JPG,AFNE01.JPG,AFNE01.JPG,1,0,10,4,,,,,,,,,,,,,,,,,,,,,,,AFNE03.jpg,AFSA17.jpg,AFSA10.jpg,AFNE08.jpg,AFSA17.jpg,FS,4,num_6,16,num_6,0.650136939643,,,2017_May_16_1205,59.9877438458,FEMA4ImagesEEG,001,100445,
AFNE01.JPG,AFNE01.JPG,AFNE01.JPG,AFNE01.JPG,AFNE01.JPG,AFNE01.JPG,1,1,11,6,,,,,,,,,,,,,,,,,,,,,,,AFNE01.jpg,AFNE06.jpg,AFSA13.jpg,AFSA15.jpg,AFSA13.jpg,FS,4,num_2,32,num_8,1.11716927048,,,2017_May_16_1205,59.9877438458,FEMA4ImagesEEG,001,100445,
AFNE01.JPG,AFNE01.JPG,AFNE01.JPG,AFNE01.JPG,AFNE01.JPG,AFNE01.JPG,1,2,12,7,,,,,,,,,,,,,,,,,,,,,,,AFNE14.jpg,AFSA01.jpg,AFNE03.jpg,AFSA02.jpg,AFNE14.jpg,FN,3,num_8,16,num_8,1.34965137242,,,2017_May_16_1205,59.9877438458,FEMA4ImagesEEG,001,100445,
AFNE01.JPG,AFNE01.JPG,AFNE01.JPG,AFNE01.JPG,AFNE01.JPG,AFNE01.JPG,1,3,13,0,,,,,,,,,,,,,,,,,,,,,,,AFSA16.jpg,AFNE02.jpg,AFNE09.jpg,AFSA03.jpg,AFSA16.jpg,FS,4,num_8,32,num_4,0.750111055982,,,2017_May_16_1205,59.9877438458,FEMA4ImagesEEG,001,100445,
AFNE01.JPG,AFNE01.JPG,AFNE01.JPG,AFNE01.JPG,AFNE01.JPG,AFNE01.JPG,1,4,14,1,,,,,,,,,,,,,,,,,,,,,,,AFNE10.jpg,AFSA05.jpg,AFSA01.jpg,AFNE19.jpg,AFNE19.jpg,FN,3,num_4,32,num_2,1.00010712692,,,2017_May_16_1205,59.9877438458,FEMA4ImagesEEG,001,100445,
AFNE01.JPG,AFNE01.JPG,AFNE01.JPG,AFNE01.JPG,AFNE01.JPG,AFNE01.JPG,1,5,15,5,,,,,,,,,,,,,,,,,,,,,,,AFNE11.jpg,AFSA02.jpg,AFNE06.jpg,AFSA09.jpg,AFNE11.jpg,FN,3,num_8,16,num_8,0.916766870963,,,2017_May_16_1205,59.9877438458,FEMA4ImagesEEG,001,100445,
AFNE01.JPG,AFNE01.JPG,AFNE01.JPG,AFNE01.JPG,AFNE01.JPG,AFNE01.JPG,1,6,16,3,,,,,,,,,,,,,,,,,,,,,,,AFSA04.jpg,AFSA09.jpg,AFNE11.jpg,AFNE15.jpg,AFNE15.jpg,FN,3,num_4,32,num_8,1.15010085647,,,2017_May_16_1205,59.9877438458,FEMA4ImagesEEG,001,100445,
AFNE01.JPG,AFNE01.JPG,AFNE01.JPG,AFNE01.JPG,AFNE01.JPG,AFNE01.JPG,1,7,17,9,,,,,,,,,,,,,,,,,,,,,,,AFSA12.jpg,AFNE18.jpg,AFNE16.jpg,AFSA10.jpg,AFNE16.jpg,FN,3,num_2,32,num_4,0.800156007594,,,2017_May_16_1205,59.9877438458,FEMA4ImagesEEG,001,100445,
AFNE01.JPG,AFNE01.JPG,AFNE01.JPG,AFNE01.JPG,AFNE01.JPG,AFNE01.JPG,1,8,18,2,,,,,,,,,,,,,,,,,,,,,,,AFSA16.jpg,AFSA09.jpg,AFNE19.jpg,AFNE02.jpg,AFSA16.jpg,FS,4,num_8,32,num_6,0.883517432347,,,2017_May_16_1205,59.9877438458,FEMA4ImagesEEG,001,100445,
AFNE01.JPG,AFNE01.JPG,AFNE01.JPG,AFNE01.JPG,AFNE01.JPG,AFNE01.JPG,1,9,19,8,,,,,,,,,,,,,,,,,,,,,,,AFSA19.jpg,AFSA12.jpg,AFNE05.jpg,AFNE15.jpg,AFSA19.jpg,FS,4,num_8,32,num_2,1.80011302853,,,2017_May_16_1205,59.9877438458,FEMA4ImagesEEG,001,100445,
AFNE01.JPG,AFNE01.JPG,AFNE01.JPG,AFNE01.JPG,AFNE01.JPG,AFNE01.JPG,2,0,20,3,,,,,,,,,,,,,,,,,,,,,,,AFNE17.jpg,AFNE10.jpg,AFSA02.jpg,AFSA16.jpg,AFSA16.jpg,FS,4,num_4,16,num_4,1.0167785138,,,2017_May_16_1205,59.9877438458,FEMA4ImagesEEG,001,100445,
AFNE01.JPG,AFNE01.JPG,AFNE01.JPG,AFNE01.JPG,AFNE01.JPG,AFNE01.JPG,2,1,21,4,,,,,,,,,,,,,,,,,,,,,,,AFNE13.jpg,AFNE12.jpg,AFSA04.jpg,AFSA16.jpg,AFSA16.jpg,FS,4,num_4,16,num_4,0.700162646892,,,2017_May_16_1205,59.9877438458,FEMA4ImagesEEG,001,100445,
AFNE01.JPG,AFNE01.JPG,AFNE01.JPG,AFNE01.JPG,AFNE01.JPG,AFNE01.JPG,2,2,22,7,,,,,,,,,,,,,,,,,,,,,,,AFSA17.jpg,AFNE09.jpg,AFNE16.jpg,AFSA09.jpg,AFSA09.jpg,FS,4,num_4,16,num_4,1.45017876404,,,2017_May_16_1205,59.9877438458,FEMA4ImagesEEG,001,100445,
AFNE01.JPG,AFNE01.JPG,AFNE01.JPG,AFNE01.JPG,AFNE01.JPG,AFNE01.JPG,2,3,23,8,,,,,,,,,,,,,,,,,,,,,,,AFNE08.jpg,AFNE14.jpg,AFSA09.jpg,AFSA05.jpg,AFNE14.jpg,FN,3,num_6,16,num_6,0.716560763896,,,2017_May_16_1205,59.9877438458,FEMA4ImagesEEG,001,100445,
AFNE01.JPG,AFNE01.JPG,AFNE01.JPG,AFNE01.JPG,AFNE01.JPG,AFNE01.JPG,2,4,24,9,,,,,,,,,,,,,,,,,,,,,,,AFNE02.jpg,AFSA18.jpg,AFNE11.jpg,AFSA09.jpg,AFNE11.jpg,FN,3,num_2,32,num_8,0.583499503016,,,2017_May_16_1205,59.9877438458,FEMA4ImagesEEG,001,100445,
AFNE01.JPG,AFNE01.JPG,AFNE01.JPG,AFNE01.JPG,AFNE01.JPG,AFNE01.JPG,2,5,25,2,,,,,,,,,,,,,,,,,,,,,,,AFSA12.jpg,AFNE16.jpg,AFNE17.jpg,AFSA03.jpg,AFSA03.jpg,FS,4,num_4,32,num_2,0.666809930211,,,2017_May_16_1205,59.9877438458,FEMA4ImagesEEG,001,100445,
AFNE01.JPG,AFNE01.JPG,AFNE01.JPG,AFNE01.JPG,AFNE01.JPG,AFNE01.JPG,2,6,26,0,,,,,,,,,,,,,,,,,,,,,,,AFSA12.jpg,AFNE05.jpg,AFNE04.jpg,AFSA10.jpg,AFSA12.jpg,FS,4,num_8,16,num_8,2.0836491279,,,2017_May_16_1205,59.9877438458,FEMA4ImagesEEG,001,100445,
AFNE01.JPG,AFNE01.JPG,AFNE01.JPG,AFNE01.JPG,AFNE01.JPG,AFNE01.JPG,2,7,27,1,,,,,,,,,,,,,,,,,,,,,,,AFNE09.jpg,AFSA03.jpg,AFSA16.jpg,AFNE19.jpg,AFSA16.jpg,FS,4,num_2,32,num_4,0.916765908747,,,2017_May_16_1205,59.9877438458,FEMA4ImagesEEG,001,100445,
AFNE01.JPG,AFNE01.JPG,AFNE01.JPG,AFNE01.JPG,AFNE01.JPG,AFNE01.JPG,2,8,28,6,,,,,,,,,,,,,,,,,,,,,,,AFSA07.jpg,AFNE13.jpg,AFSA18.jpg,AFNE07.jpg,AFNE07.jpg,FN,3,num_4,32,num_6,1.25010608452,,,2017_May_16_1205,59.9877438458,FEMA4ImagesEEG,001,100445,
AFNE01.JPG,AFNE01.JPG,AFNE01.JPG,AFNE01.JPG,AFNE01.JPG,AFNE01.JPG,2,9,29,5,,,,,,,,,,,,,,,,,,,,,,,AFSA15.jpg,AFNE19.jpg,AFSA14.jpg,AFNE04.jpg,AFSA14.jpg,FS,4,num_2,32,num_4,0.966732279237,,,2017_May_16_1205,59.9877438458,FEMA4ImagesEEG,001,100445,
AFNE01.JPG,AFNE01.JPG,AFNE01.JPG,AFNE01.JPG,AFNE01.JPG,AFNE01.JPG,3,0,30,6,,,,,,,,,,,,,,,,,,,,,,,AFSA14.jpg,AFNE03.jpg,AFNE14.jpg,AFSA16.jpg,AFNE14.jpg,FN,3,num_2,32,num_8,0.583460052083,,,2017_May_16_1205,59.9877438458,FEMA4ImagesEEG,001,100445,
AFNE01.JPG,AFNE01.JPG,AFNE01.JPG,AFNE01.JPG,AFNE01.JPG,AFNE01.JPG,3,1,31,0,,,,,,,,,,,,,,,,,,,,,,,AFNE01.jpg,AFSA02.jpg,AFSA08.jpg,AFNE04.jpg,AFNE01.jpg,FN,3,num_8,32,num_6,0.766802007951,,,2017_May_16_1205,59.9877438458,FEMA4ImagesEEG,001,100445,
AFNE01.JPG,AFNE01.JPG,AFNE01.JPG,AFNE01.JPG,AFNE01.JPG,AFNE01.JPG,3,2,32,7,,,,,,,,,,,,,,,,,,,,,,,AFNE17.jpg,AFSA10.jpg,AFNE15.jpg,AFSA01.jpg,AFNE15.jpg,FN,3,num_2,16,num_2,1.51673569511,,,2017_May_16_1205,59.9877438458,FEMA4ImagesEEG,001,100445,
AFNE01.JPG,AFNE01.JPG,AFNE01.JPG,AFNE01.JPG,AFNE01.JPG,AFNE01.JPG,3,3,33,9,,,,,,,,,,,,,,,,,,,,,,,AFSA09.jpg,AFSA16.jpg,AFNE08.jpg,AFNE03.jpg,AFSA16.jpg,FS,4,num_6,16,num_6,1.03345567399,,,2017_May_16_1205,59.9877438458,FEMA4ImagesEEG,001,100445,
AFNE01.JPG,AFNE01.JPG,AFNE01.JPG,AFNE01.JPG,AFNE01.JPG,AFNE01.JPG,3,4,34,5,,,,,,,,,,,,,,,,,,,,,,,AFSA03.jpg,AFNE12.jpg,AFSA10.jpg,AFNE01.jpg,AFNE12.jpg,FN,3,num_6,16,num_6,1.08314396351,,,2017_May_16_1205,59.9877438458,FEMA4ImagesEEG,001,100445,
AFNE01.JPG,AFNE01.JPG,AFNE01.JPG,AFNE01.JPG,AFNE01.JPG,AFNE01.JPG,3,5,35,3,,,,,,,,,,,,,,,,,,,,,,,AFNE18.jpg,AFSA11.jpg,AFSA12.jpg,AFNE09.jpg,AFNE09.jpg,FN,3,num_4,32,num_8,1.18344234728,,,2017_May_16_1205,59.9877438458,FEMA4ImagesEEG,001,100445,
AFNE01.JPG,AFNE01.JPG,AFNE01.JPG,AFNE01.JPG,AFNE01.JPG,AFNE01.JPG,3,6,36,2,,,,,,,,,,,,,,,,,,,,,,,AFSA05.jpg,AFSA12.jpg,AFNE17.jpg,AFNE08.jpg,AFNE08.jpg,FN,3,num_4,16,num_4,0.766813233829,,,2017_May_16_1205,59.9877438458,FEMA4ImagesEEG,001,100445,
AFNE01.JPG,AFNE01.JPG,AFNE01.JPG,AFNE01.JPG,AFNE01.JPG,AFNE01.JPG,3,7,37,4,,,,,,,,,,,,,,,,,,,,,,,AFSA03.jpg,AFNE05.jpg,AFNE07.jpg,AFSA10.jpg,AFNE07.jpg,FN,3,num_2,16,num_2,0.98345979549,,,2017_May_16_1205,59.9877438458,FEMA4ImagesEEG,001,100445,
AFNE01.JPG,AFNE01.JPG,AFNE01.JPG,AFNE01.JPG,AFNE01.JPG,AFNE01.JPG,3,8,38,1,,,,,,,,,,,,,,,,,,,,,,,AFNE07.jpg,AFNE03.jpg,AFSA19.jpg,AFSA02.jpg,AFSA19.jpg,FS,4,num_2,32,num_6,1.10012069419,,,2017_May_16_1205,59.9877438458,FEMA4ImagesEEG,001,100445,
AFNE01.JPG,AFNE01.JPG,AFNE01.JPG,AFNE01.JPG,AFNE01.JPG,AFNE01.JPG,3,9,39,8,,,,,,,,,,,,,,,,,,,,,,,AFSA08.jpg,AFNE05.jpg,AFSA18.jpg,AFNE19.jpg,AFNE19.jpg,FN,3,num_4,16,num_4,0.766796555392,,,2017_May_16_1205,59.9877438458,FEMA4ImagesEEG,001,100445,
AFNE01.JPG,AFNE01.JPG,AFNE01.JPG,AFNE01.JPG,AFNE01.JPG,AFNE01.JPG,4,0,40,7,,,,,,,,,,,,,,,,,,,,,,,AFSA01.jpg,AFSA19.jpg,AFNE07.jpg,AFNE01.jpg,AFSA01.jpg,FS,4,num_8,32,num_6,0.850088058971,,,2017_May_16_1205,59.9877438458,FEMA4ImagesEEG,001,100445,
AFNE01.JPG,AFNE01.JPG,AFNE01.JPG,AFNE01.JPG,AFNE01.JPG,AFNE01.JPG,4,1,41,5,,,,,,,,,,,,,,,,,,,,,,,AFNE12.jpg,AFSA04.jpg,AFNE19.jpg,AFSA03.jpg,AFSA03.jpg,FS,4,num_4,16,num_4,0.483472464693,,,2017_May_16_1205,59.9877438458,FEMA4ImagesEEG,001,100445,
AFNE01.JPG,AFNE01.JPG,AFNE01.JPG,AFNE01.JPG,AFNE01.JPG,AFNE01.JPG,4,2,42,2,,,,,,,,,,,,,,,,,,,,,,,AFSA05.jpg,AFNE18.jpg,AFSA07.jpg,AFNE03.jpg,AFNE18.jpg,FN,3,num_6,32,num_8,1.36670700498,,,2017_May_16_1205,59.9877438458,FEMA4ImagesEEG,001,100445,
AFNE01.JPG,AFNE01.JPG,AFNE01.JPG,AFNE01.JPG,AFNE01.JPG,AFNE01.JPG,4,3,43,6,,,,,,,,,,,,,,,,,,,,,,,AFSA06.jpg,AFNE13.jpg,AFSA09.jpg,AFNE02.jpg,AFSA06.jpg,FS,4,num_8,32,num_2,0.483535971071,,,2017_May_16_1205,59.9877438458,FEMA4ImagesEEG,001,100445,
AFNE01.JPG,AFNE01.JPG,AFNE01.JPG,AFNE01.JPG,AFNE01.JPG,AFNE01.JPG,4,4,44,0,,,,,,,,,,,,,,,,,,,,,,,AFSA13.jpg,AFSA01.jpg,AFNE04.jpg,AFNE07.jpg,AFNE04.jpg,FN,3,num_2,32,num_8,0.816796603496,,,2017_May_16_1205,59.9877438458,FEMA4ImagesEEG,001,100445,
AFNE01.JPG,AFNE01.JPG,AFNE01.JPG,AFNE01.JPG,AFNE01.JPG,AFNE01.JPG,4,5,45,3,,,,,,,,,,,,,,,,,,,,,,,AFSA04.jpg,AFSA17.jpg,AFNE13.jpg,AFNE01.jpg,AFSA17.jpg,FS,4,num_6,16,num_6,1.08345251471,,,2017_May_16_1205,59.9877438458,FEMA4ImagesEEG,001,100445,
AFNE01.JPG,AFNE01.JPG,AFNE01.JPG,AFNE01.JPG,AFNE01.JPG,AFNE01.JPG,4,6,46,4,,,,,,,,,,,,,,,,,,,,,,,AFSA13.jpg,AFNE16.jpg,AFSA01.jpg,AFNE02.jpg,AFNE16.jpg,FN,3,num_6,16,num_6,1.05011808017,,,2017_May_16_1205,59.9877438458,FEMA4ImagesEEG,001,100445,
AFNE01.JPG,AFNE01.JPG,AFNE01.JPG,AFNE01.JPG,AFNE01.JPG,AFNE01.JPG,4,7,47,8,,,,,,,,,,,,,,,,,,,,,,,AFNE12.jpg,AFSA20.jpg,AFSA13.jpg,AFNE04.jpg,AFNE12.jpg,FN,3,num_8,16,num_8,1.13342497924,,,2017_May_16_1205,59.9877438458,FEMA4ImagesEEG,001,100445,
AFNE01.JPG,AFNE01.JPG,AFNE01.JPG,AFNE01.JPG,AFNE01.JPG,AFNE01.JPG,4,8,48,9,,,,,,,,,,,,,,,,,,,,,,,AFNE14.jpg,AFNE20.jpg,AFSA18.jpg,AFSA01.jpg,AFSA01.jpg,FS,4,num_4,32,num_2,2.88359857938,,,2017_May_16_1205,59.9877438458,FEMA4ImagesEEG,001,100445,
AFNE01.JPG,AFNE01.JPG,AFNE01.JPG,AFNE01.JPG,AFNE01.JPG,AFNE01.JPG,4,9,49,1,,,,,,,,,,,,,,,,,,,,,,,AFSA18.jpg,AFSA06.jpg,AFNE05.jpg,AFNE13.jpg,AFSA06.jpg,FS,4,num_6,32,num_4,0.366830489605,,,2017_May_16_1205,59.9877438458,FEMA4ImagesEEG,001,100445,
AFNE01.JPG,AFNE01.JPG,AFNE01.JPG,AFNE01.JPG,AFNE01.JPG,AFNE01.JPG,5,0,50,1,,,,,,,,,,,,,,,,,,,,,,,AFSA13.jpg,AFNE14.jpg,AFNE06.jpg,AFSA02.jpg,AFSA13.jpg,FS,4,num_8,16,num_8,0.683371303523,,,2017_May_16_1205,59.9877438458,FEMA4ImagesEEG,001,100445,
AFNE01.JPG,AFNE01.JPG,AFNE01.JPG,AFNE01.JPG,AFNE01.JPG,AFNE01.JPG,5,1,51,3,,,,,,,,,,,,,,,,,,,,,,,AFNE02.jpg,AFSA16.jpg,AFNE06.jpg,AFSA02.jpg,AFSA02.jpg,FS,4,num_4,32,num_6,2.16694095221,,,2017_May_16_1205,59.9877438458,FEMA4ImagesEEG,001,100445,
AFNE01.JPG,AFNE01.JPG,AFNE01.JPG,AFNE01.JPG,AFNE01.JPG,AFNE01.JPG,5,2,52,9,,,,,,,,,,,,,,,,,,,,,,,AFSA19.jpg,AFNE13.jpg,AFSA06.jpg,AFNE07.jpg,AFNE13.jpg,FN,3,num_6,16,num_6,1.01672398812,,,2017_May_16_1205,59.9877438458,FEMA4ImagesEEG,001,100445,
AFNE01.JPG,AFNE01.JPG,AFNE01.JPG,AFNE01.JPG,AFNE01.JPG,AFNE01.JPG,5,3,53,5,,,,,,,,,,,,,,,,,,,,,,,AFSA10.jpg,AFNE08.jpg,AFNE12.jpg,AFSA13.jpg,AFNE08.jpg,FN,3,num_6,32,num_8,1.2500724069,,,2017_May_16_1205,59.9877438458,FEMA4ImagesEEG,001,100445,
AFNE01.JPG,AFNE01.JPG,AFNE01.JPG,AFNE01.JPG,AFNE01.JPG,AFNE01.JPG,5,4,54,7,,,,,,,,,,,,,,,,,,,,,,,AFNE18.jpg,AFSA20.jpg,AFNE09.jpg,AFSA11.jpg,AFSA20.jpg,FS,4,num_6,32,num_2,3.96649108329,,,2017_May_16_1205,59.9877438458,FEMA4ImagesEEG,001,100445,
AFNE01.JPG,AFNE01.JPG,AFNE01.JPG,AFNE01.JPG,AFNE01.JPG,AFNE01.JPG,5,5,55,2,,,,,,,,,,,,,,,,,,,,,,,AFSA16.jpg,AFNE04.jpg,AFSA07.jpg,AFNE02.jpg,AFSA16.jpg,FS,4,num_8,16,num_8,0.75016558166,,,2017_May_16_1205,59.9877438458,FEMA4ImagesEEG,001,100445,
AFNE01.JPG,AFNE01.JPG,AFNE01.JPG,AFNE01.JPG,AFNE01.JPG,AFNE01.JPG,5,6,56,6,,,,,,,,,,,,,,,,,,,,,,,AFSA04.jpg,AFNE20.jpg,AFNE06.jpg,AFSA02.jpg,AFNE06.jpg,FN,3,num_2,32,num_6,0.933534800373,,,2017_May_16_1205,59.9877438458,FEMA4ImagesEEG,001,100445,
AFNE01.JPG,AFNE01.JPG,AFNE01.JPG,AFNE01.JPG,AFNE01.JPG,AFNE01.JPG,5,7,57,8,,,,,,,,,,,,,,,,,,,,,,,AFNE02.jpg,AFSA07.jpg,AFSA19.jpg,AFNE06.jpg,AFNE06.jpg,FN,3,num_4,32,num_8,3.30000926937,,,2017_May_16_1205,59.9877438458,FEMA4ImagesEEG,001,100445,
AFNE01.JPG,AFNE01.JPG,AFNE01.JPG,AFNE01.JPG,AFNE01.JPG,AFNE01.JPG,5,8,58,0,,,,,,,,,,,,,,,,,,,,,,,AFNE13.jpg,AFSA01.jpg,AFSA11.jpg,AFNE06.jpg,AFNE06.jpg,FN,3,num_4,16,num_4,0.700130252226,,,2017_May_16_1205,59.9877438458,FEMA4ImagesEEG,001,100445,
AFNE01.JPG,AFNE01.JPG,AFNE01.JPG,AFNE01.JPG,AFNE01.JPG,AFNE01.JPG,5,9,59,4,,,,,,,,,,,,,,,,,,,,,,,AFSA08.jpg,AFNE06.jpg,AFSA02.jpg,AFNE16.jpg,AFSA08.jpg,FS,4,num_8,16,num_8,1.21675400932,,,2017_May_16_1205,59.9877438458,FEMA4ImagesEEG,001,100445,
,,,,,,,,,,,,,,,,,,,,,,,,,,,,,,,,,,,,,,,,,,,space,28.4313144826,2017_May_16_1205,59.9877438458,FEMA4ImagesEEG,001,100445,
AFNE01.JPG,AFNE01.JPG,AFNE01.JPG,AFNE01.JPG,AFNE01.JPG,AFNE01.JPG,,,,,0,0,0,9,,,,,,,,,,,,,,,,,,,AMSA05.jpg,AMNE05.jpg,AMSA07.jpg,AMNE20.jpg,AMSA05.jpg,MS,2,num_8,16,num_8,0.51681716289,,,2017_May_16_1205,59.9877438458,FEMA4ImagesEEG,001,100445,
AFNE01.JPG,AFNE01.JPG,AFNE01.JPG,AFNE01.JPG,AFNE01.JPG,AFNE01.JPG,,,,,0,1,1,6,,,,,,,,,,,,,,,,,,,AMSA17.jpg,AMNE08.jpg,AMSA05.jpg,AMNE15.jpg,AMNE08.jpg,MN,1,num_6,16,num_6,1.05018447321,,,2017_May_16_1205,59.9877438458,FEMA4ImagesEEG,001,100445,
AFNE01.JPG,AFNE01.JPG,AFNE01.JPG,AFNE01.JPG,AFNE01.JPG,AFNE01.JPG,,,,,0,2,2,2,,,,,,,,,,,,,,,,,,,AMSA13.jpg,AMNE16.jpg,AMSA19.jpg,AMNE09.jpg,AMNE16.jpg,MN,1,num_6,16,num_6,0.983480964285,,,2017_May_16_1205,59.9877438458,FEMA4ImagesEEG,001,100445,
AFNE01.JPG,AFNE01.JPG,AFNE01.JPG,AFNE01.JPG,AFNE01.JPG,AFNE01.JPG,,,,,0,3,3,1,,,,,,,,,,,,,,,,,,,AMNE03.jpg,AMNE12.jpg,AMSA18.jpg,AMSA05.jpg,AMSA18.jpg,MS,2,num_2,16,num_2,1.13346924126,,,2017_May_16_1205,59.9877438458,FEMA4ImagesEEG,001,100445,
AFNE01.JPG,AFNE01.JPG,AFNE01.JPG,AFNE01.JPG,AFNE01.JPG,AFNE01.JPG,,,,,0,4,4,5,,,,,,,,,,,,,,,,,,,AMSA08.jpg,AMSA14.jpg,AMNE13.jpg,AMNE18.jpg,AMNE13.jpg,MN,1,num_2,32,num_4,1.31676885955,,,2017_May_16_1205,59.9877438458,FEMA4ImagesEEG,001,100445,
AFNE01.JPG,AFNE01.JPG,AFNE01.JPG,AFNE01.JPG,AFNE01.JPG,AFNE01.JPG,,,,,0,5,5,7,,,,,,,,,,,,,,,,,,,AMSA08.jpg,AMNE18.jpg,AMNE14.jpg,AMSA20.jpg,AMNE18.jpg,MN,1,num_6,32,num_8,0.850180431895,,,2017_May_16_1205,59.9877438458,FEMA4ImagesEEG,001,100445,
AFNE01.JPG,AFNE01.JPG,AFNE01.JPG,AFNE01.JPG,AFNE01.JPG,AFNE01.JPG,,,,,0,6,6,0,,,,,,,,,,,,,,,,,,,AMNE17.jpg,AMSA20.jpg,AMSA15.jpg,AMNE12.jpg,AMNE17.jpg,MN,1,num_8,16,num_8,1.18348051525,,,2017_May_16_1205,59.9877438458,FEMA4ImagesEEG,001,100445,
AFNE01.JPG,AFNE01.JPG,AFNE01.JPG,AFNE01.JPG,AFNE01.JPG,AFNE01.JPG,,,,,0,7,7,3,,,,,,,,,,,,,,,,,,,AMSA16.jpg,AMNE03.jpg,AMSA03.jpg,AMNE06.jpg,AMSA16.jpg,MS,2,num_8,32,num_2,1.13346699609,,,2017_May_16_1205,59.9877438458,FEMA4ImagesEEG,001,100445,
AFNE01.JPG,AFNE01.JPG,AFNE01.JPG,AFNE01.JPG,AFNE01.JPG,AFNE01.JPG,,,,,0,8,8,8,,,,,,,,,,,,,,,,,,,AMSA03.jpg,AMSA06.jpg,AMNE01.jpg,AMNE16.jpg,AMNE01.jpg,MN,1,num_2,32,num_6,0.650140467769,,,2017_May_16_1205,59.9877438458,FEMA4ImagesEEG,001,100445,
AFNE01.JPG,AFNE01.JPG,AFNE01.JPG,AFNE01.JPG,AFNE01.JPG,AFNE01.JPG,,,,,0,9,9,4,,,,,,,,,,,,,,,,,,,AMNE18.jpg,AMNE05.jpg,AMSA10.jpg,AMSA18.jpg,AMNE18.jpg,MN,1,num_8,16,num_8,0.933424786796,,,2017_May_16_1205,59.9877438458,FEMA4ImagesEEG,001,100445,
AFNE01.JPG,AFNE01.JPG,AFNE01.JPG,AFNE01.JPG,AFNE01.JPG,AFNE01.JPG,,,,,1,0,10,7,,,,,,,,,,,,,,,,,,,AMSA03.jpg,AMNE13.jpg,AMSA13.jpg,AMNE09.jpg,AMNE09.jpg,MN,1,num_4,32,num_2,1.43340377837,,,2017_May_16_1205,59.9877438458,FEMA4ImagesEEG,001,100445,
AFNE01.JPG,AFNE01.JPG,AFNE01.JPG,AFNE01.JPG,AFNE01.JPG,AFNE01.JPG,,,,,1,1,11,9,,,,,,,,,,,,,,,,,,,AMSA05.jpg,AMNE20.jpg,AMSA08.jpg,AMNE19.jpg,AMNE20.jpg,MN,1,num_6,16,num_6,1.4001376613,,,2017_May_16_1205,59.9877438458,FEMA4ImagesEEG,001,100445,
AFNE01.JPG,AFNE01.JPG,AFNE01.JPG,AFNE01.JPG,AFNE01.JPG,AFNE01.JPG,,,,,1,2,12,0,,,,,,,,,,,,,,,,,,,AMNE07.jpg,AMSA03.jpg,AMSA14.jpg,AMNE19.jpg,AMSA03.jpg,MS,2,num_6,16,num_6,1.05016522884,,,2017_May_16_1205,59.9877438458,FEMA4ImagesEEG,001,100445,
AFNE01.JPG,AFNE01.JPG,AFNE01.JPG,AFNE01.JPG,AFNE01.JPG,AFNE01.JPG,,,,,1,3,13,1,,,,,,,,,,,,,,,,,,,AMSA12.jpg,AMNE16.jpg,AMNE11.jpg,AMSA14.jpg,AMSA12.jpg,MS,2,num_8,32,num_2,2.6499855507,,,2017_May_16_1205,59.9877438458,FEMA4ImagesEEG,001,100445,
AFNE01.JPG,AFNE01.JPG,AFNE01.JPG,AFNE01.JPG,AFNE01.JPG,AFNE01.JPG,,,,,1,4,14,2,,,,,,,,,,,,,,,,,,,AMNE12.jpg,AMSA05.jpg,AMSA16.jpg,AMNE04.jpg,AMSA05.jpg,MS,2,num_6,16,num_6,0.666790685857,,,2017_May_16_1205,59.9877438458,FEMA4ImagesEEG,001,100445,
AFNE01.JPG,AFNE01.JPG,AFNE01.JPG,AFNE01.JPG,AFNE01.JPG,AFNE01.JPG,,,,,1,5,15,8,,,,,,,,,,,,,,,,,,,AMSA14.jpg,AMNE05.jpg,AMNE02.jpg,AMSA06.jpg,AMNE05.jpg,MN,1,num_6,32,num_4,1.21674534936,,,2017_May_16_1205,59.9877438458,FEMA4ImagesEEG,001,100445,
AFNE01.JPG,AFNE01.JPG,AFNE01.JPG,AFNE01.JPG,AFNE01.JPG,AFNE01.JPG,,,,,1,6,16,5,,,,,,,,,,,,,,,,,,,AMNE18.jpg,AMSA03.jpg,AMNE05.jpg,AMSA08.jpg,AMSA03.jpg,MS,2,num_6,16,num_6,0.833450670463,,,2017_May_16_1205,59.9877438458,FEMA4ImagesEEG,001,100445,
AFNE01.JPG,AFNE01.JPG,AFNE01.JPG,AFNE01.JPG,AFNE01.JPG,AFNE01.JPG,,,,,1,7,17,4,,,,,,,,,,,,,,,,,,,AMSA07.jpg,AMNE19.jpg,AMSA18.jpg,AMNE06.jpg,AMNE06.jpg,MN,1,num_4,32,num_8,1.00011193801,,,2017_May_16_1205,59.9877438458,FEMA4ImagesEEG,001,100445,
AFNE01.JPG,AFNE01.JPG,AFNE01.JPG,AFNE01.JPG,AFNE01.JPG,AFNE01.JPG,,,,,1,8,18,6,,,,,,,,,,,,,,,,,,,AMNE13.jpg,AMNE06.jpg,AMSA18.jpg,AMSA08.jpg,AMNE13.jpg,MN,1,num_8,16,num_8,1.08340825269,,,2017_May_16_1205,59.9877438458,FEMA4ImagesEEG,001,100445,
AFNE01.JPG,AFNE01.JPG,AFNE01.JPG,AFNE01.JPG,AFNE01.JPG,AFNE01.JPG,,,,,1,9,19,3,,,,,,,,,,,,,,,,,,,AMSA11.jpg,AMSA07.jpg,AMNE01.jpg,AMNE13.jpg,AMSA11.jpg,MS,2,num_8,32,num_6,0.816725078635,,,2017_May_16_1205,59.9877438458,FEMA4ImagesEEG,001,100445,
AFNE01.JPG,AFNE01.JPG,AFNE01.JPG,AFNE01.JPG,AFNE01.JPG,AFNE01.JPG,,,,,2,0,20,6,,,,,,,,,,,,,,,,,,,AMNE14.jpg,AMSA02.jpg,AMSA15.jpg,AMNE15.jpg,AMNE14.jpg,MN,1,num_8,16,num_8,0.950116380249,,,2017_May_16_1205,59.9877438458,FEMA4ImagesEEG,001,100445,
AFNE01.JPG,AFNE01.JPG,AFNE01.JPG,AFNE01.JPG,AFNE01.JPG,AFNE01.JPG,,,,,2,1,21,1,,,,,,,,,,,,,,,,,,,AMSA01.jpg,AMNE01.jpg,AMSA05.jpg,AMNE16.jpg,AMSA01.jpg,MS,2,num_8,32,num_2,1.53316460308,,,2017_May_16_1205,59.9877438458,FEMA4ImagesEEG,001,100445,
AFNE01.JPG,AFNE01.JPG,AFNE01.JPG,AFNE01.JPG,AFNE01.JPG,AFNE01.JPG,,,,,2,2,22,4,,,,,,,,,,,,,,,,,,,AMSA11.jpg,AMNE05.jpg,AMNE07.jpg,AMSA17.jpg,AMNE05.jpg,MN,1,num_6,16,num_6,1.90006533459,,,2017_May_16_1205,59.9877438458,FEMA4ImagesEEG,001,100445,
AFNE01.JPG,AFNE01.JPG,AFNE01.JPG,AFNE01.JPG,AFNE01.JPG,AFNE01.JPG,,,,,2,3,23,5,,,,,,,,,,,,,,,,,,,AMSA13.jpg,AMSA14.jpg,AMNE12.jpg,AMNE17.jpg,AMNE17.jpg,MN,1,num_4,32,num_6,2.73320552941,,,2017_May_16_1205,59.9877438458,FEMA4ImagesEEG,001,100445,
AFNE01.JPG,AFNE01.JPG,AFNE01.JPG,AFNE01.JPG,AFNE01.JPG,AFNE01.JPG,,,,,2,4,24,3,,,,,,,,,,,,,,,,,,,AMNE09.jpg,AMSA12.jpg,AMSA16.jpg,AMNE06.jpg,AMNE06.jpg,MN,1,num_4,16,num_4,0.716749679341,,,2017_May_16_1205,59.9877438458,FEMA4ImagesEEG,001,100445,
AFNE01.JPG,AFNE01.JPG,AFNE01.JPG,AFNE01.JPG,AFNE01.JPG,AFNE01.JPG,,,,,2,5,25,2,,,,,,,,,,,,,,,,,,,AMNE10.jpg,AMSA01.jpg,AMSA19.jpg,AMNE17.jpg,AMNE10.jpg,MN,1,num_8,32,num_6,0.916781304237,,,2017_May_16_1205,59.9877438458,FEMA4ImagesEEG,001,100445,
AFNE01.JPG,AFNE01.JPG,AFNE01.JPG,AFNE01.JPG,AFNE01.JPG,AFNE01.JPG,,,,,2,6,26,7,,,,,,,,,,,,,,,,,,,AMSA16.jpg,AMNE05.jpg,AMNE07.jpg,AMSA07.jpg,AMSA07.jpg,MS,2,num_4,32,num_2,0.76676833033,,,2017_May_16_1205,59.9877438458,FEMA4ImagesEEG,001,100445,
AFNE01.JPG,AFNE01.JPG,AFNE01.JPG,AFNE01.JPG,AFNE01.JPG,AFNE01.JPG,,,,,2,7,27,8,,,,,,,,,,,,,,,,,,,AMSA16.jpg,AMSA18.jpg,AMNE19.jpg,AMNE01.jpg,AMSA18.jpg,MS,2,num_6,32,num_4,1.28328014942,,,2017_May_16_1205,59.9877438458,FEMA4ImagesEEG,001,100445,
AFNE01.JPG,AFNE01.JPG,AFNE01.JPG,AFNE01.JPG,AFNE01.JPG,AFNE01.JPG,,,,,2,8,28,9,,,,,,,,,,,,,,,,,,,AMNE16.jpg,AMSA08.jpg,AMNE20.jpg,AMSA06.jpg,AMNE16.jpg,MN,1,num_8,16,num_8,1.11675712049,,,2017_May_16_1205,59.9877438458,FEMA4ImagesEEG,001,100445,
AFNE01.JPG,AFNE01.JPG,AFNE01.JPG,AFNE01.JPG,AFNE01.JPG,AFNE01.JPG,,,,,2,9,29,0,,,,,,,,,,,,,,,,,,,AMSA14.jpg,AMNE01.jpg,AMSA02.jpg,AMNE06.jpg,AMSA02.jpg,MS,2,num_2,32,num_6,1.78332232663,,,2017_May_16_1205,59.9877438458,FEMA4ImagesEEG,001,100445,
AFNE01.JPG,AFNE01.JPG,AFNE01.JPG,AFNE01.JPG,AFNE01.JPG,AFNE01.JPG,,,,,3,0,30,3,,,,,,,,,,,,,,,,,,,AMSA17.jpg,AMNE09.jpg,AMSA19.jpg,AMNE18.jpg,AMSA17.jpg,MS,2,num_8,16,num_8,1.16674305608,,,2017_May_16_1205,59.9877438458,FEMA4ImagesEEG,001,100445,
AFNE01.JPG,AFNE01.JPG,AFNE01.JPG,AFNE01.JPG,AFNE01.JPG,AFNE01.JPG,,,,,3,1,31,8,,,,,,,,,,,,,,,,,,,AMSA20.jpg,AMNE13.jpg,AMSA18.jpg,AMNE02.jpg,AMNE13.jpg,MN,1,num_6,32,num_8,1.20008903723,,,2017_May_16_1205,59.9877438458,FEMA4ImagesEEG,001,100445,
AFNE01.JPG,AFNE01.JPG,AFNE01.JPG,AFNE01.JPG,AFNE01.JPG,AFNE01.JPG,,,,,3,2,32,0,,,,,,,,,,,,,,,,,,,AMSA20.jpg,AMNE15.jpg,AMNE03.jpg,AMSA17.jpg,AMSA17.jpg,MS,2,num_4,32,num_6,2.31655653014,,,2017_May_16_1205,59.9877438458,FEMA4ImagesEEG,001,100445,
AFNE01.JPG,AFNE01.JPG,AFNE01.JPG,AFNE01.JPG,AFNE01.JPG,AFNE01.JPG,,,,,3,3,33,2,,,,,,,,,,,,,,,,,,,AMNE12.jpg,AMSA10.jpg,AMSA13.jpg,AMNE04.jpg,AMSA10.jpg,MS,2,num_6,32,num_8,1.000104561,,,2017_May_16_1205,59.9877438458,FEMA4ImagesEEG,001,100445,
AFNE01.JPG,AFNE01.JPG,AFNE01.JPG,AFNE01.JPG,AFNE01.JPG,AFNE01.JPG,,,,,3,4,34,4,,,,,,,,,,,,,,,,,,,AMNE04.jpg,AMSA12.jpg,AMNE17.jpg,AMSA20.jpg,AMSA12.jpg,MS,2,num_6,32,num_2,1.41671410936,,,2017_May_16_1205,59.9877438458,FEMA4ImagesEEG,001,100445,
AFNE01.JPG,AFNE01.JPG,AFNE01.JPG,AFNE01.JPG,AFNE01.JPG,AFNE01.JPG,,,,,3,5,35,5,,,,,,,,,,,,,,,,,,,AMSA12.jpg,AMNE19.jpg,AMSA04.jpg,AMNE01.jpg,AMNE01.jpg,MN,1,num_4,16,num_4,1.21676074485,,,2017_May_16_1205,59.9877438458,FEMA4ImagesEEG,001,100445,
AFNE01.JPG,AFNE01.JPG,AFNE01.JPG,AFNE01.JPG,AFNE01.JPG,AFNE01.JPG,,,,,3,6,36,7,,,,,,,,,,,,,,,,,,,AMSA20.jpg,AMSA03.jpg,AMNE14.jpg,AMNE19.jpg,AMNE19.jpg,MN,1,num_4,16,num_4,3.76653130399,,,2017_May_16_1205,59.9877438458,FEMA4ImagesEEG,001,100445,
AFNE01.JPG,AFNE01.JPG,AFNE01.JPG,AFNE01.JPG,AFNE01.JPG,AFNE01.JPG,,,,,3,7,37,9,,,,,,,,,,,,,,,,,,,AMSA03.jpg,AMNE08.jpg,AMNE19.jpg,AMSA18.jpg,AMSA03.jpg,MS,2,num_8,32,num_2,0.650122506377,,,2017_May_16_1205,59.9877438458,FEMA4ImagesEEG,001,100445,
AFNE01.JPG,AFNE01.JPG,AFNE01.JPG,AFNE01.JPG,AFNE01.JPG,AFNE01.JPG,,,,,3,8,38,6,,,,,,,,,,,,,,,,,,,AMSA14.jpg,AMNE18.jpg,AMSA02.jpg,AMNE14.jpg,AMSA02.jpg,MS,2,num_2,16,num_2,0.850186525939,,,2017_May_16_1205,59.9877438458,FEMA4ImagesEEG,001,100445,
AFNE01.JPG,AFNE01.JPG,AFNE01.JPG,AFNE01.JPG,AFNE01.JPG,AFNE01.JPG,,,,,3,9,39,1,,,,,,,,,,,,,,,,,,,AMNE11.jpg,AMSA02.jpg,AMSA09.jpg,AMNE17.jpg,AMNE11.jpg,MN,1,num_8,16,num_8,0.950240827093,,,2017_May_16_1205,59.9877438458,FEMA4ImagesEEG,001,100445,
AFNE01.JPG,AFNE01.JPG,AFNE01.JPG,AFNE01.JPG,AFNE01.JPG,AFNE01.JPG,,,,,4,0,40,2,,,,,,,,,,,,,,,,,,,AMSA16.jpg,AMNE03.jpg,AMNE01.jpg,AMSA13.jpg,AMSA16.jpg,MS,2,num_8,32,num_2,0.949991291927,,,2017_May_16_1205,59.9877438458,FEMA4ImagesEEG,001,100445,
AFNE01.JPG,AFNE01.JPG,AFNE01.JPG,AFNE01.JPG,AFNE01.JPG,AFNE01.JPG,,,,,4,1,41,9,,,,,,,,,,,,,,,,,,,AMSA02.jpg,AMSA10.jpg,AMNE16.jpg,AMNE04.jpg,AMSA02.jpg,MS,2,num_8,32,num_4,0.566814965823,,,2017_May_16_1205,59.9877438458,FEMA4ImagesEEG,001,100445,
AFNE01.JPG,AFNE01.JPG,AFNE01.JPG,AFNE01.JPG,AFNE01.JPG,AFNE01.JPG,,,,,4,2,42,1,,,,,,,,,,,,,,,,,,,AMNE10.jpg,AMSA15.jpg,AMSA18.jpg,AMNE20.jpg,AMNE10.jpg,MN,1,num_8,16,num_8,1.08345989171,,,2017_May_16_1205,59.9877438458,FEMA4ImagesEEG,001,100445,
AFNE01.JPG,AFNE01.JPG,AFNE01.JPG,AFNE01.JPG,AFNE01.JPG,AFNE01.JPG,,,,,4,3,43,7,,,,,,,,,,,,,,,,,,,AMSA19.jpg,AMSA10.jpg,AMNE08.jpg,AMNE02.jpg,AMSA19.jpg,MS,2,num_8,32,num_4,1.13343748808,,,2017_May_16_1205,59.9877438458,FEMA4ImagesEEG,001,100445,
AFNE01.JPG,AFNE01.JPG,AFNE01.JPG,AFNE01.JPG,AFNE01.JPG,AFNE01.JPG,,,,,4,4,44,6,,,,,,,,,,,,,,,,,,,AMNE16.jpg,AMSA17.jpg,AMNE19.jpg,AMSA15.jpg,AMSA17.jpg,MS,2,num_6,16,num_6,0.766749406714,,,2017_May_16_1205,59.9877438458,FEMA4ImagesEEG,001,100445,
AFNE01.JPG,AFNE01.JPG,AFNE01.JPG,AFNE01.JPG,AFNE01.JPG,AFNE01.JPG,,,,,4,5,45,4,,,,,,,,,,,,,,,,,,,AMNE11.jpg,AMSA18.jpg,AMSA01.jpg,AMNE04.jpg,AMSA18.jpg,MS,2,num_6,16,num_6,0.833474405161,,,2017_May_16_1205,59.9877438458,FEMA4ImagesEEG,001,100445,
AFNE01.JPG,AFNE01.JPG,AFNE01.JPG,AFNE01.JPG,AFNE01.JPG,AFNE01.JPG,,,,,4,6,46,5,,,,,,,,,,,,,,,,,,,AMNE01.jpg,AMSA04.jpg,AMSA01.jpg,AMNE11.jpg,AMNE01.jpg,MN,1,num_8,16,num_8,1.10012710898,,,2017_May_16_1205,59.9877438458,FEMA4ImagesEEG,001,100445,
AFNE01.JPG,AFNE01.JPG,AFNE01.JPG,AFNE01.JPG,AFNE01.JPG,AFNE01.JPG,,,,,4,7,47,3,,,,,,,,,,,,,,,,,,,AMNE09.jpg,AMSA13.jpg,AMNE02.jpg,AMSA16.jpg,AMSA13.jpg,MS,2,num_6,16,num_6,0.516814596973,,,2017_May_16_1205,59.9877438458,FEMA4ImagesEEG,001,100445,
AFNE01.JPG,AFNE01.JPG,AFNE01.JPG,AFNE01.JPG,AFNE01.JPG,AFNE01.JPG,,,,,4,8,48,8,,,,,,,,,,,,,,,,,,,AMNE05.jpg,AMSA06.jpg,AMNE13.jpg,AMSA12.jpg,AMSA06.jpg,MS,2,num_6,16,num_6,1.16672766059,,,2017_May_16_1205,59.9877438458,FEMA4ImagesEEG,001,100445,
AFNE01.JPG,AFNE01.JPG,AFNE01.JPG,AFNE01.JPG,AFNE01.JPG,AFNE01.JPG,,,,,4,9,49,0,,,,,,,,,,,,,,,,,,,AMSA16.jpg,AMNE18.jpg,AMNE12.jpg,AMSA20.jpg,AMNE18.jpg,MN,1,num_6,32,num_4,1.61674573425,,,2017_May_16_1205,59.9877438458,FEMA4ImagesEEG,001,100445,
AFNE01.JPG,AFNE01.JPG,AFNE01.JPG,AFNE01.JPG,AFNE01.JPG,AFNE01.JPG,,,,,5,0,50,3,,,,,,,,,,,,,,,,,,,AMNE15.jpg,AMSA11.jpg,AMSA18.jpg,AMNE09.jpg,AMNE09.jpg,MN,1,num_4,32,num_8,1.20011437564,,,2017_May_16_1205,59.9877438458,FEMA4ImagesEEG,001,100445,
AFNE01.JPG,AFNE01.JPG,AFNE01.JPG,AFNE01.JPG,AFNE01.JPG,AFNE01.JPG,,,,,5,1,51,8,,,,,,,,,,,,,,,,,,,AMNE04.jpg,AMSA15.jpg,AMNE14.jpg,AMSA03.jpg,AMSA03.jpg,MS,2,num_4,32,num_6,2.3334023992,,,2017_May_16_1205,59.9877438458,FEMA4ImagesEEG,001,100445,
AFNE01.JPG,AFNE01.JPG,AFNE01.JPG,AFNE01.JPG,AFNE01.JPG,AFNE01.JPG,,,,,5,2,52,5,,,,,,,,,,,,,,,,,,,AMSA04.jpg,AMSA18.jpg,AMNE10.jpg,AMNE14.jpg,AMNE14.jpg,MN,1,num_4,32,num_2,1.56646985035,,,2017_May_16_1205,59.9877438458,FEMA4ImagesEEG,001,100445,
AFNE01.JPG,AFNE01.JPG,AFNE01.JPG,AFNE01.JPG,AFNE01.JPG,AFNE01.JPG,,,,,5,3,53,4,,,,,,,,,,,,,,,,,,,AMNE07.jpg,AMSA11.jpg,AMNE08.jpg,AMSA17.jpg,AMNE07.jpg,MN,1,num_8,16,num_8,3.51659424909,,,2017_May_16_1205,59.9877438458,FEMA4ImagesEEG,001,100445,
AFNE01.JPG,AFNE01.JPG,AFNE01.JPG,AFNE01.JPG,AFNE01.JPG,AFNE01.JPG,,,,,5,4,54,1,,,,,,,,,,,,,,,,,,,AMNE03.jpg,AMSA08.jpg,AMNE11.jpg,AMSA15.jpg,AMSA15.jpg,MS,2,num_4,16,num_4,1.46697844664,,,2017_May_16_1205,59.9877438458,FEMA4ImagesEEG,001,100445,
AFNE01.JPG,AFNE01.JPG,AFNE01.JPG,AFNE01.JPG,AFNE01.JPG,AFNE01.JPG,,,,,5,5,55,6,,,,,,,,,,,,,,,,,,,AMSA02.jpg,AMNE15.jpg,AMSA16.jpg,AMNE06.jpg,AMNE15.jpg,MN,1,num_6,16,num_6,1.01674900579,,,2017_May_16_1205,59.9877438458,FEMA4ImagesEEG,001,100445,
AFNE01.JPG,AFNE01.JPG,AFNE01.JPG,AFNE01.JPG,AFNE01.JPG,AFNE01.JPG,,,,,5,6,56,2,,,,,,,,,,,,,,,,,,,AMNE08.jpg,AMSA07.jpg,AMNE06.jpg,AMSA11.jpg,AMNE06.jpg,MN,1,num_2,32,num_4,3.78317286212,,,2017_May_16_1205,59.9877438458,FEMA4ImagesEEG,001,100445,
AFNE01.JPG,AFNE01.JPG,AFNE01.JPG,AFNE01.JPG,AFNE01.JPG,AFNE01.JPG,,,,,5,7,57,0,,,,,,,,,,,,,,,,,,,AMNE12.jpg,AMSA13.jpg,AMSA14.jpg,AMNE10.jpg,AMNE10.jpg,MN,1,num_4,16,num_4,0.933450766679,,,2017_May_16_1205,59.9877438458,FEMA4ImagesEEG,001,100445,
AFNE01.JPG,AFNE01.JPG,AFNE01.JPG,AFNE01.JPG,AFNE01.JPG,AFNE01.JPG,,,,,5,8,58,7,,,,,,,,,,,,,,,,,,,AMNE04.jpg,AMSA06.jpg,AMNE09.jpg,AMSA15.jpg,AMSA15.jpg,MS,2,num_4,16,num_4,1.31672812566,,,2017_May_16_1205,59.9877438458,FEMA4ImagesEEG,001,100445,
AFNE01.JPG,AFNE01.JPG,AFNE01.JPG,AFNE01.JPG,AFNE01.JPG,AFNE01.JPG,,,,,5,9,59,9,,,,,,,,,,,,,,,,,,,AMSA05.jpg,AMNE11.jpg,AMSA03.jpg,AMNE20.jpg,AMSA03.jpg,MS,2,num_2,32,num_6,0.533463532098,,,2017_May_16_1205,59.9877438458,FEMA4ImagesEEG,001,100445,
,,,,,,,,,,,,,,,,,,,,,,,,,,,,,,,,,,,,,,,,,,,space,34.5140979352,2017_May_16_1205,59.9877438458,FEMA4ImagesEEG,001,100445,
AFNE01.JPG,AFNE01.JPG,AFNE01.JPG,AFNE01.JPG,AFNE01.JPG,AFNE01.JPG,,,,,,,,,0,0,0,8,,,,,,,,,,,,,,,AFNE08.jpg,AFSA12.jpg,AFNE13.jpg,AFSA16.jpg,AFNE08.jpg,FN,3,num_8,16,num_8,1.05011679721,,,2017_May_16_1205,59.9877438458,FEMA4ImagesEEG,001,100445,
AFNE01.JPG,AFNE01.JPG,AFNE01.JPG,AFNE01.JPG,AFNE01.JPG,AFNE01.JPG,,,,,,,,,0,1,1,6,,,,,,,,,,,,,,,AFSA12.jpg,AFSA01.jpg,AFNE19.jpg,AFNE12.jpg,AFSA12.jpg,FS,4,num_8,16,num_8,0.866778369476,,,2017_May_16_1205,59.9877438458,FEMA4ImagesEEG,001,100445,
AFNE01.JPG,AFNE01.JPG,AFNE01.JPG,AFNE01.JPG,AFNE01.JPG,AFNE01.JPG,,,,,,,,,0,2,2,4,,,,,,,,,,,,,,,AFSA17.jpg,AFNE06.jpg,AFSA02.jpg,AFNE14.jpg,AFNE06.jpg,FN,3,num_6,32,num_4,1.15022177518,,,2017_May_16_1205,59.9877438458,FEMA4ImagesEEG,001,100445,
AFNE01.JPG,AFNE01.JPG,AFNE01.JPG,AFNE01.JPG,AFNE01.JPG,AFNE01.JPG,,,,,,,,,0,3,3,0,,,,,,,,,,,,,,,AFSA09.jpg,AFSA07.jpg,AFNE09.jpg,AFNE03.jpg,AFNE09.jpg,FN,3,num_2,32,num_4,0.950124719471,,,2017_May_16_1205,59.9877438458,FEMA4ImagesEEG,001,100445,
AFNE01.JPG,AFNE01.JPG,AFNE01.JPG,AFNE01.JPG,AFNE01.JPG,AFNE01.JPG,,,,,,,,,0,4,4,7,,,,,,,,,,,,,,,AFNE03.jpg,AFNE01.jpg,AFSA05.jpg,AFSA18.jpg,AFSA18.jpg,FS,4,num_4,16,num_4,0.783481734063,,,2017_May_16_1205,59.9877438458,FEMA4ImagesEEG,001,100445,
AFNE01.JPG,AFNE01.JPG,AFNE01.JPG,AFNE01.JPG,AFNE01.JPG,AFNE01.JPG,,,,,,,,,0,5,5,5,,,,,,,,,,,,,,,AFNE17.jpg,AFSA01.jpg,AFNE13.jpg,AFSA06.jpg,AFSA06.jpg,FS,4,num_4,32,num_2,2.64968181058,,,2017_May_16_1205,59.9877438458,FEMA4ImagesEEG,001,100445,
AFNE01.JPG,AFNE01.JPG,AFNE01.JPG,AFNE01.JPG,AFNE01.JPG,AFNE01.JPG,,,,,,,,,0,6,6,3,,,,,,,,,,,,,,,AFSA08.jpg,AFNE04.jpg,AFNE03.jpg,AFSA14.jpg,AFSA08.jpg,FS,4,num_8,16,num_8,1.2334269999,,,2017_May_16_1205,59.9877438458,FEMA4ImagesEEG,001,100445,
AFNE01.JPG,AFNE01.JPG,AFNE01.JPG,AFNE01.JPG,AFNE01.JPG,AFNE01.JPG,,,,,,,,,0,7,7,2,,,,,,,,,,,,,,,AFSA09.jpg,AFSA10.jpg,AFNE08.jpg,AFNE01.jpg,AFNE01.jpg,FN,3,num_4,32,num_6,0.883491131724,,,2017_May_16_1205,59.9877438458,FEMA4ImagesEEG,001,100445,
AFNE01.JPG,AFNE01.JPG,AFNE01.JPG,AFNE01.JPG,AFNE01.JPG,AFNE01.JPG,,,,,,,,,0,8,8,1,,,,,,,,,,,,,,,AFNE17.jpg,AFSA15.jpg,AFNE03.jpg,AFSA10.jpg,AFNE17.jpg,FN,3,num_8,32,num_4,1.05012160831,,,2017_May_16_1205,59.9877438458,FEMA4ImagesEEG,001,100445,
AFNE01.JPG,AFNE01.JPG,AFNE01.JPG,AFNE01.JPG,AFNE01.JPG,AFNE01.JPG,,,,,,,,,0,9,9,9,,,,,,,,,,,,,,,AFNE14.jpg,AFSA08.jpg,AFSA11.jpg,AFNE02.jpg,AFNE14.jpg,FN,3,num_8,16,num_8,1.23341769846,,,2017_May_16_1205,59.9877438458,FEMA4ImagesEEG,001,100445,
AFNE01.JPG,AFNE01.JPG,AFNE01.JPG,AFNE01.JPG,AFNE01.JPG,AFNE01.JPG,,,,,,,,,1,0,10,8,,,,,,,,,,,,,,,AFNE02.jpg,AFSA19.jpg,AFNE07.jpg,AFSA14.jpg,AFNE02.jpg,FN,3,num_8,16,num_8,1.91662863233,,,2017_May_16_1205,59.9877438458,FEMA4ImagesEEG,001,100445,
AFNE01.JPG,AFNE01.JPG,AFNE01.JPG,AFNE01.JPG,AFNE01.JPG,AFNE01.JPG,,,,,,,,,1,1,11,9,,,,,,,,,,,,,,,AFNE11.jpg,AFSA05.jpg,AFSA18.jpg,AFNE16.jpg,AFSA18.jpg,FS,4,num_2,32,num_4,1.10009439357,,,2017_May_16_1205,59.9877438458,FEMA4ImagesEEG,001,100445,
AFNE01.JPG,AFNE01.JPG,AFNE01.JPG,AFNE01.JPG,AFNE01.JPG,AFNE01.JPG,,,,,,,,,1,2,12,7,,,,,,,,,,,,,,,AFSA20.jpg,AFNE13.jpg,AFNE15.jpg,AFSA05.jpg,AFSA20.jpg,FS,4,num_8,16,num_8,1.19937314713,,,2017_May_16_1205,59.9877438458,FEMA4ImagesEEG,001,100445,
AFNE01.JPG,AFNE01.JPG,AFNE01.JPG,AFNE01.JPG,AFNE01.JPG,AFNE01.JPG,,,,,,,,,1,3,13,4,,,,,,,,,,,,,,,AFSA08.jpg,AFSA03.jpg,AFNE04.jpg,AFNE03.jpg,AFSA03.jpg,FS,4,num_6,32,num_2,1.16674690495,,,2017_May_16_1205,59.9877438458,FEMA4ImagesEEG,001,100445,
AFNE01.JPG,AFNE01.JPG,AFNE01.JPG,AFNE01.JPG,AFNE01.JPG,AFNE01.JPG,,,,,,,,,1,4,14,0,,,,,,,,,,,,,,,AFSA16.jpg,AFSA11.jpg,AFNE10.jpg,AFNE20.jpg,AFSA16.jpg,FS,4,num_8,16,num_8,2.71665923086,,,2017_May_16_1205,59.9877438458,FEMA4ImagesEEG,001,100445,
AFNE01.JPG,AFNE01.JPG,AFNE01.JPG,AFNE01.JPG,AFNE01.JPG,AFNE01.JPG,,,,,,,,,1,5,15,2,,,,,,,,,,,,,,,AFSA14.jpg,AFSA04.jpg,AFNE11.jpg,AFNE13.jpg,AFNE11.jpg,FN,3,num_2,16,num_2,0.983437022995,,,2017_May_16_1205,59.9877438458,FEMA4ImagesEEG,001,100445,
AFNE01.JPG,AFNE01.JPG,AFNE01.JPG,AFNE01.JPG,AFNE01.JPG,AFNE01.JPG,,,,,,,,,1,6,16,1,,,,,,,,,,,,,,,AFSA15.jpg,AFNE15.jpg,AFNE17.jpg,AFSA13.jpg,AFNE17.jpg,FN,3,num_2,16,num_2,4.84977854555,,,2017_May_16_1205,59.9877438458,FEMA4ImagesEEG,001,100445,
AFNE01.JPG,AFNE01.JPG,AFNE01.JPG,AFNE01.JPG,AFNE01.JPG,AFNE01.JPG,,,,,,,,,1,7,17,6,,,,,,,,,,,,,,,AFSA03.jpg,AFSA18.jpg,AFNE15.jpg,AFNE10.jpg,AFNE10.jpg,FN,3,num_4,16,num_4,0.80019289261,,,2017_May_16_1205,59.9877438458,FEMA4ImagesEEG,001,100445,
AFNE01.JPG,AFNE01.JPG,AFNE01.JPG,AFNE01.JPG,AFNE01.JPG,AFNE01.JPG,,,,,,,,,1,8,18,3,,,,,,,,,,,,,,,AFNE12.jpg,AFSA18.jpg,AFSA11.jpg,AFNE08.jpg,AFSA18.jpg,FS,4,num_6,32,num_4,1.40012932209,,,2017_May_16_1205,59.9877438458,FEMA4ImagesEEG,001,100445,
AFNE01.JPG,AFNE01.JPG,AFNE01.JPG,AFNE01.JPG,AFNE01.JPG,AFNE01.JPG,,,,,,,,,1,9,19,5,,,,,,,,,,,,,,,AFSA09.jpg,AFNE18.jpg,AFNE09.jpg,AFSA15.jpg,AFSA09.jpg,FS,4,num_8,16,num_8,1.21676683889,,,2017_May_16_1205,59.9877438458,FEMA4ImagesEEG,001,100445,
AFNE01.JPG,AFNE01.JPG,AFNE01.JPG,AFNE01.JPG,AFNE01.JPG,AFNE01.JPG,,,,,,,,,2,0,20,4,,,,,,,,,,,,,,,AFSA01.jpg,AFNE03.jpg,AFSA13.jpg,AFNE19.jpg,AFSA13.jpg,FS,4,num_2,16,num_2,1.03343642963,,,2017_May_16_1205,59.9877438458,FEMA4ImagesEEG,001,100445,
AFNE01.JPG,AFNE01.JPG,AFNE01.JPG,AFNE01.JPG,AFNE01.JPG,AFNE01.JPG,,,,,,,,,2,1,21,7,,,,,,,,,,,,,,,AFNE05.jpg,AFSA19.jpg,AFNE10.jpg,AFSA06.jpg,AFNE10.jpg,FN,3,num_2,32,num_6,2.71659155488,,,2017_May_16_1205,59.9877438458,FEMA4ImagesEEG,001,100445,
AFNE01.JPG,AFNE01.JPG,AFNE01.JPG,AFNE01.JPG,AFNE01.JPG,AFNE01.JPG,,,,,,,,,2,2,22,1,,,,,,,,,,,,,,,AFNE07.jpg,AFSA09.jpg,AFNE05.jpg,AFSA06.jpg,AFNE07.jpg,FN,3,num_8,16,num_8,0.566796683685,,,2017_May_16_1205,59.9877438458,FEMA4ImagesEEG,001,100445,
AFNE01.JPG,AFNE01.JPG,AFNE01.JPG,AFNE01.JPG,AFNE01.JPG,AFNE01.JPG,,,,,,,,,2,3,23,0,,,,,,,,,,,,,,,AFNE01.jpg,AFNE08.jpg,AFSA16.jpg,AFSA19.jpg,AFNE01.jpg,FN,3,num_8,32,num_6,2.48334481045,,,2017_May_16_1205,59.9877438458,FEMA4ImagesEEG,001,100445,
AFNE01.JPG,AFNE01.JPG,AFNE01.JPG,AFNE01.JPG,AFNE01.JPG,AFNE01.JPG,,,,,,,,,2,4,24,5,,,,,,,,,,,,,,,AFSA03.jpg,AFSA05.jpg,AFNE06.jpg,AFNE20.jpg,AFNE20.jpg,FN,3,num_4,32,num_8,3.18339167047,,,2017_May_16_1205,59.9877438458,FEMA4ImagesEEG,001,100445,
AFNE01.JPG,AFNE01.JPG,AFNE01.JPG,AFNE01.JPG,AFNE01.JPG,AFNE01.JPG,,,,,,,,,2,5,25,2,,,,,,,,,,,,,,,AFNE04.jpg,AFSA04.jpg,AFSA12.jpg,AFNE17.jpg,AFSA12.jpg,FS,4,num_2,16,num_2,0.450124559102,,,2017_May_16_1205,59.9877438458,FEMA4ImagesEEG,001,100445,
AFNE01.JPG,AFNE01.JPG,AFNE01.JPG,AFNE01.JPG,AFNE01.JPG,AFNE01.JPG,,,,,,,,,2,6,26,9,,,,,,,,,,,,,,,AFNE19.jpg,AFSA01.jpg,AFNE03.jpg,AFSA15.jpg,AFNE19.jpg,FN,3,num_8,16,num_8,1.11675455458,,,2017_May_16_1205,59.9877438458,FEMA4ImagesEEG,001,100445,
AFNE01.JPG,AFNE01.JPG,AFNE01.JPG,AFNE01.JPG,AFNE01.JPG,AFNE01.JPG,,,,,,,,,2,7,27,8,,,,,,,,,,,,,,,AFSA19.jpg,AFNE10.jpg,AFNE12.jpg,AFSA01.jpg,AFSA01.jpg,FS,4,num_4,32,num_8,2.05000678364,,,2017_May_16_1205,59.9877438458,FEMA4ImagesEEG,001,100445,
AFNE01.JPG,AFNE01.JPG,AFNE01.JPG,AFNE01.JPG,AFNE01.JPG,AFNE01.JPG,,,,,,,,,2,8,28,6,,,,,,,,,,,,,,,AFSA02.jpg,AFSA12.jpg,AFNE18.jpg,AFNE06.jpg,AFNE18.jpg,FN,3,num_2,32,num_8,1.2834767626,,,2017_May_16_1205,59.9877438458,FEMA4ImagesEEG,001,100445,
AFNE01.JPG,AFNE01.JPG,AFNE01.JPG,AFNE01.JPG,AFNE01.JPG,AFNE01.JPG,,,,,,,,,2,9,29,3,,,,,,,,,,,,,,,AFNE20.jpg,AFSA20.jpg,AFSA09.jpg,AFNE08.jpg,AFNE20.jpg,FN,3,num_8,32,num_2,1.00012893719,,,2017_May_16_1205,59.9877438458,FEMA4ImagesEEG,001,100445,
AFNE01.JPG,AFNE01.JPG,AFNE01.JPG,AFNE01.JPG,AFNE01.JPG,AFNE01.JPG,,,,,,,,,3,0,30,6,,,,,,,,,,,,,,,AFSA10.jpg,AFNE03.jpg,AFSA13.jpg,AFNE04.jpg,AFNE04.jpg,FN,3,num_4,48,None,,,,2017_May_16_1205,59.9877438458,FEMA4ImagesEEG,001,100445,
AFNE01.JPG,AFNE01.JPG,AFNE01.JPG,AFNE01.JPG,AFNE01.JPG,AFNE01.JPG,,,,,,,,,3,1,31,9,,,,,,,,,,,,,,,AFNE17.jpg,AFSA07.jpg,AFNE14.jpg,AFSA15.jpg,AFNE17.jpg,FN,3,num_8,16,num_8,4.08317667892,,,2017_May_16_1205,59.9877438458,FEMA4ImagesEEG,001,100445,
AFNE01.JPG,AFNE01.JPG,AFNE01.JPG,AFNE01.JPG,AFNE01.JPG,AFNE01.JPG,,,,,,,,,3,2,32,2,,,,,,,,,,,,,,,AFSA19.jpg,AFNE20.jpg,AFNE01.jpg,AFSA15.jpg,AFNE01.jpg,FN,3,num_2,32,num_4,0.583495012666,,,2017_May_16_1205,59.9877438458,FEMA4ImagesEEG,001,100445,
AFNE01.JPG,AFNE01.JPG,AFNE01.JPG,AFNE01.JPG,AFNE01.JPG,AFNE01.JPG,,,,,,,,,3,3,33,5,,,,,,,,,,,,,,,AFSA08.jpg,AFNE15.jpg,AFSA01.jpg,AFNE19.jpg,AFNE15.jpg,FN,3,num_6,16,num_6,0.633433478833,,,2017_May_16_1205,59.9877438458,FEMA4ImagesEEG,001,100445,
AFNE01.JPG,AFNE01.JPG,AFNE01.JPG,AFNE01.JPG,AFNE01.JPG,AFNE01.JPG,,,,,,,,,3,4,34,1,,,,,,,,,,,,,,,AFSA19.jpg,AFSA07.jpg,AFNE06.jpg,AFNE10.jpg,AFNE06.jpg,FN,3,num_2,32,num_4,0.700124478921,,,2017_May_16_1205,59.9877438458,FEMA4ImagesEEG,001,100445,
AFNE01.JPG,AFNE01.JPG,AFNE01.JPG,AFNE01.JPG,AFNE01.JPG,AFNE01.JPG,,,,,,,,,3,5,35,8,,,,,,,,,,,,,,,AFNE11.jpg,AFNE09.jpg,AFSA09.jpg,AFSA06.jpg,AFSA09.jpg,FS,4,num_2,16,num_2,0.700170344637,,,2017_May_16_1205,59.9877438458,FEMA4ImagesEEG,001,100445,
AFNE01.JPG,AFNE01.JPG,AFNE01.JPG,AFNE01.JPG,AFNE01.JPG,AFNE01.JPG,,,,,,,,,3,6,36,7,,,,,,,,,,,,,,,AFNE04.jpg,AFSA10.jpg,AFSA09.jpg,AFNE01.jpg,AFNE01.jpg,FN,3,num_4,16,num_4,1.13358374518,,,2017_May_16_1205,59.9877438458,FEMA4ImagesEEG,001,100445,
AFNE01.JPG,AFNE01.JPG,AFNE01.JPG,AFNE01.JPG,AFNE01.JPG,AFNE01.JPG,,,,,,,,,3,7,37,3,,,,,,,,,,,,,,,AFSA03.jpg,AFNE08.jpg,AFSA01.jpg,AFNE13.jpg,AFNE08.jpg,FN,3,num_6,16,num_6,1.20048803691,,,2017_May_16_1205,59.9877438458,FEMA4ImagesEEG,001,100445,
AFNE01.JPG,AFNE01.JPG,AFNE01.JPG,AFNE01.JPG,AFNE01.JPG,AFNE01.JPG,,,,,,,,,3,8,38,0,,,,,,,,,,,,,,,AFNE02.jpg,AFSA03.jpg,AFNE07.jpg,AFSA16.jpg,AFNE07.jpg,FN,3,num_2,16,num_2,1.11673819688,,,2017_May_16_1205,59.9877438458,FEMA4ImagesEEG,001,100445,
AFNE01.JPG,AFNE01.JPG,AFNE01.JPG,AFNE01.JPG,AFNE01.JPG,AFNE01.JPG,,,,,,,,,3,9,39,4,,,,,,,,,,,,,,,AFNE11.jpg,AFSA15.jpg,AFNE09.jpg,AFSA13.jpg,AFNE09.jpg,FN,3,num_2,32,num_6,0.583496937099,,,2017_May_16_1205,59.9877438458,FEMA4ImagesEEG,001,100445,
AFNE01.JPG,AFNE01.JPG,AFNE01.JPG,AFNE01.JPG,AFNE01.JPG,AFNE01.JPG,,,,,,,,,4,0,40,3,,,,,,,,,,,,,,,AFNE06.jpg,AFSA15.jpg,AFSA17.jpg,AFNE18.jpg,AFNE06.jpg,FN,3,num_8,32,num_2,1.04996957788,,,2017_May_16_1205,59.9877438458,FEMA4ImagesEEG,001,100445,
AFNE01.JPG,AFNE01.JPG,AFNE01.JPG,AFNE01.JPG,AFNE01.JPG,AFNE01.JPG,,,,,,,,,4,1,41,2,,,,,,,,,,,,,,,AFNE11.jpg,AFNE01.jpg,AFSA18.jpg,AFSA14.jpg,AFSA18.jpg,FS,4,num_2,16,num_2,1.05012930604,,,2017_May_16_1205,59.9877438458,FEMA4ImagesEEG,001,100445,
AFNE01.JPG,AFNE01.JPG,AFNE01.JPG,AFNE01.JPG,AFNE01.JPG,AFNE01.JPG,,,,,,,,,4,2,42,1,,,,,,,,,,,,,,,AFNE11.jpg,AFSA15.jpg,AFNE12.jpg,AFSA04.jpg,AFNE11.jpg,FN,3,num_8,16,num_8,0.4668058889,,,2017_May_16_1205,59.9877438458,FEMA4ImagesEEG,001,100445,
AFNE01.JPG,AFNE01.JPG,AFNE01.JPG,AFNE01.JPG,AFNE01.JPG,AFNE01.JPG,,,,,,,,,4,3,43,5,,,,,,,,,,,,,,,AFSA20.jpg,AFSA17.jpg,AFNE03.jpg,AFNE05.jpg,AFSA17.jpg,FS,4,num_6,16,num_6,0.683501523672,,,2017_May_16_1205,59.9877438458,FEMA4ImagesEEG,001,100445,
AFNE01.JPG,AFNE01.JPG,AFNE01.JPG,AFNE01.JPG,AFNE01.JPG,AFNE01.JPG,,,,,,,,,4,4,44,6,,,,,,,,,,,,,,,AFNE06.jpg,AFSA09.jpg,AFNE04.jpg,AFSA02.jpg,AFNE06.jpg,FN,3,num_8,32,num_6,0.800146064677,,,2017_May_16_1205,59.9877438458,FEMA4ImagesEEG,001,100445,
AFNE01.JPG,AFNE01.JPG,AFNE01.JPG,AFNE01.JPG,AFNE01.JPG,AFNE01.JPG,,,,,,,,,4,5,45,7,,,,,,,,,,,,,,,AFNE19.jpg,AFSA13.jpg,AFNE14.jpg,AFSA02.jpg,AFSA02.jpg,FS,4,num_4,32,num_6,0.64986687716,,,2017_May_16_1205,59.9877438458,FEMA4ImagesEEG,001,100445,
AFNE01.JPG,AFNE01.JPG,AFNE01.JPG,AFNE01.JPG,AFNE01.JPG,AFNE01.JPG,,,,,,,,,4,6,46,8,,,,,,,,,,,,,,,AFSA02.jpg,AFNE14.jpg,AFNE02.jpg,AFSA09.jpg,AFSA09.jpg,FS,4,num_4,32,num_2,1.08340215864,,,2017_May_16_1205,59.9877438458,FEMA4ImagesEEG,001,100445,
AFNE01.JPG,AFNE01.JPG,AFNE01.JPG,AFNE01.JPG,AFNE01.JPG,AFNE01.JPG,,,,,,,,,4,7,47,0,,,,,,,,,,,,,,,AFSA20.jpg,AFNE05.jpg,AFNE09.jpg,AFSA06.jpg,AFNE05.jpg,FN,3,num_6,32,num_8,1.10012614676,,,2017_May_16_1205,59.9877438458,FEMA4ImagesEEG,001,100445,
AFNE01.JPG,AFNE01.JPG,AFNE01.JPG,AFNE01.JPG,AFNE01.JPG,AFNE01.JPG,,,,,,,,,4,8,48,4,,,,,,,,,,,,,,,AFSA17.jpg,AFNE18.jpg,AFSA01.jpg,AFNE19.jpg,AFNE18.jpg,FN,3,num_6,48,None,,,,2017_May_16_1205,59.9877438458,FEMA4ImagesEEG,001,100445,
AFNE01.JPG,AFNE01.JPG,AFNE01.JPG,AFNE01.JPG,AFNE01.JPG,AFNE01.JPG,,,,,,,,,4,9,49,9,,,,,,,,,,,,,,,AFNE06.jpg,AFNE15.jpg,AFSA17.jpg,AFSA10.jpg,AFSA17.jpg,FS,4,num_2,32,num_8,0.766766085158,,,2017_May_16_1205,59.9877438458,FEMA4ImagesEEG,001,100445,
AFNE01.JPG,AFNE01.JPG,AFNE01.JPG,AFNE01.JPG,AFNE01.JPG,AFNE01.JPG,,,,,,,,,5,0,50,6,,,,,,,,,,,,,,,AFSA20.jpg,AFNE20.jpg,AFSA16.jpg,AFNE03.jpg,AFNE20.jpg,FN,3,num_6,16,num_6,0.50022596083,,,2017_May_16_1205,59.9877438458,FEMA4ImagesEEG,001,100445,
AFNE01.JPG,AFNE01.JPG,AFNE01.JPG,AFNE01.JPG,AFNE01.JPG,AFNE01.JPG,,,,,,,,,5,1,51,5,,,,,,,,,,,,,,,AFNE10.jpg,AFSA07.jpg,AFSA03.jpg,AFNE07.jpg,AFSA07.jpg,FS,4,num_6,32,num_8,1.08346919315,,,2017_May_16_1205,59.9877438458,FEMA4ImagesEEG,001,100445,
AFNE01.JPG,AFNE01.JPG,AFNE01.JPG,AFNE01.JPG,AFNE01.JPG,AFNE01.JPG,,,,,,,,,5,2,52,0,,,,,,,,,,,,,,,AFSA07.jpg,AFSA15.jpg,AFNE09.jpg,AFNE13.jpg,AFNE13.jpg,FN,3,num_4,16,num_4,1.01673168587,,,2017_May_16_1205,59.9877438458,FEMA4ImagesEEG,001,100445,
AFNE01.JPG,AFNE01.JPG,AFNE01.JPG,AFNE01.JPG,AFNE01.JPG,AFNE01.JPG,,,,,,,,,5,3,53,1,,,,,,,,,,,,,,,AFNE15.jpg,AFSA20.jpg,AFSA11.jpg,AFNE04.jpg,AFSA20.jpg,FS,4,num_6,32,num_2,0.716774376262,,,2017_May_16_1205,59.9877438458,FEMA4ImagesEEG,001,100445,
AFNE01.JPG,AFNE01.JPG,AFNE01.JPG,AFNE01.JPG,AFNE01.JPG,AFNE01.JPG,,,,,,,,,5,4,54,4,,,,,,,,,,,,,,,AFSA06.jpg,AFNE10.jpg,AFSA11.jpg,AFNE01.jpg,AFNE01.jpg,FN,3,num_4,32,num_6,1.11675038496,,,2017_May_16_1205,59.9877438458,FEMA4ImagesEEG,001,100445,
AFNE01.JPG,AFNE01.JPG,AFNE01.JPG,AFNE01.JPG,AFNE01.JPG,AFNE01.JPG,,,,,,,,,5,5,55,8,,,,,,,,,,,,,,,AFSA18.jpg,AFNE03.jpg,AFNE02.jpg,AFSA16.jpg,AFSA16.jpg,FS,4,num_4,32,num_8,1.31675346407,,,2017_May_16_1205,59.9877438458,FEMA4ImagesEEG,001,100445,
AFNE01.JPG,AFNE01.JPG,AFNE01.JPG,AFNE01.JPG,AFNE01.JPG,AFNE01.JPG,,,,,,,,,5,6,56,7,,,,,,,,,,,,,,,AFNE10.jpg,AFSA17.jpg,AFNE06.jpg,AFSA18.jpg,AFNE06.jpg,FN,3,num_2,32,num_8,1.16672958502,,,2017_May_16_1205,59.9877438458,FEMA4ImagesEEG,001,100445,
AFNE01.JPG,AFNE01.JPG,AFNE01.JPG,AFNE01.JPG,AFNE01.JPG,AFNE01.JPG,,,,,,,,,5,7,57,2,,,,,,,,,,,,,,,AFNE14.jpg,AFNE04.jpg,AFSA03.jpg,AFSA02.jpg,AFSA02.jpg,FS,4,num_4,16,num_4,1.51676327868,,,2017_May_16_1205,59.9877438458,FEMA4ImagesEEG,001,100445,
AFNE01.JPG,AFNE01.JPG,AFNE01.JPG,AFNE01.JPG,AFNE01.JPG,AFNE01.JPG,,,,,,,,,5,8,58,3,,,,,,,,,,,,,,,AFNE15.jpg,AFNE18.jpg,AFSA13.jpg,AFSA03.jpg,AFNE18.jpg,FN,3,num_6,32,num_2,0.950076287838,,,2017_May_16_1205,59.9877438458,FEMA4ImagesEEG,001,100445,
AFNE01.JPG,AFNE01.JPG,AFNE01.JPG,AFNE01.JPG,AFNE01.JPG,AFNE01.JPG,,,,,,,,,5,9,59,9,,,,,,,,,,,,,,,AFNE09.jpg,AFSA16.jpg,AFSA09.jpg,AFNE02.jpg,AFSA09.jpg,FS,4,num_2,16,num_2,1.35012638731,,,2017_May_16_1205,59.9877438458,FEMA4ImagesEEG,001,100445,
,,,,,,,,,,,,,,,,,,,,,,,,,,,,,,,,,,,,,,,,,,,space,45.7962631948,2017_May_16_1205,59.9877438458,FEMA4ImagesEEG,001,100445,
AFNE01.JPG,AFNE01.JPG,AFNE01.JPG,AFNE01.JPG,AFNE01.JPG,AFNE01.JPG,,,,,,,,,,,,,0,0,0,8,,,,,,,,,,,AMSA20.jpg,AMSA01.jpg,AMNE15.jpg,AMNE07.jpg,AMNE07.jpg,MN,1,num_4,16,num_4,0.46682128439,,,2017_May_16_1205,59.9877438458,FEMA4ImagesEEG,001,100445,
AFNE01.JPG,AFNE01.JPG,AFNE01.JPG,AFNE01.JPG,AFNE01.JPG,AFNE01.JPG,,,,,,,,,,,,,0,1,1,6,,,,,,,,,,,AMSA05.jpg,AMNE11.jpg,AMNE06.jpg,AMSA13.jpg,AMNE11.jpg,MN,1,num_6,32,num_8,1.20011501711,,,2017_May_16_1205,59.9877438458,FEMA4ImagesEEG,001,100445,
AFNE01.JPG,AFNE01.JPG,AFNE01.JPG,AFNE01.JPG,AFNE01.JPG,AFNE01.JPG,,,,,,,,,,,,,0,2,2,1,,,,,,,,,,,AMSA12.jpg,AMNE03.jpg,AMSA01.jpg,AMNE18.jpg,AMSA12.jpg,MS,2,num_8,32,num_4,1.03343226002,,,2017_May_16_1205,59.9877438458,FEMA4ImagesEEG,001,100445,
AFNE01.JPG,AFNE01.JPG,AFNE01.JPG,AFNE01.JPG,AFNE01.JPG,AFNE01.JPG,,,,,,,,,,,,,0,3,3,0,,,,,,,,,,,AMSA09.jpg,AMSA01.jpg,AMNE03.jpg,AMNE01.jpg,AMNE01.jpg,MN,1,num_4,32,num_6,0.733583360299,,,2017_May_16_1205,59.9877438458,FEMA4ImagesEEG,001,100445,
AFNE01.JPG,AFNE01.JPG,AFNE01.JPG,AFNE01.JPG,AFNE01.JPG,AFNE01.JPG,,,,,,,,,,,,,0,4,4,2,,,,,,,,,,,AMNE06.jpg,AMSA18.jpg,AMNE09.jpg,AMSA06.jpg,AMNE06.jpg,MN,1,num_8,32,num_4,0.516855972346,,,2017_May_16_1205,59.9877438458,FEMA4ImagesEEG,001,100445,
AFNE01.JPG,AFNE01.JPG,AFNE01.JPG,AFNE01.JPG,AFNE01.JPG,AFNE01.JPG,,,,,,,,,,,,,0,5,5,9,,,,,,,,,,,AMNE12.jpg,AMSA14.jpg,AMNE05.jpg,AMSA13.jpg,AMSA13.jpg,MS,2,num_4,32,num_6,3.34993586817,,,2017_May_16_1205,59.9877438458,FEMA4ImagesEEG,001,100445,
AFNE01.JPG,AFNE01.JPG,AFNE01.JPG,AFNE01.JPG,AFNE01.JPG,AFNE01.JPG,,,,,,,,,,,,,0,6,6,7,,,,,,,,,,,AMNE20.jpg,AMSA03.jpg,AMNE04.jpg,AMSA18.jpg,AMSA18.jpg,MS,2,num_4,16,num_4,0.550184954314,,,2017_May_16_1205,59.9877438458,FEMA4ImagesEEG,001,100445,
AFNE01.JPG,AFNE01.JPG,AFNE01.JPG,AFNE01.JPG,AFNE01.JPG,AFNE01.JPG,,,,,,,,,,,,,0,7,7,5,,,,,,,,,,,AMSA05.jpg,AMSA09.jpg,AMNE14.jpg,AMNE19.jpg,AMSA09.jpg,MS,2,num_6,16,num_6,0.883485037673,,,2017_May_16_1205,59.9877438458,FEMA4ImagesEEG,001,100445,
AFNE01.JPG,AFNE01.JPG,AFNE01.JPG,AFNE01.JPG,AFNE01.JPG,AFNE01.JPG,,,,,,,,,,,,,0,8,8,4,,,,,,,,,,,AMNE04.jpg,AMSA13.jpg,AMNE01.jpg,AMSA14.jpg,AMSA13.jpg,MS,2,num_6,16,num_6,0.566876868506,,,2017_May_16_1205,59.9877438458,FEMA4ImagesEEG,001,100445,
AFNE01.JPG,AFNE01.JPG,AFNE01.JPG,AFNE01.JPG,AFNE01.JPG,AFNE01.JPG,,,,,,,,,,,,,0,9,9,3,,,,,,,,,,,AMNE08.jpg,AMSA17.jpg,AMNE03.jpg,AMSA19.jpg,AMSA19.jpg,MS,2,num_4,32,num_8,0.76700054558,,,2017_May_16_1205,59.9877438458,FEMA4ImagesEEG,001,100445,
AFNE01.JPG,AFNE01.JPG,AFNE01.JPG,AFNE01.JPG,AFNE01.JPG,AFNE01.JPG,,,,,,,,,,,,,1,0,10,5,,,,,,,,,,,AMNE01.jpg,AMSA12.jpg,AMSA14.jpg,AMNE20.jpg,AMNE01.jpg,MN,1,num_8,16,num_8,2.23335932391,,,2017_May_16_1205,59.9877438458,FEMA4ImagesEEG,001,100445,
AFNE01.JPG,AFNE01.JPG,AFNE01.JPG,AFNE01.JPG,AFNE01.JPG,AFNE01.JPG,,,,,,,,,,,,,1,1,11,7,,,,,,,,,,,AMNE11.jpg,AMSA20.jpg,AMSA07.jpg,AMNE19.jpg,AMNE11.jpg,MN,1,num_8,16,num_8,1.00018731174,,,2017_May_16_1205,59.9877438458,FEMA4ImagesEEG,001,100445,
AFNE01.JPG,AFNE01.JPG,AFNE01.JPG,AFNE01.JPG,AFNE01.JPG,AFNE01.JPG,,,,,,,,,,,,,1,2,12,2,,,,,,,,,,,AMNE20.jpg,AMNE02.jpg,AMSA17.jpg,AMSA12.jpg,AMNE02.jpg,MN,1,num_6,16,num_6,0.750150506916,,,2017_May_16_1205,59.9877438458,FEMA4ImagesEEG,001,100445,
AFNE01.JPG,AFNE01.JPG,AFNE01.JPG,AFNE01.JPG,AFNE01.JPG,AFNE01.JPG,,,,,,,,,,,,,1,3,13,9,,,,,,,,,,,AMNE01.jpg,AMNE17.jpg,AMSA02.jpg,AMSA18.jpg,AMNE17.jpg,MN,1,num_6,32,num_2,3.3500070723,,,2017_May_16_1205,59.9877438458,FEMA4ImagesEEG,001,100445,
AFNE01.JPG,AFNE01.JPG,AFNE01.JPG,AFNE01.JPG,AFNE01.JPG,AFNE01.JPG,,,,,,,,,,,,,1,4,14,8,,,,,,,,,,,AMSA20.jpg,AMNE17.jpg,AMSA02.jpg,AMNE08.jpg,AMSA20.jpg,MS,2,num_8,16,num_8,0.900142632767,,,2017_May_16_1205,59.9877438458,FEMA4ImagesEEG,001,100445,
AFNE01.JPG,AFNE01.JPG,AFNE01.JPG,AFNE01.JPG,AFNE01.JPG,AFNE01.JPG,,,,,,,,,,,,,1,5,15,1,,,,,,,,,,,AMSA11.jpg,AMNE06.jpg,AMNE02.jpg,AMSA03.jpg,AMSA03.jpg,MS,2,num_4,32,num_8,0.983505661206,,,2017_May_16_1205,59.9877438458,FEMA4ImagesEEG,001,100445,
AFNE01.JPG,AFNE01.JPG,AFNE01.JPG,AFNE01.JPG,AFNE01.JPG,AFNE01.JPG,,,,,,,,,,,,,1,6,16,6,,,,,,,,,,,AMNE11.jpg,AMSA04.jpg,AMNE09.jpg,AMSA05.jpg,AMSA04.jpg,MS,2,num_6,16,num_6,1.05012513643,,,2017_May_16_1205,59.9877438458,FEMA4ImagesEEG,001,100445,
AFNE01.JPG,AFNE01.JPG,AFNE01.JPG,AFNE01.JPG,AFNE01.JPG,AFNE01.JPG,,,,,,,,,,,,,1,7,17,4,,,,,,,,,,,AMNE13.jpg,AMSA10.jpg,AMSA18.jpg,AMNE20.jpg,AMSA18.jpg,MS,2,num_2,32,num_8,0.933489896874,,,2017_May_16_1205,59.9877438458,FEMA4ImagesEEG,001,100445,
AFNE01.JPG,AFNE01.JPG,AFNE01.JPG,AFNE01.JPG,AFNE01.JPG,AFNE01.JPG,,,,,,,,,,,,,1,8,18,0,,,,,,,,,,,AMSA19.jpg,AMNE08.jpg,AMNE14.jpg,AMSA20.jpg,AMNE14.jpg,MN,1,num_2,16,num_2,0.566662935402,,,2017_May_16_1205,59.9877438458,FEMA4ImagesEEG,001,100445,
AFNE01.JPG,AFNE01.JPG,AFNE01.JPG,AFNE01.JPG,AFNE01.JPG,AFNE01.JPG,,,,,,,,,,,,,1,9,19,3,,,,,,,,,,,AMSA06.jpg,AMNE13.jpg,AMSA04.jpg,AMNE06.jpg,AMSA06.jpg,MS,2,num_8,16,num_8,1.35010938814,,,2017_May_16_1205,59.9877438458,FEMA4ImagesEEG,001,100445,
AFNE01.JPG,AFNE01.JPG,AFNE01.JPG,AFNE01.JPG,AFNE01.JPG,AFNE01.JPG,,,,,,,,,,,,,2,0,20,7,,,,,,,,,,,AMNE17.jpg,AMSA11.jpg,AMNE03.jpg,AMSA15.jpg,AMSA15.jpg,MS,2,num_4,16,num_4,0.683579784061,,,2017_May_16_1205,59.9877438458,FEMA4ImagesEEG,001,100445,
AFNE01.JPG,AFNE01.JPG,AFNE01.JPG,AFNE01.JPG,AFNE01.JPG,AFNE01.JPG,,,,,,,,,,,,,2,1,21,0,,,,,,,,,,,AMSA14.jpg,AMSA10.jpg,AMNE05.jpg,AMNE18.jpg,AMNE05.jpg,MN,1,num_2,32,num_8,1.93340393874,,,2017_May_16_1205,59.9877438458,FEMA4ImagesEEG,001,100445,
AFNE01.JPG,AFNE01.JPG,AFNE01.JPG,AFNE01.JPG,AFNE01.JPG,AFNE01.JPG,,,,,,,,,,,,,2,2,22,9,,,,,,,,,,,AMNE13.jpg,AMSA19.jpg,AMNE11.jpg,AMSA12.jpg,AMSA12.jpg,MS,2,num_4,32,num_2,0.983490265724,,,2017_May_16_1205,59.9877438458,FEMA4ImagesEEG,001,100445,
AFNE01.JPG,AFNE01.JPG,AFNE01.JPG,AFNE01.JPG,AFNE01.JPG,AFNE01.JPG,,,,,,,,,,,,,2,3,23,8,,,,,,,,,,,AMSA09.jpg,AMNE14.jpg,AMSA12.jpg,AMNE01.jpg,AMNE01.jpg,MN,1,num_4,16,num_4,0.716759942996,,,2017_May_16_1205,59.9877438458,FEMA4ImagesEEG,001,100445,
AFNE01.JPG,AFNE01.JPG,AFNE01.JPG,AFNE01.JPG,AFNE01.JPG,AFNE01.JPG,,,,,,,,,,,,,2,4,24,1,,,,,,,,,,,AMNE17.jpg,AMSA08.jpg,AMNE11.jpg,AMSA05.jpg,AMSA08.jpg,MS,2,num_6,16,num_6,0.650134052987,,,2017_May_16_1205,59.9877438458,FEMA4ImagesEEG,001,100445,
AFNE01.JPG,AFNE01.JPG,AFNE01.JPG,AFNE01.JPG,AFNE01.JPG,AFNE01.JPG,,,,,,,,,,,,,2,5,25,4,,,,,,,,,,,AMNE03.jpg,AMSA15.jpg,AMNE09.jpg,AMSA05.jpg,AMSA05.jpg,MS,2,num_4,32,num_8,1.01676311832,,,2017_May_16_1205,59.9877438458,FEMA4ImagesEEG,001,100445,
AFNE01.JPG,AFNE01.JPG,AFNE01.JPG,AFNE01.JPG,AFNE01.JPG,AFNE01.JPG,,,,,,,,,,,,,2,6,26,2,,,,,,,,,,,AMSA20.jpg,AMNE10.jpg,AMSA08.jpg,AMNE12.jpg,AMSA08.jpg,MS,2,num_2,16,num_2,1.13347950493,,,2017_May_16_1205,59.9877438458,FEMA4ImagesEEG,001,100445,
AFNE01.JPG,AFNE01.JPG,AFNE01.JPG,AFNE01.JPG,AFNE01.JPG,AFNE01.JPG,,,,,,,,,,,,,2,7,27,6,,,,,,,,,,,AMSA16.jpg,AMSA13.jpg,AMNE10.jpg,AMNE14.jpg,AMNE10.jpg,MN,1,num_2,32,num_6,0.650147844775,,,2017_May_16_1205,59.9877438458,FEMA4ImagesEEG,001,100445,
AFNE01.JPG,AFNE01.JPG,AFNE01.JPG,AFNE01.JPG,AFNE01.JPG,AFNE01.JPG,,,,,,,,,,,,,2,8,28,5,,,,,,,,,,,AMSA18.jpg,AMNE05.jpg,AMNE10.jpg,AMSA08.jpg,AMSA18.jpg,MS,2,num_8,32,num_4,1.13342786589,,,2017_May_16_1205,59.9877438458,FEMA4ImagesEEG,001,100445,
AFNE01.JPG,AFNE01.JPG,AFNE01.JPG,AFNE01.JPG,AFNE01.JPG,AFNE01.JPG,,,,,,,,,,,,,2,9,29,3,,,,,,,,,,,AMSA09.jpg,AMSA03.jpg,AMNE14.jpg,AMNE11.jpg,AMNE14.jpg,MN,1,num_2,16,num_2,0.650215200032,,,2017_May_16_1205,59.9877438458,FEMA4ImagesEEG,001,100445,
AFNE01.JPG,AFNE01.JPG,AFNE01.JPG,AFNE01.JPG,AFNE01.JPG,AFNE01.JPG,,,,,,,,,,,,,3,0,30,3,,,,,,,,,,,AMSA15.jpg,AMSA04.jpg,AMNE15.jpg,AMNE13.jpg,AMSA15.jpg,MS,2,num_8,16,num_8,0.81677318953,,,2017_May_16_1205,59.9877438458,FEMA4ImagesEEG,001,100445,
AFNE01.JPG,AFNE01.JPG,AFNE01.JPG,AFNE01.JPG,AFNE01.JPG,AFNE01.JPG,,,,,,,,,,,,,3,1,31,9,,,,,,,,,,,AMNE12.jpg,AMSA01.jpg,AMSA07.jpg,AMNE14.jpg,AMSA07.jpg,MS,2,num_2,32,num_8,1.3836840564,,,2017_May_16_1205,59.9877438458,FEMA4ImagesEEG,001,100445,
AFNE01.JPG,AFNE01.JPG,AFNE01.JPG,AFNE01.JPG,AFNE01.JPG,AFNE01.JPG,,,,,,,,,,,,,3,2,32,7,,,,,,,,,,,AMNE11.jpg,AMNE04.jpg,AMSA06.jpg,AMSA05.jpg,AMNE04.jpg,MN,1,num_6,32,num_2,0.766795593168,,,2017_May_16_1205,59.9877438458,FEMA4ImagesEEG,001,100445,
AFNE01.JPG,AFNE01.JPG,AFNE01.JPG,AFNE01.JPG,AFNE01.JPG,AFNE01.JPG,,,,,,,,,,,,,3,3,33,4,,,,,,,,,,,AMSA07.jpg,AMNE20.jpg,AMNE13.jpg,AMSA12.jpg,AMNE13.jpg,MN,1,num_2,32,num_8,0.933517480451,,,2017_May_16_1205,59.9877438458,FEMA4ImagesEEG,001,100445,
AFNE01.JPG,AFNE01.JPG,AFNE01.JPG,AFNE01.JPG,AFNE01.JPG,AFNE01.JPG,,,,,,,,,,,,,3,4,34,5,,,,,,,,,,,AMNE19.jpg,AMSA15.jpg,AMNE11.jpg,AMSA16.jpg,AMSA16.jpg,MS,2,num_4,16,num_4,0.616758563825,,,2017_May_16_1205,59.9877438458,FEMA4ImagesEEG,001,100445,
AFNE01.JPG,AFNE01.JPG,AFNE01.JPG,AFNE01.JPG,AFNE01.JPG,AFNE01.JPG,,,,,,,,,,,,,3,5,35,1,,,,,,,,,,,AMSA03.jpg,AMNE03.jpg,AMSA04.jpg,AMNE18.jpg,AMNE18.jpg,MN,1,num_4,32,num_8,0.766767688852,,,2017_May_16_1205,59.9877438458,FEMA4ImagesEEG,001,100445,
AFNE01.JPG,AFNE01.JPG,AFNE01.JPG,AFNE01.JPG,AFNE01.JPG,AFNE01.JPG,,,,,,,,,,,,,3,6,36,2,,,,,,,,,,,AMNE17.jpg,AMSA20.jpg,AMSA02.jpg,AMNE11.jpg,AMSA20.jpg,MS,2,num_6,16,num_6,0.45016721743,,,2017_May_16_1205,59.9877438458,FEMA4ImagesEEG,001,100445,
AFNE01.JPG,AFNE01.JPG,AFNE01.JPG,AFNE01.JPG,AFNE01.JPG,AFNE01.JPG,,,,,,,,,,,,,3,7,37,6,,,,,,,,,,,AMNE02.jpg,AMNE07.jpg,AMSA20.jpg,AMSA08.jpg,AMSA20.jpg,MS,2,num_2,16,num_2,0.983337593818,,,2017_May_16_1205,59.9877438458,FEMA4ImagesEEG,001,100445,
AFNE01.JPG,AFNE01.JPG,AFNE01.JPG,AFNE01.JPG,AFNE01.JPG,AFNE01.JPG,,,,,,,,,,,,,3,8,38,0,,,,,,,,,,,AMNE19.jpg,AMSA07.jpg,AMNE20.jpg,AMSA08.jpg,AMNE19.jpg,MN,1,num_8,32,num_4,4.71645107106,,,2017_May_16_1205,59.9877438458,FEMA4ImagesEEG,001,100445,
AFNE01.JPG,AFNE01.JPG,AFNE01.JPG,AFNE01.JPG,AFNE01.JPG,AFNE01.JPG,,,,,,,,,,,,,3,9,39,8,,,,,,,,,,,AMNE04.jpg,AMNE14.jpg,AMSA20.jpg,AMSA06.jpg,AMNE14.jpg,MN,1,num_6,32,num_2,1.13312733318,,,2017_May_16_1205,59.9877438458,FEMA4ImagesEEG,001,100445,
AFNE01.JPG,AFNE01.JPG,AFNE01.JPG,AFNE01.JPG,AFNE01.JPG,AFNE01.JPG,,,,,,,,,,,,,4,0,40,7,,,,,,,,,,,AMNE14.jpg,AMSA10.jpg,AMSA19.jpg,AMNE11.jpg,AMSA10.jpg,MS,2,num_6,32,num_2,1.033463051,,,2017_May_16_1205,59.9877438458,FEMA4ImagesEEG,001,100445,
AFNE01.JPG,AFNE01.JPG,AFNE01.JPG,AFNE01.JPG,AFNE01.JPG,AFNE01.JPG,,,,,,,,,,,,,4,1,41,9,,,,,,,,,,,AMNE06.jpg,AMSA17.jpg,AMNE20.jpg,AMSA08.jpg,AMNE06.jpg,MN,1,num_8,32,num_6,0.983444079262,,,2017_May_16_1205,59.9877438458,FEMA4ImagesEEG,001,100445,
AFNE01.JPG,AFNE01.JPG,AFNE01.JPG,AFNE01.JPG,AFNE01.JPG,AFNE01.JPG,,,,,,,,,,,,,4,2,42,5,,,,,,,,,,,AMNE13.jpg,AMSA17.jpg,AMNE19.jpg,AMSA02.jpg,AMSA17.jpg,MS,2,num_6,32,num_8,0.866880043824,,,2017_May_16_1205,59.9877438458,FEMA4ImagesEEG,001,100445,
AFNE01.JPG,AFNE01.JPG,AFNE01.JPG,AFNE01.JPG,AFNE01.JPG,AFNE01.JPG,,,,,,,,,,,,,4,3,43,2,,,,,,,,,,,AMSA20.jpg,AMNE08.jpg,AMSA17.jpg,AMNE01.jpg,AMNE01.jpg,MN,1,num_4,16,num_4,0.733492911822,,,2017_May_16_1205,59.9877438458,FEMA4ImagesEEG,001,100445,
AFNE01.JPG,AFNE01.JPG,AFNE01.JPG,AFNE01.JPG,AFNE01.JPG,AFNE01.JPG,,,,,,,,,,,,,4,4,44,6,,,,,,,,,,,AMNE01.jpg,AMNE12.jpg,AMSA14.jpg,AMSA19.jpg,AMNE01.jpg,MN,1,num_8,16,num_8,0.866616396124,,,2017_May_16_1205,59.9877438458,FEMA4ImagesEEG,001,100445,
AFNE01.JPG,AFNE01.JPG,AFNE01.JPG,AFNE01.JPG,AFNE01.JPG,AFNE01.JPG,,,,,,,,,,,,,4,5,45,8,,,,,,,,,,,AMNE01.jpg,AMSA12.jpg,AMNE08.jpg,AMSA17.jpg,AMSA17.jpg,MS,2,num_4,32,num_6,0.75011169746,,,2017_May_16_1205,59.9877438458,FEMA4ImagesEEG,001,100445,
AFNE01.JPG,AFNE01.JPG,AFNE01.JPG,AFNE01.JPG,AFNE01.JPG,AFNE01.JPG,,,,,,,,,,,,,4,6,46,0,,,,,,,,,,,AMSA07.jpg,AMNE04.jpg,AMNE07.jpg,AMSA10.jpg,AMNE04.jpg,MN,1,num_6,32,num_4,1.75007737835,,,2017_May_16_1205,59.9877438458,FEMA4ImagesEEG,001,100445,
AFNE01.JPG,AFNE01.JPG,AFNE01.JPG,AFNE01.JPG,AFNE01.JPG,AFNE01.JPG,,,,,,,,,,,,,4,7,47,1,,,,,,,,,,,AMSA13.jpg,AMSA02.jpg,AMNE05.jpg,AMNE17.jpg,AMNE05.jpg,MN,1,num_2,16,num_2,0.900128199493,,,2017_May_16_1205,59.9877438458,FEMA4ImagesEEG,001,100445,
AFNE01.JPG,AFNE01.JPG,AFNE01.JPG,AFNE01.JPG,AFNE01.JPG,AFNE01.JPG,,,,,,,,,,,,,4,8,48,4,,,,,,,,,,,AMNE02.jpg,AMSA17.jpg,AMNE19.jpg,AMSA16.jpg,AMNE19.jpg,MN,1,num_2,32,num_8,1.18344972428,,,2017_May_16_1205,59.9877438458,FEMA4ImagesEEG,001,100445,
AFNE01.JPG,AFNE01.JPG,AFNE01.JPG,AFNE01.JPG,AFNE01.JPG,AFNE01.JPG,,,,,,,,,,,,,4,9,49,3,,,,,,,,,,,AMNE17.jpg,AMSA01.jpg,AMSA15.jpg,AMNE08.jpg,AMSA01.jpg,MS,2,num_6,16,num_6,0.633132946117,,,2017_May_16_1205,59.9877438458,FEMA4ImagesEEG,001,100445,
AFNE01.JPG,AFNE01.JPG,AFNE01.JPG,AFNE01.JPG,AFNE01.JPG,AFNE01.JPG,,,,,,,,,,,,,5,0,50,3,,,,,,,,,,,AMNE14.jpg,AMNE19.jpg,AMSA14.jpg,AMSA12.jpg,AMSA12.jpg,MS,2,num_4,16,num_4,1.1664861439,,,2017_May_16_1205,59.9877438458,FEMA4ImagesEEG,001,100445,
AFNE01.JPG,AFNE01.JPG,AFNE01.JPG,AFNE01.JPG,AFNE01.JPG,AFNE01.JPG,,,,,,,,,,,,,5,1,51,4,,,,,,,,,,,AMSA01.jpg,AMNE06.jpg,AMSA20.jpg,AMNE11.jpg,AMNE11.jpg,MN,1,num_4,16,num_4,0.816768057703,,,2017_May_16_1205,59.9877438458,FEMA4ImagesEEG,001,100445,
AFNE01.JPG,AFNE01.JPG,AFNE01.JPG,AFNE01.JPG,AFNE01.JPG,AFNE01.JPG,,,,,,,,,,,,,5,2,52,8,,,,,,,,,,,AMNE06.jpg,AMSA13.jpg,AMSA20.jpg,AMNE08.jpg,AMSA20.jpg,MS,2,num_2,32,num_6,0.833509365752,,,2017_May_16_1205,59.9877438458,FEMA4ImagesEEG,001,100445,
AFNE01.JPG,AFNE01.JPG,AFNE01.JPG,AFNE01.JPG,AFNE01.JPG,AFNE01.JPG,,,,,,,,,,,,,5,3,53,6,,,,,,,,,,,AMNE18.jpg,AMNE05.jpg,AMSA06.jpg,AMSA08.jpg,AMNE05.jpg,MN,1,num_6,32,num_2,1.25016189316,,,2017_May_16_1205,59.9877438458,FEMA4ImagesEEG,001,100445,
AFNE01.JPG,AFNE01.JPG,AFNE01.JPG,AFNE01.JPG,AFNE01.JPG,AFNE01.JPG,,,,,,,,,,,,,5,4,54,1,,,,,,,,,,,AMNE02.jpg,AMNE03.jpg,AMSA06.jpg,AMSA20.jpg,AMSA06.jpg,MS,2,num_2,32,num_4,0.350166800468,,,2017_May_16_1205,59.9877438458,FEMA4ImagesEEG,001,100445,
AFNE01.JPG,AFNE01.JPG,AFNE01.JPG,AFNE01.JPG,AFNE01.JPG,AFNE01.JPG,,,,,,,,,,,,,5,5,55,9,,,,,,,,,,,AMNE11.jpg,AMSA09.jpg,AMNE13.jpg,AMSA05.jpg,AMSA09.jpg,MS,2,num_6,16,num_6,1.0167531754,,,2017_May_16_1205,59.9877438458,FEMA4ImagesEEG,001,100445,
AFNE01.JPG,AFNE01.JPG,AFNE01.JPG,AFNE01.JPG,AFNE01.JPG,AFNE01.JPG,,,,,,,,,,,,,5,6,56,7,,,,,,,,,,,AMSA14.jpg,AMSA10.jpg,AMNE03.jpg,AMNE06.jpg,AMSA14.jpg,MS,2,num_8,16,num_8,0.600168003242,,,2017_May_16_1205,59.9877438458,FEMA4ImagesEEG,001,100445,
AFNE01.JPG,AFNE01.JPG,AFNE01.JPG,AFNE01.JPG,AFNE01.JPG,AFNE01.JPG,,,,,,,,,,,,,5,7,57,5,,,,,,,,,,,AMNE16.jpg,AMSA12.jpg,AMNE15.jpg,AMSA07.jpg,AMNE16.jpg,MN,1,num_8,32,num_6,0.733448329054,,,2017_May_16_1205,59.9877438458,FEMA4ImagesEEG,001,100445,
AFNE01.JPG,AFNE01.JPG,AFNE01.JPG,AFNE01.JPG,AFNE01.JPG,AFNE01.JPG,,,,,,,,,,,,,5,8,58,2,,,,,,,,,,,AMSA08.jpg,AMNE13.jpg,AMSA19.jpg,AMNE08.jpg,AMNE08.jpg,MN,1,num_4,32,num_8,0.900119539532,,,2017_May_16_1205,59.9877438458,FEMA4ImagesEEG,001,100445,
AFNE01.JPG,AFNE01.JPG,AFNE01.JPG,AFNE01.JPG,AFNE01.JPG,AFNE01.JPG,,,,,,,,,,,,,5,9,59,0,,,,,,,,,,,AMSA13.jpg,AMNE09.jpg,AMNE15.jpg,AMSA06.jpg,AMSA13.jpg,MS,2,num_8,32,num_6,1.05015400297,,,2017_May_16_1205,59.9877438458,FEMA4ImagesEEG,001,100445,
,,,,,,,,,,,,,,,,,,,,,,,,,,,,,,,,,,,,,,,,,,,space,67.8945611276,2017_May_16_1205,59.9877438458,FEMA4ImagesEEG,001,100445,
AFNE01.JPG,AFNE01.JPG,AFNE01.JPG,AFNE01.JPG,AFNE01.JPG,AFNE01.JPG,,,,,,,,,,,,,,,,,0,0,0,7,,,,,,,AFSA06.jpg,AFSA15.jpg,AFNE10.jpg,AFNE09.jpg,AFNE10.jpg,FN,3,num_2,16,num_2,1.08352147365,,,2017_May_16_1205,59.9877438458,FEMA4ImagesEEG,001,100445,
AFNE01.JPG,AFNE01.JPG,AFNE01.JPG,AFNE01.JPG,AFNE01.JPG,AFNE01.JPG,,,,,,,,,,,,,,,,,0,1,1,3,,,,,,,AFNE15.jpg,AFSA05.jpg,AFSA20.jpg,AFNE12.jpg,AFNE12.jpg,FN,3,num_4,32,num_8,0.866732183014,,,2017_May_16_1205,59.9877438458,FEMA4ImagesEEG,001,100445,
AFNE01.JPG,AFNE01.JPG,AFNE01.JPG,AFNE01.JPG,AFNE01.JPG,AFNE01.JPG,,,,,,,,,,,,,,,,,0,2,2,9,,,,,,,AFNE01.jpg,AFSA06.jpg,AFSA16.jpg,AFNE16.jpg,AFNE16.jpg,FN,3,num_4,32,num_6,1.36673138116,,,2017_May_16_1205,59.9877438458,FEMA4ImagesEEG,001,100445,
AFNE01.JPG,AFNE01.JPG,AFNE01.JPG,AFNE01.JPG,AFNE01.JPG,AFNE01.JPG,,,,,,,,,,,,,,,,,0,3,3,5,,,,,,,AFNE19.jpg,AFNE15.jpg,AFSA18.jpg,AFSA05.jpg,AFNE19.jpg,FN,3,num_8,32,num_2,1.08343006296,,,2017_May_16_1205,59.9877438458,FEMA4ImagesEEG,001,100445,
AFNE01.JPG,AFNE01.JPG,AFNE01.JPG,AFNE01.JPG,AFNE01.JPG,AFNE01.JPG,,,,,,,,,,,,,,,,,0,4,4,0,,,,,,,AFNE16.jpg,AFSA01.jpg,AFNE03.jpg,AFSA18.jpg,AFNE03.jpg,FN,3,num_2,32,num_4,1.00010391953,,,2017_May_16_1205,59.9877438458,FEMA4ImagesEEG,001,100445,
AFNE01.JPG,AFNE01.JPG,AFNE01.JPG,AFNE01.JPG,AFNE01.JPG,AFNE01.JPG,,,,,,,,,,,,,,,,,0,5,5,8,,,,,,,AFSA04.jpg,AFNE12.jpg,AFNE19.jpg,AFSA10.jpg,AFSA04.jpg,FS,4,num_8,32,num_6,0.916797341197,,,2017_May_16_1205,59.9877438458,FEMA4ImagesEEG,001,100445,
AFNE01.JPG,AFNE01.JPG,AFNE01.JPG,AFNE01.JPG,AFNE01.JPG,AFNE01.JPG,,,,,,,,,,,,,,,,,0,6,6,4,,,,,,,AFSA06.jpg,AFNE14.jpg,AFNE01.jpg,AFSA01.jpg,AFNE14.jpg,FN,3,num_6,16,num_6,0.483793524727,,,2017_May_16_1205,59.9877438458,FEMA4ImagesEEG,001,100445,
AFNE01.JPG,AFNE01.JPG,AFNE01.JPG,AFNE01.JPG,AFNE01.JPG,AFNE01.JPG,,,,,,,,,,,,,,,,,0,7,7,2,,,,,,,AFNE04.jpg,AFSA19.jpg,AFNE01.jpg,AFSA20.jpg,AFNE01.jpg,FN,3,num_2,32,num_6,0.933439861539,,,2017_May_16_1205,59.9877438458,FEMA4ImagesEEG,001,100445,
AFNE01.JPG,AFNE01.JPG,AFNE01.JPG,AFNE01.JPG,AFNE01.JPG,AFNE01.JPG,,,,,,,,,,,,,,,,,0,8,8,6,,,,,,,AFNE15.jpg,AFSA01.jpg,AFSA12.jpg,AFNE18.jpg,AFSA01.jpg,FS,4,num_6,32,num_2,0.733544230105,,,2017_May_16_1205,59.9877438458,FEMA4ImagesEEG,001,100445,
AFNE01.JPG,AFNE01.JPG,AFNE01.JPG,AFNE01.JPG,AFNE01.JPG,AFNE01.JPG,,,,,,,,,,,,,,,,,0,9,9,1,,,,,,,AFNE09.jpg,AFSA08.jpg,AFSA14.jpg,AFNE17.jpg,AFNE09.jpg,FN,3,num_8,16,num_8,1.11675840345,,,2017_May_16_1205,59.9877438458,FEMA4ImagesEEG,001,100445,
AFNE01.JPG,AFNE01.JPG,AFNE01.JPG,AFNE01.JPG,AFNE01.JPG,AFNE01.JPG,,,,,,,,,,,,,,,,,1,0,10,5,,,,,,,AFNE02.jpg,AFSA04.jpg,AFSA16.jpg,AFNE04.jpg,AFSA04.jpg,FS,4,num_6,32,num_2,2.56663855921,,,2017_May_16_1205,59.9877438458,FEMA4ImagesEEG,001,100445,
AFNE01.JPG,AFNE01.JPG,AFNE01.JPG,AFNE01.JPG,AFNE01.JPG,AFNE01.JPG,,,,,,,,,,,,,,,,,1,1,11,1,,,,,,,AFNE13.jpg,AFSA02.jpg,AFNE09.jpg,AFSA20.jpg,AFSA20.jpg,FS,4,num_4,16,num_4,0.783464093394,,,2017_May_16_1205,59.9877438458,FEMA4ImagesEEG,001,100445,
AFNE01.JPG,AFNE01.JPG,AFNE01.JPG,AFNE01.JPG,AFNE01.JPG,AFNE01.JPG,,,,,,,,,,,,,,,,,1,2,12,4,,,,,,,AFNE12.jpg,AFSA05.jpg,AFSA18.jpg,AFNE19.jpg,AFSA18.jpg,FS,4,num_2,32,num_6,3.53337917767,,,2017_May_16_1205,59.9877438458,FEMA4ImagesEEG,001,100445,
AFNE01.JPG,AFNE01.JPG,AFNE01.JPG,AFNE01.JPG,AFNE01.JPG,AFNE01.JPG,,,,,,,,,,,,,,,,,1,3,13,2,,,,,,,AFSA06.jpg,AFNE06.jpg,AFSA07.jpg,AFNE04.jpg,AFSA06.jpg,FS,4,num_8,48,None,,,,2017_May_16_1205,59.9877438458,FEMA4ImagesEEG,001,100445,
AFNE01.JPG,AFNE01.JPG,AFNE01.JPG,AFNE01.JPG,AFNE01.JPG,AFNE01.JPG,,,,,,,,,,,,,,,,,1,4,14,7,,,,,,,AFSA06.jpg,AFNE15.jpg,AFNE09.jpg,AFSA01.jpg,AFNE09.jpg,FN,3,num_2,16,num_2,2.48336373407,,,2017_May_16_1205,59.9877438458,FEMA4ImagesEEG,001,100445,
AFNE01.JPG,AFNE01.JPG,AFNE01.JPG,AFNE01.JPG,AFNE01.JPG,AFNE01.JPG,,,,,,,,,,,,,,,,,1,5,15,8,,,,,,,AFSA15.jpg,AFNE19.jpg,AFSA10.jpg,AFNE05.jpg,AFSA10.jpg,FS,4,num_2,32,num_8,0.76676383998,,,2017_May_16_1205,59.9877438458,FEMA4ImagesEEG,001,100445,
AFNE01.JPG,AFNE01.JPG,AFNE01.JPG,AFNE01.JPG,AFNE01.JPG,AFNE01.JPG,,,,,,,,,,,,,,,,,1,6,16,6,,,,,,,AFSA15.jpg,AFNE08.jpg,AFSA20.jpg,AFNE03.jpg,AFNE08.jpg,FN,3,num_6,32,num_8,0.850122378077,,,2017_May_16_1205,59.9877438458,FEMA4ImagesEEG,001,100445,
AFNE01.JPG,AFNE01.JPG,AFNE01.JPG,AFNE01.JPG,AFNE01.JPG,AFNE01.JPG,,,,,,,,,,,,,,,,,1,7,17,0,,,,,,,AFNE13.jpg,AFNE01.jpg,AFSA11.jpg,AFSA09.jpg,AFSA09.jpg,FS,4,num_4,32,num_2,2.93324453131,,,2017_May_16_1205,59.9877438458,FEMA4ImagesEEG,001,100445,
AFNE01.JPG,AFNE01.JPG,AFNE01.JPG,AFNE01.JPG,AFNE01.JPG,AFNE01.JPG,,,,,,,,,,,,,,,,,1,8,18,9,,,,,,,AFNE20.jpg,AFNE14.jpg,AFSA12.jpg,AFSA06.jpg,AFNE14.jpg,FN,3,num_6,16,num_6,0.800139329149,,,2017_May_16_1205,59.9877438458,FEMA4ImagesEEG,001,100445,
AFNE01.JPG,AFNE01.JPG,AFNE01.JPG,AFNE01.JPG,AFNE01.JPG,AFNE01.JPG,,,,,,,,,,,,,,,,,1,9,19,3,,,,,,,AFSA13.jpg,AFNE18.jpg,AFSA10.jpg,AFNE01.jpg,AFSA10.jpg,FS,4,num_2,32,num_8,1.25007753872,,,2017_May_16_1205,59.9877438458,FEMA4ImagesEEG,001,100445,
AFNE01.JPG,AFNE01.JPG,AFNE01.JPG,AFNE01.JPG,AFNE01.JPG,AFNE01.JPG,,,,,,,,,,,,,,,,,2,0,20,7,,,,,,,AFSA15.jpg,AFSA02.jpg,AFNE10.jpg,AFNE13.jpg,AFNE13.jpg,FN,3,num_4,16,num_4,1.06657457173,,,2017_May_16_1205,59.9877438458,FEMA4ImagesEEG,001,100445,
AFNE01.JPG,AFNE01.JPG,AFNE01.JPG,AFNE01.JPG,AFNE01.JPG,AFNE01.JPG,,,,,,,,,,,,,,,,,2,1,21,2,,,,,,,AFNE07.jpg,AFSA04.jpg,AFSA10.jpg,AFNE06.jpg,AFSA04.jpg,FS,4,num_6,32,num_4,1.73341689661,,,2017_May_16_1205,59.9877438458,FEMA4ImagesEEG,001,100445,
AFNE01.JPG,AFNE01.JPG,AFNE01.JPG,AFNE01.JPG,AFNE01.JPG,AFNE01.JPG,,,,,,,,,,,,,,,,,2,2,22,0,,,,,,,AFSA13.jpg,AFNE20.jpg,AFNE19.jpg,AFSA18.jpg,AFSA18.jpg,FS,4,num_4,32,num_8,1.2334629227,,,2017_May_16_1205,59.9877438458,FEMA4ImagesEEG,001,100445,
AFNE01.JPG,AFNE01.JPG,AFNE01.JPG,AFNE01.JPG,AFNE01.JPG,AFNE01.JPG,,,,,,,,,,,,,,,,,2,3,23,8,,,,,,,AFNE08.jpg,AFSA07.jpg,AFNE12.jpg,AFSA06.jpg,AFSA07.jpg,FS,4,num_6,16,num_6,0.933447238545,,,2017_May_16_1205,59.9877438458,FEMA4ImagesEEG,001,100445,
AFNE01.JPG,AFNE01.JPG,AFNE01.JPG,AFNE01.JPG,AFNE01.JPG,AFNE01.JPG,,,,,,,,,,,,,,,,,2,4,24,3,,,,,,,AFNE08.jpg,AFSA09.jpg,AFNE10.jpg,AFSA01.jpg,AFNE08.jpg,FN,3,num_8,32,num_2,0.65010454497,,,2017_May_16_1205,59.9877438458,FEMA4ImagesEEG,001,100445,
AFNE01.JPG,AFNE01.JPG,AFNE01.JPG,AFNE01.JPG,AFNE01.JPG,AFNE01.JPG,,,,,,,,,,,,,,,,,2,5,25,9,,,,,,,AFSA18.jpg,AFSA08.jpg,AFNE20.jpg,AFNE11.jpg,AFSA18.jpg,FS,4,num_8,16,num_8,0.71685231592,,,2017_May_16_1205,59.9877438458,FEMA4ImagesEEG,001,100445,
AFNE01.JPG,AFNE01.JPG,AFNE01.JPG,AFNE01.JPG,AFNE01.JPG,AFNE01.JPG,,,,,,,,,,,,,,,,,2,6,26,4,,,,,,,AFNE19.jpg,AFSA14.jpg,AFSA09.jpg,AFNE13.jpg,AFNE13.jpg,FN,3,num_4,32,num_8,1.16671675546,,,2017_May_16_1205,59.9877438458,FEMA4ImagesEEG,001,100445,
AFNE01.JPG,AFNE01.JPG,AFNE01.JPG,AFNE01.JPG,AFNE01.JPG,AFNE01.JPG,,,,,,,,,,,,,,,,,2,7,27,5,,,,,,,AFSA17.jpg,AFSA10.jpg,AFNE09.jpg,AFNE02.jpg,AFSA10.jpg,FS,4,num_6,16,num_6,0.76679078208,,,2017_May_16_1205,59.9877438458,FEMA4ImagesEEG,001,100445,
AFNE01.JPG,AFNE01.JPG,AFNE01.JPG,AFNE01.JPG,AFNE01.JPG,AFNE01.JPG,,,,,,,,,,,,,,,,,2,8,28,1,,,,,,,AFNE16.jpg,AFNE17.jpg,AFSA16.jpg,AFSA01.jpg,AFSA16.jpg,FS,4,num_2,32,num_8,0.933443389673,,,2017_May_16_1205,59.9877438458,FEMA4ImagesEEG,001,100445,
AFNE01.JPG,AFNE01.JPG,AFNE01.JPG,AFNE01.JPG,AFNE01.JPG,AFNE01.JPG,,,,,,,,,,,,,,,,,2,9,29,6,,,,,,,AFNE08.jpg,AFSA13.jpg,AFSA14.jpg,AFNE02.jpg,AFSA13.jpg,FS,4,num_6,32,num_2,1.11675263014,,,2017_May_16_1205,59.9877438458,FEMA4ImagesEEG,001,100445,
AFNE01.JPG,AFNE01.JPG,AFNE01.JPG,AFNE01.JPG,AFNE01.JPG,AFNE01.JPG,,,,,,,,,,,,,,,,,3,0,30,3,,,,,,,AFSA06.jpg,AFSA19.jpg,AFNE11.jpg,AFNE08.jpg,AFSA06.jpg,FS,4,num_8,32,num_6,0.950106758071,,,2017_May_16_1205,59.9877438458,FEMA4ImagesEEG,001,100445,
AFNE01.JPG,AFNE01.JPG,AFNE01.JPG,AFNE01.JPG,AFNE01.JPG,AFNE01.JPG,,,,,,,,,,,,,,,,,3,1,31,5,,,,,,,AFSA15.jpg,AFNE11.jpg,AFNE08.jpg,AFSA20.jpg,AFSA15.jpg,FS,4,num_8,32,num_4,0.733470780811,,,2017_May_16_1205,59.9877438458,FEMA4ImagesEEG,001,100445,
AFNE01.JPG,AFNE01.JPG,AFNE01.JPG,AFNE01.JPG,AFNE01.JPG,AFNE01.JPG,,,,,,,,,,,,,,,,,3,2,32,4,,,,,,,AFSA16.jpg,AFNE04.jpg,AFNE20.jpg,AFSA17.jpg,AFNE20.jpg,FN,3,num_2,16,num_2,0.866779973163,,,2017_May_16_1205,59.9877438458,FEMA4ImagesEEG,001,100445,
AFNE01.JPG,AFNE01.JPG,AFNE01.JPG,AFNE01.JPG,AFNE01.JPG,AFNE01.JPG,,,,,,,,,,,,,,,,,3,3,33,0,,,,,,,AFNE08.jpg,AFNE09.jpg,AFSA07.jpg,AFSA18.jpg,AFNE09.jpg,FN,3,num_6,16,num_6,0.86683834772,,,2017_May_16_1205,59.9877438458,FEMA4ImagesEEG,001,100445,
AFNE01.JPG,AFNE01.JPG,AFNE01.JPG,AFNE01.JPG,AFNE01.JPG,AFNE01.JPG,,,,,,,,,,,,,,,,,3,4,34,7,,,,,,,AFNE17.jpg,AFSA04.jpg,AFNE06.jpg,AFSA07.jpg,AFSA04.jpg,FS,4,num_6,32,num_2,1.55007750665,,,2017_May_16_1205,59.9877438458,FEMA4ImagesEEG,001,100445,
AFNE01.JPG,AFNE01.JPG,AFNE01.JPG,AFNE01.JPG,AFNE01.JPG,AFNE01.JPG,,,,,,,,,,,,,,,,,3,5,35,1,,,,,,,AFNE05.jpg,AFSA08.jpg,AFNE19.jpg,AFSA20.jpg,AFSA08.jpg,FS,4,num_6,16,num_6,0.500131663481,,,2017_May_16_1205,59.9877438458,FEMA4ImagesEEG,001,100445,
AFNE01.JPG,AFNE01.JPG,AFNE01.JPG,AFNE01.JPG,AFNE01.JPG,AFNE01.JPG,,,,,,,,,,,,,,,,,3,6,36,6,,,,,,,AFNE12.jpg,AFSA07.jpg,AFNE14.jpg,AFSA12.jpg,AFSA12.jpg,FS,4,num_4,32,num_8,0.95008013671,,,2017_May_16_1205,59.9877438458,FEMA4ImagesEEG,001,100445,
AFNE01.JPG,AFNE01.JPG,AFNE01.JPG,AFNE01.JPG,AFNE01.JPG,AFNE01.JPG,,,,,,,,,,,,,,,,,3,7,37,9,,,,,,,AFSA06.jpg,AFNE12.jpg,AFSA03.jpg,AFNE06.jpg,AFNE12.jpg,FN,3,num_6,16,num_6,1.28364290555,,,2017_May_16_1205,59.9877438458,FEMA4ImagesEEG,001,100445,
AFNE01.JPG,AFNE01.JPG,AFNE01.JPG,AFNE01.JPG,AFNE01.JPG,AFNE01.JPG,,,,,,,,,,,,,,,,,3,8,38,8,,,,,,,AFNE03.jpg,AFSA17.jpg,AFSA18.jpg,AFNE07.jpg,AFNE07.jpg,FN,3,num_4,16,num_4,1.00013759716,,,2017_May_16_1205,59.9877438458,FEMA4ImagesEEG,001,100445,
AFNE01.JPG,AFNE01.JPG,AFNE01.JPG,AFNE01.JPG,AFNE01.JPG,AFNE01.JPG,,,,,,,,,,,,,,,,,3,9,39,2,,,,,,,AFNE03.jpg,AFSA06.jpg,AFSA05.jpg,AFNE11.jpg,AFNE03.jpg,FN,3,num_8,16,num_8,1.21687268285,,,2017_May_16_1205,59.9877438458,FEMA4ImagesEEG,001,100445,
AFNE01.JPG,AFNE01.JPG,AFNE01.JPG,AFNE01.JPG,AFNE01.JPG,AFNE01.JPG,,,,,,,,,,,,,,,,,4,0,40,4,,,,,,,AFSA07.jpg,AFSA11.jpg,AFNE18.jpg,AFNE02.jpg,AFSA11.jpg,FS,4,num_6,32,num_4,1.0167441947,,,2017_May_16_1205,59.9877438458,FEMA4ImagesEEG,001,100445,
AFNE01.JPG,AFNE01.JPG,AFNE01.JPG,AFNE01.JPG,AFNE01.JPG,AFNE01.JPG,,,,,,,,,,,,,,,,,4,1,41,7,,,,,,,AFNE05.jpg,AFNE13.jpg,AFSA18.jpg,AFSA05.jpg,AFSA05.jpg,FS,4,num_4,32,num_2,0.40005298613,,,2017_May_16_1205,59.9877438458,FEMA4ImagesEEG,001,100445,
AFNE01.JPG,AFNE01.JPG,AFNE01.JPG,AFNE01.JPG,AFNE01.JPG,AFNE01.JPG,,,,,,,,,,,,,,,,,4,2,42,6,,,,,,,AFNE09.jpg,AFSA03.jpg,AFNE03.jpg,AFSA02.jpg,AFSA03.jpg,FS,4,num_6,16,num_6,0.850066248699,,,2017_May_16_1205,59.9877438458,FEMA4ImagesEEG,001,100445,
AFNE01.JPG,AFNE01.JPG,AFNE01.JPG,AFNE01.JPG,AFNE01.JPG,AFNE01.JPG,,,,,,,,,,,,,,,,,4,3,43,0,,,,,,,AFSA19.jpg,AFSA05.jpg,AFNE09.jpg,AFNE11.jpg,AFSA05.jpg,FS,4,num_6,32,num_4,1.11676064863,,,2017_May_16_1205,59.9877438458,FEMA4ImagesEEG,001,100445,
AFNE01.JPG,AFNE01.JPG,AFNE01.JPG,AFNE01.JPG,AFNE01.JPG,AFNE01.JPG,,,,,,,,,,,,,,,,,4,4,44,5,,,,,,,AFSA08.jpg,AFNE04.jpg,AFNE03.jpg,AFSA15.jpg,AFSA15.jpg,FS,4,num_4,32,num_8,1.05018286951,,,2017_May_16_1205,59.9877438458,FEMA4ImagesEEG,001,100445,
AFNE01.JPG,AFNE01.JPG,AFNE01.JPG,AFNE01.JPG,AFNE01.JPG,AFNE01.JPG,,,,,,,,,,,,,,,,,4,5,45,1,,,,,,,AFSA02.jpg,AFSA11.jpg,AFNE10.jpg,AFNE08.jpg,AFNE10.jpg,FN,3,num_2,32,num_6,1.01681411586,,,2017_May_16_1205,59.9877438458,FEMA4ImagesEEG,001,100445,
AFNE01.JPG,AFNE01.JPG,AFNE01.JPG,AFNE01.JPG,AFNE01.JPG,AFNE01.JPG,,,,,,,,,,,,,,,,,4,6,46,3,,,,,,,AFSA11.jpg,AFNE16.jpg,AFNE12.jpg,AFSA15.jpg,AFNE16.jpg,FN,3,num_6,16,num_6,0.416857479817,,,2017_May_16_1205,59.9877438458,FEMA4ImagesEEG,001,100445,
AFNE01.JPG,AFNE01.JPG,AFNE01.JPG,AFNE01.JPG,AFNE01.JPG,AFNE01.JPG,,,,,,,,,,,,,,,,,4,7,47,9,,,,,,,AFNE05.jpg,AFNE17.jpg,AFSA15.jpg,AFSA05.jpg,AFSA05.jpg,FS,4,num_4,16,num_4,1.05010204321,,,2017_May_16_1205,59.9877438458,FEMA4ImagesEEG,001,100445,
AFNE01.JPG,AFNE01.JPG,AFNE01.JPG,AFNE01.JPG,AFNE01.JPG,AFNE01.JPG,,,,,,,,,,,,,,,,,4,8,48,8,,,,,,,AFNE02.jpg,AFSA02.jpg,AFSA04.jpg,AFNE10.jpg,AFSA02.jpg,FS,4,num_6,16,num_6,1.06681095658,,,2017_May_16_1205,59.9877438458,FEMA4ImagesEEG,001,100445,
AFNE01.JPG,AFNE01.JPG,AFNE01.JPG,AFNE01.JPG,AFNE01.JPG,AFNE01.JPG,,,,,,,,,,,,,,,,,4,9,49,2,,,,,,,AFNE03.jpg,AFNE07.jpg,AFSA15.jpg,AFSA04.jpg,AFSA15.jpg,FS,4,num_2,32,num_8,0.866770671732,,,2017_May_16_1205,59.9877438458,FEMA4ImagesEEG,001,100445,
AFNE01.JPG,AFNE01.JPG,AFNE01.JPG,AFNE01.JPG,AFNE01.JPG,AFNE01.JPG,,,,,,,,,,,,,,,,,5,0,50,9,,,,,,,AFNE15.jpg,AFNE07.jpg,AFSA18.jpg,AFSA19.jpg,AFSA18.jpg,FS,4,num_2,32,num_4,1.56671746108,,,2017_May_16_1205,59.9877438458,FEMA4ImagesEEG,001,100445,
AFNE01.JPG,AFNE01.JPG,AFNE01.JPG,AFNE01.JPG,AFNE01.JPG,AFNE01.JPG,,,,,,,,,,,,,,,,,5,1,51,4,,,,,,,AFSA13.jpg,AFNE18.jpg,AFSA10.jpg,AFNE04.jpg,AFSA10.jpg,FS,4,num_2,16,num_2,2.59999416254,,,2017_May_16_1205,59.9877438458,FEMA4ImagesEEG,001,100445,
AFNE01.JPG,AFNE01.JPG,AFNE01.JPG,AFNE01.JPG,AFNE01.JPG,AFNE01.JPG,,,,,,,,,,,,,,,,,5,2,52,0,,,,,,,AFNE02.jpg,AFSA07.jpg,AFNE11.jpg,AFSA15.jpg,AFNE11.jpg,FN,3,num_2,32,num_4,1.06679876849,,,2017_May_16_1205,59.9877438458,FEMA4ImagesEEG,001,100445,
AFNE01.JPG,AFNE01.JPG,AFNE01.JPG,AFNE01.JPG,AFNE01.JPG,AFNE01.JPG,,,,,,,,,,,,,,,,,5,3,53,8,,,,,,,AFSA19.jpg,AFNE18.jpg,AFSA20.jpg,AFNE10.jpg,AFSA19.jpg,FS,4,num_8,32,num_6,0.800158894242,,,2017_May_16_1205,59.9877438458,FEMA4ImagesEEG,001,100445,
AFNE01.JPG,AFNE01.JPG,AFNE01.JPG,AFNE01.JPG,AFNE01.JPG,AFNE01.JPG,,,,,,,,,,,,,,,,,5,4,54,7,,,,,,,AFSA17.jpg,AFNE11.jpg,AFSA13.jpg,AFNE12.jpg,AFNE11.jpg,FN,3,num_6,32,num_8,1.55006660151,,,2017_May_16_1205,59.9877438458,FEMA4ImagesEEG,001,100445,
AFNE01.JPG,AFNE01.JPG,AFNE01.JPG,AFNE01.JPG,AFNE01.JPG,AFNE01.JPG,,,,,,,,,,,,,,,,,5,5,55,3,,,,,,,AFSA18.jpg,AFSA01.jpg,AFNE05.jpg,AFNE20.jpg,AFSA18.jpg,FS,4,num_8,32,num_2,2.10009022396,,,2017_May_16_1205,59.9877438458,FEMA4ImagesEEG,001,100445,
AFNE01.JPG,AFNE01.JPG,AFNE01.JPG,AFNE01.JPG,AFNE01.JPG,AFNE01.JPG,,,,,,,,,,,,,,,,,5,6,56,6,,,,,,,AFNE16.jpg,AFSA13.jpg,AFNE06.jpg,AFSA20.jpg,AFNE16.jpg,FN,3,num_8,32,num_6,1.01677402345,,,2017_May_16_1205,59.9877438458,FEMA4ImagesEEG,001,100445,
AFNE01.JPG,AFNE01.JPG,AFNE01.JPG,AFNE01.JPG,AFNE01.JPG,AFNE01.JPG,,,,,,,,,,,,,,,,,5,7,57,5,,,,,,,AFSA03.jpg,AFNE09.jpg,AFNE20.jpg,AFSA02.jpg,AFSA02.jpg,FS,4,num_4,16,num_4,1.3001042082,,,2017_May_16_1205,59.9877438458,FEMA4ImagesEEG,001,100445,
AFNE01.JPG,AFNE01.JPG,AFNE01.JPG,AFNE01.JPG,AFNE01.JPG,AFNE01.JPG,,,,,,,,,,,,,,,,,5,8,58,2,,,,,,,AFSA16.jpg,AFNE04.jpg,AFSA13.jpg,AFNE06.jpg,AFSA16.jpg,FS,4,num_8,16,num_8,3.61659242087,,,2017_May_16_1205,59.9877438458,FEMA4ImagesEEG,001,100445,
AFNE01.JPG,AFNE01.JPG,AFNE01.JPG,AFNE01.JPG,AFNE01.JPG,AFNE01.JPG,,,,,,,,,,,,,,,,,5,9,59,1,,,,,,,AFSA19.jpg,AFSA15.jpg,AFNE08.jpg,AFNE12.jpg,AFNE08.jpg,FN,3,num_2,32,num_4,0.633490891167,,,2017_May_16_1205,59.9877438458,FEMA4ImagesEEG,001,100445,
,,,,,,,,,,,,,,,,,,,,,,,,,,,,,,,,,,,,,,,,,,,space,56.5787471089,2017_May_16_1205,59.9877438458,FEMA4ImagesEEG,001,100445,
AFNE01.JPG,AFNE01.JPG,AFNE01.JPG,AFNE01.JPG,AFNE01.JPG,AFNE01.JPG,,,,,,,,,,,,,,,,,,,,,0,0,0,0,,,AMSA17.jpg,AMSA11.jpg,AMNE18.jpg,AMNE02.jpg,AMSA17.jpg,MS,2,num_8,32,num_6,0.833441369017,,,2017_May_16_1205,59.9877438458,FEMA4ImagesEEG,001,100445,
AFNE01.JPG,AFNE01.JPG,AFNE01.JPG,AFNE01.JPG,AFNE01.JPG,AFNE01.JPG,,,,,,,,,,,,,,,,,,,,,0,1,1,5,,,AMSA04.jpg,AMNE19.jpg,AMSA05.jpg,AMNE20.jpg,AMSA04.jpg,MS,2,num_8,16,num_8,0.463629928439,,,2017_May_16_1205,59.9877438458,FEMA4ImagesEEG,001,100445,
AFNE01.JPG,AFNE01.JPG,AFNE01.JPG,AFNE01.JPG,AFNE01.JPG,AFNE01.JPG,,,,,,,,,,,,,,,,,,,,,0,2,2,2,,,AMSA01.jpg,AMNE09.jpg,AMNE07.jpg,AMSA05.jpg,AMNE07.jpg,MN,1,num_2,16,num_2,1.00042113069,,,2017_May_16_1205,59.9877438458,FEMA4ImagesEEG,001,100445,
AFNE01.JPG,AFNE01.JPG,AFNE01.JPG,AFNE01.JPG,AFNE01.JPG,AFNE01.JPG,,,,,,,,,,,,,,,,,,,,,0,3,3,1,,,AMSA15.jpg,AMSA20.jpg,AMNE07.jpg,AMNE19.jpg,AMNE19.jpg,MN,1,num_4,32,num_8,1.96667711208,,,2017_May_16_1205,59.9877438458,FEMA4ImagesEEG,001,100445,
AFNE01.JPG,AFNE01.JPG,AFNE01.JPG,AFNE01.JPG,AFNE01.JPG,AFNE01.JPG,,,,,,,,,,,,,,,,,,,,,0,4,4,9,,,AMNE03.jpg,AMSA13.jpg,AMSA19.jpg,AMNE02.jpg,AMSA13.jpg,MS,2,num_6,32,num_4,0.833443614196,,,2017_May_16_1205,59.9877438458,FEMA4ImagesEEG,001,100445,
AFNE01.JPG,AFNE01.JPG,AFNE01.JPG,AFNE01.JPG,AFNE01.JPG,AFNE01.JPG,,,,,,,,,,,,,,,,,,,,,0,5,5,7,,,AMNE19.jpg,AMSA18.jpg,AMSA20.jpg,AMNE15.jpg,AMSA18.jpg,MS,2,num_6,32,num_8,1.30012537699,,,2017_May_16_1205,59.9877438458,FEMA4ImagesEEG,001,100445,
AFNE01.JPG,AFNE01.JPG,AFNE01.JPG,AFNE01.JPG,AFNE01.JPG,AFNE01.JPG,,,,,,,,,,,,,,,,,,,,,0,6,6,8,,,AMSA01.jpg,AMNE20.jpg,AMSA12.jpg,AMNE03.jpg,AMNE20.jpg,MN,1,num_6,32,num_4,3.63321890424,,,2017_May_16_1205,59.9877438458,FEMA4ImagesEEG,001,100445,
AFNE01.JPG,AFNE01.JPG,AFNE01.JPG,AFNE01.JPG,AFNE01.JPG,AFNE01.JPG,,,,,,,,,,,,,,,,,,,,,0,7,7,6,,,AMNE10.jpg,AMSA05.jpg,AMSA03.jpg,AMNE15.jpg,AMSA05.jpg,MS,2,num_6,16,num_6,1.08345508062,,,2017_May_16_1205,59.9877438458,FEMA4ImagesEEG,001,100445,
AFNE01.JPG,AFNE01.JPG,AFNE01.JPG,AFNE01.JPG,AFNE01.JPG,AFNE01.JPG,,,,,,,,,,,,,,,,,,,,,0,8,8,3,,,AMNE20.jpg,AMSA06.jpg,AMSA11.jpg,AMNE07.jpg,AMSA11.jpg,MS,2,num_2,16,num_2,0.716788488797,,,2017_May_16_1205,59.9877438458,FEMA4ImagesEEG,001,100445,
AFNE01.JPG,AFNE01.JPG,AFNE01.JPG,AFNE01.JPG,AFNE01.JPG,AFNE01.JPG,,,,,,,,,,,,,,,,,,,,,0,9,9,4,,,AMSA17.jpg,AMNE06.jpg,AMNE19.jpg,AMSA04.jpg,AMSA04.jpg,MS,2,num_4,16,num_4,0.500206074998,,,2017_May_16_1205,59.9877438458,FEMA4ImagesEEG,001,100445,
AFNE01.JPG,AFNE01.JPG,AFNE01.JPG,AFNE01.JPG,AFNE01.JPG,AFNE01.JPG,,,,,,,,,,,,,,,,,,,,,1,0,10,7,,,AMNE11.jpg,AMSA02.jpg,AMSA14.jpg,AMNE18.jpg,AMNE11.jpg,MN,1,num_8,32,num_2,3.3999041631,,,2017_May_16_1205,59.9877438458,FEMA4ImagesEEG,001,100445,
AFNE01.JPG,AFNE01.JPG,AFNE01.JPG,AFNE01.JPG,AFNE01.JPG,AFNE01.JPG,,,,,,,,,,,,,,,,,,,,,1,1,11,6,,,AMSA02.jpg,AMNE07.jpg,AMNE19.jpg,AMSA07.jpg,AMSA02.jpg,MS,2,num_8,16,num_8,1.65009428131,,,2017_May_16_1205,59.9877438458,FEMA4ImagesEEG,001,100445,
AFNE01.JPG,AFNE01.JPG,AFNE01.JPG,AFNE01.JPG,AFNE01.JPG,AFNE01.JPG,,,,,,,,,,,,,,,,,,,,,1,2,12,0,,,AMSA05.jpg,AMSA10.jpg,AMNE06.jpg,AMNE01.jpg,AMSA05.jpg,MS,2,num_8,32,num_6,0.916835829914,,,2017_May_16_1205,59.9877438458,FEMA4ImagesEEG,001,100445,
AFNE01.JPG,AFNE01.JPG,AFNE01.JPG,AFNE01.JPG,AFNE01.JPG,AFNE01.JPG,,,,,,,,,,,,,,,,,,,,,1,3,13,3,,,AMSA16.jpg,AMSA13.jpg,AMNE03.jpg,AMNE19.jpg,AMNE19.jpg,MN,1,num_4,32,num_6,0.949993537106,,,2017_May_16_1205,59.9877438458,FEMA4ImagesEEG,001,100445,
AFNE01.JPG,AFNE01.JPG,AFNE01.JPG,AFNE01.JPG,AFNE01.JPG,AFNE01.JPG,,,,,,,,,,,,,,,,,,,,,1,4,14,1,,,AMNE19.jpg,AMSA12.jpg,AMSA16.jpg,AMNE16.jpg,AMSA12.jpg,MS,2,num_6,32,num_8,1.46670453528,,,2017_May_16_1205,59.9877438458,FEMA4ImagesEEG,001,100445,
AFNE01.JPG,AFNE01.JPG,AFNE01.JPG,AFNE01.JPG,AFNE01.JPG,AFNE01.JPG,,,,,,,,,,,,,,,,,,,,,1,5,15,8,,,AMSA10.jpg,AMNE13.jpg,AMNE10.jpg,AMSA17.jpg,AMNE10.jpg,MN,1,num_2,16,num_2,1.05015688962,,,2017_May_16_1205,59.9877438458,FEMA4ImagesEEG,001,100445,
AFNE01.JPG,AFNE01.JPG,AFNE01.JPG,AFNE01.JPG,AFNE01.JPG,AFNE01.JPG,,,,,,,,,,,,,,,,,,,,,1,6,16,2,,,AMSA15.jpg,AMNE09.jpg,AMSA07.jpg,AMNE17.jpg,AMSA07.jpg,MS,2,num_2,48,None,,,,2017_May_16_1205,59.9877438458,FEMA4ImagesEEG,001,100445,
AFNE01.JPG,AFNE01.JPG,AFNE01.JPG,AFNE01.JPG,AFNE01.JPG,AFNE01.JPG,,,,,,,,,,,,,,,,,,,,,1,7,17,9,,,AMNE16.jpg,AMNE19.jpg,AMSA19.jpg,AMSA15.jpg,AMNE19.jpg,MN,1,num_6,32,num_2,0.483475030611,,,2017_May_16_1205,59.9877438458,FEMA4ImagesEEG,001,100445,
AFNE01.JPG,AFNE01.JPG,AFNE01.JPG,AFNE01.JPG,AFNE01.JPG,AFNE01.JPG,,,,,,,,,,,,,,,,,,,,,1,8,18,5,,,AMNE10.jpg,AMSA18.jpg,AMNE06.jpg,AMSA19.jpg,AMSA19.jpg,MS,2,num_4,16,num_4,1.05011487278,,,2017_May_16_1205,59.9877438458,FEMA4ImagesEEG,001,100445,
AFNE01.JPG,AFNE01.JPG,AFNE01.JPG,AFNE01.JPG,AFNE01.JPG,AFNE01.JPG,,,,,,,,,,,,,,,,,,,,,1,9,19,4,,,AMNE19.jpg,AMSA19.jpg,AMNE02.jpg,AMSA01.jpg,AMSA19.jpg,MS,2,num_6,16,num_6,0.666799025086,,,2017_May_16_1205,59.9877438458,FEMA4ImagesEEG,001,100445,
AFNE01.JPG,AFNE01.JPG,AFNE01.JPG,AFNE01.JPG,AFNE01.JPG,AFNE01.JPG,,,,,,,,,,,,,,,,,,,,,2,0,20,1,,,AMNE13.jpg,AMSA07.jpg,AMSA05.jpg,AMNE15.jpg,AMNE13.jpg,MN,1,num_8,16,num_8,0.900175989649,,,2017_May_16_1205,59.9877438458,FEMA4ImagesEEG,001,100445,
AFNE01.JPG,AFNE01.JPG,AFNE01.JPG,AFNE01.JPG,AFNE01.JPG,AFNE01.JPG,,,,,,,,,,,,,,,,,,,,,2,1,21,8,,,AMSA18.jpg,AMNE04.jpg,AMSA15.jpg,AMNE11.jpg,AMSA15.jpg,MS,2,num_2,16,num_2,0.633496985211,,,2017_May_16_1205,59.9877438458,FEMA4ImagesEEG,001,100445,
AFNE01.JPG,AFNE01.JPG,AFNE01.JPG,AFNE01.JPG,AFNE01.JPG,AFNE01.JPG,,,,,,,,,,,,,,,,,,,,,2,2,22,9,,,AMNE20.jpg,AMSA01.jpg,AMSA13.jpg,AMNE08.jpg,AMSA13.jpg,MS,2,num_2,32,num_8,0.900119218793,,,2017_May_16_1205,59.9877438458,FEMA4ImagesEEG,001,100445,
AFNE01.JPG,AFNE01.JPG,AFNE01.JPG,AFNE01.JPG,AFNE01.JPG,AFNE01.JPG,,,,,,,,,,,,,,,,,,,,,2,3,23,3,,,AMNE03.jpg,AMNE17.jpg,AMSA15.jpg,AMSA20.jpg,AMSA20.jpg,MS,2,num_4,32,num_6,0.900092276694,,,2017_May_16_1205,59.9877438458,FEMA4ImagesEEG,001,100445,
AFNE01.JPG,AFNE01.JPG,AFNE01.JPG,AFNE01.JPG,AFNE01.JPG,AFNE01.JPG,,,,,,,,,,,,,,,,,,,,,2,4,24,5,,,AMSA19.jpg,AMNE11.jpg,AMNE09.jpg,AMSA16.jpg,AMNE09.jpg,MN,1,num_2,32,num_4,0.366831772561,,,2017_May_16_1205,59.9877438458,FEMA4ImagesEEG,001,100445,
AFNE01.JPG,AFNE01.JPG,AFNE01.JPG,AFNE01.JPG,AFNE01.JPG,AFNE01.JPG,,,,,,,,,,,,,,,,,,,,,2,5,25,4,,,AMNE09.jpg,AMNE02.jpg,AMSA05.jpg,AMSA12.jpg,AMNE02.jpg,MN,1,num_6,32,num_8,0.60017954986,,,2017_May_16_1205,59.9877438458,FEMA4ImagesEEG,001,100445,
AFNE01.JPG,AFNE01.JPG,AFNE01.JPG,AFNE01.JPG,AFNE01.JPG,AFNE01.JPG,,,,,,,,,,,,,,,,,,,,,2,6,26,2,,,AMSA07.jpg,AMNE01.jpg,AMSA02.jpg,AMNE02.jpg,AMNE02.jpg,MN,1,num_4,32,num_2,0.800107896699,,,2017_May_16_1205,59.9877438458,FEMA4ImagesEEG,001,100445,
AFNE01.JPG,AFNE01.JPG,AFNE01.JPG,AFNE01.JPG,AFNE01.JPG,AFNE01.JPG,,,,,,,,,,,,,,,,,,,,,2,7,27,0,,,AMSA08.jpg,AMNE03.jpg,AMNE18.jpg,AMSA14.jpg,AMNE03.jpg,MN,1,num_6,16,num_6,1.16675171603,,,2017_May_16_1205,59.9877438458,FEMA4ImagesEEG,001,100445,
AFNE01.JPG,AFNE01.JPG,AFNE01.JPG,AFNE01.JPG,AFNE01.JPG,AFNE01.JPG,,,,,,,,,,,,,,,,,,,,,2,8,28,6,,,AMNE07.jpg,AMNE03.jpg,AMSA02.jpg,AMSA07.jpg,AMSA02.jpg,MS,2,num_2,32,num_4,0.850110510728,,,2017_May_16_1205,59.9877438458,FEMA4ImagesEEG,001,100445,
AFNE01.JPG,AFNE01.JPG,AFNE01.JPG,AFNE01.JPG,AFNE01.JPG,AFNE01.JPG,,,,,,,,,,,,,,,,,,,,,2,9,29,7,,,AMSA16.jpg,AMNE02.jpg,AMNE08.jpg,AMSA20.jpg,AMSA16.jpg,MS,2,num_8,16,num_8,1.98337961067,,,2017_May_16_1205,59.9877438458,FEMA4ImagesEEG,001,100445,
AFNE01.JPG,AFNE01.JPG,AFNE01.JPG,AFNE01.JPG,AFNE01.JPG,AFNE01.JPG,,,,,,,,,,,,,,,,,,,,,3,0,30,0,,,AMNE08.jpg,AMSA19.jpg,AMNE20.jpg,AMSA04.jpg,AMNE20.jpg,MN,1,num_2,32,num_6,0.549860686886,,,2017_May_16_1205,59.9877438458,FEMA4ImagesEEG,001,100445,
AFNE01.JPG,AFNE01.JPG,AFNE01.JPG,AFNE01.JPG,AFNE01.JPG,AFNE01.JPG,,,,,,,,,,,,,,,,,,,,,3,1,31,5,,,AMNE02.jpg,AMSA04.jpg,AMNE03.jpg,AMSA02.jpg,AMSA04.jpg,MS,2,num_6,16,num_6,0.966965777436,,,2017_May_16_1205,59.9877438458,FEMA4ImagesEEG,001,100445,
AFNE01.JPG,AFNE01.JPG,AFNE01.JPG,AFNE01.JPG,AFNE01.JPG,AFNE01.JPG,,,,,,,,,,,,,,,,,,,,,3,2,32,1,,,AMSA09.jpg,AMNE11.jpg,AMNE04.jpg,AMSA10.jpg,AMNE04.jpg,MN,1,num_2,32,num_8,1.00012765424,,,2017_May_16_1205,59.9877438458,FEMA4ImagesEEG,001,100445,
AFNE01.JPG,AFNE01.JPG,AFNE01.JPG,AFNE01.JPG,AFNE01.JPG,AFNE01.JPG,,,,,,,,,,,,,,,,,,,,,3,3,33,9,,,AMSA04.jpg,AMNE06.jpg,AMSA17.jpg,AMNE07.jpg,AMNE06.jpg,MN,1,num_6,48,None,,,,2017_May_16_1205,59.9877438458,FEMA4ImagesEEG,001,100445,
AFNE01.JPG,AFNE01.JPG,AFNE01.JPG,AFNE01.JPG,AFNE01.JPG,AFNE01.JPG,,,,,,,,,,,,,,,,,,,,,3,4,34,2,,,AMSA03.jpg,AMNE03.jpg,AMNE05.jpg,AMSA20.jpg,AMSA03.jpg,MS,2,num_8,32,num_2,0.350136009496,,,2017_May_16_1205,59.9877438458,FEMA4ImagesEEG,001,100445,
AFNE01.JPG,AFNE01.JPG,AFNE01.JPG,AFNE01.JPG,AFNE01.JPG,AFNE01.JPG,,,,,,,,,,,,,,,,,,,,,3,5,35,6,,,AMSA03.jpg,AMSA12.jpg,AMNE10.jpg,AMNE06.jpg,AMSA12.jpg,MS,2,num_6,32,num_8,1.06676765678,,,2017_May_16_1205,59.9877438458,FEMA4ImagesEEG,001,100445,
AFNE01.JPG,AFNE01.JPG,AFNE01.JPG,AFNE01.JPG,AFNE01.JPG,AFNE01.JPG,,,,,,,,,,,,,,,,,,,,,3,6,36,3,,,AMSA05.jpg,AMSA09.jpg,AMNE12.jpg,AMNE14.jpg,AMNE14.jpg,MN,1,num_4,32,num_6,0.516809465145,,,2017_May_16_1205,59.9877438458,FEMA4ImagesEEG,001,100445,
AFNE01.JPG,AFNE01.JPG,AFNE01.JPG,AFNE01.JPG,AFNE01.JPG,AFNE01.JPG,,,,,,,,,,,,,,,,,,,,,3,7,37,4,,,AMNE16.jpg,AMNE10.jpg,AMSA14.jpg,AMSA12.jpg,AMSA12.jpg,MS,2,num_4,32,num_6,0.900134614283,,,2017_May_16_1205,59.9877438458,FEMA4ImagesEEG,001,100445,
AFNE01.JPG,AFNE01.JPG,AFNE01.JPG,AFNE01.JPG,AFNE01.JPG,AFNE01.JPG,,,,,,,,,,,,,,,,,,,,,3,8,38,7,,,AMSA08.jpg,AMNE06.jpg,AMNE18.jpg,AMSA15.jpg,AMNE06.jpg,MN,1,num_6,16,num_6,1.23347799744,,,2017_May_16_1205,59.9877438458,FEMA4ImagesEEG,001,100445,
AFNE01.JPG,AFNE01.JPG,AFNE01.JPG,AFNE01.JPG,AFNE01.JPG,AFNE01.JPG,,,,,,,,,,,,,,,,,,,,,3,9,39,8,,,AMSA08.jpg,AMNE11.jpg,AMNE13.jpg,AMSA18.jpg,AMNE11.jpg,MN,1,num_6,32,num_8,1.41670961901,,,2017_May_16_1205,59.9877438458,FEMA4ImagesEEG,001,100445,
