IPosition2,IPosition3,IPosition1,IPosition6,IPosition4,IPosition5,TrialsF1.thisRepN,TrialsF1.thisTrialN,TrialsF1.thisN,TrialsF1.thisIndex,TrialsM1.thisRepN,TrialsM1.thisTrialN,TrialsM1.thisN,TrialsM1.thisIndex,TrialsF2.thisRepN,TrialsF2.thisTrialN,TrialsF2.thisN,TrialsF2.thisIndex,TrialsM2.thisRepN,TrialsM2.thisTrialN,TrialsM2.thisN,TrialsM2.thisIndex,TrialsF3.thisRepN,TrialsF3.thisTrialN,TrialsF3.thisN,TrialsF3.thisIndex,TrialsM3.thisRepN,TrialsM3.thisTrialN,TrialsM3.thisN,TrialsM3.thisIndex,InstrKey_resp.keys,InstrKey_resp.rt,Image0 _Position,Image1 _Position,Image2 _Position,Image3 _Position,Center_image,condition,code,correct_answer,accuracy,Key_Resp.keys,Key_Resp.rt,BreakKey_resp.keys,BreakKey_resp.rt,date,frameRate,expName,session,participant,
,,,,,,,,,,,,,,,,,,,,,,,,,,,,,,space,12.832901564,,,,,,,,,,,,,,2017_May_18_1435,60.0039068691,FEMA4ImagesEEG,001,100484,
AFSA21.JPG,AFNE23.JPG,AFNE21.JPG,AFSA25.JPG,AFNE25.JPG,AFSA23.JPG,0,0,0,4,,,,,,,,,,,,,,,,,,,,,,,AFSA01.jpg,AFNE11.jpg,AFSA09.jpg,AFNE14.jpg,AFSA01.jpg,FS,4,num_8,16,num_8,2.96663054066,,,2017_May_18_1435,60.0039068691,FEMA4ImagesEEG,001,100484,
AMSA21.JPG,AMNE22.JPG,AMNE21.JPG,AMSA23.JPG,AMSA22.JPG,AMNE23.JPG,0,1,1,1,,,,,,,,,,,,,,,,,,,,,,,AFSA10.jpg,AFSA18.jpg,AFNE19.jpg,AFNE04.jpg,AFNE04.jpg,FN,3,num_4,16,num_4,0.783447318958,,,2017_May_18_1435,60.0039068691,FEMA4ImagesEEG,001,100484,
AFSA25.JPG,AFNE24.JPG,AFSA24.JPG,AFNE21.JPG,AFSA21.JPG,AFNE25.JPG,0,2,2,2,,,,,,,,,,,,,,,,,,,,,,,AFNE07.jpg,AFSA18.jpg,AFNE15.jpg,AFSA10.jpg,AFSA10.jpg,FS,4,num_4,32,num_2,2.88331514203,,,2017_May_18_1435,60.0039068691,FEMA4ImagesEEG,001,100484,
AMNE23.JPG,AMNE24.JPG,AMNE22.JPG,AMSA24.JPG,AMSA22.JPG,AMSA23.JPG,0,3,3,9,,,,,,,,,,,,,,,,,,,,,,,AFNE13.jpg,AFSA02.jpg,AFNE19.jpg,AFSA12.jpg,AFSA12.jpg,FS,4,num_4,16,num_4,1.08345299604,,,2017_May_18_1435,60.0039068691,FEMA4ImagesEEG,001,100484,
AFNE22.JPG,AFSA24.JPG,AFSA22.JPG,AFNE25.JPG,AFNE24.JPG,AFSA25.JPG,0,4,4,6,,,,,,,,,,,,,,,,,,,,,,,AFNE04.jpg,AFSA15.jpg,AFSA19.jpg,AFNE20.jpg,AFSA19.jpg,FS,4,num_2,32,num_6,0.966748893683,,,2017_May_18_1435,60.0039068691,FEMA4ImagesEEG,001,100484,
AMNE22.JPG,AMSA24.JPG,AMSA22.JPG,AMNE25.JPG,AMNE24.JPG,AMSA25.JPG,0,5,5,7,,,,,,,,,,,,,,,,,,,,,,,AFSA15.jpg,AFNE01.jpg,AFNE14.jpg,AFSA01.jpg,AFNE14.jpg,FN,3,num_2,32,num_8,2.46663519139,,,2017_May_18_1435,60.0039068691,FEMA4ImagesEEG,001,100484,
AMSA21.JPG,AMNE23.JPG,AMNE21.JPG,AMSA25.JPG,AMNE25.JPG,AMSA23.JPG,0,6,6,5,,,,,,,,,,,,,,,,,,,,,,,AFSA04.jpg,AFNE10.jpg,AFSA12.jpg,AFNE11.jpg,AFSA04.jpg,FS,4,num_8,32,num_2,2.51666227788,,,2017_May_18_1435,60.0039068691,FEMA4ImagesEEG,001,100484,
AMSA25.JPG,AMNE24.JPG,AMSA24.JPG,AMNE26.JPG,AMSA21.JPG,AMNE25.JPG,0,7,7,3,,,,,,,,,,,,,,,,,,,,,,,AFSA11.jpg,AFNE18.jpg,AFSA19.jpg,AFNE08.jpg,AFSA19.jpg,FS,4,num_2,32,num_6,2.96664593618,,,2017_May_18_1435,60.0039068691,FEMA4ImagesEEG,001,100484,
AFSA21.JPG,AFNE22.JPG,AFNE21.JPG,AFSA23.JPG,AFSA22.JPG,AFNE23.JPG,0,8,8,0,,,,,,,,,,,,,,,,,,,,,,,AFNE09.jpg,AFSA08.jpg,AFSA12.jpg,AFNE10.jpg,AFNE09.jpg,FN,3,num_8,16,num_8,0.700131599588,,,2017_May_18_1435,60.0039068691,FEMA4ImagesEEG,001,100484,
AFNE23.JPG,AFNE24.JPG,AFNE22.JPG,AFSA24.JPG,AFSA22.JPG,AFSA23.JPG,0,9,9,8,,,,,,,,,,,,,,,,,,,,,,,AFSA06.jpg,AFNE13.jpg,AFNE19.jpg,AFSA16.jpg,AFNE19.jpg,FN,3,num_2,32,num_4,1.01676603724,,,2017_May_18_1435,60.0039068691,FEMA4ImagesEEG,001,100484,
AMNE23.JPG,AMNE24.JPG,AMNE22.JPG,AMSA24.JPG,AMSA22.JPG,AMSA23.JPG,,,,,0,0,0,9,,,,,,,,,,,,,,,,,,,AMSA08.jpg,AMNE08.jpg,AMSA04.jpg,AMNE01.jpg,AMNE08.jpg,MN,1,num_6,16,num_6,0.866780679018,,,2017_May_18_1435,60.0039068691,FEMA4ImagesEEG,001,100484,
AMNE22.JPG,AMSA24.JPG,AMSA22.JPG,AMNE25.JPG,AMNE24.JPG,AMSA25.JPG,,,,,0,1,1,7,,,,,,,,,,,,,,,,,,,AMSA01.jpg,AMNE06.jpg,AMSA10.jpg,AMNE16.jpg,AMNE06.jpg,MN,1,num_6,32,num_4,2.05003574646,,,2017_May_18_1435,60.0039068691,FEMA4ImagesEEG,001,100484,
AFNE22.JPG,AFSA24.JPG,AFSA22.JPG,AFNE25.JPG,AFNE24.JPG,AFSA25.JPG,,,,,0,2,2,6,,,,,,,,,,,,,,,,,,,AMSA18.jpg,AMSA04.jpg,AMNE04.jpg,AMNE13.jpg,AMNE04.jpg,MN,1,num_2,16,num_2,1.98339561568,,,2017_May_18_1435,60.0039068691,FEMA4ImagesEEG,001,100484,
AFSA21.JPG,AFNE23.JPG,AFNE21.JPG,AFSA25.JPG,AFNE25.JPG,AFSA23.JPG,,,,,0,3,3,4,,,,,,,,,,,,,,,,,,,AMSA19.jpg,AMSA20.jpg,AMNE08.jpg,AMNE20.jpg,AMSA20.jpg,MS,2,num_6,16,num_6,1.8833895537,,,2017_May_18_1435,60.0039068691,FEMA4ImagesEEG,001,100484,
AMSA25.JPG,AMNE24.JPG,AMSA24.JPG,AMNE26.JPG,AMSA21.JPG,AMNE25.JPG,,,,,0,4,4,3,,,,,,,,,,,,,,,,,,,AMNE18.jpg,AMNE05.jpg,AMSA12.jpg,AMSA10.jpg,AMNE05.jpg,MN,1,num_6,16,num_6,0.6334738281,,,2017_May_18_1435,60.0039068691,FEMA4ImagesEEG,001,100484,
AFNE23.JPG,AFNE24.JPG,AFNE22.JPG,AFSA24.JPG,AFSA22.JPG,AFSA23.JPG,,,,,0,5,5,8,,,,,,,,,,,,,,,,,,,AMNE16.jpg,AMSA10.jpg,AMSA05.jpg,AMNE01.jpg,AMSA05.jpg,MS,2,num_2,32,num_4,1.73337725332,,,2017_May_18_1435,60.0039068691,FEMA4ImagesEEG,001,100484,
AMSA21.JPG,AMNE23.JPG,AMNE21.JPG,AMSA25.JPG,AMNE25.JPG,AMSA23.JPG,,,,,0,6,6,5,,,,,,,,,,,,,,,,,,,AMNE10.jpg,AMSA02.jpg,AMNE17.jpg,AMSA01.jpg,AMSA01.jpg,MS,2,num_4,32,num_2,1.63340262385,,,2017_May_18_1435,60.0039068691,FEMA4ImagesEEG,001,100484,
AFSA21.JPG,AFNE22.JPG,AFNE21.JPG,AFSA23.JPG,AFSA22.JPG,AFNE23.JPG,,,,,0,7,7,0,,,,,,,,,,,,,,,,,,,AMNE09.jpg,AMNE03.jpg,AMSA08.jpg,AMSA01.jpg,AMSA08.jpg,MS,2,num_2,32,num_8,1.43342898866,,,2017_May_18_1435,60.0039068691,FEMA4ImagesEEG,001,100484,
AFSA25.JPG,AFNE24.JPG,AFSA24.JPG,AFNE21.JPG,AFSA21.JPG,AFNE25.JPG,,,,,0,8,8,2,,,,,,,,,,,,,,,,,,,AMSA12.jpg,AMNE01.jpg,AMSA18.jpg,AMNE18.jpg,AMSA18.jpg,MS,2,num_2,32,num_6,2.48362959544,,,2017_May_18_1435,60.0039068691,FEMA4ImagesEEG,001,100484,
AMSA21.JPG,AMNE22.JPG,AMNE21.JPG,AMSA23.JPG,AMSA22.JPG,AMNE23.JPG,,,,,0,9,9,1,,,,,,,,,,,,,,,,,,,AMSA09.jpg,AMSA08.jpg,AMNE14.jpg,AMNE05.jpg,AMSA09.jpg,MS,2,num_8,16,num_8,1.31683169269,,,2017_May_18_1435,60.0039068691,FEMA4ImagesEEG,001,100484,
AMNE23.JPG,AMNE24.JPG,AMNE22.JPG,AMSA24.JPG,AMSA22.JPG,AMSA23.JPG,,,,,,,,,0,0,0,9,,,,,,,,,,,,,,,AFSA14.jpg,AFSA04.jpg,AFNE14.jpg,AFNE06.jpg,AFSA14.jpg,FS,4,num_8,32,num_4,1.81670484006,,,2017_May_18_1435,60.0039068691,FEMA4ImagesEEG,001,100484,
AMSA21.JPG,AMNE22.JPG,AMNE21.JPG,AMSA23.JPG,AMSA22.JPG,AMNE23.JPG,,,,,,,,,0,1,1,1,,,,,,,,,,,,,,,AFNE04.jpg,AFSA12.jpg,AFNE01.jpg,AFSA02.jpg,AFNE04.jpg,FN,3,num_8,16,num_8,1.05011817662,,,2017_May_18_1435,60.0039068691,FEMA4ImagesEEG,001,100484,
AMNE22.JPG,AMSA24.JPG,AMSA22.JPG,AMNE25.JPG,AMNE24.JPG,AMSA25.JPG,,,,,,,,,0,2,2,7,,,,,,,,,,,,,,,AFSA07.jpg,AFNE05.jpg,AFSA16.jpg,AFNE09.jpg,AFSA07.jpg,FS,4,num_8,32,num_6,4.18320952239,,,2017_May_18_1435,60.0039068691,FEMA4ImagesEEG,001,100484,
AMSA21.JPG,AMNE23.JPG,AMNE21.JPG,AMSA25.JPG,AMNE25.JPG,AMSA23.JPG,,,,,,,,,0,3,3,5,,,,,,,,,,,,,,,AFNE14.jpg,AFSA18.jpg,AFSA08.jpg,AFNE18.jpg,AFSA08.jpg,FS,4,num_2,16,num_2,1.20012085479,,,2017_May_18_1435,60.0039068691,FEMA4ImagesEEG,001,100484,
AFSA25.JPG,AFNE24.JPG,AFSA24.JPG,AFNE21.JPG,AFSA21.JPG,AFNE25.JPG,,,,,,,,,0,4,4,2,,,,,,,,,,,,,,,AFNE20.jpg,AFNE14.jpg,AFSA02.jpg,AFSA12.jpg,AFSA12.jpg,FS,4,num_4,16,num_4,0.61668405612,,,2017_May_18_1435,60.0039068691,FEMA4ImagesEEG,001,100484,
AFSA21.JPG,AFNE22.JPG,AFNE21.JPG,AFSA23.JPG,AFSA22.JPG,AFNE23.JPG,,,,,,,,,0,5,5,0,,,,,,,,,,,,,,,AFSA18.jpg,AFSA14.jpg,AFNE11.jpg,AFNE19.jpg,AFNE11.jpg,FN,3,num_2,32,num_4,0.999860478143,,,2017_May_18_1435,60.0039068691,FEMA4ImagesEEG,001,100484,
AMSA25.JPG,AMNE24.JPG,AMSA24.JPG,AMNE26.JPG,AMSA21.JPG,AMNE25.JPG,,,,,,,,,0,6,6,3,,,,,,,,,,,,,,,AFNE12.jpg,AFSA01.jpg,AFSA08.jpg,AFNE17.jpg,AFSA08.jpg,FS,4,num_2,16,num_2,0.950126227195,,,2017_May_18_1435,60.0039068691,FEMA4ImagesEEG,001,100484,
AFSA21.JPG,AFNE23.JPG,AFNE21.JPG,AFSA25.JPG,AFNE25.JPG,AFSA23.JPG,,,,,,,,,0,7,7,4,,,,,,,,,,,,,,,AFSA05.jpg,AFSA12.jpg,AFNE14.jpg,AFNE15.jpg,AFNE15.jpg,FN,3,num_4,16,num_4,0.833511290519,,,2017_May_18_1435,60.0039068691,FEMA4ImagesEEG,001,100484,
AFNE22.JPG,AFSA24.JPG,AFSA22.JPG,AFNE25.JPG,AFNE24.JPG,AFSA25.JPG,,,,,,,,,0,8,8,6,,,,,,,,,,,,,,,AFSA05.jpg,AFSA08.jpg,AFNE06.jpg,AFNE03.jpg,AFNE03.jpg,FN,3,num_4,32,num_2,1.53365475748,,,2017_May_18_1435,60.0039068691,FEMA4ImagesEEG,001,100484,
AFNE23.JPG,AFNE24.JPG,AFNE22.JPG,AFSA24.JPG,AFSA22.JPG,AFSA23.JPG,,,,,,,,,0,9,9,8,,,,,,,,,,,,,,,AFSA07.jpg,AFNE01.jpg,AFNE13.jpg,AFSA13.jpg,AFSA13.jpg,FS,4,num_4,16,num_4,1.61674146855,,,2017_May_18_1435,60.0039068691,FEMA4ImagesEEG,001,100484,
AFNE22.JPG,AFSA24.JPG,AFSA22.JPG,AFNE25.JPG,AFNE24.JPG,AFSA25.JPG,,,,,,,,,,,,,0,0,0,6,,,,,,,,,,,AMNE14.jpg,AMNE01.jpg,AMSA10.jpg,AMSA12.jpg,AMNE01.jpg,MN,1,num_6,16,num_6,0.750133668364,,,2017_May_18_1435,60.0039068691,FEMA4ImagesEEG,001,100484,
AMSA21.JPG,AMNE22.JPG,AMNE21.JPG,AMSA23.JPG,AMSA22.JPG,AMNE23.JPG,,,,,,,,,,,,,0,1,1,1,,,,,,,,,,,AMNE17.jpg,AMNE18.jpg,AMSA09.jpg,AMSA03.jpg,AMSA03.jpg,MS,2,num_4,16,num_4,0.683581741061,,,2017_May_18_1435,60.0039068691,FEMA4ImagesEEG,001,100484,
AMSA21.JPG,AMNE23.JPG,AMNE21.JPG,AMSA25.JPG,AMNE25.JPG,AMSA23.JPG,,,,,,,,,,,,,0,2,2,5,,,,,,,,,,,AMNE03.jpg,AMSA05.jpg,AMSA12.jpg,AMNE01.jpg,AMSA05.jpg,MS,2,num_6,16,num_6,0.983542835296,,,2017_May_18_1435,60.0039068691,FEMA4ImagesEEG,001,100484,
AFSA25.JPG,AFNE24.JPG,AFSA24.JPG,AFNE21.JPG,AFSA21.JPG,AFNE25.JPG,,,,,,,,,,,,,0,3,3,2,,,,,,,,,,,AMNE11.jpg,AMSA07.jpg,AMNE12.jpg,AMSA16.jpg,AMSA16.jpg,MS,2,num_4,32,num_6,1.23345439126,,,2017_May_18_1435,60.0039068691,FEMA4ImagesEEG,001,100484,
AFSA21.JPG,AFNE23.JPG,AFNE21.JPG,AFSA25.JPG,AFNE25.JPG,AFSA23.JPG,,,,,,,,,,,,,0,4,4,4,,,,,,,,,,,AMSA20.jpg,AMSA11.jpg,AMNE01.jpg,AMNE08.jpg,AMNE08.jpg,MN,1,num_4,32,num_2,1.70011171371,,,2017_May_18_1435,60.0039068691,FEMA4ImagesEEG,001,100484,
AMSA25.JPG,AMNE24.JPG,AMSA24.JPG,AMNE26.JPG,AMSA21.JPG,AMNE25.JPG,,,,,,,,,,,,,0,5,5,3,,,,,,,,,,,AMNE13.jpg,AMSA12.jpg,AMNE17.jpg,AMSA17.jpg,AMSA12.jpg,MS,2,num_6,32,num_8,2.38336277191,,,2017_May_18_1435,60.0039068691,FEMA4ImagesEEG,001,100484,
AFNE23.JPG,AFNE24.JPG,AFNE22.JPG,AFSA24.JPG,AFSA22.JPG,AFSA23.JPG,,,,,,,,,,,,,0,6,6,8,,,,,,,,,,,AMSA11.jpg,AMSA10.jpg,AMNE20.jpg,AMNE18.jpg,AMSA11.jpg,MS,2,num_8,16,num_8,0.783473940362,,,2017_May_18_1435,60.0039068691,FEMA4ImagesEEG,001,100484,
AMNE23.JPG,AMNE24.JPG,AMNE22.JPG,AMSA24.JPG,AMSA22.JPG,AMSA23.JPG,,,,,,,,,,,,,0,7,7,9,,,,,,,,,,,AMNE15.jpg,AMSA04.jpg,AMNE14.jpg,AMSA16.jpg,AMNE15.jpg,MN,1,num_8,32,num_2,2.23336843298,,,2017_May_18_1435,60.0039068691,FEMA4ImagesEEG,001,100484,
AMNE22.JPG,AMSA24.JPG,AMSA22.JPG,AMNE25.JPG,AMNE24.JPG,AMSA25.JPG,,,,,,,,,,,,,0,8,8,7,,,,,,,,,,,AMNE18.jpg,AMSA20.jpg,AMSA09.jpg,AMNE02.jpg,AMNE18.jpg,MN,1,num_8,16,num_8,0.90015687389,,,2017_May_18_1435,60.0039068691,FEMA4ImagesEEG,001,100484,
AFSA21.JPG,AFNE22.JPG,AFNE21.JPG,AFSA23.JPG,AFSA22.JPG,AFNE23.JPG,,,,,,,,,,,,,0,9,9,0,,,,,,,,,,,AMNE11.jpg,AMSA08.jpg,AMNE15.jpg,AMSA10.jpg,AMSA08.jpg,MS,2,num_6,32,num_8,2.61664171844,,,2017_May_18_1435,60.0039068691,FEMA4ImagesEEG,001,100484,
AMNE23.JPG,AMNE24.JPG,AMNE22.JPG,AMSA24.JPG,AMSA22.JPG,AMSA23.JPG,,,,,,,,,,,,,,,,,0,0,0,9,,,,,,,AFSA02.jpg,AFNE02.jpg,AFSA09.jpg,AFNE04.jpg,AFNE04.jpg,FN,3,num_4,16,num_4,0.783509542496,,,2017_May_18_1435,60.0039068691,FEMA4ImagesEEG,001,100484,
AMNE22.JPG,AMSA24.JPG,AMSA22.JPG,AMNE25.JPG,AMNE24.JPG,AMSA25.JPG,,,,,,,,,,,,,,,,,0,1,1,7,,,,,,,AFSA11.jpg,AFNE10.jpg,AFSA01.jpg,AFNE07.jpg,AFNE10.jpg,FN,3,num_6,16,num_6,1.89874465608,,,2017_May_18_1435,60.0039068691,FEMA4ImagesEEG,001,100484,
AFSA21.JPG,AFNE22.JPG,AFNE21.JPG,AFSA23.JPG,AFSA22.JPG,AFNE23.JPG,,,,,,,,,,,,,,,,,0,2,2,0,,,,,,,AFSA18.jpg,AFSA09.jpg,AFNE06.jpg,AFNE14.jpg,AFSA18.jpg,FS,4,num_8,16,num_8,0.56683562175,,,2017_May_18_1435,60.0039068691,FEMA4ImagesEEG,001,100484,
AFSA21.JPG,AFNE23.JPG,AFNE21.JPG,AFSA25.JPG,AFNE25.JPG,AFSA23.JPG,,,,,,,,,,,,,,,,,0,3,3,4,,,,,,,AFSA17.jpg,AFSA04.jpg,AFNE18.jpg,AFNE01.jpg,AFSA04.jpg,FS,4,num_6,16,num_6,0.850115995592,,,2017_May_18_1435,60.0039068691,FEMA4ImagesEEG,001,100484,
AMSA25.JPG,AMNE24.JPG,AMSA24.JPG,AMNE26.JPG,AMSA21.JPG,AMNE25.JPG,,,,,,,,,,,,,,,,,0,4,4,3,,,,,,,AFSA12.jpg,AFNE01.jpg,AFSA15.jpg,AFNE10.jpg,AFNE01.jpg,FN,3,num_6,32,num_2,1.71670679658,,,2017_May_18_1435,60.0039068691,FEMA4ImagesEEG,001,100484,
AMSA21.JPG,AMNE23.JPG,AMNE21.JPG,AMSA25.JPG,AMNE25.JPG,AMSA23.JPG,,,,,,,,,,,,,,,,,0,5,5,5,,,,,,,AFNE16.jpg,AFSA04.jpg,AFSA06.jpg,AFNE10.jpg,AFSA04.jpg,FS,4,num_6,16,num_6,1.00008948642,,,2017_May_18_1435,60.0039068691,FEMA4ImagesEEG,001,100484,
AFNE22.JPG,AFSA24.JPG,AFSA22.JPG,AFNE25.JPG,AFNE24.JPG,AFSA25.JPG,,,,,,,,,,,,,,,,,0,6,6,6,,,,,,,AFSA03.jpg,AFNE05.jpg,AFSA01.jpg,AFNE15.jpg,AFNE15.jpg,FN,3,num_4,16,num_4,0.583470476384,,,2017_May_18_1435,60.0039068691,FEMA4ImagesEEG,001,100484,
AFSA25.JPG,AFNE24.JPG,AFSA24.JPG,AFNE21.JPG,AFSA21.JPG,AFNE25.JPG,,,,,,,,,,,,,,,,,0,7,7,2,,,,,,,AFNE04.jpg,AFSA03.jpg,AFNE16.jpg,AFSA17.jpg,AFSA03.jpg,FS,4,num_6,16,num_6,0.500077458695,,,2017_May_18_1435,60.0039068691,FEMA4ImagesEEG,001,100484,
AFNE23.JPG,AFNE24.JPG,AFNE22.JPG,AFSA24.JPG,AFSA22.JPG,AFSA23.JPG,,,,,,,,,,,,,,,,,0,8,8,8,,,,,,,AFNE17.jpg,AFSA07.jpg,AFSA01.jpg,AFNE13.jpg,AFSA07.jpg,FS,4,num_6,32,num_2,1.33343383184,,,2017_May_18_1435,60.0039068691,FEMA4ImagesEEG,001,100484,
AMSA21.JPG,AMNE22.JPG,AMNE21.JPG,AMSA23.JPG,AMSA22.JPG,AMNE23.JPG,,,,,,,,,,,,,,,,,0,9,9,1,,,,,,,AFNE03.jpg,AFSA13.jpg,AFSA17.jpg,AFNE19.jpg,AFNE03.jpg,FN,3,num_8,32,num_6,1.08375673674,,,2017_May_18_1435,60.0039068691,FEMA4ImagesEEG,001,100484,
AFNE22.JPG,AFSA24.JPG,AFSA22.JPG,AFNE25.JPG,AFNE24.JPG,AFSA25.JPG,,,,,,,,,,,,,,,,,,,,,0,0,0,6,,,AMSA06.jpg,AMNE04.jpg,AMSA01.jpg,AMNE10.jpg,AMSA01.jpg,MS,2,num_2,32,num_6,0.950144188624,,,2017_May_18_1435,60.0039068691,FEMA4ImagesEEG,001,100484,
AMNE23.JPG,AMNE24.JPG,AMNE22.JPG,AMSA24.JPG,AMSA22.JPG,AMSA23.JPG,,,,,,,,,,,,,,,,,,,,,0,1,1,9,,,AMNE10.jpg,AMSA14.jpg,AMNE18.jpg,AMSA08.jpg,AMSA14.jpg,MS,2,num_6,32,num_2,1.18349786756,,,2017_May_18_1435,60.0039068691,FEMA4ImagesEEG,001,100484,
AFSA21.JPG,AFNE23.JPG,AFNE21.JPG,AFSA25.JPG,AFNE25.JPG,AFSA23.JPG,,,,,,,,,,,,,,,,,,,,,0,2,2,4,,,AMSA07.jpg,AMSA08.jpg,AMNE12.jpg,AMNE15.jpg,AMSA07.jpg,MS,2,num_8,16,num_8,0.500123965976,,,2017_May_18_1435,60.0039068691,FEMA4ImagesEEG,001,100484,
AFNE23.JPG,AFNE24.JPG,AFNE22.JPG,AFSA24.JPG,AFSA22.JPG,AFSA23.JPG,,,,,,,,,,,,,,,,,,,,,0,3,3,8,,,AMSA18.jpg,AMNE16.jpg,AMSA07.jpg,AMNE04.jpg,AMNE16.jpg,MN,1,num_6,16,num_6,1.0834831456,,,2017_May_18_1435,60.0039068691,FEMA4ImagesEEG,001,100484,
AMSA21.JPG,AMNE23.JPG,AMNE21.JPG,AMSA25.JPG,AMNE25.JPG,AMSA23.JPG,,,,,,,,,,,,,,,,,,,,,0,4,4,5,,,AMNE05.jpg,AMSA16.jpg,AMNE01.jpg,AMSA20.jpg,AMNE01.jpg,MN,1,num_2,16,num_2,1.85004639502,,,2017_May_18_1435,60.0039068691,FEMA4ImagesEEG,001,100484,
AFSA25.JPG,AFNE24.JPG,AFSA24.JPG,AFNE21.JPG,AFSA21.JPG,AFNE25.JPG,,,,,,,,,,,,,,,,,,,,,0,5,5,2,,,AMNE17.jpg,AMSA14.jpg,AMNE18.jpg,AMSA20.jpg,AMSA20.jpg,MS,2,num_4,16,num_4,0.666795817931,,,2017_May_18_1435,60.0039068691,FEMA4ImagesEEG,001,100484,
AMNE22.JPG,AMSA24.JPG,AMSA22.JPG,AMNE25.JPG,AMNE24.JPG,AMSA25.JPG,,,,,,,,,,,,,,,,,,,,,0,6,6,7,,,AMNE18.jpg,AMSA17.jpg,AMSA20.jpg,AMNE07.jpg,AMSA20.jpg,MS,2,num_2,16,num_2,0.983433142246,,,2017_May_18_1435,60.0039068691,FEMA4ImagesEEG,001,100484,
AMSA21.JPG,AMNE22.JPG,AMNE21.JPG,AMSA23.JPG,AMSA22.JPG,AMNE23.JPG,,,,,,,,,,,,,,,,,,,,,0,7,7,1,,,AMNE05.jpg,AMSA03.jpg,AMNE17.jpg,AMSA13.jpg,AMSA03.jpg,MS,2,num_6,16,num_6,0.483504186137,,,2017_May_18_1435,60.0039068691,FEMA4ImagesEEG,001,100484,
AMSA25.JPG,AMNE24.JPG,AMSA24.JPG,AMNE26.JPG,AMSA21.JPG,AMNE25.JPG,,,,,,,,,,,,,,,,,,,,,0,8,8,3,,,AMNE08.jpg,AMSA20.jpg,AMSA02.jpg,AMNE05.jpg,AMNE08.jpg,MN,1,num_8,16,num_8,0.416817868798,,,2017_May_18_1435,60.0039068691,FEMA4ImagesEEG,001,100484,
AFSA21.JPG,AFNE22.JPG,AFNE21.JPG,AFSA23.JPG,AFSA22.JPG,AFNE23.JPG,,,,,,,,,,,,,,,,,,,,,0,9,9,0,,,AMSA02.jpg,AMNE10.jpg,AMSA01.jpg,AMNE18.jpg,AMSA01.jpg,MS,2,num_2,16,num_2,1.30010799313,,,2017_May_18_1435,60.0039068691,FEMA4ImagesEEG,001,100484,
,,,,,,,,,,,,,,,,,,,,,,,,,,,,,,,,,,,,,,,,,,,space,6.61658334378,2017_May_18_1435,60.0039068691,FEMA4ImagesEEG,001,100484,
AFNE01.JPG,AFNE01.JPG,AFNE01.JPG,AFNE01.JPG,AFNE01.JPG,AFNE01.JPG,0,0,0,7,,,,,,,,,,,,,,,,,,,,,,,AFSA15.jpg,AFNE12.jpg,AFNE13.jpg,AFSA01.jpg,AFSA15.jpg,FS,4,num_8,16,num_8,0.93350163626,,,2017_May_18_1435,60.0039068691,FEMA4ImagesEEG,001,100484,
AFNE01.JPG,AFNE01.JPG,AFNE01.JPG,AFNE01.JPG,AFNE01.JPG,AFNE01.JPG,0,1,1,9,,,,,,,,,,,,,,,,,,,,,,,AFSA10.jpg,AFSA12.jpg,AFNE11.jpg,AFNE18.jpg,AFSA12.jpg,FS,4,num_6,16,num_6,1.10016867711,,,2017_May_18_1435,60.0039068691,FEMA4ImagesEEG,001,100484,
AFNE01.JPG,AFNE01.JPG,AFNE01.JPG,AFNE01.JPG,AFNE01.JPG,AFNE01.JPG,0,2,2,8,,,,,,,,,,,,,,,,,,,,,,,AFSA17.jpg,AFNE01.jpg,AFSA11.jpg,AFNE11.jpg,AFNE11.jpg,FN,3,num_4,16,num_4,0.699995285133,,,2017_May_18_1435,60.0039068691,FEMA4ImagesEEG,001,100484,
AFNE01.JPG,AFNE01.JPG,AFNE01.JPG,AFNE01.JPG,AFNE01.JPG,AFNE01.JPG,0,3,3,1,,,,,,,,,,,,,,,,,,,,,,,AFSA05.jpg,AFNE12.jpg,AFNE07.jpg,AFSA17.jpg,AFNE12.jpg,FN,3,num_6,16,num_6,0.983434104463,,,2017_May_18_1435,60.0039068691,FEMA4ImagesEEG,001,100484,
AFNE01.JPG,AFNE01.JPG,AFNE01.JPG,AFNE01.JPG,AFNE01.JPG,AFNE01.JPG,0,4,4,4,,,,,,,,,,,,,,,,,,,,,,,AFNE05.jpg,AFSA19.jpg,AFNE12.jpg,AFSA11.jpg,AFNE05.jpg,FN,3,num_8,32,num_4,0.883460116471,,,2017_May_18_1435,60.0039068691,FEMA4ImagesEEG,001,100484,
AFNE01.JPG,AFNE01.JPG,AFNE01.JPG,AFNE01.JPG,AFNE01.JPG,AFNE01.JPG,0,5,5,2,,,,,,,,,,,,,,,,,,,,,,,AFSA06.jpg,AFNE02.jpg,AFNE18.jpg,AFSA13.jpg,AFSA13.jpg,FS,4,num_4,32,num_6,0.983455914771,,,2017_May_18_1435,60.0039068691,FEMA4ImagesEEG,001,100484,
AFNE01.JPG,AFNE01.JPG,AFNE01.JPG,AFNE01.JPG,AFNE01.JPG,AFNE01.JPG,0,6,6,5,,,,,,,,,,,,,,,,,,,,,,,AFSA03.jpg,AFSA06.jpg,AFNE16.jpg,AFNE09.jpg,AFSA06.jpg,FS,4,num_6,32,num_8,0.88349700156,,,2017_May_18_1435,60.0039068691,FEMA4ImagesEEG,001,100484,
AFNE01.JPG,AFNE01.JPG,AFNE01.JPG,AFNE01.JPG,AFNE01.JPG,AFNE01.JPG,0,7,7,3,,,,,,,,,,,,,,,,,,,,,,,AFSA06.jpg,AFNE05.jpg,AFSA04.jpg,AFNE01.jpg,AFSA04.jpg,FS,4,num_2,32,num_8,1.3167569603,,,2017_May_18_1435,60.0039068691,FEMA4ImagesEEG,001,100484,
AFNE01.JPG,AFNE01.JPG,AFNE01.JPG,AFNE01.JPG,AFNE01.JPG,AFNE01.JPG,0,8,8,6,,,,,,,,,,,,,,,,,,,,,,,AFSA17.jpg,AFNE12.jpg,AFNE04.jpg,AFSA19.jpg,AFSA19.jpg,FS,4,num_4,16,num_4,0.700146674368,,,2017_May_18_1435,60.0039068691,FEMA4ImagesEEG,001,100484,
AFNE01.JPG,AFNE01.JPG,AFNE01.JPG,AFNE01.JPG,AFNE01.JPG,AFNE01.JPG,0,9,9,0,,,,,,,,,,,,,,,,,,,,,,,AFNE09.jpg,AFSA12.jpg,AFSA17.jpg,AFNE12.jpg,AFNE12.jpg,FN,3,num_4,16,num_4,0.750167666789,,,2017_May_18_1435,60.0039068691,FEMA4ImagesEEG,001,100484,
AFNE01.JPG,AFNE01.JPG,AFNE01.JPG,AFNE01.JPG,AFNE01.JPG,AFNE01.JPG,1,0,10,7,,,,,,,,,,,,,,,,,,,,,,,AFNE05.jpg,AFSA04.jpg,AFNE02.jpg,AFSA17.jpg,AFNE05.jpg,FN,3,num_8,32,num_6,0.76705943406,,,2017_May_18_1435,60.0039068691,FEMA4ImagesEEG,001,100484,
AFNE01.JPG,AFNE01.JPG,AFNE01.JPG,AFNE01.JPG,AFNE01.JPG,AFNE01.JPG,1,1,11,3,,,,,,,,,,,,,,,,,,,,,,,AFNE11.jpg,AFSA08.jpg,AFSA17.jpg,AFNE04.jpg,AFNE04.jpg,FN,3,num_4,16,num_4,0.58345508085,,,2017_May_18_1435,60.0039068691,FEMA4ImagesEEG,001,100484,
AFNE01.JPG,AFNE01.JPG,AFNE01.JPG,AFNE01.JPG,AFNE01.JPG,AFNE01.JPG,1,2,12,0,,,,,,,,,,,,,,,,,,,,,,,AFNE01.jpg,AFSA05.jpg,AFSA19.jpg,AFNE04.jpg,AFSA05.jpg,FS,4,num_6,16,num_6,0.516805969353,,,2017_May_18_1435,60.0039068691,FEMA4ImagesEEG,001,100484,
AFNE01.JPG,AFNE01.JPG,AFNE01.JPG,AFNE01.JPG,AFNE01.JPG,AFNE01.JPG,1,3,13,4,,,,,,,,,,,,,,,,,,,,,,,AFNE07.jpg,AFSA09.jpg,AFSA17.jpg,AFNE03.jpg,AFNE07.jpg,FN,3,num_8,16,num_8,2.43336131255,,,2017_May_18_1435,60.0039068691,FEMA4ImagesEEG,001,100484,
AFNE01.JPG,AFNE01.JPG,AFNE01.JPG,AFNE01.JPG,AFNE01.JPG,AFNE01.JPG,1,4,14,6,,,,,,,,,,,,,,,,,,,,,,,AFSA06.jpg,AFSA02.jpg,AFNE12.jpg,AFNE06.jpg,AFNE06.jpg,FN,3,num_4,16,num_4,1.38340414736,,,2017_May_18_1435,60.0039068691,FEMA4ImagesEEG,001,100484,
AFNE01.JPG,AFNE01.JPG,AFNE01.JPG,AFNE01.JPG,AFNE01.JPG,AFNE01.JPG,1,5,15,8,,,,,,,,,,,,,,,,,,,,,,,AFNE01.jpg,AFNE04.jpg,AFSA15.jpg,AFSA01.jpg,AFSA01.jpg,FS,4,num_4,32,num_2,2.94996617797,,,2017_May_18_1435,60.0039068691,FEMA4ImagesEEG,001,100484,
AFNE01.JPG,AFNE01.JPG,AFNE01.JPG,AFNE01.JPG,AFNE01.JPG,AFNE01.JPG,1,6,16,2,,,,,,,,,,,,,,,,,,,,,,,AFSA06.jpg,AFSA04.jpg,AFNE18.jpg,AFNE10.jpg,AFSA06.jpg,FS,4,num_8,16,num_8,1.00014401223,,,2017_May_18_1435,60.0039068691,FEMA4ImagesEEG,001,100484,
AFNE01.JPG,AFNE01.JPG,AFNE01.JPG,AFNE01.JPG,AFNE01.JPG,AFNE01.JPG,1,7,17,9,,,,,,,,,,,,,,,,,,,,,,,AFSA14.jpg,AFNE07.jpg,AFNE13.jpg,AFSA03.jpg,AFSA14.jpg,FS,4,num_8,16,num_8,0.550187616813,,,2017_May_18_1435,60.0039068691,FEMA4ImagesEEG,001,100484,
AFNE01.JPG,AFNE01.JPG,AFNE01.JPG,AFNE01.JPG,AFNE01.JPG,AFNE01.JPG,1,8,18,5,,,,,,,,,,,,,,,,,,,,,,,AFNE01.jpg,AFSA01.jpg,AFNE06.jpg,AFSA11.jpg,AFNE06.jpg,FN,3,num_2,32,num_6,0.616805295795,,,2017_May_18_1435,60.0039068691,FEMA4ImagesEEG,001,100484,
AFNE01.JPG,AFNE01.JPG,AFNE01.JPG,AFNE01.JPG,AFNE01.JPG,AFNE01.JPG,1,9,19,1,,,,,,,,,,,,,,,,,,,,,,,AFNE16.jpg,AFSA12.jpg,AFNE09.jpg,AFSA05.jpg,AFSA05.jpg,FS,4,num_4,16,num_4,0.466790108767,,,2017_May_18_1435,60.0039068691,FEMA4ImagesEEG,001,100484,
AFNE01.JPG,AFNE01.JPG,AFNE01.JPG,AFNE01.JPG,AFNE01.JPG,AFNE01.JPG,2,0,20,2,,,,,,,,,,,,,,,,,,,,,,,AFNE07.jpg,AFSA05.jpg,AFNE08.jpg,AFSA09.jpg,AFNE08.jpg,FN,3,num_2,32,num_8,0.666799666811,,,2017_May_18_1435,60.0039068691,FEMA4ImagesEEG,001,100484,
AFNE01.JPG,AFNE01.JPG,AFNE01.JPG,AFNE01.JPG,AFNE01.JPG,AFNE01.JPG,2,1,21,4,,,,,,,,,,,,,,,,,,,,,,,AFNE15.jpg,AFSA04.jpg,AFNE01.jpg,AFSA17.jpg,AFSA17.jpg,FS,4,num_4,16,num_4,0.766806691012,,,2017_May_18_1435,60.0039068691,FEMA4ImagesEEG,001,100484,
AFNE01.JPG,AFNE01.JPG,AFNE01.JPG,AFNE01.JPG,AFNE01.JPG,AFNE01.JPG,2,2,22,0,,,,,,,,,,,,,,,,,,,,,,,AFNE10.jpg,AFSA16.jpg,AFSA04.jpg,AFNE18.jpg,AFNE18.jpg,FN,3,num_4,16,num_4,0.883462682395,,,2017_May_18_1435,60.0039068691,FEMA4ImagesEEG,001,100484,
AFNE01.JPG,AFNE01.JPG,AFNE01.JPG,AFNE01.JPG,AFNE01.JPG,AFNE01.JPG,2,3,23,5,,,,,,,,,,,,,,,,,,,,,,,AFSA06.jpg,AFNE13.jpg,AFSA14.jpg,AFNE12.jpg,AFNE12.jpg,FN,3,num_4,16,num_4,0.666779460196,,,2017_May_18_1435,60.0039068691,FEMA4ImagesEEG,001,100484,
AFNE01.JPG,AFNE01.JPG,AFNE01.JPG,AFNE01.JPG,AFNE01.JPG,AFNE01.JPG,2,4,24,8,,,,,,,,,,,,,,,,,,,,,,,AFSA16.jpg,AFSA20.jpg,AFNE17.jpg,AFNE19.jpg,AFSA20.jpg,FS,4,num_6,16,num_6,0.616779315867,,,2017_May_18_1435,60.0039068691,FEMA4ImagesEEG,001,100484,
AFNE01.JPG,AFNE01.JPG,AFNE01.JPG,AFNE01.JPG,AFNE01.JPG,AFNE01.JPG,2,5,25,3,,,,,,,,,,,,,,,,,,,,,,,AFSA20.jpg,AFSA06.jpg,AFNE05.jpg,AFNE03.jpg,AFNE03.jpg,FN,3,num_4,32,num_8,0.833455481785,,,2017_May_18_1435,60.0039068691,FEMA4ImagesEEG,001,100484,
AFNE01.JPG,AFNE01.JPG,AFNE01.JPG,AFNE01.JPG,AFNE01.JPG,AFNE01.JPG,2,6,26,7,,,,,,,,,,,,,,,,,,,,,,,AFSA19.jpg,AFNE20.jpg,AFNE13.jpg,AFSA11.jpg,AFSA19.jpg,FS,4,num_8,32,num_4,0.616757826298,,,2017_May_18_1435,60.0039068691,FEMA4ImagesEEG,001,100484,
AFNE01.JPG,AFNE01.JPG,AFNE01.JPG,AFNE01.JPG,AFNE01.JPG,AFNE01.JPG,2,7,27,9,,,,,,,,,,,,,,,,,,,,,,,AFSA05.jpg,AFNE11.jpg,AFNE17.jpg,AFSA07.jpg,AFNE17.jpg,FN,3,num_2,32,num_6,1.25010015104,,,2017_May_18_1435,60.0039068691,FEMA4ImagesEEG,001,100484,
AFNE01.JPG,AFNE01.JPG,AFNE01.JPG,AFNE01.JPG,AFNE01.JPG,AFNE01.JPG,2,8,28,1,,,,,,,,,,,,,,,,,,,,,,,AFNE01.jpg,AFSA20.jpg,AFSA02.jpg,AFNE03.jpg,AFSA20.jpg,FS,4,num_6,32,num_8,1.13344672559,,,2017_May_18_1435,60.0039068691,FEMA4ImagesEEG,001,100484,
AFNE01.JPG,AFNE01.JPG,AFNE01.JPG,AFNE01.JPG,AFNE01.JPG,AFNE01.JPG,2,9,29,6,,,,,,,,,,,,,,,,,,,,,,,AFNE01.jpg,AFSA11.jpg,AFSA01.jpg,AFNE02.jpg,AFSA01.jpg,FS,4,num_2,32,num_4,0.750110895824,,,2017_May_18_1435,60.0039068691,FEMA4ImagesEEG,001,100484,
AFNE01.JPG,AFNE01.JPG,AFNE01.JPG,AFNE01.JPG,AFNE01.JPG,AFNE01.JPG,3,0,30,1,,,,,,,,,,,,,,,,,,,,,,,AFSA12.jpg,AFSA18.jpg,AFNE12.jpg,AFNE05.jpg,AFNE05.jpg,FN,3,num_4,32,num_2,1.46675546885,,,2017_May_18_1435,60.0039068691,FEMA4ImagesEEG,001,100484,
AFNE01.JPG,AFNE01.JPG,AFNE01.JPG,AFNE01.JPG,AFNE01.JPG,AFNE01.JPG,3,1,31,9,,,,,,,,,,,,,,,,,,,,,,,AFNE10.jpg,AFSA09.jpg,AFSA17.jpg,AFNE07.jpg,AFNE07.jpg,FN,3,num_4,32,num_8,1.71672668244,,,2017_May_18_1435,60.0039068691,FEMA4ImagesEEG,001,100484,
AFNE01.JPG,AFNE01.JPG,AFNE01.JPG,AFNE01.JPG,AFNE01.JPG,AFNE01.JPG,3,2,32,4,,,,,,,,,,,,,,,,,,,,,,,AFSA14.jpg,AFSA06.jpg,AFNE12.jpg,AFNE02.jpg,AFSA06.jpg,FS,4,num_6,32,num_4,0.616784447702,,,2017_May_18_1435,60.0039068691,FEMA4ImagesEEG,001,100484,
AFNE01.JPG,AFNE01.JPG,AFNE01.JPG,AFNE01.JPG,AFNE01.JPG,AFNE01.JPG,3,3,33,6,,,,,,,,,,,,,,,,,,,,,,,AFSA09.jpg,AFNE09.jpg,AFSA20.jpg,AFNE18.jpg,AFSA09.jpg,FS,4,num_8,32,num_4,1.16676903616,,,2017_May_18_1435,60.0039068691,FEMA4ImagesEEG,001,100484,
AFNE01.JPG,AFNE01.JPG,AFNE01.JPG,AFNE01.JPG,AFNE01.JPG,AFNE01.JPG,3,4,34,8,,,,,,,,,,,,,,,,,,,,,,,AFSA11.jpg,AFSA06.jpg,AFNE13.jpg,AFNE06.jpg,AFNE13.jpg,FN,3,num_2,32,num_6,0.866948425988,,,2017_May_18_1435,60.0039068691,FEMA4ImagesEEG,001,100484,
AFNE01.JPG,AFNE01.JPG,AFNE01.JPG,AFNE01.JPG,AFNE01.JPG,AFNE01.JPG,3,5,35,7,,,,,,,,,,,,,,,,,,,,,,,AFSA16.jpg,AFNE07.jpg,AFSA15.jpg,AFNE18.jpg,AFSA15.jpg,FS,4,num_2,32,num_4,0.683323545425,,,2017_May_18_1435,60.0039068691,FEMA4ImagesEEG,001,100484,
AFNE01.JPG,AFNE01.JPG,AFNE01.JPG,AFNE01.JPG,AFNE01.JPG,AFNE01.JPG,3,6,36,3,,,,,,,,,,,,,,,,,,,,,,,AFNE03.jpg,AFSA17.jpg,AFNE08.jpg,AFSA20.jpg,AFNE08.jpg,FN,3,num_2,32,num_8,0.733547566197,,,2017_May_18_1435,60.0039068691,FEMA4ImagesEEG,001,100484,
AFNE01.JPG,AFNE01.JPG,AFNE01.JPG,AFNE01.JPG,AFNE01.JPG,AFNE01.JPG,3,7,37,0,,,,,,,,,,,,,,,,,,,,,,,AFSA05.jpg,AFSA04.jpg,AFNE15.jpg,AFNE12.jpg,AFNE15.jpg,FN,3,num_2,16,num_2,1.36675004836,,,2017_May_18_1435,60.0039068691,FEMA4ImagesEEG,001,100484,
AFNE01.JPG,AFNE01.JPG,AFNE01.JPG,AFNE01.JPG,AFNE01.JPG,AFNE01.JPG,3,8,38,2,,,,,,,,,,,,,,,,,,,,,,,AFNE09.jpg,AFNE06.jpg,AFSA13.jpg,AFSA03.jpg,AFSA03.jpg,FS,4,num_4,32,num_8,1.05011913883,,,2017_May_18_1435,60.0039068691,FEMA4ImagesEEG,001,100484,
AFNE01.JPG,AFNE01.JPG,AFNE01.JPG,AFNE01.JPG,AFNE01.JPG,AFNE01.JPG,3,9,39,5,,,,,,,,,,,,,,,,,,,,,,,AFNE10.jpg,AFSA06.jpg,AFSA15.jpg,AFNE17.jpg,AFSA15.jpg,FS,4,num_2,32,num_4,1.10012377353,,,2017_May_18_1435,60.0039068691,FEMA4ImagesEEG,001,100484,
AFNE01.JPG,AFNE01.JPG,AFNE01.JPG,AFNE01.JPG,AFNE01.JPG,AFNE01.JPG,4,0,40,6,,,,,,,,,,,,,,,,,,,,,,,AFSA15.jpg,AFNE14.jpg,AFNE05.jpg,AFSA05.jpg,AFNE05.jpg,FN,3,num_2,16,num_2,1.11677049553,,,2017_May_18_1435,60.0039068691,FEMA4ImagesEEG,001,100484,
AFNE01.JPG,AFNE01.JPG,AFNE01.JPG,AFNE01.JPG,AFNE01.JPG,AFNE01.JPG,4,1,41,2,,,,,,,,,,,,,,,,,,,,,,,AFSA07.jpg,AFNE16.jpg,AFSA13.jpg,AFNE05.jpg,AFNE16.jpg,FN,3,num_6,32,num_8,0.750139441676,,,2017_May_18_1435,60.0039068691,FEMA4ImagesEEG,001,100484,
AFNE01.JPG,AFNE01.JPG,AFNE01.JPG,AFNE01.JPG,AFNE01.JPG,AFNE01.JPG,4,2,42,0,,,,,,,,,,,,,,,,,,,,,,,AFSA19.jpg,AFNE14.jpg,AFNE11.jpg,AFSA04.jpg,AFSA19.jpg,FS,4,num_8,32,num_4,1.01677565943,,,2017_May_18_1435,60.0039068691,FEMA4ImagesEEG,001,100484,
AFNE01.JPG,AFNE01.JPG,AFNE01.JPG,AFNE01.JPG,AFNE01.JPG,AFNE01.JPG,4,3,43,3,,,,,,,,,,,,,,,,,,,,,,,AFNE04.jpg,AFSA10.jpg,AFSA12.jpg,AFNE02.jpg,AFSA10.jpg,FS,4,num_6,16,num_6,0.800141831191,,,2017_May_18_1435,60.0039068691,FEMA4ImagesEEG,001,100484,
AFNE01.JPG,AFNE01.JPG,AFNE01.JPG,AFNE01.JPG,AFNE01.JPG,AFNE01.JPG,4,4,44,1,,,,,,,,,,,,,,,,,,,,,,,AFSA16.jpg,AFSA11.jpg,AFNE19.jpg,AFNE05.jpg,AFNE19.jpg,FN,3,num_2,32,num_4,0.916776012236,,,2017_May_18_1435,60.0039068691,FEMA4ImagesEEG,001,100484,
AFNE01.JPG,AFNE01.JPG,AFNE01.JPG,AFNE01.JPG,AFNE01.JPG,AFNE01.JPG,4,5,45,8,,,,,,,,,,,,,,,,,,,,,,,AFNE02.jpg,AFSA12.jpg,AFSA01.jpg,AFNE06.jpg,AFNE02.jpg,FN,3,num_8,16,num_8,0.483492639498,,,2017_May_18_1435,60.0039068691,FEMA4ImagesEEG,001,100484,
AFNE01.JPG,AFNE01.JPG,AFNE01.JPG,AFNE01.JPG,AFNE01.JPG,AFNE01.JPG,4,6,46,7,,,,,,,,,,,,,,,,,,,,,,,AFSA02.jpg,AFSA17.jpg,AFNE15.jpg,AFNE06.jpg,AFNE06.jpg,FN,3,num_4,16,num_4,0.700183880195,,,2017_May_18_1435,60.0039068691,FEMA4ImagesEEG,001,100484,
AFNE01.JPG,AFNE01.JPG,AFNE01.JPG,AFNE01.JPG,AFNE01.JPG,AFNE01.JPG,4,7,47,5,,,,,,,,,,,,,,,,,,,,,,,AFSA07.jpg,AFSA19.jpg,AFNE16.jpg,AFNE12.jpg,AFSA19.jpg,FS,4,num_6,32,num_4,1.06678125635,,,2017_May_18_1435,60.0039068691,FEMA4ImagesEEG,001,100484,
AFNE01.JPG,AFNE01.JPG,AFNE01.JPG,AFNE01.JPG,AFNE01.JPG,AFNE01.JPG,4,8,48,4,,,,,,,,,,,,,,,,,,,,,,,AFNE07.jpg,AFNE05.jpg,AFSA07.jpg,AFSA20.jpg,AFSA20.jpg,FS,4,num_4,16,num_4,0.90014917613,,,2017_May_18_1435,60.0039068691,FEMA4ImagesEEG,001,100484,
AFNE01.JPG,AFNE01.JPG,AFNE01.JPG,AFNE01.JPG,AFNE01.JPG,AFNE01.JPG,4,9,49,9,,,,,,,,,,,,,,,,,,,,,,,AFNE17.jpg,AFNE06.jpg,AFSA09.jpg,AFSA11.jpg,AFNE06.jpg,FN,3,num_6,16,num_6,0.716780887495,,,2017_May_18_1435,60.0039068691,FEMA4ImagesEEG,001,100484,
AFNE01.JPG,AFNE01.JPG,AFNE01.JPG,AFNE01.JPG,AFNE01.JPG,AFNE01.JPG,5,0,50,6,,,,,,,,,,,,,,,,,,,,,,,AFNE09.jpg,AFNE03.jpg,AFSA18.jpg,AFSA06.jpg,AFSA06.jpg,FS,4,num_4,16,num_4,0.633455866671,,,2017_May_18_1435,60.0039068691,FEMA4ImagesEEG,001,100484,
AFNE01.JPG,AFNE01.JPG,AFNE01.JPG,AFNE01.JPG,AFNE01.JPG,AFNE01.JPG,5,1,51,9,,,,,,,,,,,,,,,,,,,,,,,AFSA15.jpg,AFNE06.jpg,AFSA19.jpg,AFNE02.jpg,AFSA19.jpg,FS,4,num_2,32,num_8,0.450168725234,,,2017_May_18_1435,60.0039068691,FEMA4ImagesEEG,001,100484,
AFNE01.JPG,AFNE01.JPG,AFNE01.JPG,AFNE01.JPG,AFNE01.JPG,AFNE01.JPG,5,2,52,8,,,,,,,,,,,,,,,,,,,,,,,AFSA01.jpg,AFNE12.jpg,AFNE19.jpg,AFSA06.jpg,AFSA06.jpg,FS,4,num_4,16,num_4,0.566772756734,,,2017_May_18_1435,60.0039068691,FEMA4ImagesEEG,001,100484,
AFNE01.JPG,AFNE01.JPG,AFNE01.JPG,AFNE01.JPG,AFNE01.JPG,AFNE01.JPG,5,3,53,7,,,,,,,,,,,,,,,,,,,,,,,AFNE03.jpg,AFSA09.jpg,AFNE17.jpg,AFSA04.jpg,AFSA09.jpg,FS,4,num_6,16,num_6,0.316851257827,,,2017_May_18_1435,60.0039068691,FEMA4ImagesEEG,001,100484,
AFNE01.JPG,AFNE01.JPG,AFNE01.JPG,AFNE01.JPG,AFNE01.JPG,AFNE01.JPG,5,4,54,5,,,,,,,,,,,,,,,,,,,,,,,AFNE01.jpg,AFNE04.jpg,AFSA16.jpg,AFSA10.jpg,AFNE04.jpg,FN,3,num_6,32,num_8,0.933444544557,,,2017_May_18_1435,60.0039068691,FEMA4ImagesEEG,001,100484,
AFNE01.JPG,AFNE01.JPG,AFNE01.JPG,AFNE01.JPG,AFNE01.JPG,AFNE01.JPG,5,5,55,1,,,,,,,,,,,,,,,,,,,,,,,AFSA16.jpg,AFNE04.jpg,AFNE05.jpg,AFSA19.jpg,AFSA19.jpg,FS,4,num_4,16,num_4,0.800130284551,,,2017_May_18_1435,60.0039068691,FEMA4ImagesEEG,001,100484,
AFNE01.JPG,AFNE01.JPG,AFNE01.JPG,AFNE01.JPG,AFNE01.JPG,AFNE01.JPG,5,6,56,3,,,,,,,,,,,,,,,,,,,,,,,AFNE03.jpg,AFSA17.jpg,AFSA15.jpg,AFNE20.jpg,AFNE03.jpg,FN,3,num_8,16,num_8,1.83341474782,,,2017_May_18_1435,60.0039068691,FEMA4ImagesEEG,001,100484,
AFNE01.JPG,AFNE01.JPG,AFNE01.JPG,AFNE01.JPG,AFNE01.JPG,AFNE01.JPG,5,7,57,4,,,,,,,,,,,,,,,,,,,,,,,AFNE16.jpg,AFNE12.jpg,AFSA12.jpg,AFSA05.jpg,AFSA12.jpg,FS,4,num_2,16,num_2,1.88339500627,,,2017_May_18_1435,60.0039068691,FEMA4ImagesEEG,001,100484,
AFNE01.JPG,AFNE01.JPG,AFNE01.JPG,AFNE01.JPG,AFNE01.JPG,AFNE01.JPG,5,8,58,2,,,,,,,,,,,,,,,,,,,,,,,AFNE11.jpg,AFSA17.jpg,AFSA18.jpg,AFNE03.jpg,AFNE11.jpg,FN,3,num_8,32,num_4,0.700145712137,,,2017_May_18_1435,60.0039068691,FEMA4ImagesEEG,001,100484,
AFNE01.JPG,AFNE01.JPG,AFNE01.JPG,AFNE01.JPG,AFNE01.JPG,AFNE01.JPG,5,9,59,0,,,,,,,,,,,,,,,,,,,,,,,AFNE19.jpg,AFSA03.jpg,AFSA14.jpg,AFNE07.jpg,AFSA14.jpg,FS,4,num_2,32,num_6,0.916791087031,,,2017_May_18_1435,60.0039068691,FEMA4ImagesEEG,001,100484,
,,,,,,,,,,,,,,,,,,,,,,,,,,,,,,,,,,,,,,,,,,,space,13.2158351859,2017_May_18_1435,60.0039068691,FEMA4ImagesEEG,001,100484,
AFNE01.JPG,AFNE01.JPG,AFNE01.JPG,AFNE01.JPG,AFNE01.JPG,AFNE01.JPG,,,,,0,0,0,9,,,,,,,,,,,,,,,,,,,AMSA16.jpg,AMNE04.jpg,AMNE14.jpg,AMSA02.jpg,AMSA16.jpg,MS,2,num_8,16,num_8,0.783490618836,,,2017_May_18_1435,60.0039068691,FEMA4ImagesEEG,001,100484,
AFNE01.JPG,AFNE01.JPG,AFNE01.JPG,AFNE01.JPG,AFNE01.JPG,AFNE01.JPG,,,,,0,1,1,2,,,,,,,,,,,,,,,,,,,AMNE02.jpg,AMSA08.jpg,AMNE17.jpg,AMSA17.jpg,AMSA17.jpg,MS,2,num_4,16,num_4,0.616780919576,,,2017_May_18_1435,60.0039068691,FEMA4ImagesEEG,001,100484,
AFNE01.JPG,AFNE01.JPG,AFNE01.JPG,AFNE01.JPG,AFNE01.JPG,AFNE01.JPG,,,,,0,2,2,8,,,,,,,,,,,,,,,,,,,AMNE03.jpg,AMNE08.jpg,AMSA10.jpg,AMSA16.jpg,AMNE03.jpg,MN,1,num_8,32,num_6,1.01677405574,,,2017_May_18_1435,60.0039068691,FEMA4ImagesEEG,001,100484,
AFNE01.JPG,AFNE01.JPG,AFNE01.JPG,AFNE01.JPG,AFNE01.JPG,AFNE01.JPG,,,,,0,3,3,5,,,,,,,,,,,,,,,,,,,AMSA15.jpg,AMNE15.jpg,AMNE02.jpg,AMSA10.jpg,AMNE02.jpg,MN,1,num_2,16,num_2,1.73343787316,,,2017_May_18_1435,60.0039068691,FEMA4ImagesEEG,001,100484,
AFNE01.JPG,AFNE01.JPG,AFNE01.JPG,AFNE01.JPG,AFNE01.JPG,AFNE01.JPG,,,,,0,4,4,4,,,,,,,,,,,,,,,,,,,AMNE13.jpg,AMNE11.jpg,AMSA09.jpg,AMSA13.jpg,AMSA09.jpg,MS,2,num_2,16,num_2,1.26675328783,,,2017_May_18_1435,60.0039068691,FEMA4ImagesEEG,001,100484,
AFNE01.JPG,AFNE01.JPG,AFNE01.JPG,AFNE01.JPG,AFNE01.JPG,AFNE01.JPG,,,,,0,5,5,3,,,,,,,,,,,,,,,,,,,AMSA01.jpg,AMNE04.jpg,AMNE15.jpg,AMSA18.jpg,AMNE15.jpg,MN,1,num_2,32,num_6,1.28333105073,,,2017_May_18_1435,60.0039068691,FEMA4ImagesEEG,001,100484,
AFNE01.JPG,AFNE01.JPG,AFNE01.JPG,AFNE01.JPG,AFNE01.JPG,AFNE01.JPG,,,,,0,6,6,7,,,,,,,,,,,,,,,,,,,AMNE16.jpg,AMSA18.jpg,AMSA09.jpg,AMNE09.jpg,AMSA09.jpg,MS,2,num_2,16,num_2,1.48345062257,,,2017_May_18_1435,60.0039068691,FEMA4ImagesEEG,001,100484,
AFNE01.JPG,AFNE01.JPG,AFNE01.JPG,AFNE01.JPG,AFNE01.JPG,AFNE01.JPG,,,,,0,7,7,6,,,,,,,,,,,,,,,,,,,AMNE12.jpg,AMSA09.jpg,AMSA18.jpg,AMNE06.jpg,AMSA18.jpg,MS,2,num_2,16,num_2,3.33329880034,,,2017_May_18_1435,60.0039068691,FEMA4ImagesEEG,001,100484,
AFNE01.JPG,AFNE01.JPG,AFNE01.JPG,AFNE01.JPG,AFNE01.JPG,AFNE01.JPG,,,,,0,8,8,0,,,,,,,,,,,,,,,,,,,AMSA07.jpg,AMSA03.jpg,AMNE03.jpg,AMNE01.jpg,AMSA03.jpg,MS,2,num_6,16,num_6,0.683466916162,,,2017_May_18_1435,60.0039068691,FEMA4ImagesEEG,001,100484,
AFNE01.JPG,AFNE01.JPG,AFNE01.JPG,AFNE01.JPG,AFNE01.JPG,AFNE01.JPG,,,,,0,9,9,1,,,,,,,,,,,,,,,,,,,AMNE16.jpg,AMSA14.jpg,AMSA07.jpg,AMNE15.jpg,AMNE15.jpg,MN,1,num_4,16,num_4,0.900177080504,,,2017_May_18_1435,60.0039068691,FEMA4ImagesEEG,001,100484,
AFNE01.JPG,AFNE01.JPG,AFNE01.JPG,AFNE01.JPG,AFNE01.JPG,AFNE01.JPG,,,,,1,0,10,2,,,,,,,,,,,,,,,,,,,AMSA16.jpg,AMNE10.jpg,AMSA02.jpg,AMNE05.jpg,AMNE05.jpg,MN,1,num_4,16,num_4,0.983420312652,,,2017_May_18_1435,60.0039068691,FEMA4ImagesEEG,001,100484,
AFNE01.JPG,AFNE01.JPG,AFNE01.JPG,AFNE01.JPG,AFNE01.JPG,AFNE01.JPG,,,,,1,1,11,8,,,,,,,,,,,,,,,,,,,AMSA02.jpg,AMNE03.jpg,AMNE12.jpg,AMSA18.jpg,AMNE12.jpg,MN,1,num_2,32,num_6,2.91666439475,,,2017_May_18_1435,60.0039068691,FEMA4ImagesEEG,001,100484,
AFNE01.JPG,AFNE01.JPG,AFNE01.JPG,AFNE01.JPG,AFNE01.JPG,AFNE01.JPG,,,,,1,2,12,3,,,,,,,,,,,,,,,,,,,AMNE08.jpg,AMSA02.jpg,AMSA15.jpg,AMNE03.jpg,AMSA15.jpg,MS,2,num_2,32,num_6,1.3834583524,,,2017_May_18_1435,60.0039068691,FEMA4ImagesEEG,001,100484,
AFNE01.JPG,AFNE01.JPG,AFNE01.JPG,AFNE01.JPG,AFNE01.JPG,AFNE01.JPG,,,,,1,3,13,4,,,,,,,,,,,,,,,,,,,AMSA06.jpg,AMNE15.jpg,AMSA03.jpg,AMNE09.jpg,AMSA03.jpg,MS,2,num_2,16,num_2,1.03345541764,,,2017_May_18_1435,60.0039068691,FEMA4ImagesEEG,001,100484,
AFNE01.JPG,AFNE01.JPG,AFNE01.JPG,AFNE01.JPG,AFNE01.JPG,AFNE01.JPG,,,,,1,4,14,1,,,,,,,,,,,,,,,,,,,AMSA06.jpg,AMNE03.jpg,AMNE20.jpg,AMSA12.jpg,AMNE03.jpg,MN,1,num_6,32,num_8,2.95000370455,,,2017_May_18_1435,60.0039068691,FEMA4ImagesEEG,001,100484,
AFNE01.JPG,AFNE01.JPG,AFNE01.JPG,AFNE01.JPG,AFNE01.JPG,AFNE01.JPG,,,,,1,5,15,6,,,,,,,,,,,,,,,,,,,AMNE14.jpg,AMSA15.jpg,AMSA17.jpg,AMNE20.jpg,AMNE20.jpg,MN,1,num_4,16,num_4,0.883432212111,,,2017_May_18_1435,60.0039068691,FEMA4ImagesEEG,001,100484,
AFNE01.JPG,AFNE01.JPG,AFNE01.JPG,AFNE01.JPG,AFNE01.JPG,AFNE01.JPG,,,,,1,6,16,7,,,,,,,,,,,,,,,,,,,AMSA05.jpg,AMSA09.jpg,AMNE16.jpg,AMNE07.jpg,AMSA09.jpg,MS,2,num_6,32,num_8,0.616782202516,,,2017_May_18_1435,60.0039068691,FEMA4ImagesEEG,001,100484,
AFNE01.JPG,AFNE01.JPG,AFNE01.JPG,AFNE01.JPG,AFNE01.JPG,AFNE01.JPG,,,,,1,7,17,5,,,,,,,,,,,,,,,,,,,AMSA14.jpg,AMSA20.jpg,AMNE05.jpg,AMNE06.jpg,AMSA20.jpg,MS,2,num_6,16,num_6,0.683469482086,,,2017_May_18_1435,60.0039068691,FEMA4ImagesEEG,001,100484,
AFNE01.JPG,AFNE01.JPG,AFNE01.JPG,AFNE01.JPG,AFNE01.JPG,AFNE01.JPG,,,,,1,8,18,0,,,,,,,,,,,,,,,,,,,AMNE07.jpg,AMNE09.jpg,AMSA10.jpg,AMSA18.jpg,AMNE07.jpg,MN,1,num_8,32,num_6,1.06678959557,,,2017_May_18_1435,60.0039068691,FEMA4ImagesEEG,001,100484,
AFNE01.JPG,AFNE01.JPG,AFNE01.JPG,AFNE01.JPG,AFNE01.JPG,AFNE01.JPG,,,,,1,9,19,9,,,,,,,,,,,,,,,,,,,AMSA09.jpg,AMNE06.jpg,AMNE03.jpg,AMSA06.jpg,AMSA09.jpg,MS,2,num_8,16,num_8,0.700161749133,,,2017_May_18_1435,60.0039068691,FEMA4ImagesEEG,001,100484,
AFNE01.JPG,AFNE01.JPG,AFNE01.JPG,AFNE01.JPG,AFNE01.JPG,AFNE01.JPG,,,,,2,0,20,7,,,,,,,,,,,,,,,,,,,AMSA07.jpg,AMSA18.jpg,AMNE10.jpg,AMNE16.jpg,AMSA18.jpg,MS,2,num_6,16,num_6,0.450165517832,,,2017_May_18_1435,60.0039068691,FEMA4ImagesEEG,001,100484,
AFNE01.JPG,AFNE01.JPG,AFNE01.JPG,AFNE01.JPG,AFNE01.JPG,AFNE01.JPG,,,,,2,1,21,4,,,,,,,,,,,,,,,,,,,AMSA15.jpg,AMSA06.jpg,AMNE02.jpg,AMNE14.jpg,AMNE02.jpg,MN,1,num_2,16,num_2,1.14995841608,,,2017_May_18_1435,60.0039068691,FEMA4ImagesEEG,001,100484,
AFNE01.JPG,AFNE01.JPG,AFNE01.JPG,AFNE01.JPG,AFNE01.JPG,AFNE01.JPG,,,,,2,2,22,8,,,,,,,,,,,,,,,,,,,AMNE09.jpg,AMNE14.jpg,AMSA05.jpg,AMSA16.jpg,AMSA05.jpg,MS,2,num_2,32,num_4,0.916825726934,,,2017_May_18_1435,60.0039068691,FEMA4ImagesEEG,001,100484,
AFNE01.JPG,AFNE01.JPG,AFNE01.JPG,AFNE01.JPG,AFNE01.JPG,AFNE01.JPG,,,,,2,3,23,2,,,,,,,,,,,,,,,,,,,AMSA05.jpg,AMSA06.jpg,AMNE09.jpg,AMNE10.jpg,AMSA06.jpg,MS,2,num_6,32,num_8,0.466793957647,,,2017_May_18_1435,60.0039068691,FEMA4ImagesEEG,001,100484,
AFNE01.JPG,AFNE01.JPG,AFNE01.JPG,AFNE01.JPG,AFNE01.JPG,AFNE01.JPG,,,,,2,4,24,1,,,,,,,,,,,,,,,,,,,AMSA06.jpg,AMNE16.jpg,AMNE15.jpg,AMSA20.jpg,AMSA20.jpg,MS,2,num_4,16,num_4,0.533552762194,,,2017_May_18_1435,60.0039068691,FEMA4ImagesEEG,001,100484,
AFNE01.JPG,AFNE01.JPG,AFNE01.JPG,AFNE01.JPG,AFNE01.JPG,AFNE01.JPG,,,,,2,5,25,0,,,,,,,,,,,,,,,,,,,AMSA01.jpg,AMNE14.jpg,AMSA08.jpg,AMNE16.jpg,AMNE16.jpg,MN,1,num_4,16,num_4,0.700164956535,,,2017_May_18_1435,60.0039068691,FEMA4ImagesEEG,001,100484,
AFNE01.JPG,AFNE01.JPG,AFNE01.JPG,AFNE01.JPG,AFNE01.JPG,AFNE01.JPG,,,,,2,6,26,5,,,,,,,,,,,,,,,,,,,AMSA04.jpg,AMSA20.jpg,AMNE20.jpg,AMNE14.jpg,AMSA04.jpg,MS,2,num_8,16,num_8,0.583499663699,,,2017_May_18_1435,60.0039068691,FEMA4ImagesEEG,001,100484,
AFNE01.JPG,AFNE01.JPG,AFNE01.JPG,AFNE01.JPG,AFNE01.JPG,AFNE01.JPG,,,,,2,7,27,9,,,,,,,,,,,,,,,,,,,AMNE17.jpg,AMNE01.jpg,AMSA18.jpg,AMSA09.jpg,AMSA18.jpg,MS,2,num_2,16,num_2,1.13339380349,,,2017_May_18_1435,60.0039068691,FEMA4ImagesEEG,001,100484,
AFNE01.JPG,AFNE01.JPG,AFNE01.JPG,AFNE01.JPG,AFNE01.JPG,AFNE01.JPG,,,,,2,8,28,6,,,,,,,,,,,,,,,,,,,AMNE02.jpg,AMNE05.jpg,AMSA19.jpg,AMSA04.jpg,AMSA04.jpg,MS,2,num_4,16,num_4,0.966503848394,,,2017_May_18_1435,60.0039068691,FEMA4ImagesEEG,001,100484,
AFNE01.JPG,AFNE01.JPG,AFNE01.JPG,AFNE01.JPG,AFNE01.JPG,AFNE01.JPG,,,,,2,9,29,3,,,,,,,,,,,,,,,,,,,AMSA13.jpg,AMNE18.jpg,AMNE20.jpg,AMSA10.jpg,AMNE18.jpg,MN,1,num_6,16,num_6,1.08341579021,,,2017_May_18_1435,60.0039068691,FEMA4ImagesEEG,001,100484,
AFNE01.JPG,AFNE01.JPG,AFNE01.JPG,AFNE01.JPG,AFNE01.JPG,AFNE01.JPG,,,,,3,0,30,2,,,,,,,,,,,,,,,,,,,AMNE19.jpg,AMSA18.jpg,AMNE08.jpg,AMSA05.jpg,AMNE08.jpg,MN,1,num_2,32,num_8,1.183444304,,,2017_May_18_1435,60.0039068691,FEMA4ImagesEEG,001,100484,
AFNE01.JPG,AFNE01.JPG,AFNE01.JPG,AFNE01.JPG,AFNE01.JPG,AFNE01.JPG,,,,,3,1,31,3,,,,,,,,,,,,,,,,,,,AMNE16.jpg,AMSA02.jpg,AMSA07.jpg,AMNE09.jpg,AMSA07.jpg,MS,2,num_2,16,num_2,1.06675238976,,,2017_May_18_1435,60.0039068691,FEMA4ImagesEEG,001,100484,
AFNE01.JPG,AFNE01.JPG,AFNE01.JPG,AFNE01.JPG,AFNE01.JPG,AFNE01.JPG,,,,,3,2,32,0,,,,,,,,,,,,,,,,,,,AMNE02.jpg,AMSA02.jpg,AMNE19.jpg,AMSA16.jpg,AMNE02.jpg,MN,1,num_8,32,num_6,1.08358578237,,,2017_May_18_1435,60.0039068691,FEMA4ImagesEEG,001,100484,
AFNE01.JPG,AFNE01.JPG,AFNE01.JPG,AFNE01.JPG,AFNE01.JPG,AFNE01.JPG,,,,,3,3,33,6,,,,,,,,,,,,,,,,,,,AMSA19.jpg,AMNE12.jpg,AMNE01.jpg,AMSA17.jpg,AMSA17.jpg,MS,2,num_4,32,num_2,2.5000036885,,,2017_May_18_1435,60.0039068691,FEMA4ImagesEEG,001,100484,
AFNE01.JPG,AFNE01.JPG,AFNE01.JPG,AFNE01.JPG,AFNE01.JPG,AFNE01.JPG,,,,,3,4,34,8,,,,,,,,,,,,,,,,,,,AMNE15.jpg,AMSA09.jpg,AMSA20.jpg,AMNE17.jpg,AMSA09.jpg,MS,2,num_6,16,num_6,0.600227212155,,,2017_May_18_1435,60.0039068691,FEMA4ImagesEEG,001,100484,
AFNE01.JPG,AFNE01.JPG,AFNE01.JPG,AFNE01.JPG,AFNE01.JPG,AFNE01.JPG,,,,,3,5,35,7,,,,,,,,,,,,,,,,,,,AMSA03.jpg,AMNE05.jpg,AMSA09.jpg,AMNE11.jpg,AMNE05.jpg,MN,1,num_6,32,num_4,1.15008574982,,,2017_May_18_1435,60.0039068691,FEMA4ImagesEEG,001,100484,
AFNE01.JPG,AFNE01.JPG,AFNE01.JPG,AFNE01.JPG,AFNE01.JPG,AFNE01.JPG,,,,,3,6,36,9,,,,,,,,,,,,,,,,,,,AMNE08.jpg,AMSA17.jpg,AMNE10.jpg,AMSA10.jpg,AMNE10.jpg,MN,1,num_2,32,num_8,0.916758371546,,,2017_May_18_1435,60.0039068691,FEMA4ImagesEEG,001,100484,
AFNE01.JPG,AFNE01.JPG,AFNE01.JPG,AFNE01.JPG,AFNE01.JPG,AFNE01.JPG,,,,,3,7,37,1,,,,,,,,,,,,,,,,,,,AMNE20.jpg,AMSA05.jpg,AMNE11.jpg,AMSA04.jpg,AMNE11.jpg,MN,1,num_2,16,num_2,1.63341128382,,,2017_May_18_1435,60.0039068691,FEMA4ImagesEEG,001,100484,
AFNE01.JPG,AFNE01.JPG,AFNE01.JPG,AFNE01.JPG,AFNE01.JPG,AFNE01.JPG,,,,,3,8,38,4,,,,,,,,,,,,,,,,,,,AMSA06.jpg,AMSA10.jpg,AMNE01.jpg,AMNE11.jpg,AMNE01.jpg,MN,1,num_2,32,num_4,0.916750673787,,,2017_May_18_1435,60.0039068691,FEMA4ImagesEEG,001,100484,
AFNE01.JPG,AFNE01.JPG,AFNE01.JPG,AFNE01.JPG,AFNE01.JPG,AFNE01.JPG,,,,,3,9,39,5,,,,,,,,,,,,,,,,,,,AMNE10.jpg,AMSA08.jpg,AMNE20.jpg,AMSA06.jpg,AMNE10.jpg,MN,1,num_8,16,num_8,0.783513070637,,,2017_May_18_1435,60.0039068691,FEMA4ImagesEEG,001,100484,
AFNE01.JPG,AFNE01.JPG,AFNE01.JPG,AFNE01.JPG,AFNE01.JPG,AFNE01.JPG,,,,,4,0,40,7,,,,,,,,,,,,,,,,,,,AMNE16.jpg,AMNE17.jpg,AMSA19.jpg,AMSA05.jpg,AMNE17.jpg,MN,1,num_6,16,num_6,1.08348603225,,,2017_May_18_1435,60.0039068691,FEMA4ImagesEEG,001,100484,
AFNE01.JPG,AFNE01.JPG,AFNE01.JPG,AFNE01.JPG,AFNE01.JPG,AFNE01.JPG,,,,,4,1,41,3,,,,,,,,,,,,,,,,,,,AMSA05.jpg,AMNE06.jpg,AMSA10.jpg,AMNE13.jpg,AMSA10.jpg,MS,2,num_2,32,num_8,0.600025466745,,,2017_May_18_1435,60.0039068691,FEMA4ImagesEEG,001,100484,
AFNE01.JPG,AFNE01.JPG,AFNE01.JPG,AFNE01.JPG,AFNE01.JPG,AFNE01.JPG,,,,,4,2,42,0,,,,,,,,,,,,,,,,,,,AMNE19.jpg,AMNE15.jpg,AMSA03.jpg,AMSA01.jpg,AMSA01.jpg,MS,2,num_4,16,num_4,0.650182132158,,,2017_May_18_1435,60.0039068691,FEMA4ImagesEEG,001,100484,
AFNE01.JPG,AFNE01.JPG,AFNE01.JPG,AFNE01.JPG,AFNE01.JPG,AFNE01.JPG,,,,,4,3,43,4,,,,,,,,,,,,,,,,,,,AMNE03.jpg,AMSA04.jpg,AMSA11.jpg,AMNE02.jpg,AMSA11.jpg,MS,2,num_2,32,num_6,0.783466242603,,,2017_May_18_1435,60.0039068691,FEMA4ImagesEEG,001,100484,
AFNE01.JPG,AFNE01.JPG,AFNE01.JPG,AFNE01.JPG,AFNE01.JPG,AFNE01.JPG,,,,,4,4,44,9,,,,,,,,,,,,,,,,,,,AMNE02.jpg,AMNE07.jpg,AMSA07.jpg,AMSA13.jpg,AMSA13.jpg,MS,2,num_4,32,num_2,0.866822375203,,,2017_May_18_1435,60.0039068691,FEMA4ImagesEEG,001,100484,
AFNE01.JPG,AFNE01.JPG,AFNE01.JPG,AFNE01.JPG,AFNE01.JPG,AFNE01.JPG,,,,,4,5,45,8,,,,,,,,,,,,,,,,,,,AMNE04.jpg,AMNE16.jpg,AMSA07.jpg,AMSA01.jpg,AMSA07.jpg,MS,2,num_2,16,num_2,0.800162037805,,,2017_May_18_1435,60.0039068691,FEMA4ImagesEEG,001,100484,
AFNE01.JPG,AFNE01.JPG,AFNE01.JPG,AFNE01.JPG,AFNE01.JPG,AFNE01.JPG,,,,,4,6,46,5,,,,,,,,,,,,,,,,,,,AMSA08.jpg,AMNE09.jpg,AMSA15.jpg,AMNE03.jpg,AMSA08.jpg,MS,2,num_8,16,num_8,1.30013365232,,,2017_May_18_1435,60.0039068691,FEMA4ImagesEEG,001,100484,
AFNE01.JPG,AFNE01.JPG,AFNE01.JPG,AFNE01.JPG,AFNE01.JPG,AFNE01.JPG,,,,,4,7,47,6,,,,,,,,,,,,,,,,,,,AMSA18.jpg,AMNE18.jpg,AMSA17.jpg,AMNE04.jpg,AMSA18.jpg,MS,2,num_8,16,num_8,0.433523606931,,,2017_May_18_1435,60.0039068691,FEMA4ImagesEEG,001,100484,
AFNE01.JPG,AFNE01.JPG,AFNE01.JPG,AFNE01.JPG,AFNE01.JPG,AFNE01.JPG,,,,,4,8,48,1,,,,,,,,,,,,,,,,,,,AMSA06.jpg,AMNE06.jpg,AMNE18.jpg,AMSA12.jpg,AMSA06.jpg,MS,2,num_8,16,num_8,0.383480804201,,,2017_May_18_1435,60.0039068691,FEMA4ImagesEEG,001,100484,
AFNE01.JPG,AFNE01.JPG,AFNE01.JPG,AFNE01.JPG,AFNE01.JPG,AFNE01.JPG,,,,,4,9,49,2,,,,,,,,,,,,,,,,,,,AMSA19.jpg,AMNE16.jpg,AMNE06.jpg,AMSA10.jpg,AMSA10.jpg,MS,2,num_4,16,num_4,0.43355664314,,,2017_May_18_1435,60.0039068691,FEMA4ImagesEEG,001,100484,
AFNE01.JPG,AFNE01.JPG,AFNE01.JPG,AFNE01.JPG,AFNE01.JPG,AFNE01.JPG,,,,,5,0,50,3,,,,,,,,,,,,,,,,,,,AMNE01.jpg,AMNE18.jpg,AMSA08.jpg,AMSA07.jpg,AMNE01.jpg,MN,1,num_8,32,num_6,0.850117920025,,,2017_May_18_1435,60.0039068691,FEMA4ImagesEEG,001,100484,
AFNE01.JPG,AFNE01.JPG,AFNE01.JPG,AFNE01.JPG,AFNE01.JPG,AFNE01.JPG,,,,,5,1,51,7,,,,,,,,,,,,,,,,,,,AMSA14.jpg,AMNE08.jpg,AMNE11.jpg,AMSA12.jpg,AMNE08.jpg,MN,1,num_6,16,num_6,0.833331676171,,,2017_May_18_1435,60.0039068691,FEMA4ImagesEEG,001,100484,
AFNE01.JPG,AFNE01.JPG,AFNE01.JPG,AFNE01.JPG,AFNE01.JPG,AFNE01.JPG,,,,,5,2,52,5,,,,,,,,,,,,,,,,,,,AMNE11.jpg,AMSA12.jpg,AMNE09.jpg,AMSA03.jpg,AMSA12.jpg,MS,2,num_6,16,num_6,0.716786660807,,,2017_May_18_1435,60.0039068691,FEMA4ImagesEEG,001,100484,
AFNE01.JPG,AFNE01.JPG,AFNE01.JPG,AFNE01.JPG,AFNE01.JPG,AFNE01.JPG,,,,,5,3,53,4,,,,,,,,,,,,,,,,,,,AMNE14.jpg,AMSA11.jpg,AMNE04.jpg,AMSA16.jpg,AMNE14.jpg,MN,1,num_8,16,num_8,0.45019759181,,,2017_May_18_1435,60.0039068691,FEMA4ImagesEEG,001,100484,
AFNE01.JPG,AFNE01.JPG,AFNE01.JPG,AFNE01.JPG,AFNE01.JPG,AFNE01.JPG,,,,,5,4,54,2,,,,,,,,,,,,,,,,,,,AMNE15.jpg,AMSA17.jpg,AMNE03.jpg,AMSA15.jpg,AMSA15.jpg,MS,2,num_4,16,num_4,0.700127429969,,,2017_May_18_1435,60.0039068691,FEMA4ImagesEEG,001,100484,
AFNE01.JPG,AFNE01.JPG,AFNE01.JPG,AFNE01.JPG,AFNE01.JPG,AFNE01.JPG,,,,,5,5,55,1,,,,,,,,,,,,,,,,,,,AMNE10.jpg,AMSA13.jpg,AMNE12.jpg,AMSA01.jpg,AMNE10.jpg,MN,1,num_8,32,num_2,1.90005102972,,,2017_May_18_1435,60.0039068691,FEMA4ImagesEEG,001,100484,
AFNE01.JPG,AFNE01.JPG,AFNE01.JPG,AFNE01.JPG,AFNE01.JPG,AFNE01.JPG,,,,,5,6,56,8,,,,,,,,,,,,,,,,,,,AMSA07.jpg,AMSA01.jpg,AMNE15.jpg,AMNE20.jpg,AMSA01.jpg,MS,2,num_6,16,num_6,1.20013689178,,,2017_May_18_1435,60.0039068691,FEMA4ImagesEEG,001,100484,
AFNE01.JPG,AFNE01.JPG,AFNE01.JPG,AFNE01.JPG,AFNE01.JPG,AFNE01.JPG,,,,,5,7,57,0,,,,,,,,,,,,,,,,,,,AMNE05.jpg,AMSA20.jpg,AMSA13.jpg,AMNE03.jpg,AMNE05.jpg,MN,1,num_8,32,num_4,0.783480034414,,,2017_May_18_1435,60.0039068691,FEMA4ImagesEEG,001,100484,
AFNE01.JPG,AFNE01.JPG,AFNE01.JPG,AFNE01.JPG,AFNE01.JPG,AFNE01.JPG,,,,,5,8,58,6,,,,,,,,,,,,,,,,,,,AMSA17.jpg,AMNE06.jpg,AMNE10.jpg,AMSA20.jpg,AMSA20.jpg,MS,2,num_4,32,num_8,0.950148037504,,,2017_May_18_1435,60.0039068691,FEMA4ImagesEEG,001,100484,
AFNE01.JPG,AFNE01.JPG,AFNE01.JPG,AFNE01.JPG,AFNE01.JPG,AFNE01.JPG,,,,,5,9,59,9,,,,,,,,,,,,,,,,,,,AMNE13.jpg,AMNE06.jpg,AMSA08.jpg,AMSA03.jpg,AMNE06.jpg,MN,1,num_6,32,num_2,1.08341546947,,,2017_May_18_1435,60.0039068691,FEMA4ImagesEEG,001,100484,
,,,,,,,,,,,,,,,,,,,,,,,,,,,,,,,,,,,,,,,,,,,space,7.1662799078,2017_May_18_1435,60.0039068691,FEMA4ImagesEEG,001,100484,
AFNE01.JPG,AFNE01.JPG,AFNE01.JPG,AFNE01.JPG,AFNE01.JPG,AFNE01.JPG,,,,,,,,,0,0,0,0,,,,,,,,,,,,,,,AFNE16.jpg,AFNE02.jpg,AFSA05.jpg,AFSA04.jpg,AFNE02.jpg,FN,3,num_6,32,num_8,0.750152592009,,,2017_May_18_1435,60.0039068691,FEMA4ImagesEEG,001,100484,
AFNE01.JPG,AFNE01.JPG,AFNE01.JPG,AFNE01.JPG,AFNE01.JPG,AFNE01.JPG,,,,,,,,,0,1,1,3,,,,,,,,,,,,,,,AFSA15.jpg,AFSA05.jpg,AFNE05.jpg,AFNE08.jpg,AFNE08.jpg,FN,3,num_4,32,num_2,1.55006862229,,,2017_May_18_1435,60.0039068691,FEMA4ImagesEEG,001,100484,
AFNE01.JPG,AFNE01.JPG,AFNE01.JPG,AFNE01.JPG,AFNE01.JPG,AFNE01.JPG,,,,,,,,,0,2,2,7,,,,,,,,,,,,,,,AFSA15.jpg,AFNE20.jpg,AFSA01.jpg,AFNE08.jpg,AFNE20.jpg,FN,3,num_6,16,num_6,0.933492014068,,,2017_May_18_1435,60.0039068691,FEMA4ImagesEEG,001,100484,
AFNE01.JPG,AFNE01.JPG,AFNE01.JPG,AFNE01.JPG,AFNE01.JPG,AFNE01.JPG,,,,,,,,,0,3,3,4,,,,,,,,,,,,,,,AFNE07.jpg,AFSA04.jpg,AFSA15.jpg,AFNE09.jpg,AFNE09.jpg,FN,3,num_4,32,num_8,0.716894750163,,,2017_May_18_1435,60.0039068691,FEMA4ImagesEEG,001,100484,
AFNE01.JPG,AFNE01.JPG,AFNE01.JPG,AFNE01.JPG,AFNE01.JPG,AFNE01.JPG,,,,,,,,,0,4,4,9,,,,,,,,,,,,,,,AFSA12.jpg,AFSA10.jpg,AFNE18.jpg,AFNE15.jpg,AFNE18.jpg,FN,3,num_2,32,num_4,1.43339851836,,,2017_May_18_1435,60.0039068691,FEMA4ImagesEEG,001,100484,
AFNE01.JPG,AFNE01.JPG,AFNE01.JPG,AFNE01.JPG,AFNE01.JPG,AFNE01.JPG,,,,,,,,,0,5,5,8,,,,,,,,,,,,,,,AFSA02.jpg,AFSA10.jpg,AFNE05.jpg,AFNE13.jpg,AFNE13.jpg,FN,3,num_4,32,num_2,1.36675133131,,,2017_May_18_1435,60.0039068691,FEMA4ImagesEEG,001,100484,
AFNE01.JPG,AFNE01.JPG,AFNE01.JPG,AFNE01.JPG,AFNE01.JPG,AFNE01.JPG,,,,,,,,,0,6,6,6,,,,,,,,,,,,,,,AFNE13.jpg,AFNE01.jpg,AFSA13.jpg,AFSA16.jpg,AFSA16.jpg,FS,4,num_4,16,num_4,1.63329966634,,,2017_May_18_1435,60.0039068691,FEMA4ImagesEEG,001,100484,
AFNE01.JPG,AFNE01.JPG,AFNE01.JPG,AFNE01.JPG,AFNE01.JPG,AFNE01.JPG,,,,,,,,,0,7,7,2,,,,,,,,,,,,,,,AFSA07.jpg,AFNE19.jpg,AFNE12.jpg,AFSA04.jpg,AFNE19.jpg,FN,3,num_6,16,num_6,1.13343389599,,,2017_May_18_1435,60.0039068691,FEMA4ImagesEEG,001,100484,
AFNE01.JPG,AFNE01.JPG,AFNE01.JPG,AFNE01.JPG,AFNE01.JPG,AFNE01.JPG,,,,,,,,,0,8,8,5,,,,,,,,,,,,,,,AFNE07.jpg,AFSA10.jpg,AFNE16.jpg,AFSA13.jpg,AFSA10.jpg,FS,4,num_6,32,num_2,1.25012196136,,,2017_May_18_1435,60.0039068691,FEMA4ImagesEEG,001,100484,
AFNE01.JPG,AFNE01.JPG,AFNE01.JPG,AFNE01.JPG,AFNE01.JPG,AFNE01.JPG,,,,,,,,,0,9,9,1,,,,,,,,,,,,,,,AFSA06.jpg,AFNE08.jpg,AFSA08.jpg,AFNE05.jpg,AFNE08.jpg,FN,3,num_6,16,num_6,1.25011169768,,,2017_May_18_1435,60.0039068691,FEMA4ImagesEEG,001,100484,
AFNE01.JPG,AFNE01.JPG,AFNE01.JPG,AFNE01.JPG,AFNE01.JPG,AFNE01.JPG,,,,,,,,,1,0,10,2,,,,,,,,,,,,,,,AFSA05.jpg,AFNE08.jpg,AFSA01.jpg,AFNE03.jpg,AFNE08.jpg,FN,3,num_6,16,num_6,1.75005316263,,,2017_May_18_1435,60.0039068691,FEMA4ImagesEEG,001,100484,
AFNE01.JPG,AFNE01.JPG,AFNE01.JPG,AFNE01.JPG,AFNE01.JPG,AFNE01.JPG,,,,,,,,,1,1,11,3,,,,,,,,,,,,,,,AFSA17.jpg,AFSA07.jpg,AFNE18.jpg,AFNE08.jpg,AFSA07.jpg,FS,4,num_6,32,num_8,1.16673760363,,,2017_May_18_1435,60.0039068691,FEMA4ImagesEEG,001,100484,
AFNE01.JPG,AFNE01.JPG,AFNE01.JPG,AFNE01.JPG,AFNE01.JPG,AFNE01.JPG,,,,,,,,,1,2,12,6,,,,,,,,,,,,,,,AFNE02.jpg,AFSA05.jpg,AFSA13.jpg,AFNE12.jpg,AFSA05.jpg,FS,4,num_6,16,num_6,0.95012109536,,,2017_May_18_1435,60.0039068691,FEMA4ImagesEEG,001,100484,
AFNE01.JPG,AFNE01.JPG,AFNE01.JPG,AFNE01.JPG,AFNE01.JPG,AFNE01.JPG,,,,,,,,,1,3,13,0,,,,,,,,,,,,,,,AFNE18.jpg,AFSA11.jpg,AFNE14.jpg,AFSA15.jpg,AFNE18.jpg,FN,3,num_8,16,num_8,1.10009073732,,,2017_May_18_1435,60.0039068691,FEMA4ImagesEEG,001,100484,
AFNE01.JPG,AFNE01.JPG,AFNE01.JPG,AFNE01.JPG,AFNE01.JPG,AFNE01.JPG,,,,,,,,,1,4,14,9,,,,,,,,,,,,,,,AFSA16.jpg,AFSA12.jpg,AFNE06.jpg,AFNE02.jpg,AFNE02.jpg,FN,3,num_4,32,num_2,1.05023203928,,,2017_May_18_1435,60.0039068691,FEMA4ImagesEEG,001,100484,
AFNE01.JPG,AFNE01.JPG,AFNE01.JPG,AFNE01.JPG,AFNE01.JPG,AFNE01.JPG,,,,,,,,,1,5,15,5,,,,,,,,,,,,,,,AFNE10.jpg,AFSA08.jpg,AFSA15.jpg,AFNE02.jpg,AFNE02.jpg,FN,3,num_4,16,num_4,1.01682633634,,,2017_May_18_1435,60.0039068691,FEMA4ImagesEEG,001,100484,
AFNE01.JPG,AFNE01.JPG,AFNE01.JPG,AFNE01.JPG,AFNE01.JPG,AFNE01.JPG,,,,,,,,,1,6,16,7,,,,,,,,,,,,,,,AFSA10.jpg,AFNE08.jpg,AFNE17.jpg,AFSA01.jpg,AFSA10.jpg,FS,4,num_8,32,num_2,1.26675681597,,,2017_May_18_1435,60.0039068691,FEMA4ImagesEEG,001,100484,
AFNE01.JPG,AFNE01.JPG,AFNE01.JPG,AFNE01.JPG,AFNE01.JPG,AFNE01.JPG,,,,,,,,,1,7,17,4,,,,,,,,,,,,,,,AFNE09.jpg,AFSA06.jpg,AFNE06.jpg,AFSA20.jpg,AFNE09.jpg,FN,3,num_8,16,num_8,0.933481429645,,,2017_May_18_1435,60.0039068691,FEMA4ImagesEEG,001,100484,
AFNE01.JPG,AFNE01.JPG,AFNE01.JPG,AFNE01.JPG,AFNE01.JPG,AFNE01.JPG,,,,,,,,,1,8,18,1,,,,,,,,,,,,,,,AFNE03.jpg,AFSA15.jpg,AFSA20.jpg,AFNE19.jpg,AFSA20.jpg,FS,4,num_2,32,num_4,0.866811470041,,,2017_May_18_1435,60.0039068691,FEMA4ImagesEEG,001,100484,
AFNE01.JPG,AFNE01.JPG,AFNE01.JPG,AFNE01.JPG,AFNE01.JPG,AFNE01.JPG,,,,,,,,,1,9,19,8,,,,,,,,,,,,,,,AFNE12.jpg,AFNE18.jpg,AFSA09.jpg,AFSA17.jpg,AFSA09.jpg,FS,4,num_2,32,num_4,1.10017637488,,,2017_May_18_1435,60.0039068691,FEMA4ImagesEEG,001,100484,
AFNE01.JPG,AFNE01.JPG,AFNE01.JPG,AFNE01.JPG,AFNE01.JPG,AFNE01.JPG,,,,,,,,,2,0,20,0,,,,,,,,,,,,,,,AFSA17.jpg,AFSA02.jpg,AFNE20.jpg,AFNE13.jpg,AFNE13.jpg,FN,3,num_4,32,num_8,1.35017068173,,,2017_May_18_1435,60.0039068691,FEMA4ImagesEEG,001,100484,
AFNE01.JPG,AFNE01.JPG,AFNE01.JPG,AFNE01.JPG,AFNE01.JPG,AFNE01.JPG,,,,,,,,,2,1,21,5,,,,,,,,,,,,,,,AFNE12.jpg,AFNE06.jpg,AFSA14.jpg,AFSA11.jpg,AFNE12.jpg,FN,3,num_8,32,num_2,1.43340525391,,,2017_May_18_1435,60.0039068691,FEMA4ImagesEEG,001,100484,
AFNE01.JPG,AFNE01.JPG,AFNE01.JPG,AFNE01.JPG,AFNE01.JPG,AFNE01.JPG,,,,,,,,,2,2,22,1,,,,,,,,,,,,,,,AFSA10.jpg,AFNE05.jpg,AFSA02.jpg,AFNE02.jpg,AFSA10.jpg,FS,4,num_8,32,num_4,1.10015199865,,,2017_May_18_1435,60.0039068691,FEMA4ImagesEEG,001,100484,
AFNE01.JPG,AFNE01.JPG,AFNE01.JPG,AFNE01.JPG,AFNE01.JPG,AFNE01.JPG,,,,,,,,,2,3,23,6,,,,,,,,,,,,,,,AFSA09.jpg,AFSA19.jpg,AFNE08.jpg,AFNE11.jpg,AFSA19.jpg,FS,4,num_6,16,num_6,0.950034816313,,,2017_May_18_1435,60.0039068691,FEMA4ImagesEEG,001,100484,
AFNE01.JPG,AFNE01.JPG,AFNE01.JPG,AFNE01.JPG,AFNE01.JPG,AFNE01.JPG,,,,,,,,,2,4,24,2,,,,,,,,,,,,,,,AFNE18.jpg,AFSA04.jpg,AFSA06.jpg,AFNE02.jpg,AFSA04.jpg,FS,4,num_6,32,num_4,0.650120870836,,,2017_May_18_1435,60.0039068691,FEMA4ImagesEEG,001,100484,
AFNE01.JPG,AFNE01.JPG,AFNE01.JPG,AFNE01.JPG,AFNE01.JPG,AFNE01.JPG,,,,,,,,,2,5,25,3,,,,,,,,,,,,,,,AFSA12.jpg,AFSA08.jpg,AFNE03.jpg,AFNE09.jpg,AFNE03.jpg,FN,3,num_2,16,num_2,1.33342998296,,,2017_May_18_1435,60.0039068691,FEMA4ImagesEEG,001,100484,
AFNE01.JPG,AFNE01.JPG,AFNE01.JPG,AFNE01.JPG,AFNE01.JPG,AFNE01.JPG,,,,,,,,,2,6,26,9,,,,,,,,,,,,,,,AFNE17.jpg,AFSA08.jpg,AFSA17.jpg,AFNE15.jpg,AFNE15.jpg,FN,3,num_4,32,num_8,2.03336079935,,,2017_May_18_1435,60.0039068691,FEMA4ImagesEEG,001,100484,
AFNE01.JPG,AFNE01.JPG,AFNE01.JPG,AFNE01.JPG,AFNE01.JPG,AFNE01.JPG,,,,,,,,,2,7,27,8,,,,,,,,,,,,,,,AFSA19.jpg,AFNE14.jpg,AFSA07.jpg,AFNE16.jpg,AFNE16.jpg,FN,3,num_4,32,num_2,1.50037863347,,,2017_May_18_1435,60.0039068691,FEMA4ImagesEEG,001,100484,
AFNE01.JPG,AFNE01.JPG,AFNE01.JPG,AFNE01.JPG,AFNE01.JPG,AFNE01.JPG,,,,,,,,,2,8,28,7,,,,,,,,,,,,,,,AFSA17.jpg,AFNE01.jpg,AFSA16.jpg,AFNE03.jpg,AFSA16.jpg,FS,4,num_2,32,num_4,1.383439108,,,2017_May_18_1435,60.0039068691,FEMA4ImagesEEG,001,100484,
AFNE01.JPG,AFNE01.JPG,AFNE01.JPG,AFNE01.JPG,AFNE01.JPG,AFNE01.JPG,,,,,,,,,2,9,29,4,,,,,,,,,,,,,,,AFNE13.jpg,AFNE02.jpg,AFSA14.jpg,AFSA09.jpg,AFSA09.jpg,FS,4,num_4,32,num_6,1.50009766531,,,2017_May_18_1435,60.0039068691,FEMA4ImagesEEG,001,100484,
AFNE01.JPG,AFNE01.JPG,AFNE01.JPG,AFNE01.JPG,AFNE01.JPG,AFNE01.JPG,,,,,,,,,3,0,30,0,,,,,,,,,,,,,,,AFNE11.jpg,AFNE08.jpg,AFSA17.jpg,AFSA12.jpg,AFSA17.jpg,FS,4,num_2,16,num_2,1.51673797249,,,2017_May_18_1435,60.0039068691,FEMA4ImagesEEG,001,100484,
AFNE01.JPG,AFNE01.JPG,AFNE01.JPG,AFNE01.JPG,AFNE01.JPG,AFNE01.JPG,,,,,,,,,3,1,31,8,,,,,,,,,,,,,,,AFNE13.jpg,AFNE16.jpg,AFSA11.jpg,AFSA12.jpg,AFNE16.jpg,FN,3,num_6,32,num_8,1.86668189112,,,2017_May_18_1435,60.0039068691,FEMA4ImagesEEG,001,100484,
AFNE01.JPG,AFNE01.JPG,AFNE01.JPG,AFNE01.JPG,AFNE01.JPG,AFNE01.JPG,,,,,,,,,3,2,32,7,,,,,,,,,,,,,,,AFNE12.jpg,AFSA06.jpg,AFSA16.jpg,AFNE16.jpg,AFNE16.jpg,FN,3,num_4,16,num_4,1.13340567087,,,2017_May_18_1435,60.0039068691,FEMA4ImagesEEG,001,100484,
AFNE01.JPG,AFNE01.JPG,AFNE01.JPG,AFNE01.JPG,AFNE01.JPG,AFNE01.JPG,,,,,,,,,3,3,33,5,,,,,,,,,,,,,,,AFNE15.jpg,AFSA17.jpg,AFSA19.jpg,AFNE12.jpg,AFSA17.jpg,FS,4,num_6,16,num_6,1.35015111661,,,2017_May_18_1435,60.0039068691,FEMA4ImagesEEG,001,100484,
AFNE01.JPG,AFNE01.JPG,AFNE01.JPG,AFNE01.JPG,AFNE01.JPG,AFNE01.JPG,,,,,,,,,3,4,34,6,,,,,,,,,,,,,,,AFNE17.jpg,AFNE03.jpg,AFSA18.jpg,AFSA04.jpg,AFSA04.jpg,FS,4,num_4,16,num_4,1.01676186761,,,2017_May_18_1435,60.0039068691,FEMA4ImagesEEG,001,100484,
AFNE01.JPG,AFNE01.JPG,AFNE01.JPG,AFNE01.JPG,AFNE01.JPG,AFNE01.JPG,,,,,,,,,3,5,35,3,,,,,,,,,,,,,,,AFNE07.jpg,AFSA09.jpg,AFNE14.jpg,AFSA07.jpg,AFNE14.jpg,FN,3,num_2,16,num_2,0.766806049534,,,2017_May_18_1435,60.0039068691,FEMA4ImagesEEG,001,100484,
AFNE01.JPG,AFNE01.JPG,AFNE01.JPG,AFNE01.JPG,AFNE01.JPG,AFNE01.JPG,,,,,,,,,3,6,36,4,,,,,,,,,,,,,,,AFNE08.jpg,AFNE13.jpg,AFSA18.jpg,AFSA03.jpg,AFSA18.jpg,FS,4,num_2,32,num_4,1.21675987903,,,2017_May_18_1435,60.0039068691,FEMA4ImagesEEG,001,100484,
AFNE01.JPG,AFNE01.JPG,AFNE01.JPG,AFNE01.JPG,AFNE01.JPG,AFNE01.JPG,,,,,,,,,3,7,37,9,,,,,,,,,,,,,,,AFNE07.jpg,AFNE04.jpg,AFSA12.jpg,AFSA14.jpg,AFNE04.jpg,FN,3,num_6,32,num_8,0.950126868673,,,2017_May_18_1435,60.0039068691,FEMA4ImagesEEG,001,100484,
AFNE01.JPG,AFNE01.JPG,AFNE01.JPG,AFNE01.JPG,AFNE01.JPG,AFNE01.JPG,,,,,,,,,3,8,38,2,,,,,,,,,,,,,,,AFNE15.jpg,AFSA13.jpg,AFNE12.jpg,AFSA16.jpg,AFNE12.jpg,FN,3,num_2,16,num_2,1.18343724773,,,2017_May_18_1435,60.0039068691,FEMA4ImagesEEG,001,100484,
AFNE01.JPG,AFNE01.JPG,AFNE01.JPG,AFNE01.JPG,AFNE01.JPG,AFNE01.JPG,,,,,,,,,3,9,39,1,,,,,,,,,,,,,,,AFNE16.jpg,AFSA17.jpg,AFSA10.jpg,AFNE15.jpg,AFSA17.jpg,FS,4,num_6,32,num_4,1.45006127736,,,2017_May_18_1435,60.0039068691,FEMA4ImagesEEG,001,100484,
AFNE01.JPG,AFNE01.JPG,AFNE01.JPG,AFNE01.JPG,AFNE01.JPG,AFNE01.JPG,,,,,,,,,4,0,40,5,,,,,,,,,,,,,,,AFSA18.jpg,AFNE17.jpg,AFSA11.jpg,AFNE08.jpg,AFSA18.jpg,FS,4,num_8,32,num_6,1.25006486964,,,2017_May_18_1435,60.0039068691,FEMA4ImagesEEG,001,100484,
AFNE01.JPG,AFNE01.JPG,AFNE01.JPG,AFNE01.JPG,AFNE01.JPG,AFNE01.JPG,,,,,,,,,4,1,41,8,,,,,,,,,,,,,,,AFNE12.jpg,AFNE10.jpg,AFSA03.jpg,AFSA02.jpg,AFNE10.jpg,FN,3,num_6,32,num_8,1.1334460841,,,2017_May_18_1435,60.0039068691,FEMA4ImagesEEG,001,100484,
AFNE01.JPG,AFNE01.JPG,AFNE01.JPG,AFNE01.JPG,AFNE01.JPG,AFNE01.JPG,,,,,,,,,4,2,42,9,,,,,,,,,,,,,,,AFSA12.jpg,AFNE12.jpg,AFSA03.jpg,AFNE04.jpg,AFSA03.jpg,FS,4,num_2,16,num_2,1.5834756082,,,2017_May_18_1435,60.0039068691,FEMA4ImagesEEG,001,100484,
AFNE01.JPG,AFNE01.JPG,AFNE01.JPG,AFNE01.JPG,AFNE01.JPG,AFNE01.JPG,,,,,,,,,4,3,43,7,,,,,,,,,,,,,,,AFSA05.jpg,AFSA06.jpg,AFNE11.jpg,AFNE06.jpg,AFNE11.jpg,FN,3,num_2,32,num_6,2.00002116883,,,2017_May_18_1435,60.0039068691,FEMA4ImagesEEG,001,100484,
AFNE01.JPG,AFNE01.JPG,AFNE01.JPG,AFNE01.JPG,AFNE01.JPG,AFNE01.JPG,,,,,,,,,4,4,44,4,,,,,,,,,,,,,,,AFSA11.jpg,AFNE05.jpg,AFNE06.jpg,AFSA12.jpg,AFNE05.jpg,FN,3,num_6,32,num_8,2.11666465134,,,2017_May_18_1435,60.0039068691,FEMA4ImagesEEG,001,100484,
AFNE01.JPG,AFNE01.JPG,AFNE01.JPG,AFNE01.JPG,AFNE01.JPG,AFNE01.JPG,,,,,,,,,4,5,45,0,,,,,,,,,,,,,,,AFNE11.jpg,AFSA01.jpg,AFNE17.jpg,AFSA04.jpg,AFNE11.jpg,FN,3,num_8,32,num_2,2.24975856303,,,2017_May_18_1435,60.0039068691,FEMA4ImagesEEG,001,100484,
AFNE01.JPG,AFNE01.JPG,AFNE01.JPG,AFNE01.JPG,AFNE01.JPG,AFNE01.JPG,,,,,,,,,4,6,46,2,,,,,,,,,,,,,,,AFSA17.jpg,AFSA15.jpg,AFNE17.jpg,AFNE19.jpg,AFNE17.jpg,FN,3,num_2,32,num_4,0.966781929907,,,2017_May_18_1435,60.0039068691,FEMA4ImagesEEG,001,100484,
AFNE01.JPG,AFNE01.JPG,AFNE01.JPG,AFNE01.JPG,AFNE01.JPG,AFNE01.JPG,,,,,,,,,4,7,47,3,,,,,,,,,,,,,,,AFNE11.jpg,AFSA01.jpg,AFSA20.jpg,AFNE01.jpg,AFSA01.jpg,FS,4,num_6,16,num_6,0.950172413737,,,2017_May_18_1435,60.0039068691,FEMA4ImagesEEG,001,100484,
AFNE01.JPG,AFNE01.JPG,AFNE01.JPG,AFNE01.JPG,AFNE01.JPG,AFNE01.JPG,,,,,,,,,4,8,48,6,,,,,,,,,,,,,,,AFSA10.jpg,AFNE12.jpg,AFSA02.jpg,AFNE01.jpg,AFNE01.jpg,FN,3,num_4,16,num_4,1.56668038365,,,2017_May_18_1435,60.0039068691,FEMA4ImagesEEG,001,100484,
AFNE01.JPG,AFNE01.JPG,AFNE01.JPG,AFNE01.JPG,AFNE01.JPG,AFNE01.JPG,,,,,,,,,4,9,49,1,,,,,,,,,,,,,,,AFNE20.jpg,AFSA08.jpg,AFSA03.jpg,AFNE04.jpg,AFNE04.jpg,FN,3,num_4,32,num_8,0.35019537872,,,2017_May_18_1435,60.0039068691,FEMA4ImagesEEG,001,100484,
AFNE01.JPG,AFNE01.JPG,AFNE01.JPG,AFNE01.JPG,AFNE01.JPG,AFNE01.JPG,,,,,,,,,5,0,50,8,,,,,,,,,,,,,,,AFNE20.jpg,AFSA06.jpg,AFNE11.jpg,AFSA04.jpg,AFSA06.jpg,FS,4,num_6,32,num_2,0.933464109679,,,2017_May_18_1435,60.0039068691,FEMA4ImagesEEG,001,100484,
AFNE01.JPG,AFNE01.JPG,AFNE01.JPG,AFNE01.JPG,AFNE01.JPG,AFNE01.JPG,,,,,,,,,5,1,51,2,,,,,,,,,,,,,,,AFSA08.jpg,AFSA07.jpg,AFNE12.jpg,AFNE07.jpg,AFNE12.jpg,FN,3,num_2,32,num_4,1.13548887658,,,2017_May_18_1435,60.0039068691,FEMA4ImagesEEG,001,100484,
AFNE01.JPG,AFNE01.JPG,AFNE01.JPG,AFNE01.JPG,AFNE01.JPG,AFNE01.JPG,,,,,,,,,5,2,52,1,,,,,,,,,,,,,,,AFNE14.jpg,AFNE11.jpg,AFSA17.jpg,AFSA03.jpg,AFSA17.jpg,FS,4,num_2,16,num_2,1.8500775068,,,2017_May_18_1435,60.0039068691,FEMA4ImagesEEG,001,100484,
AFNE01.JPG,AFNE01.JPG,AFNE01.JPG,AFNE01.JPG,AFNE01.JPG,AFNE01.JPG,,,,,,,,,5,3,53,3,,,,,,,,,,,,,,,AFSA09.jpg,AFSA18.jpg,AFNE19.jpg,AFNE13.jpg,AFSA18.jpg,FS,4,num_6,16,num_6,1.18347284985,,,2017_May_18_1435,60.0039068691,FEMA4ImagesEEG,001,100484,
AFNE01.JPG,AFNE01.JPG,AFNE01.JPG,AFNE01.JPG,AFNE01.JPG,AFNE01.JPG,,,,,,,,,5,4,54,9,,,,,,,,,,,,,,,AFSA01.jpg,AFSA04.jpg,AFNE13.jpg,AFNE16.jpg,AFSA04.jpg,FS,4,num_6,32,num_8,1.48338198423,,,2017_May_18_1435,60.0039068691,FEMA4ImagesEEG,001,100484,
AFNE01.JPG,AFNE01.JPG,AFNE01.JPG,AFNE01.JPG,AFNE01.JPG,AFNE01.JPG,,,,,,,,,5,5,55,5,,,,,,,,,,,,,,,AFSA18.jpg,AFNE07.jpg,AFSA02.jpg,AFNE16.jpg,AFNE07.jpg,FN,3,num_6,16,num_6,1.81668687862,,,2017_May_18_1435,60.0039068691,FEMA4ImagesEEG,001,100484,
AFNE01.JPG,AFNE01.JPG,AFNE01.JPG,AFNE01.JPG,AFNE01.JPG,AFNE01.JPG,,,,,,,,,5,6,56,7,,,,,,,,,,,,,,,AFNE08.jpg,AFSA03.jpg,AFSA04.jpg,AFNE17.jpg,AFNE08.jpg,FN,3,num_8,16,num_8,1.89992562043,,,2017_May_18_1435,60.0039068691,FEMA4ImagesEEG,001,100484,
AFNE01.JPG,AFNE01.JPG,AFNE01.JPG,AFNE01.JPG,AFNE01.JPG,AFNE01.JPG,,,,,,,,,5,7,57,6,,,,,,,,,,,,,,,AFNE07.jpg,AFSA18.jpg,AFSA07.jpg,AFNE15.jpg,AFSA18.jpg,FS,4,num_6,32,num_4,2.4666634165,,,2017_May_18_1435,60.0039068691,FEMA4ImagesEEG,001,100484,
AFNE01.JPG,AFNE01.JPG,AFNE01.JPG,AFNE01.JPG,AFNE01.JPG,AFNE01.JPG,,,,,,,,,5,8,58,0,,,,,,,,,,,,,,,AFNE07.jpg,AFSA11.jpg,AFSA07.jpg,AFNE03.jpg,AFNE07.jpg,FN,3,num_8,32,num_6,4.04986799949,,,2017_May_18_1435,60.0039068691,FEMA4ImagesEEG,001,100484,
AFNE01.JPG,AFNE01.JPG,AFNE01.JPG,AFNE01.JPG,AFNE01.JPG,AFNE01.JPG,,,,,,,,,5,9,59,4,,,,,,,,,,,,,,,AFSA14.jpg,AFSA15.jpg,AFNE14.jpg,AFNE18.jpg,AFSA14.jpg,FS,4,num_8,32,num_4,1.05010727145,,,2017_May_18_1435,60.0039068691,FEMA4ImagesEEG,001,100484,
,,,,,,,,,,,,,,,,,,,,,,,,,,,,,,,,,,,,,,,,,,,space,6.98301361444,2017_May_18_1435,60.0039068691,FEMA4ImagesEEG,001,100484,
AFNE01.JPG,AFNE01.JPG,AFNE01.JPG,AFNE01.JPG,AFNE01.JPG,AFNE01.JPG,,,,,,,,,,,,,0,0,0,8,,,,,,,,,,,AMSA19.jpg,AMSA12.jpg,AMNE18.jpg,AMNE13.jpg,AMNE13.jpg,MN,1,num_4,32,num_8,0.650146209286,,,2017_May_18_1435,60.0039068691,FEMA4ImagesEEG,001,100484,
AFNE01.JPG,AFNE01.JPG,AFNE01.JPG,AFNE01.JPG,AFNE01.JPG,AFNE01.JPG,,,,,,,,,,,,,0,1,1,4,,,,,,,,,,,AMNE18.jpg,AMSA02.jpg,AMSA13.jpg,AMNE16.jpg,AMSA13.jpg,MS,2,num_2,16,num_2,0.583451873463,,,2017_May_18_1435,60.0039068691,FEMA4ImagesEEG,001,100484,
AFNE01.JPG,AFNE01.JPG,AFNE01.JPG,AFNE01.JPG,AFNE01.JPG,AFNE01.JPG,,,,,,,,,,,,,0,2,2,0,,,,,,,,,,,AMNE02.jpg,AMSA18.jpg,AMNE20.jpg,AMSA11.jpg,AMSA18.jpg,MS,2,num_6,16,num_6,1.050114007,,,2017_May_18_1435,60.0039068691,FEMA4ImagesEEG,001,100484,
AFNE01.JPG,AFNE01.JPG,AFNE01.JPG,AFNE01.JPG,AFNE01.JPG,AFNE01.JPG,,,,,,,,,,,,,0,3,3,3,,,,,,,,,,,AMNE06.jpg,AMSA10.jpg,AMNE05.jpg,AMSA04.jpg,AMNE06.jpg,MN,1,num_8,16,num_8,1.00013599372,,,2017_May_18_1435,60.0039068691,FEMA4ImagesEEG,001,100484,
AFNE01.JPG,AFNE01.JPG,AFNE01.JPG,AFNE01.JPG,AFNE01.JPG,AFNE01.JPG,,,,,,,,,,,,,0,4,4,6,,,,,,,,,,,AMNE13.jpg,AMSA19.jpg,AMNE04.jpg,AMSA06.jpg,AMNE04.jpg,MN,1,num_2,16,num_2,1.21683172477,,,2017_May_18_1435,60.0039068691,FEMA4ImagesEEG,001,100484,
AFNE01.JPG,AFNE01.JPG,AFNE01.JPG,AFNE01.JPG,AFNE01.JPG,AFNE01.JPG,,,,,,,,,,,,,0,5,5,9,,,,,,,,,,,AMNE14.jpg,AMSA10.jpg,AMSA04.jpg,AMNE20.jpg,AMNE14.jpg,MN,1,num_8,16,num_8,1.08342477093,,,2017_May_18_1435,60.0039068691,FEMA4ImagesEEG,001,100484,
AFNE01.JPG,AFNE01.JPG,AFNE01.JPG,AFNE01.JPG,AFNE01.JPG,AFNE01.JPG,,,,,,,,,,,,,0,6,6,1,,,,,,,,,,,AMSA13.jpg,AMNE11.jpg,AMNE05.jpg,AMSA16.jpg,AMNE05.jpg,MN,1,num_2,32,num_4,2.10011222689,,,2017_May_18_1435,60.0039068691,FEMA4ImagesEEG,001,100484,
AFNE01.JPG,AFNE01.JPG,AFNE01.JPG,AFNE01.JPG,AFNE01.JPG,AFNE01.JPG,,,,,,,,,,,,,0,7,7,5,,,,,,,,,,,AMSA06.jpg,AMNE07.jpg,AMSA13.jpg,AMNE17.jpg,AMNE07.jpg,MN,1,num_6,32,num_8,1.13345314038,,,2017_May_18_1435,60.0039068691,FEMA4ImagesEEG,001,100484,
AFNE01.JPG,AFNE01.JPG,AFNE01.JPG,AFNE01.JPG,AFNE01.JPG,AFNE01.JPG,,,,,,,,,,,,,0,8,8,2,,,,,,,,,,,AMSA14.jpg,AMSA20.jpg,AMNE01.jpg,AMNE19.jpg,AMSA20.jpg,MS,2,num_6,32,num_4,1.58342044095,,,2017_May_18_1435,60.0039068691,FEMA4ImagesEEG,001,100484,
AFNE01.JPG,AFNE01.JPG,AFNE01.JPG,AFNE01.JPG,AFNE01.JPG,AFNE01.JPG,,,,,,,,,,,,,0,9,9,7,,,,,,,,,,,AMNE01.jpg,AMSA08.jpg,AMSA05.jpg,AMNE13.jpg,AMSA05.jpg,MS,2,num_2,16,num_2,1.43348896703,,,2017_May_18_1435,60.0039068691,FEMA4ImagesEEG,001,100484,
AFNE01.JPG,AFNE01.JPG,AFNE01.JPG,AFNE01.JPG,AFNE01.JPG,AFNE01.JPG,,,,,,,,,,,,,1,0,10,2,,,,,,,,,,,AMNE20.jpg,AMSA06.jpg,AMNE07.jpg,AMSA20.jpg,AMNE07.jpg,MN,1,num_2,32,num_4,1.3834198636,,,2017_May_18_1435,60.0039068691,FEMA4ImagesEEG,001,100484,
AFNE01.JPG,AFNE01.JPG,AFNE01.JPG,AFNE01.JPG,AFNE01.JPG,AFNE01.JPG,,,,,,,,,,,,,1,1,11,8,,,,,,,,,,,AMNE20.jpg,AMSA08.jpg,AMNE17.jpg,AMSA11.jpg,AMNE20.jpg,MN,1,num_8,16,num_8,1.85007494087,,,2017_May_18_1435,60.0039068691,FEMA4ImagesEEG,001,100484,
AFNE01.JPG,AFNE01.JPG,AFNE01.JPG,AFNE01.JPG,AFNE01.JPG,AFNE01.JPG,,,,,,,,,,,,,1,2,12,5,,,,,,,,,,,AMSA20.jpg,AMSA01.jpg,AMNE15.jpg,AMNE19.jpg,AMSA20.jpg,MS,2,num_8,16,num_8,1.30005410881,,,2017_May_18_1435,60.0039068691,FEMA4ImagesEEG,001,100484,
AFNE01.JPG,AFNE01.JPG,AFNE01.JPG,AFNE01.JPG,AFNE01.JPG,AFNE01.JPG,,,,,,,,,,,,,1,3,13,1,,,,,,,,,,,AMNE12.jpg,AMNE04.jpg,AMSA05.jpg,AMSA03.jpg,AMNE04.jpg,MN,1,num_6,16,num_6,0.983334995835,,,2017_May_18_1435,60.0039068691,FEMA4ImagesEEG,001,100484,
AFNE01.JPG,AFNE01.JPG,AFNE01.JPG,AFNE01.JPG,AFNE01.JPG,AFNE01.JPG,,,,,,,,,,,,,1,4,14,6,,,,,,,,,,,AMSA02.jpg,AMNE02.jpg,AMSA03.jpg,AMNE14.jpg,AMSA03.jpg,MS,2,num_2,48,None,,,,2017_May_18_1435,60.0039068691,FEMA4ImagesEEG,001,100484,
AFNE01.JPG,AFNE01.JPG,AFNE01.JPG,AFNE01.JPG,AFNE01.JPG,AFNE01.JPG,,,,,,,,,,,,,1,5,15,7,,,,,,,,,,,AMSA15.jpg,AMSA01.jpg,AMNE02.jpg,AMNE17.jpg,AMNE17.jpg,MN,1,num_4,32,num_2,0.61681267283,,,2017_May_18_1435,60.0039068691,FEMA4ImagesEEG,001,100484,
AFNE01.JPG,AFNE01.JPG,AFNE01.JPG,AFNE01.JPG,AFNE01.JPG,AFNE01.JPG,,,,,,,,,,,,,1,6,16,9,,,,,,,,,,,AMNE15.jpg,AMNE09.jpg,AMSA01.jpg,AMSA20.jpg,AMNE09.jpg,MN,1,num_6,32,num_8,0.850088411957,,,2017_May_18_1435,60.0039068691,FEMA4ImagesEEG,001,100484,
AFNE01.JPG,AFNE01.JPG,AFNE01.JPG,AFNE01.JPG,AFNE01.JPG,AFNE01.JPG,,,,,,,,,,,,,1,7,17,4,,,,,,,,,,,AMSA01.jpg,AMSA16.jpg,AMNE14.jpg,AMNE08.jpg,AMSA16.jpg,MS,2,num_6,16,num_6,0.800127077149,,,2017_May_18_1435,60.0039068691,FEMA4ImagesEEG,001,100484,
AFNE01.JPG,AFNE01.JPG,AFNE01.JPG,AFNE01.JPG,AFNE01.JPG,AFNE01.JPG,,,,,,,,,,,,,1,8,18,3,,,,,,,,,,,AMNE19.jpg,AMSA17.jpg,AMNE14.jpg,AMSA16.jpg,AMSA17.jpg,MS,2,num_6,32,num_2,0.98350145985,,,2017_May_18_1435,60.0039068691,FEMA4ImagesEEG,001,100484,
AFNE01.JPG,AFNE01.JPG,AFNE01.JPG,AFNE01.JPG,AFNE01.JPG,AFNE01.JPG,,,,,,,,,,,,,1,9,19,0,,,,,,,,,,,AMSA14.jpg,AMNE03.jpg,AMNE17.jpg,AMSA10.jpg,AMSA10.jpg,MS,2,num_4,16,num_4,0.800145038578,,,2017_May_18_1435,60.0039068691,FEMA4ImagesEEG,001,100484,
AFNE01.JPG,AFNE01.JPG,AFNE01.JPG,AFNE01.JPG,AFNE01.JPG,AFNE01.JPG,,,,,,,,,,,,,2,0,20,1,,,,,,,,,,,AMSA18.jpg,AMSA01.jpg,AMNE07.jpg,AMNE18.jpg,AMNE07.jpg,MN,1,num_2,32,num_8,0.883462040903,,,2017_May_18_1435,60.0039068691,FEMA4ImagesEEG,001,100484,
AFNE01.JPG,AFNE01.JPG,AFNE01.JPG,AFNE01.JPG,AFNE01.JPG,AFNE01.JPG,,,,,,,,,,,,,2,1,21,8,,,,,,,,,,,AMSA19.jpg,AMNE10.jpg,AMNE18.jpg,AMSA07.jpg,AMNE10.jpg,MN,1,num_6,32,num_2,1.08340905469,,,2017_May_18_1435,60.0039068691,FEMA4ImagesEEG,001,100484,
AFNE01.JPG,AFNE01.JPG,AFNE01.JPG,AFNE01.JPG,AFNE01.JPG,AFNE01.JPG,,,,,,,,,,,,,2,2,22,3,,,,,,,,,,,AMSA17.jpg,AMNE02.jpg,AMSA07.jpg,AMNE14.jpg,AMNE14.jpg,MN,1,num_4,16,num_4,0.983449499981,,,2017_May_18_1435,60.0039068691,FEMA4ImagesEEG,001,100484,
AFNE01.JPG,AFNE01.JPG,AFNE01.JPG,AFNE01.JPG,AFNE01.JPG,AFNE01.JPG,,,,,,,,,,,,,2,3,23,4,,,,,,,,,,,AMSA18.jpg,AMNE05.jpg,AMNE11.jpg,AMSA13.jpg,AMSA18.jpg,MS,2,num_8,16,num_8,0.750118272845,,,2017_May_18_1435,60.0039068691,FEMA4ImagesEEG,001,100484,
AFNE01.JPG,AFNE01.JPG,AFNE01.JPG,AFNE01.JPG,AFNE01.JPG,AFNE01.JPG,,,,,,,,,,,,,2,4,24,5,,,,,,,,,,,AMNE19.jpg,AMSA11.jpg,AMNE13.jpg,AMSA04.jpg,AMSA11.jpg,MS,2,num_6,32,num_4,1.33337609866,,,2017_May_18_1435,60.0039068691,FEMA4ImagesEEG,001,100484,
AFNE01.JPG,AFNE01.JPG,AFNE01.JPG,AFNE01.JPG,AFNE01.JPG,AFNE01.JPG,,,,,,,,,,,,,2,5,25,7,,,,,,,,,,,AMSA17.jpg,AMNE05.jpg,AMSA19.jpg,AMNE02.jpg,AMNE02.jpg,MN,1,num_4,16,num_4,1.00006190281,,,2017_May_18_1435,60.0039068691,FEMA4ImagesEEG,001,100484,
AFNE01.JPG,AFNE01.JPG,AFNE01.JPG,AFNE01.JPG,AFNE01.JPG,AFNE01.JPG,,,,,,,,,,,,,2,6,26,6,,,,,,,,,,,AMNE07.jpg,AMSA10.jpg,AMSA06.jpg,AMNE09.jpg,AMNE07.jpg,MN,1,num_8,32,num_6,1.03348075609,,,2017_May_18_1435,60.0039068691,FEMA4ImagesEEG,001,100484,
AFNE01.JPG,AFNE01.JPG,AFNE01.JPG,AFNE01.JPG,AFNE01.JPG,AFNE01.JPG,,,,,,,,,,,,,2,7,27,0,,,,,,,,,,,AMNE07.jpg,AMNE01.jpg,AMSA06.jpg,AMSA02.jpg,AMSA06.jpg,MS,2,num_2,32,num_4,0.866771056812,,,2017_May_18_1435,60.0039068691,FEMA4ImagesEEG,001,100484,
AFNE01.JPG,AFNE01.JPG,AFNE01.JPG,AFNE01.JPG,AFNE01.JPG,AFNE01.JPG,,,,,,,,,,,,,2,8,28,2,,,,,,,,,,,AMSA11.jpg,AMSA17.jpg,AMNE05.jpg,AMNE17.jpg,AMNE05.jpg,MN,1,num_2,32,num_8,1.03344290877,,,2017_May_18_1435,60.0039068691,FEMA4ImagesEEG,001,100484,
AFNE01.JPG,AFNE01.JPG,AFNE01.JPG,AFNE01.JPG,AFNE01.JPG,AFNE01.JPG,,,,,,,,,,,,,2,9,29,9,,,,,,,,,,,AMSA18.jpg,AMNE16.jpg,AMSA11.jpg,AMNE14.jpg,AMSA11.jpg,MS,2,num_2,32,num_8,1.25012997985,,,2017_May_18_1435,60.0039068691,FEMA4ImagesEEG,001,100484,
AFNE01.JPG,AFNE01.JPG,AFNE01.JPG,AFNE01.JPG,AFNE01.JPG,AFNE01.JPG,,,,,,,,,,,,,3,0,30,9,,,,,,,,,,,AMSA03.jpg,AMNE14.jpg,AMNE08.jpg,AMSA10.jpg,AMNE14.jpg,MN,1,num_6,32,num_2,1.58337970698,,,2017_May_18_1435,60.0039068691,FEMA4ImagesEEG,001,100484,
AFNE01.JPG,AFNE01.JPG,AFNE01.JPG,AFNE01.JPG,AFNE01.JPG,AFNE01.JPG,,,,,,,,,,,,,3,1,31,5,,,,,,,,,,,AMSA12.jpg,AMSA08.jpg,AMNE08.jpg,AMNE16.jpg,AMSA08.jpg,MS,2,num_6,16,num_6,1.78339984943,,,2017_May_18_1435,60.0039068691,FEMA4ImagesEEG,001,100484,
AFNE01.JPG,AFNE01.JPG,AFNE01.JPG,AFNE01.JPG,AFNE01.JPG,AFNE01.JPG,,,,,,,,,,,,,3,2,32,4,,,,,,,,,,,AMNE02.jpg,AMSA11.jpg,AMSA09.jpg,AMNE04.jpg,AMSA09.jpg,MS,2,num_2,32,num_4,1.05013293066,,,2017_May_18_1435,60.0039068691,FEMA4ImagesEEG,001,100484,
AFNE01.JPG,AFNE01.JPG,AFNE01.JPG,AFNE01.JPG,AFNE01.JPG,AFNE01.JPG,,,,,,,,,,,,,3,3,33,1,,,,,,,,,,,AMSA11.jpg,AMNE10.jpg,AMNE20.jpg,AMSA07.jpg,AMNE20.jpg,MN,1,num_2,16,num_2,0.933469562253,,,2017_May_18_1435,60.0039068691,FEMA4ImagesEEG,001,100484,
AFNE01.JPG,AFNE01.JPG,AFNE01.JPG,AFNE01.JPG,AFNE01.JPG,AFNE01.JPG,,,,,,,,,,,,,3,4,34,8,,,,,,,,,,,AMSA07.jpg,AMNE15.jpg,AMNE16.jpg,AMSA14.jpg,AMSA07.jpg,MS,2,num_8,32,num_4,0.950145471579,,,2017_May_18_1435,60.0039068691,FEMA4ImagesEEG,001,100484,
AFNE01.JPG,AFNE01.JPG,AFNE01.JPG,AFNE01.JPG,AFNE01.JPG,AFNE01.JPG,,,,,,,,,,,,,3,5,35,0,,,,,,,,,,,AMNE01.jpg,AMSA06.jpg,AMSA15.jpg,AMNE16.jpg,AMNE01.jpg,MN,1,num_8,16,num_8,0.816799458335,,,2017_May_18_1435,60.0039068691,FEMA4ImagesEEG,001,100484,
AFNE01.JPG,AFNE01.JPG,AFNE01.JPG,AFNE01.JPG,AFNE01.JPG,AFNE01.JPG,,,,,,,,,,,,,3,6,36,2,,,,,,,,,,,AMNE14.jpg,AMSA19.jpg,AMSA17.jpg,AMNE15.jpg,AMSA19.jpg,MS,2,num_6,32,num_4,0.933427224591,,,2017_May_18_1435,60.0039068691,FEMA4ImagesEEG,001,100484,
AFNE01.JPG,AFNE01.JPG,AFNE01.JPG,AFNE01.JPG,AFNE01.JPG,AFNE01.JPG,,,,,,,,,,,,,3,7,37,7,,,,,,,,,,,AMNE14.jpg,AMNE09.jpg,AMSA11.jpg,AMSA03.jpg,AMSA03.jpg,MS,2,num_4,32,num_2,1.56673843757,,,2017_May_18_1435,60.0039068691,FEMA4ImagesEEG,001,100484,
AFNE01.JPG,AFNE01.JPG,AFNE01.JPG,AFNE01.JPG,AFNE01.JPG,AFNE01.JPG,,,,,,,,,,,,,3,8,38,3,,,,,,,,,,,AMNE13.jpg,AMSA03.jpg,AMNE16.jpg,AMSA20.jpg,AMSA20.jpg,MS,2,num_4,32,num_6,1.08342829907,,,2017_May_18_1435,60.0039068691,FEMA4ImagesEEG,001,100484,
AFNE01.JPG,AFNE01.JPG,AFNE01.JPG,AFNE01.JPG,AFNE01.JPG,AFNE01.JPG,,,,,,,,,,,,,3,9,39,6,,,,,,,,,,,AMSA14.jpg,AMNE18.jpg,AMNE11.jpg,AMSA07.jpg,AMSA14.jpg,MS,2,num_8,32,num_4,0.616625360708,,,2017_May_18_1435,60.0039068691,FEMA4ImagesEEG,001,100484,
AFNE01.JPG,AFNE01.JPG,AFNE01.JPG,AFNE01.JPG,AFNE01.JPG,AFNE01.JPG,,,,,,,,,,,,,4,0,40,6,,,,,,,,,,,AMSA16.jpg,AMSA06.jpg,AMNE07.jpg,AMNE06.jpg,AMNE06.jpg,MN,1,num_4,32,num_8,0.56680034037,,,2017_May_18_1435,60.0039068691,FEMA4ImagesEEG,001,100484,
AFNE01.JPG,AFNE01.JPG,AFNE01.JPG,AFNE01.JPG,AFNE01.JPG,AFNE01.JPG,,,,,,,,,,,,,4,1,41,9,,,,,,,,,,,AMNE20.jpg,AMSA12.jpg,AMSA04.jpg,AMNE13.jpg,AMSA04.jpg,MS,2,num_2,32,num_8,0.700189332754,,,2017_May_18_1435,60.0039068691,FEMA4ImagesEEG,001,100484,
AFNE01.JPG,AFNE01.JPG,AFNE01.JPG,AFNE01.JPG,AFNE01.JPG,AFNE01.JPG,,,,,,,,,,,,,4,2,42,8,,,,,,,,,,,AMSA10.jpg,AMNE03.jpg,AMSA16.jpg,AMNE02.jpg,AMNE02.jpg,MN,1,num_4,16,num_4,0.850094826761,,,2017_May_18_1435,60.0039068691,FEMA4ImagesEEG,001,100484,
AFNE01.JPG,AFNE01.JPG,AFNE01.JPG,AFNE01.JPG,AFNE01.JPG,AFNE01.JPG,,,,,,,,,,,,,4,3,43,3,,,,,,,,,,,AMSA09.jpg,AMNE05.jpg,AMSA03.jpg,AMNE02.jpg,AMNE05.jpg,MN,1,num_6,16,num_6,0.533486369037,,,2017_May_18_1435,60.0039068691,FEMA4ImagesEEG,001,100484,
AFNE01.JPG,AFNE01.JPG,AFNE01.JPG,AFNE01.JPG,AFNE01.JPG,AFNE01.JPG,,,,,,,,,,,,,4,4,44,4,,,,,,,,,,,AMSA16.jpg,AMNE08.jpg,AMNE03.jpg,AMSA13.jpg,AMNE03.jpg,MN,1,num_2,16,num_2,1.4000730004,,,2017_May_18_1435,60.0039068691,FEMA4ImagesEEG,001,100484,
AFNE01.JPG,AFNE01.JPG,AFNE01.JPG,AFNE01.JPG,AFNE01.JPG,AFNE01.JPG,,,,,,,,,,,,,4,5,45,0,,,,,,,,,,,AMNE08.jpg,AMNE18.jpg,AMSA09.jpg,AMSA12.jpg,AMSA12.jpg,MS,2,num_4,16,num_4,0.950113397601,,,2017_May_18_1435,60.0039068691,FEMA4ImagesEEG,001,100484,
AFNE01.JPG,AFNE01.JPG,AFNE01.JPG,AFNE01.JPG,AFNE01.JPG,AFNE01.JPG,,,,,,,,,,,,,4,6,46,1,,,,,,,,,,,AMNE11.jpg,AMSA08.jpg,AMSA06.jpg,AMNE02.jpg,AMNE02.jpg,MN,1,num_4,32,num_2,2.06639604772,,,2017_May_18_1435,60.0039068691,FEMA4ImagesEEG,001,100484,
AFNE01.JPG,AFNE01.JPG,AFNE01.JPG,AFNE01.JPG,AFNE01.JPG,AFNE01.JPG,,,,,,,,,,,,,4,7,47,5,,,,,,,,,,,AMNE18.jpg,AMSA15.jpg,AMNE03.jpg,AMSA10.jpg,AMSA10.jpg,MS,2,num_4,32,num_8,1.45009527578,,,2017_May_18_1435,60.0039068691,FEMA4ImagesEEG,001,100484,
AFNE01.JPG,AFNE01.JPG,AFNE01.JPG,AFNE01.JPG,AFNE01.JPG,AFNE01.JPG,,,,,,,,,,,,,4,8,48,2,,,,,,,,,,,AMSA18.jpg,AMSA03.jpg,AMNE02.jpg,AMNE11.jpg,AMNE02.jpg,MN,1,num_2,16,num_2,1.43346042118,,,2017_May_18_1435,60.0039068691,FEMA4ImagesEEG,001,100484,
AFNE01.JPG,AFNE01.JPG,AFNE01.JPG,AFNE01.JPG,AFNE01.JPG,AFNE01.JPG,,,,,,,,,,,,,4,9,49,7,,,,,,,,,,,AMNE14.jpg,AMSA10.jpg,AMSA04.jpg,AMNE18.jpg,AMSA10.jpg,MS,2,num_6,16,num_6,3.69993530675,,,2017_May_18_1435,60.0039068691,FEMA4ImagesEEG,001,100484,
AFNE01.JPG,AFNE01.JPG,AFNE01.JPG,AFNE01.JPG,AFNE01.JPG,AFNE01.JPG,,,,,,,,,,,,,5,0,50,7,,,,,,,,,,,AMSA11.jpg,AMNE05.jpg,AMSA13.jpg,AMNE16.jpg,AMSA11.jpg,MS,2,num_8,16,num_8,1.98328303597,,,2017_May_18_1435,60.0039068691,FEMA4ImagesEEG,001,100484,
AFNE01.JPG,AFNE01.JPG,AFNE01.JPG,AFNE01.JPG,AFNE01.JPG,AFNE01.JPG,,,,,,,,,,,,,5,1,51,2,,,,,,,,,,,AMNE17.jpg,AMSA03.jpg,AMNE01.jpg,AMSA06.jpg,AMNE17.jpg,MN,1,num_8,32,num_2,1.36671861584,,,2017_May_18_1435,60.0039068691,FEMA4ImagesEEG,001,100484,
AFNE01.JPG,AFNE01.JPG,AFNE01.JPG,AFNE01.JPG,AFNE01.JPG,AFNE01.JPG,,,,,,,,,,,,,5,2,52,9,,,,,,,,,,,AMSA03.jpg,AMNE11.jpg,AMNE07.jpg,AMSA06.jpg,AMSA06.jpg,MS,2,num_4,32,num_8,1.30012435086,,,2017_May_18_1435,60.0039068691,FEMA4ImagesEEG,001,100484,
AFNE01.JPG,AFNE01.JPG,AFNE01.JPG,AFNE01.JPG,AFNE01.JPG,AFNE01.JPG,,,,,,,,,,,,,5,3,53,0,,,,,,,,,,,AMNE04.jpg,AMSA07.jpg,AMSA09.jpg,AMNE16.jpg,AMNE16.jpg,MN,1,num_4,16,num_4,1.43340942354,,,2017_May_18_1435,60.0039068691,FEMA4ImagesEEG,001,100484,
AFNE01.JPG,AFNE01.JPG,AFNE01.JPG,AFNE01.JPG,AFNE01.JPG,AFNE01.JPG,,,,,,,,,,,,,5,4,54,6,,,,,,,,,,,AMNE07.jpg,AMSA11.jpg,AMNE17.jpg,AMSA03.jpg,AMSA03.jpg,MS,2,num_4,32,num_6,3.13327480899,,,2017_May_18_1435,60.0039068691,FEMA4ImagesEEG,001,100484,
AFNE01.JPG,AFNE01.JPG,AFNE01.JPG,AFNE01.JPG,AFNE01.JPG,AFNE01.JPG,,,,,,,,,,,,,5,5,55,4,,,,,,,,,,,AMSA20.jpg,AMNE11.jpg,AMNE16.jpg,AMSA15.jpg,AMNE11.jpg,MN,1,num_6,16,num_6,1.20011283629,,,2017_May_18_1435,60.0039068691,FEMA4ImagesEEG,001,100484,
AFNE01.JPG,AFNE01.JPG,AFNE01.JPG,AFNE01.JPG,AFNE01.JPG,AFNE01.JPG,,,,,,,,,,,,,5,6,56,8,,,,,,,,,,,AMSA03.jpg,AMSA06.jpg,AMNE15.jpg,AMNE20.jpg,AMSA03.jpg,MS,2,num_8,16,num_8,0.900098499231,,,2017_May_18_1435,60.0039068691,FEMA4ImagesEEG,001,100484,
AFNE01.JPG,AFNE01.JPG,AFNE01.JPG,AFNE01.JPG,AFNE01.JPG,AFNE01.JPG,,,,,,,,,,,,,5,7,57,3,,,,,,,,,,,AMNE01.jpg,AMSA20.jpg,AMSA11.jpg,AMNE19.jpg,AMSA11.jpg,MS,2,num_2,16,num_2,1.41679958664,,,2017_May_18_1435,60.0039068691,FEMA4ImagesEEG,001,100484,
AFNE01.JPG,AFNE01.JPG,AFNE01.JPG,AFNE01.JPG,AFNE01.JPG,AFNE01.JPG,,,,,,,,,,,,,5,8,58,5,,,,,,,,,,,AMNE03.jpg,AMSA19.jpg,AMNE09.jpg,AMSA17.jpg,AMNE09.jpg,MN,1,num_2,32,num_6,1.03340185406,,,2017_May_18_1435,60.0039068691,FEMA4ImagesEEG,001,100484,
AFNE01.JPG,AFNE01.JPG,AFNE01.JPG,AFNE01.JPG,AFNE01.JPG,AFNE01.JPG,,,,,,,,,,,,,5,9,59,1,,,,,,,,,,,AMSA13.jpg,AMNE17.jpg,AMNE18.jpg,AMSA03.jpg,AMSA03.jpg,MS,2,num_4,16,num_4,0.866780358279,,,2017_May_18_1435,60.0039068691,FEMA4ImagesEEG,001,100484,
,,,,,,,,,,,,,,,,,,,,,,,,,,,,,,,,,,,,,,,,,,,space,13.0825058511,2017_May_18_1435,60.0039068691,FEMA4ImagesEEG,001,100484,
AFNE01.JPG,AFNE01.JPG,AFNE01.JPG,AFNE01.JPG,AFNE01.JPG,AFNE01.JPG,,,,,,,,,,,,,,,,,0,0,0,3,,,,,,,AFSA02.jpg,AFNE15.jpg,AFNE18.jpg,AFSA03.jpg,AFNE18.jpg,FN,3,num_2,32,num_4,0.666807364571,,,2017_May_18_1435,60.0039068691,FEMA4ImagesEEG,001,100484,
AFNE01.JPG,AFNE01.JPG,AFNE01.JPG,AFNE01.JPG,AFNE01.JPG,AFNE01.JPG,,,,,,,,,,,,,,,,,0,1,1,1,,,,,,,AFNE03.jpg,AFSA12.jpg,AFSA01.jpg,AFNE01.jpg,AFSA01.jpg,FS,4,num_2,16,num_2,1.35007766717,,,2017_May_18_1435,60.0039068691,FEMA4ImagesEEG,001,100484,
AFNE01.JPG,AFNE01.JPG,AFNE01.JPG,AFNE01.JPG,AFNE01.JPG,AFNE01.JPG,,,,,,,,,,,,,,,,,0,2,2,8,,,,,,,AFSA13.jpg,AFNE16.jpg,AFSA11.jpg,AFNE07.jpg,AFNE07.jpg,FN,3,num_4,16,num_4,0.983457197741,,,2017_May_18_1435,60.0039068691,FEMA4ImagesEEG,001,100484,
AFNE01.JPG,AFNE01.JPG,AFNE01.JPG,AFNE01.JPG,AFNE01.JPG,AFNE01.JPG,,,,,,,,,,,,,,,,,0,3,3,6,,,,,,,AFNE02.jpg,AFSA13.jpg,AFSA06.jpg,AFNE16.jpg,AFNE02.jpg,FN,3,num_8,32,num_6,1.21675442645,,,2017_May_18_1435,60.0039068691,FEMA4ImagesEEG,001,100484,
AFNE01.JPG,AFNE01.JPG,AFNE01.JPG,AFNE01.JPG,AFNE01.JPG,AFNE01.JPG,,,,,,,,,,,,,,,,,0,4,4,9,,,,,,,AFNE17.jpg,AFNE14.jpg,AFSA20.jpg,AFSA03.jpg,AFNE14.jpg,FN,3,num_6,32,num_2,1.21679131154,,,2017_May_18_1435,60.0039068691,FEMA4ImagesEEG,001,100484,
AFNE01.JPG,AFNE01.JPG,AFNE01.JPG,AFNE01.JPG,AFNE01.JPG,AFNE01.JPG,,,,,,,,,,,,,,,,,0,5,5,4,,,,,,,AFSA01.jpg,AFSA08.jpg,AFNE03.jpg,AFNE18.jpg,AFNE03.jpg,FN,3,num_2,32,num_6,1.16677320577,,,2017_May_18_1435,60.0039068691,FEMA4ImagesEEG,001,100484,
AFNE01.JPG,AFNE01.JPG,AFNE01.JPG,AFNE01.JPG,AFNE01.JPG,AFNE01.JPG,,,,,,,,,,,,,,,,,0,6,6,7,,,,,,,AFNE20.jpg,AFNE07.jpg,AFSA05.jpg,AFSA12.jpg,AFSA12.jpg,FS,4,num_4,16,num_4,0.933462185247,,,2017_May_18_1435,60.0039068691,FEMA4ImagesEEG,001,100484,
AFNE01.JPG,AFNE01.JPG,AFNE01.JPG,AFNE01.JPG,AFNE01.JPG,AFNE01.JPG,,,,,,,,,,,,,,,,,0,7,7,0,,,,,,,AFSA15.jpg,AFNE14.jpg,AFSA05.jpg,AFNE16.jpg,AFNE16.jpg,FN,3,num_4,32,num_8,1.13346180036,,,2017_May_18_1435,60.0039068691,FEMA4ImagesEEG,001,100484,
AFNE01.JPG,AFNE01.JPG,AFNE01.JPG,AFNE01.JPG,AFNE01.JPG,AFNE01.JPG,,,,,,,,,,,,,,,,,0,8,8,2,,,,,,,AFNE16.jpg,AFSA04.jpg,AFSA06.jpg,AFNE17.jpg,AFNE16.jpg,FN,3,num_8,32,num_4,1.93331721082,,,2017_May_18_1435,60.0039068691,FEMA4ImagesEEG,001,100484,
AFNE01.JPG,AFNE01.JPG,AFNE01.JPG,AFNE01.JPG,AFNE01.JPG,AFNE01.JPG,,,,,,,,,,,,,,,,,0,9,9,5,,,,,,,AFSA15.jpg,AFNE10.jpg,AFSA14.jpg,AFNE17.jpg,AFSA15.jpg,FS,4,num_8,32,num_6,1.00013214485,,,2017_May_18_1435,60.0039068691,FEMA4ImagesEEG,001,100484,
AFNE01.JPG,AFNE01.JPG,AFNE01.JPG,AFNE01.JPG,AFNE01.JPG,AFNE01.JPG,,,,,,,,,,,,,,,,,1,0,10,4,,,,,,,AFNE12.jpg,AFSA09.jpg,AFNE17.jpg,AFSA19.jpg,AFSA19.jpg,FS,4,num_4,32,num_6,1.13344159373,,,2017_May_18_1435,60.0039068691,FEMA4ImagesEEG,001,100484,
AFNE01.JPG,AFNE01.JPG,AFNE01.JPG,AFNE01.JPG,AFNE01.JPG,AFNE01.JPG,,,,,,,,,,,,,,,,,1,1,11,8,,,,,,,AFNE18.jpg,AFSA14.jpg,AFNE17.jpg,AFSA06.jpg,AFSA14.jpg,FS,4,num_6,32,num_4,1.25008411404,,,2017_May_18_1435,60.0039068691,FEMA4ImagesEEG,001,100484,
AFNE01.JPG,AFNE01.JPG,AFNE01.JPG,AFNE01.JPG,AFNE01.JPG,AFNE01.JPG,,,,,,,,,,,,,,,,,1,2,12,7,,,,,,,AFSA18.jpg,AFNE15.jpg,AFNE13.jpg,AFSA14.jpg,AFSA18.jpg,FS,4,num_8,32,num_2,1.34999780294,,,2017_May_18_1435,60.0039068691,FEMA4ImagesEEG,001,100484,
AFNE01.JPG,AFNE01.JPG,AFNE01.JPG,AFNE01.JPG,AFNE01.JPG,AFNE01.JPG,,,,,,,,,,,,,,,,,1,3,13,1,,,,,,,AFSA01.jpg,AFSA10.jpg,AFNE02.jpg,AFNE16.jpg,AFSA01.jpg,FS,4,num_8,16,num_8,2.45004331593,,,2017_May_18_1435,60.0039068691,FEMA4ImagesEEG,001,100484,
AFNE01.JPG,AFNE01.JPG,AFNE01.JPG,AFNE01.JPG,AFNE01.JPG,AFNE01.JPG,,,,,,,,,,,,,,,,,1,4,14,3,,,,,,,AFSA11.jpg,AFNE09.jpg,AFSA19.jpg,AFNE04.jpg,AFNE04.jpg,FN,3,num_4,32,num_6,0.916667922895,,,2017_May_18_1435,60.0039068691,FEMA4ImagesEEG,001,100484,
AFNE01.JPG,AFNE01.JPG,AFNE01.JPG,AFNE01.JPG,AFNE01.JPG,AFNE01.JPG,,,,,,,,,,,,,,,,,1,5,15,5,,,,,,,AFNE02.jpg,AFNE08.jpg,AFSA01.jpg,AFSA05.jpg,AFSA05.jpg,FS,4,num_4,16,num_4,0.883418741025,,,2017_May_18_1435,60.0039068691,FEMA4ImagesEEG,001,100484,
AFNE01.JPG,AFNE01.JPG,AFNE01.JPG,AFNE01.JPG,AFNE01.JPG,AFNE01.JPG,,,,,,,,,,,,,,,,,1,6,16,9,,,,,,,AFSA04.jpg,AFNE08.jpg,AFNE20.jpg,AFSA18.jpg,AFSA18.jpg,FS,4,num_4,16,num_4,0.483822680864,,,2017_May_18_1435,60.0039068691,FEMA4ImagesEEG,001,100484,
AFNE01.JPG,AFNE01.JPG,AFNE01.JPG,AFNE01.JPG,AFNE01.JPG,AFNE01.JPG,,,,,,,,,,,,,,,,,1,7,17,2,,,,,,,AFNE11.jpg,AFSA01.jpg,AFNE02.jpg,AFSA20.jpg,AFSA20.jpg,FS,4,num_4,16,num_4,2.61669496127,,,2017_May_18_1435,60.0039068691,FEMA4ImagesEEG,001,100484,
AFNE01.JPG,AFNE01.JPG,AFNE01.JPG,AFNE01.JPG,AFNE01.JPG,AFNE01.JPG,,,,,,,,,,,,,,,,,1,8,18,0,,,,,,,AFSA07.jpg,AFSA13.jpg,AFNE11.jpg,AFNE19.jpg,AFNE11.jpg,FN,3,num_2,32,num_6,1.50008547719,,,2017_May_18_1435,60.0039068691,FEMA4ImagesEEG,001,100484,
AFNE01.JPG,AFNE01.JPG,AFNE01.JPG,AFNE01.JPG,AFNE01.JPG,AFNE01.JPG,,,,,,,,,,,,,,,,,1,9,19,6,,,,,,,AFSA20.jpg,AFSA01.jpg,AFNE05.jpg,AFNE02.jpg,AFSA01.jpg,FS,4,num_6,48,None,,,,2017_May_18_1435,60.0039068691,FEMA4ImagesEEG,001,100484,
AFNE01.JPG,AFNE01.JPG,AFNE01.JPG,AFNE01.JPG,AFNE01.JPG,AFNE01.JPG,,,,,,,,,,,,,,,,,2,0,20,0,,,,,,,AFSA05.jpg,AFNE16.jpg,AFSA06.jpg,AFNE05.jpg,AFSA05.jpg,FS,4,num_8,16,num_8,0.450196308855,,,2017_May_18_1435,60.0039068691,FEMA4ImagesEEG,001,100484,
AFNE01.JPG,AFNE01.JPG,AFNE01.JPG,AFNE01.JPG,AFNE01.JPG,AFNE01.JPG,,,,,,,,,,,,,,,,,2,1,21,8,,,,,,,AFSA03.jpg,AFSA08.jpg,AFNE04.jpg,AFNE08.jpg,AFSA03.jpg,FS,4,num_8,32,num_4,1.66670985964,,,2017_May_18_1435,60.0039068691,FEMA4ImagesEEG,001,100484,
AFNE01.JPG,AFNE01.JPG,AFNE01.JPG,AFNE01.JPG,AFNE01.JPG,AFNE01.JPG,,,,,,,,,,,,,,,,,2,2,22,3,,,,,,,AFSA20.jpg,AFSA16.jpg,AFNE19.jpg,AFNE02.jpg,AFSA16.jpg,FS,4,num_6,16,num_6,0.600146385696,,,2017_May_18_1435,60.0039068691,FEMA4ImagesEEG,001,100484,
AFNE01.JPG,AFNE01.JPG,AFNE01.JPG,AFNE01.JPG,AFNE01.JPG,AFNE01.JPG,,,,,,,,,,,,,,,,,2,3,23,5,,,,,,,AFNE17.jpg,AFNE07.jpg,AFSA15.jpg,AFSA13.jpg,AFSA15.jpg,FS,4,num_2,32,num_4,0.783501844737,,,2017_May_18_1435,60.0039068691,FEMA4ImagesEEG,001,100484,
AFNE01.JPG,AFNE01.JPG,AFNE01.JPG,AFNE01.JPG,AFNE01.JPG,AFNE01.JPG,,,,,,,,,,,,,,,,,2,4,24,6,,,,,,,AFSA15.jpg,AFSA17.jpg,AFNE05.jpg,AFNE17.jpg,AFNE05.jpg,FN,3,num_2,32,num_8,0.983347504691,,,2017_May_18_1435,60.0039068691,FEMA4ImagesEEG,001,100484,
AFNE01.JPG,AFNE01.JPG,AFNE01.JPG,AFNE01.JPG,AFNE01.JPG,AFNE01.JPG,,,,,,,,,,,,,,,,,2,5,25,1,,,,,,,AFSA20.jpg,AFNE04.jpg,AFSA19.jpg,AFNE10.jpg,AFSA19.jpg,FS,4,num_2,32,num_6,0.766793540693,,,2017_May_18_1435,60.0039068691,FEMA4ImagesEEG,001,100484,
AFNE01.JPG,AFNE01.JPG,AFNE01.JPG,AFNE01.JPG,AFNE01.JPG,AFNE01.JPG,,,,,,,,,,,,,,,,,2,6,26,2,,,,,,,AFSA10.jpg,AFNE04.jpg,AFNE16.jpg,AFSA05.jpg,AFSA05.jpg,FS,4,num_4,16,num_4,0.466846558993,,,2017_May_18_1435,60.0039068691,FEMA4ImagesEEG,001,100484,
AFNE01.JPG,AFNE01.JPG,AFNE01.JPG,AFNE01.JPG,AFNE01.JPG,AFNE01.JPG,,,,,,,,,,,,,,,,,2,7,27,7,,,,,,,AFSA11.jpg,AFSA02.jpg,AFNE17.jpg,AFNE03.jpg,AFSA02.jpg,FS,4,num_6,32,num_8,0.550164202796,,,2017_May_18_1435,60.0039068691,FEMA4ImagesEEG,001,100484,
AFNE01.JPG,AFNE01.JPG,AFNE01.JPG,AFNE01.JPG,AFNE01.JPG,AFNE01.JPG,,,,,,,,,,,,,,,,,2,8,28,4,,,,,,,AFNE18.jpg,AFSA15.jpg,AFNE08.jpg,AFSA05.jpg,AFNE18.jpg,FN,3,num_8,32,num_2,0.966727083374,,,2017_May_18_1435,60.0039068691,FEMA4ImagesEEG,001,100484,
AFNE01.JPG,AFNE01.JPG,AFNE01.JPG,AFNE01.JPG,AFNE01.JPG,AFNE01.JPG,,,,,,,,,,,,,,,,,2,9,29,9,,,,,,,AFNE04.jpg,AFNE09.jpg,AFSA17.jpg,AFSA06.jpg,AFNE09.jpg,FN,3,num_6,16,num_6,0.666776573533,,,2017_May_18_1435,60.0039068691,FEMA4ImagesEEG,001,100484,
AFNE01.JPG,AFNE01.JPG,AFNE01.JPG,AFNE01.JPG,AFNE01.JPG,AFNE01.JPG,,,,,,,,,,,,,,,,,3,0,30,2,,,,,,,AFNE16.jpg,AFSA16.jpg,AFSA07.jpg,AFNE13.jpg,AFSA07.jpg,FS,4,num_2,16,num_2,0.550165485751,,,2017_May_18_1435,60.0039068691,FEMA4ImagesEEG,001,100484,
AFNE01.JPG,AFNE01.JPG,AFNE01.JPG,AFNE01.JPG,AFNE01.JPG,AFNE01.JPG,,,,,,,,,,,,,,,,,3,1,31,3,,,,,,,AFNE04.jpg,AFSA18.jpg,AFSA09.jpg,AFNE19.jpg,AFNE19.jpg,FN,3,num_4,16,num_4,1.78342005605,,,2017_May_18_1435,60.0039068691,FEMA4ImagesEEG,001,100484,
AFNE01.JPG,AFNE01.JPG,AFNE01.JPG,AFNE01.JPG,AFNE01.JPG,AFNE01.JPG,,,,,,,,,,,,,,,,,3,2,32,1,,,,,,,AFNE08.jpg,AFNE04.jpg,AFSA17.jpg,AFSA12.jpg,AFSA17.jpg,FS,4,num_2,32,num_4,2.10009971804,,,2017_May_18_1435,60.0039068691,FEMA4ImagesEEG,001,100484,
AFNE01.JPG,AFNE01.JPG,AFNE01.JPG,AFNE01.JPG,AFNE01.JPG,AFNE01.JPG,,,,,,,,,,,,,,,,,3,3,33,7,,,,,,,AFSA01.jpg,AFNE11.jpg,AFNE04.jpg,AFSA08.jpg,AFNE11.jpg,FN,3,num_6,16,num_6,0.51682842114,,,2017_May_18_1435,60.0039068691,FEMA4ImagesEEG,001,100484,
AFNE01.JPG,AFNE01.JPG,AFNE01.JPG,AFNE01.JPG,AFNE01.JPG,AFNE01.JPG,,,,,,,,,,,,,,,,,3,4,34,4,,,,,,,AFSA18.jpg,AFNE03.jpg,AFNE04.jpg,AFSA01.jpg,AFSA01.jpg,FS,4,num_4,32,num_8,0.833504234251,,,2017_May_18_1435,60.0039068691,FEMA4ImagesEEG,001,100484,
AFNE01.JPG,AFNE01.JPG,AFNE01.JPG,AFNE01.JPG,AFNE01.JPG,AFNE01.JPG,,,,,,,,,,,,,,,,,3,5,35,0,,,,,,,AFSA17.jpg,AFNE16.jpg,AFSA20.jpg,AFNE04.jpg,AFSA17.jpg,FS,4,num_8,32,num_6,1.00008820347,,,2017_May_18_1435,60.0039068691,FEMA4ImagesEEG,001,100484,
AFNE01.JPG,AFNE01.JPG,AFNE01.JPG,AFNE01.JPG,AFNE01.JPG,AFNE01.JPG,,,,,,,,,,,,,,,,,3,6,36,5,,,,,,,AFSA06.jpg,AFNE04.jpg,AFSA14.jpg,AFNE06.jpg,AFSA06.jpg,FS,4,num_8,16,num_8,1.31679673205,,,2017_May_18_1435,60.0039068691,FEMA4ImagesEEG,001,100484,
AFNE01.JPG,AFNE01.JPG,AFNE01.JPG,AFNE01.JPG,AFNE01.JPG,AFNE01.JPG,,,,,,,,,,,,,,,,,3,7,37,9,,,,,,,AFNE20.jpg,AFSA14.jpg,AFNE19.jpg,AFSA20.jpg,AFSA14.jpg,FS,4,num_6,32,num_2,1.66688787029,,,2017_May_18_1435,60.0039068691,FEMA4ImagesEEG,001,100484,
AFNE01.JPG,AFNE01.JPG,AFNE01.JPG,AFNE01.JPG,AFNE01.JPG,AFNE01.JPG,,,,,,,,,,,,,,,,,3,8,38,8,,,,,,,AFNE16.jpg,AFSA04.jpg,AFSA10.jpg,AFNE19.jpg,AFSA04.jpg,FS,4,num_6,32,num_4,1.78340017018,,,2017_May_18_1435,60.0039068691,FEMA4ImagesEEG,001,100484,
AFNE01.JPG,AFNE01.JPG,AFNE01.JPG,AFNE01.JPG,AFNE01.JPG,AFNE01.JPG,,,,,,,,,,,,,,,,,3,9,39,6,,,,,,,AFSA01.jpg,AFSA07.jpg,AFNE08.jpg,AFNE20.jpg,AFSA07.jpg,FS,4,num_6,16,num_6,0.833471518781,,,2017_May_18_1435,60.0039068691,FEMA4ImagesEEG,001,100484,
AFNE01.JPG,AFNE01.JPG,AFNE01.JPG,AFNE01.JPG,AFNE01.JPG,AFNE01.JPG,,,,,,,,,,,,,,,,,4,0,40,7,,,,,,,AFNE11.jpg,AFSA17.jpg,AFSA09.jpg,AFNE16.jpg,AFSA17.jpg,FS,4,num_6,32,num_2,1.5667515879,,,2017_May_18_1435,60.0039068691,FEMA4ImagesEEG,001,100484,
AFNE01.JPG,AFNE01.JPG,AFNE01.JPG,AFNE01.JPG,AFNE01.JPG,AFNE01.JPG,,,,,,,,,,,,,,,,,4,1,41,6,,,,,,,AFSA13.jpg,AFNE07.jpg,AFSA12.jpg,AFNE10.jpg,AFNE07.jpg,FN,3,num_6,32,num_4,0.466793957647,,,2017_May_18_1435,60.0039068691,FEMA4ImagesEEG,001,100484,
AFNE01.JPG,AFNE01.JPG,AFNE01.JPG,AFNE01.JPG,AFNE01.JPG,AFNE01.JPG,,,,,,,,,,,,,,,,,4,2,42,5,,,,,,,AFNE10.jpg,AFSA13.jpg,AFSA17.jpg,AFNE05.jpg,AFSA17.jpg,FS,4,num_2,32,num_8,0.316896802906,,,2017_May_18_1435,60.0039068691,FEMA4ImagesEEG,001,100484,
AFNE01.JPG,AFNE01.JPG,AFNE01.JPG,AFNE01.JPG,AFNE01.JPG,AFNE01.JPG,,,,,,,,,,,,,,,,,4,3,43,4,,,,,,,AFSA19.jpg,AFNE11.jpg,AFSA03.jpg,AFNE13.jpg,AFNE11.jpg,FN,3,num_6,16,num_6,0.38348497382,,,2017_May_18_1435,60.0039068691,FEMA4ImagesEEG,001,100484,
AFNE01.JPG,AFNE01.JPG,AFNE01.JPG,AFNE01.JPG,AFNE01.JPG,AFNE01.JPG,,,,,,,,,,,,,,,,,4,4,44,2,,,,,,,AFNE06.jpg,AFNE17.jpg,AFSA12.jpg,AFSA11.jpg,AFNE06.jpg,FN,3,num_8,32,num_2,0.366649336022,,,2017_May_18_1435,60.0039068691,FEMA4ImagesEEG,001,100484,
AFNE01.JPG,AFNE01.JPG,AFNE01.JPG,AFNE01.JPG,AFNE01.JPG,AFNE01.JPG,,,,,,,,,,,,,,,,,4,5,45,0,,,,,,,AFNE18.jpg,AFNE14.jpg,AFSA15.jpg,AFSA08.jpg,AFNE14.jpg,FN,3,num_6,32,num_4,0.283523173945,,,2017_May_18_1435,60.0039068691,FEMA4ImagesEEG,001,100484,
AFNE01.JPG,AFNE01.JPG,AFNE01.JPG,AFNE01.JPG,AFNE01.JPG,AFNE01.JPG,,,,,,,,,,,,,,,,,4,6,46,1,,,,,,,AFSA05.jpg,AFNE03.jpg,AFSA11.jpg,AFNE02.jpg,AFNE03.jpg,FN,3,num_6,32,num_8,0.383503576726,,,2017_May_18_1435,60.0039068691,FEMA4ImagesEEG,001,100484,
AFNE01.JPG,AFNE01.JPG,AFNE01.JPG,AFNE01.JPG,AFNE01.JPG,AFNE01.JPG,,,,,,,,,,,,,,,,,4,7,47,3,,,,,,,AFSA08.jpg,AFSA03.jpg,AFNE16.jpg,AFNE13.jpg,AFSA08.jpg,FS,4,num_8,32,num_6,0.400157355005,,,2017_May_18_1435,60.0039068691,FEMA4ImagesEEG,001,100484,
AFNE01.JPG,AFNE01.JPG,AFNE01.JPG,AFNE01.JPG,AFNE01.JPG,AFNE01.JPG,,,,,,,,,,,,,,,,,4,8,48,8,,,,,,,AFSA06.jpg,AFNE18.jpg,AFNE20.jpg,AFSA05.jpg,AFNE20.jpg,FN,3,num_2,16,num_2,0.366809705985,,,2017_May_18_1435,60.0039068691,FEMA4ImagesEEG,001,100484,
AFNE01.JPG,AFNE01.JPG,AFNE01.JPG,AFNE01.JPG,AFNE01.JPG,AFNE01.JPG,,,,,,,,,,,,,,,,,4,9,49,9,,,,,,,AFSA17.jpg,AFNE19.jpg,AFNE11.jpg,AFSA11.jpg,AFSA17.jpg,FS,4,num_8,32,num_4,0.366810988926,,,2017_May_18_1435,60.0039068691,FEMA4ImagesEEG,001,100484,
AFNE01.JPG,AFNE01.JPG,AFNE01.JPG,AFNE01.JPG,AFNE01.JPG,AFNE01.JPG,,,,,,,,,,,,,,,,,5,0,50,3,,,,,,,AFSA02.jpg,AFNE20.jpg,AFSA20.jpg,AFNE03.jpg,AFSA20.jpg,FS,4,num_2,32,num_4,0.700111392973,,,2017_May_18_1435,60.0039068691,FEMA4ImagesEEG,001,100484,
AFNE01.JPG,AFNE01.JPG,AFNE01.JPG,AFNE01.JPG,AFNE01.JPG,AFNE01.JPG,,,,,,,,,,,,,,,,,5,1,51,5,,,,,,,AFNE16.jpg,AFSA09.jpg,AFSA05.jpg,AFNE05.jpg,AFNE16.jpg,FN,3,num_8,32,num_6,0.933454808226,,,2017_May_18_1435,60.0039068691,FEMA4ImagesEEG,001,100484,
AFNE01.JPG,AFNE01.JPG,AFNE01.JPG,AFNE01.JPG,AFNE01.JPG,AFNE01.JPG,,,,,,,,,,,,,,,,,5,2,52,4,,,,,,,AFNE06.jpg,AFSA01.jpg,AFNE17.jpg,AFSA10.jpg,AFNE17.jpg,FN,3,num_2,32,num_8,0.816755196225,,,2017_May_18_1435,60.0039068691,FEMA4ImagesEEG,001,100484,
AFNE01.JPG,AFNE01.JPG,AFNE01.JPG,AFNE01.JPG,AFNE01.JPG,AFNE01.JPG,,,,,,,,,,,,,,,,,5,3,53,7,,,,,,,AFNE20.jpg,AFSA11.jpg,AFSA08.jpg,AFNE11.jpg,AFNE11.jpg,FN,3,num_4,16,num_4,1.05018264534,,,2017_May_18_1435,60.0039068691,FEMA4ImagesEEG,001,100484,
AFNE01.JPG,AFNE01.JPG,AFNE01.JPG,AFNE01.JPG,AFNE01.JPG,AFNE01.JPG,,,,,,,,,,,,,,,,,5,4,54,1,,,,,,,AFSA05.jpg,AFNE19.jpg,AFNE04.jpg,AFSA02.jpg,AFSA05.jpg,FS,4,num_8,16,num_8,1.26671640274,,,2017_May_18_1435,60.0039068691,FEMA4ImagesEEG,001,100484,
AFNE01.JPG,AFNE01.JPG,AFNE01.JPG,AFNE01.JPG,AFNE01.JPG,AFNE01.JPG,,,,,,,,,,,,,,,,,5,5,55,2,,,,,,,AFSA15.jpg,AFSA20.jpg,AFNE12.jpg,AFNE08.jpg,AFNE08.jpg,FN,3,num_4,32,num_2,4.86634607644,,,2017_May_18_1435,60.0039068691,FEMA4ImagesEEG,001,100484,
AFNE01.JPG,AFNE01.JPG,AFNE01.JPG,AFNE01.JPG,AFNE01.JPG,AFNE01.JPG,,,,,,,,,,,,,,,,,5,6,56,8,,,,,,,AFSA02.jpg,AFNE03.jpg,AFNE05.jpg,AFSA11.jpg,AFNE05.jpg,FN,3,num_2,32,num_8,0.51681430859,,,2017_May_18_1435,60.0039068691,FEMA4ImagesEEG,001,100484,
AFNE01.JPG,AFNE01.JPG,AFNE01.JPG,AFNE01.JPG,AFNE01.JPG,AFNE01.JPG,,,,,,,,,,,,,,,,,5,7,57,0,,,,,,,AFSA09.jpg,AFNE04.jpg,AFNE05.jpg,AFSA15.jpg,AFNE04.jpg,FN,3,num_6,32,num_4,0.700156296545,,,2017_May_18_1435,60.0039068691,FEMA4ImagesEEG,001,100484,
AFNE01.JPG,AFNE01.JPG,AFNE01.JPG,AFNE01.JPG,AFNE01.JPG,AFNE01.JPG,,,,,,,,,,,,,,,,,5,8,58,9,,,,,,,AFNE14.jpg,AFSA08.jpg,AFSA10.jpg,AFNE11.jpg,AFNE11.jpg,FN,3,num_4,16,num_4,1.46680069318,,,2017_May_18_1435,60.0039068691,FEMA4ImagesEEG,001,100484,
AFNE01.JPG,AFNE01.JPG,AFNE01.JPG,AFNE01.JPG,AFNE01.JPG,AFNE01.JPG,,,,,,,,,,,,,,,,,5,9,59,6,,,,,,,AFNE13.jpg,AFSA20.jpg,AFNE17.jpg,AFSA01.jpg,AFNE17.jpg,FN,3,num_2,32,num_8,1.1167583074,,,2017_May_18_1435,60.0039068691,FEMA4ImagesEEG,001,100484,
,,,,,,,,,,,,,,,,,,,,,,,,,,,,,,,,,,,,,,,,,,,space,41.380261217,2017_May_18_1435,60.0039068691,FEMA4ImagesEEG,001,100484,
AFNE01.JPG,AFNE01.JPG,AFNE01.JPG,AFNE01.JPG,AFNE01.JPG,AFNE01.JPG,,,,,,,,,,,,,,,,,,,,,0,0,0,0,,,AMSA13.jpg,AMSA07.jpg,AMNE17.jpg,AMNE19.jpg,AMNE19.jpg,MN,1,num_4,32,num_2,0.933440374938,,,2017_May_18_1435,60.0039068691,FEMA4ImagesEEG,001,100484,
AFNE01.JPG,AFNE01.JPG,AFNE01.JPG,AFNE01.JPG,AFNE01.JPG,AFNE01.JPG,,,,,,,,,,,,,,,,,,,,,0,1,1,1,,,AMNE20.jpg,AMNE12.jpg,AMSA17.jpg,AMSA06.jpg,AMNE20.jpg,MN,1,num_8,16,num_8,0.333546090813,,,2017_May_18_1435,60.0039068691,FEMA4ImagesEEG,001,100484,
AFNE01.JPG,AFNE01.JPG,AFNE01.JPG,AFNE01.JPG,AFNE01.JPG,AFNE01.JPG,,,,,,,,,,,,,,,,,,,,,0,2,2,5,,,AMSA17.jpg,AMSA20.jpg,AMNE04.jpg,AMNE02.jpg,AMNE02.jpg,MN,1,num_4,16,num_4,0.533512669703,,,2017_May_18_1435,60.0039068691,FEMA4ImagesEEG,001,100484,
AFNE01.JPG,AFNE01.JPG,AFNE01.JPG,AFNE01.JPG,AFNE01.JPG,AFNE01.JPG,,,,,,,,,,,,,,,,,,,,,0,3,3,3,,,AMNE09.jpg,AMSA12.jpg,AMNE07.jpg,AMSA01.jpg,AMSA12.jpg,MS,2,num_6,16,num_6,0.333548977462,,,2017_May_18_1435,60.0039068691,FEMA4ImagesEEG,001,100484,
AFNE01.JPG,AFNE01.JPG,AFNE01.JPG,AFNE01.JPG,AFNE01.JPG,AFNE01.JPG,,,,,,,,,,,,,,,,,,,,,0,4,4,7,,,AMNE12.jpg,AMSA17.jpg,AMNE03.jpg,AMSA05.jpg,AMSA05.jpg,MS,2,num_4,16,num_4,0.333517224222,,,2017_May_18_1435,60.0039068691,FEMA4ImagesEEG,001,100484,
AFNE01.JPG,AFNE01.JPG,AFNE01.JPG,AFNE01.JPG,AFNE01.JPG,AFNE01.JPG,,,,,,,,,,,,,,,,,,,,,0,5,5,6,,,AMSA16.jpg,AMNE07.jpg,AMNE12.jpg,AMSA08.jpg,AMSA16.jpg,MS,2,num_8,32,num_6,1.41675981488,,,2017_May_18_1435,60.0039068691,FEMA4ImagesEEG,001,100484,
AFNE01.JPG,AFNE01.JPG,AFNE01.JPG,AFNE01.JPG,AFNE01.JPG,AFNE01.JPG,,,,,,,,,,,,,,,,,,,,,0,6,6,4,,,AMNE03.jpg,AMSA16.jpg,AMSA11.jpg,AMNE04.jpg,AMSA16.jpg,MS,2,num_6,16,num_6,0.666771762437,,,2017_May_18_1435,60.0039068691,FEMA4ImagesEEG,001,100484,
AFNE01.JPG,AFNE01.JPG,AFNE01.JPG,AFNE01.JPG,AFNE01.JPG,AFNE01.JPG,,,,,,,,,,,,,,,,,,,,,0,7,7,2,,,AMSA08.jpg,AMNE02.jpg,AMNE05.jpg,AMSA16.jpg,AMNE05.jpg,MN,1,num_2,16,num_2,1.75000344795,,,2017_May_18_1435,60.0039068691,FEMA4ImagesEEG,001,100484,
AFNE01.JPG,AFNE01.JPG,AFNE01.JPG,AFNE01.JPG,AFNE01.JPG,AFNE01.JPG,,,,,,,,,,,,,,,,,,,,,0,8,8,8,,,AMSA19.jpg,AMNE18.jpg,AMSA04.jpg,AMNE09.jpg,AMNE18.jpg,MN,1,num_6,32,num_8,0.716793075611,,,2017_May_18_1435,60.0039068691,FEMA4ImagesEEG,001,100484,
AFNE01.JPG,AFNE01.JPG,AFNE01.JPG,AFNE01.JPG,AFNE01.JPG,AFNE01.JPG,,,,,,,,,,,,,,,,,,,,,0,9,9,9,,,AMNE07.jpg,AMSA16.jpg,AMSA11.jpg,AMNE02.jpg,AMSA16.jpg,MS,2,num_6,16,num_6,0.583497739266,,,2017_May_18_1435,60.0039068691,FEMA4ImagesEEG,001,100484,
AFNE01.JPG,AFNE01.JPG,AFNE01.JPG,AFNE01.JPG,AFNE01.JPG,AFNE01.JPG,,,,,,,,,,,,,,,,,,,,,1,0,10,4,,,AMNE15.jpg,AMSA18.jpg,AMSA12.jpg,AMNE13.jpg,AMNE15.jpg,MN,1,num_8,32,num_4,0.966753063301,,,2017_May_18_1435,60.0039068691,FEMA4ImagesEEG,001,100484,
AFNE01.JPG,AFNE01.JPG,AFNE01.JPG,AFNE01.JPG,AFNE01.JPG,AFNE01.JPG,,,,,,,,,,,,,,,,,,,,,1,1,11,7,,,AMNE01.jpg,AMNE14.jpg,AMSA18.jpg,AMSA20.jpg,AMNE01.jpg,MN,1,num_8,16,num_8,0.866778754571,,,2017_May_18_1435,60.0039068691,FEMA4ImagesEEG,001,100484,
AFNE01.JPG,AFNE01.JPG,AFNE01.JPG,AFNE01.JPG,AFNE01.JPG,AFNE01.JPG,,,,,,,,,,,,,,,,,,,,,1,2,12,2,,,AMSA10.jpg,AMNE03.jpg,AMNE07.jpg,AMSA06.jpg,AMNE03.jpg,MN,1,num_6,32,num_4,0.71668755218,,,2017_May_18_1435,60.0039068691,FEMA4ImagesEEG,001,100484,
AFNE01.JPG,AFNE01.JPG,AFNE01.JPG,AFNE01.JPG,AFNE01.JPG,AFNE01.JPG,,,,,,,,,,,,,,,,,,,,,1,3,13,3,,,AMSA08.jpg,AMNE18.jpg,AMSA20.jpg,AMNE19.jpg,AMNE19.jpg,MN,1,num_4,32,num_6,0.583505757764,,,2017_May_18_1435,60.0039068691,FEMA4ImagesEEG,001,100484,
AFNE01.JPG,AFNE01.JPG,AFNE01.JPG,AFNE01.JPG,AFNE01.JPG,AFNE01.JPG,,,,,,,,,,,,,,,,,,,,,1,4,14,8,,,AMNE09.jpg,AMSA07.jpg,AMNE06.jpg,AMSA09.jpg,AMNE06.jpg,MN,1,num_2,32,num_8,0.700155975806,,,2017_May_18_1435,60.0039068691,FEMA4ImagesEEG,001,100484,
AFNE01.JPG,AFNE01.JPG,AFNE01.JPG,AFNE01.JPG,AFNE01.JPG,AFNE01.JPG,,,,,,,,,,,,,,,,,,,,,1,5,15,6,,,AMSA11.jpg,AMNE07.jpg,AMSA19.jpg,AMNE12.jpg,AMSA11.jpg,MS,2,num_8,16,num_8,1.18335802497,,,2017_May_18_1435,60.0039068691,FEMA4ImagesEEG,001,100484,
AFNE01.JPG,AFNE01.JPG,AFNE01.JPG,AFNE01.JPG,AFNE01.JPG,AFNE01.JPG,,,,,,,,,,,,,,,,,,,,,1,6,16,0,,,AMNE08.jpg,AMSA07.jpg,AMSA03.jpg,AMNE14.jpg,AMSA07.jpg,MS,2,num_6,32,num_2,0.900125120635,,,2017_May_18_1435,60.0039068691,FEMA4ImagesEEG,001,100484,
AFNE01.JPG,AFNE01.JPG,AFNE01.JPG,AFNE01.JPG,AFNE01.JPG,AFNE01.JPG,,,,,,,,,,,,,,,,,,,,,1,7,17,1,,,AMNE06.jpg,AMSA04.jpg,AMNE18.jpg,AMSA08.jpg,AMSA04.jpg,MS,2,num_6,16,num_6,0.583471438586,,,2017_May_18_1435,60.0039068691,FEMA4ImagesEEG,001,100484,
AFNE01.JPG,AFNE01.JPG,AFNE01.JPG,AFNE01.JPG,AFNE01.JPG,AFNE01.JPG,,,,,,,,,,,,,,,,,,,,,1,8,18,9,,,AMSA06.jpg,AMNE14.jpg,AMSA13.jpg,AMNE18.jpg,AMNE14.jpg,MN,1,num_6,32,num_4,1.06679889704,,,2017_May_18_1435,60.0039068691,FEMA4ImagesEEG,001,100484,
AFNE01.JPG,AFNE01.JPG,AFNE01.JPG,AFNE01.JPG,AFNE01.JPG,AFNE01.JPG,,,,,,,,,,,,,,,,,,,,,1,9,19,5,,,AMNE04.jpg,AMSA07.jpg,AMSA01.jpg,AMNE03.jpg,AMNE03.jpg,MN,1,num_4,32,num_2,1.06673539054,,,2017_May_18_1435,60.0039068691,FEMA4ImagesEEG,001,100484,
AFNE01.JPG,AFNE01.JPG,AFNE01.JPG,AFNE01.JPG,AFNE01.JPG,AFNE01.JPG,,,,,,,,,,,,,,,,,,,,,2,0,20,8,,,AMSA03.jpg,AMNE13.jpg,AMNE06.jpg,AMSA15.jpg,AMSA15.jpg,MS,2,num_4,32,num_8,0.416828132482,,,2017_May_18_1435,60.0039068691,FEMA4ImagesEEG,001,100484,
AFNE01.JPG,AFNE01.JPG,AFNE01.JPG,AFNE01.JPG,AFNE01.JPG,AFNE01.JPG,,,,,,,,,,,,,,,,,,,,,2,1,21,2,,,AMSA04.jpg,AMNE11.jpg,AMSA07.jpg,AMNE19.jpg,AMSA04.jpg,MS,2,num_8,16,num_8,0.900137308767,,,2017_May_18_1435,60.0039068691,FEMA4ImagesEEG,001,100484,
AFNE01.JPG,AFNE01.JPG,AFNE01.JPG,AFNE01.JPG,AFNE01.JPG,AFNE01.JPG,,,,,,,,,,,,,,,,,,,,,2,2,22,3,,,AMSA10.jpg,AMNE12.jpg,AMNE06.jpg,AMSA02.jpg,AMNE12.jpg,MN,1,num_6,16,num_6,0.900129610993,,,2017_May_18_1435,60.0039068691,FEMA4ImagesEEG,001,100484,
AFNE01.JPG,AFNE01.JPG,AFNE01.JPG,AFNE01.JPG,AFNE01.JPG,AFNE01.JPG,,,,,,,,,,,,,,,,,,,,,2,3,23,6,,,AMNE10.jpg,AMSA16.jpg,AMNE16.jpg,AMSA05.jpg,AMSA16.jpg,MS,2,num_6,32,num_4,0.966777760288,,,2017_May_18_1435,60.0039068691,FEMA4ImagesEEG,001,100484,
AFNE01.JPG,AFNE01.JPG,AFNE01.JPG,AFNE01.JPG,AFNE01.JPG,AFNE01.JPG,,,,,,,,,,,,,,,,,,,,,2,4,24,7,,,AMNE09.jpg,AMNE06.jpg,AMSA15.jpg,AMSA02.jpg,AMSA02.jpg,MS,2,num_4,32,num_2,0.450182517045,,,2017_May_18_1435,60.0039068691,FEMA4ImagesEEG,001,100484,
AFNE01.JPG,AFNE01.JPG,AFNE01.JPG,AFNE01.JPG,AFNE01.JPG,AFNE01.JPG,,,,,,,,,,,,,,,,,,,,,2,5,25,9,,,AMNE16.jpg,AMNE09.jpg,AMSA20.jpg,AMSA16.jpg,AMSA20.jpg,MS,2,num_2,32,num_4,0.600172044884,,,2017_May_18_1435,60.0039068691,FEMA4ImagesEEG,001,100484,
AFNE01.JPG,AFNE01.JPG,AFNE01.JPG,AFNE01.JPG,AFNE01.JPG,AFNE01.JPG,,,,,,,,,,,,,,,,,,,,,2,6,26,0,,,AMNE07.jpg,AMSA14.jpg,AMNE08.jpg,AMSA16.jpg,AMNE07.jpg,MN,1,num_8,32,num_6,0.733449740539,,,2017_May_18_1435,60.0039068691,FEMA4ImagesEEG,001,100484,
AFNE01.JPG,AFNE01.JPG,AFNE01.JPG,AFNE01.JPG,AFNE01.JPG,AFNE01.JPG,,,,,,,,,,,,,,,,,,,,,2,7,27,1,,,AMSA16.jpg,AMNE02.jpg,AMSA02.jpg,AMNE20.jpg,AMSA02.jpg,MS,2,num_2,32,num_6,0.783473940362,,,2017_May_18_1435,60.0039068691,FEMA4ImagesEEG,001,100484,
AFNE01.JPG,AFNE01.JPG,AFNE01.JPG,AFNE01.JPG,AFNE01.JPG,AFNE01.JPG,,,,,,,,,,,,,,,,,,,,,2,8,28,4,,,AMSA01.jpg,AMNE20.jpg,AMNE17.jpg,AMSA13.jpg,AMSA01.jpg,MS,2,num_8,32,num_4,0.616760712961,,,2017_May_18_1435,60.0039068691,FEMA4ImagesEEG,001,100484,
AFNE01.JPG,AFNE01.JPG,AFNE01.JPG,AFNE01.JPG,AFNE01.JPG,AFNE01.JPG,,,,,,,,,,,,,,,,,,,,,2,9,29,5,,,AMSA05.jpg,AMNE14.jpg,AMNE17.jpg,AMSA02.jpg,AMNE17.jpg,MN,1,num_2,32,num_8,0.600169799713,,,2017_May_18_1435,60.0039068691,FEMA4ImagesEEG,001,100484,
AFNE01.JPG,AFNE01.JPG,AFNE01.JPG,AFNE01.JPG,AFNE01.JPG,AFNE01.JPG,,,,,,,,,,,,,,,,,,,,,3,0,30,5,,,AMSA16.jpg,AMNE13.jpg,AMNE14.jpg,AMSA08.jpg,AMNE13.jpg,MN,1,num_6,32,num_4,0.433470364107,,,2017_May_18_1435,60.0039068691,FEMA4ImagesEEG,001,100484,
AFNE01.JPG,AFNE01.JPG,AFNE01.JPG,AFNE01.JPG,AFNE01.JPG,AFNE01.JPG,,,,,,,,,,,,,,,,,,,,,3,1,31,7,,,AMNE20.jpg,AMSA04.jpg,AMNE03.jpg,AMSA16.jpg,AMSA04.jpg,MS,2,num_6,16,num_6,0.600160498245,,,2017_May_18_1435,60.0039068691,FEMA4ImagesEEG,001,100484,
AFNE01.JPG,AFNE01.JPG,AFNE01.JPG,AFNE01.JPG,AFNE01.JPG,AFNE01.JPG,,,,,,,,,,,,,,,,,,,,,3,2,32,8,,,AMNE04.jpg,AMSA14.jpg,AMSA08.jpg,AMNE10.jpg,AMSA08.jpg,MS,2,num_2,32,num_4,0.983504025775,,,2017_May_18_1435,60.0039068691,FEMA4ImagesEEG,001,100484,
AFNE01.JPG,AFNE01.JPG,AFNE01.JPG,AFNE01.JPG,AFNE01.JPG,AFNE01.JPG,,,,,,,,,,,,,,,,,,,,,3,3,33,4,,,AMNE18.jpg,AMSA08.jpg,AMNE14.jpg,AMSA07.jpg,AMSA08.jpg,MS,2,num_6,16,num_6,0.600179101166,,,2017_May_18_1435,60.0039068691,FEMA4ImagesEEG,001,100484,
AFNE01.JPG,AFNE01.JPG,AFNE01.JPG,AFNE01.JPG,AFNE01.JPG,AFNE01.JPG,,,,,,,,,,,,,,,,,,,,,3,4,34,2,,,AMSA05.jpg,AMSA16.jpg,AMNE12.jpg,AMNE15.jpg,AMNE15.jpg,MN,1,num_4,16,num_4,0.700163032103,,,2017_May_18_1435,60.0039068691,FEMA4ImagesEEG,001,100484,
AFNE01.JPG,AFNE01.JPG,AFNE01.JPG,AFNE01.JPG,AFNE01.JPG,AFNE01.JPG,,,,,,,,,,,,,,,,,,,,,3,5,35,3,,,AMSA02.jpg,AMNE03.jpg,AMSA14.jpg,AMNE08.jpg,AMNE08.jpg,MN,1,num_4,16,num_4,0.583502550362,,,2017_May_18_1435,60.0039068691,FEMA4ImagesEEG,001,100484,
AFNE01.JPG,AFNE01.JPG,AFNE01.JPG,AFNE01.JPG,AFNE01.JPG,AFNE01.JPG,,,,,,,,,,,,,,,,,,,,,3,6,36,6,,,AMSA13.jpg,AMSA04.jpg,AMNE06.jpg,AMNE20.jpg,AMSA04.jpg,MS,2,num_6,16,num_6,0.700147636584,,,2017_May_18_1435,60.0039068691,FEMA4ImagesEEG,001,100484,
AFNE01.JPG,AFNE01.JPG,AFNE01.JPG,AFNE01.JPG,AFNE01.JPG,AFNE01.JPG,,,,,,,,,,,,,,,,,,,,,3,7,37,1,,,AMNE13.jpg,AMNE04.jpg,AMSA04.jpg,AMSA17.jpg,AMSA04.jpg,MS,2,num_2,16,num_2,1.19997748407,,,2017_May_18_1435,60.0039068691,FEMA4ImagesEEG,001,100484,
AFNE01.JPG,AFNE01.JPG,AFNE01.JPG,AFNE01.JPG,AFNE01.JPG,AFNE01.JPG,,,,,,,,,,,,,,,,,,,,,3,8,38,9,,,AMSA20.jpg,AMNE06.jpg,AMSA07.jpg,AMNE14.jpg,AMSA07.jpg,MS,2,num_2,32,num_8,1.31673547073,,,2017_May_18_1435,60.0039068691,FEMA4ImagesEEG,001,100484,
