IPosition2,IPosition3,IPosition1,IPosition6,IPosition4,IPosition5,TrialsF1.thisRepN,TrialsF1.thisTrialN,TrialsF1.thisN,TrialsF1.thisIndex,TrialsM1.thisRepN,TrialsM1.thisTrialN,TrialsM1.thisN,TrialsM1.thisIndex,TrialsF2.thisRepN,TrialsF2.thisTrialN,TrialsF2.thisN,TrialsF2.thisIndex,TrialsM2.thisRepN,TrialsM2.thisTrialN,TrialsM2.thisN,TrialsM2.thisIndex,TrialsF3.thisRepN,TrialsF3.thisTrialN,TrialsF3.thisN,TrialsF3.thisIndex,TrialsM3.thisRepN,TrialsM3.thisTrialN,TrialsM3.thisN,TrialsM3.thisIndex,InstrKey_resp.keys,InstrKey_resp.rt,Image0 _Position,Image1 _Position,Image2 _Position,Image3 _Position,Center_image,condition,code,correct_answer,accuracy,Key_Resp.keys,Key_Resp.rt,BreakKey_resp.keys,BreakKey_resp.rt,date,frameRate,expName,session,participant,
,,,,,,,,,,,,,,,,,,,,,,,,,,,,,,space,18.26578754,,,,,,,,,,,,,,2017_Jun_05_1558,59.9988261095,FEMA4ImagesEEG,001,100446,
AMSA21.JPG,AMNE22.JPG,AMNE21.JPG,AMSA23.JPG,AMSA22.JPG,AMNE23.JPG,0,0,0,1,,,,,,,,,,,,,,,,,,,,,,,AFSA16.jpg,AFNE02.jpg,AFNE12.jpg,AFSA02.jpg,AFNE02.jpg,FN,3,num_6,32,num_8,1.90001606918,,,2017_Jun_05_1558,59.9988261095,FEMA4ImagesEEG,001,100446,
AFSA21.JPG,AFNE23.JPG,AFNE21.JPG,AFSA25.JPG,AFNE25.JPG,AFSA23.JPG,0,1,1,4,,,,,,,,,,,,,,,,,,,,,,,AFNE03.jpg,AFSA13.jpg,AFNE07.jpg,AFSA02.jpg,AFNE07.jpg,FN,3,num_2,16,num_2,1.55023861444,,,2017_Jun_05_1558,59.9988261095,FEMA4ImagesEEG,001,100446,
AFSA25.JPG,AFNE24.JPG,AFSA24.JPG,AFNE21.JPG,AFSA21.JPG,AFNE25.JPG,0,2,2,2,,,,,,,,,,,,,,,,,,,,,,,AFSA12.jpg,AFNE07.jpg,AFNE19.jpg,AFSA13.jpg,AFSA12.jpg,FS,4,num_8,32,num_2,2.06664333818,,,2017_Jun_05_1558,59.9988261095,FEMA4ImagesEEG,001,100446,
AFNE22.JPG,AFSA24.JPG,AFSA22.JPG,AFNE25.JPG,AFNE24.JPG,AFSA25.JPG,0,3,3,6,,,,,,,,,,,,,,,,,,,,,,,AFSA16.jpg,AFSA10.jpg,AFNE01.jpg,AFNE14.jpg,AFSA10.jpg,FS,4,num_6,32,num_2,2.23332224623,,,2017_Jun_05_1558,59.9988261095,FEMA4ImagesEEG,001,100446,
AFNE23.JPG,AFNE24.JPG,AFNE22.JPG,AFSA24.JPG,AFSA22.JPG,AFSA23.JPG,0,4,4,8,,,,,,,,,,,,,,,,,,,,,,,AFNE16.jpg,AFSA16.jpg,AFNE03.jpg,AFSA05.jpg,AFSA05.jpg,FS,4,num_4,16,num_4,3.59989235969,,,2017_Jun_05_1558,59.9988261095,FEMA4ImagesEEG,001,100446,
AMNE22.JPG,AMSA24.JPG,AMSA22.JPG,AMNE25.JPG,AMNE24.JPG,AMSA25.JPG,0,5,5,7,,,,,,,,,,,,,,,,,,,,,,,AFSA18.jpg,AFSA06.jpg,AFNE14.jpg,AFNE02.jpg,AFSA06.jpg,FS,4,num_6,16,num_6,1.46676444961,,,2017_Jun_05_1558,59.9988261095,FEMA4ImagesEEG,001,100446,
AMSA25.JPG,AMNE24.JPG,AMSA24.JPG,AMNE26.JPG,AMSA21.JPG,AMNE25.JPG,0,6,6,3,,,,,,,,,,,,,,,,,,,,,,,AFSA01.jpg,AFSA16.jpg,AFNE02.jpg,AFNE19.jpg,AFSA01.jpg,FS,4,num_8,16,num_8,3.86689839046,,,2017_Jun_05_1558,59.9988261095,FEMA4ImagesEEG,001,100446,
AMNE23.JPG,AMNE24.JPG,AMNE22.JPG,AMSA24.JPG,AMSA22.JPG,AMSA23.JPG,0,7,7,9,,,,,,,,,,,,,,,,,,,,,,,AFSA13.jpg,AFNE13.jpg,AFNE02.jpg,AFSA01.jpg,AFSA13.jpg,FS,4,num_8,32,num_2,1.98338022013,,,2017_Jun_05_1558,59.9988261095,FEMA4ImagesEEG,001,100446,
AMSA21.JPG,AMNE23.JPG,AMNE21.JPG,AMSA25.JPG,AMNE25.JPG,AMSA23.JPG,0,8,8,5,,,,,,,,,,,,,,,,,,,,,,,AFSA10.jpg,AFNE18.jpg,AFNE19.jpg,AFSA11.jpg,AFNE18.jpg,FN,3,num_6,16,num_6,1.45007314486,,,2017_Jun_05_1558,59.9988261095,FEMA4ImagesEEG,001,100446,
AFSA21.JPG,AFNE22.JPG,AFNE21.JPG,AFSA23.JPG,AFSA22.JPG,AFNE23.JPG,0,9,9,0,,,,,,,,,,,,,,,,,,,,,,,AFSA18.jpg,AFNE20.jpg,AFSA15.jpg,AFNE17.jpg,AFNE20.jpg,FN,3,num_6,16,num_6,2.91662173625,,,2017_Jun_05_1558,59.9988261095,FEMA4ImagesEEG,001,100446,
AFNE22.JPG,AFSA24.JPG,AFSA22.JPG,AFNE25.JPG,AFNE24.JPG,AFSA25.JPG,,,,,0,0,0,6,,,,,,,,,,,,,,,,,,,AMNE17.jpg,AMNE07.jpg,AMSA20.jpg,AMSA07.jpg,AMSA07.jpg,MS,2,num_4,16,num_4,1.26692552515,,,2017_Jun_05_1558,59.9988261095,FEMA4ImagesEEG,001,100446,
AMSA21.JPG,AMNE22.JPG,AMNE21.JPG,AMSA23.JPG,AMSA22.JPG,AMNE23.JPG,,,,,0,1,1,1,,,,,,,,,,,,,,,,,,,AMNE08.jpg,AMSA08.jpg,AMSA03.jpg,AMNE02.jpg,AMNE02.jpg,MN,1,num_4,16,num_4,2.0833535667,,,2017_Jun_05_1558,59.9988261095,FEMA4ImagesEEG,001,100446,
AFSA21.JPG,AFNE22.JPG,AFNE21.JPG,AFSA23.JPG,AFSA22.JPG,AFNE23.JPG,,,,,0,2,2,0,,,,,,,,,,,,,,,,,,,AMSA09.jpg,AMNE17.jpg,AMSA01.jpg,AMNE16.jpg,AMSA09.jpg,MS,2,num_8,32,num_6,1.30003229855,,,2017_Jun_05_1558,59.9988261095,FEMA4ImagesEEG,001,100446,
AFSA25.JPG,AFNE24.JPG,AFSA24.JPG,AFNE21.JPG,AFSA21.JPG,AFNE25.JPG,,,,,0,3,3,2,,,,,,,,,,,,,,,,,,,AMNE13.jpg,AMNE09.jpg,AMSA14.jpg,AMSA02.jpg,AMSA14.jpg,MS,2,num_2,16,num_2,0.916780181928,,,2017_Jun_05_1558,59.9988261095,FEMA4ImagesEEG,001,100446,
AMSA25.JPG,AMNE24.JPG,AMSA24.JPG,AMNE26.JPG,AMSA21.JPG,AMNE25.JPG,,,,,0,4,4,3,,,,,,,,,,,,,,,,,,,AMSA10.jpg,AMNE18.jpg,AMNE16.jpg,AMSA04.jpg,AMSA04.jpg,MS,2,num_4,16,num_4,0.66677593207,,,2017_Jun_05_1558,59.9988261095,FEMA4ImagesEEG,001,100446,
AFSA21.JPG,AFNE23.JPG,AFNE21.JPG,AFSA25.JPG,AFNE25.JPG,AFSA23.JPG,,,,,0,5,5,4,,,,,,,,,,,,,,,,,,,AMNE03.jpg,AMSA12.jpg,AMSA06.jpg,AMNE17.jpg,AMNE03.jpg,MN,1,num_8,32,num_2,2.81663459796,,,2017_Jun_05_1558,59.9988261095,FEMA4ImagesEEG,001,100446,
AMNE23.JPG,AMNE24.JPG,AMNE22.JPG,AMSA24.JPG,AMSA22.JPG,AMSA23.JPG,,,,,0,6,6,9,,,,,,,,,,,,,,,,,,,AMSA08.jpg,AMSA12.jpg,AMNE02.jpg,AMNE11.jpg,AMNE02.jpg,MN,1,num_2,16,num_2,1.96693171537,,,2017_Jun_05_1558,59.9988261095,FEMA4ImagesEEG,001,100446,
AMNE22.JPG,AMSA24.JPG,AMSA22.JPG,AMNE25.JPG,AMNE24.JPG,AMSA25.JPG,,,,,0,7,7,7,,,,,,,,,,,,,,,,,,,AMSA03.jpg,AMNE08.jpg,AMNE09.jpg,AMSA14.jpg,AMSA03.jpg,MS,2,num_8,16,num_8,3.4499464524,,,2017_Jun_05_1558,59.9988261095,FEMA4ImagesEEG,001,100446,
AFNE23.JPG,AFNE24.JPG,AFNE22.JPG,AFSA24.JPG,AFSA22.JPG,AFSA23.JPG,,,,,0,8,8,8,,,,,,,,,,,,,,,,,,,AMNE07.jpg,AMNE12.jpg,AMSA06.jpg,AMSA14.jpg,AMSA06.jpg,MS,2,num_2,32,num_6,1.43346394948,,,2017_Jun_05_1558,59.9988261095,FEMA4ImagesEEG,001,100446,
AMSA21.JPG,AMNE23.JPG,AMNE21.JPG,AMSA25.JPG,AMNE25.JPG,AMSA23.JPG,,,,,0,9,9,5,,,,,,,,,,,,,,,,,,,AMNE06.jpg,AMSA03.jpg,AMSA16.jpg,AMNE19.jpg,AMSA03.jpg,MS,2,num_6,16,num_6,0.666811534204,,,2017_Jun_05_1558,59.9988261095,FEMA4ImagesEEG,001,100446,
AMNE23.JPG,AMNE24.JPG,AMNE22.JPG,AMSA24.JPG,AMSA22.JPG,AMSA23.JPG,,,,,,,,,0,0,0,9,,,,,,,,,,,,,,,AFNE03.jpg,AFSA08.jpg,AFNE14.jpg,AFSA14.jpg,AFNE03.jpg,FN,3,num_8,16,num_8,1.80008185282,,,2017_Jun_05_1558,59.9988261095,FEMA4ImagesEEG,001,100446,
AFSA21.JPG,AFNE23.JPG,AFNE21.JPG,AFSA25.JPG,AFNE25.JPG,AFSA23.JPG,,,,,,,,,0,1,1,4,,,,,,,,,,,,,,,AFSA05.jpg,AFNE16.jpg,AFNE11.jpg,AFSA18.jpg,AFNE16.jpg,FN,3,num_6,16,num_6,0.96676268545,,,2017_Jun_05_1558,59.9988261095,FEMA4ImagesEEG,001,100446,
AMSA25.JPG,AMNE24.JPG,AMSA24.JPG,AMNE26.JPG,AMSA21.JPG,AMNE25.JPG,,,,,,,,,0,2,2,3,,,,,,,,,,,,,,,AFNE12.jpg,AFSA05.jpg,AFNE16.jpg,AFSA14.jpg,AFSA14.jpg,FS,4,num_4,16,num_4,2.01666789083,,,2017_Jun_05_1558,59.9988261095,FEMA4ImagesEEG,001,100446,
AFSA21.JPG,AFNE22.JPG,AFNE21.JPG,AFSA23.JPG,AFSA22.JPG,AFNE23.JPG,,,,,,,,,0,3,3,0,,,,,,,,,,,,,,,AFSA05.jpg,AFNE02.jpg,AFSA10.jpg,AFNE03.jpg,AFNE02.jpg,FN,3,num_6,32,num_4,0.999828404048,,,2017_Jun_05_1558,59.9988261095,FEMA4ImagesEEG,001,100446,
AMNE22.JPG,AMSA24.JPG,AMSA22.JPG,AMNE25.JPG,AMNE24.JPG,AMSA25.JPG,,,,,,,,,0,4,4,7,,,,,,,,,,,,,,,AFNE14.jpg,AFNE15.jpg,AFSA16.jpg,AFSA17.jpg,AFNE15.jpg,FN,3,num_6,16,num_6,0.616807540879,,,2017_Jun_05_1558,59.9988261095,FEMA4ImagesEEG,001,100446,
AMSA21.JPG,AMNE22.JPG,AMNE21.JPG,AMSA23.JPG,AMSA22.JPG,AMNE23.JPG,,,,,,,,,0,5,5,1,,,,,,,,,,,,,,,AFSA15.jpg,AFNE17.jpg,AFSA11.jpg,AFNE16.jpg,AFNE17.jpg,FN,3,num_6,32,num_2,1.81667757733,,,2017_Jun_05_1558,59.9988261095,FEMA4ImagesEEG,001,100446,
AMSA21.JPG,AMNE23.JPG,AMNE21.JPG,AMSA25.JPG,AMNE25.JPG,AMSA23.JPG,,,,,,,,,0,6,6,5,,,,,,,,,,,,,,,AFSA12.jpg,AFNE13.jpg,AFSA08.jpg,AFNE02.jpg,AFSA12.jpg,FS,4,num_8,16,num_8,1.14968482475,,,2017_Jun_05_1558,59.9988261095,FEMA4ImagesEEG,001,100446,
AFNE22.JPG,AFSA24.JPG,AFSA22.JPG,AFNE25.JPG,AFNE24.JPG,AFSA25.JPG,,,,,,,,,0,7,7,6,,,,,,,,,,,,,,,AFNE12.jpg,AFSA02.jpg,AFNE10.jpg,AFSA20.jpg,AFNE10.jpg,FN,3,num_2,16,num_2,1.20008846,,,2017_Jun_05_1558,59.9988261095,FEMA4ImagesEEG,001,100446,
AFSA25.JPG,AFNE24.JPG,AFSA24.JPG,AFNE21.JPG,AFSA21.JPG,AFNE25.JPG,,,,,,,,,0,8,8,2,,,,,,,,,,,,,,,AFSA04.jpg,AFNE16.jpg,AFSA11.jpg,AFNE18.jpg,AFNE18.jpg,FN,3,num_4,32,num_8,2.55012667621,,,2017_Jun_05_1558,59.9988261095,FEMA4ImagesEEG,001,100446,
AFNE23.JPG,AFNE24.JPG,AFNE22.JPG,AFSA24.JPG,AFSA22.JPG,AFSA23.JPG,,,,,,,,,0,9,9,8,,,,,,,,,,,,,,,AFNE01.jpg,AFSA20.jpg,AFSA08.jpg,AFNE07.jpg,AFNE01.jpg,FN,3,num_8,32,num_6,1.26658169203,,,2017_Jun_05_1558,59.9988261095,FEMA4ImagesEEG,001,100446,
AMSA21.JPG,AMNE23.JPG,AMNE21.JPG,AMSA25.JPG,AMNE25.JPG,AMSA23.JPG,,,,,,,,,,,,,0,0,0,5,,,,,,,,,,,AMSA06.jpg,AMNE01.jpg,AMNE14.jpg,AMSA20.jpg,AMSA20.jpg,MS,2,num_4,16,num_4,0.90007444378,,,2017_Jun_05_1558,59.9988261095,FEMA4ImagesEEG,001,100446,
AMSA21.JPG,AMNE22.JPG,AMNE21.JPG,AMSA23.JPG,AMSA22.JPG,AMNE23.JPG,,,,,,,,,,,,,0,1,1,1,,,,,,,,,,,AMNE15.jpg,AMNE09.jpg,AMSA11.jpg,AMSA13.jpg,AMSA13.jpg,MS,2,num_4,32,num_6,1.86671877629,,,2017_Jun_05_1558,59.9988261095,FEMA4ImagesEEG,001,100446,
AFNE22.JPG,AFSA24.JPG,AFSA22.JPG,AFNE25.JPG,AFNE24.JPG,AFSA25.JPG,,,,,,,,,,,,,0,2,2,6,,,,,,,,,,,AMSA20.jpg,AMNE13.jpg,AMNE03.jpg,AMSA17.jpg,AMSA20.jpg,MS,2,num_8,32,num_4,1.96665267181,,,2017_Jun_05_1558,59.9988261095,FEMA4ImagesEEG,001,100446,
AFNE23.JPG,AFNE24.JPG,AFNE22.JPG,AFSA24.JPG,AFSA22.JPG,AFSA23.JPG,,,,,,,,,,,,,0,3,3,8,,,,,,,,,,,AMNE10.jpg,AMNE19.jpg,AMSA17.jpg,AMSA08.jpg,AMNE19.jpg,MN,1,num_6,32,num_4,1.14980317792,,,2017_Jun_05_1558,59.9988261095,FEMA4ImagesEEG,001,100446,
AFSA21.JPG,AFNE22.JPG,AFNE21.JPG,AFSA23.JPG,AFSA22.JPG,AFNE23.JPG,,,,,,,,,,,,,0,4,4,0,,,,,,,,,,,AMNE20.jpg,AMNE14.jpg,AMSA01.jpg,AMSA17.jpg,AMNE14.jpg,MN,1,num_6,16,num_6,0.633547919104,,,2017_Jun_05_1558,59.9988261095,FEMA4ImagesEEG,001,100446,
AMSA25.JPG,AMNE24.JPG,AMSA24.JPG,AMNE26.JPG,AMSA21.JPG,AMNE25.JPG,,,,,,,,,,,,,0,5,5,3,,,,,,,,,,,AMNE15.jpg,AMNE20.jpg,AMSA19.jpg,AMSA09.jpg,AMSA19.jpg,MS,2,num_2,16,num_2,2.85006980901,,,2017_Jun_05_1558,59.9988261095,FEMA4ImagesEEG,001,100446,
AFSA21.JPG,AFNE23.JPG,AFNE21.JPG,AFSA25.JPG,AFNE25.JPG,AFSA23.JPG,,,,,,,,,,,,,0,6,6,4,,,,,,,,,,,AMNE13.jpg,AMSA19.jpg,AMSA16.jpg,AMNE04.jpg,AMSA19.jpg,MS,2,num_6,16,num_6,0.650125361281,,,2017_Jun_05_1558,59.9988261095,FEMA4ImagesEEG,001,100446,
AMNE22.JPG,AMSA24.JPG,AMSA22.JPG,AMNE25.JPG,AMNE24.JPG,AMSA25.JPG,,,,,,,,,,,,,0,7,7,7,,,,,,,,,,,AMSA14.jpg,AMSA20.jpg,AMNE04.jpg,AMNE02.jpg,AMSA20.jpg,MS,2,num_6,16,num_6,0.466832446633,,,2017_Jun_05_1558,59.9988261095,FEMA4ImagesEEG,001,100446,
AMNE23.JPG,AMNE24.JPG,AMNE22.JPG,AMSA24.JPG,AMSA22.JPG,AMSA23.JPG,,,,,,,,,,,,,0,8,8,9,,,,,,,,,,,AMSA16.jpg,AMNE04.jpg,AMSA08.jpg,AMNE08.jpg,AMSA16.jpg,MS,2,num_8,16,num_8,0.516822968377,,,2017_Jun_05_1558,59.9988261095,FEMA4ImagesEEG,001,100446,
AFSA25.JPG,AFNE24.JPG,AFSA24.JPG,AFNE21.JPG,AFSA21.JPG,AFNE25.JPG,,,,,,,,,,,,,0,9,9,2,,,,,,,,,,,AMSA19.jpg,AMSA10.jpg,AMNE17.jpg,AMNE03.jpg,AMNE03.jpg,MN,1,num_4,32,num_2,2.26666540513,,,2017_Jun_05_1558,59.9988261095,FEMA4ImagesEEG,001,100446,
AMSA21.JPG,AMNE23.JPG,AMNE21.JPG,AMSA25.JPG,AMNE25.JPG,AMSA23.JPG,,,,,,,,,,,,,,,,,0,0,0,5,,,,,,,AFSA15.jpg,AFSA16.jpg,AFNE02.jpg,AFNE19.jpg,AFNE02.jpg,FN,3,num_2,16,num_2,0.633450093213,,,2017_Jun_05_1558,59.9988261095,FEMA4ImagesEEG,001,100446,
AFSA21.JPG,AFNE22.JPG,AFNE21.JPG,AFSA23.JPG,AFSA22.JPG,AFNE23.JPG,,,,,,,,,,,,,,,,,0,1,1,0,,,,,,,AFSA13.jpg,AFSA08.jpg,AFNE03.jpg,AFNE04.jpg,AFNE04.jpg,FN,3,num_4,16,num_4,0.866802489385,,,2017_Jun_05_1558,59.9988261095,FEMA4ImagesEEG,001,100446,
AFSA25.JPG,AFNE24.JPG,AFSA24.JPG,AFNE21.JPG,AFSA21.JPG,AFNE25.JPG,,,,,,,,,,,,,,,,,0,2,2,2,,,,,,,AFNE05.jpg,AFNE15.jpg,AFSA18.jpg,AFSA08.jpg,AFSA08.jpg,FS,4,num_4,16,num_4,1.01660791249,,,2017_Jun_05_1558,59.9988261095,FEMA4ImagesEEG,001,100446,
AMSA21.JPG,AMNE22.JPG,AMNE21.JPG,AMSA23.JPG,AMSA22.JPG,AMNE23.JPG,,,,,,,,,,,,,,,,,0,3,3,1,,,,,,,AFNE10.jpg,AFSA11.jpg,AFNE05.jpg,AFSA02.jpg,AFSA02.jpg,FS,4,num_4,16,num_4,0.733476682799,,,2017_Jun_05_1558,59.9988261095,FEMA4ImagesEEG,001,100446,
AMSA25.JPG,AMNE24.JPG,AMSA24.JPG,AMNE26.JPG,AMSA21.JPG,AMNE25.JPG,,,,,,,,,,,,,,,,,0,4,4,3,,,,,,,AFNE06.jpg,AFSA13.jpg,AFSA07.jpg,AFNE16.jpg,AFNE16.jpg,FN,3,num_4,32,num_8,2.05006204708,,,2017_Jun_05_1558,59.9988261095,FEMA4ImagesEEG,001,100446,
AFSA21.JPG,AFNE23.JPG,AFNE21.JPG,AFSA25.JPG,AFNE25.JPG,AFSA23.JPG,,,,,,,,,,,,,,,,,0,5,5,4,,,,,,,AFNE09.jpg,AFSA16.jpg,AFSA08.jpg,AFNE02.jpg,AFNE02.jpg,FN,3,num_4,16,num_4,1.81666121958,,,2017_Jun_05_1558,59.9988261095,FEMA4ImagesEEG,001,100446,
AFNE23.JPG,AFNE24.JPG,AFNE22.JPG,AFSA24.JPG,AFSA22.JPG,AFSA23.JPG,,,,,,,,,,,,,,,,,0,6,6,8,,,,,,,AFSA18.jpg,AFSA13.jpg,AFNE15.jpg,AFNE12.jpg,AFSA18.jpg,FS,4,num_8,16,num_8,1.05016083503,,,2017_Jun_05_1558,59.9988261095,FEMA4ImagesEEG,001,100446,
AMNE22.JPG,AMSA24.JPG,AMSA22.JPG,AMNE25.JPG,AMNE24.JPG,AMSA25.JPG,,,,,,,,,,,,,,,,,0,7,7,7,,,,,,,AFSA20.jpg,AFNE08.jpg,AFNE13.jpg,AFSA10.jpg,AFNE08.jpg,FN,3,num_6,16,num_6,1.3000970881,,,2017_Jun_05_1558,59.9988261095,FEMA4ImagesEEG,001,100446,
AMNE23.JPG,AMNE24.JPG,AMNE22.JPG,AMSA24.JPG,AMSA22.JPG,AMSA23.JPG,,,,,,,,,,,,,,,,,0,8,8,9,,,,,,,AFNE16.jpg,AFNE07.jpg,AFSA09.jpg,AFSA08.jpg,AFSA09.jpg,FS,4,num_2,16,num_2,2.65011092788,,,2017_Jun_05_1558,59.9988261095,FEMA4ImagesEEG,001,100446,
AFNE22.JPG,AFSA24.JPG,AFSA22.JPG,AFNE25.JPG,AFNE24.JPG,AFSA25.JPG,,,,,,,,,,,,,,,,,0,9,9,6,,,,,,,AFNE04.jpg,AFSA17.jpg,AFSA08.jpg,AFNE08.jpg,AFNE04.jpg,FN,3,num_8,16,num_8,1.43379655643,,,2017_Jun_05_1558,59.9988261095,FEMA4ImagesEEG,001,100446,
AFSA21.JPG,AFNE23.JPG,AFNE21.JPG,AFSA25.JPG,AFNE25.JPG,AFSA23.JPG,,,,,,,,,,,,,,,,,,,,,0,0,0,4,,,AMNE08.jpg,AMSA04.jpg,AMNE07.jpg,AMSA14.jpg,AMSA14.jpg,MS,2,num_4,16,num_4,0.666781705571,,,2017_Jun_05_1558,59.9988261095,FEMA4ImagesEEG,001,100446,
AFSA25.JPG,AFNE24.JPG,AFSA24.JPG,AFNE21.JPG,AFSA21.JPG,AFNE25.JPG,,,,,,,,,,,,,,,,,,,,,0,1,1,2,,,AMNE17.jpg,AMNE11.jpg,AMSA12.jpg,AMSA13.jpg,AMNE17.jpg,MN,1,num_8,16,num_8,1.15009729657,,,2017_Jun_05_1558,59.9988261095,FEMA4ImagesEEG,001,100446,
AMSA21.JPG,AMNE23.JPG,AMNE21.JPG,AMSA25.JPG,AMNE25.JPG,AMSA23.JPG,,,,,,,,,,,,,,,,,,,,,0,2,2,5,,,AMSA03.jpg,AMSA15.jpg,AMNE04.jpg,AMNE02.jpg,AMNE04.jpg,MN,1,num_2,16,num_2,1.28338076524,,,2017_Jun_05_1558,59.9988261095,FEMA4ImagesEEG,001,100446,
AMNE22.JPG,AMSA24.JPG,AMSA22.JPG,AMNE25.JPG,AMNE24.JPG,AMSA25.JPG,,,,,,,,,,,,,,,,,,,,,0,3,3,7,,,AMSA08.jpg,AMNE04.jpg,AMNE14.jpg,AMSA02.jpg,AMNE14.jpg,MN,1,num_2,32,num_4,1.28346159193,,,2017_Jun_05_1558,59.9988261095,FEMA4ImagesEEG,001,100446,
AFSA21.JPG,AFNE22.JPG,AFNE21.JPG,AFSA23.JPG,AFSA22.JPG,AFNE23.JPG,,,,,,,,,,,,,,,,,,,,,0,4,4,0,,,AMNE09.jpg,AMSA12.jpg,AMSA03.jpg,AMNE18.jpg,AMNE18.jpg,MN,1,num_4,16,num_4,1.31658857176,,,2017_Jun_05_1558,59.9988261095,FEMA4ImagesEEG,001,100446,
AFNE23.JPG,AFNE24.JPG,AFNE22.JPG,AFSA24.JPG,AFSA22.JPG,AFSA23.JPG,,,,,,,,,,,,,,,,,,,,,0,5,5,8,,,AMNE08.jpg,AMSA05.jpg,AMSA13.jpg,AMNE10.jpg,AMNE10.jpg,MN,1,num_4,32,num_8,1.53350689635,,,2017_Jun_05_1558,59.9988261095,FEMA4ImagesEEG,001,100446,
AMNE23.JPG,AMNE24.JPG,AMNE22.JPG,AMSA24.JPG,AMSA22.JPG,AMSA23.JPG,,,,,,,,,,,,,,,,,,,,,0,6,6,9,,,AMSA13.jpg,AMSA08.jpg,AMNE02.jpg,AMNE09.jpg,AMNE09.jpg,MN,1,num_4,16,num_4,0.616644605063,,,2017_Jun_05_1558,59.9988261095,FEMA4ImagesEEG,001,100446,
AFNE22.JPG,AFSA24.JPG,AFSA22.JPG,AFNE25.JPG,AFNE24.JPG,AFSA25.JPG,,,,,,,,,,,,,,,,,,,,,0,7,7,6,,,AMSA20.jpg,AMNE13.jpg,AMNE14.jpg,AMSA11.jpg,AMNE13.jpg,MN,1,num_6,32,num_2,1.61662183236,,,2017_Jun_05_1558,59.9988261095,FEMA4ImagesEEG,001,100446,
AMSA25.JPG,AMNE24.JPG,AMSA24.JPG,AMNE26.JPG,AMSA21.JPG,AMNE25.JPG,,,,,,,,,,,,,,,,,,,,,0,8,8,3,,,AMNE16.jpg,AMSA17.jpg,AMNE02.jpg,AMSA15.jpg,AMNE16.jpg,MN,1,num_8,16,num_8,0.683544214349,,,2017_Jun_05_1558,59.9988261095,FEMA4ImagesEEG,001,100446,
AMSA21.JPG,AMNE22.JPG,AMNE21.JPG,AMSA23.JPG,AMSA22.JPG,AMNE23.JPG,,,,,,,,,,,,,,,,,,,,,0,9,9,1,,,AMNE18.jpg,AMSA07.jpg,AMSA18.jpg,AMNE13.jpg,AMNE13.jpg,MN,1,num_4,16,num_4,0.633457470452,,,2017_Jun_05_1558,59.9988261095,FEMA4ImagesEEG,001,100446,
,,,,,,,,,,,,,,,,,,,,,,,,,,,,,,,,,,,,,,,,,,,space,8.01616368769,2017_Jun_05_1558,59.9988261095,FEMA4ImagesEEG,001,100446,
AFNE01.JPG,AFNE01.JPG,AFNE01.JPG,AFNE01.JPG,AFNE01.JPG,AFNE01.JPG,0,0,0,0,,,,,,,,,,,,,,,,,,,,,,,AFNE20.jpg,AFNE10.jpg,AFSA12.jpg,AFSA07.jpg,AFNE10.jpg,FN,3,num_6,32,num_4,2.90001799352,,,2017_Jun_05_1558,59.9988261095,FEMA4ImagesEEG,001,100446,
AFNE01.JPG,AFNE01.JPG,AFNE01.JPG,AFNE01.JPG,AFNE01.JPG,AFNE01.JPG,0,1,1,5,,,,,,,,,,,,,,,,,,,,,,,AFSA20.jpg,AFNE02.jpg,AFNE15.jpg,AFSA02.jpg,AFNE02.jpg,FN,3,num_6,16,num_6,0.533463275759,,,2017_Jun_05_1558,59.9988261095,FEMA4ImagesEEG,001,100446,
AFNE01.JPG,AFNE01.JPG,AFNE01.JPG,AFNE01.JPG,AFNE01.JPG,AFNE01.JPG,0,2,2,1,,,,,,,,,,,,,,,,,,,,,,,AFNE10.jpg,AFNE01.jpg,AFSA02.jpg,AFSA04.jpg,AFNE10.jpg,FN,3,num_8,16,num_8,1.13341850042,,,2017_Jun_05_1558,59.9988261095,FEMA4ImagesEEG,001,100446,
AFNE01.JPG,AFNE01.JPG,AFNE01.JPG,AFNE01.JPG,AFNE01.JPG,AFNE01.JPG,0,3,3,4,,,,,,,,,,,,,,,,,,,,,,,AFSA01.jpg,AFNE09.jpg,AFSA08.jpg,AFNE12.jpg,AFNE12.jpg,FN,3,num_4,16,num_4,0.666771441698,,,2017_Jun_05_1558,59.9988261095,FEMA4ImagesEEG,001,100446,
AFNE01.JPG,AFNE01.JPG,AFNE01.JPG,AFNE01.JPG,AFNE01.JPG,AFNE01.JPG,0,4,4,6,,,,,,,,,,,,,,,,,,,,,,,AFSA13.jpg,AFNE17.jpg,AFNE05.jpg,AFSA14.jpg,AFNE05.jpg,FN,3,num_2,16,num_2,2.41670400626,,,2017_Jun_05_1558,59.9988261095,FEMA4ImagesEEG,001,100446,
AFNE01.JPG,AFNE01.JPG,AFNE01.JPG,AFNE01.JPG,AFNE01.JPG,AFNE01.JPG,0,5,5,2,,,,,,,,,,,,,,,,,,,,,,,AFSA01.jpg,AFNE07.jpg,AFNE09.jpg,AFSA07.jpg,AFNE09.jpg,FN,3,num_2,32,num_6,0.833486272721,,,2017_Jun_05_1558,59.9988261095,FEMA4ImagesEEG,001,100446,
AFNE01.JPG,AFNE01.JPG,AFNE01.JPG,AFNE01.JPG,AFNE01.JPG,AFNE01.JPG,0,6,6,8,,,,,,,,,,,,,,,,,,,,,,,AFSA05.jpg,AFSA12.jpg,AFNE06.jpg,AFNE09.jpg,AFSA05.jpg,FS,4,num_8,16,num_8,1.95005341922,,,2017_Jun_05_1558,59.9988261095,FEMA4ImagesEEG,001,100446,
AFNE01.JPG,AFNE01.JPG,AFNE01.JPG,AFNE01.JPG,AFNE01.JPG,AFNE01.JPG,0,7,7,9,,,,,,,,,,,,,,,,,,,,,,,AFNE12.jpg,AFSA02.jpg,AFSA04.jpg,AFNE04.jpg,AFSA04.jpg,FS,4,num_2,32,num_6,1.40008262265,,,2017_Jun_05_1558,59.9988261095,FEMA4ImagesEEG,001,100446,
AFNE01.JPG,AFNE01.JPG,AFNE01.JPG,AFNE01.JPG,AFNE01.JPG,AFNE01.JPG,0,8,8,3,,,,,,,,,,,,,,,,,,,,,,,AFNE10.jpg,AFSA17.jpg,AFSA06.jpg,AFNE02.jpg,AFNE10.jpg,FN,3,num_8,16,num_8,1.78339086892,,,2017_Jun_05_1558,59.9988261095,FEMA4ImagesEEG,001,100446,
AFNE01.JPG,AFNE01.JPG,AFNE01.JPG,AFNE01.JPG,AFNE01.JPG,AFNE01.JPG,0,9,9,7,,,,,,,,,,,,,,,,,,,,,,,AFSA10.jpg,AFNE17.jpg,AFSA02.jpg,AFNE14.jpg,AFSA02.jpg,FS,4,num_2,32,num_6,1.55013309093,,,2017_Jun_05_1558,59.9988261095,FEMA4ImagesEEG,001,100446,
AFNE01.JPG,AFNE01.JPG,AFNE01.JPG,AFNE01.JPG,AFNE01.JPG,AFNE01.JPG,1,0,10,0,,,,,,,,,,,,,,,,,,,,,,,AFSA01.jpg,AFNE11.jpg,AFNE09.jpg,AFSA11.jpg,AFNE11.jpg,FN,3,num_6,32,num_4,0.933308230247,,,2017_Jun_05_1558,59.9988261095,FEMA4ImagesEEG,001,100446,
AFNE01.JPG,AFNE01.JPG,AFNE01.JPG,AFNE01.JPG,AFNE01.JPG,AFNE01.JPG,1,1,11,5,,,,,,,,,,,,,,,,,,,,,,,AFSA16.jpg,AFNE10.jpg,AFNE15.jpg,AFSA05.jpg,AFNE10.jpg,FN,3,num_6,16,num_6,0.616778033087,,,2017_Jun_05_1558,59.9988261095,FEMA4ImagesEEG,001,100446,
AFNE01.JPG,AFNE01.JPG,AFNE01.JPG,AFNE01.JPG,AFNE01.JPG,AFNE01.JPG,1,2,12,7,,,,,,,,,,,,,,,,,,,,,,,AFSA02.jpg,AFNE12.jpg,AFSA03.jpg,AFNE19.jpg,AFNE12.jpg,FN,3,num_6,16,num_6,0.533599911025,,,2017_Jun_05_1558,59.9988261095,FEMA4ImagesEEG,001,100446,
AFNE01.JPG,AFNE01.JPG,AFNE01.JPG,AFNE01.JPG,AFNE01.JPG,AFNE01.JPG,1,3,13,2,,,,,,,,,,,,,,,,,,,,,,,AFSA05.jpg,AFNE17.jpg,AFNE16.jpg,AFSA01.jpg,AFSA05.jpg,FS,4,num_8,16,num_8,1.23312434996,,,2017_Jun_05_1558,59.9988261095,FEMA4ImagesEEG,001,100446,
AFNE01.JPG,AFNE01.JPG,AFNE01.JPG,AFNE01.JPG,AFNE01.JPG,AFNE01.JPG,1,4,14,3,,,,,,,,,,,,,,,,,,,,,,,AFSA10.jpg,AFNE20.jpg,AFNE13.jpg,AFSA01.jpg,AFNE13.jpg,FN,3,num_2,16,num_2,1.16675011255,,,2017_Jun_05_1558,59.9988261095,FEMA4ImagesEEG,001,100446,
AFNE01.JPG,AFNE01.JPG,AFNE01.JPG,AFNE01.JPG,AFNE01.JPG,AFNE01.JPG,1,5,15,6,,,,,,,,,,,,,,,,,,,,,,,AFNE15.jpg,AFSA16.jpg,AFSA09.jpg,AFNE08.jpg,AFNE08.jpg,FN,3,num_4,32,num_8,1.13346115896,,,2017_Jun_05_1558,59.9988261095,FEMA4ImagesEEG,001,100446,
AFNE01.JPG,AFNE01.JPG,AFNE01.JPG,AFNE01.JPG,AFNE01.JPG,AFNE01.JPG,1,6,16,4,,,,,,,,,,,,,,,,,,,,,,,AFNE18.jpg,AFNE06.jpg,AFSA14.jpg,AFSA08.jpg,AFSA08.jpg,FS,4,num_4,32,num_2,2.39998191036,,,2017_Jun_05_1558,59.9988261095,FEMA4ImagesEEG,001,100446,
AFNE01.JPG,AFNE01.JPG,AFNE01.JPG,AFNE01.JPG,AFNE01.JPG,AFNE01.JPG,1,7,17,9,,,,,,,,,,,,,,,,,,,,,,,AFSA10.jpg,AFNE04.jpg,AFNE19.jpg,AFSA16.jpg,AFNE19.jpg,FN,3,num_2,32,num_4,1.71672283346,,,2017_Jun_05_1558,59.9988261095,FEMA4ImagesEEG,001,100446,
AFNE01.JPG,AFNE01.JPG,AFNE01.JPG,AFNE01.JPG,AFNE01.JPG,AFNE01.JPG,1,8,18,8,,,,,,,,,,,,,,,,,,,,,,,AFSA07.jpg,AFNE09.jpg,AFSA09.jpg,AFNE17.jpg,AFSA07.jpg,FS,4,num_8,32,num_6,1.21668225992,,,2017_Jun_05_1558,59.9988261095,FEMA4ImagesEEG,001,100446,
AFNE01.JPG,AFNE01.JPG,AFNE01.JPG,AFNE01.JPG,AFNE01.JPG,AFNE01.JPG,1,9,19,1,,,,,,,,,,,,,,,,,,,,,,,AFSA12.jpg,AFNE12.jpg,AFSA17.jpg,AFNE19.jpg,AFSA17.jpg,FS,4,num_2,16,num_2,0.966786420206,,,2017_Jun_05_1558,59.9988261095,FEMA4ImagesEEG,001,100446,
AFNE01.JPG,AFNE01.JPG,AFNE01.JPG,AFNE01.JPG,AFNE01.JPG,AFNE01.JPG,2,0,20,0,,,,,,,,,,,,,,,,,,,,,,,AFSA18.jpg,AFNE19.jpg,AFNE10.jpg,AFSA12.jpg,AFSA12.jpg,FS,4,num_4,32,num_2,1.05010919576,,,2017_Jun_05_1558,59.9988261095,FEMA4ImagesEEG,001,100446,
AFNE01.JPG,AFNE01.JPG,AFNE01.JPG,AFNE01.JPG,AFNE01.JPG,AFNE01.JPG,2,1,21,8,,,,,,,,,,,,,,,,,,,,,,,AFNE04.jpg,AFSA11.jpg,AFNE18.jpg,AFSA16.jpg,AFSA16.jpg,FS,4,num_4,32,num_6,1.85006307345,,,2017_Jun_05_1558,59.9988261095,FEMA4ImagesEEG,001,100446,
AFNE01.JPG,AFNE01.JPG,AFNE01.JPG,AFNE01.JPG,AFNE01.JPG,AFNE01.JPG,2,2,22,5,,,,,,,,,,,,,,,,,,,,,,,AFNE11.jpg,AFSA20.jpg,AFSA06.jpg,AFNE04.jpg,AFSA06.jpg,FS,4,num_2,16,num_2,1.45008533285,,,2017_Jun_05_1558,59.9988261095,FEMA4ImagesEEG,001,100446,
AFNE01.JPG,AFNE01.JPG,AFNE01.JPG,AFNE01.JPG,AFNE01.JPG,AFNE01.JPG,2,3,23,7,,,,,,,,,,,,,,,,,,,,,,,AFSA02.jpg,AFSA05.jpg,AFNE15.jpg,AFNE10.jpg,AFNE15.jpg,FN,3,num_2,16,num_2,1.74977636407,,,2017_Jun_05_1558,59.9988261095,FEMA4ImagesEEG,001,100446,
AFNE01.JPG,AFNE01.JPG,AFNE01.JPG,AFNE01.JPG,AFNE01.JPG,AFNE01.JPG,2,4,24,6,,,,,,,,,,,,,,,,,,,,,,,AFNE03.jpg,AFSA18.jpg,AFSA08.jpg,AFNE18.jpg,AFNE03.jpg,FN,3,num_8,16,num_8,2.58327001403,,,2017_Jun_05_1558,59.9988261095,FEMA4ImagesEEG,001,100446,
AFNE01.JPG,AFNE01.JPG,AFNE01.JPG,AFNE01.JPG,AFNE01.JPG,AFNE01.JPG,2,5,25,9,,,,,,,,,,,,,,,,,,,,,,,AFSA04.jpg,AFSA15.jpg,AFNE07.jpg,AFNE18.jpg,AFSA04.jpg,FS,4,num_8,32,num_2,1.88327633264,,,2017_Jun_05_1558,59.9988261095,FEMA4ImagesEEG,001,100446,
AFNE01.JPG,AFNE01.JPG,AFNE01.JPG,AFNE01.JPG,AFNE01.JPG,AFNE01.JPG,2,6,26,4,,,,,,,,,,,,,,,,,,,,,,,AFNE05.jpg,AFSA04.jpg,AFSA05.jpg,AFNE02.jpg,AFNE02.jpg,FN,3,num_4,16,num_4,1.28347121412,,,2017_Jun_05_1558,59.9988261095,FEMA4ImagesEEG,001,100446,
AFNE01.JPG,AFNE01.JPG,AFNE01.JPG,AFNE01.JPG,AFNE01.JPG,AFNE01.JPG,2,7,27,2,,,,,,,,,,,,,,,,,,,,,,,AFNE07.jpg,AFNE15.jpg,AFSA14.jpg,AFSA13.jpg,AFNE15.jpg,FN,3,num_6,16,num_6,0.900112932548,,,2017_Jun_05_1558,59.9988261095,FEMA4ImagesEEG,001,100446,
AFNE01.JPG,AFNE01.JPG,AFNE01.JPG,AFNE01.JPG,AFNE01.JPG,AFNE01.JPG,2,8,28,1,,,,,,,,,,,,,,,,,,,,,,,AFNE18.jpg,AFSA20.jpg,AFNE07.jpg,AFSA08.jpg,AFSA08.jpg,FS,4,num_4,32,num_6,2.38342403318,,,2017_Jun_05_1558,59.9988261095,FEMA4ImagesEEG,001,100446,
AFNE01.JPG,AFNE01.JPG,AFNE01.JPG,AFNE01.JPG,AFNE01.JPG,AFNE01.JPG,2,9,29,3,,,,,,,,,,,,,,,,,,,,,,,AFNE07.jpg,AFSA09.jpg,AFNE18.jpg,AFSA04.jpg,AFNE07.jpg,FN,3,num_8,16,num_8,1.51672321837,,,2017_Jun_05_1558,59.9988261095,FEMA4ImagesEEG,001,100446,
AFNE01.JPG,AFNE01.JPG,AFNE01.JPG,AFNE01.JPG,AFNE01.JPG,AFNE01.JPG,3,0,30,0,,,,,,,,,,,,,,,,,,,,,,,AFNE09.jpg,AFSA08.jpg,AFNE18.jpg,AFSA14.jpg,AFNE18.jpg,FN,3,num_2,16,num_2,1.05008000857,,,2017_Jun_05_1558,59.9988261095,FEMA4ImagesEEG,001,100446,
AFNE01.JPG,AFNE01.JPG,AFNE01.JPG,AFNE01.JPG,AFNE01.JPG,AFNE01.JPG,3,1,31,4,,,,,,,,,,,,,,,,,,,,,,,AFNE19.jpg,AFNE09.jpg,AFSA09.jpg,AFSA06.jpg,AFSA09.jpg,FS,4,num_2,16,num_2,1.8334240492,,,2017_Jun_05_1558,59.9988261095,FEMA4ImagesEEG,001,100446,
AFNE01.JPG,AFNE01.JPG,AFNE01.JPG,AFNE01.JPG,AFNE01.JPG,AFNE01.JPG,3,2,32,2,,,,,,,,,,,,,,,,,,,,,,,AFSA19.jpg,AFSA14.jpg,AFNE06.jpg,AFNE20.jpg,AFSA19.jpg,FS,4,num_8,16,num_8,1.00013631443,,,2017_Jun_05_1558,59.9988261095,FEMA4ImagesEEG,001,100446,
AFNE01.JPG,AFNE01.JPG,AFNE01.JPG,AFNE01.JPG,AFNE01.JPG,AFNE01.JPG,3,3,33,5,,,,,,,,,,,,,,,,,,,,,,,AFNE09.jpg,AFSA12.jpg,AFNE13.jpg,AFSA06.jpg,AFNE13.jpg,FN,3,num_2,16,num_2,1.26644633966,,,2017_Jun_05_1558,59.9988261095,FEMA4ImagesEEG,001,100446,
AFNE01.JPG,AFNE01.JPG,AFNE01.JPG,AFNE01.JPG,AFNE01.JPG,AFNE01.JPG,3,4,34,1,,,,,,,,,,,,,,,,,,,,,,,AFNE14.jpg,AFNE16.jpg,AFSA06.jpg,AFSA08.jpg,AFSA06.jpg,FS,4,num_2,16,num_2,0.883463003207,,,2017_Jun_05_1558,59.9988261095,FEMA4ImagesEEG,001,100446,
AFNE01.JPG,AFNE01.JPG,AFNE01.JPG,AFNE01.JPG,AFNE01.JPG,AFNE01.JPG,3,5,35,8,,,,,,,,,,,,,,,,,,,,,,,AFNE02.jpg,AFSA03.jpg,AFSA12.jpg,AFNE11.jpg,AFSA12.jpg,FS,4,num_2,32,num_8,1.43342161155,,,2017_Jun_05_1558,59.9988261095,FEMA4ImagesEEG,001,100446,
AFNE01.JPG,AFNE01.JPG,AFNE01.JPG,AFNE01.JPG,AFNE01.JPG,AFNE01.JPG,3,6,36,6,,,,,,,,,,,,,,,,,,,,,,,AFNE06.jpg,AFNE01.jpg,AFSA06.jpg,AFSA15.jpg,AFNE01.jpg,FN,3,num_6,16,num_6,1.06671710848,,,2017_Jun_05_1558,59.9988261095,FEMA4ImagesEEG,001,100446,
AFNE01.JPG,AFNE01.JPG,AFNE01.JPG,AFNE01.JPG,AFNE01.JPG,AFNE01.JPG,3,7,37,9,,,,,,,,,,,,,,,,,,,,,,,AFSA02.jpg,AFSA19.jpg,AFNE09.jpg,AFNE17.jpg,AFNE09.jpg,FN,3,num_2,16,num_2,0.899975976674,,,2017_Jun_05_1558,59.9988261095,FEMA4ImagesEEG,001,100446,
AFNE01.JPG,AFNE01.JPG,AFNE01.JPG,AFNE01.JPG,AFNE01.JPG,AFNE01.JPG,3,8,38,3,,,,,,,,,,,,,,,,,,,,,,,AFNE19.jpg,AFSA07.jpg,AFSA01.jpg,AFNE04.jpg,AFSA07.jpg,FS,4,num_6,16,num_6,0.683391542407,,,2017_Jun_05_1558,59.9988261095,FEMA4ImagesEEG,001,100446,
AFNE01.JPG,AFNE01.JPG,AFNE01.JPG,AFNE01.JPG,AFNE01.JPG,AFNE01.JPG,3,9,39,7,,,,,,,,,,,,,,,,,,,,,,,AFNE17.jpg,AFSA19.jpg,AFNE14.jpg,AFSA02.jpg,AFNE17.jpg,FN,3,num_8,16,num_8,0.800191545859,,,2017_Jun_05_1558,59.9988261095,FEMA4ImagesEEG,001,100446,
AFNE01.JPG,AFNE01.JPG,AFNE01.JPG,AFNE01.JPG,AFNE01.JPG,AFNE01.JPG,4,0,40,5,,,,,,,,,,,,,,,,,,,,,,,AFSA05.jpg,AFNE10.jpg,AFNE09.jpg,AFSA13.jpg,AFSA13.jpg,FS,4,num_4,16,num_4,1.53343120171,,,2017_Jun_05_1558,59.9988261095,FEMA4ImagesEEG,001,100446,
AFNE01.JPG,AFNE01.JPG,AFNE01.JPG,AFNE01.JPG,AFNE01.JPG,AFNE01.JPG,4,1,41,2,,,,,,,,,,,,,,,,,,,,,,,AFNE18.jpg,AFSA17.jpg,AFNE05.jpg,AFSA03.jpg,AFSA03.jpg,FS,4,num_4,16,num_4,1.18338657077,,,2017_Jun_05_1558,59.9988261095,FEMA4ImagesEEG,001,100446,
AFNE01.JPG,AFNE01.JPG,AFNE01.JPG,AFNE01.JPG,AFNE01.JPG,AFNE01.JPG,4,2,42,0,,,,,,,,,,,,,,,,,,,,,,,AFSA06.jpg,AFSA08.jpg,AFNE12.jpg,AFNE10.jpg,AFNE10.jpg,FN,3,num_4,16,num_4,0.633479922311,,,2017_Jun_05_1558,59.9988261095,FEMA4ImagesEEG,001,100446,
AFNE01.JPG,AFNE01.JPG,AFNE01.JPG,AFNE01.JPG,AFNE01.JPG,AFNE01.JPG,4,3,43,1,,,,,,,,,,,,,,,,,,,,,,,AFNE06.jpg,AFSA17.jpg,AFSA20.jpg,AFNE14.jpg,AFSA17.jpg,FS,4,num_6,16,num_6,1.01657102723,,,2017_Jun_05_1558,59.9988261095,FEMA4ImagesEEG,001,100446,
AFNE01.JPG,AFNE01.JPG,AFNE01.JPG,AFNE01.JPG,AFNE01.JPG,AFNE01.JPG,4,4,44,7,,,,,,,,,,,,,,,,,,,,,,,AFNE07.jpg,AFNE02.jpg,AFSA18.jpg,AFSA12.jpg,AFSA12.jpg,FS,4,num_4,16,num_4,0.633458753349,,,2017_Jun_05_1558,59.9988261095,FEMA4ImagesEEG,001,100446,
AFNE01.JPG,AFNE01.JPG,AFNE01.JPG,AFNE01.JPG,AFNE01.JPG,AFNE01.JPG,4,5,45,6,,,,,,,,,,,,,,,,,,,,,,,AFSA19.jpg,AFSA14.jpg,AFNE13.jpg,AFNE08.jpg,AFSA14.jpg,FS,4,num_6,16,num_6,0.483504506759,,,2017_Jun_05_1558,59.9988261095,FEMA4ImagesEEG,001,100446,
AFNE01.JPG,AFNE01.JPG,AFNE01.JPG,AFNE01.JPG,AFNE01.JPG,AFNE01.JPG,4,6,46,8,,,,,,,,,,,,,,,,,,,,,,,AFSA05.jpg,AFNE05.jpg,AFSA03.jpg,AFNE11.jpg,AFNE05.jpg,FN,3,num_6,32,num_8,1.11674194969,,,2017_Jun_05_1558,59.9988261095,FEMA4ImagesEEG,001,100446,
AFNE01.JPG,AFNE01.JPG,AFNE01.JPG,AFNE01.JPG,AFNE01.JPG,AFNE01.JPG,4,7,47,3,,,,,,,,,,,,,,,,,,,,,,,AFNE05.jpg,AFSA08.jpg,AFNE11.jpg,AFSA14.jpg,AFSA14.jpg,FS,4,num_4,16,num_4,0.900374976918,,,2017_Jun_05_1558,59.9988261095,FEMA4ImagesEEG,001,100446,
AFNE01.JPG,AFNE01.JPG,AFNE01.JPG,AFNE01.JPG,AFNE01.JPG,AFNE01.JPG,4,8,48,4,,,,,,,,,,,,,,,,,,,,,,,AFSA08.jpg,AFNE08.jpg,AFSA01.jpg,AFNE19.jpg,AFNE19.jpg,FN,3,num_4,16,num_4,1.01679233788,,,2017_Jun_05_1558,59.9988261095,FEMA4ImagesEEG,001,100446,
AFNE01.JPG,AFNE01.JPG,AFNE01.JPG,AFNE01.JPG,AFNE01.JPG,AFNE01.JPG,4,9,49,9,,,,,,,,,,,,,,,,,,,,,,,AFNE08.jpg,AFSA11.jpg,AFNE14.jpg,AFSA09.jpg,AFSA09.jpg,FS,4,num_4,16,num_4,1.00014208793,,,2017_Jun_05_1558,59.9988261095,FEMA4ImagesEEG,001,100446,
AFNE01.JPG,AFNE01.JPG,AFNE01.JPG,AFNE01.JPG,AFNE01.JPG,AFNE01.JPG,5,0,50,3,,,,,,,,,,,,,,,,,,,,,,,AFNE15.jpg,AFNE19.jpg,AFSA04.jpg,AFSA18.jpg,AFSA04.jpg,FS,4,num_2,16,num_2,3.44992047246,,,2017_Jun_05_1558,59.9988261095,FEMA4ImagesEEG,001,100446,
AFNE01.JPG,AFNE01.JPG,AFNE01.JPG,AFNE01.JPG,AFNE01.JPG,AFNE01.JPG,5,1,51,4,,,,,,,,,,,,,,,,,,,,,,,AFNE12.jpg,AFSA04.jpg,AFSA09.jpg,AFNE09.jpg,AFSA04.jpg,FS,4,num_6,16,num_6,0.666794855846,,,2017_Jun_05_1558,59.9988261095,FEMA4ImagesEEG,001,100446,
AFNE01.JPG,AFNE01.JPG,AFNE01.JPG,AFNE01.JPG,AFNE01.JPG,AFNE01.JPG,5,2,52,1,,,,,,,,,,,,,,,,,,,,,,,AFSA19.jpg,AFSA20.jpg,AFNE11.jpg,AFNE20.jpg,AFNE11.jpg,FN,3,num_2,16,num_2,2.20001084101,,,2017_Jun_05_1558,59.9988261095,FEMA4ImagesEEG,001,100446,
AFNE01.JPG,AFNE01.JPG,AFNE01.JPG,AFNE01.JPG,AFNE01.JPG,AFNE01.JPG,5,3,53,9,,,,,,,,,,,,,,,,,,,,,,,AFNE09.jpg,AFSA08.jpg,AFNE18.jpg,AFSA09.jpg,AFNE18.jpg,FN,3,num_2,32,num_8,1.016813186,,,2017_Jun_05_1558,59.9988261095,FEMA4ImagesEEG,001,100446,
AFNE01.JPG,AFNE01.JPG,AFNE01.JPG,AFNE01.JPG,AFNE01.JPG,AFNE01.JPG,5,4,54,8,,,,,,,,,,,,,,,,,,,,,,,AFNE06.jpg,AFSA07.jpg,AFNE10.jpg,AFSA14.jpg,AFSA14.jpg,FS,4,num_4,32,num_8,2.4330832311,,,2017_Jun_05_1558,59.9988261095,FEMA4ImagesEEG,001,100446,
AFNE01.JPG,AFNE01.JPG,AFNE01.JPG,AFNE01.JPG,AFNE01.JPG,AFNE01.JPG,5,5,55,0,,,,,,,,,,,,,,,,,,,,,,,AFSA01.jpg,AFSA07.jpg,AFNE04.jpg,AFNE14.jpg,AFSA01.jpg,FS,4,num_8,16,num_8,1.05006332998,,,2017_Jun_05_1558,59.9988261095,FEMA4ImagesEEG,001,100446,
AFNE01.JPG,AFNE01.JPG,AFNE01.JPG,AFNE01.JPG,AFNE01.JPG,AFNE01.JPG,5,6,56,6,,,,,,,,,,,,,,,,,,,,,,,AFNE10.jpg,AFSA08.jpg,AFNE03.jpg,AFSA02.jpg,AFNE03.jpg,FN,3,num_2,32,num_4,1.11676279758,,,2017_Jun_05_1558,59.9988261095,FEMA4ImagesEEG,001,100446,
AFNE01.JPG,AFNE01.JPG,AFNE01.JPG,AFNE01.JPG,AFNE01.JPG,AFNE01.JPG,5,7,57,5,,,,,,,,,,,,,,,,,,,,,,,AFNE04.jpg,AFSA09.jpg,AFNE05.jpg,AFSA01.jpg,AFNE04.jpg,FN,3,num_8,16,num_8,0.883453060174,,,2017_Jun_05_1558,59.9988261095,FEMA4ImagesEEG,001,100446,
AFNE01.JPG,AFNE01.JPG,AFNE01.JPG,AFNE01.JPG,AFNE01.JPG,AFNE01.JPG,5,8,58,2,,,,,,,,,,,,,,,,,,,,,,,AFNE12.jpg,AFNE10.jpg,AFSA06.jpg,AFSA14.jpg,AFNE10.jpg,FN,3,num_6,32,num_8,0.750119234901,,,2017_Jun_05_1558,59.9988261095,FEMA4ImagesEEG,001,100446,
AFNE01.JPG,AFNE01.JPG,AFNE01.JPG,AFNE01.JPG,AFNE01.JPG,AFNE01.JPG,5,9,59,7,,,,,,,,,,,,,,,,,,,,,,,AFNE09.jpg,AFSA06.jpg,AFSA13.jpg,AFNE01.jpg,AFSA06.jpg,FS,4,num_6,16,num_6,0.600167875411,,,2017_Jun_05_1558,59.9988261095,FEMA4ImagesEEG,001,100446,
,,,,,,,,,,,,,,,,,,,,,,,,,,,,,,,,,,,,,,,,,,,space,10.4160509796,2017_Jun_05_1558,59.9988261095,FEMA4ImagesEEG,001,100446,
AFNE01.JPG,AFNE01.JPG,AFNE01.JPG,AFNE01.JPG,AFNE01.JPG,AFNE01.JPG,,,,,0,0,0,6,,,,,,,,,,,,,,,,,,,AMSA05.jpg,AMSA13.jpg,AMNE12.jpg,AMNE03.jpg,AMNE03.jpg,MN,1,num_4,32,num_2,1.03345060651,,,2017_Jun_05_1558,59.9988261095,FEMA4ImagesEEG,001,100446,
AFNE01.JPG,AFNE01.JPG,AFNE01.JPG,AFNE01.JPG,AFNE01.JPG,AFNE01.JPG,,,,,0,1,1,5,,,,,,,,,,,,,,,,,,,AMNE09.jpg,AMNE12.jpg,AMSA01.jpg,AMSA19.jpg,AMNE09.jpg,MN,1,num_8,16,num_8,0.816776365042,,,2017_Jun_05_1558,59.9988261095,FEMA4ImagesEEG,001,100446,
AFNE01.JPG,AFNE01.JPG,AFNE01.JPG,AFNE01.JPG,AFNE01.JPG,AFNE01.JPG,,,,,0,2,2,8,,,,,,,,,,,,,,,,,,,AMSA03.jpg,AMNE12.jpg,AMSA20.jpg,AMNE07.jpg,AMSA20.jpg,MS,2,num_2,16,num_2,2.0500184265,,,2017_Jun_05_1558,59.9988261095,FEMA4ImagesEEG,001,100446,
AFNE01.JPG,AFNE01.JPG,AFNE01.JPG,AFNE01.JPG,AFNE01.JPG,AFNE01.JPG,,,,,0,3,3,7,,,,,,,,,,,,,,,,,,,AMSA14.jpg,AMSA09.jpg,AMNE08.jpg,AMNE17.jpg,AMNE17.jpg,MN,1,num_4,16,num_4,0.883492831839,,,2017_Jun_05_1558,59.9988261095,FEMA4ImagesEEG,001,100446,
AFNE01.JPG,AFNE01.JPG,AFNE01.JPG,AFNE01.JPG,AFNE01.JPG,AFNE01.JPG,,,,,0,4,4,0,,,,,,,,,,,,,,,,,,,AMNE09.jpg,AMSA06.jpg,AMNE04.jpg,AMSA20.jpg,AMNE09.jpg,MN,1,num_8,16,num_8,0.650100022554,,,2017_Jun_05_1558,59.9988261095,FEMA4ImagesEEG,001,100446,
AFNE01.JPG,AFNE01.JPG,AFNE01.JPG,AFNE01.JPG,AFNE01.JPG,AFNE01.JPG,,,,,0,5,5,1,,,,,,,,,,,,,,,,,,,AMNE09.jpg,AMSA14.jpg,AMNE17.jpg,AMSA11.jpg,AMNE17.jpg,MN,1,num_2,32,num_6,0.600178780267,,,2017_Jun_05_1558,59.9988261095,FEMA4ImagesEEG,001,100446,
AFNE01.JPG,AFNE01.JPG,AFNE01.JPG,AFNE01.JPG,AFNE01.JPG,AFNE01.JPG,,,,,0,6,6,9,,,,,,,,,,,,,,,,,,,AMSA10.jpg,AMNE18.jpg,AMSA08.jpg,AMNE15.jpg,AMSA10.jpg,MS,2,num_8,32,num_4,0.883467493579,,,2017_Jun_05_1558,59.9988261095,FEMA4ImagesEEG,001,100446,
AFNE01.JPG,AFNE01.JPG,AFNE01.JPG,AFNE01.JPG,AFNE01.JPG,AFNE01.JPG,,,,,0,7,7,3,,,,,,,,,,,,,,,,,,,AMSA19.jpg,AMNE04.jpg,AMSA10.jpg,AMNE01.jpg,AMNE04.jpg,MN,1,num_6,32,num_4,2.00012059812,,,2017_Jun_05_1558,59.9988261095,FEMA4ImagesEEG,001,100446,
AFNE01.JPG,AFNE01.JPG,AFNE01.JPG,AFNE01.JPG,AFNE01.JPG,AFNE01.JPG,,,,,0,8,8,4,,,,,,,,,,,,,,,,,,,AMSA14.jpg,AMNE07.jpg,AMSA08.jpg,AMNE20.jpg,AMNE07.jpg,MN,1,num_6,32,num_4,0.983455273323,,,2017_Jun_05_1558,59.9988261095,FEMA4ImagesEEG,001,100446,
AFNE01.JPG,AFNE01.JPG,AFNE01.JPG,AFNE01.JPG,AFNE01.JPG,AFNE01.JPG,,,,,0,9,9,2,,,,,,,,,,,,,,,,,,,AMSA04.jpg,AMNE11.jpg,AMSA13.jpg,AMNE10.jpg,AMNE10.jpg,MN,1,num_4,16,num_4,0.66684040078,,,2017_Jun_05_1558,59.9988261095,FEMA4ImagesEEG,001,100446,
AFNE01.JPG,AFNE01.JPG,AFNE01.JPG,AFNE01.JPG,AFNE01.JPG,AFNE01.JPG,,,,,1,0,10,7,,,,,,,,,,,,,,,,,,,AMNE05.jpg,AMSA16.jpg,AMSA18.jpg,AMNE02.jpg,AMSA18.jpg,MS,2,num_2,16,num_2,1.05012106337,,,2017_Jun_05_1558,59.9988261095,FEMA4ImagesEEG,001,100446,
AFNE01.JPG,AFNE01.JPG,AFNE01.JPG,AFNE01.JPG,AFNE01.JPG,AFNE01.JPG,,,,,1,1,11,2,,,,,,,,,,,,,,,,,,,AMSA07.jpg,AMSA05.jpg,AMNE20.jpg,AMNE16.jpg,AMSA07.jpg,MS,2,num_8,32,num_6,1.53345942684,,,2017_Jun_05_1558,59.9988261095,FEMA4ImagesEEG,001,100446,
AFNE01.JPG,AFNE01.JPG,AFNE01.JPG,AFNE01.JPG,AFNE01.JPG,AFNE01.JPG,,,,,1,2,12,4,,,,,,,,,,,,,,,,,,,AMNE07.jpg,AMNE04.jpg,AMSA06.jpg,AMSA15.jpg,AMNE04.jpg,MN,1,num_6,16,num_6,0.883432212053,,,2017_Jun_05_1558,59.9988261095,FEMA4ImagesEEG,001,100446,
AFNE01.JPG,AFNE01.JPG,AFNE01.JPG,AFNE01.JPG,AFNE01.JPG,AFNE01.JPG,,,,,1,3,13,1,,,,,,,,,,,,,,,,,,,AMNE13.jpg,AMSA16.jpg,AMNE06.jpg,AMSA09.jpg,AMSA09.jpg,MS,2,num_4,16,num_4,0.516767801251,,,2017_Jun_05_1558,59.9988261095,FEMA4ImagesEEG,001,100446,
AFNE01.JPG,AFNE01.JPG,AFNE01.JPG,AFNE01.JPG,AFNE01.JPG,AFNE01.JPG,,,,,1,4,14,3,,,,,,,,,,,,,,,,,,,AMNE18.jpg,AMNE03.jpg,AMSA04.jpg,AMSA02.jpg,AMSA02.jpg,MS,2,num_4,32,num_2,0.733455192996,,,2017_Jun_05_1558,59.9988261095,FEMA4ImagesEEG,001,100446,
AFNE01.JPG,AFNE01.JPG,AFNE01.JPG,AFNE01.JPG,AFNE01.JPG,AFNE01.JPG,,,,,1,5,15,0,,,,,,,,,,,,,,,,,,,AMNE02.jpg,AMSA08.jpg,AMSA06.jpg,AMNE06.jpg,AMSA06.jpg,MS,2,num_2,32,num_4,0.733510039747,,,2017_Jun_05_1558,59.9988261095,FEMA4ImagesEEG,001,100446,
AFNE01.JPG,AFNE01.JPG,AFNE01.JPG,AFNE01.JPG,AFNE01.JPG,AFNE01.JPG,,,,,1,6,16,6,,,,,,,,,,,,,,,,,,,AMSA07.jpg,AMSA09.jpg,AMNE05.jpg,AMNE02.jpg,AMSA07.jpg,MS,2,num_8,32,num_6,2.15000331961,,,2017_Jun_05_1558,59.9988261095,FEMA4ImagesEEG,001,100446,
AFNE01.JPG,AFNE01.JPG,AFNE01.JPG,AFNE01.JPG,AFNE01.JPG,AFNE01.JPG,,,,,1,7,17,8,,,,,,,,,,,,,,,,,,,AMNE15.jpg,AMSA01.jpg,AMSA14.jpg,AMNE17.jpg,AMNE17.jpg,MN,1,num_4,32,num_8,1.00014850241,,,2017_Jun_05_1558,59.9988261095,FEMA4ImagesEEG,001,100446,
AFNE01.JPG,AFNE01.JPG,AFNE01.JPG,AFNE01.JPG,AFNE01.JPG,AFNE01.JPG,,,,,1,8,18,5,,,,,,,,,,,,,,,,,,,AMSA09.jpg,AMNE14.jpg,AMNE04.jpg,AMSA13.jpg,AMSA13.jpg,MS,2,num_4,32,num_2,2.49997867085,,,2017_Jun_05_1558,59.9988261095,FEMA4ImagesEEG,001,100446,
AFNE01.JPG,AFNE01.JPG,AFNE01.JPG,AFNE01.JPG,AFNE01.JPG,AFNE01.JPG,,,,,1,9,19,9,,,,,,,,,,,,,,,,,,,AMNE16.jpg,AMNE09.jpg,AMSA11.jpg,AMSA19.jpg,AMSA11.jpg,MS,2,num_2,16,num_2,0.833471839549,,,2017_Jun_05_1558,59.9988261095,FEMA4ImagesEEG,001,100446,
AFNE01.JPG,AFNE01.JPG,AFNE01.JPG,AFNE01.JPG,AFNE01.JPG,AFNE01.JPG,,,,,2,0,20,9,,,,,,,,,,,,,,,,,,,AMSA08.jpg,AMNE05.jpg,AMSA15.jpg,AMNE03.jpg,AMSA08.jpg,MS,2,num_8,16,num_8,1.18342666351,,,2017_Jun_05_1558,59.9988261095,FEMA4ImagesEEG,001,100446,
AFNE01.JPG,AFNE01.JPG,AFNE01.JPG,AFNE01.JPG,AFNE01.JPG,AFNE01.JPG,,,,,2,1,21,3,,,,,,,,,,,,,,,,,,,AMNE07.jpg,AMNE04.jpg,AMSA15.jpg,AMSA10.jpg,AMNE07.jpg,MN,1,num_8,16,num_8,1.35011968412,,,2017_Jun_05_1558,59.9988261095,FEMA4ImagesEEG,001,100446,
AFNE01.JPG,AFNE01.JPG,AFNE01.JPG,AFNE01.JPG,AFNE01.JPG,AFNE01.JPG,,,,,2,2,22,0,,,,,,,,,,,,,,,,,,,AMNE01.jpg,AMSA12.jpg,AMNE03.jpg,AMSA07.jpg,AMNE01.jpg,MN,1,num_8,32,num_2,2.44994549034,,,2017_Jun_05_1558,59.9988261095,FEMA4ImagesEEG,001,100446,
AFNE01.JPG,AFNE01.JPG,AFNE01.JPG,AFNE01.JPG,AFNE01.JPG,AFNE01.JPG,,,,,2,3,23,1,,,,,,,,,,,,,,,,,,,AMNE07.jpg,AMSA01.jpg,AMNE02.jpg,AMSA19.jpg,AMNE07.jpg,MN,1,num_8,16,num_8,0.833428218961,,,2017_Jun_05_1558,59.9988261095,FEMA4ImagesEEG,001,100446,
AFNE01.JPG,AFNE01.JPG,AFNE01.JPG,AFNE01.JPG,AFNE01.JPG,AFNE01.JPG,,,,,2,4,24,7,,,,,,,,,,,,,,,,,,,AMNE04.jpg,AMSA15.jpg,AMNE20.jpg,AMSA17.jpg,AMSA15.jpg,MS,2,num_6,32,num_4,3.16628664336,,,2017_Jun_05_1558,59.9988261095,FEMA4ImagesEEG,001,100446,
AFNE01.JPG,AFNE01.JPG,AFNE01.JPG,AFNE01.JPG,AFNE01.JPG,AFNE01.JPG,,,,,2,5,25,4,,,,,,,,,,,,,,,,,,,AMSA01.jpg,AMNE15.jpg,AMNE09.jpg,AMSA09.jpg,AMSA09.jpg,MS,2,num_4,16,num_4,1.46675899695,,,2017_Jun_05_1558,59.9988261095,FEMA4ImagesEEG,001,100446,
AFNE01.JPG,AFNE01.JPG,AFNE01.JPG,AFNE01.JPG,AFNE01.JPG,AFNE01.JPG,,,,,2,6,26,5,,,,,,,,,,,,,,,,,,,AMNE03.jpg,AMSA08.jpg,AMSA14.jpg,AMNE18.jpg,AMNE03.jpg,MN,1,num_8,32,num_2,1.30011023837,,,2017_Jun_05_1558,59.9988261095,FEMA4ImagesEEG,001,100446,
AFNE01.JPG,AFNE01.JPG,AFNE01.JPG,AFNE01.JPG,AFNE01.JPG,AFNE01.JPG,,,,,2,7,27,2,,,,,,,,,,,,,,,,,,,AMSA13.jpg,AMSA19.jpg,AMNE08.jpg,AMNE16.jpg,AMSA13.jpg,MS,2,num_8,32,num_4,1.28342053713,,,2017_Jun_05_1558,59.9988261095,FEMA4ImagesEEG,001,100446,
AFNE01.JPG,AFNE01.JPG,AFNE01.JPG,AFNE01.JPG,AFNE01.JPG,AFNE01.JPG,,,,,2,8,28,6,,,,,,,,,,,,,,,,,,,AMSA10.jpg,AMNE19.jpg,AMNE07.jpg,AMSA06.jpg,AMNE07.jpg,MN,1,num_2,32,num_6,1.23341077077,,,2017_Jun_05_1558,59.9988261095,FEMA4ImagesEEG,001,100446,
AFNE01.JPG,AFNE01.JPG,AFNE01.JPG,AFNE01.JPG,AFNE01.JPG,AFNE01.JPG,,,,,2,9,29,8,,,,,,,,,,,,,,,,,,,AMSA04.jpg,AMNE16.jpg,AMNE17.jpg,AMSA05.jpg,AMSA05.jpg,MS,2,num_4,16,num_4,0.633443999337,,,2017_Jun_05_1558,59.9988261095,FEMA4ImagesEEG,001,100446,
AFNE01.JPG,AFNE01.JPG,AFNE01.JPG,AFNE01.JPG,AFNE01.JPG,AFNE01.JPG,,,,,3,0,30,5,,,,,,,,,,,,,,,,,,,AMNE05.jpg,AMSA13.jpg,AMSA01.jpg,AMNE13.jpg,AMNE13.jpg,MN,1,num_4,16,num_4,0.85014839028,,,2017_Jun_05_1558,59.9988261095,FEMA4ImagesEEG,001,100446,
AFNE01.JPG,AFNE01.JPG,AFNE01.JPG,AFNE01.JPG,AFNE01.JPG,AFNE01.JPG,,,,,3,1,31,1,,,,,,,,,,,,,,,,,,,AMSA04.jpg,AMSA02.jpg,AMNE18.jpg,AMNE14.jpg,AMSA04.jpg,MS,2,num_8,32,num_4,1.30009805015,,,2017_Jun_05_1558,59.9988261095,FEMA4ImagesEEG,001,100446,
AFNE01.JPG,AFNE01.JPG,AFNE01.JPG,AFNE01.JPG,AFNE01.JPG,AFNE01.JPG,,,,,3,2,32,6,,,,,,,,,,,,,,,,,,,AMSA11.jpg,AMNE18.jpg,AMSA06.jpg,AMNE10.jpg,AMSA06.jpg,MS,2,num_2,16,num_2,1.88338795002,,,2017_Jun_05_1558,59.9988261095,FEMA4ImagesEEG,001,100446,
AFNE01.JPG,AFNE01.JPG,AFNE01.JPG,AFNE01.JPG,AFNE01.JPG,AFNE01.JPG,,,,,3,3,33,9,,,,,,,,,,,,,,,,,,,AMSA11.jpg,AMNE03.jpg,AMNE14.jpg,AMSA02.jpg,AMNE03.jpg,MN,1,num_6,16,num_6,0.633475752547,,,2017_Jun_05_1558,59.9988261095,FEMA4ImagesEEG,001,100446,
AFNE01.JPG,AFNE01.JPG,AFNE01.JPG,AFNE01.JPG,AFNE01.JPG,AFNE01.JPG,,,,,3,4,34,2,,,,,,,,,,,,,,,,,,,AMSA19.jpg,AMSA04.jpg,AMNE09.jpg,AMNE01.jpg,AMSA19.jpg,MS,2,num_8,16,num_8,0.983456556452,,,2017_Jun_05_1558,59.9988261095,FEMA4ImagesEEG,001,100446,
AFNE01.JPG,AFNE01.JPG,AFNE01.JPG,AFNE01.JPG,AFNE01.JPG,AFNE01.JPG,,,,,3,5,35,4,,,,,,,,,,,,,,,,,,,AMNE12.jpg,AMNE07.jpg,AMSA08.jpg,AMSA14.jpg,AMNE12.jpg,MN,1,num_8,32,num_2,1.23343033576,,,2017_Jun_05_1558,59.9988261095,FEMA4ImagesEEG,001,100446,
AFNE01.JPG,AFNE01.JPG,AFNE01.JPG,AFNE01.JPG,AFNE01.JPG,AFNE01.JPG,,,,,3,6,36,0,,,,,,,,,,,,,,,,,,,AMSA15.jpg,AMNE09.jpg,AMSA13.jpg,AMNE10.jpg,AMSA13.jpg,MS,2,num_2,16,num_2,1.78329977859,,,2017_Jun_05_1558,59.9988261095,FEMA4ImagesEEG,001,100446,
AFNE01.JPG,AFNE01.JPG,AFNE01.JPG,AFNE01.JPG,AFNE01.JPG,AFNE01.JPG,,,,,3,7,37,3,,,,,,,,,,,,,,,,,,,AMNE09.jpg,AMNE07.jpg,AMSA06.jpg,AMSA08.jpg,AMSA08.jpg,MS,2,num_4,16,num_4,0.91684176377,,,2017_Jun_05_1558,59.9988261095,FEMA4ImagesEEG,001,100446,
AFNE01.JPG,AFNE01.JPG,AFNE01.JPG,AFNE01.JPG,AFNE01.JPG,AFNE01.JPG,,,,,3,8,38,7,,,,,,,,,,,,,,,,,,,AMNE08.jpg,AMSA16.jpg,AMNE17.jpg,AMSA15.jpg,AMSA16.jpg,MS,2,num_6,16,num_6,0.733466739766,,,2017_Jun_05_1558,59.9988261095,FEMA4ImagesEEG,001,100446,
AFNE01.JPG,AFNE01.JPG,AFNE01.JPG,AFNE01.JPG,AFNE01.JPG,AFNE01.JPG,,,,,3,9,39,8,,,,,,,,,,,,,,,,,,,AMSA08.jpg,AMNE01.jpg,AMSA16.jpg,AMNE17.jpg,AMNE17.jpg,MN,1,num_4,16,num_4,1.50005083717,,,2017_Jun_05_1558,59.9988261095,FEMA4ImagesEEG,001,100446,
AFNE01.JPG,AFNE01.JPG,AFNE01.JPG,AFNE01.JPG,AFNE01.JPG,AFNE01.JPG,,,,,4,0,40,2,,,,,,,,,,,,,,,,,,,AMSA10.jpg,AMNE10.jpg,AMNE11.jpg,AMSA16.jpg,AMSA16.jpg,MS,2,num_4,16,num_4,1.26677349443,,,2017_Jun_05_1558,59.9988261095,FEMA4ImagesEEG,001,100446,
AFNE01.JPG,AFNE01.JPG,AFNE01.JPG,AFNE01.JPG,AFNE01.JPG,AFNE01.JPG,,,,,4,1,41,6,,,,,,,,,,,,,,,,,,,AMNE16.jpg,AMSA16.jpg,AMNE15.jpg,AMSA12.jpg,AMNE15.jpg,MN,1,num_2,32,num_8,0.750161572825,,,2017_Jun_05_1558,59.9988261095,FEMA4ImagesEEG,001,100446,
AFNE01.JPG,AFNE01.JPG,AFNE01.JPG,AFNE01.JPG,AFNE01.JPG,AFNE01.JPG,,,,,4,2,42,7,,,,,,,,,,,,,,,,,,,AMNE15.jpg,AMSA17.jpg,AMSA05.jpg,AMNE14.jpg,AMSA05.jpg,MS,2,num_2,16,num_2,1.63343822584,,,2017_Jun_05_1558,59.9988261095,FEMA4ImagesEEG,001,100446,
AFNE01.JPG,AFNE01.JPG,AFNE01.JPG,AFNE01.JPG,AFNE01.JPG,AFNE01.JPG,,,,,4,3,43,8,,,,,,,,,,,,,,,,,,,AMSA01.jpg,AMSA19.jpg,AMNE17.jpg,AMNE03.jpg,AMNE03.jpg,MN,1,num_4,32,num_2,1.68342906889,,,2017_Jun_05_1558,59.9988261095,FEMA4ImagesEEG,001,100446,
AFNE01.JPG,AFNE01.JPG,AFNE01.JPG,AFNE01.JPG,AFNE01.JPG,AFNE01.JPG,,,,,4,4,44,9,,,,,,,,,,,,,,,,,,,AMNE04.jpg,AMSA02.jpg,AMSA03.jpg,AMNE07.jpg,AMSA02.jpg,MS,2,num_6,16,num_6,0.983533854596,,,2017_Jun_05_1558,59.9988261095,FEMA4ImagesEEG,001,100446,
AFNE01.JPG,AFNE01.JPG,AFNE01.JPG,AFNE01.JPG,AFNE01.JPG,AFNE01.JPG,,,,,4,5,45,4,,,,,,,,,,,,,,,,,,,AMSA18.jpg,AMNE10.jpg,AMSA19.jpg,AMNE16.jpg,AMSA19.jpg,MS,2,num_2,32,num_8,1.06675720075,,,2017_Jun_05_1558,59.9988261095,FEMA4ImagesEEG,001,100446,
AFNE01.JPG,AFNE01.JPG,AFNE01.JPG,AFNE01.JPG,AFNE01.JPG,AFNE01.JPG,,,,,4,6,46,3,,,,,,,,,,,,,,,,,,,AMSA12.jpg,AMNE04.jpg,AMSA05.jpg,AMNE18.jpg,AMSA05.jpg,MS,2,num_2,32,num_8,1.13342716056,,,2017_Jun_05_1558,59.9988261095,FEMA4ImagesEEG,001,100446,
AFNE01.JPG,AFNE01.JPG,AFNE01.JPG,AFNE01.JPG,AFNE01.JPG,AFNE01.JPG,,,,,4,7,47,0,,,,,,,,,,,,,,,,,,,AMSA05.jpg,AMNE12.jpg,AMNE05.jpg,AMSA10.jpg,AMSA05.jpg,MS,2,num_8,16,num_8,0.616827106103,,,2017_Jun_05_1558,59.9988261095,FEMA4ImagesEEG,001,100446,
AFNE01.JPG,AFNE01.JPG,AFNE01.JPG,AFNE01.JPG,AFNE01.JPG,AFNE01.JPG,,,,,4,8,48,1,,,,,,,,,,,,,,,,,,,AMNE12.jpg,AMSA16.jpg,AMSA18.jpg,AMNE03.jpg,AMNE12.jpg,MN,1,num_8,16,num_8,0.816894076532,,,2017_Jun_05_1558,59.9988261095,FEMA4ImagesEEG,001,100446,
AFNE01.JPG,AFNE01.JPG,AFNE01.JPG,AFNE01.JPG,AFNE01.JPG,AFNE01.JPG,,,,,4,9,49,5,,,,,,,,,,,,,,,,,,,AMSA11.jpg,AMSA06.jpg,AMNE04.jpg,AMNE17.jpg,AMSA06.jpg,MS,2,num_6,16,num_6,1.05011272407,,,2017_Jun_05_1558,59.9988261095,FEMA4ImagesEEG,001,100446,
AFNE01.JPG,AFNE01.JPG,AFNE01.JPG,AFNE01.JPG,AFNE01.JPG,AFNE01.JPG,,,,,5,0,50,8,,,,,,,,,,,,,,,,,,,AMNE13.jpg,AMNE11.jpg,AMSA03.jpg,AMSA11.jpg,AMNE13.jpg,MN,1,num_8,32,num_6,0.733478286536,,,2017_Jun_05_1558,59.9988261095,FEMA4ImagesEEG,001,100446,
AFNE01.JPG,AFNE01.JPG,AFNE01.JPG,AFNE01.JPG,AFNE01.JPG,AFNE01.JPG,,,,,5,1,51,3,,,,,,,,,,,,,,,,,,,AMNE15.jpg,AMSA11.jpg,AMSA10.jpg,AMNE20.jpg,AMNE15.jpg,MN,1,num_8,16,num_8,0.933611008571,,,2017_Jun_05_1558,59.9988261095,FEMA4ImagesEEG,001,100446,
AFNE01.JPG,AFNE01.JPG,AFNE01.JPG,AFNE01.JPG,AFNE01.JPG,AFNE01.JPG,,,,,5,2,52,9,,,,,,,,,,,,,,,,,,,AMNE05.jpg,AMSA03.jpg,AMSA18.jpg,AMNE06.jpg,AMNE06.jpg,MN,1,num_4,16,num_4,0.616788296727,,,2017_Jun_05_1558,59.9988261095,FEMA4ImagesEEG,001,100446,
AFNE01.JPG,AFNE01.JPG,AFNE01.JPG,AFNE01.JPG,AFNE01.JPG,AFNE01.JPG,,,,,5,3,53,2,,,,,,,,,,,,,,,,,,,AMSA15.jpg,AMNE05.jpg,AMNE09.jpg,AMSA08.jpg,AMSA15.jpg,MS,2,num_8,16,num_8,0.950110190315,,,2017_Jun_05_1558,59.9988261095,FEMA4ImagesEEG,001,100446,
AFNE01.JPG,AFNE01.JPG,AFNE01.JPG,AFNE01.JPG,AFNE01.JPG,AFNE01.JPG,,,,,5,4,54,1,,,,,,,,,,,,,,,,,,,AMNE03.jpg,AMSA01.jpg,AMNE05.jpg,AMSA20.jpg,AMNE03.jpg,MN,1,num_8,16,num_8,1.81665704981,,,2017_Jun_05_1558,59.9988261095,FEMA4ImagesEEG,001,100446,
AFNE01.JPG,AFNE01.JPG,AFNE01.JPG,AFNE01.JPG,AFNE01.JPG,AFNE01.JPG,,,,,5,5,55,7,,,,,,,,,,,,,,,,,,,AMNE20.jpg,AMNE09.jpg,AMSA15.jpg,AMSA13.jpg,AMNE20.jpg,MN,1,num_8,16,num_8,0.833445859607,,,2017_Jun_05_1558,59.9988261095,FEMA4ImagesEEG,001,100446,
AFNE01.JPG,AFNE01.JPG,AFNE01.JPG,AFNE01.JPG,AFNE01.JPG,AFNE01.JPG,,,,,5,6,56,6,,,,,,,,,,,,,,,,,,,AMNE05.jpg,AMSA08.jpg,AMSA07.jpg,AMNE10.jpg,AMSA08.jpg,MS,2,num_6,16,num_6,0.833432709333,,,2017_Jun_05_1558,59.9988261095,FEMA4ImagesEEG,001,100446,
AFNE01.JPG,AFNE01.JPG,AFNE01.JPG,AFNE01.JPG,AFNE01.JPG,AFNE01.JPG,,,,,5,7,57,0,,,,,,,,,,,,,,,,,,,AMSA14.jpg,AMNE20.jpg,AMSA06.jpg,AMNE08.jpg,AMNE20.jpg,MN,1,num_6,16,num_6,0.550301479409,,,2017_Jun_05_1558,59.9988261095,FEMA4ImagesEEG,001,100446,
AFNE01.JPG,AFNE01.JPG,AFNE01.JPG,AFNE01.JPG,AFNE01.JPG,AFNE01.JPG,,,,,5,8,58,4,,,,,,,,,,,,,,,,,,,AMSA12.jpg,AMSA16.jpg,AMNE09.jpg,AMNE02.jpg,AMSA12.jpg,MS,2,num_8,16,num_8,0.516940038651,,,2017_Jun_05_1558,59.9988261095,FEMA4ImagesEEG,001,100446,
AFNE01.JPG,AFNE01.JPG,AFNE01.JPG,AFNE01.JPG,AFNE01.JPG,AFNE01.JPG,,,,,5,9,59,5,,,,,,,,,,,,,,,,,,,AMNE14.jpg,AMNE09.jpg,AMSA03.jpg,AMSA18.jpg,AMSA03.jpg,MS,2,num_2,32,num_4,0.866782282712,,,2017_Jun_05_1558,59.9988261095,FEMA4ImagesEEG,001,100446,
,,,,,,,,,,,,,,,,,,,,,,,,,,,,,,,,,,,,,,,,,,,space,26.2481574295,2017_Jun_05_1558,59.9988261095,FEMA4ImagesEEG,001,100446,
AFNE01.JPG,AFNE01.JPG,AFNE01.JPG,AFNE01.JPG,AFNE01.JPG,AFNE01.JPG,,,,,,,,,0,0,0,3,,,,,,,,,,,,,,,AFSA05.jpg,AFNE06.jpg,AFSA10.jpg,AFNE03.jpg,AFNE03.jpg,FN,3,num_4,32,num_8,0.650111569325,,,2017_Jun_05_1558,59.9988261095,FEMA4ImagesEEG,001,100446,
AFNE01.JPG,AFNE01.JPG,AFNE01.JPG,AFNE01.JPG,AFNE01.JPG,AFNE01.JPG,,,,,,,,,0,1,1,6,,,,,,,,,,,,,,,AFNE15.jpg,AFSA18.jpg,AFSA19.jpg,AFNE11.jpg,AFSA18.jpg,FS,4,num_6,32,num_2,1.28340321709,,,2017_Jun_05_1558,59.9988261095,FEMA4ImagesEEG,001,100446,
AFNE01.JPG,AFNE01.JPG,AFNE01.JPG,AFNE01.JPG,AFNE01.JPG,AFNE01.JPG,,,,,,,,,0,2,2,5,,,,,,,,,,,,,,,AFSA04.jpg,AFNE03.jpg,AFSA15.jpg,AFNE16.jpg,AFSA04.jpg,FS,4,num_8,32,num_6,0.966770703904,,,2017_Jun_05_1558,59.9988261095,FEMA4ImagesEEG,001,100446,
AFNE01.JPG,AFNE01.JPG,AFNE01.JPG,AFNE01.JPG,AFNE01.JPG,AFNE01.JPG,,,,,,,,,0,3,3,2,,,,,,,,,,,,,,,AFNE20.jpg,AFSA05.jpg,AFSA04.jpg,AFNE12.jpg,AFSA04.jpg,FS,4,num_2,16,num_2,0.650116701145,,,2017_Jun_05_1558,59.9988261095,FEMA4ImagesEEG,001,100446,
AFNE01.JPG,AFNE01.JPG,AFNE01.JPG,AFNE01.JPG,AFNE01.JPG,AFNE01.JPG,,,,,,,,,0,4,4,9,,,,,,,,,,,,,,,AFSA14.jpg,AFNE19.jpg,AFNE06.jpg,AFSA06.jpg,AFNE06.jpg,FN,3,num_2,32,num_6,0.700153409736,,,2017_Jun_05_1558,59.9988261095,FEMA4ImagesEEG,001,100446,
AFNE01.JPG,AFNE01.JPG,AFNE01.JPG,AFNE01.JPG,AFNE01.JPG,AFNE01.JPG,,,,,,,,,0,5,5,4,,,,,,,,,,,,,,,AFNE05.jpg,AFNE16.jpg,AFSA12.jpg,AFSA08.jpg,AFNE05.jpg,FN,3,num_8,32,num_6,0.666824363638,,,2017_Jun_05_1558,59.9988261095,FEMA4ImagesEEG,001,100446,
AFNE01.JPG,AFNE01.JPG,AFNE01.JPG,AFNE01.JPG,AFNE01.JPG,AFNE01.JPG,,,,,,,,,0,6,6,7,,,,,,,,,,,,,,,AFNE07.jpg,AFSA10.jpg,AFSA15.jpg,AFNE08.jpg,AFSA10.jpg,FS,4,num_6,16,num_6,0.800085380906,,,2017_Jun_05_1558,59.9988261095,FEMA4ImagesEEG,001,100446,
AFNE01.JPG,AFNE01.JPG,AFNE01.JPG,AFNE01.JPG,AFNE01.JPG,AFNE01.JPG,,,,,,,,,0,7,7,0,,,,,,,,,,,,,,,AFNE12.jpg,AFSA09.jpg,AFNE01.jpg,AFSA16.jpg,AFNE01.jpg,FN,3,num_2,32,num_8,1.03344515385,,,2017_Jun_05_1558,59.9988261095,FEMA4ImagesEEG,001,100446,
AFNE01.JPG,AFNE01.JPG,AFNE01.JPG,AFNE01.JPG,AFNE01.JPG,AFNE01.JPG,,,,,,,,,0,8,8,8,,,,,,,,,,,,,,,AFNE15.jpg,AFSA02.jpg,AFNE14.jpg,AFSA12.jpg,AFSA12.jpg,FS,4,num_4,32,num_8,0.866742831888,,,2017_Jun_05_1558,59.9988261095,FEMA4ImagesEEG,001,100446,
AFNE01.JPG,AFNE01.JPG,AFNE01.JPG,AFNE01.JPG,AFNE01.JPG,AFNE01.JPG,,,,,,,,,0,9,9,1,,,,,,,,,,,,,,,AFSA03.jpg,AFNE07.jpg,AFNE09.jpg,AFSA05.jpg,AFNE07.jpg,FN,3,num_6,16,num_6,0.53347257711,,,2017_Jun_05_1558,59.9988261095,FEMA4ImagesEEG,001,100446,
AFNE01.JPG,AFNE01.JPG,AFNE01.JPG,AFNE01.JPG,AFNE01.JPG,AFNE01.JPG,,,,,,,,,1,0,10,4,,,,,,,,,,,,,,,AFSA14.jpg,AFNE14.jpg,AFNE20.jpg,AFSA19.jpg,AFNE20.jpg,FN,3,num_2,16,num_2,0.950141302077,,,2017_Jun_05_1558,59.9988261095,FEMA4ImagesEEG,001,100446,
AFNE01.JPG,AFNE01.JPG,AFNE01.JPG,AFNE01.JPG,AFNE01.JPG,AFNE01.JPG,,,,,,,,,1,1,11,7,,,,,,,,,,,,,,,AFSA06.jpg,AFSA04.jpg,AFNE03.jpg,AFNE05.jpg,AFSA04.jpg,FS,4,num_6,32,num_2,1.26674077893,,,2017_Jun_05_1558,59.9988261095,FEMA4ImagesEEG,001,100446,
AFNE01.JPG,AFNE01.JPG,AFNE01.JPG,AFNE01.JPG,AFNE01.JPG,AFNE01.JPG,,,,,,,,,1,2,12,0,,,,,,,,,,,,,,,AFNE07.jpg,AFNE16.jpg,AFSA08.jpg,AFSA06.jpg,AFSA08.jpg,FS,4,num_2,16,num_2,0.81671382091,,,2017_Jun_05_1558,59.9988261095,FEMA4ImagesEEG,001,100446,
AFNE01.JPG,AFNE01.JPG,AFNE01.JPG,AFNE01.JPG,AFNE01.JPG,AFNE01.JPG,,,,,,,,,1,3,13,3,,,,,,,,,,,,,,,AFSA03.jpg,AFNE03.jpg,AFSA18.jpg,AFNE17.jpg,AFSA03.jpg,FS,4,num_8,16,num_8,1.10011158558,,,2017_Jun_05_1558,59.9988261095,FEMA4ImagesEEG,001,100446,
AFNE01.JPG,AFNE01.JPG,AFNE01.JPG,AFNE01.JPG,AFNE01.JPG,AFNE01.JPG,,,,,,,,,1,4,14,6,,,,,,,,,,,,,,,AFNE06.jpg,AFNE07.jpg,AFSA04.jpg,AFSA15.jpg,AFNE06.jpg,FN,3,num_8,32,num_6,0.616793749155,,,2017_Jun_05_1558,59.9988261095,FEMA4ImagesEEG,001,100446,
AFNE01.JPG,AFNE01.JPG,AFNE01.JPG,AFNE01.JPG,AFNE01.JPG,AFNE01.JPG,,,,,,,,,1,5,15,2,,,,,,,,,,,,,,,AFNE19.jpg,AFSA14.jpg,AFSA03.jpg,AFNE16.jpg,AFSA14.jpg,FS,4,num_6,32,num_8,1.36675614235,,,2017_Jun_05_1558,59.9988261095,FEMA4ImagesEEG,001,100446,
AFNE01.JPG,AFNE01.JPG,AFNE01.JPG,AFNE01.JPG,AFNE01.JPG,AFNE01.JPG,,,,,,,,,1,6,16,1,,,,,,,,,,,,,,,AFSA13.jpg,AFNE16.jpg,AFNE09.jpg,AFSA10.jpg,AFSA10.jpg,FS,4,num_4,32,num_6,1.28342182026,,,2017_Jun_05_1558,59.9988261095,FEMA4ImagesEEG,001,100446,
AFNE01.JPG,AFNE01.JPG,AFNE01.JPG,AFNE01.JPG,AFNE01.JPG,AFNE01.JPG,,,,,,,,,1,7,17,9,,,,,,,,,,,,,,,AFNE13.jpg,AFSA08.jpg,AFSA12.jpg,AFNE20.jpg,AFSA12.jpg,FS,4,num_2,16,num_2,0.917008548742,,,2017_Jun_05_1558,59.9988261095,FEMA4ImagesEEG,001,100446,
AFNE01.JPG,AFNE01.JPG,AFNE01.JPG,AFNE01.JPG,AFNE01.JPG,AFNE01.JPG,,,,,,,,,1,8,18,8,,,,,,,,,,,,,,,AFNE06.jpg,AFSA01.jpg,AFSA02.jpg,AFNE10.jpg,AFSA01.jpg,FS,4,num_6,32,num_2,0.783495750511,,,2017_Jun_05_1558,59.9988261095,FEMA4ImagesEEG,001,100446,
AFNE01.JPG,AFNE01.JPG,AFNE01.JPG,AFNE01.JPG,AFNE01.JPG,AFNE01.JPG,,,,,,,,,1,9,19,5,,,,,,,,,,,,,,,AFSA19.jpg,AFNE05.jpg,AFSA06.jpg,AFNE09.jpg,AFNE09.jpg,FN,3,num_4,16,num_4,0.716826753225,,,2017_Jun_05_1558,59.9988261095,FEMA4ImagesEEG,001,100446,
AFNE01.JPG,AFNE01.JPG,AFNE01.JPG,AFNE01.JPG,AFNE01.JPG,AFNE01.JPG,,,,,,,,,2,0,20,7,,,,,,,,,,,,,,,AFNE09.jpg,AFNE16.jpg,AFSA19.jpg,AFSA16.jpg,AFSA19.jpg,FS,4,num_2,16,num_2,1.03344066371,,,2017_Jun_05_1558,59.9988261095,FEMA4ImagesEEG,001,100446,
AFNE01.JPG,AFNE01.JPG,AFNE01.JPG,AFNE01.JPG,AFNE01.JPG,AFNE01.JPG,,,,,,,,,2,1,21,9,,,,,,,,,,,,,,,AFSA08.jpg,AFSA17.jpg,AFNE09.jpg,AFNE11.jpg,AFNE09.jpg,FN,3,num_2,32,num_4,1.21676469012,,,2017_Jun_05_1558,59.9988261095,FEMA4ImagesEEG,001,100446,
AFNE01.JPG,AFNE01.JPG,AFNE01.JPG,AFNE01.JPG,AFNE01.JPG,AFNE01.JPG,,,,,,,,,2,2,22,2,,,,,,,,,,,,,,,AFSA17.jpg,AFSA19.jpg,AFNE04.jpg,AFNE11.jpg,AFNE04.jpg,FN,3,num_2,16,num_2,0.516856646165,,,2017_Jun_05_1558,59.9988261095,FEMA4ImagesEEG,001,100446,
AFNE01.JPG,AFNE01.JPG,AFNE01.JPG,AFNE01.JPG,AFNE01.JPG,AFNE01.JPG,,,,,,,,,2,3,23,0,,,,,,,,,,,,,,,AFSA04.jpg,AFSA05.jpg,AFNE13.jpg,AFNE09.jpg,AFNE13.jpg,FN,3,num_2,16,num_2,1.3333950222,,,2017_Jun_05_1558,59.9988261095,FEMA4ImagesEEG,001,100446,
AFNE01.JPG,AFNE01.JPG,AFNE01.JPG,AFNE01.JPG,AFNE01.JPG,AFNE01.JPG,,,,,,,,,2,4,24,1,,,,,,,,,,,,,,,AFNE13.jpg,AFSA02.jpg,AFSA08.jpg,AFNE18.jpg,AFNE13.jpg,FN,3,num_8,32,num_4,0.983438594732,,,2017_Jun_05_1558,59.9988261095,FEMA4ImagesEEG,001,100446,
AFNE01.JPG,AFNE01.JPG,AFNE01.JPG,AFNE01.JPG,AFNE01.JPG,AFNE01.JPG,,,,,,,,,2,5,25,3,,,,,,,,,,,,,,,AFNE12.jpg,AFNE08.jpg,AFSA01.jpg,AFSA06.jpg,AFSA01.jpg,FS,4,num_2,16,num_2,0.783442187123,,,2017_Jun_05_1558,59.9988261095,FEMA4ImagesEEG,001,100446,
AFNE01.JPG,AFNE01.JPG,AFNE01.JPG,AFNE01.JPG,AFNE01.JPG,AFNE01.JPG,,,,,,,,,2,6,26,6,,,,,,,,,,,,,,,AFSA06.jpg,AFSA19.jpg,AFNE17.jpg,AFNE01.jpg,AFNE01.jpg,FN,3,num_4,16,num_4,1.21682466846,,,2017_Jun_05_1558,59.9988261095,FEMA4ImagesEEG,001,100446,
AFNE01.JPG,AFNE01.JPG,AFNE01.JPG,AFNE01.JPG,AFNE01.JPG,AFNE01.JPG,,,,,,,,,2,7,27,8,,,,,,,,,,,,,,,AFSA16.jpg,AFNE09.jpg,AFNE03.jpg,AFSA10.jpg,AFNE09.jpg,FN,3,num_6,32,num_4,0.750034559751,,,2017_Jun_05_1558,59.9988261095,FEMA4ImagesEEG,001,100446,
AFNE01.JPG,AFNE01.JPG,AFNE01.JPG,AFNE01.JPG,AFNE01.JPG,AFNE01.JPG,,,,,,,,,2,8,28,4,,,,,,,,,,,,,,,AFSA15.jpg,AFNE19.jpg,AFNE10.jpg,AFSA20.jpg,AFNE19.jpg,FN,3,num_6,16,num_6,0.833592117066,,,2017_Jun_05_1558,59.9988261095,FEMA4ImagesEEG,001,100446,
AFNE01.JPG,AFNE01.JPG,AFNE01.JPG,AFNE01.JPG,AFNE01.JPG,AFNE01.JPG,,,,,,,,,2,9,29,5,,,,,,,,,,,,,,,AFSA07.jpg,AFNE11.jpg,AFNE02.jpg,AFSA19.jpg,AFSA19.jpg,FS,4,num_4,16,num_4,1.01677181059,,,2017_Jun_05_1558,59.9988261095,FEMA4ImagesEEG,001,100446,
AFNE01.JPG,AFNE01.JPG,AFNE01.JPG,AFNE01.JPG,AFNE01.JPG,AFNE01.JPG,,,,,,,,,3,0,30,1,,,,,,,,,,,,,,,AFSA15.jpg,AFNE19.jpg,AFNE09.jpg,AFSA05.jpg,AFNE19.jpg,FN,3,num_6,32,num_2,1.18340164539,,,2017_Jun_05_1558,59.9988261095,FEMA4ImagesEEG,001,100446,
AFNE01.JPG,AFNE01.JPG,AFNE01.JPG,AFNE01.JPG,AFNE01.JPG,AFNE01.JPG,,,,,,,,,3,1,31,0,,,,,,,,,,,,,,,AFNE10.jpg,AFSA01.jpg,AFNE07.jpg,AFSA02.jpg,AFNE07.jpg,FN,3,num_2,16,num_2,0.933520239079,,,2017_Jun_05_1558,59.9988261095,FEMA4ImagesEEG,001,100446,
AFNE01.JPG,AFNE01.JPG,AFNE01.JPG,AFNE01.JPG,AFNE01.JPG,AFNE01.JPG,,,,,,,,,3,2,32,3,,,,,,,,,,,,,,,AFSA20.jpg,AFSA18.jpg,AFNE14.jpg,AFNE20.jpg,AFSA20.jpg,FS,4,num_8,16,num_8,1.53338501509,,,2017_Jun_05_1558,59.9988261095,FEMA4ImagesEEG,001,100446,
AFNE01.JPG,AFNE01.JPG,AFNE01.JPG,AFNE01.JPG,AFNE01.JPG,AFNE01.JPG,,,,,,,,,3,3,33,6,,,,,,,,,,,,,,,AFSA11.jpg,AFSA03.jpg,AFNE02.jpg,AFNE16.jpg,AFSA11.jpg,FS,4,num_8,32,num_6,0.749953733291,,,2017_Jun_05_1558,59.9988261095,FEMA4ImagesEEG,001,100446,
AFNE01.JPG,AFNE01.JPG,AFNE01.JPG,AFNE01.JPG,AFNE01.JPG,AFNE01.JPG,,,,,,,,,3,4,34,7,,,,,,,,,,,,,,,AFNE18.jpg,AFSA17.jpg,AFSA20.jpg,AFNE10.jpg,AFSA20.jpg,FS,4,num_2,32,num_6,0.966787061887,,,2017_Jun_05_1558,59.9988261095,FEMA4ImagesEEG,001,100446,
AFNE01.JPG,AFNE01.JPG,AFNE01.JPG,AFNE01.JPG,AFNE01.JPG,AFNE01.JPG,,,,,,,,,3,5,35,4,,,,,,,,,,,,,,,AFSA01.jpg,AFSA07.jpg,AFNE09.jpg,AFNE06.jpg,AFNE06.jpg,FN,3,num_4,16,num_4,0.866784527898,,,2017_Jun_05_1558,59.9988261095,FEMA4ImagesEEG,001,100446,
AFNE01.JPG,AFNE01.JPG,AFNE01.JPG,AFNE01.JPG,AFNE01.JPG,AFNE01.JPG,,,,,,,,,3,6,36,2,,,,,,,,,,,,,,,AFSA15.jpg,AFNE10.jpg,AFNE09.jpg,AFSA01.jpg,AFSA15.jpg,FS,4,num_8,32,num_2,1.15000396129,,,2017_Jun_05_1558,59.9988261095,FEMA4ImagesEEG,001,100446,
AFNE01.JPG,AFNE01.JPG,AFNE01.JPG,AFNE01.JPG,AFNE01.JPG,AFNE01.JPG,,,,,,,,,3,7,37,5,,,,,,,,,,,,,,,AFNE08.jpg,AFSA20.jpg,AFSA01.jpg,AFNE17.jpg,AFNE17.jpg,FN,3,num_4,32,num_8,0.583478815621,,,2017_Jun_05_1558,59.9988261095,FEMA4ImagesEEG,001,100446,
AFNE01.JPG,AFNE01.JPG,AFNE01.JPG,AFNE01.JPG,AFNE01.JPG,AFNE01.JPG,,,,,,,,,3,8,38,8,,,,,,,,,,,,,,,AFNE17.jpg,AFSA19.jpg,AFSA17.jpg,AFNE10.jpg,AFNE17.jpg,FN,3,num_8,16,num_8,1.35015143733,,,2017_Jun_05_1558,59.9988261095,FEMA4ImagesEEG,001,100446,
AFNE01.JPG,AFNE01.JPG,AFNE01.JPG,AFNE01.JPG,AFNE01.JPG,AFNE01.JPG,,,,,,,,,3,9,39,9,,,,,,,,,,,,,,,AFSA18.jpg,AFSA02.jpg,AFNE18.jpg,AFNE09.jpg,AFSA18.jpg,FS,4,num_8,32,num_6,0.700126146898,,,2017_Jun_05_1558,59.9988261095,FEMA4ImagesEEG,001,100446,
AFNE01.JPG,AFNE01.JPG,AFNE01.JPG,AFNE01.JPG,AFNE01.JPG,AFNE01.JPG,,,,,,,,,4,0,40,8,,,,,,,,,,,,,,,AFSA10.jpg,AFNE20.jpg,AFNE17.jpg,AFSA07.jpg,AFSA10.jpg,FS,4,num_8,16,num_8,0.700155013707,,,2017_Jun_05_1558,59.9988261095,FEMA4ImagesEEG,001,100446,
AFNE01.JPG,AFNE01.JPG,AFNE01.JPG,AFNE01.JPG,AFNE01.JPG,AFNE01.JPG,,,,,,,,,4,1,41,2,,,,,,,,,,,,,,,AFSA12.jpg,AFSA07.jpg,AFNE07.jpg,AFNE03.jpg,AFNE07.jpg,FN,3,num_2,16,num_2,2.35002057557,,,2017_Jun_05_1558,59.9988261095,FEMA4ImagesEEG,001,100446,
AFNE01.JPG,AFNE01.JPG,AFNE01.JPG,AFNE01.JPG,AFNE01.JPG,AFNE01.JPG,,,,,,,,,4,2,42,9,,,,,,,,,,,,,,,AFNE02.jpg,AFSA10.jpg,AFNE18.jpg,AFSA17.jpg,AFSA17.jpg,FS,4,num_4,16,num_4,1.86675758567,,,2017_Jun_05_1558,59.9988261095,FEMA4ImagesEEG,001,100446,
AFNE01.JPG,AFNE01.JPG,AFNE01.JPG,AFNE01.JPG,AFNE01.JPG,AFNE01.JPG,,,,,,,,,4,3,43,5,,,,,,,,,,,,,,,AFSA10.jpg,AFNE07.jpg,AFSA17.jpg,AFNE14.jpg,AFSA17.jpg,FS,4,num_2,16,num_2,0.81661631586,,,2017_Jun_05_1558,59.9988261095,FEMA4ImagesEEG,001,100446,
AFNE01.JPG,AFNE01.JPG,AFNE01.JPG,AFNE01.JPG,AFNE01.JPG,AFNE01.JPG,,,,,,,,,4,4,44,0,,,,,,,,,,,,,,,AFSA16.jpg,AFSA07.jpg,AFNE02.jpg,AFNE17.jpg,AFNE17.jpg,FN,3,num_4,32,num_2,1.25006519025,,,2017_Jun_05_1558,59.9988261095,FEMA4ImagesEEG,001,100446,
AFNE01.JPG,AFNE01.JPG,AFNE01.JPG,AFNE01.JPG,AFNE01.JPG,AFNE01.JPG,,,,,,,,,4,5,45,7,,,,,,,,,,,,,,,AFNE04.jpg,AFNE12.jpg,AFSA08.jpg,AFSA12.jpg,AFSA08.jpg,FS,4,num_2,16,num_2,1.15010659792,,,2017_Jun_05_1558,59.9988261095,FEMA4ImagesEEG,001,100446,
AFNE01.JPG,AFNE01.JPG,AFNE01.JPG,AFNE01.JPG,AFNE01.JPG,AFNE01.JPG,,,,,,,,,4,6,46,3,,,,,,,,,,,,,,,AFNE04.jpg,AFSA10.jpg,AFNE18.jpg,AFSA01.jpg,AFSA10.jpg,FS,4,num_6,32,num_8,1.88338057301,,,2017_Jun_05_1558,59.9988261095,FEMA4ImagesEEG,001,100446,
AFNE01.JPG,AFNE01.JPG,AFNE01.JPG,AFNE01.JPG,AFNE01.JPG,AFNE01.JPG,,,,,,,,,4,7,47,6,,,,,,,,,,,,,,,AFSA04.jpg,AFSA18.jpg,AFNE01.jpg,AFNE18.jpg,AFSA18.jpg,FS,4,num_6,16,num_6,1.13342459453,,,2017_Jun_05_1558,59.9988261095,FEMA4ImagesEEG,001,100446,
AFNE01.JPG,AFNE01.JPG,AFNE01.JPG,AFNE01.JPG,AFNE01.JPG,AFNE01.JPG,,,,,,,,,4,8,48,4,,,,,,,,,,,,,,,AFSA17.jpg,AFSA01.jpg,AFNE19.jpg,AFNE05.jpg,AFNE05.jpg,FN,3,num_4,16,num_4,0.783362964401,,,2017_Jun_05_1558,59.9988261095,FEMA4ImagesEEG,001,100446,
AFNE01.JPG,AFNE01.JPG,AFNE01.JPG,AFNE01.JPG,AFNE01.JPG,AFNE01.JPG,,,,,,,,,4,9,49,1,,,,,,,,,,,,,,,AFSA07.jpg,AFSA20.jpg,AFNE11.jpg,AFNE18.jpg,AFNE18.jpg,FN,3,num_4,16,num_4,1.05008610268,,,2017_Jun_05_1558,59.9988261095,FEMA4ImagesEEG,001,100446,
AFNE01.JPG,AFNE01.JPG,AFNE01.JPG,AFNE01.JPG,AFNE01.JPG,AFNE01.JPG,,,,,,,,,5,0,50,2,,,,,,,,,,,,,,,AFNE18.jpg,AFNE01.jpg,AFSA07.jpg,AFSA12.jpg,AFSA07.jpg,FS,4,num_2,16,num_2,1.2334717114,,,2017_Jun_05_1558,59.9988261095,FEMA4ImagesEEG,001,100446,
AFNE01.JPG,AFNE01.JPG,AFNE01.JPG,AFNE01.JPG,AFNE01.JPG,AFNE01.JPG,,,,,,,,,5,1,51,5,,,,,,,,,,,,,,,AFSA17.jpg,AFSA03.jpg,AFNE10.jpg,AFNE04.jpg,AFNE04.jpg,FN,3,num_4,16,num_4,0.633468696382,,,2017_Jun_05_1558,59.9988261095,FEMA4ImagesEEG,001,100446,
AFNE01.JPG,AFNE01.JPG,AFNE01.JPG,AFNE01.JPG,AFNE01.JPG,AFNE01.JPG,,,,,,,,,5,2,52,9,,,,,,,,,,,,,,,AFNE16.jpg,AFSA13.jpg,AFSA14.jpg,AFNE07.jpg,AFSA13.jpg,FS,4,num_6,16,num_6,1.05016243877,,,2017_Jun_05_1558,59.9988261095,FEMA4ImagesEEG,001,100446,
AFNE01.JPG,AFNE01.JPG,AFNE01.JPG,AFNE01.JPG,AFNE01.JPG,AFNE01.JPG,,,,,,,,,5,3,53,4,,,,,,,,,,,,,,,AFSA14.jpg,AFSA12.jpg,AFNE15.jpg,AFNE07.jpg,AFNE15.jpg,FN,3,num_2,32,num_6,0.500166303478,,,2017_Jun_05_1558,59.9988261095,FEMA4ImagesEEG,001,100446,
AFNE01.JPG,AFNE01.JPG,AFNE01.JPG,AFNE01.JPG,AFNE01.JPG,AFNE01.JPG,,,,,,,,,5,4,54,8,,,,,,,,,,,,,,,AFNE07.jpg,AFNE16.jpg,AFSA14.jpg,AFSA19.jpg,AFSA14.jpg,FS,4,num_2,32,num_8,0.866811790736,,,2017_Jun_05_1558,59.9988261095,FEMA4ImagesEEG,001,100446,
AFNE01.JPG,AFNE01.JPG,AFNE01.JPG,AFNE01.JPG,AFNE01.JPG,AFNE01.JPG,,,,,,,,,5,5,55,3,,,,,,,,,,,,,,,AFSA17.jpg,AFNE07.jpg,AFNE12.jpg,AFSA19.jpg,AFNE07.jpg,FN,3,num_6,16,num_6,0.733375649666,,,2017_Jun_05_1558,59.9988261095,FEMA4ImagesEEG,001,100446,
AFNE01.JPG,AFNE01.JPG,AFNE01.JPG,AFNE01.JPG,AFNE01.JPG,AFNE01.JPG,,,,,,,,,5,6,56,6,,,,,,,,,,,,,,,AFSA03.jpg,AFNE07.jpg,AFNE08.jpg,AFSA05.jpg,AFNE08.jpg,FN,3,num_2,16,num_2,1.0167621884,,,2017_Jun_05_1558,59.9988261095,FEMA4ImagesEEG,001,100446,
AFNE01.JPG,AFNE01.JPG,AFNE01.JPG,AFNE01.JPG,AFNE01.JPG,AFNE01.JPG,,,,,,,,,5,7,57,7,,,,,,,,,,,,,,,AFNE03.jpg,AFNE04.jpg,AFSA18.jpg,AFSA08.jpg,AFSA08.jpg,FS,4,num_4,16,num_4,1.16678058263,,,2017_Jun_05_1558,59.9988261095,FEMA4ImagesEEG,001,100446,
AFNE01.JPG,AFNE01.JPG,AFNE01.JPG,AFNE01.JPG,AFNE01.JPG,AFNE01.JPG,,,,,,,,,5,8,58,1,,,,,,,,,,,,,,,AFSA18.jpg,AFSA07.jpg,AFNE09.jpg,AFNE17.jpg,AFSA07.jpg,FS,4,num_6,32,num_2,1.36673529446,,,2017_Jun_05_1558,59.9988261095,FEMA4ImagesEEG,001,100446,
AFNE01.JPG,AFNE01.JPG,AFNE01.JPG,AFNE01.JPG,AFNE01.JPG,AFNE01.JPG,,,,,,,,,5,9,59,0,,,,,,,,,,,,,,,AFNE09.jpg,AFSA08.jpg,AFSA02.jpg,AFNE20.jpg,AFSA08.jpg,FS,4,num_6,16,num_6,0.766740939347,,,2017_Jun_05_1558,59.9988261095,FEMA4ImagesEEG,001,100446,
,,,,,,,,,,,,,,,,,,,,,,,,,,,,,,,,,,,,,,,,,,,space,26.1984453097,2017_Jun_05_1558,59.9988261095,FEMA4ImagesEEG,001,100446,
AFNE01.JPG,AFNE01.JPG,AFNE01.JPG,AFNE01.JPG,AFNE01.JPG,AFNE01.JPG,,,,,,,,,,,,,0,0,0,3,,,,,,,,,,,AMNE04.jpg,AMSA07.jpg,AMSA11.jpg,AMNE19.jpg,AMSA07.jpg,MS,2,num_6,16,num_6,1.35012289137,,,2017_Jun_05_1558,59.9988261095,FEMA4ImagesEEG,001,100446,
AFNE01.JPG,AFNE01.JPG,AFNE01.JPG,AFNE01.JPG,AFNE01.JPG,AFNE01.JPG,,,,,,,,,,,,,0,1,1,7,,,,,,,,,,,AMNE17.jpg,AMSA20.jpg,AMSA10.jpg,AMNE19.jpg,AMSA20.jpg,MS,2,num_6,32,num_2,0.433474533958,,,2017_Jun_05_1558,59.9988261095,FEMA4ImagesEEG,001,100446,
AFNE01.JPG,AFNE01.JPG,AFNE01.JPG,AFNE01.JPG,AFNE01.JPG,AFNE01.JPG,,,,,,,,,,,,,0,2,2,6,,,,,,,,,,,AMNE09.jpg,AMNE04.jpg,AMSA09.jpg,AMSA10.jpg,AMSA09.jpg,MS,2,num_2,16,num_2,1.49992703181,,,2017_Jun_05_1558,59.9988261095,FEMA4ImagesEEG,001,100446,
AFNE01.JPG,AFNE01.JPG,AFNE01.JPG,AFNE01.JPG,AFNE01.JPG,AFNE01.JPG,,,,,,,,,,,,,0,3,3,0,,,,,,,,,,,AMNE09.jpg,AMSA19.jpg,AMSA14.jpg,AMNE19.jpg,AMSA14.jpg,MS,2,num_2,16,num_2,0.583506719908,,,2017_Jun_05_1558,59.9988261095,FEMA4ImagesEEG,001,100446,
AFNE01.JPG,AFNE01.JPG,AFNE01.JPG,AFNE01.JPG,AFNE01.JPG,AFNE01.JPG,,,,,,,,,,,,,0,4,4,1,,,,,,,,,,,AMSA11.jpg,AMNE05.jpg,AMNE07.jpg,AMSA13.jpg,AMNE05.jpg,MN,1,num_6,16,num_6,0.666816986632,,,2017_Jun_05_1558,59.9988261095,FEMA4ImagesEEG,001,100446,
AFNE01.JPG,AFNE01.JPG,AFNE01.JPG,AFNE01.JPG,AFNE01.JPG,AFNE01.JPG,,,,,,,,,,,,,0,5,5,9,,,,,,,,,,,AMNE03.jpg,AMSA07.jpg,AMNE19.jpg,AMSA09.jpg,AMSA07.jpg,MS,2,num_6,16,num_6,0.550130204298,,,2017_Jun_05_1558,59.9988261095,FEMA4ImagesEEG,001,100446,
AFNE01.JPG,AFNE01.JPG,AFNE01.JPG,AFNE01.JPG,AFNE01.JPG,AFNE01.JPG,,,,,,,,,,,,,0,6,6,2,,,,,,,,,,,AMSA05.jpg,AMNE20.jpg,AMSA10.jpg,AMNE13.jpg,AMSA05.jpg,MS,2,num_8,32,num_2,0.650153907249,,,2017_Jun_05_1558,59.9988261095,FEMA4ImagesEEG,001,100446,
AFNE01.JPG,AFNE01.JPG,AFNE01.JPG,AFNE01.JPG,AFNE01.JPG,AFNE01.JPG,,,,,,,,,,,,,0,7,7,8,,,,,,,,,,,AMNE12.jpg,AMNE10.jpg,AMSA16.jpg,AMSA03.jpg,AMSA16.jpg,MS,2,num_2,16,num_2,0.850136843743,,,2017_Jun_05_1558,59.9988261095,FEMA4ImagesEEG,001,100446,
AFNE01.JPG,AFNE01.JPG,AFNE01.JPG,AFNE01.JPG,AFNE01.JPG,AFNE01.JPG,,,,,,,,,,,,,0,8,8,4,,,,,,,,,,,AMSA07.jpg,AMNE15.jpg,AMNE08.jpg,AMSA09.jpg,AMSA09.jpg,MS,2,num_4,16,num_4,0.650121832965,,,2017_Jun_05_1558,59.9988261095,FEMA4ImagesEEG,001,100446,
AFNE01.JPG,AFNE01.JPG,AFNE01.JPG,AFNE01.JPG,AFNE01.JPG,AFNE01.JPG,,,,,,,,,,,,,0,9,9,5,,,,,,,,,,,AMSA12.jpg,AMSA03.jpg,AMNE17.jpg,AMNE08.jpg,AMNE17.jpg,MN,1,num_2,16,num_2,1.03342751344,,,2017_Jun_05_1558,59.9988261095,FEMA4ImagesEEG,001,100446,
AFNE01.JPG,AFNE01.JPG,AFNE01.JPG,AFNE01.JPG,AFNE01.JPG,AFNE01.JPG,,,,,,,,,,,,,1,0,10,0,,,,,,,,,,,AMNE12.jpg,AMNE10.jpg,AMSA13.jpg,AMSA10.jpg,AMSA10.jpg,MS,2,num_4,16,num_4,1.1501425209,,,2017_Jun_05_1558,59.9988261095,FEMA4ImagesEEG,001,100446,
AFNE01.JPG,AFNE01.JPG,AFNE01.JPG,AFNE01.JPG,AFNE01.JPG,AFNE01.JPG,,,,,,,,,,,,,1,1,11,4,,,,,,,,,,,AMSA05.jpg,AMSA15.jpg,AMNE06.jpg,AMNE14.jpg,AMNE06.jpg,MN,1,num_2,16,num_2,1.73341766652,,,2017_Jun_05_1558,59.9988261095,FEMA4ImagesEEG,001,100446,
AFNE01.JPG,AFNE01.JPG,AFNE01.JPG,AFNE01.JPG,AFNE01.JPG,AFNE01.JPG,,,,,,,,,,,,,1,2,12,3,,,,,,,,,,,AMSA12.jpg,AMNE10.jpg,AMSA15.jpg,AMNE07.jpg,AMNE07.jpg,MN,1,num_4,16,num_4,0.600180063397,,,2017_Jun_05_1558,59.9988261095,FEMA4ImagesEEG,001,100446,
AFNE01.JPG,AFNE01.JPG,AFNE01.JPG,AFNE01.JPG,AFNE01.JPG,AFNE01.JPG,,,,,,,,,,,,,1,3,13,5,,,,,,,,,,,AMNE15.jpg,AMSA04.jpg,AMSA15.jpg,AMNE14.jpg,AMNE15.jpg,MN,1,num_8,16,num_8,0.533493104624,,,2017_Jun_05_1558,59.9988261095,FEMA4ImagesEEG,001,100446,
AFNE01.JPG,AFNE01.JPG,AFNE01.JPG,AFNE01.JPG,AFNE01.JPG,AFNE01.JPG,,,,,,,,,,,,,1,4,14,9,,,,,,,,,,,AMNE19.jpg,AMSA11.jpg,AMNE18.jpg,AMSA06.jpg,AMNE19.jpg,MN,1,num_8,32,num_4,0.7667560142,,,2017_Jun_05_1558,59.9988261095,FEMA4ImagesEEG,001,100446,
AFNE01.JPG,AFNE01.JPG,AFNE01.JPG,AFNE01.JPG,AFNE01.JPG,AFNE01.JPG,,,,,,,,,,,,,1,5,15,8,,,,,,,,,,,AMSA13.jpg,AMNE02.jpg,AMNE19.jpg,AMSA08.jpg,AMSA08.jpg,MS,2,num_4,16,num_4,0.766835236922,,,2017_Jun_05_1558,59.9988261095,FEMA4ImagesEEG,001,100446,
AFNE01.JPG,AFNE01.JPG,AFNE01.JPG,AFNE01.JPG,AFNE01.JPG,AFNE01.JPG,,,,,,,,,,,,,1,6,16,2,,,,,,,,,,,AMNE20.jpg,AMNE17.jpg,AMSA17.jpg,AMSA16.jpg,AMNE20.jpg,MN,1,num_8,16,num_8,1.53342991881,,,2017_Jun_05_1558,59.9988261095,FEMA4ImagesEEG,001,100446,
AFNE01.JPG,AFNE01.JPG,AFNE01.JPG,AFNE01.JPG,AFNE01.JPG,AFNE01.JPG,,,,,,,,,,,,,1,7,17,6,,,,,,,,,,,AMSA03.jpg,AMNE07.jpg,AMNE14.jpg,AMSA15.jpg,AMSA15.jpg,MS,2,num_4,32,num_6,0.700146995252,,,2017_Jun_05_1558,59.9988261095,FEMA4ImagesEEG,001,100446,
AFNE01.JPG,AFNE01.JPG,AFNE01.JPG,AFNE01.JPG,AFNE01.JPG,AFNE01.JPG,,,,,,,,,,,,,1,8,18,1,,,,,,,,,,,AMSA04.jpg,AMNE19.jpg,AMNE04.jpg,AMSA16.jpg,AMSA16.jpg,MS,2,num_4,16,num_4,0.533551158383,,,2017_Jun_05_1558,59.9988261095,FEMA4ImagesEEG,001,100446,
AFNE01.JPG,AFNE01.JPG,AFNE01.JPG,AFNE01.JPG,AFNE01.JPG,AFNE01.JPG,,,,,,,,,,,,,1,9,19,7,,,,,,,,,,,AMSA20.jpg,AMNE04.jpg,AMNE06.jpg,AMSA04.jpg,AMNE04.jpg,MN,1,num_6,32,num_4,0.750123083824,,,2017_Jun_05_1558,59.9988261095,FEMA4ImagesEEG,001,100446,
AFNE01.JPG,AFNE01.JPG,AFNE01.JPG,AFNE01.JPG,AFNE01.JPG,AFNE01.JPG,,,,,,,,,,,,,2,0,20,5,,,,,,,,,,,AMSA06.jpg,AMNE08.jpg,AMSA16.jpg,AMNE09.jpg,AMNE08.jpg,MN,1,num_6,32,num_4,0.900134422118,,,2017_Jun_05_1558,59.9988261095,FEMA4ImagesEEG,001,100446,
AFNE01.JPG,AFNE01.JPG,AFNE01.JPG,AFNE01.JPG,AFNE01.JPG,AFNE01.JPG,,,,,,,,,,,,,2,1,21,7,,,,,,,,,,,AMNE12.jpg,AMNE20.jpg,AMSA18.jpg,AMSA05.jpg,AMNE20.jpg,MN,1,num_6,32,num_8,1.03347209608,,,2017_Jun_05_1558,59.9988261095,FEMA4ImagesEEG,001,100446,
AFNE01.JPG,AFNE01.JPG,AFNE01.JPG,AFNE01.JPG,AFNE01.JPG,AFNE01.JPG,,,,,,,,,,,,,2,2,22,1,,,,,,,,,,,AMSA13.jpg,AMSA10.jpg,AMNE08.jpg,AMNE19.jpg,AMSA10.jpg,MS,2,num_6,32,num_8,1.18350332021,,,2017_Jun_05_1558,59.9988261095,FEMA4ImagesEEG,001,100446,
AFNE01.JPG,AFNE01.JPG,AFNE01.JPG,AFNE01.JPG,AFNE01.JPG,AFNE01.JPG,,,,,,,,,,,,,2,3,23,0,,,,,,,,,,,AMNE01.jpg,AMNE17.jpg,AMSA10.jpg,AMSA17.jpg,AMSA10.jpg,MS,2,num_2,32,num_4,0.933431073325,,,2017_Jun_05_1558,59.9988261095,FEMA4ImagesEEG,001,100446,
AFNE01.JPG,AFNE01.JPG,AFNE01.JPG,AFNE01.JPG,AFNE01.JPG,AFNE01.JPG,,,,,,,,,,,,,2,4,24,6,,,,,,,,,,,AMNE17.jpg,AMSA03.jpg,AMNE07.jpg,AMSA01.jpg,AMNE07.jpg,MN,1,num_2,16,num_2,1.10010132194,,,2017_Jun_05_1558,59.9988261095,FEMA4ImagesEEG,001,100446,
AFNE01.JPG,AFNE01.JPG,AFNE01.JPG,AFNE01.JPG,AFNE01.JPG,AFNE01.JPG,,,,,,,,,,,,,2,5,25,2,,,,,,,,,,,AMNE17.jpg,AMSA17.jpg,AMSA12.jpg,AMNE09.jpg,AMNE17.jpg,MN,1,num_8,16,num_8,1.11678204197,,,2017_Jun_05_1558,59.9988261095,FEMA4ImagesEEG,001,100446,
AFNE01.JPG,AFNE01.JPG,AFNE01.JPG,AFNE01.JPG,AFNE01.JPG,AFNE01.JPG,,,,,,,,,,,,,2,6,26,8,,,,,,,,,,,AMNE07.jpg,AMSA02.jpg,AMNE16.jpg,AMSA09.jpg,AMNE16.jpg,MN,1,num_2,16,num_2,0.750074973097,,,2017_Jun_05_1558,59.9988261095,FEMA4ImagesEEG,001,100446,
AFNE01.JPG,AFNE01.JPG,AFNE01.JPG,AFNE01.JPG,AFNE01.JPG,AFNE01.JPG,,,,,,,,,,,,,2,7,27,3,,,,,,,,,,,AMSA12.jpg,AMNE08.jpg,AMNE12.jpg,AMSA06.jpg,AMSA12.jpg,MS,2,num_8,32,num_4,0.917089375202,,,2017_Jun_05_1558,59.9988261095,FEMA4ImagesEEG,001,100446,
AFNE01.JPG,AFNE01.JPG,AFNE01.JPG,AFNE01.JPG,AFNE01.JPG,AFNE01.JPG,,,,,,,,,,,,,2,8,28,4,,,,,,,,,,,AMNE05.jpg,AMSA20.jpg,AMNE02.jpg,AMSA15.jpg,AMNE02.jpg,MN,1,num_2,16,num_2,1.08339782874,,,2017_Jun_05_1558,59.9988261095,FEMA4ImagesEEG,001,100446,
AFNE01.JPG,AFNE01.JPG,AFNE01.JPG,AFNE01.JPG,AFNE01.JPG,AFNE01.JPG,,,,,,,,,,,,,2,9,29,9,,,,,,,,,,,AMNE14.jpg,AMNE03.jpg,AMSA18.jpg,AMSA08.jpg,AMSA18.jpg,MS,2,num_2,32,num_6,1.50004185666,,,2017_Jun_05_1558,59.9988261095,FEMA4ImagesEEG,001,100446,
AFNE01.JPG,AFNE01.JPG,AFNE01.JPG,AFNE01.JPG,AFNE01.JPG,AFNE01.JPG,,,,,,,,,,,,,3,0,30,1,,,,,,,,,,,AMNE20.jpg,AMSA03.jpg,AMNE06.jpg,AMSA08.jpg,AMSA08.jpg,MS,2,num_4,16,num_4,0.566810283344,,,2017_Jun_05_1558,59.9988261095,FEMA4ImagesEEG,001,100446,
AFNE01.JPG,AFNE01.JPG,AFNE01.JPG,AFNE01.JPG,AFNE01.JPG,AFNE01.JPG,,,,,,,,,,,,,3,1,31,2,,,,,,,,,,,AMSA19.jpg,AMNE14.jpg,AMNE20.jpg,AMSA01.jpg,AMNE20.jpg,MN,1,num_2,16,num_2,0.76687372569,,,2017_Jun_05_1558,59.9988261095,FEMA4ImagesEEG,001,100446,
AFNE01.JPG,AFNE01.JPG,AFNE01.JPG,AFNE01.JPG,AFNE01.JPG,AFNE01.JPG,,,,,,,,,,,,,3,2,32,0,,,,,,,,,,,AMNE19.jpg,AMNE17.jpg,AMSA20.jpg,AMSA10.jpg,AMSA10.jpg,MS,2,num_4,16,num_4,0.700195106212,,,2017_Jun_05_1558,59.9988261095,FEMA4ImagesEEG,001,100446,
AFNE01.JPG,AFNE01.JPG,AFNE01.JPG,AFNE01.JPG,AFNE01.JPG,AFNE01.JPG,,,,,,,,,,,,,3,3,33,8,,,,,,,,,,,AMSA12.jpg,AMNE04.jpg,AMNE16.jpg,AMSA09.jpg,AMNE16.jpg,MN,1,num_2,16,num_2,1.13328988384,,,2017_Jun_05_1558,59.9988261095,FEMA4ImagesEEG,001,100446,
AFNE01.JPG,AFNE01.JPG,AFNE01.JPG,AFNE01.JPG,AFNE01.JPG,AFNE01.JPG,,,,,,,,,,,,,3,4,34,7,,,,,,,,,,,AMSA04.jpg,AMNE09.jpg,AMSA10.jpg,AMNE17.jpg,AMNE17.jpg,MN,1,num_4,16,num_4,0.933460902423,,,2017_Jun_05_1558,59.9988261095,FEMA4ImagesEEG,001,100446,
AFNE01.JPG,AFNE01.JPG,AFNE01.JPG,AFNE01.JPG,AFNE01.JPG,AFNE01.JPG,,,,,,,,,,,,,3,5,35,9,,,,,,,,,,,AMSA07.jpg,AMSA19.jpg,AMNE16.jpg,AMNE06.jpg,AMSA07.jpg,MS,2,num_8,32,num_2,0.900085990317,,,2017_Jun_05_1558,59.9988261095,FEMA4ImagesEEG,001,100446,
AFNE01.JPG,AFNE01.JPG,AFNE01.JPG,AFNE01.JPG,AFNE01.JPG,AFNE01.JPG,,,,,,,,,,,,,3,6,36,4,,,,,,,,,,,AMSA18.jpg,AMNE16.jpg,AMSA09.jpg,AMNE03.jpg,AMNE16.jpg,MN,1,num_6,16,num_6,0.600020655664,,,2017_Jun_05_1558,59.9988261095,FEMA4ImagesEEG,001,100446,
AFNE01.JPG,AFNE01.JPG,AFNE01.JPG,AFNE01.JPG,AFNE01.JPG,AFNE01.JPG,,,,,,,,,,,,,3,7,37,5,,,,,,,,,,,AMNE20.jpg,AMNE15.jpg,AMSA05.jpg,AMSA13.jpg,AMSA13.jpg,MS,2,num_4,32,num_2,1.01670060633,,,2017_Jun_05_1558,59.9988261095,FEMA4ImagesEEG,001,100446,
AFNE01.JPG,AFNE01.JPG,AFNE01.JPG,AFNE01.JPG,AFNE01.JPG,AFNE01.JPG,,,,,,,,,,,,,3,8,38,3,,,,,,,,,,,AMSA20.jpg,AMNE09.jpg,AMNE04.jpg,AMSA12.jpg,AMNE04.jpg,MN,1,num_2,16,num_2,0.666804478038,,,2017_Jun_05_1558,59.9988261095,FEMA4ImagesEEG,001,100446,
AFNE01.JPG,AFNE01.JPG,AFNE01.JPG,AFNE01.JPG,AFNE01.JPG,AFNE01.JPG,,,,,,,,,,,,,3,9,39,6,,,,,,,,,,,AMNE18.jpg,AMSA09.jpg,AMSA11.jpg,AMNE11.jpg,AMSA11.jpg,MS,2,num_2,16,num_2,0.900343223708,,,2017_Jun_05_1558,59.9988261095,FEMA4ImagesEEG,001,100446,
AFNE01.JPG,AFNE01.JPG,AFNE01.JPG,AFNE01.JPG,AFNE01.JPG,AFNE01.JPG,,,,,,,,,,,,,4,0,40,8,,,,,,,,,,,AMSA18.jpg,AMSA10.jpg,AMNE08.jpg,AMNE02.jpg,AMNE08.jpg,MN,1,num_2,32,num_4,1.11679102294,,,2017_Jun_05_1558,59.9988261095,FEMA4ImagesEEG,001,100446,
AFNE01.JPG,AFNE01.JPG,AFNE01.JPG,AFNE01.JPG,AFNE01.JPG,AFNE01.JPG,,,,,,,,,,,,,4,1,41,2,,,,,,,,,,,AMNE08.jpg,AMSA10.jpg,AMSA09.jpg,AMNE16.jpg,AMSA10.jpg,MS,2,num_6,16,num_6,1.05013710028,,,2017_Jun_05_1558,59.9988261095,FEMA4ImagesEEG,001,100446,
AFNE01.JPG,AFNE01.JPG,AFNE01.JPG,AFNE01.JPG,AFNE01.JPG,AFNE01.JPG,,,,,,,,,,,,,4,2,42,0,,,,,,,,,,,AMNE07.jpg,AMNE01.jpg,AMSA04.jpg,AMSA07.jpg,AMNE07.jpg,MN,1,num_8,16,num_8,0.816743970383,,,2017_Jun_05_1558,59.9988261095,FEMA4ImagesEEG,001,100446,
AFNE01.JPG,AFNE01.JPG,AFNE01.JPG,AFNE01.JPG,AFNE01.JPG,AFNE01.JPG,,,,,,,,,,,,,4,3,43,1,,,,,,,,,,,AMNE15.jpg,AMSA03.jpg,AMNE04.jpg,AMSA20.jpg,AMSA03.jpg,MS,2,num_6,16,num_6,0.933422413655,,,2017_Jun_05_1558,59.9988261095,FEMA4ImagesEEG,001,100446,
AFNE01.JPG,AFNE01.JPG,AFNE01.JPG,AFNE01.JPG,AFNE01.JPG,AFNE01.JPG,,,,,,,,,,,,,4,4,44,5,,,,,,,,,,,AMSA03.jpg,AMSA14.jpg,AMNE15.jpg,AMNE18.jpg,AMNE15.jpg,MN,1,num_2,16,num_2,0.683323224774,,,2017_Jun_05_1558,59.9988261095,FEMA4ImagesEEG,001,100446,
AFNE01.JPG,AFNE01.JPG,AFNE01.JPG,AFNE01.JPG,AFNE01.JPG,AFNE01.JPG,,,,,,,,,,,,,4,5,45,9,,,,,,,,,,,AMSA10.jpg,AMSA09.jpg,AMNE16.jpg,AMNE18.jpg,AMSA10.jpg,MS,2,num_8,32,num_6,0.516805648571,,,2017_Jun_05_1558,59.9988261095,FEMA4ImagesEEG,001,100446,
AFNE01.JPG,AFNE01.JPG,AFNE01.JPG,AFNE01.JPG,AFNE01.JPG,AFNE01.JPG,,,,,,,,,,,,,4,6,46,4,,,,,,,,,,,AMNE01.jpg,AMNE20.jpg,AMSA03.jpg,AMSA07.jpg,AMSA03.jpg,MS,2,num_2,16,num_2,0.833490763325,,,2017_Jun_05_1558,59.9988261095,FEMA4ImagesEEG,001,100446,
AFNE01.JPG,AFNE01.JPG,AFNE01.JPG,AFNE01.JPG,AFNE01.JPG,AFNE01.JPG,,,,,,,,,,,,,4,7,47,6,,,,,,,,,,,AMSA19.jpg,AMSA04.jpg,AMNE16.jpg,AMNE04.jpg,AMSA04.jpg,MS,2,num_6,16,num_6,0.449823609088,,,2017_Jun_05_1558,59.9988261095,FEMA4ImagesEEG,001,100446,
AFNE01.JPG,AFNE01.JPG,AFNE01.JPG,AFNE01.JPG,AFNE01.JPG,AFNE01.JPG,,,,,,,,,,,,,4,8,48,3,,,,,,,,,,,AMSA09.jpg,AMSA12.jpg,AMNE11.jpg,AMNE01.jpg,AMNE11.jpg,MN,1,num_2,32,num_8,0.766882706434,,,2017_Jun_05_1558,59.9988261095,FEMA4ImagesEEG,001,100446,
AFNE01.JPG,AFNE01.JPG,AFNE01.JPG,AFNE01.JPG,AFNE01.JPG,AFNE01.JPG,,,,,,,,,,,,,4,9,49,7,,,,,,,,,,,AMSA15.jpg,AMSA03.jpg,AMNE01.jpg,AMNE20.jpg,AMNE20.jpg,MN,1,num_4,16,num_4,0.883454663912,,,2017_Jun_05_1558,59.9988261095,FEMA4ImagesEEG,001,100446,
AFNE01.JPG,AFNE01.JPG,AFNE01.JPG,AFNE01.JPG,AFNE01.JPG,AFNE01.JPG,,,,,,,,,,,,,5,0,50,3,,,,,,,,,,,AMNE15.jpg,AMNE06.jpg,AMSA05.jpg,AMSA15.jpg,AMNE15.jpg,MN,1,num_8,16,num_8,0.550131166587,,,2017_Jun_05_1558,59.9988261095,FEMA4ImagesEEG,001,100446,
AFNE01.JPG,AFNE01.JPG,AFNE01.JPG,AFNE01.JPG,AFNE01.JPG,AFNE01.JPG,,,,,,,,,,,,,5,1,51,6,,,,,,,,,,,AMNE14.jpg,AMNE16.jpg,AMSA14.jpg,AMSA04.jpg,AMSA14.jpg,MS,2,num_2,16,num_2,1.53336769529,,,2017_Jun_05_1558,59.9988261095,FEMA4ImagesEEG,001,100446,
AFNE01.JPG,AFNE01.JPG,AFNE01.JPG,AFNE01.JPG,AFNE01.JPG,AFNE01.JPG,,,,,,,,,,,,,5,2,52,7,,,,,,,,,,,AMSA08.jpg,AMSA14.jpg,AMNE08.jpg,AMNE11.jpg,AMSA08.jpg,MS,2,num_8,32,num_2,0.966765572084,,,2017_Jun_05_1558,59.9988261095,FEMA4ImagesEEG,001,100446,
AFNE01.JPG,AFNE01.JPG,AFNE01.JPG,AFNE01.JPG,AFNE01.JPG,AFNE01.JPG,,,,,,,,,,,,,5,3,53,8,,,,,,,,,,,AMNE10.jpg,AMSA04.jpg,AMNE15.jpg,AMSA18.jpg,AMNE10.jpg,MN,1,num_8,16,num_8,0.533490217989,,,2017_Jun_05_1558,59.9988261095,FEMA4ImagesEEG,001,100446,
AFNE01.JPG,AFNE01.JPG,AFNE01.JPG,AFNE01.JPG,AFNE01.JPG,AFNE01.JPG,,,,,,,,,,,,,5,4,54,1,,,,,,,,,,,AMSA10.jpg,AMNE07.jpg,AMSA05.jpg,AMNE15.jpg,AMNE07.jpg,MN,1,num_6,16,num_6,0.883404949214,,,2017_Jun_05_1558,59.9988261095,FEMA4ImagesEEG,001,100446,
AFNE01.JPG,AFNE01.JPG,AFNE01.JPG,AFNE01.JPG,AFNE01.JPG,AFNE01.JPG,,,,,,,,,,,,,5,5,55,2,,,,,,,,,,,AMNE08.jpg,AMSA07.jpg,AMSA18.jpg,AMNE03.jpg,AMSA18.jpg,MS,2,num_2,16,num_2,1.25013735681,,,2017_Jun_05_1558,59.9988261095,FEMA4ImagesEEG,001,100446,
AFNE01.JPG,AFNE01.JPG,AFNE01.JPG,AFNE01.JPG,AFNE01.JPG,AFNE01.JPG,,,,,,,,,,,,,5,6,56,5,,,,,,,,,,,AMNE08.jpg,AMSA04.jpg,AMSA16.jpg,AMNE11.jpg,AMSA16.jpg,MS,2,num_2,32,num_6,1.40009384858,,,2017_Jun_05_1558,59.9988261095,FEMA4ImagesEEG,001,100446,
AFNE01.JPG,AFNE01.JPG,AFNE01.JPG,AFNE01.JPG,AFNE01.JPG,AFNE01.JPG,,,,,,,,,,,,,5,7,57,4,,,,,,,,,,,AMSA19.jpg,AMSA20.jpg,AMNE14.jpg,AMNE20.jpg,AMSA20.jpg,MS,2,num_6,16,num_6,0.733438835246,,,2017_Jun_05_1558,59.9988261095,FEMA4ImagesEEG,001,100446,
AFNE01.JPG,AFNE01.JPG,AFNE01.JPG,AFNE01.JPG,AFNE01.JPG,AFNE01.JPG,,,,,,,,,,,,,5,8,58,9,,,,,,,,,,,AMNE09.jpg,AMSA15.jpg,AMNE20.jpg,AMSA08.jpg,AMSA08.jpg,MS,2,num_4,16,num_4,1.06674340903,,,2017_Jun_05_1558,59.9988261095,FEMA4ImagesEEG,001,100446,
AFNE01.JPG,AFNE01.JPG,AFNE01.JPG,AFNE01.JPG,AFNE01.JPG,AFNE01.JPG,,,,,,,,,,,,,5,9,59,0,,,,,,,,,,,AMSA14.jpg,AMNE15.jpg,AMSA12.jpg,AMNE04.jpg,AMNE15.jpg,MN,1,num_6,16,num_6,0.616807220271,,,2017_Jun_05_1558,59.9988261095,FEMA4ImagesEEG,001,100446,
,,,,,,,,,,,,,,,,,,,,,,,,,,,,,,,,,,,,,,,,,,,space,11.0498513209,2017_Jun_05_1558,59.9988261095,FEMA4ImagesEEG,001,100446,
AFNE01.JPG,AFNE01.JPG,AFNE01.JPG,AFNE01.JPG,AFNE01.JPG,AFNE01.JPG,,,,,,,,,,,,,,,,,0,0,0,0,,,,,,,AFSA07.jpg,AFSA18.jpg,AFNE08.jpg,AFNE09.jpg,AFNE08.jpg,FN,3,num_2,32,num_8,0.950141943526,,,2017_Jun_05_1558,59.9988261095,FEMA4ImagesEEG,001,100446,
AFNE01.JPG,AFNE01.JPG,AFNE01.JPG,AFNE01.JPG,AFNE01.JPG,AFNE01.JPG,,,,,,,,,,,,,,,,,0,1,1,4,,,,,,,AFNE03.jpg,AFNE04.jpg,AFSA01.jpg,AFSA07.jpg,AFSA07.jpg,FS,4,num_4,16,num_4,0.750100631965,,,2017_Jun_05_1558,59.9988261095,FEMA4ImagesEEG,001,100446,
AFNE01.JPG,AFNE01.JPG,AFNE01.JPG,AFNE01.JPG,AFNE01.JPG,AFNE01.JPG,,,,,,,,,,,,,,,,,0,2,2,7,,,,,,,AFSA15.jpg,AFSA18.jpg,AFNE04.jpg,AFNE07.jpg,AFNE04.jpg,FN,3,num_2,32,num_4,1.01679169643,,,2017_Jun_05_1558,59.9988261095,FEMA4ImagesEEG,001,100446,
AFNE01.JPG,AFNE01.JPG,AFNE01.JPG,AFNE01.JPG,AFNE01.JPG,AFNE01.JPG,,,,,,,,,,,,,,,,,0,3,3,2,,,,,,,AFSA05.jpg,AFSA01.jpg,AFNE10.jpg,AFNE01.jpg,AFSA01.jpg,FS,4,num_6,16,num_6,0.50014577643,,,2017_Jun_05_1558,59.9988261095,FEMA4ImagesEEG,001,100446,
AFNE01.JPG,AFNE01.JPG,AFNE01.JPG,AFNE01.JPG,AFNE01.JPG,AFNE01.JPG,,,,,,,,,,,,,,,,,0,4,4,5,,,,,,,AFSA19.jpg,AFNE11.jpg,AFNE18.jpg,AFSA12.jpg,AFNE11.jpg,FN,3,num_6,16,num_6,0.616825181758,,,2017_Jun_05_1558,59.9988261095,FEMA4ImagesEEG,001,100446,
AFNE01.JPG,AFNE01.JPG,AFNE01.JPG,AFNE01.JPG,AFNE01.JPG,AFNE01.JPG,,,,,,,,,,,,,,,,,0,5,5,8,,,,,,,AFSA02.jpg,AFSA09.jpg,AFNE07.jpg,AFNE01.jpg,AFNE07.jpg,FN,3,num_2,16,num_2,1.28348051547,,,2017_Jun_05_1558,59.9988261095,FEMA4ImagesEEG,001,100446,
AFNE01.JPG,AFNE01.JPG,AFNE01.JPG,AFNE01.JPG,AFNE01.JPG,AFNE01.JPG,,,,,,,,,,,,,,,,,0,6,6,9,,,,,,,AFNE12.jpg,AFSA14.jpg,AFNE06.jpg,AFSA03.jpg,AFSA14.jpg,FS,4,num_6,32,num_2,1.69993466535,,,2017_Jun_05_1558,59.9988261095,FEMA4ImagesEEG,001,100446,
AFNE01.JPG,AFNE01.JPG,AFNE01.JPG,AFNE01.JPG,AFNE01.JPG,AFNE01.JPG,,,,,,,,,,,,,,,,,0,7,7,6,,,,,,,AFNE19.jpg,AFSA01.jpg,AFSA06.jpg,AFNE16.jpg,AFNE16.jpg,FN,3,num_4,16,num_4,0.783207405591,,,2017_Jun_05_1558,59.9988261095,FEMA4ImagesEEG,001,100446,
AFNE01.JPG,AFNE01.JPG,AFNE01.JPG,AFNE01.JPG,AFNE01.JPG,AFNE01.JPG,,,,,,,,,,,,,,,,,0,8,8,1,,,,,,,AFSA01.jpg,AFSA07.jpg,AFNE16.jpg,AFNE11.jpg,AFNE16.jpg,FN,3,num_2,32,num_8,0.80019731936,,,2017_Jun_05_1558,59.9988261095,FEMA4ImagesEEG,001,100446,
AFNE01.JPG,AFNE01.JPG,AFNE01.JPG,AFNE01.JPG,AFNE01.JPG,AFNE01.JPG,,,,,,,,,,,,,,,,,0,9,9,3,,,,,,,AFNE03.jpg,AFSA12.jpg,AFSA13.jpg,AFNE09.jpg,AFSA12.jpg,FS,4,num_6,16,num_6,0.516864344012,,,2017_Jun_05_1558,59.9988261095,FEMA4ImagesEEG,001,100446,
AFNE01.JPG,AFNE01.JPG,AFNE01.JPG,AFNE01.JPG,AFNE01.JPG,AFNE01.JPG,,,,,,,,,,,,,,,,,1,0,10,9,,,,,,,AFSA13.jpg,AFNE02.jpg,AFNE19.jpg,AFSA12.jpg,AFNE02.jpg,FN,3,num_6,16,num_6,0.816773157567,,,2017_Jun_05_1558,59.9988261095,FEMA4ImagesEEG,001,100446,
AFNE01.JPG,AFNE01.JPG,AFNE01.JPG,AFNE01.JPG,AFNE01.JPG,AFNE01.JPG,,,,,,,,,,,,,,,,,1,1,11,7,,,,,,,AFSA20.jpg,AFSA12.jpg,AFNE06.jpg,AFNE03.jpg,AFNE03.jpg,FN,3,num_4,16,num_4,0.666765347589,,,2017_Jun_05_1558,59.9988261095,FEMA4ImagesEEG,001,100446,
AFNE01.JPG,AFNE01.JPG,AFNE01.JPG,AFNE01.JPG,AFNE01.JPG,AFNE01.JPG,,,,,,,,,,,,,,,,,1,2,12,6,,,,,,,AFNE16.jpg,AFSA02.jpg,AFNE03.jpg,AFSA20.jpg,AFNE16.jpg,FN,3,num_8,16,num_8,1.05010246043,,,2017_Jun_05_1558,59.9988261095,FEMA4ImagesEEG,001,100446,
AFNE01.JPG,AFNE01.JPG,AFNE01.JPG,AFNE01.JPG,AFNE01.JPG,AFNE01.JPG,,,,,,,,,,,,,,,,,1,3,13,4,,,,,,,AFSA09.jpg,AFSA01.jpg,AFNE09.jpg,AFNE01.jpg,AFSA01.jpg,FS,4,num_6,16,num_6,0.833470556419,,,2017_Jun_05_1558,59.9988261095,FEMA4ImagesEEG,001,100446,
AFNE01.JPG,AFNE01.JPG,AFNE01.JPG,AFNE01.JPG,AFNE01.JPG,AFNE01.JPG,,,,,,,,,,,,,,,,,1,4,14,5,,,,,,,AFNE06.jpg,AFSA02.jpg,AFNE19.jpg,AFSA09.jpg,AFSA02.jpg,FS,4,num_6,16,num_6,0.616753977491,,,2017_Jun_05_1558,59.9988261095,FEMA4ImagesEEG,001,100446,
AFNE01.JPG,AFNE01.JPG,AFNE01.JPG,AFNE01.JPG,AFNE01.JPG,AFNE01.JPG,,,,,,,,,,,,,,,,,1,5,15,0,,,,,,,AFSA14.jpg,AFNE13.jpg,AFSA07.jpg,AFNE01.jpg,AFNE01.jpg,FN,3,num_4,32,num_6,0.78345886548,,,2017_Jun_05_1558,59.9988261095,FEMA4ImagesEEG,001,100446,
AFNE01.JPG,AFNE01.JPG,AFNE01.JPG,AFNE01.JPG,AFNE01.JPG,AFNE01.JPG,,,,,,,,,,,,,,,,,1,6,16,3,,,,,,,AFNE02.jpg,AFSA20.jpg,AFNE03.jpg,AFSA16.jpg,AFSA16.jpg,FS,4,num_4,32,num_6,0.950135207968,,,2017_Jun_05_1558,59.9988261095,FEMA4ImagesEEG,001,100446,
AFNE01.JPG,AFNE01.JPG,AFNE01.JPG,AFNE01.JPG,AFNE01.JPG,AFNE01.JPG,,,,,,,,,,,,,,,,,1,7,17,2,,,,,,,AFNE18.jpg,AFSA03.jpg,AFNE03.jpg,AFSA04.jpg,AFSA04.jpg,FS,4,num_4,32,num_6,0.866713644238,,,2017_Jun_05_1558,59.9988261095,FEMA4ImagesEEG,001,100446,
AFNE01.JPG,AFNE01.JPG,AFNE01.JPG,AFNE01.JPG,AFNE01.JPG,AFNE01.JPG,,,,,,,,,,,,,,,,,1,8,18,1,,,,,,,AFNE17.jpg,AFSA10.jpg,AFNE15.jpg,AFSA02.jpg,AFNE17.jpg,FN,3,num_8,16,num_8,0.733511643251,,,2017_Jun_05_1558,59.9988261095,FEMA4ImagesEEG,001,100446,
AFNE01.JPG,AFNE01.JPG,AFNE01.JPG,AFNE01.JPG,AFNE01.JPG,AFNE01.JPG,,,,,,,,,,,,,,,,,1,9,19,8,,,,,,,AFSA12.jpg,AFNE19.jpg,AFSA18.jpg,AFNE13.jpg,AFNE13.jpg,FN,3,num_4,32,num_2,1.28348725126,,,2017_Jun_05_1558,59.9988261095,FEMA4ImagesEEG,001,100446,
AFNE01.JPG,AFNE01.JPG,AFNE01.JPG,AFNE01.JPG,AFNE01.JPG,AFNE01.JPG,,,,,,,,,,,,,,,,,2,0,20,7,,,,,,,AFNE04.jpg,AFSA13.jpg,AFNE15.jpg,AFSA10.jpg,AFSA10.jpg,FS,4,num_4,16,num_4,0.816759045003,,,2017_Jun_05_1558,59.9988261095,FEMA4ImagesEEG,001,100446,
AFNE01.JPG,AFNE01.JPG,AFNE01.JPG,AFNE01.JPG,AFNE01.JPG,AFNE01.JPG,,,,,,,,,,,,,,,,,2,1,21,1,,,,,,,AFNE04.jpg,AFSA03.jpg,AFSA02.jpg,AFNE19.jpg,AFSA02.jpg,FS,4,num_2,16,num_2,1.06676297425,,,2017_Jun_05_1558,59.9988261095,FEMA4ImagesEEG,001,100446,
AFNE01.JPG,AFNE01.JPG,AFNE01.JPG,AFNE01.JPG,AFNE01.JPG,AFNE01.JPG,,,,,,,,,,,,,,,,,2,2,22,3,,,,,,,AFNE11.jpg,AFNE10.jpg,AFSA19.jpg,AFSA12.jpg,AFNE10.jpg,FN,3,num_6,16,num_6,0.650181170087,,,2017_Jun_05_1558,59.9988261095,FEMA4ImagesEEG,001,100446,
AFNE01.JPG,AFNE01.JPG,AFNE01.JPG,AFNE01.JPG,AFNE01.JPG,AFNE01.JPG,,,,,,,,,,,,,,,,,2,3,23,6,,,,,,,AFNE07.jpg,AFSA13.jpg,AFSA16.jpg,AFNE15.jpg,AFNE15.jpg,FN,3,num_4,16,num_4,1.03344964422,,,2017_Jun_05_1558,59.9988261095,FEMA4ImagesEEG,001,100446,
AFNE01.JPG,AFNE01.JPG,AFNE01.JPG,AFNE01.JPG,AFNE01.JPG,AFNE01.JPG,,,,,,,,,,,,,,,,,2,4,24,4,,,,,,,AFNE15.jpg,AFNE03.jpg,AFSA11.jpg,AFSA08.jpg,AFNE03.jpg,FN,3,num_6,16,num_6,1.00014369143,,,2017_Jun_05_1558,59.9988261095,FEMA4ImagesEEG,001,100446,
AFNE01.JPG,AFNE01.JPG,AFNE01.JPG,AFNE01.JPG,AFNE01.JPG,AFNE01.JPG,,,,,,,,,,,,,,,,,2,5,25,0,,,,,,,AFNE03.jpg,AFSA03.jpg,AFSA19.jpg,AFNE10.jpg,AFSA03.jpg,FS,4,num_6,32,num_8,0.900118705817,,,2017_Jun_05_1558,59.9988261095,FEMA4ImagesEEG,001,100446,
AFNE01.JPG,AFNE01.JPG,AFNE01.JPG,AFNE01.JPG,AFNE01.JPG,AFNE01.JPG,,,,,,,,,,,,,,,,,2,6,26,8,,,,,,,AFNE09.jpg,AFSA14.jpg,AFSA11.jpg,AFNE12.jpg,AFSA14.jpg,FS,4,num_6,16,num_6,0.81676706369,,,2017_Jun_05_1558,59.9988261095,FEMA4ImagesEEG,001,100446,
AFNE01.JPG,AFNE01.JPG,AFNE01.JPG,AFNE01.JPG,AFNE01.JPG,AFNE01.JPG,,,,,,,,,,,,,,,,,2,7,27,2,,,,,,,AFNE09.jpg,AFNE06.jpg,AFSA07.jpg,AFSA04.jpg,AFSA07.jpg,FS,4,num_2,16,num_2,1.15015727491,,,2017_Jun_05_1558,59.9988261095,FEMA4ImagesEEG,001,100446,
AFNE01.JPG,AFNE01.JPG,AFNE01.JPG,AFNE01.JPG,AFNE01.JPG,AFNE01.JPG,,,,,,,,,,,,,,,,,2,8,28,5,,,,,,,AFNE15.jpg,AFNE07.jpg,AFSA03.jpg,AFSA15.jpg,AFNE15.jpg,FN,3,num_8,16,num_8,0.800157868071,,,2017_Jun_05_1558,59.9988261095,FEMA4ImagesEEG,001,100446,
AFNE01.JPG,AFNE01.JPG,AFNE01.JPG,AFNE01.JPG,AFNE01.JPG,AFNE01.JPG,,,,,,,,,,,,,,,,,2,9,29,9,,,,,,,AFNE17.jpg,AFNE09.jpg,AFSA19.jpg,AFSA07.jpg,AFNE17.jpg,FN,3,num_8,32,num_6,1.11670474405,,,2017_Jun_05_1558,59.9988261095,FEMA4ImagesEEG,001,100446,
AFNE01.JPG,AFNE01.JPG,AFNE01.JPG,AFNE01.JPG,AFNE01.JPG,AFNE01.JPG,,,,,,,,,,,,,,,,,3,0,30,9,,,,,,,AFSA02.jpg,AFNE04.jpg,AFSA19.jpg,AFNE16.jpg,AFNE16.jpg,FN,3,num_4,32,num_2,1.08342060144,,,2017_Jun_05_1558,59.9988261095,FEMA4ImagesEEG,001,100446,
AFNE01.JPG,AFNE01.JPG,AFNE01.JPG,AFNE01.JPG,AFNE01.JPG,AFNE01.JPG,,,,,,,,,,,,,,,,,3,1,31,2,,,,,,,AFNE14.jpg,AFSA07.jpg,AFNE13.jpg,AFSA01.jpg,AFNE13.jpg,FN,3,num_2,32,num_8,1.10005321074,,,2017_Jun_05_1558,59.9988261095,FEMA4ImagesEEG,001,100446,
AFNE01.JPG,AFNE01.JPG,AFNE01.JPG,AFNE01.JPG,AFNE01.JPG,AFNE01.JPG,,,,,,,,,,,,,,,,,3,2,32,7,,,,,,,AFSA09.jpg,AFNE02.jpg,AFNE03.jpg,AFSA16.jpg,AFSA09.jpg,FS,4,num_8,32,num_2,1.28344555479,,,2017_Jun_05_1558,59.9988261095,FEMA4ImagesEEG,001,100446,
AFNE01.JPG,AFNE01.JPG,AFNE01.JPG,AFNE01.JPG,AFNE01.JPG,AFNE01.JPG,,,,,,,,,,,,,,,,,3,3,33,5,,,,,,,AFNE20.jpg,AFSA13.jpg,AFSA02.jpg,AFNE03.jpg,AFNE20.jpg,FN,3,num_8,16,num_8,0.716769340914,,,2017_Jun_05_1558,59.9988261095,FEMA4ImagesEEG,001,100446,
AFNE01.JPG,AFNE01.JPG,AFNE01.JPG,AFNE01.JPG,AFNE01.JPG,AFNE01.JPG,,,,,,,,,,,,,,,,,3,4,34,6,,,,,,,AFSA13.jpg,AFNE13.jpg,AFNE17.jpg,AFSA17.jpg,AFNE13.jpg,FN,3,num_6,32,num_2,1.01675737719,,,2017_Jun_05_1558,59.9988261095,FEMA4ImagesEEG,001,100446,
AFNE01.JPG,AFNE01.JPG,AFNE01.JPG,AFNE01.JPG,AFNE01.JPG,AFNE01.JPG,,,,,,,,,,,,,,,,,3,5,35,1,,,,,,,AFNE14.jpg,AFSA20.jpg,AFSA12.jpg,AFNE15.jpg,AFSA12.jpg,FS,4,num_2,16,num_2,0.600153121399,,,2017_Jun_05_1558,59.9988261095,FEMA4ImagesEEG,001,100446,
AFNE01.JPG,AFNE01.JPG,AFNE01.JPG,AFNE01.JPG,AFNE01.JPG,AFNE01.JPG,,,,,,,,,,,,,,,,,3,6,36,4,,,,,,,AFSA19.jpg,AFNE09.jpg,AFNE05.jpg,AFSA02.jpg,AFNE09.jpg,FN,3,num_6,16,num_6,0.966785137309,,,2017_Jun_05_1558,59.9988261095,FEMA4ImagesEEG,001,100446,
AFNE01.JPG,AFNE01.JPG,AFNE01.JPG,AFNE01.JPG,AFNE01.JPG,AFNE01.JPG,,,,,,,,,,,,,,,,,3,7,37,0,,,,,,,AFSA10.jpg,AFNE15.jpg,AFNE02.jpg,AFSA12.jpg,AFSA10.jpg,FS,4,num_8,16,num_8,1.58340921486,,,2017_Jun_05_1558,59.9988261095,FEMA4ImagesEEG,001,100446,
AFNE01.JPG,AFNE01.JPG,AFNE01.JPG,AFNE01.JPG,AFNE01.JPG,AFNE01.JPG,,,,,,,,,,,,,,,,,3,8,38,3,,,,,,,AFSA14.jpg,AFNE14.jpg,AFSA13.jpg,AFNE16.jpg,AFSA13.jpg,FS,4,num_2,16,num_2,0.450157178566,,,2017_Jun_05_1558,59.9988261095,FEMA4ImagesEEG,001,100446,
AFNE01.JPG,AFNE01.JPG,AFNE01.JPG,AFNE01.JPG,AFNE01.JPG,AFNE01.JPG,,,,,,,,,,,,,,,,,3,9,39,8,,,,,,,AFSA14.jpg,AFNE04.jpg,AFSA18.jpg,AFNE15.jpg,AFNE04.jpg,FN,3,num_6,16,num_6,0.683492254699,,,2017_Jun_05_1558,59.9988261095,FEMA4ImagesEEG,001,100446,
AFNE01.JPG,AFNE01.JPG,AFNE01.JPG,AFNE01.JPG,AFNE01.JPG,AFNE01.JPG,,,,,,,,,,,,,,,,,4,0,40,7,,,,,,,AFNE04.jpg,AFSA03.jpg,AFNE02.jpg,AFSA13.jpg,AFNE02.jpg,FN,3,num_2,32,num_6,1.18345039804,,,2017_Jun_05_1558,59.9988261095,FEMA4ImagesEEG,001,100446,
AFNE01.JPG,AFNE01.JPG,AFNE01.JPG,AFNE01.JPG,AFNE01.JPG,AFNE01.JPG,,,,,,,,,,,,,,,,,4,1,41,8,,,,,,,AFNE07.jpg,AFNE19.jpg,AFSA18.jpg,AFSA12.jpg,AFNE19.jpg,FN,3,num_6,16,num_6,0.650151341222,,,2017_Jun_05_1558,59.9988261095,FEMA4ImagesEEG,001,100446,
AFNE01.JPG,AFNE01.JPG,AFNE01.JPG,AFNE01.JPG,AFNE01.JPG,AFNE01.JPG,,,,,,,,,,,,,,,,,4,2,42,2,,,,,,,AFNE03.jpg,AFSA17.jpg,AFSA11.jpg,AFNE10.jpg,AFNE03.jpg,FN,3,num_8,16,num_8,0.766627717996,,,2017_Jun_05_1558,59.9988261095,FEMA4ImagesEEG,001,100446,
AFNE01.JPG,AFNE01.JPG,AFNE01.JPG,AFNE01.JPG,AFNE01.JPG,AFNE01.JPG,,,,,,,,,,,,,,,,,4,3,43,4,,,,,,,AFNE01.jpg,AFNE02.jpg,AFSA01.jpg,AFSA11.jpg,AFSA11.jpg,FS,4,num_4,32,num_2,1.06661607535,,,2017_Jun_05_1558,59.9988261095,FEMA4ImagesEEG,001,100446,
AFNE01.JPG,AFNE01.JPG,AFNE01.JPG,AFNE01.JPG,AFNE01.JPG,AFNE01.JPG,,,,,,,,,,,,,,,,,4,4,44,6,,,,,,,AFNE05.jpg,AFNE06.jpg,AFSA04.jpg,AFSA16.jpg,AFNE05.jpg,FN,3,num_8,32,num_4,0.983711223816,,,2017_Jun_05_1558,59.9988261095,FEMA4ImagesEEG,001,100446,
AFNE01.JPG,AFNE01.JPG,AFNE01.JPG,AFNE01.JPG,AFNE01.JPG,AFNE01.JPG,,,,,,,,,,,,,,,,,4,5,45,9,,,,,,,AFSA12.jpg,AFSA15.jpg,AFNE16.jpg,AFNE01.jpg,AFSA15.jpg,FS,4,num_6,16,num_6,0.600137725705,,,2017_Jun_05_1558,59.9988261095,FEMA4ImagesEEG,001,100446,
AFNE01.JPG,AFNE01.JPG,AFNE01.JPG,AFNE01.JPG,AFNE01.JPG,AFNE01.JPG,,,,,,,,,,,,,,,,,4,6,46,1,,,,,,,AFSA19.jpg,AFNE14.jpg,AFSA20.jpg,AFNE08.jpg,AFSA19.jpg,FS,4,num_8,32,num_2,0.883416175144,,,2017_Jun_05_1558,59.9988261095,FEMA4ImagesEEG,001,100446,
AFNE01.JPG,AFNE01.JPG,AFNE01.JPG,AFNE01.JPG,AFNE01.JPG,AFNE01.JPG,,,,,,,,,,,,,,,,,4,7,47,5,,,,,,,AFSA08.jpg,AFSA15.jpg,AFNE09.jpg,AFNE07.jpg,AFSA08.jpg,FS,4,num_8,16,num_8,0.516775178257,,,2017_Jun_05_1558,59.9988261095,FEMA4ImagesEEG,001,100446,
AFNE01.JPG,AFNE01.JPG,AFNE01.JPG,AFNE01.JPG,AFNE01.JPG,AFNE01.JPG,,,,,,,,,,,,,,,,,4,8,48,0,,,,,,,AFSA05.jpg,AFSA08.jpg,AFNE07.jpg,AFNE03.jpg,AFNE03.jpg,FN,3,num_4,32,num_8,1.10004615458,,,2017_Jun_05_1558,59.9988261095,FEMA4ImagesEEG,001,100446,
AFNE01.JPG,AFNE01.JPG,AFNE01.JPG,AFNE01.JPG,AFNE01.JPG,AFNE01.JPG,,,,,,,,,,,,,,,,,4,9,49,3,,,,,,,AFSA15.jpg,AFSA06.jpg,AFNE11.jpg,AFNE09.jpg,AFSA06.jpg,FS,4,num_6,16,num_6,0.533508820692,,,2017_Jun_05_1558,59.9988261095,FEMA4ImagesEEG,001,100446,
AFNE01.JPG,AFNE01.JPG,AFNE01.JPG,AFNE01.JPG,AFNE01.JPG,AFNE01.JPG,,,,,,,,,,,,,,,,,5,0,50,9,,,,,,,AFNE07.jpg,AFSA19.jpg,AFSA16.jpg,AFNE06.jpg,AFSA16.jpg,FS,4,num_2,16,num_2,0.650162566919,,,2017_Jun_05_1558,59.9988261095,FEMA4ImagesEEG,001,100446,
AFNE01.JPG,AFNE01.JPG,AFNE01.JPG,AFNE01.JPG,AFNE01.JPG,AFNE01.JPG,,,,,,,,,,,,,,,,,5,1,51,3,,,,,,,AFNE06.jpg,AFNE17.jpg,AFSA20.jpg,AFSA09.jpg,AFNE06.jpg,FN,3,num_8,16,num_8,0.733493681997,,,2017_Jun_05_1558,59.9988261095,FEMA4ImagesEEG,001,100446,
AFNE01.JPG,AFNE01.JPG,AFNE01.JPG,AFNE01.JPG,AFNE01.JPG,AFNE01.JPG,,,,,,,,,,,,,,,,,5,2,52,2,,,,,,,AFSA19.jpg,AFNE04.jpg,AFNE03.jpg,AFSA06.jpg,AFSA19.jpg,FS,4,num_8,16,num_8,0.75015836535,,,2017_Jun_05_1558,59.9988261095,FEMA4ImagesEEG,001,100446,
AFNE01.JPG,AFNE01.JPG,AFNE01.JPG,AFNE01.JPG,AFNE01.JPG,AFNE01.JPG,,,,,,,,,,,,,,,,,5,3,53,1,,,,,,,AFSA15.jpg,AFNE11.jpg,AFNE17.jpg,AFSA05.jpg,AFSA05.jpg,FS,4,num_4,32,num_6,1.40001526708,,,2017_Jun_05_1558,59.9988261095,FEMA4ImagesEEG,001,100446,
AFNE01.JPG,AFNE01.JPG,AFNE01.JPG,AFNE01.JPG,AFNE01.JPG,AFNE01.JPG,,,,,,,,,,,,,,,,,5,4,54,8,,,,,,,AFNE02.jpg,AFSA15.jpg,AFSA19.jpg,AFNE20.jpg,AFSA15.jpg,FS,4,num_6,16,num_6,0.566796812229,,,2017_Jun_05_1558,59.9988261095,FEMA4ImagesEEG,001,100446,
AFNE01.JPG,AFNE01.JPG,AFNE01.JPG,AFNE01.JPG,AFNE01.JPG,AFNE01.JPG,,,,,,,,,,,,,,,,,5,5,55,6,,,,,,,AFNE13.jpg,AFNE12.jpg,AFSA18.jpg,AFSA16.jpg,AFNE12.jpg,FN,3,num_6,16,num_6,0.450150763616,,,2017_Jun_05_1558,59.9988261095,FEMA4ImagesEEG,001,100446,
AFNE01.JPG,AFNE01.JPG,AFNE01.JPG,AFNE01.JPG,AFNE01.JPG,AFNE01.JPG,,,,,,,,,,,,,,,,,5,6,56,7,,,,,,,AFNE06.jpg,AFSA06.jpg,AFSA11.jpg,AFNE02.jpg,AFNE02.jpg,FN,3,num_4,16,num_4,0.816775081912,,,2017_Jun_05_1558,59.9988261095,FEMA4ImagesEEG,001,100446,
AFNE01.JPG,AFNE01.JPG,AFNE01.JPG,AFNE01.JPG,AFNE01.JPG,AFNE01.JPG,,,,,,,,,,,,,,,,,5,7,57,0,,,,,,,AFNE03.jpg,AFSA11.jpg,AFSA15.jpg,AFNE15.jpg,AFNE15.jpg,FN,3,num_4,16,num_4,0.566799378255,,,2017_Jun_05_1558,59.9988261095,FEMA4ImagesEEG,001,100446,
AFNE01.JPG,AFNE01.JPG,AFNE01.JPG,AFNE01.JPG,AFNE01.JPG,AFNE01.JPG,,,,,,,,,,,,,,,,,5,8,58,4,,,,,,,AFNE10.jpg,AFSA18.jpg,AFSA07.jpg,AFNE04.jpg,AFSA07.jpg,FS,4,num_2,32,num_8,0.816764177056,,,2017_Jun_05_1558,59.9988261095,FEMA4ImagesEEG,001,100446,
AFNE01.JPG,AFNE01.JPG,AFNE01.JPG,AFNE01.JPG,AFNE01.JPG,AFNE01.JPG,,,,,,,,,,,,,,,,,5,9,59,5,,,,,,,AFSA07.jpg,AFSA14.jpg,AFNE04.jpg,AFNE12.jpg,AFSA07.jpg,FS,4,num_8,32,num_4,0.633466771804,,,2017_Jun_05_1558,59.9988261095,FEMA4ImagesEEG,001,100446,
,,,,,,,,,,,,,,,,,,,,,,,,,,,,,,,,,,,,,,,,,,,space,13.9656997535,2017_Jun_05_1558,59.9988261095,FEMA4ImagesEEG,001,100446,
AFNE01.JPG,AFNE01.JPG,AFNE01.JPG,AFNE01.JPG,AFNE01.JPG,AFNE01.JPG,,,,,,,,,,,,,,,,,,,,,0,0,0,9,,,AMSA01.jpg,AMSA13.jpg,AMNE07.jpg,AMNE09.jpg,AMSA13.jpg,MS,2,num_6,32,num_4,0.883437985322,,,2017_Jun_05_1558,59.9988261095,FEMA4ImagesEEG,001,100446,
AFNE01.JPG,AFNE01.JPG,AFNE01.JPG,AFNE01.JPG,AFNE01.JPG,AFNE01.JPG,,,,,,,,,,,,,,,,,,,,,0,1,1,2,,,AMNE12.jpg,AMSA05.jpg,AMNE13.jpg,AMSA01.jpg,AMSA01.jpg,MS,2,num_4,16,num_4,0.400164732011,,,2017_Jun_05_1558,59.9988261095,FEMA4ImagesEEG,001,100446,
AFNE01.JPG,AFNE01.JPG,AFNE01.JPG,AFNE01.JPG,AFNE01.JPG,AFNE01.JPG,,,,,,,,,,,,,,,,,,,,,0,2,2,6,,,AMSA11.jpg,AMNE16.jpg,AMSA08.jpg,AMNE11.jpg,AMSA11.jpg,MS,2,num_8,16,num_8,0.583320691017,,,2017_Jun_05_1558,59.9988261095,FEMA4ImagesEEG,001,100446,
AFNE01.JPG,AFNE01.JPG,AFNE01.JPG,AFNE01.JPG,AFNE01.JPG,AFNE01.JPG,,,,,,,,,,,,,,,,,,,,,0,3,3,7,,,AMSA13.jpg,AMSA11.jpg,AMNE10.jpg,AMNE05.jpg,AMSA11.jpg,MS,2,num_6,16,num_6,1.00010616495,,,2017_Jun_05_1558,59.9988261095,FEMA4ImagesEEG,001,100446,
AFNE01.JPG,AFNE01.JPG,AFNE01.JPG,AFNE01.JPG,AFNE01.JPG,AFNE01.JPG,,,,,,,,,,,,,,,,,,,,,0,4,4,0,,,AMSA11.jpg,AMSA15.jpg,AMNE18.jpg,AMNE06.jpg,AMNE18.jpg,MN,1,num_2,32,num_4,0.666789403185,,,2017_Jun_05_1558,59.9988261095,FEMA4ImagesEEG,001,100446,
AFNE01.JPG,AFNE01.JPG,AFNE01.JPG,AFNE01.JPG,AFNE01.JPG,AFNE01.JPG,,,,,,,,,,,,,,,,,,,,,0,5,5,1,,,AMSA02.jpg,AMSA14.jpg,AMNE06.jpg,AMNE19.jpg,AMSA02.jpg,MS,2,num_8,16,num_8,0.533517801668,,,2017_Jun_05_1558,59.9988261095,FEMA4ImagesEEG,001,100446,
AFNE01.JPG,AFNE01.JPG,AFNE01.JPG,AFNE01.JPG,AFNE01.JPG,AFNE01.JPG,,,,,,,,,,,,,,,,,,,,,0,6,6,5,,,AMSA16.jpg,AMNE14.jpg,AMSA17.jpg,AMNE09.jpg,AMNE09.jpg,MN,1,num_4,16,num_4,0.666814741446,,,2017_Jun_05_1558,59.9988261095,FEMA4ImagesEEG,001,100446,
AFNE01.JPG,AFNE01.JPG,AFNE01.JPG,AFNE01.JPG,AFNE01.JPG,AFNE01.JPG,,,,,,,,,,,,,,,,,,,,,0,7,7,3,,,AMSA15.jpg,AMNE04.jpg,AMNE09.jpg,AMSA19.jpg,AMSA19.jpg,MS,2,num_4,32,num_6,0.683519517537,,,2017_Jun_05_1558,59.9988261095,FEMA4ImagesEEG,001,100446,
AFNE01.JPG,AFNE01.JPG,AFNE01.JPG,AFNE01.JPG,AFNE01.JPG,AFNE01.JPG,,,,,,,,,,,,,,,,,,,,,0,8,8,4,,,AMNE01.jpg,AMNE20.jpg,AMSA08.jpg,AMSA04.jpg,AMNE01.jpg,MN,1,num_8,16,num_8,0.71679339651,,,2017_Jun_05_1558,59.9988261095,FEMA4ImagesEEG,001,100446,
AFNE01.JPG,AFNE01.JPG,AFNE01.JPG,AFNE01.JPG,AFNE01.JPG,AFNE01.JPG,,,,,,,,,,,,,,,,,,,,,0,9,9,8,,,AMSA13.jpg,AMNE07.jpg,AMNE03.jpg,AMSA14.jpg,AMSA13.jpg,MS,2,num_8,16,num_8,0.550130525138,,,2017_Jun_05_1558,59.9988261095,FEMA4ImagesEEG,001,100446,
AFNE01.JPG,AFNE01.JPG,AFNE01.JPG,AFNE01.JPG,AFNE01.JPG,AFNE01.JPG,,,,,,,,,,,,,,,,,,,,,1,0,10,2,,,AMSA14.jpg,AMNE03.jpg,AMSA08.jpg,AMNE04.jpg,AMNE03.jpg,MN,1,num_6,32,num_4,0.816777647939,,,2017_Jun_05_1558,59.9988261095,FEMA4ImagesEEG,001,100446,
AFNE01.JPG,AFNE01.JPG,AFNE01.JPG,AFNE01.JPG,AFNE01.JPG,AFNE01.JPG,,,,,,,,,,,,,,,,,,,,,1,1,11,1,,,AMSA07.jpg,AMNE16.jpg,AMNE11.jpg,AMSA04.jpg,AMNE16.jpg,MN,1,num_6,16,num_6,1.00016518123,,,2017_Jun_05_1558,59.9988261095,FEMA4ImagesEEG,001,100446,
AFNE01.JPG,AFNE01.JPG,AFNE01.JPG,AFNE01.JPG,AFNE01.JPG,AFNE01.JPG,,,,,,,,,,,,,,,,,,,,,1,2,12,7,,,AMSA06.jpg,AMNE01.jpg,AMNE10.jpg,AMSA12.jpg,AMSA06.jpg,MS,2,num_8,16,num_8,1.20008846,,,2017_Jun_05_1558,59.9988261095,FEMA4ImagesEEG,001,100446,
AFNE01.JPG,AFNE01.JPG,AFNE01.JPG,AFNE01.JPG,AFNE01.JPG,AFNE01.JPG,,,,,,,,,,,,,,,,,,,,,1,3,13,4,,,AMNE16.jpg,AMNE02.jpg,AMSA17.jpg,AMSA14.jpg,AMNE16.jpg,MN,1,num_8,16,num_8,0.833447463345,,,2017_Jun_05_1558,59.9988261095,FEMA4ImagesEEG,001,100446,
AFNE01.JPG,AFNE01.JPG,AFNE01.JPG,AFNE01.JPG,AFNE01.JPG,AFNE01.JPG,,,,,,,,,,,,,,,,,,,,,1,4,14,5,,,AMSA12.jpg,AMNE07.jpg,AMNE17.jpg,AMSA15.jpg,AMSA15.jpg,MS,2,num_4,16,num_4,0.916785313748,,,2017_Jun_05_1558,59.9988261095,FEMA4ImagesEEG,001,100446,
AFNE01.JPG,AFNE01.JPG,AFNE01.JPG,AFNE01.JPG,AFNE01.JPG,AFNE01.JPG,,,,,,,,,,,,,,,,,,,,,1,5,15,6,,,AMNE10.jpg,AMNE04.jpg,AMSA13.jpg,AMSA10.jpg,AMSA13.jpg,MS,2,num_2,16,num_2,0.799977291608,,,2017_Jun_05_1558,59.9988261095,FEMA4ImagesEEG,001,100446,
AFNE01.JPG,AFNE01.JPG,AFNE01.JPG,AFNE01.JPG,AFNE01.JPG,AFNE01.JPG,,,,,,,,,,,,,,,,,,,,,1,6,16,3,,,AMSA14.jpg,AMNE16.jpg,AMSA15.jpg,AMNE20.jpg,AMSA15.jpg,MS,2,num_2,32,num_4,0.650177000323,,,2017_Jun_05_1558,59.9988261095,FEMA4ImagesEEG,001,100446,
AFNE01.JPG,AFNE01.JPG,AFNE01.JPG,AFNE01.JPG,AFNE01.JPG,AFNE01.JPG,,,,,,,,,,,,,,,,,,,,,1,7,17,9,,,AMNE06.jpg,AMSA18.jpg,AMNE02.jpg,AMSA19.jpg,AMSA18.jpg,MS,2,num_6,16,num_6,1.25012901751,,,2017_Jun_05_1558,59.9988261095,FEMA4ImagesEEG,001,100446,
AFNE01.JPG,AFNE01.JPG,AFNE01.JPG,AFNE01.JPG,AFNE01.JPG,AFNE01.JPG,,,,,,,,,,,,,,,,,,,,,1,8,18,8,,,AMNE02.jpg,AMNE01.jpg,AMSA19.jpg,AMSA08.jpg,AMSA19.jpg,MS,2,num_2,32,num_8,1.29997296142,,,2017_Jun_05_1558,59.9988261095,FEMA4ImagesEEG,001,100446,
AFNE01.JPG,AFNE01.JPG,AFNE01.JPG,AFNE01.JPG,AFNE01.JPG,AFNE01.JPG,,,,,,,,,,,,,,,,,,,,,1,9,19,0,,,AMNE16.jpg,AMNE03.jpg,AMSA18.jpg,AMSA02.jpg,AMSA18.jpg,MS,2,num_2,16,num_2,0.650160963181,,,2017_Jun_05_1558,59.9988261095,FEMA4ImagesEEG,001,100446,
AFNE01.JPG,AFNE01.JPG,AFNE01.JPG,AFNE01.JPG,AFNE01.JPG,AFNE01.JPG,,,,,,,,,,,,,,,,,,,,,2,0,20,5,,,AMSA08.jpg,AMNE09.jpg,AMNE02.jpg,AMSA19.jpg,AMSA08.jpg,MS,2,num_8,32,num_2,1.55007952754,,,2017_Jun_05_1558,59.9988261095,FEMA4ImagesEEG,001,100446,
AFNE01.JPG,AFNE01.JPG,AFNE01.JPG,AFNE01.JPG,AFNE01.JPG,AFNE01.JPG,,,,,,,,,,,,,,,,,,,,,2,1,21,7,,,AMNE07.jpg,AMSA08.jpg,AMSA11.jpg,AMNE14.jpg,AMNE14.jpg,MN,1,num_4,16,num_4,0.600132914726,,,2017_Jun_05_1558,59.9988261095,FEMA4ImagesEEG,001,100446,
AFNE01.JPG,AFNE01.JPG,AFNE01.JPG,AFNE01.JPG,AFNE01.JPG,AFNE01.JPG,,,,,,,,,,,,,,,,,,,,,2,2,22,4,,,AMSA19.jpg,AMNE19.jpg,AMSA05.jpg,AMNE03.jpg,AMSA19.jpg,MS,2,num_8,16,num_8,0.783448602073,,,2017_Jun_05_1558,59.9988261095,FEMA4ImagesEEG,001,100446,
AFNE01.JPG,AFNE01.JPG,AFNE01.JPG,AFNE01.JPG,AFNE01.JPG,AFNE01.JPG,,,,,,,,,,,,,,,,,,,,,2,3,23,8,,,AMNE09.jpg,AMSA12.jpg,AMNE05.jpg,AMSA10.jpg,AMSA12.jpg,MS,2,num_6,16,num_6,0.700153730577,,,2017_Jun_05_1558,59.9988261095,FEMA4ImagesEEG,001,100446,
AFNE01.JPG,AFNE01.JPG,AFNE01.JPG,AFNE01.JPG,AFNE01.JPG,AFNE01.JPG,,,,,,,,,,,,,,,,,,,,,2,4,24,2,,,AMSA10.jpg,AMNE07.jpg,AMNE16.jpg,AMSA08.jpg,AMNE07.jpg,MN,1,num_6,16,num_6,0.683533950942,,,2017_Jun_05_1558,59.9988261095,FEMA4ImagesEEG,001,100446,
AFNE01.JPG,AFNE01.JPG,AFNE01.JPG,AFNE01.JPG,AFNE01.JPG,AFNE01.JPG,,,,,,,,,,,,,,,,,,,,,2,5,25,3,,,AMNE01.jpg,AMSA07.jpg,AMSA06.jpg,AMNE14.jpg,AMSA06.jpg,MS,2,num_2,32,num_8,1.10005000327,,,2017_Jun_05_1558,59.9988261095,FEMA4ImagesEEG,001,100446,
AFNE01.JPG,AFNE01.JPG,AFNE01.JPG,AFNE01.JPG,AFNE01.JPG,AFNE01.JPG,,,,,,,,,,,,,,,,,,,,,2,6,26,9,,,AMNE03.jpg,AMNE18.jpg,AMSA11.jpg,AMSA08.jpg,AMSA08.jpg,MS,2,num_4,16,num_4,0.533469369635,,,2017_Jun_05_1558,59.9988261095,FEMA4ImagesEEG,001,100446,
AFNE01.JPG,AFNE01.JPG,AFNE01.JPG,AFNE01.JPG,AFNE01.JPG,AFNE01.JPG,,,,,,,,,,,,,,,,,,,,,2,7,27,6,,,AMNE15.jpg,AMSA01.jpg,AMNE12.jpg,AMSA20.jpg,AMSA01.jpg,MS,2,num_6,16,num_6,0.466844955226,,,2017_Jun_05_1558,59.9988261095,FEMA4ImagesEEG,001,100446,
AFNE01.JPG,AFNE01.JPG,AFNE01.JPG,AFNE01.JPG,AFNE01.JPG,AFNE01.JPG,,,,,,,,,,,,,,,,,,,,,2,8,28,1,,,AMNE10.jpg,AMSA10.jpg,AMNE20.jpg,AMSA02.jpg,AMSA02.jpg,MS,2,num_4,16,num_4,0.983438594732,,,2017_Jun_05_1558,59.9988261095,FEMA4ImagesEEG,001,100446,
AFNE01.JPG,AFNE01.JPG,AFNE01.JPG,AFNE01.JPG,AFNE01.JPG,AFNE01.JPG,,,,,,,,,,,,,,,,,,,,,2,9,29,0,,,AMSA07.jpg,AMNE16.jpg,AMNE08.jpg,AMSA05.jpg,AMSA05.jpg,MS,2,num_4,16,num_4,0.516765235225,,,2017_Jun_05_1558,59.9988261095,FEMA4ImagesEEG,001,100446,
AFNE01.JPG,AFNE01.JPG,AFNE01.JPG,AFNE01.JPG,AFNE01.JPG,AFNE01.JPG,,,,,,,,,,,,,,,,,,,,,3,0,30,4,,,AMSA09.jpg,AMNE18.jpg,AMNE11.jpg,AMSA17.jpg,AMNE11.jpg,MN,1,num_2,32,num_8,1.13344544265,,,2017_Jun_05_1558,59.9988261095,FEMA4ImagesEEG,001,100446,
AFNE01.JPG,AFNE01.JPG,AFNE01.JPG,AFNE01.JPG,AFNE01.JPG,AFNE01.JPG,,,,,,,,,,,,,,,,,,,,,3,1,31,0,,,AMSA09.jpg,AMNE04.jpg,AMSA07.jpg,AMNE05.jpg,AMSA07.jpg,MS,2,num_2,32,num_4,0.900101385778,,,2017_Jun_05_1558,59.9988261095,FEMA4ImagesEEG,001,100446,
AFNE01.JPG,AFNE01.JPG,AFNE01.JPG,AFNE01.JPG,AFNE01.JPG,AFNE01.JPG,,,,,,,,,,,,,,,,,,,,,3,2,32,6,,,AMSA08.jpg,AMNE14.jpg,AMNE07.jpg,AMSA09.jpg,AMSA08.jpg,MS,2,num_8,32,num_4,0.666596638504,,,2017_Jun_05_1558,59.9988261095,FEMA4ImagesEEG,001,100446,
AFNE01.JPG,AFNE01.JPG,AFNE01.JPG,AFNE01.JPG,AFNE01.JPG,AFNE01.JPG,,,,,,,,,,,,,,,,,,,,,3,3,33,3,,,AMNE06.jpg,AMNE04.jpg,AMSA12.jpg,AMSA01.jpg,AMSA01.jpg,MS,2,num_4,16,num_4,0.450167121366,,,2017_Jun_05_1558,59.9988261095,FEMA4ImagesEEG,001,100446,
AFNE01.JPG,AFNE01.JPG,AFNE01.JPG,AFNE01.JPG,AFNE01.JPG,AFNE01.JPG,,,,,,,,,,,,,,,,,,,,,3,4,34,9,,,AMSA12.jpg,AMNE19.jpg,AMNE14.jpg,AMSA09.jpg,AMSA12.jpg,MS,2,num_8,32,num_4,0.816775082145,,,2017_Jun_05_1558,59.9988261095,FEMA4ImagesEEG,001,100446,
AFNE01.JPG,AFNE01.JPG,AFNE01.JPG,AFNE01.JPG,AFNE01.JPG,AFNE01.JPG,,,,,,,,,,,,,,,,,,,,,3,5,35,1,,,AMNE04.jpg,AMSA15.jpg,AMNE19.jpg,AMSA02.jpg,AMSA02.jpg,MS,2,num_4,16,num_4,0.533492142335,,,2017_Jun_05_1558,59.9988261095,FEMA4ImagesEEG,001,100446,
AFNE01.JPG,AFNE01.JPG,AFNE01.JPG,AFNE01.JPG,AFNE01.JPG,AFNE01.JPG,,,,,,,,,,,,,,,,,,,,,3,6,36,2,,,AMNE15.jpg,AMSA18.jpg,AMSA20.jpg,AMNE07.jpg,AMNE15.jpg,MN,1,num_8,32,num_4,0.766816313379,,,2017_Jun_05_1558,59.9988261095,FEMA4ImagesEEG,001,100446,
AFNE01.JPG,AFNE01.JPG,AFNE01.JPG,AFNE01.JPG,AFNE01.JPG,AFNE01.JPG,,,,,,,,,,,,,,,,,,,,,3,7,37,5,,,AMSA01.jpg,AMNE03.jpg,AMSA17.jpg,AMNE10.jpg,AMSA17.jpg,MS,2,num_2,32,num_8,0.766735486919,,,2017_Jun_05_1558,59.9988261095,FEMA4ImagesEEG,001,100446,
AFNE01.JPG,AFNE01.JPG,AFNE01.JPG,AFNE01.JPG,AFNE01.JPG,AFNE01.JPG,,,,,,,,,,,,,,,,,,,,,3,8,38,8,,,AMNE12.jpg,AMNE01.jpg,AMSA20.jpg,AMSA16.jpg,AMSA16.jpg,MS,2,num_4,32,num_2,1.05011881818,,,2017_Jun_05_1558,59.9988261095,FEMA4ImagesEEG,001,100446,
