IPosition2,IPosition3,IPosition1,IPosition6,IPosition4,IPosition5,TrialsM1.thisRepN,TrialsM1.thisTrialN,TrialsM1.thisN,TrialsM1.thisIndex,TrialsF1.thisRepN,TrialsF1.thisTrialN,TrialsF1.thisN,TrialsF1.thisIndex,TrialsM2.thisRepN,TrialsM2.thisTrialN,TrialsM2.thisN,TrialsM2.thisIndex,TrialsF2.thisRepN,TrialsF2.thisTrialN,TrialsF2.thisN,TrialsF2.thisIndex,TrialsM3.thisRepN,TrialsM3.thisTrialN,TrialsM3.thisN,TrialsM3.thisIndex,TrialsF3.thisRepN,TrialsF3.thisTrialN,TrialsF3.thisN,TrialsF3.thisIndex,InstrKey_resp.keys,InstrKey_resp.rt,Image0 _Position,Image1 _Position,Image2 _Position,Image3 _Position,Center_image,condition,code,correct_answer,accuracy,Key_Resp.keys,Key_Resp.rt,BreakKey_resp.keys,BreakKey_resp.rt,date,frameRate,expName,session,participant,
,,,,,,,,,,,,,,,,,,,,,,,,,,,,,,space,23.4320188698,,,,,,,,,,,,,,2017_May_09_1919,60.0038298242,MAFE4ImagesEEG,001,100442,
AFSA21.JPG,AFNE22.JPG,AFNE21.JPG,AFSA23.JPG,AFSA22.JPG,AFNE23.JPG,0,0,0,0,,,,,,,,,,,,,,,,,,,,,,,AMSA19.jpg,AMSA02.jpg,AMNE03.jpg,AMNE16.jpg,AMSA19.jpg,MS,2,num_8,32,num_4,2.24997217581,,,2017_May_09_1919,60.0038298242,MAFE4ImagesEEG,001,100442,
AFSA21.JPG,AFNE23.JPG,AFNE21.JPG,AFSA25.JPG,AFNE25.JPG,AFSA23.JPG,0,1,1,4,,,,,,,,,,,,,,,,,,,,,,,AMNE13.jpg,AMSA15.jpg,AMNE07.jpg,AMSA02.jpg,AMNE07.jpg,MN,1,num_2,32,num_6,1.2335041482,,,2017_May_09_1919,60.0038298242,MAFE4ImagesEEG,001,100442,
AMSA21.JPG,AMNE22.JPG,AMNE21.JPG,AMSA23.JPG,AMSA22.JPG,AMNE23.JPG,0,2,2,1,,,,,,,,,,,,,,,,,,,,,,,AMSA12.jpg,AMSA13.jpg,AMNE13.jpg,AMNE07.jpg,AMSA12.jpg,MS,2,num_8,32,num_4,1.71679123631,,,2017_May_09_1919,60.0038298242,MAFE4ImagesEEG,001,100442,
AFNE23.JPG,AFNE24.JPG,AFNE22.JPG,AFSA24.JPG,AFSA22.JPG,AFSA23.JPG,0,3,3,8,,,,,,,,,,,,,,,,,,,,,,,AMNE13.jpg,AMSA13.jpg,AMSA08.jpg,AMNE15.jpg,AMSA13.jpg,MS,2,num_6,16,num_6,1.73336927732,,,2017_May_09_1919,60.0038298242,MAFE4ImagesEEG,001,100442,
AMSA25.JPG,AMNE24.JPG,AMSA24.JPG,AMNE26.JPG,AMSA21.JPG,AMNE25.JPG,0,4,4,3,,,,,,,,,,,,,,,,,,,,,,,AMSA13.jpg,AMSA06.jpg,AMNE19.jpg,AMNE07.jpg,AMNE07.jpg,MN,1,num_4,16,num_4,0.866467017215,,,2017_May_09_1919,60.0038298242,MAFE4ImagesEEG,001,100442,
AMNE23.JPG,AMNE24.JPG,AMNE22.JPG,AMSA24.JPG,AMSA22.JPG,AMSA23.JPG,0,5,5,9,,,,,,,,,,,,,,,,,,,,,,,AMSA13.jpg,AMNE14.jpg,AMSA07.jpg,AMNE18.jpg,AMSA07.jpg,MS,2,num_2,16,num_2,1.73344689631,,,2017_May_09_1919,60.0038298242,MAFE4ImagesEEG,001,100442,
AMSA21.JPG,AMNE23.JPG,AMNE21.JPG,AMSA25.JPG,AMNE25.JPG,AMSA23.JPG,0,6,6,5,,,,,,,,,,,,,,,,,,,,,,,AMSA19.jpg,AMSA12.jpg,AMNE09.jpg,AMNE02.jpg,AMSA12.jpg,MS,2,num_6,32,num_4,1.21675547399,,,2017_May_09_1919,60.0038298242,MAFE4ImagesEEG,001,100442,
AFNE22.JPG,AFSA24.JPG,AFSA22.JPG,AFNE25.JPG,AFNE24.JPG,AFSA25.JPG,0,7,7,6,,,,,,,,,,,,,,,,,,,,,,,AMNE16.jpg,AMSA06.jpg,AMSA14.jpg,AMNE05.jpg,AMNE16.jpg,MN,1,num_8,32,num_6,0.917010365287,,,2017_May_09_1919,60.0038298242,MAFE4ImagesEEG,001,100442,
AFSA25.JPG,AFNE24.JPG,AFSA24.JPG,AFNE21.JPG,AFSA21.JPG,AFNE25.JPG,0,8,8,2,,,,,,,,,,,,,,,,,,,,,,,AMSA11.jpg,AMNE05.jpg,AMNE03.jpg,AMSA04.jpg,AMSA11.jpg,MS,2,num_8,32,num_4,2.36670131702,,,2017_May_09_1919,60.0038298242,MAFE4ImagesEEG,001,100442,
AMNE22.JPG,AMSA24.JPG,AMSA22.JPG,AMNE25.JPG,AMNE24.JPG,AMSA25.JPG,0,9,9,7,,,,,,,,,,,,,,,,,,,,,,,AMSA09.jpg,AMNE11.jpg,AMNE19.jpg,AMSA16.jpg,AMNE19.jpg,MN,1,num_2,32,num_6,1.2833954338,,,2017_May_09_1919,60.0038298242,MAFE4ImagesEEG,001,100442,
AFNE23.JPG,AFNE24.JPG,AFNE22.JPG,AFSA24.JPG,AFSA22.JPG,AFSA23.JPG,,,,,0,0,0,8,,,,,,,,,,,,,,,,,,,AFSA20.jpg,AFSA09.jpg,AFNE05.jpg,AFNE02.jpg,AFSA20.jpg,FS,4,num_8,32,num_2,1.40016498812,,,2017_May_09_1919,60.0038298242,MAFE4ImagesEEG,001,100442,
AFSA21.JPG,AFNE23.JPG,AFNE21.JPG,AFSA25.JPG,AFNE25.JPG,AFSA23.JPG,,,,,0,1,1,4,,,,,,,,,,,,,,,,,,,AFNE11.jpg,AFSA05.jpg,AFSA19.jpg,AFNE17.jpg,AFSA05.jpg,FS,4,num_6,32,num_4,1.90007020975,,,2017_May_09_1919,60.0038298242,MAFE4ImagesEEG,001,100442,
AFNE22.JPG,AFSA24.JPG,AFSA22.JPG,AFNE25.JPG,AFNE24.JPG,AFSA25.JPG,,,,,0,2,2,6,,,,,,,,,,,,,,,,,,,AFNE10.jpg,AFNE04.jpg,AFSA12.jpg,AFSA17.jpg,AFNE04.jpg,FN,3,num_6,16,num_6,1.23340985086,,,2017_May_09_1919,60.0038298242,MAFE4ImagesEEG,001,100442,
AMSA21.JPG,AMNE22.JPG,AMNE21.JPG,AMSA23.JPG,AMSA22.JPG,AMNE23.JPG,,,,,0,3,3,1,,,,,,,,,,,,,,,,,,,AFSA01.jpg,AFNE13.jpg,AFSA15.jpg,AFNE07.jpg,AFSA01.jpg,FS,4,num_8,32,num_4,1.53341058875,,,2017_May_09_1919,60.0038298242,MAFE4ImagesEEG,001,100442,
AFSA25.JPG,AFNE24.JPG,AFSA24.JPG,AFNE21.JPG,AFSA21.JPG,AFNE25.JPG,,,,,0,4,4,2,,,,,,,,,,,,,,,,,,,AFSA18.jpg,AFNE03.jpg,AFNE01.jpg,AFSA15.jpg,AFNE03.jpg,FN,3,num_6,16,num_6,1.18314618734,,,2017_May_09_1919,60.0038298242,MAFE4ImagesEEG,001,100442,
AMSA25.JPG,AMNE24.JPG,AMSA24.JPG,AMNE26.JPG,AMSA21.JPG,AMNE25.JPG,,,,,0,5,5,3,,,,,,,,,,,,,,,,,,,AFNE11.jpg,AFNE06.jpg,AFSA18.jpg,AFSA09.jpg,AFNE06.jpg,FN,3,num_6,32,num_4,1.53336953395,,,2017_May_09_1919,60.0038298242,MAFE4ImagesEEG,001,100442,
AMNE22.JPG,AMSA24.JPG,AMSA22.JPG,AMNE25.JPG,AMNE24.JPG,AMSA25.JPG,,,,,0,6,6,7,,,,,,,,,,,,,,,,,,,AFSA20.jpg,AFNE16.jpg,AFNE02.jpg,AFSA18.jpg,AFNE16.jpg,FN,3,num_6,16,num_6,0.966756356182,,,2017_May_09_1919,60.0038298242,MAFE4ImagesEEG,001,100442,
AFSA21.JPG,AFNE22.JPG,AFNE21.JPG,AFSA23.JPG,AFSA22.JPG,AFNE23.JPG,,,,,0,7,7,0,,,,,,,,,,,,,,,,,,,AFSA11.jpg,AFNE11.jpg,AFNE07.jpg,AFSA14.jpg,AFNE07.jpg,FN,3,num_2,32,num_4,1.00009429734,,,2017_May_09_1919,60.0038298242,MAFE4ImagesEEG,001,100442,
AMNE23.JPG,AMNE24.JPG,AMNE22.JPG,AMSA24.JPG,AMSA22.JPG,AMSA23.JPG,,,,,0,8,8,9,,,,,,,,,,,,,,,,,,,AFNE12.jpg,AFSA19.jpg,AFSA09.jpg,AFNE11.jpg,AFNE11.jpg,FN,3,num_4,32,num_6,1.28354137018,,,2017_May_09_1919,60.0038298242,MAFE4ImagesEEG,001,100442,
AMSA21.JPG,AMNE23.JPG,AMNE21.JPG,AMSA25.JPG,AMNE25.JPG,AMSA23.JPG,,,,,0,9,9,5,,,,,,,,,,,,,,,,,,,AFNE13.jpg,AFSA10.jpg,AFSA11.jpg,AFNE12.jpg,AFSA10.jpg,FS,4,num_6,32,num_4,1.26671635988,,,2017_May_09_1919,60.0038298242,MAFE4ImagesEEG,001,100442,
AFSA25.JPG,AFNE24.JPG,AFSA24.JPG,AFNE21.JPG,AFSA21.JPG,AFNE25.JPG,,,,,,,,,0,0,0,2,,,,,,,,,,,,,,,AMSA07.jpg,AMSA11.jpg,AMNE02.jpg,AMNE11.jpg,AMSA11.jpg,MS,2,num_6,32,num_8,1.91670598392,,,2017_May_09_1919,60.0038298242,MAFE4ImagesEEG,001,100442,
AMSA21.JPG,AMNE22.JPG,AMNE21.JPG,AMSA23.JPG,AMSA22.JPG,AMNE23.JPG,,,,,,,,,0,1,1,1,,,,,,,,,,,,,,,AMSA10.jpg,AMNE09.jpg,AMSA20.jpg,AMNE14.jpg,AMNE14.jpg,MN,1,num_4,16,num_4,1.58337532333,,,2017_May_09_1919,60.0038298242,MAFE4ImagesEEG,001,100442,
AFSA21.JPG,AFNE22.JPG,AFNE21.JPG,AFSA23.JPG,AFSA22.JPG,AFNE23.JPG,,,,,,,,,0,2,2,0,,,,,,,,,,,,,,,AMSA12.jpg,AMSA09.jpg,AMNE09.jpg,AMNE19.jpg,AMNE19.jpg,MN,1,num_4,32,num_6,0.916748642223,,,2017_May_09_1919,60.0038298242,MAFE4ImagesEEG,001,100442,
AFNE23.JPG,AFNE24.JPG,AFNE22.JPG,AFSA24.JPG,AFSA22.JPG,AFSA23.JPG,,,,,,,,,0,3,3,8,,,,,,,,,,,,,,,AMSA15.jpg,AMNE06.jpg,AMSA02.jpg,AMNE13.jpg,AMSA02.jpg,MS,2,num_2,16,num_2,1.48342532665,,,2017_May_09_1919,60.0038298242,MAFE4ImagesEEG,001,100442,
AFSA21.JPG,AFNE23.JPG,AFNE21.JPG,AFSA25.JPG,AFNE25.JPG,AFSA23.JPG,,,,,,,,,0,4,4,4,,,,,,,,,,,,,,,AMSA15.jpg,AMNE04.jpg,AMSA08.jpg,AMNE09.jpg,AMNE04.jpg,MN,1,num_6,16,num_6,0.666762033012,,,2017_May_09_1919,60.0038298242,MAFE4ImagesEEG,001,100442,
AMNE22.JPG,AMSA24.JPG,AMSA22.JPG,AMNE25.JPG,AMNE24.JPG,AMSA25.JPG,,,,,,,,,0,5,5,7,,,,,,,,,,,,,,,AMNE18.jpg,AMSA12.jpg,AMNE12.jpg,AMSA20.jpg,AMNE12.jpg,MN,1,num_2,32,num_4,0.816676764516,,,2017_May_09_1919,60.0038298242,MAFE4ImagesEEG,001,100442,
AMSA21.JPG,AMNE23.JPG,AMNE21.JPG,AMSA25.JPG,AMNE25.JPG,AMSA23.JPG,,,,,,,,,0,6,6,5,,,,,,,,,,,,,,,AMNE18.jpg,AMNE09.jpg,AMSA08.jpg,AMSA11.jpg,AMSA11.jpg,MS,2,num_4,32,num_2,1.28345060069,,,2017_May_09_1919,60.0038298242,MAFE4ImagesEEG,001,100442,
AFNE22.JPG,AFSA24.JPG,AFSA22.JPG,AFNE25.JPG,AFNE24.JPG,AFSA25.JPG,,,,,,,,,0,7,7,6,,,,,,,,,,,,,,,AMNE13.jpg,AMNE18.jpg,AMSA06.jpg,AMSA15.jpg,AMSA06.jpg,MS,2,num_2,32,num_4,1.08347555436,,,2017_May_09_1919,60.0038298242,MAFE4ImagesEEG,001,100442,
AMNE23.JPG,AMNE24.JPG,AMNE22.JPG,AMSA24.JPG,AMSA22.JPG,AMSA23.JPG,,,,,,,,,0,8,8,9,,,,,,,,,,,,,,,AMNE18.jpg,AMNE06.jpg,AMSA17.jpg,AMSA03.jpg,AMNE06.jpg,MN,1,num_6,32,num_4,1.38342369092,,,2017_May_09_1919,60.0038298242,MAFE4ImagesEEG,001,100442,
AMSA25.JPG,AMNE24.JPG,AMSA24.JPG,AMNE26.JPG,AMSA21.JPG,AMNE25.JPG,,,,,,,,,0,9,9,3,,,,,,,,,,,,,,,AMSA14.jpg,AMNE01.jpg,AMSA02.jpg,AMNE16.jpg,AMSA02.jpg,MS,2,num_2,32,num_6,0.816781004891,,,2017_May_09_1919,60.0038298242,MAFE4ImagesEEG,001,100442,
AMSA21.JPG,AMNE23.JPG,AMNE21.JPG,AMSA25.JPG,AMNE25.JPG,AMSA23.JPG,,,,,,,,,,,,,0,0,0,5,,,,,,,,,,,AFNE17.jpg,AFNE01.jpg,AFSA20.jpg,AFSA19.jpg,AFNE01.jpg,FN,3,num_6,32,num_4,0.983393733855,,,2017_May_09_1919,60.0038298242,MAFE4ImagesEEG,001,100442,
AFSA21.JPG,AFNE22.JPG,AFNE21.JPG,AFSA23.JPG,AFSA22.JPG,AFNE23.JPG,,,,,,,,,,,,,0,1,1,0,,,,,,,,,,,AFSA20.jpg,AFNE08.jpg,AFSA06.jpg,AFNE18.jpg,AFNE18.jpg,FN,3,num_4,16,num_4,1.48341153469,,,2017_May_09_1919,60.0038298242,MAFE4ImagesEEG,001,100442,
AMNE22.JPG,AMSA24.JPG,AMSA22.JPG,AMNE25.JPG,AMNE24.JPG,AMSA25.JPG,,,,,,,,,,,,,0,2,2,7,,,,,,,,,,,AFNE16.jpg,AFSA09.jpg,AFNE08.jpg,AFSA03.jpg,AFNE08.jpg,FN,3,num_2,32,num_6,1.30009824224,,,2017_May_09_1919,60.0038298242,MAFE4ImagesEEG,001,100442,
AMNE23.JPG,AMNE24.JPG,AMNE22.JPG,AMSA24.JPG,AMSA22.JPG,AMSA23.JPG,,,,,,,,,,,,,0,3,3,9,,,,,,,,,,,AFSA04.jpg,AFSA07.jpg,AFNE17.jpg,AFNE02.jpg,AFNE17.jpg,FN,3,num_2,32,num_4,1.30008862028,,,2017_May_09_1919,60.0038298242,MAFE4ImagesEEG,001,100442,
AFNE22.JPG,AFSA24.JPG,AFSA22.JPG,AFNE25.JPG,AFNE24.JPG,AFSA25.JPG,,,,,,,,,,,,,0,4,4,6,,,,,,,,,,,AFSA16.jpg,AFNE15.jpg,AFSA20.jpg,AFNE16.jpg,AFNE16.jpg,FN,3,num_4,16,num_4,1.26673913235,,,2017_May_09_1919,60.0038298242,MAFE4ImagesEEG,001,100442,
AFNE23.JPG,AFNE24.JPG,AFNE22.JPG,AFSA24.JPG,AFSA22.JPG,AFSA23.JPG,,,,,,,,,,,,,0,5,5,8,,,,,,,,,,,AFNE11.jpg,AFSA04.jpg,AFSA03.jpg,AFNE08.jpg,AFSA03.jpg,FS,4,num_2,16,num_2,1.26641743095,,,2017_May_09_1919,60.0038298242,MAFE4ImagesEEG,001,100442,
AMSA25.JPG,AMNE24.JPG,AMSA24.JPG,AMNE26.JPG,AMSA21.JPG,AMNE25.JPG,,,,,,,,,,,,,0,6,6,3,,,,,,,,,,,AFSA18.jpg,AFNE03.jpg,AFNE11.jpg,AFSA20.jpg,AFNE03.jpg,FN,3,num_6,16,num_6,0.650123693049,,,2017_May_09_1919,60.0038298242,MAFE4ImagesEEG,001,100442,
AMSA21.JPG,AMNE22.JPG,AMNE21.JPG,AMSA23.JPG,AMSA22.JPG,AMNE23.JPG,,,,,,,,,,,,,0,7,7,1,,,,,,,,,,,AFSA16.jpg,AFSA10.jpg,AFNE01.jpg,AFNE17.jpg,AFSA16.jpg,FS,4,num_8,32,num_4,1.16674904316,,,2017_May_09_1919,60.0038298242,MAFE4ImagesEEG,001,100442,
AFSA25.JPG,AFNE24.JPG,AFSA24.JPG,AFNE21.JPG,AFSA21.JPG,AFNE25.JPG,,,,,,,,,,,,,0,8,8,2,,,,,,,,,,,AFNE13.jpg,AFSA07.jpg,AFNE05.jpg,AFSA06.jpg,AFNE13.jpg,FN,3,num_8,32,num_4,1.14974858845,,,2017_May_09_1919,60.0038298242,MAFE4ImagesEEG,001,100442,
AFSA21.JPG,AFNE23.JPG,AFNE21.JPG,AFSA25.JPG,AFNE25.JPG,AFSA23.JPG,,,,,,,,,,,,,0,9,9,4,,,,,,,,,,,AFNE19.jpg,AFSA16.jpg,AFNE13.jpg,AFSA18.jpg,AFNE13.jpg,FN,3,num_2,32,num_8,1.15011391044,,,2017_May_09_1919,60.0038298242,MAFE4ImagesEEG,001,100442,
AFSA21.JPG,AFNE23.JPG,AFNE21.JPG,AFSA25.JPG,AFNE25.JPG,AFSA23.JPG,,,,,,,,,,,,,,,,,0,0,0,4,,,,,,,AMNE19.jpg,AMNE17.jpg,AMSA16.jpg,AMSA19.jpg,AMSA16.jpg,MS,2,num_2,32,num_4,2.01670986484,,,2017_May_09_1919,60.0038298242,MAFE4ImagesEEG,001,100442,
AMSA21.JPG,AMNE22.JPG,AMNE21.JPG,AMSA23.JPG,AMSA22.JPG,AMNE23.JPG,,,,,,,,,,,,,,,,,0,1,1,1,,,,,,,AMNE03.jpg,AMSA05.jpg,AMNE16.jpg,AMSA04.jpg,AMNE03.jpg,MN,1,num_8,16,num_8,1.26677665883,,,2017_May_09_1919,60.0038298242,MAFE4ImagesEEG,001,100442,
AMSA21.JPG,AMNE23.JPG,AMNE21.JPG,AMSA25.JPG,AMNE25.JPG,AMSA23.JPG,,,,,,,,,,,,,,,,,0,2,2,5,,,,,,,AMSA14.jpg,AMNE03.jpg,AMNE04.jpg,AMSA01.jpg,AMNE03.jpg,MN,1,num_6,16,num_6,0.65013780538,,,2017_May_09_1919,60.0038298242,MAFE4ImagesEEG,001,100442,
AMNE22.JPG,AMSA24.JPG,AMSA22.JPG,AMNE25.JPG,AMNE24.JPG,AMSA25.JPG,,,,,,,,,,,,,,,,,0,3,3,7,,,,,,,AMNE10.jpg,AMSA20.jpg,AMSA03.jpg,AMNE12.jpg,AMNE12.jpg,MN,1,num_4,16,num_4,0.71678450075,,,2017_May_09_1919,60.0038298242,MAFE4ImagesEEG,001,100442,
AFSA25.JPG,AFNE24.JPG,AFSA24.JPG,AFNE21.JPG,AFSA21.JPG,AFNE25.JPG,,,,,,,,,,,,,,,,,0,4,4,2,,,,,,,AMSA10.jpg,AMNE06.jpg,AMSA08.jpg,AMNE11.jpg,AMSA10.jpg,MS,2,num_8,32,num_2,2.95031527057,,,2017_May_09_1919,60.0038298242,MAFE4ImagesEEG,001,100442,
AFNE23.JPG,AFNE24.JPG,AFNE22.JPG,AFSA24.JPG,AFSA22.JPG,AFSA23.JPG,,,,,,,,,,,,,,,,,0,5,5,8,,,,,,,AMSA19.jpg,AMSA08.jpg,AMNE16.jpg,AMNE04.jpg,AMNE04.jpg,MN,1,num_4,16,num_4,1.33343586279,,,2017_May_09_1919,60.0038298242,MAFE4ImagesEEG,001,100442,
AFNE22.JPG,AFSA24.JPG,AFSA22.JPG,AFNE25.JPG,AFNE24.JPG,AFSA25.JPG,,,,,,,,,,,,,,,,,0,6,6,6,,,,,,,AMSA05.jpg,AMNE16.jpg,AMSA12.jpg,AMNE19.jpg,AMNE19.jpg,MN,1,num_4,16,num_4,1.05007603113,,,2017_May_09_1919,60.0038298242,MAFE4ImagesEEG,001,100442,
AMNE23.JPG,AMNE24.JPG,AMNE22.JPG,AMSA24.JPG,AMSA22.JPG,AMSA23.JPG,,,,,,,,,,,,,,,,,0,7,7,9,,,,,,,AMSA16.jpg,AMNE19.jpg,AMSA17.jpg,AMNE06.jpg,AMSA16.jpg,MS,2,num_8,16,num_8,1.18346339837,,,2017_May_09_1919,60.0038298242,MAFE4ImagesEEG,001,100442,
AFSA21.JPG,AFNE22.JPG,AFNE21.JPG,AFSA23.JPG,AFSA22.JPG,AFNE23.JPG,,,,,,,,,,,,,,,,,0,8,8,0,,,,,,,AMSA02.jpg,AMNE04.jpg,AMNE07.jpg,AMSA07.jpg,AMSA07.jpg,MS,2,num_4,16,num_4,1.23355097626,,,2017_May_09_1919,60.0038298242,MAFE4ImagesEEG,001,100442,
AMSA25.JPG,AMNE24.JPG,AMSA24.JPG,AMNE26.JPG,AMSA21.JPG,AMNE25.JPG,,,,,,,,,,,,,,,,,0,9,9,3,,,,,,,AMSA14.jpg,AMSA20.jpg,AMNE08.jpg,AMNE13.jpg,AMSA20.jpg,MS,2,num_6,16,num_6,1.10010170634,,,2017_May_09_1919,60.0038298242,MAFE4ImagesEEG,001,100442,
AMSA21.JPG,AMNE22.JPG,AMNE21.JPG,AMSA23.JPG,AMSA22.JPG,AMNE23.JPG,,,,,,,,,,,,,,,,,,,,,0,0,0,1,,,AFNE05.jpg,AFSA10.jpg,AFNE14.jpg,AFSA13.jpg,AFNE14.jpg,FN,3,num_2,32,num_6,1.11689688801,,,2017_May_09_1919,60.0038298242,MAFE4ImagesEEG,001,100442,
AMNE23.JPG,AMNE24.JPG,AMNE22.JPG,AMSA24.JPG,AMSA22.JPG,AMSA23.JPG,,,,,,,,,,,,,,,,,,,,,0,1,1,9,,,AFSA15.jpg,AFNE15.jpg,AFNE17.jpg,AFSA18.jpg,AFSA18.jpg,FS,4,num_4,16,num_4,1.05005967338,,,2017_May_09_1919,60.0038298242,MAFE4ImagesEEG,001,100442,
AFSA21.JPG,AFNE23.JPG,AFNE21.JPG,AFSA25.JPG,AFNE25.JPG,AFSA23.JPG,,,,,,,,,,,,,,,,,,,,,0,2,2,4,,,AFNE17.jpg,AFSA18.jpg,AFNE12.jpg,AFSA09.jpg,AFNE17.jpg,FN,3,num_8,32,num_2,1.10014596838,,,2017_May_09_1919,60.0038298242,MAFE4ImagesEEG,001,100442,
AFNE22.JPG,AFSA24.JPG,AFSA22.JPG,AFNE25.JPG,AFNE24.JPG,AFSA25.JPG,,,,,,,,,,,,,,,,,,,,,0,3,3,6,,,AFNE09.jpg,AFSA12.jpg,AFNE14.jpg,AFSA19.jpg,AFSA12.jpg,FS,4,num_6,16,num_6,0.850179886678,,,2017_May_09_1919,60.0038298242,MAFE4ImagesEEG,001,100442,
AFSA25.JPG,AFNE24.JPG,AFSA24.JPG,AFNE21.JPG,AFSA21.JPG,AFNE25.JPG,,,,,,,,,,,,,,,,,,,,,0,4,4,2,,,AFSA20.jpg,AFNE03.jpg,AFNE14.jpg,AFSA03.jpg,AFSA03.jpg,FS,4,num_4,16,num_4,1.01679004962,,,2017_May_09_1919,60.0038298242,MAFE4ImagesEEG,001,100442,
AMNE22.JPG,AMSA24.JPG,AMSA22.JPG,AMNE25.JPG,AMNE24.JPG,AMSA25.JPG,,,,,,,,,,,,,,,,,,,,,0,5,5,7,,,AFNE14.jpg,AFNE16.jpg,AFSA15.jpg,AFSA16.jpg,AFNE14.jpg,FN,3,num_8,32,num_2,1.10019824863,,,2017_May_09_1919,60.0038298242,MAFE4ImagesEEG,001,100442,
AFNE23.JPG,AFNE24.JPG,AFNE22.JPG,AFSA24.JPG,AFSA22.JPG,AFSA23.JPG,,,,,,,,,,,,,,,,,,,,,0,6,6,8,,,AFSA15.jpg,AFSA20.jpg,AFNE06.jpg,AFNE13.jpg,AFSA20.jpg,FS,4,num_6,16,num_6,0.816883320455,,,2017_May_09_1919,60.0038298242,MAFE4ImagesEEG,001,100442,
AMSA21.JPG,AMNE23.JPG,AMNE21.JPG,AMSA25.JPG,AMNE25.JPG,AMSA23.JPG,,,,,,,,,,,,,,,,,,,,,0,7,7,5,,,AFNE01.jpg,AFSA09.jpg,AFSA20.jpg,AFNE16.jpg,AFSA20.jpg,FS,4,num_2,32,num_4,0.833434098866,,,2017_May_09_1919,60.0038298242,MAFE4ImagesEEG,001,100442,
AMSA25.JPG,AMNE24.JPG,AMSA24.JPG,AMNE26.JPG,AMSA21.JPG,AMNE25.JPG,,,,,,,,,,,,,,,,,,,,,0,8,8,3,,,AFSA01.jpg,AFNE07.jpg,AFNE12.jpg,AFSA09.jpg,AFSA09.jpg,FS,4,num_4,32,num_2,1.1834563422,,,2017_May_09_1919,60.0038298242,MAFE4ImagesEEG,001,100442,
AFSA21.JPG,AFNE22.JPG,AFNE21.JPG,AFSA23.JPG,AFSA22.JPG,AFNE23.JPG,,,,,,,,,,,,,,,,,,,,,0,9,9,0,,,AFNE01.jpg,AFNE11.jpg,AFSA01.jpg,AFSA15.jpg,AFNE11.jpg,FN,3,num_6,32,num_4,1.11707457714,,,2017_May_09_1919,60.0038298242,MAFE4ImagesEEG,001,100442,
,,,,,,,,,,,,,,,,,,,,,,,,,,,,,,,,,,,,,,,,,,,space,10.2826593376,2017_May_09_1919,60.0038298242,MAFE4ImagesEEG,001,100442,
AFNE01.JPG,AFNE01.JPG,AFNE01.JPG,AFNE01.JPG,AFNE01.JPG,AFNE01.JPG,0,0,0,3,,,,,,,,,,,,,,,,,,,,,,,AMNE19.jpg,AMNE01.jpg,AMSA18.jpg,AMSA14.jpg,AMSA18.jpg,MS,2,num_2,32,num_4,1.03342646523,,,2017_May_09_1919,60.0038298242,MAFE4ImagesEEG,001,100442,
AFNE01.JPG,AFNE01.JPG,AFNE01.JPG,AFNE01.JPG,AFNE01.JPG,AFNE01.JPG,0,1,1,5,,,,,,,,,,,,,,,,,,,,,,,AMSA01.jpg,AMNE11.jpg,AMSA08.jpg,AMNE04.jpg,AMSA08.jpg,MS,2,num_2,16,num_2,1.18343421118,,,2017_May_09_1919,60.0038298242,MAFE4ImagesEEG,001,100442,
AFNE01.JPG,AFNE01.JPG,AFNE01.JPG,AFNE01.JPG,AFNE01.JPG,AFNE01.JPG,0,2,2,2,,,,,,,,,,,,,,,,,,,,,,,AMSA08.jpg,AMNE10.jpg,AMNE19.jpg,AMSA19.jpg,AMSA08.jpg,MS,2,num_8,32,num_6,0.96669252892,,,2017_May_09_1919,60.0038298242,MAFE4ImagesEEG,001,100442,
AFNE01.JPG,AFNE01.JPG,AFNE01.JPG,AFNE01.JPG,AFNE01.JPG,AFNE01.JPG,0,3,3,7,,,,,,,,,,,,,,,,,,,,,,,AMSA20.jpg,AMNE06.jpg,AMNE11.jpg,AMSA03.jpg,AMSA03.jpg,MS,2,num_4,16,num_4,1.25005749241,,,2017_May_09_1919,60.0038298242,MAFE4ImagesEEG,001,100442,
AFNE01.JPG,AFNE01.JPG,AFNE01.JPG,AFNE01.JPG,AFNE01.JPG,AFNE01.JPG,0,4,4,1,,,,,,,,,,,,,,,,,,,,,,,AMNE04.jpg,AMSA19.jpg,AMNE13.jpg,AMSA18.jpg,AMSA19.jpg,MS,2,num_6,32,num_2,1.24993625307,,,2017_May_09_1919,60.0038298242,MAFE4ImagesEEG,001,100442,
AFNE01.JPG,AFNE01.JPG,AFNE01.JPG,AFNE01.JPG,AFNE01.JPG,AFNE01.JPG,0,5,5,8,,,,,,,,,,,,,,,,,,,,,,,AMSA01.jpg,AMNE08.jpg,AMNE18.jpg,AMSA13.jpg,AMSA01.jpg,MS,2,num_8,32,num_4,1.16671215836,,,2017_May_09_1919,60.0038298242,MAFE4ImagesEEG,001,100442,
AFNE01.JPG,AFNE01.JPG,AFNE01.JPG,AFNE01.JPG,AFNE01.JPG,AFNE01.JPG,0,6,6,4,,,,,,,,,,,,,,,,,,,,,,,AMSA20.jpg,AMSA17.jpg,AMNE04.jpg,AMNE15.jpg,AMSA17.jpg,MS,2,num_6,16,num_6,1.1667679667,,,2017_May_09_1919,60.0038298242,MAFE4ImagesEEG,001,100442,
AFNE01.JPG,AFNE01.JPG,AFNE01.JPG,AFNE01.JPG,AFNE01.JPG,AFNE01.JPG,0,7,7,9,,,,,,,,,,,,,,,,,,,,,,,AMSA16.jpg,AMSA12.jpg,AMNE13.jpg,AMNE19.jpg,AMNE13.jpg,MN,1,num_2,32,num_4,2.41673084116,,,2017_May_09_1919,60.0038298242,MAFE4ImagesEEG,001,100442,
AFNE01.JPG,AFNE01.JPG,AFNE01.JPG,AFNE01.JPG,AFNE01.JPG,AFNE01.JPG,0,8,8,0,,,,,,,,,,,,,,,,,,,,,,,AMSA11.jpg,AMSA05.jpg,AMNE16.jpg,AMNE17.jpg,AMNE16.jpg,MN,1,num_2,16,num_2,1.76680696872,,,2017_May_09_1919,60.0038298242,MAFE4ImagesEEG,001,100442,
AFNE01.JPG,AFNE01.JPG,AFNE01.JPG,AFNE01.JPG,AFNE01.JPG,AFNE01.JPG,0,9,9,6,,,,,,,,,,,,,,,,,,,,,,,AMSA19.jpg,AMSA17.jpg,AMNE16.jpg,AMNE05.jpg,AMSA19.jpg,MS,2,num_8,32,num_2,1.48326784372,,,2017_May_09_1919,60.0038298242,MAFE4ImagesEEG,001,100442,
AFNE01.JPG,AFNE01.JPG,AFNE01.JPG,AFNE01.JPG,AFNE01.JPG,AFNE01.JPG,1,0,10,8,,,,,,,,,,,,,,,,,,,,,,,AMNE06.jpg,AMSA17.jpg,AMNE01.jpg,AMSA20.jpg,AMNE01.jpg,MN,1,num_2,32,num_4,1.11674614041,,,2017_May_09_1919,60.0038298242,MAFE4ImagesEEG,001,100442,
AFNE01.JPG,AFNE01.JPG,AFNE01.JPG,AFNE01.JPG,AFNE01.JPG,AFNE01.JPG,1,1,11,7,,,,,,,,,,,,,,,,,,,,,,,AMNE18.jpg,AMSA17.jpg,AMNE06.jpg,AMSA09.jpg,AMSA17.jpg,MS,2,num_6,32,num_8,1.30007322482,,,2017_May_09_1919,60.0038298242,MAFE4ImagesEEG,001,100442,
AFNE01.JPG,AFNE01.JPG,AFNE01.JPG,AFNE01.JPG,AFNE01.JPG,AFNE01.JPG,1,2,12,4,,,,,,,,,,,,,,,,,,,,,,,AMSA10.jpg,AMNE06.jpg,AMSA20.jpg,AMNE07.jpg,AMNE06.jpg,MN,1,num_6,16,num_6,1.03342422005,,,2017_May_09_1919,60.0038298242,MAFE4ImagesEEG,001,100442,
AFNE01.JPG,AFNE01.JPG,AFNE01.JPG,AFNE01.JPG,AFNE01.JPG,AFNE01.JPG,1,3,13,9,,,,,,,,,,,,,,,,,,,,,,,AMNE09.jpg,AMNE20.jpg,AMSA07.jpg,AMSA15.jpg,AMNE09.jpg,MN,1,num_8,32,num_6,1.1667423076,,,2017_May_09_1919,60.0038298242,MAFE4ImagesEEG,001,100442,
AFNE01.JPG,AFNE01.JPG,AFNE01.JPG,AFNE01.JPG,AFNE01.JPG,AFNE01.JPG,1,4,14,0,,,,,,,,,,,,,,,,,,,,,,,AMNE20.jpg,AMSA13.jpg,AMSA11.jpg,AMNE02.jpg,AMSA13.jpg,MS,2,num_6,16,num_6,0.983490276383,,,2017_May_09_1919,60.0038298242,MAFE4ImagesEEG,001,100442,
AFNE01.JPG,AFNE01.JPG,AFNE01.JPG,AFNE01.JPG,AFNE01.JPG,AFNE01.JPG,1,5,15,2,,,,,,,,,,,,,,,,,,,,,,,AMNE19.jpg,AMSA10.jpg,AMSA08.jpg,AMNE16.jpg,AMSA08.jpg,MS,2,num_2,32,num_4,1.39976791339,,,2017_May_09_1919,60.0038298242,MAFE4ImagesEEG,001,100442,
AFNE01.JPG,AFNE01.JPG,AFNE01.JPG,AFNE01.JPG,AFNE01.JPG,AFNE01.JPG,1,6,16,6,,,,,,,,,,,,,,,,,,,,,,,AMSA07.jpg,AMNE15.jpg,AMSA03.jpg,AMNE01.jpg,AMSA07.jpg,MS,2,num_8,32,num_6,1.10010202695,,,2017_May_09_1919,60.0038298242,MAFE4ImagesEEG,001,100442,
AFNE01.JPG,AFNE01.JPG,AFNE01.JPG,AFNE01.JPG,AFNE01.JPG,AFNE01.JPG,1,7,17,3,,,,,,,,,,,,,,,,,,,,,,,AMSA19.jpg,AMSA08.jpg,AMNE05.jpg,AMNE03.jpg,AMNE03.jpg,MN,1,num_4,32,num_8,1.2500658317,,,2017_May_09_1919,60.0038298242,MAFE4ImagesEEG,001,100442,
AFNE01.JPG,AFNE01.JPG,AFNE01.JPG,AFNE01.JPG,AFNE01.JPG,AFNE01.JPG,1,8,18,5,,,,,,,,,,,,,,,,,,,,,,,AMNE10.jpg,AMSA01.jpg,AMSA19.jpg,AMNE06.jpg,AMSA01.jpg,MS,2,num_6,16,num_6,1.00011867355,,,2017_May_09_1919,60.0038298242,MAFE4ImagesEEG,001,100442,
AFNE01.JPG,AFNE01.JPG,AFNE01.JPG,AFNE01.JPG,AFNE01.JPG,AFNE01.JPG,1,9,19,1,,,,,,,,,,,,,,,,,,,,,,,AMSA02.jpg,AMNE14.jpg,AMSA09.jpg,AMNE11.jpg,AMNE11.jpg,MN,1,num_4,16,num_4,1.71670078789,,,2017_May_09_1919,60.0038298242,MAFE4ImagesEEG,001,100442,
AFNE01.JPG,AFNE01.JPG,AFNE01.JPG,AFNE01.JPG,AFNE01.JPG,AFNE01.JPG,2,0,20,9,,,,,,,,,,,,,,,,,,,,,,,AMSA04.jpg,AMNE06.jpg,AMNE08.jpg,AMSA01.jpg,AMSA04.jpg,MS,2,num_8,32,num_4,1.08340370888,,,2017_May_09_1919,60.0038298242,MAFE4ImagesEEG,001,100442,
AFNE01.JPG,AFNE01.JPG,AFNE01.JPG,AFNE01.JPG,AFNE01.JPG,AFNE01.JPG,2,1,21,1,,,,,,,,,,,,,,,,,,,,,,,AMSA17.jpg,AMNE01.jpg,AMNE18.jpg,AMSA18.jpg,AMSA18.jpg,MS,2,num_4,32,num_2,2.23334666551,,,2017_May_09_1919,60.0038298242,MAFE4ImagesEEG,001,100442,
AFNE01.JPG,AFNE01.JPG,AFNE01.JPG,AFNE01.JPG,AFNE01.JPG,AFNE01.JPG,2,2,22,7,,,,,,,,,,,,,,,,,,,,,,,AMNE20.jpg,AMSA10.jpg,AMSA15.jpg,AMNE08.jpg,AMNE20.jpg,MN,1,num_8,32,num_6,1.05007474823,,,2017_May_09_1919,60.0038298242,MAFE4ImagesEEG,001,100442,
AFNE01.JPG,AFNE01.JPG,AFNE01.JPG,AFNE01.JPG,AFNE01.JPG,AFNE01.JPG,2,3,23,0,,,,,,,,,,,,,,,,,,,,,,,AMNE16.jpg,AMSA18.jpg,AMSA10.jpg,AMNE03.jpg,AMSA10.jpg,MS,2,num_2,32,num_6,1.33341565635,,,2017_May_09_1919,60.0038298242,MAFE4ImagesEEG,001,100442,
AFNE01.JPG,AFNE01.JPG,AFNE01.JPG,AFNE01.JPG,AFNE01.JPG,AFNE01.JPG,2,4,24,3,,,,,,,,,,,,,,,,,,,,,,,AMSA09.jpg,AMNE05.jpg,AMNE13.jpg,AMSA19.jpg,AMSA19.jpg,MS,2,num_4,32,num_6,2.60000179615,,,2017_May_09_1919,60.0038298242,MAFE4ImagesEEG,001,100442,
AFNE01.JPG,AFNE01.JPG,AFNE01.JPG,AFNE01.JPG,AFNE01.JPG,AFNE01.JPG,2,5,25,2,,,,,,,,,,,,,,,,,,,,,,,AMSA03.jpg,AMNE07.jpg,AMSA10.jpg,AMNE03.jpg,AMSA03.jpg,MS,2,num_8,32,num_2,1.24975182815,,,2017_May_09_1919,60.0038298242,MAFE4ImagesEEG,001,100442,
AFNE01.JPG,AFNE01.JPG,AFNE01.JPG,AFNE01.JPG,AFNE01.JPG,AFNE01.JPG,2,6,26,4,,,,,,,,,,,,,,,,,,,,,,,AMSA02.jpg,AMNE03.jpg,AMSA08.jpg,AMNE13.jpg,AMSA08.jpg,MS,2,num_2,32,num_8,1.53341828659,,,2017_May_09_1919,60.0038298242,MAFE4ImagesEEG,001,100442,
AFNE01.JPG,AFNE01.JPG,AFNE01.JPG,AFNE01.JPG,AFNE01.JPG,AFNE01.JPG,2,7,27,6,,,,,,,,,,,,,,,,,,,,,,,AMNE16.jpg,AMSA03.jpg,AMSA07.jpg,AMNE08.jpg,AMSA07.jpg,MS,2,num_2,16,num_2,1.75004225736,,,2017_May_09_1919,60.0038298242,MAFE4ImagesEEG,001,100442,
AFNE01.JPG,AFNE01.JPG,AFNE01.JPG,AFNE01.JPG,AFNE01.JPG,AFNE01.JPG,2,8,28,8,,,,,,,,,,,,,,,,,,,,,,,AMSA07.jpg,AMSA03.jpg,AMNE02.jpg,AMNE12.jpg,AMNE02.jpg,MN,1,num_2,32,num_6,1.00035634101,,,2017_May_09_1919,60.0038298242,MAFE4ImagesEEG,001,100442,
AFNE01.JPG,AFNE01.JPG,AFNE01.JPG,AFNE01.JPG,AFNE01.JPG,AFNE01.JPG,2,9,29,5,,,,,,,,,,,,,,,,,,,,,,,AMNE20.jpg,AMSA16.jpg,AMSA19.jpg,AMNE02.jpg,AMSA19.jpg,MS,2,num_2,16,num_2,1.75000793836,,,2017_May_09_1919,60.0038298242,MAFE4ImagesEEG,001,100442,
AFNE01.JPG,AFNE01.JPG,AFNE01.JPG,AFNE01.JPG,AFNE01.JPG,AFNE01.JPG,3,0,30,5,,,,,,,,,,,,,,,,,,,,,,,AMNE11.jpg,AMSA16.jpg,AMSA06.jpg,AMNE03.jpg,AMNE11.jpg,MN,1,num_8,32,num_4,1.25010111299,,,2017_May_09_1919,60.0038298242,MAFE4ImagesEEG,001,100442,
AFNE01.JPG,AFNE01.JPG,AFNE01.JPG,AFNE01.JPG,AFNE01.JPG,AFNE01.JPG,3,1,31,4,,,,,,,,,,,,,,,,,,,,,,,AMSA06.jpg,AMNE09.jpg,AMSA17.jpg,AMNE01.jpg,AMNE01.jpg,MN,1,num_4,16,num_4,1.2167118534,,,2017_May_09_1919,60.0038298242,MAFE4ImagesEEG,001,100442,
AFNE01.JPG,AFNE01.JPG,AFNE01.JPG,AFNE01.JPG,AFNE01.JPG,AFNE01.JPG,3,2,32,1,,,,,,,,,,,,,,,,,,,,,,,AMSA15.jpg,AMNE10.jpg,AMSA09.jpg,AMNE14.jpg,AMNE10.jpg,MN,1,num_6,16,num_6,0.950213596225,,,2017_May_09_1919,60.0038298242,MAFE4ImagesEEG,001,100442,
AFNE01.JPG,AFNE01.JPG,AFNE01.JPG,AFNE01.JPG,AFNE01.JPG,AFNE01.JPG,3,3,33,7,,,,,,,,,,,,,,,,,,,,,,,AMNE19.jpg,AMSA15.jpg,AMSA10.jpg,AMNE10.jpg,AMSA15.jpg,MS,2,num_6,32,num_4,1.26677248906,,,2017_May_09_1919,60.0038298242,MAFE4ImagesEEG,001,100442,
AFNE01.JPG,AFNE01.JPG,AFNE01.JPG,AFNE01.JPG,AFNE01.JPG,AFNE01.JPG,3,4,34,8,,,,,,,,,,,,,,,,,,,,,,,AMSA03.jpg,AMNE19.jpg,AMNE07.jpg,AMSA08.jpg,AMSA03.jpg,MS,2,num_8,32,num_2,1.11671246286,,,2017_May_09_1919,60.0038298242,MAFE4ImagesEEG,001,100442,
AFNE01.JPG,AFNE01.JPG,AFNE01.JPG,AFNE01.JPG,AFNE01.JPG,AFNE01.JPG,3,5,35,3,,,,,,,,,,,,,,,,,,,,,,,AMNE11.jpg,AMNE04.jpg,AMSA07.jpg,AMSA05.jpg,AMSA05.jpg,MS,2,num_4,32,num_6,1.40010501002,,,2017_May_09_1919,60.0038298242,MAFE4ImagesEEG,001,100442,
AFNE01.JPG,AFNE01.JPG,AFNE01.JPG,AFNE01.JPG,AFNE01.JPG,AFNE01.JPG,3,6,36,6,,,,,,,,,,,,,,,,,,,,,,,AMNE18.jpg,AMSA03.jpg,AMSA11.jpg,AMNE08.jpg,AMNE08.jpg,MN,1,num_4,32,num_6,0.983420355013,,,2017_May_09_1919,60.0038298242,MAFE4ImagesEEG,001,100442,
AFNE01.JPG,AFNE01.JPG,AFNE01.JPG,AFNE01.JPG,AFNE01.JPG,AFNE01.JPG,3,7,37,0,,,,,,,,,,,,,,,,,,,,,,,AMNE05.jpg,AMSA04.jpg,AMNE09.jpg,AMSA18.jpg,AMSA18.jpg,MS,2,num_4,32,num_6,1.40011751861,,,2017_May_09_1919,60.0038298242,MAFE4ImagesEEG,001,100442,
AFNE01.JPG,AFNE01.JPG,AFNE01.JPG,AFNE01.JPG,AFNE01.JPG,AFNE01.JPG,3,8,38,2,,,,,,,,,,,,,,,,,,,,,,,AMNE19.jpg,AMSA16.jpg,AMSA05.jpg,AMNE04.jpg,AMNE04.jpg,MN,1,num_4,16,num_4,1.00009975,,,2017_May_09_1919,60.0038298242,MAFE4ImagesEEG,001,100442,
AFNE01.JPG,AFNE01.JPG,AFNE01.JPG,AFNE01.JPG,AFNE01.JPG,AFNE01.JPG,3,9,39,9,,,,,,,,,,,,,,,,,,,,,,,AMNE13.jpg,AMNE06.jpg,AMSA09.jpg,AMSA15.jpg,AMNE13.jpg,MN,1,num_8,16,num_8,0.950093960622,,,2017_May_09_1919,60.0038298242,MAFE4ImagesEEG,001,100442,
AFNE01.JPG,AFNE01.JPG,AFNE01.JPG,AFNE01.JPG,AFNE01.JPG,AFNE01.JPG,4,0,40,2,,,,,,,,,,,,,,,,,,,,,,,AMSA04.jpg,AMSA01.jpg,AMNE13.jpg,AMNE16.jpg,AMSA04.jpg,MS,2,num_8,32,num_6,0.800168324029,,,2017_May_09_1919,60.0038298242,MAFE4ImagesEEG,001,100442,
AFNE01.JPG,AFNE01.JPG,AFNE01.JPG,AFNE01.JPG,AFNE01.JPG,AFNE01.JPG,4,1,41,4,,,,,,,,,,,,,,,,,,,,,,,AMNE04.jpg,AMNE03.jpg,AMSA03.jpg,AMSA06.jpg,AMNE04.jpg,MN,1,num_8,16,num_8,1.06672271038,,,2017_May_09_1919,60.0038298242,MAFE4ImagesEEG,001,100442,
AFNE01.JPG,AFNE01.JPG,AFNE01.JPG,AFNE01.JPG,AFNE01.JPG,AFNE01.JPG,4,2,42,8,,,,,,,,,,,,,,,,,,,,,,,AMSA06.jpg,AMNE14.jpg,AMSA15.jpg,AMNE16.jpg,AMNE16.jpg,MN,1,num_4,16,num_4,0.866687364876,,,2017_May_09_1919,60.0038298242,MAFE4ImagesEEG,001,100442,
AFNE01.JPG,AFNE01.JPG,AFNE01.JPG,AFNE01.JPG,AFNE01.JPG,AFNE01.JPG,4,3,43,0,,,,,,,,,,,,,,,,,,,,,,,AMNE04.jpg,AMSA16.jpg,AMNE10.jpg,AMSA11.jpg,AMNE10.jpg,MN,1,num_2,32,num_6,1.01681667101,,,2017_May_09_1919,60.0038298242,MAFE4ImagesEEG,001,100442,
AFNE01.JPG,AFNE01.JPG,AFNE01.JPG,AFNE01.JPG,AFNE01.JPG,AFNE01.JPG,4,4,44,9,,,,,,,,,,,,,,,,,,,,,,,AMNE16.jpg,AMNE12.jpg,AMSA08.jpg,AMSA19.jpg,AMNE16.jpg,MN,1,num_8,16,num_8,0.900128904963,,,2017_May_09_1919,60.0038298242,MAFE4ImagesEEG,001,100442,
AFNE01.JPG,AFNE01.JPG,AFNE01.JPG,AFNE01.JPG,AFNE01.JPG,AFNE01.JPG,4,5,45,1,,,,,,,,,,,,,,,,,,,,,,,AMNE16.jpg,AMSA14.jpg,AMSA15.jpg,AMNE14.jpg,AMNE14.jpg,MN,1,num_4,32,num_8,1.06673040823,,,2017_May_09_1919,60.0038298242,MAFE4ImagesEEG,001,100442,
AFNE01.JPG,AFNE01.JPG,AFNE01.JPG,AFNE01.JPG,AFNE01.JPG,AFNE01.JPG,4,6,46,5,,,,,,,,,,,,,,,,,,,,,,,AMSA15.jpg,AMNE18.jpg,AMSA11.jpg,AMNE06.jpg,AMSA15.jpg,MS,2,num_8,32,num_6,0.883457849501,,,2017_May_09_1919,60.0038298242,MAFE4ImagesEEG,001,100442,
AFNE01.JPG,AFNE01.JPG,AFNE01.JPG,AFNE01.JPG,AFNE01.JPG,AFNE01.JPG,4,7,47,6,,,,,,,,,,,,,,,,,,,,,,,AMNE13.jpg,AMNE07.jpg,AMSA08.jpg,AMSA07.jpg,AMNE13.jpg,MN,1,num_8,16,num_8,0.966729734791,,,2017_May_09_1919,60.0038298242,MAFE4ImagesEEG,001,100442,
AFNE01.JPG,AFNE01.JPG,AFNE01.JPG,AFNE01.JPG,AFNE01.JPG,AFNE01.JPG,4,8,48,3,,,,,,,,,,,,,,,,,,,,,,,AMNE17.jpg,AMSA02.jpg,AMNE19.jpg,AMSA16.jpg,AMSA02.jpg,MS,2,num_6,16,num_6,1.16676540091,,,2017_May_09_1919,60.0038298242,MAFE4ImagesEEG,001,100442,
AFNE01.JPG,AFNE01.JPG,AFNE01.JPG,AFNE01.JPG,AFNE01.JPG,AFNE01.JPG,4,9,49,7,,,,,,,,,,,,,,,,,,,,,,,AMSA06.jpg,AMNE09.jpg,AMSA02.jpg,AMNE15.jpg,AMSA06.jpg,MS,2,num_8,32,num_4,0.916931463405,,,2017_May_09_1919,60.0038298242,MAFE4ImagesEEG,001,100442,
AFNE01.JPG,AFNE01.JPG,AFNE01.JPG,AFNE01.JPG,AFNE01.JPG,AFNE01.JPG,5,0,50,0,,,,,,,,,,,,,,,,,,,,,,,AMSA18.jpg,AMSA10.jpg,AMNE02.jpg,AMNE06.jpg,AMSA10.jpg,MS,2,num_6,32,num_8,0.983615364414,,,2017_May_09_1919,60.0038298242,MAFE4ImagesEEG,001,100442,
AFNE01.JPG,AFNE01.JPG,AFNE01.JPG,AFNE01.JPG,AFNE01.JPG,AFNE01.JPG,5,1,51,7,,,,,,,,,,,,,,,,,,,,,,,AMSA08.jpg,AMSA17.jpg,AMNE06.jpg,AMNE07.jpg,AMSA08.jpg,MS,2,num_8,32,num_6,0.850224469323,,,2017_May_09_1919,60.0038298242,MAFE4ImagesEEG,001,100442,
AFNE01.JPG,AFNE01.JPG,AFNE01.JPG,AFNE01.JPG,AFNE01.JPG,AFNE01.JPG,5,2,52,6,,,,,,,,,,,,,,,,,,,,,,,AMSA16.jpg,AMNE17.jpg,AMSA07.jpg,AMNE02.jpg,AMSA16.jpg,MS,2,num_8,16,num_8,1.30007707351,,,2017_May_09_1919,60.0038298242,MAFE4ImagesEEG,001,100442,
AFNE01.JPG,AFNE01.JPG,AFNE01.JPG,AFNE01.JPG,AFNE01.JPG,AFNE01.JPG,5,3,53,1,,,,,,,,,,,,,,,,,,,,,,,AMNE12.jpg,AMNE14.jpg,AMSA03.jpg,AMSA10.jpg,AMSA10.jpg,MS,2,num_4,32,num_6,1.30007643229,,,2017_May_09_1919,60.0038298242,MAFE4ImagesEEG,001,100442,
AFNE01.JPG,AFNE01.JPG,AFNE01.JPG,AFNE01.JPG,AFNE01.JPG,AFNE01.JPG,5,4,54,8,,,,,,,,,,,,,,,,,,,,,,,AMSA04.jpg,AMNE08.jpg,AMSA18.jpg,AMNE11.jpg,AMNE11.jpg,MN,1,num_4,16,num_4,0.86673932476,,,2017_May_09_1919,60.0038298242,MAFE4ImagesEEG,001,100442,
AFNE01.JPG,AFNE01.JPG,AFNE01.JPG,AFNE01.JPG,AFNE01.JPG,AFNE01.JPG,5,5,55,9,,,,,,,,,,,,,,,,,,,,,,,AMNE08.jpg,AMSA12.jpg,AMNE20.jpg,AMSA07.jpg,AMNE08.jpg,MN,1,num_8,32,num_6,0.983515614877,,,2017_May_09_1919,60.0038298242,MAFE4ImagesEEG,001,100442,
AFNE01.JPG,AFNE01.JPG,AFNE01.JPG,AFNE01.JPG,AFNE01.JPG,AFNE01.JPG,5,6,56,5,,,,,,,,,,,,,,,,,,,,,,,AMSA12.jpg,AMNE15.jpg,AMNE20.jpg,AMSA11.jpg,AMSA12.jpg,MS,2,num_8,16,num_8,0.833437306108,,,2017_May_09_1919,60.0038298242,MAFE4ImagesEEG,001,100442,
AFNE01.JPG,AFNE01.JPG,AFNE01.JPG,AFNE01.JPG,AFNE01.JPG,AFNE01.JPG,5,7,57,3,,,,,,,,,,,,,,,,,,,,,,,AMNE19.jpg,AMSA20.jpg,AMSA11.jpg,AMNE02.jpg,AMSA11.jpg,MS,2,num_2,32,num_8,1.30003922642,,,2017_May_09_1919,60.0038298242,MAFE4ImagesEEG,001,100442,
AFNE01.JPG,AFNE01.JPG,AFNE01.JPG,AFNE01.JPG,AFNE01.JPG,AFNE01.JPG,5,8,58,4,,,,,,,,,,,,,,,,,,,,,,,AMNE09.jpg,AMSA20.jpg,AMSA01.jpg,AMNE04.jpg,AMNE04.jpg,MN,1,num_4,16,num_4,0.950097167864,,,2017_May_09_1919,60.0038298242,MAFE4ImagesEEG,001,100442,
AFNE01.JPG,AFNE01.JPG,AFNE01.JPG,AFNE01.JPG,AFNE01.JPG,AFNE01.JPG,5,9,59,2,,,,,,,,,,,,,,,,,,,,,,,AMNE19.jpg,AMSA06.jpg,AMNE02.jpg,AMSA02.jpg,AMNE19.jpg,MN,1,num_8,16,num_8,0.900174129289,,,2017_May_09_1919,60.0038298242,MAFE4ImagesEEG,001,100442,
,,,,,,,,,,,,,,,,,,,,,,,,,,,,,,,,,,,,,,,,,,,space,3.53319922183,2017_May_09_1919,60.0038298242,MAFE4ImagesEEG,001,100442,
AFNE01.JPG,AFNE01.JPG,AFNE01.JPG,AFNE01.JPG,AFNE01.JPG,AFNE01.JPG,,,,,0,0,0,0,,,,,,,,,,,,,,,,,,,AFNE05.jpg,AFNE20.jpg,AFSA06.jpg,AFSA03.jpg,AFSA06.jpg,FS,4,num_2,32,num_6,1.30009567644,,,2017_May_09_1919,60.0038298242,MAFE4ImagesEEG,001,100442,
AFNE01.JPG,AFNE01.JPG,AFNE01.JPG,AFNE01.JPG,AFNE01.JPG,AFNE01.JPG,,,,,0,1,1,5,,,,,,,,,,,,,,,,,,,AFNE19.jpg,AFSA08.jpg,AFSA12.jpg,AFNE01.jpg,AFSA08.jpg,FS,4,num_6,32,num_4,0.850131775718,,,2017_May_09_1919,60.0038298242,MAFE4ImagesEEG,001,100442,
AFNE01.JPG,AFNE01.JPG,AFNE01.JPG,AFNE01.JPG,AFNE01.JPG,AFNE01.JPG,,,,,0,2,2,8,,,,,,,,,,,,,,,,,,,AFSA01.jpg,AFNE05.jpg,AFNE16.jpg,AFSA14.jpg,AFNE05.jpg,FN,3,num_6,16,num_6,0.816624163417,,,2017_May_09_1919,60.0038298242,MAFE4ImagesEEG,001,100442,
AFNE01.JPG,AFNE01.JPG,AFNE01.JPG,AFNE01.JPG,AFNE01.JPG,AFNE01.JPG,,,,,0,3,3,9,,,,,,,,,,,,,,,,,,,AFNE15.jpg,AFNE12.jpg,AFSA17.jpg,AFSA06.jpg,AFSA06.jpg,FS,4,num_4,32,num_8,0.866761134937,,,2017_May_09_1919,60.0038298242,MAFE4ImagesEEG,001,100442,
AFNE01.JPG,AFNE01.JPG,AFNE01.JPG,AFNE01.JPG,AFNE01.JPG,AFNE01.JPG,,,,,0,4,4,1,,,,,,,,,,,,,,,,,,,AFSA10.jpg,AFNE12.jpg,AFSA03.jpg,AFNE09.jpg,AFSA10.jpg,FS,4,num_8,16,num_8,0.750120517798,,,2017_May_09_1919,60.0038298242,MAFE4ImagesEEG,001,100442,
AFNE01.JPG,AFNE01.JPG,AFNE01.JPG,AFNE01.JPG,AFNE01.JPG,AFNE01.JPG,,,,,0,5,5,7,,,,,,,,,,,,,,,,,,,AFSA18.jpg,AFSA08.jpg,AFNE03.jpg,AFNE06.jpg,AFSA08.jpg,FS,4,num_6,16,num_6,1.08344251825,,,2017_May_09_1919,60.0038298242,MAFE4ImagesEEG,001,100442,
AFNE01.JPG,AFNE01.JPG,AFNE01.JPG,AFNE01.JPG,AFNE01.JPG,AFNE01.JPG,,,,,0,6,6,4,,,,,,,,,,,,,,,,,,,AFSA06.jpg,AFNE03.jpg,AFNE11.jpg,AFSA17.jpg,AFNE11.jpg,FN,3,num_2,16,num_2,1.10002537048,,,2017_May_09_1919,60.0038298242,MAFE4ImagesEEG,001,100442,
AFNE01.JPG,AFNE01.JPG,AFNE01.JPG,AFNE01.JPG,AFNE01.JPG,AFNE01.JPG,,,,,0,7,7,3,,,,,,,,,,,,,,,,,,,AFSA04.jpg,AFNE04.jpg,AFNE14.jpg,AFSA09.jpg,AFSA04.jpg,FS,4,num_8,16,num_8,1.30006424407,,,2017_May_09_1919,60.0038298242,MAFE4ImagesEEG,001,100442,
AFNE01.JPG,AFNE01.JPG,AFNE01.JPG,AFNE01.JPG,AFNE01.JPG,AFNE01.JPG,,,,,0,8,8,6,,,,,,,,,,,,,,,,,,,AFNE02.jpg,AFNE10.jpg,AFSA02.jpg,AFSA10.jpg,AFNE02.jpg,FN,3,num_8,16,num_8,0.916747038485,,,2017_May_09_1919,60.0038298242,MAFE4ImagesEEG,001,100442,
AFNE01.JPG,AFNE01.JPG,AFNE01.JPG,AFNE01.JPG,AFNE01.JPG,AFNE01.JPG,,,,,0,9,9,2,,,,,,,,,,,,,,,,,,,AFSA18.jpg,AFNE01.jpg,AFNE14.jpg,AFSA11.jpg,AFSA11.jpg,FS,4,num_4,16,num_4,1.13349417318,,,2017_May_09_1919,60.0038298242,MAFE4ImagesEEG,001,100442,
AFNE01.JPG,AFNE01.JPG,AFNE01.JPG,AFNE01.JPG,AFNE01.JPG,AFNE01.JPG,,,,,1,0,10,8,,,,,,,,,,,,,,,,,,,AFSA03.jpg,AFNE10.jpg,AFSA13.jpg,AFNE06.jpg,AFSA03.jpg,FS,4,num_8,16,num_8,0.666783843422,,,2017_May_09_1919,60.0038298242,MAFE4ImagesEEG,001,100442,
AFNE01.JPG,AFNE01.JPG,AFNE01.JPG,AFNE01.JPG,AFNE01.JPG,AFNE01.JPG,,,,,1,1,11,7,,,,,,,,,,,,,,,,,,,AFNE12.jpg,AFNE04.jpg,AFSA09.jpg,AFSA16.jpg,AFSA16.jpg,FS,4,num_4,32,num_2,1.38340444677,,,2017_May_09_1919,60.0038298242,MAFE4ImagesEEG,001,100442,
AFNE01.JPG,AFNE01.JPG,AFNE01.JPG,AFNE01.JPG,AFNE01.JPG,AFNE01.JPG,,,,,1,2,12,4,,,,,,,,,,,,,,,,,,,AFNE20.jpg,AFSA16.jpg,AFNE07.jpg,AFSA18.jpg,AFNE07.jpg,FN,3,num_2,32,num_6,0.783422215376,,,2017_May_09_1919,60.0038298242,MAFE4ImagesEEG,001,100442,
AFNE01.JPG,AFNE01.JPG,AFNE01.JPG,AFNE01.JPG,AFNE01.JPG,AFNE01.JPG,,,,,1,3,13,6,,,,,,,,,,,,,,,,,,,AFSA18.jpg,AFSA17.jpg,AFNE19.jpg,AFNE15.jpg,AFSA18.jpg,FS,4,num_8,32,num_6,0.833496642997,,,2017_May_09_1919,60.0038298242,MAFE4ImagesEEG,001,100442,
AFNE01.JPG,AFNE01.JPG,AFNE01.JPG,AFNE01.JPG,AFNE01.JPG,AFNE01.JPG,,,,,1,4,14,9,,,,,,,,,,,,,,,,,,,AFSA03.jpg,AFNE10.jpg,AFNE16.jpg,AFSA06.jpg,AFSA06.jpg,FS,4,num_4,32,num_8,0.900111264316,,,2017_May_09_1919,60.0038298242,MAFE4ImagesEEG,001,100442,
AFNE01.JPG,AFNE01.JPG,AFNE01.JPG,AFNE01.JPG,AFNE01.JPG,AFNE01.JPG,,,,,1,5,15,1,,,,,,,,,,,,,,,,,,,AFSA19.jpg,AFNE15.jpg,AFSA20.jpg,AFNE12.jpg,AFSA20.jpg,FS,4,num_2,32,num_4,0.816747006495,,,2017_May_09_1919,60.0038298242,MAFE4ImagesEEG,001,100442,
AFNE01.JPG,AFNE01.JPG,AFNE01.JPG,AFNE01.JPG,AFNE01.JPG,AFNE01.JPG,,,,,1,6,16,3,,,,,,,,,,,,,,,,,,,AFNE19.jpg,AFSA20.jpg,AFSA13.jpg,AFNE18.jpg,AFSA13.jpg,FS,4,num_2,16,num_2,1.916702135,,,2017_May_09_1919,60.0038298242,MAFE4ImagesEEG,001,100442,
AFNE01.JPG,AFNE01.JPG,AFNE01.JPG,AFNE01.JPG,AFNE01.JPG,AFNE01.JPG,,,,,1,7,17,0,,,,,,,,,,,,,,,,,,,AFNE03.jpg,AFSA07.jpg,AFNE07.jpg,AFSA12.jpg,AFNE03.jpg,FN,3,num_8,32,num_6,0.983426449122,,,2017_May_09_1919,60.0038298242,MAFE4ImagesEEG,001,100442,
AFNE01.JPG,AFNE01.JPG,AFNE01.JPG,AFNE01.JPG,AFNE01.JPG,AFNE01.JPG,,,,,1,8,18,2,,,,,,,,,,,,,,,,,,,AFSA02.jpg,AFNE14.jpg,AFNE08.jpg,AFSA03.jpg,AFNE14.jpg,FN,3,num_6,32,num_8,1.15011358983,,,2017_May_09_1919,60.0038298242,MAFE4ImagesEEG,001,100442,
AFNE01.JPG,AFNE01.JPG,AFNE01.JPG,AFNE01.JPG,AFNE01.JPG,AFNE01.JPG,,,,,1,9,19,5,,,,,,,,,,,,,,,,,,,AFNE15.jpg,AFSA03.jpg,AFNE13.jpg,AFSA02.jpg,AFNE15.jpg,FN,3,num_8,32,num_4,0.816784212133,,,2017_May_09_1919,60.0038298242,MAFE4ImagesEEG,001,100442,
AFNE01.JPG,AFNE01.JPG,AFNE01.JPG,AFNE01.JPG,AFNE01.JPG,AFNE01.JPG,,,,,2,0,20,6,,,,,,,,,,,,,,,,,,,AFNE01.jpg,AFSA09.jpg,AFSA08.jpg,AFNE03.jpg,AFSA09.jpg,FS,4,num_6,16,num_6,1.08340435033,,,2017_May_09_1919,60.0038298242,MAFE4ImagesEEG,001,100442,
AFNE01.JPG,AFNE01.JPG,AFNE01.JPG,AFNE01.JPG,AFNE01.JPG,AFNE01.JPG,,,,,2,1,21,9,,,,,,,,,,,,,,,,,,,AFNE06.jpg,AFSA03.jpg,AFNE04.jpg,AFSA08.jpg,AFSA03.jpg,FS,4,num_6,32,num_4,0.883433152689,,,2017_May_09_1919,60.0038298242,MAFE4ImagesEEG,001,100442,
AFNE01.JPG,AFNE01.JPG,AFNE01.JPG,AFNE01.JPG,AFNE01.JPG,AFNE01.JPG,,,,,2,2,22,8,,,,,,,,,,,,,,,,,,,AFNE13.jpg,AFNE16.jpg,AFSA19.jpg,AFSA04.jpg,AFSA04.jpg,FS,4,num_4,32,num_6,0.966759563191,,,2017_May_09_1919,60.0038298242,MAFE4ImagesEEG,001,100442,
AFNE01.JPG,AFNE01.JPG,AFNE01.JPG,AFNE01.JPG,AFNE01.JPG,AFNE01.JPG,,,,,2,3,23,7,,,,,,,,,,,,,,,,,,,AFNE14.jpg,AFSA20.jpg,AFNE07.jpg,AFSA11.jpg,AFNE07.jpg,FN,3,num_2,32,num_8,0.85024243081,,,2017_May_09_1919,60.0038298242,MAFE4ImagesEEG,001,100442,
AFNE01.JPG,AFNE01.JPG,AFNE01.JPG,AFNE01.JPG,AFNE01.JPG,AFNE01.JPG,,,,,2,4,24,5,,,,,,,,,,,,,,,,,,,AFNE08.jpg,AFNE06.jpg,AFSA16.jpg,AFSA18.jpg,AFSA18.jpg,FS,4,num_4,16,num_4,0.733449462336,,,2017_May_09_1919,60.0038298242,MAFE4ImagesEEG,001,100442,
AFNE01.JPG,AFNE01.JPG,AFNE01.JPG,AFNE01.JPG,AFNE01.JPG,AFNE01.JPG,,,,,2,5,25,0,,,,,,,,,,,,,,,,,,,AFNE10.jpg,AFSA04.jpg,AFSA11.jpg,AFNE17.jpg,AFNE17.jpg,FN,3,num_4,32,num_6,0.916779112536,,,2017_May_09_1919,60.0038298242,MAFE4ImagesEEG,001,100442,
AFNE01.JPG,AFNE01.JPG,AFNE01.JPG,AFNE01.JPG,AFNE01.JPG,AFNE01.JPG,,,,,2,6,26,1,,,,,,,,,,,,,,,,,,,AFSA14.jpg,AFNE11.jpg,AFSA05.jpg,AFNE18.jpg,AFSA05.jpg,FS,4,num_2,16,num_2,0.966637040954,,,2017_May_09_1919,60.0038298242,MAFE4ImagesEEG,001,100442,
AFNE01.JPG,AFNE01.JPG,AFNE01.JPG,AFNE01.JPG,AFNE01.JPG,AFNE01.JPG,,,,,2,7,27,3,,,,,,,,,,,,,,,,,,,AFNE05.jpg,AFNE03.jpg,AFSA15.jpg,AFSA09.jpg,AFSA15.jpg,FS,4,num_2,32,num_4,0.933400774142,,,2017_May_09_1919,60.0038298242,MAFE4ImagesEEG,001,100442,
AFNE01.JPG,AFNE01.JPG,AFNE01.JPG,AFNE01.JPG,AFNE01.JPG,AFNE01.JPG,,,,,2,8,28,4,,,,,,,,,,,,,,,,,,,AFSA11.jpg,AFSA02.jpg,AFNE20.jpg,AFNE14.jpg,AFSA11.jpg,FS,4,num_8,32,num_6,0.866788397776,,,2017_May_09_1919,60.0038298242,MAFE4ImagesEEG,001,100442,
AFNE01.JPG,AFNE01.JPG,AFNE01.JPG,AFNE01.JPG,AFNE01.JPG,AFNE01.JPG,,,,,2,9,29,2,,,,,,,,,,,,,,,,,,,AFSA15.jpg,AFSA04.jpg,AFNE11.jpg,AFNE18.jpg,AFSA04.jpg,FS,4,num_6,32,num_4,0.733440160751,,,2017_May_09_1919,60.0038298242,MAFE4ImagesEEG,001,100442,
AFNE01.JPG,AFNE01.JPG,AFNE01.JPG,AFNE01.JPG,AFNE01.JPG,AFNE01.JPG,,,,,3,0,30,5,,,,,,,,,,,,,,,,,,,AFSA10.jpg,AFNE14.jpg,AFNE13.jpg,AFSA18.jpg,AFSA10.jpg,FS,4,num_8,32,num_4,0.70011953963,,,2017_May_09_1919,60.0038298242,MAFE4ImagesEEG,001,100442,
AFNE01.JPG,AFNE01.JPG,AFNE01.JPG,AFNE01.JPG,AFNE01.JPG,AFNE01.JPG,,,,,3,1,31,4,,,,,,,,,,,,,,,,,,,AFSA11.jpg,AFSA20.jpg,AFNE15.jpg,AFNE13.jpg,AFSA11.jpg,FS,4,num_8,32,num_6,0.783437931677,,,2017_May_09_1919,60.0038298242,MAFE4ImagesEEG,001,100442,
AFNE01.JPG,AFNE01.JPG,AFNE01.JPG,AFNE01.JPG,AFNE01.JPG,AFNE01.JPG,,,,,3,2,32,8,,,,,,,,,,,,,,,,,,,AFSA07.jpg,AFNE14.jpg,AFNE12.jpg,AFSA03.jpg,AFSA03.jpg,FS,4,num_4,16,num_4,0.600129129598,,,2017_May_09_1919,60.0038298242,MAFE4ImagesEEG,001,100442,
AFNE01.JPG,AFNE01.JPG,AFNE01.JPG,AFNE01.JPG,AFNE01.JPG,AFNE01.JPG,,,,,3,3,33,7,,,,,,,,,,,,,,,,,,,AFSA20.jpg,AFSA18.jpg,AFNE10.jpg,AFNE07.jpg,AFSA20.jpg,FS,4,num_8,16,num_8,0.766763027292,,,2017_May_09_1919,60.0038298242,MAFE4ImagesEEG,001,100442,
AFNE01.JPG,AFNE01.JPG,AFNE01.JPG,AFNE01.JPG,AFNE01.JPG,AFNE01.JPG,,,,,3,4,34,9,,,,,,,,,,,,,,,,,,,AFNE03.jpg,AFSA15.jpg,AFNE14.jpg,AFSA11.jpg,AFSA15.jpg,FS,4,num_6,32,num_4,1.00010424014,,,2017_May_09_1919,60.0038298242,MAFE4ImagesEEG,001,100442,
AFNE01.JPG,AFNE01.JPG,AFNE01.JPG,AFNE01.JPG,AFNE01.JPG,AFNE01.JPG,,,,,3,5,35,1,,,,,,,,,,,,,,,,,,,AFNE10.jpg,AFNE02.jpg,AFSA14.jpg,AFSA02.jpg,AFSA14.jpg,FS,4,num_2,32,num_4,1.0167422595,,,2017_May_09_1919,60.0038298242,MAFE4ImagesEEG,001,100442,
AFNE01.JPG,AFNE01.JPG,AFNE01.JPG,AFNE01.JPG,AFNE01.JPG,AFNE01.JPG,,,,,3,6,36,2,,,,,,,,,,,,,,,,,,,AFSA18.jpg,AFSA08.jpg,AFNE02.jpg,AFNE09.jpg,AFNE09.jpg,FN,3,num_4,32,num_6,1.03346687835,,,2017_May_09_1919,60.0038298242,MAFE4ImagesEEG,001,100442,
AFNE01.JPG,AFNE01.JPG,AFNE01.JPG,AFNE01.JPG,AFNE01.JPG,AFNE01.JPG,,,,,3,7,37,3,,,,,,,,,,,,,,,,,,,AFSA04.jpg,AFSA18.jpg,AFNE09.jpg,AFNE01.jpg,AFSA04.jpg,FS,4,num_8,32,num_2,1.03349702782,,,2017_May_09_1919,60.0038298242,MAFE4ImagesEEG,001,100442,
AFNE01.JPG,AFNE01.JPG,AFNE01.JPG,AFNE01.JPG,AFNE01.JPG,AFNE01.JPG,,,,,3,8,38,0,,,,,,,,,,,,,,,,,,,AFNE18.jpg,AFNE17.jpg,AFSA03.jpg,AFSA09.jpg,AFSA09.jpg,FS,4,num_4,32,num_6,1.0167509194,,,2017_May_09_1919,60.0038298242,MAFE4ImagesEEG,001,100442,
AFNE01.JPG,AFNE01.JPG,AFNE01.JPG,AFNE01.JPG,AFNE01.JPG,AFNE01.JPG,,,,,3,9,39,6,,,,,,,,,,,,,,,,,,,AFSA09.jpg,AFNE20.jpg,AFSA10.jpg,AFNE04.jpg,AFSA09.jpg,FS,4,num_8,32,num_6,0.849775434472,,,2017_May_09_1919,60.0038298242,MAFE4ImagesEEG,001,100442,
AFNE01.JPG,AFNE01.JPG,AFNE01.JPG,AFNE01.JPG,AFNE01.JPG,AFNE01.JPG,,,,,4,0,40,1,,,,,,,,,,,,,,,,,,,AFNE12.jpg,AFNE18.jpg,AFSA12.jpg,AFSA20.jpg,AFSA20.jpg,FS,4,num_4,16,num_4,0.95012603444,,,2017_May_09_1919,60.0038298242,MAFE4ImagesEEG,001,100442,
AFNE01.JPG,AFNE01.JPG,AFNE01.JPG,AFNE01.JPG,AFNE01.JPG,AFNE01.JPG,,,,,4,1,41,8,,,,,,,,,,,,,,,,,,,AFSA03.jpg,AFSA20.jpg,AFNE14.jpg,AFNE11.jpg,AFSA20.jpg,FS,4,num_6,32,num_4,1.15011198609,,,2017_May_09_1919,60.0038298242,MAFE4ImagesEEG,001,100442,
AFNE01.JPG,AFNE01.JPG,AFNE01.JPG,AFNE01.JPG,AFNE01.JPG,AFNE01.JPG,,,,,4,2,42,4,,,,,,,,,,,,,,,,,,,AFNE09.jpg,AFSA15.jpg,AFSA13.jpg,AFNE14.jpg,AFSA15.jpg,FS,4,num_6,32,num_4,0.833427363308,,,2017_May_09_1919,60.0038298242,MAFE4ImagesEEG,001,100442,
AFNE01.JPG,AFNE01.JPG,AFNE01.JPG,AFNE01.JPG,AFNE01.JPG,AFNE01.JPG,,,,,4,3,43,7,,,,,,,,,,,,,,,,,,,AFSA18.jpg,AFNE07.jpg,AFSA13.jpg,AFNE17.jpg,AFNE17.jpg,FN,3,num_4,32,num_6,0.900086888112,,,2017_May_09_1919,60.0038298242,MAFE4ImagesEEG,001,100442,
AFNE01.JPG,AFNE01.JPG,AFNE01.JPG,AFNE01.JPG,AFNE01.JPG,AFNE01.JPG,,,,,4,4,44,5,,,,,,,,,,,,,,,,,,,AFNE05.jpg,AFSA08.jpg,AFNE17.jpg,AFSA06.jpg,AFSA08.jpg,FS,4,num_6,32,num_8,0.816781325499,,,2017_May_09_1919,60.0038298242,MAFE4ImagesEEG,001,100442,
AFNE01.JPG,AFNE01.JPG,AFNE01.JPG,AFNE01.JPG,AFNE01.JPG,AFNE01.JPG,,,,,4,5,45,3,,,,,,,,,,,,,,,,,,,AFNE18.jpg,AFSA12.jpg,AFNE09.jpg,AFSA09.jpg,AFSA12.jpg,FS,4,num_6,32,num_2,0.733486026525,,,2017_May_09_1919,60.0038298242,MAFE4ImagesEEG,001,100442,
AFNE01.JPG,AFNE01.JPG,AFNE01.JPG,AFNE01.JPG,AFNE01.JPG,AFNE01.JPG,,,,,4,6,46,0,,,,,,,,,,,,,,,,,,,AFNE18.jpg,AFSA04.jpg,AFNE20.jpg,AFSA18.jpg,AFNE20.jpg,FN,3,num_2,32,num_4,1.18327769032,,,2017_May_09_1919,60.0038298242,MAFE4ImagesEEG,001,100442,
AFNE01.JPG,AFNE01.JPG,AFNE01.JPG,AFNE01.JPG,AFNE01.JPG,AFNE01.JPG,,,,,4,7,47,9,,,,,,,,,,,,,,,,,,,AFNE20.jpg,AFSA04.jpg,AFNE19.jpg,AFSA14.jpg,AFSA14.jpg,FS,4,num_4,16,num_4,0.833447569981,,,2017_May_09_1919,60.0038298242,MAFE4ImagesEEG,001,100442,
AFNE01.JPG,AFNE01.JPG,AFNE01.JPG,AFNE01.JPG,AFNE01.JPG,AFNE01.JPG,,,,,4,8,48,2,,,,,,,,,,,,,,,,,,,AFNE17.jpg,AFNE06.jpg,AFSA03.jpg,AFSA16.jpg,AFNE17.jpg,FN,3,num_8,32,num_6,0.866728740511,,,2017_May_09_1919,60.0038298242,MAFE4ImagesEEG,001,100442,
AFNE01.JPG,AFNE01.JPG,AFNE01.JPG,AFNE01.JPG,AFNE01.JPG,AFNE01.JPG,,,,,4,9,49,6,,,,,,,,,,,,,,,,,,,AFSA16.jpg,AFNE13.jpg,AFSA19.jpg,AFNE14.jpg,AFSA16.jpg,FS,4,num_8,32,num_4,1.06675382215,,,2017_May_09_1919,60.0038298242,MAFE4ImagesEEG,001,100442,
AFNE01.JPG,AFNE01.JPG,AFNE01.JPG,AFNE01.JPG,AFNE01.JPG,AFNE01.JPG,,,,,5,0,50,6,,,,,,,,,,,,,,,,,,,AFSA06.jpg,AFSA09.jpg,AFNE07.jpg,AFNE13.jpg,AFSA06.jpg,FS,4,num_8,32,num_6,0.950094922679,,,2017_May_09_1919,60.0038298242,MAFE4ImagesEEG,001,100442,
AFNE01.JPG,AFNE01.JPG,AFNE01.JPG,AFNE01.JPG,AFNE01.JPG,AFNE01.JPG,,,,,5,1,51,0,,,,,,,,,,,,,,,,,,,AFSA09.jpg,AFNE19.jpg,AFSA14.jpg,AFNE03.jpg,AFSA14.jpg,FS,4,num_2,32,num_4,0.866764663253,,,2017_May_09_1919,60.0038298242,MAFE4ImagesEEG,001,100442,
AFNE01.JPG,AFNE01.JPG,AFNE01.JPG,AFNE01.JPG,AFNE01.JPG,AFNE01.JPG,,,,,5,2,52,2,,,,,,,,,,,,,,,,,,,AFNE08.jpg,AFSA11.jpg,AFSA15.jpg,AFNE17.jpg,AFNE17.jpg,FN,3,num_4,32,num_8,1.46658460004,,,2017_May_09_1919,60.0038298242,MAFE4ImagesEEG,001,100442,
AFNE01.JPG,AFNE01.JPG,AFNE01.JPG,AFNE01.JPG,AFNE01.JPG,AFNE01.JPG,,,,,5,3,53,5,,,,,,,,,,,,,,,,,,,AFSA18.jpg,AFNE20.jpg,AFNE17.jpg,AFSA19.jpg,AFNE20.jpg,FN,3,num_6,16,num_6,1.11676602624,,,2017_May_09_1919,60.0038298242,MAFE4ImagesEEG,001,100442,
AFNE01.JPG,AFNE01.JPG,AFNE01.JPG,AFNE01.JPG,AFNE01.JPG,AFNE01.JPG,,,,,5,4,54,9,,,,,,,,,,,,,,,,,,,AFSA01.jpg,AFSA05.jpg,AFNE03.jpg,AFNE04.jpg,AFSA01.jpg,FS,4,num_8,16,num_8,1.13343002554,,,2017_May_09_1919,60.0038298242,MAFE4ImagesEEG,001,100442,
AFNE01.JPG,AFNE01.JPG,AFNE01.JPG,AFNE01.JPG,AFNE01.JPG,AFNE01.JPG,,,,,5,5,55,3,,,,,,,,,,,,,,,,,,,AFSA20.jpg,AFNE19.jpg,AFSA19.jpg,AFNE10.jpg,AFNE19.jpg,FN,3,num_6,32,num_2,1.55004892871,,,2017_May_09_1919,60.0038298242,MAFE4ImagesEEG,001,100442,
AFNE01.JPG,AFNE01.JPG,AFNE01.JPG,AFNE01.JPG,AFNE01.JPG,AFNE01.JPG,,,,,5,6,56,1,,,,,,,,,,,,,,,,,,,AFSA05.jpg,AFNE17.jpg,AFSA09.jpg,AFNE07.jpg,AFNE07.jpg,FN,3,num_4,32,num_2,1.13341591298,,,2017_May_09_1919,60.0038298242,MAFE4ImagesEEG,001,100442,
AFNE01.JPG,AFNE01.JPG,AFNE01.JPG,AFNE01.JPG,AFNE01.JPG,AFNE01.JPG,,,,,5,7,57,7,,,,,,,,,,,,,,,,,,,AFSA09.jpg,AFSA11.jpg,AFNE05.jpg,AFNE04.jpg,AFSA09.jpg,FS,4,num_8,32,num_6,0.850129851373,,,2017_May_09_1919,60.0038298242,MAFE4ImagesEEG,001,100442,
AFNE01.JPG,AFNE01.JPG,AFNE01.JPG,AFNE01.JPG,AFNE01.JPG,AFNE01.JPG,,,,,5,8,58,8,,,,,,,,,,,,,,,,,,,AFNE06.jpg,AFSA01.jpg,AFSA13.jpg,AFNE09.jpg,AFSA01.jpg,FS,4,num_6,16,num_6,0.916749925353,,,2017_May_09_1919,60.0038298242,MAFE4ImagesEEG,001,100442,
AFNE01.JPG,AFNE01.JPG,AFNE01.JPG,AFNE01.JPG,AFNE01.JPG,AFNE01.JPG,,,,,5,9,59,4,,,,,,,,,,,,,,,,,,,AFNE17.jpg,AFSA08.jpg,AFNE12.jpg,AFSA11.jpg,AFNE17.jpg,FN,3,num_8,16,num_8,0.950102299685,,,2017_May_09_1919,60.0038298242,MAFE4ImagesEEG,001,100442,
,,,,,,,,,,,,,,,,,,,,,,,,,,,,,,,,,,,,,,,,,,,space,3.44992028037,2017_May_09_1919,60.0038298242,MAFE4ImagesEEG,001,100442,
AFNE01.JPG,AFNE01.JPG,AFNE01.JPG,AFNE01.JPG,AFNE01.JPG,AFNE01.JPG,,,,,,,,,0,0,0,5,,,,,,,,,,,,,,,AMNE14.jpg,AMSA09.jpg,AMNE15.jpg,AMSA01.jpg,AMSA01.jpg,MS,2,num_4,32,num_6,1.133411102,,,2017_May_09_1919,60.0038298242,MAFE4ImagesEEG,001,100442,
AFNE01.JPG,AFNE01.JPG,AFNE01.JPG,AFNE01.JPG,AFNE01.JPG,AFNE01.JPG,,,,,,,,,0,1,1,0,,,,,,,,,,,,,,,AMNE17.jpg,AMSA09.jpg,AMSA10.jpg,AMNE10.jpg,AMNE17.jpg,MN,1,num_8,16,num_8,0.916754094884,,,2017_May_09_1919,60.0038298242,MAFE4ImagesEEG,001,100442,
AFNE01.JPG,AFNE01.JPG,AFNE01.JPG,AFNE01.JPG,AFNE01.JPG,AFNE01.JPG,,,,,,,,,0,2,2,4,,,,,,,,,,,,,,,AMSA06.jpg,AMNE04.jpg,AMSA20.jpg,AMNE02.jpg,AMNE04.jpg,MN,1,num_6,16,num_6,1.13341879961,,,2017_May_09_1919,60.0038298242,MAFE4ImagesEEG,001,100442,
AFNE01.JPG,AFNE01.JPG,AFNE01.JPG,AFNE01.JPG,AFNE01.JPG,AFNE01.JPG,,,,,,,,,0,3,3,6,,,,,,,,,,,,,,,AMNE08.jpg,AMSA15.jpg,AMNE14.jpg,AMSA16.jpg,AMNE14.jpg,MN,1,num_2,32,num_4,0.733464536956,,,2017_May_09_1919,60.0038298242,MAFE4ImagesEEG,001,100442,
AFNE01.JPG,AFNE01.JPG,AFNE01.JPG,AFNE01.JPG,AFNE01.JPG,AFNE01.JPG,,,,,,,,,0,4,4,3,,,,,,,,,,,,,,,AMNE13.jpg,AMSA12.jpg,AMSA08.jpg,AMNE07.jpg,AMSA12.jpg,MS,2,num_6,32,num_2,0.96675058268,,,2017_May_09_1919,60.0038298242,MAFE4ImagesEEG,001,100442,
AFNE01.JPG,AFNE01.JPG,AFNE01.JPG,AFNE01.JPG,AFNE01.JPG,AFNE01.JPG,,,,,,,,,0,5,5,1,,,,,,,,,,,,,,,AMSA11.jpg,AMNE17.jpg,AMSA03.jpg,AMNE02.jpg,AMSA03.jpg,MS,2,num_2,32,num_4,0.766814345727,,,2017_May_09_1919,60.0038298242,MAFE4ImagesEEG,001,100442,
AFNE01.JPG,AFNE01.JPG,AFNE01.JPG,AFNE01.JPG,AFNE01.JPG,AFNE01.JPG,,,,,,,,,0,6,6,7,,,,,,,,,,,,,,,AMSA15.jpg,AMNE13.jpg,AMNE15.jpg,AMSA14.jpg,AMNE13.jpg,MN,1,num_6,16,num_6,0.683460672153,,,2017_May_09_1919,60.0038298242,MAFE4ImagesEEG,001,100442,
AFNE01.JPG,AFNE01.JPG,AFNE01.JPG,AFNE01.JPG,AFNE01.JPG,AFNE01.JPG,,,,,,,,,0,7,7,2,,,,,,,,,,,,,,,AMNE01.jpg,AMSA05.jpg,AMNE04.jpg,AMSA09.jpg,AMSA05.jpg,MS,2,num_6,32,num_2,1.45012555318,,,2017_May_09_1919,60.0038298242,MAFE4ImagesEEG,001,100442,
AFNE01.JPG,AFNE01.JPG,AFNE01.JPG,AFNE01.JPG,AFNE01.JPG,AFNE01.JPG,,,,,,,,,0,8,8,8,,,,,,,,,,,,,,,AMNE14.jpg,AMSA12.jpg,AMNE12.jpg,AMSA17.jpg,AMNE14.jpg,MN,1,num_8,16,num_8,1.53336921334,,,2017_May_09_1919,60.0038298242,MAFE4ImagesEEG,001,100442,
AFNE01.JPG,AFNE01.JPG,AFNE01.JPG,AFNE01.JPG,AFNE01.JPG,AFNE01.JPG,,,,,,,,,0,9,9,9,,,,,,,,,,,,,,,AMSA15.jpg,AMNE07.jpg,AMNE04.jpg,AMSA04.jpg,AMSA15.jpg,MS,2,num_8,32,num_4,0.916787772439,,,2017_May_09_1919,60.0038298242,MAFE4ImagesEEG,001,100442,
AFNE01.JPG,AFNE01.JPG,AFNE01.JPG,AFNE01.JPG,AFNE01.JPG,AFNE01.JPG,,,,,,,,,1,0,10,9,,,,,,,,,,,,,,,AMNE08.jpg,AMNE12.jpg,AMSA11.jpg,AMSA04.jpg,AMSA04.jpg,MS,2,num_4,16,num_4,0.833443721058,,,2017_May_09_1919,60.0038298242,MAFE4ImagesEEG,001,100442,
AFNE01.JPG,AFNE01.JPG,AFNE01.JPG,AFNE01.JPG,AFNE01.JPG,AFNE01.JPG,,,,,,,,,1,1,11,0,,,,,,,,,,,,,,,AMSA05.jpg,AMNE14.jpg,AMSA18.jpg,AMNE13.jpg,AMSA05.jpg,MS,2,num_8,32,num_2,1.18342523044,,,2017_May_09_1919,60.0038298242,MAFE4ImagesEEG,001,100442,
AFNE01.JPG,AFNE01.JPG,AFNE01.JPG,AFNE01.JPG,AFNE01.JPG,AFNE01.JPG,,,,,,,,,1,2,12,1,,,,,,,,,,,,,,,AMSA02.jpg,AMNE09.jpg,AMNE02.jpg,AMSA05.jpg,AMSA02.jpg,MS,2,num_8,32,num_6,1.0334492377,,,2017_May_09_1919,60.0038298242,MAFE4ImagesEEG,001,100442,
AFNE01.JPG,AFNE01.JPG,AFNE01.JPG,AFNE01.JPG,AFNE01.JPG,AFNE01.JPG,,,,,,,,,1,3,13,6,,,,,,,,,,,,,,,AMNE18.jpg,AMNE05.jpg,AMSA06.jpg,AMSA11.jpg,AMSA11.jpg,MS,2,num_4,16,num_4,0.9001632242,,,2017_May_09_1919,60.0038298242,MAFE4ImagesEEG,001,100442,
AFNE01.JPG,AFNE01.JPG,AFNE01.JPG,AFNE01.JPG,AFNE01.JPG,AFNE01.JPG,,,,,,,,,1,4,14,7,,,,,,,,,,,,,,,AMNE03.jpg,AMSA16.jpg,AMSA14.jpg,AMNE11.jpg,AMNE03.jpg,MN,1,num_8,16,num_8,0.766829099506,,,2017_May_09_1919,60.0038298242,MAFE4ImagesEEG,001,100442,
AFNE01.JPG,AFNE01.JPG,AFNE01.JPG,AFNE01.JPG,AFNE01.JPG,AFNE01.JPG,,,,,,,,,1,5,15,8,,,,,,,,,,,,,,,AMNE13.jpg,AMSA14.jpg,AMNE04.jpg,AMSA01.jpg,AMSA14.jpg,MS,2,num_6,32,num_2,1.26672085025,,,2017_May_09_1919,60.0038298242,MAFE4ImagesEEG,001,100442,
AFNE01.JPG,AFNE01.JPG,AFNE01.JPG,AFNE01.JPG,AFNE01.JPG,AFNE01.JPG,,,,,,,,,1,6,16,2,,,,,,,,,,,,,,,AMNE05.jpg,AMSA09.jpg,AMNE10.jpg,AMSA18.jpg,AMNE10.jpg,MN,1,num_2,16,num_2,0.950441000052,,,2017_May_09_1919,60.0038298242,MAFE4ImagesEEG,001,100442,
AFNE01.JPG,AFNE01.JPG,AFNE01.JPG,AFNE01.JPG,AFNE01.JPG,AFNE01.JPG,,,,,,,,,1,7,17,5,,,,,,,,,,,,,,,AMNE04.jpg,AMSA18.jpg,AMNE07.jpg,AMSA12.jpg,AMNE07.jpg,MN,1,num_2,32,num_6,0.9333747942,,,2017_May_09_1919,60.0038298242,MAFE4ImagesEEG,001,100442,
AFNE01.JPG,AFNE01.JPG,AFNE01.JPG,AFNE01.JPG,AFNE01.JPG,AFNE01.JPG,,,,,,,,,1,8,18,4,,,,,,,,,,,,,,,AMSA02.jpg,AMNE10.jpg,AMNE12.jpg,AMSA11.jpg,AMSA11.jpg,MS,2,num_4,16,num_4,0.800095516024,,,2017_May_09_1919,60.0038298242,MAFE4ImagesEEG,001,100442,
AFNE01.JPG,AFNE01.JPG,AFNE01.JPG,AFNE01.JPG,AFNE01.JPG,AFNE01.JPG,,,,,,,,,1,9,19,3,,,,,,,,,,,,,,,AMSA05.jpg,AMNE05.jpg,AMSA07.jpg,AMNE13.jpg,AMNE05.jpg,MN,1,num_6,32,num_8,0.966737432405,,,2017_May_09_1919,60.0038298242,MAFE4ImagesEEG,001,100442,
AFNE01.JPG,AFNE01.JPG,AFNE01.JPG,AFNE01.JPG,AFNE01.JPG,AFNE01.JPG,,,,,,,,,2,0,20,4,,,,,,,,,,,,,,,AMNE16.jpg,AMSA11.jpg,AMSA01.jpg,AMNE05.jpg,AMSA01.jpg,MS,2,num_2,32,num_4,0.983505030395,,,2017_May_09_1919,60.0038298242,MAFE4ImagesEEG,001,100442,
AFNE01.JPG,AFNE01.JPG,AFNE01.JPG,AFNE01.JPG,AFNE01.JPG,AFNE01.JPG,,,,,,,,,2,1,21,7,,,,,,,,,,,,,,,AMNE13.jpg,AMNE12.jpg,AMSA01.jpg,AMSA08.jpg,AMNE13.jpg,MN,1,num_8,32,num_6,0.733536061831,,,2017_May_09_1919,60.0038298242,MAFE4ImagesEEG,001,100442,
AFNE01.JPG,AFNE01.JPG,AFNE01.JPG,AFNE01.JPG,AFNE01.JPG,AFNE01.JPG,,,,,,,,,2,2,22,3,,,,,,,,,,,,,,,AMNE01.jpg,AMNE20.jpg,AMSA03.jpg,AMSA04.jpg,AMNE01.jpg,MN,1,num_8,32,num_4,1.06675606733,,,2017_May_09_1919,60.0038298242,MAFE4ImagesEEG,001,100442,
AFNE01.JPG,AFNE01.JPG,AFNE01.JPG,AFNE01.JPG,AFNE01.JPG,AFNE01.JPG,,,,,,,,,2,3,23,5,,,,,,,,,,,,,,,AMNE13.jpg,AMNE17.jpg,AMSA01.jpg,AMSA20.jpg,AMSA20.jpg,MS,2,num_4,32,num_2,1.20012771827,,,2017_May_09_1919,60.0038298242,MAFE4ImagesEEG,001,100442,
AFNE01.JPG,AFNE01.JPG,AFNE01.JPG,AFNE01.JPG,AFNE01.JPG,AFNE01.JPG,,,,,,,,,2,4,24,0,,,,,,,,,,,,,,,AMNE20.jpg,AMNE12.jpg,AMSA20.jpg,AMSA06.jpg,AMNE12.jpg,MN,1,num_6,32,num_4,1.13340917742,,,2017_May_09_1919,60.0038298242,MAFE4ImagesEEG,001,100442,
AFNE01.JPG,AFNE01.JPG,AFNE01.JPG,AFNE01.JPG,AFNE01.JPG,AFNE01.JPG,,,,,,,,,2,5,25,9,,,,,,,,,,,,,,,AMSA13.jpg,AMSA12.jpg,AMNE04.jpg,AMNE02.jpg,AMSA12.jpg,MS,2,num_6,16,num_6,1.15009113797,,,2017_May_09_1919,60.0038298242,MAFE4ImagesEEG,001,100442,
AFNE01.JPG,AFNE01.JPG,AFNE01.JPG,AFNE01.JPG,AFNE01.JPG,AFNE01.JPG,,,,,,,,,2,6,26,2,,,,,,,,,,,,,,,AMSA07.jpg,AMSA08.jpg,AMNE10.jpg,AMNE07.jpg,AMSA07.jpg,MS,2,num_8,16,num_8,1.01678427635,,,2017_May_09_1919,60.0038298242,MAFE4ImagesEEG,001,100442,
AFNE01.JPG,AFNE01.JPG,AFNE01.JPG,AFNE01.JPG,AFNE01.JPG,AFNE01.JPG,,,,,,,,,2,7,27,1,,,,,,,,,,,,,,,AMSA05.jpg,AMNE15.jpg,AMSA08.jpg,AMNE06.jpg,AMNE06.jpg,MN,1,num_4,16,num_4,1.16678047576,,,2017_May_09_1919,60.0038298242,MAFE4ImagesEEG,001,100442,
AFNE01.JPG,AFNE01.JPG,AFNE01.JPG,AFNE01.JPG,AFNE01.JPG,AFNE01.JPG,,,,,,,,,2,8,28,8,,,,,,,,,,,,,,,AMNE11.jpg,AMSA05.jpg,AMSA14.jpg,AMNE01.jpg,AMSA05.jpg,MS,2,num_6,32,num_4,0.950116091641,,,2017_May_09_1919,60.0038298242,MAFE4ImagesEEG,001,100442,
AFNE01.JPG,AFNE01.JPG,AFNE01.JPG,AFNE01.JPG,AFNE01.JPG,AFNE01.JPG,,,,,,,,,2,9,29,6,,,,,,,,,,,,,,,AMSA11.jpg,AMNE16.jpg,AMNE12.jpg,AMSA02.jpg,AMNE12.jpg,MN,1,num_2,16,num_2,1.15012032539,,,2017_May_09_1919,60.0038298242,MAFE4ImagesEEG,001,100442,
AFNE01.JPG,AFNE01.JPG,AFNE01.JPG,AFNE01.JPG,AFNE01.JPG,AFNE01.JPG,,,,,,,,,3,0,30,2,,,,,,,,,,,,,,,AMNE03.jpg,AMSA11.jpg,AMSA05.jpg,AMNE09.jpg,AMNE03.jpg,MN,1,num_8,16,num_8,1.0001180321,,,2017_May_09_1919,60.0038298242,MAFE4ImagesEEG,001,100442,
AFNE01.JPG,AFNE01.JPG,AFNE01.JPG,AFNE01.JPG,AFNE01.JPG,AFNE01.JPG,,,,,,,,,3,1,31,8,,,,,,,,,,,,,,,AMSA04.jpg,AMNE19.jpg,AMSA03.jpg,AMNE08.jpg,AMSA04.jpg,MS,2,num_8,32,num_2,0.933465884067,,,2017_May_09_1919,60.0038298242,MAFE4ImagesEEG,001,100442,
AFNE01.JPG,AFNE01.JPG,AFNE01.JPG,AFNE01.JPG,AFNE01.JPG,AFNE01.JPG,,,,,,,,,3,2,32,7,,,,,,,,,,,,,,,AMSA10.jpg,AMSA17.jpg,AMNE06.jpg,AMNE09.jpg,AMNE06.jpg,MN,1,num_2,32,num_8,1.3833989941,,,2017_May_09_1919,60.0038298242,MAFE4ImagesEEG,001,100442,
AFNE01.JPG,AFNE01.JPG,AFNE01.JPG,AFNE01.JPG,AFNE01.JPG,AFNE01.JPG,,,,,,,,,3,3,33,5,,,,,,,,,,,,,,,AMNE15.jpg,AMSA04.jpg,AMNE18.jpg,AMSA12.jpg,AMSA04.jpg,MS,2,num_6,16,num_6,1.03348067007,,,2017_May_09_1919,60.0038298242,MAFE4ImagesEEG,001,100442,
AFNE01.JPG,AFNE01.JPG,AFNE01.JPG,AFNE01.JPG,AFNE01.JPG,AFNE01.JPG,,,,,,,,,3,4,34,9,,,,,,,,,,,,,,,AMNE08.jpg,AMSA17.jpg,AMSA07.jpg,AMNE11.jpg,AMSA07.jpg,MS,2,num_2,32,num_6,0.816730007296,,,2017_May_09_1919,60.0038298242,MAFE4ImagesEEG,001,100442,
AFNE01.JPG,AFNE01.JPG,AFNE01.JPG,AFNE01.JPG,AFNE01.JPG,AFNE01.JPG,,,,,,,,,3,5,35,6,,,,,,,,,,,,,,,AMSA16.jpg,AMNE01.jpg,AMSA08.jpg,AMNE16.jpg,AMNE01.jpg,MN,1,num_6,32,num_4,1.68343982403,,,2017_May_09_1919,60.0038298242,MAFE4ImagesEEG,001,100442,
AFNE01.JPG,AFNE01.JPG,AFNE01.JPG,AFNE01.JPG,AFNE01.JPG,AFNE01.JPG,,,,,,,,,3,6,36,1,,,,,,,,,,,,,,,AMSA05.jpg,AMNE05.jpg,AMSA01.jpg,AMNE18.jpg,AMSA01.jpg,MS,2,num_2,32,num_4,1.35012006876,,,2017_May_09_1919,60.0038298242,MAFE4ImagesEEG,001,100442,
AFNE01.JPG,AFNE01.JPG,AFNE01.JPG,AFNE01.JPG,AFNE01.JPG,AFNE01.JPG,,,,,,,,,3,7,37,4,,,,,,,,,,,,,,,AMNE10.jpg,AMSA01.jpg,AMSA14.jpg,AMNE17.jpg,AMNE17.jpg,MN,1,num_4,32,num_2,1.00013631419,,,2017_May_09_1919,60.0038298242,MAFE4ImagesEEG,001,100442,
AFNE01.JPG,AFNE01.JPG,AFNE01.JPG,AFNE01.JPG,AFNE01.JPG,AFNE01.JPG,,,,,,,,,3,8,38,3,,,,,,,,,,,,,,,AMNE11.jpg,AMNE15.jpg,AMSA05.jpg,AMSA11.jpg,AMNE15.jpg,MN,1,num_6,16,num_6,0.816782287788,,,2017_May_09_1919,60.0038298242,MAFE4ImagesEEG,001,100442,
AFNE01.JPG,AFNE01.JPG,AFNE01.JPG,AFNE01.JPG,AFNE01.JPG,AFNE01.JPG,,,,,,,,,3,9,39,0,,,,,,,,,,,,,,,AMSA11.jpg,AMNE12.jpg,AMNE20.jpg,AMSA05.jpg,AMNE12.jpg,MN,1,num_6,32,num_4,0.783337861067,,,2017_May_09_1919,60.0038298242,MAFE4ImagesEEG,001,100442,
AFNE01.JPG,AFNE01.JPG,AFNE01.JPG,AFNE01.JPG,AFNE01.JPG,AFNE01.JPG,,,,,,,,,4,0,40,3,,,,,,,,,,,,,,,AMSA05.jpg,AMSA12.jpg,AMNE12.jpg,AMNE20.jpg,AMNE12.jpg,MN,1,num_2,32,num_6,0.700226666173,,,2017_May_09_1919,60.0038298242,MAFE4ImagesEEG,001,100442,
AFNE01.JPG,AFNE01.JPG,AFNE01.JPG,AFNE01.JPG,AFNE01.JPG,AFNE01.JPG,,,,,,,,,4,1,41,7,,,,,,,,,,,,,,,AMSA05.jpg,AMNE07.jpg,AMNE04.jpg,AMSA15.jpg,AMSA05.jpg,MS,2,num_8,32,num_4,0.950112563325,,,2017_May_09_1919,60.0038298242,MAFE4ImagesEEG,001,100442,
AFNE01.JPG,AFNE01.JPG,AFNE01.JPG,AFNE01.JPG,AFNE01.JPG,AFNE01.JPG,,,,,,,,,4,2,42,2,,,,,,,,,,,,,,,AMSA19.jpg,AMNE04.jpg,AMSA17.jpg,AMNE19.jpg,AMSA19.jpg,MS,2,num_8,32,num_2,2.08331775083,,,2017_May_09_1919,60.0038298242,MAFE4ImagesEEG,001,100442,
AFNE01.JPG,AFNE01.JPG,AFNE01.JPG,AFNE01.JPG,AFNE01.JPG,AFNE01.JPG,,,,,,,,,4,3,43,8,,,,,,,,,,,,,,,AMSA02.jpg,AMSA16.jpg,AMNE15.jpg,AMNE13.jpg,AMNE15.jpg,MN,1,num_2,32,num_6,0.800166399451,,,2017_May_09_1919,60.0038298242,MAFE4ImagesEEG,001,100442,
AFNE01.JPG,AFNE01.JPG,AFNE01.JPG,AFNE01.JPG,AFNE01.JPG,AFNE01.JPG,,,,,,,,,4,4,44,0,,,,,,,,,,,,,,,AMNE10.jpg,AMNE13.jpg,AMSA14.jpg,AMSA10.jpg,AMSA14.jpg,MS,2,num_2,32,num_8,1.08341910434,,,2017_May_09_1919,60.0038298242,MAFE4ImagesEEG,001,100442,
AFNE01.JPG,AFNE01.JPG,AFNE01.JPG,AFNE01.JPG,AFNE01.JPG,AFNE01.JPG,,,,,,,,,4,5,45,4,,,,,,,,,,,,,,,AMSA10.jpg,AMSA16.jpg,AMNE12.jpg,AMNE09.jpg,AMNE09.jpg,MN,1,num_4,32,num_2,1.06681636651,,,2017_May_09_1919,60.0038298242,MAFE4ImagesEEG,001,100442,
AFNE01.JPG,AFNE01.JPG,AFNE01.JPG,AFNE01.JPG,AFNE01.JPG,AFNE01.JPG,,,,,,,,,4,6,46,9,,,,,,,,,,,,,,,AMNE04.jpg,AMSA05.jpg,AMSA03.jpg,AMNE02.jpg,AMSA03.jpg,MS,2,num_2,32,num_6,0.850159680005,,,2017_May_09_1919,60.0038298242,MAFE4ImagesEEG,001,100442,
AFNE01.JPG,AFNE01.JPG,AFNE01.JPG,AFNE01.JPG,AFNE01.JPG,AFNE01.JPG,,,,,,,,,4,7,47,5,,,,,,,,,,,,,,,AMSA05.jpg,AMNE11.jpg,AMSA15.jpg,AMNE18.jpg,AMSA05.jpg,MS,2,num_8,32,num_2,1.21682154643,,,2017_May_09_1919,60.0038298242,MAFE4ImagesEEG,001,100442,
AFNE01.JPG,AFNE01.JPG,AFNE01.JPG,AFNE01.JPG,AFNE01.JPG,AFNE01.JPG,,,,,,,,,4,8,48,6,,,,,,,,,,,,,,,AMSA06.jpg,AMSA09.jpg,AMNE20.jpg,AMNE08.jpg,AMNE20.jpg,MN,1,num_2,32,num_8,1.08355798433,,,2017_May_09_1919,60.0038298242,MAFE4ImagesEEG,001,100442,
AFNE01.JPG,AFNE01.JPG,AFNE01.JPG,AFNE01.JPG,AFNE01.JPG,AFNE01.JPG,,,,,,,,,4,9,49,1,,,,,,,,,,,,,,,AMSA13.jpg,AMSA03.jpg,AMNE08.jpg,AMNE04.jpg,AMSA13.jpg,MS,2,num_8,16,num_8,1.2000635704,,,2017_May_09_1919,60.0038298242,MAFE4ImagesEEG,001,100442,
AFNE01.JPG,AFNE01.JPG,AFNE01.JPG,AFNE01.JPG,AFNE01.JPG,AFNE01.JPG,,,,,,,,,5,0,50,7,,,,,,,,,,,,,,,AMNE16.jpg,AMSA09.jpg,AMSA15.jpg,AMNE06.jpg,AMNE16.jpg,MN,1,num_8,32,num_4,0.78345781751,,,2017_May_09_1919,60.0038298242,MAFE4ImagesEEG,001,100442,
AFNE01.JPG,AFNE01.JPG,AFNE01.JPG,AFNE01.JPG,AFNE01.JPG,AFNE01.JPG,,,,,,,,,5,1,51,1,,,,,,,,,,,,,,,AMNE16.jpg,AMNE08.jpg,AMSA16.jpg,AMSA06.jpg,AMNE16.jpg,MN,1,num_8,16,num_8,0.783476099838,,,2017_May_09_1919,60.0038298242,MAFE4ImagesEEG,001,100442,
AFNE01.JPG,AFNE01.JPG,AFNE01.JPG,AFNE01.JPG,AFNE01.JPG,AFNE01.JPG,,,,,,,,,5,2,52,8,,,,,,,,,,,,,,,AMNE13.jpg,AMSA19.jpg,AMNE14.jpg,AMSA16.jpg,AMSA19.jpg,MS,2,num_6,16,num_6,0.783420611639,,,2017_May_09_1919,60.0038298242,MAFE4ImagesEEG,001,100442,
AFNE01.JPG,AFNE01.JPG,AFNE01.JPG,AFNE01.JPG,AFNE01.JPG,AFNE01.JPG,,,,,,,,,5,3,53,2,,,,,,,,,,,,,,,AMNE17.jpg,AMSA01.jpg,AMSA02.jpg,AMNE16.jpg,AMNE17.jpg,MN,1,num_8,32,num_4,0.716713938396,,,2017_May_09_1919,60.0038298242,MAFE4ImagesEEG,001,100442,
AFNE01.JPG,AFNE01.JPG,AFNE01.JPG,AFNE01.JPG,AFNE01.JPG,AFNE01.JPG,,,,,,,,,5,4,54,6,,,,,,,,,,,,,,,AMSA01.jpg,AMNE10.jpg,AMNE17.jpg,AMSA19.jpg,AMSA01.jpg,MS,2,num_8,32,num_6,1.36671222234,,,2017_May_09_1919,60.0038298242,MAFE4ImagesEEG,001,100442,
AFNE01.JPG,AFNE01.JPG,AFNE01.JPG,AFNE01.JPG,AFNE01.JPG,AFNE01.JPG,,,,,,,,,5,5,55,9,,,,,,,,,,,,,,,AMNE08.jpg,AMNE14.jpg,AMSA08.jpg,AMSA04.jpg,AMSA04.jpg,MS,2,num_4,32,num_6,0.916806375375,,,2017_May_09_1919,60.0038298242,MAFE4ImagesEEG,001,100442,
AFNE01.JPG,AFNE01.JPG,AFNE01.JPG,AFNE01.JPG,AFNE01.JPG,AFNE01.JPG,,,,,,,,,5,6,56,5,,,,,,,,,,,,,,,AMSA16.jpg,AMSA17.jpg,AMNE19.jpg,AMNE15.jpg,AMSA16.jpg,MS,2,num_8,32,num_4,0.883493451634,,,2017_May_09_1919,60.0038298242,MAFE4ImagesEEG,001,100442,
AFNE01.JPG,AFNE01.JPG,AFNE01.JPG,AFNE01.JPG,AFNE01.JPG,AFNE01.JPG,,,,,,,,,5,7,57,0,,,,,,,,,,,,,,,AMSA18.jpg,AMNE10.jpg,AMNE14.jpg,AMSA13.jpg,AMSA13.jpg,MS,2,num_4,32,num_2,1.08351757121,,,2017_May_09_1919,60.0038298242,MAFE4ImagesEEG,001,100442,
AFNE01.JPG,AFNE01.JPG,AFNE01.JPG,AFNE01.JPG,AFNE01.JPG,AFNE01.JPG,,,,,,,,,5,8,58,4,,,,,,,,,,,,,,,AMSA02.jpg,AMNE14.jpg,AMSA19.jpg,AMNE08.jpg,AMNE14.jpg,MN,1,num_6,16,num_6,0.950088187121,,,2017_May_09_1919,60.0038298242,MAFE4ImagesEEG,001,100442,
AFNE01.JPG,AFNE01.JPG,AFNE01.JPG,AFNE01.JPG,AFNE01.JPG,AFNE01.JPG,,,,,,,,,5,9,59,3,,,,,,,,,,,,,,,AMNE15.jpg,AMSA11.jpg,AMNE01.jpg,AMSA18.jpg,AMSA11.jpg,MS,2,num_6,32,num_4,0.850110286148,,,2017_May_09_1919,60.0038298242,MAFE4ImagesEEG,001,100442,
,,,,,,,,,,,,,,,,,,,,,,,,,,,,,,,,,,,,,,,,,,,space,6.78327980731,2017_May_09_1919,60.0038298242,MAFE4ImagesEEG,001,100442,
AFNE01.JPG,AFNE01.JPG,AFNE01.JPG,AFNE01.JPG,AFNE01.JPG,AFNE01.JPG,,,,,,,,,,,,,0,0,0,7,,,,,,,,,,,AFNE16.jpg,AFSA02.jpg,AFNE06.jpg,AFSA01.jpg,AFNE16.jpg,FN,3,num_8,32,num_6,1.10009432933,,,2017_May_09_1919,60.0038298242,MAFE4ImagesEEG,001,100442,
AFNE01.JPG,AFNE01.JPG,AFNE01.JPG,AFNE01.JPG,AFNE01.JPG,AFNE01.JPG,,,,,,,,,,,,,0,1,1,6,,,,,,,,,,,AFSA20.jpg,AFSA10.jpg,AFNE20.jpg,AFNE14.jpg,AFSA10.jpg,FS,4,num_6,32,num_4,0.783407140756,,,2017_May_09_1919,60.0038298242,MAFE4ImagesEEG,001,100442,
AFNE01.JPG,AFNE01.JPG,AFNE01.JPG,AFNE01.JPG,AFNE01.JPG,AFNE01.JPG,,,,,,,,,,,,,0,2,2,1,,,,,,,,,,,AFSA16.jpg,AFNE10.jpg,AFNE09.jpg,AFSA10.jpg,AFNE09.jpg,FN,3,num_2,32,num_8,0.933465242619,,,2017_May_09_1919,60.0038298242,MAFE4ImagesEEG,001,100442,
AFNE01.JPG,AFNE01.JPG,AFNE01.JPG,AFNE01.JPG,AFNE01.JPG,AFNE01.JPG,,,,,,,,,,,,,0,3,3,3,,,,,,,,,,,AFSA07.jpg,AFNE17.jpg,AFNE05.jpg,AFSA10.jpg,AFNE17.jpg,FN,3,num_6,32,num_2,1.46679532598,,,2017_May_09_1919,60.0038298242,MAFE4ImagesEEG,001,100442,
AFNE01.JPG,AFNE01.JPG,AFNE01.JPG,AFNE01.JPG,AFNE01.JPG,AFNE01.JPG,,,,,,,,,,,,,0,4,4,2,,,,,,,,,,,AFNE01.jpg,AFNE12.jpg,AFSA19.jpg,AFSA17.jpg,AFSA17.jpg,FS,4,num_4,32,num_8,1.00014786073,,,2017_May_09_1919,60.0038298242,MAFE4ImagesEEG,001,100442,
AFNE01.JPG,AFNE01.JPG,AFNE01.JPG,AFNE01.JPG,AFNE01.JPG,AFNE01.JPG,,,,,,,,,,,,,0,5,5,4,,,,,,,,,,,AFNE14.jpg,AFSA20.jpg,AFSA14.jpg,AFNE02.jpg,AFNE02.jpg,FN,3,num_4,32,num_6,0.866888789227,,,2017_May_09_1919,60.0038298242,MAFE4ImagesEEG,001,100442,
AFNE01.JPG,AFNE01.JPG,AFNE01.JPG,AFNE01.JPG,AFNE01.JPG,AFNE01.JPG,,,,,,,,,,,,,0,6,6,5,,,,,,,,,,,AFSA14.jpg,AFSA06.jpg,AFNE06.jpg,AFNE16.jpg,AFSA06.jpg,FS,4,num_6,32,num_8,0.916745113907,,,2017_May_09_1919,60.0038298242,MAFE4ImagesEEG,001,100442,
AFNE01.JPG,AFNE01.JPG,AFNE01.JPG,AFNE01.JPG,AFNE01.JPG,AFNE01.JPG,,,,,,,,,,,,,0,7,7,8,,,,,,,,,,,AFSA12.jpg,AFNE09.jpg,AFNE02.jpg,AFSA15.jpg,AFNE09.jpg,FN,3,num_6,16,num_6,0.800191737711,,,2017_May_09_1919,60.0038298242,MAFE4ImagesEEG,001,100442,
AFNE01.JPG,AFNE01.JPG,AFNE01.JPG,AFNE01.JPG,AFNE01.JPG,AFNE01.JPG,,,,,,,,,,,,,0,8,8,9,,,,,,,,,,,AFSA10.jpg,AFNE12.jpg,AFNE02.jpg,AFSA16.jpg,AFSA10.jpg,FS,4,num_8,16,num_8,1.20013124659,,,2017_May_09_1919,60.0038298242,MAFE4ImagesEEG,001,100442,
AFNE01.JPG,AFNE01.JPG,AFNE01.JPG,AFNE01.JPG,AFNE01.JPG,AFNE01.JPG,,,,,,,,,,,,,0,9,9,0,,,,,,,,,,,AFSA15.jpg,AFNE03.jpg,AFSA20.jpg,AFNE05.jpg,AFNE05.jpg,FN,3,num_4,16,num_4,1.10016681626,,,2017_May_09_1919,60.0038298242,MAFE4ImagesEEG,001,100442,
AFNE01.JPG,AFNE01.JPG,AFNE01.JPG,AFNE01.JPG,AFNE01.JPG,AFNE01.JPG,,,,,,,,,,,,,1,0,10,3,,,,,,,,,,,AFSA01.jpg,AFSA20.jpg,AFNE06.jpg,AFNE05.jpg,AFSA20.jpg,FS,4,num_6,32,num_8,1.0003499263,,,2017_May_09_1919,60.0038298242,MAFE4ImagesEEG,001,100442,
AFNE01.JPG,AFNE01.JPG,AFNE01.JPG,AFNE01.JPG,AFNE01.JPG,AFNE01.JPG,,,,,,,,,,,,,1,1,11,8,,,,,,,,,,,AFSA13.jpg,AFNE12.jpg,AFSA02.jpg,AFNE19.jpg,AFNE12.jpg,FN,3,num_6,16,num_6,1.35005335486,,,2017_May_09_1919,60.0038298242,MAFE4ImagesEEG,001,100442,
AFNE01.JPG,AFNE01.JPG,AFNE01.JPG,AFNE01.JPG,AFNE01.JPG,AFNE01.JPG,,,,,,,,,,,,,1,2,12,7,,,,,,,,,,,AFSA18.jpg,AFNE10.jpg,AFSA14.jpg,AFNE08.jpg,AFSA14.jpg,FS,4,num_2,32,num_8,1.18343100371,,,2017_May_09_1919,60.0038298242,MAFE4ImagesEEG,001,100442,
AFNE01.JPG,AFNE01.JPG,AFNE01.JPG,AFNE01.JPG,AFNE01.JPG,AFNE01.JPG,,,,,,,,,,,,,1,3,13,0,,,,,,,,,,,AFSA02.jpg,AFNE10.jpg,AFNE02.jpg,AFSA05.jpg,AFSA05.jpg,FS,4,num_4,16,num_4,0.650161540369,,,2017_May_09_1919,60.0038298242,MAFE4ImagesEEG,001,100442,
AFNE01.JPG,AFNE01.JPG,AFNE01.JPG,AFNE01.JPG,AFNE01.JPG,AFNE01.JPG,,,,,,,,,,,,,1,4,14,6,,,,,,,,,,,AFNE02.jpg,AFSA03.jpg,AFNE06.jpg,AFSA11.jpg,AFSA03.jpg,FS,4,num_6,32,num_4,1.18346949248,,,2017_May_09_1919,60.0038298242,MAFE4ImagesEEG,001,100442,
AFNE01.JPG,AFNE01.JPG,AFNE01.JPG,AFNE01.JPG,AFNE01.JPG,AFNE01.JPG,,,,,,,,,,,,,1,5,15,9,,,,,,,,,,,AFSA20.jpg,AFSA07.jpg,AFNE04.jpg,AFNE05.jpg,AFSA07.jpg,FS,4,num_6,32,num_2,1.1667435905,,,2017_May_09_1919,60.0038298242,MAFE4ImagesEEG,001,100442,
AFNE01.JPG,AFNE01.JPG,AFNE01.JPG,AFNE01.JPG,AFNE01.JPG,AFNE01.JPG,,,,,,,,,,,,,1,6,16,5,,,,,,,,,,,AFSA01.jpg,AFNE17.jpg,AFNE01.jpg,AFSA17.jpg,AFSA17.jpg,FS,4,num_4,32,num_6,1.23346437654,,,2017_May_09_1919,60.0038298242,MAFE4ImagesEEG,001,100442,
AFNE01.JPG,AFNE01.JPG,AFNE01.JPG,AFNE01.JPG,AFNE01.JPG,AFNE01.JPG,,,,,,,,,,,,,1,7,17,1,,,,,,,,,,,AFSA17.jpg,AFNE17.jpg,AFSA03.jpg,AFNE09.jpg,AFSA03.jpg,FS,4,num_2,32,num_8,0.733457480557,,,2017_May_09_1919,60.0038298242,MAFE4ImagesEEG,001,100442,
AFNE01.JPG,AFNE01.JPG,AFNE01.JPG,AFNE01.JPG,AFNE01.JPG,AFNE01.JPG,,,,,,,,,,,,,1,8,18,2,,,,,,,,,,,AFSA19.jpg,AFNE09.jpg,AFSA20.jpg,AFNE07.jpg,AFSA19.jpg,FS,4,num_8,16,num_8,0.949991965434,,,2017_May_09_1919,60.0038298242,MAFE4ImagesEEG,001,100442,
AFNE01.JPG,AFNE01.JPG,AFNE01.JPG,AFNE01.JPG,AFNE01.JPG,AFNE01.JPG,,,,,,,,,,,,,1,9,19,4,,,,,,,,,,,AFSA04.jpg,AFNE05.jpg,AFSA13.jpg,AFNE08.jpg,AFSA04.jpg,FS,4,num_8,16,num_8,0.66681687953,,,2017_May_09_1919,60.0038298242,MAFE4ImagesEEG,001,100442,
AFNE01.JPG,AFNE01.JPG,AFNE01.JPG,AFNE01.JPG,AFNE01.JPG,AFNE01.JPG,,,,,,,,,,,,,2,0,20,3,,,,,,,,,,,AFNE06.jpg,AFNE09.jpg,AFSA13.jpg,AFSA04.jpg,AFSA13.jpg,FS,4,num_2,32,num_6,1.08342904737,,,2017_May_09_1919,60.0038298242,MAFE4ImagesEEG,001,100442,
AFNE01.JPG,AFNE01.JPG,AFNE01.JPG,AFNE01.JPG,AFNE01.JPG,AFNE01.JPG,,,,,,,,,,,,,2,1,21,4,,,,,,,,,,,AFSA07.jpg,AFNE18.jpg,AFSA19.jpg,AFNE12.jpg,AFNE12.jpg,FN,3,num_4,16,num_4,0.633389452007,,,2017_May_09_1919,60.0038298242,MAFE4ImagesEEG,001,100442,
AFNE01.JPG,AFNE01.JPG,AFNE01.JPG,AFNE01.JPG,AFNE01.JPG,AFNE01.JPG,,,,,,,,,,,,,2,2,22,0,,,,,,,,,,,AFNE14.jpg,AFSA16.jpg,AFSA02.jpg,AFNE08.jpg,AFSA02.jpg,FS,4,num_2,32,num_4,1.11672016047,,,2017_May_09_1919,60.0038298242,MAFE4ImagesEEG,001,100442,
AFNE01.JPG,AFNE01.JPG,AFNE01.JPG,AFNE01.JPG,AFNE01.JPG,AFNE01.JPG,,,,,,,,,,,,,2,3,23,7,,,,,,,,,,,AFNE14.jpg,AFSA03.jpg,AFNE01.jpg,AFSA20.jpg,AFSA20.jpg,FS,4,num_4,32,num_6,0.766750839306,,,2017_May_09_1919,60.0038298242,MAFE4ImagesEEG,001,100442,
AFNE01.JPG,AFNE01.JPG,AFNE01.JPG,AFNE01.JPG,AFNE01.JPG,AFNE01.JPG,,,,,,,,,,,,,2,4,24,9,,,,,,,,,,,AFNE12.jpg,AFSA15.jpg,AFSA02.jpg,AFNE19.jpg,AFNE12.jpg,FN,3,num_8,16,num_8,0.766742500244,,,2017_May_09_1919,60.0038298242,MAFE4ImagesEEG,001,100442,
AFNE01.JPG,AFNE01.JPG,AFNE01.JPG,AFNE01.JPG,AFNE01.JPG,AFNE01.JPG,,,,,,,,,,,,,2,5,25,8,,,,,,,,,,,AFSA14.jpg,AFNE16.jpg,AFSA03.jpg,AFNE07.jpg,AFNE07.jpg,FN,3,num_4,32,num_8,1.7333882011,,,2017_May_09_1919,60.0038298242,MAFE4ImagesEEG,001,100442,
AFNE01.JPG,AFNE01.JPG,AFNE01.JPG,AFNE01.JPG,AFNE01.JPG,AFNE01.JPG,,,,,,,,,,,,,2,6,26,1,,,,,,,,,,,AFNE14.jpg,AFSA12.jpg,AFSA06.jpg,AFNE07.jpg,AFNE14.jpg,FN,3,num_8,32,num_4,0.833319595084,,,2017_May_09_1919,60.0038298242,MAFE4ImagesEEG,001,100442,
AFNE01.JPG,AFNE01.JPG,AFNE01.JPG,AFNE01.JPG,AFNE01.JPG,AFNE01.JPG,,,,,,,,,,,,,2,7,27,6,,,,,,,,,,,AFSA11.jpg,AFSA02.jpg,AFNE07.jpg,AFNE08.jpg,AFNE07.jpg,FN,3,num_2,32,num_4,0.800106100505,,,2017_May_09_1919,60.0038298242,MAFE4ImagesEEG,001,100442,
AFNE01.JPG,AFNE01.JPG,AFNE01.JPG,AFNE01.JPG,AFNE01.JPG,AFNE01.JPG,,,,,,,,,,,,,2,8,28,5,,,,,,,,,,,AFSA08.jpg,AFNE08.jpg,AFNE19.jpg,AFSA04.jpg,AFNE19.jpg,FN,3,num_2,16,num_2,1.5500697766,,,2017_May_09_1919,60.0038298242,MAFE4ImagesEEG,001,100442,
AFNE01.JPG,AFNE01.JPG,AFNE01.JPG,AFNE01.JPG,AFNE01.JPG,AFNE01.JPG,,,,,,,,,,,,,2,9,29,2,,,,,,,,,,,AFNE13.jpg,AFSA07.jpg,AFSA02.jpg,AFNE04.jpg,AFNE04.jpg,FN,3,num_4,16,num_4,0.950086262776,,,2017_May_09_1919,60.0038298242,MAFE4ImagesEEG,001,100442,
AFNE01.JPG,AFNE01.JPG,AFNE01.JPG,AFNE01.JPG,AFNE01.JPG,AFNE01.JPG,,,,,,,,,,,,,3,0,30,3,,,,,,,,,,,AFNE01.jpg,AFNE19.jpg,AFSA08.jpg,AFSA18.jpg,AFNE19.jpg,FN,3,num_6,16,num_6,1.16679426725,,,2017_May_09_1919,60.0038298242,MAFE4ImagesEEG,001,100442,
AFNE01.JPG,AFNE01.JPG,AFNE01.JPG,AFNE01.JPG,AFNE01.JPG,AFNE01.JPG,,,,,,,,,,,,,3,1,31,4,,,,,,,,,,,AFNE18.jpg,AFSA05.jpg,AFNE11.jpg,AFSA07.jpg,AFNE11.jpg,FN,3,num_2,32,num_6,1.28342141351,,,2017_May_09_1919,60.0038298242,MAFE4ImagesEEG,001,100442,
AFNE01.JPG,AFNE01.JPG,AFNE01.JPG,AFNE01.JPG,AFNE01.JPG,AFNE01.JPG,,,,,,,,,,,,,3,2,32,8,,,,,,,,,,,AFNE02.jpg,AFSA05.jpg,AFSA12.jpg,AFNE05.jpg,AFNE02.jpg,FN,3,num_8,32,num_4,0.583487903001,,,2017_May_09_1919,60.0038298242,MAFE4ImagesEEG,001,100442,
AFNE01.JPG,AFNE01.JPG,AFNE01.JPG,AFNE01.JPG,AFNE01.JPG,AFNE01.JPG,,,,,,,,,,,,,3,3,33,5,,,,,,,,,,,AFSA12.jpg,AFNE02.jpg,AFNE18.jpg,AFSA04.jpg,AFNE02.jpg,FN,3,num_6,16,num_6,0.766759499209,,,2017_May_09_1919,60.0038298242,MAFE4ImagesEEG,001,100442,
AFNE01.JPG,AFNE01.JPG,AFNE01.JPG,AFNE01.JPG,AFNE01.JPG,AFNE01.JPG,,,,,,,,,,,,,3,4,34,2,,,,,,,,,,,AFSA01.jpg,AFNE14.jpg,AFNE08.jpg,AFSA03.jpg,AFSA03.jpg,FS,4,num_4,32,num_8,0.966804466909,,,2017_May_09_1919,60.0038298242,MAFE4ImagesEEG,001,100442,
AFNE01.JPG,AFNE01.JPG,AFNE01.JPG,AFNE01.JPG,AFNE01.JPG,AFNE01.JPG,,,,,,,,,,,,,3,5,35,9,,,,,,,,,,,AFSA04.jpg,AFNE06.jpg,AFNE05.jpg,AFSA14.jpg,AFNE06.jpg,FN,3,num_6,16,num_6,0.800100006396,,,2017_May_09_1919,60.0038298242,MAFE4ImagesEEG,001,100442,
AFNE01.JPG,AFNE01.JPG,AFNE01.JPG,AFNE01.JPG,AFNE01.JPG,AFNE01.JPG,,,,,,,,,,,,,3,6,36,6,,,,,,,,,,,AFSA10.jpg,AFNE10.jpg,AFNE18.jpg,AFSA14.jpg,AFNE10.jpg,FN,3,num_6,32,num_4,0.883425455075,,,2017_May_09_1919,60.0038298242,MAFE4ImagesEEG,001,100442,
AFNE01.JPG,AFNE01.JPG,AFNE01.JPG,AFNE01.JPG,AFNE01.JPG,AFNE01.JPG,,,,,,,,,,,,,3,7,37,0,,,,,,,,,,,AFSA05.jpg,AFNE02.jpg,AFSA17.jpg,AFNE16.jpg,AFSA05.jpg,FS,4,num_8,16,num_8,0.716768143233,,,2017_May_09_1919,60.0038298242,MAFE4ImagesEEG,001,100442,
AFNE01.JPG,AFNE01.JPG,AFNE01.JPG,AFNE01.JPG,AFNE01.JPG,AFNE01.JPG,,,,,,,,,,,,,3,8,38,1,,,,,,,,,,,AFNE19.jpg,AFSA01.jpg,AFSA11.jpg,AFNE02.jpg,AFSA11.jpg,FS,4,num_2,32,num_6,1.60012624296,,,2017_May_09_1919,60.0038298242,MAFE4ImagesEEG,001,100442,
AFNE01.JPG,AFNE01.JPG,AFNE01.JPG,AFNE01.JPG,AFNE01.JPG,AFNE01.JPG,,,,,,,,,,,,,3,9,39,7,,,,,,,,,,,AFSA16.jpg,AFSA04.jpg,AFNE16.jpg,AFNE06.jpg,AFSA16.jpg,FS,4,num_8,16,num_8,0.883429945214,,,2017_May_09_1919,60.0038298242,MAFE4ImagesEEG,001,100442,
AFNE01.JPG,AFNE01.JPG,AFNE01.JPG,AFNE01.JPG,AFNE01.JPG,AFNE01.JPG,,,,,,,,,,,,,4,0,40,6,,,,,,,,,,,AFNE04.jpg,AFNE08.jpg,AFSA18.jpg,AFSA06.jpg,AFSA06.jpg,FS,4,num_4,32,num_6,1.33342367481,,,2017_May_09_1919,60.0038298242,MAFE4ImagesEEG,001,100442,
AFNE01.JPG,AFNE01.JPG,AFNE01.JPG,AFNE01.JPG,AFNE01.JPG,AFNE01.JPG,,,,,,,,,,,,,4,1,41,5,,,,,,,,,,,AFSA16.jpg,AFNE16.jpg,AFNE15.jpg,AFSA07.jpg,AFNE15.jpg,FN,3,num_2,32,num_4,0.833498246735,,,2017_May_09_1919,60.0038298242,MAFE4ImagesEEG,001,100442,
AFNE01.JPG,AFNE01.JPG,AFNE01.JPG,AFNE01.JPG,AFNE01.JPG,AFNE01.JPG,,,,,,,,,,,,,4,2,42,9,,,,,,,,,,,AFSA04.jpg,AFSA11.jpg,AFNE02.jpg,AFNE20.jpg,AFNE02.jpg,FN,3,num_2,32,num_4,0.766739613377,,,2017_May_09_1919,60.0038298242,MAFE4ImagesEEG,001,100442,
AFNE01.JPG,AFNE01.JPG,AFNE01.JPG,AFNE01.JPG,AFNE01.JPG,AFNE01.JPG,,,,,,,,,,,,,4,3,43,7,,,,,,,,,,,AFSA10.jpg,AFNE17.jpg,AFNE09.jpg,AFSA04.jpg,AFSA04.jpg,FS,4,num_4,16,num_4,0.833468738711,,,2017_May_09_1919,60.0038298242,MAFE4ImagesEEG,001,100442,
AFNE01.JPG,AFNE01.JPG,AFNE01.JPG,AFNE01.JPG,AFNE01.JPG,AFNE01.JPG,,,,,,,,,,,,,4,4,44,2,,,,,,,,,,,AFNE04.jpg,AFSA19.jpg,AFSA05.jpg,AFNE08.jpg,AFNE08.jpg,FN,3,num_4,16,num_4,1.01674033515,,,2017_May_09_1919,60.0038298242,MAFE4ImagesEEG,001,100442,
AFNE01.JPG,AFNE01.JPG,AFNE01.JPG,AFNE01.JPG,AFNE01.JPG,AFNE01.JPG,,,,,,,,,,,,,4,5,45,1,,,,,,,,,,,AFSA18.jpg,AFNE08.jpg,AFSA06.jpg,AFNE09.jpg,AFNE09.jpg,FN,3,num_4,32,num_6,0.633510049665,,,2017_May_09_1919,60.0038298242,MAFE4ImagesEEG,001,100442,
AFNE01.JPG,AFNE01.JPG,AFNE01.JPG,AFNE01.JPG,AFNE01.JPG,AFNE01.JPG,,,,,,,,,,,,,4,6,46,4,,,,,,,,,,,AFNE02.jpg,AFSA15.jpg,AFNE06.jpg,AFSA16.jpg,AFNE06.jpg,FN,3,num_2,32,num_6,1.08342551906,,,2017_May_09_1919,60.0038298242,MAFE4ImagesEEG,001,100442,
AFNE01.JPG,AFNE01.JPG,AFNE01.JPG,AFNE01.JPG,AFNE01.JPG,AFNE01.JPG,,,,,,,,,,,,,4,7,47,0,,,,,,,,,,,AFNE09.jpg,AFSA07.jpg,AFNE11.jpg,AFSA05.jpg,AFSA07.jpg,FS,4,num_6,32,num_4,0.883499866351,,,2017_May_09_1919,60.0038298242,MAFE4ImagesEEG,001,100442,
AFNE01.JPG,AFNE01.JPG,AFNE01.JPG,AFNE01.JPG,AFNE01.JPG,AFNE01.JPG,,,,,,,,,,,,,4,8,48,8,,,,,,,,,,,AFNE12.jpg,AFSA07.jpg,AFNE19.jpg,AFSA05.jpg,AFNE19.jpg,FN,3,num_2,32,num_6,0.916647609556,,,2017_May_09_1919,60.0038298242,MAFE4ImagesEEG,001,100442,
AFNE01.JPG,AFNE01.JPG,AFNE01.JPG,AFNE01.JPG,AFNE01.JPG,AFNE01.JPG,,,,,,,,,,,,,4,9,49,3,,,,,,,,,,,AFNE19.jpg,AFNE04.jpg,AFSA07.jpg,AFSA17.jpg,AFSA17.jpg,FS,4,num_4,32,num_6,1.63338560332,,,2017_May_09_1919,60.0038298242,MAFE4ImagesEEG,001,100442,
AFNE01.JPG,AFNE01.JPG,AFNE01.JPG,AFNE01.JPG,AFNE01.JPG,AFNE01.JPG,,,,,,,,,,,,,5,0,50,8,,,,,,,,,,,AFSA09.jpg,AFNE07.jpg,AFNE01.jpg,AFSA18.jpg,AFSA18.jpg,FS,4,num_4,16,num_4,0.883437001612,,,2017_May_09_1919,60.0038298242,MAFE4ImagesEEG,001,100442,
AFNE01.JPG,AFNE01.JPG,AFNE01.JPG,AFNE01.JPG,AFNE01.JPG,AFNE01.JPG,,,,,,,,,,,,,5,1,51,2,,,,,,,,,,,AFSA10.jpg,AFNE09.jpg,AFNE18.jpg,AFSA17.jpg,AFNE09.jpg,FN,3,num_6,32,num_8,0.916438166751,,,2017_May_09_1919,60.0038298242,MAFE4ImagesEEG,001,100442,
AFNE01.JPG,AFNE01.JPG,AFNE01.JPG,AFNE01.JPG,AFNE01.JPG,AFNE01.JPG,,,,,,,,,,,,,5,2,52,6,,,,,,,,,,,AFSA03.jpg,AFNE15.jpg,AFSA12.jpg,AFNE01.jpg,AFNE15.jpg,FN,3,num_6,16,num_6,0.750142007135,,,2017_May_09_1919,60.0038298242,MAFE4ImagesEEG,001,100442,
AFNE01.JPG,AFNE01.JPG,AFNE01.JPG,AFNE01.JPG,AFNE01.JPG,AFNE01.JPG,,,,,,,,,,,,,5,3,53,1,,,,,,,,,,,AFSA16.jpg,AFSA03.jpg,AFNE06.jpg,AFNE10.jpg,AFNE10.jpg,FN,3,num_4,32,num_6,0.733460367424,,,2017_May_09_1919,60.0038298242,MAFE4ImagesEEG,001,100442,
AFNE01.JPG,AFNE01.JPG,AFNE01.JPG,AFNE01.JPG,AFNE01.JPG,AFNE01.JPG,,,,,,,,,,,,,5,4,54,4,,,,,,,,,,,AFSA01.jpg,AFNE10.jpg,AFNE04.jpg,AFSA05.jpg,AFNE10.jpg,FN,3,num_6,16,num_6,0.683422504226,,,2017_May_09_1919,60.0038298242,MAFE4ImagesEEG,001,100442,
AFNE01.JPG,AFNE01.JPG,AFNE01.JPG,AFNE01.JPG,AFNE01.JPG,AFNE01.JPG,,,,,,,,,,,,,5,5,55,7,,,,,,,,,,,AFNE14.jpg,AFNE01.jpg,AFSA02.jpg,AFSA06.jpg,AFSA06.jpg,FS,4,num_4,16,num_4,0.88345881179,,,2017_May_09_1919,60.0038298242,MAFE4ImagesEEG,001,100442,
AFNE01.JPG,AFNE01.JPG,AFNE01.JPG,AFNE01.JPG,AFNE01.JPG,AFNE01.JPG,,,,,,,,,,,,,5,6,56,5,,,,,,,,,,,AFNE08.jpg,AFSA17.jpg,AFNE12.jpg,AFSA03.jpg,AFSA17.jpg,FS,4,num_6,32,num_4,0.766795421951,,,2017_May_09_1919,60.0038298242,MAFE4ImagesEEG,001,100442,
AFNE01.JPG,AFNE01.JPG,AFNE01.JPG,AFNE01.JPG,AFNE01.JPG,AFNE01.JPG,,,,,,,,,,,,,5,7,57,0,,,,,,,,,,,AFSA20.jpg,AFNE12.jpg,AFNE04.jpg,AFSA18.jpg,AFSA18.jpg,FS,4,num_4,16,num_4,0.73349404498,,,2017_May_09_1919,60.0038298242,MAFE4ImagesEEG,001,100442,
AFNE01.JPG,AFNE01.JPG,AFNE01.JPG,AFNE01.JPG,AFNE01.JPG,AFNE01.JPG,,,,,,,,,,,,,5,8,58,9,,,,,,,,,,,AFSA10.jpg,AFNE17.jpg,AFSA09.jpg,AFNE07.jpg,AFSA10.jpg,FS,4,num_8,32,num_6,1.20008121105,,,2017_May_09_1919,60.0038298242,MAFE4ImagesEEG,001,100442,
AFNE01.JPG,AFNE01.JPG,AFNE01.JPG,AFNE01.JPG,AFNE01.JPG,AFNE01.JPG,,,,,,,,,,,,,5,9,59,3,,,,,,,,,,,AFSA20.jpg,AFNE15.jpg,AFNE09.jpg,AFSA02.jpg,AFNE15.jpg,FN,3,num_6,16,num_6,0.766780026723,,,2017_May_09_1919,60.0038298242,MAFE4ImagesEEG,001,100442,
,,,,,,,,,,,,,,,,,,,,,,,,,,,,,,,,,,,,,,,,,,,space,3.63318065088,2017_May_09_1919,60.0038298242,MAFE4ImagesEEG,001,100442,
AFNE01.JPG,AFNE01.JPG,AFNE01.JPG,AFNE01.JPG,AFNE01.JPG,AFNE01.JPG,,,,,,,,,,,,,,,,,0,0,0,2,,,,,,,AMSA06.jpg,AMSA15.jpg,AMNE13.jpg,AMNE03.jpg,AMNE03.jpg,MN,1,num_4,32,num_8,1.26673432114,,,2017_May_09_1919,60.0038298242,MAFE4ImagesEEG,001,100442,
AFNE01.JPG,AFNE01.JPG,AFNE01.JPG,AFNE01.JPG,AFNE01.JPG,AFNE01.JPG,,,,,,,,,,,,,,,,,0,1,1,3,,,,,,,AMNE15.jpg,AMSA07.jpg,AMSA06.jpg,AMNE17.jpg,AMNE17.jpg,MN,1,num_4,32,num_8,1.21673366358,,,2017_May_09_1919,60.0038298242,MAFE4ImagesEEG,001,100442,
AFNE01.JPG,AFNE01.JPG,AFNE01.JPG,AFNE01.JPG,AFNE01.JPG,AFNE01.JPG,,,,,,,,,,,,,,,,,0,2,2,6,,,,,,,AMNE04.jpg,AMSA15.jpg,AMSA20.jpg,AMNE02.jpg,AMSA20.jpg,MS,2,num_2,32,num_6,1.08338510594,,,2017_May_09_1919,60.0038298242,MAFE4ImagesEEG,001,100442,
AFNE01.JPG,AFNE01.JPG,AFNE01.JPG,AFNE01.JPG,AFNE01.JPG,AFNE01.JPG,,,,,,,,,,,,,,,,,0,3,3,5,,,,,,,AMNE01.jpg,AMNE09.jpg,AMSA09.jpg,AMSA19.jpg,AMSA09.jpg,MS,2,num_2,32,num_6,0.933409754653,,,2017_May_09_1919,60.0038298242,MAFE4ImagesEEG,001,100442,
AFNE01.JPG,AFNE01.JPG,AFNE01.JPG,AFNE01.JPG,AFNE01.JPG,AFNE01.JPG,,,,,,,,,,,,,,,,,0,4,4,7,,,,,,,AMSA15.jpg,AMNE11.jpg,AMNE02.jpg,AMSA11.jpg,AMNE11.jpg,MN,1,num_6,32,num_4,0.916932746535,,,2017_May_09_1919,60.0038298242,MAFE4ImagesEEG,001,100442,
AFNE01.JPG,AFNE01.JPG,AFNE01.JPG,AFNE01.JPG,AFNE01.JPG,AFNE01.JPG,,,,,,,,,,,,,,,,,0,5,5,8,,,,,,,AMSA06.jpg,AMNE10.jpg,AMNE05.jpg,AMSA20.jpg,AMNE05.jpg,MN,1,num_2,32,num_6,0.983422600199,,,2017_May_09_1919,60.0038298242,MAFE4ImagesEEG,001,100442,
AFNE01.JPG,AFNE01.JPG,AFNE01.JPG,AFNE01.JPG,AFNE01.JPG,AFNE01.JPG,,,,,,,,,,,,,,,,,0,6,6,1,,,,,,,AMNE05.jpg,AMSA04.jpg,AMSA17.jpg,AMNE14.jpg,AMSA17.jpg,MS,2,num_2,32,num_8,1.53339615557,,,2017_May_09_1919,60.0038298242,MAFE4ImagesEEG,001,100442,
AFNE01.JPG,AFNE01.JPG,AFNE01.JPG,AFNE01.JPG,AFNE01.JPG,AFNE01.JPG,,,,,,,,,,,,,,,,,0,7,7,9,,,,,,,AMSA05.jpg,AMNE13.jpg,AMNE19.jpg,AMSA15.jpg,AMNE13.jpg,MN,1,num_6,32,num_8,0.816824304638,,,2017_May_09_1919,60.0038298242,MAFE4ImagesEEG,001,100442,
AFNE01.JPG,AFNE01.JPG,AFNE01.JPG,AFNE01.JPG,AFNE01.JPG,AFNE01.JPG,,,,,,,,,,,,,,,,,0,8,8,0,,,,,,,AMNE05.jpg,AMSA17.jpg,AMNE11.jpg,AMSA06.jpg,AMNE11.jpg,MN,1,num_2,32,num_4,0.766627996229,,,2017_May_09_1919,60.0038298242,MAFE4ImagesEEG,001,100442,
AFNE01.JPG,AFNE01.JPG,AFNE01.JPG,AFNE01.JPG,AFNE01.JPG,AFNE01.JPG,,,,,,,,,,,,,,,,,0,9,9,4,,,,,,,AMSA09.jpg,AMNE20.jpg,AMNE11.jpg,AMSA18.jpg,AMSA09.jpg,MS,2,num_8,16,num_8,0.783462628722,,,2017_May_09_1919,60.0038298242,MAFE4ImagesEEG,001,100442,
AFNE01.JPG,AFNE01.JPG,AFNE01.JPG,AFNE01.JPG,AFNE01.JPG,AFNE01.JPG,,,,,,,,,,,,,,,,,1,0,10,8,,,,,,,AMNE08.jpg,AMNE03.jpg,AMSA04.jpg,AMSA09.jpg,AMSA09.jpg,MS,2,num_4,16,num_4,0.966725565027,,,2017_May_09_1919,60.0038298242,MAFE4ImagesEEG,001,100442,
AFNE01.JPG,AFNE01.JPG,AFNE01.JPG,AFNE01.JPG,AFNE01.JPG,AFNE01.JPG,,,,,,,,,,,,,,,,,1,1,11,1,,,,,,,AMNE03.jpg,AMNE17.jpg,AMSA14.jpg,AMSA15.jpg,AMSA14.jpg,MS,2,num_2,32,num_6,1.3834285019,,,2017_May_09_1919,60.0038298242,MAFE4ImagesEEG,001,100442,
AFNE01.JPG,AFNE01.JPG,AFNE01.JPG,AFNE01.JPG,AFNE01.JPG,AFNE01.JPG,,,,,,,,,,,,,,,,,1,2,12,9,,,,,,,AMNE17.jpg,AMSA06.jpg,AMNE11.jpg,AMSA10.jpg,AMSA06.jpg,MS,2,num_6,16,num_6,0.966720754048,,,2017_May_09_1919,60.0038298242,MAFE4ImagesEEG,001,100442,
AFNE01.JPG,AFNE01.JPG,AFNE01.JPG,AFNE01.JPG,AFNE01.JPG,AFNE01.JPG,,,,,,,,,,,,,,,,,1,3,13,0,,,,,,,AMNE05.jpg,AMNE16.jpg,AMSA05.jpg,AMSA02.jpg,AMSA05.jpg,MS,2,num_2,32,num_8,0.916795790894,,,2017_May_09_1919,60.0038298242,MAFE4ImagesEEG,001,100442,
AFNE01.JPG,AFNE01.JPG,AFNE01.JPG,AFNE01.JPG,AFNE01.JPG,AFNE01.JPG,,,,,,,,,,,,,,,,,1,4,14,2,,,,,,,AMNE06.jpg,AMNE19.jpg,AMSA02.jpg,AMSA15.jpg,AMNE19.jpg,MN,1,num_6,16,num_6,0.933478713734,,,2017_May_09_1919,60.0038298242,MAFE4ImagesEEG,001,100442,
AFNE01.JPG,AFNE01.JPG,AFNE01.JPG,AFNE01.JPG,AFNE01.JPG,AFNE01.JPG,,,,,,,,,,,,,,,,,1,5,15,6,,,,,,,AMSA17.jpg,AMNE02.jpg,AMSA12.jpg,AMNE04.jpg,AMSA12.jpg,MS,2,num_2,32,num_6,0.650157691445,,,2017_May_09_1919,60.0038298242,MAFE4ImagesEEG,001,100442,
AFNE01.JPG,AFNE01.JPG,AFNE01.JPG,AFNE01.JPG,AFNE01.JPG,AFNE01.JPG,,,,,,,,,,,,,,,,,1,6,16,4,,,,,,,AMSA07.jpg,AMNE05.jpg,AMNE03.jpg,AMSA08.jpg,AMNE03.jpg,MN,1,num_2,32,num_4,1.13343323278,,,2017_May_09_1919,60.0038298242,MAFE4ImagesEEG,001,100442,
AFNE01.JPG,AFNE01.JPG,AFNE01.JPG,AFNE01.JPG,AFNE01.JPG,AFNE01.JPG,,,,,,,,,,,,,,,,,1,7,17,5,,,,,,,AMNE17.jpg,AMNE07.jpg,AMSA12.jpg,AMSA01.jpg,AMSA01.jpg,MS,2,num_4,16,num_4,0.950103261974,,,2017_May_09_1919,60.0038298242,MAFE4ImagesEEG,001,100442,
AFNE01.JPG,AFNE01.JPG,AFNE01.JPG,AFNE01.JPG,AFNE01.JPG,AFNE01.JPG,,,,,,,,,,,,,,,,,1,8,18,3,,,,,,,AMSA07.jpg,AMSA20.jpg,AMNE20.jpg,AMNE11.jpg,AMSA07.jpg,MS,2,num_8,32,num_6,0.883515903493,,,2017_May_09_1919,60.0038298242,MAFE4ImagesEEG,001,100442,
AFNE01.JPG,AFNE01.JPG,AFNE01.JPG,AFNE01.JPG,AFNE01.JPG,AFNE01.JPG,,,,,,,,,,,,,,,,,1,9,19,7,,,,,,,AMNE15.jpg,AMSA10.jpg,AMSA07.jpg,AMNE20.jpg,AMNE20.jpg,MN,1,num_4,32,num_6,0.93343669665,,,2017_May_09_1919,60.0038298242,MAFE4ImagesEEG,001,100442,
AFNE01.JPG,AFNE01.JPG,AFNE01.JPG,AFNE01.JPG,AFNE01.JPG,AFNE01.JPG,,,,,,,,,,,,,,,,,2,0,20,0,,,,,,,AMSA13.jpg,AMNE07.jpg,AMSA08.jpg,AMNE19.jpg,AMNE07.jpg,MN,1,num_6,16,num_6,0.916791300755,,,2017_May_09_1919,60.0038298242,MAFE4ImagesEEG,001,100442,
AFNE01.JPG,AFNE01.JPG,AFNE01.JPG,AFNE01.JPG,AFNE01.JPG,AFNE01.JPG,,,,,,,,,,,,,,,,,2,1,21,2,,,,,,,AMNE06.jpg,AMSA06.jpg,AMNE01.jpg,AMSA15.jpg,AMNE06.jpg,MN,1,num_8,16,num_8,0.66678416403,,,2017_May_09_1919,60.0038298242,MAFE4ImagesEEG,001,100442,
AFNE01.JPG,AFNE01.JPG,AFNE01.JPG,AFNE01.JPG,AFNE01.JPG,AFNE01.JPG,,,,,,,,,,,,,,,,,2,2,22,5,,,,,,,AMSA01.jpg,AMSA06.jpg,AMNE08.jpg,AMNE16.jpg,AMSA06.jpg,MS,2,num_6,16,num_6,0.733518421184,,,2017_May_09_1919,60.0038298242,MAFE4ImagesEEG,001,100442,
AFNE01.JPG,AFNE01.JPG,AFNE01.JPG,AFNE01.JPG,AFNE01.JPG,AFNE01.JPG,,,,,,,,,,,,,,,,,2,3,23,3,,,,,,,AMSA07.jpg,AMNE15.jpg,AMSA13.jpg,AMNE05.jpg,AMSA07.jpg,MS,2,num_8,16,num_8,0.916599177755,,,2017_May_09_1919,60.0038298242,MAFE4ImagesEEG,001,100442,
AFNE01.JPG,AFNE01.JPG,AFNE01.JPG,AFNE01.JPG,AFNE01.JPG,AFNE01.JPG,,,,,,,,,,,,,,,,,2,4,24,7,,,,,,,AMSA11.jpg,AMSA15.jpg,AMNE05.jpg,AMNE15.jpg,AMSA15.jpg,MS,2,num_6,32,num_8,1.08347619581,,,2017_May_09_1919,60.0038298242,MAFE4ImagesEEG,001,100442,
AFNE01.JPG,AFNE01.JPG,AFNE01.JPG,AFNE01.JPG,AFNE01.JPG,AFNE01.JPG,,,,,,,,,,,,,,,,,2,5,25,1,,,,,,,AMSA04.jpg,AMNE16.jpg,AMNE13.jpg,AMSA07.jpg,AMNE13.jpg,MN,1,num_2,16,num_2,2.00001379196,,,2017_May_09_1919,60.0038298242,MAFE4ImagesEEG,001,100442,
AFNE01.JPG,AFNE01.JPG,AFNE01.JPG,AFNE01.JPG,AFNE01.JPG,AFNE01.JPG,,,,,,,,,,,,,,,,,2,6,26,4,,,,,,,AMNE20.jpg,AMNE07.jpg,AMSA07.jpg,AMSA15.jpg,AMNE20.jpg,MN,1,num_8,32,num_6,0.816628653556,,,2017_May_09_1919,60.0038298242,MAFE4ImagesEEG,001,100442,
AFNE01.JPG,AFNE01.JPG,AFNE01.JPG,AFNE01.JPG,AFNE01.JPG,AFNE01.JPG,,,,,,,,,,,,,,,,,2,7,27,8,,,,,,,AMSA01.jpg,AMSA20.jpg,AMNE12.jpg,AMNE07.jpg,AMNE07.jpg,MN,1,num_4,32,num_8,1.30009086523,,,2017_May_09_1919,60.0038298242,MAFE4ImagesEEG,001,100442,
AFNE01.JPG,AFNE01.JPG,AFNE01.JPG,AFNE01.JPG,AFNE01.JPG,AFNE01.JPG,,,,,,,,,,,,,,,,,2,8,28,9,,,,,,,AMSA14.jpg,AMNE02.jpg,AMNE16.jpg,AMSA09.jpg,AMSA14.jpg,MS,2,num_8,32,num_6,0.850081419805,,,2017_May_09_1919,60.0038298242,MAFE4ImagesEEG,001,100442,
AFNE01.JPG,AFNE01.JPG,AFNE01.JPG,AFNE01.JPG,AFNE01.JPG,AFNE01.JPG,,,,,,,,,,,,,,,,,2,9,29,6,,,,,,,AMSA19.jpg,AMNE19.jpg,AMSA09.jpg,AMNE04.jpg,AMNE04.jpg,MN,1,num_4,32,num_6,0.783419970423,,,2017_May_09_1919,60.0038298242,MAFE4ImagesEEG,001,100442,
AFNE01.JPG,AFNE01.JPG,AFNE01.JPG,AFNE01.JPG,AFNE01.JPG,AFNE01.JPG,,,,,,,,,,,,,,,,,3,0,30,5,,,,,,,AMSA20.jpg,AMNE03.jpg,AMSA02.jpg,AMNE05.jpg,AMSA20.jpg,MS,2,num_8,16,num_8,0.716730295913,,,2017_May_09_1919,60.0038298242,MAFE4ImagesEEG,001,100442,
AFNE01.JPG,AFNE01.JPG,AFNE01.JPG,AFNE01.JPG,AFNE01.JPG,AFNE01.JPG,,,,,,,,,,,,,,,,,3,1,31,6,,,,,,,AMNE13.jpg,AMSA10.jpg,AMSA18.jpg,AMNE01.jpg,AMSA10.jpg,MS,2,num_6,16,num_6,0.833453663858,,,2017_May_09_1919,60.0038298242,MAFE4ImagesEEG,001,100442,
AFNE01.JPG,AFNE01.JPG,AFNE01.JPG,AFNE01.JPG,AFNE01.JPG,AFNE01.JPG,,,,,,,,,,,,,,,,,3,2,32,0,,,,,,,AMNE18.jpg,AMNE20.jpg,AMSA13.jpg,AMSA08.jpg,AMNE20.jpg,MN,1,num_6,32,num_8,0.683354186825,,,2017_May_09_1919,60.0038298242,MAFE4ImagesEEG,001,100442,
AFNE01.JPG,AFNE01.JPG,AFNE01.JPG,AFNE01.JPG,AFNE01.JPG,AFNE01.JPG,,,,,,,,,,,,,,,,,3,3,33,7,,,,,,,AMNE04.jpg,AMNE15.jpg,AMSA11.jpg,AMSA12.jpg,AMSA12.jpg,MS,2,num_4,32,num_6,0.816751817707,,,2017_May_09_1919,60.0038298242,MAFE4ImagesEEG,001,100442,
AFNE01.JPG,AFNE01.JPG,AFNE01.JPG,AFNE01.JPG,AFNE01.JPG,AFNE01.JPG,,,,,,,,,,,,,,,,,3,4,34,4,,,,,,,AMSA12.jpg,AMSA18.jpg,AMNE12.jpg,AMNE10.jpg,AMNE10.jpg,MN,1,num_4,32,num_8,0.883452076232,,,2017_May_09_1919,60.0038298242,MAFE4ImagesEEG,001,100442,
AFNE01.JPG,AFNE01.JPG,AFNE01.JPG,AFNE01.JPG,AFNE01.JPG,AFNE01.JPG,,,,,,,,,,,,,,,,,3,5,35,8,,,,,,,AMNE12.jpg,AMSA10.jpg,AMSA08.jpg,AMNE08.jpg,AMSA08.jpg,MS,2,num_2,32,num_6,0.916747359326,,,2017_May_09_1919,60.0038298242,MAFE4ImagesEEG,001,100442,
AFNE01.JPG,AFNE01.JPG,AFNE01.JPG,AFNE01.JPG,AFNE01.JPG,AFNE01.JPG,,,,,,,,,,,,,,,,,3,6,36,2,,,,,,,AMNE14.jpg,AMNE06.jpg,AMSA19.jpg,AMSA16.jpg,AMNE06.jpg,MN,1,num_6,32,num_8,0.933505655965,,,2017_May_09_1919,60.0038298242,MAFE4ImagesEEG,001,100442,
AFNE01.JPG,AFNE01.JPG,AFNE01.JPG,AFNE01.JPG,AFNE01.JPG,AFNE01.JPG,,,,,,,,,,,,,,,,,3,7,37,9,,,,,,,AMNE01.jpg,AMSA17.jpg,AMNE20.jpg,AMSA19.jpg,AMNE20.jpg,MN,1,num_2,16,num_2,1.08342936798,,,2017_May_09_1919,60.0038298242,MAFE4ImagesEEG,001,100442,
AFNE01.JPG,AFNE01.JPG,AFNE01.JPG,AFNE01.JPG,AFNE01.JPG,AFNE01.JPG,,,,,,,,,,,,,,,,,3,8,38,3,,,,,,,AMSA15.jpg,AMSA19.jpg,AMNE19.jpg,AMNE03.jpg,AMSA19.jpg,MS,2,num_6,32,num_2,1.38365398161,,,2017_May_09_1919,60.0038298242,MAFE4ImagesEEG,001,100442,
AFNE01.JPG,AFNE01.JPG,AFNE01.JPG,AFNE01.JPG,AFNE01.JPG,AFNE01.JPG,,,,,,,,,,,,,,,,,3,9,39,1,,,,,,,AMNE09.jpg,AMSA13.jpg,AMSA08.jpg,AMNE19.jpg,AMSA08.jpg,MS,2,num_2,16,num_2,0.850127606187,,,2017_May_09_1919,60.0038298242,MAFE4ImagesEEG,001,100442,
AFNE01.JPG,AFNE01.JPG,AFNE01.JPG,AFNE01.JPG,AFNE01.JPG,AFNE01.JPG,,,,,,,,,,,,,,,,,4,0,40,4,,,,,,,AMNE06.jpg,AMSA10.jpg,AMNE16.jpg,AMSA18.jpg,AMSA10.jpg,MS,2,num_6,16,num_6,0.950081451563,,,2017_May_09_1919,60.0038298242,MAFE4ImagesEEG,001,100442,
AFNE01.JPG,AFNE01.JPG,AFNE01.JPG,AFNE01.JPG,AFNE01.JPG,AFNE01.JPG,,,,,,,,,,,,,,,,,4,1,41,3,,,,,,,AMNE13.jpg,AMSA12.jpg,AMSA08.jpg,AMNE19.jpg,AMNE19.jpg,MN,1,num_4,32,num_8,0.86676594615,,,2017_May_09_1919,60.0038298242,MAFE4ImagesEEG,001,100442,
AFNE01.JPG,AFNE01.JPG,AFNE01.JPG,AFNE01.JPG,AFNE01.JPG,AFNE01.JPG,,,,,,,,,,,,,,,,,4,2,42,9,,,,,,,AMSA17.jpg,AMSA02.jpg,AMNE20.jpg,AMNE01.jpg,AMNE01.jpg,MN,1,num_4,32,num_6,0.766888436396,,,2017_May_09_1919,60.0038298242,MAFE4ImagesEEG,001,100442,
AFNE01.JPG,AFNE01.JPG,AFNE01.JPG,AFNE01.JPG,AFNE01.JPG,AFNE01.JPG,,,,,,,,,,,,,,,,,4,3,43,8,,,,,,,AMSA07.jpg,AMNE19.jpg,AMNE15.jpg,AMSA16.jpg,AMNE15.jpg,MN,1,num_2,32,num_6,1.15016811527,,,2017_May_09_1919,60.0038298242,MAFE4ImagesEEG,001,100442,
AFNE01.JPG,AFNE01.JPG,AFNE01.JPG,AFNE01.JPG,AFNE01.JPG,AFNE01.JPG,,,,,,,,,,,,,,,,,4,4,44,0,,,,,,,AMSA11.jpg,AMNE05.jpg,AMNE14.jpg,AMSA06.jpg,AMNE05.jpg,MN,1,num_6,16,num_6,0.883421926992,,,2017_May_09_1919,60.0038298242,MAFE4ImagesEEG,001,100442,
AFNE01.JPG,AFNE01.JPG,AFNE01.JPG,AFNE01.JPG,AFNE01.JPG,AFNE01.JPG,,,,,,,,,,,,,,,,,4,5,45,7,,,,,,,AMNE06.jpg,AMSA01.jpg,AMSA09.jpg,AMNE05.jpg,AMSA01.jpg,MS,2,num_6,16,num_6,1.03345244494,,,2017_May_09_1919,60.0038298242,MAFE4ImagesEEG,001,100442,
AFNE01.JPG,AFNE01.JPG,AFNE01.JPG,AFNE01.JPG,AFNE01.JPG,AFNE01.JPG,,,,,,,,,,,,,,,,,4,6,46,5,,,,,,,AMNE06.jpg,AMNE01.jpg,AMSA09.jpg,AMSA14.jpg,AMNE06.jpg,MN,1,num_8,16,num_8,0.850160642061,,,2017_May_09_1919,60.0038298242,MAFE4ImagesEEG,001,100442,
AFNE01.JPG,AFNE01.JPG,AFNE01.JPG,AFNE01.JPG,AFNE01.JPG,AFNE01.JPG,,,,,,,,,,,,,,,,,4,7,47,2,,,,,,,AMSA03.jpg,AMSA09.jpg,AMNE13.jpg,AMNE08.jpg,AMNE13.jpg,MN,1,num_2,16,num_2,0.966810881626,,,2017_May_09_1919,60.0038298242,MAFE4ImagesEEG,001,100442,
AFNE01.JPG,AFNE01.JPG,AFNE01.JPG,AFNE01.JPG,AFNE01.JPG,AFNE01.JPG,,,,,,,,,,,,,,,,,4,8,48,6,,,,,,,AMNE07.jpg,AMSA06.jpg,AMSA13.jpg,AMNE12.jpg,AMNE12.jpg,MN,1,num_4,32,num_2,0.950118657434,,,2017_May_09_1919,60.0038298242,MAFE4ImagesEEG,001,100442,
AFNE01.JPG,AFNE01.JPG,AFNE01.JPG,AFNE01.JPG,AFNE01.JPG,AFNE01.JPG,,,,,,,,,,,,,,,,,4,9,49,1,,,,,,,AMNE15.jpg,AMNE03.jpg,AMSA18.jpg,AMSA02.jpg,AMNE03.jpg,MN,1,num_6,16,num_6,0.850189187797,,,2017_May_09_1919,60.0038298242,MAFE4ImagesEEG,001,100442,
AFNE01.JPG,AFNE01.JPG,AFNE01.JPG,AFNE01.JPG,AFNE01.JPG,AFNE01.JPG,,,,,,,,,,,,,,,,,5,0,50,6,,,,,,,AMNE12.jpg,AMSA02.jpg,AMNE16.jpg,AMSA05.jpg,AMNE12.jpg,MN,1,num_8,32,num_2,0.800118609332,,,2017_May_09_1919,60.0038298242,MAFE4ImagesEEG,001,100442,
AFNE01.JPG,AFNE01.JPG,AFNE01.JPG,AFNE01.JPG,AFNE01.JPG,AFNE01.JPG,,,,,,,,,,,,,,,,,5,1,51,9,,,,,,,AMNE19.jpg,AMSA08.jpg,AMNE03.jpg,AMSA18.jpg,AMSA08.jpg,MS,2,num_6,32,num_8,0.850042610196,,,2017_May_09_1919,60.0038298242,MAFE4ImagesEEG,001,100442,
AFNE01.JPG,AFNE01.JPG,AFNE01.JPG,AFNE01.JPG,AFNE01.JPG,AFNE01.JPG,,,,,,,,,,,,,,,,,5,2,52,0,,,,,,,AMNE09.jpg,AMSA10.jpg,AMSA15.jpg,AMNE07.jpg,AMSA15.jpg,MS,2,num_2,16,num_2,0.75014008279,,,2017_May_09_1919,60.0038298242,MAFE4ImagesEEG,001,100442,
AFNE01.JPG,AFNE01.JPG,AFNE01.JPG,AFNE01.JPG,AFNE01.JPG,AFNE01.JPG,,,,,,,,,,,,,,,,,5,3,53,8,,,,,,,AMNE05.jpg,AMSA08.jpg,AMNE06.jpg,AMSA17.jpg,AMSA08.jpg,MS,2,num_6,16,num_6,0.816727441503,,,2017_May_09_1919,60.0038298242,MAFE4ImagesEEG,001,100442,
AFNE01.JPG,AFNE01.JPG,AFNE01.JPG,AFNE01.JPG,AFNE01.JPG,AFNE01.JPG,,,,,,,,,,,,,,,,,5,4,54,3,,,,,,,AMSA18.jpg,AMNE17.jpg,AMSA10.jpg,AMNE18.jpg,AMNE18.jpg,MN,1,num_4,32,num_6,0.883476773277,,,2017_May_09_1919,60.0038298242,MAFE4ImagesEEG,001,100442,
AFNE01.JPG,AFNE01.JPG,AFNE01.JPG,AFNE01.JPG,AFNE01.JPG,AFNE01.JPG,,,,,,,,,,,,,,,,,5,5,55,7,,,,,,,AMSA04.jpg,AMNE05.jpg,AMSA12.jpg,AMNE15.jpg,AMNE15.jpg,MN,1,num_4,32,num_6,0.850159359397,,,2017_May_09_1919,60.0038298242,MAFE4ImagesEEG,001,100442,
AFNE01.JPG,AFNE01.JPG,AFNE01.JPG,AFNE01.JPG,AFNE01.JPG,AFNE01.JPG,,,,,,,,,,,,,,,,,5,6,56,2,,,,,,,AMNE01.jpg,AMSA19.jpg,AMNE15.jpg,AMSA01.jpg,AMNE01.jpg,MN,1,num_8,16,num_8,0.950100054499,,,2017_May_09_1919,60.0038298242,MAFE4ImagesEEG,001,100442,
AFNE01.JPG,AFNE01.JPG,AFNE01.JPG,AFNE01.JPG,AFNE01.JPG,AFNE01.JPG,,,,,,,,,,,,,,,,,5,7,57,4,,,,,,,AMSA19.jpg,AMNE19.jpg,AMSA01.jpg,AMNE13.jpg,AMNE13.jpg,MN,1,num_4,32,num_6,0.783449157607,,,2017_May_09_1919,60.0038298242,MAFE4ImagesEEG,001,100442,
AFNE01.JPG,AFNE01.JPG,AFNE01.JPG,AFNE01.JPG,AFNE01.JPG,AFNE01.JPG,,,,,,,,,,,,,,,,,5,8,58,5,,,,,,,AMSA14.jpg,AMNE12.jpg,AMNE05.jpg,AMSA05.jpg,AMNE05.jpg,MN,1,num_2,32,num_4,0.850140756229,,,2017_May_09_1919,60.0038298242,MAFE4ImagesEEG,001,100442,
AFNE01.JPG,AFNE01.JPG,AFNE01.JPG,AFNE01.JPG,AFNE01.JPG,AFNE01.JPG,,,,,,,,,,,,,,,,,5,9,59,1,,,,,,,AMNE20.jpg,AMNE08.jpg,AMSA18.jpg,AMSA19.jpg,AMNE20.jpg,MN,1,num_8,16,num_8,0.933409434045,,,2017_May_09_1919,60.0038298242,MAFE4ImagesEEG,001,100442,
,,,,,,,,,,,,,,,,,,,,,,,,,,,,,,,,,,,,,,,,,,,space,2.49996455829,2017_May_09_1919,60.0038298242,MAFE4ImagesEEG,001,100442,
AFNE01.JPG,AFNE01.JPG,AFNE01.JPG,AFNE01.JPG,AFNE01.JPG,AFNE01.JPG,,,,,,,,,,,,,,,,,,,,,0,0,0,3,,,AFNE18.jpg,AFSA04.jpg,AFSA06.jpg,AFNE20.jpg,AFSA04.jpg,FS,4,num_6,32,num_2,1.58370664692,,,2017_May_09_1919,60.0038298242,MAFE4ImagesEEG,001,100442,
AFNE01.JPG,AFNE01.JPG,AFNE01.JPG,AFNE01.JPG,AFNE01.JPG,AFNE01.JPG,,,,,,,,,,,,,,,,,,,,,0,1,1,0,,,AFNE08.jpg,AFNE14.jpg,AFSA05.jpg,AFSA19.jpg,AFSA19.jpg,FS,4,num_4,32,num_8,0.900140130892,,,2017_May_09_1919,60.0038298242,MAFE4ImagesEEG,001,100442,
AFNE01.JPG,AFNE01.JPG,AFNE01.JPG,AFNE01.JPG,AFNE01.JPG,AFNE01.JPG,,,,,,,,,,,,,,,,,,,,,0,2,2,2,,,AFNE04.jpg,AFNE08.jpg,AFSA13.jpg,AFSA11.jpg,AFNE04.jpg,FN,3,num_8,32,num_6,0.766805364983,,,2017_May_09_1919,60.0038298242,MAFE4ImagesEEG,001,100442,
AFNE01.JPG,AFNE01.JPG,AFNE01.JPG,AFNE01.JPG,AFNE01.JPG,AFNE01.JPG,,,,,,,,,,,,,,,,,,,,,0,3,3,7,,,AFNE17.jpg,AFSA12.jpg,AFNE16.jpg,AFSA05.jpg,AFNE16.jpg,FN,3,num_2,32,num_4,0.816862472566,,,2017_May_09_1919,60.0038298242,MAFE4ImagesEEG,001,100442,
AFNE01.JPG,AFNE01.JPG,AFNE01.JPG,AFNE01.JPG,AFNE01.JPG,AFNE01.JPG,,,,,,,,,,,,,,,,,,,,,0,4,4,4,,,AFNE15.jpg,AFSA20.jpg,AFSA10.jpg,AFNE16.jpg,AFSA10.jpg,FS,4,num_2,32,num_6,0.733501421986,,,2017_May_09_1919,60.0038298242,MAFE4ImagesEEG,001,100442,
AFNE01.JPG,AFNE01.JPG,AFNE01.JPG,AFNE01.JPG,AFNE01.JPG,AFNE01.JPG,,,,,,,,,,,,,,,,,,,,,0,5,5,8,,,AFSA07.jpg,AFNE14.jpg,AFSA18.jpg,AFNE07.jpg,AFNE07.jpg,FN,3,num_4,16,num_4,0.73349404498,,,2017_May_09_1919,60.0038298242,MAFE4ImagesEEG,001,100442,
AFNE01.JPG,AFNE01.JPG,AFNE01.JPG,AFNE01.JPG,AFNE01.JPG,AFNE01.JPG,,,,,,,,,,,,,,,,,,,,,0,6,6,5,,,AFSA20.jpg,AFNE17.jpg,AFSA02.jpg,AFNE18.jpg,AFSA20.jpg,FS,4,num_8,16,num_8,0.700010167435,,,2017_May_09_1919,60.0038298242,MAFE4ImagesEEG,001,100442,
AFNE01.JPG,AFNE01.JPG,AFNE01.JPG,AFNE01.JPG,AFNE01.JPG,AFNE01.JPG,,,,,,,,,,,,,,,,,,,,,0,7,7,6,,,AFSA17.jpg,AFNE11.jpg,AFNE02.jpg,AFSA10.jpg,AFNE02.jpg,FN,3,num_2,32,num_8,1.78339527338,,,2017_May_09_1919,60.0038298242,MAFE4ImagesEEG,001,100442,
AFNE01.JPG,AFNE01.JPG,AFNE01.JPG,AFNE01.JPG,AFNE01.JPG,AFNE01.JPG,,,,,,,,,,,,,,,,,,,,,0,8,8,1,,,AFSA18.jpg,AFNE11.jpg,AFSA02.jpg,AFNE15.jpg,AFSA02.jpg,FS,4,num_2,32,num_6,1.01677240897,,,2017_May_09_1919,60.0038298242,MAFE4ImagesEEG,001,100442,
AFNE01.JPG,AFNE01.JPG,AFNE01.JPG,AFNE01.JPG,AFNE01.JPG,AFNE01.JPG,,,,,,,,,,,,,,,,,,,,,0,9,9,9,,,AFNE08.jpg,AFNE17.jpg,AFSA16.jpg,AFSA03.jpg,AFSA03.jpg,FS,4,num_4,16,num_4,0.883465547347,,,2017_May_09_1919,60.0038298242,MAFE4ImagesEEG,001,100442,
AFNE01.JPG,AFNE01.JPG,AFNE01.JPG,AFNE01.JPG,AFNE01.JPG,AFNE01.JPG,,,,,,,,,,,,,,,,,,,,,1,0,10,1,,,AFNE16.jpg,AFNE18.jpg,AFSA05.jpg,AFSA19.jpg,AFNE16.jpg,FN,3,num_8,32,num_6,0.583488544449,,,2017_May_09_1919,60.0038298242,MAFE4ImagesEEG,001,100442,
AFNE01.JPG,AFNE01.JPG,AFNE01.JPG,AFNE01.JPG,AFNE01.JPG,AFNE01.JPG,,,,,,,,,,,,,,,,,,,,,1,1,11,4,,,AFNE16.jpg,AFSA08.jpg,AFSA05.jpg,AFNE13.jpg,AFSA05.jpg,FS,4,num_2,32,num_4,0.766746028094,,,2017_May_09_1919,60.0038298242,MAFE4ImagesEEG,001,100442,
AFNE01.JPG,AFNE01.JPG,AFNE01.JPG,AFNE01.JPG,AFNE01.JPG,AFNE01.JPG,,,,,,,,,,,,,,,,,,,,,1,2,12,5,,,AFNE02.jpg,AFNE08.jpg,AFSA10.jpg,AFSA03.jpg,AFNE08.jpg,FN,3,num_6,16,num_6,0.683432126418,,,2017_May_09_1919,60.0038298242,MAFE4ImagesEEG,001,100442,
AFNE01.JPG,AFNE01.JPG,AFNE01.JPG,AFNE01.JPG,AFNE01.JPG,AFNE01.JPG,,,,,,,,,,,,,,,,,,,,,1,3,13,0,,,AFNE01.jpg,AFSA04.jpg,AFNE02.jpg,AFSA03.jpg,AFSA04.jpg,FS,4,num_6,16,num_6,0.850133379456,,,2017_May_09_1919,60.0038298242,MAFE4ImagesEEG,001,100442,
AFNE01.JPG,AFNE01.JPG,AFNE01.JPG,AFNE01.JPG,AFNE01.JPG,AFNE01.JPG,,,,,,,,,,,,,,,,,,,,,1,4,14,6,,,AFSA03.jpg,AFNE07.jpg,AFSA13.jpg,AFNE16.jpg,AFNE16.jpg,FN,3,num_4,32,num_6,1.05006576749,,,2017_May_09_1919,60.0038298242,MAFE4ImagesEEG,001,100442,
AFNE01.JPG,AFNE01.JPG,AFNE01.JPG,AFNE01.JPG,AFNE01.JPG,AFNE01.JPG,,,,,,,,,,,,,,,,,,,,,1,5,15,8,,,AFNE15.jpg,AFSA03.jpg,AFNE02.jpg,AFSA12.jpg,AFNE15.jpg,FN,3,num_8,16,num_8,0.866780379321,,,2017_May_09_1919,60.0038298242,MAFE4ImagesEEG,001,100442,
AFNE01.JPG,AFNE01.JPG,AFNE01.JPG,AFNE01.JPG,AFNE01.JPG,AFNE01.JPG,,,,,,,,,,,,,,,,,,,,,1,6,16,9,,,AFNE10.jpg,AFNE20.jpg,AFSA06.jpg,AFSA05.jpg,AFSA05.jpg,FS,4,num_4,16,num_4,0.816800569883,,,2017_May_09_1919,60.0038298242,MAFE4ImagesEEG,001,100442,
AFNE01.JPG,AFNE01.JPG,AFNE01.JPG,AFNE01.JPG,AFNE01.JPG,AFNE01.JPG,,,,,,,,,,,,,,,,,,,,,1,7,17,2,,,AFSA02.jpg,AFNE06.jpg,AFNE04.jpg,AFSA18.jpg,AFSA02.jpg,FS,4,num_8,32,num_6,0.700149047421,,,2017_May_09_1919,60.0038298242,MAFE4ImagesEEG,001,100442,
AFNE01.JPG,AFNE01.JPG,AFNE01.JPG,AFNE01.JPG,AFNE01.JPG,AFNE01.JPG,,,,,,,,,,,,,,,,,,,,,1,8,18,3,,,AFNE07.jpg,AFSA18.jpg,AFSA06.jpg,AFNE09.jpg,AFSA18.jpg,FS,4,num_6,32,num_4,0.733434387483,,,2017_May_09_1919,60.0038298242,MAFE4ImagesEEG,001,100442,
AFNE01.JPG,AFNE01.JPG,AFNE01.JPG,AFNE01.JPG,AFNE01.JPG,AFNE01.JPG,,,,,,,,,,,,,,,,,,,,,1,9,19,7,,,AFSA03.jpg,AFNE07.jpg,AFSA01.jpg,AFNE02.jpg,AFNE07.jpg,FN,3,num_6,16,num_6,0.733429255662,,,2017_May_09_1919,60.0038298242,MAFE4ImagesEEG,001,100442,
AFNE01.JPG,AFNE01.JPG,AFNE01.JPG,AFNE01.JPG,AFNE01.JPG,AFNE01.JPG,,,,,,,,,,,,,,,,,,,,,2,0,20,6,,,AFNE02.jpg,AFSA03.jpg,AFSA15.jpg,AFNE14.jpg,AFSA15.jpg,FS,4,num_2,32,num_8,0.700113124447,,,2017_May_09_1919,60.0038298242,MAFE4ImagesEEG,001,100442,
AFNE01.JPG,AFNE01.JPG,AFNE01.JPG,AFNE01.JPG,AFNE01.JPG,AFNE01.JPG,,,,,,,,,,,,,,,,,,,,,2,1,21,9,,,AFSA16.jpg,AFSA01.jpg,AFNE10.jpg,AFNE05.jpg,AFSA16.jpg,FS,4,num_8,32,num_6,0.667047811672,,,2017_May_09_1919,60.0038298242,MAFE4ImagesEEG,001,100442,
AFNE01.JPG,AFNE01.JPG,AFNE01.JPG,AFNE01.JPG,AFNE01.JPG,AFNE01.JPG,,,,,,,,,,,,,,,,,,,,,2,2,22,3,,,AFNE20.jpg,AFNE07.jpg,AFSA16.jpg,AFSA18.jpg,AFSA16.jpg,FS,4,num_2,32,num_4,0.716750502354,,,2017_May_09_1919,60.0038298242,MAFE4ImagesEEG,001,100442,
AFNE01.JPG,AFNE01.JPG,AFNE01.JPG,AFNE01.JPG,AFNE01.JPG,AFNE01.JPG,,,,,,,,,,,,,,,,,,,,,2,3,23,0,,,AFNE20.jpg,AFSA07.jpg,AFNE03.jpg,AFSA08.jpg,AFNE20.jpg,FN,3,num_8,32,num_2,0.716839667875,,,2017_May_09_1919,60.0038298242,MAFE4ImagesEEG,001,100442,
AFNE01.JPG,AFNE01.JPG,AFNE01.JPG,AFNE01.JPG,AFNE01.JPG,AFNE01.JPG,,,,,,,,,,,,,,,,,,,,,2,4,24,2,,,AFSA12.jpg,AFNE12.jpg,AFNE17.jpg,AFSA19.jpg,AFSA12.jpg,FS,4,num_8,32,num_6,0.816768816672,,,2017_May_09_1919,60.0038298242,MAFE4ImagesEEG,001,100442,
AFNE01.JPG,AFNE01.JPG,AFNE01.JPG,AFNE01.JPG,AFNE01.JPG,AFNE01.JPG,,,,,,,,,,,,,,,,,,,,,2,5,25,1,,,AFNE12.jpg,AFNE16.jpg,AFSA01.jpg,AFSA04.jpg,AFNE12.jpg,FN,3,num_8,16,num_8,0.766826533712,,,2017_May_09_1919,60.0038298242,MAFE4ImagesEEG,001,100442,
AFNE01.JPG,AFNE01.JPG,AFNE01.JPG,AFNE01.JPG,AFNE01.JPG,AFNE01.JPG,,,,,,,,,,,,,,,,,,,,,2,6,26,8,,,AFNE06.jpg,AFNE02.jpg,AFSA11.jpg,AFSA07.jpg,AFNE06.jpg,FN,3,num_8,32,num_6,1.28341179155,,,2017_May_09_1919,60.0038298242,MAFE4ImagesEEG,001,100442,
AFNE01.JPG,AFNE01.JPG,AFNE01.JPG,AFNE01.JPG,AFNE01.JPG,AFNE01.JPG,,,,,,,,,,,,,,,,,,,,,2,7,27,4,,,AFNE20.jpg,AFSA20.jpg,AFNE08.jpg,AFSA14.jpg,AFSA14.jpg,FS,4,num_4,16,num_4,0.716783859301,,,2017_May_09_1919,60.0038298242,MAFE4ImagesEEG,001,100442,
AFNE01.JPG,AFNE01.JPG,AFNE01.JPG,AFNE01.JPG,AFNE01.JPG,AFNE01.JPG,,,,,,,,,,,,,,,,,,,,,2,8,28,7,,,AFSA15.jpg,AFNE05.jpg,AFSA13.jpg,AFNE08.jpg,AFNE05.jpg,FN,3,num_6,32,num_8,0.916760830209,,,2017_May_09_1919,60.0038298242,MAFE4ImagesEEG,001,100442,
AFNE01.JPG,AFNE01.JPG,AFNE01.JPG,AFNE01.JPG,AFNE01.JPG,AFNE01.JPG,,,,,,,,,,,,,,,,,,,,,2,9,29,5,,,AFNE09.jpg,AFNE16.jpg,AFSA01.jpg,AFSA10.jpg,AFSA10.jpg,FS,4,num_4,32,num_6,1.13312853081,,,2017_May_09_1919,60.0038298242,MAFE4ImagesEEG,001,100442,
AFNE01.JPG,AFNE01.JPG,AFNE01.JPG,AFNE01.JPG,AFNE01.JPG,AFNE01.JPG,,,,,,,,,,,,,,,,,,,,,3,0,30,7,,,AFNE13.jpg,AFNE11.jpg,AFSA03.jpg,AFSA06.jpg,AFSA03.jpg,FS,4,num_2,16,num_2,0.916787130991,,,2017_May_09_1919,60.0038298242,MAFE4ImagesEEG,001,100442,
AFNE01.JPG,AFNE01.JPG,AFNE01.JPG,AFNE01.JPG,AFNE01.JPG,AFNE01.JPG,,,,,,,,,,,,,,,,,,,,,3,1,31,0,,,AFNE02.jpg,AFSA10.jpg,AFSA03.jpg,AFNE15.jpg,AFSA03.jpg,FS,4,num_2,16,num_2,0.783526455751,,,2017_May_09_1919,60.0038298242,MAFE4ImagesEEG,001,100442,
AFNE01.JPG,AFNE01.JPG,AFNE01.JPG,AFNE01.JPG,AFNE01.JPG,AFNE01.JPG,,,,,,,,,,,,,,,,,,,,,3,2,32,5,,,AFNE05.jpg,AFSA05.jpg,AFNE16.jpg,AFSA15.jpg,AFSA15.jpg,FS,4,num_4,32,num_8,1.41671480425,,,2017_May_09_1919,60.0038298242,MAFE4ImagesEEG,001,100442,
AFNE01.JPG,AFNE01.JPG,AFNE01.JPG,AFNE01.JPG,AFNE01.JPG,AFNE01.JPG,,,,,,,,,,,,,,,,,,,,,3,3,33,3,,,AFNE07.jpg,AFNE04.jpg,AFSA09.jpg,AFSA04.jpg,AFSA09.jpg,FS,4,num_2,32,num_6,0.883457208285,,,2017_May_09_1919,60.0038298242,MAFE4ImagesEEG,001,100442,
AFNE01.JPG,AFNE01.JPG,AFNE01.JPG,AFNE01.JPG,AFNE01.JPG,AFNE01.JPG,,,,,,,,,,,,,,,,,,,,,3,4,34,1,,,AFNE02.jpg,AFNE14.jpg,AFSA08.jpg,AFSA04.jpg,AFSA08.jpg,FS,4,num_2,32,num_4,0.933413924417,,,2017_May_09_1919,60.0038298242,MAFE4ImagesEEG,001,100442,
AFNE01.JPG,AFNE01.JPG,AFNE01.JPG,AFNE01.JPG,AFNE01.JPG,AFNE01.JPG,,,,,,,,,,,,,,,,,,,,,3,5,35,2,,,AFSA08.jpg,AFSA17.jpg,AFNE17.jpg,AFNE14.jpg,AFNE17.jpg,FN,3,num_2,32,num_6,0.80009295023,,,2017_May_09_1919,60.0038298242,MAFE4ImagesEEG,001,100442,
AFNE01.JPG,AFNE01.JPG,AFNE01.JPG,AFNE01.JPG,AFNE01.JPG,AFNE01.JPG,,,,,,,,,,,,,,,,,,,,,3,6,36,6,,,AFNE19.jpg,AFSA09.jpg,AFNE06.jpg,AFSA17.jpg,AFSA17.jpg,FS,4,num_4,16,num_4,0.883429945214,,,2017_May_09_1919,60.0038298242,MAFE4ImagesEEG,001,100442,
AFNE01.JPG,AFNE01.JPG,AFNE01.JPG,AFNE01.JPG,AFNE01.JPG,AFNE01.JPG,,,,,,,,,,,,,,,,,,,,,3,7,37,8,,,AFNE02.jpg,AFSA13.jpg,AFSA18.jpg,AFNE20.jpg,AFNE20.jpg,FN,3,num_4,32,num_8,1.03359549469,,,2017_May_09_1919,60.0038298242,MAFE4ImagesEEG,001,100442,
AFNE01.JPG,AFNE01.JPG,AFNE01.JPG,AFNE01.JPG,AFNE01.JPG,AFNE01.JPG,,,,,,,,,,,,,,,,,,,,,3,8,38,9,,,AFNE03.jpg,AFNE17.jpg,AFSA18.jpg,AFSA15.jpg,AFNE03.jpg,FN,3,num_8,32,num_6,0.650228254031,,,2017_May_09_1919,60.0038298242,MAFE4ImagesEEG,001,100442,
