IPosition2,IPosition3,IPosition1,IPosition6,IPosition4,IPosition5,TrialsM1.thisRepN,TrialsM1.thisTrialN,TrialsM1.thisN,TrialsM1.thisIndex,TrialsF1.thisRepN,TrialsF1.thisTrialN,TrialsF1.thisN,TrialsF1.thisIndex,TrialsM2.thisRepN,TrialsM2.thisTrialN,TrialsM2.thisN,TrialsM2.thisIndex,TrialsF2.thisRepN,TrialsF2.thisTrialN,TrialsF2.thisN,TrialsF2.thisIndex,TrialsM3.thisRepN,TrialsM3.thisTrialN,TrialsM3.thisN,TrialsM3.thisIndex,TrialsF3.thisRepN,TrialsF3.thisTrialN,TrialsF3.thisN,TrialsF3.thisIndex,InstrKey_resp.keys,InstrKey_resp.rt,Image0 _Position,Image1 _Position,Image2 _Position,Image3 _Position,Center_image,condition,code,correct_answer,accuracy,Key_Resp.keys,Key_Resp.rt,BreakKey_resp.keys,BreakKey_resp.rt,date,frameRate,expName,session,participant,
,,,,,,,,,,,,,,,,,,,,,,,,,,,,,,space,27.6150210694,,,,,,,,,,,,,,2017_Jun_26_1859,60.0110098026,MAFE4ImagesEEG,001,100489,
AFSA21.JPG,AFNE22.JPG,AFNE21.JPG,AFSA23.JPG,AFSA22.JPG,AFNE23.JPG,0,0,0,0,,,,,,,,,,,,,,,,,,,,,,,AMSA10.jpg,AMNE14.jpg,AMNE11.jpg,AMSA05.jpg,AMSA05.jpg,MS,2,num_4,48,None,,,,2017_Jun_26_1859,60.0110098026,MAFE4ImagesEEG,001,100489,
AMNE22.JPG,AMSA24.JPG,AMSA22.JPG,AMNE25.JPG,AMNE24.JPG,AMSA25.JPG,0,1,1,7,,,,,,,,,,,,,,,,,,,,,,,AMSA02.jpg,AMNE12.jpg,AMNE02.jpg,AMSA12.jpg,AMSA12.jpg,MS,2,num_4,32,num_2,1.56677734321,,,2017_Jun_26_1859,60.0110098026,MAFE4ImagesEEG,001,100489,
AFNE22.JPG,AFSA24.JPG,AFSA22.JPG,AFNE25.JPG,AFNE24.JPG,AFSA25.JPG,0,2,2,6,,,,,,,,,,,,,,,,,,,,,,,AMSA18.jpg,AMNE18.jpg,AMSA11.jpg,AMNE15.jpg,AMSA11.jpg,MS,2,num_2,32,num_6,2.1666434665,,,2017_Jun_26_1859,60.0110098026,MAFE4ImagesEEG,001,100489,
AMSA21.JPG,AMNE22.JPG,AMNE21.JPG,AMSA23.JPG,AMSA22.JPG,AMNE23.JPG,0,3,3,1,,,,,,,,,,,,,,,,,,,,,,,AMSA12.jpg,AMNE10.jpg,AMSA08.jpg,AMNE02.jpg,AMNE10.jpg,MN,1,num_6,32,num_2,2.40008833168,,,2017_Jun_26_1859,60.0110098026,MAFE4ImagesEEG,001,100489,
AFNE23.JPG,AFNE24.JPG,AFNE22.JPG,AFSA24.JPG,AFSA22.JPG,AFSA23.JPG,0,4,4,8,,,,,,,,,,,,,,,,,,,,,,,AMNE11.jpg,AMNE20.jpg,AMSA16.jpg,AMSA13.jpg,AMSA16.jpg,MS,2,num_2,16,num_2,1.99999037781,,,2017_Jun_26_1859,60.0110098026,MAFE4ImagesEEG,001,100489,
AFSA21.JPG,AFNE23.JPG,AFNE21.JPG,AFSA25.JPG,AFNE25.JPG,AFSA23.JPG,0,5,5,4,,,,,,,,,,,,,,,,,,,,,,,AMSA08.jpg,AMNE16.jpg,AMNE15.jpg,AMSA05.jpg,AMNE15.jpg,MN,1,num_2,32,num_6,1.56670421458,,,2017_Jun_26_1859,60.0110098026,MAFE4ImagesEEG,001,100489,
AFSA25.JPG,AFNE24.JPG,AFSA24.JPG,AFNE21.JPG,AFSA21.JPG,AFNE25.JPG,0,6,6,2,,,,,,,,,,,,,,,,,,,,,,,AMSA01.jpg,AMSA07.jpg,AMNE10.jpg,AMNE18.jpg,AMNE18.jpg,MN,1,num_4,32,num_2,1.15006475733,,,2017_Jun_26_1859,60.0110098026,MAFE4ImagesEEG,001,100489,
AMNE23.JPG,AMNE24.JPG,AMNE22.JPG,AMSA24.JPG,AMSA22.JPG,AMSA23.JPG,0,7,7,9,,,,,,,,,,,,,,,,,,,,,,,AMSA07.jpg,AMNE05.jpg,AMSA08.jpg,AMNE17.jpg,AMNE05.jpg,MN,1,num_6,32,num_4,1.21673497351,,,2017_Jun_26_1859,60.0110098026,MAFE4ImagesEEG,001,100489,
AMSA25.JPG,AMNE24.JPG,AMSA24.JPG,AMNE26.JPG,AMSA21.JPG,AMNE25.JPG,0,8,8,3,,,,,,,,,,,,,,,,,,,,,,,AMSA14.jpg,AMNE20.jpg,AMNE19.jpg,AMSA10.jpg,AMSA14.jpg,MS,2,num_8,16,num_8,1.28339300159,,,2017_Jun_26_1859,60.0110098026,MAFE4ImagesEEG,001,100489,
AMSA21.JPG,AMNE23.JPG,AMNE21.JPG,AMSA25.JPG,AMNE25.JPG,AMSA23.JPG,0,9,9,5,,,,,,,,,,,,,,,,,,,,,,,AMSA19.jpg,AMNE04.jpg,AMSA17.jpg,AMNE02.jpg,AMNE02.jpg,MN,1,num_4,32,num_6,1.36669998082,,,2017_Jun_26_1859,60.0110098026,MAFE4ImagesEEG,001,100489,
AMNE22.JPG,AMSA24.JPG,AMSA22.JPG,AMNE25.JPG,AMNE24.JPG,AMSA25.JPG,,,,,0,0,0,7,,,,,,,,,,,,,,,,,,,AFNE05.jpg,AFSA19.jpg,AFSA11.jpg,AFNE20.jpg,AFNE05.jpg,FN,3,num_8,32,num_4,0.950086503468,,,2017_Jun_26_1859,60.0110098026,MAFE4ImagesEEG,001,100489,
AMNE23.JPG,AMNE24.JPG,AMNE22.JPG,AMSA24.JPG,AMSA22.JPG,AMSA23.JPG,,,,,0,1,1,9,,,,,,,,,,,,,,,,,,,AFSA08.jpg,AFNE10.jpg,AFNE12.jpg,AFSA07.jpg,AFSA07.jpg,FS,4,num_4,32,num_8,1.36672307407,,,2017_Jun_26_1859,60.0110098026,MAFE4ImagesEEG,001,100489,
AMSA21.JPG,AMNE22.JPG,AMNE21.JPG,AMSA23.JPG,AMSA22.JPG,AMNE23.JPG,,,,,0,2,2,1,,,,,,,,,,,,,,,,,,,AFSA16.jpg,AFNE13.jpg,AFSA01.jpg,AFNE01.jpg,AFNE01.jpg,FN,3,num_4,16,num_4,0.850142761195,,,2017_Jun_26_1859,60.0110098026,MAFE4ImagesEEG,001,100489,
AMSA25.JPG,AMNE24.JPG,AMSA24.JPG,AMNE26.JPG,AMSA21.JPG,AMNE25.JPG,,,,,0,3,3,3,,,,,,,,,,,,,,,,,,,AFNE20.jpg,AFSA19.jpg,AFSA02.jpg,AFNE05.jpg,AFNE20.jpg,FN,3,num_8,16,num_8,1.31682272786,,,2017_Jun_26_1859,60.0110098026,MAFE4ImagesEEG,001,100489,
AFNE22.JPG,AFSA24.JPG,AFSA22.JPG,AFNE25.JPG,AFNE24.JPG,AFSA25.JPG,,,,,0,4,4,6,,,,,,,,,,,,,,,,,,,AFSA12.jpg,AFNE01.jpg,AFSA14.jpg,AFNE05.jpg,AFNE01.jpg,FN,3,num_6,16,num_6,0.783531881836,,,2017_Jun_26_1859,60.0110098026,MAFE4ImagesEEG,001,100489,
AFSA21.JPG,AFNE22.JPG,AFNE21.JPG,AFSA23.JPG,AFSA22.JPG,AFNE23.JPG,,,,,0,5,5,0,,,,,,,,,,,,,,,,,,,AFSA10.jpg,AFNE05.jpg,AFSA03.jpg,AFNE06.jpg,AFNE05.jpg,FN,3,num_6,16,num_6,0.949800403745,,,2017_Jun_26_1859,60.0110098026,MAFE4ImagesEEG,001,100489,
AFSA25.JPG,AFNE24.JPG,AFSA24.JPG,AFNE21.JPG,AFSA21.JPG,AFNE25.JPG,,,,,0,6,6,2,,,,,,,,,,,,,,,,,,,AFSA05.jpg,AFNE02.jpg,AFNE12.jpg,AFSA11.jpg,AFSA11.jpg,FS,4,num_4,16,num_4,0.833591635626,,,2017_Jun_26_1859,60.0110098026,MAFE4ImagesEEG,001,100489,
AMSA21.JPG,AMNE23.JPG,AMNE21.JPG,AMSA25.JPG,AMNE25.JPG,AMSA23.JPG,,,,,0,7,7,5,,,,,,,,,,,,,,,,,,,AFSA20.jpg,AFNE06.jpg,AFNE08.jpg,AFSA07.jpg,AFSA07.jpg,FS,4,num_4,32,num_6,1.45001882741,,,2017_Jun_26_1859,60.0110098026,MAFE4ImagesEEG,001,100489,
AFSA21.JPG,AFNE23.JPG,AFNE21.JPG,AFSA25.JPG,AFNE25.JPG,AFSA23.JPG,,,,,0,8,8,4,,,,,,,,,,,,,,,,,,,AFSA10.jpg,AFSA05.jpg,AFNE13.jpg,AFNE03.jpg,AFNE03.jpg,FN,3,num_4,16,num_4,1.38379796741,,,2017_Jun_26_1859,60.0110098026,MAFE4ImagesEEG,001,100489,
AFNE23.JPG,AFNE24.JPG,AFNE22.JPG,AFSA24.JPG,AFSA22.JPG,AFSA23.JPG,,,,,0,9,9,8,,,,,,,,,,,,,,,,,,,AFSA06.jpg,AFNE14.jpg,AFNE12.jpg,AFSA16.jpg,AFNE12.jpg,FN,3,num_2,32,num_6,0.700143434751,,,2017_Jun_26_1859,60.0110098026,MAFE4ImagesEEG,001,100489,
AFSA21.JPG,AFNE23.JPG,AFNE21.JPG,AFSA25.JPG,AFNE25.JPG,AFSA23.JPG,,,,,,,,,0,0,0,4,,,,,,,,,,,,,,,AMSA19.jpg,AMSA16.jpg,AMNE02.jpg,AMNE07.jpg,AMSA19.jpg,MS,2,num_8,16,num_8,1.40006106882,,,2017_Jun_26_1859,60.0110098026,MAFE4ImagesEEG,001,100489,
AMSA21.JPG,AMNE23.JPG,AMNE21.JPG,AMSA25.JPG,AMNE25.JPG,AMSA23.JPG,,,,,,,,,0,1,1,5,,,,,,,,,,,,,,,AMNE03.jpg,AMNE08.jpg,AMSA09.jpg,AMSA02.jpg,AMSA09.jpg,MS,2,num_2,16,num_2,0.950099653794,,,2017_Jun_26_1859,60.0110098026,MAFE4ImagesEEG,001,100489,
AMSA21.JPG,AMNE22.JPG,AMNE21.JPG,AMSA23.JPG,AMSA22.JPG,AMNE23.JPG,,,,,,,,,0,2,2,1,,,,,,,,,,,,,,,AMSA16.jpg,AMNE11.jpg,AMSA18.jpg,AMNE08.jpg,AMSA16.jpg,MS,2,num_8,32,num_6,0.783491789389,,,2017_Jun_26_1859,60.0110098026,MAFE4ImagesEEG,001,100489,
AFSA25.JPG,AFNE24.JPG,AFSA24.JPG,AFNE21.JPG,AFSA21.JPG,AFNE25.JPG,,,,,,,,,0,3,3,2,,,,,,,,,,,,,,,AMNE02.jpg,AMSA17.jpg,AMNE15.jpg,AMSA08.jpg,AMSA17.jpg,MS,2,num_6,16,num_6,0.833426775469,,,2017_Jun_26_1859,60.0110098026,MAFE4ImagesEEG,001,100489,
AMNE23.JPG,AMNE24.JPG,AMNE22.JPG,AMSA24.JPG,AMSA22.JPG,AMSA23.JPG,,,,,,,,,0,4,4,9,,,,,,,,,,,,,,,AMSA13.jpg,AMNE19.jpg,AMNE20.jpg,AMSA04.jpg,AMSA04.jpg,MS,2,num_4,16,num_4,0.616782892008,,,2017_Jun_26_1859,60.0110098026,MAFE4ImagesEEG,001,100489,
AFSA21.JPG,AFNE22.JPG,AFNE21.JPG,AFSA23.JPG,AFSA22.JPG,AFNE23.JPG,,,,,,,,,0,5,5,0,,,,,,,,,,,,,,,AMNE08.jpg,AMSA12.jpg,AMNE04.jpg,AMSA02.jpg,AMNE04.jpg,MN,1,num_2,16,num_2,1.2334628266,,,2017_Jun_26_1859,60.0110098026,MAFE4ImagesEEG,001,100489,
AFNE23.JPG,AFNE24.JPG,AFNE22.JPG,AFSA24.JPG,AFSA22.JPG,AFSA23.JPG,,,,,,,,,0,6,6,8,,,,,,,,,,,,,,,AMNE18.jpg,AMSA09.jpg,AMNE09.jpg,AMSA20.jpg,AMNE09.jpg,MN,1,num_2,32,num_8,0.883428796133,,,2017_Jun_26_1859,60.0110098026,MAFE4ImagesEEG,001,100489,
AMNE22.JPG,AMSA24.JPG,AMSA22.JPG,AMNE25.JPG,AMNE24.JPG,AMSA25.JPG,,,,,,,,,0,7,7,7,,,,,,,,,,,,,,,AMSA20.jpg,AMNE04.jpg,AMNE07.jpg,AMSA17.jpg,AMNE04.jpg,MN,1,num_6,32,num_2,1.30007883779,,,2017_Jun_26_1859,60.0110098026,MAFE4ImagesEEG,001,100489,
AMSA25.JPG,AMNE24.JPG,AMSA24.JPG,AMNE26.JPG,AMSA21.JPG,AMNE25.JPG,,,,,,,,,0,8,8,3,,,,,,,,,,,,,,,AMNE01.jpg,AMNE18.jpg,AMSA07.jpg,AMSA18.jpg,AMNE18.jpg,MN,1,num_6,16,num_6,1.00014754021,,,2017_Jun_26_1859,60.0110098026,MAFE4ImagesEEG,001,100489,
AFNE22.JPG,AFSA24.JPG,AFSA22.JPG,AFNE25.JPG,AFNE24.JPG,AFSA25.JPG,,,,,,,,,0,9,9,6,,,,,,,,,,,,,,,AMNE18.jpg,AMNE14.jpg,AMSA10.jpg,AMSA18.jpg,AMSA10.jpg,MS,2,num_2,16,num_2,0.78346580948,,,2017_Jun_26_1859,60.0110098026,MAFE4ImagesEEG,001,100489,
AFNE23.JPG,AFNE24.JPG,AFNE22.JPG,AFSA24.JPG,AFSA22.JPG,AFSA23.JPG,,,,,,,,,,,,,0,0,0,8,,,,,,,,,,,AFNE18.jpg,AFNE04.jpg,AFSA09.jpg,AFSA08.jpg,AFSA09.jpg,FS,4,num_2,32,num_6,0.566782795784,,,2017_Jun_26_1859,60.0110098026,MAFE4ImagesEEG,001,100489,
AFSA21.JPG,AFNE23.JPG,AFNE21.JPG,AFSA25.JPG,AFNE25.JPG,AFSA23.JPG,,,,,,,,,,,,,0,1,1,4,,,,,,,,,,,AFSA10.jpg,AFNE06.jpg,AFSA02.jpg,AFNE20.jpg,AFSA02.jpg,FS,4,num_2,32,num_4,0.900211174951,,,2017_Jun_26_1859,60.0110098026,MAFE4ImagesEEG,001,100489,
AMSA21.JPG,AMNE23.JPG,AMNE21.JPG,AMSA25.JPG,AMNE25.JPG,AMSA23.JPG,,,,,,,,,,,,,0,2,2,5,,,,,,,,,,,AFSA11.jpg,AFSA06.jpg,AFNE18.jpg,AFNE01.jpg,AFSA11.jpg,FS,4,num_8,32,num_6,0.650122169714,,,2017_Jun_26_1859,60.0110098026,MAFE4ImagesEEG,001,100489,
AFSA25.JPG,AFNE24.JPG,AFSA24.JPG,AFNE21.JPG,AFSA21.JPG,AFNE25.JPG,,,,,,,,,,,,,0,3,3,2,,,,,,,,,,,AFSA16.jpg,AFSA17.jpg,AFNE04.jpg,AFNE09.jpg,AFSA16.jpg,FS,4,num_8,32,num_2,0.7001511325,,,2017_Jun_26_1859,60.0110098026,MAFE4ImagesEEG,001,100489,
AMSA21.JPG,AMNE22.JPG,AMNE21.JPG,AMSA23.JPG,AMSA22.JPG,AMNE23.JPG,,,,,,,,,,,,,0,4,4,1,,,,,,,,,,,AFSA14.jpg,AFNE11.jpg,AFNE18.jpg,AFSA11.jpg,AFSA11.jpg,FS,4,num_4,32,num_8,0.883426550954,,,2017_Jun_26_1859,60.0110098026,MAFE4ImagesEEG,001,100489,
AMNE23.JPG,AMNE24.JPG,AMNE22.JPG,AMSA24.JPG,AMSA22.JPG,AMSA23.JPG,,,,,,,,,,,,,0,5,5,9,,,,,,,,,,,AFSA12.jpg,AFSA16.jpg,AFNE17.jpg,AFNE14.jpg,AFSA16.jpg,FS,4,num_6,16,num_6,0.567194946168,,,2017_Jun_26_1859,60.0110098026,MAFE4ImagesEEG,001,100489,
AMSA25.JPG,AMNE24.JPG,AMSA24.JPG,AMNE26.JPG,AMSA21.JPG,AMNE25.JPG,,,,,,,,,,,,,0,6,6,3,,,,,,,,,,,AFNE20.jpg,AFSA15.jpg,AFNE14.jpg,AFSA05.jpg,AFSA15.jpg,FS,4,num_6,32,num_2,0.683606742463,,,2017_Jun_26_1859,60.0110098026,MAFE4ImagesEEG,001,100489,
AMNE22.JPG,AMSA24.JPG,AMSA22.JPG,AMNE25.JPG,AMNE24.JPG,AMSA25.JPG,,,,,,,,,,,,,0,7,7,7,,,,,,,,,,,AFSA07.jpg,AFNE12.jpg,AFSA03.jpg,AFNE08.jpg,AFSA07.jpg,FS,4,num_8,32,num_4,0.650126339329,,,2017_Jun_26_1859,60.0110098026,MAFE4ImagesEEG,001,100489,
AFNE22.JPG,AFSA24.JPG,AFSA22.JPG,AFNE25.JPG,AFNE24.JPG,AFSA25.JPG,,,,,,,,,,,,,0,8,8,6,,,,,,,,,,,AFSA02.jpg,AFNE03.jpg,AFSA17.jpg,AFNE19.jpg,AFNE03.jpg,FN,3,num_6,16,num_6,0.767055488595,,,2017_Jun_26_1859,60.0110098026,MAFE4ImagesEEG,001,100489,
AFSA21.JPG,AFNE22.JPG,AFNE21.JPG,AFSA23.JPG,AFSA22.JPG,AFNE23.JPG,,,,,,,,,,,,,0,9,9,0,,,,,,,,,,,AFSA04.jpg,AFNE16.jpg,AFSA20.jpg,AFNE05.jpg,AFNE16.jpg,FN,3,num_6,32,num_2,0.850104272446,,,2017_Jun_26_1859,60.0110098026,MAFE4ImagesEEG,001,100489,
AMSA21.JPG,AMNE22.JPG,AMNE21.JPG,AMSA23.JPG,AMSA22.JPG,AMNE23.JPG,,,,,,,,,,,,,,,,,0,0,0,1,,,,,,,AMSA05.jpg,AMSA16.jpg,AMNE03.jpg,AMNE01.jpg,AMSA16.jpg,MS,2,num_6,32,num_4,0.76673891861,,,2017_Jun_26_1859,60.0110098026,MAFE4ImagesEEG,001,100489,
AMSA25.JPG,AMNE24.JPG,AMSA24.JPG,AMNE26.JPG,AMSA21.JPG,AMNE25.JPG,,,,,,,,,,,,,,,,,0,1,1,3,,,,,,,AMSA03.jpg,AMNE04.jpg,AMNE18.jpg,AMSA06.jpg,AMNE18.jpg,MN,1,num_2,32,num_6,0.533533645907,,,2017_Jun_26_1859,60.0110098026,MAFE4ImagesEEG,001,100489,
AFSA25.JPG,AFNE24.JPG,AFSA24.JPG,AFNE21.JPG,AFSA21.JPG,AFNE25.JPG,,,,,,,,,,,,,,,,,0,2,2,2,,,,,,,AMSA05.jpg,AMNE02.jpg,AMSA03.jpg,AMNE01.jpg,AMSA05.jpg,MS,2,num_8,16,num_8,0.78349788344,,,2017_Jun_26_1859,60.0110098026,MAFE4ImagesEEG,001,100489,
AFNE23.JPG,AFNE24.JPG,AFNE22.JPG,AFSA24.JPG,AFSA22.JPG,AFSA23.JPG,,,,,,,,,,,,,,,,,0,3,3,8,,,,,,,AMNE08.jpg,AMSA02.jpg,AMSA12.jpg,AMNE19.jpg,AMNE08.jpg,MN,1,num_8,32,num_2,0.783482487939,,,2017_Jun_26_1859,60.0110098026,MAFE4ImagesEEG,001,100489,
AFSA21.JPG,AFNE22.JPG,AFNE21.JPG,AFSA23.JPG,AFSA22.JPG,AFNE23.JPG,,,,,,,,,,,,,,,,,0,4,4,0,,,,,,,AMNE01.jpg,AMSA08.jpg,AMNE14.jpg,AMSA07.jpg,AMSA08.jpg,MS,2,num_6,32,num_4,0.883453493079,,,2017_Jun_26_1859,60.0110098026,MAFE4ImagesEEG,001,100489,
AMNE22.JPG,AMSA24.JPG,AMSA22.JPG,AMNE25.JPG,AMNE24.JPG,AMSA25.JPG,,,,,,,,,,,,,,,,,0,5,5,7,,,,,,,AMSA03.jpg,AMNE13.jpg,AMSA09.jpg,AMNE10.jpg,AMSA03.jpg,MS,2,num_8,32,num_6,0.750128456209,,,2017_Jun_26_1859,60.0110098026,MAFE4ImagesEEG,001,100489,
AFNE22.JPG,AFSA24.JPG,AFSA22.JPG,AFNE25.JPG,AFNE24.JPG,AFSA25.JPG,,,,,,,,,,,,,,,,,0,6,6,6,,,,,,,AMNE11.jpg,AMSA06.jpg,AMNE13.jpg,AMSA04.jpg,AMNE11.jpg,MN,1,num_8,32,num_2,1.16672108548,,,2017_Jun_26_1859,60.0110098026,MAFE4ImagesEEG,001,100489,
AFSA21.JPG,AFNE23.JPG,AFNE21.JPG,AFSA25.JPG,AFNE25.JPG,AFSA23.JPG,,,,,,,,,,,,,,,,,0,7,7,4,,,,,,,AMSA05.jpg,AMNE07.jpg,AMNE03.jpg,AMSA03.jpg,AMNE07.jpg,MN,1,num_6,16,num_6,0.88345862491,,,2017_Jun_26_1859,60.0110098026,MAFE4ImagesEEG,001,100489,
AMSA21.JPG,AMNE23.JPG,AMNE21.JPG,AMSA25.JPG,AMNE25.JPG,AMSA23.JPG,,,,,,,,,,,,,,,,,0,8,8,5,,,,,,,AMSA13.jpg,AMNE09.jpg,AMSA03.jpg,AMNE06.jpg,AMSA03.jpg,MS,2,num_2,16,num_2,1.18345535337,,,2017_Jun_26_1859,60.0110098026,MAFE4ImagesEEG,001,100489,
AMNE23.JPG,AMNE24.JPG,AMNE22.JPG,AMSA24.JPG,AMSA22.JPG,AMSA23.JPG,,,,,,,,,,,,,,,,,0,9,9,9,,,,,,,AMSA14.jpg,AMNE14.jpg,AMSA08.jpg,AMNE11.jpg,AMSA14.jpg,MS,2,num_8,16,num_8,0.800049009009,,,2017_Jun_26_1859,60.0110098026,MAFE4ImagesEEG,001,100489,
AMSA21.JPG,AMNE22.JPG,AMNE21.JPG,AMSA23.JPG,AMSA22.JPG,AMNE23.JPG,,,,,,,,,,,,,,,,,,,,,0,0,0,1,,,AFNE14.jpg,AFNE16.jpg,AFSA11.jpg,AFSA04.jpg,AFNE16.jpg,FN,3,num_6,32,num_8,1.46676175527,,,2017_Jun_26_1859,60.0110098026,MAFE4ImagesEEG,001,100489,
AFSA21.JPG,AFNE22.JPG,AFNE21.JPG,AFSA23.JPG,AFSA22.JPG,AFNE23.JPG,,,,,,,,,,,,,,,,,,,,,0,1,1,0,,,AFNE14.jpg,AFNE10.jpg,AFSA06.jpg,AFSA11.jpg,AFNE14.jpg,FN,3,num_8,32,num_4,0.68342231719,,,2017_Jun_26_1859,60.0110098026,MAFE4ImagesEEG,001,100489,
AFNE22.JPG,AFSA24.JPG,AFSA22.JPG,AFNE25.JPG,AFNE24.JPG,AFSA25.JPG,,,,,,,,,,,,,,,,,,,,,0,2,2,6,,,AFNE10.jpg,AFSA10.jpg,AFNE11.jpg,AFSA02.jpg,AFSA10.jpg,FS,4,num_6,16,num_6,0.733469882871,,,2017_Jun_26_1859,60.0110098026,MAFE4ImagesEEG,001,100489,
AMSA25.JPG,AMNE24.JPG,AMSA24.JPG,AMNE26.JPG,AMSA21.JPG,AMNE25.JPG,,,,,,,,,,,,,,,,,,,,,0,3,3,3,,,AFSA16.jpg,AFSA20.jpg,AFNE15.jpg,AFNE01.jpg,AFSA20.jpg,FS,4,num_6,32,num_2,1.38354939422,,,2017_Jun_26_1859,60.0110098026,MAFE4ImagesEEG,001,100489,
AFSA25.JPG,AFNE24.JPG,AFSA24.JPG,AFNE21.JPG,AFSA21.JPG,AFNE25.JPG,,,,,,,,,,,,,,,,,,,,,0,4,4,2,,,AFSA04.jpg,AFNE13.jpg,AFSA02.jpg,AFNE06.jpg,AFSA02.jpg,FS,4,num_2,32,num_4,0.816752806633,,,2017_Jun_26_1859,60.0110098026,MAFE4ImagesEEG,001,100489,
AMNE22.JPG,AMSA24.JPG,AMSA22.JPG,AMNE25.JPG,AMNE24.JPG,AMSA25.JPG,,,,,,,,,,,,,,,,,,,,,0,5,5,7,,,AFSA03.jpg,AFSA11.jpg,AFNE12.jpg,AFNE16.jpg,AFNE16.jpg,FN,3,num_4,32,num_2,0.883428796129,,,2017_Jun_26_1859,60.0110098026,MAFE4ImagesEEG,001,100489,
AMSA21.JPG,AMNE23.JPG,AMNE21.JPG,AMSA25.JPG,AMNE25.JPG,AMSA23.JPG,,,,,,,,,,,,,,,,,,,,,0,6,6,5,,,AFSA14.jpg,AFSA08.jpg,AFNE09.jpg,AFNE07.jpg,AFSA14.jpg,FS,4,num_8,16,num_8,0.916742414669,,,2017_Jun_26_1859,60.0110098026,MAFE4ImagesEEG,001,100489,
AFNE23.JPG,AFNE24.JPG,AFNE22.JPG,AFSA24.JPG,AFSA22.JPG,AFSA23.JPG,,,,,,,,,,,,,,,,,,,,,0,7,7,8,,,AFSA12.jpg,AFNE10.jpg,AFSA10.jpg,AFNE13.jpg,AFSA12.jpg,FS,4,num_8,16,num_8,1.10009609358,,,2017_Jun_26_1859,60.0110098026,MAFE4ImagesEEG,001,100489,
AFSA21.JPG,AFNE23.JPG,AFNE21.JPG,AFSA25.JPG,AFNE25.JPG,AFSA23.JPG,,,,,,,,,,,,,,,,,,,,,0,8,8,4,,,AFNE12.jpg,AFSA18.jpg,AFNE16.jpg,AFSA02.jpg,AFNE12.jpg,FN,3,num_8,32,num_2,0.933461928529,,,2017_Jun_26_1859,60.0110098026,MAFE4ImagesEEG,001,100489,
AMNE23.JPG,AMNE24.JPG,AMNE22.JPG,AMSA24.JPG,AMSA22.JPG,AMSA23.JPG,,,,,,,,,,,,,,,,,,,,,0,9,9,9,,,AFSA18.jpg,AFNE14.jpg,AFNE17.jpg,AFSA04.jpg,AFSA18.jpg,FS,4,num_8,32,num_4,0.700146321404,,,2017_Jun_26_1859,60.0110098026,MAFE4ImagesEEG,001,100489,
,,,,,,,,,,,,,,,,,,,,,,,,,,,,,,,,,,,,,,,,,,,space,68.8450712266,2017_Jun_26_1859,60.0110098026,MAFE4ImagesEEG,001,100489,
AFNE01.JPG,AFNE01.JPG,AFNE01.JPG,AFNE01.JPG,AFNE01.JPG,AFNE01.JPG,0,0,0,9,,,,,,,,,,,,,,,,,,,,,,,AMSA16.jpg,AMNE05.jpg,AMSA18.jpg,AMNE14.jpg,AMSA18.jpg,MS,2,num_2,32,num_4,0.683643306773,,,2017_Jun_26_1859,60.0110098026,MAFE4ImagesEEG,001,100489,
AFNE01.JPG,AFNE01.JPG,AFNE01.JPG,AFNE01.JPG,AFNE01.JPG,AFNE01.JPG,0,1,1,5,,,,,,,,,,,,,,,,,,,,,,,AMNE16.jpg,AMSA15.jpg,AMNE03.jpg,AMSA02.jpg,AMSA15.jpg,MS,2,num_6,16,num_6,0.916728622866,,,2017_Jun_26_1859,60.0110098026,MAFE4ImagesEEG,001,100489,
AFNE01.JPG,AFNE01.JPG,AFNE01.JPG,AFNE01.JPG,AFNE01.JPG,AFNE01.JPG,0,2,2,6,,,,,,,,,,,,,,,,,,,,,,,AMNE17.jpg,AMNE11.jpg,AMSA08.jpg,AMSA19.jpg,AMSA19.jpg,MS,2,num_4,16,num_4,1.28353027814,,,2017_Jun_26_1859,60.0110098026,MAFE4ImagesEEG,001,100489,
AFNE01.JPG,AFNE01.JPG,AFNE01.JPG,AFNE01.JPG,AFNE01.JPG,AFNE01.JPG,0,3,3,3,,,,,,,,,,,,,,,,,,,,,,,AMNE13.jpg,AMSA03.jpg,AMSA08.jpg,AMNE20.jpg,AMNE13.jpg,MN,1,num_8,32,num_6,0.600158317066,,,2017_Jun_26_1859,60.0110098026,MAFE4ImagesEEG,001,100489,
AFNE01.JPG,AFNE01.JPG,AFNE01.JPG,AFNE01.JPG,AFNE01.JPG,AFNE01.JPG,0,4,4,4,,,,,,,,,,,,,,,,,,,,,,,AMSA03.jpg,AMNE14.jpg,AMNE06.jpg,AMSA13.jpg,AMSA03.jpg,MS,2,num_8,32,num_4,0.800147476068,,,2017_Jun_26_1859,60.0110098026,MAFE4ImagesEEG,001,100489,
AFNE01.JPG,AFNE01.JPG,AFNE01.JPG,AFNE01.JPG,AFNE01.JPG,AFNE01.JPG,0,5,5,2,,,,,,,,,,,,,,,,,,,,,,,AMNE19.jpg,AMSA06.jpg,AMSA18.jpg,AMNE11.jpg,AMNE19.jpg,MN,1,num_8,32,num_6,0.916776733808,,,2017_Jun_26_1859,60.0110098026,MAFE4ImagesEEG,001,100489,
AFNE01.JPG,AFNE01.JPG,AFNE01.JPG,AFNE01.JPG,AFNE01.JPG,AFNE01.JPG,0,6,6,1,,,,,,,,,,,,,,,,,,,,,,,AMSA07.jpg,AMSA14.jpg,AMNE10.jpg,AMNE11.jpg,AMSA14.jpg,MS,2,num_6,16,num_6,0.833423568074,,,2017_Jun_26_1859,60.0110098026,MAFE4ImagesEEG,001,100489,
AFNE01.JPG,AFNE01.JPG,AFNE01.JPG,AFNE01.JPG,AFNE01.JPG,AFNE01.JPG,0,7,7,7,,,,,,,,,,,,,,,,,,,,,,,AMNE11.jpg,AMSA01.jpg,AMSA07.jpg,AMNE15.jpg,AMNE15.jpg,MN,1,num_4,16,num_4,0.833470075315,,,2017_Jun_26_1859,60.0110098026,MAFE4ImagesEEG,001,100489,
AFNE01.JPG,AFNE01.JPG,AFNE01.JPG,AFNE01.JPG,AFNE01.JPG,AFNE01.JPG,0,8,8,8,,,,,,,,,,,,,,,,,,,,,,,AMNE07.jpg,AMSA20.jpg,AMSA01.jpg,AMNE13.jpg,AMNE07.jpg,MN,1,num_8,32,num_4,0.717071108611,,,2017_Jun_26_1859,60.0110098026,MAFE4ImagesEEG,001,100489,
AFNE01.JPG,AFNE01.JPG,AFNE01.JPG,AFNE01.JPG,AFNE01.JPG,AFNE01.JPG,0,9,9,0,,,,,,,,,,,,,,,,,,,,,,,AMNE09.jpg,AMSA02.jpg,AMSA11.jpg,AMNE14.jpg,AMNE14.jpg,MN,1,num_4,16,num_4,0.783429245166,,,2017_Jun_26_1859,60.0110098026,MAFE4ImagesEEG,001,100489,
AFNE01.JPG,AFNE01.JPG,AFNE01.JPG,AFNE01.JPG,AFNE01.JPG,AFNE01.JPG,1,0,10,7,,,,,,,,,,,,,,,,,,,,,,,AMSA02.jpg,AMNE08.jpg,AMNE15.jpg,AMSA09.jpg,AMSA09.jpg,MS,2,num_4,32,num_8,1.13340169363,,,2017_Jun_26_1859,60.0110098026,MAFE4ImagesEEG,001,100489,
AFNE01.JPG,AFNE01.JPG,AFNE01.JPG,AFNE01.JPG,AFNE01.JPG,AFNE01.JPG,1,1,11,1,,,,,,,,,,,,,,,,,,,,,,,AMSA04.jpg,AMNE09.jpg,AMNE11.jpg,AMSA16.jpg,AMNE09.jpg,MN,1,num_6,32,num_4,1.5167028354,,,2017_Jun_26_1859,60.0110098026,MAFE4ImagesEEG,001,100489,
AFNE01.JPG,AFNE01.JPG,AFNE01.JPG,AFNE01.JPG,AFNE01.JPG,AFNE01.JPG,1,2,12,5,,,,,,,,,,,,,,,,,,,,,,,AMSA06.jpg,AMSA15.jpg,AMNE18.jpg,AMNE07.jpg,AMSA15.jpg,MS,2,num_6,16,num_6,0.833453076117,,,2017_Jun_26_1859,60.0110098026,MAFE4ImagesEEG,001,100489,
AFNE01.JPG,AFNE01.JPG,AFNE01.JPG,AFNE01.JPG,AFNE01.JPG,AFNE01.JPG,1,3,13,3,,,,,,,,,,,,,,,,,,,,,,,AMSA15.jpg,AMSA20.jpg,AMNE08.jpg,AMNE12.jpg,AMNE08.jpg,MN,1,num_2,32,num_4,0.950079126462,,,2017_Jun_26_1859,60.0110098026,MAFE4ImagesEEG,001,100489,
AFNE01.JPG,AFNE01.JPG,AFNE01.JPG,AFNE01.JPG,AFNE01.JPG,AFNE01.JPG,1,4,14,6,,,,,,,,,,,,,,,,,,,,,,,AMNE13.jpg,AMSA07.jpg,AMNE19.jpg,AMSA09.jpg,AMSA07.jpg,MS,2,num_6,32,num_2,1.51672336274,,,2017_Jun_26_1859,60.0110098026,MAFE4ImagesEEG,001,100489,
AFNE01.JPG,AFNE01.JPG,AFNE01.JPG,AFNE01.JPG,AFNE01.JPG,AFNE01.JPG,1,5,15,8,,,,,,,,,,,,,,,,,,,,,,,AMNE01.jpg,AMNE12.jpg,AMSA03.jpg,AMSA12.jpg,AMSA03.jpg,MS,2,num_2,32,num_8,1.25007777935,,,2017_Jun_26_1859,60.0110098026,MAFE4ImagesEEG,001,100489,
AFNE01.JPG,AFNE01.JPG,AFNE01.JPG,AFNE01.JPG,AFNE01.JPG,AFNE01.JPG,1,6,16,9,,,,,,,,,,,,,,,,,,,,,,,AMSA19.jpg,AMNE06.jpg,AMSA02.jpg,AMNE14.jpg,AMNE14.jpg,MN,1,num_4,16,num_4,0.85013057309,,,2017_Jun_26_1859,60.0110098026,MAFE4ImagesEEG,001,100489,
AFNE01.JPG,AFNE01.JPG,AFNE01.JPG,AFNE01.JPG,AFNE01.JPG,AFNE01.JPG,1,7,17,0,,,,,,,,,,,,,,,,,,,,,,,AMNE13.jpg,AMSA16.jpg,AMNE10.jpg,AMSA18.jpg,AMNE10.jpg,MN,1,num_2,32,num_8,0.850084065849,,,2017_Jun_26_1859,60.0110098026,MAFE4ImagesEEG,001,100489,
AFNE01.JPG,AFNE01.JPG,AFNE01.JPG,AFNE01.JPG,AFNE01.JPG,AFNE01.JPG,1,8,18,2,,,,,,,,,,,,,,,,,,,,,,,AMNE01.jpg,AMSA15.jpg,AMSA18.jpg,AMNE11.jpg,AMNE11.jpg,MN,1,num_4,16,num_4,0.700121303718,,,2017_Jun_26_1859,60.0110098026,MAFE4ImagesEEG,001,100489,
AFNE01.JPG,AFNE01.JPG,AFNE01.JPG,AFNE01.JPG,AFNE01.JPG,AFNE01.JPG,1,9,19,4,,,,,,,,,,,,,,,,,,,,,,,AMNE14.jpg,AMSA03.jpg,AMNE08.jpg,AMSA07.jpg,AMNE14.jpg,MN,1,num_8,32,num_4,0.917035570663,,,2017_Jun_26_1859,60.0110098026,MAFE4ImagesEEG,001,100489,
AFNE01.JPG,AFNE01.JPG,AFNE01.JPG,AFNE01.JPG,AFNE01.JPG,AFNE01.JPG,2,0,20,9,,,,,,,,,,,,,,,,,,,,,,,AMSA05.jpg,AMSA06.jpg,AMNE14.jpg,AMNE06.jpg,AMNE06.jpg,MN,1,num_4,16,num_4,1.00007793972,,,2017_Jun_26_1859,60.0110098026,MAFE4ImagesEEG,001,100489,
AFNE01.JPG,AFNE01.JPG,AFNE01.JPG,AFNE01.JPG,AFNE01.JPG,AFNE01.JPG,2,1,21,8,,,,,,,,,,,,,,,,,,,,,,,AMSA13.jpg,AMNE13.jpg,AMSA14.jpg,AMNE06.jpg,AMNE13.jpg,MN,1,num_6,16,num_6,0.666835589524,,,2017_Jun_26_1859,60.0110098026,MAFE4ImagesEEG,001,100489,
AFNE01.JPG,AFNE01.JPG,AFNE01.JPG,AFNE01.JPG,AFNE01.JPG,AFNE01.JPG,2,2,22,7,,,,,,,,,,,,,,,,,,,,,,,AMNE12.jpg,AMSA20.jpg,AMNE03.jpg,AMSA09.jpg,AMNE03.jpg,MN,1,num_2,32,num_8,1.13349631182,,,2017_Jun_26_1859,60.0110098026,MAFE4ImagesEEG,001,100489,
AFNE01.JPG,AFNE01.JPG,AFNE01.JPG,AFNE01.JPG,AFNE01.JPG,AFNE01.JPG,2,3,23,0,,,,,,,,,,,,,,,,,,,,,,,AMNE19.jpg,AMSA16.jpg,AMNE18.jpg,AMSA09.jpg,AMSA09.jpg,MS,2,num_4,16,num_4,0.88341307989,,,2017_Jun_26_1859,60.0110098026,MAFE4ImagesEEG,001,100489,
AFNE01.JPG,AFNE01.JPG,AFNE01.JPG,AFNE01.JPG,AFNE01.JPG,AFNE01.JPG,2,4,24,1,,,,,,,,,,,,,,,,,,,,,,,AMNE15.jpg,AMSA16.jpg,AMSA19.jpg,AMNE03.jpg,AMSA16.jpg,MS,2,num_6,16,num_6,0.650112226787,,,2017_Jun_26_1859,60.0110098026,MAFE4ImagesEEG,001,100489,
AFNE01.JPG,AFNE01.JPG,AFNE01.JPG,AFNE01.JPG,AFNE01.JPG,AFNE01.JPG,2,5,25,5,,,,,,,,,,,,,,,,,,,,,,,AMNE08.jpg,AMSA19.jpg,AMSA16.jpg,AMNE01.jpg,AMSA19.jpg,MS,2,num_6,32,num_2,1.4000155238,,,2017_Jun_26_1859,60.0110098026,MAFE4ImagesEEG,001,100489,
AFNE01.JPG,AFNE01.JPG,AFNE01.JPG,AFNE01.JPG,AFNE01.JPG,AFNE01.JPG,2,6,26,2,,,,,,,,,,,,,,,,,,,,,,,AMNE03.jpg,AMSA06.jpg,AMNE10.jpg,AMSA20.jpg,AMNE10.jpg,MN,1,num_2,32,num_4,0.800145230889,,,2017_Jun_26_1859,60.0110098026,MAFE4ImagesEEG,001,100489,
AFNE01.JPG,AFNE01.JPG,AFNE01.JPG,AFNE01.JPG,AFNE01.JPG,AFNE01.JPG,2,7,27,6,,,,,,,,,,,,,,,,,,,,,,,AMSA14.jpg,AMNE01.jpg,AMNE06.jpg,AMSA01.jpg,AMSA14.jpg,MS,2,num_8,16,num_8,1.08343848247,,,2017_Jun_26_1859,60.0110098026,MAFE4ImagesEEG,001,100489,
AFNE01.JPG,AFNE01.JPG,AFNE01.JPG,AFNE01.JPG,AFNE01.JPG,AFNE01.JPG,2,8,28,3,,,,,,,,,,,,,,,,,,,,,,,AMSA01.jpg,AMSA13.jpg,AMNE19.jpg,AMNE05.jpg,AMSA01.jpg,MS,2,num_8,16,num_8,1.92910147367,,,2017_Jun_26_1859,60.0110098026,MAFE4ImagesEEG,001,100489,
AFNE01.JPG,AFNE01.JPG,AFNE01.JPG,AFNE01.JPG,AFNE01.JPG,AFNE01.JPG,2,9,29,4,,,,,,,,,,,,,,,,,,,,,,,AMSA10.jpg,AMNE16.jpg,AMNE19.jpg,AMSA20.jpg,AMSA10.jpg,MS,2,num_8,32,num_4,1.46672711539,,,2017_Jun_26_1859,60.0110098026,MAFE4ImagesEEG,001,100489,
AFNE01.JPG,AFNE01.JPG,AFNE01.JPG,AFNE01.JPG,AFNE01.JPG,AFNE01.JPG,3,0,30,2,,,,,,,,,,,,,,,,,,,,,,,AMSA18.jpg,AMNE07.jpg,AMNE04.jpg,AMSA02.jpg,AMSA02.jpg,MS,2,num_4,32,num_2,1.83332606324,,,2017_Jun_26_1859,60.0110098026,MAFE4ImagesEEG,001,100489,
AFNE01.JPG,AFNE01.JPG,AFNE01.JPG,AFNE01.JPG,AFNE01.JPG,AFNE01.JPG,3,1,31,4,,,,,,,,,,,,,,,,,,,,,,,AMNE17.jpg,AMSA10.jpg,AMNE15.jpg,AMSA01.jpg,AMNE17.jpg,MN,1,num_8,16,num_8,1.15010035942,,,2017_Jun_26_1859,60.0110098026,MAFE4ImagesEEG,001,100489,
AFNE01.JPG,AFNE01.JPG,AFNE01.JPG,AFNE01.JPG,AFNE01.JPG,AFNE01.JPG,3,2,32,9,,,,,,,,,,,,,,,,,,,,,,,AMSA08.jpg,AMSA01.jpg,AMNE15.jpg,AMNE19.jpg,AMSA01.jpg,MS,2,num_6,16,num_6,0.800110270276,,,2017_Jun_26_1859,60.0110098026,MAFE4ImagesEEG,001,100489,
AFNE01.JPG,AFNE01.JPG,AFNE01.JPG,AFNE01.JPG,AFNE01.JPG,AFNE01.JPG,3,3,33,6,,,,,,,,,,,,,,,,,,,,,,,AMNE04.jpg,AMNE02.jpg,AMSA18.jpg,AMSA08.jpg,AMNE02.jpg,MN,1,num_6,32,num_8,1.76665263965,,,2017_Jun_26_1859,60.0110098026,MAFE4ImagesEEG,001,100489,
AFNE01.JPG,AFNE01.JPG,AFNE01.JPG,AFNE01.JPG,AFNE01.JPG,AFNE01.JPG,3,4,34,0,,,,,,,,,,,,,,,,,,,,,,,AMSA16.jpg,AMSA07.jpg,AMNE11.jpg,AMNE07.jpg,AMNE11.jpg,MN,1,num_2,16,num_2,1.3501071591,,,2017_Jun_26_1859,60.0110098026,MAFE4ImagesEEG,001,100489,
AFNE01.JPG,AFNE01.JPG,AFNE01.JPG,AFNE01.JPG,AFNE01.JPG,AFNE01.JPG,3,5,35,3,,,,,,,,,,,,,,,,,,,,,,,AMSA09.jpg,AMNE13.jpg,AMSA01.jpg,AMNE14.jpg,AMNE14.jpg,MN,1,num_4,32,num_6,1.16677946009,,,2017_Jun_26_1859,60.0110098026,MAFE4ImagesEEG,001,100489,
AFNE01.JPG,AFNE01.JPG,AFNE01.JPG,AFNE01.JPG,AFNE01.JPG,AFNE01.JPG,3,6,36,8,,,,,,,,,,,,,,,,,,,,,,,AMSA15.jpg,AMNE16.jpg,AMSA07.jpg,AMNE03.jpg,AMSA07.jpg,MS,2,num_2,32,num_8,1.23341375344,,,2017_Jun_26_1859,60.0110098026,MAFE4ImagesEEG,001,100489,
AFNE01.JPG,AFNE01.JPG,AFNE01.JPG,AFNE01.JPG,AFNE01.JPG,AFNE01.JPG,3,7,37,1,,,,,,,,,,,,,,,,,,,,,,,AMSA04.jpg,AMNE01.jpg,AMSA10.jpg,AMNE14.jpg,AMNE14.jpg,MN,1,num_4,16,num_4,1.61636464757,,,2017_Jun_26_1859,60.0110098026,MAFE4ImagesEEG,001,100489,
AFNE01.JPG,AFNE01.JPG,AFNE01.JPG,AFNE01.JPG,AFNE01.JPG,AFNE01.JPG,3,8,38,5,,,,,,,,,,,,,,,,,,,,,,,AMSA11.jpg,AMSA20.jpg,AMNE20.jpg,AMNE09.jpg,AMNE20.jpg,MN,1,num_2,32,num_6,0.733441978526,,,2017_Jun_26_1859,60.0110098026,MAFE4ImagesEEG,001,100489,
AFNE01.JPG,AFNE01.JPG,AFNE01.JPG,AFNE01.JPG,AFNE01.JPG,AFNE01.JPG,3,9,39,7,,,,,,,,,,,,,,,,,,,,,,,AMSA03.jpg,AMNE20.jpg,AMSA01.jpg,AMNE02.jpg,AMSA01.jpg,MS,2,num_2,32,num_4,0.0501556549279,,,2017_Jun_26_1859,60.0110098026,MAFE4ImagesEEG,001,100489,
AFNE01.JPG,AFNE01.JPG,AFNE01.JPG,AFNE01.JPG,AFNE01.JPG,AFNE01.JPG,4,0,40,8,,,,,,,,,,,,,,,,,,,,,,,AMSA03.jpg,AMSA04.jpg,AMNE19.jpg,AMNE01.jpg,AMSA03.jpg,MS,2,num_8,16,num_8,0.583534704347,,,2017_Jun_26_1859,60.0110098026,MAFE4ImagesEEG,001,100489,
AFNE01.JPG,AFNE01.JPG,AFNE01.JPG,AFNE01.JPG,AFNE01.JPG,AFNE01.JPG,4,1,41,1,,,,,,,,,,,,,,,,,,,,,,,AMNE12.jpg,AMSA02.jpg,AMNE06.jpg,AMSA17.jpg,AMSA02.jpg,MS,2,num_6,32,num_2,1.3000676119,,,2017_Jun_26_1859,60.0110098026,MAFE4ImagesEEG,001,100489,
AFNE01.JPG,AFNE01.JPG,AFNE01.JPG,AFNE01.JPG,AFNE01.JPG,AFNE01.JPG,4,2,42,2,,,,,,,,,,,,,,,,,,,,,,,AMNE02.jpg,AMSA02.jpg,AMSA18.jpg,AMNE04.jpg,AMNE04.jpg,MN,1,num_4,32,num_8,1.83333825134,,,2017_Jun_26_1859,60.0110098026,MAFE4ImagesEEG,001,100489,
AFNE01.JPG,AFNE01.JPG,AFNE01.JPG,AFNE01.JPG,AFNE01.JPG,AFNE01.JPG,4,3,43,0,,,,,,,,,,,,,,,,,,,,,,,AMSA01.jpg,AMNE14.jpg,AMNE17.jpg,AMSA03.jpg,AMNE14.jpg,MN,1,num_6,32,num_4,0.983522644536,,,2017_Jun_26_1859,60.0110098026,MAFE4ImagesEEG,001,100489,
AFNE01.JPG,AFNE01.JPG,AFNE01.JPG,AFNE01.JPG,AFNE01.JPG,AFNE01.JPG,4,4,44,3,,,,,,,,,,,,,,,,,,,,,,,AMNE01.jpg,AMNE11.jpg,AMSA08.jpg,AMSA11.jpg,AMNE01.jpg,MN,1,num_8,32,num_2,1.10008935805,,,2017_Jun_26_1859,60.0110098026,MAFE4ImagesEEG,001,100489,
AFNE01.JPG,AFNE01.JPG,AFNE01.JPG,AFNE01.JPG,AFNE01.JPG,AFNE01.JPG,4,5,45,5,,,,,,,,,,,,,,,,,,,,,,,AMSA17.jpg,AMSA03.jpg,AMNE06.jpg,AMNE04.jpg,AMSA17.jpg,MS,2,num_8,16,num_8,1.66668131377,,,2017_Jun_26_1859,60.0110098026,MAFE4ImagesEEG,001,100489,
AFNE01.JPG,AFNE01.JPG,AFNE01.JPG,AFNE01.JPG,AFNE01.JPG,AFNE01.JPG,4,6,46,7,,,,,,,,,,,,,,,,,,,,,,,AMNE13.jpg,AMSA19.jpg,AMSA04.jpg,AMNE16.jpg,AMNE13.jpg,MN,1,num_8,32,num_4,1.16683655174,,,2017_Jun_26_1859,60.0110098026,MAFE4ImagesEEG,001,100489,
AFNE01.JPG,AFNE01.JPG,AFNE01.JPG,AFNE01.JPG,AFNE01.JPG,AFNE01.JPG,4,7,47,4,,,,,,,,,,,,,,,,,,,,,,,AMNE20.jpg,AMNE03.jpg,AMSA10.jpg,AMSA02.jpg,AMSA10.jpg,MS,2,num_2,32,num_6,1.13341291952,,,2017_Jun_26_1859,60.0110098026,MAFE4ImagesEEG,001,100489,
AFNE01.JPG,AFNE01.JPG,AFNE01.JPG,AFNE01.JPG,AFNE01.JPG,AFNE01.JPG,4,8,48,6,,,,,,,,,,,,,,,,,,,,,,,AMSA15.jpg,AMSA05.jpg,AMNE03.jpg,AMNE18.jpg,AMSA15.jpg,MS,2,num_8,32,num_4,0.850102027267,,,2017_Jun_26_1859,60.0110098026,MAFE4ImagesEEG,001,100489,
AFNE01.JPG,AFNE01.JPG,AFNE01.JPG,AFNE01.JPG,AFNE01.JPG,AFNE01.JPG,4,9,49,9,,,,,,,,,,,,,,,,,,,,,,,AMNE03.jpg,AMSA15.jpg,AMSA04.jpg,AMNE09.jpg,AMNE09.jpg,MN,1,num_4,16,num_4,0.866806787104,,,2017_Jun_26_1859,60.0110098026,MAFE4ImagesEEG,001,100489,
AFNE01.JPG,AFNE01.JPG,AFNE01.JPG,AFNE01.JPG,AFNE01.JPG,AFNE01.JPG,5,0,50,3,,,,,,,,,,,,,,,,,,,,,,,AMSA15.jpg,AMNE20.jpg,AMNE16.jpg,AMSA13.jpg,AMSA13.jpg,MS,2,num_4,32,num_2,1.14999515683,,,2017_Jun_26_1859,60.0110098026,MAFE4ImagesEEG,001,100489,
AFNE01.JPG,AFNE01.JPG,AFNE01.JPG,AFNE01.JPG,AFNE01.JPG,AFNE01.JPG,5,1,51,2,,,,,,,,,,,,,,,,,,,,,,,AMNE14.jpg,AMSA19.jpg,AMNE16.jpg,AMSA05.jpg,AMNE16.jpg,MN,1,num_2,32,num_8,1.03328828011,,,2017_Jun_26_1859,60.0110098026,MAFE4ImagesEEG,001,100489,
AFNE01.JPG,AFNE01.JPG,AFNE01.JPG,AFNE01.JPG,AFNE01.JPG,AFNE01.JPG,5,2,52,7,,,,,,,,,,,,,,,,,,,,,,,AMNE04.jpg,AMNE01.jpg,AMSA15.jpg,AMSA03.jpg,AMSA15.jpg,MS,2,num_2,32,num_4,1.06675745736,,,2017_Jun_26_1859,60.0110098026,MAFE4ImagesEEG,001,100489,
AFNE01.JPG,AFNE01.JPG,AFNE01.JPG,AFNE01.JPG,AFNE01.JPG,AFNE01.JPG,5,3,53,1,,,,,,,,,,,,,,,,,,,,,,,AMSA08.jpg,AMNE10.jpg,AMSA18.jpg,AMNE08.jpg,AMNE08.jpg,MN,1,num_4,32,num_8,0.916781224161,,,2017_Jun_26_1859,60.0110098026,MAFE4ImagesEEG,001,100489,
AFNE01.JPG,AFNE01.JPG,AFNE01.JPG,AFNE01.JPG,AFNE01.JPG,AFNE01.JPG,5,4,54,9,,,,,,,,,,,,,,,,,,,,,,,AMSA04.jpg,AMNE02.jpg,AMNE19.jpg,AMSA10.jpg,AMNE02.jpg,MN,1,num_6,16,num_6,0.750158926472,,,2017_Jun_26_1859,60.0110098026,MAFE4ImagesEEG,001,100489,
AFNE01.JPG,AFNE01.JPG,AFNE01.JPG,AFNE01.JPG,AFNE01.JPG,AFNE01.JPG,5,5,55,0,,,,,,,,,,,,,,,,,,,,,,,AMNE06.jpg,AMSA06.jpg,AMSA07.jpg,AMNE18.jpg,AMSA07.jpg,MS,2,num_2,32,num_4,0.566640387402,,,2017_Jun_26_1859,60.0110098026,MAFE4ImagesEEG,001,100489,
AFNE01.JPG,AFNE01.JPG,AFNE01.JPG,AFNE01.JPG,AFNE01.JPG,AFNE01.JPG,5,6,56,5,,,,,,,,,,,,,,,,,,,,,,,AMNE06.jpg,AMNE15.jpg,AMSA12.jpg,AMSA03.jpg,AMSA12.jpg,MS,2,num_2,32,num_6,0.58354945837,,,2017_Jun_26_1859,60.0110098026,MAFE4ImagesEEG,001,100489,
AFNE01.JPG,AFNE01.JPG,AFNE01.JPG,AFNE01.JPG,AFNE01.JPG,AFNE01.JPG,5,7,57,8,,,,,,,,,,,,,,,,,,,,,,,AMSA11.jpg,AMNE13.jpg,AMNE11.jpg,AMSA02.jpg,AMNE13.jpg,MN,1,num_6,32,num_2,0.483485438741,,,2017_Jun_26_1859,60.0110098026,MAFE4ImagesEEG,001,100489,
AFNE01.JPG,AFNE01.JPG,AFNE01.JPG,AFNE01.JPG,AFNE01.JPG,AFNE01.JPG,5,8,58,4,,,,,,,,,,,,,,,,,,,,,,,AMNE10.jpg,AMSA20.jpg,AMSA03.jpg,AMNE06.jpg,AMNE06.jpg,MN,1,num_4,32,num_6,0.633453653449,,,2017_Jun_26_1859,60.0110098026,MAFE4ImagesEEG,001,100489,
AFNE01.JPG,AFNE01.JPG,AFNE01.JPG,AFNE01.JPG,AFNE01.JPG,AFNE01.JPG,5,9,59,6,,,,,,,,,,,,,,,,,,,,,,,AMSA09.jpg,AMNE04.jpg,AMNE18.jpg,AMSA05.jpg,AMNE18.jpg,MN,1,num_2,32,num_4,0.566784399482,,,2017_Jun_26_1859,60.0110098026,MAFE4ImagesEEG,001,100489,
,,,,,,,,,,,,,,,,,,,,,,,,,,,,,,,,,,,,,,,,,,,space,48.4130102887,2017_Jun_26_1859,60.0110098026,MAFE4ImagesEEG,001,100489,
AFNE01.JPG,AFNE01.JPG,AFNE01.JPG,AFNE01.JPG,AFNE01.JPG,AFNE01.JPG,,,,,0,0,0,8,,,,,,,,,,,,,,,,,,,AFNE15.jpg,AFSA04.jpg,AFSA02.jpg,AFNE04.jpg,AFNE04.jpg,FN,3,num_4,16,num_4,0.916761979784,,,2017_Jun_26_1859,60.0110098026,MAFE4ImagesEEG,001,100489,
AFNE01.JPG,AFNE01.JPG,AFNE01.JPG,AFNE01.JPG,AFNE01.JPG,AFNE01.JPG,,,,,0,1,1,4,,,,,,,,,,,,,,,,,,,AFSA11.jpg,AFSA12.jpg,AFNE13.jpg,AFNE14.jpg,AFNE14.jpg,FN,3,num_4,32,num_8,1.06676387215,,,2017_Jun_26_1859,60.0110098026,MAFE4ImagesEEG,001,100489,
AFNE01.JPG,AFNE01.JPG,AFNE01.JPG,AFNE01.JPG,AFNE01.JPG,AFNE01.JPG,,,,,0,2,2,1,,,,,,,,,,,,,,,,,,,AFNE03.jpg,AFSA02.jpg,AFNE14.jpg,AFSA05.jpg,AFNE03.jpg,FN,3,num_8,16,num_8,0.950136859588,,,2017_Jun_26_1859,60.0110098026,MAFE4ImagesEEG,001,100489,
AFNE01.JPG,AFNE01.JPG,AFNE01.JPG,AFNE01.JPG,AFNE01.JPG,AFNE01.JPG,,,,,0,3,3,9,,,,,,,,,,,,,,,,,,,AFNE12.jpg,AFSA03.jpg,AFNE01.jpg,AFSA14.jpg,AFNE01.jpg,FN,3,num_2,32,num_4,0.883440984235,,,2017_Jun_26_1859,60.0110098026,MAFE4ImagesEEG,001,100489,
AFNE01.JPG,AFNE01.JPG,AFNE01.JPG,AFNE01.JPG,AFNE01.JPG,AFNE01.JPG,,,,,0,4,4,6,,,,,,,,,,,,,,,,,,,AFNE05.jpg,AFNE07.jpg,AFSA10.jpg,AFSA13.jpg,AFSA13.jpg,FS,4,num_4,32,num_8,1.24996680345,,,2017_Jun_26_1859,60.0110098026,MAFE4ImagesEEG,001,100489,
AFNE01.JPG,AFNE01.JPG,AFNE01.JPG,AFNE01.JPG,AFNE01.JPG,AFNE01.JPG,,,,,0,5,5,3,,,,,,,,,,,,,,,,,,,AFNE09.jpg,AFSA04.jpg,AFSA14.jpg,AFNE07.jpg,AFSA14.jpg,FS,4,num_2,16,num_2,0.900091539082,,,2017_Jun_26_1859,60.0110098026,MAFE4ImagesEEG,001,100489,
AFNE01.JPG,AFNE01.JPG,AFNE01.JPG,AFNE01.JPG,AFNE01.JPG,AFNE01.JPG,,,,,0,6,6,5,,,,,,,,,,,,,,,,,,,AFSA03.jpg,AFSA13.jpg,AFNE12.jpg,AFNE20.jpg,AFNE20.jpg,FN,3,num_4,32,num_8,0.750135191742,,,2017_Jun_26_1859,60.0110098026,MAFE4ImagesEEG,001,100489,
AFNE01.JPG,AFNE01.JPG,AFNE01.JPG,AFNE01.JPG,AFNE01.JPG,AFNE01.JPG,,,,,0,7,7,0,,,,,,,,,,,,,,,,,,,AFNE05.jpg,AFNE02.jpg,AFSA05.jpg,AFSA01.jpg,AFSA05.jpg,FS,4,num_2,32,num_6,1.03345859284,,,2017_Jun_26_1859,60.0110098026,MAFE4ImagesEEG,001,100489,
AFNE01.JPG,AFNE01.JPG,AFNE01.JPG,AFNE01.JPG,AFNE01.JPG,AFNE01.JPG,,,,,0,8,8,7,,,,,,,,,,,,,,,,,,,AFNE08.jpg,AFSA12.jpg,AFSA06.jpg,AFNE15.jpg,AFSA06.jpg,FS,4,num_2,32,num_4,1.11678706162,,,2017_Jun_26_1859,60.0110098026,MAFE4ImagesEEG,001,100489,
AFNE01.JPG,AFNE01.JPG,AFNE01.JPG,AFNE01.JPG,AFNE01.JPG,AFNE01.JPG,,,,,0,9,9,2,,,,,,,,,,,,,,,,,,,AFSA15.jpg,AFNE08.jpg,AFNE14.jpg,AFSA02.jpg,AFSA15.jpg,FS,4,num_8,16,num_8,1.18349544582,,,2017_Jun_26_1859,60.0110098026,MAFE4ImagesEEG,001,100489,
AFNE01.JPG,AFNE01.JPG,AFNE01.JPG,AFNE01.JPG,AFNE01.JPG,AFNE01.JPG,,,,,1,0,10,4,,,,,,,,,,,,,,,,,,,AFSA06.jpg,AFNE02.jpg,AFSA02.jpg,AFNE04.jpg,AFSA06.jpg,FS,4,num_8,32,num_2,1.00008146786,,,2017_Jun_26_1859,60.0110098026,MAFE4ImagesEEG,001,100489,
AFNE01.JPG,AFNE01.JPG,AFNE01.JPG,AFNE01.JPG,AFNE01.JPG,AFNE01.JPG,,,,,1,1,11,8,,,,,,,,,,,,,,,,,,,AFSA20.jpg,AFNE15.jpg,AFSA14.jpg,AFNE16.jpg,AFSA20.jpg,FS,4,num_8,16,num_8,3.68330075688,,,2017_Jun_26_1859,60.0110098026,MAFE4ImagesEEG,001,100489,
AFNE01.JPG,AFNE01.JPG,AFNE01.JPG,AFNE01.JPG,AFNE01.JPG,AFNE01.JPG,,,,,1,2,12,2,,,,,,,,,,,,,,,,,,,AFSA20.jpg,AFSA18.jpg,AFNE17.jpg,AFNE15.jpg,AFNE15.jpg,FN,3,num_4,16,num_4,0.717016262137,,,2017_Jun_26_1859,60.0110098026,MAFE4ImagesEEG,001,100489,
AFNE01.JPG,AFNE01.JPG,AFNE01.JPG,AFNE01.JPG,AFNE01.JPG,AFNE01.JPG,,,,,1,3,13,0,,,,,,,,,,,,,,,,,,,AFNE04.jpg,AFSA11.jpg,AFSA17.jpg,AFNE03.jpg,AFSA11.jpg,FS,4,num_6,32,num_2,1.38344579533,,,2017_Jun_26_1859,60.0110098026,MAFE4ImagesEEG,001,100489,
AFNE01.JPG,AFNE01.JPG,AFNE01.JPG,AFNE01.JPG,AFNE01.JPG,AFNE01.JPG,,,,,1,4,14,7,,,,,,,,,,,,,,,,,,,AFSA08.jpg,AFNE19.jpg,AFSA16.jpg,AFNE10.jpg,AFSA08.jpg,FS,4,num_8,32,num_6,0.633473218564,,,2017_Jun_26_1859,60.0110098026,MAFE4ImagesEEG,001,100489,
AFNE01.JPG,AFNE01.JPG,AFNE01.JPG,AFNE01.JPG,AFNE01.JPG,AFNE01.JPG,,,,,1,5,15,6,,,,,,,,,,,,,,,,,,,AFSA19.jpg,AFNE10.jpg,AFNE13.jpg,AFSA04.jpg,AFSA04.jpg,FS,4,num_4,16,num_4,0.650125056371,,,2017_Jun_26_1859,60.0110098026,MAFE4ImagesEEG,001,100489,
AFNE01.JPG,AFNE01.JPG,AFNE01.JPG,AFNE01.JPG,AFNE01.JPG,AFNE01.JPG,,,,,1,6,16,5,,,,,,,,,,,,,,,,,,,AFNE15.jpg,AFNE03.jpg,AFSA07.jpg,AFSA16.jpg,AFSA07.jpg,FS,4,num_2,32,num_8,0.866750336936,,,2017_Jun_26_1859,60.0110098026,MAFE4ImagesEEG,001,100489,
AFNE01.JPG,AFNE01.JPG,AFNE01.JPG,AFNE01.JPG,AFNE01.JPG,AFNE01.JPG,,,,,1,7,17,9,,,,,,,,,,,,,,,,,,,AFSA17.jpg,AFNE04.jpg,AFNE14.jpg,AFSA14.jpg,AFSA14.jpg,FS,4,num_4,16,num_4,0.733446468879,,,2017_Jun_26_1859,60.0110098026,MAFE4ImagesEEG,001,100489,
AFNE01.JPG,AFNE01.JPG,AFNE01.JPG,AFNE01.JPG,AFNE01.JPG,AFNE01.JPG,,,,,1,8,18,3,,,,,,,,,,,,,,,,,,,AFSA13.jpg,AFNE12.jpg,AFSA03.jpg,AFNE08.jpg,AFSA13.jpg,FS,4,num_8,16,num_8,0.983406536801,,,2017_Jun_26_1859,60.0110098026,MAFE4ImagesEEG,001,100489,
AFNE01.JPG,AFNE01.JPG,AFNE01.JPG,AFNE01.JPG,AFNE01.JPG,AFNE01.JPG,,,,,1,9,19,1,,,,,,,,,,,,,,,,,,,AFNE06.jpg,AFNE04.jpg,AFSA03.jpg,AFSA05.jpg,AFNE06.jpg,FN,3,num_8,32,num_6,0.950083937554,,,2017_Jun_26_1859,60.0110098026,MAFE4ImagesEEG,001,100489,
AFNE01.JPG,AFNE01.JPG,AFNE01.JPG,AFNE01.JPG,AFNE01.JPG,AFNE01.JPG,,,,,2,0,20,1,,,,,,,,,,,,,,,,,,,AFSA14.jpg,AFNE15.jpg,AFSA16.jpg,AFNE08.jpg,AFNE15.jpg,FN,3,num_6,16,num_6,1.1167043108,,,2017_Jun_26_1859,60.0110098026,MAFE4ImagesEEG,001,100489,
AFNE01.JPG,AFNE01.JPG,AFNE01.JPG,AFNE01.JPG,AFNE01.JPG,AFNE01.JPG,,,,,2,1,21,9,,,,,,,,,,,,,,,,,,,AFSA18.jpg,AFNE12.jpg,AFSA04.jpg,AFNE09.jpg,AFNE09.jpg,FN,3,num_4,32,num_6,0.733493617605,,,2017_Jun_26_1859,60.0110098026,MAFE4ImagesEEG,001,100489,
AFNE01.JPG,AFNE01.JPG,AFNE01.JPG,AFNE01.JPG,AFNE01.JPG,AFNE01.JPG,,,,,2,2,22,6,,,,,,,,,,,,,,,,,,,AFNE06.jpg,AFSA18.jpg,AFNE20.jpg,AFSA11.jpg,AFNE06.jpg,FN,3,num_8,32,num_2,0.833421002157,,,2017_Jun_26_1859,60.0110098026,MAFE4ImagesEEG,001,100489,
AFNE01.JPG,AFNE01.JPG,AFNE01.JPG,AFNE01.JPG,AFNE01.JPG,AFNE01.JPG,,,,,2,3,23,3,,,,,,,,,,,,,,,,,,,AFNE05.jpg,AFSA15.jpg,AFSA09.jpg,AFNE18.jpg,AFSA09.jpg,FS,4,num_2,32,num_4,1.05008412999,,,2017_Jun_26_1859,60.0110098026,MAFE4ImagesEEG,001,100489,
AFNE01.JPG,AFNE01.JPG,AFNE01.JPG,AFNE01.JPG,AFNE01.JPG,AFNE01.JPG,,,,,2,4,24,5,,,,,,,,,,,,,,,,,,,AFSA08.jpg,AFNE11.jpg,AFNE13.jpg,AFSA19.jpg,AFNE13.jpg,FN,3,num_2,16,num_2,0.599999230224,,,2017_Jun_26_1859,60.0110098026,MAFE4ImagesEEG,001,100489,
AFNE01.JPG,AFNE01.JPG,AFNE01.JPG,AFNE01.JPG,AFNE01.JPG,AFNE01.JPG,,,,,2,5,25,8,,,,,,,,,,,,,,,,,,,AFNE19.jpg,AFSA15.jpg,AFSA07.jpg,AFNE03.jpg,AFSA15.jpg,FS,4,num_6,16,num_6,0.783424754809,,,2017_Jun_26_1859,60.0110098026,MAFE4ImagesEEG,001,100489,
AFNE01.JPG,AFNE01.JPG,AFNE01.JPG,AFNE01.JPG,AFNE01.JPG,AFNE01.JPG,,,,,2,6,26,7,,,,,,,,,,,,,,,,,,,AFNE14.jpg,AFNE17.jpg,AFSA04.jpg,AFSA16.jpg,AFSA04.jpg,FS,4,num_2,16,num_2,0.966749246421,,,2017_Jun_26_1859,60.0110098026,MAFE4ImagesEEG,001,100489,
AFNE01.JPG,AFNE01.JPG,AFNE01.JPG,AFNE01.JPG,AFNE01.JPG,AFNE01.JPG,,,,,2,7,27,2,,,,,,,,,,,,,,,,,,,AFNE09.jpg,AFSA07.jpg,AFNE06.jpg,AFSA02.jpg,AFNE09.jpg,FN,3,num_8,16,num_8,1.01674356933,,,2017_Jun_26_1859,60.0110098026,MAFE4ImagesEEG,001,100489,
AFNE01.JPG,AFNE01.JPG,AFNE01.JPG,AFNE01.JPG,AFNE01.JPG,AFNE01.JPG,,,,,2,8,28,0,,,,,,,,,,,,,,,,,,,AFNE03.jpg,AFSA17.jpg,AFSA20.jpg,AFNE06.jpg,AFSA17.jpg,FS,4,num_6,16,num_6,0.650152960716,,,2017_Jun_26_1859,60.0110098026,MAFE4ImagesEEG,001,100489,
AFNE01.JPG,AFNE01.JPG,AFNE01.JPG,AFNE01.JPG,AFNE01.JPG,AFNE01.JPG,,,,,2,9,29,4,,,,,,,,,,,,,,,,,,,AFSA05.jpg,AFSA09.jpg,AFNE12.jpg,AFNE01.jpg,AFNE12.jpg,FN,3,num_2,32,num_4,1.05010561955,,,2017_Jun_26_1859,60.0110098026,MAFE4ImagesEEG,001,100489,
AFNE01.JPG,AFNE01.JPG,AFNE01.JPG,AFNE01.JPG,AFNE01.JPG,AFNE01.JPG,,,,,3,0,30,2,,,,,,,,,,,,,,,,,,,AFNE19.jpg,AFSA14.jpg,AFSA04.jpg,AFNE08.jpg,AFSA04.jpg,FS,4,num_2,16,num_2,0.783966163253,,,2017_Jun_26_1859,60.0110098026,MAFE4ImagesEEG,001,100489,
AFNE01.JPG,AFNE01.JPG,AFNE01.JPG,AFNE01.JPG,AFNE01.JPG,AFNE01.JPG,,,,,3,1,31,5,,,,,,,,,,,,,,,,,,,AFSA12.jpg,AFSA19.jpg,AFNE13.jpg,AFNE01.jpg,AFNE13.jpg,FN,3,num_2,32,num_6,0.66677240382,,,2017_Jun_26_1859,60.0110098026,MAFE4ImagesEEG,001,100489,
AFNE01.JPG,AFNE01.JPG,AFNE01.JPG,AFNE01.JPG,AFNE01.JPG,AFNE01.JPG,,,,,3,2,32,3,,,,,,,,,,,,,,,,,,,AFNE13.jpg,AFSA08.jpg,AFNE06.jpg,AFSA03.jpg,AFNE06.jpg,FN,3,num_2,16,num_2,1.20007640018,,,2017_Jun_26_1859,60.0110098026,MAFE4ImagesEEG,001,100489,
AFNE01.JPG,AFNE01.JPG,AFNE01.JPG,AFNE01.JPG,AFNE01.JPG,AFNE01.JPG,,,,,3,3,33,1,,,,,,,,,,,,,,,,,,,AFNE06.jpg,AFSA12.jpg,AFSA16.jpg,AFNE02.jpg,AFSA12.jpg,FS,4,num_6,32,num_4,0.850162967788,,,2017_Jun_26_1859,60.0110098026,MAFE4ImagesEEG,001,100489,
AFNE01.JPG,AFNE01.JPG,AFNE01.JPG,AFNE01.JPG,AFNE01.JPG,AFNE01.JPG,,,,,3,4,34,6,,,,,,,,,,,,,,,,,,,AFSA11.jpg,AFNE12.jpg,AFSA20.jpg,AFNE10.jpg,AFSA11.jpg,FS,4,num_8,16,num_8,0.833459811649,,,2017_Jun_26_1859,60.0110098026,MAFE4ImagesEEG,001,100489,
AFNE01.JPG,AFNE01.JPG,AFNE01.JPG,AFNE01.JPG,AFNE01.JPG,AFNE01.JPG,,,,,3,5,35,8,,,,,,,,,,,,,,,,,,,AFNE05.jpg,AFSA07.jpg,AFSA02.jpg,AFNE16.jpg,AFNE16.jpg,FN,3,num_4,32,num_6,1.16678234675,,,2017_Jun_26_1859,60.0110098026,MAFE4ImagesEEG,001,100489,
AFNE01.JPG,AFNE01.JPG,AFNE01.JPG,AFNE01.JPG,AFNE01.JPG,AFNE01.JPG,,,,,3,6,36,9,,,,,,,,,,,,,,,,,,,AFSA20.jpg,AFNE08.jpg,AFSA19.jpg,AFNE06.jpg,AFSA20.jpg,FS,4,num_8,16,num_8,1.11717066618,,,2017_Jun_26_1859,60.0110098026,MAFE4ImagesEEG,001,100489,
AFNE01.JPG,AFNE01.JPG,AFNE01.JPG,AFNE01.JPG,AFNE01.JPG,AFNE01.JPG,,,,,3,7,37,0,,,,,,,,,,,,,,,,,,,AFSA02.jpg,AFNE15.jpg,AFNE06.jpg,AFSA04.jpg,AFSA02.jpg,FS,4,num_8,32,num_2,0.80012213764,,,2017_Jun_26_1859,60.0110098026,MAFE4ImagesEEG,001,100489,
AFNE01.JPG,AFNE01.JPG,AFNE01.JPG,AFNE01.JPG,AFNE01.JPG,AFNE01.JPG,,,,,3,8,38,7,,,,,,,,,,,,,,,,,,,AFSA01.jpg,AFSA08.jpg,AFNE10.jpg,AFNE03.jpg,AFNE10.jpg,FN,3,num_2,32,num_8,0.750118192544,,,2017_Jun_26_1859,60.0110098026,MAFE4ImagesEEG,001,100489,
AFNE01.JPG,AFNE01.JPG,AFNE01.JPG,AFNE01.JPG,AFNE01.JPG,AFNE01.JPG,,,,,3,9,39,4,,,,,,,,,,,,,,,,,,,AFNE10.jpg,AFSA08.jpg,AFSA01.jpg,AFNE05.jpg,AFSA08.jpg,FS,4,num_6,32,num_2,0.716760632677,,,2017_Jun_26_1859,60.0110098026,MAFE4ImagesEEG,001,100489,
AFNE01.JPG,AFNE01.JPG,AFNE01.JPG,AFNE01.JPG,AFNE01.JPG,AFNE01.JPG,,,,,4,0,40,4,,,,,,,,,,,,,,,,,,,AFSA08.jpg,AFSA13.jpg,AFNE13.jpg,AFNE09.jpg,AFNE09.jpg,FN,3,num_4,32,num_8,0.683483578454,,,2017_Jun_26_1859,60.0110098026,MAFE4ImagesEEG,001,100489,
AFNE01.JPG,AFNE01.JPG,AFNE01.JPG,AFNE01.JPG,AFNE01.JPG,AFNE01.JPG,,,,,4,1,41,5,,,,,,,,,,,,,,,,,,,AFSA13.jpg,AFNE05.jpg,AFNE15.jpg,AFSA03.jpg,AFSA03.jpg,FS,4,num_4,32,num_6,0.966753416036,,,2017_Jun_26_1859,60.0110098026,MAFE4ImagesEEG,001,100489,
AFNE01.JPG,AFNE01.JPG,AFNE01.JPG,AFNE01.JPG,AFNE01.JPG,AFNE01.JPG,,,,,4,2,42,0,,,,,,,,,,,,,,,,,,,AFSA14.jpg,AFNE05.jpg,AFNE09.jpg,AFSA11.jpg,AFSA11.jpg,FS,4,num_4,16,num_4,0.81677654136,,,2017_Jun_26_1859,60.0110098026,MAFE4ImagesEEG,001,100489,
AFNE01.JPG,AFNE01.JPG,AFNE01.JPG,AFNE01.JPG,AFNE01.JPG,AFNE01.JPG,,,,,4,3,43,6,,,,,,,,,,,,,,,,,,,AFSA20.jpg,AFSA03.jpg,AFNE20.jpg,AFNE11.jpg,AFSA03.jpg,FS,4,num_6,32,num_8,1.05010273289,,,2017_Jun_26_1859,60.0110098026,MAFE4ImagesEEG,001,100489,
AFNE01.JPG,AFNE01.JPG,AFNE01.JPG,AFNE01.JPG,AFNE01.JPG,AFNE01.JPG,,,,,4,4,44,3,,,,,,,,,,,,,,,,,,,AFNE15.jpg,AFSA11.jpg,AFNE07.jpg,AFSA16.jpg,AFSA11.jpg,FS,4,num_6,32,num_2,1.08342020031,,,2017_Jun_26_1859,60.0110098026,MAFE4ImagesEEG,001,100489,
AFNE01.JPG,AFNE01.JPG,AFNE01.JPG,AFNE01.JPG,AFNE01.JPG,AFNE01.JPG,,,,,4,5,45,8,,,,,,,,,,,,,,,,,,,AFNE01.jpg,AFSA12.jpg,AFNE05.jpg,AFSA19.jpg,AFSA12.jpg,FS,4,num_6,32,num_4,1.45004897694,,,2017_Jun_26_1859,60.0110098026,MAFE4ImagesEEG,001,100489,
AFNE01.JPG,AFNE01.JPG,AFNE01.JPG,AFNE01.JPG,AFNE01.JPG,AFNE01.JPG,,,,,4,6,46,2,,,,,,,,,,,,,,,,,,,AFSA10.jpg,AFSA07.jpg,AFNE12.jpg,AFNE05.jpg,AFSA07.jpg,FS,4,num_6,32,num_8,1.33340336148,,,2017_Jun_26_1859,60.0110098026,MAFE4ImagesEEG,001,100489,
AFNE01.JPG,AFNE01.JPG,AFNE01.JPG,AFNE01.JPG,AFNE01.JPG,AFNE01.JPG,,,,,4,7,47,1,,,,,,,,,,,,,,,,,,,AFSA20.jpg,AFNE16.jpg,AFSA15.jpg,AFNE13.jpg,AFNE16.jpg,FN,3,num_6,32,num_2,1.5502874789,,,2017_Jun_26_1859,60.0110098026,MAFE4ImagesEEG,001,100489,
AFNE01.JPG,AFNE01.JPG,AFNE01.JPG,AFNE01.JPG,AFNE01.JPG,AFNE01.JPG,,,,,4,8,48,9,,,,,,,,,,,,,,,,,,,AFNE14.jpg,AFSA15.jpg,AFSA14.jpg,AFNE12.jpg,AFSA15.jpg,FS,4,num_6,32,num_8,1.08343206767,,,2017_Jun_26_1859,60.0110098026,MAFE4ImagesEEG,001,100489,
AFNE01.JPG,AFNE01.JPG,AFNE01.JPG,AFNE01.JPG,AFNE01.JPG,AFNE01.JPG,,,,,4,9,49,7,,,,,,,,,,,,,,,,,,,AFSA04.jpg,AFNE16.jpg,AFNE12.jpg,AFSA15.jpg,AFNE16.jpg,FN,3,num_6,16,num_6,0.900103406446,,,2017_Jun_26_1859,60.0110098026,MAFE4ImagesEEG,001,100489,
AFNE01.JPG,AFNE01.JPG,AFNE01.JPG,AFNE01.JPG,AFNE01.JPG,AFNE01.JPG,,,,,5,0,50,0,,,,,,,,,,,,,,,,,,,AFNE11.jpg,AFNE02.jpg,AFSA20.jpg,AFSA04.jpg,AFSA20.jpg,FS,4,num_2,32,num_4,0.916857880926,,,2017_Jun_26_1859,60.0110098026,MAFE4ImagesEEG,001,100489,
AFNE01.JPG,AFNE01.JPG,AFNE01.JPG,AFNE01.JPG,AFNE01.JPG,AFNE01.JPG,,,,,5,1,51,9,,,,,,,,,,,,,,,,,,,AFNE18.jpg,AFSA13.jpg,AFNE12.jpg,AFSA03.jpg,AFSA03.jpg,FS,4,num_4,32,num_8,0.800140740535,,,2017_Jun_26_1859,60.0110098026,MAFE4ImagesEEG,001,100489,
AFNE01.JPG,AFNE01.JPG,AFNE01.JPG,AFNE01.JPG,AFNE01.JPG,AFNE01.JPG,,,,,5,2,52,1,,,,,,,,,,,,,,,,,,,AFNE06.jpg,AFSA13.jpg,AFNE02.jpg,AFSA07.jpg,AFNE02.jpg,FN,3,num_2,32,num_4,1.45006341022,,,2017_Jun_26_1859,60.0110098026,MAFE4ImagesEEG,001,100489,
AFNE01.JPG,AFNE01.JPG,AFNE01.JPG,AFNE01.JPG,AFNE01.JPG,AFNE01.JPG,,,,,5,3,53,8,,,,,,,,,,,,,,,,,,,AFNE19.jpg,AFSA15.jpg,AFSA01.jpg,AFNE02.jpg,AFNE02.jpg,FN,3,num_4,32,num_2,0.850104593181,,,2017_Jun_26_1859,60.0110098026,MAFE4ImagesEEG,001,100489,
AFNE01.JPG,AFNE01.JPG,AFNE01.JPG,AFNE01.JPG,AFNE01.JPG,AFNE01.JPG,,,,,5,4,54,4,,,,,,,,,,,,,,,,,,,AFNE19.jpg,AFSA04.jpg,AFSA05.jpg,AFNE20.jpg,AFNE20.jpg,FN,3,num_4,32,num_8,0.833632048812,,,2017_Jun_26_1859,60.0110098026,MAFE4ImagesEEG,001,100489,
AFNE01.JPG,AFNE01.JPG,AFNE01.JPG,AFNE01.JPG,AFNE01.JPG,AFNE01.JPG,,,,,5,5,55,7,,,,,,,,,,,,,,,,,,,AFNE13.jpg,AFSA12.jpg,AFSA10.jpg,AFNE06.jpg,AFNE06.jpg,FN,3,num_4,32,num_6,0.666485021138,,,2017_Jun_26_1859,60.0110098026,MAFE4ImagesEEG,001,100489,
AFNE01.JPG,AFNE01.JPG,AFNE01.JPG,AFNE01.JPG,AFNE01.JPG,AFNE01.JPG,,,,,5,6,56,5,,,,,,,,,,,,,,,,,,,AFSA07.jpg,AFSA13.jpg,AFNE18.jpg,AFNE01.jpg,AFSA07.jpg,FS,4,num_8,32,num_4,0.766790878424,,,2017_Jun_26_1859,60.0110098026,MAFE4ImagesEEG,001,100489,
AFNE01.JPG,AFNE01.JPG,AFNE01.JPG,AFNE01.JPG,AFNE01.JPG,AFNE01.JPG,,,,,5,7,57,3,,,,,,,,,,,,,,,,,,,AFNE19.jpg,AFSA20.jpg,AFNE17.jpg,AFSA08.jpg,AFNE17.jpg,FN,3,num_2,16,num_2,1.06675809883,,,2017_Jun_26_1859,60.0110098026,MAFE4ImagesEEG,001,100489,
AFNE01.JPG,AFNE01.JPG,AFNE01.JPG,AFNE01.JPG,AFNE01.JPG,AFNE01.JPG,,,,,5,8,58,2,,,,,,,,,,,,,,,,,,,AFNE07.jpg,AFSA10.jpg,AFSA01.jpg,AFNE16.jpg,AFSA10.jpg,FS,4,num_6,32,num_8,4.43344140119,,,2017_Jun_26_1859,60.0110098026,MAFE4ImagesEEG,001,100489,
AFNE01.JPG,AFNE01.JPG,AFNE01.JPG,AFNE01.JPG,AFNE01.JPG,AFNE01.JPG,,,,,5,9,59,6,,,,,,,,,,,,,,,,,,,AFSA12.jpg,AFNE19.jpg,AFNE06.jpg,AFSA18.jpg,AFNE06.jpg,FN,3,num_2,32,num_8,0.983473892116,,,2017_Jun_26_1859,60.0110098026,MAFE4ImagesEEG,001,100489,
,,,,,,,,,,,,,,,,,,,,,,,,,,,,,,,,,,,,,,,,,,,space,27.3313515903,2017_Jun_26_1859,60.0110098026,MAFE4ImagesEEG,001,100489,
AFNE01.JPG,AFNE01.JPG,AFNE01.JPG,AFNE01.JPG,AFNE01.JPG,AFNE01.JPG,,,,,,,,,0,0,0,3,,,,,,,,,,,,,,,AMNE11.jpg,AMSA08.jpg,AMSA15.jpg,AMNE06.jpg,AMNE11.jpg,MN,1,num_8,32,num_4,0.766736031954,,,2017_Jun_26_1859,60.0110098026,MAFE4ImagesEEG,001,100489,
AFNE01.JPG,AFNE01.JPG,AFNE01.JPG,AFNE01.JPG,AFNE01.JPG,AFNE01.JPG,,,,,,,,,0,1,1,6,,,,,,,,,,,,,,,AMSA02.jpg,AMNE03.jpg,AMSA05.jpg,AMNE12.jpg,AMSA05.jpg,MS,2,num_2,16,num_2,0.800149721246,,,2017_Jun_26_1859,60.0110098026,MAFE4ImagesEEG,001,100489,
AFNE01.JPG,AFNE01.JPG,AFNE01.JPG,AFNE01.JPG,AFNE01.JPG,AFNE01.JPG,,,,,,,,,0,2,2,5,,,,,,,,,,,,,,,AMNE08.jpg,AMSA03.jpg,AMNE19.jpg,AMSA10.jpg,AMSA10.jpg,MS,2,num_4,32,num_6,0.466745718284,,,2017_Jun_26_1859,60.0110098026,MAFE4ImagesEEG,001,100489,
AFNE01.JPG,AFNE01.JPG,AFNE01.JPG,AFNE01.JPG,AFNE01.JPG,AFNE01.JPG,,,,,,,,,0,3,3,9,,,,,,,,,,,,,,,AMSA09.jpg,AMSA20.jpg,AMNE07.jpg,AMNE17.jpg,AMSA20.jpg,MS,2,num_6,32,num_2,0.516778529949,,,2017_Jun_26_1859,60.0110098026,MAFE4ImagesEEG,001,100489,
AFNE01.JPG,AFNE01.JPG,AFNE01.JPG,AFNE01.JPG,AFNE01.JPG,AFNE01.JPG,,,,,,,,,0,4,4,7,,,,,,,,,,,,,,,AMSA11.jpg,AMSA08.jpg,AMNE09.jpg,AMNE02.jpg,AMSA08.jpg,MS,2,num_6,32,num_4,0.80012117542,,,2017_Jun_26_1859,60.0110098026,MAFE4ImagesEEG,001,100489,
AFNE01.JPG,AFNE01.JPG,AFNE01.JPG,AFNE01.JPG,AFNE01.JPG,AFNE01.JPG,,,,,,,,,0,5,5,0,,,,,,,,,,,,,,,AMSA06.jpg,AMNE04.jpg,AMNE07.jpg,AMSA02.jpg,AMSA06.jpg,MS,2,num_8,32,num_2,0.600164731859,,,2017_Jun_26_1859,60.0110098026,MAFE4ImagesEEG,001,100489,
AFNE01.JPG,AFNE01.JPG,AFNE01.JPG,AFNE01.JPG,AFNE01.JPG,AFNE01.JPG,,,,,,,,,0,6,6,1,,,,,,,,,,,,,,,AMSA06.jpg,AMNE14.jpg,AMNE08.jpg,AMSA13.jpg,AMNE14.jpg,MN,1,num_6,32,num_8,0.583443614298,,,2017_Jun_26_1859,60.0110098026,MAFE4ImagesEEG,001,100489,
AFNE01.JPG,AFNE01.JPG,AFNE01.JPG,AFNE01.JPG,AFNE01.JPG,AFNE01.JPG,,,,,,,,,0,7,7,2,,,,,,,,,,,,,,,AMSA16.jpg,AMSA13.jpg,AMNE10.jpg,AMNE13.jpg,AMSA16.jpg,MS,2,num_8,32,num_6,0.6001342616,,,2017_Jun_26_1859,60.0110098026,MAFE4ImagesEEG,001,100489,
AFNE01.JPG,AFNE01.JPG,AFNE01.JPG,AFNE01.JPG,AFNE01.JPG,AFNE01.JPG,,,,,,,,,0,8,8,4,,,,,,,,,,,,,,,AMSA17.jpg,AMNE11.jpg,AMNE01.jpg,AMSA10.jpg,AMNE11.jpg,MN,1,num_6,16,num_6,1.01676986998,,,2017_Jun_26_1859,60.0110098026,MAFE4ImagesEEG,001,100489,
AFNE01.JPG,AFNE01.JPG,AFNE01.JPG,AFNE01.JPG,AFNE01.JPG,AFNE01.JPG,,,,,,,,,0,9,9,8,,,,,,,,,,,,,,,AMSA04.jpg,AMNE08.jpg,AMNE15.jpg,AMSA02.jpg,AMNE15.jpg,MN,1,num_2,16,num_2,1.00006927975,,,2017_Jun_26_1859,60.0110098026,MAFE4ImagesEEG,001,100489,
AFNE01.JPG,AFNE01.JPG,AFNE01.JPG,AFNE01.JPG,AFNE01.JPG,AFNE01.JPG,,,,,,,,,1,0,10,3,,,,,,,,,,,,,,,AMSA13.jpg,AMNE04.jpg,AMNE09.jpg,AMSA01.jpg,AMSA01.jpg,MS,2,num_4,16,num_4,0.88356414824,,,2017_Jun_26_1859,60.0110098026,MAFE4ImagesEEG,001,100489,
AFNE01.JPG,AFNE01.JPG,AFNE01.JPG,AFNE01.JPG,AFNE01.JPG,AFNE01.JPG,,,,,,,,,1,1,11,8,,,,,,,,,,,,,,,AMSA04.jpg,AMSA18.jpg,AMNE16.jpg,AMNE01.jpg,AMSA04.jpg,MS,2,num_8,16,num_8,1.49979216074,,,2017_Jun_26_1859,60.0110098026,MAFE4ImagesEEG,001,100489,
AFNE01.JPG,AFNE01.JPG,AFNE01.JPG,AFNE01.JPG,AFNE01.JPG,AFNE01.JPG,,,,,,,,,1,2,12,4,,,,,,,,,,,,,,,AMNE14.jpg,AMSA01.jpg,AMNE03.jpg,AMSA02.jpg,AMSA01.jpg,MS,2,num_6,16,num_6,0.866752261376,,,2017_Jun_26_1859,60.0110098026,MAFE4ImagesEEG,001,100489,
AFNE01.JPG,AFNE01.JPG,AFNE01.JPG,AFNE01.JPG,AFNE01.JPG,AFNE01.JPG,,,,,,,,,1,3,13,6,,,,,,,,,,,,,,,AMNE14.jpg,AMSA07.jpg,AMSA01.jpg,AMNE01.jpg,AMSA07.jpg,MS,2,num_6,16,num_6,0.866907499341,,,2017_Jun_26_1859,60.0110098026,MAFE4ImagesEEG,001,100489,
AFNE01.JPG,AFNE01.JPG,AFNE01.JPG,AFNE01.JPG,AFNE01.JPG,AFNE01.JPG,,,,,,,,,1,4,14,0,,,,,,,,,,,,,,,AMNE12.jpg,AMSA03.jpg,AMNE06.jpg,AMSA08.jpg,AMNE06.jpg,MN,1,num_2,32,num_4,0.749992462621,,,2017_Jun_26_1859,60.0110098026,MAFE4ImagesEEG,001,100489,
AFNE01.JPG,AFNE01.JPG,AFNE01.JPG,AFNE01.JPG,AFNE01.JPG,AFNE01.JPG,,,,,,,,,1,5,15,9,,,,,,,,,,,,,,,AMSA15.jpg,AMSA01.jpg,AMNE05.jpg,AMNE12.jpg,AMSA01.jpg,MS,2,num_6,16,num_6,0.966704663617,,,2017_Jun_26_1859,60.0110098026,MAFE4ImagesEEG,001,100489,
AFNE01.JPG,AFNE01.JPG,AFNE01.JPG,AFNE01.JPG,AFNE01.JPG,AFNE01.JPG,,,,,,,,,1,6,16,2,,,,,,,,,,,,,,,AMSA12.jpg,AMSA04.jpg,AMNE08.jpg,AMNE12.jpg,AMSA12.jpg,MS,2,num_8,32,num_2,0.883440022018,,,2017_Jun_26_1859,60.0110098026,MAFE4ImagesEEG,001,100489,
AFNE01.JPG,AFNE01.JPG,AFNE01.JPG,AFNE01.JPG,AFNE01.JPG,AFNE01.JPG,,,,,,,,,1,7,17,5,,,,,,,,,,,,,,,AMNE06.jpg,AMNE04.jpg,AMSA09.jpg,AMSA20.jpg,AMSA09.jpg,MS,2,num_2,32,num_8,1.05009375219,,,2017_Jun_26_1859,60.0110098026,MAFE4ImagesEEG,001,100489,
AFNE01.JPG,AFNE01.JPG,AFNE01.JPG,AFNE01.JPG,AFNE01.JPG,AFNE01.JPG,,,,,,,,,1,8,18,7,,,,,,,,,,,,,,,AMNE03.jpg,AMSA07.jpg,AMNE16.jpg,AMSA09.jpg,AMNE03.jpg,MN,1,num_8,32,num_2,1.06671672343,,,2017_Jun_26_1859,60.0110098026,MAFE4ImagesEEG,001,100489,
AFNE01.JPG,AFNE01.JPG,AFNE01.JPG,AFNE01.JPG,AFNE01.JPG,AFNE01.JPG,,,,,,,,,1,9,19,1,,,,,,,,,,,,,,,AMSA12.jpg,AMNE12.jpg,AMSA18.jpg,AMNE10.jpg,AMSA12.jpg,MS,2,num_8,16,num_8,0.966768490798,,,2017_Jun_26_1859,60.0110098026,MAFE4ImagesEEG,001,100489,
AFNE01.JPG,AFNE01.JPG,AFNE01.JPG,AFNE01.JPG,AFNE01.JPG,AFNE01.JPG,,,,,,,,,2,0,20,3,,,,,,,,,,,,,,,AMSA01.jpg,AMNE18.jpg,AMSA10.jpg,AMNE05.jpg,AMNE05.jpg,MN,1,num_4,32,num_6,0.650123452673,,,2017_Jun_26_1859,60.0110098026,MAFE4ImagesEEG,001,100489,
AFNE01.JPG,AFNE01.JPG,AFNE01.JPG,AFNE01.JPG,AFNE01.JPG,AFNE01.JPG,,,,,,,,,2,1,21,6,,,,,,,,,,,,,,,AMNE17.jpg,AMNE12.jpg,AMSA16.jpg,AMSA14.jpg,AMSA16.jpg,MS,2,num_2,32,num_6,1.45004031697,,,2017_Jun_26_1859,60.0110098026,MAFE4ImagesEEG,001,100489,
AFNE01.JPG,AFNE01.JPG,AFNE01.JPG,AFNE01.JPG,AFNE01.JPG,AFNE01.JPG,,,,,,,,,2,2,22,9,,,,,,,,,,,,,,,AMSA15.jpg,AMNE20.jpg,AMNE19.jpg,AMSA14.jpg,AMNE20.jpg,MN,1,num_6,32,num_2,0.916449900153,,,2017_Jun_26_1859,60.0110098026,MAFE4ImagesEEG,001,100489,
AFNE01.JPG,AFNE01.JPG,AFNE01.JPG,AFNE01.JPG,AFNE01.JPG,AFNE01.JPG,,,,,,,,,2,3,23,8,,,,,,,,,,,,,,,AMSA10.jpg,AMSA11.jpg,AMNE05.jpg,AMNE13.jpg,AMSA10.jpg,MS,2,num_8,32,num_2,2.41668532302,,,2017_Jun_26_1859,60.0110098026,MAFE4ImagesEEG,001,100489,
AFNE01.JPG,AFNE01.JPG,AFNE01.JPG,AFNE01.JPG,AFNE01.JPG,AFNE01.JPG,,,,,,,,,2,4,24,0,,,,,,,,,,,,,,,AMSA13.jpg,AMNE04.jpg,AMSA03.jpg,AMNE10.jpg,AMSA03.jpg,MS,2,num_2,32,num_4,1.30022798171,,,2017_Jun_26_1859,60.0110098026,MAFE4ImagesEEG,001,100489,
AFNE01.JPG,AFNE01.JPG,AFNE01.JPG,AFNE01.JPG,AFNE01.JPG,AFNE01.JPG,,,,,,,,,2,5,25,7,,,,,,,,,,,,,,,AMNE04.jpg,AMSA03.jpg,AMNE09.jpg,AMSA18.jpg,AMNE04.jpg,MN,1,num_8,32,num_6,0.966735133879,,,2017_Jun_26_1859,60.0110098026,MAFE4ImagesEEG,001,100489,
AFNE01.JPG,AFNE01.JPG,AFNE01.JPG,AFNE01.JPG,AFNE01.JPG,AFNE01.JPG,,,,,,,,,2,6,26,2,,,,,,,,,,,,,,,AMSA02.jpg,AMNE06.jpg,AMNE03.jpg,AMSA09.jpg,AMNE03.jpg,MN,1,num_2,32,num_8,1.26673090012,,,2017_Jun_26_1859,60.0110098026,MAFE4ImagesEEG,001,100489,
AFNE01.JPG,AFNE01.JPG,AFNE01.JPG,AFNE01.JPG,AFNE01.JPG,AFNE01.JPG,,,,,,,,,2,7,27,5,,,,,,,,,,,,,,,AMNE16.jpg,AMSA09.jpg,AMNE02.jpg,AMSA03.jpg,AMSA09.jpg,MS,2,num_6,32,num_4,0.883620277673,,,2017_Jun_26_1859,60.0110098026,MAFE4ImagesEEG,001,100489,
AFNE01.JPG,AFNE01.JPG,AFNE01.JPG,AFNE01.JPG,AFNE01.JPG,AFNE01.JPG,,,,,,,,,2,8,28,4,,,,,,,,,,,,,,,AMSA19.jpg,AMNE15.jpg,AMSA13.jpg,AMNE02.jpg,AMNE15.jpg,MN,1,num_6,16,num_6,1.20008506014,,,2017_Jun_26_1859,60.0110098026,MAFE4ImagesEEG,001,100489,
AFNE01.JPG,AFNE01.JPG,AFNE01.JPG,AFNE01.JPG,AFNE01.JPG,AFNE01.JPG,,,,,,,,,2,9,29,1,,,,,,,,,,,,,,,AMSA10.jpg,AMSA05.jpg,AMNE15.jpg,AMNE10.jpg,AMNE15.jpg,MN,1,num_2,32,num_4,1.36674969546,,,2017_Jun_26_1859,60.0110098026,MAFE4ImagesEEG,001,100489,
AFNE01.JPG,AFNE01.JPG,AFNE01.JPG,AFNE01.JPG,AFNE01.JPG,AFNE01.JPG,,,,,,,,,3,0,30,1,,,,,,,,,,,,,,,AMSA03.jpg,AMNE17.jpg,AMSA01.jpg,AMNE16.jpg,AMSA01.jpg,MS,2,num_2,16,num_2,0.916884823051,,,2017_Jun_26_1859,60.0110098026,MAFE4ImagesEEG,001,100489,
AFNE01.JPG,AFNE01.JPG,AFNE01.JPG,AFNE01.JPG,AFNE01.JPG,AFNE01.JPG,,,,,,,,,3,1,31,5,,,,,,,,,,,,,,,AMNE02.jpg,AMSA07.jpg,AMNE14.jpg,AMSA10.jpg,AMNE02.jpg,MN,1,num_8,16,num_8,1.45007752276,,,2017_Jun_26_1859,60.0110098026,MAFE4ImagesEEG,001,100489,
AFNE01.JPG,AFNE01.JPG,AFNE01.JPG,AFNE01.JPG,AFNE01.JPG,AFNE01.JPG,,,,,,,,,3,2,32,9,,,,,,,,,,,,,,,AMNE07.jpg,AMNE08.jpg,AMSA04.jpg,AMSA09.jpg,AMNE08.jpg,MN,1,num_6,16,num_6,0.717052826454,,,2017_Jun_26_1859,60.0110098026,MAFE4ImagesEEG,001,100489,
AFNE01.JPG,AFNE01.JPG,AFNE01.JPG,AFNE01.JPG,AFNE01.JPG,AFNE01.JPG,,,,,,,,,3,3,33,3,,,,,,,,,,,,,,,AMSA03.jpg,AMNE16.jpg,AMNE02.jpg,AMSA12.jpg,AMSA03.jpg,MS,2,num_8,32,num_4,1.01684139491,,,2017_Jun_26_1859,60.0110098026,MAFE4ImagesEEG,001,100489,
AFNE01.JPG,AFNE01.JPG,AFNE01.JPG,AFNE01.JPG,AFNE01.JPG,AFNE01.JPG,,,,,,,,,3,4,34,6,,,,,,,,,,,,,,,AMNE01.jpg,AMNE20.jpg,AMSA03.jpg,AMSA20.jpg,AMNE20.jpg,MN,1,num_6,16,num_6,0.916752678335,,,2017_Jun_26_1859,60.0110098026,MAFE4ImagesEEG,001,100489,
AFNE01.JPG,AFNE01.JPG,AFNE01.JPG,AFNE01.JPG,AFNE01.JPG,AFNE01.JPG,,,,,,,,,3,5,35,0,,,,,,,,,,,,,,,AMNE18.jpg,AMSA03.jpg,AMNE07.jpg,AMSA10.jpg,AMSA03.jpg,MS,2,num_6,32,num_8,1.28381926452,,,2017_Jun_26_1859,60.0110098026,MAFE4ImagesEEG,001,100489,
AFNE01.JPG,AFNE01.JPG,AFNE01.JPG,AFNE01.JPG,AFNE01.JPG,AFNE01.JPG,,,,,,,,,3,6,36,8,,,,,,,,,,,,,,,AMNE10.jpg,AMSA03.jpg,AMSA19.jpg,AMNE18.jpg,AMNE18.jpg,MN,1,num_4,32,num_2,1.98332506894,,,2017_Jun_26_1859,60.0110098026,MAFE4ImagesEEG,001,100489,
AFNE01.JPG,AFNE01.JPG,AFNE01.JPG,AFNE01.JPG,AFNE01.JPG,AFNE01.JPG,,,,,,,,,3,7,37,2,,,,,,,,,,,,,,,AMSA08.jpg,AMSA03.jpg,AMNE10.jpg,AMNE03.jpg,AMNE03.jpg,MN,1,num_4,32,num_8,1.31672843043,,,2017_Jun_26_1859,60.0110098026,MAFE4ImagesEEG,001,100489,
AFNE01.JPG,AFNE01.JPG,AFNE01.JPG,AFNE01.JPG,AFNE01.JPG,AFNE01.JPG,,,,,,,,,3,8,38,7,,,,,,,,,,,,,,,AMSA06.jpg,AMSA10.jpg,AMNE10.jpg,AMNE15.jpg,AMNE10.jpg,MN,1,num_2,32,num_6,0.883462153048,,,2017_Jun_26_1859,60.0110098026,MAFE4ImagesEEG,001,100489,
AFNE01.JPG,AFNE01.JPG,AFNE01.JPG,AFNE01.JPG,AFNE01.JPG,AFNE01.JPG,,,,,,,,,3,9,39,4,,,,,,,,,,,,,,,AMNE06.jpg,AMNE20.jpg,AMSA11.jpg,AMSA03.jpg,AMSA11.jpg,MS,2,num_2,32,num_4,0.800108025098,,,2017_Jun_26_1859,60.0110098026,MAFE4ImagesEEG,001,100489,
AFNE01.JPG,AFNE01.JPG,AFNE01.JPG,AFNE01.JPG,AFNE01.JPG,AFNE01.JPG,,,,,,,,,4,0,40,9,,,,,,,,,,,,,,,AMNE15.jpg,AMNE14.jpg,AMSA08.jpg,AMSA20.jpg,AMNE14.jpg,MN,1,num_6,16,num_6,0.733459939944,,,2017_Jun_26_1859,60.0110098026,MAFE4ImagesEEG,001,100489,
AFNE01.JPG,AFNE01.JPG,AFNE01.JPG,AFNE01.JPG,AFNE01.JPG,AFNE01.JPG,,,,,,,,,4,1,41,1,,,,,,,,,,,,,,,AMNE20.jpg,AMNE18.jpg,AMSA13.jpg,AMSA17.jpg,AMSA13.jpg,MS,2,num_2,16,num_2,1.2333980372,,,2017_Jun_26_1859,60.0110098026,MAFE4ImagesEEG,001,100489,
AFNE01.JPG,AFNE01.JPG,AFNE01.JPG,AFNE01.JPG,AFNE01.JPG,AFNE01.JPG,,,,,,,,,4,2,42,0,,,,,,,,,,,,,,,AMNE20.jpg,AMNE13.jpg,AMSA10.jpg,AMSA16.jpg,AMSA16.jpg,MS,2,num_4,16,num_4,0.666784591926,,,2017_Jun_26_1859,60.0110098026,MAFE4ImagesEEG,001,100489,
AFNE01.JPG,AFNE01.JPG,AFNE01.JPG,AFNE01.JPG,AFNE01.JPG,AFNE01.JPG,,,,,,,,,4,3,43,4,,,,,,,,,,,,,,,AMSA07.jpg,AMSA08.jpg,AMNE15.jpg,AMNE13.jpg,AMSA08.jpg,MS,2,num_6,16,num_6,0.8167444674,,,2017_Jun_26_1859,60.0110098026,MAFE4ImagesEEG,001,100489,
AFNE01.JPG,AFNE01.JPG,AFNE01.JPG,AFNE01.JPG,AFNE01.JPG,AFNE01.JPG,,,,,,,,,4,4,44,3,,,,,,,,,,,,,,,AMSA07.jpg,AMNE02.jpg,AMSA05.jpg,AMNE18.jpg,AMSA05.jpg,MS,2,num_2,16,num_2,0.800135929443,,,2017_Jun_26_1859,60.0110098026,MAFE4ImagesEEG,001,100489,
AFNE01.JPG,AFNE01.JPG,AFNE01.JPG,AFNE01.JPG,AFNE01.JPG,AFNE01.JPG,,,,,,,,,4,5,45,7,,,,,,,,,,,,,,,AMNE09.jpg,AMSA02.jpg,AMNE17.jpg,AMSA13.jpg,AMNE09.jpg,MN,1,num_8,32,num_4,0.616793476416,,,2017_Jun_26_1859,60.0110098026,MAFE4ImagesEEG,001,100489,
AFNE01.JPG,AFNE01.JPG,AFNE01.JPG,AFNE01.JPG,AFNE01.JPG,AFNE01.JPG,,,,,,,,,4,6,46,6,,,,,,,,,,,,,,,AMSA03.jpg,AMNE13.jpg,AMNE15.jpg,AMSA04.jpg,AMSA04.jpg,MS,2,num_4,32,num_8,0.916783469336,,,2017_Jun_26_1859,60.0110098026,MAFE4ImagesEEG,001,100489,
AFNE01.JPG,AFNE01.JPG,AFNE01.JPG,AFNE01.JPG,AFNE01.JPG,AFNE01.JPG,,,,,,,,,4,7,47,5,,,,,,,,,,,,,,,AMSA08.jpg,AMSA16.jpg,AMNE02.jpg,AMNE10.jpg,AMSA08.jpg,MS,2,num_8,32,num_4,0.550146353478,,,2017_Jun_26_1859,60.0110098026,MAFE4ImagesEEG,001,100489,
AFNE01.JPG,AFNE01.JPG,AFNE01.JPG,AFNE01.JPG,AFNE01.JPG,AFNE01.JPG,,,,,,,,,4,8,48,2,,,,,,,,,,,,,,,AMSA13.jpg,AMNE18.jpg,AMSA12.jpg,AMNE16.jpg,AMNE18.jpg,MN,1,num_6,16,num_6,1.05010497807,,,2017_Jun_26_1859,60.0110098026,MAFE4ImagesEEG,001,100489,
AFNE01.JPG,AFNE01.JPG,AFNE01.JPG,AFNE01.JPG,AFNE01.JPG,AFNE01.JPG,,,,,,,,,4,9,49,8,,,,,,,,,,,,,,,AMNE18.jpg,AMNE02.jpg,AMSA16.jpg,AMSA06.jpg,AMNE02.jpg,MN,1,num_6,32,num_8,1.21673144537,,,2017_Jun_26_1859,60.0110098026,MAFE4ImagesEEG,001,100489,
AFNE01.JPG,AFNE01.JPG,AFNE01.JPG,AFNE01.JPG,AFNE01.JPG,AFNE01.JPG,,,,,,,,,5,0,50,6,,,,,,,,,,,,,,,AMSA11.jpg,AMSA01.jpg,AMNE18.jpg,AMNE20.jpg,AMSA11.jpg,MS,2,num_8,32,num_6,0.883461190828,,,2017_Jun_26_1859,60.0110098026,MAFE4ImagesEEG,001,100489,
AFNE01.JPG,AFNE01.JPG,AFNE01.JPG,AFNE01.JPG,AFNE01.JPG,AFNE01.JPG,,,,,,,,,5,1,51,3,,,,,,,,,,,,,,,AMSA13.jpg,AMNE13.jpg,AMNE19.jpg,AMSA19.jpg,AMSA19.jpg,MS,2,num_4,32,num_2,1.63348059557,,,2017_Jun_26_1859,60.0110098026,MAFE4ImagesEEG,001,100489,
AFNE01.JPG,AFNE01.JPG,AFNE01.JPG,AFNE01.JPG,AFNE01.JPG,AFNE01.JPG,,,,,,,,,5,2,52,1,,,,,,,,,,,,,,,AMNE05.jpg,AMNE17.jpg,AMSA04.jpg,AMSA11.jpg,AMSA11.jpg,MS,2,num_4,16,num_4,1.06676098549,,,2017_Jun_26_1859,60.0110098026,MAFE4ImagesEEG,001,100489,
AFNE01.JPG,AFNE01.JPG,AFNE01.JPG,AFNE01.JPG,AFNE01.JPG,AFNE01.JPG,,,,,,,,,5,3,53,0,,,,,,,,,,,,,,,AMNE10.jpg,AMSA20.jpg,AMSA06.jpg,AMNE09.jpg,AMSA20.jpg,MS,2,num_6,32,num_8,1.04971912833,,,2017_Jun_26_1859,60.0110098026,MAFE4ImagesEEG,001,100489,
AFNE01.JPG,AFNE01.JPG,AFNE01.JPG,AFNE01.JPG,AFNE01.JPG,AFNE01.JPG,,,,,,,,,5,4,54,7,,,,,,,,,,,,,,,AMSA02.jpg,AMNE18.jpg,AMNE04.jpg,AMSA19.jpg,AMSA19.jpg,MS,2,num_4,32,num_6,0.966727115388,,,2017_Jun_26_1859,60.0110098026,MAFE4ImagesEEG,001,100489,
AFNE01.JPG,AFNE01.JPG,AFNE01.JPG,AFNE01.JPG,AFNE01.JPG,AFNE01.JPG,,,,,,,,,5,5,55,9,,,,,,,,,,,,,,,AMSA13.jpg,AMNE17.jpg,AMNE19.jpg,AMSA03.jpg,AMNE17.jpg,MN,1,num_6,32,num_2,0.700118417062,,,2017_Jun_26_1859,60.0110098026,MAFE4ImagesEEG,001,100489,
AFNE01.JPG,AFNE01.JPG,AFNE01.JPG,AFNE01.JPG,AFNE01.JPG,AFNE01.JPG,,,,,,,,,5,6,56,5,,,,,,,,,,,,,,,AMSA20.jpg,AMSA10.jpg,AMNE13.jpg,AMNE17.jpg,AMSA20.jpg,MS,2,num_8,16,num_8,1.13343184316,,,2017_Jun_26_1859,60.0110098026,MAFE4ImagesEEG,001,100489,
AFNE01.JPG,AFNE01.JPG,AFNE01.JPG,AFNE01.JPG,AFNE01.JPG,AFNE01.JPG,,,,,,,,,5,7,57,4,,,,,,,,,,,,,,,AMNE04.jpg,AMSA07.jpg,AMSA16.jpg,AMNE10.jpg,AMNE10.jpg,MN,1,num_4,32,num_2,1.5668623392,,,2017_Jun_26_1859,60.0110098026,MAFE4ImagesEEG,001,100489,
AFNE01.JPG,AFNE01.JPG,AFNE01.JPG,AFNE01.JPG,AFNE01.JPG,AFNE01.JPG,,,,,,,,,5,8,58,2,,,,,,,,,,,,,,,AMNE10.jpg,AMNE16.jpg,AMSA09.jpg,AMSA11.jpg,AMNE10.jpg,MN,1,num_8,32,num_6,1.73340926309,,,2017_Jun_26_1859,60.0110098026,MAFE4ImagesEEG,001,100489,
AFNE01.JPG,AFNE01.JPG,AFNE01.JPG,AFNE01.JPG,AFNE01.JPG,AFNE01.JPG,,,,,,,,,5,9,59,8,,,,,,,,,,,,,,,AMSA16.jpg,AMNE06.jpg,AMSA06.jpg,AMNE14.jpg,AMNE14.jpg,MN,1,num_4,16,num_4,0.633446917916,,,2017_Jun_26_1859,60.0110098026,MAFE4ImagesEEG,001,100489,
,,,,,,,,,,,,,,,,,,,,,,,,,,,,,,,,,,,,,,,,,,,space,27.8479922022,2017_Jun_26_1859,60.0110098026,MAFE4ImagesEEG,001,100489,
AFNE01.JPG,AFNE01.JPG,AFNE01.JPG,AFNE01.JPG,AFNE01.JPG,AFNE01.JPG,,,,,,,,,,,,,0,0,0,3,,,,,,,,,,,AFNE20.jpg,AFSA18.jpg,AFNE15.jpg,AFSA07.jpg,AFNE15.jpg,FN,3,num_2,16,num_2,1.38342334356,,,2017_Jun_26_1859,60.0110098026,MAFE4ImagesEEG,001,100489,
AFNE01.JPG,AFNE01.JPG,AFNE01.JPG,AFNE01.JPG,AFNE01.JPG,AFNE01.JPG,,,,,,,,,,,,,0,1,1,7,,,,,,,,,,,AFSA07.jpg,AFSA20.jpg,AFNE19.jpg,AFNE18.jpg,AFNE18.jpg,FN,3,num_4,32,num_6,0.750038328384,,,2017_Jun_26_1859,60.0110098026,MAFE4ImagesEEG,001,100489,
AFNE01.JPG,AFNE01.JPG,AFNE01.JPG,AFNE01.JPG,AFNE01.JPG,AFNE01.JPG,,,,,,,,,,,,,0,2,2,6,,,,,,,,,,,AFNE01.jpg,AFNE06.jpg,AFSA18.jpg,AFSA20.jpg,AFSA18.jpg,FS,4,num_2,32,num_8,0.950097087876,,,2017_Jun_26_1859,60.0110098026,MAFE4ImagesEEG,001,100489,
AFNE01.JPG,AFNE01.JPG,AFNE01.JPG,AFNE01.JPG,AFNE01.JPG,AFNE01.JPG,,,,,,,,,,,,,0,3,3,9,,,,,,,,,,,AFSA02.jpg,AFNE01.jpg,AFNE13.jpg,AFSA20.jpg,AFNE13.jpg,FN,3,num_2,16,num_2,0.916758451651,,,2017_Jun_26_1859,60.0110098026,MAFE4ImagesEEG,001,100489,
AFNE01.JPG,AFNE01.JPG,AFNE01.JPG,AFNE01.JPG,AFNE01.JPG,AFNE01.JPG,,,,,,,,,,,,,0,4,4,8,,,,,,,,,,,AFSA08.jpg,AFNE04.jpg,AFNE08.jpg,AFSA19.jpg,AFNE04.jpg,FN,3,num_6,32,num_8,0.800140740539,,,2017_Jun_26_1859,60.0110098026,MAFE4ImagesEEG,001,100489,
AFNE01.JPG,AFNE01.JPG,AFNE01.JPG,AFNE01.JPG,AFNE01.JPG,AFNE01.JPG,,,,,,,,,,,,,0,5,5,5,,,,,,,,,,,AFSA18.jpg,AFSA13.jpg,AFNE18.jpg,AFNE20.jpg,AFNE20.jpg,FN,3,num_4,32,num_2,0.750166624224,,,2017_Jun_26_1859,60.0110098026,MAFE4ImagesEEG,001,100489,
AFNE01.JPG,AFNE01.JPG,AFNE01.JPG,AFNE01.JPG,AFNE01.JPG,AFNE01.JPG,,,,,,,,,,,,,0,6,6,2,,,,,,,,,,,AFNE03.jpg,AFNE05.jpg,AFSA16.jpg,AFSA03.jpg,AFSA03.jpg,FS,4,num_4,16,num_4,0.500150426873,,,2017_Jun_26_1859,60.0110098026,MAFE4ImagesEEG,001,100489,
AFNE01.JPG,AFNE01.JPG,AFNE01.JPG,AFNE01.JPG,AFNE01.JPG,AFNE01.JPG,,,,,,,,,,,,,0,7,7,0,,,,,,,,,,,AFSA15.jpg,AFNE13.jpg,AFSA20.jpg,AFNE10.jpg,AFSA20.jpg,FS,4,num_2,16,num_2,0.566798832766,,,2017_Jun_26_1859,60.0110098026,MAFE4ImagesEEG,001,100489,
AFNE01.JPG,AFNE01.JPG,AFNE01.JPG,AFNE01.JPG,AFNE01.JPG,AFNE01.JPG,,,,,,,,,,,,,0,8,8,4,,,,,,,,,,,AFSA10.jpg,AFSA14.jpg,AFNE13.jpg,AFNE14.jpg,AFSA14.jpg,FS,4,num_6,16,num_6,0.400119764166,,,2017_Jun_26_1859,60.0110098026,MAFE4ImagesEEG,001,100489,
AFNE01.JPG,AFNE01.JPG,AFNE01.JPG,AFNE01.JPG,AFNE01.JPG,AFNE01.JPG,,,,,,,,,,,,,0,9,9,1,,,,,,,,,,,AFSA02.jpg,AFNE18.jpg,AFSA15.jpg,AFNE05.jpg,AFSA02.jpg,FS,4,num_8,16,num_8,0.333630765857,,,2017_Jun_26_1859,60.0110098026,MAFE4ImagesEEG,001,100489,
AFNE01.JPG,AFNE01.JPG,AFNE01.JPG,AFNE01.JPG,AFNE01.JPG,AFNE01.JPG,,,,,,,,,,,,,1,0,10,7,,,,,,,,,,,AFNE02.jpg,AFSA19.jpg,AFNE08.jpg,AFSA03.jpg,AFNE08.jpg,FN,3,num_2,32,num_8,1.00010905146,,,2017_Jun_26_1859,60.0110098026,MAFE4ImagesEEG,001,100489,
AFNE01.JPG,AFNE01.JPG,AFNE01.JPG,AFNE01.JPG,AFNE01.JPG,AFNE01.JPG,,,,,,,,,,,,,1,1,11,0,,,,,,,,,,,AFNE01.jpg,AFSA12.jpg,AFNE13.jpg,AFSA10.jpg,AFSA10.jpg,FS,4,num_4,16,num_4,0.46655167083,,,2017_Jun_26_1859,60.0110098026,MAFE4ImagesEEG,001,100489,
AFNE01.JPG,AFNE01.JPG,AFNE01.JPG,AFNE01.JPG,AFNE01.JPG,AFNE01.JPG,,,,,,,,,,,,,1,2,12,5,,,,,,,,,,,AFNE02.jpg,AFSA08.jpg,AFSA17.jpg,AFNE13.jpg,AFSA17.jpg,FS,4,num_2,16,num_2,0.733441978526,,,2017_Jun_26_1859,60.0110098026,MAFE4ImagesEEG,001,100489,
AFNE01.JPG,AFNE01.JPG,AFNE01.JPG,AFNE01.JPG,AFNE01.JPG,AFNE01.JPG,,,,,,,,,,,,,1,3,13,6,,,,,,,,,,,AFSA06.jpg,AFSA02.jpg,AFNE09.jpg,AFNE02.jpg,AFNE02.jpg,FN,3,num_4,32,num_8,0.666697030018,,,2017_Jun_26_1859,60.0110098026,MAFE4ImagesEEG,001,100489,
AFNE01.JPG,AFNE01.JPG,AFNE01.JPG,AFNE01.JPG,AFNE01.JPG,AFNE01.JPG,,,,,,,,,,,,,1,4,14,3,,,,,,,,,,,AFSA19.jpg,AFSA17.jpg,AFNE10.jpg,AFNE12.jpg,AFSA19.jpg,FS,4,num_8,32,num_6,0.417180224224,,,2017_Jun_26_1859,60.0110098026,MAFE4ImagesEEG,001,100489,
AFNE01.JPG,AFNE01.JPG,AFNE01.JPG,AFNE01.JPG,AFNE01.JPG,AFNE01.JPG,,,,,,,,,,,,,1,5,15,9,,,,,,,,,,,AFNE12.jpg,AFSA09.jpg,AFNE18.jpg,AFSA08.jpg,AFSA08.jpg,FS,4,num_4,32,num_2,1.16681826959,,,2017_Jun_26_1859,60.0110098026,MAFE4ImagesEEG,001,100489,
AFNE01.JPG,AFNE01.JPG,AFNE01.JPG,AFNE01.JPG,AFNE01.JPG,AFNE01.JPG,,,,,,,,,,,,,1,6,16,2,,,,,,,,,,,AFSA14.jpg,AFNE15.jpg,AFNE14.jpg,AFSA08.jpg,AFNE14.jpg,FN,3,num_2,32,num_4,0.833427416947,,,2017_Jun_26_1859,60.0110098026,MAFE4ImagesEEG,001,100489,
AFNE01.JPG,AFNE01.JPG,AFNE01.JPG,AFNE01.JPG,AFNE01.JPG,AFNE01.JPG,,,,,,,,,,,,,1,7,17,8,,,,,,,,,,,AFSA19.jpg,AFNE08.jpg,AFNE16.jpg,AFSA15.jpg,AFSA19.jpg,FS,4,num_8,16,num_8,0.866769260574,,,2017_Jun_26_1859,60.0110098026,MAFE4ImagesEEG,001,100489,
AFNE01.JPG,AFNE01.JPG,AFNE01.JPG,AFNE01.JPG,AFNE01.JPG,AFNE01.JPG,,,,,,,,,,,,,1,8,18,4,,,,,,,,,,,AFSA17.jpg,AFNE15.jpg,AFNE01.jpg,AFSA01.jpg,AFNE01.jpg,FN,3,num_2,32,num_6,0.650125056371,,,2017_Jun_26_1859,60.0110098026,MAFE4ImagesEEG,001,100489,
AFNE01.JPG,AFNE01.JPG,AFNE01.JPG,AFNE01.JPG,AFNE01.JPG,AFNE01.JPG,,,,,,,,,,,,,1,9,19,1,,,,,,,,,,,AFSA12.jpg,AFNE17.jpg,AFNE13.jpg,AFSA03.jpg,AFSA12.jpg,FS,4,num_8,16,num_8,1.13345140827,,,2017_Jun_26_1859,60.0110098026,MAFE4ImagesEEG,001,100489,
AFNE01.JPG,AFNE01.JPG,AFNE01.JPG,AFNE01.JPG,AFNE01.JPG,AFNE01.JPG,,,,,,,,,,,,,2,0,20,5,,,,,,,,,,,AFNE09.jpg,AFSA07.jpg,AFNE14.jpg,AFSA05.jpg,AFSA05.jpg,FS,4,num_4,32,num_2,1.55007386633,,,2017_Jun_26_1859,60.0110098026,MAFE4ImagesEEG,001,100489,
AFNE01.JPG,AFNE01.JPG,AFNE01.JPG,AFNE01.JPG,AFNE01.JPG,AFNE01.JPG,,,,,,,,,,,,,2,1,21,6,,,,,,,,,,,AFSA17.jpg,AFNE03.jpg,AFSA09.jpg,AFNE17.jpg,AFNE17.jpg,FN,3,num_4,32,num_8,1.15009683129,,,2017_Jun_26_1859,60.0110098026,MAFE4ImagesEEG,001,100489,
AFNE01.JPG,AFNE01.JPG,AFNE01.JPG,AFNE01.JPG,AFNE01.JPG,AFNE01.JPG,,,,,,,,,,,,,2,2,22,2,,,,,,,,,,,AFSA11.jpg,AFNE14.jpg,AFSA12.jpg,AFNE06.jpg,AFNE14.jpg,FN,3,num_6,32,num_2,1.29976162633,,,2017_Jun_26_1859,60.0110098026,MAFE4ImagesEEG,001,100489,
AFNE01.JPG,AFNE01.JPG,AFNE01.JPG,AFNE01.JPG,AFNE01.JPG,AFNE01.JPG,,,,,,,,,,,,,2,3,23,7,,,,,,,,,,,AFSA18.jpg,AFNE07.jpg,AFSA19.jpg,AFNE06.jpg,AFNE07.jpg,FN,3,num_6,16,num_6,0.633468407472,,,2017_Jun_26_1859,60.0110098026,MAFE4ImagesEEG,001,100489,
AFNE01.JPG,AFNE01.JPG,AFNE01.JPG,AFNE01.JPG,AFNE01.JPG,AFNE01.JPG,,,,,,,,,,,,,2,4,24,9,,,,,,,,,,,AFSA05.jpg,AFNE19.jpg,AFSA15.jpg,AFNE17.jpg,AFNE19.jpg,FN,3,num_6,32,num_2,1.23343588447,,,2017_Jun_26_1859,60.0110098026,MAFE4ImagesEEG,001,100489,
AFNE01.JPG,AFNE01.JPG,AFNE01.JPG,AFNE01.JPG,AFNE01.JPG,AFNE01.JPG,,,,,,,,,,,,,2,5,25,8,,,,,,,,,,,AFSA08.jpg,AFNE08.jpg,AFSA19.jpg,AFNE15.jpg,AFSA08.jpg,FS,4,num_8,16,num_8,1.25008130749,,,2017_Jun_26_1859,60.0110098026,MAFE4ImagesEEG,001,100489,
AFNE01.JPG,AFNE01.JPG,AFNE01.JPG,AFNE01.JPG,AFNE01.JPG,AFNE01.JPG,,,,,,,,,,,,,2,6,26,4,,,,,,,,,,,AFSA01.jpg,AFSA08.jpg,AFNE13.jpg,AFNE02.jpg,AFNE13.jpg,FN,3,num_2,32,num_6,1.08341763439,,,2017_Jun_26_1859,60.0110098026,MAFE4ImagesEEG,001,100489,
AFNE01.JPG,AFNE01.JPG,AFNE01.JPG,AFNE01.JPG,AFNE01.JPG,AFNE01.JPG,,,,,,,,,,,,,2,7,27,1,,,,,,,,,,,AFSA07.jpg,AFNE07.jpg,AFNE11.jpg,AFSA17.jpg,AFSA07.jpg,FS,4,num_8,32,num_4,0.833446340588,,,2017_Jun_26_1859,60.0110098026,MAFE4ImagesEEG,001,100489,
AFNE01.JPG,AFNE01.JPG,AFNE01.JPG,AFNE01.JPG,AFNE01.JPG,AFNE01.JPG,,,,,,,,,,,,,2,8,28,3,,,,,,,,,,,AFNE08.jpg,AFNE15.jpg,AFSA05.jpg,AFSA03.jpg,AFNE15.jpg,FN,3,num_6,32,num_8,1.33342228512,,,2017_Jun_26_1859,60.0110098026,MAFE4ImagesEEG,001,100489,
AFNE01.JPG,AFNE01.JPG,AFNE01.JPG,AFNE01.JPG,AFNE01.JPG,AFNE01.JPG,,,,,,,,,,,,,2,9,29,0,,,,,,,,,,,AFSA13.jpg,AFSA10.jpg,AFNE04.jpg,AFNE05.jpg,AFSA10.jpg,FS,4,num_6,32,num_2,1.36655789318,,,2017_Jun_26_1859,60.0110098026,MAFE4ImagesEEG,001,100489,
AFNE01.JPG,AFNE01.JPG,AFNE01.JPG,AFNE01.JPG,AFNE01.JPG,AFNE01.JPG,,,,,,,,,,,,,3,0,30,1,,,,,,,,,,,AFNE08.jpg,AFSA03.jpg,AFNE19.jpg,AFSA19.jpg,AFNE08.jpg,FN,3,num_8,32,num_6,1.36669164159,,,2017_Jun_26_1859,60.0110098026,MAFE4ImagesEEG,001,100489,
AFNE01.JPG,AFNE01.JPG,AFNE01.JPG,AFNE01.JPG,AFNE01.JPG,AFNE01.JPG,,,,,,,,,,,,,3,1,31,0,,,,,,,,,,,AFNE05.jpg,AFSA12.jpg,AFNE19.jpg,AFSA02.jpg,AFSA12.jpg,FS,4,num_6,32,num_2,0.966734492402,,,2017_Jun_26_1859,60.0110098026,MAFE4ImagesEEG,001,100489,
AFNE01.JPG,AFNE01.JPG,AFNE01.JPG,AFNE01.JPG,AFNE01.JPG,AFNE01.JPG,,,,,,,,,,,,,3,2,32,6,,,,,,,,,,,AFNE20.jpg,AFSA06.jpg,AFSA13.jpg,AFNE05.jpg,AFNE05.jpg,FN,3,num_4,32,num_8,1.50007986416,,,2017_Jun_26_1859,60.0110098026,MAFE4ImagesEEG,001,100489,
AFNE01.JPG,AFNE01.JPG,AFNE01.JPG,AFNE01.JPG,AFNE01.JPG,AFNE01.JPG,,,,,,,,,,,,,3,3,33,2,,,,,,,,,,,AFSA08.jpg,AFNE18.jpg,AFSA09.jpg,AFNE01.jpg,AFNE01.jpg,FN,3,num_4,32,num_2,1.53332901404,,,2017_Jun_26_1859,60.0110098026,MAFE4ImagesEEG,001,100489,
AFNE01.JPG,AFNE01.JPG,AFNE01.JPG,AFNE01.JPG,AFNE01.JPG,AFNE01.JPG,,,,,,,,,,,,,3,4,34,9,,,,,,,,,,,AFSA18.jpg,AFSA14.jpg,AFNE07.jpg,AFNE05.jpg,AFNE07.jpg,FN,3,num_2,32,num_8,1.86668234014,,,2017_Jun_26_1859,60.0110098026,MAFE4ImagesEEG,001,100489,
AFNE01.JPG,AFNE01.JPG,AFNE01.JPG,AFNE01.JPG,AFNE01.JPG,AFNE01.JPG,,,,,,,,,,,,,3,5,35,4,,,,,,,,,,,AFSA11.jpg,AFNE07.jpg,AFNE02.jpg,AFSA15.jpg,AFSA11.jpg,FS,4,num_8,32,num_4,1.33385977393,,,2017_Jun_26_1859,60.0110098026,MAFE4ImagesEEG,001,100489,
AFNE01.JPG,AFNE01.JPG,AFNE01.JPG,AFNE01.JPG,AFNE01.JPG,AFNE01.JPG,,,,,,,,,,,,,3,6,36,8,,,,,,,,,,,AFSA19.jpg,AFSA18.jpg,AFNE06.jpg,AFNE07.jpg,AFNE07.jpg,FN,3,num_4,32,num_2,1.30006151786,,,2017_Jun_26_1859,60.0110098026,MAFE4ImagesEEG,001,100489,
AFNE01.JPG,AFNE01.JPG,AFNE01.JPG,AFNE01.JPG,AFNE01.JPG,AFNE01.JPG,,,,,,,,,,,,,3,7,37,5,,,,,,,,,,,AFSA11.jpg,AFNE08.jpg,AFNE09.jpg,AFSA08.jpg,AFSA08.jpg,FS,4,num_4,32,num_6,0.866681698662,,,2017_Jun_26_1859,60.0110098026,MAFE4ImagesEEG,001,100489,
AFNE01.JPG,AFNE01.JPG,AFNE01.JPG,AFNE01.JPG,AFNE01.JPG,AFNE01.JPG,,,,,,,,,,,,,3,8,38,3,,,,,,,,,,,AFSA01.jpg,AFNE11.jpg,AFNE02.jpg,AFSA17.jpg,AFSA17.jpg,FS,4,num_4,32,num_8,0.950121464088,,,2017_Jun_26_1859,60.0110098026,MAFE4ImagesEEG,001,100489,
AFNE01.JPG,AFNE01.JPG,AFNE01.JPG,AFNE01.JPG,AFNE01.JPG,AFNE01.JPG,,,,,,,,,,,,,3,9,39,7,,,,,,,,,,,AFSA08.jpg,AFSA03.jpg,AFNE02.jpg,AFNE14.jpg,AFSA03.jpg,FS,4,num_6,32,num_2,0.933539547514,,,2017_Jun_26_1859,60.0110098026,MAFE4ImagesEEG,001,100489,
AFNE01.JPG,AFNE01.JPG,AFNE01.JPG,AFNE01.JPG,AFNE01.JPG,AFNE01.JPG,,,,,,,,,,,,,4,0,40,6,,,,,,,,,,,AFNE16.jpg,AFSA12.jpg,AFNE10.jpg,AFSA17.jpg,AFNE10.jpg,FN,3,num_2,32,num_8,1.05007643225,,,2017_Jun_26_1859,60.0110098026,MAFE4ImagesEEG,001,100489,
AFNE01.JPG,AFNE01.JPG,AFNE01.JPG,AFNE01.JPG,AFNE01.JPG,AFNE01.JPG,,,,,,,,,,,,,4,1,41,5,,,,,,,,,,,AFNE09.jpg,AFSA04.jpg,AFSA05.jpg,AFNE02.jpg,AFSA04.jpg,FS,4,num_6,16,num_6,0.816745750362,,,2017_Jun_26_1859,60.0110098026,MAFE4ImagesEEG,001,100489,
AFNE01.JPG,AFNE01.JPG,AFNE01.JPG,AFNE01.JPG,AFNE01.JPG,AFNE01.JPG,,,,,,,,,,,,,4,2,42,3,,,,,,,,,,,AFNE07.jpg,AFNE16.jpg,AFSA12.jpg,AFSA19.jpg,AFNE16.jpg,FN,3,num_6,32,num_2,0.883434890184,,,2017_Jun_26_1859,60.0110098026,MAFE4ImagesEEG,001,100489,
AFNE01.JPG,AFNE01.JPG,AFNE01.JPG,AFNE01.JPG,AFNE01.JPG,AFNE01.JPG,,,,,,,,,,,,,4,3,43,7,,,,,,,,,,,AFNE15.jpg,AFNE05.jpg,AFSA14.jpg,AFSA12.jpg,AFNE15.jpg,FN,3,num_8,16,num_8,1.09993957266,,,2017_Jun_26_1859,60.0110098026,MAFE4ImagesEEG,001,100489,
AFNE01.JPG,AFNE01.JPG,AFNE01.JPG,AFNE01.JPG,AFNE01.JPG,AFNE01.JPG,,,,,,,,,,,,,4,4,44,2,,,,,,,,,,,AFSA08.jpg,AFNE07.jpg,AFNE12.jpg,AFSA10.jpg,AFNE07.jpg,FN,3,num_6,32,num_2,1.06673949594,,,2017_Jun_26_1859,60.0110098026,MAFE4ImagesEEG,001,100489,
AFNE01.JPG,AFNE01.JPG,AFNE01.JPG,AFNE01.JPG,AFNE01.JPG,AFNE01.JPG,,,,,,,,,,,,,4,5,45,8,,,,,,,,,,,AFSA14.jpg,AFNE19.jpg,AFSA01.jpg,AFNE18.jpg,AFSA14.jpg,FS,4,num_8,32,num_4,0.733491051684,,,2017_Jun_26_1859,60.0110098026,MAFE4ImagesEEG,001,100489,
AFNE01.JPG,AFNE01.JPG,AFNE01.JPG,AFNE01.JPG,AFNE01.JPG,AFNE01.JPG,,,,,,,,,,,,,4,6,46,1,,,,,,,,,,,AFNE05.jpg,AFSA17.jpg,AFNE13.jpg,AFSA05.jpg,AFNE05.jpg,FN,3,num_8,32,num_6,1.03334344733,,,2017_Jun_26_1859,60.0110098026,MAFE4ImagesEEG,001,100489,
AFNE01.JPG,AFNE01.JPG,AFNE01.JPG,AFNE01.JPG,AFNE01.JPG,AFNE01.JPG,,,,,,,,,,,,,4,7,47,9,,,,,,,,,,,AFNE13.jpg,AFSA10.jpg,AFSA08.jpg,AFNE04.jpg,AFSA08.jpg,FS,4,num_2,32,num_8,0.850121913121,,,2017_Jun_26_1859,60.0110098026,MAFE4ImagesEEG,001,100489,
AFNE01.JPG,AFNE01.JPG,AFNE01.JPG,AFNE01.JPG,AFNE01.JPG,AFNE01.JPG,,,,,,,,,,,,,4,8,48,0,,,,,,,,,,,AFSA08.jpg,AFNE09.jpg,AFNE13.jpg,AFSA04.jpg,AFNE13.jpg,FN,3,num_2,16,num_2,1.08332654435,,,2017_Jun_26_1859,60.0110098026,MAFE4ImagesEEG,001,100489,
AFNE01.JPG,AFNE01.JPG,AFNE01.JPG,AFNE01.JPG,AFNE01.JPG,AFNE01.JPG,,,,,,,,,,,,,4,9,49,4,,,,,,,,,,,AFSA07.jpg,AFSA01.jpg,AFNE03.jpg,AFNE20.jpg,AFNE03.jpg,FN,3,num_2,32,num_6,1.11684671919,,,2017_Jun_26_1859,60.0110098026,MAFE4ImagesEEG,001,100489,
AFNE01.JPG,AFNE01.JPG,AFNE01.JPG,AFNE01.JPG,AFNE01.JPG,AFNE01.JPG,,,,,,,,,,,,,5,0,50,7,,,,,,,,,,,AFNE11.jpg,AFSA11.jpg,AFSA19.jpg,AFNE15.jpg,AFNE15.jpg,FN,3,num_4,16,num_4,0.500202707426,,,2017_Jun_26_1859,60.0110098026,MAFE4ImagesEEG,001,100489,
AFNE01.JPG,AFNE01.JPG,AFNE01.JPG,AFNE01.JPG,AFNE01.JPG,AFNE01.JPG,,,,,,,,,,,,,5,1,51,6,,,,,,,,,,,AFSA19.jpg,AFSA02.jpg,AFNE13.jpg,AFNE04.jpg,AFNE04.jpg,FN,3,num_4,16,num_4,0.88346888858,,,2017_Jun_26_1859,60.0110098026,MAFE4ImagesEEG,001,100489,
AFNE01.JPG,AFNE01.JPG,AFNE01.JPG,AFNE01.JPG,AFNE01.JPG,AFNE01.JPG,,,,,,,,,,,,,5,2,52,5,,,,,,,,,,,AFNE20.jpg,AFSA14.jpg,AFSA13.jpg,AFNE15.jpg,AFSA14.jpg,FS,4,num_6,32,num_8,0.766859837437,,,2017_Jun_26_1859,60.0110098026,MAFE4ImagesEEG,001,100489,
AFNE01.JPG,AFNE01.JPG,AFNE01.JPG,AFNE01.JPG,AFNE01.JPG,AFNE01.JPG,,,,,,,,,,,,,5,3,53,9,,,,,,,,,,,AFSA13.jpg,AFNE13.jpg,AFSA04.jpg,AFNE03.jpg,AFSA13.jpg,FS,4,num_8,32,num_6,0.483419366388,,,2017_Jun_26_1859,60.0110098026,MAFE4ImagesEEG,001,100489,
AFNE01.JPG,AFNE01.JPG,AFNE01.JPG,AFNE01.JPG,AFNE01.JPG,AFNE01.JPG,,,,,,,,,,,,,5,4,54,2,,,,,,,,,,,AFSA03.jpg,AFNE09.jpg,AFSA09.jpg,AFNE04.jpg,AFSA09.jpg,FS,4,num_2,16,num_2,0.616757874319,,,2017_Jun_26_1859,60.0110098026,MAFE4ImagesEEG,001,100489,
AFNE01.JPG,AFNE01.JPG,AFNE01.JPG,AFNE01.JPG,AFNE01.JPG,AFNE01.JPG,,,,,,,,,,,,,5,5,55,0,,,,,,,,,,,AFSA17.jpg,AFNE18.jpg,AFSA15.jpg,AFNE04.jpg,AFSA17.jpg,FS,4,num_8,32,num_4,1.33304156721,,,2017_Jun_26_1859,60.0110098026,MAFE4ImagesEEG,001,100489,
AFNE01.JPG,AFNE01.JPG,AFNE01.JPG,AFNE01.JPG,AFNE01.JPG,AFNE01.JPG,,,,,,,,,,,,,5,6,56,8,,,,,,,,,,,AFNE10.jpg,AFNE18.jpg,AFSA02.jpg,AFSA14.jpg,AFSA02.jpg,FS,4,num_2,16,num_2,0.866777599804,,,2017_Jun_26_1859,60.0110098026,MAFE4ImagesEEG,001,100489,
AFNE01.JPG,AFNE01.JPG,AFNE01.JPG,AFNE01.JPG,AFNE01.JPG,AFNE01.JPG,,,,,,,,,,,,,5,7,57,3,,,,,,,,,,,AFNE20.jpg,AFSA10.jpg,AFSA12.jpg,AFNE02.jpg,AFSA12.jpg,FS,4,num_2,32,num_6,0.883453813818,,,2017_Jun_26_1859,60.0110098026,MAFE4ImagesEEG,001,100489,
AFNE01.JPG,AFNE01.JPG,AFNE01.JPG,AFNE01.JPG,AFNE01.JPG,AFNE01.JPG,,,,,,,,,,,,,5,8,58,1,,,,,,,,,,,AFNE09.jpg,AFSA06.jpg,AFSA04.jpg,AFNE19.jpg,AFNE19.jpg,FN,3,num_4,32,num_2,0.766758162983,,,2017_Jun_26_1859,60.0110098026,MAFE4ImagesEEG,001,100489,
AFNE01.JPG,AFNE01.JPG,AFNE01.JPG,AFNE01.JPG,AFNE01.JPG,AFNE01.JPG,,,,,,,,,,,,,5,9,59,4,,,,,,,,,,,AFNE12.jpg,AFSA02.jpg,AFSA19.jpg,AFNE01.jpg,AFNE12.jpg,FN,3,num_8,16,num_8,1.18336682924,,,2017_Jun_26_1859,60.0110098026,MAFE4ImagesEEG,001,100489,
,,,,,,,,,,,,,,,,,,,,,,,,,,,,,,,,,,,,,,,,,,,space,34.480479788,2017_Jun_26_1859,60.0110098026,MAFE4ImagesEEG,001,100489,
AFNE01.JPG,AFNE01.JPG,AFNE01.JPG,AFNE01.JPG,AFNE01.JPG,AFNE01.JPG,,,,,,,,,,,,,,,,,0,0,0,5,,,,,,,AMNE05.jpg,AMSA05.jpg,AMSA20.jpg,AMNE06.jpg,AMSA20.jpg,MS,2,num_2,32,num_4,3.58325213276,,,2017_Jun_26_1859,60.0110098026,MAFE4ImagesEEG,001,100489,
AFNE01.JPG,AFNE01.JPG,AFNE01.JPG,AFNE01.JPG,AFNE01.JPG,AFNE01.JPG,,,,,,,,,,,,,,,,,0,1,1,8,,,,,,,AMSA13.jpg,AMNE08.jpg,AMSA05.jpg,AMNE19.jpg,AMNE08.jpg,MN,1,num_6,32,num_2,0.917010232235,,,2017_Jun_26_1859,60.0110098026,MAFE4ImagesEEG,001,100489,
AFNE01.JPG,AFNE01.JPG,AFNE01.JPG,AFNE01.JPG,AFNE01.JPG,AFNE01.JPG,,,,,,,,,,,,,,,,,0,2,2,0,,,,,,,AMSA16.jpg,AMNE08.jpg,AMNE20.jpg,AMSA14.jpg,AMSA16.jpg,MS,2,num_8,32,num_6,1.03344415956,,,2017_Jun_26_1859,60.0110098026,MAFE4ImagesEEG,001,100489,
AFNE01.JPG,AFNE01.JPG,AFNE01.JPG,AFNE01.JPG,AFNE01.JPG,AFNE01.JPG,,,,,,,,,,,,,,,,,0,3,3,7,,,,,,,AMSA14.jpg,AMNE20.jpg,AMNE11.jpg,AMSA19.jpg,AMNE11.jpg,MN,1,num_2,32,num_4,0.850235134203,,,2017_Jun_26_1859,60.0110098026,MAFE4ImagesEEG,001,100489,
AFNE01.JPG,AFNE01.JPG,AFNE01.JPG,AFNE01.JPG,AFNE01.JPG,AFNE01.JPG,,,,,,,,,,,,,,,,,0,4,4,9,,,,,,,AMNE12.jpg,AMSA08.jpg,AMSA01.jpg,AMNE03.jpg,AMSA01.jpg,MS,2,num_2,16,num_2,1.03345057435,,,2017_Jun_26_1859,60.0110098026,MAFE4ImagesEEG,001,100489,
AFNE01.JPG,AFNE01.JPG,AFNE01.JPG,AFNE01.JPG,AFNE01.JPG,AFNE01.JPG,,,,,,,,,,,,,,,,,0,5,5,6,,,,,,,AMSA05.jpg,AMNE09.jpg,AMSA08.jpg,AMNE05.jpg,AMSA05.jpg,MS,2,num_8,32,num_6,0.50012925806,,,2017_Jun_26_1859,60.0110098026,MAFE4ImagesEEG,001,100489,
AFNE01.JPG,AFNE01.JPG,AFNE01.JPG,AFNE01.JPG,AFNE01.JPG,AFNE01.JPG,,,,,,,,,,,,,,,,,0,6,6,4,,,,,,,AMSA05.jpg,AMNE02.jpg,AMNE03.jpg,AMSA07.jpg,AMNE03.jpg,MN,1,num_2,32,num_8,0.616703348584,,,2017_Jun_26_1859,60.0110098026,MAFE4ImagesEEG,001,100489,
AFNE01.JPG,AFNE01.JPG,AFNE01.JPG,AFNE01.JPG,AFNE01.JPG,AFNE01.JPG,,,,,,,,,,,,,,,,,0,7,7,3,,,,,,,AMNE15.jpg,AMSA19.jpg,AMNE07.jpg,AMSA05.jpg,AMSA05.jpg,MS,2,num_4,16,num_4,0.750124286595,,,2017_Jun_26_1859,60.0110098026,MAFE4ImagesEEG,001,100489,
AFNE01.JPG,AFNE01.JPG,AFNE01.JPG,AFNE01.JPG,AFNE01.JPG,AFNE01.JPG,,,,,,,,,,,,,,,,,0,8,8,1,,,,,,,AMNE13.jpg,AMSA02.jpg,AMSA08.jpg,AMNE11.jpg,AMNE13.jpg,MN,1,num_8,16,num_8,0.66673583951,,,2017_Jun_26_1859,60.0110098026,MAFE4ImagesEEG,001,100489,
AFNE01.JPG,AFNE01.JPG,AFNE01.JPG,AFNE01.JPG,AFNE01.JPG,AFNE01.JPG,,,,,,,,,,,,,,,,,0,9,9,2,,,,,,,AMSA18.jpg,AMNE13.jpg,AMNE04.jpg,AMSA19.jpg,AMNE13.jpg,MN,1,num_6,16,num_6,0.583463500156,,,2017_Jun_26_1859,60.0110098026,MAFE4ImagesEEG,001,100489,
AFNE01.JPG,AFNE01.JPG,AFNE01.JPG,AFNE01.JPG,AFNE01.JPG,AFNE01.JPG,,,,,,,,,,,,,,,,,1,0,10,2,,,,,,,AMNE07.jpg,AMNE14.jpg,AMSA06.jpg,AMSA12.jpg,AMNE07.jpg,MN,1,num_8,32,num_4,0.500110975903,,,2017_Jun_26_1859,60.0110098026,MAFE4ImagesEEG,001,100489,
AFNE01.JPG,AFNE01.JPG,AFNE01.JPG,AFNE01.JPG,AFNE01.JPG,AFNE01.JPG,,,,,,,,,,,,,,,,,1,1,11,5,,,,,,,AMNE06.jpg,AMNE12.jpg,AMSA01.jpg,AMSA08.jpg,AMNE12.jpg,MN,1,num_6,32,num_8,0.583488197102,,,2017_Jun_26_1859,60.0110098026,MAFE4ImagesEEG,001,100489,
AFNE01.JPG,AFNE01.JPG,AFNE01.JPG,AFNE01.JPG,AFNE01.JPG,AFNE01.JPG,,,,,,,,,,,,,,,,,1,2,12,7,,,,,,,AMSA06.jpg,AMNE20.jpg,AMSA20.jpg,AMNE16.jpg,AMSA20.jpg,MS,2,num_2,16,num_2,0.683744660488,,,2017_Jun_26_1859,60.0110098026,MAFE4ImagesEEG,001,100489,
AFNE01.JPG,AFNE01.JPG,AFNE01.JPG,AFNE01.JPG,AFNE01.JPG,AFNE01.JPG,,,,,,,,,,,,,,,,,1,3,13,0,,,,,,,AMSA07.jpg,AMSA01.jpg,AMNE18.jpg,AMNE20.jpg,AMSA01.jpg,MS,2,num_6,32,num_8,0.783545673643,,,2017_Jun_26_1859,60.0110098026,MAFE4ImagesEEG,001,100489,
AFNE01.JPG,AFNE01.JPG,AFNE01.JPG,AFNE01.JPG,AFNE01.JPG,AFNE01.JPG,,,,,,,,,,,,,,,,,1,4,14,3,,,,,,,AMSA19.jpg,AMSA14.jpg,AMNE05.jpg,AMNE12.jpg,AMNE05.jpg,MN,1,num_2,32,num_6,0.683451825233,,,2017_Jun_26_1859,60.0110098026,MAFE4ImagesEEG,001,100489,
AFNE01.JPG,AFNE01.JPG,AFNE01.JPG,AFNE01.JPG,AFNE01.JPG,AFNE01.JPG,,,,,,,,,,,,,,,,,1,5,15,4,,,,,,,AMNE10.jpg,AMSA09.jpg,AMNE01.jpg,AMSA16.jpg,AMNE01.jpg,MN,1,num_2,16,num_2,0.700136378477,,,2017_Jun_26_1859,60.0110098026,MAFE4ImagesEEG,001,100489,
AFNE01.JPG,AFNE01.JPG,AFNE01.JPG,AFNE01.JPG,AFNE01.JPG,AFNE01.JPG,,,,,,,,,,,,,,,,,1,6,16,1,,,,,,,AMNE07.jpg,AMSA17.jpg,AMNE05.jpg,AMSA03.jpg,AMNE05.jpg,MN,1,num_2,32,num_6,0.750105042222,,,2017_Jun_26_1859,60.0110098026,MAFE4ImagesEEG,001,100489,
AFNE01.JPG,AFNE01.JPG,AFNE01.JPG,AFNE01.JPG,AFNE01.JPG,AFNE01.JPG,,,,,,,,,,,,,,,,,1,7,17,9,,,,,,,AMNE19.jpg,AMNE01.jpg,AMSA20.jpg,AMSA03.jpg,AMNE01.jpg,MN,1,num_6,32,num_8,0.916742735411,,,2017_Jun_26_1859,60.0110098026,MAFE4ImagesEEG,001,100489,
AFNE01.JPG,AFNE01.JPG,AFNE01.JPG,AFNE01.JPG,AFNE01.JPG,AFNE01.JPG,,,,,,,,,,,,,,,,,1,8,18,6,,,,,,,AMNE20.jpg,AMNE11.jpg,AMSA03.jpg,AMSA09.jpg,AMNE11.jpg,MN,1,num_6,32,num_8,1.30004580161,,,2017_Jun_26_1859,60.0110098026,MAFE4ImagesEEG,001,100489,
AFNE01.JPG,AFNE01.JPG,AFNE01.JPG,AFNE01.JPG,AFNE01.JPG,AFNE01.JPG,,,,,,,,,,,,,,,,,1,9,19,8,,,,,,,AMNE05.jpg,AMSA13.jpg,AMNE16.jpg,AMSA17.jpg,AMSA17.jpg,MS,2,num_4,32,num_2,1.33339887112,,,2017_Jun_26_1859,60.0110098026,MAFE4ImagesEEG,001,100489,
AFNE01.JPG,AFNE01.JPG,AFNE01.JPG,AFNE01.JPG,AFNE01.JPG,AFNE01.JPG,,,,,,,,,,,,,,,,,2,0,20,7,,,,,,,AMSA16.jpg,AMNE14.jpg,AMSA15.jpg,AMNE05.jpg,AMNE14.jpg,MN,1,num_6,32,num_8,1.00012989954,,,2017_Jun_26_1859,60.0110098026,MAFE4ImagesEEG,001,100489,
AFNE01.JPG,AFNE01.JPG,AFNE01.JPG,AFNE01.JPG,AFNE01.JPG,AFNE01.JPG,,,,,,,,,,,,,,,,,2,1,21,8,,,,,,,AMSA07.jpg,AMNE03.jpg,AMSA13.jpg,AMNE13.jpg,AMSA07.jpg,MS,2,num_8,32,num_6,0.833506639632,,,2017_Jun_26_1859,60.0110098026,MAFE4ImagesEEG,001,100489,
AFNE01.JPG,AFNE01.JPG,AFNE01.JPG,AFNE01.JPG,AFNE01.JPG,AFNE01.JPG,,,,,,,,,,,,,,,,,2,2,22,2,,,,,,,AMNE05.jpg,AMSA10.jpg,AMNE17.jpg,AMSA18.jpg,AMNE05.jpg,MN,1,num_8,32,num_2,1.55008445074,,,2017_Jun_26_1859,60.0110098026,MAFE4ImagesEEG,001,100489,
AFNE01.JPG,AFNE01.JPG,AFNE01.JPG,AFNE01.JPG,AFNE01.JPG,AFNE01.JPG,,,,,,,,,,,,,,,,,2,3,23,0,,,,,,,AMNE02.jpg,AMSA15.jpg,AMNE12.jpg,AMSA09.jpg,AMSA15.jpg,MS,2,num_6,32,num_8,1.26675367263,,,2017_Jun_26_1859,60.0110098026,MAFE4ImagesEEG,001,100489,
AFNE01.JPG,AFNE01.JPG,AFNE01.JPG,AFNE01.JPG,AFNE01.JPG,AFNE01.JPG,,,,,,,,,,,,,,,,,2,4,24,3,,,,,,,AMSA20.jpg,AMNE08.jpg,AMSA12.jpg,AMNE07.jpg,AMSA12.jpg,MS,2,num_2,16,num_2,1.38338068519,,,2017_Jun_26_1859,60.0110098026,MAFE4ImagesEEG,001,100489,
AFNE01.JPG,AFNE01.JPG,AFNE01.JPG,AFNE01.JPG,AFNE01.JPG,AFNE01.JPG,,,,,,,,,,,,,,,,,2,5,25,1,,,,,,,AMNE05.jpg,AMSA18.jpg,AMSA03.jpg,AMNE02.jpg,AMNE05.jpg,MN,1,num_8,16,num_8,1.58339871075,,,2017_Jun_26_1859,60.0110098026,MAFE4ImagesEEG,001,100489,
AFNE01.JPG,AFNE01.JPG,AFNE01.JPG,AFNE01.JPG,AFNE01.JPG,AFNE01.JPG,,,,,,,,,,,,,,,,,2,6,26,5,,,,,,,AMSA10.jpg,AMNE20.jpg,AMSA09.jpg,AMNE01.jpg,AMNE20.jpg,MN,1,num_6,32,num_2,1.01670892945,,,2017_Jun_26_1859,60.0110098026,MAFE4ImagesEEG,001,100489,
AFNE01.JPG,AFNE01.JPG,AFNE01.JPG,AFNE01.JPG,AFNE01.JPG,AFNE01.JPG,,,,,,,,,,,,,,,,,2,7,27,9,,,,,,,AMSA04.jpg,AMNE11.jpg,AMSA15.jpg,AMNE09.jpg,AMSA04.jpg,MS,2,num_8,16,num_8,1.00016261498,,,2017_Jun_26_1859,60.0110098026,MAFE4ImagesEEG,001,100489,
AFNE01.JPG,AFNE01.JPG,AFNE01.JPG,AFNE01.JPG,AFNE01.JPG,AFNE01.JPG,,,,,,,,,,,,,,,,,2,8,28,4,,,,,,,AMSA04.jpg,AMSA09.jpg,AMNE02.jpg,AMNE01.jpg,AMNE02.jpg,MN,1,num_2,32,num_6,1.53339412418,,,2017_Jun_26_1859,60.0110098026,MAFE4ImagesEEG,001,100489,
AFNE01.JPG,AFNE01.JPG,AFNE01.JPG,AFNE01.JPG,AFNE01.JPG,AFNE01.JPG,,,,,,,,,,,,,,,,,2,9,29,6,,,,,,,AMSA06.jpg,AMNE16.jpg,AMSA04.jpg,AMNE05.jpg,AMSA04.jpg,MS,2,num_2,32,num_4,1.1834466934,,,2017_Jun_26_1859,60.0110098026,MAFE4ImagesEEG,001,100489,
AFNE01.JPG,AFNE01.JPG,AFNE01.JPG,AFNE01.JPG,AFNE01.JPG,AFNE01.JPG,,,,,,,,,,,,,,,,,3,0,30,1,,,,,,,AMSA08.jpg,AMNE08.jpg,AMSA04.jpg,AMNE15.jpg,AMNE15.jpg,MN,1,num_4,32,num_8,1.16673648099,,,2017_Jun_26_1859,60.0110098026,MAFE4ImagesEEG,001,100489,
AFNE01.JPG,AFNE01.JPG,AFNE01.JPG,AFNE01.JPG,AFNE01.JPG,AFNE01.JPG,,,,,,,,,,,,,,,,,3,1,31,5,,,,,,,AMNE14.jpg,AMNE08.jpg,AMSA07.jpg,AMSA08.jpg,AMSA07.jpg,MS,2,num_2,32,num_8,1.41637163969,,,2017_Jun_26_1859,60.0110098026,MAFE4ImagesEEG,001,100489,
AFNE01.JPG,AFNE01.JPG,AFNE01.JPG,AFNE01.JPG,AFNE01.JPG,AFNE01.JPG,,,,,,,,,,,,,,,,,3,2,32,8,,,,,,,AMNE13.jpg,AMSA08.jpg,AMNE15.jpg,AMSA17.jpg,AMNE15.jpg,MN,1,num_2,16,num_2,1.15004422999,,,2017_Jun_26_1859,60.0110098026,MAFE4ImagesEEG,001,100489,
AFNE01.JPG,AFNE01.JPG,AFNE01.JPG,AFNE01.JPG,AFNE01.JPG,AFNE01.JPG,,,,,,,,,,,,,,,,,3,3,33,9,,,,,,,AMNE11.jpg,AMSA14.jpg,AMNE17.jpg,AMSA02.jpg,AMSA02.jpg,MS,2,num_4,32,num_8,0.81675280663,,,2017_Jun_26_1859,60.0110098026,MAFE4ImagesEEG,001,100489,
AFNE01.JPG,AFNE01.JPG,AFNE01.JPG,AFNE01.JPG,AFNE01.JPG,AFNE01.JPG,,,,,,,,,,,,,,,,,3,4,34,7,,,,,,,AMNE16.jpg,AMSA16.jpg,AMNE02.jpg,AMSA07.jpg,AMSA16.jpg,MS,2,num_6,32,num_2,1.23341792306,,,2017_Jun_26_1859,60.0110098026,MAFE4ImagesEEG,001,100489,
AFNE01.JPG,AFNE01.JPG,AFNE01.JPG,AFNE01.JPG,AFNE01.JPG,AFNE01.JPG,,,,,,,,,,,,,,,,,3,5,35,6,,,,,,,AMSA19.jpg,AMNE05.jpg,AMSA11.jpg,AMNE06.jpg,AMNE06.jpg,MN,1,num_4,32,num_6,2.00002533843,,,2017_Jun_26_1859,60.0110098026,MAFE4ImagesEEG,001,100489,
AFNE01.JPG,AFNE01.JPG,AFNE01.JPG,AFNE01.JPG,AFNE01.JPG,AFNE01.JPG,,,,,,,,,,,,,,,,,3,6,36,4,,,,,,,AMSA19.jpg,AMSA06.jpg,AMNE13.jpg,AMNE11.jpg,AMNE13.jpg,MN,1,num_2,32,num_4,0.883406344357,,,2017_Jun_26_1859,60.0110098026,MAFE4ImagesEEG,001,100489,
AFNE01.JPG,AFNE01.JPG,AFNE01.JPG,AFNE01.JPG,AFNE01.JPG,AFNE01.JPG,,,,,,,,,,,,,,,,,3,7,37,3,,,,,,,AMNE12.jpg,AMSA12.jpg,AMSA13.jpg,AMNE07.jpg,AMNE07.jpg,MN,1,num_4,32,num_8,1.30009776143,,,2017_Jun_26_1859,60.0110098026,MAFE4ImagesEEG,001,100489,
AFNE01.JPG,AFNE01.JPG,AFNE01.JPG,AFNE01.JPG,AFNE01.JPG,AFNE01.JPG,,,,,,,,,,,,,,,,,3,8,38,2,,,,,,,AMNE02.jpg,AMSA17.jpg,AMSA15.jpg,AMNE18.jpg,AMSA15.jpg,MS,2,num_2,16,num_2,1.10025133155,,,2017_Jun_26_1859,60.0110098026,MAFE4ImagesEEG,001,100489,
AFNE01.JPG,AFNE01.JPG,AFNE01.JPG,AFNE01.JPG,AFNE01.JPG,AFNE01.JPG,,,,,,,,,,,,,,,,,3,9,39,0,,,,,,,AMSA05.jpg,AMSA06.jpg,AMNE06.jpg,AMNE10.jpg,AMNE06.jpg,MN,1,num_2,32,num_4,0.600285329951,,,2017_Jun_26_1859,60.0110098026,MAFE4ImagesEEG,001,100489,
AFNE01.JPG,AFNE01.JPG,AFNE01.JPG,AFNE01.JPG,AFNE01.JPG,AFNE01.JPG,,,,,,,,,,,,,,,,,4,0,40,8,,,,,,,AMSA12.jpg,AMNE12.jpg,AMNE10.jpg,AMSA02.jpg,AMNE12.jpg,MN,1,num_6,32,num_8,0.900088652426,,,2017_Jun_26_1859,60.0110098026,MAFE4ImagesEEG,001,100489,
AFNE01.JPG,AFNE01.JPG,AFNE01.JPG,AFNE01.JPG,AFNE01.JPG,AFNE01.JPG,,,,,,,,,,,,,,,,,4,1,41,9,,,,,,,AMNE12.jpg,AMNE18.jpg,AMSA16.jpg,AMSA19.jpg,AMNE12.jpg,MN,1,num_8,32,num_4,0.550107864728,,,2017_Jun_26_1859,60.0110098026,MAFE4ImagesEEG,001,100489,
AFNE01.JPG,AFNE01.JPG,AFNE01.JPG,AFNE01.JPG,AFNE01.JPG,AFNE01.JPG,,,,,,,,,,,,,,,,,4,2,42,0,,,,,,,AMNE04.jpg,AMSA20.jpg,AMSA14.jpg,AMNE17.jpg,AMSA14.jpg,MS,2,num_2,16,num_2,0.799638141583,,,2017_Jun_26_1859,60.0110098026,MAFE4ImagesEEG,001,100489,
AFNE01.JPG,AFNE01.JPG,AFNE01.JPG,AFNE01.JPG,AFNE01.JPG,AFNE01.JPG,,,,,,,,,,,,,,,,,4,3,43,2,,,,,,,AMNE09.jpg,AMNE06.jpg,AMSA17.jpg,AMSA19.jpg,AMNE09.jpg,MN,1,num_8,16,num_8,0.916766470138,,,2017_Jun_26_1859,60.0110098026,MAFE4ImagesEEG,001,100489,
AFNE01.JPG,AFNE01.JPG,AFNE01.JPG,AFNE01.JPG,AFNE01.JPG,AFNE01.JPG,,,,,,,,,,,,,,,,,4,4,44,3,,,,,,,AMNE16.jpg,AMSA17.jpg,AMSA02.jpg,AMNE08.jpg,AMSA17.jpg,MS,2,num_6,32,num_2,0.833429982868,,,2017_Jun_26_1859,60.0110098026,MAFE4ImagesEEG,001,100489,
AFNE01.JPG,AFNE01.JPG,AFNE01.JPG,AFNE01.JPG,AFNE01.JPG,AFNE01.JPG,,,,,,,,,,,,,,,,,4,5,45,1,,,,,,,AMSA18.jpg,AMNE09.jpg,AMNE15.jpg,AMSA12.jpg,AMNE15.jpg,MN,1,num_2,32,num_6,0.700164282825,,,2017_Jun_26_1859,60.0110098026,MAFE4ImagesEEG,001,100489,
AFNE01.JPG,AFNE01.JPG,AFNE01.JPG,AFNE01.JPG,AFNE01.JPG,AFNE01.JPG,,,,,,,,,,,,,,,,,4,6,46,5,,,,,,,AMSA06.jpg,AMNE05.jpg,AMNE03.jpg,AMSA07.jpg,AMNE05.jpg,MN,1,num_6,32,num_8,0.883431362046,,,2017_Jun_26_1859,60.0110098026,MAFE4ImagesEEG,001,100489,
AFNE01.JPG,AFNE01.JPG,AFNE01.JPG,AFNE01.JPG,AFNE01.JPG,AFNE01.JPG,,,,,,,,,,,,,,,,,4,7,47,7,,,,,,,AMSA01.jpg,AMSA14.jpg,AMNE12.jpg,AMNE10.jpg,AMNE10.jpg,MN,1,num_4,32,num_2,0.65019754352,,,2017_Jun_26_1859,60.0110098026,MAFE4ImagesEEG,001,100489,
AFNE01.JPG,AFNE01.JPG,AFNE01.JPG,AFNE01.JPG,AFNE01.JPG,AFNE01.JPG,,,,,,,,,,,,,,,,,4,8,48,6,,,,,,,AMNE10.jpg,AMSA01.jpg,AMNE11.jpg,AMSA07.jpg,AMNE11.jpg,MN,1,num_2,32,num_4,0.633431522416,,,2017_Jun_26_1859,60.0110098026,MAFE4ImagesEEG,001,100489,
AFNE01.JPG,AFNE01.JPG,AFNE01.JPG,AFNE01.JPG,AFNE01.JPG,AFNE01.JPG,,,,,,,,,,,,,,,,,4,9,49,4,,,,,,,AMSA11.jpg,AMNE03.jpg,AMSA16.jpg,AMNE12.jpg,AMSA16.jpg,MS,2,num_2,32,num_6,0.850159760394,,,2017_Jun_26_1859,60.0110098026,MAFE4ImagesEEG,001,100489,
AFNE01.JPG,AFNE01.JPG,AFNE01.JPG,AFNE01.JPG,AFNE01.JPG,AFNE01.JPG,,,,,,,,,,,,,,,,,5,0,50,8,,,,,,,AMSA16.jpg,AMNE20.jpg,AMNE15.jpg,AMSA07.jpg,AMSA07.jpg,MS,2,num_4,32,num_2,1.01671566499,,,2017_Jun_26_1859,60.0110098026,MAFE4ImagesEEG,001,100489,
AFNE01.JPG,AFNE01.JPG,AFNE01.JPG,AFNE01.JPG,AFNE01.JPG,AFNE01.JPG,,,,,,,,,,,,,,,,,5,1,51,3,,,,,,,AMNE13.jpg,AMSA15.jpg,AMNE19.jpg,AMSA20.jpg,AMNE13.jpg,MN,1,num_8,16,num_8,0.733437488176,,,2017_Jun_26_1859,60.0110098026,MAFE4ImagesEEG,001,100489,
AFNE01.JPG,AFNE01.JPG,AFNE01.JPG,AFNE01.JPG,AFNE01.JPG,AFNE01.JPG,,,,,,,,,,,,,,,,,5,2,52,6,,,,,,,AMNE09.jpg,AMSA17.jpg,AMSA09.jpg,AMNE01.jpg,AMNE09.jpg,MN,1,num_8,32,num_2,0.350137308622,,,2017_Jun_26_1859,60.0110098026,MAFE4ImagesEEG,001,100489,
AFNE01.JPG,AFNE01.JPG,AFNE01.JPG,AFNE01.JPG,AFNE01.JPG,AFNE01.JPG,,,,,,,,,,,,,,,,,5,3,53,7,,,,,,,AMSA17.jpg,AMNE08.jpg,AMNE10.jpg,AMSA12.jpg,AMSA12.jpg,MS,2,num_4,32,num_6,0.56679402167,,,2017_Jun_26_1859,60.0110098026,MAFE4ImagesEEG,001,100489,
AFNE01.JPG,AFNE01.JPG,AFNE01.JPG,AFNE01.JPG,AFNE01.JPG,AFNE01.JPG,,,,,,,,,,,,,,,,,5,4,54,0,,,,,,,AMNE20.jpg,AMNE19.jpg,AMSA10.jpg,AMSA20.jpg,AMNE20.jpg,MN,1,num_8,32,num_2,0.933402270966,,,2017_Jun_26_1859,60.0110098026,MAFE4ImagesEEG,001,100489,
AFNE01.JPG,AFNE01.JPG,AFNE01.JPG,AFNE01.JPG,AFNE01.JPG,AFNE01.JPG,,,,,,,,,,,,,,,,,5,5,55,9,,,,,,,AMSA20.jpg,AMNE10.jpg,AMNE11.jpg,AMSA05.jpg,AMNE10.jpg,MN,1,num_6,32,num_8,1.15012537711,,,2017_Jun_26_1859,60.0110098026,MAFE4ImagesEEG,001,100489,
AFNE01.JPG,AFNE01.JPG,AFNE01.JPG,AFNE01.JPG,AFNE01.JPG,AFNE01.JPG,,,,,,,,,,,,,,,,,5,6,56,4,,,,,,,AMNE10.jpg,AMNE02.jpg,AMSA07.jpg,AMSA06.jpg,AMSA06.jpg,MS,2,num_4,32,num_2,1.06673468485,,,2017_Jun_26_1859,60.0110098026,MAFE4ImagesEEG,001,100489,
AFNE01.JPG,AFNE01.JPG,AFNE01.JPG,AFNE01.JPG,AFNE01.JPG,AFNE01.JPG,,,,,,,,,,,,,,,,,5,7,57,2,,,,,,,AMSA20.jpg,AMNE11.jpg,AMSA04.jpg,AMNE10.jpg,AMSA04.jpg,MS,2,num_2,16,num_2,1.11671746113,,,2017_Jun_26_1859,60.0110098026,MAFE4ImagesEEG,001,100489,
AFNE01.JPG,AFNE01.JPG,AFNE01.JPG,AFNE01.JPG,AFNE01.JPG,AFNE01.JPG,,,,,,,,,,,,,,,,,5,8,58,1,,,,,,,AMNE16.jpg,AMSA06.jpg,AMSA17.jpg,AMNE09.jpg,AMNE16.jpg,MN,1,num_8,16,num_8,0.78358672831,,,2017_Jun_26_1859,60.0110098026,MAFE4ImagesEEG,001,100489,
AFNE01.JPG,AFNE01.JPG,AFNE01.JPG,AFNE01.JPG,AFNE01.JPG,AFNE01.JPG,,,,,,,,,,,,,,,,,5,9,59,5,,,,,,,AMSA15.jpg,AMSA12.jpg,AMNE20.jpg,AMNE07.jpg,AMNE20.jpg,MN,1,num_2,32,num_4,0.550033773878,,,2017_Jun_26_1859,60.0110098026,MAFE4ImagesEEG,001,100489,
,,,,,,,,,,,,,,,,,,,,,,,,,,,,,,,,,,,,,,,,,,,space,29.1475321974,2017_Jun_26_1859,60.0110098026,MAFE4ImagesEEG,001,100489,
AFNE01.JPG,AFNE01.JPG,AFNE01.JPG,AFNE01.JPG,AFNE01.JPG,AFNE01.JPG,,,,,,,,,,,,,,,,,,,,,0,0,0,6,,,AFSA04.jpg,AFNE12.jpg,AFNE10.jpg,AFSA09.jpg,AFSA09.jpg,FS,4,num_4,32,num_6,0.650198185001,,,2017_Jun_26_1859,60.0110098026,MAFE4ImagesEEG,001,100489,
AFNE01.JPG,AFNE01.JPG,AFNE01.JPG,AFNE01.JPG,AFNE01.JPG,AFNE01.JPG,,,,,,,,,,,,,,,,,,,,,0,1,1,3,,,AFSA02.jpg,AFSA05.jpg,AFNE15.jpg,AFNE09.jpg,AFSA02.jpg,FS,4,num_8,32,num_2,1.46682686541,,,2017_Jun_26_1859,60.0110098026,MAFE4ImagesEEG,001,100489,
AFNE01.JPG,AFNE01.JPG,AFNE01.JPG,AFNE01.JPG,AFNE01.JPG,AFNE01.JPG,,,,,,,,,,,,,,,,,,,,,0,2,2,2,,,AFNE12.jpg,AFSA17.jpg,AFNE14.jpg,AFSA13.jpg,AFNE14.jpg,FN,3,num_2,32,num_8,0.533524344457,,,2017_Jun_26_1859,60.0110098026,MAFE4ImagesEEG,001,100489,
AFNE01.JPG,AFNE01.JPG,AFNE01.JPG,AFNE01.JPG,AFNE01.JPG,AFNE01.JPG,,,,,,,,,,,,,,,,,,,,,0,3,3,5,,,AFSA01.jpg,AFNE18.jpg,AFSA02.jpg,AFNE08.jpg,AFNE08.jpg,FN,3,num_4,16,num_4,0.650303708328,,,2017_Jun_26_1859,60.0110098026,MAFE4ImagesEEG,001,100489,
AFNE01.JPG,AFNE01.JPG,AFNE01.JPG,AFNE01.JPG,AFNE01.JPG,AFNE01.JPG,,,,,,,,,,,,,,,,,,,,,0,4,4,0,,,AFNE20.jpg,AFNE09.jpg,AFSA07.jpg,AFSA08.jpg,AFSA08.jpg,FS,4,num_4,32,num_2,0.666749631309,,,2017_Jun_26_1859,60.0110098026,MAFE4ImagesEEG,001,100489,
AFNE01.JPG,AFNE01.JPG,AFNE01.JPG,AFNE01.JPG,AFNE01.JPG,AFNE01.JPG,,,,,,,,,,,,,,,,,,,,,0,5,5,4,,,AFNE13.jpg,AFNE12.jpg,AFSA18.jpg,AFSA11.jpg,AFSA11.jpg,FS,4,num_4,32,num_6,0.616793155674,,,2017_Jun_26_1859,60.0110098026,MAFE4ImagesEEG,001,100489,
AFNE01.JPG,AFNE01.JPG,AFNE01.JPG,AFNE01.JPG,AFNE01.JPG,AFNE01.JPG,,,,,,,,,,,,,,,,,,,,,0,6,6,9,,,AFNE14.jpg,AFSA16.jpg,AFSA20.jpg,AFNE17.jpg,AFNE17.jpg,FN,3,num_4,32,num_8,0.600119186834,,,2017_Jun_26_1859,60.0110098026,MAFE4ImagesEEG,001,100489,
AFNE01.JPG,AFNE01.JPG,AFNE01.JPG,AFNE01.JPG,AFNE01.JPG,AFNE01.JPG,,,,,,,,,,,,,,,,,,,,,0,7,7,8,,,AFNE18.jpg,AFSA17.jpg,AFNE02.jpg,AFSA18.jpg,AFSA18.jpg,FS,4,num_4,32,num_2,1.15012216971,,,2017_Jun_26_1859,60.0110098026,MAFE4ImagesEEG,001,100489,
AFNE01.JPG,AFNE01.JPG,AFNE01.JPG,AFNE01.JPG,AFNE01.JPG,AFNE01.JPG,,,,,,,,,,,,,,,,,,,,,0,8,8,1,,,AFNE02.jpg,AFSA04.jpg,AFSA02.jpg,AFNE11.jpg,AFSA02.jpg,FS,4,num_2,32,num_4,0.633534800567,,,2017_Jun_26_1859,60.0110098026,MAFE4ImagesEEG,001,100489,
AFNE01.JPG,AFNE01.JPG,AFNE01.JPG,AFNE01.JPG,AFNE01.JPG,AFNE01.JPG,,,,,,,,,,,,,,,,,,,,,0,9,9,7,,,AFNE03.jpg,AFSA05.jpg,AFNE12.jpg,AFSA10.jpg,AFNE03.jpg,FN,3,num_8,32,num_6,0.599991532476,,,2017_Jun_26_1859,60.0110098026,MAFE4ImagesEEG,001,100489,
AFNE01.JPG,AFNE01.JPG,AFNE01.JPG,AFNE01.JPG,AFNE01.JPG,AFNE01.JPG,,,,,,,,,,,,,,,,,,,,,1,0,10,8,,,AFNE10.jpg,AFSA01.jpg,AFSA17.jpg,AFNE17.jpg,AFSA17.jpg,FS,4,num_2,16,num_2,0.699830392899,,,2017_Jun_26_1859,60.0110098026,MAFE4ImagesEEG,001,100489,
AFNE01.JPG,AFNE01.JPG,AFNE01.JPG,AFNE01.JPG,AFNE01.JPG,AFNE01.JPG,,,,,,,,,,,,,,,,,,,,,1,1,11,9,,,AFSA05.jpg,AFSA11.jpg,AFNE11.jpg,AFNE12.jpg,AFNE11.jpg,FN,3,num_2,32,num_6,0.700180640542,,,2017_Jun_26_1859,60.0110098026,MAFE4ImagesEEG,001,100489,
AFNE01.JPG,AFNE01.JPG,AFNE01.JPG,AFNE01.JPG,AFNE01.JPG,AFNE01.JPG,,,,,,,,,,,,,,,,,,,,,1,2,12,1,,,AFSA03.jpg,AFSA13.jpg,AFNE06.jpg,AFNE03.jpg,AFSA13.jpg,FS,4,num_6,32,num_2,0.866759959124,,,2017_Jun_26_1859,60.0110098026,MAFE4ImagesEEG,001,100489,
AFNE01.JPG,AFNE01.JPG,AFNE01.JPG,AFNE01.JPG,AFNE01.JPG,AFNE01.JPG,,,,,,,,,,,,,,,,,,,,,1,3,13,7,,,AFNE08.jpg,AFNE11.jpg,AFSA12.jpg,AFSA04.jpg,AFNE11.jpg,FN,3,num_6,32,num_8,1.56670966716,,,2017_Jun_26_1859,60.0110098026,MAFE4ImagesEEG,001,100489,
AFNE01.JPG,AFNE01.JPG,AFNE01.JPG,AFNE01.JPG,AFNE01.JPG,AFNE01.JPG,,,,,,,,,,,,,,,,,,,,,1,4,14,0,,,AFSA16.jpg,AFSA17.jpg,AFNE17.jpg,AFNE18.jpg,AFNE18.jpg,FN,3,num_4,32,num_2,0.616775835737,,,2017_Jun_26_1859,60.0110098026,MAFE4ImagesEEG,001,100489,
AFNE01.JPG,AFNE01.JPG,AFNE01.JPG,AFNE01.JPG,AFNE01.JPG,AFNE01.JPG,,,,,,,,,,,,,,,,,,,,,1,5,15,6,,,AFSA02.jpg,AFNE09.jpg,AFSA16.jpg,AFNE16.jpg,AFSA02.jpg,FS,4,num_8,32,num_4,0.700158830248,,,2017_Jun_26_1859,60.0110098026,MAFE4ImagesEEG,001,100489,
AFNE01.JPG,AFNE01.JPG,AFNE01.JPG,AFNE01.JPG,AFNE01.JPG,AFNE01.JPG,,,,,,,,,,,,,,,,,,,,,1,6,16,2,,,AFSA20.jpg,AFNE09.jpg,AFSA17.jpg,AFNE18.jpg,AFNE09.jpg,FN,3,num_6,32,num_8,1.15007566247,,,2017_Jun_26_1859,60.0110098026,MAFE4ImagesEEG,001,100489,
AFNE01.JPG,AFNE01.JPG,AFNE01.JPG,AFNE01.JPG,AFNE01.JPG,AFNE01.JPG,,,,,,,,,,,,,,,,,,,,,1,7,17,3,,,AFSA20.jpg,AFNE20.jpg,AFNE03.jpg,AFSA11.jpg,AFNE03.jpg,FN,3,num_2,32,num_6,0.733411829005,,,2017_Jun_26_1859,60.0110098026,MAFE4ImagesEEG,001,100489,
AFNE01.JPG,AFNE01.JPG,AFNE01.JPG,AFNE01.JPG,AFNE01.JPG,AFNE01.JPG,,,,,,,,,,,,,,,,,,,,,1,8,18,4,,,AFSA03.jpg,AFNE13.jpg,AFSA18.jpg,AFNE08.jpg,AFSA03.jpg,FS,4,num_8,32,num_2,0.716728237978,,,2017_Jun_26_1859,60.0110098026,MAFE4ImagesEEG,001,100489,
AFNE01.JPG,AFNE01.JPG,AFNE01.JPG,AFNE01.JPG,AFNE01.JPG,AFNE01.JPG,,,,,,,,,,,,,,,,,,,,,1,9,19,5,,,AFNE19.jpg,AFSA07.jpg,AFSA19.jpg,AFNE05.jpg,AFSA07.jpg,FS,4,num_6,32,num_8,0.700101097122,,,2017_Jun_26_1859,60.0110098026,MAFE4ImagesEEG,001,100489,
AFNE01.JPG,AFNE01.JPG,AFNE01.JPG,AFNE01.JPG,AFNE01.JPG,AFNE01.JPG,,,,,,,,,,,,,,,,,,,,,2,0,20,8,,,AFSA14.jpg,AFSA17.jpg,AFNE12.jpg,AFNE01.jpg,AFNE12.jpg,FN,3,num_2,16,num_2,1.00010007076,,,2017_Jun_26_1859,60.0110098026,MAFE4ImagesEEG,001,100489,
AFNE01.JPG,AFNE01.JPG,AFNE01.JPG,AFNE01.JPG,AFNE01.JPG,AFNE01.JPG,,,,,,,,,,,,,,,,,,,,,2,1,21,2,,,AFNE03.jpg,AFSA06.jpg,AFSA20.jpg,AFNE20.jpg,AFNE20.jpg,FN,3,num_4,32,num_6,0.750087722281,,,2017_Jun_26_1859,60.0110098026,MAFE4ImagesEEG,001,100489,
AFNE01.JPG,AFNE01.JPG,AFNE01.JPG,AFNE01.JPG,AFNE01.JPG,AFNE01.JPG,,,,,,,,,,,,,,,,,,,,,2,2,22,0,,,AFNE17.jpg,AFSA15.jpg,AFNE11.jpg,AFSA02.jpg,AFSA15.jpg,FS,4,num_6,32,num_8,0.833464302003,,,2017_Jun_26_1859,60.0110098026,MAFE4ImagesEEG,001,100489,
AFNE01.JPG,AFNE01.JPG,AFNE01.JPG,AFNE01.JPG,AFNE01.JPG,AFNE01.JPG,,,,,,,,,,,,,,,,,,,,,2,3,23,3,,,AFNE20.jpg,AFSA01.jpg,AFNE04.jpg,AFSA18.jpg,AFNE04.jpg,FN,3,num_2,16,num_2,2.15004615443,,,2017_Jun_26_1859,60.0110098026,MAFE4ImagesEEG,001,100489,
AFNE01.JPG,AFNE01.JPG,AFNE01.JPG,AFNE01.JPG,AFNE01.JPG,AFNE01.JPG,,,,,,,,,,,,,,,,,,,,,2,4,24,1,,,AFNE10.jpg,AFNE06.jpg,AFSA09.jpg,AFSA16.jpg,AFSA16.jpg,FS,4,num_4,32,num_2,1.18342007201,,,2017_Jun_26_1859,60.0110098026,MAFE4ImagesEEG,001,100489,
AFNE01.JPG,AFNE01.JPG,AFNE01.JPG,AFNE01.JPG,AFNE01.JPG,AFNE01.JPG,,,,,,,,,,,,,,,,,,,,,2,5,25,9,,,AFSA07.jpg,AFNE12.jpg,AFNE18.jpg,AFSA15.jpg,AFNE12.jpg,FN,3,num_6,32,num_8,0.849997786896,,,2017_Jun_26_1859,60.0110098026,MAFE4ImagesEEG,001,100489,
AFNE01.JPG,AFNE01.JPG,AFNE01.JPG,AFNE01.JPG,AFNE01.JPG,AFNE01.JPG,,,,,,,,,,,,,,,,,,,,,2,6,26,7,,,AFSA12.jpg,AFNE02.jpg,AFSA18.jpg,AFNE18.jpg,AFSA12.jpg,FS,4,num_8,32,num_4,0.766797293214,,,2017_Jun_26_1859,60.0110098026,MAFE4ImagesEEG,001,100489,
AFNE01.JPG,AFNE01.JPG,AFNE01.JPG,AFNE01.JPG,AFNE01.JPG,AFNE01.JPG,,,,,,,,,,,,,,,,,,,,,2,7,27,5,,,AFNE06.jpg,AFSA06.jpg,AFNE01.jpg,AFSA16.jpg,AFNE01.jpg,FN,3,num_2,32,num_8,3.04992472242,,,2017_Jun_26_1859,60.0110098026,MAFE4ImagesEEG,001,100489,
AFNE01.JPG,AFNE01.JPG,AFNE01.JPG,AFNE01.JPG,AFNE01.JPG,AFNE01.JPG,,,,,,,,,,,,,,,,,,,,,2,8,28,4,,,AFSA18.jpg,AFNE10.jpg,AFNE17.jpg,AFSA16.jpg,AFNE17.jpg,FN,3,num_2,16,num_2,0.716782122232,,,2017_Jun_26_1859,60.0110098026,MAFE4ImagesEEG,001,100489,
AFNE01.JPG,AFNE01.JPG,AFNE01.JPG,AFNE01.JPG,AFNE01.JPG,AFNE01.JPG,,,,,,,,,,,,,,,,,,,,,2,9,29,6,,,AFSA17.jpg,AFSA13.jpg,AFNE15.jpg,AFNE09.jpg,AFNE09.jpg,FN,3,num_4,32,num_6,0.550030566486,,,2017_Jun_26_1859,60.0110098026,MAFE4ImagesEEG,001,100489,
AFNE01.JPG,AFNE01.JPG,AFNE01.JPG,AFNE01.JPG,AFNE01.JPG,AFNE01.JPG,,,,,,,,,,,,,,,,,,,,,3,0,30,0,,,AFNE15.jpg,AFNE11.jpg,AFSA08.jpg,AFSA15.jpg,AFSA08.jpg,FS,4,num_2,32,num_8,0.51676634184,,,2017_Jun_26_1859,60.0110098026,MAFE4ImagesEEG,001,100489,
AFNE01.JPG,AFNE01.JPG,AFNE01.JPG,AFNE01.JPG,AFNE01.JPG,AFNE01.JPG,,,,,,,,,,,,,,,,,,,,,3,1,31,2,,,AFSA04.jpg,AFNE01.jpg,AFNE15.jpg,AFSA09.jpg,AFNE15.jpg,FN,3,num_2,16,num_2,0.383508660288,,,2017_Jun_26_1859,60.0110098026,MAFE4ImagesEEG,001,100489,
AFNE01.JPG,AFNE01.JPG,AFNE01.JPG,AFNE01.JPG,AFNE01.JPG,AFNE01.JPG,,,,,,,,,,,,,,,,,,,,,3,2,32,3,,,AFNE13.jpg,AFNE04.jpg,AFSA01.jpg,AFSA19.jpg,AFSA01.jpg,FS,4,num_2,32,num_4,0.583463179413,,,2017_Jun_26_1859,60.0110098026,MAFE4ImagesEEG,001,100489,
AFNE01.JPG,AFNE01.JPG,AFNE01.JPG,AFNE01.JPG,AFNE01.JPG,AFNE01.JPG,,,,,,,,,,,,,,,,,,,,,3,3,33,6,,,AFSA10.jpg,AFNE02.jpg,AFSA03.jpg,AFNE07.jpg,AFSA10.jpg,FS,4,num_8,16,num_8,0.316808615324,,,2017_Jun_26_1859,60.0110098026,MAFE4ImagesEEG,001,100489,
AFNE01.JPG,AFNE01.JPG,AFNE01.JPG,AFNE01.JPG,AFNE01.JPG,AFNE01.JPG,,,,,,,,,,,,,,,,,,,,,3,4,34,9,,,AFSA06.jpg,AFSA07.jpg,AFNE13.jpg,AFNE04.jpg,AFNE04.jpg,FN,3,num_4,32,num_2,1.0334104819,,,2017_Jun_26_1859,60.0110098026,MAFE4ImagesEEG,001,100489,
AFNE01.JPG,AFNE01.JPG,AFNE01.JPG,AFNE01.JPG,AFNE01.JPG,AFNE01.JPG,,,,,,,,,,,,,,,,,,,,,3,5,35,7,,,AFSA06.jpg,AFSA17.jpg,AFNE06.jpg,AFNE07.jpg,AFSA17.jpg,FS,4,num_6,16,num_6,0.683501539872,,,2017_Jun_26_1859,60.0110098026,MAFE4ImagesEEG,001,100489,
AFNE01.JPG,AFNE01.JPG,AFNE01.JPG,AFNE01.JPG,AFNE01.JPG,AFNE01.JPG,,,,,,,,,,,,,,,,,,,,,3,6,36,8,,,AFNE09.jpg,AFSA08.jpg,AFNE05.jpg,AFSA07.jpg,AFNE09.jpg,FN,3,num_8,32,num_2,0.966757585655,,,2017_Jun_26_1859,60.0110098026,MAFE4ImagesEEG,001,100489,
AFNE01.JPG,AFNE01.JPG,AFNE01.JPG,AFNE01.JPG,AFNE01.JPG,AFNE01.JPG,,,,,,,,,,,,,,,,,,,,,3,7,37,1,,,AFSA07.jpg,AFSA10.jpg,AFNE14.jpg,AFNE17.jpg,AFNE17.jpg,FN,3,num_4,32,num_2,0.950103823408,,,2017_Jun_26_1859,60.0110098026,MAFE4ImagesEEG,001,100489,
AFNE01.JPG,AFNE01.JPG,AFNE01.JPG,AFNE01.JPG,AFNE01.JPG,AFNE01.JPG,,,,,,,,,,,,,,,,,,,,,3,8,38,4,,,AFNE11.jpg,AFNE13.jpg,AFSA03.jpg,AFSA09.jpg,AFSA09.jpg,FS,4,num_4,32,num_8,0.700130925903,,,2017_Jun_26_1859,60.0110098026,MAFE4ImagesEEG,001,100489,
