IPosition2,IPosition3,IPosition1,IPosition6,IPosition4,IPosition5,TrialsF1.thisRepN,TrialsF1.thisTrialN,TrialsF1.thisN,TrialsF1.thisIndex,TrialsM1.thisRepN,TrialsM1.thisTrialN,TrialsM1.thisN,TrialsM1.thisIndex,TrialsF2.thisRepN,TrialsF2.thisTrialN,TrialsF2.thisN,TrialsF2.thisIndex,TrialsM2.thisRepN,TrialsM2.thisTrialN,TrialsM2.thisN,TrialsM2.thisIndex,TrialsF3.thisRepN,TrialsF3.thisTrialN,TrialsF3.thisN,TrialsF3.thisIndex,TrialsM3.thisRepN,TrialsM3.thisTrialN,TrialsM3.thisN,TrialsM3.thisIndex,InstrKey_resp.keys,InstrKey_resp.rt,Image0 _Position,Image1 _Position,Image2 _Position,Image3 _Position,Center_image,condition,code,correct_answer,accuracy,Key_Resp.keys,Key_Resp.rt,BreakKey_resp.keys,BreakKey_resp.rt,date,frameRate,expName,session,participant,
,,,,,,,,,,,,,,,,,,,,,,,,,,,,,,space,10.0829135114,,,,,,,,,,,,,,2017_Jun_05_1300,60.0011354061,FEMA4ImagesEEG,001,100552,
AFSA21.JPG,AFNE23.JPG,AFNE21.JPG,AFSA25.JPG,AFNE25.JPG,AFSA23.JPG,0,0,0,4,,,,,,,,,,,,,,,,,,,,,,,AFNE13.jpg,AFSA16.jpg,AFNE17.jpg,AFSA09.jpg,AFSA09.jpg,FS,4,num_4,16,num_4,1.33344666124,,,2017_Jun_05_1300,60.0011354061,FEMA4ImagesEEG,001,100552,
AFSA25.JPG,AFNE24.JPG,AFSA24.JPG,AFNE21.JPG,AFSA21.JPG,AFNE25.JPG,0,1,1,2,,,,,,,,,,,,,,,,,,,,,,,AFNE15.jpg,AFNE04.jpg,AFSA18.jpg,AFSA16.jpg,AFSA18.jpg,FS,4,num_2,32,num_8,1.28343497054,,,2017_Jun_05_1300,60.0011354061,FEMA4ImagesEEG,001,100552,
AMNE23.JPG,AMNE24.JPG,AMNE22.JPG,AMSA24.JPG,AMSA22.JPG,AMSA23.JPG,0,2,2,9,,,,,,,,,,,,,,,,,,,,,,,AFSA17.jpg,AFSA11.jpg,AFNE07.jpg,AFNE04.jpg,AFNE04.jpg,FN,3,num_4,32,num_6,1.05012138397,,,2017_Jun_05_1300,60.0011354061,FEMA4ImagesEEG,001,100552,
AMNE22.JPG,AMSA24.JPG,AMSA22.JPG,AMNE25.JPG,AMNE24.JPG,AMSA25.JPG,0,3,3,7,,,,,,,,,,,,,,,,,,,,,,,AFNE05.jpg,AFSA18.jpg,AFSA09.jpg,AFNE13.jpg,AFSA18.jpg,FS,4,num_6,32,num_2,0.93347758078,,,2017_Jun_05_1300,60.0011354061,FEMA4ImagesEEG,001,100552,
AMSA21.JPG,AMNE23.JPG,AMNE21.JPG,AMSA25.JPG,AMNE25.JPG,AMSA23.JPG,0,4,4,5,,,,,,,,,,,,,,,,,,,,,,,AFNE19.jpg,AFSA05.jpg,AFNE11.jpg,AFSA14.jpg,AFNE11.jpg,FN,3,num_2,32,num_6,1.05012394977,,,2017_Jun_05_1300,60.0011354061,FEMA4ImagesEEG,001,100552,
AMSA21.JPG,AMNE22.JPG,AMNE21.JPG,AMSA23.JPG,AMSA22.JPG,AMNE23.JPG,0,5,5,1,,,,,,,,,,,,,,,,,,,,,,,AFSA12.jpg,AFNE10.jpg,AFSA10.jpg,AFNE17.jpg,AFSA10.jpg,FS,4,num_2,32,num_8,1.08344209078,,,2017_Jun_05_1300,60.0011354061,FEMA4ImagesEEG,001,100552,
AFSA21.JPG,AFNE22.JPG,AFNE21.JPG,AFSA23.JPG,AFSA22.JPG,AFNE23.JPG,0,6,6,0,,,,,,,,,,,,,,,,,,,,,,,AFSA13.jpg,AFNE09.jpg,AFSA02.jpg,AFNE19.jpg,AFSA02.jpg,FS,4,num_2,32,num_4,1.03345060651,,,2017_Jun_05_1300,60.0011354061,FEMA4ImagesEEG,001,100552,
AFNE23.JPG,AFNE24.JPG,AFNE22.JPG,AFSA24.JPG,AFSA22.JPG,AFSA23.JPG,0,7,7,8,,,,,,,,,,,,,,,,,,,,,,,AFSA03.jpg,AFNE09.jpg,AFNE06.jpg,AFSA19.jpg,AFSA19.jpg,FS,4,num_4,32,num_2,1.58311028546,,,2017_Jun_05_1300,60.0011354061,FEMA4ImagesEEG,001,100552,
AFNE22.JPG,AFSA24.JPG,AFSA22.JPG,AFNE25.JPG,AFNE24.JPG,AFSA25.JPG,0,8,8,6,,,,,,,,,,,,,,,,,,,,,,,AFSA08.jpg,AFNE19.jpg,AFNE12.jpg,AFSA19.jpg,AFSA08.jpg,FS,4,num_8,16,num_8,0.966802777955,,,2017_Jun_05_1300,60.0011354061,FEMA4ImagesEEG,001,100552,
AMSA25.JPG,AMNE24.JPG,AMSA24.JPG,AMNE26.JPG,AMSA21.JPG,AMNE25.JPG,0,9,9,3,,,,,,,,,,,,,,,,,,,,,,,AFNE17.jpg,AFSA17.jpg,AFSA05.jpg,AFNE18.jpg,AFNE18.jpg,FN,3,num_4,16,num_4,1.00011225883,,,2017_Jun_05_1300,60.0011354061,FEMA4ImagesEEG,001,100552,
AFSA21.JPG,AFNE22.JPG,AFNE21.JPG,AFSA23.JPG,AFSA22.JPG,AFNE23.JPG,,,,,0,0,0,0,,,,,,,,,,,,,,,,,,,AMSA14.jpg,AMSA08.jpg,AMNE07.jpg,AMNE12.jpg,AMNE07.jpg,MN,1,num_2,32,num_6,1.25007834076,,,2017_Jun_05_1300,60.0011354061,FEMA4ImagesEEG,001,100552,
AMSA21.JPG,AMNE22.JPG,AMNE21.JPG,AMSA23.JPG,AMSA22.JPG,AMNE23.JPG,,,,,0,1,1,1,,,,,,,,,,,,,,,,,,,AMNE16.jpg,AMSA18.jpg,AMSA06.jpg,AMNE10.jpg,AMSA06.jpg,MS,2,num_2,32,num_8,0.483341891784,,,2017_Jun_05_1300,60.0011354061,FEMA4ImagesEEG,001,100552,
AFNE23.JPG,AFNE24.JPG,AFNE22.JPG,AFSA24.JPG,AFSA22.JPG,AFSA23.JPG,,,,,0,2,2,8,,,,,,,,,,,,,,,,,,,AMSA12.jpg,AMSA19.jpg,AMNE03.jpg,AMNE04.jpg,AMSA12.jpg,MS,2,num_8,32,num_2,1.25019252417,,,2017_Jun_05_1300,60.0011354061,FEMA4ImagesEEG,001,100552,
AMNE23.JPG,AMNE24.JPG,AMNE22.JPG,AMSA24.JPG,AMSA22.JPG,AMSA23.JPG,,,,,0,3,3,9,,,,,,,,,,,,,,,,,,,AMSA07.jpg,AMSA16.jpg,AMNE09.jpg,AMNE04.jpg,AMNE09.jpg,MN,1,num_2,32,num_4,1.80002508196,,,2017_Jun_05_1300,60.0011354061,FEMA4ImagesEEG,001,100552,
AFNE22.JPG,AFSA24.JPG,AFSA22.JPG,AFNE25.JPG,AFNE24.JPG,AFSA25.JPG,,,,,0,4,4,6,,,,,,,,,,,,,,,,,,,AMSA16.jpg,AMSA09.jpg,AMNE08.jpg,AMNE13.jpg,AMSA09.jpg,MS,2,num_6,32,num_8,1.20010866667,,,2017_Jun_05_1300,60.0011354061,FEMA4ImagesEEG,001,100552,
AMNE22.JPG,AMSA24.JPG,AMSA22.JPG,AMNE25.JPG,AMNE24.JPG,AMSA25.JPG,,,,,0,5,5,7,,,,,,,,,,,,,,,,,,,AMNE01.jpg,AMNE14.jpg,AMSA20.jpg,AMSA10.jpg,AMSA10.jpg,MS,2,num_4,32,num_6,1.78344058339,,,2017_Jun_05_1300,60.0011354061,FEMA4ImagesEEG,001,100552,
AMSA25.JPG,AMNE24.JPG,AMSA24.JPG,AMNE26.JPG,AMSA21.JPG,AMNE25.JPG,,,,,0,6,6,3,,,,,,,,,,,,,,,,,,,AMNE16.jpg,AMSA02.jpg,AMSA14.jpg,AMNE20.jpg,AMSA14.jpg,MS,2,num_2,16,num_2,1.48343843431,,,2017_Jun_05_1300,60.0011354061,FEMA4ImagesEEG,001,100552,
AFSA25.JPG,AFNE24.JPG,AFSA24.JPG,AFNE21.JPG,AFSA21.JPG,AFNE25.JPG,,,,,0,7,7,2,,,,,,,,,,,,,,,,,,,AMNE13.jpg,AMNE11.jpg,AMSA18.jpg,AMSA07.jpg,AMNE11.jpg,MN,1,num_6,32,num_8,1.21677302918,,,2017_Jun_05_1300,60.0011354061,FEMA4ImagesEEG,001,100552,
AFSA21.JPG,AFNE23.JPG,AFNE21.JPG,AFSA25.JPG,AFNE25.JPG,AFSA23.JPG,,,,,0,8,8,4,,,,,,,,,,,,,,,,,,,AMSA13.jpg,AMSA04.jpg,AMNE20.jpg,AMNE08.jpg,AMSA04.jpg,MS,2,num_6,16,num_6,1.23344797664,,,2017_Jun_05_1300,60.0011354061,FEMA4ImagesEEG,001,100552,
AMSA21.JPG,AMNE23.JPG,AMNE21.JPG,AMSA25.JPG,AMNE25.JPG,AMSA23.JPG,,,,,0,9,9,5,,,,,,,,,,,,,,,,,,,AMNE04.jpg,AMSA13.jpg,AMSA09.jpg,AMNE20.jpg,AMNE20.jpg,MN,1,num_4,16,num_4,1.53347418085,,,2017_Jun_05_1300,60.0011354061,FEMA4ImagesEEG,001,100552,
AMNE23.JPG,AMNE24.JPG,AMNE22.JPG,AMSA24.JPG,AMSA22.JPG,AMSA23.JPG,,,,,,,,,0,0,0,9,,,,,,,,,,,,,,,AFNE16.jpg,AFSA05.jpg,AFSA06.jpg,AFNE01.jpg,AFSA05.jpg,FS,4,num_6,16,num_6,0.750211928971,,,2017_Jun_05_1300,60.0011354061,FEMA4ImagesEEG,001,100552,
AFSA21.JPG,AFNE23.JPG,AFNE21.JPG,AFSA25.JPG,AFNE25.JPG,AFSA23.JPG,,,,,,,,,0,1,1,4,,,,,,,,,,,,,,,AFSA08.jpg,AFNE14.jpg,AFNE11.jpg,AFSA09.jpg,AFSA08.jpg,FS,4,num_8,32,num_2,1.09996821475,,,2017_Jun_05_1300,60.0011354061,FEMA4ImagesEEG,001,100552,
AFSA25.JPG,AFNE24.JPG,AFSA24.JPG,AFNE21.JPG,AFSA21.JPG,AFNE25.JPG,,,,,,,,,0,2,2,2,,,,,,,,,,,,,,,AFNE10.jpg,AFSA05.jpg,AFNE01.jpg,AFSA06.jpg,AFNE01.jpg,FN,3,num_2,32,num_8,1.11680096574,,,2017_Jun_05_1300,60.0011354061,FEMA4ImagesEEG,001,100552,
AFNE23.JPG,AFNE24.JPG,AFNE22.JPG,AFSA24.JPG,AFSA22.JPG,AFSA23.JPG,,,,,,,,,0,3,3,8,,,,,,,,,,,,,,,AFSA18.jpg,AFNE20.jpg,AFSA15.jpg,AFNE16.jpg,AFNE20.jpg,FN,3,num_6,32,num_4,1.01675930177,,,2017_Jun_05_1300,60.0011354061,FEMA4ImagesEEG,001,100552,
AMSA21.JPG,AMNE23.JPG,AMNE21.JPG,AMSA25.JPG,AMNE25.JPG,AMSA23.JPG,,,,,,,,,0,4,4,5,,,,,,,,,,,,,,,AFNE18.jpg,AFSA12.jpg,AFNE15.jpg,AFSA13.jpg,AFSA13.jpg,FS,4,num_4,32,num_2,1.28332046629,,,2017_Jun_05_1300,60.0011354061,FEMA4ImagesEEG,001,100552,
AFNE22.JPG,AFSA24.JPG,AFSA22.JPG,AFNE25.JPG,AFNE24.JPG,AFSA25.JPG,,,,,,,,,0,5,5,6,,,,,,,,,,,,,,,AFNE18.jpg,AFNE04.jpg,AFSA01.jpg,AFSA18.jpg,AFNE04.jpg,FN,3,num_6,32,num_8,0.983467461308,,,2017_Jun_05_1300,60.0011354061,FEMA4ImagesEEG,001,100552,
AMNE22.JPG,AMSA24.JPG,AMSA22.JPG,AMNE25.JPG,AMNE24.JPG,AMSA25.JPG,,,,,,,,,0,6,6,7,,,,,,,,,,,,,,,AFNE15.jpg,AFSA15.jpg,AFNE01.jpg,AFSA08.jpg,AFNE15.jpg,FN,3,num_8,16,num_8,0.933433318743,,,2017_Jun_05_1300,60.0011354061,FEMA4ImagesEEG,001,100552,
AFSA21.JPG,AFNE22.JPG,AFNE21.JPG,AFSA23.JPG,AFSA22.JPG,AFNE23.JPG,,,,,,,,,0,7,7,0,,,,,,,,,,,,,,,AFNE14.jpg,AFSA06.jpg,AFSA18.jpg,AFNE20.jpg,AFNE20.jpg,FN,3,num_4,16,num_4,0.950162149966,,,2017_Jun_05_1300,60.0011354061,FEMA4ImagesEEG,001,100552,
AMSA21.JPG,AMNE22.JPG,AMNE21.JPG,AMSA23.JPG,AMSA22.JPG,AMNE23.JPG,,,,,,,,,0,8,8,1,,,,,,,,,,,,,,,AFSA02.jpg,AFNE10.jpg,AFNE11.jpg,AFSA17.jpg,AFSA17.jpg,FS,4,num_4,32,num_2,2.08311718144,,,2017_Jun_05_1300,60.0011354061,FEMA4ImagesEEG,001,100552,
AMSA25.JPG,AMNE24.JPG,AMSA24.JPG,AMNE26.JPG,AMSA21.JPG,AMNE25.JPG,,,,,,,,,0,9,9,3,,,,,,,,,,,,,,,AFNE16.jpg,AFSA04.jpg,AFNE04.jpg,AFSA08.jpg,AFNE04.jpg,FN,3,num_2,32,num_8,1.18348503811,,,2017_Jun_05_1300,60.0011354061,FEMA4ImagesEEG,001,100552,
AFNE23.JPG,AFNE24.JPG,AFNE22.JPG,AFSA24.JPG,AFSA22.JPG,AFSA23.JPG,,,,,,,,,,,,,0,0,0,8,,,,,,,,,,,AMNE09.jpg,AMSA11.jpg,AMNE18.jpg,AMSA02.jpg,AMNE18.jpg,MN,1,num_2,32,num_4,0.61683993577,,,2017_Jun_05_1300,60.0011354061,FEMA4ImagesEEG,001,100552,
AFSA21.JPG,AFNE23.JPG,AFNE21.JPG,AFSA25.JPG,AFNE25.JPG,AFSA23.JPG,,,,,,,,,,,,,0,1,1,4,,,,,,,,,,,AMSA11.jpg,AMSA05.jpg,AMNE06.jpg,AMNE04.jpg,AMSA11.jpg,MS,2,num_8,32,num_2,1.36669423967,,,2017_Jun_05_1300,60.0011354061,FEMA4ImagesEEG,001,100552,
AMNE23.JPG,AMNE24.JPG,AMNE22.JPG,AMSA24.JPG,AMSA22.JPG,AMSA23.JPG,,,,,,,,,,,,,0,2,2,9,,,,,,,,,,,AMNE20.jpg,AMSA15.jpg,AMNE05.jpg,AMSA14.jpg,AMNE20.jpg,MN,1,num_8,32,num_6,0.650240827585,,,2017_Jun_05_1300,60.0011354061,FEMA4ImagesEEG,001,100552,
AMSA25.JPG,AMNE24.JPG,AMSA24.JPG,AMNE26.JPG,AMSA21.JPG,AMNE25.JPG,,,,,,,,,,,,,0,3,3,3,,,,,,,,,,,AMNE11.jpg,AMNE14.jpg,AMSA20.jpg,AMSA16.jpg,AMSA16.jpg,MS,2,num_4,16,num_4,0.867140869843,,,2017_Jun_05_1300,60.0011354061,FEMA4ImagesEEG,001,100552,
AFSA25.JPG,AFNE24.JPG,AFSA24.JPG,AFNE21.JPG,AFSA21.JPG,AFNE25.JPG,,,,,,,,,,,,,0,4,4,2,,,,,,,,,,,AMNE14.jpg,AMNE11.jpg,AMSA07.jpg,AMSA14.jpg,AMSA07.jpg,MS,2,num_2,32,num_4,1.66672717943,,,2017_Jun_05_1300,60.0011354061,FEMA4ImagesEEG,001,100552,
AFSA21.JPG,AFNE22.JPG,AFNE21.JPG,AFSA23.JPG,AFSA22.JPG,AFNE23.JPG,,,,,,,,,,,,,0,5,5,0,,,,,,,,,,,AMSA08.jpg,AMSA02.jpg,AMNE14.jpg,AMNE20.jpg,AMNE20.jpg,MN,1,num_4,32,num_2,0.566784303403,,,2017_Jun_05_1300,60.0011354061,FEMA4ImagesEEG,001,100552,
AMNE22.JPG,AMSA24.JPG,AMSA22.JPG,AMNE25.JPG,AMNE24.JPG,AMSA25.JPG,,,,,,,,,,,,,0,6,6,7,,,,,,,,,,,AMNE11.jpg,AMSA11.jpg,AMNE05.jpg,AMSA13.jpg,AMNE11.jpg,MN,1,num_8,16,num_8,0.981874346267,,,2017_Jun_05_1300,60.0011354061,FEMA4ImagesEEG,001,100552,
AFNE22.JPG,AFSA24.JPG,AFSA22.JPG,AFNE25.JPG,AFNE24.JPG,AFSA25.JPG,,,,,,,,,,,,,0,7,7,6,,,,,,,,,,,AMNE14.jpg,AMSA10.jpg,AMSA19.jpg,AMNE12.jpg,AMSA19.jpg,MS,2,num_2,32,num_6,1.05010374333,,,2017_Jun_05_1300,60.0011354061,FEMA4ImagesEEG,001,100552,
AMSA21.JPG,AMNE23.JPG,AMNE21.JPG,AMSA25.JPG,AMNE25.JPG,AMSA23.JPG,,,,,,,,,,,,,0,8,8,5,,,,,,,,,,,AMSA19.jpg,AMNE09.jpg,AMSA11.jpg,AMNE15.jpg,AMNE09.jpg,MN,1,num_6,32,num_4,0.900157836033,,,2017_Jun_05_1300,60.0011354061,FEMA4ImagesEEG,001,100552,
AMSA21.JPG,AMNE22.JPG,AMNE21.JPG,AMSA23.JPG,AMSA22.JPG,AMNE23.JPG,,,,,,,,,,,,,0,9,9,1,,,,,,,,,,,AMSA14.jpg,AMNE07.jpg,AMSA06.jpg,AMNE16.jpg,AMSA14.jpg,MS,2,num_8,32,num_2,1.14965916565,,,2017_Jun_05_1300,60.0011354061,FEMA4ImagesEEG,001,100552,
AMNE23.JPG,AMNE24.JPG,AMNE22.JPG,AMSA24.JPG,AMSA22.JPG,AMSA23.JPG,,,,,,,,,,,,,,,,,0,0,0,9,,,,,,,AFSA14.jpg,AFNE04.jpg,AFSA20.jpg,AFNE02.jpg,AFSA20.jpg,FS,4,num_2,16,num_2,0.750166704645,,,2017_Jun_05_1300,60.0011354061,FEMA4ImagesEEG,001,100552,
AMSA25.JPG,AMNE24.JPG,AMSA24.JPG,AMNE26.JPG,AMSA21.JPG,AMNE25.JPG,,,,,,,,,,,,,,,,,0,1,1,3,,,,,,,AFSA07.jpg,AFSA12.jpg,AFNE11.jpg,AFNE07.jpg,AFNE07.jpg,FN,3,num_4,32,num_8,0.616626964416,,,2017_Jun_05_1300,60.0011354061,FEMA4ImagesEEG,001,100552,
AMNE22.JPG,AMSA24.JPG,AMSA22.JPG,AMNE25.JPG,AMNE24.JPG,AMSA25.JPG,,,,,,,,,,,,,,,,,0,2,2,7,,,,,,,AFSA16.jpg,AFSA01.jpg,AFNE14.jpg,AFNE12.jpg,AFSA16.jpg,FS,4,num_8,16,num_8,4.03346568136,,,2017_Jun_05_1300,60.0011354061,FEMA4ImagesEEG,001,100552,
AFSA21.JPG,AFNE22.JPG,AFNE21.JPG,AFSA23.JPG,AFSA22.JPG,AFNE23.JPG,,,,,,,,,,,,,,,,,0,3,3,0,,,,,,,AFSA10.jpg,AFNE03.jpg,AFNE08.jpg,AFSA13.jpg,AFSA10.jpg,FS,4,num_8,32,num_2,1.7500352012,,,2017_Jun_05_1300,60.0011354061,FEMA4ImagesEEG,001,100552,
AFSA21.JPG,AFNE23.JPG,AFNE21.JPG,AFSA25.JPG,AFNE25.JPG,AFSA23.JPG,,,,,,,,,,,,,,,,,0,4,4,4,,,,,,,AFSA01.jpg,AFNE04.jpg,AFSA13.jpg,AFNE07.jpg,AFSA01.jpg,FS,4,num_8,32,num_4,0.550175428623,,,2017_Jun_05_1300,60.0011354061,FEMA4ImagesEEG,001,100552,
AFSA25.JPG,AFNE24.JPG,AFSA24.JPG,AFNE21.JPG,AFSA21.JPG,AFNE25.JPG,,,,,,,,,,,,,,,,,0,5,5,2,,,,,,,AFSA20.jpg,AFNE05.jpg,AFSA14.jpg,AFNE01.jpg,AFSA20.jpg,FS,4,num_8,16,num_8,0.633501411648,,,2017_Jun_05_1300,60.0011354061,FEMA4ImagesEEG,001,100552,
AMSA21.JPG,AMNE23.JPG,AMNE21.JPG,AMSA25.JPG,AMNE25.JPG,AMSA23.JPG,,,,,,,,,,,,,,,,,0,6,6,5,,,,,,,AFSA03.jpg,AFNE03.jpg,AFSA13.jpg,AFNE20.jpg,AFNE03.jpg,FN,3,num_6,32,num_8,1.05010213959,,,2017_Jun_05_1300,60.0011354061,FEMA4ImagesEEG,001,100552,
AFNE22.JPG,AFSA24.JPG,AFSA22.JPG,AFNE25.JPG,AFNE24.JPG,AFSA25.JPG,,,,,,,,,,,,,,,,,0,7,7,6,,,,,,,AFSA11.jpg,AFNE10.jpg,AFSA18.jpg,AFNE09.jpg,AFNE10.jpg,FN,3,num_6,16,num_6,0.950152207166,,,2017_Jun_05_1300,60.0011354061,FEMA4ImagesEEG,001,100552,
AFNE23.JPG,AFNE24.JPG,AFNE22.JPG,AFSA24.JPG,AFSA22.JPG,AFSA23.JPG,,,,,,,,,,,,,,,,,0,8,8,8,,,,,,,AFNE02.jpg,AFSA01.jpg,AFSA10.jpg,AFNE13.jpg,AFSA10.jpg,FS,4,num_2,32,num_4,1.73340002564,,,2017_Jun_05_1300,60.0011354061,FEMA4ImagesEEG,001,100552,
AMSA21.JPG,AMNE22.JPG,AMNE21.JPG,AMSA23.JPG,AMSA22.JPG,AMNE23.JPG,,,,,,,,,,,,,,,,,0,9,9,1,,,,,,,AFSA07.jpg,AFNE10.jpg,AFSA13.jpg,AFNE04.jpg,AFSA13.jpg,FS,4,num_2,32,num_8,0.433491532924,,,2017_Jun_05_1300,60.0011354061,FEMA4ImagesEEG,001,100552,
AFNE23.JPG,AFNE24.JPG,AFNE22.JPG,AFSA24.JPG,AFSA22.JPG,AFSA23.JPG,,,,,,,,,,,,,,,,,,,,,0,0,0,8,,,AMNE10.jpg,AMSA18.jpg,AMSA17.jpg,AMNE04.jpg,AMNE04.jpg,MN,1,num_4,16,num_4,0.766764674103,,,2017_Jun_05_1300,60.0011354061,FEMA4ImagesEEG,001,100552,
AFSA21.JPG,AFNE23.JPG,AFNE21.JPG,AFSA25.JPG,AFNE25.JPG,AFSA23.JPG,,,,,,,,,,,,,,,,,,,,,0,1,1,4,,,AMSA03.jpg,AMSA09.jpg,AMNE16.jpg,AMNE02.jpg,AMNE02.jpg,MN,1,num_4,32,num_2,0.933415678097,,,2017_Jun_05_1300,60.0011354061,FEMA4ImagesEEG,001,100552,
AFSA21.JPG,AFNE22.JPG,AFNE21.JPG,AFSA23.JPG,AFSA22.JPG,AFNE23.JPG,,,,,,,,,,,,,,,,,,,,,0,2,2,0,,,AMSA17.jpg,AMNE12.jpg,AMSA11.jpg,AMNE11.jpg,AMSA17.jpg,MS,2,num_8,32,num_6,0.833454840351,,,2017_Jun_05_1300,60.0011354061,FEMA4ImagesEEG,001,100552,
AMSA21.JPG,AMNE23.JPG,AMNE21.JPG,AMSA25.JPG,AMNE25.JPG,AMSA23.JPG,,,,,,,,,,,,,,,,,,,,,0,3,3,5,,,AMNE15.jpg,AMSA11.jpg,AMSA15.jpg,AMNE03.jpg,AMNE15.jpg,MN,1,num_8,16,num_8,0.616798880976,,,2017_Jun_05_1300,60.0011354061,FEMA4ImagesEEG,001,100552,
AFSA25.JPG,AFNE24.JPG,AFSA24.JPG,AFNE21.JPG,AFSA21.JPG,AFNE25.JPG,,,,,,,,,,,,,,,,,,,,,0,4,4,2,,,AMSA03.jpg,AMNE10.jpg,AMSA08.jpg,AMNE05.jpg,AMNE05.jpg,MN,1,num_4,32,num_6,0.883475191193,,,2017_Jun_05_1300,60.0011354061,FEMA4ImagesEEG,001,100552,
AMSA21.JPG,AMNE22.JPG,AMNE21.JPG,AMSA23.JPG,AMSA22.JPG,AMNE23.JPG,,,,,,,,,,,,,,,,,,,,,0,5,5,1,,,AMNE07.jpg,AMSA05.jpg,AMSA07.jpg,AMNE01.jpg,AMSA07.jpg,MS,2,num_2,32,num_6,1.15014636959,,,2017_Jun_05_1300,60.0011354061,FEMA4ImagesEEG,001,100552,
AMSA25.JPG,AMNE24.JPG,AMSA24.JPG,AMNE26.JPG,AMSA21.JPG,AMNE25.JPG,,,,,,,,,,,,,,,,,,,,,0,6,6,3,,,AMNE03.jpg,AMSA03.jpg,AMSA05.jpg,AMNE15.jpg,AMSA03.jpg,MS,2,num_6,32,num_4,0.466814164305,,,2017_Jun_05_1300,60.0011354061,FEMA4ImagesEEG,001,100552,
AMNE23.JPG,AMNE24.JPG,AMNE22.JPG,AMSA24.JPG,AMSA22.JPG,AMSA23.JPG,,,,,,,,,,,,,,,,,,,,,0,7,7,9,,,AMSA19.jpg,AMNE11.jpg,AMSA13.jpg,AMNE07.jpg,AMNE07.jpg,MN,1,num_4,32,num_2,1.96668378357,,,2017_Jun_05_1300,60.0011354061,FEMA4ImagesEEG,001,100552,
AFNE22.JPG,AFSA24.JPG,AFSA22.JPG,AFNE25.JPG,AFNE24.JPG,AFSA25.JPG,,,,,,,,,,,,,,,,,,,,,0,8,8,6,,,AMSA14.jpg,AMNE06.jpg,AMSA19.jpg,AMNE12.jpg,AMSA14.jpg,MS,2,num_8,16,num_8,0.683492575539,,,2017_Jun_05_1300,60.0011354061,FEMA4ImagesEEG,001,100552,
AMNE22.JPG,AMSA24.JPG,AMSA22.JPG,AMNE25.JPG,AMNE24.JPG,AMSA25.JPG,,,,,,,,,,,,,,,,,,,,,0,9,9,7,,,AMSA14.jpg,AMSA07.jpg,AMNE15.jpg,AMNE06.jpg,AMSA07.jpg,MS,2,num_6,16,num_6,0.733418307966,,,2017_Jun_05_1300,60.0011354061,FEMA4ImagesEEG,001,100552,
,,,,,,,,,,,,,,,,,,,,,,,,,,,,,,,,,,,,,,,,,,,space,13.4321482743,2017_Jun_05_1300,60.0011354061,FEMA4ImagesEEG,001,100552,
AFNE01.JPG,AFNE01.JPG,AFNE01.JPG,AFNE01.JPG,AFNE01.JPG,AFNE01.JPG,0,0,0,7,,,,,,,,,,,,,,,,,,,,,,,AFSA11.jpg,AFNE09.jpg,AFNE13.jpg,AFSA13.jpg,AFSA13.jpg,FS,4,num_4,32,num_8,0.766824652441,,,2017_Jun_05_1300,60.0011354061,FEMA4ImagesEEG,001,100552,
AFNE01.JPG,AFNE01.JPG,AFNE01.JPG,AFNE01.JPG,AFNE01.JPG,AFNE01.JPG,0,1,1,0,,,,,,,,,,,,,,,,,,,,,,,AFNE13.jpg,AFNE10.jpg,AFSA10.jpg,AFSA15.jpg,AFNE10.jpg,FN,3,num_6,16,num_6,0.800132208969,,,2017_Jun_05_1300,60.0011354061,FEMA4ImagesEEG,001,100552,
AFNE01.JPG,AFNE01.JPG,AFNE01.JPG,AFNE01.JPG,AFNE01.JPG,AFNE01.JPG,0,2,2,8,,,,,,,,,,,,,,,,,,,,,,,AFSA03.jpg,AFNE18.jpg,AFNE06.jpg,AFSA14.jpg,AFNE06.jpg,FN,3,num_2,32,num_8,0.9001607229,,,2017_Jun_05_1300,60.0011354061,FEMA4ImagesEEG,001,100552,
AFNE01.JPG,AFNE01.JPG,AFNE01.JPG,AFNE01.JPG,AFNE01.JPG,AFNE01.JPG,0,3,3,5,,,,,,,,,,,,,,,,,,,,,,,AFNE04.jpg,AFSA11.jpg,AFSA05.jpg,AFNE11.jpg,AFNE11.jpg,FN,3,num_4,16,num_4,0.450175781501,,,2017_Jun_05_1300,60.0011354061,FEMA4ImagesEEG,001,100552,
AFNE01.JPG,AFNE01.JPG,AFNE01.JPG,AFNE01.JPG,AFNE01.JPG,AFNE01.JPG,0,4,4,4,,,,,,,,,,,,,,,,,,,,,,,AFSA16.jpg,AFNE19.jpg,AFNE03.jpg,AFSA09.jpg,AFNE03.jpg,FN,3,num_2,16,num_2,0.800204696367,,,2017_Jun_05_1300,60.0011354061,FEMA4ImagesEEG,001,100552,
AFNE01.JPG,AFNE01.JPG,AFNE01.JPG,AFNE01.JPG,AFNE01.JPG,AFNE01.JPG,0,5,5,9,,,,,,,,,,,,,,,,,,,,,,,AFSA15.jpg,AFNE09.jpg,AFSA14.jpg,AFNE11.jpg,AFSA14.jpg,FS,4,num_2,32,num_6,0.983470027335,,,2017_Jun_05_1300,60.0011354061,FEMA4ImagesEEG,001,100552,
AFNE01.JPG,AFNE01.JPG,AFNE01.JPG,AFNE01.JPG,AFNE01.JPG,AFNE01.JPG,0,6,6,1,,,,,,,,,,,,,,,,,,,,,,,AFSA19.jpg,AFNE07.jpg,AFNE01.jpg,AFSA07.jpg,AFNE01.jpg,FN,3,num_2,32,num_8,0.966832927428,,,2017_Jun_05_1300,60.0011354061,FEMA4ImagesEEG,001,100552,
AFNE01.JPG,AFNE01.JPG,AFNE01.JPG,AFNE01.JPG,AFNE01.JPG,AFNE01.JPG,0,7,7,6,,,,,,,,,,,,,,,,,,,,,,,AFNE12.jpg,AFSA18.jpg,AFNE17.jpg,AFSA19.jpg,AFNE17.jpg,FN,3,num_2,16,num_2,0.950114359846,,,2017_Jun_05_1300,60.0011354061,FEMA4ImagesEEG,001,100552,
AFNE01.JPG,AFNE01.JPG,AFNE01.JPG,AFNE01.JPG,AFNE01.JPG,AFNE01.JPG,0,8,8,3,,,,,,,,,,,,,,,,,,,,,,,AFSA06.jpg,AFSA10.jpg,AFNE17.jpg,AFNE09.jpg,AFSA10.jpg,FS,4,num_6,16,num_6,0.533499198733,,,2017_Jun_05_1300,60.0011354061,FEMA4ImagesEEG,001,100552,
AFNE01.JPG,AFNE01.JPG,AFNE01.JPG,AFNE01.JPG,AFNE01.JPG,AFNE01.JPG,0,9,9,2,,,,,,,,,,,,,,,,,,,,,,,AFNE19.jpg,AFSA02.jpg,AFSA07.jpg,AFNE14.jpg,AFNE14.jpg,FN,3,num_4,16,num_4,0.900114857126,,,2017_Jun_05_1300,60.0011354061,FEMA4ImagesEEG,001,100552,
AFNE01.JPG,AFNE01.JPG,AFNE01.JPG,AFNE01.JPG,AFNE01.JPG,AFNE01.JPG,1,0,10,8,,,,,,,,,,,,,,,,,,,,,,,AFSA06.jpg,AFNE06.jpg,AFNE05.jpg,AFSA10.jpg,AFSA10.jpg,FS,4,num_4,32,num_8,1.03342173994,,,2017_Jun_05_1300,60.0011354061,FEMA4ImagesEEG,001,100552,
AFNE01.JPG,AFNE01.JPG,AFNE01.JPG,AFNE01.JPG,AFNE01.JPG,AFNE01.JPG,1,1,11,5,,,,,,,,,,,,,,,,,,,,,,,AFNE01.jpg,AFSA04.jpg,AFNE16.jpg,AFSA10.jpg,AFSA04.jpg,FS,4,num_6,32,num_2,1.15013161558,,,2017_Jun_05_1300,60.0011354061,FEMA4ImagesEEG,001,100552,
AFNE01.JPG,AFNE01.JPG,AFNE01.JPG,AFNE01.JPG,AFNE01.JPG,AFNE01.JPG,1,2,12,1,,,,,,,,,,,,,,,,,,,,,,,AFNE11.jpg,AFNE01.jpg,AFSA05.jpg,AFSA03.jpg,AFNE11.jpg,FN,3,num_8,16,num_8,1.26674559014,,,2017_Jun_05_1300,60.0011354061,FEMA4ImagesEEG,001,100552,
AFNE01.JPG,AFNE01.JPG,AFNE01.JPG,AFNE01.JPG,AFNE01.JPG,AFNE01.JPG,1,3,13,7,,,,,,,,,,,,,,,,,,,,,,,AFSA10.jpg,AFSA09.jpg,AFNE08.jpg,AFNE05.jpg,AFSA10.jpg,FS,4,num_8,32,num_6,0.700148919597,,,2017_Jun_05_1300,60.0011354061,FEMA4ImagesEEG,001,100552,
AFNE01.JPG,AFNE01.JPG,AFNE01.JPG,AFNE01.JPG,AFNE01.JPG,AFNE01.JPG,1,4,14,9,,,,,,,,,,,,,,,,,,,,,,,AFNE10.jpg,AFSA14.jpg,AFNE11.jpg,AFSA18.jpg,AFNE11.jpg,FN,3,num_2,32,num_4,0.63352225977,,,2017_Jun_05_1300,60.0011354061,FEMA4ImagesEEG,001,100552,
AFNE01.JPG,AFNE01.JPG,AFNE01.JPG,AFNE01.JPG,AFNE01.JPG,AFNE01.JPG,1,5,15,6,,,,,,,,,,,,,,,,,,,,,,,AFNE04.jpg,AFNE07.jpg,AFSA03.jpg,AFSA04.jpg,AFNE04.jpg,FN,3,num_8,16,num_8,1.06680146279,,,2017_Jun_05_1300,60.0011354061,FEMA4ImagesEEG,001,100552,
AFNE01.JPG,AFNE01.JPG,AFNE01.JPG,AFNE01.JPG,AFNE01.JPG,AFNE01.JPG,1,6,16,2,,,,,,,,,,,,,,,,,,,,,,,AFNE04.jpg,AFSA08.jpg,AFNE18.jpg,AFSA05.jpg,AFSA05.jpg,FS,4,num_4,32,num_2,0.833511932055,,,2017_Jun_05_1300,60.0011354061,FEMA4ImagesEEG,001,100552,
AFNE01.JPG,AFNE01.JPG,AFNE01.JPG,AFNE01.JPG,AFNE01.JPG,AFNE01.JPG,1,7,17,0,,,,,,,,,,,,,,,,,,,,,,,AFSA15.jpg,AFNE06.jpg,AFSA12.jpg,AFNE18.jpg,AFNE06.jpg,FN,3,num_6,32,num_2,0.750145535683,,,2017_Jun_05_1300,60.0011354061,FEMA4ImagesEEG,001,100552,
AFNE01.JPG,AFNE01.JPG,AFNE01.JPG,AFNE01.JPG,AFNE01.JPG,AFNE01.JPG,1,8,18,4,,,,,,,,,,,,,,,,,,,,,,,AFSA02.jpg,AFSA03.jpg,AFNE02.jpg,AFNE19.jpg,AFNE19.jpg,FN,3,num_4,16,num_4,1.16673086793,,,2017_Jun_05_1300,60.0011354061,FEMA4ImagesEEG,001,100552,
AFNE01.JPG,AFNE01.JPG,AFNE01.JPG,AFNE01.JPG,AFNE01.JPG,AFNE01.JPG,1,9,19,3,,,,,,,,,,,,,,,,,,,,,,,AFNE10.jpg,AFNE15.jpg,AFSA07.jpg,AFSA17.jpg,AFNE10.jpg,FN,3,num_8,32,num_6,0.400128167821,,,2017_Jun_05_1300,60.0011354061,FEMA4ImagesEEG,001,100552,
AFNE01.JPG,AFNE01.JPG,AFNE01.JPG,AFNE01.JPG,AFNE01.JPG,AFNE01.JPG,2,0,20,2,,,,,,,,,,,,,,,,,,,,,,,AFNE15.jpg,AFSA14.jpg,AFNE05.jpg,AFSA13.jpg,AFSA13.jpg,FS,4,num_4,32,num_8,1.38349299226,,,2017_Jun_05_1300,60.0011354061,FEMA4ImagesEEG,001,100552,
AFNE01.JPG,AFNE01.JPG,AFNE01.JPG,AFNE01.JPG,AFNE01.JPG,AFNE01.JPG,2,1,21,5,,,,,,,,,,,,,,,,,,,,,,,AFNE01.jpg,AFSA10.jpg,AFSA13.jpg,AFNE19.jpg,AFNE01.jpg,FN,3,num_8,32,num_4,1.48344998132,,,2017_Jun_05_1300,60.0011354061,FEMA4ImagesEEG,001,100552,
AFNE01.JPG,AFNE01.JPG,AFNE01.JPG,AFNE01.JPG,AFNE01.JPG,AFNE01.JPG,2,2,22,3,,,,,,,,,,,,,,,,,,,,,,,AFSA01.jpg,AFSA06.jpg,AFNE05.jpg,AFNE17.jpg,AFSA06.jpg,FS,4,num_6,32,num_2,1.23348999349,,,2017_Jun_05_1300,60.0011354061,FEMA4ImagesEEG,001,100552,
AFNE01.JPG,AFNE01.JPG,AFNE01.JPG,AFNE01.JPG,AFNE01.JPG,AFNE01.JPG,2,3,23,1,,,,,,,,,,,,,,,,,,,,,,,AFNE13.jpg,AFSA03.jpg,AFNE15.jpg,AFSA04.jpg,AFNE13.jpg,FN,3,num_8,32,num_6,1.60042125988,,,2017_Jun_05_1300,60.0011354061,FEMA4ImagesEEG,001,100552,
AFNE01.JPG,AFNE01.JPG,AFNE01.JPG,AFNE01.JPG,AFNE01.JPG,AFNE01.JPG,2,4,24,4,,,,,,,,,,,,,,,,,,,,,,,AFNE08.jpg,AFNE07.jpg,AFSA10.jpg,AFSA03.jpg,AFNE07.jpg,FN,3,num_6,32,num_8,0.900169703411,,,2017_Jun_05_1300,60.0011354061,FEMA4ImagesEEG,001,100552,
AFNE01.JPG,AFNE01.JPG,AFNE01.JPG,AFNE01.JPG,AFNE01.JPG,AFNE01.JPG,2,5,25,9,,,,,,,,,,,,,,,,,,,,,,,AFNE10.jpg,AFSA17.jpg,AFSA18.jpg,AFNE20.jpg,AFSA17.jpg,FS,4,num_6,32,num_2,1.00011450402,,,2017_Jun_05_1300,60.0011354061,FEMA4ImagesEEG,001,100552,
AFNE01.JPG,AFNE01.JPG,AFNE01.JPG,AFNE01.JPG,AFNE01.JPG,AFNE01.JPG,2,6,26,8,,,,,,,,,,,,,,,,,,,,,,,AFSA04.jpg,AFNE14.jpg,AFSA08.jpg,AFNE09.jpg,AFNE09.jpg,FN,3,num_4,16,num_4,0.633537976071,,,2017_Jun_05_1300,60.0011354061,FEMA4ImagesEEG,001,100552,
AFNE01.JPG,AFNE01.JPG,AFNE01.JPG,AFNE01.JPG,AFNE01.JPG,AFNE01.JPG,2,7,27,6,,,,,,,,,,,,,,,,,,,,,,,AFSA10.jpg,AFSA19.jpg,AFNE20.jpg,AFNE01.jpg,AFNE20.jpg,FN,3,num_2,16,num_2,0.750175685389,,,2017_Jun_05_1300,60.0011354061,FEMA4ImagesEEG,001,100552,
AFNE01.JPG,AFNE01.JPG,AFNE01.JPG,AFNE01.JPG,AFNE01.JPG,AFNE01.JPG,2,8,28,0,,,,,,,,,,,,,,,,,,,,,,,AFNE11.jpg,AFSA05.jpg,AFNE16.jpg,AFSA12.jpg,AFSA12.jpg,FS,4,num_4,16,num_4,1.16670777486,,,2017_Jun_05_1300,60.0011354061,FEMA4ImagesEEG,001,100552,
AFNE01.JPG,AFNE01.JPG,AFNE01.JPG,AFNE01.JPG,AFNE01.JPG,AFNE01.JPG,2,9,29,7,,,,,,,,,,,,,,,,,,,,,,,AFNE19.jpg,AFSA19.jpg,AFNE10.jpg,AFSA05.jpg,AFSA05.jpg,FS,4,num_4,16,num_4,0.666817628313,,,2017_Jun_05_1300,60.0011354061,FEMA4ImagesEEG,001,100552,
AFNE01.JPG,AFNE01.JPG,AFNE01.JPG,AFNE01.JPG,AFNE01.JPG,AFNE01.JPG,3,0,30,8,,,,,,,,,,,,,,,,,,,,,,,AFSA06.jpg,AFNE04.jpg,AFSA02.jpg,AFNE11.jpg,AFSA06.jpg,FS,4,num_8,16,num_8,2.11663193582,,,2017_Jun_05_1300,60.0011354061,FEMA4ImagesEEG,001,100552,
AFNE01.JPG,AFNE01.JPG,AFNE01.JPG,AFNE01.JPG,AFNE01.JPG,AFNE01.JPG,3,1,31,7,,,,,,,,,,,,,,,,,,,,,,,AFNE05.jpg,AFNE17.jpg,AFSA05.jpg,AFSA13.jpg,AFSA05.jpg,FS,4,num_2,16,num_2,1.09980014688,,,2017_Jun_05_1300,60.0011354061,FEMA4ImagesEEG,001,100552,
AFNE01.JPG,AFNE01.JPG,AFNE01.JPG,AFNE01.JPG,AFNE01.JPG,AFNE01.JPG,3,2,32,2,,,,,,,,,,,,,,,,,,,,,,,AFNE19.jpg,AFSA12.jpg,AFNE20.jpg,AFSA06.jpg,AFSA06.jpg,FS,4,num_4,16,num_4,0.966777439695,,,2017_Jun_05_1300,60.0011354061,FEMA4ImagesEEG,001,100552,
AFNE01.JPG,AFNE01.JPG,AFNE01.JPG,AFNE01.JPG,AFNE01.JPG,AFNE01.JPG,3,3,33,9,,,,,,,,,,,,,,,,,,,,,,,AFSA20.jpg,AFNE08.jpg,AFSA06.jpg,AFNE20.jpg,AFNE20.jpg,FN,3,num_4,32,num_6,1.18346290686,,,2017_Jun_05_1300,60.0011354061,FEMA4ImagesEEG,001,100552,
AFNE01.JPG,AFNE01.JPG,AFNE01.JPG,AFNE01.JPG,AFNE01.JPG,AFNE01.JPG,3,4,34,3,,,,,,,,,,,,,,,,,,,,,,,AFNE02.jpg,AFSA04.jpg,AFNE06.jpg,AFSA18.jpg,AFSA04.jpg,FS,4,num_6,32,num_2,1.10006251209,,,2017_Jun_05_1300,60.0011354061,FEMA4ImagesEEG,001,100552,
AFNE01.JPG,AFNE01.JPG,AFNE01.JPG,AFNE01.JPG,AFNE01.JPG,AFNE01.JPG,3,5,35,0,,,,,,,,,,,,,,,,,,,,,,,AFSA18.jpg,AFNE13.jpg,AFNE14.jpg,AFSA11.jpg,AFSA18.jpg,FS,4,num_8,32,num_4,1.15006041131,,,2017_Jun_05_1300,60.0011354061,FEMA4ImagesEEG,001,100552,
AFNE01.JPG,AFNE01.JPG,AFNE01.JPG,AFNE01.JPG,AFNE01.JPG,AFNE01.JPG,3,6,36,1,,,,,,,,,,,,,,,,,,,,,,,AFSA20.jpg,AFNE02.jpg,AFNE05.jpg,AFSA08.jpg,AFSA20.jpg,FS,4,num_8,16,num_8,0.450145311188,,,2017_Jun_05_1300,60.0011354061,FEMA4ImagesEEG,001,100552,
AFNE01.JPG,AFNE01.JPG,AFNE01.JPG,AFNE01.JPG,AFNE01.JPG,AFNE01.JPG,3,7,37,6,,,,,,,,,,,,,,,,,,,,,,,AFSA03.jpg,AFNE08.jpg,AFSA09.jpg,AFNE06.jpg,AFNE06.jpg,FN,3,num_4,32,num_6,0.950140339788,,,2017_Jun_05_1300,60.0011354061,FEMA4ImagesEEG,001,100552,
AFNE01.JPG,AFNE01.JPG,AFNE01.JPG,AFNE01.JPG,AFNE01.JPG,AFNE01.JPG,3,8,38,4,,,,,,,,,,,,,,,,,,,,,,,AFSA20.jpg,AFNE10.jpg,AFNE06.jpg,AFSA08.jpg,AFSA20.jpg,FS,4,num_8,32,num_2,1.53339207149,,,2017_Jun_05_1300,60.0011354061,FEMA4ImagesEEG,001,100552,
AFNE01.JPG,AFNE01.JPG,AFNE01.JPG,AFNE01.JPG,AFNE01.JPG,AFNE01.JPG,3,9,39,5,,,,,,,,,,,,,,,,,,,,,,,AFNE10.jpg,AFSA09.jpg,AFNE03.jpg,AFSA11.jpg,AFNE03.jpg,FN,3,num_2,32,num_4,1.35009242129,,,2017_Jun_05_1300,60.0011354061,FEMA4ImagesEEG,001,100552,
AFNE01.JPG,AFNE01.JPG,AFNE01.JPG,AFNE01.JPG,AFNE01.JPG,AFNE01.JPG,4,0,40,7,,,,,,,,,,,,,,,,,,,,,,,AFNE13.jpg,AFSA18.jpg,AFSA08.jpg,AFNE04.jpg,AFSA08.jpg,FS,4,num_2,32,num_8,0.883441834245,,,2017_Jun_05_1300,60.0011354061,FEMA4ImagesEEG,001,100552,
AFNE01.JPG,AFNE01.JPG,AFNE01.JPG,AFNE01.JPG,AFNE01.JPG,AFNE01.JPG,4,1,41,2,,,,,,,,,,,,,,,,,,,,,,,AFSA15.jpg,AFNE18.jpg,AFSA17.jpg,AFNE06.jpg,AFNE06.jpg,FN,3,num_4,32,num_2,2.30000086594,,,2017_Jun_05_1300,60.0011354061,FEMA4ImagesEEG,001,100552,
AFNE01.JPG,AFNE01.JPG,AFNE01.JPG,AFNE01.JPG,AFNE01.JPG,AFNE01.JPG,4,2,42,1,,,,,,,,,,,,,,,,,,,,,,,AFNE05.jpg,AFNE17.jpg,AFSA10.jpg,AFSA04.jpg,AFNE17.jpg,FN,3,num_6,16,num_6,0.666784592206,,,2017_Jun_05_1300,60.0011354061,FEMA4ImagesEEG,001,100552,
AFNE01.JPG,AFNE01.JPG,AFNE01.JPG,AFNE01.JPG,AFNE01.JPG,AFNE01.JPG,4,3,43,0,,,,,,,,,,,,,,,,,,,,,,,AFNE02.jpg,AFNE14.jpg,AFSA01.jpg,AFSA02.jpg,AFSA01.jpg,FS,4,num_2,32,num_4,0.76680284203,,,2017_Jun_05_1300,60.0011354061,FEMA4ImagesEEG,001,100552,
AFNE01.JPG,AFNE01.JPG,AFNE01.JPG,AFNE01.JPG,AFNE01.JPG,AFNE01.JPG,4,4,44,3,,,,,,,,,,,,,,,,,,,,,,,AFNE09.jpg,AFNE02.jpg,AFSA20.jpg,AFSA12.jpg,AFNE02.jpg,FN,3,num_6,32,num_8,0.616848274833,,,2017_Jun_05_1300,60.0011354061,FEMA4ImagesEEG,001,100552,
AFNE01.JPG,AFNE01.JPG,AFNE01.JPG,AFNE01.JPG,AFNE01.JPG,AFNE01.JPG,4,5,45,5,,,,,,,,,,,,,,,,,,,,,,,AFNE13.jpg,AFSA14.jpg,AFSA08.jpg,AFNE15.jpg,AFNE13.jpg,FN,3,num_8,32,num_2,1.18350556516,,,2017_Jun_05_1300,60.0011354061,FEMA4ImagesEEG,001,100552,
AFNE01.JPG,AFNE01.JPG,AFNE01.JPG,AFNE01.JPG,AFNE01.JPG,AFNE01.JPG,4,6,46,9,,,,,,,,,,,,,,,,,,,,,,,AFNE13.jpg,AFNE06.jpg,AFSA04.jpg,AFSA09.jpg,AFSA04.jpg,FS,4,num_2,32,num_8,0.416805039393,,,2017_Jun_05_1300,60.0011354061,FEMA4ImagesEEG,001,100552,
AFNE01.JPG,AFNE01.JPG,AFNE01.JPG,AFNE01.JPG,AFNE01.JPG,AFNE01.JPG,4,7,47,4,,,,,,,,,,,,,,,,,,,,,,,AFSA13.jpg,AFNE13.jpg,AFNE07.jpg,AFSA11.jpg,AFSA13.jpg,FS,4,num_8,32,num_6,1.00007793959,,,2017_Jun_05_1300,60.0011354061,FEMA4ImagesEEG,001,100552,
AFNE01.JPG,AFNE01.JPG,AFNE01.JPG,AFNE01.JPG,AFNE01.JPG,AFNE01.JPG,4,8,48,6,,,,,,,,,,,,,,,,,,,,,,,AFSA10.jpg,AFNE13.jpg,AFNE16.jpg,AFSA17.jpg,AFNE16.jpg,FN,3,num_2,32,num_4,0.566790397279,,,2017_Jun_05_1300,60.0011354061,FEMA4ImagesEEG,001,100552,
AFNE01.JPG,AFNE01.JPG,AFNE01.JPG,AFNE01.JPG,AFNE01.JPG,AFNE01.JPG,4,9,49,8,,,,,,,,,,,,,,,,,,,,,,,AFNE16.jpg,AFSA19.jpg,AFNE01.jpg,AFSA02.jpg,AFNE16.jpg,FN,3,num_8,32,num_2,1.13350894907,,,2017_Jun_05_1300,60.0011354061,FEMA4ImagesEEG,001,100552,
AFNE01.JPG,AFNE01.JPG,AFNE01.JPG,AFNE01.JPG,AFNE01.JPG,AFNE01.JPG,5,0,50,3,,,,,,,,,,,,,,,,,,,,,,,AFNE17.jpg,AFSA20.jpg,AFNE01.jpg,AFSA18.jpg,AFSA18.jpg,FS,4,num_4,32,num_8,0.616801447002,,,2017_Jun_05_1300,60.0011354061,FEMA4ImagesEEG,001,100552,
AFNE01.JPG,AFNE01.JPG,AFNE01.JPG,AFNE01.JPG,AFNE01.JPG,AFNE01.JPG,5,1,51,0,,,,,,,,,,,,,,,,,,,,,,,AFNE20.jpg,AFSA12.jpg,AFNE15.jpg,AFSA05.jpg,AFSA12.jpg,FS,4,num_6,16,num_6,0.700197030557,,,2017_Jun_05_1300,60.0011354061,FEMA4ImagesEEG,001,100552,
AFNE01.JPG,AFNE01.JPG,AFNE01.JPG,AFNE01.JPG,AFNE01.JPG,AFNE01.JPG,5,2,52,1,,,,,,,,,,,,,,,,,,,,,,,AFNE13.jpg,AFSA10.jpg,AFSA07.jpg,AFNE14.jpg,AFSA07.jpg,FS,4,num_2,16,num_2,1.36673176638,,,2017_Jun_05_1300,60.0011354061,FEMA4ImagesEEG,001,100552,
AFNE01.JPG,AFNE01.JPG,AFNE01.JPG,AFNE01.JPG,AFNE01.JPG,AFNE01.JPG,5,3,53,9,,,,,,,,,,,,,,,,,,,,,,,AFSA18.jpg,AFNE05.jpg,AFNE11.jpg,AFSA03.jpg,AFNE05.jpg,FN,3,num_6,32,num_4,1.26672281744,,,2017_Jun_05_1300,60.0011354061,FEMA4ImagesEEG,001,100552,
AFNE01.JPG,AFNE01.JPG,AFNE01.JPG,AFNE01.JPG,AFNE01.JPG,AFNE01.JPG,5,4,54,7,,,,,,,,,,,,,,,,,,,,,,,AFSA05.jpg,AFNE03.jpg,AFSA20.jpg,AFNE14.jpg,AFSA05.jpg,FS,4,num_8,16,num_8,0.950113718398,,,2017_Jun_05_1300,60.0011354061,FEMA4ImagesEEG,001,100552,
AFNE01.JPG,AFNE01.JPG,AFNE01.JPG,AFNE01.JPG,AFNE01.JPG,AFNE01.JPG,5,5,55,2,,,,,,,,,,,,,,,,,,,,,,,AFSA18.jpg,AFNE14.jpg,AFNE13.jpg,AFSA20.jpg,AFNE13.jpg,FN,3,num_2,32,num_6,1.43348030699,,,2017_Jun_05_1300,60.0011354061,FEMA4ImagesEEG,001,100552,
AFNE01.JPG,AFNE01.JPG,AFNE01.JPG,AFNE01.JPG,AFNE01.JPG,AFNE01.JPG,5,6,56,5,,,,,,,,,,,,,,,,,,,,,,,AFNE07.jpg,AFSA05.jpg,AFNE19.jpg,AFSA09.jpg,AFNE19.jpg,FN,3,num_2,16,num_2,0.799972480629,,,2017_Jun_05_1300,60.0011354061,FEMA4ImagesEEG,001,100552,
AFNE01.JPG,AFNE01.JPG,AFNE01.JPG,AFNE01.JPG,AFNE01.JPG,AFNE01.JPG,5,7,57,4,,,,,,,,,,,,,,,,,,,,,,,AFSA08.jpg,AFSA07.jpg,AFNE01.jpg,AFNE17.jpg,AFSA08.jpg,FS,4,num_8,16,num_8,1.06675367267,,,2017_Jun_05_1300,60.0011354061,FEMA4ImagesEEG,001,100552,
AFNE01.JPG,AFNE01.JPG,AFNE01.JPG,AFNE01.JPG,AFNE01.JPG,AFNE01.JPG,5,8,58,6,,,,,,,,,,,,,,,,,,,,,,,AFSA09.jpg,AFSA12.jpg,AFNE12.jpg,AFNE10.jpg,AFSA12.jpg,FS,4,num_6,16,num_6,0.833464141702,,,2017_Jun_05_1300,60.0011354061,FEMA4ImagesEEG,001,100552,
AFNE01.JPG,AFNE01.JPG,AFNE01.JPG,AFNE01.JPG,AFNE01.JPG,AFNE01.JPG,5,9,59,8,,,,,,,,,,,,,,,,,,,,,,,AFSA09.jpg,AFNE03.jpg,AFNE17.jpg,AFSA20.jpg,AFSA20.jpg,FS,4,num_4,32,num_2,1.30009099399,,,2017_Jun_05_1300,60.0011354061,FEMA4ImagesEEG,001,100552,
,,,,,,,,,,,,,,,,,,,,,,,,,,,,,,,,,,,,,,,,,,,space,37.5805899112,2017_Jun_05_1300,60.0011354061,FEMA4ImagesEEG,001,100552,
AFNE01.JPG,AFNE01.JPG,AFNE01.JPG,AFNE01.JPG,AFNE01.JPG,AFNE01.JPG,,,,,0,0,0,4,,,,,,,,,,,,,,,,,,,AMNE12.jpg,AMNE10.jpg,AMSA10.jpg,AMSA17.jpg,AMSA10.jpg,MS,2,num_2,32,num_6,0.63351199613,,,2017_Jun_05_1300,60.0011354061,FEMA4ImagesEEG,001,100552,
AFNE01.JPG,AFNE01.JPG,AFNE01.JPG,AFNE01.JPG,AFNE01.JPG,AFNE01.JPG,,,,,0,1,1,3,,,,,,,,,,,,,,,,,,,AMSA01.jpg,AMNE05.jpg,AMSA12.jpg,AMNE11.jpg,AMNE05.jpg,MN,1,num_6,32,num_8,0.866741869366,,,2017_Jun_05_1300,60.0011354061,FEMA4ImagesEEG,001,100552,
AFNE01.JPG,AFNE01.JPG,AFNE01.JPG,AFNE01.JPG,AFNE01.JPG,AFNE01.JPG,,,,,0,2,2,0,,,,,,,,,,,,,,,,,,,AMNE19.jpg,AMSA15.jpg,AMSA09.jpg,AMNE07.jpg,AMSA15.jpg,MS,2,num_6,32,num_2,1.76677269279,,,2017_Jun_05_1300,60.0011354061,FEMA4ImagesEEG,001,100552,
AFNE01.JPG,AFNE01.JPG,AFNE01.JPG,AFNE01.JPG,AFNE01.JPG,AFNE01.JPG,,,,,0,3,3,1,,,,,,,,,,,,,,,,,,,AMNE09.jpg,AMSA15.jpg,AMSA10.jpg,AMNE10.jpg,AMNE10.jpg,MN,1,num_4,16,num_4,0.51679538493,,,2017_Jun_05_1300,60.0011354061,FEMA4ImagesEEG,001,100552,
AFNE01.JPG,AFNE01.JPG,AFNE01.JPG,AFNE01.JPG,AFNE01.JPG,AFNE01.JPG,,,,,0,4,4,7,,,,,,,,,,,,,,,,,,,AMSA15.jpg,AMNE20.jpg,AMSA05.jpg,AMNE07.jpg,AMSA05.jpg,MS,2,num_2,32,num_8,0.900118064368,,,2017_Jun_05_1300,60.0011354061,FEMA4ImagesEEG,001,100552,
AFNE01.JPG,AFNE01.JPG,AFNE01.JPG,AFNE01.JPG,AFNE01.JPG,AFNE01.JPG,,,,,0,5,5,5,,,,,,,,,,,,,,,,,,,AMNE20.jpg,AMNE08.jpg,AMSA12.jpg,AMSA17.jpg,AMSA12.jpg,MS,2,num_2,16,num_2,0.566893996438,,,2017_Jun_05_1300,60.0011354061,FEMA4ImagesEEG,001,100552,
AFNE01.JPG,AFNE01.JPG,AFNE01.JPG,AFNE01.JPG,AFNE01.JPG,AFNE01.JPG,,,,,0,6,6,2,,,,,,,,,,,,,,,,,,,AMNE10.jpg,AMNE09.jpg,AMSA17.jpg,AMSA03.jpg,AMSA17.jpg,MS,2,num_2,16,num_2,1.48339737975,,,2017_Jun_05_1300,60.0011354061,FEMA4ImagesEEG,001,100552,
AFNE01.JPG,AFNE01.JPG,AFNE01.JPG,AFNE01.JPG,AFNE01.JPG,AFNE01.JPG,,,,,0,7,7,8,,,,,,,,,,,,,,,,,,,AMNE07.jpg,AMSA18.jpg,AMNE12.jpg,AMSA03.jpg,AMSA18.jpg,MS,2,num_6,32,num_4,0.850100920768,,,2017_Jun_05_1300,60.0011354061,FEMA4ImagesEEG,001,100552,
AFNE01.JPG,AFNE01.JPG,AFNE01.JPG,AFNE01.JPG,AFNE01.JPG,AFNE01.JPG,,,,,0,8,8,6,,,,,,,,,,,,,,,,,,,AMNE14.jpg,AMSA20.jpg,AMNE09.jpg,AMSA14.jpg,AMSA14.jpg,MS,2,num_4,16,num_4,0.650112852221,,,2017_Jun_05_1300,60.0011354061,FEMA4ImagesEEG,001,100552,
AFNE01.JPG,AFNE01.JPG,AFNE01.JPG,AFNE01.JPG,AFNE01.JPG,AFNE01.JPG,,,,,0,9,9,9,,,,,,,,,,,,,,,,,,,AMNE20.jpg,AMSA03.jpg,AMSA13.jpg,AMNE02.jpg,AMSA03.jpg,MS,2,num_6,16,num_6,1.20015998511,,,2017_Jun_05_1300,60.0011354061,FEMA4ImagesEEG,001,100552,
AFNE01.JPG,AFNE01.JPG,AFNE01.JPG,AFNE01.JPG,AFNE01.JPG,AFNE01.JPG,,,,,1,0,10,5,,,,,,,,,,,,,,,,,,,AMNE04.jpg,AMSA20.jpg,AMSA13.jpg,AMNE02.jpg,AMNE04.jpg,MN,1,num_8,16,num_8,0.833464141702,,,2017_Jun_05_1300,60.0011354061,FEMA4ImagesEEG,001,100552,
AFNE01.JPG,AFNE01.JPG,AFNE01.JPG,AFNE01.JPG,AFNE01.JPG,AFNE01.JPG,,,,,1,1,11,6,,,,,,,,,,,,,,,,,,,AMSA07.jpg,AMNE16.jpg,AMSA02.jpg,AMNE18.jpg,AMNE18.jpg,MN,1,num_4,32,num_2,0.916590624722,,,2017_Jun_05_1300,60.0011354061,FEMA4ImagesEEG,001,100552,
AFNE01.JPG,AFNE01.JPG,AFNE01.JPG,AFNE01.JPG,AFNE01.JPG,AFNE01.JPG,,,,,1,2,12,7,,,,,,,,,,,,,,,,,,,AMSA03.jpg,AMNE15.jpg,AMNE13.jpg,AMSA08.jpg,AMNE13.jpg,MN,1,num_2,32,num_4,0.8668586188,,,2017_Jun_05_1300,60.0011354061,FEMA4ImagesEEG,001,100552,
AFNE01.JPG,AFNE01.JPG,AFNE01.JPG,AFNE01.JPG,AFNE01.JPG,AFNE01.JPG,,,,,1,3,13,1,,,,,,,,,,,,,,,,,,,AMNE06.jpg,AMNE08.jpg,AMSA04.jpg,AMSA12.jpg,AMSA12.jpg,MS,2,num_4,32,num_2,1.23361732718,,,2017_Jun_05_1300,60.0011354061,FEMA4ImagesEEG,001,100552,
AFNE01.JPG,AFNE01.JPG,AFNE01.JPG,AFNE01.JPG,AFNE01.JPG,AFNE01.JPG,,,,,1,4,14,9,,,,,,,,,,,,,,,,,,,AMSA02.jpg,AMNE04.jpg,AMNE11.jpg,AMSA16.jpg,AMNE11.jpg,MN,1,num_2,32,num_6,0.650142681086,,,2017_Jun_05_1300,60.0011354061,FEMA4ImagesEEG,001,100552,
AFNE01.JPG,AFNE01.JPG,AFNE01.JPG,AFNE01.JPG,AFNE01.JPG,AFNE01.JPG,,,,,1,5,15,0,,,,,,,,,,,,,,,,,,,AMSA09.jpg,AMNE16.jpg,AMNE08.jpg,AMSA02.jpg,AMNE16.jpg,MN,1,num_6,32,num_8,1.38335892302,,,2017_Jun_05_1300,60.0011354061,FEMA4ImagesEEG,001,100552,
AFNE01.JPG,AFNE01.JPG,AFNE01.JPG,AFNE01.JPG,AFNE01.JPG,AFNE01.JPG,,,,,1,6,16,4,,,,,,,,,,,,,,,,,,,AMSA03.jpg,AMSA15.jpg,AMNE07.jpg,AMNE06.jpg,AMSA15.jpg,MS,2,num_6,16,num_6,1.05011528987,,,2017_Jun_05_1300,60.0011354061,FEMA4ImagesEEG,001,100552,
AFNE01.JPG,AFNE01.JPG,AFNE01.JPG,AFNE01.JPG,AFNE01.JPG,AFNE01.JPG,,,,,1,7,17,2,,,,,,,,,,,,,,,,,,,AMSA05.jpg,AMNE02.jpg,AMSA07.jpg,AMNE09.jpg,AMSA05.jpg,MS,2,num_8,32,num_2,0.450140179368,,,2017_Jun_05_1300,60.0011354061,FEMA4ImagesEEG,001,100552,
AFNE01.JPG,AFNE01.JPG,AFNE01.JPG,AFNE01.JPG,AFNE01.JPG,AFNE01.JPG,,,,,1,8,18,8,,,,,,,,,,,,,,,,,,,AMNE01.jpg,AMSA15.jpg,AMSA11.jpg,AMNE02.jpg,AMSA15.jpg,MS,2,num_6,32,num_4,0.666814099997,,,2017_Jun_05_1300,60.0011354061,FEMA4ImagesEEG,001,100552,
AFNE01.JPG,AFNE01.JPG,AFNE01.JPG,AFNE01.JPG,AFNE01.JPG,AFNE01.JPG,,,,,1,9,19,3,,,,,,,,,,,,,,,,,,,AMNE15.jpg,AMSA06.jpg,AMSA10.jpg,AMNE18.jpg,AMNE15.jpg,MN,1,num_8,16,num_8,0.400155751267,,,2017_Jun_05_1300,60.0011354061,FEMA4ImagesEEG,001,100552,
AFNE01.JPG,AFNE01.JPG,AFNE01.JPG,AFNE01.JPG,AFNE01.JPG,AFNE01.JPG,,,,,2,0,20,8,,,,,,,,,,,,,,,,,,,AMSA15.jpg,AMNE08.jpg,AMNE19.jpg,AMSA17.jpg,AMNE19.jpg,MN,1,num_2,32,num_6,1.60007389844,,,2017_Jun_05_1300,60.0011354061,FEMA4ImagesEEG,001,100552,
AFNE01.JPG,AFNE01.JPG,AFNE01.JPG,AFNE01.JPG,AFNE01.JPG,AFNE01.JPG,,,,,2,1,21,1,,,,,,,,,,,,,,,,,,,AMSA12.jpg,AMNE09.jpg,AMNE01.jpg,AMSA06.jpg,AMNE01.jpg,MN,1,num_2,16,num_2,2.05002067168,,,2017_Jun_05_1300,60.0011354061,FEMA4ImagesEEG,001,100552,
AFNE01.JPG,AFNE01.JPG,AFNE01.JPG,AFNE01.JPG,AFNE01.JPG,AFNE01.JPG,,,,,2,2,22,7,,,,,,,,,,,,,,,,,,,AMNE08.jpg,AMSA12.jpg,AMSA14.jpg,AMNE04.jpg,AMNE04.jpg,MN,1,num_4,16,num_4,0.966760761105,,,2017_Jun_05_1300,60.0011354061,FEMA4ImagesEEG,001,100552,
AFNE01.JPG,AFNE01.JPG,AFNE01.JPG,AFNE01.JPG,AFNE01.JPG,AFNE01.JPG,,,,,2,3,23,4,,,,,,,,,,,,,,,,,,,AMSA09.jpg,AMSA10.jpg,AMNE06.jpg,AMNE07.jpg,AMSA10.jpg,MS,2,num_6,32,num_8,0.650135945762,,,2017_Jun_05_1300,60.0011354061,FEMA4ImagesEEG,001,100552,
AFNE01.JPG,AFNE01.JPG,AFNE01.JPG,AFNE01.JPG,AFNE01.JPG,AFNE01.JPG,,,,,2,4,24,6,,,,,,,,,,,,,,,,,,,AMSA10.jpg,AMNE17.jpg,AMSA17.jpg,AMNE11.jpg,AMNE11.jpg,MN,1,num_4,32,num_6,0.700167201692,,,2017_Jun_05_1300,60.0011354061,FEMA4ImagesEEG,001,100552,
AFNE01.JPG,AFNE01.JPG,AFNE01.JPG,AFNE01.JPG,AFNE01.JPG,AFNE01.JPG,,,,,2,5,25,5,,,,,,,,,,,,,,,,,,,AMSA02.jpg,AMSA11.jpg,AMNE05.jpg,AMNE18.jpg,AMSA11.jpg,MS,2,num_6,32,num_2,1.08345588273,,,2017_Jun_05_1300,60.0011354061,FEMA4ImagesEEG,001,100552,
AFNE01.JPG,AFNE01.JPG,AFNE01.JPG,AFNE01.JPG,AFNE01.JPG,AFNE01.JPG,,,,,2,6,26,0,,,,,,,,,,,,,,,,,,,AMNE12.jpg,AMSA15.jpg,AMNE06.jpg,AMSA06.jpg,AMNE06.jpg,MN,1,num_2,32,num_8,0.566825358197,,,2017_Jun_05_1300,60.0011354061,FEMA4ImagesEEG,001,100552,
AFNE01.JPG,AFNE01.JPG,AFNE01.JPG,AFNE01.JPG,AFNE01.JPG,AFNE01.JPG,,,,,2,7,27,2,,,,,,,,,,,,,,,,,,,AMSA11.jpg,AMSA03.jpg,AMNE02.jpg,AMNE11.jpg,AMSA03.jpg,MS,2,num_6,32,num_4,0.45017161197,,,2017_Jun_05_1300,60.0011354061,FEMA4ImagesEEG,001,100552,
AFNE01.JPG,AFNE01.JPG,AFNE01.JPG,AFNE01.JPG,AFNE01.JPG,AFNE01.JPG,,,,,2,8,28,9,,,,,,,,,,,,,,,,,,,AMNE20.jpg,AMNE14.jpg,AMSA10.jpg,AMSA20.jpg,AMSA20.jpg,MS,2,num_4,32,num_6,0.600140291499,,,2017_Jun_05_1300,60.0011354061,FEMA4ImagesEEG,001,100552,
AFNE01.JPG,AFNE01.JPG,AFNE01.JPG,AFNE01.JPG,AFNE01.JPG,AFNE01.JPG,,,,,2,9,29,3,,,,,,,,,,,,,,,,,,,AMNE12.jpg,AMNE06.jpg,AMSA01.jpg,AMSA16.jpg,AMNE06.jpg,MN,1,num_6,32,num_4,0.66677625291,,,2017_Jun_05_1300,60.0011354061,FEMA4ImagesEEG,001,100552,
AFNE01.JPG,AFNE01.JPG,AFNE01.JPG,AFNE01.JPG,AFNE01.JPG,AFNE01.JPG,,,,,3,0,30,9,,,,,,,,,,,,,,,,,,,AMSA15.jpg,AMNE07.jpg,AMNE18.jpg,AMSA11.jpg,AMSA11.jpg,MS,2,num_4,32,num_2,1.33343222807,,,2017_Jun_05_1300,60.0011354061,FEMA4ImagesEEG,001,100552,
AFNE01.JPG,AFNE01.JPG,AFNE01.JPG,AFNE01.JPG,AFNE01.JPG,AFNE01.JPG,,,,,3,1,31,0,,,,,,,,,,,,,,,,,,,AMSA10.jpg,AMSA05.jpg,AMNE14.jpg,AMNE05.jpg,AMNE05.jpg,MN,1,num_4,32,num_8,0.700222368818,,,2017_Jun_05_1300,60.0011354061,FEMA4ImagesEEG,001,100552,
AFNE01.JPG,AFNE01.JPG,AFNE01.JPG,AFNE01.JPG,AFNE01.JPG,AFNE01.JPG,,,,,3,2,32,8,,,,,,,,,,,,,,,,,,,AMSA20.jpg,AMNE09.jpg,AMSA05.jpg,AMNE14.jpg,AMSA05.jpg,MS,2,num_2,32,num_6,1.06675399328,,,2017_Jun_05_1300,60.0011354061,FEMA4ImagesEEG,001,100552,
AFNE01.JPG,AFNE01.JPG,AFNE01.JPG,AFNE01.JPG,AFNE01.JPG,AFNE01.JPG,,,,,3,3,33,7,,,,,,,,,,,,,,,,,,,AMSA11.jpg,AMSA07.jpg,AMNE07.jpg,AMNE16.jpg,AMNE07.jpg,MN,1,num_2,32,num_8,1.36671829503,,,2017_Jun_05_1300,60.0011354061,FEMA4ImagesEEG,001,100552,
AFNE01.JPG,AFNE01.JPG,AFNE01.JPG,AFNE01.JPG,AFNE01.JPG,AFNE01.JPG,,,,,3,4,34,5,,,,,,,,,,,,,,,,,,,AMNE01.jpg,AMSA06.jpg,AMSA05.jpg,AMNE20.jpg,AMNE01.jpg,MN,1,num_8,32,num_2,0.83350263047,,,2017_Jun_05_1300,60.0011354061,FEMA4ImagesEEG,001,100552,
AFNE01.JPG,AFNE01.JPG,AFNE01.JPG,AFNE01.JPG,AFNE01.JPG,AFNE01.JPG,,,,,3,5,35,4,,,,,,,,,,,,,,,,,,,AMNE14.jpg,AMNE11.jpg,AMSA13.jpg,AMSA09.jpg,AMSA09.jpg,MS,2,num_4,16,num_4,0.633494996931,,,2017_Jun_05_1300,60.0011354061,FEMA4ImagesEEG,001,100552,
AFNE01.JPG,AFNE01.JPG,AFNE01.JPG,AFNE01.JPG,AFNE01.JPG,AFNE01.JPG,,,,,3,6,36,2,,,,,,,,,,,,,,,,,,,AMNE14.jpg,AMSA04.jpg,AMSA09.jpg,AMNE05.jpg,AMNE05.jpg,MN,1,num_4,32,num_6,1.55007599946,,,2017_Jun_05_1300,60.0011354061,FEMA4ImagesEEG,001,100552,
AFNE01.JPG,AFNE01.JPG,AFNE01.JPG,AFNE01.JPG,AFNE01.JPG,AFNE01.JPG,,,,,3,7,37,1,,,,,,,,,,,,,,,,,,,AMNE17.jpg,AMSA16.jpg,AMSA18.jpg,AMNE19.jpg,AMNE19.jpg,MN,1,num_4,32,num_2,1.18344334187,,,2017_Jun_05_1300,60.0011354061,FEMA4ImagesEEG,001,100552,
AFNE01.JPG,AFNE01.JPG,AFNE01.JPG,AFNE01.JPG,AFNE01.JPG,AFNE01.JPG,,,,,3,8,38,6,,,,,,,,,,,,,,,,,,,AMNE20.jpg,AMSA14.jpg,AMNE02.jpg,AMSA01.jpg,AMNE02.jpg,MN,1,num_2,32,num_4,0.983441802207,,,2017_Jun_05_1300,60.0011354061,FEMA4ImagesEEG,001,100552,
AFNE01.JPG,AFNE01.JPG,AFNE01.JPG,AFNE01.JPG,AFNE01.JPG,AFNE01.JPG,,,,,3,9,39,3,,,,,,,,,,,,,,,,,,,AMSA12.jpg,AMNE09.jpg,AMSA18.jpg,AMNE13.jpg,AMNE09.jpg,MN,1,num_6,32,num_8,0.716759718722,,,2017_Jun_05_1300,60.0011354061,FEMA4ImagesEEG,001,100552,
AFNE01.JPG,AFNE01.JPG,AFNE01.JPG,AFNE01.JPG,AFNE01.JPG,AFNE01.JPG,,,,,4,0,40,3,,,,,,,,,,,,,,,,,,,AMNE17.jpg,AMSA17.jpg,AMNE02.jpg,AMSA03.jpg,AMSA17.jpg,MS,2,num_6,16,num_6,1.18328746222,,,2017_Jun_05_1300,60.0011354061,FEMA4ImagesEEG,001,100552,
AFNE01.JPG,AFNE01.JPG,AFNE01.JPG,AFNE01.JPG,AFNE01.JPG,AFNE01.JPG,,,,,4,1,41,2,,,,,,,,,,,,,,,,,,,AMNE08.jpg,AMSA02.jpg,AMSA13.jpg,AMNE04.jpg,AMNE04.jpg,MN,1,num_4,32,num_6,1.80006164615,,,2017_Jun_05_1300,60.0011354061,FEMA4ImagesEEG,001,100552,
AFNE01.JPG,AFNE01.JPG,AFNE01.JPG,AFNE01.JPG,AFNE01.JPG,AFNE01.JPG,,,,,4,2,42,7,,,,,,,,,,,,,,,,,,,AMNE12.jpg,AMNE01.jpg,AMSA15.jpg,AMSA05.jpg,AMSA15.jpg,MS,2,num_2,16,num_2,1.06676008739,,,2017_Jun_05_1300,60.0011354061,FEMA4ImagesEEG,001,100552,
AFNE01.JPG,AFNE01.JPG,AFNE01.JPG,AFNE01.JPG,AFNE01.JPG,AFNE01.JPG,,,,,4,3,43,1,,,,,,,,,,,,,,,,,,,AMNE09.jpg,AMSA07.jpg,AMSA05.jpg,AMNE08.jpg,AMNE09.jpg,MN,1,num_8,16,num_8,0.850136843743,,,2017_Jun_05_1300,60.0011354061,FEMA4ImagesEEG,001,100552,
AFNE01.JPG,AFNE01.JPG,AFNE01.JPG,AFNE01.JPG,AFNE01.JPG,AFNE01.JPG,,,,,4,4,44,6,,,,,,,,,,,,,,,,,,,AMSA02.jpg,AMNE07.jpg,AMNE18.jpg,AMSA12.jpg,AMSA12.jpg,MS,2,num_4,32,num_6,0.68349129241,,,2017_Jun_05_1300,60.0011354061,FEMA4ImagesEEG,001,100552,
AFNE01.JPG,AFNE01.JPG,AFNE01.JPG,AFNE01.JPG,AFNE01.JPG,AFNE01.JPG,,,,,4,5,45,9,,,,,,,,,,,,,,,,,,,AMSA06.jpg,AMSA12.jpg,AMNE05.jpg,AMNE20.jpg,AMSA06.jpg,MS,2,num_8,16,num_8,1.41674441937,,,2017_Jun_05_1300,60.0011354061,FEMA4ImagesEEG,001,100552,
AFNE01.JPG,AFNE01.JPG,AFNE01.JPG,AFNE01.JPG,AFNE01.JPG,AFNE01.JPG,,,,,4,6,46,4,,,,,,,,,,,,,,,,,,,AMSA19.jpg,AMSA03.jpg,AMNE02.jpg,AMNE11.jpg,AMNE02.jpg,MN,1,num_2,32,num_4,0.650161925703,,,2017_Jun_05_1300,60.0011354061,FEMA4ImagesEEG,001,100552,
AFNE01.JPG,AFNE01.JPG,AFNE01.JPG,AFNE01.JPG,AFNE01.JPG,AFNE01.JPG,,,,,4,7,47,5,,,,,,,,,,,,,,,,,,,AMSA15.jpg,AMNE14.jpg,AMNE08.jpg,AMSA13.jpg,AMSA15.jpg,MS,2,num_8,32,num_6,1.06671935366,,,2017_Jun_05_1300,60.0011354061,FEMA4ImagesEEG,001,100552,
AFNE01.JPG,AFNE01.JPG,AFNE01.JPG,AFNE01.JPG,AFNE01.JPG,AFNE01.JPG,,,,,4,8,48,8,,,,,,,,,,,,,,,,,,,AMNE01.jpg,AMSA07.jpg,AMNE04.jpg,AMSA12.jpg,AMNE01.jpg,MN,1,num_8,32,num_2,0.833469594363,,,2017_Jun_05_1300,60.0011354061,FEMA4ImagesEEG,001,100552,
AFNE01.JPG,AFNE01.JPG,AFNE01.JPG,AFNE01.JPG,AFNE01.JPG,AFNE01.JPG,,,,,4,9,49,0,,,,,,,,,,,,,,,,,,,AMSA03.jpg,AMNE14.jpg,AMNE11.jpg,AMSA13.jpg,AMSA03.jpg,MS,2,num_8,16,num_8,0.75013687578,,,2017_Jun_05_1300,60.0011354061,FEMA4ImagesEEG,001,100552,
AFNE01.JPG,AFNE01.JPG,AFNE01.JPG,AFNE01.JPG,AFNE01.JPG,AFNE01.JPG,,,,,5,0,50,5,,,,,,,,,,,,,,,,,,,AMNE12.jpg,AMNE07.jpg,AMSA13.jpg,AMSA05.jpg,AMNE07.jpg,MN,1,num_6,32,num_4,0.5667756435,,,2017_Jun_05_1300,60.0011354061,FEMA4ImagesEEG,001,100552,
AFNE01.JPG,AFNE01.JPG,AFNE01.JPG,AFNE01.JPG,AFNE01.JPG,AFNE01.JPG,,,,,5,1,51,1,,,,,,,,,,,,,,,,,,,AMSA17.jpg,AMNE16.jpg,AMSA16.jpg,AMNE07.jpg,AMSA16.jpg,MS,2,num_2,32,num_8,0.583500305191,,,2017_Jun_05_1300,60.0011354061,FEMA4ImagesEEG,001,100552,
AFNE01.JPG,AFNE01.JPG,AFNE01.JPG,AFNE01.JPG,AFNE01.JPG,AFNE01.JPG,,,,,5,2,52,7,,,,,,,,,,,,,,,,,,,AMSA17.jpg,AMNE08.jpg,AMNE09.jpg,AMSA08.jpg,AMSA08.jpg,MS,2,num_4,32,num_2,0.366804894758,,,2017_Jun_05_1300,60.0011354061,FEMA4ImagesEEG,001,100552,
AFNE01.JPG,AFNE01.JPG,AFNE01.JPG,AFNE01.JPG,AFNE01.JPG,AFNE01.JPG,,,,,5,3,53,4,,,,,,,,,,,,,,,,,,,AMSA05.jpg,AMSA19.jpg,AMNE09.jpg,AMNE20.jpg,AMNE09.jpg,MN,1,num_2,32,num_6,0.283505853964,,,2017_Jun_05_1300,60.0011354061,FEMA4ImagesEEG,001,100552,
AFNE01.JPG,AFNE01.JPG,AFNE01.JPG,AFNE01.JPG,AFNE01.JPG,AFNE01.JPG,,,,,5,4,54,3,,,,,,,,,,,,,,,,,,,AMSA18.jpg,AMSA08.jpg,AMNE17.jpg,AMNE19.jpg,AMSA18.jpg,MS,2,num_8,32,num_4,0.783524937928,,,2017_Jun_05_1300,60.0011354061,FEMA4ImagesEEG,001,100552,
AFNE01.JPG,AFNE01.JPG,AFNE01.JPG,AFNE01.JPG,AFNE01.JPG,AFNE01.JPG,,,,,5,5,55,6,,,,,,,,,,,,,,,,,,,AMNE17.jpg,AMSA13.jpg,AMNE03.jpg,AMSA09.jpg,AMSA09.jpg,MS,2,num_4,32,num_8,0.550522148376,,,2017_Jun_05_1300,60.0011354061,FEMA4ImagesEEG,001,100552,
AFNE01.JPG,AFNE01.JPG,AFNE01.JPG,AFNE01.JPG,AFNE01.JPG,AFNE01.JPG,,,,,5,6,56,9,,,,,,,,,,,,,,,,,,,AMSA07.jpg,AMNE10.jpg,AMNE05.jpg,AMSA05.jpg,AMSA05.jpg,MS,2,num_4,32,num_2,0.800121303881,,,2017_Jun_05_1300,60.0011354061,FEMA4ImagesEEG,001,100552,
AFNE01.JPG,AFNE01.JPG,AFNE01.JPG,AFNE01.JPG,AFNE01.JPG,AFNE01.JPG,,,,,5,7,57,8,,,,,,,,,,,,,,,,,,,AMNE08.jpg,AMSA04.jpg,AMSA17.jpg,AMNE12.jpg,AMSA17.jpg,MS,2,num_2,32,num_6,0.350141173694,,,2017_Jun_05_1300,60.0011354061,FEMA4ImagesEEG,001,100552,
AFNE01.JPG,AFNE01.JPG,AFNE01.JPG,AFNE01.JPG,AFNE01.JPG,AFNE01.JPG,,,,,5,8,58,2,,,,,,,,,,,,,,,,,,,AMNE05.jpg,AMNE17.jpg,AMSA18.jpg,AMSA06.jpg,AMSA06.jpg,MS,2,num_4,16,num_4,0.633468375541,,,2017_Jun_05_1300,60.0011354061,FEMA4ImagesEEG,001,100552,
AFNE01.JPG,AFNE01.JPG,AFNE01.JPG,AFNE01.JPG,AFNE01.JPG,AFNE01.JPG,,,,,5,9,59,0,,,,,,,,,,,,,,,,,,,AMSA13.jpg,AMSA06.jpg,AMNE10.jpg,AMNE06.jpg,AMSA06.jpg,MS,2,num_6,32,num_8,1.95003642002,,,2017_Jun_05_1300,60.0011354061,FEMA4ImagesEEG,001,100552,
,,,,,,,,,,,,,,,,,,,,,,,,,,,,,,,,,,,,,,,,,,,space,22.3315039398,2017_Jun_05_1300,60.0011354061,FEMA4ImagesEEG,001,100552,
AFNE01.JPG,AFNE01.JPG,AFNE01.JPG,AFNE01.JPG,AFNE01.JPG,AFNE01.JPG,,,,,,,,,0,0,0,4,,,,,,,,,,,,,,,AFSA08.jpg,AFNE04.jpg,AFSA05.jpg,AFNE08.jpg,AFNE08.jpg,FN,3,num_4,32,num_8,0.833436878864,,,2017_Jun_05_1300,60.0011354061,FEMA4ImagesEEG,001,100552,
AFNE01.JPG,AFNE01.JPG,AFNE01.JPG,AFNE01.JPG,AFNE01.JPG,AFNE01.JPG,,,,,,,,,0,1,1,8,,,,,,,,,,,,,,,AFSA15.jpg,AFSA07.jpg,AFNE03.jpg,AFNE12.jpg,AFNE03.jpg,FN,3,num_2,32,num_4,0.616797597846,,,2017_Jun_05_1300,60.0011354061,FEMA4ImagesEEG,001,100552,
AFNE01.JPG,AFNE01.JPG,AFNE01.JPG,AFNE01.JPG,AFNE01.JPG,AFNE01.JPG,,,,,,,,,0,2,2,6,,,,,,,,,,,,,,,AFNE11.jpg,AFSA16.jpg,AFSA17.jpg,AFNE01.jpg,AFNE11.jpg,FN,3,num_8,32,num_2,0.633623292902,,,2017_Jun_05_1300,60.0011354061,FEMA4ImagesEEG,001,100552,
AFNE01.JPG,AFNE01.JPG,AFNE01.JPG,AFNE01.JPG,AFNE01.JPG,AFNE01.JPG,,,,,,,,,0,3,3,0,,,,,,,,,,,,,,,AFNE10.jpg,AFNE13.jpg,AFSA08.jpg,AFSA02.jpg,AFSA08.jpg,FS,4,num_2,32,num_4,0.73345294781,,,2017_Jun_05_1300,60.0011354061,FEMA4ImagesEEG,001,100552,
AFNE01.JPG,AFNE01.JPG,AFNE01.JPG,AFNE01.JPG,AFNE01.JPG,AFNE01.JPG,,,,,,,,,0,4,4,2,,,,,,,,,,,,,,,AFSA11.jpg,AFSA15.jpg,AFNE09.jpg,AFNE17.jpg,AFNE17.jpg,FN,3,num_4,32,num_8,0.700003303587,,,2017_Jun_05_1300,60.0011354061,FEMA4ImagesEEG,001,100552,
AFNE01.JPG,AFNE01.JPG,AFNE01.JPG,AFNE01.JPG,AFNE01.JPG,AFNE01.JPG,,,,,,,,,0,5,5,3,,,,,,,,,,,,,,,AFNE18.jpg,AFSA14.jpg,AFSA15.jpg,AFNE09.jpg,AFSA15.jpg,FS,4,num_2,32,num_6,0.583500305191,,,2017_Jun_05_1300,60.0011354061,FEMA4ImagesEEG,001,100552,
AFNE01.JPG,AFNE01.JPG,AFNE01.JPG,AFNE01.JPG,AFNE01.JPG,AFNE01.JPG,,,,,,,,,0,6,6,7,,,,,,,,,,,,,,,AFSA03.jpg,AFNE03.jpg,AFNE20.jpg,AFSA12.jpg,AFNE03.jpg,FN,3,num_6,32,num_2,0.683559930883,,,2017_Jun_05_1300,60.0011354061,FEMA4ImagesEEG,001,100552,
AFNE01.JPG,AFNE01.JPG,AFNE01.JPG,AFNE01.JPG,AFNE01.JPG,AFNE01.JPG,,,,,,,,,0,7,7,5,,,,,,,,,,,,,,,AFNE09.jpg,AFNE11.jpg,AFSA02.jpg,AFSA04.jpg,AFNE11.jpg,FN,3,num_6,32,num_8,1.0667661815,,,2017_Jun_05_1300,60.0011354061,FEMA4ImagesEEG,001,100552,
AFNE01.JPG,AFNE01.JPG,AFNE01.JPG,AFNE01.JPG,AFNE01.JPG,AFNE01.JPG,,,,,,,,,0,8,8,9,,,,,,,,,,,,,,,AFSA18.jpg,AFNE19.jpg,AFSA11.jpg,AFNE08.jpg,AFSA18.jpg,FS,4,num_8,32,num_4,0.866734492593,,,2017_Jun_05_1300,60.0011354061,FEMA4ImagesEEG,001,100552,
AFNE01.JPG,AFNE01.JPG,AFNE01.JPG,AFNE01.JPG,AFNE01.JPG,AFNE01.JPG,,,,,,,,,0,9,9,1,,,,,,,,,,,,,,,AFSA09.jpg,AFSA19.jpg,AFNE13.jpg,AFNE20.jpg,AFNE13.jpg,FN,3,num_2,32,num_6,0.433587754844,,,2017_Jun_05_1300,60.0011354061,FEMA4ImagesEEG,001,100552,
AFNE01.JPG,AFNE01.JPG,AFNE01.JPG,AFNE01.JPG,AFNE01.JPG,AFNE01.JPG,,,,,,,,,1,0,10,5,,,,,,,,,,,,,,,AFNE04.jpg,AFNE12.jpg,AFSA17.jpg,AFSA07.jpg,AFNE12.jpg,FN,3,num_6,16,num_6,0.600156649249,,,2017_Jun_05_1300,60.0011354061,FEMA4ImagesEEG,001,100552,
AFNE01.JPG,AFNE01.JPG,AFNE01.JPG,AFNE01.JPG,AFNE01.JPG,AFNE01.JPG,,,,,,,,,1,1,11,9,,,,,,,,,,,,,,,AFSA13.jpg,AFNE15.jpg,AFNE14.jpg,AFSA08.jpg,AFSA08.jpg,FS,4,num_4,16,num_4,0.933466675691,,,2017_Jun_05_1300,60.0011354061,FEMA4ImagesEEG,001,100552,
AFNE01.JPG,AFNE01.JPG,AFNE01.JPG,AFNE01.JPG,AFNE01.JPG,AFNE01.JPG,,,,,,,,,1,2,12,7,,,,,,,,,,,,,,,AFNE18.jpg,AFNE05.jpg,AFSA09.jpg,AFSA02.jpg,AFNE05.jpg,FN,3,num_6,32,num_2,1.25014313031,,,2017_Jun_05_1300,60.0011354061,FEMA4ImagesEEG,001,100552,
AFNE01.JPG,AFNE01.JPG,AFNE01.JPG,AFNE01.JPG,AFNE01.JPG,AFNE01.JPG,,,,,,,,,1,3,13,1,,,,,,,,,,,,,,,AFSA03.jpg,AFNE05.jpg,AFSA05.jpg,AFNE12.jpg,AFNE12.jpg,FN,3,num_4,32,num_8,0.500123645179,,,2017_Jun_05_1300,60.0011354061,FEMA4ImagesEEG,001,100552,
AFNE01.JPG,AFNE01.JPG,AFNE01.JPG,AFNE01.JPG,AFNE01.JPG,AFNE01.JPG,,,,,,,,,1,4,14,8,,,,,,,,,,,,,,,AFNE14.jpg,AFSA05.jpg,AFNE02.jpg,AFSA10.jpg,AFNE02.jpg,FN,3,num_2,32,num_8,0.666763102636,,,2017_Jun_05_1300,60.0011354061,FEMA4ImagesEEG,001,100552,
AFNE01.JPG,AFNE01.JPG,AFNE01.JPG,AFNE01.JPG,AFNE01.JPG,AFNE01.JPG,,,,,,,,,1,5,15,0,,,,,,,,,,,,,,,AFNE01.jpg,AFSA02.jpg,AFNE09.jpg,AFSA10.jpg,AFSA10.jpg,FS,4,num_4,32,num_6,0.700118449284,,,2017_Jun_05_1300,60.0011354061,FEMA4ImagesEEG,001,100552,
AFNE01.JPG,AFNE01.JPG,AFNE01.JPG,AFNE01.JPG,AFNE01.JPG,AFNE01.JPG,,,,,,,,,1,6,16,3,,,,,,,,,,,,,,,AFNE06.jpg,AFSA19.jpg,AFNE18.jpg,AFSA12.jpg,AFNE06.jpg,FN,3,num_8,32,num_2,0.616782523226,,,2017_Jun_05_1300,60.0011354061,FEMA4ImagesEEG,001,100552,
AFNE01.JPG,AFNE01.JPG,AFNE01.JPG,AFNE01.JPG,AFNE01.JPG,AFNE01.JPG,,,,,,,,,1,7,17,6,,,,,,,,,,,,,,,AFSA10.jpg,AFNE07.jpg,AFSA01.jpg,AFNE19.jpg,AFNE19.jpg,FN,3,num_4,16,num_4,0.400187504478,,,2017_Jun_05_1300,60.0011354061,FEMA4ImagesEEG,001,100552,
AFNE01.JPG,AFNE01.JPG,AFNE01.JPG,AFNE01.JPG,AFNE01.JPG,AFNE01.JPG,,,,,,,,,1,8,18,2,,,,,,,,,,,,,,,AFNE06.jpg,AFSA18.jpg,AFSA02.jpg,AFNE15.jpg,AFNE15.jpg,FN,3,num_4,16,num_4,0.716781849507,,,2017_Jun_05_1300,60.0011354061,FEMA4ImagesEEG,001,100552,
AFNE01.JPG,AFNE01.JPG,AFNE01.JPG,AFNE01.JPG,AFNE01.JPG,AFNE01.JPG,,,,,,,,,1,9,19,4,,,,,,,,,,,,,,,AFSA17.jpg,AFSA11.jpg,AFNE19.jpg,AFNE18.jpg,AFSA17.jpg,FS,4,num_8,16,num_8,0.766768843867,,,2017_Jun_05_1300,60.0011354061,FEMA4ImagesEEG,001,100552,
AFNE01.JPG,AFNE01.JPG,AFNE01.JPG,AFNE01.JPG,AFNE01.JPG,AFNE01.JPG,,,,,,,,,2,0,20,1,,,,,,,,,,,,,,,AFSA01.jpg,AFSA19.jpg,AFNE06.jpg,AFNE08.jpg,AFNE06.jpg,FN,3,num_2,32,num_6,1.283457743,,,2017_Jun_05_1300,60.0011354061,FEMA4ImagesEEG,001,100552,
AFNE01.JPG,AFNE01.JPG,AFNE01.JPG,AFNE01.JPG,AFNE01.JPG,AFNE01.JPG,,,,,,,,,2,1,21,8,,,,,,,,,,,,,,,AFNE08.jpg,AFSA15.jpg,AFNE14.jpg,AFSA16.jpg,AFNE08.jpg,FN,3,num_8,32,num_2,1.03344868217,,,2017_Jun_05_1300,60.0011354061,FEMA4ImagesEEG,001,100552,
AFNE01.JPG,AFNE01.JPG,AFNE01.JPG,AFNE01.JPG,AFNE01.JPG,AFNE01.JPG,,,,,,,,,2,2,22,4,,,,,,,,,,,,,,,AFSA16.jpg,AFNE06.jpg,AFSA17.jpg,AFNE15.jpg,AFNE06.jpg,FN,3,num_6,32,num_4,0.899891301291,,,2017_Jun_05_1300,60.0011354061,FEMA4ImagesEEG,001,100552,
AFNE01.JPG,AFNE01.JPG,AFNE01.JPG,AFNE01.JPG,AFNE01.JPG,AFNE01.JPG,,,,,,,,,2,3,23,5,,,,,,,,,,,,,,,AFSA14.jpg,AFSA02.jpg,AFNE11.jpg,AFNE15.jpg,AFSA02.jpg,FS,4,num_6,32,num_8,0.616670905612,,,2017_Jun_05_1300,60.0011354061,FEMA4ImagesEEG,001,100552,
AFNE01.JPG,AFNE01.JPG,AFNE01.JPG,AFNE01.JPG,AFNE01.JPG,AFNE01.JPG,,,,,,,,,2,4,24,2,,,,,,,,,,,,,,,AFSA03.jpg,AFNE05.jpg,AFSA06.jpg,AFNE03.jpg,AFNE05.jpg,FN,3,num_6,32,num_2,0.550201087957,,,2017_Jun_05_1300,60.0011354061,FEMA4ImagesEEG,001,100552,
AFNE01.JPG,AFNE01.JPG,AFNE01.JPG,AFNE01.JPG,AFNE01.JPG,AFNE01.JPG,,,,,,,,,2,5,25,0,,,,,,,,,,,,,,,AFSA04.jpg,AFNE08.jpg,AFSA14.jpg,AFNE18.jpg,AFNE18.jpg,FN,3,num_4,32,num_6,0.633510392625,,,2017_Jun_05_1300,60.0011354061,FEMA4ImagesEEG,001,100552,
AFNE01.JPG,AFNE01.JPG,AFNE01.JPG,AFNE01.JPG,AFNE01.JPG,AFNE01.JPG,,,,,,,,,2,6,26,9,,,,,,,,,,,,,,,AFSA16.jpg,AFSA02.jpg,AFNE05.jpg,AFNE07.jpg,AFNE07.jpg,FN,3,num_4,16,num_4,1.18341319216,,,2017_Jun_05_1300,60.0011354061,FEMA4ImagesEEG,001,100552,
AFNE01.JPG,AFNE01.JPG,AFNE01.JPG,AFNE01.JPG,AFNE01.JPG,AFNE01.JPG,,,,,,,,,2,7,27,7,,,,,,,,,,,,,,,AFNE16.jpg,AFNE02.jpg,AFSA19.jpg,AFSA14.jpg,AFNE16.jpg,FN,3,num_8,32,num_2,0.933237346588,,,2017_Jun_05_1300,60.0011354061,FEMA4ImagesEEG,001,100552,
AFNE01.JPG,AFNE01.JPG,AFNE01.JPG,AFNE01.JPG,AFNE01.JPG,AFNE01.JPG,,,,,,,,,2,8,28,6,,,,,,,,,,,,,,,AFSA11.jpg,AFSA14.jpg,AFNE08.jpg,AFNE05.jpg,AFNE05.jpg,FN,3,num_4,32,num_8,0.750166063197,,,2017_Jun_05_1300,60.0011354061,FEMA4ImagesEEG,001,100552,
AFNE01.JPG,AFNE01.JPG,AFNE01.JPG,AFNE01.JPG,AFNE01.JPG,AFNE01.JPG,,,,,,,,,2,9,29,3,,,,,,,,,,,,,,,AFSA20.jpg,AFNE07.jpg,AFSA09.jpg,AFNE19.jpg,AFNE07.jpg,FN,3,num_6,32,num_4,0.483455754584,,,2017_Jun_05_1300,60.0011354061,FEMA4ImagesEEG,001,100552,
AFNE01.JPG,AFNE01.JPG,AFNE01.JPG,AFNE01.JPG,AFNE01.JPG,AFNE01.JPG,,,,,,,,,3,0,30,3,,,,,,,,,,,,,,,AFSA13.jpg,AFSA08.jpg,AFNE12.jpg,AFNE14.jpg,AFSA13.jpg,FS,4,num_8,32,num_2,0.933440374909,,,2017_Jun_05_1300,60.0011354061,FEMA4ImagesEEG,001,100552,
AFNE01.JPG,AFNE01.JPG,AFNE01.JPG,AFNE01.JPG,AFNE01.JPG,AFNE01.JPG,,,,,,,,,3,1,31,4,,,,,,,,,,,,,,,AFNE11.jpg,AFSA18.jpg,AFNE20.jpg,AFSA07.jpg,AFSA18.jpg,FS,4,num_6,32,num_8,0.583519870415,,,2017_Jun_05_1300,60.0011354061,FEMA4ImagesEEG,001,100552,
AFNE01.JPG,AFNE01.JPG,AFNE01.JPG,AFNE01.JPG,AFNE01.JPG,AFNE01.JPG,,,,,,,,,3,2,32,2,,,,,,,,,,,,,,,AFSA15.jpg,AFSA05.jpg,AFNE13.jpg,AFNE15.jpg,AFNE15.jpg,FN,3,num_4,16,num_4,0.433472929988,,,2017_Jun_05_1300,60.0011354061,FEMA4ImagesEEG,001,100552,
AFNE01.JPG,AFNE01.JPG,AFNE01.JPG,AFNE01.JPG,AFNE01.JPG,AFNE01.JPG,,,,,,,,,3,3,33,0,,,,,,,,,,,,,,,AFNE20.jpg,AFSA17.jpg,AFNE07.jpg,AFSA09.jpg,AFSA09.jpg,FS,4,num_4,32,num_6,0.566800340312,,,2017_Jun_05_1300,60.0011354061,FEMA4ImagesEEG,001,100552,
AFNE01.JPG,AFNE01.JPG,AFNE01.JPG,AFNE01.JPG,AFNE01.JPG,AFNE01.JPG,,,,,,,,,3,4,34,5,,,,,,,,,,,,,,,AFNE03.jpg,AFSA17.jpg,AFSA13.jpg,AFNE05.jpg,AFSA17.jpg,FS,4,num_6,32,num_8,1.10010356689,,,2017_Jun_05_1300,60.0011354061,FEMA4ImagesEEG,001,100552,
AFNE01.JPG,AFNE01.JPG,AFNE01.JPG,AFNE01.JPG,AFNE01.JPG,AFNE01.JPG,,,,,,,,,3,5,35,9,,,,,,,,,,,,,,,AFNE10.jpg,AFSA02.jpg,AFNE01.jpg,AFSA15.jpg,AFSA02.jpg,FS,4,num_6,16,num_6,0.400183334947,,,2017_Jun_05_1300,60.0011354061,FEMA4ImagesEEG,001,100552,
AFNE01.JPG,AFNE01.JPG,AFNE01.JPG,AFNE01.JPG,AFNE01.JPG,AFNE01.JPG,,,,,,,,,3,6,36,6,,,,,,,,,,,,,,,AFSA02.jpg,AFNE01.jpg,AFSA16.jpg,AFNE04.jpg,AFNE04.jpg,FN,3,num_4,32,num_8,1.51706224051,,,2017_Jun_05_1300,60.0011354061,FEMA4ImagesEEG,001,100552,
AFNE01.JPG,AFNE01.JPG,AFNE01.JPG,AFNE01.JPG,AFNE01.JPG,AFNE01.JPG,,,,,,,,,3,7,37,7,,,,,,,,,,,,,,,AFNE06.jpg,AFNE08.jpg,AFSA18.jpg,AFSA15.jpg,AFSA15.jpg,FS,4,num_4,32,num_2,0.400172429858,,,2017_Jun_05_1300,60.0011354061,FEMA4ImagesEEG,001,100552,
AFNE01.JPG,AFNE01.JPG,AFNE01.JPG,AFNE01.JPG,AFNE01.JPG,AFNE01.JPG,,,,,,,,,3,8,38,8,,,,,,,,,,,,,,,AFSA19.jpg,AFNE12.jpg,AFSA02.jpg,AFNE02.jpg,AFNE02.jpg,FN,3,num_4,16,num_4,0.783518523211,,,2017_Jun_05_1300,60.0011354061,FEMA4ImagesEEG,001,100552,
AFNE01.JPG,AFNE01.JPG,AFNE01.JPG,AFNE01.JPG,AFNE01.JPG,AFNE01.JPG,,,,,,,,,3,9,39,1,,,,,,,,,,,,,,,AFNE15.jpg,AFSA16.jpg,AFSA03.jpg,AFNE14.jpg,AFSA16.jpg,FS,4,num_6,32,num_8,0.966755629284,,,2017_Jun_05_1300,60.0011354061,FEMA4ImagesEEG,001,100552,
AFNE01.JPG,AFNE01.JPG,AFNE01.JPG,AFNE01.JPG,AFNE01.JPG,AFNE01.JPG,,,,,,,,,4,0,40,0,,,,,,,,,,,,,,,AFSA05.jpg,AFNE02.jpg,AFNE06.jpg,AFSA20.jpg,AFNE06.jpg,FN,3,num_2,16,num_2,0.65016288776,,,2017_Jun_05_1300,60.0011354061,FEMA4ImagesEEG,001,100552,
AFNE01.JPG,AFNE01.JPG,AFNE01.JPG,AFNE01.JPG,AFNE01.JPG,AFNE01.JPG,,,,,,,,,4,1,41,4,,,,,,,,,,,,,,,AFNE12.jpg,AFSA15.jpg,AFSA11.jpg,AFNE04.jpg,AFSA15.jpg,FS,4,num_6,32,num_8,0.950113718398,,,2017_Jun_05_1300,60.0011354061,FEMA4ImagesEEG,001,100552,
AFNE01.JPG,AFNE01.JPG,AFNE01.JPG,AFNE01.JPG,AFNE01.JPG,AFNE01.JPG,,,,,,,,,4,2,42,9,,,,,,,,,,,,,,,AFSA03.jpg,AFNE09.jpg,AFNE06.jpg,AFSA08.jpg,AFSA08.jpg,FS,4,num_4,32,num_6,0.383504538797,,,2017_Jun_05_1300,60.0011354061,FEMA4ImagesEEG,001,100552,
AFNE01.JPG,AFNE01.JPG,AFNE01.JPG,AFNE01.JPG,AFNE01.JPG,AFNE01.JPG,,,,,,,,,4,3,43,2,,,,,,,,,,,,,,,AFNE09.jpg,AFSA17.jpg,AFNE12.jpg,AFSA20.jpg,AFSA20.jpg,FS,4,num_4,16,num_4,0.30017566937,,,2017_Jun_05_1300,60.0011354061,FEMA4ImagesEEG,001,100552,
AFNE01.JPG,AFNE01.JPG,AFNE01.JPG,AFNE01.JPG,AFNE01.JPG,AFNE01.JPG,,,,,,,,,4,4,44,7,,,,,,,,,,,,,,,AFNE03.jpg,AFNE02.jpg,AFSA01.jpg,AFSA20.jpg,AFSA20.jpg,FS,4,num_4,32,num_2,0.800126756309,,,2017_Jun_05_1300,60.0011354061,FEMA4ImagesEEG,001,100552,
AFNE01.JPG,AFNE01.JPG,AFNE01.JPG,AFNE01.JPG,AFNE01.JPG,AFNE01.JPG,,,,,,,,,4,5,45,8,,,,,,,,,,,,,,,AFNE11.jpg,AFNE02.jpg,AFSA06.jpg,AFSA13.jpg,AFSA06.jpg,FS,4,num_2,32,num_6,1.25007417123,,,2017_Jun_05_1300,60.0011354061,FEMA4ImagesEEG,001,100552,
AFNE01.JPG,AFNE01.JPG,AFNE01.JPG,AFNE01.JPG,AFNE01.JPG,AFNE01.JPG,,,,,,,,,4,6,46,6,,,,,,,,,,,,,,,AFSA02.jpg,AFNE14.jpg,AFSA17.jpg,AFNE02.jpg,AFNE02.jpg,FN,3,num_4,32,num_8,1.08346069371,,,2017_Jun_05_1300,60.0011354061,FEMA4ImagesEEG,001,100552,
AFNE01.JPG,AFNE01.JPG,AFNE01.JPG,AFNE01.JPG,AFNE01.JPG,AFNE01.JPG,,,,,,,,,4,7,47,1,,,,,,,,,,,,,,,AFSA19.jpg,AFNE09.jpg,AFNE14.jpg,AFSA12.jpg,AFNE14.jpg,FN,3,num_2,32,num_4,0.533465520944,,,2017_Jun_05_1300,60.0011354061,FEMA4ImagesEEG,001,100552,
AFNE01.JPG,AFNE01.JPG,AFNE01.JPG,AFNE01.JPG,AFNE01.JPG,AFNE01.JPG,,,,,,,,,4,8,48,5,,,,,,,,,,,,,,,AFSA12.jpg,AFSA07.jpg,AFNE04.jpg,AFNE01.jpg,AFNE04.jpg,FN,3,num_2,16,num_2,0.866777150892,,,2017_Jun_05_1300,60.0011354061,FEMA4ImagesEEG,001,100552,
AFNE01.JPG,AFNE01.JPG,AFNE01.JPG,AFNE01.JPG,AFNE01.JPG,AFNE01.JPG,,,,,,,,,4,9,49,3,,,,,,,,,,,,,,,AFNE15.jpg,AFSA13.jpg,AFSA10.jpg,AFNE01.jpg,AFSA13.jpg,FS,4,num_6,32,num_8,0.58347464609,,,2017_Jun_05_1300,60.0011354061,FEMA4ImagesEEG,001,100552,
AFNE01.JPG,AFNE01.JPG,AFNE01.JPG,AFNE01.JPG,AFNE01.JPG,AFNE01.JPG,,,,,,,,,5,0,50,5,,,,,,,,,,,,,,,AFSA19.jpg,AFNE10.jpg,AFNE06.jpg,AFSA04.jpg,AFSA04.jpg,FS,4,num_4,16,num_4,0.583499663742,,,2017_Jun_05_1300,60.0011354061,FEMA4ImagesEEG,001,100552,
AFNE01.JPG,AFNE01.JPG,AFNE01.JPG,AFNE01.JPG,AFNE01.JPG,AFNE01.JPG,,,,,,,,,5,1,51,2,,,,,,,,,,,,,,,AFNE09.jpg,AFSA20.jpg,AFNE17.jpg,AFSA13.jpg,AFNE09.jpg,FN,3,num_8,16,num_8,0.933441978646,,,2017_Jun_05_1300,60.0011354061,FEMA4ImagesEEG,001,100552,
AFNE01.JPG,AFNE01.JPG,AFNE01.JPG,AFNE01.JPG,AFNE01.JPG,AFNE01.JPG,,,,,,,,,5,2,52,4,,,,,,,,,,,,,,,AFNE12.jpg,AFSA12.jpg,AFNE08.jpg,AFSA20.jpg,AFSA20.jpg,FS,4,num_4,32,num_2,1.0501011773,,,2017_Jun_05_1300,60.0011354061,FEMA4ImagesEEG,001,100552,
AFNE01.JPG,AFNE01.JPG,AFNE01.JPG,AFNE01.JPG,AFNE01.JPG,AFNE01.JPG,,,,,,,,,5,3,53,3,,,,,,,,,,,,,,,AFSA08.jpg,AFNE13.jpg,AFSA03.jpg,AFNE05.jpg,AFNE13.jpg,FN,3,num_6,32,num_4,0.450180592714,,,2017_Jun_05_1300,60.0011354061,FEMA4ImagesEEG,001,100552,
AFNE01.JPG,AFNE01.JPG,AFNE01.JPG,AFNE01.JPG,AFNE01.JPG,AFNE01.JPG,,,,,,,,,5,4,54,7,,,,,,,,,,,,,,,AFNE15.jpg,AFSA01.jpg,AFSA08.jpg,AFNE09.jpg,AFSA01.jpg,FS,4,num_6,32,num_8,0.550135336351,,,2017_Jun_05_1300,60.0011354061,FEMA4ImagesEEG,001,100552,
AFNE01.JPG,AFNE01.JPG,AFNE01.JPG,AFNE01.JPG,AFNE01.JPG,AFNE01.JPG,,,,,,,,,5,5,55,8,,,,,,,,,,,,,,,AFSA19.jpg,AFSA03.jpg,AFNE05.jpg,AFNE14.jpg,AFSA19.jpg,FS,4,num_8,32,num_2,0.500185227487,,,2017_Jun_05_1300,60.0011354061,FEMA4ImagesEEG,001,100552,
AFNE01.JPG,AFNE01.JPG,AFNE01.JPG,AFNE01.JPG,AFNE01.JPG,AFNE01.JPG,,,,,,,,,5,6,56,0,,,,,,,,,,,,,,,AFSA19.jpg,AFSA08.jpg,AFNE07.jpg,AFNE10.jpg,AFNE07.jpg,FN,3,num_2,32,num_6,0.550173824886,,,2017_Jun_05_1300,60.0011354061,FEMA4ImagesEEG,001,100552,
AFNE01.JPG,AFNE01.JPG,AFNE01.JPG,AFNE01.JPG,AFNE01.JPG,AFNE01.JPG,,,,,,,,,5,7,57,9,,,,,,,,,,,,,,,AFSA08.jpg,AFNE10.jpg,AFSA07.jpg,AFNE14.jpg,AFSA08.jpg,FS,4,num_8,32,num_4,0.416749230586,,,2017_Jun_05_1300,60.0011354061,FEMA4ImagesEEG,001,100552,
AFNE01.JPG,AFNE01.JPG,AFNE01.JPG,AFNE01.JPG,AFNE01.JPG,AFNE01.JPG,,,,,,,,,5,8,58,1,,,,,,,,,,,,,,,AFSA02.jpg,AFSA15.jpg,AFNE15.jpg,AFNE01.jpg,AFNE01.jpg,FN,3,num_4,32,num_8,1.98338823859,,,2017_Jun_05_1300,60.0011354061,FEMA4ImagesEEG,001,100552,
AFNE01.JPG,AFNE01.JPG,AFNE01.JPG,AFNE01.JPG,AFNE01.JPG,AFNE01.JPG,,,,,,,,,5,9,59,6,,,,,,,,,,,,,,,AFNE17.jpg,AFSA20.jpg,AFSA11.jpg,AFNE11.jpg,AFNE11.jpg,FN,3,num_4,32,num_6,0.6334423956,,,2017_Jun_05_1300,60.0011354061,FEMA4ImagesEEG,001,100552,
,,,,,,,,,,,,,,,,,,,,,,,,,,,,,,,,,,,,,,,,,,,space,43.8967628041,2017_Jun_05_1300,60.0011354061,FEMA4ImagesEEG,001,100552,
AFNE01.JPG,AFNE01.JPG,AFNE01.JPG,AFNE01.JPG,AFNE01.JPG,AFNE01.JPG,,,,,,,,,,,,,0,0,0,8,,,,,,,,,,,AMNE18.jpg,AMSA17.jpg,AMSA09.jpg,AMNE20.jpg,AMSA17.jpg,MS,2,num_6,16,num_6,0.81679368508,,,2017_Jun_05_1300,60.0011354061,FEMA4ImagesEEG,001,100552,
AFNE01.JPG,AFNE01.JPG,AFNE01.JPG,AFNE01.JPG,AFNE01.JPG,AFNE01.JPG,,,,,,,,,,,,,0,1,1,7,,,,,,,,,,,AMNE09.jpg,AMNE20.jpg,AMSA08.jpg,AMSA05.jpg,AMNE09.jpg,MN,1,num_8,16,num_8,1.03345124819,,,2017_Jun_05_1300,60.0011354061,FEMA4ImagesEEG,001,100552,
AFNE01.JPG,AFNE01.JPG,AFNE01.JPG,AFNE01.JPG,AFNE01.JPG,AFNE01.JPG,,,,,,,,,,,,,0,2,2,3,,,,,,,,,,,AMNE10.jpg,AMSA08.jpg,AMSA03.jpg,AMNE08.jpg,AMSA03.jpg,MS,2,num_2,16,num_2,0.816752630286,,,2017_Jun_05_1300,60.0011354061,FEMA4ImagesEEG,001,100552,
AFNE01.JPG,AFNE01.JPG,AFNE01.JPG,AFNE01.JPG,AFNE01.JPG,AFNE01.JPG,,,,,,,,,,,,,0,3,3,9,,,,,,,,,,,AMNE18.jpg,AMSA14.jpg,AMSA06.jpg,AMNE04.jpg,AMNE04.jpg,MN,1,num_4,16,num_4,0.766815030249,,,2017_Jun_05_1300,60.0011354061,FEMA4ImagesEEG,001,100552,
AFNE01.JPG,AFNE01.JPG,AFNE01.JPG,AFNE01.JPG,AFNE01.JPG,AFNE01.JPG,,,,,,,,,,,,,0,4,4,2,,,,,,,,,,,AMNE20.jpg,AMNE15.jpg,AMSA11.jpg,AMSA13.jpg,AMNE15.jpg,MN,1,num_6,16,num_6,0.866783886449,,,2017_Jun_05_1300,60.0011354061,FEMA4ImagesEEG,001,100552,
AFNE01.JPG,AFNE01.JPG,AFNE01.JPG,AFNE01.JPG,AFNE01.JPG,AFNE01.JPG,,,,,,,,,,,,,0,5,5,6,,,,,,,,,,,AMSA02.jpg,AMNE11.jpg,AMNE14.jpg,AMSA03.jpg,AMNE14.jpg,MN,1,num_2,32,num_8,1.30007656058,,,2017_Jun_05_1300,60.0011354061,FEMA4ImagesEEG,001,100552,
AFNE01.JPG,AFNE01.JPG,AFNE01.JPG,AFNE01.JPG,AFNE01.JPG,AFNE01.JPG,,,,,,,,,,,,,0,6,6,5,,,,,,,,,,,AMSA11.jpg,AMNE01.jpg,AMSA20.jpg,AMNE04.jpg,AMSA11.jpg,MS,2,num_8,32,num_4,3.49992125831,,,2017_Jun_05_1300,60.0011354061,FEMA4ImagesEEG,001,100552,
AFNE01.JPG,AFNE01.JPG,AFNE01.JPG,AFNE01.JPG,AFNE01.JPG,AFNE01.JPG,,,,,,,,,,,,,0,7,7,1,,,,,,,,,,,AMNE07.jpg,AMNE01.jpg,AMSA12.jpg,AMSA16.jpg,AMSA16.jpg,MS,2,num_4,32,num_2,0.550166127272,,,2017_Jun_05_1300,60.0011354061,FEMA4ImagesEEG,001,100552,
AFNE01.JPG,AFNE01.JPG,AFNE01.JPG,AFNE01.JPG,AFNE01.JPG,AFNE01.JPG,,,,,,,,,,,,,0,8,8,0,,,,,,,,,,,AMSA01.jpg,AMNE14.jpg,AMNE02.jpg,AMSA07.jpg,AMNE02.jpg,MN,1,num_2,32,num_8,0.750162855722,,,2017_Jun_05_1300,60.0011354061,FEMA4ImagesEEG,001,100552,
AFNE01.JPG,AFNE01.JPG,AFNE01.JPG,AFNE01.JPG,AFNE01.JPG,AFNE01.JPG,,,,,,,,,,,,,0,9,9,4,,,,,,,,,,,AMSA15.jpg,AMSA10.jpg,AMNE11.jpg,AMNE12.jpg,AMSA10.jpg,MS,2,num_6,16,num_6,0.700273366645,,,2017_Jun_05_1300,60.0011354061,FEMA4ImagesEEG,001,100552,
AFNE01.JPG,AFNE01.JPG,AFNE01.JPG,AFNE01.JPG,AFNE01.JPG,AFNE01.JPG,,,,,,,,,,,,,1,0,10,0,,,,,,,,,,,AMNE10.jpg,AMSA13.jpg,AMSA04.jpg,AMNE18.jpg,AMSA04.jpg,MS,2,num_2,16,num_2,0.933402848197,,,2017_Jun_05_1300,60.0011354061,FEMA4ImagesEEG,001,100552,
AFNE01.JPG,AFNE01.JPG,AFNE01.JPG,AFNE01.JPG,AFNE01.JPG,AFNE01.JPG,,,,,,,,,,,,,1,1,11,9,,,,,,,,,,,AMNE17.jpg,AMNE06.jpg,AMSA19.jpg,AMSA16.jpg,AMSA16.jpg,MS,2,num_4,16,num_4,1.23345342907,,,2017_Jun_05_1300,60.0011354061,FEMA4ImagesEEG,001,100552,
AFNE01.JPG,AFNE01.JPG,AFNE01.JPG,AFNE01.JPG,AFNE01.JPG,AFNE01.JPG,,,,,,,,,,,,,1,2,12,1,,,,,,,,,,,AMSA13.jpg,AMSA10.jpg,AMNE08.jpg,AMNE09.jpg,AMNE09.jpg,MN,1,num_4,32,num_8,1.05008097063,,,2017_Jun_05_1300,60.0011354061,FEMA4ImagesEEG,001,100552,
AFNE01.JPG,AFNE01.JPG,AFNE01.JPG,AFNE01.JPG,AFNE01.JPG,AFNE01.JPG,,,,,,,,,,,,,1,3,13,4,,,,,,,,,,,AMSA02.jpg,AMSA10.jpg,AMNE05.jpg,AMNE19.jpg,AMNE19.jpg,MN,1,num_4,32,num_2,0.383488502121,,,2017_Jun_05_1300,60.0011354061,FEMA4ImagesEEG,001,100552,
AFNE01.JPG,AFNE01.JPG,AFNE01.JPG,AFNE01.JPG,AFNE01.JPG,AFNE01.JPG,,,,,,,,,,,,,1,4,14,3,,,,,,,,,,,AMSA19.jpg,AMSA13.jpg,AMNE08.jpg,AMNE17.jpg,AMNE08.jpg,MN,1,num_2,32,num_6,0.666772724595,,,2017_Jun_05_1300,60.0011354061,FEMA4ImagesEEG,001,100552,
AFNE01.JPG,AFNE01.JPG,AFNE01.JPG,AFNE01.JPG,AFNE01.JPG,AFNE01.JPG,,,,,,,,,,,,,1,5,15,5,,,,,,,,,,,AMSA15.jpg,AMNE06.jpg,AMSA13.jpg,AMNE08.jpg,AMNE06.jpg,MN,1,num_6,32,num_4,0.450205610367,,,2017_Jun_05_1300,60.0011354061,FEMA4ImagesEEG,001,100552,
AFNE01.JPG,AFNE01.JPG,AFNE01.JPG,AFNE01.JPG,AFNE01.JPG,AFNE01.JPG,,,,,,,,,,,,,1,6,16,7,,,,,,,,,,,AMNE04.jpg,AMSA01.jpg,AMNE15.jpg,AMSA14.jpg,AMNE04.jpg,MN,1,num_8,32,num_6,0.983452707529,,,2017_Jun_05_1300,60.0011354061,FEMA4ImagesEEG,001,100552,
AFNE01.JPG,AFNE01.JPG,AFNE01.JPG,AFNE01.JPG,AFNE01.JPG,AFNE01.JPG,,,,,,,,,,,,,1,7,17,8,,,,,,,,,,,AMSA07.jpg,AMSA09.jpg,AMNE19.jpg,AMNE20.jpg,AMSA09.jpg,MS,2,num_6,32,num_8,0.983527119039,,,2017_Jun_05_1300,60.0011354061,FEMA4ImagesEEG,001,100552,
AFNE01.JPG,AFNE01.JPG,AFNE01.JPG,AFNE01.JPG,AFNE01.JPG,AFNE01.JPG,,,,,,,,,,,,,1,8,18,6,,,,,,,,,,,AMNE11.jpg,AMSA10.jpg,AMNE15.jpg,AMSA14.jpg,AMSA14.jpg,MS,2,num_4,16,num_4,1.1167506096,,,2017_Jun_05_1300,60.0011354061,FEMA4ImagesEEG,001,100552,
AFNE01.JPG,AFNE01.JPG,AFNE01.JPG,AFNE01.JPG,AFNE01.JPG,AFNE01.JPG,,,,,,,,,,,,,1,9,19,2,,,,,,,,,,,AMNE15.jpg,AMSA12.jpg,AMSA09.jpg,AMNE19.jpg,AMNE15.jpg,MN,1,num_8,32,num_2,1.25011009397,,,2017_Jun_05_1300,60.0011354061,FEMA4ImagesEEG,001,100552,
AFNE01.JPG,AFNE01.JPG,AFNE01.JPG,AFNE01.JPG,AFNE01.JPG,AFNE01.JPG,,,,,,,,,,,,,2,0,20,6,,,,,,,,,,,AMNE17.jpg,AMNE02.jpg,AMSA05.jpg,AMSA04.jpg,AMSA04.jpg,MS,2,num_4,32,num_8,1.59976117709,,,2017_Jun_05_1300,60.0011354061,FEMA4ImagesEEG,001,100552,
AFNE01.JPG,AFNE01.JPG,AFNE01.JPG,AFNE01.JPG,AFNE01.JPG,AFNE01.JPG,,,,,,,,,,,,,2,1,21,8,,,,,,,,,,,AMNE20.jpg,AMNE09.jpg,AMSA04.jpg,AMSA12.jpg,AMSA12.jpg,MS,2,num_4,16,num_4,0.633499487303,,,2017_Jun_05_1300,60.0011354061,FEMA4ImagesEEG,001,100552,
AFNE01.JPG,AFNE01.JPG,AFNE01.JPG,AFNE01.JPG,AFNE01.JPG,AFNE01.JPG,,,,,,,,,,,,,2,2,22,5,,,,,,,,,,,AMNE05.jpg,AMSA19.jpg,AMSA06.jpg,AMNE08.jpg,AMSA19.jpg,MS,2,num_6,16,num_6,0.933462826768,,,2017_Jun_05_1300,60.0011354061,FEMA4ImagesEEG,001,100552,
AFNE01.JPG,AFNE01.JPG,AFNE01.JPG,AFNE01.JPG,AFNE01.JPG,AFNE01.JPG,,,,,,,,,,,,,2,3,23,4,,,,,,,,,,,AMSA20.jpg,AMNE20.jpg,AMSA09.jpg,AMNE12.jpg,AMNE20.jpg,MN,1,num_6,32,num_8,0.916750032455,,,2017_Jun_05_1300,60.0011354061,FEMA4ImagesEEG,001,100552,
AFNE01.JPG,AFNE01.JPG,AFNE01.JPG,AFNE01.JPG,AFNE01.JPG,AFNE01.JPG,,,,,,,,,,,,,2,4,24,7,,,,,,,,,,,AMNE01.jpg,AMNE04.jpg,AMSA08.jpg,AMSA18.jpg,AMSA08.jpg,MS,2,num_2,32,num_6,1.23354387772,,,2017_Jun_05_1300,60.0011354061,FEMA4ImagesEEG,001,100552,
AFNE01.JPG,AFNE01.JPG,AFNE01.JPG,AFNE01.JPG,AFNE01.JPG,AFNE01.JPG,,,,,,,,,,,,,2,5,25,1,,,,,,,,,,,AMNE05.jpg,AMSA20.jpg,AMNE02.jpg,AMSA04.jpg,AMSA04.jpg,MS,2,num_4,16,num_4,0.83348755585,,,2017_Jun_05_1300,60.0011354061,FEMA4ImagesEEG,001,100552,
AFNE01.JPG,AFNE01.JPG,AFNE01.JPG,AFNE01.JPG,AFNE01.JPG,AFNE01.JPG,,,,,,,,,,,,,2,6,26,0,,,,,,,,,,,AMSA15.jpg,AMNE11.jpg,AMSA18.jpg,AMNE04.jpg,AMNE04.jpg,MN,1,num_4,32,num_2,0.450162631227,,,2017_Jun_05_1300,60.0011354061,FEMA4ImagesEEG,001,100552,
AFNE01.JPG,AFNE01.JPG,AFNE01.JPG,AFNE01.JPG,AFNE01.JPG,AFNE01.JPG,,,,,,,,,,,,,2,7,27,9,,,,,,,,,,,AMNE05.jpg,AMSA18.jpg,AMNE02.jpg,AMSA01.jpg,AMNE05.jpg,MN,1,num_8,16,num_8,0.800167490263,,,2017_Jun_05_1300,60.0011354061,FEMA4ImagesEEG,001,100552,
AFNE01.JPG,AFNE01.JPG,AFNE01.JPG,AFNE01.JPG,AFNE01.JPG,AFNE01.JPG,,,,,,,,,,,,,2,8,28,3,,,,,,,,,,,AMNE09.jpg,AMSA05.jpg,AMNE14.jpg,AMSA13.jpg,AMNE14.jpg,MN,1,num_2,32,num_6,0.416666479548,,,2017_Jun_05_1300,60.0011354061,FEMA4ImagesEEG,001,100552,
AFNE01.JPG,AFNE01.JPG,AFNE01.JPG,AFNE01.JPG,AFNE01.JPG,AFNE01.JPG,,,,,,,,,,,,,2,9,29,2,,,,,,,,,,,AMSA08.jpg,AMSA11.jpg,AMNE08.jpg,AMNE05.jpg,AMSA11.jpg,MS,2,num_6,32,num_4,1.16669943556,,,2017_Jun_05_1300,60.0011354061,FEMA4ImagesEEG,001,100552,
AFNE01.JPG,AFNE01.JPG,AFNE01.JPG,AFNE01.JPG,AFNE01.JPG,AFNE01.JPG,,,,,,,,,,,,,3,0,30,9,,,,,,,,,,,AMNE18.jpg,AMSA19.jpg,AMSA12.jpg,AMNE09.jpg,AMSA19.jpg,MS,2,num_6,32,num_2,1.81671574502,,,2017_Jun_05_1300,60.0011354061,FEMA4ImagesEEG,001,100552,
AFNE01.JPG,AFNE01.JPG,AFNE01.JPG,AFNE01.JPG,AFNE01.JPG,AFNE01.JPG,,,,,,,,,,,,,3,1,31,3,,,,,,,,,,,AMSA17.jpg,AMNE05.jpg,AMNE16.jpg,AMSA07.jpg,AMSA07.jpg,MS,2,num_4,32,num_8,0.783169237664,,,2017_Jun_05_1300,60.0011354061,FEMA4ImagesEEG,001,100552,
AFNE01.JPG,AFNE01.JPG,AFNE01.JPG,AFNE01.JPG,AFNE01.JPG,AFNE01.JPG,,,,,,,,,,,,,3,2,32,6,,,,,,,,,,,AMNE18.jpg,AMSA14.jpg,AMSA08.jpg,AMNE12.jpg,AMSA08.jpg,MS,2,num_2,32,num_8,0.900221663294,,,2017_Jun_05_1300,60.0011354061,FEMA4ImagesEEG,001,100552,
AFNE01.JPG,AFNE01.JPG,AFNE01.JPG,AFNE01.JPG,AFNE01.JPG,AFNE01.JPG,,,,,,,,,,,,,3,3,33,0,,,,,,,,,,,AMSA15.jpg,AMNE11.jpg,AMSA01.jpg,AMNE01.jpg,AMSA15.jpg,MS,2,num_8,32,num_6,0.500037687132,,,2017_Jun_05_1300,60.0011354061,FEMA4ImagesEEG,001,100552,
AFNE01.JPG,AFNE01.JPG,AFNE01.JPG,AFNE01.JPG,AFNE01.JPG,AFNE01.JPG,,,,,,,,,,,,,3,4,34,5,,,,,,,,,,,AMNE12.jpg,AMSA09.jpg,AMSA19.jpg,AMNE10.jpg,AMSA09.jpg,MS,2,num_6,32,num_2,0.900133780669,,,2017_Jun_05_1300,60.0011354061,FEMA4ImagesEEG,001,100552,
AFNE01.JPG,AFNE01.JPG,AFNE01.JPG,AFNE01.JPG,AFNE01.JPG,AFNE01.JPG,,,,,,,,,,,,,3,5,35,2,,,,,,,,,,,AMNE03.jpg,AMNE10.jpg,AMSA08.jpg,AMSA01.jpg,AMNE10.jpg,MN,1,num_6,32,num_4,1.75008202926,,,2017_Jun_05_1300,60.0011354061,FEMA4ImagesEEG,001,100552,
AFNE01.JPG,AFNE01.JPG,AFNE01.JPG,AFNE01.JPG,AFNE01.JPG,AFNE01.JPG,,,,,,,,,,,,,3,6,36,1,,,,,,,,,,,AMNE11.jpg,AMSA15.jpg,AMNE05.jpg,AMSA12.jpg,AMNE05.jpg,MN,1,num_2,32,num_8,3.58347528754,,,2017_Jun_05_1300,60.0011354061,FEMA4ImagesEEG,001,100552,
AFNE01.JPG,AFNE01.JPG,AFNE01.JPG,AFNE01.JPG,AFNE01.JPG,AFNE01.JPG,,,,,,,,,,,,,3,7,37,7,,,,,,,,,,,AMNE18.jpg,AMNE01.jpg,AMSA03.jpg,AMSA11.jpg,AMNE01.jpg,MN,1,num_6,32,num_2,0.566786548588,,,2017_Jun_05_1300,60.0011354061,FEMA4ImagesEEG,001,100552,
AFNE01.JPG,AFNE01.JPG,AFNE01.JPG,AFNE01.JPG,AFNE01.JPG,AFNE01.JPG,,,,,,,,,,,,,3,8,38,4,,,,,,,,,,,AMNE04.jpg,AMNE10.jpg,AMSA13.jpg,AMSA01.jpg,AMSA01.jpg,MS,2,num_4,32,num_6,0.366819649003,,,2017_Jun_05_1300,60.0011354061,FEMA4ImagesEEG,001,100552,
AFNE01.JPG,AFNE01.JPG,AFNE01.JPG,AFNE01.JPG,AFNE01.JPG,AFNE01.JPG,,,,,,,,,,,,,3,9,39,8,,,,,,,,,,,AMNE17.jpg,AMSA03.jpg,AMNE09.jpg,AMSA14.jpg,AMSA03.jpg,MS,2,num_6,32,num_8,0.41684833914,,,2017_Jun_05_1300,60.0011354061,FEMA4ImagesEEG,001,100552,
AFNE01.JPG,AFNE01.JPG,AFNE01.JPG,AFNE01.JPG,AFNE01.JPG,AFNE01.JPG,,,,,,,,,,,,,4,0,40,4,,,,,,,,,,,AMSA15.jpg,AMSA14.jpg,AMNE18.jpg,AMNE19.jpg,AMSA14.jpg,MS,2,num_6,16,num_6,0.566766662756,,,2017_Jun_05_1300,60.0011354061,FEMA4ImagesEEG,001,100552,
AFNE01.JPG,AFNE01.JPG,AFNE01.JPG,AFNE01.JPG,AFNE01.JPG,AFNE01.JPG,,,,,,,,,,,,,4,1,41,8,,,,,,,,,,,AMNE20.jpg,AMNE09.jpg,AMSA19.jpg,AMSA18.jpg,AMNE09.jpg,MN,1,num_6,32,num_8,0.916774408426,,,2017_Jun_05_1300,60.0011354061,FEMA4ImagesEEG,001,100552,
AFNE01.JPG,AFNE01.JPG,AFNE01.JPG,AFNE01.JPG,AFNE01.JPG,AFNE01.JPG,,,,,,,,,,,,,4,2,42,2,,,,,,,,,,,AMSA02.jpg,AMSA13.jpg,AMNE07.jpg,AMNE05.jpg,AMNE05.jpg,MN,1,num_4,32,num_2,2.04977466422,,,2017_Jun_05_1300,60.0011354061,FEMA4ImagesEEG,001,100552,
AFNE01.JPG,AFNE01.JPG,AFNE01.JPG,AFNE01.JPG,AFNE01.JPG,AFNE01.JPG,,,,,,,,,,,,,4,3,43,3,,,,,,,,,,,AMSA08.jpg,AMSA19.jpg,AMNE15.jpg,AMNE06.jpg,AMSA19.jpg,MS,2,num_6,32,num_8,0.333502470283,,,2017_Jun_05_1300,60.0011354061,FEMA4ImagesEEG,001,100552,
AFNE01.JPG,AFNE01.JPG,AFNE01.JPG,AFNE01.JPG,AFNE01.JPG,AFNE01.JPG,,,,,,,,,,,,,4,4,44,0,,,,,,,,,,,AMSA17.jpg,AMSA20.jpg,AMNE18.jpg,AMNE17.jpg,AMNE17.jpg,MN,1,num_4,32,num_6,0.666784912813,,,2017_Jun_05_1300,60.0011354061,FEMA4ImagesEEG,001,100552,
AFNE01.JPG,AFNE01.JPG,AFNE01.JPG,AFNE01.JPG,AFNE01.JPG,AFNE01.JPG,,,,,,,,,,,,,4,5,45,7,,,,,,,,,,,AMNE17.jpg,AMSA06.jpg,AMNE07.jpg,AMSA09.jpg,AMSA06.jpg,MS,2,num_6,32,num_4,0.733478607144,,,2017_Jun_05_1300,60.0011354061,FEMA4ImagesEEG,001,100552,
AFNE01.JPG,AFNE01.JPG,AFNE01.JPG,AFNE01.JPG,AFNE01.JPG,AFNE01.JPG,,,,,,,,,,,,,4,6,46,9,,,,,,,,,,,AMNE10.jpg,AMNE11.jpg,AMSA12.jpg,AMSA03.jpg,AMSA12.jpg,MS,2,num_2,16,num_2,0.716792113381,,,2017_Jun_05_1300,60.0011354061,FEMA4ImagesEEG,001,100552,
AFNE01.JPG,AFNE01.JPG,AFNE01.JPG,AFNE01.JPG,AFNE01.JPG,AFNE01.JPG,,,,,,,,,,,,,4,7,47,6,,,,,,,,,,,AMSA18.jpg,AMNE01.jpg,AMSA14.jpg,AMNE05.jpg,AMNE05.jpg,MN,1,num_4,32,num_8,0.833461575909,,,2017_Jun_05_1300,60.0011354061,FEMA4ImagesEEG,001,100552,
AFNE01.JPG,AFNE01.JPG,AFNE01.JPG,AFNE01.JPG,AFNE01.JPG,AFNE01.JPG,,,,,,,,,,,,,4,8,48,1,,,,,,,,,,,AMNE07.jpg,AMSA07.jpg,AMSA04.jpg,AMNE12.jpg,AMNE12.jpg,MN,1,num_4,32,num_2,0.750171515625,,,2017_Jun_05_1300,60.0011354061,FEMA4ImagesEEG,001,100552,
AFNE01.JPG,AFNE01.JPG,AFNE01.JPG,AFNE01.JPG,AFNE01.JPG,AFNE01.JPG,,,,,,,,,,,,,4,9,49,5,,,,,,,,,,,AMNE13.jpg,AMNE14.jpg,AMSA09.jpg,AMSA16.jpg,AMSA16.jpg,MS,2,num_4,16,num_4,0.633489223663,,,2017_Jun_05_1300,60.0011354061,FEMA4ImagesEEG,001,100552,
AFNE01.JPG,AFNE01.JPG,AFNE01.JPG,AFNE01.JPG,AFNE01.JPG,AFNE01.JPG,,,,,,,,,,,,,5,0,50,0,,,,,,,,,,,AMSA10.jpg,AMSA04.jpg,AMNE15.jpg,AMNE09.jpg,AMNE15.jpg,MN,1,num_2,32,num_8,0.400199371856,,,2017_Jun_05_1300,60.0011354061,FEMA4ImagesEEG,001,100552,
AFNE01.JPG,AFNE01.JPG,AFNE01.JPG,AFNE01.JPG,AFNE01.JPG,AFNE01.JPG,,,,,,,,,,,,,5,1,51,6,,,,,,,,,,,AMSA01.jpg,AMNE19.jpg,AMNE20.jpg,AMSA15.jpg,AMSA01.jpg,MS,2,num_8,32,num_2,0.500147379935,,,2017_Jun_05_1300,60.0011354061,FEMA4ImagesEEG,001,100552,
AFNE01.JPG,AFNE01.JPG,AFNE01.JPG,AFNE01.JPG,AFNE01.JPG,AFNE01.JPG,,,,,,,,,,,,,5,2,52,2,,,,,,,,,,,AMSA07.jpg,AMSA05.jpg,AMNE20.jpg,AMNE11.jpg,AMNE11.jpg,MN,1,num_4,32,num_6,0.566792963305,,,2017_Jun_05_1300,60.0011354061,FEMA4ImagesEEG,001,100552,
AFNE01.JPG,AFNE01.JPG,AFNE01.JPG,AFNE01.JPG,AFNE01.JPG,AFNE01.JPG,,,,,,,,,,,,,5,3,53,5,,,,,,,,,,,AMNE15.jpg,AMSA03.jpg,AMSA07.jpg,AMNE01.jpg,AMNE01.jpg,MN,1,num_4,32,num_8,1.70009952551,,,2017_Jun_05_1300,60.0011354061,FEMA4ImagesEEG,001,100552,
AFNE01.JPG,AFNE01.JPG,AFNE01.JPG,AFNE01.JPG,AFNE01.JPG,AFNE01.JPG,,,,,,,,,,,,,5,4,54,1,,,,,,,,,,,AMNE16.jpg,AMNE19.jpg,AMSA15.jpg,AMSA18.jpg,AMSA15.jpg,MS,2,num_2,32,num_4,0.633456829004,,,2017_Jun_05_1300,60.0011354061,FEMA4ImagesEEG,001,100552,
AFNE01.JPG,AFNE01.JPG,AFNE01.JPG,AFNE01.JPG,AFNE01.JPG,AFNE01.JPG,,,,,,,,,,,,,5,5,55,4,,,,,,,,,,,AMNE04.jpg,AMSA07.jpg,AMNE13.jpg,AMSA06.jpg,AMSA06.jpg,MS,2,num_4,32,num_2,0.783457903424,,,2017_Jun_05_1300,60.0011354061,FEMA4ImagesEEG,001,100552,
AFNE01.JPG,AFNE01.JPG,AFNE01.JPG,AFNE01.JPG,AFNE01.JPG,AFNE01.JPG,,,,,,,,,,,,,5,6,56,3,,,,,,,,,,,AMNE07.jpg,AMSA11.jpg,AMSA05.jpg,AMNE01.jpg,AMSA11.jpg,MS,2,num_6,32,num_8,0.483469546307,,,2017_Jun_05_1300,60.0011354061,FEMA4ImagesEEG,001,100552,
AFNE01.JPG,AFNE01.JPG,AFNE01.JPG,AFNE01.JPG,AFNE01.JPG,AFNE01.JPG,,,,,,,,,,,,,5,7,57,8,,,,,,,,,,,AMNE10.jpg,AMNE02.jpg,AMSA05.jpg,AMSA01.jpg,AMNE02.jpg,MN,1,num_6,16,num_6,0.633425396401,,,2017_Jun_05_1300,60.0011354061,FEMA4ImagesEEG,001,100552,
AFNE01.JPG,AFNE01.JPG,AFNE01.JPG,AFNE01.JPG,AFNE01.JPG,AFNE01.JPG,,,,,,,,,,,,,5,8,58,7,,,,,,,,,,,AMNE19.jpg,AMNE08.jpg,AMSA18.jpg,AMSA03.jpg,AMNE19.jpg,MN,1,num_8,32,num_2,1.51668922021,,,2017_Jun_05_1300,60.0011354061,FEMA4ImagesEEG,001,100552,
AFNE01.JPG,AFNE01.JPG,AFNE01.JPG,AFNE01.JPG,AFNE01.JPG,AFNE01.JPG,,,,,,,,,,,,,5,9,59,9,,,,,,,,,,,AMNE05.jpg,AMSA16.jpg,AMNE04.jpg,AMSA13.jpg,AMSA16.jpg,MS,2,num_6,32,num_4,1.66668355907,,,2017_Jun_05_1300,60.0011354061,FEMA4ImagesEEG,001,100552,
,,,,,,,,,,,,,,,,,,,,,,,,,,,,,,,,,,,,,,,,,,,space,88.5763920674,2017_Jun_05_1300,60.0011354061,FEMA4ImagesEEG,001,100552,
AFNE01.JPG,AFNE01.JPG,AFNE01.JPG,AFNE01.JPG,AFNE01.JPG,AFNE01.JPG,,,,,,,,,,,,,,,,,0,0,0,2,,,,,,,AFNE04.jpg,AFSA17.jpg,AFSA11.jpg,AFNE15.jpg,AFNE15.jpg,FN,3,num_4,32,num_8,0.733434344875,,,2017_Jun_05_1300,60.0011354061,FEMA4ImagesEEG,001,100552,
AFNE01.JPG,AFNE01.JPG,AFNE01.JPG,AFNE01.JPG,AFNE01.JPG,AFNE01.JPG,,,,,,,,,,,,,,,,,0,1,1,0,,,,,,,AFNE16.jpg,AFSA17.jpg,AFSA02.jpg,AFNE02.jpg,AFSA02.jpg,FS,4,num_2,16,num_2,0.583495814819,,,2017_Jun_05_1300,60.0011354061,FEMA4ImagesEEG,001,100552,
AFNE01.JPG,AFNE01.JPG,AFNE01.JPG,AFNE01.JPG,AFNE01.JPG,AFNE01.JPG,,,,,,,,,,,,,,,,,0,2,2,5,,,,,,,AFNE17.jpg,AFNE14.jpg,AFSA03.jpg,AFSA02.jpg,AFSA02.jpg,FS,4,num_4,16,num_4,0.816797213163,,,2017_Jun_05_1300,60.0011354061,FEMA4ImagesEEG,001,100552,
AFNE01.JPG,AFNE01.JPG,AFNE01.JPG,AFNE01.JPG,AFNE01.JPG,AFNE01.JPG,,,,,,,,,,,,,,,,,0,3,3,7,,,,,,,AFNE05.jpg,AFNE08.jpg,AFSA07.jpg,AFSA16.jpg,AFSA07.jpg,FS,4,num_2,32,num_6,0.500155398389,,,2017_Jun_05_1300,60.0011354061,FEMA4ImagesEEG,001,100552,
AFNE01.JPG,AFNE01.JPG,AFNE01.JPG,AFNE01.JPG,AFNE01.JPG,AFNE01.JPG,,,,,,,,,,,,,,,,,0,4,4,4,,,,,,,AFSA12.jpg,AFNE05.jpg,AFNE20.jpg,AFSA14.jpg,AFSA12.jpg,FS,4,num_8,16,num_8,0.833494932856,,,2017_Jun_05_1300,60.0011354061,FEMA4ImagesEEG,001,100552,
AFNE01.JPG,AFNE01.JPG,AFNE01.JPG,AFNE01.JPG,AFNE01.JPG,AFNE01.JPG,,,,,,,,,,,,,,,,,0,5,5,9,,,,,,,AFSA12.jpg,AFSA04.jpg,AFNE11.jpg,AFNE09.jpg,AFSA12.jpg,FS,4,num_8,32,num_2,0.850170521298,,,2017_Jun_05_1300,60.0011354061,FEMA4ImagesEEG,001,100552,
AFNE01.JPG,AFNE01.JPG,AFNE01.JPG,AFNE01.JPG,AFNE01.JPG,AFNE01.JPG,,,,,,,,,,,,,,,,,0,6,6,8,,,,,,,AFSA12.jpg,AFNE03.jpg,AFSA18.jpg,AFNE17.jpg,AFNE17.jpg,FN,3,num_4,16,num_4,0.550185051048,,,2017_Jun_05_1300,60.0011354061,FEMA4ImagesEEG,001,100552,
AFNE01.JPG,AFNE01.JPG,AFNE01.JPG,AFNE01.JPG,AFNE01.JPG,AFNE01.JPG,,,,,,,,,,,,,,,,,0,7,7,1,,,,,,,AFSA14.jpg,AFNE13.jpg,AFSA03.jpg,AFNE01.jpg,AFNE13.jpg,FN,3,num_6,16,num_6,0.516815270763,,,2017_Jun_05_1300,60.0011354061,FEMA4ImagesEEG,001,100552,
AFNE01.JPG,AFNE01.JPG,AFNE01.JPG,AFNE01.JPG,AFNE01.JPG,AFNE01.JPG,,,,,,,,,,,,,,,,,0,8,8,6,,,,,,,AFNE08.jpg,AFSA08.jpg,AFNE02.jpg,AFSA01.jpg,AFSA01.jpg,FS,4,num_4,16,num_4,0.633497242117,,,2017_Jun_05_1300,60.0011354061,FEMA4ImagesEEG,001,100552,
AFNE01.JPG,AFNE01.JPG,AFNE01.JPG,AFNE01.JPG,AFNE01.JPG,AFNE01.JPG,,,,,,,,,,,,,,,,,0,9,9,3,,,,,,,AFSA18.jpg,AFSA03.jpg,AFNE11.jpg,AFNE07.jpg,AFSA03.jpg,FS,4,num_6,32,num_8,0.716797245201,,,2017_Jun_05_1300,60.0011354061,FEMA4ImagesEEG,001,100552,
AFNE01.JPG,AFNE01.JPG,AFNE01.JPG,AFNE01.JPG,AFNE01.JPG,AFNE01.JPG,,,,,,,,,,,,,,,,,1,0,10,5,,,,,,,AFNE07.jpg,AFSA01.jpg,AFSA13.jpg,AFNE03.jpg,AFSA13.jpg,FS,4,num_2,16,num_2,0.683510215953,,,2017_Jun_05_1300,60.0011354061,FEMA4ImagesEEG,001,100552,
AFNE01.JPG,AFNE01.JPG,AFNE01.JPG,AFNE01.JPG,AFNE01.JPG,AFNE01.JPG,,,,,,,,,,,,,,,,,1,1,11,4,,,,,,,AFNE13.jpg,AFSA02.jpg,AFNE18.jpg,AFSA15.jpg,AFSA15.jpg,FS,4,num_4,16,num_4,0.850141975563,,,2017_Jun_05_1300,60.0011354061,FEMA4ImagesEEG,001,100552,
AFNE01.JPG,AFNE01.JPG,AFNE01.JPG,AFNE01.JPG,AFNE01.JPG,AFNE01.JPG,,,,,,,,,,,,,,,,,1,2,12,7,,,,,,,AFNE03.jpg,AFNE20.jpg,AFSA11.jpg,AFSA07.jpg,AFSA07.jpg,FS,4,num_4,32,num_8,0.91676350357,,,2017_Jun_05_1300,60.0011354061,FEMA4ImagesEEG,001,100552,
AFNE01.JPG,AFNE01.JPG,AFNE01.JPG,AFNE01.JPG,AFNE01.JPG,AFNE01.JPG,,,,,,,,,,,,,,,,,1,3,13,1,,,,,,,AFSA20.jpg,AFNE12.jpg,AFSA11.jpg,AFNE07.jpg,AFSA20.jpg,FS,4,num_8,32,num_2,0.45013344381,,,2017_Jun_05_1300,60.0011354061,FEMA4ImagesEEG,001,100552,
AFNE01.JPG,AFNE01.JPG,AFNE01.JPG,AFNE01.JPG,AFNE01.JPG,AFNE01.JPG,,,,,,,,,,,,,,,,,1,4,14,9,,,,,,,AFNE19.jpg,AFNE09.jpg,AFSA01.jpg,AFSA05.jpg,AFNE19.jpg,FN,3,num_8,32,num_6,0.450163914124,,,2017_Jun_05_1300,60.0011354061,FEMA4ImagesEEG,001,100552,
AFNE01.JPG,AFNE01.JPG,AFNE01.JPG,AFNE01.JPG,AFNE01.JPG,AFNE01.JPG,,,,,,,,,,,,,,,,,1,5,15,0,,,,,,,AFSA13.jpg,AFNE19.jpg,AFSA15.jpg,AFNE04.jpg,AFSA13.jpg,FS,4,num_8,32,num_4,1.76673805271,,,2017_Jun_05_1300,60.0011354061,FEMA4ImagesEEG,001,100552,
AFNE01.JPG,AFNE01.JPG,AFNE01.JPG,AFNE01.JPG,AFNE01.JPG,AFNE01.JPG,,,,,,,,,,,,,,,,,1,6,16,6,,,,,,,AFNE06.jpg,AFSA01.jpg,AFNE13.jpg,AFSA10.jpg,AFNE13.jpg,FN,3,num_2,32,num_8,1.13350157207,,,2017_Jun_05_1300,60.0011354061,FEMA4ImagesEEG,001,100552,
AFNE01.JPG,AFNE01.JPG,AFNE01.JPG,AFNE01.JPG,AFNE01.JPG,AFNE01.JPG,,,,,,,,,,,,,,,,,1,7,17,3,,,,,,,AFNE04.jpg,AFSA12.jpg,AFNE10.jpg,AFSA20.jpg,AFSA20.jpg,FS,4,num_4,16,num_4,0.700159183238,,,2017_Jun_05_1300,60.0011354061,FEMA4ImagesEEG,001,100552,
AFNE01.JPG,AFNE01.JPG,AFNE01.JPG,AFNE01.JPG,AFNE01.JPG,AFNE01.JPG,,,,,,,,,,,,,,,,,1,8,18,2,,,,,,,AFNE06.jpg,AFSA08.jpg,AFNE03.jpg,AFSA03.jpg,AFNE03.jpg,FN,3,num_2,16,num_2,0.916745862691,,,2017_Jun_05_1300,60.0011354061,FEMA4ImagesEEG,001,100552,
AFNE01.JPG,AFNE01.JPG,AFNE01.JPG,AFNE01.JPG,AFNE01.JPG,AFNE01.JPG,,,,,,,,,,,,,,,,,1,9,19,8,,,,,,,AFNE17.jpg,AFSA09.jpg,AFNE03.jpg,AFSA03.jpg,AFSA09.jpg,FS,4,num_6,32,num_8,0.716767416336,,,2017_Jun_05_1300,60.0011354061,FEMA4ImagesEEG,001,100552,
AFNE01.JPG,AFNE01.JPG,AFNE01.JPG,AFNE01.JPG,AFNE01.JPG,AFNE01.JPG,,,,,,,,,,,,,,,,,2,0,20,0,,,,,,,AFNE18.jpg,AFSA17.jpg,AFNE05.jpg,AFSA15.jpg,AFSA15.jpg,FS,4,num_4,16,num_4,1.06675591785,,,2017_Jun_05_1300,60.0011354061,FEMA4ImagesEEG,001,100552,
AFNE01.JPG,AFNE01.JPG,AFNE01.JPG,AFNE01.JPG,AFNE01.JPG,AFNE01.JPG,,,,,,,,,,,,,,,,,2,1,21,8,,,,,,,AFSA18.jpg,AFNE02.jpg,AFSA16.jpg,AFNE09.jpg,AFNE09.jpg,FN,3,num_4,32,num_8,1.6167613545,,,2017_Jun_05_1300,60.0011354061,FEMA4ImagesEEG,001,100552,
AFNE01.JPG,AFNE01.JPG,AFNE01.JPG,AFNE01.JPG,AFNE01.JPG,AFNE01.JPG,,,,,,,,,,,,,,,,,2,2,22,4,,,,,,,AFSA17.jpg,AFNE18.jpg,AFNE11.jpg,AFSA05.jpg,AFSA17.jpg,FS,4,num_8,32,num_2,0.383543990087,,,2017_Jun_05_1300,60.0011354061,FEMA4ImagesEEG,001,100552,
AFNE01.JPG,AFNE01.JPG,AFNE01.JPG,AFNE01.JPG,AFNE01.JPG,AFNE01.JPG,,,,,,,,,,,,,,,,,2,3,23,6,,,,,,,AFSA16.jpg,AFNE06.jpg,AFSA14.jpg,AFNE04.jpg,AFNE06.jpg,FN,3,num_6,16,num_6,0.683531705523,,,2017_Jun_05_1300,60.0011354061,FEMA4ImagesEEG,001,100552,
AFNE01.JPG,AFNE01.JPG,AFNE01.JPG,AFNE01.JPG,AFNE01.JPG,AFNE01.JPG,,,,,,,,,,,,,,,,,2,4,24,2,,,,,,,AFNE11.jpg,AFNE18.jpg,AFSA05.jpg,AFSA12.jpg,AFSA05.jpg,FS,4,num_2,32,num_8,0.9500967192,,,2017_Jun_05_1300,60.0011354061,FEMA4ImagesEEG,001,100552,
AFNE01.JPG,AFNE01.JPG,AFNE01.JPG,AFNE01.JPG,AFNE01.JPG,AFNE01.JPG,,,,,,,,,,,,,,,,,2,5,25,1,,,,,,,AFSA07.jpg,AFNE11.jpg,AFNE17.jpg,AFSA16.jpg,AFSA16.jpg,FS,4,num_4,32,num_6,0.850117278518,,,2017_Jun_05_1300,60.0011354061,FEMA4ImagesEEG,001,100552,
AFNE01.JPG,AFNE01.JPG,AFNE01.JPG,AFNE01.JPG,AFNE01.JPG,AFNE01.JPG,,,,,,,,,,,,,,,,,2,6,26,5,,,,,,,AFSA03.jpg,AFSA04.jpg,AFNE17.jpg,AFNE20.jpg,AFNE20.jpg,FN,3,num_4,32,num_2,0.700141542591,,,2017_Jun_05_1300,60.0011354061,FEMA4ImagesEEG,001,100552,
AFNE01.JPG,AFNE01.JPG,AFNE01.JPG,AFNE01.JPG,AFNE01.JPG,AFNE01.JPG,,,,,,,,,,,,,,,,,2,7,27,3,,,,,,,AFNE10.jpg,AFSA01.jpg,AFNE13.jpg,AFSA12.jpg,AFSA12.jpg,FS,4,num_4,16,num_4,0.800160113256,,,2017_Jun_05_1300,60.0011354061,FEMA4ImagesEEG,001,100552,
AFNE01.JPG,AFNE01.JPG,AFNE01.JPG,AFNE01.JPG,AFNE01.JPG,AFNE01.JPG,,,,,,,,,,,,,,,,,2,8,28,7,,,,,,,AFNE08.jpg,AFSA18.jpg,AFSA02.jpg,AFNE17.jpg,AFNE08.jpg,FN,3,num_8,16,num_8,1.63340069936,,,2017_Jun_05_1300,60.0011354061,FEMA4ImagesEEG,001,100552,
AFNE01.JPG,AFNE01.JPG,AFNE01.JPG,AFNE01.JPG,AFNE01.JPG,AFNE01.JPG,,,,,,,,,,,,,,,,,2,9,29,9,,,,,,,AFSA20.jpg,AFSA16.jpg,AFNE01.jpg,AFNE18.jpg,AFNE01.jpg,FN,3,num_2,16,num_2,0.98346168804,,,2017_Jun_05_1300,60.0011354061,FEMA4ImagesEEG,001,100552,
AFNE01.JPG,AFNE01.JPG,AFNE01.JPG,AFNE01.JPG,AFNE01.JPG,AFNE01.JPG,,,,,,,,,,,,,,,,,3,0,30,4,,,,,,,AFNE07.jpg,AFSA12.jpg,AFSA07.jpg,AFNE10.jpg,AFNE10.jpg,FN,3,num_4,32,num_6,0.666890756926,,,2017_Jun_05_1300,60.0011354061,FEMA4ImagesEEG,001,100552,
AFNE01.JPG,AFNE01.JPG,AFNE01.JPG,AFNE01.JPG,AFNE01.JPG,AFNE01.JPG,,,,,,,,,,,,,,,,,3,1,31,5,,,,,,,AFSA02.jpg,AFSA18.jpg,AFNE07.jpg,AFNE06.jpg,AFSA02.jpg,FS,4,num_8,32,num_4,0.733434345108,,,2017_Jun_05_1300,60.0011354061,FEMA4ImagesEEG,001,100552,
AFNE01.JPG,AFNE01.JPG,AFNE01.JPG,AFNE01.JPG,AFNE01.JPG,AFNE01.JPG,,,,,,,,,,,,,,,,,3,2,32,0,,,,,,,AFSA17.jpg,AFNE06.jpg,AFSA19.jpg,AFNE15.jpg,AFSA19.jpg,FS,4,num_2,32,num_8,0.283588284161,,,2017_Jun_05_1300,60.0011354061,FEMA4ImagesEEG,001,100552,
AFNE01.JPG,AFNE01.JPG,AFNE01.JPG,AFNE01.JPG,AFNE01.JPG,AFNE01.JPG,,,,,,,,,,,,,,,,,3,3,33,7,,,,,,,AFSA02.jpg,AFNE08.jpg,AFSA18.jpg,AFNE02.jpg,AFSA02.jpg,FS,4,num_8,32,num_2,0.700167201692,,,2017_Jun_05_1300,60.0011354061,FEMA4ImagesEEG,001,100552,
AFNE01.JPG,AFNE01.JPG,AFNE01.JPG,AFNE01.JPG,AFNE01.JPG,AFNE01.JPG,,,,,,,,,,,,,,,,,3,4,34,1,,,,,,,AFNE07.jpg,AFSA09.jpg,AFSA01.jpg,AFNE17.jpg,AFNE17.jpg,FN,3,num_4,32,num_6,0.966702386271,,,2017_Jun_05_1300,60.0011354061,FEMA4ImagesEEG,001,100552,
AFNE01.JPG,AFNE01.JPG,AFNE01.JPG,AFNE01.JPG,AFNE01.JPG,AFNE01.JPG,,,,,,,,,,,,,,,,,3,5,35,3,,,,,,,AFNE06.jpg,AFSA16.jpg,AFSA14.jpg,AFNE16.jpg,AFSA14.jpg,FS,4,num_2,32,num_8,0.833423728589,,,2017_Jun_05_1300,60.0011354061,FEMA4ImagesEEG,001,100552,
AFNE01.JPG,AFNE01.JPG,AFNE01.JPG,AFNE01.JPG,AFNE01.JPG,AFNE01.JPG,,,,,,,,,,,,,,,,,3,6,36,8,,,,,,,AFSA15.jpg,AFNE10.jpg,AFSA10.jpg,AFNE01.jpg,AFSA10.jpg,FS,4,num_2,32,num_4,0.466801655479,,,2017_Jun_05_1300,60.0011354061,FEMA4ImagesEEG,001,100552,
AFNE01.JPG,AFNE01.JPG,AFNE01.JPG,AFNE01.JPG,AFNE01.JPG,AFNE01.JPG,,,,,,,,,,,,,,,,,3,7,37,9,,,,,,,AFSA10.jpg,AFNE14.jpg,AFNE20.jpg,AFSA02.jpg,AFSA10.jpg,FS,4,num_8,32,num_6,1.15011205035,,,2017_Jun_05_1300,60.0011354061,FEMA4ImagesEEG,001,100552,
AFNE01.JPG,AFNE01.JPG,AFNE01.JPG,AFNE01.JPG,AFNE01.JPG,AFNE01.JPG,,,,,,,,,,,,,,,,,3,8,38,6,,,,,,,AFNE05.jpg,AFSA07.jpg,AFNE10.jpg,AFSA15.jpg,AFNE10.jpg,FN,3,num_2,32,num_8,1.08348827739,,,2017_Jun_05_1300,60.0011354061,FEMA4ImagesEEG,001,100552,
AFNE01.JPG,AFNE01.JPG,AFNE01.JPG,AFNE01.JPG,AFNE01.JPG,AFNE01.JPG,,,,,,,,,,,,,,,,,3,9,39,2,,,,,,,AFSA01.jpg,AFNE12.jpg,AFSA05.jpg,AFNE18.jpg,AFNE12.jpg,FN,3,num_6,32,num_2,0.933440374909,,,2017_Jun_05_1300,60.0011354061,FEMA4ImagesEEG,001,100552,
AFNE01.JPG,AFNE01.JPG,AFNE01.JPG,AFNE01.JPG,AFNE01.JPG,AFNE01.JPG,,,,,,,,,,,,,,,,,4,0,40,8,,,,,,,AFNE01.jpg,AFSA16.jpg,AFSA08.jpg,AFNE19.jpg,AFNE19.jpg,FN,3,num_4,16,num_4,0.983481894713,,,2017_Jun_05_1300,60.0011354061,FEMA4ImagesEEG,001,100552,
AFNE01.JPG,AFNE01.JPG,AFNE01.JPG,AFNE01.JPG,AFNE01.JPG,AFNE01.JPG,,,,,,,,,,,,,,,,,4,1,41,9,,,,,,,AFSA19.jpg,AFNE11.jpg,AFNE12.jpg,AFSA04.jpg,AFNE11.jpg,FN,3,num_6,32,num_8,1.16676967754,,,2017_Jun_05_1300,60.0011354061,FEMA4ImagesEEG,001,100552,
AFNE01.JPG,AFNE01.JPG,AFNE01.JPG,AFNE01.JPG,AFNE01.JPG,AFNE01.JPG,,,,,,,,,,,,,,,,,4,2,42,4,,,,,,,AFNE19.jpg,AFNE08.jpg,AFSA04.jpg,AFSA05.jpg,AFSA04.jpg,FS,4,num_2,16,num_2,0.983556627063,,,2017_Jun_05_1300,60.0011354061,FEMA4ImagesEEG,001,100552,
AFNE01.JPG,AFNE01.JPG,AFNE01.JPG,AFNE01.JPG,AFNE01.JPG,AFNE01.JPG,,,,,,,,,,,,,,,,,4,3,43,3,,,,,,,AFSA14.jpg,AFNE16.jpg,AFSA10.jpg,AFNE10.jpg,AFNE16.jpg,FN,3,num_6,16,num_6,0.566799378023,,,2017_Jun_05_1300,60.0011354061,FEMA4ImagesEEG,001,100552,
AFNE01.JPG,AFNE01.JPG,AFNE01.JPG,AFNE01.JPG,AFNE01.JPG,AFNE01.JPG,,,,,,,,,,,,,,,,,4,4,44,2,,,,,,,AFSA05.jpg,AFNE03.jpg,AFSA02.jpg,AFNE05.jpg,AFSA05.jpg,FS,4,num_8,32,num_2,1.03341532522,,,2017_Jun_05_1300,60.0011354061,FEMA4ImagesEEG,001,100552,
AFNE01.JPG,AFNE01.JPG,AFNE01.JPG,AFNE01.JPG,AFNE01.JPG,AFNE01.JPG,,,,,,,,,,,,,,,,,4,5,45,7,,,,,,,AFNE14.jpg,AFSA15.jpg,AFNE06.jpg,AFSA04.jpg,AFNE06.jpg,FN,3,num_2,32,num_8,0.783456299687,,,2017_Jun_05_1300,60.0011354061,FEMA4ImagesEEG,001,100552,
AFNE01.JPG,AFNE01.JPG,AFNE01.JPG,AFNE01.JPG,AFNE01.JPG,AFNE01.JPG,,,,,,,,,,,,,,,,,4,6,46,1,,,,,,,AFNE04.jpg,AFSA20.jpg,AFNE17.jpg,AFSA10.jpg,AFSA10.jpg,FS,4,num_4,16,num_4,0.983448537765,,,2017_Jun_05_1300,60.0011354061,FEMA4ImagesEEG,001,100552,
AFNE01.JPG,AFNE01.JPG,AFNE01.JPG,AFNE01.JPG,AFNE01.JPG,AFNE01.JPG,,,,,,,,,,,,,,,,,4,7,47,5,,,,,,,AFNE14.jpg,AFSA20.jpg,AFSA05.jpg,AFNE19.jpg,AFNE19.jpg,FN,3,num_4,32,num_6,0.516809497494,,,2017_Jun_05_1300,60.0011354061,FEMA4ImagesEEG,001,100552,
AFNE01.JPG,AFNE01.JPG,AFNE01.JPG,AFNE01.JPG,AFNE01.JPG,AFNE01.JPG,,,,,,,,,,,,,,,,,4,8,48,6,,,,,,,AFNE16.jpg,AFNE02.jpg,AFSA15.jpg,AFSA04.jpg,AFSA15.jpg,FS,4,num_2,16,num_2,1.31673771585,,,2017_Jun_05_1300,60.0011354061,FEMA4ImagesEEG,001,100552,
AFNE01.JPG,AFNE01.JPG,AFNE01.JPG,AFNE01.JPG,AFNE01.JPG,AFNE01.JPG,,,,,,,,,,,,,,,,,4,9,49,0,,,,,,,AFSA07.jpg,AFNE16.jpg,AFSA15.jpg,AFNE01.jpg,AFNE01.jpg,FN,3,num_4,32,num_8,1.11675349623,,,2017_Jun_05_1300,60.0011354061,FEMA4ImagesEEG,001,100552,
AFNE01.JPG,AFNE01.JPG,AFNE01.JPG,AFNE01.JPG,AFNE01.JPG,AFNE01.JPG,,,,,,,,,,,,,,,,,5,0,50,5,,,,,,,AFNE13.jpg,AFSA05.jpg,AFSA04.jpg,AFNE06.jpg,AFSA04.jpg,FS,4,num_2,32,num_6,0.533470973605,,,2017_Jun_05_1300,60.0011354061,FEMA4ImagesEEG,001,100552,
AFNE01.JPG,AFNE01.JPG,AFNE01.JPG,AFNE01.JPG,AFNE01.JPG,AFNE01.JPG,,,,,,,,,,,,,,,,,5,1,51,6,,,,,,,AFSA15.jpg,AFNE04.jpg,AFSA08.jpg,AFNE13.jpg,AFSA15.jpg,FS,4,num_8,16,num_8,2.2666798383,,,2017_Jun_05_1300,60.0011354061,FEMA4ImagesEEG,001,100552,
AFNE01.JPG,AFNE01.JPG,AFNE01.JPG,AFNE01.JPG,AFNE01.JPG,AFNE01.JPG,,,,,,,,,,,,,,,,,5,2,52,9,,,,,,,AFNE17.jpg,AFSA08.jpg,AFNE04.jpg,AFSA12.jpg,AFSA08.jpg,FS,4,num_6,32,num_4,0.766851273831,,,2017_Jun_05_1300,60.0011354061,FEMA4ImagesEEG,001,100552,
AFNE01.JPG,AFNE01.JPG,AFNE01.JPG,AFNE01.JPG,AFNE01.JPG,AFNE01.JPG,,,,,,,,,,,,,,,,,5,3,53,0,,,,,,,AFNE19.jpg,AFSA01.jpg,AFSA14.jpg,AFNE17.jpg,AFNE19.jpg,FN,3,num_8,32,num_2,4.4331659819,,,2017_Jun_05_1300,60.0011354061,FEMA4ImagesEEG,001,100552,
AFNE01.JPG,AFNE01.JPG,AFNE01.JPG,AFNE01.JPG,AFNE01.JPG,AFNE01.JPG,,,,,,,,,,,,,,,,,5,4,54,3,,,,,,,AFSA09.jpg,AFSA14.jpg,AFNE20.jpg,AFNE05.jpg,AFNE20.jpg,FN,3,num_2,32,num_6,0.883436060976,,,2017_Jun_05_1300,60.0011354061,FEMA4ImagesEEG,001,100552,
AFNE01.JPG,AFNE01.JPG,AFNE01.JPG,AFNE01.JPG,AFNE01.JPG,AFNE01.JPG,,,,,,,,,,,,,,,,,5,5,55,7,,,,,,,AFNE09.jpg,AFSA16.jpg,AFSA09.jpg,AFNE08.jpg,AFSA16.jpg,FS,4,num_6,16,num_6,0.650159680517,,,2017_Jun_05_1300,60.0011354061,FEMA4ImagesEEG,001,100552,
AFNE01.JPG,AFNE01.JPG,AFNE01.JPG,AFNE01.JPG,AFNE01.JPG,AFNE01.JPG,,,,,,,,,,,,,,,,,5,6,56,4,,,,,,,AFNE12.jpg,AFSA09.jpg,AFNE11.jpg,AFSA07.jpg,AFSA07.jpg,FS,4,num_4,16,num_4,1.06671935366,,,2017_Jun_05_1300,60.0011354061,FEMA4ImagesEEG,001,100552,
AFNE01.JPG,AFNE01.JPG,AFNE01.JPG,AFNE01.JPG,AFNE01.JPG,AFNE01.JPG,,,,,,,,,,,,,,,,,5,7,57,2,,,,,,,AFNE09.jpg,AFSA12.jpg,AFSA13.jpg,AFNE07.jpg,AFNE07.jpg,FN,3,num_4,16,num_4,1.80007223063,,,2017_Jun_05_1300,60.0011354061,FEMA4ImagesEEG,001,100552,
AFNE01.JPG,AFNE01.JPG,AFNE01.JPG,AFNE01.JPG,AFNE01.JPG,AFNE01.JPG,,,,,,,,,,,,,,,,,5,8,58,8,,,,,,,AFSA20.jpg,AFNE04.jpg,AFSA12.jpg,AFNE18.jpg,AFNE04.jpg,FN,3,num_6,16,num_6,1.26673885458,,,2017_Jun_05_1300,60.0011354061,FEMA4ImagesEEG,001,100552,
AFNE01.JPG,AFNE01.JPG,AFNE01.JPG,AFNE01.JPG,AFNE01.JPG,AFNE01.JPG,,,,,,,,,,,,,,,,,5,9,59,1,,,,,,,AFSA04.jpg,AFSA14.jpg,AFNE19.jpg,AFNE12.jpg,AFNE19.jpg,FN,3,num_2,32,num_8,1.26644184929,,,2017_Jun_05_1300,60.0011354061,FEMA4ImagesEEG,001,100552,
,,,,,,,,,,,,,,,,,,,,,,,,,,,,,,,,,,,,,,,,,,,space,34.7807880645,2017_Jun_05_1300,60.0011354061,FEMA4ImagesEEG,001,100552,
AFNE01.JPG,AFNE01.JPG,AFNE01.JPG,AFNE01.JPG,AFNE01.JPG,AFNE01.JPG,,,,,,,,,,,,,,,,,,,,,0,0,0,7,,,AMSA13.jpg,AMSA05.jpg,AMNE18.jpg,AMNE09.jpg,AMSA13.jpg,MS,2,num_8,16,num_8,1.10009715217,,,2017_Jun_05_1300,60.0011354061,FEMA4ImagesEEG,001,100552,
AFNE01.JPG,AFNE01.JPG,AFNE01.JPG,AFNE01.JPG,AFNE01.JPG,AFNE01.JPG,,,,,,,,,,,,,,,,,,,,,0,1,1,1,,,AMSA15.jpg,AMSA14.jpg,AMNE03.jpg,AMNE02.jpg,AMNE03.jpg,MN,1,num_2,16,num_2,0.250158525771,,,2017_Jun_05_1300,60.0011354061,FEMA4ImagesEEG,001,100552,
AFNE01.JPG,AFNE01.JPG,AFNE01.JPG,AFNE01.JPG,AFNE01.JPG,AFNE01.JPG,,,,,,,,,,,,,,,,,,,,,0,2,2,9,,,AMSA16.jpg,AMNE10.jpg,AMSA05.jpg,AMNE02.jpg,AMNE10.jpg,MN,1,num_6,32,num_4,0.316701792879,,,2017_Jun_05_1300,60.0011354061,FEMA4ImagesEEG,001,100552,
AFNE01.JPG,AFNE01.JPG,AFNE01.JPG,AFNE01.JPG,AFNE01.JPG,AFNE01.JPG,,,,,,,,,,,,,,,,,,,,,0,3,3,5,,,AMNE06.jpg,AMSA16.jpg,AMSA10.jpg,AMNE02.jpg,AMSA10.jpg,MS,2,num_2,32,num_6,0.283515476156,,,2017_Jun_05_1300,60.0011354061,FEMA4ImagesEEG,001,100552,
AFNE01.JPG,AFNE01.JPG,AFNE01.JPG,AFNE01.JPG,AFNE01.JPG,AFNE01.JPG,,,,,,,,,,,,,,,,,,,,,0,4,4,2,,,AMNE13.jpg,AMNE14.jpg,AMSA02.jpg,AMSA11.jpg,AMSA02.jpg,MS,2,num_2,32,num_8,0.366754538612,,,2017_Jun_05_1300,60.0011354061,FEMA4ImagesEEG,001,100552,
AFNE01.JPG,AFNE01.JPG,AFNE01.JPG,AFNE01.JPG,AFNE01.JPG,AFNE01.JPG,,,,,,,,,,,,,,,,,,,,,0,5,5,8,,,AMSA15.jpg,AMNE17.jpg,AMSA09.jpg,AMNE13.jpg,AMNE13.jpg,MN,1,num_4,32,num_8,0.266806209926,,,2017_Jun_05_1300,60.0011354061,FEMA4ImagesEEG,001,100552,
AFNE01.JPG,AFNE01.JPG,AFNE01.JPG,AFNE01.JPG,AFNE01.JPG,AFNE01.JPG,,,,,,,,,,,,,,,,,,,,,0,6,6,6,,,AMSA03.jpg,AMNE03.jpg,AMSA15.jpg,AMNE07.jpg,AMSA15.jpg,MS,2,num_2,32,num_4,0.383523462806,,,2017_Jun_05_1300,60.0011354061,FEMA4ImagesEEG,001,100552,
AFNE01.JPG,AFNE01.JPG,AFNE01.JPG,AFNE01.JPG,AFNE01.JPG,AFNE01.JPG,,,,,,,,,,,,,,,,,,,,,0,7,7,3,,,AMSA19.jpg,AMNE20.jpg,AMSA15.jpg,AMNE04.jpg,AMSA15.jpg,MS,2,num_2,32,num_6,0.250203108648,,,2017_Jun_05_1300,60.0011354061,FEMA4ImagesEEG,001,100552,
AFNE01.JPG,AFNE01.JPG,AFNE01.JPG,AFNE01.JPG,AFNE01.JPG,AFNE01.JPG,,,,,,,,,,,,,,,,,,,,,0,8,8,4,,,AMSA09.jpg,AMNE02.jpg,AMNE17.jpg,AMSA08.jpg,AMSA08.jpg,MS,2,num_4,32,num_2,0.283526701853,,,2017_Jun_05_1300,60.0011354061,FEMA4ImagesEEG,001,100552,
AFNE01.JPG,AFNE01.JPG,AFNE01.JPG,AFNE01.JPG,AFNE01.JPG,AFNE01.JPG,,,,,,,,,,,,,,,,,,,,,0,9,9,0,,,AMSA15.jpg,AMNE17.jpg,AMSA08.jpg,AMNE07.jpg,AMSA08.jpg,MS,2,num_2,32,num_8,0.383596591186,,,2017_Jun_05_1300,60.0011354061,FEMA4ImagesEEG,001,100552,
AFNE01.JPG,AFNE01.JPG,AFNE01.JPG,AFNE01.JPG,AFNE01.JPG,AFNE01.JPG,,,,,,,,,,,,,,,,,,,,,1,0,10,3,,,AMNE08.jpg,AMSA04.jpg,AMNE14.jpg,AMSA13.jpg,AMNE14.jpg,MN,1,num_2,32,num_6,0.516979810316,,,2017_Jun_05_1300,60.0011354061,FEMA4ImagesEEG,001,100552,
AFNE01.JPG,AFNE01.JPG,AFNE01.JPG,AFNE01.JPG,AFNE01.JPG,AFNE01.JPG,,,,,,,,,,,,,,,,,,,,,1,1,11,0,,,AMSA01.jpg,AMNE02.jpg,AMNE20.jpg,AMSA16.jpg,AMNE02.jpg,MN,1,num_6,32,num_2,0.517059033271,,,2017_Jun_05_1300,60.0011354061,FEMA4ImagesEEG,001,100552,
AFNE01.JPG,AFNE01.JPG,AFNE01.JPG,AFNE01.JPG,AFNE01.JPG,AFNE01.JPG,,,,,,,,,,,,,,,,,,,,,1,2,12,9,,,AMSA11.jpg,AMNE12.jpg,AMSA18.jpg,AMNE06.jpg,AMNE06.jpg,MN,1,num_4,32,num_6,0.366788537242,,,2017_Jun_05_1300,60.0011354061,FEMA4ImagesEEG,001,100552,
AFNE01.JPG,AFNE01.JPG,AFNE01.JPG,AFNE01.JPG,AFNE01.JPG,AFNE01.JPG,,,,,,,,,,,,,,,,,,,,,1,3,13,7,,,AMNE11.jpg,AMSA06.jpg,AMNE10.jpg,AMSA07.jpg,AMNE11.jpg,MN,1,num_8,32,num_4,0.300119539723,,,2017_Jun_05_1300,60.0011354061,FEMA4ImagesEEG,001,100552,
AFNE01.JPG,AFNE01.JPG,AFNE01.JPG,AFNE01.JPG,AFNE01.JPG,AFNE01.JPG,,,,,,,,,,,,,,,,,,,,,1,4,14,1,,,AMSA04.jpg,AMNE18.jpg,AMNE06.jpg,AMSA13.jpg,AMNE06.jpg,MN,1,num_2,32,num_6,1.43341198959,,,2017_Jun_05_1300,60.0011354061,FEMA4ImagesEEG,001,100552,
AFNE01.JPG,AFNE01.JPG,AFNE01.JPG,AFNE01.JPG,AFNE01.JPG,AFNE01.JPG,,,,,,,,,,,,,,,,,,,,,1,5,15,2,,,AMNE04.jpg,AMSA18.jpg,AMSA05.jpg,AMNE05.jpg,AMSA05.jpg,MS,2,num_2,32,num_8,0.616890291683,,,2017_Jun_05_1300,60.0011354061,FEMA4ImagesEEG,001,100552,
AFNE01.JPG,AFNE01.JPG,AFNE01.JPG,AFNE01.JPG,AFNE01.JPG,AFNE01.JPG,,,,,,,,,,,,,,,,,,,,,1,6,16,4,,,AMSA03.jpg,AMNE11.jpg,AMNE03.jpg,AMSA14.jpg,AMNE03.jpg,MN,1,num_2,32,num_4,0.983514610212,,,2017_Jun_05_1300,60.0011354061,FEMA4ImagesEEG,001,100552,
AFNE01.JPG,AFNE01.JPG,AFNE01.JPG,AFNE01.JPG,AFNE01.JPG,AFNE01.JPG,,,,,,,,,,,,,,,,,,,,,1,7,17,8,,,AMNE19.jpg,AMNE14.jpg,AMSA06.jpg,AMSA08.jpg,AMSA08.jpg,MS,2,num_4,32,num_6,0.750492255436,,,2017_Jun_05_1300,60.0011354061,FEMA4ImagesEEG,001,100552,
AFNE01.JPG,AFNE01.JPG,AFNE01.JPG,AFNE01.JPG,AFNE01.JPG,AFNE01.JPG,,,,,,,,,,,,,,,,,,,,,1,8,18,6,,,AMNE03.jpg,AMNE08.jpg,AMSA11.jpg,AMSA10.jpg,AMSA10.jpg,MS,2,num_4,32,num_2,0.366796555696,,,2017_Jun_05_1300,60.0011354061,FEMA4ImagesEEG,001,100552,
AFNE01.JPG,AFNE01.JPG,AFNE01.JPG,AFNE01.JPG,AFNE01.JPG,AFNE01.JPG,,,,,,,,,,,,,,,,,,,,,1,9,19,5,,,AMNE08.jpg,AMNE03.jpg,AMSA05.jpg,AMSA10.jpg,AMSA10.jpg,MS,2,num_4,32,num_8,0.633484733291,,,2017_Jun_05_1300,60.0011354061,FEMA4ImagesEEG,001,100552,
AFNE01.JPG,AFNE01.JPG,AFNE01.JPG,AFNE01.JPG,AFNE01.JPG,AFNE01.JPG,,,,,,,,,,,,,,,,,,,,,2,0,20,7,,,AMSA09.jpg,AMNE03.jpg,AMSA02.jpg,AMNE04.jpg,AMSA09.jpg,MS,2,num_8,32,num_4,0.33353422326,,,2017_Jun_05_1300,60.0011354061,FEMA4ImagesEEG,001,100552,
AFNE01.JPG,AFNE01.JPG,AFNE01.JPG,AFNE01.JPG,AFNE01.JPG,AFNE01.JPG,,,,,,,,,,,,,,,,,,,,,2,1,21,3,,,AMSA19.jpg,AMNE10.jpg,AMNE15.jpg,AMSA15.jpg,AMSA19.jpg,MS,2,num_8,32,num_6,0.30024494906,,,2017_Jun_05_1300,60.0011354061,FEMA4ImagesEEG,001,100552,
AFNE01.JPG,AFNE01.JPG,AFNE01.JPG,AFNE01.JPG,AFNE01.JPG,AFNE01.JPG,,,,,,,,,,,,,,,,,,,,,2,2,22,6,,,AMNE17.jpg,AMSA14.jpg,AMNE02.jpg,AMSA13.jpg,AMSA14.jpg,MS,2,num_6,32,num_2,0.283559738193,,,2017_Jun_05_1300,60.0011354061,FEMA4ImagesEEG,001,100552,
AFNE01.JPG,AFNE01.JPG,AFNE01.JPG,AFNE01.JPG,AFNE01.JPG,AFNE01.JPG,,,,,,,,,,,,,,,,,,,,,2,3,23,4,,,AMSA10.jpg,AMSA16.jpg,AMNE05.jpg,AMNE01.jpg,AMSA10.jpg,MS,2,num_8,16,num_8,0.283519325079,,,2017_Jun_05_1300,60.0011354061,FEMA4ImagesEEG,001,100552,
AFNE01.JPG,AFNE01.JPG,AFNE01.JPG,AFNE01.JPG,AFNE01.JPG,AFNE01.JPG,,,,,,,,,,,,,,,,,,,,,2,4,24,2,,,AMSA05.jpg,AMSA19.jpg,AMNE15.jpg,AMNE08.jpg,AMSA05.jpg,MS,2,num_8,32,num_4,0.26679273881,,,2017_Jun_05_1300,60.0011354061,FEMA4ImagesEEG,001,100552,
AFNE01.JPG,AFNE01.JPG,AFNE01.JPG,AFNE01.JPG,AFNE01.JPG,AFNE01.JPG,,,,,,,,,,,,,,,,,,,,,2,5,25,0,,,AMNE04.jpg,AMSA07.jpg,AMNE03.jpg,AMSA01.jpg,AMSA01.jpg,MS,2,num_4,32,num_2,0.800120662432,,,2017_Jun_05_1300,60.0011354061,FEMA4ImagesEEG,001,100552,
AFNE01.JPG,AFNE01.JPG,AFNE01.JPG,AFNE01.JPG,AFNE01.JPG,AFNE01.JPG,,,,,,,,,,,,,,,,,,,,,2,6,26,8,,,AMNE07.jpg,AMSA08.jpg,AMSA16.jpg,AMNE15.jpg,AMNE07.jpg,MN,1,num_8,16,num_8,1.31672905595,,,2017_Jun_05_1300,60.0011354061,FEMA4ImagesEEG,001,100552,
AFNE01.JPG,AFNE01.JPG,AFNE01.JPG,AFNE01.JPG,AFNE01.JPG,AFNE01.JPG,,,,,,,,,,,,,,,,,,,,,2,7,27,5,,,AMSA16.jpg,AMNE07.jpg,AMNE09.jpg,AMSA06.jpg,AMNE09.jpg,MN,1,num_2,32,num_6,0.500119154807,,,2017_Jun_05_1300,60.0011354061,FEMA4ImagesEEG,001,100552,
AFNE01.JPG,AFNE01.JPG,AFNE01.JPG,AFNE01.JPG,AFNE01.JPG,AFNE01.JPG,,,,,,,,,,,,,,,,,,,,,2,8,28,1,,,AMNE08.jpg,AMSA02.jpg,AMNE15.jpg,AMSA07.jpg,AMNE08.jpg,MN,1,num_8,32,num_4,0.466802617768,,,2017_Jun_05_1300,60.0011354061,FEMA4ImagesEEG,001,100552,
AFNE01.JPG,AFNE01.JPG,AFNE01.JPG,AFNE01.JPG,AFNE01.JPG,AFNE01.JPG,,,,,,,,,,,,,,,,,,,,,2,9,29,9,,,AMNE05.jpg,AMSA06.jpg,AMNE13.jpg,AMSA09.jpg,AMSA06.jpg,MS,2,num_6,32,num_2,0.350182869937,,,2017_Jun_05_1300,60.0011354061,FEMA4ImagesEEG,001,100552,
AFNE01.JPG,AFNE01.JPG,AFNE01.JPG,AFNE01.JPG,AFNE01.JPG,AFNE01.JPG,,,,,,,,,,,,,,,,,,,,,3,0,30,2,,,AMNE02.jpg,AMSA08.jpg,AMSA17.jpg,AMNE01.jpg,AMSA08.jpg,MS,2,num_6,32,num_8,0.266620180802,,,2017_Jun_05_1300,60.0011354061,FEMA4ImagesEEG,001,100552,
AFNE01.JPG,AFNE01.JPG,AFNE01.JPG,AFNE01.JPG,AFNE01.JPG,AFNE01.JPG,,,,,,,,,,,,,,,,,,,,,3,1,31,3,,,AMSA13.jpg,AMNE16.jpg,AMSA09.jpg,AMNE13.jpg,AMNE16.jpg,MN,1,num_6,16,num_6,0.716777680209,,,2017_Jun_05_1300,60.0011354061,FEMA4ImagesEEG,001,100552,
AFNE01.JPG,AFNE01.JPG,AFNE01.JPG,AFNE01.JPG,AFNE01.JPG,AFNE01.JPG,,,,,,,,,,,,,,,,,,,,,3,2,32,1,,,AMSA06.jpg,AMSA14.jpg,AMNE09.jpg,AMNE19.jpg,AMNE09.jpg,MN,1,num_2,32,num_4,0.633447527653,,,2017_Jun_05_1300,60.0011354061,FEMA4ImagesEEG,001,100552,
AFNE01.JPG,AFNE01.JPG,AFNE01.JPG,AFNE01.JPG,AFNE01.JPG,AFNE01.JPG,,,,,,,,,,,,,,,,,,,,,3,3,33,0,,,AMNE12.jpg,AMSA17.jpg,AMNE02.jpg,AMSA14.jpg,AMSA14.jpg,MS,2,num_4,16,num_4,1.05019579572,,,2017_Jun_05_1300,60.0011354061,FEMA4ImagesEEG,001,100552,
AFNE01.JPG,AFNE01.JPG,AFNE01.JPG,AFNE01.JPG,AFNE01.JPG,AFNE01.JPG,,,,,,,,,,,,,,,,,,,,,3,4,34,6,,,AMNE17.jpg,AMNE09.jpg,AMSA05.jpg,AMSA07.jpg,AMNE17.jpg,MN,1,num_8,32,num_2,0.700165277347,,,2017_Jun_05_1300,60.0011354061,FEMA4ImagesEEG,001,100552,
AFNE01.JPG,AFNE01.JPG,AFNE01.JPG,AFNE01.JPG,AFNE01.JPG,AFNE01.JPG,,,,,,,,,,,,,,,,,,,,,3,5,35,4,,,AMNE09.jpg,AMSA03.jpg,AMNE15.jpg,AMSA06.jpg,AMNE15.jpg,MN,1,num_2,32,num_8,0.766777503537,,,2017_Jun_05_1300,60.0011354061,FEMA4ImagesEEG,001,100552,
AFNE01.JPG,AFNE01.JPG,AFNE01.JPG,AFNE01.JPG,AFNE01.JPG,AFNE01.JPG,,,,,,,,,,,,,,,,,,,,,3,6,36,8,,,AMSA06.jpg,AMNE01.jpg,AMSA13.jpg,AMNE05.jpg,AMNE01.jpg,MN,1,num_6,16,num_6,0.600145102944,,,2017_Jun_05_1300,60.0011354061,FEMA4ImagesEEG,001,100552,
AFNE01.JPG,AFNE01.JPG,AFNE01.JPG,AFNE01.JPG,AFNE01.JPG,AFNE01.JPG,,,,,,,,,,,,,,,,,,,,,3,7,37,9,,,AMSA13.jpg,AMSA09.jpg,AMNE01.jpg,AMNE08.jpg,AMNE08.jpg,MN,1,num_4,32,num_2,0.533544102218,,,2017_Jun_05_1300,60.0011354061,FEMA4ImagesEEG,001,100552,
AFNE01.JPG,AFNE01.JPG,AFNE01.JPG,AFNE01.JPG,AFNE01.JPG,AFNE01.JPG,,,,,,,,,,,,,,,,,,,,,3,8,38,7,,,AMNE12.jpg,AMSA18.jpg,AMNE18.jpg,AMSA03.jpg,AMNE12.jpg,MN,1,num_8,32,num_4,0.333483225899,,,2017_Jun_05_1300,60.0011354061,FEMA4ImagesEEG,001,100552,
