IPosition2,IPosition3,IPosition1,IPosition6,IPosition4,IPosition5,TrialsF1.thisRepN,TrialsF1.thisTrialN,TrialsF1.thisN,TrialsF1.thisIndex,TrialsM1.thisRepN,TrialsM1.thisTrialN,TrialsM1.thisN,TrialsM1.thisIndex,TrialsF2.thisRepN,TrialsF2.thisTrialN,TrialsF2.thisN,TrialsF2.thisIndex,TrialsM2.thisRepN,TrialsM2.thisTrialN,TrialsM2.thisN,TrialsM2.thisIndex,TrialsF3.thisRepN,TrialsF3.thisTrialN,TrialsF3.thisN,TrialsF3.thisIndex,TrialsM3.thisRepN,TrialsM3.thisTrialN,TrialsM3.thisN,TrialsM3.thisIndex,InstrKey_resp.keys,InstrKey_resp.rt,Image0 _Position,Image1 _Position,Image2 _Position,Image3 _Position,Center_image,condition,code,correct_answer,accuracy,Key_Resp.keys,Key_Resp.rt,BreakKey_resp.keys,BreakKey_resp.rt,date,frameRate,expName,session,participant,
,,,,,,,,,,,,,,,,,,,,,,,,,,,,,,space,25.2486112764,,,,,,,,,,,,,,2017_May_19_1149,60.0056391445,FEMA4ImagesEEG,001,100510,
AFSA21.JPG,AFNE23.JPG,AFNE21.JPG,AFSA25.JPG,AFNE25.JPG,AFSA23.JPG,0,0,0,4,,,,,,,,,,,,,,,,,,,,,,,AFSA01.jpg,AFNE05.jpg,AFSA04.jpg,AFNE16.jpg,AFNE05.jpg,FN,3,num_6,48,None,,,,2017_May_19_1149,60.0056391445,FEMA4ImagesEEG,001,100510,
AFNE23.JPG,AFNE24.JPG,AFNE22.JPG,AFSA24.JPG,AFSA22.JPG,AFSA23.JPG,0,1,1,8,,,,,,,,,,,,,,,,,,,,,,,AFNE02.jpg,AFSA10.jpg,AFSA08.jpg,AFNE12.jpg,AFNE02.jpg,FN,3,num_8,32,num_4,1.3000900317,,,2017_May_19_1149,60.0056391445,FEMA4ImagesEEG,001,100510,
AMNE22.JPG,AMSA24.JPG,AMSA22.JPG,AMNE25.JPG,AMNE24.JPG,AMSA25.JPG,0,2,2,7,,,,,,,,,,,,,,,,,,,,,,,AFNE13.jpg,AFSA05.jpg,AFNE16.jpg,AFSA13.jpg,AFSA13.jpg,FS,4,num_4,32,num_8,2.71659293392,,,2017_May_19_1149,60.0056391445,FEMA4ImagesEEG,001,100510,
AFSA25.JPG,AFNE24.JPG,AFSA24.JPG,AFNE21.JPG,AFSA21.JPG,AFNE25.JPG,0,3,3,2,,,,,,,,,,,,,,,,,,,,,,,AFSA12.jpg,AFSA06.jpg,AFNE15.jpg,AFNE03.jpg,AFNE15.jpg,FN,3,num_2,16,num_2,1.45008308769,,,2017_May_19_1149,60.0056391445,FEMA4ImagesEEG,001,100510,
AMNE23.JPG,AMNE24.JPG,AMNE22.JPG,AMSA24.JPG,AMSA22.JPG,AMSA23.JPG,0,4,4,9,,,,,,,,,,,,,,,,,,,,,,,AFNE13.jpg,AFNE09.jpg,AFSA10.jpg,AFSA15.jpg,AFSA10.jpg,FS,4,num_2,32,num_8,1.38342980653,,,2017_May_19_1149,60.0056391445,FEMA4ImagesEEG,001,100510,
AFSA21.JPG,AFNE22.JPG,AFNE21.JPG,AFSA23.JPG,AFSA22.JPG,AFNE23.JPG,0,5,5,0,,,,,,,,,,,,,,,,,,,,,,,AFSA07.jpg,AFNE14.jpg,AFNE01.jpg,AFSA01.jpg,AFSA01.jpg,FS,4,num_4,16,num_4,0.850143899937,,,2017_May_19_1149,60.0056391445,FEMA4ImagesEEG,001,100510,
AMSA21.JPG,AMNE22.JPG,AMNE21.JPG,AMSA23.JPG,AMSA22.JPG,AMNE23.JPG,0,6,6,1,,,,,,,,,,,,,,,,,,,,,,,AFSA10.jpg,AFSA09.jpg,AFNE06.jpg,AFNE11.jpg,AFNE11.jpg,FN,3,num_4,32,num_2,1.36670129589,,,2017_May_19_1149,60.0056391445,FEMA4ImagesEEG,001,100510,
AMSA25.JPG,AMNE24.JPG,AMSA24.JPG,AMNE26.JPG,AMSA21.JPG,AMNE25.JPG,0,7,7,3,,,,,,,,,,,,,,,,,,,,,,,AFNE10.jpg,AFSA12.jpg,AFNE05.jpg,AFSA06.jpg,AFNE10.jpg,FN,3,num_8,16,num_8,0.733502341871,,,2017_May_19_1149,60.0056391445,FEMA4ImagesEEG,001,100510,
AFNE22.JPG,AFSA24.JPG,AFSA22.JPG,AFNE25.JPG,AFNE24.JPG,AFSA25.JPG,0,8,8,6,,,,,,,,,,,,,,,,,,,,,,,AFNE08.jpg,AFSA11.jpg,AFSA19.jpg,AFNE07.jpg,AFSA11.jpg,FS,4,num_6,16,num_6,1.23342616615,,,2017_May_19_1149,60.0056391445,FEMA4ImagesEEG,001,100510,
AMSA21.JPG,AMNE23.JPG,AMNE21.JPG,AMSA25.JPG,AMNE25.JPG,AMSA23.JPG,0,9,9,5,,,,,,,,,,,,,,,,,,,,,,,AFSA17.jpg,AFNE07.jpg,AFNE09.jpg,AFSA16.jpg,AFNE09.jpg,FN,3,num_2,16,num_2,1.0668604791,,,2017_May_19_1149,60.0056391445,FEMA4ImagesEEG,001,100510,
AMSA21.JPG,AMNE23.JPG,AMNE21.JPG,AMSA25.JPG,AMNE25.JPG,AMSA23.JPG,,,,,0,0,0,5,,,,,,,,,,,,,,,,,,,AMNE14.jpg,AMSA10.jpg,AMSA14.jpg,AMNE16.jpg,AMSA10.jpg,MS,2,num_6,16,num_6,0.96676364771,,,2017_May_19_1149,60.0056391445,FEMA4ImagesEEG,001,100510,
AFNE22.JPG,AFSA24.JPG,AFSA22.JPG,AFNE25.JPG,AFNE24.JPG,AFSA25.JPG,,,,,0,1,1,6,,,,,,,,,,,,,,,,,,,AMNE10.jpg,AMSA14.jpg,AMNE14.jpg,AMSA11.jpg,AMNE14.jpg,MN,1,num_2,16,num_2,1.33343158665,,,2017_May_19_1149,60.0056391445,FEMA4ImagesEEG,001,100510,
AFSA21.JPG,AFNE22.JPG,AFNE21.JPG,AFSA23.JPG,AFSA22.JPG,AFNE23.JPG,,,,,0,2,2,0,,,,,,,,,,,,,,,,,,,AMNE03.jpg,AMNE10.jpg,AMSA15.jpg,AMSA03.jpg,AMSA15.jpg,MS,2,num_2,32,num_6,1.20002367059,,,2017_May_19_1149,60.0056391445,FEMA4ImagesEEG,001,100510,
AMSA25.JPG,AMNE24.JPG,AMSA24.JPG,AMNE26.JPG,AMSA21.JPG,AMNE25.JPG,,,,,0,3,3,3,,,,,,,,,,,,,,,,,,,AMSA19.jpg,AMNE05.jpg,AMNE03.jpg,AMSA09.jpg,AMNE05.jpg,MN,1,num_6,32,num_4,0.90011646066,,,2017_May_19_1149,60.0056391445,FEMA4ImagesEEG,001,100510,
AFSA21.JPG,AFNE23.JPG,AFNE21.JPG,AFSA25.JPG,AFNE25.JPG,AFSA23.JPG,,,,,0,4,4,4,,,,,,,,,,,,,,,,,,,AMSA05.jpg,AMNE07.jpg,AMSA02.jpg,AMNE06.jpg,AMNE07.jpg,MN,1,num_6,32,num_8,1.48345062259,,,2017_May_19_1149,60.0056391445,FEMA4ImagesEEG,001,100510,
AFNE23.JPG,AFNE24.JPG,AFNE22.JPG,AFSA24.JPG,AFSA22.JPG,AFSA23.JPG,,,,,0,5,5,8,,,,,,,,,,,,,,,,,,,AMNE12.jpg,AMSA01.jpg,AMNE14.jpg,AMSA19.jpg,AMSA19.jpg,MS,2,num_4,32,num_8,1.10018599709,,,2017_May_19_1149,60.0056391445,FEMA4ImagesEEG,001,100510,
AMNE23.JPG,AMNE24.JPG,AMNE22.JPG,AMSA24.JPG,AMSA22.JPG,AMSA23.JPG,,,,,0,6,6,9,,,,,,,,,,,,,,,,,,,AMNE16.jpg,AMNE04.jpg,AMSA01.jpg,AMSA19.jpg,AMNE04.jpg,MN,1,num_6,32,num_2,1.0834494679,,,2017_May_19_1149,60.0056391445,FEMA4ImagesEEG,001,100510,
AFSA25.JPG,AFNE24.JPG,AFSA24.JPG,AFNE21.JPG,AFSA21.JPG,AFNE25.JPG,,,,,0,7,7,2,,,,,,,,,,,,,,,,,,,AMNE13.jpg,AMSA09.jpg,AMNE02.jpg,AMSA05.jpg,AMNE13.jpg,MN,1,num_8,32,num_4,1.45007218252,,,2017_May_19_1149,60.0056391445,FEMA4ImagesEEG,001,100510,
AMNE22.JPG,AMSA24.JPG,AMSA22.JPG,AMNE25.JPG,AMNE24.JPG,AMSA25.JPG,,,,,0,8,8,7,,,,,,,,,,,,,,,,,,,AMSA11.jpg,AMNE11.jpg,AMSA16.jpg,AMNE01.jpg,AMNE11.jpg,MN,1,num_6,32,num_2,1.56672849462,,,2017_May_19_1149,60.0056391445,FEMA4ImagesEEG,001,100510,
AMSA21.JPG,AMNE22.JPG,AMNE21.JPG,AMSA23.JPG,AMSA22.JPG,AMNE23.JPG,,,,,0,9,9,1,,,,,,,,,,,,,,,,,,,AMNE12.jpg,AMSA09.jpg,AMNE19.jpg,AMSA03.jpg,AMSA09.jpg,MS,2,num_6,32,num_8,2.247224397,,,2017_May_19_1149,60.0056391445,FEMA4ImagesEEG,001,100510,
AMSA25.JPG,AMNE24.JPG,AMSA24.JPG,AMNE26.JPG,AMSA21.JPG,AMNE25.JPG,,,,,,,,,0,0,0,3,,,,,,,,,,,,,,,AFNE13.jpg,AFSA10.jpg,AFNE12.jpg,AFSA15.jpg,AFSA10.jpg,FS,4,num_6,32,num_8,1.41679798291,,,2017_May_19_1149,60.0056391445,FEMA4ImagesEEG,001,100510,
AMNE22.JPG,AMSA24.JPG,AMSA22.JPG,AMNE25.JPG,AMNE24.JPG,AMSA25.JPG,,,,,,,,,0,1,1,7,,,,,,,,,,,,,,,AFNE02.jpg,AFSA07.jpg,AFNE17.jpg,AFSA05.jpg,AFSA07.jpg,FS,4,num_6,16,num_6,1.55007311265,,,2017_May_19_1149,60.0056391445,FEMA4ImagesEEG,001,100510,
AFNE23.JPG,AFNE24.JPG,AFNE22.JPG,AFSA24.JPG,AFSA22.JPG,AFSA23.JPG,,,,,,,,,0,2,2,8,,,,,,,,,,,,,,,AFNE01.jpg,AFNE13.jpg,AFSA15.jpg,AFSA05.jpg,AFSA15.jpg,FS,4,num_2,32,num_8,1.11690296108,,,2017_May_19_1149,60.0056391445,FEMA4ImagesEEG,001,100510,
AFSA21.JPG,AFNE23.JPG,AFNE21.JPG,AFSA25.JPG,AFNE25.JPG,AFSA23.JPG,,,,,,,,,0,3,3,4,,,,,,,,,,,,,,,AFNE15.jpg,AFSA10.jpg,AFSA07.jpg,AFNE02.jpg,AFNE02.jpg,FN,3,num_4,16,num_4,1.18340934333,,,2017_May_19_1149,60.0056391445,FEMA4ImagesEEG,001,100510,
AFSA25.JPG,AFNE24.JPG,AFSA24.JPG,AFNE21.JPG,AFSA21.JPG,AFNE25.JPG,,,,,,,,,0,4,4,2,,,,,,,,,,,,,,,AFSA19.jpg,AFNE07.jpg,AFNE20.jpg,AFSA13.jpg,AFNE07.jpg,FN,3,num_6,16,num_6,1.70012807145,,,2017_May_19_1149,60.0056391445,FEMA4ImagesEEG,001,100510,
AFSA21.JPG,AFNE22.JPG,AFNE21.JPG,AFSA23.JPG,AFSA22.JPG,AFNE23.JPG,,,,,,,,,0,5,5,0,,,,,,,,,,,,,,,AFSA17.jpg,AFNE01.jpg,AFNE07.jpg,AFSA12.jpg,AFSA17.jpg,FS,4,num_8,16,num_8,1.16675107472,,,2017_May_19_1149,60.0056391445,FEMA4ImagesEEG,001,100510,
AFNE22.JPG,AFSA24.JPG,AFSA22.JPG,AFNE25.JPG,AFNE24.JPG,AFSA25.JPG,,,,,,,,,0,6,6,6,,,,,,,,,,,,,,,AFNE11.jpg,AFSA08.jpg,AFNE17.jpg,AFSA07.jpg,AFSA08.jpg,FS,4,num_6,16,num_6,0.900117743615,,,2017_May_19_1149,60.0056391445,FEMA4ImagesEEG,001,100510,
AMNE23.JPG,AMNE24.JPG,AMNE22.JPG,AMSA24.JPG,AMSA22.JPG,AMSA23.JPG,,,,,,,,,0,7,7,9,,,,,,,,,,,,,,,AFSA06.jpg,AFNE04.jpg,AFNE18.jpg,AFSA12.jpg,AFSA06.jpg,FS,4,num_8,32,num_6,1.23350667188,,,2017_May_19_1149,60.0056391445,FEMA4ImagesEEG,001,100510,
AMSA21.JPG,AMNE23.JPG,AMNE21.JPG,AMSA25.JPG,AMNE25.JPG,AMSA23.JPG,,,,,,,,,0,8,8,5,,,,,,,,,,,,,,,AFNE20.jpg,AFSA12.jpg,AFNE13.jpg,AFSA20.jpg,AFNE20.jpg,FN,3,num_8,16,num_8,0.933493938501,,,2017_May_19_1149,60.0056391445,FEMA4ImagesEEG,001,100510,
AMSA21.JPG,AMNE22.JPG,AMNE21.JPG,AMSA23.JPG,AMSA22.JPG,AMNE23.JPG,,,,,,,,,0,9,9,1,,,,,,,,,,,,,,,AFNE16.jpg,AFNE03.jpg,AFSA14.jpg,AFSA09.jpg,AFSA14.jpg,FS,4,num_2,16,num_2,1.86660266836,,,2017_May_19_1149,60.0056391445,FEMA4ImagesEEG,001,100510,
AMNE23.JPG,AMNE24.JPG,AMNE22.JPG,AMSA24.JPG,AMSA22.JPG,AMSA23.JPG,,,,,,,,,,,,,0,0,0,9,,,,,,,,,,,AMNE02.jpg,AMSA18.jpg,AMSA03.jpg,AMNE10.jpg,AMNE10.jpg,MN,1,num_4,16,num_4,1.5000646291,,,2017_May_19_1149,60.0056391445,FEMA4ImagesEEG,001,100510,
AFSA21.JPG,AFNE22.JPG,AFNE21.JPG,AFSA23.JPG,AFSA22.JPG,AFNE23.JPG,,,,,,,,,,,,,0,1,1,0,,,,,,,,,,,AMNE03.jpg,AMSA07.jpg,AMNE18.jpg,AMSA12.jpg,AMNE18.jpg,MN,1,num_2,16,num_2,1.51673861398,,,2017_May_19_1149,60.0056391445,FEMA4ImagesEEG,001,100510,
AMSA25.JPG,AMNE24.JPG,AMSA24.JPG,AMNE26.JPG,AMSA21.JPG,AMNE25.JPG,,,,,,,,,,,,,0,2,2,3,,,,,,,,,,,AMNE13.jpg,AMNE20.jpg,AMSA17.jpg,AMSA03.jpg,AMSA17.jpg,MS,2,num_2,32,num_6,0.78355380462,,,2017_May_19_1149,60.0056391445,FEMA4ImagesEEG,001,100510,
AFSA21.JPG,AFNE23.JPG,AFNE21.JPG,AFSA25.JPG,AFNE25.JPG,AFSA23.JPG,,,,,,,,,,,,,0,3,3,4,,,,,,,,,,,AMSA01.jpg,AMNE15.jpg,AMSA03.jpg,AMNE09.jpg,AMSA01.jpg,MS,2,num_8,16,num_8,1.16675652732,,,2017_May_19_1149,60.0056391445,FEMA4ImagesEEG,001,100510,
AFNE22.JPG,AFSA24.JPG,AFSA22.JPG,AFNE25.JPG,AFNE24.JPG,AFSA25.JPG,,,,,,,,,,,,,0,4,4,6,,,,,,,,,,,AMNE15.jpg,AMSA14.jpg,AMSA08.jpg,AMNE09.jpg,AMNE15.jpg,MN,1,num_8,16,num_8,0.749865850521,,,2017_May_19_1149,60.0056391445,FEMA4ImagesEEG,001,100510,
AMSA21.JPG,AMNE23.JPG,AMNE21.JPG,AMSA25.JPG,AMNE25.JPG,AMSA23.JPG,,,,,,,,,,,,,0,5,5,5,,,,,,,,,,,AMNE11.jpg,AMSA07.jpg,AMSA10.jpg,AMNE08.jpg,AMSA10.jpg,MS,2,num_2,16,num_2,4.56648697748,,,2017_May_19_1149,60.0056391445,FEMA4ImagesEEG,001,100510,
AMNE22.JPG,AMSA24.JPG,AMSA22.JPG,AMNE25.JPG,AMNE24.JPG,AMSA25.JPG,,,,,,,,,,,,,0,6,6,7,,,,,,,,,,,AMSA15.jpg,AMNE10.jpg,AMSA10.jpg,AMNE08.jpg,AMNE08.jpg,MN,1,num_4,16,num_4,1.16676422505,,,2017_May_19_1149,60.0056391445,FEMA4ImagesEEG,001,100510,
AFNE23.JPG,AFNE24.JPG,AFNE22.JPG,AFSA24.JPG,AFSA22.JPG,AFSA23.JPG,,,,,,,,,,,,,0,7,7,8,,,,,,,,,,,AMSA05.jpg,AMNE01.jpg,AMNE17.jpg,AMSA16.jpg,AMNE01.jpg,MN,1,num_6,16,num_6,0.850148711063,,,2017_May_19_1149,60.0056391445,FEMA4ImagesEEG,001,100510,
AMSA21.JPG,AMNE22.JPG,AMNE21.JPG,AMSA23.JPG,AMSA22.JPG,AMNE23.JPG,,,,,,,,,,,,,0,8,8,1,,,,,,,,,,,AMNE03.jpg,AMSA10.jpg,AMNE14.jpg,AMSA17.jpg,AMSA10.jpg,MS,2,num_6,16,num_6,0.700148598786,,,2017_May_19_1149,60.0056391445,FEMA4ImagesEEG,001,100510,
AFSA25.JPG,AFNE24.JPG,AFSA24.JPG,AFNE21.JPG,AFSA21.JPG,AFNE25.JPG,,,,,,,,,,,,,0,9,9,2,,,,,,,,,,,AMNE02.jpg,AMNE06.jpg,AMSA19.jpg,AMSA17.jpg,AMSA17.jpg,MS,2,num_4,16,num_4,1.56677853005,,,2017_May_19_1149,60.0056391445,FEMA4ImagesEEG,001,100510,
AFNE22.JPG,AFSA24.JPG,AFSA22.JPG,AFNE25.JPG,AFNE24.JPG,AFSA25.JPG,,,,,,,,,,,,,,,,,0,0,0,6,,,,,,,AFNE11.jpg,AFNE07.jpg,AFSA14.jpg,AFSA02.jpg,AFNE07.jpg,FN,3,num_6,16,num_6,1.00013118263,,,2017_May_19_1149,60.0056391445,FEMA4ImagesEEG,001,100510,
AFSA21.JPG,AFNE23.JPG,AFNE21.JPG,AFSA25.JPG,AFNE25.JPG,AFSA23.JPG,,,,,,,,,,,,,,,,,0,1,1,4,,,,,,,AFSA19.jpg,AFNE08.jpg,AFSA05.jpg,AFNE17.jpg,AFSA19.jpg,FS,4,num_8,16,num_8,1.60008672808,,,2017_May_19_1149,60.0056391445,FEMA4ImagesEEG,001,100510,
AMSA25.JPG,AMNE24.JPG,AMSA24.JPG,AMNE26.JPG,AMSA21.JPG,AMNE25.JPG,,,,,,,,,,,,,,,,,0,2,2,3,,,,,,,AFSA14.jpg,AFNE18.jpg,AFNE03.jpg,AFSA01.jpg,AFNE18.jpg,FN,3,num_6,16,num_6,0.750140403892,,,2017_May_19_1149,60.0056391445,FEMA4ImagesEEG,001,100510,
AFSA21.JPG,AFNE22.JPG,AFNE21.JPG,AFSA23.JPG,AFSA22.JPG,AFNE23.JPG,,,,,,,,,,,,,,,,,0,3,3,0,,,,,,,AFNE06.jpg,AFNE07.jpg,AFSA01.jpg,AFSA11.jpg,AFNE06.jpg,FN,3,num_8,16,num_8,1.80010783277,,,2017_May_19_1149,60.0056391445,FEMA4ImagesEEG,001,100510,
AMNE22.JPG,AMSA24.JPG,AMSA22.JPG,AMNE25.JPG,AMNE24.JPG,AMSA25.JPG,,,,,,,,,,,,,,,,,0,4,4,7,,,,,,,AFNE07.jpg,AFSA03.jpg,AFSA15.jpg,AFNE03.jpg,AFNE07.jpg,FN,3,num_8,32,num_2,2.04971725174,,,2017_May_19_1149,60.0056391445,FEMA4ImagesEEG,001,100510,
AMNE23.JPG,AMNE24.JPG,AMNE22.JPG,AMSA24.JPG,AMSA22.JPG,AMSA23.JPG,,,,,,,,,,,,,,,,,0,5,5,9,,,,,,,AFNE11.jpg,AFSA03.jpg,AFSA17.jpg,AFNE04.jpg,AFNE04.jpg,FN,3,num_4,16,num_4,0.900121913233,,,2017_May_19_1149,60.0056391445,FEMA4ImagesEEG,001,100510,
AFSA25.JPG,AFNE24.JPG,AFSA24.JPG,AFNE21.JPG,AFSA21.JPG,AFNE25.JPG,,,,,,,,,,,,,,,,,0,6,6,2,,,,,,,AFNE05.jpg,AFNE12.jpg,AFSA17.jpg,AFSA15.jpg,AFSA17.jpg,FS,4,num_2,16,num_2,1.40007973596,,,2017_May_19_1149,60.0056391445,FEMA4ImagesEEG,001,100510,
AFNE23.JPG,AFNE24.JPG,AFNE22.JPG,AFSA24.JPG,AFSA22.JPG,AFSA23.JPG,,,,,,,,,,,,,,,,,0,7,7,8,,,,,,,AFNE12.jpg,AFSA19.jpg,AFSA08.jpg,AFNE11.jpg,AFSA08.jpg,FS,4,num_2,32,num_8,1.33350631906,,,2017_May_19_1149,60.0056391445,FEMA4ImagesEEG,001,100510,
AMSA21.JPG,AMNE22.JPG,AMNE21.JPG,AMSA23.JPG,AMSA22.JPG,AMNE23.JPG,,,,,,,,,,,,,,,,,0,8,8,1,,,,,,,AFSA02.jpg,AFSA17.jpg,AFNE10.jpg,AFNE05.jpg,AFNE10.jpg,FN,3,num_2,16,num_2,1.75012757431,,,2017_May_19_1149,60.0056391445,FEMA4ImagesEEG,001,100510,
AMSA21.JPG,AMNE23.JPG,AMNE21.JPG,AMSA25.JPG,AMNE25.JPG,AMSA23.JPG,,,,,,,,,,,,,,,,,0,9,9,5,,,,,,,AFNE17.jpg,AFSA02.jpg,AFNE01.jpg,AFSA15.jpg,AFSA02.jpg,FS,4,num_6,32,num_2,1.80002251593,,,2017_May_19_1149,60.0056391445,FEMA4ImagesEEG,001,100510,
AMNE23.JPG,AMNE24.JPG,AMNE22.JPG,AMSA24.JPG,AMSA22.JPG,AMSA23.JPG,,,,,,,,,,,,,,,,,,,,,0,0,0,9,,,AMNE13.jpg,AMNE15.jpg,AMSA12.jpg,AMSA05.jpg,AMSA12.jpg,MS,2,num_2,32,num_6,2.34994552232,,,2017_May_19_1149,60.0056391445,FEMA4ImagesEEG,001,100510,
AMSA25.JPG,AMNE24.JPG,AMSA24.JPG,AMNE26.JPG,AMSA21.JPG,AMNE25.JPG,,,,,,,,,,,,,,,,,,,,,0,1,1,3,,,AMSA08.jpg,AMNE19.jpg,AMNE12.jpg,AMSA17.jpg,AMSA17.jpg,MS,2,num_4,16,num_4,0.716759077186,,,2017_May_19_1149,60.0056391445,FEMA4ImagesEEG,001,100510,
AMSA21.JPG,AMNE22.JPG,AMNE21.JPG,AMSA23.JPG,AMSA22.JPG,AMNE23.JPG,,,,,,,,,,,,,,,,,,,,,0,2,2,1,,,AMSA17.jpg,AMNE01.jpg,AMNE12.jpg,AMSA07.jpg,AMSA07.jpg,MS,2,num_4,16,num_4,0.616799201729,,,2017_May_19_1149,60.0056391445,FEMA4ImagesEEG,001,100510,
AFSA21.JPG,AFNE22.JPG,AFNE21.JPG,AFSA23.JPG,AFSA22.JPG,AFNE23.JPG,,,,,,,,,,,,,,,,,,,,,0,3,3,0,,,AMSA10.jpg,AMSA14.jpg,AMNE13.jpg,AMNE09.jpg,AMSA14.jpg,MS,2,num_6,16,num_6,0.650451553665,,,2017_May_19_1149,60.0056391445,FEMA4ImagesEEG,001,100510,
AFSA21.JPG,AFNE23.JPG,AFNE21.JPG,AFSA25.JPG,AFNE25.JPG,AFSA23.JPG,,,,,,,,,,,,,,,,,,,,,0,4,4,4,,,AMNE12.jpg,AMSA17.jpg,AMSA03.jpg,AMNE04.jpg,AMSA03.jpg,MS,2,num_2,32,num_4,0.816470058431,,,2017_May_19_1149,60.0056391445,FEMA4ImagesEEG,001,100510,
AFNE22.JPG,AFSA24.JPG,AFSA22.JPG,AFNE25.JPG,AFNE24.JPG,AFSA25.JPG,,,,,,,,,,,,,,,,,,,,,0,5,5,6,,,AMNE02.jpg,AMSA03.jpg,AMNE15.jpg,AMSA16.jpg,AMSA16.jpg,MS,2,num_4,32,num_2,0.783459827799,,,2017_May_19_1149,60.0056391445,FEMA4ImagesEEG,001,100510,
AMNE22.JPG,AMSA24.JPG,AMSA22.JPG,AMNE25.JPG,AMNE24.JPG,AMSA25.JPG,,,,,,,,,,,,,,,,,,,,,0,6,6,7,,,AMSA20.jpg,AMNE05.jpg,AMNE13.jpg,AMSA05.jpg,AMNE13.jpg,MN,1,num_2,16,num_2,1.41674024976,,,2017_May_19_1149,60.0056391445,FEMA4ImagesEEG,001,100510,
AFNE23.JPG,AFNE24.JPG,AFNE22.JPG,AFSA24.JPG,AFSA22.JPG,AFSA23.JPG,,,,,,,,,,,,,,,,,,,,,0,7,7,8,,,AMNE04.jpg,AMSA07.jpg,AMSA17.jpg,AMNE10.jpg,AMSA07.jpg,MS,2,num_6,32,num_4,1.0000064148,,,2017_May_19_1149,60.0056391445,FEMA4ImagesEEG,001,100510,
AMSA21.JPG,AMNE23.JPG,AMNE21.JPG,AMSA25.JPG,AMNE25.JPG,AMSA23.JPG,,,,,,,,,,,,,,,,,,,,,0,8,8,5,,,AMNE16.jpg,AMNE04.jpg,AMSA09.jpg,AMSA10.jpg,AMSA10.jpg,MS,2,num_4,16,num_4,0.833471518796,,,2017_May_19_1149,60.0056391445,FEMA4ImagesEEG,001,100510,
AFSA25.JPG,AFNE24.JPG,AFSA24.JPG,AFNE21.JPG,AFSA21.JPG,AFNE25.JPG,,,,,,,,,,,,,,,,,,,,,0,9,9,2,,,AMNE06.jpg,AMSA08.jpg,AMSA11.jpg,AMNE11.jpg,AMNE11.jpg,MN,1,num_4,16,num_4,0.70000875619,,,2017_May_19_1149,60.0056391445,FEMA4ImagesEEG,001,100510,
,,,,,,,,,,,,,,,,,,,,,,,,,,,,,,,,,,,,,,,,,,,space,9.5494200862,2017_May_19_1149,60.0056391445,FEMA4ImagesEEG,001,100510,
AFNE01.JPG,AFNE01.JPG,AFNE01.JPG,AFNE01.JPG,AFNE01.JPG,AFNE01.JPG,0,0,0,8,,,,,,,,,,,,,,,,,,,,,,,AFSA16.jpg,AFNE10.jpg,AFSA04.jpg,AFNE15.jpg,AFNE15.jpg,FN,3,num_4,16,num_4,0.850184313196,,,2017_May_19_1149,60.0056391445,FEMA4ImagesEEG,001,100510,
AFNE01.JPG,AFNE01.JPG,AFNE01.JPG,AFNE01.JPG,AFNE01.JPG,AFNE01.JPG,0,1,1,3,,,,,,,,,,,,,,,,,,,,,,,AFNE12.jpg,AFSA12.jpg,AFNE08.jpg,AFSA04.jpg,AFSA04.jpg,FS,4,num_4,32,num_8,0.700145712122,,,2017_May_19_1149,60.0056391445,FEMA4ImagesEEG,001,100510,
AFNE01.JPG,AFNE01.JPG,AFNE01.JPG,AFNE01.JPG,AFNE01.JPG,AFNE01.JPG,0,2,2,9,,,,,,,,,,,,,,,,,,,,,,,AFSA13.jpg,AFNE04.jpg,AFNE10.jpg,AFSA15.jpg,AFNE04.jpg,FN,3,num_6,16,num_6,1.20014234437,,,2017_May_19_1149,60.0056391445,FEMA4ImagesEEG,001,100510,
AFNE01.JPG,AFNE01.JPG,AFNE01.JPG,AFNE01.JPG,AFNE01.JPG,AFNE01.JPG,0,3,3,0,,,,,,,,,,,,,,,,,,,,,,,AFSA05.jpg,AFNE11.jpg,AFNE08.jpg,AFSA02.jpg,AFNE11.jpg,FN,3,num_6,16,num_6,1.50015507775,,,2017_May_19_1149,60.0056391445,FEMA4ImagesEEG,001,100510,
AFNE01.JPG,AFNE01.JPG,AFNE01.JPG,AFNE01.JPG,AFNE01.JPG,AFNE01.JPG,0,4,4,5,,,,,,,,,,,,,,,,,,,,,,,AFNE05.jpg,AFSA07.jpg,AFNE06.jpg,AFSA04.jpg,AFNE05.jpg,FN,3,num_8,16,num_8,1.21677944416,,,2017_May_19_1149,60.0056391445,FEMA4ImagesEEG,001,100510,
AFNE01.JPG,AFNE01.JPG,AFNE01.JPG,AFNE01.JPG,AFNE01.JPG,AFNE01.JPG,0,5,5,7,,,,,,,,,,,,,,,,,,,,,,,AFSA18.jpg,AFNE12.jpg,AFNE09.jpg,AFSA07.jpg,AFSA07.jpg,FS,4,num_4,16,num_4,1.78340947165,,,2017_May_19_1149,60.0056391445,FEMA4ImagesEEG,001,100510,
AFNE01.JPG,AFNE01.JPG,AFNE01.JPG,AFNE01.JPG,AFNE01.JPG,AFNE01.JPG,0,6,6,4,,,,,,,,,,,,,,,,,,,,,,,AFNE12.jpg,AFSA03.jpg,AFSA20.jpg,AFNE02.jpg,AFNE12.jpg,FN,3,num_8,16,num_8,0.850381888973,,,2017_May_19_1149,60.0056391445,FEMA4ImagesEEG,001,100510,
AFNE01.JPG,AFNE01.JPG,AFNE01.JPG,AFNE01.JPG,AFNE01.JPG,AFNE01.JPG,0,7,7,2,,,,,,,,,,,,,,,,,,,,,,,AFSA08.jpg,AFSA06.jpg,AFNE11.jpg,AFNE20.jpg,AFSA06.jpg,FS,4,num_6,16,num_6,1.50010311787,,,2017_May_19_1149,60.0056391445,FEMA4ImagesEEG,001,100510,
AFNE01.JPG,AFNE01.JPG,AFNE01.JPG,AFNE01.JPG,AFNE01.JPG,AFNE01.JPG,0,8,8,1,,,,,,,,,,,,,,,,,,,,,,,AFNE16.jpg,AFNE15.jpg,AFSA13.jpg,AFSA10.jpg,AFNE16.jpg,FN,3,num_8,32,num_2,1.25011009397,,,2017_May_19_1149,60.0056391445,FEMA4ImagesEEG,001,100510,
AFNE01.JPG,AFNE01.JPG,AFNE01.JPG,AFNE01.JPG,AFNE01.JPG,AFNE01.JPG,0,9,9,6,,,,,,,,,,,,,,,,,,,,,,,AFSA05.jpg,AFNE16.jpg,AFNE05.jpg,AFSA07.jpg,AFNE16.jpg,FN,3,num_6,16,num_6,0.683478142048,,,2017_May_19_1149,60.0056391445,FEMA4ImagesEEG,001,100510,
AFNE01.JPG,AFNE01.JPG,AFNE01.JPG,AFNE01.JPG,AFNE01.JPG,AFNE01.JPG,1,0,10,7,,,,,,,,,,,,,,,,,,,,,,,AFSA13.jpg,AFNE13.jpg,AFNE17.jpg,AFSA01.jpg,AFNE13.jpg,FN,3,num_6,32,num_8,0.81678919468,,,2017_May_19_1149,60.0056391445,FEMA4ImagesEEG,001,100510,
AFNE01.JPG,AFNE01.JPG,AFNE01.JPG,AFNE01.JPG,AFNE01.JPG,AFNE01.JPG,1,1,11,8,,,,,,,,,,,,,,,,,,,,,,,AFNE13.jpg,AFSA17.jpg,AFSA07.jpg,AFNE16.jpg,AFSA17.jpg,FS,4,num_6,32,num_2,1.78341364127,,,2017_May_19_1149,60.0056391445,FEMA4ImagesEEG,001,100510,
AFNE01.JPG,AFNE01.JPG,AFNE01.JPG,AFNE01.JPG,AFNE01.JPG,AFNE01.JPG,1,2,12,4,,,,,,,,,,,,,,,,,,,,,,,AFSA14.jpg,AFNE17.jpg,AFSA03.jpg,AFNE10.jpg,AFNE10.jpg,FN,3,num_4,32,num_8,0.883505661535,,,2017_May_19_1149,60.0056391445,FEMA4ImagesEEG,001,100510,
AFNE01.JPG,AFNE01.JPG,AFNE01.JPG,AFNE01.JPG,AFNE01.JPG,AFNE01.JPG,1,3,13,6,,,,,,,,,,,,,,,,,,,,,,,AFNE13.jpg,AFSA07.jpg,AFNE11.jpg,AFSA19.jpg,AFNE11.jpg,FN,3,num_2,32,num_8,1.21673614427,,,2017_May_19_1149,60.0056391445,FEMA4ImagesEEG,001,100510,
AFNE01.JPG,AFNE01.JPG,AFNE01.JPG,AFNE01.JPG,AFNE01.JPG,AFNE01.JPG,1,4,14,9,,,,,,,,,,,,,,,,,,,,,,,AFNE15.jpg,AFSA17.jpg,AFSA01.jpg,AFNE05.jpg,AFNE15.jpg,FN,3,num_8,16,num_8,0.783523975784,,,2017_May_19_1149,60.0056391445,FEMA4ImagesEEG,001,100510,
AFNE01.JPG,AFNE01.JPG,AFNE01.JPG,AFNE01.JPG,AFNE01.JPG,AFNE01.JPG,1,5,15,2,,,,,,,,,,,,,,,,,,,,,,,AFSA05.jpg,AFNE07.jpg,AFNE18.jpg,AFSA15.jpg,AFNE18.jpg,FN,3,num_2,16,num_2,1.66659471401,,,2017_May_19_1149,60.0056391445,FEMA4ImagesEEG,001,100510,
AFNE01.JPG,AFNE01.JPG,AFNE01.JPG,AFNE01.JPG,AFNE01.JPG,AFNE01.JPG,1,6,16,3,,,,,,,,,,,,,,,,,,,,,,,AFNE11.jpg,AFNE04.jpg,AFSA06.jpg,AFSA18.jpg,AFNE04.jpg,FN,3,num_6,16,num_6,1.10015167788,,,2017_May_19_1149,60.0056391445,FEMA4ImagesEEG,001,100510,
AFNE01.JPG,AFNE01.JPG,AFNE01.JPG,AFNE01.JPG,AFNE01.JPG,AFNE01.JPG,1,7,17,5,,,,,,,,,,,,,,,,,,,,,,,AFNE20.jpg,AFNE01.jpg,AFSA19.jpg,AFSA13.jpg,AFNE01.jpg,FN,3,num_6,32,num_8,1.20007306454,,,2017_May_19_1149,60.0056391445,FEMA4ImagesEEG,001,100510,
AFNE01.JPG,AFNE01.JPG,AFNE01.JPG,AFNE01.JPG,AFNE01.JPG,AFNE01.JPG,1,8,18,1,,,,,,,,,,,,,,,,,,,,,,,AFNE19.jpg,AFSA20.jpg,AFSA12.jpg,AFNE13.jpg,AFNE13.jpg,FN,3,num_4,32,num_6,1.05018104165,,,2017_May_19_1149,60.0056391445,FEMA4ImagesEEG,001,100510,
AFNE01.JPG,AFNE01.JPG,AFNE01.JPG,AFNE01.JPG,AFNE01.JPG,AFNE01.JPG,1,9,19,0,,,,,,,,,,,,,,,,,,,,,,,AFSA18.jpg,AFNE09.jpg,AFSA06.jpg,AFNE17.jpg,AFSA06.jpg,FS,4,num_2,32,num_8,1.06676457787,,,2017_May_19_1149,60.0056391445,FEMA4ImagesEEG,001,100510,
AFNE01.JPG,AFNE01.JPG,AFNE01.JPG,AFNE01.JPG,AFNE01.JPG,AFNE01.JPG,2,0,20,5,,,,,,,,,,,,,,,,,,,,,,,AFNE03.jpg,AFSA08.jpg,AFNE15.jpg,AFSA09.jpg,AFNE15.jpg,FN,3,num_2,16,num_2,0.833459972142,,,2017_May_19_1149,60.0056391445,FEMA4ImagesEEG,001,100510,
AFNE01.JPG,AFNE01.JPG,AFNE01.JPG,AFNE01.JPG,AFNE01.JPG,AFNE01.JPG,2,1,21,9,,,,,,,,,,,,,,,,,,,,,,,AFSA11.jpg,AFNE10.jpg,AFSA06.jpg,AFNE16.jpg,AFSA11.jpg,FS,4,num_8,32,num_4,1.03349166125,,,2017_May_19_1149,60.0056391445,FEMA4ImagesEEG,001,100510,
AFNE01.JPG,AFNE01.JPG,AFNE01.JPG,AFNE01.JPG,AFNE01.JPG,AFNE01.JPG,2,2,22,1,,,,,,,,,,,,,,,,,,,,,,,AFNE15.jpg,AFSA18.jpg,AFNE02.jpg,AFSA19.jpg,AFSA19.jpg,FS,4,num_4,32,num_2,1.1834240974,,,2017_May_19_1149,60.0056391445,FEMA4ImagesEEG,001,100510,
AFNE01.JPG,AFNE01.JPG,AFNE01.JPG,AFNE01.JPG,AFNE01.JPG,AFNE01.JPG,2,3,23,3,,,,,,,,,,,,,,,,,,,,,,,AFSA03.jpg,AFNE04.jpg,AFSA07.jpg,AFNE12.jpg,AFNE12.jpg,FN,3,num_4,16,num_4,0.683476217615,,,2017_May_19_1149,60.0056391445,FEMA4ImagesEEG,001,100510,
AFNE01.JPG,AFNE01.JPG,AFNE01.JPG,AFNE01.JPG,AFNE01.JPG,AFNE01.JPG,2,4,24,8,,,,,,,,,,,,,,,,,,,,,,,AFNE05.jpg,AFSA14.jpg,AFNE10.jpg,AFSA20.jpg,AFNE10.jpg,FN,3,num_2,16,num_2,0.850214783481,,,2017_May_19_1149,60.0056391445,FEMA4ImagesEEG,001,100510,
AFNE01.JPG,AFNE01.JPG,AFNE01.JPG,AFNE01.JPG,AFNE01.JPG,AFNE01.JPG,2,5,25,0,,,,,,,,,,,,,,,,,,,,,,,AFSA15.jpg,AFSA12.jpg,AFNE08.jpg,AFNE02.jpg,AFSA15.jpg,FS,4,num_8,32,num_6,1.16676679099,,,2017_May_19_1149,60.0056391445,FEMA4ImagesEEG,001,100510,
AFNE01.JPG,AFNE01.JPG,AFNE01.JPG,AFNE01.JPG,AFNE01.JPG,AFNE01.JPG,2,6,26,6,,,,,,,,,,,,,,,,,,,,,,,AFSA20.jpg,AFNE11.jpg,AFSA09.jpg,AFNE12.jpg,AFSA20.jpg,FS,4,num_8,32,num_6,0.833490442456,,,2017_May_19_1149,60.0056391445,FEMA4ImagesEEG,001,100510,
AFNE01.JPG,AFNE01.JPG,AFNE01.JPG,AFNE01.JPG,AFNE01.JPG,AFNE01.JPG,2,7,27,2,,,,,,,,,,,,,,,,,,,,,,,AFNE14.jpg,AFSA16.jpg,AFSA05.jpg,AFNE20.jpg,AFNE20.jpg,FN,3,num_4,16,num_4,1.43342642274,,,2017_May_19_1149,60.0056391445,FEMA4ImagesEEG,001,100510,
AFNE01.JPG,AFNE01.JPG,AFNE01.JPG,AFNE01.JPG,AFNE01.JPG,AFNE01.JPG,2,8,28,4,,,,,,,,,,,,,,,,,,,,,,,AFSA04.jpg,AFNE19.jpg,AFNE04.jpg,AFSA12.jpg,AFSA12.jpg,FS,4,num_4,16,num_4,0.916725014598,,,2017_May_19_1149,60.0056391445,FEMA4ImagesEEG,001,100510,
AFNE01.JPG,AFNE01.JPG,AFNE01.JPG,AFNE01.JPG,AFNE01.JPG,AFNE01.JPG,2,9,29,7,,,,,,,,,,,,,,,,,,,,,,,AFSA03.jpg,AFSA01.jpg,AFNE19.jpg,AFNE14.jpg,AFNE14.jpg,FN,3,num_4,32,num_8,1.85009354382,,,2017_May_19_1149,60.0056391445,FEMA4ImagesEEG,001,100510,
AFNE01.JPG,AFNE01.JPG,AFNE01.JPG,AFNE01.JPG,AFNE01.JPG,AFNE01.JPG,3,0,30,9,,,,,,,,,,,,,,,,,,,,,,,AFSA16.jpg,AFNE11.jpg,AFNE02.jpg,AFSA04.jpg,AFSA16.jpg,FS,4,num_8,32,num_4,1.73339681845,,,2017_May_19_1149,60.0056391445,FEMA4ImagesEEG,001,100510,
AFNE01.JPG,AFNE01.JPG,AFNE01.JPG,AFNE01.JPG,AFNE01.JPG,AFNE01.JPG,3,1,31,0,,,,,,,,,,,,,,,,,,,,,,,AFSA02.jpg,AFSA03.jpg,AFNE01.jpg,AFNE03.jpg,AFSA03.jpg,FS,4,num_6,32,num_2,3.18329676363,,,2017_May_19_1149,60.0056391445,FEMA4ImagesEEG,001,100510,
AFNE01.JPG,AFNE01.JPG,AFNE01.JPG,AFNE01.JPG,AFNE01.JPG,AFNE01.JPG,3,2,32,7,,,,,,,,,,,,,,,,,,,,,,,AFSA05.jpg,AFNE18.jpg,AFSA02.jpg,AFNE17.jpg,AFNE17.jpg,FN,3,num_4,32,num_6,0.650110607181,,,2017_May_19_1149,60.0056391445,FEMA4ImagesEEG,001,100510,
AFNE01.JPG,AFNE01.JPG,AFNE01.JPG,AFNE01.JPG,AFNE01.JPG,AFNE01.JPG,3,3,33,6,,,,,,,,,,,,,,,,,,,,,,,AFSA11.jpg,AFNE17.jpg,AFSA13.jpg,AFNE12.jpg,AFSA11.jpg,FS,4,num_8,32,num_2,1.08345139236,,,2017_May_19_1149,60.0056391445,FEMA4ImagesEEG,001,100510,
AFNE01.JPG,AFNE01.JPG,AFNE01.JPG,AFNE01.JPG,AFNE01.JPG,AFNE01.JPG,3,4,34,4,,,,,,,,,,,,,,,,,,,,,,,AFSA16.jpg,AFNE06.jpg,AFNE10.jpg,AFSA15.jpg,AFSA15.jpg,FS,4,num_4,16,num_4,0.816754554748,,,2017_May_19_1149,60.0056391445,FEMA4ImagesEEG,001,100510,
AFNE01.JPG,AFNE01.JPG,AFNE01.JPG,AFNE01.JPG,AFNE01.JPG,AFNE01.JPG,3,5,35,8,,,,,,,,,,,,,,,,,,,,,,,AFSA19.jpg,AFNE18.jpg,AFNE01.jpg,AFSA09.jpg,AFSA19.jpg,FS,4,num_8,16,num_8,1.09977512923,,,2017_May_19_1149,60.0056391445,FEMA4ImagesEEG,001,100510,
AFNE01.JPG,AFNE01.JPG,AFNE01.JPG,AFNE01.JPG,AFNE01.JPG,AFNE01.JPG,3,6,36,2,,,,,,,,,,,,,,,,,,,,,,,AFSA01.jpg,AFNE16.jpg,AFSA03.jpg,AFNE20.jpg,AFSA03.jpg,FS,4,num_2,16,num_2,0.849912646489,,,2017_May_19_1149,60.0056391445,FEMA4ImagesEEG,001,100510,
AFNE01.JPG,AFNE01.JPG,AFNE01.JPG,AFNE01.JPG,AFNE01.JPG,AFNE01.JPG,3,7,37,5,,,,,,,,,,,,,,,,,,,,,,,AFNE20.jpg,AFNE03.jpg,AFSA06.jpg,AFSA03.jpg,AFSA03.jpg,FS,4,num_4,16,num_4,1.21666846817,,,2017_May_19_1149,60.0056391445,FEMA4ImagesEEG,001,100510,
AFNE01.JPG,AFNE01.JPG,AFNE01.JPG,AFNE01.JPG,AFNE01.JPG,AFNE01.JPG,3,8,38,1,,,,,,,,,,,,,,,,,,,,,,,AFNE20.jpg,AFSA04.jpg,AFNE14.jpg,AFSA02.jpg,AFSA04.jpg,FS,4,num_6,16,num_6,0.983489592472,,,2017_May_19_1149,60.0056391445,FEMA4ImagesEEG,001,100510,
AFNE01.JPG,AFNE01.JPG,AFNE01.JPG,AFNE01.JPG,AFNE01.JPG,AFNE01.JPG,3,9,39,3,,,,,,,,,,,,,,,,,,,,,,,AFNE13.jpg,AFNE05.jpg,AFSA08.jpg,AFSA06.jpg,AFNE13.jpg,FN,3,num_8,32,num_6,2.0000449036,,,2017_May_19_1149,60.0056391445,FEMA4ImagesEEG,001,100510,
AFNE01.JPG,AFNE01.JPG,AFNE01.JPG,AFNE01.JPG,AFNE01.JPG,AFNE01.JPG,4,0,40,3,,,,,,,,,,,,,,,,,,,,,,,AFNE01.jpg,AFSA08.jpg,AFNE03.jpg,AFSA19.jpg,AFNE03.jpg,FN,3,num_2,32,num_6,0.900133459887,,,2017_May_19_1149,60.0056391445,FEMA4ImagesEEG,001,100510,
AFNE01.JPG,AFNE01.JPG,AFNE01.JPG,AFNE01.JPG,AFNE01.JPG,AFNE01.JPG,4,1,41,9,,,,,,,,,,,,,,,,,,,,,,,AFSA06.jpg,AFNE05.jpg,AFSA15.jpg,AFNE13.jpg,AFSA15.jpg,FS,4,num_2,32,num_8,1.91671346797,,,2017_May_19_1149,60.0056391445,FEMA4ImagesEEG,001,100510,
AFNE01.JPG,AFNE01.JPG,AFNE01.JPG,AFNE01.JPG,AFNE01.JPG,AFNE01.JPG,4,2,42,4,,,,,,,,,,,,,,,,,,,,,,,AFSA05.jpg,AFNE02.jpg,AFSA16.jpg,AFNE11.jpg,AFSA05.jpg,FS,4,num_8,32,num_2,1.25013575316,,,2017_May_19_1149,60.0056391445,FEMA4ImagesEEG,001,100510,
AFNE01.JPG,AFNE01.JPG,AFNE01.JPG,AFNE01.JPG,AFNE01.JPG,AFNE01.JPG,4,3,43,5,,,,,,,,,,,,,,,,,,,,,,,AFSA20.jpg,AFNE13.jpg,AFNE16.jpg,AFSA19.jpg,AFSA19.jpg,FS,4,num_4,16,num_4,1.38363796676,,,2017_May_19_1149,60.0056391445,FEMA4ImagesEEG,001,100510,
AFNE01.JPG,AFNE01.JPG,AFNE01.JPG,AFNE01.JPG,AFNE01.JPG,AFNE01.JPG,4,4,44,8,,,,,,,,,,,,,,,,,,,,,,,AFNE05.jpg,AFSA05.jpg,AFSA16.jpg,AFNE11.jpg,AFNE11.jpg,FN,3,num_4,32,num_8,2.35001897175,,,2017_May_19_1149,60.0056391445,FEMA4ImagesEEG,001,100510,
AFNE01.JPG,AFNE01.JPG,AFNE01.JPG,AFNE01.JPG,AFNE01.JPG,AFNE01.JPG,4,5,45,7,,,,,,,,,,,,,,,,,,,,,,,AFSA06.jpg,AFSA09.jpg,AFNE06.jpg,AFNE15.jpg,AFSA06.jpg,FS,4,num_8,32,num_6,3.18295774155,,,2017_May_19_1149,60.0056391445,FEMA4ImagesEEG,001,100510,
AFNE01.JPG,AFNE01.JPG,AFNE01.JPG,AFNE01.JPG,AFNE01.JPG,AFNE01.JPG,4,6,46,1,,,,,,,,,,,,,,,,,,,,,,,AFNE12.jpg,AFSA13.jpg,AFNE04.jpg,AFSA18.jpg,AFNE12.jpg,FN,3,num_8,16,num_8,1.31659113776,,,2017_May_19_1149,60.0056391445,FEMA4ImagesEEG,001,100510,
AFNE01.JPG,AFNE01.JPG,AFNE01.JPG,AFNE01.JPG,AFNE01.JPG,AFNE01.JPG,4,7,47,2,,,,,,,,,,,,,,,,,,,,,,,AFSA03.jpg,AFSA01.jpg,AFNE18.jpg,AFNE08.jpg,AFSA01.jpg,FS,4,num_6,16,num_6,0.616882594099,,,2017_May_19_1149,60.0056391445,FEMA4ImagesEEG,001,100510,
AFNE01.JPG,AFNE01.JPG,AFNE01.JPG,AFNE01.JPG,AFNE01.JPG,AFNE01.JPG,4,8,48,6,,,,,,,,,,,,,,,,,,,,,,,AFNE01.jpg,AFNE14.jpg,AFSA08.jpg,AFSA05.jpg,AFSA08.jpg,FS,4,num_2,32,num_4,1.01679907343,,,2017_May_19_1149,60.0056391445,FEMA4ImagesEEG,001,100510,
AFNE01.JPG,AFNE01.JPG,AFNE01.JPG,AFNE01.JPG,AFNE01.JPG,AFNE01.JPG,4,9,49,0,,,,,,,,,,,,,,,,,,,,,,,AFNE11.jpg,AFSA18.jpg,AFNE15.jpg,AFSA09.jpg,AFSA18.jpg,FS,4,num_6,16,num_6,0.866898390552,,,2017_May_19_1149,60.0056391445,FEMA4ImagesEEG,001,100510,
AFNE01.JPG,AFNE01.JPG,AFNE01.JPG,AFNE01.JPG,AFNE01.JPG,AFNE01.JPG,5,0,50,3,,,,,,,,,,,,,,,,,,,,,,,AFSA15.jpg,AFNE15.jpg,AFNE11.jpg,AFSA18.jpg,AFSA18.jpg,FS,4,num_4,16,num_4,1.28341059425,,,2017_May_19_1149,60.0056391445,FEMA4ImagesEEG,001,100510,
AFNE01.JPG,AFNE01.JPG,AFNE01.JPG,AFNE01.JPG,AFNE01.JPG,AFNE01.JPG,5,1,51,4,,,,,,,,,,,,,,,,,,,,,,,AFNE18.jpg,AFSA06.jpg,AFNE04.jpg,AFSA18.jpg,AFNE18.jpg,FN,3,num_8,32,num_6,1.10012954686,,,2017_May_19_1149,60.0056391445,FEMA4ImagesEEG,001,100510,
AFNE01.JPG,AFNE01.JPG,AFNE01.JPG,AFNE01.JPG,AFNE01.JPG,AFNE01.JPG,5,2,52,1,,,,,,,,,,,,,,,,,,,,,,,AFSA10.jpg,AFNE03.jpg,AFNE02.jpg,AFSA19.jpg,AFNE02.jpg,FN,3,num_2,16,num_2,0.900110687362,,,2017_May_19_1149,60.0056391445,FEMA4ImagesEEG,001,100510,
AFNE01.JPG,AFNE01.JPG,AFNE01.JPG,AFNE01.JPG,AFNE01.JPG,AFNE01.JPG,5,3,53,5,,,,,,,,,,,,,,,,,,,,,,,AFSA11.jpg,AFNE12.jpg,AFNE01.jpg,AFSA13.jpg,AFSA13.jpg,FS,4,num_4,16,num_4,1.48344132112,,,2017_May_19_1149,60.0056391445,FEMA4ImagesEEG,001,100510,
AFNE01.JPG,AFNE01.JPG,AFNE01.JPG,AFNE01.JPG,AFNE01.JPG,AFNE01.JPG,5,4,54,7,,,,,,,,,,,,,,,,,,,,,,,AFNE05.jpg,AFSA09.jpg,AFSA14.jpg,AFNE14.jpg,AFNE05.jpg,FN,3,num_8,16,num_8,1.41671779795,,,2017_May_19_1149,60.0056391445,FEMA4ImagesEEG,001,100510,
AFNE01.JPG,AFNE01.JPG,AFNE01.JPG,AFNE01.JPG,AFNE01.JPG,AFNE01.JPG,5,5,55,0,,,,,,,,,,,,,,,,,,,,,,,AFNE18.jpg,AFSA07.jpg,AFSA01.jpg,AFNE14.jpg,AFSA07.jpg,FS,4,num_6,32,num_8,1.65017828328,,,2017_May_19_1149,60.0056391445,FEMA4ImagesEEG,001,100510,
AFNE01.JPG,AFNE01.JPG,AFNE01.JPG,AFNE01.JPG,AFNE01.JPG,AFNE01.JPG,5,6,56,2,,,,,,,,,,,,,,,,,,,,,,,AFSA08.jpg,AFNE03.jpg,AFNE05.jpg,AFSA06.jpg,AFNE03.jpg,FN,3,num_6,32,num_2,1.81658199668,,,2017_May_19_1149,60.0056391445,FEMA4ImagesEEG,001,100510,
AFNE01.JPG,AFNE01.JPG,AFNE01.JPG,AFNE01.JPG,AFNE01.JPG,AFNE01.JPG,5,7,57,8,,,,,,,,,,,,,,,,,,,,,,,AFSA01.jpg,AFSA08.jpg,AFNE01.jpg,AFNE10.jpg,AFSA01.jpg,FS,4,num_8,32,num_2,1.61679791877,,,2017_May_19_1149,60.0056391445,FEMA4ImagesEEG,001,100510,
AFNE01.JPG,AFNE01.JPG,AFNE01.JPG,AFNE01.JPG,AFNE01.JPG,AFNE01.JPG,5,8,58,6,,,,,,,,,,,,,,,,,,,,,,,AFNE16.jpg,AFSA12.jpg,AFNE19.jpg,AFSA01.jpg,AFNE19.jpg,FN,3,num_2,32,num_8,1.06700160465,,,2017_May_19_1149,60.0056391445,FEMA4ImagesEEG,001,100510,
AFNE01.JPG,AFNE01.JPG,AFNE01.JPG,AFNE01.JPG,AFNE01.JPG,AFNE01.JPG,5,9,59,9,,,,,,,,,,,,,,,,,,,,,,,AFNE03.jpg,AFNE09.jpg,AFSA03.jpg,AFSA18.jpg,AFNE03.jpg,FN,3,num_8,32,num_2,1.30007078729,,,2017_May_19_1149,60.0056391445,FEMA4ImagesEEG,001,100510,
,,,,,,,,,,,,,,,,,,,,,,,,,,,,,,,,,,,,,,,,,,,space,25.6315673501,2017_May_19_1149,60.0056391445,FEMA4ImagesEEG,001,100510,
AFNE01.JPG,AFNE01.JPG,AFNE01.JPG,AFNE01.JPG,AFNE01.JPG,AFNE01.JPG,,,,,0,0,0,6,,,,,,,,,,,,,,,,,,,AMSA06.jpg,AMNE11.jpg,AMNE20.jpg,AMSA18.jpg,AMNE20.jpg,MN,1,num_2,16,num_2,1.3001358975,,,2017_May_19_1149,60.0056391445,FEMA4ImagesEEG,001,100510,
AFNE01.JPG,AFNE01.JPG,AFNE01.JPG,AFNE01.JPG,AFNE01.JPG,AFNE01.JPG,,,,,0,1,1,0,,,,,,,,,,,,,,,,,,,AMSA11.jpg,AMSA10.jpg,AMNE03.jpg,AMNE13.jpg,AMSA11.jpg,MS,2,num_8,32,num_6,1.09993549919,,,2017_May_19_1149,60.0056391445,FEMA4ImagesEEG,001,100510,
AFNE01.JPG,AFNE01.JPG,AFNE01.JPG,AFNE01.JPG,AFNE01.JPG,AFNE01.JPG,,,,,0,2,2,7,,,,,,,,,,,,,,,,,,,AMSA19.jpg,AMNE05.jpg,AMSA16.jpg,AMNE11.jpg,AMSA19.jpg,MS,2,num_8,16,num_8,0.666803194967,,,2017_May_19_1149,60.0056391445,FEMA4ImagesEEG,001,100510,
AFNE01.JPG,AFNE01.JPG,AFNE01.JPG,AFNE01.JPG,AFNE01.JPG,AFNE01.JPG,,,,,0,3,3,8,,,,,,,,,,,,,,,,,,,AMSA15.jpg,AMNE10.jpg,AMNE08.jpg,AMSA20.jpg,AMSA20.jpg,MS,2,num_4,32,num_2,0.916752598219,,,2017_May_19_1149,60.0056391445,FEMA4ImagesEEG,001,100510,
AFNE01.JPG,AFNE01.JPG,AFNE01.JPG,AFNE01.JPG,AFNE01.JPG,AFNE01.JPG,,,,,0,4,4,2,,,,,,,,,,,,,,,,,,,AMSA20.jpg,AMSA14.jpg,AMNE08.jpg,AMNE15.jpg,AMNE08.jpg,MN,1,num_2,32,num_8,1.00018827431,,,2017_May_19_1149,60.0056391445,FEMA4ImagesEEG,001,100510,
AFNE01.JPG,AFNE01.JPG,AFNE01.JPG,AFNE01.JPG,AFNE01.JPG,AFNE01.JPG,,,,,0,5,5,3,,,,,,,,,,,,,,,,,,,AMSA01.jpg,AMNE07.jpg,AMSA05.jpg,AMNE02.jpg,AMNE02.jpg,MN,1,num_4,16,num_4,0.966753704764,,,2017_May_19_1149,60.0056391445,FEMA4ImagesEEG,001,100510,
AFNE01.JPG,AFNE01.JPG,AFNE01.JPG,AFNE01.JPG,AFNE01.JPG,AFNE01.JPG,,,,,0,6,6,9,,,,,,,,,,,,,,,,,,,AMNE18.jpg,AMSA01.jpg,AMNE12.jpg,AMSA15.jpg,AMSA15.jpg,MS,2,num_4,16,num_4,0.733465456782,,,2017_May_19_1149,60.0056391445,FEMA4ImagesEEG,001,100510,
AFNE01.JPG,AFNE01.JPG,AFNE01.JPG,AFNE01.JPG,AFNE01.JPG,AFNE01.JPG,,,,,0,7,7,1,,,,,,,,,,,,,,,,,,,AMNE16.jpg,AMNE13.jpg,AMSA13.jpg,AMSA11.jpg,AMNE16.jpg,MN,1,num_8,16,num_8,1.30022378021,,,2017_May_19_1149,60.0056391445,FEMA4ImagesEEG,001,100510,
AFNE01.JPG,AFNE01.JPG,AFNE01.JPG,AFNE01.JPG,AFNE01.JPG,AFNE01.JPG,,,,,0,8,8,4,,,,,,,,,,,,,,,,,,,AMNE16.jpg,AMSA01.jpg,AMNE05.jpg,AMSA06.jpg,AMNE16.jpg,MN,1,num_8,32,num_2,1.46672435707,,,2017_May_19_1149,60.0056391445,FEMA4ImagesEEG,001,100510,
AFNE01.JPG,AFNE01.JPG,AFNE01.JPG,AFNE01.JPG,AFNE01.JPG,AFNE01.JPG,,,,,0,9,9,5,,,,,,,,,,,,,,,,,,,AMSA05.jpg,AMSA13.jpg,AMNE06.jpg,AMNE02.jpg,AMSA05.jpg,MS,2,num_8,16,num_8,1.31673803664,,,2017_May_19_1149,60.0056391445,FEMA4ImagesEEG,001,100510,
AFNE01.JPG,AFNE01.JPG,AFNE01.JPG,AFNE01.JPG,AFNE01.JPG,AFNE01.JPG,,,,,1,0,10,1,,,,,,,,,,,,,,,,,,,AMNE08.jpg,AMNE02.jpg,AMSA09.jpg,AMSA17.jpg,AMSA17.jpg,MS,2,num_4,16,num_4,0.683494499797,,,2017_May_19_1149,60.0056391445,FEMA4ImagesEEG,001,100510,
AFNE01.JPG,AFNE01.JPG,AFNE01.JPG,AFNE01.JPG,AFNE01.JPG,AFNE01.JPG,,,,,1,1,11,2,,,,,,,,,,,,,,,,,,,AMNE04.jpg,AMSA20.jpg,AMNE17.jpg,AMSA04.jpg,AMSA20.jpg,MS,2,num_6,16,num_6,1.0167615469,,,2017_May_19_1149,60.0056391445,FEMA4ImagesEEG,001,100510,
AFNE01.JPG,AFNE01.JPG,AFNE01.JPG,AFNE01.JPG,AFNE01.JPG,AFNE01.JPG,,,,,1,2,12,4,,,,,,,,,,,,,,,,,,,AMSA03.jpg,AMNE01.jpg,AMNE18.jpg,AMSA18.jpg,AMSA03.jpg,MS,2,num_8,16,num_8,1.10007919068,,,2017_May_19_1149,60.0056391445,FEMA4ImagesEEG,001,100510,
AFNE01.JPG,AFNE01.JPG,AFNE01.JPG,AFNE01.JPG,AFNE01.JPG,AFNE01.JPG,,,,,1,3,13,0,,,,,,,,,,,,,,,,,,,AMSA01.jpg,AMSA04.jpg,AMNE14.jpg,AMNE03.jpg,AMNE14.jpg,MN,1,num_2,16,num_2,0.933440374938,,,2017_May_19_1149,60.0056391445,FEMA4ImagesEEG,001,100510,
AFNE01.JPG,AFNE01.JPG,AFNE01.JPG,AFNE01.JPG,AFNE01.JPG,AFNE01.JPG,,,,,1,4,14,3,,,,,,,,,,,,,,,,,,,AMNE08.jpg,AMNE03.jpg,AMSA06.jpg,AMSA04.jpg,AMNE08.jpg,MN,1,num_8,16,num_8,0.866823337419,,,2017_May_19_1149,60.0056391445,FEMA4ImagesEEG,001,100510,
AFNE01.JPG,AFNE01.JPG,AFNE01.JPG,AFNE01.JPG,AFNE01.JPG,AFNE01.JPG,,,,,1,5,15,8,,,,,,,,,,,,,,,,,,,AMSA01.jpg,AMSA20.jpg,AMNE11.jpg,AMNE17.jpg,AMSA01.jpg,MS,2,num_8,16,num_8,0.983472593245,,,2017_May_19_1149,60.0056391445,FEMA4ImagesEEG,001,100510,
AFNE01.JPG,AFNE01.JPG,AFNE01.JPG,AFNE01.JPG,AFNE01.JPG,AFNE01.JPG,,,,,1,6,16,7,,,,,,,,,,,,,,,,,,,AMSA16.jpg,AMSA03.jpg,AMNE13.jpg,AMNE10.jpg,AMSA16.jpg,MS,2,num_8,32,num_2,0.983443726669,,,2017_May_19_1149,60.0056391445,FEMA4ImagesEEG,001,100510,
AFNE01.JPG,AFNE01.JPG,AFNE01.JPG,AFNE01.JPG,AFNE01.JPG,AFNE01.JPG,,,,,1,7,17,9,,,,,,,,,,,,,,,,,,,AMSA18.jpg,AMNE14.jpg,AMNE18.jpg,AMSA13.jpg,AMNE14.jpg,MN,1,num_6,16,num_6,1.40006690635,,,2017_May_19_1149,60.0056391445,FEMA4ImagesEEG,001,100510,
AFNE01.JPG,AFNE01.JPG,AFNE01.JPG,AFNE01.JPG,AFNE01.JPG,AFNE01.JPG,,,,,1,8,18,6,,,,,,,,,,,,,,,,,,,AMNE18.jpg,AMNE20.jpg,AMSA05.jpg,AMSA18.jpg,AMSA05.jpg,MS,2,num_2,16,num_2,0.966755949979,,,2017_May_19_1149,60.0056391445,FEMA4ImagesEEG,001,100510,
AFNE01.JPG,AFNE01.JPG,AFNE01.JPG,AFNE01.JPG,AFNE01.JPG,AFNE01.JPG,,,,,1,9,19,5,,,,,,,,,,,,,,,,,,,AMNE16.jpg,AMSA13.jpg,AMSA10.jpg,AMNE05.jpg,AMSA13.jpg,MS,2,num_6,32,num_4,0.850021377322,,,2017_May_19_1149,60.0056391445,FEMA4ImagesEEG,001,100510,
AFNE01.JPG,AFNE01.JPG,AFNE01.JPG,AFNE01.JPG,AFNE01.JPG,AFNE01.JPG,,,,,2,0,20,9,,,,,,,,,,,,,,,,,,,AMNE06.jpg,AMSA19.jpg,AMNE19.jpg,AMSA11.jpg,AMSA19.jpg,MS,2,num_6,32,num_4,0.916753881174,,,2017_May_19_1149,60.0056391445,FEMA4ImagesEEG,001,100510,
AFNE01.JPG,AFNE01.JPG,AFNE01.JPG,AFNE01.JPG,AFNE01.JPG,AFNE01.JPG,,,,,2,1,21,2,,,,,,,,,,,,,,,,,,,AMSA01.jpg,AMNE10.jpg,AMNE06.jpg,AMSA07.jpg,AMSA01.jpg,MS,2,num_8,16,num_8,1.05027886733,,,2017_May_19_1149,60.0056391445,FEMA4ImagesEEG,001,100510,
AFNE01.JPG,AFNE01.JPG,AFNE01.JPG,AFNE01.JPG,AFNE01.JPG,AFNE01.JPG,,,,,2,2,22,4,,,,,,,,,,,,,,,,,,,AMSA02.jpg,AMSA15.jpg,AMNE08.jpg,AMNE04.jpg,AMNE04.jpg,MN,1,num_4,32,num_2,1.08340873395,,,2017_May_19_1149,60.0056391445,FEMA4ImagesEEG,001,100510,
AFNE01.JPG,AFNE01.JPG,AFNE01.JPG,AFNE01.JPG,AFNE01.JPG,AFNE01.JPG,,,,,2,3,23,6,,,,,,,,,,,,,,,,,,,AMSA18.jpg,AMNE10.jpg,AMNE17.jpg,AMSA14.jpg,AMSA14.jpg,MS,2,num_4,16,num_4,0.900112932519,,,2017_May_19_1149,60.0056391445,FEMA4ImagesEEG,001,100510,
AFNE01.JPG,AFNE01.JPG,AFNE01.JPG,AFNE01.JPG,AFNE01.JPG,AFNE01.JPG,,,,,2,4,24,5,,,,,,,,,,,,,,,,,,,AMSA08.jpg,AMSA01.jpg,AMNE03.jpg,AMNE13.jpg,AMSA01.jpg,MS,2,num_6,16,num_6,0.983461688098,,,2017_May_19_1149,60.0056391445,FEMA4ImagesEEG,001,100510,
AFNE01.JPG,AFNE01.JPG,AFNE01.JPG,AFNE01.JPG,AFNE01.JPG,AFNE01.JPG,,,,,2,5,25,7,,,,,,,,,,,,,,,,,,,AMSA02.jpg,AMNE17.jpg,AMSA18.jpg,AMNE09.jpg,AMNE17.jpg,MN,1,num_6,32,num_4,0.650175075891,,,2017_May_19_1149,60.0056391445,FEMA4ImagesEEG,001,100510,
AFNE01.JPG,AFNE01.JPG,AFNE01.JPG,AFNE01.JPG,AFNE01.JPG,AFNE01.JPG,,,,,2,6,26,8,,,,,,,,,,,,,,,,,,,AMSA08.jpg,AMNE12.jpg,AMNE19.jpg,AMSA02.jpg,AMNE12.jpg,MN,1,num_6,16,num_6,1.63338786984,,,2017_May_19_1149,60.0056391445,FEMA4ImagesEEG,001,100510,
AFNE01.JPG,AFNE01.JPG,AFNE01.JPG,AFNE01.JPG,AFNE01.JPG,AFNE01.JPG,,,,,2,7,27,3,,,,,,,,,,,,,,,,,,,AMNE08.jpg,AMSA08.jpg,AMNE17.jpg,AMSA04.jpg,AMSA04.jpg,MS,2,num_4,16,num_4,0.900125441374,,,2017_May_19_1149,60.0056391445,FEMA4ImagesEEG,001,100510,
AFNE01.JPG,AFNE01.JPG,AFNE01.JPG,AFNE01.JPG,AFNE01.JPG,AFNE01.JPG,,,,,2,8,28,0,,,,,,,,,,,,,,,,,,,AMSA19.jpg,AMSA01.jpg,AMNE04.jpg,AMNE15.jpg,AMNE04.jpg,MN,1,num_2,16,num_2,1.36675902907,,,2017_May_19_1149,60.0056391445,FEMA4ImagesEEG,001,100510,
AFNE01.JPG,AFNE01.JPG,AFNE01.JPG,AFNE01.JPG,AFNE01.JPG,AFNE01.JPG,,,,,2,9,29,1,,,,,,,,,,,,,,,,,,,AMSA20.jpg,AMSA09.jpg,AMNE18.jpg,AMNE06.jpg,AMNE18.jpg,MN,1,num_2,32,num_8,1.03345124802,,,2017_May_19_1149,60.0056391445,FEMA4ImagesEEG,001,100510,
AFNE01.JPG,AFNE01.JPG,AFNE01.JPG,AFNE01.JPG,AFNE01.JPG,AFNE01.JPG,,,,,3,0,30,4,,,,,,,,,,,,,,,,,,,AMNE01.jpg,AMNE14.jpg,AMSA18.jpg,AMSA05.jpg,AMSA18.jpg,MS,2,num_2,16,num_2,1.21681600853,,,2017_May_19_1149,60.0056391445,FEMA4ImagesEEG,001,100510,
AFNE01.JPG,AFNE01.JPG,AFNE01.JPG,AFNE01.JPG,AFNE01.JPG,AFNE01.JPG,,,,,3,1,31,5,,,,,,,,,,,,,,,,,,,AMSA05.jpg,AMSA10.jpg,AMNE19.jpg,AMNE01.jpg,AMNE19.jpg,MN,1,num_2,32,num_8,2.09999676052,,,2017_May_19_1149,60.0056391445,FEMA4ImagesEEG,001,100510,
AFNE01.JPG,AFNE01.JPG,AFNE01.JPG,AFNE01.JPG,AFNE01.JPG,AFNE01.JPG,,,,,3,2,32,9,,,,,,,,,,,,,,,,,,,AMSA02.jpg,AMNE06.jpg,AMSA15.jpg,AMNE03.jpg,AMNE06.jpg,MN,1,num_6,32,num_2,1.03344868211,,,2017_May_19_1149,60.0056391445,FEMA4ImagesEEG,001,100510,
AFNE01.JPG,AFNE01.JPG,AFNE01.JPG,AFNE01.JPG,AFNE01.JPG,AFNE01.JPG,,,,,3,3,33,7,,,,,,,,,,,,,,,,,,,AMSA12.jpg,AMSA06.jpg,AMNE04.jpg,AMNE12.jpg,AMNE04.jpg,MN,1,num_2,16,num_2,0.816816136794,,,2017_May_19_1149,60.0056391445,FEMA4ImagesEEG,001,100510,
AFNE01.JPG,AFNE01.JPG,AFNE01.JPG,AFNE01.JPG,AFNE01.JPG,AFNE01.JPG,,,,,3,4,34,3,,,,,,,,,,,,,,,,,,,AMNE14.jpg,AMSA18.jpg,AMNE09.jpg,AMSA17.jpg,AMSA17.jpg,MS,2,num_4,16,num_4,0.666887228814,,,2017_May_19_1149,60.0056391445,FEMA4ImagesEEG,001,100510,
AFNE01.JPG,AFNE01.JPG,AFNE01.JPG,AFNE01.JPG,AFNE01.JPG,AFNE01.JPG,,,,,3,5,35,0,,,,,,,,,,,,,,,,,,,AMSA17.jpg,AMSA14.jpg,AMNE16.jpg,AMNE15.jpg,AMSA17.jpg,MS,2,num_8,32,num_2,1.15008799502,,,2017_May_19_1149,60.0056391445,FEMA4ImagesEEG,001,100510,
AFNE01.JPG,AFNE01.JPG,AFNE01.JPG,AFNE01.JPG,AFNE01.JPG,AFNE01.JPG,,,,,3,6,36,2,,,,,,,,,,,,,,,,,,,AMNE19.jpg,AMSA14.jpg,AMSA20.jpg,AMNE01.jpg,AMNE19.jpg,MN,1,num_8,16,num_8,1.06702822607,,,2017_May_19_1149,60.0056391445,FEMA4ImagesEEG,001,100510,
AFNE01.JPG,AFNE01.JPG,AFNE01.JPG,AFNE01.JPG,AFNE01.JPG,AFNE01.JPG,,,,,3,7,37,1,,,,,,,,,,,,,,,,,,,AMNE20.jpg,AMSA11.jpg,AMNE18.jpg,AMSA09.jpg,AMNE20.jpg,MN,1,num_8,32,num_2,1.01672530326,,,2017_May_19_1149,60.0056391445,FEMA4ImagesEEG,001,100510,
AFNE01.JPG,AFNE01.JPG,AFNE01.JPG,AFNE01.JPG,AFNE01.JPG,AFNE01.JPG,,,,,3,8,38,8,,,,,,,,,,,,,,,,,,,AMNE06.jpg,AMNE05.jpg,AMSA14.jpg,AMSA18.jpg,AMNE05.jpg,MN,1,num_6,16,num_6,0.849970700423,,,2017_May_19_1149,60.0056391445,FEMA4ImagesEEG,001,100510,
AFNE01.JPG,AFNE01.JPG,AFNE01.JPG,AFNE01.JPG,AFNE01.JPG,AFNE01.JPG,,,,,3,9,39,6,,,,,,,,,,,,,,,,,,,AMSA02.jpg,AMNE06.jpg,AMNE17.jpg,AMSA06.jpg,AMSA02.jpg,MS,2,num_8,16,num_8,0.966808551311,,,2017_May_19_1149,60.0056391445,FEMA4ImagesEEG,001,100510,
AFNE01.JPG,AFNE01.JPG,AFNE01.JPG,AFNE01.JPG,AFNE01.JPG,AFNE01.JPG,,,,,4,0,40,3,,,,,,,,,,,,,,,,,,,AMSA16.jpg,AMSA13.jpg,AMNE06.jpg,AMNE15.jpg,AMNE06.jpg,MN,1,num_2,32,num_4,1.06680178369,,,2017_May_19_1149,60.0056391445,FEMA4ImagesEEG,001,100510,
AFNE01.JPG,AFNE01.JPG,AFNE01.JPG,AFNE01.JPG,AFNE01.JPG,AFNE01.JPG,,,,,4,1,41,7,,,,,,,,,,,,,,,,,,,AMSA15.jpg,AMNE05.jpg,AMNE08.jpg,AMSA17.jpg,AMSA15.jpg,MS,2,num_8,16,num_8,1.41671940163,,,2017_May_19_1149,60.0056391445,FEMA4ImagesEEG,001,100510,
AFNE01.JPG,AFNE01.JPG,AFNE01.JPG,AFNE01.JPG,AFNE01.JPG,AFNE01.JPG,,,,,4,2,42,9,,,,,,,,,,,,,,,,,,,AMSA13.jpg,AMSA10.jpg,AMNE15.jpg,AMNE20.jpg,AMSA13.jpg,MS,2,num_8,32,num_2,1.04998988064,,,2017_May_19_1149,60.0056391445,FEMA4ImagesEEG,001,100510,
AFNE01.JPG,AFNE01.JPG,AFNE01.JPG,AFNE01.JPG,AFNE01.JPG,AFNE01.JPG,,,,,4,3,43,0,,,,,,,,,,,,,,,,,,,AMSA12.jpg,AMNE10.jpg,AMNE18.jpg,AMSA18.jpg,AMNE10.jpg,MN,1,num_6,16,num_6,0.883489303815,,,2017_May_19_1149,60.0056391445,FEMA4ImagesEEG,001,100510,
AFNE01.JPG,AFNE01.JPG,AFNE01.JPG,AFNE01.JPG,AFNE01.JPG,AFNE01.JPG,,,,,4,4,44,8,,,,,,,,,,,,,,,,,,,AMNE03.jpg,AMSA09.jpg,AMNE17.jpg,AMSA08.jpg,AMSA09.jpg,MS,2,num_6,32,num_8,0.866563858843,,,2017_May_19_1149,60.0056391445,FEMA4ImagesEEG,001,100510,
AFNE01.JPG,AFNE01.JPG,AFNE01.JPG,AFNE01.JPG,AFNE01.JPG,AFNE01.JPG,,,,,4,5,45,5,,,,,,,,,,,,,,,,,,,AMSA07.jpg,AMNE14.jpg,AMNE20.jpg,AMSA15.jpg,AMSA15.jpg,MS,2,num_4,16,num_4,1.25012131987,,,2017_May_19_1149,60.0056391445,FEMA4ImagesEEG,001,100510,
AFNE01.JPG,AFNE01.JPG,AFNE01.JPG,AFNE01.JPG,AFNE01.JPG,AFNE01.JPG,,,,,4,6,46,1,,,,,,,,,,,,,,,,,,,AMSA04.jpg,AMNE17.jpg,AMSA01.jpg,AMNE03.jpg,AMSA01.jpg,MS,2,num_2,16,num_2,0.750139120937,,,2017_May_19_1149,60.0056391445,FEMA4ImagesEEG,001,100510,
AFNE01.JPG,AFNE01.JPG,AFNE01.JPG,AFNE01.JPG,AFNE01.JPG,AFNE01.JPG,,,,,4,7,47,2,,,,,,,,,,,,,,,,,,,AMSA06.jpg,AMNE05.jpg,AMNE17.jpg,AMSA13.jpg,AMNE17.jpg,MN,1,num_2,16,num_2,1.2166245268,,,2017_May_19_1149,60.0056391445,FEMA4ImagesEEG,001,100510,
AFNE01.JPG,AFNE01.JPG,AFNE01.JPG,AFNE01.JPG,AFNE01.JPG,AFNE01.JPG,,,,,4,8,48,6,,,,,,,,,,,,,,,,,,,AMNE17.jpg,AMNE19.jpg,AMSA05.jpg,AMSA08.jpg,AMNE17.jpg,MN,1,num_8,32,num_6,0.800149208226,,,2017_May_19_1149,60.0056391445,FEMA4ImagesEEG,001,100510,
AFNE01.JPG,AFNE01.JPG,AFNE01.JPG,AFNE01.JPG,AFNE01.JPG,AFNE01.JPG,,,,,4,9,49,4,,,,,,,,,,,,,,,,,,,AMSA10.jpg,AMSA05.jpg,AMNE07.jpg,AMNE16.jpg,AMNE16.jpg,MN,1,num_4,16,num_4,1.06675944602,,,2017_May_19_1149,60.0056391445,FEMA4ImagesEEG,001,100510,
AFNE01.JPG,AFNE01.JPG,AFNE01.JPG,AFNE01.JPG,AFNE01.JPG,AFNE01.JPG,,,,,5,0,50,7,,,,,,,,,,,,,,,,,,,AMSA20.jpg,AMNE17.jpg,AMNE13.jpg,AMSA11.jpg,AMSA11.jpg,MS,2,num_4,32,num_8,1.36668205151,,,2017_May_19_1149,60.0056391445,FEMA4ImagesEEG,001,100510,
AFNE01.JPG,AFNE01.JPG,AFNE01.JPG,AFNE01.JPG,AFNE01.JPG,AFNE01.JPG,,,,,5,1,51,3,,,,,,,,,,,,,,,,,,,AMSA02.jpg,AMSA15.jpg,AMNE08.jpg,AMNE10.jpg,AMNE08.jpg,MN,1,num_2,16,num_2,1.61671741307,,,2017_May_19_1149,60.0056391445,FEMA4ImagesEEG,001,100510,
AFNE01.JPG,AFNE01.JPG,AFNE01.JPG,AFNE01.JPG,AFNE01.JPG,AFNE01.JPG,,,,,5,2,52,5,,,,,,,,,,,,,,,,,,,AMSA14.jpg,AMNE06.jpg,AMSA17.jpg,AMNE20.jpg,AMNE06.jpg,MN,1,num_6,16,num_6,1.00009750493,,,2017_May_19_1149,60.0056391445,FEMA4ImagesEEG,001,100510,
AFNE01.JPG,AFNE01.JPG,AFNE01.JPG,AFNE01.JPG,AFNE01.JPG,AFNE01.JPG,,,,,5,3,53,8,,,,,,,,,,,,,,,,,,,AMNE10.jpg,AMNE06.jpg,AMSA12.jpg,AMSA08.jpg,AMNE10.jpg,MN,1,num_8,32,num_4,0.799992366403,,,2017_May_19_1149,60.0056391445,FEMA4ImagesEEG,001,100510,
AFNE01.JPG,AFNE01.JPG,AFNE01.JPG,AFNE01.JPG,AFNE01.JPG,AFNE01.JPG,,,,,5,4,54,2,,,,,,,,,,,,,,,,,,,AMNE01.jpg,AMSA19.jpg,AMSA10.jpg,AMNE14.jpg,AMNE01.jpg,MN,1,num_8,32,num_4,1.26663301035,,,2017_May_19_1149,60.0056391445,FEMA4ImagesEEG,001,100510,
AFNE01.JPG,AFNE01.JPG,AFNE01.JPG,AFNE01.JPG,AFNE01.JPG,AFNE01.JPG,,,,,5,5,55,4,,,,,,,,,,,,,,,,,,,AMSA07.jpg,AMSA16.jpg,AMNE01.jpg,AMNE17.jpg,AMNE17.jpg,MN,1,num_4,16,num_4,1.1334387071,,,2017_May_19_1149,60.0056391445,FEMA4ImagesEEG,001,100510,
AFNE01.JPG,AFNE01.JPG,AFNE01.JPG,AFNE01.JPG,AFNE01.JPG,AFNE01.JPG,,,,,5,6,56,1,,,,,,,,,,,,,,,,,,,AMNE14.jpg,AMSA12.jpg,AMNE10.jpg,AMSA18.jpg,AMNE14.jpg,MN,1,num_8,32,num_6,0.950126227195,,,2017_May_19_1149,60.0056391445,FEMA4ImagesEEG,001,100510,
AFNE01.JPG,AFNE01.JPG,AFNE01.JPG,AFNE01.JPG,AFNE01.JPG,AFNE01.JPG,,,,,5,7,57,0,,,,,,,,,,,,,,,,,,,AMNE17.jpg,AMSA10.jpg,AMNE20.jpg,AMSA19.jpg,AMSA10.jpg,MS,2,num_6,32,num_2,1.20008910153,,,2017_May_19_1149,60.0056391445,FEMA4ImagesEEG,001,100510,
AFNE01.JPG,AFNE01.JPG,AFNE01.JPG,AFNE01.JPG,AFNE01.JPG,AFNE01.JPG,,,,,5,8,58,6,,,,,,,,,,,,,,,,,,,AMNE02.jpg,AMNE18.jpg,AMSA05.jpg,AMSA10.jpg,AMSA05.jpg,MS,2,num_2,16,num_2,0.900257906964,,,2017_May_19_1149,60.0056391445,FEMA4ImagesEEG,001,100510,
AFNE01.JPG,AFNE01.JPG,AFNE01.JPG,AFNE01.JPG,AFNE01.JPG,AFNE01.JPG,,,,,5,9,59,9,,,,,,,,,,,,,,,,,,,AMSA07.jpg,AMSA04.jpg,AMNE20.jpg,AMNE07.jpg,AMNE20.jpg,MN,1,num_2,16,num_2,1.1999633715,,,2017_May_19_1149,60.0056391445,FEMA4ImagesEEG,001,100510,
,,,,,,,,,,,,,,,,,,,,,,,,,,,,,,,,,,,,,,,,,,,space,42.2302800284,2017_May_19_1149,60.0056391445,FEMA4ImagesEEG,001,100510,
AFNE01.JPG,AFNE01.JPG,AFNE01.JPG,AFNE01.JPG,AFNE01.JPG,AFNE01.JPG,,,,,,,,,0,0,0,5,,,,,,,,,,,,,,,AFSA05.jpg,AFNE06.jpg,AFNE20.jpg,AFSA10.jpg,AFNE20.jpg,FN,3,num_2,32,num_6,0.899964109209,,,2017_May_19_1149,60.0056391445,FEMA4ImagesEEG,001,100510,
AFNE01.JPG,AFNE01.JPG,AFNE01.JPG,AFNE01.JPG,AFNE01.JPG,AFNE01.JPG,,,,,,,,,0,1,1,1,,,,,,,,,,,,,,,AFSA19.jpg,AFSA16.jpg,AFNE05.jpg,AFNE09.jpg,AFSA19.jpg,FS,4,num_8,32,num_4,0.700115883345,,,2017_May_19_1149,60.0056391445,FEMA4ImagesEEG,001,100510,
AFNE01.JPG,AFNE01.JPG,AFNE01.JPG,AFNE01.JPG,AFNE01.JPG,AFNE01.JPG,,,,,,,,,0,2,2,6,,,,,,,,,,,,,,,AFSA01.jpg,AFNE15.jpg,AFSA19.jpg,AFNE12.jpg,AFNE12.jpg,FN,3,num_4,16,num_4,0.766771409631,,,2017_May_19_1149,60.0056391445,FEMA4ImagesEEG,001,100510,
AFNE01.JPG,AFNE01.JPG,AFNE01.JPG,AFNE01.JPG,AFNE01.JPG,AFNE01.JPG,,,,,,,,,0,3,3,0,,,,,,,,,,,,,,,AFNE14.jpg,AFNE05.jpg,AFSA17.jpg,AFSA13.jpg,AFNE14.jpg,FN,3,num_8,16,num_8,0.600137725734,,,2017_May_19_1149,60.0056391445,FEMA4ImagesEEG,001,100510,
AFNE01.JPG,AFNE01.JPG,AFNE01.JPG,AFNE01.JPG,AFNE01.JPG,AFNE01.JPG,,,,,,,,,0,4,4,8,,,,,,,,,,,,,,,AFNE10.jpg,AFSA11.jpg,AFNE03.jpg,AFSA06.jpg,AFNE10.jpg,FN,3,num_8,16,num_8,0.783411396085,,,2017_May_19_1149,60.0056391445,FEMA4ImagesEEG,001,100510,
AFNE01.JPG,AFNE01.JPG,AFNE01.JPG,AFNE01.JPG,AFNE01.JPG,AFNE01.JPG,,,,,,,,,0,5,5,4,,,,,,,,,,,,,,,AFSA18.jpg,AFNE09.jpg,AFNE19.jpg,AFSA09.jpg,AFSA09.jpg,FS,4,num_4,16,num_4,0.716760039388,,,2017_May_19_1149,60.0056391445,FEMA4ImagesEEG,001,100510,
AFNE01.JPG,AFNE01.JPG,AFNE01.JPG,AFNE01.JPG,AFNE01.JPG,AFNE01.JPG,,,,,,,,,0,6,6,7,,,,,,,,,,,,,,,AFSA14.jpg,AFNE10.jpg,AFSA12.jpg,AFNE07.jpg,AFNE10.jpg,FN,3,num_6,16,num_6,0.916775691498,,,2017_May_19_1149,60.0056391445,FEMA4ImagesEEG,001,100510,
AFNE01.JPG,AFNE01.JPG,AFNE01.JPG,AFNE01.JPG,AFNE01.JPG,AFNE01.JPG,,,,,,,,,0,7,7,9,,,,,,,,,,,,,,,AFNE16.jpg,AFNE09.jpg,AFSA04.jpg,AFSA06.jpg,AFNE16.jpg,FN,3,num_8,32,num_2,0.983412294154,,,2017_May_19_1149,60.0056391445,FEMA4ImagesEEG,001,100510,
AFNE01.JPG,AFNE01.JPG,AFNE01.JPG,AFNE01.JPG,AFNE01.JPG,AFNE01.JPG,,,,,,,,,0,8,8,3,,,,,,,,,,,,,,,AFNE17.jpg,AFSA17.jpg,AFSA18.jpg,AFNE18.jpg,AFNE17.jpg,FN,3,num_8,32,num_2,1.4001220736,,,2017_May_19_1149,60.0056391445,FEMA4ImagesEEG,001,100510,
AFNE01.JPG,AFNE01.JPG,AFNE01.JPG,AFNE01.JPG,AFNE01.JPG,AFNE01.JPG,,,,,,,,,0,9,9,2,,,,,,,,,,,,,,,AFNE08.jpg,AFNE12.jpg,AFSA02.jpg,AFSA01.jpg,AFNE08.jpg,FN,3,num_8,16,num_8,0.800090833567,,,2017_May_19_1149,60.0056391445,FEMA4ImagesEEG,001,100510,
AFNE01.JPG,AFNE01.JPG,AFNE01.JPG,AFNE01.JPG,AFNE01.JPG,AFNE01.JPG,,,,,,,,,1,0,10,5,,,,,,,,,,,,,,,AFSA10.jpg,AFNE11.jpg,AFSA20.jpg,AFNE19.jpg,AFNE19.jpg,FN,3,num_4,32,num_6,0.900164892373,,,2017_May_19_1149,60.0056391445,FEMA4ImagesEEG,001,100510,
AFNE01.JPG,AFNE01.JPG,AFNE01.JPG,AFNE01.JPG,AFNE01.JPG,AFNE01.JPG,,,,,,,,,1,1,11,2,,,,,,,,,,,,,,,AFSA11.jpg,AFNE06.jpg,AFSA01.jpg,AFNE04.jpg,AFSA01.jpg,FS,4,num_2,16,num_2,1.31672745221,,,2017_May_19_1149,60.0056391445,FEMA4ImagesEEG,001,100510,
AFNE01.JPG,AFNE01.JPG,AFNE01.JPG,AFNE01.JPG,AFNE01.JPG,AFNE01.JPG,,,,,,,,,1,2,12,6,,,,,,,,,,,,,,,AFSA01.jpg,AFNE13.jpg,AFSA18.jpg,AFNE08.jpg,AFNE13.jpg,FN,3,num_6,32,num_4,1.16675684802,,,2017_May_19_1149,60.0056391445,FEMA4ImagesEEG,001,100510,
AFNE01.JPG,AFNE01.JPG,AFNE01.JPG,AFNE01.JPG,AFNE01.JPG,AFNE01.JPG,,,,,,,,,1,3,13,3,,,,,,,,,,,,,,,AFNE02.jpg,AFNE11.jpg,AFSA01.jpg,AFSA12.jpg,AFSA12.jpg,FS,4,num_4,16,num_4,0.833475367661,,,2017_May_19_1149,60.0056391445,FEMA4ImagesEEG,001,100510,
AFNE01.JPG,AFNE01.JPG,AFNE01.JPG,AFNE01.JPG,AFNE01.JPG,AFNE01.JPG,,,,,,,,,1,4,14,0,,,,,,,,,,,,,,,AFNE17.jpg,AFNE09.jpg,AFSA13.jpg,AFSA02.jpg,AFNE17.jpg,FN,3,num_8,32,num_2,1.18344590772,,,2017_May_19_1149,60.0056391445,FEMA4ImagesEEG,001,100510,
AFNE01.JPG,AFNE01.JPG,AFNE01.JPG,AFNE01.JPG,AFNE01.JPG,AFNE01.JPG,,,,,,,,,1,5,15,1,,,,,,,,,,,,,,,AFSA03.jpg,AFNE07.jpg,AFSA10.jpg,AFNE19.jpg,AFSA03.jpg,FS,4,num_8,16,num_8,1.21679387748,,,2017_May_19_1149,60.0056391445,FEMA4ImagesEEG,001,100510,
AFNE01.JPG,AFNE01.JPG,AFNE01.JPG,AFNE01.JPG,AFNE01.JPG,AFNE01.JPG,,,,,,,,,1,6,16,7,,,,,,,,,,,,,,,AFSA15.jpg,AFNE01.jpg,AFSA19.jpg,AFNE03.jpg,AFSA19.jpg,FS,4,num_2,32,num_6,0.733480531548,,,2017_May_19_1149,60.0056391445,FEMA4ImagesEEG,001,100510,
AFNE01.JPG,AFNE01.JPG,AFNE01.JPG,AFNE01.JPG,AFNE01.JPG,AFNE01.JPG,,,,,,,,,1,7,17,9,,,,,,,,,,,,,,,AFNE16.jpg,AFSA07.jpg,AFSA04.jpg,AFNE03.jpg,AFSA07.jpg,FS,4,num_6,32,num_8,1.36705122312,,,2017_May_19_1149,60.0056391445,FEMA4ImagesEEG,001,100510,
AFNE01.JPG,AFNE01.JPG,AFNE01.JPG,AFNE01.JPG,AFNE01.JPG,AFNE01.JPG,,,,,,,,,1,8,18,8,,,,,,,,,,,,,,,AFSA05.jpg,AFSA03.jpg,AFNE12.jpg,AFNE13.jpg,AFSA03.jpg,FS,4,num_6,16,num_6,0.883487379382,,,2017_May_19_1149,60.0056391445,FEMA4ImagesEEG,001,100510,
AFNE01.JPG,AFNE01.JPG,AFNE01.JPG,AFNE01.JPG,AFNE01.JPG,AFNE01.JPG,,,,,,,,,1,9,19,4,,,,,,,,,,,,,,,AFSA17.jpg,AFSA06.jpg,AFNE17.jpg,AFNE13.jpg,AFNE17.jpg,FN,3,num_2,32,num_8,0.900129611022,,,2017_May_19_1149,60.0056391445,FEMA4ImagesEEG,001,100510,
AFNE01.JPG,AFNE01.JPG,AFNE01.JPG,AFNE01.JPG,AFNE01.JPG,AFNE01.JPG,,,,,,,,,2,0,20,4,,,,,,,,,,,,,,,AFSA14.jpg,AFNE12.jpg,AFNE20.jpg,AFSA13.jpg,AFNE20.jpg,FN,3,num_2,32,num_6,0.900138591707,,,2017_May_19_1149,60.0056391445,FEMA4ImagesEEG,001,100510,
AFNE01.JPG,AFNE01.JPG,AFNE01.JPG,AFNE01.JPG,AFNE01.JPG,AFNE01.JPG,,,,,,,,,2,1,21,5,,,,,,,,,,,,,,,AFNE01.jpg,AFSA08.jpg,AFNE18.jpg,AFSA15.jpg,AFNE01.jpg,FN,3,num_8,32,num_4,1.11703061557,,,2017_May_19_1149,60.0056391445,FEMA4ImagesEEG,001,100510,
AFNE01.JPG,AFNE01.JPG,AFNE01.JPG,AFNE01.JPG,AFNE01.JPG,AFNE01.JPG,,,,,,,,,2,2,22,7,,,,,,,,,,,,,,,AFSA02.jpg,AFSA12.jpg,AFNE16.jpg,AFNE13.jpg,AFSA02.jpg,FS,4,num_8,32,num_2,1.68339154226,,,2017_May_19_1149,60.0056391445,FEMA4ImagesEEG,001,100510,
AFNE01.JPG,AFNE01.JPG,AFNE01.JPG,AFNE01.JPG,AFNE01.JPG,AFNE01.JPG,,,,,,,,,2,3,23,8,,,,,,,,,,,,,,,AFSA13.jpg,AFNE14.jpg,AFSA18.jpg,AFNE04.jpg,AFSA13.jpg,FS,4,num_8,16,num_8,1.68341591852,,,2017_May_19_1149,60.0056391445,FEMA4ImagesEEG,001,100510,
AFNE01.JPG,AFNE01.JPG,AFNE01.JPG,AFNE01.JPG,AFNE01.JPG,AFNE01.JPG,,,,,,,,,2,4,24,3,,,,,,,,,,,,,,,AFNE10.jpg,AFSA01.jpg,AFNE19.jpg,AFSA02.jpg,AFSA01.jpg,FS,4,num_6,32,num_2,2.2666493681,,,2017_May_19_1149,60.0056391445,FEMA4ImagesEEG,001,100510,
AFNE01.JPG,AFNE01.JPG,AFNE01.JPG,AFNE01.JPG,AFNE01.JPG,AFNE01.JPG,,,,,,,,,2,5,25,6,,,,,,,,,,,,,,,AFNE04.jpg,AFNE14.jpg,AFSA18.jpg,AFSA08.jpg,AFNE04.jpg,FN,3,num_8,32,num_6,2.00004394137,,,2017_May_19_1149,60.0056391445,FEMA4ImagesEEG,001,100510,
AFNE01.JPG,AFNE01.JPG,AFNE01.JPG,AFNE01.JPG,AFNE01.JPG,AFNE01.JPG,,,,,,,,,2,6,26,2,,,,,,,,,,,,,,,AFSA08.jpg,AFNE17.jpg,AFSA10.jpg,AFNE14.jpg,AFNE17.jpg,FN,3,num_6,32,num_4,0.833475688385,,,2017_May_19_1149,60.0056391445,FEMA4ImagesEEG,001,100510,
AFNE01.JPG,AFNE01.JPG,AFNE01.JPG,AFNE01.JPG,AFNE01.JPG,AFNE01.JPG,,,,,,,,,2,7,27,1,,,,,,,,,,,,,,,AFSA10.jpg,AFSA19.jpg,AFNE14.jpg,AFNE08.jpg,AFNE14.jpg,FN,3,num_2,16,num_2,0.750112820271,,,2017_May_19_1149,60.0056391445,FEMA4ImagesEEG,001,100510,
AFNE01.JPG,AFNE01.JPG,AFNE01.JPG,AFNE01.JPG,AFNE01.JPG,AFNE01.JPG,,,,,,,,,2,8,28,0,,,,,,,,,,,,,,,AFSA19.jpg,AFSA12.jpg,AFNE11.jpg,AFNE02.jpg,AFSA12.jpg,FS,4,num_6,16,num_6,0.916789162584,,,2017_May_19_1149,60.0056391445,FEMA4ImagesEEG,001,100510,
AFNE01.JPG,AFNE01.JPG,AFNE01.JPG,AFNE01.JPG,AFNE01.JPG,AFNE01.JPG,,,,,,,,,2,9,29,9,,,,,,,,,,,,,,,AFSA07.jpg,AFNE11.jpg,AFNE15.jpg,AFSA15.jpg,AFNE15.jpg,FN,3,num_2,32,num_6,2.01636992345,,,2017_May_19_1149,60.0056391445,FEMA4ImagesEEG,001,100510,
AFNE01.JPG,AFNE01.JPG,AFNE01.JPG,AFNE01.JPG,AFNE01.JPG,AFNE01.JPG,,,,,,,,,3,0,30,2,,,,,,,,,,,,,,,AFSA03.jpg,AFSA14.jpg,AFNE08.jpg,AFNE09.jpg,AFNE08.jpg,FN,3,num_2,32,num_4,1.30006790065,,,2017_May_19_1149,60.0056391445,FEMA4ImagesEEG,001,100510,
AFNE01.JPG,AFNE01.JPG,AFNE01.JPG,AFNE01.JPG,AFNE01.JPG,AFNE01.JPG,,,,,,,,,3,1,31,8,,,,,,,,,,,,,,,AFNE16.jpg,AFSA02.jpg,AFNE03.jpg,AFSA01.jpg,AFNE03.jpg,FN,3,num_2,32,num_4,1.0501749476,,,2017_May_19_1149,60.0056391445,FEMA4ImagesEEG,001,100510,
AFNE01.JPG,AFNE01.JPG,AFNE01.JPG,AFNE01.JPG,AFNE01.JPG,AFNE01.JPG,,,,,,,,,3,2,32,5,,,,,,,,,,,,,,,AFSA09.jpg,AFSA17.jpg,AFNE04.jpg,AFNE19.jpg,AFSA09.jpg,FS,4,num_8,16,num_8,1.2834625541,,,2017_May_19_1149,60.0056391445,FEMA4ImagesEEG,001,100510,
AFNE01.JPG,AFNE01.JPG,AFNE01.JPG,AFNE01.JPG,AFNE01.JPG,AFNE01.JPG,,,,,,,,,3,3,33,3,,,,,,,,,,,,,,,AFSA10.jpg,AFNE16.jpg,AFNE07.jpg,AFSA16.jpg,AFSA16.jpg,FS,4,num_4,32,num_6,0.750144252786,,,2017_May_19_1149,60.0056391445,FEMA4ImagesEEG,001,100510,
AFNE01.JPG,AFNE01.JPG,AFNE01.JPG,AFNE01.JPG,AFNE01.JPG,AFNE01.JPG,,,,,,,,,3,4,34,7,,,,,,,,,,,,,,,AFNE05.jpg,AFSA17.jpg,AFNE09.jpg,AFSA13.jpg,AFNE09.jpg,FN,3,num_2,16,num_2,1.33343126593,,,2017_May_19_1149,60.0056391445,FEMA4ImagesEEG,001,100510,
AFNE01.JPG,AFNE01.JPG,AFNE01.JPG,AFNE01.JPG,AFNE01.JPG,AFNE01.JPG,,,,,,,,,3,5,35,6,,,,,,,,,,,,,,,AFNE16.jpg,AFNE03.jpg,AFSA01.jpg,AFSA18.jpg,AFNE03.jpg,FN,3,num_6,48,None,,,,2017_May_19_1149,60.0056391445,FEMA4ImagesEEG,001,100510,
AFNE01.JPG,AFNE01.JPG,AFNE01.JPG,AFNE01.JPG,AFNE01.JPG,AFNE01.JPG,,,,,,,,,3,6,36,0,,,,,,,,,,,,,,,AFSA10.jpg,AFNE10.jpg,AFNE15.jpg,AFSA15.jpg,AFSA10.jpg,FS,4,num_8,32,num_2,1.10002819303,,,2017_May_19_1149,60.0056391445,FEMA4ImagesEEG,001,100510,
AFNE01.JPG,AFNE01.JPG,AFNE01.JPG,AFNE01.JPG,AFNE01.JPG,AFNE01.JPG,,,,,,,,,3,7,37,4,,,,,,,,,,,,,,,AFNE11.jpg,AFSA03.jpg,AFSA12.jpg,AFNE04.jpg,AFSA12.jpg,FS,4,num_2,32,num_4,1.38338522371,,,2017_May_19_1149,60.0056391445,FEMA4ImagesEEG,001,100510,
AFNE01.JPG,AFNE01.JPG,AFNE01.JPG,AFNE01.JPG,AFNE01.JPG,AFNE01.JPG,,,,,,,,,3,8,38,9,,,,,,,,,,,,,,,AFNE11.jpg,AFSA07.jpg,AFSA06.jpg,AFNE02.jpg,AFSA06.jpg,FS,4,num_2,16,num_2,0.733476682683,,,2017_May_19_1149,60.0056391445,FEMA4ImagesEEG,001,100510,
AFNE01.JPG,AFNE01.JPG,AFNE01.JPG,AFNE01.JPG,AFNE01.JPG,AFNE01.JPG,,,,,,,,,3,9,39,1,,,,,,,,,,,,,,,AFNE01.jpg,AFSA11.jpg,AFNE18.jpg,AFSA03.jpg,AFNE18.jpg,FN,3,num_2,32,num_4,0.883425155829,,,2017_May_19_1149,60.0056391445,FEMA4ImagesEEG,001,100510,
AFNE01.JPG,AFNE01.JPG,AFNE01.JPG,AFNE01.JPG,AFNE01.JPG,AFNE01.JPG,,,,,,,,,4,0,40,7,,,,,,,,,,,,,,,AFSA04.jpg,AFNE15.jpg,AFSA09.jpg,AFNE18.jpg,AFSA09.jpg,FS,4,num_2,16,num_2,1.51670621923,,,2017_May_19_1149,60.0056391445,FEMA4ImagesEEG,001,100510,
AFNE01.JPG,AFNE01.JPG,AFNE01.JPG,AFNE01.JPG,AFNE01.JPG,AFNE01.JPG,,,,,,,,,4,1,41,5,,,,,,,,,,,,,,,AFSA13.jpg,AFSA02.jpg,AFNE11.jpg,AFNE16.jpg,AFNE11.jpg,FN,3,num_2,32,num_6,0.800439798564,,,2017_May_19_1149,60.0056391445,FEMA4ImagesEEG,001,100510,
AFNE01.JPG,AFNE01.JPG,AFNE01.JPG,AFNE01.JPG,AFNE01.JPG,AFNE01.JPG,,,,,,,,,4,2,42,6,,,,,,,,,,,,,,,AFNE20.jpg,AFSA03.jpg,AFNE12.jpg,AFSA20.jpg,AFNE12.jpg,FN,3,num_2,16,num_2,1.1332940534,,,2017_May_19_1149,60.0056391445,FEMA4ImagesEEG,001,100510,
AFNE01.JPG,AFNE01.JPG,AFNE01.JPG,AFNE01.JPG,AFNE01.JPG,AFNE01.JPG,,,,,,,,,4,3,43,9,,,,,,,,,,,,,,,AFSA02.jpg,AFSA20.jpg,AFNE07.jpg,AFNE13.jpg,AFSA02.jpg,FS,4,num_8,32,num_4,1.00008082646,,,2017_May_19_1149,60.0056391445,FEMA4ImagesEEG,001,100510,
AFNE01.JPG,AFNE01.JPG,AFNE01.JPG,AFNE01.JPG,AFNE01.JPG,AFNE01.JPG,,,,,,,,,4,4,44,2,,,,,,,,,,,,,,,AFNE19.jpg,AFSA15.jpg,AFSA06.jpg,AFNE06.jpg,AFNE06.jpg,FN,3,num_4,32,num_8,2.43334623778,,,2017_May_19_1149,60.0056391445,FEMA4ImagesEEG,001,100510,
AFNE01.JPG,AFNE01.JPG,AFNE01.JPG,AFNE01.JPG,AFNE01.JPG,AFNE01.JPG,,,,,,,,,4,5,45,3,,,,,,,,,,,,,,,AFNE12.jpg,AFNE11.jpg,AFSA12.jpg,AFSA11.jpg,AFSA11.jpg,FS,4,num_4,16,num_4,0.783468808542,,,2017_May_19_1149,60.0056391445,FEMA4ImagesEEG,001,100510,
AFNE01.JPG,AFNE01.JPG,AFNE01.JPG,AFNE01.JPG,AFNE01.JPG,AFNE01.JPG,,,,,,,,,4,6,46,8,,,,,,,,,,,,,,,AFNE01.jpg,AFNE14.jpg,AFSA14.jpg,AFSA03.jpg,AFSA14.jpg,FS,4,num_2,32,num_4,0.800107512041,,,2017_May_19_1149,60.0056391445,FEMA4ImagesEEG,001,100510,
AFNE01.JPG,AFNE01.JPG,AFNE01.JPG,AFNE01.JPG,AFNE01.JPG,AFNE01.JPG,,,,,,,,,4,7,47,0,,,,,,,,,,,,,,,AFNE05.jpg,AFSA20.jpg,AFSA10.jpg,AFNE13.jpg,AFNE13.jpg,FN,3,num_4,32,num_6,0.966760119569,,,2017_May_19_1149,60.0056391445,FEMA4ImagesEEG,001,100510,
AFNE01.JPG,AFNE01.JPG,AFNE01.JPG,AFNE01.JPG,AFNE01.JPG,AFNE01.JPG,,,,,,,,,4,8,48,1,,,,,,,,,,,,,,,AFNE13.jpg,AFNE12.jpg,AFSA10.jpg,AFSA05.jpg,AFNE13.jpg,FN,3,num_8,16,num_8,0.86664019493,,,2017_May_19_1149,60.0056391445,FEMA4ImagesEEG,001,100510,
AFNE01.JPG,AFNE01.JPG,AFNE01.JPG,AFNE01.JPG,AFNE01.JPG,AFNE01.JPG,,,,,,,,,4,9,49,4,,,,,,,,,,,,,,,AFSA18.jpg,AFSA02.jpg,AFNE02.jpg,AFNE08.jpg,AFSA18.jpg,FS,4,num_8,16,num_8,0.683344714256,,,2017_May_19_1149,60.0056391445,FEMA4ImagesEEG,001,100510,
AFNE01.JPG,AFNE01.JPG,AFNE01.JPG,AFNE01.JPG,AFNE01.JPG,AFNE01.JPG,,,,,,,,,5,0,50,0,,,,,,,,,,,,,,,AFSA06.jpg,AFSA07.jpg,AFNE04.jpg,AFNE15.jpg,AFSA07.jpg,FS,4,num_6,16,num_6,0.900137308781,,,2017_May_19_1149,60.0056391445,FEMA4ImagesEEG,001,100510,
AFNE01.JPG,AFNE01.JPG,AFNE01.JPG,AFNE01.JPG,AFNE01.JPG,AFNE01.JPG,,,,,,,,,5,1,51,8,,,,,,,,,,,,,,,AFSA13.jpg,AFSA11.jpg,AFNE06.jpg,AFNE03.jpg,AFNE06.jpg,FN,3,num_2,32,num_8,1.44995318801,,,2017_May_19_1149,60.0056391445,FEMA4ImagesEEG,001,100510,
AFNE01.JPG,AFNE01.JPG,AFNE01.JPG,AFNE01.JPG,AFNE01.JPG,AFNE01.JPG,,,,,,,,,5,2,52,7,,,,,,,,,,,,,,,AFNE09.jpg,AFNE05.jpg,AFSA11.jpg,AFSA03.jpg,AFSA03.jpg,FS,4,num_4,32,num_6,2.16675588582,,,2017_May_19_1149,60.0056391445,FEMA4ImagesEEG,001,100510,
AFNE01.JPG,AFNE01.JPG,AFNE01.JPG,AFNE01.JPG,AFNE01.JPG,AFNE01.JPG,,,,,,,,,5,3,53,5,,,,,,,,,,,,,,,AFSA04.jpg,AFNE16.jpg,AFSA17.jpg,AFNE14.jpg,AFSA17.jpg,FS,4,num_2,16,num_2,1.00010007084,,,2017_May_19_1149,60.0056391445,FEMA4ImagesEEG,001,100510,
AFNE01.JPG,AFNE01.JPG,AFNE01.JPG,AFNE01.JPG,AFNE01.JPG,AFNE01.JPG,,,,,,,,,5,4,54,2,,,,,,,,,,,,,,,AFNE03.jpg,AFNE09.jpg,AFSA10.jpg,AFSA17.jpg,AFNE03.jpg,FN,3,num_8,32,num_4,3.51658979067,,,2017_May_19_1149,60.0056391445,FEMA4ImagesEEG,001,100510,
AFNE01.JPG,AFNE01.JPG,AFNE01.JPG,AFNE01.JPG,AFNE01.JPG,AFNE01.JPG,,,,,,,,,5,5,55,6,,,,,,,,,,,,,,,AFNE03.jpg,AFNE19.jpg,AFSA01.jpg,AFSA06.jpg,AFNE19.jpg,FN,3,num_6,32,num_8,1.21676212421,,,2017_May_19_1149,60.0056391445,FEMA4ImagesEEG,001,100510,
AFNE01.JPG,AFNE01.JPG,AFNE01.JPG,AFNE01.JPG,AFNE01.JPG,AFNE01.JPG,,,,,,,,,5,6,56,3,,,,,,,,,,,,,,,AFSA14.jpg,AFNE12.jpg,AFNE07.jpg,AFSA06.jpg,AFNE12.jpg,FN,3,num_6,16,num_6,0.88315765874,,,2017_May_19_1149,60.0056391445,FEMA4ImagesEEG,001,100510,
AFNE01.JPG,AFNE01.JPG,AFNE01.JPG,AFNE01.JPG,AFNE01.JPG,AFNE01.JPG,,,,,,,,,5,7,57,9,,,,,,,,,,,,,,,AFNE13.jpg,AFSA14.jpg,AFSA19.jpg,AFNE02.jpg,AFNE02.jpg,FN,3,num_4,16,num_4,1.10009426545,,,2017_May_19_1149,60.0056391445,FEMA4ImagesEEG,001,100510,
AFNE01.JPG,AFNE01.JPG,AFNE01.JPG,AFNE01.JPG,AFNE01.JPG,AFNE01.JPG,,,,,,,,,5,8,58,4,,,,,,,,,,,,,,,AFNE18.jpg,AFSA15.jpg,AFNE15.jpg,AFSA19.jpg,AFNE15.jpg,FN,3,num_2,32,num_8,2.8665949706,,,2017_May_19_1149,60.0056391445,FEMA4ImagesEEG,001,100510,
AFNE01.JPG,AFNE01.JPG,AFNE01.JPG,AFNE01.JPG,AFNE01.JPG,AFNE01.JPG,,,,,,,,,5,9,59,1,,,,,,,,,,,,,,,AFNE16.jpg,AFSA10.jpg,AFSA08.jpg,AFNE13.jpg,AFNE13.jpg,FN,3,num_4,32,num_6,1.18350748974,,,2017_May_19_1149,60.0056391445,FEMA4ImagesEEG,001,100510,
,,,,,,,,,,,,,,,,,,,,,,,,,,,,,,,,,,,,,,,,,,,space,56.1289313492,2017_May_19_1149,60.0056391445,FEMA4ImagesEEG,001,100510,
AFNE01.JPG,AFNE01.JPG,AFNE01.JPG,AFNE01.JPG,AFNE01.JPG,AFNE01.JPG,,,,,,,,,,,,,0,0,0,6,,,,,,,,,,,AMSA04.jpg,AMNE02.jpg,AMSA18.jpg,AMNE12.jpg,AMSA04.jpg,MS,2,num_8,32,num_6,0.933472769655,,,2017_May_19_1149,60.0056391445,FEMA4ImagesEEG,001,100510,
AFNE01.JPG,AFNE01.JPG,AFNE01.JPG,AFNE01.JPG,AFNE01.JPG,AFNE01.JPG,,,,,,,,,,,,,0,1,1,1,,,,,,,,,,,AMNE11.jpg,AMNE15.jpg,AMSA11.jpg,AMSA14.jpg,AMNE11.jpg,MN,1,num_8,32,num_6,0.816812608682,,,2017_May_19_1149,60.0056391445,FEMA4ImagesEEG,001,100510,
AFNE01.JPG,AFNE01.JPG,AFNE01.JPG,AFNE01.JPG,AFNE01.JPG,AFNE01.JPG,,,,,,,,,,,,,0,2,2,4,,,,,,,,,,,AMNE09.jpg,AMNE03.jpg,AMSA17.jpg,AMSA13.jpg,AMSA13.jpg,MS,2,num_4,16,num_4,0.650196565461,,,2017_May_19_1149,60.0056391445,FEMA4ImagesEEG,001,100510,
AFNE01.JPG,AFNE01.JPG,AFNE01.JPG,AFNE01.JPG,AFNE01.JPG,AFNE01.JPG,,,,,,,,,,,,,0,3,3,9,,,,,,,,,,,AMSA08.jpg,AMNE12.jpg,AMNE01.jpg,AMSA03.jpg,AMNE01.jpg,MN,1,num_2,16,num_2,1.45001990191,,,2017_May_19_1149,60.0056391445,FEMA4ImagesEEG,001,100510,
AFNE01.JPG,AFNE01.JPG,AFNE01.JPG,AFNE01.JPG,AFNE01.JPG,AFNE01.JPG,,,,,,,,,,,,,0,4,4,5,,,,,,,,,,,AMSA10.jpg,AMNE04.jpg,AMNE20.jpg,AMSA07.jpg,AMNE04.jpg,MN,1,num_6,16,num_6,1.15002352628,,,2017_May_19_1149,60.0056391445,FEMA4ImagesEEG,001,100510,
AFNE01.JPG,AFNE01.JPG,AFNE01.JPG,AFNE01.JPG,AFNE01.JPG,AFNE01.JPG,,,,,,,,,,,,,0,5,5,8,,,,,,,,,,,AMNE03.jpg,AMNE14.jpg,AMSA11.jpg,AMSA06.jpg,AMNE14.jpg,MN,1,num_6,16,num_6,1.06671839132,,,2017_May_19_1149,60.0056391445,FEMA4ImagesEEG,001,100510,
AFNE01.JPG,AFNE01.JPG,AFNE01.JPG,AFNE01.JPG,AFNE01.JPG,AFNE01.JPG,,,,,,,,,,,,,0,6,6,2,,,,,,,,,,,AMSA13.jpg,AMNE05.jpg,AMNE08.jpg,AMSA11.jpg,AMSA13.jpg,MS,2,num_8,32,num_6,1.70006039532,,,2017_May_19_1149,60.0056391445,FEMA4ImagesEEG,001,100510,
AFNE01.JPG,AFNE01.JPG,AFNE01.JPG,AFNE01.JPG,AFNE01.JPG,AFNE01.JPG,,,,,,,,,,,,,0,7,7,0,,,,,,,,,,,AMNE03.jpg,AMSA20.jpg,AMNE11.jpg,AMSA06.jpg,AMSA06.jpg,MS,2,num_4,16,num_4,1.38342980656,,,2017_May_19_1149,60.0056391445,FEMA4ImagesEEG,001,100510,
AFNE01.JPG,AFNE01.JPG,AFNE01.JPG,AFNE01.JPG,AFNE01.JPG,AFNE01.JPG,,,,,,,,,,,,,0,8,8,3,,,,,,,,,,,AMSA02.jpg,AMNE11.jpg,AMNE15.jpg,AMSA04.jpg,AMSA02.jpg,MS,2,num_8,32,num_4,0.816770270991,,,2017_May_19_1149,60.0056391445,FEMA4ImagesEEG,001,100510,
AFNE01.JPG,AFNE01.JPG,AFNE01.JPG,AFNE01.JPG,AFNE01.JPG,AFNE01.JPG,,,,,,,,,,,,,0,9,9,7,,,,,,,,,,,AMSA15.jpg,AMNE17.jpg,AMSA03.jpg,AMNE04.jpg,AMNE17.jpg,MN,1,num_6,16,num_6,0.733472833817,,,2017_May_19_1149,60.0056391445,FEMA4ImagesEEG,001,100510,
AFNE01.JPG,AFNE01.JPG,AFNE01.JPG,AFNE01.JPG,AFNE01.JPG,AFNE01.JPG,,,,,,,,,,,,,1,0,10,4,,,,,,,,,,,AMSA01.jpg,AMNE03.jpg,AMNE12.jpg,AMSA17.jpg,AMNE03.jpg,MN,1,num_6,32,num_2,1.23345342904,,,2017_May_19_1149,60.0056391445,FEMA4ImagesEEG,001,100510,
AFNE01.JPG,AFNE01.JPG,AFNE01.JPG,AFNE01.JPG,AFNE01.JPG,AFNE01.JPG,,,,,,,,,,,,,1,1,11,9,,,,,,,,,,,AMSA08.jpg,AMNE03.jpg,AMSA02.jpg,AMNE19.jpg,AMSA08.jpg,MS,2,num_8,16,num_8,1.73369061621,,,2017_May_19_1149,60.0056391445,FEMA4ImagesEEG,001,100510,
AFNE01.JPG,AFNE01.JPG,AFNE01.JPG,AFNE01.JPG,AFNE01.JPG,AFNE01.JPG,,,,,,,,,,,,,1,2,12,6,,,,,,,,,,,AMNE10.jpg,AMSA03.jpg,AMSA05.jpg,AMNE06.jpg,AMSA05.jpg,MS,2,num_2,16,num_2,0.983461688098,,,2017_May_19_1149,60.0056391445,FEMA4ImagesEEG,001,100510,
AFNE01.JPG,AFNE01.JPG,AFNE01.JPG,AFNE01.JPG,AFNE01.JPG,AFNE01.JPG,,,,,,,,,,,,,1,3,13,5,,,,,,,,,,,AMSA18.jpg,AMSA19.jpg,AMNE07.jpg,AMNE17.jpg,AMSA19.jpg,MS,2,num_6,32,num_2,1.15009537202,,,2017_May_19_1149,60.0056391445,FEMA4ImagesEEG,001,100510,
AFNE01.JPG,AFNE01.JPG,AFNE01.JPG,AFNE01.JPG,AFNE01.JPG,AFNE01.JPG,,,,,,,,,,,,,1,4,14,2,,,,,,,,,,,AMSA07.jpg,AMNE10.jpg,AMNE20.jpg,AMSA12.jpg,AMSA12.jpg,MS,2,num_4,32,num_6,0.816812287929,,,2017_May_19_1149,60.0056391445,FEMA4ImagesEEG,001,100510,
AFNE01.JPG,AFNE01.JPG,AFNE01.JPG,AFNE01.JPG,AFNE01.JPG,AFNE01.JPG,,,,,,,,,,,,,1,5,15,7,,,,,,,,,,,AMSA10.jpg,AMNE06.jpg,AMSA06.jpg,AMNE11.jpg,AMNE06.jpg,MN,1,num_6,32,num_8,1.76669379056,,,2017_May_19_1149,60.0056391445,FEMA4ImagesEEG,001,100510,
AFNE01.JPG,AFNE01.JPG,AFNE01.JPG,AFNE01.JPG,AFNE01.JPG,AFNE01.JPG,,,,,,,,,,,,,1,6,16,1,,,,,,,,,,,AMNE01.jpg,AMSA10.jpg,AMSA07.jpg,AMNE06.jpg,AMNE06.jpg,MN,1,num_4,16,num_4,1.30010414423,,,2017_May_19_1149,60.0056391445,FEMA4ImagesEEG,001,100510,
AFNE01.JPG,AFNE01.JPG,AFNE01.JPG,AFNE01.JPG,AFNE01.JPG,AFNE01.JPG,,,,,,,,,,,,,1,7,17,8,,,,,,,,,,,AMSA07.jpg,AMNE07.jpg,AMNE03.jpg,AMSA14.jpg,AMNE03.jpg,MN,1,num_2,16,num_2,0.983441160759,,,2017_May_19_1149,60.0056391445,FEMA4ImagesEEG,001,100510,
AFNE01.JPG,AFNE01.JPG,AFNE01.JPG,AFNE01.JPG,AFNE01.JPG,AFNE01.JPG,,,,,,,,,,,,,1,8,18,3,,,,,,,,,,,AMSA06.jpg,AMSA07.jpg,AMNE11.jpg,AMNE15.jpg,AMNE15.jpg,MN,1,num_4,16,num_4,0.550120582193,,,2017_May_19_1149,60.0056391445,FEMA4ImagesEEG,001,100510,
AFNE01.JPG,AFNE01.JPG,AFNE01.JPG,AFNE01.JPG,AFNE01.JPG,AFNE01.JPG,,,,,,,,,,,,,1,9,19,0,,,,,,,,,,,AMNE06.jpg,AMSA13.jpg,AMNE17.jpg,AMSA09.jpg,AMNE06.jpg,MN,1,num_8,16,num_8,1.51656958406,,,2017_May_19_1149,60.0056391445,FEMA4ImagesEEG,001,100510,
AFNE01.JPG,AFNE01.JPG,AFNE01.JPG,AFNE01.JPG,AFNE01.JPG,AFNE01.JPG,,,,,,,,,,,,,2,0,20,1,,,,,,,,,,,AMSA06.jpg,AMNE01.jpg,AMNE03.jpg,AMSA01.jpg,AMSA06.jpg,MS,2,num_8,32,num_2,1.06676457787,,,2017_May_19_1149,60.0056391445,FEMA4ImagesEEG,001,100510,
AFNE01.JPG,AFNE01.JPG,AFNE01.JPG,AFNE01.JPG,AFNE01.JPG,AFNE01.JPG,,,,,,,,,,,,,2,1,21,3,,,,,,,,,,,AMSA05.jpg,AMSA04.jpg,AMNE09.jpg,AMNE06.jpg,AMSA05.jpg,MS,2,num_8,16,num_8,1.49994884199,,,2017_May_19_1149,60.0056391445,FEMA4ImagesEEG,001,100510,
AFNE01.JPG,AFNE01.JPG,AFNE01.JPG,AFNE01.JPG,AFNE01.JPG,AFNE01.JPG,,,,,,,,,,,,,2,2,22,0,,,,,,,,,,,AMSA03.jpg,AMSA01.jpg,AMNE13.jpg,AMNE02.jpg,AMNE02.jpg,MN,1,num_4,16,num_4,1.13342234935,,,2017_May_19_1149,60.0056391445,FEMA4ImagesEEG,001,100510,
AFNE01.JPG,AFNE01.JPG,AFNE01.JPG,AFNE01.JPG,AFNE01.JPG,AFNE01.JPG,,,,,,,,,,,,,2,3,23,9,,,,,,,,,,,AMNE16.jpg,AMNE02.jpg,AMSA11.jpg,AMSA12.jpg,AMSA11.jpg,MS,2,num_2,32,num_4,0.716757794202,,,2017_May_19_1149,60.0056391445,FEMA4ImagesEEG,001,100510,
AFNE01.JPG,AFNE01.JPG,AFNE01.JPG,AFNE01.JPG,AFNE01.JPG,AFNE01.JPG,,,,,,,,,,,,,2,4,24,8,,,,,,,,,,,AMSA11.jpg,AMNE17.jpg,AMSA18.jpg,AMNE02.jpg,AMSA11.jpg,MS,2,num_8,32,num_2,0.983458801435,,,2017_May_19_1149,60.0056391445,FEMA4ImagesEEG,001,100510,
AFNE01.JPG,AFNE01.JPG,AFNE01.JPG,AFNE01.JPG,AFNE01.JPG,AFNE01.JPG,,,,,,,,,,,,,2,5,25,7,,,,,,,,,,,AMNE16.jpg,AMNE05.jpg,AMSA17.jpg,AMSA19.jpg,AMSA19.jpg,MS,2,num_4,32,num_8,1.28346704447,,,2017_May_19_1149,60.0056391445,FEMA4ImagesEEG,001,100510,
AFNE01.JPG,AFNE01.JPG,AFNE01.JPG,AFNE01.JPG,AFNE01.JPG,AFNE01.JPG,,,,,,,,,,,,,2,6,26,5,,,,,,,,,,,AMNE14.jpg,AMSA06.jpg,AMNE12.jpg,AMSA04.jpg,AMSA04.jpg,MS,2,num_4,32,num_2,2.3000130541,,,2017_May_19_1149,60.0056391445,FEMA4ImagesEEG,001,100510,
AFNE01.JPG,AFNE01.JPG,AFNE01.JPG,AFNE01.JPG,AFNE01.JPG,AFNE01.JPG,,,,,,,,,,,,,2,7,27,6,,,,,,,,,,,AMNE18.jpg,AMSA01.jpg,AMNE09.jpg,AMSA17.jpg,AMNE09.jpg,MN,1,num_2,16,num_2,0.866779075324,,,2017_May_19_1149,60.0056391445,FEMA4ImagesEEG,001,100510,
AFNE01.JPG,AFNE01.JPG,AFNE01.JPG,AFNE01.JPG,AFNE01.JPG,AFNE01.JPG,,,,,,,,,,,,,2,8,28,2,,,,,,,,,,,AMSA13.jpg,AMNE10.jpg,AMNE15.jpg,AMSA02.jpg,AMNE10.jpg,MN,1,num_6,32,num_4,2.83335476945,,,2017_May_19_1149,60.0056391445,FEMA4ImagesEEG,001,100510,
AFNE01.JPG,AFNE01.JPG,AFNE01.JPG,AFNE01.JPG,AFNE01.JPG,AFNE01.JPG,,,,,,,,,,,,,2,9,29,4,,,,,,,,,,,AMSA01.jpg,AMSA06.jpg,AMNE10.jpg,AMNE13.jpg,AMNE13.jpg,MN,1,num_4,32,num_2,0.883331820485,,,2017_May_19_1149,60.0056391445,FEMA4ImagesEEG,001,100510,
AFNE01.JPG,AFNE01.JPG,AFNE01.JPG,AFNE01.JPG,AFNE01.JPG,AFNE01.JPG,,,,,,,,,,,,,3,0,30,8,,,,,,,,,,,AMNE18.jpg,AMSA19.jpg,AMSA16.jpg,AMNE11.jpg,AMNE18.jpg,MN,1,num_8,32,num_6,0.933511258452,,,2017_May_19_1149,60.0056391445,FEMA4ImagesEEG,001,100510,
AFNE01.JPG,AFNE01.JPG,AFNE01.JPG,AFNE01.JPG,AFNE01.JPG,AFNE01.JPG,,,,,,,,,,,,,3,1,31,7,,,,,,,,,,,AMNE02.jpg,AMSA19.jpg,AMNE15.jpg,AMSA07.jpg,AMSA07.jpg,MS,2,num_4,32,num_2,0.900131214701,,,2017_May_19_1149,60.0056391445,FEMA4ImagesEEG,001,100510,
AFNE01.JPG,AFNE01.JPG,AFNE01.JPG,AFNE01.JPG,AFNE01.JPG,AFNE01.JPG,,,,,,,,,,,,,3,2,32,2,,,,,,,,,,,AMNE12.jpg,AMSA03.jpg,AMNE02.jpg,AMSA10.jpg,AMSA03.jpg,MS,2,num_6,16,num_6,0.616830634244,,,2017_May_19_1149,60.0056391445,FEMA4ImagesEEG,001,100510,
AFNE01.JPG,AFNE01.JPG,AFNE01.JPG,AFNE01.JPG,AFNE01.JPG,AFNE01.JPG,,,,,,,,,,,,,3,3,33,3,,,,,,,,,,,AMSA20.jpg,AMSA04.jpg,AMNE04.jpg,AMNE13.jpg,AMSA20.jpg,MS,2,num_8,32,num_4,0.967001636745,,,2017_May_19_1149,60.0056391445,FEMA4ImagesEEG,001,100510,
AFNE01.JPG,AFNE01.JPG,AFNE01.JPG,AFNE01.JPG,AFNE01.JPG,AFNE01.JPG,,,,,,,,,,,,,3,4,34,6,,,,,,,,,,,AMSA02.jpg,AMNE20.jpg,AMNE19.jpg,AMSA03.jpg,AMSA03.jpg,MS,2,num_4,32,num_2,1.31673579145,,,2017_May_19_1149,60.0056391445,FEMA4ImagesEEG,001,100510,
AFNE01.JPG,AFNE01.JPG,AFNE01.JPG,AFNE01.JPG,AFNE01.JPG,AFNE01.JPG,,,,,,,,,,,,,3,5,35,1,,,,,,,,,,,AMSA20.jpg,AMSA03.jpg,AMNE15.jpg,AMNE05.jpg,AMSA03.jpg,MS,2,num_6,16,num_6,0.933428186807,,,2017_May_19_1149,60.0056391445,FEMA4ImagesEEG,001,100510,
AFNE01.JPG,AFNE01.JPG,AFNE01.JPG,AFNE01.JPG,AFNE01.JPG,AFNE01.JPG,,,,,,,,,,,,,3,6,36,5,,,,,,,,,,,AMSA13.jpg,AMNE17.jpg,AMNE05.jpg,AMSA04.jpg,AMNE17.jpg,MN,1,num_6,16,num_6,1.05021760598,,,2017_May_19_1149,60.0056391445,FEMA4ImagesEEG,001,100510,
AFNE01.JPG,AFNE01.JPG,AFNE01.JPG,AFNE01.JPG,AFNE01.JPG,AFNE01.JPG,,,,,,,,,,,,,3,7,37,9,,,,,,,,,,,AMNE14.jpg,AMSA13.jpg,AMSA12.jpg,AMNE07.jpg,AMSA13.jpg,MS,2,num_6,16,num_6,0.78348580774,,,2017_May_19_1149,60.0056391445,FEMA4ImagesEEG,001,100510,
AFNE01.JPG,AFNE01.JPG,AFNE01.JPG,AFNE01.JPG,AFNE01.JPG,AFNE01.JPG,,,,,,,,,,,,,3,8,38,4,,,,,,,,,,,AMSA20.jpg,AMSA14.jpg,AMNE05.jpg,AMNE20.jpg,AMSA20.jpg,MS,2,num_8,16,num_8,1.08343086499,,,2017_May_19_1149,60.0056391445,FEMA4ImagesEEG,001,100510,
AFNE01.JPG,AFNE01.JPG,AFNE01.JPG,AFNE01.JPG,AFNE01.JPG,AFNE01.JPG,,,,,,,,,,,,,3,9,39,0,,,,,,,,,,,AMNE17.jpg,AMNE16.jpg,AMSA12.jpg,AMSA09.jpg,AMSA12.jpg,MS,2,num_2,16,num_2,1.11672976156,,,2017_May_19_1149,60.0056391445,FEMA4ImagesEEG,001,100510,
AFNE01.JPG,AFNE01.JPG,AFNE01.JPG,AFNE01.JPG,AFNE01.JPG,AFNE01.JPG,,,,,,,,,,,,,4,0,40,3,,,,,,,,,,,AMSA01.jpg,AMSA07.jpg,AMNE06.jpg,AMNE02.jpg,AMSA01.jpg,MS,2,num_8,16,num_8,1.95007779548,,,2017_May_19_1149,60.0056391445,FEMA4ImagesEEG,001,100510,
AFNE01.JPG,AFNE01.JPG,AFNE01.JPG,AFNE01.JPG,AFNE01.JPG,AFNE01.JPG,,,,,,,,,,,,,4,1,41,7,,,,,,,,,,,AMNE06.jpg,AMSA02.jpg,AMSA17.jpg,AMNE05.jpg,AMNE05.jpg,MN,1,num_4,32,num_2,1.26676451371,,,2017_May_19_1149,60.0056391445,FEMA4ImagesEEG,001,100510,
AFNE01.JPG,AFNE01.JPG,AFNE01.JPG,AFNE01.JPG,AFNE01.JPG,AFNE01.JPG,,,,,,,,,,,,,4,2,42,5,,,,,,,,,,,AMSA10.jpg,AMNE08.jpg,AMSA01.jpg,AMNE18.jpg,AMSA01.jpg,MS,2,num_2,16,num_2,1.03349454791,,,2017_May_19_1149,60.0056391445,FEMA4ImagesEEG,001,100510,
AFNE01.JPG,AFNE01.JPG,AFNE01.JPG,AFNE01.JPG,AFNE01.JPG,AFNE01.JPG,,,,,,,,,,,,,4,3,43,0,,,,,,,,,,,AMNE17.jpg,AMSA05.jpg,AMNE09.jpg,AMSA12.jpg,AMNE17.jpg,MN,1,num_8,16,num_8,0.967082463205,,,2017_May_19_1149,60.0056391445,FEMA4ImagesEEG,001,100510,
AFNE01.JPG,AFNE01.JPG,AFNE01.JPG,AFNE01.JPG,AFNE01.JPG,AFNE01.JPG,,,,,,,,,,,,,4,4,44,2,,,,,,,,,,,AMSA05.jpg,AMNE01.jpg,AMNE08.jpg,AMSA11.jpg,AMNE01.jpg,MN,1,num_6,16,num_6,1.90002857792,,,2017_May_19_1149,60.0056391445,FEMA4ImagesEEG,001,100510,
AFNE01.JPG,AFNE01.JPG,AFNE01.JPG,AFNE01.JPG,AFNE01.JPG,AFNE01.JPG,,,,,,,,,,,,,4,5,45,6,,,,,,,,,,,AMNE20.jpg,AMNE05.jpg,AMSA13.jpg,AMSA12.jpg,AMSA12.jpg,MS,2,num_4,32,num_2,3.26656212684,,,2017_May_19_1149,60.0056391445,FEMA4ImagesEEG,001,100510,
AFNE01.JPG,AFNE01.JPG,AFNE01.JPG,AFNE01.JPG,AFNE01.JPG,AFNE01.JPG,,,,,,,,,,,,,4,6,46,1,,,,,,,,,,,AMNE07.jpg,AMSA13.jpg,AMSA04.jpg,AMNE14.jpg,AMSA04.jpg,MS,2,num_2,16,num_2,1.100117038,,,2017_May_19_1149,60.0056391445,FEMA4ImagesEEG,001,100510,
AFNE01.JPG,AFNE01.JPG,AFNE01.JPG,AFNE01.JPG,AFNE01.JPG,AFNE01.JPG,,,,,,,,,,,,,4,7,47,9,,,,,,,,,,,AMSA14.jpg,AMNE16.jpg,AMNE05.jpg,AMSA12.jpg,AMSA14.jpg,MS,2,num_8,16,num_8,0.483545240859,,,2017_May_19_1149,60.0056391445,FEMA4ImagesEEG,001,100510,
AFNE01.JPG,AFNE01.JPG,AFNE01.JPG,AFNE01.JPG,AFNE01.JPG,AFNE01.JPG,,,,,,,,,,,,,4,8,48,8,,,,,,,,,,,AMNE20.jpg,AMNE03.jpg,AMSA11.jpg,AMSA06.jpg,AMSA06.jpg,MS,2,num_4,32,num_6,1.61675333593,,,2017_May_19_1149,60.0056391445,FEMA4ImagesEEG,001,100510,
AFNE01.JPG,AFNE01.JPG,AFNE01.JPG,AFNE01.JPG,AFNE01.JPG,AFNE01.JPG,,,,,,,,,,,,,4,9,49,4,,,,,,,,,,,AMNE19.jpg,AMSA10.jpg,AMSA07.jpg,AMNE06.jpg,AMNE19.jpg,MN,1,num_8,32,num_2,1.21663254529,,,2017_May_19_1149,60.0056391445,FEMA4ImagesEEG,001,100510,
AFNE01.JPG,AFNE01.JPG,AFNE01.JPG,AFNE01.JPG,AFNE01.JPG,AFNE01.JPG,,,,,,,,,,,,,5,0,50,2,,,,,,,,,,,AMSA15.jpg,AMSA03.jpg,AMNE13.jpg,AMNE11.jpg,AMSA03.jpg,MS,2,num_6,16,num_6,1.70007739452,,,2017_May_19_1149,60.0056391445,FEMA4ImagesEEG,001,100510,
AFNE01.JPG,AFNE01.JPG,AFNE01.JPG,AFNE01.JPG,AFNE01.JPG,AFNE01.JPG,,,,,,,,,,,,,5,1,51,8,,,,,,,,,,,AMNE03.jpg,AMSA16.jpg,AMNE06.jpg,AMSA18.jpg,AMNE03.jpg,MN,1,num_8,16,num_8,1.55010711108,,,2017_May_19_1149,60.0056391445,FEMA4ImagesEEG,001,100510,
AFNE01.JPG,AFNE01.JPG,AFNE01.JPG,AFNE01.JPG,AFNE01.JPG,AFNE01.JPG,,,,,,,,,,,,,5,2,52,6,,,,,,,,,,,AMNE10.jpg,AMSA02.jpg,AMNE09.jpg,AMSA12.jpg,AMSA12.jpg,MS,2,num_4,32,num_2,0.76676435335,,,2017_May_19_1149,60.0056391445,FEMA4ImagesEEG,001,100510,
AFNE01.JPG,AFNE01.JPG,AFNE01.JPG,AFNE01.JPG,AFNE01.JPG,AFNE01.JPG,,,,,,,,,,,,,5,3,53,0,,,,,,,,,,,AMSA13.jpg,AMNE05.jpg,AMNE16.jpg,AMSA06.jpg,AMNE16.jpg,MN,1,num_2,32,num_6,1.26678600328,,,2017_May_19_1149,60.0056391445,FEMA4ImagesEEG,001,100510,
AFNE01.JPG,AFNE01.JPG,AFNE01.JPG,AFNE01.JPG,AFNE01.JPG,AFNE01.JPG,,,,,,,,,,,,,5,4,54,7,,,,,,,,,,,AMSA14.jpg,AMNE09.jpg,AMNE07.jpg,AMSA16.jpg,AMNE07.jpg,MN,1,num_2,16,num_2,1.18344366251,,,2017_May_19_1149,60.0056391445,FEMA4ImagesEEG,001,100510,
AFNE01.JPG,AFNE01.JPG,AFNE01.JPG,AFNE01.JPG,AFNE01.JPG,AFNE01.JPG,,,,,,,,,,,,,5,5,55,4,,,,,,,,,,,AMSA01.jpg,AMNE09.jpg,AMNE15.jpg,AMSA20.jpg,AMSA01.jpg,MS,2,num_8,16,num_8,1.08345620343,,,2017_May_19_1149,60.0056391445,FEMA4ImagesEEG,001,100510,
AFNE01.JPG,AFNE01.JPG,AFNE01.JPG,AFNE01.JPG,AFNE01.JPG,AFNE01.JPG,,,,,,,,,,,,,5,6,56,3,,,,,,,,,,,AMNE20.jpg,AMNE04.jpg,AMSA19.jpg,AMSA06.jpg,AMNE20.jpg,MN,1,num_8,32,num_2,1.56670957099,,,2017_May_19_1149,60.0056391445,FEMA4ImagesEEG,001,100510,
AFNE01.JPG,AFNE01.JPG,AFNE01.JPG,AFNE01.JPG,AFNE01.JPG,AFNE01.JPG,,,,,,,,,,,,,5,7,57,1,,,,,,,,,,,AMNE07.jpg,AMSA13.jpg,AMSA06.jpg,AMNE10.jpg,AMSA13.jpg,MS,2,num_6,32,num_4,0.983465216239,,,2017_May_19_1149,60.0056391445,FEMA4ImagesEEG,001,100510,
AFNE01.JPG,AFNE01.JPG,AFNE01.JPG,AFNE01.JPG,AFNE01.JPG,AFNE01.JPG,,,,,,,,,,,,,5,8,58,9,,,,,,,,,,,AMNE02.jpg,AMSA19.jpg,AMSA15.jpg,AMNE07.jpg,AMNE02.jpg,MN,1,num_8,48,None,,,,2017_May_19_1149,60.0056391445,FEMA4ImagesEEG,001,100510,
AFNE01.JPG,AFNE01.JPG,AFNE01.JPG,AFNE01.JPG,AFNE01.JPG,AFNE01.JPG,,,,,,,,,,,,,5,9,59,5,,,,,,,,,,,AMNE04.jpg,AMNE17.jpg,AMSA08.jpg,AMSA02.jpg,AMSA08.jpg,MS,2,num_2,16,num_2,0.733439797623,,,2017_May_19_1149,60.0056391445,FEMA4ImagesEEG,001,100510,
,,,,,,,,,,,,,,,,,,,,,,,,,,,,,,,,,,,,,,,,,,,space,111.174620749,2017_May_19_1149,60.0056391445,FEMA4ImagesEEG,001,100510,
AFNE01.JPG,AFNE01.JPG,AFNE01.JPG,AFNE01.JPG,AFNE01.JPG,AFNE01.JPG,,,,,,,,,,,,,,,,,0,0,0,6,,,,,,,AFSA20.jpg,AFSA05.jpg,AFNE07.jpg,AFNE15.jpg,AFSA05.jpg,FS,4,num_6,32,num_2,1.41677264447,,,2017_May_19_1149,60.0056391445,FEMA4ImagesEEG,001,100510,
AFNE01.JPG,AFNE01.JPG,AFNE01.JPG,AFNE01.JPG,AFNE01.JPG,AFNE01.JPG,,,,,,,,,,,,,,,,,0,1,1,1,,,,,,,AFNE11.jpg,AFSA11.jpg,AFSA17.jpg,AFNE01.jpg,AFNE01.jpg,FN,3,num_4,16,num_4,0.533552441455,,,2017_May_19_1149,60.0056391445,FEMA4ImagesEEG,001,100510,
AFNE01.JPG,AFNE01.JPG,AFNE01.JPG,AFNE01.JPG,AFNE01.JPG,AFNE01.JPG,,,,,,,,,,,,,,,,,0,2,2,7,,,,,,,AFSA03.jpg,AFSA04.jpg,AFNE12.jpg,AFNE10.jpg,AFSA04.jpg,FS,4,num_6,32,num_2,1.10012216982,,,2017_May_19_1149,60.0056391445,FEMA4ImagesEEG,001,100510,
AFNE01.JPG,AFNE01.JPG,AFNE01.JPG,AFNE01.JPG,AFNE01.JPG,AFNE01.JPG,,,,,,,,,,,,,,,,,0,3,3,3,,,,,,,AFSA05.jpg,AFNE20.jpg,AFSA15.jpg,AFNE18.jpg,AFSA15.jpg,FS,4,num_2,32,num_6,0.550159070961,,,2017_May_19_1149,60.0056391445,FEMA4ImagesEEG,001,100510,
AFNE01.JPG,AFNE01.JPG,AFNE01.JPG,AFNE01.JPG,AFNE01.JPG,AFNE01.JPG,,,,,,,,,,,,,,,,,0,4,4,2,,,,,,,AFSA18.jpg,AFNE05.jpg,AFNE08.jpg,AFSA10.jpg,AFNE08.jpg,FN,3,num_2,32,num_8,1.30001080895,,,2017_May_19_1149,60.0056391445,FEMA4ImagesEEG,001,100510,
AFNE01.JPG,AFNE01.JPG,AFNE01.JPG,AFNE01.JPG,AFNE01.JPG,AFNE01.JPG,,,,,,,,,,,,,,,,,0,5,5,0,,,,,,,AFSA14.jpg,AFNE19.jpg,AFNE17.jpg,AFSA12.jpg,AFSA14.jpg,FS,4,num_8,32,num_6,1.00015235145,,,2017_May_19_1149,60.0056391445,FEMA4ImagesEEG,001,100510,
AFNE01.JPG,AFNE01.JPG,AFNE01.JPG,AFNE01.JPG,AFNE01.JPG,AFNE01.JPG,,,,,,,,,,,,,,,,,0,6,6,5,,,,,,,AFNE10.jpg,AFSA17.jpg,AFSA05.jpg,AFNE07.jpg,AFNE10.jpg,FN,3,num_8,16,num_8,0.866781961988,,,2017_May_19_1149,60.0056391445,FEMA4ImagesEEG,001,100510,
AFNE01.JPG,AFNE01.JPG,AFNE01.JPG,AFNE01.JPG,AFNE01.JPG,AFNE01.JPG,,,,,,,,,,,,,,,,,0,7,7,4,,,,,,,AFNE02.jpg,AFNE20.jpg,AFSA11.jpg,AFSA09.jpg,AFSA11.jpg,FS,4,num_2,16,num_2,0.716785698605,,,2017_May_19_1149,60.0056391445,FEMA4ImagesEEG,001,100510,
AFNE01.JPG,AFNE01.JPG,AFNE01.JPG,AFNE01.JPG,AFNE01.JPG,AFNE01.JPG,,,,,,,,,,,,,,,,,0,8,8,8,,,,,,,AFSA17.jpg,AFNE03.jpg,AFNE08.jpg,AFSA12.jpg,AFSA12.jpg,FS,4,num_4,16,num_4,0.73341542136,,,2017_May_19_1149,60.0056391445,FEMA4ImagesEEG,001,100510,
AFNE01.JPG,AFNE01.JPG,AFNE01.JPG,AFNE01.JPG,AFNE01.JPG,AFNE01.JPG,,,,,,,,,,,,,,,,,0,9,9,9,,,,,,,AFNE04.jpg,AFSA11.jpg,AFSA20.jpg,AFNE14.jpg,AFSA11.jpg,FS,4,num_6,32,num_4,0.94979458212,,,2017_May_19_1149,60.0056391445,FEMA4ImagesEEG,001,100510,
AFNE01.JPG,AFNE01.JPG,AFNE01.JPG,AFNE01.JPG,AFNE01.JPG,AFNE01.JPG,,,,,,,,,,,,,,,,,1,0,10,5,,,,,,,AFNE02.jpg,AFNE04.jpg,AFSA12.jpg,AFSA10.jpg,AFNE04.jpg,FN,3,num_6,16,num_6,1.48358886148,,,2017_May_19_1149,60.0056391445,FEMA4ImagesEEG,001,100510,
AFNE01.JPG,AFNE01.JPG,AFNE01.JPG,AFNE01.JPG,AFNE01.JPG,AFNE01.JPG,,,,,,,,,,,,,,,,,1,1,11,9,,,,,,,AFNE09.jpg,AFSA10.jpg,AFNE05.jpg,AFSA20.jpg,AFSA10.jpg,FS,4,num_6,16,num_6,0.750142328354,,,2017_May_19_1149,60.0056391445,FEMA4ImagesEEG,001,100510,
AFNE01.JPG,AFNE01.JPG,AFNE01.JPG,AFNE01.JPG,AFNE01.JPG,AFNE01.JPG,,,,,,,,,,,,,,,,,1,2,12,2,,,,,,,AFNE12.jpg,AFNE03.jpg,AFSA10.jpg,AFSA11.jpg,AFSA10.jpg,FS,4,num_2,32,num_4,3.05022177563,,,2017_May_19_1149,60.0056391445,FEMA4ImagesEEG,001,100510,
AFNE01.JPG,AFNE01.JPG,AFNE01.JPG,AFNE01.JPG,AFNE01.JPG,AFNE01.JPG,,,,,,,,,,,,,,,,,1,3,13,6,,,,,,,AFSA16.jpg,AFNE03.jpg,AFNE12.jpg,AFSA20.jpg,AFSA20.jpg,FS,4,num_4,32,num_8,1.41673479718,,,2017_May_19_1149,60.0056391445,FEMA4ImagesEEG,001,100510,
AFNE01.JPG,AFNE01.JPG,AFNE01.JPG,AFNE01.JPG,AFNE01.JPG,AFNE01.JPG,,,,,,,,,,,,,,,,,1,4,14,1,,,,,,,AFNE16.jpg,AFNE11.jpg,AFSA05.jpg,AFSA18.jpg,AFSA05.jpg,FS,4,num_2,16,num_2,0.850089374173,,,2017_May_19_1149,60.0056391445,FEMA4ImagesEEG,001,100510,
AFNE01.JPG,AFNE01.JPG,AFNE01.JPG,AFNE01.JPG,AFNE01.JPG,AFNE01.JPG,,,,,,,,,,,,,,,,,1,5,15,4,,,,,,,AFSA07.jpg,AFNE03.jpg,AFSA12.jpg,AFNE13.jpg,AFSA07.jpg,FS,4,num_8,16,num_8,1.00007890203,,,2017_May_19_1149,60.0056391445,FEMA4ImagesEEG,001,100510,
AFNE01.JPG,AFNE01.JPG,AFNE01.JPG,AFNE01.JPG,AFNE01.JPG,AFNE01.JPG,,,,,,,,,,,,,,,,,1,6,16,7,,,,,,,AFSA10.jpg,AFSA05.jpg,AFNE05.jpg,AFNE01.jpg,AFNE05.jpg,FN,3,num_2,32,num_6,1.21672812579,,,2017_May_19_1149,60.0056391445,FEMA4ImagesEEG,001,100510,
AFNE01.JPG,AFNE01.JPG,AFNE01.JPG,AFNE01.JPG,AFNE01.JPG,AFNE01.JPG,,,,,,,,,,,,,,,,,1,7,17,8,,,,,,,AFNE11.jpg,AFSA11.jpg,AFSA12.jpg,AFNE03.jpg,AFSA11.jpg,FS,4,num_6,32,num_8,1.0334518895,,,2017_May_19_1149,60.0056391445,FEMA4ImagesEEG,001,100510,
AFNE01.JPG,AFNE01.JPG,AFNE01.JPG,AFNE01.JPG,AFNE01.JPG,AFNE01.JPG,,,,,,,,,,,,,,,,,1,8,18,3,,,,,,,AFSA02.jpg,AFNE07.jpg,AFNE06.jpg,AFSA01.jpg,AFSA02.jpg,FS,4,num_8,32,num_4,1.26677285298,,,2017_May_19_1149,60.0056391445,FEMA4ImagesEEG,001,100510,
AFNE01.JPG,AFNE01.JPG,AFNE01.JPG,AFNE01.JPG,AFNE01.JPG,AFNE01.JPG,,,,,,,,,,,,,,,,,1,9,19,0,,,,,,,AFSA03.jpg,AFNE12.jpg,AFSA13.jpg,AFNE01.jpg,AFSA13.jpg,FS,4,num_2,32,num_8,2.26668721539,,,2017_May_19_1149,60.0056391445,FEMA4ImagesEEG,001,100510,
AFNE01.JPG,AFNE01.JPG,AFNE01.JPG,AFNE01.JPG,AFNE01.JPG,AFNE01.JPG,,,,,,,,,,,,,,,,,2,0,20,9,,,,,,,AFNE20.jpg,AFSA15.jpg,AFNE09.jpg,AFSA20.jpg,AFNE20.jpg,FN,3,num_8,32,num_6,4.11652641246,,,2017_May_19_1149,60.0056391445,FEMA4ImagesEEG,001,100510,
AFNE01.JPG,AFNE01.JPG,AFNE01.JPG,AFNE01.JPG,AFNE01.JPG,AFNE01.JPG,,,,,,,,,,,,,,,,,2,1,21,7,,,,,,,AFNE16.jpg,AFSA12.jpg,AFSA13.jpg,AFNE05.jpg,AFSA12.jpg,FS,4,num_6,16,num_6,0.633696421603,,,2017_May_19_1149,60.0056391445,FEMA4ImagesEEG,001,100510,
AFNE01.JPG,AFNE01.JPG,AFNE01.JPG,AFNE01.JPG,AFNE01.JPG,AFNE01.JPG,,,,,,,,,,,,,,,,,2,2,22,4,,,,,,,AFSA02.jpg,AFSA19.jpg,AFNE08.jpg,AFNE04.jpg,AFSA19.jpg,FS,4,num_6,32,num_2,0.966763647739,,,2017_May_19_1149,60.0056391445,FEMA4ImagesEEG,001,100510,
AFNE01.JPG,AFNE01.JPG,AFNE01.JPG,AFNE01.JPG,AFNE01.JPG,AFNE01.JPG,,,,,,,,,,,,,,,,,2,3,23,3,,,,,,,AFSA20.jpg,AFNE05.jpg,AFSA06.jpg,AFNE12.jpg,AFSA20.jpg,FS,4,num_8,32,num_6,0.850150635495,,,2017_May_19_1149,60.0056391445,FEMA4ImagesEEG,001,100510,
AFNE01.JPG,AFNE01.JPG,AFNE01.JPG,AFNE01.JPG,AFNE01.JPG,AFNE01.JPG,,,,,,,,,,,,,,,,,2,4,24,0,,,,,,,AFNE17.jpg,AFSA18.jpg,AFNE01.jpg,AFSA14.jpg,AFSA14.jpg,FS,4,num_4,32,num_8,0.816751668084,,,2017_May_19_1149,60.0056391445,FEMA4ImagesEEG,001,100510,
AFNE01.JPG,AFNE01.JPG,AFNE01.JPG,AFNE01.JPG,AFNE01.JPG,AFNE01.JPG,,,,,,,,,,,,,,,,,2,5,25,5,,,,,,,AFSA17.jpg,AFNE04.jpg,AFNE01.jpg,AFSA06.jpg,AFNE04.jpg,FN,3,num_6,16,num_6,1.30008971097,,,2017_May_19_1149,60.0056391445,FEMA4ImagesEEG,001,100510,
AFNE01.JPG,AFNE01.JPG,AFNE01.JPG,AFNE01.JPG,AFNE01.JPG,AFNE01.JPG,,,,,,,,,,,,,,,,,2,6,26,2,,,,,,,AFNE05.jpg,AFSA13.jpg,AFSA12.jpg,AFNE04.jpg,AFNE05.jpg,FN,3,num_8,32,num_2,1.55006349046,,,2017_May_19_1149,60.0056391445,FEMA4ImagesEEG,001,100510,
AFNE01.JPG,AFNE01.JPG,AFNE01.JPG,AFNE01.JPG,AFNE01.JPG,AFNE01.JPG,,,,,,,,,,,,,,,,,2,7,27,6,,,,,,,AFSA20.jpg,AFNE18.jpg,AFSA01.jpg,AFNE17.jpg,AFNE18.jpg,FN,3,num_6,32,num_4,2.71663559231,,,2017_May_19_1149,60.0056391445,FEMA4ImagesEEG,001,100510,
AFNE01.JPG,AFNE01.JPG,AFNE01.JPG,AFNE01.JPG,AFNE01.JPG,AFNE01.JPG,,,,,,,,,,,,,,,,,2,8,28,1,,,,,,,AFNE15.jpg,AFNE12.jpg,AFSA12.jpg,AFSA08.jpg,AFNE15.jpg,FN,3,num_8,32,num_6,1.31658728889,,,2017_May_19_1149,60.0056391445,FEMA4ImagesEEG,001,100510,
AFNE01.JPG,AFNE01.JPG,AFNE01.JPG,AFNE01.JPG,AFNE01.JPG,AFNE01.JPG,,,,,,,,,,,,,,,,,2,9,29,8,,,,,,,AFNE17.jpg,AFSA10.jpg,AFSA04.jpg,AFNE20.jpg,AFSA10.jpg,FS,4,num_6,32,num_4,4.33294823163,,,2017_May_19_1149,60.0056391445,FEMA4ImagesEEG,001,100510,
AFNE01.JPG,AFNE01.JPG,AFNE01.JPG,AFNE01.JPG,AFNE01.JPG,AFNE01.JPG,,,,,,,,,,,,,,,,,3,0,30,2,,,,,,,AFSA13.jpg,AFNE18.jpg,AFNE06.jpg,AFSA17.jpg,AFNE06.jpg,FN,3,num_2,16,num_2,0.833479216526,,,2017_May_19_1149,60.0056391445,FEMA4ImagesEEG,001,100510,
AFNE01.JPG,AFNE01.JPG,AFNE01.JPG,AFNE01.JPG,AFNE01.JPG,AFNE01.JPG,,,,,,,,,,,,,,,,,3,1,31,9,,,,,,,AFNE02.jpg,AFNE11.jpg,AFSA14.jpg,AFSA03.jpg,AFSA03.jpg,FS,4,num_4,32,num_8,1.05000463469,,,2017_May_19_1149,60.0056391445,FEMA4ImagesEEG,001,100510,
AFNE01.JPG,AFNE01.JPG,AFNE01.JPG,AFNE01.JPG,AFNE01.JPG,AFNE01.JPG,,,,,,,,,,,,,,,,,3,2,32,7,,,,,,,AFSA18.jpg,AFNE08.jpg,AFNE14.jpg,AFSA08.jpg,AFNE14.jpg,FN,3,num_2,32,num_6,1.68338063711,,,2017_May_19_1149,60.0056391445,FEMA4ImagesEEG,001,100510,
AFNE01.JPG,AFNE01.JPG,AFNE01.JPG,AFNE01.JPG,AFNE01.JPG,AFNE01.JPG,,,,,,,,,,,,,,,,,3,3,33,5,,,,,,,AFSA14.jpg,AFSA02.jpg,AFNE16.jpg,AFNE10.jpg,AFNE10.jpg,FN,3,num_4,16,num_4,0.900132818409,,,2017_May_19_1149,60.0056391445,FEMA4ImagesEEG,001,100510,
AFNE01.JPG,AFNE01.JPG,AFNE01.JPG,AFNE01.JPG,AFNE01.JPG,AFNE01.JPG,,,,,,,,,,,,,,,,,3,4,34,4,,,,,,,AFSA03.jpg,AFSA18.jpg,AFNE08.jpg,AFNE09.jpg,AFSA03.jpg,FS,4,num_8,32,num_4,1.06676746451,,,2017_May_19_1149,60.0056391445,FEMA4ImagesEEG,001,100510,
AFNE01.JPG,AFNE01.JPG,AFNE01.JPG,AFNE01.JPG,AFNE01.JPG,AFNE01.JPG,,,,,,,,,,,,,,,,,3,5,35,0,,,,,,,AFSA01.jpg,AFNE11.jpg,AFSA15.jpg,AFNE12.jpg,AFNE11.jpg,FN,3,num_6,16,num_6,0.90013281838,,,2017_May_19_1149,60.0056391445,FEMA4ImagesEEG,001,100510,
AFNE01.JPG,AFNE01.JPG,AFNE01.JPG,AFNE01.JPG,AFNE01.JPG,AFNE01.JPG,,,,,,,,,,,,,,,,,3,6,36,6,,,,,,,AFSA15.jpg,AFNE05.jpg,AFSA06.jpg,AFNE04.jpg,AFSA15.jpg,FS,4,num_8,32,num_4,2.79999525304,,,2017_May_19_1149,60.0056391445,FEMA4ImagesEEG,001,100510,
AFNE01.JPG,AFNE01.JPG,AFNE01.JPG,AFNE01.JPG,AFNE01.JPG,AFNE01.JPG,,,,,,,,,,,,,,,,,3,7,37,1,,,,,,,AFSA07.jpg,AFNE09.jpg,AFSA20.jpg,AFNE04.jpg,AFSA20.jpg,FS,4,num_2,16,num_2,0.816733385931,,,2017_May_19_1149,60.0056391445,FEMA4ImagesEEG,001,100510,
AFNE01.JPG,AFNE01.JPG,AFNE01.JPG,AFNE01.JPG,AFNE01.JPG,AFNE01.JPG,,,,,,,,,,,,,,,,,3,8,38,3,,,,,,,AFNE11.jpg,AFSA04.jpg,AFNE06.jpg,AFSA06.jpg,AFSA04.jpg,FS,4,num_6,16,num_6,0.683460180619,,,2017_May_19_1149,60.0056391445,FEMA4ImagesEEG,001,100510,
AFNE01.JPG,AFNE01.JPG,AFNE01.JPG,AFNE01.JPG,AFNE01.JPG,AFNE01.JPG,,,,,,,,,,,,,,,,,3,9,39,8,,,,,,,AFSA20.jpg,AFNE04.jpg,AFNE07.jpg,AFSA11.jpg,AFSA20.jpg,FS,4,num_8,16,num_8,1.38314178211,,,2017_May_19_1149,60.0056391445,FEMA4ImagesEEG,001,100510,
AFNE01.JPG,AFNE01.JPG,AFNE01.JPG,AFNE01.JPG,AFNE01.JPG,AFNE01.JPG,,,,,,,,,,,,,,,,,4,0,40,8,,,,,,,AFNE07.jpg,AFNE02.jpg,AFSA12.jpg,AFSA04.jpg,AFSA04.jpg,FS,4,num_4,32,num_2,1.56675736123,,,2017_May_19_1149,60.0056391445,FEMA4ImagesEEG,001,100510,
AFNE01.JPG,AFNE01.JPG,AFNE01.JPG,AFNE01.JPG,AFNE01.JPG,AFNE01.JPG,,,,,,,,,,,,,,,,,4,1,41,1,,,,,,,AFNE15.jpg,AFSA09.jpg,AFSA15.jpg,AFNE12.jpg,AFNE12.jpg,FN,3,num_4,32,num_8,4.63345682889,,,2017_May_19_1149,60.0056391445,FEMA4ImagesEEG,001,100510,
AFNE01.JPG,AFNE01.JPG,AFNE01.JPG,AFNE01.JPG,AFNE01.JPG,AFNE01.JPG,,,,,,,,,,,,,,,,,4,2,42,0,,,,,,,AFSA13.jpg,AFNE05.jpg,AFNE04.jpg,AFSA20.jpg,AFNE05.jpg,FN,3,num_6,16,num_6,1.01633528355,,,2017_May_19_1149,60.0056391445,FEMA4ImagesEEG,001,100510,
AFNE01.JPG,AFNE01.JPG,AFNE01.JPG,AFNE01.JPG,AFNE01.JPG,AFNE01.JPG,,,,,,,,,,,,,,,,,4,3,43,5,,,,,,,AFSA15.jpg,AFSA05.jpg,AFNE14.jpg,AFNE17.jpg,AFSA15.jpg,FS,4,num_8,16,num_8,1.36670322032,,,2017_May_19_1149,60.0056391445,FEMA4ImagesEEG,001,100510,
AFNE01.JPG,AFNE01.JPG,AFNE01.JPG,AFNE01.JPG,AFNE01.JPG,AFNE01.JPG,,,,,,,,,,,,,,,,,4,4,44,4,,,,,,,AFNE06.jpg,AFSA08.jpg,AFNE10.jpg,AFSA16.jpg,AFNE06.jpg,FN,3,num_8,32,num_2,0.85016057844,,,2017_May_19_1149,60.0056391445,FEMA4ImagesEEG,001,100510,
AFNE01.JPG,AFNE01.JPG,AFNE01.JPG,AFNE01.JPG,AFNE01.JPG,AFNE01.JPG,,,,,,,,,,,,,,,,,4,5,45,6,,,,,,,AFNE19.jpg,AFSA10.jpg,AFNE01.jpg,AFSA08.jpg,AFNE19.jpg,FN,3,num_8,48,None,,,,2017_May_19_1149,60.0056391445,FEMA4ImagesEEG,001,100510,
AFNE01.JPG,AFNE01.JPG,AFNE01.JPG,AFNE01.JPG,AFNE01.JPG,AFNE01.JPG,,,,,,,,,,,,,,,,,4,6,46,3,,,,,,,AFNE07.jpg,AFSA02.jpg,AFNE17.jpg,AFSA05.jpg,AFNE07.jpg,FN,3,num_8,16,num_8,1.01677501795,,,2017_May_19_1149,60.0056391445,FEMA4ImagesEEG,001,100510,
AFNE01.JPG,AFNE01.JPG,AFNE01.JPG,AFNE01.JPG,AFNE01.JPG,AFNE01.JPG,,,,,,,,,,,,,,,,,4,7,47,7,,,,,,,AFNE10.jpg,AFSA07.jpg,AFSA17.jpg,AFNE19.jpg,AFSA07.jpg,FS,4,num_6,16,num_6,1.03349326496,,,2017_May_19_1149,60.0056391445,FEMA4ImagesEEG,001,100510,
AFNE01.JPG,AFNE01.JPG,AFNE01.JPG,AFNE01.JPG,AFNE01.JPG,AFNE01.JPG,,,,,,,,,,,,,,,,,4,8,48,9,,,,,,,AFSA10.jpg,AFNE11.jpg,AFSA04.jpg,AFNE10.jpg,AFSA10.jpg,FS,4,num_8,32,num_2,4.48287874332,,,2017_May_19_1149,60.0056391445,FEMA4ImagesEEG,001,100510,
AFNE01.JPG,AFNE01.JPG,AFNE01.JPG,AFNE01.JPG,AFNE01.JPG,AFNE01.JPG,,,,,,,,,,,,,,,,,4,9,49,2,,,,,,,AFNE04.jpg,AFNE03.jpg,AFSA11.jpg,AFSA09.jpg,AFSA11.jpg,FS,4,num_2,16,num_2,0.816679180862,,,2017_May_19_1149,60.0056391445,FEMA4ImagesEEG,001,100510,
AFNE01.JPG,AFNE01.JPG,AFNE01.JPG,AFNE01.JPG,AFNE01.JPG,AFNE01.JPG,,,,,,,,,,,,,,,,,5,0,50,8,,,,,,,AFSA05.jpg,AFNE03.jpg,AFNE12.jpg,AFSA10.jpg,AFNE12.jpg,FN,3,num_2,16,num_2,3.01689176727,,,2017_May_19_1149,60.0056391445,FEMA4ImagesEEG,001,100510,
AFNE01.JPG,AFNE01.JPG,AFNE01.JPG,AFNE01.JPG,AFNE01.JPG,AFNE01.JPG,,,,,,,,,,,,,,,,,5,1,51,7,,,,,,,AFNE06.jpg,AFSA08.jpg,AFSA17.jpg,AFNE12.jpg,AFSA17.jpg,FS,4,num_2,32,num_6,1.13331041113,,,2017_May_19_1149,60.0056391445,FEMA4ImagesEEG,001,100510,
AFNE01.JPG,AFNE01.JPG,AFNE01.JPG,AFNE01.JPG,AFNE01.JPG,AFNE01.JPG,,,,,,,,,,,,,,,,,5,2,52,5,,,,,,,AFSA14.jpg,AFNE15.jpg,AFNE04.jpg,AFSA11.jpg,AFNE04.jpg,FN,3,num_2,32,num_8,2.68333412983,,,2017_May_19_1149,60.0056391445,FEMA4ImagesEEG,001,100510,
AFNE01.JPG,AFNE01.JPG,AFNE01.JPG,AFNE01.JPG,AFNE01.JPG,AFNE01.JPG,,,,,,,,,,,,,,,,,5,3,53,1,,,,,,,AFSA02.jpg,AFNE11.jpg,AFSA14.jpg,AFNE12.jpg,AFNE12.jpg,FN,3,num_4,48,None,,,,2017_May_19_1149,60.0056391445,FEMA4ImagesEEG,001,100510,
AFNE01.JPG,AFNE01.JPG,AFNE01.JPG,AFNE01.JPG,AFNE01.JPG,AFNE01.JPG,,,,,,,,,,,,,,,,,5,4,54,3,,,,,,,AFNE03.jpg,AFSA20.jpg,AFNE12.jpg,AFSA12.jpg,AFSA20.jpg,FS,4,num_6,16,num_6,1.06685727171,,,2017_May_19_1149,60.0056391445,FEMA4ImagesEEG,001,100510,
AFNE01.JPG,AFNE01.JPG,AFNE01.JPG,AFNE01.JPG,AFNE01.JPG,AFNE01.JPG,,,,,,,,,,,,,,,,,5,5,55,2,,,,,,,AFNE17.jpg,AFNE03.jpg,AFSA09.jpg,AFSA06.jpg,AFNE03.jpg,FN,3,num_6,16,num_6,0.650145247084,,,2017_May_19_1149,60.0056391445,FEMA4ImagesEEG,001,100510,
AFNE01.JPG,AFNE01.JPG,AFNE01.JPG,AFNE01.JPG,AFNE01.JPG,AFNE01.JPG,,,,,,,,,,,,,,,,,5,6,56,9,,,,,,,AFNE09.jpg,AFNE12.jpg,AFSA17.jpg,AFSA18.jpg,AFNE12.jpg,FN,3,num_6,16,num_6,0.766785522166,,,2017_May_19_1149,60.0056391445,FEMA4ImagesEEG,001,100510,
AFNE01.JPG,AFNE01.JPG,AFNE01.JPG,AFNE01.JPG,AFNE01.JPG,AFNE01.JPG,,,,,,,,,,,,,,,,,5,7,57,0,,,,,,,AFNE04.jpg,AFSA16.jpg,AFSA04.jpg,AFNE05.jpg,AFNE04.jpg,FN,3,num_8,16,num_8,0.833470235812,,,2017_May_19_1149,60.0056391445,FEMA4ImagesEEG,001,100510,
AFNE01.JPG,AFNE01.JPG,AFNE01.JPG,AFNE01.JPG,AFNE01.JPG,AFNE01.JPG,,,,,,,,,,,,,,,,,5,8,58,6,,,,,,,AFSA04.jpg,AFNE02.jpg,AFSA09.jpg,AFNE12.jpg,AFSA04.jpg,FS,4,num_8,16,num_8,0.850094506022,,,2017_May_19_1149,60.0056391445,FEMA4ImagesEEG,001,100510,
AFNE01.JPG,AFNE01.JPG,AFNE01.JPG,AFNE01.JPG,AFNE01.JPG,AFNE01.JPG,,,,,,,,,,,,,,,,,5,9,59,4,,,,,,,AFNE04.jpg,AFSA20.jpg,AFNE03.jpg,AFSA05.jpg,AFNE03.jpg,FN,3,num_2,16,num_2,0.866768170148,,,2017_May_19_1149,60.0056391445,FEMA4ImagesEEG,001,100510,
,,,,,,,,,,,,,,,,,,,,,,,,,,,,,,,,,,,,,,,,,,,space,124.057512835,2017_May_19_1149,60.0056391445,FEMA4ImagesEEG,001,100510,
AFNE01.JPG,AFNE01.JPG,AFNE01.JPG,AFNE01.JPG,AFNE01.JPG,AFNE01.JPG,,,,,,,,,,,,,,,,,,,,,0,0,0,6,,,AMSA17.jpg,AMNE06.jpg,AMNE10.jpg,AMSA02.jpg,AMNE06.jpg,MN,1,num_6,16,num_6,0.733536340296,,,2017_May_19_1149,60.0056391445,FEMA4ImagesEEG,001,100510,
AFNE01.JPG,AFNE01.JPG,AFNE01.JPG,AFNE01.JPG,AFNE01.JPG,AFNE01.JPG,,,,,,,,,,,,,,,,,,,,,0,1,1,2,,,AMNE06.jpg,AMNE04.jpg,AMSA10.jpg,AMSA02.jpg,AMNE06.jpg,MN,1,num_8,16,num_8,0.683471085795,,,2017_May_19_1149,60.0056391445,FEMA4ImagesEEG,001,100510,
AFNE01.JPG,AFNE01.JPG,AFNE01.JPG,AFNE01.JPG,AFNE01.JPG,AFNE01.JPG,,,,,,,,,,,,,,,,,,,,,0,2,2,8,,,AMSA02.jpg,AMNE08.jpg,AMNE09.jpg,AMSA12.jpg,AMSA12.jpg,MS,2,num_4,16,num_4,0.733508756675,,,2017_May_19_1149,60.0056391445,FEMA4ImagesEEG,001,100510,
AFNE01.JPG,AFNE01.JPG,AFNE01.JPG,AFNE01.JPG,AFNE01.JPG,AFNE01.JPG,,,,,,,,,,,,,,,,,,,,,0,3,3,5,,,AMSA20.jpg,AMSA06.jpg,AMNE06.jpg,AMNE20.jpg,AMNE06.jpg,MN,1,num_2,16,num_2,0.766782314808,,,2017_May_19_1149,60.0056391445,FEMA4ImagesEEG,001,100510,
AFNE01.JPG,AFNE01.JPG,AFNE01.JPG,AFNE01.JPG,AFNE01.JPG,AFNE01.JPG,,,,,,,,,,,,,,,,,,,,,0,4,4,3,,,AMSA04.jpg,AMSA10.jpg,AMNE05.jpg,AMNE14.jpg,AMNE05.jpg,MN,1,num_2,32,num_8,0.750115706935,,,2017_May_19_1149,60.0056391445,FEMA4ImagesEEG,001,100510,
AFNE01.JPG,AFNE01.JPG,AFNE01.JPG,AFNE01.JPG,AFNE01.JPG,AFNE01.JPG,,,,,,,,,,,,,,,,,,,,,0,5,5,1,,,AMNE02.jpg,AMSA17.jpg,AMNE09.jpg,AMSA06.jpg,AMSA17.jpg,MS,2,num_6,16,num_6,0.933457053412,,,2017_May_19_1149,60.0056391445,FEMA4ImagesEEG,001,100510,
AFNE01.JPG,AFNE01.JPG,AFNE01.JPG,AFNE01.JPG,AFNE01.JPG,AFNE01.JPG,,,,,,,,,,,,,,,,,,,,,0,6,6,7,,,AMNE16.jpg,AMNE15.jpg,AMSA19.jpg,AMSA11.jpg,AMSA19.jpg,MS,2,num_2,16,num_2,0.633435018564,,,2017_May_19_1149,60.0056391445,FEMA4ImagesEEG,001,100510,
AFNE01.JPG,AFNE01.JPG,AFNE01.JPG,AFNE01.JPG,AFNE01.JPG,AFNE01.JPG,,,,,,,,,,,,,,,,,,,,,0,7,7,4,,,AMNE19.jpg,AMSA19.jpg,AMSA13.jpg,AMNE04.jpg,AMSA13.jpg,MS,2,num_2,32,num_8,0.883452418697,,,2017_May_19_1149,60.0056391445,FEMA4ImagesEEG,001,100510,
AFNE01.JPG,AFNE01.JPG,AFNE01.JPG,AFNE01.JPG,AFNE01.JPG,AFNE01.JPG,,,,,,,,,,,,,,,,,,,,,0,8,8,0,,,AMSA12.jpg,AMSA02.jpg,AMNE10.jpg,AMNE19.jpg,AMNE10.jpg,MN,1,num_2,16,num_2,0.850117920054,,,2017_May_19_1149,60.0056391445,FEMA4ImagesEEG,001,100510,
AFNE01.JPG,AFNE01.JPG,AFNE01.JPG,AFNE01.JPG,AFNE01.JPG,AFNE01.JPG,,,,,,,,,,,,,,,,,,,,,0,9,9,9,,,AMNE09.jpg,AMNE16.jpg,AMSA10.jpg,AMSA05.jpg,AMSA10.jpg,MS,2,num_2,32,num_6,0.816769629513,,,2017_May_19_1149,60.0056391445,FEMA4ImagesEEG,001,100510,
AFNE01.JPG,AFNE01.JPG,AFNE01.JPG,AFNE01.JPG,AFNE01.JPG,AFNE01.JPG,,,,,,,,,,,,,,,,,,,,,1,0,10,2,,,AMSA10.jpg,AMNE02.jpg,AMNE15.jpg,AMSA08.jpg,AMNE15.jpg,MN,1,num_2,16,num_2,0.68346467099,,,2017_May_19_1149,60.0056391445,FEMA4ImagesEEG,001,100510,
AFNE01.JPG,AFNE01.JPG,AFNE01.JPG,AFNE01.JPG,AFNE01.JPG,AFNE01.JPG,,,,,,,,,,,,,,,,,,,,,1,1,11,7,,,AMNE06.jpg,AMSA04.jpg,AMNE19.jpg,AMSA20.jpg,AMSA04.jpg,MS,2,num_6,16,num_6,0.616801126191,,,2017_May_19_1149,60.0056391445,FEMA4ImagesEEG,001,100510,
AFNE01.JPG,AFNE01.JPG,AFNE01.JPG,AFNE01.JPG,AFNE01.JPG,AFNE01.JPG,,,,,,,,,,,,,,,,,,,,,1,2,12,3,,,AMNE04.jpg,AMSA18.jpg,AMNE06.jpg,AMSA01.jpg,AMSA18.jpg,MS,2,num_6,32,num_4,0.61682774761,,,2017_May_19_1149,60.0056391445,FEMA4ImagesEEG,001,100510,
AFNE01.JPG,AFNE01.JPG,AFNE01.JPG,AFNE01.JPG,AFNE01.JPG,AFNE01.JPG,,,,,,,,,,,,,,,,,,,,,1,3,13,9,,,AMNE16.jpg,AMSA04.jpg,AMNE13.jpg,AMSA06.jpg,AMNE13.jpg,MN,1,num_2,32,num_8,1.31668479383,,,2017_May_19_1149,60.0056391445,FEMA4ImagesEEG,001,100510,
AFNE01.JPG,AFNE01.JPG,AFNE01.JPG,AFNE01.JPG,AFNE01.JPG,AFNE01.JPG,,,,,,,,,,,,,,,,,,,,,1,4,14,8,,,AMNE09.jpg,AMSA14.jpg,AMSA19.jpg,AMNE11.jpg,AMSA14.jpg,MS,2,num_6,16,num_6,0.683515027136,,,2017_May_19_1149,60.0056391445,FEMA4ImagesEEG,001,100510,
AFNE01.JPG,AFNE01.JPG,AFNE01.JPG,AFNE01.JPG,AFNE01.JPG,AFNE01.JPG,,,,,,,,,,,,,,,,,,,,,1,5,15,4,,,AMNE01.jpg,AMSA04.jpg,AMSA18.jpg,AMNE14.jpg,AMNE01.jpg,MN,1,num_8,16,num_8,1.86673609616,,,2017_May_19_1149,60.0056391445,FEMA4ImagesEEG,001,100510,
AFNE01.JPG,AFNE01.JPG,AFNE01.JPG,AFNE01.JPG,AFNE01.JPG,AFNE01.JPG,,,,,,,,,,,,,,,,,,,,,1,6,16,1,,,AMSA05.jpg,AMNE01.jpg,AMNE05.jpg,AMSA20.jpg,AMNE05.jpg,MN,1,num_2,32,num_8,0.900154949457,,,2017_May_19_1149,60.0056391445,FEMA4ImagesEEG,001,100510,
AFNE01.JPG,AFNE01.JPG,AFNE01.JPG,AFNE01.JPG,AFNE01.JPG,AFNE01.JPG,,,,,,,,,,,,,,,,,,,,,1,7,17,6,,,AMSA02.jpg,AMSA09.jpg,AMNE14.jpg,AMNE19.jpg,AMNE19.jpg,MN,1,num_4,32,num_6,0.766776862205,,,2017_May_19_1149,60.0056391445,FEMA4ImagesEEG,001,100510,
AFNE01.JPG,AFNE01.JPG,AFNE01.JPG,AFNE01.JPG,AFNE01.JPG,AFNE01.JPG,,,,,,,,,,,,,,,,,,,,,1,8,18,0,,,AMSA16.jpg,AMSA10.jpg,AMNE10.jpg,AMNE18.jpg,AMSA16.jpg,MS,2,num_8,32,num_2,1.38344103246,,,2017_May_19_1149,60.0056391445,FEMA4ImagesEEG,001,100510,
AFNE01.JPG,AFNE01.JPG,AFNE01.JPG,AFNE01.JPG,AFNE01.JPG,AFNE01.JPG,,,,,,,,,,,,,,,,,,,,,1,9,19,5,,,AMNE12.jpg,AMSA10.jpg,AMSA12.jpg,AMNE03.jpg,AMNE03.jpg,MN,1,num_4,16,num_4,0.733471550833,,,2017_May_19_1149,60.0056391445,FEMA4ImagesEEG,001,100510,
AFNE01.JPG,AFNE01.JPG,AFNE01.JPG,AFNE01.JPG,AFNE01.JPG,AFNE01.JPG,,,,,,,,,,,,,,,,,,,,,2,0,20,7,,,AMNE06.jpg,AMSA02.jpg,AMNE12.jpg,AMSA07.jpg,AMNE12.jpg,MN,1,num_2,32,num_8,0.850111825974,,,2017_May_19_1149,60.0056391445,FEMA4ImagesEEG,001,100510,
AFNE01.JPG,AFNE01.JPG,AFNE01.JPG,AFNE01.JPG,AFNE01.JPG,AFNE01.JPG,,,,,,,,,,,,,,,,,,,,,2,1,21,1,,,AMSA19.jpg,AMSA14.jpg,AMNE16.jpg,AMNE20.jpg,AMNE20.jpg,MN,1,num_4,32,num_2,1.1000993973,,,2017_May_19_1149,60.0056391445,FEMA4ImagesEEG,001,100510,
AFNE01.JPG,AFNE01.JPG,AFNE01.JPG,AFNE01.JPG,AFNE01.JPG,AFNE01.JPG,,,,,,,,,,,,,,,,,,,,,2,2,22,8,,,AMSA05.jpg,AMSA03.jpg,AMNE05.jpg,AMNE12.jpg,AMNE05.jpg,MN,1,num_2,32,num_8,1.08344305312,,,2017_May_19_1149,60.0056391445,FEMA4ImagesEEG,001,100510,
AFNE01.JPG,AFNE01.JPG,AFNE01.JPG,AFNE01.JPG,AFNE01.JPG,AFNE01.JPG,,,,,,,,,,,,,,,,,,,,,2,3,23,0,,,AMSA15.jpg,AMSA12.jpg,AMNE13.jpg,AMNE01.jpg,AMNE01.jpg,MN,1,num_4,32,num_2,1.18346290692,,,2017_May_19_1149,60.0056391445,FEMA4ImagesEEG,001,100510,
AFNE01.JPG,AFNE01.JPG,AFNE01.JPG,AFNE01.JPG,AFNE01.JPG,AFNE01.JPG,,,,,,,,,,,,,,,,,,,,,2,4,24,4,,,AMSA14.jpg,AMNE12.jpg,AMNE18.jpg,AMSA16.jpg,AMNE12.jpg,MN,1,num_6,16,num_6,0.900134101365,,,2017_May_19_1149,60.0056391445,FEMA4ImagesEEG,001,100510,
AFNE01.JPG,AFNE01.JPG,AFNE01.JPG,AFNE01.JPG,AFNE01.JPG,AFNE01.JPG,,,,,,,,,,,,,,,,,,,,,2,5,25,5,,,AMSA20.jpg,AMNE06.jpg,AMSA10.jpg,AMNE07.jpg,AMSA20.jpg,MS,2,num_8,32,num_6,0.866806658945,,,2017_May_19_1149,60.0056391445,FEMA4ImagesEEG,001,100510,
AFNE01.JPG,AFNE01.JPG,AFNE01.JPG,AFNE01.JPG,AFNE01.JPG,AFNE01.JPG,,,,,,,,,,,,,,,,,,,,,2,6,26,9,,,AMSA17.jpg,AMSA15.jpg,AMNE14.jpg,AMNE11.jpg,AMSA15.jpg,MS,2,num_6,16,num_6,0.633459074073,,,2017_May_19_1149,60.0056391445,FEMA4ImagesEEG,001,100510,
AFNE01.JPG,AFNE01.JPG,AFNE01.JPG,AFNE01.JPG,AFNE01.JPG,AFNE01.JPG,,,,,,,,,,,,,,,,,,,,,2,7,27,2,,,AMNE15.jpg,AMNE05.jpg,AMSA06.jpg,AMSA18.jpg,AMNE15.jpg,MN,1,num_8,16,num_8,1.3334473029,,,2017_May_19_1149,60.0056391445,FEMA4ImagesEEG,001,100510,
AFNE01.JPG,AFNE01.JPG,AFNE01.JPG,AFNE01.JPG,AFNE01.JPG,AFNE01.JPG,,,,,,,,,,,,,,,,,,,,,2,8,28,3,,,AMSA07.jpg,AMSA08.jpg,AMNE16.jpg,AMNE05.jpg,AMSA07.jpg,MS,2,num_8,32,num_2,0.833466386946,,,2017_May_19_1149,60.0056391445,FEMA4ImagesEEG,001,100510,
AFNE01.JPG,AFNE01.JPG,AFNE01.JPG,AFNE01.JPG,AFNE01.JPG,AFNE01.JPG,,,,,,,,,,,,,,,,,,,,,2,9,29,6,,,AMSA03.jpg,AMSA16.jpg,AMNE13.jpg,AMNE06.jpg,AMSA03.jpg,MS,2,num_8,16,num_8,0.750147460174,,,2017_May_19_1149,60.0056391445,FEMA4ImagesEEG,001,100510,
AFNE01.JPG,AFNE01.JPG,AFNE01.JPG,AFNE01.JPG,AFNE01.JPG,AFNE01.JPG,,,,,,,,,,,,,,,,,,,,,3,0,30,5,,,AMSA06.jpg,AMNE06.jpg,AMNE13.jpg,AMSA14.jpg,AMNE06.jpg,MN,1,num_6,32,num_2,0.766746712645,,,2017_May_19_1149,60.0056391445,FEMA4ImagesEEG,001,100510,
AFNE01.JPG,AFNE01.JPG,AFNE01.JPG,AFNE01.JPG,AFNE01.JPG,AFNE01.JPG,,,,,,,,,,,,,,,,,,,,,3,1,31,9,,,AMSA01.jpg,AMSA13.jpg,AMNE09.jpg,AMNE10.jpg,AMNE09.jpg,MN,1,num_2,32,num_4,0.883481285302,,,2017_May_19_1149,60.0056391445,FEMA4ImagesEEG,001,100510,
AFNE01.JPG,AFNE01.JPG,AFNE01.JPG,AFNE01.JPG,AFNE01.JPG,AFNE01.JPG,,,,,,,,,,,,,,,,,,,,,3,2,32,2,,,AMSA07.jpg,AMNE08.jpg,AMSA09.jpg,AMNE10.jpg,AMSA09.jpg,MS,2,num_2,16,num_2,0.866739303572,,,2017_May_19_1149,60.0056391445,FEMA4ImagesEEG,001,100510,
AFNE01.JPG,AFNE01.JPG,AFNE01.JPG,AFNE01.JPG,AFNE01.JPG,AFNE01.JPG,,,,,,,,,,,,,,,,,,,,,3,3,33,8,,,AMNE19.jpg,AMSA02.jpg,AMNE08.jpg,AMSA14.jpg,AMSA02.jpg,MS,2,num_6,32,num_4,0.76676435335,,,2017_May_19_1149,60.0056391445,FEMA4ImagesEEG,001,100510,
AFNE01.JPG,AFNE01.JPG,AFNE01.JPG,AFNE01.JPG,AFNE01.JPG,AFNE01.JPG,,,,,,,,,,,,,,,,,,,,,3,4,34,6,,,AMSA02.jpg,AMNE18.jpg,AMSA03.jpg,AMNE19.jpg,AMNE19.jpg,MN,1,num_4,32,num_2,0.833441048482,,,2017_May_19_1149,60.0056391445,FEMA4ImagesEEG,001,100510,
AFNE01.JPG,AFNE01.JPG,AFNE01.JPG,AFNE01.JPG,AFNE01.JPG,AFNE01.JPG,,,,,,,,,,,,,,,,,,,,,3,5,35,0,,,AMSA12.jpg,AMSA13.jpg,AMNE06.jpg,AMNE15.jpg,AMSA13.jpg,MS,2,num_6,16,num_6,0.800100776483,,,2017_May_19_1149,60.0056391445,FEMA4ImagesEEG,001,100510,
AFNE01.JPG,AFNE01.JPG,AFNE01.JPG,AFNE01.JPG,AFNE01.JPG,AFNE01.JPG,,,,,,,,,,,,,,,,,,,,,3,6,36,7,,,AMNE07.jpg,AMNE02.jpg,AMSA13.jpg,AMSA15.jpg,AMNE02.jpg,MN,1,num_6,16,num_6,0.633493072499,,,2017_May_19_1149,60.0056391445,FEMA4ImagesEEG,001,100510,
AFNE01.JPG,AFNE01.JPG,AFNE01.JPG,AFNE01.JPG,AFNE01.JPG,AFNE01.JPG,,,,,,,,,,,,,,,,,,,,,3,7,37,4,,,AMNE10.jpg,AMSA11.jpg,AMNE16.jpg,AMSA09.jpg,AMSA09.jpg,MS,2,num_4,32,num_8,0.733476361958,,,2017_May_19_1149,60.0056391445,FEMA4ImagesEEG,001,100510,
AFNE01.JPG,AFNE01.JPG,AFNE01.JPG,AFNE01.JPG,AFNE01.JPG,AFNE01.JPG,,,,,,,,,,,,,,,,,,,,,3,8,38,3,,,AMNE16.jpg,AMSA05.jpg,AMSA02.jpg,AMNE06.jpg,AMNE16.jpg,MN,1,num_8,32,num_4,0.750161572709,,,2017_May_19_1149,60.0056391445,FEMA4ImagesEEG,001,100510,
AFNE01.JPG,AFNE01.JPG,AFNE01.JPG,AFNE01.JPG,AFNE01.JPG,AFNE01.JPG,,,,,,,,,,,,,,,,,,,,,3,9,39,1,,,AMNE14.jpg,AMSA05.jpg,AMNE17.jpg,AMSA07.jpg,AMNE14.jpg,MN,1,num_8,32,num_2,1.26684662316,,,2017_May_19_1149,60.0056391445,FEMA4ImagesEEG,001,100510,
