IPosition2,IPosition3,IPosition1,IPosition6,IPosition4,IPosition5,TrialsF1.thisRepN,TrialsF1.thisTrialN,TrialsF1.thisN,TrialsF1.thisIndex,TrialsM1.thisRepN,TrialsM1.thisTrialN,TrialsM1.thisN,TrialsM1.thisIndex,TrialsF2.thisRepN,TrialsF2.thisTrialN,TrialsF2.thisN,TrialsF2.thisIndex,TrialsM2.thisRepN,TrialsM2.thisTrialN,TrialsM2.thisN,TrialsM2.thisIndex,TrialsF3.thisRepN,TrialsF3.thisTrialN,TrialsF3.thisN,TrialsF3.thisIndex,TrialsM3.thisRepN,TrialsM3.thisTrialN,TrialsM3.thisN,TrialsM3.thisIndex,InstrKey_resp.keys,InstrKey_resp.rt,Image0 _Position,Image1 _Position,Image2 _Position,Image3 _Position,Center_image,condition,code,correct_answer,accuracy,Key_Resp.keys,Key_Resp.rt,BreakKey_resp.keys,BreakKey_resp.rt,date,frameRate,expName,session,participant,
,,,,,,,,,,,,,,,,,,,,,,,,,,,,,,space,15.8493006926,,,,,,,,,,,,,,2017_Jul_14_1645,60.0108557461,FEMA4ImagesEEG,001,100561,
AFNE23.JPG,AFNE24.JPG,AFNE22.JPG,AFSA24.JPG,AFSA22.JPG,AFSA23.JPG,0,0,0,8,,,,,,,,,,,,,,,,,,,,,,,AFNE06.jpg,AFSA12.jpg,AFSA19.jpg,AFNE07.jpg,AFNE07.jpg,FN,3,num_4,32,num_8,2.94995217794,,,2017_Jul_14_1645,60.0108557461,FEMA4ImagesEEG,001,100561,
AFNE22.JPG,AFSA24.JPG,AFSA22.JPG,AFNE25.JPG,AFNE24.JPG,AFSA25.JPG,0,1,1,6,,,,,,,,,,,,,,,,,,,,,,,AFNE02.jpg,AFNE15.jpg,AFSA09.jpg,AFSA03.jpg,AFNE02.jpg,FN,3,num_8,16,num_8,0.600162358256,,,2017_Jul_14_1645,60.0108557461,FEMA4ImagesEEG,001,100561,
AMNE23.JPG,AMNE24.JPG,AMNE22.JPG,AMSA24.JPG,AMSA22.JPG,AMSA23.JPG,0,2,2,9,,,,,,,,,,,,,,,,,,,,,,,AFSA12.jpg,AFNE12.jpg,AFNE05.jpg,AFSA04.jpg,AFNE12.jpg,FN,3,num_6,16,num_6,1.13344097324,,,2017_Jul_14_1645,60.0108557461,FEMA4ImagesEEG,001,100561,
AMSA25.JPG,AMNE24.JPG,AMSA24.JPG,AMNE26.JPG,AMSA21.JPG,AMNE25.JPG,0,3,3,3,,,,,,,,,,,,,,,,,,,,,,,AFNE10.jpg,AFSA14.jpg,AFSA06.jpg,AFNE17.jpg,AFSA14.jpg,FS,4,num_6,16,num_6,0.566781747853,,,2017_Jul_14_1645,60.0108557461,FEMA4ImagesEEG,001,100561,
AFSA25.JPG,AFNE24.JPG,AFSA24.JPG,AFNE21.JPG,AFSA21.JPG,AFNE25.JPG,0,4,4,2,,,,,,,,,,,,,,,,,,,,,,,AFSA17.jpg,AFNE02.jpg,AFNE12.jpg,AFSA06.jpg,AFNE12.jpg,FN,3,num_2,32,num_6,0.78347667167,,,2017_Jul_14_1645,60.0108557461,FEMA4ImagesEEG,001,100561,
AMNE22.JPG,AMSA24.JPG,AMSA22.JPG,AMNE25.JPG,AMNE24.JPG,AMSA25.JPG,0,5,5,7,,,,,,,,,,,,,,,,,,,,,,,AFNE12.jpg,AFSA18.jpg,AFSA14.jpg,AFNE04.jpg,AFSA18.jpg,FS,4,num_6,16,num_6,1.31672898633,,,2017_Jul_14_1645,60.0108557461,FEMA4ImagesEEG,001,100561,
AFSA21.JPG,AFNE22.JPG,AFNE21.JPG,AFSA23.JPG,AFSA22.JPG,AFNE23.JPG,0,6,6,0,,,,,,,,,,,,,,,,,,,,,,,AFSA09.jpg,AFSA08.jpg,AFNE18.jpg,AFNE03.jpg,AFNE03.jpg,FN,3,num_4,32,num_8,1.16679592454,,,2017_Jul_14_1645,60.0108557461,FEMA4ImagesEEG,001,100561,
AMSA21.JPG,AMNE22.JPG,AMNE21.JPG,AMSA23.JPG,AMSA22.JPG,AMNE23.JPG,0,7,7,1,,,,,,,,,,,,,,,,,,,,,,,AFNE20.jpg,AFNE19.jpg,AFSA03.jpg,AFSA10.jpg,AFNE19.jpg,FN,3,num_6,16,num_6,0.583439658163,,,2017_Jul_14_1645,60.0108557461,FEMA4ImagesEEG,001,100561,
AMSA21.JPG,AMNE23.JPG,AMNE21.JPG,AMSA25.JPG,AMNE25.JPG,AMSA23.JPG,0,8,8,5,,,,,,,,,,,,,,,,,,,,,,,AFSA15.jpg,AFNE19.jpg,AFNE03.jpg,AFSA03.jpg,AFSA15.jpg,FS,4,num_8,16,num_8,0.850120501826,,,2017_Jul_14_1645,60.0108557461,FEMA4ImagesEEG,001,100561,
AFSA21.JPG,AFNE23.JPG,AFNE21.JPG,AFSA25.JPG,AFNE25.JPG,AFSA23.JPG,0,9,9,4,,,,,,,,,,,,,,,,,,,,,,,AFSA08.jpg,AFNE08.jpg,AFSA18.jpg,AFNE14.jpg,AFNE14.jpg,FN,3,num_4,32,num_6,0.800144845853,,,2017_Jul_14_1645,60.0108557461,FEMA4ImagesEEG,001,100561,
AFNE23.JPG,AFNE24.JPG,AFNE22.JPG,AFSA24.JPG,AFSA22.JPG,AFSA23.JPG,,,,,0,0,0,8,,,,,,,,,,,,,,,,,,,AMNE15.jpg,AMSA19.jpg,AMNE19.jpg,AMSA15.jpg,AMNE15.jpg,MN,1,num_8,16,num_8,0.916639564093,,,2017_Jul_14_1645,60.0108557461,FEMA4ImagesEEG,001,100561,
AMSA21.JPG,AMNE22.JPG,AMNE21.JPG,AMSA23.JPG,AMSA22.JPG,AMNE23.JPG,,,,,0,1,1,1,,,,,,,,,,,,,,,,,,,AMNE19.jpg,AMSA20.jpg,AMNE04.jpg,AMSA07.jpg,AMNE19.jpg,MN,1,num_8,16,num_8,0.566839801846,,,2017_Jul_14_1645,60.0108557461,FEMA4ImagesEEG,001,100561,
AMNE23.JPG,AMNE24.JPG,AMNE22.JPG,AMSA24.JPG,AMSA22.JPG,AMSA23.JPG,,,,,0,2,2,9,,,,,,,,,,,,,,,,,,,AMNE06.jpg,AMSA02.jpg,AMNE13.jpg,AMSA10.jpg,AMSA10.jpg,MS,2,num_4,16,num_4,0.966627087444,,,2017_Jul_14_1645,60.0108557461,FEMA4ImagesEEG,001,100561,
AFSA25.JPG,AFNE24.JPG,AFSA24.JPG,AFNE21.JPG,AFSA21.JPG,AFNE25.JPG,,,,,0,3,3,2,,,,,,,,,,,,,,,,,,,AMNE02.jpg,AMSA05.jpg,AMSA01.jpg,AMNE14.jpg,AMNE02.jpg,MN,1,num_8,32,num_2,1.70002835337,,,2017_Jul_14_1645,60.0108557461,FEMA4ImagesEEG,001,100561,
AFNE22.JPG,AFSA24.JPG,AFSA22.JPG,AFNE25.JPG,AFNE24.JPG,AFSA25.JPG,,,,,0,4,4,6,,,,,,,,,,,,,,,,,,,AMNE05.jpg,AMSA15.jpg,AMNE10.jpg,AMSA19.jpg,AMSA19.jpg,MS,2,num_4,32,num_6,1.23344969749,,,2017_Jul_14_1645,60.0108557461,FEMA4ImagesEEG,001,100561,
AFSA21.JPG,AFNE23.JPG,AFNE21.JPG,AFSA25.JPG,AFNE25.JPG,AFSA23.JPG,,,,,0,5,5,4,,,,,,,,,,,,,,,,,,,AMNE05.jpg,AMNE20.jpg,AMSA01.jpg,AMSA06.jpg,AMSA06.jpg,MS,2,num_4,16,num_4,0.883514583111,,,2017_Jul_14_1645,60.0108557461,FEMA4ImagesEEG,001,100561,
AMSA21.JPG,AMNE23.JPG,AMNE21.JPG,AMSA25.JPG,AMNE25.JPG,AMSA23.JPG,,,,,0,6,6,5,,,,,,,,,,,,,,,,,,,AMNE13.jpg,AMSA09.jpg,AMSA16.jpg,AMNE15.jpg,AMSA09.jpg,MS,2,num_6,16,num_6,0.850132048363,,,2017_Jul_14_1645,60.0108557461,FEMA4ImagesEEG,001,100561,
AMSA25.JPG,AMNE24.JPG,AMSA24.JPG,AMNE26.JPG,AMSA21.JPG,AMNE25.JPG,,,,,0,7,7,3,,,,,,,,,,,,,,,,,,,AMSA13.jpg,AMSA05.jpg,AMNE06.jpg,AMNE01.jpg,AMSA13.jpg,MS,2,num_8,16,num_8,1.26672895416,,,2017_Jul_14_1645,60.0108557461,FEMA4ImagesEEG,001,100561,
AFSA21.JPG,AFNE22.JPG,AFNE21.JPG,AFSA23.JPG,AFSA22.JPG,AFNE23.JPG,,,,,0,8,8,0,,,,,,,,,,,,,,,,,,,AMNE20.jpg,AMSA17.jpg,AMSA16.jpg,AMNE13.jpg,AMSA16.jpg,MS,2,num_2,16,num_2,1.08347365679,,,2017_Jul_14_1645,60.0108557461,FEMA4ImagesEEG,001,100561,
AMNE22.JPG,AMSA24.JPG,AMSA22.JPG,AMNE25.JPG,AMNE24.JPG,AMSA25.JPG,,,,,0,9,9,7,,,,,,,,,,,,,,,,,,,AMNE08.jpg,AMSA04.jpg,AMNE06.jpg,AMSA19.jpg,AMNE06.jpg,MN,1,num_2,16,num_2,1.58347558114,,,2017_Jul_14_1645,60.0108557461,FEMA4ImagesEEG,001,100561,
AMSA25.JPG,AMNE24.JPG,AMSA24.JPG,AMNE26.JPG,AMSA21.JPG,AMNE25.JPG,,,,,,,,,0,0,0,3,,,,,,,,,,,,,,,AFSA13.jpg,AFSA02.jpg,AFNE09.jpg,AFNE18.jpg,AFNE09.jpg,FN,3,num_2,16,num_2,1.30010731914,,,2017_Jul_14_1645,60.0108557461,FEMA4ImagesEEG,001,100561,
AMSA21.JPG,AMNE22.JPG,AMNE21.JPG,AMSA23.JPG,AMSA22.JPG,AMNE23.JPG,,,,,,,,,0,1,1,1,,,,,,,,,,,,,,,AFSA06.jpg,AFSA04.jpg,AFNE16.jpg,AFNE04.jpg,AFSA04.jpg,FS,4,num_6,16,num_6,0.750118192285,,,2017_Jul_14_1645,60.0108557461,FEMA4ImagesEEG,001,100561,
AFSA25.JPG,AFNE24.JPG,AFSA24.JPG,AFNE21.JPG,AFSA21.JPG,AFNE25.JPG,,,,,,,,,0,2,2,2,,,,,,,,,,,,,,,AFSA03.jpg,AFNE11.jpg,AFNE15.jpg,AFSA08.jpg,AFNE11.jpg,FN,3,num_6,16,num_6,0.716635266319,,,2017_Jul_14_1645,60.0108557461,FEMA4ImagesEEG,001,100561,
AFSA21.JPG,AFNE23.JPG,AFNE21.JPG,AFSA25.JPG,AFNE25.JPG,AFSA23.JPG,,,,,,,,,0,3,3,4,,,,,,,,,,,,,,,AFNE09.jpg,AFSA15.jpg,AFNE10.jpg,AFSA16.jpg,AFNE10.jpg,FN,3,num_2,32,num_6,0.950121207396,,,2017_Jul_14_1645,60.0108557461,FEMA4ImagesEEG,001,100561,
AMNE22.JPG,AMSA24.JPG,AMSA22.JPG,AMNE25.JPG,AMNE24.JPG,AMSA25.JPG,,,,,,,,,0,4,4,7,,,,,,,,,,,,,,,AFNE18.jpg,AFNE19.jpg,AFSA07.jpg,AFSA06.jpg,AFSA06.jpg,FS,4,num_4,32,num_2,1.2834112409,,,2017_Jul_14_1645,60.0108557461,FEMA4ImagesEEG,001,100561,
AFSA21.JPG,AFNE22.JPG,AFNE21.JPG,AFSA23.JPG,AFSA22.JPG,AFNE23.JPG,,,,,,,,,0,5,5,0,,,,,,,,,,,,,,,AFSA01.jpg,AFNE09.jpg,AFNE10.jpg,AFSA12.jpg,AFNE09.jpg,FN,3,num_6,16,num_6,0.933425770374,,,2017_Jul_14_1645,60.0108557461,FEMA4ImagesEEG,001,100561,
AMNE23.JPG,AMNE24.JPG,AMNE22.JPG,AMSA24.JPG,AMSA22.JPG,AMSA23.JPG,,,,,,,,,0,6,6,9,,,,,,,,,,,,,,,AFNE02.jpg,AFSA06.jpg,AFNE03.jpg,AFSA16.jpg,AFSA16.jpg,FS,4,num_4,32,num_8,0.766846665414,,,2017_Jul_14_1645,60.0108557461,FEMA4ImagesEEG,001,100561,
AMSA21.JPG,AMNE23.JPG,AMNE21.JPG,AMSA25.JPG,AMNE25.JPG,AMSA23.JPG,,,,,,,,,0,7,7,5,,,,,,,,,,,,,,,AFNE10.jpg,AFSA09.jpg,AFNE06.jpg,AFSA16.jpg,AFNE06.jpg,FN,3,num_2,32,num_6,1.0334418714,,,2017_Jul_14_1645,60.0108557461,FEMA4ImagesEEG,001,100561,
AFNE23.JPG,AFNE24.JPG,AFNE22.JPG,AFSA24.JPG,AFSA22.JPG,AFSA23.JPG,,,,,,,,,0,8,8,8,,,,,,,,,,,,,,,AFSA01.jpg,AFNE08.jpg,AFNE17.jpg,AFSA06.jpg,AFNE17.jpg,FN,3,num_2,32,num_4,0.866914726561,,,2017_Jul_14_1645,60.0108557461,FEMA4ImagesEEG,001,100561,
AFNE22.JPG,AFSA24.JPG,AFSA22.JPG,AFNE25.JPG,AFNE24.JPG,AFSA25.JPG,,,,,,,,,0,9,9,6,,,,,,,,,,,,,,,AFNE16.jpg,AFSA15.jpg,AFSA05.jpg,AFNE04.jpg,AFNE04.jpg,FN,3,num_4,16,num_4,0.683465060778,,,2017_Jul_14_1645,60.0108557461,FEMA4ImagesEEG,001,100561,
AMNE22.JPG,AMSA24.JPG,AMSA22.JPG,AMNE25.JPG,AMNE24.JPG,AMSA25.JPG,,,,,,,,,,,,,0,0,0,7,,,,,,,,,,,AMSA03.jpg,AMNE03.jpg,AMNE05.jpg,AMSA20.jpg,AMSA03.jpg,MS,2,num_8,16,num_8,1.18343362841,,,2017_Jul_14_1645,60.0108557461,FEMA4ImagesEEG,001,100561,
AFSA25.JPG,AFNE24.JPG,AFSA24.JPG,AFNE21.JPG,AFSA21.JPG,AFNE25.JPG,,,,,,,,,,,,,0,1,1,2,,,,,,,,,,,AMNE12.jpg,AMSA17.jpg,AMNE06.jpg,AMSA19.jpg,AMNE06.jpg,MN,1,num_2,32,num_8,1.06671599625,,,2017_Jul_14_1645,60.0108557461,FEMA4ImagesEEG,001,100561,
AMNE23.JPG,AMNE24.JPG,AMNE22.JPG,AMSA24.JPG,AMSA22.JPG,AMSA23.JPG,,,,,,,,,,,,,0,2,2,9,,,,,,,,,,,AMNE09.jpg,AMSA10.jpg,AMSA02.jpg,AMNE06.jpg,AMNE09.jpg,MN,1,num_8,16,num_8,0.850131727755,,,2017_Jul_14_1645,60.0108557461,FEMA4ImagesEEG,001,100561,
AFSA21.JPG,AFNE22.JPG,AFNE21.JPG,AFSA23.JPG,AFSA22.JPG,AFNE23.JPG,,,,,,,,,,,,,0,3,3,0,,,,,,,,,,,AMSA08.jpg,AMSA12.jpg,AMNE14.jpg,AMNE13.jpg,AMNE13.jpg,MN,1,num_4,16,num_4,0.566773729399,,,2017_Jul_14_1645,60.0108557461,FEMA4ImagesEEG,001,100561,
AFNE22.JPG,AFSA24.JPG,AFSA22.JPG,AFNE25.JPG,AFNE24.JPG,AFSA25.JPG,,,,,,,,,,,,,0,4,4,6,,,,,,,,,,,AMNE05.jpg,AMNE06.jpg,AMSA13.jpg,AMSA14.jpg,AMNE06.jpg,MN,1,num_6,16,num_6,0.516792620998,,,2017_Jul_14_1645,60.0108557461,FEMA4ImagesEEG,001,100561,
AMSA21.JPG,AMNE23.JPG,AMNE21.JPG,AMSA25.JPG,AMNE25.JPG,AMSA23.JPG,,,,,,,,,,,,,0,5,5,5,,,,,,,,,,,AMSA06.jpg,AMNE07.jpg,AMSA18.jpg,AMNE01.jpg,AMSA06.jpg,MS,2,num_8,16,num_8,1.28343625856,,,2017_Jul_14_1645,60.0108557461,FEMA4ImagesEEG,001,100561,
AMSA21.JPG,AMNE22.JPG,AMNE21.JPG,AMSA23.JPG,AMSA22.JPG,AMNE23.JPG,,,,,,,,,,,,,0,6,6,1,,,,,,,,,,,AMSA02.jpg,AMNE01.jpg,AMSA04.jpg,AMNE18.jpg,AMSA02.jpg,MS,2,num_8,16,num_8,0.849903040566,,,2017_Jul_14_1645,60.0108557461,FEMA4ImagesEEG,001,100561,
AFNE23.JPG,AFNE24.JPG,AFNE22.JPG,AFSA24.JPG,AFSA22.JPG,AFSA23.JPG,,,,,,,,,,,,,0,7,7,8,,,,,,,,,,,AMNE17.jpg,AMSA01.jpg,AMSA05.jpg,AMNE13.jpg,AMNE17.jpg,MN,1,num_8,16,num_8,0.716765486402,,,2017_Jul_14_1645,60.0108557461,FEMA4ImagesEEG,001,100561,
AMSA25.JPG,AMNE24.JPG,AMSA24.JPG,AMNE26.JPG,AMSA21.JPG,AMNE25.JPG,,,,,,,,,,,,,0,8,8,3,,,,,,,,,,,AMNE05.jpg,AMSA08.jpg,AMSA03.jpg,AMNE04.jpg,AMNE05.jpg,MN,1,num_8,16,num_8,0.616773440735,,,2017_Jul_14_1645,60.0108557461,FEMA4ImagesEEG,001,100561,
AFSA21.JPG,AFNE23.JPG,AFNE21.JPG,AFSA25.JPG,AFNE25.JPG,AFSA23.JPG,,,,,,,,,,,,,0,9,9,4,,,,,,,,,,,AMNE14.jpg,AMSA18.jpg,AMNE03.jpg,AMSA20.jpg,AMNE03.jpg,MN,1,num_2,32,num_8,0.716770297615,,,2017_Jul_14_1645,60.0108557461,FEMA4ImagesEEG,001,100561,
AFNE22.JPG,AFSA24.JPG,AFSA22.JPG,AFNE25.JPG,AFNE24.JPG,AFSA25.JPG,,,,,,,,,,,,,,,,,0,0,0,6,,,,,,,AFNE09.jpg,AFSA15.jpg,AFNE03.jpg,AFSA18.jpg,AFSA18.jpg,FS,4,num_4,16,num_4,0.550197928213,,,2017_Jul_14_1645,60.0108557461,FEMA4ImagesEEG,001,100561,
AMNE22.JPG,AMSA24.JPG,AMSA22.JPG,AMNE25.JPG,AMNE24.JPG,AMSA25.JPG,,,,,,,,,,,,,,,,,0,1,1,7,,,,,,,AFNE16.jpg,AFNE04.jpg,AFSA20.jpg,AFSA02.jpg,AFSA02.jpg,FS,4,num_4,16,num_4,1.31675592833,,,2017_Jul_14_1645,60.0108557461,FEMA4ImagesEEG,001,100561,
AMSA21.JPG,AMNE23.JPG,AMNE21.JPG,AMSA25.JPG,AMNE25.JPG,AMSA23.JPG,,,,,,,,,,,,,,,,,0,2,2,5,,,,,,,AFNE12.jpg,AFNE17.jpg,AFSA14.jpg,AFSA08.jpg,AFNE17.jpg,FN,3,num_6,16,num_6,1.43345239176,,,2017_Jul_14_1645,60.0108557461,FEMA4ImagesEEG,001,100561,
AFSA21.JPG,AFNE22.JPG,AFNE21.JPG,AFSA23.JPG,AFSA22.JPG,AFNE23.JPG,,,,,,,,,,,,,,,,,0,3,3,0,,,,,,,AFNE05.jpg,AFSA13.jpg,AFSA07.jpg,AFNE13.jpg,AFNE05.jpg,FN,3,num_8,16,num_8,0.816771323793,,,2017_Jul_14_1645,60.0108557461,FEMA4ImagesEEG,001,100561,
AMSA21.JPG,AMNE22.JPG,AMNE21.JPG,AMSA23.JPG,AMSA22.JPG,AMNE23.JPG,,,,,,,,,,,,,,,,,0,4,4,1,,,,,,,AFSA19.jpg,AFNE20.jpg,AFNE13.jpg,AFSA10.jpg,AFSA10.jpg,FS,4,num_4,16,num_4,0.88374166633,,,2017_Jul_14_1645,60.0108557461,FEMA4ImagesEEG,001,100561,
AMNE23.JPG,AMNE24.JPG,AMNE22.JPG,AMSA24.JPG,AMSA22.JPG,AMSA23.JPG,,,,,,,,,,,,,,,,,0,5,5,9,,,,,,,AFSA12.jpg,AFNE07.jpg,AFSA09.jpg,AFNE06.jpg,AFSA12.jpg,FS,4,num_8,16,num_8,0.783462238498,,,2017_Jul_14_1645,60.0108557461,FEMA4ImagesEEG,001,100561,
AFSA21.JPG,AFNE23.JPG,AFNE21.JPG,AFSA25.JPG,AFNE25.JPG,AFSA23.JPG,,,,,,,,,,,,,,,,,0,6,6,4,,,,,,,AFSA13.jpg,AFSA03.jpg,AFNE12.jpg,AFNE19.jpg,AFNE12.jpg,FN,3,num_2,16,num_2,1.03345438023,,,2017_Jul_14_1645,60.0108557461,FEMA4ImagesEEG,001,100561,
AMSA25.JPG,AMNE24.JPG,AMSA24.JPG,AMNE26.JPG,AMSA21.JPG,AMNE25.JPG,,,,,,,,,,,,,,,,,0,7,7,3,,,,,,,AFNE04.jpg,AFSA18.jpg,AFSA17.jpg,AFNE08.jpg,AFNE08.jpg,FN,3,num_4,16,num_4,1.06678720028,,,2017_Jul_14_1645,60.0108557461,FEMA4ImagesEEG,001,100561,
AFSA25.JPG,AFNE24.JPG,AFSA24.JPG,AFNE21.JPG,AFSA21.JPG,AFNE25.JPG,,,,,,,,,,,,,,,,,0,8,8,2,,,,,,,AFSA08.jpg,AFSA15.jpg,AFNE10.jpg,AFNE05.jpg,AFNE05.jpg,FN,3,num_4,16,num_4,0.900177304633,,,2017_Jul_14_1645,60.0108557461,FEMA4ImagesEEG,001,100561,
AFNE23.JPG,AFNE24.JPG,AFNE22.JPG,AFSA24.JPG,AFSA22.JPG,AFSA23.JPG,,,,,,,,,,,,,,,,,0,9,9,8,,,,,,,AFSA14.jpg,AFNE15.jpg,AFNE04.jpg,AFSA07.jpg,AFNE04.jpg,FN,3,num_2,32,num_6,0.833384972299,,,2017_Jul_14_1645,60.0108557461,FEMA4ImagesEEG,001,100561,
AMSA21.JPG,AMNE23.JPG,AMNE21.JPG,AMSA25.JPG,AMNE25.JPG,AMSA23.JPG,,,,,,,,,,,,,,,,,,,,,0,0,0,5,,,AMNE07.jpg,AMSA13.jpg,AMNE01.jpg,AMSA18.jpg,AMSA13.jpg,MS,2,num_6,16,num_6,1.20011302829,,,2017_Jul_14_1645,60.0108557461,FEMA4ImagesEEG,001,100561,
AFSA21.JPG,AFNE23.JPG,AFNE21.JPG,AFSA25.JPG,AFNE25.JPG,AFSA23.JPG,,,,,,,,,,,,,,,,,,,,,0,1,1,4,,,AMNE06.jpg,AMSA17.jpg,AMNE04.jpg,AMSA09.jpg,AMNE06.jpg,MN,1,num_8,16,num_8,1.05009336723,,,2017_Jul_14_1645,60.0108557461,FEMA4ImagesEEG,001,100561,
AMSA21.JPG,AMNE22.JPG,AMNE21.JPG,AMSA23.JPG,AMSA22.JPG,AMNE23.JPG,,,,,,,,,,,,,,,,,,,,,0,2,2,1,,,AMSA11.jpg,AMNE02.jpg,AMSA15.jpg,AMNE17.jpg,AMSA15.jpg,MS,2,num_2,16,num_2,1.76670457795,,,2017_Jul_14_1645,60.0108557461,FEMA4ImagesEEG,001,100561,
AFNE23.JPG,AFNE24.JPG,AFNE22.JPG,AFSA24.JPG,AFSA22.JPG,AFSA23.JPG,,,,,,,,,,,,,,,,,,,,,0,3,3,8,,,AMNE19.jpg,AMSA16.jpg,AMSA03.jpg,AMNE15.jpg,AMSA16.jpg,MS,2,num_6,16,num_6,0.583495787811,,,2017_Jul_14_1645,60.0108557461,FEMA4ImagesEEG,001,100561,
AFSA21.JPG,AFNE22.JPG,AFNE21.JPG,AFSA23.JPG,AFSA22.JPG,AFNE23.JPG,,,,,,,,,,,,,,,,,,,,,0,4,4,0,,,AMSA11.jpg,AMNE06.jpg,AMNE01.jpg,AMSA15.jpg,AMSA11.jpg,MS,2,num_8,16,num_8,0.533488699468,,,2017_Jul_14_1645,60.0108557461,FEMA4ImagesEEG,001,100561,
AMSA25.JPG,AMNE24.JPG,AMSA24.JPG,AMNE26.JPG,AMSA21.JPG,AMNE25.JPG,,,,,,,,,,,,,,,,,,,,,0,5,5,3,,,AMSA16.jpg,AMNE15.jpg,AMNE08.jpg,AMSA13.jpg,AMNE08.jpg,MN,1,num_2,16,num_2,1.63338580611,,,2017_Jul_14_1645,60.0108557461,FEMA4ImagesEEG,001,100561,
AFNE22.JPG,AFSA24.JPG,AFSA22.JPG,AFNE25.JPG,AFNE24.JPG,AFSA25.JPG,,,,,,,,,,,,,,,,,,,,,0,6,6,6,,,AMNE02.jpg,AMSA09.jpg,AMSA03.jpg,AMNE06.jpg,AMNE02.jpg,MN,1,num_8,16,num_8,1.00010552327,,,2017_Jul_14_1645,60.0108557461,FEMA4ImagesEEG,001,100561,
AMNE23.JPG,AMNE24.JPG,AMNE22.JPG,AMSA24.JPG,AMSA22.JPG,AMSA23.JPG,,,,,,,,,,,,,,,,,,,,,0,7,7,9,,,AMSA18.jpg,AMSA15.jpg,AMNE03.jpg,AMNE20.jpg,AMSA18.jpg,MS,2,num_8,16,num_8,0.933456561295,,,2017_Jul_14_1645,60.0108557461,FEMA4ImagesEEG,001,100561,
AFSA25.JPG,AFNE24.JPG,AFSA24.JPG,AFNE21.JPG,AFSA21.JPG,AFNE25.JPG,,,,,,,,,,,,,,,,,,,,,0,8,8,2,,,AMSA13.jpg,AMNE17.jpg,AMSA04.jpg,AMNE03.jpg,AMNE03.jpg,MN,1,num_4,32,num_6,1.33342346107,,,2017_Jul_14_1645,60.0108557461,FEMA4ImagesEEG,001,100561,
AMNE22.JPG,AMSA24.JPG,AMSA22.JPG,AMNE25.JPG,AMNE24.JPG,AMSA25.JPG,,,,,,,,,,,,,,,,,,,,,0,9,9,7,,,AMNE14.jpg,AMNE13.jpg,AMSA15.jpg,AMSA13.jpg,AMSA15.jpg,MS,2,num_2,16,num_2,1.10009628581,,,2017_Jul_14_1645,60.0108557461,FEMA4ImagesEEG,001,100561,
,,,,,,,,,,,,,,,,,,,,,,,,,,,,,,,,,,,,,,,,,,,space,5.54971874366,2017_Jul_14_1645,60.0108557461,FEMA4ImagesEEG,001,100561,
AFNE01.JPG,AFNE01.JPG,AFNE01.JPG,AFNE01.JPG,AFNE01.JPG,AFNE01.JPG,0,0,0,8,,,,,,,,,,,,,,,,,,,,,,,AFSA14.jpg,AFNE17.jpg,AFSA07.jpg,AFNE02.jpg,AFNE02.jpg,FN,3,num_4,32,num_8,0.649801558815,,,2017_Jul_14_1645,60.0108557461,FEMA4ImagesEEG,001,100561,
AFNE01.JPG,AFNE01.JPG,AFNE01.JPG,AFNE01.JPG,AFNE01.JPG,AFNE01.JPG,0,1,1,3,,,,,,,,,,,,,,,,,,,,,,,AFNE11.jpg,AFSA17.jpg,AFSA10.jpg,AFNE12.jpg,AFNE12.jpg,FN,3,num_4,32,num_6,0.766813629307,,,2017_Jul_14_1645,60.0108557461,FEMA4ImagesEEG,001,100561,
AFNE01.JPG,AFNE01.JPG,AFNE01.JPG,AFNE01.JPG,AFNE01.JPG,AFNE01.JPG,0,2,2,9,,,,,,,,,,,,,,,,,,,,,,,AFNE10.jpg,AFSA04.jpg,AFNE09.jpg,AFSA20.jpg,AFSA20.jpg,FS,4,num_4,16,num_4,0.483548966236,,,2017_Jul_14_1645,60.0108557461,FEMA4ImagesEEG,001,100561,
AFNE01.JPG,AFNE01.JPG,AFNE01.JPG,AFNE01.JPG,AFNE01.JPG,AFNE01.JPG,0,3,3,2,,,,,,,,,,,,,,,,,,,,,,,AFSA05.jpg,AFNE08.jpg,AFNE06.jpg,AFSA06.jpg,AFNE06.jpg,FN,3,num_2,32,num_6,0.416795764118,,,2017_Jul_14_1645,60.0108557461,FEMA4ImagesEEG,001,100561,
AFNE01.JPG,AFNE01.JPG,AFNE01.JPG,AFNE01.JPG,AFNE01.JPG,AFNE01.JPG,0,4,4,7,,,,,,,,,,,,,,,,,,,,,,,AFSA12.jpg,AFSA10.jpg,AFNE04.jpg,AFNE15.jpg,AFNE15.jpg,FN,3,num_4,16,num_4,0.916767218383,,,2017_Jul_14_1645,60.0108557461,FEMA4ImagesEEG,001,100561,
AFNE01.JPG,AFNE01.JPG,AFNE01.JPG,AFNE01.JPG,AFNE01.JPG,AFNE01.JPG,0,5,5,6,,,,,,,,,,,,,,,,,,,,,,,AFNE16.jpg,AFSA19.jpg,AFNE12.jpg,AFSA10.jpg,AFNE12.jpg,FN,3,num_2,16,num_2,1.51676471671,,,2017_Jul_14_1645,60.0108557461,FEMA4ImagesEEG,001,100561,
AFNE01.JPG,AFNE01.JPG,AFNE01.JPG,AFNE01.JPG,AFNE01.JPG,AFNE01.JPG,0,6,6,4,,,,,,,,,,,,,,,,,,,,,,,AFSA19.jpg,AFNE02.jpg,AFNE13.jpg,AFSA04.jpg,AFSA04.jpg,FS,4,num_4,16,num_4,1.06673556147,,,2017_Jul_14_1645,60.0108557461,FEMA4ImagesEEG,001,100561,
AFNE01.JPG,AFNE01.JPG,AFNE01.JPG,AFNE01.JPG,AFNE01.JPG,AFNE01.JPG,0,7,7,0,,,,,,,,,,,,,,,,,,,,,,,AFNE19.jpg,AFNE01.jpg,AFSA04.jpg,AFSA05.jpg,AFNE19.jpg,FN,3,num_8,16,num_8,0.566653131275,,,2017_Jul_14_1645,60.0108557461,FEMA4ImagesEEG,001,100561,
AFNE01.JPG,AFNE01.JPG,AFNE01.JPG,AFNE01.JPG,AFNE01.JPG,AFNE01.JPG,0,8,8,5,,,,,,,,,,,,,,,,,,,,,,,AFNE13.jpg,AFSA12.jpg,AFSA09.jpg,AFNE09.jpg,AFSA12.jpg,FS,4,num_6,16,num_6,1.0501235167,,,2017_Jul_14_1645,60.0108557461,FEMA4ImagesEEG,001,100561,
AFNE01.JPG,AFNE01.JPG,AFNE01.JPG,AFNE01.JPG,AFNE01.JPG,AFNE01.JPG,0,9,9,1,,,,,,,,,,,,,,,,,,,,,,,AFSA20.jpg,AFNE02.jpg,AFSA04.jpg,AFNE08.jpg,AFSA20.jpg,FS,4,num_8,32,num_2,1.29996459023,,,2017_Jul_14_1645,60.0108557461,FEMA4ImagesEEG,001,100561,
AFNE01.JPG,AFNE01.JPG,AFNE01.JPG,AFNE01.JPG,AFNE01.JPG,AFNE01.JPG,1,0,10,0,,,,,,,,,,,,,,,,,,,,,,,AFSA20.jpg,AFSA11.jpg,AFNE18.jpg,AFNE15.jpg,AFSA11.jpg,FS,4,num_6,16,num_6,0.600267560687,,,2017_Jul_14_1645,60.0108557461,FEMA4ImagesEEG,001,100561,
AFNE01.JPG,AFNE01.JPG,AFNE01.JPG,AFNE01.JPG,AFNE01.JPG,AFNE01.JPG,1,1,11,4,,,,,,,,,,,,,,,,,,,,,,,AFNE14.jpg,AFNE02.jpg,AFSA14.jpg,AFSA13.jpg,AFNE02.jpg,FN,3,num_6,16,num_6,1.03342807968,,,2017_Jul_14_1645,60.0108557461,FEMA4ImagesEEG,001,100561,
AFNE01.JPG,AFNE01.JPG,AFNE01.JPG,AFNE01.JPG,AFNE01.JPG,AFNE01.JPG,1,2,12,1,,,,,,,,,,,,,,,,,,,,,,,AFNE10.jpg,AFNE12.jpg,AFSA08.jpg,AFSA09.jpg,AFNE12.jpg,FN,3,num_6,32,num_8,1.08354935097,,,2017_Jul_14_1645,60.0108557461,FEMA4ImagesEEG,001,100561,
AFNE01.JPG,AFNE01.JPG,AFNE01.JPG,AFNE01.JPG,AFNE01.JPG,AFNE01.JPG,1,3,13,6,,,,,,,,,,,,,,,,,,,,,,,AFSA07.jpg,AFNE01.jpg,AFNE17.jpg,AFSA14.jpg,AFSA07.jpg,FS,4,num_8,16,num_8,0.600170697318,,,2017_Jul_14_1645,60.0108557461,FEMA4ImagesEEG,001,100561,
AFNE01.JPG,AFNE01.JPG,AFNE01.JPG,AFNE01.JPG,AFNE01.JPG,AFNE01.JPG,1,4,14,8,,,,,,,,,,,,,,,,,,,,,,,AFNE07.jpg,AFSA05.jpg,AFNE17.jpg,AFSA08.jpg,AFSA08.jpg,FS,4,num_4,16,num_4,0.900149400346,,,2017_Jul_14_1645,60.0108557461,FEMA4ImagesEEG,001,100561,
AFNE01.JPG,AFNE01.JPG,AFNE01.JPG,AFNE01.JPG,AFNE01.JPG,AFNE01.JPG,1,5,15,3,,,,,,,,,,,,,,,,,,,,,,,AFSA04.jpg,AFNE19.jpg,AFSA06.jpg,AFNE14.jpg,AFNE19.jpg,FN,3,num_6,32,num_4,1.1834018752,,,2017_Jul_14_1645,60.0108557461,FEMA4ImagesEEG,001,100561,
AFNE01.JPG,AFNE01.JPG,AFNE01.JPG,AFNE01.JPG,AFNE01.JPG,AFNE01.JPG,1,6,16,5,,,,,,,,,,,,,,,,,,,,,,,AFSA04.jpg,AFNE20.jpg,AFNE13.jpg,AFSA18.jpg,AFNE20.jpg,FN,3,num_6,16,num_6,1.16674460634,,,2017_Jul_14_1645,60.0108557461,FEMA4ImagesEEG,001,100561,
AFNE01.JPG,AFNE01.JPG,AFNE01.JPG,AFNE01.JPG,AFNE01.JPG,AFNE01.JPG,1,7,17,9,,,,,,,,,,,,,,,,,,,,,,,AFSA15.jpg,AFNE01.jpg,AFNE14.jpg,AFSA11.jpg,AFSA15.jpg,FS,4,num_8,16,num_8,0.516840731958,,,2017_Jul_14_1645,60.0108557461,FEMA4ImagesEEG,001,100561,
AFNE01.JPG,AFNE01.JPG,AFNE01.JPG,AFNE01.JPG,AFNE01.JPG,AFNE01.JPG,1,8,18,2,,,,,,,,,,,,,,,,,,,,,,,AFSA19.jpg,AFNE11.jpg,AFSA06.jpg,AFNE07.jpg,AFSA19.jpg,FS,4,num_8,16,num_8,0.900111873867,,,2017_Jul_14_1645,60.0108557461,FEMA4ImagesEEG,001,100561,
AFNE01.JPG,AFNE01.JPG,AFNE01.JPG,AFNE01.JPG,AFNE01.JPG,AFNE01.JPG,1,9,19,7,,,,,,,,,,,,,,,,,,,,,,,AFNE17.jpg,AFNE06.jpg,AFSA04.jpg,AFSA14.jpg,AFNE06.jpg,FN,3,num_6,16,num_6,1.16661214107,,,2017_Jul_14_1645,60.0108557461,FEMA4ImagesEEG,001,100561,
AFNE01.JPG,AFNE01.JPG,AFNE01.JPG,AFNE01.JPG,AFNE01.JPG,AFNE01.JPG,2,0,20,5,,,,,,,,,,,,,,,,,,,,,,,AFSA11.jpg,AFNE13.jpg,AFNE17.jpg,AFSA19.jpg,AFNE13.jpg,FN,3,num_6,16,num_6,1.16670002346,,,2017_Jul_14_1645,60.0108557461,FEMA4ImagesEEG,001,100561,
AFNE01.JPG,AFNE01.JPG,AFNE01.JPG,AFNE01.JPG,AFNE01.JPG,AFNE01.JPG,2,1,21,4,,,,,,,,,,,,,,,,,,,,,,,AFNE19.jpg,AFSA14.jpg,AFNE06.jpg,AFSA06.jpg,AFSA14.jpg,FS,4,num_6,32,num_4,0.850075598108,,,2017_Jul_14_1645,60.0108557461,FEMA4ImagesEEG,001,100561,
AFNE01.JPG,AFNE01.JPG,AFNE01.JPG,AFNE01.JPG,AFNE01.JPG,AFNE01.JPG,2,2,22,9,,,,,,,,,,,,,,,,,,,,,,,AFSA03.jpg,AFNE08.jpg,AFNE10.jpg,AFSA20.jpg,AFSA03.jpg,FS,4,num_8,32,num_4,1.45006604027,,,2017_Jul_14_1645,60.0108557461,FEMA4ImagesEEG,001,100561,
AFNE01.JPG,AFNE01.JPG,AFNE01.JPG,AFNE01.JPG,AFNE01.JPG,AFNE01.JPG,2,3,23,0,,,,,,,,,,,,,,,,,,,,,,,AFSA17.jpg,AFNE03.jpg,AFNE06.jpg,AFSA02.jpg,AFSA02.jpg,FS,4,num_4,16,num_4,1.56673010904,,,2017_Jul_14_1645,60.0108557461,FEMA4ImagesEEG,001,100561,
AFNE01.JPG,AFNE01.JPG,AFNE01.JPG,AFNE01.JPG,AFNE01.JPG,AFNE01.JPG,2,4,24,3,,,,,,,,,,,,,,,,,,,,,,,AFSA07.jpg,AFNE16.jpg,AFNE04.jpg,AFSA08.jpg,AFSA07.jpg,FS,4,num_8,16,num_8,0.75012139976,,,2017_Jul_14_1645,60.0108557461,FEMA4ImagesEEG,001,100561,
AFNE01.JPG,AFNE01.JPG,AFNE01.JPG,AFNE01.JPG,AFNE01.JPG,AFNE01.JPG,2,5,25,8,,,,,,,,,,,,,,,,,,,,,,,AFNE20.jpg,AFSA20.jpg,AFSA07.jpg,AFNE17.jpg,AFSA20.jpg,FS,4,num_6,16,num_6,0.76676423545,,,2017_Jul_14_1645,60.0108557461,FEMA4ImagesEEG,001,100561,
AFNE01.JPG,AFNE01.JPG,AFNE01.JPG,AFNE01.JPG,AFNE01.JPG,AFNE01.JPG,2,6,26,1,,,,,,,,,,,,,,,,,,,,,,,AFSA05.jpg,AFNE20.jpg,AFSA16.jpg,AFNE06.jpg,AFNE06.jpg,FN,3,num_4,32,num_8,1.01678588544,,,2017_Jul_14_1645,60.0108557461,FEMA4ImagesEEG,001,100561,
AFNE01.JPG,AFNE01.JPG,AFNE01.JPG,AFNE01.JPG,AFNE01.JPG,AFNE01.JPG,2,7,27,6,,,,,,,,,,,,,,,,,,,,,,,AFNE17.jpg,AFSA02.jpg,AFSA09.jpg,AFNE02.jpg,AFNE02.jpg,FN,3,num_4,32,num_6,0.683482701657,,,2017_Jul_14_1645,60.0108557461,FEMA4ImagesEEG,001,100561,
AFNE01.JPG,AFNE01.JPG,AFNE01.JPG,AFNE01.JPG,AFNE01.JPG,AFNE01.JPG,2,8,28,7,,,,,,,,,,,,,,,,,,,,,,,AFSA14.jpg,AFSA17.jpg,AFNE10.jpg,AFNE19.jpg,AFSA14.jpg,FS,4,num_8,16,num_8,0.616796213202,,,2017_Jul_14_1645,60.0108557461,FEMA4ImagesEEG,001,100561,
AFNE01.JPG,AFNE01.JPG,AFNE01.JPG,AFNE01.JPG,AFNE01.JPG,AFNE01.JPG,2,9,29,2,,,,,,,,,,,,,,,,,,,,,,,AFNE03.jpg,AFNE16.jpg,AFSA14.jpg,AFSA09.jpg,AFSA14.jpg,FS,4,num_2,32,num_4,0.91674861568,,,2017_Jul_14_1645,60.0108557461,FEMA4ImagesEEG,001,100561,
AFNE01.JPG,AFNE01.JPG,AFNE01.JPG,AFNE01.JPG,AFNE01.JPG,AFNE01.JPG,3,0,30,8,,,,,,,,,,,,,,,,,,,,,,,AFSA03.jpg,AFNE08.jpg,AFSA10.jpg,AFNE17.jpg,AFNE08.jpg,FN,3,num_6,16,num_6,1.10015979223,,,2017_Jul_14_1645,60.0108557461,FEMA4ImagesEEG,001,100561,
AFNE01.JPG,AFNE01.JPG,AFNE01.JPG,AFNE01.JPG,AFNE01.JPG,AFNE01.JPG,3,1,31,3,,,,,,,,,,,,,,,,,,,,,,,AFSA14.jpg,AFNE05.jpg,AFNE01.jpg,AFSA01.jpg,AFNE01.jpg,FN,3,num_2,32,num_8,0.75011145696,,,2017_Jul_14_1645,60.0108557461,FEMA4ImagesEEG,001,100561,
AFNE01.JPG,AFNE01.JPG,AFNE01.JPG,AFNE01.JPG,AFNE01.JPG,AFNE01.JPG,3,2,32,4,,,,,,,,,,,,,,,,,,,,,,,AFNE05.jpg,AFNE14.jpg,AFSA08.jpg,AFSA05.jpg,AFNE14.jpg,FN,3,num_6,16,num_6,1.20008448255,,,2017_Jul_14_1645,60.0108557461,FEMA4ImagesEEG,001,100561,
AFNE01.JPG,AFNE01.JPG,AFNE01.JPG,AFNE01.JPG,AFNE01.JPG,AFNE01.JPG,3,3,33,7,,,,,,,,,,,,,,,,,,,,,,,AFNE04.jpg,AFNE16.jpg,AFSA11.jpg,AFSA17.jpg,AFNE04.jpg,FN,3,num_8,32,num_6,0.883532865206,,,2017_Jul_14_1645,60.0108557461,FEMA4ImagesEEG,001,100561,
AFNE01.JPG,AFNE01.JPG,AFNE01.JPG,AFNE01.JPG,AFNE01.JPG,AFNE01.JPG,3,4,34,9,,,,,,,,,,,,,,,,,,,,,,,AFSA12.jpg,AFNE10.jpg,AFNE13.jpg,AFSA09.jpg,AFSA12.jpg,FS,4,num_8,16,num_8,0.466800928116,,,2017_Jul_14_1645,60.0108557461,FEMA4ImagesEEG,001,100561,
AFNE01.JPG,AFNE01.JPG,AFNE01.JPG,AFNE01.JPG,AFNE01.JPG,AFNE01.JPG,3,5,35,0,,,,,,,,,,,,,,,,,,,,,,,AFSA15.jpg,AFNE13.jpg,AFSA01.jpg,AFNE17.jpg,AFNE13.jpg,FN,3,num_6,16,num_6,0.75011626794,,,2017_Jul_14_1645,60.0108557461,FEMA4ImagesEEG,001,100561,
AFNE01.JPG,AFNE01.JPG,AFNE01.JPG,AFNE01.JPG,AFNE01.JPG,AFNE01.JPG,3,6,36,1,,,,,,,,,,,,,,,,,,,,,,,AFNE08.jpg,AFNE12.jpg,AFSA04.jpg,AFSA12.jpg,AFSA04.jpg,FS,4,num_2,16,num_2,0.550063217757,,,2017_Jul_14_1645,60.0108557461,FEMA4ImagesEEG,001,100561,
AFNE01.JPG,AFNE01.JPG,AFNE01.JPG,AFNE01.JPG,AFNE01.JPG,AFNE01.JPG,3,7,37,2,,,,,,,,,,,,,,,,,,,,,,,AFNE06.jpg,AFSA04.jpg,AFNE03.jpg,AFSA20.jpg,AFSA04.jpg,FS,4,num_6,16,num_6,0.683624147438,,,2017_Jul_14_1645,60.0108557461,FEMA4ImagesEEG,001,100561,
AFNE01.JPG,AFNE01.JPG,AFNE01.JPG,AFNE01.JPG,AFNE01.JPG,AFNE01.JPG,3,8,38,6,,,,,,,,,,,,,,,,,,,,,,,AFSA14.jpg,AFNE13.jpg,AFNE06.jpg,AFSA08.jpg,AFSA14.jpg,FS,4,num_8,16,num_8,0.533505698666,,,2017_Jul_14_1645,60.0108557461,FEMA4ImagesEEG,001,100561,
AFNE01.JPG,AFNE01.JPG,AFNE01.JPG,AFNE01.JPG,AFNE01.JPG,AFNE01.JPG,3,9,39,5,,,,,,,,,,,,,,,,,,,,,,,AFSA18.jpg,AFNE07.jpg,AFSA15.jpg,AFNE10.jpg,AFNE10.jpg,FN,3,num_4,32,num_6,0.683490078663,,,2017_Jul_14_1645,60.0108557461,FEMA4ImagesEEG,001,100561,
AFNE01.JPG,AFNE01.JPG,AFNE01.JPG,AFNE01.JPG,AFNE01.JPG,AFNE01.JPG,4,0,40,7,,,,,,,,,,,,,,,,,,,,,,,AFNE07.jpg,AFSA05.jpg,AFSA07.jpg,AFNE09.jpg,AFSA07.jpg,FS,4,num_2,16,num_2,1.20012649964,,,2017_Jul_14_1645,60.0108557461,FEMA4ImagesEEG,001,100561,
AFNE01.JPG,AFNE01.JPG,AFNE01.JPG,AFNE01.JPG,AFNE01.JPG,AFNE01.JPG,4,1,41,5,,,,,,,,,,,,,,,,,,,,,,,AFNE03.jpg,AFSA13.jpg,AFSA16.jpg,AFNE16.jpg,AFSA16.jpg,FS,4,num_2,32,num_6,0.78344395617,,,2017_Jul_14_1645,60.0108557461,FEMA4ImagesEEG,001,100561,
AFNE01.JPG,AFNE01.JPG,AFNE01.JPG,AFNE01.JPG,AFNE01.JPG,AFNE01.JPG,4,2,42,9,,,,,,,,,,,,,,,,,,,,,,,AFNE01.jpg,AFSA18.jpg,AFSA16.jpg,AFNE20.jpg,AFNE01.jpg,FN,3,num_8,16,num_8,1.06678687967,,,2017_Jul_14_1645,60.0108557461,FEMA4ImagesEEG,001,100561,
AFNE01.JPG,AFNE01.JPG,AFNE01.JPG,AFNE01.JPG,AFNE01.JPG,AFNE01.JPG,4,3,43,0,,,,,,,,,,,,,,,,,,,,,,,AFSA19.jpg,AFSA05.jpg,AFNE20.jpg,AFNE04.jpg,AFNE20.jpg,FN,3,num_2,16,num_2,1.66671221144,,,2017_Jul_14_1645,60.0108557461,FEMA4ImagesEEG,001,100561,
AFNE01.JPG,AFNE01.JPG,AFNE01.JPG,AFNE01.JPG,AFNE01.JPG,AFNE01.JPG,4,4,44,2,,,,,,,,,,,,,,,,,,,,,,,AFNE03.jpg,AFSA05.jpg,AFSA07.jpg,AFNE06.jpg,AFSA05.jpg,FS,4,num_6,16,num_6,0.700156328268,,,2017_Jul_14_1645,60.0108557461,FEMA4ImagesEEG,001,100561,
AFNE01.JPG,AFNE01.JPG,AFNE01.JPG,AFNE01.JPG,AFNE01.JPG,AFNE01.JPG,4,5,45,1,,,,,,,,,,,,,,,,,,,,,,,AFNE15.jpg,AFNE01.jpg,AFSA17.jpg,AFSA11.jpg,AFSA17.jpg,FS,4,num_2,16,num_2,1.08309037355,,,2017_Jul_14_1645,60.0108557461,FEMA4ImagesEEG,001,100561,
AFNE01.JPG,AFNE01.JPG,AFNE01.JPG,AFNE01.JPG,AFNE01.JPG,AFNE01.JPG,4,6,46,3,,,,,,,,,,,,,,,,,,,,,,,AFSA04.jpg,AFNE06.jpg,AFNE09.jpg,AFSA11.jpg,AFNE09.jpg,FN,3,num_2,32,num_4,1.13343872805,,,2017_Jul_14_1645,60.0108557461,FEMA4ImagesEEG,001,100561,
AFNE01.JPG,AFNE01.JPG,AFNE01.JPG,AFNE01.JPG,AFNE01.JPG,AFNE01.JPG,4,7,47,4,,,,,,,,,,,,,,,,,,,,,,,AFSA15.jpg,AFNE16.jpg,AFNE05.jpg,AFSA19.jpg,AFNE16.jpg,FN,3,num_6,16,num_6,1.01675862237,,,2017_Jul_14_1645,60.0108557461,FEMA4ImagesEEG,001,100561,
AFNE01.JPG,AFNE01.JPG,AFNE01.JPG,AFNE01.JPG,AFNE01.JPG,AFNE01.JPG,4,8,48,6,,,,,,,,,,,,,,,,,,,,,,,AFSA14.jpg,AFNE16.jpg,AFNE13.jpg,AFSA07.jpg,AFSA07.jpg,FS,4,num_4,16,num_4,0.950018570991,,,2017_Jul_14_1645,60.0108557461,FEMA4ImagesEEG,001,100561,
AFNE01.JPG,AFNE01.JPG,AFNE01.JPG,AFNE01.JPG,AFNE01.JPG,AFNE01.JPG,4,9,49,8,,,,,,,,,,,,,,,,,,,,,,,AFNE06.jpg,AFSA04.jpg,AFSA20.jpg,AFNE16.jpg,AFSA04.jpg,FS,4,num_6,32,num_2,1.3501519342,,,2017_Jul_14_1645,60.0108557461,FEMA4ImagesEEG,001,100561,
AFNE01.JPG,AFNE01.JPG,AFNE01.JPG,AFNE01.JPG,AFNE01.JPG,AFNE01.JPG,5,0,50,1,,,,,,,,,,,,,,,,,,,,,,,AFNE19.jpg,AFNE18.jpg,AFSA15.jpg,AFSA10.jpg,AFNE19.jpg,FN,3,num_8,16,num_8,0.933441807283,,,2017_Jul_14_1645,60.0108557461,FEMA4ImagesEEG,001,100561,
AFNE01.JPG,AFNE01.JPG,AFNE01.JPG,AFNE01.JPG,AFNE01.JPG,AFNE01.JPG,5,1,51,8,,,,,,,,,,,,,,,,,,,,,,,AFSA14.jpg,AFSA06.jpg,AFNE02.jpg,AFNE13.jpg,AFNE02.jpg,FN,3,num_2,16,num_2,1.28342791926,,,2017_Jul_14_1645,60.0108557461,FEMA4ImagesEEG,001,100561,
AFNE01.JPG,AFNE01.JPG,AFNE01.JPG,AFNE01.JPG,AFNE01.JPG,AFNE01.JPG,5,2,52,5,,,,,,,,,,,,,,,,,,,,,,,AFSA20.jpg,AFNE07.jpg,AFSA10.jpg,AFNE05.jpg,AFNE05.jpg,FN,3,num_4,16,num_4,1.3001015461,,,2017_Jul_14_1645,60.0108557461,FEMA4ImagesEEG,001,100561,
AFNE01.JPG,AFNE01.JPG,AFNE01.JPG,AFNE01.JPG,AFNE01.JPG,AFNE01.JPG,5,3,53,9,,,,,,,,,,,,,,,,,,,,,,,AFSA05.jpg,AFNE05.jpg,AFNE03.jpg,AFSA17.jpg,AFNE05.jpg,FN,3,num_6,16,num_6,0.733468941879,,,2017_Jul_14_1645,60.0108557461,FEMA4ImagesEEG,001,100561,
AFNE01.JPG,AFNE01.JPG,AFNE01.JPG,AFNE01.JPG,AFNE01.JPG,AFNE01.JPG,5,4,54,3,,,,,,,,,,,,,,,,,,,,,,,AFSA13.jpg,AFNE19.jpg,AFSA12.jpg,AFNE06.jpg,AFNE06.jpg,FN,3,num_4,32,num_2,1.06675191899,,,2017_Jul_14_1645,60.0108557461,FEMA4ImagesEEG,001,100561,
AFNE01.JPG,AFNE01.JPG,AFNE01.JPG,AFNE01.JPG,AFNE01.JPG,AFNE01.JPG,5,5,55,0,,,,,,,,,,,,,,,,,,,,,,,AFNE17.jpg,AFSA09.jpg,AFSA01.jpg,AFNE19.jpg,AFSA01.jpg,FS,4,num_2,16,num_2,0.966860264773,,,2017_Jul_14_1645,60.0108557461,FEMA4ImagesEEG,001,100561,
AFNE01.JPG,AFNE01.JPG,AFNE01.JPG,AFNE01.JPG,AFNE01.JPG,AFNE01.JPG,5,6,56,4,,,,,,,,,,,,,,,,,,,,,,,AFSA13.jpg,AFNE09.jpg,AFNE19.jpg,AFSA11.jpg,AFNE19.jpg,FN,3,num_2,16,num_2,0.83345264825,,,2017_Jul_14_1645,60.0108557461,FEMA4ImagesEEG,001,100561,
AFNE01.JPG,AFNE01.JPG,AFNE01.JPG,AFNE01.JPG,AFNE01.JPG,AFNE01.JPG,5,7,57,6,,,,,,,,,,,,,,,,,,,,,,,AFNE07.jpg,AFSA19.jpg,AFSA14.jpg,AFNE13.jpg,AFNE07.jpg,FN,3,num_8,32,num_4,1.66669649538,,,2017_Jul_14_1645,60.0108557461,FEMA4ImagesEEG,001,100561,
AFNE01.JPG,AFNE01.JPG,AFNE01.JPG,AFNE01.JPG,AFNE01.JPG,AFNE01.JPG,5,8,58,7,,,,,,,,,,,,,,,,,,,,,,,AFNE14.jpg,AFNE09.jpg,AFSA08.jpg,AFSA03.jpg,AFNE09.jpg,FN,3,num_6,16,num_6,0.933521671453,,,2017_Jul_14_1645,60.0108557461,FEMA4ImagesEEG,001,100561,
AFNE01.JPG,AFNE01.JPG,AFNE01.JPG,AFNE01.JPG,AFNE01.JPG,AFNE01.JPG,5,9,59,2,,,,,,,,,,,,,,,,,,,,,,,AFNE08.jpg,AFSA10.jpg,AFSA01.jpg,AFNE11.jpg,AFNE08.jpg,FN,3,num_8,32,num_4,1.06703288667,,,2017_Jul_14_1645,60.0108557461,FEMA4ImagesEEG,001,100561,
,,,,,,,,,,,,,,,,,,,,,,,,,,,,,,,,,,,,,,,,,,,space,15.1156566269,2017_Jul_14_1645,60.0108557461,FEMA4ImagesEEG,001,100561,
AFNE01.JPG,AFNE01.JPG,AFNE01.JPG,AFNE01.JPG,AFNE01.JPG,AFNE01.JPG,,,,,0,0,0,2,,,,,,,,,,,,,,,,,,,AMSA07.jpg,AMNE14.jpg,AMSA01.jpg,AMNE12.jpg,AMNE12.jpg,MN,1,num_4,32,num_6,2.20000365656,,,2017_Jul_14_1645,60.0108557461,FEMA4ImagesEEG,001,100561,
AFNE01.JPG,AFNE01.JPG,AFNE01.JPG,AFNE01.JPG,AFNE01.JPG,AFNE01.JPG,,,,,0,1,1,3,,,,,,,,,,,,,,,,,,,AMNE17.jpg,AMNE01.jpg,AMSA19.jpg,AMSA09.jpg,AMSA19.jpg,MS,2,num_2,16,num_2,1.11676413915,,,2017_Jul_14_1645,60.0108557461,FEMA4ImagesEEG,001,100561,
AFNE01.JPG,AFNE01.JPG,AFNE01.JPG,AFNE01.JPG,AFNE01.JPG,AFNE01.JPG,,,,,0,2,2,6,,,,,,,,,,,,,,,,,,,AMSA13.jpg,AMSA02.jpg,AMNE03.jpg,AMNE07.jpg,AMNE03.jpg,MN,1,num_2,32,num_4,1.00012861658,,,2017_Jul_14_1645,60.0108557461,FEMA4ImagesEEG,001,100561,
AFNE01.JPG,AFNE01.JPG,AFNE01.JPG,AFNE01.JPG,AFNE01.JPG,AFNE01.JPG,,,,,0,3,3,1,,,,,,,,,,,,,,,,,,,AMNE13.jpg,AMSA14.jpg,AMSA02.jpg,AMNE11.jpg,AMNE13.jpg,MN,1,num_8,16,num_8,0.983343372354,,,2017_Jul_14_1645,60.0108557461,FEMA4ImagesEEG,001,100561,
AFNE01.JPG,AFNE01.JPG,AFNE01.JPG,AFNE01.JPG,AFNE01.JPG,AFNE01.JPG,,,,,0,4,4,0,,,,,,,,,,,,,,,,,,,AMSA10.jpg,AMNE09.jpg,AMNE14.jpg,AMSA06.jpg,AMSA10.jpg,MS,2,num_8,32,num_4,1.38339687162,,,2017_Jul_14_1645,60.0108557461,FEMA4ImagesEEG,001,100561,
AFNE01.JPG,AFNE01.JPG,AFNE01.JPG,AFNE01.JPG,AFNE01.JPG,AFNE01.JPG,,,,,0,5,5,4,,,,,,,,,,,,,,,,,,,AMNE13.jpg,AMSA07.jpg,AMSA16.jpg,AMNE16.jpg,AMSA07.jpg,MS,2,num_6,16,num_6,0.433521350613,,,2017_Jul_14_1645,60.0108557461,FEMA4ImagesEEG,001,100561,
AFNE01.JPG,AFNE01.JPG,AFNE01.JPG,AFNE01.JPG,AFNE01.JPG,AFNE01.JPG,,,,,0,6,6,5,,,,,,,,,,,,,,,,,,,AMSA14.jpg,AMNE09.jpg,AMSA01.jpg,AMNE14.jpg,AMSA14.jpg,MS,2,num_8,16,num_8,1.19994496112,,,2017_Jul_14_1645,60.0108557461,FEMA4ImagesEEG,001,100561,
AFNE01.JPG,AFNE01.JPG,AFNE01.JPG,AFNE01.JPG,AFNE01.JPG,AFNE01.JPG,,,,,0,7,7,7,,,,,,,,,,,,,,,,,,,AMSA14.jpg,AMNE05.jpg,AMNE01.jpg,AMSA02.jpg,AMSA14.jpg,MS,2,num_8,32,num_4,1.33341832925,,,2017_Jul_14_1645,60.0108557461,FEMA4ImagesEEG,001,100561,
AFNE01.JPG,AFNE01.JPG,AFNE01.JPG,AFNE01.JPG,AFNE01.JPG,AFNE01.JPG,,,,,0,8,8,8,,,,,,,,,,,,,,,,,,,AMSA14.jpg,AMSA10.jpg,AMNE05.jpg,AMNE14.jpg,AMSA14.jpg,MS,2,num_8,16,num_8,0.95010773628,,,2017_Jul_14_1645,60.0108557461,FEMA4ImagesEEG,001,100561,
AFNE01.JPG,AFNE01.JPG,AFNE01.JPG,AFNE01.JPG,AFNE01.JPG,AFNE01.JPG,,,,,0,9,9,9,,,,,,,,,,,,,,,,,,,AMNE03.jpg,AMSA14.jpg,AMNE17.jpg,AMSA01.jpg,AMSA01.jpg,MS,2,num_4,16,num_4,0.666758077219,,,2017_Jul_14_1645,60.0108557461,FEMA4ImagesEEG,001,100561,
AFNE01.JPG,AFNE01.JPG,AFNE01.JPG,AFNE01.JPG,AFNE01.JPG,AFNE01.JPG,,,,,1,0,10,3,,,,,,,,,,,,,,,,,,,AMSA16.jpg,AMNE03.jpg,AMNE10.jpg,AMSA19.jpg,AMNE10.jpg,MN,1,num_2,16,num_2,0.600155943306,,,2017_Jul_14_1645,60.0108557461,FEMA4ImagesEEG,001,100561,
AFNE01.JPG,AFNE01.JPG,AFNE01.JPG,AFNE01.JPG,AFNE01.JPG,AFNE01.JPG,,,,,1,1,11,5,,,,,,,,,,,,,,,,,,,AMNE06.jpg,AMNE02.jpg,AMSA03.jpg,AMSA20.jpg,AMSA20.jpg,MS,2,num_4,16,num_4,0.600177753484,,,2017_Jul_14_1645,60.0108557461,FEMA4ImagesEEG,001,100561,
AFNE01.JPG,AFNE01.JPG,AFNE01.JPG,AFNE01.JPG,AFNE01.JPG,AFNE01.JPG,,,,,1,2,12,0,,,,,,,,,,,,,,,,,,,AMSA16.jpg,AMSA13.jpg,AMNE14.jpg,AMNE01.jpg,AMNE14.jpg,MN,1,num_2,16,num_2,1.30013105413,,,2017_Jul_14_1645,60.0108557461,FEMA4ImagesEEG,001,100561,
AFNE01.JPG,AFNE01.JPG,AFNE01.JPG,AFNE01.JPG,AFNE01.JPG,AFNE01.JPG,,,,,1,3,13,8,,,,,,,,,,,,,,,,,,,AMNE19.jpg,AMNE16.jpg,AMSA10.jpg,AMSA18.jpg,AMNE16.jpg,MN,1,num_6,16,num_6,1.09971139906,,,2017_Jul_14_1645,60.0108557461,FEMA4ImagesEEG,001,100561,
AFNE01.JPG,AFNE01.JPG,AFNE01.JPG,AFNE01.JPG,AFNE01.JPG,AFNE01.JPG,,,,,1,4,14,1,,,,,,,,,,,,,,,,,,,AMNE09.jpg,AMSA18.jpg,AMSA15.jpg,AMNE20.jpg,AMSA15.jpg,MS,2,num_2,16,num_2,1.05014340254,,,2017_Jul_14_1645,60.0108557461,FEMA4ImagesEEG,001,100561,
AFNE01.JPG,AFNE01.JPG,AFNE01.JPG,AFNE01.JPG,AFNE01.JPG,AFNE01.JPG,,,,,1,5,15,9,,,,,,,,,,,,,,,,,,,AMSA20.jpg,AMNE01.jpg,AMNE15.jpg,AMSA04.jpg,AMNE01.jpg,MN,1,num_6,16,num_6,0.633456689538,,,2017_Jul_14_1645,60.0108557461,FEMA4ImagesEEG,001,100561,
AFNE01.JPG,AFNE01.JPG,AFNE01.JPG,AFNE01.JPG,AFNE01.JPG,AFNE01.JPG,,,,,1,6,16,4,,,,,,,,,,,,,,,,,,,AMNE05.jpg,AMSA03.jpg,AMSA06.jpg,AMNE02.jpg,AMSA06.jpg,MS,2,num_2,16,num_2,1.48342548171,,,2017_Jul_14_1645,60.0108557461,FEMA4ImagesEEG,001,100561,
AFNE01.JPG,AFNE01.JPG,AFNE01.JPG,AFNE01.JPG,AFNE01.JPG,AFNE01.JPG,,,,,1,7,17,7,,,,,,,,,,,,,,,,,,,AMNE13.jpg,AMSA15.jpg,AMSA09.jpg,AMNE11.jpg,AMSA15.jpg,MS,2,num_6,16,num_6,0.916655280394,,,2017_Jul_14_1645,60.0108557461,FEMA4ImagesEEG,001,100561,
AFNE01.JPG,AFNE01.JPG,AFNE01.JPG,AFNE01.JPG,AFNE01.JPG,AFNE01.JPG,,,,,1,8,18,6,,,,,,,,,,,,,,,,,,,AMSA12.jpg,AMNE10.jpg,AMSA03.jpg,AMNE05.jpg,AMSA03.jpg,MS,2,num_2,16,num_2,1.26659520599,,,2017_Jul_14_1645,60.0108557461,FEMA4ImagesEEG,001,100561,
AFNE01.JPG,AFNE01.JPG,AFNE01.JPG,AFNE01.JPG,AFNE01.JPG,AFNE01.JPG,,,,,1,9,19,2,,,,,,,,,,,,,,,,,,,AMNE18.jpg,AMSA10.jpg,AMNE06.jpg,AMSA18.jpg,AMSA10.jpg,MS,2,num_6,16,num_6,0.916808593785,,,2017_Jul_14_1645,60.0108557461,FEMA4ImagesEEG,001,100561,
AFNE01.JPG,AFNE01.JPG,AFNE01.JPG,AFNE01.JPG,AFNE01.JPG,AFNE01.JPG,,,,,2,0,20,8,,,,,,,,,,,,,,,,,,,AMNE15.jpg,AMNE16.jpg,AMSA18.jpg,AMSA01.jpg,AMSA01.jpg,MS,2,num_4,32,num_2,1.15013095783,,,2017_Jul_14_1645,60.0108557461,FEMA4ImagesEEG,001,100561,
AFNE01.JPG,AFNE01.JPG,AFNE01.JPG,AFNE01.JPG,AFNE01.JPG,AFNE01.JPG,,,,,2,1,21,7,,,,,,,,,,,,,,,,,,,AMSA08.jpg,AMNE18.jpg,AMSA16.jpg,AMNE05.jpg,AMNE18.jpg,MN,1,num_6,32,num_4,1.30009128246,,,2017_Jul_14_1645,60.0108557461,FEMA4ImagesEEG,001,100561,
AFNE01.JPG,AFNE01.JPG,AFNE01.JPG,AFNE01.JPG,AFNE01.JPG,AFNE01.JPG,,,,,2,2,22,9,,,,,,,,,,,,,,,,,,,AMNE09.jpg,AMSA19.jpg,AMSA12.jpg,AMNE05.jpg,AMSA19.jpg,MS,2,num_6,16,num_6,0.966729403241,,,2017_Jul_14_1645,60.0108557461,FEMA4ImagesEEG,001,100561,
AFNE01.JPG,AFNE01.JPG,AFNE01.JPG,AFNE01.JPG,AFNE01.JPG,AFNE01.JPG,,,,,2,3,23,2,,,,,,,,,,,,,,,,,,,AMSA15.jpg,AMNE06.jpg,AMNE11.jpg,AMSA14.jpg,AMSA15.jpg,MS,2,num_8,16,num_8,0.716763882898,,,2017_Jul_14_1645,60.0108557461,FEMA4ImagesEEG,001,100561,
AFNE01.JPG,AFNE01.JPG,AFNE01.JPG,AFNE01.JPG,AFNE01.JPG,AFNE01.JPG,,,,,2,4,24,3,,,,,,,,,,,,,,,,,,,AMSA10.jpg,AMSA18.jpg,AMNE08.jpg,AMNE12.jpg,AMSA18.jpg,MS,2,num_6,16,num_6,1.11674746079,,,2017_Jul_14_1645,60.0108557461,FEMA4ImagesEEG,001,100561,
AFNE01.JPG,AFNE01.JPG,AFNE01.JPG,AFNE01.JPG,AFNE01.JPG,AFNE01.JPG,,,,,2,5,25,4,,,,,,,,,,,,,,,,,,,AMSA19.jpg,AMNE11.jpg,AMSA02.jpg,AMNE12.jpg,AMNE11.jpg,MN,1,num_6,32,num_4,1.16672343761,,,2017_Jul_14_1645,60.0108557461,FEMA4ImagesEEG,001,100561,
AFNE01.JPG,AFNE01.JPG,AFNE01.JPG,AFNE01.JPG,AFNE01.JPG,AFNE01.JPG,,,,,2,6,26,6,,,,,,,,,,,,,,,,,,,AMNE11.jpg,AMSA06.jpg,AMSA19.jpg,AMNE20.jpg,AMNE20.jpg,MN,1,num_4,32,num_8,1.13345187856,,,2017_Jul_14_1645,60.0108557461,FEMA4ImagesEEG,001,100561,
AFNE01.JPG,AFNE01.JPG,AFNE01.JPG,AFNE01.JPG,AFNE01.JPG,AFNE01.JPG,,,,,2,7,27,0,,,,,,,,,,,,,,,,,,,AMNE16.jpg,AMSA12.jpg,AMSA17.jpg,AMNE20.jpg,AMSA17.jpg,MS,2,num_2,16,num_2,1.26673376537,,,2017_Jul_14_1645,60.0108557461,FEMA4ImagesEEG,001,100561,
AFNE01.JPG,AFNE01.JPG,AFNE01.JPG,AFNE01.JPG,AFNE01.JPG,AFNE01.JPG,,,,,2,8,28,1,,,,,,,,,,,,,,,,,,,AMNE20.jpg,AMSA05.jpg,AMSA03.jpg,AMNE06.jpg,AMNE06.jpg,MN,1,num_4,32,num_6,0.950137565145,,,2017_Jul_14_1645,60.0108557461,FEMA4ImagesEEG,001,100561,
AFNE01.JPG,AFNE01.JPG,AFNE01.JPG,AFNE01.JPG,AFNE01.JPG,AFNE01.JPG,,,,,2,9,29,5,,,,,,,,,,,,,,,,,,,AMNE03.jpg,AMSA17.jpg,AMNE08.jpg,AMSA14.jpg,AMSA14.jpg,MS,2,num_4,16,num_4,0.550158797996,,,2017_Jul_14_1645,60.0108557461,FEMA4ImagesEEG,001,100561,
AFNE01.JPG,AFNE01.JPG,AFNE01.JPG,AFNE01.JPG,AFNE01.JPG,AFNE01.JPG,,,,,3,0,30,9,,,,,,,,,,,,,,,,,,,AMNE03.jpg,AMSA01.jpg,AMSA11.jpg,AMNE09.jpg,AMSA11.jpg,MS,2,num_2,32,num_6,0.816766191972,,,2017_Jul_14_1645,60.0108557461,FEMA4ImagesEEG,001,100561,
AFNE01.JPG,AFNE01.JPG,AFNE01.JPG,AFNE01.JPG,AFNE01.JPG,AFNE01.JPG,,,,,3,1,31,4,,,,,,,,,,,,,,,,,,,AMSA16.jpg,AMNE03.jpg,AMSA14.jpg,AMNE12.jpg,AMNE12.jpg,MN,1,num_4,16,num_4,1.15007001744,,,2017_Jul_14_1645,60.0108557461,FEMA4ImagesEEG,001,100561,
AFNE01.JPG,AFNE01.JPG,AFNE01.JPG,AFNE01.JPG,AFNE01.JPG,AFNE01.JPG,,,,,3,2,32,1,,,,,,,,,,,,,,,,,,,AMNE18.jpg,AMNE16.jpg,AMSA16.jpg,AMSA04.jpg,AMNE18.jpg,MN,1,num_8,16,num_8,0.833415763453,,,2017_Jul_14_1645,60.0108557461,FEMA4ImagesEEG,001,100561,
AFNE01.JPG,AFNE01.JPG,AFNE01.JPG,AFNE01.JPG,AFNE01.JPG,AFNE01.JPG,,,,,3,3,33,6,,,,,,,,,,,,,,,,,,,AMNE07.jpg,AMSA01.jpg,AMSA04.jpg,AMNE16.jpg,AMSA04.jpg,MS,2,num_2,16,num_2,0.483519137604,,,2017_Jul_14_1645,60.0108557461,FEMA4ImagesEEG,001,100561,
AFNE01.JPG,AFNE01.JPG,AFNE01.JPG,AFNE01.JPG,AFNE01.JPG,AFNE01.JPG,,,,,3,4,34,7,,,,,,,,,,,,,,,,,,,AMNE13.jpg,AMSA10.jpg,AMNE07.jpg,AMSA05.jpg,AMSA05.jpg,MS,2,num_4,16,num_4,1.60010334221,,,2017_Jul_14_1645,60.0108557461,FEMA4ImagesEEG,001,100561,
AFNE01.JPG,AFNE01.JPG,AFNE01.JPG,AFNE01.JPG,AFNE01.JPG,AFNE01.JPG,,,,,3,5,35,3,,,,,,,,,,,,,,,,,,,AMSA01.jpg,AMNE17.jpg,AMSA13.jpg,AMNE07.jpg,AMNE17.jpg,MN,1,num_6,16,num_6,0.53346047434,,,2017_Jul_14_1645,60.0108557461,FEMA4ImagesEEG,001,100561,
AFNE01.JPG,AFNE01.JPG,AFNE01.JPG,AFNE01.JPG,AFNE01.JPG,AFNE01.JPG,,,,,3,6,36,5,,,,,,,,,,,,,,,,,,,AMSA09.jpg,AMNE08.jpg,AMSA04.jpg,AMNE05.jpg,AMNE05.jpg,MN,1,num_4,32,num_8,0.883453642717,,,2017_Jul_14_1645,60.0108557461,FEMA4ImagesEEG,001,100561,
AFNE01.JPG,AFNE01.JPG,AFNE01.JPG,AFNE01.JPG,AFNE01.JPG,AFNE01.JPG,,,,,3,7,37,8,,,,,,,,,,,,,,,,,,,AMNE05.jpg,AMSA07.jpg,AMSA04.jpg,AMNE07.jpg,AMNE07.jpg,MN,1,num_4,32,num_8,1.06676186202,,,2017_Jul_14_1645,60.0108557461,FEMA4ImagesEEG,001,100561,
AFNE01.JPG,AFNE01.JPG,AFNE01.JPG,AFNE01.JPG,AFNE01.JPG,AFNE01.JPG,,,,,3,8,38,0,,,,,,,,,,,,,,,,,,,AMNE01.jpg,AMSA11.jpg,AMSA01.jpg,AMNE04.jpg,AMNE01.jpg,MN,1,num_8,32,num_2,1.15012005274,,,2017_Jul_14_1645,60.0108557461,FEMA4ImagesEEG,001,100561,
AFNE01.JPG,AFNE01.JPG,AFNE01.JPG,AFNE01.JPG,AFNE01.JPG,AFNE01.JPG,,,,,3,9,39,2,,,,,,,,,,,,,,,,,,,AMSA14.jpg,AMNE17.jpg,AMNE15.jpg,AMSA16.jpg,AMNE15.jpg,MN,1,num_2,16,num_2,0.983488025842,,,2017_Jul_14_1645,60.0108557461,FEMA4ImagesEEG,001,100561,
AFNE01.JPG,AFNE01.JPG,AFNE01.JPG,AFNE01.JPG,AFNE01.JPG,AFNE01.JPG,,,,,4,0,40,7,,,,,,,,,,,,,,,,,,,AMSA15.jpg,AMSA09.jpg,AMNE16.jpg,AMNE19.jpg,AMSA15.jpg,MS,2,num_8,16,num_8,0.600133491447,,,2017_Jul_14_1645,60.0108557461,FEMA4ImagesEEG,001,100561,
AFNE01.JPG,AFNE01.JPG,AFNE01.JPG,AFNE01.JPG,AFNE01.JPG,AFNE01.JPG,,,,,4,1,41,4,,,,,,,,,,,,,,,,,,,AMNE01.jpg,AMNE09.jpg,AMSA16.jpg,AMSA19.jpg,AMSA16.jpg,MS,2,num_2,16,num_2,0.450216146186,,,2017_Jul_14_1645,60.0108557461,FEMA4ImagesEEG,001,100561,
AFNE01.JPG,AFNE01.JPG,AFNE01.JPG,AFNE01.JPG,AFNE01.JPG,AFNE01.JPG,,,,,4,2,42,9,,,,,,,,,,,,,,,,,,,AMNE15.jpg,AMSA07.jpg,AMNE10.jpg,AMSA04.jpg,AMNE15.jpg,MN,1,num_8,16,num_8,0.616892114282,,,2017_Jul_14_1645,60.0108557461,FEMA4ImagesEEG,001,100561,
AFNE01.JPG,AFNE01.JPG,AFNE01.JPG,AFNE01.JPG,AFNE01.JPG,AFNE01.JPG,,,,,4,3,43,1,,,,,,,,,,,,,,,,,,,AMSA19.jpg,AMNE02.jpg,AMSA17.jpg,AMNE04.jpg,AMNE02.jpg,MN,1,num_6,32,num_8,0.933495370671,,,2017_Jul_14_1645,60.0108557461,FEMA4ImagesEEG,001,100561,
AFNE01.JPG,AFNE01.JPG,AFNE01.JPG,AFNE01.JPG,AFNE01.JPG,AFNE01.JPG,,,,,4,4,44,6,,,,,,,,,,,,,,,,,,,AMNE13.jpg,AMNE09.jpg,AMSA20.jpg,AMSA15.jpg,AMNE13.jpg,MN,1,num_8,32,num_6,0.850138142472,,,2017_Jul_14_1645,60.0108557461,FEMA4ImagesEEG,001,100561,
AFNE01.JPG,AFNE01.JPG,AFNE01.JPG,AFNE01.JPG,AFNE01.JPG,AFNE01.JPG,,,,,4,5,45,5,,,,,,,,,,,,,,,,,,,AMNE16.jpg,AMSA14.jpg,AMNE20.jpg,AMSA07.jpg,AMSA14.jpg,MS,2,num_6,32,num_4,0.816791530466,,,2017_Jul_14_1645,60.0108557461,FEMA4ImagesEEG,001,100561,
AFNE01.JPG,AFNE01.JPG,AFNE01.JPG,AFNE01.JPG,AFNE01.JPG,AFNE01.JPG,,,,,4,6,46,3,,,,,,,,,,,,,,,,,,,AMNE14.jpg,AMSA01.jpg,AMSA15.jpg,AMNE09.jpg,AMSA15.jpg,MS,2,num_2,16,num_2,0.883428304223,,,2017_Jul_14_1645,60.0108557461,FEMA4ImagesEEG,001,100561,
AFNE01.JPG,AFNE01.JPG,AFNE01.JPG,AFNE01.JPG,AFNE01.JPG,AFNE01.JPG,,,,,4,7,47,0,,,,,,,,,,,,,,,,,,,AMSA20.jpg,AMNE16.jpg,AMNE17.jpg,AMSA14.jpg,AMNE16.jpg,MN,1,num_6,16,num_6,0.750119154807,,,2017_Jul_14_1645,60.0108557461,FEMA4ImagesEEG,001,100561,
AFNE01.JPG,AFNE01.JPG,AFNE01.JPG,AFNE01.JPG,AFNE01.JPG,AFNE01.JPG,,,,,4,8,48,8,,,,,,,,,,,,,,,,,,,AMSA15.jpg,AMSA16.jpg,AMNE12.jpg,AMNE06.jpg,AMSA16.jpg,MS,2,num_6,32,num_4,1.18343394925,,,2017_Jul_14_1645,60.0108557461,FEMA4ImagesEEG,001,100561,
AFNE01.JPG,AFNE01.JPG,AFNE01.JPG,AFNE01.JPG,AFNE01.JPG,AFNE01.JPG,,,,,4,9,49,2,,,,,,,,,,,,,,,,,,,AMNE11.jpg,AMNE08.jpg,AMSA03.jpg,AMSA17.jpg,AMSA17.jpg,MS,2,num_4,16,num_4,0.800169221824,,,2017_Jul_14_1645,60.0108557461,FEMA4ImagesEEG,001,100561,
AFNE01.JPG,AFNE01.JPG,AFNE01.JPG,AFNE01.JPG,AFNE01.JPG,AFNE01.JPG,,,,,5,0,50,9,,,,,,,,,,,,,,,,,,,AMSA13.jpg,AMSA04.jpg,AMNE11.jpg,AMNE03.jpg,AMNE11.jpg,MN,1,num_2,16,num_2,1.16671445686,,,2017_Jul_14_1645,60.0108557461,FEMA4ImagesEEG,001,100561,
AFNE01.JPG,AFNE01.JPG,AFNE01.JPG,AFNE01.JPG,AFNE01.JPG,AFNE01.JPG,,,,,5,1,51,2,,,,,,,,,,,,,,,,,,,AMNE07.jpg,AMSA01.jpg,AMSA10.jpg,AMNE14.jpg,AMSA01.jpg,MS,2,num_6,32,num_4,1.06673908955,,,2017_Jul_14_1645,60.0108557461,FEMA4ImagesEEG,001,100561,
AFNE01.JPG,AFNE01.JPG,AFNE01.JPG,AFNE01.JPG,AFNE01.JPG,AFNE01.JPG,,,,,5,2,52,7,,,,,,,,,,,,,,,,,,,AMNE13.jpg,AMNE02.jpg,AMSA10.jpg,AMSA06.jpg,AMNE02.jpg,MN,1,num_6,16,num_6,0.500177689362,,,2017_Jul_14_1645,60.0108557461,FEMA4ImagesEEG,001,100561,
AFNE01.JPG,AFNE01.JPG,AFNE01.JPG,AFNE01.JPG,AFNE01.JPG,AFNE01.JPG,,,,,5,3,53,6,,,,,,,,,,,,,,,,,,,AMNE07.jpg,AMSA12.jpg,AMNE04.jpg,AMSA04.jpg,AMNE04.jpg,MN,1,num_2,32,num_8,1.16712147486,,,2017_Jul_14_1645,60.0108557461,FEMA4ImagesEEG,001,100561,
AFNE01.JPG,AFNE01.JPG,AFNE01.JPG,AFNE01.JPG,AFNE01.JPG,AFNE01.JPG,,,,,5,4,54,4,,,,,,,,,,,,,,,,,,,AMSA09.jpg,AMNE18.jpg,AMSA17.jpg,AMNE09.jpg,AMNE18.jpg,MN,1,num_6,16,num_6,0.516791979549,,,2017_Jul_14_1645,60.0108557461,FEMA4ImagesEEG,001,100561,
AFNE01.JPG,AFNE01.JPG,AFNE01.JPG,AFNE01.JPG,AFNE01.JPG,AFNE01.JPG,,,,,5,5,55,8,,,,,,,,,,,,,,,,,,,AMSA16.jpg,AMNE07.jpg,AMSA14.jpg,AMNE06.jpg,AMSA16.jpg,MS,2,num_8,32,num_6,0.733450338943,,,2017_Jul_14_1645,60.0108557461,FEMA4ImagesEEG,001,100561,
AFNE01.JPG,AFNE01.JPG,AFNE01.JPG,AFNE01.JPG,AFNE01.JPG,AFNE01.JPG,,,,,5,6,56,3,,,,,,,,,,,,,,,,,,,AMNE19.jpg,AMSA15.jpg,AMNE08.jpg,AMSA11.jpg,AMNE08.jpg,MN,1,num_2,32,num_4,0.850128199439,,,2017_Jul_14_1645,60.0108557461,FEMA4ImagesEEG,001,100561,
AFNE01.JPG,AFNE01.JPG,AFNE01.JPG,AFNE01.JPG,AFNE01.JPG,AFNE01.JPG,,,,,5,7,57,0,,,,,,,,,,,,,,,,,,,AMSA10.jpg,AMNE14.jpg,AMSA08.jpg,AMNE02.jpg,AMSA08.jpg,MS,2,num_2,32,num_8,1.03354739468,,,2017_Jul_14_1645,60.0108557461,FEMA4ImagesEEG,001,100561,
AFNE01.JPG,AFNE01.JPG,AFNE01.JPG,AFNE01.JPG,AFNE01.JPG,AFNE01.JPG,,,,,5,8,58,5,,,,,,,,,,,,,,,,,,,AMNE15.jpg,AMSA12.jpg,AMSA18.jpg,AMNE16.jpg,AMSA12.jpg,MS,2,num_6,16,num_6,0.600198280998,,,2017_Jul_14_1645,60.0108557461,FEMA4ImagesEEG,001,100561,
AFNE01.JPG,AFNE01.JPG,AFNE01.JPG,AFNE01.JPG,AFNE01.JPG,AFNE01.JPG,,,,,5,9,59,1,,,,,,,,,,,,,,,,,,,AMSA03.jpg,AMNE11.jpg,AMNE18.jpg,AMSA12.jpg,AMNE11.jpg,MN,1,num_6,16,num_6,0.933438920649,,,2017_Jul_14_1645,60.0108557461,FEMA4ImagesEEG,001,100561,
,,,,,,,,,,,,,,,,,,,,,,,,,,,,,,,,,,,,,,,,,,,space,18.6819919059,2017_Jul_14_1645,60.0108557461,FEMA4ImagesEEG,001,100561,
AFNE01.JPG,AFNE01.JPG,AFNE01.JPG,AFNE01.JPG,AFNE01.JPG,AFNE01.JPG,,,,,,,,,0,0,0,8,,,,,,,,,,,,,,,AFNE19.jpg,AFSA10.jpg,AFSA13.jpg,AFNE02.jpg,AFSA13.jpg,FS,4,num_2,32,num_8,1.86670688749,,,2017_Jul_14_1645,60.0108557461,FEMA4ImagesEEG,001,100561,
AFNE01.JPG,AFNE01.JPG,AFNE01.JPG,AFNE01.JPG,AFNE01.JPG,AFNE01.JPG,,,,,,,,,0,1,1,5,,,,,,,,,,,,,,,AFSA06.jpg,AFNE06.jpg,AFSA10.jpg,AFNE01.jpg,AFNE06.jpg,FN,3,num_6,16,num_6,1.18338872492,,,2017_Jul_14_1645,60.0108557461,FEMA4ImagesEEG,001,100561,
AFNE01.JPG,AFNE01.JPG,AFNE01.JPG,AFNE01.JPG,AFNE01.JPG,AFNE01.JPG,,,,,,,,,0,2,2,1,,,,,,,,,,,,,,,AFNE05.jpg,AFSA17.jpg,AFNE13.jpg,AFSA12.jpg,AFSA17.jpg,FS,4,num_6,32,num_4,0.733463810058,,,2017_Jul_14_1645,60.0108557461,FEMA4ImagesEEG,001,100561,
AFNE01.JPG,AFNE01.JPG,AFNE01.JPG,AFNE01.JPG,AFNE01.JPG,AFNE01.JPG,,,,,,,,,0,3,3,3,,,,,,,,,,,,,,,AFNE18.jpg,AFSA14.jpg,AFNE08.jpg,AFSA18.jpg,AFNE08.jpg,FN,3,num_2,32,num_8,0.883409059839,,,2017_Jul_14_1645,60.0108557461,FEMA4ImagesEEG,001,100561,
AFNE01.JPG,AFNE01.JPG,AFNE01.JPG,AFNE01.JPG,AFNE01.JPG,AFNE01.JPG,,,,,,,,,0,4,4,0,,,,,,,,,,,,,,,AFNE01.jpg,AFSA05.jpg,AFNE16.jpg,AFSA16.jpg,AFNE01.jpg,FN,3,num_8,32,num_2,2.84995211358,,,2017_Jul_14_1645,60.0108557461,FEMA4ImagesEEG,001,100561,
AFNE01.JPG,AFNE01.JPG,AFNE01.JPG,AFNE01.JPG,AFNE01.JPG,AFNE01.JPG,,,,,,,,,0,5,5,9,,,,,,,,,,,,,,,AFNE12.jpg,AFSA16.jpg,AFNE16.jpg,AFSA15.jpg,AFNE12.jpg,FN,3,num_8,16,num_8,2.0166915881,,,2017_Jul_14_1645,60.0108557461,FEMA4ImagesEEG,001,100561,
AFNE01.JPG,AFNE01.JPG,AFNE01.JPG,AFNE01.JPG,AFNE01.JPG,AFNE01.JPG,,,,,,,,,0,6,6,6,,,,,,,,,,,,,,,AFNE15.jpg,AFNE02.jpg,AFSA18.jpg,AFSA20.jpg,AFSA20.jpg,FS,4,num_4,32,num_6,0.600129963364,,,2017_Jul_14_1645,60.0108557461,FEMA4ImagesEEG,001,100561,
AFNE01.JPG,AFNE01.JPG,AFNE01.JPG,AFNE01.JPG,AFNE01.JPG,AFNE01.JPG,,,,,,,,,0,7,7,4,,,,,,,,,,,,,,,AFSA13.jpg,AFSA04.jpg,AFNE02.jpg,AFNE08.jpg,AFSA04.jpg,FS,4,num_6,32,num_4,1.25022050808,,,2017_Jul_14_1645,60.0108557461,FEMA4ImagesEEG,001,100561,
AFNE01.JPG,AFNE01.JPG,AFNE01.JPG,AFNE01.JPG,AFNE01.JPG,AFNE01.JPG,,,,,,,,,0,8,8,2,,,,,,,,,,,,,,,AFSA03.jpg,AFSA15.jpg,AFNE02.jpg,AFNE11.jpg,AFSA15.jpg,FS,4,num_6,16,num_6,0.350198120577,,,2017_Jul_14_1645,60.0108557461,FEMA4ImagesEEG,001,100561,
AFNE01.JPG,AFNE01.JPG,AFNE01.JPG,AFNE01.JPG,AFNE01.JPG,AFNE01.JPG,,,,,,,,,0,9,9,7,,,,,,,,,,,,,,,AFNE19.jpg,AFSA06.jpg,AFNE05.jpg,AFSA11.jpg,AFSA06.jpg,FS,4,num_6,32,num_2,0.633492291672,,,2017_Jul_14_1645,60.0108557461,FEMA4ImagesEEG,001,100561,
AFNE01.JPG,AFNE01.JPG,AFNE01.JPG,AFNE01.JPG,AFNE01.JPG,AFNE01.JPG,,,,,,,,,1,0,10,8,,,,,,,,,,,,,,,AFNE02.jpg,AFSA11.jpg,AFSA08.jpg,AFNE19.jpg,AFSA08.jpg,FS,4,num_2,32,num_6,0.533481001621,,,2017_Jul_14_1645,60.0108557461,FEMA4ImagesEEG,001,100561,
AFNE01.JPG,AFNE01.JPG,AFNE01.JPG,AFNE01.JPG,AFNE01.JPG,AFNE01.JPG,,,,,,,,,1,1,11,3,,,,,,,,,,,,,,,AFNE03.jpg,AFSA08.jpg,AFNE15.jpg,AFSA09.jpg,AFNE03.jpg,FN,3,num_8,32,num_4,1.30007364182,,,2017_Jul_14_1645,60.0108557461,FEMA4ImagesEEG,001,100561,
AFNE01.JPG,AFNE01.JPG,AFNE01.JPG,AFNE01.JPG,AFNE01.JPG,AFNE01.JPG,,,,,,,,,1,2,12,9,,,,,,,,,,,,,,,AFNE02.jpg,AFSA10.jpg,AFNE20.jpg,AFSA01.jpg,AFSA10.jpg,FS,4,num_6,16,num_6,0.650223009987,,,2017_Jul_14_1645,60.0108557461,FEMA4ImagesEEG,001,100561,
AFNE01.JPG,AFNE01.JPG,AFNE01.JPG,AFNE01.JPG,AFNE01.JPG,AFNE01.JPG,,,,,,,,,1,3,13,6,,,,,,,,,,,,,,,AFNE02.jpg,AFSA13.jpg,AFSA20.jpg,AFNE04.jpg,AFNE04.jpg,FN,3,num_4,16,num_4,0.9000990442,,,2017_Jul_14_1645,60.0108557461,FEMA4ImagesEEG,001,100561,
AFNE01.JPG,AFNE01.JPG,AFNE01.JPG,AFNE01.JPG,AFNE01.JPG,AFNE01.JPG,,,,,,,,,1,4,14,2,,,,,,,,,,,,,,,AFSA14.jpg,AFNE08.jpg,AFSA18.jpg,AFNE07.jpg,AFSA14.jpg,FS,4,num_8,32,num_4,0.550106838346,,,2017_Jul_14_1645,60.0108557461,FEMA4ImagesEEG,001,100561,
AFNE01.JPG,AFNE01.JPG,AFNE01.JPG,AFNE01.JPG,AFNE01.JPG,AFNE01.JPG,,,,,,,,,1,5,15,7,,,,,,,,,,,,,,,AFNE10.jpg,AFNE08.jpg,AFSA18.jpg,AFSA12.jpg,AFNE08.jpg,FN,3,num_6,16,num_6,1.18344645784,,,2017_Jul_14_1645,60.0108557461,FEMA4ImagesEEG,001,100561,
AFNE01.JPG,AFNE01.JPG,AFNE01.JPG,AFNE01.JPG,AFNE01.JPG,AFNE01.JPG,,,,,,,,,1,6,16,1,,,,,,,,,,,,,,,AFSA18.jpg,AFNE16.jpg,AFNE06.jpg,AFSA03.jpg,AFNE16.jpg,FN,3,num_6,32,num_8,1.36671907548,,,2017_Jul_14_1645,60.0108557461,FEMA4ImagesEEG,001,100561,
AFNE01.JPG,AFNE01.JPG,AFNE01.JPG,AFNE01.JPG,AFNE01.JPG,AFNE01.JPG,,,,,,,,,1,7,17,5,,,,,,,,,,,,,,,AFSA06.jpg,AFNE20.jpg,AFNE01.jpg,AFSA04.jpg,AFSA04.jpg,FS,4,num_4,32,num_8,0.83322011237,,,2017_Jul_14_1645,60.0108557461,FEMA4ImagesEEG,001,100561,
AFNE01.JPG,AFNE01.JPG,AFNE01.JPG,AFNE01.JPG,AFNE01.JPG,AFNE01.JPG,,,,,,,,,1,8,18,4,,,,,,,,,,,,,,,AFNE06.jpg,AFSA17.jpg,AFSA13.jpg,AFNE04.jpg,AFSA17.jpg,FS,4,num_6,16,num_6,0.816786398645,,,2017_Jul_14_1645,60.0108557461,FEMA4ImagesEEG,001,100561,
AFNE01.JPG,AFNE01.JPG,AFNE01.JPG,AFNE01.JPG,AFNE01.JPG,AFNE01.JPG,,,,,,,,,1,9,19,0,,,,,,,,,,,,,,,AFNE03.jpg,AFSA14.jpg,AFNE09.jpg,AFSA13.jpg,AFNE09.jpg,FN,3,num_2,32,num_8,1.05011261161,,,2017_Jul_14_1645,60.0108557461,FEMA4ImagesEEG,001,100561,
AFNE01.JPG,AFNE01.JPG,AFNE01.JPG,AFNE01.JPG,AFNE01.JPG,AFNE01.JPG,,,,,,,,,2,0,20,0,,,,,,,,,,,,,,,AFNE17.jpg,AFNE06.jpg,AFSA02.jpg,AFSA11.jpg,AFSA02.jpg,FS,4,num_2,32,num_8,0.883738138247,,,2017_Jul_14_1645,60.0108557461,FEMA4ImagesEEG,001,100561,
AFNE01.JPG,AFNE01.JPG,AFNE01.JPG,AFNE01.JPG,AFNE01.JPG,AFNE01.JPG,,,,,,,,,2,1,21,1,,,,,,,,,,,,,,,AFSA20.jpg,AFNE18.jpg,AFSA15.jpg,AFNE06.jpg,AFSA20.jpg,FS,4,num_8,32,num_6,0.483488667291,,,2017_Jul_14_1645,60.0108557461,FEMA4ImagesEEG,001,100561,
AFNE01.JPG,AFNE01.JPG,AFNE01.JPG,AFNE01.JPG,AFNE01.JPG,AFNE01.JPG,,,,,,,,,2,2,22,3,,,,,,,,,,,,,,,AFSA16.jpg,AFNE06.jpg,AFNE17.jpg,AFSA09.jpg,AFNE06.jpg,FN,3,num_6,32,num_8,0.43346971157,,,2017_Jul_14_1645,60.0108557461,FEMA4ImagesEEG,001,100561,
AFNE01.JPG,AFNE01.JPG,AFNE01.JPG,AFNE01.JPG,AFNE01.JPG,AFNE01.JPG,,,,,,,,,2,3,23,6,,,,,,,,,,,,,,,AFNE07.jpg,AFSA04.jpg,AFSA08.jpg,AFNE08.jpg,AFSA08.jpg,FS,4,num_2,32,num_6,0.416817253688,,,2017_Jul_14_1645,60.0108557461,FEMA4ImagesEEG,001,100561,
AFNE01.JPG,AFNE01.JPG,AFNE01.JPG,AFNE01.JPG,AFNE01.JPG,AFNE01.JPG,,,,,,,,,2,4,24,7,,,,,,,,,,,,,,,AFNE07.jpg,AFNE03.jpg,AFSA04.jpg,AFSA10.jpg,AFSA10.jpg,FS,4,num_4,32,num_6,0.500191160711,,,2017_Jul_14_1645,60.0108557461,FEMA4ImagesEEG,001,100561,
AFNE01.JPG,AFNE01.JPG,AFNE01.JPG,AFNE01.JPG,AFNE01.JPG,AFNE01.JPG,,,,,,,,,2,5,25,9,,,,,,,,,,,,,,,AFSA14.jpg,AFNE13.jpg,AFNE20.jpg,AFSA10.jpg,AFSA10.jpg,FS,4,num_4,32,num_6,0.550121271284,,,2017_Jul_14_1645,60.0108557461,FEMA4ImagesEEG,001,100561,
AFNE01.JPG,AFNE01.JPG,AFNE01.JPG,AFNE01.JPG,AFNE01.JPG,AFNE01.JPG,,,,,,,,,2,6,26,8,,,,,,,,,,,,,,,AFSA20.jpg,AFSA06.jpg,AFNE08.jpg,AFNE19.jpg,AFSA20.jpg,FS,4,num_8,16,num_8,0.833458100911,,,2017_Jul_14_1645,60.0108557461,FEMA4ImagesEEG,001,100561,
AFNE01.JPG,AFNE01.JPG,AFNE01.JPG,AFNE01.JPG,AFNE01.JPG,AFNE01.JPG,,,,,,,,,2,7,27,2,,,,,,,,,,,,,,,AFSA01.jpg,AFNE13.jpg,AFSA17.jpg,AFNE07.jpg,AFNE13.jpg,FN,3,num_6,16,num_6,0.716794352978,,,2017_Jul_14_1645,60.0108557461,FEMA4ImagesEEG,001,100561,
AFNE01.JPG,AFNE01.JPG,AFNE01.JPG,AFNE01.JPG,AFNE01.JPG,AFNE01.JPG,,,,,,,,,2,8,28,4,,,,,,,,,,,,,,,AFNE06.jpg,AFNE11.jpg,AFSA08.jpg,AFSA12.jpg,AFNE06.jpg,FN,3,num_8,16,num_8,0.900101289386,,,2017_Jul_14_1645,60.0108557461,FEMA4ImagesEEG,001,100561,
AFNE01.JPG,AFNE01.JPG,AFNE01.JPG,AFNE01.JPG,AFNE01.JPG,AFNE01.JPG,,,,,,,,,2,9,29,5,,,,,,,,,,,,,,,AFSA13.jpg,AFNE18.jpg,AFNE14.jpg,AFSA14.jpg,AFNE14.jpg,FN,3,num_2,32,num_6,0.500171916327,,,2017_Jul_14_1645,60.0108557461,FEMA4ImagesEEG,001,100561,
AFNE01.JPG,AFNE01.JPG,AFNE01.JPG,AFNE01.JPG,AFNE01.JPG,AFNE01.JPG,,,,,,,,,3,0,30,7,,,,,,,,,,,,,,,AFSA14.jpg,AFNE06.jpg,AFNE02.jpg,AFSA02.jpg,AFSA02.jpg,FS,4,num_4,16,num_4,0.550144364592,,,2017_Jul_14_1645,60.0108557461,FEMA4ImagesEEG,001,100561,
AFNE01.JPG,AFNE01.JPG,AFNE01.JPG,AFNE01.JPG,AFNE01.JPG,AFNE01.JPG,,,,,,,,,3,1,31,6,,,,,,,,,,,,,,,AFNE20.jpg,AFNE14.jpg,AFSA19.jpg,AFSA18.jpg,AFSA18.jpg,FS,4,num_4,16,num_4,0.533518207259,,,2017_Jul_14_1645,60.0108557461,FEMA4ImagesEEG,001,100561,
AFNE01.JPG,AFNE01.JPG,AFNE01.JPG,AFNE01.JPG,AFNE01.JPG,AFNE01.JPG,,,,,,,,,3,2,32,8,,,,,,,,,,,,,,,AFNE08.jpg,AFSA19.jpg,AFNE04.jpg,AFSA14.jpg,AFSA14.jpg,FS,4,num_4,32,num_6,0.96699978644,,,2017_Jul_14_1645,60.0108557461,FEMA4ImagesEEG,001,100561,
AFNE01.JPG,AFNE01.JPG,AFNE01.JPG,AFNE01.JPG,AFNE01.JPG,AFNE01.JPG,,,,,,,,,3,3,33,4,,,,,,,,,,,,,,,AFNE17.jpg,AFSA11.jpg,AFSA20.jpg,AFNE09.jpg,AFNE17.jpg,FN,3,num_8,16,num_8,0.800089037046,,,2017_Jul_14_1645,60.0108557461,FEMA4ImagesEEG,001,100561,
AFNE01.JPG,AFNE01.JPG,AFNE01.JPG,AFNE01.JPG,AFNE01.JPG,AFNE01.JPG,,,,,,,,,3,4,34,3,,,,,,,,,,,,,,,AFNE06.jpg,AFSA09.jpg,AFSA13.jpg,AFNE13.jpg,AFNE06.jpg,FN,3,num_8,32,num_4,1.00014593638,,,2017_Jul_14_1645,60.0108557461,FEMA4ImagesEEG,001,100561,
AFNE01.JPG,AFNE01.JPG,AFNE01.JPG,AFNE01.JPG,AFNE01.JPG,AFNE01.JPG,,,,,,,,,3,5,35,5,,,,,,,,,,,,,,,AFSA17.jpg,AFNE16.jpg,AFNE08.jpg,AFSA12.jpg,AFNE16.jpg,FN,3,num_6,32,num_4,0.716656114208,,,2017_Jul_14_1645,60.0108557461,FEMA4ImagesEEG,001,100561,
AFNE01.JPG,AFNE01.JPG,AFNE01.JPG,AFNE01.JPG,AFNE01.JPG,AFNE01.JPG,,,,,,,,,3,6,36,9,,,,,,,,,,,,,,,AFNE09.jpg,AFNE20.jpg,AFSA01.jpg,AFSA11.jpg,AFSA11.jpg,FS,4,num_4,32,num_8,0.68347628694,,,2017_Jul_14_1645,60.0108557461,FEMA4ImagesEEG,001,100561,
AFNE01.JPG,AFNE01.JPG,AFNE01.JPG,AFNE01.JPG,AFNE01.JPG,AFNE01.JPG,,,,,,,,,3,7,37,2,,,,,,,,,,,,,,,AFSA15.jpg,AFNE17.jpg,AFNE14.jpg,AFSA03.jpg,AFNE17.jpg,FN,3,num_6,16,num_6,0.583552558674,,,2017_Jul_14_1645,60.0108557461,FEMA4ImagesEEG,001,100561,
AFNE01.JPG,AFNE01.JPG,AFNE01.JPG,AFNE01.JPG,AFNE01.JPG,AFNE01.JPG,,,,,,,,,3,8,38,1,,,,,,,,,,,,,,,AFNE10.jpg,AFSA01.jpg,AFNE18.jpg,AFSA19.jpg,AFSA19.jpg,FS,4,num_4,16,num_4,0.916865043808,,,2017_Jul_14_1645,60.0108557461,FEMA4ImagesEEG,001,100561,
AFNE01.JPG,AFNE01.JPG,AFNE01.JPG,AFNE01.JPG,AFNE01.JPG,AFNE01.JPG,,,,,,,,,3,9,39,0,,,,,,,,,,,,,,,AFSA06.jpg,AFNE17.jpg,AFSA16.jpg,AFNE07.jpg,AFSA16.jpg,FS,4,num_2,32,num_4,1.0000513182,,,2017_Jul_14_1645,60.0108557461,FEMA4ImagesEEG,001,100561,
AFNE01.JPG,AFNE01.JPG,AFNE01.JPG,AFNE01.JPG,AFNE01.JPG,AFNE01.JPG,,,,,,,,,4,0,40,2,,,,,,,,,,,,,,,AFNE13.jpg,AFSA01.jpg,AFNE15.jpg,AFSA11.jpg,AFSA11.jpg,FS,4,num_4,32,num_6,0.683637618553,,,2017_Jul_14_1645,60.0108557461,FEMA4ImagesEEG,001,100561,
AFNE01.JPG,AFNE01.JPG,AFNE01.JPG,AFNE01.JPG,AFNE01.JPG,AFNE01.JPG,,,,,,,,,4,1,41,5,,,,,,,,,,,,,,,AFSA16.jpg,AFNE11.jpg,AFSA12.jpg,AFNE06.jpg,AFNE06.jpg,FN,3,num_4,32,num_8,0.853828567313,,,2017_Jul_14_1645,60.0108557461,FEMA4ImagesEEG,001,100561,
AFNE01.JPG,AFNE01.JPG,AFNE01.JPG,AFNE01.JPG,AFNE01.JPG,AFNE01.JPG,,,,,,,,,4,2,42,0,,,,,,,,,,,,,,,AFNE07.jpg,AFSA16.jpg,AFNE11.jpg,AFSA17.jpg,AFSA17.jpg,FS,4,num_4,32,num_2,1.60013220855,,,2017_Jul_14_1645,60.0108557461,FEMA4ImagesEEG,001,100561,
AFNE01.JPG,AFNE01.JPG,AFNE01.JPG,AFNE01.JPG,AFNE01.JPG,AFNE01.JPG,,,,,,,,,4,3,43,4,,,,,,,,,,,,,,,AFNE14.jpg,AFSA03.jpg,AFSA06.jpg,AFNE03.jpg,AFSA03.jpg,FS,4,num_6,16,num_6,0.916868251283,,,2017_Jul_14_1645,60.0108557461,FEMA4ImagesEEG,001,100561,
AFNE01.JPG,AFNE01.JPG,AFNE01.JPG,AFNE01.JPG,AFNE01.JPG,AFNE01.JPG,,,,,,,,,4,4,44,9,,,,,,,,,,,,,,,AFSA10.jpg,AFNE13.jpg,AFNE18.jpg,AFSA12.jpg,AFNE13.jpg,FN,3,num_6,32,num_2,0.916780368891,,,2017_Jul_14_1645,60.0108557461,FEMA4ImagesEEG,001,100561,
AFNE01.JPG,AFNE01.JPG,AFNE01.JPG,AFNE01.JPG,AFNE01.JPG,AFNE01.JPG,,,,,,,,,4,5,45,3,,,,,,,,,,,,,,,AFSA03.jpg,AFNE08.jpg,AFSA18.jpg,AFNE04.jpg,AFNE04.jpg,FN,3,num_4,32,num_6,0.633454444585,,,2017_Jul_14_1645,60.0108557461,FEMA4ImagesEEG,001,100561,
AFNE01.JPG,AFNE01.JPG,AFNE01.JPG,AFNE01.JPG,AFNE01.JPG,AFNE01.JPG,,,,,,,,,4,6,46,1,,,,,,,,,,,,,,,AFSA14.jpg,AFNE11.jpg,AFNE15.jpg,AFSA10.jpg,AFSA14.jpg,FS,4,num_8,16,num_8,0.450263936305,,,2017_Jul_14_1645,60.0108557461,FEMA4ImagesEEG,001,100561,
AFNE01.JPG,AFNE01.JPG,AFNE01.JPG,AFNE01.JPG,AFNE01.JPG,AFNE01.JPG,,,,,,,,,4,7,47,7,,,,,,,,,,,,,,,AFNE18.jpg,AFSA19.jpg,AFNE06.jpg,AFSA14.jpg,AFSA14.jpg,FS,4,num_4,32,num_6,0.733454508474,,,2017_Jul_14_1645,60.0108557461,FEMA4ImagesEEG,001,100561,
AFNE01.JPG,AFNE01.JPG,AFNE01.JPG,AFNE01.JPG,AFNE01.JPG,AFNE01.JPG,,,,,,,,,4,8,48,6,,,,,,,,,,,,,,,AFNE16.jpg,AFSA20.jpg,AFSA16.jpg,AFNE11.jpg,AFSA20.jpg,FS,4,num_6,16,num_6,0.535449057352,,,2017_Jul_14_1645,60.0108557461,FEMA4ImagesEEG,001,100561,
AFNE01.JPG,AFNE01.JPG,AFNE01.JPG,AFNE01.JPG,AFNE01.JPG,AFNE01.JPG,,,,,,,,,4,9,49,8,,,,,,,,,,,,,,,AFNE05.jpg,AFSA02.jpg,AFSA15.jpg,AFNE04.jpg,AFSA15.jpg,FS,4,num_2,32,num_8,0.983446971281,,,2017_Jul_14_1645,60.0108557461,FEMA4ImagesEEG,001,100561,
AFNE01.JPG,AFNE01.JPG,AFNE01.JPG,AFNE01.JPG,AFNE01.JPG,AFNE01.JPG,,,,,,,,,5,0,50,5,,,,,,,,,,,,,,,AFSA10.jpg,AFNE06.jpg,AFNE04.jpg,AFSA18.jpg,AFNE04.jpg,FN,3,num_2,32,num_8,1.06678623823,,,2017_Jul_14_1645,60.0108557461,FEMA4ImagesEEG,001,100561,
AFNE01.JPG,AFNE01.JPG,AFNE01.JPG,AFNE01.JPG,AFNE01.JPG,AFNE01.JPG,,,,,,,,,5,1,51,9,,,,,,,,,,,,,,,AFSA08.jpg,AFSA14.jpg,AFNE04.jpg,AFNE09.jpg,AFSA14.jpg,FS,4,num_6,32,num_2,0.416829121066,,,2017_Jul_14_1645,60.0108557461,FEMA4ImagesEEG,001,100561,
AFNE01.JPG,AFNE01.JPG,AFNE01.JPG,AFNE01.JPG,AFNE01.JPG,AFNE01.JPG,,,,,,,,,5,2,52,0,,,,,,,,,,,,,,,AFNE02.jpg,AFSA08.jpg,AFSA07.jpg,AFNE15.jpg,AFSA08.jpg,FS,4,num_6,16,num_6,0.300068189157,,,2017_Jul_14_1645,60.0108557461,FEMA4ImagesEEG,001,100561,
AFNE01.JPG,AFNE01.JPG,AFNE01.JPG,AFNE01.JPG,AFNE01.JPG,AFNE01.JPG,,,,,,,,,5,3,53,8,,,,,,,,,,,,,,,AFNE12.jpg,AFSA03.jpg,AFNE20.jpg,AFSA17.jpg,AFNE12.jpg,FN,3,num_8,32,num_4,0.866775204893,,,2017_Jul_14_1645,60.0108557461,FEMA4ImagesEEG,001,100561,
AFNE01.JPG,AFNE01.JPG,AFNE01.JPG,AFNE01.JPG,AFNE01.JPG,AFNE01.JPG,,,,,,,,,5,4,54,6,,,,,,,,,,,,,,,AFNE06.jpg,AFNE20.jpg,AFSA18.jpg,AFSA19.jpg,AFNE06.jpg,FN,3,num_8,32,num_6,0.850111200241,,,2017_Jul_14_1645,60.0108557461,FEMA4ImagesEEG,001,100561,
AFNE01.JPG,AFNE01.JPG,AFNE01.JPG,AFNE01.JPG,AFNE01.JPG,AFNE01.JPG,,,,,,,,,5,5,55,3,,,,,,,,,,,,,,,AFNE02.jpg,AFNE12.jpg,AFSA01.jpg,AFSA16.jpg,AFNE12.jpg,FN,3,num_6,16,num_6,0.616801665863,,,2017_Jul_14_1645,60.0108557461,FEMA4ImagesEEG,001,100561,
AFNE01.JPG,AFNE01.JPG,AFNE01.JPG,AFNE01.JPG,AFNE01.JPG,AFNE01.JPG,,,,,,,,,5,6,56,4,,,,,,,,,,,,,,,AFNE12.jpg,AFSA15.jpg,AFNE10.jpg,AFSA09.jpg,AFSA15.jpg,FS,4,num_6,16,num_6,0.616754838033,,,2017_Jul_14_1645,60.0108557461,FEMA4ImagesEEG,001,100561,
AFNE01.JPG,AFNE01.JPG,AFNE01.JPG,AFNE01.JPG,AFNE01.JPG,AFNE01.JPG,,,,,,,,,5,7,57,1,,,,,,,,,,,,,,,AFSA03.jpg,AFSA17.jpg,AFNE17.jpg,AFNE13.jpg,AFSA03.jpg,FS,4,num_8,32,num_4,1.06673299568,,,2017_Jul_14_1645,60.0108557461,FEMA4ImagesEEG,001,100561,
AFNE01.JPG,AFNE01.JPG,AFNE01.JPG,AFNE01.JPG,AFNE01.JPG,AFNE01.JPG,,,,,,,,,5,8,58,2,,,,,,,,,,,,,,,AFSA04.jpg,AFSA09.jpg,AFNE15.jpg,AFNE14.jpg,AFSA09.jpg,FS,4,num_6,16,num_6,1.23339420953,,,2017_Jul_14_1645,60.0108557461,FEMA4ImagesEEG,001,100561,
AFNE01.JPG,AFNE01.JPG,AFNE01.JPG,AFNE01.JPG,AFNE01.JPG,AFNE01.JPG,,,,,,,,,5,9,59,7,,,,,,,,,,,,,,,AFNE02.jpg,AFSA18.jpg,AFNE15.jpg,AFSA07.jpg,AFNE15.jpg,FN,3,num_2,32,num_8,0.8501435949,,,2017_Jul_14_1645,60.0108557461,FEMA4ImagesEEG,001,100561,
,,,,,,,,,,,,,,,,,,,,,,,,,,,,,,,,,,,,,,,,,,,space,29.7641620785,2017_Jul_14_1645,60.0108557461,FEMA4ImagesEEG,001,100561,
AFNE01.JPG,AFNE01.JPG,AFNE01.JPG,AFNE01.JPG,AFNE01.JPG,AFNE01.JPG,,,,,,,,,,,,,0,0,0,8,,,,,,,,,,,AMNE12.jpg,AMSA02.jpg,AMNE01.jpg,AMSA04.jpg,AMNE12.jpg,MN,1,num_8,16,num_8,0.600147925084,,,2017_Jul_14_1645,60.0108557461,FEMA4ImagesEEG,001,100561,
AFNE01.JPG,AFNE01.JPG,AFNE01.JPG,AFNE01.JPG,AFNE01.JPG,AFNE01.JPG,,,,,,,,,,,,,0,1,1,7,,,,,,,,,,,AMSA16.jpg,AMSA05.jpg,AMNE19.jpg,AMNE12.jpg,AMNE19.jpg,MN,1,num_2,32,num_8,0.850124029908,,,2017_Jul_14_1645,60.0108557461,FEMA4ImagesEEG,001,100561,
AFNE01.JPG,AFNE01.JPG,AFNE01.JPG,AFNE01.JPG,AFNE01.JPG,AFNE01.JPG,,,,,,,,,,,,,0,2,2,6,,,,,,,,,,,AMSA06.jpg,AMSA02.jpg,AMNE13.jpg,AMNE07.jpg,AMNE13.jpg,MN,1,num_2,32,num_4,0.783054258209,,,2017_Jul_14_1645,60.0108557461,FEMA4ImagesEEG,001,100561,
AFNE01.JPG,AFNE01.JPG,AFNE01.JPG,AFNE01.JPG,AFNE01.JPG,AFNE01.JPG,,,,,,,,,,,,,0,3,3,3,,,,,,,,,,,AMNE14.jpg,AMSA12.jpg,AMSA20.jpg,AMNE15.jpg,AMSA12.jpg,MS,2,num_6,16,num_6,0.466794192558,,,2017_Jul_14_1645,60.0108557461,FEMA4ImagesEEG,001,100561,
AFNE01.JPG,AFNE01.JPG,AFNE01.JPG,AFNE01.JPG,AFNE01.JPG,AFNE01.JPG,,,,,,,,,,,,,0,4,4,9,,,,,,,,,,,AMSA11.jpg,AMSA09.jpg,AMNE14.jpg,AMNE18.jpg,AMNE18.jpg,MN,1,num_4,32,num_2,0.950109660858,,,2017_Jul_14_1645,60.0108557461,FEMA4ImagesEEG,001,100561,
AFNE01.JPG,AFNE01.JPG,AFNE01.JPG,AFNE01.JPG,AFNE01.JPG,AFNE01.JPG,,,,,,,,,,,,,0,5,5,1,,,,,,,,,,,AMNE02.jpg,AMSA03.jpg,AMSA11.jpg,AMNE16.jpg,AMSA11.jpg,MS,2,num_2,32,num_6,0.800125601469,,,2017_Jul_14_1645,60.0108557461,FEMA4ImagesEEG,001,100561,
AFNE01.JPG,AFNE01.JPG,AFNE01.JPG,AFNE01.JPG,AFNE01.JPG,AFNE01.JPG,,,,,,,,,,,,,0,6,6,0,,,,,,,,,,,AMNE06.jpg,AMNE16.jpg,AMSA03.jpg,AMSA06.jpg,AMNE06.jpg,MN,1,num_8,16,num_8,0.750119154807,,,2017_Jul_14_1645,60.0108557461,FEMA4ImagesEEG,001,100561,
AFNE01.JPG,AFNE01.JPG,AFNE01.JPG,AFNE01.JPG,AFNE01.JPG,AFNE01.JPG,,,,,,,,,,,,,0,7,7,5,,,,,,,,,,,AMNE17.jpg,AMNE09.jpg,AMSA02.jpg,AMSA06.jpg,AMSA06.jpg,MS,2,num_4,32,num_8,0.966739025433,,,2017_Jul_14_1645,60.0108557461,FEMA4ImagesEEG,001,100561,
AFNE01.JPG,AFNE01.JPG,AFNE01.JPG,AFNE01.JPG,AFNE01.JPG,AFNE01.JPG,,,,,,,,,,,,,0,8,8,4,,,,,,,,,,,AMNE02.jpg,AMNE16.jpg,AMSA15.jpg,AMSA02.jpg,AMNE16.jpg,MN,1,num_6,16,num_6,0.616504982114,,,2017_Jul_14_1645,60.0108557461,FEMA4ImagesEEG,001,100561,
AFNE01.JPG,AFNE01.JPG,AFNE01.JPG,AFNE01.JPG,AFNE01.JPG,AFNE01.JPG,,,,,,,,,,,,,0,9,9,2,,,,,,,,,,,AMNE03.jpg,AMSA14.jpg,AMSA16.jpg,AMNE11.jpg,AMNE11.jpg,MN,1,num_4,32,num_8,1.11684272042,,,2017_Jul_14_1645,60.0108557461,FEMA4ImagesEEG,001,100561,
AFNE01.JPG,AFNE01.JPG,AFNE01.JPG,AFNE01.JPG,AFNE01.JPG,AFNE01.JPG,,,,,,,,,,,,,1,0,10,0,,,,,,,,,,,AMNE01.jpg,AMSA03.jpg,AMNE09.jpg,AMSA10.jpg,AMNE09.jpg,MN,1,num_2,32,num_6,0.433435071958,,,2017_Jul_14_1645,60.0108557461,FEMA4ImagesEEG,001,100561,
AFNE01.JPG,AFNE01.JPG,AFNE01.JPG,AFNE01.JPG,AFNE01.JPG,AFNE01.JPG,,,,,,,,,,,,,1,1,11,2,,,,,,,,,,,AMNE17.jpg,AMSA20.jpg,AMNE05.jpg,AMSA19.jpg,AMNE17.jpg,MN,1,num_8,32,num_4,0.783523178892,,,2017_Jul_14_1645,60.0108557461,FEMA4ImagesEEG,001,100561,
AFNE01.JPG,AFNE01.JPG,AFNE01.JPG,AFNE01.JPG,AFNE01.JPG,AFNE01.JPG,,,,,,,,,,,,,1,2,12,6,,,,,,,,,,,AMSA05.jpg,AMNE08.jpg,AMSA12.jpg,AMNE04.jpg,AMNE04.jpg,MN,1,num_4,32,num_8,0.750131021952,,,2017_Jul_14_1645,60.0108557461,FEMA4ImagesEEG,001,100561,
AFNE01.JPG,AFNE01.JPG,AFNE01.JPG,AFNE01.JPG,AFNE01.JPG,AFNE01.JPG,,,,,,,,,,,,,1,3,13,7,,,,,,,,,,,AMNE08.jpg,AMSA08.jpg,AMNE20.jpg,AMSA06.jpg,AMSA06.jpg,MS,2,num_4,32,num_8,0.7167924284,,,2017_Jul_14_1645,60.0108557461,FEMA4ImagesEEG,001,100561,
AFNE01.JPG,AFNE01.JPG,AFNE01.JPG,AFNE01.JPG,AFNE01.JPG,AFNE01.JPG,,,,,,,,,,,,,1,4,14,3,,,,,,,,,,,AMNE11.jpg,AMSA18.jpg,AMSA14.jpg,AMNE03.jpg,AMSA18.jpg,MS,2,num_6,16,num_6,0.616789798485,,,2017_Jul_14_1645,60.0108557461,FEMA4ImagesEEG,001,100561,
AFNE01.JPG,AFNE01.JPG,AFNE01.JPG,AFNE01.JPG,AFNE01.JPG,AFNE01.JPG,,,,,,,,,,,,,1,5,15,8,,,,,,,,,,,AMNE08.jpg,AMSA13.jpg,AMSA15.jpg,AMNE14.jpg,AMNE14.jpg,MN,1,num_4,16,num_4,1.21671673399,,,2017_Jul_14_1645,60.0108557461,FEMA4ImagesEEG,001,100561,
AFNE01.JPG,AFNE01.JPG,AFNE01.JPG,AFNE01.JPG,AFNE01.JPG,AFNE01.JPG,,,,,,,,,,,,,1,6,16,5,,,,,,,,,,,AMSA12.jpg,AMNE03.jpg,AMNE13.jpg,AMSA15.jpg,AMNE03.jpg,MN,1,num_6,32,num_8,0.983509515412,,,2017_Jul_14_1645,60.0108557461,FEMA4ImagesEEG,001,100561,
AFNE01.JPG,AFNE01.JPG,AFNE01.JPG,AFNE01.JPG,AFNE01.JPG,AFNE01.JPG,,,,,,,,,,,,,1,7,17,4,,,,,,,,,,,AMSA20.jpg,AMSA17.jpg,AMNE19.jpg,AMNE02.jpg,AMNE02.jpg,MN,1,num_4,32,num_8,0.750152832363,,,2017_Jul_14_1645,60.0108557461,FEMA4ImagesEEG,001,100561,
AFNE01.JPG,AFNE01.JPG,AFNE01.JPG,AFNE01.JPG,AFNE01.JPG,AFNE01.JPG,,,,,,,,,,,,,1,8,18,1,,,,,,,,,,,AMNE12.jpg,AMSA19.jpg,AMSA20.jpg,AMNE08.jpg,AMNE08.jpg,MN,1,num_4,32,num_6,0.883489886066,,,2017_Jul_14_1645,60.0108557461,FEMA4ImagesEEG,001,100561,
AFNE01.JPG,AFNE01.JPG,AFNE01.JPG,AFNE01.JPG,AFNE01.JPG,AFNE01.JPG,,,,,,,,,,,,,1,9,19,9,,,,,,,,,,,AMNE07.jpg,AMNE14.jpg,AMSA17.jpg,AMSA11.jpg,AMSA11.jpg,MS,2,num_4,16,num_4,0.783452936914,,,2017_Jul_14_1645,60.0108557461,FEMA4ImagesEEG,001,100561,
AFNE01.JPG,AFNE01.JPG,AFNE01.JPG,AFNE01.JPG,AFNE01.JPG,AFNE01.JPG,,,,,,,,,,,,,2,0,20,5,,,,,,,,,,,AMNE09.jpg,AMNE05.jpg,AMSA18.jpg,AMSA14.jpg,AMNE09.jpg,MN,1,num_8,16,num_8,0.833448478719,,,2017_Jul_14_1645,60.0108557461,FEMA4ImagesEEG,001,100561,
AFNE01.JPG,AFNE01.JPG,AFNE01.JPG,AFNE01.JPG,AFNE01.JPG,AFNE01.JPG,,,,,,,,,,,,,2,1,21,3,,,,,,,,,,,AMSA16.jpg,AMNE10.jpg,AMSA12.jpg,AMNE07.jpg,AMSA16.jpg,MS,2,num_8,16,num_8,0.85015995265,,,2017_Jul_14_1645,60.0108557461,FEMA4ImagesEEG,001,100561,
AFNE01.JPG,AFNE01.JPG,AFNE01.JPG,AFNE01.JPG,AFNE01.JPG,AFNE01.JPG,,,,,,,,,,,,,2,2,22,6,,,,,,,,,,,AMSA20.jpg,AMSA14.jpg,AMNE02.jpg,AMNE03.jpg,AMNE03.jpg,MN,1,num_4,32,num_2,1.36729672668,,,2017_Jul_14_1645,60.0108557461,FEMA4ImagesEEG,001,100561,
AFNE01.JPG,AFNE01.JPG,AFNE01.JPG,AFNE01.JPG,AFNE01.JPG,AFNE01.JPG,,,,,,,,,,,,,2,3,23,9,,,,,,,,,,,AMSA19.jpg,AMNE02.jpg,AMNE01.jpg,AMSA14.jpg,AMSA14.jpg,MS,2,num_4,16,num_4,0.550136025529,,,2017_Jul_14_1645,60.0108557461,FEMA4ImagesEEG,001,100561,
AFNE01.JPG,AFNE01.JPG,AFNE01.JPG,AFNE01.JPG,AFNE01.JPG,AFNE01.JPG,,,,,,,,,,,,,2,4,24,4,,,,,,,,,,,AMNE20.jpg,AMSA05.jpg,AMNE12.jpg,AMSA19.jpg,AMSA19.jpg,MS,2,num_4,32,num_8,0.950123452349,,,2017_Jul_14_1645,60.0108557461,FEMA4ImagesEEG,001,100561,
AFNE01.JPG,AFNE01.JPG,AFNE01.JPG,AFNE01.JPG,AFNE01.JPG,AFNE01.JPG,,,,,,,,,,,,,2,5,25,1,,,,,,,,,,,AMSA16.jpg,AMNE14.jpg,AMSA10.jpg,AMNE09.jpg,AMNE09.jpg,MN,1,num_4,32,num_8,0.850142953452,,,2017_Jul_14_1645,60.0108557461,FEMA4ImagesEEG,001,100561,
AFNE01.JPG,AFNE01.JPG,AFNE01.JPG,AFNE01.JPG,AFNE01.JPG,AFNE01.JPG,,,,,,,,,,,,,2,6,26,0,,,,,,,,,,,AMNE17.jpg,AMSA16.jpg,AMSA13.jpg,AMNE09.jpg,AMSA16.jpg,MS,2,num_6,16,num_6,0.766761349048,,,2017_Jul_14_1645,60.0108557461,FEMA4ImagesEEG,001,100561,
AFNE01.JPG,AFNE01.JPG,AFNE01.JPG,AFNE01.JPG,AFNE01.JPG,AFNE01.JPG,,,,,,,,,,,,,2,7,27,7,,,,,,,,,,,AMSA04.jpg,AMNE09.jpg,AMSA15.jpg,AMNE14.jpg,AMNE09.jpg,MN,1,num_6,16,num_6,0.900135287782,,,2017_Jul_14_1645,60.0108557461,FEMA4ImagesEEG,001,100561,
AFNE01.JPG,AFNE01.JPG,AFNE01.JPG,AFNE01.JPG,AFNE01.JPG,AFNE01.JPG,,,,,,,,,,,,,2,8,28,2,,,,,,,,,,,AMNE16.jpg,AMNE11.jpg,AMSA17.jpg,AMSA02.jpg,AMSA17.jpg,MS,2,num_2,16,num_2,1.38339558896,,,2017_Jul_14_1645,60.0108557461,FEMA4ImagesEEG,001,100561,
AFNE01.JPG,AFNE01.JPG,AFNE01.JPG,AFNE01.JPG,AFNE01.JPG,AFNE01.JPG,,,,,,,,,,,,,2,9,29,8,,,,,,,,,,,AMSA04.jpg,AMSA11.jpg,AMNE08.jpg,AMNE20.jpg,AMNE08.jpg,MN,1,num_2,32,num_4,0.983542230679,,,2017_Jul_14_1645,60.0108557461,FEMA4ImagesEEG,001,100561,
AFNE01.JPG,AFNE01.JPG,AFNE01.JPG,AFNE01.JPG,AFNE01.JPG,AFNE01.JPG,,,,,,,,,,,,,3,0,30,6,,,,,,,,,,,AMNE15.jpg,AMSA09.jpg,AMNE13.jpg,AMSA12.jpg,AMNE13.jpg,MN,1,num_2,16,num_2,1.03342807968,,,2017_Jul_14_1645,60.0108557461,FEMA4ImagesEEG,001,100561,
AFNE01.JPG,AFNE01.JPG,AFNE01.JPG,AFNE01.JPG,AFNE01.JPG,AFNE01.JPG,,,,,,,,,,,,,3,1,31,7,,,,,,,,,,,AMNE04.jpg,AMSA14.jpg,AMNE18.jpg,AMSA01.jpg,AMSA01.jpg,MS,2,num_4,32,num_8,0.950101642404,,,2017_Jul_14_1645,60.0108557461,FEMA4ImagesEEG,001,100561,
AFNE01.JPG,AFNE01.JPG,AFNE01.JPG,AFNE01.JPG,AFNE01.JPG,AFNE01.JPG,,,,,,,,,,,,,3,2,32,9,,,,,,,,,,,AMNE09.jpg,AMSA04.jpg,AMNE11.jpg,AMSA13.jpg,AMSA13.jpg,MS,2,num_4,16,num_4,1.10015882994,,,2017_Jul_14_1645,60.0108557461,FEMA4ImagesEEG,001,100561,
AFNE01.JPG,AFNE01.JPG,AFNE01.JPG,AFNE01.JPG,AFNE01.JPG,AFNE01.JPG,,,,,,,,,,,,,3,3,33,0,,,,,,,,,,,AMSA01.jpg,AMSA09.jpg,AMNE14.jpg,AMNE13.jpg,AMSA09.jpg,MS,2,num_6,16,num_6,1.10013894411,,,2017_Jul_14_1645,60.0108557461,FEMA4ImagesEEG,001,100561,
AFNE01.JPG,AFNE01.JPG,AFNE01.JPG,AFNE01.JPG,AFNE01.JPG,AFNE01.JPG,,,,,,,,,,,,,3,4,34,1,,,,,,,,,,,AMSA09.jpg,AMNE13.jpg,AMNE10.jpg,AMSA20.jpg,AMNE13.jpg,MN,1,num_6,16,num_6,0.74960340606,,,2017_Jul_14_1645,60.0108557461,FEMA4ImagesEEG,001,100561,
AFNE01.JPG,AFNE01.JPG,AFNE01.JPG,AFNE01.JPG,AFNE01.JPG,AFNE01.JPG,,,,,,,,,,,,,3,5,35,8,,,,,,,,,,,AMNE20.jpg,AMSA05.jpg,AMNE18.jpg,AMSA19.jpg,AMSA19.jpg,MS,2,num_4,32,num_6,0.750170152169,,,2017_Jul_14_1645,60.0108557461,FEMA4ImagesEEG,001,100561,
AFNE01.JPG,AFNE01.JPG,AFNE01.JPG,AFNE01.JPG,AFNE01.JPG,AFNE01.JPG,,,,,,,,,,,,,3,6,36,4,,,,,,,,,,,AMNE10.jpg,AMSA15.jpg,AMSA17.jpg,AMNE09.jpg,AMNE10.jpg,MN,1,num_8,32,num_4,1.11676221481,,,2017_Jul_14_1645,60.0108557461,FEMA4ImagesEEG,001,100561,
AFNE01.JPG,AFNE01.JPG,AFNE01.JPG,AFNE01.JPG,AFNE01.JPG,AFNE01.JPG,,,,,,,,,,,,,3,7,37,5,,,,,,,,,,,AMSA01.jpg,AMNE09.jpg,AMNE04.jpg,AMSA08.jpg,AMSA08.jpg,MS,2,num_4,32,num_8,0.416787424823,,,2017_Jul_14_1645,60.0108557461,FEMA4ImagesEEG,001,100561,
AFNE01.JPG,AFNE01.JPG,AFNE01.JPG,AFNE01.JPG,AFNE01.JPG,AFNE01.JPG,,,,,,,,,,,,,3,8,38,3,,,,,,,,,,,AMNE12.jpg,AMNE05.jpg,AMSA07.jpg,AMSA05.jpg,AMSA07.jpg,MS,2,num_2,16,num_2,1.18344998616,,,2017_Jul_14_1645,60.0108557461,FEMA4ImagesEEG,001,100561,
AFNE01.JPG,AFNE01.JPG,AFNE01.JPG,AFNE01.JPG,AFNE01.JPG,AFNE01.JPG,,,,,,,,,,,,,3,9,39,2,,,,,,,,,,,AMSA16.jpg,AMSA05.jpg,AMNE17.jpg,AMNE16.jpg,AMSA16.jpg,MS,2,num_8,32,num_4,0.850159631809,,,2017_Jul_14_1645,60.0108557461,FEMA4ImagesEEG,001,100561,
AFNE01.JPG,AFNE01.JPG,AFNE01.JPG,AFNE01.JPG,AFNE01.JPG,AFNE01.JPG,,,,,,,,,,,,,4,0,40,4,,,,,,,,,,,AMNE12.jpg,AMSA18.jpg,AMSA03.jpg,AMNE11.jpg,AMNE11.jpg,MN,1,num_4,32,num_8,0.716720903525,,,2017_Jul_14_1645,60.0108557461,FEMA4ImagesEEG,001,100561,
AFNE01.JPG,AFNE01.JPG,AFNE01.JPG,AFNE01.JPG,AFNE01.JPG,AFNE01.JPG,,,,,,,,,,,,,4,1,41,5,,,,,,,,,,,AMNE09.jpg,AMNE14.jpg,AMSA13.jpg,AMSA04.jpg,AMSA13.jpg,MS,2,num_2,32,num_4,0.90011027013,,,2017_Jul_14_1645,60.0108557461,FEMA4ImagesEEG,001,100561,
AFNE01.JPG,AFNE01.JPG,AFNE01.JPG,AFNE01.JPG,AFNE01.JPG,AFNE01.JPG,,,,,,,,,,,,,4,2,42,2,,,,,,,,,,,AMSA06.jpg,AMNE09.jpg,AMNE03.jpg,AMSA15.jpg,AMNE09.jpg,MN,1,num_6,16,num_6,0.766480381368,,,2017_Jul_14_1645,60.0108557461,FEMA4ImagesEEG,001,100561,
AFNE01.JPG,AFNE01.JPG,AFNE01.JPG,AFNE01.JPG,AFNE01.JPG,AFNE01.JPG,,,,,,,,,,,,,4,3,43,9,,,,,,,,,,,AMSA10.jpg,AMSA16.jpg,AMNE03.jpg,AMNE06.jpg,AMSA10.jpg,MS,2,num_8,16,num_8,0.883448190056,,,2017_Jul_14_1645,60.0108557461,FEMA4ImagesEEG,001,100561,
AFNE01.JPG,AFNE01.JPG,AFNE01.JPG,AFNE01.JPG,AFNE01.JPG,AFNE01.JPG,,,,,,,,,,,,,4,4,44,6,,,,,,,,,,,AMNE03.jpg,AMSA14.jpg,AMSA13.jpg,AMNE01.jpg,AMNE01.jpg,MN,1,num_4,32,num_2,0.700049201259,,,2017_Jul_14_1645,60.0108557461,FEMA4ImagesEEG,001,100561,
AFNE01.JPG,AFNE01.JPG,AFNE01.JPG,AFNE01.JPG,AFNE01.JPG,AFNE01.JPG,,,,,,,,,,,,,4,5,45,3,,,,,,,,,,,AMNE02.jpg,AMSA01.jpg,AMNE14.jpg,AMSA14.jpg,AMNE14.jpg,MN,1,num_2,32,num_4,0.283473464195,,,2017_Jul_14_1645,60.0108557461,FEMA4ImagesEEG,001,100561,
AFNE01.JPG,AFNE01.JPG,AFNE01.JPG,AFNE01.JPG,AFNE01.JPG,AFNE01.JPG,,,,,,,,,,,,,4,6,46,8,,,,,,,,,,,AMSA14.jpg,AMNE06.jpg,AMNE02.jpg,AMSA12.jpg,AMNE02.jpg,MN,1,num_2,32,num_6,0.766757820733,,,2017_Jul_14_1645,60.0108557461,FEMA4ImagesEEG,001,100561,
AFNE01.JPG,AFNE01.JPG,AFNE01.JPG,AFNE01.JPG,AFNE01.JPG,AFNE01.JPG,,,,,,,,,,,,,4,7,47,1,,,,,,,,,,,AMSA04.jpg,AMNE13.jpg,AMNE16.jpg,AMSA18.jpg,AMSA18.jpg,MS,2,num_4,16,num_4,1.00009782542,,,2017_Jul_14_1645,60.0108557461,FEMA4ImagesEEG,001,100561,
AFNE01.JPG,AFNE01.JPG,AFNE01.JPG,AFNE01.JPG,AFNE01.JPG,AFNE01.JPG,,,,,,,,,,,,,4,8,48,7,,,,,,,,,,,AMSA17.jpg,AMSA15.jpg,AMNE06.jpg,AMNE08.jpg,AMSA17.jpg,MS,2,num_8,32,num_2,1.1666916844,,,2017_Jul_14_1645,60.0108557461,FEMA4ImagesEEG,001,100561,
AFNE01.JPG,AFNE01.JPG,AFNE01.JPG,AFNE01.JPG,AFNE01.JPG,AFNE01.JPG,,,,,,,,,,,,,4,9,49,0,,,,,,,,,,,AMNE03.jpg,AMNE05.jpg,AMSA08.jpg,AMSA14.jpg,AMNE05.jpg,MN,1,num_6,32,num_8,1.4667178567,,,2017_Jul_14_1645,60.0108557461,FEMA4ImagesEEG,001,100561,
AFNE01.JPG,AFNE01.JPG,AFNE01.JPG,AFNE01.JPG,AFNE01.JPG,AFNE01.JPG,,,,,,,,,,,,,5,0,50,1,,,,,,,,,,,AMSA10.jpg,AMSA14.jpg,AMNE16.jpg,AMNE02.jpg,AMNE02.jpg,MN,1,num_4,16,num_4,3.09997985768,,,2017_Jul_14_1645,60.0108557461,FEMA4ImagesEEG,001,100561,
AFNE01.JPG,AFNE01.JPG,AFNE01.JPG,AFNE01.JPG,AFNE01.JPG,AFNE01.JPG,,,,,,,,,,,,,5,1,51,0,,,,,,,,,,,AMSA14.jpg,AMNE17.jpg,AMNE14.jpg,AMSA16.jpg,AMSA16.jpg,MS,2,num_4,32,num_2,1.11673238594,,,2017_Jul_14_1645,60.0108557461,FEMA4ImagesEEG,001,100561,
AFNE01.JPG,AFNE01.JPG,AFNE01.JPG,AFNE01.JPG,AFNE01.JPG,AFNE01.JPG,,,,,,,,,,,,,5,2,52,5,,,,,,,,,,,AMNE11.jpg,AMNE09.jpg,AMSA11.jpg,AMSA02.jpg,AMNE11.jpg,MN,1,num_8,32,num_6,0.650146353291,,,2017_Jul_14_1645,60.0108557461,FEMA4ImagesEEG,001,100561,
AFNE01.JPG,AFNE01.JPG,AFNE01.JPG,AFNE01.JPG,AFNE01.JPG,AFNE01.JPG,,,,,,,,,,,,,5,3,53,9,,,,,,,,,,,AMNE17.jpg,AMSA10.jpg,AMNE07.jpg,AMSA17.jpg,AMSA17.jpg,MS,2,num_4,16,num_4,0.76677578222,,,2017_Jul_14_1645,60.0108557461,FEMA4ImagesEEG,001,100561,
AFNE01.JPG,AFNE01.JPG,AFNE01.JPG,AFNE01.JPG,AFNE01.JPG,AFNE01.JPG,,,,,,,,,,,,,5,4,54,2,,,,,,,,,,,AMNE03.jpg,AMNE18.jpg,AMSA09.jpg,AMSA13.jpg,AMNE18.jpg,MN,1,num_6,32,num_8,0.733448735438,,,2017_Jul_14_1645,60.0108557461,FEMA4ImagesEEG,001,100561,
AFNE01.JPG,AFNE01.JPG,AFNE01.JPG,AFNE01.JPG,AFNE01.JPG,AFNE01.JPG,,,,,,,,,,,,,5,5,55,3,,,,,,,,,,,AMSA09.jpg,AMNE11.jpg,AMSA17.jpg,AMNE17.jpg,AMNE17.jpg,MN,1,num_4,32,num_6,1.05007989611,,,2017_Jul_14_1645,60.0108557461,FEMA4ImagesEEG,001,100561,
AFNE01.JPG,AFNE01.JPG,AFNE01.JPG,AFNE01.JPG,AFNE01.JPG,AFNE01.JPG,,,,,,,,,,,,,5,6,56,6,,,,,,,,,,,AMNE04.jpg,AMSA14.jpg,AMSA02.jpg,AMNE02.jpg,AMNE02.jpg,MN,1,num_4,32,num_6,0.667219941737,,,2017_Jul_14_1645,60.0108557461,FEMA4ImagesEEG,001,100561,
AFNE01.JPG,AFNE01.JPG,AFNE01.JPG,AFNE01.JPG,AFNE01.JPG,AFNE01.JPG,,,,,,,,,,,,,5,7,57,4,,,,,,,,,,,AMNE11.jpg,AMSA02.jpg,AMSA18.jpg,AMNE19.jpg,AMSA18.jpg,MS,2,num_2,32,num_4,0.783500406425,,,2017_Jul_14_1645,60.0108557461,FEMA4ImagesEEG,001,100561,
AFNE01.JPG,AFNE01.JPG,AFNE01.JPG,AFNE01.JPG,AFNE01.JPG,AFNE01.JPG,,,,,,,,,,,,,5,8,58,8,,,,,,,,,,,AMSA10.jpg,AMNE01.jpg,AMSA08.jpg,AMNE18.jpg,AMSA08.jpg,MS,2,num_2,16,num_2,0.666749738157,,,2017_Jul_14_1645,60.0108557461,FEMA4ImagesEEG,001,100561,
AFNE01.JPG,AFNE01.JPG,AFNE01.JPG,AFNE01.JPG,AFNE01.JPG,AFNE01.JPG,,,,,,,,,,,,,5,9,59,7,,,,,,,,,,,AMNE01.jpg,AMSA07.jpg,AMSA11.jpg,AMNE10.jpg,AMSA11.jpg,MS,2,num_2,32,num_6,0.45015584724,,,2017_Jul_14_1645,60.0108557461,FEMA4ImagesEEG,001,100561,
,,,,,,,,,,,,,,,,,,,,,,,,,,,,,,,,,,,,,,,,,,,space,19.7652541953,2017_Jul_14_1645,60.0108557461,FEMA4ImagesEEG,001,100561,
AFNE01.JPG,AFNE01.JPG,AFNE01.JPG,AFNE01.JPG,AFNE01.JPG,AFNE01.JPG,,,,,,,,,,,,,,,,,0,0,0,5,,,,,,,AFSA11.jpg,AFSA17.jpg,AFNE09.jpg,AFNE12.jpg,AFNE09.jpg,FN,3,num_2,32,num_8,0.550168419955,,,2017_Jul_14_1645,60.0108557461,FEMA4ImagesEEG,001,100561,
AFNE01.JPG,AFNE01.JPG,AFNE01.JPG,AFNE01.JPG,AFNE01.JPG,AFNE01.JPG,,,,,,,,,,,,,,,,,0,1,1,9,,,,,,,AFSA14.jpg,AFNE07.jpg,AFNE12.jpg,AFSA18.jpg,AFNE12.jpg,FN,3,num_2,32,num_8,0.283490784233,,,2017_Jul_14_1645,60.0108557461,FEMA4ImagesEEG,001,100561,
AFNE01.JPG,AFNE01.JPG,AFNE01.JPG,AFNE01.JPG,AFNE01.JPG,AFNE01.JPG,,,,,,,,,,,,,,,,,0,2,2,6,,,,,,,AFSA06.jpg,AFSA10.jpg,AFNE15.jpg,AFNE01.jpg,AFSA06.jpg,FS,4,num_8,32,num_6,0.283484369516,,,2017_Jul_14_1645,60.0108557461,FEMA4ImagesEEG,001,100561,
AFNE01.JPG,AFNE01.JPG,AFNE01.JPG,AFNE01.JPG,AFNE01.JPG,AFNE01.JPG,,,,,,,,,,,,,,,,,0,3,3,1,,,,,,,AFSA13.jpg,AFNE18.jpg,AFSA01.jpg,AFNE14.jpg,AFSA13.jpg,FS,4,num_8,32,num_2,1.4334238458,,,2017_Jul_14_1645,60.0108557461,FEMA4ImagesEEG,001,100561,
AFNE01.JPG,AFNE01.JPG,AFNE01.JPG,AFNE01.JPG,AFNE01.JPG,AFNE01.JPG,,,,,,,,,,,,,,,,,0,4,4,8,,,,,,,AFSA14.jpg,AFSA11.jpg,AFNE12.jpg,AFNE18.jpg,AFNE18.jpg,FN,3,num_4,16,num_4,0.950127622113,,,2017_Jul_14_1645,60.0108557461,FEMA4ImagesEEG,001,100561,
AFNE01.JPG,AFNE01.JPG,AFNE01.JPG,AFNE01.JPG,AFNE01.JPG,AFNE01.JPG,,,,,,,,,,,,,,,,,0,5,5,2,,,,,,,AFNE13.jpg,AFSA14.jpg,AFNE09.jpg,AFSA02.jpg,AFNE09.jpg,FN,3,num_2,32,num_4,0.683496814221,,,2017_Jul_14_1645,60.0108557461,FEMA4ImagesEEG,001,100561,
AFNE01.JPG,AFNE01.JPG,AFNE01.JPG,AFNE01.JPG,AFNE01.JPG,AFNE01.JPG,,,,,,,,,,,,,,,,,0,6,6,3,,,,,,,AFNE20.jpg,AFSA17.jpg,AFSA11.jpg,AFNE14.jpg,AFSA11.jpg,FS,4,num_2,32,num_8,0.750164699508,,,2017_Jul_14_1645,60.0108557461,FEMA4ImagesEEG,001,100561,
AFNE01.JPG,AFNE01.JPG,AFNE01.JPG,AFNE01.JPG,AFNE01.JPG,AFNE01.JPG,,,,,,,,,,,,,,,,,0,7,7,4,,,,,,,AFNE13.jpg,AFSA10.jpg,AFNE04.jpg,AFSA05.jpg,AFNE13.jpg,FN,3,num_8,32,num_4,1.41675310582,,,2017_Jul_14_1645,60.0108557461,FEMA4ImagesEEG,001,100561,
AFNE01.JPG,AFNE01.JPG,AFNE01.JPG,AFNE01.JPG,AFNE01.JPG,AFNE01.JPG,,,,,,,,,,,,,,,,,0,8,8,7,,,,,,,AFSA15.jpg,AFNE16.jpg,AFSA17.jpg,AFNE07.jpg,AFSA15.jpg,FS,4,num_8,16,num_8,0.716778316069,,,2017_Jul_14_1645,60.0108557461,FEMA4ImagesEEG,001,100561,
AFNE01.JPG,AFNE01.JPG,AFNE01.JPG,AFNE01.JPG,AFNE01.JPG,AFNE01.JPG,,,,,,,,,,,,,,,,,0,9,9,0,,,,,,,AFNE11.jpg,AFSA18.jpg,AFSA02.jpg,AFNE10.jpg,AFNE11.jpg,FN,3,num_8,32,num_2,2.3999964078,,,2017_Jul_14_1645,60.0108557461,FEMA4ImagesEEG,001,100561,
AFNE01.JPG,AFNE01.JPG,AFNE01.JPG,AFNE01.JPG,AFNE01.JPG,AFNE01.JPG,,,,,,,,,,,,,,,,,1,0,10,3,,,,,,,AFSA14.jpg,AFSA02.jpg,AFNE11.jpg,AFNE06.jpg,AFNE11.jpg,FN,3,num_2,32,num_6,1.38341739913,,,2017_Jul_14_1645,60.0108557461,FEMA4ImagesEEG,001,100561,
AFNE01.JPG,AFNE01.JPG,AFNE01.JPG,AFNE01.JPG,AFNE01.JPG,AFNE01.JPG,,,,,,,,,,,,,,,,,1,1,11,5,,,,,,,AFSA12.jpg,AFNE01.jpg,AFNE18.jpg,AFSA20.jpg,AFNE18.jpg,FN,3,num_2,16,num_2,1.14978295588,,,2017_Jul_14_1645,60.0108557461,FEMA4ImagesEEG,001,100561,
AFNE01.JPG,AFNE01.JPG,AFNE01.JPG,AFNE01.JPG,AFNE01.JPG,AFNE01.JPG,,,,,,,,,,,,,,,,,1,2,12,6,,,,,,,AFNE04.jpg,AFSA07.jpg,AFNE16.jpg,AFSA04.jpg,AFSA07.jpg,FS,4,num_6,16,num_6,0.650256046094,,,2017_Jul_14_1645,60.0108557461,FEMA4ImagesEEG,001,100561,
AFNE01.JPG,AFNE01.JPG,AFNE01.JPG,AFNE01.JPG,AFNE01.JPG,AFNE01.JPG,,,,,,,,,,,,,,,,,1,3,13,0,,,,,,,AFNE02.jpg,AFSA04.jpg,AFSA03.jpg,AFNE13.jpg,AFSA03.jpg,FS,4,num_2,16,num_2,0.849923888687,,,2017_Jul_14_1645,60.0108557461,FEMA4ImagesEEG,001,100561,
AFNE01.JPG,AFNE01.JPG,AFNE01.JPG,AFNE01.JPG,AFNE01.JPG,AFNE01.JPG,,,,,,,,,,,,,,,,,1,4,14,2,,,,,,,AFNE04.jpg,AFNE07.jpg,AFSA07.jpg,AFSA19.jpg,AFSA07.jpg,FS,4,num_2,32,num_6,0.88355243043,,,2017_Jul_14_1645,60.0108557461,FEMA4ImagesEEG,001,100561,
AFNE01.JPG,AFNE01.JPG,AFNE01.JPG,AFNE01.JPG,AFNE01.JPG,AFNE01.JPG,,,,,,,,,,,,,,,,,1,5,15,9,,,,,,,AFSA08.jpg,AFNE13.jpg,AFSA02.jpg,AFNE15.jpg,AFNE13.jpg,FN,3,num_6,16,num_6,0.366772638867,,,2017_Jul_14_1645,60.0108557461,FEMA4ImagesEEG,001,100561,
AFNE01.JPG,AFNE01.JPG,AFNE01.JPG,AFNE01.JPG,AFNE01.JPG,AFNE01.JPG,,,,,,,,,,,,,,,,,1,6,16,8,,,,,,,AFNE18.jpg,AFNE17.jpg,AFSA19.jpg,AFSA12.jpg,AFNE18.jpg,FN,3,num_8,16,num_8,0.983448574785,,,2017_Jul_14_1645,60.0108557461,FEMA4ImagesEEG,001,100561,
AFNE01.JPG,AFNE01.JPG,AFNE01.JPG,AFNE01.JPG,AFNE01.JPG,AFNE01.JPG,,,,,,,,,,,,,,,,,1,7,17,7,,,,,,,AFSA01.jpg,AFSA14.jpg,AFNE11.jpg,AFNE16.jpg,AFNE11.jpg,FN,3,num_2,32,num_8,0.983457234921,,,2017_Jul_14_1645,60.0108557461,FEMA4ImagesEEG,001,100561,
AFNE01.JPG,AFNE01.JPG,AFNE01.JPG,AFNE01.JPG,AFNE01.JPG,AFNE01.JPG,,,,,,,,,,,,,,,,,1,8,18,1,,,,,,,AFSA15.jpg,AFNE06.jpg,AFSA19.jpg,AFNE12.jpg,AFSA15.jpg,FS,4,num_8,32,num_6,0.916751822922,,,2017_Jul_14_1645,60.0108557461,FEMA4ImagesEEG,001,100561,
AFNE01.JPG,AFNE01.JPG,AFNE01.JPG,AFNE01.JPG,AFNE01.JPG,AFNE01.JPG,,,,,,,,,,,,,,,,,1,9,19,4,,,,,,,AFSA20.jpg,AFSA11.jpg,AFNE11.jpg,AFNE15.jpg,AFNE15.jpg,FN,3,num_4,16,num_4,0.733486582525,,,2017_Jul_14_1645,60.0108557461,FEMA4ImagesEEG,001,100561,
AFNE01.JPG,AFNE01.JPG,AFNE01.JPG,AFNE01.JPG,AFNE01.JPG,AFNE01.JPG,,,,,,,,,,,,,,,,,2,0,20,9,,,,,,,AFNE01.jpg,AFNE12.jpg,AFSA14.jpg,AFSA19.jpg,AFSA19.jpg,FS,4,num_4,16,num_4,0.800127526047,,,2017_Jul_14_1645,60.0108557461,FEMA4ImagesEEG,001,100561,
AFNE01.JPG,AFNE01.JPG,AFNE01.JPG,AFNE01.JPG,AFNE01.JPG,AFNE01.JPG,,,,,,,,,,,,,,,,,2,1,21,3,,,,,,,AFNE17.jpg,AFNE03.jpg,AFSA20.jpg,AFSA09.jpg,AFSA09.jpg,FS,4,num_4,32,num_8,0.550141157117,,,2017_Jul_14_1645,60.0108557461,FEMA4ImagesEEG,001,100561,
AFNE01.JPG,AFNE01.JPG,AFNE01.JPG,AFNE01.JPG,AFNE01.JPG,AFNE01.JPG,,,,,,,,,,,,,,,,,2,2,22,5,,,,,,,AFSA20.jpg,AFSA01.jpg,AFNE07.jpg,AFNE16.jpg,AFNE07.jpg,FN,3,num_2,32,num_6,0.733308893163,,,2017_Jul_14_1645,60.0108557461,FEMA4ImagesEEG,001,100561,
AFNE01.JPG,AFNE01.JPG,AFNE01.JPG,AFNE01.JPG,AFNE01.JPG,AFNE01.JPG,,,,,,,,,,,,,,,,,2,3,23,6,,,,,,,AFSA10.jpg,AFNE06.jpg,AFSA20.jpg,AFNE09.jpg,AFSA20.jpg,FS,4,num_2,32,num_8,0.683305332903,,,2017_Jul_14_1645,60.0108557461,FEMA4ImagesEEG,001,100561,
AFNE01.JPG,AFNE01.JPG,AFNE01.JPG,AFNE01.JPG,AFNE01.JPG,AFNE01.JPG,,,,,,,,,,,,,,,,,2,4,24,0,,,,,,,AFNE09.jpg,AFSA18.jpg,AFNE11.jpg,AFSA11.jpg,AFNE09.jpg,FN,3,num_8,32,num_4,0.43348639016,,,2017_Jul_14_1645,60.0108557461,FEMA4ImagesEEG,001,100561,
AFNE01.JPG,AFNE01.JPG,AFNE01.JPG,AFNE01.JPG,AFNE01.JPG,AFNE01.JPG,,,,,,,,,,,,,,,,,2,5,25,8,,,,,,,AFSA05.jpg,AFNE20.jpg,AFSA20.jpg,AFNE01.jpg,AFSA20.jpg,FS,4,num_2,16,num_2,0.350184970303,,,2017_Jul_14_1645,60.0108557461,FEMA4ImagesEEG,001,100561,
AFNE01.JPG,AFNE01.JPG,AFNE01.JPG,AFNE01.JPG,AFNE01.JPG,AFNE01.JPG,,,,,,,,,,,,,,,,,2,6,26,4,,,,,,,AFNE10.jpg,AFSA19.jpg,AFSA18.jpg,AFNE12.jpg,AFNE10.jpg,FN,3,num_8,32,num_6,0.483485139208,,,2017_Jul_14_1645,60.0108557461,FEMA4ImagesEEG,001,100561,
AFNE01.JPG,AFNE01.JPG,AFNE01.JPG,AFNE01.JPG,AFNE01.JPG,AFNE01.JPG,,,,,,,,,,,,,,,,,2,7,27,1,,,,,,,AFSA02.jpg,AFSA03.jpg,AFNE03.jpg,AFNE14.jpg,AFSA02.jpg,FS,4,num_8,32,num_4,0.683497134829,,,2017_Jul_14_1645,60.0108557461,FEMA4ImagesEEG,001,100561,
AFNE01.JPG,AFNE01.JPG,AFNE01.JPG,AFNE01.JPG,AFNE01.JPG,AFNE01.JPG,,,,,,,,,,,,,,,,,2,8,28,2,,,,,,,AFSA03.jpg,AFSA10.jpg,AFNE04.jpg,AFNE20.jpg,AFNE20.jpg,FN,3,num_4,32,num_8,0.466791626532,,,2017_Jul_14_1645,60.0108557461,FEMA4ImagesEEG,001,100561,
AFNE01.JPG,AFNE01.JPG,AFNE01.JPG,AFNE01.JPG,AFNE01.JPG,AFNE01.JPG,,,,,,,,,,,,,,,,,2,9,29,7,,,,,,,AFNE11.jpg,AFSA04.jpg,AFNE18.jpg,AFSA14.jpg,AFSA14.jpg,FS,4,num_4,32,num_6,0.400177946081,,,2017_Jul_14_1645,60.0108557461,FEMA4ImagesEEG,001,100561,
AFNE01.JPG,AFNE01.JPG,AFNE01.JPG,AFNE01.JPG,AFNE01.JPG,AFNE01.JPG,,,,,,,,,,,,,,,,,3,0,30,3,,,,,,,AFNE12.jpg,AFSA08.jpg,AFSA06.jpg,AFNE18.jpg,AFSA06.jpg,FS,4,num_2,32,num_4,0.93351782253,,,2017_Jul_14_1645,60.0108557461,FEMA4ImagesEEG,001,100561,
AFNE01.JPG,AFNE01.JPG,AFNE01.JPG,AFNE01.JPG,AFNE01.JPG,AFNE01.JPG,,,,,,,,,,,,,,,,,3,1,31,4,,,,,,,AFSA10.jpg,AFNE14.jpg,AFNE03.jpg,AFSA15.jpg,AFNE14.jpg,FN,3,num_6,32,num_8,0.666796565987,,,2017_Jul_14_1645,60.0108557461,FEMA4ImagesEEG,001,100561,
AFNE01.JPG,AFNE01.JPG,AFNE01.JPG,AFNE01.JPG,AFNE01.JPG,AFNE01.JPG,,,,,,,,,,,,,,,,,3,2,32,5,,,,,,,AFNE01.jpg,AFNE20.jpg,AFSA14.jpg,AFSA08.jpg,AFNE01.jpg,FN,3,num_8,16,num_8,0.733513524523,,,2017_Jul_14_1645,60.0108557461,FEMA4ImagesEEG,001,100561,
AFNE01.JPG,AFNE01.JPG,AFNE01.JPG,AFNE01.JPG,AFNE01.JPG,AFNE01.JPG,,,,,,,,,,,,,,,,,3,3,33,8,,,,,,,AFSA08.jpg,AFNE05.jpg,AFSA17.jpg,AFNE18.jpg,AFSA17.jpg,FS,4,num_2,16,num_2,0.883452038979,,,2017_Jul_14_1645,60.0108557461,FEMA4ImagesEEG,001,100561,
AFNE01.JPG,AFNE01.JPG,AFNE01.JPG,AFNE01.JPG,AFNE01.JPG,AFNE01.JPG,,,,,,,,,,,,,,,,,3,4,34,2,,,,,,,AFNE07.jpg,AFNE04.jpg,AFSA06.jpg,AFSA19.jpg,AFNE04.jpg,FN,3,num_6,32,num_4,0.633455086034,,,2017_Jul_14_1645,60.0108557461,FEMA4ImagesEEG,001,100561,
AFNE01.JPG,AFNE01.JPG,AFNE01.JPG,AFNE01.JPG,AFNE01.JPG,AFNE01.JPG,,,,,,,,,,,,,,,,,3,5,35,0,,,,,,,AFSA16.jpg,AFNE19.jpg,AFNE05.jpg,AFSA13.jpg,AFNE19.jpg,FN,3,num_6,16,num_6,0.683434269857,,,2017_Jul_14_1645,60.0108557461,FEMA4ImagesEEG,001,100561,
AFNE01.JPG,AFNE01.JPG,AFNE01.JPG,AFNE01.JPG,AFNE01.JPG,AFNE01.JPG,,,,,,,,,,,,,,,,,3,6,36,6,,,,,,,AFSA06.jpg,AFNE14.jpg,AFSA19.jpg,AFNE05.jpg,AFNE05.jpg,FN,3,num_4,32,num_8,0.816677026451,,,2017_Jul_14_1645,60.0108557461,FEMA4ImagesEEG,001,100561,
AFNE01.JPG,AFNE01.JPG,AFNE01.JPG,AFNE01.JPG,AFNE01.JPG,AFNE01.JPG,,,,,,,,,,,,,,,,,3,7,37,1,,,,,,,AFNE12.jpg,AFSA13.jpg,AFNE04.jpg,AFSA10.jpg,AFSA13.jpg,FS,4,num_6,32,num_4,0.900112835923,,,2017_Jul_14_1645,60.0108557461,FEMA4ImagesEEG,001,100561,
AFNE01.JPG,AFNE01.JPG,AFNE01.JPG,AFNE01.JPG,AFNE01.JPG,AFNE01.JPG,,,,,,,,,,,,,,,,,3,8,38,9,,,,,,,AFNE12.jpg,AFSA02.jpg,AFSA11.jpg,AFNE14.jpg,AFSA11.jpg,FS,4,num_2,32,num_8,0.61677504424,,,2017_Jul_14_1645,60.0108557461,FEMA4ImagesEEG,001,100561,
AFNE01.JPG,AFNE01.JPG,AFNE01.JPG,AFNE01.JPG,AFNE01.JPG,AFNE01.JPG,,,,,,,,,,,,,,,,,3,9,39,7,,,,,,,AFNE08.jpg,AFNE07.jpg,AFSA12.jpg,AFSA13.jpg,AFNE07.jpg,FN,3,num_6,16,num_6,0.600153377512,,,2017_Jul_14_1645,60.0108557461,FEMA4ImagesEEG,001,100561,
AFNE01.JPG,AFNE01.JPG,AFNE01.JPG,AFNE01.JPG,AFNE01.JPG,AFNE01.JPG,,,,,,,,,,,,,,,,,4,0,40,8,,,,,,,AFSA05.jpg,AFNE08.jpg,AFSA15.jpg,AFNE09.jpg,AFNE09.jpg,FN,3,num_4,16,num_4,0.850123067619,,,2017_Jul_14_1645,60.0108557461,FEMA4ImagesEEG,001,100561,
AFNE01.JPG,AFNE01.JPG,AFNE01.JPG,AFNE01.JPG,AFNE01.JPG,AFNE01.JPG,,,,,,,,,,,,,,,,,4,1,41,7,,,,,,,AFNE18.jpg,AFNE05.jpg,AFSA10.jpg,AFSA15.jpg,AFNE18.jpg,FN,3,num_8,16,num_8,1.46670951741,,,2017_Jul_14_1645,60.0108557461,FEMA4ImagesEEG,001,100561,
AFNE01.JPG,AFNE01.JPG,AFNE01.JPG,AFNE01.JPG,AFNE01.JPG,AFNE01.JPG,,,,,,,,,,,,,,,,,4,2,42,0,,,,,,,AFNE16.jpg,AFNE18.jpg,AFSA16.jpg,AFSA14.jpg,AFSA16.jpg,FS,4,num_2,32,num_8,0.883508168161,,,2017_Jul_14_1645,60.0108557461,FEMA4ImagesEEG,001,100561,
AFNE01.JPG,AFNE01.JPG,AFNE01.JPG,AFNE01.JPG,AFNE01.JPG,AFNE01.JPG,,,,,,,,,,,,,,,,,4,3,43,9,,,,,,,AFSA07.jpg,AFNE01.jpg,AFSA06.jpg,AFNE11.jpg,AFNE11.jpg,FN,3,num_4,32,num_8,1.4500532106,,,2017_Jul_14_1645,60.0108557461,FEMA4ImagesEEG,001,100561,
AFNE01.JPG,AFNE01.JPG,AFNE01.JPG,AFNE01.JPG,AFNE01.JPG,AFNE01.JPG,,,,,,,,,,,,,,,,,4,4,44,4,,,,,,,AFNE05.jpg,AFNE10.jpg,AFSA06.jpg,AFSA17.jpg,AFNE10.jpg,FN,3,num_6,16,num_6,1.23344809399,,,2017_Jul_14_1645,60.0108557461,FEMA4ImagesEEG,001,100561,
AFNE01.JPG,AFNE01.JPG,AFNE01.JPG,AFNE01.JPG,AFNE01.JPG,AFNE01.JPG,,,,,,,,,,,,,,,,,4,5,45,3,,,,,,,AFSA05.jpg,AFNE01.jpg,AFSA18.jpg,AFNE03.jpg,AFNE03.jpg,FN,3,num_4,16,num_4,1.14974254277,,,2017_Jul_14_1645,60.0108557461,FEMA4ImagesEEG,001,100561,
AFNE01.JPG,AFNE01.JPG,AFNE01.JPG,AFNE01.JPG,AFNE01.JPG,AFNE01.JPG,,,,,,,,,,,,,,,,,4,6,46,6,,,,,,,AFSA17.jpg,AFNE07.jpg,AFSA19.jpg,AFNE16.jpg,AFNE16.jpg,FN,3,num_4,32,num_2,0.700159856351,,,2017_Jul_14_1645,60.0108557461,FEMA4ImagesEEG,001,100561,
AFNE01.JPG,AFNE01.JPG,AFNE01.JPG,AFNE01.JPG,AFNE01.JPG,AFNE01.JPG,,,,,,,,,,,,,,,,,4,7,47,5,,,,,,,AFSA04.jpg,AFNE09.jpg,AFSA16.jpg,AFNE18.jpg,AFNE18.jpg,FN,3,num_4,32,num_6,0.53346656845,,,2017_Jul_14_1645,60.0108557461,FEMA4ImagesEEG,001,100561,
AFNE01.JPG,AFNE01.JPG,AFNE01.JPG,AFNE01.JPG,AFNE01.JPG,AFNE01.JPG,,,,,,,,,,,,,,,,,4,8,48,2,,,,,,,AFSA18.jpg,AFNE16.jpg,AFSA04.jpg,AFNE19.jpg,AFNE16.jpg,FN,3,num_6,32,num_4,0.783451974625,,,2017_Jul_14_1645,60.0108557461,FEMA4ImagesEEG,001,100561,
AFNE01.JPG,AFNE01.JPG,AFNE01.JPG,AFNE01.JPG,AFNE01.JPG,AFNE01.JPG,,,,,,,,,,,,,,,,,4,9,49,1,,,,,,,AFSA17.jpg,AFSA10.jpg,AFNE11.jpg,AFNE13.jpg,AFSA17.jpg,FS,4,num_8,16,num_8,0.716771580512,,,2017_Jul_14_1645,60.0108557461,FEMA4ImagesEEG,001,100561,
AFNE01.JPG,AFNE01.JPG,AFNE01.JPG,AFNE01.JPG,AFNE01.JPG,AFNE01.JPG,,,,,,,,,,,,,,,,,5,0,50,4,,,,,,,AFNE14.jpg,AFNE09.jpg,AFSA14.jpg,AFSA02.jpg,AFSA14.jpg,FS,4,num_2,16,num_2,1.883347478,,,2017_Jul_14_1645,60.0108557461,FEMA4ImagesEEG,001,100561,
AFNE01.JPG,AFNE01.JPG,AFNE01.JPG,AFNE01.JPG,AFNE01.JPG,AFNE01.JPG,,,,,,,,,,,,,,,,,5,1,51,8,,,,,,,AFNE15.jpg,AFSA16.jpg,AFSA05.jpg,AFNE20.jpg,AFSA16.jpg,FS,4,num_6,32,num_2,0.883498225361,,,2017_Jul_14_1645,60.0108557461,FEMA4ImagesEEG,001,100561,
AFNE01.JPG,AFNE01.JPG,AFNE01.JPG,AFNE01.JPG,AFNE01.JPG,AFNE01.JPG,,,,,,,,,,,,,,,,,5,2,52,2,,,,,,,AFSA05.jpg,AFSA13.jpg,AFNE04.jpg,AFNE12.jpg,AFNE12.jpg,FN,3,num_4,32,num_8,0.950189524796,,,2017_Jul_14_1645,60.0108557461,FEMA4ImagesEEG,001,100561,
AFNE01.JPG,AFNE01.JPG,AFNE01.JPG,AFNE01.JPG,AFNE01.JPG,AFNE01.JPG,,,,,,,,,,,,,,,,,5,3,53,1,,,,,,,AFNE10.jpg,AFSA10.jpg,AFNE19.jpg,AFSA19.jpg,AFSA10.jpg,FS,4,num_6,32,num_8,0.957058154512,,,2017_Jul_14_1645,60.0108557461,FEMA4ImagesEEG,001,100561,
AFNE01.JPG,AFNE01.JPG,AFNE01.JPG,AFNE01.JPG,AFNE01.JPG,AFNE01.JPG,,,,,,,,,,,,,,,,,5,4,54,0,,,,,,,AFNE15.jpg,AFNE17.jpg,AFSA11.jpg,AFSA12.jpg,AFNE17.jpg,FN,3,num_6,16,num_6,0.683440684574,,,2017_Jul_14_1645,60.0108557461,FEMA4ImagesEEG,001,100561,
AFNE01.JPG,AFNE01.JPG,AFNE01.JPG,AFNE01.JPG,AFNE01.JPG,AFNE01.JPG,,,,,,,,,,,,,,,,,5,5,55,7,,,,,,,AFSA13.jpg,AFNE19.jpg,AFSA09.jpg,AFNE09.jpg,AFNE19.jpg,FN,3,num_6,32,num_8,1.51670056884,,,2017_Jul_14_1645,60.0108557461,FEMA4ImagesEEG,001,100561,
AFNE01.JPG,AFNE01.JPG,AFNE01.JPG,AFNE01.JPG,AFNE01.JPG,AFNE01.JPG,,,,,,,,,,,,,,,,,5,6,56,3,,,,,,,AFSA20.jpg,AFSA10.jpg,AFNE06.jpg,AFNE01.jpg,AFSA20.jpg,FS,4,num_8,32,num_6,0.800121431937,,,2017_Jul_14_1645,60.0108557461,FEMA4ImagesEEG,001,100561,
AFNE01.JPG,AFNE01.JPG,AFNE01.JPG,AFNE01.JPG,AFNE01.JPG,AFNE01.JPG,,,,,,,,,,,,,,,,,5,7,57,9,,,,,,,AFSA20.jpg,AFNE01.jpg,AFSA05.jpg,AFNE10.jpg,AFNE01.jpg,FN,3,num_6,16,num_6,0.733586653136,,,2017_Jul_14_1645,60.0108557461,FEMA4ImagesEEG,001,100561,
AFNE01.JPG,AFNE01.JPG,AFNE01.JPG,AFNE01.JPG,AFNE01.JPG,AFNE01.JPG,,,,,,,,,,,,,,,,,5,8,58,5,,,,,,,AFSA17.jpg,AFSA12.jpg,AFNE15.jpg,AFNE10.jpg,AFNE15.jpg,FN,3,num_2,32,num_8,0.783485973254,,,2017_Jul_14_1645,60.0108557461,FEMA4ImagesEEG,001,100561,
AFNE01.JPG,AFNE01.JPG,AFNE01.JPG,AFNE01.JPG,AFNE01.JPG,AFNE01.JPG,,,,,,,,,,,,,,,,,5,9,59,6,,,,,,,AFSA16.jpg,AFNE02.jpg,AFNE14.jpg,AFSA05.jpg,AFSA05.jpg,FS,4,num_4,32,num_2,0.666798811406,,,2017_Jul_14_1645,60.0108557461,FEMA4ImagesEEG,001,100561,
,,,,,,,,,,,,,,,,,,,,,,,,,,,,,,,,,,,,,,,,,,,space,30.6480641144,2017_Jul_14_1645,60.0108557461,FEMA4ImagesEEG,001,100561,
AFNE01.JPG,AFNE01.JPG,AFNE01.JPG,AFNE01.JPG,AFNE01.JPG,AFNE01.JPG,,,,,,,,,,,,,,,,,,,,,0,0,0,9,,,AMSA09.jpg,AMSA02.jpg,AMNE02.jpg,AMNE11.jpg,AMNE02.jpg,MN,1,num_2,32,num_8,1.81667189486,,,2017_Jul_14_1645,60.0108557461,FEMA4ImagesEEG,001,100561,
AFNE01.JPG,AFNE01.JPG,AFNE01.JPG,AFNE01.JPG,AFNE01.JPG,AFNE01.JPG,,,,,,,,,,,,,,,,,,,,,0,1,1,7,,,AMSA08.jpg,AMSA05.jpg,AMNE10.jpg,AMNE11.jpg,AMSA08.jpg,MS,2,num_8,32,num_6,0.58351567341,,,2017_Jul_14_1645,60.0108557461,FEMA4ImagesEEG,001,100561,
AFNE01.JPG,AFNE01.JPG,AFNE01.JPG,AFNE01.JPG,AFNE01.JPG,AFNE01.JPG,,,,,,,,,,,,,,,,,,,,,0,2,2,0,,,AMNE08.jpg,AMNE17.jpg,AMSA07.jpg,AMSA18.jpg,AMSA07.jpg,MS,2,num_2,32,num_6,0.766842495883,,,2017_Jul_14_1645,60.0108557461,FEMA4ImagesEEG,001,100561,
AFNE01.JPG,AFNE01.JPG,AFNE01.JPG,AFNE01.JPG,AFNE01.JPG,AFNE01.JPG,,,,,,,,,,,,,,,,,,,,,0,3,3,8,,,AMNE16.jpg,AMNE06.jpg,AMSA14.jpg,AMSA13.jpg,AMNE16.jpg,MN,1,num_8,16,num_8,0.733676139498,,,2017_Jul_14_1645,60.0108557461,FEMA4ImagesEEG,001,100561,
AFNE01.JPG,AFNE01.JPG,AFNE01.JPG,AFNE01.JPG,AFNE01.JPG,AFNE01.JPG,,,,,,,,,,,,,,,,,,,,,0,4,4,6,,,AMNE11.jpg,AMNE06.jpg,AMSA11.jpg,AMSA20.jpg,AMSA20.jpg,MS,2,num_4,16,num_4,0.750160209136,,,2017_Jul_14_1645,60.0108557461,FEMA4ImagesEEG,001,100561,
AFNE01.JPG,AFNE01.JPG,AFNE01.JPG,AFNE01.JPG,AFNE01.JPG,AFNE01.JPG,,,,,,,,,,,,,,,,,,,,,0,5,5,2,,,AMNE06.jpg,AMSA10.jpg,AMNE04.jpg,AMSA02.jpg,AMNE06.jpg,MN,1,num_8,16,num_8,0.666733380407,,,2017_Jul_14_1645,60.0108557461,FEMA4ImagesEEG,001,100561,
AFNE01.JPG,AFNE01.JPG,AFNE01.JPG,AFNE01.JPG,AFNE01.JPG,AFNE01.JPG,,,,,,,,,,,,,,,,,,,,,0,6,6,4,,,AMSA12.jpg,AMNE05.jpg,AMNE01.jpg,AMSA20.jpg,AMNE05.jpg,MN,1,num_6,16,num_6,0.316791530466,,,2017_Jul_14_1645,60.0108557461,FEMA4ImagesEEG,001,100561,
AFNE01.JPG,AFNE01.JPG,AFNE01.JPG,AFNE01.JPG,AFNE01.JPG,AFNE01.JPG,,,,,,,,,,,,,,,,,,,,,0,7,7,5,,,AMSA02.jpg,AMSA06.jpg,AMNE16.jpg,AMNE19.jpg,AMNE16.jpg,MN,1,num_2,32,num_8,0.46677206154,,,2017_Jul_14_1645,60.0108557461,FEMA4ImagesEEG,001,100561,
AFNE01.JPG,AFNE01.JPG,AFNE01.JPG,AFNE01.JPG,AFNE01.JPG,AFNE01.JPG,,,,,,,,,,,,,,,,,,,,,0,8,8,3,,,AMNE10.jpg,AMNE08.jpg,AMSA03.jpg,AMSA15.jpg,AMSA15.jpg,MS,2,num_4,32,num_6,0.783454861492,,,2017_Jul_14_1645,60.0108557461,FEMA4ImagesEEG,001,100561,
AFNE01.JPG,AFNE01.JPG,AFNE01.JPG,AFNE01.JPG,AFNE01.JPG,AFNE01.JPG,,,,,,,,,,,,,,,,,,,,,0,9,9,1,,,AMSA09.jpg,AMNE01.jpg,AMNE16.jpg,AMSA08.jpg,AMSA08.jpg,MS,2,num_4,32,num_8,0.40014202334,,,2017_Jul_14_1645,60.0108557461,FEMA4ImagesEEG,001,100561,
AFNE01.JPG,AFNE01.JPG,AFNE01.JPG,AFNE01.JPG,AFNE01.JPG,AFNE01.JPG,,,,,,,,,,,,,,,,,,,,,1,0,10,1,,,AMSA03.jpg,AMNE07.jpg,AMNE14.jpg,AMSA18.jpg,AMSA03.jpg,MS,2,num_8,16,num_8,1.25008675992,,,2017_Jul_14_1645,60.0108557461,FEMA4ImagesEEG,001,100561,
AFNE01.JPG,AFNE01.JPG,AFNE01.JPG,AFNE01.JPG,AFNE01.JPG,AFNE01.JPG,,,,,,,,,,,,,,,,,,,,,1,1,11,3,,,AMNE06.jpg,AMSA18.jpg,AMSA17.jpg,AMNE16.jpg,AMSA18.jpg,MS,2,num_6,32,num_8,1.06673010881,,,2017_Jul_14_1645,60.0108557461,FEMA4ImagesEEG,001,100561,
AFNE01.JPG,AFNE01.JPG,AFNE01.JPG,AFNE01.JPG,AFNE01.JPG,AFNE01.JPG,,,,,,,,,,,,,,,,,,,,,1,2,12,9,,,AMSA15.jpg,AMNE07.jpg,AMSA18.jpg,AMNE15.jpg,AMNE07.jpg,MN,1,num_6,32,num_4,0.333526739152,,,2017_Jul_14_1645,60.0108557461,FEMA4ImagesEEG,001,100561,
AFNE01.JPG,AFNE01.JPG,AFNE01.JPG,AFNE01.JPG,AFNE01.JPG,AFNE01.JPG,,,,,,,,,,,,,,,,,,,,,1,3,13,5,,,AMSA07.jpg,AMNE15.jpg,AMSA19.jpg,AMNE03.jpg,AMSA19.jpg,MS,2,num_2,32,num_6,0.333193491213,,,2017_Jul_14_1645,60.0108557461,FEMA4ImagesEEG,001,100561,
AFNE01.JPG,AFNE01.JPG,AFNE01.JPG,AFNE01.JPG,AFNE01.JPG,AFNE01.JPG,,,,,,,,,,,,,,,,,,,,,1,4,14,8,,,AMSA16.jpg,AMNE19.jpg,AMSA09.jpg,AMNE20.jpg,AMSA09.jpg,MS,2,num_2,16,num_2,0.716814238811,,,2017_Jul_14_1645,60.0108557461,FEMA4ImagesEEG,001,100561,
AFNE01.JPG,AFNE01.JPG,AFNE01.JPG,AFNE01.JPG,AFNE01.JPG,AFNE01.JPG,,,,,,,,,,,,,,,,,,,,,1,5,15,2,,,AMSA14.jpg,AMNE06.jpg,AMSA05.jpg,AMNE09.jpg,AMSA05.jpg,MS,2,num_2,32,num_4,0.883464547805,,,2017_Jul_14_1645,60.0108557461,FEMA4ImagesEEG,001,100561,
AFNE01.JPG,AFNE01.JPG,AFNE01.JPG,AFNE01.JPG,AFNE01.JPG,AFNE01.JPG,,,,,,,,,,,,,,,,,,,,,1,6,16,6,,,AMSA16.jpg,AMNE16.jpg,AMNE12.jpg,AMSA14.jpg,AMNE12.jpg,MN,1,num_2,32,num_6,0.716787617421,,,2017_Jul_14_1645,60.0108557461,FEMA4ImagesEEG,001,100561,
AFNE01.JPG,AFNE01.JPG,AFNE01.JPG,AFNE01.JPG,AFNE01.JPG,AFNE01.JPG,,,,,,,,,,,,,,,,,,,,,1,7,17,4,,,AMSA16.jpg,AMSA07.jpg,AMNE16.jpg,AMNE12.jpg,AMSA16.jpg,MS,2,num_8,16,num_8,1.18340219604,,,2017_Jul_14_1645,60.0108557461,FEMA4ImagesEEG,001,100561,
AFNE01.JPG,AFNE01.JPG,AFNE01.JPG,AFNE01.JPG,AFNE01.JPG,AFNE01.JPG,,,,,,,,,,,,,,,,,,,,,1,8,18,0,,,AMSA01.jpg,AMNE02.jpg,AMNE04.jpg,AMSA04.jpg,AMSA04.jpg,MS,2,num_4,32,num_2,1.23341409536,,,2017_Jul_14_1645,60.0108557461,FEMA4ImagesEEG,001,100561,
AFNE01.JPG,AFNE01.JPG,AFNE01.JPG,AFNE01.JPG,AFNE01.JPG,AFNE01.JPG,,,,,,,,,,,,,,,,,,,,,1,9,19,7,,,AMNE07.jpg,AMSA20.jpg,AMNE03.jpg,AMSA10.jpg,AMNE07.jpg,MN,1,num_8,16,num_8,1.26677610283,,,2017_Jul_14_1645,60.0108557461,FEMA4ImagesEEG,001,100561,
AFNE01.JPG,AFNE01.JPG,AFNE01.JPG,AFNE01.JPG,AFNE01.JPG,AFNE01.JPG,,,,,,,,,,,,,,,,,,,,,2,0,20,0,,,AMSA16.jpg,AMNE16.jpg,AMNE05.jpg,AMSA07.jpg,AMNE16.jpg,MN,1,num_6,32,num_4,0.38349918765,,,2017_Jul_14_1645,60.0108557461,FEMA4ImagesEEG,001,100561,
AFNE01.JPG,AFNE01.JPG,AFNE01.JPG,AFNE01.JPG,AFNE01.JPG,AFNE01.JPG,,,,,,,,,,,,,,,,,,,,,2,1,21,9,,,AMSA01.jpg,AMNE08.jpg,AMSA18.jpg,AMNE13.jpg,AMNE08.jpg,MN,1,num_6,16,num_6,0.35015995265,,,2017_Jul_14_1645,60.0108557461,FEMA4ImagesEEG,001,100561,
AFNE01.JPG,AFNE01.JPG,AFNE01.JPG,AFNE01.JPG,AFNE01.JPG,AFNE01.JPG,,,,,,,,,,,,,,,,,,,,,2,2,22,7,,,AMNE13.jpg,AMSA11.jpg,AMNE12.jpg,AMSA04.jpg,AMNE12.jpg,MN,1,num_2,32,num_4,0.516791337868,,,2017_Jul_14_1645,60.0108557461,FEMA4ImagesEEG,001,100561,
AFNE01.JPG,AFNE01.JPG,AFNE01.JPG,AFNE01.JPG,AFNE01.JPG,AFNE01.JPG,,,,,,,,,,,,,,,,,,,,,2,3,23,4,,,AMNE08.jpg,AMNE10.jpg,AMSA02.jpg,AMSA18.jpg,AMSA02.jpg,MS,2,num_2,16,num_2,1.46667295299,,,2017_Jul_14_1645,60.0108557461,FEMA4ImagesEEG,001,100561,
AFNE01.JPG,AFNE01.JPG,AFNE01.JPG,AFNE01.JPG,AFNE01.JPG,AFNE01.JPG,,,,,,,,,,,,,,,,,,,,,2,4,24,2,,,AMSA05.jpg,AMSA12.jpg,AMNE07.jpg,AMNE17.jpg,AMSA05.jpg,MS,2,num_8,16,num_8,0.766773216194,,,2017_Jul_14_1645,60.0108557461,FEMA4ImagesEEG,001,100561,
AFNE01.JPG,AFNE01.JPG,AFNE01.JPG,AFNE01.JPG,AFNE01.JPG,AFNE01.JPG,,,,,,,,,,,,,,,,,,,,,2,5,25,8,,,AMNE06.jpg,AMSA08.jpg,AMNE15.jpg,AMSA12.jpg,AMNE06.jpg,MN,1,num_8,16,num_8,0.933457844192,,,2017_Jul_14_1645,60.0108557461,FEMA4ImagesEEG,001,100561,
AFNE01.JPG,AFNE01.JPG,AFNE01.JPG,AFNE01.JPG,AFNE01.JPG,AFNE01.JPG,,,,,,,,,,,,,,,,,,,,,2,6,26,6,,,AMSA08.jpg,AMNE12.jpg,AMNE16.jpg,AMSA17.jpg,AMNE12.jpg,MN,1,num_6,16,num_6,0.516670098528,,,2017_Jul_14_1645,60.0108557461,FEMA4ImagesEEG,001,100561,
AFNE01.JPG,AFNE01.JPG,AFNE01.JPG,AFNE01.JPG,AFNE01.JPG,AFNE01.JPG,,,,,,,,,,,,,,,,,,,,,2,7,27,3,,,AMSA18.jpg,AMNE05.jpg,AMNE19.jpg,AMSA11.jpg,AMSA11.jpg,MS,2,num_4,32,num_8,0.633481065743,,,2017_Jul_14_1645,60.0108557461,FEMA4ImagesEEG,001,100561,
AFNE01.JPG,AFNE01.JPG,AFNE01.JPG,AFNE01.JPG,AFNE01.JPG,AFNE01.JPG,,,,,,,,,,,,,,,,,,,,,2,8,28,5,,,AMSA13.jpg,AMNE13.jpg,AMNE01.jpg,AMSA08.jpg,AMNE01.jpg,MN,1,num_2,32,num_6,0.766756216995,,,2017_Jul_14_1645,60.0108557461,FEMA4ImagesEEG,001,100561,
AFNE01.JPG,AFNE01.JPG,AFNE01.JPG,AFNE01.JPG,AFNE01.JPG,AFNE01.JPG,,,,,,,,,,,,,,,,,,,,,2,9,29,1,,,AMNE01.jpg,AMSA12.jpg,AMNE07.jpg,AMSA20.jpg,AMNE07.jpg,MN,1,num_2,32,num_8,0.616783383768,,,2017_Jul_14_1645,60.0108557461,FEMA4ImagesEEG,001,100561,
AFNE01.JPG,AFNE01.JPG,AFNE01.JPG,AFNE01.JPG,AFNE01.JPG,AFNE01.JPG,,,,,,,,,,,,,,,,,,,,,3,0,30,7,,,AMSA11.jpg,AMNE02.jpg,AMSA05.jpg,AMNE11.jpg,AMNE02.jpg,MN,1,num_6,32,num_4,0.333487608703,,,2017_Jul_14_1645,60.0108557461,FEMA4ImagesEEG,001,100561,
AFNE01.JPG,AFNE01.JPG,AFNE01.JPG,AFNE01.JPG,AFNE01.JPG,AFNE01.JPG,,,,,,,,,,,,,,,,,,,,,3,1,31,3,,,AMNE14.jpg,AMSA11.jpg,AMNE08.jpg,AMSA05.jpg,AMNE08.jpg,MN,1,num_2,32,num_6,0.466799645219,,,2017_Jul_14_1645,60.0108557461,FEMA4ImagesEEG,001,100561,
AFNE01.JPG,AFNE01.JPG,AFNE01.JPG,AFNE01.JPG,AFNE01.JPG,AFNE01.JPG,,,,,,,,,,,,,,,,,,,,,3,2,32,1,,,AMNE14.jpg,AMNE17.jpg,AMSA05.jpg,AMSA13.jpg,AMSA05.jpg,MS,2,num_2,16,num_2,0.350160914939,,,2017_Jul_14_1645,60.0108557461,FEMA4ImagesEEG,001,100561,
AFNE01.JPG,AFNE01.JPG,AFNE01.JPG,AFNE01.JPG,AFNE01.JPG,AFNE01.JPG,,,,,,,,,,,,,,,,,,,,,3,3,33,4,,,AMSA09.jpg,AMNE11.jpg,AMSA01.jpg,AMNE10.jpg,AMNE11.jpg,MN,1,num_6,32,num_8,0.733503902331,,,2017_Jul_14_1645,60.0108557461,FEMA4ImagesEEG,001,100561,
AFNE01.JPG,AFNE01.JPG,AFNE01.JPG,AFNE01.JPG,AFNE01.JPG,AFNE01.JPG,,,,,,,,,,,,,,,,,,,,,3,4,34,6,,,AMSA05.jpg,AMNE17.jpg,AMSA02.jpg,AMNE04.jpg,AMNE04.jpg,MN,1,num_4,32,num_6,0.366758205462,,,2017_Jul_14_1645,60.0108557461,FEMA4ImagesEEG,001,100561,
AFNE01.JPG,AFNE01.JPG,AFNE01.JPG,AFNE01.JPG,AFNE01.JPG,AFNE01.JPG,,,,,,,,,,,,,,,,,,,,,3,5,35,9,,,AMNE06.jpg,AMSA07.jpg,AMNE14.jpg,AMSA01.jpg,AMSA07.jpg,MS,2,num_6,32,num_4,0.833412235137,,,2017_Jul_14_1645,60.0108557461,FEMA4ImagesEEG,001,100561,
AFNE01.JPG,AFNE01.JPG,AFNE01.JPG,AFNE01.JPG,AFNE01.JPG,AFNE01.JPG,,,,,,,,,,,,,,,,,,,,,3,6,36,8,,,AMSA16.jpg,AMNE02.jpg,AMNE13.jpg,AMSA15.jpg,AMNE13.jpg,MN,1,num_2,32,num_6,0.350158348912,,,2017_Jul_14_1645,60.0108557461,FEMA4ImagesEEG,001,100561,
AFNE01.JPG,AFNE01.JPG,AFNE01.JPG,AFNE01.JPG,AFNE01.JPG,AFNE01.JPG,,,,,,,,,,,,,,,,,,,,,3,7,37,0,,,AMNE06.jpg,AMNE16.jpg,AMSA18.jpg,AMSA02.jpg,AMSA18.jpg,MS,2,num_2,32,num_6,0.566622981802,,,2017_Jul_14_1645,60.0108557461,FEMA4ImagesEEG,001,100561,
AFNE01.JPG,AFNE01.JPG,AFNE01.JPG,AFNE01.JPG,AFNE01.JPG,AFNE01.JPG,,,,,,,,,,,,,,,,,,,,,3,8,38,5,,,AMNE04.jpg,AMSA17.jpg,AMNE16.jpg,AMSA02.jpg,AMNE04.jpg,MN,1,num_8,32,num_4,0.933503709966,,,2017_Jul_14_1645,60.0108557461,FEMA4ImagesEEG,001,100561,
