IPosition2,IPosition3,IPosition1,IPosition6,IPosition4,IPosition5,TrialsF1.thisRepN,TrialsF1.thisTrialN,TrialsF1.thisN,TrialsF1.thisIndex,TrialsM1.thisRepN,TrialsM1.thisTrialN,TrialsM1.thisN,TrialsM1.thisIndex,TrialsF2.thisRepN,TrialsF2.thisTrialN,TrialsF2.thisN,TrialsF2.thisIndex,TrialsM2.thisRepN,TrialsM2.thisTrialN,TrialsM2.thisN,TrialsM2.thisIndex,TrialsF3.thisRepN,TrialsF3.thisTrialN,TrialsF3.thisN,TrialsF3.thisIndex,TrialsM3.thisRepN,TrialsM3.thisTrialN,TrialsM3.thisN,TrialsM3.thisIndex,InstrKey_resp.keys,InstrKey_resp.rt,Image0 _Position,Image1 _Position,Image2 _Position,Image3 _Position,Center_image,condition,code,correct_answer,accuracy,Key_Resp.keys,Key_Resp.rt,BreakKey_resp.keys,BreakKey_resp.rt,date,frameRate,expName,session,participant,
,,,,,,,,,,,,,,,,,,,,,,,,,,,,,,space,14.2327705738,,,,,,,,,,,,,,2017_May_23_1551,60.0036758713,FEMA4ImagesEEG,001,100537,
AFSA21.JPG,AFNE22.JPG,AFNE21.JPG,AFSA23.JPG,AFSA22.JPG,AFNE23.JPG,0,0,0,0,,,,,,,,,,,,,,,,,,,,,,,AFNE15.jpg,AFNE11.jpg,AFSA02.jpg,AFSA12.jpg,AFNE15.jpg,FN,3,num_8,16,num_8,1.33342549251,,,2017_May_23_1551,60.0036758713,FEMA4ImagesEEG,001,100537,
AFSA21.JPG,AFNE23.JPG,AFNE21.JPG,AFSA25.JPG,AFNE25.JPG,AFSA23.JPG,0,1,1,4,,,,,,,,,,,,,,,,,,,,,,,AFNE11.jpg,AFNE13.jpg,AFSA18.jpg,AFSA12.jpg,AFNE11.jpg,FN,3,num_8,32,num_6,3.7500303901,,,2017_May_23_1551,60.0036758713,FEMA4ImagesEEG,001,100537,
AMSA21.JPG,AMNE23.JPG,AMNE21.JPG,AMSA25.JPG,AMNE25.JPG,AMSA23.JPG,0,2,2,5,,,,,,,,,,,,,,,,,,,,,,,AFNE13.jpg,AFSA14.jpg,AFNE05.jpg,AFSA10.jpg,AFSA10.jpg,FS,4,num_4,16,num_4,1.5834287802,,,2017_May_23_1551,60.0036758713,FEMA4ImagesEEG,001,100537,
AMNE22.JPG,AMSA24.JPG,AMSA22.JPG,AMNE25.JPG,AMNE24.JPG,AMSA25.JPG,0,3,3,7,,,,,,,,,,,,,,,,,,,,,,,AFSA02.jpg,AFNE04.jpg,AFSA06.jpg,AFNE02.jpg,AFNE04.jpg,FN,3,num_6,16,num_6,1.46674777102,,,2017_May_23_1551,60.0036758713,FEMA4ImagesEEG,001,100537,
AMSA21.JPG,AMNE22.JPG,AMNE21.JPG,AMSA23.JPG,AMSA22.JPG,AMNE23.JPG,0,4,4,1,,,,,,,,,,,,,,,,,,,,,,,AFSA14.jpg,AFNE10.jpg,AFSA09.jpg,AFNE19.jpg,AFSA14.jpg,FS,4,num_8,32,num_4,1.48340411519,,,2017_May_23_1551,60.0036758713,FEMA4ImagesEEG,001,100537,
AFNE23.JPG,AFNE24.JPG,AFNE22.JPG,AFSA24.JPG,AFSA22.JPG,AFSA23.JPG,0,5,5,8,,,,,,,,,,,,,,,,,,,,,,,AFNE03.jpg,AFNE10.jpg,AFSA01.jpg,AFSA12.jpg,AFNE03.jpg,FN,3,num_8,16,num_8,1.71677479346,,,2017_May_23_1551,60.0036758713,FEMA4ImagesEEG,001,100537,
AMNE23.JPG,AMNE24.JPG,AMNE22.JPG,AMSA24.JPG,AMSA22.JPG,AMSA23.JPG,0,6,6,9,,,,,,,,,,,,,,,,,,,,,,,AFNE19.jpg,AFSA09.jpg,AFNE18.jpg,AFSA11.jpg,AFSA11.jpg,FS,4,num_4,32,num_6,1.70011492108,,,2017_May_23_1551,60.0036758713,FEMA4ImagesEEG,001,100537,
AMSA25.JPG,AMNE24.JPG,AMSA24.JPG,AMNE26.JPG,AMSA21.JPG,AMNE25.JPG,0,7,7,3,,,,,,,,,,,,,,,,,,,,,,,AFSA14.jpg,AFNE12.jpg,AFNE06.jpg,AFSA07.jpg,AFNE06.jpg,FN,3,num_2,16,num_2,2.36668525892,,,2017_May_23_1551,60.0036758713,FEMA4ImagesEEG,001,100537,
AFNE22.JPG,AFSA24.JPG,AFSA22.JPG,AFNE25.JPG,AFNE24.JPG,AFSA25.JPG,0,8,8,6,,,,,,,,,,,,,,,,,,,,,,,AFSA15.jpg,AFNE19.jpg,AFSA19.jpg,AFNE05.jpg,AFNE19.jpg,FN,3,num_6,32,num_2,1.0667806149,,,2017_May_23_1551,60.0036758713,FEMA4ImagesEEG,001,100537,
AFSA25.JPG,AFNE24.JPG,AFSA24.JPG,AFNE21.JPG,AFSA21.JPG,AFNE25.JPG,0,9,9,2,,,,,,,,,,,,,,,,,,,,,,,AFSA11.jpg,AFSA03.jpg,AFNE20.jpg,AFNE12.jpg,AFNE12.jpg,FN,3,num_4,16,num_4,0.81681260874,,,2017_May_23_1551,60.0036758713,FEMA4ImagesEEG,001,100537,
AMSA25.JPG,AMNE24.JPG,AMSA24.JPG,AMNE26.JPG,AMSA21.JPG,AMNE25.JPG,,,,,0,0,0,3,,,,,,,,,,,,,,,,,,,AMNE16.jpg,AMSA03.jpg,AMSA06.jpg,AMNE17.jpg,AMNE17.jpg,MN,1,num_4,16,num_4,1.08342861978,,,2017_May_23_1551,60.0036758713,FEMA4ImagesEEG,001,100537,
AFSA25.JPG,AFNE24.JPG,AFSA24.JPG,AFNE21.JPG,AFSA21.JPG,AFNE25.JPG,,,,,0,1,1,2,,,,,,,,,,,,,,,,,,,AMSA15.jpg,AMNE14.jpg,AMSA11.jpg,AMNE03.jpg,AMNE14.jpg,MN,1,num_6,16,num_6,0.833459330606,,,2017_May_23_1551,60.0036758713,FEMA4ImagesEEG,001,100537,
AMNE22.JPG,AMSA24.JPG,AMSA22.JPG,AMNE25.JPG,AMNE24.JPG,AMSA25.JPG,,,,,0,2,2,7,,,,,,,,,,,,,,,,,,,AMSA02.jpg,AMNE09.jpg,AMSA05.jpg,AMNE18.jpg,AMNE18.jpg,MN,1,num_4,16,num_4,1.75008780253,,,2017_May_23_1551,60.0036758713,FEMA4ImagesEEG,001,100537,
AFSA21.JPG,AFNE23.JPG,AFNE21.JPG,AFSA25.JPG,AFNE25.JPG,AFSA23.JPG,,,,,0,3,3,4,,,,,,,,,,,,,,,,,,,AMSA04.jpg,AMNE03.jpg,AMNE11.jpg,AMSA07.jpg,AMSA07.jpg,MS,2,num_4,16,num_4,0.891228437074,,,2017_May_23_1551,60.0036758713,FEMA4ImagesEEG,001,100537,
AMSA21.JPG,AMNE22.JPG,AMNE21.JPG,AMSA23.JPG,AMSA22.JPG,AMNE23.JPG,,,,,0,4,4,1,,,,,,,,,,,,,,,,,,,AMSA05.jpg,AMNE12.jpg,AMNE20.jpg,AMSA01.jpg,AMSA01.jpg,MS,2,num_4,16,num_4,1.93336788774,,,2017_May_23_1551,60.0036758713,FEMA4ImagesEEG,001,100537,
AFNE22.JPG,AFSA24.JPG,AFSA22.JPG,AFNE25.JPG,AFNE24.JPG,AFSA25.JPG,,,,,0,5,5,6,,,,,,,,,,,,,,,,,,,AMSA05.jpg,AMNE16.jpg,AMNE02.jpg,AMSA18.jpg,AMSA18.jpg,MS,2,num_4,16,num_4,0.850144220749,,,2017_May_23_1551,60.0036758713,FEMA4ImagesEEG,001,100537,
AMSA21.JPG,AMNE23.JPG,AMNE21.JPG,AMSA25.JPG,AMNE25.JPG,AMSA23.JPG,,,,,0,6,6,5,,,,,,,,,,,,,,,,,,,AMNE20.jpg,AMSA09.jpg,AMSA18.jpg,AMNE08.jpg,AMSA18.jpg,MS,2,num_2,32,num_4,2.76659564418,,,2017_May_23_1551,60.0036758713,FEMA4ImagesEEG,001,100537,
AFSA21.JPG,AFNE22.JPG,AFNE21.JPG,AFSA23.JPG,AFSA22.JPG,AFNE23.JPG,,,,,0,7,7,0,,,,,,,,,,,,,,,,,,,AMSA15.jpg,AMSA14.jpg,AMNE09.jpg,AMNE05.jpg,AMNE05.jpg,MN,1,num_4,16,num_4,1.71674143639,,,2017_May_23_1551,60.0036758713,FEMA4ImagesEEG,001,100537,
AFNE23.JPG,AFNE24.JPG,AFNE22.JPG,AFSA24.JPG,AFSA22.JPG,AFSA23.JPG,,,,,0,8,8,8,,,,,,,,,,,,,,,,,,,AMSA06.jpg,AMNE15.jpg,AMNE12.jpg,AMSA13.jpg,AMSA13.jpg,MS,2,num_4,16,num_4,0.883484171936,,,2017_May_23_1551,60.0036758713,FEMA4ImagesEEG,001,100537,
AMNE23.JPG,AMNE24.JPG,AMNE22.JPG,AMSA24.JPG,AMSA22.JPG,AMSA23.JPG,,,,,0,9,9,9,,,,,,,,,,,,,,,,,,,AMSA08.jpg,AMNE14.jpg,AMNE17.jpg,AMSA16.jpg,AMSA16.jpg,MS,2,num_4,32,num_6,1.40007300035,,,2017_May_23_1551,60.0036758713,FEMA4ImagesEEG,001,100537,
AMNE23.JPG,AMNE24.JPG,AMNE22.JPG,AMSA24.JPG,AMSA22.JPG,AMSA23.JPG,,,,,,,,,0,0,0,9,,,,,,,,,,,,,,,AFSA15.jpg,AFNE15.jpg,AFSA09.jpg,AFNE12.jpg,AFNE15.jpg,FN,3,num_6,16,num_6,1.40003515314,,,2017_May_23_1551,60.0036758713,FEMA4ImagesEEG,001,100537,
AFSA21.JPG,AFNE23.JPG,AFNE21.JPG,AFSA25.JPG,AFNE25.JPG,AFSA23.JPG,,,,,,,,,0,1,1,4,,,,,,,,,,,,,,,AFNE13.jpg,AFSA15.jpg,AFNE03.jpg,AFSA11.jpg,AFNE03.jpg,FN,3,num_2,32,num_8,3.06662890478,,,2017_May_23_1551,60.0036758713,FEMA4ImagesEEG,001,100537,
AMSA25.JPG,AMNE24.JPG,AMSA24.JPG,AMNE26.JPG,AMSA21.JPG,AMNE25.JPG,,,,,,,,,0,2,2,3,,,,,,,,,,,,,,,AFNE02.jpg,AFSA04.jpg,AFNE15.jpg,AFSA06.jpg,AFSA06.jpg,FS,4,num_4,16,num_4,1.93335794483,,,2017_May_23_1551,60.0036758713,FEMA4ImagesEEG,001,100537,
AFNE22.JPG,AFSA24.JPG,AFSA22.JPG,AFNE25.JPG,AFNE24.JPG,AFSA25.JPG,,,,,,,,,0,3,3,6,,,,,,,,,,,,,,,AFNE19.jpg,AFNE14.jpg,AFSA19.jpg,AFSA07.jpg,AFSA19.jpg,FS,4,num_2,16,num_2,0.933282250073,,,2017_May_23_1551,60.0036758713,FEMA4ImagesEEG,001,100537,
AFNE23.JPG,AFNE24.JPG,AFNE22.JPG,AFSA24.JPG,AFSA22.JPG,AFSA23.JPG,,,,,,,,,0,4,4,8,,,,,,,,,,,,,,,AFSA10.jpg,AFNE18.jpg,AFSA05.jpg,AFNE05.jpg,AFNE05.jpg,FN,3,num_4,16,num_4,1.61670779088,,,2017_May_23_1551,60.0036758713,FEMA4ImagesEEG,001,100537,
AFSA21.JPG,AFNE22.JPG,AFNE21.JPG,AFSA23.JPG,AFSA22.JPG,AFNE23.JPG,,,,,,,,,0,5,5,0,,,,,,,,,,,,,,,AFSA04.jpg,AFNE02.jpg,AFNE09.jpg,AFSA03.jpg,AFNE09.jpg,FN,3,num_2,32,num_6,2.21634708671,,,2017_May_23_1551,60.0036758713,FEMA4ImagesEEG,001,100537,
AMSA21.JPG,AMNE22.JPG,AMNE21.JPG,AMSA23.JPG,AMSA22.JPG,AMNE23.JPG,,,,,,,,,0,6,6,1,,,,,,,,,,,,,,,AFNE12.jpg,AFSA17.jpg,AFSA06.jpg,AFNE03.jpg,AFNE03.jpg,FN,3,num_4,16,num_4,1.65006313764,,,2017_May_23_1551,60.0036758713,FEMA4ImagesEEG,001,100537,
AMNE22.JPG,AMSA24.JPG,AMSA22.JPG,AMNE25.JPG,AMNE24.JPG,AMSA25.JPG,,,,,,,,,0,7,7,7,,,,,,,,,,,,,,,AFNE04.jpg,AFNE03.jpg,AFSA03.jpg,AFSA02.jpg,AFNE03.jpg,FN,3,num_6,16,num_6,0.666814741562,,,2017_May_23_1551,60.0036758713,FEMA4ImagesEEG,001,100537,
AMSA21.JPG,AMNE23.JPG,AMNE21.JPG,AMSA25.JPG,AMNE25.JPG,AMSA23.JPG,,,,,,,,,0,8,8,5,,,,,,,,,,,,,,,AFNE12.jpg,AFNE09.jpg,AFSA17.jpg,AFSA12.jpg,AFSA12.jpg,FS,4,num_4,16,num_4,1.81675583764,,,2017_May_23_1551,60.0036758713,FEMA4ImagesEEG,001,100537,
AFSA25.JPG,AFNE24.JPG,AFSA24.JPG,AFNE21.JPG,AFSA21.JPG,AFNE25.JPG,,,,,,,,,0,9,9,2,,,,,,,,,,,,,,,AFNE02.jpg,AFSA15.jpg,AFSA14.jpg,AFNE07.jpg,AFNE02.jpg,FN,3,num_8,32,num_4,1.20010674221,,,2017_May_23_1551,60.0036758713,FEMA4ImagesEEG,001,100537,
AMSA21.JPG,AMNE22.JPG,AMNE21.JPG,AMSA23.JPG,AMSA22.JPG,AMNE23.JPG,,,,,,,,,,,,,0,0,0,1,,,,,,,,,,,AMNE17.jpg,AMSA03.jpg,AMNE19.jpg,AMSA05.jpg,AMSA05.jpg,MS,2,num_4,32,num_8,1.75012885733,,,2017_May_23_1551,60.0036758713,FEMA4ImagesEEG,001,100537,
AFNE22.JPG,AFSA24.JPG,AFSA22.JPG,AFNE25.JPG,AFNE24.JPG,AFSA25.JPG,,,,,,,,,,,,,0,1,1,6,,,,,,,,,,,AMSA08.jpg,AMNE08.jpg,AMSA20.jpg,AMNE06.jpg,AMNE06.jpg,MN,1,num_4,32,num_6,1.21678072715,,,2017_May_23_1551,60.0036758713,FEMA4ImagesEEG,001,100537,
AFSA21.JPG,AFNE22.JPG,AFNE21.JPG,AFSA23.JPG,AFSA22.JPG,AFNE23.JPG,,,,,,,,,,,,,0,2,2,0,,,,,,,,,,,AMSA08.jpg,AMSA03.jpg,AMNE12.jpg,AMNE14.jpg,AMNE12.jpg,MN,1,num_2,32,num_4,1.43345208198,,,2017_May_23_1551,60.0036758713,FEMA4ImagesEEG,001,100537,
AFNE23.JPG,AFNE24.JPG,AFNE22.JPG,AFSA24.JPG,AFSA22.JPG,AFSA23.JPG,,,,,,,,,,,,,0,3,3,8,,,,,,,,,,,AMNE19.jpg,AMSA15.jpg,AMSA04.jpg,AMNE18.jpg,AMNE19.jpg,MN,1,num_8,32,num_4,0.99997851043,,,2017_May_23_1551,60.0036758713,FEMA4ImagesEEG,001,100537,
AMNE23.JPG,AMNE24.JPG,AMNE22.JPG,AMSA24.JPG,AMSA22.JPG,AMSA23.JPG,,,,,,,,,,,,,0,4,4,9,,,,,,,,,,,AMNE06.jpg,AMNE04.jpg,AMSA01.jpg,AMSA18.jpg,AMNE06.jpg,MN,1,num_8,16,num_8,0.850166030927,,,2017_May_23_1551,60.0036758713,FEMA4ImagesEEG,001,100537,
AFSA21.JPG,AFNE23.JPG,AFNE21.JPG,AFSA25.JPG,AFNE25.JPG,AFSA23.JPG,,,,,,,,,,,,,0,5,5,4,,,,,,,,,,,AMNE16.jpg,AMSA18.jpg,AMSA01.jpg,AMNE12.jpg,AMSA18.jpg,MS,2,num_6,16,num_6,1.61644863302,,,2017_May_23_1551,60.0036758713,FEMA4ImagesEEG,001,100537,
AMSA25.JPG,AMNE24.JPG,AMSA24.JPG,AMNE26.JPG,AMSA21.JPG,AMNE25.JPG,,,,,,,,,,,,,0,6,6,3,,,,,,,,,,,AMSA07.jpg,AMNE18.jpg,AMSA11.jpg,AMNE17.jpg,AMNE18.jpg,MN,1,num_6,16,num_6,1.35007766716,,,2017_May_23_1551,60.0036758713,FEMA4ImagesEEG,001,100537,
AMNE22.JPG,AMSA24.JPG,AMSA22.JPG,AMNE25.JPG,AMNE24.JPG,AMSA25.JPG,,,,,,,,,,,,,0,7,7,7,,,,,,,,,,,AMNE20.jpg,AMSA20.jpg,AMNE11.jpg,AMSA06.jpg,AMNE20.jpg,MN,1,num_8,32,num_6,2.40004766197,,,2017_May_23_1551,60.0036758713,FEMA4ImagesEEG,001,100537,
AFSA25.JPG,AFNE24.JPG,AFSA24.JPG,AFNE21.JPG,AFSA21.JPG,AFNE25.JPG,,,,,,,,,,,,,0,8,8,2,,,,,,,,,,,AMSA03.jpg,AMSA01.jpg,AMNE01.jpg,AMNE07.jpg,AMSA01.jpg,MS,2,num_6,16,num_6,0.71686780802,,,2017_May_23_1551,60.0036758713,FEMA4ImagesEEG,001,100537,
AMSA21.JPG,AMNE23.JPG,AMNE21.JPG,AMSA25.JPG,AMNE25.JPG,AMSA23.JPG,,,,,,,,,,,,,0,9,9,5,,,,,,,,,,,AMSA19.jpg,AMSA12.jpg,AMNE08.jpg,AMNE12.jpg,AMSA12.jpg,MS,2,num_6,32,num_8,1.53337475157,,,2017_May_23_1551,60.0036758713,FEMA4ImagesEEG,001,100537,
AMNE22.JPG,AMSA24.JPG,AMSA22.JPG,AMNE25.JPG,AMNE24.JPG,AMSA25.JPG,,,,,,,,,,,,,,,,,0,0,0,7,,,,,,,AFSA05.jpg,AFSA03.jpg,AFNE01.jpg,AFNE18.jpg,AFNE18.jpg,FN,3,num_4,16,num_4,1.24995710107,,,2017_May_23_1551,60.0036758713,FEMA4ImagesEEG,001,100537,
AFNE23.JPG,AFNE24.JPG,AFNE22.JPG,AFSA24.JPG,AFSA22.JPG,AFSA23.JPG,,,,,,,,,,,,,,,,,0,1,1,8,,,,,,,AFSA06.jpg,AFNE12.jpg,AFSA16.jpg,AFNE01.jpg,AFNE01.jpg,FN,3,num_4,16,num_4,0.866805376019,,,2017_May_23_1551,60.0036758713,FEMA4ImagesEEG,001,100537,
AMSA21.JPG,AMNE22.JPG,AMNE21.JPG,AMSA23.JPG,AMSA22.JPG,AMNE23.JPG,,,,,,,,,,,,,,,,,0,2,2,1,,,,,,,AFSA03.jpg,AFNE17.jpg,AFNE14.jpg,AFSA14.jpg,AFSA14.jpg,FS,4,num_4,16,num_4,1.05012266699,,,2017_May_23_1551,60.0036758713,FEMA4ImagesEEG,001,100537,
AFNE22.JPG,AFSA24.JPG,AFSA22.JPG,AFNE25.JPG,AFNE24.JPG,AFSA25.JPG,,,,,,,,,,,,,,,,,0,3,3,6,,,,,,,AFSA09.jpg,AFSA20.jpg,AFNE06.jpg,AFNE07.jpg,AFSA20.jpg,FS,4,num_6,16,num_6,0.866774584982,,,2017_May_23_1551,60.0036758713,FEMA4ImagesEEG,001,100537,
AFSA21.JPG,AFNE22.JPG,AFNE21.JPG,AFSA23.JPG,AFSA22.JPG,AFNE23.JPG,,,,,,,,,,,,,,,,,0,4,4,0,,,,,,,AFNE19.jpg,AFSA11.jpg,AFSA04.jpg,AFNE02.jpg,AFSA11.jpg,FS,4,num_6,32,num_8,1.70004981093,,,2017_May_23_1551,60.0036758713,FEMA4ImagesEEG,001,100537,
AFSA21.JPG,AFNE23.JPG,AFNE21.JPG,AFSA25.JPG,AFNE25.JPG,AFSA23.JPG,,,,,,,,,,,,,,,,,0,5,5,4,,,,,,,AFSA15.jpg,AFSA01.jpg,AFNE05.jpg,AFNE16.jpg,AFSA01.jpg,FS,4,num_6,32,num_8,1.25007513328,,,2017_May_23_1551,60.0036758713,FEMA4ImagesEEG,001,100537,
AMSA21.JPG,AMNE23.JPG,AMNE21.JPG,AMSA25.JPG,AMNE25.JPG,AMSA23.JPG,,,,,,,,,,,,,,,,,0,6,6,5,,,,,,,AFSA16.jpg,AFNE14.jpg,AFSA07.jpg,AFNE07.jpg,AFSA16.jpg,FS,4,num_8,16,num_8,1.45008116332,,,2017_May_23_1551,60.0036758713,FEMA4ImagesEEG,001,100537,
AMNE23.JPG,AMNE24.JPG,AMNE22.JPG,AMSA24.JPG,AMSA22.JPG,AMSA23.JPG,,,,,,,,,,,,,,,,,0,7,7,9,,,,,,,AFSA09.jpg,AFSA11.jpg,AFNE14.jpg,AFNE19.jpg,AFNE19.jpg,FN,3,num_4,16,num_4,0.78345116775,,,2017_May_23_1551,60.0036758713,FEMA4ImagesEEG,001,100537,
AMSA25.JPG,AMNE24.JPG,AMSA24.JPG,AMNE26.JPG,AMSA21.JPG,AMNE25.JPG,,,,,,,,,,,,,,,,,0,8,8,3,,,,,,,AFSA16.jpg,AFNE04.jpg,AFNE11.jpg,AFSA04.jpg,AFSA16.jpg,FS,4,num_8,32,num_2,1.75038865663,,,2017_May_23_1551,60.0036758713,FEMA4ImagesEEG,001,100537,
AFSA25.JPG,AFNE24.JPG,AFSA24.JPG,AFNE21.JPG,AFSA21.JPG,AFNE25.JPG,,,,,,,,,,,,,,,,,0,9,9,2,,,,,,,AFSA16.jpg,AFNE13.jpg,AFNE05.jpg,AFSA04.jpg,AFSA16.jpg,FS,4,num_8,16,num_8,0.833484348375,,,2017_May_23_1551,60.0036758713,FEMA4ImagesEEG,001,100537,
AFSA25.JPG,AFNE24.JPG,AFSA24.JPG,AFNE21.JPG,AFSA21.JPG,AFNE25.JPG,,,,,,,,,,,,,,,,,,,,,0,0,0,2,,,AMSA16.jpg,AMNE03.jpg,AMSA01.jpg,AMNE20.jpg,AMSA16.jpg,MS,2,num_8,16,num_8,0.950114039122,,,2017_May_23_1551,60.0036758713,FEMA4ImagesEEG,001,100537,
AFSA21.JPG,AFNE23.JPG,AFNE21.JPG,AFSA25.JPG,AFNE25.JPG,AFSA23.JPG,,,,,,,,,,,,,,,,,,,,,0,1,1,4,,,AMSA03.jpg,AMNE17.jpg,AMNE15.jpg,AMSA02.jpg,AMSA02.jpg,MS,2,num_4,16,num_4,0.833452274324,,,2017_May_23_1551,60.0036758713,FEMA4ImagesEEG,001,100537,
AMNE23.JPG,AMNE24.JPG,AMNE22.JPG,AMSA24.JPG,AMSA22.JPG,AMSA23.JPG,,,,,,,,,,,,,,,,,,,,,0,2,2,9,,,AMSA02.jpg,AMNE04.jpg,AMNE13.jpg,AMSA05.jpg,AMNE04.jpg,MN,1,num_6,16,num_6,0.683543573017,,,2017_May_23_1551,60.0036758713,FEMA4ImagesEEG,001,100537,
AFSA21.JPG,AFNE22.JPG,AFNE21.JPG,AFSA23.JPG,AFSA22.JPG,AFNE23.JPG,,,,,,,,,,,,,,,,,,,,,0,3,3,0,,,AMSA02.jpg,AMNE04.jpg,AMSA18.jpg,AMNE02.jpg,AMSA18.jpg,MS,2,num_2,32,num_4,1.900048143,,,2017_May_23_1551,60.0036758713,FEMA4ImagesEEG,001,100537,
AMSA21.JPG,AMNE22.JPG,AMNE21.JPG,AMSA23.JPG,AMSA22.JPG,AMNE23.JPG,,,,,,,,,,,,,,,,,,,,,0,4,4,1,,,AMNE04.jpg,AMNE13.jpg,AMSA02.jpg,AMSA11.jpg,AMNE04.jpg,MN,1,num_8,16,num_8,0.800098531297,,,2017_May_23_1551,60.0036758713,FEMA4ImagesEEG,001,100537,
AMNE22.JPG,AMSA24.JPG,AMSA22.JPG,AMNE25.JPG,AMNE24.JPG,AMSA25.JPG,,,,,,,,,,,,,,,,,,,,,0,5,5,7,,,AMNE04.jpg,AMSA20.jpg,AMSA19.jpg,AMNE10.jpg,AMNE10.jpg,MN,1,num_4,32,num_2,1.75004065374,,,2017_May_23_1551,60.0036758713,FEMA4ImagesEEG,001,100537,
AMSA25.JPG,AMNE24.JPG,AMSA24.JPG,AMNE26.JPG,AMSA21.JPG,AMNE25.JPG,,,,,,,,,,,,,,,,,,,,,0,6,6,3,,,AMSA19.jpg,AMNE04.jpg,AMSA13.jpg,AMNE02.jpg,AMNE04.jpg,MN,1,num_6,32,num_4,0.916847216547,,,2017_May_23_1551,60.0036758713,FEMA4ImagesEEG,001,100537,
AMSA21.JPG,AMNE23.JPG,AMNE21.JPG,AMSA25.JPG,AMNE25.JPG,AMSA23.JPG,,,,,,,,,,,,,,,,,,,,,0,7,7,5,,,AMNE16.jpg,AMSA05.jpg,AMSA18.jpg,AMNE12.jpg,AMNE12.jpg,MN,1,num_4,32,num_2,3.69989168621,,,2017_May_23_1551,60.0036758713,FEMA4ImagesEEG,001,100537,
AFNE22.JPG,AFSA24.JPG,AFSA22.JPG,AFNE25.JPG,AFNE24.JPG,AFSA25.JPG,,,,,,,,,,,,,,,,,,,,,0,8,8,6,,,AMNE07.jpg,AMSA13.jpg,AMSA12.jpg,AMNE16.jpg,AMNE07.jpg,MN,1,num_8,16,num_8,0.700074187131,,,2017_May_23_1551,60.0036758713,FEMA4ImagesEEG,001,100537,
AFNE23.JPG,AFNE24.JPG,AFNE22.JPG,AFSA24.JPG,AFSA22.JPG,AFSA23.JPG,,,,,,,,,,,,,,,,,,,,,0,9,9,8,,,AMSA16.jpg,AMSA03.jpg,AMNE20.jpg,AMNE03.jpg,AMNE03.jpg,MN,1,num_4,16,num_4,0.649979745271,,,2017_May_23_1551,60.0036758713,FEMA4ImagesEEG,001,100537,
,,,,,,,,,,,,,,,,,,,,,,,,,,,,,,,,,,,,,,,,,,,space,4.93315010529,2017_May_23_1551,60.0036758713,FEMA4ImagesEEG,001,100537,
AFNE01.JPG,AFNE01.JPG,AFNE01.JPG,AFNE01.JPG,AFNE01.JPG,AFNE01.JPG,0,0,0,1,,,,,,,,,,,,,,,,,,,,,,,AFSA14.jpg,AFNE07.jpg,AFNE13.jpg,AFSA08.jpg,AFSA14.jpg,FS,4,num_8,32,num_6,1.80004689214,,,2017_May_23_1551,60.0036758713,FEMA4ImagesEEG,001,100537,
AFNE01.JPG,AFNE01.JPG,AFNE01.JPG,AFNE01.JPG,AFNE01.JPG,AFNE01.JPG,0,1,1,9,,,,,,,,,,,,,,,,,,,,,,,AFSA06.jpg,AFSA05.jpg,AFNE19.jpg,AFNE03.jpg,AFNE03.jpg,FN,3,num_4,32,num_6,1.2835449843,,,2017_May_23_1551,60.0036758713,FEMA4ImagesEEG,001,100537,
AFNE01.JPG,AFNE01.JPG,AFNE01.JPG,AFNE01.JPG,AFNE01.JPG,AFNE01.JPG,0,2,2,0,,,,,,,,,,,,,,,,,,,,,,,AFSA02.jpg,AFNE03.jpg,AFNE07.jpg,AFSA11.jpg,AFSA11.jpg,FS,4,num_4,32,num_8,2.05005434935,,,2017_May_23_1551,60.0036758713,FEMA4ImagesEEG,001,100537,
AFNE01.JPG,AFNE01.JPG,AFNE01.JPG,AFNE01.JPG,AFNE01.JPG,AFNE01.JPG,0,3,3,6,,,,,,,,,,,,,,,,,,,,,,,AFSA19.jpg,AFSA17.jpg,AFNE02.jpg,AFNE09.jpg,AFNE09.jpg,FN,3,num_4,16,num_4,0.999992943718,,,2017_May_23_1551,60.0036758713,FEMA4ImagesEEG,001,100537,
AFNE01.JPG,AFNE01.JPG,AFNE01.JPG,AFNE01.JPG,AFNE01.JPG,AFNE01.JPG,0,4,4,8,,,,,,,,,,,,,,,,,,,,,,,AFSA03.jpg,AFNE18.jpg,AFNE06.jpg,AFSA10.jpg,AFSA10.jpg,FS,4,num_4,16,num_4,0.616767769214,,,2017_May_23_1551,60.0036758713,FEMA4ImagesEEG,001,100537,
AFNE01.JPG,AFNE01.JPG,AFNE01.JPG,AFNE01.JPG,AFNE01.JPG,AFNE01.JPG,0,5,5,4,,,,,,,,,,,,,,,,,,,,,,,AFSA17.jpg,AFNE01.jpg,AFNE03.jpg,AFSA07.jpg,AFNE01.jpg,FN,3,num_6,16,num_6,0.983513327315,,,2017_May_23_1551,60.0036758713,FEMA4ImagesEEG,001,100537,
AFNE01.JPG,AFNE01.JPG,AFNE01.JPG,AFNE01.JPG,AFNE01.JPG,AFNE01.JPG,0,6,6,3,,,,,,,,,,,,,,,,,,,,,,,AFNE14.jpg,AFSA14.jpg,AFNE18.jpg,AFSA12.jpg,AFSA14.jpg,FS,4,num_6,16,num_6,1.24995549733,,,2017_May_23_1551,60.0036758713,FEMA4ImagesEEG,001,100537,
AFNE01.JPG,AFNE01.JPG,AFNE01.JPG,AFNE01.JPG,AFNE01.JPG,AFNE01.JPG,0,7,7,5,,,,,,,,,,,,,,,,,,,,,,,AFSA10.jpg,AFSA07.jpg,AFNE09.jpg,AFNE20.jpg,AFNE20.jpg,FN,3,num_4,16,num_4,0.75005829439,,,2017_May_23_1551,60.0036758713,FEMA4ImagesEEG,001,100537,
AFNE01.JPG,AFNE01.JPG,AFNE01.JPG,AFNE01.JPG,AFNE01.JPG,AFNE01.JPG,0,8,8,7,,,,,,,,,,,,,,,,,,,,,,,AFNE15.jpg,AFSA16.jpg,AFNE14.jpg,AFSA10.jpg,AFSA10.jpg,FS,4,num_4,16,num_4,1.85005794175,,,2017_May_23_1551,60.0036758713,FEMA4ImagesEEG,001,100537,
AFNE01.JPG,AFNE01.JPG,AFNE01.JPG,AFNE01.JPG,AFNE01.JPG,AFNE01.JPG,0,9,9,2,,,,,,,,,,,,,,,,,,,,,,,AFSA16.jpg,AFNE15.jpg,AFNE10.jpg,AFSA01.jpg,AFSA16.jpg,FS,4,num_8,32,num_4,1.43347517517,,,2017_May_23_1551,60.0036758713,FEMA4ImagesEEG,001,100537,
AFNE01.JPG,AFNE01.JPG,AFNE01.JPG,AFNE01.JPG,AFNE01.JPG,AFNE01.JPG,1,0,10,1,,,,,,,,,,,,,,,,,,,,,,,AFNE07.jpg,AFSA20.jpg,AFSA10.jpg,AFNE04.jpg,AFSA20.jpg,FS,4,num_6,32,num_2,1.75001756055,,,2017_May_23_1551,60.0036758713,FEMA4ImagesEEG,001,100537,
AFNE01.JPG,AFNE01.JPG,AFNE01.JPG,AFNE01.JPG,AFNE01.JPG,AFNE01.JPG,1,1,11,4,,,,,,,,,,,,,,,,,,,,,,,AFNE15.jpg,AFNE09.jpg,AFSA16.jpg,AFSA10.jpg,AFNE15.jpg,FN,3,num_8,32,num_6,1.41672196763,,,2017_May_23_1551,60.0036758713,FEMA4ImagesEEG,001,100537,
AFNE01.JPG,AFNE01.JPG,AFNE01.JPG,AFNE01.JPG,AFNE01.JPG,AFNE01.JPG,1,2,12,8,,,,,,,,,,,,,,,,,,,,,,,AFNE05.jpg,AFNE08.jpg,AFSA20.jpg,AFSA14.jpg,AFNE05.jpg,FN,3,num_8,32,num_6,1.55007086752,,,2017_May_23_1551,60.0036758713,FEMA4ImagesEEG,001,100537,
AFNE01.JPG,AFNE01.JPG,AFNE01.JPG,AFNE01.JPG,AFNE01.JPG,AFNE01.JPG,1,3,13,6,,,,,,,,,,,,,,,,,,,,,,,AFNE01.jpg,AFSA11.jpg,AFSA09.jpg,AFNE04.jpg,AFSA09.jpg,FS,4,num_2,16,num_2,0.750134951319,,,2017_May_23_1551,60.0036758713,FEMA4ImagesEEG,001,100537,
AFNE01.JPG,AFNE01.JPG,AFNE01.JPG,AFNE01.JPG,AFNE01.JPG,AFNE01.JPG,1,4,14,5,,,,,,,,,,,,,,,,,,,,,,,AFSA17.jpg,AFNE15.jpg,AFNE14.jpg,AFSA02.jpg,AFSA17.jpg,FS,4,num_8,32,num_4,1.41673126898,,,2017_May_23_1551,60.0036758713,FEMA4ImagesEEG,001,100537,
AFNE01.JPG,AFNE01.JPG,AFNE01.JPG,AFNE01.JPG,AFNE01.JPG,AFNE01.JPG,1,5,15,2,,,,,,,,,,,,,,,,,,,,,,,AFNE18.jpg,AFSA04.jpg,AFNE08.jpg,AFSA09.jpg,AFSA04.jpg,FS,4,num_6,16,num_6,1.68338641047,,,2017_May_23_1551,60.0036758713,FEMA4ImagesEEG,001,100537,
AFNE01.JPG,AFNE01.JPG,AFNE01.JPG,AFNE01.JPG,AFNE01.JPG,AFNE01.JPG,1,6,16,9,,,,,,,,,,,,,,,,,,,,,,,AFSA10.jpg,AFNE09.jpg,AFSA09.jpg,AFNE18.jpg,AFNE09.jpg,FN,3,num_6,32,num_4,1.26674623159,,,2017_May_23_1551,60.0036758713,FEMA4ImagesEEG,001,100537,
AFNE01.JPG,AFNE01.JPG,AFNE01.JPG,AFNE01.JPG,AFNE01.JPG,AFNE01.JPG,1,7,17,7,,,,,,,,,,,,,,,,,,,,,,,AFSA09.jpg,AFSA01.jpg,AFNE19.jpg,AFNE17.jpg,AFNE19.jpg,FN,3,num_2,16,num_2,1.76675825927,,,2017_May_23_1551,60.0036758713,FEMA4ImagesEEG,001,100537,
AFNE01.JPG,AFNE01.JPG,AFNE01.JPG,AFNE01.JPG,AFNE01.JPG,AFNE01.JPG,1,8,18,0,,,,,,,,,,,,,,,,,,,,,,,AFSA02.jpg,AFNE05.jpg,AFSA17.jpg,AFNE18.jpg,AFNE05.jpg,FN,3,num_6,32,num_4,1.11678236292,,,2017_May_23_1551,60.0036758713,FEMA4ImagesEEG,001,100537,
AFNE01.JPG,AFNE01.JPG,AFNE01.JPG,AFNE01.JPG,AFNE01.JPG,AFNE01.JPG,1,9,19,3,,,,,,,,,,,,,,,,,,,,,,,AFNE01.jpg,AFSA06.jpg,AFSA13.jpg,AFNE20.jpg,AFSA13.jpg,FS,4,num_2,16,num_2,1.66670023743,,,2017_May_23_1551,60.0036758713,FEMA4ImagesEEG,001,100537,
AFNE01.JPG,AFNE01.JPG,AFNE01.JPG,AFNE01.JPG,AFNE01.JPG,AFNE01.JPG,2,0,20,4,,,,,,,,,,,,,,,,,,,,,,,AFSA08.jpg,AFSA15.jpg,AFNE19.jpg,AFNE02.jpg,AFSA15.jpg,FS,4,num_6,32,num_8,1.91672886349,,,2017_May_23_1551,60.0036758713,FEMA4ImagesEEG,001,100537,
AFNE01.JPG,AFNE01.JPG,AFNE01.JPG,AFNE01.JPG,AFNE01.JPG,AFNE01.JPG,2,1,21,0,,,,,,,,,,,,,,,,,,,,,,,AFSA20.jpg,AFNE17.jpg,AFSA04.jpg,AFNE09.jpg,AFNE17.jpg,FN,3,num_6,32,num_4,1.16676839464,,,2017_May_23_1551,60.0036758713,FEMA4ImagesEEG,001,100537,
AFNE01.JPG,AFNE01.JPG,AFNE01.JPG,AFNE01.JPG,AFNE01.JPG,AFNE01.JPG,2,2,22,8,,,,,,,,,,,,,,,,,,,,,,,AFNE13.jpg,AFNE14.jpg,AFSA09.jpg,AFSA02.jpg,AFNE14.jpg,FN,3,num_6,16,num_6,0.800153698656,,,2017_May_23_1551,60.0036758713,FEMA4ImagesEEG,001,100537,
AFNE01.JPG,AFNE01.JPG,AFNE01.JPG,AFNE01.JPG,AFNE01.JPG,AFNE01.JPG,2,3,23,5,,,,,,,,,,,,,,,,,,,,,,,AFSA06.jpg,AFNE06.jpg,AFSA05.jpg,AFNE16.jpg,AFSA05.jpg,FS,4,num_2,16,num_2,1.23340724246,,,2017_May_23_1551,60.0036758713,FEMA4ImagesEEG,001,100537,
AFNE01.JPG,AFNE01.JPG,AFNE01.JPG,AFNE01.JPG,AFNE01.JPG,AFNE01.JPG,2,4,24,9,,,,,,,,,,,,,,,,,,,,,,,AFSA10.jpg,AFNE06.jpg,AFNE20.jpg,AFSA03.jpg,AFSA03.jpg,FS,4,num_4,32,num_6,1.53345076693,,,2017_May_23_1551,60.0036758713,FEMA4ImagesEEG,001,100537,
AFNE01.JPG,AFNE01.JPG,AFNE01.JPG,AFNE01.JPG,AFNE01.JPG,AFNE01.JPG,2,5,25,6,,,,,,,,,,,,,,,,,,,,,,,AFNE10.jpg,AFSA20.jpg,AFNE05.jpg,AFSA13.jpg,AFNE05.jpg,FN,3,num_2,16,num_2,1.26671896863,,,2017_May_23_1551,60.0036758713,FEMA4ImagesEEG,001,100537,
AFNE01.JPG,AFNE01.JPG,AFNE01.JPG,AFNE01.JPG,AFNE01.JPG,AFNE01.JPG,2,6,26,7,,,,,,,,,,,,,,,,,,,,,,,AFSA07.jpg,AFNE07.jpg,AFNE01.jpg,AFSA05.jpg,AFNE01.jpg,FN,3,num_2,16,num_2,1.10012826382,,,2017_May_23_1551,60.0036758713,FEMA4ImagesEEG,001,100537,
AFNE01.JPG,AFNE01.JPG,AFNE01.JPG,AFNE01.JPG,AFNE01.JPG,AFNE01.JPG,2,7,27,3,,,,,,,,,,,,,,,,,,,,,,,AFNE17.jpg,AFSA04.jpg,AFSA08.jpg,AFNE15.jpg,AFSA08.jpg,FS,4,num_2,32,num_6,1.45008212549,,,2017_May_23_1551,60.0036758713,FEMA4ImagesEEG,001,100537,
AFNE01.JPG,AFNE01.JPG,AFNE01.JPG,AFNE01.JPG,AFNE01.JPG,AFNE01.JPG,2,8,28,2,,,,,,,,,,,,,,,,,,,,,,,AFSA17.jpg,AFNE18.jpg,AFSA08.jpg,AFNE07.jpg,AFNE18.jpg,FN,3,num_6,16,num_6,0.750100952806,,,2017_May_23_1551,60.0036758713,FEMA4ImagesEEG,001,100537,
AFNE01.JPG,AFNE01.JPG,AFNE01.JPG,AFNE01.JPG,AFNE01.JPG,AFNE01.JPG,2,9,29,1,,,,,,,,,,,,,,,,,,,,,,,AFSA08.jpg,AFNE03.jpg,AFSA12.jpg,AFNE07.jpg,AFNE03.jpg,FN,3,num_6,16,num_6,0.733469305676,,,2017_May_23_1551,60.0036758713,FEMA4ImagesEEG,001,100537,
AFNE01.JPG,AFNE01.JPG,AFNE01.JPG,AFNE01.JPG,AFNE01.JPG,AFNE01.JPG,3,0,30,9,,,,,,,,,,,,,,,,,,,,,,,AFNE16.jpg,AFSA08.jpg,AFNE10.jpg,AFSA17.jpg,AFSA08.jpg,FS,4,num_6,16,num_6,1.56670091092,,,2017_May_23_1551,60.0036758713,FEMA4ImagesEEG,001,100537,
AFNE01.JPG,AFNE01.JPG,AFNE01.JPG,AFNE01.JPG,AFNE01.JPG,AFNE01.JPG,3,1,31,1,,,,,,,,,,,,,,,,,,,,,,,AFNE16.jpg,AFSA19.jpg,AFNE09.jpg,AFSA13.jpg,AFNE16.jpg,FN,3,num_8,32,num_2,0.916780181811,,,2017_May_23_1551,60.0036758713,FEMA4ImagesEEG,001,100537,
AFNE01.JPG,AFNE01.JPG,AFNE01.JPG,AFNE01.JPG,AFNE01.JPG,AFNE01.JPG,3,2,32,5,,,,,,,,,,,,,,,,,,,,,,,AFSA17.jpg,AFNE18.jpg,AFSA19.jpg,AFNE20.jpg,AFNE18.jpg,FN,3,num_6,16,num_6,0.900098819984,,,2017_May_23_1551,60.0036758713,FEMA4ImagesEEG,001,100537,
AFNE01.JPG,AFNE01.JPG,AFNE01.JPG,AFNE01.JPG,AFNE01.JPG,AFNE01.JPG,3,3,33,6,,,,,,,,,,,,,,,,,,,,,,,AFNE09.jpg,AFSA13.jpg,AFSA14.jpg,AFNE05.jpg,AFSA13.jpg,FS,4,num_6,16,num_6,0.600149593083,,,2017_May_23_1551,60.0036758713,FEMA4ImagesEEG,001,100537,
AFNE01.JPG,AFNE01.JPG,AFNE01.JPG,AFNE01.JPG,AFNE01.JPG,AFNE01.JPG,3,4,34,4,,,,,,,,,,,,,,,,,,,,,,,AFNE06.jpg,AFSA14.jpg,AFSA15.jpg,AFNE12.jpg,AFNE12.jpg,FN,3,num_4,32,num_2,1.68340116448,,,2017_May_23_1551,60.0036758713,FEMA4ImagesEEG,001,100537,
AFNE01.JPG,AFNE01.JPG,AFNE01.JPG,AFNE01.JPG,AFNE01.JPG,AFNE01.JPG,3,5,35,2,,,,,,,,,,,,,,,,,,,,,,,AFNE09.jpg,AFSA17.jpg,AFSA09.jpg,AFNE02.jpg,AFNE02.jpg,FN,3,num_4,32,num_8,0.683472047909,,,2017_May_23_1551,60.0036758713,FEMA4ImagesEEG,001,100537,
AFNE01.JPG,AFNE01.JPG,AFNE01.JPG,AFNE01.JPG,AFNE01.JPG,AFNE01.JPG,3,6,36,7,,,,,,,,,,,,,,,,,,,,,,,AFNE10.jpg,AFSA02.jpg,AFSA08.jpg,AFNE19.jpg,AFNE19.jpg,FN,3,num_4,16,num_4,0.733467381215,,,2017_May_23_1551,60.0036758713,FEMA4ImagesEEG,001,100537,
AFNE01.JPG,AFNE01.JPG,AFNE01.JPG,AFNE01.JPG,AFNE01.JPG,AFNE01.JPG,3,7,37,8,,,,,,,,,,,,,,,,,,,,,,,AFNE01.jpg,AFSA11.jpg,AFSA05.jpg,AFNE08.jpg,AFNE08.jpg,FN,3,num_4,32,num_8,1.18354277115,,,2017_May_23_1551,60.0036758713,FEMA4ImagesEEG,001,100537,
AFNE01.JPG,AFNE01.JPG,AFNE01.JPG,AFNE01.JPG,AFNE01.JPG,AFNE01.JPG,3,8,38,3,,,,,,,,,,,,,,,,,,,,,,,AFNE17.jpg,AFSA06.jpg,AFNE14.jpg,AFSA15.jpg,AFSA15.jpg,FS,4,num_4,32,num_6,0.816867134417,,,2017_May_23_1551,60.0036758713,FEMA4ImagesEEG,001,100537,
AFNE01.JPG,AFNE01.JPG,AFNE01.JPG,AFNE01.JPG,AFNE01.JPG,AFNE01.JPG,3,9,39,0,,,,,,,,,,,,,,,,,,,,,,,AFNE02.jpg,AFNE07.jpg,AFSA05.jpg,AFSA01.jpg,AFNE07.jpg,FN,3,num_6,32,num_8,1.36675870838,,,2017_May_23_1551,60.0036758713,FEMA4ImagesEEG,001,100537,
AFNE01.JPG,AFNE01.JPG,AFNE01.JPG,AFNE01.JPG,AFNE01.JPG,AFNE01.JPG,4,0,40,9,,,,,,,,,,,,,,,,,,,,,,,AFSA10.jpg,AFSA07.jpg,AFNE04.jpg,AFNE02.jpg,AFSA07.jpg,FS,4,num_6,16,num_6,0.833446180332,,,2017_May_23_1551,60.0036758713,FEMA4ImagesEEG,001,100537,
AFNE01.JPG,AFNE01.JPG,AFNE01.JPG,AFNE01.JPG,AFNE01.JPG,AFNE01.JPG,4,1,41,6,,,,,,,,,,,,,,,,,,,,,,,AFSA01.jpg,AFNE15.jpg,AFNE14.jpg,AFSA04.jpg,AFNE15.jpg,FN,3,num_6,16,num_6,1.40006434044,,,2017_May_23_1551,60.0036758713,FEMA4ImagesEEG,001,100537,
AFNE01.JPG,AFNE01.JPG,AFNE01.JPG,AFNE01.JPG,AFNE01.JPG,AFNE01.JPG,4,2,42,8,,,,,,,,,,,,,,,,,,,,,,,AFSA16.jpg,AFNE07.jpg,AFSA04.jpg,AFNE16.jpg,AFNE07.jpg,FN,3,num_6,16,num_6,0.816760328016,,,2017_May_23_1551,60.0036758713,FEMA4ImagesEEG,001,100537,
AFNE01.JPG,AFNE01.JPG,AFNE01.JPG,AFNE01.JPG,AFNE01.JPG,AFNE01.JPG,4,3,43,2,,,,,,,,,,,,,,,,,,,,,,,AFSA19.jpg,AFSA15.jpg,AFNE02.jpg,AFNE03.jpg,AFSA15.jpg,FS,4,num_6,16,num_6,1.80004079815,,,2017_May_23_1551,60.0036758713,FEMA4ImagesEEG,001,100537,
AFNE01.JPG,AFNE01.JPG,AFNE01.JPG,AFNE01.JPG,AFNE01.JPG,AFNE01.JPG,4,4,44,1,,,,,,,,,,,,,,,,,,,,,,,AFNE15.jpg,AFSA10.jpg,AFNE01.jpg,AFSA12.jpg,AFNE01.jpg,FN,3,num_2,32,num_8,0.883473908296,,,2017_May_23_1551,60.0036758713,FEMA4ImagesEEG,001,100537,
AFNE01.JPG,AFNE01.JPG,AFNE01.JPG,AFNE01.JPG,AFNE01.JPG,AFNE01.JPG,4,5,45,7,,,,,,,,,,,,,,,,,,,,,,,AFSA18.jpg,AFNE17.jpg,AFNE10.jpg,AFSA01.jpg,AFSA01.jpg,FS,4,num_4,16,num_4,0.650117021985,,,2017_May_23_1551,60.0036758713,FEMA4ImagesEEG,001,100537,
AFNE01.JPG,AFNE01.JPG,AFNE01.JPG,AFNE01.JPG,AFNE01.JPG,AFNE01.JPG,4,6,46,5,,,,,,,,,,,,,,,,,,,,,,,AFSA04.jpg,AFNE04.jpg,AFNE19.jpg,AFSA09.jpg,AFNE04.jpg,FN,3,num_6,32,num_2,1.58338002779,,,2017_May_23_1551,60.0036758713,FEMA4ImagesEEG,001,100537,
AFNE01.JPG,AFNE01.JPG,AFNE01.JPG,AFNE01.JPG,AFNE01.JPG,AFNE01.JPG,4,7,47,3,,,,,,,,,,,,,,,,,,,,,,,AFSA11.jpg,AFNE03.jpg,AFNE02.jpg,AFSA04.jpg,AFNE02.jpg,FN,3,num_2,32,num_4,0.883417458041,,,2017_May_23_1551,60.0036758713,FEMA4ImagesEEG,001,100537,
AFNE01.JPG,AFNE01.JPG,AFNE01.JPG,AFNE01.JPG,AFNE01.JPG,AFNE01.JPG,4,8,48,4,,,,,,,,,,,,,,,,,,,,,,,AFNE10.jpg,AFSA06.jpg,AFSA20.jpg,AFNE09.jpg,AFSA06.jpg,FS,4,num_6,32,num_2,1.05011496926,,,2017_May_23_1551,60.0036758713,FEMA4ImagesEEG,001,100537,
AFNE01.JPG,AFNE01.JPG,AFNE01.JPG,AFNE01.JPG,AFNE01.JPG,AFNE01.JPG,4,9,49,0,,,,,,,,,,,,,,,,,,,,,,,AFNE13.jpg,AFSA09.jpg,AFSA01.jpg,AFNE19.jpg,AFNE19.jpg,FN,3,num_4,32,num_8,1.45009431359,,,2017_May_23_1551,60.0036758713,FEMA4ImagesEEG,001,100537,
AFNE01.JPG,AFNE01.JPG,AFNE01.JPG,AFNE01.JPG,AFNE01.JPG,AFNE01.JPG,5,0,50,4,,,,,,,,,,,,,,,,,,,,,,,AFSA20.jpg,AFSA16.jpg,AFNE09.jpg,AFNE10.jpg,AFNE10.jpg,FN,3,num_4,16,num_4,1.40007171733,,,2017_May_23_1551,60.0036758713,FEMA4ImagesEEG,001,100537,
AFNE01.JPG,AFNE01.JPG,AFNE01.JPG,AFNE01.JPG,AFNE01.JPG,AFNE01.JPG,5,1,51,7,,,,,,,,,,,,,,,,,,,,,,,AFNE04.jpg,AFNE08.jpg,AFSA04.jpg,AFSA07.jpg,AFNE08.jpg,FN,3,num_6,32,num_8,1.60008512437,,,2017_May_23_1551,60.0036758713,FEMA4ImagesEEG,001,100537,
AFNE01.JPG,AFNE01.JPG,AFNE01.JPG,AFNE01.JPG,AFNE01.JPG,AFNE01.JPG,5,2,52,8,,,,,,,,,,,,,,,,,,,,,,,AFSA20.jpg,AFSA02.jpg,AFNE03.jpg,AFNE09.jpg,AFSA20.jpg,FS,4,num_8,16,num_8,1.20008974301,,,2017_May_23_1551,60.0036758713,FEMA4ImagesEEG,001,100537,
AFNE01.JPG,AFNE01.JPG,AFNE01.JPG,AFNE01.JPG,AFNE01.JPG,AFNE01.JPG,5,3,53,5,,,,,,,,,,,,,,,,,,,,,,,AFNE10.jpg,AFNE14.jpg,AFSA20.jpg,AFSA19.jpg,AFNE14.jpg,FN,3,num_6,32,num_2,0.783445073874,,,2017_May_23_1551,60.0036758713,FEMA4ImagesEEG,001,100537,
AFNE01.JPG,AFNE01.JPG,AFNE01.JPG,AFNE01.JPG,AFNE01.JPG,AFNE01.JPG,5,4,54,3,,,,,,,,,,,,,,,,,,,,,,,AFNE13.jpg,AFSA05.jpg,AFSA14.jpg,AFNE16.jpg,AFSA05.jpg,FS,4,num_6,32,num_2,1.50003800774,,,2017_May_23_1551,60.0036758713,FEMA4ImagesEEG,001,100537,
AFNE01.JPG,AFNE01.JPG,AFNE01.JPG,AFNE01.JPG,AFNE01.JPG,AFNE01.JPG,5,5,55,2,,,,,,,,,,,,,,,,,,,,,,,AFNE06.jpg,AFSA04.jpg,AFNE07.jpg,AFSA18.jpg,AFNE07.jpg,FN,3,num_2,16,num_2,1.46670607489,,,2017_May_23_1551,60.0036758713,FEMA4ImagesEEG,001,100537,
AFNE01.JPG,AFNE01.JPG,AFNE01.JPG,AFNE01.JPG,AFNE01.JPG,AFNE01.JPG,5,6,56,1,,,,,,,,,,,,,,,,,,,,,,,AFSA05.jpg,AFSA06.jpg,AFNE19.jpg,AFNE18.jpg,AFSA06.jpg,FS,4,num_6,16,num_6,1.81670965115,,,2017_May_23_1551,60.0036758713,FEMA4ImagesEEG,001,100537,
AFNE01.JPG,AFNE01.JPG,AFNE01.JPG,AFNE01.JPG,AFNE01.JPG,AFNE01.JPG,5,7,57,0,,,,,,,,,,,,,,,,,,,,,,,AFNE17.jpg,AFSA04.jpg,AFNE11.jpg,AFSA16.jpg,AFSA04.jpg,FS,4,num_6,32,num_4,1.40008166037,,,2017_May_23_1551,60.0036758713,FEMA4ImagesEEG,001,100537,
AFNE01.JPG,AFNE01.JPG,AFNE01.JPG,AFNE01.JPG,AFNE01.JPG,AFNE01.JPG,5,8,58,6,,,,,,,,,,,,,,,,,,,,,,,AFNE01.jpg,AFSA11.jpg,AFSA12.jpg,AFNE03.jpg,AFNE03.jpg,FN,3,num_4,32,num_8,1.13342267007,,,2017_May_23_1551,60.0036758713,FEMA4ImagesEEG,001,100537,
AFNE01.JPG,AFNE01.JPG,AFNE01.JPG,AFNE01.JPG,AFNE01.JPG,AFNE01.JPG,5,9,59,9,,,,,,,,,,,,,,,,,,,,,,,AFNE17.jpg,AFSA11.jpg,AFNE04.jpg,AFSA20.jpg,AFNE17.jpg,FN,3,num_8,32,num_4,1.23342520394,,,2017_May_23_1551,60.0036758713,FEMA4ImagesEEG,001,100537,
,,,,,,,,,,,,,,,,,,,,,,,,,,,,,,,,,,,,,,,,,,,space,10.2496430967,2017_May_23_1551,60.0036758713,FEMA4ImagesEEG,001,100537,
AFNE01.JPG,AFNE01.JPG,AFNE01.JPG,AFNE01.JPG,AFNE01.JPG,AFNE01.JPG,,,,,0,0,0,5,,,,,,,,,,,,,,,,,,,AMSA10.jpg,AMNE11.jpg,AMSA14.jpg,AMNE15.jpg,AMNE15.jpg,MN,1,num_4,16,num_4,0.916785955196,,,2017_May_23_1551,60.0036758713,FEMA4ImagesEEG,001,100537,
AFNE01.JPG,AFNE01.JPG,AFNE01.JPG,AFNE01.JPG,AFNE01.JPG,AFNE01.JPG,,,,,0,1,1,2,,,,,,,,,,,,,,,,,,,AMNE13.jpg,AMNE02.jpg,AMSA04.jpg,AMSA20.jpg,AMNE13.jpg,MN,1,num_8,32,num_6,1.21672780509,,,2017_May_23_1551,60.0036758713,FEMA4ImagesEEG,001,100537,
AFNE01.JPG,AFNE01.JPG,AFNE01.JPG,AFNE01.JPG,AFNE01.JPG,AFNE01.JPG,,,,,0,2,2,4,,,,,,,,,,,,,,,,,,,AMNE14.jpg,AMSA16.jpg,AMNE20.jpg,AMSA17.jpg,AMSA17.jpg,MS,2,num_4,32,num_8,1.00010488194,,,2017_May_23_1551,60.0036758713,FEMA4ImagesEEG,001,100537,
AFNE01.JPG,AFNE01.JPG,AFNE01.JPG,AFNE01.JPG,AFNE01.JPG,AFNE01.JPG,,,,,0,3,3,8,,,,,,,,,,,,,,,,,,,AMNE03.jpg,AMSA19.jpg,AMNE13.jpg,AMSA20.jpg,AMSA19.jpg,MS,2,num_6,32,num_8,2.06665231893,,,2017_May_23_1551,60.0036758713,FEMA4ImagesEEG,001,100537,
AFNE01.JPG,AFNE01.JPG,AFNE01.JPG,AFNE01.JPG,AFNE01.JPG,AFNE01.JPG,,,,,0,4,4,1,,,,,,,,,,,,,,,,,,,AMNE05.jpg,AMSA05.jpg,AMSA06.jpg,AMNE02.jpg,AMNE05.jpg,MN,1,num_8,16,num_8,0.916770559619,,,2017_May_23_1551,60.0036758713,FEMA4ImagesEEG,001,100537,
AFNE01.JPG,AFNE01.JPG,AFNE01.JPG,AFNE01.JPG,AFNE01.JPG,AFNE01.JPG,,,,,0,5,5,7,,,,,,,,,,,,,,,,,,,AMNE04.jpg,AMNE13.jpg,AMSA17.jpg,AMSA03.jpg,AMNE13.jpg,MN,1,num_6,32,num_8,0.866762076039,,,2017_May_23_1551,60.0036758713,FEMA4ImagesEEG,001,100537,
AFNE01.JPG,AFNE01.JPG,AFNE01.JPG,AFNE01.JPG,AFNE01.JPG,AFNE01.JPG,,,,,0,6,6,0,,,,,,,,,,,,,,,,,,,AMNE13.jpg,AMSA06.jpg,AMSA05.jpg,AMNE02.jpg,AMNE13.jpg,MN,1,num_8,32,num_6,0.750125329127,,,2017_May_23_1551,60.0036758713,FEMA4ImagesEEG,001,100537,
AFNE01.JPG,AFNE01.JPG,AFNE01.JPG,AFNE01.JPG,AFNE01.JPG,AFNE01.JPG,,,,,0,7,7,6,,,,,,,,,,,,,,,,,,,AMSA14.jpg,AMNE03.jpg,AMNE05.jpg,AMSA07.jpg,AMSA14.jpg,MS,2,num_8,16,num_8,1.21679836779,,,2017_May_23_1551,60.0036758713,FEMA4ImagesEEG,001,100537,
AFNE01.JPG,AFNE01.JPG,AFNE01.JPG,AFNE01.JPG,AFNE01.JPG,AFNE01.JPG,,,,,0,8,8,9,,,,,,,,,,,,,,,,,,,AMSA01.jpg,AMNE10.jpg,AMSA11.jpg,AMNE16.jpg,AMNE10.jpg,MN,1,num_6,16,num_6,1.10006956849,,,2017_May_23_1551,60.0036758713,FEMA4ImagesEEG,001,100537,
AFNE01.JPG,AFNE01.JPG,AFNE01.JPG,AFNE01.JPG,AFNE01.JPG,AFNE01.JPG,,,,,0,9,9,3,,,,,,,,,,,,,,,,,,,AMSA20.jpg,AMNE05.jpg,AMSA15.jpg,AMNE14.jpg,AMNE05.jpg,MN,1,num_6,32,num_4,0.816914283205,,,2017_May_23_1551,60.0036758713,FEMA4ImagesEEG,001,100537,
AFNE01.JPG,AFNE01.JPG,AFNE01.JPG,AFNE01.JPG,AFNE01.JPG,AFNE01.JPG,,,,,1,0,10,1,,,,,,,,,,,,,,,,,,,AMNE06.jpg,AMSA16.jpg,AMNE07.jpg,AMSA20.jpg,AMSA20.jpg,MS,2,num_4,16,num_4,0.883463323815,,,2017_May_23_1551,60.0036758713,FEMA4ImagesEEG,001,100537,
AFNE01.JPG,AFNE01.JPG,AFNE01.JPG,AFNE01.JPG,AFNE01.JPG,AFNE01.JPG,,,,,1,1,11,5,,,,,,,,,,,,,,,,,,,AMSA17.jpg,AMSA05.jpg,AMNE01.jpg,AMNE08.jpg,AMSA17.jpg,MS,2,num_8,32,num_6,1.81671125488,,,2017_May_23_1551,60.0036758713,FEMA4ImagesEEG,001,100537,
AFNE01.JPG,AFNE01.JPG,AFNE01.JPG,AFNE01.JPG,AFNE01.JPG,AFNE01.JPG,,,,,1,2,12,4,,,,,,,,,,,,,,,,,,,AMNE07.jpg,AMSA03.jpg,AMNE02.jpg,AMSA18.jpg,AMSA18.jpg,MS,2,num_4,16,num_4,0.966745044803,,,2017_May_23_1551,60.0036758713,FEMA4ImagesEEG,001,100537,
AFNE01.JPG,AFNE01.JPG,AFNE01.JPG,AFNE01.JPG,AFNE01.JPG,AFNE01.JPG,,,,,1,3,13,0,,,,,,,,,,,,,,,,,,,AMSA14.jpg,AMNE20.jpg,AMNE05.jpg,AMSA16.jpg,AMNE20.jpg,MN,1,num_6,16,num_6,0.783430319745,,,2017_May_23_1551,60.0036758713,FEMA4ImagesEEG,001,100537,
AFNE01.JPG,AFNE01.JPG,AFNE01.JPG,AFNE01.JPG,AFNE01.JPG,AFNE01.JPG,,,,,1,4,14,2,,,,,,,,,,,,,,,,,,,AMNE17.jpg,AMNE08.jpg,AMSA14.jpg,AMSA17.jpg,AMSA17.jpg,MS,2,num_4,16,num_4,1.03343617322,,,2017_May_23_1551,60.0036758713,FEMA4ImagesEEG,001,100537,
AFNE01.JPG,AFNE01.JPG,AFNE01.JPG,AFNE01.JPG,AFNE01.JPG,AFNE01.JPG,,,,,1,5,15,8,,,,,,,,,,,,,,,,,,,AMNE11.jpg,AMSA15.jpg,AMNE09.jpg,AMSA16.jpg,AMSA16.jpg,MS,2,num_4,32,num_8,1.43340300873,,,2017_May_23_1551,60.0036758713,FEMA4ImagesEEG,001,100537,
AFNE01.JPG,AFNE01.JPG,AFNE01.JPG,AFNE01.JPG,AFNE01.JPG,AFNE01.JPG,,,,,1,6,16,7,,,,,,,,,,,,,,,,,,,AMNE10.jpg,AMSA17.jpg,AMNE15.jpg,AMSA19.jpg,AMNE10.jpg,MN,1,num_8,32,num_2,0.733502662624,,,2017_May_23_1551,60.0036758713,FEMA4ImagesEEG,001,100537,
AFNE01.JPG,AFNE01.JPG,AFNE01.JPG,AFNE01.JPG,AFNE01.JPG,AFNE01.JPG,,,,,1,7,17,9,,,,,,,,,,,,,,,,,,,AMSA07.jpg,AMNE19.jpg,AMNE01.jpg,AMSA09.jpg,AMSA07.jpg,MS,2,num_8,32,num_6,1.56638113328,,,2017_May_23_1551,60.0036758713,FEMA4ImagesEEG,001,100537,
AFNE01.JPG,AFNE01.JPG,AFNE01.JPG,AFNE01.JPG,AFNE01.JPG,AFNE01.JPG,,,,,1,8,18,6,,,,,,,,,,,,,,,,,,,AMNE03.jpg,AMSA05.jpg,AMSA01.jpg,AMNE16.jpg,AMNE03.jpg,MN,1,num_8,32,num_4,0.866805055295,,,2017_May_23_1551,60.0036758713,FEMA4ImagesEEG,001,100537,
AFNE01.JPG,AFNE01.JPG,AFNE01.JPG,AFNE01.JPG,AFNE01.JPG,AFNE01.JPG,,,,,1,9,19,3,,,,,,,,,,,,,,,,,,,AMSA02.jpg,AMNE18.jpg,AMNE05.jpg,AMSA17.jpg,AMNE05.jpg,MN,1,num_2,32,num_6,1.31675663951,,,2017_May_23_1551,60.0036758713,FEMA4ImagesEEG,001,100537,
AFNE01.JPG,AFNE01.JPG,AFNE01.JPG,AFNE01.JPG,AFNE01.JPG,AFNE01.JPG,,,,,2,0,20,4,,,,,,,,,,,,,,,,,,,AMNE17.jpg,AMSA06.jpg,AMNE08.jpg,AMSA10.jpg,AMSA06.jpg,MS,2,num_6,32,num_8,1.40035910043,,,2017_May_23_1551,60.0036758713,FEMA4ImagesEEG,001,100537,
AFNE01.JPG,AFNE01.JPG,AFNE01.JPG,AFNE01.JPG,AFNE01.JPG,AFNE01.JPG,,,,,2,1,21,3,,,,,,,,,,,,,,,,,,,AMNE19.jpg,AMSA11.jpg,AMNE12.jpg,AMSA04.jpg,AMSA04.jpg,MS,2,num_4,16,num_4,1.08347833459,,,2017_May_23_1551,60.0036758713,FEMA4ImagesEEG,001,100537,
AFNE01.JPG,AFNE01.JPG,AFNE01.JPG,AFNE01.JPG,AFNE01.JPG,AFNE01.JPG,,,,,2,2,22,8,,,,,,,,,,,,,,,,,,,AMSA02.jpg,AMNE16.jpg,AMNE19.jpg,AMSA01.jpg,AMNE19.jpg,MN,1,num_2,32,num_4,0.81662497588,,,2017_May_23_1551,60.0036758713,FEMA4ImagesEEG,001,100537,
AFNE01.JPG,AFNE01.JPG,AFNE01.JPG,AFNE01.JPG,AFNE01.JPG,AFNE01.JPG,,,,,2,3,23,0,,,,,,,,,,,,,,,,,,,AMSA04.jpg,AMNE19.jpg,AMSA03.jpg,AMNE07.jpg,AMSA03.jpg,MS,2,num_2,16,num_2,2.13330335484,,,2017_May_23_1551,60.0036758713,FEMA4ImagesEEG,001,100537,
AFNE01.JPG,AFNE01.JPG,AFNE01.JPG,AFNE01.JPG,AFNE01.JPG,AFNE01.JPG,,,,,2,4,24,2,,,,,,,,,,,,,,,,,,,AMNE09.jpg,AMSA02.jpg,AMNE04.jpg,AMSA01.jpg,AMNE04.jpg,MN,1,num_2,32,num_6,1.5167148792,,,2017_May_23_1551,60.0036758713,FEMA4ImagesEEG,001,100537,
AFNE01.JPG,AFNE01.JPG,AFNE01.JPG,AFNE01.JPG,AFNE01.JPG,AFNE01.JPG,,,,,2,5,25,6,,,,,,,,,,,,,,,,,,,AMSA12.jpg,AMSA09.jpg,AMNE06.jpg,AMNE19.jpg,AMSA12.jpg,MS,2,num_8,32,num_6,0.616822936572,,,2017_May_23_1551,60.0036758713,FEMA4ImagesEEG,001,100537,
AFNE01.JPG,AFNE01.JPG,AFNE01.JPG,AFNE01.JPG,AFNE01.JPG,AFNE01.JPG,,,,,2,6,26,5,,,,,,,,,,,,,,,,,,,AMSA10.jpg,AMSA07.jpg,AMNE14.jpg,AMNE20.jpg,AMSA07.jpg,MS,2,num_6,16,num_6,0.600141253788,,,2017_May_23_1551,60.0036758713,FEMA4ImagesEEG,001,100537,
AFNE01.JPG,AFNE01.JPG,AFNE01.JPG,AFNE01.JPG,AFNE01.JPG,AFNE01.JPG,,,,,2,7,27,1,,,,,,,,,,,,,,,,,,,AMNE19.jpg,AMSA20.jpg,AMSA10.jpg,AMNE17.jpg,AMSA20.jpg,MS,2,num_6,32,num_2,1.36673978472,,,2017_May_23_1551,60.0036758713,FEMA4ImagesEEG,001,100537,
AFNE01.JPG,AFNE01.JPG,AFNE01.JPG,AFNE01.JPG,AFNE01.JPG,AFNE01.JPG,,,,,2,8,28,7,,,,,,,,,,,,,,,,,,,AMNE09.jpg,AMSA16.jpg,AMSA01.jpg,AMNE04.jpg,AMNE09.jpg,MN,1,num_8,16,num_8,1.16676133836,,,2017_May_23_1551,60.0036758713,FEMA4ImagesEEG,001,100537,
AFNE01.JPG,AFNE01.JPG,AFNE01.JPG,AFNE01.JPG,AFNE01.JPG,AFNE01.JPG,,,,,2,9,29,9,,,,,,,,,,,,,,,,,,,AMNE18.jpg,AMNE12.jpg,AMSA18.jpg,AMSA02.jpg,AMSA02.jpg,MS,2,num_4,32,num_6,1.46672660229,,,2017_May_23_1551,60.0036758713,FEMA4ImagesEEG,001,100537,
AFNE01.JPG,AFNE01.JPG,AFNE01.JPG,AFNE01.JPG,AFNE01.JPG,AFNE01.JPG,,,,,3,0,30,0,,,,,,,,,,,,,,,,,,,AMSA12.jpg,AMNE09.jpg,AMSA03.jpg,AMNE19.jpg,AMSA03.jpg,MS,2,num_2,32,num_8,1.05015634466,,,2017_May_23_1551,60.0036758713,FEMA4ImagesEEG,001,100537,
AFNE01.JPG,AFNE01.JPG,AFNE01.JPG,AFNE01.JPG,AFNE01.JPG,AFNE01.JPG,,,,,3,1,31,6,,,,,,,,,,,,,,,,,,,AMNE11.jpg,AMSA01.jpg,AMSA07.jpg,AMNE03.jpg,AMNE11.jpg,MN,1,num_8,32,num_4,1.51676748053,,,2017_May_23_1551,60.0036758713,FEMA4ImagesEEG,001,100537,
AFNE01.JPG,AFNE01.JPG,AFNE01.JPG,AFNE01.JPG,AFNE01.JPG,AFNE01.JPG,,,,,3,2,32,2,,,,,,,,,,,,,,,,,,,AMNE10.jpg,AMNE05.jpg,AMSA15.jpg,AMSA16.jpg,AMNE10.jpg,MN,1,num_8,16,num_8,1.16670809558,,,2017_May_23_1551,60.0036758713,FEMA4ImagesEEG,001,100537,
AFNE01.JPG,AFNE01.JPG,AFNE01.JPG,AFNE01.JPG,AFNE01.JPG,AFNE01.JPG,,,,,3,3,33,3,,,,,,,,,,,,,,,,,,,AMNE19.jpg,AMSA04.jpg,AMSA15.jpg,AMNE04.jpg,AMNE19.jpg,MN,1,num_8,16,num_8,0.900109725073,,,2017_May_23_1551,60.0036758713,FEMA4ImagesEEG,001,100537,
AFNE01.JPG,AFNE01.JPG,AFNE01.JPG,AFNE01.JPG,AFNE01.JPG,AFNE01.JPG,,,,,3,4,34,8,,,,,,,,,,,,,,,,,,,AMNE04.jpg,AMSA06.jpg,AMSA12.jpg,AMNE15.jpg,AMNE15.jpg,MN,1,num_4,16,num_4,0.966721630888,,,2017_May_23_1551,60.0036758713,FEMA4ImagesEEG,001,100537,
AFNE01.JPG,AFNE01.JPG,AFNE01.JPG,AFNE01.JPG,AFNE01.JPG,AFNE01.JPG,,,,,3,5,35,9,,,,,,,,,,,,,,,,,,,AMSA12.jpg,AMNE19.jpg,AMNE07.jpg,AMSA17.jpg,AMSA12.jpg,MS,2,num_8,16,num_8,2.78329336375,,,2017_May_23_1551,60.0036758713,FEMA4ImagesEEG,001,100537,
AFNE01.JPG,AFNE01.JPG,AFNE01.JPG,AFNE01.JPG,AFNE01.JPG,AFNE01.JPG,,,,,3,6,36,5,,,,,,,,,,,,,,,,,,,AMNE16.jpg,AMSA12.jpg,AMNE10.jpg,AMSA20.jpg,AMSA12.jpg,MS,2,num_6,16,num_6,1.03342077776,,,2017_May_23_1551,60.0036758713,FEMA4ImagesEEG,001,100537,
AFNE01.JPG,AFNE01.JPG,AFNE01.JPG,AFNE01.JPG,AFNE01.JPG,AFNE01.JPG,,,,,3,7,37,7,,,,,,,,,,,,,,,,,,,AMNE17.jpg,AMSA06.jpg,AMSA10.jpg,AMNE15.jpg,AMNE15.jpg,MN,1,num_4,32,num_8,1.00005965761,,,2017_May_23_1551,60.0036758713,FEMA4ImagesEEG,001,100537,
AFNE01.JPG,AFNE01.JPG,AFNE01.JPG,AFNE01.JPG,AFNE01.JPG,AFNE01.JPG,,,,,3,8,38,1,,,,,,,,,,,,,,,,,,,AMSA08.jpg,AMNE04.jpg,AMSA19.jpg,AMNE18.jpg,AMSA19.jpg,MS,2,num_2,16,num_2,1.1331862848,,,2017_May_23_1551,60.0036758713,FEMA4ImagesEEG,001,100537,
AFNE01.JPG,AFNE01.JPG,AFNE01.JPG,AFNE01.JPG,AFNE01.JPG,AFNE01.JPG,,,,,3,9,39,4,,,,,,,,,,,,,,,,,,,AMSA07.jpg,AMNE10.jpg,AMSA03.jpg,AMNE11.jpg,AMSA07.jpg,MS,2,num_8,32,num_2,1.01683403412,,,2017_May_23_1551,60.0036758713,FEMA4ImagesEEG,001,100537,
AFNE01.JPG,AFNE01.JPG,AFNE01.JPG,AFNE01.JPG,AFNE01.JPG,AFNE01.JPG,,,,,4,0,40,6,,,,,,,,,,,,,,,,,,,AMSA06.jpg,AMNE08.jpg,AMNE18.jpg,AMSA07.jpg,AMSA07.jpg,MS,2,num_4,32,num_8,1.13341529306,,,2017_May_23_1551,60.0036758713,FEMA4ImagesEEG,001,100537,
AFNE01.JPG,AFNE01.JPG,AFNE01.JPG,AFNE01.JPG,AFNE01.JPG,AFNE01.JPG,,,,,4,1,41,8,,,,,,,,,,,,,,,,,,,AMNE07.jpg,AMNE04.jpg,AMSA17.jpg,AMSA07.jpg,AMNE04.jpg,MN,1,num_6,16,num_6,0.817021731171,,,2017_May_23_1551,60.0036758713,FEMA4ImagesEEG,001,100537,
AFNE01.JPG,AFNE01.JPG,AFNE01.JPG,AFNE01.JPG,AFNE01.JPG,AFNE01.JPG,,,,,4,2,42,4,,,,,,,,,,,,,,,,,,,AMSA06.jpg,AMNE01.jpg,AMNE15.jpg,AMSA20.jpg,AMSA06.jpg,MS,2,num_8,16,num_8,1.13341048197,,,2017_May_23_1551,60.0036758713,FEMA4ImagesEEG,001,100537,
AFNE01.JPG,AFNE01.JPG,AFNE01.JPG,AFNE01.JPG,AFNE01.JPG,AFNE01.JPG,,,,,4,3,43,9,,,,,,,,,,,,,,,,,,,AMNE16.jpg,AMSA07.jpg,AMNE17.jpg,AMSA09.jpg,AMSA09.jpg,MS,2,num_4,16,num_4,1.11678492883,,,2017_May_23_1551,60.0036758713,FEMA4ImagesEEG,001,100537,
AFNE01.JPG,AFNE01.JPG,AFNE01.JPG,AFNE01.JPG,AFNE01.JPG,AFNE01.JPG,,,,,4,4,44,0,,,,,,,,,,,,,,,,,,,AMNE20.jpg,AMSA20.jpg,AMNE11.jpg,AMSA10.jpg,AMSA20.jpg,MS,2,num_6,16,num_6,0.866765283514,,,2017_May_23_1551,60.0036758713,FEMA4ImagesEEG,001,100537,
AFNE01.JPG,AFNE01.JPG,AFNE01.JPG,AFNE01.JPG,AFNE01.JPG,AFNE01.JPG,,,,,4,5,45,3,,,,,,,,,,,,,,,,,,,AMSA19.jpg,AMNE04.jpg,AMSA11.jpg,AMNE14.jpg,AMSA11.jpg,MS,2,num_2,32,num_4,1.30002043117,,,2017_May_23_1551,60.0036758713,FEMA4ImagesEEG,001,100537,
AFNE01.JPG,AFNE01.JPG,AFNE01.JPG,AFNE01.JPG,AFNE01.JPG,AFNE01.JPG,,,,,4,6,46,2,,,,,,,,,,,,,,,,,,,AMSA04.jpg,AMNE11.jpg,AMSA05.jpg,AMNE09.jpg,AMSA04.jpg,MS,2,num_8,16,num_8,0.750550309545,,,2017_May_23_1551,60.0036758713,FEMA4ImagesEEG,001,100537,
AFNE01.JPG,AFNE01.JPG,AFNE01.JPG,AFNE01.JPG,AFNE01.JPG,AFNE01.JPG,,,,,4,7,47,7,,,,,,,,,,,,,,,,,,,AMNE01.jpg,AMSA04.jpg,AMNE16.jpg,AMSA12.jpg,AMSA04.jpg,MS,2,num_6,16,num_6,0.783425187808,,,2017_May_23_1551,60.0036758713,FEMA4ImagesEEG,001,100537,
AFNE01.JPG,AFNE01.JPG,AFNE01.JPG,AFNE01.JPG,AFNE01.JPG,AFNE01.JPG,,,,,4,8,48,1,,,,,,,,,,,,,,,,,,,AMSA12.jpg,AMNE20.jpg,AMSA15.jpg,AMNE05.jpg,AMSA15.jpg,MS,2,num_2,16,num_2,0.70015244768,,,2017_May_23_1551,60.0036758713,FEMA4ImagesEEG,001,100537,
AFNE01.JPG,AFNE01.JPG,AFNE01.JPG,AFNE01.JPG,AFNE01.JPG,AFNE01.JPG,,,,,4,9,49,5,,,,,,,,,,,,,,,,,,,AMNE14.jpg,AMNE01.jpg,AMSA14.jpg,AMSA02.jpg,AMNE01.jpg,MN,1,num_6,16,num_6,1.19964102784,,,2017_May_23_1551,60.0036758713,FEMA4ImagesEEG,001,100537,
AFNE01.JPG,AFNE01.JPG,AFNE01.JPG,AFNE01.JPG,AFNE01.JPG,AFNE01.JPG,,,,,5,0,50,6,,,,,,,,,,,,,,,,,,,AMSA08.jpg,AMNE12.jpg,AMNE20.jpg,AMSA06.jpg,AMSA06.jpg,MS,2,num_4,16,num_4,1.28342823498,,,2017_May_23_1551,60.0036758713,FEMA4ImagesEEG,001,100537,
AFNE01.JPG,AFNE01.JPG,AFNE01.JPG,AFNE01.JPG,AFNE01.JPG,AFNE01.JPG,,,,,5,1,51,8,,,,,,,,,,,,,,,,,,,AMNE16.jpg,AMNE10.jpg,AMSA12.jpg,AMSA04.jpg,AMSA04.jpg,MS,2,num_4,32,num_2,1.23345342907,,,2017_May_23_1551,60.0036758713,FEMA4ImagesEEG,001,100537,
AFNE01.JPG,AFNE01.JPG,AFNE01.JPG,AFNE01.JPG,AFNE01.JPG,AFNE01.JPG,,,,,5,2,52,7,,,,,,,,,,,,,,,,,,,AMSA02.jpg,AMSA01.jpg,AMNE14.jpg,AMNE11.jpg,AMSA02.jpg,MS,2,num_8,32,num_6,1.31698244042,,,2017_May_23_1551,60.0036758713,FEMA4ImagesEEG,001,100537,
AFNE01.JPG,AFNE01.JPG,AFNE01.JPG,AFNE01.JPG,AFNE01.JPG,AFNE01.JPG,,,,,5,3,53,4,,,,,,,,,,,,,,,,,,,AMNE06.jpg,AMSA15.jpg,AMNE19.jpg,AMSA10.jpg,AMNE06.jpg,MN,1,num_8,32,num_2,0.600131310872,,,2017_May_23_1551,60.0036758713,FEMA4ImagesEEG,001,100537,
AFNE01.JPG,AFNE01.JPG,AFNE01.JPG,AFNE01.JPG,AFNE01.JPG,AFNE01.JPG,,,,,5,4,54,3,,,,,,,,,,,,,,,,,,,AMSA05.jpg,AMNE10.jpg,AMSA01.jpg,AMNE17.jpg,AMSA01.jpg,MS,2,num_2,16,num_2,1.63341064227,,,2017_May_23_1551,60.0036758713,FEMA4ImagesEEG,001,100537,
AFNE01.JPG,AFNE01.JPG,AFNE01.JPG,AFNE01.JPG,AFNE01.JPG,AFNE01.JPG,,,,,5,5,55,0,,,,,,,,,,,,,,,,,,,AMSA08.jpg,AMSA02.jpg,AMNE17.jpg,AMNE14.jpg,AMNE17.jpg,MN,1,num_2,16,num_2,1.08347705158,,,2017_May_23_1551,60.0036758713,FEMA4ImagesEEG,001,100537,
AFNE01.JPG,AFNE01.JPG,AFNE01.JPG,AFNE01.JPG,AFNE01.JPG,AFNE01.JPG,,,,,5,6,56,2,,,,,,,,,,,,,,,,,,,AMNE04.jpg,AMSA11.jpg,AMSA14.jpg,AMNE09.jpg,AMNE09.jpg,MN,1,num_4,16,num_4,0.750146818697,,,2017_May_23_1551,60.0036758713,FEMA4ImagesEEG,001,100537,
AFNE01.JPG,AFNE01.JPG,AFNE01.JPG,AFNE01.JPG,AFNE01.JPG,AFNE01.JPG,,,,,5,7,57,9,,,,,,,,,,,,,,,,,,,AMNE09.jpg,AMNE14.jpg,AMSA16.jpg,AMSA18.jpg,AMSA18.jpg,MS,2,num_4,32,num_2,1.51677229174,,,2017_May_23_1551,60.0036758713,FEMA4ImagesEEG,001,100537,
AFNE01.JPG,AFNE01.JPG,AFNE01.JPG,AFNE01.JPG,AFNE01.JPG,AFNE01.JPG,,,,,5,8,58,5,,,,,,,,,,,,,,,,,,,AMSA08.jpg,AMNE16.jpg,AMSA16.jpg,AMNE10.jpg,AMSA16.jpg,MS,2,num_2,16,num_2,0.766779107391,,,2017_May_23_1551,60.0036758713,FEMA4ImagesEEG,001,100537,
AFNE01.JPG,AFNE01.JPG,AFNE01.JPG,AFNE01.JPG,AFNE01.JPG,AFNE01.JPG,,,,,5,9,59,1,,,,,,,,,,,,,,,,,,,AMNE10.jpg,AMSA16.jpg,AMSA12.jpg,AMNE02.jpg,AMNE02.jpg,MN,1,num_4,16,num_4,0.76682304882,,,2017_May_23_1551,60.0036758713,FEMA4ImagesEEG,001,100537,
,,,,,,,,,,,,,,,,,,,,,,,,,,,,,,,,,,,,,,,,,,,space,10.6990439706,2017_May_23_1551,60.0036758713,FEMA4ImagesEEG,001,100537,
AFNE01.JPG,AFNE01.JPG,AFNE01.JPG,AFNE01.JPG,AFNE01.JPG,AFNE01.JPG,,,,,,,,,0,0,0,1,,,,,,,,,,,,,,,AFSA07.jpg,AFNE09.jpg,AFSA03.jpg,AFNE03.jpg,AFSA07.jpg,FS,4,num_8,16,num_8,1.06708371406,,,2017_May_23_1551,60.0036758713,FEMA4ImagesEEG,001,100537,
AFNE01.JPG,AFNE01.JPG,AFNE01.JPG,AFNE01.JPG,AFNE01.JPG,AFNE01.JPG,,,,,,,,,0,1,1,6,,,,,,,,,,,,,,,AFSA13.jpg,AFNE07.jpg,AFNE01.jpg,AFSA08.jpg,AFSA13.jpg,FS,4,num_8,32,num_4,1.13342267007,,,2017_May_23_1551,60.0036758713,FEMA4ImagesEEG,001,100537,
AFNE01.JPG,AFNE01.JPG,AFNE01.JPG,AFNE01.JPG,AFNE01.JPG,AFNE01.JPG,,,,,,,,,0,2,2,4,,,,,,,,,,,,,,,AFNE10.jpg,AFNE12.jpg,AFSA16.jpg,AFSA13.jpg,AFSA13.jpg,FS,4,num_4,16,num_4,1.0167791876,,,2017_May_23_1551,60.0036758713,FEMA4ImagesEEG,001,100537,
AFNE01.JPG,AFNE01.JPG,AFNE01.JPG,AFNE01.JPG,AFNE01.JPG,AFNE01.JPG,,,,,,,,,0,3,3,0,,,,,,,,,,,,,,,AFNE01.jpg,AFSA04.jpg,AFNE05.jpg,AFSA05.jpg,AFSA04.jpg,FS,4,num_6,32,num_4,0.93346988305,,,2017_May_23_1551,60.0036758713,FEMA4ImagesEEG,001,100537,
AFNE01.JPG,AFNE01.JPG,AFNE01.JPG,AFNE01.JPG,AFNE01.JPG,AFNE01.JPG,,,,,,,,,0,4,4,3,,,,,,,,,,,,,,,AFNE05.jpg,AFSA09.jpg,AFSA12.jpg,AFNE08.jpg,AFNE08.jpg,FN,3,num_4,16,num_4,0.900147251668,,,2017_May_23_1551,60.0036758713,FEMA4ImagesEEG,001,100537,
AFNE01.JPG,AFNE01.JPG,AFNE01.JPG,AFNE01.JPG,AFNE01.JPG,AFNE01.JPG,,,,,,,,,0,5,5,7,,,,,,,,,,,,,,,AFNE10.jpg,AFNE06.jpg,AFSA16.jpg,AFSA13.jpg,AFNE10.jpg,FN,3,num_8,16,num_8,0.866741227917,,,2017_May_23_1551,60.0036758713,FEMA4ImagesEEG,001,100537,
AFNE01.JPG,AFNE01.JPG,AFNE01.JPG,AFNE01.JPG,AFNE01.JPG,AFNE01.JPG,,,,,,,,,0,6,6,9,,,,,,,,,,,,,,,AFSA14.jpg,AFNE16.jpg,AFNE14.jpg,AFSA10.jpg,AFSA10.jpg,FS,4,num_4,16,num_4,0.783428395283,,,2017_May_23_1551,60.0036758713,FEMA4ImagesEEG,001,100537,
AFNE01.JPG,AFNE01.JPG,AFNE01.JPG,AFNE01.JPG,AFNE01.JPG,AFNE01.JPG,,,,,,,,,0,7,7,8,,,,,,,,,,,,,,,AFNE07.jpg,AFSA16.jpg,AFSA06.jpg,AFNE19.jpg,AFSA16.jpg,FS,4,num_6,32,num_8,1.48338743672,,,2017_May_23_1551,60.0036758713,FEMA4ImagesEEG,001,100537,
AFNE01.JPG,AFNE01.JPG,AFNE01.JPG,AFNE01.JPG,AFNE01.JPG,AFNE01.JPG,,,,,,,,,0,8,8,2,,,,,,,,,,,,,,,AFNE02.jpg,AFSA17.jpg,AFSA16.jpg,AFNE10.jpg,AFSA16.jpg,FS,4,num_2,16,num_2,1.38334641419,,,2017_May_23_1551,60.0036758713,FEMA4ImagesEEG,001,100537,
AFNE01.JPG,AFNE01.JPG,AFNE01.JPG,AFNE01.JPG,AFNE01.JPG,AFNE01.JPG,,,,,,,,,0,9,9,5,,,,,,,,,,,,,,,AFNE03.jpg,AFSA14.jpg,AFSA19.jpg,AFNE09.jpg,AFSA14.jpg,FS,4,num_6,32,num_8,1.03341724956,,,2017_May_23_1551,60.0036758713,FEMA4ImagesEEG,001,100537,
AFNE01.JPG,AFNE01.JPG,AFNE01.JPG,AFNE01.JPG,AFNE01.JPG,AFNE01.JPG,,,,,,,,,1,0,10,6,,,,,,,,,,,,,,,AFSA11.jpg,AFNE05.jpg,AFNE12.jpg,AFSA02.jpg,AFNE05.jpg,FN,3,num_6,32,num_4,1.08346550493,,,2017_May_23_1551,60.0036758713,FEMA4ImagesEEG,001,100537,
AFNE01.JPG,AFNE01.JPG,AFNE01.JPG,AFNE01.JPG,AFNE01.JPG,AFNE01.JPG,,,,,,,,,1,1,11,1,,,,,,,,,,,,,,,AFSA11.jpg,AFNE14.jpg,AFNE13.jpg,AFSA15.jpg,AFNE13.jpg,FN,3,num_2,32,num_4,1.15009408898,,,2017_May_23_1551,60.0036758713,FEMA4ImagesEEG,001,100537,
AFNE01.JPG,AFNE01.JPG,AFNE01.JPG,AFNE01.JPG,AFNE01.JPG,AFNE01.JPG,,,,,,,,,1,2,12,0,,,,,,,,,,,,,,,AFSA03.jpg,AFNE11.jpg,AFNE19.jpg,AFSA05.jpg,AFSA05.jpg,FS,4,num_4,32,num_8,1.41671876016,,,2017_May_23_1551,60.0036758713,FEMA4ImagesEEG,001,100537,
AFNE01.JPG,AFNE01.JPG,AFNE01.JPG,AFNE01.JPG,AFNE01.JPG,AFNE01.JPG,,,,,,,,,1,3,13,2,,,,,,,,,,,,,,,AFNE14.jpg,AFSA10.jpg,AFSA04.jpg,AFNE20.jpg,AFNE20.jpg,FN,3,num_4,16,num_4,1.50007649651,,,2017_May_23_1551,60.0036758713,FEMA4ImagesEEG,001,100537,
AFNE01.JPG,AFNE01.JPG,AFNE01.JPG,AFNE01.JPG,AFNE01.JPG,AFNE01.JPG,,,,,,,,,1,4,14,8,,,,,,,,,,,,,,,AFNE09.jpg,AFSA13.jpg,AFSA11.jpg,AFNE15.jpg,AFSA13.jpg,FS,4,num_6,32,num_2,1.08342926134,,,2017_May_23_1551,60.0036758713,FEMA4ImagesEEG,001,100537,
AFNE01.JPG,AFNE01.JPG,AFNE01.JPG,AFNE01.JPG,AFNE01.JPG,AFNE01.JPG,,,,,,,,,1,5,15,3,,,,,,,,,,,,,,,AFSA07.jpg,AFNE13.jpg,AFSA17.jpg,AFNE16.jpg,AFSA07.jpg,FS,4,num_8,16,num_8,0.916739127249,,,2017_May_23_1551,60.0036758713,FEMA4ImagesEEG,001,100537,
AFNE01.JPG,AFNE01.JPG,AFNE01.JPG,AFNE01.JPG,AFNE01.JPG,AFNE01.JPG,,,,,,,,,1,6,16,9,,,,,,,,,,,,,,,AFSA08.jpg,AFNE01.jpg,AFSA05.jpg,AFNE07.jpg,AFSA08.jpg,FS,4,num_8,32,num_4,1.03351732041,,,2017_May_23_1551,60.0036758713,FEMA4ImagesEEG,001,100537,
AFNE01.JPG,AFNE01.JPG,AFNE01.JPG,AFNE01.JPG,AFNE01.JPG,AFNE01.JPG,,,,,,,,,1,7,17,7,,,,,,,,,,,,,,,AFSA04.jpg,AFNE02.jpg,AFSA13.jpg,AFNE13.jpg,AFNE02.jpg,FN,3,num_6,16,num_6,0.683334129862,,,2017_May_23_1551,60.0036758713,FEMA4ImagesEEG,001,100537,
AFNE01.JPG,AFNE01.JPG,AFNE01.JPG,AFNE01.JPG,AFNE01.JPG,AFNE01.JPG,,,,,,,,,1,8,18,5,,,,,,,,,,,,,,,AFNE03.jpg,AFNE15.jpg,AFSA18.jpg,AFSA04.jpg,AFNE15.jpg,FN,3,num_6,16,num_6,0.533477067598,,,2017_May_23_1551,60.0036758713,FEMA4ImagesEEG,001,100537,
AFNE01.JPG,AFNE01.JPG,AFNE01.JPG,AFNE01.JPG,AFNE01.JPG,AFNE01.JPG,,,,,,,,,1,9,19,4,,,,,,,,,,,,,,,AFSA03.jpg,AFSA14.jpg,AFNE18.jpg,AFNE15.jpg,AFSA14.jpg,FS,4,num_6,32,num_8,1.10009073734,,,2017_May_23_1551,60.0036758713,FEMA4ImagesEEG,001,100537,
AFNE01.JPG,AFNE01.JPG,AFNE01.JPG,AFNE01.JPG,AFNE01.JPG,AFNE01.JPG,,,,,,,,,2,0,20,7,,,,,,,,,,,,,,,AFSA03.jpg,AFNE19.jpg,AFNE06.jpg,AFSA01.jpg,AFNE19.jpg,FN,3,num_6,16,num_6,0.583454760141,,,2017_May_23_1551,60.0036758713,FEMA4ImagesEEG,001,100537,
AFNE01.JPG,AFNE01.JPG,AFNE01.JPG,AFNE01.JPG,AFNE01.JPG,AFNE01.JPG,,,,,,,,,2,1,21,0,,,,,,,,,,,,,,,AFSA15.jpg,AFNE06.jpg,AFNE01.jpg,AFSA04.jpg,AFNE06.jpg,FN,3,num_6,32,num_4,1.10017028078,,,2017_May_23_1551,60.0036758713,FEMA4ImagesEEG,001,100537,
AFNE01.JPG,AFNE01.JPG,AFNE01.JPG,AFNE01.JPG,AFNE01.JPG,AFNE01.JPG,,,,,,,,,2,2,22,5,,,,,,,,,,,,,,,AFSA19.jpg,AFNE07.jpg,AFNE04.jpg,AFSA05.jpg,AFSA19.jpg,FS,4,num_8,32,num_2,1.30007591913,,,2017_May_23_1551,60.0036758713,FEMA4ImagesEEG,001,100537,
AFNE01.JPG,AFNE01.JPG,AFNE01.JPG,AFNE01.JPG,AFNE01.JPG,AFNE01.JPG,,,,,,,,,2,3,23,2,,,,,,,,,,,,,,,AFSA19.jpg,AFSA17.jpg,AFNE20.jpg,AFNE06.jpg,AFNE20.jpg,FN,3,num_2,32,num_4,1.16676486656,,,2017_May_23_1551,60.0036758713,FEMA4ImagesEEG,001,100537,
AFNE01.JPG,AFNE01.JPG,AFNE01.JPG,AFNE01.JPG,AFNE01.JPG,AFNE01.JPG,,,,,,,,,2,4,24,9,,,,,,,,,,,,,,,AFSA05.jpg,AFSA06.jpg,AFNE04.jpg,AFNE10.jpg,AFSA05.jpg,FS,4,num_8,16,num_8,0.966723875958,,,2017_May_23_1551,60.0036758713,FEMA4ImagesEEG,001,100537,
AFNE01.JPG,AFNE01.JPG,AFNE01.JPG,AFNE01.JPG,AFNE01.JPG,AFNE01.JPG,,,,,,,,,2,5,25,1,,,,,,,,,,,,,,,AFSA03.jpg,AFNE12.jpg,AFNE19.jpg,AFSA02.jpg,AFSA02.jpg,FS,4,num_4,16,num_4,1.06674950314,,,2017_May_23_1551,60.0036758713,FEMA4ImagesEEG,001,100537,
AFNE01.JPG,AFNE01.JPG,AFNE01.JPG,AFNE01.JPG,AFNE01.JPG,AFNE01.JPG,,,,,,,,,2,6,26,8,,,,,,,,,,,,,,,AFSA04.jpg,AFSA09.jpg,AFNE11.jpg,AFNE07.jpg,AFSA09.jpg,FS,4,num_6,32,num_2,1.60012008506,,,2017_May_23_1551,60.0036758713,FEMA4ImagesEEG,001,100537,
AFNE01.JPG,AFNE01.JPG,AFNE01.JPG,AFNE01.JPG,AFNE01.JPG,AFNE01.JPG,,,,,,,,,2,7,27,4,,,,,,,,,,,,,,,AFNE14.jpg,AFSA03.jpg,AFSA02.jpg,AFNE03.jpg,AFNE03.jpg,FN,3,num_4,16,num_4,1.91671795829,,,2017_May_23_1551,60.0036758713,FEMA4ImagesEEG,001,100537,
AFNE01.JPG,AFNE01.JPG,AFNE01.JPG,AFNE01.JPG,AFNE01.JPG,AFNE01.JPG,,,,,,,,,2,8,28,3,,,,,,,,,,,,,,,AFSA01.jpg,AFSA20.jpg,AFNE01.jpg,AFNE14.jpg,AFNE01.jpg,FN,3,num_2,32,num_8,1.36670995597,,,2017_May_23_1551,60.0036758713,FEMA4ImagesEEG,001,100537,
AFNE01.JPG,AFNE01.JPG,AFNE01.JPG,AFNE01.JPG,AFNE01.JPG,AFNE01.JPG,,,,,,,,,2,9,29,6,,,,,,,,,,,,,,,AFSA09.jpg,AFNE01.jpg,AFNE11.jpg,AFSA17.jpg,AFSA09.jpg,FS,4,num_8,16,num_8,0.800013856031,,,2017_May_23_1551,60.0036758713,FEMA4ImagesEEG,001,100537,
AFNE01.JPG,AFNE01.JPG,AFNE01.JPG,AFNE01.JPG,AFNE01.JPG,AFNE01.JPG,,,,,,,,,3,0,30,6,,,,,,,,,,,,,,,AFSA05.jpg,AFNE15.jpg,AFNE01.jpg,AFSA10.jpg,AFNE15.jpg,FN,3,num_6,32,num_4,1.3001105591,,,2017_May_23_1551,60.0036758713,FEMA4ImagesEEG,001,100537,
AFNE01.JPG,AFNE01.JPG,AFNE01.JPG,AFNE01.JPG,AFNE01.JPG,AFNE01.JPG,,,,,,,,,3,1,31,7,,,,,,,,,,,,,,,AFSA11.jpg,AFNE07.jpg,AFSA08.jpg,AFNE19.jpg,AFSA11.jpg,FS,4,num_8,16,num_8,0.8834363817,,,2017_May_23_1551,60.0036758713,FEMA4ImagesEEG,001,100537,
AFNE01.JPG,AFNE01.JPG,AFNE01.JPG,AFNE01.JPG,AFNE01.JPG,AFNE01.JPG,,,,,,,,,3,2,32,2,,,,,,,,,,,,,,,AFNE06.jpg,AFSA20.jpg,AFNE16.jpg,AFSA05.jpg,AFSA05.jpg,FS,4,num_4,32,num_6,0.76677750377,,,2017_May_23_1551,60.0036758713,FEMA4ImagesEEG,001,100537,
AFNE01.JPG,AFNE01.JPG,AFNE01.JPG,AFNE01.JPG,AFNE01.JPG,AFNE01.JPG,,,,,,,,,3,3,33,4,,,,,,,,,,,,,,,AFNE16.jpg,AFSA20.jpg,AFNE20.jpg,AFSA14.jpg,AFSA20.jpg,FS,4,num_6,16,num_6,0.600404581404,,,2017_May_23_1551,60.0036758713,FEMA4ImagesEEG,001,100537,
AFNE01.JPG,AFNE01.JPG,AFNE01.JPG,AFNE01.JPG,AFNE01.JPG,AFNE01.JPG,,,,,,,,,3,4,34,8,,,,,,,,,,,,,,,AFSA19.jpg,AFNE17.jpg,AFSA05.jpg,AFNE09.jpg,AFNE09.jpg,FN,3,num_4,16,num_4,0.866755340598,,,2017_May_23_1551,60.0036758713,FEMA4ImagesEEG,001,100537,
AFNE01.JPG,AFNE01.JPG,AFNE01.JPG,AFNE01.JPG,AFNE01.JPG,AFNE01.JPG,,,,,,,,,3,5,35,5,,,,,,,,,,,,,,,AFNE03.jpg,AFSA01.jpg,AFNE18.jpg,AFSA05.jpg,AFSA01.jpg,FS,4,num_6,16,num_6,1.20010770438,,,2017_May_23_1551,60.0036758713,FEMA4ImagesEEG,001,100537,
AFNE01.JPG,AFNE01.JPG,AFNE01.JPG,AFNE01.JPG,AFNE01.JPG,AFNE01.JPG,,,,,,,,,3,6,36,3,,,,,,,,,,,,,,,AFNE05.jpg,AFSA13.jpg,AFNE08.jpg,AFSA05.jpg,AFSA13.jpg,FS,4,num_6,32,num_8,1.26675008039,,,2017_May_23_1551,60.0036758713,FEMA4ImagesEEG,001,100537,
AFNE01.JPG,AFNE01.JPG,AFNE01.JPG,AFNE01.JPG,AFNE01.JPG,AFNE01.JPG,,,,,,,,,3,7,37,1,,,,,,,,,,,,,,,AFSA15.jpg,AFNE01.jpg,AFSA13.jpg,AFNE03.jpg,AFNE03.jpg,FN,3,num_4,32,num_2,1.13344897085,,,2017_May_23_1551,60.0036758713,FEMA4ImagesEEG,001,100537,
AFNE01.JPG,AFNE01.JPG,AFNE01.JPG,AFNE01.JPG,AFNE01.JPG,AFNE01.JPG,,,,,,,,,3,8,38,0,,,,,,,,,,,,,,,AFNE14.jpg,AFNE09.jpg,AFSA09.jpg,AFSA13.jpg,AFSA13.jpg,FS,4,num_4,32,num_2,0.883478719392,,,2017_May_23_1551,60.0036758713,FEMA4ImagesEEG,001,100537,
AFNE01.JPG,AFNE01.JPG,AFNE01.JPG,AFNE01.JPG,AFNE01.JPG,AFNE01.JPG,,,,,,,,,3,9,39,9,,,,,,,,,,,,,,,AFSA02.jpg,AFNE03.jpg,AFNE18.jpg,AFSA10.jpg,AFNE18.jpg,FN,3,num_2,32,num_8,1.68337582599,,,2017_May_23_1551,60.0036758713,FEMA4ImagesEEG,001,100537,
AFNE01.JPG,AFNE01.JPG,AFNE01.JPG,AFNE01.JPG,AFNE01.JPG,AFNE01.JPG,,,,,,,,,4,0,40,3,,,,,,,,,,,,,,,AFSA04.jpg,AFNE15.jpg,AFSA17.jpg,AFNE06.jpg,AFSA04.jpg,FS,4,num_8,16,num_8,1.46671794239,,,2017_May_23_1551,60.0036758713,FEMA4ImagesEEG,001,100537,
AFNE01.JPG,AFNE01.JPG,AFNE01.JPG,AFNE01.JPG,AFNE01.JPG,AFNE01.JPG,,,,,,,,,4,1,41,5,,,,,,,,,,,,,,,AFNE06.jpg,AFNE12.jpg,AFSA19.jpg,AFSA13.jpg,AFSA19.jpg,FS,4,num_2,16,num_2,0.583473683684,,,2017_May_23_1551,60.0036758713,FEMA4ImagesEEG,001,100537,
AFNE01.JPG,AFNE01.JPG,AFNE01.JPG,AFNE01.JPG,AFNE01.JPG,AFNE01.JPG,,,,,,,,,4,2,42,1,,,,,,,,,,,,,,,AFNE05.jpg,AFSA10.jpg,AFNE18.jpg,AFSA19.jpg,AFSA19.jpg,FS,4,num_4,32,num_8,1.31674028188,,,2017_May_23_1551,60.0036758713,FEMA4ImagesEEG,001,100537,
AFNE01.JPG,AFNE01.JPG,AFNE01.JPG,AFNE01.JPG,AFNE01.JPG,AFNE01.JPG,,,,,,,,,4,3,43,7,,,,,,,,,,,,,,,AFNE17.jpg,AFSA06.jpg,AFSA13.jpg,AFNE13.jpg,AFSA06.jpg,FS,4,num_6,32,num_8,1.01677020686,,,2017_May_23_1551,60.0036758713,FEMA4ImagesEEG,001,100537,
AFNE01.JPG,AFNE01.JPG,AFNE01.JPG,AFNE01.JPG,AFNE01.JPG,AFNE01.JPG,,,,,,,,,4,4,44,0,,,,,,,,,,,,,,,AFSA03.jpg,AFSA11.jpg,AFNE01.jpg,AFNE15.jpg,AFSA11.jpg,FS,4,num_6,32,num_8,1.01677405578,,,2017_May_23_1551,60.0036758713,FEMA4ImagesEEG,001,100537,
AFNE01.JPG,AFNE01.JPG,AFNE01.JPG,AFNE01.JPG,AFNE01.JPG,AFNE01.JPG,,,,,,,,,4,5,45,4,,,,,,,,,,,,,,,AFNE06.jpg,AFSA15.jpg,AFSA12.jpg,AFNE08.jpg,AFNE08.jpg,FN,3,num_4,32,num_2,0.883495077025,,,2017_May_23_1551,60.0036758713,FEMA4ImagesEEG,001,100537,
AFNE01.JPG,AFNE01.JPG,AFNE01.JPG,AFNE01.JPG,AFNE01.JPG,AFNE01.JPG,,,,,,,,,4,6,46,9,,,,,,,,,,,,,,,AFSA13.jpg,AFNE06.jpg,AFSA15.jpg,AFNE16.jpg,AFNE16.jpg,FN,3,num_4,32,num_2,1.13345442328,,,2017_May_23_1551,60.0036758713,FEMA4ImagesEEG,001,100537,
AFNE01.JPG,AFNE01.JPG,AFNE01.JPG,AFNE01.JPG,AFNE01.JPG,AFNE01.JPG,,,,,,,,,4,7,47,8,,,,,,,,,,,,,,,AFNE15.jpg,AFSA18.jpg,AFNE18.jpg,AFSA13.jpg,AFNE18.jpg,FN,3,num_2,16,num_2,0.966754346271,,,2017_May_23_1551,60.0036758713,FEMA4ImagesEEG,001,100537,
AFNE01.JPG,AFNE01.JPG,AFNE01.JPG,AFNE01.JPG,AFNE01.JPG,AFNE01.JPG,,,,,,,,,4,8,48,6,,,,,,,,,,,,,,,AFSA15.jpg,AFNE01.jpg,AFNE06.jpg,AFSA04.jpg,AFNE06.jpg,FN,3,num_2,16,num_2,0.916736561223,,,2017_May_23_1551,60.0036758713,FEMA4ImagesEEG,001,100537,
AFNE01.JPG,AFNE01.JPG,AFNE01.JPG,AFNE01.JPG,AFNE01.JPG,AFNE01.JPG,,,,,,,,,4,9,49,2,,,,,,,,,,,,,,,AFNE12.jpg,AFNE05.jpg,AFSA20.jpg,AFSA17.jpg,AFSA17.jpg,FS,4,num_4,16,num_4,1.3834265992,,,2017_May_23_1551,60.0036758713,FEMA4ImagesEEG,001,100537,
AFNE01.JPG,AFNE01.JPG,AFNE01.JPG,AFNE01.JPG,AFNE01.JPG,AFNE01.JPG,,,,,,,,,5,0,50,5,,,,,,,,,,,,,,,AFSA13.jpg,AFNE11.jpg,AFSA02.jpg,AFNE04.jpg,AFSA02.jpg,FS,4,num_2,16,num_2,1.76671463868,,,2017_May_23_1551,60.0036758713,FEMA4ImagesEEG,001,100537,
AFNE01.JPG,AFNE01.JPG,AFNE01.JPG,AFNE01.JPG,AFNE01.JPG,AFNE01.JPG,,,,,,,,,5,1,51,1,,,,,,,,,,,,,,,AFNE10.jpg,AFSA03.jpg,AFSA07.jpg,AFNE17.jpg,AFNE10.jpg,FN,3,num_8,32,num_4,0.833469915087,,,2017_May_23_1551,60.0036758713,FEMA4ImagesEEG,001,100537,
AFNE01.JPG,AFNE01.JPG,AFNE01.JPG,AFNE01.JPG,AFNE01.JPG,AFNE01.JPG,,,,,,,,,5,2,52,3,,,,,,,,,,,,,,,AFSA18.jpg,AFNE12.jpg,AFSA14.jpg,AFNE01.jpg,AFNE12.jpg,FN,3,num_6,16,num_6,1.08342284651,,,2017_May_23_1551,60.0036758713,FEMA4ImagesEEG,001,100537,
AFNE01.JPG,AFNE01.JPG,AFNE01.JPG,AFNE01.JPG,AFNE01.JPG,AFNE01.JPG,,,,,,,,,5,3,53,9,,,,,,,,,,,,,,,AFSA20.jpg,AFNE10.jpg,AFSA13.jpg,AFNE08.jpg,AFNE10.jpg,FN,3,num_6,32,num_4,0.700189012103,,,2017_May_23_1551,60.0036758713,FEMA4ImagesEEG,001,100537,
AFNE01.JPG,AFNE01.JPG,AFNE01.JPG,AFNE01.JPG,AFNE01.JPG,AFNE01.JPG,,,,,,,,,5,4,54,7,,,,,,,,,,,,,,,AFNE04.jpg,AFNE17.jpg,AFSA12.jpg,AFSA03.jpg,AFNE17.jpg,FN,3,num_6,32,num_4,0.850193614606,,,2017_May_23_1551,60.0036758713,FEMA4ImagesEEG,001,100537,
AFNE01.JPG,AFNE01.JPG,AFNE01.JPG,AFNE01.JPG,AFNE01.JPG,AFNE01.JPG,,,,,,,,,5,5,55,4,,,,,,,,,,,,,,,AFSA01.jpg,AFNE14.jpg,AFSA07.jpg,AFNE07.jpg,AFSA07.jpg,FS,4,num_2,16,num_2,2.10001087305,,,2017_May_23_1551,60.0036758713,FEMA4ImagesEEG,001,100537,
AFNE01.JPG,AFNE01.JPG,AFNE01.JPG,AFNE01.JPG,AFNE01.JPG,AFNE01.JPG,,,,,,,,,5,6,56,0,,,,,,,,,,,,,,,AFSA13.jpg,AFNE18.jpg,AFSA12.jpg,AFNE11.jpg,AFSA13.jpg,FS,4,num_8,32,num_4,1.18340228708,,,2017_May_23_1551,60.0036758713,FEMA4ImagesEEG,001,100537,
AFNE01.JPG,AFNE01.JPG,AFNE01.JPG,AFNE01.JPG,AFNE01.JPG,AFNE01.JPG,,,,,,,,,5,7,57,2,,,,,,,,,,,,,,,AFSA01.jpg,AFNE06.jpg,AFNE05.jpg,AFSA03.jpg,AFNE05.jpg,FN,3,num_2,32,num_6,0.866743152495,,,2017_May_23_1551,60.0036758713,FEMA4ImagesEEG,001,100537,
AFNE01.JPG,AFNE01.JPG,AFNE01.JPG,AFNE01.JPG,AFNE01.JPG,AFNE01.JPG,,,,,,,,,5,8,58,6,,,,,,,,,,,,,,,AFNE19.jpg,AFSA08.jpg,AFSA09.jpg,AFNE20.jpg,AFNE19.jpg,FN,3,num_8,16,num_8,0.850147107267,,,2017_May_23_1551,60.0036758713,FEMA4ImagesEEG,001,100537,
AFNE01.JPG,AFNE01.JPG,AFNE01.JPG,AFNE01.JPG,AFNE01.JPG,AFNE01.JPG,,,,,,,,,5,9,59,8,,,,,,,,,,,,,,,AFNE09.jpg,AFSA20.jpg,AFNE13.jpg,AFSA07.jpg,AFSA07.jpg,FS,4,num_4,32,num_8,0.883414250682,,,2017_May_23_1551,60.0036758713,FEMA4ImagesEEG,001,100537,
,,,,,,,,,,,,,,,,,,,,,,,,,,,,,,,,,,,,,,,,,,,space,11.0326118717,2017_May_23_1551,60.0036758713,FEMA4ImagesEEG,001,100537,
AFNE01.JPG,AFNE01.JPG,AFNE01.JPG,AFNE01.JPG,AFNE01.JPG,AFNE01.JPG,,,,,,,,,,,,,0,0,0,1,,,,,,,,,,,AMNE06.jpg,AMSA01.jpg,AMSA15.jpg,AMNE05.jpg,AMSA01.jpg,MS,2,num_6,32,num_4,0.933183462243,,,2017_May_23_1551,60.0036758713,FEMA4ImagesEEG,001,100537,
AFNE01.JPG,AFNE01.JPG,AFNE01.JPG,AFNE01.JPG,AFNE01.JPG,AFNE01.JPG,,,,,,,,,,,,,0,1,1,6,,,,,,,,,,,AMNE05.jpg,AMSA14.jpg,AMSA15.jpg,AMNE12.jpg,AMSA15.jpg,MS,2,num_2,32,num_8,0.850101241609,,,2017_May_23_1551,60.0036758713,FEMA4ImagesEEG,001,100537,
AFNE01.JPG,AFNE01.JPG,AFNE01.JPG,AFNE01.JPG,AFNE01.JPG,AFNE01.JPG,,,,,,,,,,,,,0,2,2,4,,,,,,,,,,,AMNE04.jpg,AMNE07.jpg,AMSA18.jpg,AMSA11.jpg,AMNE07.jpg,MN,1,num_6,32,num_8,0.98345912213,,,2017_May_23_1551,60.0036758713,FEMA4ImagesEEG,001,100537,
AFNE01.JPG,AFNE01.JPG,AFNE01.JPG,AFNE01.JPG,AFNE01.JPG,AFNE01.JPG,,,,,,,,,,,,,0,3,3,5,,,,,,,,,,,AMSA11.jpg,AMSA20.jpg,AMNE12.jpg,AMNE18.jpg,AMSA20.jpg,MS,2,num_6,16,num_6,1.43341391394,,,2017_May_23_1551,60.0036758713,FEMA4ImagesEEG,001,100537,
AFNE01.JPG,AFNE01.JPG,AFNE01.JPG,AFNE01.JPG,AFNE01.JPG,AFNE01.JPG,,,,,,,,,,,,,0,4,4,0,,,,,,,,,,,AMSA15.jpg,AMNE01.jpg,AMNE13.jpg,AMSA02.jpg,AMSA15.jpg,MS,2,num_8,32,num_6,1.16673632071,,,2017_May_23_1551,60.0036758713,FEMA4ImagesEEG,001,100537,
AFNE01.JPG,AFNE01.JPG,AFNE01.JPG,AFNE01.JPG,AFNE01.JPG,AFNE01.JPG,,,,,,,,,,,,,0,5,5,7,,,,,,,,,,,AMSA18.jpg,AMNE16.jpg,AMSA12.jpg,AMNE18.jpg,AMNE16.jpg,MN,1,num_6,16,num_6,0.66684585344,,,2017_May_23_1551,60.0036758713,FEMA4ImagesEEG,001,100537,
AFNE01.JPG,AFNE01.JPG,AFNE01.JPG,AFNE01.JPG,AFNE01.JPG,AFNE01.JPG,,,,,,,,,,,,,0,6,6,8,,,,,,,,,,,AMNE10.jpg,AMSA20.jpg,AMSA04.jpg,AMNE05.jpg,AMSA04.jpg,MS,2,num_2,32,num_8,1.25009245321,,,2017_May_23_1551,60.0036758713,FEMA4ImagesEEG,001,100537,
AFNE01.JPG,AFNE01.JPG,AFNE01.JPG,AFNE01.JPG,AFNE01.JPG,AFNE01.JPG,,,,,,,,,,,,,0,7,7,3,,,,,,,,,,,AMSA06.jpg,AMSA10.jpg,AMNE04.jpg,AMNE17.jpg,AMSA06.jpg,MS,2,num_8,32,num_6,1.45006031508,,,2017_May_23_1551,60.0036758713,FEMA4ImagesEEG,001,100537,
AFNE01.JPG,AFNE01.JPG,AFNE01.JPG,AFNE01.JPG,AFNE01.JPG,AFNE01.JPG,,,,,,,,,,,,,0,8,8,9,,,,,,,,,,,AMNE14.jpg,AMNE05.jpg,AMSA09.jpg,AMSA03.jpg,AMSA03.jpg,MS,2,num_4,32,num_6,0.73344300501,,,2017_May_23_1551,60.0036758713,FEMA4ImagesEEG,001,100537,
AFNE01.JPG,AFNE01.JPG,AFNE01.JPG,AFNE01.JPG,AFNE01.JPG,AFNE01.JPG,,,,,,,,,,,,,0,9,9,2,,,,,,,,,,,AMNE04.jpg,AMNE18.jpg,AMSA16.jpg,AMSA11.jpg,AMNE04.jpg,MN,1,num_8,32,num_6,0.850109260064,,,2017_May_23_1551,60.0036758713,FEMA4ImagesEEG,001,100537,
AFNE01.JPG,AFNE01.JPG,AFNE01.JPG,AFNE01.JPG,AFNE01.JPG,AFNE01.JPG,,,,,,,,,,,,,1,0,10,3,,,,,,,,,,,AMSA17.jpg,AMNE03.jpg,AMSA08.jpg,AMNE14.jpg,AMSA17.jpg,MS,2,num_8,32,num_6,0.683462425717,,,2017_May_23_1551,60.0036758713,FEMA4ImagesEEG,001,100537,
AFNE01.JPG,AFNE01.JPG,AFNE01.JPG,AFNE01.JPG,AFNE01.JPG,AFNE01.JPG,,,,,,,,,,,,,1,1,11,4,,,,,,,,,,,AMNE04.jpg,AMNE05.jpg,AMSA04.jpg,AMSA08.jpg,AMNE05.jpg,MN,1,num_6,16,num_6,0.949697397882,,,2017_May_23_1551,60.0036758713,FEMA4ImagesEEG,001,100537,
AFNE01.JPG,AFNE01.JPG,AFNE01.JPG,AFNE01.JPG,AFNE01.JPG,AFNE01.JPG,,,,,,,,,,,,,1,2,12,2,,,,,,,,,,,AMSA04.jpg,AMNE12.jpg,AMSA20.jpg,AMNE18.jpg,AMNE12.jpg,MN,1,num_6,32,num_4,1.35008761019,,,2017_May_23_1551,60.0036758713,FEMA4ImagesEEG,001,100537,
AFNE01.JPG,AFNE01.JPG,AFNE01.JPG,AFNE01.JPG,AFNE01.JPG,AFNE01.JPG,,,,,,,,,,,,,1,3,13,8,,,,,,,,,,,AMNE14.jpg,AMNE13.jpg,AMSA06.jpg,AMSA04.jpg,AMSA04.jpg,MS,2,num_4,16,num_4,0.666782667628,,,2017_May_23_1551,60.0036758713,FEMA4ImagesEEG,001,100537,
AFNE01.JPG,AFNE01.JPG,AFNE01.JPG,AFNE01.JPG,AFNE01.JPG,AFNE01.JPG,,,,,,,,,,,,,1,4,14,9,,,,,,,,,,,AMSA11.jpg,AMSA04.jpg,AMNE20.jpg,AMNE05.jpg,AMNE05.jpg,MN,1,num_4,16,num_4,0.833450670703,,,2017_May_23_1551,60.0036758713,FEMA4ImagesEEG,001,100537,
AFNE01.JPG,AFNE01.JPG,AFNE01.JPG,AFNE01.JPG,AFNE01.JPG,AFNE01.JPG,,,,,,,,,,,,,1,5,15,7,,,,,,,,,,,AMSA06.jpg,AMNE19.jpg,AMSA02.jpg,AMNE09.jpg,AMSA06.jpg,MS,2,num_8,32,num_6,0.983118175645,,,2017_May_23_1551,60.0036758713,FEMA4ImagesEEG,001,100537,
AFNE01.JPG,AFNE01.JPG,AFNE01.JPG,AFNE01.JPG,AFNE01.JPG,AFNE01.JPG,,,,,,,,,,,,,1,6,16,5,,,,,,,,,,,AMSA04.jpg,AMNE05.jpg,AMNE19.jpg,AMSA02.jpg,AMNE05.jpg,MN,1,num_6,16,num_6,1.0001273338,,,2017_May_23_1551,60.0036758713,FEMA4ImagesEEG,001,100537,
AFNE01.JPG,AFNE01.JPG,AFNE01.JPG,AFNE01.JPG,AFNE01.JPG,AFNE01.JPG,,,,,,,,,,,,,1,7,17,6,,,,,,,,,,,AMNE10.jpg,AMSA16.jpg,AMSA15.jpg,AMNE20.jpg,AMSA15.jpg,MS,2,num_2,16,num_2,1.06674629566,,,2017_May_23_1551,60.0036758713,FEMA4ImagesEEG,001,100537,
AFNE01.JPG,AFNE01.JPG,AFNE01.JPG,AFNE01.JPG,AFNE01.JPG,AFNE01.JPG,,,,,,,,,,,,,1,8,18,1,,,,,,,,,,,AMNE11.jpg,AMSA05.jpg,AMSA04.jpg,AMNE09.jpg,AMSA05.jpg,MS,2,num_6,32,num_4,2.14999241452,,,2017_May_23_1551,60.0036758713,FEMA4ImagesEEG,001,100537,
AFNE01.JPG,AFNE01.JPG,AFNE01.JPG,AFNE01.JPG,AFNE01.JPG,AFNE01.JPG,,,,,,,,,,,,,1,9,19,0,,,,,,,,,,,AMSA06.jpg,AMNE16.jpg,AMSA10.jpg,AMNE14.jpg,AMSA06.jpg,MS,2,num_8,32,num_4,0.866763359052,,,2017_May_23_1551,60.0036758713,FEMA4ImagesEEG,001,100537,
AFNE01.JPG,AFNE01.JPG,AFNE01.JPG,AFNE01.JPG,AFNE01.JPG,AFNE01.JPG,,,,,,,,,,,,,2,0,20,2,,,,,,,,,,,AMSA01.jpg,AMNE09.jpg,AMNE17.jpg,AMSA07.jpg,AMSA07.jpg,MS,2,num_4,32,num_6,1.33341875707,,,2017_May_23_1551,60.0036758713,FEMA4ImagesEEG,001,100537,
AFNE01.JPG,AFNE01.JPG,AFNE01.JPG,AFNE01.JPG,AFNE01.JPG,AFNE01.JPG,,,,,,,,,,,,,2,1,21,7,,,,,,,,,,,AMSA01.jpg,AMNE18.jpg,AMSA06.jpg,AMNE04.jpg,AMNE18.jpg,MN,1,num_6,32,num_8,0.883422269137,,,2017_May_23_1551,60.0036758713,FEMA4ImagesEEG,001,100537,
AFNE01.JPG,AFNE01.JPG,AFNE01.JPG,AFNE01.JPG,AFNE01.JPG,AFNE01.JPG,,,,,,,,,,,,,2,2,22,4,,,,,,,,,,,AMSA19.jpg,AMSA16.jpg,AMNE09.jpg,AMNE02.jpg,AMSA16.jpg,MS,2,num_6,16,num_6,1.26671768574,,,2017_May_23_1551,60.0036758713,FEMA4ImagesEEG,001,100537,
AFNE01.JPG,AFNE01.JPG,AFNE01.JPG,AFNE01.JPG,AFNE01.JPG,AFNE01.JPG,,,,,,,,,,,,,2,3,23,6,,,,,,,,,,,AMSA13.jpg,AMNE20.jpg,AMNE01.jpg,AMSA01.jpg,AMSA01.jpg,MS,2,num_4,16,num_4,1.50006302539,,,2017_May_23_1551,60.0036758713,FEMA4ImagesEEG,001,100537,
AFNE01.JPG,AFNE01.JPG,AFNE01.JPG,AFNE01.JPG,AFNE01.JPG,AFNE01.JPG,,,,,,,,,,,,,2,4,24,8,,,,,,,,,,,AMSA07.jpg,AMNE15.jpg,AMNE12.jpg,AMSA01.jpg,AMNE15.jpg,MN,1,num_6,16,num_6,0.866794470814,,,2017_May_23_1551,60.0036758713,FEMA4ImagesEEG,001,100537,
AFNE01.JPG,AFNE01.JPG,AFNE01.JPG,AFNE01.JPG,AFNE01.JPG,AFNE01.JPG,,,,,,,,,,,,,2,5,25,0,,,,,,,,,,,AMNE10.jpg,AMSA01.jpg,AMSA17.jpg,AMNE16.jpg,AMSA01.jpg,MS,2,num_6,16,num_6,1.06679985928,,,2017_May_23_1551,60.0036758713,FEMA4ImagesEEG,001,100537,
AFNE01.JPG,AFNE01.JPG,AFNE01.JPG,AFNE01.JPG,AFNE01.JPG,AFNE01.JPG,,,,,,,,,,,,,2,6,26,9,,,,,,,,,,,AMNE18.jpg,AMNE03.jpg,AMSA14.jpg,AMSA16.jpg,AMSA14.jpg,MS,2,num_2,32,num_4,1.25007352966,,,2017_May_23_1551,60.0036758713,FEMA4ImagesEEG,001,100537,
AFNE01.JPG,AFNE01.JPG,AFNE01.JPG,AFNE01.JPG,AFNE01.JPG,AFNE01.JPG,,,,,,,,,,,,,2,7,27,5,,,,,,,,,,,AMNE05.jpg,AMSA05.jpg,AMNE03.jpg,AMSA06.jpg,AMSA05.jpg,MS,2,num_6,16,num_6,0.783494147006,,,2017_May_23_1551,60.0036758713,FEMA4ImagesEEG,001,100537,
AFNE01.JPG,AFNE01.JPG,AFNE01.JPG,AFNE01.JPG,AFNE01.JPG,AFNE01.JPG,,,,,,,,,,,,,2,8,28,1,,,,,,,,,,,AMSA03.jpg,AMSA15.jpg,AMNE18.jpg,AMNE02.jpg,AMSA15.jpg,MS,2,num_6,16,num_6,0.566778850742,,,2017_May_23_1551,60.0036758713,FEMA4ImagesEEG,001,100537,
AFNE01.JPG,AFNE01.JPG,AFNE01.JPG,AFNE01.JPG,AFNE01.JPG,AFNE01.JPG,,,,,,,,,,,,,2,9,29,3,,,,,,,,,,,AMNE20.jpg,AMNE12.jpg,AMSA17.jpg,AMSA20.jpg,AMNE12.jpg,MN,1,num_6,32,num_8,1.16674177325,,,2017_May_23_1551,60.0036758713,FEMA4ImagesEEG,001,100537,
AFNE01.JPG,AFNE01.JPG,AFNE01.JPG,AFNE01.JPG,AFNE01.JPG,AFNE01.JPG,,,,,,,,,,,,,3,0,30,1,,,,,,,,,,,AMNE17.jpg,AMSA16.jpg,AMNE14.jpg,AMSA18.jpg,AMSA18.jpg,MS,2,num_4,32,num_2,1.45009848312,,,2017_May_23_1551,60.0036758713,FEMA4ImagesEEG,001,100537,
AFNE01.JPG,AFNE01.JPG,AFNE01.JPG,AFNE01.JPG,AFNE01.JPG,AFNE01.JPG,,,,,,,,,,,,,3,1,31,8,,,,,,,,,,,AMSA09.jpg,AMNE20.jpg,AMNE14.jpg,AMSA04.jpg,AMNE14.jpg,MN,1,num_2,32,num_8,1.28345613938,,,2017_May_23_1551,60.0036758713,FEMA4ImagesEEG,001,100537,
AFNE01.JPG,AFNE01.JPG,AFNE01.JPG,AFNE01.JPG,AFNE01.JPG,AFNE01.JPG,,,,,,,,,,,,,3,2,32,5,,,,,,,,,,,AMNE11.jpg,AMSA15.jpg,AMSA17.jpg,AMNE02.jpg,AMSA17.jpg,MS,2,num_2,32,num_6,2.06670556171,,,2017_May_23_1551,60.0036758713,FEMA4ImagesEEG,001,100537,
AFNE01.JPG,AFNE01.JPG,AFNE01.JPG,AFNE01.JPG,AFNE01.JPG,AFNE01.JPG,,,,,,,,,,,,,3,3,33,7,,,,,,,,,,,AMSA17.jpg,AMSA06.jpg,AMNE08.jpg,AMNE06.jpg,AMSA17.jpg,MS,2,num_8,16,num_8,0.883500529686,,,2017_May_23_1551,60.0036758713,FEMA4ImagesEEG,001,100537,
AFNE01.JPG,AFNE01.JPG,AFNE01.JPG,AFNE01.JPG,AFNE01.JPG,AFNE01.JPG,,,,,,,,,,,,,3,4,34,9,,,,,,,,,,,AMSA01.jpg,AMNE02.jpg,AMNE12.jpg,AMSA14.jpg,AMSA01.jpg,MS,2,num_8,32,num_6,0.916745541967,,,2017_May_23_1551,60.0036758713,FEMA4ImagesEEG,001,100537,
AFNE01.JPG,AFNE01.JPG,AFNE01.JPG,AFNE01.JPG,AFNE01.JPG,AFNE01.JPG,,,,,,,,,,,,,3,5,35,0,,,,,,,,,,,AMNE01.jpg,AMSA14.jpg,AMSA07.jpg,AMNE02.jpg,AMSA07.jpg,MS,2,num_2,32,num_4,0.900125441374,,,2017_May_23_1551,60.0036758713,FEMA4ImagesEEG,001,100537,
AFNE01.JPG,AFNE01.JPG,AFNE01.JPG,AFNE01.JPG,AFNE01.JPG,AFNE01.JPG,,,,,,,,,,,,,3,6,36,3,,,,,,,,,,,AMSA07.jpg,AMSA05.jpg,AMNE17.jpg,AMNE10.jpg,AMSA07.jpg,MS,2,num_8,32,num_6,0.866815960384,,,2017_May_23_1551,60.0036758713,FEMA4ImagesEEG,001,100537,
AFNE01.JPG,AFNE01.JPG,AFNE01.JPG,AFNE01.JPG,AFNE01.JPG,AFNE01.JPG,,,,,,,,,,,,,3,7,37,2,,,,,,,,,,,AMSA05.jpg,AMNE16.jpg,AMSA04.jpg,AMNE17.jpg,AMNE16.jpg,MN,1,num_6,32,num_8,0.933497787453,,,2017_May_23_1551,60.0036758713,FEMA4ImagesEEG,001,100537,
AFNE01.JPG,AFNE01.JPG,AFNE01.JPG,AFNE01.JPG,AFNE01.JPG,AFNE01.JPG,,,,,,,,,,,,,3,8,38,4,,,,,,,,,,,AMSA11.jpg,AMSA06.jpg,AMNE07.jpg,AMNE10.jpg,AMSA11.jpg,MS,2,num_8,32,num_6,0.950108907302,,,2017_May_23_1551,60.0036758713,FEMA4ImagesEEG,001,100537,
AFNE01.JPG,AFNE01.JPG,AFNE01.JPG,AFNE01.JPG,AFNE01.JPG,AFNE01.JPG,,,,,,,,,,,,,3,9,39,6,,,,,,,,,,,AMSA01.jpg,AMSA02.jpg,AMNE02.jpg,AMNE11.jpg,AMSA02.jpg,MS,2,num_6,32,num_8,0.966735743335,,,2017_May_23_1551,60.0036758713,FEMA4ImagesEEG,001,100537,
AFNE01.JPG,AFNE01.JPG,AFNE01.JPG,AFNE01.JPG,AFNE01.JPG,AFNE01.JPG,,,,,,,,,,,,,4,0,40,9,,,,,,,,,,,AMSA16.jpg,AMNE18.jpg,AMNE20.jpg,AMSA05.jpg,AMSA05.jpg,MS,2,num_4,32,num_6,0.983444368117,,,2017_May_23_1551,60.0036758713,FEMA4ImagesEEG,001,100537,
AFNE01.JPG,AFNE01.JPG,AFNE01.JPG,AFNE01.JPG,AFNE01.JPG,AFNE01.JPG,,,,,,,,,,,,,4,1,41,2,,,,,,,,,,,AMNE19.jpg,AMNE01.jpg,AMSA06.jpg,AMSA15.jpg,AMNE01.jpg,MN,1,num_6,16,num_6,0.966767817386,,,2017_May_23_1551,60.0036758713,FEMA4ImagesEEG,001,100537,
AFNE01.JPG,AFNE01.JPG,AFNE01.JPG,AFNE01.JPG,AFNE01.JPG,AFNE01.JPG,,,,,,,,,,,,,4,2,42,1,,,,,,,,,,,AMNE01.jpg,AMSA06.jpg,AMNE16.jpg,AMSA11.jpg,AMNE01.jpg,MN,1,num_8,32,num_4,0.933434922365,,,2017_May_23_1551,60.0036758713,FEMA4ImagesEEG,001,100537,
AFNE01.JPG,AFNE01.JPG,AFNE01.JPG,AFNE01.JPG,AFNE01.JPG,AFNE01.JPG,,,,,,,,,,,,,4,3,43,7,,,,,,,,,,,AMSA02.jpg,AMNE03.jpg,AMSA08.jpg,AMNE13.jpg,AMNE13.jpg,MN,1,num_4,32,num_6,1.05016468384,,,2017_May_23_1551,60.0036758713,FEMA4ImagesEEG,001,100537,
AFNE01.JPG,AFNE01.JPG,AFNE01.JPG,AFNE01.JPG,AFNE01.JPG,AFNE01.JPG,,,,,,,,,,,,,4,4,44,6,,,,,,,,,,,AMNE13.jpg,AMSA17.jpg,AMNE11.jpg,AMSA12.jpg,AMSA12.jpg,MS,2,num_4,32,num_6,0.683481990942,,,2017_May_23_1551,60.0036758713,FEMA4ImagesEEG,001,100537,
AFNE01.JPG,AFNE01.JPG,AFNE01.JPG,AFNE01.JPG,AFNE01.JPG,AFNE01.JPG,,,,,,,,,,,,,4,5,45,4,,,,,,,,,,,AMSA01.jpg,AMNE03.jpg,AMNE01.jpg,AMSA09.jpg,AMSA01.jpg,MS,2,num_8,16,num_8,0.983434425201,,,2017_May_23_1551,60.0036758713,FEMA4ImagesEEG,001,100537,
AFNE01.JPG,AFNE01.JPG,AFNE01.JPG,AFNE01.JPG,AFNE01.JPG,AFNE01.JPG,,,,,,,,,,,,,4,6,46,3,,,,,,,,,,,AMSA18.jpg,AMSA09.jpg,AMNE13.jpg,AMNE16.jpg,AMSA09.jpg,MS,2,num_6,32,num_2,1.10011928319,,,2017_May_23_1551,60.0036758713,FEMA4ImagesEEG,001,100537,
AFNE01.JPG,AFNE01.JPG,AFNE01.JPG,AFNE01.JPG,AFNE01.JPG,AFNE01.JPG,,,,,,,,,,,,,4,7,47,0,,,,,,,,,,,AMNE18.jpg,AMNE08.jpg,AMSA05.jpg,AMSA07.jpg,AMSA05.jpg,MS,2,num_2,16,num_2,0.683475576108,,,2017_May_23_1551,60.0036758713,FEMA4ImagesEEG,001,100537,
AFNE01.JPG,AFNE01.JPG,AFNE01.JPG,AFNE01.JPG,AFNE01.JPG,AFNE01.JPG,,,,,,,,,,,,,4,8,48,5,,,,,,,,,,,AMNE10.jpg,AMSA06.jpg,AMSA09.jpg,AMNE09.jpg,AMSA09.jpg,MS,2,num_2,16,num_2,0.700161428424,,,2017_May_23_1551,60.0036758713,FEMA4ImagesEEG,001,100537,
AFNE01.JPG,AFNE01.JPG,AFNE01.JPG,AFNE01.JPG,AFNE01.JPG,AFNE01.JPG,,,,,,,,,,,,,4,9,49,8,,,,,,,,,,,AMNE16.jpg,AMSA01.jpg,AMNE17.jpg,AMSA03.jpg,AMNE17.jpg,MN,1,num_2,32,num_6,1.1167287993,,,2017_May_23_1551,60.0036758713,FEMA4ImagesEEG,001,100537,
AFNE01.JPG,AFNE01.JPG,AFNE01.JPG,AFNE01.JPG,AFNE01.JPG,AFNE01.JPG,,,,,,,,,,,,,5,0,50,6,,,,,,,,,,,AMNE10.jpg,AMNE04.jpg,AMSA02.jpg,AMSA01.jpg,AMSA01.jpg,MS,2,num_4,32,num_2,0.783466242603,,,2017_May_23_1551,60.0036758713,FEMA4ImagesEEG,001,100537,
AFNE01.JPG,AFNE01.JPG,AFNE01.JPG,AFNE01.JPG,AFNE01.JPG,AFNE01.JPG,,,,,,,,,,,,,5,1,51,9,,,,,,,,,,,AMSA08.jpg,AMNE07.jpg,AMSA15.jpg,AMNE14.jpg,AMSA08.jpg,MS,2,num_8,32,num_2,0.733469947241,,,2017_May_23_1551,60.0036758713,FEMA4ImagesEEG,001,100537,
AFNE01.JPG,AFNE01.JPG,AFNE01.JPG,AFNE01.JPG,AFNE01.JPG,AFNE01.JPG,,,,,,,,,,,,,5,2,52,0,,,,,,,,,,,AMSA15.jpg,AMSA08.jpg,AMNE18.jpg,AMNE02.jpg,AMSA15.jpg,MS,2,num_8,32,num_6,1.35009819455,,,2017_May_23_1551,60.0036758713,FEMA4ImagesEEG,001,100537,
AFNE01.JPG,AFNE01.JPG,AFNE01.JPG,AFNE01.JPG,AFNE01.JPG,AFNE01.JPG,,,,,,,,,,,,,5,3,53,5,,,,,,,,,,,AMSA09.jpg,AMSA15.jpg,AMNE17.jpg,AMNE16.jpg,AMNE17.jpg,MN,1,num_2,32,num_6,1.21670150443,,,2017_May_23_1551,60.0036758713,FEMA4ImagesEEG,001,100537,
AFNE01.JPG,AFNE01.JPG,AFNE01.JPG,AFNE01.JPG,AFNE01.JPG,AFNE01.JPG,,,,,,,,,,,,,5,4,54,3,,,,,,,,,,,AMNE05.jpg,AMSA10.jpg,AMSA09.jpg,AMNE02.jpg,AMNE05.jpg,MN,1,num_8,32,num_2,0.750182741554,,,2017_May_23_1551,60.0036758713,FEMA4ImagesEEG,001,100537,
AFNE01.JPG,AFNE01.JPG,AFNE01.JPG,AFNE01.JPG,AFNE01.JPG,AFNE01.JPG,,,,,,,,,,,,,5,5,55,1,,,,,,,,,,,AMNE08.jpg,AMSA01.jpg,AMSA12.jpg,AMNE20.jpg,AMSA12.jpg,MS,2,num_2,32,num_6,1.56674998417,,,2017_May_23_1551,60.0036758713,FEMA4ImagesEEG,001,100537,
AFNE01.JPG,AFNE01.JPG,AFNE01.JPG,AFNE01.JPG,AFNE01.JPG,AFNE01.JPG,,,,,,,,,,,,,5,6,56,8,,,,,,,,,,,AMSA06.jpg,AMSA11.jpg,AMNE13.jpg,AMNE20.jpg,AMSA06.jpg,MS,2,num_8,16,num_8,0.966800212162,,,2017_May_23_1551,60.0036758713,FEMA4ImagesEEG,001,100537,
AFNE01.JPG,AFNE01.JPG,AFNE01.JPG,AFNE01.JPG,AFNE01.JPG,AFNE01.JPG,,,,,,,,,,,,,5,7,57,7,,,,,,,,,,,AMSA09.jpg,AMSA04.jpg,AMNE20.jpg,AMNE05.jpg,AMNE05.jpg,MN,1,num_4,32,num_2,0.816810363554,,,2017_May_23_1551,60.0036758713,FEMA4ImagesEEG,001,100537,
AFNE01.JPG,AFNE01.JPG,AFNE01.JPG,AFNE01.JPG,AFNE01.JPG,AFNE01.JPG,,,,,,,,,,,,,5,8,58,4,,,,,,,,,,,AMSA01.jpg,AMNE11.jpg,AMSA16.jpg,AMNE10.jpg,AMNE10.jpg,MN,1,num_4,32,num_8,1.35009338346,,,2017_May_23_1551,60.0036758713,FEMA4ImagesEEG,001,100537,
AFNE01.JPG,AFNE01.JPG,AFNE01.JPG,AFNE01.JPG,AFNE01.JPG,AFNE01.JPG,,,,,,,,,,,,,5,9,59,2,,,,,,,,,,,AMNE08.jpg,AMSA17.jpg,AMNE19.jpg,AMSA05.jpg,AMSA17.jpg,MS,2,num_6,32,num_4,1.05012298771,,,2017_May_23_1551,60.0036758713,FEMA4ImagesEEG,001,100537,
,,,,,,,,,,,,,,,,,,,,,,,,,,,,,,,,,,,,,,,,,,,space,116.391174713,2017_May_23_1551,60.0036758713,FEMA4ImagesEEG,001,100537,
AFNE01.JPG,AFNE01.JPG,AFNE01.JPG,AFNE01.JPG,AFNE01.JPG,AFNE01.JPG,,,,,,,,,,,,,,,,,0,0,0,6,,,,,,,AFNE08.jpg,AFSA12.jpg,AFSA05.jpg,AFNE20.jpg,AFSA05.jpg,FS,4,num_2,16,num_2,1.10018214828,,,2017_May_23_1551,60.0036758713,FEMA4ImagesEEG,001,100537,
AFNE01.JPG,AFNE01.JPG,AFNE01.JPG,AFNE01.JPG,AFNE01.JPG,AFNE01.JPG,,,,,,,,,,,,,,,,,0,1,1,4,,,,,,,AFSA07.jpg,AFNE10.jpg,AFSA19.jpg,AFNE15.jpg,AFSA19.jpg,FS,4,num_2,16,num_2,0.916774729267,,,2017_May_23_1551,60.0036758713,FEMA4ImagesEEG,001,100537,
AFNE01.JPG,AFNE01.JPG,AFNE01.JPG,AFNE01.JPG,AFNE01.JPG,AFNE01.JPG,,,,,,,,,,,,,,,,,0,2,2,7,,,,,,,AFSA09.jpg,AFSA12.jpg,AFNE19.jpg,AFNE18.jpg,AFNE19.jpg,FN,3,num_2,16,num_2,0.799834241625,,,2017_May_23_1551,60.0036758713,FEMA4ImagesEEG,001,100537,
AFNE01.JPG,AFNE01.JPG,AFNE01.JPG,AFNE01.JPG,AFNE01.JPG,AFNE01.JPG,,,,,,,,,,,,,,,,,0,3,3,3,,,,,,,AFSA03.jpg,AFNE13.jpg,AFNE19.jpg,AFSA09.jpg,AFNE13.jpg,FN,3,num_6,32,num_8,0.983466819976,,,2017_May_23_1551,60.0036758713,FEMA4ImagesEEG,001,100537,
AFNE01.JPG,AFNE01.JPG,AFNE01.JPG,AFNE01.JPG,AFNE01.JPG,AFNE01.JPG,,,,,,,,,,,,,,,,,0,4,4,9,,,,,,,AFNE19.jpg,AFSA06.jpg,AFNE05.jpg,AFSA15.jpg,AFSA15.jpg,FS,4,num_4,16,num_4,0.600019051926,,,2017_May_23_1551,60.0036758713,FEMA4ImagesEEG,001,100537,
AFNE01.JPG,AFNE01.JPG,AFNE01.JPG,AFNE01.JPG,AFNE01.JPG,AFNE01.JPG,,,,,,,,,,,,,,,,,0,5,5,2,,,,,,,AFSA10.jpg,AFNE18.jpg,AFNE17.jpg,AFSA19.jpg,AFSA19.jpg,FS,4,num_4,32,num_8,0.850150956307,,,2017_May_23_1551,60.0036758713,FEMA4ImagesEEG,001,100537,
AFNE01.JPG,AFNE01.JPG,AFNE01.JPG,AFNE01.JPG,AFNE01.JPG,AFNE01.JPG,,,,,,,,,,,,,,,,,0,6,6,8,,,,,,,AFNE14.jpg,AFSA02.jpg,AFSA03.jpg,AFNE01.jpg,AFNE01.jpg,FN,3,num_4,16,num_4,0.850109580788,,,2017_May_23_1551,60.0036758713,FEMA4ImagesEEG,001,100537,
AFNE01.JPG,AFNE01.JPG,AFNE01.JPG,AFNE01.JPG,AFNE01.JPG,AFNE01.JPG,,,,,,,,,,,,,,,,,0,7,7,5,,,,,,,AFNE17.jpg,AFNE02.jpg,AFSA19.jpg,AFSA05.jpg,AFNE17.jpg,FN,3,num_8,16,num_8,0.716783132753,,,2017_May_23_1551,60.0036758713,FEMA4ImagesEEG,001,100537,
AFNE01.JPG,AFNE01.JPG,AFNE01.JPG,AFNE01.JPG,AFNE01.JPG,AFNE01.JPG,,,,,,,,,,,,,,,,,0,8,8,0,,,,,,,AFNE17.jpg,AFSA19.jpg,AFNE01.jpg,AFSA12.jpg,AFNE17.jpg,FN,3,num_8,32,num_2,0.816741083749,,,2017_May_23_1551,60.0036758713,FEMA4ImagesEEG,001,100537,
AFNE01.JPG,AFNE01.JPG,AFNE01.JPG,AFNE01.JPG,AFNE01.JPG,AFNE01.JPG,,,,,,,,,,,,,,,,,0,9,9,1,,,,,,,AFSA13.jpg,AFNE04.jpg,AFNE16.jpg,AFSA01.jpg,AFSA01.jpg,FS,4,num_4,32,num_2,0.833457085537,,,2017_May_23_1551,60.0036758713,FEMA4ImagesEEG,001,100537,
AFNE01.JPG,AFNE01.JPG,AFNE01.JPG,AFNE01.JPG,AFNE01.JPG,AFNE01.JPG,,,,,,,,,,,,,,,,,1,0,10,9,,,,,,,AFNE18.jpg,AFSA01.jpg,AFNE01.jpg,AFSA06.jpg,AFNE01.jpg,FN,3,num_2,16,num_2,1.63341224601,,,2017_May_23_1551,60.0036758713,FEMA4ImagesEEG,001,100537,
AFNE01.JPG,AFNE01.JPG,AFNE01.JPG,AFNE01.JPG,AFNE01.JPG,AFNE01.JPG,,,,,,,,,,,,,,,,,1,1,11,5,,,,,,,AFSA19.jpg,AFSA13.jpg,AFNE16.jpg,AFNE13.jpg,AFSA19.jpg,FS,4,num_8,16,num_8,1.01657840447,,,2017_May_23_1551,60.0036758713,FEMA4ImagesEEG,001,100537,
AFNE01.JPG,AFNE01.JPG,AFNE01.JPG,AFNE01.JPG,AFNE01.JPG,AFNE01.JPG,,,,,,,,,,,,,,,,,1,2,12,6,,,,,,,AFSA13.jpg,AFNE19.jpg,AFSA14.jpg,AFNE15.jpg,AFNE15.jpg,FN,3,num_4,16,num_4,1.26657463564,,,2017_May_23_1551,60.0036758713,FEMA4ImagesEEG,001,100537,
AFNE01.JPG,AFNE01.JPG,AFNE01.JPG,AFNE01.JPG,AFNE01.JPG,AFNE01.JPG,,,,,,,,,,,,,,,,,1,3,13,1,,,,,,,AFNE11.jpg,AFSA03.jpg,AFSA06.jpg,AFNE15.jpg,AFSA06.jpg,FS,4,num_2,32,num_6,0.700180031359,,,2017_May_23_1551,60.0036758713,FEMA4ImagesEEG,001,100537,
AFNE01.JPG,AFNE01.JPG,AFNE01.JPG,AFNE01.JPG,AFNE01.JPG,AFNE01.JPG,,,,,,,,,,,,,,,,,1,4,14,8,,,,,,,AFNE12.jpg,AFSA18.jpg,AFSA13.jpg,AFNE06.jpg,AFNE06.jpg,FN,3,num_4,32,num_8,1.08345010947,,,2017_May_23_1551,60.0036758713,FEMA4ImagesEEG,001,100537,
AFNE01.JPG,AFNE01.JPG,AFNE01.JPG,AFNE01.JPG,AFNE01.JPG,AFNE01.JPG,,,,,,,,,,,,,,,,,1,5,15,3,,,,,,,AFNE01.jpg,AFSA01.jpg,AFSA18.jpg,AFNE14.jpg,AFNE14.jpg,FN,3,num_4,32,num_8,0.960425185622,,,2017_May_23_1551,60.0036758713,FEMA4ImagesEEG,001,100537,
AFNE01.JPG,AFNE01.JPG,AFNE01.JPG,AFNE01.JPG,AFNE01.JPG,AFNE01.JPG,,,,,,,,,,,,,,,,,1,6,16,2,,,,,,,AFSA02.jpg,AFSA09.jpg,AFNE03.jpg,AFNE16.jpg,AFSA09.jpg,FS,4,num_6,16,num_6,1.06685406435,,,2017_May_23_1551,60.0036758713,FEMA4ImagesEEG,001,100537,
AFNE01.JPG,AFNE01.JPG,AFNE01.JPG,AFNE01.JPG,AFNE01.JPG,AFNE01.JPG,,,,,,,,,,,,,,,,,1,7,17,0,,,,,,,AFSA02.jpg,AFNE05.jpg,AFNE07.jpg,AFSA13.jpg,AFNE05.jpg,FN,3,num_6,32,num_8,1.00011065532,,,2017_May_23_1551,60.0036758713,FEMA4ImagesEEG,001,100537,
AFNE01.JPG,AFNE01.JPG,AFNE01.JPG,AFNE01.JPG,AFNE01.JPG,AFNE01.JPG,,,,,,,,,,,,,,,,,1,8,18,7,,,,,,,AFNE11.jpg,AFSA03.jpg,AFNE02.jpg,AFSA08.jpg,AFSA08.jpg,FS,4,num_4,32,num_8,1.28345229046,,,2017_May_23_1551,60.0036758713,FEMA4ImagesEEG,001,100537,
AFNE01.JPG,AFNE01.JPG,AFNE01.JPG,AFNE01.JPG,AFNE01.JPG,AFNE01.JPG,,,,,,,,,,,,,,,,,1,9,19,4,,,,,,,AFNE03.jpg,AFSA20.jpg,AFNE02.jpg,AFSA08.jpg,AFSA20.jpg,FS,4,num_6,32,num_8,1.03336112015,,,2017_May_23_1551,60.0036758713,FEMA4ImagesEEG,001,100537,
AFNE01.JPG,AFNE01.JPG,AFNE01.JPG,AFNE01.JPG,AFNE01.JPG,AFNE01.JPG,,,,,,,,,,,,,,,,,2,0,20,0,,,,,,,AFSA18.jpg,AFNE02.jpg,AFSA06.jpg,AFNE09.jpg,AFSA06.jpg,FS,4,num_2,32,num_8,1.06673506973,,,2017_May_23_1551,60.0036758713,FEMA4ImagesEEG,001,100537,
AFNE01.JPG,AFNE01.JPG,AFNE01.JPG,AFNE01.JPG,AFNE01.JPG,AFNE01.JPG,,,,,,,,,,,,,,,,,2,1,21,5,,,,,,,AFNE02.jpg,AFSA13.jpg,AFNE10.jpg,AFSA09.jpg,AFNE02.jpg,FN,3,num_8,16,num_8,1.21674704936,,,2017_May_23_1551,60.0036758713,FEMA4ImagesEEG,001,100537,
AFNE01.JPG,AFNE01.JPG,AFNE01.JPG,AFNE01.JPG,AFNE01.JPG,AFNE01.JPG,,,,,,,,,,,,,,,,,2,2,22,9,,,,,,,AFSA12.jpg,AFNE17.jpg,AFNE04.jpg,AFSA09.jpg,AFSA12.jpg,FS,4,num_8,16,num_8,0.883514321526,,,2017_May_23_1551,60.0036758713,FEMA4ImagesEEG,001,100537,
AFNE01.JPG,AFNE01.JPG,AFNE01.JPG,AFNE01.JPG,AFNE01.JPG,AFNE01.JPG,,,,,,,,,,,,,,,,,2,3,23,2,,,,,,,AFSA02.jpg,AFNE05.jpg,AFSA04.jpg,AFNE19.jpg,AFNE05.jpg,FN,3,num_6,16,num_6,0.916812255862,,,2017_May_23_1551,60.0036758713,FEMA4ImagesEEG,001,100537,
AFNE01.JPG,AFNE01.JPG,AFNE01.JPG,AFNE01.JPG,AFNE01.JPG,AFNE01.JPG,,,,,,,,,,,,,,,,,2,4,24,4,,,,,,,AFSA03.jpg,AFNE20.jpg,AFSA13.jpg,AFNE01.jpg,AFSA13.jpg,FS,4,num_2,16,num_2,0.633483450278,,,2017_May_23_1551,60.0036758713,FEMA4ImagesEEG,001,100537,
AFNE01.JPG,AFNE01.JPG,AFNE01.JPG,AFNE01.JPG,AFNE01.JPG,AFNE01.JPG,,,,,,,,,,,,,,,,,2,5,25,3,,,,,,,AFNE15.jpg,AFNE07.jpg,AFSA03.jpg,AFSA09.jpg,AFSA03.jpg,FS,4,num_2,16,num_2,1.3333449869,,,2017_May_23_1551,60.0036758713,FEMA4ImagesEEG,001,100537,
AFNE01.JPG,AFNE01.JPG,AFNE01.JPG,AFNE01.JPG,AFNE01.JPG,AFNE01.JPG,,,,,,,,,,,,,,,,,2,6,26,1,,,,,,,AFNE18.jpg,AFNE09.jpg,AFSA17.jpg,AFSA01.jpg,AFNE09.jpg,FN,3,num_6,16,num_6,0.81677444058,,,2017_May_23_1551,60.0036758713,FEMA4ImagesEEG,001,100537,
AFNE01.JPG,AFNE01.JPG,AFNE01.JPG,AFNE01.JPG,AFNE01.JPG,AFNE01.JPG,,,,,,,,,,,,,,,,,2,7,27,6,,,,,,,AFSA09.jpg,AFSA19.jpg,AFNE02.jpg,AFNE11.jpg,AFNE11.jpg,FN,3,num_4,32,num_2,0.950070097693,,,2017_May_23_1551,60.0036758713,FEMA4ImagesEEG,001,100537,
AFNE01.JPG,AFNE01.JPG,AFNE01.JPG,AFNE01.JPG,AFNE01.JPG,AFNE01.JPG,,,,,,,,,,,,,,,,,2,8,28,7,,,,,,,AFNE20.jpg,AFSA10.jpg,AFNE03.jpg,AFSA04.jpg,AFSA04.jpg,FS,4,num_4,32,num_6,1.11671372456,,,2017_May_23_1551,60.0036758713,FEMA4ImagesEEG,001,100537,
AFNE01.JPG,AFNE01.JPG,AFNE01.JPG,AFNE01.JPG,AFNE01.JPG,AFNE01.JPG,,,,,,,,,,,,,,,,,2,9,29,8,,,,,,,AFSA09.jpg,AFNE10.jpg,AFSA07.jpg,AFNE03.jpg,AFNE03.jpg,FN,3,num_4,32,num_2,0.866829110775,,,2017_May_23_1551,60.0036758713,FEMA4ImagesEEG,001,100537,
AFNE01.JPG,AFNE01.JPG,AFNE01.JPG,AFNE01.JPG,AFNE01.JPG,AFNE01.JPG,,,,,,,,,,,,,,,,,3,0,30,1,,,,,,,AFNE06.jpg,AFSA09.jpg,AFNE01.jpg,AFSA05.jpg,AFSA05.jpg,FS,4,num_4,32,num_2,1.21658924548,,,2017_May_23_1551,60.0036758713,FEMA4ImagesEEG,001,100537,
AFNE01.JPG,AFNE01.JPG,AFNE01.JPG,AFNE01.JPG,AFNE01.JPG,AFNE01.JPG,,,,,,,,,,,,,,,,,3,1,31,5,,,,,,,AFNE02.jpg,AFNE10.jpg,AFSA14.jpg,AFSA17.jpg,AFSA14.jpg,FS,4,num_2,32,num_6,0.766837802832,,,2017_May_23_1551,60.0036758713,FEMA4ImagesEEG,001,100537,
AFNE01.JPG,AFNE01.JPG,AFNE01.JPG,AFNE01.JPG,AFNE01.JPG,AFNE01.JPG,,,,,,,,,,,,,,,,,3,2,32,9,,,,,,,AFNE06.jpg,AFSA02.jpg,AFNE14.jpg,AFSA17.jpg,AFNE14.jpg,FN,3,num_2,16,num_2,0.800018987735,,,2017_May_23_1551,60.0036758713,FEMA4ImagesEEG,001,100537,
AFNE01.JPG,AFNE01.JPG,AFNE01.JPG,AFNE01.JPG,AFNE01.JPG,AFNE01.JPG,,,,,,,,,,,,,,,,,3,3,33,0,,,,,,,AFNE19.jpg,AFSA05.jpg,AFNE07.jpg,AFSA19.jpg,AFSA19.jpg,FS,4,num_4,32,num_8,0.716774472618,,,2017_May_23_1551,60.0036758713,FEMA4ImagesEEG,001,100537,
AFNE01.JPG,AFNE01.JPG,AFNE01.JPG,AFNE01.JPG,AFNE01.JPG,AFNE01.JPG,,,,,,,,,,,,,,,,,3,4,34,3,,,,,,,AFSA07.jpg,AFNE16.jpg,AFSA03.jpg,AFNE05.jpg,AFNE16.jpg,FN,3,num_6,16,num_6,0.550130845862,,,2017_May_23_1551,60.0036758713,FEMA4ImagesEEG,001,100537,
AFNE01.JPG,AFNE01.JPG,AFNE01.JPG,AFNE01.JPG,AFNE01.JPG,AFNE01.JPG,,,,,,,,,,,,,,,,,3,5,35,7,,,,,,,AFNE05.jpg,AFSA10.jpg,AFNE18.jpg,AFSA02.jpg,AFSA02.jpg,FS,4,num_4,16,num_4,0.816877398174,,,2017_May_23_1551,60.0036758713,FEMA4ImagesEEG,001,100537,
AFNE01.JPG,AFNE01.JPG,AFNE01.JPG,AFNE01.JPG,AFNE01.JPG,AFNE01.JPG,,,,,,,,,,,,,,,,,3,6,36,6,,,,,,,AFSA13.jpg,AFNE14.jpg,AFNE20.jpg,AFSA10.jpg,AFSA10.jpg,FS,4,num_4,32,num_6,0.866832318134,,,2017_May_23_1551,60.0036758713,FEMA4ImagesEEG,001,100537,
AFNE01.JPG,AFNE01.JPG,AFNE01.JPG,AFNE01.JPG,AFNE01.JPG,AFNE01.JPG,,,,,,,,,,,,,,,,,3,7,37,8,,,,,,,AFSA06.jpg,AFSA13.jpg,AFNE12.jpg,AFNE07.jpg,AFSA13.jpg,FS,4,num_6,32,num_8,1.10013467877,,,2017_May_23_1551,60.0036758713,FEMA4ImagesEEG,001,100537,
AFNE01.JPG,AFNE01.JPG,AFNE01.JPG,AFNE01.JPG,AFNE01.JPG,AFNE01.JPG,,,,,,,,,,,,,,,,,3,8,38,2,,,,,,,AFSA17.jpg,AFNE17.jpg,AFSA07.jpg,AFNE20.jpg,AFSA07.jpg,FS,4,num_2,32,num_6,0.933772982215,,,2017_May_23_1551,60.0036758713,FEMA4ImagesEEG,001,100537,
AFNE01.JPG,AFNE01.JPG,AFNE01.JPG,AFNE01.JPG,AFNE01.JPG,AFNE01.JPG,,,,,,,,,,,,,,,,,3,9,39,4,,,,,,,AFNE09.jpg,AFSA13.jpg,AFNE17.jpg,AFSA03.jpg,AFNE17.jpg,FN,3,num_2,16,num_2,1.41679541697,,,2017_May_23_1551,60.0036758713,FEMA4ImagesEEG,001,100537,
AFNE01.JPG,AFNE01.JPG,AFNE01.JPG,AFNE01.JPG,AFNE01.JPG,AFNE01.JPG,,,,,,,,,,,,,,,,,4,0,40,2,,,,,,,AFNE18.jpg,AFSA16.jpg,AFSA17.jpg,AFNE08.jpg,AFSA17.jpg,FS,4,num_2,16,num_2,0.833511931938,,,2017_May_23_1551,60.0036758713,FEMA4ImagesEEG,001,100537,
AFNE01.JPG,AFNE01.JPG,AFNE01.JPG,AFNE01.JPG,AFNE01.JPG,AFNE01.JPG,,,,,,,,,,,,,,,,,4,1,41,0,,,,,,,AFNE13.jpg,AFNE11.jpg,AFSA14.jpg,AFSA20.jpg,AFSA20.jpg,FS,4,num_4,16,num_4,0.61680433352,,,2017_May_23_1551,60.0036758713,FEMA4ImagesEEG,001,100537,
AFNE01.JPG,AFNE01.JPG,AFNE01.JPG,AFNE01.JPG,AFNE01.JPG,AFNE01.JPG,,,,,,,,,,,,,,,,,4,2,42,3,,,,,,,AFSA04.jpg,AFNE04.jpg,AFNE07.jpg,AFSA08.jpg,AFSA08.jpg,FS,4,num_4,32,num_8,0.633477035444,,,2017_May_23_1551,60.0036758713,FEMA4ImagesEEG,001,100537,
AFNE01.JPG,AFNE01.JPG,AFNE01.JPG,AFNE01.JPG,AFNE01.JPG,AFNE01.JPG,,,,,,,,,,,,,,,,,4,3,43,5,,,,,,,AFSA04.jpg,AFNE09.jpg,AFNE07.jpg,AFSA11.jpg,AFNE09.jpg,FN,3,num_6,16,num_6,0.816719914787,,,2017_May_23_1551,60.0036758713,FEMA4ImagesEEG,001,100537,
AFNE01.JPG,AFNE01.JPG,AFNE01.JPG,AFNE01.JPG,AFNE01.JPG,AFNE01.JPG,,,,,,,,,,,,,,,,,4,4,44,4,,,,,,,AFNE08.jpg,AFNE05.jpg,AFSA20.jpg,AFSA04.jpg,AFNE05.jpg,FN,3,num_6,32,num_8,0.750146177248,,,2017_May_23_1551,60.0036758713,FEMA4ImagesEEG,001,100537,
AFNE01.JPG,AFNE01.JPG,AFNE01.JPG,AFNE01.JPG,AFNE01.JPG,AFNE01.JPG,,,,,,,,,,,,,,,,,4,5,45,6,,,,,,,AFNE04.jpg,AFSA17.jpg,AFSA07.jpg,AFNE01.jpg,AFSA17.jpg,FS,4,num_6,16,num_6,0.983407483087,,,2017_May_23_1551,60.0036758713,FEMA4ImagesEEG,001,100537,
AFNE01.JPG,AFNE01.JPG,AFNE01.JPG,AFNE01.JPG,AFNE01.JPG,AFNE01.JPG,,,,,,,,,,,,,,,,,4,6,46,8,,,,,,,AFNE17.jpg,AFSA08.jpg,AFSA18.jpg,AFNE10.jpg,AFNE10.jpg,FN,3,num_4,32,num_8,0.933459940134,,,2017_May_23_1551,60.0036758713,FEMA4ImagesEEG,001,100537,
AFNE01.JPG,AFNE01.JPG,AFNE01.JPG,AFNE01.JPG,AFNE01.JPG,AFNE01.JPG,,,,,,,,,,,,,,,,,4,7,47,9,,,,,,,AFNE01.jpg,AFNE08.jpg,AFSA13.jpg,AFSA04.jpg,AFNE08.jpg,FN,3,num_6,16,num_6,0.716807829682,,,2017_May_23_1551,60.0036758713,FEMA4ImagesEEG,001,100537,
AFNE01.JPG,AFNE01.JPG,AFNE01.JPG,AFNE01.JPG,AFNE01.JPG,AFNE01.JPG,,,,,,,,,,,,,,,,,4,8,48,7,,,,,,,AFNE11.jpg,AFSA02.jpg,AFSA20.jpg,AFNE15.jpg,AFNE11.jpg,FN,3,num_8,32,num_2,1.49986095924,,,2017_May_23_1551,60.0036758713,FEMA4ImagesEEG,001,100537,
AFNE01.JPG,AFNE01.JPG,AFNE01.JPG,AFNE01.JPG,AFNE01.JPG,AFNE01.JPG,,,,,,,,,,,,,,,,,4,9,49,1,,,,,,,AFSA05.jpg,AFNE13.jpg,AFNE20.jpg,AFSA16.jpg,AFNE13.jpg,FN,3,num_6,16,num_6,0.816786628682,,,2017_May_23_1551,60.0036758713,FEMA4ImagesEEG,001,100537,
AFNE01.JPG,AFNE01.JPG,AFNE01.JPG,AFNE01.JPG,AFNE01.JPG,AFNE01.JPG,,,,,,,,,,,,,,,,,5,0,50,7,,,,,,,AFSA10.jpg,AFNE05.jpg,AFNE10.jpg,AFSA13.jpg,AFSA13.jpg,FS,4,num_4,32,num_8,1.14996483084,,,2017_May_23_1551,60.0036758713,FEMA4ImagesEEG,001,100537,
AFNE01.JPG,AFNE01.JPG,AFNE01.JPG,AFNE01.JPG,AFNE01.JPG,AFNE01.JPG,,,,,,,,,,,,,,,,,5,1,51,4,,,,,,,AFNE14.jpg,AFSA16.jpg,AFSA12.jpg,AFNE11.jpg,AFNE14.jpg,FN,3,num_8,16,num_8,1.40002809674,,,2017_May_23_1551,60.0036758713,FEMA4ImagesEEG,001,100537,
AFNE01.JPG,AFNE01.JPG,AFNE01.JPG,AFNE01.JPG,AFNE01.JPG,AFNE01.JPG,,,,,,,,,,,,,,,,,5,2,52,8,,,,,,,AFSA09.jpg,AFNE11.jpg,AFSA02.jpg,AFNE20.jpg,AFSA09.jpg,FS,4,num_8,16,num_8,0.733472192311,,,2017_May_23_1551,60.0036758713,FEMA4ImagesEEG,001,100537,
AFNE01.JPG,AFNE01.JPG,AFNE01.JPG,AFNE01.JPG,AFNE01.JPG,AFNE01.JPG,,,,,,,,,,,,,,,,,5,3,53,5,,,,,,,AFSA01.jpg,AFNE03.jpg,AFSA15.jpg,AFNE07.jpg,AFSA15.jpg,FS,4,num_2,16,num_2,1.03350609459,,,2017_May_23_1551,60.0036758713,FEMA4ImagesEEG,001,100537,
AFNE01.JPG,AFNE01.JPG,AFNE01.JPG,AFNE01.JPG,AFNE01.JPG,AFNE01.JPG,,,,,,,,,,,,,,,,,5,4,54,1,,,,,,,AFNE05.jpg,AFSA04.jpg,AFSA02.jpg,AFNE09.jpg,AFSA04.jpg,FS,4,num_6,32,num_2,0.800130605232,,,2017_May_23_1551,60.0036758713,FEMA4ImagesEEG,001,100537,
AFNE01.JPG,AFNE01.JPG,AFNE01.JPG,AFNE01.JPG,AFNE01.JPG,AFNE01.JPG,,,,,,,,,,,,,,,,,5,5,55,9,,,,,,,AFSA15.jpg,AFNE04.jpg,AFNE03.jpg,AFSA10.jpg,AFNE04.jpg,FN,3,num_6,16,num_6,0.55016420281,,,2017_May_23_1551,60.0036758713,FEMA4ImagesEEG,001,100537,
AFNE01.JPG,AFNE01.JPG,AFNE01.JPG,AFNE01.JPG,AFNE01.JPG,AFNE01.JPG,,,,,,,,,,,,,,,,,5,6,56,3,,,,,,,AFNE12.jpg,AFNE20.jpg,AFSA07.jpg,AFSA03.jpg,AFSA03.jpg,FS,4,num_4,16,num_4,0.633486657753,,,2017_May_23_1551,60.0036758713,FEMA4ImagesEEG,001,100537,
AFNE01.JPG,AFNE01.JPG,AFNE01.JPG,AFNE01.JPG,AFNE01.JPG,AFNE01.JPG,,,,,,,,,,,,,,,,,5,7,57,2,,,,,,,AFNE01.jpg,AFSA15.jpg,AFNE02.jpg,AFSA19.jpg,AFNE02.jpg,FN,3,num_2,32,num_8,0.966799249873,,,2017_May_23_1551,60.0036758713,FEMA4ImagesEEG,001,100537,
AFNE01.JPG,AFNE01.JPG,AFNE01.JPG,AFNE01.JPG,AFNE01.JPG,AFNE01.JPG,,,,,,,,,,,,,,,,,5,8,58,0,,,,,,,AFNE11.jpg,AFSA07.jpg,AFNE05.jpg,AFSA14.jpg,AFSA07.jpg,FS,4,num_6,32,num_2,1.26648482855,,,2017_May_23_1551,60.0036758713,FEMA4ImagesEEG,001,100537,
AFNE01.JPG,AFNE01.JPG,AFNE01.JPG,AFNE01.JPG,AFNE01.JPG,AFNE01.JPG,,,,,,,,,,,,,,,,,5,9,59,6,,,,,,,AFNE03.jpg,AFSA18.jpg,AFSA20.jpg,AFNE13.jpg,AFNE03.jpg,FN,3,num_8,32,num_4,0.633500449476,,,2017_May_23_1551,60.0036758713,FEMA4ImagesEEG,001,100537,
,,,,,,,,,,,,,,,,,,,,,,,,,,,,,,,,,,,,,,,,,,,space,5.09986076679,2017_May_23_1551,60.0036758713,FEMA4ImagesEEG,001,100537,
AFNE01.JPG,AFNE01.JPG,AFNE01.JPG,AFNE01.JPG,AFNE01.JPG,AFNE01.JPG,,,,,,,,,,,,,,,,,,,,,0,0,0,7,,,AMSA20.jpg,AMNE19.jpg,AMNE11.jpg,AMSA10.jpg,AMSA20.jpg,MS,2,num_8,16,num_8,0.633459394798,,,2017_May_23_1551,60.0036758713,FEMA4ImagesEEG,001,100537,
AFNE01.JPG,AFNE01.JPG,AFNE01.JPG,AFNE01.JPG,AFNE01.JPG,AFNE01.JPG,,,,,,,,,,,,,,,,,,,,,0,1,1,9,,,AMNE05.jpg,AMSA16.jpg,AMNE11.jpg,AMSA13.jpg,AMNE05.jpg,MN,1,num_8,32,num_4,1.11676087335,,,2017_May_23_1551,60.0036758713,FEMA4ImagesEEG,001,100537,
AFNE01.JPG,AFNE01.JPG,AFNE01.JPG,AFNE01.JPG,AFNE01.JPG,AFNE01.JPG,,,,,,,,,,,,,,,,,,,,,0,2,2,3,,,AMSA12.jpg,AMNE20.jpg,AMSA02.jpg,AMNE06.jpg,AMSA12.jpg,MS,2,num_8,32,num_6,1.00009910867,,,2017_May_23_1551,60.0036758713,FEMA4ImagesEEG,001,100537,
AFNE01.JPG,AFNE01.JPG,AFNE01.JPG,AFNE01.JPG,AFNE01.JPG,AFNE01.JPG,,,,,,,,,,,,,,,,,,,,,0,3,3,0,,,AMNE17.jpg,AMSA16.jpg,AMSA05.jpg,AMNE11.jpg,AMNE17.jpg,MN,1,num_8,16,num_8,1.00011642859,,,2017_May_23_1551,60.0036758713,FEMA4ImagesEEG,001,100537,
AFNE01.JPG,AFNE01.JPG,AFNE01.JPG,AFNE01.JPG,AFNE01.JPG,AFNE01.JPG,,,,,,,,,,,,,,,,,,,,,0,4,4,2,,,AMSA08.jpg,AMNE19.jpg,AMNE05.jpg,AMSA05.jpg,AMSA08.jpg,MS,2,num_8,16,num_8,0.800137340906,,,2017_May_23_1551,60.0036758713,FEMA4ImagesEEG,001,100537,
AFNE01.JPG,AFNE01.JPG,AFNE01.JPG,AFNE01.JPG,AFNE01.JPG,AFNE01.JPG,,,,,,,,,,,,,,,,,,,,,0,5,5,8,,,AMSA16.jpg,AMNE12.jpg,AMNE01.jpg,AMSA17.jpg,AMNE12.jpg,MN,1,num_6,32,num_4,1.66669189825,,,2017_May_23_1551,60.0036758713,FEMA4ImagesEEG,001,100537,
AFNE01.JPG,AFNE01.JPG,AFNE01.JPG,AFNE01.JPG,AFNE01.JPG,AFNE01.JPG,,,,,,,,,,,,,,,,,,,,,0,6,6,5,,,AMNE06.jpg,AMSA20.jpg,AMSA01.jpg,AMNE20.jpg,AMNE20.jpg,MN,1,num_4,32,num_6,1.05011432781,,,2017_May_23_1551,60.0036758713,FEMA4ImagesEEG,001,100537,
AFNE01.JPG,AFNE01.JPG,AFNE01.JPG,AFNE01.JPG,AFNE01.JPG,AFNE01.JPG,,,,,,,,,,,,,,,,,,,,,0,7,7,4,,,AMSA02.jpg,AMNE01.jpg,AMSA19.jpg,AMNE06.jpg,AMSA19.jpg,MS,2,num_2,32,num_4,0.366819969611,,,2017_May_23_1551,60.0036758713,FEMA4ImagesEEG,001,100537,
AFNE01.JPG,AFNE01.JPG,AFNE01.JPG,AFNE01.JPG,AFNE01.JPG,AFNE01.JPG,,,,,,,,,,,,,,,,,,,,,0,8,8,6,,,AMSA09.jpg,AMNE05.jpg,AMNE07.jpg,AMSA10.jpg,AMSA09.jpg,MS,2,num_8,16,num_8,0.716499919305,,,2017_May_23_1551,60.0036758713,FEMA4ImagesEEG,001,100537,
AFNE01.JPG,AFNE01.JPG,AFNE01.JPG,AFNE01.JPG,AFNE01.JPG,AFNE01.JPG,,,,,,,,,,,,,,,,,,,,,0,9,9,1,,,AMSA17.jpg,AMNE07.jpg,AMSA09.jpg,AMNE11.jpg,AMNE07.jpg,MN,1,num_6,32,num_2,0.600229136646,,,2017_May_23_1551,60.0036758713,FEMA4ImagesEEG,001,100537,
AFNE01.JPG,AFNE01.JPG,AFNE01.JPG,AFNE01.JPG,AFNE01.JPG,AFNE01.JPG,,,,,,,,,,,,,,,,,,,,,1,0,10,0,,,AMSA03.jpg,AMSA01.jpg,AMNE20.jpg,AMNE08.jpg,AMNE20.jpg,MN,1,num_2,32,num_8,0.700146032963,,,2017_May_23_1551,60.0036758713,FEMA4ImagesEEG,001,100537,
AFNE01.JPG,AFNE01.JPG,AFNE01.JPG,AFNE01.JPG,AFNE01.JPG,AFNE01.JPG,,,,,,,,,,,,,,,,,,,,,1,1,11,8,,,AMNE10.jpg,AMNE11.jpg,AMSA18.jpg,AMSA14.jpg,AMSA14.jpg,MS,2,num_4,32,num_8,0.900077971863,,,2017_May_23_1551,60.0036758713,FEMA4ImagesEEG,001,100537,
AFNE01.JPG,AFNE01.JPG,AFNE01.JPG,AFNE01.JPG,AFNE01.JPG,AFNE01.JPG,,,,,,,,,,,,,,,,,,,,,1,2,12,2,,,AMNE14.jpg,AMSA19.jpg,AMNE02.jpg,AMSA07.jpg,AMSA07.jpg,MS,2,num_4,32,num_6,0.733519982547,,,2017_May_23_1551,60.0036758713,FEMA4ImagesEEG,001,100537,
AFNE01.JPG,AFNE01.JPG,AFNE01.JPG,AFNE01.JPG,AFNE01.JPG,AFNE01.JPG,,,,,,,,,,,,,,,,,,,,,1,3,13,1,,,AMNE17.jpg,AMSA04.jpg,AMNE02.jpg,AMSA02.jpg,AMNE17.jpg,MN,1,num_8,16,num_8,1.08342412941,,,2017_May_23_1551,60.0036758713,FEMA4ImagesEEG,001,100537,
AFNE01.JPG,AFNE01.JPG,AFNE01.JPG,AFNE01.JPG,AFNE01.JPG,AFNE01.JPG,,,,,,,,,,,,,,,,,,,,,1,4,14,7,,,AMNE11.jpg,AMNE08.jpg,AMSA19.jpg,AMSA13.jpg,AMNE11.jpg,MN,1,num_8,32,num_2,1.26671415754,,,2017_May_23_1551,60.0036758713,FEMA4ImagesEEG,001,100537,
AFNE01.JPG,AFNE01.JPG,AFNE01.JPG,AFNE01.JPG,AFNE01.JPG,AFNE01.JPG,,,,,,,,,,,,,,,,,,,,,1,5,15,5,,,AMNE18.jpg,AMNE19.jpg,AMSA02.jpg,AMSA06.jpg,AMSA02.jpg,MS,2,num_2,16,num_2,0.73346802278,,,2017_May_23_1551,60.0036758713,FEMA4ImagesEEG,001,100537,
AFNE01.JPG,AFNE01.JPG,AFNE01.JPG,AFNE01.JPG,AFNE01.JPG,AFNE01.JPG,,,,,,,,,,,,,,,,,,,,,1,6,16,6,,,AMNE08.jpg,AMSA10.jpg,AMSA18.jpg,AMNE20.jpg,AMNE08.jpg,MN,1,num_8,16,num_8,1.15012038976,,,2017_May_23_1551,60.0036758713,FEMA4ImagesEEG,001,100537,
AFNE01.JPG,AFNE01.JPG,AFNE01.JPG,AFNE01.JPG,AFNE01.JPG,AFNE01.JPG,,,,,,,,,,,,,,,,,,,,,1,7,17,3,,,AMNE12.jpg,AMSA16.jpg,AMNE10.jpg,AMSA04.jpg,AMSA04.jpg,MS,2,num_4,16,num_4,0.600179421832,,,2017_May_23_1551,60.0036758713,FEMA4ImagesEEG,001,100537,
AFNE01.JPG,AFNE01.JPG,AFNE01.JPG,AFNE01.JPG,AFNE01.JPG,AFNE01.JPG,,,,,,,,,,,,,,,,,,,,,1,8,18,9,,,AMNE16.jpg,AMNE15.jpg,AMSA09.jpg,AMSA02.jpg,AMNE16.jpg,MN,1,num_8,32,num_2,1.20017955021,,,2017_May_23_1551,60.0036758713,FEMA4ImagesEEG,001,100537,
AFNE01.JPG,AFNE01.JPG,AFNE01.JPG,AFNE01.JPG,AFNE01.JPG,AFNE01.JPG,,,,,,,,,,,,,,,,,,,,,1,9,19,4,,,AMSA13.jpg,AMNE10.jpg,AMSA19.jpg,AMNE07.jpg,AMSA13.jpg,MS,2,num_8,32,num_2,1.08345684502,,,2017_May_23_1551,60.0036758713,FEMA4ImagesEEG,001,100537,
AFNE01.JPG,AFNE01.JPG,AFNE01.JPG,AFNE01.JPG,AFNE01.JPG,AFNE01.JPG,,,,,,,,,,,,,,,,,,,,,2,0,20,5,,,AMNE01.jpg,AMNE13.jpg,AMSA07.jpg,AMSA05.jpg,AMSA05.jpg,MS,2,num_4,32,num_2,0.916765748523,,,2017_May_23_1551,60.0036758713,FEMA4ImagesEEG,001,100537,
AFNE01.JPG,AFNE01.JPG,AFNE01.JPG,AFNE01.JPG,AFNE01.JPG,AFNE01.JPG,,,,,,,,,,,,,,,,,,,,,2,1,21,2,,,AMSA03.jpg,AMNE04.jpg,AMSA19.jpg,AMNE05.jpg,AMNE04.jpg,MN,1,num_6,16,num_6,0.85034211725,,,2017_May_23_1551,60.0036758713,FEMA4ImagesEEG,001,100537,
AFNE01.JPG,AFNE01.JPG,AFNE01.JPG,AFNE01.JPG,AFNE01.JPG,AFNE01.JPG,,,,,,,,,,,,,,,,,,,,,2,2,22,4,,,AMSA11.jpg,AMNE17.jpg,AMSA18.jpg,AMNE18.jpg,AMSA11.jpg,MS,2,num_8,16,num_8,1.45009463432,,,2017_May_23_1551,60.0036758713,FEMA4ImagesEEG,001,100537,
AFNE01.JPG,AFNE01.JPG,AFNE01.JPG,AFNE01.JPG,AFNE01.JPG,AFNE01.JPG,,,,,,,,,,,,,,,,,,,,,2,3,23,7,,,AMNE11.jpg,AMSA01.jpg,AMSA06.jpg,AMNE16.jpg,AMSA06.jpg,MS,2,num_2,32,num_8,1.2501421679,,,2017_May_23_1551,60.0036758713,FEMA4ImagesEEG,001,100537,
AFNE01.JPG,AFNE01.JPG,AFNE01.JPG,AFNE01.JPG,AFNE01.JPG,AFNE01.JPG,,,,,,,,,,,,,,,,,,,,,2,4,24,1,,,AMSA10.jpg,AMNE06.jpg,AMSA02.jpg,AMNE08.jpg,AMSA02.jpg,MS,2,num_2,16,num_2,1.16664458904,,,2017_May_23_1551,60.0036758713,FEMA4ImagesEEG,001,100537,
AFNE01.JPG,AFNE01.JPG,AFNE01.JPG,AFNE01.JPG,AFNE01.JPG,AFNE01.JPG,,,,,,,,,,,,,,,,,,,,,2,5,25,3,,,AMSA01.jpg,AMSA12.jpg,AMNE18.jpg,AMNE07.jpg,AMSA01.jpg,MS,2,num_8,32,num_6,0.883488020743,,,2017_May_23_1551,60.0036758713,FEMA4ImagesEEG,001,100537,
AFNE01.JPG,AFNE01.JPG,AFNE01.JPG,AFNE01.JPG,AFNE01.JPG,AFNE01.JPG,,,,,,,,,,,,,,,,,,,,,2,6,26,9,,,AMSA04.jpg,AMNE07.jpg,AMNE13.jpg,AMSA18.jpg,AMSA04.jpg,MS,2,num_8,16,num_8,1.58337361284,,,2017_May_23_1551,60.0036758713,FEMA4ImagesEEG,001,100537,
AFNE01.JPG,AFNE01.JPG,AFNE01.JPG,AFNE01.JPG,AFNE01.JPG,AFNE01.JPG,,,,,,,,,,,,,,,,,,,,,2,7,27,6,,,AMNE18.jpg,AMSA20.jpg,AMSA01.jpg,AMNE10.jpg,AMNE18.jpg,MN,1,num_8,32,num_4,1.23343482614,,,2017_May_23_1551,60.0036758713,FEMA4ImagesEEG,001,100537,
AFNE01.JPG,AFNE01.JPG,AFNE01.JPG,AFNE01.JPG,AFNE01.JPG,AFNE01.JPG,,,,,,,,,,,,,,,,,,,,,2,8,28,8,,,AMSA09.jpg,AMNE15.jpg,AMSA11.jpg,AMNE20.jpg,AMNE20.jpg,MN,1,num_4,32,num_8,1.01675673574,,,2017_May_23_1551,60.0036758713,FEMA4ImagesEEG,001,100537,
AFNE01.JPG,AFNE01.JPG,AFNE01.JPG,AFNE01.JPG,AFNE01.JPG,AFNE01.JPG,,,,,,,,,,,,,,,,,,,,,2,9,29,0,,,AMNE13.jpg,AMNE06.jpg,AMSA17.jpg,AMSA14.jpg,AMSA17.jpg,MS,2,num_2,32,num_6,1.98337829567,,,2017_May_23_1551,60.0036758713,FEMA4ImagesEEG,001,100537,
AFNE01.JPG,AFNE01.JPG,AFNE01.JPG,AFNE01.JPG,AFNE01.JPG,AFNE01.JPG,,,,,,,,,,,,,,,,,,,,,3,0,30,9,,,AMNE15.jpg,AMNE06.jpg,AMSA08.jpg,AMSA01.jpg,AMSA01.jpg,MS,2,num_4,16,num_4,0.916789483279,,,2017_May_23_1551,60.0036758713,FEMA4ImagesEEG,001,100537,
AFNE01.JPG,AFNE01.JPG,AFNE01.JPG,AFNE01.JPG,AFNE01.JPG,AFNE01.JPG,,,,,,,,,,,,,,,,,,,,,3,1,31,1,,,AMNE10.jpg,AMSA18.jpg,AMNE02.jpg,AMSA08.jpg,AMNE02.jpg,MN,1,num_2,16,num_2,1.03342879622,,,2017_May_23_1551,60.0036758713,FEMA4ImagesEEG,001,100537,
AFNE01.JPG,AFNE01.JPG,AFNE01.JPG,AFNE01.JPG,AFNE01.JPG,AFNE01.JPG,,,,,,,,,,,,,,,,,,,,,3,2,32,4,,,AMSA09.jpg,AMNE07.jpg,AMNE16.jpg,AMSA16.jpg,AMNE16.jpg,MN,1,num_2,16,num_2,0.733445570921,,,2017_May_23_1551,60.0036758713,FEMA4ImagesEEG,001,100537,
AFNE01.JPG,AFNE01.JPG,AFNE01.JPG,AFNE01.JPG,AFNE01.JPG,AFNE01.JPG,,,,,,,,,,,,,,,,,,,,,3,3,33,2,,,AMSA16.jpg,AMNE14.jpg,AMNE03.jpg,AMSA09.jpg,AMNE03.jpg,MN,1,num_2,16,num_2,0.683718055487,,,2017_May_23_1551,60.0036758713,FEMA4ImagesEEG,001,100537,
AFNE01.JPG,AFNE01.JPG,AFNE01.JPG,AFNE01.JPG,AFNE01.JPG,AFNE01.JPG,,,,,,,,,,,,,,,,,,,,,3,4,34,5,,,AMSA01.jpg,AMNE02.jpg,AMSA09.jpg,AMNE07.jpg,AMNE02.jpg,MN,1,num_6,16,num_6,0.650154869305,,,2017_May_23_1551,60.0036758713,FEMA4ImagesEEG,001,100537,
AFNE01.JPG,AFNE01.JPG,AFNE01.JPG,AFNE01.JPG,AFNE01.JPG,AFNE01.JPG,,,,,,,,,,,,,,,,,,,,,3,5,35,6,,,AMSA01.jpg,AMSA10.jpg,AMNE03.jpg,AMNE17.jpg,AMSA10.jpg,MS,2,num_6,32,num_4,1.56669834512,,,2017_May_23_1551,60.0036758713,FEMA4ImagesEEG,001,100537,
AFNE01.JPG,AFNE01.JPG,AFNE01.JPG,AFNE01.JPG,AFNE01.JPG,AFNE01.JPG,,,,,,,,,,,,,,,,,,,,,3,6,36,0,,,AMNE06.jpg,AMNE16.jpg,AMSA11.jpg,AMSA19.jpg,AMNE06.jpg,MN,1,num_8,32,num_4,1.33337545721,,,2017_May_23_1551,60.0036758713,FEMA4ImagesEEG,001,100537,
AFNE01.JPG,AFNE01.JPG,AFNE01.JPG,AFNE01.JPG,AFNE01.JPG,AFNE01.JPG,,,,,,,,,,,,,,,,,,,,,3,7,37,8,,,AMSA12.jpg,AMSA18.jpg,AMNE04.jpg,AMNE19.jpg,AMNE19.jpg,MN,1,num_4,16,num_4,0.816774119856,,,2017_May_23_1551,60.0036758713,FEMA4ImagesEEG,001,100537,
AFNE01.JPG,AFNE01.JPG,AFNE01.JPG,AFNE01.JPG,AFNE01.JPG,AFNE01.JPG,,,,,,,,,,,,,,,,,,,,,3,8,38,7,,,AMNE02.jpg,AMSA03.jpg,AMNE13.jpg,AMSA01.jpg,AMSA03.jpg,MS,2,num_6,32,num_4,1.50009991042,,,2017_May_23_1551,60.0036758713,FEMA4ImagesEEG,001,100537,
