IPosition2,IPosition3,IPosition1,IPosition6,IPosition4,IPosition5,TrialsM1.thisRepN,TrialsM1.thisTrialN,TrialsM1.thisN,TrialsM1.thisIndex,TrialsF1.thisRepN,TrialsF1.thisTrialN,TrialsF1.thisN,TrialsF1.thisIndex,TrialsM2.thisRepN,TrialsM2.thisTrialN,TrialsM2.thisN,TrialsM2.thisIndex,TrialsF2.thisRepN,TrialsF2.thisTrialN,TrialsF2.thisN,TrialsF2.thisIndex,TrialsM3.thisRepN,TrialsM3.thisTrialN,TrialsM3.thisN,TrialsM3.thisIndex,TrialsF3.thisRepN,TrialsF3.thisTrialN,TrialsF3.thisN,TrialsF3.thisIndex,InstrKey_resp.keys,InstrKey_resp.rt,Image0 _Position,Image1 _Position,Image2 _Position,Image3 _Position,Center_image,condition,code,correct_answer,accuracy,Key_Resp.keys,Key_Resp.rt,BreakKey_resp.keys,BreakKey_resp.rt,date,frameRate,expName,session,participant,
,,,,,,,,,,,,,,,,,,,,,,,,,,,,,,space,12.9495636493,,,,,,,,,,,,,,2017_Jun_06_1717,60.0103745384,MAFE4ImagesEEG,001,100588,
AFSA21.JPG,AFNE23.JPG,AFNE21.JPG,AFSA25.JPG,AFNE25.JPG,AFSA23.JPG,0,0,0,4,,,,,,,,,,,,,,,,,,,,,,,AMSA17.jpg,AMNE03.jpg,AMNE11.jpg,AMSA19.jpg,AMNE11.jpg,MN,1,num_2,32,num_8,2.58315839665,,,2017_Jun_06_1717,60.0103745384,MAFE4ImagesEEG,001,100588,
AMSA21.JPG,AMNE23.JPG,AMNE21.JPG,AMSA25.JPG,AMNE25.JPG,AMSA23.JPG,0,1,1,5,,,,,,,,,,,,,,,,,,,,,,,AMNE14.jpg,AMSA01.jpg,AMNE19.jpg,AMSA10.jpg,AMNE19.jpg,MN,1,num_2,32,num_8,2.10001087305,,,2017_Jun_06_1717,60.0103745384,MAFE4ImagesEEG,001,100588,
AFNE22.JPG,AFSA24.JPG,AFSA22.JPG,AFNE25.JPG,AFNE24.JPG,AFSA25.JPG,0,2,2,6,,,,,,,,,,,,,,,,,,,,,,,AMSA19.jpg,AMNE17.jpg,AMSA04.jpg,AMNE18.jpg,AMNE17.jpg,MN,1,num_6,16,num_6,2.10001375969,,,2017_Jun_06_1717,60.0103745384,MAFE4ImagesEEG,001,100588,
AMNE23.JPG,AMNE24.JPG,AMNE22.JPG,AMSA24.JPG,AMSA22.JPG,AMSA23.JPG,0,3,3,9,,,,,,,,,,,,,,,,,,,,,,,AMSA11.jpg,AMSA05.jpg,AMNE10.jpg,AMNE20.jpg,AMSA11.jpg,MS,2,num_8,32,num_2,1.11675157188,,,2017_Jun_06_1717,60.0103745384,MAFE4ImagesEEG,001,100588,
AMSA25.JPG,AMNE24.JPG,AMSA24.JPG,AMNE26.JPG,AMSA21.JPG,AMNE25.JPG,0,4,4,3,,,,,,,,,,,,,,,,,,,,,,,AMNE08.jpg,AMSA13.jpg,AMSA07.jpg,AMNE01.jpg,AMSA07.jpg,MS,2,num_2,16,num_2,0.983530005673,,,2017_Jun_06_1717,60.0103745384,MAFE4ImagesEEG,001,100588,
AFSA21.JPG,AFNE22.JPG,AFNE21.JPG,AFSA23.JPG,AFSA22.JPG,AFNE23.JPG,0,5,5,0,,,,,,,,,,,,,,,,,,,,,,,AMNE14.jpg,AMSA16.jpg,AMNE03.jpg,AMSA02.jpg,AMNE14.jpg,MN,1,num_8,32,num_6,1.51671840716,,,2017_Jun_06_1717,60.0103745384,MAFE4ImagesEEG,001,100588,
AFSA25.JPG,AFNE24.JPG,AFSA24.JPG,AFNE21.JPG,AFSA21.JPG,AFNE25.JPG,0,6,6,2,,,,,,,,,,,,,,,,,,,,,,,AMNE06.jpg,AMSA17.jpg,AMNE18.jpg,AMSA03.jpg,AMSA17.jpg,MS,2,num_6,32,num_2,1.09983286262,,,2017_Jun_06_1717,60.0103745384,MAFE4ImagesEEG,001,100588,
AMNE22.JPG,AMSA24.JPG,AMSA22.JPG,AMNE25.JPG,AMNE24.JPG,AMSA25.JPG,0,7,7,7,,,,,,,,,,,,,,,,,,,,,,,AMSA10.jpg,AMNE10.jpg,AMSA17.jpg,AMNE08.jpg,AMSA10.jpg,MS,2,num_8,32,num_2,1.15010563564,,,2017_Jun_06_1717,60.0103745384,MAFE4ImagesEEG,001,100588,
AMSA21.JPG,AMNE22.JPG,AMNE21.JPG,AMSA23.JPG,AMSA22.JPG,AMNE23.JPG,0,8,8,1,,,,,,,,,,,,,,,,,,,,,,,AMNE11.jpg,AMSA17.jpg,AMNE18.jpg,AMSA18.jpg,AMSA17.jpg,MS,2,num_6,32,num_2,1.26678119227,,,2017_Jun_06_1717,60.0103745384,MAFE4ImagesEEG,001,100588,
AFNE23.JPG,AFNE24.JPG,AFNE22.JPG,AFSA24.JPG,AFSA22.JPG,AFSA23.JPG,0,9,9,8,,,,,,,,,,,,,,,,,,,,,,,AMSA09.jpg,AMNE03.jpg,AMNE14.jpg,AMSA04.jpg,AMSA09.jpg,MS,2,num_8,32,num_2,1.43339883909,,,2017_Jun_06_1717,60.0103745384,MAFE4ImagesEEG,001,100588,
AFSA21.JPG,AFNE22.JPG,AFNE21.JPG,AFSA23.JPG,AFSA22.JPG,AFNE23.JPG,,,,,0,0,0,0,,,,,,,,,,,,,,,,,,,AFSA15.jpg,AFNE12.jpg,AFNE19.jpg,AFSA19.jpg,AFNE12.jpg,FN,3,num_6,16,num_6,1.05010727141,,,2017_Jun_06_1717,60.0103745384,MAFE4ImagesEEG,001,100588,
AMNE22.JPG,AMSA24.JPG,AMSA22.JPG,AMNE25.JPG,AMNE24.JPG,AMSA25.JPG,,,,,0,1,1,7,,,,,,,,,,,,,,,,,,,AFSA07.jpg,AFNE06.jpg,AFSA17.jpg,AFNE18.jpg,AFNE18.jpg,FN,3,num_4,32,num_6,1.28343400825,,,2017_Jun_06_1717,60.0103745384,MAFE4ImagesEEG,001,100588,
AMSA25.JPG,AMNE24.JPG,AMSA24.JPG,AMNE26.JPG,AMSA21.JPG,AMNE25.JPG,,,,,0,2,2,3,,,,,,,,,,,,,,,,,,,AFSA09.jpg,AFNE05.jpg,AFSA13.jpg,AFNE20.jpg,AFNE20.jpg,FN,3,num_4,16,num_4,1.01676026406,,,2017_Jun_06_1717,60.0103745384,MAFE4ImagesEEG,001,100588,
AMSA21.JPG,AMNE22.JPG,AMNE21.JPG,AMSA23.JPG,AMSA22.JPG,AMNE23.JPG,,,,,0,3,3,1,,,,,,,,,,,,,,,,,,,AFSA14.jpg,AFNE03.jpg,AFSA16.jpg,AFNE08.jpg,AFSA16.jpg,FS,4,num_2,16,num_2,0.866639553569,,,2017_Jun_06_1717,60.0103745384,MAFE4ImagesEEG,001,100588,
AFNE23.JPG,AFNE24.JPG,AFNE22.JPG,AFSA24.JPG,AFSA22.JPG,AFSA23.JPG,,,,,0,4,4,8,,,,,,,,,,,,,,,,,,,AFNE14.jpg,AFSA20.jpg,AFNE20.jpg,AFSA13.jpg,AFNE20.jpg,FN,3,num_2,16,num_2,0.700125505449,,,2017_Jun_06_1717,60.0103745384,MAFE4ImagesEEG,001,100588,
AFSA21.JPG,AFNE23.JPG,AFNE21.JPG,AFSA25.JPG,AFNE25.JPG,AFSA23.JPG,,,,,0,5,5,4,,,,,,,,,,,,,,,,,,,AFSA07.jpg,AFNE17.jpg,AFNE18.jpg,AFSA04.jpg,AFNE18.jpg,FN,3,num_2,32,num_6,1.38340639253,,,2017_Jun_06_1717,60.0103745384,MAFE4ImagesEEG,001,100588,
AFSA25.JPG,AFNE24.JPG,AFSA24.JPG,AFNE21.JPG,AFSA21.JPG,AFNE25.JPG,,,,,0,6,6,2,,,,,,,,,,,,,,,,,,,AFSA12.jpg,AFNE06.jpg,AFNE18.jpg,AFSA15.jpg,AFSA15.jpg,FS,4,num_4,16,num_4,1.60006844578,,,2017_Jun_06_1717,60.0103745384,MAFE4ImagesEEG,001,100588,
AMSA21.JPG,AMNE23.JPG,AMNE21.JPG,AMSA25.JPG,AMNE25.JPG,AMSA23.JPG,,,,,0,7,7,5,,,,,,,,,,,,,,,,,,,AFSA20.jpg,AFSA04.jpg,AFNE09.jpg,AFNE07.jpg,AFSA20.jpg,FS,4,num_8,16,num_8,1.18347958545,,,2017_Jun_06_1717,60.0103745384,MAFE4ImagesEEG,001,100588,
AMNE23.JPG,AMNE24.JPG,AMNE22.JPG,AMSA24.JPG,AMSA22.JPG,AMSA23.JPG,,,,,0,8,8,9,,,,,,,,,,,,,,,,,,,AFSA20.jpg,AFNE04.jpg,AFSA02.jpg,AFNE15.jpg,AFSA02.jpg,FS,4,num_2,32,num_6,0.700098884059,,,2017_Jun_06_1717,60.0103745384,MAFE4ImagesEEG,001,100588,
AFNE22.JPG,AFSA24.JPG,AFSA22.JPG,AFNE25.JPG,AFNE24.JPG,AFSA25.JPG,,,,,0,9,9,6,,,,,,,,,,,,,,,,,,,AFSA15.jpg,AFNE11.jpg,AFSA04.jpg,AFNE01.jpg,AFSA15.jpg,FS,4,num_8,16,num_8,1.03344868217,,,2017_Jun_06_1717,60.0103745384,MAFE4ImagesEEG,001,100588,
AMNE22.JPG,AMSA24.JPG,AMSA22.JPG,AMNE25.JPG,AMNE24.JPG,AMSA25.JPG,,,,,,,,,0,0,0,7,,,,,,,,,,,,,,,AMSA09.jpg,AMNE15.jpg,AMSA19.jpg,AMNE12.jpg,AMSA09.jpg,MS,2,num_8,32,num_2,1.16674626363,,,2017_Jun_06_1717,60.0103745384,MAFE4ImagesEEG,001,100588,
AMNE23.JPG,AMNE24.JPG,AMNE22.JPG,AMSA24.JPG,AMSA22.JPG,AMSA23.JPG,,,,,,,,,0,1,1,9,,,,,,,,,,,,,,,AMSA02.jpg,AMSA17.jpg,AMNE14.jpg,AMNE11.jpg,AMSA17.jpg,MS,2,num_6,32,num_8,0.633355154423,,,2017_Jun_06_1717,60.0103745384,MAFE4ImagesEEG,001,100588,
AMSA21.JPG,AMNE23.JPG,AMNE21.JPG,AMSA25.JPG,AMNE25.JPG,AMSA23.JPG,,,,,,,,,0,2,2,5,,,,,,,,,,,,,,,AMNE05.jpg,AMSA17.jpg,AMSA18.jpg,AMNE01.jpg,AMNE01.jpg,MN,1,num_4,16,num_4,1.30009323917,,,2017_Jun_06_1717,60.0103745384,MAFE4ImagesEEG,001,100588,
AMSA25.JPG,AMNE24.JPG,AMSA24.JPG,AMNE26.JPG,AMSA21.JPG,AMNE25.JPG,,,,,,,,,0,3,3,3,,,,,,,,,,,,,,,AMSA05.jpg,AMNE10.jpg,AMSA15.jpg,AMNE15.jpg,AMNE10.jpg,MN,1,num_6,16,num_6,1.96665972797,,,2017_Jun_06_1717,60.0103745384,MAFE4ImagesEEG,001,100588,
AFNE22.JPG,AFSA24.JPG,AFSA22.JPG,AFNE25.JPG,AFNE24.JPG,AFSA25.JPG,,,,,,,,,0,4,4,6,,,,,,,,,,,,,,,AMNE03.jpg,AMSA17.jpg,AMSA15.jpg,AMNE10.jpg,AMSA17.jpg,MS,2,num_6,16,num_6,0.650142039638,,,2017_Jun_06_1717,60.0103745384,MAFE4ImagesEEG,001,100588,
AMSA21.JPG,AMNE22.JPG,AMNE21.JPG,AMSA23.JPG,AMSA22.JPG,AMNE23.JPG,,,,,,,,,0,5,5,1,,,,,,,,,,,,,,,AMNE02.jpg,AMNE12.jpg,AMSA06.jpg,AMSA08.jpg,AMNE12.jpg,MN,1,num_6,32,num_2,2.11666176468,,,2017_Jun_06_1717,60.0103745384,MAFE4ImagesEEG,001,100588,
AFSA21.JPG,AFNE23.JPG,AFNE21.JPG,AFSA25.JPG,AFNE25.JPG,AFSA23.JPG,,,,,,,,,0,6,6,4,,,,,,,,,,,,,,,AMSA15.jpg,AMSA08.jpg,AMNE10.jpg,AMNE04.jpg,AMSA15.jpg,MS,2,num_8,32,num_2,1.20009776158,,,2017_Jun_06_1717,60.0103745384,MAFE4ImagesEEG,001,100588,
AFSA25.JPG,AFNE24.JPG,AFSA24.JPG,AFNE21.JPG,AFSA21.JPG,AFNE25.JPG,,,,,,,,,0,7,7,2,,,,,,,,,,,,,,,AMNE18.jpg,AMNE20.jpg,AMSA06.jpg,AMSA09.jpg,AMNE18.jpg,MN,1,num_8,16,num_8,1.46645429404,,,2017_Jun_06_1717,60.0103745384,MAFE4ImagesEEG,001,100588,
AFSA21.JPG,AFNE22.JPG,AFNE21.JPG,AFSA23.JPG,AFSA22.JPG,AFNE23.JPG,,,,,,,,,0,8,8,0,,,,,,,,,,,,,,,AMSA09.jpg,AMNE06.jpg,AMNE14.jpg,AMSA13.jpg,AMNE14.jpg,MN,1,num_2,32,num_8,0.916741692927,,,2017_Jun_06_1717,60.0103745384,MAFE4ImagesEEG,001,100588,
AFNE23.JPG,AFNE24.JPG,AFNE22.JPG,AFSA24.JPG,AFSA22.JPG,AFSA23.JPG,,,,,,,,,0,9,9,8,,,,,,,,,,,,,,,AMNE10.jpg,AMSA03.jpg,AMSA06.jpg,AMNE12.jpg,AMSA03.jpg,MS,2,num_6,16,num_6,1.05011464865,,,2017_Jun_06_1717,60.0103745384,MAFE4ImagesEEG,001,100588,
AFNE23.JPG,AFNE24.JPG,AFNE22.JPG,AFSA24.JPG,AFSA22.JPG,AFSA23.JPG,,,,,,,,,,,,,0,0,0,8,,,,,,,,,,,AFNE13.jpg,AFSA14.jpg,AFSA17.jpg,AFNE15.jpg,AFNE13.jpg,FN,3,num_8,16,num_8,0.916765107075,,,2017_Jun_06_1717,60.0103745384,MAFE4ImagesEEG,001,100588,
AMNE23.JPG,AMNE24.JPG,AMNE22.JPG,AMSA24.JPG,AMSA22.JPG,AMSA23.JPG,,,,,,,,,,,,,0,1,1,9,,,,,,,,,,,AFNE09.jpg,AFNE17.jpg,AFSA10.jpg,AFSA06.jpg,AFSA06.jpg,FS,4,num_4,16,num_4,0.566649271874,,,2017_Jun_06_1717,60.0103745384,MAFE4ImagesEEG,001,100588,
AMSA21.JPG,AMNE23.JPG,AMNE21.JPG,AMSA25.JPG,AMNE25.JPG,AMSA23.JPG,,,,,,,,,,,,,0,2,2,5,,,,,,,,,,,AFNE18.jpg,AFSA09.jpg,AFNE04.jpg,AFSA04.jpg,AFSA09.jpg,FS,4,num_6,32,num_2,0.983482536161,,,2017_Jun_06_1717,60.0103745384,MAFE4ImagesEEG,001,100588,
AMNE22.JPG,AMSA24.JPG,AMSA22.JPG,AMNE25.JPG,AMNE24.JPG,AMSA25.JPG,,,,,,,,,,,,,0,3,3,7,,,,,,,,,,,AFSA02.jpg,AFNE06.jpg,AFSA08.jpg,AFNE18.jpg,AFSA08.jpg,FS,4,num_2,16,num_2,1.5167257844,,,2017_Jun_06_1717,60.0103745384,MAFE4ImagesEEG,001,100588,
AMSA25.JPG,AMNE24.JPG,AMSA24.JPG,AMNE26.JPG,AMSA21.JPG,AMNE25.JPG,,,,,,,,,,,,,0,4,4,3,,,,,,,,,,,AFNE11.jpg,AFSA03.jpg,AFNE19.jpg,AFSA04.jpg,AFNE11.jpg,FN,3,num_8,32,num_4,1.41673960839,,,2017_Jun_06_1717,60.0103745384,MAFE4ImagesEEG,001,100588,
AFSA25.JPG,AFNE24.JPG,AFSA24.JPG,AFNE21.JPG,AFSA21.JPG,AFNE25.JPG,,,,,,,,,,,,,0,5,5,2,,,,,,,,,,,AFSA03.jpg,AFNE08.jpg,AFSA05.jpg,AFNE07.jpg,AFSA03.jpg,FS,4,num_8,32,num_6,0.616759750759,,,2017_Jun_06_1717,60.0103745384,MAFE4ImagesEEG,001,100588,
AFNE22.JPG,AFSA24.JPG,AFSA22.JPG,AFNE25.JPG,AFNE24.JPG,AFSA25.JPG,,,,,,,,,,,,,0,6,6,6,,,,,,,,,,,AFNE03.jpg,AFSA17.jpg,AFSA14.jpg,AFNE18.jpg,AFSA14.jpg,FS,4,num_2,16,num_2,1.75009036856,,,2017_Jun_06_1717,60.0103745384,MAFE4ImagesEEG,001,100588,
AFSA21.JPG,AFNE22.JPG,AFNE21.JPG,AFSA23.JPG,AFSA22.JPG,AFNE23.JPG,,,,,,,,,,,,,0,7,7,0,,,,,,,,,,,AFNE18.jpg,AFSA15.jpg,AFNE12.jpg,AFSA07.jpg,AFSA07.jpg,FS,4,num_4,32,num_8,1.20008493192,,,2017_Jun_06_1717,60.0103745384,MAFE4ImagesEEG,001,100588,
AFSA21.JPG,AFNE23.JPG,AFNE21.JPG,AFSA25.JPG,AFNE25.JPG,AFSA23.JPG,,,,,,,,,,,,,0,8,8,4,,,,,,,,,,,AFNE05.jpg,AFNE03.jpg,AFSA19.jpg,AFSA02.jpg,AFSA02.jpg,FS,4,num_4,32,num_2,0.616493857233,,,2017_Jun_06_1717,60.0103745384,MAFE4ImagesEEG,001,100588,
AMSA21.JPG,AMNE22.JPG,AMNE21.JPG,AMSA23.JPG,AMSA22.JPG,AMNE23.JPG,,,,,,,,,,,,,0,9,9,1,,,,,,,,,,,AFSA13.jpg,AFNE02.jpg,AFSA05.jpg,AFNE03.jpg,AFNE03.jpg,FN,3,num_4,16,num_4,1.01681799721,,,2017_Jun_06_1717,60.0103745384,MAFE4ImagesEEG,001,100588,
AFSA21.JPG,AFNE22.JPG,AFNE21.JPG,AFSA23.JPG,AFSA22.JPG,AFNE23.JPG,,,,,,,,,,,,,,,,,0,0,0,0,,,,,,,AMSA08.jpg,AMNE05.jpg,AMNE06.jpg,AMSA09.jpg,AMNE06.jpg,MN,1,num_2,32,num_8,0.733493681997,,,2017_Jun_06_1717,60.0103745384,MAFE4ImagesEEG,001,100588,
AFSA25.JPG,AFNE24.JPG,AFSA24.JPG,AFNE21.JPG,AFSA21.JPG,AFNE25.JPG,,,,,,,,,,,,,,,,,0,1,1,2,,,,,,,AMNE16.jpg,AMNE07.jpg,AMSA15.jpg,AMSA05.jpg,AMNE16.jpg,MN,1,num_8,32,num_6,1.05018264544,,,2017_Jun_06_1717,60.0103745384,MAFE4ImagesEEG,001,100588,
AMSA21.JPG,AMNE23.JPG,AMNE21.JPG,AMSA25.JPG,AMNE25.JPG,AMSA23.JPG,,,,,,,,,,,,,,,,,0,2,2,5,,,,,,,AMNE01.jpg,AMNE14.jpg,AMSA17.jpg,AMSA15.jpg,AMNE14.jpg,MN,1,num_6,16,num_6,1.35008376115,,,2017_Jun_06_1717,60.0103745384,MAFE4ImagesEEG,001,100588,
AMNE23.JPG,AMNE24.JPG,AMNE22.JPG,AMSA24.JPG,AMSA22.JPG,AMSA23.JPG,,,,,,,,,,,,,,,,,0,3,3,9,,,,,,,AMNE04.jpg,AMSA06.jpg,AMNE08.jpg,AMSA11.jpg,AMNE08.jpg,MN,1,num_2,16,num_2,1.3001156908,,,2017_Jun_06_1717,60.0103745384,MAFE4ImagesEEG,001,100588,
AFSA21.JPG,AFNE23.JPG,AFNE21.JPG,AFSA25.JPG,AFNE25.JPG,AFSA23.JPG,,,,,,,,,,,,,,,,,0,4,4,4,,,,,,,AMSA19.jpg,AMNE15.jpg,AMNE08.jpg,AMSA03.jpg,AMSA03.jpg,MS,2,num_4,16,num_4,0.78351467452,,,2017_Jun_06_1717,60.0103745384,MAFE4ImagesEEG,001,100588,
AFNE22.JPG,AFSA24.JPG,AFSA22.JPG,AFNE25.JPG,AFNE24.JPG,AFSA25.JPG,,,,,,,,,,,,,,,,,0,5,5,6,,,,,,,AMNE05.jpg,AMSA05.jpg,AMSA12.jpg,AMNE13.jpg,AMSA12.jpg,MS,2,num_2,32,num_6,0.783510504756,,,2017_Jun_06_1717,60.0103745384,MAFE4ImagesEEG,001,100588,
AFNE23.JPG,AFNE24.JPG,AFNE22.JPG,AFSA24.JPG,AFSA22.JPG,AFSA23.JPG,,,,,,,,,,,,,,,,,0,6,6,8,,,,,,,AMNE20.jpg,AMSA19.jpg,AMSA14.jpg,AMNE04.jpg,AMSA14.jpg,MS,2,num_2,16,num_2,0.616754298098,,,2017_Jun_06_1717,60.0103745384,MAFE4ImagesEEG,001,100588,
AMSA25.JPG,AMNE24.JPG,AMSA24.JPG,AMNE26.JPG,AMSA21.JPG,AMNE25.JPG,,,,,,,,,,,,,,,,,0,7,7,3,,,,,,,AMNE10.jpg,AMNE14.jpg,AMSA02.jpg,AMSA14.jpg,AMNE10.jpg,MN,1,num_8,32,num_6,1.35014341865,,,2017_Jun_06_1717,60.0103745384,MAFE4ImagesEEG,001,100588,
AMSA21.JPG,AMNE22.JPG,AMNE21.JPG,AMSA23.JPG,AMSA22.JPG,AMNE23.JPG,,,,,,,,,,,,,,,,,0,8,8,1,,,,,,,AMSA17.jpg,AMSA08.jpg,AMNE05.jpg,AMNE15.jpg,AMNE05.jpg,MN,1,num_2,32,num_4,1.01673203893,,,2017_Jun_06_1717,60.0103745384,MAFE4ImagesEEG,001,100588,
AMNE22.JPG,AMSA24.JPG,AMSA22.JPG,AMNE25.JPG,AMNE24.JPG,AMSA25.JPG,,,,,,,,,,,,,,,,,0,9,9,7,,,,,,,AMNE15.jpg,AMNE19.jpg,AMSA04.jpg,AMSA20.jpg,AMNE15.jpg,MN,1,num_8,16,num_8,0.816518169362,,,2017_Jun_06_1717,60.0103745384,MAFE4ImagesEEG,001,100588,
AFSA21.JPG,AFNE22.JPG,AFNE21.JPG,AFSA23.JPG,AFSA22.JPG,AFNE23.JPG,,,,,,,,,,,,,,,,,,,,,0,0,0,0,,,AFSA07.jpg,AFNE13.jpg,AFSA20.jpg,AFNE15.jpg,AFSA07.jpg,FS,4,num_8,16,num_8,0.966828757897,,,2017_Jun_06_1717,60.0103745384,MAFE4ImagesEEG,001,100588,
AMSA21.JPG,AMNE23.JPG,AMNE21.JPG,AMSA25.JPG,AMNE25.JPG,AMSA23.JPG,,,,,,,,,,,,,,,,,,,,,0,1,1,5,,,AFSA19.jpg,AFSA11.jpg,AFNE16.jpg,AFNE04.jpg,AFNE04.jpg,FN,3,num_4,16,num_4,0.983413577313,,,2017_Jun_06_1717,60.0103745384,MAFE4ImagesEEG,001,100588,
AFNE23.JPG,AFNE24.JPG,AFNE22.JPG,AFSA24.JPG,AFSA22.JPG,AFSA23.JPG,,,,,,,,,,,,,,,,,,,,,0,2,2,8,,,AFSA10.jpg,AFSA01.jpg,AFNE05.jpg,AFNE01.jpg,AFNE01.jpg,FN,3,num_4,16,num_4,0.633491468849,,,2017_Jun_06_1717,60.0103745384,MAFE4ImagesEEG,001,100588,
AMNE22.JPG,AMSA24.JPG,AMSA22.JPG,AMNE25.JPG,AMNE24.JPG,AMSA25.JPG,,,,,,,,,,,,,,,,,,,,,0,3,3,7,,,AFSA17.jpg,AFSA02.jpg,AFNE03.jpg,AFNE01.jpg,AFNE03.jpg,FN,3,num_2,16,num_2,1.29994730256,,,2017_Jun_06_1717,60.0103745384,MAFE4ImagesEEG,001,100588,
AFSA25.JPG,AFNE24.JPG,AFSA24.JPG,AFNE21.JPG,AFSA21.JPG,AFNE25.JPG,,,,,,,,,,,,,,,,,,,,,0,4,4,2,,,AFNE03.jpg,AFSA20.jpg,AFNE09.jpg,AFSA15.jpg,AFSA15.jpg,FS,4,num_4,32,num_2,1.20006183861,,,2017_Jun_06_1717,60.0103745384,MAFE4ImagesEEG,001,100588,
AFSA21.JPG,AFNE23.JPG,AFNE21.JPG,AFSA25.JPG,AFNE25.JPG,AFSA23.JPG,,,,,,,,,,,,,,,,,,,,,0,5,5,4,,,AFSA12.jpg,AFNE04.jpg,AFSA10.jpg,AFNE13.jpg,AFSA12.jpg,FS,4,num_8,16,num_8,0.916771842632,,,2017_Jun_06_1717,60.0103745384,MAFE4ImagesEEG,001,100588,
AMSA25.JPG,AMNE24.JPG,AMSA24.JPG,AMNE26.JPG,AMSA21.JPG,AMNE25.JPG,,,,,,,,,,,,,,,,,,,,,0,6,6,3,,,AFNE01.jpg,AFNE16.jpg,AFSA09.jpg,AFSA03.jpg,AFNE01.jpg,FN,3,num_8,32,num_2,0.916733674472,,,2017_Jun_06_1717,60.0103745384,MAFE4ImagesEEG,001,100588,
AMNE23.JPG,AMNE24.JPG,AMNE22.JPG,AMSA24.JPG,AMSA22.JPG,AMSA23.JPG,,,,,,,,,,,,,,,,,,,,,0,7,7,9,,,AFNE01.jpg,AFSA16.jpg,AFSA11.jpg,AFNE02.jpg,AFSA16.jpg,FS,4,num_6,32,num_4,1.05017623049,,,2017_Jun_06_1717,60.0103745384,MAFE4ImagesEEG,001,100588,
AMSA21.JPG,AMNE22.JPG,AMNE21.JPG,AMSA23.JPG,AMSA22.JPG,AMNE23.JPG,,,,,,,,,,,,,,,,,,,,,0,8,8,1,,,AFNE12.jpg,AFNE09.jpg,AFSA11.jpg,AFSA08.jpg,AFSA08.jpg,FS,4,num_4,16,num_4,0.416803114815,,,2017_Jun_06_1717,60.0103745384,MAFE4ImagesEEG,001,100588,
AFNE22.JPG,AFSA24.JPG,AFSA22.JPG,AFNE25.JPG,AFNE24.JPG,AFSA25.JPG,,,,,,,,,,,,,,,,,,,,,0,9,9,6,,,AFNE04.jpg,AFSA02.jpg,AFSA05.jpg,AFNE17.jpg,AFSA02.jpg,FS,4,num_6,32,num_8,1.00007505319,,,2017_Jun_06_1717,60.0103745384,MAFE4ImagesEEG,001,100588,
,,,,,,,,,,,,,,,,,,,,,,,,,,,,,,,,,,,,,,,,,,,space,7.71592130465,2017_Jun_06_1717,60.0103745384,MAFE4ImagesEEG,001,100588,
AFNE01.JPG,AFNE01.JPG,AFNE01.JPG,AFNE01.JPG,AFNE01.JPG,AFNE01.JPG,0,0,0,0,,,,,,,,,,,,,,,,,,,,,,,AMSA19.jpg,AMNE02.jpg,AMNE18.jpg,AMSA03.jpg,AMSA19.jpg,MS,2,num_8,16,num_8,0.716625328641,,,2017_Jun_06_1717,60.0103745384,MAFE4ImagesEEG,001,100588,
AFNE01.JPG,AFNE01.JPG,AFNE01.JPG,AFNE01.JPG,AFNE01.JPG,AFNE01.JPG,0,1,1,2,,,,,,,,,,,,,,,,,,,,,,,AMSA13.jpg,AMNE16.jpg,AMSA01.jpg,AMNE14.jpg,AMNE16.jpg,MN,1,num_6,32,num_4,0.666785554262,,,2017_Jun_06_1717,60.0103745384,MAFE4ImagesEEG,001,100588,
AFNE01.JPG,AFNE01.JPG,AFNE01.JPG,AFNE01.JPG,AFNE01.JPG,AFNE01.JPG,0,2,2,4,,,,,,,,,,,,,,,,,,,,,,,AMNE13.jpg,AMSA20.jpg,AMNE04.jpg,AMSA08.jpg,AMNE13.jpg,MN,1,num_8,32,num_2,0.68351181969,,,2017_Jun_06_1717,60.0103745384,MAFE4ImagesEEG,001,100588,
AFNE01.JPG,AFNE01.JPG,AFNE01.JPG,AFNE01.JPG,AFNE01.JPG,AFNE01.JPG,0,3,3,9,,,,,,,,,,,,,,,,,,,,,,,AMNE13.jpg,AMNE06.jpg,AMSA06.jpg,AMSA13.jpg,AMSA13.jpg,MS,2,num_4,32,num_8,0.58342044102,,,2017_Jun_06_1717,60.0103745384,MAFE4ImagesEEG,001,100588,
AFNE01.JPG,AFNE01.JPG,AFNE01.JPG,AFNE01.JPG,AFNE01.JPG,AFNE01.JPG,0,4,4,7,,,,,,,,,,,,,,,,,,,,,,,AMSA10.jpg,AMSA06.jpg,AMNE15.jpg,AMNE16.jpg,AMSA06.jpg,MS,2,num_6,32,num_8,0.583513455465,,,2017_Jun_06_1717,60.0103745384,MAFE4ImagesEEG,001,100588,
AFNE01.JPG,AFNE01.JPG,AFNE01.JPG,AFNE01.JPG,AFNE01.JPG,AFNE01.JPG,0,5,5,6,,,,,,,,,,,,,,,,,,,,,,,AMNE13.jpg,AMSA11.jpg,AMNE12.jpg,AMSA06.jpg,AMSA11.jpg,MS,2,num_6,32,num_4,0.750179534312,,,2017_Jun_06_1717,60.0103745384,MAFE4ImagesEEG,001,100588,
AFNE01.JPG,AFNE01.JPG,AFNE01.JPG,AFNE01.JPG,AFNE01.JPG,AFNE01.JPG,0,6,6,5,,,,,,,,,,,,,,,,,,,,,,,AMNE20.jpg,AMSA01.jpg,AMNE10.jpg,AMSA16.jpg,AMNE20.jpg,MN,1,num_8,16,num_8,0.933483995497,,,2017_Jun_06_1717,60.0103745384,MAFE4ImagesEEG,001,100588,
AFNE01.JPG,AFNE01.JPG,AFNE01.JPG,AFNE01.JPG,AFNE01.JPG,AFNE01.JPG,0,7,7,1,,,,,,,,,,,,,,,,,,,,,,,AMSA03.jpg,AMNE10.jpg,AMNE09.jpg,AMSA19.jpg,AMSA03.jpg,MS,2,num_8,32,num_4,0.783458544873,,,2017_Jun_06_1717,60.0103745384,MAFE4ImagesEEG,001,100588,
AFNE01.JPG,AFNE01.JPG,AFNE01.JPG,AFNE01.JPG,AFNE01.JPG,AFNE01.JPG,0,8,8,8,,,,,,,,,,,,,,,,,,,,,,,AMSA10.jpg,AMNE12.jpg,AMNE13.jpg,AMSA18.jpg,AMSA18.jpg,MS,2,num_4,16,num_4,0.600127462065,,,2017_Jun_06_1717,60.0103745384,MAFE4ImagesEEG,001,100588,
AFNE01.JPG,AFNE01.JPG,AFNE01.JPG,AFNE01.JPG,AFNE01.JPG,AFNE01.JPG,0,9,9,3,,,,,,,,,,,,,,,,,,,,,,,AMNE07.jpg,AMSA08.jpg,AMSA16.jpg,AMNE14.jpg,AMSA16.jpg,MS,2,num_2,16,num_2,0.600126179168,,,2017_Jun_06_1717,60.0103745384,MAFE4ImagesEEG,001,100588,
AFNE01.JPG,AFNE01.JPG,AFNE01.JPG,AFNE01.JPG,AFNE01.JPG,AFNE01.JPG,1,0,10,3,,,,,,,,,,,,,,,,,,,,,,,AMSA20.jpg,AMNE03.jpg,AMSA18.jpg,AMNE10.jpg,AMNE03.jpg,MN,1,num_6,16,num_6,1.00007826043,,,2017_Jun_06_1717,60.0103745384,MAFE4ImagesEEG,001,100588,
AFNE01.JPG,AFNE01.JPG,AFNE01.JPG,AFNE01.JPG,AFNE01.JPG,AFNE01.JPG,1,1,11,5,,,,,,,,,,,,,,,,,,,,,,,AMSA02.jpg,AMNE04.jpg,AMSA07.jpg,AMNE01.jpg,AMSA02.jpg,MS,2,num_8,32,num_2,0.616871368373,,,2017_Jun_06_1717,60.0103745384,MAFE4ImagesEEG,001,100588,
AFNE01.JPG,AFNE01.JPG,AFNE01.JPG,AFNE01.JPG,AFNE01.JPG,AFNE01.JPG,1,2,12,2,,,,,,,,,,,,,,,,,,,,,,,AMNE15.jpg,AMSA02.jpg,AMSA10.jpg,AMNE16.jpg,AMNE16.jpg,MN,1,num_4,32,num_2,0.733481814386,,,2017_Jun_06_1717,60.0103745384,MAFE4ImagesEEG,001,100588,
AFNE01.JPG,AFNE01.JPG,AFNE01.JPG,AFNE01.JPG,AFNE01.JPG,AFNE01.JPG,1,3,13,4,,,,,,,,,,,,,,,,,,,,,,,AMSA06.jpg,AMNE05.jpg,AMSA01.jpg,AMNE18.jpg,AMSA06.jpg,MS,2,num_8,16,num_8,0.833521554247,,,2017_Jun_06_1717,60.0103745384,MAFE4ImagesEEG,001,100588,
AFNE01.JPG,AFNE01.JPG,AFNE01.JPG,AFNE01.JPG,AFNE01.JPG,AFNE01.JPG,1,4,14,8,,,,,,,,,,,,,,,,,,,,,,,AMSA11.jpg,AMSA01.jpg,AMNE15.jpg,AMNE09.jpg,AMNE09.jpg,MN,1,num_4,16,num_4,0.600184553768,,,2017_Jun_06_1717,60.0103745384,MAFE4ImagesEEG,001,100588,
AFNE01.JPG,AFNE01.JPG,AFNE01.JPG,AFNE01.JPG,AFNE01.JPG,AFNE01.JPG,1,5,15,6,,,,,,,,,,,,,,,,,,,,,,,AMSA01.jpg,AMNE03.jpg,AMSA03.jpg,AMNE10.jpg,AMNE10.jpg,MN,1,num_4,32,num_6,0.70013608993,,,2017_Jun_06_1717,60.0103745384,MAFE4ImagesEEG,001,100588,
AFNE01.JPG,AFNE01.JPG,AFNE01.JPG,AFNE01.JPG,AFNE01.JPG,AFNE01.JPG,1,6,16,1,,,,,,,,,,,,,,,,,,,,,,,AMNE19.jpg,AMSA08.jpg,AMNE09.jpg,AMSA09.jpg,AMNE09.jpg,MN,1,num_2,32,num_8,0.783548031235,,,2017_Jun_06_1717,60.0103745384,MAFE4ImagesEEG,001,100588,
AFNE01.JPG,AFNE01.JPG,AFNE01.JPG,AFNE01.JPG,AFNE01.JPG,AFNE01.JPG,1,7,17,0,,,,,,,,,,,,,,,,,,,,,,,AMNE04.jpg,AMSA08.jpg,AMSA15.jpg,AMNE11.jpg,AMSA08.jpg,MS,2,num_6,16,num_6,1.05011112033,,,2017_Jun_06_1717,60.0103745384,MAFE4ImagesEEG,001,100588,
AFNE01.JPG,AFNE01.JPG,AFNE01.JPG,AFNE01.JPG,AFNE01.JPG,AFNE01.JPG,1,8,18,7,,,,,,,,,,,,,,,,,,,,,,,AMSA09.jpg,AMNE15.jpg,AMNE09.jpg,AMSA14.jpg,AMSA09.jpg,MS,2,num_8,32,num_2,1.13355000387,,,2017_Jun_06_1717,60.0103745384,MAFE4ImagesEEG,001,100588,
AFNE01.JPG,AFNE01.JPG,AFNE01.JPG,AFNE01.JPG,AFNE01.JPG,AFNE01.JPG,1,9,19,9,,,,,,,,,,,,,,,,,,,,,,,AMSA12.jpg,AMSA04.jpg,AMNE10.jpg,AMNE08.jpg,AMNE10.jpg,MN,1,num_2,32,num_4,0.833456123248,,,2017_Jun_06_1717,60.0103745384,MAFE4ImagesEEG,001,100588,
AFNE01.JPG,AFNE01.JPG,AFNE01.JPG,AFNE01.JPG,AFNE01.JPG,AFNE01.JPG,2,0,20,7,,,,,,,,,,,,,,,,,,,,,,,AMNE07.jpg,AMNE19.jpg,AMSA01.jpg,AMSA19.jpg,AMSA01.jpg,MS,2,num_2,16,num_2,0.700146674411,,,2017_Jun_06_1717,60.0103745384,MAFE4ImagesEEG,001,100588,
AFNE01.JPG,AFNE01.JPG,AFNE01.JPG,AFNE01.JPG,AFNE01.JPG,AFNE01.JPG,2,1,21,5,,,,,,,,,,,,,,,,,,,,,,,AMNE04.jpg,AMSA17.jpg,AMNE20.jpg,AMSA08.jpg,AMSA17.jpg,MS,2,num_6,32,num_8,1.19995214557,,,2017_Jun_06_1717,60.0103745384,MAFE4ImagesEEG,001,100588,
AFNE01.JPG,AFNE01.JPG,AFNE01.JPG,AFNE01.JPG,AFNE01.JPG,AFNE01.JPG,2,2,22,8,,,,,,,,,,,,,,,,,,,,,,,AMSA12.jpg,AMNE06.jpg,AMSA14.jpg,AMNE04.jpg,AMNE06.jpg,MN,1,num_6,16,num_6,0.833461255301,,,2017_Jun_06_1717,60.0103745384,MAFE4ImagesEEG,001,100588,
AFNE01.JPG,AFNE01.JPG,AFNE01.JPG,AFNE01.JPG,AFNE01.JPG,AFNE01.JPG,2,3,23,0,,,,,,,,,,,,,,,,,,,,,,,AMNE05.jpg,AMSA16.jpg,AMNE12.jpg,AMSA02.jpg,AMSA16.jpg,MS,2,num_6,32,num_8,1.33343447349,,,2017_Jun_06_1717,60.0103745384,MAFE4ImagesEEG,001,100588,
AFNE01.JPG,AFNE01.JPG,AFNE01.JPG,AFNE01.JPG,AFNE01.JPG,AFNE01.JPG,2,4,24,4,,,,,,,,,,,,,,,,,,,,,,,AMNE09.jpg,AMNE05.jpg,AMSA10.jpg,AMSA12.jpg,AMNE05.jpg,MN,1,num_6,16,num_6,0.566745173186,,,2017_Jun_06_1717,60.0103745384,MAFE4ImagesEEG,001,100588,
AFNE01.JPG,AFNE01.JPG,AFNE01.JPG,AFNE01.JPG,AFNE01.JPG,AFNE01.JPG,2,5,25,9,,,,,,,,,,,,,,,,,,,,,,,AMNE12.jpg,AMNE04.jpg,AMSA02.jpg,AMSA18.jpg,AMSA02.jpg,MS,2,num_2,16,num_2,1.10007919068,,,2017_Jun_06_1717,60.0103745384,MAFE4ImagesEEG,001,100588,
AFNE01.JPG,AFNE01.JPG,AFNE01.JPG,AFNE01.JPG,AFNE01.JPG,AFNE01.JPG,2,6,26,1,,,,,,,,,,,,,,,,,,,,,,,AMNE17.jpg,AMSA11.jpg,AMSA09.jpg,AMNE14.jpg,AMSA11.jpg,MS,2,num_6,16,num_6,0.783465921879,,,2017_Jun_06_1717,60.0103745384,MAFE4ImagesEEG,001,100588,
AFNE01.JPG,AFNE01.JPG,AFNE01.JPG,AFNE01.JPG,AFNE01.JPG,AFNE01.JPG,2,7,27,6,,,,,,,,,,,,,,,,,,,,,,,AMNE11.jpg,AMSA01.jpg,AMNE19.jpg,AMSA06.jpg,AMNE11.jpg,MN,1,num_8,32,num_4,0.766759542283,,,2017_Jun_06_1717,60.0103745384,MAFE4ImagesEEG,001,100588,
AFNE01.JPG,AFNE01.JPG,AFNE01.JPG,AFNE01.JPG,AFNE01.JPG,AFNE01.JPG,2,8,28,2,,,,,,,,,,,,,,,,,,,,,,,AMNE08.jpg,AMSA15.jpg,AMSA09.jpg,AMNE18.jpg,AMNE08.jpg,MN,1,num_8,16,num_8,0.716805584496,,,2017_Jun_06_1717,60.0103745384,MAFE4ImagesEEG,001,100588,
AFNE01.JPG,AFNE01.JPG,AFNE01.JPG,AFNE01.JPG,AFNE01.JPG,AFNE01.JPG,2,9,29,3,,,,,,,,,,,,,,,,,,,,,,,AMSA03.jpg,AMNE01.jpg,AMNE20.jpg,AMSA11.jpg,AMSA11.jpg,MS,2,num_4,16,num_4,0.900179967284,,,2017_Jun_06_1717,60.0103745384,MAFE4ImagesEEG,001,100588,
AFNE01.JPG,AFNE01.JPG,AFNE01.JPG,AFNE01.JPG,AFNE01.JPG,AFNE01.JPG,3,0,30,5,,,,,,,,,,,,,,,,,,,,,,,AMNE02.jpg,AMNE15.jpg,AMSA09.jpg,AMSA04.jpg,AMNE02.jpg,MN,1,num_8,16,num_8,1.26679145591,,,2017_Jun_06_1717,60.0103745384,MAFE4ImagesEEG,001,100588,
AFNE01.JPG,AFNE01.JPG,AFNE01.JPG,AFNE01.JPG,AFNE01.JPG,AFNE01.JPG,3,1,31,4,,,,,,,,,,,,,,,,,,,,,,,AMSA03.jpg,AMNE19.jpg,AMNE18.jpg,AMSA20.jpg,AMNE18.jpg,MN,1,num_2,16,num_2,1.15011493699,,,2017_Jun_06_1717,60.0103745384,MAFE4ImagesEEG,001,100588,
AFNE01.JPG,AFNE01.JPG,AFNE01.JPG,AFNE01.JPG,AFNE01.JPG,AFNE01.JPG,3,2,32,9,,,,,,,,,,,,,,,,,,,,,,,AMNE02.jpg,AMNE05.jpg,AMSA03.jpg,AMSA04.jpg,AMNE02.jpg,MN,1,num_8,16,num_8,1.26674174122,,,2017_Jun_06_1717,60.0103745384,MAFE4ImagesEEG,001,100588,
AFNE01.JPG,AFNE01.JPG,AFNE01.JPG,AFNE01.JPG,AFNE01.JPG,AFNE01.JPG,3,3,33,8,,,,,,,,,,,,,,,,,,,,,,,AMSA10.jpg,AMSA14.jpg,AMNE10.jpg,AMNE04.jpg,AMSA14.jpg,MS,2,num_6,32,num_2,1.10015648906,,,2017_Jun_06_1717,60.0103745384,MAFE4ImagesEEG,001,100588,
AFNE01.JPG,AFNE01.JPG,AFNE01.JPG,AFNE01.JPG,AFNE01.JPG,AFNE01.JPG,3,4,34,3,,,,,,,,,,,,,,,,,,,,,,,AMSA13.jpg,AMNE12.jpg,AMNE18.jpg,AMSA02.jpg,AMNE12.jpg,MN,1,num_6,16,num_6,0.80009468249,,,2017_Jun_06_1717,60.0103745384,MAFE4ImagesEEG,001,100588,
AFNE01.JPG,AFNE01.JPG,AFNE01.JPG,AFNE01.JPG,AFNE01.JPG,AFNE01.JPG,3,5,35,1,,,,,,,,,,,,,,,,,,,,,,,AMNE17.jpg,AMSA09.jpg,AMNE20.jpg,AMSA11.jpg,AMSA11.jpg,MS,2,num_4,32,num_8,0.550124110188,,,2017_Jun_06_1717,60.0103745384,MAFE4ImagesEEG,001,100588,
AFNE01.JPG,AFNE01.JPG,AFNE01.JPG,AFNE01.JPG,AFNE01.JPG,AFNE01.JPG,3,6,36,0,,,,,,,,,,,,,,,,,,,,,,,AMNE03.jpg,AMSA05.jpg,AMSA03.jpg,AMNE16.jpg,AMNE16.jpg,MN,1,num_4,32,num_6,0.650249808328,,,2017_Jun_06_1717,60.0103745384,MAFE4ImagesEEG,001,100588,
AFNE01.JPG,AFNE01.JPG,AFNE01.JPG,AFNE01.JPG,AFNE01.JPG,AFNE01.JPG,3,7,37,6,,,,,,,,,,,,,,,,,,,,,,,AMSA04.jpg,AMNE19.jpg,AMSA16.jpg,AMNE11.jpg,AMNE19.jpg,MN,1,num_6,32,num_4,0.516801158199,,,2017_Jun_06_1717,60.0103745384,MAFE4ImagesEEG,001,100588,
AFNE01.JPG,AFNE01.JPG,AFNE01.JPG,AFNE01.JPG,AFNE01.JPG,AFNE01.JPG,3,8,38,2,,,,,,,,,,,,,,,,,,,,,,,AMNE11.jpg,AMSA02.jpg,AMSA15.jpg,AMNE08.jpg,AMSA02.jpg,MS,2,num_6,32,num_2,0.866763359169,,,2017_Jun_06_1717,60.0103745384,MAFE4ImagesEEG,001,100588,
AFNE01.JPG,AFNE01.JPG,AFNE01.JPG,AFNE01.JPG,AFNE01.JPG,AFNE01.JPG,3,9,39,7,,,,,,,,,,,,,,,,,,,,,,,AMSA19.jpg,AMNE19.jpg,AMSA02.jpg,AMNE13.jpg,AMSA19.jpg,MS,2,num_8,16,num_8,1.13367092283,,,2017_Jun_06_1717,60.0103745384,MAFE4ImagesEEG,001,100588,
AFNE01.JPG,AFNE01.JPG,AFNE01.JPG,AFNE01.JPG,AFNE01.JPG,AFNE01.JPG,4,0,40,4,,,,,,,,,,,,,,,,,,,,,,,AMSA03.jpg,AMSA16.jpg,AMNE17.jpg,AMNE04.jpg,AMNE17.jpg,MN,1,num_2,16,num_2,0.616777070565,,,2017_Jun_06_1717,60.0103745384,MAFE4ImagesEEG,001,100588,
AFNE01.JPG,AFNE01.JPG,AFNE01.JPG,AFNE01.JPG,AFNE01.JPG,AFNE01.JPG,4,1,41,2,,,,,,,,,,,,,,,,,,,,,,,AMNE13.jpg,AMSA02.jpg,AMNE20.jpg,AMSA17.jpg,AMNE13.jpg,MN,1,num_8,32,num_4,1.18333396968,,,2017_Jun_06_1717,60.0103745384,MAFE4ImagesEEG,001,100588,
AFNE01.JPG,AFNE01.JPG,AFNE01.JPG,AFNE01.JPG,AFNE01.JPG,AFNE01.JPG,4,2,42,8,,,,,,,,,,,,,,,,,,,,,,,AMNE18.jpg,AMSA13.jpg,AMSA03.jpg,AMNE01.jpg,AMNE18.jpg,MN,1,num_8,16,num_8,0.633487940533,,,2017_Jun_06_1717,60.0103745384,MAFE4ImagesEEG,001,100588,
AFNE01.JPG,AFNE01.JPG,AFNE01.JPG,AFNE01.JPG,AFNE01.JPG,AFNE01.JPG,4,3,43,9,,,,,,,,,,,,,,,,,,,,,,,AMSA08.jpg,AMNE20.jpg,AMNE17.jpg,AMSA06.jpg,AMNE20.jpg,MN,1,num_6,16,num_6,0.600134839071,,,2017_Jun_06_1717,60.0103745384,MAFE4ImagesEEG,001,100588,
AFNE01.JPG,AFNE01.JPG,AFNE01.JPG,AFNE01.JPG,AFNE01.JPG,AFNE01.JPG,4,4,44,6,,,,,,,,,,,,,,,,,,,,,,,AMSA07.jpg,AMSA12.jpg,AMNE16.jpg,AMNE08.jpg,AMSA07.jpg,MS,2,num_8,32,num_2,1.18334840285,,,2017_Jun_06_1717,60.0103745384,MAFE4ImagesEEG,001,100588,
AFNE01.JPG,AFNE01.JPG,AFNE01.JPG,AFNE01.JPG,AFNE01.JPG,AFNE01.JPG,4,5,45,3,,,,,,,,,,,,,,,,,,,,,,,AMSA02.jpg,AMSA06.jpg,AMNE13.jpg,AMNE17.jpg,AMSA06.jpg,MS,2,num_6,16,num_6,0.53347899206,,,2017_Jun_06_1717,60.0103745384,MAFE4ImagesEEG,001,100588,
AFNE01.JPG,AFNE01.JPG,AFNE01.JPG,AFNE01.JPG,AFNE01.JPG,AFNE01.JPG,4,6,46,5,,,,,,,,,,,,,,,,,,,,,,,AMSA19.jpg,AMNE18.jpg,AMNE11.jpg,AMSA15.jpg,AMSA19.jpg,MS,2,num_8,16,num_8,0.633327249903,,,2017_Jun_06_1717,60.0103745384,MAFE4ImagesEEG,001,100588,
AFNE01.JPG,AFNE01.JPG,AFNE01.JPG,AFNE01.JPG,AFNE01.JPG,AFNE01.JPG,4,7,47,0,,,,,,,,,,,,,,,,,,,,,,,AMSA17.jpg,AMNE10.jpg,AMNE02.jpg,AMSA09.jpg,AMNE02.jpg,MN,1,num_2,32,num_6,0.683772260556,,,2017_Jun_06_1717,60.0103745384,MAFE4ImagesEEG,001,100588,
AFNE01.JPG,AFNE01.JPG,AFNE01.JPG,AFNE01.JPG,AFNE01.JPG,AFNE01.JPG,4,8,48,1,,,,,,,,,,,,,,,,,,,,,,,AMNE18.jpg,AMSA20.jpg,AMSA05.jpg,AMNE16.jpg,AMNE16.jpg,MN,1,num_4,16,num_4,0.63344271644,,,2017_Jun_06_1717,60.0103745384,MAFE4ImagesEEG,001,100588,
AFNE01.JPG,AFNE01.JPG,AFNE01.JPG,AFNE01.JPG,AFNE01.JPG,AFNE01.JPG,4,9,49,7,,,,,,,,,,,,,,,,,,,,,,,AMSA08.jpg,AMNE12.jpg,AMSA13.jpg,AMNE16.jpg,AMNE16.jpg,MN,1,num_4,16,num_4,0.366789178457,,,2017_Jun_06_1717,60.0103745384,MAFE4ImagesEEG,001,100588,
AFNE01.JPG,AFNE01.JPG,AFNE01.JPG,AFNE01.JPG,AFNE01.JPG,AFNE01.JPG,5,0,50,0,,,,,,,,,,,,,,,,,,,,,,,AMNE10.jpg,AMNE07.jpg,AMSA10.jpg,AMSA05.jpg,AMSA05.jpg,MS,2,num_4,16,num_4,1.16679758206,,,2017_Jun_06_1717,60.0103745384,MAFE4ImagesEEG,001,100588,
AFNE01.JPG,AFNE01.JPG,AFNE01.JPG,AFNE01.JPG,AFNE01.JPG,AFNE01.JPG,5,1,51,4,,,,,,,,,,,,,,,,,,,,,,,AMSA09.jpg,AMNE01.jpg,AMNE07.jpg,AMSA13.jpg,AMNE01.jpg,MN,1,num_6,16,num_6,0.616743072169,,,2017_Jun_06_1717,60.0103745384,MAFE4ImagesEEG,001,100588,
AFNE01.JPG,AFNE01.JPG,AFNE01.JPG,AFNE01.JPG,AFNE01.JPG,AFNE01.JPG,5,2,52,6,,,,,,,,,,,,,,,,,,,,,,,AMSA05.jpg,AMSA04.jpg,AMNE17.jpg,AMNE20.jpg,AMNE17.jpg,MN,1,num_2,32,num_4,0.750019484898,,,2017_Jun_06_1717,60.0103745384,MAFE4ImagesEEG,001,100588,
AFNE01.JPG,AFNE01.JPG,AFNE01.JPG,AFNE01.JPG,AFNE01.JPG,AFNE01.JPG,5,3,53,8,,,,,,,,,,,,,,,,,,,,,,,AMNE03.jpg,AMSA11.jpg,AMSA04.jpg,AMNE18.jpg,AMSA04.jpg,MS,2,num_2,32,num_6,0.816770271165,,,2017_Jun_06_1717,60.0103745384,MAFE4ImagesEEG,001,100588,
AFNE01.JPG,AFNE01.JPG,AFNE01.JPG,AFNE01.JPG,AFNE01.JPG,AFNE01.JPG,5,4,54,1,,,,,,,,,,,,,,,,,,,,,,,AMSA10.jpg,AMSA17.jpg,AMNE15.jpg,AMNE19.jpg,AMNE19.jpg,MN,1,num_4,32,num_8,0.733435628004,,,2017_Jun_06_1717,60.0103745384,MAFE4ImagesEEG,001,100588,
AFNE01.JPG,AFNE01.JPG,AFNE01.JPG,AFNE01.JPG,AFNE01.JPG,AFNE01.JPG,5,5,55,3,,,,,,,,,,,,,,,,,,,,,,,AMNE17.jpg,AMSA08.jpg,AMNE16.jpg,AMSA11.jpg,AMSA11.jpg,MS,2,num_4,32,num_6,0.6167700144,,,2017_Jun_06_1717,60.0103745384,MAFE4ImagesEEG,001,100588,
AFNE01.JPG,AFNE01.JPG,AFNE01.JPG,AFNE01.JPG,AFNE01.JPG,AFNE01.JPG,5,6,56,9,,,,,,,,,,,,,,,,,,,,,,,AMSA19.jpg,AMSA02.jpg,AMNE20.jpg,AMNE13.jpg,AMNE13.jpg,MN,1,num_4,32,num_8,0.650160001125,,,2017_Jun_06_1717,60.0103745384,MAFE4ImagesEEG,001,100588,
AFNE01.JPG,AFNE01.JPG,AFNE01.JPG,AFNE01.JPG,AFNE01.JPG,AFNE01.JPG,5,7,57,2,,,,,,,,,,,,,,,,,,,,,,,AMNE08.jpg,AMNE13.jpg,AMSA13.jpg,AMSA06.jpg,AMSA06.jpg,MS,2,num_4,32,num_2,0.866749246605,,,2017_Jun_06_1717,60.0103745384,MAFE4ImagesEEG,001,100588,
AFNE01.JPG,AFNE01.JPG,AFNE01.JPG,AFNE01.JPG,AFNE01.JPG,AFNE01.JPG,5,8,58,7,,,,,,,,,,,,,,,,,,,,,,,AMNE18.jpg,AMNE16.jpg,AMSA18.jpg,AMSA04.jpg,AMNE16.jpg,MN,1,num_6,32,num_8,0.933489448158,,,2017_Jun_06_1717,60.0103745384,MAFE4ImagesEEG,001,100588,
AFNE01.JPG,AFNE01.JPG,AFNE01.JPG,AFNE01.JPG,AFNE01.JPG,AFNE01.JPG,5,9,59,5,,,,,,,,,,,,,,,,,,,,,,,AMSA16.jpg,AMSA13.jpg,AMNE13.jpg,AMNE18.jpg,AMNE13.jpg,MN,1,num_2,16,num_2,0.666797100799,,,2017_Jun_06_1717,60.0103745384,MAFE4ImagesEEG,001,100588,
,,,,,,,,,,,,,,,,,,,,,,,,,,,,,,,,,,,,,,,,,,,space,5.93326589256,2017_Jun_06_1717,60.0103745384,MAFE4ImagesEEG,001,100588,
AFNE01.JPG,AFNE01.JPG,AFNE01.JPG,AFNE01.JPG,AFNE01.JPG,AFNE01.JPG,,,,,0,0,0,0,,,,,,,,,,,,,,,,,,,AFSA20.jpg,AFSA06.jpg,AFNE18.jpg,AFNE09.jpg,AFSA06.jpg,FS,4,num_6,32,num_4,1.3334120214,,,2017_Jun_06_1717,60.0103745384,MAFE4ImagesEEG,001,100588,
AFNE01.JPG,AFNE01.JPG,AFNE01.JPG,AFNE01.JPG,AFNE01.JPG,AFNE01.JPG,,,,,0,1,1,7,,,,,,,,,,,,,,,,,,,AFSA01.jpg,AFNE10.jpg,AFNE02.jpg,AFSA13.jpg,AFNE02.jpg,FN,3,num_2,32,num_6,0.53347257711,,,2017_Jun_06_1717,60.0103745384,MAFE4ImagesEEG,001,100588,
AFNE01.JPG,AFNE01.JPG,AFNE01.JPG,AFNE01.JPG,AFNE01.JPG,AFNE01.JPG,,,,,0,2,2,3,,,,,,,,,,,,,,,,,,,AFNE19.jpg,AFSA12.jpg,AFNE03.jpg,AFSA01.jpg,AFNE19.jpg,FN,3,num_8,32,num_4,1.15011397493,,,2017_Jun_06_1717,60.0103745384,MAFE4ImagesEEG,001,100588,
AFNE01.JPG,AFNE01.JPG,AFNE01.JPG,AFNE01.JPG,AFNE01.JPG,AFNE01.JPG,,,,,0,3,3,6,,,,,,,,,,,,,,,,,,,AFSA20.jpg,AFSA04.jpg,AFNE11.jpg,AFNE17.jpg,AFSA20.jpg,FS,4,num_8,32,num_4,1.0167564149,,,2017_Jun_06_1717,60.0103745384,MAFE4ImagesEEG,001,100588,
AFNE01.JPG,AFNE01.JPG,AFNE01.JPG,AFNE01.JPG,AFNE01.JPG,AFNE01.JPG,,,,,0,4,4,1,,,,,,,,,,,,,,,,,,,AFNE01.jpg,AFSA14.jpg,AFSA09.jpg,AFNE16.jpg,AFNE01.jpg,FN,3,num_8,32,num_6,0.58353302069,,,2017_Jun_06_1717,60.0103745384,MAFE4ImagesEEG,001,100588,
AFNE01.JPG,AFNE01.JPG,AFNE01.JPG,AFNE01.JPG,AFNE01.JPG,AFNE01.JPG,,,,,0,5,5,8,,,,,,,,,,,,,,,,,,,AFSA07.jpg,AFNE18.jpg,AFSA10.jpg,AFNE16.jpg,AFNE18.jpg,FN,3,num_6,16,num_6,0.883431891212,,,2017_Jun_06_1717,60.0103745384,MAFE4ImagesEEG,001,100588,
AFNE01.JPG,AFNE01.JPG,AFNE01.JPG,AFNE01.JPG,AFNE01.JPG,AFNE01.JPG,,,,,0,6,6,2,,,,,,,,,,,,,,,,,,,AFNE05.jpg,AFSA11.jpg,AFSA10.jpg,AFNE04.jpg,AFNE04.jpg,FN,3,num_4,16,num_4,0.700161749264,,,2017_Jun_06_1717,60.0103745384,MAFE4ImagesEEG,001,100588,
AFNE01.JPG,AFNE01.JPG,AFNE01.JPG,AFNE01.JPG,AFNE01.JPG,AFNE01.JPG,,,,,0,7,7,4,,,,,,,,,,,,,,,,,,,AFNE16.jpg,AFNE10.jpg,AFSA09.jpg,AFSA14.jpg,AFSA09.jpg,FS,4,num_2,16,num_2,0.816729857819,,,2017_Jun_06_1717,60.0103745384,MAFE4ImagesEEG,001,100588,
AFNE01.JPG,AFNE01.JPG,AFNE01.JPG,AFNE01.JPG,AFNE01.JPG,AFNE01.JPG,,,,,0,8,8,9,,,,,,,,,,,,,,,,,,,AFNE17.jpg,AFSA05.jpg,AFNE12.jpg,AFSA10.jpg,AFNE17.jpg,FN,3,num_8,16,num_8,1.16682195826,,,2017_Jun_06_1717,60.0103745384,MAFE4ImagesEEG,001,100588,
AFNE01.JPG,AFNE01.JPG,AFNE01.JPG,AFNE01.JPG,AFNE01.JPG,AFNE01.JPG,,,,,0,9,9,5,,,,,,,,,,,,,,,,,,,AFNE15.jpg,AFSA15.jpg,AFSA13.jpg,AFNE12.jpg,AFSA15.jpg,FS,4,num_6,16,num_6,0.666799666593,,,2017_Jun_06_1717,60.0103745384,MAFE4ImagesEEG,001,100588,
AFNE01.JPG,AFNE01.JPG,AFNE01.JPG,AFNE01.JPG,AFNE01.JPG,AFNE01.JPG,,,,,1,0,10,6,,,,,,,,,,,,,,,,,,,AFNE06.jpg,AFNE05.jpg,AFSA18.jpg,AFSA04.jpg,AFSA18.jpg,FS,4,num_2,32,num_8,0.850092902314,,,2017_Jun_06_1717,60.0103745384,MAFE4ImagesEEG,001,100588,
AFNE01.JPG,AFNE01.JPG,AFNE01.JPG,AFNE01.JPG,AFNE01.JPG,AFNE01.JPG,,,,,1,1,11,1,,,,,,,,,,,,,,,,,,,AFNE11.jpg,AFSA05.jpg,AFSA11.jpg,AFNE13.jpg,AFSA05.jpg,FS,4,num_6,16,num_6,0.766780069564,,,2017_Jun_06_1717,60.0103745384,MAFE4ImagesEEG,001,100588,
AFNE01.JPG,AFNE01.JPG,AFNE01.JPG,AFNE01.JPG,AFNE01.JPG,AFNE01.JPG,,,,,1,2,12,0,,,,,,,,,,,,,,,,,,,AFSA02.jpg,AFNE16.jpg,AFSA08.jpg,AFNE06.jpg,AFNE16.jpg,FN,3,num_6,32,num_8,0.966754987836,,,2017_Jun_06_1717,60.0103745384,MAFE4ImagesEEG,001,100588,
AFNE01.JPG,AFNE01.JPG,AFNE01.JPG,AFNE01.JPG,AFNE01.JPG,AFNE01.JPG,,,,,1,3,13,4,,,,,,,,,,,,,,,,,,,AFSA16.jpg,AFNE01.jpg,AFNE10.jpg,AFSA10.jpg,AFNE01.jpg,FN,3,num_6,32,num_2,0.466779845068,,,2017_Jun_06_1717,60.0103745384,MAFE4ImagesEEG,001,100588,
AFNE01.JPG,AFNE01.JPG,AFNE01.JPG,AFNE01.JPG,AFNE01.JPG,AFNE01.JPG,,,,,1,4,14,3,,,,,,,,,,,,,,,,,,,AFSA11.jpg,AFSA07.jpg,AFNE16.jpg,AFNE08.jpg,AFSA11.jpg,FS,4,num_8,32,num_4,0.766793861287,,,2017_Jun_06_1717,60.0103745384,MAFE4ImagesEEG,001,100588,
AFNE01.JPG,AFNE01.JPG,AFNE01.JPG,AFNE01.JPG,AFNE01.JPG,AFNE01.JPG,,,,,1,5,15,9,,,,,,,,,,,,,,,,,,,AFNE08.jpg,AFSA11.jpg,AFNE01.jpg,AFSA01.jpg,AFSA11.jpg,FS,4,num_6,32,num_4,0.733462570235,,,2017_Jun_06_1717,60.0103745384,MAFE4ImagesEEG,001,100588,
AFNE01.JPG,AFNE01.JPG,AFNE01.JPG,AFNE01.JPG,AFNE01.JPG,AFNE01.JPG,,,,,1,6,16,8,,,,,,,,,,,,,,,,,,,AFSA05.jpg,AFNE10.jpg,AFNE13.jpg,AFSA12.jpg,AFSA12.jpg,FS,4,num_4,32,num_8,0.716868128628,,,2017_Jun_06_1717,60.0103745384,MAFE4ImagesEEG,001,100588,
AFNE01.JPG,AFNE01.JPG,AFNE01.JPG,AFNE01.JPG,AFNE01.JPG,AFNE01.JPG,,,,,1,7,17,2,,,,,,,,,,,,,,,,,,,AFSA06.jpg,AFNE01.jpg,AFSA09.jpg,AFNE10.jpg,AFSA06.jpg,FS,4,num_8,16,num_8,0.783441545675,,,2017_Jun_06_1717,60.0103745384,MAFE4ImagesEEG,001,100588,
AFNE01.JPG,AFNE01.JPG,AFNE01.JPG,AFNE01.JPG,AFNE01.JPG,AFNE01.JPG,,,,,1,8,18,7,,,,,,,,,,,,,,,,,,,AFNE05.jpg,AFNE07.jpg,AFSA17.jpg,AFSA06.jpg,AFSA06.jpg,FS,4,num_4,16,num_4,0.283514193026,,,2017_Jun_06_1717,60.0103745384,MAFE4ImagesEEG,001,100588,
AFNE01.JPG,AFNE01.JPG,AFNE01.JPG,AFNE01.JPG,AFNE01.JPG,AFNE01.JPG,,,,,1,9,19,5,,,,,,,,,,,,,,,,,,,AFSA14.jpg,AFNE11.jpg,AFSA20.jpg,AFNE14.jpg,AFSA14.jpg,FS,4,num_8,16,num_8,0.81676161103,,,2017_Jun_06_1717,60.0103745384,MAFE4ImagesEEG,001,100588,
AFNE01.JPG,AFNE01.JPG,AFNE01.JPG,AFNE01.JPG,AFNE01.JPG,AFNE01.JPG,,,,,2,0,20,3,,,,,,,,,,,,,,,,,,,AFNE20.jpg,AFSA03.jpg,AFNE16.jpg,AFSA14.jpg,AFSA03.jpg,FS,4,num_6,32,num_4,0.700147957308,,,2017_Jun_06_1717,60.0103745384,MAFE4ImagesEEG,001,100588,
AFNE01.JPG,AFNE01.JPG,AFNE01.JPG,AFNE01.JPG,AFNE01.JPG,AFNE01.JPG,,,,,2,1,21,1,,,,,,,,,,,,,,,,,,,AFSA03.jpg,AFSA01.jpg,AFNE07.jpg,AFNE03.jpg,AFNE03.jpg,FN,3,num_4,32,num_8,0.433449516073,,,2017_Jun_06_1717,60.0103745384,MAFE4ImagesEEG,001,100588,
AFNE01.JPG,AFNE01.JPG,AFNE01.JPG,AFNE01.JPG,AFNE01.JPG,AFNE01.JPG,,,,,2,2,22,8,,,,,,,,,,,,,,,,,,,AFSA11.jpg,AFSA01.jpg,AFNE06.jpg,AFNE16.jpg,AFSA01.jpg,FS,4,num_6,32,num_4,0.466765732504,,,2017_Jun_06_1717,60.0103745384,MAFE4ImagesEEG,001,100588,
AFNE01.JPG,AFNE01.JPG,AFNE01.JPG,AFNE01.JPG,AFNE01.JPG,AFNE01.JPG,,,,,2,3,23,0,,,,,,,,,,,,,,,,,,,AFSA08.jpg,AFNE04.jpg,AFNE06.jpg,AFSA05.jpg,AFNE04.jpg,FN,3,num_6,16,num_6,0.700083167758,,,2017_Jun_06_1717,60.0103745384,MAFE4ImagesEEG,001,100588,
AFNE01.JPG,AFNE01.JPG,AFNE01.JPG,AFNE01.JPG,AFNE01.JPG,AFNE01.JPG,,,,,2,4,24,7,,,,,,,,,,,,,,,,,,,AFNE11.jpg,AFSA16.jpg,AFNE02.jpg,AFSA06.jpg,AFSA06.jpg,FS,4,num_4,32,num_6,0.783445394365,,,2017_Jun_06_1717,60.0103745384,MAFE4ImagesEEG,001,100588,
AFNE01.JPG,AFNE01.JPG,AFNE01.JPG,AFNE01.JPG,AFNE01.JPG,AFNE01.JPG,,,,,2,5,25,4,,,,,,,,,,,,,,,,,,,AFSA15.jpg,AFNE05.jpg,AFSA12.jpg,AFNE04.jpg,AFNE04.jpg,FN,3,num_4,16,num_4,0.566634517862,,,2017_Jun_06_1717,60.0103745384,MAFE4ImagesEEG,001,100588,
AFNE01.JPG,AFNE01.JPG,AFNE01.JPG,AFNE01.JPG,AFNE01.JPG,AFNE01.JPG,,,,,2,6,26,6,,,,,,,,,,,,,,,,,,,AFNE15.jpg,AFSA04.jpg,AFNE19.jpg,AFSA01.jpg,AFSA04.jpg,FS,4,num_6,32,num_2,0.466781769414,,,2017_Jun_06_1717,60.0103745384,MAFE4ImagesEEG,001,100588,
AFNE01.JPG,AFNE01.JPG,AFNE01.JPG,AFNE01.JPG,AFNE01.JPG,AFNE01.JPG,,,,,2,7,27,5,,,,,,,,,,,,,,,,,,,AFNE20.jpg,AFNE16.jpg,AFSA03.jpg,AFSA05.jpg,AFNE16.jpg,FN,3,num_6,32,num_8,0.400166656589,,,2017_Jun_06_1717,60.0103745384,MAFE4ImagesEEG,001,100588,
AFNE01.JPG,AFNE01.JPG,AFNE01.JPG,AFNE01.JPG,AFNE01.JPG,AFNE01.JPG,,,,,2,8,28,2,,,,,,,,,,,,,,,,,,,AFNE05.jpg,AFSA14.jpg,AFNE16.jpg,AFSA17.jpg,AFNE05.jpg,FN,3,num_8,32,num_4,0.450195346493,,,2017_Jun_06_1717,60.0103745384,MAFE4ImagesEEG,001,100588,
AFNE01.JPG,AFNE01.JPG,AFNE01.JPG,AFNE01.JPG,AFNE01.JPG,AFNE01.JPG,,,,,2,9,29,9,,,,,,,,,,,,,,,,,,,AFNE01.jpg,AFSA19.jpg,AFSA04.jpg,AFNE12.jpg,AFNE12.jpg,FN,3,num_4,32,num_6,0.233533614082,,,2017_Jun_06_1717,60.0103745384,MAFE4ImagesEEG,001,100588,
AFNE01.JPG,AFNE01.JPG,AFNE01.JPG,AFNE01.JPG,AFNE01.JPG,AFNE01.JPG,,,,,3,0,30,9,,,,,,,,,,,,,,,,,,,AFNE03.jpg,AFSA05.jpg,AFNE18.jpg,AFSA02.jpg,AFSA02.jpg,FS,4,num_4,16,num_4,0.31678967597,,,2017_Jun_06_1717,60.0103745384,MAFE4ImagesEEG,001,100588,
AFNE01.JPG,AFNE01.JPG,AFNE01.JPG,AFNE01.JPG,AFNE01.JPG,AFNE01.JPG,,,,,3,1,31,5,,,,,,,,,,,,,,,,,,,AFSA11.jpg,AFNE10.jpg,AFSA20.jpg,AFNE04.jpg,AFSA11.jpg,FS,4,num_8,16,num_8,0.916776333004,,,2017_Jun_06_1717,60.0103745384,MAFE4ImagesEEG,001,100588,
AFNE01.JPG,AFNE01.JPG,AFNE01.JPG,AFNE01.JPG,AFNE01.JPG,AFNE01.JPG,,,,,3,2,32,1,,,,,,,,,,,,,,,,,,,AFSA04.jpg,AFSA01.jpg,AFNE18.jpg,AFNE15.jpg,AFSA04.jpg,FS,4,num_8,32,num_2,1.18339298549,,,2017_Jun_06_1717,60.0103745384,MAFE4ImagesEEG,001,100588,
AFNE01.JPG,AFNE01.JPG,AFNE01.JPG,AFNE01.JPG,AFNE01.JPG,AFNE01.JPG,,,,,3,3,33,0,,,,,,,,,,,,,,,,,,,AFNE19.jpg,AFSA13.jpg,AFNE05.jpg,AFSA03.jpg,AFNE05.jpg,FN,3,num_2,32,num_4,0.816756479209,,,2017_Jun_06_1717,60.0103745384,MAFE4ImagesEEG,001,100588,
AFNE01.JPG,AFNE01.JPG,AFNE01.JPG,AFNE01.JPG,AFNE01.JPG,AFNE01.JPG,,,,,3,4,34,6,,,,,,,,,,,,,,,,,,,AFNE01.jpg,AFSA08.jpg,AFNE17.jpg,AFSA09.jpg,AFSA09.jpg,FS,4,num_4,32,num_6,1.20008236589,,,2017_Jun_06_1717,60.0103745384,MAFE4ImagesEEG,001,100588,
AFNE01.JPG,AFNE01.JPG,AFNE01.JPG,AFNE01.JPG,AFNE01.JPG,AFNE01.JPG,,,,,3,5,35,3,,,,,,,,,,,,,,,,,,,AFSA18.jpg,AFNE08.jpg,AFNE03.jpg,AFSA14.jpg,AFNE08.jpg,FN,3,num_6,16,num_6,0.650134342024,,,2017_Jun_06_1717,60.0103745384,MAFE4ImagesEEG,001,100588,
AFNE01.JPG,AFNE01.JPG,AFNE01.JPG,AFNE01.JPG,AFNE01.JPG,AFNE01.JPG,,,,,3,6,36,7,,,,,,,,,,,,,,,,,,,AFSA08.jpg,AFNE02.jpg,AFNE12.jpg,AFSA14.jpg,AFNE02.jpg,FN,3,num_6,16,num_6,0.633500128752,,,2017_Jun_06_1717,60.0103745384,MAFE4ImagesEEG,001,100588,
AFNE01.JPG,AFNE01.JPG,AFNE01.JPG,AFNE01.JPG,AFNE01.JPG,AFNE01.JPG,,,,,3,7,37,8,,,,,,,,,,,,,,,,,,,AFNE10.jpg,AFSA18.jpg,AFNE17.jpg,AFSA14.jpg,AFNE17.jpg,FN,3,num_2,32,num_6,0.566778850742,,,2017_Jun_06_1717,60.0103745384,MAFE4ImagesEEG,001,100588,
AFNE01.JPG,AFNE01.JPG,AFNE01.JPG,AFNE01.JPG,AFNE01.JPG,AFNE01.JPG,,,,,3,8,38,4,,,,,,,,,,,,,,,,,,,AFNE10.jpg,AFSA12.jpg,AFNE17.jpg,AFSA20.jpg,AFNE10.jpg,FN,3,num_8,32,num_2,0.583522115601,,,2017_Jun_06_1717,60.0103745384,MAFE4ImagesEEG,001,100588,
AFNE01.JPG,AFNE01.JPG,AFNE01.JPG,AFNE01.JPG,AFNE01.JPG,AFNE01.JPG,,,,,3,9,39,2,,,,,,,,,,,,,,,,,,,AFNE16.jpg,AFSA14.jpg,AFSA04.jpg,AFNE12.jpg,AFSA04.jpg,FS,4,num_2,32,num_6,0.650139153004,,,2017_Jun_06_1717,60.0103745384,MAFE4ImagesEEG,001,100588,
AFNE01.JPG,AFNE01.JPG,AFNE01.JPG,AFNE01.JPG,AFNE01.JPG,AFNE01.JPG,,,,,4,0,40,6,,,,,,,,,,,,,,,,,,,AFSA19.jpg,AFNE09.jpg,AFSA01.jpg,AFNE16.jpg,AFNE16.jpg,FN,3,num_4,16,num_4,1.13314170181,,,2017_Jun_06_1717,60.0103745384,MAFE4ImagesEEG,001,100588,
AFNE01.JPG,AFNE01.JPG,AFNE01.JPG,AFNE01.JPG,AFNE01.JPG,AFNE01.JPG,,,,,4,1,41,7,,,,,,,,,,,,,,,,,,,AFSA01.jpg,AFSA20.jpg,AFNE03.jpg,AFNE18.jpg,AFSA01.jpg,FS,4,num_8,32,num_4,0.600126820384,,,2017_Jun_06_1717,60.0103745384,MAFE4ImagesEEG,001,100588,
AFNE01.JPG,AFNE01.JPG,AFNE01.JPG,AFNE01.JPG,AFNE01.JPG,AFNE01.JPG,,,,,4,2,42,0,,,,,,,,,,,,,,,,,,,AFNE07.jpg,AFSA05.jpg,AFNE02.jpg,AFSA14.jpg,AFSA05.jpg,FS,4,num_6,16,num_6,0.750111537287,,,2017_Jun_06_1717,60.0103745384,MAFE4ImagesEEG,001,100588,
AFNE01.JPG,AFNE01.JPG,AFNE01.JPG,AFNE01.JPG,AFNE01.JPG,AFNE01.JPG,,,,,4,3,43,5,,,,,,,,,,,,,,,,,,,AFSA12.jpg,AFNE16.jpg,AFNE18.jpg,AFSA16.jpg,AFSA16.jpg,FS,4,num_4,16,num_4,0.583496456267,,,2017_Jun_06_1717,60.0103745384,MAFE4ImagesEEG,001,100588,
AFNE01.JPG,AFNE01.JPG,AFNE01.JPG,AFNE01.JPG,AFNE01.JPG,AFNE01.JPG,,,,,4,4,44,1,,,,,,,,,,,,,,,,,,,AFNE16.jpg,AFNE04.jpg,AFSA02.jpg,AFSA06.jpg,AFNE16.jpg,FN,3,num_8,32,num_6,0.683498990256,,,2017_Jun_06_1717,60.0103745384,MAFE4ImagesEEG,001,100588,
AFNE01.JPG,AFNE01.JPG,AFNE01.JPG,AFNE01.JPG,AFNE01.JPG,AFNE01.JPG,,,,,4,5,45,8,,,,,,,,,,,,,,,,,,,AFNE16.jpg,AFSA17.jpg,AFSA12.jpg,AFNE02.jpg,AFNE02.jpg,FN,3,num_4,16,num_4,0.733780102804,,,2017_Jun_06_1717,60.0103745384,MAFE4ImagesEEG,001,100588,
AFNE01.JPG,AFNE01.JPG,AFNE01.JPG,AFNE01.JPG,AFNE01.JPG,AFNE01.JPG,,,,,4,6,46,4,,,,,,,,,,,,,,,,,,,AFNE16.jpg,AFSA14.jpg,AFSA02.jpg,AFNE03.jpg,AFNE03.jpg,FN,3,num_4,32,num_8,0.883460116573,,,2017_Jun_06_1717,60.0103745384,MAFE4ImagesEEG,001,100588,
AFNE01.JPG,AFNE01.JPG,AFNE01.JPG,AFNE01.JPG,AFNE01.JPG,AFNE01.JPG,,,,,4,7,47,9,,,,,,,,,,,,,,,,,,,AFNE01.jpg,AFSA16.jpg,AFNE20.jpg,AFSA15.jpg,AFNE01.jpg,FN,3,num_8,32,num_2,0.850130107952,,,2017_Jun_06_1717,60.0103745384,MAFE4ImagesEEG,001,100588,
AFNE01.JPG,AFNE01.JPG,AFNE01.JPG,AFNE01.JPG,AFNE01.JPG,AFNE01.JPG,,,,,4,8,48,3,,,,,,,,,,,,,,,,,,,AFNE08.jpg,AFSA03.jpg,AFNE03.jpg,AFSA08.jpg,AFSA08.jpg,FS,4,num_4,16,num_4,0.65021099872,,,2017_Jun_06_1717,60.0103745384,MAFE4ImagesEEG,001,100588,
AFNE01.JPG,AFNE01.JPG,AFNE01.JPG,AFNE01.JPG,AFNE01.JPG,AFNE01.JPG,,,,,4,9,49,2,,,,,,,,,,,,,,,,,,,AFNE13.jpg,AFNE05.jpg,AFSA19.jpg,AFSA08.jpg,AFNE05.jpg,FN,3,num_6,32,num_8,0.933491693344,,,2017_Jun_06_1717,60.0103745384,MAFE4ImagesEEG,001,100588,
AFNE01.JPG,AFNE01.JPG,AFNE01.JPG,AFNE01.JPG,AFNE01.JPG,AFNE01.JPG,,,,,5,0,50,2,,,,,,,,,,,,,,,,,,,AFNE20.jpg,AFSA20.jpg,AFSA18.jpg,AFNE18.jpg,AFNE18.jpg,FN,3,num_4,16,num_4,0.866753736744,,,2017_Jun_06_1717,60.0103745384,MAFE4ImagesEEG,001,100588,
AFNE01.JPG,AFNE01.JPG,AFNE01.JPG,AFNE01.JPG,AFNE01.JPG,AFNE01.JPG,,,,,5,1,51,6,,,,,,,,,,,,,,,,,,,AFSA01.jpg,AFSA12.jpg,AFNE10.jpg,AFNE05.jpg,AFNE10.jpg,FN,3,num_2,32,num_8,0.716757152695,,,2017_Jun_06_1717,60.0103745384,MAFE4ImagesEEG,001,100588,
AFNE01.JPG,AFNE01.JPG,AFNE01.JPG,AFNE01.JPG,AFNE01.JPG,AFNE01.JPG,,,,,5,2,52,3,,,,,,,,,,,,,,,,,,,AFNE19.jpg,AFSA05.jpg,AFSA12.jpg,AFNE06.jpg,AFNE06.jpg,FN,3,num_4,16,num_4,0.933468600037,,,2017_Jun_06_1717,60.0103745384,MAFE4ImagesEEG,001,100588,
AFNE01.JPG,AFNE01.JPG,AFNE01.JPG,AFNE01.JPG,AFNE01.JPG,AFNE01.JPG,,,,,5,3,53,0,,,,,,,,,,,,,,,,,,,AFNE12.jpg,AFNE04.jpg,AFSA18.jpg,AFSA12.jpg,AFNE12.jpg,FN,3,num_8,16,num_8,0.633486657636,,,2017_Jun_06_1717,60.0103745384,MAFE4ImagesEEG,001,100588,
AFNE01.JPG,AFNE01.JPG,AFNE01.JPG,AFNE01.JPG,AFNE01.JPG,AFNE01.JPG,,,,,5,4,54,5,,,,,,,,,,,,,,,,,,,AFSA06.jpg,AFSA10.jpg,AFNE13.jpg,AFNE04.jpg,AFSA10.jpg,FS,4,num_6,32,num_4,0.866867599543,,,2017_Jun_06_1717,60.0103745384,MAFE4ImagesEEG,001,100588,
AFNE01.JPG,AFNE01.JPG,AFNE01.JPG,AFNE01.JPG,AFNE01.JPG,AFNE01.JPG,,,,,5,5,55,1,,,,,,,,,,,,,,,,,,,AFSA16.jpg,AFSA20.jpg,AFNE10.jpg,AFNE05.jpg,AFNE10.jpg,FN,3,num_2,32,num_8,0.816824796842,,,2017_Jun_06_1717,60.0103745384,MAFE4ImagesEEG,001,100588,
AFNE01.JPG,AFNE01.JPG,AFNE01.JPG,AFNE01.JPG,AFNE01.JPG,AFNE01.JPG,,,,,5,6,56,9,,,,,,,,,,,,,,,,,,,AFSA17.jpg,AFNE10.jpg,AFNE15.jpg,AFSA03.jpg,AFSA03.jpg,FS,4,num_4,16,num_4,0.783484524814,,,2017_Jun_06_1717,60.0103745384,MAFE4ImagesEEG,001,100588,
AFNE01.JPG,AFNE01.JPG,AFNE01.JPG,AFNE01.JPG,AFNE01.JPG,AFNE01.JPG,,,,,5,7,57,7,,,,,,,,,,,,,,,,,,,AFNE07.jpg,AFNE01.jpg,AFSA14.jpg,AFSA18.jpg,AFSA14.jpg,FS,4,num_2,32,num_6,0.733440439217,,,2017_Jun_06_1717,60.0103745384,MAFE4ImagesEEG,001,100588,
AFNE01.JPG,AFNE01.JPG,AFNE01.JPG,AFNE01.JPG,AFNE01.JPG,AFNE01.JPG,,,,,5,8,58,4,,,,,,,,,,,,,,,,,,,AFSA16.jpg,AFNE05.jpg,AFSA20.jpg,AFNE11.jpg,AFNE11.jpg,FN,3,num_4,16,num_4,0.96676268545,,,2017_Jun_06_1717,60.0103745384,MAFE4ImagesEEG,001,100588,
AFNE01.JPG,AFNE01.JPG,AFNE01.JPG,AFNE01.JPG,AFNE01.JPG,AFNE01.JPG,,,,,5,9,59,8,,,,,,,,,,,,,,,,,,,AFSA05.jpg,AFNE20.jpg,AFSA01.jpg,AFNE13.jpg,AFSA01.jpg,FS,4,num_2,16,num_2,0.650118946563,,,2017_Jun_06_1717,60.0103745384,MAFE4ImagesEEG,001,100588,
,,,,,,,,,,,,,,,,,,,,,,,,,,,,,,,,,,,,,,,,,,,space,7.64956663223,2017_Jun_06_1717,60.0103745384,MAFE4ImagesEEG,001,100588,
AFNE01.JPG,AFNE01.JPG,AFNE01.JPG,AFNE01.JPG,AFNE01.JPG,AFNE01.JPG,,,,,,,,,0,0,0,5,,,,,,,,,,,,,,,AMSA04.jpg,AMNE06.jpg,AMNE03.jpg,AMSA10.jpg,AMSA04.jpg,MS,2,num_8,16,num_8,0.78348677,,,2017_Jun_06_1717,60.0103745384,MAFE4ImagesEEG,001,100588,
AFNE01.JPG,AFNE01.JPG,AFNE01.JPG,AFNE01.JPG,AFNE01.JPG,AFNE01.JPG,,,,,,,,,0,1,1,3,,,,,,,,,,,,,,,AMSA06.jpg,AMNE11.jpg,AMNE09.jpg,AMSA10.jpg,AMNE09.jpg,MN,1,num_2,16,num_2,0.983395615593,,,2017_Jun_06_1717,60.0103745384,MAFE4ImagesEEG,001,100588,
AFNE01.JPG,AFNE01.JPG,AFNE01.JPG,AFNE01.JPG,AFNE01.JPG,AFNE01.JPG,,,,,,,,,0,2,2,8,,,,,,,,,,,,,,,AMNE17.jpg,AMSA10.jpg,AMNE09.jpg,AMSA06.jpg,AMNE09.jpg,MN,1,num_2,16,num_2,0.516770046437,,,2017_Jun_06_1717,60.0103745384,MAFE4ImagesEEG,001,100588,
AFNE01.JPG,AFNE01.JPG,AFNE01.JPG,AFNE01.JPG,AFNE01.JPG,AFNE01.JPG,,,,,,,,,0,3,3,1,,,,,,,,,,,,,,,AMNE11.jpg,AMNE08.jpg,AMSA19.jpg,AMSA13.jpg,AMSA19.jpg,MS,2,num_2,16,num_2,0.866575084627,,,2017_Jun_06_1717,60.0103745384,MAFE4ImagesEEG,001,100588,
AFNE01.JPG,AFNE01.JPG,AFNE01.JPG,AFNE01.JPG,AFNE01.JPG,AFNE01.JPG,,,,,,,,,0,4,4,6,,,,,,,,,,,,,,,AMSA10.jpg,AMNE13.jpg,AMSA06.jpg,AMNE19.jpg,AMSA10.jpg,MS,2,num_8,16,num_8,0.616827747552,,,2017_Jun_06_1717,60.0103745384,MAFE4ImagesEEG,001,100588,
AFNE01.JPG,AFNE01.JPG,AFNE01.JPG,AFNE01.JPG,AFNE01.JPG,AFNE01.JPG,,,,,,,,,0,5,5,4,,,,,,,,,,,,,,,AMSA12.jpg,AMNE12.jpg,AMNE09.jpg,AMSA02.jpg,AMSA12.jpg,MS,2,num_8,16,num_8,0.800240619108,,,2017_Jun_06_1717,60.0103745384,MAFE4ImagesEEG,001,100588,
AFNE01.JPG,AFNE01.JPG,AFNE01.JPG,AFNE01.JPG,AFNE01.JPG,AFNE01.JPG,,,,,,,,,0,6,6,7,,,,,,,,,,,,,,,AMNE18.jpg,AMNE08.jpg,AMSA19.jpg,AMSA01.jpg,AMSA01.jpg,MS,2,num_4,16,num_4,0.383496520342,,,2017_Jun_06_1717,60.0103745384,MAFE4ImagesEEG,001,100588,
AFNE01.JPG,AFNE01.JPG,AFNE01.JPG,AFNE01.JPG,AFNE01.JPG,AFNE01.JPG,,,,,,,,,0,7,7,0,,,,,,,,,,,,,,,AMSA20.jpg,AMNE11.jpg,AMSA12.jpg,AMNE04.jpg,AMSA12.jpg,MS,2,num_2,32,num_8,0.850128504448,,,2017_Jun_06_1717,60.0103745384,MAFE4ImagesEEG,001,100588,
AFNE01.JPG,AFNE01.JPG,AFNE01.JPG,AFNE01.JPG,AFNE01.JPG,AFNE01.JPG,,,,,,,,,0,8,8,2,,,,,,,,,,,,,,,AMSA10.jpg,AMNE03.jpg,AMNE01.jpg,AMSA20.jpg,AMSA10.jpg,MS,2,num_8,16,num_8,0.600144461263,,,2017_Jun_06_1717,60.0103745384,MAFE4ImagesEEG,001,100588,
AFNE01.JPG,AFNE01.JPG,AFNE01.JPG,AFNE01.JPG,AFNE01.JPG,AFNE01.JPG,,,,,,,,,0,9,9,9,,,,,,,,,,,,,,,AMSA20.jpg,AMNE02.jpg,AMNE05.jpg,AMSA16.jpg,AMSA16.jpg,MS,2,num_4,16,num_4,1.30009933305,,,2017_Jun_06_1717,60.0103745384,MAFE4ImagesEEG,001,100588,
AFNE01.JPG,AFNE01.JPG,AFNE01.JPG,AFNE01.JPG,AFNE01.JPG,AFNE01.JPG,,,,,,,,,1,0,10,8,,,,,,,,,,,,,,,AMNE20.jpg,AMSA01.jpg,AMNE19.jpg,AMSA03.jpg,AMNE19.jpg,MN,1,num_2,32,num_8,0.750124687562,,,2017_Jun_06_1717,60.0103745384,MAFE4ImagesEEG,001,100588,
AFNE01.JPG,AFNE01.JPG,AFNE01.JPG,AFNE01.JPG,AFNE01.JPG,AFNE01.JPG,,,,,,,,,1,1,11,0,,,,,,,,,,,,,,,AMNE18.jpg,AMNE02.jpg,AMSA03.jpg,AMSA06.jpg,AMNE18.jpg,MN,1,num_8,16,num_8,0.566792963305,,,2017_Jun_06_1717,60.0103745384,MAFE4ImagesEEG,001,100588,
AFNE01.JPG,AFNE01.JPG,AFNE01.JPG,AFNE01.JPG,AFNE01.JPG,AFNE01.JPG,,,,,,,,,1,2,12,6,,,,,,,,,,,,,,,AMSA02.jpg,AMNE04.jpg,AMNE17.jpg,AMSA07.jpg,AMSA02.jpg,MS,2,num_8,32,num_4,1.00014240853,,,2017_Jun_06_1717,60.0103745384,MAFE4ImagesEEG,001,100588,
AFNE01.JPG,AFNE01.JPG,AFNE01.JPG,AFNE01.JPG,AFNE01.JPG,AFNE01.JPG,,,,,,,,,1,3,13,3,,,,,,,,,,,,,,,AMSA15.jpg,AMSA06.jpg,AMNE14.jpg,AMNE19.jpg,AMNE19.jpg,MN,1,num_4,16,num_4,1.10010517063,,,2017_Jun_06_1717,60.0103745384,MAFE4ImagesEEG,001,100588,
AFNE01.JPG,AFNE01.JPG,AFNE01.JPG,AFNE01.JPG,AFNE01.JPG,AFNE01.JPG,,,,,,,,,1,4,14,9,,,,,,,,,,,,,,,AMNE15.jpg,AMSA15.jpg,AMSA19.jpg,AMNE10.jpg,AMSA19.jpg,MS,2,num_2,32,num_8,0.683551591588,,,2017_Jun_06_1717,60.0103745384,MAFE4ImagesEEG,001,100588,
AFNE01.JPG,AFNE01.JPG,AFNE01.JPG,AFNE01.JPG,AFNE01.JPG,AFNE01.JPG,,,,,,,,,1,5,15,5,,,,,,,,,,,,,,,AMSA13.jpg,AMNE04.jpg,AMNE07.jpg,AMSA01.jpg,AMNE04.jpg,MN,1,num_6,16,num_6,0.666790044634,,,2017_Jun_06_1717,60.0103745384,MAFE4ImagesEEG,001,100588,
AFNE01.JPG,AFNE01.JPG,AFNE01.JPG,AFNE01.JPG,AFNE01.JPG,AFNE01.JPG,,,,,,,,,1,6,16,7,,,,,,,,,,,,,,,AMSA05.jpg,AMSA06.jpg,AMNE10.jpg,AMNE08.jpg,AMNE10.jpg,MN,1,num_2,16,num_2,0.733494323445,,,2017_Jun_06_1717,60.0103745384,MAFE4ImagesEEG,001,100588,
AFNE01.JPG,AFNE01.JPG,AFNE01.JPG,AFNE01.JPG,AFNE01.JPG,AFNE01.JPG,,,,,,,,,1,7,17,2,,,,,,,,,,,,,,,AMNE02.jpg,AMSA02.jpg,AMSA06.jpg,AMNE05.jpg,AMNE05.jpg,MN,1,num_4,16,num_4,0.616848595673,,,2017_Jun_06_1717,60.0103745384,MAFE4ImagesEEG,001,100588,
AFNE01.JPG,AFNE01.JPG,AFNE01.JPG,AFNE01.JPG,AFNE01.JPG,AFNE01.JPG,,,,,,,,,1,8,18,4,,,,,,,,,,,,,,,AMSA03.jpg,AMNE05.jpg,AMSA16.jpg,AMNE08.jpg,AMSA03.jpg,MS,2,num_8,32,num_2,0.766783918487,,,2017_Jun_06_1717,60.0103745384,MAFE4ImagesEEG,001,100588,
AFNE01.JPG,AFNE01.JPG,AFNE01.JPG,AFNE01.JPG,AFNE01.JPG,AFNE01.JPG,,,,,,,,,1,9,19,1,,,,,,,,,,,,,,,AMSA16.jpg,AMNE18.jpg,AMNE15.jpg,AMSA20.jpg,AMSA16.jpg,MS,2,num_8,32,num_2,0.60010789684,,,2017_Jun_06_1717,60.0103745384,MAFE4ImagesEEG,001,100588,
AFNE01.JPG,AFNE01.JPG,AFNE01.JPG,AFNE01.JPG,AFNE01.JPG,AFNE01.JPG,,,,,,,,,2,0,20,7,,,,,,,,,,,,,,,AMNE07.jpg,AMSA13.jpg,AMSA16.jpg,AMNE13.jpg,AMNE13.jpg,MN,1,num_4,32,num_6,0.533528706757,,,2017_Jun_06_1717,60.0103745384,MAFE4ImagesEEG,001,100588,
AFNE01.JPG,AFNE01.JPG,AFNE01.JPG,AFNE01.JPG,AFNE01.JPG,AFNE01.JPG,,,,,,,,,2,1,21,2,,,,,,,,,,,,,,,AMNE17.jpg,AMSA12.jpg,AMNE14.jpg,AMSA19.jpg,AMNE17.jpg,MN,1,num_8,32,num_4,0.583530134056,,,2017_Jun_06_1717,60.0103745384,MAFE4ImagesEEG,001,100588,
AFNE01.JPG,AFNE01.JPG,AFNE01.JPG,AFNE01.JPG,AFNE01.JPG,AFNE01.JPG,,,,,,,,,2,2,22,8,,,,,,,,,,,,,,,AMSA09.jpg,AMNE06.jpg,AMNE09.jpg,AMSA13.jpg,AMNE09.jpg,MN,1,num_2,32,num_8,0.616756222444,,,2017_Jun_06_1717,60.0103745384,MAFE4ImagesEEG,001,100588,
AFNE01.JPG,AFNE01.JPG,AFNE01.JPG,AFNE01.JPG,AFNE01.JPG,AFNE01.JPG,,,,,,,,,2,3,23,9,,,,,,,,,,,,,,,AMSA19.jpg,AMNE05.jpg,AMNE13.jpg,AMSA12.jpg,AMSA12.jpg,MS,2,num_4,32,num_8,1.06675559701,,,2017_Jun_06_1717,60.0103745384,MAFE4ImagesEEG,001,100588,
AFNE01.JPG,AFNE01.JPG,AFNE01.JPG,AFNE01.JPG,AFNE01.JPG,AFNE01.JPG,,,,,,,,,2,4,24,4,,,,,,,,,,,,,,,AMSA18.jpg,AMNE20.jpg,AMNE06.jpg,AMSA06.jpg,AMSA06.jpg,MS,2,num_4,16,num_4,0.883435740136,,,2017_Jun_06_1717,60.0103745384,MAFE4ImagesEEG,001,100588,
AFNE01.JPG,AFNE01.JPG,AFNE01.JPG,AFNE01.JPG,AFNE01.JPG,AFNE01.JPG,,,,,,,,,2,5,25,1,,,,,,,,,,,,,,,AMNE18.jpg,AMSA12.jpg,AMSA15.jpg,AMNE09.jpg,AMNE18.jpg,MN,1,num_8,16,num_8,0.683498669416,,,2017_Jun_06_1717,60.0103745384,MAFE4ImagesEEG,001,100588,
AFNE01.JPG,AFNE01.JPG,AFNE01.JPG,AFNE01.JPG,AFNE01.JPG,AFNE01.JPG,,,,,,,,,2,6,26,5,,,,,,,,,,,,,,,AMSA03.jpg,AMNE20.jpg,AMSA20.jpg,AMNE11.jpg,AMNE11.jpg,MN,1,num_4,32,num_2,0.649798847968,,,2017_Jun_06_1717,60.0103745384,MAFE4ImagesEEG,001,100588,
AFNE01.JPG,AFNE01.JPG,AFNE01.JPG,AFNE01.JPG,AFNE01.JPG,AFNE01.JPG,,,,,,,,,2,7,27,3,,,,,,,,,,,,,,,AMNE19.jpg,AMSA20.jpg,AMSA03.jpg,AMNE03.jpg,AMSA03.jpg,MS,2,num_2,16,num_2,0.650139153004,,,2017_Jun_06_1717,60.0103745384,MAFE4ImagesEEG,001,100588,
AFNE01.JPG,AFNE01.JPG,AFNE01.JPG,AFNE01.JPG,AFNE01.JPG,AFNE01.JPG,,,,,,,,,2,8,28,6,,,,,,,,,,,,,,,AMSA01.jpg,AMNE11.jpg,AMSA12.jpg,AMNE18.jpg,AMSA01.jpg,MS,2,num_8,32,num_2,1.15008767415,,,2017_Jun_06_1717,60.0103745384,MAFE4ImagesEEG,001,100588,
AFNE01.JPG,AFNE01.JPG,AFNE01.JPG,AFNE01.JPG,AFNE01.JPG,AFNE01.JPG,,,,,,,,,2,9,29,0,,,,,,,,,,,,,,,AMNE12.jpg,AMNE10.jpg,AMSA19.jpg,AMSA07.jpg,AMSA07.jpg,MS,2,num_4,32,num_2,0.816836022539,,,2017_Jun_06_1717,60.0103745384,MAFE4ImagesEEG,001,100588,
AFNE01.JPG,AFNE01.JPG,AFNE01.JPG,AFNE01.JPG,AFNE01.JPG,AFNE01.JPG,,,,,,,,,3,0,30,6,,,,,,,,,,,,,,,AMSA20.jpg,AMSA17.jpg,AMNE01.jpg,AMNE08.jpg,AMNE08.jpg,MN,1,num_4,32,num_8,0.66679228982,,,2017_Jun_06_1717,60.0103745384,MAFE4ImagesEEG,001,100588,
AFNE01.JPG,AFNE01.JPG,AFNE01.JPG,AFNE01.JPG,AFNE01.JPG,AFNE01.JPG,,,,,,,,,3,1,31,2,,,,,,,,,,,,,,,AMNE06.jpg,AMNE03.jpg,AMSA18.jpg,AMSA15.jpg,AMSA18.jpg,MS,2,num_2,16,num_2,0.56680611358,,,2017_Jun_06_1717,60.0103745384,MAFE4ImagesEEG,001,100588,
AFNE01.JPG,AFNE01.JPG,AFNE01.JPG,AFNE01.JPG,AFNE01.JPG,AFNE01.JPG,,,,,,,,,3,2,32,4,,,,,,,,,,,,,,,AMSA05.jpg,AMNE15.jpg,AMNE01.jpg,AMSA01.jpg,AMSA05.jpg,MS,2,num_8,16,num_8,0.833476329688,,,2017_Jun_06_1717,60.0103745384,MAFE4ImagesEEG,001,100588,
AFNE01.JPG,AFNE01.JPG,AFNE01.JPG,AFNE01.JPG,AFNE01.JPG,AFNE01.JPG,,,,,,,,,3,3,33,8,,,,,,,,,,,,,,,AMNE16.jpg,AMSA03.jpg,AMNE13.jpg,AMSA13.jpg,AMSA13.jpg,MS,2,num_4,16,num_4,0.816756799817,,,2017_Jun_06_1717,60.0103745384,MAFE4ImagesEEG,001,100588,
AFNE01.JPG,AFNE01.JPG,AFNE01.JPG,AFNE01.JPG,AFNE01.JPG,AFNE01.JPG,,,,,,,,,3,4,34,0,,,,,,,,,,,,,,,AMSA08.jpg,AMNE01.jpg,AMSA12.jpg,AMNE05.jpg,AMNE05.jpg,MN,1,num_4,16,num_4,0.716802056413,,,2017_Jun_06_1717,60.0103745384,MAFE4ImagesEEG,001,100588,
AFNE01.JPG,AFNE01.JPG,AFNE01.JPG,AFNE01.JPG,AFNE01.JPG,AFNE01.JPG,,,,,,,,,3,5,35,1,,,,,,,,,,,,,,,AMNE11.jpg,AMNE16.jpg,AMSA14.jpg,AMSA02.jpg,AMSA14.jpg,MS,2,num_2,32,num_8,0.666768234456,,,2017_Jun_06_1717,60.0103745384,MAFE4ImagesEEG,001,100588,
AFNE01.JPG,AFNE01.JPG,AFNE01.JPG,AFNE01.JPG,AFNE01.JPG,AFNE01.JPG,,,,,,,,,3,6,36,5,,,,,,,,,,,,,,,AMSA09.jpg,AMNE11.jpg,AMSA10.jpg,AMNE03.jpg,AMNE11.jpg,MN,1,num_6,32,num_4,0.96681079641,,,2017_Jun_06_1717,60.0103745384,MAFE4ImagesEEG,001,100588,
AFNE01.JPG,AFNE01.JPG,AFNE01.JPG,AFNE01.JPG,AFNE01.JPG,AFNE01.JPG,,,,,,,,,3,7,37,3,,,,,,,,,,,,,,,AMSA16.jpg,AMNE18.jpg,AMNE07.jpg,AMSA12.jpg,AMNE18.jpg,MN,1,num_6,32,num_2,0.900093367323,,,2017_Jun_06_1717,60.0103745384,MAFE4ImagesEEG,001,100588,
AFNE01.JPG,AFNE01.JPG,AFNE01.JPG,AFNE01.JPG,AFNE01.JPG,AFNE01.JPG,,,,,,,,,3,8,38,7,,,,,,,,,,,,,,,AMSA06.jpg,AMNE16.jpg,AMNE04.jpg,AMSA13.jpg,AMNE16.jpg,MN,1,num_6,32,num_4,0.783152879681,,,2017_Jun_06_1717,60.0103745384,MAFE4ImagesEEG,001,100588,
AFNE01.JPG,AFNE01.JPG,AFNE01.JPG,AFNE01.JPG,AFNE01.JPG,AFNE01.JPG,,,,,,,,,3,9,39,9,,,,,,,,,,,,,,,AMSA04.jpg,AMNE04.jpg,AMSA11.jpg,AMNE08.jpg,AMSA04.jpg,MS,2,num_8,16,num_8,0.416797662154,,,2017_Jun_06_1717,60.0103745384,MAFE4ImagesEEG,001,100588,
AFNE01.JPG,AFNE01.JPG,AFNE01.JPG,AFNE01.JPG,AFNE01.JPG,AFNE01.JPG,,,,,,,,,4,0,40,6,,,,,,,,,,,,,,,AMSA07.jpg,AMNE01.jpg,AMNE07.jpg,AMSA02.jpg,AMNE01.jpg,MN,1,num_6,32,num_4,0.766858009389,,,2017_Jun_06_1717,60.0103745384,MAFE4ImagesEEG,001,100588,
AFNE01.JPG,AFNE01.JPG,AFNE01.JPG,AFNE01.JPG,AFNE01.JPG,AFNE01.JPG,,,,,,,,,4,1,41,1,,,,,,,,,,,,,,,AMSA17.jpg,AMNE05.jpg,AMNE03.jpg,AMSA08.jpg,AMSA08.jpg,MS,2,num_4,16,num_4,0.866797678173,,,2017_Jun_06_1717,60.0103745384,MAFE4ImagesEEG,001,100588,
AFNE01.JPG,AFNE01.JPG,AFNE01.JPG,AFNE01.JPG,AFNE01.JPG,AFNE01.JPG,,,,,,,,,4,2,42,4,,,,,,,,,,,,,,,AMSA18.jpg,AMNE12.jpg,AMSA11.jpg,AMNE09.jpg,AMSA18.jpg,MS,2,num_8,16,num_8,0.63347928063,,,2017_Jun_06_1717,60.0103745384,MAFE4ImagesEEG,001,100588,
AFNE01.JPG,AFNE01.JPG,AFNE01.JPG,AFNE01.JPG,AFNE01.JPG,AFNE01.JPG,,,,,,,,,4,3,43,3,,,,,,,,,,,,,,,AMSA05.jpg,AMNE15.jpg,AMNE11.jpg,AMSA04.jpg,AMSA04.jpg,MS,2,num_4,16,num_4,0.466829239158,,,2017_Jun_06_1717,60.0103745384,MAFE4ImagesEEG,001,100588,
AFNE01.JPG,AFNE01.JPG,AFNE01.JPG,AFNE01.JPG,AFNE01.JPG,AFNE01.JPG,,,,,,,,,4,4,44,8,,,,,,,,,,,,,,,AMSA11.jpg,AMNE14.jpg,AMSA05.jpg,AMNE11.jpg,AMSA05.jpg,MS,2,num_2,32,num_8,0.666868305067,,,2017_Jun_06_1717,60.0103745384,MAFE4ImagesEEG,001,100588,
AFNE01.JPG,AFNE01.JPG,AFNE01.JPG,AFNE01.JPG,AFNE01.JPG,AFNE01.JPG,,,,,,,,,4,5,45,0,,,,,,,,,,,,,,,AMNE09.jpg,AMNE01.jpg,AMSA05.jpg,AMSA09.jpg,AMNE01.jpg,MN,1,num_6,16,num_6,0.400195202325,,,2017_Jun_06_1717,60.0103745384,MAFE4ImagesEEG,001,100588,
AFNE01.JPG,AFNE01.JPG,AFNE01.JPG,AFNE01.JPG,AFNE01.JPG,AFNE01.JPG,,,,,,,,,4,6,46,9,,,,,,,,,,,,,,,AMNE15.jpg,AMSA06.jpg,AMNE19.jpg,AMSA16.jpg,AMSA06.jpg,MS,2,num_6,32,num_2,1.15015759552,,,2017_Jun_06_1717,60.0103745384,MAFE4ImagesEEG,001,100588,
AFNE01.JPG,AFNE01.JPG,AFNE01.JPG,AFNE01.JPG,AFNE01.JPG,AFNE01.JPG,,,,,,,,,4,7,47,2,,,,,,,,,,,,,,,AMNE02.jpg,AMSA09.jpg,AMSA04.jpg,AMNE11.jpg,AMNE02.jpg,MN,1,num_8,16,num_8,0.550163882086,,,2017_Jun_06_1717,60.0103745384,MAFE4ImagesEEG,001,100588,
AFNE01.JPG,AFNE01.JPG,AFNE01.JPG,AFNE01.JPG,AFNE01.JPG,AFNE01.JPG,,,,,,,,,4,8,48,5,,,,,,,,,,,,,,,AMSA10.jpg,AMSA04.jpg,AMNE02.jpg,AMNE17.jpg,AMSA10.jpg,MS,2,num_8,32,num_4,0.766786805121,,,2017_Jun_06_1717,60.0103745384,MAFE4ImagesEEG,001,100588,
AFNE01.JPG,AFNE01.JPG,AFNE01.JPG,AFNE01.JPG,AFNE01.JPG,AFNE01.JPG,,,,,,,,,4,9,49,7,,,,,,,,,,,,,,,AMNE20.jpg,AMNE14.jpg,AMSA15.jpg,AMSA11.jpg,AMSA15.jpg,MS,2,num_2,32,num_8,0.716875185026,,,2017_Jun_06_1717,60.0103745384,MAFE4ImagesEEG,001,100588,
AFNE01.JPG,AFNE01.JPG,AFNE01.JPG,AFNE01.JPG,AFNE01.JPG,AFNE01.JPG,,,,,,,,,5,0,50,1,,,,,,,,,,,,,,,AMNE01.jpg,AMSA09.jpg,AMSA07.jpg,AMNE19.jpg,AMNE19.jpg,MN,1,num_4,16,num_4,0.766786484281,,,2017_Jun_06_1717,60.0103745384,MAFE4ImagesEEG,001,100588,
AFNE01.JPG,AFNE01.JPG,AFNE01.JPG,AFNE01.JPG,AFNE01.JPG,AFNE01.JPG,,,,,,,,,5,1,51,3,,,,,,,,,,,,,,,AMSA16.jpg,AMSA18.jpg,AMNE07.jpg,AMNE09.jpg,AMSA18.jpg,MS,2,num_6,16,num_6,0.650208112085,,,2017_Jun_06_1717,60.0103745384,MAFE4ImagesEEG,001,100588,
AFNE01.JPG,AFNE01.JPG,AFNE01.JPG,AFNE01.JPG,AFNE01.JPG,AFNE01.JPG,,,,,,,,,5,2,52,9,,,,,,,,,,,,,,,AMNE15.jpg,AMSA02.jpg,AMNE05.jpg,AMSA11.jpg,AMNE15.jpg,MN,1,num_8,16,num_8,0.783453413052,,,2017_Jun_06_1717,60.0103745384,MAFE4ImagesEEG,001,100588,
AFNE01.JPG,AFNE01.JPG,AFNE01.JPG,AFNE01.JPG,AFNE01.JPG,AFNE01.JPG,,,,,,,,,5,3,53,7,,,,,,,,,,,,,,,AMSA03.jpg,AMNE09.jpg,AMNE18.jpg,AMSA08.jpg,AMNE09.jpg,MN,1,num_6,16,num_6,0.983479008079,,,2017_Jun_06_1717,60.0103745384,MAFE4ImagesEEG,001,100588,
AFNE01.JPG,AFNE01.JPG,AFNE01.JPG,AFNE01.JPG,AFNE01.JPG,AFNE01.JPG,,,,,,,,,5,4,54,8,,,,,,,,,,,,,,,AMNE16.jpg,AMSA14.jpg,AMSA19.jpg,AMNE01.jpg,AMSA14.jpg,MS,2,num_6,16,num_6,0.450110029895,,,2017_Jun_06_1717,60.0103745384,MAFE4ImagesEEG,001,100588,
AFNE01.JPG,AFNE01.JPG,AFNE01.JPG,AFNE01.JPG,AFNE01.JPG,AFNE01.JPG,,,,,,,,,5,5,55,6,,,,,,,,,,,,,,,AMSA17.jpg,AMSA10.jpg,AMNE01.jpg,AMNE10.jpg,AMSA10.jpg,MS,2,num_6,32,num_4,0.53347899206,,,2017_Jun_06_1717,60.0103745384,MAFE4ImagesEEG,001,100588,
AFNE01.JPG,AFNE01.JPG,AFNE01.JPG,AFNE01.JPG,AFNE01.JPG,AFNE01.JPG,,,,,,,,,5,6,56,4,,,,,,,,,,,,,,,AMNE02.jpg,AMSA02.jpg,AMNE16.jpg,AMSA07.jpg,AMSA07.jpg,MS,2,num_4,16,num_4,0.550170938484,,,2017_Jun_06_1717,60.0103745384,MAFE4ImagesEEG,001,100588,
AFNE01.JPG,AFNE01.JPG,AFNE01.JPG,AFNE01.JPG,AFNE01.JPG,AFNE01.JPG,,,,,,,,,5,7,57,5,,,,,,,,,,,,,,,AMNE01.jpg,AMSA04.jpg,AMNE09.jpg,AMSA11.jpg,AMNE09.jpg,MN,1,num_2,32,num_6,0.616754618939,,,2017_Jun_06_1717,60.0103745384,MAFE4ImagesEEG,001,100588,
AFNE01.JPG,AFNE01.JPG,AFNE01.JPG,AFNE01.JPG,AFNE01.JPG,AFNE01.JPG,,,,,,,,,5,8,58,0,,,,,,,,,,,,,,,AMSA11.jpg,AMNE20.jpg,AMSA06.jpg,AMNE02.jpg,AMNE02.jpg,MN,1,num_4,16,num_4,0.983441802207,,,2017_Jun_06_1717,60.0103745384,MAFE4ImagesEEG,001,100588,
AFNE01.JPG,AFNE01.JPG,AFNE01.JPG,AFNE01.JPG,AFNE01.JPG,AFNE01.JPG,,,,,,,,,5,9,59,2,,,,,,,,,,,,,,,AMSA10.jpg,AMNE18.jpg,AMNE12.jpg,AMSA04.jpg,AMSA04.jpg,MS,2,num_4,16,num_4,0.516781913815,,,2017_Jun_06_1717,60.0103745384,MAFE4ImagesEEG,001,100588,
,,,,,,,,,,,,,,,,,,,,,,,,,,,,,,,,,,,,,,,,,,,space,3.41664370708,2017_Jun_06_1717,60.0103745384,MAFE4ImagesEEG,001,100588,
AFNE01.JPG,AFNE01.JPG,AFNE01.JPG,AFNE01.JPG,AFNE01.JPG,AFNE01.JPG,,,,,,,,,,,,,0,0,0,4,,,,,,,,,,,AFNE15.jpg,AFSA07.jpg,AFSA04.jpg,AFNE13.jpg,AFNE13.jpg,FN,3,num_4,16,num_4,1.35015079589,,,2017_Jun_06_1717,60.0103745384,MAFE4ImagesEEG,001,100588,
AFNE01.JPG,AFNE01.JPG,AFNE01.JPG,AFNE01.JPG,AFNE01.JPG,AFNE01.JPG,,,,,,,,,,,,,0,1,1,8,,,,,,,,,,,AFSA09.jpg,AFNE01.jpg,AFSA07.jpg,AFNE15.jpg,AFNE15.jpg,FN,3,num_4,32,num_6,0.949974837946,,,2017_Jun_06_1717,60.0103745384,MAFE4ImagesEEG,001,100588,
AFNE01.JPG,AFNE01.JPG,AFNE01.JPG,AFNE01.JPG,AFNE01.JPG,AFNE01.JPG,,,,,,,,,,,,,0,2,2,7,,,,,,,,,,,AFNE02.jpg,AFSA01.jpg,AFNE17.jpg,AFSA20.jpg,AFSA20.jpg,FS,4,num_4,32,num_6,0.500262525631,,,2017_Jun_06_1717,60.0103745384,MAFE4ImagesEEG,001,100588,
AFNE01.JPG,AFNE01.JPG,AFNE01.JPG,AFNE01.JPG,AFNE01.JPG,AFNE01.JPG,,,,,,,,,,,,,0,3,3,5,,,,,,,,,,,AFNE20.jpg,AFSA14.jpg,AFNE19.jpg,AFSA02.jpg,AFSA14.jpg,FS,4,num_6,32,num_2,0.816861040425,,,2017_Jun_06_1717,60.0103745384,MAFE4ImagesEEG,001,100588,
AFNE01.JPG,AFNE01.JPG,AFNE01.JPG,AFNE01.JPG,AFNE01.JPG,AFNE01.JPG,,,,,,,,,,,,,0,4,4,1,,,,,,,,,,,AFNE10.jpg,AFSA20.jpg,AFSA07.jpg,AFNE14.jpg,AFNE10.jpg,FN,3,num_8,32,num_6,0.683582382509,,,2017_Jun_06_1717,60.0103745384,MAFE4ImagesEEG,001,100588,
AFNE01.JPG,AFNE01.JPG,AFNE01.JPG,AFNE01.JPG,AFNE01.JPG,AFNE01.JPG,,,,,,,,,,,,,0,5,5,6,,,,,,,,,,,AFNE12.jpg,AFSA13.jpg,AFNE17.jpg,AFSA05.jpg,AFNE17.jpg,FN,3,num_2,32,num_4,0.683558968361,,,2017_Jun_06_1717,60.0103745384,MAFE4ImagesEEG,001,100588,
AFNE01.JPG,AFNE01.JPG,AFNE01.JPG,AFNE01.JPG,AFNE01.JPG,AFNE01.JPG,,,,,,,,,,,,,0,6,6,0,,,,,,,,,,,AFSA17.jpg,AFSA02.jpg,AFNE02.jpg,AFNE10.jpg,AFSA02.jpg,FS,4,num_6,32,num_8,0.816762893926,,,2017_Jun_06_1717,60.0103745384,MAFE4ImagesEEG,001,100588,
AFNE01.JPG,AFNE01.JPG,AFNE01.JPG,AFNE01.JPG,AFNE01.JPG,AFNE01.JPG,,,,,,,,,,,,,0,7,7,9,,,,,,,,,,,AFNE09.jpg,AFSA15.jpg,AFNE02.jpg,AFSA01.jpg,AFNE09.jpg,FN,3,num_8,32,num_2,0.816778610228,,,2017_Jun_06_1717,60.0103745384,MAFE4ImagesEEG,001,100588,
AFNE01.JPG,AFNE01.JPG,AFNE01.JPG,AFNE01.JPG,AFNE01.JPG,AFNE01.JPG,,,,,,,,,,,,,0,8,8,3,,,,,,,,,,,AFSA05.jpg,AFNE05.jpg,AFSA09.jpg,AFNE20.jpg,AFNE05.jpg,FN,3,num_6,32,num_8,0.800152736483,,,2017_Jun_06_1717,60.0103745384,MAFE4ImagesEEG,001,100588,
AFNE01.JPG,AFNE01.JPG,AFNE01.JPG,AFNE01.JPG,AFNE01.JPG,AFNE01.JPG,,,,,,,,,,,,,0,9,9,2,,,,,,,,,,,AFSA15.jpg,AFNE06.jpg,AFSA09.jpg,AFNE04.jpg,AFSA09.jpg,FS,4,num_2,16,num_2,0.400220219977,,,2017_Jun_06_1717,60.0103745384,MAFE4ImagesEEG,001,100588,
AFNE01.JPG,AFNE01.JPG,AFNE01.JPG,AFNE01.JPG,AFNE01.JPG,AFNE01.JPG,,,,,,,,,,,,,1,0,10,9,,,,,,,,,,,AFSA05.jpg,AFNE17.jpg,AFNE11.jpg,AFSA15.jpg,AFSA15.jpg,FS,4,num_4,16,num_4,0.616967269452,,,2017_Jun_06_1717,60.0103745384,MAFE4ImagesEEG,001,100588,
AFNE01.JPG,AFNE01.JPG,AFNE01.JPG,AFNE01.JPG,AFNE01.JPG,AFNE01.JPG,,,,,,,,,,,,,1,1,11,3,,,,,,,,,,,AFNE06.jpg,AFSA05.jpg,AFNE08.jpg,AFSA06.jpg,AFNE08.jpg,FN,3,num_2,32,num_8,0.766827859916,,,2017_Jun_06_1717,60.0103745384,MAFE4ImagesEEG,001,100588,
AFNE01.JPG,AFNE01.JPG,AFNE01.JPG,AFNE01.JPG,AFNE01.JPG,AFNE01.JPG,,,,,,,,,,,,,1,2,12,4,,,,,,,,,,,AFNE12.jpg,AFSA12.jpg,AFNE16.jpg,AFSA15.jpg,AFSA12.jpg,FS,4,num_6,16,num_6,0.516675749095,,,2017_Jun_06_1717,60.0103745384,MAFE4ImagesEEG,001,100588,
AFNE01.JPG,AFNE01.JPG,AFNE01.JPG,AFNE01.JPG,AFNE01.JPG,AFNE01.JPG,,,,,,,,,,,,,1,3,13,2,,,,,,,,,,,AFSA09.jpg,AFNE03.jpg,AFNE14.jpg,AFSA19.jpg,AFNE03.jpg,FN,3,num_6,16,num_6,1.08329006005,,,2017_Jun_06_1717,60.0103745384,MAFE4ImagesEEG,001,100588,
AFNE01.JPG,AFNE01.JPG,AFNE01.JPG,AFNE01.JPG,AFNE01.JPG,AFNE01.JPG,,,,,,,,,,,,,1,4,14,8,,,,,,,,,,,AFNE08.jpg,AFSA11.jpg,AFNE06.jpg,AFSA06.jpg,AFNE06.jpg,FN,3,num_2,32,num_8,0.933444865281,,,2017_Jun_06_1717,60.0103745384,MAFE4ImagesEEG,001,100588,
AFNE01.JPG,AFNE01.JPG,AFNE01.JPG,AFNE01.JPG,AFNE01.JPG,AFNE01.JPG,,,,,,,,,,,,,1,5,15,0,,,,,,,,,,,AFNE19.jpg,AFSA20.jpg,AFSA08.jpg,AFNE10.jpg,AFNE10.jpg,FN,3,num_4,16,num_4,0.900142440572,,,2017_Jun_06_1717,60.0103745384,MAFE4ImagesEEG,001,100588,
AFNE01.JPG,AFNE01.JPG,AFNE01.JPG,AFNE01.JPG,AFNE01.JPG,AFNE01.JPG,,,,,,,,,,,,,1,6,16,1,,,,,,,,,,,AFSA08.jpg,AFNE15.jpg,AFSA05.jpg,AFNE16.jpg,AFSA05.jpg,FS,4,num_2,16,num_2,0.600185195217,,,2017_Jun_06_1717,60.0103745384,MAFE4ImagesEEG,001,100588,
AFNE01.JPG,AFNE01.JPG,AFNE01.JPG,AFNE01.JPG,AFNE01.JPG,AFNE01.JPG,,,,,,,,,,,,,1,7,17,6,,,,,,,,,,,AFSA11.jpg,AFNE13.jpg,AFNE15.jpg,AFSA18.jpg,AFSA11.jpg,FS,4,num_8,32,num_4,0.600184232928,,,2017_Jun_06_1717,60.0103745384,MAFE4ImagesEEG,001,100588,
AFNE01.JPG,AFNE01.JPG,AFNE01.JPG,AFNE01.JPG,AFNE01.JPG,AFNE01.JPG,,,,,,,,,,,,,1,8,18,5,,,,,,,,,,,AFNE15.jpg,AFSA10.jpg,AFSA13.jpg,AFNE20.jpg,AFSA13.jpg,FS,4,num_2,32,num_6,0.633547598263,,,2017_Jun_06_1717,60.0103745384,MAFE4ImagesEEG,001,100588,
AFNE01.JPG,AFNE01.JPG,AFNE01.JPG,AFNE01.JPG,AFNE01.JPG,AFNE01.JPG,,,,,,,,,,,,,1,9,19,7,,,,,,,,,,,AFNE14.jpg,AFNE05.jpg,AFSA15.jpg,AFSA09.jpg,AFNE05.jpg,FN,3,num_6,32,num_2,0.983484781347,,,2017_Jun_06_1717,60.0103745384,MAFE4ImagesEEG,001,100588,
AFNE01.JPG,AFNE01.JPG,AFNE01.JPG,AFNE01.JPG,AFNE01.JPG,AFNE01.JPG,,,,,,,,,,,,,2,0,20,5,,,,,,,,,,,AFNE15.jpg,AFSA12.jpg,AFSA01.jpg,AFNE09.jpg,AFSA12.jpg,FS,4,num_6,16,num_6,0.583152302541,,,2017_Jun_06_1717,60.0103745384,MAFE4ImagesEEG,001,100588,
AFNE01.JPG,AFNE01.JPG,AFNE01.JPG,AFNE01.JPG,AFNE01.JPG,AFNE01.JPG,,,,,,,,,,,,,2,1,21,7,,,,,,,,,,,AFNE06.jpg,AFSA11.jpg,AFSA10.jpg,AFNE01.jpg,AFNE01.jpg,FN,3,num_4,16,num_4,0.883486096514,,,2017_Jun_06_1717,60.0103745384,MAFE4ImagesEEG,001,100588,
AFNE01.JPG,AFNE01.JPG,AFNE01.JPG,AFNE01.JPG,AFNE01.JPG,AFNE01.JPG,,,,,,,,,,,,,2,2,22,6,,,,,,,,,,,AFNE10.jpg,AFNE05.jpg,AFSA15.jpg,AFSA08.jpg,AFSA08.jpg,FS,4,num_4,16,num_4,0.450102973497,,,2017_Jun_06_1717,60.0103745384,MAFE4ImagesEEG,001,100588,
AFNE01.JPG,AFNE01.JPG,AFNE01.JPG,AFNE01.JPG,AFNE01.JPG,AFNE01.JPG,,,,,,,,,,,,,2,3,23,9,,,,,,,,,,,AFSA15.jpg,AFNE20.jpg,AFSA20.jpg,AFNE06.jpg,AFSA15.jpg,FS,4,num_8,32,num_2,0.416884582723,,,2017_Jun_06_1717,60.0103745384,MAFE4ImagesEEG,001,100588,
AFNE01.JPG,AFNE01.JPG,AFNE01.JPG,AFNE01.JPG,AFNE01.JPG,AFNE01.JPG,,,,,,,,,,,,,2,4,24,3,,,,,,,,,,,AFNE13.jpg,AFSA02.jpg,AFNE20.jpg,AFSA10.jpg,AFSA10.jpg,FS,4,num_4,32,num_2,0.583468872821,,,2017_Jun_06_1717,60.0103745384,MAFE4ImagesEEG,001,100588,
AFNE01.JPG,AFNE01.JPG,AFNE01.JPG,AFNE01.JPG,AFNE01.JPG,AFNE01.JPG,,,,,,,,,,,,,2,5,25,8,,,,,,,,,,,AFNE05.jpg,AFSA13.jpg,AFNE19.jpg,AFSA14.jpg,AFSA14.jpg,FS,4,num_4,32,num_6,0.333735006629,,,2017_Jun_06_1717,60.0103745384,MAFE4ImagesEEG,001,100588,
AFNE01.JPG,AFNE01.JPG,AFNE01.JPG,AFNE01.JPG,AFNE01.JPG,AFNE01.JPG,,,,,,,,,,,,,2,6,26,2,,,,,,,,,,,AFNE14.jpg,AFSA16.jpg,AFSA04.jpg,AFNE18.jpg,AFSA16.jpg,FS,4,num_6,32,num_4,0.500145776197,,,2017_Jun_06_1717,60.0103745384,MAFE4ImagesEEG,001,100588,
AFNE01.JPG,AFNE01.JPG,AFNE01.JPG,AFNE01.JPG,AFNE01.JPG,AFNE01.JPG,,,,,,,,,,,,,2,7,27,1,,,,,,,,,,,AFSA10.jpg,AFNE11.jpg,AFSA02.jpg,AFNE08.jpg,AFNE11.jpg,FN,3,num_6,32,num_2,0.450008676155,,,2017_Jun_06_1717,60.0103745384,MAFE4ImagesEEG,001,100588,
AFNE01.JPG,AFNE01.JPG,AFNE01.JPG,AFNE01.JPG,AFNE01.JPG,AFNE01.JPG,,,,,,,,,,,,,2,8,28,4,,,,,,,,,,,AFSA15.jpg,AFNE01.jpg,AFNE20.jpg,AFSA02.jpg,AFNE01.jpg,FN,3,num_6,16,num_6,0.816808118252,,,2017_Jun_06_1717,60.0103745384,MAFE4ImagesEEG,001,100588,
AFNE01.JPG,AFNE01.JPG,AFNE01.JPG,AFNE01.JPG,AFNE01.JPG,AFNE01.JPG,,,,,,,,,,,,,2,9,29,0,,,,,,,,,,,AFNE09.jpg,AFNE03.jpg,AFSA20.jpg,AFSA13.jpg,AFNE03.jpg,FN,3,num_6,32,num_8,0.550131487194,,,2017_Jun_06_1717,60.0103745384,MAFE4ImagesEEG,001,100588,
AFNE01.JPG,AFNE01.JPG,AFNE01.JPG,AFNE01.JPG,AFNE01.JPG,AFNE01.JPG,,,,,,,,,,,,,3,0,30,5,,,,,,,,,,,AFNE15.jpg,AFSA06.jpg,AFNE13.jpg,AFSA07.jpg,AFSA06.jpg,FS,4,num_6,32,num_2,1.0834372798,,,2017_Jun_06_1717,60.0103745384,MAFE4ImagesEEG,001,100588,
AFNE01.JPG,AFNE01.JPG,AFNE01.JPG,AFNE01.JPG,AFNE01.JPG,AFNE01.JPG,,,,,,,,,,,,,3,1,31,2,,,,,,,,,,,AFSA02.jpg,AFNE13.jpg,AFNE12.jpg,AFSA15.jpg,AFSA02.jpg,FS,4,num_8,32,num_4,0.483517015819,,,2017_Jun_06_1717,60.0103745384,MAFE4ImagesEEG,001,100588,
AFNE01.JPG,AFNE01.JPG,AFNE01.JPG,AFNE01.JPG,AFNE01.JPG,AFNE01.JPG,,,,,,,,,,,,,3,2,32,4,,,,,,,,,,,AFNE20.jpg,AFNE05.jpg,AFSA11.jpg,AFSA01.jpg,AFNE20.jpg,FN,3,num_8,16,num_8,1.31677588401,,,2017_Jun_06_1717,60.0103745384,MAFE4ImagesEEG,001,100588,
AFNE01.JPG,AFNE01.JPG,AFNE01.JPG,AFNE01.JPG,AFNE01.JPG,AFNE01.JPG,,,,,,,,,,,,,3,3,33,1,,,,,,,,,,,AFSA18.jpg,AFSA05.jpg,AFNE08.jpg,AFNE19.jpg,AFNE08.jpg,FN,3,num_2,32,num_6,0.650152944727,,,2017_Jun_06_1717,60.0103745384,MAFE4ImagesEEG,001,100588,
AFNE01.JPG,AFNE01.JPG,AFNE01.JPG,AFNE01.JPG,AFNE01.JPG,AFNE01.JPG,,,,,,,,,,,,,3,4,34,7,,,,,,,,,,,AFSA02.jpg,AFSA05.jpg,AFNE08.jpg,AFNE11.jpg,AFSA02.jpg,FS,4,num_8,16,num_8,0.500147379935,,,2017_Jun_06_1717,60.0103745384,MAFE4ImagesEEG,001,100588,
AFNE01.JPG,AFNE01.JPG,AFNE01.JPG,AFNE01.JPG,AFNE01.JPG,AFNE01.JPG,,,,,,,,,,,,,3,5,35,3,,,,,,,,,,,AFNE09.jpg,AFSA12.jpg,AFSA17.jpg,AFNE01.jpg,AFSA12.jpg,FS,4,num_6,16,num_6,0.616782202385,,,2017_Jun_06_1717,60.0103745384,MAFE4ImagesEEG,001,100588,
AFNE01.JPG,AFNE01.JPG,AFNE01.JPG,AFNE01.JPG,AFNE01.JPG,AFNE01.JPG,,,,,,,,,,,,,3,6,36,6,,,,,,,,,,,AFNE17.jpg,AFSA02.jpg,AFNE15.jpg,AFSA06.jpg,AFSA02.jpg,FS,4,num_6,32,num_4,1.41669374239,,,2017_Jun_06_1717,60.0103745384,MAFE4ImagesEEG,001,100588,
AFNE01.JPG,AFNE01.JPG,AFNE01.JPG,AFNE01.JPG,AFNE01.JPG,AFNE01.JPG,,,,,,,,,,,,,3,7,37,0,,,,,,,,,,,AFSA05.jpg,AFNE17.jpg,AFSA18.jpg,AFNE11.jpg,AFSA05.jpg,FS,4,num_8,16,num_8,0.400123677449,,,2017_Jun_06_1717,60.0103745384,MAFE4ImagesEEG,001,100588,
AFNE01.JPG,AFNE01.JPG,AFNE01.JPG,AFNE01.JPG,AFNE01.JPG,AFNE01.JPG,,,,,,,,,,,,,3,8,38,8,,,,,,,,,,,AFNE01.jpg,AFSA13.jpg,AFNE12.jpg,AFSA03.jpg,AFNE01.jpg,FN,3,num_8,16,num_8,1.00015876628,,,2017_Jun_06_1717,60.0103745384,MAFE4ImagesEEG,001,100588,
AFNE01.JPG,AFNE01.JPG,AFNE01.JPG,AFNE01.JPG,AFNE01.JPG,AFNE01.JPG,,,,,,,,,,,,,3,9,39,9,,,,,,,,,,,AFSA02.jpg,AFNE13.jpg,AFSA01.jpg,AFNE20.jpg,AFNE20.jpg,FN,3,num_4,32,num_6,0.650466949213,,,2017_Jun_06_1717,60.0103745384,MAFE4ImagesEEG,001,100588,
AFNE01.JPG,AFNE01.JPG,AFNE01.JPG,AFNE01.JPG,AFNE01.JPG,AFNE01.JPG,,,,,,,,,,,,,4,0,40,0,,,,,,,,,,,AFNE09.jpg,AFNE03.jpg,AFSA06.jpg,AFSA14.jpg,AFNE03.jpg,FN,3,num_6,16,num_6,0.416790926596,,,2017_Jun_06_1717,60.0103745384,MAFE4ImagesEEG,001,100588,
AFNE01.JPG,AFNE01.JPG,AFNE01.JPG,AFNE01.JPG,AFNE01.JPG,AFNE01.JPG,,,,,,,,,,,,,4,1,41,1,,,,,,,,,,,AFNE11.jpg,AFSA02.jpg,AFNE15.jpg,AFSA20.jpg,AFNE15.jpg,FN,3,num_2,16,num_2,0.533424786991,,,2017_Jun_06_1717,60.0103745384,MAFE4ImagesEEG,001,100588,
AFNE01.JPG,AFNE01.JPG,AFNE01.JPG,AFNE01.JPG,AFNE01.JPG,AFNE01.JPG,,,,,,,,,,,,,4,2,42,7,,,,,,,,,,,AFSA14.jpg,AFNE01.jpg,AFNE06.jpg,AFSA03.jpg,AFSA14.jpg,FS,4,num_8,16,num_8,0.733536340296,,,2017_Jun_06_1717,60.0103745384,MAFE4ImagesEEG,001,100588,
AFNE01.JPG,AFNE01.JPG,AFNE01.JPG,AFNE01.JPG,AFNE01.JPG,AFNE01.JPG,,,,,,,,,,,,,4,3,43,8,,,,,,,,,,,AFNE10.jpg,AFSA15.jpg,AFSA11.jpg,AFNE14.jpg,AFNE10.jpg,FN,3,num_8,32,num_6,0.366784688318,,,2017_Jun_06_1717,60.0103745384,MAFE4ImagesEEG,001,100588,
AFNE01.JPG,AFNE01.JPG,AFNE01.JPG,AFNE01.JPG,AFNE01.JPG,AFNE01.JPG,,,,,,,,,,,,,4,4,44,2,,,,,,,,,,,AFNE09.jpg,AFSA07.jpg,AFNE16.jpg,AFSA12.jpg,AFNE16.jpg,FN,3,num_2,16,num_2,0.716618272476,,,2017_Jun_06_1717,60.0103745384,MAFE4ImagesEEG,001,100588,
AFNE01.JPG,AFNE01.JPG,AFNE01.JPG,AFNE01.JPG,AFNE01.JPG,AFNE01.JPG,,,,,,,,,,,,,4,5,45,5,,,,,,,,,,,AFSA03.jpg,AFNE20.jpg,AFSA18.jpg,AFNE05.jpg,AFNE20.jpg,FN,3,num_6,32,num_4,0.633421547478,,,2017_Jun_06_1717,60.0103745384,MAFE4ImagesEEG,001,100588,
AFNE01.JPG,AFNE01.JPG,AFNE01.JPG,AFNE01.JPG,AFNE01.JPG,AFNE01.JPG,,,,,,,,,,,,,4,6,46,9,,,,,,,,,,,AFSA07.jpg,AFNE11.jpg,AFNE17.jpg,AFSA09.jpg,AFSA09.jpg,FS,4,num_4,32,num_6,0.316818221705,,,2017_Jun_06_1717,60.0103745384,MAFE4ImagesEEG,001,100588,
AFNE01.JPG,AFNE01.JPG,AFNE01.JPG,AFNE01.JPG,AFNE01.JPG,AFNE01.JPG,,,,,,,,,,,,,4,7,47,3,,,,,,,,,,,AFSA04.jpg,AFNE01.jpg,AFNE08.jpg,AFSA11.jpg,AFSA11.jpg,FS,4,num_4,32,num_2,0.333491564961,,,2017_Jun_06_1717,60.0103745384,MAFE4ImagesEEG,001,100588,
AFNE01.JPG,AFNE01.JPG,AFNE01.JPG,AFNE01.JPG,AFNE01.JPG,AFNE01.JPG,,,,,,,,,,,,,4,8,48,6,,,,,,,,,,,AFNE15.jpg,AFSA18.jpg,AFNE14.jpg,AFSA19.jpg,AFSA19.jpg,FS,4,num_4,32,num_8,0.583479136461,,,2017_Jun_06_1717,60.0103745384,MAFE4ImagesEEG,001,100588,
AFNE01.JPG,AFNE01.JPG,AFNE01.JPG,AFNE01.JPG,AFNE01.JPG,AFNE01.JPG,,,,,,,,,,,,,4,9,49,4,,,,,,,,,,,AFSA18.jpg,AFNE20.jpg,AFSA06.jpg,AFNE07.jpg,AFSA06.jpg,FS,4,num_2,32,num_8,0.533485406777,,,2017_Jun_06_1717,60.0103745384,MAFE4ImagesEEG,001,100588,
AFNE01.JPG,AFNE01.JPG,AFNE01.JPG,AFNE01.JPG,AFNE01.JPG,AFNE01.JPG,,,,,,,,,,,,,5,0,50,1,,,,,,,,,,,AFSA14.jpg,AFNE07.jpg,AFNE10.jpg,AFSA07.jpg,AFSA14.jpg,FS,4,num_8,32,num_6,0.66677080025,,,2017_Jun_06_1717,60.0103745384,MAFE4ImagesEEG,001,100588,
AFNE01.JPG,AFNE01.JPG,AFNE01.JPG,AFNE01.JPG,AFNE01.JPG,AFNE01.JPG,,,,,,,,,,,,,5,1,51,0,,,,,,,,,,,AFNE17.jpg,AFSA08.jpg,AFNE20.jpg,AFSA11.jpg,AFSA08.jpg,FS,4,num_6,16,num_6,0.483458320377,,,2017_Jun_06_1717,60.0103745384,MAFE4ImagesEEG,001,100588,
AFNE01.JPG,AFNE01.JPG,AFNE01.JPG,AFNE01.JPG,AFNE01.JPG,AFNE01.JPG,,,,,,,,,,,,,5,2,52,8,,,,,,,,,,,AFSA14.jpg,AFNE06.jpg,AFNE05.jpg,AFSA04.jpg,AFNE05.jpg,FN,3,num_2,32,num_6,0.766764353262,,,2017_Jun_06_1717,60.0103745384,MAFE4ImagesEEG,001,100588,
AFNE01.JPG,AFNE01.JPG,AFNE01.JPG,AFNE01.JPG,AFNE01.JPG,AFNE01.JPG,,,,,,,,,,,,,5,3,53,2,,,,,,,,,,,AFNE12.jpg,AFSA06.jpg,AFSA14.jpg,AFNE03.jpg,AFNE03.jpg,FN,3,num_4,32,num_6,0.450155895669,,,2017_Jun_06_1717,60.0103745384,MAFE4ImagesEEG,001,100588,
AFNE01.JPG,AFNE01.JPG,AFNE01.JPG,AFNE01.JPG,AFNE01.JPG,AFNE01.JPG,,,,,,,,,,,,,5,4,54,6,,,,,,,,,,,AFSA02.jpg,AFNE14.jpg,AFSA20.jpg,AFNE02.jpg,AFSA02.jpg,FS,4,num_8,32,num_2,0.383561310126,,,2017_Jun_06_1717,60.0103745384,MAFE4ImagesEEG,001,100588,
AFNE01.JPG,AFNE01.JPG,AFNE01.JPG,AFNE01.JPG,AFNE01.JPG,AFNE01.JPG,,,,,,,,,,,,,5,5,55,7,,,,,,,,,,,AFSA11.jpg,AFNE14.jpg,AFNE07.jpg,AFSA02.jpg,AFSA11.jpg,FS,4,num_8,16,num_8,0.46670831996,,,2017_Jun_06_1717,60.0103745384,MAFE4ImagesEEG,001,100588,
AFNE01.JPG,AFNE01.JPG,AFNE01.JPG,AFNE01.JPG,AFNE01.JPG,AFNE01.JPG,,,,,,,,,,,,,5,6,56,9,,,,,,,,,,,AFNE09.jpg,AFSA07.jpg,AFSA04.jpg,AFNE10.jpg,AFSA07.jpg,FS,4,num_6,16,num_6,0.500151228858,,,2017_Jun_06_1717,60.0103745384,MAFE4ImagesEEG,001,100588,
AFNE01.JPG,AFNE01.JPG,AFNE01.JPG,AFNE01.JPG,AFNE01.JPG,AFNE01.JPG,,,,,,,,,,,,,5,7,57,4,,,,,,,,,,,AFNE20.jpg,AFSA16.jpg,AFNE03.jpg,AFSA10.jpg,AFSA16.jpg,FS,4,num_6,16,num_6,0.533461030573,,,2017_Jun_06_1717,60.0103745384,MAFE4ImagesEEG,001,100588,
AFNE01.JPG,AFNE01.JPG,AFNE01.JPG,AFNE01.JPG,AFNE01.JPG,AFNE01.JPG,,,,,,,,,,,,,5,8,58,5,,,,,,,,,,,AFSA13.jpg,AFNE06.jpg,AFNE12.jpg,AFSA11.jpg,AFSA13.jpg,FS,4,num_8,16,num_8,0.366916833213,,,2017_Jun_06_1717,60.0103745384,MAFE4ImagesEEG,001,100588,
AFNE01.JPG,AFNE01.JPG,AFNE01.JPG,AFNE01.JPG,AFNE01.JPG,AFNE01.JPG,,,,,,,,,,,,,5,9,59,3,,,,,,,,,,,AFNE07.jpg,AFNE05.jpg,AFSA15.jpg,AFSA05.jpg,AFSA05.jpg,FS,4,num_4,16,num_4,0.416909279767,,,2017_Jun_06_1717,60.0103745384,MAFE4ImagesEEG,001,100588,
,,,,,,,,,,,,,,,,,,,,,,,,,,,,,,,,,,,,,,,,,,,space,7.06598774577,2017_Jun_06_1717,60.0103745384,MAFE4ImagesEEG,001,100588,
AFNE01.JPG,AFNE01.JPG,AFNE01.JPG,AFNE01.JPG,AFNE01.JPG,AFNE01.JPG,,,,,,,,,,,,,,,,,0,0,0,8,,,,,,,AMSA03.jpg,AMNE19.jpg,AMNE14.jpg,AMSA07.jpg,AMNE19.jpg,MN,1,num_6,16,num_6,0.699986624997,,,2017_Jun_06_1717,60.0103745384,MAFE4ImagesEEG,001,100588,
AFNE01.JPG,AFNE01.JPG,AFNE01.JPG,AFNE01.JPG,AFNE01.JPG,AFNE01.JPG,,,,,,,,,,,,,,,,,0,1,1,3,,,,,,,AMNE10.jpg,AMSA11.jpg,AMSA05.jpg,AMNE16.jpg,AMSA05.jpg,MS,2,num_2,32,num_6,1.15009601368,,,2017_Jun_06_1717,60.0103745384,MAFE4ImagesEEG,001,100588,
AFNE01.JPG,AFNE01.JPG,AFNE01.JPG,AFNE01.JPG,AFNE01.JPG,AFNE01.JPG,,,,,,,,,,,,,,,,,0,2,2,5,,,,,,,AMNE08.jpg,AMSA20.jpg,AMNE10.jpg,AMSA12.jpg,AMNE10.jpg,MN,1,num_2,32,num_8,0.600020014215,,,2017_Jun_06_1717,60.0103745384,MAFE4ImagesEEG,001,100588,
AFNE01.JPG,AFNE01.JPG,AFNE01.JPG,AFNE01.JPG,AFNE01.JPG,AFNE01.JPG,,,,,,,,,,,,,,,,,0,3,3,6,,,,,,,AMSA05.jpg,AMNE14.jpg,AMSA11.jpg,AMNE13.jpg,AMSA11.jpg,MS,2,num_2,16,num_2,0.950124944327,,,2017_Jun_06_1717,60.0103745384,MAFE4ImagesEEG,001,100588,
AFNE01.JPG,AFNE01.JPG,AFNE01.JPG,AFNE01.JPG,AFNE01.JPG,AFNE01.JPG,,,,,,,,,,,,,,,,,0,4,4,1,,,,,,,AMNE09.jpg,AMSA18.jpg,AMNE07.jpg,AMSA17.jpg,AMSA18.jpg,MS,2,num_6,16,num_6,0.400114696473,,,2017_Jun_06_1717,60.0103745384,MAFE4ImagesEEG,001,100588,
AFNE01.JPG,AFNE01.JPG,AFNE01.JPG,AFNE01.JPG,AFNE01.JPG,AFNE01.JPG,,,,,,,,,,,,,,,,,0,5,5,7,,,,,,,AMSA09.jpg,AMNE02.jpg,AMNE18.jpg,AMSA15.jpg,AMNE18.jpg,MN,1,num_2,32,num_6,0.600094746565,,,2017_Jun_06_1717,60.0103745384,MAFE4ImagesEEG,001,100588,
AFNE01.JPG,AFNE01.JPG,AFNE01.JPG,AFNE01.JPG,AFNE01.JPG,AFNE01.JPG,,,,,,,,,,,,,,,,,0,6,6,2,,,,,,,AMNE14.jpg,AMNE04.jpg,AMSA04.jpg,AMSA01.jpg,AMSA04.jpg,MS,2,num_2,16,num_2,0.516815591371,,,2017_Jun_06_1717,60.0103745384,MAFE4ImagesEEG,001,100588,
AFNE01.JPG,AFNE01.JPG,AFNE01.JPG,AFNE01.JPG,AFNE01.JPG,AFNE01.JPG,,,,,,,,,,,,,,,,,0,7,7,9,,,,,,,AMNE15.jpg,AMSA04.jpg,AMSA10.jpg,AMNE05.jpg,AMSA10.jpg,MS,2,num_2,16,num_2,0.550144637702,,,2017_Jun_06_1717,60.0103745384,MAFE4ImagesEEG,001,100588,
AFNE01.JPG,AFNE01.JPG,AFNE01.JPG,AFNE01.JPG,AFNE01.JPG,AFNE01.JPG,,,,,,,,,,,,,,,,,0,8,8,4,,,,,,,AMNE12.jpg,AMSA12.jpg,AMNE18.jpg,AMSA03.jpg,AMNE12.jpg,MN,1,num_8,16,num_8,0.80012579402,,,2017_Jun_06_1717,60.0103745384,MAFE4ImagesEEG,001,100588,
AFNE01.JPG,AFNE01.JPG,AFNE01.JPG,AFNE01.JPG,AFNE01.JPG,AFNE01.JPG,,,,,,,,,,,,,,,,,0,9,9,0,,,,,,,AMNE17.jpg,AMSA03.jpg,AMNE10.jpg,AMSA15.jpg,AMNE10.jpg,MN,1,num_2,32,num_6,0.61677033524,,,2017_Jun_06_1717,60.0103745384,MAFE4ImagesEEG,001,100588,
AFNE01.JPG,AFNE01.JPG,AFNE01.JPG,AFNE01.JPG,AFNE01.JPG,AFNE01.JPG,,,,,,,,,,,,,,,,,1,0,10,8,,,,,,,AMSA04.jpg,AMNE01.jpg,AMSA19.jpg,AMNE04.jpg,AMSA04.jpg,MS,2,num_8,16,num_8,0.766784239328,,,2017_Jun_06_1717,60.0103745384,MAFE4ImagesEEG,001,100588,
AFNE01.JPG,AFNE01.JPG,AFNE01.JPG,AFNE01.JPG,AFNE01.JPG,AFNE01.JPG,,,,,,,,,,,,,,,,,1,1,11,5,,,,,,,AMSA02.jpg,AMNE04.jpg,AMNE19.jpg,AMSA04.jpg,AMSA02.jpg,MS,2,num_8,16,num_8,0.750192042906,,,2017_Jun_06_1717,60.0103745384,MAFE4ImagesEEG,001,100588,
AFNE01.JPG,AFNE01.JPG,AFNE01.JPG,AFNE01.JPG,AFNE01.JPG,AFNE01.JPG,,,,,,,,,,,,,,,,,1,2,12,0,,,,,,,AMNE12.jpg,AMNE19.jpg,AMSA04.jpg,AMSA02.jpg,AMNE12.jpg,MN,1,num_8,32,num_2,0.716855299193,,,2017_Jun_06_1717,60.0103745384,MAFE4ImagesEEG,001,100588,
AFNE01.JPG,AFNE01.JPG,AFNE01.JPG,AFNE01.JPG,AFNE01.JPG,AFNE01.JPG,,,,,,,,,,,,,,,,,1,3,13,4,,,,,,,AMNE15.jpg,AMSA19.jpg,AMNE03.jpg,AMSA07.jpg,AMNE15.jpg,MN,1,num_8,16,num_8,0.2667282701,,,2017_Jun_06_1717,60.0103745384,MAFE4ImagesEEG,001,100588,
AFNE01.JPG,AFNE01.JPG,AFNE01.JPG,AFNE01.JPG,AFNE01.JPG,AFNE01.JPG,,,,,,,,,,,,,,,,,1,4,14,6,,,,,,,AMNE03.jpg,AMSA18.jpg,AMSA02.jpg,AMNE02.jpg,AMSA02.jpg,MS,2,num_2,32,num_6,0.283582190285,,,2017_Jun_06_1717,60.0103745384,MAFE4ImagesEEG,001,100588,
AFNE01.JPG,AFNE01.JPG,AFNE01.JPG,AFNE01.JPG,AFNE01.JPG,AFNE01.JPG,,,,,,,,,,,,,,,,,1,5,15,9,,,,,,,AMNE18.jpg,AMSA01.jpg,AMSA02.jpg,AMNE02.jpg,AMNE02.jpg,MN,1,num_4,16,num_4,0.666813779389,,,2017_Jun_06_1717,60.0103745384,MAFE4ImagesEEG,001,100588,
AFNE01.JPG,AFNE01.JPG,AFNE01.JPG,AFNE01.JPG,AFNE01.JPG,AFNE01.JPG,,,,,,,,,,,,,,,,,1,6,16,2,,,,,,,AMSA04.jpg,AMNE19.jpg,AMNE13.jpg,AMSA09.jpg,AMSA04.jpg,MS,2,num_8,16,num_8,0.833443935029,,,2017_Jun_06_1717,60.0103745384,MAFE4ImagesEEG,001,100588,
AFNE01.JPG,AFNE01.JPG,AFNE01.JPG,AFNE01.JPG,AFNE01.JPG,AFNE01.JPG,,,,,,,,,,,,,,,,,1,7,17,3,,,,,,,AMSA09.jpg,AMNE17.jpg,AMSA08.jpg,AMNE19.jpg,AMNE19.jpg,MN,1,num_4,16,num_4,0.600121688563,,,2017_Jun_06_1717,60.0103745384,MAFE4ImagesEEG,001,100588,
AFNE01.JPG,AFNE01.JPG,AFNE01.JPG,AFNE01.JPG,AFNE01.JPG,AFNE01.JPG,,,,,,,,,,,,,,,,,1,8,18,7,,,,,,,AMNE02.jpg,AMSA02.jpg,AMSA05.jpg,AMNE15.jpg,AMNE02.jpg,MN,1,num_8,32,num_6,0.433479344705,,,2017_Jun_06_1717,60.0103745384,MAFE4ImagesEEG,001,100588,
AFNE01.JPG,AFNE01.JPG,AFNE01.JPG,AFNE01.JPG,AFNE01.JPG,AFNE01.JPG,,,,,,,,,,,,,,,,,1,9,19,1,,,,,,,AMNE02.jpg,AMSA03.jpg,AMSA19.jpg,AMNE03.jpg,AMSA19.jpg,MS,2,num_2,32,num_8,0.716776717687,,,2017_Jun_06_1717,60.0103745384,MAFE4ImagesEEG,001,100588,
AFNE01.JPG,AFNE01.JPG,AFNE01.JPG,AFNE01.JPG,AFNE01.JPG,AFNE01.JPG,,,,,,,,,,,,,,,,,2,0,20,7,,,,,,,AMNE06.jpg,AMSA13.jpg,AMSA06.jpg,AMNE16.jpg,AMNE06.jpg,MN,1,num_8,16,num_8,0.333482905058,,,2017_Jun_06_1717,60.0103745384,MAFE4ImagesEEG,001,100588,
AFNE01.JPG,AFNE01.JPG,AFNE01.JPG,AFNE01.JPG,AFNE01.JPG,AFNE01.JPG,,,,,,,,,,,,,,,,,2,1,21,1,,,,,,,AMNE06.jpg,AMSA13.jpg,AMSA10.jpg,AMNE10.jpg,AMSA13.jpg,MS,2,num_6,32,num_2,0.916759333806,,,2017_Jun_06_1717,60.0103745384,MAFE4ImagesEEG,001,100588,
AFNE01.JPG,AFNE01.JPG,AFNE01.JPG,AFNE01.JPG,AFNE01.JPG,AFNE01.JPG,,,,,,,,,,,,,,,,,2,2,22,8,,,,,,,AMNE20.jpg,AMSA17.jpg,AMSA03.jpg,AMNE06.jpg,AMNE06.jpg,MN,1,num_4,32,num_8,1.01675898093,,,2017_Jun_06_1717,60.0103745384,MAFE4ImagesEEG,001,100588,
AFNE01.JPG,AFNE01.JPG,AFNE01.JPG,AFNE01.JPG,AFNE01.JPG,AFNE01.JPG,,,,,,,,,,,,,,,,,2,3,23,5,,,,,,,AMSA08.jpg,AMSA03.jpg,AMNE06.jpg,AMNE20.jpg,AMSA03.jpg,MS,2,num_6,16,num_6,0.650149416877,,,2017_Jun_06_1717,60.0103745384,MAFE4ImagesEEG,001,100588,
AFNE01.JPG,AFNE01.JPG,AFNE01.JPG,AFNE01.JPG,AFNE01.JPG,AFNE01.JPG,,,,,,,,,,,,,,,,,2,4,24,3,,,,,,,AMNE11.jpg,AMSA11.jpg,AMNE07.jpg,AMSA07.jpg,AMSA11.jpg,MS,2,num_6,16,num_6,0.633580313763,,,2017_Jun_06_1717,60.0103745384,MAFE4ImagesEEG,001,100588,
AFNE01.JPG,AFNE01.JPG,AFNE01.JPG,AFNE01.JPG,AFNE01.JPG,AFNE01.JPG,,,,,,,,,,,,,,,,,2,5,25,6,,,,,,,AMNE03.jpg,AMSA07.jpg,AMNE12.jpg,AMSA09.jpg,AMSA09.jpg,MS,2,num_4,32,num_6,0.600114632398,,,2017_Jun_06_1717,60.0103745384,MAFE4ImagesEEG,001,100588,
AFNE01.JPG,AFNE01.JPG,AFNE01.JPG,AFNE01.JPG,AFNE01.JPG,AFNE01.JPG,,,,,,,,,,,,,,,,,2,6,26,0,,,,,,,AMSA14.jpg,AMNE17.jpg,AMNE15.jpg,AMSA04.jpg,AMNE17.jpg,MN,1,num_6,32,num_8,0.66677593207,,,2017_Jun_06_1717,60.0103745384,MAFE4ImagesEEG,001,100588,
AFNE01.JPG,AFNE01.JPG,AFNE01.JPG,AFNE01.JPG,AFNE01.JPG,AFNE01.JPG,,,,,,,,,,,,,,,,,2,7,27,2,,,,,,,AMNE03.jpg,AMSA04.jpg,AMNE13.jpg,AMSA05.jpg,AMNE03.jpg,MN,1,num_8,32,num_6,0.600183591479,,,2017_Jun_06_1717,60.0103745384,MAFE4ImagesEEG,001,100588,
AFNE01.JPG,AFNE01.JPG,AFNE01.JPG,AFNE01.JPG,AFNE01.JPG,AFNE01.JPG,,,,,,,,,,,,,,,,,2,8,28,9,,,,,,,AMNE09.jpg,AMNE06.jpg,AMSA19.jpg,AMSA10.jpg,AMSA10.jpg,MS,2,num_4,32,num_2,1.03345926641,,,2017_Jun_06_1717,60.0103745384,MAFE4ImagesEEG,001,100588,
AFNE01.JPG,AFNE01.JPG,AFNE01.JPG,AFNE01.JPG,AFNE01.JPG,AFNE01.JPG,,,,,,,,,,,,,,,,,2,9,29,4,,,,,,,AMSA14.jpg,AMNE08.jpg,AMNE12.jpg,AMSA15.jpg,AMSA14.jpg,MS,2,num_8,32,num_4,1.09994448,,,2017_Jun_06_1717,60.0103745384,MAFE4ImagesEEG,001,100588,
AFNE01.JPG,AFNE01.JPG,AFNE01.JPG,AFNE01.JPG,AFNE01.JPG,AFNE01.JPG,,,,,,,,,,,,,,,,,3,0,30,5,,,,,,,AMSA20.jpg,AMNE03.jpg,AMSA07.jpg,AMNE20.jpg,AMNE20.jpg,MN,1,num_4,32,num_8,0.900111970259,,,2017_Jun_06_1717,60.0103745384,MAFE4ImagesEEG,001,100588,
AFNE01.JPG,AFNE01.JPG,AFNE01.JPG,AFNE01.JPG,AFNE01.JPG,AFNE01.JPG,,,,,,,,,,,,,,,,,3,1,31,6,,,,,,,AMSA04.jpg,AMNE13.jpg,AMSA08.jpg,AMNE17.jpg,AMNE17.jpg,MN,1,num_4,16,num_4,0.716773189604,,,2017_Jun_06_1717,60.0103745384,MAFE4ImagesEEG,001,100588,
AFNE01.JPG,AFNE01.JPG,AFNE01.JPG,AFNE01.JPG,AFNE01.JPG,AFNE01.JPG,,,,,,,,,,,,,,,,,3,2,32,8,,,,,,,AMSA12.jpg,AMNE01.jpg,AMSA01.jpg,AMNE11.jpg,AMNE01.jpg,MN,1,num_6,32,num_2,0.466812560568,,,2017_Jun_06_1717,60.0103745384,MAFE4ImagesEEG,001,100588,
AFNE01.JPG,AFNE01.JPG,AFNE01.JPG,AFNE01.JPG,AFNE01.JPG,AFNE01.JPG,,,,,,,,,,,,,,,,,3,3,33,9,,,,,,,AMSA11.jpg,AMNE17.jpg,AMSA20.jpg,AMNE03.jpg,AMSA20.jpg,MS,2,num_2,32,num_4,1.03344098432,,,2017_Jun_06_1717,60.0103745384,MAFE4ImagesEEG,001,100588,
AFNE01.JPG,AFNE01.JPG,AFNE01.JPG,AFNE01.JPG,AFNE01.JPG,AFNE01.JPG,,,,,,,,,,,,,,,,,3,4,34,1,,,,,,,AMSA19.jpg,AMNE15.jpg,AMSA18.jpg,AMNE19.jpg,AMNE19.jpg,MN,1,num_4,32,num_8,0.616752694361,,,2017_Jun_06_1717,60.0103745384,MAFE4ImagesEEG,001,100588,
AFNE01.JPG,AFNE01.JPG,AFNE01.JPG,AFNE01.JPG,AFNE01.JPG,AFNE01.JPG,,,,,,,,,,,,,,,,,3,5,35,4,,,,,,,AMNE18.jpg,AMSA06.jpg,AMSA02.jpg,AMNE01.jpg,AMNE18.jpg,MN,1,num_8,32,num_6,0.850174370222,,,2017_Jun_06_1717,60.0103745384,MAFE4ImagesEEG,001,100588,
AFNE01.JPG,AFNE01.JPG,AFNE01.JPG,AFNE01.JPG,AFNE01.JPG,AFNE01.JPG,,,,,,,,,,,,,,,,,3,6,36,2,,,,,,,AMNE03.jpg,AMSA11.jpg,AMNE10.jpg,AMSA06.jpg,AMNE10.jpg,MN,1,num_2,32,num_4,0.833500385517,,,2017_Jun_06_1717,60.0103745384,MAFE4ImagesEEG,001,100588,
AFNE01.JPG,AFNE01.JPG,AFNE01.JPG,AFNE01.JPG,AFNE01.JPG,AFNE01.JPG,,,,,,,,,,,,,,,,,3,7,37,3,,,,,,,AMSA12.jpg,AMNE05.jpg,AMSA09.jpg,AMNE18.jpg,AMNE18.jpg,MN,1,num_4,16,num_4,0.683490650961,,,2017_Jun_06_1717,60.0103745384,MAFE4ImagesEEG,001,100588,
AFNE01.JPG,AFNE01.JPG,AFNE01.JPG,AFNE01.JPG,AFNE01.JPG,AFNE01.JPG,,,,,,,,,,,,,,,,,3,8,38,7,,,,,,,AMSA17.jpg,AMSA15.jpg,AMNE07.jpg,AMNE17.jpg,AMSA17.jpg,MS,2,num_8,32,num_6,0.883487700252,,,2017_Jun_06_1717,60.0103745384,MAFE4ImagesEEG,001,100588,
AFNE01.JPG,AFNE01.JPG,AFNE01.JPG,AFNE01.JPG,AFNE01.JPG,AFNE01.JPG,,,,,,,,,,,,,,,,,3,9,39,0,,,,,,,AMSA17.jpg,AMSA02.jpg,AMNE05.jpg,AMNE12.jpg,AMNE05.jpg,MN,1,num_2,32,num_8,0.733482776675,,,2017_Jun_06_1717,60.0103745384,MAFE4ImagesEEG,001,100588,
AFNE01.JPG,AFNE01.JPG,AFNE01.JPG,AFNE01.JPG,AFNE01.JPG,AFNE01.JPG,,,,,,,,,,,,,,,,,4,0,40,8,,,,,,,AMSA17.jpg,AMNE01.jpg,AMSA08.jpg,AMNE10.jpg,AMSA08.jpg,MS,2,num_2,16,num_2,0.76678103162,,,2017_Jun_06_1717,60.0103745384,MAFE4ImagesEEG,001,100588,
AFNE01.JPG,AFNE01.JPG,AFNE01.JPG,AFNE01.JPG,AFNE01.JPG,AFNE01.JPG,,,,,,,,,,,,,,,,,4,1,41,2,,,,,,,AMSA12.jpg,AMSA20.jpg,AMNE10.jpg,AMNE16.jpg,AMNE16.jpg,MN,1,num_4,16,num_4,0.733502662741,,,2017_Jun_06_1717,60.0103745384,MAFE4ImagesEEG,001,100588,
AFNE01.JPG,AFNE01.JPG,AFNE01.JPG,AFNE01.JPG,AFNE01.JPG,AFNE01.JPG,,,,,,,,,,,,,,,,,4,2,42,0,,,,,,,AMNE04.jpg,AMSA05.jpg,AMNE13.jpg,AMSA17.jpg,AMSA05.jpg,MS,2,num_6,16,num_6,0.566781416768,,,2017_Jun_06_1717,60.0103745384,MAFE4ImagesEEG,001,100588,
AFNE01.JPG,AFNE01.JPG,AFNE01.JPG,AFNE01.JPG,AFNE01.JPG,AFNE01.JPG,,,,,,,,,,,,,,,,,4,3,43,5,,,,,,,AMSA19.jpg,AMSA08.jpg,AMNE05.jpg,AMNE10.jpg,AMNE10.jpg,MN,1,num_4,16,num_4,0.683463067282,,,2017_Jun_06_1717,60.0103745384,MAFE4ImagesEEG,001,100588,
AFNE01.JPG,AFNE01.JPG,AFNE01.JPG,AFNE01.JPG,AFNE01.JPG,AFNE01.JPG,,,,,,,,,,,,,,,,,4,4,44,1,,,,,,,AMSA10.jpg,AMNE06.jpg,AMSA14.jpg,AMNE18.jpg,AMSA10.jpg,MS,2,num_8,16,num_8,0.700120373629,,,2017_Jun_06_1717,60.0103745384,MAFE4ImagesEEG,001,100588,
AFNE01.JPG,AFNE01.JPG,AFNE01.JPG,AFNE01.JPG,AFNE01.JPG,AFNE01.JPG,,,,,,,,,,,,,,,,,4,5,45,7,,,,,,,AMSA05.jpg,AMSA02.jpg,AMNE18.jpg,AMNE15.jpg,AMSA05.jpg,MS,2,num_8,16,num_8,0.716780887451,,,2017_Jun_06_1717,60.0103745384,MAFE4ImagesEEG,001,100588,
AFNE01.JPG,AFNE01.JPG,AFNE01.JPG,AFNE01.JPG,AFNE01.JPG,AFNE01.JPG,,,,,,,,,,,,,,,,,4,6,46,4,,,,,,,AMSA06.jpg,AMNE05.jpg,AMSA05.jpg,AMNE18.jpg,AMNE18.jpg,MN,1,num_4,16,num_4,0.783458224032,,,2017_Jun_06_1717,60.0103745384,MAFE4ImagesEEG,001,100588,
AFNE01.JPG,AFNE01.JPG,AFNE01.JPG,AFNE01.JPG,AFNE01.JPG,AFNE01.JPG,,,,,,,,,,,,,,,,,4,7,47,6,,,,,,,AMSA14.jpg,AMNE04.jpg,AMSA03.jpg,AMNE17.jpg,AMSA03.jpg,MS,2,num_2,32,num_6,0.766815992538,,,2017_Jun_06_1717,60.0103745384,MAFE4ImagesEEG,001,100588,
AFNE01.JPG,AFNE01.JPG,AFNE01.JPG,AFNE01.JPG,AFNE01.JPG,AFNE01.JPG,,,,,,,,,,,,,,,,,4,8,48,3,,,,,,,AMNE20.jpg,AMSA16.jpg,AMSA20.jpg,AMNE01.jpg,AMSA16.jpg,MS,2,num_6,16,num_6,0.750168628991,,,2017_Jun_06_1717,60.0103745384,MAFE4ImagesEEG,001,100588,
AFNE01.JPG,AFNE01.JPG,AFNE01.JPG,AFNE01.JPG,AFNE01.JPG,AFNE01.JPG,,,,,,,,,,,,,,,,,4,9,49,9,,,,,,,AMSA19.jpg,AMNE04.jpg,AMSA10.jpg,AMNE05.jpg,AMNE05.jpg,MN,1,num_4,32,num_8,0.883413288509,,,2017_Jun_06_1717,60.0103745384,MAFE4ImagesEEG,001,100588,
AFNE01.JPG,AFNE01.JPG,AFNE01.JPG,AFNE01.JPG,AFNE01.JPG,AFNE01.JPG,,,,,,,,,,,,,,,,,5,0,50,1,,,,,,,AMSA16.jpg,AMSA14.jpg,AMNE09.jpg,AMNE03.jpg,AMNE09.jpg,MN,1,num_2,32,num_4,0.73348085233,,,2017_Jun_06_1717,60.0103745384,MAFE4ImagesEEG,001,100588,
AFNE01.JPG,AFNE01.JPG,AFNE01.JPG,AFNE01.JPG,AFNE01.JPG,AFNE01.JPG,,,,,,,,,,,,,,,,,5,1,51,2,,,,,,,AMNE15.jpg,AMNE16.jpg,AMSA02.jpg,AMSA16.jpg,AMSA02.jpg,MS,2,num_2,32,num_4,0.76676082518,,,2017_Jun_06_1717,60.0103745384,MAFE4ImagesEEG,001,100588,
AFNE01.JPG,AFNE01.JPG,AFNE01.JPG,AFNE01.JPG,AFNE01.JPG,AFNE01.JPG,,,,,,,,,,,,,,,,,5,2,52,0,,,,,,,AMNE02.jpg,AMSA03.jpg,AMSA15.jpg,AMNE08.jpg,AMNE02.jpg,MN,1,num_8,32,num_2,1.34991120314,,,2017_Jun_06_1717,60.0103745384,MAFE4ImagesEEG,001,100588,
AFNE01.JPG,AFNE01.JPG,AFNE01.JPG,AFNE01.JPG,AFNE01.JPG,AFNE01.JPG,,,,,,,,,,,,,,,,,5,3,53,6,,,,,,,AMSA18.jpg,AMNE15.jpg,AMNE07.jpg,AMSA20.jpg,AMSA20.jpg,MS,2,num_4,16,num_4,0.416795096127,,,2017_Jun_06_1717,60.0103745384,MAFE4ImagesEEG,001,100588,
AFNE01.JPG,AFNE01.JPG,AFNE01.JPG,AFNE01.JPG,AFNE01.JPG,AFNE01.JPG,,,,,,,,,,,,,,,,,5,4,54,3,,,,,,,AMNE02.jpg,AMSA04.jpg,AMSA10.jpg,AMNE14.jpg,AMNE14.jpg,MN,1,num_4,16,num_4,0.533499839948,,,2017_Jun_06_1717,60.0103745384,MAFE4ImagesEEG,001,100588,
AFNE01.JPG,AFNE01.JPG,AFNE01.JPG,AFNE01.JPG,AFNE01.JPG,AFNE01.JPG,,,,,,,,,,,,,,,,,5,5,55,5,,,,,,,AMSA18.jpg,AMNE02.jpg,AMNE03.jpg,AMSA04.jpg,AMNE03.jpg,MN,1,num_2,32,num_6,0.566778529901,,,2017_Jun_06_1717,60.0103745384,MAFE4ImagesEEG,001,100588,
AFNE01.JPG,AFNE01.JPG,AFNE01.JPG,AFNE01.JPG,AFNE01.JPG,AFNE01.JPG,,,,,,,,,,,,,,,,,5,6,56,4,,,,,,,AMNE12.jpg,AMSA18.jpg,AMNE06.jpg,AMSA14.jpg,AMNE06.jpg,MN,1,num_2,32,num_8,0.750235984568,,,2017_Jun_06_1717,60.0103745384,MAFE4ImagesEEG,001,100588,
AFNE01.JPG,AFNE01.JPG,AFNE01.JPG,AFNE01.JPG,AFNE01.JPG,AFNE01.JPG,,,,,,,,,,,,,,,,,5,7,57,7,,,,,,,AMNE01.jpg,AMSA11.jpg,AMSA17.jpg,AMNE06.jpg,AMSA17.jpg,MS,2,num_2,32,num_6,0.866701135645,,,2017_Jun_06_1717,60.0103745384,MAFE4ImagesEEG,001,100588,
AFNE01.JPG,AFNE01.JPG,AFNE01.JPG,AFNE01.JPG,AFNE01.JPG,AFNE01.JPG,,,,,,,,,,,,,,,,,5,8,58,8,,,,,,,AMNE06.jpg,AMNE14.jpg,AMSA10.jpg,AMSA18.jpg,AMSA10.jpg,MS,2,num_2,32,num_4,0.550176070072,,,2017_Jun_06_1717,60.0103745384,MAFE4ImagesEEG,001,100588,
AFNE01.JPG,AFNE01.JPG,AFNE01.JPG,AFNE01.JPG,AFNE01.JPG,AFNE01.JPG,,,,,,,,,,,,,,,,,5,9,59,9,,,,,,,AMNE02.jpg,AMSA04.jpg,AMSA19.jpg,AMNE19.jpg,AMNE02.jpg,MN,1,num_8,32,num_6,0.800121303648,,,2017_Jun_06_1717,60.0103745384,MAFE4ImagesEEG,001,100588,
,,,,,,,,,,,,,,,,,,,,,,,,,,,,,,,,,,,,,,,,,,,space,11.2499105937,2017_Jun_06_1717,60.0103745384,MAFE4ImagesEEG,001,100588,
AFNE01.JPG,AFNE01.JPG,AFNE01.JPG,AFNE01.JPG,AFNE01.JPG,AFNE01.JPG,,,,,,,,,,,,,,,,,,,,,0,0,0,7,,,AFNE10.jpg,AFSA16.jpg,AFSA12.jpg,AFNE18.jpg,AFNE18.jpg,FN,3,num_4,32,num_2,0.583433912136,,,2017_Jun_06_1717,60.0103745384,MAFE4ImagesEEG,001,100588,
AFNE01.JPG,AFNE01.JPG,AFNE01.JPG,AFNE01.JPG,AFNE01.JPG,AFNE01.JPG,,,,,,,,,,,,,,,,,,,,,0,1,1,5,,,AFNE13.jpg,AFNE04.jpg,AFSA03.jpg,AFSA10.jpg,AFNE13.jpg,FN,3,num_8,32,num_4,0.350083440309,,,2017_Jun_06_1717,60.0103745384,MAFE4ImagesEEG,001,100588,
AFNE01.JPG,AFNE01.JPG,AFNE01.JPG,AFNE01.JPG,AFNE01.JPG,AFNE01.JPG,,,,,,,,,,,,,,,,,,,,,0,2,2,3,,,AFSA03.jpg,AFNE03.jpg,AFNE19.jpg,AFSA10.jpg,AFSA03.jpg,FS,4,num_8,32,num_4,0.333483867114,,,2017_Jun_06_1717,60.0103745384,MAFE4ImagesEEG,001,100588,
AFNE01.JPG,AFNE01.JPG,AFNE01.JPG,AFNE01.JPG,AFNE01.JPG,AFNE01.JPG,,,,,,,,,,,,,,,,,,,,,0,3,3,0,,,AFNE11.jpg,AFSA15.jpg,AFSA18.jpg,AFNE03.jpg,AFSA15.jpg,FS,4,num_6,16,num_6,0.733446853934,,,2017_Jun_06_1717,60.0103745384,MAFE4ImagesEEG,001,100588,
AFNE01.JPG,AFNE01.JPG,AFNE01.JPG,AFNE01.JPG,AFNE01.JPG,AFNE01.JPG,,,,,,,,,,,,,,,,,,,,,0,4,4,1,,,AFNE02.jpg,AFSA16.jpg,AFSA08.jpg,AFNE11.jpg,AFSA16.jpg,FS,4,num_6,16,num_6,0.300177272875,,,2017_Jun_06_1717,60.0103745384,MAFE4ImagesEEG,001,100588,
AFNE01.JPG,AFNE01.JPG,AFNE01.JPG,AFNE01.JPG,AFNE01.JPG,AFNE01.JPG,,,,,,,,,,,,,,,,,,,,,0,5,5,4,,,AFNE15.jpg,AFSA16.jpg,AFNE07.jpg,AFSA04.jpg,AFSA04.jpg,FS,4,num_4,32,num_2,0.500165020814,,,2017_Jun_06_1717,60.0103745384,MAFE4ImagesEEG,001,100588,
AFNE01.JPG,AFNE01.JPG,AFNE01.JPG,AFNE01.JPG,AFNE01.JPG,AFNE01.JPG,,,,,,,,,,,,,,,,,,,,,0,6,6,9,,,AFNE01.jpg,AFNE06.jpg,AFSA03.jpg,AFSA10.jpg,AFSA03.jpg,FS,4,num_2,16,num_2,0.383545593591,,,2017_Jun_06_1717,60.0103745384,MAFE4ImagesEEG,001,100588,
AFNE01.JPG,AFNE01.JPG,AFNE01.JPG,AFNE01.JPG,AFNE01.JPG,AFNE01.JPG,,,,,,,,,,,,,,,,,,,,,0,7,7,6,,,AFSA02.jpg,AFSA03.jpg,AFNE10.jpg,AFNE19.jpg,AFNE19.jpg,FN,3,num_4,16,num_4,0.800125473645,,,2017_Jun_06_1717,60.0103745384,MAFE4ImagesEEG,001,100588,
AFNE01.JPG,AFNE01.JPG,AFNE01.JPG,AFNE01.JPG,AFNE01.JPG,AFNE01.JPG,,,,,,,,,,,,,,,,,,,,,0,8,8,8,,,AFNE13.jpg,AFSA06.jpg,AFSA01.jpg,AFNE07.jpg,AFSA01.jpg,FS,4,num_2,32,num_6,0.716785057215,,,2017_Jun_06_1717,60.0103745384,MAFE4ImagesEEG,001,100588,
AFNE01.JPG,AFNE01.JPG,AFNE01.JPG,AFNE01.JPG,AFNE01.JPG,AFNE01.JPG,,,,,,,,,,,,,,,,,,,,,0,9,9,2,,,AFNE11.jpg,AFSA15.jpg,AFNE03.jpg,AFSA11.jpg,AFNE11.jpg,FN,3,num_8,32,num_4,0.550190824084,,,2017_Jun_06_1717,60.0103745384,MAFE4ImagesEEG,001,100588,
AFNE01.JPG,AFNE01.JPG,AFNE01.JPG,AFNE01.JPG,AFNE01.JPG,AFNE01.JPG,,,,,,,,,,,,,,,,,,,,,1,0,10,4,,,AFSA20.jpg,AFSA17.jpg,AFNE06.jpg,AFNE13.jpg,AFSA17.jpg,FS,4,num_6,32,num_8,0.516769084148,,,2017_Jun_06_1717,60.0103745384,MAFE4ImagesEEG,001,100588,
AFNE01.JPG,AFNE01.JPG,AFNE01.JPG,AFNE01.JPG,AFNE01.JPG,AFNE01.JPG,,,,,,,,,,,,,,,,,,,,,1,1,11,3,,,AFNE09.jpg,AFSA15.jpg,AFSA13.jpg,AFNE15.jpg,AFSA15.jpg,FS,4,num_6,16,num_6,0.416793171782,,,2017_Jun_06_1717,60.0103745384,MAFE4ImagesEEG,001,100588,
AFNE01.JPG,AFNE01.JPG,AFNE01.JPG,AFNE01.JPG,AFNE01.JPG,AFNE01.JPG,,,,,,,,,,,,,,,,,,,,,1,2,12,9,,,AFSA18.jpg,AFSA06.jpg,AFNE20.jpg,AFNE06.jpg,AFNE20.jpg,FN,3,num_2,32,num_4,0.800176791847,,,2017_Jun_06_1717,60.0103745384,MAFE4ImagesEEG,001,100588,
AFNE01.JPG,AFNE01.JPG,AFNE01.JPG,AFNE01.JPG,AFNE01.JPG,AFNE01.JPG,,,,,,,,,,,,,,,,,,,,,1,3,13,0,,,AFNE20.jpg,AFSA16.jpg,AFNE14.jpg,AFSA14.jpg,AFNE20.jpg,FN,3,num_8,16,num_8,0.783478751546,,,2017_Jun_06_1717,60.0103745384,MAFE4ImagesEEG,001,100588,
AFNE01.JPG,AFNE01.JPG,AFNE01.JPG,AFNE01.JPG,AFNE01.JPG,AFNE01.JPG,,,,,,,,,,,,,,,,,,,,,1,4,14,6,,,AFSA15.jpg,AFSA20.jpg,AFNE14.jpg,AFNE08.jpg,AFSA20.jpg,FS,4,num_6,16,num_6,1.20010032738,,,2017_Jun_06_1717,60.0103745384,MAFE4ImagesEEG,001,100588,
AFNE01.JPG,AFNE01.JPG,AFNE01.JPG,AFNE01.JPG,AFNE01.JPG,AFNE01.JPG,,,,,,,,,,,,,,,,,,,,,1,5,15,1,,,AFNE01.jpg,AFNE14.jpg,AFSA04.jpg,AFSA20.jpg,AFNE01.jpg,FN,3,num_8,16,num_8,0.883499246556,,,2017_Jun_06_1717,60.0103745384,MAFE4ImagesEEG,001,100588,
AFNE01.JPG,AFNE01.JPG,AFNE01.JPG,AFNE01.JPG,AFNE01.JPG,AFNE01.JPG,,,,,,,,,,,,,,,,,,,,,1,6,16,5,,,AFNE04.jpg,AFSA10.jpg,AFNE05.jpg,AFSA18.jpg,AFNE04.jpg,FN,3,num_8,16,num_8,0.683464029571,,,2017_Jun_06_1717,60.0103745384,MAFE4ImagesEEG,001,100588,
AFNE01.JPG,AFNE01.JPG,AFNE01.JPG,AFNE01.JPG,AFNE01.JPG,AFNE01.JPG,,,,,,,,,,,,,,,,,,,,,1,7,17,2,,,AFNE19.jpg,AFSA17.jpg,AFSA19.jpg,AFNE18.jpg,AFSA17.jpg,FS,4,num_6,32,num_4,1.28340289649,,,2017_Jun_06_1717,60.0103745384,MAFE4ImagesEEG,001,100588,
AFNE01.JPG,AFNE01.JPG,AFNE01.JPG,AFNE01.JPG,AFNE01.JPG,AFNE01.JPG,,,,,,,,,,,,,,,,,,,,,1,8,18,7,,,AFSA14.jpg,AFNE02.jpg,AFSA10.jpg,AFNE07.jpg,AFSA14.jpg,FS,4,num_8,16,num_8,0.616779315751,,,2017_Jun_06_1717,60.0103745384,MAFE4ImagesEEG,001,100588,
AFNE01.JPG,AFNE01.JPG,AFNE01.JPG,AFNE01.JPG,AFNE01.JPG,AFNE01.JPG,,,,,,,,,,,,,,,,,,,,,1,9,19,8,,,AFSA11.jpg,AFNE05.jpg,AFSA05.jpg,AFNE20.jpg,AFSA11.jpg,FS,4,num_8,32,num_4,0.699841330061,,,2017_Jun_06_1717,60.0103745384,MAFE4ImagesEEG,001,100588,
AFNE01.JPG,AFNE01.JPG,AFNE01.JPG,AFNE01.JPG,AFNE01.JPG,AFNE01.JPG,,,,,,,,,,,,,,,,,,,,,2,0,20,6,,,AFNE08.jpg,AFNE17.jpg,AFSA14.jpg,AFSA18.jpg,AFSA18.jpg,FS,4,num_4,16,num_4,0.533529027365,,,2017_Jun_06_1717,60.0103745384,MAFE4ImagesEEG,001,100588,
AFNE01.JPG,AFNE01.JPG,AFNE01.JPG,AFNE01.JPG,AFNE01.JPG,AFNE01.JPG,,,,,,,,,,,,,,,,,,,,,2,1,21,5,,,AFNE19.jpg,AFNE15.jpg,AFSA20.jpg,AFSA08.jpg,AFNE19.jpg,FN,3,num_8,16,num_8,0.450180271873,,,2017_Jun_06_1717,60.0103745384,MAFE4ImagesEEG,001,100588,
AFNE01.JPG,AFNE01.JPG,AFNE01.JPG,AFNE01.JPG,AFNE01.JPG,AFNE01.JPG,,,,,,,,,,,,,,,,,,,,,2,2,22,7,,,AFNE20.jpg,AFSA04.jpg,AFNE11.jpg,AFSA19.jpg,AFNE20.jpg,FN,3,num_8,32,num_4,0.250169110252,,,2017_Jun_06_1717,60.0103745384,MAFE4ImagesEEG,001,100588,
AFNE01.JPG,AFNE01.JPG,AFNE01.JPG,AFNE01.JPG,AFNE01.JPG,AFNE01.JPG,,,,,,,,,,,,,,,,,,,,,2,3,23,0,,,AFSA09.jpg,AFNE15.jpg,AFSA18.jpg,AFNE11.jpg,AFNE11.jpg,FN,3,num_4,32,num_8,0.566822792171,,,2017_Jun_06_1717,60.0103745384,MAFE4ImagesEEG,001,100588,
AFNE01.JPG,AFNE01.JPG,AFNE01.JPG,AFNE01.JPG,AFNE01.JPG,AFNE01.JPG,,,,,,,,,,,,,,,,,,,,,2,4,24,9,,,AFNE07.jpg,AFSA03.jpg,AFNE18.jpg,AFSA09.jpg,AFSA09.jpg,FS,4,num_4,16,num_4,0.600108538521,,,2017_Jun_06_1717,60.0103745384,MAFE4ImagesEEG,001,100588,
AFNE01.JPG,AFNE01.JPG,AFNE01.JPG,AFNE01.JPG,AFNE01.JPG,AFNE01.JPG,,,,,,,,,,,,,,,,,,,,,2,5,25,2,,,AFNE07.jpg,AFSA06.jpg,AFSA11.jpg,AFNE02.jpg,AFSA06.jpg,FS,4,num_6,32,num_4,0.850109580904,,,2017_Jun_06_1717,60.0103745384,MAFE4ImagesEEG,001,100588,
AFNE01.JPG,AFNE01.JPG,AFNE01.JPG,AFNE01.JPG,AFNE01.JPG,AFNE01.JPG,,,,,,,,,,,,,,,,,,,,,2,6,26,3,,,AFSA10.jpg,AFSA06.jpg,AFNE17.jpg,AFNE08.jpg,AFSA10.jpg,FS,4,num_8,32,num_6,0.350139569957,,,2017_Jun_06_1717,60.0103745384,MAFE4ImagesEEG,001,100588,
AFNE01.JPG,AFNE01.JPG,AFNE01.JPG,AFNE01.JPG,AFNE01.JPG,AFNE01.JPG,,,,,,,,,,,,,,,,,,,,,2,7,27,8,,,AFNE17.jpg,AFNE10.jpg,AFSA20.jpg,AFSA04.jpg,AFSA20.jpg,FS,4,num_2,16,num_2,0.400164090563,,,2017_Jun_06_1717,60.0103745384,MAFE4ImagesEEG,001,100588,
AFNE01.JPG,AFNE01.JPG,AFNE01.JPG,AFNE01.JPG,AFNE01.JPG,AFNE01.JPG,,,,,,,,,,,,,,,,,,,,,2,8,28,1,,,AFNE16.jpg,AFSA15.jpg,AFSA19.jpg,AFNE12.jpg,AFNE12.jpg,FN,3,num_4,32,num_8,0.633480884368,,,2017_Jun_06_1717,60.0103745384,MAFE4ImagesEEG,001,100588,
AFNE01.JPG,AFNE01.JPG,AFNE01.JPG,AFNE01.JPG,AFNE01.JPG,AFNE01.JPG,,,,,,,,,,,,,,,,,,,,,2,9,29,4,,,AFSA16.jpg,AFSA15.jpg,AFNE11.jpg,AFNE04.jpg,AFNE04.jpg,FN,3,num_4,32,num_6,0.483814662322,,,2017_Jun_06_1717,60.0103745384,MAFE4ImagesEEG,001,100588,
AFNE01.JPG,AFNE01.JPG,AFNE01.JPG,AFNE01.JPG,AFNE01.JPG,AFNE01.JPG,,,,,,,,,,,,,,,,,,,,,3,0,30,8,,,AFSA05.jpg,AFNE16.jpg,AFNE03.jpg,AFSA03.jpg,AFNE03.jpg,FN,3,num_2,32,num_8,0.250182581134,,,2017_Jun_06_1717,60.0103745384,MAFE4ImagesEEG,001,100588,
AFNE01.JPG,AFNE01.JPG,AFNE01.JPG,AFNE01.JPG,AFNE01.JPG,AFNE01.JPG,,,,,,,,,,,,,,,,,,,,,3,1,31,2,,,AFSA15.jpg,AFSA11.jpg,AFNE10.jpg,AFNE12.jpg,AFNE10.jpg,FN,3,num_2,32,num_4,0.716810074868,,,2017_Jun_06_1717,60.0103745384,MAFE4ImagesEEG,001,100588,
AFNE01.JPG,AFNE01.JPG,AFNE01.JPG,AFNE01.JPG,AFNE01.JPG,AFNE01.JPG,,,,,,,,,,,,,,,,,,,,,3,2,32,6,,,AFNE15.jpg,AFSA14.jpg,AFSA10.jpg,AFNE09.jpg,AFNE15.jpg,FN,3,num_8,32,num_6,0.550167730777,,,2017_Jun_06_1717,60.0103745384,MAFE4ImagesEEG,001,100588,
AFNE01.JPG,AFNE01.JPG,AFNE01.JPG,AFNE01.JPG,AFNE01.JPG,AFNE01.JPG,,,,,,,,,,,,,,,,,,,,,3,3,33,4,,,AFSA18.jpg,AFNE07.jpg,AFSA14.jpg,AFNE03.jpg,AFSA14.jpg,FS,4,num_2,32,num_8,0.36687385384,,,2017_Jun_06_1717,60.0103745384,MAFE4ImagesEEG,001,100588,
AFNE01.JPG,AFNE01.JPG,AFNE01.JPG,AFNE01.JPG,AFNE01.JPG,AFNE01.JPG,,,,,,,,,,,,,,,,,,,,,3,4,34,1,,,AFNE01.jpg,AFNE20.jpg,AFSA10.jpg,AFSA17.jpg,AFNE20.jpg,FN,3,num_6,32,num_2,0.600114632398,,,2017_Jun_06_1717,60.0103745384,MAFE4ImagesEEG,001,100588,
AFNE01.JPG,AFNE01.JPG,AFNE01.JPG,AFNE01.JPG,AFNE01.JPG,AFNE01.JPG,,,,,,,,,,,,,,,,,,,,,3,5,35,9,,,AFSA17.jpg,AFNE11.jpg,AFSA15.jpg,AFNE16.jpg,AFNE11.jpg,FN,3,num_6,32,num_4,0.433489608346,,,2017_Jun_06_1717,60.0103745384,MAFE4ImagesEEG,001,100588,
AFNE01.JPG,AFNE01.JPG,AFNE01.JPG,AFNE01.JPG,AFNE01.JPG,AFNE01.JPG,,,,,,,,,,,,,,,,,,,,,3,6,36,5,,,AFNE05.jpg,AFSA04.jpg,AFNE11.jpg,AFSA01.jpg,AFNE05.jpg,FN,3,num_8,16,num_8,0.783301702933,,,2017_Jun_06_1717,60.0103745384,MAFE4ImagesEEG,001,100588,
AFNE01.JPG,AFNE01.JPG,AFNE01.JPG,AFNE01.JPG,AFNE01.JPG,AFNE01.JPG,,,,,,,,,,,,,,,,,,,,,3,7,37,0,,,AFSA15.jpg,AFSA14.jpg,AFNE17.jpg,AFNE02.jpg,AFNE02.jpg,FN,3,num_4,32,num_2,0.433519758284,,,2017_Jun_06_1717,60.0103745384,MAFE4ImagesEEG,001,100588,
AFNE01.JPG,AFNE01.JPG,AFNE01.JPG,AFNE01.JPG,AFNE01.JPG,AFNE01.JPG,,,,,,,,,,,,,,,,,,,,,3,8,38,3,,,AFSA16.jpg,AFSA19.jpg,AFNE19.jpg,AFNE07.jpg,AFSA16.jpg,FS,4,num_8,32,num_6,0.700011322042,,,2017_Jun_06_1717,60.0103745384,MAFE4ImagesEEG,001,100588,
