IPosition2,IPosition3,IPosition1,IPosition6,IPosition4,IPosition5,TrialsF1.thisRepN,TrialsF1.thisTrialN,TrialsF1.thisN,TrialsF1.thisIndex,TrialsM1.thisRepN,TrialsM1.thisTrialN,TrialsM1.thisN,TrialsM1.thisIndex,TrialsF2.thisRepN,TrialsF2.thisTrialN,TrialsF2.thisN,TrialsF2.thisIndex,TrialsM2.thisRepN,TrialsM2.thisTrialN,TrialsM2.thisN,TrialsM2.thisIndex,TrialsF3.thisRepN,TrialsF3.thisTrialN,TrialsF3.thisN,TrialsF3.thisIndex,TrialsM3.thisRepN,TrialsM3.thisTrialN,TrialsM3.thisN,TrialsM3.thisIndex,InstrKey_resp.keys,InstrKey_resp.rt,Image0 _Position,Image1 _Position,Image2 _Position,Image3 _Position,Center_image,condition,code,correct_answer,accuracy,Key_Resp.keys,Key_Resp.rt,BreakKey_resp.keys,BreakKey_resp.rt,date,frameRate,expName,session,participant,
,,,,,,,,,,,,,,,,,,,,,,,,,,,,,,space,81.8275763193,,,,,,,,,,,,,,2017_May_18_1057,60.0067940433,FEMA4ImagesEEG,001,100501,
AFSA21.JPG,AFNE23.JPG,AFNE21.JPG,AFSA25.JPG,AFNE25.JPG,AFSA23.JPG,0,0,0,4,,,,,,,,,,,,,,,,,,,,,,,AFNE16.jpg,AFSA01.jpg,AFSA18.jpg,AFNE17.jpg,AFSA01.jpg,FS,4,num_6,32,num_4,2.59999371351,,,2017_May_18_1057,60.0067940433,FEMA4ImagesEEG,001,100501,
AFNE23.JPG,AFNE24.JPG,AFNE22.JPG,AFSA24.JPG,AFSA22.JPG,AFSA23.JPG,0,1,1,8,,,,,,,,,,,,,,,,,,,,,,,AFNE03.jpg,AFSA20.jpg,AFSA04.jpg,AFNE18.jpg,AFNE18.jpg,FN,3,num_4,32,num_8,2.18334006352,,,2017_May_18_1057,60.0067940433,FEMA4ImagesEEG,001,100501,
AFSA21.JPG,AFNE22.JPG,AFNE21.JPG,AFSA23.JPG,AFSA22.JPG,AFNE23.JPG,0,2,2,0,,,,,,,,,,,,,,,,,,,,,,,AFNE19.jpg,AFSA09.jpg,AFSA17.jpg,AFNE13.jpg,AFSA09.jpg,FS,4,num_6,32,num_2,2.16665228683,,,2017_May_18_1057,60.0067940433,FEMA4ImagesEEG,001,100501,
AFSA25.JPG,AFNE24.JPG,AFSA24.JPG,AFNE21.JPG,AFSA21.JPG,AFNE25.JPG,0,3,3,2,,,,,,,,,,,,,,,,,,,,,,,AFNE18.jpg,AFSA20.jpg,AFNE12.jpg,AFSA18.jpg,AFNE18.jpg,FN,3,num_8,16,num_8,3.34995033342,,,2017_May_18_1057,60.0067940433,FEMA4ImagesEEG,001,100501,
AMNE22.JPG,AMSA24.JPG,AMSA22.JPG,AMNE25.JPG,AMNE24.JPG,AMSA25.JPG,0,4,4,7,,,,,,,,,,,,,,,,,,,,,,,AFSA02.jpg,AFNE09.jpg,AFNE14.jpg,AFSA14.jpg,AFNE09.jpg,FN,3,num_6,32,num_8,1.73340130881,,,2017_May_18_1057,60.0067940433,FEMA4ImagesEEG,001,100501,
AMNE23.JPG,AMNE24.JPG,AMNE22.JPG,AMSA24.JPG,AMSA22.JPG,AMSA23.JPG,0,5,5,9,,,,,,,,,,,,,,,,,,,,,,,AFNE02.jpg,AFNE12.jpg,AFSA02.jpg,AFSA11.jpg,AFSA11.jpg,FS,4,num_4,16,num_4,1.08357776387,,,2017_May_18_1057,60.0067940433,FEMA4ImagesEEG,001,100501,
AMSA21.JPG,AMNE22.JPG,AMNE21.JPG,AMSA23.JPG,AMSA22.JPG,AMNE23.JPG,0,6,6,1,,,,,,,,,,,,,,,,,,,,,,,AFNE15.jpg,AFSA11.jpg,AFNE19.jpg,AFSA06.jpg,AFNE19.jpg,FN,3,num_2,16,num_2,1.85003035804,,,2017_May_18_1057,60.0067940433,FEMA4ImagesEEG,001,100501,
AMSA25.JPG,AMNE24.JPG,AMSA24.JPG,AMNE26.JPG,AMSA21.JPG,AMNE25.JPG,0,7,7,3,,,,,,,,,,,,,,,,,,,,,,,AFSA17.jpg,AFSA14.jpg,AFNE13.jpg,AFNE05.jpg,AFSA14.jpg,FS,4,num_6,32,num_8,1.06675623862,,,2017_May_18_1057,60.0067940433,FEMA4ImagesEEG,001,100501,
AMSA21.JPG,AMNE23.JPG,AMNE21.JPG,AMSA25.JPG,AMNE25.JPG,AMSA23.JPG,0,8,8,5,,,,,,,,,,,,,,,,,,,,,,,AFNE18.jpg,AFSA17.jpg,AFSA13.jpg,AFNE11.jpg,AFSA17.jpg,FS,4,num_6,32,num_4,1.25007000149,,,2017_May_18_1057,60.0067940433,FEMA4ImagesEEG,001,100501,
AFNE22.JPG,AFSA24.JPG,AFSA22.JPG,AFNE25.JPG,AFNE24.JPG,AFSA25.JPG,0,9,9,6,,,,,,,,,,,,,,,,,,,,,,,AFSA05.jpg,AFNE17.jpg,AFNE11.jpg,AFSA07.jpg,AFNE11.jpg,FN,3,num_2,32,num_8,2.53350112308,,,2017_May_18_1057,60.0067940433,FEMA4ImagesEEG,001,100501,
AFSA21.JPG,AFNE22.JPG,AFNE21.JPG,AFSA23.JPG,AFSA22.JPG,AFNE23.JPG,,,,,0,0,0,0,,,,,,,,,,,,,,,,,,,AMNE18.jpg,AMSA20.jpg,AMNE19.jpg,AMSA08.jpg,AMNE19.jpg,MN,1,num_2,32,num_8,3.24992823444,,,2017_May_18_1057,60.0067940433,FEMA4ImagesEEG,001,100501,
AMSA21.JPG,AMNE23.JPG,AMNE21.JPG,AMSA25.JPG,AMNE25.JPG,AMSA23.JPG,,,,,0,1,1,5,,,,,,,,,,,,,,,,,,,AMSA10.jpg,AMNE10.jpg,AMSA07.jpg,AMNE03.jpg,AMSA07.jpg,MS,2,num_2,16,num_2,3.00001411256,,,2017_May_18_1057,60.0067940433,FEMA4ImagesEEG,001,100501,
AFNE23.JPG,AFNE24.JPG,AFNE22.JPG,AFSA24.JPG,AFSA22.JPG,AFSA23.JPG,,,,,0,2,2,8,,,,,,,,,,,,,,,,,,,AMSA17.jpg,AMNE17.jpg,AMNE11.jpg,AMSA07.jpg,AMSA07.jpg,MS,2,num_4,16,num_4,2.76673933564,,,2017_May_18_1057,60.0067940433,FEMA4ImagesEEG,001,100501,
AFSA25.JPG,AFNE24.JPG,AFSA24.JPG,AFNE21.JPG,AFSA21.JPG,AFNE25.JPG,,,,,0,3,3,2,,,,,,,,,,,,,,,,,,,AMNE10.jpg,AMSA09.jpg,AMSA10.jpg,AMNE08.jpg,AMSA09.jpg,MS,2,num_6,32,num_2,4.3667914238,,,2017_May_18_1057,60.0067940433,FEMA4ImagesEEG,001,100501,
AFNE22.JPG,AFSA24.JPG,AFSA22.JPG,AFNE25.JPG,AFNE24.JPG,AFSA25.JPG,,,,,0,4,4,6,,,,,,,,,,,,,,,,,,,AMNE10.jpg,AMSA09.jpg,AMSA04.jpg,AMNE15.jpg,AMSA04.jpg,MS,2,num_2,32,num_8,3.11664476548,,,2017_May_18_1057,60.0067940433,FEMA4ImagesEEG,001,100501,
AMSA25.JPG,AMNE24.JPG,AMSA24.JPG,AMNE26.JPG,AMSA21.JPG,AMNE25.JPG,,,,,0,5,5,3,,,,,,,,,,,,,,,,,,,AMNE19.jpg,AMNE03.jpg,AMSA01.jpg,AMSA05.jpg,AMNE03.jpg,MN,1,num_6,16,num_6,1.11692028106,,,2017_May_18_1057,60.0067940433,FEMA4ImagesEEG,001,100501,
AMNE23.JPG,AMNE24.JPG,AMNE22.JPG,AMSA24.JPG,AMSA22.JPG,AMSA23.JPG,,,,,0,6,6,9,,,,,,,,,,,,,,,,,,,AMNE01.jpg,AMSA16.jpg,AMSA15.jpg,AMNE19.jpg,AMNE01.jpg,MN,1,num_8,16,num_8,0.983460405143,,,2017_May_18_1057,60.0067940433,FEMA4ImagesEEG,001,100501,
AMNE22.JPG,AMSA24.JPG,AMSA22.JPG,AMNE25.JPG,AMNE24.JPG,AMSA25.JPG,,,,,0,7,7,7,,,,,,,,,,,,,,,,,,,AMSA11.jpg,AMSA16.jpg,AMNE01.jpg,AMNE06.jpg,AMNE01.jpg,MN,1,num_2,16,num_2,1.48341598267,,,2017_May_18_1057,60.0067940433,FEMA4ImagesEEG,001,100501,
AFSA21.JPG,AFNE23.JPG,AFNE21.JPG,AFSA25.JPG,AFNE25.JPG,AFSA23.JPG,,,,,0,8,8,4,,,,,,,,,,,,,,,,,,,AMNE19.jpg,AMNE03.jpg,AMSA01.jpg,AMSA19.jpg,AMSA01.jpg,MS,2,num_2,16,num_2,1.25013414946,,,2017_May_18_1057,60.0067940433,FEMA4ImagesEEG,001,100501,
AMSA21.JPG,AMNE22.JPG,AMNE21.JPG,AMSA23.JPG,AMSA22.JPG,AMNE23.JPG,,,,,0,9,9,1,,,,,,,,,,,,,,,,,,,AMNE07.jpg,AMSA10.jpg,AMSA20.jpg,AMNE16.jpg,AMSA20.jpg,MS,2,num_2,16,num_2,1.2166986177,,,2017_May_18_1057,60.0067940433,FEMA4ImagesEEG,001,100501,
AFSA21.JPG,AFNE22.JPG,AFNE21.JPG,AFSA23.JPG,AFSA22.JPG,AFNE23.JPG,,,,,,,,,0,0,0,0,,,,,,,,,,,,,,,AFNE01.jpg,AFSA10.jpg,AFNE18.jpg,AFSA12.jpg,AFNE18.jpg,FN,3,num_2,32,num_4,2.43330710749,,,2017_May_18_1057,60.0067940433,FEMA4ImagesEEG,001,100501,
AFSA21.JPG,AFNE23.JPG,AFNE21.JPG,AFSA25.JPG,AFNE25.JPG,AFSA23.JPG,,,,,,,,,0,1,1,4,,,,,,,,,,,,,,,AFNE04.jpg,AFSA07.jpg,AFSA04.jpg,AFNE18.jpg,AFSA07.jpg,FS,4,num_6,32,num_8,1.53361851387,,,2017_May_18_1057,60.0067940433,FEMA4ImagesEEG,001,100501,
AFNE23.JPG,AFNE24.JPG,AFNE22.JPG,AFSA24.JPG,AFSA22.JPG,AFSA23.JPG,,,,,,,,,0,2,2,8,,,,,,,,,,,,,,,AFSA03.jpg,AFNE06.jpg,AFNE18.jpg,AFSA04.jpg,AFNE18.jpg,FN,3,num_2,32,num_4,1.43337446288,,,2017_May_18_1057,60.0067940433,FEMA4ImagesEEG,001,100501,
AMSA21.JPG,AMNE22.JPG,AMNE21.JPG,AMSA23.JPG,AMSA22.JPG,AMNE23.JPG,,,,,,,,,0,3,3,1,,,,,,,,,,,,,,,AFSA06.jpg,AFNE02.jpg,AFSA14.jpg,AFNE13.jpg,AFSA14.jpg,FS,4,num_2,16,num_2,1.21675282276,,,2017_May_18_1057,60.0067940433,FEMA4ImagesEEG,001,100501,
AFSA25.JPG,AFNE24.JPG,AFSA24.JPG,AFNE21.JPG,AFSA21.JPG,AFNE25.JPG,,,,,,,,,0,4,4,2,,,,,,,,,,,,,,,AFNE05.jpg,AFNE16.jpg,AFSA08.jpg,AFSA05.jpg,AFNE16.jpg,FN,3,num_6,32,num_4,3.46654570496,,,2017_May_18_1057,60.0067940433,FEMA4ImagesEEG,001,100501,
AMNE22.JPG,AMSA24.JPG,AMSA22.JPG,AMNE25.JPG,AMNE24.JPG,AMSA25.JPG,,,,,,,,,0,5,5,7,,,,,,,,,,,,,,,AFSA12.jpg,AFSA02.jpg,AFNE07.jpg,AFNE20.jpg,AFSA02.jpg,FS,4,num_6,16,num_6,2.68329532031,,,2017_May_18_1057,60.0067940433,FEMA4ImagesEEG,001,100501,
AMNE23.JPG,AMNE24.JPG,AMNE22.JPG,AMSA24.JPG,AMSA22.JPG,AMSA23.JPG,,,,,,,,,0,6,6,9,,,,,,,,,,,,,,,AFNE09.jpg,AFSA19.jpg,AFNE12.jpg,AFSA10.jpg,AFNE12.jpg,FN,3,num_2,32,num_8,2.99994322904,,,2017_May_18_1057,60.0067940433,FEMA4ImagesEEG,001,100501,
AMSA25.JPG,AMNE24.JPG,AMSA24.JPG,AMNE26.JPG,AMSA21.JPG,AMNE25.JPG,,,,,,,,,0,7,7,3,,,,,,,,,,,,,,,AFNE18.jpg,AFNE02.jpg,AFSA20.jpg,AFSA11.jpg,AFSA20.jpg,FS,4,num_2,16,num_2,3.00000898071,,,2017_May_18_1057,60.0067940433,FEMA4ImagesEEG,001,100501,
AFNE22.JPG,AFSA24.JPG,AFSA22.JPG,AFNE25.JPG,AFNE24.JPG,AFSA25.JPG,,,,,,,,,0,8,8,6,,,,,,,,,,,,,,,AFNE03.jpg,AFSA18.jpg,AFNE05.jpg,AFSA20.jpg,AFNE05.jpg,FN,3,num_2,32,num_6,2.58301887459,,,2017_May_18_1057,60.0067940433,FEMA4ImagesEEG,001,100501,
AMSA21.JPG,AMNE23.JPG,AMNE21.JPG,AMSA25.JPG,AMNE25.JPG,AMSA23.JPG,,,,,,,,,0,9,9,5,,,,,,,,,,,,,,,AFNE13.jpg,AFNE10.jpg,AFSA08.jpg,AFSA07.jpg,AFSA07.jpg,FS,4,num_4,32,num_6,3.8499376642,,,2017_May_18_1057,60.0067940433,FEMA4ImagesEEG,001,100501,
AFSA21.JPG,AFNE22.JPG,AFNE21.JPG,AFSA23.JPG,AFSA22.JPG,AFNE23.JPG,,,,,,,,,,,,,0,0,0,0,,,,,,,,,,,AMNE09.jpg,AMNE06.jpg,AMSA18.jpg,AMSA01.jpg,AMSA01.jpg,MS,2,num_4,32,num_2,3.06687747833,,,2017_May_18_1057,60.0067940433,FEMA4ImagesEEG,001,100501,
AFSA21.JPG,AFNE23.JPG,AFNE21.JPG,AFSA25.JPG,AFNE25.JPG,AFSA23.JPG,,,,,,,,,,,,,0,1,1,4,,,,,,,,,,,AMNE05.jpg,AMSA08.jpg,AMSA20.jpg,AMNE09.jpg,AMSA20.jpg,MS,2,num_2,32,num_4,1.70009022414,,,2017_May_18_1057,60.0067940433,FEMA4ImagesEEG,001,100501,
AMSA21.JPG,AMNE23.JPG,AMNE21.JPG,AMSA25.JPG,AMNE25.JPG,AMSA23.JPG,,,,,,,,,,,,,0,2,2,5,,,,,,,,,,,AMSA13.jpg,AMNE20.jpg,AMSA07.jpg,AMNE15.jpg,AMNE20.jpg,MN,1,num_6,16,num_6,3.83324411418,,,2017_May_18_1057,60.0067940433,FEMA4ImagesEEG,001,100501,
AFSA25.JPG,AFNE24.JPG,AFSA24.JPG,AFNE21.JPG,AFSA21.JPG,AFNE25.JPG,,,,,,,,,,,,,0,3,3,2,,,,,,,,,,,AMSA08.jpg,AMSA20.jpg,AMNE17.jpg,AMNE13.jpg,AMNE17.jpg,MN,1,num_2,16,num_2,1.98352327017,,,2017_May_18_1057,60.0067940433,FEMA4ImagesEEG,001,100501,
AMNE22.JPG,AMSA24.JPG,AMSA22.JPG,AMNE25.JPG,AMNE24.JPG,AMSA25.JPG,,,,,,,,,,,,,0,4,4,7,,,,,,,,,,,AMSA11.jpg,AMNE14.jpg,AMSA16.jpg,AMNE17.jpg,AMSA16.jpg,MS,2,num_2,32,num_8,1.2334377128,,,2017_May_18_1057,60.0067940433,FEMA4ImagesEEG,001,100501,
AFNE22.JPG,AFSA24.JPG,AFSA22.JPG,AFNE25.JPG,AFNE24.JPG,AFSA25.JPG,,,,,,,,,,,,,0,5,5,6,,,,,,,,,,,AMSA08.jpg,AMNE02.jpg,AMSA05.jpg,AMNE11.jpg,AMSA08.jpg,MS,2,num_8,32,num_4,1.36672599286,,,2017_May_18_1057,60.0067940433,FEMA4ImagesEEG,001,100501,
AMSA25.JPG,AMNE24.JPG,AMSA24.JPG,AMNE26.JPG,AMSA21.JPG,AMNE25.JPG,,,,,,,,,,,,,0,6,6,3,,,,,,,,,,,AMNE11.jpg,AMNE19.jpg,AMSA17.jpg,AMSA06.jpg,AMSA17.jpg,MS,2,num_2,32,num_4,0.7501307817,,,2017_May_18_1057,60.0067940433,FEMA4ImagesEEG,001,100501,
AFNE23.JPG,AFNE24.JPG,AFNE22.JPG,AFSA24.JPG,AFSA22.JPG,AFSA23.JPG,,,,,,,,,,,,,0,7,7,8,,,,,,,,,,,AMNE04.jpg,AMNE05.jpg,AMSA09.jpg,AMSA12.jpg,AMNE04.jpg,MN,1,num_8,16,num_8,4.09990053855,,,2017_May_18_1057,60.0067940433,FEMA4ImagesEEG,001,100501,
AMSA21.JPG,AMNE22.JPG,AMNE21.JPG,AMSA23.JPG,AMSA22.JPG,AMNE23.JPG,,,,,,,,,,,,,0,8,8,1,,,,,,,,,,,AMNE01.jpg,AMSA03.jpg,AMNE13.jpg,AMSA02.jpg,AMNE01.jpg,MN,1,num_8,32,num_2,2.29997232015,,,2017_May_18_1057,60.0067940433,FEMA4ImagesEEG,001,100501,
AMNE23.JPG,AMNE24.JPG,AMNE22.JPG,AMSA24.JPG,AMSA22.JPG,AMSA23.JPG,,,,,,,,,,,,,0,9,9,9,,,,,,,,,,,AMSA16.jpg,AMSA02.jpg,AMNE17.jpg,AMNE02.jpg,AMNE02.jpg,MN,1,num_4,16,num_4,1.65009040055,,,2017_May_18_1057,60.0067940433,FEMA4ImagesEEG,001,100501,
AFSA21.JPG,AFNE23.JPG,AFNE21.JPG,AFSA25.JPG,AFNE25.JPG,AFSA23.JPG,,,,,,,,,,,,,,,,,0,0,0,4,,,,,,,AFNE20.jpg,AFSA02.jpg,AFNE16.jpg,AFSA07.jpg,AFNE16.jpg,FN,3,num_2,32,num_8,4.24982976729,,,2017_May_18_1057,60.0067940433,FEMA4ImagesEEG,001,100501,
AMNE23.JPG,AMNE24.JPG,AMNE22.JPG,AMSA24.JPG,AMSA22.JPG,AMSA23.JPG,,,,,,,,,,,,,,,,,0,1,1,9,,,,,,,AFSA07.jpg,AFNE14.jpg,AFSA16.jpg,AFNE13.jpg,AFSA07.jpg,FS,4,num_8,32,num_2,2.41660393529,,,2017_May_18_1057,60.0067940433,FEMA4ImagesEEG,001,100501,
AFNE23.JPG,AFNE24.JPG,AFNE22.JPG,AFSA24.JPG,AFSA22.JPG,AFSA23.JPG,,,,,,,,,,,,,,,,,0,2,2,8,,,,,,,AFSA08.jpg,AFNE15.jpg,AFNE17.jpg,AFSA16.jpg,AFSA16.jpg,FS,4,num_4,16,num_4,2.56661751862,,,2017_May_18_1057,60.0067940433,FEMA4ImagesEEG,001,100501,
AFSA25.JPG,AFNE24.JPG,AFSA24.JPG,AFNE21.JPG,AFSA21.JPG,AFNE25.JPG,,,,,,,,,,,,,,,,,0,3,3,2,,,,,,,AFSA05.jpg,AFNE17.jpg,AFSA02.jpg,AFNE16.jpg,AFSA05.jpg,FS,4,num_8,16,num_8,0.866749246503,,,2017_May_18_1057,60.0067940433,FEMA4ImagesEEG,001,100501,
AFSA21.JPG,AFNE22.JPG,AFNE21.JPG,AFSA23.JPG,AFSA22.JPG,AFNE23.JPG,,,,,,,,,,,,,,,,,0,4,4,0,,,,,,,AFNE06.jpg,AFSA19.jpg,AFNE03.jpg,AFSA08.jpg,AFNE06.jpg,FN,3,num_8,32,num_2,4.34988875137,,,2017_May_18_1057,60.0067940433,FEMA4ImagesEEG,001,100501,
AFNE22.JPG,AFSA24.JPG,AFSA22.JPG,AFNE25.JPG,AFNE24.JPG,AFSA25.JPG,,,,,,,,,,,,,,,,,0,5,5,6,,,,,,,AFSA16.jpg,AFNE18.jpg,AFSA18.jpg,AFNE02.jpg,AFNE02.jpg,FN,3,num_4,16,num_4,1.81673755553,,,2017_May_18_1057,60.0067940433,FEMA4ImagesEEG,001,100501,
AMNE22.JPG,AMSA24.JPG,AMSA22.JPG,AMNE25.JPG,AMNE24.JPG,AMSA25.JPG,,,,,,,,,,,,,,,,,0,6,6,7,,,,,,,AFSA03.jpg,AFNE13.jpg,AFSA01.jpg,AFNE16.jpg,AFNE13.jpg,FN,3,num_6,32,num_2,4.8164206645,,,2017_May_18_1057,60.0067940433,FEMA4ImagesEEG,001,100501,
AMSA21.JPG,AMNE22.JPG,AMNE21.JPG,AMSA23.JPG,AMSA22.JPG,AMNE23.JPG,,,,,,,,,,,,,,,,,0,7,7,1,,,,,,,AFSA07.jpg,AFSA11.jpg,AFNE05.jpg,AFNE18.jpg,AFSA11.jpg,FS,4,num_6,16,num_6,0.483483979522,,,2017_May_18_1057,60.0067940433,FEMA4ImagesEEG,001,100501,
AMSA25.JPG,AMNE24.JPG,AMSA24.JPG,AMNE26.JPG,AMSA21.JPG,AMNE25.JPG,,,,,,,,,,,,,,,,,0,8,8,3,,,,,,,AFSA10.jpg,AFNE08.jpg,AFNE06.jpg,AFSA09.jpg,AFSA10.jpg,FS,4,num_8,16,num_8,3.68320647535,,,2017_May_18_1057,60.0067940433,FEMA4ImagesEEG,001,100501,
AMSA21.JPG,AMNE23.JPG,AMNE21.JPG,AMSA25.JPG,AMNE25.JPG,AMSA23.JPG,,,,,,,,,,,,,,,,,0,9,9,5,,,,,,,AFSA06.jpg,AFNE12.jpg,AFSA15.jpg,AFNE16.jpg,AFSA06.jpg,FS,4,num_8,16,num_8,0.983586455928,,,2017_May_18_1057,60.0067940433,FEMA4ImagesEEG,001,100501,
AMSA21.JPG,AMNE23.JPG,AMNE21.JPG,AMSA25.JPG,AMNE25.JPG,AMSA23.JPG,,,,,,,,,,,,,,,,,,,,,0,0,0,5,,,AMNE15.jpg,AMSA10.jpg,AMNE08.jpg,AMSA19.jpg,AMNE15.jpg,MN,1,num_8,32,num_4,1.30016027373,,,2017_May_18_1057,60.0067940433,FEMA4ImagesEEG,001,100501,
AFNE22.JPG,AFSA24.JPG,AFSA22.JPG,AFNE25.JPG,AFNE24.JPG,AFSA25.JPG,,,,,,,,,,,,,,,,,,,,,0,1,1,6,,,AMSA08.jpg,AMSA05.jpg,AMNE04.jpg,AMNE06.jpg,AMSA08.jpg,MS,2,num_8,32,num_2,2.06663082933,,,2017_May_18_1057,60.0067940433,FEMA4ImagesEEG,001,100501,
AMSA21.JPG,AMNE22.JPG,AMNE21.JPG,AMSA23.JPG,AMSA22.JPG,AMNE23.JPG,,,,,,,,,,,,,,,,,,,,,0,2,2,1,,,AMNE19.jpg,AMSA07.jpg,AMNE12.jpg,AMSA14.jpg,AMSA14.jpg,MS,2,num_4,16,num_4,1.28344427193,,,2017_May_18_1057,60.0067940433,FEMA4ImagesEEG,001,100501,
AFNE23.JPG,AFNE24.JPG,AFNE22.JPG,AFSA24.JPG,AFSA22.JPG,AFSA23.JPG,,,,,,,,,,,,,,,,,,,,,0,3,3,8,,,AMSA05.jpg,AMNE13.jpg,AMSA10.jpg,AMNE10.jpg,AMSA05.jpg,MS,2,num_8,32,num_6,4.88285969135,,,2017_May_18_1057,60.0067940433,FEMA4ImagesEEG,001,100501,
AFSA25.JPG,AFNE24.JPG,AFSA24.JPG,AFNE21.JPG,AFSA21.JPG,AFNE25.JPG,,,,,,,,,,,,,,,,,,,,,0,4,4,2,,,AMNE13.jpg,AMNE17.jpg,AMSA14.jpg,AMSA01.jpg,AMNE17.jpg,MN,1,num_6,32,num_4,1.33345435919,,,2017_May_18_1057,60.0067940433,FEMA4ImagesEEG,001,100501,
AMSA25.JPG,AMNE24.JPG,AMSA24.JPG,AMNE26.JPG,AMSA21.JPG,AMNE25.JPG,,,,,,,,,,,,,,,,,,,,,0,5,5,3,,,AMNE04.jpg,AMSA13.jpg,AMNE16.jpg,AMSA10.jpg,AMSA10.jpg,MS,2,num_4,16,num_4,0.966765251433,,,2017_May_18_1057,60.0067940433,FEMA4ImagesEEG,001,100501,
AMNE23.JPG,AMNE24.JPG,AMNE22.JPG,AMSA24.JPG,AMSA22.JPG,AMSA23.JPG,,,,,,,,,,,,,,,,,,,,,0,6,6,9,,,AMNE19.jpg,AMSA02.jpg,AMSA19.jpg,AMNE14.jpg,AMNE14.jpg,MN,1,num_4,32,num_2,1.90003980382,,,2017_May_18_1057,60.0067940433,FEMA4ImagesEEG,001,100501,
AMNE22.JPG,AMSA24.JPG,AMSA22.JPG,AMNE25.JPG,AMNE24.JPG,AMSA25.JPG,,,,,,,,,,,,,,,,,,,,,0,7,7,7,,,AMNE01.jpg,AMSA08.jpg,AMNE14.jpg,AMSA09.jpg,AMNE01.jpg,MN,1,num_8,32,num_4,1.56739884104,,,2017_May_18_1057,60.0067940433,FEMA4ImagesEEG,001,100501,
AFSA21.JPG,AFNE22.JPG,AFNE21.JPG,AFSA23.JPG,AFSA22.JPG,AFNE23.JPG,,,,,,,,,,,,,,,,,,,,,0,8,8,0,,,AMSA15.jpg,AMNE10.jpg,AMNE17.jpg,AMSA14.jpg,AMSA15.jpg,MS,2,num_8,16,num_8,1.05019900308,,,2017_May_18_1057,60.0067940433,FEMA4ImagesEEG,001,100501,
AFSA21.JPG,AFNE23.JPG,AFNE21.JPG,AFSA25.JPG,AFNE25.JPG,AFSA23.JPG,,,,,,,,,,,,,,,,,,,,,0,9,9,4,,,AMSA20.jpg,AMSA01.jpg,AMNE01.jpg,AMNE12.jpg,AMSA20.jpg,MS,2,num_8,16,num_8,1.29992036028,,,2017_May_18_1057,60.0067940433,FEMA4ImagesEEG,001,100501,
,,,,,,,,,,,,,,,,,,,,,,,,,,,,,,,,,,,,,,,,,,,space,12.4325479161,2017_May_18_1057,60.0067940433,FEMA4ImagesEEG,001,100501,
AFNE01.JPG,AFNE01.JPG,AFNE01.JPG,AFNE01.JPG,AFNE01.JPG,AFNE01.JPG,0,0,0,7,,,,,,,,,,,,,,,,,,,,,,,AFNE06.jpg,AFSA18.jpg,AFSA09.jpg,AFNE15.jpg,AFNE15.jpg,FN,3,num_4,32,num_6,1.11677081627,,,2017_May_18_1057,60.0067940433,FEMA4ImagesEEG,001,100501,
AFNE01.JPG,AFNE01.JPG,AFNE01.JPG,AFNE01.JPG,AFNE01.JPG,AFNE01.JPG,0,1,1,1,,,,,,,,,,,,,,,,,,,,,,,AFNE19.jpg,AFNE13.jpg,AFSA17.jpg,AFSA06.jpg,AFSA06.jpg,FS,4,num_4,16,num_4,0.983412294154,,,2017_May_18_1057,60.0067940433,FEMA4ImagesEEG,001,100501,
AFNE01.JPG,AFNE01.JPG,AFNE01.JPG,AFNE01.JPG,AFNE01.JPG,AFNE01.JPG,0,2,2,6,,,,,,,,,,,,,,,,,,,,,,,AFNE06.jpg,AFNE02.jpg,AFSA13.jpg,AFSA14.jpg,AFSA14.jpg,FS,4,num_4,16,num_4,0.933481750384,,,2017_May_18_1057,60.0067940433,FEMA4ImagesEEG,001,100501,
AFNE01.JPG,AFNE01.JPG,AFNE01.JPG,AFNE01.JPG,AFNE01.JPG,AFNE01.JPG,0,3,3,4,,,,,,,,,,,,,,,,,,,,,,,AFNE11.jpg,AFNE10.jpg,AFSA14.jpg,AFSA02.jpg,AFSA02.jpg,FS,4,num_4,16,num_4,1.11675285482,,,2017_May_18_1057,60.0067940433,FEMA4ImagesEEG,001,100501,
AFNE01.JPG,AFNE01.JPG,AFNE01.JPG,AFNE01.JPG,AFNE01.JPG,AFNE01.JPG,0,4,4,2,,,,,,,,,,,,,,,,,,,,,,,AFSA17.jpg,AFNE03.jpg,AFSA12.jpg,AFNE15.jpg,AFSA17.jpg,FS,4,num_8,16,num_8,1.21675218127,,,2017_May_18_1057,60.0067940433,FEMA4ImagesEEG,001,100501,
AFNE01.JPG,AFNE01.JPG,AFNE01.JPG,AFNE01.JPG,AFNE01.JPG,AFNE01.JPG,0,5,5,3,,,,,,,,,,,,,,,,,,,,,,,AFSA17.jpg,AFNE15.jpg,AFSA11.jpg,AFNE03.jpg,AFNE15.jpg,FN,3,num_6,16,num_6,2.25001002313,,,2017_May_18_1057,60.0067940433,FEMA4ImagesEEG,001,100501,
AFNE01.JPG,AFNE01.JPG,AFNE01.JPG,AFNE01.JPG,AFNE01.JPG,AFNE01.JPG,0,6,6,9,,,,,,,,,,,,,,,,,,,,,,,AFNE08.jpg,AFSA04.jpg,AFNE14.jpg,AFSA07.jpg,AFNE14.jpg,FN,3,num_2,32,num_8,1.23357851761,,,2017_May_18_1057,60.0067940433,FEMA4ImagesEEG,001,100501,
AFNE01.JPG,AFNE01.JPG,AFNE01.JPG,AFNE01.JPG,AFNE01.JPG,AFNE01.JPG,0,7,7,5,,,,,,,,,,,,,,,,,,,,,,,AFNE14.jpg,AFSA16.jpg,AFNE17.jpg,AFSA11.jpg,AFNE17.jpg,FN,3,num_2,16,num_2,1.71682579108,,,2017_May_18_1057,60.0067940433,FEMA4ImagesEEG,001,100501,
AFNE01.JPG,AFNE01.JPG,AFNE01.JPG,AFNE01.JPG,AFNE01.JPG,AFNE01.JPG,0,8,8,0,,,,,,,,,,,,,,,,,,,,,,,AFSA01.jpg,AFNE18.jpg,AFSA03.jpg,AFNE16.jpg,AFSA01.jpg,FS,4,num_8,32,num_6,1.0667793319,,,2017_May_18_1057,60.0067940433,FEMA4ImagesEEG,001,100501,
AFNE01.JPG,AFNE01.JPG,AFNE01.JPG,AFNE01.JPG,AFNE01.JPG,AFNE01.JPG,0,9,9,8,,,,,,,,,,,,,,,,,,,,,,,AFNE15.jpg,AFNE18.jpg,AFSA06.jpg,AFSA18.jpg,AFNE18.jpg,FN,3,num_6,32,num_2,1.10007854921,,,2017_May_18_1057,60.0067940433,FEMA4ImagesEEG,001,100501,
AFNE01.JPG,AFNE01.JPG,AFNE01.JPG,AFNE01.JPG,AFNE01.JPG,AFNE01.JPG,1,0,10,1,,,,,,,,,,,,,,,,,,,,,,,AFSA01.jpg,AFNE02.jpg,AFNE11.jpg,AFSA05.jpg,AFNE11.jpg,FN,3,num_2,16,num_2,1.98338823866,,,2017_May_18_1057,60.0067940433,FEMA4ImagesEEG,001,100501,
AFNE01.JPG,AFNE01.JPG,AFNE01.JPG,AFNE01.JPG,AFNE01.JPG,AFNE01.JPG,1,1,11,6,,,,,,,,,,,,,,,,,,,,,,,AFNE14.jpg,AFSA19.jpg,AFNE01.jpg,AFSA05.jpg,AFNE01.jpg,FN,3,num_2,32,num_8,1.1998090956,,,2017_May_18_1057,60.0067940433,FEMA4ImagesEEG,001,100501,
AFNE01.JPG,AFNE01.JPG,AFNE01.JPG,AFNE01.JPG,AFNE01.JPG,AFNE01.JPG,1,2,12,8,,,,,,,,,,,,,,,,,,,,,,,AFSA06.jpg,AFNE03.jpg,AFSA09.jpg,AFNE02.jpg,AFSA09.jpg,FS,4,num_2,32,num_4,1.46673750742,,,2017_May_18_1057,60.0067940433,FEMA4ImagesEEG,001,100501,
AFNE01.JPG,AFNE01.JPG,AFNE01.JPG,AFNE01.JPG,AFNE01.JPG,AFNE01.JPG,1,3,13,9,,,,,,,,,,,,,,,,,,,,,,,AFSA20.jpg,AFSA17.jpg,AFNE12.jpg,AFNE08.jpg,AFNE08.jpg,FN,3,num_4,32,num_8,4.49989335398,,,2017_May_18_1057,60.0067940433,FEMA4ImagesEEG,001,100501,
AFNE01.JPG,AFNE01.JPG,AFNE01.JPG,AFNE01.JPG,AFNE01.JPG,AFNE01.JPG,1,4,14,7,,,,,,,,,,,,,,,,,,,,,,,AFSA11.jpg,AFNE11.jpg,AFNE09.jpg,AFSA20.jpg,AFNE09.jpg,FN,3,num_2,32,num_6,0.533449804687,,,2017_May_18_1057,60.0067940433,FEMA4ImagesEEG,001,100501,
AFNE01.JPG,AFNE01.JPG,AFNE01.JPG,AFNE01.JPG,AFNE01.JPG,AFNE01.JPG,1,5,15,5,,,,,,,,,,,,,,,,,,,,,,,AFNE09.jpg,AFSA18.jpg,AFNE14.jpg,AFSA12.jpg,AFSA12.jpg,FS,4,num_4,16,num_4,0.800129963813,,,2017_May_18_1057,60.0067940433,FEMA4ImagesEEG,001,100501,
AFNE01.JPG,AFNE01.JPG,AFNE01.JPG,AFNE01.JPG,AFNE01.JPG,AFNE01.JPG,1,6,16,3,,,,,,,,,,,,,,,,,,,,,,,AFSA17.jpg,AFNE03.jpg,AFSA14.jpg,AFNE06.jpg,AFNE03.jpg,FN,3,num_6,32,num_8,1.15012680451,,,2017_May_18_1057,60.0067940433,FEMA4ImagesEEG,001,100501,
AFNE01.JPG,AFNE01.JPG,AFNE01.JPG,AFNE01.JPG,AFNE01.JPG,AFNE01.JPG,1,7,17,4,,,,,,,,,,,,,,,,,,,,,,,AFNE08.jpg,AFSA20.jpg,AFSA04.jpg,AFNE10.jpg,AFSA20.jpg,FS,4,num_6,16,num_6,0.433469722644,,,2017_May_18_1057,60.0067940433,FEMA4ImagesEEG,001,100501,
AFNE01.JPG,AFNE01.JPG,AFNE01.JPG,AFNE01.JPG,AFNE01.JPG,AFNE01.JPG,1,8,18,2,,,,,,,,,,,,,,,,,,,,,,,AFSA09.jpg,AFSA18.jpg,AFNE06.jpg,AFNE11.jpg,AFSA09.jpg,FS,4,num_8,48,None,,,,2017_May_18_1057,60.0067940433,FEMA4ImagesEEG,001,100501,
AFNE01.JPG,AFNE01.JPG,AFNE01.JPG,AFNE01.JPG,AFNE01.JPG,AFNE01.JPG,1,9,19,0,,,,,,,,,,,,,,,,,,,,,,,AFSA19.jpg,AFNE06.jpg,AFSA05.jpg,AFNE01.jpg,AFNE01.jpg,FN,3,num_4,16,num_4,0.716775434907,,,2017_May_18_1057,60.0067940433,FEMA4ImagesEEG,001,100501,
AFNE01.JPG,AFNE01.JPG,AFNE01.JPG,AFNE01.JPG,AFNE01.JPG,AFNE01.JPG,2,0,20,4,,,,,,,,,,,,,,,,,,,,,,,AFSA13.jpg,AFSA15.jpg,AFNE16.jpg,AFNE02.jpg,AFSA15.jpg,FS,4,num_6,16,num_6,1.08339205547,,,2017_May_18_1057,60.0067940433,FEMA4ImagesEEG,001,100501,
AFNE01.JPG,AFNE01.JPG,AFNE01.JPG,AFNE01.JPG,AFNE01.JPG,AFNE01.JPG,2,1,21,8,,,,,,,,,,,,,,,,,,,,,,,AFSA17.jpg,AFNE11.jpg,AFSA08.jpg,AFNE04.jpg,AFSA17.jpg,FS,4,num_8,16,num_8,0.750168308266,,,2017_May_18_1057,60.0067940433,FEMA4ImagesEEG,001,100501,
AFNE01.JPG,AFNE01.JPG,AFNE01.JPG,AFNE01.JPG,AFNE01.JPG,AFNE01.JPG,2,2,22,5,,,,,,,,,,,,,,,,,,,,,,,AFSA13.jpg,AFSA14.jpg,AFNE18.jpg,AFNE02.jpg,AFNE18.jpg,FN,3,num_2,16,num_2,2.26659740822,,,2017_May_18_1057,60.0067940433,FEMA4ImagesEEG,001,100501,
AFNE01.JPG,AFNE01.JPG,AFNE01.JPG,AFNE01.JPG,AFNE01.JPG,AFNE01.JPG,2,3,23,3,,,,,,,,,,,,,,,,,,,,,,,AFSA12.jpg,AFNE07.jpg,AFNE01.jpg,AFSA17.jpg,AFSA17.jpg,FS,4,num_4,32,num_8,0.666788120187,,,2017_May_18_1057,60.0067940433,FEMA4ImagesEEG,001,100501,
AFNE01.JPG,AFNE01.JPG,AFNE01.JPG,AFNE01.JPG,AFNE01.JPG,AFNE01.JPG,2,4,24,2,,,,,,,,,,,,,,,,,,,,,,,AFNE13.jpg,AFNE16.jpg,AFSA16.jpg,AFSA05.jpg,AFSA16.jpg,FS,4,num_2,32,num_4,0.933462185247,,,2017_May_18_1057,60.0067940433,FEMA4ImagesEEG,001,100501,
AFNE01.JPG,AFNE01.JPG,AFNE01.JPG,AFNE01.JPG,AFNE01.JPG,AFNE01.JPG,2,5,25,0,,,,,,,,,,,,,,,,,,,,,,,AFSA02.jpg,AFNE03.jpg,AFNE17.jpg,AFSA15.jpg,AFSA15.jpg,FS,4,num_4,16,num_4,1.31667934124,,,2017_May_18_1057,60.0067940433,FEMA4ImagesEEG,001,100501,
AFNE01.JPG,AFNE01.JPG,AFNE01.JPG,AFNE01.JPG,AFNE01.JPG,AFNE01.JPG,2,6,26,1,,,,,,,,,,,,,,,,,,,,,,,AFNE09.jpg,AFSA18.jpg,AFNE13.jpg,AFSA14.jpg,AFNE09.jpg,FN,3,num_8,48,None,,,,2017_May_18_1057,60.0067940433,FEMA4ImagesEEG,001,100501,
AFNE01.JPG,AFNE01.JPG,AFNE01.JPG,AFNE01.JPG,AFNE01.JPG,AFNE01.JPG,2,7,27,6,,,,,,,,,,,,,,,,,,,,,,,AFNE05.jpg,AFNE07.jpg,AFSA03.jpg,AFSA14.jpg,AFNE07.jpg,FN,3,num_6,16,num_6,0.700118128501,,,2017_May_18_1057,60.0067940433,FEMA4ImagesEEG,001,100501,
AFNE01.JPG,AFNE01.JPG,AFNE01.JPG,AFNE01.JPG,AFNE01.JPG,AFNE01.JPG,2,8,28,7,,,,,,,,,,,,,,,,,,,,,,,AFSA16.jpg,AFSA11.jpg,AFNE11.jpg,AFNE10.jpg,AFSA16.jpg,FS,4,num_8,32,num_2,1.43340461244,,,2017_May_18_1057,60.0067940433,FEMA4ImagesEEG,001,100501,
AFNE01.JPG,AFNE01.JPG,AFNE01.JPG,AFNE01.JPG,AFNE01.JPG,AFNE01.JPG,2,9,29,9,,,,,,,,,,,,,,,,,,,,,,,AFSA13.jpg,AFNE15.jpg,AFNE04.jpg,AFSA15.jpg,AFSA15.jpg,FS,4,num_4,32,num_6,0.983434745955,,,2017_May_18_1057,60.0067940433,FEMA4ImagesEEG,001,100501,
AFNE01.JPG,AFNE01.JPG,AFNE01.JPG,AFNE01.JPG,AFNE01.JPG,AFNE01.JPG,3,0,30,4,,,,,,,,,,,,,,,,,,,,,,,AFSA17.jpg,AFNE06.jpg,AFNE15.jpg,AFSA18.jpg,AFSA18.jpg,FS,4,num_4,16,num_4,0.950081323608,,,2017_May_18_1057,60.0067940433,FEMA4ImagesEEG,001,100501,
AFNE01.JPG,AFNE01.JPG,AFNE01.JPG,AFNE01.JPG,AFNE01.JPG,AFNE01.JPG,3,1,31,7,,,,,,,,,,,,,,,,,,,,,,,AFSA10.jpg,AFNE05.jpg,AFNE11.jpg,AFSA06.jpg,AFSA10.jpg,FS,4,num_8,32,num_2,2.41666359291,,,2017_May_18_1057,60.0067940433,FEMA4ImagesEEG,001,100501,
AFNE01.JPG,AFNE01.JPG,AFNE01.JPG,AFNE01.JPG,AFNE01.JPG,AFNE01.JPG,3,2,32,9,,,,,,,,,,,,,,,,,,,,,,,AFNE02.jpg,AFNE04.jpg,AFSA14.jpg,AFSA06.jpg,AFSA06.jpg,FS,4,num_4,32,num_2,1.28342983863,,,2017_May_18_1057,60.0067940433,FEMA4ImagesEEG,001,100501,
AFNE01.JPG,AFNE01.JPG,AFNE01.JPG,AFNE01.JPG,AFNE01.JPG,AFNE01.JPG,3,3,33,5,,,,,,,,,,,,,,,,,,,,,,,AFNE15.jpg,AFSA19.jpg,AFNE11.jpg,AFSA16.jpg,AFSA19.jpg,FS,4,num_6,16,num_6,1.13375688107,,,2017_May_18_1057,60.0067940433,FEMA4ImagesEEG,001,100501,
AFNE01.JPG,AFNE01.JPG,AFNE01.JPG,AFNE01.JPG,AFNE01.JPG,AFNE01.JPG,3,4,34,6,,,,,,,,,,,,,,,,,,,,,,,AFNE09.jpg,AFSA10.jpg,AFNE15.jpg,AFSA15.jpg,AFSA15.jpg,FS,4,num_4,32,num_6,2.63338434167,,,2017_May_18_1057,60.0067940433,FEMA4ImagesEEG,001,100501,
AFNE01.JPG,AFNE01.JPG,AFNE01.JPG,AFNE01.JPG,AFNE01.JPG,AFNE01.JPG,3,5,35,3,,,,,,,,,,,,,,,,,,,,,,,AFNE01.jpg,AFNE03.jpg,AFSA05.jpg,AFSA15.jpg,AFNE01.jpg,FN,3,num_8,32,num_4,2.48341662413,,,2017_May_18_1057,60.0067940433,FEMA4ImagesEEG,001,100501,
AFNE01.JPG,AFNE01.JPG,AFNE01.JPG,AFNE01.JPG,AFNE01.JPG,AFNE01.JPG,3,6,36,8,,,,,,,,,,,,,,,,,,,,,,,AFSA12.jpg,AFNE17.jpg,AFSA19.jpg,AFNE14.jpg,AFNE17.jpg,FN,3,num_6,32,num_8,1.1000913788,,,2017_May_18_1057,60.0067940433,FEMA4ImagesEEG,001,100501,
AFNE01.JPG,AFNE01.JPG,AFNE01.JPG,AFNE01.JPG,AFNE01.JPG,AFNE01.JPG,3,7,37,1,,,,,,,,,,,,,,,,,,,,,,,AFSA19.jpg,AFSA08.jpg,AFNE14.jpg,AFNE13.jpg,AFSA08.jpg,FS,4,num_6,32,num_8,0.516815591545,,,2017_May_18_1057,60.0067940433,FEMA4ImagesEEG,001,100501,
AFNE01.JPG,AFNE01.JPG,AFNE01.JPG,AFNE01.JPG,AFNE01.JPG,AFNE01.JPG,3,8,38,2,,,,,,,,,,,,,,,,,,,,,,,AFNE13.jpg,AFNE19.jpg,AFSA08.jpg,AFSA17.jpg,AFSA08.jpg,FS,4,num_2,32,num_4,0.450312095971,,,2017_May_18_1057,60.0067940433,FEMA4ImagesEEG,001,100501,
AFNE01.JPG,AFNE01.JPG,AFNE01.JPG,AFNE01.JPG,AFNE01.JPG,AFNE01.JPG,3,9,39,0,,,,,,,,,,,,,,,,,,,,,,,AFNE19.jpg,AFSA15.jpg,AFSA17.jpg,AFNE04.jpg,AFSA17.jpg,FS,4,num_2,32,num_6,0.916791087016,,,2017_May_18_1057,60.0067940433,FEMA4ImagesEEG,001,100501,
AFNE01.JPG,AFNE01.JPG,AFNE01.JPG,AFNE01.JPG,AFNE01.JPG,AFNE01.JPG,4,0,40,8,,,,,,,,,,,,,,,,,,,,,,,AFSA19.jpg,AFSA10.jpg,AFNE13.jpg,AFNE06.jpg,AFSA10.jpg,FS,4,num_6,32,num_2,1.25009854735,,,2017_May_18_1057,60.0067940433,FEMA4ImagesEEG,001,100501,
AFNE01.JPG,AFNE01.JPG,AFNE01.JPG,AFNE01.JPG,AFNE01.JPG,AFNE01.JPG,4,1,41,4,,,,,,,,,,,,,,,,,,,,,,,AFNE01.jpg,AFSA05.jpg,AFNE05.jpg,AFSA13.jpg,AFSA05.jpg,FS,4,num_6,32,num_4,1.80002411964,,,2017_May_18_1057,60.0067940433,FEMA4ImagesEEG,001,100501,
AFNE01.JPG,AFNE01.JPG,AFNE01.JPG,AFNE01.JPG,AFNE01.JPG,AFNE01.JPG,4,2,42,7,,,,,,,,,,,,,,,,,,,,,,,AFNE10.jpg,AFSA15.jpg,AFSA11.jpg,AFNE11.jpg,AFNE10.jpg,FN,3,num_8,16,num_8,1.00023157422,,,2017_May_18_1057,60.0067940433,FEMA4ImagesEEG,001,100501,
AFNE01.JPG,AFNE01.JPG,AFNE01.JPG,AFNE01.JPG,AFNE01.JPG,AFNE01.JPG,4,3,43,2,,,,,,,,,,,,,,,,,,,,,,,AFSA01.jpg,AFNE17.jpg,AFSA11.jpg,AFNE09.jpg,AFSA11.jpg,FS,4,num_2,32,num_6,1.31668671826,,,2017_May_18_1057,60.0067940433,FEMA4ImagesEEG,001,100501,
AFNE01.JPG,AFNE01.JPG,AFNE01.JPG,AFNE01.JPG,AFNE01.JPG,AFNE01.JPG,4,4,44,3,,,,,,,,,,,,,,,,,,,,,,,AFSA11.jpg,AFNE18.jpg,AFSA08.jpg,AFNE05.jpg,AFNE18.jpg,FN,3,num_6,16,num_6,1.43339114136,,,2017_May_18_1057,60.0067940433,FEMA4ImagesEEG,001,100501,
AFNE01.JPG,AFNE01.JPG,AFNE01.JPG,AFNE01.JPG,AFNE01.JPG,AFNE01.JPG,4,5,45,0,,,,,,,,,,,,,,,,,,,,,,,AFNE18.jpg,AFSA04.jpg,AFSA06.jpg,AFNE05.jpg,AFSA04.jpg,FS,4,num_6,32,num_4,2.08340360211,,,2017_May_18_1057,60.0067940433,FEMA4ImagesEEG,001,100501,
AFNE01.JPG,AFNE01.JPG,AFNE01.JPG,AFNE01.JPG,AFNE01.JPG,AFNE01.JPG,4,6,46,6,,,,,,,,,,,,,,,,,,,,,,,AFNE15.jpg,AFNE13.jpg,AFSA08.jpg,AFSA20.jpg,AFSA20.jpg,FS,4,num_4,32,num_2,1.88334400863,,,2017_May_18_1057,60.0067940433,FEMA4ImagesEEG,001,100501,
AFNE01.JPG,AFNE01.JPG,AFNE01.JPG,AFNE01.JPG,AFNE01.JPG,AFNE01.JPG,4,7,47,9,,,,,,,,,,,,,,,,,,,,,,,AFNE17.jpg,AFSA13.jpg,AFSA03.jpg,AFNE08.jpg,AFNE17.jpg,FN,3,num_8,32,num_4,0.816784704293,,,2017_May_18_1057,60.0067940433,FEMA4ImagesEEG,001,100501,
AFNE01.JPG,AFNE01.JPG,AFNE01.JPG,AFNE01.JPG,AFNE01.JPG,AFNE01.JPG,4,8,48,1,,,,,,,,,,,,,,,,,,,,,,,AFSA17.jpg,AFNE19.jpg,AFSA04.jpg,AFNE14.jpg,AFNE19.jpg,FN,3,num_6,16,num_6,0.700133203281,,,2017_May_18_1057,60.0067940433,FEMA4ImagesEEG,001,100501,
AFNE01.JPG,AFNE01.JPG,AFNE01.JPG,AFNE01.JPG,AFNE01.JPG,AFNE01.JPG,4,9,49,5,,,,,,,,,,,,,,,,,,,,,,,AFNE01.jpg,AFSA08.jpg,AFSA16.jpg,AFNE15.jpg,AFSA08.jpg,FS,4,num_6,32,num_4,1.01674903803,,,2017_May_18_1057,60.0067940433,FEMA4ImagesEEG,001,100501,
AFNE01.JPG,AFNE01.JPG,AFNE01.JPG,AFNE01.JPG,AFNE01.JPG,AFNE01.JPG,5,0,50,6,,,,,,,,,,,,,,,,,,,,,,,AFNE05.jpg,AFNE10.jpg,AFSA12.jpg,AFSA01.jpg,AFNE10.jpg,FN,3,num_6,32,num_4,3.11655784496,,,2017_May_18_1057,60.0067940433,FEMA4ImagesEEG,001,100501,
AFNE01.JPG,AFNE01.JPG,AFNE01.JPG,AFNE01.JPG,AFNE01.JPG,AFNE01.JPG,5,1,51,9,,,,,,,,,,,,,,,,,,,,,,,AFNE02.jpg,AFSA15.jpg,AFNE05.jpg,AFSA13.jpg,AFSA15.jpg,FS,4,num_6,16,num_6,2.98328656411,,,2017_May_18_1057,60.0067940433,FEMA4ImagesEEG,001,100501,
AFNE01.JPG,AFNE01.JPG,AFNE01.JPG,AFNE01.JPG,AFNE01.JPG,AFNE01.JPG,5,2,52,8,,,,,,,,,,,,,,,,,,,,,,,AFNE05.jpg,AFSA15.jpg,AFSA09.jpg,AFNE10.jpg,AFSA09.jpg,FS,4,num_2,32,num_4,0.699966097789,,,2017_May_18_1057,60.0067940433,FEMA4ImagesEEG,001,100501,
AFNE01.JPG,AFNE01.JPG,AFNE01.JPG,AFNE01.JPG,AFNE01.JPG,AFNE01.JPG,5,3,53,0,,,,,,,,,,,,,,,,,,,,,,,AFNE16.jpg,AFSA09.jpg,AFNE14.jpg,AFSA08.jpg,AFNE16.jpg,FN,3,num_8,32,num_6,1.00008531682,,,2017_May_18_1057,60.0067940433,FEMA4ImagesEEG,001,100501,
AFNE01.JPG,AFNE01.JPG,AFNE01.JPG,AFNE01.JPG,AFNE01.JPG,AFNE01.JPG,5,4,54,1,,,,,,,,,,,,,,,,,,,,,,,AFNE10.jpg,AFSA04.jpg,AFSA03.jpg,AFNE12.jpg,AFSA04.jpg,FS,4,num_6,16,num_6,0.883494114911,,,2017_May_18_1057,60.0067940433,FEMA4ImagesEEG,001,100501,
AFNE01.JPG,AFNE01.JPG,AFNE01.JPG,AFNE01.JPG,AFNE01.JPG,AFNE01.JPG,5,5,55,7,,,,,,,,,,,,,,,,,,,,,,,AFSA17.jpg,AFSA07.jpg,AFNE16.jpg,AFNE17.jpg,AFSA17.jpg,FS,4,num_8,32,num_4,0.650123436761,,,2017_May_18_1057,60.0067940433,FEMA4ImagesEEG,001,100501,
AFNE01.JPG,AFNE01.JPG,AFNE01.JPG,AFNE01.JPG,AFNE01.JPG,AFNE01.JPG,5,6,56,4,,,,,,,,,,,,,,,,,,,,,,,AFNE01.jpg,AFSA20.jpg,AFNE16.jpg,AFSA13.jpg,AFSA13.jpg,FS,4,num_4,16,num_4,0.950279220124,,,2017_May_18_1057,60.0067940433,FEMA4ImagesEEG,001,100501,
AFNE01.JPG,AFNE01.JPG,AFNE01.JPG,AFNE01.JPG,AFNE01.JPG,AFNE01.JPG,5,7,57,3,,,,,,,,,,,,,,,,,,,,,,,AFSA18.jpg,AFNE19.jpg,AFSA06.jpg,AFNE02.jpg,AFSA18.jpg,FS,4,num_8,32,num_4,0.966772628439,,,2017_May_18_1057,60.0067940433,FEMA4ImagesEEG,001,100501,
AFNE01.JPG,AFNE01.JPG,AFNE01.JPG,AFNE01.JPG,AFNE01.JPG,AFNE01.JPG,5,8,58,2,,,,,,,,,,,,,,,,,,,,,,,AFSA11.jpg,AFNE08.jpg,AFSA14.jpg,AFNE13.jpg,AFNE13.jpg,FN,3,num_4,16,num_4,1.1997632298,,,2017_May_18_1057,60.0067940433,FEMA4ImagesEEG,001,100501,
AFNE01.JPG,AFNE01.JPG,AFNE01.JPG,AFNE01.JPG,AFNE01.JPG,AFNE01.JPG,5,9,59,5,,,,,,,,,,,,,,,,,,,,,,,AFSA05.jpg,AFNE02.jpg,AFSA15.jpg,AFNE10.jpg,AFNE10.jpg,FN,3,num_4,16,num_4,0.383551366976,,,2017_May_18_1057,60.0067940433,FEMA4ImagesEEG,001,100501,
,,,,,,,,,,,,,,,,,,,,,,,,,,,,,,,,,,,,,,,,,,,space,11.1323667943,2017_May_18_1057,60.0067940433,FEMA4ImagesEEG,001,100501,
AFNE01.JPG,AFNE01.JPG,AFNE01.JPG,AFNE01.JPG,AFNE01.JPG,AFNE01.JPG,,,,,0,0,0,8,,,,,,,,,,,,,,,,,,,AMSA04.jpg,AMNE20.jpg,AMNE08.jpg,AMSA02.jpg,AMNE20.jpg,MN,1,num_6,16,num_6,0.849978398168,,,2017_May_18_1057,60.0067940433,FEMA4ImagesEEG,001,100501,
AFNE01.JPG,AFNE01.JPG,AFNE01.JPG,AFNE01.JPG,AFNE01.JPG,AFNE01.JPG,,,,,0,1,1,7,,,,,,,,,,,,,,,,,,,AMNE20.jpg,AMNE17.jpg,AMSA13.jpg,AMSA19.jpg,AMSA19.jpg,MS,2,num_4,32,num_8,1.48340315308,,,2017_May_18_1057,60.0067940433,FEMA4ImagesEEG,001,100501,
AFNE01.JPG,AFNE01.JPG,AFNE01.JPG,AFNE01.JPG,AFNE01.JPG,AFNE01.JPG,,,,,0,2,2,4,,,,,,,,,,,,,,,,,,,AMSA07.jpg,AMNE16.jpg,AMNE02.jpg,AMSA08.jpg,AMNE16.jpg,MN,1,num_6,32,num_4,0.866733209506,,,2017_May_18_1057,60.0067940433,FEMA4ImagesEEG,001,100501,
AFNE01.JPG,AFNE01.JPG,AFNE01.JPG,AFNE01.JPG,AFNE01.JPG,AFNE01.JPG,,,,,0,3,3,6,,,,,,,,,,,,,,,,,,,AMNE17.jpg,AMSA11.jpg,AMSA07.jpg,AMNE09.jpg,AMNE17.jpg,MN,1,num_8,32,num_4,1.53339143001,,,2017_May_18_1057,60.0067940433,FEMA4ImagesEEG,001,100501,
AFNE01.JPG,AFNE01.JPG,AFNE01.JPG,AFNE01.JPG,AFNE01.JPG,AFNE01.JPG,,,,,0,4,4,1,,,,,,,,,,,,,,,,,,,AMSA07.jpg,AMSA20.jpg,AMNE16.jpg,AMNE06.jpg,AMNE16.jpg,MN,1,num_2,32,num_6,1.85000052923,,,2017_May_18_1057,60.0067940433,FEMA4ImagesEEG,001,100501,
AFNE01.JPG,AFNE01.JPG,AFNE01.JPG,AFNE01.JPG,AFNE01.JPG,AFNE01.JPG,,,,,0,5,5,0,,,,,,,,,,,,,,,,,,,AMNE02.jpg,AMSA03.jpg,AMSA12.jpg,AMNE10.jpg,AMNE10.jpg,MN,1,num_4,32,num_8,0.816631711365,,,2017_May_18_1057,60.0067940433,FEMA4ImagesEEG,001,100501,
AFNE01.JPG,AFNE01.JPG,AFNE01.JPG,AFNE01.JPG,AFNE01.JPG,AFNE01.JPG,,,,,0,6,6,2,,,,,,,,,,,,,,,,,,,AMNE13.jpg,AMSA19.jpg,AMSA13.jpg,AMNE10.jpg,AMSA13.jpg,MS,2,num_2,32,num_6,0.633465488863,,,2017_May_18_1057,60.0067940433,FEMA4ImagesEEG,001,100501,
AFNE01.JPG,AFNE01.JPG,AFNE01.JPG,AFNE01.JPG,AFNE01.JPG,AFNE01.JPG,,,,,0,7,7,5,,,,,,,,,,,,,,,,,,,AMSA05.jpg,AMNE09.jpg,AMSA13.jpg,AMNE05.jpg,AMNE09.jpg,MN,1,num_6,16,num_6,0.550141430256,,,2017_May_18_1057,60.0067940433,FEMA4ImagesEEG,001,100501,
AFNE01.JPG,AFNE01.JPG,AFNE01.JPG,AFNE01.JPG,AFNE01.JPG,AFNE01.JPG,,,,,0,8,8,3,,,,,,,,,,,,,,,,,,,AMNE01.jpg,AMSA11.jpg,AMNE15.jpg,AMSA16.jpg,AMNE01.jpg,MN,1,num_8,32,num_2,1.55006124529,,,2017_May_18_1057,60.0067940433,FEMA4ImagesEEG,001,100501,
AFNE01.JPG,AFNE01.JPG,AFNE01.JPG,AFNE01.JPG,AFNE01.JPG,AFNE01.JPG,,,,,0,9,9,9,,,,,,,,,,,,,,,,,,,AMSA18.jpg,AMSA16.jpg,AMNE12.jpg,AMNE11.jpg,AMNE12.jpg,MN,1,num_2,32,num_4,0.983477083617,,,2017_May_18_1057,60.0067940433,FEMA4ImagesEEG,001,100501,
AFNE01.JPG,AFNE01.JPG,AFNE01.JPG,AFNE01.JPG,AFNE01.JPG,AFNE01.JPG,,,,,1,0,10,0,,,,,,,,,,,,,,,,,,,AMNE15.jpg,AMNE18.jpg,AMSA07.jpg,AMSA10.jpg,AMSA07.jpg,MS,2,num_2,32,num_8,1.35009210046,,,2017_May_18_1057,60.0067940433,FEMA4ImagesEEG,001,100501,
AFNE01.JPG,AFNE01.JPG,AFNE01.JPG,AFNE01.JPG,AFNE01.JPG,AFNE01.JPG,,,,,1,1,11,2,,,,,,,,,,,,,,,,,,,AMNE02.jpg,AMSA19.jpg,AMSA06.jpg,AMNE16.jpg,AMSA19.jpg,MS,2,num_6,32,num_4,1.25012452726,,,2017_May_18_1057,60.0067940433,FEMA4ImagesEEG,001,100501,
AFNE01.JPG,AFNE01.JPG,AFNE01.JPG,AFNE01.JPG,AFNE01.JPG,AFNE01.JPG,,,,,1,2,12,7,,,,,,,,,,,,,,,,,,,AMSA13.jpg,AMNE04.jpg,AMSA01.jpg,AMNE08.jpg,AMSA01.jpg,MS,2,num_2,32,num_4,1.63340647273,,,2017_May_18_1057,60.0067940433,FEMA4ImagesEEG,001,100501,
AFNE01.JPG,AFNE01.JPG,AFNE01.JPG,AFNE01.JPG,AFNE01.JPG,AFNE01.JPG,,,,,1,3,13,9,,,,,,,,,,,,,,,,,,,AMNE05.jpg,AMSA08.jpg,AMNE06.jpg,AMSA10.jpg,AMSA10.jpg,MS,2,num_4,32,num_2,1.70004403759,,,2017_May_18_1057,60.0067940433,FEMA4ImagesEEG,001,100501,
AFNE01.JPG,AFNE01.JPG,AFNE01.JPG,AFNE01.JPG,AFNE01.JPG,AFNE01.JPG,,,,,1,4,14,3,,,,,,,,,,,,,,,,,,,AMSA02.jpg,AMNE16.jpg,AMSA01.jpg,AMNE10.jpg,AMSA02.jpg,MS,2,num_8,16,num_8,1.41673287273,,,2017_May_18_1057,60.0067940433,FEMA4ImagesEEG,001,100501,
AFNE01.JPG,AFNE01.JPG,AFNE01.JPG,AFNE01.JPG,AFNE01.JPG,AFNE01.JPG,,,,,1,5,15,8,,,,,,,,,,,,,,,,,,,AMNE10.jpg,AMSA18.jpg,AMSA08.jpg,AMNE04.jpg,AMSA08.jpg,MS,2,num_2,32,num_4,1.01691838869,,,2017_May_18_1057,60.0067940433,FEMA4ImagesEEG,001,100501,
AFNE01.JPG,AFNE01.JPG,AFNE01.JPG,AFNE01.JPG,AFNE01.JPG,AFNE01.JPG,,,,,1,6,16,6,,,,,,,,,,,,,,,,,,,AMSA08.jpg,AMSA07.jpg,AMNE18.jpg,AMNE16.jpg,AMSA08.jpg,MS,2,num_8,32,num_6,0.766766277797,,,2017_May_18_1057,60.0067940433,FEMA4ImagesEEG,001,100501,
AFNE01.JPG,AFNE01.JPG,AFNE01.JPG,AFNE01.JPG,AFNE01.JPG,AFNE01.JPG,,,,,1,7,17,5,,,,,,,,,,,,,,,,,,,AMNE15.jpg,AMSA09.jpg,AMSA14.jpg,AMNE07.jpg,AMSA14.jpg,MS,2,num_2,16,num_2,1.45005871145,,,2017_May_18_1057,60.0067940433,FEMA4ImagesEEG,001,100501,
AFNE01.JPG,AFNE01.JPG,AFNE01.JPG,AFNE01.JPG,AFNE01.JPG,AFNE01.JPG,,,,,1,8,18,1,,,,,,,,,,,,,,,,,,,AMNE16.jpg,AMSA15.jpg,AMNE02.jpg,AMSA02.jpg,AMNE02.jpg,MN,1,num_2,16,num_2,1.4999385783,,,2017_May_18_1057,60.0067940433,FEMA4ImagesEEG,001,100501,
AFNE01.JPG,AFNE01.JPG,AFNE01.JPG,AFNE01.JPG,AFNE01.JPG,AFNE01.JPG,,,,,1,9,19,4,,,,,,,,,,,,,,,,,,,AMNE01.jpg,AMSA01.jpg,AMNE05.jpg,AMSA07.jpg,AMNE05.jpg,MN,1,num_2,16,num_2,1.85003292395,,,2017_May_18_1057,60.0067940433,FEMA4ImagesEEG,001,100501,
AFNE01.JPG,AFNE01.JPG,AFNE01.JPG,AFNE01.JPG,AFNE01.JPG,AFNE01.JPG,,,,,2,0,20,4,,,,,,,,,,,,,,,,,,,AMSA18.jpg,AMNE11.jpg,AMSA09.jpg,AMNE20.jpg,AMNE20.jpg,MN,1,num_4,16,num_4,2.23338254553,,,2017_May_18_1057,60.0067940433,FEMA4ImagesEEG,001,100501,
AFNE01.JPG,AFNE01.JPG,AFNE01.JPG,AFNE01.JPG,AFNE01.JPG,AFNE01.JPG,,,,,2,1,21,6,,,,,,,,,,,,,,,,,,,AMNE20.jpg,AMSA01.jpg,AMSA16.jpg,AMNE05.jpg,AMSA16.jpg,MS,2,num_2,32,num_6,0.350032442846,,,2017_May_18_1057,60.0067940433,FEMA4ImagesEEG,001,100501,
AFNE01.JPG,AFNE01.JPG,AFNE01.JPG,AFNE01.JPG,AFNE01.JPG,AFNE01.JPG,,,,,2,2,22,1,,,,,,,,,,,,,,,,,,,AMNE03.jpg,AMSA09.jpg,AMNE06.jpg,AMSA07.jpg,AMSA07.jpg,MS,2,num_4,32,num_8,1.66686509775,,,2017_May_18_1057,60.0067940433,FEMA4ImagesEEG,001,100501,
AFNE01.JPG,AFNE01.JPG,AFNE01.JPG,AFNE01.JPG,AFNE01.JPG,AFNE01.JPG,,,,,2,3,23,2,,,,,,,,,,,,,,,,,,,AMNE02.jpg,AMSA08.jpg,AMSA20.jpg,AMNE06.jpg,AMSA20.jpg,MS,2,num_2,32,num_8,1.9834995354,,,2017_May_18_1057,60.0067940433,FEMA4ImagesEEG,001,100501,
AFNE01.JPG,AFNE01.JPG,AFNE01.JPG,AFNE01.JPG,AFNE01.JPG,AFNE01.JPG,,,,,2,4,24,8,,,,,,,,,,,,,,,,,,,AMNE17.jpg,AMNE13.jpg,AMSA13.jpg,AMSA01.jpg,AMSA01.jpg,MS,2,num_4,16,num_4,1.35006612053,,,2017_May_18_1057,60.0067940433,FEMA4ImagesEEG,001,100501,
AFNE01.JPG,AFNE01.JPG,AFNE01.JPG,AFNE01.JPG,AFNE01.JPG,AFNE01.JPG,,,,,2,5,25,0,,,,,,,,,,,,,,,,,,,AMNE19.jpg,AMNE15.jpg,AMSA15.jpg,AMSA05.jpg,AMSA15.jpg,MS,2,num_2,16,num_2,1.60008480362,,,2017_May_18_1057,60.0067940433,FEMA4ImagesEEG,001,100501,
AFNE01.JPG,AFNE01.JPG,AFNE01.JPG,AFNE01.JPG,AFNE01.JPG,AFNE01.JPG,,,,,2,6,26,3,,,,,,,,,,,,,,,,,,,AMSA19.jpg,AMSA15.jpg,AMNE04.jpg,AMNE11.jpg,AMSA15.jpg,MS,2,num_6,32,num_8,1.63343341489,,,2017_May_18_1057,60.0067940433,FEMA4ImagesEEG,001,100501,
AFNE01.JPG,AFNE01.JPG,AFNE01.JPG,AFNE01.JPG,AFNE01.JPG,AFNE01.JPG,,,,,2,7,27,7,,,,,,,,,,,,,,,,,,,AMSA11.jpg,AMSA05.jpg,AMNE03.jpg,AMNE17.jpg,AMNE03.jpg,MN,1,num_2,32,num_4,2.76663669887,,,2017_May_18_1057,60.0067940433,FEMA4ImagesEEG,001,100501,
AFNE01.JPG,AFNE01.JPG,AFNE01.JPG,AFNE01.JPG,AFNE01.JPG,AFNE01.JPG,,,,,2,8,28,9,,,,,,,,,,,,,,,,,,,AMSA20.jpg,AMSA09.jpg,AMNE08.jpg,AMNE06.jpg,AMNE06.jpg,MN,1,num_4,32,num_6,1.23345984385,,,2017_May_18_1057,60.0067940433,FEMA4ImagesEEG,001,100501,
AFNE01.JPG,AFNE01.JPG,AFNE01.JPG,AFNE01.JPG,AFNE01.JPG,AFNE01.JPG,,,,,2,9,29,5,,,,,,,,,,,,,,,,,,,AMNE11.jpg,AMNE02.jpg,AMSA04.jpg,AMSA16.jpg,AMSA04.jpg,MS,2,num_2,32,num_8,0.666799346072,,,2017_May_18_1057,60.0067940433,FEMA4ImagesEEG,001,100501,
AFNE01.JPG,AFNE01.JPG,AFNE01.JPG,AFNE01.JPG,AFNE01.JPG,AFNE01.JPG,,,,,3,0,30,0,,,,,,,,,,,,,,,,,,,AMSA01.jpg,AMNE05.jpg,AMNE14.jpg,AMSA15.jpg,AMNE05.jpg,MN,1,num_6,16,num_6,0.850086808248,,,2017_May_18_1057,60.0067940433,FEMA4ImagesEEG,001,100501,
AFNE01.JPG,AFNE01.JPG,AFNE01.JPG,AFNE01.JPG,AFNE01.JPG,AFNE01.JPG,,,,,3,1,31,6,,,,,,,,,,,,,,,,,,,AMNE04.jpg,AMNE01.jpg,AMSA15.jpg,AMSA12.jpg,AMSA15.jpg,MS,2,num_2,16,num_2,1.26678856922,,,2017_May_18_1057,60.0067940433,FEMA4ImagesEEG,001,100501,
AFNE01.JPG,AFNE01.JPG,AFNE01.JPG,AFNE01.JPG,AFNE01.JPG,AFNE01.JPG,,,,,3,2,32,4,,,,,,,,,,,,,,,,,,,AMSA13.jpg,AMNE10.jpg,AMSA20.jpg,AMNE04.jpg,AMSA20.jpg,MS,2,num_2,32,num_8,1.01679041347,,,2017_May_18_1057,60.0067940433,FEMA4ImagesEEG,001,100501,
AFNE01.JPG,AFNE01.JPG,AFNE01.JPG,AFNE01.JPG,AFNE01.JPG,AFNE01.JPG,,,,,3,3,33,5,,,,,,,,,,,,,,,,,,,AMNE20.jpg,AMSA01.jpg,AMNE11.jpg,AMSA06.jpg,AMSA01.jpg,MS,2,num_6,32,num_8,2.78328117567,,,2017_May_18_1057,60.0067940433,FEMA4ImagesEEG,001,100501,
AFNE01.JPG,AFNE01.JPG,AFNE01.JPG,AFNE01.JPG,AFNE01.JPG,AFNE01.JPG,,,,,3,4,34,3,,,,,,,,,,,,,,,,,,,AMNE15.jpg,AMSA12.jpg,AMNE10.jpg,AMSA03.jpg,AMNE15.jpg,MN,1,num_8,32,num_2,2.38334769713,,,2017_May_18_1057,60.0067940433,FEMA4ImagesEEG,001,100501,
AFNE01.JPG,AFNE01.JPG,AFNE01.JPG,AFNE01.JPG,AFNE01.JPG,AFNE01.JPG,,,,,3,5,35,1,,,,,,,,,,,,,,,,,,,AMNE19.jpg,AMNE02.jpg,AMSA12.jpg,AMSA07.jpg,AMSA07.jpg,MS,2,num_4,32,num_6,1.1836797271,,,2017_May_18_1057,60.0067940433,FEMA4ImagesEEG,001,100501,
AFNE01.JPG,AFNE01.JPG,AFNE01.JPG,AFNE01.JPG,AFNE01.JPG,AFNE01.JPG,,,,,3,6,36,7,,,,,,,,,,,,,,,,,,,AMSA07.jpg,AMNE20.jpg,AMNE02.jpg,AMSA15.jpg,AMSA15.jpg,MS,2,num_4,16,num_4,1.21681985739,,,2017_May_18_1057,60.0067940433,FEMA4ImagesEEG,001,100501,
AFNE01.JPG,AFNE01.JPG,AFNE01.JPG,AFNE01.JPG,AFNE01.JPG,AFNE01.JPG,,,,,3,7,37,9,,,,,,,,,,,,,,,,,,,AMSA06.jpg,AMSA02.jpg,AMNE14.jpg,AMNE17.jpg,AMNE14.jpg,MN,1,num_2,32,num_8,1.33354512858,,,2017_May_18_1057,60.0067940433,FEMA4ImagesEEG,001,100501,
AFNE01.JPG,AFNE01.JPG,AFNE01.JPG,AFNE01.JPG,AFNE01.JPG,AFNE01.JPG,,,,,3,8,38,2,,,,,,,,,,,,,,,,,,,AMSA10.jpg,AMSA05.jpg,AMNE09.jpg,AMNE19.jpg,AMSA10.jpg,MS,2,num_8,32,num_2,1.1668007894,,,2017_May_18_1057,60.0067940433,FEMA4ImagesEEG,001,100501,
AFNE01.JPG,AFNE01.JPG,AFNE01.JPG,AFNE01.JPG,AFNE01.JPG,AFNE01.JPG,,,,,3,9,39,8,,,,,,,,,,,,,,,,,,,AMNE19.jpg,AMNE14.jpg,AMSA02.jpg,AMSA13.jpg,AMNE14.jpg,MN,1,num_6,32,num_4,1.30007431544,,,2017_May_18_1057,60.0067940433,FEMA4ImagesEEG,001,100501,
AFNE01.JPG,AFNE01.JPG,AFNE01.JPG,AFNE01.JPG,AFNE01.JPG,AFNE01.JPG,,,,,4,0,40,4,,,,,,,,,,,,,,,,,,,AMNE18.jpg,AMNE16.jpg,AMSA09.jpg,AMSA05.jpg,AMNE18.jpg,MN,1,num_8,32,num_6,1.56676858712,,,2017_May_18_1057,60.0067940433,FEMA4ImagesEEG,001,100501,
AFNE01.JPG,AFNE01.JPG,AFNE01.JPG,AFNE01.JPG,AFNE01.JPG,AFNE01.JPG,,,,,4,1,41,8,,,,,,,,,,,,,,,,,,,AMSA06.jpg,AMNE11.jpg,AMNE16.jpg,AMSA01.jpg,AMNE16.jpg,MN,1,num_2,32,num_6,1.05010438481,,,2017_May_18_1057,60.0067940433,FEMA4ImagesEEG,001,100501,
AFNE01.JPG,AFNE01.JPG,AFNE01.JPG,AFNE01.JPG,AFNE01.JPG,AFNE01.JPG,,,,,4,2,42,1,,,,,,,,,,,,,,,,,,,AMSA11.jpg,AMSA12.jpg,AMNE17.jpg,AMNE20.jpg,AMSA12.jpg,MS,2,num_6,16,num_6,2.63358576634,,,2017_May_18_1057,60.0067940433,FEMA4ImagesEEG,001,100501,
AFNE01.JPG,AFNE01.JPG,AFNE01.JPG,AFNE01.JPG,AFNE01.JPG,AFNE01.JPG,,,,,4,3,43,3,,,,,,,,,,,,,,,,,,,AMNE13.jpg,AMSA17.jpg,AMSA04.jpg,AMNE01.jpg,AMSA17.jpg,MS,2,num_6,32,num_4,1.18346066173,,,2017_May_18_1057,60.0067940433,FEMA4ImagesEEG,001,100501,
AFNE01.JPG,AFNE01.JPG,AFNE01.JPG,AFNE01.JPG,AFNE01.JPG,AFNE01.JPG,,,,,4,4,44,6,,,,,,,,,,,,,,,,,,,AMSA20.jpg,AMSA02.jpg,AMNE04.jpg,AMNE05.jpg,AMSA20.jpg,MS,2,num_8,16,num_8,1.7165913302,,,2017_May_18_1057,60.0067940433,FEMA4ImagesEEG,001,100501,
AFNE01.JPG,AFNE01.JPG,AFNE01.JPG,AFNE01.JPG,AFNE01.JPG,AFNE01.JPG,,,,,4,5,45,2,,,,,,,,,,,,,,,,,,,AMSA17.jpg,AMNE06.jpg,AMSA20.jpg,AMNE01.jpg,AMNE01.jpg,MN,1,num_4,16,num_4,0.833468632118,,,2017_May_18_1057,60.0067940433,FEMA4ImagesEEG,001,100501,
AFNE01.JPG,AFNE01.JPG,AFNE01.JPG,AFNE01.JPG,AFNE01.JPG,AFNE01.JPG,,,,,4,6,46,5,,,,,,,,,,,,,,,,,,,AMSA03.jpg,AMNE20.jpg,AMNE05.jpg,AMSA04.jpg,AMNE20.jpg,MN,1,num_6,16,num_6,1.35003661245,,,2017_May_18_1057,60.0067940433,FEMA4ImagesEEG,001,100501,
AFNE01.JPG,AFNE01.JPG,AFNE01.JPG,AFNE01.JPG,AFNE01.JPG,AFNE01.JPG,,,,,4,7,47,0,,,,,,,,,,,,,,,,,,,AMNE20.jpg,AMSA11.jpg,AMSA10.jpg,AMNE05.jpg,AMSA11.jpg,MS,2,num_6,32,num_4,0.583741501599,,,2017_May_18_1057,60.0067940433,FEMA4ImagesEEG,001,100501,
AFNE01.JPG,AFNE01.JPG,AFNE01.JPG,AFNE01.JPG,AFNE01.JPG,AFNE01.JPG,,,,,4,8,48,9,,,,,,,,,,,,,,,,,,,AMSA10.jpg,AMNE08.jpg,AMNE02.jpg,AMSA18.jpg,AMSA10.jpg,MS,2,num_8,32,num_4,1.56672592871,,,2017_May_18_1057,60.0067940433,FEMA4ImagesEEG,001,100501,
AFNE01.JPG,AFNE01.JPG,AFNE01.JPG,AFNE01.JPG,AFNE01.JPG,AFNE01.JPG,,,,,4,9,49,7,,,,,,,,,,,,,,,,,,,AMNE13.jpg,AMSA18.jpg,AMSA20.jpg,AMNE01.jpg,AMNE01.jpg,MN,1,num_4,32,num_6,0.683475576137,,,2017_May_18_1057,60.0067940433,FEMA4ImagesEEG,001,100501,
AFNE01.JPG,AFNE01.JPG,AFNE01.JPG,AFNE01.JPG,AFNE01.JPG,AFNE01.JPG,,,,,5,0,50,9,,,,,,,,,,,,,,,,,,,AMNE02.jpg,AMSA11.jpg,AMSA17.jpg,AMNE07.jpg,AMSA11.jpg,MS,2,num_6,32,num_4,0.64992554023,,,2017_May_18_1057,60.0067940433,FEMA4ImagesEEG,001,100501,
AFNE01.JPG,AFNE01.JPG,AFNE01.JPG,AFNE01.JPG,AFNE01.JPG,AFNE01.JPG,,,,,5,1,51,4,,,,,,,,,,,,,,,,,,,AMNE03.jpg,AMSA19.jpg,AMSA04.jpg,AMNE19.jpg,AMSA19.jpg,MS,2,num_6,32,num_4,1.31673739516,,,2017_May_18_1057,60.0067940433,FEMA4ImagesEEG,001,100501,
AFNE01.JPG,AFNE01.JPG,AFNE01.JPG,AFNE01.JPG,AFNE01.JPG,AFNE01.JPG,,,,,5,2,52,6,,,,,,,,,,,,,,,,,,,AMNE11.jpg,AMNE19.jpg,AMSA04.jpg,AMSA06.jpg,AMSA06.jpg,MS,2,num_4,32,num_6,2.00002373476,,,2017_May_18_1057,60.0067940433,FEMA4ImagesEEG,001,100501,
AFNE01.JPG,AFNE01.JPG,AFNE01.JPG,AFNE01.JPG,AFNE01.JPG,AFNE01.JPG,,,,,5,3,53,1,,,,,,,,,,,,,,,,,,,AMSA16.jpg,AMNE09.jpg,AMNE15.jpg,AMSA03.jpg,AMNE09.jpg,MN,1,num_6,32,num_2,1.26666829175,,,2017_May_18_1057,60.0067940433,FEMA4ImagesEEG,001,100501,
AFNE01.JPG,AFNE01.JPG,AFNE01.JPG,AFNE01.JPG,AFNE01.JPG,AFNE01.JPG,,,,,5,4,54,0,,,,,,,,,,,,,,,,,,,AMNE04.jpg,AMNE14.jpg,AMSA17.jpg,AMSA10.jpg,AMNE14.jpg,MN,1,num_6,32,num_8,1.18344943583,,,2017_May_18_1057,60.0067940433,FEMA4ImagesEEG,001,100501,
AFNE01.JPG,AFNE01.JPG,AFNE01.JPG,AFNE01.JPG,AFNE01.JPG,AFNE01.JPG,,,,,5,5,55,3,,,,,,,,,,,,,,,,,,,AMSA10.jpg,AMNE17.jpg,AMSA15.jpg,AMNE01.jpg,AMSA10.jpg,MS,2,num_8,32,num_2,1.26678343737,,,2017_May_18_1057,60.0067940433,FEMA4ImagesEEG,001,100501,
AFNE01.JPG,AFNE01.JPG,AFNE01.JPG,AFNE01.JPG,AFNE01.JPG,AFNE01.JPG,,,,,5,6,56,5,,,,,,,,,,,,,,,,,,,AMSA15.jpg,AMSA19.jpg,AMNE14.jpg,AMNE07.jpg,AMSA15.jpg,MS,2,num_8,32,num_4,1.36667275004,,,2017_May_18_1057,60.0067940433,FEMA4ImagesEEG,001,100501,
AFNE01.JPG,AFNE01.JPG,AFNE01.JPG,AFNE01.JPG,AFNE01.JPG,AFNE01.JPG,,,,,5,7,57,2,,,,,,,,,,,,,,,,,,,AMSA08.jpg,AMNE03.jpg,AMNE06.jpg,AMSA03.jpg,AMNE03.jpg,MN,1,num_6,16,num_6,1.13329886447,,,2017_May_18_1057,60.0067940433,FEMA4ImagesEEG,001,100501,
AFNE01.JPG,AFNE01.JPG,AFNE01.JPG,AFNE01.JPG,AFNE01.JPG,AFNE01.JPG,,,,,5,8,58,8,,,,,,,,,,,,,,,,,,,AMNE16.jpg,AMSA06.jpg,AMSA20.jpg,AMNE01.jpg,AMNE01.jpg,MN,1,num_4,32,num_6,1.0667222402,,,2017_May_18_1057,60.0067940433,FEMA4ImagesEEG,001,100501,
AFNE01.JPG,AFNE01.JPG,AFNE01.JPG,AFNE01.JPG,AFNE01.JPG,AFNE01.JPG,,,,,5,9,59,7,,,,,,,,,,,,,,,,,,,AMSA13.jpg,AMNE05.jpg,AMNE12.jpg,AMSA19.jpg,AMSA19.jpg,MS,2,num_4,32,num_6,0.733579319451,,,2017_May_18_1057,60.0067940433,FEMA4ImagesEEG,001,100501,
,,,,,,,,,,,,,,,,,,,,,,,,,,,,,,,,,,,,,,,,,,,space,26.3647479898,2017_May_18_1057,60.0067940433,FEMA4ImagesEEG,001,100501,
AFNE01.JPG,AFNE01.JPG,AFNE01.JPG,AFNE01.JPG,AFNE01.JPG,AFNE01.JPG,,,,,,,,,0,0,0,3,,,,,,,,,,,,,,,AFNE14.jpg,AFSA13.jpg,AFNE19.jpg,AFSA14.jpg,AFSA13.jpg,FS,4,num_6,16,num_6,0.833458047709,,,2017_May_18_1057,60.0067940433,FEMA4ImagesEEG,001,100501,
AFNE01.JPG,AFNE01.JPG,AFNE01.JPG,AFNE01.JPG,AFNE01.JPG,AFNE01.JPG,,,,,,,,,0,1,1,8,,,,,,,,,,,,,,,AFNE12.jpg,AFNE05.jpg,AFSA13.jpg,AFSA16.jpg,AFNE12.jpg,FN,3,num_8,16,num_8,0.916648037019,,,2017_May_18_1057,60.0067940433,FEMA4ImagesEEG,001,100501,
AFNE01.JPG,AFNE01.JPG,AFNE01.JPG,AFNE01.JPG,AFNE01.JPG,AFNE01.JPG,,,,,,,,,0,2,2,0,,,,,,,,,,,,,,,AFNE09.jpg,AFSA11.jpg,AFSA01.jpg,AFNE07.jpg,AFNE09.jpg,FN,3,num_8,32,num_4,0.783404339803,,,2017_May_18_1057,60.0067940433,FEMA4ImagesEEG,001,100501,
AFNE01.JPG,AFNE01.JPG,AFNE01.JPG,AFNE01.JPG,AFNE01.JPG,AFNE01.JPG,,,,,,,,,0,3,3,6,,,,,,,,,,,,,,,AFSA14.jpg,AFNE07.jpg,AFNE11.jpg,AFSA08.jpg,AFNE11.jpg,FN,3,num_2,32,num_4,1.16671130297,,,2017_May_18_1057,60.0067940433,FEMA4ImagesEEG,001,100501,
AFNE01.JPG,AFNE01.JPG,AFNE01.JPG,AFNE01.JPG,AFNE01.JPG,AFNE01.JPG,,,,,,,,,0,4,4,4,,,,,,,,,,,,,,,AFNE04.jpg,AFNE16.jpg,AFSA08.jpg,AFSA07.jpg,AFNE16.jpg,FN,3,num_6,32,num_4,1.11677819327,,,2017_May_18_1057,60.0067940433,FEMA4ImagesEEG,001,100501,
AFNE01.JPG,AFNE01.JPG,AFNE01.JPG,AFNE01.JPG,AFNE01.JPG,AFNE01.JPG,,,,,,,,,0,5,5,9,,,,,,,,,,,,,,,AFSA12.jpg,AFNE13.jpg,AFSA18.jpg,AFNE07.jpg,AFNE07.jpg,FN,3,num_4,16,num_4,1.15010531494,,,2017_May_18_1057,60.0067940433,FEMA4ImagesEEG,001,100501,
AFNE01.JPG,AFNE01.JPG,AFNE01.JPG,AFNE01.JPG,AFNE01.JPG,AFNE01.JPG,,,,,,,,,0,6,6,1,,,,,,,,,,,,,,,AFNE12.jpg,AFSA17.jpg,AFNE14.jpg,AFSA04.jpg,AFSA04.jpg,FS,4,num_4,16,num_4,1.61674948706,,,2017_May_18_1057,60.0067940433,FEMA4ImagesEEG,001,100501,
AFNE01.JPG,AFNE01.JPG,AFNE01.JPG,AFNE01.JPG,AFNE01.JPG,AFNE01.JPG,,,,,,,,,0,7,7,2,,,,,,,,,,,,,,,AFNE03.jpg,AFSA14.jpg,AFNE05.jpg,AFSA11.jpg,AFSA11.jpg,FS,4,num_4,16,num_4,1.13342940563,,,2017_May_18_1057,60.0067940433,FEMA4ImagesEEG,001,100501,
AFNE01.JPG,AFNE01.JPG,AFNE01.JPG,AFNE01.JPG,AFNE01.JPG,AFNE01.JPG,,,,,,,,,0,8,8,7,,,,,,,,,,,,,,,AFNE20.jpg,AFNE08.jpg,AFSA13.jpg,AFSA15.jpg,AFNE08.jpg,FN,3,num_6,16,num_6,1.0501646839,,,2017_May_18_1057,60.0067940433,FEMA4ImagesEEG,001,100501,
AFNE01.JPG,AFNE01.JPG,AFNE01.JPG,AFNE01.JPG,AFNE01.JPG,AFNE01.JPG,,,,,,,,,0,9,9,5,,,,,,,,,,,,,,,AFNE06.jpg,AFSA08.jpg,AFSA04.jpg,AFNE14.jpg,AFSA08.jpg,FS,4,num_6,16,num_6,1.01676443355,,,2017_May_18_1057,60.0067940433,FEMA4ImagesEEG,001,100501,
AFNE01.JPG,AFNE01.JPG,AFNE01.JPG,AFNE01.JPG,AFNE01.JPG,AFNE01.JPG,,,,,,,,,1,0,10,1,,,,,,,,,,,,,,,AFSA10.jpg,AFSA20.jpg,AFNE20.jpg,AFNE17.jpg,AFNE17.jpg,FN,3,num_4,32,num_6,1.4334751752,,,2017_May_18_1057,60.0067940433,FEMA4ImagesEEG,001,100501,
AFNE01.JPG,AFNE01.JPG,AFNE01.JPG,AFNE01.JPG,AFNE01.JPG,AFNE01.JPG,,,,,,,,,1,1,11,5,,,,,,,,,,,,,,,AFNE04.jpg,AFSA01.jpg,AFSA09.jpg,AFNE13.jpg,AFNE04.jpg,FN,3,num_8,16,num_8,0.933590481203,,,2017_May_18_1057,60.0067940433,FEMA4ImagesEEG,001,100501,
AFNE01.JPG,AFNE01.JPG,AFNE01.JPG,AFNE01.JPG,AFNE01.JPG,AFNE01.JPG,,,,,,,,,1,2,12,0,,,,,,,,,,,,,,,AFSA18.jpg,AFSA09.jpg,AFNE06.jpg,AFNE15.jpg,AFNE15.jpg,FN,3,num_4,16,num_4,0.983452707369,,,2017_May_18_1057,60.0067940433,FEMA4ImagesEEG,001,100501,
AFNE01.JPG,AFNE01.JPG,AFNE01.JPG,AFNE01.JPG,AFNE01.JPG,AFNE01.JPG,,,,,,,,,1,3,13,3,,,,,,,,,,,,,,,AFSA19.jpg,AFNE16.jpg,AFSA20.jpg,AFNE13.jpg,AFSA20.jpg,FS,4,num_2,32,num_4,1.08348731522,,,2017_May_18_1057,60.0067940433,FEMA4ImagesEEG,001,100501,
AFNE01.JPG,AFNE01.JPG,AFNE01.JPG,AFNE01.JPG,AFNE01.JPG,AFNE01.JPG,,,,,,,,,1,4,14,6,,,,,,,,,,,,,,,AFSA19.jpg,AFSA02.jpg,AFNE02.jpg,AFNE08.jpg,AFSA19.jpg,FS,4,num_8,32,num_2,2.56664253633,,,2017_May_18_1057,60.0067940433,FEMA4ImagesEEG,001,100501,
AFNE01.JPG,AFNE01.JPG,AFNE01.JPG,AFNE01.JPG,AFNE01.JPG,AFNE01.JPG,,,,,,,,,1,5,15,4,,,,,,,,,,,,,,,AFSA07.jpg,AFNE08.jpg,AFNE16.jpg,AFSA08.jpg,AFNE08.jpg,FN,3,num_6,16,num_6,0.533464237975,,,2017_May_18_1057,60.0067940433,FEMA4ImagesEEG,001,100501,
AFNE01.JPG,AFNE01.JPG,AFNE01.JPG,AFNE01.JPG,AFNE01.JPG,AFNE01.JPG,,,,,,,,,1,6,16,7,,,,,,,,,,,,,,,AFSA01.jpg,AFNE15.jpg,AFSA05.jpg,AFNE06.jpg,AFNE15.jpg,FN,3,num_6,16,num_6,0.700222048239,,,2017_May_18_1057,60.0067940433,FEMA4ImagesEEG,001,100501,
AFNE01.JPG,AFNE01.JPG,AFNE01.JPG,AFNE01.JPG,AFNE01.JPG,AFNE01.JPG,,,,,,,,,1,7,17,2,,,,,,,,,,,,,,,AFNE17.jpg,AFNE10.jpg,AFSA12.jpg,AFSA15.jpg,AFNE17.jpg,FN,3,num_8,16,num_8,1.20008974303,,,2017_May_18_1057,60.0067940433,FEMA4ImagesEEG,001,100501,
AFNE01.JPG,AFNE01.JPG,AFNE01.JPG,AFNE01.JPG,AFNE01.JPG,AFNE01.JPG,,,,,,,,,1,8,18,9,,,,,,,,,,,,,,,AFSA18.jpg,AFSA12.jpg,AFNE05.jpg,AFNE14.jpg,AFSA18.jpg,FS,4,num_8,32,num_4,0.933488165174,,,2017_May_18_1057,60.0067940433,FEMA4ImagesEEG,001,100501,
AFNE01.JPG,AFNE01.JPG,AFNE01.JPG,AFNE01.JPG,AFNE01.JPG,AFNE01.JPG,,,,,,,,,1,9,19,8,,,,,,,,,,,,,,,AFSA18.jpg,AFNE11.jpg,AFNE18.jpg,AFSA11.jpg,AFSA11.jpg,FS,4,num_4,32,num_6,0.483653650939,,,2017_May_18_1057,60.0067940433,FEMA4ImagesEEG,001,100501,
AFNE01.JPG,AFNE01.JPG,AFNE01.JPG,AFNE01.JPG,AFNE01.JPG,AFNE01.JPG,,,,,,,,,2,0,20,8,,,,,,,,,,,,,,,AFNE11.jpg,AFSA14.jpg,AFNE20.jpg,AFSA10.jpg,AFNE11.jpg,FN,3,num_8,16,num_8,0.366784367521,,,2017_May_18_1057,60.0067940433,FEMA4ImagesEEG,001,100501,
AFNE01.JPG,AFNE01.JPG,AFNE01.JPG,AFNE01.JPG,AFNE01.JPG,AFNE01.JPG,,,,,,,,,2,1,21,9,,,,,,,,,,,,,,,AFNE07.jpg,AFNE04.jpg,AFSA04.jpg,AFSA01.jpg,AFNE04.jpg,FN,3,num_6,32,num_4,1.31675535659,,,2017_May_18_1057,60.0067940433,FEMA4ImagesEEG,001,100501,
AFNE01.JPG,AFNE01.JPG,AFNE01.JPG,AFNE01.JPG,AFNE01.JPG,AFNE01.JPG,,,,,,,,,2,2,22,6,,,,,,,,,,,,,,,AFSA03.jpg,AFSA05.jpg,AFNE17.jpg,AFNE08.jpg,AFNE08.jpg,FN,3,num_4,32,num_6,0.750167666789,,,2017_May_18_1057,60.0067940433,FEMA4ImagesEEG,001,100501,
AFNE01.JPG,AFNE01.JPG,AFNE01.JPG,AFNE01.JPG,AFNE01.JPG,AFNE01.JPG,,,,,,,,,2,3,23,2,,,,,,,,,,,,,,,AFNE04.jpg,AFSA15.jpg,AFSA16.jpg,AFNE16.jpg,AFSA15.jpg,FS,4,num_6,32,num_2,1.03340602369,,,2017_May_18_1057,60.0067940433,FEMA4ImagesEEG,001,100501,
AFNE01.JPG,AFNE01.JPG,AFNE01.JPG,AFNE01.JPG,AFNE01.JPG,AFNE01.JPG,,,,,,,,,2,4,24,4,,,,,,,,,,,,,,,AFNE08.jpg,AFSA12.jpg,AFNE02.jpg,AFSA07.jpg,AFSA07.jpg,FS,4,num_4,16,num_4,0.850158333255,,,2017_May_18_1057,60.0067940433,FEMA4ImagesEEG,001,100501,
AFNE01.JPG,AFNE01.JPG,AFNE01.JPG,AFNE01.JPG,AFNE01.JPG,AFNE01.JPG,,,,,,,,,2,5,25,0,,,,,,,,,,,,,,,AFSA01.jpg,AFNE02.jpg,AFSA15.jpg,AFNE11.jpg,AFSA01.jpg,FS,4,num_8,32,num_6,0.766789371075,,,2017_May_18_1057,60.0067940433,FEMA4ImagesEEG,001,100501,
AFNE01.JPG,AFNE01.JPG,AFNE01.JPG,AFNE01.JPG,AFNE01.JPG,AFNE01.JPG,,,,,,,,,2,6,26,3,,,,,,,,,,,,,,,AFSA11.jpg,AFSA17.jpg,AFNE13.jpg,AFNE02.jpg,AFNE02.jpg,FN,3,num_4,16,num_4,1.15010627717,,,2017_May_18_1057,60.0067940433,FEMA4ImagesEEG,001,100501,
AFNE01.JPG,AFNE01.JPG,AFNE01.JPG,AFNE01.JPG,AFNE01.JPG,AFNE01.JPG,,,,,,,,,2,7,27,1,,,,,,,,,,,,,,,AFSA03.jpg,AFSA11.jpg,AFNE13.jpg,AFNE17.jpg,AFNE13.jpg,FN,3,num_2,32,num_4,0.933463788941,,,2017_May_18_1057,60.0067940433,FEMA4ImagesEEG,001,100501,
AFNE01.JPG,AFNE01.JPG,AFNE01.JPG,AFNE01.JPG,AFNE01.JPG,AFNE01.JPG,,,,,,,,,2,8,28,7,,,,,,,,,,,,,,,AFNE04.jpg,AFSA20.jpg,AFSA11.jpg,AFNE01.jpg,AFSA11.jpg,FS,4,num_2,16,num_2,1.26677189073,,,2017_May_18_1057,60.0067940433,FEMA4ImagesEEG,001,100501,
AFNE01.JPG,AFNE01.JPG,AFNE01.JPG,AFNE01.JPG,AFNE01.JPG,AFNE01.JPG,,,,,,,,,2,9,29,5,,,,,,,,,,,,,,,AFSA04.jpg,AFNE07.jpg,AFNE05.jpg,AFSA03.jpg,AFSA04.jpg,FS,4,num_8,16,num_8,0.516832590773,,,2017_May_18_1057,60.0067940433,FEMA4ImagesEEG,001,100501,
AFNE01.JPG,AFNE01.JPG,AFNE01.JPG,AFNE01.JPG,AFNE01.JPG,AFNE01.JPG,,,,,,,,,3,0,30,0,,,,,,,,,,,,,,,AFNE15.jpg,AFNE05.jpg,AFSA17.jpg,AFSA10.jpg,AFSA17.jpg,FS,4,num_2,16,num_2,0.95010986946,,,2017_May_18_1057,60.0067940433,FEMA4ImagesEEG,001,100501,
AFNE01.JPG,AFNE01.JPG,AFNE01.JPG,AFNE01.JPG,AFNE01.JPG,AFNE01.JPG,,,,,,,,,3,1,31,1,,,,,,,,,,,,,,,AFNE20.jpg,AFNE09.jpg,AFSA01.jpg,AFSA09.jpg,AFSA01.jpg,FS,4,num_2,32,num_6,0.916727901262,,,2017_May_18_1057,60.0067940433,FEMA4ImagesEEG,001,100501,
AFNE01.JPG,AFNE01.JPG,AFNE01.JPG,AFNE01.JPG,AFNE01.JPG,AFNE01.JPG,,,,,,,,,3,2,32,5,,,,,,,,,,,,,,,AFSA02.jpg,AFNE18.jpg,AFSA20.jpg,AFNE08.jpg,AFNE08.jpg,FN,3,num_4,16,num_4,1.83339806934,,,2017_May_18_1057,60.0067940433,FEMA4ImagesEEG,001,100501,
AFNE01.JPG,AFNE01.JPG,AFNE01.JPG,AFNE01.JPG,AFNE01.JPG,AFNE01.JPG,,,,,,,,,3,3,33,9,,,,,,,,,,,,,,,AFNE08.jpg,AFSA19.jpg,AFSA08.jpg,AFNE14.jpg,AFNE08.jpg,FN,3,num_8,32,num_4,1.38339773256,,,2017_May_18_1057,60.0067940433,FEMA4ImagesEEG,001,100501,
AFNE01.JPG,AFNE01.JPG,AFNE01.JPG,AFNE01.JPG,AFNE01.JPG,AFNE01.JPG,,,,,,,,,3,4,34,2,,,,,,,,,,,,,,,AFSA13.jpg,AFSA09.jpg,AFNE11.jpg,AFNE19.jpg,AFNE11.jpg,FN,3,num_2,16,num_2,1.33341138004,,,2017_May_18_1057,60.0067940433,FEMA4ImagesEEG,001,100501,
AFNE01.JPG,AFNE01.JPG,AFNE01.JPG,AFNE01.JPG,AFNE01.JPG,AFNE01.JPG,,,,,,,,,3,5,35,4,,,,,,,,,,,,,,,AFNE16.jpg,AFNE17.jpg,AFSA11.jpg,AFSA10.jpg,AFNE17.jpg,FN,3,num_6,16,num_6,0.983472913998,,,2017_May_18_1057,60.0067940433,FEMA4ImagesEEG,001,100501,
AFNE01.JPG,AFNE01.JPG,AFNE01.JPG,AFNE01.JPG,AFNE01.JPG,AFNE01.JPG,,,,,,,,,3,6,36,8,,,,,,,,,,,,,,,AFSA04.jpg,AFNE06.jpg,AFSA13.jpg,AFNE04.jpg,AFSA13.jpg,FS,4,num_2,16,num_2,1.76671014831,,,2017_May_18_1057,60.0067940433,FEMA4ImagesEEG,001,100501,
AFNE01.JPG,AFNE01.JPG,AFNE01.JPG,AFNE01.JPG,AFNE01.JPG,AFNE01.JPG,,,,,,,,,3,7,37,7,,,,,,,,,,,,,,,AFNE02.jpg,AFSA09.jpg,AFSA19.jpg,AFNE20.jpg,AFSA09.jpg,FS,4,num_6,32,num_2,2.95000338381,,,2017_May_18_1057,60.0067940433,FEMA4ImagesEEG,001,100501,
AFNE01.JPG,AFNE01.JPG,AFNE01.JPG,AFNE01.JPG,AFNE01.JPG,AFNE01.JPG,,,,,,,,,3,8,38,3,,,,,,,,,,,,,,,AFNE15.jpg,AFSA02.jpg,AFNE11.jpg,AFSA08.jpg,AFNE15.jpg,FN,3,num_8,32,num_4,3.08329487126,,,2017_May_18_1057,60.0067940433,FEMA4ImagesEEG,001,100501,
AFNE01.JPG,AFNE01.JPG,AFNE01.JPG,AFNE01.JPG,AFNE01.JPG,AFNE01.JPG,,,,,,,,,3,9,39,6,,,,,,,,,,,,,,,AFSA12.jpg,AFNE17.jpg,AFSA18.jpg,AFNE08.jpg,AFNE08.jpg,FN,3,num_4,32,num_6,1.18342281441,,,2017_May_18_1057,60.0067940433,FEMA4ImagesEEG,001,100501,
AFNE01.JPG,AFNE01.JPG,AFNE01.JPG,AFNE01.JPG,AFNE01.JPG,AFNE01.JPG,,,,,,,,,4,0,40,4,,,,,,,,,,,,,,,AFNE06.jpg,AFSA10.jpg,AFNE12.jpg,AFSA02.jpg,AFNE06.jpg,FN,3,num_8,32,num_4,4.2998828337,,,2017_May_18_1057,60.0067940433,FEMA4ImagesEEG,001,100501,
AFNE01.JPG,AFNE01.JPG,AFNE01.JPG,AFNE01.JPG,AFNE01.JPG,AFNE01.JPG,,,,,,,,,4,1,41,7,,,,,,,,,,,,,,,AFSA09.jpg,AFSA19.jpg,AFNE09.jpg,AFNE02.jpg,AFNE09.jpg,FN,3,num_2,32,num_8,0.900097216276,,,2017_May_18_1057,60.0067940433,FEMA4ImagesEEG,001,100501,
AFNE01.JPG,AFNE01.JPG,AFNE01.JPG,AFNE01.JPG,AFNE01.JPG,AFNE01.JPG,,,,,,,,,4,2,42,2,,,,,,,,,,,,,,,AFNE15.jpg,AFSA18.jpg,AFSA05.jpg,AFNE06.jpg,AFNE15.jpg,FN,3,num_8,32,num_4,1.6832937166,,,2017_May_18_1057,60.0067940433,FEMA4ImagesEEG,001,100501,
AFNE01.JPG,AFNE01.JPG,AFNE01.JPG,AFNE01.JPG,AFNE01.JPG,AFNE01.JPG,,,,,,,,,4,3,43,8,,,,,,,,,,,,,,,AFSA19.jpg,AFNE09.jpg,AFNE03.jpg,AFSA20.jpg,AFNE03.jpg,FN,3,num_2,16,num_2,1.33342324743,,,2017_May_18_1057,60.0067940433,FEMA4ImagesEEG,001,100501,
AFNE01.JPG,AFNE01.JPG,AFNE01.JPG,AFNE01.JPG,AFNE01.JPG,AFNE01.JPG,,,,,,,,,4,4,44,0,,,,,,,,,,,,,,,AFNE01.jpg,AFSA11.jpg,AFSA04.jpg,AFNE17.jpg,AFSA04.jpg,FS,4,num_2,32,num_6,0.700114921099,,,2017_May_18_1057,60.0067940433,FEMA4ImagesEEG,001,100501,
AFNE01.JPG,AFNE01.JPG,AFNE01.JPG,AFNE01.JPG,AFNE01.JPG,AFNE01.JPG,,,,,,,,,4,5,45,6,,,,,,,,,,,,,,,AFSA02.jpg,AFNE03.jpg,AFSA07.jpg,AFNE13.jpg,AFSA07.jpg,FS,4,num_2,32,num_6,0.916744900474,,,2017_May_18_1057,60.0067940433,FEMA4ImagesEEG,001,100501,
AFNE01.JPG,AFNE01.JPG,AFNE01.JPG,AFNE01.JPG,AFNE01.JPG,AFNE01.JPG,,,,,,,,,4,6,46,5,,,,,,,,,,,,,,,AFSA16.jpg,AFNE12.jpg,AFSA19.jpg,AFNE08.jpg,AFSA16.jpg,FS,4,num_8,16,num_8,0.950107624289,,,2017_May_18_1057,60.0067940433,FEMA4ImagesEEG,001,100501,
AFNE01.JPG,AFNE01.JPG,AFNE01.JPG,AFNE01.JPG,AFNE01.JPG,AFNE01.JPG,,,,,,,,,4,7,47,9,,,,,,,,,,,,,,,AFNE02.jpg,AFSA10.jpg,AFNE03.jpg,AFSA17.jpg,AFSA10.jpg,FS,4,num_6,16,num_6,1.01675801874,,,2017_May_18_1057,60.0067940433,FEMA4ImagesEEG,001,100501,
AFNE01.JPG,AFNE01.JPG,AFNE01.JPG,AFNE01.JPG,AFNE01.JPG,AFNE01.JPG,,,,,,,,,4,8,48,1,,,,,,,,,,,,,,,AFNE03.jpg,AFSA13.jpg,AFNE02.jpg,AFSA10.jpg,AFNE02.jpg,FN,3,num_2,32,num_4,2.53335326197,,,2017_May_18_1057,60.0067940433,FEMA4ImagesEEG,001,100501,
AFNE01.JPG,AFNE01.JPG,AFNE01.JPG,AFNE01.JPG,AFNE01.JPG,AFNE01.JPG,,,,,,,,,4,9,49,3,,,,,,,,,,,,,,,AFNE01.jpg,AFNE06.jpg,AFSA05.jpg,AFSA01.jpg,AFSA05.jpg,FS,4,num_2,32,num_6,1.01676475428,,,2017_May_18_1057,60.0067940433,FEMA4ImagesEEG,001,100501,
AFNE01.JPG,AFNE01.JPG,AFNE01.JPG,AFNE01.JPG,AFNE01.JPG,AFNE01.JPG,,,,,,,,,5,0,50,6,,,,,,,,,,,,,,,AFNE16.jpg,AFSA17.jpg,AFSA04.jpg,AFNE18.jpg,AFNE18.jpg,FN,3,num_4,16,num_4,1.08343375166,,,2017_May_18_1057,60.0067940433,FEMA4ImagesEEG,001,100501,
AFNE01.JPG,AFNE01.JPG,AFNE01.JPG,AFNE01.JPG,AFNE01.JPG,AFNE01.JPG,,,,,,,,,5,1,51,0,,,,,,,,,,,,,,,AFNE19.jpg,AFNE15.jpg,AFSA19.jpg,AFSA08.jpg,AFNE19.jpg,FN,3,num_8,32,num_6,0.533455898738,,,2017_May_18_1057,60.0067940433,FEMA4ImagesEEG,001,100501,
AFNE01.JPG,AFNE01.JPG,AFNE01.JPG,AFNE01.JPG,AFNE01.JPG,AFNE01.JPG,,,,,,,,,5,2,52,3,,,,,,,,,,,,,,,AFNE17.jpg,AFNE13.jpg,AFSA15.jpg,AFSA05.jpg,AFSA15.jpg,FS,4,num_2,32,num_4,0.900160722769,,,2017_May_18_1057,60.0067940433,FEMA4ImagesEEG,001,100501,
AFNE01.JPG,AFNE01.JPG,AFNE01.JPG,AFNE01.JPG,AFNE01.JPG,AFNE01.JPG,,,,,,,,,5,3,53,7,,,,,,,,,,,,,,,AFNE04.jpg,AFNE13.jpg,AFSA18.jpg,AFSA08.jpg,AFNE13.jpg,FN,3,num_6,32,num_4,1.10007277589,,,2017_May_18_1057,60.0067940433,FEMA4ImagesEEG,001,100501,
AFNE01.JPG,AFNE01.JPG,AFNE01.JPG,AFNE01.JPG,AFNE01.JPG,AFNE01.JPG,,,,,,,,,5,4,54,9,,,,,,,,,,,,,,,AFNE03.jpg,AFSA12.jpg,AFNE11.jpg,AFSA03.jpg,AFNE03.jpg,FN,3,num_8,32,num_4,1.56666370518,,,2017_May_18_1057,60.0067940433,FEMA4ImagesEEG,001,100501,
AFNE01.JPG,AFNE01.JPG,AFNE01.JPG,AFNE01.JPG,AFNE01.JPG,AFNE01.JPG,,,,,,,,,5,5,55,1,,,,,,,,,,,,,,,AFSA11.jpg,AFNE02.jpg,AFNE01.jpg,AFSA15.jpg,AFNE01.jpg,FN,3,num_2,32,num_8,1.05009508334,,,2017_May_18_1057,60.0067940433,FEMA4ImagesEEG,001,100501,
AFNE01.JPG,AFNE01.JPG,AFNE01.JPG,AFNE01.JPG,AFNE01.JPG,AFNE01.JPG,,,,,,,,,5,6,56,2,,,,,,,,,,,,,,,AFNE15.jpg,AFSA04.jpg,AFSA15.jpg,AFNE08.jpg,AFSA04.jpg,FS,4,num_6,16,num_6,0.866808583378,,,2017_May_18_1057,60.0067940433,FEMA4ImagesEEG,001,100501,
AFNE01.JPG,AFNE01.JPG,AFNE01.JPG,AFNE01.JPG,AFNE01.JPG,AFNE01.JPG,,,,,,,,,5,7,57,8,,,,,,,,,,,,,,,AFSA17.jpg,AFSA20.jpg,AFNE05.jpg,AFNE18.jpg,AFNE18.jpg,FN,3,num_4,32,num_6,0.883399175902,,,2017_May_18_1057,60.0067940433,FEMA4ImagesEEG,001,100501,
AFNE01.JPG,AFNE01.JPG,AFNE01.JPG,AFNE01.JPG,AFNE01.JPG,AFNE01.JPG,,,,,,,,,5,8,58,5,,,,,,,,,,,,,,,AFSA14.jpg,AFNE11.jpg,AFSA17.jpg,AFNE03.jpg,AFNE11.jpg,FN,3,num_6,16,num_6,0.783486128479,,,2017_May_18_1057,60.0067940433,FEMA4ImagesEEG,001,100501,
AFNE01.JPG,AFNE01.JPG,AFNE01.JPG,AFNE01.JPG,AFNE01.JPG,AFNE01.JPG,,,,,,,,,5,9,59,4,,,,,,,,,,,,,,,AFSA18.jpg,AFNE15.jpg,AFNE20.jpg,AFSA12.jpg,AFSA18.jpg,FS,4,num_8,16,num_8,0.45003850483,,,2017_May_18_1057,60.0067940433,FEMA4ImagesEEG,001,100501,
,,,,,,,,,,,,,,,,,,,,,,,,,,,,,,,,,,,,,,,,,,,space,16.4825541545,2017_May_18_1057,60.0067940433,FEMA4ImagesEEG,001,100501,
AFNE01.JPG,AFNE01.JPG,AFNE01.JPG,AFNE01.JPG,AFNE01.JPG,AFNE01.JPG,,,,,,,,,,,,,0,0,0,6,,,,,,,,,,,AMNE12.jpg,AMSA14.jpg,AMSA05.jpg,AMNE05.jpg,AMNE12.jpg,MN,1,num_8,32,num_4,0.816745253294,,,2017_May_18_1057,60.0067940433,FEMA4ImagesEEG,001,100501,
AFNE01.JPG,AFNE01.JPG,AFNE01.JPG,AFNE01.JPG,AFNE01.JPG,AFNE01.JPG,,,,,,,,,,,,,0,1,1,4,,,,,,,,,,,AMNE17.jpg,AMNE16.jpg,AMSA16.jpg,AMSA03.jpg,AMSA03.jpg,MS,2,num_4,16,num_4,0.683504442728,,,2017_May_18_1057,60.0067940433,FEMA4ImagesEEG,001,100501,
AFNE01.JPG,AFNE01.JPG,AFNE01.JPG,AFNE01.JPG,AFNE01.JPG,AFNE01.JPG,,,,,,,,,,,,,0,2,2,2,,,,,,,,,,,AMSA08.jpg,AMSA19.jpg,AMNE07.jpg,AMNE04.jpg,AMSA08.jpg,MS,2,num_8,32,num_6,0.750111858055,,,2017_May_18_1057,60.0067940433,FEMA4ImagesEEG,001,100501,
AFNE01.JPG,AFNE01.JPG,AFNE01.JPG,AFNE01.JPG,AFNE01.JPG,AFNE01.JPG,,,,,,,,,,,,,0,3,3,1,,,,,,,,,,,AMSA04.jpg,AMNE04.jpg,AMSA11.jpg,AMNE10.jpg,AMSA04.jpg,MS,2,num_8,32,num_2,1.13343357525,,,2017_May_18_1057,60.0067940433,FEMA4ImagesEEG,001,100501,
AFNE01.JPG,AFNE01.JPG,AFNE01.JPG,AFNE01.JPG,AFNE01.JPG,AFNE01.JPG,,,,,,,,,,,,,0,4,4,3,,,,,,,,,,,AMSA09.jpg,AMNE14.jpg,AMSA07.jpg,AMNE05.jpg,AMNE14.jpg,MN,1,num_6,32,num_8,1.4333898584,,,2017_May_18_1057,60.0067940433,FEMA4ImagesEEG,001,100501,
AFNE01.JPG,AFNE01.JPG,AFNE01.JPG,AFNE01.JPG,AFNE01.JPG,AFNE01.JPG,,,,,,,,,,,,,0,5,5,5,,,,,,,,,,,AMSA14.jpg,AMNE09.jpg,AMSA05.jpg,AMNE17.jpg,AMNE17.jpg,MN,1,num_4,16,num_4,0.90013538432,,,2017_May_18_1057,60.0067940433,FEMA4ImagesEEG,001,100501,
AFNE01.JPG,AFNE01.JPG,AFNE01.JPG,AFNE01.JPG,AFNE01.JPG,AFNE01.JPG,,,,,,,,,,,,,0,6,6,0,,,,,,,,,,,AMSA13.jpg,AMSA20.jpg,AMNE14.jpg,AMNE16.jpg,AMNE16.jpg,MN,1,num_4,16,num_4,1.01676796167,,,2017_May_18_1057,60.0067940433,FEMA4ImagesEEG,001,100501,
AFNE01.JPG,AFNE01.JPG,AFNE01.JPG,AFNE01.JPG,AFNE01.JPG,AFNE01.JPG,,,,,,,,,,,,,0,7,7,8,,,,,,,,,,,AMSA05.jpg,AMNE03.jpg,AMSA04.jpg,AMNE04.jpg,AMNE04.jpg,MN,1,num_4,16,num_4,0.816798816842,,,2017_May_18_1057,60.0067940433,FEMA4ImagesEEG,001,100501,
AFNE01.JPG,AFNE01.JPG,AFNE01.JPG,AFNE01.JPG,AFNE01.JPG,AFNE01.JPG,,,,,,,,,,,,,0,8,8,9,,,,,,,,,,,AMSA18.jpg,AMNE19.jpg,AMSA20.jpg,AMNE07.jpg,AMNE19.jpg,MN,1,num_6,32,num_4,1.01675481134,,,2017_May_18_1057,60.0067940433,FEMA4ImagesEEG,001,100501,
AFNE01.JPG,AFNE01.JPG,AFNE01.JPG,AFNE01.JPG,AFNE01.JPG,AFNE01.JPG,,,,,,,,,,,,,0,9,9,7,,,,,,,,,,,AMSA03.jpg,AMNE19.jpg,AMNE05.jpg,AMSA01.jpg,AMSA03.jpg,MS,2,num_8,16,num_8,1.2836546773,,,2017_May_18_1057,60.0067940433,FEMA4ImagesEEG,001,100501,
AFNE01.JPG,AFNE01.JPG,AFNE01.JPG,AFNE01.JPG,AFNE01.JPG,AFNE01.JPG,,,,,,,,,,,,,1,0,10,1,,,,,,,,,,,AMSA18.jpg,AMNE06.jpg,AMNE09.jpg,AMSA19.jpg,AMSA18.jpg,MS,2,num_8,16,num_8,1.05008225374,,,2017_May_18_1057,60.0067940433,FEMA4ImagesEEG,001,100501,
AFNE01.JPG,AFNE01.JPG,AFNE01.JPG,AFNE01.JPG,AFNE01.JPG,AFNE01.JPG,,,,,,,,,,,,,1,1,11,4,,,,,,,,,,,AMSA03.jpg,AMNE02.jpg,AMNE13.jpg,AMSA11.jpg,AMSA03.jpg,MS,2,num_8,32,num_4,0.733524793686,,,2017_May_18_1057,60.0067940433,FEMA4ImagesEEG,001,100501,
AFNE01.JPG,AFNE01.JPG,AFNE01.JPG,AFNE01.JPG,AFNE01.JPG,AFNE01.JPG,,,,,,,,,,,,,1,2,12,3,,,,,,,,,,,AMNE19.jpg,AMSA04.jpg,AMNE10.jpg,AMSA03.jpg,AMNE10.jpg,MN,1,num_2,32,num_4,0.916824443964,,,2017_May_18_1057,60.0067940433,FEMA4ImagesEEG,001,100501,
AFNE01.JPG,AFNE01.JPG,AFNE01.JPG,AFNE01.JPG,AFNE01.JPG,AFNE01.JPG,,,,,,,,,,,,,1,3,13,6,,,,,,,,,,,AMNE05.jpg,AMNE19.jpg,AMSA05.jpg,AMSA13.jpg,AMNE05.jpg,MN,1,num_8,32,num_2,2.48329955408,,,2017_May_18_1057,60.0067940433,FEMA4ImagesEEG,001,100501,
AFNE01.JPG,AFNE01.JPG,AFNE01.JPG,AFNE01.JPG,AFNE01.JPG,AFNE01.JPG,,,,,,,,,,,,,1,4,14,9,,,,,,,,,,,AMNE05.jpg,AMNE19.jpg,AMSA09.jpg,AMSA02.jpg,AMNE05.jpg,MN,1,num_8,32,num_6,0.716771265303,,,2017_May_18_1057,60.0067940433,FEMA4ImagesEEG,001,100501,
AFNE01.JPG,AFNE01.JPG,AFNE01.JPG,AFNE01.JPG,AFNE01.JPG,AFNE01.JPG,,,,,,,,,,,,,1,5,15,2,,,,,,,,,,,AMNE16.jpg,AMNE06.jpg,AMSA06.jpg,AMSA16.jpg,AMSA06.jpg,MS,2,num_2,16,num_2,1.30009901241,,,2017_May_18_1057,60.0067940433,FEMA4ImagesEEG,001,100501,
AFNE01.JPG,AFNE01.JPG,AFNE01.JPG,AFNE01.JPG,AFNE01.JPG,AFNE01.JPG,,,,,,,,,,,,,1,6,16,7,,,,,,,,,,,AMNE02.jpg,AMSA11.jpg,AMNE11.jpg,AMSA05.jpg,AMNE02.jpg,MN,1,num_8,32,num_2,3.56627240247,,,2017_May_18_1057,60.0067940433,FEMA4ImagesEEG,001,100501,
AFNE01.JPG,AFNE01.JPG,AFNE01.JPG,AFNE01.JPG,AFNE01.JPG,AFNE01.JPG,,,,,,,,,,,,,1,7,17,0,,,,,,,,,,,AMSA03.jpg,AMSA14.jpg,AMNE12.jpg,AMNE18.jpg,AMNE18.jpg,MN,1,num_4,32,num_8,1.71672122987,,,2017_May_18_1057,60.0067940433,FEMA4ImagesEEG,001,100501,
AFNE01.JPG,AFNE01.JPG,AFNE01.JPG,AFNE01.JPG,AFNE01.JPG,AFNE01.JPG,,,,,,,,,,,,,1,8,18,8,,,,,,,,,,,AMSA03.jpg,AMNE19.jpg,AMSA08.jpg,AMNE08.jpg,AMNE19.jpg,MN,1,num_6,32,num_8,1.38339388369,,,2017_May_18_1057,60.0067940433,FEMA4ImagesEEG,001,100501,
AFNE01.JPG,AFNE01.JPG,AFNE01.JPG,AFNE01.JPG,AFNE01.JPG,AFNE01.JPG,,,,,,,,,,,,,1,9,19,5,,,,,,,,,,,AMSA11.jpg,AMNE15.jpg,AMNE18.jpg,AMSA01.jpg,AMSA01.jpg,MS,2,num_4,16,num_4,1.01669900259,,,2017_May_18_1057,60.0067940433,FEMA4ImagesEEG,001,100501,
AFNE01.JPG,AFNE01.JPG,AFNE01.JPG,AFNE01.JPG,AFNE01.JPG,AFNE01.JPG,,,,,,,,,,,,,2,0,20,1,,,,,,,,,,,AMNE05.jpg,AMNE16.jpg,AMSA06.jpg,AMSA16.jpg,AMSA06.jpg,MS,2,num_2,32,num_4,1.03345285171,,,2017_May_18_1057,60.0067940433,FEMA4ImagesEEG,001,100501,
AFNE01.JPG,AFNE01.JPG,AFNE01.JPG,AFNE01.JPG,AFNE01.JPG,AFNE01.JPG,,,,,,,,,,,,,2,1,21,9,,,,,,,,,,,AMSA15.jpg,AMNE11.jpg,AMSA07.jpg,AMNE13.jpg,AMSA07.jpg,MS,2,num_2,32,num_6,0.966791231345,,,2017_May_18_1057,60.0067940433,FEMA4ImagesEEG,001,100501,
AFNE01.JPG,AFNE01.JPG,AFNE01.JPG,AFNE01.JPG,AFNE01.JPG,AFNE01.JPG,,,,,,,,,,,,,2,2,22,7,,,,,,,,,,,AMNE09.jpg,AMNE05.jpg,AMSA01.jpg,AMSA05.jpg,AMSA01.jpg,MS,2,num_2,16,num_2,1.11658125898,,,2017_May_18_1057,60.0067940433,FEMA4ImagesEEG,001,100501,
AFNE01.JPG,AFNE01.JPG,AFNE01.JPG,AFNE01.JPG,AFNE01.JPG,AFNE01.JPG,,,,,,,,,,,,,2,3,23,0,,,,,,,,,,,AMSA04.jpg,AMNE09.jpg,AMNE02.jpg,AMSA18.jpg,AMNE02.jpg,MN,1,num_2,16,num_2,1.01681062009,,,2017_May_18_1057,60.0067940433,FEMA4ImagesEEG,001,100501,
AFNE01.JPG,AFNE01.JPG,AFNE01.JPG,AFNE01.JPG,AFNE01.JPG,AFNE01.JPG,,,,,,,,,,,,,2,4,24,5,,,,,,,,,,,AMNE05.jpg,AMSA10.jpg,AMNE18.jpg,AMSA20.jpg,AMNE18.jpg,MN,1,num_2,32,num_6,0.783474581855,,,2017_May_18_1057,60.0067940433,FEMA4ImagesEEG,001,100501,
AFNE01.JPG,AFNE01.JPG,AFNE01.JPG,AFNE01.JPG,AFNE01.JPG,AFNE01.JPG,,,,,,,,,,,,,2,5,25,4,,,,,,,,,,,AMSA11.jpg,AMNE02.jpg,AMSA08.jpg,AMNE06.jpg,AMSA11.jpg,MS,2,num_8,32,num_4,1.0001318241,,,2017_May_18_1057,60.0067940433,FEMA4ImagesEEG,001,100501,
AFNE01.JPG,AFNE01.JPG,AFNE01.JPG,AFNE01.JPG,AFNE01.JPG,AFNE01.JPG,,,,,,,,,,,,,2,6,26,8,,,,,,,,,,,AMNE04.jpg,AMNE03.jpg,AMSA17.jpg,AMSA01.jpg,AMNE03.jpg,MN,1,num_6,32,num_8,1.28341893347,,,2017_May_18_1057,60.0067940433,FEMA4ImagesEEG,001,100501,
AFNE01.JPG,AFNE01.JPG,AFNE01.JPG,AFNE01.JPG,AFNE01.JPG,AFNE01.JPG,,,,,,,,,,,,,2,7,27,6,,,,,,,,,,,AMNE04.jpg,AMSA03.jpg,AMSA15.jpg,AMNE01.jpg,AMNE01.jpg,MN,1,num_4,32,num_6,0.733438514653,,,2017_May_18_1057,60.0067940433,FEMA4ImagesEEG,001,100501,
AFNE01.JPG,AFNE01.JPG,AFNE01.JPG,AFNE01.JPG,AFNE01.JPG,AFNE01.JPG,,,,,,,,,,,,,2,8,28,2,,,,,,,,,,,AMNE15.jpg,AMSA09.jpg,AMNE01.jpg,AMSA14.jpg,AMNE01.jpg,MN,1,num_2,32,num_4,1.21672042803,,,2017_May_18_1057,60.0067940433,FEMA4ImagesEEG,001,100501,
AFNE01.JPG,AFNE01.JPG,AFNE01.JPG,AFNE01.JPG,AFNE01.JPG,AFNE01.JPG,,,,,,,,,,,,,2,9,29,3,,,,,,,,,,,AMSA04.jpg,AMSA14.jpg,AMNE03.jpg,AMNE02.jpg,AMNE03.jpg,MN,1,num_2,32,num_4,3.60022560846,,,2017_May_18_1057,60.0067940433,FEMA4ImagesEEG,001,100501,
AFNE01.JPG,AFNE01.JPG,AFNE01.JPG,AFNE01.JPG,AFNE01.JPG,AFNE01.JPG,,,,,,,,,,,,,3,0,30,0,,,,,,,,,,,AMSA19.jpg,AMNE14.jpg,AMNE16.jpg,AMSA02.jpg,AMSA19.jpg,MS,2,num_8,32,num_4,0.833435916647,,,2017_May_18_1057,60.0067940433,FEMA4ImagesEEG,001,100501,
AFNE01.JPG,AFNE01.JPG,AFNE01.JPG,AFNE01.JPG,AFNE01.JPG,AFNE01.JPG,,,,,,,,,,,,,3,1,31,4,,,,,,,,,,,AMNE01.jpg,AMSA16.jpg,AMNE06.jpg,AMSA14.jpg,AMNE01.jpg,MN,1,num_8,32,num_4,0.950387950958,,,2017_May_18_1057,60.0067940433,FEMA4ImagesEEG,001,100501,
AFNE01.JPG,AFNE01.JPG,AFNE01.JPG,AFNE01.JPG,AFNE01.JPG,AFNE01.JPG,,,,,,,,,,,,,3,2,32,8,,,,,,,,,,,AMNE10.jpg,AMSA17.jpg,AMNE01.jpg,AMSA04.jpg,AMNE10.jpg,MN,1,num_8,32,num_4,1.70009214857,,,2017_May_18_1057,60.0067940433,FEMA4ImagesEEG,001,100501,
AFNE01.JPG,AFNE01.JPG,AFNE01.JPG,AFNE01.JPG,AFNE01.JPG,AFNE01.JPG,,,,,,,,,,,,,3,3,33,6,,,,,,,,,,,AMSA18.jpg,AMNE20.jpg,AMNE09.jpg,AMSA06.jpg,AMNE09.jpg,MN,1,num_2,32,num_6,1.1667501125,,,2017_May_18_1057,60.0067940433,FEMA4ImagesEEG,001,100501,
AFNE01.JPG,AFNE01.JPG,AFNE01.JPG,AFNE01.JPG,AFNE01.JPG,AFNE01.JPG,,,,,,,,,,,,,3,4,34,9,,,,,,,,,,,AMNE03.jpg,AMSA13.jpg,AMSA17.jpg,AMNE04.jpg,AMSA17.jpg,MS,2,num_2,32,num_8,0.41678579482,,,2017_May_18_1057,60.0067940433,FEMA4ImagesEEG,001,100501,
AFNE01.JPG,AFNE01.JPG,AFNE01.JPG,AFNE01.JPG,AFNE01.JPG,AFNE01.JPG,,,,,,,,,,,,,3,5,35,7,,,,,,,,,,,AMSA19.jpg,AMNE15.jpg,AMSA04.jpg,AMNE09.jpg,AMNE09.jpg,MN,1,num_4,32,num_2,0.983408445274,,,2017_May_18_1057,60.0067940433,FEMA4ImagesEEG,001,100501,
AFNE01.JPG,AFNE01.JPG,AFNE01.JPG,AFNE01.JPG,AFNE01.JPG,AFNE01.JPG,,,,,,,,,,,,,3,6,36,3,,,,,,,,,,,AMSA17.jpg,AMNE14.jpg,AMSA15.jpg,AMNE02.jpg,AMSA17.jpg,MS,2,num_8,32,num_6,0.85029176106,,,2017_May_18_1057,60.0067940433,FEMA4ImagesEEG,001,100501,
AFNE01.JPG,AFNE01.JPG,AFNE01.JPG,AFNE01.JPG,AFNE01.JPG,AFNE01.JPG,,,,,,,,,,,,,3,7,37,5,,,,,,,,,,,AMSA16.jpg,AMNE05.jpg,AMSA15.jpg,AMNE15.jpg,AMNE15.jpg,MN,1,num_4,16,num_4,1.61670105532,,,2017_May_18_1057,60.0067940433,FEMA4ImagesEEG,001,100501,
AFNE01.JPG,AFNE01.JPG,AFNE01.JPG,AFNE01.JPG,AFNE01.JPG,AFNE01.JPG,,,,,,,,,,,,,3,8,38,2,,,,,,,,,,,AMSA02.jpg,AMSA01.jpg,AMNE07.jpg,AMNE04.jpg,AMSA02.jpg,MS,2,num_8,32,num_4,1.41673094829,,,2017_May_18_1057,60.0067940433,FEMA4ImagesEEG,001,100501,
AFNE01.JPG,AFNE01.JPG,AFNE01.JPG,AFNE01.JPG,AFNE01.JPG,AFNE01.JPG,,,,,,,,,,,,,3,9,39,1,,,,,,,,,,,AMSA18.jpg,AMNE09.jpg,AMSA05.jpg,AMNE03.jpg,AMSA05.jpg,MS,2,num_2,32,num_6,0.616869123041,,,2017_May_18_1057,60.0067940433,FEMA4ImagesEEG,001,100501,
AFNE01.JPG,AFNE01.JPG,AFNE01.JPG,AFNE01.JPG,AFNE01.JPG,AFNE01.JPG,,,,,,,,,,,,,4,0,40,5,,,,,,,,,,,AMSA16.jpg,AMNE13.jpg,AMSA05.jpg,AMNE15.jpg,AMNE15.jpg,MN,1,num_4,16,num_4,0.616839935712,,,2017_May_18_1057,60.0067940433,FEMA4ImagesEEG,001,100501,
AFNE01.JPG,AFNE01.JPG,AFNE01.JPG,AFNE01.JPG,AFNE01.JPG,AFNE01.JPG,,,,,,,,,,,,,4,1,41,4,,,,,,,,,,,AMSA11.jpg,AMNE19.jpg,AMSA03.jpg,AMNE03.jpg,AMNE03.jpg,MN,1,num_4,32,num_8,0.616770335153,,,2017_May_18_1057,60.0067940433,FEMA4ImagesEEG,001,100501,
AFNE01.JPG,AFNE01.JPG,AFNE01.JPG,AFNE01.JPG,AFNE01.JPG,AFNE01.JPG,,,,,,,,,,,,,4,2,42,2,,,,,,,,,,,AMNE11.jpg,AMNE07.jpg,AMSA14.jpg,AMSA01.jpg,AMSA01.jpg,MS,2,num_4,16,num_4,0.850141334042,,,2017_May_18_1057,60.0067940433,FEMA4ImagesEEG,001,100501,
AFNE01.JPG,AFNE01.JPG,AFNE01.JPG,AFNE01.JPG,AFNE01.JPG,AFNE01.JPG,,,,,,,,,,,,,4,3,43,8,,,,,,,,,,,AMNE18.jpg,AMNE14.jpg,AMSA03.jpg,AMSA04.jpg,AMSA03.jpg,MS,2,num_2,32,num_4,1.35005810203,,,2017_May_18_1057,60.0067940433,FEMA4ImagesEEG,001,100501,
AFNE01.JPG,AFNE01.JPG,AFNE01.JPG,AFNE01.JPG,AFNE01.JPG,AFNE01.JPG,,,,,,,,,,,,,4,4,44,1,,,,,,,,,,,AMNE13.jpg,AMSA19.jpg,AMSA07.jpg,AMNE04.jpg,AMSA19.jpg,MS,2,num_6,32,num_8,2.10002594786,,,2017_May_18_1057,60.0067940433,FEMA4ImagesEEG,001,100501,
AFNE01.JPG,AFNE01.JPG,AFNE01.JPG,AFNE01.JPG,AFNE01.JPG,AFNE01.JPG,,,,,,,,,,,,,4,5,45,0,,,,,,,,,,,AMNE19.jpg,AMNE18.jpg,AMSA04.jpg,AMSA02.jpg,AMNE18.jpg,MN,1,num_6,32,num_8,0.883464927581,,,2017_May_18_1057,60.0067940433,FEMA4ImagesEEG,001,100501,
AFNE01.JPG,AFNE01.JPG,AFNE01.JPG,AFNE01.JPG,AFNE01.JPG,AFNE01.JPG,,,,,,,,,,,,,4,6,46,6,,,,,,,,,,,AMNE08.jpg,AMSA08.jpg,AMSA01.jpg,AMNE04.jpg,AMNE04.jpg,MN,1,num_4,32,num_2,1.41671908091,,,2017_May_18_1057,60.0067940433,FEMA4ImagesEEG,001,100501,
AFNE01.JPG,AFNE01.JPG,AFNE01.JPG,AFNE01.JPG,AFNE01.JPG,AFNE01.JPG,,,,,,,,,,,,,4,7,47,7,,,,,,,,,,,AMNE10.jpg,AMSA20.jpg,AMSA06.jpg,AMNE12.jpg,AMSA20.jpg,MS,2,num_6,16,num_6,0.716770303072,,,2017_May_18_1057,60.0067940433,FEMA4ImagesEEG,001,100501,
AFNE01.JPG,AFNE01.JPG,AFNE01.JPG,AFNE01.JPG,AFNE01.JPG,AFNE01.JPG,,,,,,,,,,,,,4,8,48,3,,,,,,,,,,,AMSA05.jpg,AMSA15.jpg,AMNE13.jpg,AMNE03.jpg,AMSA05.jpg,MS,2,num_8,16,num_8,1.18314986475,,,2017_May_18_1057,60.0067940433,FEMA4ImagesEEG,001,100501,
AFNE01.JPG,AFNE01.JPG,AFNE01.JPG,AFNE01.JPG,AFNE01.JPG,AFNE01.JPG,,,,,,,,,,,,,4,9,49,9,,,,,,,,,,,AMSA15.jpg,AMSA19.jpg,AMNE11.jpg,AMNE04.jpg,AMSA15.jpg,MS,2,num_8,16,num_8,1.60013772572,,,2017_May_18_1057,60.0067940433,FEMA4ImagesEEG,001,100501,
AFNE01.JPG,AFNE01.JPG,AFNE01.JPG,AFNE01.JPG,AFNE01.JPG,AFNE01.JPG,,,,,,,,,,,,,5,0,50,0,,,,,,,,,,,AMNE11.jpg,AMSA10.jpg,AMSA12.jpg,AMNE10.jpg,AMSA10.jpg,MS,2,num_6,32,num_2,1.13341978342,,,2017_May_18_1057,60.0067940433,FEMA4ImagesEEG,001,100501,
AFNE01.JPG,AFNE01.JPG,AFNE01.JPG,AFNE01.JPG,AFNE01.JPG,AFNE01.JPG,,,,,,,,,,,,,5,1,51,1,,,,,,,,,,,AMNE06.jpg,AMSA02.jpg,AMSA17.jpg,AMNE18.jpg,AMNE06.jpg,MN,1,num_8,16,num_8,1.15008093872,,,2017_May_18_1057,60.0067940433,FEMA4ImagesEEG,001,100501,
AFNE01.JPG,AFNE01.JPG,AFNE01.JPG,AFNE01.JPG,AFNE01.JPG,AFNE01.JPG,,,,,,,,,,,,,5,2,52,8,,,,,,,,,,,AMSA13.jpg,AMSA07.jpg,AMNE19.jpg,AMNE06.jpg,AMNE06.jpg,MN,1,num_4,16,num_4,3.68319140057,,,2017_May_18_1057,60.0067940433,FEMA4ImagesEEG,001,100501,
AFNE01.JPG,AFNE01.JPG,AFNE01.JPG,AFNE01.JPG,AFNE01.JPG,AFNE01.JPG,,,,,,,,,,,,,5,3,53,7,,,,,,,,,,,AMNE11.jpg,AMSA13.jpg,AMNE02.jpg,AMSA14.jpg,AMNE02.jpg,MN,1,num_2,32,num_4,2.6833322054,,,2017_May_18_1057,60.0067940433,FEMA4ImagesEEG,001,100501,
AFNE01.JPG,AFNE01.JPG,AFNE01.JPG,AFNE01.JPG,AFNE01.JPG,AFNE01.JPG,,,,,,,,,,,,,5,4,54,6,,,,,,,,,,,AMNE09.jpg,AMSA15.jpg,AMSA20.jpg,AMNE02.jpg,AMNE02.jpg,MN,1,num_4,16,num_4,0.916802954394,,,2017_May_18_1057,60.0067940433,FEMA4ImagesEEG,001,100501,
AFNE01.JPG,AFNE01.JPG,AFNE01.JPG,AFNE01.JPG,AFNE01.JPG,AFNE01.JPG,,,,,,,,,,,,,5,5,55,9,,,,,,,,,,,AMNE11.jpg,AMSA03.jpg,AMNE09.jpg,AMSA04.jpg,AMSA04.jpg,MS,2,num_4,16,num_4,1.233526237,,,2017_May_18_1057,60.0067940433,FEMA4ImagesEEG,001,100501,
AFNE01.JPG,AFNE01.JPG,AFNE01.JPG,AFNE01.JPG,AFNE01.JPG,AFNE01.JPG,,,,,,,,,,,,,5,6,56,3,,,,,,,,,,,AMNE04.jpg,AMSA01.jpg,AMSA02.jpg,AMNE07.jpg,AMSA01.jpg,MS,2,num_6,32,num_4,1.06664397966,,,2017_May_18_1057,60.0067940433,FEMA4ImagesEEG,001,100501,
AFNE01.JPG,AFNE01.JPG,AFNE01.JPG,AFNE01.JPG,AFNE01.JPG,AFNE01.JPG,,,,,,,,,,,,,5,7,57,5,,,,,,,,,,,AMSA17.jpg,AMSA10.jpg,AMNE06.jpg,AMNE09.jpg,AMNE06.jpg,MN,1,num_2,32,num_8,1.76667647062,,,2017_May_18_1057,60.0067940433,FEMA4ImagesEEG,001,100501,
AFNE01.JPG,AFNE01.JPG,AFNE01.JPG,AFNE01.JPG,AFNE01.JPG,AFNE01.JPG,,,,,,,,,,,,,5,8,58,4,,,,,,,,,,,AMNE15.jpg,AMSA05.jpg,AMSA18.jpg,AMNE12.jpg,AMSA05.jpg,MS,2,num_6,16,num_6,0.68352657379,,,2017_May_18_1057,60.0067940433,FEMA4ImagesEEG,001,100501,
AFNE01.JPG,AFNE01.JPG,AFNE01.JPG,AFNE01.JPG,AFNE01.JPG,AFNE01.JPG,,,,,,,,,,,,,5,9,59,2,,,,,,,,,,,AMSA14.jpg,AMNE09.jpg,AMNE18.jpg,AMSA03.jpg,AMSA03.jpg,MS,2,num_4,32,num_2,3.01658385697,,,2017_May_18_1057,60.0067940433,FEMA4ImagesEEG,001,100501,
,,,,,,,,,,,,,,,,,,,,,,,,,,,,,,,,,,,,,,,,,,,space,23.5986100415,2017_May_18_1057,60.0067940433,FEMA4ImagesEEG,001,100501,
AFNE01.JPG,AFNE01.JPG,AFNE01.JPG,AFNE01.JPG,AFNE01.JPG,AFNE01.JPG,,,,,,,,,,,,,,,,,0,0,0,3,,,,,,,AFNE12.jpg,AFNE20.jpg,AFSA17.jpg,AFSA09.jpg,AFNE20.jpg,FN,3,num_6,32,num_2,1.60005978592,,,2017_May_18_1057,60.0067940433,FEMA4ImagesEEG,001,100501,
AFNE01.JPG,AFNE01.JPG,AFNE01.JPG,AFNE01.JPG,AFNE01.JPG,AFNE01.JPG,,,,,,,,,,,,,,,,,0,1,1,5,,,,,,,AFSA06.jpg,AFNE01.jpg,AFSA01.jpg,AFNE16.jpg,AFSA01.jpg,FS,4,num_2,16,num_2,1.13347238477,,,2017_May_18_1057,60.0067940433,FEMA4ImagesEEG,001,100501,
AFNE01.JPG,AFNE01.JPG,AFNE01.JPG,AFNE01.JPG,AFNE01.JPG,AFNE01.JPG,,,,,,,,,,,,,,,,,0,2,2,2,,,,,,,AFSA02.jpg,AFNE20.jpg,AFSA06.jpg,AFNE02.jpg,AFNE20.jpg,FN,3,num_6,16,num_6,0.716765171237,,,2017_May_18_1057,60.0067940433,FEMA4ImagesEEG,001,100501,
AFNE01.JPG,AFNE01.JPG,AFNE01.JPG,AFNE01.JPG,AFNE01.JPG,AFNE01.JPG,,,,,,,,,,,,,,,,,0,3,3,7,,,,,,,AFSA10.jpg,AFNE14.jpg,AFNE03.jpg,AFSA13.jpg,AFSA10.jpg,FS,4,num_8,16,num_8,1.14979259354,,,2017_May_18_1057,60.0067940433,FEMA4ImagesEEG,001,100501,
AFNE01.JPG,AFNE01.JPG,AFNE01.JPG,AFNE01.JPG,AFNE01.JPG,AFNE01.JPG,,,,,,,,,,,,,,,,,0,4,4,1,,,,,,,AFSA07.jpg,AFNE17.jpg,AFSA01.jpg,AFNE19.jpg,AFSA01.jpg,FS,4,num_2,32,num_4,0.733489512277,,,2017_May_18_1057,60.0067940433,FEMA4ImagesEEG,001,100501,
AFNE01.JPG,AFNE01.JPG,AFNE01.JPG,AFNE01.JPG,AFNE01.JPG,AFNE01.JPG,,,,,,,,,,,,,,,,,0,5,5,0,,,,,,,AFNE18.jpg,AFSA18.jpg,AFSA16.jpg,AFNE15.jpg,AFNE18.jpg,FN,3,num_8,32,num_2,2.09999996793,,,2017_May_18_1057,60.0067940433,FEMA4ImagesEEG,001,100501,
AFNE01.JPG,AFNE01.JPG,AFNE01.JPG,AFNE01.JPG,AFNE01.JPG,AFNE01.JPG,,,,,,,,,,,,,,,,,0,6,6,8,,,,,,,AFSA05.jpg,AFSA09.jpg,AFNE06.jpg,AFNE19.jpg,AFNE19.jpg,FN,3,num_4,32,num_8,1.00012925819,,,2017_May_18_1057,60.0067940433,FEMA4ImagesEEG,001,100501,
AFNE01.JPG,AFNE01.JPG,AFNE01.JPG,AFNE01.JPG,AFNE01.JPG,AFNE01.JPG,,,,,,,,,,,,,,,,,0,7,7,9,,,,,,,AFNE14.jpg,AFNE15.jpg,AFSA18.jpg,AFSA20.jpg,AFNE14.jpg,FN,3,num_8,32,num_2,1.13348296919,,,2017_May_18_1057,60.0067940433,FEMA4ImagesEEG,001,100501,
AFNE01.JPG,AFNE01.JPG,AFNE01.JPG,AFNE01.JPG,AFNE01.JPG,AFNE01.JPG,,,,,,,,,,,,,,,,,0,8,8,6,,,,,,,AFSA14.jpg,AFNE14.jpg,AFNE11.jpg,AFSA06.jpg,AFNE11.jpg,FN,3,num_2,32,num_8,1.7166885144,,,2017_May_18_1057,60.0067940433,FEMA4ImagesEEG,001,100501,
AFNE01.JPG,AFNE01.JPG,AFNE01.JPG,AFNE01.JPG,AFNE01.JPG,AFNE01.JPG,,,,,,,,,,,,,,,,,0,9,9,4,,,,,,,AFSA07.jpg,AFNE02.jpg,AFNE07.jpg,AFSA09.jpg,AFNE02.jpg,FN,3,num_6,32,num_2,2.38337752594,,,2017_May_18_1057,60.0067940433,FEMA4ImagesEEG,001,100501,
AFNE01.JPG,AFNE01.JPG,AFNE01.JPG,AFNE01.JPG,AFNE01.JPG,AFNE01.JPG,,,,,,,,,,,,,,,,,1,0,10,6,,,,,,,AFSA04.jpg,AFNE18.jpg,AFSA18.jpg,AFNE02.jpg,AFNE02.jpg,FN,3,num_4,32,num_8,1.10012313206,,,2017_May_18_1057,60.0067940433,FEMA4ImagesEEG,001,100501,
AFNE01.JPG,AFNE01.JPG,AFNE01.JPG,AFNE01.JPG,AFNE01.JPG,AFNE01.JPG,,,,,,,,,,,,,,,,,1,1,11,1,,,,,,,AFNE10.jpg,AFSA12.jpg,AFSA09.jpg,AFNE14.jpg,AFNE14.jpg,FN,3,num_4,16,num_4,1.01674390618,,,2017_May_18_1057,60.0067940433,FEMA4ImagesEEG,001,100501,
AFNE01.JPG,AFNE01.JPG,AFNE01.JPG,AFNE01.JPG,AFNE01.JPG,AFNE01.JPG,,,,,,,,,,,,,,,,,1,2,12,0,,,,,,,AFNE04.jpg,AFSA08.jpg,AFNE12.jpg,AFSA16.jpg,AFNE04.jpg,FN,3,num_8,16,num_8,0.850118240764,,,2017_May_18_1057,60.0067940433,FEMA4ImagesEEG,001,100501,
AFNE01.JPG,AFNE01.JPG,AFNE01.JPG,AFNE01.JPG,AFNE01.JPG,AFNE01.JPG,,,,,,,,,,,,,,,,,1,3,13,3,,,,,,,AFSA02.jpg,AFNE03.jpg,AFSA10.jpg,AFNE17.jpg,AFNE17.jpg,FN,3,num_4,32,num_8,0.866762717589,,,2017_May_18_1057,60.0067940433,FEMA4ImagesEEG,001,100501,
AFNE01.JPG,AFNE01.JPG,AFNE01.JPG,AFNE01.JPG,AFNE01.JPG,AFNE01.JPG,,,,,,,,,,,,,,,,,1,4,14,8,,,,,,,AFNE14.jpg,AFNE03.jpg,AFSA14.jpg,AFSA08.jpg,AFNE03.jpg,FN,3,num_6,32,num_8,2.79993302951,,,2017_May_18_1057,60.0067940433,FEMA4ImagesEEG,001,100501,
AFNE01.JPG,AFNE01.JPG,AFNE01.JPG,AFNE01.JPG,AFNE01.JPG,AFNE01.JPG,,,,,,,,,,,,,,,,,1,5,15,5,,,,,,,AFSA14.jpg,AFSA15.jpg,AFNE05.jpg,AFNE02.jpg,AFSA14.jpg,FS,4,num_8,32,num_2,1.23351693555,,,2017_May_18_1057,60.0067940433,FEMA4ImagesEEG,001,100501,
AFNE01.JPG,AFNE01.JPG,AFNE01.JPG,AFNE01.JPG,AFNE01.JPG,AFNE01.JPG,,,,,,,,,,,,,,,,,1,6,16,7,,,,,,,AFSA02.jpg,AFNE11.jpg,AFNE19.jpg,AFSA03.jpg,AFNE19.jpg,FN,3,num_2,32,num_4,0.833439765527,,,2017_May_18_1057,60.0067940433,FEMA4ImagesEEG,001,100501,
AFNE01.JPG,AFNE01.JPG,AFNE01.JPG,AFNE01.JPG,AFNE01.JPG,AFNE01.JPG,,,,,,,,,,,,,,,,,1,7,17,2,,,,,,,AFNE19.jpg,AFSA15.jpg,AFNE17.jpg,AFSA03.jpg,AFNE19.jpg,FN,3,num_8,32,num_4,1.11676408073,,,2017_May_18_1057,60.0067940433,FEMA4ImagesEEG,001,100501,
AFNE01.JPG,AFNE01.JPG,AFNE01.JPG,AFNE01.JPG,AFNE01.JPG,AFNE01.JPG,,,,,,,,,,,,,,,,,1,8,18,4,,,,,,,AFSA03.jpg,AFNE02.jpg,AFSA14.jpg,AFNE03.jpg,AFSA14.jpg,FS,4,num_2,32,num_6,0.933443261601,,,2017_May_18_1057,60.0067940433,FEMA4ImagesEEG,001,100501,
AFNE01.JPG,AFNE01.JPG,AFNE01.JPG,AFNE01.JPG,AFNE01.JPG,AFNE01.JPG,,,,,,,,,,,,,,,,,1,9,19,9,,,,,,,AFSA01.jpg,AFSA05.jpg,AFNE16.jpg,AFNE02.jpg,AFNE02.jpg,FN,3,num_4,16,num_4,1.23349159709,,,2017_May_18_1057,60.0067940433,FEMA4ImagesEEG,001,100501,
AFNE01.JPG,AFNE01.JPG,AFNE01.JPG,AFNE01.JPG,AFNE01.JPG,AFNE01.JPG,,,,,,,,,,,,,,,,,2,0,20,5,,,,,,,AFSA08.jpg,AFSA05.jpg,AFNE01.jpg,AFNE06.jpg,AFNE06.jpg,FN,3,num_4,32,num_8,0.916759654516,,,2017_May_18_1057,60.0067940433,FEMA4ImagesEEG,001,100501,
AFNE01.JPG,AFNE01.JPG,AFNE01.JPG,AFNE01.JPG,AFNE01.JPG,AFNE01.JPG,,,,,,,,,,,,,,,,,2,1,21,3,,,,,,,AFSA18.jpg,AFNE16.jpg,AFSA12.jpg,AFNE03.jpg,AFNE16.jpg,FN,3,num_6,32,num_8,1.3000772021,,,2017_May_18_1057,60.0067940433,FEMA4ImagesEEG,001,100501,
AFNE01.JPG,AFNE01.JPG,AFNE01.JPG,AFNE01.JPG,AFNE01.JPG,AFNE01.JPG,,,,,,,,,,,,,,,,,2,2,22,4,,,,,,,AFNE04.jpg,AFNE08.jpg,AFSA17.jpg,AFSA20.jpg,AFSA20.jpg,FS,4,num_4,32,num_2,2.09999547758,,,2017_May_18_1057,60.0067940433,FEMA4ImagesEEG,001,100501,
AFNE01.JPG,AFNE01.JPG,AFNE01.JPG,AFNE01.JPG,AFNE01.JPG,AFNE01.JPG,,,,,,,,,,,,,,,,,2,3,23,9,,,,,,,AFSA10.jpg,AFNE17.jpg,AFSA06.jpg,AFNE10.jpg,AFNE10.jpg,FN,3,num_4,32,num_8,1.1333809739,,,2017_May_18_1057,60.0067940433,FEMA4ImagesEEG,001,100501,
AFNE01.JPG,AFNE01.JPG,AFNE01.JPG,AFNE01.JPG,AFNE01.JPG,AFNE01.JPG,,,,,,,,,,,,,,,,,2,4,24,8,,,,,,,AFSA19.jpg,AFNE03.jpg,AFSA09.jpg,AFNE05.jpg,AFNE05.jpg,FN,3,num_4,32,num_6,0.833452274383,,,2017_May_18_1057,60.0067940433,FEMA4ImagesEEG,001,100501,
AFNE01.JPG,AFNE01.JPG,AFNE01.JPG,AFNE01.JPG,AFNE01.JPG,AFNE01.JPG,,,,,,,,,,,,,,,,,2,5,25,0,,,,,,,AFSA07.jpg,AFSA02.jpg,AFNE12.jpg,AFNE13.jpg,AFNE12.jpg,FN,3,num_2,16,num_2,1.2333806211,,,2017_May_18_1057,60.0067940433,FEMA4ImagesEEG,001,100501,
AFNE01.JPG,AFNE01.JPG,AFNE01.JPG,AFNE01.JPG,AFNE01.JPG,AFNE01.JPG,,,,,,,,,,,,,,,,,2,6,26,2,,,,,,,AFNE02.jpg,AFSA07.jpg,AFSA10.jpg,AFNE14.jpg,AFNE02.jpg,FN,3,num_8,16,num_8,3.3835314811,,,2017_May_18_1057,60.0067940433,FEMA4ImagesEEG,001,100501,
AFNE01.JPG,AFNE01.JPG,AFNE01.JPG,AFNE01.JPG,AFNE01.JPG,AFNE01.JPG,,,,,,,,,,,,,,,,,2,7,27,6,,,,,,,AFNE07.jpg,AFSA09.jpg,AFNE13.jpg,AFSA20.jpg,AFSA20.jpg,FS,4,num_4,32,num_8,2.89994582703,,,2017_May_18_1057,60.0067940433,FEMA4ImagesEEG,001,100501,
AFNE01.JPG,AFNE01.JPG,AFNE01.JPG,AFNE01.JPG,AFNE01.JPG,AFNE01.JPG,,,,,,,,,,,,,,,,,2,8,28,7,,,,,,,AFSA16.jpg,AFNE12.jpg,AFSA05.jpg,AFNE19.jpg,AFSA16.jpg,FS,4,num_8,32,num_2,1.15011846529,,,2017_May_18_1057,60.0067940433,FEMA4ImagesEEG,001,100501,
AFNE01.JPG,AFNE01.JPG,AFNE01.JPG,AFNE01.JPG,AFNE01.JPG,AFNE01.JPG,,,,,,,,,,,,,,,,,2,9,29,1,,,,,,,AFSA02.jpg,AFNE10.jpg,AFNE17.jpg,AFSA18.jpg,AFSA02.jpg,FS,4,num_8,16,num_8,1.71670102325,,,2017_May_18_1057,60.0067940433,FEMA4ImagesEEG,001,100501,
AFNE01.JPG,AFNE01.JPG,AFNE01.JPG,AFNE01.JPG,AFNE01.JPG,AFNE01.JPG,,,,,,,,,,,,,,,,,3,0,30,0,,,,,,,AFSA04.jpg,AFNE13.jpg,AFNE03.jpg,AFSA09.jpg,AFNE13.jpg,FN,3,num_6,32,num_2,1.30012210569,,,2017_May_18_1057,60.0067940433,FEMA4ImagesEEG,001,100501,
AFNE01.JPG,AFNE01.JPG,AFNE01.JPG,AFNE01.JPG,AFNE01.JPG,AFNE01.JPG,,,,,,,,,,,,,,,,,3,1,31,6,,,,,,,AFSA09.jpg,AFNE02.jpg,AFNE10.jpg,AFSA11.jpg,AFSA09.jpg,FS,4,num_8,16,num_8,0.66686189035,,,2017_May_18_1057,60.0067940433,FEMA4ImagesEEG,001,100501,
AFNE01.JPG,AFNE01.JPG,AFNE01.JPG,AFNE01.JPG,AFNE01.JPG,AFNE01.JPG,,,,,,,,,,,,,,,,,3,2,32,9,,,,,,,AFNE13.jpg,AFNE16.jpg,AFSA15.jpg,AFSA05.jpg,AFNE13.jpg,FN,3,num_8,16,num_8,1.46668618903,,,2017_May_18_1057,60.0067940433,FEMA4ImagesEEG,001,100501,
AFNE01.JPG,AFNE01.JPG,AFNE01.JPG,AFNE01.JPG,AFNE01.JPG,AFNE01.JPG,,,,,,,,,,,,,,,,,3,3,33,5,,,,,,,AFNE06.jpg,AFSA09.jpg,AFNE07.jpg,AFSA17.jpg,AFSA17.jpg,FS,4,num_4,32,num_8,2.34977232278,,,2017_May_18_1057,60.0067940433,FEMA4ImagesEEG,001,100501,
AFNE01.JPG,AFNE01.JPG,AFNE01.JPG,AFNE01.JPG,AFNE01.JPG,AFNE01.JPG,,,,,,,,,,,,,,,,,3,4,34,1,,,,,,,AFNE04.jpg,AFNE10.jpg,AFSA10.jpg,AFSA08.jpg,AFNE04.jpg,FN,3,num_8,32,num_4,0.716796603752,,,2017_May_18_1057,60.0067940433,FEMA4ImagesEEG,001,100501,
AFNE01.JPG,AFNE01.JPG,AFNE01.JPG,AFNE01.JPG,AFNE01.JPG,AFNE01.JPG,,,,,,,,,,,,,,,,,3,5,35,8,,,,,,,AFSA15.jpg,AFSA20.jpg,AFNE14.jpg,AFNE06.jpg,AFSA15.jpg,FS,4,num_8,32,num_6,1.90007027412,,,2017_May_18_1057,60.0067940433,FEMA4ImagesEEG,001,100501,
AFNE01.JPG,AFNE01.JPG,AFNE01.JPG,AFNE01.JPG,AFNE01.JPG,AFNE01.JPG,,,,,,,,,,,,,,,,,3,6,36,2,,,,,,,AFSA05.jpg,AFNE14.jpg,AFSA07.jpg,AFNE09.jpg,AFSA05.jpg,FS,4,num_8,16,num_8,2.28369444906,,,2017_May_18_1057,60.0067940433,FEMA4ImagesEEG,001,100501,
AFNE01.JPG,AFNE01.JPG,AFNE01.JPG,AFNE01.JPG,AFNE01.JPG,AFNE01.JPG,,,,,,,,,,,,,,,,,3,7,37,3,,,,,,,AFSA08.jpg,AFSA05.jpg,AFNE01.jpg,AFNE19.jpg,AFNE01.jpg,FN,3,num_2,16,num_2,1.95000915712,,,2017_May_18_1057,60.0067940433,FEMA4ImagesEEG,001,100501,
AFNE01.JPG,AFNE01.JPG,AFNE01.JPG,AFNE01.JPG,AFNE01.JPG,AFNE01.JPG,,,,,,,,,,,,,,,,,3,8,38,4,,,,,,,AFSA10.jpg,AFNE06.jpg,AFSA07.jpg,AFNE07.jpg,AFNE07.jpg,FN,3,num_4,16,num_4,3.18322363493,,,2017_May_18_1057,60.0067940433,FEMA4ImagesEEG,001,100501,
AFNE01.JPG,AFNE01.JPG,AFNE01.JPG,AFNE01.JPG,AFNE01.JPG,AFNE01.JPG,,,,,,,,,,,,,,,,,3,9,39,7,,,,,,,AFNE02.jpg,AFSA11.jpg,AFNE19.jpg,AFSA01.jpg,AFNE02.jpg,FN,3,num_8,32,num_2,2.04999340879,,,2017_May_18_1057,60.0067940433,FEMA4ImagesEEG,001,100501,
AFNE01.JPG,AFNE01.JPG,AFNE01.JPG,AFNE01.JPG,AFNE01.JPG,AFNE01.JPG,,,,,,,,,,,,,,,,,4,0,40,6,,,,,,,AFNE15.jpg,AFSA11.jpg,AFNE01.jpg,AFSA16.jpg,AFSA11.jpg,FS,4,num_6,32,num_4,1.65018341513,,,2017_May_18_1057,60.0067940433,FEMA4ImagesEEG,001,100501,
AFNE01.JPG,AFNE01.JPG,AFNE01.JPG,AFNE01.JPG,AFNE01.JPG,AFNE01.JPG,,,,,,,,,,,,,,,,,4,1,41,0,,,,,,,AFSA03.jpg,AFNE05.jpg,AFSA15.jpg,AFNE08.jpg,AFNE05.jpg,FN,3,num_6,16,num_6,1.00009718419,,,2017_May_18_1057,60.0067940433,FEMA4ImagesEEG,001,100501,
AFNE01.JPG,AFNE01.JPG,AFNE01.JPG,AFNE01.JPG,AFNE01.JPG,AFNE01.JPG,,,,,,,,,,,,,,,,,4,2,42,4,,,,,,,AFSA12.jpg,AFSA03.jpg,AFNE12.jpg,AFNE16.jpg,AFNE12.jpg,FN,3,num_2,32,num_4,0.933450959346,,,2017_May_18_1057,60.0067940433,FEMA4ImagesEEG,001,100501,
AFNE01.JPG,AFNE01.JPG,AFNE01.JPG,AFNE01.JPG,AFNE01.JPG,AFNE01.JPG,,,,,,,,,,,,,,,,,4,3,43,1,,,,,,,AFNE08.jpg,AFSA19.jpg,AFSA01.jpg,AFNE14.jpg,AFSA19.jpg,FS,4,num_6,32,num_2,1.10007405884,,,2017_May_18_1057,60.0067940433,FEMA4ImagesEEG,001,100501,
AFNE01.JPG,AFNE01.JPG,AFNE01.JPG,AFNE01.JPG,AFNE01.JPG,AFNE01.JPG,,,,,,,,,,,,,,,,,4,4,44,5,,,,,,,AFSA17.jpg,AFNE18.jpg,AFNE20.jpg,AFSA20.jpg,AFNE20.jpg,FN,3,num_2,32,num_8,1.08344401534,,,2017_May_18_1057,60.0067940433,FEMA4ImagesEEG,001,100501,
AFNE01.JPG,AFNE01.JPG,AFNE01.JPG,AFNE01.JPG,AFNE01.JPG,AFNE01.JPG,,,,,,,,,,,,,,,,,4,5,45,7,,,,,,,AFNE04.jpg,AFSA09.jpg,AFNE12.jpg,AFSA11.jpg,AFNE12.jpg,FN,3,num_2,16,num_2,1.73367008886,,,2017_May_18_1057,60.0067940433,FEMA4ImagesEEG,001,100501,
AFNE01.JPG,AFNE01.JPG,AFNE01.JPG,AFNE01.JPG,AFNE01.JPG,AFNE01.JPG,,,,,,,,,,,,,,,,,4,6,46,9,,,,,,,AFNE07.jpg,AFSA07.jpg,AFNE03.jpg,AFSA13.jpg,AFNE03.jpg,FN,3,num_2,32,num_4,1.3500561776,,,2017_May_18_1057,60.0067940433,FEMA4ImagesEEG,001,100501,
AFNE01.JPG,AFNE01.JPG,AFNE01.JPG,AFNE01.JPG,AFNE01.JPG,AFNE01.JPG,,,,,,,,,,,,,,,,,4,7,47,8,,,,,,,AFNE05.jpg,AFSA06.jpg,AFSA02.jpg,AFNE11.jpg,AFSA02.jpg,FS,4,num_2,32,num_6,0.900109404392,,,2017_May_18_1057,60.0067940433,FEMA4ImagesEEG,001,100501,
AFNE01.JPG,AFNE01.JPG,AFNE01.JPG,AFNE01.JPG,AFNE01.JPG,AFNE01.JPG,,,,,,,,,,,,,,,,,4,8,48,2,,,,,,,AFNE06.jpg,AFSA14.jpg,AFNE13.jpg,AFSA03.jpg,AFNE06.jpg,FN,3,num_8,16,num_8,0.850243008594,,,2017_May_18_1057,60.0067940433,FEMA4ImagesEEG,001,100501,
AFNE01.JPG,AFNE01.JPG,AFNE01.JPG,AFNE01.JPG,AFNE01.JPG,AFNE01.JPG,,,,,,,,,,,,,,,,,4,9,49,3,,,,,,,AFNE04.jpg,AFSA14.jpg,AFNE17.jpg,AFSA11.jpg,AFSA14.jpg,FS,4,num_6,32,num_2,1.23339248846,,,2017_May_18_1057,60.0067940433,FEMA4ImagesEEG,001,100501,
AFNE01.JPG,AFNE01.JPG,AFNE01.JPG,AFNE01.JPG,AFNE01.JPG,AFNE01.JPG,,,,,,,,,,,,,,,,,5,0,50,6,,,,,,,AFNE10.jpg,AFSA08.jpg,AFNE09.jpg,AFSA02.jpg,AFSA08.jpg,FS,4,num_6,32,num_2,1.73338366812,,,2017_May_18_1057,60.0067940433,FEMA4ImagesEEG,001,100501,
AFNE01.JPG,AFNE01.JPG,AFNE01.JPG,AFNE01.JPG,AFNE01.JPG,AFNE01.JPG,,,,,,,,,,,,,,,,,5,1,51,4,,,,,,,AFSA04.jpg,AFSA17.jpg,AFNE14.jpg,AFNE12.jpg,AFNE14.jpg,FN,3,num_2,32,num_4,0.71681232001,,,2017_May_18_1057,60.0067940433,FEMA4ImagesEEG,001,100501,
AFNE01.JPG,AFNE01.JPG,AFNE01.JPG,AFNE01.JPG,AFNE01.JPG,AFNE01.JPG,,,,,,,,,,,,,,,,,5,2,52,3,,,,,,,AFSA02.jpg,AFNE04.jpg,AFSA17.jpg,AFNE02.jpg,AFSA02.jpg,FS,4,num_8,32,num_2,0.966741837401,,,2017_May_18_1057,60.0067940433,FEMA4ImagesEEG,001,100501,
AFNE01.JPG,AFNE01.JPG,AFNE01.JPG,AFNE01.JPG,AFNE01.JPG,AFNE01.JPG,,,,,,,,,,,,,,,,,5,3,53,8,,,,,,,AFNE04.jpg,AFSA04.jpg,AFSA09.jpg,AFNE12.jpg,AFNE04.jpg,FN,3,num_8,16,num_8,0.833462858805,,,2017_May_18_1057,60.0067940433,FEMA4ImagesEEG,001,100501,
AFNE01.JPG,AFNE01.JPG,AFNE01.JPG,AFNE01.JPG,AFNE01.JPG,AFNE01.JPG,,,,,,,,,,,,,,,,,5,4,54,2,,,,,,,AFNE03.jpg,AFSA05.jpg,AFSA13.jpg,AFNE13.jpg,AFSA05.jpg,FS,4,num_6,16,num_6,0.866811149303,,,2017_May_18_1057,60.0067940433,FEMA4ImagesEEG,001,100501,
AFNE01.JPG,AFNE01.JPG,AFNE01.JPG,AFNE01.JPG,AFNE01.JPG,AFNE01.JPG,,,,,,,,,,,,,,,,,5,5,55,5,,,,,,,AFSA08.jpg,AFNE09.jpg,AFNE03.jpg,AFSA13.jpg,AFNE03.jpg,FN,3,num_2,16,num_2,1.21672844652,,,2017_May_18_1057,60.0067940433,FEMA4ImagesEEG,001,100501,
AFNE01.JPG,AFNE01.JPG,AFNE01.JPG,AFNE01.JPG,AFNE01.JPG,AFNE01.JPG,,,,,,,,,,,,,,,,,5,6,56,9,,,,,,,AFNE05.jpg,AFSA10.jpg,AFNE16.jpg,AFSA05.jpg,AFNE05.jpg,FN,3,num_8,32,num_2,1.33346879249,,,2017_May_18_1057,60.0067940433,FEMA4ImagesEEG,001,100501,
AFNE01.JPG,AFNE01.JPG,AFNE01.JPG,AFNE01.JPG,AFNE01.JPG,AFNE01.JPG,,,,,,,,,,,,,,,,,5,7,57,0,,,,,,,AFSA18.jpg,AFNE13.jpg,AFNE02.jpg,AFSA15.jpg,AFSA18.jpg,FS,4,num_8,32,num_6,1.56672047613,,,2017_May_18_1057,60.0067940433,FEMA4ImagesEEG,001,100501,
AFNE01.JPG,AFNE01.JPG,AFNE01.JPG,AFNE01.JPG,AFNE01.JPG,AFNE01.JPG,,,,,,,,,,,,,,,,,5,8,58,1,,,,,,,AFNE13.jpg,AFSA09.jpg,AFSA12.jpg,AFNE08.jpg,AFSA12.jpg,FS,4,num_2,32,num_6,2.98331414774,,,2017_May_18_1057,60.0067940433,FEMA4ImagesEEG,001,100501,
AFNE01.JPG,AFNE01.JPG,AFNE01.JPG,AFNE01.JPG,AFNE01.JPG,AFNE01.JPG,,,,,,,,,,,,,,,,,5,9,59,7,,,,,,,AFNE12.jpg,AFSA19.jpg,AFSA06.jpg,AFNE15.jpg,AFNE12.jpg,FN,3,num_8,32,num_2,0.866776830138,,,2017_May_18_1057,60.0067940433,FEMA4ImagesEEG,001,100501,
,,,,,,,,,,,,,,,,,,,,,,,,,,,,,,,,,,,,,,,,,,,space,25.9145635484,2017_May_18_1057,60.0067940433,FEMA4ImagesEEG,001,100501,
AFNE01.JPG,AFNE01.JPG,AFNE01.JPG,AFNE01.JPG,AFNE01.JPG,AFNE01.JPG,,,,,,,,,,,,,,,,,,,,,0,0,0,4,,,AMSA14.jpg,AMNE05.jpg,AMSA10.jpg,AMNE11.jpg,AMSA10.jpg,MS,2,num_2,32,num_8,0.883469417924,,,2017_May_18_1057,60.0067940433,FEMA4ImagesEEG,001,100501,
AFNE01.JPG,AFNE01.JPG,AFNE01.JPG,AFNE01.JPG,AFNE01.JPG,AFNE01.JPG,,,,,,,,,,,,,,,,,,,,,0,1,1,6,,,AMNE11.jpg,AMNE04.jpg,AMSA20.jpg,AMSA07.jpg,AMNE04.jpg,MN,1,num_6,32,num_8,1.28341829199,,,2017_May_18_1057,60.0067940433,FEMA4ImagesEEG,001,100501,
AFNE01.JPG,AFNE01.JPG,AFNE01.JPG,AFNE01.JPG,AFNE01.JPG,AFNE01.JPG,,,,,,,,,,,,,,,,,,,,,0,2,2,1,,,AMNE07.jpg,AMSA05.jpg,AMSA18.jpg,AMNE03.jpg,AMNE07.jpg,MN,1,num_8,16,num_8,1.11673040304,,,2017_May_18_1057,60.0067940433,FEMA4ImagesEEG,001,100501,
AFNE01.JPG,AFNE01.JPG,AFNE01.JPG,AFNE01.JPG,AFNE01.JPG,AFNE01.JPG,,,,,,,,,,,,,,,,,,,,,0,3,3,9,,,AMNE09.jpg,AMNE20.jpg,AMSA07.jpg,AMSA06.jpg,AMNE20.jpg,MN,1,num_6,32,num_2,1.08357455647,,,2017_May_18_1057,60.0067940433,FEMA4ImagesEEG,001,100501,
AFNE01.JPG,AFNE01.JPG,AFNE01.JPG,AFNE01.JPG,AFNE01.JPG,AFNE01.JPG,,,,,,,,,,,,,,,,,,,,,0,4,4,3,,,AMNE05.jpg,AMSA03.jpg,AMSA11.jpg,AMNE03.jpg,AMSA03.jpg,MS,2,num_6,16,num_6,0.933596575269,,,2017_May_18_1057,60.0067940433,FEMA4ImagesEEG,001,100501,
AFNE01.JPG,AFNE01.JPG,AFNE01.JPG,AFNE01.JPG,AFNE01.JPG,AFNE01.JPG,,,,,,,,,,,,,,,,,,,,,0,5,5,5,,,AMSA14.jpg,AMSA16.jpg,AMNE06.jpg,AMNE01.jpg,AMSA14.jpg,MS,2,num_8,32,num_4,0.9000266535,,,2017_May_18_1057,60.0067940433,FEMA4ImagesEEG,001,100501,
AFNE01.JPG,AFNE01.JPG,AFNE01.JPG,AFNE01.JPG,AFNE01.JPG,AFNE01.JPG,,,,,,,,,,,,,,,,,,,,,0,6,6,8,,,AMSA17.jpg,AMNE01.jpg,AMSA16.jpg,AMNE20.jpg,AMNE20.jpg,MN,1,num_4,16,num_4,2.6166227948,,,2017_May_18_1057,60.0067940433,FEMA4ImagesEEG,001,100501,
AFNE01.JPG,AFNE01.JPG,AFNE01.JPG,AFNE01.JPG,AFNE01.JPG,AFNE01.JPG,,,,,,,,,,,,,,,,,,,,,0,7,7,2,,,AMSA18.jpg,AMSA03.jpg,AMNE09.jpg,AMNE06.jpg,AMSA03.jpg,MS,2,num_6,32,num_2,1.48359142739,,,2017_May_18_1057,60.0067940433,FEMA4ImagesEEG,001,100501,
AFNE01.JPG,AFNE01.JPG,AFNE01.JPG,AFNE01.JPG,AFNE01.JPG,AFNE01.JPG,,,,,,,,,,,,,,,,,,,,,0,8,8,0,,,AMSA03.jpg,AMNE09.jpg,AMNE20.jpg,AMSA17.jpg,AMSA03.jpg,MS,2,num_8,16,num_8,0.96673702632,,,2017_May_18_1057,60.0067940433,FEMA4ImagesEEG,001,100501,
AFNE01.JPG,AFNE01.JPG,AFNE01.JPG,AFNE01.JPG,AFNE01.JPG,AFNE01.JPG,,,,,,,,,,,,,,,,,,,,,0,9,9,7,,,AMNE18.jpg,AMNE16.jpg,AMSA16.jpg,AMSA17.jpg,AMNE18.jpg,MN,1,num_8,16,num_8,1.0667318624,,,2017_May_18_1057,60.0067940433,FEMA4ImagesEEG,001,100501,
AFNE01.JPG,AFNE01.JPG,AFNE01.JPG,AFNE01.JPG,AFNE01.JPG,AFNE01.JPG,,,,,,,,,,,,,,,,,,,,,1,0,10,0,,,AMSA11.jpg,AMSA09.jpg,AMNE06.jpg,AMNE15.jpg,AMNE15.jpg,MN,1,num_4,16,num_4,1.4168467354,,,2017_May_18_1057,60.0067940433,FEMA4ImagesEEG,001,100501,
AFNE01.JPG,AFNE01.JPG,AFNE01.JPG,AFNE01.JPG,AFNE01.JPG,AFNE01.JPG,,,,,,,,,,,,,,,,,,,,,1,1,11,7,,,AMSA20.jpg,AMNE14.jpg,AMNE03.jpg,AMSA13.jpg,AMNE03.jpg,MN,1,num_2,32,num_8,2.4000319457,,,2017_May_18_1057,60.0067940433,FEMA4ImagesEEG,001,100501,
AFNE01.JPG,AFNE01.JPG,AFNE01.JPG,AFNE01.JPG,AFNE01.JPG,AFNE01.JPG,,,,,,,,,,,,,,,,,,,,,1,2,12,1,,,AMNE02.jpg,AMNE06.jpg,AMSA18.jpg,AMSA01.jpg,AMNE06.jpg,MN,1,num_6,16,num_6,1.08353414325,,,2017_May_18_1057,60.0067940433,FEMA4ImagesEEG,001,100501,
AFNE01.JPG,AFNE01.JPG,AFNE01.JPG,AFNE01.JPG,AFNE01.JPG,AFNE01.JPG,,,,,,,,,,,,,,,,,,,,,1,3,13,5,,,AMSA10.jpg,AMNE13.jpg,AMNE04.jpg,AMSA09.jpg,AMSA09.jpg,MS,2,num_4,32,num_2,1.03343777693,,,2017_May_18_1057,60.0067940433,FEMA4ImagesEEG,001,100501,
AFNE01.JPG,AFNE01.JPG,AFNE01.JPG,AFNE01.JPG,AFNE01.JPG,AFNE01.JPG,,,,,,,,,,,,,,,,,,,,,1,4,14,4,,,AMNE14.jpg,AMSA01.jpg,AMNE16.jpg,AMSA11.jpg,AMSA01.jpg,MS,2,num_6,32,num_8,3.40008871665,,,2017_May_18_1057,60.0067940433,FEMA4ImagesEEG,001,100501,
AFNE01.JPG,AFNE01.JPG,AFNE01.JPG,AFNE01.JPG,AFNE01.JPG,AFNE01.JPG,,,,,,,,,,,,,,,,,,,,,1,5,15,8,,,AMSA03.jpg,AMNE06.jpg,AMSA15.jpg,AMNE05.jpg,AMNE05.jpg,MN,1,num_4,32,num_8,2.63333687217,,,2017_May_18_1057,60.0067940433,FEMA4ImagesEEG,001,100501,
AFNE01.JPG,AFNE01.JPG,AFNE01.JPG,AFNE01.JPG,AFNE01.JPG,AFNE01.JPG,,,,,,,,,,,,,,,,,,,,,1,6,16,9,,,AMSA12.jpg,AMSA04.jpg,AMNE01.jpg,AMNE20.jpg,AMNE01.jpg,MN,1,num_2,32,num_8,1.21691864528,,,2017_May_18_1057,60.0067940433,FEMA4ImagesEEG,001,100501,
AFNE01.JPG,AFNE01.JPG,AFNE01.JPG,AFNE01.JPG,AFNE01.JPG,AFNE01.JPG,,,,,,,,,,,,,,,,,,,,,1,7,17,3,,,AMSA09.jpg,AMNE16.jpg,AMNE11.jpg,AMSA04.jpg,AMNE11.jpg,MN,1,num_2,32,num_8,0.450157820072,,,2017_May_18_1057,60.0067940433,FEMA4ImagesEEG,001,100501,
AFNE01.JPG,AFNE01.JPG,AFNE01.JPG,AFNE01.JPG,AFNE01.JPG,AFNE01.JPG,,,,,,,,,,,,,,,,,,,,,1,8,18,2,,,AMSA04.jpg,AMSA10.jpg,AMNE06.jpg,AMNE11.jpg,AMSA04.jpg,MS,2,num_8,16,num_8,0.683473972429,,,2017_May_18_1057,60.0067940433,FEMA4ImagesEEG,001,100501,
AFNE01.JPG,AFNE01.JPG,AFNE01.JPG,AFNE01.JPG,AFNE01.JPG,AFNE01.JPG,,,,,,,,,,,,,,,,,,,,,1,9,19,6,,,AMSA17.jpg,AMNE11.jpg,AMSA19.jpg,AMNE17.jpg,AMNE11.jpg,MN,1,num_6,32,num_8,2.13334408881,,,2017_May_18_1057,60.0067940433,FEMA4ImagesEEG,001,100501,
AFNE01.JPG,AFNE01.JPG,AFNE01.JPG,AFNE01.JPG,AFNE01.JPG,AFNE01.JPG,,,,,,,,,,,,,,,,,,,,,2,0,20,9,,,AMSA01.jpg,AMNE05.jpg,AMNE07.jpg,AMSA09.jpg,AMSA01.jpg,MS,2,num_8,16,num_8,0.650162246282,,,2017_May_18_1057,60.0067940433,FEMA4ImagesEEG,001,100501,
AFNE01.JPG,AFNE01.JPG,AFNE01.JPG,AFNE01.JPG,AFNE01.JPG,AFNE01.JPG,,,,,,,,,,,,,,,,,,,,,2,1,21,7,,,AMNE20.jpg,AMSA16.jpg,AMSA07.jpg,AMNE09.jpg,AMNE09.jpg,MN,1,num_4,32,num_8,0.950178187064,,,2017_May_18_1057,60.0067940433,FEMA4ImagesEEG,001,100501,
AFNE01.JPG,AFNE01.JPG,AFNE01.JPG,AFNE01.JPG,AFNE01.JPG,AFNE01.JPG,,,,,,,,,,,,,,,,,,,,,2,2,22,8,,,AMNE10.jpg,AMSA08.jpg,AMSA10.jpg,AMNE02.jpg,AMSA10.jpg,MS,2,num_2,32,num_4,2.30000439414,,,2017_May_18_1057,60.0067940433,FEMA4ImagesEEG,001,100501,
AFNE01.JPG,AFNE01.JPG,AFNE01.JPG,AFNE01.JPG,AFNE01.JPG,AFNE01.JPG,,,,,,,,,,,,,,,,,,,,,2,3,23,1,,,AMNE08.jpg,AMSA10.jpg,AMSA03.jpg,AMNE06.jpg,AMNE06.jpg,MN,1,num_4,32,num_6,0.950302313402,,,2017_May_18_1057,60.0067940433,FEMA4ImagesEEG,001,100501,
AFNE01.JPG,AFNE01.JPG,AFNE01.JPG,AFNE01.JPG,AFNE01.JPG,AFNE01.JPG,,,,,,,,,,,,,,,,,,,,,2,4,24,0,,,AMNE07.jpg,AMNE14.jpg,AMSA11.jpg,AMSA16.jpg,AMNE07.jpg,MN,1,num_8,16,num_8,1.19979915266,,,2017_May_18_1057,60.0067940433,FEMA4ImagesEEG,001,100501,
AFNE01.JPG,AFNE01.JPG,AFNE01.JPG,AFNE01.JPG,AFNE01.JPG,AFNE01.JPG,,,,,,,,,,,,,,,,,,,,,2,5,25,5,,,AMNE20.jpg,AMNE10.jpg,AMSA14.jpg,AMSA08.jpg,AMSA14.jpg,MS,2,num_2,16,num_2,1.73362069491,,,2017_May_18_1057,60.0067940433,FEMA4ImagesEEG,001,100501,
AFNE01.JPG,AFNE01.JPG,AFNE01.JPG,AFNE01.JPG,AFNE01.JPG,AFNE01.JPG,,,,,,,,,,,,,,,,,,,,,2,6,26,3,,,AMNE08.jpg,AMSA01.jpg,AMNE01.jpg,AMSA14.jpg,AMSA01.jpg,MS,2,num_6,32,num_8,1.58336014186,,,2017_May_18_1057,60.0067940433,FEMA4ImagesEEG,001,100501,
AFNE01.JPG,AFNE01.JPG,AFNE01.JPG,AFNE01.JPG,AFNE01.JPG,AFNE01.JPG,,,,,,,,,,,,,,,,,,,,,2,7,27,2,,,AMNE14.jpg,AMNE16.jpg,AMSA15.jpg,AMSA13.jpg,AMSA13.jpg,MS,2,num_4,32,num_2,1.91670224206,,,2017_May_18_1057,60.0067940433,FEMA4ImagesEEG,001,100501,
AFNE01.JPG,AFNE01.JPG,AFNE01.JPG,AFNE01.JPG,AFNE01.JPG,AFNE01.JPG,,,,,,,,,,,,,,,,,,,,,2,8,28,4,,,AMSA13.jpg,AMNE12.jpg,AMNE07.jpg,AMSA04.jpg,AMSA13.jpg,MS,2,num_8,32,num_2,1.71667792999,,,2017_May_18_1057,60.0067940433,FEMA4ImagesEEG,001,100501,
AFNE01.JPG,AFNE01.JPG,AFNE01.JPG,AFNE01.JPG,AFNE01.JPG,AFNE01.JPG,,,,,,,,,,,,,,,,,,,,,2,9,29,6,,,AMNE01.jpg,AMSA11.jpg,AMNE09.jpg,AMSA13.jpg,AMNE01.jpg,MN,1,num_8,16,num_8,1.45004107076,,,2017_May_18_1057,60.0067940433,FEMA4ImagesEEG,001,100501,
AFNE01.JPG,AFNE01.JPG,AFNE01.JPG,AFNE01.JPG,AFNE01.JPG,AFNE01.JPG,,,,,,,,,,,,,,,,,,,,,3,0,30,5,,,AMNE13.jpg,AMSA16.jpg,AMNE17.jpg,AMSA13.jpg,AMNE13.jpg,MN,1,num_8,16,num_8,2.53334043238,,,2017_May_18_1057,60.0067940433,FEMA4ImagesEEG,001,100501,
AFNE01.JPG,AFNE01.JPG,AFNE01.JPG,AFNE01.JPG,AFNE01.JPG,AFNE01.JPG,,,,,,,,,,,,,,,,,,,,,3,1,31,4,,,AMSA07.jpg,AMNE03.jpg,AMNE07.jpg,AMSA06.jpg,AMNE03.jpg,MN,1,num_6,48,None,,,,2017_May_18_1057,60.0067940433,FEMA4ImagesEEG,001,100501,
AFNE01.JPG,AFNE01.JPG,AFNE01.JPG,AFNE01.JPG,AFNE01.JPG,AFNE01.JPG,,,,,,,,,,,,,,,,,,,,,3,2,32,2,,,AMNE13.jpg,AMSA18.jpg,AMNE03.jpg,AMSA19.jpg,AMSA18.jpg,MS,2,num_6,32,num_8,1.96666421836,,,2017_May_18_1057,60.0067940433,FEMA4ImagesEEG,001,100501,
AFNE01.JPG,AFNE01.JPG,AFNE01.JPG,AFNE01.JPG,AFNE01.JPG,AFNE01.JPG,,,,,,,,,,,,,,,,,,,,,3,3,33,9,,,AMNE06.jpg,AMNE03.jpg,AMSA02.jpg,AMSA05.jpg,AMNE06.jpg,MN,1,num_8,32,num_4,0.683480707972,,,2017_May_18_1057,60.0067940433,FEMA4ImagesEEG,001,100501,
AFNE01.JPG,AFNE01.JPG,AFNE01.JPG,AFNE01.JPG,AFNE01.JPG,AFNE01.JPG,,,,,,,,,,,,,,,,,,,,,3,4,34,0,,,AMNE17.jpg,AMSA13.jpg,AMSA05.jpg,AMNE09.jpg,AMSA13.jpg,MS,2,num_6,32,num_8,3.04993792079,,,2017_May_18_1057,60.0067940433,FEMA4ImagesEEG,001,100501,
AFNE01.JPG,AFNE01.JPG,AFNE01.JPG,AFNE01.JPG,AFNE01.JPG,AFNE01.JPG,,,,,,,,,,,,,,,,,,,,,3,5,35,1,,,AMSA01.jpg,AMNE15.jpg,AMSA03.jpg,AMNE08.jpg,AMNE08.jpg,MN,1,num_4,32,num_6,0.483447735925,,,2017_May_18_1057,60.0067940433,FEMA4ImagesEEG,001,100501,
AFNE01.JPG,AFNE01.JPG,AFNE01.JPG,AFNE01.JPG,AFNE01.JPG,AFNE01.JPG,,,,,,,,,,,,,,,,,,,,,3,6,36,3,,,AMNE05.jpg,AMSA12.jpg,AMSA07.jpg,AMNE01.jpg,AMNE01.jpg,MN,1,num_4,16,num_4,1.16674049031,,,2017_May_18_1057,60.0067940433,FEMA4ImagesEEG,001,100501,
AFNE01.JPG,AFNE01.JPG,AFNE01.JPG,AFNE01.JPG,AFNE01.JPG,AFNE01.JPG,,,,,,,,,,,,,,,,,,,,,3,7,37,7,,,AMSA09.jpg,AMNE14.jpg,AMNE18.jpg,AMSA02.jpg,AMSA02.jpg,MS,2,num_4,32,num_2,1.08342509168,,,2017_May_18_1057,60.0067940433,FEMA4ImagesEEG,001,100501,
AFNE01.JPG,AFNE01.JPG,AFNE01.JPG,AFNE01.JPG,AFNE01.JPG,AFNE01.JPG,,,,,,,,,,,,,,,,,,,,,3,8,38,6,,,AMNE07.jpg,AMSA10.jpg,AMNE20.jpg,AMSA09.jpg,AMSA09.jpg,MS,2,num_4,32,num_6,0.816787590971,,,2017_May_18_1057,60.0067940433,FEMA4ImagesEEG,001,100501,
AFNE01.JPG,AFNE01.JPG,AFNE01.JPG,AFNE01.JPG,AFNE01.JPG,AFNE01.JPG,,,,,,,,,,,,,,,,,,,,,3,9,39,8,,,AMNE15.jpg,AMSA18.jpg,AMSA07.jpg,AMNE11.jpg,AMSA18.jpg,MS,2,num_6,16,num_6,0.850231461955,,,2017_May_18_1057,60.0067940433,FEMA4ImagesEEG,001,100501,
