IPosition2,IPosition3,IPosition1,IPosition6,IPosition4,IPosition5,TrialsF1.thisRepN,TrialsF1.thisTrialN,TrialsF1.thisN,TrialsF1.thisIndex,TrialsM1.thisRepN,TrialsM1.thisTrialN,TrialsM1.thisN,TrialsM1.thisIndex,TrialsF2.thisRepN,TrialsF2.thisTrialN,TrialsF2.thisN,TrialsF2.thisIndex,TrialsM2.thisRepN,TrialsM2.thisTrialN,TrialsM2.thisN,TrialsM2.thisIndex,TrialsF3.thisRepN,TrialsF3.thisTrialN,TrialsF3.thisN,TrialsF3.thisIndex,TrialsM3.thisRepN,TrialsM3.thisTrialN,TrialsM3.thisN,TrialsM3.thisIndex,InstrKey_resp.keys,InstrKey_resp.rt,Image0 _Position,Image1 _Position,Image2 _Position,Image3 _Position,Center_image,condition,code,correct_answer,accuracy,Key_Resp.keys,Key_Resp.rt,BreakKey_resp.keys,BreakKey_resp.rt,date,frameRate,expName,session,participant,
,,,,,,,,,,,,,,,,,,,,,,,,,,,,,,space,51.1296645605,,,,,,,,,,,,,,2017_May_30_1052,60.022158505,FEMA4ImagesEEG,001,100525,
AFSA21.JPG,AFNE23.JPG,AFNE21.JPG,AFSA25.JPG,AFNE25.JPG,AFSA23.JPG,0,0,0,4,,,,,,,,,,,,,,,,,,,,,,,AFNE12.jpg,AFSA09.jpg,AFSA03.jpg,AFNE15.jpg,AFNE12.jpg,FN,3,num_8,48,None,,,,2017_May_30_1052,60.022158505,FEMA4ImagesEEG,001,100525,
AMNE22.JPG,AMSA24.JPG,AMSA22.JPG,AMNE25.JPG,AMNE24.JPG,AMSA25.JPG,0,1,1,7,,,,,,,,,,,,,,,,,,,,,,,AFNE14.jpg,AFSA06.jpg,AFSA19.jpg,AFNE17.jpg,AFSA19.jpg,FS,4,num_2,48,None,,,,2017_May_30_1052,60.022158505,FEMA4ImagesEEG,001,100525,
AMSA21.JPG,AMNE22.JPG,AMNE21.JPG,AMSA23.JPG,AMSA22.JPG,AMNE23.JPG,0,2,2,1,,,,,,,,,,,,,,,,,,,,,,,AFNE06.jpg,AFSA14.jpg,AFSA10.jpg,AFNE17.jpg,AFNE17.jpg,FN,3,num_4,48,None,,,,2017_May_30_1052,60.022158505,FEMA4ImagesEEG,001,100525,
AMSA25.JPG,AMNE24.JPG,AMSA24.JPG,AMNE26.JPG,AMSA21.JPG,AMNE25.JPG,0,3,3,3,,,,,,,,,,,,,,,,,,,,,,,AFSA07.jpg,AFNE09.jpg,AFNE07.jpg,AFSA04.jpg,AFNE07.jpg,FN,3,num_2,32,num_8,2.15004886477,,,2017_May_30_1052,60.022158505,FEMA4ImagesEEG,001,100525,
AFSA25.JPG,AFNE24.JPG,AFSA24.JPG,AFNE21.JPG,AFSA21.JPG,AFNE25.JPG,0,4,4,2,,,,,,,,,,,,,,,,,,,,,,,AFNE02.jpg,AFSA17.jpg,AFSA04.jpg,AFNE16.jpg,AFNE02.jpg,FN,3,num_8,32,num_6,1.58340793219,,,2017_May_30_1052,60.022158505,FEMA4ImagesEEG,001,100525,
AFSA21.JPG,AFNE22.JPG,AFNE21.JPG,AFSA23.JPG,AFSA22.JPG,AFNE23.JPG,0,5,5,0,,,,,,,,,,,,,,,,,,,,,,,AFNE15.jpg,AFSA12.jpg,AFNE19.jpg,AFSA16.jpg,AFSA16.jpg,FS,4,num_4,16,num_4,1.58342717635,,,2017_May_30_1052,60.022158505,FEMA4ImagesEEG,001,100525,
AMNE23.JPG,AMNE24.JPG,AMNE22.JPG,AMSA24.JPG,AMSA22.JPG,AMSA23.JPG,0,6,6,9,,,,,,,,,,,,,,,,,,,,,,,AFSA16.jpg,AFNE08.jpg,AFNE18.jpg,AFSA14.jpg,AFNE18.jpg,FN,3,num_2,16,num_2,2.79966457025,,,2017_May_30_1052,60.022158505,FEMA4ImagesEEG,001,100525,
AMSA21.JPG,AMNE23.JPG,AMNE21.JPG,AMSA25.JPG,AMNE25.JPG,AMSA23.JPG,0,7,7,5,,,,,,,,,,,,,,,,,,,,,,,AFSA16.jpg,AFSA04.jpg,AFNE06.jpg,AFNE12.jpg,AFNE12.jpg,FN,3,num_4,16,num_4,1.1003332166,,,2017_May_30_1052,60.022158505,FEMA4ImagesEEG,001,100525,
AFNE22.JPG,AFSA24.JPG,AFSA22.JPG,AFNE25.JPG,AFNE24.JPG,AFSA25.JPG,0,8,8,6,,,,,,,,,,,,,,,,,,,,,,,AFSA09.jpg,AFNE01.jpg,AFSA17.jpg,AFNE19.jpg,AFSA09.jpg,FS,4,num_8,32,num_6,1.60013002786,,,2017_May_30_1052,60.022158505,FEMA4ImagesEEG,001,100525,
AFNE23.JPG,AFNE24.JPG,AFNE22.JPG,AFSA24.JPG,AFSA22.JPG,AFSA23.JPG,0,9,9,8,,,,,,,,,,,,,,,,,,,,,,,AFNE08.jpg,AFSA05.jpg,AFSA12.jpg,AFNE14.jpg,AFNE08.jpg,FN,3,num_8,32,num_4,1.6667544425,,,2017_May_30_1052,60.022158505,FEMA4ImagesEEG,001,100525,
AMSA21.JPG,AMNE22.JPG,AMNE21.JPG,AMSA23.JPG,AMSA22.JPG,AMNE23.JPG,,,,,0,0,0,1,,,,,,,,,,,,,,,,,,,AMSA14.jpg,AMNE05.jpg,AMNE01.jpg,AMSA09.jpg,AMNE01.jpg,MN,1,num_2,16,num_2,1.60009827488,,,2017_May_30_1052,60.022158505,FEMA4ImagesEEG,001,100525,
AMNE23.JPG,AMNE24.JPG,AMNE22.JPG,AMSA24.JPG,AMSA22.JPG,AMSA23.JPG,,,,,0,1,1,9,,,,,,,,,,,,,,,,,,,AMSA18.jpg,AMSA01.jpg,AMNE03.jpg,AMNE10.jpg,AMSA01.jpg,MS,2,num_6,32,num_2,1.35011743871,,,2017_May_30_1052,60.022158505,FEMA4ImagesEEG,001,100525,
AMSA21.JPG,AMNE23.JPG,AMNE21.JPG,AMSA25.JPG,AMNE25.JPG,AMSA23.JPG,,,,,0,2,2,5,,,,,,,,,,,,,,,,,,,AMNE09.jpg,AMSA05.jpg,AMSA14.jpg,AMNE17.jpg,AMNE09.jpg,MN,1,num_8,16,num_8,1.21684904466,,,2017_May_30_1052,60.022158505,FEMA4ImagesEEG,001,100525,
AMSA25.JPG,AMNE24.JPG,AMSA24.JPG,AMNE26.JPG,AMSA21.JPG,AMNE25.JPG,,,,,0,3,3,3,,,,,,,,,,,,,,,,,,,AMNE04.jpg,AMNE06.jpg,AMSA19.jpg,AMSA12.jpg,AMSA12.jpg,MS,2,num_4,32,num_6,1.78340369835,,,2017_May_30_1052,60.022158505,FEMA4ImagesEEG,001,100525,
AFNE22.JPG,AFSA24.JPG,AFSA22.JPG,AFNE25.JPG,AFNE24.JPG,AFSA25.JPG,,,,,0,4,4,6,,,,,,,,,,,,,,,,,,,AMSA20.jpg,AMNE07.jpg,AMSA07.jpg,AMNE17.jpg,AMSA07.jpg,MS,2,num_2,48,None,,,,2017_May_30_1052,60.022158505,FEMA4ImagesEEG,001,100525,
AFSA21.JPG,AFNE22.JPG,AFNE21.JPG,AFSA23.JPG,AFSA22.JPG,AFNE23.JPG,,,,,0,5,5,0,,,,,,,,,,,,,,,,,,,AMNE07.jpg,AMSA01.jpg,AMSA08.jpg,AMNE18.jpg,AMSA01.jpg,MS,2,num_6,32,num_4,0.850144862197,,,2017_May_30_1052,60.022158505,FEMA4ImagesEEG,001,100525,
AFSA21.JPG,AFNE23.JPG,AFNE21.JPG,AFSA25.JPG,AFNE25.JPG,AFSA23.JPG,,,,,0,6,6,4,,,,,,,,,,,,,,,,,,,AMNE10.jpg,AMSA11.jpg,AMNE20.jpg,AMSA14.jpg,AMNE20.jpg,MN,1,num_2,32,num_8,1.40013394109,,,2017_May_30_1052,60.022158505,FEMA4ImagesEEG,001,100525,
AFSA25.JPG,AFNE24.JPG,AFSA24.JPG,AFNE21.JPG,AFSA21.JPG,AFNE25.JPG,,,,,0,7,7,2,,,,,,,,,,,,,,,,,,,AMSA16.jpg,AMNE07.jpg,AMSA09.jpg,AMNE19.jpg,AMSA09.jpg,MS,2,num_2,32,num_6,1.16691208608,,,2017_May_30_1052,60.022158505,FEMA4ImagesEEG,001,100525,
AMNE22.JPG,AMSA24.JPG,AMSA22.JPG,AMNE25.JPG,AMNE24.JPG,AMSA25.JPG,,,,,0,8,8,7,,,,,,,,,,,,,,,,,,,AMSA19.jpg,AMSA18.jpg,AMNE17.jpg,AMNE20.jpg,AMNE17.jpg,MN,1,num_2,32,num_4,0.900152383372,,,2017_May_30_1052,60.022158505,FEMA4ImagesEEG,001,100525,
AFNE23.JPG,AFNE24.JPG,AFNE22.JPG,AFSA24.JPG,AFSA22.JPG,AFSA23.JPG,,,,,0,9,9,8,,,,,,,,,,,,,,,,,,,AMSA18.jpg,AMNE20.jpg,AMNE03.jpg,AMSA15.jpg,AMSA18.jpg,MS,2,num_8,16,num_8,1.16661027004,,,2017_May_30_1052,60.022158505,FEMA4ImagesEEG,001,100525,
AMSA21.JPG,AMNE23.JPG,AMNE21.JPG,AMSA25.JPG,AMNE25.JPG,AMSA23.JPG,,,,,,,,,0,0,0,5,,,,,,,,,,,,,,,AFNE12.jpg,AFSA02.jpg,AFSA11.jpg,AFNE19.jpg,AFNE19.jpg,FN,3,num_4,16,num_4,1.1667510746,,,2017_May_30_1052,60.022158505,FEMA4ImagesEEG,001,100525,
AMSA25.JPG,AMNE24.JPG,AMSA24.JPG,AMNE26.JPG,AMSA21.JPG,AMNE25.JPG,,,,,,,,,0,1,1,3,,,,,,,,,,,,,,,AFSA13.jpg,AFSA11.jpg,AFNE06.jpg,AFNE10.jpg,AFNE10.jpg,FN,3,num_4,32,num_8,1.21675795456,,,2017_May_30_1052,60.022158505,FEMA4ImagesEEG,001,100525,
AFSA21.JPG,AFNE22.JPG,AFNE21.JPG,AFSA23.JPG,AFSA22.JPG,AFNE23.JPG,,,,,,,,,0,2,2,0,,,,,,,,,,,,,,,AFSA05.jpg,AFNE03.jpg,AFSA19.jpg,AFNE17.jpg,AFNE03.jpg,FN,3,num_6,32,num_4,0.9167519568,,,2017_May_30_1052,60.022158505,FEMA4ImagesEEG,001,100525,
AMSA21.JPG,AMNE22.JPG,AMNE21.JPG,AMSA23.JPG,AMSA22.JPG,AMNE23.JPG,,,,,,,,,0,3,3,1,,,,,,,,,,,,,,,AFNE01.jpg,AFSA18.jpg,AFSA16.jpg,AFNE05.jpg,AFSA16.jpg,FS,4,num_2,16,num_2,0.600160177564,,,2017_May_30_1052,60.022158505,FEMA4ImagesEEG,001,100525,
AFNE23.JPG,AFNE24.JPG,AFNE22.JPG,AFSA24.JPG,AFSA22.JPG,AFSA23.JPG,,,,,,,,,0,4,4,8,,,,,,,,,,,,,,,AFSA19.jpg,AFSA07.jpg,AFNE03.jpg,AFNE12.jpg,AFSA07.jpg,FS,4,num_6,32,num_4,1.38345899386,,,2017_May_30_1052,60.022158505,FEMA4ImagesEEG,001,100525,
AMNE22.JPG,AMSA24.JPG,AMSA22.JPG,AMNE25.JPG,AMNE24.JPG,AMSA25.JPG,,,,,,,,,0,5,5,7,,,,,,,,,,,,,,,AFNE14.jpg,AFNE11.jpg,AFSA09.jpg,AFSA01.jpg,AFNE11.jpg,FN,3,num_6,32,num_8,1.41676206002,,,2017_May_30_1052,60.022158505,FEMA4ImagesEEG,001,100525,
AFNE22.JPG,AFSA24.JPG,AFSA22.JPG,AFNE25.JPG,AFNE24.JPG,AFSA25.JPG,,,,,,,,,0,6,6,6,,,,,,,,,,,,,,,AFNE15.jpg,AFSA12.jpg,AFNE03.jpg,AFSA17.jpg,AFNE15.jpg,FN,3,num_8,32,num_4,0.883238485316,,,2017_May_30_1052,60.022158505,FEMA4ImagesEEG,001,100525,
AFSA25.JPG,AFNE24.JPG,AFSA24.JPG,AFNE21.JPG,AFSA21.JPG,AFNE25.JPG,,,,,,,,,0,7,7,2,,,,,,,,,,,,,,,AFNE02.jpg,AFSA12.jpg,AFSA18.jpg,AFNE07.jpg,AFSA18.jpg,FS,4,num_2,32,num_6,1.08345331694,,,2017_May_30_1052,60.022158505,FEMA4ImagesEEG,001,100525,
AFSA21.JPG,AFNE23.JPG,AFNE21.JPG,AFSA25.JPG,AFNE25.JPG,AFSA23.JPG,,,,,,,,,0,8,8,4,,,,,,,,,,,,,,,AFNE20.jpg,AFSA19.jpg,AFNE10.jpg,AFSA17.jpg,AFSA19.jpg,FS,4,num_6,32,num_8,0.816820627311,,,2017_May_30_1052,60.022158505,FEMA4ImagesEEG,001,100525,
AMNE23.JPG,AMNE24.JPG,AMNE22.JPG,AMSA24.JPG,AMSA22.JPG,AMSA23.JPG,,,,,,,,,0,9,9,9,,,,,,,,,,,,,,,AFNE09.jpg,AFNE19.jpg,AFSA12.jpg,AFSA01.jpg,AFSA12.jpg,FS,4,num_2,16,num_2,0.733966131695,,,2017_May_30_1052,60.022158505,FEMA4ImagesEEG,001,100525,
AMSA25.JPG,AMNE24.JPG,AMSA24.JPG,AMNE26.JPG,AMSA21.JPG,AMNE25.JPG,,,,,,,,,,,,,0,0,0,3,,,,,,,,,,,AMSA07.jpg,AMNE03.jpg,AMNE12.jpg,AMSA02.jpg,AMSA07.jpg,MS,2,num_8,16,num_8,0.700196709717,,,2017_May_30_1052,60.022158505,FEMA4ImagesEEG,001,100525,
AFNE23.JPG,AFNE24.JPG,AFNE22.JPG,AFSA24.JPG,AFSA22.JPG,AFSA23.JPG,,,,,,,,,,,,,0,1,1,8,,,,,,,,,,,AMSA12.jpg,AMSA05.jpg,AMNE10.jpg,AMNE15.jpg,AMNE10.jpg,MN,1,num_2,32,num_6,1.2834022548,,,2017_May_30_1052,60.022158505,FEMA4ImagesEEG,001,100525,
AMSA21.JPG,AMNE22.JPG,AMNE21.JPG,AMSA23.JPG,AMSA22.JPG,AMNE23.JPG,,,,,,,,,,,,,0,2,2,1,,,,,,,,,,,AMNE06.jpg,AMSA04.jpg,AMNE01.jpg,AMSA15.jpg,AMSA04.jpg,MS,2,num_6,16,num_6,1.80008185282,,,2017_May_30_1052,60.022158505,FEMA4ImagesEEG,001,100525,
AFNE22.JPG,AFSA24.JPG,AFSA22.JPG,AFNE25.JPG,AFNE24.JPG,AFSA25.JPG,,,,,,,,,,,,,0,3,3,6,,,,,,,,,,,AMSA12.jpg,AMSA19.jpg,AMNE12.jpg,AMNE09.jpg,AMNE09.jpg,MN,1,num_4,32,num_6,1.33342324733,,,2017_May_30_1052,60.022158505,FEMA4ImagesEEG,001,100525,
AFSA21.JPG,AFNE22.JPG,AFNE21.JPG,AFSA23.JPG,AFSA22.JPG,AFNE23.JPG,,,,,,,,,,,,,0,4,4,0,,,,,,,,,,,AMSA20.jpg,AMNE18.jpg,AMNE20.jpg,AMSA16.jpg,AMSA16.jpg,MS,2,num_4,16,num_4,1.71664104494,,,2017_May_30_1052,60.022158505,FEMA4ImagesEEG,001,100525,
AFSA25.JPG,AFNE24.JPG,AFSA24.JPG,AFNE21.JPG,AFSA21.JPG,AFNE25.JPG,,,,,,,,,,,,,0,5,5,2,,,,,,,,,,,AMSA15.jpg,AMSA05.jpg,AMNE20.jpg,AMNE09.jpg,AMSA05.jpg,MS,2,num_6,32,num_2,0.966767496662,,,2017_May_30_1052,60.022158505,FEMA4ImagesEEG,001,100525,
AMNE23.JPG,AMNE24.JPG,AMNE22.JPG,AMSA24.JPG,AMSA22.JPG,AMSA23.JPG,,,,,,,,,,,,,0,6,6,9,,,,,,,,,,,AMNE05.jpg,AMSA19.jpg,AMNE13.jpg,AMSA20.jpg,AMSA19.jpg,MS,2,num_6,16,num_6,1.01676090527,,,2017_May_30_1052,60.022158505,FEMA4ImagesEEG,001,100525,
AFSA21.JPG,AFNE23.JPG,AFNE21.JPG,AFSA25.JPG,AFNE25.JPG,AFSA23.JPG,,,,,,,,,,,,,0,7,7,4,,,,,,,,,,,AMNE01.jpg,AMSA02.jpg,AMNE15.jpg,AMSA16.jpg,AMNE01.jpg,MN,1,num_8,32,num_6,1.38342242967,,,2017_May_30_1052,60.022158505,FEMA4ImagesEEG,001,100525,
AMSA21.JPG,AMNE23.JPG,AMNE21.JPG,AMSA25.JPG,AMNE25.JPG,AMSA23.JPG,,,,,,,,,,,,,0,8,8,5,,,,,,,,,,,AMNE19.jpg,AMSA12.jpg,AMNE04.jpg,AMSA01.jpg,AMSA01.jpg,MS,2,num_4,16,num_4,0.583462457871,,,2017_May_30_1052,60.022158505,FEMA4ImagesEEG,001,100525,
AMNE22.JPG,AMSA24.JPG,AMSA22.JPG,AMNE25.JPG,AMNE24.JPG,AMSA25.JPG,,,,,,,,,,,,,0,9,9,7,,,,,,,,,,,AMSA07.jpg,AMNE05.jpg,AMNE06.jpg,AMSA01.jpg,AMSA01.jpg,MS,2,num_4,16,num_4,0.783530069748,,,2017_May_30_1052,60.022158505,FEMA4ImagesEEG,001,100525,
AMNE22.JPG,AMSA24.JPG,AMSA22.JPG,AMNE25.JPG,AMNE24.JPG,AMSA25.JPG,,,,,,,,,,,,,,,,,0,0,0,7,,,,,,,AFSA18.jpg,AFSA19.jpg,AFNE04.jpg,AFNE09.jpg,AFNE09.jpg,FN,3,num_4,32,num_2,0.883495718706,,,2017_May_30_1052,60.022158505,FEMA4ImagesEEG,001,100525,
AFNE23.JPG,AFNE24.JPG,AFNE22.JPG,AFSA24.JPG,AFSA22.JPG,AFSA23.JPG,,,,,,,,,,,,,,,,,0,1,1,8,,,,,,,AFSA10.jpg,AFNE06.jpg,AFNE05.jpg,AFSA05.jpg,AFNE05.jpg,FN,3,num_2,32,num_6,0.666723651579,,,2017_May_30_1052,60.022158505,FEMA4ImagesEEG,001,100525,
AFNE22.JPG,AFSA24.JPG,AFSA22.JPG,AFNE25.JPG,AFNE24.JPG,AFSA25.JPG,,,,,,,,,,,,,,,,,0,2,2,6,,,,,,,AFSA15.jpg,AFNE14.jpg,AFSA17.jpg,AFNE10.jpg,AFNE10.jpg,FN,3,num_4,16,num_4,0.350224886788,,,2017_May_30_1052,60.022158505,FEMA4ImagesEEG,001,100525,
AMNE23.JPG,AMNE24.JPG,AMNE22.JPG,AMSA24.JPG,AMSA22.JPG,AMSA23.JPG,,,,,,,,,,,,,,,,,0,3,3,9,,,,,,,AFSA17.jpg,AFSA19.jpg,AFNE10.jpg,AFNE03.jpg,AFSA17.jpg,FS,4,num_8,32,num_2,0.516780310078,,,2017_May_30_1052,60.022158505,FEMA4ImagesEEG,001,100525,
AMSA21.JPG,AMNE23.JPG,AMNE21.JPG,AMSA25.JPG,AMNE25.JPG,AMSA23.JPG,,,,,,,,,,,,,,,,,0,4,4,5,,,,,,,AFNE04.jpg,AFSA06.jpg,AFSA04.jpg,AFNE09.jpg,AFNE04.jpg,FN,3,num_8,32,num_6,0.4334976268,,,2017_May_30_1052,60.022158505,FEMA4ImagesEEG,001,100525,
AMSA21.JPG,AMNE22.JPG,AMNE21.JPG,AMSA23.JPG,AMSA22.JPG,AMNE23.JPG,,,,,,,,,,,,,,,,,0,5,5,1,,,,,,,AFNE11.jpg,AFSA10.jpg,AFSA13.jpg,AFNE19.jpg,AFSA13.jpg,FS,4,num_2,32,num_8,0.850126259262,,,2017_May_30_1052,60.022158505,FEMA4ImagesEEG,001,100525,
AMSA25.JPG,AMNE24.JPG,AMSA24.JPG,AMNE26.JPG,AMSA21.JPG,AMNE25.JPG,,,,,,,,,,,,,,,,,0,6,6,3,,,,,,,AFSA05.jpg,AFSA13.jpg,AFNE07.jpg,AFNE18.jpg,AFSA13.jpg,FS,4,num_6,32,num_4,0.61679182481,,,2017_May_30_1052,60.022158505,FEMA4ImagesEEG,001,100525,
AFSA21.JPG,AFNE23.JPG,AFNE21.JPG,AFSA25.JPG,AFNE25.JPG,AFSA23.JPG,,,,,,,,,,,,,,,,,0,7,7,4,,,,,,,AFNE10.jpg,AFNE09.jpg,AFSA04.jpg,AFSA06.jpg,AFNE10.jpg,FN,3,num_8,16,num_8,0.850141975563,,,2017_May_30_1052,60.022158505,FEMA4ImagesEEG,001,100525,
AFSA25.JPG,AFNE24.JPG,AFSA24.JPG,AFNE21.JPG,AFSA21.JPG,AFNE25.JPG,,,,,,,,,,,,,,,,,0,8,8,2,,,,,,,AFNE03.jpg,AFNE16.jpg,AFSA13.jpg,AFSA16.jpg,AFNE16.jpg,FN,3,num_6,32,num_2,0.633526108693,,,2017_May_30_1052,60.022158505,FEMA4ImagesEEG,001,100525,
AFSA21.JPG,AFNE22.JPG,AFNE21.JPG,AFSA23.JPG,AFSA22.JPG,AFNE23.JPG,,,,,,,,,,,,,,,,,0,9,9,0,,,,,,,AFNE11.jpg,AFSA02.jpg,AFNE09.jpg,AFSA20.jpg,AFNE09.jpg,FN,3,num_2,32,num_4,0.716784415534,,,2017_May_30_1052,60.022158505,FEMA4ImagesEEG,001,100525,
AFSA21.JPG,AFNE22.JPG,AFNE21.JPG,AFSA23.JPG,AFSA22.JPG,AFNE23.JPG,,,,,,,,,,,,,,,,,,,,,0,0,0,0,,,AMSA19.jpg,AMSA03.jpg,AMNE09.jpg,AMNE17.jpg,AMNE09.jpg,MN,1,num_2,32,num_4,0.850194256054,,,2017_May_30_1052,60.022158505,FEMA4ImagesEEG,001,100525,
AMSA21.JPG,AMNE23.JPG,AMNE21.JPG,AMSA25.JPG,AMNE25.JPG,AMSA23.JPG,,,,,,,,,,,,,,,,,,,,,0,1,1,5,,,AMSA16.jpg,AMNE07.jpg,AMNE20.jpg,AMSA04.jpg,AMNE07.jpg,MN,1,num_6,32,num_8,0.633542787051,,,2017_May_30_1052,60.022158505,FEMA4ImagesEEG,001,100525,
AMSA25.JPG,AMNE24.JPG,AMSA24.JPG,AMNE26.JPG,AMSA21.JPG,AMNE25.JPG,,,,,,,,,,,,,,,,,,,,,0,2,2,3,,,AMNE01.jpg,AMNE15.jpg,AMSA03.jpg,AMSA20.jpg,AMSA20.jpg,MS,2,num_4,32,num_6,0.600164667936,,,2017_May_30_1052,60.022158505,FEMA4ImagesEEG,001,100525,
AFNE22.JPG,AFSA24.JPG,AFSA22.JPG,AFNE25.JPG,AFNE24.JPG,AFSA25.JPG,,,,,,,,,,,,,,,,,,,,,0,3,3,6,,,AMSA19.jpg,AMNE01.jpg,AMNE12.jpg,AMSA16.jpg,AMNE01.jpg,MN,1,num_6,32,num_4,0.7001091477,,,2017_May_30_1052,60.022158505,FEMA4ImagesEEG,001,100525,
AFSA21.JPG,AFNE23.JPG,AFNE21.JPG,AFSA25.JPG,AFNE25.JPG,AFSA23.JPG,,,,,,,,,,,,,,,,,,,,,0,4,4,4,,,AMNE13.jpg,AMNE05.jpg,AMSA12.jpg,AMSA10.jpg,AMNE13.jpg,MN,1,num_8,32,num_2,0.750242078444,,,2017_May_30_1052,60.022158505,FEMA4ImagesEEG,001,100525,
AFSA25.JPG,AFNE24.JPG,AFSA24.JPG,AFNE21.JPG,AFSA21.JPG,AFNE25.JPG,,,,,,,,,,,,,,,,,,,,,0,5,5,2,,,AMSA05.jpg,AMNE05.jpg,AMSA02.jpg,AMNE10.jpg,AMNE10.jpg,MN,1,num_4,32,num_6,1.05009797006,,,2017_May_30_1052,60.022158505,FEMA4ImagesEEG,001,100525,
AMNE22.JPG,AMSA24.JPG,AMSA22.JPG,AMNE25.JPG,AMNE24.JPG,AMSA25.JPG,,,,,,,,,,,,,,,,,,,,,0,6,6,7,,,AMSA15.jpg,AMNE10.jpg,AMSA12.jpg,AMNE16.jpg,AMNE10.jpg,MN,1,num_6,32,num_8,0.683319055242,,,2017_May_30_1052,60.022158505,FEMA4ImagesEEG,001,100525,
AMSA21.JPG,AMNE22.JPG,AMNE21.JPG,AMSA23.JPG,AMSA22.JPG,AMNE23.JPG,,,,,,,,,,,,,,,,,,,,,0,7,7,1,,,AMSA13.jpg,AMNE06.jpg,AMSA14.jpg,AMNE18.jpg,AMNE18.jpg,MN,1,num_4,16,num_4,0.700192540186,,,2017_May_30_1052,60.022158505,FEMA4ImagesEEG,001,100525,
AMNE23.JPG,AMNE24.JPG,AMNE22.JPG,AMSA24.JPG,AMSA22.JPG,AMSA23.JPG,,,,,,,,,,,,,,,,,,,,,0,8,8,9,,,AMNE19.jpg,AMSA17.jpg,AMNE18.jpg,AMSA11.jpg,AMSA17.jpg,MS,2,num_6,32,num_4,0.566765379626,,,2017_May_30_1052,60.022158505,FEMA4ImagesEEG,001,100525,
AFNE23.JPG,AFNE24.JPG,AFNE22.JPG,AFSA24.JPG,AFSA22.JPG,AFSA23.JPG,,,,,,,,,,,,,,,,,,,,,0,9,9,8,,,AMNE10.jpg,AMSA19.jpg,AMSA03.jpg,AMNE15.jpg,AMSA19.jpg,MS,2,num_6,32,num_2,0.800142151769,,,2017_May_30_1052,60.022158505,FEMA4ImagesEEG,001,100525,
,,,,,,,,,,,,,,,,,,,,,,,,,,,,,,,,,,,,,,,,,,,space,23.4483642424,2017_May_30_1052,60.022158505,FEMA4ImagesEEG,001,100525,
AFNE01.JPG,AFNE01.JPG,AFNE01.JPG,AFNE01.JPG,AFNE01.JPG,AFNE01.JPG,0,0,0,2,,,,,,,,,,,,,,,,,,,,,,,AFSA14.jpg,AFNE10.jpg,AFSA09.jpg,AFNE11.jpg,AFNE10.jpg,FN,3,num_6,16,num_6,0.550158108817,,,2017_May_30_1052,60.022158505,FEMA4ImagesEEG,001,100525,
AFNE01.JPG,AFNE01.JPG,AFNE01.JPG,AFNE01.JPG,AFNE01.JPG,AFNE01.JPG,0,1,1,8,,,,,,,,,,,,,,,,,,,,,,,AFSA09.jpg,AFNE16.jpg,AFNE14.jpg,AFSA10.jpg,AFNE16.jpg,FN,3,num_6,32,num_2,0.433491853764,,,2017_May_30_1052,60.022158505,FEMA4ImagesEEG,001,100525,
AFNE01.JPG,AFNE01.JPG,AFNE01.JPG,AFNE01.JPG,AFNE01.JPG,AFNE01.JPG,0,2,2,3,,,,,,,,,,,,,,,,,,,,,,,AFSA20.jpg,AFNE05.jpg,AFNE20.jpg,AFSA07.jpg,AFSA20.jpg,FS,4,num_8,32,num_4,0.950146113057,,,2017_May_30_1052,60.022158505,FEMA4ImagesEEG,001,100525,
AFNE01.JPG,AFNE01.JPG,AFNE01.JPG,AFNE01.JPG,AFNE01.JPG,AFNE01.JPG,0,3,3,0,,,,,,,,,,,,,,,,,,,,,,,AFSA20.jpg,AFNE15.jpg,AFNE10.jpg,AFSA09.jpg,AFNE10.jpg,FN,3,num_2,16,num_2,1.0001664639,,,2017_May_30_1052,60.022158505,FEMA4ImagesEEG,001,100525,
AFNE01.JPG,AFNE01.JPG,AFNE01.JPG,AFNE01.JPG,AFNE01.JPG,AFNE01.JPG,0,4,4,6,,,,,,,,,,,,,,,,,,,,,,,AFSA09.jpg,AFNE19.jpg,AFNE05.jpg,AFSA02.jpg,AFSA02.jpg,FS,4,num_4,32,num_2,0.683469161391,,,2017_May_30_1052,60.022158505,FEMA4ImagesEEG,001,100525,
AFNE01.JPG,AFNE01.JPG,AFNE01.JPG,AFNE01.JPG,AFNE01.JPG,AFNE01.JPG,0,5,5,5,,,,,,,,,,,,,,,,,,,,,,,AFSA13.jpg,AFSA18.jpg,AFNE14.jpg,AFNE03.jpg,AFNE14.jpg,FN,3,num_2,32,num_4,0.600175893633,,,2017_May_30_1052,60.022158505,FEMA4ImagesEEG,001,100525,
AFNE01.JPG,AFNE01.JPG,AFNE01.JPG,AFNE01.JPG,AFNE01.JPG,AFNE01.JPG,0,6,6,4,,,,,,,,,,,,,,,,,,,,,,,AFNE18.jpg,AFNE04.jpg,AFSA03.jpg,AFSA12.jpg,AFSA03.jpg,FS,4,num_2,32,num_4,0.566840112209,,,2017_May_30_1052,60.022158505,FEMA4ImagesEEG,001,100525,
AFNE01.JPG,AFNE01.JPG,AFNE01.JPG,AFNE01.JPG,AFNE01.JPG,AFNE01.JPG,0,7,7,7,,,,,,,,,,,,,,,,,,,,,,,AFNE15.jpg,AFSA01.jpg,AFNE02.jpg,AFSA07.jpg,AFSA07.jpg,FS,4,num_4,32,num_2,0.616829030449,,,2017_May_30_1052,60.022158505,FEMA4ImagesEEG,001,100525,
AFNE01.JPG,AFNE01.JPG,AFNE01.JPG,AFNE01.JPG,AFNE01.JPG,AFNE01.JPG,0,8,8,9,,,,,,,,,,,,,,,,,,,,,,,AFSA08.jpg,AFSA14.jpg,AFNE12.jpg,AFNE14.jpg,AFNE12.jpg,FN,3,num_2,16,num_2,0.866773622576,,,2017_May_30_1052,60.022158505,FEMA4ImagesEEG,001,100525,
AFNE01.JPG,AFNE01.JPG,AFNE01.JPG,AFNE01.JPG,AFNE01.JPG,AFNE01.JPG,0,9,9,1,,,,,,,,,,,,,,,,,,,,,,,AFNE06.jpg,AFSA09.jpg,AFNE17.jpg,AFSA13.jpg,AFNE17.jpg,FN,3,num_2,32,num_4,0.783550597029,,,2017_May_30_1052,60.022158505,FEMA4ImagesEEG,001,100525,
AFNE01.JPG,AFNE01.JPG,AFNE01.JPG,AFNE01.JPG,AFNE01.JPG,AFNE01.JPG,1,0,10,7,,,,,,,,,,,,,,,,,,,,,,,AFSA14.jpg,AFNE17.jpg,AFSA06.jpg,AFNE13.jpg,AFSA06.jpg,FS,4,num_2,32,num_8,0.783497675089,,,2017_May_30_1052,60.022158505,FEMA4ImagesEEG,001,100525,
AFNE01.JPG,AFNE01.JPG,AFNE01.JPG,AFNE01.JPG,AFNE01.JPG,AFNE01.JPG,1,1,11,6,,,,,,,,,,,,,,,,,,,,,,,AFSA01.jpg,AFSA19.jpg,AFNE16.jpg,AFNE09.jpg,AFSA01.jpg,FS,4,num_8,32,num_2,1.63339877478,,,2017_May_30_1052,60.022158505,FEMA4ImagesEEG,001,100525,
AFNE01.JPG,AFNE01.JPG,AFNE01.JPG,AFNE01.JPG,AFNE01.JPG,AFNE01.JPG,1,2,12,4,,,,,,,,,,,,,,,,,,,,,,,AFNE14.jpg,AFNE16.jpg,AFSA01.jpg,AFSA11.jpg,AFSA01.jpg,FS,4,num_2,32,num_4,1.08346390119,,,2017_May_30_1052,60.022158505,FEMA4ImagesEEG,001,100525,
AFNE01.JPG,AFNE01.JPG,AFNE01.JPG,AFNE01.JPG,AFNE01.JPG,AFNE01.JPG,1,3,13,1,,,,,,,,,,,,,,,,,,,,,,,AFNE10.jpg,AFSA14.jpg,AFNE03.jpg,AFSA11.jpg,AFSA14.jpg,FS,4,num_6,16,num_6,0.816775723593,,,2017_May_30_1052,60.022158505,FEMA4ImagesEEG,001,100525,
AFNE01.JPG,AFNE01.JPG,AFNE01.JPG,AFNE01.JPG,AFNE01.JPG,AFNE01.JPG,1,4,14,3,,,,,,,,,,,,,,,,,,,,,,,AFSA09.jpg,AFSA16.jpg,AFNE02.jpg,AFNE07.jpg,AFSA09.jpg,FS,4,num_8,16,num_8,0.533471935894,,,2017_May_30_1052,60.022158505,FEMA4ImagesEEG,001,100525,
AFNE01.JPG,AFNE01.JPG,AFNE01.JPG,AFNE01.JPG,AFNE01.JPG,AFNE01.JPG,1,5,15,8,,,,,,,,,,,,,,,,,,,,,,,AFNE09.jpg,AFSA18.jpg,AFNE18.jpg,AFSA04.jpg,AFSA04.jpg,FS,4,num_4,32,num_2,1.05012362916,,,2017_May_30_1052,60.022158505,FEMA4ImagesEEG,001,100525,
AFNE01.JPG,AFNE01.JPG,AFNE01.JPG,AFNE01.JPG,AFNE01.JPG,AFNE01.JPG,1,6,16,9,,,,,,,,,,,,,,,,,,,,,,,AFSA13.jpg,AFNE18.jpg,AFNE01.jpg,AFSA03.jpg,AFSA13.jpg,FS,4,num_8,32,num_6,0.650158718228,,,2017_May_30_1052,60.022158505,FEMA4ImagesEEG,001,100525,
AFNE01.JPG,AFNE01.JPG,AFNE01.JPG,AFNE01.JPG,AFNE01.JPG,AFNE01.JPG,1,7,17,5,,,,,,,,,,,,,,,,,,,,,,,AFSA20.jpg,AFNE07.jpg,AFNE08.jpg,AFSA10.jpg,AFSA10.jpg,FS,4,num_4,16,num_4,1.03350096266,,,2017_May_30_1052,60.022158505,FEMA4ImagesEEG,001,100525,
AFNE01.JPG,AFNE01.JPG,AFNE01.JPG,AFNE01.JPG,AFNE01.JPG,AFNE01.JPG,1,8,18,0,,,,,,,,,,,,,,,,,,,,,,,AFSA02.jpg,AFNE16.jpg,AFNE02.jpg,AFSA05.jpg,AFSA02.jpg,FS,4,num_8,16,num_8,1.26674975967,,,2017_May_30_1052,60.022158505,FEMA4ImagesEEG,001,100525,
AFNE01.JPG,AFNE01.JPG,AFNE01.JPG,AFNE01.JPG,AFNE01.JPG,AFNE01.JPG,1,9,19,2,,,,,,,,,,,,,,,,,,,,,,,AFNE16.jpg,AFNE11.jpg,AFSA18.jpg,AFSA01.jpg,AFSA18.jpg,FS,4,num_2,16,num_2,0.900126082823,,,2017_May_30_1052,60.022158505,FEMA4ImagesEEG,001,100525,
AFNE01.JPG,AFNE01.JPG,AFNE01.JPG,AFNE01.JPG,AFNE01.JPG,AFNE01.JPG,2,0,20,5,,,,,,,,,,,,,,,,,,,,,,,AFNE02.jpg,AFNE08.jpg,AFSA03.jpg,AFSA18.jpg,AFNE02.jpg,FN,3,num_8,32,num_4,1.03345413483,,,2017_May_30_1052,60.022158505,FEMA4ImagesEEG,001,100525,
AFNE01.JPG,AFNE01.JPG,AFNE01.JPG,AFNE01.JPG,AFNE01.JPG,AFNE01.JPG,2,1,21,9,,,,,,,,,,,,,,,,,,,,,,,AFSA16.jpg,AFSA05.jpg,AFNE19.jpg,AFNE03.jpg,AFNE03.jpg,FN,3,num_4,32,num_2,1.01671760553,,,2017_May_30_1052,60.022158505,FEMA4ImagesEEG,001,100525,
AFNE01.JPG,AFNE01.JPG,AFNE01.JPG,AFNE01.JPG,AFNE01.JPG,AFNE01.JPG,2,2,22,3,,,,,,,,,,,,,,,,,,,,,,,AFSA03.jpg,AFNE09.jpg,AFNE14.jpg,AFSA19.jpg,AFSA19.jpg,FS,4,num_4,16,num_4,0.733460966498,,,2017_May_30_1052,60.022158505,FEMA4ImagesEEG,001,100525,
AFNE01.JPG,AFNE01.JPG,AFNE01.JPG,AFNE01.JPG,AFNE01.JPG,AFNE01.JPG,2,3,23,6,,,,,,,,,,,,,,,,,,,,,,,AFSA06.jpg,AFNE19.jpg,AFSA07.jpg,AFNE05.jpg,AFNE19.jpg,FN,3,num_6,32,num_4,0.76677622064,,,2017_May_30_1052,60.022158505,FEMA4ImagesEEG,001,100525,
AFNE01.JPG,AFNE01.JPG,AFNE01.JPG,AFNE01.JPG,AFNE01.JPG,AFNE01.JPG,2,4,24,4,,,,,,,,,,,,,,,,,,,,,,,AFSA06.jpg,AFNE06.jpg,AFNE03.jpg,AFSA05.jpg,AFSA05.jpg,FS,4,num_4,32,num_8,0.850151918596,,,2017_May_30_1052,60.022158505,FEMA4ImagesEEG,001,100525,
AFNE01.JPG,AFNE01.JPG,AFNE01.JPG,AFNE01.JPG,AFNE01.JPG,AFNE01.JPG,2,5,25,2,,,,,,,,,,,,,,,,,,,,,,,AFSA08.jpg,AFNE10.jpg,AFNE16.jpg,AFSA20.jpg,AFNE10.jpg,FN,3,num_6,16,num_6,0.883491228335,,,2017_May_30_1052,60.022158505,FEMA4ImagesEEG,001,100525,
AFNE01.JPG,AFNE01.JPG,AFNE01.JPG,AFNE01.JPG,AFNE01.JPG,AFNE01.JPG,2,6,26,7,,,,,,,,,,,,,,,,,,,,,,,AFNE06.jpg,AFSA12.jpg,AFSA05.jpg,AFNE16.jpg,AFNE06.jpg,FN,3,num_8,32,num_6,0.333566297311,,,2017_May_30_1052,60.022158505,FEMA4ImagesEEG,001,100525,
AFNE01.JPG,AFNE01.JPG,AFNE01.JPG,AFNE01.JPG,AFNE01.JPG,AFNE01.JPG,2,7,27,1,,,,,,,,,,,,,,,,,,,,,,,AFSA08.jpg,AFSA10.jpg,AFNE12.jpg,AFNE05.jpg,AFNE12.jpg,FN,3,num_2,16,num_2,0.550142071676,,,2017_May_30_1052,60.022158505,FEMA4ImagesEEG,001,100525,
AFNE01.JPG,AFNE01.JPG,AFNE01.JPG,AFNE01.JPG,AFNE01.JPG,AFNE01.JPG,2,8,28,0,,,,,,,,,,,,,,,,,,,,,,,AFNE15.jpg,AFSA19.jpg,AFNE14.jpg,AFSA05.jpg,AFSA05.jpg,FS,4,num_4,32,num_6,1.11679134355,,,2017_May_30_1052,60.022158505,FEMA4ImagesEEG,001,100525,
AFNE01.JPG,AFNE01.JPG,AFNE01.JPG,AFNE01.JPG,AFNE01.JPG,AFNE01.JPG,2,9,29,8,,,,,,,,,,,,,,,,,,,,,,,AFSA07.jpg,AFSA20.jpg,AFNE09.jpg,AFNE08.jpg,AFSA20.jpg,FS,4,num_6,16,num_6,0.583492286736,,,2017_May_30_1052,60.022158505,FEMA4ImagesEEG,001,100525,
AFNE01.JPG,AFNE01.JPG,AFNE01.JPG,AFNE01.JPG,AFNE01.JPG,AFNE01.JPG,3,0,30,7,,,,,,,,,,,,,,,,,,,,,,,AFSA19.jpg,AFNE12.jpg,AFSA20.jpg,AFNE16.jpg,AFSA20.jpg,FS,4,num_2,16,num_2,0.950148679083,,,2017_May_30_1052,60.022158505,FEMA4ImagesEEG,001,100525,
AFNE01.JPG,AFNE01.JPG,AFNE01.JPG,AFNE01.JPG,AFNE01.JPG,AFNE01.JPG,3,1,31,0,,,,,,,,,,,,,,,,,,,,,,,AFNE11.jpg,AFSA12.jpg,AFNE13.jpg,AFSA14.jpg,AFNE11.jpg,FN,3,num_8,16,num_8,0.766784239095,,,2017_May_30_1052,60.022158505,FEMA4ImagesEEG,001,100525,
AFNE01.JPG,AFNE01.JPG,AFNE01.JPG,AFNE01.JPG,AFNE01.JPG,AFNE01.JPG,3,2,32,2,,,,,,,,,,,,,,,,,,,,,,,AFSA03.jpg,AFSA18.jpg,AFNE08.jpg,AFNE06.jpg,AFNE08.jpg,FN,3,num_2,32,num_8,0.633509430103,,,2017_May_30_1052,60.022158505,FEMA4ImagesEEG,001,100525,
AFNE01.JPG,AFNE01.JPG,AFNE01.JPG,AFNE01.JPG,AFNE01.JPG,AFNE01.JPG,3,3,33,5,,,,,,,,,,,,,,,,,,,,,,,AFSA19.jpg,AFSA07.jpg,AFNE16.jpg,AFNE04.jpg,AFNE16.jpg,FN,3,num_2,16,num_2,0.583568622591,,,2017_May_30_1052,60.022158505,FEMA4ImagesEEG,001,100525,
AFNE01.JPG,AFNE01.JPG,AFNE01.JPG,AFNE01.JPG,AFNE01.JPG,AFNE01.JPG,3,4,34,8,,,,,,,,,,,,,,,,,,,,,,,AFNE08.jpg,AFSA17.jpg,AFSA06.jpg,AFNE12.jpg,AFNE12.jpg,FN,3,num_4,16,num_4,0.40013265796,,,2017_May_30_1052,60.022158505,FEMA4ImagesEEG,001,100525,
AFNE01.JPG,AFNE01.JPG,AFNE01.JPG,AFNE01.JPG,AFNE01.JPG,AFNE01.JPG,3,5,35,6,,,,,,,,,,,,,,,,,,,,,,,AFNE15.jpg,AFSA01.jpg,AFSA07.jpg,AFNE01.jpg,AFSA01.jpg,FS,4,num_6,16,num_6,0.566888864385,,,2017_May_30_1052,60.022158505,FEMA4ImagesEEG,001,100525,
AFNE01.JPG,AFNE01.JPG,AFNE01.JPG,AFNE01.JPG,AFNE01.JPG,AFNE01.JPG,3,6,36,9,,,,,,,,,,,,,,,,,,,,,,,AFNE15.jpg,AFSA01.jpg,AFSA09.jpg,AFNE01.jpg,AFSA01.jpg,FS,4,num_6,32,num_2,0.900120951002,,,2017_May_30_1052,60.022158505,FEMA4ImagesEEG,001,100525,
AFNE01.JPG,AFNE01.JPG,AFNE01.JPG,AFNE01.JPG,AFNE01.JPG,AFNE01.JPG,3,7,37,3,,,,,,,,,,,,,,,,,,,,,,,AFSA07.jpg,AFNE11.jpg,AFNE06.jpg,AFSA20.jpg,AFSA07.jpg,FS,4,num_8,32,num_6,0.716729569249,,,2017_May_30_1052,60.022158505,FEMA4ImagesEEG,001,100525,
AFNE01.JPG,AFNE01.JPG,AFNE01.JPG,AFNE01.JPG,AFNE01.JPG,AFNE01.JPG,3,8,38,4,,,,,,,,,,,,,,,,,,,,,,,AFNE17.jpg,AFNE09.jpg,AFSA13.jpg,AFSA07.jpg,AFNE17.jpg,FN,3,num_8,16,num_8,0.450219081482,,,2017_May_30_1052,60.022158505,FEMA4ImagesEEG,001,100525,
AFNE01.JPG,AFNE01.JPG,AFNE01.JPG,AFNE01.JPG,AFNE01.JPG,AFNE01.JPG,3,9,39,1,,,,,,,,,,,,,,,,,,,,,,,AFNE16.jpg,AFNE17.jpg,AFSA18.jpg,AFSA07.jpg,AFNE17.jpg,FN,3,num_6,16,num_6,1.50007104408,,,2017_May_30_1052,60.022158505,FEMA4ImagesEEG,001,100525,
AFNE01.JPG,AFNE01.JPG,AFNE01.JPG,AFNE01.JPG,AFNE01.JPG,AFNE01.JPG,4,0,40,9,,,,,,,,,,,,,,,,,,,,,,,AFSA20.jpg,AFSA09.jpg,AFNE16.jpg,AFNE06.jpg,AFNE06.jpg,FN,3,num_4,32,num_6,0.450182837667,,,2017_May_30_1052,60.022158505,FEMA4ImagesEEG,001,100525,
AFNE01.JPG,AFNE01.JPG,AFNE01.JPG,AFNE01.JPG,AFNE01.JPG,AFNE01.JPG,4,1,41,1,,,,,,,,,,,,,,,,,,,,,,,AFNE14.jpg,AFNE10.jpg,AFSA03.jpg,AFSA01.jpg,AFSA03.jpg,FS,4,num_2,32,num_4,0.849823160097,,,2017_May_30_1052,60.022158505,FEMA4ImagesEEG,001,100525,
AFNE01.JPG,AFNE01.JPG,AFNE01.JPG,AFNE01.JPG,AFNE01.JPG,AFNE01.JPG,4,2,42,7,,,,,,,,,,,,,,,,,,,,,,,AFSA15.jpg,AFNE03.jpg,AFSA11.jpg,AFNE05.jpg,AFNE05.jpg,FN,3,num_4,32,num_2,0.95016022562,,,2017_May_30_1052,60.022158505,FEMA4ImagesEEG,001,100525,
AFNE01.JPG,AFNE01.JPG,AFNE01.JPG,AFNE01.JPG,AFNE01.JPG,AFNE01.JPG,4,3,43,4,,,,,,,,,,,,,,,,,,,,,,,AFSA15.jpg,AFNE15.jpg,AFNE10.jpg,AFSA05.jpg,AFNE15.jpg,FN,3,num_6,16,num_6,1.18349401862,,,2017_May_30_1052,60.022158505,FEMA4ImagesEEG,001,100525,
AFNE01.JPG,AFNE01.JPG,AFNE01.JPG,AFNE01.JPG,AFNE01.JPG,AFNE01.JPG,4,4,44,5,,,,,,,,,,,,,,,,,,,,,,,AFNE14.jpg,AFSA15.jpg,AFNE08.jpg,AFSA01.jpg,AFNE08.jpg,FN,3,num_2,32,num_4,0.816748139914,,,2017_May_30_1052,60.022158505,FEMA4ImagesEEG,001,100525,
AFNE01.JPG,AFNE01.JPG,AFNE01.JPG,AFNE01.JPG,AFNE01.JPG,AFNE01.JPG,4,5,45,3,,,,,,,,,,,,,,,,,,,,,,,AFNE09.jpg,AFSA05.jpg,AFNE14.jpg,AFSA01.jpg,AFSA01.jpg,FS,4,num_4,32,num_8,0.883539339295,,,2017_May_30_1052,60.022158505,FEMA4ImagesEEG,001,100525,
AFNE01.JPG,AFNE01.JPG,AFNE01.JPG,AFNE01.JPG,AFNE01.JPG,AFNE01.JPG,4,6,46,0,,,,,,,,,,,,,,,,,,,,,,,AFSA16.jpg,AFSA20.jpg,AFNE17.jpg,AFNE12.jpg,AFSA20.jpg,FS,4,num_6,16,num_6,0.716781529132,,,2017_May_30_1052,60.022158505,FEMA4ImagesEEG,001,100525,
AFNE01.JPG,AFNE01.JPG,AFNE01.JPG,AFNE01.JPG,AFNE01.JPG,AFNE01.JPG,4,7,47,8,,,,,,,,,,,,,,,,,,,,,,,AFSA15.jpg,AFSA04.jpg,AFNE18.jpg,AFNE15.jpg,AFSA15.jpg,FS,4,num_8,16,num_8,0.616812993539,,,2017_May_30_1052,60.022158505,FEMA4ImagesEEG,001,100525,
AFNE01.JPG,AFNE01.JPG,AFNE01.JPG,AFNE01.JPG,AFNE01.JPG,AFNE01.JPG,4,8,48,2,,,,,,,,,,,,,,,,,,,,,,,AFSA19.jpg,AFNE16.jpg,AFNE01.jpg,AFSA01.jpg,AFSA01.jpg,FS,4,num_4,32,num_8,1.00012797513,,,2017_May_30_1052,60.022158505,FEMA4ImagesEEG,001,100525,
AFNE01.JPG,AFNE01.JPG,AFNE01.JPG,AFNE01.JPG,AFNE01.JPG,AFNE01.JPG,4,9,49,6,,,,,,,,,,,,,,,,,,,,,,,AFSA06.jpg,AFSA11.jpg,AFNE08.jpg,AFNE04.jpg,AFSA06.jpg,FS,4,num_8,32,num_6,0.783475544071,,,2017_May_30_1052,60.022158505,FEMA4ImagesEEG,001,100525,
AFNE01.JPG,AFNE01.JPG,AFNE01.JPG,AFNE01.JPG,AFNE01.JPG,AFNE01.JPG,5,0,50,3,,,,,,,,,,,,,,,,,,,,,,,AFSA19.jpg,AFSA04.jpg,AFNE07.jpg,AFNE01.jpg,AFSA04.jpg,FS,4,num_6,32,num_4,1.33339822991,,,2017_May_30_1052,60.022158505,FEMA4ImagesEEG,001,100525,
AFNE01.JPG,AFNE01.JPG,AFNE01.JPG,AFNE01.JPG,AFNE01.JPG,AFNE01.JPG,5,1,51,8,,,,,,,,,,,,,,,,,,,,,,,AFSA15.jpg,AFNE08.jpg,AFNE10.jpg,AFSA05.jpg,AFNE10.jpg,FN,3,num_2,32,num_6,0.750151308952,,,2017_May_30_1052,60.022158505,FEMA4ImagesEEG,001,100525,
AFNE01.JPG,AFNE01.JPG,AFNE01.JPG,AFNE01.JPG,AFNE01.JPG,AFNE01.JPG,5,2,52,5,,,,,,,,,,,,,,,,,,,,,,,AFNE04.jpg,AFSA08.jpg,AFSA10.jpg,AFNE01.jpg,AFNE04.jpg,FN,3,num_8,16,num_8,0.683517272351,,,2017_May_30_1052,60.022158505,FEMA4ImagesEEG,001,100525,
AFNE01.JPG,AFNE01.JPG,AFNE01.JPG,AFNE01.JPG,AFNE01.JPG,AFNE01.JPG,5,3,53,2,,,,,,,,,,,,,,,,,,,,,,,AFSA20.jpg,AFSA06.jpg,AFNE17.jpg,AFNE04.jpg,AFSA20.jpg,FS,4,num_8,32,num_6,0.80014760443,,,2017_May_30_1052,60.022158505,FEMA4ImagesEEG,001,100525,
AFNE01.JPG,AFNE01.JPG,AFNE01.JPG,AFNE01.JPG,AFNE01.JPG,AFNE01.JPG,5,4,54,6,,,,,,,,,,,,,,,,,,,,,,,AFSA07.jpg,AFNE16.jpg,AFNE19.jpg,AFSA08.jpg,AFSA08.jpg,FS,4,num_4,32,num_8,0.700221406762,,,2017_May_30_1052,60.022158505,FEMA4ImagesEEG,001,100525,
AFNE01.JPG,AFNE01.JPG,AFNE01.JPG,AFNE01.JPG,AFNE01.JPG,AFNE01.JPG,5,5,55,7,,,,,,,,,,,,,,,,,,,,,,,AFSA10.jpg,AFNE14.jpg,AFSA12.jpg,AFNE13.jpg,AFNE14.jpg,FN,3,num_6,32,num_4,0.333571108524,,,2017_May_30_1052,60.022158505,FEMA4ImagesEEG,001,100525,
AFNE01.JPG,AFNE01.JPG,AFNE01.JPG,AFNE01.JPG,AFNE01.JPG,AFNE01.JPG,5,6,56,0,,,,,,,,,,,,,,,,,,,,,,,AFSA12.jpg,AFSA07.jpg,AFNE13.jpg,AFNE09.jpg,AFSA12.jpg,FS,4,num_8,32,num_6,0.966743441066,,,2017_May_30_1052,60.022158505,FEMA4ImagesEEG,001,100525,
AFNE01.JPG,AFNE01.JPG,AFNE01.JPG,AFNE01.JPG,AFNE01.JPG,AFNE01.JPG,5,7,57,1,,,,,,,,,,,,,,,,,,,,,,,AFNE02.jpg,AFNE13.jpg,AFSA17.jpg,AFSA04.jpg,AFSA04.jpg,FS,4,num_4,32,num_8,0.616809465457,,,2017_May_30_1052,60.022158505,FEMA4ImagesEEG,001,100525,
AFNE01.JPG,AFNE01.JPG,AFNE01.JPG,AFNE01.JPG,AFNE01.JPG,AFNE01.JPG,5,8,58,4,,,,,,,,,,,,,,,,,,,,,,,AFNE08.jpg,AFNE09.jpg,AFSA14.jpg,AFSA06.jpg,AFNE08.jpg,FN,3,num_8,32,num_4,0.283501042752,,,2017_May_30_1052,60.022158505,FEMA4ImagesEEG,001,100525,
AFNE01.JPG,AFNE01.JPG,AFNE01.JPG,AFNE01.JPG,AFNE01.JPG,AFNE01.JPG,5,9,59,9,,,,,,,,,,,,,,,,,,,,,,,AFNE18.jpg,AFNE11.jpg,AFSA19.jpg,AFSA10.jpg,AFNE11.jpg,FN,3,num_6,16,num_6,0.333530695178,,,2017_May_30_1052,60.022158505,FEMA4ImagesEEG,001,100525,
,,,,,,,,,,,,,,,,,,,,,,,,,,,,,,,,,,,,,,,,,,,space,14.5157003789,2017_May_30_1052,60.022158505,FEMA4ImagesEEG,001,100525,
AFNE01.JPG,AFNE01.JPG,AFNE01.JPG,AFNE01.JPG,AFNE01.JPG,AFNE01.JPG,,,,,0,0,0,6,,,,,,,,,,,,,,,,,,,AMSA19.jpg,AMNE07.jpg,AMSA08.jpg,AMNE09.jpg,AMNE07.jpg,MN,1,num_6,32,num_4,0.800018346403,,,2017_May_30_1052,60.022158505,FEMA4ImagesEEG,001,100525,
AFNE01.JPG,AFNE01.JPG,AFNE01.JPG,AFNE01.JPG,AFNE01.JPG,AFNE01.JPG,,,,,0,1,1,1,,,,,,,,,,,,,,,,,,,AMSA18.jpg,AMSA04.jpg,AMNE02.jpg,AMNE17.jpg,AMNE02.jpg,MN,1,num_2,32,num_6,0.733529925579,,,2017_May_30_1052,60.022158505,FEMA4ImagesEEG,001,100525,
AFNE01.JPG,AFNE01.JPG,AFNE01.JPG,AFNE01.JPG,AFNE01.JPG,AFNE01.JPG,,,,,0,2,2,5,,,,,,,,,,,,,,,,,,,AMSA12.jpg,AMNE05.jpg,AMNE02.jpg,AMSA11.jpg,AMNE05.jpg,MN,1,num_6,32,num_2,0.450215874007,,,2017_May_30_1052,60.022158505,FEMA4ImagesEEG,001,100525,
AFNE01.JPG,AFNE01.JPG,AFNE01.JPG,AFNE01.JPG,AFNE01.JPG,AFNE01.JPG,,,,,0,3,3,4,,,,,,,,,,,,,,,,,,,AMSA13.jpg,AMNE14.jpg,AMSA10.jpg,AMNE19.jpg,AMSA10.jpg,MS,2,num_2,32,num_4,0.866819167743,,,2017_May_30_1052,60.022158505,FEMA4ImagesEEG,001,100525,
AFNE01.JPG,AFNE01.JPG,AFNE01.JPG,AFNE01.JPG,AFNE01.JPG,AFNE01.JPG,,,,,0,4,4,0,,,,,,,,,,,,,,,,,,,AMNE11.jpg,AMSA06.jpg,AMSA09.jpg,AMNE05.jpg,AMNE11.jpg,MN,1,num_8,32,num_2,0.816754234023,,,2017_May_30_1052,60.022158505,FEMA4ImagesEEG,001,100525,
AFNE01.JPG,AFNE01.JPG,AFNE01.JPG,AFNE01.JPG,AFNE01.JPG,AFNE01.JPG,,,,,0,5,5,7,,,,,,,,,,,,,,,,,,,AMNE11.jpg,AMNE01.jpg,AMSA08.jpg,AMSA04.jpg,AMNE11.jpg,MN,1,num_8,32,num_2,0.9166708095,,,2017_May_30_1052,60.022158505,FEMA4ImagesEEG,001,100525,
AFNE01.JPG,AFNE01.JPG,AFNE01.JPG,AFNE01.JPG,AFNE01.JPG,AFNE01.JPG,,,,,0,6,6,8,,,,,,,,,,,,,,,,,,,AMNE03.jpg,AMSA12.jpg,AMSA05.jpg,AMNE14.jpg,AMNE03.jpg,MN,1,num_8,32,num_6,1.05010598851,,,2017_May_30_1052,60.022158505,FEMA4ImagesEEG,001,100525,
AFNE01.JPG,AFNE01.JPG,AFNE01.JPG,AFNE01.JPG,AFNE01.JPG,AFNE01.JPG,,,,,0,7,7,9,,,,,,,,,,,,,,,,,,,AMNE03.jpg,AMSA03.jpg,AMNE06.jpg,AMSA02.jpg,AMNE06.jpg,MN,1,num_2,32,num_4,0.400164411403,,,2017_May_30_1052,60.022158505,FEMA4ImagesEEG,001,100525,
AFNE01.JPG,AFNE01.JPG,AFNE01.JPG,AFNE01.JPG,AFNE01.JPG,AFNE01.JPG,,,,,0,8,8,3,,,,,,,,,,,,,,,,,,,AMNE06.jpg,AMNE14.jpg,AMSA20.jpg,AMSA04.jpg,AMNE06.jpg,MN,1,num_8,32,num_6,0.983454952715,,,2017_May_30_1052,60.022158505,FEMA4ImagesEEG,001,100525,
AFNE01.JPG,AFNE01.JPG,AFNE01.JPG,AFNE01.JPG,AFNE01.JPG,AFNE01.JPG,,,,,0,9,9,2,,,,,,,,,,,,,,,,,,,AMNE03.jpg,AMNE13.jpg,AMSA05.jpg,AMSA03.jpg,AMNE03.jpg,MN,1,num_8,32,num_4,0.283513872419,,,2017_May_30_1052,60.022158505,FEMA4ImagesEEG,001,100525,
AFNE01.JPG,AFNE01.JPG,AFNE01.JPG,AFNE01.JPG,AFNE01.JPG,AFNE01.JPG,,,,,1,0,10,4,,,,,,,,,,,,,,,,,,,AMSA16.jpg,AMNE09.jpg,AMNE15.jpg,AMSA12.jpg,AMNE09.jpg,MN,1,num_6,16,num_6,0.916814821772,,,2017_May_30_1052,60.022158505,FEMA4ImagesEEG,001,100525,
AFNE01.JPG,AFNE01.JPG,AFNE01.JPG,AFNE01.JPG,AFNE01.JPG,AFNE01.JPG,,,,,1,1,11,8,,,,,,,,,,,,,,,,,,,AMSA05.jpg,AMNE11.jpg,AMNE01.jpg,AMSA04.jpg,AMNE11.jpg,MN,1,num_6,32,num_4,0.483576673549,,,2017_May_30_1052,60.022158505,FEMA4ImagesEEG,001,100525,
AFNE01.JPG,AFNE01.JPG,AFNE01.JPG,AFNE01.JPG,AFNE01.JPG,AFNE01.JPG,,,,,1,2,12,0,,,,,,,,,,,,,,,,,,,AMSA20.jpg,AMSA03.jpg,AMNE01.jpg,AMNE04.jpg,AMSA03.jpg,MS,2,num_6,32,num_2,0.566801944049,,,2017_May_30_1052,60.022158505,FEMA4ImagesEEG,001,100525,
AFNE01.JPG,AFNE01.JPG,AFNE01.JPG,AFNE01.JPG,AFNE01.JPG,AFNE01.JPG,,,,,1,3,13,1,,,,,,,,,,,,,,,,,,,AMNE05.jpg,AMSA19.jpg,AMNE19.jpg,AMSA20.jpg,AMSA19.jpg,MS,2,num_6,32,num_2,0.850044149673,,,2017_May_30_1052,60.022158505,FEMA4ImagesEEG,001,100525,
AFNE01.JPG,AFNE01.JPG,AFNE01.JPG,AFNE01.JPG,AFNE01.JPG,AFNE01.JPG,,,,,1,4,14,5,,,,,,,,,,,,,,,,,,,AMNE17.jpg,AMNE02.jpg,AMSA09.jpg,AMSA06.jpg,AMSA09.jpg,MS,2,num_2,32,num_6,0.500204792479,,,2017_May_30_1052,60.022158505,FEMA4ImagesEEG,001,100525,
AFNE01.JPG,AFNE01.JPG,AFNE01.JPG,AFNE01.JPG,AFNE01.JPG,AFNE01.JPG,,,,,1,5,15,6,,,,,,,,,,,,,,,,,,,AMNE13.jpg,AMNE09.jpg,AMSA04.jpg,AMSA12.jpg,AMSA04.jpg,MS,2,num_2,32,num_4,0.383492671652,,,2017_May_30_1052,60.022158505,FEMA4ImagesEEG,001,100525,
AFNE01.JPG,AFNE01.JPG,AFNE01.JPG,AFNE01.JPG,AFNE01.JPG,AFNE01.JPG,,,,,1,6,16,3,,,,,,,,,,,,,,,,,,,AMNE06.jpg,AMSA14.jpg,AMSA08.jpg,AMNE02.jpg,AMSA14.jpg,MS,2,num_6,32,num_8,0.400308423443,,,2017_May_30_1052,60.022158505,FEMA4ImagesEEG,001,100525,
AFNE01.JPG,AFNE01.JPG,AFNE01.JPG,AFNE01.JPG,AFNE01.JPG,AFNE01.JPG,,,,,1,7,17,2,,,,,,,,,,,,,,,,,,,AMSA15.jpg,AMNE10.jpg,AMNE14.jpg,AMSA08.jpg,AMNE14.jpg,MN,1,num_2,16,num_2,0.400172750466,,,2017_May_30_1052,60.022158505,FEMA4ImagesEEG,001,100525,
AFNE01.JPG,AFNE01.JPG,AFNE01.JPG,AFNE01.JPG,AFNE01.JPG,AFNE01.JPG,,,,,1,8,18,9,,,,,,,,,,,,,,,,,,,AMSA19.jpg,AMNE18.jpg,AMNE06.jpg,AMSA20.jpg,AMNE06.jpg,MN,1,num_2,16,num_2,0.816819985863,,,2017_May_30_1052,60.022158505,FEMA4ImagesEEG,001,100525,
AFNE01.JPG,AFNE01.JPG,AFNE01.JPG,AFNE01.JPG,AFNE01.JPG,AFNE01.JPG,,,,,1,9,19,7,,,,,,,,,,,,,,,,,,,AMNE08.jpg,AMSA17.jpg,AMSA08.jpg,AMNE06.jpg,AMSA17.jpg,MS,2,num_6,16,num_6,0.916795577388,,,2017_May_30_1052,60.022158505,FEMA4ImagesEEG,001,100525,
AFNE01.JPG,AFNE01.JPG,AFNE01.JPG,AFNE01.JPG,AFNE01.JPG,AFNE01.JPG,,,,,2,0,20,7,,,,,,,,,,,,,,,,,,,AMSA08.jpg,AMNE17.jpg,AMSA14.jpg,AMNE18.jpg,AMSA14.jpg,MS,2,num_2,16,num_2,0.750143290497,,,2017_May_30_1052,60.022158505,FEMA4ImagesEEG,001,100525,
AFNE01.JPG,AFNE01.JPG,AFNE01.JPG,AFNE01.JPG,AFNE01.JPG,AFNE01.JPG,,,,,2,1,21,3,,,,,,,,,,,,,,,,,,,AMNE05.jpg,AMSA10.jpg,AMSA17.jpg,AMNE04.jpg,AMSA10.jpg,MS,2,num_6,32,num_2,1.08345748647,,,2017_May_30_1052,60.022158505,FEMA4ImagesEEG,001,100525,
AFNE01.JPG,AFNE01.JPG,AFNE01.JPG,AFNE01.JPG,AFNE01.JPG,AFNE01.JPG,,,,,2,2,22,1,,,,,,,,,,,,,,,,,,,AMSA16.jpg,AMSA01.jpg,AMNE08.jpg,AMNE10.jpg,AMSA01.jpg,MS,2,num_6,32,num_4,0.983416143106,,,2017_May_30_1052,60.022158505,FEMA4ImagesEEG,001,100525,
AFNE01.JPG,AFNE01.JPG,AFNE01.JPG,AFNE01.JPG,AFNE01.JPG,AFNE01.JPG,,,,,2,3,23,0,,,,,,,,,,,,,,,,,,,AMSA04.jpg,AMNE12.jpg,AMSA10.jpg,AMNE08.jpg,AMNE12.jpg,MN,1,num_6,16,num_6,0.650116059696,,,2017_May_30_1052,60.022158505,FEMA4ImagesEEG,001,100525,
AFNE01.JPG,AFNE01.JPG,AFNE01.JPG,AFNE01.JPG,AFNE01.JPG,AFNE01.JPG,,,,,2,4,24,6,,,,,,,,,,,,,,,,,,,AMNE14.jpg,AMNE17.jpg,AMSA14.jpg,AMSA15.jpg,AMNE17.jpg,MN,1,num_6,32,num_4,0.600125858327,,,2017_May_30_1052,60.022158505,FEMA4ImagesEEG,001,100525,
AFNE01.JPG,AFNE01.JPG,AFNE01.JPG,AFNE01.JPG,AFNE01.JPG,AFNE01.JPG,,,,,2,5,25,9,,,,,,,,,,,,,,,,,,,AMSA13.jpg,AMSA08.jpg,AMNE13.jpg,AMNE17.jpg,AMNE17.jpg,MN,1,num_4,32,num_8,0.48333900515,,,2017_May_30_1052,60.022158505,FEMA4ImagesEEG,001,100525,
AFNE01.JPG,AFNE01.JPG,AFNE01.JPG,AFNE01.JPG,AFNE01.JPG,AFNE01.JPG,,,,,2,6,26,4,,,,,,,,,,,,,,,,,,,AMSA19.jpg,AMNE05.jpg,AMNE14.jpg,AMSA09.jpg,AMSA19.jpg,MS,2,num_8,16,num_8,0.683473010082,,,2017_May_30_1052,60.022158505,FEMA4ImagesEEG,001,100525,
AFNE01.JPG,AFNE01.JPG,AFNE01.JPG,AFNE01.JPG,AFNE01.JPG,AFNE01.JPG,,,,,2,7,27,2,,,,,,,,,,,,,,,,,,,AMNE13.jpg,AMSA07.jpg,AMNE18.jpg,AMSA18.jpg,AMSA18.jpg,MS,2,num_4,32,num_8,0.816822872497,,,2017_May_30_1052,60.022158505,FEMA4ImagesEEG,001,100525,
AFNE01.JPG,AFNE01.JPG,AFNE01.JPG,AFNE01.JPG,AFNE01.JPG,AFNE01.JPG,,,,,2,8,28,8,,,,,,,,,,,,,,,,,,,AMSA02.jpg,AMNE08.jpg,AMNE11.jpg,AMSA07.jpg,AMSA07.jpg,MS,2,num_4,32,num_6,0.600302585866,,,2017_May_30_1052,60.022158505,FEMA4ImagesEEG,001,100525,
AFNE01.JPG,AFNE01.JPG,AFNE01.JPG,AFNE01.JPG,AFNE01.JPG,AFNE01.JPG,,,,,2,9,29,5,,,,,,,,,,,,,,,,,,,AMNE11.jpg,AMNE20.jpg,AMSA09.jpg,AMSA18.jpg,AMNE11.jpg,MN,1,num_8,32,num_4,0.516837401781,,,2017_May_30_1052,60.022158505,FEMA4ImagesEEG,001,100525,
AFNE01.JPG,AFNE01.JPG,AFNE01.JPG,AFNE01.JPG,AFNE01.JPG,AFNE01.JPG,,,,,3,0,30,3,,,,,,,,,,,,,,,,,,,AMSA08.jpg,AMNE13.jpg,AMSA10.jpg,AMNE20.jpg,AMSA10.jpg,MS,2,num_2,32,num_8,1.13346564933,,,2017_May_30_1052,60.022158505,FEMA4ImagesEEG,001,100525,
AFNE01.JPG,AFNE01.JPG,AFNE01.JPG,AFNE01.JPG,AFNE01.JPG,AFNE01.JPG,,,,,3,1,31,9,,,,,,,,,,,,,,,,,,,AMSA18.jpg,AMNE05.jpg,AMNE08.jpg,AMSA14.jpg,AMSA18.jpg,MS,2,num_8,32,num_4,0.833465424832,,,2017_May_30_1052,60.022158505,FEMA4ImagesEEG,001,100525,
AFNE01.JPG,AFNE01.JPG,AFNE01.JPG,AFNE01.JPG,AFNE01.JPG,AFNE01.JPG,,,,,3,2,32,0,,,,,,,,,,,,,,,,,,,AMNE11.jpg,AMSA18.jpg,AMNE15.jpg,AMSA19.jpg,AMSA19.jpg,MS,2,num_4,32,num_6,0.466821220471,,,2017_May_30_1052,60.022158505,FEMA4ImagesEEG,001,100525,
AFNE01.JPG,AFNE01.JPG,AFNE01.JPG,AFNE01.JPG,AFNE01.JPG,AFNE01.JPG,,,,,3,3,33,2,,,,,,,,,,,,,,,,,,,AMNE11.jpg,AMNE03.jpg,AMSA06.jpg,AMSA05.jpg,AMSA05.jpg,MS,2,num_4,32,num_6,0.966906697722,,,2017_May_30_1052,60.022158505,FEMA4ImagesEEG,001,100525,
AFNE01.JPG,AFNE01.JPG,AFNE01.JPG,AFNE01.JPG,AFNE01.JPG,AFNE01.JPG,,,,,3,4,34,4,,,,,,,,,,,,,,,,,,,AMNE13.jpg,AMNE19.jpg,AMSA19.jpg,AMSA12.jpg,AMNE13.jpg,MN,1,num_8,32,num_2,0.583556755446,,,2017_May_30_1052,60.022158505,FEMA4ImagesEEG,001,100525,
AFNE01.JPG,AFNE01.JPG,AFNE01.JPG,AFNE01.JPG,AFNE01.JPG,AFNE01.JPG,,,,,3,5,35,6,,,,,,,,,,,,,,,,,,,AMSA05.jpg,AMNE10.jpg,AMSA11.jpg,AMNE19.jpg,AMSA11.jpg,MS,2,num_2,32,num_4,0.350214943755,,,2017_May_30_1052,60.022158505,FEMA4ImagesEEG,001,100525,
AFNE01.JPG,AFNE01.JPG,AFNE01.JPG,AFNE01.JPG,AFNE01.JPG,AFNE01.JPG,,,,,3,6,36,7,,,,,,,,,,,,,,,,,,,AMNE13.jpg,AMSA17.jpg,AMNE09.jpg,AMSA09.jpg,AMSA09.jpg,MS,2,num_4,32,num_6,1.38343301392,,,2017_May_30_1052,60.022158505,FEMA4ImagesEEG,001,100525,
AFNE01.JPG,AFNE01.JPG,AFNE01.JPG,AFNE01.JPG,AFNE01.JPG,AFNE01.JPG,,,,,3,7,37,5,,,,,,,,,,,,,,,,,,,AMSA04.jpg,AMSA13.jpg,AMNE16.jpg,AMNE20.jpg,AMSA04.jpg,MS,2,num_8,32,num_2,0.766908044927,,,2017_May_30_1052,60.022158505,FEMA4ImagesEEG,001,100525,
AFNE01.JPG,AFNE01.JPG,AFNE01.JPG,AFNE01.JPG,AFNE01.JPG,AFNE01.JPG,,,,,3,8,38,8,,,,,,,,,,,,,,,,,,,AMSA14.jpg,AMNE13.jpg,AMNE03.jpg,AMSA20.jpg,AMNE13.jpg,MN,1,num_6,32,num_4,0.85020163306,,,2017_May_30_1052,60.022158505,FEMA4ImagesEEG,001,100525,
AFNE01.JPG,AFNE01.JPG,AFNE01.JPG,AFNE01.JPG,AFNE01.JPG,AFNE01.JPG,,,,,3,9,39,1,,,,,,,,,,,,,,,,,,,AMNE10.jpg,AMSA13.jpg,AMSA01.jpg,AMNE14.jpg,AMSA13.jpg,MS,2,num_6,16,num_6,0.516911813524,,,2017_May_30_1052,60.022158505,FEMA4ImagesEEG,001,100525,
AFNE01.JPG,AFNE01.JPG,AFNE01.JPG,AFNE01.JPG,AFNE01.JPG,AFNE01.JPG,,,,,4,0,40,8,,,,,,,,,,,,,,,,,,,AMSA08.jpg,AMNE16.jpg,AMNE18.jpg,AMSA20.jpg,AMNE16.jpg,MN,1,num_6,32,num_2,0.466772468062,,,2017_May_30_1052,60.022158505,FEMA4ImagesEEG,001,100525,
AFNE01.JPG,AFNE01.JPG,AFNE01.JPG,AFNE01.JPG,AFNE01.JPG,AFNE01.JPG,,,,,4,1,41,6,,,,,,,,,,,,,,,,,,,AMSA15.jpg,AMNE18.jpg,AMNE10.jpg,AMSA07.jpg,AMNE18.jpg,MN,1,num_6,32,num_4,0.366929021198,,,2017_May_30_1052,60.022158505,FEMA4ImagesEEG,001,100525,
AFNE01.JPG,AFNE01.JPG,AFNE01.JPG,AFNE01.JPG,AFNE01.JPG,AFNE01.JPG,,,,,4,2,42,0,,,,,,,,,,,,,,,,,,,AMNE18.jpg,AMSA02.jpg,AMNE15.jpg,AMSA08.jpg,AMNE18.jpg,MN,1,num_8,32,num_6,0.566818301799,,,2017_May_30_1052,60.022158505,FEMA4ImagesEEG,001,100525,
AFNE01.JPG,AFNE01.JPG,AFNE01.JPG,AFNE01.JPG,AFNE01.JPG,AFNE01.JPG,,,,,4,3,43,5,,,,,,,,,,,,,,,,,,,AMNE19.jpg,AMSA16.jpg,AMSA14.jpg,AMNE09.jpg,AMSA14.jpg,MS,2,num_2,32,num_4,0.383459314704,,,2017_May_30_1052,60.022158505,FEMA4ImagesEEG,001,100525,
AFNE01.JPG,AFNE01.JPG,AFNE01.JPG,AFNE01.JPG,AFNE01.JPG,AFNE01.JPG,,,,,4,4,44,4,,,,,,,,,,,,,,,,,,,AMNE15.jpg,AMNE16.jpg,AMSA19.jpg,AMSA06.jpg,AMNE16.jpg,MN,1,num_6,32,num_4,0.466792353895,,,2017_May_30_1052,60.022158505,FEMA4ImagesEEG,001,100525,
AFNE01.JPG,AFNE01.JPG,AFNE01.JPG,AFNE01.JPG,AFNE01.JPG,AFNE01.JPG,,,,,4,5,45,7,,,,,,,,,,,,,,,,,,,AMNE08.jpg,AMSA19.jpg,AMSA04.jpg,AMNE16.jpg,AMNE16.jpg,MN,1,num_4,32,num_2,0.583506719908,,,2017_May_30_1052,60.022158505,FEMA4ImagesEEG,001,100525,
AFNE01.JPG,AFNE01.JPG,AFNE01.JPG,AFNE01.JPG,AFNE01.JPG,AFNE01.JPG,,,,,4,6,46,2,,,,,,,,,,,,,,,,,,,AMSA06.jpg,AMNE12.jpg,AMNE09.jpg,AMSA09.jpg,AMNE12.jpg,MN,1,num_6,16,num_6,2.03341532522,,,2017_May_30_1052,60.022158505,FEMA4ImagesEEG,001,100525,
AFNE01.JPG,AFNE01.JPG,AFNE01.JPG,AFNE01.JPG,AFNE01.JPG,AFNE01.JPG,,,,,4,7,47,1,,,,,,,,,,,,,,,,,,,AMSA11.jpg,AMNE19.jpg,AMSA08.jpg,AMNE03.jpg,AMSA11.jpg,MS,2,num_8,16,num_8,0.71687165671,,,2017_May_30_1052,60.022158505,FEMA4ImagesEEG,001,100525,
AFNE01.JPG,AFNE01.JPG,AFNE01.JPG,AFNE01.JPG,AFNE01.JPG,AFNE01.JPG,,,,,4,8,48,3,,,,,,,,,,,,,,,,,,,AMSA08.jpg,AMNE08.jpg,AMNE20.jpg,AMSA06.jpg,AMNE20.jpg,MN,1,num_2,16,num_2,0.416553579271,,,2017_May_30_1052,60.022158505,FEMA4ImagesEEG,001,100525,
AFNE01.JPG,AFNE01.JPG,AFNE01.JPG,AFNE01.JPG,AFNE01.JPG,AFNE01.JPG,,,,,4,9,49,9,,,,,,,,,,,,,,,,,,,AMSA09.jpg,AMSA05.jpg,AMNE07.jpg,AMNE13.jpg,AMNE07.jpg,MN,1,num_2,32,num_4,1.28345229034,,,2017_May_30_1052,60.022158505,FEMA4ImagesEEG,001,100525,
AFNE01.JPG,AFNE01.JPG,AFNE01.JPG,AFNE01.JPG,AFNE01.JPG,AFNE01.JPG,,,,,5,0,50,3,,,,,,,,,,,,,,,,,,,AMSA12.jpg,AMNE13.jpg,AMNE18.jpg,AMSA06.jpg,AMNE18.jpg,MN,1,num_2,32,num_4,0.816767704906,,,2017_May_30_1052,60.022158505,FEMA4ImagesEEG,001,100525,
AFNE01.JPG,AFNE01.JPG,AFNE01.JPG,AFNE01.JPG,AFNE01.JPG,AFNE01.JPG,,,,,5,1,51,0,,,,,,,,,,,,,,,,,,,AMSA13.jpg,AMNE13.jpg,AMSA03.jpg,AMNE09.jpg,AMNE13.jpg,MN,1,num_6,16,num_6,1.05016019358,,,2017_May_30_1052,60.022158505,FEMA4ImagesEEG,001,100525,
AFNE01.JPG,AFNE01.JPG,AFNE01.JPG,AFNE01.JPG,AFNE01.JPG,AFNE01.JPG,,,,,5,2,52,6,,,,,,,,,,,,,,,,,,,AMSA20.jpg,AMNE06.jpg,AMNE17.jpg,AMSA09.jpg,AMSA20.jpg,MS,2,num_8,16,num_8,0.766736448975,,,2017_May_30_1052,60.022158505,FEMA4ImagesEEG,001,100525,
AFNE01.JPG,AFNE01.JPG,AFNE01.JPG,AFNE01.JPG,AFNE01.JPG,AFNE01.JPG,,,,,5,3,53,5,,,,,,,,,,,,,,,,,,,AMSA03.jpg,AMNE09.jpg,AMSA05.jpg,AMNE01.jpg,AMNE09.jpg,MN,1,num_6,16,num_6,0.66677625291,,,2017_May_30_1052,60.022158505,FEMA4ImagesEEG,001,100525,
AFNE01.JPG,AFNE01.JPG,AFNE01.JPG,AFNE01.JPG,AFNE01.JPG,AFNE01.JPG,,,,,5,4,54,8,,,,,,,,,,,,,,,,,,,AMNE02.jpg,AMSA07.jpg,AMNE09.jpg,AMSA05.jpg,AMSA07.jpg,MS,2,num_6,32,num_2,0.700116204098,,,2017_May_30_1052,60.022158505,FEMA4ImagesEEG,001,100525,
AFNE01.JPG,AFNE01.JPG,AFNE01.JPG,AFNE01.JPG,AFNE01.JPG,AFNE01.JPG,,,,,5,5,55,4,,,,,,,,,,,,,,,,,,,AMNE20.jpg,AMSA06.jpg,AMSA20.jpg,AMNE04.jpg,AMNE04.jpg,MN,1,num_4,32,num_6,1.13351857127,,,2017_May_30_1052,60.022158505,FEMA4ImagesEEG,001,100525,
AFNE01.JPG,AFNE01.JPG,AFNE01.JPG,AFNE01.JPG,AFNE01.JPG,AFNE01.JPG,,,,,5,6,56,1,,,,,,,,,,,,,,,,,,,AMNE02.jpg,AMSA20.jpg,AMNE08.jpg,AMSA06.jpg,AMSA06.jpg,MS,2,num_4,16,num_4,0.766735166078,,,2017_May_30_1052,60.022158505,FEMA4ImagesEEG,001,100525,
AFNE01.JPG,AFNE01.JPG,AFNE01.JPG,AFNE01.JPG,AFNE01.JPG,AFNE01.JPG,,,,,5,7,57,7,,,,,,,,,,,,,,,,,,,AMNE08.jpg,AMSA09.jpg,AMNE20.jpg,AMSA17.jpg,AMNE08.jpg,MN,1,num_8,32,num_6,0.933419847628,,,2017_May_30_1052,60.022158505,FEMA4ImagesEEG,001,100525,
AFNE01.JPG,AFNE01.JPG,AFNE01.JPG,AFNE01.JPG,AFNE01.JPG,AFNE01.JPG,,,,,5,8,58,9,,,,,,,,,,,,,,,,,,,AMNE07.jpg,AMSA03.jpg,AMSA19.jpg,AMNE19.jpg,AMSA19.jpg,MS,2,num_2,32,num_4,0.650150058093,,,2017_May_30_1052,60.022158505,FEMA4ImagesEEG,001,100525,
AFNE01.JPG,AFNE01.JPG,AFNE01.JPG,AFNE01.JPG,AFNE01.JPG,AFNE01.JPG,,,,,5,9,59,2,,,,,,,,,,,,,,,,,,,AMNE06.jpg,AMSA18.jpg,AMNE03.jpg,AMSA17.jpg,AMNE06.jpg,MN,1,num_8,16,num_8,0.800144396955,,,2017_May_30_1052,60.022158505,FEMA4ImagesEEG,001,100525,
,,,,,,,,,,,,,,,,,,,,,,,,,,,,,,,,,,,,,,,,,,,space,28.1647143764,2017_May_30_1052,60.022158505,FEMA4ImagesEEG,001,100525,
AFNE01.JPG,AFNE01.JPG,AFNE01.JPG,AFNE01.JPG,AFNE01.JPG,AFNE01.JPG,,,,,,,,,0,0,0,0,,,,,,,,,,,,,,,AFNE20.jpg,AFSA03.jpg,AFSA10.jpg,AFNE18.jpg,AFSA10.jpg,FS,4,num_2,16,num_2,0.900174514623,,,2017_May_30_1052,60.022158505,FEMA4ImagesEEG,001,100525,
AFNE01.JPG,AFNE01.JPG,AFNE01.JPG,AFNE01.JPG,AFNE01.JPG,AFNE01.JPG,,,,,,,,,0,1,1,2,,,,,,,,,,,,,,,AFSA09.jpg,AFSA16.jpg,AFNE04.jpg,AFNE11.jpg,AFNE11.jpg,FN,3,num_4,16,num_4,0.80012226617,,,2017_May_30_1052,60.022158505,FEMA4ImagesEEG,001,100525,
AFNE01.JPG,AFNE01.JPG,AFNE01.JPG,AFNE01.JPG,AFNE01.JPG,AFNE01.JPG,,,,,,,,,0,2,2,7,,,,,,,,,,,,,,,AFNE17.jpg,AFNE15.jpg,AFSA11.jpg,AFSA14.jpg,AFNE17.jpg,FN,3,num_8,32,num_2,0.766747674905,,,2017_May_30_1052,60.022158505,FEMA4ImagesEEG,001,100525,
AFNE01.JPG,AFNE01.JPG,AFNE01.JPG,AFNE01.JPG,AFNE01.JPG,AFNE01.JPG,,,,,,,,,0,3,3,6,,,,,,,,,,,,,,,AFNE07.jpg,AFSA14.jpg,AFNE20.jpg,AFSA10.jpg,AFNE20.jpg,FN,3,num_2,32,num_4,0.366823497694,,,2017_May_30_1052,60.022158505,FEMA4ImagesEEG,001,100525,
AFNE01.JPG,AFNE01.JPG,AFNE01.JPG,AFNE01.JPG,AFNE01.JPG,AFNE01.JPG,,,,,,,,,0,4,4,1,,,,,,,,,,,,,,,AFNE08.jpg,AFSA02.jpg,AFNE15.jpg,AFSA03.jpg,AFNE08.jpg,FN,3,num_8,32,num_6,0.400180448312,,,2017_May_30_1052,60.022158505,FEMA4ImagesEEG,001,100525,
AFNE01.JPG,AFNE01.JPG,AFNE01.JPG,AFNE01.JPG,AFNE01.JPG,AFNE01.JPG,,,,,,,,,0,5,5,8,,,,,,,,,,,,,,,AFNE07.jpg,AFSA04.jpg,AFNE03.jpg,AFSA14.jpg,AFNE07.jpg,FN,3,num_8,32,num_2,0.733467060374,,,2017_May_30_1052,60.022158505,FEMA4ImagesEEG,001,100525,
AFNE01.JPG,AFNE01.JPG,AFNE01.JPG,AFNE01.JPG,AFNE01.JPG,AFNE01.JPG,,,,,,,,,0,6,6,5,,,,,,,,,,,,,,,AFNE04.jpg,AFSA14.jpg,AFNE05.jpg,AFSA17.jpg,AFNE05.jpg,FN,3,num_2,32,num_4,0.55015778821,,,2017_May_30_1052,60.022158505,FEMA4ImagesEEG,001,100525,
AFNE01.JPG,AFNE01.JPG,AFNE01.JPG,AFNE01.JPG,AFNE01.JPG,AFNE01.JPG,,,,,,,,,0,7,7,4,,,,,,,,,,,,,,,AFSA11.jpg,AFSA13.jpg,AFNE02.jpg,AFNE09.jpg,AFSA13.jpg,FS,4,num_6,16,num_6,0.500172718428,,,2017_May_30_1052,60.022158505,FEMA4ImagesEEG,001,100525,
AFNE01.JPG,AFNE01.JPG,AFNE01.JPG,AFNE01.JPG,AFNE01.JPG,AFNE01.JPG,,,,,,,,,0,8,8,9,,,,,,,,,,,,,,,AFNE08.jpg,AFSA14.jpg,AFNE14.jpg,AFSA06.jpg,AFNE14.jpg,FN,3,num_2,16,num_2,0.73346449458,,,2017_May_30_1052,60.022158505,FEMA4ImagesEEG,001,100525,
AFNE01.JPG,AFNE01.JPG,AFNE01.JPG,AFNE01.JPG,AFNE01.JPG,AFNE01.JPG,,,,,,,,,0,9,9,3,,,,,,,,,,,,,,,AFNE16.jpg,AFSA05.jpg,AFNE17.jpg,AFSA16.jpg,AFNE17.jpg,FN,3,num_2,32,num_6,0.583476249594,,,2017_May_30_1052,60.022158505,FEMA4ImagesEEG,001,100525,
AFNE01.JPG,AFNE01.JPG,AFNE01.JPG,AFNE01.JPG,AFNE01.JPG,AFNE01.JPG,,,,,,,,,1,0,10,0,,,,,,,,,,,,,,,AFSA08.jpg,AFSA07.jpg,AFNE13.jpg,AFNE10.jpg,AFNE10.jpg,FN,3,num_4,16,num_4,0.600098916097,,,2017_May_30_1052,60.022158505,FEMA4ImagesEEG,001,100525,
AFNE01.JPG,AFNE01.JPG,AFNE01.JPG,AFNE01.JPG,AFNE01.JPG,AFNE01.JPG,,,,,,,,,1,1,11,9,,,,,,,,,,,,,,,AFNE01.jpg,AFSA06.jpg,AFNE13.jpg,AFSA05.jpg,AFSA05.jpg,FS,4,num_4,32,num_6,0.400162166217,,,2017_May_30_1052,60.022158505,FEMA4ImagesEEG,001,100525,
AFNE01.JPG,AFNE01.JPG,AFNE01.JPG,AFNE01.JPG,AFNE01.JPG,AFNE01.JPG,,,,,,,,,1,2,12,3,,,,,,,,,,,,,,,AFSA09.jpg,AFNE01.jpg,AFSA08.jpg,AFNE10.jpg,AFNE10.jpg,FN,3,num_4,32,num_8,0.350227131974,,,2017_May_30_1052,60.022158505,FEMA4ImagesEEG,001,100525,
AFNE01.JPG,AFNE01.JPG,AFNE01.JPG,AFNE01.JPG,AFNE01.JPG,AFNE01.JPG,,,,,,,,,1,3,13,4,,,,,,,,,,,,,,,AFSA19.jpg,AFNE16.jpg,AFNE18.jpg,AFSA02.jpg,AFNE16.jpg,FN,3,num_6,16,num_6,0.733311822405,,,2017_May_30_1052,60.022158505,FEMA4ImagesEEG,001,100525,
AFNE01.JPG,AFNE01.JPG,AFNE01.JPG,AFNE01.JPG,AFNE01.JPG,AFNE01.JPG,,,,,,,,,1,4,14,2,,,,,,,,,,,,,,,AFSA18.jpg,AFNE06.jpg,AFNE14.jpg,AFSA13.jpg,AFSA13.jpg,FS,4,num_4,16,num_4,0.400509206578,,,2017_May_30_1052,60.022158505,FEMA4ImagesEEG,001,100525,
AFNE01.JPG,AFNE01.JPG,AFNE01.JPG,AFNE01.JPG,AFNE01.JPG,AFNE01.JPG,,,,,,,,,1,5,15,5,,,,,,,,,,,,,,,AFSA15.jpg,AFNE09.jpg,AFNE02.jpg,AFSA12.jpg,AFNE02.jpg,FN,3,num_2,32,num_8,0.783530390589,,,2017_May_30_1052,60.022158505,FEMA4ImagesEEG,001,100525,
AFNE01.JPG,AFNE01.JPG,AFNE01.JPG,AFNE01.JPG,AFNE01.JPG,AFNE01.JPG,,,,,,,,,1,6,16,6,,,,,,,,,,,,,,,AFNE05.jpg,AFNE03.jpg,AFSA01.jpg,AFSA03.jpg,AFSA03.jpg,FS,4,num_4,32,num_6,0.550174145726,,,2017_May_30_1052,60.022158505,FEMA4ImagesEEG,001,100525,
AFNE01.JPG,AFNE01.JPG,AFNE01.JPG,AFNE01.JPG,AFNE01.JPG,AFNE01.JPG,,,,,,,,,1,7,17,8,,,,,,,,,,,,,,,AFNE17.jpg,AFSA02.jpg,AFNE05.jpg,AFSA20.jpg,AFSA02.jpg,FS,4,num_6,32,num_8,0.633486336796,,,2017_May_30_1052,60.022158505,FEMA4ImagesEEG,001,100525,
AFNE01.JPG,AFNE01.JPG,AFNE01.JPG,AFNE01.JPG,AFNE01.JPG,AFNE01.JPG,,,,,,,,,1,8,18,7,,,,,,,,,,,,,,,AFSA02.jpg,AFNE09.jpg,AFNE08.jpg,AFSA14.jpg,AFNE09.jpg,FN,3,num_6,32,num_2,0.550155222183,,,2017_May_30_1052,60.022158505,FEMA4ImagesEEG,001,100525,
AFNE01.JPG,AFNE01.JPG,AFNE01.JPG,AFNE01.JPG,AFNE01.JPG,AFNE01.JPG,,,,,,,,,1,9,19,1,,,,,,,,,,,,,,,AFSA07.jpg,AFNE18.jpg,AFSA14.jpg,AFNE11.jpg,AFNE18.jpg,FN,3,num_6,16,num_6,0.683507650159,,,2017_May_30_1052,60.022158505,FEMA4ImagesEEG,001,100525,
AFNE01.JPG,AFNE01.JPG,AFNE01.JPG,AFNE01.JPG,AFNE01.JPG,AFNE01.JPG,,,,,,,,,2,0,20,1,,,,,,,,,,,,,,,AFSA07.jpg,AFNE04.jpg,AFSA05.jpg,AFNE14.jpg,AFSA05.jpg,FS,4,num_2,16,num_2,0.883511114167,,,2017_May_30_1052,60.022158505,FEMA4ImagesEEG,001,100525,
AFNE01.JPG,AFNE01.JPG,AFNE01.JPG,AFNE01.JPG,AFNE01.JPG,AFNE01.JPG,,,,,,,,,2,1,21,4,,,,,,,,,,,,,,,AFNE05.jpg,AFSA03.jpg,AFSA07.jpg,AFNE11.jpg,AFNE11.jpg,FN,3,num_4,32,num_6,0.650122474646,,,2017_May_30_1052,60.022158505,FEMA4ImagesEEG,001,100525,
AFNE01.JPG,AFNE01.JPG,AFNE01.JPG,AFNE01.JPG,AFNE01.JPG,AFNE01.JPG,,,,,,,,,2,2,22,6,,,,,,,,,,,,,,,AFSA03.jpg,AFSA07.jpg,AFNE06.jpg,AFNE16.jpg,AFSA03.jpg,FS,4,num_8,32,num_4,1.43343219603,,,2017_May_30_1052,60.022158505,FEMA4ImagesEEG,001,100525,
AFNE01.JPG,AFNE01.JPG,AFNE01.JPG,AFNE01.JPG,AFNE01.JPG,AFNE01.JPG,,,,,,,,,2,3,23,0,,,,,,,,,,,,,,,AFNE12.jpg,AFNE11.jpg,AFSA12.jpg,AFSA09.jpg,AFSA09.jpg,FS,4,num_4,32,num_6,0.650148133747,,,2017_May_30_1052,60.022158505,FEMA4ImagesEEG,001,100525,
AFNE01.JPG,AFNE01.JPG,AFNE01.JPG,AFNE01.JPG,AFNE01.JPG,AFNE01.JPG,,,,,,,,,2,4,24,8,,,,,,,,,,,,,,,AFNE08.jpg,AFNE02.jpg,AFSA01.jpg,AFSA12.jpg,AFSA01.jpg,FS,4,num_2,16,num_2,0.30019555497,,,2017_May_30_1052,60.022158505,FEMA4ImagesEEG,001,100525,
AFNE01.JPG,AFNE01.JPG,AFNE01.JPG,AFNE01.JPG,AFNE01.JPG,AFNE01.JPG,,,,,,,,,2,5,25,7,,,,,,,,,,,,,,,AFNE18.jpg,AFSA19.jpg,AFSA20.jpg,AFNE17.jpg,AFSA19.jpg,FS,4,num_6,16,num_6,0.533460709732,,,2017_May_30_1052,60.022158505,FEMA4ImagesEEG,001,100525,
AFNE01.JPG,AFNE01.JPG,AFNE01.JPG,AFNE01.JPG,AFNE01.JPG,AFNE01.JPG,,,,,,,,,2,6,26,9,,,,,,,,,,,,,,,AFSA14.jpg,AFNE04.jpg,AFNE01.jpg,AFSA01.jpg,AFSA01.jpg,FS,4,num_4,16,num_4,0.45015493338,,,2017_May_30_1052,60.022158505,FEMA4ImagesEEG,001,100525,
AFNE01.JPG,AFNE01.JPG,AFNE01.JPG,AFNE01.JPG,AFNE01.JPG,AFNE01.JPG,,,,,,,,,2,7,27,3,,,,,,,,,,,,,,,AFSA02.jpg,AFNE08.jpg,AFSA14.jpg,AFNE14.jpg,AFSA02.jpg,FS,4,num_8,32,num_6,0.716815527529,,,2017_May_30_1052,60.022158505,FEMA4ImagesEEG,001,100525,
AFNE01.JPG,AFNE01.JPG,AFNE01.JPG,AFNE01.JPG,AFNE01.JPG,AFNE01.JPG,,,,,,,,,2,8,28,2,,,,,,,,,,,,,,,AFNE17.jpg,AFSA14.jpg,AFNE16.jpg,AFSA17.jpg,AFSA17.jpg,FS,4,num_4,32,num_2,0.46679941006,,,2017_May_30_1052,60.022158505,FEMA4ImagesEEG,001,100525,
AFNE01.JPG,AFNE01.JPG,AFNE01.JPG,AFNE01.JPG,AFNE01.JPG,AFNE01.JPG,,,,,,,,,2,9,29,5,,,,,,,,,,,,,,,AFSA06.jpg,AFNE19.jpg,AFNE04.jpg,AFSA02.jpg,AFSA02.jpg,FS,4,num_4,32,num_6,0.283555568894,,,2017_May_30_1052,60.022158505,FEMA4ImagesEEG,001,100525,
AFNE01.JPG,AFNE01.JPG,AFNE01.JPG,AFNE01.JPG,AFNE01.JPG,AFNE01.JPG,,,,,,,,,3,0,30,7,,,,,,,,,,,,,,,AFNE04.jpg,AFSA01.jpg,AFSA15.jpg,AFNE09.jpg,AFSA01.jpg,FS,4,num_6,16,num_6,0.750109292101,,,2017_May_30_1052,60.022158505,FEMA4ImagesEEG,001,100525,
AFNE01.JPG,AFNE01.JPG,AFNE01.JPG,AFNE01.JPG,AFNE01.JPG,AFNE01.JPG,,,,,,,,,3,1,31,8,,,,,,,,,,,,,,,AFSA19.jpg,AFNE04.jpg,AFNE15.jpg,AFSA20.jpg,AFSA19.jpg,FS,4,num_8,32,num_4,0.833467348944,,,2017_May_30_1052,60.022158505,FEMA4ImagesEEG,001,100525,
AFNE01.JPG,AFNE01.JPG,AFNE01.JPG,AFNE01.JPG,AFNE01.JPG,AFNE01.JPG,,,,,,,,,3,2,32,4,,,,,,,,,,,,,,,AFNE16.jpg,AFNE19.jpg,AFSA12.jpg,AFSA20.jpg,AFNE16.jpg,FN,3,num_8,32,num_2,0.700177786173,,,2017_May_30_1052,60.022158505,FEMA4ImagesEEG,001,100525,
AFNE01.JPG,AFNE01.JPG,AFNE01.JPG,AFNE01.JPG,AFNE01.JPG,AFNE01.JPG,,,,,,,,,3,3,33,9,,,,,,,,,,,,,,,AFSA12.jpg,AFNE14.jpg,AFSA11.jpg,AFNE05.jpg,AFNE14.jpg,FN,3,num_6,32,num_8,1.15018453752,,,2017_May_30_1052,60.022158505,FEMA4ImagesEEG,001,100525,
AFNE01.JPG,AFNE01.JPG,AFNE01.JPG,AFNE01.JPG,AFNE01.JPG,AFNE01.JPG,,,,,,,,,3,4,34,3,,,,,,,,,,,,,,,AFSA01.jpg,AFNE13.jpg,AFSA17.jpg,AFNE11.jpg,AFNE11.jpg,FN,3,num_4,16,num_4,0.650213564746,,,2017_May_30_1052,60.022158505,FEMA4ImagesEEG,001,100525,
AFNE01.JPG,AFNE01.JPG,AFNE01.JPG,AFNE01.JPG,AFNE01.JPG,AFNE01.JPG,,,,,,,,,3,5,35,2,,,,,,,,,,,,,,,AFNE07.jpg,AFNE06.jpg,AFSA08.jpg,AFSA13.jpg,AFNE06.jpg,FN,3,num_6,32,num_8,0.83346061362,,,2017_May_30_1052,60.022158505,FEMA4ImagesEEG,001,100525,
AFNE01.JPG,AFNE01.JPG,AFNE01.JPG,AFNE01.JPG,AFNE01.JPG,AFNE01.JPG,,,,,,,,,3,6,36,5,,,,,,,,,,,,,,,AFNE17.jpg,AFNE01.jpg,AFSA15.jpg,AFSA14.jpg,AFSA15.jpg,FS,4,num_2,16,num_2,0.600191930775,,,2017_May_30_1052,60.022158505,FEMA4ImagesEEG,001,100525,
AFNE01.JPG,AFNE01.JPG,AFNE01.JPG,AFNE01.JPG,AFNE01.JPG,AFNE01.JPG,,,,,,,,,3,7,37,6,,,,,,,,,,,,,,,AFNE15.jpg,AFNE18.jpg,AFSA13.jpg,AFSA15.jpg,AFSA13.jpg,FS,4,num_2,16,num_2,0.950134245679,,,2017_May_30_1052,60.022158505,FEMA4ImagesEEG,001,100525,
AFNE01.JPG,AFNE01.JPG,AFNE01.JPG,AFNE01.JPG,AFNE01.JPG,AFNE01.JPG,,,,,,,,,3,8,38,1,,,,,,,,,,,,,,,AFSA03.jpg,AFSA19.jpg,AFNE20.jpg,AFNE18.jpg,AFNE18.jpg,FN,3,num_4,32,num_2,0.800145038404,,,2017_May_30_1052,60.022158505,FEMA4ImagesEEG,001,100525,
AFNE01.JPG,AFNE01.JPG,AFNE01.JPG,AFNE01.JPG,AFNE01.JPG,AFNE01.JPG,,,,,,,,,3,9,39,0,,,,,,,,,,,,,,,AFSA05.jpg,AFNE16.jpg,AFSA15.jpg,AFNE13.jpg,AFNE16.jpg,FN,3,num_6,32,num_2,0.666786837392,,,2017_May_30_1052,60.022158505,FEMA4ImagesEEG,001,100525,
AFNE01.JPG,AFNE01.JPG,AFNE01.JPG,AFNE01.JPG,AFNE01.JPG,AFNE01.JPG,,,,,,,,,4,0,40,8,,,,,,,,,,,,,,,AFSA10.jpg,AFNE13.jpg,AFNE16.jpg,AFSA07.jpg,AFSA10.jpg,FS,4,num_8,32,num_2,0.750134951435,,,2017_May_30_1052,60.022158505,FEMA4ImagesEEG,001,100525,
AFNE01.JPG,AFNE01.JPG,AFNE01.JPG,AFNE01.JPG,AFNE01.JPG,AFNE01.JPG,,,,,,,,,4,1,41,9,,,,,,,,,,,,,,,AFNE10.jpg,AFNE16.jpg,AFSA16.jpg,AFSA15.jpg,AFNE10.jpg,FN,3,num_8,32,num_4,0.700142183807,,,2017_May_30_1052,60.022158505,FEMA4ImagesEEG,001,100525,
AFNE01.JPG,AFNE01.JPG,AFNE01.JPG,AFNE01.JPG,AFNE01.JPG,AFNE01.JPG,,,,,,,,,4,2,42,7,,,,,,,,,,,,,,,AFSA01.jpg,AFSA14.jpg,AFNE03.jpg,AFNE14.jpg,AFNE03.jpg,FN,3,num_2,32,num_6,0.98341999203,,,2017_May_30_1052,60.022158505,FEMA4ImagesEEG,001,100525,
AFNE01.JPG,AFNE01.JPG,AFNE01.JPG,AFNE01.JPG,AFNE01.JPG,AFNE01.JPG,,,,,,,,,4,3,43,0,,,,,,,,,,,,,,,AFNE17.jpg,AFSA09.jpg,AFNE08.jpg,AFSA12.jpg,AFNE08.jpg,FN,3,num_2,32,num_6,0.933521521976,,,2017_May_30_1052,60.022158505,FEMA4ImagesEEG,001,100525,
AFNE01.JPG,AFNE01.JPG,AFNE01.JPG,AFNE01.JPG,AFNE01.JPG,AFNE01.JPG,,,,,,,,,4,4,44,4,,,,,,,,,,,,,,,AFNE20.jpg,AFSA10.jpg,AFNE14.jpg,AFSA13.jpg,AFSA13.jpg,FS,4,num_4,16,num_4,0.950136490865,,,2017_May_30_1052,60.022158505,FEMA4ImagesEEG,001,100525,
AFNE01.JPG,AFNE01.JPG,AFNE01.JPG,AFNE01.JPG,AFNE01.JPG,AFNE01.JPG,,,,,,,,,4,5,45,6,,,,,,,,,,,,,,,AFNE09.jpg,AFSA03.jpg,AFSA01.jpg,AFNE17.jpg,AFSA03.jpg,FS,4,num_6,16,num_6,0.783464318141,,,2017_May_30_1052,60.022158505,FEMA4ImagesEEG,001,100525,
AFNE01.JPG,AFNE01.JPG,AFNE01.JPG,AFNE01.JPG,AFNE01.JPG,AFNE01.JPG,,,,,,,,,4,6,46,1,,,,,,,,,,,,,,,AFSA03.jpg,AFSA12.jpg,AFNE17.jpg,AFNE05.jpg,AFSA12.jpg,FS,4,num_6,16,num_6,0.700135448482,,,2017_May_30_1052,60.022158505,FEMA4ImagesEEG,001,100525,
AFNE01.JPG,AFNE01.JPG,AFNE01.JPG,AFNE01.JPG,AFNE01.JPG,AFNE01.JPG,,,,,,,,,4,7,47,5,,,,,,,,,,,,,,,AFSA09.jpg,AFNE07.jpg,AFSA03.jpg,AFNE16.jpg,AFNE07.jpg,FN,3,num_6,16,num_6,0.616712922696,,,2017_May_30_1052,60.022158505,FEMA4ImagesEEG,001,100525,
AFNE01.JPG,AFNE01.JPG,AFNE01.JPG,AFNE01.JPG,AFNE01.JPG,AFNE01.JPG,,,,,,,,,4,8,48,2,,,,,,,,,,,,,,,AFNE04.jpg,AFSA07.jpg,AFNE20.jpg,AFSA09.jpg,AFNE04.jpg,FN,3,num_8,32,num_2,0.866786131635,,,2017_May_30_1052,60.022158505,FEMA4ImagesEEG,001,100525,
AFNE01.JPG,AFNE01.JPG,AFNE01.JPG,AFNE01.JPG,AFNE01.JPG,AFNE01.JPG,,,,,,,,,4,9,49,3,,,,,,,,,,,,,,,AFNE05.jpg,AFNE06.jpg,AFSA10.jpg,AFSA09.jpg,AFSA09.jpg,FS,4,num_4,16,num_4,0.750157723669,,,2017_May_30_1052,60.022158505,FEMA4ImagesEEG,001,100525,
AFNE01.JPG,AFNE01.JPG,AFNE01.JPG,AFNE01.JPG,AFNE01.JPG,AFNE01.JPG,,,,,,,,,5,0,50,6,,,,,,,,,,,,,,,AFSA10.jpg,AFSA19.jpg,AFNE11.jpg,AFNE01.jpg,AFNE01.jpg,FN,3,num_4,32,num_6,0.833487876691,,,2017_May_30_1052,60.022158505,FEMA4ImagesEEG,001,100525,
AFNE01.JPG,AFNE01.JPG,AFNE01.JPG,AFNE01.JPG,AFNE01.JPG,AFNE01.JPG,,,,,,,,,5,1,51,8,,,,,,,,,,,,,,,AFNE17.jpg,AFNE03.jpg,AFSA15.jpg,AFSA06.jpg,AFNE03.jpg,FN,3,num_6,16,num_6,0.466689717257,,,2017_May_30_1052,60.022158505,FEMA4ImagesEEG,001,100525,
AFNE01.JPG,AFNE01.JPG,AFNE01.JPG,AFNE01.JPG,AFNE01.JPG,AFNE01.JPG,,,,,,,,,5,2,52,0,,,,,,,,,,,,,,,AFSA01.jpg,AFSA16.jpg,AFNE12.jpg,AFNE02.jpg,AFSA01.jpg,FS,4,num_8,32,num_6,0.849815141642,,,2017_May_30_1052,60.022158505,FEMA4ImagesEEG,001,100525,
AFNE01.JPG,AFNE01.JPG,AFNE01.JPG,AFNE01.JPG,AFNE01.JPG,AFNE01.JPG,,,,,,,,,5,3,53,1,,,,,,,,,,,,,,,AFSA06.jpg,AFSA02.jpg,AFNE19.jpg,AFNE11.jpg,AFNE11.jpg,FN,3,num_4,16,num_4,0.133538457099,,,2017_May_30_1052,60.022158505,FEMA4ImagesEEG,001,100525,
AFNE01.JPG,AFNE01.JPG,AFNE01.JPG,AFNE01.JPG,AFNE01.JPG,AFNE01.JPG,,,,,,,,,5,4,54,7,,,,,,,,,,,,,,,AFNE09.jpg,AFNE17.jpg,AFSA15.jpg,AFSA10.jpg,AFNE17.jpg,FN,3,num_6,16,num_6,0.933449034812,,,2017_May_30_1052,60.022158505,FEMA4ImagesEEG,001,100525,
AFNE01.JPG,AFNE01.JPG,AFNE01.JPG,AFNE01.JPG,AFNE01.JPG,AFNE01.JPG,,,,,,,,,5,5,55,9,,,,,,,,,,,,,,,AFNE09.jpg,AFNE18.jpg,AFSA19.jpg,AFSA20.jpg,AFNE18.jpg,FN,3,num_6,32,num_2,0.883523302153,,,2017_May_30_1052,60.022158505,FEMA4ImagesEEG,001,100525,
AFNE01.JPG,AFNE01.JPG,AFNE01.JPG,AFNE01.JPG,AFNE01.JPG,AFNE01.JPG,,,,,,,,,5,6,56,4,,,,,,,,,,,,,,,AFNE07.jpg,AFSA05.jpg,AFSA02.jpg,AFNE10.jpg,AFNE07.jpg,FN,3,num_8,32,num_4,0.700167522533,,,2017_May_30_1052,60.022158505,FEMA4ImagesEEG,001,100525,
AFNE01.JPG,AFNE01.JPG,AFNE01.JPG,AFNE01.JPG,AFNE01.JPG,AFNE01.JPG,,,,,,,,,5,7,57,3,,,,,,,,,,,,,,,AFNE08.jpg,AFSA10.jpg,AFSA08.jpg,AFNE02.jpg,AFSA08.jpg,FS,4,num_2,32,num_6,0.366820290219,,,2017_May_30_1052,60.022158505,FEMA4ImagesEEG,001,100525,
AFNE01.JPG,AFNE01.JPG,AFNE01.JPG,AFNE01.JPG,AFNE01.JPG,AFNE01.JPG,,,,,,,,,5,8,58,2,,,,,,,,,,,,,,,AFNE19.jpg,AFNE13.jpg,AFSA10.jpg,AFSA09.jpg,AFSA09.jpg,FS,4,num_4,32,num_2,0.416739608394,,,2017_May_30_1052,60.022158505,FEMA4ImagesEEG,001,100525,
AFNE01.JPG,AFNE01.JPG,AFNE01.JPG,AFNE01.JPG,AFNE01.JPG,AFNE01.JPG,,,,,,,,,5,9,59,5,,,,,,,,,,,,,,,AFNE14.jpg,AFNE10.jpg,AFSA14.jpg,AFSA07.jpg,AFSA14.jpg,FS,4,num_2,32,num_6,0.416825245833,,,2017_May_30_1052,60.022158505,FEMA4ImagesEEG,001,100525,
,,,,,,,,,,,,,,,,,,,,,,,,,,,,,,,,,,,,,,,,,,,space,44.4967472162,2017_May_30_1052,60.022158505,FEMA4ImagesEEG,001,100525,
AFNE01.JPG,AFNE01.JPG,AFNE01.JPG,AFNE01.JPG,AFNE01.JPG,AFNE01.JPG,,,,,,,,,,,,,0,0,0,9,,,,,,,,,,,AMNE10.jpg,AMNE02.jpg,AMSA09.jpg,AMSA17.jpg,AMNE10.jpg,MN,1,num_8,32,num_2,0.566792963305,,,2017_May_30_1052,60.022158505,FEMA4ImagesEEG,001,100525,
AFNE01.JPG,AFNE01.JPG,AFNE01.JPG,AFNE01.JPG,AFNE01.JPG,AFNE01.JPG,,,,,,,,,,,,,0,1,1,4,,,,,,,,,,,AMNE03.jpg,AMSA10.jpg,AMSA19.jpg,AMNE13.jpg,AMSA19.jpg,MS,2,num_2,16,num_2,0.633539579809,,,2017_May_30_1052,60.022158505,FEMA4ImagesEEG,001,100525,
AFNE01.JPG,AFNE01.JPG,AFNE01.JPG,AFNE01.JPG,AFNE01.JPG,AFNE01.JPG,,,,,,,,,,,,,0,2,2,1,,,,,,,,,,,AMSA05.jpg,AMNE05.jpg,AMSA12.jpg,AMNE19.jpg,AMSA12.jpg,MS,2,num_2,32,num_6,0.500145134749,,,2017_May_30_1052,60.022158505,FEMA4ImagesEEG,001,100525,
AFNE01.JPG,AFNE01.JPG,AFNE01.JPG,AFNE01.JPG,AFNE01.JPG,AFNE01.JPG,,,,,,,,,,,,,0,3,3,3,,,,,,,,,,,AMNE08.jpg,AMSA06.jpg,AMNE10.jpg,AMSA13.jpg,AMNE10.jpg,MN,1,num_2,16,num_2,0.300184970722,,,2017_May_30_1052,60.022158505,FEMA4ImagesEEG,001,100525,
AFNE01.JPG,AFNE01.JPG,AFNE01.JPG,AFNE01.JPG,AFNE01.JPG,AFNE01.JPG,,,,,,,,,,,,,0,4,4,5,,,,,,,,,,,AMSA07.jpg,AMNE16.jpg,AMSA01.jpg,AMNE14.jpg,AMSA01.jpg,MS,2,num_2,32,num_6,0.533469369868,,,2017_May_30_1052,60.022158505,FEMA4ImagesEEG,001,100525,
AFNE01.JPG,AFNE01.JPG,AFNE01.JPG,AFNE01.JPG,AFNE01.JPG,AFNE01.JPG,,,,,,,,,,,,,0,5,5,2,,,,,,,,,,,AMSA06.jpg,AMNE08.jpg,AMNE03.jpg,AMSA19.jpg,AMNE08.jpg,MN,1,num_6,32,num_8,0.350167795084,,,2017_May_30_1052,60.022158505,FEMA4ImagesEEG,001,100525,
AFNE01.JPG,AFNE01.JPG,AFNE01.JPG,AFNE01.JPG,AFNE01.JPG,AFNE01.JPG,,,,,,,,,,,,,0,6,6,0,,,,,,,,,,,AMSA05.jpg,AMSA10.jpg,AMNE11.jpg,AMNE19.jpg,AMSA05.jpg,MS,2,num_8,32,num_6,0.76686249976,,,2017_May_30_1052,60.022158505,FEMA4ImagesEEG,001,100525,
AFNE01.JPG,AFNE01.JPG,AFNE01.JPG,AFNE01.JPG,AFNE01.JPG,AFNE01.JPG,,,,,,,,,,,,,0,7,7,6,,,,,,,,,,,AMNE02.jpg,AMSA08.jpg,AMNE13.jpg,AMSA12.jpg,AMSA08.jpg,MS,2,num_6,32,num_2,0.400163128274,,,2017_May_30_1052,60.022158505,FEMA4ImagesEEG,001,100525,
AFNE01.JPG,AFNE01.JPG,AFNE01.JPG,AFNE01.JPG,AFNE01.JPG,AFNE01.JPG,,,,,,,,,,,,,0,8,8,7,,,,,,,,,,,AMNE03.jpg,AMNE06.jpg,AMSA17.jpg,AMSA12.jpg,AMSA12.jpg,MS,2,num_4,16,num_4,0.750151950633,,,2017_May_30_1052,60.022158505,FEMA4ImagesEEG,001,100525,
AFNE01.JPG,AFNE01.JPG,AFNE01.JPG,AFNE01.JPG,AFNE01.JPG,AFNE01.JPG,,,,,,,,,,,,,0,9,9,8,,,,,,,,,,,AMNE14.jpg,AMSA09.jpg,AMSA07.jpg,AMNE08.jpg,AMSA07.jpg,MS,2,num_2,16,num_2,0.916738806525,,,2017_May_30_1052,60.022158505,FEMA4ImagesEEG,001,100525,
AFNE01.JPG,AFNE01.JPG,AFNE01.JPG,AFNE01.JPG,AFNE01.JPG,AFNE01.JPG,,,,,,,,,,,,,1,0,10,7,,,,,,,,,,,AMNE02.jpg,AMNE17.jpg,AMSA14.jpg,AMSA13.jpg,AMNE02.jpg,MN,1,num_8,32,num_6,0.466818012996,,,2017_May_30_1052,60.022158505,FEMA4ImagesEEG,001,100525,
AFNE01.JPG,AFNE01.JPG,AFNE01.JPG,AFNE01.JPG,AFNE01.JPG,AFNE01.JPG,,,,,,,,,,,,,1,1,11,4,,,,,,,,,,,AMSA10.jpg,AMNE20.jpg,AMSA08.jpg,AMNE08.jpg,AMSA10.jpg,MS,2,num_8,32,num_6,0.70010946854,,,2017_May_30_1052,60.022158505,FEMA4ImagesEEG,001,100525,
AFNE01.JPG,AFNE01.JPG,AFNE01.JPG,AFNE01.JPG,AFNE01.JPG,AFNE01.JPG,,,,,,,,,,,,,1,2,12,2,,,,,,,,,,,AMNE09.jpg,AMSA07.jpg,AMNE16.jpg,AMSA06.jpg,AMNE09.jpg,MN,1,num_8,16,num_8,1.43341551768,,,2017_May_30_1052,60.022158505,FEMA4ImagesEEG,001,100525,
AFNE01.JPG,AFNE01.JPG,AFNE01.JPG,AFNE01.JPG,AFNE01.JPG,AFNE01.JPG,,,,,,,,,,,,,1,3,13,1,,,,,,,,,,,AMNE05.jpg,AMSA09.jpg,AMNE01.jpg,AMSA02.jpg,AMNE05.jpg,MN,1,num_8,32,num_2,0.833469273755,,,2017_May_30_1052,60.022158505,FEMA4ImagesEEG,001,100525,
AFNE01.JPG,AFNE01.JPG,AFNE01.JPG,AFNE01.JPG,AFNE01.JPG,AFNE01.JPG,,,,,,,,,,,,,1,4,14,3,,,,,,,,,,,AMNE17.jpg,AMNE05.jpg,AMSA09.jpg,AMSA07.jpg,AMNE17.jpg,MN,1,num_8,32,num_6,0.766780711012,,,2017_May_30_1052,60.022158505,FEMA4ImagesEEG,001,100525,
AFNE01.JPG,AFNE01.JPG,AFNE01.JPG,AFNE01.JPG,AFNE01.JPG,AFNE01.JPG,,,,,,,,,,,,,1,5,15,6,,,,,,,,,,,AMNE17.jpg,AMSA11.jpg,AMNE20.jpg,AMSA01.jpg,AMSA11.jpg,MS,2,num_6,32,num_2,0.400205465965,,,2017_May_30_1052,60.022158505,FEMA4ImagesEEG,001,100525,
AFNE01.JPG,AFNE01.JPG,AFNE01.JPG,AFNE01.JPG,AFNE01.JPG,AFNE01.JPG,,,,,,,,,,,,,1,6,16,9,,,,,,,,,,,AMSA09.jpg,AMSA13.jpg,AMNE16.jpg,AMNE18.jpg,AMSA09.jpg,MS,2,num_8,16,num_8,0.383511915803,,,2017_May_30_1052,60.022158505,FEMA4ImagesEEG,001,100525,
AFNE01.JPG,AFNE01.JPG,AFNE01.JPG,AFNE01.JPG,AFNE01.JPG,AFNE01.JPG,,,,,,,,,,,,,1,7,17,5,,,,,,,,,,,AMSA16.jpg,AMNE02.jpg,AMNE10.jpg,AMSA05.jpg,AMNE02.jpg,MN,1,num_6,16,num_6,0.40020225849,,,2017_May_30_1052,60.022158505,FEMA4ImagesEEG,001,100525,
AFNE01.JPG,AFNE01.JPG,AFNE01.JPG,AFNE01.JPG,AFNE01.JPG,AFNE01.JPG,,,,,,,,,,,,,1,8,18,0,,,,,,,,,,,AMSA01.jpg,AMNE03.jpg,AMSA05.jpg,AMNE07.jpg,AMNE07.jpg,MN,1,num_4,16,num_4,0.75018498674,,,2017_May_30_1052,60.022158505,FEMA4ImagesEEG,001,100525,
AFNE01.JPG,AFNE01.JPG,AFNE01.JPG,AFNE01.JPG,AFNE01.JPG,AFNE01.JPG,,,,,,,,,,,,,1,9,19,8,,,,,,,,,,,AMNE14.jpg,AMSA03.jpg,AMSA07.jpg,AMNE15.jpg,AMNE15.jpg,MN,1,num_4,32,num_6,0.766797068762,,,2017_May_30_1052,60.022158505,FEMA4ImagesEEG,001,100525,
AFNE01.JPG,AFNE01.JPG,AFNE01.JPG,AFNE01.JPG,AFNE01.JPG,AFNE01.JPG,,,,,,,,,,,,,2,0,20,8,,,,,,,,,,,AMSA18.jpg,AMSA16.jpg,AMNE01.jpg,AMNE18.jpg,AMSA18.jpg,MS,2,num_8,32,num_6,0.616823578021,,,2017_May_30_1052,60.022158505,FEMA4ImagesEEG,001,100525,
AFNE01.JPG,AFNE01.JPG,AFNE01.JPG,AFNE01.JPG,AFNE01.JPG,AFNE01.JPG,,,,,,,,,,,,,2,1,21,4,,,,,,,,,,,AMNE12.jpg,AMSA14.jpg,AMNE15.jpg,AMSA18.jpg,AMNE15.jpg,MN,1,num_2,16,num_2,0.583465023665,,,2017_May_30_1052,60.022158505,FEMA4ImagesEEG,001,100525,
AFNE01.JPG,AFNE01.JPG,AFNE01.JPG,AFNE01.JPG,AFNE01.JPG,AFNE01.JPG,,,,,,,,,,,,,2,2,22,3,,,,,,,,,,,AMSA15.jpg,AMNE08.jpg,AMSA02.jpg,AMNE18.jpg,AMSA15.jpg,MS,2,num_8,32,num_6,0.783435130725,,,2017_May_30_1052,60.022158505,FEMA4ImagesEEG,001,100525,
AFNE01.JPG,AFNE01.JPG,AFNE01.JPG,AFNE01.JPG,AFNE01.JPG,AFNE01.JPG,,,,,,,,,,,,,2,3,23,6,,,,,,,,,,,AMSA14.jpg,AMSA18.jpg,AMNE03.jpg,AMNE13.jpg,AMSA18.jpg,MS,2,num_6,32,num_4,0.333532619756,,,2017_May_30_1052,60.022158505,FEMA4ImagesEEG,001,100525,
AFNE01.JPG,AFNE01.JPG,AFNE01.JPG,AFNE01.JPG,AFNE01.JPG,AFNE01.JPG,,,,,,,,,,,,,2,4,24,9,,,,,,,,,,,AMSA06.jpg,AMSA16.jpg,AMNE03.jpg,AMNE15.jpg,AMNE03.jpg,MN,1,num_2,32,num_6,0.5501616369,,,2017_May_30_1052,60.022158505,FEMA4ImagesEEG,001,100525,
AFNE01.JPG,AFNE01.JPG,AFNE01.JPG,AFNE01.JPG,AFNE01.JPG,AFNE01.JPG,,,,,,,,,,,,,2,5,25,1,,,,,,,,,,,AMNE04.jpg,AMSA14.jpg,AMSA12.jpg,AMNE03.jpg,AMSA14.jpg,MS,2,num_6,32,num_2,0.516782876104,,,2017_May_30_1052,60.022158505,FEMA4ImagesEEG,001,100525,
AFNE01.JPG,AFNE01.JPG,AFNE01.JPG,AFNE01.JPG,AFNE01.JPG,AFNE01.JPG,,,,,,,,,,,,,2,6,26,5,,,,,,,,,,,AMSA07.jpg,AMNE09.jpg,AMSA11.jpg,AMNE13.jpg,AMSA07.jpg,MS,2,num_8,32,num_6,0.550214559073,,,2017_May_30_1052,60.022158505,FEMA4ImagesEEG,001,100525,
AFNE01.JPG,AFNE01.JPG,AFNE01.JPG,AFNE01.JPG,AFNE01.JPG,AFNE01.JPG,,,,,,,,,,,,,2,7,27,2,,,,,,,,,,,AMSA19.jpg,AMSA04.jpg,AMNE10.jpg,AMNE19.jpg,AMSA04.jpg,MS,2,num_6,32,num_2,0.700520015555,,,2017_May_30_1052,60.022158505,FEMA4ImagesEEG,001,100525,
AFNE01.JPG,AFNE01.JPG,AFNE01.JPG,AFNE01.JPG,AFNE01.JPG,AFNE01.JPG,,,,,,,,,,,,,2,8,28,0,,,,,,,,,,,AMNE03.jpg,AMSA18.jpg,AMSA04.jpg,AMNE04.jpg,AMNE04.jpg,MN,1,num_4,32,num_2,0.400189108215,,,2017_May_30_1052,60.022158505,FEMA4ImagesEEG,001,100525,
AFNE01.JPG,AFNE01.JPG,AFNE01.JPG,AFNE01.JPG,AFNE01.JPG,AFNE01.JPG,,,,,,,,,,,,,2,9,29,7,,,,,,,,,,,AMNE04.jpg,AMSA18.jpg,AMSA15.jpg,AMNE19.jpg,AMSA15.jpg,MS,2,num_2,32,num_6,0.250153714791,,,2017_May_30_1052,60.022158505,FEMA4ImagesEEG,001,100525,
AFNE01.JPG,AFNE01.JPG,AFNE01.JPG,AFNE01.JPG,AFNE01.JPG,AFNE01.JPG,,,,,,,,,,,,,3,0,30,3,,,,,,,,,,,AMSA20.jpg,AMNE05.jpg,AMNE06.jpg,AMSA06.jpg,AMNE06.jpg,MN,1,num_2,32,num_4,0.383478238247,,,2017_May_30_1052,60.022158505,FEMA4ImagesEEG,001,100525,
AFNE01.JPG,AFNE01.JPG,AFNE01.JPG,AFNE01.JPG,AFNE01.JPG,AFNE01.JPG,,,,,,,,,,,,,3,1,31,7,,,,,,,,,,,AMNE09.jpg,AMSA15.jpg,AMNE05.jpg,AMSA19.jpg,AMNE09.jpg,MN,1,num_8,32,num_6,0.366799763171,,,2017_May_30_1052,60.022158505,FEMA4ImagesEEG,001,100525,
AFNE01.JPG,AFNE01.JPG,AFNE01.JPG,AFNE01.JPG,AFNE01.JPG,AFNE01.JPG,,,,,,,,,,,,,3,2,32,9,,,,,,,,,,,AMSA17.jpg,AMSA05.jpg,AMNE16.jpg,AMNE07.jpg,AMSA05.jpg,MS,2,num_6,32,num_2,0.350162342424,,,2017_May_30_1052,60.022158505,FEMA4ImagesEEG,001,100525,
AFNE01.JPG,AFNE01.JPG,AFNE01.JPG,AFNE01.JPG,AFNE01.JPG,AFNE01.JPG,,,,,,,,,,,,,3,3,33,4,,,,,,,,,,,AMNE10.jpg,AMSA20.jpg,AMNE16.jpg,AMSA17.jpg,AMSA17.jpg,MS,2,num_4,32,num_8,0.316926631611,,,2017_May_30_1052,60.022158505,FEMA4ImagesEEG,001,100525,
AFNE01.JPG,AFNE01.JPG,AFNE01.JPG,AFNE01.JPG,AFNE01.JPG,AFNE01.JPG,,,,,,,,,,,,,3,4,34,6,,,,,,,,,,,AMSA02.jpg,AMSA20.jpg,AMNE18.jpg,AMNE16.jpg,AMSA02.jpg,MS,2,num_8,32,num_2,0.416818189435,,,2017_May_30_1052,60.022158505,FEMA4ImagesEEG,001,100525,
AFNE01.JPG,AFNE01.JPG,AFNE01.JPG,AFNE01.JPG,AFNE01.JPG,AFNE01.JPG,,,,,,,,,,,,,3,5,35,8,,,,,,,,,,,AMNE19.jpg,AMSA12.jpg,AMNE03.jpg,AMSA17.jpg,AMNE03.jpg,MN,1,num_2,32,num_6,0.350141815143,,,2017_May_30_1052,60.022158505,FEMA4ImagesEEG,001,100525,
AFNE01.JPG,AFNE01.JPG,AFNE01.JPG,AFNE01.JPG,AFNE01.JPG,AFNE01.JPG,,,,,,,,,,,,,3,6,36,1,,,,,,,,,,,AMNE11.jpg,AMSA11.jpg,AMSA05.jpg,AMNE12.jpg,AMNE12.jpg,MN,1,num_4,16,num_4,0.333546090871,,,2017_May_30_1052,60.022158505,FEMA4ImagesEEG,001,100525,
AFNE01.JPG,AFNE01.JPG,AFNE01.JPG,AFNE01.JPG,AFNE01.JPG,AFNE01.JPG,,,,,,,,,,,,,3,7,37,0,,,,,,,,,,,AMNE20.jpg,AMSA20.jpg,AMNE19.jpg,AMSA09.jpg,AMSA20.jpg,MS,2,num_6,32,num_2,0.416818189668,,,2017_May_30_1052,60.022158505,FEMA4ImagesEEG,001,100525,
AFNE01.JPG,AFNE01.JPG,AFNE01.JPG,AFNE01.JPG,AFNE01.JPG,AFNE01.JPG,,,,,,,,,,,,,3,8,38,2,,,,,,,,,,,AMSA07.jpg,AMNE19.jpg,AMSA09.jpg,AMNE01.jpg,AMSA09.jpg,MS,2,num_2,16,num_2,0.616788937943,,,2017_May_30_1052,60.022158505,FEMA4ImagesEEG,001,100525,
AFNE01.JPG,AFNE01.JPG,AFNE01.JPG,AFNE01.JPG,AFNE01.JPG,AFNE01.JPG,,,,,,,,,,,,,3,9,39,5,,,,,,,,,,,AMSA08.jpg,AMNE02.jpg,AMSA11.jpg,AMNE17.jpg,AMSA11.jpg,MS,2,num_2,32,num_6,0.950104737654,,,2017_May_30_1052,60.022158505,FEMA4ImagesEEG,001,100525,
AFNE01.JPG,AFNE01.JPG,AFNE01.JPG,AFNE01.JPG,AFNE01.JPG,AFNE01.JPG,,,,,,,,,,,,,4,0,40,2,,,,,,,,,,,AMNE15.jpg,AMSA14.jpg,AMSA07.jpg,AMNE07.jpg,AMSA07.jpg,MS,2,num_2,16,num_2,0.71685145027,,,2017_May_30_1052,60.022158505,FEMA4ImagesEEG,001,100525,
AFNE01.JPG,AFNE01.JPG,AFNE01.JPG,AFNE01.JPG,AFNE01.JPG,AFNE01.JPG,,,,,,,,,,,,,4,1,41,9,,,,,,,,,,,AMSA15.jpg,AMNE01.jpg,AMSA01.jpg,AMNE18.jpg,AMSA15.jpg,MS,2,num_8,16,num_8,0.616793749155,,,2017_May_30_1052,60.022158505,FEMA4ImagesEEG,001,100525,
AFNE01.JPG,AFNE01.JPG,AFNE01.JPG,AFNE01.JPG,AFNE01.JPG,AFNE01.JPG,,,,,,,,,,,,,4,2,42,1,,,,,,,,,,,AMNE12.jpg,AMSA09.jpg,AMNE20.jpg,AMSA01.jpg,AMNE20.jpg,MN,1,num_2,16,num_2,0.716784736374,,,2017_May_30_1052,60.022158505,FEMA4ImagesEEG,001,100525,
AFNE01.JPG,AFNE01.JPG,AFNE01.JPG,AFNE01.JPG,AFNE01.JPG,AFNE01.JPG,,,,,,,,,,,,,4,3,43,0,,,,,,,,,,,AMNE13.jpg,AMSA07.jpg,AMNE11.jpg,AMSA11.jpg,AMSA11.jpg,MS,2,num_4,16,num_4,0.550165806431,,,2017_May_30_1052,60.022158505,FEMA4ImagesEEG,001,100525,
AFNE01.JPG,AFNE01.JPG,AFNE01.JPG,AFNE01.JPG,AFNE01.JPG,AFNE01.JPG,,,,,,,,,,,,,4,4,44,8,,,,,,,,,,,AMNE04.jpg,AMNE06.jpg,AMSA12.jpg,AMSA14.jpg,AMNE06.jpg,MN,1,num_6,16,num_6,0.300340529531,,,2017_May_30_1052,60.022158505,FEMA4ImagesEEG,001,100525,
AFNE01.JPG,AFNE01.JPG,AFNE01.JPG,AFNE01.JPG,AFNE01.JPG,AFNE01.JPG,,,,,,,,,,,,,4,5,45,6,,,,,,,,,,,AMSA08.jpg,AMSA03.jpg,AMNE04.jpg,AMNE10.jpg,AMNE04.jpg,MN,1,num_2,16,num_2,0.500151228858,,,2017_May_30_1052,60.022158505,FEMA4ImagesEEG,001,100525,
AFNE01.JPG,AFNE01.JPG,AFNE01.JPG,AFNE01.JPG,AFNE01.JPG,AFNE01.JPG,,,,,,,,,,,,,4,6,46,4,,,,,,,,,,,AMNE04.jpg,AMSA20.jpg,AMNE12.jpg,AMSA12.jpg,AMSA12.jpg,MS,2,num_4,32,num_2,0.716783774318,,,2017_May_30_1052,60.022158505,FEMA4ImagesEEG,001,100525,
AFNE01.JPG,AFNE01.JPG,AFNE01.JPG,AFNE01.JPG,AFNE01.JPG,AFNE01.JPG,,,,,,,,,,,,,4,7,47,3,,,,,,,,,,,AMSA17.jpg,AMNE17.jpg,AMNE11.jpg,AMSA11.jpg,AMNE11.jpg,MN,1,num_2,16,num_2,0.766780390404,,,2017_May_30_1052,60.022158505,FEMA4ImagesEEG,001,100525,
AFNE01.JPG,AFNE01.JPG,AFNE01.JPG,AFNE01.JPG,AFNE01.JPG,AFNE01.JPG,,,,,,,,,,,,,4,8,48,7,,,,,,,,,,,AMSA12.jpg,AMNE07.jpg,AMNE15.jpg,AMSA09.jpg,AMSA09.jpg,MS,2,num_4,32,num_2,0.266831227578,,,2017_May_30_1052,60.022158505,FEMA4ImagesEEG,001,100525,
AFNE01.JPG,AFNE01.JPG,AFNE01.JPG,AFNE01.JPG,AFNE01.JPG,AFNE01.JPG,,,,,,,,,,,,,4,9,49,5,,,,,,,,,,,AMNE08.jpg,AMSA10.jpg,AMNE18.jpg,AMSA19.jpg,AMSA10.jpg,MS,2,num_6,32,num_8,0.683545497479,,,2017_May_30_1052,60.022158505,FEMA4ImagesEEG,001,100525,
AFNE01.JPG,AFNE01.JPG,AFNE01.JPG,AFNE01.JPG,AFNE01.JPG,AFNE01.JPG,,,,,,,,,,,,,5,0,50,5,,,,,,,,,,,AMSA07.jpg,AMSA06.jpg,AMNE10.jpg,AMNE07.jpg,AMSA07.jpg,MS,2,num_8,16,num_8,0.550174145726,,,2017_May_30_1052,60.022158505,FEMA4ImagesEEG,001,100525,
AFNE01.JPG,AFNE01.JPG,AFNE01.JPG,AFNE01.JPG,AFNE01.JPG,AFNE01.JPG,,,,,,,,,,,,,5,1,51,1,,,,,,,,,,,AMSA14.jpg,AMSA19.jpg,AMNE15.jpg,AMNE05.jpg,AMSA14.jpg,MS,2,num_8,16,num_8,0.566835621838,,,2017_May_30_1052,60.022158505,FEMA4ImagesEEG,001,100525,
AFNE01.JPG,AFNE01.JPG,AFNE01.JPG,AFNE01.JPG,AFNE01.JPG,AFNE01.JPG,,,,,,,,,,,,,5,2,52,4,,,,,,,,,,,AMSA09.jpg,AMSA13.jpg,AMNE08.jpg,AMNE04.jpg,AMSA13.jpg,MS,2,num_6,32,num_8,0.833497819491,,,2017_May_30_1052,60.022158505,FEMA4ImagesEEG,001,100525,
AFNE01.JPG,AFNE01.JPG,AFNE01.JPG,AFNE01.JPG,AFNE01.JPG,AFNE01.JPG,,,,,,,,,,,,,5,3,53,8,,,,,,,,,,,AMNE05.jpg,AMSA20.jpg,AMNE20.jpg,AMSA18.jpg,AMNE20.jpg,MN,1,num_2,32,num_6,0.566774039762,,,2017_May_30_1052,60.022158505,FEMA4ImagesEEG,001,100525,
AFNE01.JPG,AFNE01.JPG,AFNE01.JPG,AFNE01.JPG,AFNE01.JPG,AFNE01.JPG,,,,,,,,,,,,,5,4,54,3,,,,,,,,,,,AMSA13.jpg,AMSA05.jpg,AMNE06.jpg,AMNE14.jpg,AMSA13.jpg,MS,2,num_8,32,num_4,0.41680632229,,,2017_May_30_1052,60.022158505,FEMA4ImagesEEG,001,100525,
AFNE01.JPG,AFNE01.JPG,AFNE01.JPG,AFNE01.JPG,AFNE01.JPG,AFNE01.JPG,,,,,,,,,,,,,5,5,55,7,,,,,,,,,,,AMSA13.jpg,AMNE05.jpg,AMNE18.jpg,AMSA01.jpg,AMNE05.jpg,MN,1,num_6,16,num_6,0.466831484344,,,2017_May_30_1052,60.022158505,FEMA4ImagesEEG,001,100525,
AFNE01.JPG,AFNE01.JPG,AFNE01.JPG,AFNE01.JPG,AFNE01.JPG,AFNE01.JPG,,,,,,,,,,,,,5,6,56,6,,,,,,,,,,,AMNE10.jpg,AMSA16.jpg,AMNE05.jpg,AMSA17.jpg,AMNE05.jpg,MN,1,num_2,16,num_2,0.533446597401,,,2017_May_30_1052,60.022158505,FEMA4ImagesEEG,001,100525,
AFNE01.JPG,AFNE01.JPG,AFNE01.JPG,AFNE01.JPG,AFNE01.JPG,AFNE01.JPG,,,,,,,,,,,,,5,7,57,9,,,,,,,,,,,AMSA19.jpg,AMNE03.jpg,AMSA02.jpg,AMNE15.jpg,AMNE15.jpg,MN,1,num_4,32,num_6,0.850131711923,,,2017_May_30_1052,60.022158505,FEMA4ImagesEEG,001,100525,
AFNE01.JPG,AFNE01.JPG,AFNE01.JPG,AFNE01.JPG,AFNE01.JPG,AFNE01.JPG,,,,,,,,,,,,,5,8,58,2,,,,,,,,,,,AMNE08.jpg,AMNE04.jpg,AMSA16.jpg,AMSA08.jpg,AMSA08.jpg,MS,2,num_4,32,num_8,0.35017004027,,,2017_May_30_1052,60.022158505,FEMA4ImagesEEG,001,100525,
AFNE01.JPG,AFNE01.JPG,AFNE01.JPG,AFNE01.JPG,AFNE01.JPG,AFNE01.JPG,,,,,,,,,,,,,5,9,59,0,,,,,,,,,,,AMNE20.jpg,AMNE01.jpg,AMSA12.jpg,AMSA20.jpg,AMNE01.jpg,MN,1,num_6,32,num_4,0.483489432139,,,2017_May_30_1052,60.022158505,FEMA4ImagesEEG,001,100525,
,,,,,,,,,,,,,,,,,,,,,,,,,,,,,,,,,,,,,,,,,,,space,23.9316249872,2017_May_30_1052,60.022158505,FEMA4ImagesEEG,001,100525,
AFNE01.JPG,AFNE01.JPG,AFNE01.JPG,AFNE01.JPG,AFNE01.JPG,AFNE01.JPG,,,,,,,,,,,,,,,,,0,0,0,8,,,,,,,AFSA04.jpg,AFNE20.jpg,AFSA10.jpg,AFNE08.jpg,AFNE20.jpg,FN,3,num_6,16,num_6,0.683477500454,,,2017_May_30_1052,60.022158505,FEMA4ImagesEEG,001,100525,
AFNE01.JPG,AFNE01.JPG,AFNE01.JPG,AFNE01.JPG,AFNE01.JPG,AFNE01.JPG,,,,,,,,,,,,,,,,,0,1,1,9,,,,,,,AFNE18.jpg,AFNE01.jpg,AFSA05.jpg,AFSA09.jpg,AFSA09.jpg,FS,4,num_4,32,num_2,0.7168299607,,,2017_May_30_1052,60.022158505,FEMA4ImagesEEG,001,100525,
AFNE01.JPG,AFNE01.JPG,AFNE01.JPG,AFNE01.JPG,AFNE01.JPG,AFNE01.JPG,,,,,,,,,,,,,,,,,0,2,2,5,,,,,,,AFNE02.jpg,AFSA04.jpg,AFNE20.jpg,AFSA18.jpg,AFSA18.jpg,FS,4,num_4,16,num_4,0.650170585606,,,2017_May_30_1052,60.022158505,FEMA4ImagesEEG,001,100525,
AFNE01.JPG,AFNE01.JPG,AFNE01.JPG,AFNE01.JPG,AFNE01.JPG,AFNE01.JPG,,,,,,,,,,,,,,,,,0,3,3,4,,,,,,,AFSA20.jpg,AFNE09.jpg,AFSA16.jpg,AFNE20.jpg,AFNE20.jpg,FN,3,num_4,32,num_8,0.850184633862,,,2017_May_30_1052,60.022158505,FEMA4ImagesEEG,001,100525,
AFNE01.JPG,AFNE01.JPG,AFNE01.JPG,AFNE01.JPG,AFNE01.JPG,AFNE01.JPG,,,,,,,,,,,,,,,,,0,4,4,7,,,,,,,AFSA01.jpg,AFSA15.jpg,AFNE02.jpg,AFNE03.jpg,AFSA01.jpg,FS,4,num_8,32,num_6,0.350230018608,,,2017_May_30_1052,60.022158505,FEMA4ImagesEEG,001,100525,
AFNE01.JPG,AFNE01.JPG,AFNE01.JPG,AFNE01.JPG,AFNE01.JPG,AFNE01.JPG,,,,,,,,,,,,,,,,,0,5,5,1,,,,,,,AFNE13.jpg,AFSA08.jpg,AFNE19.jpg,AFSA13.jpg,AFSA13.jpg,FS,4,num_4,32,num_2,0.266834114213,,,2017_May_30_1052,60.022158505,FEMA4ImagesEEG,001,100525,
AFNE01.JPG,AFNE01.JPG,AFNE01.JPG,AFNE01.JPG,AFNE01.JPG,AFNE01.JPG,,,,,,,,,,,,,,,,,0,6,6,3,,,,,,,AFSA12.jpg,AFNE14.jpg,AFNE11.jpg,AFSA19.jpg,AFNE11.jpg,FN,3,num_2,32,num_4,0.650203621713,,,2017_May_30_1052,60.022158505,FEMA4ImagesEEG,001,100525,
AFNE01.JPG,AFNE01.JPG,AFNE01.JPG,AFNE01.JPG,AFNE01.JPG,AFNE01.JPG,,,,,,,,,,,,,,,,,0,7,7,2,,,,,,,AFSA05.jpg,AFNE10.jpg,AFSA18.jpg,AFNE12.jpg,AFNE10.jpg,FN,3,num_6,32,num_4,0.616790541681,,,2017_May_30_1052,60.022158505,FEMA4ImagesEEG,001,100525,
AFNE01.JPG,AFNE01.JPG,AFNE01.JPG,AFNE01.JPG,AFNE01.JPG,AFNE01.JPG,,,,,,,,,,,,,,,,,0,8,8,6,,,,,,,AFNE13.jpg,AFSA13.jpg,AFSA17.jpg,AFNE03.jpg,AFSA17.jpg,FS,4,num_2,32,num_4,0.650131134549,,,2017_May_30_1052,60.022158505,FEMA4ImagesEEG,001,100525,
AFNE01.JPG,AFNE01.JPG,AFNE01.JPG,AFNE01.JPG,AFNE01.JPG,AFNE01.JPG,,,,,,,,,,,,,,,,,0,9,9,0,,,,,,,AFSA05.jpg,AFSA20.jpg,AFNE20.jpg,AFNE11.jpg,AFSA05.jpg,FS,4,num_8,32,num_6,0.666676823283,,,2017_May_30_1052,60.022158505,FEMA4ImagesEEG,001,100525,
AFNE01.JPG,AFNE01.JPG,AFNE01.JPG,AFNE01.JPG,AFNE01.JPG,AFNE01.JPG,,,,,,,,,,,,,,,,,1,0,10,9,,,,,,,AFNE05.jpg,AFSA16.jpg,AFSA12.jpg,AFNE02.jpg,AFNE02.jpg,FN,3,num_4,32,num_2,0.600391751621,,,2017_May_30_1052,60.022158505,FEMA4ImagesEEG,001,100525,
AFNE01.JPG,AFNE01.JPG,AFNE01.JPG,AFNE01.JPG,AFNE01.JPG,AFNE01.JPG,,,,,,,,,,,,,,,,,1,1,11,2,,,,,,,AFNE17.jpg,AFSA17.jpg,AFSA05.jpg,AFNE04.jpg,AFSA17.jpg,FS,4,num_6,16,num_6,0.733477003407,,,2017_May_30_1052,60.022158505,FEMA4ImagesEEG,001,100525,
AFNE01.JPG,AFNE01.JPG,AFNE01.JPG,AFNE01.JPG,AFNE01.JPG,AFNE01.JPG,,,,,,,,,,,,,,,,,1,2,12,1,,,,,,,AFNE12.jpg,AFSA14.jpg,AFNE19.jpg,AFSA02.jpg,AFSA02.jpg,FS,4,num_4,32,num_6,0.550201729406,,,2017_May_30_1052,60.022158505,FEMA4ImagesEEG,001,100525,
AFNE01.JPG,AFNE01.JPG,AFNE01.JPG,AFNE01.JPG,AFNE01.JPG,AFNE01.JPG,,,,,,,,,,,,,,,,,1,3,13,7,,,,,,,AFSA17.jpg,AFSA09.jpg,AFNE04.jpg,AFNE15.jpg,AFSA09.jpg,FS,4,num_6,16,num_6,0.650265203789,,,2017_May_30_1052,60.022158505,FEMA4ImagesEEG,001,100525,
AFNE01.JPG,AFNE01.JPG,AFNE01.JPG,AFNE01.JPG,AFNE01.JPG,AFNE01.JPG,,,,,,,,,,,,,,,,,1,4,14,4,,,,,,,AFNE08.jpg,AFNE12.jpg,AFSA08.jpg,AFSA11.jpg,AFNE12.jpg,FN,3,num_6,32,num_2,0.366833119886,,,2017_May_30_1052,60.022158505,FEMA4ImagesEEG,001,100525,
AFNE01.JPG,AFNE01.JPG,AFNE01.JPG,AFNE01.JPG,AFNE01.JPG,AFNE01.JPG,,,,,,,,,,,,,,,,,1,5,15,8,,,,,,,AFNE16.jpg,AFSA18.jpg,AFNE18.jpg,AFSA09.jpg,AFSA18.jpg,FS,4,num_6,32,num_2,0.683448954718,,,2017_May_30_1052,60.022158505,FEMA4ImagesEEG,001,100525,
AFNE01.JPG,AFNE01.JPG,AFNE01.JPG,AFNE01.JPG,AFNE01.JPG,AFNE01.JPG,,,,,,,,,,,,,,,,,1,6,16,3,,,,,,,AFSA02.jpg,AFNE07.jpg,AFNE13.jpg,AFSA01.jpg,AFSA02.jpg,FS,4,num_8,32,num_6,0.333602861734,,,2017_May_30_1052,60.022158505,FEMA4ImagesEEG,001,100525,
AFNE01.JPG,AFNE01.JPG,AFNE01.JPG,AFNE01.JPG,AFNE01.JPG,AFNE01.JPG,,,,,,,,,,,,,,,,,1,7,17,0,,,,,,,AFSA02.jpg,AFNE08.jpg,AFSA05.jpg,AFNE04.jpg,AFSA02.jpg,FS,4,num_8,32,num_4,0.450149480719,,,2017_May_30_1052,60.022158505,FEMA4ImagesEEG,001,100525,
AFNE01.JPG,AFNE01.JPG,AFNE01.JPG,AFNE01.JPG,AFNE01.JPG,AFNE01.JPG,,,,,,,,,,,,,,,,,1,8,18,6,,,,,,,AFNE18.jpg,AFSA14.jpg,AFNE16.jpg,AFSA12.jpg,AFNE16.jpg,FN,3,num_2,16,num_2,0.300180800958,,,2017_May_30_1052,60.022158505,FEMA4ImagesEEG,001,100525,
AFNE01.JPG,AFNE01.JPG,AFNE01.JPG,AFNE01.JPG,AFNE01.JPG,AFNE01.JPG,,,,,,,,,,,,,,,,,1,9,19,5,,,,,,,AFNE07.jpg,AFSA15.jpg,AFSA20.jpg,AFNE16.jpg,AFSA20.jpg,FS,4,num_2,32,num_6,0.300184008665,,,2017_May_30_1052,60.022158505,FEMA4ImagesEEG,001,100525,
AFNE01.JPG,AFNE01.JPG,AFNE01.JPG,AFNE01.JPG,AFNE01.JPG,AFNE01.JPG,,,,,,,,,,,,,,,,,2,0,20,2,,,,,,,AFNE14.jpg,AFSA01.jpg,AFSA16.jpg,AFNE06.jpg,AFSA16.jpg,FS,4,num_2,32,num_4,0.666637051618,,,2017_May_30_1052,60.022158505,FEMA4ImagesEEG,001,100525,
AFNE01.JPG,AFNE01.JPG,AFNE01.JPG,AFNE01.JPG,AFNE01.JPG,AFNE01.JPG,,,,,,,,,,,,,,,,,2,1,21,9,,,,,,,AFNE20.jpg,AFNE02.jpg,AFSA15.jpg,AFSA06.jpg,AFNE02.jpg,FN,3,num_6,32,num_2,0.616790862521,,,2017_May_30_1052,60.022158505,FEMA4ImagesEEG,001,100525,
AFNE01.JPG,AFNE01.JPG,AFNE01.JPG,AFNE01.JPG,AFNE01.JPG,AFNE01.JPG,,,,,,,,,,,,,,,,,2,2,22,3,,,,,,,AFSA10.jpg,AFNE05.jpg,AFSA06.jpg,AFNE18.jpg,AFSA10.jpg,FS,4,num_8,32,num_4,0.666773045436,,,2017_May_30_1052,60.022158505,FEMA4ImagesEEG,001,100525,
AFNE01.JPG,AFNE01.JPG,AFNE01.JPG,AFNE01.JPG,AFNE01.JPG,AFNE01.JPG,,,,,,,,,,,,,,,,,2,3,23,5,,,,,,,AFSA02.jpg,AFSA18.jpg,AFNE01.jpg,AFNE05.jpg,AFNE05.jpg,FN,3,num_4,32,num_8,0.533385656774,,,2017_May_30_1052,60.022158505,FEMA4ImagesEEG,001,100525,
AFNE01.JPG,AFNE01.JPG,AFNE01.JPG,AFNE01.JPG,AFNE01.JPG,AFNE01.JPG,,,,,,,,,,,,,,,,,2,4,24,8,,,,,,,AFNE11.jpg,AFSA11.jpg,AFSA16.jpg,AFNE17.jpg,AFNE11.jpg,FN,3,num_8,32,num_6,0.833124798955,,,2017_May_30_1052,60.022158505,FEMA4ImagesEEG,001,100525,
AFNE01.JPG,AFNE01.JPG,AFNE01.JPG,AFNE01.JPG,AFNE01.JPG,AFNE01.JPG,,,,,,,,,,,,,,,,,2,5,25,1,,,,,,,AFNE13.jpg,AFNE01.jpg,AFSA16.jpg,AFSA06.jpg,AFSA06.jpg,FS,4,num_4,32,num_8,0.566813169979,,,2017_May_30_1052,60.022158505,FEMA4ImagesEEG,001,100525,
AFNE01.JPG,AFNE01.JPG,AFNE01.JPG,AFNE01.JPG,AFNE01.JPG,AFNE01.JPG,,,,,,,,,,,,,,,,,2,6,26,4,,,,,,,AFNE07.jpg,AFNE18.jpg,AFSA12.jpg,AFSA13.jpg,AFSA12.jpg,FS,4,num_2,16,num_2,0.383577026194,,,2017_May_30_1052,60.022158505,FEMA4ImagesEEG,001,100525,
AFNE01.JPG,AFNE01.JPG,AFNE01.JPG,AFNE01.JPG,AFNE01.JPG,AFNE01.JPG,,,,,,,,,,,,,,,,,2,7,27,7,,,,,,,AFNE17.jpg,AFSA01.jpg,AFSA13.jpg,AFNE02.jpg,AFSA01.jpg,FS,4,num_6,16,num_6,0.383525066311,,,2017_May_30_1052,60.022158505,FEMA4ImagesEEG,001,100525,
AFNE01.JPG,AFNE01.JPG,AFNE01.JPG,AFNE01.JPG,AFNE01.JPG,AFNE01.JPG,,,,,,,,,,,,,,,,,2,8,28,6,,,,,,,AFSA13.jpg,AFNE04.jpg,AFNE02.jpg,AFSA16.jpg,AFNE04.jpg,FN,3,num_6,16,num_6,0.400060170796,,,2017_May_30_1052,60.022158505,FEMA4ImagesEEG,001,100525,
AFNE01.JPG,AFNE01.JPG,AFNE01.JPG,AFNE01.JPG,AFNE01.JPG,AFNE01.JPG,,,,,,,,,,,,,,,,,2,9,29,0,,,,,,,AFNE20.jpg,AFNE07.jpg,AFSA13.jpg,AFSA16.jpg,AFNE20.jpg,FN,3,num_8,32,num_2,0.400130733615,,,2017_May_30_1052,60.022158505,FEMA4ImagesEEG,001,100525,
AFNE01.JPG,AFNE01.JPG,AFNE01.JPG,AFNE01.JPG,AFNE01.JPG,AFNE01.JPG,,,,,,,,,,,,,,,,,3,0,30,8,,,,,,,AFNE05.jpg,AFSA12.jpg,AFNE09.jpg,AFSA13.jpg,AFNE09.jpg,FN,3,num_2,32,num_6,0.366912342841,,,2017_May_30_1052,60.022158505,FEMA4ImagesEEG,001,100525,
AFNE01.JPG,AFNE01.JPG,AFNE01.JPG,AFNE01.JPG,AFNE01.JPG,AFNE01.JPG,,,,,,,,,,,,,,,,,3,1,31,3,,,,,,,AFNE04.jpg,AFSA12.jpg,AFSA08.jpg,AFNE10.jpg,AFNE04.jpg,FN,3,num_8,32,num_4,0.350167474244,,,2017_May_30_1052,60.022158505,FEMA4ImagesEEG,001,100525,
AFNE01.JPG,AFNE01.JPG,AFNE01.JPG,AFNE01.JPG,AFNE01.JPG,AFNE01.JPG,,,,,,,,,,,,,,,,,3,2,32,4,,,,,,,AFSA17.jpg,AFSA20.jpg,AFNE10.jpg,AFNE01.jpg,AFNE10.jpg,FN,3,num_2,16,num_2,0.350200831192,,,2017_May_30_1052,60.022158505,FEMA4ImagesEEG,001,100525,
AFNE01.JPG,AFNE01.JPG,AFNE01.JPG,AFNE01.JPG,AFNE01.JPG,AFNE01.JPG,,,,,,,,,,,,,,,,,3,3,33,6,,,,,,,AFNE08.jpg,AFSA17.jpg,AFSA06.jpg,AFNE14.jpg,AFNE08.jpg,FN,3,num_8,32,num_4,0.36679431051,,,2017_May_30_1052,60.022158505,FEMA4ImagesEEG,001,100525,
AFNE01.JPG,AFNE01.JPG,AFNE01.JPG,AFNE01.JPG,AFNE01.JPG,AFNE01.JPG,,,,,,,,,,,,,,,,,3,4,34,1,,,,,,,AFSA11.jpg,AFSA14.jpg,AFNE12.jpg,AFNE03.jpg,AFSA11.jpg,FS,4,num_8,32,num_6,0.650151341222,,,2017_May_30_1052,60.022158505,FEMA4ImagesEEG,001,100525,
AFNE01.JPG,AFNE01.JPG,AFNE01.JPG,AFNE01.JPG,AFNE01.JPG,AFNE01.JPG,,,,,,,,,,,,,,,,,3,5,35,9,,,,,,,AFNE01.jpg,AFNE05.jpg,AFSA12.jpg,AFSA13.jpg,AFNE01.jpg,FN,3,num_8,32,num_4,0.366871608654,,,2017_May_30_1052,60.022158505,FEMA4ImagesEEG,001,100525,
AFNE01.JPG,AFNE01.JPG,AFNE01.JPG,AFNE01.JPG,AFNE01.JPG,AFNE01.JPG,,,,,,,,,,,,,,,,,3,6,36,5,,,,,,,AFSA15.jpg,AFNE09.jpg,AFSA01.jpg,AFNE12.jpg,AFSA01.jpg,FS,4,num_2,16,num_2,0.433508211514,,,2017_May_30_1052,60.022158505,FEMA4ImagesEEG,001,100525,
AFNE01.JPG,AFNE01.JPG,AFNE01.JPG,AFNE01.JPG,AFNE01.JPG,AFNE01.JPG,,,,,,,,,,,,,,,,,3,7,37,2,,,,,,,AFSA20.jpg,AFNE17.jpg,AFSA13.jpg,AFNE03.jpg,AFSA20.jpg,FS,4,num_8,16,num_8,0.600175252184,,,2017_May_30_1052,60.022158505,FEMA4ImagesEEG,001,100525,
AFNE01.JPG,AFNE01.JPG,AFNE01.JPG,AFNE01.JPG,AFNE01.JPG,AFNE01.JPG,,,,,,,,,,,,,,,,,3,8,38,0,,,,,,,AFNE03.jpg,AFSA12.jpg,AFSA03.jpg,AFNE09.jpg,AFNE03.jpg,FN,3,num_8,32,num_2,0.466858105501,,,2017_May_30_1052,60.022158505,FEMA4ImagesEEG,001,100525,
AFNE01.JPG,AFNE01.JPG,AFNE01.JPG,AFNE01.JPG,AFNE01.JPG,AFNE01.JPG,,,,,,,,,,,,,,,,,3,9,39,7,,,,,,,AFSA09.jpg,AFSA16.jpg,AFNE15.jpg,AFNE19.jpg,AFNE15.jpg,FN,3,num_2,16,num_2,1.20010128967,,,2017_May_30_1052,60.022158505,FEMA4ImagesEEG,001,100525,
AFNE01.JPG,AFNE01.JPG,AFNE01.JPG,AFNE01.JPG,AFNE01.JPG,AFNE01.JPG,,,,,,,,,,,,,,,,,4,0,40,1,,,,,,,AFNE08.jpg,AFSA05.jpg,AFSA03.jpg,AFNE18.jpg,AFNE08.jpg,FN,3,num_8,16,num_8,0.683496103622,,,2017_May_30_1052,60.022158505,FEMA4ImagesEEG,001,100525,
AFNE01.JPG,AFNE01.JPG,AFNE01.JPG,AFNE01.JPG,AFNE01.JPG,AFNE01.JPG,,,,,,,,,,,,,,,,,4,1,41,7,,,,,,,AFNE14.jpg,AFSA10.jpg,AFSA08.jpg,AFNE08.jpg,AFNE14.jpg,FN,3,num_8,32,num_6,0.600149272243,,,2017_May_30_1052,60.022158505,FEMA4ImagesEEG,001,100525,
AFNE01.JPG,AFNE01.JPG,AFNE01.JPG,AFNE01.JPG,AFNE01.JPG,AFNE01.JPG,,,,,,,,,,,,,,,,,4,2,42,5,,,,,,,AFSA01.jpg,AFNE03.jpg,AFSA19.jpg,AFNE20.jpg,AFSA19.jpg,FS,4,num_2,32,num_4,0.650289580226,,,2017_May_30_1052,60.022158505,FEMA4ImagesEEG,001,100525,
AFNE01.JPG,AFNE01.JPG,AFNE01.JPG,AFNE01.JPG,AFNE01.JPG,AFNE01.JPG,,,,,,,,,,,,,,,,,4,3,43,8,,,,,,,AFNE19.jpg,AFSA14.jpg,AFSA07.jpg,AFNE05.jpg,AFNE05.jpg,FN,3,num_4,32,num_2,0.683438691078,,,2017_May_30_1052,60.022158505,FEMA4ImagesEEG,001,100525,
AFNE01.JPG,AFNE01.JPG,AFNE01.JPG,AFNE01.JPG,AFNE01.JPG,AFNE01.JPG,,,,,,,,,,,,,,,,,4,4,44,3,,,,,,,AFSA13.jpg,AFNE02.jpg,AFNE19.jpg,AFSA17.jpg,AFNE02.jpg,FN,3,num_6,32,num_4,0.233523350442,,,2017_May_30_1052,60.022158505,FEMA4ImagesEEG,001,100525,
AFNE01.JPG,AFNE01.JPG,AFNE01.JPG,AFNE01.JPG,AFNE01.JPG,AFNE01.JPG,,,,,,,,,,,,,,,,,4,5,45,2,,,,,,,AFNE06.jpg,AFSA12.jpg,AFNE14.jpg,AFSA02.jpg,AFNE14.jpg,FN,3,num_2,32,num_4,0.466804542113,,,2017_May_30_1052,60.022158505,FEMA4ImagesEEG,001,100525,
AFNE01.JPG,AFNE01.JPG,AFNE01.JPG,AFNE01.JPG,AFNE01.JPG,AFNE01.JPG,,,,,,,,,,,,,,,,,4,6,46,6,,,,,,,AFNE19.jpg,AFSA17.jpg,AFSA08.jpg,AFNE20.jpg,AFSA08.jpg,FS,4,num_2,16,num_2,0.316828805953,,,2017_May_30_1052,60.022158505,FEMA4ImagesEEG,001,100525,
AFNE01.JPG,AFNE01.JPG,AFNE01.JPG,AFNE01.JPG,AFNE01.JPG,AFNE01.JPG,,,,,,,,,,,,,,,,,4,7,47,4,,,,,,,AFNE15.jpg,AFSA13.jpg,AFNE19.jpg,AFSA15.jpg,AFSA13.jpg,FS,4,num_6,16,num_6,0.716788585298,,,2017_May_30_1052,60.022158505,FEMA4ImagesEEG,001,100525,
AFNE01.JPG,AFNE01.JPG,AFNE01.JPG,AFNE01.JPG,AFNE01.JPG,AFNE01.JPG,,,,,,,,,,,,,,,,,4,8,48,0,,,,,,,AFSA04.jpg,AFNE17.jpg,AFSA16.jpg,AFNE09.jpg,AFNE17.jpg,FN,3,num_6,32,num_2,0.500210244907,,,2017_May_30_1052,60.022158505,FEMA4ImagesEEG,001,100525,
AFNE01.JPG,AFNE01.JPG,AFNE01.JPG,AFNE01.JPG,AFNE01.JPG,AFNE01.JPG,,,,,,,,,,,,,,,,,4,9,49,9,,,,,,,AFSA09.jpg,AFNE11.jpg,AFNE12.jpg,AFSA17.jpg,AFNE12.jpg,FN,3,num_2,32,num_4,0.266857848968,,,2017_May_30_1052,60.022158505,FEMA4ImagesEEG,001,100525,
AFNE01.JPG,AFNE01.JPG,AFNE01.JPG,AFNE01.JPG,AFNE01.JPG,AFNE01.JPG,,,,,,,,,,,,,,,,,5,0,50,5,,,,,,,AFSA20.jpg,AFNE01.jpg,AFNE07.jpg,AFSA07.jpg,AFSA07.jpg,FS,4,num_4,32,num_6,0.383515764959,,,2017_May_30_1052,60.022158505,FEMA4ImagesEEG,001,100525,
AFNE01.JPG,AFNE01.JPG,AFNE01.JPG,AFNE01.JPG,AFNE01.JPG,AFNE01.JPG,,,,,,,,,,,,,,,,,5,1,51,2,,,,,,,AFSA15.jpg,AFSA03.jpg,AFNE14.jpg,AFNE01.jpg,AFNE14.jpg,FN,3,num_2,16,num_2,0.600135480752,,,2017_May_30_1052,60.022158505,FEMA4ImagesEEG,001,100525,
AFNE01.JPG,AFNE01.JPG,AFNE01.JPG,AFNE01.JPG,AFNE01.JPG,AFNE01.JPG,,,,,,,,,,,,,,,,,5,2,52,0,,,,,,,AFNE18.jpg,AFSA08.jpg,AFNE13.jpg,AFSA05.jpg,AFSA08.jpg,FS,4,num_6,16,num_6,0.500242639566,,,2017_May_30_1052,60.022158505,FEMA4ImagesEEG,001,100525,
AFNE01.JPG,AFNE01.JPG,AFNE01.JPG,AFNE01.JPG,AFNE01.JPG,AFNE01.JPG,,,,,,,,,,,,,,,,,5,3,53,8,,,,,,,AFSA20.jpg,AFNE13.jpg,AFSA03.jpg,AFNE14.jpg,AFSA03.jpg,FS,4,num_2,16,num_2,0.400194881484,,,2017_May_30_1052,60.022158505,FEMA4ImagesEEG,001,100525,
AFNE01.JPG,AFNE01.JPG,AFNE01.JPG,AFNE01.JPG,AFNE01.JPG,AFNE01.JPG,,,,,,,,,,,,,,,,,5,4,54,3,,,,,,,AFSA11.jpg,AFNE18.jpg,AFSA17.jpg,AFNE08.jpg,AFNE18.jpg,FN,3,num_6,16,num_6,0.73349207826,,,2017_May_30_1052,60.022158505,FEMA4ImagesEEG,001,100525,
AFNE01.JPG,AFNE01.JPG,AFNE01.JPG,AFNE01.JPG,AFNE01.JPG,AFNE01.JPG,,,,,,,,,,,,,,,,,5,5,55,9,,,,,,,AFSA13.jpg,AFNE16.jpg,AFSA09.jpg,AFNE04.jpg,AFNE04.jpg,FN,3,num_4,16,num_4,0.450218760641,,,2017_May_30_1052,60.022158505,FEMA4ImagesEEG,001,100525,
AFNE01.JPG,AFNE01.JPG,AFNE01.JPG,AFNE01.JPG,AFNE01.JPG,AFNE01.JPG,,,,,,,,,,,,,,,,,5,6,56,6,,,,,,,AFSA18.jpg,AFNE09.jpg,AFSA10.jpg,AFNE20.jpg,AFSA10.jpg,FS,4,num_2,16,num_2,0.366812592605,,,2017_May_30_1052,60.022158505,FEMA4ImagesEEG,001,100525,
AFNE01.JPG,AFNE01.JPG,AFNE01.JPG,AFNE01.JPG,AFNE01.JPG,AFNE01.JPG,,,,,,,,,,,,,,,,,5,7,57,4,,,,,,,AFSA02.jpg,AFNE19.jpg,AFSA19.jpg,AFNE08.jpg,AFSA19.jpg,FS,4,num_2,32,num_6,0.400167939486,,,2017_May_30_1052,60.022158505,FEMA4ImagesEEG,001,100525,
AFNE01.JPG,AFNE01.JPG,AFNE01.JPG,AFNE01.JPG,AFNE01.JPG,AFNE01.JPG,,,,,,,,,,,,,,,,,5,8,58,7,,,,,,,AFNE13.jpg,AFSA11.jpg,AFNE03.jpg,AFSA12.jpg,AFNE13.jpg,FN,3,num_8,32,num_4,0.30020196992,,,2017_May_30_1052,60.022158505,FEMA4ImagesEEG,001,100525,
AFNE01.JPG,AFNE01.JPG,AFNE01.JPG,AFNE01.JPG,AFNE01.JPG,AFNE01.JPG,,,,,,,,,,,,,,,,,5,9,59,1,,,,,,,AFSA07.jpg,AFSA10.jpg,AFNE16.jpg,AFNE04.jpg,AFNE16.jpg,FN,3,num_2,32,num_6,0.350183190545,,,2017_May_30_1052,60.022158505,FEMA4ImagesEEG,001,100525,
,,,,,,,,,,,,,,,,,,,,,,,,,,,,,,,,,,,,,,,,,,,space,35.3975025907,2017_May_30_1052,60.022158505,FEMA4ImagesEEG,001,100525,
AFNE01.JPG,AFNE01.JPG,AFNE01.JPG,AFNE01.JPG,AFNE01.JPG,AFNE01.JPG,,,,,,,,,,,,,,,,,,,,,0,0,0,6,,,AMNE18.jpg,AMNE07.jpg,AMSA14.jpg,AMSA01.jpg,AMNE07.jpg,MN,1,num_6,16,num_6,0.750140403863,,,2017_May_30_1052,60.022158505,FEMA4ImagesEEG,001,100525,
AFNE01.JPG,AFNE01.JPG,AFNE01.JPG,AFNE01.JPG,AFNE01.JPG,AFNE01.JPG,,,,,,,,,,,,,,,,,,,,,0,1,1,3,,,AMNE12.jpg,AMSA16.jpg,AMSA11.jpg,AMNE05.jpg,AMSA16.jpg,MS,2,num_6,32,num_2,0.400118866237,,,2017_May_30_1052,60.022158505,FEMA4ImagesEEG,001,100525,
AFNE01.JPG,AFNE01.JPG,AFNE01.JPG,AFNE01.JPG,AFNE01.JPG,AFNE01.JPG,,,,,,,,,,,,,,,,,,,,,0,2,2,4,,,AMSA07.jpg,AMSA12.jpg,AMNE07.jpg,AMNE16.jpg,AMSA12.jpg,MS,2,num_6,32,num_4,0.650113173062,,,2017_May_30_1052,60.022158505,FEMA4ImagesEEG,001,100525,
AFNE01.JPG,AFNE01.JPG,AFNE01.JPG,AFNE01.JPG,AFNE01.JPG,AFNE01.JPG,,,,,,,,,,,,,,,,,,,,,0,3,3,9,,,AMSA02.jpg,AMSA03.jpg,AMNE02.jpg,AMNE14.jpg,AMNE14.jpg,MN,1,num_4,32,num_6,0.300075598527,,,2017_May_30_1052,60.022158505,FEMA4ImagesEEG,001,100525,
AFNE01.JPG,AFNE01.JPG,AFNE01.JPG,AFNE01.JPG,AFNE01.JPG,AFNE01.JPG,,,,,,,,,,,,,,,,,,,,,0,4,4,2,,,AMNE08.jpg,AMNE06.jpg,AMSA05.jpg,AMSA02.jpg,AMNE06.jpg,MN,1,num_6,32,num_2,0.300200045574,,,2017_May_30_1052,60.022158505,FEMA4ImagesEEG,001,100525,
AFNE01.JPG,AFNE01.JPG,AFNE01.JPG,AFNE01.JPG,AFNE01.JPG,AFNE01.JPG,,,,,,,,,,,,,,,,,,,,,0,5,5,5,,,AMSA14.jpg,AMNE10.jpg,AMNE20.jpg,AMSA05.jpg,AMNE20.jpg,MN,1,num_2,32,num_8,0.266823529731,,,2017_May_30_1052,60.022158505,FEMA4ImagesEEG,001,100525,
AFNE01.JPG,AFNE01.JPG,AFNE01.JPG,AFNE01.JPG,AFNE01.JPG,AFNE01.JPG,,,,,,,,,,,,,,,,,,,,,0,6,6,0,,,AMSA07.jpg,AMSA20.jpg,AMNE05.jpg,AMNE02.jpg,AMNE02.jpg,MN,1,num_4,32,num_6,0.25018001534,,,2017_May_30_1052,60.022158505,FEMA4ImagesEEG,001,100525,
AFNE01.JPG,AFNE01.JPG,AFNE01.JPG,AFNE01.JPG,AFNE01.JPG,AFNE01.JPG,,,,,,,,,,,,,,,,,,,,,0,7,7,8,,,AMNE02.jpg,AMSA08.jpg,AMSA20.jpg,AMNE03.jpg,AMSA20.jpg,MS,2,num_2,16,num_2,0.316798335873,,,2017_May_30_1052,60.022158505,FEMA4ImagesEEG,001,100525,
AFNE01.JPG,AFNE01.JPG,AFNE01.JPG,AFNE01.JPG,AFNE01.JPG,AFNE01.JPG,,,,,,,,,,,,,,,,,,,,,0,8,8,7,,,AMSA16.jpg,AMSA15.jpg,AMNE08.jpg,AMNE09.jpg,AMNE08.jpg,MN,1,num_2,32,num_4,0.333524601068,,,2017_May_30_1052,60.022158505,FEMA4ImagesEEG,001,100525,
AFNE01.JPG,AFNE01.JPG,AFNE01.JPG,AFNE01.JPG,AFNE01.JPG,AFNE01.JPG,,,,,,,,,,,,,,,,,,,,,0,9,9,1,,,AMSA16.jpg,AMSA08.jpg,AMNE17.jpg,AMNE03.jpg,AMNE03.jpg,MN,1,num_4,32,num_2,0.516812063521,,,2017_May_30_1052,60.022158505,FEMA4ImagesEEG,001,100525,
AFNE01.JPG,AFNE01.JPG,AFNE01.JPG,AFNE01.JPG,AFNE01.JPG,AFNE01.JPG,,,,,,,,,,,,,,,,,,,,,1,0,10,8,,,AMSA04.jpg,AMSA13.jpg,AMNE05.jpg,AMNE02.jpg,AMNE02.jpg,MN,1,num_4,32,num_6,0.566849413561,,,2017_May_30_1052,60.022158505,FEMA4ImagesEEG,001,100525,
AFNE01.JPG,AFNE01.JPG,AFNE01.JPG,AFNE01.JPG,AFNE01.JPG,AFNE01.JPG,,,,,,,,,,,,,,,,,,,,,1,1,11,2,,,AMSA06.jpg,AMNE05.jpg,AMSA11.jpg,AMNE12.jpg,AMSA06.jpg,MS,2,num_8,32,num_2,0.65012632357,,,2017_May_30_1052,60.022158505,FEMA4ImagesEEG,001,100525,
AFNE01.JPG,AFNE01.JPG,AFNE01.JPG,AFNE01.JPG,AFNE01.JPG,AFNE01.JPG,,,,,,,,,,,,,,,,,,,,,1,2,12,1,,,AMSA12.jpg,AMSA03.jpg,AMNE13.jpg,AMNE06.jpg,AMSA03.jpg,MS,2,num_6,16,num_6,0.433450478129,,,2017_May_30_1052,60.022158505,FEMA4ImagesEEG,001,100525,
AFNE01.JPG,AFNE01.JPG,AFNE01.JPG,AFNE01.JPG,AFNE01.JPG,AFNE01.JPG,,,,,,,,,,,,,,,,,,,,,1,3,13,5,,,AMSA19.jpg,AMSA10.jpg,AMNE13.jpg,AMNE17.jpg,AMNE17.jpg,MN,1,num_4,16,num_4,0.683476538397,,,2017_May_30_1052,60.022158505,FEMA4ImagesEEG,001,100525,
AFNE01.JPG,AFNE01.JPG,AFNE01.JPG,AFNE01.JPG,AFNE01.JPG,AFNE01.JPG,,,,,,,,,,,,,,,,,,,,,1,4,14,0,,,AMSA18.jpg,AMNE11.jpg,AMSA04.jpg,AMNE02.jpg,AMNE11.jpg,MN,1,num_6,32,num_8,0.333501187386,,,2017_May_30_1052,60.022158505,FEMA4ImagesEEG,001,100525,
AFNE01.JPG,AFNE01.JPG,AFNE01.JPG,AFNE01.JPG,AFNE01.JPG,AFNE01.JPG,,,,,,,,,,,,,,,,,,,,,1,5,15,9,,,AMNE17.jpg,AMSA17.jpg,AMSA04.jpg,AMNE10.jpg,AMSA04.jpg,MS,2,num_2,32,num_6,0.316861842293,,,2017_May_30_1052,60.022158505,FEMA4ImagesEEG,001,100525,
AFNE01.JPG,AFNE01.JPG,AFNE01.JPG,AFNE01.JPG,AFNE01.JPG,AFNE01.JPG,,,,,,,,,,,,,,,,,,,,,1,6,16,3,,,AMSA06.jpg,AMSA03.jpg,AMNE10.jpg,AMNE19.jpg,AMNE10.jpg,MN,1,num_2,16,num_2,0.333508884767,,,2017_May_30_1052,60.022158505,FEMA4ImagesEEG,001,100525,
AFNE01.JPG,AFNE01.JPG,AFNE01.JPG,AFNE01.JPG,AFNE01.JPG,AFNE01.JPG,,,,,,,,,,,,,,,,,,,,,1,7,17,7,,,AMNE16.jpg,AMSA18.jpg,AMSA10.jpg,AMNE09.jpg,AMSA18.jpg,MS,2,num_6,32,num_4,0.316862163134,,,2017_May_30_1052,60.022158505,FEMA4ImagesEEG,001,100525,
AFNE01.JPG,AFNE01.JPG,AFNE01.JPG,AFNE01.JPG,AFNE01.JPG,AFNE01.JPG,,,,,,,,,,,,,,,,,,,,,1,8,18,4,,,AMSA04.jpg,AMNE04.jpg,AMSA20.jpg,AMNE01.jpg,AMSA04.jpg,MS,2,num_8,32,num_2,0.283510344336,,,2017_May_30_1052,60.022158505,FEMA4ImagesEEG,001,100525,
AFNE01.JPG,AFNE01.JPG,AFNE01.JPG,AFNE01.JPG,AFNE01.JPG,AFNE01.JPG,,,,,,,,,,,,,,,,,,,,,1,9,19,6,,,AMNE15.jpg,AMNE18.jpg,AMSA12.jpg,AMSA04.jpg,AMSA04.jpg,MS,2,num_4,32,num_8,0.500210565748,,,2017_May_30_1052,60.022158505,FEMA4ImagesEEG,001,100525,
AFNE01.JPG,AFNE01.JPG,AFNE01.JPG,AFNE01.JPG,AFNE01.JPG,AFNE01.JPG,,,,,,,,,,,,,,,,,,,,,2,0,20,5,,,AMSA01.jpg,AMNE17.jpg,AMNE06.jpg,AMSA17.jpg,AMSA01.jpg,MS,2,num_8,32,num_2,0.433568189852,,,2017_May_30_1052,60.022158505,FEMA4ImagesEEG,001,100525,
AFNE01.JPG,AFNE01.JPG,AFNE01.JPG,AFNE01.JPG,AFNE01.JPG,AFNE01.JPG,,,,,,,,,,,,,,,,,,,,,2,1,21,6,,,AMNE05.jpg,AMSA10.jpg,AMSA06.jpg,AMNE03.jpg,AMSA06.jpg,MS,2,num_2,32,num_4,0.366888928693,,,2017_May_30_1052,60.022158505,FEMA4ImagesEEG,001,100525,
AFNE01.JPG,AFNE01.JPG,AFNE01.JPG,AFNE01.JPG,AFNE01.JPG,AFNE01.JPG,,,,,,,,,,,,,,,,,,,,,2,2,22,9,,,AMNE17.jpg,AMNE05.jpg,AMSA13.jpg,AMSA05.jpg,AMNE17.jpg,MN,1,num_8,32,num_2,0.450177705847,,,2017_May_30_1052,60.022158505,FEMA4ImagesEEG,001,100525,
AFNE01.JPG,AFNE01.JPG,AFNE01.JPG,AFNE01.JPG,AFNE01.JPG,AFNE01.JPG,,,,,,,,,,,,,,,,,,,,,2,3,23,4,,,AMSA12.jpg,AMNE15.jpg,AMSA07.jpg,AMNE07.jpg,AMNE15.jpg,MN,1,num_6,16,num_6,0.566805151524,,,2017_May_30_1052,60.022158505,FEMA4ImagesEEG,001,100525,
AFNE01.JPG,AFNE01.JPG,AFNE01.JPG,AFNE01.JPG,AFNE01.JPG,AFNE01.JPG,,,,,,,,,,,,,,,,,,,,,2,4,24,8,,,AMNE17.jpg,AMSA15.jpg,AMNE03.jpg,AMSA06.jpg,AMNE17.jpg,MN,1,num_8,16,num_8,0.683454086538,,,2017_May_30_1052,60.022158505,FEMA4ImagesEEG,001,100525,
AFNE01.JPG,AFNE01.JPG,AFNE01.JPG,AFNE01.JPG,AFNE01.JPG,AFNE01.JPG,,,,,,,,,,,,,,,,,,,,,2,5,25,2,,,AMNE02.jpg,AMSA04.jpg,AMSA10.jpg,AMNE05.jpg,AMNE05.jpg,MN,1,num_4,16,num_4,0.566841395106,,,2017_May_30_1052,60.022158505,FEMA4ImagesEEG,001,100525,
AFNE01.JPG,AFNE01.JPG,AFNE01.JPG,AFNE01.JPG,AFNE01.JPG,AFNE01.JPG,,,,,,,,,,,,,,,,,,,,,2,6,26,3,,,AMNE19.jpg,AMSA01.jpg,AMNE04.jpg,AMSA09.jpg,AMNE19.jpg,MN,1,num_8,16,num_8,0.516865306301,,,2017_May_30_1052,60.022158505,FEMA4ImagesEEG,001,100525,
AFNE01.JPG,AFNE01.JPG,AFNE01.JPG,AFNE01.JPG,AFNE01.JPG,AFNE01.JPG,,,,,,,,,,,,,,,,,,,,,2,7,27,0,,,AMNE02.jpg,AMSA13.jpg,AMSA15.jpg,AMNE11.jpg,AMNE02.jpg,MN,1,num_8,32,num_6,0.600044390419,,,2017_May_30_1052,60.022158505,FEMA4ImagesEEG,001,100525,
AFNE01.JPG,AFNE01.JPG,AFNE01.JPG,AFNE01.JPG,AFNE01.JPG,AFNE01.JPG,,,,,,,,,,,,,,,,,,,,,2,8,28,1,,,AMNE16.jpg,AMSA13.jpg,AMNE13.jpg,AMSA05.jpg,AMNE16.jpg,MN,1,num_8,32,num_2,0.483511883998,,,2017_May_30_1052,60.022158505,FEMA4ImagesEEG,001,100525,
AFNE01.JPG,AFNE01.JPG,AFNE01.JPG,AFNE01.JPG,AFNE01.JPG,AFNE01.JPG,,,,,,,,,,,,,,,,,,,,,2,9,29,7,,,AMNE14.jpg,AMSA06.jpg,AMNE03.jpg,AMSA04.jpg,AMSA06.jpg,MS,2,num_6,32,num_2,0.416814020136,,,2017_May_30_1052,60.022158505,FEMA4ImagesEEG,001,100525,
AFNE01.JPG,AFNE01.JPG,AFNE01.JPG,AFNE01.JPG,AFNE01.JPG,AFNE01.JPG,,,,,,,,,,,,,,,,,,,,,3,0,30,5,,,AMNE02.jpg,AMSA14.jpg,AMSA13.jpg,AMNE07.jpg,AMNE07.jpg,MN,1,num_4,32,num_6,0.433461704059,,,2017_May_30_1052,60.022158505,FEMA4ImagesEEG,001,100525,
AFNE01.JPG,AFNE01.JPG,AFNE01.JPG,AFNE01.JPG,AFNE01.JPG,AFNE01.JPG,,,,,,,,,,,,,,,,,,,,,3,1,31,0,,,AMNE15.jpg,AMSA07.jpg,AMNE18.jpg,AMSA17.jpg,AMSA07.jpg,MS,2,num_6,32,num_4,0.400489641586,,,2017_May_30_1052,60.022158505,FEMA4ImagesEEG,001,100525,
AFNE01.JPG,AFNE01.JPG,AFNE01.JPG,AFNE01.JPG,AFNE01.JPG,AFNE01.JPG,,,,,,,,,,,,,,,,,,,,,3,2,32,1,,,AMNE09.jpg,AMSA15.jpg,AMNE07.jpg,AMSA14.jpg,AMNE09.jpg,MN,1,num_8,32,num_4,0.300238534342,,,2017_May_30_1052,60.022158505,FEMA4ImagesEEG,001,100525,
AFNE01.JPG,AFNE01.JPG,AFNE01.JPG,AFNE01.JPG,AFNE01.JPG,AFNE01.JPG,,,,,,,,,,,,,,,,,,,,,3,3,33,2,,,AMNE06.jpg,AMSA10.jpg,AMSA13.jpg,AMNE16.jpg,AMSA10.jpg,MS,2,num_6,16,num_6,0.350216868334,,,2017_May_30_1052,60.022158505,FEMA4ImagesEEG,001,100525,
AFNE01.JPG,AFNE01.JPG,AFNE01.JPG,AFNE01.JPG,AFNE01.JPG,AFNE01.JPG,,,,,,,,,,,,,,,,,,,,,3,4,34,6,,,AMSA16.jpg,AMNE12.jpg,AMNE08.jpg,AMSA12.jpg,AMNE12.jpg,MN,1,num_6,32,num_2,0.266800436424,,,2017_May_30_1052,60.022158505,FEMA4ImagesEEG,001,100525,
AFNE01.JPG,AFNE01.JPG,AFNE01.JPG,AFNE01.JPG,AFNE01.JPG,AFNE01.JPG,,,,,,,,,,,,,,,,,,,,,3,5,35,8,,,AMNE10.jpg,AMSA16.jpg,AMSA11.jpg,AMNE20.jpg,AMSA16.jpg,MS,2,num_6,32,num_4,0.316843880806,,,2017_May_30_1052,60.022158505,FEMA4ImagesEEG,001,100525,
AFNE01.JPG,AFNE01.JPG,AFNE01.JPG,AFNE01.JPG,AFNE01.JPG,AFNE01.JPG,,,,,,,,,,,,,,,,,,,,,3,6,36,9,,,AMSA14.jpg,AMNE18.jpg,AMNE16.jpg,AMSA19.jpg,AMNE16.jpg,MN,1,num_2,32,num_4,0.283558134688,,,2017_May_30_1052,60.022158505,FEMA4ImagesEEG,001,100525,
AFNE01.JPG,AFNE01.JPG,AFNE01.JPG,AFNE01.JPG,AFNE01.JPG,AFNE01.JPG,,,,,,,,,,,,,,,,,,,,,3,7,37,4,,,AMNE13.jpg,AMNE06.jpg,AMSA05.jpg,AMSA14.jpg,AMNE13.jpg,MN,1,num_8,32,num_4,0.283527022926,,,2017_May_30_1052,60.022158505,FEMA4ImagesEEG,001,100525,
AFNE01.JPG,AFNE01.JPG,AFNE01.JPG,AFNE01.JPG,AFNE01.JPG,AFNE01.JPG,,,,,,,,,,,,,,,,,,,,,3,8,38,7,,,AMSA19.jpg,AMSA09.jpg,AMNE20.jpg,AMNE02.jpg,AMSA09.jpg,MS,2,num_6,16,num_6,0.433547983179,,,2017_May_30_1052,60.022158505,FEMA4ImagesEEG,001,100525,
AFNE01.JPG,AFNE01.JPG,AFNE01.JPG,AFNE01.JPG,AFNE01.JPG,AFNE01.JPG,,,,,,,,,,,,,,,,,,,,,3,9,39,3,,,AMSA18.jpg,AMNE04.jpg,AMNE15.jpg,AMSA17.jpg,AMNE04.jpg,MN,1,num_6,32,num_2,0.333543845685,,,2017_May_30_1052,60.022158505,FEMA4ImagesEEG,001,100525,
AFNE01.JPG,AFNE01.JPG,AFNE01.JPG,AFNE01.JPG,AFNE01.JPG,AFNE01.JPG,,,,,,,,,,,,,,,,,,,,,4,0,40,1,,,AMNE16.jpg,AMSA05.jpg,AMSA03.jpg,AMNE12.jpg,AMNE12.jpg,MN,1,num_4,16,num_4,0.500163416844,,,2017_May_30_1052,60.022158505,FEMA4ImagesEEG,001,100525,
