IPosition2,IPosition3,IPosition1,IPosition6,IPosition4,IPosition5,TrialsF1.thisRepN,TrialsF1.thisTrialN,TrialsF1.thisN,TrialsF1.thisIndex,TrialsM1.thisRepN,TrialsM1.thisTrialN,TrialsM1.thisN,TrialsM1.thisIndex,TrialsF2.thisRepN,TrialsF2.thisTrialN,TrialsF2.thisN,TrialsF2.thisIndex,TrialsM2.thisRepN,TrialsM2.thisTrialN,TrialsM2.thisN,TrialsM2.thisIndex,TrialsF3.thisRepN,TrialsF3.thisTrialN,TrialsF3.thisN,TrialsF3.thisIndex,TrialsM3.thisRepN,TrialsM3.thisTrialN,TrialsM3.thisN,TrialsM3.thisIndex,InstrKey_resp.keys,InstrKey_resp.rt,Image0 _Position,Image1 _Position,Image2 _Position,Image3 _Position,Center_image,condition,code,correct_answer,accuracy,Key_Resp.keys,Key_Resp.rt,BreakKey_resp.keys,BreakKey_resp.rt,date,frameRate,expName,session,participant,
,,,,,,,,,,,,,,,,,,,,,,,,,,,,,,space,15.3160083534,,,,,,,,,,,,,,2017_May_25_1656,60.0106055406,FEMA4ImagesEEG,001,100526,
AMSA25.JPG,AMNE24.JPG,AMSA24.JPG,AMNE26.JPG,AMSA21.JPG,AMNE25.JPG,0,0,0,3,,,,,,,,,,,,,,,,,,,,,,,AFNE06.jpg,AFSA06.jpg,AFSA19.jpg,AFNE02.jpg,AFNE06.jpg,FN,3,num_8,16,num_8,2.56659378379,,,2017_May_25_1656,60.0106055406,FEMA4ImagesEEG,001,100526,
AMSA21.JPG,AMNE23.JPG,AMNE21.JPG,AMSA25.JPG,AMNE25.JPG,AMSA23.JPG,0,1,1,5,,,,,,,,,,,,,,,,,,,,,,,AFSA18.jpg,AFSA07.jpg,AFNE18.jpg,AFNE07.jpg,AFNE18.jpg,FN,3,num_2,32,num_6,2.39998832508,,,2017_May_25_1656,60.0106055406,FEMA4ImagesEEG,001,100526,
AMNE22.JPG,AMSA24.JPG,AMSA22.JPG,AMNE25.JPG,AMNE24.JPG,AMSA25.JPG,0,2,2,7,,,,,,,,,,,,,,,,,,,,,,,AFNE09.jpg,AFNE05.jpg,AFSA08.jpg,AFSA01.jpg,AFSA08.jpg,FS,4,num_2,16,num_2,1.66700077069,,,2017_May_25_1656,60.0106055406,FEMA4ImagesEEG,001,100526,
AFNE22.JPG,AFSA24.JPG,AFSA22.JPG,AFNE25.JPG,AFNE24.JPG,AFSA25.JPG,0,3,3,6,,,,,,,,,,,,,,,,,,,,,,,AFSA09.jpg,AFNE02.jpg,AFNE15.jpg,AFSA18.jpg,AFNE02.jpg,FN,3,num_6,32,num_8,1.10015360243,,,2017_May_25_1656,60.0106055406,FEMA4ImagesEEG,001,100526,
AFSA25.JPG,AFNE24.JPG,AFSA24.JPG,AFNE21.JPG,AFSA21.JPG,AFNE25.JPG,0,4,4,2,,,,,,,,,,,,,,,,,,,,,,,AFNE14.jpg,AFNE10.jpg,AFSA13.jpg,AFSA14.jpg,AFSA13.jpg,FS,4,num_2,16,num_2,2.03320684424,,,2017_May_25_1656,60.0106055406,FEMA4ImagesEEG,001,100526,
AMNE23.JPG,AMNE24.JPG,AMNE22.JPG,AMSA24.JPG,AMSA22.JPG,AMSA23.JPG,0,5,5,9,,,,,,,,,,,,,,,,,,,,,,,AFSA14.jpg,AFNE04.jpg,AFSA18.jpg,AFNE10.jpg,AFSA14.jpg,FS,4,num_8,32,num_2,1.61643772793,,,2017_May_25_1656,60.0106055406,FEMA4ImagesEEG,001,100526,
AMSA21.JPG,AMNE22.JPG,AMNE21.JPG,AMSA23.JPG,AMSA22.JPG,AMNE23.JPG,0,6,6,1,,,,,,,,,,,,,,,,,,,,,,,AFSA06.jpg,AFNE11.jpg,AFNE04.jpg,AFSA03.jpg,AFSA03.jpg,FS,4,num_4,32,num_6,0.866756944335,,,2017_May_25_1656,60.0106055406,FEMA4ImagesEEG,001,100526,
AFSA21.JPG,AFNE22.JPG,AFNE21.JPG,AFSA23.JPG,AFSA22.JPG,AFNE23.JPG,0,7,7,0,,,,,,,,,,,,,,,,,,,,,,,AFSA10.jpg,AFNE08.jpg,AFNE17.jpg,AFSA09.jpg,AFSA09.jpg,FS,4,num_4,32,num_6,1.01675705658,,,2017_May_25_1656,60.0106055406,FEMA4ImagesEEG,001,100526,
AFNE23.JPG,AFNE24.JPG,AFNE22.JPG,AFSA24.JPG,AFSA22.JPG,AFSA23.JPG,0,8,8,8,,,,,,,,,,,,,,,,,,,,,,,AFNE19.jpg,AFSA02.jpg,AFNE07.jpg,AFSA16.jpg,AFNE07.jpg,FN,3,num_2,32,num_6,2.19991077017,,,2017_May_25_1656,60.0106055406,FEMA4ImagesEEG,001,100526,
AFSA21.JPG,AFNE23.JPG,AFNE21.JPG,AFSA25.JPG,AFNE25.JPG,AFSA23.JPG,0,9,9,4,,,,,,,,,,,,,,,,,,,,,,,AFNE15.jpg,AFSA14.jpg,AFNE03.jpg,AFSA10.jpg,AFNE03.jpg,FN,3,num_2,32,num_8,1.08344209089,,,2017_May_25_1656,60.0106055406,FEMA4ImagesEEG,001,100526,
AMSA21.JPG,AMNE22.JPG,AMNE21.JPG,AMSA23.JPG,AMSA22.JPG,AMNE23.JPG,,,,,0,0,0,1,,,,,,,,,,,,,,,,,,,AMSA07.jpg,AMNE20.jpg,AMSA06.jpg,AMNE17.jpg,AMSA07.jpg,MS,2,num_8,32,num_4,0.966733177425,,,2017_May_25_1656,60.0106055406,FEMA4ImagesEEG,001,100526,
AFSA21.JPG,AFNE22.JPG,AFNE21.JPG,AFSA23.JPG,AFSA22.JPG,AFNE23.JPG,,,,,0,1,1,0,,,,,,,,,,,,,,,,,,,AMNE08.jpg,AMSA08.jpg,AMNE12.jpg,AMSA12.jpg,AMSA08.jpg,MS,2,num_6,32,num_2,1.53334396053,,,2017_May_25_1656,60.0106055406,FEMA4ImagesEEG,001,100526,
AFSA21.JPG,AFNE23.JPG,AFNE21.JPG,AFSA25.JPG,AFNE25.JPG,AFSA23.JPG,,,,,0,2,2,4,,,,,,,,,,,,,,,,,,,AMSA10.jpg,AMSA20.jpg,AMNE09.jpg,AMNE19.jpg,AMSA10.jpg,MS,2,num_8,16,num_8,2.08337986725,,,2017_May_25_1656,60.0106055406,FEMA4ImagesEEG,001,100526,
AFNE22.JPG,AFSA24.JPG,AFSA22.JPG,AFNE25.JPG,AFNE24.JPG,AFSA25.JPG,,,,,0,3,3,6,,,,,,,,,,,,,,,,,,,AMSA01.jpg,AMNE11.jpg,AMNE18.jpg,AMSA13.jpg,AMNE18.jpg,MN,1,num_2,32,num_6,0.866711719893,,,2017_May_25_1656,60.0106055406,FEMA4ImagesEEG,001,100526,
AFNE23.JPG,AFNE24.JPG,AFNE22.JPG,AFSA24.JPG,AFSA22.JPG,AFSA23.JPG,,,,,0,4,4,8,,,,,,,,,,,,,,,,,,,AMSA15.jpg,AMNE04.jpg,AMNE14.jpg,AMSA16.jpg,AMNE14.jpg,MN,1,num_2,32,num_6,1.53324388957,,,2017_May_25_1656,60.0106055406,FEMA4ImagesEEG,001,100526,
AMSA21.JPG,AMNE23.JPG,AMNE21.JPG,AMSA25.JPG,AMNE25.JPG,AMSA23.JPG,,,,,0,5,5,5,,,,,,,,,,,,,,,,,,,AMNE19.jpg,AMSA16.jpg,AMNE15.jpg,AMSA06.jpg,AMSA16.jpg,MS,2,num_6,16,num_6,1.13342106633,,,2017_May_25_1656,60.0106055406,FEMA4ImagesEEG,001,100526,
AFSA25.JPG,AFNE24.JPG,AFSA24.JPG,AFNE21.JPG,AFSA21.JPG,AFNE25.JPG,,,,,0,6,6,2,,,,,,,,,,,,,,,,,,,AMSA07.jpg,AMNE01.jpg,AMNE12.jpg,AMSA18.jpg,AMSA07.jpg,MS,2,num_8,32,num_4,0.933447110467,,,2017_May_25_1656,60.0106055406,FEMA4ImagesEEG,001,100526,
AMNE22.JPG,AMSA24.JPG,AMSA22.JPG,AMNE25.JPG,AMNE24.JPG,AMSA25.JPG,,,,,0,7,7,7,,,,,,,,,,,,,,,,,,,AMSA15.jpg,AMNE01.jpg,AMSA13.jpg,AMNE04.jpg,AMSA13.jpg,MS,2,num_2,32,num_8,1.21678553824,,,2017_May_25_1656,60.0106055406,FEMA4ImagesEEG,001,100526,
AMSA25.JPG,AMNE24.JPG,AMSA24.JPG,AMNE26.JPG,AMSA21.JPG,AMNE25.JPG,,,,,0,8,8,3,,,,,,,,,,,,,,,,,,,AMNE17.jpg,AMSA16.jpg,AMSA19.jpg,AMNE12.jpg,AMNE12.jpg,MN,1,num_4,32,num_6,0.583455080865,,,2017_May_25_1656,60.0106055406,FEMA4ImagesEEG,001,100526,
AMNE23.JPG,AMNE24.JPG,AMNE22.JPG,AMSA24.JPG,AMSA22.JPG,AMSA23.JPG,,,,,0,9,9,9,,,,,,,,,,,,,,,,,,,AMSA11.jpg,AMSA02.jpg,AMNE04.jpg,AMNE15.jpg,AMSA11.jpg,MS,2,num_8,32,num_6,0.816753592459,,,2017_May_25_1656,60.0106055406,FEMA4ImagesEEG,001,100526,
AMSA21.JPG,AMNE22.JPG,AMNE21.JPG,AMSA23.JPG,AMSA22.JPG,AMNE23.JPG,,,,,,,,,0,0,0,1,,,,,,,,,,,,,,,AFNE20.jpg,AFSA13.jpg,AFSA03.jpg,AFNE16.jpg,AFNE20.jpg,FN,3,num_8,16,num_8,1.00012220198,,,2017_May_25_1656,60.0106055406,FEMA4ImagesEEG,001,100526,
AFSA21.JPG,AFNE22.JPG,AFNE21.JPG,AFSA23.JPG,AFSA22.JPG,AFNE23.JPG,,,,,,,,,0,1,1,0,,,,,,,,,,,,,,,AFSA20.jpg,AFNE06.jpg,AFNE08.jpg,AFSA05.jpg,AFNE06.jpg,FN,3,num_6,16,num_6,1.94998798822,,,2017_May_25_1656,60.0106055406,FEMA4ImagesEEG,001,100526,
AFSA21.JPG,AFNE23.JPG,AFNE21.JPG,AFSA25.JPG,AFNE25.JPG,AFSA23.JPG,,,,,,,,,0,2,2,4,,,,,,,,,,,,,,,AFNE04.jpg,AFSA07.jpg,AFSA14.jpg,AFNE08.jpg,AFSA14.jpg,FS,4,num_2,16,num_2,1.38351576484,,,2017_May_25_1656,60.0106055406,FEMA4ImagesEEG,001,100526,
AMNE22.JPG,AMSA24.JPG,AMSA22.JPG,AMNE25.JPG,AMNE24.JPG,AMSA25.JPG,,,,,,,,,0,3,3,7,,,,,,,,,,,,,,,AFNE03.jpg,AFSA12.jpg,AFSA18.jpg,AFNE09.jpg,AFNE03.jpg,FN,3,num_8,32,num_6,1.1334181797,,,2017_May_25_1656,60.0106055406,FEMA4ImagesEEG,001,100526,
AFSA25.JPG,AFNE24.JPG,AFSA24.JPG,AFNE21.JPG,AFSA21.JPG,AFNE25.JPG,,,,,,,,,0,4,4,2,,,,,,,,,,,,,,,AFNE06.jpg,AFSA07.jpg,AFNE03.jpg,AFSA06.jpg,AFNE03.jpg,FN,3,num_2,16,num_2,1.46668298158,,,2017_May_25_1656,60.0106055406,FEMA4ImagesEEG,001,100526,
AMSA25.JPG,AMNE24.JPG,AMSA24.JPG,AMNE26.JPG,AMSA21.JPG,AMNE25.JPG,,,,,,,,,0,5,5,3,,,,,,,,,,,,,,,AFSA17.jpg,AFSA15.jpg,AFNE17.jpg,AFNE16.jpg,AFNE17.jpg,FN,3,num_2,32,num_8,1.13342844346,,,2017_May_25_1656,60.0106055406,FEMA4ImagesEEG,001,100526,
AFNE22.JPG,AFSA24.JPG,AFSA22.JPG,AFNE25.JPG,AFNE24.JPG,AFSA25.JPG,,,,,,,,,0,6,6,6,,,,,,,,,,,,,,,AFNE20.jpg,AFSA17.jpg,AFSA08.jpg,AFNE07.jpg,AFSA17.jpg,FS,4,num_6,16,num_6,1.06646885572,,,2017_May_25_1656,60.0106055406,FEMA4ImagesEEG,001,100526,
AMSA21.JPG,AMNE23.JPG,AMNE21.JPG,AMSA25.JPG,AMNE25.JPG,AMSA23.JPG,,,,,,,,,0,7,7,5,,,,,,,,,,,,,,,AFNE12.jpg,AFSA12.jpg,AFNE10.jpg,AFSA02.jpg,AFSA02.jpg,FS,4,num_4,16,num_4,0.966720989323,,,2017_May_25_1656,60.0106055406,FEMA4ImagesEEG,001,100526,
AFNE23.JPG,AFNE24.JPG,AFNE22.JPG,AFSA24.JPG,AFSA22.JPG,AFSA23.JPG,,,,,,,,,0,8,8,8,,,,,,,,,,,,,,,AFNE11.jpg,AFSA09.jpg,AFNE09.jpg,AFSA14.jpg,AFNE11.jpg,FN,3,num_8,16,num_8,0.950077153975,,,2017_May_25_1656,60.0106055406,FEMA4ImagesEEG,001,100526,
AMNE23.JPG,AMNE24.JPG,AMNE22.JPG,AMSA24.JPG,AMSA22.JPG,AMSA23.JPG,,,,,,,,,0,9,9,9,,,,,,,,,,,,,,,AFNE02.jpg,AFNE10.jpg,AFSA01.jpg,AFSA10.jpg,AFNE10.jpg,FN,3,num_6,16,num_6,1.8001399067,,,2017_May_25_1656,60.0106055406,FEMA4ImagesEEG,001,100526,
AFSA25.JPG,AFNE24.JPG,AFSA24.JPG,AFNE21.JPG,AFSA21.JPG,AFNE25.JPG,,,,,,,,,,,,,0,0,0,2,,,,,,,,,,,AMSA08.jpg,AMNE11.jpg,AMNE09.jpg,AMSA07.jpg,AMNE09.jpg,MN,1,num_2,32,num_8,1.03345541761,,,2017_May_25_1656,60.0106055406,FEMA4ImagesEEG,001,100526,
AMSA21.JPG,AMNE22.JPG,AMNE21.JPG,AMSA23.JPG,AMSA22.JPG,AMNE23.JPG,,,,,,,,,,,,,0,1,1,1,,,,,,,,,,,AMSA14.jpg,AMSA07.jpg,AMNE10.jpg,AMNE04.jpg,AMSA14.jpg,MS,2,num_8,32,num_2,1.95004315546,,,2017_May_25_1656,60.0106055406,FEMA4ImagesEEG,001,100526,
AFSA21.JPG,AFNE22.JPG,AFNE21.JPG,AFSA23.JPG,AFSA22.JPG,AFNE23.JPG,,,,,,,,,,,,,0,2,2,0,,,,,,,,,,,AMSA19.jpg,AMNE17.jpg,AMSA11.jpg,AMNE16.jpg,AMSA11.jpg,MS,2,num_2,32,num_6,1.21676597313,,,2017_May_25_1656,60.0106055406,FEMA4ImagesEEG,001,100526,
AMNE22.JPG,AMSA24.JPG,AMSA22.JPG,AMNE25.JPG,AMNE24.JPG,AMSA25.JPG,,,,,,,,,,,,,0,3,3,7,,,,,,,,,,,AMNE16.jpg,AMSA20.jpg,AMNE09.jpg,AMSA19.jpg,AMSA19.jpg,MS,2,num_4,16,num_4,0.883487700019,,,2017_May_25_1656,60.0106055406,FEMA4ImagesEEG,001,100526,
AFSA21.JPG,AFNE23.JPG,AFNE21.JPG,AFSA25.JPG,AFNE25.JPG,AFSA23.JPG,,,,,,,,,,,,,0,4,4,4,,,,,,,,,,,AMSA04.jpg,AMSA10.jpg,AMNE05.jpg,AMNE03.jpg,AMSA10.jpg,MS,2,num_6,16,num_6,0.76676082518,,,2017_May_25_1656,60.0106055406,FEMA4ImagesEEG,001,100526,
AMSA25.JPG,AMNE24.JPG,AMSA24.JPG,AMNE26.JPG,AMSA21.JPG,AMNE25.JPG,,,,,,,,,,,,,0,5,5,3,,,,,,,,,,,AMNE18.jpg,AMNE06.jpg,AMSA20.jpg,AMSA10.jpg,AMSA20.jpg,MS,2,num_2,32,num_8,1.00009654264,,,2017_May_25_1656,60.0106055406,FEMA4ImagesEEG,001,100526,
AMSA21.JPG,AMNE23.JPG,AMNE21.JPG,AMSA25.JPG,AMNE25.JPG,AMSA23.JPG,,,,,,,,,,,,,0,6,6,5,,,,,,,,,,,AMSA14.jpg,AMNE12.jpg,AMSA13.jpg,AMNE07.jpg,AMNE07.jpg,MN,1,num_4,16,num_4,1.46672724374,,,2017_May_25_1656,60.0106055406,FEMA4ImagesEEG,001,100526,
AFNE22.JPG,AFSA24.JPG,AFSA22.JPG,AFNE25.JPG,AFNE24.JPG,AFSA25.JPG,,,,,,,,,,,,,0,7,7,6,,,,,,,,,,,AMSA02.jpg,AMNE15.jpg,AMNE18.jpg,AMSA10.jpg,AMSA10.jpg,MS,2,num_4,32,num_6,0.800171339186,,,2017_May_25_1656,60.0106055406,FEMA4ImagesEEG,001,100526,
AFNE23.JPG,AFNE24.JPG,AFNE22.JPG,AFSA24.JPG,AFSA22.JPG,AFSA23.JPG,,,,,,,,,,,,,0,8,8,8,,,,,,,,,,,AMSA10.jpg,AMNE20.jpg,AMSA03.jpg,AMNE04.jpg,AMNE04.jpg,MN,1,num_4,32,num_8,1.00009718409,,,2017_May_25_1656,60.0106055406,FEMA4ImagesEEG,001,100526,
AMNE23.JPG,AMNE24.JPG,AMNE22.JPG,AMSA24.JPG,AMSA22.JPG,AMSA23.JPG,,,,,,,,,,,,,0,9,9,9,,,,,,,,,,,AMNE02.jpg,AMNE03.jpg,AMSA17.jpg,AMSA07.jpg,AMNE03.jpg,MN,1,num_6,32,num_4,2.58361737535,,,2017_May_25_1656,60.0106055406,FEMA4ImagesEEG,001,100526,
AFSA25.JPG,AFNE24.JPG,AFSA24.JPG,AFNE21.JPG,AFSA21.JPG,AFNE25.JPG,,,,,,,,,,,,,,,,,0,0,0,2,,,,,,,AFSA15.jpg,AFNE10.jpg,AFNE01.jpg,AFSA04.jpg,AFNE10.jpg,FN,3,num_6,32,num_8,1.03352052777,,,2017_May_25_1656,60.0106055406,FEMA4ImagesEEG,001,100526,
AFNE23.JPG,AFNE24.JPG,AFNE22.JPG,AFSA24.JPG,AFSA22.JPG,AFSA23.JPG,,,,,,,,,,,,,,,,,0,1,1,8,,,,,,,AFNE01.jpg,AFSA05.jpg,AFSA02.jpg,AFNE09.jpg,AFNE01.jpg,FN,3,num_8,32,num_4,1.46674199775,,,2017_May_25_1656,60.0106055406,FEMA4ImagesEEG,001,100526,
AFSA21.JPG,AFNE23.JPG,AFNE21.JPG,AFSA25.JPG,AFNE25.JPG,AFSA23.JPG,,,,,,,,,,,,,,,,,0,2,2,4,,,,,,,AFSA17.jpg,AFNE20.jpg,AFNE02.jpg,AFSA14.jpg,AFNE20.jpg,FN,3,num_6,16,num_6,0.750111537287,,,2017_May_25_1656,60.0106055406,FEMA4ImagesEEG,001,100526,
AMNE22.JPG,AMSA24.JPG,AMSA22.JPG,AMNE25.JPG,AMNE24.JPG,AMSA25.JPG,,,,,,,,,,,,,,,,,0,3,3,7,,,,,,,AFNE09.jpg,AFSA03.jpg,AFSA17.jpg,AFNE15.jpg,AFNE15.jpg,FN,3,num_4,32,num_2,1.20008749783,,,2017_May_25_1656,60.0106055406,FEMA4ImagesEEG,001,100526,
AMSA25.JPG,AMNE24.JPG,AMSA24.JPG,AMNE26.JPG,AMSA21.JPG,AMNE25.JPG,,,,,,,,,,,,,,,,,0,4,4,3,,,,,,,AFSA17.jpg,AFSA01.jpg,AFNE10.jpg,AFNE05.jpg,AFSA01.jpg,FS,4,num_6,16,num_6,1.03343809769,,,2017_May_25_1656,60.0106055406,FEMA4ImagesEEG,001,100526,
AFNE22.JPG,AFSA24.JPG,AFSA22.JPG,AFNE25.JPG,AFNE24.JPG,AFSA25.JPG,,,,,,,,,,,,,,,,,0,5,5,6,,,,,,,AFNE04.jpg,AFNE17.jpg,AFSA19.jpg,AFSA03.jpg,AFNE17.jpg,FN,3,num_6,32,num_8,0.466804221272,,,2017_May_25_1656,60.0106055406,FEMA4ImagesEEG,001,100526,
AMSA21.JPG,AMNE23.JPG,AMNE21.JPG,AMSA25.JPG,AMNE25.JPG,AMSA23.JPG,,,,,,,,,,,,,,,,,0,6,6,5,,,,,,,AFSA19.jpg,AFNE08.jpg,AFNE11.jpg,AFSA12.jpg,AFNE08.jpg,FN,3,num_6,32,num_4,0.600143819815,,,2017_May_25_1656,60.0106055406,FEMA4ImagesEEG,001,100526,
AMSA21.JPG,AMNE22.JPG,AMNE21.JPG,AMSA23.JPG,AMSA22.JPG,AMNE23.JPG,,,,,,,,,,,,,,,,,0,7,7,1,,,,,,,AFNE19.jpg,AFSA10.jpg,AFSA01.jpg,AFNE02.jpg,AFSA10.jpg,FS,4,num_6,16,num_6,1.05008866859,,,2017_May_25_1656,60.0106055406,FEMA4ImagesEEG,001,100526,
AMNE23.JPG,AMNE24.JPG,AMNE22.JPG,AMSA24.JPG,AMSA22.JPG,AMSA23.JPG,,,,,,,,,,,,,,,,,0,8,8,9,,,,,,,AFNE19.jpg,AFNE09.jpg,AFSA02.jpg,AFSA09.jpg,AFSA09.jpg,FS,4,num_4,16,num_4,0.800173584488,,,2017_May_25_1656,60.0106055406,FEMA4ImagesEEG,001,100526,
AFSA21.JPG,AFNE22.JPG,AFNE21.JPG,AFSA23.JPG,AFSA22.JPG,AFNE23.JPG,,,,,,,,,,,,,,,,,0,9,9,0,,,,,,,AFNE02.jpg,AFSA18.jpg,AFSA19.jpg,AFNE06.jpg,AFSA19.jpg,FS,4,num_2,32,num_6,0.91675676778,,,2017_May_25_1656,60.0106055406,FEMA4ImagesEEG,001,100526,
AMSA21.JPG,AMNE22.JPG,AMNE21.JPG,AMSA23.JPG,AMSA22.JPG,AMNE23.JPG,,,,,,,,,,,,,,,,,,,,,0,0,0,1,,,AMSA06.jpg,AMNE04.jpg,AMSA09.jpg,AMNE16.jpg,AMNE16.jpg,MN,1,num_4,16,num_4,1.20014747628,,,2017_May_25_1656,60.0106055406,FEMA4ImagesEEG,001,100526,
AMSA21.JPG,AMNE23.JPG,AMNE21.JPG,AMSA25.JPG,AMNE25.JPG,AMSA23.JPG,,,,,,,,,,,,,,,,,,,,,0,1,1,5,,,AMSA04.jpg,AMNE07.jpg,AMSA10.jpg,AMNE03.jpg,AMSA10.jpg,MS,2,num_2,32,num_8,0.916752277524,,,2017_May_25_1656,60.0106055406,FEMA4ImagesEEG,001,100526,
AFSA25.JPG,AFNE24.JPG,AFSA24.JPG,AFNE21.JPG,AFSA21.JPG,AFNE25.JPG,,,,,,,,,,,,,,,,,,,,,0,2,2,2,,,AMSA14.jpg,AMNE04.jpg,AMNE01.jpg,AMSA17.jpg,AMSA14.jpg,MS,2,num_8,32,num_6,0.999987491174,,,2017_May_25_1656,60.0106055406,FEMA4ImagesEEG,001,100526,
AFNE22.JPG,AFSA24.JPG,AFSA22.JPG,AFNE25.JPG,AFNE24.JPG,AFSA25.JPG,,,,,,,,,,,,,,,,,,,,,0,3,3,6,,,AMNE16.jpg,AMSA01.jpg,AMNE11.jpg,AMSA20.jpg,AMSA01.jpg,MS,2,num_6,16,num_6,1.20013496745,,,2017_May_25_1656,60.0106055406,FEMA4ImagesEEG,001,100526,
AFSA21.JPG,AFNE22.JPG,AFNE21.JPG,AFSA23.JPG,AFSA22.JPG,AFNE23.JPG,,,,,,,,,,,,,,,,,,,,,0,4,4,0,,,AMSA02.jpg,AMSA19.jpg,AMNE04.jpg,AMNE03.jpg,AMNE03.jpg,MN,1,num_4,16,num_4,1.15003924246,,,2017_May_25_1656,60.0106055406,FEMA4ImagesEEG,001,100526,
AFNE23.JPG,AFNE24.JPG,AFNE22.JPG,AFSA24.JPG,AFSA22.JPG,AFSA23.JPG,,,,,,,,,,,,,,,,,,,,,0,5,5,8,,,AMSA18.jpg,AMNE09.jpg,AMNE04.jpg,AMSA15.jpg,AMNE04.jpg,MN,1,num_2,32,num_4,1.05007455603,,,2017_May_25_1656,60.0106055406,FEMA4ImagesEEG,001,100526,
AMNE22.JPG,AMSA24.JPG,AMSA22.JPG,AMNE25.JPG,AMNE24.JPG,AMSA25.JPG,,,,,,,,,,,,,,,,,,,,,0,6,6,7,,,AMSA10.jpg,AMNE16.jpg,AMNE06.jpg,AMSA16.jpg,AMSA10.jpg,MS,2,num_8,32,num_4,0.750138800242,,,2017_May_25_1656,60.0106055406,FEMA4ImagesEEG,001,100526,
AFSA21.JPG,AFNE23.JPG,AFNE21.JPG,AFSA25.JPG,AFNE25.JPG,AFSA23.JPG,,,,,,,,,,,,,,,,,,,,,0,7,7,4,,,AMSA02.jpg,AMNE08.jpg,AMNE13.jpg,AMSA04.jpg,AMSA04.jpg,MS,2,num_4,16,num_4,0.583469193429,,,2017_May_25_1656,60.0106055406,FEMA4ImagesEEG,001,100526,
AMNE23.JPG,AMNE24.JPG,AMNE22.JPG,AMSA24.JPG,AMSA22.JPG,AMSA23.JPG,,,,,,,,,,,,,,,,,,,,,0,8,8,9,,,AMNE09.jpg,AMSA05.jpg,AMNE10.jpg,AMSA16.jpg,AMNE10.jpg,MN,1,num_2,32,num_8,1.25009309477,,,2017_May_25_1656,60.0106055406,FEMA4ImagesEEG,001,100526,
AMSA25.JPG,AMNE24.JPG,AMSA24.JPG,AMNE26.JPG,AMSA21.JPG,AMNE25.JPG,,,,,,,,,,,,,,,,,,,,,0,9,9,3,,,AMNE14.jpg,AMSA16.jpg,AMNE17.jpg,AMSA18.jpg,AMSA18.jpg,MS,2,num_4,16,num_4,0.766860896023,,,2017_May_25_1656,60.0106055406,FEMA4ImagesEEG,001,100526,
,,,,,,,,,,,,,,,,,,,,,,,,,,,,,,,,,,,,,,,,,,,space,6.38300739217,2017_May_25_1656,60.0106055406,FEMA4ImagesEEG,001,100526,
AFNE01.JPG,AFNE01.JPG,AFNE01.JPG,AFNE01.JPG,AFNE01.JPG,AFNE01.JPG,0,0,0,3,,,,,,,,,,,,,,,,,,,,,,,AFNE02.jpg,AFSA05.jpg,AFNE15.jpg,AFSA11.jpg,AFNE15.jpg,FN,3,num_2,32,num_8,1.35006034723,,,2017_May_25_1656,60.0106055406,FEMA4ImagesEEG,001,100526,
AFNE01.JPG,AFNE01.JPG,AFNE01.JPG,AFNE01.JPG,AFNE01.JPG,AFNE01.JPG,0,1,1,0,,,,,,,,,,,,,,,,,,,,,,,AFSA08.jpg,AFNE13.jpg,AFSA07.jpg,AFNE01.jpg,AFNE13.jpg,FN,3,num_6,32,num_8,1.20007659274,,,2017_May_25_1656,60.0106055406,FEMA4ImagesEEG,001,100526,
AFNE01.JPG,AFNE01.JPG,AFNE01.JPG,AFNE01.JPG,AFNE01.JPG,AFNE01.JPG,0,2,2,5,,,,,,,,,,,,,,,,,,,,,,,AFNE17.jpg,AFSA11.jpg,AFSA03.jpg,AFNE05.jpg,AFSA03.jpg,FS,4,num_2,16,num_2,1.20008172456,,,2017_May_25_1656,60.0106055406,FEMA4ImagesEEG,001,100526,
AFNE01.JPG,AFNE01.JPG,AFNE01.JPG,AFNE01.JPG,AFNE01.JPG,AFNE01.JPG,0,3,3,2,,,,,,,,,,,,,,,,,,,,,,,AFNE15.jpg,AFSA16.jpg,AFNE16.jpg,AFSA19.jpg,AFNE15.jpg,FN,3,num_8,16,num_8,0.800044005504,,,2017_May_25_1656,60.0106055406,FEMA4ImagesEEG,001,100526,
AFNE01.JPG,AFNE01.JPG,AFNE01.JPG,AFNE01.JPG,AFNE01.JPG,AFNE01.JPG,0,4,4,4,,,,,,,,,,,,,,,,,,,,,,,AFSA02.jpg,AFNE15.jpg,AFNE13.jpg,AFSA17.jpg,AFSA17.jpg,FS,4,num_4,16,num_4,0.933428186923,,,2017_May_25_1656,60.0106055406,FEMA4ImagesEEG,001,100526,
AFNE01.JPG,AFNE01.JPG,AFNE01.JPG,AFNE01.JPG,AFNE01.JPG,AFNE01.JPG,0,5,5,1,,,,,,,,,,,,,,,,,,,,,,,AFNE10.jpg,AFNE11.jpg,AFSA18.jpg,AFSA09.jpg,AFNE11.jpg,FN,3,num_6,32,num_8,1.26676258934,,,2017_May_25_1656,60.0106055406,FEMA4ImagesEEG,001,100526,
AFNE01.JPG,AFNE01.JPG,AFNE01.JPG,AFNE01.JPG,AFNE01.JPG,AFNE01.JPG,0,6,6,9,,,,,,,,,,,,,,,,,,,,,,,AFNE08.jpg,AFNE04.jpg,AFSA03.jpg,AFSA15.jpg,AFNE04.jpg,FN,3,num_6,16,num_6,1.01675192476,,,2017_May_25_1656,60.0106055406,FEMA4ImagesEEG,001,100526,
AFNE01.JPG,AFNE01.JPG,AFNE01.JPG,AFNE01.JPG,AFNE01.JPG,AFNE01.JPG,0,7,7,7,,,,,,,,,,,,,,,,,,,,,,,AFNE13.jpg,AFSA11.jpg,AFNE07.jpg,AFSA20.jpg,AFNE07.jpg,FN,3,num_2,32,num_6,0.983413256356,,,2017_May_25_1656,60.0106055406,FEMA4ImagesEEG,001,100526,
AFNE01.JPG,AFNE01.JPG,AFNE01.JPG,AFNE01.JPG,AFNE01.JPG,AFNE01.JPG,0,8,8,6,,,,,,,,,,,,,,,,,,,,,,,AFNE03.jpg,AFSA01.jpg,AFSA07.jpg,AFNE07.jpg,AFSA01.jpg,FS,4,num_6,16,num_6,1.3164772751,,,2017_May_25_1656,60.0106055406,FEMA4ImagesEEG,001,100526,
AFNE01.JPG,AFNE01.JPG,AFNE01.JPG,AFNE01.JPG,AFNE01.JPG,AFNE01.JPG,0,9,9,8,,,,,,,,,,,,,,,,,,,,,,,AFSA14.jpg,AFNE01.jpg,AFSA02.jpg,AFNE16.jpg,AFNE01.jpg,FN,3,num_6,32,num_8,0.883464286104,,,2017_May_25_1656,60.0106055406,FEMA4ImagesEEG,001,100526,
AFNE01.JPG,AFNE01.JPG,AFNE01.JPG,AFNE01.JPG,AFNE01.JPG,AFNE01.JPG,1,0,10,0,,,,,,,,,,,,,,,,,,,,,,,AFSA01.jpg,AFNE09.jpg,AFSA14.jpg,AFNE06.jpg,AFSA14.jpg,FS,4,num_2,32,num_4,1.00011931523,,,2017_May_25_1656,60.0106055406,FEMA4ImagesEEG,001,100526,
AFNE01.JPG,AFNE01.JPG,AFNE01.JPG,AFNE01.JPG,AFNE01.JPG,AFNE01.JPG,1,1,11,9,,,,,,,,,,,,,,,,,,,,,,,AFSA06.jpg,AFNE04.jpg,AFSA11.jpg,AFNE07.jpg,AFNE07.jpg,FN,3,num_4,32,num_8,0.983417746727,,,2017_May_25_1656,60.0106055406,FEMA4ImagesEEG,001,100526,
AFNE01.JPG,AFNE01.JPG,AFNE01.JPG,AFNE01.JPG,AFNE01.JPG,AFNE01.JPG,1,2,12,2,,,,,,,,,,,,,,,,,,,,,,,AFSA03.jpg,AFNE04.jpg,AFSA12.jpg,AFNE20.jpg,AFNE04.jpg,FN,3,num_6,16,num_6,0.800153377815,,,2017_May_25_1656,60.0106055406,FEMA4ImagesEEG,001,100526,
AFNE01.JPG,AFNE01.JPG,AFNE01.JPG,AFNE01.JPG,AFNE01.JPG,AFNE01.JPG,1,3,13,7,,,,,,,,,,,,,,,,,,,,,,,AFNE10.jpg,AFSA16.jpg,AFSA17.jpg,AFNE07.jpg,AFNE10.jpg,FN,3,num_8,16,num_8,1.03342174005,,,2017_May_25_1656,60.0106055406,FEMA4ImagesEEG,001,100526,
AFNE01.JPG,AFNE01.JPG,AFNE01.JPG,AFNE01.JPG,AFNE01.JPG,AFNE01.JPG,1,4,14,3,,,,,,,,,,,,,,,,,,,,,,,AFSA06.jpg,AFNE20.jpg,AFSA12.jpg,AFNE18.jpg,AFSA12.jpg,FS,4,num_2,32,num_8,1.00013342779,,,2017_May_25_1656,60.0106055406,FEMA4ImagesEEG,001,100526,
AFNE01.JPG,AFNE01.JPG,AFNE01.JPG,AFNE01.JPG,AFNE01.JPG,AFNE01.JPG,1,5,15,1,,,,,,,,,,,,,,,,,,,,,,,AFSA01.jpg,AFSA17.jpg,AFNE03.jpg,AFNE04.jpg,AFNE04.jpg,FN,3,num_4,32,num_2,0.466797165107,,,2017_May_25_1656,60.0106055406,FEMA4ImagesEEG,001,100526,
AFNE01.JPG,AFNE01.JPG,AFNE01.JPG,AFNE01.JPG,AFNE01.JPG,AFNE01.JPG,1,6,16,5,,,,,,,,,,,,,,,,,,,,,,,AFNE20.jpg,AFSA06.jpg,AFSA05.jpg,AFNE19.jpg,AFNE19.jpg,FN,3,num_4,32,num_8,0.833319167374,,,2017_May_25_1656,60.0106055406,FEMA4ImagesEEG,001,100526,
AFNE01.JPG,AFNE01.JPG,AFNE01.JPG,AFNE01.JPG,AFNE01.JPG,AFNE01.JPG,1,7,17,8,,,,,,,,,,,,,,,,,,,,,,,AFSA02.jpg,AFSA13.jpg,AFNE09.jpg,AFNE05.jpg,AFSA13.jpg,FS,4,num_6,32,num_8,0.716766774887,,,2017_May_25_1656,60.0106055406,FEMA4ImagesEEG,001,100526,
AFNE01.JPG,AFNE01.JPG,AFNE01.JPG,AFNE01.JPG,AFNE01.JPG,AFNE01.JPG,1,8,18,6,,,,,,,,,,,,,,,,,,,,,,,AFSA16.jpg,AFNE13.jpg,AFSA17.jpg,AFNE15.jpg,AFSA16.jpg,FS,4,num_8,32,num_4,0.400132337236,,,2017_May_25_1656,60.0106055406,FEMA4ImagesEEG,001,100526,
AFNE01.JPG,AFNE01.JPG,AFNE01.JPG,AFNE01.JPG,AFNE01.JPG,AFNE01.JPG,1,9,19,4,,,,,,,,,,,,,,,,,,,,,,,AFNE14.jpg,AFNE17.jpg,AFSA11.jpg,AFSA04.jpg,AFNE14.jpg,FN,3,num_8,16,num_8,0.76675344829,,,2017_May_25_1656,60.0106055406,FEMA4ImagesEEG,001,100526,
AFNE01.JPG,AFNE01.JPG,AFNE01.JPG,AFNE01.JPG,AFNE01.JPG,AFNE01.JPG,2,0,20,9,,,,,,,,,,,,,,,,,,,,,,,AFSA12.jpg,AFSA13.jpg,AFNE15.jpg,AFNE19.jpg,AFSA13.jpg,FS,4,num_6,16,num_6,0.833450349863,,,2017_May_25_1656,60.0106055406,FEMA4ImagesEEG,001,100526,
AFNE01.JPG,AFNE01.JPG,AFNE01.JPG,AFNE01.JPG,AFNE01.JPG,AFNE01.JPG,2,1,21,7,,,,,,,,,,,,,,,,,,,,,,,AFNE02.jpg,AFSA15.jpg,AFNE15.jpg,AFSA01.jpg,AFNE15.jpg,FN,3,num_2,32,num_8,0.766619058209,,,2017_May_25_1656,60.0106055406,FEMA4ImagesEEG,001,100526,
AFNE01.JPG,AFNE01.JPG,AFNE01.JPG,AFNE01.JPG,AFNE01.JPG,AFNE01.JPG,2,2,22,4,,,,,,,,,,,,,,,,,,,,,,,AFNE09.jpg,AFSA01.jpg,AFSA05.jpg,AFNE08.jpg,AFSA01.jpg,FS,4,num_6,32,num_4,1.18376119493,,,2017_May_25_1656,60.0106055406,FEMA4ImagesEEG,001,100526,
AFNE01.JPG,AFNE01.JPG,AFNE01.JPG,AFNE01.JPG,AFNE01.JPG,AFNE01.JPG,2,3,23,6,,,,,,,,,,,,,,,,,,,,,,,AFSA05.jpg,AFNE14.jpg,AFSA09.jpg,AFNE04.jpg,AFSA09.jpg,FS,4,num_2,16,num_2,0.483517015702,,,2017_May_25_1656,60.0106055406,FEMA4ImagesEEG,001,100526,
AFNE01.JPG,AFNE01.JPG,AFNE01.JPG,AFNE01.JPG,AFNE01.JPG,AFNE01.JPG,2,4,24,0,,,,,,,,,,,,,,,,,,,,,,,AFSA18.jpg,AFNE12.jpg,AFSA03.jpg,AFNE19.jpg,AFSA18.jpg,FS,4,num_8,32,num_2,0.70014988177,,,2017_May_25_1656,60.0106055406,FEMA4ImagesEEG,001,100526,
AFNE01.JPG,AFNE01.JPG,AFNE01.JPG,AFNE01.JPG,AFNE01.JPG,AFNE01.JPG,2,5,25,1,,,,,,,,,,,,,,,,,,,,,,,AFNE13.jpg,AFSA04.jpg,AFSA19.jpg,AFNE01.jpg,AFSA04.jpg,FS,4,num_6,16,num_6,0.683450237615,,,2017_May_25_1656,60.0106055406,FEMA4ImagesEEG,001,100526,
AFNE01.JPG,AFNE01.JPG,AFNE01.JPG,AFNE01.JPG,AFNE01.JPG,AFNE01.JPG,2,6,26,8,,,,,,,,,,,,,,,,,,,,,,,AFNE02.jpg,AFSA16.jpg,AFNE01.jpg,AFSA01.jpg,AFNE02.jpg,FN,3,num_8,16,num_8,0.783434489393,,,2017_May_25_1656,60.0106055406,FEMA4ImagesEEG,001,100526,
AFNE01.JPG,AFNE01.JPG,AFNE01.JPG,AFNE01.JPG,AFNE01.JPG,AFNE01.JPG,2,7,27,5,,,,,,,,,,,,,,,,,,,,,,,AFSA11.jpg,AFNE19.jpg,AFNE01.jpg,AFSA05.jpg,AFSA11.jpg,FS,4,num_8,16,num_8,0.766788088134,,,2017_May_25_1656,60.0106055406,FEMA4ImagesEEG,001,100526,
AFNE01.JPG,AFNE01.JPG,AFNE01.JPG,AFNE01.JPG,AFNE01.JPG,AFNE01.JPG,2,8,28,3,,,,,,,,,,,,,,,,,,,,,,,AFSA18.jpg,AFSA12.jpg,AFNE18.jpg,AFNE17.jpg,AFNE18.jpg,FN,3,num_2,32,num_4,0.700157258776,,,2017_May_25_1656,60.0106055406,FEMA4ImagesEEG,001,100526,
AFNE01.JPG,AFNE01.JPG,AFNE01.JPG,AFNE01.JPG,AFNE01.JPG,AFNE01.JPG,2,9,29,2,,,,,,,,,,,,,,,,,,,,,,,AFNE18.jpg,AFSA18.jpg,AFNE19.jpg,AFSA02.jpg,AFSA02.jpg,FS,4,num_4,16,num_4,1.28337178472,,,2017_May_25_1656,60.0106055406,FEMA4ImagesEEG,001,100526,
AFNE01.JPG,AFNE01.JPG,AFNE01.JPG,AFNE01.JPG,AFNE01.JPG,AFNE01.JPG,3,0,30,1,,,,,,,,,,,,,,,,,,,,,,,AFNE20.jpg,AFSA20.jpg,AFSA09.jpg,AFNE01.jpg,AFNE20.jpg,FN,3,num_8,16,num_8,0.650182773708,,,2017_May_25_1656,60.0106055406,FEMA4ImagesEEG,001,100526,
AFNE01.JPG,AFNE01.JPG,AFNE01.JPG,AFNE01.JPG,AFNE01.JPG,AFNE01.JPG,3,1,31,9,,,,,,,,,,,,,,,,,,,,,,,AFSA18.jpg,AFNE05.jpg,AFSA11.jpg,AFNE17.jpg,AFNE17.jpg,FN,3,num_4,16,num_4,0.316511914949,,,2017_May_25_1656,60.0106055406,FEMA4ImagesEEG,001,100526,
AFNE01.JPG,AFNE01.JPG,AFNE01.JPG,AFNE01.JPG,AFNE01.JPG,AFNE01.JPG,3,2,32,4,,,,,,,,,,,,,,,,,,,,,,,AFNE06.jpg,AFNE15.jpg,AFSA08.jpg,AFSA02.jpg,AFSA02.jpg,FS,4,num_4,32,num_6,1.58340215881,,,2017_May_25_1656,60.0106055406,FEMA4ImagesEEG,001,100526,
AFNE01.JPG,AFNE01.JPG,AFNE01.JPG,AFNE01.JPG,AFNE01.JPG,AFNE01.JPG,3,3,33,3,,,,,,,,,,,,,,,,,,,,,,,AFSA18.jpg,AFSA10.jpg,AFNE14.jpg,AFNE04.jpg,AFSA10.jpg,FS,4,num_6,32,num_2,1.23338896036,,,2017_May_25_1656,60.0106055406,FEMA4ImagesEEG,001,100526,
AFNE01.JPG,AFNE01.JPG,AFNE01.JPG,AFNE01.JPG,AFNE01.JPG,AFNE01.JPG,3,4,34,5,,,,,,,,,,,,,,,,,,,,,,,AFNE09.jpg,AFSA06.jpg,AFNE13.jpg,AFSA14.jpg,AFNE13.jpg,FN,3,num_2,32,num_6,0.650406008703,,,2017_May_25_1656,60.0106055406,FEMA4ImagesEEG,001,100526,
AFNE01.JPG,AFNE01.JPG,AFNE01.JPG,AFNE01.JPG,AFNE01.JPG,AFNE01.JPG,3,5,35,2,,,,,,,,,,,,,,,,,,,,,,,AFSA12.jpg,AFSA14.jpg,AFNE02.jpg,AFNE18.jpg,AFSA12.jpg,FS,4,num_8,16,num_8,0.316781015717,,,2017_May_25_1656,60.0106055406,FEMA4ImagesEEG,001,100526,
AFNE01.JPG,AFNE01.JPG,AFNE01.JPG,AFNE01.JPG,AFNE01.JPG,AFNE01.JPG,3,6,36,8,,,,,,,,,,,,,,,,,,,,,,,AFNE16.jpg,AFNE13.jpg,AFSA02.jpg,AFSA11.jpg,AFNE13.jpg,FN,3,num_6,32,num_8,0.766786805121,,,2017_May_25_1656,60.0106055406,FEMA4ImagesEEG,001,100526,
AFNE01.JPG,AFNE01.JPG,AFNE01.JPG,AFNE01.JPG,AFNE01.JPG,AFNE01.JPG,3,7,37,6,,,,,,,,,,,,,,,,,,,,,,,AFNE15.jpg,AFSA07.jpg,AFNE08.jpg,AFSA12.jpg,AFNE08.jpg,FN,3,num_2,32,num_6,0.783488052897,,,2017_May_25_1656,60.0106055406,FEMA4ImagesEEG,001,100526,
AFNE01.JPG,AFNE01.JPG,AFNE01.JPG,AFNE01.JPG,AFNE01.JPG,AFNE01.JPG,3,8,38,0,,,,,,,,,,,,,,,,,,,,,,,AFSA09.jpg,AFNE18.jpg,AFSA20.jpg,AFNE12.jpg,AFNE18.jpg,FN,3,num_6,32,num_4,0.516775819822,,,2017_May_25_1656,60.0106055406,FEMA4ImagesEEG,001,100526,
AFNE01.JPG,AFNE01.JPG,AFNE01.JPG,AFNE01.JPG,AFNE01.JPG,AFNE01.JPG,3,9,39,7,,,,,,,,,,,,,,,,,,,,,,,AFNE19.jpg,AFSA17.jpg,AFSA18.jpg,AFNE13.jpg,AFSA18.jpg,FS,4,num_2,16,num_2,0.750110895839,,,2017_May_25_1656,60.0106055406,FEMA4ImagesEEG,001,100526,
AFNE01.JPG,AFNE01.JPG,AFNE01.JPG,AFNE01.JPG,AFNE01.JPG,AFNE01.JPG,4,0,40,1,,,,,,,,,,,,,,,,,,,,,,,AFNE08.jpg,AFSA03.jpg,AFNE07.jpg,AFSA15.jpg,AFSA03.jpg,FS,4,num_6,32,num_8,0.650096173864,,,2017_May_25_1656,60.0106055406,FEMA4ImagesEEG,001,100526,
AFNE01.JPG,AFNE01.JPG,AFNE01.JPG,AFNE01.JPG,AFNE01.JPG,AFNE01.JPG,4,1,41,4,,,,,,,,,,,,,,,,,,,,,,,AFNE16.jpg,AFNE20.jpg,AFSA08.jpg,AFSA20.jpg,AFSA08.jpg,FS,4,num_2,32,num_4,0.416841282742,,,2017_May_25_1656,60.0106055406,FEMA4ImagesEEG,001,100526,
AFNE01.JPG,AFNE01.JPG,AFNE01.JPG,AFNE01.JPG,AFNE01.JPG,AFNE01.JPG,4,2,42,9,,,,,,,,,,,,,,,,,,,,,,,AFNE01.jpg,AFSA17.jpg,AFSA09.jpg,AFNE11.jpg,AFNE01.jpg,FN,3,num_8,32,num_6,0.233520142967,,,2017_May_25_1656,60.0106055406,FEMA4ImagesEEG,001,100526,
AFNE01.JPG,AFNE01.JPG,AFNE01.JPG,AFNE01.JPG,AFNE01.JPG,AFNE01.JPG,4,3,43,2,,,,,,,,,,,,,,,,,,,,,,,AFSA17.jpg,AFNE07.jpg,AFSA03.jpg,AFNE04.jpg,AFNE04.jpg,FN,3,num_4,32,num_8,0.41681017098,,,2017_May_25_1656,60.0106055406,FEMA4ImagesEEG,001,100526,
AFNE01.JPG,AFNE01.JPG,AFNE01.JPG,AFNE01.JPG,AFNE01.JPG,AFNE01.JPG,4,4,44,8,,,,,,,,,,,,,,,,,,,,,,,AFSA05.jpg,AFNE17.jpg,AFSA06.jpg,AFNE08.jpg,AFNE08.jpg,FN,3,num_4,32,num_2,0.333504394628,,,2017_May_25_1656,60.0106055406,FEMA4ImagesEEG,001,100526,
AFNE01.JPG,AFNE01.JPG,AFNE01.JPG,AFNE01.JPG,AFNE01.JPG,AFNE01.JPG,4,5,45,6,,,,,,,,,,,,,,,,,,,,,,,AFSA13.jpg,AFNE19.jpg,AFNE17.jpg,AFSA10.jpg,AFNE19.jpg,FN,3,num_6,16,num_6,0.266832831316,,,2017_May_25_1656,60.0106055406,FEMA4ImagesEEG,001,100526,
AFNE01.JPG,AFNE01.JPG,AFNE01.JPG,AFNE01.JPG,AFNE01.JPG,AFNE01.JPG,4,6,46,7,,,,,,,,,,,,,,,,,,,,,,,AFSA14.jpg,AFNE20.jpg,AFNE11.jpg,AFSA15.jpg,AFSA15.jpg,FS,4,num_4,32,num_8,0.366815799964,,,2017_May_25_1656,60.0106055406,FEMA4ImagesEEG,001,100526,
AFNE01.JPG,AFNE01.JPG,AFNE01.JPG,AFNE01.JPG,AFNE01.JPG,AFNE01.JPG,4,7,47,0,,,,,,,,,,,,,,,,,,,,,,,AFSA12.jpg,AFSA13.jpg,AFNE15.jpg,AFNE16.jpg,AFSA13.jpg,FS,4,num_6,32,num_2,0.366788857849,,,2017_May_25_1656,60.0106055406,FEMA4ImagesEEG,001,100526,
AFNE01.JPG,AFNE01.JPG,AFNE01.JPG,AFNE01.JPG,AFNE01.JPG,AFNE01.JPG,4,8,48,3,,,,,,,,,,,,,,,,,,,,,,,AFSA07.jpg,AFNE09.jpg,AFSA04.jpg,AFNE02.jpg,AFSA04.jpg,FS,4,num_2,16,num_2,0.800309898914,,,2017_May_25_1656,60.0106055406,FEMA4ImagesEEG,001,100526,
AFNE01.JPG,AFNE01.JPG,AFNE01.JPG,AFNE01.JPG,AFNE01.JPG,AFNE01.JPG,4,9,49,5,,,,,,,,,,,,,,,,,,,,,,,AFSA03.jpg,AFNE03.jpg,AFNE11.jpg,AFSA15.jpg,AFNE11.jpg,FN,3,num_2,32,num_8,0.983409407549,,,2017_May_25_1656,60.0106055406,FEMA4ImagesEEG,001,100526,
AFNE01.JPG,AFNE01.JPG,AFNE01.JPG,AFNE01.JPG,AFNE01.JPG,AFNE01.JPG,5,0,50,8,,,,,,,,,,,,,,,,,,,,,,,AFSA17.jpg,AFNE12.jpg,AFNE16.jpg,AFSA11.jpg,AFNE16.jpg,FN,3,num_2,32,num_6,0.91680006776,,,2017_May_25_1656,60.0106055406,FEMA4ImagesEEG,001,100526,
AFNE01.JPG,AFNE01.JPG,AFNE01.JPG,AFNE01.JPG,AFNE01.JPG,AFNE01.JPG,5,1,51,5,,,,,,,,,,,,,,,,,,,,,,,AFNE13.jpg,AFSA11.jpg,AFNE03.jpg,AFSA15.jpg,AFSA15.jpg,FS,4,num_4,32,num_8,0.30015129305,,,2017_May_25_1656,60.0106055406,FEMA4ImagesEEG,001,100526,
AFNE01.JPG,AFNE01.JPG,AFNE01.JPG,AFNE01.JPG,AFNE01.JPG,AFNE01.JPG,5,2,52,4,,,,,,,,,,,,,,,,,,,,,,,AFSA09.jpg,AFSA03.jpg,AFNE19.jpg,AFNE09.jpg,AFNE09.jpg,FN,3,num_4,32,num_6,0.383501010831,,,2017_May_25_1656,60.0106055406,FEMA4ImagesEEG,001,100526,
AFNE01.JPG,AFNE01.JPG,AFNE01.JPG,AFNE01.JPG,AFNE01.JPG,AFNE01.JPG,5,3,53,6,,,,,,,,,,,,,,,,,,,,,,,AFNE05.jpg,AFNE08.jpg,AFSA08.jpg,AFSA16.jpg,AFNE05.jpg,FN,3,num_8,16,num_8,0.86671941774,,,2017_May_25_1656,60.0106055406,FEMA4ImagesEEG,001,100526,
AFNE01.JPG,AFNE01.JPG,AFNE01.JPG,AFNE01.JPG,AFNE01.JPG,AFNE01.JPG,5,4,54,2,,,,,,,,,,,,,,,,,,,,,,,AFNE02.jpg,AFNE13.jpg,AFSA13.jpg,AFSA18.jpg,AFSA18.jpg,FS,4,num_4,16,num_4,1.20013496734,,,2017_May_25_1656,60.0106055406,FEMA4ImagesEEG,001,100526,
AFNE01.JPG,AFNE01.JPG,AFNE01.JPG,AFNE01.JPG,AFNE01.JPG,AFNE01.JPG,5,5,55,1,,,,,,,,,,,,,,,,,,,,,,,AFSA20.jpg,AFSA18.jpg,AFNE03.jpg,AFNE15.jpg,AFNE03.jpg,FN,3,num_2,32,num_4,0.333153184387,,,2017_May_25_1656,60.0106055406,FEMA4ImagesEEG,001,100526,
AFNE01.JPG,AFNE01.JPG,AFNE01.JPG,AFNE01.JPG,AFNE01.JPG,AFNE01.JPG,5,6,56,0,,,,,,,,,,,,,,,,,,,,,,,AFNE10.jpg,AFSA03.jpg,AFSA20.jpg,AFNE17.jpg,AFNE10.jpg,FN,3,num_8,32,num_2,0.483473395114,,,2017_May_25_1656,60.0106055406,FEMA4ImagesEEG,001,100526,
AFNE01.JPG,AFNE01.JPG,AFNE01.JPG,AFNE01.JPG,AFNE01.JPG,AFNE01.JPG,5,7,57,7,,,,,,,,,,,,,,,,,,,,,,,AFSA03.jpg,AFSA07.jpg,AFNE04.jpg,AFNE17.jpg,AFNE04.jpg,FN,3,num_2,32,num_6,1.58340023435,,,2017_May_25_1656,60.0106055406,FEMA4ImagesEEG,001,100526,
AFNE01.JPG,AFNE01.JPG,AFNE01.JPG,AFNE01.JPG,AFNE01.JPG,AFNE01.JPG,5,8,58,9,,,,,,,,,,,,,,,,,,,,,,,AFNE02.jpg,AFSA13.jpg,AFNE12.jpg,AFSA12.jpg,AFSA13.jpg,FS,4,num_6,16,num_6,0.61680433352,,,2017_May_25_1656,60.0106055406,FEMA4ImagesEEG,001,100526,
AFNE01.JPG,AFNE01.JPG,AFNE01.JPG,AFNE01.JPG,AFNE01.JPG,AFNE01.JPG,5,9,59,3,,,,,,,,,,,,,,,,,,,,,,,AFSA18.jpg,AFNE15.jpg,AFSA08.jpg,AFNE03.jpg,AFNE03.jpg,FN,3,num_4,32,num_8,1.03343136213,,,2017_May_25_1656,60.0106055406,FEMA4ImagesEEG,001,100526,
,,,,,,,,,,,,,,,,,,,,,,,,,,,,,,,,,,,,,,,,,,,space,11.0826476181,2017_May_25_1656,60.0106055406,FEMA4ImagesEEG,001,100526,
AFNE01.JPG,AFNE01.JPG,AFNE01.JPG,AFNE01.JPG,AFNE01.JPG,AFNE01.JPG,,,,,0,0,0,6,,,,,,,,,,,,,,,,,,,AMNE13.jpg,AMNE02.jpg,AMSA10.jpg,AMSA07.jpg,AMNE02.jpg,MN,1,num_6,16,num_6,0.616661283537,,,2017_May_25_1656,60.0106055406,FEMA4ImagesEEG,001,100526,
AFNE01.JPG,AFNE01.JPG,AFNE01.JPG,AFNE01.JPG,AFNE01.JPG,AFNE01.JPG,,,,,0,1,1,2,,,,,,,,,,,,,,,,,,,AMNE06.jpg,AMNE05.jpg,AMSA15.jpg,AMSA14.jpg,AMSA15.jpg,MS,2,num_2,32,num_6,0.435139494599,,,2017_May_25_1656,60.0106055406,FEMA4ImagesEEG,001,100526,
AFNE01.JPG,AFNE01.JPG,AFNE01.JPG,AFNE01.JPG,AFNE01.JPG,AFNE01.JPG,,,,,0,2,2,8,,,,,,,,,,,,,,,,,,,AMNE05.jpg,AMSA13.jpg,AMNE13.jpg,AMSA06.jpg,AMNE13.jpg,MN,1,num_2,32,num_8,0.683609004016,,,2017_May_25_1656,60.0106055406,FEMA4ImagesEEG,001,100526,
AFNE01.JPG,AFNE01.JPG,AFNE01.JPG,AFNE01.JPG,AFNE01.JPG,AFNE01.JPG,,,,,0,3,3,5,,,,,,,,,,,,,,,,,,,AMNE16.jpg,AMSA13.jpg,AMNE14.jpg,AMSA11.jpg,AMNE14.jpg,MN,1,num_2,32,num_6,0.666839117883,,,2017_May_25_1656,60.0106055406,FEMA4ImagesEEG,001,100526,
AFNE01.JPG,AFNE01.JPG,AFNE01.JPG,AFNE01.JPG,AFNE01.JPG,AFNE01.JPG,,,,,0,4,4,9,,,,,,,,,,,,,,,,,,,AMNE11.jpg,AMSA15.jpg,AMNE03.jpg,AMSA07.jpg,AMNE03.jpg,MN,1,num_2,32,num_8,0.616768089938,,,2017_May_25_1656,60.0106055406,FEMA4ImagesEEG,001,100526,
AFNE01.JPG,AFNE01.JPG,AFNE01.JPG,AFNE01.JPG,AFNE01.JPG,AFNE01.JPG,,,,,0,5,5,1,,,,,,,,,,,,,,,,,,,AMNE12.jpg,AMSA15.jpg,AMNE01.jpg,AMSA06.jpg,AMNE12.jpg,MN,1,num_8,16,num_8,0.683471727185,,,2017_May_25_1656,60.0106055406,FEMA4ImagesEEG,001,100526,
AFNE01.JPG,AFNE01.JPG,AFNE01.JPG,AFNE01.JPG,AFNE01.JPG,AFNE01.JPG,,,,,0,6,6,7,,,,,,,,,,,,,,,,,,,AMNE14.jpg,AMNE10.jpg,AMSA14.jpg,AMSA09.jpg,AMNE10.jpg,MN,1,num_6,32,num_8,0.633498525014,,,2017_May_25_1656,60.0106055406,FEMA4ImagesEEG,001,100526,
AFNE01.JPG,AFNE01.JPG,AFNE01.JPG,AFNE01.JPG,AFNE01.JPG,AFNE01.JPG,,,,,0,7,7,3,,,,,,,,,,,,,,,,,,,AMNE13.jpg,AMSA09.jpg,AMSA18.jpg,AMNE19.jpg,AMSA09.jpg,MS,2,num_6,16,num_6,0.783434489393,,,2017_May_25_1656,60.0106055406,FEMA4ImagesEEG,001,100526,
AFNE01.JPG,AFNE01.JPG,AFNE01.JPG,AFNE01.JPG,AFNE01.JPG,AFNE01.JPG,,,,,0,8,8,0,,,,,,,,,,,,,,,,,,,AMNE03.jpg,AMSA11.jpg,AMNE10.jpg,AMSA15.jpg,AMSA15.jpg,MS,2,num_4,32,num_6,1.01673492545,,,2017_May_25_1656,60.0106055406,FEMA4ImagesEEG,001,100526,
AFNE01.JPG,AFNE01.JPG,AFNE01.JPG,AFNE01.JPG,AFNE01.JPG,AFNE01.JPG,,,,,0,9,9,4,,,,,,,,,,,,,,,,,,,AMNE01.jpg,AMSA06.jpg,AMNE17.jpg,AMSA18.jpg,AMSA18.jpg,MS,2,num_4,16,num_4,0.633444640785,,,2017_May_25_1656,60.0106055406,FEMA4ImagesEEG,001,100526,
AFNE01.JPG,AFNE01.JPG,AFNE01.JPG,AFNE01.JPG,AFNE01.JPG,AFNE01.JPG,,,,,1,0,10,5,,,,,,,,,,,,,,,,,,,AMSA01.jpg,AMNE05.jpg,AMNE16.jpg,AMSA14.jpg,AMNE16.jpg,MN,1,num_2,16,num_2,1.01673717075,,,2017_May_25_1656,60.0106055406,FEMA4ImagesEEG,001,100526,
AFNE01.JPG,AFNE01.JPG,AFNE01.JPG,AFNE01.JPG,AFNE01.JPG,AFNE01.JPG,,,,,1,1,11,3,,,,,,,,,,,,,,,,,,,AMNE06.jpg,AMSA19.jpg,AMSA04.jpg,AMNE09.jpg,AMNE06.jpg,MN,1,num_8,16,num_8,0.63356555975,,,2017_May_25_1656,60.0106055406,FEMA4ImagesEEG,001,100526,
AFNE01.JPG,AFNE01.JPG,AFNE01.JPG,AFNE01.JPG,AFNE01.JPG,AFNE01.JPG,,,,,1,2,12,1,,,,,,,,,,,,,,,,,,,AMNE12.jpg,AMSA13.jpg,AMNE17.jpg,AMSA18.jpg,AMNE12.jpg,MN,1,num_8,32,num_6,0.250142168021,,,2017_May_25_1656,60.0106055406,FEMA4ImagesEEG,001,100526,
AFNE01.JPG,AFNE01.JPG,AFNE01.JPG,AFNE01.JPG,AFNE01.JPG,AFNE01.JPG,,,,,1,3,13,2,,,,,,,,,,,,,,,,,,,AMSA07.jpg,AMSA14.jpg,AMNE10.jpg,AMNE08.jpg,AMSA07.jpg,MS,2,num_8,32,num_4,1.21679034934,,,2017_May_25_1656,60.0106055406,FEMA4ImagesEEG,001,100526,
AFNE01.JPG,AFNE01.JPG,AFNE01.JPG,AFNE01.JPG,AFNE01.JPG,AFNE01.JPG,,,,,1,4,14,0,,,,,,,,,,,,,,,,,,,AMNE02.jpg,AMSA12.jpg,AMSA09.jpg,AMNE04.jpg,AMSA09.jpg,MS,2,num_2,16,num_2,0.633499166579,,,2017_May_25_1656,60.0106055406,FEMA4ImagesEEG,001,100526,
AFNE01.JPG,AFNE01.JPG,AFNE01.JPG,AFNE01.JPG,AFNE01.JPG,AFNE01.JPG,,,,,1,5,15,4,,,,,,,,,,,,,,,,,,,AMSA09.jpg,AMSA04.jpg,AMNE17.jpg,AMNE16.jpg,AMNE16.jpg,MN,1,num_4,32,num_6,1.45008693659,,,2017_May_25_1656,60.0106055406,FEMA4ImagesEEG,001,100526,
AFNE01.JPG,AFNE01.JPG,AFNE01.JPG,AFNE01.JPG,AFNE01.JPG,AFNE01.JPG,,,,,1,6,16,6,,,,,,,,,,,,,,,,,,,AMNE02.jpg,AMSA02.jpg,AMSA19.jpg,AMNE13.jpg,AMSA02.jpg,MS,2,num_6,32,num_4,0.333499583532,,,2017_May_25_1656,60.0106055406,FEMA4ImagesEEG,001,100526,
AFNE01.JPG,AFNE01.JPG,AFNE01.JPG,AFNE01.JPG,AFNE01.JPG,AFNE01.JPG,,,,,1,7,17,7,,,,,,,,,,,,,,,,,,,AMSA12.jpg,AMNE02.jpg,AMSA03.jpg,AMNE18.jpg,AMNE18.jpg,MN,1,num_4,32,num_2,0.250180977513,,,2017_May_25_1656,60.0106055406,FEMA4ImagesEEG,001,100526,
AFNE01.JPG,AFNE01.JPG,AFNE01.JPG,AFNE01.JPG,AFNE01.JPG,AFNE01.JPG,,,,,1,8,18,8,,,,,,,,,,,,,,,,,,,AMSA06.jpg,AMSA20.jpg,AMNE02.jpg,AMNE12.jpg,AMNE12.jpg,MN,1,num_4,32,num_6,0.466810636222,,,2017_May_25_1656,60.0106055406,FEMA4ImagesEEG,001,100526,
AFNE01.JPG,AFNE01.JPG,AFNE01.JPG,AFNE01.JPG,AFNE01.JPG,AFNE01.JPG,,,,,1,9,19,9,,,,,,,,,,,,,,,,,,,AMNE14.jpg,AMSA13.jpg,AMNE12.jpg,AMSA20.jpg,AMNE12.jpg,MN,1,num_2,32,num_6,1.1503673594,,,2017_May_25_1656,60.0106055406,FEMA4ImagesEEG,001,100526,
AFNE01.JPG,AFNE01.JPG,AFNE01.JPG,AFNE01.JPG,AFNE01.JPG,AFNE01.JPG,,,,,2,0,20,5,,,,,,,,,,,,,,,,,,,AMSA10.jpg,AMSA02.jpg,AMNE01.jpg,AMNE03.jpg,AMSA10.jpg,MS,2,num_8,32,num_4,0.900103310356,,,2017_May_25_1656,60.0106055406,FEMA4ImagesEEG,001,100526,
AFNE01.JPG,AFNE01.JPG,AFNE01.JPG,AFNE01.JPG,AFNE01.JPG,AFNE01.JPG,,,,,2,1,21,9,,,,,,,,,,,,,,,,,,,AMNE10.jpg,AMSA15.jpg,AMSA07.jpg,AMNE03.jpg,AMNE10.jpg,MN,1,num_8,32,num_6,0.450223571737,,,2017_May_25_1656,60.0106055406,FEMA4ImagesEEG,001,100526,
AFNE01.JPG,AFNE01.JPG,AFNE01.JPG,AFNE01.JPG,AFNE01.JPG,AFNE01.JPG,,,,,2,2,22,3,,,,,,,,,,,,,,,,,,,AMSA07.jpg,AMSA14.jpg,AMNE14.jpg,AMNE05.jpg,AMSA14.jpg,MS,2,num_6,16,num_6,0.850145503646,,,2017_May_25_1656,60.0106055406,FEMA4ImagesEEG,001,100526,
AFNE01.JPG,AFNE01.JPG,AFNE01.JPG,AFNE01.JPG,AFNE01.JPG,AFNE01.JPG,,,,,2,3,23,7,,,,,,,,,,,,,,,,,,,AMSA20.jpg,AMNE11.jpg,AMNE13.jpg,AMSA15.jpg,AMNE13.jpg,MN,1,num_2,32,num_8,0.366869363585,,,2017_May_25_1656,60.0106055406,FEMA4ImagesEEG,001,100526,
AFNE01.JPG,AFNE01.JPG,AFNE01.JPG,AFNE01.JPG,AFNE01.JPG,AFNE01.JPG,,,,,2,4,24,4,,,,,,,,,,,,,,,,,,,AMSA10.jpg,AMNE01.jpg,AMSA06.jpg,AMNE13.jpg,AMNE13.jpg,MN,1,num_4,32,num_6,1.10007983225,,,2017_May_25_1656,60.0106055406,FEMA4ImagesEEG,001,100526,
AFNE01.JPG,AFNE01.JPG,AFNE01.JPG,AFNE01.JPG,AFNE01.JPG,AFNE01.JPG,,,,,2,5,25,1,,,,,,,,,,,,,,,,,,,AMSA06.jpg,AMNE13.jpg,AMSA14.jpg,AMNE06.jpg,AMSA06.jpg,MS,2,num_8,32,num_4,0.850104769692,,,2017_May_25_1656,60.0106055406,FEMA4ImagesEEG,001,100526,
AFNE01.JPG,AFNE01.JPG,AFNE01.JPG,AFNE01.JPG,AFNE01.JPG,AFNE01.JPG,,,,,2,6,26,2,,,,,,,,,,,,,,,,,,,AMSA01.jpg,AMSA17.jpg,AMNE01.jpg,AMNE05.jpg,AMSA01.jpg,MS,2,num_8,32,num_2,1.00017223728,,,2017_May_25_1656,60.0106055406,FEMA4ImagesEEG,001,100526,
AFNE01.JPG,AFNE01.JPG,AFNE01.JPG,AFNE01.JPG,AFNE01.JPG,AFNE01.JPG,,,,,2,7,27,6,,,,,,,,,,,,,,,,,,,AMNE12.jpg,AMNE15.jpg,AMSA17.jpg,AMSA16.jpg,AMSA16.jpg,MS,2,num_4,32,num_8,0.48346954619,,,2017_May_25_1656,60.0106055406,FEMA4ImagesEEG,001,100526,
AFNE01.JPG,AFNE01.JPG,AFNE01.JPG,AFNE01.JPG,AFNE01.JPG,AFNE01.JPG,,,,,2,8,28,0,,,,,,,,,,,,,,,,,,,AMSA17.jpg,AMNE08.jpg,AMNE19.jpg,AMSA11.jpg,AMSA11.jpg,MS,2,num_4,32,num_6,0.583465985954,,,2017_May_25_1656,60.0106055406,FEMA4ImagesEEG,001,100526,
AFNE01.JPG,AFNE01.JPG,AFNE01.JPG,AFNE01.JPG,AFNE01.JPG,AFNE01.JPG,,,,,2,9,29,8,,,,,,,,,,,,,,,,,,,AMSA04.jpg,AMSA18.jpg,AMNE09.jpg,AMNE18.jpg,AMSA04.jpg,MS,2,num_8,32,num_4,0.88350951043,,,2017_May_25_1656,60.0106055406,FEMA4ImagesEEG,001,100526,
AFNE01.JPG,AFNE01.JPG,AFNE01.JPG,AFNE01.JPG,AFNE01.JPG,AFNE01.JPG,,,,,3,0,30,8,,,,,,,,,,,,,,,,,,,AMNE03.jpg,AMSA03.jpg,AMNE19.jpg,AMSA18.jpg,AMSA03.jpg,MS,2,num_6,16,num_6,0.700197351282,,,2017_May_25_1656,60.0106055406,FEMA4ImagesEEG,001,100526,
AFNE01.JPG,AFNE01.JPG,AFNE01.JPG,AFNE01.JPG,AFNE01.JPG,AFNE01.JPG,,,,,3,1,31,6,,,,,,,,,,,,,,,,,,,AMSA06.jpg,AMNE03.jpg,AMNE14.jpg,AMSA20.jpg,AMSA20.jpg,MS,2,num_4,32,num_6,0.666807043832,,,2017_May_25_1656,60.0106055406,FEMA4ImagesEEG,001,100526,
AFNE01.JPG,AFNE01.JPG,AFNE01.JPG,AFNE01.JPG,AFNE01.JPG,AFNE01.JPG,,,,,3,2,32,9,,,,,,,,,,,,,,,,,,,AMNE11.jpg,AMSA17.jpg,AMNE18.jpg,AMSA10.jpg,AMSA10.jpg,MS,2,num_4,16,num_4,0.500199019094,,,2017_May_25_1656,60.0106055406,FEMA4ImagesEEG,001,100526,
AFNE01.JPG,AFNE01.JPG,AFNE01.JPG,AFNE01.JPG,AFNE01.JPG,AFNE01.JPG,,,,,3,3,33,3,,,,,,,,,,,,,,,,,,,AMNE04.jpg,AMSA03.jpg,AMNE19.jpg,AMSA09.jpg,AMSA09.jpg,MS,2,num_4,32,num_8,0.800101097208,,,2017_May_25_1656,60.0106055406,FEMA4ImagesEEG,001,100526,
AFNE01.JPG,AFNE01.JPG,AFNE01.JPG,AFNE01.JPG,AFNE01.JPG,AFNE01.JPG,,,,,3,4,34,0,,,,,,,,,,,,,,,,,,,AMSA07.jpg,AMNE18.jpg,AMSA06.jpg,AMNE01.jpg,AMNE18.jpg,MN,1,num_6,32,num_2,0.266812945483,,,2017_May_25_1656,60.0106055406,FEMA4ImagesEEG,001,100526,
AFNE01.JPG,AFNE01.JPG,AFNE01.JPG,AFNE01.JPG,AFNE01.JPG,AFNE01.JPG,,,,,3,5,35,7,,,,,,,,,,,,,,,,,,,AMNE15.jpg,AMSA10.jpg,AMNE01.jpg,AMSA01.jpg,AMSA01.jpg,MS,2,num_4,16,num_4,0.333508243435,,,2017_May_25_1656,60.0106055406,FEMA4ImagesEEG,001,100526,
AFNE01.JPG,AFNE01.JPG,AFNE01.JPG,AFNE01.JPG,AFNE01.JPG,AFNE01.JPG,,,,,3,6,36,4,,,,,,,,,,,,,,,,,,,AMNE06.jpg,AMSA09.jpg,AMSA05.jpg,AMNE11.jpg,AMNE06.jpg,MN,1,num_8,16,num_8,0.383510312298,,,2017_May_25_1656,60.0106055406,FEMA4ImagesEEG,001,100526,
AFNE01.JPG,AFNE01.JPG,AFNE01.JPG,AFNE01.JPG,AFNE01.JPG,AFNE01.JPG,,,,,3,7,37,2,,,,,,,,,,,,,,,,,,,AMNE14.jpg,AMNE19.jpg,AMSA20.jpg,AMSA19.jpg,AMSA20.jpg,MS,2,num_2,16,num_2,0.266781512881,,,2017_May_25_1656,60.0106055406,FEMA4ImagesEEG,001,100526,
AFNE01.JPG,AFNE01.JPG,AFNE01.JPG,AFNE01.JPG,AFNE01.JPG,AFNE01.JPG,,,,,3,8,38,5,,,,,,,,,,,,,,,,,,,AMNE01.jpg,AMSA15.jpg,AMNE14.jpg,AMSA18.jpg,AMSA18.jpg,MS,2,num_4,32,num_8,0.300164443324,,,2017_May_25_1656,60.0106055406,FEMA4ImagesEEG,001,100526,
AFNE01.JPG,AFNE01.JPG,AFNE01.JPG,AFNE01.JPG,AFNE01.JPG,AFNE01.JPG,,,,,3,9,39,1,,,,,,,,,,,,,,,,,,,AMSA01.jpg,AMNE07.jpg,AMNE04.jpg,AMSA12.jpg,AMSA01.jpg,MS,2,num_8,32,num_6,0.600126179052,,,2017_May_25_1656,60.0106055406,FEMA4ImagesEEG,001,100526,
AFNE01.JPG,AFNE01.JPG,AFNE01.JPG,AFNE01.JPG,AFNE01.JPG,AFNE01.JPG,,,,,4,0,40,7,,,,,,,,,,,,,,,,,,,AMSA15.jpg,AMSA16.jpg,AMNE20.jpg,AMNE15.jpg,AMSA16.jpg,MS,2,num_6,32,num_8,0.450145952636,,,2017_May_25_1656,60.0106055406,FEMA4ImagesEEG,001,100526,
AFNE01.JPG,AFNE01.JPG,AFNE01.JPG,AFNE01.JPG,AFNE01.JPG,AFNE01.JPG,,,,,4,1,41,6,,,,,,,,,,,,,,,,,,,AMSA06.jpg,AMNE02.jpg,AMSA02.jpg,AMNE12.jpg,AMNE12.jpg,MN,1,num_4,32,num_2,0.383447126485,,,2017_May_25_1656,60.0106055406,FEMA4ImagesEEG,001,100526,
AFNE01.JPG,AFNE01.JPG,AFNE01.JPG,AFNE01.JPG,AFNE01.JPG,AFNE01.JPG,,,,,4,2,42,4,,,,,,,,,,,,,,,,,,,AMSA17.jpg,AMNE12.jpg,AMNE02.jpg,AMSA20.jpg,AMNE12.jpg,MN,1,num_6,32,num_4,0.46681095683,,,2017_May_25_1656,60.0106055406,FEMA4ImagesEEG,001,100526,
AFNE01.JPG,AFNE01.JPG,AFNE01.JPG,AFNE01.JPG,AFNE01.JPG,AFNE01.JPG,,,,,4,3,43,5,,,,,,,,,,,,,,,,,,,AMNE12.jpg,AMSA06.jpg,AMSA18.jpg,AMNE20.jpg,AMSA06.jpg,MS,2,num_6,32,num_8,0.933436205261,,,2017_May_25_1656,60.0106055406,FEMA4ImagesEEG,001,100526,
AFNE01.JPG,AFNE01.JPG,AFNE01.JPG,AFNE01.JPG,AFNE01.JPG,AFNE01.JPG,,,,,4,4,44,1,,,,,,,,,,,,,,,,,,,AMSA02.jpg,AMNE14.jpg,AMNE13.jpg,AMSA01.jpg,AMSA02.jpg,MS,2,num_8,32,num_2,0.900094329612,,,2017_May_25_1656,60.0106055406,FEMA4ImagesEEG,001,100526,
AFNE01.JPG,AFNE01.JPG,AFNE01.JPG,AFNE01.JPG,AFNE01.JPG,AFNE01.JPG,,,,,4,5,45,9,,,,,,,,,,,,,,,,,,,AMNE14.jpg,AMSA06.jpg,AMSA09.jpg,AMNE05.jpg,AMNE14.jpg,MN,1,num_8,16,num_8,1.23341814766,,,2017_May_25_1656,60.0106055406,FEMA4ImagesEEG,001,100526,
AFNE01.JPG,AFNE01.JPG,AFNE01.JPG,AFNE01.JPG,AFNE01.JPG,AFNE01.JPG,,,,,4,6,46,8,,,,,,,,,,,,,,,,,,,AMSA20.jpg,AMNE19.jpg,AMNE16.jpg,AMSA12.jpg,AMNE19.jpg,MN,1,num_6,16,num_6,0.700090865605,,,2017_May_25_1656,60.0106055406,FEMA4ImagesEEG,001,100526,
AFNE01.JPG,AFNE01.JPG,AFNE01.JPG,AFNE01.JPG,AFNE01.JPG,AFNE01.JPG,,,,,4,7,47,2,,,,,,,,,,,,,,,,,,,AMSA08.jpg,AMNE02.jpg,AMNE07.jpg,AMSA09.jpg,AMNE07.jpg,MN,1,num_2,32,num_4,0.716765812715,,,2017_May_25_1656,60.0106055406,FEMA4ImagesEEG,001,100526,
AFNE01.JPG,AFNE01.JPG,AFNE01.JPG,AFNE01.JPG,AFNE01.JPG,AFNE01.JPG,,,,,4,8,48,3,,,,,,,,,,,,,,,,,,,AMSA13.jpg,AMNE15.jpg,AMSA02.jpg,AMNE08.jpg,AMNE08.jpg,MN,1,num_4,32,num_8,0.416791888885,,,2017_May_25_1656,60.0106055406,FEMA4ImagesEEG,001,100526,
AFNE01.JPG,AFNE01.JPG,AFNE01.JPG,AFNE01.JPG,AFNE01.JPG,AFNE01.JPG,,,,,4,9,49,0,,,,,,,,,,,,,,,,,,,AMSA18.jpg,AMNE18.jpg,AMNE09.jpg,AMSA15.jpg,AMSA15.jpg,MS,2,num_4,32,num_2,0.450109388446,,,2017_May_25_1656,60.0106055406,FEMA4ImagesEEG,001,100526,
AFNE01.JPG,AFNE01.JPG,AFNE01.JPG,AFNE01.JPG,AFNE01.JPG,AFNE01.JPG,,,,,5,0,50,9,,,,,,,,,,,,,,,,,,,AMNE20.jpg,AMSA17.jpg,AMSA07.jpg,AMNE03.jpg,AMNE03.jpg,MN,1,num_4,16,num_4,0.516772612347,,,2017_May_25_1656,60.0106055406,FEMA4ImagesEEG,001,100526,
AFNE01.JPG,AFNE01.JPG,AFNE01.JPG,AFNE01.JPG,AFNE01.JPG,AFNE01.JPG,,,,,5,1,51,2,,,,,,,,,,,,,,,,,,,AMNE13.jpg,AMSA03.jpg,AMNE14.jpg,AMSA10.jpg,AMSA10.jpg,MS,2,num_4,32,num_6,0.516773253796,,,2017_May_25_1656,60.0106055406,FEMA4ImagesEEG,001,100526,
AFNE01.JPG,AFNE01.JPG,AFNE01.JPG,AFNE01.JPG,AFNE01.JPG,AFNE01.JPG,,,,,5,2,52,4,,,,,,,,,,,,,,,,,,,AMSA20.jpg,AMSA07.jpg,AMNE12.jpg,AMNE09.jpg,AMSA07.jpg,MS,2,num_6,32,num_2,1.78345084714,,,2017_May_25_1656,60.0106055406,FEMA4ImagesEEG,001,100526,
AFNE01.JPG,AFNE01.JPG,AFNE01.JPG,AFNE01.JPG,AFNE01.JPG,AFNE01.JPG,,,,,5,3,53,1,,,,,,,,,,,,,,,,,,,AMNE18.jpg,AMSA06.jpg,AMSA09.jpg,AMNE05.jpg,AMNE18.jpg,MN,1,num_8,16,num_8,1.8834229107,,,2017_May_25_1656,60.0106055406,FEMA4ImagesEEG,001,100526,
AFNE01.JPG,AFNE01.JPG,AFNE01.JPG,AFNE01.JPG,AFNE01.JPG,AFNE01.JPG,,,,,5,4,54,6,,,,,,,,,,,,,,,,,,,AMSA17.jpg,AMNE17.jpg,AMSA14.jpg,AMNE12.jpg,AMNE12.jpg,MN,1,num_4,32,num_8,0.700231991126,,,2017_May_25_1656,60.0106055406,FEMA4ImagesEEG,001,100526,
AFNE01.JPG,AFNE01.JPG,AFNE01.JPG,AFNE01.JPG,AFNE01.JPG,AFNE01.JPG,,,,,5,5,55,5,,,,,,,,,,,,,,,,,,,AMSA11.jpg,AMNE10.jpg,AMSA05.jpg,AMNE14.jpg,AMSA05.jpg,MS,2,num_2,32,num_4,0.266791455797,,,2017_May_25_1656,60.0106055406,FEMA4ImagesEEG,001,100526,
AFNE01.JPG,AFNE01.JPG,AFNE01.JPG,AFNE01.JPG,AFNE01.JPG,AFNE01.JPG,,,,,5,6,56,0,,,,,,,,,,,,,,,,,,,AMSA07.jpg,AMNE09.jpg,AMNE03.jpg,AMSA20.jpg,AMNE09.jpg,MN,1,num_6,16,num_6,0.300150972209,,,2017_May_25_1656,60.0106055406,FEMA4ImagesEEG,001,100526,
AFNE01.JPG,AFNE01.JPG,AFNE01.JPG,AFNE01.JPG,AFNE01.JPG,AFNE01.JPG,,,,,5,7,57,3,,,,,,,,,,,,,,,,,,,AMSA06.jpg,AMSA01.jpg,AMNE11.jpg,AMNE16.jpg,AMNE16.jpg,MN,1,num_4,32,num_2,0.717124079238,,,2017_May_25_1656,60.0106055406,FEMA4ImagesEEG,001,100526,
AFNE01.JPG,AFNE01.JPG,AFNE01.JPG,AFNE01.JPG,AFNE01.JPG,AFNE01.JPG,,,,,5,8,58,7,,,,,,,,,,,,,,,,,,,AMNE18.jpg,AMSA19.jpg,AMNE19.jpg,AMSA07.jpg,AMNE19.jpg,MN,1,num_2,16,num_2,0.550140147214,,,2017_May_25_1656,60.0106055406,FEMA4ImagesEEG,001,100526,
AFNE01.JPG,AFNE01.JPG,AFNE01.JPG,AFNE01.JPG,AFNE01.JPG,AFNE01.JPG,,,,,5,9,59,8,,,,,,,,,,,,,,,,,,,AMNE16.jpg,AMSA18.jpg,AMSA10.jpg,AMNE18.jpg,AMSA10.jpg,MS,2,num_2,32,num_6,0.800165565917,,,2017_May_25_1656,60.0106055406,FEMA4ImagesEEG,001,100526,
,,,,,,,,,,,,,,,,,,,,,,,,,,,,,,,,,,,,,,,,,,,space,6.01639718644,2017_May_25_1656,60.0106055406,FEMA4ImagesEEG,001,100526,
AFNE01.JPG,AFNE01.JPG,AFNE01.JPG,AFNE01.JPG,AFNE01.JPG,AFNE01.JPG,,,,,,,,,0,0,0,5,,,,,,,,,,,,,,,AFSA05.jpg,AFNE04.jpg,AFSA02.jpg,AFNE06.jpg,AFSA05.jpg,FS,4,num_8,32,num_4,0.383498765645,,,2017_May_25_1656,60.0106055406,FEMA4ImagesEEG,001,100526,
AFNE01.JPG,AFNE01.JPG,AFNE01.JPG,AFNE01.JPG,AFNE01.JPG,AFNE01.JPG,,,,,,,,,0,1,1,3,,,,,,,,,,,,,,,AFNE03.jpg,AFSA10.jpg,AFNE19.jpg,AFSA19.jpg,AFNE19.jpg,FN,3,num_2,16,num_2,1.28350008058,,,2017_May_25_1656,60.0106055406,FEMA4ImagesEEG,001,100526,
AFNE01.JPG,AFNE01.JPG,AFNE01.JPG,AFNE01.JPG,AFNE01.JPG,AFNE01.JPG,,,,,,,,,0,2,2,2,,,,,,,,,,,,,,,AFSA05.jpg,AFSA02.jpg,AFNE17.jpg,AFNE19.jpg,AFNE17.jpg,FN,3,num_2,32,num_8,0.850144220633,,,2017_May_25_1656,60.0106055406,FEMA4ImagesEEG,001,100526,
AFNE01.JPG,AFNE01.JPG,AFNE01.JPG,AFNE01.JPG,AFNE01.JPG,AFNE01.JPG,,,,,,,,,0,3,3,7,,,,,,,,,,,,,,,AFSA16.jpg,AFNE01.jpg,AFSA05.jpg,AFNE10.jpg,AFNE01.jpg,FN,3,num_6,32,num_2,0.250168147846,,,2017_May_25_1656,60.0106055406,FEMA4ImagesEEG,001,100526,
AFNE01.JPG,AFNE01.JPG,AFNE01.JPG,AFNE01.JPG,AFNE01.JPG,AFNE01.JPG,,,,,,,,,0,4,4,0,,,,,,,,,,,,,,,AFSA06.jpg,AFSA09.jpg,AFNE04.jpg,AFNE06.jpg,AFSA09.jpg,FS,4,num_6,32,num_4,0.433489287854,,,2017_May_25_1656,60.0106055406,FEMA4ImagesEEG,001,100526,
AFNE01.JPG,AFNE01.JPG,AFNE01.JPG,AFNE01.JPG,AFNE01.JPG,AFNE01.JPG,,,,,,,,,0,5,5,9,,,,,,,,,,,,,,,AFNE19.jpg,AFSA06.jpg,AFNE15.jpg,AFSA03.jpg,AFSA03.jpg,FS,4,num_4,32,num_6,0.566812207806,,,2017_May_25_1656,60.0106055406,FEMA4ImagesEEG,001,100526,
AFNE01.JPG,AFNE01.JPG,AFNE01.JPG,AFNE01.JPG,AFNE01.JPG,AFNE01.JPG,,,,,,,,,0,6,6,1,,,,,,,,,,,,,,,AFNE07.jpg,AFSA06.jpg,AFNE15.jpg,AFSA08.jpg,AFSA06.jpg,FS,4,num_6,32,num_8,0.366841459181,,,2017_May_25_1656,60.0106055406,FEMA4ImagesEEG,001,100526,
AFNE01.JPG,AFNE01.JPG,AFNE01.JPG,AFNE01.JPG,AFNE01.JPG,AFNE01.JPG,,,,,,,,,0,7,7,4,,,,,,,,,,,,,,,AFSA02.jpg,AFNE02.jpg,AFNE09.jpg,AFSA05.jpg,AFSA02.jpg,FS,4,num_8,32,num_4,0.517042354681,,,2017_May_25_1656,60.0106055406,FEMA4ImagesEEG,001,100526,
AFNE01.JPG,AFNE01.JPG,AFNE01.JPG,AFNE01.JPG,AFNE01.JPG,AFNE01.JPG,,,,,,,,,0,8,8,6,,,,,,,,,,,,,,,AFNE10.jpg,AFSA12.jpg,AFSA14.jpg,AFNE19.jpg,AFSA14.jpg,FS,4,num_2,32,num_8,0.800124190515,,,2017_May_25_1656,60.0106055406,FEMA4ImagesEEG,001,100526,
AFNE01.JPG,AFNE01.JPG,AFNE01.JPG,AFNE01.JPG,AFNE01.JPG,AFNE01.JPG,,,,,,,,,0,9,9,8,,,,,,,,,,,,,,,AFNE06.jpg,AFNE14.jpg,AFSA16.jpg,AFSA08.jpg,AFSA08.jpg,FS,4,num_4,16,num_4,0.450139217195,,,2017_May_25_1656,60.0106055406,FEMA4ImagesEEG,001,100526,
AFNE01.JPG,AFNE01.JPG,AFNE01.JPG,AFNE01.JPG,AFNE01.JPG,AFNE01.JPG,,,,,,,,,1,0,10,3,,,,,,,,,,,,,,,AFSA14.jpg,AFNE17.jpg,AFNE05.jpg,AFSA05.jpg,AFSA14.jpg,FS,4,num_8,16,num_8,0.333481301321,,,2017_May_25_1656,60.0106055406,FEMA4ImagesEEG,001,100526,
AFNE01.JPG,AFNE01.JPG,AFNE01.JPG,AFNE01.JPG,AFNE01.JPG,AFNE01.JPG,,,,,,,,,1,1,11,5,,,,,,,,,,,,,,,AFSA04.jpg,AFNE16.jpg,AFNE09.jpg,AFSA15.jpg,AFNE16.jpg,FN,3,num_6,32,num_4,0.81677444058,,,2017_May_25_1656,60.0106055406,FEMA4ImagesEEG,001,100526,
AFNE01.JPG,AFNE01.JPG,AFNE01.JPG,AFNE01.JPG,AFNE01.JPG,AFNE01.JPG,,,,,,,,,1,2,12,1,,,,,,,,,,,,,,,AFNE09.jpg,AFSA10.jpg,AFNE12.jpg,AFSA09.jpg,AFNE09.jpg,FN,3,num_8,16,num_8,0.983290412929,,,2017_May_25_1656,60.0106055406,FEMA4ImagesEEG,001,100526,
AFNE01.JPG,AFNE01.JPG,AFNE01.JPG,AFNE01.JPG,AFNE01.JPG,AFNE01.JPG,,,,,,,,,1,3,13,7,,,,,,,,,,,,,,,AFNE12.jpg,AFSA16.jpg,AFNE20.jpg,AFSA04.jpg,AFNE12.jpg,FN,3,num_8,32,num_2,1.25008892512,,,2017_May_25_1656,60.0106055406,FEMA4ImagesEEG,001,100526,
AFNE01.JPG,AFNE01.JPG,AFNE01.JPG,AFNE01.JPG,AFNE01.JPG,AFNE01.JPG,,,,,,,,,1,4,14,6,,,,,,,,,,,,,,,AFNE03.jpg,AFNE11.jpg,AFSA20.jpg,AFSA09.jpg,AFSA20.jpg,FS,4,num_2,32,num_4,0.900128648849,,,2017_May_25_1656,60.0106055406,FEMA4ImagesEEG,001,100526,
AFNE01.JPG,AFNE01.JPG,AFNE01.JPG,AFNE01.JPG,AFNE01.JPG,AFNE01.JPG,,,,,,,,,1,5,15,4,,,,,,,,,,,,,,,AFNE04.jpg,AFSA07.jpg,AFNE07.jpg,AFSA09.jpg,AFSA09.jpg,FS,4,num_4,16,num_4,0.583451552666,,,2017_May_25_1656,60.0106055406,FEMA4ImagesEEG,001,100526,
AFNE01.JPG,AFNE01.JPG,AFNE01.JPG,AFNE01.JPG,AFNE01.JPG,AFNE01.JPG,,,,,,,,,1,6,16,0,,,,,,,,,,,,,,,AFNE20.jpg,AFNE11.jpg,AFSA16.jpg,AFSA09.jpg,AFSA09.jpg,FS,4,num_4,16,num_4,0.500099269091,,,2017_May_25_1656,60.0106055406,FEMA4ImagesEEG,001,100526,
AFNE01.JPG,AFNE01.JPG,AFNE01.JPG,AFNE01.JPG,AFNE01.JPG,AFNE01.JPG,,,,,,,,,1,7,17,8,,,,,,,,,,,,,,,AFSA14.jpg,AFNE01.jpg,AFNE08.jpg,AFSA12.jpg,AFNE08.jpg,FN,3,num_2,32,num_6,0.750181779265,,,2017_May_25_1656,60.0106055406,FEMA4ImagesEEG,001,100526,
AFNE01.JPG,AFNE01.JPG,AFNE01.JPG,AFNE01.JPG,AFNE01.JPG,AFNE01.JPG,,,,,,,,,1,8,18,9,,,,,,,,,,,,,,,AFNE14.jpg,AFNE01.jpg,AFSA20.jpg,AFSA10.jpg,AFSA10.jpg,FS,4,num_4,32,num_6,1.38338746887,,,2017_May_25_1656,60.0106055406,FEMA4ImagesEEG,001,100526,
AFNE01.JPG,AFNE01.JPG,AFNE01.JPG,AFNE01.JPG,AFNE01.JPG,AFNE01.JPG,,,,,,,,,1,9,19,2,,,,,,,,,,,,,,,AFSA14.jpg,AFNE19.jpg,AFSA04.jpg,AFNE17.jpg,AFNE17.jpg,FN,3,num_4,32,num_2,0.433464590809,,,2017_May_25_1656,60.0106055406,FEMA4ImagesEEG,001,100526,
AFNE01.JPG,AFNE01.JPG,AFNE01.JPG,AFNE01.JPG,AFNE01.JPG,AFNE01.JPG,,,,,,,,,2,0,20,9,,,,,,,,,,,,,,,AFSA01.jpg,AFNE08.jpg,AFNE12.jpg,AFSA18.jpg,AFNE12.jpg,FN,3,num_2,32,num_8,0.316805071314,,,2017_May_25_1656,60.0106055406,FEMA4ImagesEEG,001,100526,
AFNE01.JPG,AFNE01.JPG,AFNE01.JPG,AFNE01.JPG,AFNE01.JPG,AFNE01.JPG,,,,,,,,,2,1,21,2,,,,,,,,,,,,,,,AFSA10.jpg,AFSA16.jpg,AFNE16.jpg,AFNE13.jpg,AFSA10.jpg,FS,4,num_8,32,num_4,0.250147299725,,,2017_May_25_1656,60.0106055406,FEMA4ImagesEEG,001,100526,
AFNE01.JPG,AFNE01.JPG,AFNE01.JPG,AFNE01.JPG,AFNE01.JPG,AFNE01.JPG,,,,,,,,,2,2,22,8,,,,,,,,,,,,,,,AFSA10.jpg,AFSA02.jpg,AFNE15.jpg,AFNE16.jpg,AFSA10.jpg,FS,4,num_8,16,num_8,1.16683863674,,,2017_May_25_1656,60.0106055406,FEMA4ImagesEEG,001,100526,
AFNE01.JPG,AFNE01.JPG,AFNE01.JPG,AFNE01.JPG,AFNE01.JPG,AFNE01.JPG,,,,,,,,,2,3,23,4,,,,,,,,,,,,,,,AFNE20.jpg,AFNE17.jpg,AFSA20.jpg,AFSA04.jpg,AFSA20.jpg,FS,4,num_2,16,num_2,0.800107832765,,,2017_May_25_1656,60.0106055406,FEMA4ImagesEEG,001,100526,
AFNE01.JPG,AFNE01.JPG,AFNE01.JPG,AFNE01.JPG,AFNE01.JPG,AFNE01.JPG,,,,,,,,,2,4,24,5,,,,,,,,,,,,,,,AFSA16.jpg,AFNE09.jpg,AFSA06.jpg,AFNE03.jpg,AFSA16.jpg,FS,4,num_8,16,num_8,0.666779139545,,,2017_May_25_1656,60.0106055406,FEMA4ImagesEEG,001,100526,
AFNE01.JPG,AFNE01.JPG,AFNE01.JPG,AFNE01.JPG,AFNE01.JPG,AFNE01.JPG,,,,,,,,,2,5,25,7,,,,,,,,,,,,,,,AFSA03.jpg,AFNE17.jpg,AFSA01.jpg,AFNE05.jpg,AFSA03.jpg,FS,4,num_8,16,num_8,0.800133812707,,,2017_May_25_1656,60.0106055406,FEMA4ImagesEEG,001,100526,
AFNE01.JPG,AFNE01.JPG,AFNE01.JPG,AFNE01.JPG,AFNE01.JPG,AFNE01.JPG,,,,,,,,,2,6,26,6,,,,,,,,,,,,,,,AFSA19.jpg,AFNE19.jpg,AFSA11.jpg,AFNE14.jpg,AFSA11.jpg,FS,4,num_2,16,num_2,0.500184585806,,,2017_May_25_1656,60.0106055406,FEMA4ImagesEEG,001,100526,
AFNE01.JPG,AFNE01.JPG,AFNE01.JPG,AFNE01.JPG,AFNE01.JPG,AFNE01.JPG,,,,,,,,,2,7,27,3,,,,,,,,,,,,,,,AFNE02.jpg,AFSA19.jpg,AFSA02.jpg,AFNE18.jpg,AFSA19.jpg,FS,4,num_6,32,num_4,0.783424225636,,,2017_May_25_1656,60.0106055406,FEMA4ImagesEEG,001,100526,
AFNE01.JPG,AFNE01.JPG,AFNE01.JPG,AFNE01.JPG,AFNE01.JPG,AFNE01.JPG,,,,,,,,,2,8,28,1,,,,,,,,,,,,,,,AFSA11.jpg,AFSA03.jpg,AFNE13.jpg,AFNE20.jpg,AFSA03.jpg,FS,4,num_6,32,num_4,0.616783485515,,,2017_May_25_1656,60.0106055406,FEMA4ImagesEEG,001,100526,
AFNE01.JPG,AFNE01.JPG,AFNE01.JPG,AFNE01.JPG,AFNE01.JPG,AFNE01.JPG,,,,,,,,,2,9,29,0,,,,,,,,,,,,,,,AFSA04.jpg,AFNE07.jpg,AFNE15.jpg,AFSA08.jpg,AFSA08.jpg,FS,4,num_4,32,num_2,0.700126788463,,,2017_May_25_1656,60.0106055406,FEMA4ImagesEEG,001,100526,
AFNE01.JPG,AFNE01.JPG,AFNE01.JPG,AFNE01.JPG,AFNE01.JPG,AFNE01.JPG,,,,,,,,,3,0,30,7,,,,,,,,,,,,,,,AFNE09.jpg,AFSA04.jpg,AFNE05.jpg,AFSA05.jpg,AFNE05.jpg,FN,3,num_2,32,num_6,0.316867294838,,,2017_May_25_1656,60.0106055406,FEMA4ImagesEEG,001,100526,
AFNE01.JPG,AFNE01.JPG,AFNE01.JPG,AFNE01.JPG,AFNE01.JPG,AFNE01.JPG,,,,,,,,,3,1,31,5,,,,,,,,,,,,,,,AFNE04.jpg,AFSA03.jpg,AFSA02.jpg,AFNE20.jpg,AFNE04.jpg,FN,3,num_8,16,num_8,0.666755404789,,,2017_May_25_1656,60.0106055406,FEMA4ImagesEEG,001,100526,
AFNE01.JPG,AFNE01.JPG,AFNE01.JPG,AFNE01.JPG,AFNE01.JPG,AFNE01.JPG,,,,,,,,,3,2,32,0,,,,,,,,,,,,,,,AFNE06.jpg,AFSA07.jpg,AFSA09.jpg,AFNE04.jpg,AFNE04.jpg,FN,3,num_4,32,num_2,0.783549634973,,,2017_May_25_1656,60.0106055406,FEMA4ImagesEEG,001,100526,
AFNE01.JPG,AFNE01.JPG,AFNE01.JPG,AFNE01.JPG,AFNE01.JPG,AFNE01.JPG,,,,,,,,,3,3,33,8,,,,,,,,,,,,,,,AFSA05.jpg,AFNE09.jpg,AFSA04.jpg,AFNE05.jpg,AFNE09.jpg,FN,3,num_6,32,num_4,0.350164587726,,,2017_May_25_1656,60.0106055406,FEMA4ImagesEEG,001,100526,
AFNE01.JPG,AFNE01.JPG,AFNE01.JPG,AFNE01.JPG,AFNE01.JPG,AFNE01.JPG,,,,,,,,,3,4,34,3,,,,,,,,,,,,,,,AFNE04.jpg,AFNE03.jpg,AFSA07.jpg,AFSA08.jpg,AFNE03.jpg,FN,3,num_6,16,num_6,0.650114776799,,,2017_May_25_1656,60.0106055406,FEMA4ImagesEEG,001,100526,
AFNE01.JPG,AFNE01.JPG,AFNE01.JPG,AFNE01.JPG,AFNE01.JPG,AFNE01.JPG,,,,,,,,,3,5,35,9,,,,,,,,,,,,,,,AFSA15.jpg,AFNE17.jpg,AFSA17.jpg,AFNE14.jpg,AFSA15.jpg,FS,4,num_8,32,num_2,0.916865177918,,,2017_May_25_1656,60.0106055406,FEMA4ImagesEEG,001,100526,
AFNE01.JPG,AFNE01.JPG,AFNE01.JPG,AFNE01.JPG,AFNE01.JPG,AFNE01.JPG,,,,,,,,,3,6,36,6,,,,,,,,,,,,,,,AFNE14.jpg,AFNE17.jpg,AFSA06.jpg,AFSA08.jpg,AFNE17.jpg,FN,3,num_6,32,num_4,0.48351861944,,,2017_May_25_1656,60.0106055406,FEMA4ImagesEEG,001,100526,
AFNE01.JPG,AFNE01.JPG,AFNE01.JPG,AFNE01.JPG,AFNE01.JPG,AFNE01.JPG,,,,,,,,,3,7,37,1,,,,,,,,,,,,,,,AFNE03.jpg,AFSA16.jpg,AFSA07.jpg,AFNE04.jpg,AFSA16.jpg,FS,4,num_6,16,num_6,0.783431602758,,,2017_May_25_1656,60.0106055406,FEMA4ImagesEEG,001,100526,
AFNE01.JPG,AFNE01.JPG,AFNE01.JPG,AFNE01.JPG,AFNE01.JPG,AFNE01.JPG,,,,,,,,,3,8,38,4,,,,,,,,,,,,,,,AFNE19.jpg,AFSA03.jpg,AFSA07.jpg,AFNE04.jpg,AFNE04.jpg,FN,3,num_4,16,num_4,0.233485182398,,,2017_May_25_1656,60.0106055406,FEMA4ImagesEEG,001,100526,
AFNE01.JPG,AFNE01.JPG,AFNE01.JPG,AFNE01.JPG,AFNE01.JPG,AFNE01.JPG,,,,,,,,,3,9,39,2,,,,,,,,,,,,,,,AFNE12.jpg,AFSA04.jpg,AFSA12.jpg,AFNE16.jpg,AFSA12.jpg,FS,4,num_2,32,num_8,0.500135833281,,,2017_May_25_1656,60.0106055406,FEMA4ImagesEEG,001,100526,
AFNE01.JPG,AFNE01.JPG,AFNE01.JPG,AFNE01.JPG,AFNE01.JPG,AFNE01.JPG,,,,,,,,,4,0,40,5,,,,,,,,,,,,,,,AFNE19.jpg,AFSA16.jpg,AFSA05.jpg,AFNE02.jpg,AFNE02.jpg,FN,3,num_4,32,num_2,1.01672626543,,,2017_May_25_1656,60.0106055406,FEMA4ImagesEEG,001,100526,
AFNE01.JPG,AFNE01.JPG,AFNE01.JPG,AFNE01.JPG,AFNE01.JPG,AFNE01.JPG,,,,,,,,,4,1,41,7,,,,,,,,,,,,,,,AFNE17.jpg,AFNE02.jpg,AFSA09.jpg,AFSA13.jpg,AFNE02.jpg,FN,3,num_6,32,num_8,0.567068799632,,,2017_May_25_1656,60.0106055406,FEMA4ImagesEEG,001,100526,
AFNE01.JPG,AFNE01.JPG,AFNE01.JPG,AFNE01.JPG,AFNE01.JPG,AFNE01.JPG,,,,,,,,,4,2,42,0,,,,,,,,,,,,,,,AFNE20.jpg,AFSA03.jpg,AFNE15.jpg,AFSA19.jpg,AFNE20.jpg,FN,3,num_8,32,num_6,0.900153025053,,,2017_May_25_1656,60.0106055406,FEMA4ImagesEEG,001,100526,
AFNE01.JPG,AFNE01.JPG,AFNE01.JPG,AFNE01.JPG,AFNE01.JPG,AFNE01.JPG,,,,,,,,,4,3,43,6,,,,,,,,,,,,,,,AFSA06.jpg,AFNE04.jpg,AFNE13.jpg,AFSA11.jpg,AFSA11.jpg,FS,4,num_4,16,num_4,0.650140115176,,,2017_May_25_1656,60.0106055406,FEMA4ImagesEEG,001,100526,
AFNE01.JPG,AFNE01.JPG,AFNE01.JPG,AFNE01.JPG,AFNE01.JPG,AFNE01.JPG,,,,,,,,,4,4,44,9,,,,,,,,,,,,,,,AFNE02.jpg,AFSA02.jpg,AFSA13.jpg,AFNE13.jpg,AFSA13.jpg,FS,4,num_2,16,num_2,0.433441176778,,,2017_May_25_1656,60.0106055406,FEMA4ImagesEEG,001,100526,
AFNE01.JPG,AFNE01.JPG,AFNE01.JPG,AFNE01.JPG,AFNE01.JPG,AFNE01.JPG,,,,,,,,,4,5,45,8,,,,,,,,,,,,,,,AFNE01.jpg,AFSA09.jpg,AFSA02.jpg,AFNE08.jpg,AFSA09.jpg,FS,4,num_6,16,num_6,0.900137629476,,,2017_May_25_1656,60.0106055406,FEMA4ImagesEEG,001,100526,
AFNE01.JPG,AFNE01.JPG,AFNE01.JPG,AFNE01.JPG,AFNE01.JPG,AFNE01.JPG,,,,,,,,,4,6,46,1,,,,,,,,,,,,,,,AFSA10.jpg,AFNE02.jpg,AFSA16.jpg,AFNE04.jpg,AFNE02.jpg,FN,3,num_6,32,num_8,0.933409904595,,,2017_May_25_1656,60.0106055406,FEMA4ImagesEEG,001,100526,
AFNE01.JPG,AFNE01.JPG,AFNE01.JPG,AFNE01.JPG,AFNE01.JPG,AFNE01.JPG,,,,,,,,,4,7,47,3,,,,,,,,,,,,,,,AFSA10.jpg,AFSA15.jpg,AFNE06.jpg,AFNE10.jpg,AFNE10.jpg,FN,3,num_4,16,num_4,0.533448201022,,,2017_May_25_1656,60.0106055406,FEMA4ImagesEEG,001,100526,
AFNE01.JPG,AFNE01.JPG,AFNE01.JPG,AFNE01.JPG,AFNE01.JPG,AFNE01.JPG,,,,,,,,,4,8,48,4,,,,,,,,,,,,,,,AFSA16.jpg,AFNE14.jpg,AFNE03.jpg,AFSA05.jpg,AFSA05.jpg,FS,4,num_4,32,num_2,0.633616557345,,,2017_May_25_1656,60.0106055406,FEMA4ImagesEEG,001,100526,
AFNE01.JPG,AFNE01.JPG,AFNE01.JPG,AFNE01.JPG,AFNE01.JPG,AFNE01.JPG,,,,,,,,,4,9,49,2,,,,,,,,,,,,,,,AFSA09.jpg,AFSA11.jpg,AFNE11.jpg,AFNE05.jpg,AFSA11.jpg,FS,4,num_6,32,num_2,0.700133203296,,,2017_May_25_1656,60.0106055406,FEMA4ImagesEEG,001,100526,
AFNE01.JPG,AFNE01.JPG,AFNE01.JPG,AFNE01.JPG,AFNE01.JPG,AFNE01.JPG,,,,,,,,,5,0,50,1,,,,,,,,,,,,,,,AFSA17.jpg,AFNE20.jpg,AFSA07.jpg,AFNE19.jpg,AFNE19.jpg,FN,3,num_4,16,num_4,1.31673899887,,,2017_May_25_1656,60.0106055406,FEMA4ImagesEEG,001,100526,
AFNE01.JPG,AFNE01.JPG,AFNE01.JPG,AFNE01.JPG,AFNE01.JPG,AFNE01.JPG,,,,,,,,,5,1,51,0,,,,,,,,,,,,,,,AFNE19.jpg,AFSA16.jpg,AFSA18.jpg,AFNE08.jpg,AFSA16.jpg,FS,4,num_6,16,num_6,1.03348428418,,,2017_May_25_1656,60.0106055406,FEMA4ImagesEEG,001,100526,
AFNE01.JPG,AFNE01.JPG,AFNE01.JPG,AFNE01.JPG,AFNE01.JPG,AFNE01.JPG,,,,,,,,,5,2,52,4,,,,,,,,,,,,,,,AFNE15.jpg,AFSA10.jpg,AFSA15.jpg,AFNE11.jpg,AFNE11.jpg,FN,3,num_4,32,num_2,1.05009283824,,,2017_May_25_1656,60.0106055406,FEMA4ImagesEEG,001,100526,
AFNE01.JPG,AFNE01.JPG,AFNE01.JPG,AFNE01.JPG,AFNE01.JPG,AFNE01.JPG,,,,,,,,,5,3,53,9,,,,,,,,,,,,,,,AFNE20.jpg,AFSA12.jpg,AFNE02.jpg,AFSA17.jpg,AFSA17.jpg,FS,4,num_4,16,num_4,1.15012103121,,,2017_May_25_1656,60.0106055406,FEMA4ImagesEEG,001,100526,
AFNE01.JPG,AFNE01.JPG,AFNE01.JPG,AFNE01.JPG,AFNE01.JPG,AFNE01.JPG,,,,,,,,,5,4,54,7,,,,,,,,,,,,,,,AFNE11.jpg,AFSA12.jpg,AFNE12.jpg,AFSA13.jpg,AFNE12.jpg,FN,3,num_2,32,num_8,0.783442507847,,,2017_May_25_1656,60.0106055406,FEMA4ImagesEEG,001,100526,
AFNE01.JPG,AFNE01.JPG,AFNE01.JPG,AFNE01.JPG,AFNE01.JPG,AFNE01.JPG,,,,,,,,,5,5,55,3,,,,,,,,,,,,,,,AFSA07.jpg,AFNE15.jpg,AFSA04.jpg,AFNE11.jpg,AFSA04.jpg,FS,4,num_2,16,num_2,0.566782058217,,,2017_May_25_1656,60.0106055406,FEMA4ImagesEEG,001,100526,
AFNE01.JPG,AFNE01.JPG,AFNE01.JPG,AFNE01.JPG,AFNE01.JPG,AFNE01.JPG,,,,,,,,,5,6,56,5,,,,,,,,,,,,,,,AFSA14.jpg,AFNE08.jpg,AFSA19.jpg,AFNE19.jpg,AFSA19.jpg,FS,4,num_2,16,num_2,0.683461784269,,,2017_May_25_1656,60.0106055406,FEMA4ImagesEEG,001,100526,
AFNE01.JPG,AFNE01.JPG,AFNE01.JPG,AFNE01.JPG,AFNE01.JPG,AFNE01.JPG,,,,,,,,,5,7,57,8,,,,,,,,,,,,,,,AFSA17.jpg,AFSA19.jpg,AFNE18.jpg,AFNE04.jpg,AFSA19.jpg,FS,4,num_6,32,num_8,1.01685071248,,,2017_May_25_1656,60.0106055406,FEMA4ImagesEEG,001,100526,
AFNE01.JPG,AFNE01.JPG,AFNE01.JPG,AFNE01.JPG,AFNE01.JPG,AFNE01.JPG,,,,,,,,,5,8,58,6,,,,,,,,,,,,,,,AFNE15.jpg,AFSA04.jpg,AFNE05.jpg,AFSA06.jpg,AFSA06.jpg,FS,4,num_4,32,num_6,0.2833422767,,,2017_May_25_1656,60.0106055406,FEMA4ImagesEEG,001,100526,
AFNE01.JPG,AFNE01.JPG,AFNE01.JPG,AFNE01.JPG,AFNE01.JPG,AFNE01.JPG,,,,,,,,,5,9,59,2,,,,,,,,,,,,,,,AFNE13.jpg,AFSA17.jpg,AFNE03.jpg,AFSA04.jpg,AFSA17.jpg,FS,4,num_6,32,num_4,0.266823209124,,,2017_May_25_1656,60.0106055406,FEMA4ImagesEEG,001,100526,
,,,,,,,,,,,,,,,,,,,,,,,,,,,,,,,,,,,,,,,,,,,space,6.78294439882,2017_May_25_1656,60.0106055406,FEMA4ImagesEEG,001,100526,
AFNE01.JPG,AFNE01.JPG,AFNE01.JPG,AFNE01.JPG,AFNE01.JPG,AFNE01.JPG,,,,,,,,,,,,,0,0,0,1,,,,,,,,,,,AMSA06.jpg,AMNE16.jpg,AMNE08.jpg,AMSA15.jpg,AMSA15.jpg,MS,2,num_4,16,num_4,0.600099557661,,,2017_May_25_1656,60.0106055406,FEMA4ImagesEEG,001,100526,
AFNE01.JPG,AFNE01.JPG,AFNE01.JPG,AFNE01.JPG,AFNE01.JPG,AFNE01.JPG,,,,,,,,,,,,,0,1,1,4,,,,,,,,,,,AMNE08.jpg,AMNE14.jpg,AMSA02.jpg,AMSA20.jpg,AMNE14.jpg,MN,1,num_6,32,num_4,0.300183687708,,,2017_May_25_1656,60.0106055406,FEMA4ImagesEEG,001,100526,
AFNE01.JPG,AFNE01.JPG,AFNE01.JPG,AFNE01.JPG,AFNE01.JPG,AFNE01.JPG,,,,,,,,,,,,,0,2,2,6,,,,,,,,,,,AMSA16.jpg,AMSA10.jpg,AMNE05.jpg,AMNE19.jpg,AMNE05.jpg,MN,1,num_2,32,num_6,0.266868433449,,,2017_May_25_1656,60.0106055406,FEMA4ImagesEEG,001,100526,
AFNE01.JPG,AFNE01.JPG,AFNE01.JPG,AFNE01.JPG,AFNE01.JPG,AFNE01.JPG,,,,,,,,,,,,,0,3,3,8,,,,,,,,,,,AMNE08.jpg,AMSA13.jpg,AMNE09.jpg,AMSA09.jpg,AMNE08.jpg,MN,1,num_8,32,num_2,0.916731108679,,,2017_May_25_1656,60.0106055406,FEMA4ImagesEEG,001,100526,
AFNE01.JPG,AFNE01.JPG,AFNE01.JPG,AFNE01.JPG,AFNE01.JPG,AFNE01.JPG,,,,,,,,,,,,,0,4,4,9,,,,,,,,,,,AMSA01.jpg,AMNE17.jpg,AMNE13.jpg,AMSA12.jpg,AMSA12.jpg,MS,2,num_4,32,num_8,0.75011249946,,,2017_May_25_1656,60.0106055406,FEMA4ImagesEEG,001,100526,
AFNE01.JPG,AFNE01.JPG,AFNE01.JPG,AFNE01.JPG,AFNE01.JPG,AFNE01.JPG,,,,,,,,,,,,,0,5,5,2,,,,,,,,,,,AMSA09.jpg,AMNE03.jpg,AMSA20.jpg,AMNE20.jpg,AMNE03.jpg,MN,1,num_6,32,num_4,0.45014114154,,,2017_May_25_1656,60.0106055406,FEMA4ImagesEEG,001,100526,
AFNE01.JPG,AFNE01.JPG,AFNE01.JPG,AFNE01.JPG,AFNE01.JPG,AFNE01.JPG,,,,,,,,,,,,,0,6,6,3,,,,,,,,,,,AMNE19.jpg,AMNE04.jpg,AMSA15.jpg,AMSA16.jpg,AMSA15.jpg,MS,2,num_2,16,num_2,0.466769581428,,,2017_May_25_1656,60.0106055406,FEMA4ImagesEEG,001,100526,
AFNE01.JPG,AFNE01.JPG,AFNE01.JPG,AFNE01.JPG,AFNE01.JPG,AFNE01.JPG,,,,,,,,,,,,,0,7,7,0,,,,,,,,,,,AMSA10.jpg,AMSA19.jpg,AMNE11.jpg,AMNE05.jpg,AMNE11.jpg,MN,1,num_2,32,num_6,0.566811566241,,,2017_May_25_1656,60.0106055406,FEMA4ImagesEEG,001,100526,
AFNE01.JPG,AFNE01.JPG,AFNE01.JPG,AFNE01.JPG,AFNE01.JPG,AFNE01.JPG,,,,,,,,,,,,,0,8,8,5,,,,,,,,,,,AMNE17.jpg,AMSA09.jpg,AMSA12.jpg,AMNE15.jpg,AMNE17.jpg,MN,1,num_8,16,num_8,0.500157643692,,,2017_May_25_1656,60.0106055406,FEMA4ImagesEEG,001,100526,
AFNE01.JPG,AFNE01.JPG,AFNE01.JPG,AFNE01.JPG,AFNE01.JPG,AFNE01.JPG,,,,,,,,,,,,,0,9,9,7,,,,,,,,,,,AMNE03.jpg,AMSA01.jpg,AMSA15.jpg,AMNE14.jpg,AMNE03.jpg,MN,1,num_8,32,num_2,0.383506463375,,,2017_May_25_1656,60.0106055406,FEMA4ImagesEEG,001,100526,
AFNE01.JPG,AFNE01.JPG,AFNE01.JPG,AFNE01.JPG,AFNE01.JPG,AFNE01.JPG,,,,,,,,,,,,,1,0,10,1,,,,,,,,,,,AMNE03.jpg,AMSA12.jpg,AMNE14.jpg,AMSA17.jpg,AMSA17.jpg,MS,2,num_4,16,num_4,1.16671162378,,,2017_May_25_1656,60.0106055406,FEMA4ImagesEEG,001,100526,
AFNE01.JPG,AFNE01.JPG,AFNE01.JPG,AFNE01.JPG,AFNE01.JPG,AFNE01.JPG,,,,,,,,,,,,,1,1,11,4,,,,,,,,,,,AMNE13.jpg,AMNE12.jpg,AMSA16.jpg,AMSA03.jpg,AMNE13.jpg,MN,1,num_8,16,num_8,0.816774761304,,,2017_May_25_1656,60.0106055406,FEMA4ImagesEEG,001,100526,
AFNE01.JPG,AFNE01.JPG,AFNE01.JPG,AFNE01.JPG,AFNE01.JPG,AFNE01.JPG,,,,,,,,,,,,,1,2,12,5,,,,,,,,,,,AMSA02.jpg,AMNE19.jpg,AMSA03.jpg,AMNE09.jpg,AMSA02.jpg,MS,2,num_8,32,num_2,1.13343325455,,,2017_May_25_1656,60.0106055406,FEMA4ImagesEEG,001,100526,
AFNE01.JPG,AFNE01.JPG,AFNE01.JPG,AFNE01.JPG,AFNE01.JPG,AFNE01.JPG,,,,,,,,,,,,,1,3,13,7,,,,,,,,,,,AMNE02.jpg,AMSA11.jpg,AMNE15.jpg,AMSA13.jpg,AMSA11.jpg,MS,2,num_6,16,num_6,0.733446533093,,,2017_May_25_1656,60.0106055406,FEMA4ImagesEEG,001,100526,
AFNE01.JPG,AFNE01.JPG,AFNE01.JPG,AFNE01.JPG,AFNE01.JPG,AFNE01.JPG,,,,,,,,,,,,,1,4,14,9,,,,,,,,,,,AMSA16.jpg,AMNE09.jpg,AMSA14.jpg,AMNE01.jpg,AMSA16.jpg,MS,2,num_8,16,num_8,0.567046668613,,,2017_May_25_1656,60.0106055406,FEMA4ImagesEEG,001,100526,
AFNE01.JPG,AFNE01.JPG,AFNE01.JPG,AFNE01.JPG,AFNE01.JPG,AFNE01.JPG,,,,,,,,,,,,,1,5,15,8,,,,,,,,,,,AMSA05.jpg,AMSA11.jpg,AMNE13.jpg,AMNE05.jpg,AMNE05.jpg,MN,1,num_4,16,num_4,0.933430752717,,,2017_May_25_1656,60.0106055406,FEMA4ImagesEEG,001,100526,
AFNE01.JPG,AFNE01.JPG,AFNE01.JPG,AFNE01.JPG,AFNE01.JPG,AFNE01.JPG,,,,,,,,,,,,,1,6,16,6,,,,,,,,,,,AMSA09.jpg,AMSA02.jpg,AMNE10.jpg,AMNE04.jpg,AMSA09.jpg,MS,2,num_8,32,num_6,0.250168147963,,,2017_May_25_1656,60.0106055406,FEMA4ImagesEEG,001,100526,
AFNE01.JPG,AFNE01.JPG,AFNE01.JPG,AFNE01.JPG,AFNE01.JPG,AFNE01.JPG,,,,,,,,,,,,,1,7,17,2,,,,,,,,,,,AMNE05.jpg,AMSA10.jpg,AMSA18.jpg,AMNE11.jpg,AMNE11.jpg,MN,1,num_4,32,num_8,1.16677929985,,,2017_May_25_1656,60.0106055406,FEMA4ImagesEEG,001,100526,
AFNE01.JPG,AFNE01.JPG,AFNE01.JPG,AFNE01.JPG,AFNE01.JPG,AFNE01.JPG,,,,,,,,,,,,,1,8,18,0,,,,,,,,,,,AMNE13.jpg,AMNE03.jpg,AMSA18.jpg,AMSA19.jpg,AMSA19.jpg,MS,2,num_4,16,num_4,0.750147780869,,,2017_May_25_1656,60.0106055406,FEMA4ImagesEEG,001,100526,
AFNE01.JPG,AFNE01.JPG,AFNE01.JPG,AFNE01.JPG,AFNE01.JPG,AFNE01.JPG,,,,,,,,,,,,,1,9,19,3,,,,,,,,,,,AMNE13.jpg,AMNE07.jpg,AMSA14.jpg,AMSA20.jpg,AMSA14.jpg,MS,2,num_2,32,num_8,0.816771233222,,,2017_May_25_1656,60.0106055406,FEMA4ImagesEEG,001,100526,
AFNE01.JPG,AFNE01.JPG,AFNE01.JPG,AFNE01.JPG,AFNE01.JPG,AFNE01.JPG,,,,,,,,,,,,,2,0,20,6,,,,,,,,,,,AMSA19.jpg,AMNE15.jpg,AMSA15.jpg,AMNE19.jpg,AMNE19.jpg,MN,1,num_4,32,num_6,0.700129995937,,,2017_May_25_1656,60.0106055406,FEMA4ImagesEEG,001,100526,
AFNE01.JPG,AFNE01.JPG,AFNE01.JPG,AFNE01.JPG,AFNE01.JPG,AFNE01.JPG,,,,,,,,,,,,,2,1,21,9,,,,,,,,,,,AMSA17.jpg,AMNE12.jpg,AMSA16.jpg,AMNE16.jpg,AMNE16.jpg,MN,1,num_4,16,num_4,0.466803900548,,,2017_May_25_1656,60.0106055406,FEMA4ImagesEEG,001,100526,
AFNE01.JPG,AFNE01.JPG,AFNE01.JPG,AFNE01.JPG,AFNE01.JPG,AFNE01.JPG,,,,,,,,,,,,,2,2,22,2,,,,,,,,,,,AMNE20.jpg,AMNE09.jpg,AMSA05.jpg,AMSA06.jpg,AMNE20.jpg,MN,1,num_8,16,num_8,1.28343881934,,,2017_May_25_1656,60.0106055406,FEMA4ImagesEEG,001,100526,
AFNE01.JPG,AFNE01.JPG,AFNE01.JPG,AFNE01.JPG,AFNE01.JPG,AFNE01.JPG,,,,,,,,,,,,,2,3,23,5,,,,,,,,,,,AMSA09.jpg,AMNE03.jpg,AMNE14.jpg,AMSA12.jpg,AMSA09.jpg,MS,2,num_8,32,num_2,0.983247113181,,,2017_May_25_1656,60.0106055406,FEMA4ImagesEEG,001,100526,
AFNE01.JPG,AFNE01.JPG,AFNE01.JPG,AFNE01.JPG,AFNE01.JPG,AFNE01.JPG,,,,,,,,,,,,,2,4,24,1,,,,,,,,,,,AMNE16.jpg,AMSA19.jpg,AMNE19.jpg,AMSA01.jpg,AMSA19.jpg,MS,2,num_6,32,num_2,0.250154356123,,,2017_May_25_1656,60.0106055406,FEMA4ImagesEEG,001,100526,
AFNE01.JPG,AFNE01.JPG,AFNE01.JPG,AFNE01.JPG,AFNE01.JPG,AFNE01.JPG,,,,,,,,,,,,,2,5,25,8,,,,,,,,,,,AMSA20.jpg,AMSA03.jpg,AMNE10.jpg,AMNE03.jpg,AMSA20.jpg,MS,2,num_8,32,num_4,0.600141574629,,,2017_May_25_1656,60.0106055406,FEMA4ImagesEEG,001,100526,
AFNE01.JPG,AFNE01.JPG,AFNE01.JPG,AFNE01.JPG,AFNE01.JPG,AFNE01.JPG,,,,,,,,,,,,,2,6,26,7,,,,,,,,,,,AMNE12.jpg,AMSA20.jpg,AMSA06.jpg,AMNE19.jpg,AMSA20.jpg,MS,2,num_6,32,num_8,1.53348027496,,,2017_May_25_1656,60.0106055406,FEMA4ImagesEEG,001,100526,
AFNE01.JPG,AFNE01.JPG,AFNE01.JPG,AFNE01.JPG,AFNE01.JPG,AFNE01.JPG,,,,,,,,,,,,,2,7,27,0,,,,,,,,,,,AMNE05.jpg,AMNE16.jpg,AMSA10.jpg,AMSA20.jpg,AMSA20.jpg,MS,2,num_4,32,num_6,0.700132561848,,,2017_May_25_1656,60.0106055406,FEMA4ImagesEEG,001,100526,
AFNE01.JPG,AFNE01.JPG,AFNE01.JPG,AFNE01.JPG,AFNE01.JPG,AFNE01.JPG,,,,,,,,,,,,,2,8,28,4,,,,,,,,,,,AMSA14.jpg,AMSA11.jpg,AMNE15.jpg,AMNE09.jpg,AMSA14.jpg,MS,2,num_8,32,num_2,0.450164234848,,,2017_May_25_1656,60.0106055406,FEMA4ImagesEEG,001,100526,
AFNE01.JPG,AFNE01.JPG,AFNE01.JPG,AFNE01.JPG,AFNE01.JPG,AFNE01.JPG,,,,,,,,,,,,,2,9,29,3,,,,,,,,,,,AMSA01.jpg,AMNE14.jpg,AMSA05.jpg,AMNE02.jpg,AMNE02.jpg,MN,1,num_4,32,num_8,0.666771762422,,,2017_May_25_1656,60.0106055406,FEMA4ImagesEEG,001,100526,
AFNE01.JPG,AFNE01.JPG,AFNE01.JPG,AFNE01.JPG,AFNE01.JPG,AFNE01.JPG,,,,,,,,,,,,,3,0,30,4,,,,,,,,,,,AMNE20.jpg,AMSA07.jpg,AMSA12.jpg,AMNE14.jpg,AMNE20.jpg,MN,1,num_8,32,num_2,0.666791648255,,,2017_May_25_1656,60.0106055406,FEMA4ImagesEEG,001,100526,
AFNE01.JPG,AFNE01.JPG,AFNE01.JPG,AFNE01.JPG,AFNE01.JPG,AFNE01.JPG,,,,,,,,,,,,,3,1,31,8,,,,,,,,,,,AMNE13.jpg,AMSA14.jpg,AMSA18.jpg,AMNE20.jpg,AMSA18.jpg,MS,2,num_2,32,num_8,0.333458528854,,,2017_May_25_1656,60.0106055406,FEMA4ImagesEEG,001,100526,
AFNE01.JPG,AFNE01.JPG,AFNE01.JPG,AFNE01.JPG,AFNE01.JPG,AFNE01.JPG,,,,,,,,,,,,,3,2,32,5,,,,,,,,,,,AMNE02.jpg,AMSA01.jpg,AMNE03.jpg,AMSA13.jpg,AMSA13.jpg,MS,2,num_4,16,num_4,0.66676470614,,,2017_May_25_1656,60.0106055406,FEMA4ImagesEEG,001,100526,
AFNE01.JPG,AFNE01.JPG,AFNE01.JPG,AFNE01.JPG,AFNE01.JPG,AFNE01.JPG,,,,,,,,,,,,,3,3,33,1,,,,,,,,,,,AMNE07.jpg,AMNE15.jpg,AMSA16.jpg,AMSA14.jpg,AMSA16.jpg,MS,2,num_2,32,num_4,1.53339880705,,,2017_May_25_1656,60.0106055406,FEMA4ImagesEEG,001,100526,
AFNE01.JPG,AFNE01.JPG,AFNE01.JPG,AFNE01.JPG,AFNE01.JPG,AFNE01.JPG,,,,,,,,,,,,,3,4,34,9,,,,,,,,,,,AMSA15.jpg,AMNE15.jpg,AMNE04.jpg,AMSA13.jpg,AMNE04.jpg,MN,1,num_2,32,num_6,0.383507425548,,,2017_May_25_1656,60.0106055406,FEMA4ImagesEEG,001,100526,
AFNE01.JPG,AFNE01.JPG,AFNE01.JPG,AFNE01.JPG,AFNE01.JPG,AFNE01.JPG,,,,,,,,,,,,,3,5,35,0,,,,,,,,,,,AMSA09.jpg,AMSA03.jpg,AMNE05.jpg,AMNE04.jpg,AMSA03.jpg,MS,2,num_6,32,num_8,0.483476281748,,,2017_May_25_1656,60.0106055406,FEMA4ImagesEEG,001,100526,
AFNE01.JPG,AFNE01.JPG,AFNE01.JPG,AFNE01.JPG,AFNE01.JPG,AFNE01.JPG,,,,,,,,,,,,,3,6,36,3,,,,,,,,,,,AMNE01.jpg,AMSA08.jpg,AMSA14.jpg,AMNE07.jpg,AMNE01.jpg,MN,1,num_8,32,num_2,0.300148406299,,,2017_May_25_1656,60.0106055406,FEMA4ImagesEEG,001,100526,
AFNE01.JPG,AFNE01.JPG,AFNE01.JPG,AFNE01.JPG,AFNE01.JPG,AFNE01.JPG,,,,,,,,,,,,,3,7,37,2,,,,,,,,,,,AMNE11.jpg,AMSA20.jpg,AMNE20.jpg,AMSA13.jpg,AMSA20.jpg,MS,2,num_6,32,num_4,0.300150330761,,,2017_May_25_1656,60.0106055406,FEMA4ImagesEEG,001,100526,
AFNE01.JPG,AFNE01.JPG,AFNE01.JPG,AFNE01.JPG,AFNE01.JPG,AFNE01.JPG,,,,,,,,,,,,,3,8,38,7,,,,,,,,,,,AMSA20.jpg,AMSA15.jpg,AMNE01.jpg,AMNE10.jpg,AMNE10.jpg,MN,1,num_4,32,num_8,0.316775242449,,,2017_May_25_1656,60.0106055406,FEMA4ImagesEEG,001,100526,
AFNE01.JPG,AFNE01.JPG,AFNE01.JPG,AFNE01.JPG,AFNE01.JPG,AFNE01.JPG,,,,,,,,,,,,,3,9,39,6,,,,,,,,,,,AMNE16.jpg,AMSA08.jpg,AMNE15.jpg,AMSA07.jpg,AMNE16.jpg,MN,1,num_8,32,num_6,0.250173600507,,,2017_May_25_1656,60.0106055406,FEMA4ImagesEEG,001,100526,
AFNE01.JPG,AFNE01.JPG,AFNE01.JPG,AFNE01.JPG,AFNE01.JPG,AFNE01.JPG,,,,,,,,,,,,,4,0,40,3,,,,,,,,,,,AMNE13.jpg,AMSA13.jpg,AMSA20.jpg,AMNE03.jpg,AMNE03.jpg,MN,1,num_4,32,num_2,0.283488854766,,,2017_May_25_1656,60.0106055406,FEMA4ImagesEEG,001,100526,
AFNE01.JPG,AFNE01.JPG,AFNE01.JPG,AFNE01.JPG,AFNE01.JPG,AFNE01.JPG,,,,,,,,,,,,,4,1,41,8,,,,,,,,,,,AMNE11.jpg,AMSA08.jpg,AMNE20.jpg,AMSA06.jpg,AMSA06.jpg,MS,2,num_4,16,num_4,1.23340371437,,,2017_May_25_1656,60.0106055406,FEMA4ImagesEEG,001,100526,
AFNE01.JPG,AFNE01.JPG,AFNE01.JPG,AFNE01.JPG,AFNE01.JPG,AFNE01.JPG,,,,,,,,,,,,,4,2,42,5,,,,,,,,,,,AMNE02.jpg,AMSA18.jpg,AMNE10.jpg,AMSA14.jpg,AMNE02.jpg,MN,1,num_8,32,num_6,0.5001772088,,,2017_May_25_1656,60.0106055406,FEMA4ImagesEEG,001,100526,
AFNE01.JPG,AFNE01.JPG,AFNE01.JPG,AFNE01.JPG,AFNE01.JPG,AFNE01.JPG,,,,,,,,,,,,,4,3,43,4,,,,,,,,,,,AMSA05.jpg,AMSA14.jpg,AMNE20.jpg,AMNE15.jpg,AMSA05.jpg,MS,2,num_8,32,num_2,1.93335152999,,,2017_May_25_1656,60.0106055406,FEMA4ImagesEEG,001,100526,
AFNE01.JPG,AFNE01.JPG,AFNE01.JPG,AFNE01.JPG,AFNE01.JPG,AFNE01.JPG,,,,,,,,,,,,,4,4,44,7,,,,,,,,,,,AMNE09.jpg,AMSA02.jpg,AMSA20.jpg,AMNE08.jpg,AMSA20.jpg,MS,2,num_2,32,num_8,1.75010383956,,,2017_May_25_1656,60.0106055406,FEMA4ImagesEEG,001,100526,
AFNE01.JPG,AFNE01.JPG,AFNE01.JPG,AFNE01.JPG,AFNE01.JPG,AFNE01.JPG,,,,,,,,,,,,,4,5,45,1,,,,,,,,,,,AMNE01.jpg,AMSA16.jpg,AMSA01.jpg,AMNE14.jpg,AMSA01.jpg,MS,2,num_2,16,num_2,0.850132994819,,,2017_May_25_1656,60.0106055406,FEMA4ImagesEEG,001,100526,
AFNE01.JPG,AFNE01.JPG,AFNE01.JPG,AFNE01.JPG,AFNE01.JPG,AFNE01.JPG,,,,,,,,,,,,,4,6,46,9,,,,,,,,,,,AMNE19.jpg,AMSA14.jpg,AMNE11.jpg,AMSA03.jpg,AMNE11.jpg,MN,1,num_2,32,num_6,0.966836776352,,,2017_May_25_1656,60.0106055406,FEMA4ImagesEEG,001,100526,
AFNE01.JPG,AFNE01.JPG,AFNE01.JPG,AFNE01.JPG,AFNE01.JPG,AFNE01.JPG,,,,,,,,,,,,,4,7,47,2,,,,,,,,,,,AMSA18.jpg,AMNE16.jpg,AMSA03.jpg,AMNE11.jpg,AMNE16.jpg,MN,1,num_6,32,num_8,0.750138158794,,,2017_May_25_1656,60.0106055406,FEMA4ImagesEEG,001,100526,
AFNE01.JPG,AFNE01.JPG,AFNE01.JPG,AFNE01.JPG,AFNE01.JPG,AFNE01.JPG,,,,,,,,,,,,,4,8,48,6,,,,,,,,,,,AMNE13.jpg,AMSA17.jpg,AMSA07.jpg,AMNE19.jpg,AMNE13.jpg,MN,1,num_8,32,num_4,0.550114167389,,,2017_May_25_1656,60.0106055406,FEMA4ImagesEEG,001,100526,
AFNE01.JPG,AFNE01.JPG,AFNE01.JPG,AFNE01.JPG,AFNE01.JPG,AFNE01.JPG,,,,,,,,,,,,,4,9,49,0,,,,,,,,,,,AMSA11.jpg,AMNE03.jpg,AMNE15.jpg,AMSA02.jpg,AMNE15.jpg,MN,1,num_2,32,num_6,0.683492575306,,,2017_May_25_1656,60.0106055406,FEMA4ImagesEEG,001,100526,
AFNE01.JPG,AFNE01.JPG,AFNE01.JPG,AFNE01.JPG,AFNE01.JPG,AFNE01.JPG,,,,,,,,,,,,,5,0,50,3,,,,,,,,,,,AMSA14.jpg,AMNE13.jpg,AMSA19.jpg,AMNE06.jpg,AMSA14.jpg,MS,2,num_8,32,num_2,0.483148164814,,,2017_May_25_1656,60.0106055406,FEMA4ImagesEEG,001,100526,
AFNE01.JPG,AFNE01.JPG,AFNE01.JPG,AFNE01.JPG,AFNE01.JPG,AFNE01.JPG,,,,,,,,,,,,,5,1,51,7,,,,,,,,,,,AMNE20.jpg,AMSA16.jpg,AMNE19.jpg,AMSA10.jpg,AMNE19.jpg,MN,1,num_2,32,num_4,0.416776493308,,,2017_May_25_1656,60.0106055406,FEMA4ImagesEEG,001,100526,
AFNE01.JPG,AFNE01.JPG,AFNE01.JPG,AFNE01.JPG,AFNE01.JPG,AFNE01.JPG,,,,,,,,,,,,,5,2,52,0,,,,,,,,,,,AMNE02.jpg,AMSA03.jpg,AMNE06.jpg,AMSA02.jpg,AMSA02.jpg,MS,2,num_4,32,num_6,0.366803291254,,,2017_May_25_1656,60.0106055406,FEMA4ImagesEEG,001,100526,
AFNE01.JPG,AFNE01.JPG,AFNE01.JPG,AFNE01.JPG,AFNE01.JPG,AFNE01.JPG,,,,,,,,,,,,,5,3,53,4,,,,,,,,,,,AMNE19.jpg,AMNE15.jpg,AMSA12.jpg,AMSA11.jpg,AMSA12.jpg,MS,2,num_2,32,num_4,0.366797838593,,,2017_May_25_1656,60.0106055406,FEMA4ImagesEEG,001,100526,
AFNE01.JPG,AFNE01.JPG,AFNE01.JPG,AFNE01.JPG,AFNE01.JPG,AFNE01.JPG,,,,,,,,,,,,,5,4,54,1,,,,,,,,,,,AMSA15.jpg,AMNE07.jpg,AMNE01.jpg,AMSA08.jpg,AMSA15.jpg,MS,2,num_8,16,num_8,0.633475111099,,,2017_May_25_1656,60.0106055406,FEMA4ImagesEEG,001,100526,
AFNE01.JPG,AFNE01.JPG,AFNE01.JPG,AFNE01.JPG,AFNE01.JPG,AFNE01.JPG,,,,,,,,,,,,,5,5,55,6,,,,,,,,,,,AMNE04.jpg,AMSA02.jpg,AMNE07.jpg,AMSA10.jpg,AMSA10.jpg,MS,2,num_4,32,num_2,0.583460533409,,,2017_May_25_1656,60.0106055406,FEMA4ImagesEEG,001,100526,
AFNE01.JPG,AFNE01.JPG,AFNE01.JPG,AFNE01.JPG,AFNE01.JPG,AFNE01.JPG,,,,,,,,,,,,,5,6,56,2,,,,,,,,,,,AMSA20.jpg,AMNE14.jpg,AMNE16.jpg,AMSA02.jpg,AMNE14.jpg,MN,1,num_6,16,num_6,0.56676666264,,,2017_May_25_1656,60.0106055406,FEMA4ImagesEEG,001,100526,
AFNE01.JPG,AFNE01.JPG,AFNE01.JPG,AFNE01.JPG,AFNE01.JPG,AFNE01.JPG,,,,,,,,,,,,,5,7,57,5,,,,,,,,,,,AMNE02.jpg,AMSA19.jpg,AMSA17.jpg,AMNE15.jpg,AMNE15.jpg,MN,1,num_4,32,num_8,0.550190503476,,,2017_May_25_1656,60.0106055406,FEMA4ImagesEEG,001,100526,
AFNE01.JPG,AFNE01.JPG,AFNE01.JPG,AFNE01.JPG,AFNE01.JPG,AFNE01.JPG,,,,,,,,,,,,,5,8,58,8,,,,,,,,,,,AMNE19.jpg,AMSA04.jpg,AMNE05.jpg,AMSA18.jpg,AMNE19.jpg,MN,1,num_8,16,num_8,0.300346302916,,,2017_May_25_1656,60.0106055406,FEMA4ImagesEEG,001,100526,
AFNE01.JPG,AFNE01.JPG,AFNE01.JPG,AFNE01.JPG,AFNE01.JPG,AFNE01.JPG,,,,,,,,,,,,,5,9,59,9,,,,,,,,,,,AMNE04.jpg,AMSA08.jpg,AMNE03.jpg,AMSA20.jpg,AMSA08.jpg,MS,2,num_6,32,num_2,0.466926423251,,,2017_May_25_1656,60.0106055406,FEMA4ImagesEEG,001,100526,
,,,,,,,,,,,,,,,,,,,,,,,,,,,,,,,,,,,,,,,,,,,space,7.64963334613,2017_May_25_1656,60.0106055406,FEMA4ImagesEEG,001,100526,
AFNE01.JPG,AFNE01.JPG,AFNE01.JPG,AFNE01.JPG,AFNE01.JPG,AFNE01.JPG,,,,,,,,,,,,,,,,,0,0,0,4,,,,,,,AFNE07.jpg,AFSA13.jpg,AFNE01.jpg,AFSA05.jpg,AFSA05.jpg,FS,4,num_4,32,num_6,0.450185724418,,,2017_May_25_1656,60.0106055406,FEMA4ImagesEEG,001,100526,
AFNE01.JPG,AFNE01.JPG,AFNE01.JPG,AFNE01.JPG,AFNE01.JPG,AFNE01.JPG,,,,,,,,,,,,,,,,,0,1,1,8,,,,,,,AFNE14.jpg,AFSA15.jpg,AFNE06.jpg,AFSA07.jpg,AFSA07.jpg,FS,4,num_4,16,num_4,0.350172285456,,,2017_May_25_1656,60.0106055406,FEMA4ImagesEEG,001,100526,
AFNE01.JPG,AFNE01.JPG,AFNE01.JPG,AFNE01.JPG,AFNE01.JPG,AFNE01.JPG,,,,,,,,,,,,,,,,,0,2,2,9,,,,,,,AFSA14.jpg,AFNE18.jpg,AFSA16.jpg,AFNE03.jpg,AFSA14.jpg,FS,4,num_8,32,num_4,0.283468648093,,,2017_May_25_1656,60.0106055406,FEMA4ImagesEEG,001,100526,
AFNE01.JPG,AFNE01.JPG,AFNE01.JPG,AFNE01.JPG,AFNE01.JPG,AFNE01.JPG,,,,,,,,,,,,,,,,,0,3,3,1,,,,,,,AFNE10.jpg,AFNE18.jpg,AFSA04.jpg,AFSA16.jpg,AFSA16.jpg,FS,4,num_4,16,num_4,0.316842277185,,,2017_May_25_1656,60.0106055406,FEMA4ImagesEEG,001,100526,
AFNE01.JPG,AFNE01.JPG,AFNE01.JPG,AFNE01.JPG,AFNE01.JPG,AFNE01.JPG,,,,,,,,,,,,,,,,,0,4,4,3,,,,,,,AFNE11.jpg,AFSA05.jpg,AFSA07.jpg,AFNE03.jpg,AFNE11.jpg,FN,3,num_8,32,num_4,0.36665992043,,,2017_May_25_1656,60.0106055406,FEMA4ImagesEEG,001,100526,
AFNE01.JPG,AFNE01.JPG,AFNE01.JPG,AFNE01.JPG,AFNE01.JPG,AFNE01.JPG,,,,,,,,,,,,,,,,,0,5,5,6,,,,,,,AFSA13.jpg,AFSA11.jpg,AFNE19.jpg,AFNE20.jpg,AFSA11.jpg,FS,4,num_6,32,num_4,0.316797052743,,,2017_May_25_1656,60.0106055406,FEMA4ImagesEEG,001,100526,
AFNE01.JPG,AFNE01.JPG,AFNE01.JPG,AFNE01.JPG,AFNE01.JPG,AFNE01.JPG,,,,,,,,,,,,,,,,,0,6,6,5,,,,,,,AFSA11.jpg,AFNE14.jpg,AFSA15.jpg,AFNE15.jpg,AFSA11.jpg,FS,4,num_8,32,num_4,0.333509526448,,,2017_May_25_1656,60.0106055406,FEMA4ImagesEEG,001,100526,
AFNE01.JPG,AFNE01.JPG,AFNE01.JPG,AFNE01.JPG,AFNE01.JPG,AFNE01.JPG,,,,,,,,,,,,,,,,,0,7,7,0,,,,,,,AFSA10.jpg,AFNE05.jpg,AFSA19.jpg,AFNE02.jpg,AFSA10.jpg,FS,4,num_8,32,num_6,0.533496632706,,,2017_May_25_1656,60.0106055406,FEMA4ImagesEEG,001,100526,
AFNE01.JPG,AFNE01.JPG,AFNE01.JPG,AFNE01.JPG,AFNE01.JPG,AFNE01.JPG,,,,,,,,,,,,,,,,,0,8,8,7,,,,,,,AFSA10.jpg,AFNE02.jpg,AFNE18.jpg,AFSA17.jpg,AFNE18.jpg,FN,3,num_2,32,num_8,0.100197864464,,,2017_May_25_1656,60.0106055406,FEMA4ImagesEEG,001,100526,
AFNE01.JPG,AFNE01.JPG,AFNE01.JPG,AFNE01.JPG,AFNE01.JPG,AFNE01.JPG,,,,,,,,,,,,,,,,,0,9,9,2,,,,,,,AFSA08.jpg,AFNE10.jpg,AFNE01.jpg,AFSA11.jpg,AFSA08.jpg,FS,4,num_8,32,num_2,0.350150154321,,,2017_May_25_1656,60.0106055406,FEMA4ImagesEEG,001,100526,
AFNE01.JPG,AFNE01.JPG,AFNE01.JPG,AFNE01.JPG,AFNE01.JPG,AFNE01.JPG,,,,,,,,,,,,,,,,,1,0,10,7,,,,,,,AFNE14.jpg,AFSA20.jpg,AFNE03.jpg,AFSA16.jpg,AFNE03.jpg,FN,3,num_2,32,num_4,0.316808278672,,,2017_May_25_1656,60.0106055406,FEMA4ImagesEEG,001,100526,
AFNE01.JPG,AFNE01.JPG,AFNE01.JPG,AFNE01.JPG,AFNE01.JPG,AFNE01.JPG,,,,,,,,,,,,,,,,,1,1,11,2,,,,,,,AFSA12.jpg,AFNE12.jpg,AFNE15.jpg,AFSA04.jpg,AFSA04.jpg,FS,4,num_4,32,num_6,0.333508564159,,,2017_May_25_1656,60.0106055406,FEMA4ImagesEEG,001,100526,
AFNE01.JPG,AFNE01.JPG,AFNE01.JPG,AFNE01.JPG,AFNE01.JPG,AFNE01.JPG,,,,,,,,,,,,,,,,,1,2,12,9,,,,,,,AFNE04.jpg,AFNE18.jpg,AFSA12.jpg,AFSA07.jpg,AFNE04.jpg,FN,3,num_8,32,num_4,0.466818654677,,,2017_May_25_1656,60.0106055406,FEMA4ImagesEEG,001,100526,
AFNE01.JPG,AFNE01.JPG,AFNE01.JPG,AFNE01.JPG,AFNE01.JPG,AFNE01.JPG,,,,,,,,,,,,,,,,,1,3,13,8,,,,,,,AFSA17.jpg,AFNE02.jpg,AFNE07.jpg,AFSA10.jpg,AFNE07.jpg,FN,3,num_2,32,num_8,0.366831516265,,,2017_May_25_1656,60.0106055406,FEMA4ImagesEEG,001,100526,
AFNE01.JPG,AFNE01.JPG,AFNE01.JPG,AFNE01.JPG,AFNE01.JPG,AFNE01.JPG,,,,,,,,,,,,,,,,,1,4,14,3,,,,,,,AFNE09.jpg,AFSA14.jpg,AFSA04.jpg,AFNE01.jpg,AFSA14.jpg,FS,4,num_6,32,num_2,0.416660385556,,,2017_May_25_1656,60.0106055406,FEMA4ImagesEEG,001,100526,
AFNE01.JPG,AFNE01.JPG,AFNE01.JPG,AFNE01.JPG,AFNE01.JPG,AFNE01.JPG,,,,,,,,,,,,,,,,,1,5,15,4,,,,,,,AFNE19.jpg,AFNE13.jpg,AFSA04.jpg,AFSA15.jpg,AFNE13.jpg,FN,3,num_6,16,num_6,0.333523959736,,,2017_May_25_1656,60.0106055406,FEMA4ImagesEEG,001,100526,
AFNE01.JPG,AFNE01.JPG,AFNE01.JPG,AFNE01.JPG,AFNE01.JPG,AFNE01.JPG,,,,,,,,,,,,,,,,,1,6,16,5,,,,,,,AFSA06.jpg,AFSA08.jpg,AFNE20.jpg,AFNE19.jpg,AFNE19.jpg,FN,3,num_4,32,num_2,0.316780374269,,,2017_May_25_1656,60.0106055406,FEMA4ImagesEEG,001,100526,
AFNE01.JPG,AFNE01.JPG,AFNE01.JPG,AFNE01.JPG,AFNE01.JPG,AFNE01.JPG,,,,,,,,,,,,,,,,,1,7,17,6,,,,,,,AFSA09.jpg,AFSA05.jpg,AFNE07.jpg,AFNE09.jpg,AFNE09.jpg,FN,3,num_4,32,num_8,0.383352508303,,,2017_May_25_1656,60.0106055406,FEMA4ImagesEEG,001,100526,
AFNE01.JPG,AFNE01.JPG,AFNE01.JPG,AFNE01.JPG,AFNE01.JPG,AFNE01.JPG,,,,,,,,,,,,,,,,,1,8,18,1,,,,,,,AFSA20.jpg,AFNE04.jpg,AFNE16.jpg,AFSA03.jpg,AFSA03.jpg,FS,4,num_4,32,num_2,0.650188226253,,,2017_May_25_1656,60.0106055406,FEMA4ImagesEEG,001,100526,
AFNE01.JPG,AFNE01.JPG,AFNE01.JPG,AFNE01.JPG,AFNE01.JPG,AFNE01.JPG,,,,,,,,,,,,,,,,,1,9,19,0,,,,,,,AFNE05.jpg,AFNE03.jpg,AFSA07.jpg,AFSA15.jpg,AFNE05.jpg,FN,3,num_8,32,num_6,0.400139072794,,,2017_May_25_1656,60.0106055406,FEMA4ImagesEEG,001,100526,
AFNE01.JPG,AFNE01.JPG,AFNE01.JPG,AFNE01.JPG,AFNE01.JPG,AFNE01.JPG,,,,,,,,,,,,,,,,,2,0,20,5,,,,,,,AFNE17.jpg,AFSA08.jpg,AFNE15.jpg,AFSA14.jpg,AFSA08.jpg,FS,4,num_6,32,num_4,0.550155542791,,,2017_May_25_1656,60.0106055406,FEMA4ImagesEEG,001,100526,
AFNE01.JPG,AFNE01.JPG,AFNE01.JPG,AFNE01.JPG,AFNE01.JPG,AFNE01.JPG,,,,,,,,,,,,,,,,,2,1,21,0,,,,,,,AFSA03.jpg,AFSA18.jpg,AFNE11.jpg,AFNE19.jpg,AFNE11.jpg,FN,3,num_2,32,num_6,0.483463131357,,,2017_May_25_1656,60.0106055406,FEMA4ImagesEEG,001,100526,
AFNE01.JPG,AFNE01.JPG,AFNE01.JPG,AFNE01.JPG,AFNE01.JPG,AFNE01.JPG,,,,,,,,,,,,,,,,,2,2,22,8,,,,,,,AFNE06.jpg,AFSA10.jpg,AFSA09.jpg,AFNE02.jpg,AFSA10.jpg,FS,4,num_6,16,num_6,0.383496199618,,,2017_May_25_1656,60.0106055406,FEMA4ImagesEEG,001,100526,
AFNE01.JPG,AFNE01.JPG,AFNE01.JPG,AFNE01.JPG,AFNE01.JPG,AFNE01.JPG,,,,,,,,,,,,,,,,,2,3,23,6,,,,,,,AFSA15.jpg,AFNE11.jpg,AFSA02.jpg,AFNE08.jpg,AFNE11.jpg,FN,3,num_6,32,num_8,0.683478142018,,,2017_May_25_1656,60.0106055406,FEMA4ImagesEEG,001,100526,
AFNE01.JPG,AFNE01.JPG,AFNE01.JPG,AFNE01.JPG,AFNE01.JPG,AFNE01.JPG,,,,,,,,,,,,,,,,,2,4,24,1,,,,,,,AFSA02.jpg,AFNE11.jpg,AFNE10.jpg,AFSA10.jpg,AFSA10.jpg,FS,4,num_4,32,num_8,1.40006851009,,,2017_May_25_1656,60.0106055406,FEMA4ImagesEEG,001,100526,
AFNE01.JPG,AFNE01.JPG,AFNE01.JPG,AFNE01.JPG,AFNE01.JPG,AFNE01.JPG,,,,,,,,,,,,,,,,,2,5,25,7,,,,,,,AFNE03.jpg,AFNE09.jpg,AFSA17.jpg,AFSA06.jpg,AFNE09.jpg,FN,3,num_6,32,num_4,0.583462457871,,,2017_May_25_1656,60.0106055406,FEMA4ImagesEEG,001,100526,
AFNE01.JPG,AFNE01.JPG,AFNE01.JPG,AFNE01.JPG,AFNE01.JPG,AFNE01.JPG,,,,,,,,,,,,,,,,,2,6,26,3,,,,,,,AFNE16.jpg,AFNE17.jpg,AFSA13.jpg,AFSA04.jpg,AFNE17.jpg,FN,3,num_6,32,num_4,0.500165341422,,,2017_May_25_1656,60.0106055406,FEMA4ImagesEEG,001,100526,
AFNE01.JPG,AFNE01.JPG,AFNE01.JPG,AFNE01.JPG,AFNE01.JPG,AFNE01.JPG,,,,,,,,,,,,,,,,,2,7,27,4,,,,,,,AFNE12.jpg,AFSA01.jpg,AFSA06.jpg,AFNE01.jpg,AFNE12.jpg,FN,3,num_8,32,num_6,0.716805584379,,,2017_May_25_1656,60.0106055406,FEMA4ImagesEEG,001,100526,
AFNE01.JPG,AFNE01.JPG,AFNE01.JPG,AFNE01.JPG,AFNE01.JPG,AFNE01.JPG,,,,,,,,,,,,,,,,,2,8,28,2,,,,,,,AFSA04.jpg,AFNE20.jpg,AFNE01.jpg,AFSA09.jpg,AFSA09.jpg,FS,4,num_4,32,num_2,0.666782667628,,,2017_May_25_1656,60.0106055406,FEMA4ImagesEEG,001,100526,
AFNE01.JPG,AFNE01.JPG,AFNE01.JPG,AFNE01.JPG,AFNE01.JPG,AFNE01.JPG,,,,,,,,,,,,,,,,,2,9,29,9,,,,,,,AFSA20.jpg,AFSA13.jpg,AFNE14.jpg,AFNE20.jpg,AFSA20.jpg,FS,4,num_8,32,num_6,0.400125922402,,,2017_May_25_1656,60.0106055406,FEMA4ImagesEEG,001,100526,
AFNE01.JPG,AFNE01.JPG,AFNE01.JPG,AFNE01.JPG,AFNE01.JPG,AFNE01.JPG,,,,,,,,,,,,,,,,,3,0,30,1,,,,,,,AFNE10.jpg,AFSA02.jpg,AFSA13.jpg,AFNE12.jpg,AFSA02.jpg,FS,4,num_6,32,num_4,0.400181731209,,,2017_May_25_1656,60.0106055406,FEMA4ImagesEEG,001,100526,
AFNE01.JPG,AFNE01.JPG,AFNE01.JPG,AFNE01.JPG,AFNE01.JPG,AFNE01.JPG,,,,,,,,,,,,,,,,,3,1,31,7,,,,,,,AFNE12.jpg,AFSA15.jpg,AFNE17.jpg,AFSA16.jpg,AFSA15.jpg,FS,4,num_6,32,num_8,2.61667988647,,,2017_May_25_1656,60.0106055406,FEMA4ImagesEEG,001,100526,
AFNE01.JPG,AFNE01.JPG,AFNE01.JPG,AFNE01.JPG,AFNE01.JPG,AFNE01.JPG,,,,,,,,,,,,,,,,,3,2,32,3,,,,,,,AFNE17.jpg,AFNE15.jpg,AFSA15.jpg,AFSA01.jpg,AFSA15.jpg,FS,4,num_2,16,num_2,0.283476025215,,,2017_May_25_1656,60.0106055406,FEMA4ImagesEEG,001,100526,
AFNE01.JPG,AFNE01.JPG,AFNE01.JPG,AFNE01.JPG,AFNE01.JPG,AFNE01.JPG,,,,,,,,,,,,,,,,,3,3,33,5,,,,,,,AFNE17.jpg,AFNE12.jpg,AFSA20.jpg,AFSA15.jpg,AFNE17.jpg,FN,3,num_8,16,num_8,0.400229521445,,,2017_May_25_1656,60.0106055406,FEMA4ImagesEEG,001,100526,
AFNE01.JPG,AFNE01.JPG,AFNE01.JPG,AFNE01.JPG,AFNE01.JPG,AFNE01.JPG,,,,,,,,,,,,,,,,,3,4,34,4,,,,,,,AFSA01.jpg,AFNE01.jpg,AFNE16.jpg,AFSA14.jpg,AFSA14.jpg,FS,4,num_4,32,num_2,0.283175491961,,,2017_May_25_1656,60.0106055406,FEMA4ImagesEEG,001,100526,
AFNE01.JPG,AFNE01.JPG,AFNE01.JPG,AFNE01.JPG,AFNE01.JPG,AFNE01.JPG,,,,,,,,,,,,,,,,,3,5,35,8,,,,,,,AFNE16.jpg,AFSA02.jpg,AFNE01.jpg,AFSA06.jpg,AFSA06.jpg,FS,4,num_4,16,num_4,0.316890388029,,,2017_May_25_1656,60.0106055406,FEMA4ImagesEEG,001,100526,
AFNE01.JPG,AFNE01.JPG,AFNE01.JPG,AFNE01.JPG,AFNE01.JPG,AFNE01.JPG,,,,,,,,,,,,,,,,,3,6,36,9,,,,,,,AFNE15.jpg,AFSA02.jpg,AFNE01.jpg,AFSA10.jpg,AFNE01.jpg,FN,3,num_2,16,num_2,0.283511948073,,,2017_May_25_1656,60.0106055406,FEMA4ImagesEEG,001,100526,
AFNE01.JPG,AFNE01.JPG,AFNE01.JPG,AFNE01.JPG,AFNE01.JPG,AFNE01.JPG,,,,,,,,,,,,,,,,,3,7,37,6,,,,,,,AFSA07.jpg,AFNE14.jpg,AFNE12.jpg,AFSA13.jpg,AFSA13.jpg,FS,4,num_4,32,num_6,0.366810347419,,,2017_May_25_1656,60.0106055406,FEMA4ImagesEEG,001,100526,
AFNE01.JPG,AFNE01.JPG,AFNE01.JPG,AFNE01.JPG,AFNE01.JPG,AFNE01.JPG,,,,,,,,,,,,,,,,,3,8,38,2,,,,,,,AFNE08.jpg,AFNE05.jpg,AFSA18.jpg,AFSA09.jpg,AFSA18.jpg,FS,4,num_2,32,num_4,0.450141462381,,,2017_May_25_1656,60.0106055406,FEMA4ImagesEEG,001,100526,
AFNE01.JPG,AFNE01.JPG,AFNE01.JPG,AFNE01.JPG,AFNE01.JPG,AFNE01.JPG,,,,,,,,,,,,,,,,,3,9,39,0,,,,,,,AFSA17.jpg,AFNE12.jpg,AFNE02.jpg,AFSA03.jpg,AFNE12.jpg,FN,3,num_6,32,num_8,0.633475111099,,,2017_May_25_1656,60.0106055406,FEMA4ImagesEEG,001,100526,
AFNE01.JPG,AFNE01.JPG,AFNE01.JPG,AFNE01.JPG,AFNE01.JPG,AFNE01.JPG,,,,,,,,,,,,,,,,,4,0,40,2,,,,,,,AFNE07.jpg,AFSA18.jpg,AFNE06.jpg,AFSA16.jpg,AFNE06.jpg,FN,3,num_2,32,num_4,0.366912984173,,,2017_May_25_1656,60.0106055406,FEMA4ImagesEEG,001,100526,
AFNE01.JPG,AFNE01.JPG,AFNE01.JPG,AFNE01.JPG,AFNE01.JPG,AFNE01.JPG,,,,,,,,,,,,,,,,,4,1,41,3,,,,,,,AFNE03.jpg,AFSA09.jpg,AFNE18.jpg,AFSA16.jpg,AFNE03.jpg,FN,3,num_8,32,num_2,0.300177272875,,,2017_May_25_1656,60.0106055406,FEMA4ImagesEEG,001,100526,
AFNE01.JPG,AFNE01.JPG,AFNE01.JPG,AFNE01.JPG,AFNE01.JPG,AFNE01.JPG,,,,,,,,,,,,,,,,,4,2,42,4,,,,,,,AFNE05.jpg,AFSA03.jpg,AFNE16.jpg,AFSA05.jpg,AFNE16.jpg,FN,3,num_2,32,num_8,0.516821044148,,,2017_May_25_1656,60.0106055406,FEMA4ImagesEEG,001,100526,
AFNE01.JPG,AFNE01.JPG,AFNE01.JPG,AFNE01.JPG,AFNE01.JPG,AFNE01.JPG,,,,,,,,,,,,,,,,,4,3,43,0,,,,,,,AFSA19.jpg,AFNE14.jpg,AFSA11.jpg,AFNE01.jpg,AFSA19.jpg,FS,4,num_8,32,num_2,0.300025242264,,,2017_May_25_1656,60.0106055406,FEMA4ImagesEEG,001,100526,
AFNE01.JPG,AFNE01.JPG,AFNE01.JPG,AFNE01.JPG,AFNE01.JPG,AFNE01.JPG,,,,,,,,,,,,,,,,,4,4,44,5,,,,,,,AFNE14.jpg,AFNE04.jpg,AFSA18.jpg,AFSA01.jpg,AFSA01.jpg,FS,4,num_4,16,num_4,0.466794919805,,,2017_May_25_1656,60.0106055406,FEMA4ImagesEEG,001,100526,
AFNE01.JPG,AFNE01.JPG,AFNE01.JPG,AFNE01.JPG,AFNE01.JPG,AFNE01.JPG,,,,,,,,,,,,,,,,,4,5,45,6,,,,,,,AFSA07.jpg,AFNE14.jpg,AFNE19.jpg,AFSA18.jpg,AFNE14.jpg,FN,3,num_6,16,num_6,0.433487042552,,,2017_May_25_1656,60.0106055406,FEMA4ImagesEEG,001,100526,
AFNE01.JPG,AFNE01.JPG,AFNE01.JPG,AFNE01.JPG,AFNE01.JPG,AFNE01.JPG,,,,,,,,,,,,,,,,,4,6,46,9,,,,,,,AFSA02.jpg,AFNE05.jpg,AFNE06.jpg,AFSA04.jpg,AFNE06.jpg,FN,3,num_2,32,num_6,0.35017260618,,,2017_May_25_1656,60.0106055406,FEMA4ImagesEEG,001,100526,
AFNE01.JPG,AFNE01.JPG,AFNE01.JPG,AFNE01.JPG,AFNE01.JPG,AFNE01.JPG,,,,,,,,,,,,,,,,,4,7,47,8,,,,,,,AFNE11.jpg,AFSA07.jpg,AFSA10.jpg,AFNE02.jpg,AFSA10.jpg,FS,4,num_2,32,num_4,0.400152864633,,,2017_May_25_1656,60.0106055406,FEMA4ImagesEEG,001,100526,
AFNE01.JPG,AFNE01.JPG,AFNE01.JPG,AFNE01.JPG,AFNE01.JPG,AFNE01.JPG,,,,,,,,,,,,,,,,,4,8,48,1,,,,,,,AFNE06.jpg,AFSA04.jpg,AFSA03.jpg,AFNE04.jpg,AFNE06.jpg,FN,3,num_8,16,num_8,0.51683547732,,,2017_May_25_1656,60.0106055406,FEMA4ImagesEEG,001,100526,
AFNE01.JPG,AFNE01.JPG,AFNE01.JPG,AFNE01.JPG,AFNE01.JPG,AFNE01.JPG,,,,,,,,,,,,,,,,,4,9,49,7,,,,,,,AFNE20.jpg,AFNE13.jpg,AFSA10.jpg,AFSA13.jpg,AFNE20.jpg,FN,3,num_8,32,num_2,0.450199836981,,,2017_May_25_1656,60.0106055406,FEMA4ImagesEEG,001,100526,
AFNE01.JPG,AFNE01.JPG,AFNE01.JPG,AFNE01.JPG,AFNE01.JPG,AFNE01.JPG,,,,,,,,,,,,,,,,,5,0,50,2,,,,,,,AFSA18.jpg,AFNE12.jpg,AFNE09.jpg,AFSA11.jpg,AFSA11.jpg,FS,4,num_4,16,num_4,0.299995413516,,,2017_May_25_1656,60.0106055406,FEMA4ImagesEEG,001,100526,
AFNE01.JPG,AFNE01.JPG,AFNE01.JPG,AFNE01.JPG,AFNE01.JPG,AFNE01.JPG,,,,,,,,,,,,,,,,,5,1,51,9,,,,,,,AFNE09.jpg,AFSA09.jpg,AFNE18.jpg,AFSA01.jpg,AFNE18.jpg,FN,3,num_2,16,num_2,0.300145840389,,,2017_May_25_1656,60.0106055406,FEMA4ImagesEEG,001,100526,
AFNE01.JPG,AFNE01.JPG,AFNE01.JPG,AFNE01.JPG,AFNE01.JPG,AFNE01.JPG,,,,,,,,,,,,,,,,,5,2,52,1,,,,,,,AFSA07.jpg,AFNE20.jpg,AFSA17.jpg,AFNE07.jpg,AFNE20.jpg,FN,3,num_6,32,num_4,0.300157066318,,,2017_May_25_1656,60.0106055406,FEMA4ImagesEEG,001,100526,
AFNE01.JPG,AFNE01.JPG,AFNE01.JPG,AFNE01.JPG,AFNE01.JPG,AFNE01.JPG,,,,,,,,,,,,,,,,,5,3,53,5,,,,,,,AFSA15.jpg,AFNE03.jpg,AFNE15.jpg,AFSA20.jpg,AFNE03.jpg,FN,3,num_6,32,num_8,0.483476281865,,,2017_May_25_1656,60.0106055406,FEMA4ImagesEEG,001,100526,
AFNE01.JPG,AFNE01.JPG,AFNE01.JPG,AFNE01.JPG,AFNE01.JPG,AFNE01.JPG,,,,,,,,,,,,,,,,,5,4,54,4,,,,,,,AFSA12.jpg,AFNE03.jpg,AFNE19.jpg,AFSA20.jpg,AFSA20.jpg,FS,4,num_4,32,num_2,0.333512092358,,,2017_May_25_1656,60.0106055406,FEMA4ImagesEEG,001,100526,
AFNE01.JPG,AFNE01.JPG,AFNE01.JPG,AFNE01.JPG,AFNE01.JPG,AFNE01.JPG,,,,,,,,,,,,,,,,,5,5,55,6,,,,,,,AFNE20.jpg,AFSA08.jpg,AFSA14.jpg,AFNE02.jpg,AFNE02.jpg,FN,3,num_4,32,num_8,0.450139217079,,,2017_May_25_1656,60.0106055406,FEMA4ImagesEEG,001,100526,
AFNE01.JPG,AFNE01.JPG,AFNE01.JPG,AFNE01.JPG,AFNE01.JPG,AFNE01.JPG,,,,,,,,,,,,,,,,,5,6,56,3,,,,,,,AFSA10.jpg,AFNE09.jpg,AFNE14.jpg,AFSA07.jpg,AFSA07.jpg,FS,4,num_4,32,num_8,0.516781272367,,,2017_May_25_1656,60.0106055406,FEMA4ImagesEEG,001,100526,
AFNE01.JPG,AFNE01.JPG,AFNE01.JPG,AFNE01.JPG,AFNE01.JPG,AFNE01.JPG,,,,,,,,,,,,,,,,,5,7,57,0,,,,,,,AFSA19.jpg,AFNE03.jpg,AFSA15.jpg,AFNE18.jpg,AFSA19.jpg,FS,4,num_8,32,num_2,1.03343296587,,,2017_May_25_1656,60.0106055406,FEMA4ImagesEEG,001,100526,
AFNE01.JPG,AFNE01.JPG,AFNE01.JPG,AFNE01.JPG,AFNE01.JPG,AFNE01.JPG,,,,,,,,,,,,,,,,,5,8,58,8,,,,,,,AFSA02.jpg,AFNE09.jpg,AFSA15.jpg,AFNE05.jpg,AFNE05.jpg,FN,3,num_4,16,num_4,0.333490602789,,,2017_May_25_1656,60.0106055406,FEMA4ImagesEEG,001,100526,
AFNE01.JPG,AFNE01.JPG,AFNE01.JPG,AFNE01.JPG,AFNE01.JPG,AFNE01.JPG,,,,,,,,,,,,,,,,,5,9,59,7,,,,,,,AFNE20.jpg,AFSA05.jpg,AFNE02.jpg,AFSA09.jpg,AFSA09.jpg,FS,4,num_4,16,num_4,0.283499118523,,,2017_May_25_1656,60.0106055406,FEMA4ImagesEEG,001,100526,
,,,,,,,,,,,,,,,,,,,,,,,,,,,,,,,,,,,,,,,,,,,space,7.7493311771,2017_May_25_1656,60.0106055406,FEMA4ImagesEEG,001,100526,
AFNE01.JPG,AFNE01.JPG,AFNE01.JPG,AFNE01.JPG,AFNE01.JPG,AFNE01.JPG,,,,,,,,,,,,,,,,,,,,,0,0,0,6,,,AMNE19.jpg,AMSA10.jpg,AMNE11.jpg,AMSA14.jpg,AMNE19.jpg,MN,1,num_8,32,num_2,0.450186365983,,,2017_May_25_1656,60.0106055406,FEMA4ImagesEEG,001,100526,
AFNE01.JPG,AFNE01.JPG,AFNE01.JPG,AFNE01.JPG,AFNE01.JPG,AFNE01.JPG,,,,,,,,,,,,,,,,,,,,,0,1,1,7,,,AMNE08.jpg,AMSA07.jpg,AMSA12.jpg,AMNE15.jpg,AMNE15.jpg,MN,1,num_4,32,num_8,0.366848515463,,,2017_May_25_1656,60.0106055406,FEMA4ImagesEEG,001,100526,
AFNE01.JPG,AFNE01.JPG,AFNE01.JPG,AFNE01.JPG,AFNE01.JPG,AFNE01.JPG,,,,,,,,,,,,,,,,,,,,,0,2,2,0,,,AMNE20.jpg,AMNE02.jpg,AMSA11.jpg,AMSA12.jpg,AMNE20.jpg,MN,1,num_8,32,num_6,0.283506495412,,,2017_May_25_1656,60.0106055406,FEMA4ImagesEEG,001,100526,
AFNE01.JPG,AFNE01.JPG,AFNE01.JPG,AFNE01.JPG,AFNE01.JPG,AFNE01.JPG,,,,,,,,,,,,,,,,,,,,,0,3,3,9,,,AMSA16.jpg,AMNE02.jpg,AMSA18.jpg,AMNE09.jpg,AMSA18.jpg,MS,2,num_2,32,num_4,0.300123388646,,,2017_May_25_1656,60.0106055406,FEMA4ImagesEEG,001,100526,
AFNE01.JPG,AFNE01.JPG,AFNE01.JPG,AFNE01.JPG,AFNE01.JPG,AFNE01.JPG,,,,,,,,,,,,,,,,,,,,,0,4,4,8,,,AMSA04.jpg,AMNE20.jpg,AMNE06.jpg,AMSA01.jpg,AMNE06.jpg,MN,1,num_2,32,num_8,0.283505212516,,,2017_May_25_1656,60.0106055406,FEMA4ImagesEEG,001,100526,
AFNE01.JPG,AFNE01.JPG,AFNE01.JPG,AFNE01.JPG,AFNE01.JPG,AFNE01.JPG,,,,,,,,,,,,,,,,,,,,,0,5,5,4,,,AMNE08.jpg,AMNE01.jpg,AMSA16.jpg,AMSA04.jpg,AMNE01.jpg,MN,1,num_6,16,num_6,0.300177272991,,,2017_May_25_1656,60.0106055406,FEMA4ImagesEEG,001,100526,
AFNE01.JPG,AFNE01.JPG,AFNE01.JPG,AFNE01.JPG,AFNE01.JPG,AFNE01.JPG,,,,,,,,,,,,,,,,,,,,,0,6,6,1,,,AMNE06.jpg,AMSA18.jpg,AMNE09.jpg,AMSA09.jpg,AMNE06.jpg,MN,1,num_8,32,num_2,0.333549939678,,,2017_May_25_1656,60.0106055406,FEMA4ImagesEEG,001,100526,
AFNE01.JPG,AFNE01.JPG,AFNE01.JPG,AFNE01.JPG,AFNE01.JPG,AFNE01.JPG,,,,,,,,,,,,,,,,,,,,,0,7,7,3,,,AMNE13.jpg,AMNE20.jpg,AMSA12.jpg,AMSA19.jpg,AMNE13.jpg,MN,1,num_8,32,num_4,0.316770752077,,,2017_May_25_1656,60.0106055406,FEMA4ImagesEEG,001,100526,
AFNE01.JPG,AFNE01.JPG,AFNE01.JPG,AFNE01.JPG,AFNE01.JPG,AFNE01.JPG,,,,,,,,,,,,,,,,,,,,,0,8,8,5,,,AMNE08.jpg,AMSA02.jpg,AMSA09.jpg,AMNE15.jpg,AMNE15.jpg,MN,1,num_4,32,num_8,0.216829479672,,,2017_May_25_1656,60.0106055406,FEMA4ImagesEEG,001,100526,
AFNE01.JPG,AFNE01.JPG,AFNE01.JPG,AFNE01.JPG,AFNE01.JPG,AFNE01.JPG,,,,,,,,,,,,,,,,,,,,,0,9,9,2,,,AMNE12.jpg,AMSA20.jpg,AMSA04.jpg,AMNE01.jpg,AMNE01.jpg,MN,1,num_4,32,num_6,0.166690775543,,,2017_May_25_1656,60.0106055406,FEMA4ImagesEEG,001,100526,
AFNE01.JPG,AFNE01.JPG,AFNE01.JPG,AFNE01.JPG,AFNE01.JPG,AFNE01.JPG,,,,,,,,,,,,,,,,,,,,,1,0,10,4,,,AMNE03.jpg,AMNE10.jpg,AMSA19.jpg,AMSA02.jpg,AMSA19.jpg,MS,2,num_2,16,num_2,0.266836359515,,,2017_May_25_1656,60.0106055406,FEMA4ImagesEEG,001,100526,
AFNE01.JPG,AFNE01.JPG,AFNE01.JPG,AFNE01.JPG,AFNE01.JPG,AFNE01.JPG,,,,,,,,,,,,,,,,,,,,,1,1,11,0,,,AMSA13.jpg,AMNE12.jpg,AMNE03.jpg,AMSA15.jpg,AMSA15.jpg,MS,2,num_4,16,num_4,0.316833296325,,,2017_May_25_1656,60.0106055406,FEMA4ImagesEEG,001,100526,
AFNE01.JPG,AFNE01.JPG,AFNE01.JPG,AFNE01.JPG,AFNE01.JPG,AFNE01.JPG,,,,,,,,,,,,,,,,,,,,,1,2,12,3,,,AMSA09.jpg,AMNE11.jpg,AMSA18.jpg,AMNE04.jpg,AMNE04.jpg,MN,1,num_4,32,num_8,0.350215906044,,,2017_May_25_1656,60.0106055406,FEMA4ImagesEEG,001,100526,
AFNE01.JPG,AFNE01.JPG,AFNE01.JPG,AFNE01.JPG,AFNE01.JPG,AFNE01.JPG,,,,,,,,,,,,,,,,,,,,,1,3,13,5,,,AMSA08.jpg,AMNE11.jpg,AMSA12.jpg,AMNE04.jpg,AMSA12.jpg,MS,2,num_2,32,num_6,0.0501643632306,,,2017_May_25_1656,60.0106055406,FEMA4ImagesEEG,001,100526,
AFNE01.JPG,AFNE01.JPG,AFNE01.JPG,AFNE01.JPG,AFNE01.JPG,AFNE01.JPG,,,,,,,,,,,,,,,,,,,,,1,4,14,7,,,AMNE02.jpg,AMSA10.jpg,AMNE05.jpg,AMSA05.jpg,AMNE02.jpg,MN,1,num_8,32,num_2,0.250159167219,,,2017_May_25_1656,60.0106055406,FEMA4ImagesEEG,001,100526,
AFNE01.JPG,AFNE01.JPG,AFNE01.JPG,AFNE01.JPG,AFNE01.JPG,AFNE01.JPG,,,,,,,,,,,,,,,,,,,,,1,5,15,1,,,AMSA17.jpg,AMSA16.jpg,AMNE04.jpg,AMNE03.jpg,AMSA16.jpg,MS,2,num_6,32,num_4,0.30017534853,,,2017_May_25_1656,60.0106055406,FEMA4ImagesEEG,001,100526,
AFNE01.JPG,AFNE01.JPG,AFNE01.JPG,AFNE01.JPG,AFNE01.JPG,AFNE01.JPG,,,,,,,,,,,,,,,,,,,,,1,6,16,9,,,AMNE17.jpg,AMNE02.jpg,AMSA05.jpg,AMSA12.jpg,AMNE17.jpg,MN,1,num_8,16,num_8,0.0667944066226,,,2017_May_25_1656,60.0106055406,FEMA4ImagesEEG,001,100526,
AFNE01.JPG,AFNE01.JPG,AFNE01.JPG,AFNE01.JPG,AFNE01.JPG,AFNE01.JPG,,,,,,,,,,,,,,,,,,,,,1,7,17,8,,,AMSA05.jpg,AMSA17.jpg,AMNE14.jpg,AMNE01.jpg,AMNE14.jpg,MN,1,num_2,16,num_2,0.500140323653,,,2017_May_25_1656,60.0106055406,FEMA4ImagesEEG,001,100526,
AFNE01.JPG,AFNE01.JPG,AFNE01.JPG,AFNE01.JPG,AFNE01.JPG,AFNE01.JPG,,,,,,,,,,,,,,,,,,,,,1,8,18,2,,,AMSA12.jpg,AMNE02.jpg,AMNE16.jpg,AMSA05.jpg,AMNE16.jpg,MN,1,num_2,32,num_4,0.36670803139,,,2017_May_25_1656,60.0106055406,FEMA4ImagesEEG,001,100526,
AFNE01.JPG,AFNE01.JPG,AFNE01.JPG,AFNE01.JPG,AFNE01.JPG,AFNE01.JPG,,,,,,,,,,,,,,,,,,,,,1,9,19,6,,,AMNE10.jpg,AMNE18.jpg,AMSA02.jpg,AMSA16.jpg,AMSA16.jpg,MS,2,num_4,32,num_8,0.233503143769,,,2017_May_25_1656,60.0106055406,FEMA4ImagesEEG,001,100526,
AFNE01.JPG,AFNE01.JPG,AFNE01.JPG,AFNE01.JPG,AFNE01.JPG,AFNE01.JPG,,,,,,,,,,,,,,,,,,,,,2,0,20,6,,,AMNE07.jpg,AMSA11.jpg,AMSA07.jpg,AMNE20.jpg,AMNE20.jpg,MN,1,num_4,16,num_4,0.333522997564,,,2017_May_25_1656,60.0106055406,FEMA4ImagesEEG,001,100526,
AFNE01.JPG,AFNE01.JPG,AFNE01.JPG,AFNE01.JPG,AFNE01.JPG,AFNE01.JPG,,,,,,,,,,,,,,,,,,,,,2,1,21,3,,,AMNE13.jpg,AMNE15.jpg,AMSA09.jpg,AMSA18.jpg,AMNE15.jpg,MN,1,num_6,32,num_8,0.550154901342,,,2017_May_25_1656,60.0106055406,FEMA4ImagesEEG,001,100526,
AFNE01.JPG,AFNE01.JPG,AFNE01.JPG,AFNE01.JPG,AFNE01.JPG,AFNE01.JPG,,,,,,,,,,,,,,,,,,,,,2,2,22,8,,,AMNE20.jpg,AMNE14.jpg,AMSA02.jpg,AMSA07.jpg,AMNE20.jpg,MN,1,num_8,16,num_8,1.28343657416,,,2017_May_25_1656,60.0106055406,FEMA4ImagesEEG,001,100526,
AFNE01.JPG,AFNE01.JPG,AFNE01.JPG,AFNE01.JPG,AFNE01.JPG,AFNE01.JPG,,,,,,,,,,,,,,,,,,,,,2,3,23,1,,,AMNE12.jpg,AMSA09.jpg,AMSA15.jpg,AMNE02.jpg,AMNE02.jpg,MN,1,num_4,16,num_4,0.466817692388,,,2017_May_25_1656,60.0106055406,FEMA4ImagesEEG,001,100526,
AFNE01.JPG,AFNE01.JPG,AFNE01.JPG,AFNE01.JPG,AFNE01.JPG,AFNE01.JPG,,,,,,,,,,,,,,,,,,,,,2,4,24,2,,,AMNE05.jpg,AMSA04.jpg,AMSA12.jpg,AMNE04.jpg,AMNE05.jpg,MN,1,num_8,32,num_6,0.383508387837,,,2017_May_25_1656,60.0106055406,FEMA4ImagesEEG,001,100526,
AFNE01.JPG,AFNE01.JPG,AFNE01.JPG,AFNE01.JPG,AFNE01.JPG,AFNE01.JPG,,,,,,,,,,,,,,,,,,,,,2,5,25,0,,,AMSA16.jpg,AMSA08.jpg,AMNE09.jpg,AMNE04.jpg,AMSA16.jpg,MS,2,num_8,32,num_2,0.350153361796,,,2017_May_25_1656,60.0106055406,FEMA4ImagesEEG,001,100526,
AFNE01.JPG,AFNE01.JPG,AFNE01.JPG,AFNE01.JPG,AFNE01.JPG,AFNE01.JPG,,,,,,,,,,,,,,,,,,,,,2,6,26,4,,,AMNE02.jpg,AMSA12.jpg,AMNE14.jpg,AMSA17.jpg,AMNE14.jpg,MN,1,num_2,32,num_4,0.33348996134,,,2017_May_25_1656,60.0106055406,FEMA4ImagesEEG,001,100526,
AFNE01.JPG,AFNE01.JPG,AFNE01.JPG,AFNE01.JPG,AFNE01.JPG,AFNE01.JPG,,,,,,,,,,,,,,,,,,,,,2,7,27,7,,,AMNE05.jpg,AMSA20.jpg,AMNE07.jpg,AMSA11.jpg,AMSA20.jpg,MS,2,num_6,32,num_4,0.433469401905,,,2017_May_25_1656,60.0106055406,FEMA4ImagesEEG,001,100526,
AFNE01.JPG,AFNE01.JPG,AFNE01.JPG,AFNE01.JPG,AFNE01.JPG,AFNE01.JPG,,,,,,,,,,,,,,,,,,,,,2,8,28,9,,,AMNE03.jpg,AMSA10.jpg,AMNE11.jpg,AMSA14.jpg,AMSA10.jpg,MS,2,num_6,16,num_6,0.816841796041,,,2017_May_25_1656,60.0106055406,FEMA4ImagesEEG,001,100526,
AFNE01.JPG,AFNE01.JPG,AFNE01.JPG,AFNE01.JPG,AFNE01.JPG,AFNE01.JPG,,,,,,,,,,,,,,,,,,,,,2,9,29,5,,,AMNE06.jpg,AMSA13.jpg,AMSA03.jpg,AMNE03.jpg,AMSA13.jpg,MS,2,num_6,32,num_4,0.666782026063,,,2017_May_25_1656,60.0106055406,FEMA4ImagesEEG,001,100526,
AFNE01.JPG,AFNE01.JPG,AFNE01.JPG,AFNE01.JPG,AFNE01.JPG,AFNE01.JPG,,,,,,,,,,,,,,,,,,,,,3,0,30,9,,,AMNE12.jpg,AMSA16.jpg,AMSA13.jpg,AMNE07.jpg,AMSA16.jpg,MS,2,num_6,32,num_4,0.35012449522,,,2017_May_25_1656,60.0106055406,FEMA4ImagesEEG,001,100526,
AFNE01.JPG,AFNE01.JPG,AFNE01.JPG,AFNE01.JPG,AFNE01.JPG,AFNE01.JPG,,,,,,,,,,,,,,,,,,,,,3,1,31,7,,,AMNE12.jpg,AMSA12.jpg,AMNE13.jpg,AMSA07.jpg,AMSA07.jpg,MS,2,num_4,16,num_4,0.316784864641,,,2017_May_25_1656,60.0106055406,FEMA4ImagesEEG,001,100526,
AFNE01.JPG,AFNE01.JPG,AFNE01.JPG,AFNE01.JPG,AFNE01.JPG,AFNE01.JPG,,,,,,,,,,,,,,,,,,,,,3,2,32,5,,,AMSA18.jpg,AMNE15.jpg,AMSA12.jpg,AMNE20.jpg,AMNE15.jpg,MN,1,num_6,32,num_8,0.333450510283,,,2017_May_25_1656,60.0106055406,FEMA4ImagesEEG,001,100526,
AFNE01.JPG,AFNE01.JPG,AFNE01.JPG,AFNE01.JPG,AFNE01.JPG,AFNE01.JPG,,,,,,,,,,,,,,,,,,,,,3,3,33,4,,,AMNE17.jpg,AMSA16.jpg,AMSA12.jpg,AMNE02.jpg,AMNE17.jpg,MN,1,num_8,32,num_6,0.366780197946,,,2017_May_25_1656,60.0106055406,FEMA4ImagesEEG,001,100526,
AFNE01.JPG,AFNE01.JPG,AFNE01.JPG,AFNE01.JPG,AFNE01.JPG,AFNE01.JPG,,,,,,,,,,,,,,,,,,,,,3,4,34,8,,,AMSA02.jpg,AMNE03.jpg,AMNE17.jpg,AMSA19.jpg,AMSA19.jpg,MS,2,num_4,32,num_2,0.700439189095,,,2017_May_25_1656,60.0106055406,FEMA4ImagesEEG,001,100526,
AFNE01.JPG,AFNE01.JPG,AFNE01.JPG,AFNE01.JPG,AFNE01.JPG,AFNE01.JPG,,,,,,,,,,,,,,,,,,,,,3,5,35,1,,,AMNE06.jpg,AMSA10.jpg,AMSA16.jpg,AMNE09.jpg,AMSA10.jpg,MS,2,num_6,32,num_4,0.416779379942,,,2017_May_25_1656,60.0106055406,FEMA4ImagesEEG,001,100526,
AFNE01.JPG,AFNE01.JPG,AFNE01.JPG,AFNE01.JPG,AFNE01.JPG,AFNE01.JPG,,,,,,,,,,,,,,,,,,,,,3,6,36,0,,,AMNE12.jpg,AMSA04.jpg,AMNE05.jpg,AMSA14.jpg,AMSA04.jpg,MS,2,num_6,16,num_6,0.416837113095,,,2017_May_25_1656,60.0106055406,FEMA4ImagesEEG,001,100526,
AFNE01.JPG,AFNE01.JPG,AFNE01.JPG,AFNE01.JPG,AFNE01.JPG,AFNE01.JPG,,,,,,,,,,,,,,,,,,,,,3,7,37,3,,,AMNE19.jpg,AMSA08.jpg,AMSA06.jpg,AMNE14.jpg,AMSA06.jpg,MS,2,num_2,16,num_2,0.266904997756,,,2017_May_25_1656,60.0106055406,FEMA4ImagesEEG,001,100526,
AFNE01.JPG,AFNE01.JPG,AFNE01.JPG,AFNE01.JPG,AFNE01.JPG,AFNE01.JPG,,,,,,,,,,,,,,,,,,,,,3,8,38,6,,,AMNE03.jpg,AMSA01.jpg,AMSA02.jpg,AMNE18.jpg,AMNE18.jpg,MN,1,num_4,32,num_6,0.0335330367088,,,2017_May_25_1656,60.0106055406,FEMA4ImagesEEG,001,100526,
