IPosition2,IPosition3,IPosition1,IPosition6,IPosition4,IPosition5,TrialsF1.thisRepN,TrialsF1.thisTrialN,TrialsF1.thisN,TrialsF1.thisIndex,TrialsM1.thisRepN,TrialsM1.thisTrialN,TrialsM1.thisN,TrialsM1.thisIndex,TrialsF2.thisRepN,TrialsF2.thisTrialN,TrialsF2.thisN,TrialsF2.thisIndex,TrialsM2.thisRepN,TrialsM2.thisTrialN,TrialsM2.thisN,TrialsM2.thisIndex,TrialsF3.thisRepN,TrialsF3.thisTrialN,TrialsF3.thisN,TrialsF3.thisIndex,TrialsM3.thisRepN,TrialsM3.thisTrialN,TrialsM3.thisN,TrialsM3.thisIndex,InstrKey_resp.keys,InstrKey_resp.rt,Image0 _Position,Image1 _Position,Image2 _Position,Image3 _Position,Center_image,condition,code,correct_answer,accuracy,Key_Resp.keys,Key_Resp.rt,BreakKey_resp.keys,BreakKey_resp.rt,date,frameRate,expName,session,participant,
,,,,,,,,,,,,,,,,,,,,,,,,,,,,,,space,64.8454739267,,,,,,,,,,,,,,2017_May_31_1633,59.9892443145,FEMA4ImagesEEG,001,100515,
AMSA21.JPG,AMNE23.JPG,AMNE21.JPG,AMSA25.JPG,AMNE25.JPG,AMSA23.JPG,0,0,0,5,,,,,,,,,,,,,,,,,,,,,,,AFNE08.jpg,AFSA02.jpg,AFSA12.jpg,AFNE17.jpg,AFSA12.jpg,FS,4,num_2,16,num_2,1.38340510963,,,2017_May_31_1633,59.9892443145,FEMA4ImagesEEG,001,100515,
AMSA25.JPG,AMNE24.JPG,AMSA24.JPG,AMNE26.JPG,AMSA21.JPG,AMNE25.JPG,0,1,1,3,,,,,,,,,,,,,,,,,,,,,,,AFSA08.jpg,AFNE20.jpg,AFNE01.jpg,AFSA06.jpg,AFSA08.jpg,FS,4,num_8,32,num_6,1.06671999511,,,2017_May_31_1633,59.9892443145,FEMA4ImagesEEG,001,100515,
AFSA25.JPG,AFNE24.JPG,AFSA24.JPG,AFNE21.JPG,AFSA21.JPG,AFNE25.JPG,0,2,2,2,,,,,,,,,,,,,,,,,,,,,,,AFSA12.jpg,AFNE06.jpg,AFSA11.jpg,AFNE08.jpg,AFNE06.jpg,FN,3,num_6,16,num_6,0.900161043508,,,2017_May_31_1633,59.9892443145,FEMA4ImagesEEG,001,100515,
AFSA21.JPG,AFNE22.JPG,AFNE21.JPG,AFSA23.JPG,AFSA22.JPG,AFNE23.JPG,0,3,3,0,,,,,,,,,,,,,,,,,,,,,,,AFNE20.jpg,AFSA18.jpg,AFNE16.jpg,AFSA01.jpg,AFSA01.jpg,FS,4,num_4,16,num_4,1.45011901064,,,2017_May_31_1633,59.9892443145,FEMA4ImagesEEG,001,100515,
AMNE22.JPG,AMSA24.JPG,AMSA22.JPG,AMNE25.JPG,AMNE24.JPG,AMSA25.JPG,0,4,4,7,,,,,,,,,,,,,,,,,,,,,,,AFSA15.jpg,AFNE12.jpg,AFNE15.jpg,AFSA12.jpg,AFSA12.jpg,FS,4,num_4,16,num_4,1.1334316507,,,2017_May_31_1633,59.9892443145,FEMA4ImagesEEG,001,100515,
AMSA21.JPG,AMNE22.JPG,AMNE21.JPG,AMSA23.JPG,AMSA22.JPG,AMNE23.JPG,0,5,5,1,,,,,,,,,,,,,,,,,,,,,,,AFNE15.jpg,AFNE07.jpg,AFSA18.jpg,AFSA09.jpg,AFNE07.jpg,FN,3,num_6,16,num_6,2.13330463786,,,2017_May_31_1633,59.9892443145,FEMA4ImagesEEG,001,100515,
AMNE23.JPG,AMNE24.JPG,AMNE22.JPG,AMSA24.JPG,AMSA22.JPG,AMSA23.JPG,0,6,6,9,,,,,,,,,,,,,,,,,,,,,,,AFNE18.jpg,AFNE17.jpg,AFSA11.jpg,AFSA15.jpg,AFNE18.jpg,FN,3,num_8,32,num_4,1.13344127289,,,2017_May_31_1633,59.9892443145,FEMA4ImagesEEG,001,100515,
AFSA21.JPG,AFNE23.JPG,AFNE21.JPG,AFSA25.JPG,AFNE25.JPG,AFSA23.JPG,0,7,7,4,,,,,,,,,,,,,,,,,,,,,,,AFSA08.jpg,AFNE17.jpg,AFNE10.jpg,AFSA20.jpg,AFSA20.jpg,FS,4,num_4,32,num_8,0.583465665346,,,2017_May_31_1633,59.9892443145,FEMA4ImagesEEG,001,100515,
AFNE22.JPG,AFSA24.JPG,AFSA22.JPG,AFNE25.JPG,AFNE24.JPG,AFSA25.JPG,0,8,8,6,,,,,,,,,,,,,,,,,,,,,,,AFNE18.jpg,AFNE01.jpg,AFSA07.jpg,AFSA18.jpg,AFSA18.jpg,FS,4,num_4,16,num_4,0.866771377623,,,2017_May_31_1633,59.9892443145,FEMA4ImagesEEG,001,100515,
AFNE23.JPG,AFNE24.JPG,AFNE22.JPG,AFSA24.JPG,AFSA22.JPG,AFSA23.JPG,0,9,9,8,,,,,,,,,,,,,,,,,,,,,,,AFNE06.jpg,AFSA09.jpg,AFNE02.jpg,AFSA03.jpg,AFNE02.jpg,FN,3,num_2,16,num_2,1.95032476517,,,2017_May_31_1633,59.9892443145,FEMA4ImagesEEG,001,100515,
AFSA21.JPG,AFNE22.JPG,AFNE21.JPG,AFSA23.JPG,AFSA22.JPG,AFNE23.JPG,,,,,0,0,0,0,,,,,,,,,,,,,,,,,,,AMNE10.jpg,AMNE15.jpg,AMSA06.jpg,AMSA14.jpg,AMNE10.jpg,MN,1,num_8,32,num_2,1.20007691346,,,2017_May_31_1633,59.9892443145,FEMA4ImagesEEG,001,100515,
AFSA25.JPG,AFNE24.JPG,AFSA24.JPG,AFNE21.JPG,AFSA21.JPG,AFNE25.JPG,,,,,0,1,1,2,,,,,,,,,,,,,,,,,,,AMNE07.jpg,AMSA06.jpg,AMNE14.jpg,AMSA17.jpg,AMNE14.jpg,MN,1,num_2,32,num_6,1.60008384124,,,2017_May_31_1633,59.9892443145,FEMA4ImagesEEG,001,100515,
AMSA25.JPG,AMNE24.JPG,AMSA24.JPG,AMNE26.JPG,AMSA21.JPG,AMNE25.JPG,,,,,0,2,2,3,,,,,,,,,,,,,,,,,,,AMSA05.jpg,AMNE17.jpg,AMNE04.jpg,AMSA15.jpg,AMSA05.jpg,MS,2,num_8,32,num_4,0.483511883998,,,2017_May_31_1633,59.9892443145,FEMA4ImagesEEG,001,100515,
AMNE23.JPG,AMNE24.JPG,AMNE22.JPG,AMSA24.JPG,AMSA22.JPG,AMSA23.JPG,,,,,0,3,3,9,,,,,,,,,,,,,,,,,,,AMNE09.jpg,AMNE15.jpg,AMSA13.jpg,AMSA03.jpg,AMSA03.jpg,MS,2,num_4,32,num_6,1.06678221864,,,2017_May_31_1633,59.9892443145,FEMA4ImagesEEG,001,100515,
AFSA21.JPG,AFNE23.JPG,AFNE21.JPG,AFSA25.JPG,AFNE25.JPG,AFSA23.JPG,,,,,0,4,4,4,,,,,,,,,,,,,,,,,,,AMNE11.jpg,AMSA09.jpg,AMSA18.jpg,AMNE05.jpg,AMNE11.jpg,MN,1,num_8,16,num_8,0.633449451765,,,2017_May_31_1633,59.9892443145,FEMA4ImagesEEG,001,100515,
AFNE23.JPG,AFNE24.JPG,AFNE22.JPG,AFSA24.JPG,AFSA22.JPG,AFSA23.JPG,,,,,0,5,5,8,,,,,,,,,,,,,,,,,,,AMSA08.jpg,AMNE15.jpg,AMSA15.jpg,AMNE02.jpg,AMNE02.jpg,MN,1,num_4,32,num_2,0.366805215599,,,2017_May_31_1633,59.9892443145,FEMA4ImagesEEG,001,100515,
AMSA21.JPG,AMNE22.JPG,AMNE21.JPG,AMSA23.JPG,AMSA22.JPG,AMNE23.JPG,,,,,0,6,6,1,,,,,,,,,,,,,,,,,,,AMSA10.jpg,AMSA13.jpg,AMNE19.jpg,AMNE18.jpg,AMNE19.jpg,MN,1,num_2,32,num_6,0.716652912321,,,2017_May_31_1633,59.9892443145,FEMA4ImagesEEG,001,100515,
AMSA21.JPG,AMNE23.JPG,AMNE21.JPG,AMSA25.JPG,AMNE25.JPG,AMSA23.JPG,,,,,0,7,7,5,,,,,,,,,,,,,,,,,,,AMSA06.jpg,AMNE18.jpg,AMNE01.jpg,AMSA20.jpg,AMNE01.jpg,MN,1,num_2,32,num_8,0.816442474723,,,2017_May_31_1633,59.9892443145,FEMA4ImagesEEG,001,100515,
AMNE22.JPG,AMSA24.JPG,AMSA22.JPG,AMNE25.JPG,AMNE24.JPG,AMSA25.JPG,,,,,0,8,8,7,,,,,,,,,,,,,,,,,,,AMNE11.jpg,AMNE03.jpg,AMSA15.jpg,AMSA09.jpg,AMSA15.jpg,MS,2,num_2,16,num_2,0.400169542991,,,2017_May_31_1633,59.9892443145,FEMA4ImagesEEG,001,100515,
AFNE22.JPG,AFSA24.JPG,AFSA22.JPG,AFNE25.JPG,AFNE24.JPG,AFSA25.JPG,,,,,0,9,9,6,,,,,,,,,,,,,,,,,,,AMNE08.jpg,AMSA14.jpg,AMSA16.jpg,AMNE10.jpg,AMSA16.jpg,MS,2,num_2,32,num_6,0.700162069872,,,2017_May_31_1633,59.9892443145,FEMA4ImagesEEG,001,100515,
AMNE22.JPG,AMSA24.JPG,AMSA22.JPG,AMNE25.JPG,AMNE24.JPG,AMSA25.JPG,,,,,,,,,0,0,0,7,,,,,,,,,,,,,,,AFNE17.jpg,AFNE07.jpg,AFSA18.jpg,AFSA06.jpg,AFNE07.jpg,FN,3,num_6,16,num_6,1.1334063122,,,2017_May_31_1633,59.9892443145,FEMA4ImagesEEG,001,100515,
AFSA25.JPG,AFNE24.JPG,AFSA24.JPG,AFNE21.JPG,AFSA21.JPG,AFNE25.JPG,,,,,,,,,0,1,1,2,,,,,,,,,,,,,,,AFSA13.jpg,AFSA20.jpg,AFNE07.jpg,AFNE06.jpg,AFNE06.jpg,FN,3,num_4,16,num_4,0.916764465626,,,2017_May_31_1633,59.9892443145,FEMA4ImagesEEG,001,100515,
AMSA25.JPG,AMNE24.JPG,AMSA24.JPG,AMNE26.JPG,AMSA21.JPG,AMNE25.JPG,,,,,,,,,0,2,2,3,,,,,,,,,,,,,,,AFSA08.jpg,AFNE02.jpg,AFSA03.jpg,AFNE10.jpg,AFNE10.jpg,FN,3,num_4,16,num_4,0.716768378625,,,2017_May_31_1633,59.9892443145,FEMA4ImagesEEG,001,100515,
AMNE23.JPG,AMNE24.JPG,AMNE22.JPG,AMSA24.JPG,AMSA22.JPG,AMSA23.JPG,,,,,,,,,0,3,3,9,,,,,,,,,,,,,,,AFSA09.jpg,AFNE18.jpg,AFNE13.jpg,AFSA06.jpg,AFNE13.jpg,FN,3,num_2,16,num_2,1.20017730491,,,2017_May_31_1633,59.9892443145,FEMA4ImagesEEG,001,100515,
AFNE23.JPG,AFNE24.JPG,AFNE22.JPG,AFSA24.JPG,AFSA22.JPG,AFSA23.JPG,,,,,,,,,0,4,4,8,,,,,,,,,,,,,,,AFSA07.jpg,AFSA08.jpg,AFNE05.jpg,AFNE16.jpg,AFSA07.jpg,FS,4,num_8,16,num_8,1.05013645883,,,2017_May_31_1633,59.9892443145,FEMA4ImagesEEG,001,100515,
AMSA21.JPG,AMNE23.JPG,AMNE21.JPG,AMSA25.JPG,AMNE25.JPG,AMSA23.JPG,,,,,,,,,0,5,5,5,,,,,,,,,,,,,,,AFNE15.jpg,AFNE03.jpg,AFSA15.jpg,AFSA17.jpg,AFSA15.jpg,FS,4,num_2,32,num_4,0.766771409661,,,2017_May_31_1633,59.9892443145,FEMA4ImagesEEG,001,100515,
AFSA21.JPG,AFNE22.JPG,AFNE21.JPG,AFSA23.JPG,AFSA22.JPG,AFNE23.JPG,,,,,,,,,0,6,6,0,,,,,,,,,,,,,,,AFNE19.jpg,AFSA20.jpg,AFSA17.jpg,AFNE05.jpg,AFNE05.jpg,FN,3,num_4,32,num_2,1.01679586596,,,2017_May_31_1633,59.9892443145,FEMA4ImagesEEG,001,100515,
AFNE22.JPG,AFSA24.JPG,AFSA22.JPG,AFNE25.JPG,AFNE24.JPG,AFSA25.JPG,,,,,,,,,0,7,7,6,,,,,,,,,,,,,,,AFNE11.jpg,AFSA06.jpg,AFSA09.jpg,AFNE18.jpg,AFSA06.jpg,FS,4,num_6,16,num_6,0.750090689166,,,2017_May_31_1633,59.9892443145,FEMA4ImagesEEG,001,100515,
AFSA21.JPG,AFNE23.JPG,AFNE21.JPG,AFSA25.JPG,AFNE25.JPG,AFSA23.JPG,,,,,,,,,0,8,8,4,,,,,,,,,,,,,,,AFSA15.jpg,AFNE20.jpg,AFSA08.jpg,AFNE19.jpg,AFSA08.jpg,FS,4,num_2,32,num_8,1.00010391977,,,2017_May_31_1633,59.9892443145,FEMA4ImagesEEG,001,100515,
AMSA21.JPG,AMNE22.JPG,AMNE21.JPG,AMSA23.JPG,AMSA22.JPG,AMNE23.JPG,,,,,,,,,0,9,9,1,,,,,,,,,,,,,,,AFSA01.jpg,AFNE09.jpg,AFSA11.jpg,AFNE01.jpg,AFSA01.jpg,FS,4,num_8,32,num_4,0.76679257839,,,2017_May_31_1633,59.9892443145,FEMA4ImagesEEG,001,100515,
AMSA21.JPG,AMNE23.JPG,AMNE21.JPG,AMSA25.JPG,AMNE25.JPG,AMSA23.JPG,,,,,,,,,,,,,0,0,0,5,,,,,,,,,,,AMSA09.jpg,AMNE08.jpg,AMSA18.jpg,AMNE09.jpg,AMNE08.jpg,MN,1,num_6,32,num_2,0.350150154438,,,2017_May_31_1633,59.9892443145,FEMA4ImagesEEG,001,100515,
AMNE23.JPG,AMNE24.JPG,AMNE22.JPG,AMSA24.JPG,AMSA22.JPG,AMSA23.JPG,,,,,,,,,,,,,0,1,1,9,,,,,,,,,,,AMSA01.jpg,AMNE12.jpg,AMNE04.jpg,AMSA17.jpg,AMNE12.jpg,MN,1,num_6,32,num_4,0.616818767041,,,2017_May_31_1633,59.9892443145,FEMA4ImagesEEG,001,100515,
AMSA21.JPG,AMNE22.JPG,AMNE21.JPG,AMSA23.JPG,AMSA22.JPG,AMNE23.JPG,,,,,,,,,,,,,0,2,2,1,,,,,,,,,,,AMSA16.jpg,AMSA10.jpg,AMNE03.jpg,AMNE07.jpg,AMNE07.jpg,MN,1,num_4,32,num_6,0.600134197623,,,2017_May_31_1633,59.9892443145,FEMA4ImagesEEG,001,100515,
AFSA21.JPG,AFNE22.JPG,AFNE21.JPG,AFSA23.JPG,AFSA22.JPG,AFNE23.JPG,,,,,,,,,,,,,0,3,3,0,,,,,,,,,,,AMSA02.jpg,AMNE04.jpg,AMSA14.jpg,AMNE20.jpg,AMSA14.jpg,MS,2,num_2,32,num_8,0.666327537736,,,2017_May_31_1633,59.9892443145,FEMA4ImagesEEG,001,100515,
AMSA25.JPG,AMNE24.JPG,AMSA24.JPG,AMNE26.JPG,AMSA21.JPG,AMNE25.JPG,,,,,,,,,,,,,0,4,4,3,,,,,,,,,,,AMSA16.jpg,AMNE18.jpg,AMNE08.jpg,AMSA14.jpg,AMSA16.jpg,MS,2,num_8,16,num_8,1.05012844014,,,2017_May_31_1633,59.9892443145,FEMA4ImagesEEG,001,100515,
AFSA25.JPG,AFNE24.JPG,AFSA24.JPG,AFNE21.JPG,AFSA21.JPG,AFNE25.JPG,,,,,,,,,,,,,0,5,5,2,,,,,,,,,,,AMSA20.jpg,AMNE14.jpg,AMNE03.jpg,AMSA03.jpg,AMNE03.jpg,MN,1,num_2,32,num_6,0.500021970831,,,2017_May_31_1633,59.9892443145,FEMA4ImagesEEG,001,100515,
AFNE23.JPG,AFNE24.JPG,AFNE22.JPG,AFSA24.JPG,AFSA22.JPG,AFSA23.JPG,,,,,,,,,,,,,0,6,6,8,,,,,,,,,,,AMNE05.jpg,AMSA20.jpg,AMNE11.jpg,AMSA11.jpg,AMNE11.jpg,MN,1,num_2,32,num_8,0.750307188602,,,2017_May_31_1633,59.9892443145,FEMA4ImagesEEG,001,100515,
AFNE22.JPG,AFSA24.JPG,AFSA22.JPG,AFNE25.JPG,AFNE24.JPG,AFSA25.JPG,,,,,,,,,,,,,0,7,7,6,,,,,,,,,,,AMSA01.jpg,AMSA05.jpg,AMNE09.jpg,AMNE20.jpg,AMNE20.jpg,MN,1,num_4,16,num_4,1.53351587709,,,2017_May_31_1633,59.9892443145,FEMA4ImagesEEG,001,100515,
AMNE22.JPG,AMSA24.JPG,AMSA22.JPG,AMNE25.JPG,AMNE24.JPG,AMSA25.JPG,,,,,,,,,,,,,0,8,8,7,,,,,,,,,,,AMNE15.jpg,AMSA16.jpg,AMNE10.jpg,AMSA14.jpg,AMSA16.jpg,MS,2,num_6,16,num_6,1.11675349623,,,2017_May_31_1633,59.9892443145,FEMA4ImagesEEG,001,100515,
AFSA21.JPG,AFNE23.JPG,AFNE21.JPG,AFSA25.JPG,AFNE25.JPG,AFSA23.JPG,,,,,,,,,,,,,0,9,9,4,,,,,,,,,,,AMSA15.jpg,AMNE17.jpg,AMSA17.jpg,AMNE10.jpg,AMSA15.jpg,MS,2,num_8,32,num_4,0.833457406145,,,2017_May_31_1633,59.9892443145,FEMA4ImagesEEG,001,100515,
AMNE23.JPG,AMNE24.JPG,AMNE22.JPG,AMSA24.JPG,AMSA22.JPG,AMSA23.JPG,,,,,,,,,,,,,,,,,0,0,0,9,,,,,,,AFNE15.jpg,AFNE09.jpg,AFSA15.jpg,AFSA01.jpg,AFNE09.jpg,FN,3,num_6,16,num_6,1.35007381812,,,2017_May_31_1633,59.9892443145,FEMA4ImagesEEG,001,100515,
AMNE22.JPG,AMSA24.JPG,AMSA22.JPG,AMNE25.JPG,AMNE24.JPG,AMSA25.JPG,,,,,,,,,,,,,,,,,0,1,1,7,,,,,,,AFNE18.jpg,AFSA08.jpg,AFNE07.jpg,AFSA20.jpg,AFSA20.jpg,FS,4,num_4,16,num_4,1.36667884397,,,2017_May_31_1633,59.9892443145,FEMA4ImagesEEG,001,100515,
AFSA25.JPG,AFNE24.JPG,AFSA24.JPG,AFNE21.JPG,AFSA21.JPG,AFNE25.JPG,,,,,,,,,,,,,,,,,0,2,2,2,,,,,,,AFSA12.jpg,AFNE13.jpg,AFNE17.jpg,AFSA13.jpg,AFNE17.jpg,FN,3,num_2,32,num_6,0.700118770124,,,2017_May_31_1633,59.9892443145,FEMA4ImagesEEG,001,100515,
AFNE23.JPG,AFNE24.JPG,AFNE22.JPG,AFSA24.JPG,AFSA22.JPG,AFSA23.JPG,,,,,,,,,,,,,,,,,0,3,3,8,,,,,,,AFSA17.jpg,AFNE03.jpg,AFSA10.jpg,AFNE08.jpg,AFNE03.jpg,FN,3,num_6,32,num_8,0.650153586408,,,2017_May_31_1633,59.9892443145,FEMA4ImagesEEG,001,100515,
AMSA25.JPG,AMNE24.JPG,AMSA24.JPG,AMNE26.JPG,AMSA21.JPG,AMNE25.JPG,,,,,,,,,,,,,,,,,0,4,4,3,,,,,,,AFSA18.jpg,AFSA11.jpg,AFNE13.jpg,AFNE12.jpg,AFNE12.jpg,FN,3,num_4,32,num_2,0.76675473107,,,2017_May_31_1633,59.9892443145,FEMA4ImagesEEG,001,100515,
AFSA21.JPG,AFNE22.JPG,AFNE21.JPG,AFSA23.JPG,AFSA22.JPG,AFNE23.JPG,,,,,,,,,,,,,,,,,0,5,5,0,,,,,,,AFNE13.jpg,AFNE14.jpg,AFSA07.jpg,AFSA14.jpg,AFNE14.jpg,FN,3,num_6,32,num_4,0.60011944361,,,2017_May_31_1633,59.9892443145,FEMA4ImagesEEG,001,100515,
AFNE22.JPG,AFSA24.JPG,AFSA22.JPG,AFNE25.JPG,AFNE24.JPG,AFSA25.JPG,,,,,,,,,,,,,,,,,0,6,6,6,,,,,,,AFNE18.jpg,AFSA13.jpg,AFSA06.jpg,AFNE12.jpg,AFSA06.jpg,FS,4,num_2,32,num_6,0.700138976565,,,2017_May_31_1633,59.9892443145,FEMA4ImagesEEG,001,100515,
AMSA21.JPG,AMNE23.JPG,AMNE21.JPG,AMSA25.JPG,AMNE25.JPG,AMSA23.JPG,,,,,,,,,,,,,,,,,0,7,7,5,,,,,,,AFNE13.jpg,AFNE12.jpg,AFSA08.jpg,AFSA04.jpg,AFNE13.jpg,FN,3,num_8,16,num_8,0.916798143182,,,2017_May_31_1633,59.9892443145,FEMA4ImagesEEG,001,100515,
AMSA21.JPG,AMNE22.JPG,AMNE21.JPG,AMSA23.JPG,AMSA22.JPG,AMNE23.JPG,,,,,,,,,,,,,,,,,0,8,8,1,,,,,,,AFSA16.jpg,AFSA13.jpg,AFNE13.jpg,AFNE17.jpg,AFSA13.jpg,FS,4,num_6,16,num_6,1.60005818214,,,2017_May_31_1633,59.9892443145,FEMA4ImagesEEG,001,100515,
AFSA21.JPG,AFNE23.JPG,AFNE21.JPG,AFSA25.JPG,AFNE25.JPG,AFSA23.JPG,,,,,,,,,,,,,,,,,0,9,9,4,,,,,,,AFNE06.jpg,AFSA13.jpg,AFNE08.jpg,AFSA10.jpg,AFSA13.jpg,FS,4,num_6,16,num_6,1.00008082646,,,2017_May_31_1633,59.9892443145,FEMA4ImagesEEG,001,100515,
AMNE23.JPG,AMNE24.JPG,AMNE22.JPG,AMSA24.JPG,AMSA22.JPG,AMSA23.JPG,,,,,,,,,,,,,,,,,,,,,0,0,0,9,,,AMNE19.jpg,AMSA20.jpg,AMSA10.jpg,AMNE08.jpg,AMNE19.jpg,MN,1,num_8,32,num_4,1.11675028899,,,2017_May_31_1633,59.9892443145,FEMA4ImagesEEG,001,100515,
AMNE22.JPG,AMSA24.JPG,AMSA22.JPG,AMNE25.JPG,AMNE24.JPG,AMSA25.JPG,,,,,,,,,,,,,,,,,,,,,0,1,1,7,,,AMNE10.jpg,AMNE05.jpg,AMSA17.jpg,AMSA01.jpg,AMSA17.jpg,MS,2,num_2,32,num_4,1.5331104619,,,2017_May_31_1633,59.9892443145,FEMA4ImagesEEG,001,100515,
AFSA21.JPG,AFNE23.JPG,AFNE21.JPG,AFSA25.JPG,AFNE25.JPG,AFSA23.JPG,,,,,,,,,,,,,,,,,,,,,0,2,2,4,,,AMNE05.jpg,AMSA20.jpg,AMNE01.jpg,AMSA01.jpg,AMNE05.jpg,MN,1,num_8,32,num_2,2.18334391247,,,2017_May_31_1633,59.9892443145,FEMA4ImagesEEG,001,100515,
AFSA25.JPG,AFNE24.JPG,AFSA24.JPG,AFNE21.JPG,AFSA21.JPG,AFNE25.JPG,,,,,,,,,,,,,,,,,,,,,0,3,3,2,,,AMSA09.jpg,AMNE11.jpg,AMNE04.jpg,AMSA05.jpg,AMNE11.jpg,MN,1,num_6,16,num_6,0.90014404431,,,2017_May_31_1633,59.9892443145,FEMA4ImagesEEG,001,100515,
AFNE23.JPG,AFNE24.JPG,AFNE22.JPG,AFSA24.JPG,AFSA22.JPG,AFSA23.JPG,,,,,,,,,,,,,,,,,,,,,0,4,4,8,,,AMNE15.jpg,AMNE04.jpg,AMSA03.jpg,AMSA14.jpg,AMNE15.jpg,MN,1,num_8,16,num_8,0.633478639415,,,2017_May_31_1633,59.9892443145,FEMA4ImagesEEG,001,100515,
AMSA21.JPG,AMNE23.JPG,AMNE21.JPG,AMSA25.JPG,AMNE25.JPG,AMSA23.JPG,,,,,,,,,,,,,,,,,,,,,0,5,5,5,,,AMNE15.jpg,AMNE05.jpg,AMSA18.jpg,AMSA14.jpg,AMNE05.jpg,MN,1,num_6,32,num_8,0.850190086523,,,2017_May_31_1633,59.9892443145,FEMA4ImagesEEG,001,100515,
AFNE22.JPG,AFSA24.JPG,AFSA22.JPG,AFNE25.JPG,AFNE24.JPG,AFSA25.JPG,,,,,,,,,,,,,,,,,,,,,0,6,6,6,,,AMNE09.jpg,AMSA14.jpg,AMNE04.jpg,AMSA02.jpg,AMNE04.jpg,MN,1,num_2,32,num_4,0.766756335041,,,2017_May_31_1633,59.9892443145,FEMA4ImagesEEG,001,100515,
AMSA25.JPG,AMNE24.JPG,AMSA24.JPG,AMNE26.JPG,AMSA21.JPG,AMNE25.JPG,,,,,,,,,,,,,,,,,,,,,0,7,7,3,,,AMSA16.jpg,AMNE15.jpg,AMNE13.jpg,AMSA12.jpg,AMNE13.jpg,MN,1,num_2,32,num_6,0.650159359677,,,2017_May_31_1633,59.9892443145,FEMA4ImagesEEG,001,100515,
AMSA21.JPG,AMNE22.JPG,AMNE21.JPG,AMSA23.JPG,AMSA22.JPG,AMNE23.JPG,,,,,,,,,,,,,,,,,,,,,0,8,8,1,,,AMSA20.jpg,AMNE11.jpg,AMSA04.jpg,AMNE02.jpg,AMSA04.jpg,MS,2,num_2,16,num_2,0.883397572208,,,2017_May_31_1633,59.9892443145,FEMA4ImagesEEG,001,100515,
AFSA21.JPG,AFNE22.JPG,AFNE21.JPG,AFSA23.JPG,AFSA22.JPG,AFNE23.JPG,,,,,,,,,,,,,,,,,,,,,0,9,9,0,,,AMSA10.jpg,AMNE06.jpg,AMNE19.jpg,AMSA15.jpg,AMSA10.jpg,MS,2,num_8,32,num_4,0.966821380891,,,2017_May_31_1633,59.9892443145,FEMA4ImagesEEG,001,100515,
,,,,,,,,,,,,,,,,,,,,,,,,,,,,,,,,,,,,,,,,,,,space,8.91617077612,2017_May_31_1633,59.9892443145,FEMA4ImagesEEG,001,100515,
AFNE01.JPG,AFNE01.JPG,AFNE01.JPG,AFNE01.JPG,AFNE01.JPG,AFNE01.JPG,0,0,0,2,,,,,,,,,,,,,,,,,,,,,,,AFSA08.jpg,AFNE12.jpg,AFNE16.jpg,AFSA10.jpg,AFSA08.jpg,FS,4,num_8,32,num_4,0.800177112455,,,2017_May_31_1633,59.9892443145,FEMA4ImagesEEG,001,100515,
AFNE01.JPG,AFNE01.JPG,AFNE01.JPG,AFNE01.JPG,AFNE01.JPG,AFNE01.JPG,0,1,1,6,,,,,,,,,,,,,,,,,,,,,,,AFSA01.jpg,AFSA08.jpg,AFNE19.jpg,AFNE07.jpg,AFSA01.jpg,FS,4,num_8,32,num_6,0.633510392625,,,2017_May_31_1633,59.9892443145,FEMA4ImagesEEG,001,100515,
AFNE01.JPG,AFNE01.JPG,AFNE01.JPG,AFNE01.JPG,AFNE01.JPG,AFNE01.JPG,0,2,2,7,,,,,,,,,,,,,,,,,,,,,,,AFNE13.jpg,AFSA07.jpg,AFNE11.jpg,AFSA09.jpg,AFSA07.jpg,FS,4,num_6,32,num_2,1.31673611235,,,2017_May_31_1633,59.9892443145,FEMA4ImagesEEG,001,100515,
AFNE01.JPG,AFNE01.JPG,AFNE01.JPG,AFNE01.JPG,AFNE01.JPG,AFNE01.JPG,0,3,3,1,,,,,,,,,,,,,,,,,,,,,,,AFNE02.jpg,AFSA08.jpg,AFSA05.jpg,AFNE20.jpg,AFSA08.jpg,FS,4,num_6,32,num_8,0.433479986386,,,2017_May_31_1633,59.9892443145,FEMA4ImagesEEG,001,100515,
AFNE01.JPG,AFNE01.JPG,AFNE01.JPG,AFNE01.JPG,AFNE01.JPG,AFNE01.JPG,0,4,4,5,,,,,,,,,,,,,,,,,,,,,,,AFSA04.jpg,AFNE01.jpg,AFSA12.jpg,AFNE05.jpg,AFNE01.jpg,FN,3,num_6,16,num_6,0.566827603383,,,2017_May_31_1633,59.9892443145,FEMA4ImagesEEG,001,100515,
AFNE01.JPG,AFNE01.JPG,AFNE01.JPG,AFNE01.JPG,AFNE01.JPG,AFNE01.JPG,0,5,5,8,,,,,,,,,,,,,,,,,,,,,,,AFNE06.jpg,AFNE13.jpg,AFSA06.jpg,AFSA16.jpg,AFSA06.jpg,FS,4,num_2,16,num_2,1.25008315197,,,2017_May_31_1633,59.9892443145,FEMA4ImagesEEG,001,100515,
AFNE01.JPG,AFNE01.JPG,AFNE01.JPG,AFNE01.JPG,AFNE01.JPG,AFNE01.JPG,0,6,6,0,,,,,,,,,,,,,,,,,,,,,,,AFNE18.jpg,AFNE07.jpg,AFSA05.jpg,AFSA09.jpg,AFSA09.jpg,FS,4,num_4,16,num_4,0.900118064368,,,2017_May_31_1633,59.9892443145,FEMA4ImagesEEG,001,100515,
AFNE01.JPG,AFNE01.JPG,AFNE01.JPG,AFNE01.JPG,AFNE01.JPG,AFNE01.JPG,0,7,7,3,,,,,,,,,,,,,,,,,,,,,,,AFSA02.jpg,AFSA18.jpg,AFNE04.jpg,AFNE05.jpg,AFNE04.jpg,FN,3,num_2,16,num_2,1.033468568,,,2017_May_31_1633,59.9892443145,FEMA4ImagesEEG,001,100515,
AFNE01.JPG,AFNE01.JPG,AFNE01.JPG,AFNE01.JPG,AFNE01.JPG,AFNE01.JPG,0,8,8,9,,,,,,,,,,,,,,,,,,,,,,,AFNE18.jpg,AFSA05.jpg,AFNE05.jpg,AFSA10.jpg,AFSA05.jpg,FS,4,num_6,32,num_2,1.91669422365,,,2017_May_31_1633,59.9892443145,FEMA4ImagesEEG,001,100515,
AFNE01.JPG,AFNE01.JPG,AFNE01.JPG,AFNE01.JPG,AFNE01.JPG,AFNE01.JPG,0,9,9,4,,,,,,,,,,,,,,,,,,,,,,,AFNE03.jpg,AFSA20.jpg,AFSA02.jpg,AFNE20.jpg,AFSA20.jpg,FS,4,num_6,32,num_2,1.23341782694,,,2017_May_31_1633,59.9892443145,FEMA4ImagesEEG,001,100515,
AFNE01.JPG,AFNE01.JPG,AFNE01.JPG,AFNE01.JPG,AFNE01.JPG,AFNE01.JPG,1,0,10,1,,,,,,,,,,,,,,,,,,,,,,,AFNE13.jpg,AFSA03.jpg,AFSA02.jpg,AFNE07.jpg,AFNE13.jpg,FN,3,num_8,16,num_8,0.800199243473,,,2017_May_31_1633,59.9892443145,FEMA4ImagesEEG,001,100515,
AFNE01.JPG,AFNE01.JPG,AFNE01.JPG,AFNE01.JPG,AFNE01.JPG,AFNE01.JPG,1,1,11,9,,,,,,,,,,,,,,,,,,,,,,,AFNE09.jpg,AFSA13.jpg,AFNE11.jpg,AFSA16.jpg,AFSA13.jpg,FS,4,num_6,16,num_6,0.899929790059,,,2017_May_31_1633,59.9892443145,FEMA4ImagesEEG,001,100515,
AFNE01.JPG,AFNE01.JPG,AFNE01.JPG,AFNE01.JPG,AFNE01.JPG,AFNE01.JPG,1,2,12,0,,,,,,,,,,,,,,,,,,,,,,,AFSA12.jpg,AFNE07.jpg,AFSA09.jpg,AFNE08.jpg,AFNE07.jpg,FN,3,num_6,16,num_6,0.93353082356,,,2017_May_31_1633,59.9892443145,FEMA4ImagesEEG,001,100515,
AFNE01.JPG,AFNE01.JPG,AFNE01.JPG,AFNE01.JPG,AFNE01.JPG,AFNE01.JPG,1,3,13,7,,,,,,,,,,,,,,,,,,,,,,,AFSA05.jpg,AFNE05.jpg,AFNE07.jpg,AFSA04.jpg,AFNE05.jpg,FN,3,num_6,16,num_6,1.01682537422,,,2017_May_31_1633,59.9892443145,FEMA4ImagesEEG,001,100515,
AFNE01.JPG,AFNE01.JPG,AFNE01.JPG,AFNE01.JPG,AFNE01.JPG,AFNE01.JPG,1,4,14,4,,,,,,,,,,,,,,,,,,,,,,,AFNE17.jpg,AFNE04.jpg,AFSA02.jpg,AFSA10.jpg,AFNE17.jpg,FN,3,num_8,16,num_8,0.633540862938,,,2017_May_31_1633,59.9892443145,FEMA4ImagesEEG,001,100515,
AFNE01.JPG,AFNE01.JPG,AFNE01.JPG,AFNE01.JPG,AFNE01.JPG,AFNE01.JPG,1,5,15,5,,,,,,,,,,,,,,,,,,,,,,,AFSA05.jpg,AFNE17.jpg,AFNE20.jpg,AFSA09.jpg,AFSA09.jpg,FS,4,num_4,32,num_2,1.71662019659,,,2017_May_31_1633,59.9892443145,FEMA4ImagesEEG,001,100515,
AFNE01.JPG,AFNE01.JPG,AFNE01.JPG,AFNE01.JPG,AFNE01.JPG,AFNE01.JPG,1,6,16,6,,,,,,,,,,,,,,,,,,,,,,,AFNE13.jpg,AFNE19.jpg,AFSA07.jpg,AFSA19.jpg,AFNE13.jpg,FN,3,num_8,32,num_6,0.816791439895,,,2017_May_31_1633,59.9892443145,FEMA4ImagesEEG,001,100515,
AFNE01.JPG,AFNE01.JPG,AFNE01.JPG,AFNE01.JPG,AFNE01.JPG,AFNE01.JPG,1,7,17,3,,,,,,,,,,,,,,,,,,,,,,,AFNE20.jpg,AFSA09.jpg,AFSA01.jpg,AFNE11.jpg,AFNE20.jpg,FN,3,num_8,16,num_8,0.450131840305,,,2017_May_31_1633,59.9892443145,FEMA4ImagesEEG,001,100515,
AFNE01.JPG,AFNE01.JPG,AFNE01.JPG,AFNE01.JPG,AFNE01.JPG,AFNE01.JPG,1,8,18,8,,,,,,,,,,,,,,,,,,,,,,,AFNE13.jpg,AFSA06.jpg,AFNE09.jpg,AFSA02.jpg,AFSA02.jpg,FS,4,num_4,16,num_4,0.916757409461,,,2017_May_31_1633,59.9892443145,FEMA4ImagesEEG,001,100515,
AFNE01.JPG,AFNE01.JPG,AFNE01.JPG,AFNE01.JPG,AFNE01.JPG,AFNE01.JPG,1,9,19,2,,,,,,,,,,,,,,,,,,,,,,,AFSA07.jpg,AFNE10.jpg,AFNE04.jpg,AFSA19.jpg,AFSA07.jpg,FS,4,num_8,32,num_2,1.2567571078,,,2017_May_31_1633,59.9892443145,FEMA4ImagesEEG,001,100515,
AFNE01.JPG,AFNE01.JPG,AFNE01.JPG,AFNE01.JPG,AFNE01.JPG,AFNE01.JPG,2,0,20,3,,,,,,,,,,,,,,,,,,,,,,,AFNE12.jpg,AFSA02.jpg,AFSA17.jpg,AFNE20.jpg,AFSA02.jpg,FS,4,num_6,16,num_6,0.666854513343,,,2017_May_31_1633,59.9892443145,FEMA4ImagesEEG,001,100515,
AFNE01.JPG,AFNE01.JPG,AFNE01.JPG,AFNE01.JPG,AFNE01.JPG,AFNE01.JPG,2,1,21,8,,,,,,,,,,,,,,,,,,,,,,,AFSA07.jpg,AFNE15.jpg,AFNE12.jpg,AFSA18.jpg,AFNE12.jpg,FN,3,num_2,16,num_2,0.933463789057,,,2017_May_31_1633,59.9892443145,FEMA4ImagesEEG,001,100515,
AFNE01.JPG,AFNE01.JPG,AFNE01.JPG,AFNE01.JPG,AFNE01.JPG,AFNE01.JPG,2,2,22,6,,,,,,,,,,,,,,,,,,,,,,,AFSA18.jpg,AFNE03.jpg,AFNE06.jpg,AFSA15.jpg,AFSA15.jpg,FS,4,num_4,16,num_4,0.766773975454,,,2017_May_31_1633,59.9892443145,FEMA4ImagesEEG,001,100515,
AFNE01.JPG,AFNE01.JPG,AFNE01.JPG,AFNE01.JPG,AFNE01.JPG,AFNE01.JPG,2,3,23,9,,,,,,,,,,,,,,,,,,,,,,,AFSA15.jpg,AFNE02.jpg,AFSA14.jpg,AFNE04.jpg,AFSA14.jpg,FS,4,num_2,16,num_2,0.850147748832,,,2017_May_31_1633,59.9892443145,FEMA4ImagesEEG,001,100515,
AFNE01.JPG,AFNE01.JPG,AFNE01.JPG,AFNE01.JPG,AFNE01.JPG,AFNE01.JPG,2,4,24,1,,,,,,,,,,,,,,,,,,,,,,,AFNE10.jpg,AFNE03.jpg,AFSA01.jpg,AFSA12.jpg,AFSA12.jpg,FS,4,num_4,16,num_4,0.60016755457,,,2017_May_31_1633,59.9892443145,FEMA4ImagesEEG,001,100515,
AFNE01.JPG,AFNE01.JPG,AFNE01.JPG,AFNE01.JPG,AFNE01.JPG,AFNE01.JPG,2,5,25,0,,,,,,,,,,,,,,,,,,,,,,,AFSA01.jpg,AFSA18.jpg,AFNE14.jpg,AFNE01.jpg,AFNE14.jpg,FN,3,num_2,32,num_4,0.866862788331,,,2017_May_31_1633,59.9892443145,FEMA4ImagesEEG,001,100515,
AFNE01.JPG,AFNE01.JPG,AFNE01.JPG,AFNE01.JPG,AFNE01.JPG,AFNE01.JPG,2,6,26,4,,,,,,,,,,,,,,,,,,,,,,,AFSA13.jpg,AFNE14.jpg,AFNE08.jpg,AFSA15.jpg,AFSA13.jpg,FS,4,num_8,32,num_2,1.10012633936,,,2017_May_31_1633,59.9892443145,FEMA4ImagesEEG,001,100515,
AFNE01.JPG,AFNE01.JPG,AFNE01.JPG,AFNE01.JPG,AFNE01.JPG,AFNE01.JPG,2,7,27,7,,,,,,,,,,,,,,,,,,,,,,,AFNE18.jpg,AFSA14.jpg,AFNE07.jpg,AFSA10.jpg,AFNE07.jpg,FN,3,num_2,32,num_8,1.23345342907,,,2017_May_31_1633,59.9892443145,FEMA4ImagesEEG,001,100515,
AFNE01.JPG,AFNE01.JPG,AFNE01.JPG,AFNE01.JPG,AFNE01.JPG,AFNE01.JPG,2,8,28,5,,,,,,,,,,,,,,,,,,,,,,,AFSA16.jpg,AFNE07.jpg,AFNE12.jpg,AFSA09.jpg,AFSA16.jpg,FS,4,num_8,32,num_4,0.683457935462,,,2017_May_31_1633,59.9892443145,FEMA4ImagesEEG,001,100515,
AFNE01.JPG,AFNE01.JPG,AFNE01.JPG,AFNE01.JPG,AFNE01.JPG,AFNE01.JPG,2,9,29,2,,,,,,,,,,,,,,,,,,,,,,,AFSA06.jpg,AFNE20.jpg,AFNE10.jpg,AFSA15.jpg,AFSA06.jpg,FS,4,num_8,16,num_8,0.816777648171,,,2017_May_31_1633,59.9892443145,FEMA4ImagesEEG,001,100515,
AFNE01.JPG,AFNE01.JPG,AFNE01.JPG,AFNE01.JPG,AFNE01.JPG,AFNE01.JPG,3,0,30,7,,,,,,,,,,,,,,,,,,,,,,,AFNE07.jpg,AFNE18.jpg,AFSA07.jpg,AFSA04.jpg,AFSA04.jpg,FS,4,num_4,32,num_8,1.4501600652,,,2017_May_31_1633,59.9892443145,FEMA4ImagesEEG,001,100515,
AFNE01.JPG,AFNE01.JPG,AFNE01.JPG,AFNE01.JPG,AFNE01.JPG,AFNE01.JPG,3,1,31,2,,,,,,,,,,,,,,,,,,,,,,,AFNE17.jpg,AFSA04.jpg,AFSA07.jpg,AFNE06.jpg,AFNE06.jpg,FN,3,num_4,32,num_2,1.13341016136,,,2017_May_31_1633,59.9892443145,FEMA4ImagesEEG,001,100515,
AFNE01.JPG,AFNE01.JPG,AFNE01.JPG,AFNE01.JPG,AFNE01.JPG,AFNE01.JPG,3,2,32,1,,,,,,,,,,,,,,,,,,,,,,,AFNE06.jpg,AFSA13.jpg,AFSA04.jpg,AFNE15.jpg,AFSA04.jpg,FS,4,num_2,32,num_4,1.15001935652,,,2017_May_31_1633,59.9892443145,FEMA4ImagesEEG,001,100515,
AFNE01.JPG,AFNE01.JPG,AFNE01.JPG,AFNE01.JPG,AFNE01.JPG,AFNE01.JPG,3,3,33,4,,,,,,,,,,,,,,,,,,,,,,,AFNE20.jpg,AFSA17.jpg,AFNE10.jpg,AFSA04.jpg,AFNE20.jpg,FN,3,num_8,16,num_8,0.816716065863,,,2017_May_31_1633,59.9892443145,FEMA4ImagesEEG,001,100515,
AFNE01.JPG,AFNE01.JPG,AFNE01.JPG,AFNE01.JPG,AFNE01.JPG,AFNE01.JPG,3,4,34,8,,,,,,,,,,,,,,,,,,,,,,,AFSA15.jpg,AFNE12.jpg,AFSA20.jpg,AFNE03.jpg,AFNE03.jpg,FN,3,num_4,32,num_2,0.916735919891,,,2017_May_31_1633,59.9892443145,FEMA4ImagesEEG,001,100515,
AFNE01.JPG,AFNE01.JPG,AFNE01.JPG,AFNE01.JPG,AFNE01.JPG,AFNE01.JPG,3,5,35,0,,,,,,,,,,,,,,,,,,,,,,,AFSA17.jpg,AFSA09.jpg,AFNE06.jpg,AFNE10.jpg,AFNE06.jpg,FN,3,num_2,32,num_4,0.716831243597,,,2017_May_31_1633,59.9892443145,FEMA4ImagesEEG,001,100515,
AFNE01.JPG,AFNE01.JPG,AFNE01.JPG,AFNE01.JPG,AFNE01.JPG,AFNE01.JPG,3,6,36,9,,,,,,,,,,,,,,,,,,,,,,,AFNE01.jpg,AFNE15.jpg,AFSA09.jpg,AFSA13.jpg,AFSA13.jpg,FS,4,num_4,16,num_4,1.05046521709,,,2017_May_31_1633,59.9892443145,FEMA4ImagesEEG,001,100515,
AFNE01.JPG,AFNE01.JPG,AFNE01.JPG,AFNE01.JPG,AFNE01.JPG,AFNE01.JPG,3,7,37,5,,,,,,,,,,,,,,,,,,,,,,,AFSA17.jpg,AFSA15.jpg,AFNE07.jpg,AFNE17.jpg,AFSA15.jpg,FS,4,num_6,16,num_6,0.833585381508,,,2017_May_31_1633,59.9892443145,FEMA4ImagesEEG,001,100515,
AFNE01.JPG,AFNE01.JPG,AFNE01.JPG,AFNE01.JPG,AFNE01.JPG,AFNE01.JPG,3,8,38,3,,,,,,,,,,,,,,,,,,,,,,,AFSA12.jpg,AFSA11.jpg,AFNE20.jpg,AFNE15.jpg,AFSA11.jpg,FS,4,num_6,16,num_6,1.15009248536,,,2017_May_31_1633,59.9892443145,FEMA4ImagesEEG,001,100515,
AFNE01.JPG,AFNE01.JPG,AFNE01.JPG,AFNE01.JPG,AFNE01.JPG,AFNE01.JPG,3,9,39,6,,,,,,,,,,,,,,,,,,,,,,,AFNE06.jpg,AFSA15.jpg,AFNE17.jpg,AFSA01.jpg,AFNE17.jpg,FN,3,num_2,32,num_4,0.833486914169,,,2017_May_31_1633,59.9892443145,FEMA4ImagesEEG,001,100515,
AFNE01.JPG,AFNE01.JPG,AFNE01.JPG,AFNE01.JPG,AFNE01.JPG,AFNE01.JPG,4,0,40,8,,,,,,,,,,,,,,,,,,,,,,,AFNE07.jpg,AFSA04.jpg,AFNE05.jpg,AFSA05.jpg,AFSA04.jpg,FS,4,num_6,16,num_6,0.933436846593,,,2017_May_31_1633,59.9892443145,FEMA4ImagesEEG,001,100515,
AFNE01.JPG,AFNE01.JPG,AFNE01.JPG,AFNE01.JPG,AFNE01.JPG,AFNE01.JPG,4,1,41,5,,,,,,,,,,,,,,,,,,,,,,,AFNE04.jpg,AFSA08.jpg,AFSA06.jpg,AFNE15.jpg,AFNE04.jpg,FN,3,num_8,16,num_8,0.816749422811,,,2017_May_31_1633,59.9892443145,FEMA4ImagesEEG,001,100515,
AFNE01.JPG,AFNE01.JPG,AFNE01.JPG,AFNE01.JPG,AFNE01.JPG,AFNE01.JPG,4,2,42,6,,,,,,,,,,,,,,,,,,,,,,,AFSA05.jpg,AFSA09.jpg,AFNE04.jpg,AFNE02.jpg,AFNE04.jpg,FN,3,num_2,16,num_2,0.666782026179,,,2017_May_31_1633,59.9892443145,FEMA4ImagesEEG,001,100515,
AFNE01.JPG,AFNE01.JPG,AFNE01.JPG,AFNE01.JPG,AFNE01.JPG,AFNE01.JPG,4,3,43,4,,,,,,,,,,,,,,,,,,,,,,,AFNE13.jpg,AFNE20.jpg,AFSA05.jpg,AFSA02.jpg,AFNE20.jpg,FN,3,num_6,32,num_4,0.950102171628,,,2017_May_31_1633,59.9892443145,FEMA4ImagesEEG,001,100515,
AFNE01.JPG,AFNE01.JPG,AFNE01.JPG,AFNE01.JPG,AFNE01.JPG,AFNE01.JPG,4,4,44,2,,,,,,,,,,,,,,,,,,,,,,,AFSA10.jpg,AFSA13.jpg,AFNE14.jpg,AFNE10.jpg,AFSA10.jpg,FS,4,num_8,16,num_8,1.05014511873,,,2017_May_31_1633,59.9892443145,FEMA4ImagesEEG,001,100515,
AFNE01.JPG,AFNE01.JPG,AFNE01.JPG,AFNE01.JPG,AFNE01.JPG,AFNE01.JPG,4,5,45,9,,,,,,,,,,,,,,,,,,,,,,,AFNE08.jpg,AFNE12.jpg,AFSA02.jpg,AFSA05.jpg,AFNE12.jpg,FN,3,num_6,16,num_6,0.883508548141,,,2017_May_31_1633,59.9892443145,FEMA4ImagesEEG,001,100515,
AFNE01.JPG,AFNE01.JPG,AFNE01.JPG,AFNE01.JPG,AFNE01.JPG,AFNE01.JPG,4,6,46,1,,,,,,,,,,,,,,,,,,,,,,,AFNE09.jpg,AFSA19.jpg,AFNE16.jpg,AFSA20.jpg,AFSA20.jpg,FS,4,num_4,32,num_6,0.73349207826,,,2017_May_31_1633,59.9892443145,FEMA4ImagesEEG,001,100515,
AFNE01.JPG,AFNE01.JPG,AFNE01.JPG,AFNE01.JPG,AFNE01.JPG,AFNE01.JPG,4,7,47,0,,,,,,,,,,,,,,,,,,,,,,,AFNE11.jpg,AFSA19.jpg,AFSA17.jpg,AFNE14.jpg,AFSA17.jpg,FS,4,num_2,16,num_2,1.03346824716,,,2017_May_31_1633,59.9892443145,FEMA4ImagesEEG,001,100515,
AFNE01.JPG,AFNE01.JPG,AFNE01.JPG,AFNE01.JPG,AFNE01.JPG,AFNE01.JPG,4,8,48,7,,,,,,,,,,,,,,,,,,,,,,,AFNE01.jpg,AFSA01.jpg,AFNE08.jpg,AFSA07.jpg,AFNE08.jpg,FN,3,num_2,32,num_8,0.783802698832,,,2017_May_31_1633,59.9892443145,FEMA4ImagesEEG,001,100515,
AFNE01.JPG,AFNE01.JPG,AFNE01.JPG,AFNE01.JPG,AFNE01.JPG,AFNE01.JPG,4,9,49,3,,,,,,,,,,,,,,,,,,,,,,,AFSA04.jpg,AFNE20.jpg,AFSA07.jpg,AFNE12.jpg,AFNE12.jpg,FN,3,num_4,16,num_4,1.03344771988,,,2017_May_31_1633,59.9892443145,FEMA4ImagesEEG,001,100515,
AFNE01.JPG,AFNE01.JPG,AFNE01.JPG,AFNE01.JPG,AFNE01.JPG,AFNE01.JPG,5,0,50,1,,,,,,,,,,,,,,,,,,,,,,,AFSA13.jpg,AFSA12.jpg,AFNE02.jpg,AFNE08.jpg,AFSA12.jpg,FS,4,num_6,32,num_8,1.21674544574,,,2017_May_31_1633,59.9892443145,FEMA4ImagesEEG,001,100515,
AFNE01.JPG,AFNE01.JPG,AFNE01.JPG,AFNE01.JPG,AFNE01.JPG,AFNE01.JPG,5,1,51,2,,,,,,,,,,,,,,,,,,,,,,,AFSA13.jpg,AFSA09.jpg,AFNE14.jpg,AFNE18.jpg,AFNE18.jpg,FN,3,num_4,16,num_4,1.55006316979,,,2017_May_31_1633,59.9892443145,FEMA4ImagesEEG,001,100515,
AFNE01.JPG,AFNE01.JPG,AFNE01.JPG,AFNE01.JPG,AFNE01.JPG,AFNE01.JPG,5,2,52,5,,,,,,,,,,,,,,,,,,,,,,,AFSA14.jpg,AFNE07.jpg,AFSA05.jpg,AFNE10.jpg,AFSA14.jpg,FS,4,num_8,16,num_8,1.30010382342,,,2017_May_31_1633,59.9892443145,FEMA4ImagesEEG,001,100515,
AFNE01.JPG,AFNE01.JPG,AFNE01.JPG,AFNE01.JPG,AFNE01.JPG,AFNE01.JPG,5,3,53,4,,,,,,,,,,,,,,,,,,,,,,,AFNE11.jpg,AFSA16.jpg,AFNE16.jpg,AFSA02.jpg,AFSA02.jpg,FS,4,num_4,16,num_4,1.00014529517,,,2017_May_31_1633,59.9892443145,FEMA4ImagesEEG,001,100515,
AFNE01.JPG,AFNE01.JPG,AFNE01.JPG,AFNE01.JPG,AFNE01.JPG,AFNE01.JPG,5,4,54,3,,,,,,,,,,,,,,,,,,,,,,,AFSA16.jpg,AFNE10.jpg,AFNE06.jpg,AFSA10.jpg,AFNE06.jpg,FN,3,num_2,32,num_6,0.983392408118,,,2017_May_31_1633,59.9892443145,FEMA4ImagesEEG,001,100515,
AFNE01.JPG,AFNE01.JPG,AFNE01.JPG,AFNE01.JPG,AFNE01.JPG,AFNE01.JPG,5,5,55,8,,,,,,,,,,,,,,,,,,,,,,,AFNE06.jpg,AFSA19.jpg,AFSA05.jpg,AFNE05.jpg,AFNE05.jpg,FN,3,num_4,16,num_4,1.05014383583,,,2017_May_31_1633,59.9892443145,FEMA4ImagesEEG,001,100515,
AFNE01.JPG,AFNE01.JPG,AFNE01.JPG,AFNE01.JPG,AFNE01.JPG,AFNE01.JPG,5,6,56,7,,,,,,,,,,,,,,,,,,,,,,,AFSA02.jpg,AFNE10.jpg,AFNE02.jpg,AFSA06.jpg,AFSA02.jpg,FS,4,num_8,32,num_2,0.700092469342,,,2017_May_31_1633,59.9892443145,FEMA4ImagesEEG,001,100515,
AFNE01.JPG,AFNE01.JPG,AFNE01.JPG,AFNE01.JPG,AFNE01.JPG,AFNE01.JPG,5,7,57,9,,,,,,,,,,,,,,,,,,,,,,,AFSA09.jpg,AFNE11.jpg,AFSA07.jpg,AFNE06.jpg,AFNE11.jpg,FN,3,num_6,16,num_6,0.466793957632,,,2017_May_31_1633,59.9892443145,FEMA4ImagesEEG,001,100515,
AFNE01.JPG,AFNE01.JPG,AFNE01.JPG,AFNE01.JPG,AFNE01.JPG,AFNE01.JPG,5,8,58,6,,,,,,,,,,,,,,,,,,,,,,,AFSA19.jpg,AFNE03.jpg,AFSA20.jpg,AFNE02.jpg,AFNE03.jpg,FN,3,num_6,32,num_4,0.300148406532,,,2017_May_31_1633,59.9892443145,FEMA4ImagesEEG,001,100515,
AFNE01.JPG,AFNE01.JPG,AFNE01.JPG,AFNE01.JPG,AFNE01.JPG,AFNE01.JPG,5,9,59,0,,,,,,,,,,,,,,,,,,,,,,,AFNE19.jpg,AFNE03.jpg,AFSA16.jpg,AFSA09.jpg,AFNE19.jpg,FN,3,num_8,16,num_8,0.683465953916,,,2017_May_31_1633,59.9892443145,FEMA4ImagesEEG,001,100515,
,,,,,,,,,,,,,,,,,,,,,,,,,,,,,,,,,,,,,,,,,,,space,6.26631515706,2017_May_31_1633,59.9892443145,FEMA4ImagesEEG,001,100515,
AFNE01.JPG,AFNE01.JPG,AFNE01.JPG,AFNE01.JPG,AFNE01.JPG,AFNE01.JPG,,,,,0,0,0,6,,,,,,,,,,,,,,,,,,,AMNE15.jpg,AMSA08.jpg,AMNE03.jpg,AMSA13.jpg,AMSA08.jpg,MS,2,num_6,32,num_4,0.783460790059,,,2017_May_31_1633,59.9892443145,FEMA4ImagesEEG,001,100515,
AFNE01.JPG,AFNE01.JPG,AFNE01.JPG,AFNE01.JPG,AFNE01.JPG,AFNE01.JPG,,,,,0,1,1,4,,,,,,,,,,,,,,,,,,,AMSA08.jpg,AMSA11.jpg,AMNE20.jpg,AMNE16.jpg,AMNE16.jpg,MN,1,num_4,32,num_8,0.733434665715,,,2017_May_31_1633,59.9892443145,FEMA4ImagesEEG,001,100515,
AFNE01.JPG,AFNE01.JPG,AFNE01.JPG,AFNE01.JPG,AFNE01.JPG,AFNE01.JPG,,,,,0,2,2,8,,,,,,,,,,,,,,,,,,,AMNE17.jpg,AMSA08.jpg,AMSA14.jpg,AMNE04.jpg,AMNE17.jpg,MN,1,num_8,32,num_6,0.78347650636,,,2017_May_31_1633,59.9892443145,FEMA4ImagesEEG,001,100515,
AFNE01.JPG,AFNE01.JPG,AFNE01.JPG,AFNE01.JPG,AFNE01.JPG,AFNE01.JPG,,,,,0,3,3,3,,,,,,,,,,,,,,,,,,,AMSA16.jpg,AMSA07.jpg,AMNE13.jpg,AMNE06.jpg,AMSA16.jpg,MS,2,num_8,16,num_8,0.666809289018,,,2017_May_31_1633,59.9892443145,FEMA4ImagesEEG,001,100515,
AFNE01.JPG,AFNE01.JPG,AFNE01.JPG,AFNE01.JPG,AFNE01.JPG,AFNE01.JPG,,,,,0,4,4,9,,,,,,,,,,,,,,,,,,,AMNE15.jpg,AMNE01.jpg,AMSA10.jpg,AMSA20.jpg,AMNE15.jpg,MN,1,num_8,32,num_4,2.65001085703,,,2017_May_31_1633,59.9892443145,FEMA4ImagesEEG,001,100515,
AFNE01.JPG,AFNE01.JPG,AFNE01.JPG,AFNE01.JPG,AFNE01.JPG,AFNE01.JPG,,,,,0,5,5,2,,,,,,,,,,,,,,,,,,,AMSA19.jpg,AMNE13.jpg,AMSA17.jpg,AMNE16.jpg,AMNE13.jpg,MN,1,num_6,16,num_6,0.583548095543,,,2017_May_31_1633,59.9892443145,FEMA4ImagesEEG,001,100515,
AFNE01.JPG,AFNE01.JPG,AFNE01.JPG,AFNE01.JPG,AFNE01.JPG,AFNE01.JPG,,,,,0,6,6,0,,,,,,,,,,,,,,,,,,,AMSA16.jpg,AMNE05.jpg,AMNE07.jpg,AMSA13.jpg,AMNE07.jpg,MN,1,num_2,32,num_8,1.26676034415,,,2017_May_31_1633,59.9892443145,FEMA4ImagesEEG,001,100515,
AFNE01.JPG,AFNE01.JPG,AFNE01.JPG,AFNE01.JPG,AFNE01.JPG,AFNE01.JPG,,,,,0,7,7,1,,,,,,,,,,,,,,,,,,,AMNE08.jpg,AMSA04.jpg,AMSA18.jpg,AMNE04.jpg,AMSA18.jpg,MS,2,num_2,32,num_6,0.833478574874,,,2017_May_31_1633,59.9892443145,FEMA4ImagesEEG,001,100515,
AFNE01.JPG,AFNE01.JPG,AFNE01.JPG,AFNE01.JPG,AFNE01.JPG,AFNE01.JPG,,,,,0,8,8,5,,,,,,,,,,,,,,,,,,,AMSA02.jpg,AMNE18.jpg,AMNE12.jpg,AMSA12.jpg,AMNE12.jpg,MN,1,num_2,16,num_2,0.666854834184,,,2017_May_31_1633,59.9892443145,FEMA4ImagesEEG,001,100515,
AFNE01.JPG,AFNE01.JPG,AFNE01.JPG,AFNE01.JPG,AFNE01.JPG,AFNE01.JPG,,,,,0,9,9,7,,,,,,,,,,,,,,,,,,,AMNE13.jpg,AMSA07.jpg,AMNE04.jpg,AMSA14.jpg,AMNE04.jpg,MN,1,num_2,32,num_4,0.866609403864,,,2017_May_31_1633,59.9892443145,FEMA4ImagesEEG,001,100515,
AFNE01.JPG,AFNE01.JPG,AFNE01.JPG,AFNE01.JPG,AFNE01.JPG,AFNE01.JPG,,,,,1,0,10,4,,,,,,,,,,,,,,,,,,,AMSA08.jpg,AMNE16.jpg,AMSA03.jpg,AMNE02.jpg,AMSA08.jpg,MS,2,num_8,32,num_4,1.68348455685,,,2017_May_31_1633,59.9892443145,FEMA4ImagesEEG,001,100515,
AFNE01.JPG,AFNE01.JPG,AFNE01.JPG,AFNE01.JPG,AFNE01.JPG,AFNE01.JPG,,,,,1,1,11,8,,,,,,,,,,,,,,,,,,,AMNE01.jpg,AMSA03.jpg,AMSA18.jpg,AMNE16.jpg,AMNE16.jpg,MN,1,num_4,32,num_2,0.933476618491,,,2017_May_31_1633,59.9892443145,FEMA4ImagesEEG,001,100515,
AFNE01.JPG,AFNE01.JPG,AFNE01.JPG,AFNE01.JPG,AFNE01.JPG,AFNE01.JPG,,,,,1,2,12,7,,,,,,,,,,,,,,,,,,,AMSA03.jpg,AMNE02.jpg,AMNE07.jpg,AMSA17.jpg,AMNE02.jpg,MN,1,num_6,16,num_6,0.733479569433,,,2017_May_31_1633,59.9892443145,FEMA4ImagesEEG,001,100515,
AFNE01.JPG,AFNE01.JPG,AFNE01.JPG,AFNE01.JPG,AFNE01.JPG,AFNE01.JPG,,,,,1,3,13,0,,,,,,,,,,,,,,,,,,,AMNE15.jpg,AMSA07.jpg,AMSA18.jpg,AMNE08.jpg,AMNE15.jpg,MN,1,num_8,32,num_4,0.616820691386,,,2017_May_31_1633,59.9892443145,FEMA4ImagesEEG,001,100515,
AFNE01.JPG,AFNE01.JPG,AFNE01.JPG,AFNE01.JPG,AFNE01.JPG,AFNE01.JPG,,,,,1,4,14,6,,,,,,,,,,,,,,,,,,,AMSA08.jpg,AMNE08.jpg,AMNE04.jpg,AMSA05.jpg,AMNE04.jpg,MN,1,num_2,32,num_8,0.366839213995,,,2017_May_31_1633,59.9892443145,FEMA4ImagesEEG,001,100515,
AFNE01.JPG,AFNE01.JPG,AFNE01.JPG,AFNE01.JPG,AFNE01.JPG,AFNE01.JPG,,,,,1,5,15,3,,,,,,,,,,,,,,,,,,,AMSA20.jpg,AMNE04.jpg,AMSA12.jpg,AMNE10.jpg,AMSA12.jpg,MS,2,num_2,32,num_8,1.45004780637,,,2017_May_31_1633,59.9892443145,FEMA4ImagesEEG,001,100515,
AFNE01.JPG,AFNE01.JPG,AFNE01.JPG,AFNE01.JPG,AFNE01.JPG,AFNE01.JPG,,,,,1,6,16,9,,,,,,,,,,,,,,,,,,,AMNE07.jpg,AMSA19.jpg,AMNE02.jpg,AMSA10.jpg,AMSA10.jpg,MS,2,num_4,16,num_4,1.18352384749,,,2017_May_31_1633,59.9892443145,FEMA4ImagesEEG,001,100515,
AFNE01.JPG,AFNE01.JPG,AFNE01.JPG,AFNE01.JPG,AFNE01.JPG,AFNE01.JPG,,,,,1,7,17,1,,,,,,,,,,,,,,,,,,,AMNE18.jpg,AMSA20.jpg,AMNE04.jpg,AMSA14.jpg,AMSA14.jpg,MS,2,num_4,16,num_4,0.783520126948,,,2017_May_31_1633,59.9892443145,FEMA4ImagesEEG,001,100515,
AFNE01.JPG,AFNE01.JPG,AFNE01.JPG,AFNE01.JPG,AFNE01.JPG,AFNE01.JPG,,,,,1,8,18,2,,,,,,,,,,,,,,,,,,,AMSA11.jpg,AMNE02.jpg,AMSA16.jpg,AMNE20.jpg,AMNE02.jpg,MN,1,num_6,16,num_6,0.38352987729,,,2017_May_31_1633,59.9892443145,FEMA4ImagesEEG,001,100515,
AFNE01.JPG,AFNE01.JPG,AFNE01.JPG,AFNE01.JPG,AFNE01.JPG,AFNE01.JPG,,,,,1,9,19,5,,,,,,,,,,,,,,,,,,,AMNE05.jpg,AMSA14.jpg,AMNE10.jpg,AMSA09.jpg,AMSA09.jpg,MS,2,num_4,32,num_6,0.816655766685,,,2017_May_31_1633,59.9892443145,FEMA4ImagesEEG,001,100515,
AFNE01.JPG,AFNE01.JPG,AFNE01.JPG,AFNE01.JPG,AFNE01.JPG,AFNE01.JPG,,,,,2,0,20,4,,,,,,,,,,,,,,,,,,,AMNE15.jpg,AMSA10.jpg,AMNE18.jpg,AMSA01.jpg,AMNE15.jpg,MN,1,num_8,32,num_4,0.566823112778,,,2017_May_31_1633,59.9892443145,FEMA4ImagesEEG,001,100515,
AFNE01.JPG,AFNE01.JPG,AFNE01.JPG,AFNE01.JPG,AFNE01.JPG,AFNE01.JPG,,,,,2,1,21,5,,,,,,,,,,,,,,,,,,,AMSA18.jpg,AMSA17.jpg,AMNE19.jpg,AMNE05.jpg,AMNE05.jpg,MN,1,num_4,32,num_8,0.700155654922,,,2017_May_31_1633,59.9892443145,FEMA4ImagesEEG,001,100515,
AFNE01.JPG,AFNE01.JPG,AFNE01.JPG,AFNE01.JPG,AFNE01.JPG,AFNE01.JPG,,,,,2,2,22,1,,,,,,,,,,,,,,,,,,,AMSA06.jpg,AMNE02.jpg,AMNE20.jpg,AMSA17.jpg,AMNE20.jpg,MN,1,num_2,32,num_6,1.0834189977,,,2017_May_31_1633,59.9892443145,FEMA4ImagesEEG,001,100515,
AFNE01.JPG,AFNE01.JPG,AFNE01.JPG,AFNE01.JPG,AFNE01.JPG,AFNE01.JPG,,,,,2,3,23,6,,,,,,,,,,,,,,,,,,,AMSA17.jpg,AMSA16.jpg,AMNE16.jpg,AMNE07.jpg,AMSA16.jpg,MS,2,num_6,32,num_8,1.01671985071,,,2017_May_31_1633,59.9892443145,FEMA4ImagesEEG,001,100515,
AFNE01.JPG,AFNE01.JPG,AFNE01.JPG,AFNE01.JPG,AFNE01.JPG,AFNE01.JPG,,,,,2,4,24,2,,,,,,,,,,,,,,,,,,,AMNE14.jpg,AMSA04.jpg,AMSA06.jpg,AMNE08.jpg,AMSA06.jpg,MS,2,num_2,32,num_6,1.90002440824,,,2017_May_31_1633,59.9892443145,FEMA4ImagesEEG,001,100515,
AFNE01.JPG,AFNE01.JPG,AFNE01.JPG,AFNE01.JPG,AFNE01.JPG,AFNE01.JPG,,,,,2,5,25,3,,,,,,,,,,,,,,,,,,,AMSA20.jpg,AMNE20.jpg,AMSA13.jpg,AMNE16.jpg,AMSA20.jpg,MS,2,num_8,16,num_8,1.2167082401,,,2017_May_31_1633,59.9892443145,FEMA4ImagesEEG,001,100515,
AFNE01.JPG,AFNE01.JPG,AFNE01.JPG,AFNE01.JPG,AFNE01.JPG,AFNE01.JPG,,,,,2,6,26,0,,,,,,,,,,,,,,,,,,,AMNE07.jpg,AMNE13.jpg,AMSA09.jpg,AMSA13.jpg,AMNE13.jpg,MN,1,num_6,16,num_6,0.666684521129,,,2017_May_31_1633,59.9892443145,FEMA4ImagesEEG,001,100515,
AFNE01.JPG,AFNE01.JPG,AFNE01.JPG,AFNE01.JPG,AFNE01.JPG,AFNE01.JPG,,,,,2,7,27,8,,,,,,,,,,,,,,,,,,,AMNE12.jpg,AMSA13.jpg,AMSA20.jpg,AMNE19.jpg,AMSA20.jpg,MS,2,num_2,32,num_4,0.650132417446,,,2017_May_31_1633,59.9892443145,FEMA4ImagesEEG,001,100515,
AFNE01.JPG,AFNE01.JPG,AFNE01.JPG,AFNE01.JPG,AFNE01.JPG,AFNE01.JPG,,,,,2,8,28,9,,,,,,,,,,,,,,,,,,,AMSA05.jpg,AMNE08.jpg,AMSA06.jpg,AMNE02.jpg,AMSA06.jpg,MS,2,num_2,32,num_6,0.616475575138,,,2017_May_31_1633,59.9892443145,FEMA4ImagesEEG,001,100515,
AFNE01.JPG,AFNE01.JPG,AFNE01.JPG,AFNE01.JPG,AFNE01.JPG,AFNE01.JPG,,,,,2,9,29,7,,,,,,,,,,,,,,,,,,,AMNE15.jpg,AMSA16.jpg,AMNE12.jpg,AMSA17.jpg,AMSA17.jpg,MS,2,num_4,16,num_4,0.416816265089,,,2017_May_31_1633,59.9892443145,FEMA4ImagesEEG,001,100515,
AFNE01.JPG,AFNE01.JPG,AFNE01.JPG,AFNE01.JPG,AFNE01.JPG,AFNE01.JPG,,,,,3,0,30,1,,,,,,,,,,,,,,,,,,,AMSA20.jpg,AMNE19.jpg,AMNE17.jpg,AMSA16.jpg,AMSA20.jpg,MS,2,num_8,32,num_2,0.450114520034,,,2017_May_31_1633,59.9892443145,FEMA4ImagesEEG,001,100515,
AFNE01.JPG,AFNE01.JPG,AFNE01.JPG,AFNE01.JPG,AFNE01.JPG,AFNE01.JPG,,,,,3,1,31,3,,,,,,,,,,,,,,,,,,,AMSA12.jpg,AMSA09.jpg,AMNE16.jpg,AMNE12.jpg,AMSA12.jpg,MS,2,num_8,16,num_8,0.616577570327,,,2017_May_31_1633,59.9892443145,FEMA4ImagesEEG,001,100515,
AFNE01.JPG,AFNE01.JPG,AFNE01.JPG,AFNE01.JPG,AFNE01.JPG,AFNE01.JPG,,,,,3,2,32,5,,,,,,,,,,,,,,,,,,,AMSA03.jpg,AMNE10.jpg,AMSA01.jpg,AMNE04.jpg,AMSA01.jpg,MS,2,num_2,16,num_2,0.40019744751,,,2017_May_31_1633,59.9892443145,FEMA4ImagesEEG,001,100515,
AFNE01.JPG,AFNE01.JPG,AFNE01.JPG,AFNE01.JPG,AFNE01.JPG,AFNE01.JPG,,,,,3,3,33,2,,,,,,,,,,,,,,,,,,,AMSA08.jpg,AMNE19.jpg,AMSA20.jpg,AMNE05.jpg,AMNE05.jpg,MN,1,num_4,16,num_4,0.533576496877,,,2017_May_31_1633,59.9892443145,FEMA4ImagesEEG,001,100515,
AFNE01.JPG,AFNE01.JPG,AFNE01.JPG,AFNE01.JPG,AFNE01.JPG,AFNE01.JPG,,,,,3,4,34,4,,,,,,,,,,,,,,,,,,,AMNE03.jpg,AMSA09.jpg,AMSA13.jpg,AMNE05.jpg,AMNE03.jpg,MN,1,num_8,32,num_6,0.383488502121,,,2017_May_31_1633,59.9892443145,FEMA4ImagesEEG,001,100515,
AFNE01.JPG,AFNE01.JPG,AFNE01.JPG,AFNE01.JPG,AFNE01.JPG,AFNE01.JPG,,,,,3,5,35,6,,,,,,,,,,,,,,,,,,,AMNE11.jpg,AMSA18.jpg,AMSA03.jpg,AMNE01.jpg,AMSA03.jpg,MS,2,num_2,32,num_4,0.933463788824,,,2017_May_31_1633,59.9892443145,FEMA4ImagesEEG,001,100515,
AFNE01.JPG,AFNE01.JPG,AFNE01.JPG,AFNE01.JPG,AFNE01.JPG,AFNE01.JPG,,,,,3,6,36,0,,,,,,,,,,,,,,,,,,,AMSA08.jpg,AMNE13.jpg,AMSA18.jpg,AMNE19.jpg,AMNE19.jpg,MN,1,num_4,32,num_6,1.2500658317,,,2017_May_31_1633,59.9892443145,FEMA4ImagesEEG,001,100515,
AFNE01.JPG,AFNE01.JPG,AFNE01.JPG,AFNE01.JPG,AFNE01.JPG,AFNE01.JPG,,,,,3,7,37,8,,,,,,,,,,,,,,,,,,,AMSA10.jpg,AMNE02.jpg,AMNE09.jpg,AMSA07.jpg,AMNE09.jpg,MN,1,num_2,32,num_4,0.716825790936,,,2017_May_31_1633,59.9892443145,FEMA4ImagesEEG,001,100515,
AFNE01.JPG,AFNE01.JPG,AFNE01.JPG,AFNE01.JPG,AFNE01.JPG,AFNE01.JPG,,,,,3,8,38,9,,,,,,,,,,,,,,,,,,,AMNE12.jpg,AMSA02.jpg,AMNE04.jpg,AMSA05.jpg,AMSA05.jpg,MS,2,num_4,32,num_8,0.966766213765,,,2017_May_31_1633,59.9892443145,FEMA4ImagesEEG,001,100515,
AFNE01.JPG,AFNE01.JPG,AFNE01.JPG,AFNE01.JPG,AFNE01.JPG,AFNE01.JPG,,,,,3,9,39,7,,,,,,,,,,,,,,,,,,,AMNE13.jpg,AMNE01.jpg,AMSA07.jpg,AMSA14.jpg,AMNE13.jpg,MN,1,num_8,16,num_8,0.883436381584,,,2017_May_31_1633,59.9892443145,FEMA4ImagesEEG,001,100515,
AFNE01.JPG,AFNE01.JPG,AFNE01.JPG,AFNE01.JPG,AFNE01.JPG,AFNE01.JPG,,,,,4,0,40,2,,,,,,,,,,,,,,,,,,,AMNE14.jpg,AMNE13.jpg,AMSA03.jpg,AMSA14.jpg,AMNE14.jpg,MN,1,num_8,32,num_4,0.950172413606,,,2017_May_31_1633,59.9892443145,FEMA4ImagesEEG,001,100515,
AFNE01.JPG,AFNE01.JPG,AFNE01.JPG,AFNE01.JPG,AFNE01.JPG,AFNE01.JPG,,,,,4,1,41,3,,,,,,,,,,,,,,,,,,,AMSA05.jpg,AMNE06.jpg,AMSA06.jpg,AMNE05.jpg,AMSA05.jpg,MS,2,num_8,16,num_8,0.916806482477,,,2017_May_31_1633,59.9892443145,FEMA4ImagesEEG,001,100515,
AFNE01.JPG,AFNE01.JPG,AFNE01.JPG,AFNE01.JPG,AFNE01.JPG,AFNE01.JPG,,,,,4,2,42,1,,,,,,,,,,,,,,,,,,,AMNE13.jpg,AMSA16.jpg,AMSA05.jpg,AMNE06.jpg,AMSA16.jpg,MS,2,num_6,16,num_6,0.699979247991,,,2017_May_31_1633,59.9892443145,FEMA4ImagesEEG,001,100515,
AFNE01.JPG,AFNE01.JPG,AFNE01.JPG,AFNE01.JPG,AFNE01.JPG,AFNE01.JPG,,,,,4,3,43,0,,,,,,,,,,,,,,,,,,,AMSA11.jpg,AMSA05.jpg,AMNE02.jpg,AMNE16.jpg,AMNE16.jpg,MN,1,num_4,32,num_8,0.500109532848,,,2017_May_31_1633,59.9892443145,FEMA4ImagesEEG,001,100515,
AFNE01.JPG,AFNE01.JPG,AFNE01.JPG,AFNE01.JPG,AFNE01.JPG,AFNE01.JPG,,,,,4,4,44,7,,,,,,,,,,,,,,,,,,,AMSA19.jpg,AMNE02.jpg,AMSA11.jpg,AMNE15.jpg,AMSA19.jpg,MS,2,num_8,32,num_6,1.10008015297,,,2017_May_31_1633,59.9892443145,FEMA4ImagesEEG,001,100515,
AFNE01.JPG,AFNE01.JPG,AFNE01.JPG,AFNE01.JPG,AFNE01.JPG,AFNE01.JPG,,,,,4,5,45,9,,,,,,,,,,,,,,,,,,,AMSA12.jpg,AMSA08.jpg,AMNE08.jpg,AMNE02.jpg,AMNE02.jpg,MN,1,num_4,16,num_4,1.2667767019,,,2017_May_31_1633,59.9892443145,FEMA4ImagesEEG,001,100515,
AFNE01.JPG,AFNE01.JPG,AFNE01.JPG,AFNE01.JPG,AFNE01.JPG,AFNE01.JPG,,,,,4,6,46,5,,,,,,,,,,,,,,,,,,,AMNE16.jpg,AMSA03.jpg,AMSA06.jpg,AMNE20.jpg,AMNE20.jpg,MN,1,num_4,32,num_6,1.05012010108,,,2017_May_31_1633,59.9892443145,FEMA4ImagesEEG,001,100515,
AFNE01.JPG,AFNE01.JPG,AFNE01.JPG,AFNE01.JPG,AFNE01.JPG,AFNE01.JPG,,,,,4,7,47,8,,,,,,,,,,,,,,,,,,,AMSA17.jpg,AMNE14.jpg,AMSA05.jpg,AMNE18.jpg,AMSA05.jpg,MS,2,num_2,32,num_6,1.03338517551,,,2017_May_31_1633,59.9892443145,FEMA4ImagesEEG,001,100515,
AFNE01.JPG,AFNE01.JPG,AFNE01.JPG,AFNE01.JPG,AFNE01.JPG,AFNE01.JPG,,,,,4,8,48,4,,,,,,,,,,,,,,,,,,,AMNE06.jpg,AMSA03.jpg,AMSA15.jpg,AMNE16.jpg,AMSA03.jpg,MS,2,num_6,32,num_2,0.833408653736,,,2017_May_31_1633,59.9892443145,FEMA4ImagesEEG,001,100515,
AFNE01.JPG,AFNE01.JPG,AFNE01.JPG,AFNE01.JPG,AFNE01.JPG,AFNE01.JPG,,,,,4,9,49,6,,,,,,,,,,,,,,,,,,,AMNE16.jpg,AMNE06.jpg,AMSA16.jpg,AMSA05.jpg,AMSA05.jpg,MS,2,num_4,16,num_4,0.666707614437,,,2017_May_31_1633,59.9892443145,FEMA4ImagesEEG,001,100515,
AFNE01.JPG,AFNE01.JPG,AFNE01.JPG,AFNE01.JPG,AFNE01.JPG,AFNE01.JPG,,,,,5,0,50,9,,,,,,,,,,,,,,,,,,,AMSA06.jpg,AMSA15.jpg,AMNE19.jpg,AMNE09.jpg,AMNE09.jpg,MN,1,num_4,32,num_6,0.933460581582,,,2017_May_31_1633,59.9892443145,FEMA4ImagesEEG,001,100515,
AFNE01.JPG,AFNE01.JPG,AFNE01.JPG,AFNE01.JPG,AFNE01.JPG,AFNE01.JPG,,,,,5,1,51,2,,,,,,,,,,,,,,,,,,,AMNE05.jpg,AMSA15.jpg,AMNE16.jpg,AMSA07.jpg,AMSA15.jpg,MS,2,num_6,16,num_6,0.716469769832,,,2017_May_31_1633,59.9892443145,FEMA4ImagesEEG,001,100515,
AFNE01.JPG,AFNE01.JPG,AFNE01.JPG,AFNE01.JPG,AFNE01.JPG,AFNE01.JPG,,,,,5,2,52,6,,,,,,,,,,,,,,,,,,,AMSA14.jpg,AMNE02.jpg,AMNE03.jpg,AMSA03.jpg,AMNE03.jpg,MN,1,num_2,16,num_2,1.28343304596,,,2017_May_31_1633,59.9892443145,FEMA4ImagesEEG,001,100515,
AFNE01.JPG,AFNE01.JPG,AFNE01.JPG,AFNE01.JPG,AFNE01.JPG,AFNE01.JPG,,,,,5,3,53,3,,,,,,,,,,,,,,,,,,,AMNE18.jpg,AMSA14.jpg,AMSA10.jpg,AMNE16.jpg,AMNE16.jpg,MN,1,num_4,16,num_4,1.01673941594,,,2017_May_31_1633,59.9892443145,FEMA4ImagesEEG,001,100515,
AFNE01.JPG,AFNE01.JPG,AFNE01.JPG,AFNE01.JPG,AFNE01.JPG,AFNE01.JPG,,,,,5,4,54,5,,,,,,,,,,,,,,,,,,,AMSA03.jpg,AMSA05.jpg,AMNE06.jpg,AMNE09.jpg,AMNE09.jpg,MN,1,num_4,32,num_2,0.866745718289,,,2017_May_31_1633,59.9892443145,FEMA4ImagesEEG,001,100515,
AFNE01.JPG,AFNE01.JPG,AFNE01.JPG,AFNE01.JPG,AFNE01.JPG,AFNE01.JPG,,,,,5,5,55,8,,,,,,,,,,,,,,,,,,,AMSA14.jpg,AMNE05.jpg,AMNE11.jpg,AMSA12.jpg,AMSA14.jpg,MS,2,num_8,16,num_8,0.933457694715,,,2017_May_31_1633,59.9892443145,FEMA4ImagesEEG,001,100515,
AFNE01.JPG,AFNE01.JPG,AFNE01.JPG,AFNE01.JPG,AFNE01.JPG,AFNE01.JPG,,,,,5,6,56,4,,,,,,,,,,,,,,,,,,,AMSA12.jpg,AMSA16.jpg,AMNE17.jpg,AMNE11.jpg,AMSA12.jpg,MS,2,num_8,32,num_6,1.85004543304,,,2017_May_31_1633,59.9892443145,FEMA4ImagesEEG,001,100515,
AFNE01.JPG,AFNE01.JPG,AFNE01.JPG,AFNE01.JPG,AFNE01.JPG,AFNE01.JPG,,,,,5,7,57,0,,,,,,,,,,,,,,,,,,,AMNE16.jpg,AMSA05.jpg,AMNE14.jpg,AMSA15.jpg,AMSA15.jpg,MS,2,num_4,32,num_6,0.883447607746,,,2017_May_31_1633,59.9892443145,FEMA4ImagesEEG,001,100515,
AFNE01.JPG,AFNE01.JPG,AFNE01.JPG,AFNE01.JPG,AFNE01.JPG,AFNE01.JPG,,,,,5,8,58,1,,,,,,,,,,,,,,,,,,,AMSA14.jpg,AMSA04.jpg,AMNE14.jpg,AMNE10.jpg,AMSA04.jpg,MS,2,num_6,32,num_4,1.2499247063,,,2017_May_31_1633,59.9892443145,FEMA4ImagesEEG,001,100515,
AFNE01.JPG,AFNE01.JPG,AFNE01.JPG,AFNE01.JPG,AFNE01.JPG,AFNE01.JPG,,,,,5,9,59,7,,,,,,,,,,,,,,,,,,,AMSA20.jpg,AMSA17.jpg,AMNE09.jpg,AMNE18.jpg,AMSA17.jpg,MS,2,num_6,32,num_8,0.816754875472,,,2017_May_31_1633,59.9892443145,FEMA4ImagesEEG,001,100515,
,,,,,,,,,,,,,,,,,,,,,,,,,,,,,,,,,,,,,,,,,,,space,2.13329533651,2017_May_31_1633,59.9892443145,FEMA4ImagesEEG,001,100515,
AFNE01.JPG,AFNE01.JPG,AFNE01.JPG,AFNE01.JPG,AFNE01.JPG,AFNE01.JPG,,,,,,,,,0,0,0,1,,,,,,,,,,,,,,,AFSA12.jpg,AFSA16.jpg,AFNE05.jpg,AFNE18.jpg,AFNE18.jpg,FN,3,num_4,32,num_8,0.850118561415,,,2017_May_31_1633,59.9892443145,FEMA4ImagesEEG,001,100515,
AFNE01.JPG,AFNE01.JPG,AFNE01.JPG,AFNE01.JPG,AFNE01.JPG,AFNE01.JPG,,,,,,,,,0,1,1,0,,,,,,,,,,,,,,,AFNE13.jpg,AFSA01.jpg,AFSA12.jpg,AFNE08.jpg,AFNE08.jpg,FN,3,num_4,32,num_6,0.150287816068,,,2017_May_31_1633,59.9892443145,FEMA4ImagesEEG,001,100515,
AFNE01.JPG,AFNE01.JPG,AFNE01.JPG,AFNE01.JPG,AFNE01.JPG,AFNE01.JPG,,,,,,,,,0,2,2,5,,,,,,,,,,,,,,,AFNE16.jpg,AFSA04.jpg,AFNE09.jpg,AFSA06.jpg,AFNE09.jpg,FN,3,num_2,16,num_2,0.600168837467,,,2017_May_31_1633,59.9892443145,FEMA4ImagesEEG,001,100515,
AFNE01.JPG,AFNE01.JPG,AFNE01.JPG,AFNE01.JPG,AFNE01.JPG,AFNE01.JPG,,,,,,,,,0,3,3,9,,,,,,,,,,,,,,,AFNE08.jpg,AFSA07.jpg,AFSA08.jpg,AFNE03.jpg,AFSA08.jpg,FS,4,num_2,16,num_2,1.0500925174,,,2017_May_31_1633,59.9892443145,FEMA4ImagesEEG,001,100515,
AFNE01.JPG,AFNE01.JPG,AFNE01.JPG,AFNE01.JPG,AFNE01.JPG,AFNE01.JPG,,,,,,,,,0,4,4,8,,,,,,,,,,,,,,,AFSA12.jpg,AFNE13.jpg,AFSA14.jpg,AFNE01.jpg,AFNE01.jpg,FN,3,num_4,16,num_4,1.24994298839,,,2017_May_31_1633,59.9892443145,FEMA4ImagesEEG,001,100515,
AFNE01.JPG,AFNE01.JPG,AFNE01.JPG,AFNE01.JPG,AFNE01.JPG,AFNE01.JPG,,,,,,,,,0,5,5,3,,,,,,,,,,,,,,,AFNE05.jpg,AFSA06.jpg,AFNE01.jpg,AFSA20.jpg,AFNE01.jpg,FN,3,num_2,32,num_6,0.283500401303,,,2017_May_31_1633,59.9892443145,FEMA4ImagesEEG,001,100515,
AFNE01.JPG,AFNE01.JPG,AFNE01.JPG,AFNE01.JPG,AFNE01.JPG,AFNE01.JPG,,,,,,,,,0,6,6,6,,,,,,,,,,,,,,,AFSA08.jpg,AFSA02.jpg,AFNE03.jpg,AFNE15.jpg,AFNE15.jpg,FN,3,num_4,32,num_8,0.350174530642,,,2017_May_31_1633,59.9892443145,FEMA4ImagesEEG,001,100515,
AFNE01.JPG,AFNE01.JPG,AFNE01.JPG,AFNE01.JPG,AFNE01.JPG,AFNE01.JPG,,,,,,,,,0,7,7,2,,,,,,,,,,,,,,,AFSA06.jpg,AFNE18.jpg,AFNE13.jpg,AFSA08.jpg,AFNE13.jpg,FN,3,num_2,32,num_6,0.733581564622,,,2017_May_31_1633,59.9892443145,FEMA4ImagesEEG,001,100515,
AFNE01.JPG,AFNE01.JPG,AFNE01.JPG,AFNE01.JPG,AFNE01.JPG,AFNE01.JPG,,,,,,,,,0,8,8,4,,,,,,,,,,,,,,,AFNE05.jpg,AFNE13.jpg,AFSA13.jpg,AFSA03.jpg,AFNE05.jpg,FN,3,num_8,32,num_6,0.816810363438,,,2017_May_31_1633,59.9892443145,FEMA4ImagesEEG,001,100515,
AFNE01.JPG,AFNE01.JPG,AFNE01.JPG,AFNE01.JPG,AFNE01.JPG,AFNE01.JPG,,,,,,,,,0,9,9,7,,,,,,,,,,,,,,,AFSA15.jpg,AFSA13.jpg,AFNE08.jpg,AFNE10.jpg,AFSA15.jpg,FS,4,num_8,16,num_8,1.88338923291,,,2017_May_31_1633,59.9892443145,FEMA4ImagesEEG,001,100515,
AFNE01.JPG,AFNE01.JPG,AFNE01.JPG,AFNE01.JPG,AFNE01.JPG,AFNE01.JPG,,,,,,,,,1,0,10,2,,,,,,,,,,,,,,,AFNE03.jpg,AFSA17.jpg,AFSA09.jpg,AFNE01.jpg,AFSA17.jpg,FS,4,num_6,32,num_4,0.400174995884,,,2017_May_31_1633,59.9892443145,FEMA4ImagesEEG,001,100515,
AFNE01.JPG,AFNE01.JPG,AFNE01.JPG,AFNE01.JPG,AFNE01.JPG,AFNE01.JPG,,,,,,,,,1,1,11,0,,,,,,,,,,,,,,,AFSA20.jpg,AFNE18.jpg,AFNE19.jpg,AFSA01.jpg,AFSA20.jpg,FS,4,num_8,32,num_6,0.716842790367,,,2017_May_31_1633,59.9892443145,FEMA4ImagesEEG,001,100515,
AFNE01.JPG,AFNE01.JPG,AFNE01.JPG,AFNE01.JPG,AFNE01.JPG,AFNE01.JPG,,,,,,,,,1,2,12,5,,,,,,,,,,,,,,,AFSA05.jpg,AFSA14.jpg,AFNE16.jpg,AFNE15.jpg,AFNE15.jpg,FN,3,num_4,16,num_4,0.716946068453,,,2017_May_31_1633,59.9892443145,FEMA4ImagesEEG,001,100515,
AFNE01.JPG,AFNE01.JPG,AFNE01.JPG,AFNE01.JPG,AFNE01.JPG,AFNE01.JPG,,,,,,,,,1,3,13,6,,,,,,,,,,,,,,,AFSA06.jpg,AFNE07.jpg,AFNE16.jpg,AFSA03.jpg,AFNE16.jpg,FN,3,num_2,32,num_6,0.816779572284,,,2017_May_31_1633,59.9892443145,FEMA4ImagesEEG,001,100515,
AFNE01.JPG,AFNE01.JPG,AFNE01.JPG,AFNE01.JPG,AFNE01.JPG,AFNE01.JPG,,,,,,,,,1,4,14,4,,,,,,,,,,,,,,,AFNE11.jpg,AFSA01.jpg,AFSA05.jpg,AFNE13.jpg,AFSA05.jpg,FS,4,num_2,32,num_4,0.516762027983,,,2017_May_31_1633,59.9892443145,FEMA4ImagesEEG,001,100515,
AFNE01.JPG,AFNE01.JPG,AFNE01.JPG,AFNE01.JPG,AFNE01.JPG,AFNE01.JPG,,,,,,,,,1,5,15,3,,,,,,,,,,,,,,,AFNE14.jpg,AFNE08.jpg,AFSA19.jpg,AFSA11.jpg,AFSA19.jpg,FS,4,num_2,16,num_2,0.850151597755,,,2017_May_31_1633,59.9892443145,FEMA4ImagesEEG,001,100515,
AFNE01.JPG,AFNE01.JPG,AFNE01.JPG,AFNE01.JPG,AFNE01.JPG,AFNE01.JPG,,,,,,,,,1,6,16,1,,,,,,,,,,,,,,,AFNE17.jpg,AFNE14.jpg,AFSA20.jpg,AFSA01.jpg,AFNE17.jpg,FN,3,num_8,32,num_6,0.933489127317,,,2017_May_31_1633,59.9892443145,FEMA4ImagesEEG,001,100515,
AFNE01.JPG,AFNE01.JPG,AFNE01.JPG,AFNE01.JPG,AFNE01.JPG,AFNE01.JPG,,,,,,,,,1,7,17,7,,,,,,,,,,,,,,,AFSA16.jpg,AFNE18.jpg,AFSA13.jpg,AFNE09.jpg,AFNE09.jpg,FN,3,num_4,16,num_4,0.383489464177,,,2017_May_31_1633,59.9892443145,FEMA4ImagesEEG,001,100515,
AFNE01.JPG,AFNE01.JPG,AFNE01.JPG,AFNE01.JPG,AFNE01.JPG,AFNE01.JPG,,,,,,,,,1,8,18,8,,,,,,,,,,,,,,,AFSA17.jpg,AFNE13.jpg,AFSA18.jpg,AFNE05.jpg,AFNE05.jpg,FN,3,num_4,32,num_6,1.66664923984,,,2017_May_31_1633,59.9892443145,FEMA4ImagesEEG,001,100515,
AFNE01.JPG,AFNE01.JPG,AFNE01.JPG,AFNE01.JPG,AFNE01.JPG,AFNE01.JPG,,,,,,,,,1,9,19,9,,,,,,,,,,,,,,,AFSA11.jpg,AFNE20.jpg,AFNE18.jpg,AFSA04.jpg,AFNE20.jpg,FN,3,num_6,16,num_6,0.700112996623,,,2017_May_31_1633,59.9892443145,FEMA4ImagesEEG,001,100515,
AFNE01.JPG,AFNE01.JPG,AFNE01.JPG,AFNE01.JPG,AFNE01.JPG,AFNE01.JPG,,,,,,,,,2,0,20,6,,,,,,,,,,,,,,,AFSA02.jpg,AFNE04.jpg,AFSA19.jpg,AFNE17.jpg,AFSA02.jpg,FS,4,num_8,32,num_4,0.6836090039,,,2017_May_31_1633,59.9892443145,FEMA4ImagesEEG,001,100515,
AFNE01.JPG,AFNE01.JPG,AFNE01.JPG,AFNE01.JPG,AFNE01.JPG,AFNE01.JPG,,,,,,,,,2,1,21,9,,,,,,,,,,,,,,,AFSA01.jpg,AFNE10.jpg,AFSA08.jpg,AFNE03.jpg,AFNE10.jpg,FN,3,num_6,32,num_2,0.533488293411,,,2017_May_31_1633,59.9892443145,FEMA4ImagesEEG,001,100515,
AFNE01.JPG,AFNE01.JPG,AFNE01.JPG,AFNE01.JPG,AFNE01.JPG,AFNE01.JPG,,,,,,,,,2,2,22,4,,,,,,,,,,,,,,,AFNE07.jpg,AFSA20.jpg,AFNE09.jpg,AFSA05.jpg,AFNE07.jpg,FN,3,num_8,16,num_8,0.833480178844,,,2017_May_31_1633,59.9892443145,FEMA4ImagesEEG,001,100515,
AFNE01.JPG,AFNE01.JPG,AFNE01.JPG,AFNE01.JPG,AFNE01.JPG,AFNE01.JPG,,,,,,,,,2,3,23,1,,,,,,,,,,,,,,,AFNE07.jpg,AFSA13.jpg,AFSA03.jpg,AFNE11.jpg,AFSA13.jpg,FS,4,num_6,16,num_6,0.733520623995,,,2017_May_31_1633,59.9892443145,FEMA4ImagesEEG,001,100515,
AFNE01.JPG,AFNE01.JPG,AFNE01.JPG,AFNE01.JPG,AFNE01.JPG,AFNE01.JPG,,,,,,,,,2,4,24,7,,,,,,,,,,,,,,,AFSA02.jpg,AFNE08.jpg,AFSA14.jpg,AFNE17.jpg,AFNE08.jpg,FN,3,num_6,32,num_4,1.10014911182,,,2017_May_31_1633,59.9892443145,FEMA4ImagesEEG,001,100515,
AFNE01.JPG,AFNE01.JPG,AFNE01.JPG,AFNE01.JPG,AFNE01.JPG,AFNE01.JPG,,,,,,,,,2,5,25,8,,,,,,,,,,,,,,,AFNE19.jpg,AFNE15.jpg,AFSA07.jpg,AFSA10.jpg,AFSA10.jpg,FS,4,num_4,32,num_6,0.483545561787,,,2017_May_31_1633,59.9892443145,FEMA4ImagesEEG,001,100515,
AFNE01.JPG,AFNE01.JPG,AFNE01.JPG,AFNE01.JPG,AFNE01.JPG,AFNE01.JPG,,,,,,,,,2,6,26,2,,,,,,,,,,,,,,,AFSA16.jpg,AFNE13.jpg,AFSA05.jpg,AFNE09.jpg,AFNE09.jpg,FN,3,num_4,32,num_2,0.583515700651,,,2017_May_31_1633,59.9892443145,FEMA4ImagesEEG,001,100515,
AFNE01.JPG,AFNE01.JPG,AFNE01.JPG,AFNE01.JPG,AFNE01.JPG,AFNE01.JPG,,,,,,,,,2,7,27,3,,,,,,,,,,,,,,,AFSA18.jpg,AFNE16.jpg,AFSA15.jpg,AFNE01.jpg,AFSA15.jpg,FS,4,num_2,32,num_8,0.550246633124,,,2017_May_31_1633,59.9892443145,FEMA4ImagesEEG,001,100515,
AFNE01.JPG,AFNE01.JPG,AFNE01.JPG,AFNE01.JPG,AFNE01.JPG,AFNE01.JPG,,,,,,,,,2,8,28,5,,,,,,,,,,,,,,,AFSA02.jpg,AFSA10.jpg,AFNE17.jpg,AFNE05.jpg,AFSA02.jpg,FS,4,num_8,32,num_6,0.916860366706,,,2017_May_31_1633,59.9892443145,FEMA4ImagesEEG,001,100515,
AFNE01.JPG,AFNE01.JPG,AFNE01.JPG,AFNE01.JPG,AFNE01.JPG,AFNE01.JPG,,,,,,,,,2,9,29,0,,,,,,,,,,,,,,,AFNE08.jpg,AFSA06.jpg,AFNE10.jpg,AFSA01.jpg,AFNE10.jpg,FN,3,num_2,32,num_4,0.683361713542,,,2017_May_31_1633,59.9892443145,FEMA4ImagesEEG,001,100515,
AFNE01.JPG,AFNE01.JPG,AFNE01.JPG,AFNE01.JPG,AFNE01.JPG,AFNE01.JPG,,,,,,,,,3,0,30,8,,,,,,,,,,,,,,,AFNE11.jpg,AFNE20.jpg,AFSA10.jpg,AFSA11.jpg,AFNE20.jpg,FN,3,num_6,16,num_6,0.550257538212,,,2017_May_31_1633,59.9892443145,FEMA4ImagesEEG,001,100515,
AFNE01.JPG,AFNE01.JPG,AFNE01.JPG,AFNE01.JPG,AFNE01.JPG,AFNE01.JPG,,,,,,,,,3,1,31,5,,,,,,,,,,,,,,,AFNE16.jpg,AFSA06.jpg,AFSA07.jpg,AFNE18.jpg,AFSA06.jpg,FS,4,num_6,16,num_6,1.03346953029,,,2017_May_31_1633,59.9892443145,FEMA4ImagesEEG,001,100515,
AFNE01.JPG,AFNE01.JPG,AFNE01.JPG,AFNE01.JPG,AFNE01.JPG,AFNE01.JPG,,,,,,,,,3,2,32,4,,,,,,,,,,,,,,,AFSA07.jpg,AFNE04.jpg,AFSA01.jpg,AFNE11.jpg,AFSA07.jpg,FS,4,num_8,32,num_6,0.966750818072,,,2017_May_31_1633,59.9892443145,FEMA4ImagesEEG,001,100515,
AFNE01.JPG,AFNE01.JPG,AFNE01.JPG,AFNE01.JPG,AFNE01.JPG,AFNE01.JPG,,,,,,,,,3,3,33,9,,,,,,,,,,,,,,,AFNE12.jpg,AFNE18.jpg,AFSA15.jpg,AFSA17.jpg,AFSA15.jpg,FS,4,num_2,32,num_6,1.33356308984,,,2017_May_31_1633,59.9892443145,FEMA4ImagesEEG,001,100515,
AFNE01.JPG,AFNE01.JPG,AFNE01.JPG,AFNE01.JPG,AFNE01.JPG,AFNE01.JPG,,,,,,,,,3,4,34,6,,,,,,,,,,,,,,,AFSA15.jpg,AFSA19.jpg,AFNE01.jpg,AFNE07.jpg,AFNE01.jpg,FN,3,num_2,32,num_4,0.850170521531,,,2017_May_31_1633,59.9892443145,FEMA4ImagesEEG,001,100515,
AFNE01.JPG,AFNE01.JPG,AFNE01.JPG,AFNE01.JPG,AFNE01.JPG,AFNE01.JPG,,,,,,,,,3,5,35,7,,,,,,,,,,,,,,,AFSA17.jpg,AFSA20.jpg,AFNE10.jpg,AFNE19.jpg,AFSA17.jpg,FS,4,num_8,32,num_6,0.533470011316,,,2017_May_31_1633,59.9892443145,FEMA4ImagesEEG,001,100515,
AFNE01.JPG,AFNE01.JPG,AFNE01.JPG,AFNE01.JPG,AFNE01.JPG,AFNE01.JPG,,,,,,,,,3,6,36,3,,,,,,,,,,,,,,,AFNE09.jpg,AFSA12.jpg,AFNE07.jpg,AFSA02.jpg,AFSA12.jpg,FS,4,num_6,32,num_2,1.00016133208,,,2017_May_31_1633,59.9892443145,FEMA4ImagesEEG,001,100515,
AFNE01.JPG,AFNE01.JPG,AFNE01.JPG,AFNE01.JPG,AFNE01.JPG,AFNE01.JPG,,,,,,,,,3,7,37,0,,,,,,,,,,,,,,,AFNE01.jpg,AFSA07.jpg,AFNE09.jpg,AFSA05.jpg,AFNE09.jpg,FN,3,num_2,32,num_4,0.566814773483,,,2017_May_31_1633,59.9892443145,FEMA4ImagesEEG,001,100515,
AFNE01.JPG,AFNE01.JPG,AFNE01.JPG,AFNE01.JPG,AFNE01.JPG,AFNE01.JPG,,,,,,,,,3,8,38,2,,,,,,,,,,,,,,,AFSA08.jpg,AFNE08.jpg,AFSA07.jpg,AFNE20.jpg,AFNE08.jpg,FN,3,num_6,16,num_6,0.449988148641,,,2017_May_31_1633,59.9892443145,FEMA4ImagesEEG,001,100515,
AFNE01.JPG,AFNE01.JPG,AFNE01.JPG,AFNE01.JPG,AFNE01.JPG,AFNE01.JPG,,,,,,,,,3,9,39,1,,,,,,,,,,,,,,,AFSA03.jpg,AFNE11.jpg,AFNE03.jpg,AFSA14.jpg,AFSA14.jpg,FS,4,num_4,16,num_4,0.466674321564,,,2017_May_31_1633,59.9892443145,FEMA4ImagesEEG,001,100515,
AFNE01.JPG,AFNE01.JPG,AFNE01.JPG,AFNE01.JPG,AFNE01.JPG,AFNE01.JPG,,,,,,,,,4,0,40,0,,,,,,,,,,,,,,,AFSA05.jpg,AFSA13.jpg,AFNE17.jpg,AFNE15.jpg,AFSA13.jpg,FS,4,num_6,16,num_6,0.716778000817,,,2017_May_31_1633,59.9892443145,FEMA4ImagesEEG,001,100515,
AFNE01.JPG,AFNE01.JPG,AFNE01.JPG,AFNE01.JPG,AFNE01.JPG,AFNE01.JPG,,,,,,,,,4,1,41,2,,,,,,,,,,,,,,,AFSA15.jpg,AFNE01.jpg,AFSA19.jpg,AFNE08.jpg,AFSA19.jpg,FS,4,num_2,32,num_8,0.750127253588,,,2017_May_31_1633,59.9892443145,FEMA4ImagesEEG,001,100515,
AFNE01.JPG,AFNE01.JPG,AFNE01.JPG,AFNE01.JPG,AFNE01.JPG,AFNE01.JPG,,,,,,,,,4,2,42,4,,,,,,,,,,,,,,,AFSA01.jpg,AFNE15.jpg,AFNE17.jpg,AFSA19.jpg,AFNE15.jpg,FN,3,num_6,16,num_6,0.700140901143,,,2017_May_31_1633,59.9892443145,FEMA4ImagesEEG,001,100515,
AFNE01.JPG,AFNE01.JPG,AFNE01.JPG,AFNE01.JPG,AFNE01.JPG,AFNE01.JPG,,,,,,,,,4,3,43,7,,,,,,,,,,,,,,,AFNE13.jpg,AFSA01.jpg,AFNE04.jpg,AFSA02.jpg,AFSA01.jpg,FS,4,num_6,16,num_6,0.766778145218,,,2017_May_31_1633,59.9892443145,FEMA4ImagesEEG,001,100515,
AFNE01.JPG,AFNE01.JPG,AFNE01.JPG,AFNE01.JPG,AFNE01.JPG,AFNE01.JPG,,,,,,,,,4,4,44,6,,,,,,,,,,,,,,,AFSA13.jpg,AFNE07.jpg,AFSA20.jpg,AFNE16.jpg,AFNE16.jpg,FN,3,num_4,16,num_4,0.783482279629,,,2017_May_31_1633,59.9892443145,FEMA4ImagesEEG,001,100515,
AFNE01.JPG,AFNE01.JPG,AFNE01.JPG,AFNE01.JPG,AFNE01.JPG,AFNE01.JPG,,,,,,,,,4,5,45,9,,,,,,,,,,,,,,,AFSA13.jpg,AFNE03.jpg,AFNE05.jpg,AFSA14.jpg,AFSA14.jpg,FS,4,num_4,32,num_6,0.716650346294,,,2017_May_31_1633,59.9892443145,FEMA4ImagesEEG,001,100515,
AFNE01.JPG,AFNE01.JPG,AFNE01.JPG,AFNE01.JPG,AFNE01.JPG,AFNE01.JPG,,,,,,,,,4,6,46,3,,,,,,,,,,,,,,,AFSA10.jpg,AFSA11.jpg,AFNE17.jpg,AFNE13.jpg,AFNE13.jpg,FN,3,num_4,32,num_2,0.616797277471,,,2017_May_31_1633,59.9892443145,FEMA4ImagesEEG,001,100515,
AFNE01.JPG,AFNE01.JPG,AFNE01.JPG,AFNE01.JPG,AFNE01.JPG,AFNE01.JPG,,,,,,,,,4,7,47,1,,,,,,,,,,,,,,,AFSA02.jpg,AFSA06.jpg,AFNE06.jpg,AFNE19.jpg,AFNE19.jpg,FN,3,num_4,32,num_6,0.916794294259,,,2017_May_31_1633,59.9892443145,FEMA4ImagesEEG,001,100515,
AFNE01.JPG,AFNE01.JPG,AFNE01.JPG,AFNE01.JPG,AFNE01.JPG,AFNE01.JPG,,,,,,,,,4,8,48,5,,,,,,,,,,,,,,,AFNE12.jpg,AFNE07.jpg,AFSA01.jpg,AFSA12.jpg,AFNE12.jpg,FN,3,num_8,16,num_8,0.866769773886,,,2017_May_31_1633,59.9892443145,FEMA4ImagesEEG,001,100515,
AFNE01.JPG,AFNE01.JPG,AFNE01.JPG,AFNE01.JPG,AFNE01.JPG,AFNE01.JPG,,,,,,,,,4,9,49,8,,,,,,,,,,,,,,,AFSA02.jpg,AFNE06.jpg,AFNE05.jpg,AFSA04.jpg,AFSA04.jpg,FS,4,num_4,16,num_4,0.633499808144,,,2017_May_31_1633,59.9892443145,FEMA4ImagesEEG,001,100515,
AFNE01.JPG,AFNE01.JPG,AFNE01.JPG,AFNE01.JPG,AFNE01.JPG,AFNE01.JPG,,,,,,,,,5,0,50,0,,,,,,,,,,,,,,,AFNE13.jpg,AFSA14.jpg,AFNE04.jpg,AFSA03.jpg,AFSA03.jpg,FS,4,num_4,32,num_6,0.68355095014,,,2017_May_31_1633,59.9892443145,FEMA4ImagesEEG,001,100515,
AFNE01.JPG,AFNE01.JPG,AFNE01.JPG,AFNE01.JPG,AFNE01.JPG,AFNE01.JPG,,,,,,,,,5,1,51,7,,,,,,,,,,,,,,,AFNE17.jpg,AFSA12.jpg,AFNE14.jpg,AFSA14.jpg,AFNE17.jpg,FN,3,num_8,32,num_4,1.00025562965,,,2017_May_31_1633,59.9892443145,FEMA4ImagesEEG,001,100515,
AFNE01.JPG,AFNE01.JPG,AFNE01.JPG,AFNE01.JPG,AFNE01.JPG,AFNE01.JPG,,,,,,,,,5,2,52,9,,,,,,,,,,,,,,,AFSA14.jpg,AFNE04.jpg,AFNE02.jpg,AFSA07.jpg,AFSA14.jpg,FS,4,num_8,32,num_2,0.75014296989,,,2017_May_31_1633,59.9892443145,FEMA4ImagesEEG,001,100515,
AFNE01.JPG,AFNE01.JPG,AFNE01.JPG,AFNE01.JPG,AFNE01.JPG,AFNE01.JPG,,,,,,,,,5,3,53,3,,,,,,,,,,,,,,,AFSA06.jpg,AFSA13.jpg,AFNE07.jpg,AFNE19.jpg,AFSA06.jpg,FS,4,num_8,16,num_8,0.750094858697,,,2017_May_31_1633,59.9892443145,FEMA4ImagesEEG,001,100515,
AFNE01.JPG,AFNE01.JPG,AFNE01.JPG,AFNE01.JPG,AFNE01.JPG,AFNE01.JPG,,,,,,,,,5,4,54,6,,,,,,,,,,,,,,,AFSA01.jpg,AFNE06.jpg,AFNE11.jpg,AFSA03.jpg,AFSA01.jpg,FS,4,num_8,32,num_6,0.583477532491,,,2017_May_31_1633,59.9892443145,FEMA4ImagesEEG,001,100515,
AFNE01.JPG,AFNE01.JPG,AFNE01.JPG,AFNE01.JPG,AFNE01.JPG,AFNE01.JPG,,,,,,,,,5,5,55,1,,,,,,,,,,,,,,,AFNE02.jpg,AFSA18.jpg,AFNE11.jpg,AFSA10.jpg,AFSA18.jpg,FS,4,num_6,32,num_4,0.883496039314,,,2017_May_31_1633,59.9892443145,FEMA4ImagesEEG,001,100515,
AFNE01.JPG,AFNE01.JPG,AFNE01.JPG,AFNE01.JPG,AFNE01.JPG,AFNE01.JPG,,,,,,,,,5,6,56,2,,,,,,,,,,,,,,,AFNE14.jpg,AFSA11.jpg,AFNE18.jpg,AFSA14.jpg,AFSA14.jpg,FS,4,num_4,32,num_8,0.800120662432,,,2017_May_31_1633,59.9892443145,FEMA4ImagesEEG,001,100515,
AFNE01.JPG,AFNE01.JPG,AFNE01.JPG,AFNE01.JPG,AFNE01.JPG,AFNE01.JPG,,,,,,,,,5,7,57,4,,,,,,,,,,,,,,,AFSA10.jpg,AFNE09.jpg,AFNE14.jpg,AFSA07.jpg,AFSA10.jpg,FS,4,num_8,16,num_8,1.18344013439,,,2017_May_31_1633,59.9892443145,FEMA4ImagesEEG,001,100515,
AFNE01.JPG,AFNE01.JPG,AFNE01.JPG,AFNE01.JPG,AFNE01.JPG,AFNE01.JPG,,,,,,,,,5,8,58,5,,,,,,,,,,,,,,,AFNE18.jpg,AFSA01.jpg,AFSA07.jpg,AFNE11.jpg,AFNE18.jpg,FN,3,num_8,32,num_2,1.98338278616,,,2017_May_31_1633,59.9892443145,FEMA4ImagesEEG,001,100515,
AFNE01.JPG,AFNE01.JPG,AFNE01.JPG,AFNE01.JPG,AFNE01.JPG,AFNE01.JPG,,,,,,,,,5,9,59,8,,,,,,,,,,,,,,,AFNE03.jpg,AFNE16.jpg,AFSA03.jpg,AFSA09.jpg,AFNE03.jpg,FN,3,num_8,32,num_4,0.416692138882,,,2017_May_31_1633,59.9892443145,FEMA4ImagesEEG,001,100515,
,,,,,,,,,,,,,,,,,,,,,,,,,,,,,,,,,,,,,,,,,,,space,14.6487673486,2017_May_31_1633,59.9892443145,FEMA4ImagesEEG,001,100515,
AFNE01.JPG,AFNE01.JPG,AFNE01.JPG,AFNE01.JPG,AFNE01.JPG,AFNE01.JPG,,,,,,,,,,,,,0,0,0,5,,,,,,,,,,,AMNE11.jpg,AMSA06.jpg,AMNE02.jpg,AMSA09.jpg,AMNE11.jpg,MN,1,num_8,32,num_2,0.41675211722,,,2017_May_31_1633,59.9892443145,FEMA4ImagesEEG,001,100515,
AFNE01.JPG,AFNE01.JPG,AFNE01.JPG,AFNE01.JPG,AFNE01.JPG,AFNE01.JPG,,,,,,,,,,,,,0,1,1,8,,,,,,,,,,,AMSA08.jpg,AMSA06.jpg,AMNE14.jpg,AMNE01.jpg,AMNE01.jpg,MN,1,num_4,16,num_4,0.500192283653,,,2017_May_31_1633,59.9892443145,FEMA4ImagesEEG,001,100515,
AFNE01.JPG,AFNE01.JPG,AFNE01.JPG,AFNE01.JPG,AFNE01.JPG,AFNE01.JPG,,,,,,,,,,,,,0,2,2,4,,,,,,,,,,,AMSA08.jpg,AMNE02.jpg,AMSA19.jpg,AMNE08.jpg,AMSA19.jpg,MS,2,num_2,32,num_6,0.316837465856,,,2017_May_31_1633,59.9892443145,FEMA4ImagesEEG,001,100515,
AFNE01.JPG,AFNE01.JPG,AFNE01.JPG,AFNE01.JPG,AFNE01.JPG,AFNE01.JPG,,,,,,,,,,,,,0,3,3,3,,,,,,,,,,,AMSA10.jpg,AMNE19.jpg,AMNE08.jpg,AMSA08.jpg,AMNE08.jpg,MN,1,num_2,32,num_4,0.500123003731,,,2017_May_31_1633,59.9892443145,FEMA4ImagesEEG,001,100515,
AFNE01.JPG,AFNE01.JPG,AFNE01.JPG,AFNE01.JPG,AFNE01.JPG,AFNE01.JPG,,,,,,,,,,,,,0,4,4,2,,,,,,,,,,,AMSA08.jpg,AMSA17.jpg,AMNE05.jpg,AMNE18.jpg,AMSA08.jpg,MS,2,num_8,16,num_8,0.650130493101,,,2017_May_31_1633,59.9892443145,FEMA4ImagesEEG,001,100515,
AFNE01.JPG,AFNE01.JPG,AFNE01.JPG,AFNE01.JPG,AFNE01.JPG,AFNE01.JPG,,,,,,,,,,,,,0,5,5,6,,,,,,,,,,,AMSA19.jpg,AMNE19.jpg,AMSA16.jpg,AMNE06.jpg,AMSA19.jpg,MS,2,num_8,32,num_6,1.41675885255,,,2017_May_31_1633,59.9892443145,FEMA4ImagesEEG,001,100515,
AFNE01.JPG,AFNE01.JPG,AFNE01.JPG,AFNE01.JPG,AFNE01.JPG,AFNE01.JPG,,,,,,,,,,,,,0,6,6,9,,,,,,,,,,,AMNE13.jpg,AMNE05.jpg,AMSA13.jpg,AMSA14.jpg,AMSA14.jpg,MS,2,num_4,16,num_4,0.850125938421,,,2017_May_31_1633,59.9892443145,FEMA4ImagesEEG,001,100515,
AFNE01.JPG,AFNE01.JPG,AFNE01.JPG,AFNE01.JPG,AFNE01.JPG,AFNE01.JPG,,,,,,,,,,,,,0,7,7,7,,,,,,,,,,,AMNE03.jpg,AMSA13.jpg,AMSA10.jpg,AMNE07.jpg,AMSA10.jpg,MS,2,num_2,16,num_2,0.416813699296,,,2017_May_31_1633,59.9892443145,FEMA4ImagesEEG,001,100515,
AFNE01.JPG,AFNE01.JPG,AFNE01.JPG,AFNE01.JPG,AFNE01.JPG,AFNE01.JPG,,,,,,,,,,,,,0,8,8,0,,,,,,,,,,,AMSA02.jpg,AMNE08.jpg,AMSA18.jpg,AMNE14.jpg,AMNE08.jpg,MN,1,num_6,32,num_8,1.34978451091,,,2017_May_31_1633,59.9892443145,FEMA4ImagesEEG,001,100515,
AFNE01.JPG,AFNE01.JPG,AFNE01.JPG,AFNE01.JPG,AFNE01.JPG,AFNE01.JPG,,,,,,,,,,,,,0,9,9,1,,,,,,,,,,,AMSA10.jpg,AMSA04.jpg,AMNE09.jpg,AMNE20.jpg,AMSA10.jpg,MS,2,num_8,32,num_4,0.583484268049,,,2017_May_31_1633,59.9892443145,FEMA4ImagesEEG,001,100515,
AFNE01.JPG,AFNE01.JPG,AFNE01.JPG,AFNE01.JPG,AFNE01.JPG,AFNE01.JPG,,,,,,,,,,,,,1,0,10,4,,,,,,,,,,,AMSA12.jpg,AMSA15.jpg,AMNE15.jpg,AMNE16.jpg,AMNE15.jpg,MN,1,num_2,32,num_6,0.400213484652,,,2017_May_31_1633,59.9892443145,FEMA4ImagesEEG,001,100515,
AFNE01.JPG,AFNE01.JPG,AFNE01.JPG,AFNE01.JPG,AFNE01.JPG,AFNE01.JPG,,,,,,,,,,,,,1,1,11,9,,,,,,,,,,,AMSA17.jpg,AMNE20.jpg,AMSA08.jpg,AMNE13.jpg,AMNE20.jpg,MN,1,num_6,32,num_4,0.750180816976,,,2017_May_31_1633,59.9892443145,FEMA4ImagesEEG,001,100515,
AFNE01.JPG,AFNE01.JPG,AFNE01.JPG,AFNE01.JPG,AFNE01.JPG,AFNE01.JPG,,,,,,,,,,,,,1,2,12,6,,,,,,,,,,,AMSA06.jpg,AMNE07.jpg,AMSA15.jpg,AMNE05.jpg,AMNE05.jpg,MN,1,num_4,32,num_8,0.58335051965,,,2017_May_31_1633,59.9892443145,FEMA4ImagesEEG,001,100515,
AFNE01.JPG,AFNE01.JPG,AFNE01.JPG,AFNE01.JPG,AFNE01.JPG,AFNE01.JPG,,,,,,,,,,,,,1,3,13,7,,,,,,,,,,,AMSA19.jpg,AMNE09.jpg,AMNE04.jpg,AMSA05.jpg,AMSA19.jpg,MS,2,num_8,32,num_4,0.633468054701,,,2017_May_31_1633,59.9892443145,FEMA4ImagesEEG,001,100515,
AFNE01.JPG,AFNE01.JPG,AFNE01.JPG,AFNE01.JPG,AFNE01.JPG,AFNE01.JPG,,,,,,,,,,,,,1,4,14,5,,,,,,,,,,,AMNE14.jpg,AMSA04.jpg,AMNE15.jpg,AMSA18.jpg,AMNE15.jpg,MN,1,num_2,16,num_2,0.883443438215,,,2017_May_31_1633,59.9892443145,FEMA4ImagesEEG,001,100515,
AFNE01.JPG,AFNE01.JPG,AFNE01.JPG,AFNE01.JPG,AFNE01.JPG,AFNE01.JPG,,,,,,,,,,,,,1,5,15,1,,,,,,,,,,,AMSA01.jpg,AMNE17.jpg,AMNE05.jpg,AMSA14.jpg,AMSA14.jpg,MS,2,num_4,16,num_4,1.00010359893,,,2017_May_31_1633,59.9892443145,FEMA4ImagesEEG,001,100515,
AFNE01.JPG,AFNE01.JPG,AFNE01.JPG,AFNE01.JPG,AFNE01.JPG,AFNE01.JPG,,,,,,,,,,,,,1,6,16,2,,,,,,,,,,,AMSA07.jpg,AMNE12.jpg,AMSA02.jpg,AMNE02.jpg,AMSA07.jpg,MS,2,num_8,16,num_8,1.11673072376,,,2017_May_31_1633,59.9892443145,FEMA4ImagesEEG,001,100515,
AFNE01.JPG,AFNE01.JPG,AFNE01.JPG,AFNE01.JPG,AFNE01.JPG,AFNE01.JPG,,,,,,,,,,,,,1,7,17,8,,,,,,,,,,,AMNE18.jpg,AMNE16.jpg,AMSA15.jpg,AMSA07.jpg,AMSA07.jpg,MS,2,num_4,16,num_4,0.800153057091,,,2017_May_31_1633,59.9892443145,FEMA4ImagesEEG,001,100515,
AFNE01.JPG,AFNE01.JPG,AFNE01.JPG,AFNE01.JPG,AFNE01.JPG,AFNE01.JPG,,,,,,,,,,,,,1,8,18,3,,,,,,,,,,,AMNE06.jpg,AMSA20.jpg,AMNE16.jpg,AMSA10.jpg,AMSA20.jpg,MS,2,num_6,16,num_6,0.98340844526,,,2017_May_31_1633,59.9892443145,FEMA4ImagesEEG,001,100515,
AFNE01.JPG,AFNE01.JPG,AFNE01.JPG,AFNE01.JPG,AFNE01.JPG,AFNE01.JPG,,,,,,,,,,,,,1,9,19,0,,,,,,,,,,,AMSA03.jpg,AMNE13.jpg,AMSA06.jpg,AMNE19.jpg,AMSA03.jpg,MS,2,num_8,16,num_8,1.01685841032,,,2017_May_31_1633,59.9892443145,FEMA4ImagesEEG,001,100515,
AFNE01.JPG,AFNE01.JPG,AFNE01.JPG,AFNE01.JPG,AFNE01.JPG,AFNE01.JPG,,,,,,,,,,,,,2,0,20,7,,,,,,,,,,,AMSA14.jpg,AMSA08.jpg,AMNE20.jpg,AMNE04.jpg,AMNE20.jpg,MN,1,num_2,32,num_6,0.283516117604,,,2017_May_31_1633,59.9892443145,FEMA4ImagesEEG,001,100515,
AFNE01.JPG,AFNE01.JPG,AFNE01.JPG,AFNE01.JPG,AFNE01.JPG,AFNE01.JPG,,,,,,,,,,,,,2,1,21,0,,,,,,,,,,,AMSA02.jpg,AMSA15.jpg,AMNE13.jpg,AMNE06.jpg,AMSA02.jpg,MS,2,num_8,16,num_8,0.816865209956,,,2017_May_31_1633,59.9892443145,FEMA4ImagesEEG,001,100515,
AFNE01.JPG,AFNE01.JPG,AFNE01.JPG,AFNE01.JPG,AFNE01.JPG,AFNE01.JPG,,,,,,,,,,,,,2,2,22,4,,,,,,,,,,,AMSA02.jpg,AMSA14.jpg,AMNE02.jpg,AMNE19.jpg,AMSA14.jpg,MS,2,num_6,16,num_6,0.550156184239,,,2017_May_31_1633,59.9892443145,FEMA4ImagesEEG,001,100515,
AFNE01.JPG,AFNE01.JPG,AFNE01.JPG,AFNE01.JPG,AFNE01.JPG,AFNE01.JPG,,,,,,,,,,,,,2,3,23,3,,,,,,,,,,,AMNE03.jpg,AMNE04.jpg,AMSA07.jpg,AMSA11.jpg,AMNE04.jpg,MN,1,num_6,16,num_6,0.666826288216,,,2017_May_31_1633,59.9892443145,FEMA4ImagesEEG,001,100515,
AFNE01.JPG,AFNE01.JPG,AFNE01.JPG,AFNE01.JPG,AFNE01.JPG,AFNE01.JPG,,,,,,,,,,,,,2,4,24,8,,,,,,,,,,,AMNE08.jpg,AMNE13.jpg,AMSA01.jpg,AMSA10.jpg,AMSA01.jpg,MS,2,num_2,16,num_2,1.08343471377,,,2017_May_31_1633,59.9892443145,FEMA4ImagesEEG,001,100515,
AFNE01.JPG,AFNE01.JPG,AFNE01.JPG,AFNE01.JPG,AFNE01.JPG,AFNE01.JPG,,,,,,,,,,,,,2,5,25,5,,,,,,,,,,,AMNE19.jpg,AMNE10.jpg,AMSA20.jpg,AMSA11.jpg,AMNE19.jpg,MN,1,num_8,16,num_8,1.10006539896,,,2017_May_31_1633,59.9892443145,FEMA4ImagesEEG,001,100515,
AFNE01.JPG,AFNE01.JPG,AFNE01.JPG,AFNE01.JPG,AFNE01.JPG,AFNE01.JPG,,,,,,,,,,,,,2,6,26,2,,,,,,,,,,,AMSA09.jpg,AMNE04.jpg,AMNE13.jpg,AMSA08.jpg,AMSA09.jpg,MS,2,num_8,32,num_6,0.316850295523,,,2017_May_31_1633,59.9892443145,FEMA4ImagesEEG,001,100515,
AFNE01.JPG,AFNE01.JPG,AFNE01.JPG,AFNE01.JPG,AFNE01.JPG,AFNE01.JPG,,,,,,,,,,,,,2,7,27,9,,,,,,,,,,,AMSA14.jpg,AMSA17.jpg,AMNE08.jpg,AMNE05.jpg,AMNE05.jpg,MN,1,num_4,16,num_4,0.300181442406,,,2017_May_31_1633,59.9892443145,FEMA4ImagesEEG,001,100515,
AFNE01.JPG,AFNE01.JPG,AFNE01.JPG,AFNE01.JPG,AFNE01.JPG,AFNE01.JPG,,,,,,,,,,,,,2,8,28,1,,,,,,,,,,,AMNE07.jpg,AMNE05.jpg,AMSA13.jpg,AMSA09.jpg,AMSA09.jpg,MS,2,num_4,32,num_2,1.40005215234,,,2017_May_31_1633,59.9892443145,FEMA4ImagesEEG,001,100515,
AFNE01.JPG,AFNE01.JPG,AFNE01.JPG,AFNE01.JPG,AFNE01.JPG,AFNE01.JPG,,,,,,,,,,,,,2,9,29,6,,,,,,,,,,,AMNE13.jpg,AMSA10.jpg,AMNE14.jpg,AMSA11.jpg,AMNE13.jpg,MN,1,num_8,16,num_8,1.2834320839,,,2017_May_31_1633,59.9892443145,FEMA4ImagesEEG,001,100515,
AFNE01.JPG,AFNE01.JPG,AFNE01.JPG,AFNE01.JPG,AFNE01.JPG,AFNE01.JPG,,,,,,,,,,,,,3,0,30,5,,,,,,,,,,,AMSA08.jpg,AMNE15.jpg,AMSA14.jpg,AMNE05.jpg,AMSA14.jpg,MS,2,num_2,16,num_2,1.0167875269,,,2017_May_31_1633,59.9892443145,FEMA4ImagesEEG,001,100515,
AFNE01.JPG,AFNE01.JPG,AFNE01.JPG,AFNE01.JPG,AFNE01.JPG,AFNE01.JPG,,,,,,,,,,,,,3,1,31,6,,,,,,,,,,,AMNE11.jpg,AMSA07.jpg,AMNE20.jpg,AMSA13.jpg,AMNE20.jpg,MN,1,num_2,16,num_2,1.18317135423,,,2017_May_31_1633,59.9892443145,FEMA4ImagesEEG,001,100515,
AFNE01.JPG,AFNE01.JPG,AFNE01.JPG,AFNE01.JPG,AFNE01.JPG,AFNE01.JPG,,,,,,,,,,,,,3,2,32,3,,,,,,,,,,,AMNE11.jpg,AMSA10.jpg,AMNE13.jpg,AMSA16.jpg,AMSA10.jpg,MS,2,num_6,32,num_4,1.00010263687,,,2017_May_31_1633,59.9892443145,FEMA4ImagesEEG,001,100515,
AFNE01.JPG,AFNE01.JPG,AFNE01.JPG,AFNE01.JPG,AFNE01.JPG,AFNE01.JPG,,,,,,,,,,,,,3,3,33,2,,,,,,,,,,,AMNE13.jpg,AMSA01.jpg,AMSA20.jpg,AMNE20.jpg,AMSA20.jpg,MS,2,num_2,32,num_6,0.950116605032,,,2017_May_31_1633,59.9892443145,FEMA4ImagesEEG,001,100515,
AFNE01.JPG,AFNE01.JPG,AFNE01.JPG,AFNE01.JPG,AFNE01.JPG,AFNE01.JPG,,,,,,,,,,,,,3,4,34,8,,,,,,,,,,,AMNE19.jpg,AMSA06.jpg,AMSA13.jpg,AMNE08.jpg,AMSA13.jpg,MS,2,num_2,32,num_4,0.966431361157,,,2017_May_31_1633,59.9892443145,FEMA4ImagesEEG,001,100515,
AFNE01.JPG,AFNE01.JPG,AFNE01.JPG,AFNE01.JPG,AFNE01.JPG,AFNE01.JPG,,,,,,,,,,,,,3,5,35,4,,,,,,,,,,,AMNE18.jpg,AMNE06.jpg,AMSA14.jpg,AMSA06.jpg,AMSA14.jpg,MS,2,num_2,16,num_2,1.03345926641,,,2017_May_31_1633,59.9892443145,FEMA4ImagesEEG,001,100515,
AFNE01.JPG,AFNE01.JPG,AFNE01.JPG,AFNE01.JPG,AFNE01.JPG,AFNE01.JPG,,,,,,,,,,,,,3,6,36,0,,,,,,,,,,,AMSA05.jpg,AMSA20.jpg,AMNE13.jpg,AMNE03.jpg,AMNE03.jpg,MN,1,num_4,32,num_8,0.466793316184,,,2017_May_31_1633,59.9892443145,FEMA4ImagesEEG,001,100515,
AFNE01.JPG,AFNE01.JPG,AFNE01.JPG,AFNE01.JPG,AFNE01.JPG,AFNE01.JPG,,,,,,,,,,,,,3,7,37,9,,,,,,,,,,,AMNE18.jpg,AMNE03.jpg,AMSA11.jpg,AMSA13.jpg,AMSA11.jpg,MS,2,num_2,16,num_2,0.599994034274,,,2017_May_31_1633,59.9892443145,FEMA4ImagesEEG,001,100515,
AFNE01.JPG,AFNE01.JPG,AFNE01.JPG,AFNE01.JPG,AFNE01.JPG,AFNE01.JPG,,,,,,,,,,,,,3,8,38,7,,,,,,,,,,,AMNE15.jpg,AMSA07.jpg,AMNE05.jpg,AMSA02.jpg,AMNE05.jpg,MN,1,num_2,16,num_2,1.10000830726,,,2017_May_31_1633,59.9892443145,FEMA4ImagesEEG,001,100515,
AFNE01.JPG,AFNE01.JPG,AFNE01.JPG,AFNE01.JPG,AFNE01.JPG,AFNE01.JPG,,,,,,,,,,,,,3,9,39,1,,,,,,,,,,,AMSA20.jpg,AMNE16.jpg,AMSA18.jpg,AMNE05.jpg,AMSA20.jpg,MS,2,num_8,16,num_8,0.650165132945,,,2017_May_31_1633,59.9892443145,FEMA4ImagesEEG,001,100515,
AFNE01.JPG,AFNE01.JPG,AFNE01.JPG,AFNE01.JPG,AFNE01.JPG,AFNE01.JPG,,,,,,,,,,,,,4,0,40,6,,,,,,,,,,,AMNE15.jpg,AMNE03.jpg,AMSA13.jpg,AMSA11.jpg,AMNE03.jpg,MN,1,num_6,16,num_6,0.733457759023,,,2017_May_31_1633,59.9892443145,FEMA4ImagesEEG,001,100515,
AFNE01.JPG,AFNE01.JPG,AFNE01.JPG,AFNE01.JPG,AFNE01.JPG,AFNE01.JPG,,,,,,,,,,,,,4,1,41,3,,,,,,,,,,,AMSA11.jpg,AMNE17.jpg,AMSA14.jpg,AMNE11.jpg,AMNE11.jpg,MN,1,num_4,32,num_8,0.850137164351,,,2017_May_31_1633,59.9892443145,FEMA4ImagesEEG,001,100515,
AFNE01.JPG,AFNE01.JPG,AFNE01.JPG,AFNE01.JPG,AFNE01.JPG,AFNE01.JPG,,,,,,,,,,,,,4,2,42,9,,,,,,,,,,,AMNE15.jpg,AMSA01.jpg,AMSA06.jpg,AMNE05.jpg,AMSA01.jpg,MS,2,num_6,32,num_8,0.833442652132,,,2017_May_31_1633,59.9892443145,FEMA4ImagesEEG,001,100515,
AFNE01.JPG,AFNE01.JPG,AFNE01.JPG,AFNE01.JPG,AFNE01.JPG,AFNE01.JPG,,,,,,,,,,,,,4,3,43,0,,,,,,,,,,,AMSA14.jpg,AMNE14.jpg,AMNE01.jpg,AMSA15.jpg,AMSA15.jpg,MS,2,num_4,16,num_4,0.666817628313,,,2017_May_31_1633,59.9892443145,FEMA4ImagesEEG,001,100515,
AFNE01.JPG,AFNE01.JPG,AFNE01.JPG,AFNE01.JPG,AFNE01.JPG,AFNE01.JPG,,,,,,,,,,,,,4,4,44,8,,,,,,,,,,,AMNE18.jpg,AMSA19.jpg,AMNE11.jpg,AMSA04.jpg,AMSA04.jpg,MS,2,num_4,32,num_2,1.40011116839,,,2017_May_31_1633,59.9892443145,FEMA4ImagesEEG,001,100515,
AFNE01.JPG,AFNE01.JPG,AFNE01.JPG,AFNE01.JPG,AFNE01.JPG,AFNE01.JPG,,,,,,,,,,,,,4,5,45,5,,,,,,,,,,,AMNE13.jpg,AMSA20.jpg,AMNE14.jpg,AMSA05.jpg,AMNE13.jpg,MN,1,num_8,16,num_8,0.850125617813,,,2017_May_31_1633,59.9892443145,FEMA4ImagesEEG,001,100515,
AFNE01.JPG,AFNE01.JPG,AFNE01.JPG,AFNE01.JPG,AFNE01.JPG,AFNE01.JPG,,,,,,,,,,,,,4,6,46,4,,,,,,,,,,,AMNE14.jpg,AMSA18.jpg,AMNE12.jpg,AMSA15.jpg,AMNE12.jpg,MN,1,num_2,16,num_2,0.883480643854,,,2017_May_31_1633,59.9892443145,FEMA4ImagesEEG,001,100515,
AFNE01.JPG,AFNE01.JPG,AFNE01.JPG,AFNE01.JPG,AFNE01.JPG,AFNE01.JPG,,,,,,,,,,,,,4,7,47,1,,,,,,,,,,,AMSA18.jpg,AMNE19.jpg,AMSA03.jpg,AMNE20.jpg,AMNE20.jpg,MN,1,num_4,16,num_4,0.95012718928,,,2017_May_31_1633,59.9892443145,FEMA4ImagesEEG,001,100515,
AFNE01.JPG,AFNE01.JPG,AFNE01.JPG,AFNE01.JPG,AFNE01.JPG,AFNE01.JPG,,,,,,,,,,,,,4,8,48,7,,,,,,,,,,,AMSA09.jpg,AMNE18.jpg,AMNE13.jpg,AMSA10.jpg,AMNE18.jpg,MN,1,num_6,16,num_6,0.866755340714,,,2017_May_31_1633,59.9892443145,FEMA4ImagesEEG,001,100515,
AFNE01.JPG,AFNE01.JPG,AFNE01.JPG,AFNE01.JPG,AFNE01.JPG,AFNE01.JPG,,,,,,,,,,,,,4,9,49,2,,,,,,,,,,,AMSA13.jpg,AMSA20.jpg,AMNE07.jpg,AMNE13.jpg,AMNE13.jpg,MN,1,num_4,16,num_4,0.583508644486,,,2017_May_31_1633,59.9892443145,FEMA4ImagesEEG,001,100515,
AFNE01.JPG,AFNE01.JPG,AFNE01.JPG,AFNE01.JPG,AFNE01.JPG,AFNE01.JPG,,,,,,,,,,,,,5,0,50,2,,,,,,,,,,,AMSA12.jpg,AMSA13.jpg,AMNE09.jpg,AMNE06.jpg,AMSA13.jpg,MS,2,num_6,16,num_6,0.583491324447,,,2017_May_31_1633,59.9892443145,FEMA4ImagesEEG,001,100515,
AFNE01.JPG,AFNE01.JPG,AFNE01.JPG,AFNE01.JPG,AFNE01.JPG,AFNE01.JPG,,,,,,,,,,,,,5,1,51,6,,,,,,,,,,,AMSA19.jpg,AMNE06.jpg,AMNE03.jpg,AMSA09.jpg,AMSA19.jpg,MS,2,num_8,16,num_8,0.950101209572,,,2017_May_31_1633,59.9892443145,FEMA4ImagesEEG,001,100515,
AFNE01.JPG,AFNE01.JPG,AFNE01.JPG,AFNE01.JPG,AFNE01.JPG,AFNE01.JPG,,,,,,,,,,,,,5,2,52,4,,,,,,,,,,,AMSA20.jpg,AMNE13.jpg,AMNE06.jpg,AMSA11.jpg,AMSA20.jpg,MS,2,num_8,32,num_4,0.550155543024,,,2017_May_31_1633,59.9892443145,FEMA4ImagesEEG,001,100515,
AFNE01.JPG,AFNE01.JPG,AFNE01.JPG,AFNE01.JPG,AFNE01.JPG,AFNE01.JPG,,,,,,,,,,,,,5,3,53,5,,,,,,,,,,,AMSA10.jpg,AMNE14.jpg,AMSA19.jpg,AMNE11.jpg,AMNE11.jpg,MN,1,num_4,32,num_8,0.516845099628,,,2017_May_31_1633,59.9892443145,FEMA4ImagesEEG,001,100515,
AFNE01.JPG,AFNE01.JPG,AFNE01.JPG,AFNE01.JPG,AFNE01.JPG,AFNE01.JPG,,,,,,,,,,,,,5,4,54,0,,,,,,,,,,,AMNE08.jpg,AMNE13.jpg,AMSA10.jpg,AMSA12.jpg,AMNE13.jpg,MN,1,num_6,16,num_6,0.466802296694,,,2017_May_31_1633,59.9892443145,FEMA4ImagesEEG,001,100515,
AFNE01.JPG,AFNE01.JPG,AFNE01.JPG,AFNE01.JPG,AFNE01.JPG,AFNE01.JPG,,,,,,,,,,,,,5,5,55,1,,,,,,,,,,,AMNE16.jpg,AMSA05.jpg,AMNE14.jpg,AMSA10.jpg,AMNE16.jpg,MN,1,num_8,16,num_8,0.533503689105,,,2017_May_31_1633,59.9892443145,FEMA4ImagesEEG,001,100515,
AFNE01.JPG,AFNE01.JPG,AFNE01.JPG,AFNE01.JPG,AFNE01.JPG,AFNE01.JPG,,,,,,,,,,,,,5,6,56,7,,,,,,,,,,,AMSA08.jpg,AMNE08.jpg,AMSA18.jpg,AMNE13.jpg,AMNE13.jpg,MN,1,num_4,16,num_4,1.05008802703,,,2017_May_31_1633,59.9892443145,FEMA4ImagesEEG,001,100515,
AFNE01.JPG,AFNE01.JPG,AFNE01.JPG,AFNE01.JPG,AFNE01.JPG,AFNE01.JPG,,,,,,,,,,,,,5,7,57,8,,,,,,,,,,,AMNE11.jpg,AMNE14.jpg,AMSA12.jpg,AMSA14.jpg,AMSA12.jpg,MS,2,num_2,16,num_2,0.950148358243,,,2017_May_31_1633,59.9892443145,FEMA4ImagesEEG,001,100515,
AFNE01.JPG,AFNE01.JPG,AFNE01.JPG,AFNE01.JPG,AFNE01.JPG,AFNE01.JPG,,,,,,,,,,,,,5,8,58,9,,,,,,,,,,,AMNE07.jpg,AMSA10.jpg,AMNE19.jpg,AMSA08.jpg,AMNE07.jpg,MN,1,num_8,16,num_8,1.10012120754,,,2017_May_31_1633,59.9892443145,FEMA4ImagesEEG,001,100515,
AFNE01.JPG,AFNE01.JPG,AFNE01.JPG,AFNE01.JPG,AFNE01.JPG,AFNE01.JPG,,,,,,,,,,,,,5,9,59,3,,,,,,,,,,,AMSA16.jpg,AMNE08.jpg,AMSA19.jpg,AMNE02.jpg,AMNE02.jpg,MN,1,num_4,16,num_4,0.616811710643,,,2017_May_31_1633,59.9892443145,FEMA4ImagesEEG,001,100515,
,,,,,,,,,,,,,,,,,,,,,,,,,,,,,,,,,,,,,,,,,,,space,13.4991816322,2017_May_31_1633,59.9892443145,FEMA4ImagesEEG,001,100515,
AFNE01.JPG,AFNE01.JPG,AFNE01.JPG,AFNE01.JPG,AFNE01.JPG,AFNE01.JPG,,,,,,,,,,,,,,,,,0,0,0,2,,,,,,,AFSA03.jpg,AFNE09.jpg,AFSA19.jpg,AFNE16.jpg,AFNE16.jpg,FN,3,num_4,32,num_2,0.283479232574,,,2017_May_31_1633,59.9892443145,FEMA4ImagesEEG,001,100515,
AFNE01.JPG,AFNE01.JPG,AFNE01.JPG,AFNE01.JPG,AFNE01.JPG,AFNE01.JPG,,,,,,,,,,,,,,,,,0,1,1,8,,,,,,,AFSA15.jpg,AFNE06.jpg,AFNE04.jpg,AFSA12.jpg,AFNE06.jpg,FN,3,num_6,32,num_4,0.0501483259723,,,2017_May_31_1633,59.9892443145,FEMA4ImagesEEG,001,100515,
AFNE01.JPG,AFNE01.JPG,AFNE01.JPG,AFNE01.JPG,AFNE01.JPG,AFNE01.JPG,,,,,,,,,,,,,,,,,0,2,2,4,,,,,,,AFNE20.jpg,AFSA01.jpg,AFNE10.jpg,AFSA15.jpg,AFSA15.jpg,FS,4,num_4,32,num_8,0.316792883212,,,2017_May_31_1633,59.9892443145,FEMA4ImagesEEG,001,100515,
AFNE01.JPG,AFNE01.JPG,AFNE01.JPG,AFNE01.JPG,AFNE01.JPG,AFNE01.JPG,,,,,,,,,,,,,,,,,0,3,3,0,,,,,,,AFSA11.jpg,AFNE14.jpg,AFNE13.jpg,AFSA17.jpg,AFSA11.jpg,FS,4,num_8,32,num_6,0.416852508672,,,2017_May_31_1633,59.9892443145,FEMA4ImagesEEG,001,100515,
AFNE01.JPG,AFNE01.JPG,AFNE01.JPG,AFNE01.JPG,AFNE01.JPG,AFNE01.JPG,,,,,,,,,,,,,,,,,0,4,4,1,,,,,,,AFSA01.jpg,AFSA09.jpg,AFNE02.jpg,AFNE17.jpg,AFNE02.jpg,FN,3,num_2,32,num_4,0.516802120488,,,2017_May_31_1633,59.9892443145,FEMA4ImagesEEG,001,100515,
AFNE01.JPG,AFNE01.JPG,AFNE01.JPG,AFNE01.JPG,AFNE01.JPG,AFNE01.JPG,,,,,,,,,,,,,,,,,0,5,5,6,,,,,,,AFSA08.jpg,AFNE02.jpg,AFSA11.jpg,AFNE13.jpg,AFSA11.jpg,FS,4,num_2,32,num_6,0.95013360423,,,2017_May_31_1633,59.9892443145,FEMA4ImagesEEG,001,100515,
AFNE01.JPG,AFNE01.JPG,AFNE01.JPG,AFNE01.JPG,AFNE01.JPG,AFNE01.JPG,,,,,,,,,,,,,,,,,0,6,6,3,,,,,,,AFNE16.jpg,AFSA04.jpg,AFNE11.jpg,AFSA16.jpg,AFNE16.jpg,FN,3,num_8,16,num_8,1.30011889827,,,2017_May_31_1633,59.9892443145,FEMA4ImagesEEG,001,100515,
AFNE01.JPG,AFNE01.JPG,AFNE01.JPG,AFNE01.JPG,AFNE01.JPG,AFNE01.JPG,,,,,,,,,,,,,,,,,0,7,7,7,,,,,,,AFNE14.jpg,AFNE08.jpg,AFSA01.jpg,AFSA16.jpg,AFSA01.jpg,FS,4,num_2,16,num_2,1.48340347386,,,2017_May_31_1633,59.9892443145,FEMA4ImagesEEG,001,100515,
AFNE01.JPG,AFNE01.JPG,AFNE01.JPG,AFNE01.JPG,AFNE01.JPG,AFNE01.JPG,,,,,,,,,,,,,,,,,0,8,8,9,,,,,,,AFNE02.jpg,AFSA13.jpg,AFNE04.jpg,AFSA11.jpg,AFSA13.jpg,FS,4,num_6,16,num_6,1.13343614107,,,2017_May_31_1633,59.9892443145,FEMA4ImagesEEG,001,100515,
AFNE01.JPG,AFNE01.JPG,AFNE01.JPG,AFNE01.JPG,AFNE01.JPG,AFNE01.JPG,,,,,,,,,,,,,,,,,0,9,9,5,,,,,,,AFSA09.jpg,AFSA04.jpg,AFNE19.jpg,AFNE02.jpg,AFNE02.jpg,FN,3,num_4,32,num_2,1.33348579169,,,2017_May_31_1633,59.9892443145,FEMA4ImagesEEG,001,100515,
AFNE01.JPG,AFNE01.JPG,AFNE01.JPG,AFNE01.JPG,AFNE01.JPG,AFNE01.JPG,,,,,,,,,,,,,,,,,1,0,10,2,,,,,,,AFNE08.jpg,AFSA15.jpg,AFNE07.jpg,AFSA06.jpg,AFNE07.jpg,FN,3,num_2,32,num_4,0.883459154284,,,2017_May_31_1633,59.9892443145,FEMA4ImagesEEG,001,100515,
AFNE01.JPG,AFNE01.JPG,AFNE01.JPG,AFNE01.JPG,AFNE01.JPG,AFNE01.JPG,,,,,,,,,,,,,,,,,1,1,11,8,,,,,,,AFNE02.jpg,AFSA04.jpg,AFSA10.jpg,AFNE11.jpg,AFSA04.jpg,FS,4,num_6,32,num_8,0.266943807481,,,2017_May_31_1633,59.9892443145,FEMA4ImagesEEG,001,100515,
AFNE01.JPG,AFNE01.JPG,AFNE01.JPG,AFNE01.JPG,AFNE01.JPG,AFNE01.JPG,,,,,,,,,,,,,,,,,1,2,12,6,,,,,,,AFNE09.jpg,AFNE17.jpg,AFSA15.jpg,AFSA19.jpg,AFNE17.jpg,FN,3,num_6,32,num_4,0.350181907648,,,2017_May_31_1633,59.9892443145,FEMA4ImagesEEG,001,100515,
AFNE01.JPG,AFNE01.JPG,AFNE01.JPG,AFNE01.JPG,AFNE01.JPG,AFNE01.JPG,,,,,,,,,,,,,,,,,1,3,13,4,,,,,,,AFNE18.jpg,AFSA17.jpg,AFNE12.jpg,AFSA11.jpg,AFNE18.jpg,FN,3,num_8,32,num_6,0.40018718387,,,2017_May_31_1633,59.9892443145,FEMA4ImagesEEG,001,100515,
AFNE01.JPG,AFNE01.JPG,AFNE01.JPG,AFNE01.JPG,AFNE01.JPG,AFNE01.JPG,,,,,,,,,,,,,,,,,1,4,14,5,,,,,,,AFNE20.jpg,AFSA15.jpg,AFSA07.jpg,AFNE17.jpg,AFSA15.jpg,FS,4,num_6,32,num_4,0.550146241207,,,2017_May_31_1633,59.9892443145,FEMA4ImagesEEG,001,100515,
AFNE01.JPG,AFNE01.JPG,AFNE01.JPG,AFNE01.JPG,AFNE01.JPG,AFNE01.JPG,,,,,,,,,,,,,,,,,1,5,15,0,,,,,,,AFNE16.jpg,AFSA16.jpg,AFNE13.jpg,AFSA15.jpg,AFSA16.jpg,FS,4,num_6,32,num_4,0.566871223738,,,2017_May_31_1633,59.9892443145,FEMA4ImagesEEG,001,100515,
AFNE01.JPG,AFNE01.JPG,AFNE01.JPG,AFNE01.JPG,AFNE01.JPG,AFNE01.JPG,,,,,,,,,,,,,,,,,1,6,16,3,,,,,,,AFSA16.jpg,AFSA18.jpg,AFNE05.jpg,AFNE06.jpg,AFSA18.jpg,FS,4,num_6,32,num_8,0.333418436348,,,2017_May_31_1633,59.9892443145,FEMA4ImagesEEG,001,100515,
AFNE01.JPG,AFNE01.JPG,AFNE01.JPG,AFNE01.JPG,AFNE01.JPG,AFNE01.JPG,,,,,,,,,,,,,,,,,1,7,17,9,,,,,,,AFSA08.jpg,AFSA13.jpg,AFNE18.jpg,AFNE20.jpg,AFNE20.jpg,FN,3,num_4,16,num_4,2.66670504864,,,2017_May_31_1633,59.9892443145,FEMA4ImagesEEG,001,100515,
AFNE01.JPG,AFNE01.JPG,AFNE01.JPG,AFNE01.JPG,AFNE01.JPG,AFNE01.JPG,,,,,,,,,,,,,,,,,1,8,18,7,,,,,,,AFSA20.jpg,AFSA02.jpg,AFNE01.jpg,AFNE08.jpg,AFNE08.jpg,FN,3,num_4,16,num_4,0.500146097038,,,2017_May_31_1633,59.9892443145,FEMA4ImagesEEG,001,100515,
AFNE01.JPG,AFNE01.JPG,AFNE01.JPG,AFNE01.JPG,AFNE01.JPG,AFNE01.JPG,,,,,,,,,,,,,,,,,1,9,19,1,,,,,,,AFSA13.jpg,AFNE16.jpg,AFNE05.jpg,AFSA10.jpg,AFSA10.jpg,FS,4,num_4,32,num_6,0.40024652076,,,2017_May_31_1633,59.9892443145,FEMA4ImagesEEG,001,100515,
AFNE01.JPG,AFNE01.JPG,AFNE01.JPG,AFNE01.JPG,AFNE01.JPG,AFNE01.JPG,,,,,,,,,,,,,,,,,2,0,20,3,,,,,,,AFSA12.jpg,AFNE01.jpg,AFSA13.jpg,AFNE03.jpg,AFSA12.jpg,FS,4,num_8,32,num_4,0.316849012626,,,2017_May_31_1633,59.9892443145,FEMA4ImagesEEG,001,100515,
AFNE01.JPG,AFNE01.JPG,AFNE01.JPG,AFNE01.JPG,AFNE01.JPG,AFNE01.JPG,,,,,,,,,,,,,,,,,2,1,21,9,,,,,,,AFSA11.jpg,AFSA18.jpg,AFNE08.jpg,AFNE06.jpg,AFSA18.jpg,FS,4,num_6,32,num_8,0.63348569558,,,2017_May_31_1633,59.9892443145,FEMA4ImagesEEG,001,100515,
AFNE01.JPG,AFNE01.JPG,AFNE01.JPG,AFNE01.JPG,AFNE01.JPG,AFNE01.JPG,,,,,,,,,,,,,,,,,2,2,22,5,,,,,,,AFSA09.jpg,AFNE20.jpg,AFSA17.jpg,AFNE16.jpg,AFNE20.jpg,FN,3,num_6,32,num_4,0.383530198131,,,2017_May_31_1633,59.9892443145,FEMA4ImagesEEG,001,100515,
AFNE01.JPG,AFNE01.JPG,AFNE01.JPG,AFNE01.JPG,AFNE01.JPG,AFNE01.JPG,,,,,,,,,,,,,,,,,2,3,23,8,,,,,,,AFSA14.jpg,AFNE17.jpg,AFSA05.jpg,AFNE07.jpg,AFSA05.jpg,FS,4,num_2,32,num_6,0.400151902344,,,2017_May_31_1633,59.9892443145,FEMA4ImagesEEG,001,100515,
AFNE01.JPG,AFNE01.JPG,AFNE01.JPG,AFNE01.JPG,AFNE01.JPG,AFNE01.JPG,,,,,,,,,,,,,,,,,2,4,24,7,,,,,,,AFSA05.jpg,AFNE16.jpg,AFNE20.jpg,AFSA01.jpg,AFNE16.jpg,FN,3,num_6,32,num_8,0.966769741848,,,2017_May_31_1633,59.9892443145,FEMA4ImagesEEG,001,100515,
AFNE01.JPG,AFNE01.JPG,AFNE01.JPG,AFNE01.JPG,AFNE01.JPG,AFNE01.JPG,,,,,,,,,,,,,,,,,2,5,25,0,,,,,,,AFSA17.jpg,AFSA18.jpg,AFNE02.jpg,AFNE01.jpg,AFSA18.jpg,FS,4,num_6,16,num_6,0.266793701099,,,2017_May_31_1633,59.9892443145,FEMA4ImagesEEG,001,100515,
AFNE01.JPG,AFNE01.JPG,AFNE01.JPG,AFNE01.JPG,AFNE01.JPG,AFNE01.JPG,,,,,,,,,,,,,,,,,2,6,26,6,,,,,,,AFSA19.jpg,AFNE17.jpg,AFSA07.jpg,AFNE05.jpg,AFNE17.jpg,FN,3,num_6,32,num_4,0.666777535807,,,2017_May_31_1633,59.9892443145,FEMA4ImagesEEG,001,100515,
AFNE01.JPG,AFNE01.JPG,AFNE01.JPG,AFNE01.JPG,AFNE01.JPG,AFNE01.JPG,,,,,,,,,,,,,,,,,2,7,27,4,,,,,,,AFSA13.jpg,AFNE07.jpg,AFNE08.jpg,AFSA03.jpg,AFNE07.jpg,FN,3,num_6,16,num_6,0.583512814017,,,2017_May_31_1633,59.9892443145,FEMA4ImagesEEG,001,100515,
AFNE01.JPG,AFNE01.JPG,AFNE01.JPG,AFNE01.JPG,AFNE01.JPG,AFNE01.JPG,,,,,,,,,,,,,,,,,2,8,28,2,,,,,,,AFSA20.jpg,AFNE03.jpg,AFSA05.jpg,AFNE08.jpg,AFSA20.jpg,FS,4,num_8,16,num_8,0.43349890993,,,2017_May_31_1633,59.9892443145,FEMA4ImagesEEG,001,100515,
AFNE01.JPG,AFNE01.JPG,AFNE01.JPG,AFNE01.JPG,AFNE01.JPG,AFNE01.JPG,,,,,,,,,,,,,,,,,2,9,29,1,,,,,,,AFNE14.jpg,AFSA19.jpg,AFSA10.jpg,AFNE19.jpg,AFNE19.jpg,FN,3,num_4,16,num_4,0.683789901203,,,2017_May_31_1633,59.9892443145,FEMA4ImagesEEG,001,100515,
AFNE01.JPG,AFNE01.JPG,AFNE01.JPG,AFNE01.JPG,AFNE01.JPG,AFNE01.JPG,,,,,,,,,,,,,,,,,3,0,30,2,,,,,,,AFNE11.jpg,AFSA06.jpg,AFNE13.jpg,AFSA08.jpg,AFNE13.jpg,FN,3,num_2,16,num_2,0.966640804429,,,2017_May_31_1633,59.9892443145,FEMA4ImagesEEG,001,100515,
AFNE01.JPG,AFNE01.JPG,AFNE01.JPG,AFNE01.JPG,AFNE01.JPG,AFNE01.JPG,,,,,,,,,,,,,,,,,3,1,31,9,,,,,,,AFSA06.jpg,AFNE15.jpg,AFSA15.jpg,AFNE19.jpg,AFNE15.jpg,FN,3,num_6,32,num_4,0.733486946439,,,2017_May_31_1633,59.9892443145,FEMA4ImagesEEG,001,100515,
AFNE01.JPG,AFNE01.JPG,AFNE01.JPG,AFNE01.JPG,AFNE01.JPG,AFNE01.JPG,,,,,,,,,,,,,,,,,3,2,32,6,,,,,,,AFSA09.jpg,AFNE04.jpg,AFNE09.jpg,AFSA03.jpg,AFSA03.jpg,FS,4,num_4,16,num_4,0.916744900402,,,2017_May_31_1633,59.9892443145,FEMA4ImagesEEG,001,100515,
AFNE01.JPG,AFNE01.JPG,AFNE01.JPG,AFNE01.JPG,AFNE01.JPG,AFNE01.JPG,,,,,,,,,,,,,,,,,3,3,33,4,,,,,,,AFSA03.jpg,AFSA20.jpg,AFNE15.jpg,AFNE17.jpg,AFNE17.jpg,FN,3,num_4,32,num_6,0.650127285626,,,2017_May_31_1633,59.9892443145,FEMA4ImagesEEG,001,100515,
AFNE01.JPG,AFNE01.JPG,AFNE01.JPG,AFNE01.JPG,AFNE01.JPG,AFNE01.JPG,,,,,,,,,,,,,,,,,3,4,34,8,,,,,,,AFNE02.jpg,AFSA05.jpg,AFNE20.jpg,AFSA06.jpg,AFSA06.jpg,FS,4,num_4,16,num_4,0.616826144047,,,2017_May_31_1633,59.9892443145,FEMA4ImagesEEG,001,100515,
AFNE01.JPG,AFNE01.JPG,AFNE01.JPG,AFNE01.JPG,AFNE01.JPG,AFNE01.JPG,,,,,,,,,,,,,,,,,3,5,35,0,,,,,,,AFNE09.jpg,AFNE03.jpg,AFSA05.jpg,AFSA09.jpg,AFNE09.jpg,FN,3,num_8,16,num_8,0.716798848938,,,2017_May_31_1633,59.9892443145,FEMA4ImagesEEG,001,100515,
AFNE01.JPG,AFNE01.JPG,AFNE01.JPG,AFNE01.JPG,AFNE01.JPG,AFNE01.JPG,,,,,,,,,,,,,,,,,3,6,36,1,,,,,,,AFNE17.jpg,AFSA16.jpg,AFSA02.jpg,AFNE15.jpg,AFSA16.jpg,FS,4,num_6,16,num_6,0.350133796688,,,2017_May_31_1633,59.9892443145,FEMA4ImagesEEG,001,100515,
AFNE01.JPG,AFNE01.JPG,AFNE01.JPG,AFNE01.JPG,AFNE01.JPG,AFNE01.JPG,,,,,,,,,,,,,,,,,3,7,37,3,,,,,,,AFSA08.jpg,AFNE12.jpg,AFNE05.jpg,AFSA16.jpg,AFSA16.jpg,FS,4,num_4,16,num_4,0.466791070998,,,2017_May_31_1633,59.9892443145,FEMA4ImagesEEG,001,100515,
AFNE01.JPG,AFNE01.JPG,AFNE01.JPG,AFNE01.JPG,AFNE01.JPG,AFNE01.JPG,,,,,,,,,,,,,,,,,3,8,38,7,,,,,,,AFSA14.jpg,AFNE13.jpg,AFNE15.jpg,AFSA11.jpg,AFSA11.jpg,FS,4,num_4,16,num_4,0.433516871184,,,2017_May_31_1633,59.9892443145,FEMA4ImagesEEG,001,100515,
AFNE01.JPG,AFNE01.JPG,AFNE01.JPG,AFNE01.JPG,AFNE01.JPG,AFNE01.JPG,,,,,,,,,,,,,,,,,3,9,39,5,,,,,,,AFSA19.jpg,AFNE16.jpg,AFNE11.jpg,AFSA20.jpg,AFSA20.jpg,FS,4,num_4,32,num_6,0.533470652765,,,2017_May_31_1633,59.9892443145,FEMA4ImagesEEG,001,100515,
AFNE01.JPG,AFNE01.JPG,AFNE01.JPG,AFNE01.JPG,AFNE01.JPG,AFNE01.JPG,,,,,,,,,,,,,,,,,4,0,40,8,,,,,,,AFNE12.jpg,AFSA07.jpg,AFNE04.jpg,AFSA03.jpg,AFNE04.jpg,FN,3,num_2,32,num_8,0.600115273846,,,2017_May_31_1633,59.9892443145,FEMA4ImagesEEG,001,100515,
AFNE01.JPG,AFNE01.JPG,AFNE01.JPG,AFNE01.JPG,AFNE01.JPG,AFNE01.JPG,,,,,,,,,,,,,,,,,4,1,41,6,,,,,,,AFSA11.jpg,AFSA01.jpg,AFNE12.jpg,AFNE03.jpg,AFNE03.jpg,FN,3,num_4,32,num_6,0.53372082999,,,2017_May_31_1633,59.9892443145,FEMA4ImagesEEG,001,100515,
AFNE01.JPG,AFNE01.JPG,AFNE01.JPG,AFNE01.JPG,AFNE01.JPG,AFNE01.JPG,,,,,,,,,,,,,,,,,4,2,42,7,,,,,,,AFSA20.jpg,AFNE04.jpg,AFNE06.jpg,AFSA08.jpg,AFSA20.jpg,FS,4,num_8,16,num_8,0.566811887082,,,2017_May_31_1633,59.9892443145,FEMA4ImagesEEG,001,100515,
AFNE01.JPG,AFNE01.JPG,AFNE01.JPG,AFNE01.JPG,AFNE01.JPG,AFNE01.JPG,,,,,,,,,,,,,,,,,4,3,43,5,,,,,,,AFSA08.jpg,AFNE04.jpg,AFSA19.jpg,AFNE19.jpg,AFSA19.jpg,FS,4,num_2,32,num_4,0.983479970135,,,2017_May_31_1633,59.9892443145,FEMA4ImagesEEG,001,100515,
AFNE01.JPG,AFNE01.JPG,AFNE01.JPG,AFNE01.JPG,AFNE01.JPG,AFNE01.JPG,,,,,,,,,,,,,,,,,4,4,44,2,,,,,,,AFSA11.jpg,AFNE11.jpg,AFSA08.jpg,AFNE20.jpg,AFSA11.jpg,FS,4,num_8,32,num_2,1.01675160392,,,2017_May_31_1633,59.9892443145,FEMA4ImagesEEG,001,100515,
AFNE01.JPG,AFNE01.JPG,AFNE01.JPG,AFNE01.JPG,AFNE01.JPG,AFNE01.JPG,,,,,,,,,,,,,,,,,4,5,45,1,,,,,,,AFNE14.jpg,AFSA05.jpg,AFNE18.jpg,AFSA07.jpg,AFNE14.jpg,FN,3,num_8,16,num_8,0.666809930466,,,2017_May_31_1633,59.9892443145,FEMA4ImagesEEG,001,100515,
AFNE01.JPG,AFNE01.JPG,AFNE01.JPG,AFNE01.JPG,AFNE01.JPG,AFNE01.JPG,,,,,,,,,,,,,,,,,4,6,46,3,,,,,,,AFSA02.jpg,AFSA19.jpg,AFNE05.jpg,AFNE07.jpg,AFNE07.jpg,FN,3,num_4,16,num_4,0.450175460894,,,2017_May_31_1633,59.9892443145,FEMA4ImagesEEG,001,100515,
AFNE01.JPG,AFNE01.JPG,AFNE01.JPG,AFNE01.JPG,AFNE01.JPG,AFNE01.JPG,,,,,,,,,,,,,,,,,4,7,47,9,,,,,,,AFNE14.jpg,AFNE12.jpg,AFSA18.jpg,AFSA17.jpg,AFNE14.jpg,FN,3,num_8,32,num_6,0.516826176085,,,2017_May_31_1633,59.9892443145,FEMA4ImagesEEG,001,100515,
AFNE01.JPG,AFNE01.JPG,AFNE01.JPG,AFNE01.JPG,AFNE01.JPG,AFNE01.JPG,,,,,,,,,,,,,,,,,4,8,48,4,,,,,,,AFNE14.jpg,AFSA20.jpg,AFSA07.jpg,AFNE19.jpg,AFSA07.jpg,FS,4,num_2,32,num_8,0.483484941768,,,2017_May_31_1633,59.9892443145,FEMA4ImagesEEG,001,100515,
AFNE01.JPG,AFNE01.JPG,AFNE01.JPG,AFNE01.JPG,AFNE01.JPG,AFNE01.JPG,,,,,,,,,,,,,,,,,4,9,49,0,,,,,,,AFSA17.jpg,AFSA20.jpg,AFNE10.jpg,AFNE03.jpg,AFNE03.jpg,FN,3,num_4,32,num_6,0.6001560078,,,2017_May_31_1633,59.9892443145,FEMA4ImagesEEG,001,100515,
AFNE01.JPG,AFNE01.JPG,AFNE01.JPG,AFNE01.JPG,AFNE01.JPG,AFNE01.JPG,,,,,,,,,,,,,,,,,5,0,50,1,,,,,,,AFNE01.jpg,AFSA12.jpg,AFNE17.jpg,AFSA14.jpg,AFSA12.jpg,FS,4,num_6,32,num_4,0.366819007322,,,2017_May_31_1633,59.9892443145,FEMA4ImagesEEG,001,100515,
AFNE01.JPG,AFNE01.JPG,AFNE01.JPG,AFNE01.JPG,AFNE01.JPG,AFNE01.JPG,,,,,,,,,,,,,,,,,5,1,51,2,,,,,,,AFNE16.jpg,AFNE04.jpg,AFSA06.jpg,AFSA02.jpg,AFNE04.jpg,FN,3,num_6,16,num_6,0.366842742078,,,2017_May_31_1633,59.9892443145,FEMA4ImagesEEG,001,100515,
AFNE01.JPG,AFNE01.JPG,AFNE01.JPG,AFNE01.JPG,AFNE01.JPG,AFNE01.JPG,,,,,,,,,,,,,,,,,5,2,52,5,,,,,,,AFNE20.jpg,AFSA15.jpg,AFSA02.jpg,AFNE17.jpg,AFSA15.jpg,FS,4,num_6,32,num_4,0.416804076871,,,2017_May_31_1633,59.9892443145,FEMA4ImagesEEG,001,100515,
AFNE01.JPG,AFNE01.JPG,AFNE01.JPG,AFNE01.JPG,AFNE01.JPG,AFNE01.JPG,,,,,,,,,,,,,,,,,5,3,53,3,,,,,,,AFNE07.jpg,AFSA14.jpg,AFSA15.jpg,AFNE04.jpg,AFSA15.jpg,FS,4,num_2,32,num_8,0.250187392347,,,2017_May_31_1633,59.9892443145,FEMA4ImagesEEG,001,100515,
AFNE01.JPG,AFNE01.JPG,AFNE01.JPG,AFNE01.JPG,AFNE01.JPG,AFNE01.JPG,,,,,,,,,,,,,,,,,5,4,54,9,,,,,,,AFSA13.jpg,AFNE18.jpg,AFSA02.jpg,AFNE09.jpg,AFSA02.jpg,FS,4,num_2,32,num_8,0.633499487303,,,2017_May_31_1633,59.9892443145,FEMA4ImagesEEG,001,100515,
AFNE01.JPG,AFNE01.JPG,AFNE01.JPG,AFNE01.JPG,AFNE01.JPG,AFNE01.JPG,,,,,,,,,,,,,,,,,5,5,55,4,,,,,,,AFSA20.jpg,AFNE03.jpg,AFSA05.jpg,AFNE13.jpg,AFNE13.jpg,FN,3,num_4,16,num_4,0.58332774695,,,2017_May_31_1633,59.9892443145,FEMA4ImagesEEG,001,100515,
AFNE01.JPG,AFNE01.JPG,AFNE01.JPG,AFNE01.JPG,AFNE01.JPG,AFNE01.JPG,,,,,,,,,,,,,,,,,5,6,56,0,,,,,,,AFSA03.jpg,AFNE14.jpg,AFSA11.jpg,AFNE13.jpg,AFNE14.jpg,FN,3,num_6,16,num_6,0.450220364379,,,2017_May_31_1633,59.9892443145,FEMA4ImagesEEG,001,100515,
AFNE01.JPG,AFNE01.JPG,AFNE01.JPG,AFNE01.JPG,AFNE01.JPG,AFNE01.JPG,,,,,,,,,,,,,,,,,5,7,57,7,,,,,,,AFSA03.jpg,AFNE14.jpg,AFSA06.jpg,AFNE10.jpg,AFSA06.jpg,FS,4,num_2,16,num_2,1.0001151457,,,2017_May_31_1633,59.9892443145,FEMA4ImagesEEG,001,100515,
AFNE01.JPG,AFNE01.JPG,AFNE01.JPG,AFNE01.JPG,AFNE01.JPG,AFNE01.JPG,,,,,,,,,,,,,,,,,5,8,58,8,,,,,,,AFSA07.jpg,AFNE01.jpg,AFNE17.jpg,AFSA13.jpg,AFSA07.jpg,FS,4,num_8,32,num_6,0.566757361172,,,2017_May_31_1633,59.9892443145,FEMA4ImagesEEG,001,100515,
AFNE01.JPG,AFNE01.JPG,AFNE01.JPG,AFNE01.JPG,AFNE01.JPG,AFNE01.JPG,,,,,,,,,,,,,,,,,5,9,59,6,,,,,,,AFNE19.jpg,AFSA15.jpg,AFSA18.jpg,AFNE15.jpg,AFNE19.jpg,FN,3,num_8,32,num_2,1.13347623358,,,2017_May_31_1633,59.9892443145,FEMA4ImagesEEG,001,100515,
,,,,,,,,,,,,,,,,,,,,,,,,,,,,,,,,,,,,,,,,,,,space,2.74997201539,2017_May_31_1633,59.9892443145,FEMA4ImagesEEG,001,100515,
AFNE01.JPG,AFNE01.JPG,AFNE01.JPG,AFNE01.JPG,AFNE01.JPG,AFNE01.JPG,,,,,,,,,,,,,,,,,,,,,0,0,0,8,,,AMNE18.jpg,AMNE10.jpg,AMSA20.jpg,AMSA17.jpg,AMNE10.jpg,MN,1,num_6,32,num_4,0.683447350981,,,2017_May_31_1633,59.9892443145,FEMA4ImagesEEG,001,100515,
AFNE01.JPG,AFNE01.JPG,AFNE01.JPG,AFNE01.JPG,AFNE01.JPG,AFNE01.JPG,,,,,,,,,,,,,,,,,,,,,0,1,1,6,,,AMNE18.jpg,AMSA18.jpg,AMNE16.jpg,AMSA10.jpg,AMNE16.jpg,MN,1,num_2,32,num_6,0.0666859967168,,,2017_May_31_1633,59.9892443145,FEMA4ImagesEEG,001,100515,
AFNE01.JPG,AFNE01.JPG,AFNE01.JPG,AFNE01.JPG,AFNE01.JPG,AFNE01.JPG,,,,,,,,,,,,,,,,,,,,,0,2,2,3,,,AMNE17.jpg,AMSA15.jpg,AMSA09.jpg,AMNE06.jpg,AMSA15.jpg,MS,2,num_6,32,num_4,0.366854288848,,,2017_May_31_1633,59.9892443145,FEMA4ImagesEEG,001,100515,
AFNE01.JPG,AFNE01.JPG,AFNE01.JPG,AFNE01.JPG,AFNE01.JPG,AFNE01.JPG,,,,,,,,,,,,,,,,,,,,,0,3,3,7,,,AMSA01.jpg,AMNE17.jpg,AMNE10.jpg,AMSA08.jpg,AMSA08.jpg,MS,2,num_4,32,num_8,0.31682014605,,,2017_May_31_1633,59.9892443145,FEMA4ImagesEEG,001,100515,
AFNE01.JPG,AFNE01.JPG,AFNE01.JPG,AFNE01.JPG,AFNE01.JPG,AFNE01.JPG,,,,,,,,,,,,,,,,,,,,,0,4,4,5,,,AMSA18.jpg,AMSA15.jpg,AMNE17.jpg,AMNE13.jpg,AMSA15.jpg,MS,2,num_6,16,num_6,0.26679241797,,,2017_May_31_1633,59.9892443145,FEMA4ImagesEEG,001,100515,
AFNE01.JPG,AFNE01.JPG,AFNE01.JPG,AFNE01.JPG,AFNE01.JPG,AFNE01.JPG,,,,,,,,,,,,,,,,,,,,,0,5,5,2,,,AMNE12.jpg,AMSA16.jpg,AMSA11.jpg,AMNE05.jpg,AMSA11.jpg,MS,2,num_2,32,num_4,0.400144846179,,,2017_May_31_1633,59.9892443145,FEMA4ImagesEEG,001,100515,
AFNE01.JPG,AFNE01.JPG,AFNE01.JPG,AFNE01.JPG,AFNE01.JPG,AFNE01.JPG,,,,,,,,,,,,,,,,,,,,,0,6,6,9,,,AMNE11.jpg,AMNE10.jpg,AMSA13.jpg,AMSA06.jpg,AMSA06.jpg,MS,2,num_4,32,num_2,1.21679451899,,,2017_May_31_1633,59.9892443145,FEMA4ImagesEEG,001,100515,
AFNE01.JPG,AFNE01.JPG,AFNE01.JPG,AFNE01.JPG,AFNE01.JPG,AFNE01.JPG,,,,,,,,,,,,,,,,,,,,,0,7,7,0,,,AMNE13.jpg,AMNE12.jpg,AMSA18.jpg,AMSA08.jpg,AMSA18.jpg,MS,2,num_2,32,num_4,0.450125745963,,,2017_May_31_1633,59.9892443145,FEMA4ImagesEEG,001,100515,
AFNE01.JPG,AFNE01.JPG,AFNE01.JPG,AFNE01.JPG,AFNE01.JPG,AFNE01.JPG,,,,,,,,,,,,,,,,,,,,,0,8,8,1,,,AMNE20.jpg,AMNE18.jpg,AMSA14.jpg,AMSA12.jpg,AMNE20.jpg,MN,1,num_8,32,num_6,0.250075774733,,,2017_May_31_1633,59.9892443145,FEMA4ImagesEEG,001,100515,
AFNE01.JPG,AFNE01.JPG,AFNE01.JPG,AFNE01.JPG,AFNE01.JPG,AFNE01.JPG,,,,,,,,,,,,,,,,,,,,,0,9,9,4,,,AMSA06.jpg,AMNE18.jpg,AMSA03.jpg,AMNE03.jpg,AMNE18.jpg,MN,1,num_6,32,num_8,1.10017894069,,,2017_May_31_1633,59.9892443145,FEMA4ImagesEEG,001,100515,
AFNE01.JPG,AFNE01.JPG,AFNE01.JPG,AFNE01.JPG,AFNE01.JPG,AFNE01.JPG,,,,,,,,,,,,,,,,,,,,,1,0,10,0,,,AMSA12.jpg,AMSA07.jpg,AMNE07.jpg,AMNE08.jpg,AMNE07.jpg,MN,1,num_2,32,num_6,0.300008884398,,,2017_May_31_1633,59.9892443145,FEMA4ImagesEEG,001,100515,
AFNE01.JPG,AFNE01.JPG,AFNE01.JPG,AFNE01.JPG,AFNE01.JPG,AFNE01.JPG,,,,,,,,,,,,,,,,,,,,,1,1,11,2,,,AMNE09.jpg,AMSA01.jpg,AMSA08.jpg,AMNE03.jpg,AMSA01.jpg,MS,2,num_6,32,num_8,0.41683679237,,,2017_May_31_1633,59.9892443145,FEMA4ImagesEEG,001,100515,
AFNE01.JPG,AFNE01.JPG,AFNE01.JPG,AFNE01.JPG,AFNE01.JPG,AFNE01.JPG,,,,,,,,,,,,,,,,,,,,,1,2,12,4,,,AMNE10.jpg,AMSA10.jpg,AMSA03.jpg,AMNE18.jpg,AMNE10.jpg,MN,1,num_8,32,num_4,0.383496199735,,,2017_May_31_1633,59.9892443145,FEMA4ImagesEEG,001,100515,
AFNE01.JPG,AFNE01.JPG,AFNE01.JPG,AFNE01.JPG,AFNE01.JPG,AFNE01.JPG,,,,,,,,,,,,,,,,,,,,,1,3,13,9,,,AMNE18.jpg,AMSA03.jpg,AMSA01.jpg,AMNE14.jpg,AMNE18.jpg,MN,1,num_8,16,num_8,0.45014499058,,,2017_May_31_1633,59.9892443145,FEMA4ImagesEEG,001,100515,
AFNE01.JPG,AFNE01.JPG,AFNE01.JPG,AFNE01.JPG,AFNE01.JPG,AFNE01.JPG,,,,,,,,,,,,,,,,,,,,,1,4,14,6,,,AMNE03.jpg,AMSA12.jpg,AMNE07.jpg,AMSA01.jpg,AMSA01.jpg,MS,2,num_4,16,num_4,0.666759253712,,,2017_May_31_1633,59.9892443145,FEMA4ImagesEEG,001,100515,
AFNE01.JPG,AFNE01.JPG,AFNE01.JPG,AFNE01.JPG,AFNE01.JPG,AFNE01.JPG,,,,,,,,,,,,,,,,,,,,,1,5,15,5,,,AMSA10.jpg,AMNE04.jpg,AMNE15.jpg,AMSA13.jpg,AMNE04.jpg,MN,1,num_6,32,num_8,1.03347177547,,,2017_May_31_1633,59.9892443145,FEMA4ImagesEEG,001,100515,
AFNE01.JPG,AFNE01.JPG,AFNE01.JPG,AFNE01.JPG,AFNE01.JPG,AFNE01.JPG,,,,,,,,,,,,,,,,,,,,,1,6,16,8,,,AMNE01.jpg,AMSA12.jpg,AMNE02.jpg,AMSA16.jpg,AMNE01.jpg,MN,1,num_8,16,num_8,0.866823978955,,,2017_May_31_1633,59.9892443145,FEMA4ImagesEEG,001,100515,
AFNE01.JPG,AFNE01.JPG,AFNE01.JPG,AFNE01.JPG,AFNE01.JPG,AFNE01.JPG,,,,,,,,,,,,,,,,,,,,,1,7,17,7,,,AMSA03.jpg,AMNE17.jpg,AMNE11.jpg,AMSA12.jpg,AMNE11.jpg,MN,1,num_2,32,num_6,0.0501925882418,,,2017_May_31_1633,59.9892443145,FEMA4ImagesEEG,001,100515,
AFNE01.JPG,AFNE01.JPG,AFNE01.JPG,AFNE01.JPG,AFNE01.JPG,AFNE01.JPG,,,,,,,,,,,,,,,,,,,,,1,8,18,3,,,AMSA03.jpg,AMSA13.jpg,AMNE20.jpg,AMNE05.jpg,AMNE20.jpg,MN,1,num_2,32,num_8,0.316724886186,,,2017_May_31_1633,59.9892443145,FEMA4ImagesEEG,001,100515,
AFNE01.JPG,AFNE01.JPG,AFNE01.JPG,AFNE01.JPG,AFNE01.JPG,AFNE01.JPG,,,,,,,,,,,,,,,,,,,,,1,9,19,1,,,AMNE16.jpg,AMNE02.jpg,AMSA09.jpg,AMSA13.jpg,AMSA13.jpg,MS,2,num_4,16,num_4,0.283331692219,,,2017_May_31_1633,59.9892443145,FEMA4ImagesEEG,001,100515,
AFNE01.JPG,AFNE01.JPG,AFNE01.JPG,AFNE01.JPG,AFNE01.JPG,AFNE01.JPG,,,,,,,,,,,,,,,,,,,,,2,0,20,0,,,AMNE05.jpg,AMSA01.jpg,AMNE07.jpg,AMSA15.jpg,AMSA01.jpg,MS,2,num_6,32,num_4,0.583488437813,,,2017_May_31_1633,59.9892443145,FEMA4ImagesEEG,001,100515,
AFNE01.JPG,AFNE01.JPG,AFNE01.JPG,AFNE01.JPG,AFNE01.JPG,AFNE01.JPG,,,,,,,,,,,,,,,,,,,,,2,1,21,6,,,AMNE15.jpg,AMNE03.jpg,AMSA13.jpg,AMSA09.jpg,AMSA13.jpg,MS,2,num_2,32,num_6,0.633544391021,,,2017_May_31_1633,59.9892443145,FEMA4ImagesEEG,001,100515,
AFNE01.JPG,AFNE01.JPG,AFNE01.JPG,AFNE01.JPG,AFNE01.JPG,AFNE01.JPG,,,,,,,,,,,,,,,,,,,,,2,2,22,5,,,AMSA15.jpg,AMNE19.jpg,AMSA19.jpg,AMNE12.jpg,AMSA19.jpg,MS,2,num_2,32,num_8,0.766751202988,,,2017_May_31_1633,59.9892443145,FEMA4ImagesEEG,001,100515,
AFNE01.JPG,AFNE01.JPG,AFNE01.JPG,AFNE01.JPG,AFNE01.JPG,AFNE01.JPG,,,,,,,,,,,,,,,,,,,,,2,3,23,8,,,AMSA04.jpg,AMNE17.jpg,AMSA02.jpg,AMNE08.jpg,AMNE08.jpg,MN,1,num_4,16,num_4,0.633423792664,,,2017_May_31_1633,59.9892443145,FEMA4ImagesEEG,001,100515,
AFNE01.JPG,AFNE01.JPG,AFNE01.JPG,AFNE01.JPG,AFNE01.JPG,AFNE01.JPG,,,,,,,,,,,,,,,,,,,,,2,4,24,3,,,AMNE07.jpg,AMSA01.jpg,AMSA15.jpg,AMNE09.jpg,AMSA01.jpg,MS,2,num_6,16,num_6,0.383540461771,,,2017_May_31_1633,59.9892443145,FEMA4ImagesEEG,001,100515,
AFNE01.JPG,AFNE01.JPG,AFNE01.JPG,AFNE01.JPG,AFNE01.JPG,AFNE01.JPG,,,,,,,,,,,,,,,,,,,,,2,5,25,7,,,AMSA02.jpg,AMSA15.jpg,AMNE08.jpg,AMNE16.jpg,AMNE08.jpg,MN,1,num_2,16,num_2,0.850104769692,,,2017_May_31_1633,59.9892443145,FEMA4ImagesEEG,001,100515,
AFNE01.JPG,AFNE01.JPG,AFNE01.JPG,AFNE01.JPG,AFNE01.JPG,AFNE01.JPG,,,,,,,,,,,,,,,,,,,,,2,6,26,2,,,AMNE04.jpg,AMSA11.jpg,AMSA07.jpg,AMNE06.jpg,AMNE04.jpg,MN,1,num_8,32,num_4,0.583518266678,,,2017_May_31_1633,59.9892443145,FEMA4ImagesEEG,001,100515,
AFNE01.JPG,AFNE01.JPG,AFNE01.JPG,AFNE01.JPG,AFNE01.JPG,AFNE01.JPG,,,,,,,,,,,,,,,,,,,,,2,7,27,1,,,AMSA05.jpg,AMSA14.jpg,AMNE08.jpg,AMNE04.jpg,AMSA05.jpg,MS,2,num_8,32,num_6,2.81661824021,,,2017_May_31_1633,59.9892443145,FEMA4ImagesEEG,001,100515,
AFNE01.JPG,AFNE01.JPG,AFNE01.JPG,AFNE01.JPG,AFNE01.JPG,AFNE01.JPG,,,,,,,,,,,,,,,,,,,,,2,8,28,4,,,AMNE03.jpg,AMSA13.jpg,AMNE16.jpg,AMSA02.jpg,AMSA13.jpg,MS,2,num_6,32,num_8,1.63324289536,,,2017_May_31_1633,59.9892443145,FEMA4ImagesEEG,001,100515,
AFNE01.JPG,AFNE01.JPG,AFNE01.JPG,AFNE01.JPG,AFNE01.JPG,AFNE01.JPG,,,,,,,,,,,,,,,,,,,,,2,9,29,9,,,AMNE02.jpg,AMNE17.jpg,AMSA13.jpg,AMSA07.jpg,AMSA13.jpg,MS,2,num_2,32,num_4,0.316900651669,,,2017_May_31_1633,59.9892443145,FEMA4ImagesEEG,001,100515,
AFNE01.JPG,AFNE01.JPG,AFNE01.JPG,AFNE01.JPG,AFNE01.JPG,AFNE01.JPG,,,,,,,,,,,,,,,,,,,,,3,0,30,8,,,AMSA06.jpg,AMNE03.jpg,AMNE19.jpg,AMSA01.jpg,AMSA06.jpg,MS,2,num_8,32,num_6,0.650171868503,,,2017_May_31_1633,59.9892443145,FEMA4ImagesEEG,001,100515,
AFNE01.JPG,AFNE01.JPG,AFNE01.JPG,AFNE01.JPG,AFNE01.JPG,AFNE01.JPG,,,,,,,,,,,,,,,,,,,,,3,1,31,1,,,AMNE04.jpg,AMSA19.jpg,AMSA17.jpg,AMNE08.jpg,AMNE04.jpg,MN,1,num_8,16,num_8,0.81679336424,,,2017_May_31_1633,59.9892443145,FEMA4ImagesEEG,001,100515,
AFNE01.JPG,AFNE01.JPG,AFNE01.JPG,AFNE01.JPG,AFNE01.JPG,AFNE01.JPG,,,,,,,,,,,,,,,,,,,,,3,2,32,6,,,AMNE14.jpg,AMNE13.jpg,AMSA13.jpg,AMSA01.jpg,AMNE13.jpg,MN,1,num_6,16,num_6,0.983427369036,,,2017_May_31_1633,59.9892443145,FEMA4ImagesEEG,001,100515,
AFNE01.JPG,AFNE01.JPG,AFNE01.JPG,AFNE01.JPG,AFNE01.JPG,AFNE01.JPG,,,,,,,,,,,,,,,,,,,,,3,3,33,9,,,AMSA08.jpg,AMNE20.jpg,AMSA01.jpg,AMNE02.jpg,AMSA08.jpg,MS,2,num_8,16,num_8,3.01661368576,,,2017_May_31_1633,59.9892443145,FEMA4ImagesEEG,001,100515,
AFNE01.JPG,AFNE01.JPG,AFNE01.JPG,AFNE01.JPG,AFNE01.JPG,AFNE01.JPG,,,,,,,,,,,,,,,,,,,,,3,4,34,7,,,AMNE02.jpg,AMSA07.jpg,AMSA18.jpg,AMNE13.jpg,AMNE13.jpg,MN,1,num_4,16,num_4,0.416826208122,,,2017_May_31_1633,59.9892443145,FEMA4ImagesEEG,001,100515,
AFNE01.JPG,AFNE01.JPG,AFNE01.JPG,AFNE01.JPG,AFNE01.JPG,AFNE01.JPG,,,,,,,,,,,,,,,,,,,,,3,5,35,0,,,AMNE16.jpg,AMSA04.jpg,AMNE19.jpg,AMSA20.jpg,AMNE16.jpg,MN,1,num_8,32,num_6,0.983503063442,,,2017_May_31_1633,59.9892443145,FEMA4ImagesEEG,001,100515,
AFNE01.JPG,AFNE01.JPG,AFNE01.JPG,AFNE01.JPG,AFNE01.JPG,AFNE01.JPG,,,,,,,,,,,,,,,,,,,,,3,6,36,4,,,AMSA20.jpg,AMNE02.jpg,AMNE08.jpg,AMSA02.jpg,AMNE02.jpg,MN,1,num_6,16,num_6,0.966761402553,,,2017_May_31_1633,59.9892443145,FEMA4ImagesEEG,001,100515,
AFNE01.JPG,AFNE01.JPG,AFNE01.JPG,AFNE01.JPG,AFNE01.JPG,AFNE01.JPG,,,,,,,,,,,,,,,,,,,,,3,7,37,5,,,AMNE20.jpg,AMSA07.jpg,AMSA11.jpg,AMNE17.jpg,AMSA07.jpg,MS,2,num_6,16,num_6,0.866748605156,,,2017_May_31_1633,59.9892443145,FEMA4ImagesEEG,001,100515,
AFNE01.JPG,AFNE01.JPG,AFNE01.JPG,AFNE01.JPG,AFNE01.JPG,AFNE01.JPG,,,,,,,,,,,,,,,,,,,,,3,8,38,2,,,AMNE15.jpg,AMSA07.jpg,AMNE06.jpg,AMSA15.jpg,AMSA15.jpg,MS,2,num_4,16,num_4,0.850155125838,,,2017_May_31_1633,59.9892443145,FEMA4ImagesEEG,001,100515,
