IPosition2,IPosition3,IPosition1,IPosition6,IPosition4,IPosition5,TrialsF1.thisRepN,TrialsF1.thisTrialN,TrialsF1.thisN,TrialsF1.thisIndex,TrialsM1.thisRepN,TrialsM1.thisTrialN,TrialsM1.thisN,TrialsM1.thisIndex,TrialsF2.thisRepN,TrialsF2.thisTrialN,TrialsF2.thisN,TrialsF2.thisIndex,TrialsM2.thisRepN,TrialsM2.thisTrialN,TrialsM2.thisN,TrialsM2.thisIndex,TrialsF3.thisRepN,TrialsF3.thisTrialN,TrialsF3.thisN,TrialsF3.thisIndex,TrialsM3.thisRepN,TrialsM3.thisTrialN,TrialsM3.thisN,TrialsM3.thisIndex,InstrKey_resp.keys,InstrKey_resp.rt,Image0 _Position,Image1 _Position,Image2 _Position,Image3 _Position,Center_image,condition,code,correct_answer,accuracy,Key_Resp.keys,Key_Resp.rt,BreakKey_resp.keys,BreakKey_resp.rt,date,frameRate,expName,session,participant,
,,,,,,,,,,,,,,,,,,,,,,,,,,,,,,space,50.4463612216,,,,,,,,,,,,,,2017_Jun_06_1452,60.0071405269,FEMA4ImagesEEG,001,100620,
AFSA21.JPG,AFNE22.JPG,AFNE21.JPG,AFSA23.JPG,AFSA22.JPG,AFNE23.JPG,0,0,0,0,,,,,,,,,,,,,,,,,,,,,,,AFNE12.jpg,AFSA12.jpg,AFNE04.jpg,AFSA14.jpg,AFSA12.jpg,FS,4,num_6,16,num_6,0.833571268711,,,2017_Jun_06_1452,60.0071405269,FEMA4ImagesEEG,001,100620,
AMNE22.JPG,AMSA24.JPG,AMSA22.JPG,AMNE25.JPG,AMNE24.JPG,AMSA25.JPG,0,1,1,7,,,,,,,,,,,,,,,,,,,,,,,AFSA14.jpg,AFNE16.jpg,AFSA01.jpg,AFNE06.jpg,AFNE06.jpg,FN,3,num_4,32,num_8,1.00013759732,,,2017_Jun_06_1452,60.0071405269,FEMA4ImagesEEG,001,100620,
AMNE23.JPG,AMNE24.JPG,AMNE22.JPG,AMSA24.JPG,AMSA22.JPG,AMSA23.JPG,0,2,2,9,,,,,,,,,,,,,,,,,,,,,,,AFSA12.jpg,AFNE08.jpg,AFNE01.jpg,AFSA14.jpg,AFNE08.jpg,FN,3,num_6,32,num_2,1.91668909183,,,2017_Jun_06_1452,60.0071405269,FEMA4ImagesEEG,001,100620,
AFSA21.JPG,AFNE23.JPG,AFNE21.JPG,AFSA25.JPG,AFNE25.JPG,AFSA23.JPG,0,3,3,4,,,,,,,,,,,,,,,,,,,,,,,AFNE07.jpg,AFSA09.jpg,AFNE11.jpg,AFSA16.jpg,AFSA09.jpg,FS,4,num_6,16,num_6,0.916674016975,,,2017_Jun_06_1452,60.0071405269,FEMA4ImagesEEG,001,100620,
AFNE22.JPG,AFSA24.JPG,AFSA22.JPG,AFNE25.JPG,AFNE24.JPG,AFSA25.JPG,0,4,4,6,,,,,,,,,,,,,,,,,,,,,,,AFSA19.jpg,AFNE04.jpg,AFSA17.jpg,AFNE02.jpg,AFNE02.jpg,FN,3,num_4,32,num_8,1.01671568095,,,2017_Jun_06_1452,60.0071405269,FEMA4ImagesEEG,001,100620,
AMSA25.JPG,AMNE24.JPG,AMSA24.JPG,AMNE26.JPG,AMSA21.JPG,AMNE25.JPG,0,5,5,3,,,,,,,,,,,,,,,,,,,,,,,AFSA20.jpg,AFNE03.jpg,AFNE02.jpg,AFSA03.jpg,AFNE03.jpg,FN,3,num_6,32,num_8,2.11664380319,,,2017_Jun_06_1452,60.0071405269,FEMA4ImagesEEG,001,100620,
AFSA25.JPG,AFNE24.JPG,AFSA24.JPG,AFNE21.JPG,AFSA21.JPG,AFNE25.JPG,0,6,6,2,,,,,,,,,,,,,,,,,,,,,,,AFSA10.jpg,AFSA15.jpg,AFNE14.jpg,AFNE07.jpg,AFSA10.jpg,FS,4,num_8,32,num_2,1.48344260408,,,2017_Jun_06_1452,60.0071405269,FEMA4ImagesEEG,001,100620,
AFNE23.JPG,AFNE24.JPG,AFNE22.JPG,AFSA24.JPG,AFSA22.JPG,AFSA23.JPG,0,7,7,8,,,,,,,,,,,,,,,,,,,,,,,AFNE06.jpg,AFSA08.jpg,AFNE17.jpg,AFSA18.jpg,AFNE17.jpg,FN,3,num_2,32,num_8,1.86671204073,,,2017_Jun_06_1452,60.0071405269,FEMA4ImagesEEG,001,100620,
AMSA21.JPG,AMNE22.JPG,AMNE21.JPG,AMSA23.JPG,AMSA22.JPG,AMNE23.JPG,0,8,8,1,,,,,,,,,,,,,,,,,,,,,,,AFNE12.jpg,AFNE19.jpg,AFSA09.jpg,AFSA03.jpg,AFSA03.jpg,FS,4,num_4,32,num_6,2.4166645552,,,2017_Jun_06_1452,60.0071405269,FEMA4ImagesEEG,001,100620,
AMSA21.JPG,AMNE23.JPG,AMNE21.JPG,AMSA25.JPG,AMNE25.JPG,AMSA23.JPG,0,9,9,5,,,,,,,,,,,,,,,,,,,,,,,AFSA01.jpg,AFNE13.jpg,AFNE18.jpg,AFSA05.jpg,AFNE13.jpg,FN,3,num_6,32,num_8,2.94994212245,,,2017_Jun_06_1452,60.0071405269,FEMA4ImagesEEG,001,100620,
AFSA21.JPG,AFNE23.JPG,AFNE21.JPG,AFSA25.JPG,AFNE25.JPG,AFSA23.JPG,,,,,0,0,0,4,,,,,,,,,,,,,,,,,,,AMNE07.jpg,AMSA20.jpg,AMNE18.jpg,AMSA02.jpg,AMNE07.jpg,MN,1,num_8,32,num_4,2.5166757491,,,2017_Jun_06_1452,60.0071405269,FEMA4ImagesEEG,001,100620,
AMSA21.JPG,AMNE23.JPG,AMNE21.JPG,AMSA25.JPG,AMNE25.JPG,AMSA23.JPG,,,,,0,1,1,5,,,,,,,,,,,,,,,,,,,AMNE16.jpg,AMSA14.jpg,AMSA02.jpg,AMNE01.jpg,AMSA14.jpg,MS,2,num_6,16,num_6,0.866721662926,,,2017_Jun_06_1452,60.0071405269,FEMA4ImagesEEG,001,100620,
AFSA21.JPG,AFNE22.JPG,AFNE21.JPG,AFSA23.JPG,AFSA22.JPG,AFNE23.JPG,,,,,0,2,2,0,,,,,,,,,,,,,,,,,,,AMSA03.jpg,AMNE01.jpg,AMSA07.jpg,AMNE12.jpg,AMNE01.jpg,MN,1,num_6,32,num_2,1.983351995,,,2017_Jun_06_1452,60.0071405269,FEMA4ImagesEEG,001,100620,
AMSA21.JPG,AMNE22.JPG,AMNE21.JPG,AMSA23.JPG,AMSA22.JPG,AMNE23.JPG,,,,,0,3,3,1,,,,,,,,,,,,,,,,,,,AMSA16.jpg,AMSA19.jpg,AMNE04.jpg,AMNE02.jpg,AMSA16.jpg,MS,2,num_8,32,num_6,1.10012088693,,,2017_Jun_06_1452,60.0071405269,FEMA4ImagesEEG,001,100620,
AMSA25.JPG,AMNE24.JPG,AMSA24.JPG,AMNE26.JPG,AMSA21.JPG,AMNE25.JPG,,,,,0,4,4,3,,,,,,,,,,,,,,,,,,,AMSA12.jpg,AMSA02.jpg,AMNE14.jpg,AMNE15.jpg,AMSA12.jpg,MS,2,num_8,16,num_8,1.466791071,,,2017_Jun_06_1452,60.0071405269,FEMA4ImagesEEG,001,100620,
AFNE23.JPG,AFNE24.JPG,AFNE22.JPG,AFSA24.JPG,AFSA22.JPG,AFSA23.JPG,,,,,0,5,5,8,,,,,,,,,,,,,,,,,,,AMNE05.jpg,AMSA15.jpg,AMSA09.jpg,AMNE01.jpg,AMSA09.jpg,MS,2,num_2,16,num_2,0.766768843867,,,2017_Jun_06_1452,60.0071405269,FEMA4ImagesEEG,001,100620,
AMNE22.JPG,AMSA24.JPG,AMSA22.JPG,AMNE25.JPG,AMNE24.JPG,AMSA25.JPG,,,,,0,6,6,7,,,,,,,,,,,,,,,,,,,AMNE18.jpg,AMSA13.jpg,AMNE16.jpg,AMSA18.jpg,AMSA18.jpg,MS,2,num_4,16,num_4,1.56670443923,,,2017_Jun_06_1452,60.0071405269,FEMA4ImagesEEG,001,100620,
AFNE22.JPG,AFSA24.JPG,AFSA22.JPG,AFNE25.JPG,AFNE24.JPG,AFSA25.JPG,,,,,0,7,7,6,,,,,,,,,,,,,,,,,,,AMSA07.jpg,AMNE18.jpg,AMSA20.jpg,AMNE15.jpg,AMNE18.jpg,MN,1,num_6,16,num_6,2.46663711593,,,2017_Jun_06_1452,60.0071405269,FEMA4ImagesEEG,001,100620,
AMNE23.JPG,AMNE24.JPG,AMNE22.JPG,AMSA24.JPG,AMSA22.JPG,AMSA23.JPG,,,,,0,8,8,9,,,,,,,,,,,,,,,,,,,AMSA13.jpg,AMNE12.jpg,AMNE17.jpg,AMSA05.jpg,AMSA05.jpg,MS,2,num_4,32,num_6,2.28304815828,,,2017_Jun_06_1452,60.0071405269,FEMA4ImagesEEG,001,100620,
AFSA25.JPG,AFNE24.JPG,AFSA24.JPG,AFNE21.JPG,AFSA21.JPG,AFNE25.JPG,,,,,0,9,9,2,,,,,,,,,,,,,,,,,,,AMSA16.jpg,AMNE09.jpg,AMNE03.jpg,AMSA06.jpg,AMNE09.jpg,MN,1,num_6,32,num_2,2.00005741254,,,2017_Jun_06_1452,60.0071405269,FEMA4ImagesEEG,001,100620,
AFSA25.JPG,AFNE24.JPG,AFSA24.JPG,AFNE21.JPG,AFSA21.JPG,AFNE25.JPG,,,,,,,,,0,0,0,2,,,,,,,,,,,,,,,AFNE07.jpg,AFSA17.jpg,AFNE10.jpg,AFSA07.jpg,AFSA07.jpg,FS,4,num_4,32,num_6,2.60001584445,,,2017_Jun_06_1452,60.0071405269,FEMA4ImagesEEG,001,100620,
AFNE22.JPG,AFSA24.JPG,AFSA22.JPG,AFNE25.JPG,AFNE24.JPG,AFSA25.JPG,,,,,,,,,0,1,1,6,,,,,,,,,,,,,,,AFNE18.jpg,AFNE19.jpg,AFSA10.jpg,AFSA19.jpg,AFNE18.jpg,FN,3,num_8,32,num_6,1.25007449184,,,2017_Jun_06_1452,60.0071405269,FEMA4ImagesEEG,001,100620,
AMSA25.JPG,AMNE24.JPG,AMSA24.JPG,AMNE26.JPG,AMSA21.JPG,AMNE25.JPG,,,,,,,,,0,2,2,3,,,,,,,,,,,,,,,AFNE07.jpg,AFSA18.jpg,AFSA16.jpg,AFNE09.jpg,AFSA18.jpg,FS,4,num_6,16,num_6,1.15007420303,,,2017_Jun_06_1452,60.0071405269,FEMA4ImagesEEG,001,100620,
AMSA21.JPG,AMNE22.JPG,AMNE21.JPG,AMSA23.JPG,AMSA22.JPG,AMNE23.JPG,,,,,,,,,0,3,3,1,,,,,,,,,,,,,,,AFSA04.jpg,AFNE20.jpg,AFNE14.jpg,AFSA12.jpg,AFNE14.jpg,FN,3,num_2,32,num_8,2.71675362461,,,2017_Jun_06_1452,60.0071405269,FEMA4ImagesEEG,001,100620,
AMNE22.JPG,AMSA24.JPG,AMSA22.JPG,AMNE25.JPG,AMNE24.JPG,AMSA25.JPG,,,,,,,,,0,4,4,7,,,,,,,,,,,,,,,AFNE01.jpg,AFNE07.jpg,AFSA13.jpg,AFSA08.jpg,AFSA08.jpg,FS,4,num_4,32,num_2,1.10008528479,,,2017_Jun_06_1452,60.0071405269,FEMA4ImagesEEG,001,100620,
AFSA21.JPG,AFNE22.JPG,AFNE21.JPG,AFSA23.JPG,AFSA22.JPG,AFNE23.JPG,,,,,,,,,0,5,5,0,,,,,,,,,,,,,,,AFNE19.jpg,AFSA01.jpg,AFSA13.jpg,AFNE11.jpg,AFNE19.jpg,FN,3,num_8,16,num_8,2.43339370727,,,2017_Jun_06_1452,60.0071405269,FEMA4ImagesEEG,001,100620,
AFNE23.JPG,AFNE24.JPG,AFNE22.JPG,AFSA24.JPG,AFSA22.JPG,AFSA23.JPG,,,,,,,,,0,6,6,8,,,,,,,,,,,,,,,AFSA16.jpg,AFNE19.jpg,AFSA06.jpg,AFNE07.jpg,AFNE19.jpg,FN,3,num_6,32,num_4,1.05013549654,,,2017_Jun_06_1452,60.0071405269,FEMA4ImagesEEG,001,100620,
AMNE23.JPG,AMNE24.JPG,AMNE22.JPG,AMSA24.JPG,AMSA22.JPG,AMSA23.JPG,,,,,,,,,0,7,7,9,,,,,,,,,,,,,,,AFSA13.jpg,AFSA14.jpg,AFNE18.jpg,AFNE06.jpg,AFNE18.jpg,FN,3,num_2,16,num_2,2.03333289502,,,2017_Jun_06_1452,60.0071405269,FEMA4ImagesEEG,001,100620,
AMSA21.JPG,AMNE23.JPG,AMNE21.JPG,AMSA25.JPG,AMNE25.JPG,AMSA23.JPG,,,,,,,,,0,8,8,5,,,,,,,,,,,,,,,AFSA15.jpg,AFSA08.jpg,AFNE09.jpg,AFNE11.jpg,AFNE09.jpg,FN,3,num_2,16,num_2,0.933828790905,,,2017_Jun_06_1452,60.0071405269,FEMA4ImagesEEG,001,100620,
AFSA21.JPG,AFNE23.JPG,AFNE21.JPG,AFSA25.JPG,AFNE25.JPG,AFSA23.JPG,,,,,,,,,0,9,9,4,,,,,,,,,,,,,,,AFSA13.jpg,AFNE03.jpg,AFSA14.jpg,AFNE19.jpg,AFNE19.jpg,FN,3,num_4,32,num_6,1.40007011383,,,2017_Jun_06_1452,60.0071405269,FEMA4ImagesEEG,001,100620,
AMSA25.JPG,AMNE24.JPG,AMSA24.JPG,AMNE26.JPG,AMSA21.JPG,AMNE25.JPG,,,,,,,,,,,,,0,0,0,3,,,,,,,,,,,AMNE10.jpg,AMNE02.jpg,AMSA19.jpg,AMSA05.jpg,AMSA05.jpg,MS,2,num_4,16,num_4,1.01675833948,,,2017_Jun_06_1452,60.0071405269,FEMA4ImagesEEG,001,100620,
AMSA21.JPG,AMNE22.JPG,AMNE21.JPG,AMSA23.JPG,AMSA22.JPG,AMNE23.JPG,,,,,,,,,,,,,0,1,1,1,,,,,,,,,,,AMNE06.jpg,AMSA11.jpg,AMSA20.jpg,AMNE01.jpg,AMNE06.jpg,MN,1,num_8,32,num_4,1.83337208931,,,2017_Jun_06_1452,60.0071405269,FEMA4ImagesEEG,001,100620,
AFSA21.JPG,AFNE22.JPG,AFNE21.JPG,AFSA23.JPG,AFSA22.JPG,AFNE23.JPG,,,,,,,,,,,,,0,2,2,0,,,,,,,,,,,AMNE18.jpg,AMSA19.jpg,AMSA14.jpg,AMNE02.jpg,AMNE02.jpg,MN,1,num_4,16,num_4,1.08345652418,,,2017_Jun_06_1452,60.0071405269,FEMA4ImagesEEG,001,100620,
AMNE23.JPG,AMNE24.JPG,AMNE22.JPG,AMSA24.JPG,AMSA22.JPG,AMSA23.JPG,,,,,,,,,,,,,0,3,3,9,,,,,,,,,,,AMSA02.jpg,AMNE03.jpg,AMNE10.jpg,AMSA09.jpg,AMSA09.jpg,MS,2,num_4,32,num_2,2.15004501585,,,2017_Jun_06_1452,60.0071405269,FEMA4ImagesEEG,001,100620,
AMSA21.JPG,AMNE23.JPG,AMNE21.JPG,AMSA25.JPG,AMNE25.JPG,AMSA23.JPG,,,,,,,,,,,,,0,4,4,5,,,,,,,,,,,AMSA07.jpg,AMNE18.jpg,AMSA14.jpg,AMNE01.jpg,AMNE18.jpg,MN,1,num_6,16,num_6,2.73330316227,,,2017_Jun_06_1452,60.0071405269,FEMA4ImagesEEG,001,100620,
AFSA21.JPG,AFNE23.JPG,AFNE21.JPG,AFSA25.JPG,AFNE25.JPG,AFSA23.JPG,,,,,,,,,,,,,0,5,5,4,,,,,,,,,,,AMNE05.jpg,AMSA20.jpg,AMSA07.jpg,AMNE04.jpg,AMSA07.jpg,MS,2,num_2,32,num_8,4.2498807651,,,2017_Jun_06_1452,60.0071405269,FEMA4ImagesEEG,001,100620,
AFNE22.JPG,AFSA24.JPG,AFSA22.JPG,AFNE25.JPG,AFNE24.JPG,AFSA25.JPG,,,,,,,,,,,,,0,6,6,6,,,,,,,,,,,AMSA13.jpg,AMSA02.jpg,AMNE14.jpg,AMNE11.jpg,AMNE11.jpg,MN,1,num_4,16,num_4,1.46675354429,,,2017_Jun_06_1452,60.0071405269,FEMA4ImagesEEG,001,100620,
AFSA25.JPG,AFNE24.JPG,AFSA24.JPG,AFNE21.JPG,AFSA21.JPG,AFNE25.JPG,,,,,,,,,,,,,0,7,7,2,,,,,,,,,,,AMNE16.jpg,AMSA03.jpg,AMNE10.jpg,AMSA18.jpg,AMSA18.jpg,MS,2,num_4,32,num_6,2.33341875696,,,2017_Jun_06_1452,60.0071405269,FEMA4ImagesEEG,001,100620,
AFNE23.JPG,AFNE24.JPG,AFNE22.JPG,AFSA24.JPG,AFSA22.JPG,AFSA23.JPG,,,,,,,,,,,,,0,8,8,8,,,,,,,,,,,AMSA20.jpg,AMSA05.jpg,AMNE10.jpg,AMNE08.jpg,AMSA20.jpg,MS,2,num_8,32,num_4,2.01668521087,,,2017_Jun_06_1452,60.0071405269,FEMA4ImagesEEG,001,100620,
AMNE22.JPG,AMSA24.JPG,AMSA22.JPG,AMNE25.JPG,AMNE24.JPG,AMSA25.JPG,,,,,,,,,,,,,0,9,9,7,,,,,,,,,,,AMNE02.jpg,AMSA07.jpg,AMNE16.jpg,AMSA05.jpg,AMSA05.jpg,MS,2,num_4,32,num_6,2.08363774233,,,2017_Jun_06_1452,60.0071405269,FEMA4ImagesEEG,001,100620,
AMSA25.JPG,AMNE24.JPG,AMSA24.JPG,AMNE26.JPG,AMSA21.JPG,AMNE25.JPG,,,,,,,,,,,,,,,,,0,0,0,3,,,,,,,AFNE04.jpg,AFSA17.jpg,AFNE02.jpg,AFSA19.jpg,AFSA17.jpg,FS,4,num_6,16,num_6,2.2500616624,,,2017_Jun_06_1452,60.0071405269,FEMA4ImagesEEG,001,100620,
AMNE23.JPG,AMNE24.JPG,AMNE22.JPG,AMSA24.JPG,AMSA22.JPG,AMSA23.JPG,,,,,,,,,,,,,,,,,0,1,1,9,,,,,,,AFSA14.jpg,AFSA10.jpg,AFNE03.jpg,AFNE07.jpg,AFSA10.jpg,FS,4,num_6,32,num_8,1.25009630225,,,2017_Jun_06_1452,60.0071405269,FEMA4ImagesEEG,001,100620,
AFSA25.JPG,AFNE24.JPG,AFSA24.JPG,AFNE21.JPG,AFSA21.JPG,AFNE25.JPG,,,,,,,,,,,,,,,,,0,2,2,2,,,,,,,AFSA08.jpg,AFNE06.jpg,AFNE20.jpg,AFSA09.jpg,AFNE06.jpg,FN,3,num_6,16,num_6,1.5833755373,,,2017_Jun_06_1452,60.0071405269,FEMA4ImagesEEG,001,100620,
AMNE22.JPG,AMSA24.JPG,AMSA22.JPG,AMNE25.JPG,AMNE24.JPG,AMSA25.JPG,,,,,,,,,,,,,,,,,0,3,3,7,,,,,,,AFNE02.jpg,AFSA05.jpg,AFNE08.jpg,AFSA20.jpg,AFNE02.jpg,FN,3,num_8,16,num_8,1.08343182714,,,2017_Jun_06_1452,60.0071405269,FEMA4ImagesEEG,001,100620,
AMSA21.JPG,AMNE23.JPG,AMNE21.JPG,AMSA25.JPG,AMNE25.JPG,AMSA23.JPG,,,,,,,,,,,,,,,,,0,4,4,5,,,,,,,AFNE07.jpg,AFSA18.jpg,AFSA04.jpg,AFNE13.jpg,AFSA18.jpg,FS,4,num_6,32,num_2,1.80004560924,,,2017_Jun_06_1452,60.0071405269,FEMA4ImagesEEG,001,100620,
AFSA21.JPG,AFNE22.JPG,AFNE21.JPG,AFSA23.JPG,AFSA22.JPG,AFNE23.JPG,,,,,,,,,,,,,,,,,0,5,5,0,,,,,,,AFSA14.jpg,AFNE04.jpg,AFSA09.jpg,AFNE15.jpg,AFNE04.jpg,FN,3,num_6,16,num_6,2.46669581113,,,2017_Jun_06_1452,60.0071405269,FEMA4ImagesEEG,001,100620,
AFNE22.JPG,AFSA24.JPG,AFSA22.JPG,AFNE25.JPG,AFNE24.JPG,AFSA25.JPG,,,,,,,,,,,,,,,,,0,6,6,6,,,,,,,AFNE08.jpg,AFSA11.jpg,AFSA02.jpg,AFNE04.jpg,AFSA02.jpg,FS,4,num_2,32,num_4,1.50006815721,,,2017_Jun_06_1452,60.0071405269,FEMA4ImagesEEG,001,100620,
AFSA21.JPG,AFNE23.JPG,AFNE21.JPG,AFSA25.JPG,AFNE25.JPG,AFSA23.JPG,,,,,,,,,,,,,,,,,0,7,7,4,,,,,,,AFSA08.jpg,AFNE02.jpg,AFSA20.jpg,AFNE15.jpg,AFNE15.jpg,FN,3,num_4,16,num_4,1.25012292364,,,2017_Jun_06_1452,60.0071405269,FEMA4ImagesEEG,001,100620,
AFNE23.JPG,AFNE24.JPG,AFNE22.JPG,AFSA24.JPG,AFSA22.JPG,AFSA23.JPG,,,,,,,,,,,,,,,,,0,8,8,8,,,,,,,AFNE10.jpg,AFNE06.jpg,AFSA14.jpg,AFSA06.jpg,AFNE06.jpg,FN,3,num_6,32,num_8,0.867070627864,,,2017_Jun_06_1452,60.0071405269,FEMA4ImagesEEG,001,100620,
AMSA21.JPG,AMNE22.JPG,AMNE21.JPG,AMSA23.JPG,AMSA22.JPG,AMNE23.JPG,,,,,,,,,,,,,,,,,0,9,9,1,,,,,,,AFNE01.jpg,AFSA05.jpg,AFNE15.jpg,AFSA10.jpg,AFNE15.jpg,FN,3,num_2,16,num_2,3.58328284346,,,2017_Jun_06_1452,60.0071405269,FEMA4ImagesEEG,001,100620,
AMNE23.JPG,AMNE24.JPG,AMNE22.JPG,AMSA24.JPG,AMSA22.JPG,AMSA23.JPG,,,,,,,,,,,,,,,,,,,,,0,0,0,9,,,AMNE09.jpg,AMSA06.jpg,AMNE03.jpg,AMSA01.jpg,AMSA01.jpg,MS,2,num_4,32,num_2,2.20004516025,,,2017_Jun_06_1452,60.0071405269,FEMA4ImagesEEG,001,100620,
AMSA21.JPG,AMNE22.JPG,AMNE21.JPG,AMSA23.JPG,AMSA22.JPG,AMNE23.JPG,,,,,,,,,,,,,,,,,,,,,0,1,1,1,,,AMSA06.jpg,AMNE10.jpg,AMNE07.jpg,AMSA20.jpg,AMNE07.jpg,MN,1,num_2,32,num_8,1.05008129147,,,2017_Jun_06_1452,60.0071405269,FEMA4ImagesEEG,001,100620,
AFNE22.JPG,AFSA24.JPG,AFSA22.JPG,AFNE25.JPG,AFNE24.JPG,AFSA25.JPG,,,,,,,,,,,,,,,,,,,,,0,2,2,6,,,AMNE14.jpg,AMSA06.jpg,AMSA16.jpg,AMNE20.jpg,AMSA06.jpg,MS,2,num_6,32,num_2,2.68332643202,,,2017_Jun_06_1452,60.0071405269,FEMA4ImagesEEG,001,100620,
AFSA21.JPG,AFNE23.JPG,AFNE21.JPG,AFSA25.JPG,AFNE25.JPG,AFSA23.JPG,,,,,,,,,,,,,,,,,,,,,0,3,3,4,,,AMSA14.jpg,AMSA15.jpg,AMNE05.jpg,AMNE02.jpg,AMSA15.jpg,MS,2,num_6,16,num_6,0.966765572317,,,2017_Jun_06_1452,60.0071405269,FEMA4ImagesEEG,001,100620,
AMSA25.JPG,AMNE24.JPG,AMSA24.JPG,AMNE26.JPG,AMSA21.JPG,AMNE25.JPG,,,,,,,,,,,,,,,,,,,,,0,4,4,3,,,AMSA14.jpg,AMNE17.jpg,AMSA02.jpg,AMNE14.jpg,AMSA02.jpg,MS,2,num_2,32,num_4,1.43338568881,,,2017_Jun_06_1452,60.0071405269,FEMA4ImagesEEG,001,100620,
AFNE23.JPG,AFNE24.JPG,AFNE22.JPG,AFSA24.JPG,AFSA22.JPG,AFSA23.JPG,,,,,,,,,,,,,,,,,,,,,0,5,5,8,,,AMNE19.jpg,AMSA10.jpg,AMNE01.jpg,AMSA09.jpg,AMNE01.jpg,MN,1,num_2,32,num_4,1.03345092735,,,2017_Jun_06_1452,60.0071405269,FEMA4ImagesEEG,001,100620,
AFSA21.JPG,AFNE22.JPG,AFNE21.JPG,AFSA23.JPG,AFSA22.JPG,AFNE23.JPG,,,,,,,,,,,,,,,,,,,,,0,6,6,0,,,AMSA18.jpg,AMSA10.jpg,AMNE14.jpg,AMNE18.jpg,AMSA18.jpg,MS,2,num_8,16,num_8,0.733477965463,,,2017_Jun_06_1452,60.0071405269,FEMA4ImagesEEG,001,100620,
AMSA21.JPG,AMNE23.JPG,AMNE21.JPG,AMSA25.JPG,AMNE25.JPG,AMSA23.JPG,,,,,,,,,,,,,,,,,,,,,0,7,7,5,,,AMNE18.jpg,AMNE05.jpg,AMSA20.jpg,AMSA07.jpg,AMNE05.jpg,MN,1,num_6,16,num_6,1.05009508342,,,2017_Jun_06_1452,60.0071405269,FEMA4ImagesEEG,001,100620,
AFSA25.JPG,AFNE24.JPG,AFSA24.JPG,AFNE21.JPG,AFSA21.JPG,AFNE25.JPG,,,,,,,,,,,,,,,,,,,,,0,8,8,2,,,AMNE06.jpg,AMSA15.jpg,AMNE12.jpg,AMSA13.jpg,AMNE12.jpg,MN,1,num_2,32,num_8,0.783520447556,,,2017_Jun_06_1452,60.0071405269,FEMA4ImagesEEG,001,100620,
AMNE22.JPG,AMSA24.JPG,AMSA22.JPG,AMNE25.JPG,AMNE24.JPG,AMSA25.JPG,,,,,,,,,,,,,,,,,,,,,0,9,9,7,,,AMNE04.jpg,AMNE01.jpg,AMSA17.jpg,AMSA20.jpg,AMNE01.jpg,MN,1,num_6,32,num_2,1.68351310259,,,2017_Jun_06_1452,60.0071405269,FEMA4ImagesEEG,001,100620,
,,,,,,,,,,,,,,,,,,,,,,,,,,,,,,,,,,,,,,,,,,,space,8.216182868,2017_Jun_06_1452,60.0071405269,FEMA4ImagesEEG,001,100620,
AFNE01.JPG,AFNE01.JPG,AFNE01.JPG,AFNE01.JPG,AFNE01.JPG,AFNE01.JPG,0,0,0,6,,,,,,,,,,,,,,,,,,,,,,,AFNE09.jpg,AFNE19.jpg,AFSA11.jpg,AFSA16.jpg,AFSA11.jpg,FS,4,num_2,32,num_4,2.38330535963,,,2017_Jun_06_1452,60.0071405269,FEMA4ImagesEEG,001,100620,
AFNE01.JPG,AFNE01.JPG,AFNE01.JPG,AFNE01.JPG,AFNE01.JPG,AFNE01.JPG,0,1,1,2,,,,,,,,,,,,,,,,,,,,,,,AFNE19.jpg,AFSA13.jpg,AFSA17.jpg,AFNE20.jpg,AFSA17.jpg,FS,4,num_2,32,num_6,1.03340987256,,,2017_Jun_06_1452,60.0071405269,FEMA4ImagesEEG,001,100620,
AFNE01.JPG,AFNE01.JPG,AFNE01.JPG,AFNE01.JPG,AFNE01.JPG,AFNE01.JPG,0,2,2,0,,,,,,,,,,,,,,,,,,,,,,,AFSA04.jpg,AFNE20.jpg,AFNE02.jpg,AFSA03.jpg,AFSA03.jpg,FS,4,num_4,32,num_8,1.0667950483,,,2017_Jun_06_1452,60.0071405269,FEMA4ImagesEEG,001,100620,
AFNE01.JPG,AFNE01.JPG,AFNE01.JPG,AFNE01.JPG,AFNE01.JPG,AFNE01.JPG,0,3,3,1,,,,,,,,,,,,,,,,,,,,,,,AFSA14.jpg,AFNE06.jpg,AFNE04.jpg,AFSA01.jpg,AFSA14.jpg,FS,4,num_8,32,num_2,0.900113894604,,,2017_Jun_06_1452,60.0071405269,FEMA4ImagesEEG,001,100620,
AFNE01.JPG,AFNE01.JPG,AFNE01.JPG,AFNE01.JPG,AFNE01.JPG,AFNE01.JPG,0,4,4,7,,,,,,,,,,,,,,,,,,,,,,,AFNE13.jpg,AFSA20.jpg,AFNE01.jpg,AFSA08.jpg,AFNE01.jpg,FN,3,num_2,16,num_2,1.05013068556,,,2017_Jun_06_1452,60.0071405269,FEMA4ImagesEEG,001,100620,
AFNE01.JPG,AFNE01.JPG,AFNE01.JPG,AFNE01.JPG,AFNE01.JPG,AFNE01.JPG,0,5,5,5,,,,,,,,,,,,,,,,,,,,,,,AFNE16.jpg,AFSA12.jpg,AFNE03.jpg,AFSA14.jpg,AFSA12.jpg,FS,4,num_6,32,num_8,1.11683303979,,,2017_Jun_06_1452,60.0071405269,FEMA4ImagesEEG,001,100620,
AFNE01.JPG,AFNE01.JPG,AFNE01.JPG,AFNE01.JPG,AFNE01.JPG,AFNE01.JPG,0,6,6,3,,,,,,,,,,,,,,,,,,,,,,,AFSA09.jpg,AFNE10.jpg,AFSA05.jpg,AFNE19.jpg,AFSA09.jpg,FS,4,num_8,32,num_2,1.15012327628,,,2017_Jun_06_1452,60.0071405269,FEMA4ImagesEEG,001,100620,
AFNE01.JPG,AFNE01.JPG,AFNE01.JPG,AFNE01.JPG,AFNE01.JPG,AFNE01.JPG,0,7,7,4,,,,,,,,,,,,,,,,,,,,,,,AFNE19.jpg,AFNE01.jpg,AFSA08.jpg,AFSA02.jpg,AFSA02.jpg,FS,4,num_4,16,num_4,1.2168192158,,,2017_Jun_06_1452,60.0071405269,FEMA4ImagesEEG,001,100620,
AFNE01.JPG,AFNE01.JPG,AFNE01.JPG,AFNE01.JPG,AFNE01.JPG,AFNE01.JPG,0,8,8,8,,,,,,,,,,,,,,,,,,,,,,,AFSA01.jpg,AFSA04.jpg,AFNE13.jpg,AFNE17.jpg,AFSA01.jpg,FS,4,num_8,16,num_8,1.03349358565,,,2017_Jun_06_1452,60.0071405269,FEMA4ImagesEEG,001,100620,
AFNE01.JPG,AFNE01.JPG,AFNE01.JPG,AFNE01.JPG,AFNE01.JPG,AFNE01.JPG,0,9,9,9,,,,,,,,,,,,,,,,,,,,,,,AFNE05.jpg,AFNE09.jpg,AFSA01.jpg,AFSA18.jpg,AFSA01.jpg,FS,4,num_2,16,num_2,1.18348952825,,,2017_Jun_06_1452,60.0071405269,FEMA4ImagesEEG,001,100620,
AFNE01.JPG,AFNE01.JPG,AFNE01.JPG,AFNE01.JPG,AFNE01.JPG,AFNE01.JPG,1,0,10,7,,,,,,,,,,,,,,,,,,,,,,,AFSA05.jpg,AFNE05.jpg,AFNE09.jpg,AFSA03.jpg,AFNE09.jpg,FN,3,num_2,32,num_6,2.35002570739,,,2017_Jun_06_1452,60.0071405269,FEMA4ImagesEEG,001,100620,
AFNE01.JPG,AFNE01.JPG,AFNE01.JPG,AFNE01.JPG,AFNE01.JPG,AFNE01.JPG,1,1,11,4,,,,,,,,,,,,,,,,,,,,,,,AFNE03.jpg,AFSA12.jpg,AFSA20.jpg,AFNE08.jpg,AFNE08.jpg,FN,3,num_4,32,num_8,1.20008846023,,,2017_Jun_06_1452,60.0071405269,FEMA4ImagesEEG,001,100620,
AFNE01.JPG,AFNE01.JPG,AFNE01.JPG,AFNE01.JPG,AFNE01.JPG,AFNE01.JPG,1,2,12,9,,,,,,,,,,,,,,,,,,,,,,,AFSA11.jpg,AFNE04.jpg,AFSA06.jpg,AFNE09.jpg,AFSA06.jpg,FS,4,num_2,32,num_8,0.950122698909,,,2017_Jun_06_1452,60.0071405269,FEMA4ImagesEEG,001,100620,
AFNE01.JPG,AFNE01.JPG,AFNE01.JPG,AFNE01.JPG,AFNE01.JPG,AFNE01.JPG,1,3,13,0,,,,,,,,,,,,,,,,,,,,,,,AFNE20.jpg,AFSA08.jpg,AFSA03.jpg,AFNE06.jpg,AFNE06.jpg,FN,3,num_4,32,num_8,1.28347025183,,,2017_Jun_06_1452,60.0071405269,FEMA4ImagesEEG,001,100620,
AFNE01.JPG,AFNE01.JPG,AFNE01.JPG,AFNE01.JPG,AFNE01.JPG,AFNE01.JPG,1,4,14,3,,,,,,,,,,,,,,,,,,,,,,,AFSA20.jpg,AFSA11.jpg,AFNE20.jpg,AFNE07.jpg,AFNE20.jpg,FN,3,num_2,16,num_2,1.26668529096,,,2017_Jun_06_1452,60.0071405269,FEMA4ImagesEEG,001,100620,
AFNE01.JPG,AFNE01.JPG,AFNE01.JPG,AFNE01.JPG,AFNE01.JPG,AFNE01.JPG,1,5,15,5,,,,,,,,,,,,,,,,,,,,,,,AFNE01.jpg,AFSA16.jpg,AFSA11.jpg,AFNE11.jpg,AFSA16.jpg,FS,4,num_6,16,num_6,1.2667439864,,,2017_Jun_06_1452,60.0071405269,FEMA4ImagesEEG,001,100620,
AFNE01.JPG,AFNE01.JPG,AFNE01.JPG,AFNE01.JPG,AFNE01.JPG,AFNE01.JPG,1,6,16,2,,,,,,,,,,,,,,,,,,,,,,,AFSA12.jpg,AFNE13.jpg,AFNE11.jpg,AFSA02.jpg,AFSA12.jpg,FS,4,num_8,32,num_2,1.83340063528,,,2017_Jun_06_1452,60.0071405269,FEMA4ImagesEEG,001,100620,
AFNE01.JPG,AFNE01.JPG,AFNE01.JPG,AFNE01.JPG,AFNE01.JPG,AFNE01.JPG,1,7,17,8,,,,,,,,,,,,,,,,,,,,,,,AFSA17.jpg,AFNE10.jpg,AFNE18.jpg,AFSA13.jpg,AFSA13.jpg,FS,4,num_4,32,num_6,1.33342420962,,,2017_Jun_06_1452,60.0071405269,FEMA4ImagesEEG,001,100620,
AFNE01.JPG,AFNE01.JPG,AFNE01.JPG,AFNE01.JPG,AFNE01.JPG,AFNE01.JPG,1,8,18,6,,,,,,,,,,,,,,,,,,,,,,,AFSA20.jpg,AFSA19.jpg,AFNE15.jpg,AFNE04.jpg,AFSA20.jpg,FS,4,num_8,32,num_2,1.73336249916,,,2017_Jun_06_1452,60.0071405269,FEMA4ImagesEEG,001,100620,
AFNE01.JPG,AFNE01.JPG,AFNE01.JPG,AFNE01.JPG,AFNE01.JPG,AFNE01.JPG,1,9,19,1,,,,,,,,,,,,,,,,,,,,,,,AFNE10.jpg,AFSA15.jpg,AFNE12.jpg,AFSA04.jpg,AFSA15.jpg,FS,4,num_6,32,num_8,1.28349815635,,,2017_Jun_06_1452,60.0071405269,FEMA4ImagesEEG,001,100620,
AFNE01.JPG,AFNE01.JPG,AFNE01.JPG,AFNE01.JPG,AFNE01.JPG,AFNE01.JPG,2,0,20,8,,,,,,,,,,,,,,,,,,,,,,,AFNE04.jpg,AFNE11.jpg,AFSA19.jpg,AFSA13.jpg,AFSA19.jpg,FS,4,num_2,32,num_8,1.65016417089,,,2017_Jun_06_1452,60.0071405269,FEMA4ImagesEEG,001,100620,
AFNE01.JPG,AFNE01.JPG,AFNE01.JPG,AFNE01.JPG,AFNE01.JPG,AFNE01.JPG,2,1,21,7,,,,,,,,,,,,,,,,,,,,,,,AFSA12.jpg,AFNE06.jpg,AFSA03.jpg,AFNE15.jpg,AFNE15.jpg,FN,3,num_4,32,num_2,3.73333106679,,,2017_Jun_06_1452,60.0071405269,FEMA4ImagesEEG,001,100620,
AFNE01.JPG,AFNE01.JPG,AFNE01.JPG,AFNE01.JPG,AFNE01.JPG,AFNE01.JPG,2,2,22,0,,,,,,,,,,,,,,,,,,,,,,,AFSA09.jpg,AFNE18.jpg,AFNE02.jpg,AFSA20.jpg,AFSA20.jpg,FS,4,num_4,32,num_6,1.80005042022,,,2017_Jun_06_1452,60.0071405269,FEMA4ImagesEEG,001,100620,
AFNE01.JPG,AFNE01.JPG,AFNE01.JPG,AFNE01.JPG,AFNE01.JPG,AFNE01.JPG,2,3,23,1,,,,,,,,,,,,,,,,,,,,,,,AFNE10.jpg,AFNE11.jpg,AFSA04.jpg,AFSA13.jpg,AFNE10.jpg,FN,3,num_8,16,num_8,1.06677772803,,,2017_Jun_06_1452,60.0071405269,FEMA4ImagesEEG,001,100620,
AFNE01.JPG,AFNE01.JPG,AFNE01.JPG,AFNE01.JPG,AFNE01.JPG,AFNE01.JPG,2,4,24,9,,,,,,,,,,,,,,,,,,,,,,,AFSA11.jpg,AFNE17.jpg,AFNE18.jpg,AFSA16.jpg,AFSA11.jpg,FS,4,num_8,16,num_8,0.833484348375,,,2017_Jun_06_1452,60.0071405269,FEMA4ImagesEEG,001,100620,
AFNE01.JPG,AFNE01.JPG,AFNE01.JPG,AFNE01.JPG,AFNE01.JPG,AFNE01.JPG,2,5,25,3,,,,,,,,,,,,,,,,,,,,,,,AFNE04.jpg,AFSA08.jpg,AFNE07.jpg,AFSA09.jpg,AFNE04.jpg,FN,3,num_8,32,num_2,1.10009234096,,,2017_Jun_06_1452,60.0071405269,FEMA4ImagesEEG,001,100620,
AFNE01.JPG,AFNE01.JPG,AFNE01.JPG,AFNE01.JPG,AFNE01.JPG,AFNE01.JPG,2,6,26,2,,,,,,,,,,,,,,,,,,,,,,,AFSA01.jpg,AFNE18.jpg,AFNE14.jpg,AFSA14.jpg,AFSA14.jpg,FS,4,num_4,32,num_8,0.933428507531,,,2017_Jun_06_1452,60.0071405269,FEMA4ImagesEEG,001,100620,
AFNE01.JPG,AFNE01.JPG,AFNE01.JPG,AFNE01.JPG,AFNE01.JPG,AFNE01.JPG,2,7,27,4,,,,,,,,,,,,,,,,,,,,,,,AFNE05.jpg,AFSA18.jpg,AFNE01.jpg,AFSA16.jpg,AFSA18.jpg,FS,4,num_6,16,num_6,1.45004684408,,,2017_Jun_06_1452,60.0071405269,FEMA4ImagesEEG,001,100620,
AFNE01.JPG,AFNE01.JPG,AFNE01.JPG,AFNE01.JPG,AFNE01.JPG,AFNE01.JPG,2,8,28,6,,,,,,,,,,,,,,,,,,,,,,,AFSA11.jpg,AFNE06.jpg,AFSA18.jpg,AFNE03.jpg,AFSA18.jpg,FS,4,num_2,32,num_4,2.2500132306,,,2017_Jun_06_1452,60.0071405269,FEMA4ImagesEEG,001,100620,
AFNE01.JPG,AFNE01.JPG,AFNE01.JPG,AFNE01.JPG,AFNE01.JPG,AFNE01.JPG,2,9,29,5,,,,,,,,,,,,,,,,,,,,,,,AFNE10.jpg,AFNE19.jpg,AFSA04.jpg,AFSA06.jpg,AFNE10.jpg,FN,3,num_8,16,num_8,1.13346051751,,,2017_Jun_06_1452,60.0071405269,FEMA4ImagesEEG,001,100620,
AFNE01.JPG,AFNE01.JPG,AFNE01.JPG,AFNE01.JPG,AFNE01.JPG,AFNE01.JPG,3,0,30,3,,,,,,,,,,,,,,,,,,,,,,,AFNE05.jpg,AFSA15.jpg,AFNE18.jpg,AFSA17.jpg,AFNE05.jpg,FN,3,num_8,32,num_2,3.68326869886,,,2017_Jun_06_1452,60.0071405269,FEMA4ImagesEEG,001,100620,
AFNE01.JPG,AFNE01.JPG,AFNE01.JPG,AFNE01.JPG,AFNE01.JPG,AFNE01.JPG,3,1,31,1,,,,,,,,,,,,,,,,,,,,,,,AFNE02.jpg,AFSA07.jpg,AFNE19.jpg,AFSA05.jpg,AFNE19.jpg,FN,3,num_2,32,num_4,2.73332433123,,,2017_Jun_06_1452,60.0071405269,FEMA4ImagesEEG,001,100620,
AFNE01.JPG,AFNE01.JPG,AFNE01.JPG,AFNE01.JPG,AFNE01.JPG,AFNE01.JPG,3,2,32,0,,,,,,,,,,,,,,,,,,,,,,,AFSA16.jpg,AFNE10.jpg,AFNE05.jpg,AFSA17.jpg,AFNE10.jpg,FN,3,num_6,32,num_8,0.716746568447,,,2017_Jun_06_1452,60.0071405269,FEMA4ImagesEEG,001,100620,
AFNE01.JPG,AFNE01.JPG,AFNE01.JPG,AFNE01.JPG,AFNE01.JPG,AFNE01.JPG,3,3,33,2,,,,,,,,,,,,,,,,,,,,,,,AFSA17.jpg,AFNE16.jpg,AFSA12.jpg,AFNE12.jpg,AFSA12.jpg,FS,4,num_2,16,num_2,1.36668750411,,,2017_Jun_06_1452,60.0071405269,FEMA4ImagesEEG,001,100620,
AFNE01.JPG,AFNE01.JPG,AFNE01.JPG,AFNE01.JPG,AFNE01.JPG,AFNE01.JPG,3,4,34,8,,,,,,,,,,,,,,,,,,,,,,,AFSA04.jpg,AFNE16.jpg,AFSA12.jpg,AFNE02.jpg,AFSA12.jpg,FS,4,num_2,16,num_2,0.750226041535,,,2017_Jun_06_1452,60.0071405269,FEMA4ImagesEEG,001,100620,
AFNE01.JPG,AFNE01.JPG,AFNE01.JPG,AFNE01.JPG,AFNE01.JPG,AFNE01.JPG,3,5,35,7,,,,,,,,,,,,,,,,,,,,,,,AFNE02.jpg,AFNE17.jpg,AFSA04.jpg,AFSA02.jpg,AFSA02.jpg,FS,4,num_4,32,num_8,1.20011315704,,,2017_Jun_06_1452,60.0071405269,FEMA4ImagesEEG,001,100620,
AFNE01.JPG,AFNE01.JPG,AFNE01.JPG,AFNE01.JPG,AFNE01.JPG,AFNE01.JPG,3,6,36,4,,,,,,,,,,,,,,,,,,,,,,,AFNE16.jpg,AFSA18.jpg,AFNE02.jpg,AFSA04.jpg,AFNE02.jpg,FN,3,num_2,32,num_6,1.083461656,,,2017_Jun_06_1452,60.0071405269,FEMA4ImagesEEG,001,100620,
AFNE01.JPG,AFNE01.JPG,AFNE01.JPG,AFNE01.JPG,AFNE01.JPG,AFNE01.JPG,3,7,37,6,,,,,,,,,,,,,,,,,,,,,,,AFSA16.jpg,AFSA10.jpg,AFNE12.jpg,AFNE03.jpg,AFNE12.jpg,FN,3,num_2,32,num_8,1.21670856047,,,2017_Jun_06_1452,60.0071405269,FEMA4ImagesEEG,001,100620,
AFNE01.JPG,AFNE01.JPG,AFNE01.JPG,AFNE01.JPG,AFNE01.JPG,AFNE01.JPG,3,8,38,5,,,,,,,,,,,,,,,,,,,,,,,AFSA20.jpg,AFNE01.jpg,AFSA17.jpg,AFNE07.jpg,AFSA20.jpg,FS,4,num_8,32,num_4,2.21666590218,,,2017_Jun_06_1452,60.0071405269,FEMA4ImagesEEG,001,100620,
AFNE01.JPG,AFNE01.JPG,AFNE01.JPG,AFNE01.JPG,AFNE01.JPG,AFNE01.JPG,3,9,39,9,,,,,,,,,,,,,,,,,,,,,,,AFNE01.jpg,AFSA10.jpg,AFNE15.jpg,AFSA03.jpg,AFNE15.jpg,FN,3,num_2,16,num_2,1.41664948035,,,2017_Jun_06_1452,60.0071405269,FEMA4ImagesEEG,001,100620,
AFNE01.JPG,AFNE01.JPG,AFNE01.JPG,AFNE01.JPG,AFNE01.JPG,AFNE01.JPG,4,0,40,3,,,,,,,,,,,,,,,,,,,,,,,AFNE17.jpg,AFSA05.jpg,AFNE10.jpg,AFSA11.jpg,AFNE17.jpg,FN,3,num_8,16,num_8,1.25007096352,,,2017_Jun_06_1452,60.0071405269,FEMA4ImagesEEG,001,100620,
AFNE01.JPG,AFNE01.JPG,AFNE01.JPG,AFNE01.JPG,AFNE01.JPG,AFNE01.JPG,4,1,41,8,,,,,,,,,,,,,,,,,,,,,,,AFNE16.jpg,AFNE02.jpg,AFSA14.jpg,AFSA04.jpg,AFNE02.jpg,FN,3,num_6,32,num_8,1.88334015966,,,2017_Jun_06_1452,60.0071405269,FEMA4ImagesEEG,001,100620,
AFNE01.JPG,AFNE01.JPG,AFNE01.JPG,AFNE01.JPG,AFNE01.JPG,AFNE01.JPG,4,2,42,4,,,,,,,,,,,,,,,,,,,,,,,AFSA02.jpg,AFNE01.jpg,AFNE14.jpg,AFSA14.jpg,AFNE01.jpg,FN,3,num_6,32,num_8,0.816779893124,,,2017_Jun_06_1452,60.0071405269,FEMA4ImagesEEG,001,100620,
AFNE01.JPG,AFNE01.JPG,AFNE01.JPG,AFNE01.JPG,AFNE01.JPG,AFNE01.JPG,4,3,43,1,,,,,,,,,,,,,,,,,,,,,,,AFSA08.jpg,AFNE15.jpg,AFNE04.jpg,AFSA15.jpg,AFNE04.jpg,FN,3,num_2,16,num_2,0.883428042522,,,2017_Jun_06_1452,60.0071405269,FEMA4ImagesEEG,001,100620,
AFNE01.JPG,AFNE01.JPG,AFNE01.JPG,AFNE01.JPG,AFNE01.JPG,AFNE01.JPG,4,4,44,2,,,,,,,,,,,,,,,,,,,,,,,AFSA12.jpg,AFNE06.jpg,AFNE09.jpg,AFSA06.jpg,AFNE09.jpg,FN,3,num_2,32,num_6,1.91633884376,,,2017_Jun_06_1452,60.0071405269,FEMA4ImagesEEG,001,100620,
AFNE01.JPG,AFNE01.JPG,AFNE01.JPG,AFNE01.JPG,AFNE01.JPG,AFNE01.JPG,4,5,45,7,,,,,,,,,,,,,,,,,,,,,,,AFNE08.jpg,AFSA15.jpg,AFNE10.jpg,AFSA02.jpg,AFNE10.jpg,FN,3,num_2,32,num_4,1.4167485889,,,2017_Jun_06_1452,60.0071405269,FEMA4ImagesEEG,001,100620,
AFNE01.JPG,AFNE01.JPG,AFNE01.JPG,AFNE01.JPG,AFNE01.JPG,AFNE01.JPG,4,6,46,0,,,,,,,,,,,,,,,,,,,,,,,AFNE17.jpg,AFSA18.jpg,AFNE04.jpg,AFSA03.jpg,AFSA18.jpg,FS,4,num_6,16,num_6,1.23341526091,,,2017_Jun_06_1452,60.0071405269,FEMA4ImagesEEG,001,100620,
AFNE01.JPG,AFNE01.JPG,AFNE01.JPG,AFNE01.JPG,AFNE01.JPG,AFNE01.JPG,4,7,47,9,,,,,,,,,,,,,,,,,,,,,,,AFNE16.jpg,AFSA03.jpg,AFSA10.jpg,AFNE14.jpg,AFSA03.jpg,FS,4,num_6,32,num_8,1.01704508089,,,2017_Jun_06_1452,60.0071405269,FEMA4ImagesEEG,001,100620,
AFNE01.JPG,AFNE01.JPG,AFNE01.JPG,AFNE01.JPG,AFNE01.JPG,AFNE01.JPG,4,8,48,6,,,,,,,,,,,,,,,,,,,,,,,AFNE07.jpg,AFSA12.jpg,AFNE09.jpg,AFSA05.jpg,AFNE07.jpg,FN,3,num_8,16,num_8,1.26676579681,,,2017_Jun_06_1452,60.0071405269,FEMA4ImagesEEG,001,100620,
AFNE01.JPG,AFNE01.JPG,AFNE01.JPG,AFNE01.JPG,AFNE01.JPG,AFNE01.JPG,4,9,49,5,,,,,,,,,,,,,,,,,,,,,,,AFNE07.jpg,AFNE14.jpg,AFSA14.jpg,AFSA13.jpg,AFSA14.jpg,FS,4,num_2,32,num_4,0.866688947426,,,2017_Jun_06_1452,60.0071405269,FEMA4ImagesEEG,001,100620,
AFNE01.JPG,AFNE01.JPG,AFNE01.JPG,AFNE01.JPG,AFNE01.JPG,AFNE01.JPG,5,0,50,6,,,,,,,,,,,,,,,,,,,,,,,AFNE06.jpg,AFNE18.jpg,AFSA02.jpg,AFSA17.jpg,AFSA17.jpg,FS,4,num_4,32,num_2,0.866658477113,,,2017_Jun_06_1452,60.0071405269,FEMA4ImagesEEG,001,100620,
AFNE01.JPG,AFNE01.JPG,AFNE01.JPG,AFNE01.JPG,AFNE01.JPG,AFNE01.JPG,5,1,51,8,,,,,,,,,,,,,,,,,,,,,,,AFSA12.jpg,AFNE09.jpg,AFNE16.jpg,AFSA09.jpg,AFNE16.jpg,FN,3,num_2,16,num_2,1.1501197482,,,2017_Jun_06_1452,60.0071405269,FEMA4ImagesEEG,001,100620,
AFNE01.JPG,AFNE01.JPG,AFNE01.JPG,AFNE01.JPG,AFNE01.JPG,AFNE01.JPG,5,2,52,4,,,,,,,,,,,,,,,,,,,,,,,AFSA06.jpg,AFNE07.jpg,AFSA19.jpg,AFNE08.jpg,AFNE08.jpg,FN,3,num_4,32,num_6,1.65005094954,,,2017_Jun_06_1452,60.0071405269,FEMA4ImagesEEG,001,100620,
AFNE01.JPG,AFNE01.JPG,AFNE01.JPG,AFNE01.JPG,AFNE01.JPG,AFNE01.JPG,5,3,53,5,,,,,,,,,,,,,,,,,,,,,,,AFNE19.jpg,AFSA18.jpg,AFSA10.jpg,AFNE08.jpg,AFSA18.jpg,FS,4,num_6,32,num_8,1.2834176505,,,2017_Jun_06_1452,60.0071405269,FEMA4ImagesEEG,001,100620,
AFNE01.JPG,AFNE01.JPG,AFNE01.JPG,AFNE01.JPG,AFNE01.JPG,AFNE01.JPG,5,4,54,3,,,,,,,,,,,,,,,,,,,,,,,AFNE17.jpg,AFNE16.jpg,AFSA03.jpg,AFSA19.jpg,AFSA19.jpg,FS,4,num_4,32,num_2,0.950115642743,,,2017_Jun_06_1452,60.0071405269,FEMA4ImagesEEG,001,100620,
AFNE01.JPG,AFNE01.JPG,AFNE01.JPG,AFNE01.JPG,AFNE01.JPG,AFNE01.JPG,5,5,55,2,,,,,,,,,,,,,,,,,,,,,,,AFNE16.jpg,AFNE18.jpg,AFSA03.jpg,AFSA04.jpg,AFNE16.jpg,FN,3,num_8,32,num_4,1.0167647542,,,2017_Jun_06_1452,60.0071405269,FEMA4ImagesEEG,001,100620,
AFNE01.JPG,AFNE01.JPG,AFNE01.JPG,AFNE01.JPG,AFNE01.JPG,AFNE01.JPG,5,6,56,7,,,,,,,,,,,,,,,,,,,,,,,AFSA07.jpg,AFNE17.jpg,AFSA11.jpg,AFNE08.jpg,AFSA11.jpg,FS,4,num_2,16,num_2,1.1334217079,,,2017_Jun_06_1452,60.0071405269,FEMA4ImagesEEG,001,100620,
AFNE01.JPG,AFNE01.JPG,AFNE01.JPG,AFNE01.JPG,AFNE01.JPG,AFNE01.JPG,5,7,57,0,,,,,,,,,,,,,,,,,,,,,,,AFSA08.jpg,AFNE18.jpg,AFSA12.jpg,AFNE19.jpg,AFNE19.jpg,FN,3,num_4,32,num_6,1.43372695614,,,2017_Jun_06_1452,60.0071405269,FEMA4ImagesEEG,001,100620,
AFNE01.JPG,AFNE01.JPG,AFNE01.JPG,AFNE01.JPG,AFNE01.JPG,AFNE01.JPG,5,8,58,1,,,,,,,,,,,,,,,,,,,,,,,AFNE16.jpg,AFSA10.jpg,AFSA15.jpg,AFNE11.jpg,AFNE11.jpg,FN,3,num_4,32,num_8,1.15008318378,,,2017_Jun_06_1452,60.0071405269,FEMA4ImagesEEG,001,100620,
AFNE01.JPG,AFNE01.JPG,AFNE01.JPG,AFNE01.JPG,AFNE01.JPG,AFNE01.JPG,5,9,59,9,,,,,,,,,,,,,,,,,,,,,,,AFSA02.jpg,AFNE09.jpg,AFSA03.jpg,AFNE17.jpg,AFNE17.jpg,FN,3,num_4,32,num_8,1.06676521921,,,2017_Jun_06_1452,60.0071405269,FEMA4ImagesEEG,001,100620,
,,,,,,,,,,,,,,,,,,,,,,,,,,,,,,,,,,,,,,,,,,,space,13.31579442,2017_Jun_06_1452,60.0071405269,FEMA4ImagesEEG,001,100620,
AFNE01.JPG,AFNE01.JPG,AFNE01.JPG,AFNE01.JPG,AFNE01.JPG,AFNE01.JPG,,,,,0,0,0,3,,,,,,,,,,,,,,,,,,,AMNE10.jpg,AMNE14.jpg,AMSA01.jpg,AMSA17.jpg,AMSA01.jpg,MS,2,num_2,16,num_2,0.933435243089,,,2017_Jun_06_1452,60.0071405269,FEMA4ImagesEEG,001,100620,
AFNE01.JPG,AFNE01.JPG,AFNE01.JPG,AFNE01.JPG,AFNE01.JPG,AFNE01.JPG,,,,,0,1,1,8,,,,,,,,,,,,,,,,,,,AMSA16.jpg,AMNE02.jpg,AMNE05.jpg,AMSA03.jpg,AMSA03.jpg,MS,2,num_4,32,num_2,1.566677497,,,2017_Jun_06_1452,60.0071405269,FEMA4ImagesEEG,001,100620,
AFNE01.JPG,AFNE01.JPG,AFNE01.JPG,AFNE01.JPG,AFNE01.JPG,AFNE01.JPG,,,,,0,2,2,7,,,,,,,,,,,,,,,,,,,AMNE05.jpg,AMNE18.jpg,AMSA07.jpg,AMSA18.jpg,AMNE05.jpg,MN,1,num_8,16,num_8,1.25013735681,,,2017_Jun_06_1452,60.0071405269,FEMA4ImagesEEG,001,100620,
AFNE01.JPG,AFNE01.JPG,AFNE01.JPG,AFNE01.JPG,AFNE01.JPG,AFNE01.JPG,,,,,0,3,3,4,,,,,,,,,,,,,,,,,,,AMSA09.jpg,AMSA17.jpg,AMNE13.jpg,AMNE18.jpg,AMSA17.jpg,MS,2,num_6,16,num_6,1.00009044865,,,2017_Jun_06_1452,60.0071405269,FEMA4ImagesEEG,001,100620,
AFNE01.JPG,AFNE01.JPG,AFNE01.JPG,AFNE01.JPG,AFNE01.JPG,AFNE01.JPG,,,,,0,4,4,2,,,,,,,,,,,,,,,,,,,AMSA06.jpg,AMNE08.jpg,AMNE17.jpg,AMSA09.jpg,AMNE08.jpg,MN,1,num_6,16,num_6,1.16677801684,,,2017_Jun_06_1452,60.0071405269,FEMA4ImagesEEG,001,100620,
AFNE01.JPG,AFNE01.JPG,AFNE01.JPG,AFNE01.JPG,AFNE01.JPG,AFNE01.JPG,,,,,0,5,5,0,,,,,,,,,,,,,,,,,,,AMSA02.jpg,AMSA04.jpg,AMNE09.jpg,AMNE05.jpg,AMSA02.jpg,MS,2,num_8,32,num_2,0.850152560044,,,2017_Jun_06_1452,60.0071405269,FEMA4ImagesEEG,001,100620,
AFNE01.JPG,AFNE01.JPG,AFNE01.JPG,AFNE01.JPG,AFNE01.JPG,AFNE01.JPG,,,,,0,6,6,9,,,,,,,,,,,,,,,,,,,AMNE10.jpg,AMSA07.jpg,AMSA03.jpg,AMNE06.jpg,AMNE10.jpg,MN,1,num_8,16,num_8,4.66649849224,,,2017_Jun_06_1452,60.0071405269,FEMA4ImagesEEG,001,100620,
AFNE01.JPG,AFNE01.JPG,AFNE01.JPG,AFNE01.JPG,AFNE01.JPG,AFNE01.JPG,,,,,0,7,7,6,,,,,,,,,,,,,,,,,,,AMSA09.jpg,AMSA18.jpg,AMNE15.jpg,AMNE05.jpg,AMSA18.jpg,MS,2,num_6,32,num_2,1.28341476386,,,2017_Jun_06_1452,60.0071405269,FEMA4ImagesEEG,001,100620,
AFNE01.JPG,AFNE01.JPG,AFNE01.JPG,AFNE01.JPG,AFNE01.JPG,AFNE01.JPG,,,,,0,8,8,5,,,,,,,,,,,,,,,,,,,AMNE14.jpg,AMSA08.jpg,AMSA13.jpg,AMNE05.jpg,AMNE05.jpg,MN,1,num_4,32,num_2,1.95005374006,,,2017_Jun_06_1452,60.0071405269,FEMA4ImagesEEG,001,100620,
AFNE01.JPG,AFNE01.JPG,AFNE01.JPG,AFNE01.JPG,AFNE01.JPG,AFNE01.JPG,,,,,0,9,9,1,,,,,,,,,,,,,,,,,,,AMSA11.jpg,AMNE11.jpg,AMSA13.jpg,AMNE03.jpg,AMNE11.jpg,MN,1,num_6,32,num_4,1.36680136668,,,2017_Jun_06_1452,60.0071405269,FEMA4ImagesEEG,001,100620,
AFNE01.JPG,AFNE01.JPG,AFNE01.JPG,AFNE01.JPG,AFNE01.JPG,AFNE01.JPG,,,,,1,0,10,3,,,,,,,,,,,,,,,,,,,AMNE12.jpg,AMNE18.jpg,AMSA11.jpg,AMSA03.jpg,AMSA11.jpg,MS,2,num_2,32,num_4,0.900199532276,,,2017_Jun_06_1452,60.0071405269,FEMA4ImagesEEG,001,100620,
AFNE01.JPG,AFNE01.JPG,AFNE01.JPG,AFNE01.JPG,AFNE01.JPG,AFNE01.JPG,,,,,1,1,11,1,,,,,,,,,,,,,,,,,,,AMSA07.jpg,AMNE16.jpg,AMSA05.jpg,AMNE13.jpg,AMNE16.jpg,MN,1,num_6,16,num_6,1.35008664778,,,2017_Jun_06_1452,60.0071405269,FEMA4ImagesEEG,001,100620,
AFNE01.JPG,AFNE01.JPG,AFNE01.JPG,AFNE01.JPG,AFNE01.JPG,AFNE01.JPG,,,,,1,2,12,9,,,,,,,,,,,,,,,,,,,AMNE19.jpg,AMNE04.jpg,AMSA09.jpg,AMSA02.jpg,AMSA02.jpg,MS,2,num_4,32,num_2,1.16670392593,,,2017_Jun_06_1452,60.0071405269,FEMA4ImagesEEG,001,100620,
AFNE01.JPG,AFNE01.JPG,AFNE01.JPG,AFNE01.JPG,AFNE01.JPG,AFNE01.JPG,,,,,1,3,13,0,,,,,,,,,,,,,,,,,,,AMSA20.jpg,AMNE06.jpg,AMSA18.jpg,AMNE08.jpg,AMNE08.jpg,MN,1,num_4,32,num_8,2.31674573454,,,2017_Jun_06_1452,60.0071405269,FEMA4ImagesEEG,001,100620,
AFNE01.JPG,AFNE01.JPG,AFNE01.JPG,AFNE01.JPG,AFNE01.JPG,AFNE01.JPG,,,,,1,4,14,4,,,,,,,,,,,,,,,,,,,AMNE18.jpg,AMSA04.jpg,AMNE02.jpg,AMSA20.jpg,AMNE18.jpg,MN,1,num_8,16,num_8,0.700128071476,,,2017_Jun_06_1452,60.0071405269,FEMA4ImagesEEG,001,100620,
AFNE01.JPG,AFNE01.JPG,AFNE01.JPG,AFNE01.JPG,AFNE01.JPG,AFNE01.JPG,,,,,1,5,15,5,,,,,,,,,,,,,,,,,,,AMSA13.jpg,AMNE16.jpg,AMSA01.jpg,AMNE08.jpg,AMNE16.jpg,MN,1,num_6,32,num_8,3.26661825622,,,2017_Jun_06_1452,60.0071405269,FEMA4ImagesEEG,001,100620,
AFNE01.JPG,AFNE01.JPG,AFNE01.JPG,AFNE01.JPG,AFNE01.JPG,AFNE01.JPG,,,,,1,6,16,6,,,,,,,,,,,,,,,,,,,AMSA15.jpg,AMNE17.jpg,AMNE19.jpg,AMSA14.jpg,AMNE17.jpg,MN,1,num_6,32,num_2,2.48334734445,,,2017_Jun_06_1452,60.0071405269,FEMA4ImagesEEG,001,100620,
AFNE01.JPG,AFNE01.JPG,AFNE01.JPG,AFNE01.JPG,AFNE01.JPG,AFNE01.JPG,,,,,1,7,17,8,,,,,,,,,,,,,,,,,,,AMNE15.jpg,AMSA05.jpg,AMSA19.jpg,AMNE09.jpg,AMSA05.jpg,MS,2,num_6,32,num_2,0.966781929834,,,2017_Jun_06_1452,60.0071405269,FEMA4ImagesEEG,001,100620,
AFNE01.JPG,AFNE01.JPG,AFNE01.JPG,AFNE01.JPG,AFNE01.JPG,AFNE01.JPG,,,,,1,8,18,2,,,,,,,,,,,,,,,,,,,AMNE08.jpg,AMSA01.jpg,AMNE03.jpg,AMSA15.jpg,AMSA01.jpg,MS,2,num_6,16,num_6,0.766772051109,,,2017_Jun_06_1452,60.0071405269,FEMA4ImagesEEG,001,100620,
AFNE01.JPG,AFNE01.JPG,AFNE01.JPG,AFNE01.JPG,AFNE01.JPG,AFNE01.JPG,,,,,1,9,19,7,,,,,,,,,,,,,,,,,,,AMNE11.jpg,AMNE16.jpg,AMSA10.jpg,AMSA20.jpg,AMSA20.jpg,MS,2,num_4,16,num_4,0.933476939099,,,2017_Jun_06_1452,60.0071405269,FEMA4ImagesEEG,001,100620,
AFNE01.JPG,AFNE01.JPG,AFNE01.JPG,AFNE01.JPG,AFNE01.JPG,AFNE01.JPG,,,,,2,0,20,1,,,,,,,,,,,,,,,,,,,AMNE02.jpg,AMSA12.jpg,AMNE17.jpg,AMSA10.jpg,AMSA12.jpg,MS,2,num_6,32,num_4,1.55008337647,,,2017_Jun_06_1452,60.0071405269,FEMA4ImagesEEG,001,100620,
AFNE01.JPG,AFNE01.JPG,AFNE01.JPG,AFNE01.JPG,AFNE01.JPG,AFNE01.JPG,,,,,2,1,21,8,,,,,,,,,,,,,,,,,,,AMSA02.jpg,AMNE09.jpg,AMSA20.jpg,AMNE05.jpg,AMNE09.jpg,MN,1,num_6,16,num_6,0.950089021353,,,2017_Jun_06_1452,60.0071405269,FEMA4ImagesEEG,001,100620,
AFNE01.JPG,AFNE01.JPG,AFNE01.JPG,AFNE01.JPG,AFNE01.JPG,AFNE01.JPG,,,,,2,2,22,4,,,,,,,,,,,,,,,,,,,AMSA06.jpg,AMNE06.jpg,AMSA02.jpg,AMNE08.jpg,AMSA02.jpg,MS,2,num_2,16,num_2,1.23341269512,,,2017_Jun_06_1452,60.0071405269,FEMA4ImagesEEG,001,100620,
AFNE01.JPG,AFNE01.JPG,AFNE01.JPG,AFNE01.JPG,AFNE01.JPG,AFNE01.JPG,,,,,2,3,23,5,,,,,,,,,,,,,,,,,,,AMNE03.jpg,AMSA11.jpg,AMNE17.jpg,AMSA12.jpg,AMSA11.jpg,MS,2,num_6,32,num_4,1.51682457211,,,2017_Jun_06_1452,60.0071405269,FEMA4ImagesEEG,001,100620,
AFNE01.JPG,AFNE01.JPG,AFNE01.JPG,AFNE01.JPG,AFNE01.JPG,AFNE01.JPG,,,,,2,4,24,0,,,,,,,,,,,,,,,,,,,AMNE10.jpg,AMSA16.jpg,AMNE15.jpg,AMSA13.jpg,AMSA16.jpg,MS,2,num_6,16,num_6,0.733557509026,,,2017_Jun_06_1452,60.0071405269,FEMA4ImagesEEG,001,100620,
AFNE01.JPG,AFNE01.JPG,AFNE01.JPG,AFNE01.JPG,AFNE01.JPG,AFNE01.JPG,,,,,2,5,25,3,,,,,,,,,,,,,,,,,,,AMNE11.jpg,AMNE20.jpg,AMSA01.jpg,AMSA19.jpg,AMSA19.jpg,MS,2,num_4,32,num_8,1.05013068533,,,2017_Jun_06_1452,60.0071405269,FEMA4ImagesEEG,001,100620,
AFNE01.JPG,AFNE01.JPG,AFNE01.JPG,AFNE01.JPG,AFNE01.JPG,AFNE01.JPG,,,,,2,6,26,6,,,,,,,,,,,,,,,,,,,AMSA05.jpg,AMSA14.jpg,AMNE05.jpg,AMNE17.jpg,AMSA05.jpg,MS,2,num_8,32,num_2,1.500101835,,,2017_Jun_06_1452,60.0071405269,FEMA4ImagesEEG,001,100620,
AFNE01.JPG,AFNE01.JPG,AFNE01.JPG,AFNE01.JPG,AFNE01.JPG,AFNE01.JPG,,,,,2,7,27,7,,,,,,,,,,,,,,,,,,,AMNE05.jpg,AMNE13.jpg,AMSA01.jpg,AMSA04.jpg,AMSA04.jpg,MS,2,num_4,16,num_4,0.833435275126,,,2017_Jun_06_1452,60.0071405269,FEMA4ImagesEEG,001,100620,
AFNE01.JPG,AFNE01.JPG,AFNE01.JPG,AFNE01.JPG,AFNE01.JPG,AFNE01.JPG,,,,,2,8,28,2,,,,,,,,,,,,,,,,,,,AMSA02.jpg,AMSA17.jpg,AMNE07.jpg,AMNE08.jpg,AMNE08.jpg,MN,1,num_4,32,num_8,1.09995281929,,,2017_Jun_06_1452,60.0071405269,FEMA4ImagesEEG,001,100620,
AFNE01.JPG,AFNE01.JPG,AFNE01.JPG,AFNE01.JPG,AFNE01.JPG,AFNE01.JPG,,,,,2,9,29,9,,,,,,,,,,,,,,,,,,,AMSA10.jpg,AMSA06.jpg,AMNE20.jpg,AMNE10.jpg,AMNE20.jpg,MN,1,num_2,32,num_4,2.20002463274,,,2017_Jun_06_1452,60.0071405269,FEMA4ImagesEEG,001,100620,
AFNE01.JPG,AFNE01.JPG,AFNE01.JPG,AFNE01.JPG,AFNE01.JPG,AFNE01.JPG,,,,,3,0,30,7,,,,,,,,,,,,,,,,,,,AMSA11.jpg,AMNE14.jpg,AMSA19.jpg,AMNE05.jpg,AMSA19.jpg,MS,2,num_2,32,num_8,0.800147925271,,,2017_Jun_06_1452,60.0071405269,FEMA4ImagesEEG,001,100620,
AFNE01.JPG,AFNE01.JPG,AFNE01.JPG,AFNE01.JPG,AFNE01.JPG,AFNE01.JPG,,,,,3,1,31,5,,,,,,,,,,,,,,,,,,,AMSA05.jpg,AMSA15.jpg,AMNE19.jpg,AMNE10.jpg,AMSA05.jpg,MS,2,num_8,32,num_6,0.833440086106,,,2017_Jun_06_1452,60.0071405269,FEMA4ImagesEEG,001,100620,
AFNE01.JPG,AFNE01.JPG,AFNE01.JPG,AFNE01.JPG,AFNE01.JPG,AFNE01.JPG,,,,,3,2,32,2,,,,,,,,,,,,,,,,,,,AMSA20.jpg,AMNE03.jpg,AMSA08.jpg,AMNE20.jpg,AMNE03.jpg,MN,1,num_6,32,num_2,1.28328710934,,,2017_Jun_06_1452,60.0071405269,FEMA4ImagesEEG,001,100620,
AFNE01.JPG,AFNE01.JPG,AFNE01.JPG,AFNE01.JPG,AFNE01.JPG,AFNE01.JPG,,,,,3,3,33,9,,,,,,,,,,,,,,,,,,,AMNE05.jpg,AMSA20.jpg,AMSA15.jpg,AMNE14.jpg,AMSA20.jpg,MS,2,num_6,16,num_6,1.80005523143,,,2017_Jun_06_1452,60.0071405269,FEMA4ImagesEEG,001,100620,
AFNE01.JPG,AFNE01.JPG,AFNE01.JPG,AFNE01.JPG,AFNE01.JPG,AFNE01.JPG,,,,,3,4,34,4,,,,,,,,,,,,,,,,,,,AMNE15.jpg,AMNE06.jpg,AMSA01.jpg,AMSA09.jpg,AMSA09.jpg,MS,2,num_4,16,num_4,1.08345941082,,,2017_Jun_06_1452,60.0071405269,FEMA4ImagesEEG,001,100620,
AFNE01.JPG,AFNE01.JPG,AFNE01.JPG,AFNE01.JPG,AFNE01.JPG,AFNE01.JPG,,,,,3,5,35,8,,,,,,,,,,,,,,,,,,,AMNE01.jpg,AMSA13.jpg,AMSA11.jpg,AMNE17.jpg,AMSA13.jpg,MS,2,num_6,32,num_4,1.01680516754,,,2017_Jun_06_1452,60.0071405269,FEMA4ImagesEEG,001,100620,
AFNE01.JPG,AFNE01.JPG,AFNE01.JPG,AFNE01.JPG,AFNE01.JPG,AFNE01.JPG,,,,,3,6,36,1,,,,,,,,,,,,,,,,,,,AMSA20.jpg,AMNE14.jpg,AMNE15.jpg,AMSA15.jpg,AMSA15.jpg,MS,2,num_4,16,num_4,0.733478607144,,,2017_Jun_06_1452,60.0071405269,FEMA4ImagesEEG,001,100620,
AFNE01.JPG,AFNE01.JPG,AFNE01.JPG,AFNE01.JPG,AFNE01.JPG,AFNE01.JPG,,,,,3,7,37,3,,,,,,,,,,,,,,,,,,,AMNE03.jpg,AMNE13.jpg,AMSA17.jpg,AMSA01.jpg,AMNE03.jpg,MN,1,num_8,16,num_8,0.916752277408,,,2017_Jun_06_1452,60.0071405269,FEMA4ImagesEEG,001,100620,
AFNE01.JPG,AFNE01.JPG,AFNE01.JPG,AFNE01.JPG,AFNE01.JPG,AFNE01.JPG,,,,,3,8,38,6,,,,,,,,,,,,,,,,,,,AMNE10.jpg,AMNE17.jpg,AMSA15.jpg,AMSA05.jpg,AMNE10.jpg,MN,1,num_8,16,num_8,1.76668096101,,,2017_Jun_06_1452,60.0071405269,FEMA4ImagesEEG,001,100620,
AFNE01.JPG,AFNE01.JPG,AFNE01.JPG,AFNE01.JPG,AFNE01.JPG,AFNE01.JPG,,,,,3,9,39,0,,,,,,,,,,,,,,,,,,,AMNE01.jpg,AMSA14.jpg,AMNE13.jpg,AMSA11.jpg,AMSA14.jpg,MS,2,num_6,32,num_8,1.46672082902,,,2017_Jun_06_1452,60.0071405269,FEMA4ImagesEEG,001,100620,
AFNE01.JPG,AFNE01.JPG,AFNE01.JPG,AFNE01.JPG,AFNE01.JPG,AFNE01.JPG,,,,,4,0,40,0,,,,,,,,,,,,,,,,,,,AMSA06.jpg,AMNE02.jpg,AMNE13.jpg,AMSA01.jpg,AMSA01.jpg,MS,2,num_4,16,num_4,0.85011182609,,,2017_Jun_06_1452,60.0071405269,FEMA4ImagesEEG,001,100620,
AFNE01.JPG,AFNE01.JPG,AFNE01.JPG,AFNE01.JPG,AFNE01.JPG,AFNE01.JPG,,,,,4,1,41,4,,,,,,,,,,,,,,,,,,,AMSA10.jpg,AMNE20.jpg,AMSA05.jpg,AMNE07.jpg,AMNE07.jpg,MN,1,num_4,32,num_8,0.850141654722,,,2017_Jun_06_1452,60.0071405269,FEMA4ImagesEEG,001,100620,
AFNE01.JPG,AFNE01.JPG,AFNE01.JPG,AFNE01.JPG,AFNE01.JPG,AFNE01.JPG,,,,,4,2,42,7,,,,,,,,,,,,,,,,,,,AMNE04.jpg,AMNE03.jpg,AMSA20.jpg,AMSA12.jpg,AMSA20.jpg,MS,2,num_2,32,num_8,1.01673524617,,,2017_Jun_06_1452,60.0071405269,FEMA4ImagesEEG,001,100620,
AFNE01.JPG,AFNE01.JPG,AFNE01.JPG,AFNE01.JPG,AFNE01.JPG,AFNE01.JPG,,,,,4,3,43,2,,,,,,,,,,,,,,,,,,,AMSA03.jpg,AMNE20.jpg,AMNE13.jpg,AMSA16.jpg,AMSA03.jpg,MS,2,num_8,32,num_4,0.850079751806,,,2017_Jun_06_1452,60.0071405269,FEMA4ImagesEEG,001,100620,
AFNE01.JPG,AFNE01.JPG,AFNE01.JPG,AFNE01.JPG,AFNE01.JPG,AFNE01.JPG,,,,,4,4,44,1,,,,,,,,,,,,,,,,,,,AMSA13.jpg,AMNE17.jpg,AMSA05.jpg,AMNE06.jpg,AMSA05.jpg,MS,2,num_2,32,num_4,1.28345806361,,,2017_Jun_06_1452,60.0071405269,FEMA4ImagesEEG,001,100620,
AFNE01.JPG,AFNE01.JPG,AFNE01.JPG,AFNE01.JPG,AFNE01.JPG,AFNE01.JPG,,,,,4,5,45,5,,,,,,,,,,,,,,,,,,,AMSA09.jpg,AMNE20.jpg,AMNE06.jpg,AMSA02.jpg,AMSA09.jpg,MS,2,num_8,16,num_8,0.766768843867,,,2017_Jun_06_1452,60.0071405269,FEMA4ImagesEEG,001,100620,
AFNE01.JPG,AFNE01.JPG,AFNE01.JPG,AFNE01.JPG,AFNE01.JPG,AFNE01.JPG,,,,,4,6,46,9,,,,,,,,,,,,,,,,,,,AMSA12.jpg,AMNE06.jpg,AMNE16.jpg,AMSA04.jpg,AMSA12.jpg,MS,2,num_8,16,num_8,2.25011586747,,,2017_Jun_06_1452,60.0071405269,FEMA4ImagesEEG,001,100620,
AFNE01.JPG,AFNE01.JPG,AFNE01.JPG,AFNE01.JPG,AFNE01.JPG,AFNE01.JPG,,,,,4,7,47,6,,,,,,,,,,,,,,,,,,,AMNE08.jpg,AMNE12.jpg,AMSA02.jpg,AMSA12.jpg,AMSA12.jpg,MS,2,num_4,32,num_8,0.950168244075,,,2017_Jun_06_1452,60.0071405269,FEMA4ImagesEEG,001,100620,
AFNE01.JPG,AFNE01.JPG,AFNE01.JPG,AFNE01.JPG,AFNE01.JPG,AFNE01.JPG,,,,,4,8,48,8,,,,,,,,,,,,,,,,,,,AMSA20.jpg,AMNE16.jpg,AMSA09.jpg,AMNE02.jpg,AMNE02.jpg,MN,1,num_4,32,num_2,0.983446292579,,,2017_Jun_06_1452,60.0071405269,FEMA4ImagesEEG,001,100620,
AFNE01.JPG,AFNE01.JPG,AFNE01.JPG,AFNE01.JPG,AFNE01.JPG,AFNE01.JPG,,,,,4,9,49,3,,,,,,,,,,,,,,,,,,,AMNE15.jpg,AMSA18.jpg,AMNE08.jpg,AMSA04.jpg,AMNE15.jpg,MN,1,num_8,16,num_8,0.91675067367,,,2017_Jun_06_1452,60.0071405269,FEMA4ImagesEEG,001,100620,
AFNE01.JPG,AFNE01.JPG,AFNE01.JPG,AFNE01.JPG,AFNE01.JPG,AFNE01.JPG,,,,,5,0,50,8,,,,,,,,,,,,,,,,,,,AMSA13.jpg,AMNE12.jpg,AMSA12.jpg,AMNE14.jpg,AMSA13.jpg,MS,2,num_8,32,num_6,1.31703728717,,,2017_Jun_06_1452,60.0071405269,FEMA4ImagesEEG,001,100620,
AFNE01.JPG,AFNE01.JPG,AFNE01.JPG,AFNE01.JPG,AFNE01.JPG,AFNE01.JPG,,,,,5,1,51,6,,,,,,,,,,,,,,,,,,,AMNE02.jpg,AMSA04.jpg,AMNE08.jpg,AMSA02.jpg,AMNE02.jpg,MN,1,num_8,32,num_2,1.10014205566,,,2017_Jun_06_1452,60.0071405269,FEMA4ImagesEEG,001,100620,
AFNE01.JPG,AFNE01.JPG,AFNE01.JPG,AFNE01.JPG,AFNE01.JPG,AFNE01.JPG,,,,,5,2,52,1,,,,,,,,,,,,,,,,,,,AMNE16.jpg,AMSA06.jpg,AMSA08.jpg,AMNE18.jpg,AMSA08.jpg,MS,2,num_2,32,num_8,1.43339915969,,,2017_Jun_06_1452,60.0071405269,FEMA4ImagesEEG,001,100620,
AFNE01.JPG,AFNE01.JPG,AFNE01.JPG,AFNE01.JPG,AFNE01.JPG,AFNE01.JPG,,,,,5,3,53,9,,,,,,,,,,,,,,,,,,,AMSA05.jpg,AMNE01.jpg,AMNE02.jpg,AMSA06.jpg,AMSA06.jpg,MS,2,num_4,32,num_8,2.2000371418,,,2017_Jun_06_1452,60.0071405269,FEMA4ImagesEEG,001,100620,
AFNE01.JPG,AFNE01.JPG,AFNE01.JPG,AFNE01.JPG,AFNE01.JPG,AFNE01.JPG,,,,,5,4,54,5,,,,,,,,,,,,,,,,,,,AMSA20.jpg,AMNE09.jpg,AMSA02.jpg,AMNE16.jpg,AMSA20.jpg,MS,2,num_8,32,num_2,1.36676159501,,,2017_Jun_06_1452,60.0071405269,FEMA4ImagesEEG,001,100620,
AFNE01.JPG,AFNE01.JPG,AFNE01.JPG,AFNE01.JPG,AFNE01.JPG,AFNE01.JPG,,,,,5,5,55,0,,,,,,,,,,,,,,,,,,,AMNE03.jpg,AMSA18.jpg,AMSA11.jpg,AMNE05.jpg,AMNE03.jpg,MN,1,num_8,16,num_8,1.46676348755,,,2017_Jun_06_1452,60.0071405269,FEMA4ImagesEEG,001,100620,
AFNE01.JPG,AFNE01.JPG,AFNE01.JPG,AFNE01.JPG,AFNE01.JPG,AFNE01.JPG,,,,,5,6,56,2,,,,,,,,,,,,,,,,,,,AMNE12.jpg,AMSA12.jpg,AMNE18.jpg,AMSA14.jpg,AMSA14.jpg,MS,2,num_4,16,num_4,1.33353069518,,,2017_Jun_06_1452,60.0071405269,FEMA4ImagesEEG,001,100620,
AFNE01.JPG,AFNE01.JPG,AFNE01.JPG,AFNE01.JPG,AFNE01.JPG,AFNE01.JPG,,,,,5,7,57,4,,,,,,,,,,,,,,,,,,,AMSA01.jpg,AMSA11.jpg,AMNE03.jpg,AMNE15.jpg,AMSA11.jpg,MS,2,num_6,32,num_8,1.25009341538,,,2017_Jun_06_1452,60.0071405269,FEMA4ImagesEEG,001,100620,
AFNE01.JPG,AFNE01.JPG,AFNE01.JPG,AFNE01.JPG,AFNE01.JPG,AFNE01.JPG,,,,,5,8,58,7,,,,,,,,,,,,,,,,,,,AMSA03.jpg,AMSA20.jpg,AMNE14.jpg,AMNE06.jpg,AMSA20.jpg,MS,2,num_6,16,num_6,1.11682021036,,,2017_Jun_06_1452,60.0071405269,FEMA4ImagesEEG,001,100620,
AFNE01.JPG,AFNE01.JPG,AFNE01.JPG,AFNE01.JPG,AFNE01.JPG,AFNE01.JPG,,,,,5,9,59,3,,,,,,,,,,,,,,,,,,,AMSA17.jpg,AMSA10.jpg,AMNE19.jpg,AMNE06.jpg,AMNE19.jpg,MN,1,num_2,32,num_8,1.26671255403,,,2017_Jun_06_1452,60.0071405269,FEMA4ImagesEEG,001,100620,
,,,,,,,,,,,,,,,,,,,,,,,,,,,,,,,,,,,,,,,,,,,space,12.1659338293,2017_Jun_06_1452,60.0071405269,FEMA4ImagesEEG,001,100620,
AFNE01.JPG,AFNE01.JPG,AFNE01.JPG,AFNE01.JPG,AFNE01.JPG,AFNE01.JPG,,,,,,,,,0,0,0,6,,,,,,,,,,,,,,,AFSA17.jpg,AFSA02.jpg,AFNE08.jpg,AFNE02.jpg,AFNE08.jpg,FN,3,num_2,32,num_8,1.56676826649,,,2017_Jun_06_1452,60.0071405269,FEMA4ImagesEEG,001,100620,
AFNE01.JPG,AFNE01.JPG,AFNE01.JPG,AFNE01.JPG,AFNE01.JPG,AFNE01.JPG,,,,,,,,,0,1,1,8,,,,,,,,,,,,,,,AFNE18.jpg,AFSA13.jpg,AFSA14.jpg,AFNE08.jpg,AFSA14.jpg,FS,4,num_2,32,num_6,0.866766566411,,,2017_Jun_06_1452,60.0071405269,FEMA4ImagesEEG,001,100620,
AFNE01.JPG,AFNE01.JPG,AFNE01.JPG,AFNE01.JPG,AFNE01.JPG,AFNE01.JPG,,,,,,,,,0,2,2,5,,,,,,,,,,,,,,,AFNE13.jpg,AFSA18.jpg,AFNE01.jpg,AFSA09.jpg,AFNE13.jpg,FN,3,num_8,16,num_8,0.683455690276,,,2017_Jun_06_1452,60.0071405269,FEMA4ImagesEEG,001,100620,
AFNE01.JPG,AFNE01.JPG,AFNE01.JPG,AFNE01.JPG,AFNE01.JPG,AFNE01.JPG,,,,,,,,,0,3,3,2,,,,,,,,,,,,,,,AFNE19.jpg,AFSA01.jpg,AFNE11.jpg,AFSA09.jpg,AFSA09.jpg,FS,4,num_4,32,num_8,0.666782346787,,,2017_Jun_06_1452,60.0071405269,FEMA4ImagesEEG,001,100620,
AFNE01.JPG,AFNE01.JPG,AFNE01.JPG,AFNE01.JPG,AFNE01.JPG,AFNE01.JPG,,,,,,,,,0,4,4,1,,,,,,,,,,,,,,,AFNE05.jpg,AFSA16.jpg,AFSA06.jpg,AFNE09.jpg,AFSA06.jpg,FS,4,num_2,32,num_4,1.1167252711,,,2017_Jun_06_1452,60.0071405269,FEMA4ImagesEEG,001,100620,
AFNE01.JPG,AFNE01.JPG,AFNE01.JPG,AFNE01.JPG,AFNE01.JPG,AFNE01.JPG,,,,,,,,,0,5,5,0,,,,,,,,,,,,,,,AFSA14.jpg,AFSA05.jpg,AFNE10.jpg,AFNE04.jpg,AFSA05.jpg,FS,4,num_6,32,num_2,1.35037178569,,,2017_Jun_06_1452,60.0071405269,FEMA4ImagesEEG,001,100620,
AFNE01.JPG,AFNE01.JPG,AFNE01.JPG,AFNE01.JPG,AFNE01.JPG,AFNE01.JPG,,,,,,,,,0,6,6,3,,,,,,,,,,,,,,,AFSA04.jpg,AFNE10.jpg,AFSA12.jpg,AFNE05.jpg,AFNE10.jpg,FN,3,num_6,16,num_6,1.36672727577,,,2017_Jun_06_1452,60.0071405269,FEMA4ImagesEEG,001,100620,
AFNE01.JPG,AFNE01.JPG,AFNE01.JPG,AFNE01.JPG,AFNE01.JPG,AFNE01.JPG,,,,,,,,,0,7,7,9,,,,,,,,,,,,,,,AFSA01.jpg,AFNE09.jpg,AFSA13.jpg,AFNE08.jpg,AFSA13.jpg,FS,4,num_2,32,num_8,0.750161572592,,,2017_Jun_06_1452,60.0071405269,FEMA4ImagesEEG,001,100620,
AFNE01.JPG,AFNE01.JPG,AFNE01.JPG,AFNE01.JPG,AFNE01.JPG,AFNE01.JPG,,,,,,,,,0,8,8,4,,,,,,,,,,,,,,,AFSA11.jpg,AFSA14.jpg,AFNE18.jpg,AFNE11.jpg,AFSA14.jpg,FS,4,num_6,32,num_2,1.31670981157,,,2017_Jun_06_1452,60.0071405269,FEMA4ImagesEEG,001,100620,
AFNE01.JPG,AFNE01.JPG,AFNE01.JPG,AFNE01.JPG,AFNE01.JPG,AFNE01.JPG,,,,,,,,,0,9,9,7,,,,,,,,,,,,,,,AFSA17.jpg,AFNE19.jpg,AFSA10.jpg,AFNE16.jpg,AFSA17.jpg,FS,4,num_8,16,num_8,1.31673579151,,,2017_Jun_06_1452,60.0071405269,FEMA4ImagesEEG,001,100620,
AFNE01.JPG,AFNE01.JPG,AFNE01.JPG,AFNE01.JPG,AFNE01.JPG,AFNE01.JPG,,,,,,,,,1,0,10,5,,,,,,,,,,,,,,,AFNE05.jpg,AFNE10.jpg,AFSA03.jpg,AFSA06.jpg,AFNE05.jpg,FN,3,num_8,32,num_4,1.10014943266,,,2017_Jun_06_1452,60.0071405269,FEMA4ImagesEEG,001,100620,
AFNE01.JPG,AFNE01.JPG,AFNE01.JPG,AFNE01.JPG,AFNE01.JPG,AFNE01.JPG,,,,,,,,,1,1,11,4,,,,,,,,,,,,,,,AFNE01.jpg,AFSA04.jpg,AFSA13.jpg,AFNE11.jpg,AFNE01.jpg,FN,3,num_8,32,num_6,0.733496889472,,,2017_Jun_06_1452,60.0071405269,FEMA4ImagesEEG,001,100620,
AFNE01.JPG,AFNE01.JPG,AFNE01.JPG,AFNE01.JPG,AFNE01.JPG,AFNE01.JPG,,,,,,,,,1,2,12,1,,,,,,,,,,,,,,,AFSA05.jpg,AFNE11.jpg,AFSA15.jpg,AFNE06.jpg,AFSA15.jpg,FS,4,num_2,16,num_2,0.823741552886,,,2017_Jun_06_1452,60.0071405269,FEMA4ImagesEEG,001,100620,
AFNE01.JPG,AFNE01.JPG,AFNE01.JPG,AFNE01.JPG,AFNE01.JPG,AFNE01.JPG,,,,,,,,,1,3,13,9,,,,,,,,,,,,,,,AFSA05.jpg,AFNE01.jpg,AFSA16.jpg,AFNE14.jpg,AFNE14.jpg,FN,3,num_4,16,num_4,0.766747033224,,,2017_Jun_06_1452,60.0071405269,FEMA4ImagesEEG,001,100620,
AFNE01.JPG,AFNE01.JPG,AFNE01.JPG,AFNE01.JPG,AFNE01.JPG,AFNE01.JPG,,,,,,,,,1,4,14,7,,,,,,,,,,,,,,,AFSA06.jpg,AFNE15.jpg,AFSA13.jpg,AFNE13.jpg,AFSA13.jpg,FS,4,num_2,32,num_8,1.88337159227,,,2017_Jun_06_1452,60.0071405269,FEMA4ImagesEEG,001,100620,
AFNE01.JPG,AFNE01.JPG,AFNE01.JPG,AFNE01.JPG,AFNE01.JPG,AFNE01.JPG,,,,,,,,,1,5,15,8,,,,,,,,,,,,,,,AFNE10.jpg,AFSA15.jpg,AFNE06.jpg,AFSA19.jpg,AFNE10.jpg,FN,3,num_8,32,num_2,2.01685520285,,,2017_Jun_06_1452,60.0071405269,FEMA4ImagesEEG,001,100620,
AFNE01.JPG,AFNE01.JPG,AFNE01.JPG,AFNE01.JPG,AFNE01.JPG,AFNE01.JPG,,,,,,,,,1,6,16,3,,,,,,,,,,,,,,,AFSA15.jpg,AFNE05.jpg,AFSA19.jpg,AFNE11.jpg,AFSA19.jpg,FS,4,num_2,32,num_8,1.05012940243,,,2017_Jun_06_1452,60.0071405269,FEMA4ImagesEEG,001,100620,
AFNE01.JPG,AFNE01.JPG,AFNE01.JPG,AFNE01.JPG,AFNE01.JPG,AFNE01.JPG,,,,,,,,,1,7,17,0,,,,,,,,,,,,,,,AFSA14.jpg,AFSA09.jpg,AFNE16.jpg,AFNE02.jpg,AFNE02.jpg,FN,3,num_4,32,num_2,0.916768955998,,,2017_Jun_06_1452,60.0071405269,FEMA4ImagesEEG,001,100620,
AFNE01.JPG,AFNE01.JPG,AFNE01.JPG,AFNE01.JPG,AFNE01.JPG,AFNE01.JPG,,,,,,,,,1,8,18,2,,,,,,,,,,,,,,,AFNE19.jpg,AFNE02.jpg,AFSA01.jpg,AFSA12.jpg,AFSA01.jpg,FS,4,num_2,32,num_4,1.06672833418,,,2017_Jun_06_1452,60.0071405269,FEMA4ImagesEEG,001,100620,
AFNE01.JPG,AFNE01.JPG,AFNE01.JPG,AFNE01.JPG,AFNE01.JPG,AFNE01.JPG,,,,,,,,,1,9,19,6,,,,,,,,,,,,,,,AFNE09.jpg,AFSA16.jpg,AFSA17.jpg,AFNE08.jpg,AFSA17.jpg,FS,4,num_2,32,num_6,0.849877685774,,,2017_Jun_06_1452,60.0071405269,FEMA4ImagesEEG,001,100620,
AFNE01.JPG,AFNE01.JPG,AFNE01.JPG,AFNE01.JPG,AFNE01.JPG,AFNE01.JPG,,,,,,,,,2,0,20,3,,,,,,,,,,,,,,,AFNE18.jpg,AFSA09.jpg,AFNE01.jpg,AFSA15.jpg,AFNE01.jpg,FN,3,num_2,32,num_8,0.916758050909,,,2017_Jun_06_1452,60.0071405269,FEMA4ImagesEEG,001,100620,
AFNE01.JPG,AFNE01.JPG,AFNE01.JPG,AFNE01.JPG,AFNE01.JPG,AFNE01.JPG,,,,,,,,,2,1,21,8,,,,,,,,,,,,,,,AFNE06.jpg,AFSA15.jpg,AFSA10.jpg,AFNE02.jpg,AFSA15.jpg,FS,4,num_6,16,num_6,1.31675856397,,,2017_Jun_06_1452,60.0071405269,FEMA4ImagesEEG,001,100620,
AFNE01.JPG,AFNE01.JPG,AFNE01.JPG,AFNE01.JPG,AFNE01.JPG,AFNE01.JPG,,,,,,,,,2,2,22,5,,,,,,,,,,,,,,,AFNE01.jpg,AFSA18.jpg,AFNE09.jpg,AFSA14.jpg,AFNE09.jpg,FN,3,num_2,16,num_2,1.00010391977,,,2017_Jun_06_1452,60.0071405269,FEMA4ImagesEEG,001,100620,
AFNE01.JPG,AFNE01.JPG,AFNE01.JPG,AFNE01.JPG,AFNE01.JPG,AFNE01.JPG,,,,,,,,,2,3,23,1,,,,,,,,,,,,,,,AFNE11.jpg,AFSA18.jpg,AFSA04.jpg,AFNE10.jpg,AFSA18.jpg,FS,4,num_6,16,num_6,1.23339248844,,,2017_Jun_06_1452,60.0071405269,FEMA4ImagesEEG,001,100620,
AFNE01.JPG,AFNE01.JPG,AFNE01.JPG,AFNE01.JPG,AFNE01.JPG,AFNE01.JPG,,,,,,,,,2,4,24,2,,,,,,,,,,,,,,,AFSA14.jpg,AFNE11.jpg,AFNE02.jpg,AFSA11.jpg,AFNE02.jpg,FN,3,num_2,32,num_8,0.866758868797,,,2017_Jun_06_1452,60.0071405269,FEMA4ImagesEEG,001,100620,
AFNE01.JPG,AFNE01.JPG,AFNE01.JPG,AFNE01.JPG,AFNE01.JPG,AFNE01.JPG,,,,,,,,,2,5,25,4,,,,,,,,,,,,,,,AFSA15.jpg,AFNE09.jpg,AFSA12.jpg,AFNE20.jpg,AFSA12.jpg,FS,4,num_2,16,num_2,0.866866958095,,,2017_Jun_06_1452,60.0071405269,FEMA4ImagesEEG,001,100620,
AFNE01.JPG,AFNE01.JPG,AFNE01.JPG,AFNE01.JPG,AFNE01.JPG,AFNE01.JPG,,,,,,,,,2,6,26,7,,,,,,,,,,,,,,,AFSA07.jpg,AFSA11.jpg,AFNE06.jpg,AFNE10.jpg,AFSA07.jpg,FS,4,num_8,32,num_4,0.783558294876,,,2017_Jun_06_1452,60.0071405269,FEMA4ImagesEEG,001,100620,
AFNE01.JPG,AFNE01.JPG,AFNE01.JPG,AFNE01.JPG,AFNE01.JPG,AFNE01.JPG,,,,,,,,,2,7,27,6,,,,,,,,,,,,,,,AFSA15.jpg,AFSA07.jpg,AFNE07.jpg,AFNE02.jpg,AFNE02.jpg,FN,3,num_4,16,num_4,0.933438450564,,,2017_Jun_06_1452,60.0071405269,FEMA4ImagesEEG,001,100620,
AFNE01.JPG,AFNE01.JPG,AFNE01.JPG,AFNE01.JPG,AFNE01.JPG,AFNE01.JPG,,,,,,,,,2,8,28,9,,,,,,,,,,,,,,,AFNE12.jpg,AFSA15.jpg,AFNE06.jpg,AFSA03.jpg,AFSA15.jpg,FS,4,num_6,32,num_2,2.18338496704,,,2017_Jun_06_1452,60.0071405269,FEMA4ImagesEEG,001,100620,
AFNE01.JPG,AFNE01.JPG,AFNE01.JPG,AFNE01.JPG,AFNE01.JPG,AFNE01.JPG,,,,,,,,,2,9,29,0,,,,,,,,,,,,,,,AFSA17.jpg,AFNE20.jpg,AFNE19.jpg,AFSA11.jpg,AFSA17.jpg,FS,4,num_8,16,num_8,1.11682277615,,,2017_Jun_06_1452,60.0071405269,FEMA4ImagesEEG,001,100620,
AFNE01.JPG,AFNE01.JPG,AFNE01.JPG,AFNE01.JPG,AFNE01.JPG,AFNE01.JPG,,,,,,,,,3,0,30,8,,,,,,,,,,,,,,,AFNE06.jpg,AFSA02.jpg,AFSA19.jpg,AFNE10.jpg,AFNE10.jpg,FN,3,num_4,16,num_4,1.01669900259,,,2017_Jun_06_1452,60.0071405269,FEMA4ImagesEEG,001,100620,
AFNE01.JPG,AFNE01.JPG,AFNE01.JPG,AFNE01.JPG,AFNE01.JPG,AFNE01.JPG,,,,,,,,,3,1,31,6,,,,,,,,,,,,,,,AFNE14.jpg,AFNE03.jpg,AFSA02.jpg,AFSA14.jpg,AFSA02.jpg,FS,4,num_2,16,num_2,1.3334662267,,,2017_Jun_06_1452,60.0071405269,FEMA4ImagesEEG,001,100620,
AFNE01.JPG,AFNE01.JPG,AFNE01.JPG,AFNE01.JPG,AFNE01.JPG,AFNE01.JPG,,,,,,,,,3,2,32,9,,,,,,,,,,,,,,,AFNE13.jpg,AFNE04.jpg,AFSA04.jpg,AFSA13.jpg,AFNE13.jpg,FN,3,num_8,32,num_6,1.98337059794,,,2017_Jun_06_1452,60.0071405269,FEMA4ImagesEEG,001,100620,
AFNE01.JPG,AFNE01.JPG,AFNE01.JPG,AFNE01.JPG,AFNE01.JPG,AFNE01.JPG,,,,,,,,,3,3,33,5,,,,,,,,,,,,,,,AFSA05.jpg,AFNE18.jpg,AFNE09.jpg,AFSA10.jpg,AFNE18.jpg,FN,3,num_6,32,num_2,1.21676276578,,,2017_Jun_06_1452,60.0071405269,FEMA4ImagesEEG,001,100620,
AFNE01.JPG,AFNE01.JPG,AFNE01.JPG,AFNE01.JPG,AFNE01.JPG,AFNE01.JPG,,,,,,,,,3,4,34,3,,,,,,,,,,,,,,,AFNE03.jpg,AFNE10.jpg,AFSA11.jpg,AFSA02.jpg,AFNE03.jpg,FN,3,num_8,32,num_4,1.41679766239,,,2017_Jun_06_1452,60.0071405269,FEMA4ImagesEEG,001,100620,
AFNE01.JPG,AFNE01.JPG,AFNE01.JPG,AFNE01.JPG,AFNE01.JPG,AFNE01.JPG,,,,,,,,,3,5,35,0,,,,,,,,,,,,,,,AFNE19.jpg,AFSA20.jpg,AFNE06.jpg,AFSA03.jpg,AFNE19.jpg,FN,3,num_8,16,num_8,1.76666332036,,,2017_Jun_06_1452,60.0071405269,FEMA4ImagesEEG,001,100620,
AFNE01.JPG,AFNE01.JPG,AFNE01.JPG,AFNE01.JPG,AFNE01.JPG,AFNE01.JPG,,,,,,,,,3,6,36,1,,,,,,,,,,,,,,,AFSA20.jpg,AFNE09.jpg,AFSA12.jpg,AFNE11.jpg,AFNE09.jpg,FN,3,num_6,32,num_8,1.03348235996,,,2017_Jun_06_1452,60.0071405269,FEMA4ImagesEEG,001,100620,
AFNE01.JPG,AFNE01.JPG,AFNE01.JPG,AFNE01.JPG,AFNE01.JPG,AFNE01.JPG,,,,,,,,,3,7,37,2,,,,,,,,,,,,,,,AFSA12.jpg,AFNE07.jpg,AFNE19.jpg,AFSA03.jpg,AFSA03.jpg,FS,4,num_4,32,num_2,1.39992032829,,,2017_Jun_06_1452,60.0071405269,FEMA4ImagesEEG,001,100620,
AFNE01.JPG,AFNE01.JPG,AFNE01.JPG,AFNE01.JPG,AFNE01.JPG,AFNE01.JPG,,,,,,,,,3,8,38,7,,,,,,,,,,,,,,,AFNE12.jpg,AFSA07.jpg,AFSA14.jpg,AFNE09.jpg,AFSA07.jpg,FS,4,num_6,32,num_4,1.76670886553,,,2017_Jun_06_1452,60.0071405269,FEMA4ImagesEEG,001,100620,
AFNE01.JPG,AFNE01.JPG,AFNE01.JPG,AFNE01.JPG,AFNE01.JPG,AFNE01.JPG,,,,,,,,,3,9,39,4,,,,,,,,,,,,,,,AFSA18.jpg,AFNE16.jpg,AFNE19.jpg,AFSA15.jpg,AFSA18.jpg,FS,4,num_8,32,num_6,1.13344159373,,,2017_Jun_06_1452,60.0071405269,FEMA4ImagesEEG,001,100620,
AFNE01.JPG,AFNE01.JPG,AFNE01.JPG,AFNE01.JPG,AFNE01.JPG,AFNE01.JPG,,,,,,,,,4,0,40,0,,,,,,,,,,,,,,,AFNE17.jpg,AFSA03.jpg,AFNE19.jpg,AFSA02.jpg,AFSA02.jpg,FS,4,num_4,32,num_2,1.16676422511,,,2017_Jun_06_1452,60.0071405269,FEMA4ImagesEEG,001,100620,
AFNE01.JPG,AFNE01.JPG,AFNE01.JPG,AFNE01.JPG,AFNE01.JPG,AFNE01.JPG,,,,,,,,,4,1,41,5,,,,,,,,,,,,,,,AFNE12.jpg,AFSA05.jpg,AFSA06.jpg,AFNE04.jpg,AFNE04.jpg,FN,3,num_4,32,num_8,0.96671457449,,,2017_Jun_06_1452,60.0071405269,FEMA4ImagesEEG,001,100620,
AFNE01.JPG,AFNE01.JPG,AFNE01.JPG,AFNE01.JPG,AFNE01.JPG,AFNE01.JPG,,,,,,,,,4,2,42,2,,,,,,,,,,,,,,,AFSA14.jpg,AFSA04.jpg,AFNE16.jpg,AFNE18.jpg,AFSA14.jpg,FS,4,num_8,32,num_4,1.333443454,,,2017_Jun_06_1452,60.0071405269,FEMA4ImagesEEG,001,100620,
AFNE01.JPG,AFNE01.JPG,AFNE01.JPG,AFNE01.JPG,AFNE01.JPG,AFNE01.JPG,,,,,,,,,4,3,43,6,,,,,,,,,,,,,,,AFSA17.jpg,AFNE05.jpg,AFNE13.jpg,AFSA03.jpg,AFSA17.jpg,FS,4,num_8,16,num_8,1.05005595298,,,2017_Jun_06_1452,60.0071405269,FEMA4ImagesEEG,001,100620,
AFNE01.JPG,AFNE01.JPG,AFNE01.JPG,AFNE01.JPG,AFNE01.JPG,AFNE01.JPG,,,,,,,,,4,4,44,1,,,,,,,,,,,,,,,AFSA19.jpg,AFNE07.jpg,AFSA08.jpg,AFNE08.jpg,AFNE08.jpg,FN,3,num_4,32,num_6,0.883414250566,,,2017_Jun_06_1452,60.0071405269,FEMA4ImagesEEG,001,100620,
AFNE01.JPG,AFNE01.JPG,AFNE01.JPG,AFNE01.JPG,AFNE01.JPG,AFNE01.JPG,,,,,,,,,4,5,45,7,,,,,,,,,,,,,,,AFSA17.jpg,AFSA12.jpg,AFNE16.jpg,AFNE02.jpg,AFSA12.jpg,FS,4,num_6,16,num_6,0.716654516058,,,2017_Jun_06_1452,60.0071405269,FEMA4ImagesEEG,001,100620,
AFNE01.JPG,AFNE01.JPG,AFNE01.JPG,AFNE01.JPG,AFNE01.JPG,AFNE01.JPG,,,,,,,,,4,6,46,9,,,,,,,,,,,,,,,AFSA20.jpg,AFNE08.jpg,AFSA09.jpg,AFNE13.jpg,AFSA09.jpg,FS,4,num_2,32,num_6,1.50006302539,,,2017_Jun_06_1452,60.0071405269,FEMA4ImagesEEG,001,100620,
AFNE01.JPG,AFNE01.JPG,AFNE01.JPG,AFNE01.JPG,AFNE01.JPG,AFNE01.JPG,,,,,,,,,4,7,47,8,,,,,,,,,,,,,,,AFSA10.jpg,AFNE13.jpg,AFNE17.jpg,AFSA06.jpg,AFNE17.jpg,FN,3,num_2,32,num_4,1.06663082913,,,2017_Jun_06_1452,60.0071405269,FEMA4ImagesEEG,001,100620,
AFNE01.JPG,AFNE01.JPG,AFNE01.JPG,AFNE01.JPG,AFNE01.JPG,AFNE01.JPG,,,,,,,,,4,8,48,3,,,,,,,,,,,,,,,AFNE15.jpg,AFNE06.jpg,AFSA17.jpg,AFSA19.jpg,AFNE15.jpg,FN,3,num_8,16,num_8,1.08343118569,,,2017_Jun_06_1452,60.0071405269,FEMA4ImagesEEG,001,100620,
AFNE01.JPG,AFNE01.JPG,AFNE01.JPG,AFNE01.JPG,AFNE01.JPG,AFNE01.JPG,,,,,,,,,4,9,49,4,,,,,,,,,,,,,,,AFSA20.jpg,AFSA08.jpg,AFNE08.jpg,AFNE03.jpg,AFNE08.jpg,FN,3,num_2,32,num_4,0.866822375217,,,2017_Jun_06_1452,60.0071405269,FEMA4ImagesEEG,001,100620,
AFNE01.JPG,AFNE01.JPG,AFNE01.JPG,AFNE01.JPG,AFNE01.JPG,AFNE01.JPG,,,,,,,,,5,0,50,5,,,,,,,,,,,,,,,AFNE08.jpg,AFSA11.jpg,AFNE19.jpg,AFSA08.jpg,AFNE08.jpg,FN,3,num_8,32,num_6,1.11674547778,,,2017_Jun_06_1452,60.0071405269,FEMA4ImagesEEG,001,100620,
AFNE01.JPG,AFNE01.JPG,AFNE01.JPG,AFNE01.JPG,AFNE01.JPG,AFNE01.JPG,,,,,,,,,5,1,51,7,,,,,,,,,,,,,,,AFNE01.jpg,AFNE16.jpg,AFSA09.jpg,AFSA11.jpg,AFNE16.jpg,FN,3,num_6,32,num_8,1.46671345178,,,2017_Jun_06_1452,60.0071405269,FEMA4ImagesEEG,001,100620,
AFNE01.JPG,AFNE01.JPG,AFNE01.JPG,AFNE01.JPG,AFNE01.JPG,AFNE01.JPG,,,,,,,,,5,2,52,3,,,,,,,,,,,,,,,AFNE14.jpg,AFNE08.jpg,AFSA09.jpg,AFSA14.jpg,AFNE08.jpg,FN,3,num_6,32,num_8,1.15007773112,,,2017_Jun_06_1452,60.0071405269,FEMA4ImagesEEG,001,100620,
AFNE01.JPG,AFNE01.JPG,AFNE01.JPG,AFNE01.JPG,AFNE01.JPG,AFNE01.JPG,,,,,,,,,5,3,53,1,,,,,,,,,,,,,,,AFNE06.jpg,AFSA16.jpg,AFNE16.jpg,AFSA10.jpg,AFNE06.jpg,FN,3,num_8,32,num_4,0.983455914771,,,2017_Jun_06_1452,60.0071405269,FEMA4ImagesEEG,001,100620,
AFNE01.JPG,AFNE01.JPG,AFNE01.JPG,AFNE01.JPG,AFNE01.JPG,AFNE01.JPG,,,,,,,,,5,4,54,6,,,,,,,,,,,,,,,AFSA13.jpg,AFNE09.jpg,AFNE19.jpg,AFSA02.jpg,AFNE09.jpg,FN,3,num_6,32,num_2,1.60008255858,,,2017_Jun_06_1452,60.0071405269,FEMA4ImagesEEG,001,100620,
AFNE01.JPG,AFNE01.JPG,AFNE01.JPG,AFNE01.JPG,AFNE01.JPG,AFNE01.JPG,,,,,,,,,5,5,55,8,,,,,,,,,,,,,,,AFNE01.jpg,AFSA11.jpg,AFNE05.jpg,AFSA16.jpg,AFSA16.jpg,FS,4,num_4,16,num_4,1.2331711778,,,2017_Jun_06_1452,60.0071405269,FEMA4ImagesEEG,001,100620,
AFNE01.JPG,AFNE01.JPG,AFNE01.JPG,AFNE01.JPG,AFNE01.JPG,AFNE01.JPG,,,,,,,,,5,6,56,9,,,,,,,,,,,,,,,AFNE18.jpg,AFSA09.jpg,AFSA12.jpg,AFNE19.jpg,AFNE18.jpg,FN,3,num_8,16,num_8,1.00011354196,,,2017_Jun_06_1452,60.0071405269,FEMA4ImagesEEG,001,100620,
AFNE01.JPG,AFNE01.JPG,AFNE01.JPG,AFNE01.JPG,AFNE01.JPG,AFNE01.JPG,,,,,,,,,5,7,57,4,,,,,,,,,,,,,,,AFSA06.jpg,AFNE11.jpg,AFSA17.jpg,AFNE20.jpg,AFNE20.jpg,FN,3,num_4,32,num_2,0.983530967962,,,2017_Jun_06_1452,60.0071405269,FEMA4ImagesEEG,001,100620,
AFNE01.JPG,AFNE01.JPG,AFNE01.JPG,AFNE01.JPG,AFNE01.JPG,AFNE01.JPG,,,,,,,,,5,8,58,2,,,,,,,,,,,,,,,AFSA06.jpg,AFNE01.jpg,AFNE19.jpg,AFSA03.jpg,AFNE19.jpg,FN,3,num_2,32,num_4,1.26674142038,,,2017_Jun_06_1452,60.0071405269,FEMA4ImagesEEG,001,100620,
AFNE01.JPG,AFNE01.JPG,AFNE01.JPG,AFNE01.JPG,AFNE01.JPG,AFNE01.JPG,,,,,,,,,5,9,59,0,,,,,,,,,,,,,,,AFNE14.jpg,AFSA12.jpg,AFNE09.jpg,AFSA15.jpg,AFSA15.jpg,FS,4,num_4,16,num_4,2.49998540641,,,2017_Jun_06_1452,60.0071405269,FEMA4ImagesEEG,001,100620,
,,,,,,,,,,,,,,,,,,,,,,,,,,,,,,,,,,,,,,,,,,,space,14.2323462348,2017_Jun_06_1452,60.0071405269,FEMA4ImagesEEG,001,100620,
AFNE01.JPG,AFNE01.JPG,AFNE01.JPG,AFNE01.JPG,AFNE01.JPG,AFNE01.JPG,,,,,,,,,,,,,0,0,0,7,,,,,,,,,,,AMNE04.jpg,AMSA18.jpg,AMNE20.jpg,AMSA04.jpg,AMSA04.jpg,MS,2,num_4,16,num_4,3.20005734824,,,2017_Jun_06_1452,60.0071405269,FEMA4ImagesEEG,001,100620,
AFNE01.JPG,AFNE01.JPG,AFNE01.JPG,AFNE01.JPG,AFNE01.JPG,AFNE01.JPG,,,,,,,,,,,,,0,1,1,4,,,,,,,,,,,AMSA06.jpg,AMNE09.jpg,AMNE20.jpg,AMSA03.jpg,AMNE20.jpg,MN,1,num_2,16,num_2,0.666756366845,,,2017_Jun_06_1452,60.0071405269,FEMA4ImagesEEG,001,100620,
AFNE01.JPG,AFNE01.JPG,AFNE01.JPG,AFNE01.JPG,AFNE01.JPG,AFNE01.JPG,,,,,,,,,,,,,0,2,2,0,,,,,,,,,,,AMNE14.jpg,AMSA05.jpg,AMNE11.jpg,AMSA10.jpg,AMSA05.jpg,MS,2,num_6,32,num_4,0.666501699481,,,2017_Jun_06_1452,60.0071405269,FEMA4ImagesEEG,001,100620,
AFNE01.JPG,AFNE01.JPG,AFNE01.JPG,AFNE01.JPG,AFNE01.JPG,AFNE01.JPG,,,,,,,,,,,,,0,3,3,2,,,,,,,,,,,AMNE10.jpg,AMNE01.jpg,AMSA20.jpg,AMSA14.jpg,AMNE01.jpg,MN,1,num_6,32,num_2,1.10010869871,,,2017_Jun_06_1452,60.0071405269,FEMA4ImagesEEG,001,100620,
AFNE01.JPG,AFNE01.JPG,AFNE01.JPG,AFNE01.JPG,AFNE01.JPG,AFNE01.JPG,,,,,,,,,,,,,0,4,4,8,,,,,,,,,,,AMSA19.jpg,AMNE01.jpg,AMSA07.jpg,AMNE13.jpg,AMNE01.jpg,MN,1,num_6,16,num_6,1.36673657736,,,2017_Jun_06_1452,60.0071405269,FEMA4ImagesEEG,001,100620,
AFNE01.JPG,AFNE01.JPG,AFNE01.JPG,AFNE01.JPG,AFNE01.JPG,AFNE01.JPG,,,,,,,,,,,,,0,5,5,6,,,,,,,,,,,AMSA07.jpg,AMNE11.jpg,AMNE17.jpg,AMSA14.jpg,AMNE11.jpg,MN,1,num_6,32,num_8,1.00009333529,,,2017_Jun_06_1452,60.0071405269,FEMA4ImagesEEG,001,100620,
AFNE01.JPG,AFNE01.JPG,AFNE01.JPG,AFNE01.JPG,AFNE01.JPG,AFNE01.JPG,,,,,,,,,,,,,0,6,6,9,,,,,,,,,,,AMSA12.jpg,AMNE01.jpg,AMNE05.jpg,AMSA16.jpg,AMSA16.jpg,MS,2,num_4,32,num_2,0.950129113859,,,2017_Jun_06_1452,60.0071405269,FEMA4ImagesEEG,001,100620,
AFNE01.JPG,AFNE01.JPG,AFNE01.JPG,AFNE01.JPG,AFNE01.JPG,AFNE01.JPG,,,,,,,,,,,,,0,7,7,5,,,,,,,,,,,AMSA02.jpg,AMNE15.jpg,AMNE17.jpg,AMSA05.jpg,AMSA02.jpg,MS,2,num_8,32,num_6,1.01675384934,,,2017_Jun_06_1452,60.0071405269,FEMA4ImagesEEG,001,100620,
AFNE01.JPG,AFNE01.JPG,AFNE01.JPG,AFNE01.JPG,AFNE01.JPG,AFNE01.JPG,,,,,,,,,,,,,0,8,8,3,,,,,,,,,,,AMNE04.jpg,AMSA16.jpg,AMNE16.jpg,AMSA15.jpg,AMSA16.jpg,MS,2,num_6,32,num_8,0.950141301844,,,2017_Jun_06_1452,60.0071405269,FEMA4ImagesEEG,001,100620,
AFNE01.JPG,AFNE01.JPG,AFNE01.JPG,AFNE01.JPG,AFNE01.JPG,AFNE01.JPG,,,,,,,,,,,,,0,9,9,1,,,,,,,,,,,AMSA13.jpg,AMNE19.jpg,AMNE20.jpg,AMSA07.jpg,AMSA13.jpg,MS,2,num_8,32,num_4,0.933453525417,,,2017_Jun_06_1452,60.0071405269,FEMA4ImagesEEG,001,100620,
AFNE01.JPG,AFNE01.JPG,AFNE01.JPG,AFNE01.JPG,AFNE01.JPG,AFNE01.JPG,,,,,,,,,,,,,1,0,10,6,,,,,,,,,,,AMSA20.jpg,AMSA19.jpg,AMNE09.jpg,AMNE06.jpg,AMNE09.jpg,MN,1,num_2,16,num_2,0.866737699835,,,2017_Jun_06_1452,60.0071405269,FEMA4ImagesEEG,001,100620,
AFNE01.JPG,AFNE01.JPG,AFNE01.JPG,AFNE01.JPG,AFNE01.JPG,AFNE01.JPG,,,,,,,,,,,,,1,1,11,7,,,,,,,,,,,AMSA05.jpg,AMNE18.jpg,AMNE10.jpg,AMSA20.jpg,AMSA20.jpg,MS,2,num_4,16,num_4,0.616809144616,,,2017_Jun_06_1452,60.0071405269,FEMA4ImagesEEG,001,100620,
AFNE01.JPG,AFNE01.JPG,AFNE01.JPG,AFNE01.JPG,AFNE01.JPG,AFNE01.JPG,,,,,,,,,,,,,1,2,12,0,,,,,,,,,,,AMSA19.jpg,AMNE12.jpg,AMNE09.jpg,AMSA11.jpg,AMSA11.jpg,MS,2,num_4,16,num_4,0.683408862213,,,2017_Jun_06_1452,60.0071405269,FEMA4ImagesEEG,001,100620,
AFNE01.JPG,AFNE01.JPG,AFNE01.JPG,AFNE01.JPG,AFNE01.JPG,AFNE01.JPG,,,,,,,,,,,,,1,3,13,4,,,,,,,,,,,AMSA19.jpg,AMNE08.jpg,AMSA01.jpg,AMNE06.jpg,AMNE08.jpg,MN,1,num_6,32,num_4,1.71638701903,,,2017_Jun_06_1452,60.0071405269,FEMA4ImagesEEG,001,100620,
AFNE01.JPG,AFNE01.JPG,AFNE01.JPG,AFNE01.JPG,AFNE01.JPG,AFNE01.JPG,,,,,,,,,,,,,1,4,14,1,,,,,,,,,,,AMNE03.jpg,AMSA19.jpg,AMNE10.jpg,AMSA09.jpg,AMSA09.jpg,MS,2,num_4,16,num_4,0.616887405282,,,2017_Jun_06_1452,60.0071405269,FEMA4ImagesEEG,001,100620,
AFNE01.JPG,AFNE01.JPG,AFNE01.JPG,AFNE01.JPG,AFNE01.JPG,AFNE01.JPG,,,,,,,,,,,,,1,5,15,2,,,,,,,,,,,AMSA03.jpg,AMSA18.jpg,AMNE15.jpg,AMNE14.jpg,AMSA03.jpg,MS,2,num_8,32,num_6,1.30007527769,,,2017_Jun_06_1452,60.0071405269,FEMA4ImagesEEG,001,100620,
AFNE01.JPG,AFNE01.JPG,AFNE01.JPG,AFNE01.JPG,AFNE01.JPG,AFNE01.JPG,,,,,,,,,,,,,1,6,16,5,,,,,,,,,,,AMSA15.jpg,AMNE06.jpg,AMSA18.jpg,AMNE09.jpg,AMNE09.jpg,MN,1,num_4,32,num_8,1.03348043538,,,2017_Jun_06_1452,60.0071405269,FEMA4ImagesEEG,001,100620,
AFNE01.JPG,AFNE01.JPG,AFNE01.JPG,AFNE01.JPG,AFNE01.JPG,AFNE01.JPG,,,,,,,,,,,,,1,7,17,8,,,,,,,,,,,AMNE03.jpg,AMSA15.jpg,AMSA07.jpg,AMNE08.jpg,AMSA15.jpg,MS,2,num_6,32,num_4,1.35006130952,,,2017_Jun_06_1452,60.0071405269,FEMA4ImagesEEG,001,100620,
AFNE01.JPG,AFNE01.JPG,AFNE01.JPG,AFNE01.JPG,AFNE01.JPG,AFNE01.JPG,,,,,,,,,,,,,1,8,18,3,,,,,,,,,,,AMNE03.jpg,AMSA13.jpg,AMSA18.jpg,AMNE11.jpg,AMNE03.jpg,MN,1,num_8,32,num_4,1.15012327628,,,2017_Jun_06_1452,60.0071405269,FEMA4ImagesEEG,001,100620,
AFNE01.JPG,AFNE01.JPG,AFNE01.JPG,AFNE01.JPG,AFNE01.JPG,AFNE01.JPG,,,,,,,,,,,,,1,9,19,9,,,,,,,,,,,AMNE02.jpg,AMSA14.jpg,AMNE19.jpg,AMSA19.jpg,AMNE19.jpg,MN,1,num_2,16,num_2,0.800129322335,,,2017_Jun_06_1452,60.0071405269,FEMA4ImagesEEG,001,100620,
AFNE01.JPG,AFNE01.JPG,AFNE01.JPG,AFNE01.JPG,AFNE01.JPG,AFNE01.JPG,,,,,,,,,,,,,2,0,20,3,,,,,,,,,,,AMSA20.jpg,AMNE17.jpg,AMNE01.jpg,AMSA16.jpg,AMSA20.jpg,MS,2,num_8,32,num_6,1.03344483324,,,2017_Jun_06_1452,60.0071405269,FEMA4ImagesEEG,001,100620,
AFNE01.JPG,AFNE01.JPG,AFNE01.JPG,AFNE01.JPG,AFNE01.JPG,AFNE01.JPG,,,,,,,,,,,,,2,1,21,5,,,,,,,,,,,AMNE10.jpg,AMNE11.jpg,AMSA20.jpg,AMSA10.jpg,AMSA20.jpg,MS,2,num_2,32,num_8,0.666793252109,,,2017_Jun_06_1452,60.0071405269,FEMA4ImagesEEG,001,100620,
AFNE01.JPG,AFNE01.JPG,AFNE01.JPG,AFNE01.JPG,AFNE01.JPG,AFNE01.JPG,,,,,,,,,,,,,2,2,22,7,,,,,,,,,,,AMSA12.jpg,AMSA20.jpg,AMNE08.jpg,AMNE09.jpg,AMNE08.jpg,MN,1,num_2,32,num_4,1.13344191457,,,2017_Jun_06_1452,60.0071405269,FEMA4ImagesEEG,001,100620,
AFNE01.JPG,AFNE01.JPG,AFNE01.JPG,AFNE01.JPG,AFNE01.JPG,AFNE01.JPG,,,,,,,,,,,,,2,3,23,4,,,,,,,,,,,AMSA05.jpg,AMNE09.jpg,AMNE20.jpg,AMSA17.jpg,AMSA17.jpg,MS,2,num_4,16,num_4,0.716778642265,,,2017_Jun_06_1452,60.0071405269,FEMA4ImagesEEG,001,100620,
AFNE01.JPG,AFNE01.JPG,AFNE01.JPG,AFNE01.JPG,AFNE01.JPG,AFNE01.JPG,,,,,,,,,,,,,2,4,24,6,,,,,,,,,,,AMSA11.jpg,AMNE03.jpg,AMNE18.jpg,AMSA13.jpg,AMSA11.jpg,MS,2,num_8,32,num_2,0.983142551966,,,2017_Jun_06_1452,60.0071405269,FEMA4ImagesEEG,001,100620,
AFNE01.JPG,AFNE01.JPG,AFNE01.JPG,AFNE01.JPG,AFNE01.JPG,AFNE01.JPG,,,,,,,,,,,,,2,5,25,0,,,,,,,,,,,AMSA12.jpg,AMNE20.jpg,AMNE09.jpg,AMSA16.jpg,AMSA12.jpg,MS,2,num_8,32,num_6,1.90005455795,,,2017_Jun_06_1452,60.0071405269,FEMA4ImagesEEG,001,100620,
AFNE01.JPG,AFNE01.JPG,AFNE01.JPG,AFNE01.JPG,AFNE01.JPG,AFNE01.JPG,,,,,,,,,,,,,2,6,26,8,,,,,,,,,,,AMNE20.jpg,AMSA14.jpg,AMSA06.jpg,AMNE14.jpg,AMNE14.jpg,MN,1,num_4,16,num_4,1.26676162705,,,2017_Jun_06_1452,60.0071405269,FEMA4ImagesEEG,001,100620,
AFNE01.JPG,AFNE01.JPG,AFNE01.JPG,AFNE01.JPG,AFNE01.JPG,AFNE01.JPG,,,,,,,,,,,,,2,7,27,2,,,,,,,,,,,AMSA08.jpg,AMNE19.jpg,AMSA14.jpg,AMNE14.jpg,AMNE14.jpg,MN,1,num_4,16,num_4,0.983448858373,,,2017_Jun_06_1452,60.0071405269,FEMA4ImagesEEG,001,100620,
AFNE01.JPG,AFNE01.JPG,AFNE01.JPG,AFNE01.JPG,AFNE01.JPG,AFNE01.JPG,,,,,,,,,,,,,2,8,28,1,,,,,,,,,,,AMNE01.jpg,AMSA17.jpg,AMSA13.jpg,AMNE15.jpg,AMNE01.jpg,MN,1,num_8,32,num_2,1.2501652611,,,2017_Jun_06_1452,60.0071405269,FEMA4ImagesEEG,001,100620,
AFNE01.JPG,AFNE01.JPG,AFNE01.JPG,AFNE01.JPG,AFNE01.JPG,AFNE01.JPG,,,,,,,,,,,,,2,9,29,9,,,,,,,,,,,AMNE02.jpg,AMNE10.jpg,AMSA18.jpg,AMSA02.jpg,AMNE02.jpg,MN,1,num_8,32,num_4,0.900118384976,,,2017_Jun_06_1452,60.0071405269,FEMA4ImagesEEG,001,100620,
AFNE01.JPG,AFNE01.JPG,AFNE01.JPG,AFNE01.JPG,AFNE01.JPG,AFNE01.JPG,,,,,,,,,,,,,3,0,30,2,,,,,,,,,,,AMNE20.jpg,AMSA08.jpg,AMSA01.jpg,AMNE03.jpg,AMSA08.jpg,MS,2,num_6,32,num_4,1.08348025894,,,2017_Jun_06_1452,60.0071405269,FEMA4ImagesEEG,001,100620,
AFNE01.JPG,AFNE01.JPG,AFNE01.JPG,AFNE01.JPG,AFNE01.JPG,AFNE01.JPG,,,,,,,,,,,,,3,1,31,8,,,,,,,,,,,AMNE11.jpg,AMSA19.jpg,AMNE19.jpg,AMSA03.jpg,AMNE19.jpg,MN,1,num_2,32,num_6,1.28341219784,,,2017_Jun_06_1452,60.0071405269,FEMA4ImagesEEG,001,100620,
AFNE01.JPG,AFNE01.JPG,AFNE01.JPG,AFNE01.JPG,AFNE01.JPG,AFNE01.JPG,,,,,,,,,,,,,3,2,32,1,,,,,,,,,,,AMSA07.jpg,AMSA18.jpg,AMNE18.jpg,AMNE05.jpg,AMSA07.jpg,MS,2,num_8,16,num_8,1.0334672851,,,2017_Jun_06_1452,60.0071405269,FEMA4ImagesEEG,001,100620,
AFNE01.JPG,AFNE01.JPG,AFNE01.JPG,AFNE01.JPG,AFNE01.JPG,AFNE01.JPG,,,,,,,,,,,,,3,3,33,3,,,,,,,,,,,AMNE18.jpg,AMNE04.jpg,AMSA14.jpg,AMSA20.jpg,AMNE04.jpg,MN,1,num_6,32,num_2,1.28345710132,,,2017_Jun_06_1452,60.0071405269,FEMA4ImagesEEG,001,100620,
AFNE01.JPG,AFNE01.JPG,AFNE01.JPG,AFNE01.JPG,AFNE01.JPG,AFNE01.JPG,,,,,,,,,,,,,3,4,34,0,,,,,,,,,,,AMSA17.jpg,AMSA12.jpg,AMNE14.jpg,AMNE11.jpg,AMSA12.jpg,MS,2,num_6,32,num_8,0.933430431876,,,2017_Jun_06_1452,60.0071405269,FEMA4ImagesEEG,001,100620,
AFNE01.JPG,AFNE01.JPG,AFNE01.JPG,AFNE01.JPG,AFNE01.JPG,AFNE01.JPG,,,,,,,,,,,,,3,5,35,7,,,,,,,,,,,AMSA01.jpg,AMNE09.jpg,AMNE03.jpg,AMSA07.jpg,AMSA01.jpg,MS,2,num_8,32,num_6,0.650149096036,,,2017_Jun_06_1452,60.0071405269,FEMA4ImagesEEG,001,100620,
AFNE01.JPG,AFNE01.JPG,AFNE01.JPG,AFNE01.JPG,AFNE01.JPG,AFNE01.JPG,,,,,,,,,,,,,3,6,36,6,,,,,,,,,,,AMSA18.jpg,AMNE15.jpg,AMSA15.jpg,AMNE11.jpg,AMNE15.jpg,MN,1,num_6,32,num_8,1.3334521139,,,2017_Jun_06_1452,60.0071405269,FEMA4ImagesEEG,001,100620,
AFNE01.JPG,AFNE01.JPG,AFNE01.JPG,AFNE01.JPG,AFNE01.JPG,AFNE01.JPG,,,,,,,,,,,,,3,7,37,4,,,,,,,,,,,AMNE13.jpg,AMSA15.jpg,AMSA06.jpg,AMNE19.jpg,AMNE13.jpg,MN,1,num_8,32,num_2,0.88338570483,,,2017_Jun_06_1452,60.0071405269,FEMA4ImagesEEG,001,100620,
AFNE01.JPG,AFNE01.JPG,AFNE01.JPG,AFNE01.JPG,AFNE01.JPG,AFNE01.JPG,,,,,,,,,,,,,3,8,38,5,,,,,,,,,,,AMNE19.jpg,AMNE09.jpg,AMSA14.jpg,AMSA16.jpg,AMSA14.jpg,MS,2,num_2,32,num_6,0.483427208615,,,2017_Jun_06_1452,60.0071405269,FEMA4ImagesEEG,001,100620,
AFNE01.JPG,AFNE01.JPG,AFNE01.JPG,AFNE01.JPG,AFNE01.JPG,AFNE01.JPG,,,,,,,,,,,,,3,9,39,9,,,,,,,,,,,AMNE11.jpg,AMSA12.jpg,AMSA07.jpg,AMNE12.jpg,AMNE11.jpg,MN,1,num_8,16,num_8,0.950103454757,,,2017_Jun_06_1452,60.0071405269,FEMA4ImagesEEG,001,100620,
AFNE01.JPG,AFNE01.JPG,AFNE01.JPG,AFNE01.JPG,AFNE01.JPG,AFNE01.JPG,,,,,,,,,,,,,4,0,40,4,,,,,,,,,,,AMNE04.jpg,AMSA08.jpg,AMSA11.jpg,AMNE18.jpg,AMSA08.jpg,MS,2,num_6,32,num_2,1.48338743695,,,2017_Jun_06_1452,60.0071405269,FEMA4ImagesEEG,001,100620,
AFNE01.JPG,AFNE01.JPG,AFNE01.JPG,AFNE01.JPG,AFNE01.JPG,AFNE01.JPG,,,,,,,,,,,,,4,1,41,1,,,,,,,,,,,AMNE06.jpg,AMSA11.jpg,AMNE02.jpg,AMSA19.jpg,AMNE06.jpg,MN,1,num_8,32,num_2,1.48340443615,,,2017_Jun_06_1452,60.0071405269,FEMA4ImagesEEG,001,100620,
AFNE01.JPG,AFNE01.JPG,AFNE01.JPG,AFNE01.JPG,AFNE01.JPG,AFNE01.JPG,,,,,,,,,,,,,4,2,42,7,,,,,,,,,,,AMNE06.jpg,AMSA15.jpg,AMNE10.jpg,AMSA17.jpg,AMNE06.jpg,MN,1,num_8,16,num_8,0.800103021553,,,2017_Jun_06_1452,60.0071405269,FEMA4ImagesEEG,001,100620,
AFNE01.JPG,AFNE01.JPG,AFNE01.JPG,AFNE01.JPG,AFNE01.JPG,AFNE01.JPG,,,,,,,,,,,,,4,3,43,2,,,,,,,,,,,AMNE18.jpg,AMNE12.jpg,AMSA14.jpg,AMSA10.jpg,AMNE18.jpg,MN,1,num_8,16,num_8,1.23333218927,,,2017_Jun_06_1452,60.0071405269,FEMA4ImagesEEG,001,100620,
AFNE01.JPG,AFNE01.JPG,AFNE01.JPG,AFNE01.JPG,AFNE01.JPG,AFNE01.JPG,,,,,,,,,,,,,4,4,44,5,,,,,,,,,,,AMNE05.jpg,AMSA06.jpg,AMSA20.jpg,AMNE12.jpg,AMSA06.jpg,MS,2,num_6,32,num_4,0.983400426805,,,2017_Jun_06_1452,60.0071405269,FEMA4ImagesEEG,001,100620,
AFNE01.JPG,AFNE01.JPG,AFNE01.JPG,AFNE01.JPG,AFNE01.JPG,AFNE01.JPG,,,,,,,,,,,,,4,5,45,8,,,,,,,,,,,AMNE18.jpg,AMSA08.jpg,AMSA16.jpg,AMNE02.jpg,AMSA16.jpg,MS,2,num_2,32,num_6,1.13345602714,,,2017_Jun_06_1452,60.0071405269,FEMA4ImagesEEG,001,100620,
AFNE01.JPG,AFNE01.JPG,AFNE01.JPG,AFNE01.JPG,AFNE01.JPG,AFNE01.JPG,,,,,,,,,,,,,4,6,46,0,,,,,,,,,,,AMNE12.jpg,AMNE15.jpg,AMSA19.jpg,AMSA10.jpg,AMNE12.jpg,MN,1,num_8,16,num_8,1.68336652452,,,2017_Jun_06_1452,60.0071405269,FEMA4ImagesEEG,001,100620,
AFNE01.JPG,AFNE01.JPG,AFNE01.JPG,AFNE01.JPG,AFNE01.JPG,AFNE01.JPG,,,,,,,,,,,,,4,7,47,9,,,,,,,,,,,AMNE11.jpg,AMSA12.jpg,AMNE09.jpg,AMSA17.jpg,AMSA12.jpg,MS,2,num_6,32,num_4,0.733496889472,,,2017_Jun_06_1452,60.0071405269,FEMA4ImagesEEG,001,100620,
AFNE01.JPG,AFNE01.JPG,AFNE01.JPG,AFNE01.JPG,AFNE01.JPG,AFNE01.JPG,,,,,,,,,,,,,4,8,48,6,,,,,,,,,,,AMNE06.jpg,AMSA09.jpg,AMSA15.jpg,AMNE14.jpg,AMNE06.jpg,MN,1,num_8,16,num_8,0.983433462912,,,2017_Jun_06_1452,60.0071405269,FEMA4ImagesEEG,001,100620,
AFNE01.JPG,AFNE01.JPG,AFNE01.JPG,AFNE01.JPG,AFNE01.JPG,AFNE01.JPG,,,,,,,,,,,,,4,9,49,3,,,,,,,,,,,AMNE20.jpg,AMNE16.jpg,AMSA04.jpg,AMSA20.jpg,AMNE20.jpg,MN,1,num_8,32,num_2,1.80002957233,,,2017_Jun_06_1452,60.0071405269,FEMA4ImagesEEG,001,100620,
AFNE01.JPG,AFNE01.JPG,AFNE01.JPG,AFNE01.JPG,AFNE01.JPG,AFNE01.JPG,,,,,,,,,,,,,5,0,50,7,,,,,,,,,,,AMSA19.jpg,AMNE13.jpg,AMNE14.jpg,AMSA11.jpg,AMNE14.jpg,MN,1,num_2,16,num_2,1.23341814755,,,2017_Jun_06_1452,60.0071405269,FEMA4ImagesEEG,001,100620,
AFNE01.JPG,AFNE01.JPG,AFNE01.JPG,AFNE01.JPG,AFNE01.JPG,AFNE01.JPG,,,,,,,,,,,,,5,1,51,1,,,,,,,,,,,AMNE02.jpg,AMSA13.jpg,AMSA16.jpg,AMNE05.jpg,AMSA13.jpg,MS,2,num_6,32,num_4,1.03355163964,,,2017_Jun_06_1452,60.0071405269,FEMA4ImagesEEG,001,100620,
AFNE01.JPG,AFNE01.JPG,AFNE01.JPG,AFNE01.JPG,AFNE01.JPG,AFNE01.JPG,,,,,,,,,,,,,5,2,52,6,,,,,,,,,,,AMNE18.jpg,AMSA18.jpg,AMNE06.jpg,AMSA04.jpg,AMSA18.jpg,MS,2,num_6,32,num_4,1.26670229016,,,2017_Jun_06_1452,60.0071405269,FEMA4ImagesEEG,001,100620,
AFNE01.JPG,AFNE01.JPG,AFNE01.JPG,AFNE01.JPG,AFNE01.JPG,AFNE01.JPG,,,,,,,,,,,,,5,3,53,8,,,,,,,,,,,AMNE18.jpg,AMSA12.jpg,AMNE11.jpg,AMSA09.jpg,AMNE11.jpg,MN,1,num_2,32,num_8,0.899946468417,,,2017_Jun_06_1452,60.0071405269,FEMA4ImagesEEG,001,100620,
AFNE01.JPG,AFNE01.JPG,AFNE01.JPG,AFNE01.JPG,AFNE01.JPG,AFNE01.JPG,,,,,,,,,,,,,5,4,54,3,,,,,,,,,,,AMSA17.jpg,AMSA19.jpg,AMNE19.jpg,AMNE13.jpg,AMNE13.jpg,MN,1,num_4,32,num_6,0.816757762106,,,2017_Jun_06_1452,60.0071405269,FEMA4ImagesEEG,001,100620,
AFNE01.JPG,AFNE01.JPG,AFNE01.JPG,AFNE01.JPG,AFNE01.JPG,AFNE01.JPG,,,,,,,,,,,,,5,5,55,5,,,,,,,,,,,AMSA05.jpg,AMNE03.jpg,AMNE13.jpg,AMSA17.jpg,AMSA05.jpg,MS,2,num_8,32,num_2,0.950002421625,,,2017_Jun_06_1452,60.0071405269,FEMA4ImagesEEG,001,100620,
AFNE01.JPG,AFNE01.JPG,AFNE01.JPG,AFNE01.JPG,AFNE01.JPG,AFNE01.JPG,,,,,,,,,,,,,5,6,56,4,,,,,,,,,,,AMSA09.jpg,AMSA18.jpg,AMNE17.jpg,AMNE06.jpg,AMNE17.jpg,MN,1,num_2,32,num_4,1.35013892851,,,2017_Jun_06_1452,60.0071405269,FEMA4ImagesEEG,001,100620,
AFNE01.JPG,AFNE01.JPG,AFNE01.JPG,AFNE01.JPG,AFNE01.JPG,AFNE01.JPG,,,,,,,,,,,,,5,7,57,2,,,,,,,,,,,AMNE01.jpg,AMSA03.jpg,AMNE03.jpg,AMSA14.jpg,AMSA03.jpg,MS,2,num_6,32,num_8,2.64999514073,,,2017_Jun_06_1452,60.0071405269,FEMA4ImagesEEG,001,100620,
AFNE01.JPG,AFNE01.JPG,AFNE01.JPG,AFNE01.JPG,AFNE01.JPG,AFNE01.JPG,,,,,,,,,,,,,5,8,58,0,,,,,,,,,,,AMNE11.jpg,AMNE17.jpg,AMSA06.jpg,AMSA12.jpg,AMNE17.jpg,MN,1,num_6,32,num_2,0.916764144786,,,2017_Jun_06_1452,60.0071405269,FEMA4ImagesEEG,001,100620,
AFNE01.JPG,AFNE01.JPG,AFNE01.JPG,AFNE01.JPG,AFNE01.JPG,AFNE01.JPG,,,,,,,,,,,,,5,9,59,9,,,,,,,,,,,AMNE10.jpg,AMNE08.jpg,AMSA06.jpg,AMSA17.jpg,AMSA06.jpg,MS,2,num_2,32,num_4,0.716782491188,,,2017_Jun_06_1452,60.0071405269,FEMA4ImagesEEG,001,100620,
,,,,,,,,,,,,,,,,,,,,,,,,,,,,,,,,,,,,,,,,,,,space,31.2313285272,2017_Jun_06_1452,60.0071405269,FEMA4ImagesEEG,001,100620,
AFNE01.JPG,AFNE01.JPG,AFNE01.JPG,AFNE01.JPG,AFNE01.JPG,AFNE01.JPG,,,,,,,,,,,,,,,,,0,0,0,9,,,,,,,AFSA05.jpg,AFSA03.jpg,AFNE01.jpg,AFNE13.jpg,AFNE01.jpg,FN,3,num_2,32,num_8,0.667038297513,,,2017_Jun_06_1452,60.0071405269,FEMA4ImagesEEG,001,100620,
AFNE01.JPG,AFNE01.JPG,AFNE01.JPG,AFNE01.JPG,AFNE01.JPG,AFNE01.JPG,,,,,,,,,,,,,,,,,0,1,1,7,,,,,,,AFSA19.jpg,AFSA15.jpg,AFNE13.jpg,AFNE08.jpg,AFNE13.jpg,FN,3,num_2,16,num_2,0.566880204482,,,2017_Jun_06_1452,60.0071405269,FEMA4ImagesEEG,001,100620,
AFNE01.JPG,AFNE01.JPG,AFNE01.JPG,AFNE01.JPG,AFNE01.JPG,AFNE01.JPG,,,,,,,,,,,,,,,,,0,2,2,6,,,,,,,AFSA16.jpg,AFNE14.jpg,AFSA08.jpg,AFNE02.jpg,AFSA16.jpg,FS,4,num_8,32,num_4,0.91678980412,,,2017_Jun_06_1452,60.0071405269,FEMA4ImagesEEG,001,100620,
AFNE01.JPG,AFNE01.JPG,AFNE01.JPG,AFNE01.JPG,AFNE01.JPG,AFNE01.JPG,,,,,,,,,,,,,,,,,0,3,3,0,,,,,,,AFSA20.jpg,AFNE20.jpg,AFSA17.jpg,AFNE19.jpg,AFSA20.jpg,FS,4,num_8,16,num_8,1.13373122201,,,2017_Jun_06_1452,60.0071405269,FEMA4ImagesEEG,001,100620,
AFNE01.JPG,AFNE01.JPG,AFNE01.JPG,AFNE01.JPG,AFNE01.JPG,AFNE01.JPG,,,,,,,,,,,,,,,,,0,4,4,4,,,,,,,AFSA11.jpg,AFSA06.jpg,AFNE03.jpg,AFNE15.jpg,AFNE03.jpg,FN,3,num_2,32,num_6,0.916728863493,,,2017_Jun_06_1452,60.0071405269,FEMA4ImagesEEG,001,100620,
AFNE01.JPG,AFNE01.JPG,AFNE01.JPG,AFNE01.JPG,AFNE01.JPG,AFNE01.JPG,,,,,,,,,,,,,,,,,0,5,5,3,,,,,,,AFSA05.jpg,AFNE09.jpg,AFNE03.jpg,AFSA04.jpg,AFNE09.jpg,FN,3,num_6,32,num_2,1.16675845184,,,2017_Jun_06_1452,60.0071405269,FEMA4ImagesEEG,001,100620,
AFNE01.JPG,AFNE01.JPG,AFNE01.JPG,AFNE01.JPG,AFNE01.JPG,AFNE01.JPG,,,,,,,,,,,,,,,,,0,6,6,2,,,,,,,AFSA17.jpg,AFNE16.jpg,AFNE07.jpg,AFSA19.jpg,AFNE07.jpg,FN,3,num_2,16,num_2,1.00015908689,,,2017_Jun_06_1452,60.0071405269,FEMA4ImagesEEG,001,100620,
AFNE01.JPG,AFNE01.JPG,AFNE01.JPG,AFNE01.JPG,AFNE01.JPG,AFNE01.JPG,,,,,,,,,,,,,,,,,0,7,7,8,,,,,,,AFSA12.jpg,AFSA09.jpg,AFNE16.jpg,AFNE02.jpg,AFSA09.jpg,FS,4,num_6,32,num_4,0.966779684648,,,2017_Jun_06_1452,60.0071405269,FEMA4ImagesEEG,001,100620,
AFNE01.JPG,AFNE01.JPG,AFNE01.JPG,AFNE01.JPG,AFNE01.JPG,AFNE01.JPG,,,,,,,,,,,,,,,,,0,8,8,5,,,,,,,AFSA01.jpg,AFNE13.jpg,AFNE07.jpg,AFSA13.jpg,AFNE13.jpg,FN,3,num_6,16,num_6,0.716836375417,,,2017_Jun_06_1452,60.0071405269,FEMA4ImagesEEG,001,100620,
AFNE01.JPG,AFNE01.JPG,AFNE01.JPG,AFNE01.JPG,AFNE01.JPG,AFNE01.JPG,,,,,,,,,,,,,,,,,0,9,9,1,,,,,,,AFNE04.jpg,AFSA12.jpg,AFNE09.jpg,AFSA03.jpg,AFNE09.jpg,FN,3,num_2,32,num_4,0.53346135118,,,2017_Jun_06_1452,60.0071405269,FEMA4ImagesEEG,001,100620,
AFNE01.JPG,AFNE01.JPG,AFNE01.JPG,AFNE01.JPG,AFNE01.JPG,AFNE01.JPG,,,,,,,,,,,,,,,,,1,0,10,9,,,,,,,AFSA13.jpg,AFSA02.jpg,AFNE12.jpg,AFNE11.jpg,AFNE12.jpg,FN,3,num_2,16,num_2,1.10014494229,,,2017_Jun_06_1452,60.0071405269,FEMA4ImagesEEG,001,100620,
AFNE01.JPG,AFNE01.JPG,AFNE01.JPG,AFNE01.JPG,AFNE01.JPG,AFNE01.JPG,,,,,,,,,,,,,,,,,1,1,11,7,,,,,,,AFNE17.jpg,AFNE14.jpg,AFSA12.jpg,AFSA03.jpg,AFSA12.jpg,FS,4,num_2,32,num_6,1.21672812593,,,2017_Jun_06_1452,60.0071405269,FEMA4ImagesEEG,001,100620,
AFNE01.JPG,AFNE01.JPG,AFNE01.JPG,AFNE01.JPG,AFNE01.JPG,AFNE01.JPG,,,,,,,,,,,,,,,,,1,2,12,4,,,,,,,AFNE18.jpg,AFSA17.jpg,AFNE06.jpg,AFSA16.jpg,AFSA16.jpg,FS,4,num_4,32,num_8,1.40011180984,,,2017_Jun_06_1452,60.0071405269,FEMA4ImagesEEG,001,100620,
AFNE01.JPG,AFNE01.JPG,AFNE01.JPG,AFNE01.JPG,AFNE01.JPG,AFNE01.JPG,,,,,,,,,,,,,,,,,1,3,13,2,,,,,,,AFSA16.jpg,AFNE18.jpg,AFSA08.jpg,AFNE07.jpg,AFSA16.jpg,FS,4,num_8,32,num_4,1.18345969939,,,2017_Jun_06_1452,60.0071405269,FEMA4ImagesEEG,001,100620,
AFNE01.JPG,AFNE01.JPG,AFNE01.JPG,AFNE01.JPG,AFNE01.JPG,AFNE01.JPG,,,,,,,,,,,,,,,,,1,4,14,6,,,,,,,AFNE08.jpg,AFSA14.jpg,AFSA06.jpg,AFNE11.jpg,AFSA06.jpg,FS,4,num_2,16,num_2,1.06687395019,,,2017_Jun_06_1452,60.0071405269,FEMA4ImagesEEG,001,100620,
AFNE01.JPG,AFNE01.JPG,AFNE01.JPG,AFNE01.JPG,AFNE01.JPG,AFNE01.JPG,,,,,,,,,,,,,,,,,1,5,15,8,,,,,,,AFNE20.jpg,AFNE10.jpg,AFSA20.jpg,AFSA03.jpg,AFSA03.jpg,FS,4,num_4,32,num_8,0.716764850542,,,2017_Jun_06_1452,60.0071405269,FEMA4ImagesEEG,001,100620,
AFNE01.JPG,AFNE01.JPG,AFNE01.JPG,AFNE01.JPG,AFNE01.JPG,AFNE01.JPG,,,,,,,,,,,,,,,,,1,6,16,0,,,,,,,AFSA15.jpg,AFNE09.jpg,AFNE15.jpg,AFSA05.jpg,AFSA05.jpg,FS,4,num_4,32,num_6,0.750111216446,,,2017_Jun_06_1452,60.0071405269,FEMA4ImagesEEG,001,100620,
AFNE01.JPG,AFNE01.JPG,AFNE01.JPG,AFNE01.JPG,AFNE01.JPG,AFNE01.JPG,,,,,,,,,,,,,,,,,1,7,17,3,,,,,,,AFSA07.jpg,AFNE17.jpg,AFNE11.jpg,AFSA09.jpg,AFNE11.jpg,FN,3,num_2,16,num_2,0.800257618306,,,2017_Jun_06_1452,60.0071405269,FEMA4ImagesEEG,001,100620,
AFNE01.JPG,AFNE01.JPG,AFNE01.JPG,AFNE01.JPG,AFNE01.JPG,AFNE01.JPG,,,,,,,,,,,,,,,,,1,8,18,5,,,,,,,AFNE09.jpg,AFSA04.jpg,AFNE02.jpg,AFSA07.jpg,AFNE02.jpg,FN,3,num_2,16,num_2,0.766772051109,,,2017_Jun_06_1452,60.0071405269,FEMA4ImagesEEG,001,100620,
AFNE01.JPG,AFNE01.JPG,AFNE01.JPG,AFNE01.JPG,AFNE01.JPG,AFNE01.JPG,,,,,,,,,,,,,,,,,1,9,19,1,,,,,,,AFSA10.jpg,AFNE07.jpg,AFNE14.jpg,AFSA03.jpg,AFNE07.jpg,FN,3,num_6,16,num_6,1.10012922599,,,2017_Jun_06_1452,60.0071405269,FEMA4ImagesEEG,001,100620,
AFNE01.JPG,AFNE01.JPG,AFNE01.JPG,AFNE01.JPG,AFNE01.JPG,AFNE01.JPG,,,,,,,,,,,,,,,,,2,0,20,0,,,,,,,AFNE08.jpg,AFNE04.jpg,AFSA18.jpg,AFSA15.jpg,AFNE04.jpg,FN,3,num_6,32,num_4,1.08345941082,,,2017_Jun_06_1452,60.0071405269,FEMA4ImagesEEG,001,100620,
AFNE01.JPG,AFNE01.JPG,AFNE01.JPG,AFNE01.JPG,AFNE01.JPG,AFNE01.JPG,,,,,,,,,,,,,,,,,2,1,21,3,,,,,,,AFNE02.jpg,AFSA18.jpg,AFNE03.jpg,AFSA03.jpg,AFSA18.jpg,FS,4,num_6,32,num_2,1.00013567298,,,2017_Jun_06_1452,60.0071405269,FEMA4ImagesEEG,001,100620,
AFNE01.JPG,AFNE01.JPG,AFNE01.JPG,AFNE01.JPG,AFNE01.JPG,AFNE01.JPG,,,,,,,,,,,,,,,,,2,2,22,6,,,,,,,AFNE19.jpg,AFSA08.jpg,AFSA14.jpg,AFNE16.jpg,AFSA14.jpg,FS,4,num_2,16,num_2,1.63349082717,,,2017_Jun_06_1452,60.0071405269,FEMA4ImagesEEG,001,100620,
AFNE01.JPG,AFNE01.JPG,AFNE01.JPG,AFNE01.JPG,AFNE01.JPG,AFNE01.JPG,,,,,,,,,,,,,,,,,2,3,23,5,,,,,,,AFSA12.jpg,AFNE06.jpg,AFSA17.jpg,AFNE19.jpg,AFSA12.jpg,FS,4,num_8,16,num_8,2.08322783676,,,2017_Jun_06_1452,60.0071405269,FEMA4ImagesEEG,001,100620,
AFNE01.JPG,AFNE01.JPG,AFNE01.JPG,AFNE01.JPG,AFNE01.JPG,AFNE01.JPG,,,,,,,,,,,,,,,,,2,4,24,2,,,,,,,AFNE06.jpg,AFSA04.jpg,AFSA07.jpg,AFNE09.jpg,AFSA04.jpg,FS,4,num_6,32,num_4,0.783583954209,,,2017_Jun_06_1452,60.0071405269,FEMA4ImagesEEG,001,100620,
AFNE01.JPG,AFNE01.JPG,AFNE01.JPG,AFNE01.JPG,AFNE01.JPG,AFNE01.JPG,,,,,,,,,,,,,,,,,2,5,25,4,,,,,,,AFSA20.jpg,AFNE04.jpg,AFNE17.jpg,AFSA09.jpg,AFSA20.jpg,FS,4,num_8,32,num_2,0.816915245261,,,2017_Jun_06_1452,60.0071405269,FEMA4ImagesEEG,001,100620,
AFNE01.JPG,AFNE01.JPG,AFNE01.JPG,AFNE01.JPG,AFNE01.JPG,AFNE01.JPG,,,,,,,,,,,,,,,,,2,6,26,8,,,,,,,AFSA10.jpg,AFNE01.jpg,AFNE16.jpg,AFSA04.jpg,AFSA10.jpg,FS,4,num_8,32,num_6,0.667137726676,,,2017_Jun_06_1452,60.0071405269,FEMA4ImagesEEG,001,100620,
AFNE01.JPG,AFNE01.JPG,AFNE01.JPG,AFNE01.JPG,AFNE01.JPG,AFNE01.JPG,,,,,,,,,,,,,,,,,2,7,27,1,,,,,,,AFSA13.jpg,AFSA03.jpg,AFNE11.jpg,AFNE08.jpg,AFSA13.jpg,FS,4,num_8,32,num_4,1.05013293074,,,2017_Jun_06_1452,60.0071405269,FEMA4ImagesEEG,001,100620,
AFNE01.JPG,AFNE01.JPG,AFNE01.JPG,AFNE01.JPG,AFNE01.JPG,AFNE01.JPG,,,,,,,,,,,,,,,,,2,8,28,7,,,,,,,AFSA04.jpg,AFNE14.jpg,AFSA16.jpg,AFNE08.jpg,AFSA16.jpg,FS,4,num_2,16,num_2,0.850117278518,,,2017_Jun_06_1452,60.0071405269,FEMA4ImagesEEG,001,100620,
AFNE01.JPG,AFNE01.JPG,AFNE01.JPG,AFNE01.JPG,AFNE01.JPG,AFNE01.JPG,,,,,,,,,,,,,,,,,2,9,29,9,,,,,,,AFSA04.jpg,AFNE04.jpg,AFSA09.jpg,AFNE12.jpg,AFSA09.jpg,FS,4,num_2,32,num_8,1.88336998853,,,2017_Jun_06_1452,60.0071405269,FEMA4ImagesEEG,001,100620,
AFNE01.JPG,AFNE01.JPG,AFNE01.JPG,AFNE01.JPG,AFNE01.JPG,AFNE01.JPG,,,,,,,,,,,,,,,,,3,0,30,1,,,,,,,AFNE09.jpg,AFNE12.jpg,AFSA16.jpg,AFSA12.jpg,AFSA12.jpg,FS,4,num_4,16,num_4,1.68340052292,,,2017_Jun_06_1452,60.0071405269,FEMA4ImagesEEG,001,100620,
AFNE01.JPG,AFNE01.JPG,AFNE01.JPG,AFNE01.JPG,AFNE01.JPG,AFNE01.JPG,,,,,,,,,,,,,,,,,3,1,31,9,,,,,,,AFSA16.jpg,AFNE10.jpg,AFSA15.jpg,AFNE01.jpg,AFNE10.jpg,FN,3,num_6,32,num_2,1.61669624411,,,2017_Jun_06_1452,60.0071405269,FEMA4ImagesEEG,001,100620,
AFNE01.JPG,AFNE01.JPG,AFNE01.JPG,AFNE01.JPG,AFNE01.JPG,AFNE01.JPG,,,,,,,,,,,,,,,,,3,2,32,5,,,,,,,AFSA17.jpg,AFSA14.jpg,AFNE01.jpg,AFNE06.jpg,AFNE06.jpg,FN,3,num_4,16,num_4,0.700161107583,,,2017_Jun_06_1452,60.0071405269,FEMA4ImagesEEG,001,100620,
AFNE01.JPG,AFNE01.JPG,AFNE01.JPG,AFNE01.JPG,AFNE01.JPG,AFNE01.JPG,,,,,,,,,,,,,,,,,3,3,33,2,,,,,,,AFSA05.jpg,AFNE04.jpg,AFSA18.jpg,AFNE17.jpg,AFSA05.jpg,FS,4,num_8,16,num_8,1.14981215866,,,2017_Jun_06_1452,60.0071405269,FEMA4ImagesEEG,001,100620,
AFNE01.JPG,AFNE01.JPG,AFNE01.JPG,AFNE01.JPG,AFNE01.JPG,AFNE01.JPG,,,,,,,,,,,,,,,,,3,4,34,3,,,,,,,AFNE01.jpg,AFSA05.jpg,AFSA20.jpg,AFNE08.jpg,AFSA20.jpg,FS,4,num_2,16,num_2,1.51672482211,,,2017_Jun_06_1452,60.0071405269,FEMA4ImagesEEG,001,100620,
AFNE01.JPG,AFNE01.JPG,AFNE01.JPG,AFNE01.JPG,AFNE01.JPG,AFNE01.JPG,,,,,,,,,,,,,,,,,3,5,35,4,,,,,,,AFNE06.jpg,AFSA18.jpg,AFSA19.jpg,AFNE04.jpg,AFNE06.jpg,FN,3,num_8,16,num_8,0.850108939223,,,2017_Jun_06_1452,60.0071405269,FEMA4ImagesEEG,001,100620,
AFNE01.JPG,AFNE01.JPG,AFNE01.JPG,AFNE01.JPG,AFNE01.JPG,AFNE01.JPG,,,,,,,,,,,,,,,,,3,6,36,8,,,,,,,AFNE04.jpg,AFSA20.jpg,AFSA02.jpg,AFNE11.jpg,AFNE04.jpg,FN,3,num_8,16,num_8,0.817024297081,,,2017_Jun_06_1452,60.0071405269,FEMA4ImagesEEG,001,100620,
AFNE01.JPG,AFNE01.JPG,AFNE01.JPG,AFNE01.JPG,AFNE01.JPG,AFNE01.JPG,,,,,,,,,,,,,,,,,3,7,37,0,,,,,,,AFNE16.jpg,AFSA15.jpg,AFSA18.jpg,AFNE09.jpg,AFSA15.jpg,FS,4,num_6,32,num_8,2.01665762719,,,2017_Jun_06_1452,60.0071405269,FEMA4ImagesEEG,001,100620,
AFNE01.JPG,AFNE01.JPG,AFNE01.JPG,AFNE01.JPG,AFNE01.JPG,AFNE01.JPG,,,,,,,,,,,,,,,,,3,8,38,7,,,,,,,AFNE20.jpg,AFSA12.jpg,AFSA11.jpg,AFNE14.jpg,AFNE14.jpg,FN,3,num_4,32,num_8,1.55126979318,,,2017_Jun_06_1452,60.0071405269,FEMA4ImagesEEG,001,100620,
AFNE01.JPG,AFNE01.JPG,AFNE01.JPG,AFNE01.JPG,AFNE01.JPG,AFNE01.JPG,,,,,,,,,,,,,,,,,3,9,39,6,,,,,,,AFSA17.jpg,AFNE10.jpg,AFNE15.jpg,AFSA12.jpg,AFSA17.jpg,FS,4,num_8,16,num_8,0.800138944527,,,2017_Jun_06_1452,60.0071405269,FEMA4ImagesEEG,001,100620,
AFNE01.JPG,AFNE01.JPG,AFNE01.JPG,AFNE01.JPG,AFNE01.JPG,AFNE01.JPG,,,,,,,,,,,,,,,,,4,0,40,2,,,,,,,AFNE08.jpg,AFSA09.jpg,AFSA07.jpg,AFNE13.jpg,AFNE08.jpg,FN,3,num_8,32,num_2,0.933435243089,,,2017_Jun_06_1452,60.0071405269,FEMA4ImagesEEG,001,100620,
AFNE01.JPG,AFNE01.JPG,AFNE01.JPG,AFNE01.JPG,AFNE01.JPG,AFNE01.JPG,,,,,,,,,,,,,,,,,4,1,41,8,,,,,,,AFSA04.jpg,AFSA06.jpg,AFNE08.jpg,AFNE19.jpg,AFSA04.jpg,FS,4,num_8,16,num_8,0.650163529208,,,2017_Jun_06_1452,60.0071405269,FEMA4ImagesEEG,001,100620,
AFNE01.JPG,AFNE01.JPG,AFNE01.JPG,AFNE01.JPG,AFNE01.JPG,AFNE01.JPG,,,,,,,,,,,,,,,,,4,2,42,9,,,,,,,AFSA10.jpg,AFNE04.jpg,AFSA17.jpg,AFNE17.jpg,AFSA17.jpg,FS,4,num_2,32,num_6,1.25011939532,,,2017_Jun_06_1452,60.0071405269,FEMA4ImagesEEG,001,100620,
AFNE01.JPG,AFNE01.JPG,AFNE01.JPG,AFNE01.JPG,AFNE01.JPG,AFNE01.JPG,,,,,,,,,,,,,,,,,4,3,43,4,,,,,,,AFNE10.jpg,AFSA09.jpg,AFSA16.jpg,AFNE19.jpg,AFSA09.jpg,FS,4,num_6,32,num_2,0.916763182497,,,2017_Jun_06_1452,60.0071405269,FEMA4ImagesEEG,001,100620,
AFNE01.JPG,AFNE01.JPG,AFNE01.JPG,AFNE01.JPG,AFNE01.JPG,AFNE01.JPG,,,,,,,,,,,,,,,,,4,4,44,7,,,,,,,AFNE19.jpg,AFNE03.jpg,AFSA12.jpg,AFSA15.jpg,AFNE03.jpg,FN,3,num_6,32,num_4,0.766742543085,,,2017_Jun_06_1452,60.0071405269,FEMA4ImagesEEG,001,100620,
AFNE01.JPG,AFNE01.JPG,AFNE01.JPG,AFNE01.JPG,AFNE01.JPG,AFNE01.JPG,,,,,,,,,,,,,,,,,4,5,45,0,,,,,,,AFSA18.jpg,AFNE19.jpg,AFNE18.jpg,AFSA02.jpg,AFSA02.jpg,FS,4,num_4,32,num_8,0.700171050616,,,2017_Jun_06_1452,60.0071405269,FEMA4ImagesEEG,001,100620,
AFNE01.JPG,AFNE01.JPG,AFNE01.JPG,AFNE01.JPG,AFNE01.JPG,AFNE01.JPG,,,,,,,,,,,,,,,,,4,6,46,3,,,,,,,AFNE14.jpg,AFSA18.jpg,AFNE12.jpg,AFSA16.jpg,AFNE14.jpg,FN,3,num_8,32,num_2,0.783456620295,,,2017_Jun_06_1452,60.0071405269,FEMA4ImagesEEG,001,100620,
AFNE01.JPG,AFNE01.JPG,AFNE01.JPG,AFNE01.JPG,AFNE01.JPG,AFNE01.JPG,,,,,,,,,,,,,,,,,4,7,47,1,,,,,,,AFNE13.jpg,AFSA10.jpg,AFNE17.jpg,AFSA12.jpg,AFNE17.jpg,FN,3,num_2,32,num_8,1.01678111195,,,2017_Jun_06_1452,60.0071405269,FEMA4ImagesEEG,001,100620,
AFNE01.JPG,AFNE01.JPG,AFNE01.JPG,AFNE01.JPG,AFNE01.JPG,AFNE01.JPG,,,,,,,,,,,,,,,,,4,8,48,6,,,,,,,AFSA06.jpg,AFNE20.jpg,AFSA16.jpg,AFNE05.jpg,AFNE20.jpg,FN,3,num_6,16,num_6,1.00009654276,,,2017_Jun_06_1452,60.0071405269,FEMA4ImagesEEG,001,100620,
AFNE01.JPG,AFNE01.JPG,AFNE01.JPG,AFNE01.JPG,AFNE01.JPG,AFNE01.JPG,,,,,,,,,,,,,,,,,4,9,49,5,,,,,,,AFSA02.jpg,AFNE06.jpg,AFNE07.jpg,AFSA01.jpg,AFSA02.jpg,FS,4,num_8,32,num_4,0.850299779559,,,2017_Jun_06_1452,60.0071405269,FEMA4ImagesEEG,001,100620,
AFNE01.JPG,AFNE01.JPG,AFNE01.JPG,AFNE01.JPG,AFNE01.JPG,AFNE01.JPG,,,,,,,,,,,,,,,,,5,0,50,3,,,,,,,AFNE03.jpg,AFNE01.jpg,AFSA07.jpg,AFSA06.jpg,AFNE01.jpg,FN,3,num_6,32,num_8,0.850163144525,,,2017_Jun_06_1452,60.0071405269,FEMA4ImagesEEG,001,100620,
AFNE01.JPG,AFNE01.JPG,AFNE01.JPG,AFNE01.JPG,AFNE01.JPG,AFNE01.JPG,,,,,,,,,,,,,,,,,5,1,51,2,,,,,,,AFSA13.jpg,AFNE09.jpg,AFSA16.jpg,AFNE01.jpg,AFSA16.jpg,FS,4,num_2,32,num_8,0.83349236683,,,2017_Jun_06_1452,60.0071405269,FEMA4ImagesEEG,001,100620,
AFNE01.JPG,AFNE01.JPG,AFNE01.JPG,AFNE01.JPG,AFNE01.JPG,AFNE01.JPG,,,,,,,,,,,,,,,,,5,2,52,9,,,,,,,AFNE05.jpg,AFSA15.jpg,AFSA10.jpg,AFNE16.jpg,AFSA15.jpg,FS,4,num_6,32,num_2,0.716789547587,,,2017_Jun_06_1452,60.0071405269,FEMA4ImagesEEG,001,100620,
AFNE01.JPG,AFNE01.JPG,AFNE01.JPG,AFNE01.JPG,AFNE01.JPG,AFNE01.JPG,,,,,,,,,,,,,,,,,5,3,53,1,,,,,,,AFSA18.jpg,AFNE04.jpg,AFNE20.jpg,AFSA15.jpg,AFNE04.jpg,FN,3,num_6,16,num_6,0.933523125714,,,2017_Jun_06_1452,60.0071405269,FEMA4ImagesEEG,001,100620,
AFNE01.JPG,AFNE01.JPG,AFNE01.JPG,AFNE01.JPG,AFNE01.JPG,AFNE01.JPG,,,,,,,,,,,,,,,,,5,4,54,6,,,,,,,AFNE08.jpg,AFSA08.jpg,AFSA04.jpg,AFNE17.jpg,AFSA04.jpg,FS,4,num_2,32,num_4,0.850139088929,,,2017_Jun_06_1452,60.0071405269,FEMA4ImagesEEG,001,100620,
AFNE01.JPG,AFNE01.JPG,AFNE01.JPG,AFNE01.JPG,AFNE01.JPG,AFNE01.JPG,,,,,,,,,,,,,,,,,5,5,55,5,,,,,,,AFSA04.jpg,AFNE04.jpg,AFNE13.jpg,AFSA10.jpg,AFSA10.jpg,FS,4,num_4,32,num_6,0.633121334948,,,2017_Jun_06_1452,60.0071405269,FEMA4ImagesEEG,001,100620,
AFNE01.JPG,AFNE01.JPG,AFNE01.JPG,AFNE01.JPG,AFNE01.JPG,AFNE01.JPG,,,,,,,,,,,,,,,,,5,6,56,4,,,,,,,AFNE19.jpg,AFNE17.jpg,AFSA15.jpg,AFSA13.jpg,AFNE19.jpg,FN,3,num_8,32,num_2,0.850161219947,,,2017_Jun_06_1452,60.0071405269,FEMA4ImagesEEG,001,100620,
AFNE01.JPG,AFNE01.JPG,AFNE01.JPG,AFNE01.JPG,AFNE01.JPG,AFNE01.JPG,,,,,,,,,,,,,,,,,5,7,57,0,,,,,,,AFSA15.jpg,AFSA02.jpg,AFNE17.jpg,AFNE14.jpg,AFNE17.jpg,FN,3,num_2,16,num_2,0.783467846224,,,2017_Jun_06_1452,60.0071405269,FEMA4ImagesEEG,001,100620,
AFNE01.JPG,AFNE01.JPG,AFNE01.JPG,AFNE01.JPG,AFNE01.JPG,AFNE01.JPG,,,,,,,,,,,,,,,,,5,8,58,7,,,,,,,AFNE12.jpg,AFNE20.jpg,AFSA07.jpg,AFSA17.jpg,AFNE20.jpg,FN,3,num_6,16,num_6,1.40007941518,,,2017_Jun_06_1452,60.0071405269,FEMA4ImagesEEG,001,100620,
AFNE01.JPG,AFNE01.JPG,AFNE01.JPG,AFNE01.JPG,AFNE01.JPG,AFNE01.JPG,,,,,,,,,,,,,,,,,5,9,59,8,,,,,,,AFNE04.jpg,AFNE14.jpg,AFSA14.jpg,AFSA13.jpg,AFNE14.jpg,FN,3,num_6,32,num_2,0.766787125962,,,2017_Jun_06_1452,60.0071405269,FEMA4ImagesEEG,001,100620,
,,,,,,,,,,,,,,,,,,,,,,,,,,,,,,,,,,,,,,,,,,,space,16.7988511738,2017_Jun_06_1452,60.0071405269,FEMA4ImagesEEG,001,100620,
AFNE01.JPG,AFNE01.JPG,AFNE01.JPG,AFNE01.JPG,AFNE01.JPG,AFNE01.JPG,,,,,,,,,,,,,,,,,,,,,0,0,0,2,,,AMNE03.jpg,AMSA16.jpg,AMNE18.jpg,AMSA04.jpg,AMNE03.jpg,MN,1,num_8,32,num_4,0.600112066371,,,2017_Jun_06_1452,60.0071405269,FEMA4ImagesEEG,001,100620,
AFNE01.JPG,AFNE01.JPG,AFNE01.JPG,AFNE01.JPG,AFNE01.JPG,AFNE01.JPG,,,,,,,,,,,,,,,,,,,,,0,1,1,3,,,AMSA05.jpg,AMNE09.jpg,AMSA06.jpg,AMNE07.jpg,AMNE07.jpg,MN,1,num_4,32,num_6,0.650157435331,,,2017_Jun_06_1452,60.0071405269,FEMA4ImagesEEG,001,100620,
AFNE01.JPG,AFNE01.JPG,AFNE01.JPG,AFNE01.JPG,AFNE01.JPG,AFNE01.JPG,,,,,,,,,,,,,,,,,,,,,0,2,2,8,,,AMSA19.jpg,AMNE18.jpg,AMSA08.jpg,AMNE16.jpg,AMSA19.jpg,MS,2,num_8,16,num_8,0.916763503337,,,2017_Jun_06_1452,60.0071405269,FEMA4ImagesEEG,001,100620,
AFNE01.JPG,AFNE01.JPG,AFNE01.JPG,AFNE01.JPG,AFNE01.JPG,AFNE01.JPG,,,,,,,,,,,,,,,,,,,,,0,3,3,9,,,AMSA03.jpg,AMNE08.jpg,AMSA06.jpg,AMNE04.jpg,AMNE08.jpg,MN,1,num_6,32,num_2,0.750131423119,,,2017_Jun_06_1452,60.0071405269,FEMA4ImagesEEG,001,100620,
AFNE01.JPG,AFNE01.JPG,AFNE01.JPG,AFNE01.JPG,AFNE01.JPG,AFNE01.JPG,,,,,,,,,,,,,,,,,,,,,0,4,4,4,,,AMSA14.jpg,AMNE15.jpg,AMNE05.jpg,AMSA05.jpg,AMSA05.jpg,MS,2,num_4,32,num_2,0.816835381091,,,2017_Jun_06_1452,60.0071405269,FEMA4ImagesEEG,001,100620,
AFNE01.JPG,AFNE01.JPG,AFNE01.JPG,AFNE01.JPG,AFNE01.JPG,AFNE01.JPG,,,,,,,,,,,,,,,,,,,,,0,5,5,1,,,AMNE07.jpg,AMNE09.jpg,AMSA17.jpg,AMSA13.jpg,AMNE09.jpg,MN,1,num_6,16,num_6,0.55013501551,,,2017_Jun_06_1452,60.0071405269,FEMA4ImagesEEG,001,100620,
AFNE01.JPG,AFNE01.JPG,AFNE01.JPG,AFNE01.JPG,AFNE01.JPG,AFNE01.JPG,,,,,,,,,,,,,,,,,,,,,0,6,6,5,,,AMNE14.jpg,AMNE18.jpg,AMSA06.jpg,AMSA17.jpg,AMNE18.jpg,MN,1,num_6,32,num_8,0.683473972371,,,2017_Jun_06_1452,60.0071405269,FEMA4ImagesEEG,001,100620,
AFNE01.JPG,AFNE01.JPG,AFNE01.JPG,AFNE01.JPG,AFNE01.JPG,AFNE01.JPG,,,,,,,,,,,,,,,,,,,,,0,7,7,7,,,AMSA01.jpg,AMNE12.jpg,AMSA10.jpg,AMNE11.jpg,AMNE11.jpg,MN,1,num_4,16,num_4,0.699975719908,,,2017_Jun_06_1452,60.0071405269,FEMA4ImagesEEG,001,100620,
AFNE01.JPG,AFNE01.JPG,AFNE01.JPG,AFNE01.JPG,AFNE01.JPG,AFNE01.JPG,,,,,,,,,,,,,,,,,,,,,0,8,8,0,,,AMNE15.jpg,AMNE07.jpg,AMSA03.jpg,AMSA15.jpg,AMNE15.jpg,MN,1,num_8,32,num_2,0.766768843867,,,2017_Jun_06_1452,60.0071405269,FEMA4ImagesEEG,001,100620,
AFNE01.JPG,AFNE01.JPG,AFNE01.JPG,AFNE01.JPG,AFNE01.JPG,AFNE01.JPG,,,,,,,,,,,,,,,,,,,,,0,9,9,6,,,AMNE11.jpg,AMSA07.jpg,AMNE15.jpg,AMSA12.jpg,AMSA07.jpg,MS,2,num_6,16,num_6,0.850260007661,,,2017_Jun_06_1452,60.0071405269,FEMA4ImagesEEG,001,100620,
AFNE01.JPG,AFNE01.JPG,AFNE01.JPG,AFNE01.JPG,AFNE01.JPG,AFNE01.JPG,,,,,,,,,,,,,,,,,,,,,1,0,10,4,,,AMSA20.jpg,AMNE03.jpg,AMNE02.jpg,AMSA07.jpg,AMSA20.jpg,MS,2,num_8,32,num_6,0.966787703102,,,2017_Jun_06_1452,60.0071405269,FEMA4ImagesEEG,001,100620,
AFNE01.JPG,AFNE01.JPG,AFNE01.JPG,AFNE01.JPG,AFNE01.JPG,AFNE01.JPG,,,,,,,,,,,,,,,,,,,,,1,1,11,8,,,AMSA18.jpg,AMNE12.jpg,AMNE17.jpg,AMSA20.jpg,AMSA20.jpg,MS,2,num_4,32,num_2,1.26675841957,,,2017_Jun_06_1452,60.0071405269,FEMA4ImagesEEG,001,100620,
AFNE01.JPG,AFNE01.JPG,AFNE01.JPG,AFNE01.JPG,AFNE01.JPG,AFNE01.JPG,,,,,,,,,,,,,,,,,,,,,1,2,12,5,,,AMSA02.jpg,AMNE03.jpg,AMNE05.jpg,AMSA05.jpg,AMNE05.jpg,MN,1,num_2,16,num_2,0.95023110928,,,2017_Jun_06_1452,60.0071405269,FEMA4ImagesEEG,001,100620,
AFNE01.JPG,AFNE01.JPG,AFNE01.JPG,AFNE01.JPG,AFNE01.JPG,AFNE01.JPG,,,,,,,,,,,,,,,,,,,,,1,3,13,6,,,AMNE16.jpg,AMSA17.jpg,AMSA01.jpg,AMNE06.jpg,AMNE06.jpg,MN,1,num_4,32,num_8,0.783510183915,,,2017_Jun_06_1452,60.0071405269,FEMA4ImagesEEG,001,100620,
AFNE01.JPG,AFNE01.JPG,AFNE01.JPG,AFNE01.JPG,AFNE01.JPG,AFNE01.JPG,,,,,,,,,,,,,,,,,,,,,1,4,14,1,,,AMSA18.jpg,AMNE10.jpg,AMSA05.jpg,AMNE06.jpg,AMNE10.jpg,MN,1,num_6,32,num_4,0.76672939281,,,2017_Jun_06_1452,60.0071405269,FEMA4ImagesEEG,001,100620,
AFNE01.JPG,AFNE01.JPG,AFNE01.JPG,AFNE01.JPG,AFNE01.JPG,AFNE01.JPG,,,,,,,,,,,,,,,,,,,,,1,5,15,2,,,AMSA14.jpg,AMSA01.jpg,AMNE17.jpg,AMNE19.jpg,AMSA01.jpg,MS,2,num_6,16,num_6,0.316815334838,,,2017_Jun_06_1452,60.0071405269,FEMA4ImagesEEG,001,100620,
AFNE01.JPG,AFNE01.JPG,AFNE01.JPG,AFNE01.JPG,AFNE01.JPG,AFNE01.JPG,,,,,,,,,,,,,,,,,,,,,1,6,16,3,,,AMSA05.jpg,AMNE02.jpg,AMSA03.jpg,AMNE15.jpg,AMNE15.jpg,MN,1,num_4,32,num_2,0.650151982438,,,2017_Jun_06_1452,60.0071405269,FEMA4ImagesEEG,001,100620,
AFNE01.JPG,AFNE01.JPG,AFNE01.JPG,AFNE01.JPG,AFNE01.JPG,AFNE01.JPG,,,,,,,,,,,,,,,,,,,,,1,7,17,0,,,AMSA09.jpg,AMNE14.jpg,AMNE10.jpg,AMSA06.jpg,AMNE10.jpg,MN,1,num_2,32,num_8,0.883511435008,,,2017_Jun_06_1452,60.0071405269,FEMA4ImagesEEG,001,100620,
AFNE01.JPG,AFNE01.JPG,AFNE01.JPG,AFNE01.JPG,AFNE01.JPG,AFNE01.JPG,,,,,,,,,,,,,,,,,,,,,1,8,18,7,,,AMNE07.jpg,AMNE17.jpg,AMSA03.jpg,AMSA19.jpg,AMNE07.jpg,MN,1,num_8,16,num_8,0.766790012596,,,2017_Jun_06_1452,60.0071405269,FEMA4ImagesEEG,001,100620,
AFNE01.JPG,AFNE01.JPG,AFNE01.JPG,AFNE01.JPG,AFNE01.JPG,AFNE01.JPG,,,,,,,,,,,,,,,,,,,,,1,9,19,9,,,AMSA12.jpg,AMNE20.jpg,AMNE03.jpg,AMSA09.jpg,AMNE03.jpg,MN,1,num_2,16,num_2,1.75002301298,,,2017_Jun_06_1452,60.0071405269,FEMA4ImagesEEG,001,100620,
AFNE01.JPG,AFNE01.JPG,AFNE01.JPG,AFNE01.JPG,AFNE01.JPG,AFNE01.JPG,,,,,,,,,,,,,,,,,,,,,2,0,20,7,,,AMSA12.jpg,AMNE11.jpg,AMNE03.jpg,AMSA09.jpg,AMSA12.jpg,MS,2,num_8,16,num_8,0.683461463545,,,2017_Jun_06_1452,60.0071405269,FEMA4ImagesEEG,001,100620,
AFNE01.JPG,AFNE01.JPG,AFNE01.JPG,AFNE01.JPG,AFNE01.JPG,AFNE01.JPG,,,,,,,,,,,,,,,,,,,,,2,1,21,9,,,AMNE10.jpg,AMSA09.jpg,AMSA16.jpg,AMNE20.jpg,AMSA09.jpg,MS,2,num_6,16,num_6,0.650171547662,,,2017_Jun_06_1452,60.0071405269,FEMA4ImagesEEG,001,100620,
AFNE01.JPG,AFNE01.JPG,AFNE01.JPG,AFNE01.JPG,AFNE01.JPG,AFNE01.JPG,,,,,,,,,,,,,,,,,,,,,2,2,22,3,,,AMNE07.jpg,AMSA01.jpg,AMNE18.jpg,AMSA13.jpg,AMNE18.jpg,MN,1,num_2,32,num_8,0.900472802576,,,2017_Jun_06_1452,60.0071405269,FEMA4ImagesEEG,001,100620,
AFNE01.JPG,AFNE01.JPG,AFNE01.JPG,AFNE01.JPG,AFNE01.JPG,AFNE01.JPG,,,,,,,,,,,,,,,,,,,,,2,3,23,0,,,AMSA06.jpg,AMNE15.jpg,AMNE13.jpg,AMSA07.jpg,AMSA06.jpg,MS,2,num_8,32,num_2,1.10009394493,,,2017_Jun_06_1452,60.0071405269,FEMA4ImagesEEG,001,100620,
AFNE01.JPG,AFNE01.JPG,AFNE01.JPG,AFNE01.JPG,AFNE01.JPG,AFNE01.JPG,,,,,,,,,,,,,,,,,,,,,2,4,24,8,,,AMSA05.jpg,AMNE19.jpg,AMSA15.jpg,AMNE10.jpg,AMSA15.jpg,MS,2,num_2,32,num_6,1.95009543607,,,2017_Jun_06_1452,60.0071405269,FEMA4ImagesEEG,001,100620,
AFNE01.JPG,AFNE01.JPG,AFNE01.JPG,AFNE01.JPG,AFNE01.JPG,AFNE01.JPG,,,,,,,,,,,,,,,,,,,,,2,5,25,6,,,AMNE19.jpg,AMSA01.jpg,AMNE18.jpg,AMSA06.jpg,AMSA01.jpg,MS,2,num_6,32,num_2,0.566786548588,,,2017_Jun_06_1452,60.0071405269,FEMA4ImagesEEG,001,100620,
AFNE01.JPG,AFNE01.JPG,AFNE01.JPG,AFNE01.JPG,AFNE01.JPG,AFNE01.JPG,,,,,,,,,,,,,,,,,,,,,2,6,26,5,,,AMSA14.jpg,AMSA19.jpg,AMNE13.jpg,AMNE18.jpg,AMSA19.jpg,MS,2,num_6,32,num_4,0.950117246481,,,2017_Jun_06_1452,60.0071405269,FEMA4ImagesEEG,001,100620,
AFNE01.JPG,AFNE01.JPG,AFNE01.JPG,AFNE01.JPG,AFNE01.JPG,AFNE01.JPG,,,,,,,,,,,,,,,,,,,,,2,7,27,4,,,AMNE10.jpg,AMSA15.jpg,AMSA07.jpg,AMNE09.jpg,AMSA07.jpg,MS,2,num_2,16,num_2,0.600256720092,,,2017_Jun_06_1452,60.0071405269,FEMA4ImagesEEG,001,100620,
AFNE01.JPG,AFNE01.JPG,AFNE01.JPG,AFNE01.JPG,AFNE01.JPG,AFNE01.JPG,,,,,,,,,,,,,,,,,,,,,2,8,28,2,,,AMNE10.jpg,AMNE20.jpg,AMSA11.jpg,AMSA15.jpg,AMSA15.jpg,MS,2,num_4,32,num_6,1.31679031719,,,2017_Jun_06_1452,60.0071405269,FEMA4ImagesEEG,001,100620,
AFNE01.JPG,AFNE01.JPG,AFNE01.JPG,AFNE01.JPG,AFNE01.JPG,AFNE01.JPG,,,,,,,,,,,,,,,,,,,,,2,9,29,1,,,AMNE03.jpg,AMNE09.jpg,AMSA02.jpg,AMSA04.jpg,AMSA04.jpg,MS,2,num_4,32,num_8,0.766767560737,,,2017_Jun_06_1452,60.0071405269,FEMA4ImagesEEG,001,100620,
AFNE01.JPG,AFNE01.JPG,AFNE01.JPG,AFNE01.JPG,AFNE01.JPG,AFNE01.JPG,,,,,,,,,,,,,,,,,,,,,3,0,30,1,,,AMNE11.jpg,AMNE10.jpg,AMSA17.jpg,AMSA14.jpg,AMSA14.jpg,MS,2,num_4,16,num_4,0.650144605665,,,2017_Jun_06_1452,60.0071405269,FEMA4ImagesEEG,001,100620,
AFNE01.JPG,AFNE01.JPG,AFNE01.JPG,AFNE01.JPG,AFNE01.JPG,AFNE01.JPG,,,,,,,,,,,,,,,,,,,,,3,1,31,8,,,AMSA03.jpg,AMNE07.jpg,AMSA12.jpg,AMNE13.jpg,AMSA12.jpg,MS,2,num_2,32,num_8,0.8167731578,,,2017_Jun_06_1452,60.0071405269,FEMA4ImagesEEG,001,100620,
AFNE01.JPG,AFNE01.JPG,AFNE01.JPG,AFNE01.JPG,AFNE01.JPG,AFNE01.JPG,,,,,,,,,,,,,,,,,,,,,3,2,32,9,,,AMNE07.jpg,AMNE06.jpg,AMSA02.jpg,AMSA08.jpg,AMSA08.jpg,MS,2,num_4,32,num_2,1.03324597445,,,2017_Jun_06_1452,60.0071405269,FEMA4ImagesEEG,001,100620,
AFNE01.JPG,AFNE01.JPG,AFNE01.JPG,AFNE01.JPG,AFNE01.JPG,AFNE01.JPG,,,,,,,,,,,,,,,,,,,,,3,3,33,5,,,AMNE10.jpg,AMSA20.jpg,AMNE13.jpg,AMSA08.jpg,AMSA20.jpg,MS,2,num_6,16,num_6,1.03359590191,,,2017_Jun_06_1452,60.0071405269,FEMA4ImagesEEG,001,100620,
AFNE01.JPG,AFNE01.JPG,AFNE01.JPG,AFNE01.JPG,AFNE01.JPG,AFNE01.JPG,,,,,,,,,,,,,,,,,,,,,3,4,34,2,,,AMNE10.jpg,AMSA16.jpg,AMSA13.jpg,AMNE18.jpg,AMNE18.jpg,MN,1,num_4,32,num_8,1.36669905065,,,2017_Jun_06_1452,60.0071405269,FEMA4ImagesEEG,001,100620,
AFNE01.JPG,AFNE01.JPG,AFNE01.JPG,AFNE01.JPG,AFNE01.JPG,AFNE01.JPG,,,,,,,,,,,,,,,,,,,,,3,5,35,6,,,AMSA09.jpg,AMSA20.jpg,AMNE20.jpg,AMNE13.jpg,AMSA20.jpg,MS,2,num_6,16,num_6,1.56675575743,,,2017_Jun_06_1452,60.0071405269,FEMA4ImagesEEG,001,100620,
AFNE01.JPG,AFNE01.JPG,AFNE01.JPG,AFNE01.JPG,AFNE01.JPG,AFNE01.JPG,,,,,,,,,,,,,,,,,,,,,3,6,36,7,,,AMNE20.jpg,AMSA11.jpg,AMNE14.jpg,AMSA09.jpg,AMSA11.jpg,MS,2,num_6,32,num_2,1.31662545679,,,2017_Jun_06_1452,60.0071405269,FEMA4ImagesEEG,001,100620,
AFNE01.JPG,AFNE01.JPG,AFNE01.JPG,AFNE01.JPG,AFNE01.JPG,AFNE01.JPG,,,,,,,,,,,,,,,,,,,,,3,7,37,3,,,AMNE14.jpg,AMSA20.jpg,AMNE12.jpg,AMSA16.jpg,AMSA16.jpg,MS,2,num_4,16,num_4,0.933559369296,,,2017_Jun_06_1452,60.0071405269,FEMA4ImagesEEG,001,100620,
AFNE01.JPG,AFNE01.JPG,AFNE01.JPG,AFNE01.JPG,AFNE01.JPG,AFNE01.JPG,,,,,,,,,,,,,,,,,,,,,3,8,38,0,,,AMSA18.jpg,AMNE03.jpg,AMNE11.jpg,AMSA19.jpg,AMNE03.jpg,MN,1,num_6,32,num_4,0.866818847135,,,2017_Jun_06_1452,60.0071405269,FEMA4ImagesEEG,001,100620,
AFNE01.JPG,AFNE01.JPG,AFNE01.JPG,AFNE01.JPG,AFNE01.JPG,AFNE01.JPG,,,,,,,,,,,,,,,,,,,,,3,9,39,4,,,AMNE10.jpg,AMNE02.jpg,AMSA07.jpg,AMSA12.jpg,AMNE10.jpg,MN,1,num_8,32,num_6,0.783558936557,,,2017_Jun_06_1452,60.0071405269,FEMA4ImagesEEG,001,100620,
