IPosition2,IPosition3,IPosition1,IPosition6,IPosition4,IPosition5,TrialsM1.thisRepN,TrialsM1.thisTrialN,TrialsM1.thisN,TrialsM1.thisIndex,TrialsF1.thisRepN,TrialsF1.thisTrialN,TrialsF1.thisN,TrialsF1.thisIndex,TrialsM2.thisRepN,TrialsM2.thisTrialN,TrialsM2.thisN,TrialsM2.thisIndex,TrialsF2.thisRepN,TrialsF2.thisTrialN,TrialsF2.thisN,TrialsF2.thisIndex,TrialsM3.thisRepN,TrialsM3.thisTrialN,TrialsM3.thisN,TrialsM3.thisIndex,TrialsF3.thisRepN,TrialsF3.thisTrialN,TrialsF3.thisN,TrialsF3.thisIndex,InstrKey_resp.keys,InstrKey_resp.rt,Image0 _Position,Image1 _Position,Image2 _Position,Image3 _Position,Center_image,condition,code,correct_answer,accuracy,Key_Resp.keys,Key_Resp.rt,BreakKey_resp.keys,BreakKey_resp.rt,date,frameRate,expName,session,participant,
,,,,,,,,,,,,,,,,,,,,,,,,,,,,,,space,13.2328177666,,,,,,,,,,,,,,2017_Jun_08_1049,60.0099509764,MAFE4ImagesEEG,001,100612,
AMSA21.JPG,AMNE23.JPG,AMNE21.JPG,AMSA25.JPG,AMNE25.JPG,AMSA23.JPG,0,0,0,5,,,,,,,,,,,,,,,,,,,,,,,AMSA19.jpg,AMNE09.jpg,AMSA06.jpg,AMNE07.jpg,AMSA19.jpg,MS,2,num_8,16,num_8,1.85009841879,,,2017_Jun_08_1049,60.0099509764,MAFE4ImagesEEG,001,100612,
AFSA25.JPG,AFNE24.JPG,AFSA24.JPG,AFNE21.JPG,AFSA21.JPG,AFNE25.JPG,0,1,1,2,,,,,,,,,,,,,,,,,,,,,,,AMSA14.jpg,AMSA08.jpg,AMNE05.jpg,AMNE20.jpg,AMSA14.jpg,MS,2,num_8,32,num_6,1.33343169332,,,2017_Jun_08_1049,60.0099509764,MAFE4ImagesEEG,001,100612,
AFSA21.JPG,AFNE23.JPG,AFNE21.JPG,AFSA25.JPG,AFNE25.JPG,AFSA23.JPG,0,2,2,4,,,,,,,,,,,,,,,,,,,,,,,AMNE15.jpg,AMSA08.jpg,AMNE09.jpg,AMSA05.jpg,AMSA08.jpg,MS,2,num_6,32,num_4,4.18318339316,,,2017_Jun_08_1049,60.0099509764,MAFE4ImagesEEG,001,100612,
AMSA25.JPG,AMNE24.JPG,AMSA24.JPG,AMNE26.JPG,AMSA21.JPG,AMNE25.JPG,0,3,3,3,,,,,,,,,,,,,,,,,,,,,,,AMNE01.jpg,AMSA02.jpg,AMNE15.jpg,AMSA03.jpg,AMSA02.jpg,MS,2,num_6,16,num_6,1.6666751128,,,2017_Jun_08_1049,60.0099509764,MAFE4ImagesEEG,001,100612,
AFNE23.JPG,AFNE24.JPG,AFNE22.JPG,AFSA24.JPG,AFSA22.JPG,AFSA23.JPG,0,4,4,8,,,,,,,,,,,,,,,,,,,,,,,AMNE05.jpg,AMNE14.jpg,AMSA20.jpg,AMSA10.jpg,AMSA20.jpg,MS,2,num_2,32,num_8,1.81667580238,,,2017_Jun_08_1049,60.0099509764,MAFE4ImagesEEG,001,100612,
AMNE23.JPG,AMNE24.JPG,AMNE22.JPG,AMSA24.JPG,AMSA22.JPG,AMSA23.JPG,0,5,5,9,,,,,,,,,,,,,,,,,,,,,,,AMSA20.jpg,AMNE15.jpg,AMSA13.jpg,AMNE14.jpg,AMNE14.jpg,MN,1,num_4,32,num_2,1.35010916355,,,2017_Jun_08_1049,60.0099509764,MAFE4ImagesEEG,001,100612,
AFNE22.JPG,AFSA24.JPG,AFSA22.JPG,AFNE25.JPG,AFNE24.JPG,AFSA25.JPG,0,6,6,6,,,,,,,,,,,,,,,,,,,,,,,AMNE19.jpg,AMSA18.jpg,AMSA01.jpg,AMNE07.jpg,AMSA01.jpg,MS,2,num_2,16,num_2,1.3668401972,,,2017_Jun_08_1049,60.0099509764,MAFE4ImagesEEG,001,100612,
AMNE22.JPG,AMSA24.JPG,AMSA22.JPG,AMNE25.JPG,AMNE24.JPG,AMSA25.JPG,0,7,7,7,,,,,,,,,,,,,,,,,,,,,,,AMNE12.jpg,AMSA17.jpg,AMSA09.jpg,AMNE11.jpg,AMNE11.jpg,MN,1,num_4,32,num_8,1.45014800505,,,2017_Jun_08_1049,60.0099509764,MAFE4ImagesEEG,001,100612,
AMSA21.JPG,AMNE22.JPG,AMNE21.JPG,AMSA23.JPG,AMSA22.JPG,AMNE23.JPG,0,8,8,1,,,,,,,,,,,,,,,,,,,,,,,AMSA07.jpg,AMSA09.jpg,AMNE17.jpg,AMNE16.jpg,AMSA09.jpg,MS,2,num_6,32,num_4,3.26685684356,,,2017_Jun_08_1049,60.0099509764,MAFE4ImagesEEG,001,100612,
AFSA21.JPG,AFNE22.JPG,AFNE21.JPG,AFSA23.JPG,AFSA22.JPG,AFNE23.JPG,0,9,9,0,,,,,,,,,,,,,,,,,,,,,,,AMSA19.jpg,AMNE14.jpg,AMSA12.jpg,AMNE06.jpg,AMSA12.jpg,MS,2,num_2,16,num_2,2.58328615796,,,2017_Jun_08_1049,60.0099509764,MAFE4ImagesEEG,001,100612,
AMNE22.JPG,AMSA24.JPG,AMSA22.JPG,AMNE25.JPG,AMNE24.JPG,AMSA25.JPG,,,,,0,0,0,7,,,,,,,,,,,,,,,,,,,AFSA08.jpg,AFSA06.jpg,AFNE02.jpg,AFNE18.jpg,AFSA08.jpg,FS,4,num_8,32,num_2,4.01651485551,,,2017_Jun_08_1049,60.0099509764,MAFE4ImagesEEG,001,100612,
AMSA21.JPG,AMNE22.JPG,AMNE21.JPG,AMSA23.JPG,AMSA22.JPG,AMNE23.JPG,,,,,0,1,1,1,,,,,,,,,,,,,,,,,,,AFSA10.jpg,AFNE11.jpg,AFSA09.jpg,AFNE13.jpg,AFSA10.jpg,FS,4,num_8,16,num_8,1.86671077898,,,2017_Jun_08_1049,60.0099509764,MAFE4ImagesEEG,001,100612,
AFNE22.JPG,AFSA24.JPG,AFSA22.JPG,AFNE25.JPG,AFNE24.JPG,AFSA25.JPG,,,,,0,2,2,6,,,,,,,,,,,,,,,,,,,AFNE20.jpg,AFSA04.jpg,AFNE07.jpg,AFSA16.jpg,AFNE07.jpg,FN,3,num_2,16,num_2,2.08338093636,,,2017_Jun_08_1049,60.0099509764,MAFE4ImagesEEG,001,100612,
AMSA21.JPG,AMNE23.JPG,AMNE21.JPG,AMSA25.JPG,AMNE25.JPG,AMSA23.JPG,,,,,0,3,3,5,,,,,,,,,,,,,,,,,,,AFSA07.jpg,AFSA03.jpg,AFNE05.jpg,AFNE02.jpg,AFNE02.jpg,FN,3,num_4,32,num_2,1.8833914566,,,2017_Jun_08_1049,60.0099509764,MAFE4ImagesEEG,001,100612,
AFSA25.JPG,AFNE24.JPG,AFSA24.JPG,AFNE21.JPG,AFSA21.JPG,AFNE25.JPG,,,,,0,4,4,2,,,,,,,,,,,,,,,,,,,AFSA14.jpg,AFNE16.jpg,AFNE17.jpg,AFSA05.jpg,AFSA05.jpg,FS,4,num_4,32,num_2,1.80003329272,,,2017_Jun_08_1049,60.0099509764,MAFE4ImagesEEG,001,100612,
AFSA21.JPG,AFNE22.JPG,AFNE21.JPG,AFSA23.JPG,AFSA22.JPG,AFNE23.JPG,,,,,0,5,5,0,,,,,,,,,,,,,,,,,,,AFNE19.jpg,AFSA19.jpg,AFSA12.jpg,AFNE01.jpg,AFNE01.jpg,FN,3,num_4,16,num_4,1.06675221847,,,2017_Jun_08_1049,60.0099509764,MAFE4ImagesEEG,001,100612,
AMSA25.JPG,AMNE24.JPG,AMSA24.JPG,AMNE26.JPG,AMSA21.JPG,AMNE25.JPG,,,,,0,6,6,3,,,,,,,,,,,,,,,,,,,AFNE05.jpg,AFSA05.jpg,AFSA07.jpg,AFNE12.jpg,AFSA05.jpg,FS,4,num_6,32,num_8,1.85033448275,,,2017_Jun_08_1049,60.0099509764,MAFE4ImagesEEG,001,100612,
AFNE23.JPG,AFNE24.JPG,AFNE22.JPG,AFSA24.JPG,AFSA22.JPG,AFSA23.JPG,,,,,0,7,7,8,,,,,,,,,,,,,,,,,,,AFSA09.jpg,AFNE20.jpg,AFSA12.jpg,AFNE12.jpg,AFSA12.jpg,FS,4,num_2,32,num_4,1.26672534054,,,2017_Jun_08_1049,60.0099509764,MAFE4ImagesEEG,001,100612,
AMNE23.JPG,AMNE24.JPG,AMNE22.JPG,AMSA24.JPG,AMSA22.JPG,AMSA23.JPG,,,,,0,8,8,9,,,,,,,,,,,,,,,,,,,AFSA01.jpg,AFSA08.jpg,AFNE16.jpg,AFNE09.jpg,AFNE16.jpg,FN,3,num_2,16,num_2,2.15004912119,,,2017_Jun_08_1049,60.0099509764,MAFE4ImagesEEG,001,100612,
AFSA21.JPG,AFNE23.JPG,AFNE21.JPG,AFSA25.JPG,AFNE25.JPG,AFSA23.JPG,,,,,0,9,9,4,,,,,,,,,,,,,,,,,,,AFNE04.jpg,AFSA13.jpg,AFNE18.jpg,AFSA06.jpg,AFNE18.jpg,FN,3,num_2,32,num_8,1.36653036325,,,2017_Jun_08_1049,60.0099509764,MAFE4ImagesEEG,001,100612,
AMSA21.JPG,AMNE23.JPG,AMNE21.JPG,AMSA25.JPG,AMNE25.JPG,AMSA23.JPG,,,,,,,,,0,0,0,5,,,,,,,,,,,,,,,AMSA16.jpg,AMNE15.jpg,AMNE14.jpg,AMSA18.jpg,AMNE14.jpg,MN,1,num_2,16,num_2,2.84997012315,,,2017_Jun_08_1049,60.0099509764,MAFE4ImagesEEG,001,100612,
AFSA25.JPG,AFNE24.JPG,AFSA24.JPG,AFNE21.JPG,AFSA21.JPG,AFNE25.JPG,,,,,,,,,0,1,1,2,,,,,,,,,,,,,,,AMNE17.jpg,AMNE03.jpg,AMSA05.jpg,AMSA07.jpg,AMNE17.jpg,MN,1,num_8,32,num_6,1.93338249194,,,2017_Jun_08_1049,60.0099509764,MAFE4ImagesEEG,001,100612,
AMNE22.JPG,AMSA24.JPG,AMSA22.JPG,AMNE25.JPG,AMNE24.JPG,AMSA25.JPG,,,,,,,,,0,2,2,7,,,,,,,,,,,,,,,AMNE13.jpg,AMSA10.jpg,AMSA17.jpg,AMNE05.jpg,AMNE05.jpg,MN,1,num_4,16,num_4,1.50005308232,,,2017_Jun_08_1049,60.0099509764,MAFE4ImagesEEG,001,100612,
AMNE23.JPG,AMNE24.JPG,AMNE22.JPG,AMSA24.JPG,AMSA22.JPG,AMSA23.JPG,,,,,,,,,0,3,3,9,,,,,,,,,,,,,,,AMNE02.jpg,AMNE13.jpg,AMSA05.jpg,AMSA18.jpg,AMSA18.jpg,MS,2,num_4,16,num_4,1.56669849468,,,2017_Jun_08_1049,60.0099509764,MAFE4ImagesEEG,001,100612,
AMSA21.JPG,AMNE22.JPG,AMNE21.JPG,AMSA23.JPG,AMSA22.JPG,AMNE23.JPG,,,,,,,,,0,4,4,1,,,,,,,,,,,,,,,AMNE06.jpg,AMSA05.jpg,AMNE13.jpg,AMSA02.jpg,AMSA05.jpg,MS,2,num_6,16,num_6,0.950147523942,,,2017_Jun_08_1049,60.0099509764,MAFE4ImagesEEG,001,100612,
AFNE22.JPG,AFSA24.JPG,AFSA22.JPG,AFNE25.JPG,AFNE24.JPG,AFSA25.JPG,,,,,,,,,0,5,5,6,,,,,,,,,,,,,,,AMNE19.jpg,AMNE02.jpg,AMSA14.jpg,AMSA15.jpg,AMSA15.jpg,MS,2,num_4,16,num_4,1.10032462003,,,2017_Jun_08_1049,60.0099509764,MAFE4ImagesEEG,001,100612,
AFSA21.JPG,AFNE22.JPG,AFNE21.JPG,AFSA23.JPG,AFSA22.JPG,AFNE23.JPG,,,,,,,,,0,6,6,0,,,,,,,,,,,,,,,AMSA15.jpg,AMNE06.jpg,AMSA09.jpg,AMNE13.jpg,AMSA09.jpg,MS,2,num_2,32,num_6,3.70003999616,,,2017_Jun_08_1049,60.0099509764,MAFE4ImagesEEG,001,100612,
AFNE23.JPG,AFNE24.JPG,AFNE22.JPG,AFSA24.JPG,AFSA22.JPG,AFSA23.JPG,,,,,,,,,0,7,7,8,,,,,,,,,,,,,,,AMSA02.jpg,AMNE14.jpg,AMSA07.jpg,AMNE17.jpg,AMSA02.jpg,MS,2,num_8,32,num_2,1.31673978983,,,2017_Jun_08_1049,60.0099509764,MAFE4ImagesEEG,001,100612,
AMSA25.JPG,AMNE24.JPG,AMSA24.JPG,AMNE26.JPG,AMSA21.JPG,AMNE25.JPG,,,,,,,,,0,8,8,3,,,,,,,,,,,,,,,AMSA19.jpg,AMSA04.jpg,AMNE18.jpg,AMNE09.jpg,AMNE09.jpg,MN,1,num_4,16,num_4,0.983454674275,,,2017_Jun_08_1049,60.0099509764,MAFE4ImagesEEG,001,100612,
AFSA21.JPG,AFNE23.JPG,AFNE21.JPG,AFSA25.JPG,AFNE25.JPG,AFSA23.JPG,,,,,,,,,0,9,9,4,,,,,,,,,,,,,,,AMNE18.jpg,AMSA04.jpg,AMSA09.jpg,AMNE14.jpg,AMSA09.jpg,MS,2,num_2,16,num_2,1.8666764599,,,2017_Jun_08_1049,60.0099509764,MAFE4ImagesEEG,001,100612,
AFSA21.JPG,AFNE23.JPG,AFNE21.JPG,AFSA25.JPG,AFNE25.JPG,AFSA23.JPG,,,,,,,,,,,,,0,0,0,4,,,,,,,,,,,AFSA13.jpg,AFNE09.jpg,AFNE18.jpg,AFSA06.jpg,AFSA13.jpg,FS,4,num_8,16,num_8,1.33324823056,,,2017_Jun_08_1049,60.0099509764,MAFE4ImagesEEG,001,100612,
AMSA25.JPG,AMNE24.JPG,AMSA24.JPG,AMNE26.JPG,AMSA21.JPG,AMNE25.JPG,,,,,,,,,,,,,0,1,1,3,,,,,,,,,,,AFNE12.jpg,AFSA15.jpg,AFSA12.jpg,AFNE07.jpg,AFNE07.jpg,FN,3,num_4,32,num_8,1.18343677703,,,2017_Jun_08_1049,60.0099509764,MAFE4ImagesEEG,001,100612,
AMNE23.JPG,AMNE24.JPG,AMNE22.JPG,AMSA24.JPG,AMSA22.JPG,AMSA23.JPG,,,,,,,,,,,,,0,2,2,9,,,,,,,,,,,AFNE09.jpg,AFSA11.jpg,AFNE05.jpg,AFSA06.jpg,AFNE09.jpg,FN,3,num_8,32,num_4,1.21671249494,,,2017_Jun_08_1049,60.0099509764,MAFE4ImagesEEG,001,100612,
AFNE22.JPG,AFSA24.JPG,AFSA22.JPG,AFNE25.JPG,AFNE24.JPG,AFSA25.JPG,,,,,,,,,,,,,0,3,3,6,,,,,,,,,,,AFNE14.jpg,AFSA02.jpg,AFSA03.jpg,AFNE20.jpg,AFNE20.jpg,FN,3,num_4,32,num_8,1.05011323693,,,2017_Jun_08_1049,60.0099509764,MAFE4ImagesEEG,001,100612,
AMSA21.JPG,AMNE22.JPG,AMNE21.JPG,AMSA23.JPG,AMSA22.JPG,AMNE23.JPG,,,,,,,,,,,,,0,4,4,1,,,,,,,,,,,AFNE08.jpg,AFSA03.jpg,AFNE20.jpg,AFSA18.jpg,AFSA03.jpg,FS,4,num_6,32,num_4,1.36672473113,,,2017_Jun_08_1049,60.0099509764,MAFE4ImagesEEG,001,100612,
AFSA25.JPG,AFNE24.JPG,AFSA24.JPG,AFNE21.JPG,AFSA21.JPG,AFNE25.JPG,,,,,,,,,,,,,0,5,5,2,,,,,,,,,,,AFSA16.jpg,AFSA17.jpg,AFNE04.jpg,AFNE02.jpg,AFNE04.jpg,FN,3,num_2,32,num_4,1.01674995726,,,2017_Jun_08_1049,60.0099509764,MAFE4ImagesEEG,001,100612,
AMSA21.JPG,AMNE23.JPG,AMNE21.JPG,AMSA25.JPG,AMNE25.JPG,AMSA23.JPG,,,,,,,,,,,,,0,6,6,5,,,,,,,,,,,AFNE17.jpg,AFSA02.jpg,AFNE18.jpg,AFSA15.jpg,AFNE17.jpg,FN,3,num_8,16,num_8,2.61688453938,,,2017_Jun_08_1049,60.0099509764,MAFE4ImagesEEG,001,100612,
AMNE22.JPG,AMSA24.JPG,AMSA22.JPG,AMNE25.JPG,AMNE24.JPG,AMSA25.JPG,,,,,,,,,,,,,0,7,7,7,,,,,,,,,,,AFNE15.jpg,AFNE18.jpg,AFSA06.jpg,AFSA11.jpg,AFNE18.jpg,FN,3,num_6,16,num_6,0.966810560913,,,2017_Jun_08_1049,60.0099509764,MAFE4ImagesEEG,001,100612,
AFNE23.JPG,AFNE24.JPG,AFNE22.JPG,AFSA24.JPG,AFSA22.JPG,AFSA23.JPG,,,,,,,,,,,,,0,8,8,8,,,,,,,,,,,AFNE04.jpg,AFSA10.jpg,AFNE01.jpg,AFSA03.jpg,AFSA03.jpg,FS,4,num_4,32,num_6,0.983323812728,,,2017_Jun_08_1049,60.0099509764,MAFE4ImagesEEG,001,100612,
AFSA21.JPG,AFNE22.JPG,AFNE21.JPG,AFSA23.JPG,AFSA22.JPG,AFNE23.JPG,,,,,,,,,,,,,0,9,9,0,,,,,,,,,,,AFNE03.jpg,AFSA13.jpg,AFSA18.jpg,AFNE15.jpg,AFNE15.jpg,FN,3,num_4,16,num_4,1.75006502985,,,2017_Jun_08_1049,60.0099509764,MAFE4ImagesEEG,001,100612,
AMSA21.JPG,AMNE22.JPG,AMNE21.JPG,AMSA23.JPG,AMSA22.JPG,AMNE23.JPG,,,,,,,,,,,,,,,,,0,0,0,1,,,,,,,AMNE17.jpg,AMNE15.jpg,AMSA10.jpg,AMSA06.jpg,AMNE15.jpg,MN,1,num_6,16,num_6,1.13343868543,,,2017_Jun_08_1049,60.0099509764,MAFE4ImagesEEG,001,100612,
AMSA21.JPG,AMNE23.JPG,AMNE21.JPG,AMSA25.JPG,AMNE25.JPG,AMSA23.JPG,,,,,,,,,,,,,,,,,0,1,1,5,,,,,,,AMNE13.jpg,AMNE19.jpg,AMSA14.jpg,AMSA12.jpg,AMSA12.jpg,MS,2,num_4,32,num_8,1.03350151822,,,2017_Jun_08_1049,60.0099509764,MAFE4ImagesEEG,001,100612,
AMNE23.JPG,AMNE24.JPG,AMNE22.JPG,AMSA24.JPG,AMSA22.JPG,AMSA23.JPG,,,,,,,,,,,,,,,,,0,2,2,9,,,,,,,AMNE20.jpg,AMSA08.jpg,AMNE08.jpg,AMSA20.jpg,AMNE20.jpg,MN,1,num_8,16,num_8,1.03341235275,,,2017_Jun_08_1049,60.0099509764,MAFE4ImagesEEG,001,100612,
AFSA25.JPG,AFNE24.JPG,AFSA24.JPG,AFNE21.JPG,AFSA21.JPG,AFNE25.JPG,,,,,,,,,,,,,,,,,0,3,3,2,,,,,,,AMNE05.jpg,AMNE03.jpg,AMSA14.jpg,AMSA02.jpg,AMNE03.jpg,MN,1,num_6,16,num_6,0.966790033611,,,2017_Jun_08_1049,60.0099509764,MAFE4ImagesEEG,001,100612,
AFSA21.JPG,AFNE22.JPG,AFNE21.JPG,AFSA23.JPG,AFSA22.JPG,AFNE23.JPG,,,,,,,,,,,,,,,,,0,4,4,0,,,,,,,AMSA07.jpg,AMNE05.jpg,AMNE12.jpg,AMSA12.jpg,AMSA12.jpg,MS,2,num_4,16,num_4,1.41683957176,,,2017_Jun_08_1049,60.0099509764,MAFE4ImagesEEG,001,100612,
AMSA25.JPG,AMNE24.JPG,AMSA24.JPG,AMNE26.JPG,AMSA21.JPG,AMNE25.JPG,,,,,,,,,,,,,,,,,0,5,5,3,,,,,,,AMSA13.jpg,AMNE04.jpg,AMSA04.jpg,AMNE03.jpg,AMNE04.jpg,MN,1,num_6,32,num_8,1.41673950117,,,2017_Jun_08_1049,60.0099509764,MAFE4ImagesEEG,001,100612,
AFNE23.JPG,AFNE24.JPG,AFNE22.JPG,AFSA24.JPG,AFSA22.JPG,AFSA23.JPG,,,,,,,,,,,,,,,,,0,6,6,8,,,,,,,AMSA20.jpg,AMNE01.jpg,AMNE20.jpg,AMSA02.jpg,AMNE01.jpg,MN,1,num_6,16,num_6,1.01677946526,,,2017_Jun_08_1049,60.0099509764,MAFE4ImagesEEG,001,100612,
AFSA21.JPG,AFNE23.JPG,AFNE21.JPG,AFSA25.JPG,AFNE25.JPG,AFSA23.JPG,,,,,,,,,,,,,,,,,0,7,7,4,,,,,,,AMSA17.jpg,AMSA13.jpg,AMNE04.jpg,AMNE12.jpg,AMNE04.jpg,MN,1,num_2,16,num_2,1.38342689827,,,2017_Jun_08_1049,60.0099509764,MAFE4ImagesEEG,001,100612,
AMNE22.JPG,AMSA24.JPG,AMSA22.JPG,AMNE25.JPG,AMNE24.JPG,AMSA25.JPG,,,,,,,,,,,,,,,,,0,8,8,7,,,,,,,AMNE05.jpg,AMSA05.jpg,AMSA17.jpg,AMNE19.jpg,AMNE05.jpg,MN,1,num_8,16,num_8,1.05015557449,,,2017_Jun_08_1049,60.0099509764,MAFE4ImagesEEG,001,100612,
AFNE22.JPG,AFSA24.JPG,AFSA22.JPG,AFNE25.JPG,AFNE24.JPG,AFSA25.JPG,,,,,,,,,,,,,,,,,0,9,9,6,,,,,,,AMNE03.jpg,AMSA17.jpg,AMNE12.jpg,AMSA07.jpg,AMSA07.jpg,MS,2,num_4,16,num_4,1.30006616847,,,2017_Jun_08_1049,60.0099509764,MAFE4ImagesEEG,001,100612,
AMSA25.JPG,AMNE24.JPG,AMSA24.JPG,AMNE26.JPG,AMSA21.JPG,AMNE25.JPG,,,,,,,,,,,,,,,,,,,,,0,0,0,3,,,AFNE20.jpg,AFSA08.jpg,AFSA02.jpg,AFNE09.jpg,AFSA08.jpg,FS,4,num_6,32,num_2,2.43338457675,,,2017_Jun_08_1049,60.0099509764,MAFE4ImagesEEG,001,100612,
AMSA21.JPG,AMNE23.JPG,AMNE21.JPG,AMSA25.JPG,AMNE25.JPG,AMSA23.JPG,,,,,,,,,,,,,,,,,,,,,0,1,1,5,,,AFNE04.jpg,AFSA19.jpg,AFNE01.jpg,AFSA03.jpg,AFSA19.jpg,FS,4,num_6,16,num_6,1.73343919861,,,2017_Jun_08_1049,60.0099509764,MAFE4ImagesEEG,001,100612,
AFNE23.JPG,AFNE24.JPG,AFNE22.JPG,AFSA24.JPG,AFSA22.JPG,AFSA23.JPG,,,,,,,,,,,,,,,,,,,,,0,2,2,8,,,AFNE19.jpg,AFNE14.jpg,AFSA16.jpg,AFSA13.jpg,AFNE14.jpg,FN,3,num_6,16,num_6,1.11682055193,,,2017_Jun_08_1049,60.0099509764,MAFE4ImagesEEG,001,100612,
AFNE22.JPG,AFSA24.JPG,AFSA22.JPG,AFNE25.JPG,AFNE24.JPG,AFSA25.JPG,,,,,,,,,,,,,,,,,,,,,0,3,3,6,,,AFSA09.jpg,AFNE14.jpg,AFSA11.jpg,AFNE01.jpg,AFSA11.jpg,FS,4,num_2,32,num_8,1.13339731009,,,2017_Jun_08_1049,60.0099509764,MAFE4ImagesEEG,001,100612,
AFSA25.JPG,AFNE24.JPG,AFSA24.JPG,AFNE21.JPG,AFSA21.JPG,AFNE25.JPG,,,,,,,,,,,,,,,,,,,,,0,4,4,2,,,AFNE19.jpg,AFNE08.jpg,AFSA01.jpg,AFSA20.jpg,AFNE08.jpg,FN,3,num_6,16,num_6,0.716792840077,,,2017_Jun_08_1049,60.0099509764,MAFE4ImagesEEG,001,100612,
AMNE23.JPG,AMNE24.JPG,AMNE22.JPG,AMSA24.JPG,AMSA22.JPG,AMSA23.JPG,,,,,,,,,,,,,,,,,,,,,0,5,5,9,,,AFNE08.jpg,AFSA09.jpg,AFNE06.jpg,AFSA01.jpg,AFNE06.jpg,FN,3,num_2,16,num_2,1.04993779265,,,2017_Jun_08_1049,60.0099509764,MAFE4ImagesEEG,001,100612,
AMSA21.JPG,AMNE22.JPG,AMNE21.JPG,AMSA23.JPG,AMSA22.JPG,AMNE23.JPG,,,,,,,,,,,,,,,,,,,,,0,6,6,1,,,AFSA10.jpg,AFNE09.jpg,AFNE20.jpg,AFSA14.jpg,AFSA14.jpg,FS,4,num_4,32,num_8,0.916843581001,,,2017_Jun_08_1049,60.0099509764,MAFE4ImagesEEG,001,100612,
AFSA21.JPG,AFNE22.JPG,AFNE21.JPG,AFSA23.JPG,AFSA22.JPG,AFNE23.JPG,,,,,,,,,,,,,,,,,,,,,0,7,7,0,,,AFSA13.jpg,AFNE08.jpg,AFSA07.jpg,AFNE02.jpg,AFNE08.jpg,FN,3,num_6,32,num_2,1.51672381703,,,2017_Jun_08_1049,60.0099509764,MAFE4ImagesEEG,001,100612,
AFSA21.JPG,AFNE23.JPG,AFNE21.JPG,AFSA25.JPG,AFNE25.JPG,AFSA23.JPG,,,,,,,,,,,,,,,,,,,,,0,8,8,4,,,AFSA06.jpg,AFSA07.jpg,AFNE20.jpg,AFNE12.jpg,AFSA06.jpg,FS,4,num_8,16,num_8,0.833511717721,,,2017_Jun_08_1049,60.0099509764,MAFE4ImagesEEG,001,100612,
AMNE22.JPG,AMSA24.JPG,AMSA22.JPG,AMNE25.JPG,AMNE24.JPG,AMSA25.JPG,,,,,,,,,,,,,,,,,,,,,0,9,9,7,,,AFSA05.jpg,AFNE05.jpg,AFSA09.jpg,AFNE13.jpg,AFNE13.jpg,FN,3,num_4,32,num_6,0.883589673356,,,2017_Jun_08_1049,60.0099509764,MAFE4ImagesEEG,001,100612,
,,,,,,,,,,,,,,,,,,,,,,,,,,,,,,,,,,,,,,,,,,,space,10.0160382372,2017_Jun_08_1049,60.0099509764,MAFE4ImagesEEG,001,100612,
AFNE01.JPG,AFNE01.JPG,AFNE01.JPG,AFNE01.JPG,AFNE01.JPG,AFNE01.JPG,0,0,0,6,,,,,,,,,,,,,,,,,,,,,,,AMSA05.jpg,AMNE14.jpg,AMSA07.jpg,AMNE05.jpg,AMSA07.jpg,MS,2,num_2,16,num_2,0.900172204815,,,2017_Jun_08_1049,60.0099509764,MAFE4ImagesEEG,001,100612,
AFNE01.JPG,AFNE01.JPG,AFNE01.JPG,AFNE01.JPG,AFNE01.JPG,AFNE01.JPG,0,1,1,7,,,,,,,,,,,,,,,,,,,,,,,AMSA12.jpg,AMNE08.jpg,AMSA14.jpg,AMNE03.jpg,AMNE03.jpg,MN,1,num_4,16,num_4,1.01675990017,,,2017_Jun_08_1049,60.0099509764,MAFE4ImagesEEG,001,100612,
AFNE01.JPG,AFNE01.JPG,AFNE01.JPG,AFNE01.JPG,AFNE01.JPG,AFNE01.JPG,0,2,2,0,,,,,,,,,,,,,,,,,,,,,,,AMNE19.jpg,AMSA20.jpg,AMNE07.jpg,AMSA07.jpg,AMSA07.jpg,MS,2,num_4,32,num_6,1.1001299314,,,2017_Jun_08_1049,60.0099509764,MAFE4ImagesEEG,001,100612,
AFNE01.JPG,AFNE01.JPG,AFNE01.JPG,AFNE01.JPG,AFNE01.JPG,AFNE01.JPG,0,3,3,4,,,,,,,,,,,,,,,,,,,,,,,AMNE05.jpg,AMSA11.jpg,AMNE09.jpg,AMSA02.jpg,AMNE05.jpg,MN,1,num_8,16,num_8,1.11678430842,,,2017_Jun_08_1049,60.0099509764,MAFE4ImagesEEG,001,100612,
AFNE01.JPG,AFNE01.JPG,AFNE01.JPG,AFNE01.JPG,AFNE01.JPG,AFNE01.JPG,0,4,4,9,,,,,,,,,,,,,,,,,,,,,,,AMNE02.jpg,AMSA09.jpg,AMNE17.jpg,AMSA03.jpg,AMNE17.jpg,MN,1,num_2,32,num_8,1.35010884281,,,2017_Jun_08_1049,60.0099509764,MAFE4ImagesEEG,001,100612,
AFNE01.JPG,AFNE01.JPG,AFNE01.JPG,AFNE01.JPG,AFNE01.JPG,AFNE01.JPG,0,5,5,1,,,,,,,,,,,,,,,,,,,,,,,AMSA07.jpg,AMNE16.jpg,AMSA12.jpg,AMNE12.jpg,AMNE16.jpg,MN,1,num_6,16,num_6,1.00016069028,,,2017_Jun_08_1049,60.0099509764,MAFE4ImagesEEG,001,100612,
AFNE01.JPG,AFNE01.JPG,AFNE01.JPG,AFNE01.JPG,AFNE01.JPG,AFNE01.JPG,0,6,6,3,,,,,,,,,,,,,,,,,,,,,,,AMSA09.jpg,AMSA05.jpg,AMNE12.jpg,AMNE08.jpg,AMSA09.jpg,MS,2,num_8,16,num_8,1.76669663439,,,2017_Jun_08_1049,60.0099509764,MAFE4ImagesEEG,001,100612,
AFNE01.JPG,AFNE01.JPG,AFNE01.JPG,AFNE01.JPG,AFNE01.JPG,AFNE01.JPG,0,7,7,5,,,,,,,,,,,,,,,,,,,,,,,AMSA01.jpg,AMSA12.jpg,AMNE13.jpg,AMNE05.jpg,AMSA12.jpg,MS,2,num_6,32,num_8,1.95007567839,,,2017_Jun_08_1049,60.0099509764,MAFE4ImagesEEG,001,100612,
AFNE01.JPG,AFNE01.JPG,AFNE01.JPG,AFNE01.JPG,AFNE01.JPG,AFNE01.JPG,0,8,8,2,,,,,,,,,,,,,,,,,,,,,,,AMSA19.jpg,AMNE15.jpg,AMSA20.jpg,AMNE16.jpg,AMSA19.jpg,MS,2,num_8,32,num_2,1.88335874121,,,2017_Jun_08_1049,60.0099509764,MAFE4ImagesEEG,001,100612,
AFNE01.JPG,AFNE01.JPG,AFNE01.JPG,AFNE01.JPG,AFNE01.JPG,AFNE01.JPG,0,9,9,8,,,,,,,,,,,,,,,,,,,,,,,AMSA03.jpg,AMNE02.jpg,AMSA05.jpg,AMNE11.jpg,AMNE02.jpg,MN,1,num_6,32,num_4,1.33344773027,,,2017_Jun_08_1049,60.0099509764,MAFE4ImagesEEG,001,100612,
AFNE01.JPG,AFNE01.JPG,AFNE01.JPG,AFNE01.JPG,AFNE01.JPG,AFNE01.JPG,1,0,10,3,,,,,,,,,,,,,,,,,,,,,,,AMNE11.jpg,AMSA03.jpg,AMSA11.jpg,AMNE05.jpg,AMSA11.jpg,MS,2,num_2,16,num_2,1.26671988797,,,2017_Jun_08_1049,60.0099509764,MAFE4ImagesEEG,001,100612,
AFNE01.JPG,AFNE01.JPG,AFNE01.JPG,AFNE01.JPG,AFNE01.JPG,AFNE01.JPG,1,1,11,6,,,,,,,,,,,,,,,,,,,,,,,AMNE05.jpg,AMNE01.jpg,AMSA19.jpg,AMSA05.jpg,AMNE05.jpg,MN,1,num_8,16,num_8,0.816736422073,,,2017_Jun_08_1049,60.0099509764,MAFE4ImagesEEG,001,100612,
AFNE01.JPG,AFNE01.JPG,AFNE01.JPG,AFNE01.JPG,AFNE01.JPG,AFNE01.JPG,1,2,12,1,,,,,,,,,,,,,,,,,,,,,,,AMNE06.jpg,AMNE15.jpg,AMSA16.jpg,AMSA18.jpg,AMSA18.jpg,MS,2,num_4,16,num_4,0.966760525615,,,2017_Jun_08_1049,60.0099509764,MAFE4ImagesEEG,001,100612,
AFNE01.JPG,AFNE01.JPG,AFNE01.JPG,AFNE01.JPG,AFNE01.JPG,AFNE01.JPG,1,3,13,7,,,,,,,,,,,,,,,,,,,,,,,AMSA12.jpg,AMSA02.jpg,AMNE12.jpg,AMNE11.jpg,AMNE11.jpg,MN,1,num_4,16,num_4,1.18317890281,,,2017_Jun_08_1049,60.0099509764,MAFE4ImagesEEG,001,100612,
AFNE01.JPG,AFNE01.JPG,AFNE01.JPG,AFNE01.JPG,AFNE01.JPG,AFNE01.JPG,1,4,14,5,,,,,,,,,,,,,,,,,,,,,,,AMSA03.jpg,AMNE14.jpg,AMSA14.jpg,AMNE06.jpg,AMNE14.jpg,MN,1,num_6,16,num_6,2.51659038957,,,2017_Jun_08_1049,60.0099509764,MAFE4ImagesEEG,001,100612,
AFNE01.JPG,AFNE01.JPG,AFNE01.JPG,AFNE01.JPG,AFNE01.JPG,AFNE01.JPG,1,5,15,0,,,,,,,,,,,,,,,,,,,,,,,AMSA10.jpg,AMNE15.jpg,AMNE03.jpg,AMSA19.jpg,AMNE15.jpg,MN,1,num_6,16,num_6,0.783430554696,,,2017_Jun_08_1049,60.0099509764,MAFE4ImagesEEG,001,100612,
AFNE01.JPG,AFNE01.JPG,AFNE01.JPG,AFNE01.JPG,AFNE01.JPG,AFNE01.JPG,1,6,16,2,,,,,,,,,,,,,,,,,,,,,,,AMNE10.jpg,AMNE01.jpg,AMSA08.jpg,AMSA03.jpg,AMSA08.jpg,MS,2,num_2,16,num_2,1.08328246946,,,2017_Jun_08_1049,60.0099509764,MAFE4ImagesEEG,001,100612,
AFNE01.JPG,AFNE01.JPG,AFNE01.JPG,AFNE01.JPG,AFNE01.JPG,AFNE01.JPG,1,7,17,8,,,,,,,,,,,,,,,,,,,,,,,AMNE08.jpg,AMSA15.jpg,AMSA08.jpg,AMNE20.jpg,AMSA15.jpg,MS,2,num_6,16,num_6,0.950084338342,,,2017_Jun_08_1049,60.0099509764,MAFE4ImagesEEG,001,100612,
AFNE01.JPG,AFNE01.JPG,AFNE01.JPG,AFNE01.JPG,AFNE01.JPG,AFNE01.JPG,1,8,18,4,,,,,,,,,,,,,,,,,,,,,,,AMNE19.jpg,AMSA17.jpg,AMSA20.jpg,AMNE17.jpg,AMSA17.jpg,MS,2,num_6,16,num_6,2.10001671051,,,2017_Jun_08_1049,60.0099509764,MAFE4ImagesEEG,001,100612,
AFNE01.JPG,AFNE01.JPG,AFNE01.JPG,AFNE01.JPG,AFNE01.JPG,AFNE01.JPG,1,9,19,9,,,,,,,,,,,,,,,,,,,,,,,AMNE07.jpg,AMSA12.jpg,AMNE17.jpg,AMSA16.jpg,AMSA12.jpg,MS,2,num_6,32,num_4,1.05013793384,,,2017_Jun_08_1049,60.0099509764,MAFE4ImagesEEG,001,100612,
AFNE01.JPG,AFNE01.JPG,AFNE01.JPG,AFNE01.JPG,AFNE01.JPG,AFNE01.JPG,2,0,20,0,,,,,,,,,,,,,,,,,,,,,,,AMNE18.jpg,AMSA17.jpg,AMNE09.jpg,AMSA19.jpg,AMSA19.jpg,MS,2,num_4,16,num_4,0.78355564294,,,2017_Jun_08_1049,60.0099509764,MAFE4ImagesEEG,001,100612,
AFNE01.JPG,AFNE01.JPG,AFNE01.JPG,AFNE01.JPG,AFNE01.JPG,AFNE01.JPG,2,1,21,1,,,,,,,,,,,,,,,,,,,,,,,AMSA13.jpg,AMNE06.jpg,AMSA17.jpg,AMNE04.jpg,AMSA13.jpg,MS,2,num_8,16,num_8,1.90007534161,,,2017_Jun_08_1049,60.0099509764,MAFE4ImagesEEG,001,100612,
AFNE01.JPG,AFNE01.JPG,AFNE01.JPG,AFNE01.JPG,AFNE01.JPG,AFNE01.JPG,2,2,22,4,,,,,,,,,,,,,,,,,,,,,,,AMNE20.jpg,AMSA01.jpg,AMSA07.jpg,AMNE14.jpg,AMSA07.jpg,MS,2,num_2,32,num_4,1.0834149347,,,2017_Jun_08_1049,60.0099509764,MAFE4ImagesEEG,001,100612,
AFNE01.JPG,AFNE01.JPG,AFNE01.JPG,AFNE01.JPG,AFNE01.JPG,AFNE01.JPG,2,3,23,7,,,,,,,,,,,,,,,,,,,,,,,AMNE10.jpg,AMSA05.jpg,AMNE12.jpg,AMSA10.jpg,AMNE12.jpg,MN,1,num_2,32,num_8,0.81683200232,,,2017_Jun_08_1049,60.0099509764,MAFE4ImagesEEG,001,100612,
AFNE01.JPG,AFNE01.JPG,AFNE01.JPG,AFNE01.JPG,AFNE01.JPG,AFNE01.JPG,2,4,24,2,,,,,,,,,,,,,,,,,,,,,,,AMNE12.jpg,AMSA09.jpg,AMSA01.jpg,AMNE06.jpg,AMNE12.jpg,MN,1,num_8,16,num_8,0.85023794029,,,2017_Jun_08_1049,60.0099509764,MAFE4ImagesEEG,001,100612,
AFNE01.JPG,AFNE01.JPG,AFNE01.JPG,AFNE01.JPG,AFNE01.JPG,AFNE01.JPG,2,5,25,8,,,,,,,,,,,,,,,,,,,,,,,AMSA04.jpg,AMNE10.jpg,AMSA09.jpg,AMNE12.jpg,AMNE10.jpg,MN,1,num_6,32,num_8,2.00007729812,,,2017_Jun_08_1049,60.0099509764,MAFE4ImagesEEG,001,100612,
AFNE01.JPG,AFNE01.JPG,AFNE01.JPG,AFNE01.JPG,AFNE01.JPG,AFNE01.JPG,2,6,26,9,,,,,,,,,,,,,,,,,,,,,,,AMSA15.jpg,AMSA11.jpg,AMNE10.jpg,AMNE07.jpg,AMNE10.jpg,MN,1,num_2,16,num_2,1.01675990017,,,2017_Jun_08_1049,60.0099509764,MAFE4ImagesEEG,001,100612,
AFNE01.JPG,AFNE01.JPG,AFNE01.JPG,AFNE01.JPG,AFNE01.JPG,AFNE01.JPG,2,7,27,5,,,,,,,,,,,,,,,,,,,,,,,AMNE07.jpg,AMSA19.jpg,AMSA02.jpg,AMNE09.jpg,AMNE09.jpg,MN,1,num_4,16,num_4,1.18341336308,,,2017_Jun_08_1049,60.0099509764,MAFE4ImagesEEG,001,100612,
AFNE01.JPG,AFNE01.JPG,AFNE01.JPG,AFNE01.JPG,AFNE01.JPG,AFNE01.JPG,2,8,28,3,,,,,,,,,,,,,,,,,,,,,,,AMNE12.jpg,AMSA15.jpg,AMNE05.jpg,AMSA09.jpg,AMNE12.jpg,MN,1,num_8,32,num_2,1.20015273595,,,2017_Jun_08_1049,60.0099509764,MAFE4ImagesEEG,001,100612,
AFNE01.JPG,AFNE01.JPG,AFNE01.JPG,AFNE01.JPG,AFNE01.JPG,AFNE01.JPG,2,9,29,6,,,,,,,,,,,,,,,,,,,,,,,AMSA06.jpg,AMNE06.jpg,AMNE01.jpg,AMSA08.jpg,AMSA06.jpg,MS,2,num_8,32,num_4,1.01673648622,,,2017_Jun_08_1049,60.0099509764,MAFE4ImagesEEG,001,100612,
AFNE01.JPG,AFNE01.JPG,AFNE01.JPG,AFNE01.JPG,AFNE01.JPG,AFNE01.JPG,3,0,30,1,,,,,,,,,,,,,,,,,,,,,,,AMSA11.jpg,AMNE19.jpg,AMSA06.jpg,AMNE02.jpg,AMNE02.jpg,MN,1,num_4,16,num_4,0.900123452474,,,2017_Jun_08_1049,60.0099509764,MAFE4ImagesEEG,001,100612,
AFNE01.JPG,AFNE01.JPG,AFNE01.JPG,AFNE01.JPG,AFNE01.JPG,AFNE01.JPG,3,1,31,2,,,,,,,,,,,,,,,,,,,,,,,AMNE19.jpg,AMNE06.jpg,AMSA19.jpg,AMSA15.jpg,AMSA15.jpg,MS,2,num_4,16,num_4,0.716771671297,,,2017_Jun_08_1049,60.0099509764,MAFE4ImagesEEG,001,100612,
AFNE01.JPG,AFNE01.JPG,AFNE01.JPG,AFNE01.JPG,AFNE01.JPG,AFNE01.JPG,3,2,32,6,,,,,,,,,,,,,,,,,,,,,,,AMNE13.jpg,AMNE04.jpg,AMSA18.jpg,AMSA06.jpg,AMSA06.jpg,MS,2,num_4,16,num_4,0.800086535405,,,2017_Jun_08_1049,60.0099509764,MAFE4ImagesEEG,001,100612,
AFNE01.JPG,AFNE01.JPG,AFNE01.JPG,AFNE01.JPG,AFNE01.JPG,AFNE01.JPG,3,3,33,7,,,,,,,,,,,,,,,,,,,,,,,AMNE15.jpg,AMSA04.jpg,AMSA13.jpg,AMNE03.jpg,AMSA13.jpg,MS,2,num_2,32,num_8,0.833484775638,,,2017_Jun_08_1049,60.0099509764,MAFE4ImagesEEG,001,100612,
AFNE01.JPG,AFNE01.JPG,AFNE01.JPG,AFNE01.JPG,AFNE01.JPG,AFNE01.JPG,3,4,34,0,,,,,,,,,,,,,,,,,,,,,,,AMSA19.jpg,AMSA11.jpg,AMNE13.jpg,AMNE10.jpg,AMNE10.jpg,MN,1,num_4,16,num_4,0.766800233113,,,2017_Jun_08_1049,60.0099509764,MAFE4ImagesEEG,001,100612,
AFNE01.JPG,AFNE01.JPG,AFNE01.JPG,AFNE01.JPG,AFNE01.JPG,AFNE01.JPG,3,5,35,8,,,,,,,,,,,,,,,,,,,,,,,AMNE13.jpg,AMNE08.jpg,AMSA07.jpg,AMSA10.jpg,AMNE08.jpg,MN,1,num_6,32,num_8,0.766819798197,,,2017_Jun_08_1049,60.0099509764,MAFE4ImagesEEG,001,100612,
AFNE01.JPG,AFNE01.JPG,AFNE01.JPG,AFNE01.JPG,AFNE01.JPG,AFNE01.JPG,3,6,36,5,,,,,,,,,,,,,,,,,,,,,,,AMSA15.jpg,AMSA05.jpg,AMNE01.jpg,AMNE19.jpg,AMNE01.jpg,MN,1,num_2,16,num_2,0.783335936665,,,2017_Jun_08_1049,60.0099509764,MAFE4ImagesEEG,001,100612,
AFNE01.JPG,AFNE01.JPG,AFNE01.JPG,AFNE01.JPG,AFNE01.JPG,AFNE01.JPG,3,7,37,9,,,,,,,,,,,,,,,,,,,,,,,AMSA14.jpg,AMNE12.jpg,AMSA06.jpg,AMNE07.jpg,AMNE07.jpg,MN,1,num_4,16,num_4,0.900252710325,,,2017_Jun_08_1049,60.0099509764,MAFE4ImagesEEG,001,100612,
AFNE01.JPG,AFNE01.JPG,AFNE01.JPG,AFNE01.JPG,AFNE01.JPG,AFNE01.JPG,3,8,38,3,,,,,,,,,,,,,,,,,,,,,,,AMSA02.jpg,AMNE05.jpg,AMNE07.jpg,AMSA01.jpg,AMNE05.jpg,MN,1,num_6,32,num_2,1.01680255847,,,2017_Jun_08_1049,60.0099509764,MAFE4ImagesEEG,001,100612,
AFNE01.JPG,AFNE01.JPG,AFNE01.JPG,AFNE01.JPG,AFNE01.JPG,AFNE01.JPG,3,9,39,4,,,,,,,,,,,,,,,,,,,,,,,AMNE11.jpg,AMSA07.jpg,AMNE07.jpg,AMSA04.jpg,AMNE11.jpg,MN,1,num_8,16,num_8,0.88344790668,,,2017_Jun_08_1049,60.0099509764,MAFE4ImagesEEG,001,100612,
AFNE01.JPG,AFNE01.JPG,AFNE01.JPG,AFNE01.JPG,AFNE01.JPG,AFNE01.JPG,4,0,40,3,,,,,,,,,,,,,,,,,,,,,,,AMSA07.jpg,AMNE10.jpg,AMSA17.jpg,AMNE18.jpg,AMNE10.jpg,MN,1,num_6,32,num_4,0.883340138347,,,2017_Jun_08_1049,60.0099509764,MAFE4ImagesEEG,001,100612,
AFNE01.JPG,AFNE01.JPG,AFNE01.JPG,AFNE01.JPG,AFNE01.JPG,AFNE01.JPG,4,1,41,2,,,,,,,,,,,,,,,,,,,,,,,AMNE20.jpg,AMNE14.jpg,AMSA17.jpg,AMSA20.jpg,AMSA17.jpg,MS,2,num_2,32,num_4,1.68353251765,,,2017_Jun_08_1049,60.0099509764,MAFE4ImagesEEG,001,100612,
AFNE01.JPG,AFNE01.JPG,AFNE01.JPG,AFNE01.JPG,AFNE01.JPG,AFNE01.JPG,4,2,42,5,,,,,,,,,,,,,,,,,,,,,,,AMSA16.jpg,AMNE08.jpg,AMSA15.jpg,AMNE01.jpg,AMSA15.jpg,MS,2,num_2,32,num_8,1.00013855929,,,2017_Jun_08_1049,60.0099509764,MAFE4ImagesEEG,001,100612,
AFNE01.JPG,AFNE01.JPG,AFNE01.JPG,AFNE01.JPG,AFNE01.JPG,AFNE01.JPG,4,3,43,0,,,,,,,,,,,,,,,,,,,,,,,AMNE17.jpg,AMSA11.jpg,AMNE12.jpg,AMSA15.jpg,AMNE17.jpg,MN,1,num_8,32,num_2,0.966731659097,,,2017_Jun_08_1049,60.0099509764,MAFE4ImagesEEG,001,100612,
AFNE01.JPG,AFNE01.JPG,AFNE01.JPG,AFNE01.JPG,AFNE01.JPG,AFNE01.JPG,4,4,44,8,,,,,,,,,,,,,,,,,,,,,,,AMSA16.jpg,AMNE16.jpg,AMNE18.jpg,AMSA05.jpg,AMSA05.jpg,MS,2,num_4,32,num_8,1.40017461036,,,2017_Jun_08_1049,60.0099509764,MAFE4ImagesEEG,001,100612,
AFNE01.JPG,AFNE01.JPG,AFNE01.JPG,AFNE01.JPG,AFNE01.JPG,AFNE01.JPG,4,5,45,4,,,,,,,,,,,,,,,,,,,,,,,AMSA18.jpg,AMNE18.jpg,AMNE01.jpg,AMSA20.jpg,AMNE18.jpg,MN,1,num_6,32,num_2,0.916614894033,,,2017_Jun_08_1049,60.0099509764,MAFE4ImagesEEG,001,100612,
AFNE01.JPG,AFNE01.JPG,AFNE01.JPG,AFNE01.JPG,AFNE01.JPG,AFNE01.JPG,4,6,46,9,,,,,,,,,,,,,,,,,,,,,,,AMNE04.jpg,AMNE07.jpg,AMSA05.jpg,AMSA16.jpg,AMNE07.jpg,MN,1,num_6,16,num_6,0.86671847672,,,2017_Jun_08_1049,60.0099509764,MAFE4ImagesEEG,001,100612,
AFNE01.JPG,AFNE01.JPG,AFNE01.JPG,AFNE01.JPG,AFNE01.JPG,AFNE01.JPG,4,7,47,1,,,,,,,,,,,,,,,,,,,,,,,AMSA10.jpg,AMNE09.jpg,AMSA12.jpg,AMNE19.jpg,AMSA12.jpg,MS,2,num_2,16,num_2,0.650130749288,,,2017_Jun_08_1049,60.0099509764,MAFE4ImagesEEG,001,100612,
AFNE01.JPG,AFNE01.JPG,AFNE01.JPG,AFNE01.JPG,AFNE01.JPG,AFNE01.JPG,4,8,48,6,,,,,,,,,,,,,,,,,,,,,,,AMSA05.jpg,AMSA18.jpg,AMNE10.jpg,AMNE03.jpg,AMNE10.jpg,MN,1,num_2,16,num_2,1.01679550221,,,2017_Jun_08_1049,60.0099509764,MAFE4ImagesEEG,001,100612,
AFNE01.JPG,AFNE01.JPG,AFNE01.JPG,AFNE01.JPG,AFNE01.JPG,AFNE01.JPG,4,9,49,7,,,,,,,,,,,,,,,,,,,,,,,AMNE04.jpg,AMSA15.jpg,AMNE02.jpg,AMSA18.jpg,AMNE02.jpg,MN,1,num_2,16,num_2,0.833459437251,,,2017_Jun_08_1049,60.0099509764,MAFE4ImagesEEG,001,100612,
AFNE01.JPG,AFNE01.JPG,AFNE01.JPG,AFNE01.JPG,AFNE01.JPG,AFNE01.JPG,5,0,50,0,,,,,,,,,,,,,,,,,,,,,,,AMNE02.jpg,AMNE04.jpg,AMSA14.jpg,AMSA11.jpg,AMSA14.jpg,MS,2,num_2,16,num_2,0.950125072207,,,2017_Jun_08_1049,60.0099509764,MAFE4ImagesEEG,001,100612,
AFNE01.JPG,AFNE01.JPG,AFNE01.JPG,AFNE01.JPG,AFNE01.JPG,AFNE01.JPG,5,1,51,4,,,,,,,,,,,,,,,,,,,,,,,AMNE19.jpg,AMSA09.jpg,AMNE08.jpg,AMSA17.jpg,AMNE19.jpg,MN,1,num_8,16,num_8,1.1167275376,,,2017_Jun_08_1049,60.0099509764,MAFE4ImagesEEG,001,100612,
AFNE01.JPG,AFNE01.JPG,AFNE01.JPG,AFNE01.JPG,AFNE01.JPG,AFNE01.JPG,5,2,52,3,,,,,,,,,,,,,,,,,,,,,,,AMSA18.jpg,AMNE13.jpg,AMNE19.jpg,AMSA12.jpg,AMSA12.jpg,MS,2,num_4,32,num_8,1.01674739135,,,2017_Jun_08_1049,60.0099509764,MAFE4ImagesEEG,001,100612,
AFNE01.JPG,AFNE01.JPG,AFNE01.JPG,AFNE01.JPG,AFNE01.JPG,AFNE01.JPG,5,3,53,2,,,,,,,,,,,,,,,,,,,,,,,AMNE06.jpg,AMSA01.jpg,AMNE18.jpg,AMSA15.jpg,AMSA01.jpg,MS,2,num_6,16,num_6,1.3834288227,,,2017_Jun_08_1049,60.0099509764,MAFE4ImagesEEG,001,100612,
AFNE01.JPG,AFNE01.JPG,AFNE01.JPG,AFNE01.JPG,AFNE01.JPG,AFNE01.JPG,5,4,54,9,,,,,,,,,,,,,,,,,,,,,,,AMSA16.jpg,AMSA15.jpg,AMNE04.jpg,AMNE19.jpg,AMNE04.jpg,MN,1,num_2,16,num_2,1.08349640243,,,2017_Jun_08_1049,60.0099509764,MAFE4ImagesEEG,001,100612,
AFNE01.JPG,AFNE01.JPG,AFNE01.JPG,AFNE01.JPG,AFNE01.JPG,AFNE01.JPG,5,5,55,8,,,,,,,,,,,,,,,,,,,,,,,AMSA08.jpg,AMSA06.jpg,AMNE19.jpg,AMNE18.jpg,AMSA06.jpg,MS,2,num_6,32,num_8,0.83352615098,,,2017_Jun_08_1049,60.0099509764,MAFE4ImagesEEG,001,100612,
AFNE01.JPG,AFNE01.JPG,AFNE01.JPG,AFNE01.JPG,AFNE01.JPG,AFNE01.JPG,5,6,56,5,,,,,,,,,,,,,,,,,,,,,,,AMNE10.jpg,AMSA01.jpg,AMNE19.jpg,AMSA10.jpg,AMNE10.jpg,MN,1,num_8,16,num_8,0.866808925142,,,2017_Jun_08_1049,60.0099509764,MAFE4ImagesEEG,001,100612,
AFNE01.JPG,AFNE01.JPG,AFNE01.JPG,AFNE01.JPG,AFNE01.JPG,AFNE01.JPG,5,7,57,6,,,,,,,,,,,,,,,,,,,,,,,AMNE17.jpg,AMNE06.jpg,AMSA18.jpg,AMSA19.jpg,AMNE17.jpg,MN,1,num_8,32,num_6,1.03345885992,,,2017_Jun_08_1049,60.0099509764,MAFE4ImagesEEG,001,100612,
AFNE01.JPG,AFNE01.JPG,AFNE01.JPG,AFNE01.JPG,AFNE01.JPG,AFNE01.JPG,5,8,58,1,,,,,,,,,,,,,,,,,,,,,,,AMNE15.jpg,AMNE13.jpg,AMSA01.jpg,AMSA08.jpg,AMSA08.jpg,MS,2,num_4,32,num_8,1.26674747153,,,2017_Jun_08_1049,60.0099509764,MAFE4ImagesEEG,001,100612,
AFNE01.JPG,AFNE01.JPG,AFNE01.JPG,AFNE01.JPG,AFNE01.JPG,AFNE01.JPG,5,9,59,7,,,,,,,,,,,,,,,,,,,,,,,AMSA19.jpg,AMNE14.jpg,AMSA13.jpg,AMNE10.jpg,AMNE10.jpg,MN,1,num_4,16,num_4,0.783408744438,,,2017_Jun_08_1049,60.0099509764,MAFE4ImagesEEG,001,100612,
,,,,,,,,,,,,,,,,,,,,,,,,,,,,,,,,,,,,,,,,,,,space,1.81701963468,2017_Jun_08_1049,60.0099509764,MAFE4ImagesEEG,001,100612,
AFNE01.JPG,AFNE01.JPG,AFNE01.JPG,AFNE01.JPG,AFNE01.JPG,AFNE01.JPG,,,,,0,0,0,2,,,,,,,,,,,,,,,,,,,AFNE11.jpg,AFSA16.jpg,AFNE03.jpg,AFSA11.jpg,AFSA16.jpg,FS,4,num_6,32,num_2,0.850101946919,,,2017_Jun_08_1049,60.0099509764,MAFE4ImagesEEG,001,100612,
AFNE01.JPG,AFNE01.JPG,AFNE01.JPG,AFNE01.JPG,AFNE01.JPG,AFNE01.JPG,,,,,0,1,1,6,,,,,,,,,,,,,,,,,,,AFNE07.jpg,AFNE02.jpg,AFSA18.jpg,AFSA13.jpg,AFSA13.jpg,FS,4,num_4,32,num_2,0.91675281184,,,2017_Jun_08_1049,60.0099509764,MAFE4ImagesEEG,001,100612,
AFNE01.JPG,AFNE01.JPG,AFNE01.JPG,AFNE01.JPG,AFNE01.JPG,AFNE01.JPG,,,,,0,2,2,0,,,,,,,,,,,,,,,,,,,AFNE06.jpg,AFSA15.jpg,AFNE11.jpg,AFSA13.jpg,AFNE06.jpg,FN,3,num_8,16,num_8,0.850129209741,,,2017_Jun_08_1049,60.0099509764,MAFE4ImagesEEG,001,100612,
AFNE01.JPG,AFNE01.JPG,AFNE01.JPG,AFNE01.JPG,AFNE01.JPG,AFNE01.JPG,,,,,0,3,3,7,,,,,,,,,,,,,,,,,,,AFNE15.jpg,AFNE12.jpg,AFSA18.jpg,AFSA15.jpg,AFSA18.jpg,FS,4,num_2,16,num_2,0.833444362513,,,2017_Jun_08_1049,60.0099509764,MAFE4ImagesEEG,001,100612,
AFNE01.JPG,AFNE01.JPG,AFNE01.JPG,AFNE01.JPG,AFNE01.JPG,AFNE01.JPG,,,,,0,4,4,9,,,,,,,,,,,,,,,,,,,AFNE05.jpg,AFSA15.jpg,AFNE12.jpg,AFSA04.jpg,AFSA04.jpg,FS,4,num_4,16,num_4,0.783549548897,,,2017_Jun_08_1049,60.0099509764,MAFE4ImagesEEG,001,100612,
AFNE01.JPG,AFNE01.JPG,AFNE01.JPG,AFNE01.JPG,AFNE01.JPG,AFNE01.JPG,,,,,0,5,5,8,,,,,,,,,,,,,,,,,,,AFNE19.jpg,AFSA18.jpg,AFNE09.jpg,AFSA03.jpg,AFNE19.jpg,FN,3,num_8,16,num_8,0.900081435653,,,2017_Jun_08_1049,60.0099509764,MAFE4ImagesEEG,001,100612,
AFNE01.JPG,AFNE01.JPG,AFNE01.JPG,AFNE01.JPG,AFNE01.JPG,AFNE01.JPG,,,,,0,6,6,5,,,,,,,,,,,,,,,,,,,AFSA06.jpg,AFNE02.jpg,AFSA09.jpg,AFNE17.jpg,AFSA09.jpg,FS,4,num_2,16,num_2,0.800128872965,,,2017_Jun_08_1049,60.0099509764,MAFE4ImagesEEG,001,100612,
AFNE01.JPG,AFNE01.JPG,AFNE01.JPG,AFNE01.JPG,AFNE01.JPG,AFNE01.JPG,,,,,0,7,7,1,,,,,,,,,,,,,,,,,,,AFNE12.jpg,AFSA19.jpg,AFSA10.jpg,AFNE04.jpg,AFSA10.jpg,FS,4,num_2,16,num_2,0.750145214622,,,2017_Jun_08_1049,60.0099509764,MAFE4ImagesEEG,001,100612,
AFNE01.JPG,AFNE01.JPG,AFNE01.JPG,AFNE01.JPG,AFNE01.JPG,AFNE01.JPG,,,,,0,8,8,3,,,,,,,,,,,,,,,,,,,AFSA18.jpg,AFNE05.jpg,AFNE03.jpg,AFSA06.jpg,AFSA06.jpg,FS,4,num_4,32,num_8,0.766842891411,,,2017_Jun_08_1049,60.0099509764,MAFE4ImagesEEG,001,100612,
AFNE01.JPG,AFNE01.JPG,AFNE01.JPG,AFNE01.JPG,AFNE01.JPG,AFNE01.JPG,,,,,0,9,9,4,,,,,,,,,,,,,,,,,,,AFSA16.jpg,AFSA15.jpg,AFNE20.jpg,AFNE02.jpg,AFNE02.jpg,FN,3,num_4,16,num_4,1.3167526194,,,2017_Jun_08_1049,60.0099509764,MAFE4ImagesEEG,001,100612,
AFNE01.JPG,AFNE01.JPG,AFNE01.JPG,AFNE01.JPG,AFNE01.JPG,AFNE01.JPG,,,,,1,0,10,7,,,,,,,,,,,,,,,,,,,AFNE06.jpg,AFSA11.jpg,AFNE12.jpg,AFSA07.jpg,AFSA11.jpg,FS,4,num_6,16,num_6,0.70013974602,,,2017_Jun_08_1049,60.0099509764,MAFE4ImagesEEG,001,100612,
AFNE01.JPG,AFNE01.JPG,AFNE01.JPG,AFNE01.JPG,AFNE01.JPG,AFNE01.JPG,,,,,1,1,11,2,,,,,,,,,,,,,,,,,,,AFNE14.jpg,AFNE04.jpg,AFSA02.jpg,AFSA11.jpg,AFSA11.jpg,FS,4,num_4,16,num_4,0.716795726728,,,2017_Jun_08_1049,60.0099509764,MAFE4ImagesEEG,001,100612,
AFNE01.JPG,AFNE01.JPG,AFNE01.JPG,AFNE01.JPG,AFNE01.JPG,AFNE01.JPG,,,,,1,2,12,9,,,,,,,,,,,,,,,,,,,AFSA19.jpg,AFNE08.jpg,AFSA12.jpg,AFNE17.jpg,AFNE17.jpg,FN,3,num_4,32,num_8,0.80016896535,,,2017_Jun_08_1049,60.0099509764,MAFE4ImagesEEG,001,100612,
AFNE01.JPG,AFNE01.JPG,AFNE01.JPG,AFNE01.JPG,AFNE01.JPG,AFNE01.JPG,,,,,1,3,13,6,,,,,,,,,,,,,,,,,,,AFSA02.jpg,AFNE02.jpg,AFSA16.jpg,AFNE09.jpg,AFSA16.jpg,FS,4,num_2,32,num_8,0.883487678327,,,2017_Jun_08_1049,60.0099509764,MAFE4ImagesEEG,001,100612,
AFNE01.JPG,AFNE01.JPG,AFNE01.JPG,AFNE01.JPG,AFNE01.JPG,AFNE01.JPG,,,,,1,4,14,5,,,,,,,,,,,,,,,,,,,AFSA09.jpg,AFSA03.jpg,AFNE09.jpg,AFNE16.jpg,AFSA09.jpg,FS,4,num_8,32,num_4,0.733475442131,,,2017_Jun_08_1049,60.0099509764,MAFE4ImagesEEG,001,100612,
AFNE01.JPG,AFNE01.JPG,AFNE01.JPG,AFNE01.JPG,AFNE01.JPG,AFNE01.JPG,,,,,1,5,15,3,,,,,,,,,,,,,,,,,,,AFSA18.jpg,AFNE20.jpg,AFNE10.jpg,AFSA04.jpg,AFNE20.jpg,FN,3,num_6,32,num_2,1.78341323479,,,2017_Jun_08_1049,60.0099509764,MAFE4ImagesEEG,001,100612,
AFNE01.JPG,AFNE01.JPG,AFNE01.JPG,AFNE01.JPG,AFNE01.JPG,AFNE01.JPG,,,,,1,6,16,1,,,,,,,,,,,,,,,,,,,AFNE06.jpg,AFSA15.jpg,AFSA01.jpg,AFNE08.jpg,AFSA15.jpg,FS,4,num_6,16,num_6,0.783508494294,,,2017_Jun_08_1049,60.0099509764,MAFE4ImagesEEG,001,100612,
AFNE01.JPG,AFNE01.JPG,AFNE01.JPG,AFNE01.JPG,AFNE01.JPG,AFNE01.JPG,,,,,1,7,17,4,,,,,,,,,,,,,,,,,,,AFNE19.jpg,AFSA01.jpg,AFNE16.jpg,AFSA07.jpg,AFNE19.jpg,FN,3,num_8,16,num_8,0.816738987985,,,2017_Jun_08_1049,60.0099509764,MAFE4ImagesEEG,001,100612,
AFNE01.JPG,AFNE01.JPG,AFNE01.JPG,AFNE01.JPG,AFNE01.JPG,AFNE01.JPG,,,,,1,8,18,8,,,,,,,,,,,,,,,,,,,AFNE08.jpg,AFNE05.jpg,AFSA13.jpg,AFSA01.jpg,AFSA13.jpg,FS,4,num_2,16,num_2,1.15009274171,,,2017_Jun_08_1049,60.0099509764,MAFE4ImagesEEG,001,100612,
AFNE01.JPG,AFNE01.JPG,AFNE01.JPG,AFNE01.JPG,AFNE01.JPG,AFNE01.JPG,,,,,1,9,19,0,,,,,,,,,,,,,,,,,,,AFSA19.jpg,AFNE19.jpg,AFSA13.jpg,AFNE11.jpg,AFSA13.jpg,FS,4,num_2,16,num_2,0.750147780534,,,2017_Jun_08_1049,60.0099509764,MAFE4ImagesEEG,001,100612,
AFNE01.JPG,AFNE01.JPG,AFNE01.JPG,AFNE01.JPG,AFNE01.JPG,AFNE01.JPG,,,,,2,0,20,6,,,,,,,,,,,,,,,,,,,AFNE14.jpg,AFSA12.jpg,AFNE18.jpg,AFSA18.jpg,AFSA12.jpg,FS,4,num_6,16,num_6,0.966725885793,,,2017_Jun_08_1049,60.0099509764,MAFE4ImagesEEG,001,100612,
AFNE01.JPG,AFNE01.JPG,AFNE01.JPG,AFNE01.JPG,AFNE01.JPG,AFNE01.JPG,,,,,2,1,21,3,,,,,,,,,,,,,,,,,,,AFSA17.jpg,AFSA03.jpg,AFNE14.jpg,AFNE07.jpg,AFSA17.jpg,FS,4,num_8,32,num_2,0.750175364095,,,2017_Jun_08_1049,60.0099509764,MAFE4ImagesEEG,001,100612,
AFNE01.JPG,AFNE01.JPG,AFNE01.JPG,AFNE01.JPG,AFNE01.JPG,AFNE01.JPG,,,,,2,2,22,9,,,,,,,,,,,,,,,,,,,AFSA03.jpg,AFSA01.jpg,AFNE08.jpg,AFNE02.jpg,AFSA01.jpg,FS,4,num_6,16,num_6,0.650129466331,,,2017_Jun_08_1049,60.0099509764,MAFE4ImagesEEG,001,100612,
AFNE01.JPG,AFNE01.JPG,AFNE01.JPG,AFNE01.JPG,AFNE01.JPG,AFNE01.JPG,,,,,2,3,23,1,,,,,,,,,,,,,,,,,,,AFSA07.jpg,AFNE10.jpg,AFSA01.jpg,AFNE16.jpg,AFSA07.jpg,FS,4,num_8,16,num_8,0.833451098034,,,2017_Jun_08_1049,60.0099509764,MAFE4ImagesEEG,001,100612,
AFNE01.JPG,AFNE01.JPG,AFNE01.JPG,AFNE01.JPG,AFNE01.JPG,AFNE01.JPG,,,,,2,4,24,2,,,,,,,,,,,,,,,,,,,AFSA17.jpg,AFNE09.jpg,AFNE03.jpg,AFSA09.jpg,AFNE09.jpg,FN,3,num_6,32,num_2,1.1667698912,,,2017_Jun_08_1049,60.0099509764,MAFE4ImagesEEG,001,100612,
AFNE01.JPG,AFNE01.JPG,AFNE01.JPG,AFNE01.JPG,AFNE01.JPG,AFNE01.JPG,,,,,2,5,25,4,,,,,,,,,,,,,,,,,,,AFSA08.jpg,AFNE12.jpg,AFSA13.jpg,AFNE07.jpg,AFSA13.jpg,FS,4,num_2,16,num_2,0.916843260262,,,2017_Jun_08_1049,60.0099509764,MAFE4ImagesEEG,001,100612,
AFNE01.JPG,AFNE01.JPG,AFNE01.JPG,AFNE01.JPG,AFNE01.JPG,AFNE01.JPG,,,,,2,6,26,8,,,,,,,,,,,,,,,,,,,AFSA05.jpg,AFSA15.jpg,AFNE05.jpg,AFNE06.jpg,AFNE05.jpg,FN,3,num_2,32,num_4,0.883437963768,,,2017_Jun_08_1049,60.0099509764,MAFE4ImagesEEG,001,100612,
AFNE01.JPG,AFNE01.JPG,AFNE01.JPG,AFNE01.JPG,AFNE01.JPG,AFNE01.JPG,,,,,2,7,27,0,,,,,,,,,,,,,,,,,,,AFSA13.jpg,AFNE08.jpg,AFSA11.jpg,AFNE11.jpg,AFSA13.jpg,FS,4,num_8,32,num_2,1.23346886698,,,2017_Jun_08_1049,60.0099509764,MAFE4ImagesEEG,001,100612,
AFNE01.JPG,AFNE01.JPG,AFNE01.JPG,AFNE01.JPG,AFNE01.JPG,AFNE01.JPG,,,,,2,8,28,7,,,,,,,,,,,,,,,,,,,AFNE16.jpg,AFSA02.jpg,AFSA11.jpg,AFNE17.jpg,AFNE17.jpg,FN,3,num_4,16,num_4,0.950127317379,,,2017_Jun_08_1049,60.0099509764,MAFE4ImagesEEG,001,100612,
AFNE01.JPG,AFNE01.JPG,AFNE01.JPG,AFNE01.JPG,AFNE01.JPG,AFNE01.JPG,,,,,2,9,29,5,,,,,,,,,,,,,,,,,,,AFSA01.jpg,AFSA07.jpg,AFNE03.jpg,AFNE01.jpg,AFNE01.jpg,FN,3,num_4,32,num_8,0.666829388296,,,2017_Jun_08_1049,60.0099509764,MAFE4ImagesEEG,001,100612,
AFNE01.JPG,AFNE01.JPG,AFNE01.JPG,AFNE01.JPG,AFNE01.JPG,AFNE01.JPG,,,,,3,0,30,4,,,,,,,,,,,,,,,,,,,AFSA05.jpg,AFNE17.jpg,AFSA09.jpg,AFNE14.jpg,AFSA05.jpg,FS,4,num_8,16,num_8,0.683430522622,,,2017_Jun_08_1049,60.0099509764,MAFE4ImagesEEG,001,100612,
AFNE01.JPG,AFNE01.JPG,AFNE01.JPG,AFNE01.JPG,AFNE01.JPG,AFNE01.JPG,,,,,3,1,31,9,,,,,,,,,,,,,,,,,,,AFNE16.jpg,AFSA12.jpg,AFNE20.jpg,AFSA18.jpg,AFSA18.jpg,FS,4,num_4,32,num_6,0.96675154492,,,2017_Jun_08_1049,60.0099509764,MAFE4ImagesEEG,001,100612,
AFNE01.JPG,AFNE01.JPG,AFNE01.JPG,AFNE01.JPG,AFNE01.JPG,AFNE01.JPG,,,,,3,2,32,1,,,,,,,,,,,,,,,,,,,AFSA13.jpg,AFNE13.jpg,AFSA08.jpg,AFNE20.jpg,AFSA13.jpg,FS,4,num_8,16,num_8,1.1834127216,,,2017_Jun_08_1049,60.0099509764,MAFE4ImagesEEG,001,100612,
AFNE01.JPG,AFNE01.JPG,AFNE01.JPG,AFNE01.JPG,AFNE01.JPG,AFNE01.JPG,,,,,3,3,33,5,,,,,,,,,,,,,,,,,,,AFNE01.jpg,AFSA14.jpg,AFSA09.jpg,AFNE20.jpg,AFNE20.jpg,FN,3,num_4,16,num_4,0.783444667216,,,2017_Jun_08_1049,60.0099509764,MAFE4ImagesEEG,001,100612,
AFNE01.JPG,AFNE01.JPG,AFNE01.JPG,AFNE01.JPG,AFNE01.JPG,AFNE01.JPG,,,,,3,4,34,8,,,,,,,,,,,,,,,,,,,AFNE13.jpg,AFSA07.jpg,AFNE20.jpg,AFSA17.jpg,AFSA17.jpg,FS,4,num_4,32,num_8,0.966783939568,,,2017_Jun_08_1049,60.0099509764,MAFE4ImagesEEG,001,100612,
AFNE01.JPG,AFNE01.JPG,AFNE01.JPG,AFNE01.JPG,AFNE01.JPG,AFNE01.JPG,,,,,3,5,35,6,,,,,,,,,,,,,,,,,,,AFSA13.jpg,AFNE19.jpg,AFSA17.jpg,AFNE09.jpg,AFNE09.jpg,FN,3,num_4,32,num_2,0.96668835932,,,2017_Jun_08_1049,60.0099509764,MAFE4ImagesEEG,001,100612,
AFNE01.JPG,AFNE01.JPG,AFNE01.JPG,AFNE01.JPG,AFNE01.JPG,AFNE01.JPG,,,,,3,6,36,2,,,,,,,,,,,,,,,,,,,AFNE04.jpg,AFSA17.jpg,AFNE09.jpg,AFSA04.jpg,AFSA04.jpg,FS,4,num_4,32,num_8,0.816723592508,,,2017_Jun_08_1049,60.0099509764,MAFE4ImagesEEG,001,100612,
AFNE01.JPG,AFNE01.JPG,AFNE01.JPG,AFNE01.JPG,AFNE01.JPG,AFNE01.JPG,,,,,3,7,37,7,,,,,,,,,,,,,,,,,,,AFNE18.jpg,AFSA09.jpg,AFSA12.jpg,AFNE02.jpg,AFNE02.jpg,FN,3,num_4,32,num_8,0.866735796631,,,2017_Jun_08_1049,60.0099509764,MAFE4ImagesEEG,001,100612,
AFNE01.JPG,AFNE01.JPG,AFNE01.JPG,AFNE01.JPG,AFNE01.JPG,AFNE01.JPG,,,,,3,8,38,0,,,,,,,,,,,,,,,,,,,AFNE16.jpg,AFNE11.jpg,AFSA09.jpg,AFSA14.jpg,AFNE16.jpg,FN,3,num_8,16,num_8,0.783449799041,,,2017_Jun_08_1049,60.0099509764,MAFE4ImagesEEG,001,100612,
AFNE01.JPG,AFNE01.JPG,AFNE01.JPG,AFNE01.JPG,AFNE01.JPG,AFNE01.JPG,,,,,3,9,39,3,,,,,,,,,,,,,,,,,,,AFNE04.jpg,AFSA12.jpg,AFSA10.jpg,AFNE08.jpg,AFSA10.jpg,FS,4,num_2,32,num_6,1.41675714182,,,2017_Jun_08_1049,60.0099509764,MAFE4ImagesEEG,001,100612,
AFNE01.JPG,AFNE01.JPG,AFNE01.JPG,AFNE01.JPG,AFNE01.JPG,AFNE01.JPG,,,,,4,0,40,4,,,,,,,,,,,,,,,,,,,AFSA19.jpg,AFSA08.jpg,AFNE16.jpg,AFNE08.jpg,AFNE08.jpg,FN,3,num_4,32,num_8,0.933487694364,,,2017_Jun_08_1049,60.0099509764,MAFE4ImagesEEG,001,100612,
AFNE01.JPG,AFNE01.JPG,AFNE01.JPG,AFNE01.JPG,AFNE01.JPG,AFNE01.JPG,,,,,4,1,41,3,,,,,,,,,,,,,,,,,,,AFNE17.jpg,AFNE02.jpg,AFSA12.jpg,AFSA18.jpg,AFSA12.jpg,FS,4,num_2,16,num_2,0.850327426495,,,2017_Jun_08_1049,60.0099509764,MAFE4ImagesEEG,001,100612,
AFNE01.JPG,AFNE01.JPG,AFNE01.JPG,AFNE01.JPG,AFNE01.JPG,AFNE01.JPG,,,,,4,2,42,2,,,,,,,,,,,,,,,,,,,AFSA18.jpg,AFNE16.jpg,AFSA16.jpg,AFNE03.jpg,AFNE16.jpg,FN,3,num_6,32,num_8,0.733455877046,,,2017_Jun_08_1049,60.0099509764,MAFE4ImagesEEG,001,100612,
AFNE01.JPG,AFNE01.JPG,AFNE01.JPG,AFNE01.JPG,AFNE01.JPG,AFNE01.JPG,,,,,4,3,43,1,,,,,,,,,,,,,,,,,,,AFSA02.jpg,AFNE14.jpg,AFSA11.jpg,AFNE17.jpg,AFSA02.jpg,FS,4,num_8,16,num_8,0.866791284493,,,2017_Jun_08_1049,60.0099509764,MAFE4ImagesEEG,001,100612,
AFNE01.JPG,AFNE01.JPG,AFNE01.JPG,AFNE01.JPG,AFNE01.JPG,AFNE01.JPG,,,,,4,4,44,7,,,,,,,,,,,,,,,,,,,AFSA02.jpg,AFNE01.jpg,AFSA04.jpg,AFNE11.jpg,AFNE01.jpg,FN,3,num_6,16,num_6,1.31697072197,,,2017_Jun_08_1049,60.0099509764,MAFE4ImagesEEG,001,100612,
AFNE01.JPG,AFNE01.JPG,AFNE01.JPG,AFNE01.JPG,AFNE01.JPG,AFNE01.JPG,,,,,4,5,45,0,,,,,,,,,,,,,,,,,,,AFNE03.jpg,AFSA13.jpg,AFSA12.jpg,AFNE18.jpg,AFSA13.jpg,FS,4,num_6,16,num_6,1.05013504719,,,2017_Jun_08_1049,60.0099509764,MAFE4ImagesEEG,001,100612,
AFNE01.JPG,AFNE01.JPG,AFNE01.JPG,AFNE01.JPG,AFNE01.JPG,AFNE01.JPG,,,,,4,6,46,9,,,,,,,,,,,,,,,,,,,AFNE04.jpg,AFSA17.jpg,AFSA10.jpg,AFNE16.jpg,AFNE04.jpg,FN,3,num_8,16,num_8,1.08343000944,,,2017_Jun_08_1049,60.0099509764,MAFE4ImagesEEG,001,100612,
AFNE01.JPG,AFNE01.JPG,AFNE01.JPG,AFNE01.JPG,AFNE01.JPG,AFNE01.JPG,,,,,4,7,47,6,,,,,,,,,,,,,,,,,,,AFSA14.jpg,AFNE07.jpg,AFSA16.jpg,AFNE13.jpg,AFSA16.jpg,FS,4,num_2,16,num_2,1.35006810895,,,2017_Jun_08_1049,60.0099509764,MAFE4ImagesEEG,001,100612,
AFNE01.JPG,AFNE01.JPG,AFNE01.JPG,AFNE01.JPG,AFNE01.JPG,AFNE01.JPG,,,,,4,8,48,8,,,,,,,,,,,,,,,,,,,AFNE20.jpg,AFNE08.jpg,AFSA10.jpg,AFSA04.jpg,AFNE08.jpg,FN,3,num_6,16,num_6,0.766785799854,,,2017_Jun_08_1049,60.0099509764,MAFE4ImagesEEG,001,100612,
AFNE01.JPG,AFNE01.JPG,AFNE01.JPG,AFNE01.JPG,AFNE01.JPG,AFNE01.JPG,,,,,4,9,49,5,,,,,,,,,,,,,,,,,,,AFSA12.jpg,AFNE01.jpg,AFSA04.jpg,AFNE15.jpg,AFSA04.jpg,FS,4,num_2,32,num_8,0.633474127101,,,2017_Jun_08_1049,60.0099509764,MAFE4ImagesEEG,001,100612,
AFNE01.JPG,AFNE01.JPG,AFNE01.JPG,AFNE01.JPG,AFNE01.JPG,AFNE01.JPG,,,,,5,0,50,7,,,,,,,,,,,,,,,,,,,AFSA04.jpg,AFNE10.jpg,AFNE08.jpg,AFSA19.jpg,AFNE10.jpg,FN,3,num_6,16,num_6,0.850125040133,,,2017_Jun_08_1049,60.0099509764,MAFE4ImagesEEG,001,100612,
AFNE01.JPG,AFNE01.JPG,AFNE01.JPG,AFNE01.JPG,AFNE01.JPG,AFNE01.JPG,,,,,5,1,51,4,,,,,,,,,,,,,,,,,,,AFSA10.jpg,AFNE13.jpg,AFSA01.jpg,AFNE04.jpg,AFSA10.jpg,FS,4,num_8,32,num_6,0.700115049111,,,2017_Jun_08_1049,60.0099509764,MAFE4ImagesEEG,001,100612,
AFNE01.JPG,AFNE01.JPG,AFNE01.JPG,AFNE01.JPG,AFNE01.JPG,AFNE01.JPG,,,,,5,2,52,3,,,,,,,,,,,,,,,,,,,AFNE01.jpg,AFSA01.jpg,AFSA13.jpg,AFNE08.jpg,AFSA13.jpg,FS,4,num_2,16,num_2,0.683576458906,,,2017_Jun_08_1049,60.0099509764,MAFE4ImagesEEG,001,100612,
AFNE01.JPG,AFNE01.JPG,AFNE01.JPG,AFNE01.JPG,AFNE01.JPG,AFNE01.JPG,,,,,5,3,53,8,,,,,,,,,,,,,,,,,,,AFSA07.jpg,AFSA19.jpg,AFNE14.jpg,AFNE09.jpg,AFSA19.jpg,FS,4,num_6,32,num_8,0.683450408445,,,2017_Jun_08_1049,60.0099509764,MAFE4ImagesEEG,001,100612,
AFNE01.JPG,AFNE01.JPG,AFNE01.JPG,AFNE01.JPG,AFNE01.JPG,AFNE01.JPG,,,,,5,4,54,0,,,,,,,,,,,,,,,,,,,AFNE14.jpg,AFSA16.jpg,AFSA03.jpg,AFNE13.jpg,AFNE13.jpg,FN,3,num_4,32,num_8,0.733459405176,,,2017_Jun_08_1049,60.0099509764,MAFE4ImagesEEG,001,100612,
AFNE01.JPG,AFNE01.JPG,AFNE01.JPG,AFNE01.JPG,AFNE01.JPG,AFNE01.JPG,,,,,5,5,55,6,,,,,,,,,,,,,,,,,,,AFNE02.jpg,AFSA20.jpg,AFSA02.jpg,AFNE05.jpg,AFNE05.jpg,FN,3,num_4,16,num_4,1.25009726413,,,2017_Jun_08_1049,60.0099509764,MAFE4ImagesEEG,001,100612,
AFNE01.JPG,AFNE01.JPG,AFNE01.JPG,AFNE01.JPG,AFNE01.JPG,AFNE01.JPG,,,,,5,6,56,1,,,,,,,,,,,,,,,,,,,AFNE03.jpg,AFSA08.jpg,AFNE18.jpg,AFSA07.jpg,AFNE18.jpg,FN,3,num_2,16,num_2,1.0667499733,,,2017_Jun_08_1049,60.0099509764,MAFE4ImagesEEG,001,100612,
AFNE01.JPG,AFNE01.JPG,AFNE01.JPG,AFNE01.JPG,AFNE01.JPG,AFNE01.JPG,,,,,5,7,57,2,,,,,,,,,,,,,,,,,,,AFNE06.jpg,AFNE09.jpg,AFSA09.jpg,AFSA14.jpg,AFSA14.jpg,FS,4,num_4,16,num_4,1.50005596897,,,2017_Jun_08_1049,60.0099509764,MAFE4ImagesEEG,001,100612,
AFNE01.JPG,AFNE01.JPG,AFNE01.JPG,AFNE01.JPG,AFNE01.JPG,AFNE01.JPG,,,,,5,8,58,5,,,,,,,,,,,,,,,,,,,AFNE10.jpg,AFSA13.jpg,AFSA01.jpg,AFNE20.jpg,AFNE20.jpg,FN,3,num_4,32,num_8,0.933418093982,,,2017_Jun_08_1049,60.0099509764,MAFE4ImagesEEG,001,100612,
AFNE01.JPG,AFNE01.JPG,AFNE01.JPG,AFNE01.JPG,AFNE01.JPG,AFNE01.JPG,,,,,5,9,59,9,,,,,,,,,,,,,,,,,,,AFNE03.jpg,AFNE01.jpg,AFSA19.jpg,AFSA18.jpg,AFSA18.jpg,FS,4,num_4,16,num_4,0.716789632686,,,2017_Jun_08_1049,60.0099509764,MAFE4ImagesEEG,001,100612,
,,,,,,,,,,,,,,,,,,,,,,,,,,,,,,,,,,,,,,,,,,,space,6.21635070125,2017_Jun_08_1049,60.0099509764,MAFE4ImagesEEG,001,100612,
AFNE01.JPG,AFNE01.JPG,AFNE01.JPG,AFNE01.JPG,AFNE01.JPG,AFNE01.JPG,,,,,,,,,0,0,0,6,,,,,,,,,,,,,,,AMNE07.jpg,AMNE15.jpg,AMSA11.jpg,AMSA02.jpg,AMSA11.jpg,MS,2,num_2,32,num_4,0.933559860658,,,2017_Jun_08_1049,60.0099509764,MAFE4ImagesEEG,001,100612,
AFNE01.JPG,AFNE01.JPG,AFNE01.JPG,AFNE01.JPG,AFNE01.JPG,AFNE01.JPG,,,,,,,,,0,1,1,3,,,,,,,,,,,,,,,AMNE11.jpg,AMSA16.jpg,AMNE18.jpg,AMSA07.jpg,AMNE11.jpg,MN,1,num_8,16,num_8,0.816776514457,,,2017_Jun_08_1049,60.0099509764,MAFE4ImagesEEG,001,100612,
AFNE01.JPG,AFNE01.JPG,AFNE01.JPG,AFNE01.JPG,AFNE01.JPG,AFNE01.JPG,,,,,,,,,0,2,2,0,,,,,,,,,,,,,,,AMSA04.jpg,AMNE05.jpg,AMSA15.jpg,AMNE17.jpg,AMSA04.jpg,MS,2,num_8,16,num_8,0.800163833524,,,2017_Jun_08_1049,60.0099509764,MAFE4ImagesEEG,001,100612,
AFNE01.JPG,AFNE01.JPG,AFNE01.JPG,AFNE01.JPG,AFNE01.JPG,AFNE01.JPG,,,,,,,,,0,3,3,5,,,,,,,,,,,,,,,AMNE15.jpg,AMSA13.jpg,AMNE12.jpg,AMSA20.jpg,AMNE12.jpg,MN,1,num_2,32,num_8,0.800234075385,,,2017_Jun_08_1049,60.0099509764,MAFE4ImagesEEG,001,100612,
AFNE01.JPG,AFNE01.JPG,AFNE01.JPG,AFNE01.JPG,AFNE01.JPG,AFNE01.JPG,,,,,,,,,0,4,4,4,,,,,,,,,,,,,,,AMNE01.jpg,AMSA04.jpg,AMSA08.jpg,AMNE16.jpg,AMSA08.jpg,MS,2,num_2,16,num_2,1.10018060818,,,2017_Jun_08_1049,60.0099509764,MAFE4ImagesEEG,001,100612,
AFNE01.JPG,AFNE01.JPG,AFNE01.JPG,AFNE01.JPG,AFNE01.JPG,AFNE01.JPG,,,,,,,,,0,5,5,2,,,,,,,,,,,,,,,AMNE15.jpg,AMNE05.jpg,AMSA16.jpg,AMSA07.jpg,AMSA07.jpg,MS,2,num_4,32,num_8,0.966855785123,,,2017_Jun_08_1049,60.0099509764,MAFE4ImagesEEG,001,100612,
AFNE01.JPG,AFNE01.JPG,AFNE01.JPG,AFNE01.JPG,AFNE01.JPG,AFNE01.JPG,,,,,,,,,0,6,6,1,,,,,,,,,,,,,,,AMSA16.jpg,AMNE10.jpg,AMNE11.jpg,AMSA04.jpg,AMNE10.jpg,MN,1,num_6,32,num_2,1.03345533179,,,2017_Jun_08_1049,60.0099509764,MAFE4ImagesEEG,001,100612,
AFNE01.JPG,AFNE01.JPG,AFNE01.JPG,AFNE01.JPG,AFNE01.JPG,AFNE01.JPG,,,,,,,,,0,7,7,7,,,,,,,,,,,,,,,AMNE05.jpg,AMSA17.jpg,AMSA04.jpg,AMNE09.jpg,AMSA17.jpg,MS,2,num_6,32,num_2,0.866761455758,,,2017_Jun_08_1049,60.0099509764,MAFE4ImagesEEG,001,100612,
AFNE01.JPG,AFNE01.JPG,AFNE01.JPG,AFNE01.JPG,AFNE01.JPG,AFNE01.JPG,,,,,,,,,0,8,8,9,,,,,,,,,,,,,,,AMSA02.jpg,AMSA06.jpg,AMNE15.jpg,AMNE18.jpg,AMSA06.jpg,MS,2,num_6,32,num_8,1.03349253752,,,2017_Jun_08_1049,60.0099509764,MAFE4ImagesEEG,001,100612,
AFNE01.JPG,AFNE01.JPG,AFNE01.JPG,AFNE01.JPG,AFNE01.JPG,AFNE01.JPG,,,,,,,,,0,9,9,8,,,,,,,,,,,,,,,AMSA14.jpg,AMNE11.jpg,AMNE17.jpg,AMSA20.jpg,AMNE17.jpg,MN,1,num_2,16,num_2,0.750099669671,,,2017_Jun_08_1049,60.0099509764,MAFE4ImagesEEG,001,100612,
AFNE01.JPG,AFNE01.JPG,AFNE01.JPG,AFNE01.JPG,AFNE01.JPG,AFNE01.JPG,,,,,,,,,1,0,10,2,,,,,,,,,,,,,,,AMNE04.jpg,AMSA11.jpg,AMSA06.jpg,AMNE12.jpg,AMNE04.jpg,MN,1,num_8,16,num_8,0.833459116511,,,2017_Jun_08_1049,60.0099509764,MAFE4ImagesEEG,001,100612,
AFNE01.JPG,AFNE01.JPG,AFNE01.JPG,AFNE01.JPG,AFNE01.JPG,AFNE01.JPG,,,,,,,,,1,1,11,7,,,,,,,,,,,,,,,AMSA03.jpg,AMNE02.jpg,AMNE07.jpg,AMSA19.jpg,AMNE02.jpg,MN,1,num_6,32,num_8,0.833444362514,,,2017_Jun_08_1049,60.0099509764,MAFE4ImagesEEG,001,100612,
AFNE01.JPG,AFNE01.JPG,AFNE01.JPG,AFNE01.JPG,AFNE01.JPG,AFNE01.JPG,,,,,,,,,1,2,12,0,,,,,,,,,,,,,,,AMSA13.jpg,AMNE18.jpg,AMNE13.jpg,AMSA16.jpg,AMSA16.jpg,MS,2,num_4,32,num_2,1.16674326985,,,2017_Jun_08_1049,60.0099509764,MAFE4ImagesEEG,001,100612,
AFNE01.JPG,AFNE01.JPG,AFNE01.JPG,AFNE01.JPG,AFNE01.JPG,AFNE01.JPG,,,,,,,,,1,3,13,3,,,,,,,,,,,,,,,AMNE16.jpg,AMNE13.jpg,AMSA08.jpg,AMSA05.jpg,AMSA05.jpg,MS,2,num_4,32,num_8,1.46643481507,,,2017_Jun_08_1049,60.0099509764,MAFE4ImagesEEG,001,100612,
AFNE01.JPG,AFNE01.JPG,AFNE01.JPG,AFNE01.JPG,AFNE01.JPG,AFNE01.JPG,,,,,,,,,1,4,14,4,,,,,,,,,,,,,,,AMNE15.jpg,AMSA12.jpg,AMSA03.jpg,AMNE02.jpg,AMNE02.jpg,MN,1,num_4,16,num_4,0.783458458996,,,2017_Jun_08_1049,60.0099509764,MAFE4ImagesEEG,001,100612,
AFNE01.JPG,AFNE01.JPG,AFNE01.JPG,AFNE01.JPG,AFNE01.JPG,AFNE01.JPG,,,,,,,,,1,5,15,5,,,,,,,,,,,,,,,AMNE08.jpg,AMSA19.jpg,AMNE04.jpg,AMSA06.jpg,AMNE04.jpg,MN,1,num_2,32,num_8,1.13344926982,,,2017_Jun_08_1049,60.0099509764,MAFE4ImagesEEG,001,100612,
AFNE01.JPG,AFNE01.JPG,AFNE01.JPG,AFNE01.JPG,AFNE01.JPG,AFNE01.JPG,,,,,,,,,1,6,16,1,,,,,,,,,,,,,,,AMNE01.jpg,AMSA02.jpg,AMSA11.jpg,AMNE16.jpg,AMNE01.jpg,MN,1,num_8,16,num_8,1.4167430293,,,2017_Jun_08_1049,60.0099509764,MAFE4ImagesEEG,001,100612,
AFNE01.JPG,AFNE01.JPG,AFNE01.JPG,AFNE01.JPG,AFNE01.JPG,AFNE01.JPG,,,,,,,,,1,7,17,9,,,,,,,,,,,,,,,AMSA09.jpg,AMNE13.jpg,AMSA18.jpg,AMNE12.jpg,AMSA09.jpg,MS,2,num_8,16,num_8,0.833562715236,,,2017_Jun_08_1049,60.0099509764,MAFE4ImagesEEG,001,100612,
AFNE01.JPG,AFNE01.JPG,AFNE01.JPG,AFNE01.JPG,AFNE01.JPG,AFNE01.JPG,,,,,,,,,1,8,18,8,,,,,,,,,,,,,,,AMSA12.jpg,AMNE04.jpg,AMNE03.jpg,AMSA10.jpg,AMNE04.jpg,MN,1,num_6,16,num_6,1.43359626454,,,2017_Jun_08_1049,60.0099509764,MAFE4ImagesEEG,001,100612,
AFNE01.JPG,AFNE01.JPG,AFNE01.JPG,AFNE01.JPG,AFNE01.JPG,AFNE01.JPG,,,,,,,,,1,9,19,6,,,,,,,,,,,,,,,AMSA08.jpg,AMSA19.jpg,AMNE17.jpg,AMNE02.jpg,AMNE17.jpg,MN,1,num_2,32,num_8,0.333489426355,,,2017_Jun_08_1049,60.0099509764,MAFE4ImagesEEG,001,100612,
AFNE01.JPG,AFNE01.JPG,AFNE01.JPG,AFNE01.JPG,AFNE01.JPG,AFNE01.JPG,,,,,,,,,2,0,20,4,,,,,,,,,,,,,,,AMSA20.jpg,AMSA14.jpg,AMNE07.jpg,AMNE13.jpg,AMSA20.jpg,MS,2,num_8,32,num_4,0.966710169578,,,2017_Jun_08_1049,60.0099509764,MAFE4ImagesEEG,001,100612,
AFNE01.JPG,AFNE01.JPG,AFNE01.JPG,AFNE01.JPG,AFNE01.JPG,AFNE01.JPG,,,,,,,,,2,1,21,3,,,,,,,,,,,,,,,AMSA11.jpg,AMSA01.jpg,AMNE17.jpg,AMNE07.jpg,AMNE07.jpg,MN,1,num_4,32,num_8,0.616755602269,,,2017_Jun_08_1049,60.0099509764,MAFE4ImagesEEG,001,100612,
AFNE01.JPG,AFNE01.JPG,AFNE01.JPG,AFNE01.JPG,AFNE01.JPG,AFNE01.JPG,,,,,,,,,2,2,22,0,,,,,,,,,,,,,,,AMSA01.jpg,AMSA02.jpg,AMNE02.jpg,AMNE01.jpg,AMSA02.jpg,MS,2,num_6,32,num_2,0.800120533748,,,2017_Jun_08_1049,60.0099509764,MAFE4ImagesEEG,001,100612,
AFNE01.JPG,AFNE01.JPG,AFNE01.JPG,AFNE01.JPG,AFNE01.JPG,AFNE01.JPG,,,,,,,,,2,3,23,2,,,,,,,,,,,,,,,AMSA11.jpg,AMNE04.jpg,AMSA19.jpg,AMNE16.jpg,AMNE16.jpg,MN,1,num_4,32,num_2,0.883458811809,,,2017_Jun_08_1049,60.0099509764,MAFE4ImagesEEG,001,100612,
AFNE01.JPG,AFNE01.JPG,AFNE01.JPG,AFNE01.JPG,AFNE01.JPG,AFNE01.JPG,,,,,,,,,2,4,24,1,,,,,,,,,,,,,,,AMSA13.jpg,AMSA02.jpg,AMNE10.jpg,AMNE06.jpg,AMNE10.jpg,MN,1,num_2,16,num_2,1.63311489932,,,2017_Jun_08_1049,60.0099509764,MAFE4ImagesEEG,001,100612,
AFNE01.JPG,AFNE01.JPG,AFNE01.JPG,AFNE01.JPG,AFNE01.JPG,AFNE01.JPG,,,,,,,,,2,5,25,8,,,,,,,,,,,,,,,AMSA03.jpg,AMSA07.jpg,AMNE02.jpg,AMNE10.jpg,AMNE02.jpg,MN,1,num_2,16,num_2,1.9834097708,,,2017_Jun_08_1049,60.0099509764,MAFE4ImagesEEG,001,100612,
AFNE01.JPG,AFNE01.JPG,AFNE01.JPG,AFNE01.JPG,AFNE01.JPG,AFNE01.JPG,,,,,,,,,2,6,26,9,,,,,,,,,,,,,,,AMSA12.jpg,AMNE19.jpg,AMNE11.jpg,AMSA15.jpg,AMNE19.jpg,MN,1,num_6,32,num_8,0.850156472563,,,2017_Jun_08_1049,60.0099509764,MAFE4ImagesEEG,001,100612,
AFNE01.JPG,AFNE01.JPG,AFNE01.JPG,AFNE01.JPG,AFNE01.JPG,AFNE01.JPG,,,,,,,,,2,7,27,5,,,,,,,,,,,,,,,AMSA01.jpg,AMSA19.jpg,AMNE02.jpg,AMNE07.jpg,AMNE02.jpg,MN,1,num_2,32,num_8,0.817017068772,,,2017_Jun_08_1049,60.0099509764,MAFE4ImagesEEG,001,100612,
AFNE01.JPG,AFNE01.JPG,AFNE01.JPG,AFNE01.JPG,AFNE01.JPG,AFNE01.JPG,,,,,,,,,2,8,28,6,,,,,,,,,,,,,,,AMNE12.jpg,AMSA01.jpg,AMSA13.jpg,AMNE09.jpg,AMSA01.jpg,MS,2,num_6,32,num_4,0.883511733758,,,2017_Jun_08_1049,60.0099509764,MAFE4ImagesEEG,001,100612,
AFNE01.JPG,AFNE01.JPG,AFNE01.JPG,AFNE01.JPG,AFNE01.JPG,AFNE01.JPG,,,,,,,,,2,9,29,7,,,,,,,,,,,,,,,AMNE03.jpg,AMNE02.jpg,AMSA11.jpg,AMSA06.jpg,AMNE03.jpg,MN,1,num_8,16,num_8,1.2166974202,,,2017_Jun_08_1049,60.0099509764,MAFE4ImagesEEG,001,100612,
AFNE01.JPG,AFNE01.JPG,AFNE01.JPG,AFNE01.JPG,AFNE01.JPG,AFNE01.JPG,,,,,,,,,3,0,30,1,,,,,,,,,,,,,,,AMNE10.jpg,AMSA16.jpg,AMNE13.jpg,AMSA08.jpg,AMNE10.jpg,MN,1,num_8,32,num_6,0.650274761138,,,2017_Jun_08_1049,60.0099509764,MAFE4ImagesEEG,001,100612,
AFNE01.JPG,AFNE01.JPG,AFNE01.JPG,AFNE01.JPG,AFNE01.JPG,AFNE01.JPG,,,,,,,,,3,1,31,6,,,,,,,,,,,,,,,AMNE11.jpg,AMNE10.jpg,AMSA18.jpg,AMSA07.jpg,AMNE10.jpg,MN,1,num_6,16,num_6,0.750027182637,,,2017_Jun_08_1049,60.0099509764,MAFE4ImagesEEG,001,100612,
AFNE01.JPG,AFNE01.JPG,AFNE01.JPG,AFNE01.JPG,AFNE01.JPG,AFNE01.JPG,,,,,,,,,3,2,32,3,,,,,,,,,,,,,,,AMSA17.jpg,AMSA13.jpg,AMNE13.jpg,AMNE20.jpg,AMNE20.jpg,MN,1,num_4,32,num_8,0.550125585389,,,2017_Jun_08_1049,60.0099509764,MAFE4ImagesEEG,001,100612,
AFNE01.JPG,AFNE01.JPG,AFNE01.JPG,AFNE01.JPG,AFNE01.JPG,AFNE01.JPG,,,,,,,,,3,3,33,0,,,,,,,,,,,,,,,AMNE01.jpg,AMSA06.jpg,AMNE08.jpg,AMSA07.jpg,AMSA06.jpg,MS,2,num_6,16,num_6,0.833476436422,,,2017_Jun_08_1049,60.0099509764,MAFE4ImagesEEG,001,100612,
AFNE01.JPG,AFNE01.JPG,AFNE01.JPG,AFNE01.JPG,AFNE01.JPG,AFNE01.JPG,,,,,,,,,3,4,34,7,,,,,,,,,,,,,,,AMNE01.jpg,AMSA06.jpg,AMNE13.jpg,AMSA02.jpg,AMNE13.jpg,MN,1,num_2,16,num_2,1.10041314402,,,2017_Jun_08_1049,60.0099509764,MAFE4ImagesEEG,001,100612,
AFNE01.JPG,AFNE01.JPG,AFNE01.JPG,AFNE01.JPG,AFNE01.JPG,AFNE01.JPG,,,,,,,,,3,5,35,2,,,,,,,,,,,,,,,AMNE17.jpg,AMNE05.jpg,AMSA07.jpg,AMSA04.jpg,AMSA07.jpg,MS,2,num_2,16,num_2,1.28314172915,,,2017_Jun_08_1049,60.0099509764,MAFE4ImagesEEG,001,100612,
AFNE01.JPG,AFNE01.JPG,AFNE01.JPG,AFNE01.JPG,AFNE01.JPG,AFNE01.JPG,,,,,,,,,3,6,36,9,,,,,,,,,,,,,,,AMNE16.jpg,AMSA15.jpg,AMSA02.jpg,AMNE12.jpg,AMSA15.jpg,MS,2,num_6,16,num_6,0.900104208129,,,2017_Jun_08_1049,60.0099509764,MAFE4ImagesEEG,001,100612,
AFNE01.JPG,AFNE01.JPG,AFNE01.JPG,AFNE01.JPG,AFNE01.JPG,AFNE01.JPG,,,,,,,,,3,7,37,5,,,,,,,,,,,,,,,AMNE07.jpg,AMSA10.jpg,AMNE08.jpg,AMSA03.jpg,AMNE07.jpg,MN,1,num_8,16,num_8,0.833436664775,,,2017_Jun_08_1049,60.0099509764,MAFE4ImagesEEG,001,100612,
AFNE01.JPG,AFNE01.JPG,AFNE01.JPG,AFNE01.JPG,AFNE01.JPG,AFNE01.JPG,,,,,,,,,3,8,38,8,,,,,,,,,,,,,,,AMNE16.jpg,AMSA16.jpg,AMNE14.jpg,AMSA17.jpg,AMNE14.jpg,MN,1,num_2,16,num_2,1.05010329402,,,2017_Jun_08_1049,60.0099509764,MAFE4ImagesEEG,001,100612,
AFNE01.JPG,AFNE01.JPG,AFNE01.JPG,AFNE01.JPG,AFNE01.JPG,AFNE01.JPG,,,,,,,,,3,9,39,4,,,,,,,,,,,,,,,AMNE06.jpg,AMSA02.jpg,AMSA18.jpg,AMNE11.jpg,AMNE06.jpg,MN,1,num_8,32,num_4,0.866763700932,,,2017_Jun_08_1049,60.0099509764,MAFE4ImagesEEG,001,100612,
AFNE01.JPG,AFNE01.JPG,AFNE01.JPG,AFNE01.JPG,AFNE01.JPG,AFNE01.JPG,,,,,,,,,4,0,40,7,,,,,,,,,,,,,,,AMSA04.jpg,AMNE06.jpg,AMSA07.jpg,AMNE11.jpg,AMNE06.jpg,MN,1,num_6,16,num_6,0.650229857666,,,2017_Jun_08_1049,60.0099509764,MAFE4ImagesEEG,001,100612,
AFNE01.JPG,AFNE01.JPG,AFNE01.JPG,AFNE01.JPG,AFNE01.JPG,AFNE01.JPG,,,,,,,,,4,1,41,4,,,,,,,,,,,,,,,AMSA11.jpg,AMSA06.jpg,AMNE09.jpg,AMNE20.jpg,AMSA11.jpg,MS,2,num_8,16,num_8,1.33338133728,,,2017_Jun_08_1049,60.0099509764,MAFE4ImagesEEG,001,100612,
AFNE01.JPG,AFNE01.JPG,AFNE01.JPG,AFNE01.JPG,AFNE01.JPG,AFNE01.JPG,,,,,,,,,4,2,42,1,,,,,,,,,,,,,,,AMSA07.jpg,AMSA15.jpg,AMNE12.jpg,AMNE18.jpg,AMNE12.jpg,MN,1,num_2,16,num_2,0.800303675765,,,2017_Jun_08_1049,60.0099509764,MAFE4ImagesEEG,001,100612,
AFNE01.JPG,AFNE01.JPG,AFNE01.JPG,AFNE01.JPG,AFNE01.JPG,AFNE01.JPG,,,,,,,,,4,3,43,0,,,,,,,,,,,,,,,AMSA04.jpg,AMSA13.jpg,AMNE05.jpg,AMNE06.jpg,AMSA04.jpg,MS,2,num_8,32,num_4,1.0999772596,,,2017_Jun_08_1049,60.0099509764,MAFE4ImagesEEG,001,100612,
AFNE01.JPG,AFNE01.JPG,AFNE01.JPG,AFNE01.JPG,AFNE01.JPG,AFNE01.JPG,,,,,,,,,4,4,44,5,,,,,,,,,,,,,,,AMNE13.jpg,AMSA01.jpg,AMSA11.jpg,AMNE12.jpg,AMNE12.jpg,MN,1,num_4,32,num_6,0.766793497593,,,2017_Jun_08_1049,60.0099509764,MAFE4ImagesEEG,001,100612,
AFNE01.JPG,AFNE01.JPG,AFNE01.JPG,AFNE01.JPG,AFNE01.JPG,AFNE01.JPG,,,,,,,,,4,5,45,9,,,,,,,,,,,,,,,AMSA04.jpg,AMSA17.jpg,AMNE09.jpg,AMNE11.jpg,AMNE11.jpg,MN,1,num_4,32,num_6,0.983426128496,,,2017_Jun_08_1049,60.0099509764,MAFE4ImagesEEG,001,100612,
AFNE01.JPG,AFNE01.JPG,AFNE01.JPG,AFNE01.JPG,AFNE01.JPG,AFNE01.JPG,,,,,,,,,4,6,46,6,,,,,,,,,,,,,,,AMNE06.jpg,AMSA07.jpg,AMNE02.jpg,AMSA01.jpg,AMSA07.jpg,MS,2,num_6,16,num_6,0.983493804443,,,2017_Jun_08_1049,60.0099509764,MAFE4ImagesEEG,001,100612,
AFNE01.JPG,AFNE01.JPG,AFNE01.JPG,AFNE01.JPG,AFNE01.JPG,AFNE01.JPG,,,,,,,,,4,7,47,2,,,,,,,,,,,,,,,AMNE04.jpg,AMNE15.jpg,AMSA11.jpg,AMSA18.jpg,AMSA18.jpg,MS,2,num_4,16,num_4,0.650150635111,,,2017_Jun_08_1049,60.0099509764,MAFE4ImagesEEG,001,100612,
AFNE01.JPG,AFNE01.JPG,AFNE01.JPG,AFNE01.JPG,AFNE01.JPG,AFNE01.JPG,,,,,,,,,4,8,48,3,,,,,,,,,,,,,,,AMSA16.jpg,AMNE11.jpg,AMNE14.jpg,AMSA09.jpg,AMNE14.jpg,MN,1,num_2,32,num_6,1.16675417498,,,2017_Jun_08_1049,60.0099509764,MAFE4ImagesEEG,001,100612,
AFNE01.JPG,AFNE01.JPG,AFNE01.JPG,AFNE01.JPG,AFNE01.JPG,AFNE01.JPG,,,,,,,,,4,9,49,8,,,,,,,,,,,,,,,AMNE06.jpg,AMSA13.jpg,AMNE03.jpg,AMSA20.jpg,AMSA20.jpg,MS,2,num_4,16,num_4,1.10017034453,,,2017_Jun_08_1049,60.0099509764,MAFE4ImagesEEG,001,100612,
AFNE01.JPG,AFNE01.JPG,AFNE01.JPG,AFNE01.JPG,AFNE01.JPG,AFNE01.JPG,,,,,,,,,5,0,50,4,,,,,,,,,,,,,,,AMNE02.jpg,AMSA20.jpg,AMSA15.jpg,AMNE10.jpg,AMNE10.jpg,MN,1,num_4,16,num_4,1.03343833262,,,2017_Jun_08_1049,60.0099509764,MAFE4ImagesEEG,001,100612,
AFNE01.JPG,AFNE01.JPG,AFNE01.JPG,AFNE01.JPG,AFNE01.JPG,AFNE01.JPG,,,,,,,,,5,1,51,0,,,,,,,,,,,,,,,AMSA16.jpg,AMNE19.jpg,AMNE05.jpg,AMSA18.jpg,AMNE05.jpg,MN,1,num_2,32,num_6,0.80012374114,,,2017_Jun_08_1049,60.0099509764,MAFE4ImagesEEG,001,100612,
AFNE01.JPG,AFNE01.JPG,AFNE01.JPG,AFNE01.JPG,AFNE01.JPG,AFNE01.JPG,,,,,,,,,5,2,52,3,,,,,,,,,,,,,,,AMNE06.jpg,AMSA10.jpg,AMSA16.jpg,AMNE16.jpg,AMSA10.jpg,MS,2,num_6,16,num_6,1.05012638724,,,2017_Jun_08_1049,60.0099509764,MAFE4ImagesEEG,001,100612,
AFNE01.JPG,AFNE01.JPG,AFNE01.JPG,AFNE01.JPG,AFNE01.JPG,AFNE01.JPG,,,,,,,,,5,3,53,2,,,,,,,,,,,,,,,AMSA01.jpg,AMNE20.jpg,AMSA16.jpg,AMNE10.jpg,AMNE10.jpg,MN,1,num_4,16,num_4,1.25020182507,,,2017_Jun_08_1049,60.0099509764,MAFE4ImagesEEG,001,100612,
AFNE01.JPG,AFNE01.JPG,AFNE01.JPG,AFNE01.JPG,AFNE01.JPG,AFNE01.JPG,,,,,,,,,5,4,54,6,,,,,,,,,,,,,,,AMSA02.jpg,AMNE10.jpg,AMSA06.jpg,AMNE15.jpg,AMNE15.jpg,MN,1,num_4,32,num_2,0.983422921106,,,2017_Jun_08_1049,60.0099509764,MAFE4ImagesEEG,001,100612,
AFNE01.JPG,AFNE01.JPG,AFNE01.JPG,AFNE01.JPG,AFNE01.JPG,AFNE01.JPG,,,,,,,,,5,5,55,7,,,,,,,,,,,,,,,AMNE05.jpg,AMNE14.jpg,AMSA09.jpg,AMSA14.jpg,AMNE05.jpg,MN,1,num_8,16,num_8,0.71679187786,,,2017_Jun_08_1049,60.0099509764,MAFE4ImagesEEG,001,100612,
AFNE01.JPG,AFNE01.JPG,AFNE01.JPG,AFNE01.JPG,AFNE01.JPG,AFNE01.JPG,,,,,,,,,5,6,56,8,,,,,,,,,,,,,,,AMNE06.jpg,AMSA06.jpg,AMNE20.jpg,AMSA10.jpg,AMSA06.jpg,MS,2,num_6,32,num_2,0.666769410087,,,2017_Jun_08_1049,60.0099509764,MAFE4ImagesEEG,001,100612,
AFNE01.JPG,AFNE01.JPG,AFNE01.JPG,AFNE01.JPG,AFNE01.JPG,AFNE01.JPG,,,,,,,,,5,7,57,9,,,,,,,,,,,,,,,AMSA18.jpg,AMNE03.jpg,AMNE11.jpg,AMSA09.jpg,AMSA09.jpg,MS,2,num_4,32,num_2,0.850193678297,,,2017_Jun_08_1049,60.0099509764,MAFE4ImagesEEG,001,100612,
AFNE01.JPG,AFNE01.JPG,AFNE01.JPG,AFNE01.JPG,AFNE01.JPG,AFNE01.JPG,,,,,,,,,5,8,58,1,,,,,,,,,,,,,,,AMNE13.jpg,AMNE07.jpg,AMSA12.jpg,AMSA09.jpg,AMNE13.jpg,MN,1,num_8,32,num_6,0.750118272538,,,2017_Jun_08_1049,60.0099509764,MAFE4ImagesEEG,001,100612,
AFNE01.JPG,AFNE01.JPG,AFNE01.JPG,AFNE01.JPG,AFNE01.JPG,AFNE01.JPG,,,,,,,,,5,9,59,5,,,,,,,,,,,,,,,AMNE11.jpg,AMSA05.jpg,AMNE20.jpg,AMSA19.jpg,AMSA05.jpg,MS,2,num_6,16,num_6,0.700155141495,,,2017_Jun_08_1049,60.0099509764,MAFE4ImagesEEG,001,100612,
,,,,,,,,,,,,,,,,,,,,,,,,,,,,,,,,,,,,,,,,,,,space,1.29984165111,2017_Jun_08_1049,60.0099509764,MAFE4ImagesEEG,001,100612,
AFNE01.JPG,AFNE01.JPG,AFNE01.JPG,AFNE01.JPG,AFNE01.JPG,AFNE01.JPG,,,,,,,,,,,,,0,0,0,4,,,,,,,,,,,AFNE16.jpg,AFNE12.jpg,AFSA04.jpg,AFSA06.jpg,AFNE16.jpg,FN,3,num_8,32,num_6,0.600161203464,,,2017_Jun_08_1049,60.0099509764,MAFE4ImagesEEG,001,100612,
AFNE01.JPG,AFNE01.JPG,AFNE01.JPG,AFNE01.JPG,AFNE01.JPG,AFNE01.JPG,,,,,,,,,,,,,0,1,1,5,,,,,,,,,,,AFSA15.jpg,AFNE15.jpg,AFSA08.jpg,AFNE13.jpg,AFSA08.jpg,FS,4,num_2,32,num_8,0.733462612568,,,2017_Jun_08_1049,60.0099509764,MAFE4ImagesEEG,001,100612,
AFNE01.JPG,AFNE01.JPG,AFNE01.JPG,AFNE01.JPG,AFNE01.JPG,AFNE01.JPG,,,,,,,,,,,,,0,2,2,8,,,,,,,,,,,AFSA01.jpg,AFSA07.jpg,AFNE07.jpg,AFNE01.jpg,AFSA07.jpg,FS,4,num_6,32,num_2,0.816753741983,,,2017_Jun_08_1049,60.0099509764,MAFE4ImagesEEG,001,100612,
AFNE01.JPG,AFNE01.JPG,AFNE01.JPG,AFNE01.JPG,AFNE01.JPG,AFNE01.JPG,,,,,,,,,,,,,0,3,3,9,,,,,,,,,,,AFSA02.jpg,AFNE08.jpg,AFNE02.jpg,AFSA19.jpg,AFNE02.jpg,FN,3,num_2,32,num_6,0.700128199413,,,2017_Jun_08_1049,60.0099509764,MAFE4ImagesEEG,001,100612,
AFNE01.JPG,AFNE01.JPG,AFNE01.JPG,AFNE01.JPG,AFNE01.JPG,AFNE01.JPG,,,,,,,,,,,,,0,4,4,0,,,,,,,,,,,AFSA07.jpg,AFSA17.jpg,AFNE13.jpg,AFNE06.jpg,AFSA17.jpg,FS,4,num_6,16,num_6,0.65014389959,,,2017_Jun_08_1049,60.0099509764,MAFE4ImagesEEG,001,100612,
AFNE01.JPG,AFNE01.JPG,AFNE01.JPG,AFNE01.JPG,AFNE01.JPG,AFNE01.JPG,,,,,,,,,,,,,0,5,5,7,,,,,,,,,,,AFNE15.jpg,AFSA05.jpg,AFNE12.jpg,AFSA20.jpg,AFNE15.jpg,FN,3,num_8,32,num_2,0.750159006401,,,2017_Jun_08_1049,60.0099509764,MAFE4ImagesEEG,001,100612,
AFNE01.JPG,AFNE01.JPG,AFNE01.JPG,AFNE01.JPG,AFNE01.JPG,AFNE01.JPG,,,,,,,,,,,,,0,6,6,2,,,,,,,,,,,AFNE06.jpg,AFSA04.jpg,AFNE04.jpg,AFSA05.jpg,AFNE04.jpg,FN,3,num_2,32,num_4,0.666776145607,,,2017_Jun_08_1049,60.0099509764,MAFE4ImagesEEG,001,100612,
AFNE01.JPG,AFNE01.JPG,AFNE01.JPG,AFNE01.JPG,AFNE01.JPG,AFNE01.JPG,,,,,,,,,,,,,0,7,7,6,,,,,,,,,,,AFNE11.jpg,AFSA18.jpg,AFNE14.jpg,AFSA07.jpg,AFSA07.jpg,FS,4,num_4,16,num_4,0.566783169794,,,2017_Jun_08_1049,60.0099509764,MAFE4ImagesEEG,001,100612,
AFNE01.JPG,AFNE01.JPG,AFNE01.JPG,AFNE01.JPG,AFNE01.JPG,AFNE01.JPG,,,,,,,,,,,,,0,8,8,1,,,,,,,,,,,AFNE05.jpg,AFNE20.jpg,AFSA03.jpg,AFSA13.jpg,AFNE05.jpg,FN,3,num_8,16,num_8,1.03344603036,,,2017_Jun_08_1049,60.0099509764,MAFE4ImagesEEG,001,100612,
AFNE01.JPG,AFNE01.JPG,AFNE01.JPG,AFNE01.JPG,AFNE01.JPG,AFNE01.JPG,,,,,,,,,,,,,0,9,9,3,,,,,,,,,,,AFNE15.jpg,AFSA07.jpg,AFNE02.jpg,AFSA15.jpg,AFSA07.jpg,FS,4,num_6,32,num_8,1.09980149458,,,2017_Jun_08_1049,60.0099509764,MAFE4ImagesEEG,001,100612,
AFNE01.JPG,AFNE01.JPG,AFNE01.JPG,AFNE01.JPG,AFNE01.JPG,AFNE01.JPG,,,,,,,,,,,,,1,0,10,5,,,,,,,,,,,AFSA17.jpg,AFNE17.jpg,AFNE05.jpg,AFSA14.jpg,AFNE17.jpg,FN,3,num_6,32,num_8,0.600174033028,,,2017_Jun_08_1049,60.0099509764,MAFE4ImagesEEG,001,100612,
AFNE01.JPG,AFNE01.JPG,AFNE01.JPG,AFNE01.JPG,AFNE01.JPG,AFNE01.JPG,,,,,,,,,,,,,1,1,11,1,,,,,,,,,,,AFNE13.jpg,AFSA20.jpg,AFSA12.jpg,AFNE15.jpg,AFSA12.jpg,FS,4,num_2,32,num_8,0.866765625366,,,2017_Jun_08_1049,60.0099509764,MAFE4ImagesEEG,001,100612,
AFNE01.JPG,AFNE01.JPG,AFNE01.JPG,AFNE01.JPG,AFNE01.JPG,AFNE01.JPG,,,,,,,,,,,,,1,2,12,0,,,,,,,,,,,AFSA12.jpg,AFSA08.jpg,AFNE19.jpg,AFNE11.jpg,AFNE19.jpg,FN,3,num_2,16,num_2,1.98362370377,,,2017_Jun_08_1049,60.0099509764,MAFE4ImagesEEG,001,100612,
AFNE01.JPG,AFNE01.JPG,AFNE01.JPG,AFNE01.JPG,AFNE01.JPG,AFNE01.JPG,,,,,,,,,,,,,1,3,13,9,,,,,,,,,,,AFSA18.jpg,AFNE13.jpg,AFSA17.jpg,AFNE01.jpg,AFSA17.jpg,FS,4,num_2,32,num_8,0.650107976813,,,2017_Jun_08_1049,60.0099509764,MAFE4ImagesEEG,001,100612,
AFNE01.JPG,AFNE01.JPG,AFNE01.JPG,AFNE01.JPG,AFNE01.JPG,AFNE01.JPG,,,,,,,,,,,,,1,4,14,4,,,,,,,,,,,AFSA09.jpg,AFNE16.jpg,AFNE13.jpg,AFSA03.jpg,AFNE13.jpg,FN,3,num_2,32,num_4,0.966789392132,,,2017_Jun_08_1049,60.0099509764,MAFE4ImagesEEG,001,100612,
AFNE01.JPG,AFNE01.JPG,AFNE01.JPG,AFNE01.JPG,AFNE01.JPG,AFNE01.JPG,,,,,,,,,,,,,1,5,15,7,,,,,,,,,,,AFNE13.jpg,AFSA15.jpg,AFNE06.jpg,AFSA16.jpg,AFSA16.jpg,FS,4,num_4,16,num_4,0.550193582075,,,2017_Jun_08_1049,60.0099509764,MAFE4ImagesEEG,001,100612,
AFNE01.JPG,AFNE01.JPG,AFNE01.JPG,AFNE01.JPG,AFNE01.JPG,AFNE01.JPG,,,,,,,,,,,,,1,6,16,3,,,,,,,,,,,AFSA13.jpg,AFNE12.jpg,AFNE13.jpg,AFSA01.jpg,AFSA01.jpg,FS,4,num_4,32,num_8,0.733424123878,,,2017_Jun_08_1049,60.0099509764,MAFE4ImagesEEG,001,100612,
AFNE01.JPG,AFNE01.JPG,AFNE01.JPG,AFNE01.JPG,AFNE01.JPG,AFNE01.JPG,,,,,,,,,,,,,1,7,17,2,,,,,,,,,,,AFSA10.jpg,AFNE11.jpg,AFSA02.jpg,AFNE01.jpg,AFSA10.jpg,FS,4,num_8,16,num_8,1.03344538888,,,2017_Jun_08_1049,60.0099509764,MAFE4ImagesEEG,001,100612,
AFNE01.JPG,AFNE01.JPG,AFNE01.JPG,AFNE01.JPG,AFNE01.JPG,AFNE01.JPG,,,,,,,,,,,,,1,8,18,8,,,,,,,,,,,AFNE13.jpg,AFNE08.jpg,AFSA10.jpg,AFSA09.jpg,AFNE13.jpg,FN,3,num_8,16,num_8,1.18339860908,,,2017_Jun_08_1049,60.0099509764,MAFE4ImagesEEG,001,100612,
AFNE01.JPG,AFNE01.JPG,AFNE01.JPG,AFNE01.JPG,AFNE01.JPG,AFNE01.JPG,,,,,,,,,,,,,1,9,19,6,,,,,,,,,,,AFSA01.jpg,AFNE11.jpg,AFSA17.jpg,AFNE01.jpg,AFNE01.jpg,FN,3,num_4,16,num_4,0.91674928371,,,2017_Jun_08_1049,60.0099509764,MAFE4ImagesEEG,001,100612,
AFNE01.JPG,AFNE01.JPG,AFNE01.JPG,AFNE01.JPG,AFNE01.JPG,AFNE01.JPG,,,,,,,,,,,,,2,0,20,1,,,,,,,,,,,AFNE10.jpg,AFNE12.jpg,AFSA15.jpg,AFSA09.jpg,AFSA09.jpg,FS,4,num_4,16,num_4,0.783158247213,,,2017_Jun_08_1049,60.0099509764,MAFE4ImagesEEG,001,100612,
AFNE01.JPG,AFNE01.JPG,AFNE01.JPG,AFNE01.JPG,AFNE01.JPG,AFNE01.JPG,,,,,,,,,,,,,2,1,21,6,,,,,,,,,,,AFNE14.jpg,AFSA15.jpg,AFNE02.jpg,AFSA10.jpg,AFSA10.jpg,FS,4,num_4,32,num_8,0.866786473407,,,2017_Jun_08_1049,60.0099509764,MAFE4ImagesEEG,001,100612,
AFNE01.JPG,AFNE01.JPG,AFNE01.JPG,AFNE01.JPG,AFNE01.JPG,AFNE01.JPG,,,,,,,,,,,,,2,2,22,0,,,,,,,,,,,AFSA09.jpg,AFNE05.jpg,AFSA12.jpg,AFNE02.jpg,AFSA12.jpg,FS,4,num_2,32,num_4,0.816979542298,,,2017_Jun_08_1049,60.0099509764,MAFE4ImagesEEG,001,100612,
AFNE01.JPG,AFNE01.JPG,AFNE01.JPG,AFNE01.JPG,AFNE01.JPG,AFNE01.JPG,,,,,,,,,,,,,2,3,23,9,,,,,,,,,,,AFNE16.jpg,AFSA14.jpg,AFSA07.jpg,AFNE08.jpg,AFSA07.jpg,FS,4,num_2,32,num_8,0.71677070908,,,2017_Jun_08_1049,60.0099509764,MAFE4ImagesEEG,001,100612,
AFNE01.JPG,AFNE01.JPG,AFNE01.JPG,AFNE01.JPG,AFNE01.JPG,AFNE01.JPG,,,,,,,,,,,,,2,4,24,4,,,,,,,,,,,AFNE13.jpg,AFSA03.jpg,AFNE17.jpg,AFSA19.jpg,AFSA19.jpg,FS,4,num_4,16,num_4,0.866905467607,,,2017_Jun_08_1049,60.0099509764,MAFE4ImagesEEG,001,100612,
AFNE01.JPG,AFNE01.JPG,AFNE01.JPG,AFNE01.JPG,AFNE01.JPG,AFNE01.JPG,,,,,,,,,,,,,2,5,25,5,,,,,,,,,,,AFSA03.jpg,AFNE14.jpg,AFNE12.jpg,AFSA17.jpg,AFSA17.jpg,FS,4,num_4,16,num_4,0.717106522903,,,2017_Jun_08_1049,60.0099509764,MAFE4ImagesEEG,001,100612,
AFNE01.JPG,AFNE01.JPG,AFNE01.JPG,AFNE01.JPG,AFNE01.JPG,AFNE01.JPG,,,,,,,,,,,,,2,6,26,7,,,,,,,,,,,AFNE09.jpg,AFSA10.jpg,AFNE14.jpg,AFSA08.jpg,AFSA08.jpg,FS,4,num_4,16,num_4,0.700124671283,,,2017_Jun_08_1049,60.0099509764,MAFE4ImagesEEG,001,100612,
AFNE01.JPG,AFNE01.JPG,AFNE01.JPG,AFNE01.JPG,AFNE01.JPG,AFNE01.JPG,,,,,,,,,,,,,2,7,27,3,,,,,,,,,,,AFSA10.jpg,AFNE04.jpg,AFNE06.jpg,AFSA14.jpg,AFNE04.jpg,FN,3,num_6,32,num_8,0.716799896338,,,2017_Jun_08_1049,60.0099509764,MAFE4ImagesEEG,001,100612,
AFNE01.JPG,AFNE01.JPG,AFNE01.JPG,AFNE01.JPG,AFNE01.JPG,AFNE01.JPG,,,,,,,,,,,,,2,8,28,8,,,,,,,,,,,AFNE04.jpg,AFSA13.jpg,AFSA05.jpg,AFNE19.jpg,AFSA05.jpg,FS,4,num_2,32,num_8,0.750028786333,,,2017_Jun_08_1049,60.0099509764,MAFE4ImagesEEG,001,100612,
AFNE01.JPG,AFNE01.JPG,AFNE01.JPG,AFNE01.JPG,AFNE01.JPG,AFNE01.JPG,,,,,,,,,,,,,2,9,29,2,,,,,,,,,,,AFNE10.jpg,AFSA08.jpg,AFNE17.jpg,AFSA16.jpg,AFNE10.jpg,FN,3,num_8,16,num_8,0.600275707318,,,2017_Jun_08_1049,60.0099509764,MAFE4ImagesEEG,001,100612,
AFNE01.JPG,AFNE01.JPG,AFNE01.JPG,AFNE01.JPG,AFNE01.JPG,AFNE01.JPG,,,,,,,,,,,,,3,0,30,7,,,,,,,,,,,AFSA08.jpg,AFNE18.jpg,AFNE01.jpg,AFSA03.jpg,AFSA03.jpg,FS,4,num_4,16,num_4,0.683470615008,,,2017_Jun_08_1049,60.0099509764,MAFE4ImagesEEG,001,100612,
AFNE01.JPG,AFNE01.JPG,AFNE01.JPG,AFNE01.JPG,AFNE01.JPG,AFNE01.JPG,,,,,,,,,,,,,3,1,31,1,,,,,,,,,,,AFNE20.jpg,AFSA11.jpg,AFNE02.jpg,AFSA20.jpg,AFSA11.jpg,FS,4,num_6,16,num_6,0.550126868346,,,2017_Jun_08_1049,60.0099509764,MAFE4ImagesEEG,001,100612,
AFNE01.JPG,AFNE01.JPG,AFNE01.JPG,AFNE01.JPG,AFNE01.JPG,AFNE01.JPG,,,,,,,,,,,,,3,2,32,4,,,,,,,,,,,AFNE18.jpg,AFNE15.jpg,AFSA06.jpg,AFSA12.jpg,AFSA06.jpg,FS,4,num_2,16,num_2,1.71672195674,,,2017_Jun_08_1049,60.0099509764,MAFE4ImagesEEG,001,100612,
AFNE01.JPG,AFNE01.JPG,AFNE01.JPG,AFNE01.JPG,AFNE01.JPG,AFNE01.JPG,,,,,,,,,,,,,3,3,33,3,,,,,,,,,,,AFNE09.jpg,AFSA17.jpg,AFSA20.jpg,AFNE06.jpg,AFSA17.jpg,FS,4,num_6,16,num_6,0.500186189039,,,2017_Jun_08_1049,60.0099509764,MAFE4ImagesEEG,001,100612,
AFNE01.JPG,AFNE01.JPG,AFNE01.JPG,AFNE01.JPG,AFNE01.JPG,AFNE01.JPG,,,,,,,,,,,,,3,4,34,9,,,,,,,,,,,AFSA06.jpg,AFSA07.jpg,AFNE11.jpg,AFNE17.jpg,AFNE17.jpg,FN,3,num_4,16,num_4,1.15006772406,,,2017_Jun_08_1049,60.0099509764,MAFE4ImagesEEG,001,100612,
AFNE01.JPG,AFNE01.JPG,AFNE01.JPG,AFNE01.JPG,AFNE01.JPG,AFNE01.JPG,,,,,,,,,,,,,3,5,35,2,,,,,,,,,,,AFSA09.jpg,AFSA10.jpg,AFNE14.jpg,AFNE07.jpg,AFSA10.jpg,FS,4,num_6,16,num_6,0.683553365691,,,2017_Jun_08_1049,60.0099509764,MAFE4ImagesEEG,001,100612,
AFNE01.JPG,AFNE01.JPG,AFNE01.JPG,AFNE01.JPG,AFNE01.JPG,AFNE01.JPG,,,,,,,,,,,,,3,6,36,0,,,,,,,,,,,AFSA17.jpg,AFNE10.jpg,AFNE05.jpg,AFSA01.jpg,AFSA01.jpg,FS,4,num_4,32,num_8,0.683529630999,,,2017_Jun_08_1049,60.0099509764,MAFE4ImagesEEG,001,100612,
AFNE01.JPG,AFNE01.JPG,AFNE01.JPG,AFNE01.JPG,AFNE01.JPG,AFNE01.JPG,,,,,,,,,,,,,3,7,37,6,,,,,,,,,,,AFNE06.jpg,AFSA08.jpg,AFNE02.jpg,AFSA05.jpg,AFNE02.jpg,FN,3,num_2,32,num_8,0.8500804574,,,2017_Jun_08_1049,60.0099509764,MAFE4ImagesEEG,001,100612,
AFNE01.JPG,AFNE01.JPG,AFNE01.JPG,AFNE01.JPG,AFNE01.JPG,AFNE01.JPG,,,,,,,,,,,,,3,8,38,8,,,,,,,,,,,AFNE09.jpg,AFSA09.jpg,AFNE16.jpg,AFSA19.jpg,AFSA09.jpg,FS,4,num_6,32,num_4,0.833685237567,,,2017_Jun_08_1049,60.0099509764,MAFE4ImagesEEG,001,100612,
AFNE01.JPG,AFNE01.JPG,AFNE01.JPG,AFNE01.JPG,AFNE01.JPG,AFNE01.JPG,,,,,,,,,,,,,3,9,39,5,,,,,,,,,,,AFNE11.jpg,AFSA14.jpg,AFSA07.jpg,AFNE09.jpg,AFNE09.jpg,FN,3,num_4,32,num_8,0.933496675058,,,2017_Jun_08_1049,60.0099509764,MAFE4ImagesEEG,001,100612,
AFNE01.JPG,AFNE01.JPG,AFNE01.JPG,AFNE01.JPG,AFNE01.JPG,AFNE01.JPG,,,,,,,,,,,,,4,0,40,5,,,,,,,,,,,AFNE11.jpg,AFSA06.jpg,AFNE16.jpg,AFSA14.jpg,AFNE16.jpg,FN,3,num_2,32,num_8,0.766742500077,,,2017_Jun_08_1049,60.0099509764,MAFE4ImagesEEG,001,100612,
AFNE01.JPG,AFNE01.JPG,AFNE01.JPG,AFNE01.JPG,AFNE01.JPG,AFNE01.JPG,,,,,,,,,,,,,4,1,41,6,,,,,,,,,,,AFSA13.jpg,AFSA11.jpg,AFNE20.jpg,AFNE11.jpg,AFSA11.jpg,FS,4,num_6,32,num_8,0.766759819989,,,2017_Jun_08_1049,60.0099509764,MAFE4ImagesEEG,001,100612,
AFNE01.JPG,AFNE01.JPG,AFNE01.JPG,AFNE01.JPG,AFNE01.JPG,AFNE01.JPG,,,,,,,,,,,,,4,2,42,0,,,,,,,,,,,AFNE16.jpg,AFSA01.jpg,AFNE10.jpg,AFSA02.jpg,AFNE10.jpg,FN,3,num_2,32,num_8,0.900146545688,,,2017_Jun_08_1049,60.0099509764,MAFE4ImagesEEG,001,100612,
AFNE01.JPG,AFNE01.JPG,AFNE01.JPG,AFNE01.JPG,AFNE01.JPG,AFNE01.JPG,,,,,,,,,,,,,4,3,43,4,,,,,,,,,,,AFSA12.jpg,AFNE12.jpg,AFSA01.jpg,AFNE16.jpg,AFSA01.jpg,FS,4,num_2,16,num_2,0.56676328397,,,2017_Jun_08_1049,60.0099509764,MAFE4ImagesEEG,001,100612,
AFNE01.JPG,AFNE01.JPG,AFNE01.JPG,AFNE01.JPG,AFNE01.JPG,AFNE01.JPG,,,,,,,,,,,,,4,4,44,8,,,,,,,,,,,AFNE14.jpg,AFNE10.jpg,AFSA20.jpg,AFSA19.jpg,AFNE14.jpg,FN,3,num_8,16,num_8,0.900272596149,,,2017_Jun_08_1049,60.0099509764,MAFE4ImagesEEG,001,100612,
AFNE01.JPG,AFNE01.JPG,AFNE01.JPG,AFNE01.JPG,AFNE01.JPG,AFNE01.JPG,,,,,,,,,,,,,4,5,45,2,,,,,,,,,,,AFSA17.jpg,AFNE10.jpg,AFNE19.jpg,AFSA04.jpg,AFNE19.jpg,FN,3,num_2,32,num_6,0.800126307052,,,2017_Jun_08_1049,60.0099509764,MAFE4ImagesEEG,001,100612,
AFNE01.JPG,AFNE01.JPG,AFNE01.JPG,AFNE01.JPG,AFNE01.JPG,AFNE01.JPG,,,,,,,,,,,,,4,6,46,7,,,,,,,,,,,AFSA16.jpg,AFNE19.jpg,AFNE15.jpg,AFSA14.jpg,AFNE19.jpg,FN,3,num_6,32,num_8,1.18339892982,,,2017_Jun_08_1049,60.0099509764,MAFE4ImagesEEG,001,100612,
AFNE01.JPG,AFNE01.JPG,AFNE01.JPG,AFNE01.JPG,AFNE01.JPG,AFNE01.JPG,,,,,,,,,,,,,4,7,47,1,,,,,,,,,,,AFSA19.jpg,AFNE05.jpg,AFNE20.jpg,AFSA03.jpg,AFNE20.jpg,FN,3,num_2,16,num_2,0.800104496794,,,2017_Jun_08_1049,60.0099509764,MAFE4ImagesEEG,001,100612,
AFNE01.JPG,AFNE01.JPG,AFNE01.JPG,AFNE01.JPG,AFNE01.JPG,AFNE01.JPG,,,,,,,,,,,,,4,8,48,3,,,,,,,,,,,AFSA04.jpg,AFNE06.jpg,AFNE05.jpg,AFSA16.jpg,AFSA04.jpg,FS,4,num_8,16,num_8,1.91698566842,,,2017_Jun_08_1049,60.0099509764,MAFE4ImagesEEG,001,100612,
AFNE01.JPG,AFNE01.JPG,AFNE01.JPG,AFNE01.JPG,AFNE01.JPG,AFNE01.JPG,,,,,,,,,,,,,4,9,49,9,,,,,,,,,,,AFSA16.jpg,AFSA10.jpg,AFNE09.jpg,AFNE17.jpg,AFNE09.jpg,FN,3,num_2,16,num_2,0.966743526443,,,2017_Jun_08_1049,60.0099509764,MAFE4ImagesEEG,001,100612,
AFNE01.JPG,AFNE01.JPG,AFNE01.JPG,AFNE01.JPG,AFNE01.JPG,AFNE01.JPG,,,,,,,,,,,,,5,0,50,2,,,,,,,,,,,AFSA16.jpg,AFNE02.jpg,AFSA17.jpg,AFNE16.jpg,AFSA17.jpg,FS,4,num_2,32,num_8,0.716807594075,,,2017_Jun_08_1049,60.0099509764,MAFE4ImagesEEG,001,100612,
AFNE01.JPG,AFNE01.JPG,AFNE01.JPG,AFNE01.JPG,AFNE01.JPG,AFNE01.JPG,,,,,,,,,,,,,5,1,51,4,,,,,,,,,,,AFNE02.jpg,AFNE09.jpg,AFSA03.jpg,AFSA18.jpg,AFSA03.jpg,FS,4,num_2,16,num_2,0.716802782988,,,2017_Jun_08_1049,60.0099509764,MAFE4ImagesEEG,001,100612,
AFNE01.JPG,AFNE01.JPG,AFNE01.JPG,AFNE01.JPG,AFNE01.JPG,AFNE01.JPG,,,,,,,,,,,,,5,2,52,8,,,,,,,,,,,AFNE12.jpg,AFSA03.jpg,AFSA10.jpg,AFNE11.jpg,AFSA03.jpg,FS,4,num_6,16,num_6,0.583520297492,,,2017_Jun_08_1049,60.0099509764,MAFE4ImagesEEG,001,100612,
AFNE01.JPG,AFNE01.JPG,AFNE01.JPG,AFNE01.JPG,AFNE01.JPG,AFNE01.JPG,,,,,,,,,,,,,5,3,53,0,,,,,,,,,,,AFSA01.jpg,AFNE07.jpg,AFSA05.jpg,AFNE10.jpg,AFSA05.jpg,FS,4,num_2,32,num_8,0.650132032245,,,2017_Jun_08_1049,60.0099509764,MAFE4ImagesEEG,001,100612,
AFNE01.JPG,AFNE01.JPG,AFNE01.JPG,AFNE01.JPG,AFNE01.JPG,AFNE01.JPG,,,,,,,,,,,,,5,4,54,9,,,,,,,,,,,AFNE05.jpg,AFSA03.jpg,AFSA14.jpg,AFNE04.jpg,AFSA03.jpg,FS,4,num_6,32,num_8,1.08346080039,,,2017_Jun_08_1049,60.0099509764,MAFE4ImagesEEG,001,100612,
AFNE01.JPG,AFNE01.JPG,AFNE01.JPG,AFNE01.JPG,AFNE01.JPG,AFNE01.JPG,,,,,,,,,,,,,5,5,55,5,,,,,,,,,,,AFNE19.jpg,AFNE16.jpg,AFSA19.jpg,AFSA15.jpg,AFNE19.jpg,FN,3,num_8,32,num_4,0.783482193689,,,2017_Jun_08_1049,60.0099509764,MAFE4ImagesEEG,001,100612,
AFNE01.JPG,AFNE01.JPG,AFNE01.JPG,AFNE01.JPG,AFNE01.JPG,AFNE01.JPG,,,,,,,,,,,,,5,6,56,7,,,,,,,,,,,AFSA19.jpg,AFSA10.jpg,AFNE18.jpg,AFNE06.jpg,AFNE06.jpg,FN,3,num_4,32,num_2,0.733497252389,,,2017_Jun_08_1049,60.0099509764,MAFE4ImagesEEG,001,100612,
AFNE01.JPG,AFNE01.JPG,AFNE01.JPG,AFNE01.JPG,AFNE01.JPG,AFNE01.JPG,,,,,,,,,,,,,5,7,57,3,,,,,,,,,,,AFNE18.jpg,AFNE01.jpg,AFSA11.jpg,AFSA13.jpg,AFSA11.jpg,FS,4,num_2,32,num_4,1.13379470582,,,2017_Jun_08_1049,60.0099509764,MAFE4ImagesEEG,001,100612,
AFNE01.JPG,AFNE01.JPG,AFNE01.JPG,AFNE01.JPG,AFNE01.JPG,AFNE01.JPG,,,,,,,,,,,,,5,8,58,1,,,,,,,,,,,AFSA09.jpg,AFNE14.jpg,AFSA17.jpg,AFNE20.jpg,AFSA09.jpg,FS,4,num_8,16,num_8,1.93340975477,,,2017_Jun_08_1049,60.0099509764,MAFE4ImagesEEG,001,100612,
AFNE01.JPG,AFNE01.JPG,AFNE01.JPG,AFNE01.JPG,AFNE01.JPG,AFNE01.JPG,,,,,,,,,,,,,5,9,59,6,,,,,,,,,,,AFSA01.jpg,AFNE11.jpg,AFSA11.jpg,AFNE16.jpg,AFSA11.jpg,FS,4,num_2,32,num_8,1.18346339838,,,2017_Jun_08_1049,60.0099509764,MAFE4ImagesEEG,001,100612,
,,,,,,,,,,,,,,,,,,,,,,,,,,,,,,,,,,,,,,,,,,,space,20.0152527472,2017_Jun_08_1049,60.0099509764,MAFE4ImagesEEG,001,100612,
AFNE01.JPG,AFNE01.JPG,AFNE01.JPG,AFNE01.JPG,AFNE01.JPG,AFNE01.JPG,,,,,,,,,,,,,,,,,0,0,0,0,,,,,,,AMSA12.jpg,AMSA16.jpg,AMNE18.jpg,AMNE03.jpg,AMNE18.jpg,MN,1,num_2,32,num_8,0.666800521778,,,2017_Jun_08_1049,60.0099509764,MAFE4ImagesEEG,001,100612,
AFNE01.JPG,AFNE01.JPG,AFNE01.JPG,AFNE01.JPG,AFNE01.JPG,AFNE01.JPG,,,,,,,,,,,,,,,,,0,1,1,3,,,,,,,AMNE11.jpg,AMNE20.jpg,AMSA12.jpg,AMSA20.jpg,AMNE11.jpg,MN,1,num_8,16,num_8,0.700106068416,,,2017_Jun_08_1049,60.0099509764,MAFE4ImagesEEG,001,100612,
AFNE01.JPG,AFNE01.JPG,AFNE01.JPG,AFNE01.JPG,AFNE01.JPG,AFNE01.JPG,,,,,,,,,,,,,,,,,0,2,2,9,,,,,,,AMNE01.jpg,AMNE19.jpg,AMSA02.jpg,AMSA18.jpg,AMNE01.jpg,MN,1,num_8,16,num_8,0.85013305861,,,2017_Jun_08_1049,60.0099509764,MAFE4ImagesEEG,001,100612,
AFNE01.JPG,AFNE01.JPG,AFNE01.JPG,AFNE01.JPG,AFNE01.JPG,AFNE01.JPG,,,,,,,,,,,,,,,,,0,3,3,5,,,,,,,AMSA02.jpg,AMSA11.jpg,AMNE19.jpg,AMNE03.jpg,AMNE03.jpg,MN,1,num_4,16,num_4,1.51662791604,,,2017_Jun_08_1049,60.0099509764,MAFE4ImagesEEG,001,100612,
AFNE01.JPG,AFNE01.JPG,AFNE01.JPG,AFNE01.JPG,AFNE01.JPG,AFNE01.JPG,,,,,,,,,,,,,,,,,0,4,4,8,,,,,,,AMSA13.jpg,AMSA11.jpg,AMNE11.jpg,AMNE15.jpg,AMNE15.jpg,MN,1,num_4,16,num_4,0.63345680719,,,2017_Jun_08_1049,60.0099509764,MAFE4ImagesEEG,001,100612,
AFNE01.JPG,AFNE01.JPG,AFNE01.JPG,AFNE01.JPG,AFNE01.JPG,AFNE01.JPG,,,,,,,,,,,,,,,,,0,5,5,6,,,,,,,AMNE17.jpg,AMNE16.jpg,AMSA13.jpg,AMSA09.jpg,AMNE17.jpg,MN,1,num_8,32,num_6,1.06682374329,,,2017_Jun_08_1049,60.0099509764,MAFE4ImagesEEG,001,100612,
AFNE01.JPG,AFNE01.JPG,AFNE01.JPG,AFNE01.JPG,AFNE01.JPG,AFNE01.JPG,,,,,,,,,,,,,,,,,0,6,6,2,,,,,,,AMSA05.jpg,AMSA14.jpg,AMNE05.jpg,AMNE16.jpg,AMNE05.jpg,MN,1,num_2,32,num_4,0.700198762011,,,2017_Jun_08_1049,60.0099509764,MAFE4ImagesEEG,001,100612,
AFNE01.JPG,AFNE01.JPG,AFNE01.JPG,AFNE01.JPG,AFNE01.JPG,AFNE01.JPG,,,,,,,,,,,,,,,,,0,7,7,4,,,,,,,AMSA18.jpg,AMNE04.jpg,AMNE11.jpg,AMSA16.jpg,AMNE11.jpg,MN,1,num_2,16,num_2,1.73712705662,,,2017_Jun_08_1049,60.0099509764,MAFE4ImagesEEG,001,100612,
AFNE01.JPG,AFNE01.JPG,AFNE01.JPG,AFNE01.JPG,AFNE01.JPG,AFNE01.JPG,,,,,,,,,,,,,,,,,0,8,8,1,,,,,,,AMNE17.jpg,AMSA07.jpg,AMNE18.jpg,AMSA02.jpg,AMNE18.jpg,MN,1,num_2,32,num_8,0.950194993326,,,2017_Jun_08_1049,60.0099509764,MAFE4ImagesEEG,001,100612,
AFNE01.JPG,AFNE01.JPG,AFNE01.JPG,AFNE01.JPG,AFNE01.JPG,AFNE01.JPG,,,,,,,,,,,,,,,,,0,9,9,7,,,,,,,AMNE19.jpg,AMSA05.jpg,AMNE12.jpg,AMSA09.jpg,AMSA09.jpg,MS,2,num_4,32,num_2,1.06674644517,,,2017_Jun_08_1049,60.0099509764,MAFE4ImagesEEG,001,100612,
AFNE01.JPG,AFNE01.JPG,AFNE01.JPG,AFNE01.JPG,AFNE01.JPG,AFNE01.JPG,,,,,,,,,,,,,,,,,1,0,10,9,,,,,,,AMNE17.jpg,AMSA13.jpg,AMSA17.jpg,AMNE18.jpg,AMNE17.jpg,MN,1,num_8,16,num_8,0.717222630451,,,2017_Jun_08_1049,60.0099509764,MAFE4ImagesEEG,001,100612,
AFNE01.JPG,AFNE01.JPG,AFNE01.JPG,AFNE01.JPG,AFNE01.JPG,AFNE01.JPG,,,,,,,,,,,,,,,,,1,1,11,4,,,,,,,AMNE13.jpg,AMSA05.jpg,AMSA04.jpg,AMNE17.jpg,AMNE13.jpg,MN,1,num_8,16,num_8,1.01679389852,,,2017_Jun_08_1049,60.0099509764,MAFE4ImagesEEG,001,100612,
AFNE01.JPG,AFNE01.JPG,AFNE01.JPG,AFNE01.JPG,AFNE01.JPG,AFNE01.JPG,,,,,,,,,,,,,,,,,1,2,12,6,,,,,,,AMNE11.jpg,AMSA16.jpg,AMSA09.jpg,AMNE05.jpg,AMSA09.jpg,MS,2,num_2,32,num_6,0.999869459192,,,2017_Jun_08_1049,60.0099509764,MAFE4ImagesEEG,001,100612,
AFNE01.JPG,AFNE01.JPG,AFNE01.JPG,AFNE01.JPG,AFNE01.JPG,AFNE01.JPG,,,,,,,,,,,,,,,,,1,3,13,3,,,,,,,AMNE02.jpg,AMSA20.jpg,AMNE01.jpg,AMSA14.jpg,AMNE02.jpg,MN,1,num_8,16,num_8,1.083472347,,,2017_Jun_08_1049,60.0099509764,MAFE4ImagesEEG,001,100612,
AFNE01.JPG,AFNE01.JPG,AFNE01.JPG,AFNE01.JPG,AFNE01.JPG,AFNE01.JPG,,,,,,,,,,,,,,,,,1,4,14,0,,,,,,,AMNE04.jpg,AMSA05.jpg,AMSA20.jpg,AMNE01.jpg,AMNE04.jpg,MN,1,num_8,32,num_4,1.0000631856,,,2017_Jun_08_1049,60.0099509764,MAFE4ImagesEEG,001,100612,
AFNE01.JPG,AFNE01.JPG,AFNE01.JPG,AFNE01.JPG,AFNE01.JPG,AFNE01.JPG,,,,,,,,,,,,,,,,,1,5,15,7,,,,,,,AMSA19.jpg,AMNE05.jpg,AMNE06.jpg,AMSA16.jpg,AMSA16.jpg,MS,2,num_4,16,num_4,0.66677550413,,,2017_Jun_08_1049,60.0099509764,MAFE4ImagesEEG,001,100612,
AFNE01.JPG,AFNE01.JPG,AFNE01.JPG,AFNE01.JPG,AFNE01.JPG,AFNE01.JPG,,,,,,,,,,,,,,,,,1,6,16,2,,,,,,,AMNE09.jpg,AMNE06.jpg,AMSA06.jpg,AMSA13.jpg,AMSA06.jpg,MS,2,num_2,16,num_2,0.916722020887,,,2017_Jun_08_1049,60.0099509764,MAFE4ImagesEEG,001,100612,
AFNE01.JPG,AFNE01.JPG,AFNE01.JPG,AFNE01.JPG,AFNE01.JPG,AFNE01.JPG,,,,,,,,,,,,,,,,,1,7,17,5,,,,,,,AMNE03.jpg,AMSA14.jpg,AMSA07.jpg,AMNE04.jpg,AMNE03.jpg,MN,1,num_8,16,num_8,0.866819188793,,,2017_Jun_08_1049,60.0099509764,MAFE4ImagesEEG,001,100612,
AFNE01.JPG,AFNE01.JPG,AFNE01.JPG,AFNE01.JPG,AFNE01.JPG,AFNE01.JPG,,,,,,,,,,,,,,,,,1,8,18,8,,,,,,,AMSA12.jpg,AMNE18.jpg,AMNE07.jpg,AMSA20.jpg,AMSA20.jpg,MS,2,num_4,16,num_4,0.766779705812,,,2017_Jun_08_1049,60.0099509764,MAFE4ImagesEEG,001,100612,
AFNE01.JPG,AFNE01.JPG,AFNE01.JPG,AFNE01.JPG,AFNE01.JPG,AFNE01.JPG,,,,,,,,,,,,,,,,,1,9,19,1,,,,,,,AMSA19.jpg,AMSA16.jpg,AMNE18.jpg,AMNE05.jpg,AMNE05.jpg,MN,1,num_4,16,num_4,0.750112178495,,,2017_Jun_08_1049,60.0099509764,MAFE4ImagesEEG,001,100612,
AFNE01.JPG,AFNE01.JPG,AFNE01.JPG,AFNE01.JPG,AFNE01.JPG,AFNE01.JPG,,,,,,,,,,,,,,,,,2,0,20,0,,,,,,,AMNE05.jpg,AMSA09.jpg,AMSA18.jpg,AMNE11.jpg,AMNE11.jpg,MN,1,num_4,16,num_4,1.08343834866,,,2017_Jun_08_1049,60.0099509764,MAFE4ImagesEEG,001,100612,
AFNE01.JPG,AFNE01.JPG,AFNE01.JPG,AFNE01.JPG,AFNE01.JPG,AFNE01.JPG,,,,,,,,,,,,,,,,,2,1,21,1,,,,,,,AMNE10.jpg,AMSA13.jpg,AMNE16.jpg,AMSA01.jpg,AMSA01.jpg,MS,2,num_4,16,num_4,0.583464168152,,,2017_Jun_08_1049,60.0099509764,MAFE4ImagesEEG,001,100612,
AFNE01.JPG,AFNE01.JPG,AFNE01.JPG,AFNE01.JPG,AFNE01.JPG,AFNE01.JPG,,,,,,,,,,,,,,,,,2,2,22,5,,,,,,,AMNE01.jpg,AMSA06.jpg,AMNE06.jpg,AMSA04.jpg,AMNE01.jpg,MN,1,num_8,32,num_4,0.950060282911,,,2017_Jun_08_1049,60.0099509764,MAFE4ImagesEEG,001,100612,
AFNE01.JPG,AFNE01.JPG,AFNE01.JPG,AFNE01.JPG,AFNE01.JPG,AFNE01.JPG,,,,,,,,,,,,,,,,,2,3,23,6,,,,,,,AMNE10.jpg,AMSA14.jpg,AMNE08.jpg,AMSA04.jpg,AMNE10.jpg,MN,1,num_8,16,num_8,0.933529711184,,,2017_Jun_08_1049,60.0099509764,MAFE4ImagesEEG,001,100612,
AFNE01.JPG,AFNE01.JPG,AFNE01.JPG,AFNE01.JPG,AFNE01.JPG,AFNE01.JPG,,,,,,,,,,,,,,,,,2,4,24,7,,,,,,,AMSA09.jpg,AMSA20.jpg,AMNE15.jpg,AMNE03.jpg,AMNE15.jpg,MN,1,num_2,16,num_2,0.833453343208,,,2017_Jun_08_1049,60.0099509764,MAFE4ImagesEEG,001,100612,
AFNE01.JPG,AFNE01.JPG,AFNE01.JPG,AFNE01.JPG,AFNE01.JPG,AFNE01.JPG,,,,,,,,,,,,,,,,,2,5,25,4,,,,,,,AMNE10.jpg,AMSA09.jpg,AMSA16.jpg,AMNE04.jpg,AMSA16.jpg,MS,2,num_2,32,num_6,1.21678754788,,,2017_Jun_08_1049,60.0099509764,MAFE4ImagesEEG,001,100612,
AFNE01.JPG,AFNE01.JPG,AFNE01.JPG,AFNE01.JPG,AFNE01.JPG,AFNE01.JPG,,,,,,,,,,,,,,,,,2,6,26,8,,,,,,,AMNE16.jpg,AMSA06.jpg,AMNE03.jpg,AMSA01.jpg,AMSA06.jpg,MS,2,num_6,16,num_6,0.783438573173,,,2017_Jun_08_1049,60.0099509764,MAFE4ImagesEEG,001,100612,
AFNE01.JPG,AFNE01.JPG,AFNE01.JPG,AFNE01.JPG,AFNE01.JPG,AFNE01.JPG,,,,,,,,,,,,,,,,,2,7,27,2,,,,,,,AMNE04.jpg,AMNE15.jpg,AMSA05.jpg,AMSA10.jpg,AMSA10.jpg,MS,2,num_4,32,num_2,1.2000587594,,,2017_Jun_08_1049,60.0099509764,MAFE4ImagesEEG,001,100612,
AFNE01.JPG,AFNE01.JPG,AFNE01.JPG,AFNE01.JPG,AFNE01.JPG,AFNE01.JPG,,,,,,,,,,,,,,,,,2,8,28,9,,,,,,,AMSA19.jpg,AMNE10.jpg,AMNE04.jpg,AMSA09.jpg,AMSA19.jpg,MS,2,num_8,16,num_8,0.650149993633,,,2017_Jun_08_1049,60.0099509764,MAFE4ImagesEEG,001,100612,
AFNE01.JPG,AFNE01.JPG,AFNE01.JPG,AFNE01.JPG,AFNE01.JPG,AFNE01.JPG,,,,,,,,,,,,,,,,,2,9,29,3,,,,,,,AMSA05.jpg,AMNE15.jpg,AMSA01.jpg,AMNE05.jpg,AMNE05.jpg,MN,1,num_4,16,num_4,1.15021911291,,,2017_Jun_08_1049,60.0099509764,MAFE4ImagesEEG,001,100612,
AFNE01.JPG,AFNE01.JPG,AFNE01.JPG,AFNE01.JPG,AFNE01.JPG,AFNE01.JPG,,,,,,,,,,,,,,,,,3,0,30,4,,,,,,,AMNE18.jpg,AMNE08.jpg,AMSA01.jpg,AMSA17.jpg,AMSA17.jpg,MS,2,num_4,16,num_4,1.11672882056,,,2017_Jun_08_1049,60.0099509764,MAFE4ImagesEEG,001,100612,
AFNE01.JPG,AFNE01.JPG,AFNE01.JPG,AFNE01.JPG,AFNE01.JPG,AFNE01.JPG,,,,,,,,,,,,,,,,,3,1,31,8,,,,,,,AMSA20.jpg,AMNE17.jpg,AMSA14.jpg,AMNE14.jpg,AMNE17.jpg,MN,1,num_6,32,num_4,0.700103502502,,,2017_Jun_08_1049,60.0099509764,MAFE4ImagesEEG,001,100612,
AFNE01.JPG,AFNE01.JPG,AFNE01.JPG,AFNE01.JPG,AFNE01.JPG,AFNE01.JPG,,,,,,,,,,,,,,,,,3,2,32,7,,,,,,,AMNE17.jpg,AMSA15.jpg,AMSA05.jpg,AMNE14.jpg,AMNE14.jpg,MN,1,num_4,32,num_8,0.700107672111,,,2017_Jun_08_1049,60.0099509764,MAFE4ImagesEEG,001,100612,
AFNE01.JPG,AFNE01.JPG,AFNE01.JPG,AFNE01.JPG,AFNE01.JPG,AFNE01.JPG,,,,,,,,,,,,,,,,,3,3,33,2,,,,,,,AMNE10.jpg,AMNE13.jpg,AMSA19.jpg,AMSA09.jpg,AMSA19.jpg,MS,2,num_2,16,num_2,0.683416089363,,,2017_Jun_08_1049,60.0099509764,MAFE4ImagesEEG,001,100612,
AFNE01.JPG,AFNE01.JPG,AFNE01.JPG,AFNE01.JPG,AFNE01.JPG,AFNE01.JPG,,,,,,,,,,,,,,,,,3,4,34,9,,,,,,,AMNE09.jpg,AMNE11.jpg,AMSA13.jpg,AMSA10.jpg,AMSA13.jpg,MS,2,num_2,32,num_8,0.816677085341,,,2017_Jun_08_1049,60.0099509764,MAFE4ImagesEEG,001,100612,
AFNE01.JPG,AFNE01.JPG,AFNE01.JPG,AFNE01.JPG,AFNE01.JPG,AFNE01.JPG,,,,,,,,,,,,,,,,,3,5,35,0,,,,,,,AMNE06.jpg,AMNE08.jpg,AMSA17.jpg,AMSA09.jpg,AMSA09.jpg,MS,2,num_4,16,num_4,0.650129145592,,,2017_Jun_08_1049,60.0099509764,MAFE4ImagesEEG,001,100612,
AFNE01.JPG,AFNE01.JPG,AFNE01.JPG,AFNE01.JPG,AFNE01.JPG,AFNE01.JPG,,,,,,,,,,,,,,,,,3,6,36,3,,,,,,,AMSA18.jpg,AMSA05.jpg,AMNE17.jpg,AMNE09.jpg,AMNE09.jpg,MN,1,num_4,16,num_4,0.933463959672,,,2017_Jun_08_1049,60.0099509764,MAFE4ImagesEEG,001,100612,
AFNE01.JPG,AFNE01.JPG,AFNE01.JPG,AFNE01.JPG,AFNE01.JPG,AFNE01.JPG,,,,,,,,,,,,,,,,,3,7,37,6,,,,,,,AMSA05.jpg,AMNE05.jpg,AMNE07.jpg,AMSA18.jpg,AMNE07.jpg,MN,1,num_2,32,num_4,0.683438541099,,,2017_Jun_08_1049,60.0099509764,MAFE4ImagesEEG,001,100612,
AFNE01.JPG,AFNE01.JPG,AFNE01.JPG,AFNE01.JPG,AFNE01.JPG,AFNE01.JPG,,,,,,,,,,,,,,,,,3,8,38,1,,,,,,,AMSA08.jpg,AMNE07.jpg,AMSA10.jpg,AMNE15.jpg,AMSA10.jpg,MS,2,num_2,32,num_6,0.633472844144,,,2017_Jun_08_1049,60.0099509764,MAFE4ImagesEEG,001,100612,
AFNE01.JPG,AFNE01.JPG,AFNE01.JPG,AFNE01.JPG,AFNE01.JPG,AFNE01.JPG,,,,,,,,,,,,,,,,,3,9,39,5,,,,,,,AMNE14.jpg,AMNE16.jpg,AMSA08.jpg,AMSA16.jpg,AMNE16.jpg,MN,1,num_6,16,num_6,0.783493740296,,,2017_Jun_08_1049,60.0099509764,MAFE4ImagesEEG,001,100612,
AFNE01.JPG,AFNE01.JPG,AFNE01.JPG,AFNE01.JPG,AFNE01.JPG,AFNE01.JPG,,,,,,,,,,,,,,,,,4,0,40,2,,,,,,,AMSA09.jpg,AMNE07.jpg,AMNE15.jpg,AMSA17.jpg,AMNE15.jpg,MN,1,num_2,32,num_6,0.916815035222,,,2017_Jun_08_1049,60.0099509764,MAFE4ImagesEEG,001,100612,
AFNE01.JPG,AFNE01.JPG,AFNE01.JPG,AFNE01.JPG,AFNE01.JPG,AFNE01.JPG,,,,,,,,,,,,,,,,,4,1,41,3,,,,,,,AMSA02.jpg,AMNE02.jpg,AMNE04.jpg,AMSA04.jpg,AMNE04.jpg,MN,1,num_2,32,num_6,0.816741233158,,,2017_Jun_08_1049,60.0099509764,MAFE4ImagesEEG,001,100612,
AFNE01.JPG,AFNE01.JPG,AFNE01.JPG,AFNE01.JPG,AFNE01.JPG,AFNE01.JPG,,,,,,,,,,,,,,,,,4,2,42,7,,,,,,,AMNE07.jpg,AMNE13.jpg,AMSA04.jpg,AMSA10.jpg,AMSA10.jpg,MS,2,num_4,16,num_4,0.650154804719,,,2017_Jun_08_1049,60.0099509764,MAFE4ImagesEEG,001,100612,
AFNE01.JPG,AFNE01.JPG,AFNE01.JPG,AFNE01.JPG,AFNE01.JPG,AFNE01.JPG,,,,,,,,,,,,,,,,,4,3,43,6,,,,,,,AMSA04.jpg,AMNE19.jpg,AMNE07.jpg,AMSA15.jpg,AMSA04.jpg,MS,2,num_8,32,num_6,0.783477703341,,,2017_Jun_08_1049,60.0099509764,MAFE4ImagesEEG,001,100612,
AFNE01.JPG,AFNE01.JPG,AFNE01.JPG,AFNE01.JPG,AFNE01.JPG,AFNE01.JPG,,,,,,,,,,,,,,,,,4,4,44,8,,,,,,,AMNE20.jpg,AMNE12.jpg,AMSA13.jpg,AMSA19.jpg,AMNE12.jpg,MN,1,num_6,16,num_6,1.10012736549,,,2017_Jun_08_1049,60.0099509764,MAFE4ImagesEEG,001,100612,
AFNE01.JPG,AFNE01.JPG,AFNE01.JPG,AFNE01.JPG,AFNE01.JPG,AFNE01.JPG,,,,,,,,,,,,,,,,,4,5,45,9,,,,,,,AMSA19.jpg,AMNE02.jpg,AMNE14.jpg,AMSA02.jpg,AMSA02.jpg,MS,2,num_4,16,num_4,1.53341347534,,,2017_Jun_08_1049,60.0099509764,MAFE4ImagesEEG,001,100612,
AFNE01.JPG,AFNE01.JPG,AFNE01.JPG,AFNE01.JPG,AFNE01.JPG,AFNE01.JPG,,,,,,,,,,,,,,,,,4,6,46,0,,,,,,,AMSA08.jpg,AMSA10.jpg,AMNE10.jpg,AMNE17.jpg,AMSA08.jpg,MS,2,num_8,16,num_8,0.533224880757,,,2017_Jun_08_1049,60.0099509764,MAFE4ImagesEEG,001,100612,
AFNE01.JPG,AFNE01.JPG,AFNE01.JPG,AFNE01.JPG,AFNE01.JPG,AFNE01.JPG,,,,,,,,,,,,,,,,,4,7,47,4,,,,,,,AMSA11.jpg,AMNE12.jpg,AMNE16.jpg,AMSA17.jpg,AMSA11.jpg,MS,2,num_8,16,num_8,0.600144525032,,,2017_Jun_08_1049,60.0099509764,MAFE4ImagesEEG,001,100612,
AFNE01.JPG,AFNE01.JPG,AFNE01.JPG,AFNE01.JPG,AFNE01.JPG,AFNE01.JPG,,,,,,,,,,,,,,,,,4,8,48,5,,,,,,,AMSA06.jpg,AMNE19.jpg,AMNE04.jpg,AMSA07.jpg,AMNE19.jpg,MN,1,num_6,32,num_2,1.05008982298,,,2017_Jun_08_1049,60.0099509764,MAFE4ImagesEEG,001,100612,
AFNE01.JPG,AFNE01.JPG,AFNE01.JPG,AFNE01.JPG,AFNE01.JPG,AFNE01.JPG,,,,,,,,,,,,,,,,,4,9,49,1,,,,,,,AMSA08.jpg,AMNE03.jpg,AMSA17.jpg,AMNE04.jpg,AMSA17.jpg,MS,2,num_2,32,num_8,0.750125008059,,,2017_Jun_08_1049,60.0099509764,MAFE4ImagesEEG,001,100612,
AFNE01.JPG,AFNE01.JPG,AFNE01.JPG,AFNE01.JPG,AFNE01.JPG,AFNE01.JPG,,,,,,,,,,,,,,,,,5,0,50,0,,,,,,,AMNE09.jpg,AMSA04.jpg,AMSA18.jpg,AMNE08.jpg,AMSA18.jpg,MS,2,num_2,16,num_2,0.833409081214,,,2017_Jun_08_1049,60.0099509764,MAFE4ImagesEEG,001,100612,
AFNE01.JPG,AFNE01.JPG,AFNE01.JPG,AFNE01.JPG,AFNE01.JPG,AFNE01.JPG,,,,,,,,,,,,,,,,,5,1,51,3,,,,,,,AMNE08.jpg,AMSA10.jpg,AMNE20.jpg,AMSA12.jpg,AMSA12.jpg,MS,2,num_4,32,num_6,0.650124975985,,,2017_Jun_08_1049,60.0099509764,MAFE4ImagesEEG,001,100612,
AFNE01.JPG,AFNE01.JPG,AFNE01.JPG,AFNE01.JPG,AFNE01.JPG,AFNE01.JPG,,,,,,,,,,,,,,,,,5,2,52,6,,,,,,,AMSA04.jpg,AMNE09.jpg,AMSA10.jpg,AMNE14.jpg,AMNE14.jpg,MN,1,num_4,16,num_4,0.81677234485,,,2017_Jun_08_1049,60.0099509764,MAFE4ImagesEEG,001,100612,
AFNE01.JPG,AFNE01.JPG,AFNE01.JPG,AFNE01.JPG,AFNE01.JPG,AFNE01.JPG,,,,,,,,,,,,,,,,,5,3,53,7,,,,,,,AMSA20.jpg,AMNE03.jpg,AMNE15.jpg,AMSA04.jpg,AMNE15.jpg,MN,1,num_2,32,num_6,0.916730680842,,,2017_Jun_08_1049,60.0099509764,MAFE4ImagesEEG,001,100612,
AFNE01.JPG,AFNE01.JPG,AFNE01.JPG,AFNE01.JPG,AFNE01.JPG,AFNE01.JPG,,,,,,,,,,,,,,,,,5,4,54,1,,,,,,,AMSA10.jpg,AMNE09.jpg,AMNE10.jpg,AMSA07.jpg,AMNE09.jpg,MN,1,num_6,16,num_6,0.950164523114,,,2017_Jun_08_1049,60.0099509764,MAFE4ImagesEEG,001,100612,
AFNE01.JPG,AFNE01.JPG,AFNE01.JPG,AFNE01.JPG,AFNE01.JPG,AFNE01.JPG,,,,,,,,,,,,,,,,,5,5,55,5,,,,,,,AMSA15.jpg,AMSA19.jpg,AMNE09.jpg,AMNE13.jpg,AMSA19.jpg,MS,2,num_6,32,num_8,1.46679404285,,,2017_Jun_08_1049,60.0099509764,MAFE4ImagesEEG,001,100612,
AFNE01.JPG,AFNE01.JPG,AFNE01.JPG,AFNE01.JPG,AFNE01.JPG,AFNE01.JPG,,,,,,,,,,,,,,,,,5,6,56,2,,,,,,,AMSA14.jpg,AMNE17.jpg,AMSA07.jpg,AMNE14.jpg,AMSA07.jpg,MS,2,num_2,32,num_4,1.8667117412,,,2017_Jun_08_1049,60.0099509764,MAFE4ImagesEEG,001,100612,
AFNE01.JPG,AFNE01.JPG,AFNE01.JPG,AFNE01.JPG,AFNE01.JPG,AFNE01.JPG,,,,,,,,,,,,,,,,,5,7,57,4,,,,,,,AMSA17.jpg,AMSA06.jpg,AMNE18.jpg,AMNE11.jpg,AMNE18.jpg,MN,1,num_2,32,num_4,0.766758216292,,,2017_Jun_08_1049,60.0099509764,MAFE4ImagesEEG,001,100612,
AFNE01.JPG,AFNE01.JPG,AFNE01.JPG,AFNE01.JPG,AFNE01.JPG,AFNE01.JPG,,,,,,,,,,,,,,,,,5,8,58,9,,,,,,,AMSA01.jpg,AMSA12.jpg,AMNE15.jpg,AMNE18.jpg,AMNE15.jpg,MN,1,num_2,32,num_4,0.6501406922,,,2017_Jun_08_1049,60.0099509764,MAFE4ImagesEEG,001,100612,
AFNE01.JPG,AFNE01.JPG,AFNE01.JPG,AFNE01.JPG,AFNE01.JPG,AFNE01.JPG,,,,,,,,,,,,,,,,,5,9,59,8,,,,,,,AMNE06.jpg,AMNE15.jpg,AMSA07.jpg,AMSA08.jpg,AMSA08.jpg,MS,2,num_4,32,num_2,1.21675226658,,,2017_Jun_08_1049,60.0099509764,MAFE4ImagesEEG,001,100612,
,,,,,,,,,,,,,,,,,,,,,,,,,,,,,,,,,,,,,,,,,,,space,6.31665575619,2017_Jun_08_1049,60.0099509764,MAFE4ImagesEEG,001,100612,
AFNE01.JPG,AFNE01.JPG,AFNE01.JPG,AFNE01.JPG,AFNE01.JPG,AFNE01.JPG,,,,,,,,,,,,,,,,,,,,,0,0,0,8,,,AFNE09.jpg,AFSA01.jpg,AFSA16.jpg,AFNE03.jpg,AFNE03.jpg,FN,3,num_4,16,num_4,0.666876536942,,,2017_Jun_08_1049,60.0099509764,MAFE4ImagesEEG,001,100612,
AFNE01.JPG,AFNE01.JPG,AFNE01.JPG,AFNE01.JPG,AFNE01.JPG,AFNE01.JPG,,,,,,,,,,,,,,,,,,,,,0,1,1,3,,,AFNE06.jpg,AFNE16.jpg,AFSA13.jpg,AFSA18.jpg,AFSA18.jpg,FS,4,num_4,16,num_4,0.866762097236,,,2017_Jun_08_1049,60.0099509764,MAFE4ImagesEEG,001,100612,
AFNE01.JPG,AFNE01.JPG,AFNE01.JPG,AFNE01.JPG,AFNE01.JPG,AFNE01.JPG,,,,,,,,,,,,,,,,,,,,,0,2,2,5,,,AFNE16.jpg,AFNE15.jpg,AFSA20.jpg,AFSA01.jpg,AFNE16.jpg,FN,3,num_8,16,num_8,0.65014389959,,,2017_Jun_08_1049,60.0099509764,MAFE4ImagesEEG,001,100612,
AFNE01.JPG,AFNE01.JPG,AFNE01.JPG,AFNE01.JPG,AFNE01.JPG,AFNE01.JPG,,,,,,,,,,,,,,,,,,,,,0,3,3,7,,,AFSA17.jpg,AFSA12.jpg,AFNE04.jpg,AFNE14.jpg,AFSA17.jpg,FS,4,num_8,16,num_8,0.950092677559,,,2017_Jun_08_1049,60.0099509764,MAFE4ImagesEEG,001,100612,
AFNE01.JPG,AFNE01.JPG,AFNE01.JPG,AFNE01.JPG,AFNE01.JPG,AFNE01.JPG,,,,,,,,,,,,,,,,,,,,,0,4,4,0,,,AFSA19.jpg,AFSA16.jpg,AFNE09.jpg,AFNE16.jpg,AFNE16.jpg,FN,3,num_4,16,num_4,0.783827950422,,,2017_Jun_08_1049,60.0099509764,MAFE4ImagesEEG,001,100612,
AFNE01.JPG,AFNE01.JPG,AFNE01.JPG,AFNE01.JPG,AFNE01.JPG,AFNE01.JPG,,,,,,,,,,,,,,,,,,,,,0,5,5,9,,,AFNE20.jpg,AFNE04.jpg,AFSA18.jpg,AFSA01.jpg,AFSA18.jpg,FS,4,num_2,16,num_2,0.850101626179,,,2017_Jun_08_1049,60.0099509764,MAFE4ImagesEEG,001,100612,
AFNE01.JPG,AFNE01.JPG,AFNE01.JPG,AFNE01.JPG,AFNE01.JPG,AFNE01.JPG,,,,,,,,,,,,,,,,,,,,,0,6,6,2,,,AFSA03.jpg,AFNE14.jpg,AFSA06.jpg,AFNE17.jpg,AFSA03.jpg,FS,4,num_8,32,num_4,0.750099669671,,,2017_Jun_08_1049,60.0099509764,MAFE4ImagesEEG,001,100612,
AFNE01.JPG,AFNE01.JPG,AFNE01.JPG,AFNE01.JPG,AFNE01.JPG,AFNE01.JPG,,,,,,,,,,,,,,,,,,,,,0,7,7,6,,,AFNE10.jpg,AFSA10.jpg,AFSA09.jpg,AFNE20.jpg,AFNE20.jpg,FN,3,num_4,16,num_4,0.850119266829,,,2017_Jun_08_1049,60.0099509764,MAFE4ImagesEEG,001,100612,
AFNE01.JPG,AFNE01.JPG,AFNE01.JPG,AFNE01.JPG,AFNE01.JPG,AFNE01.JPG,,,,,,,,,,,,,,,,,,,,,0,8,8,1,,,AFSA19.jpg,AFNE07.jpg,AFNE19.jpg,AFSA10.jpg,AFSA19.jpg,FS,4,num_8,32,num_2,0.78344659165,,,2017_Jun_08_1049,60.0099509764,MAFE4ImagesEEG,001,100612,
AFNE01.JPG,AFNE01.JPG,AFNE01.JPG,AFNE01.JPG,AFNE01.JPG,AFNE01.JPG,,,,,,,,,,,,,,,,,,,,,0,9,9,4,,,AFSA02.jpg,AFNE04.jpg,AFSA07.jpg,AFNE01.jpg,AFSA02.jpg,FS,4,num_8,32,num_2,0.916805413049,,,2017_Jun_08_1049,60.0099509764,MAFE4ImagesEEG,001,100612,
AFNE01.JPG,AFNE01.JPG,AFNE01.JPG,AFNE01.JPG,AFNE01.JPG,AFNE01.JPG,,,,,,,,,,,,,,,,,,,,,1,0,10,3,,,AFNE12.jpg,AFSA12.jpg,AFSA02.jpg,AFNE07.jpg,AFNE07.jpg,FN,3,num_4,32,num_8,0.550134886822,,,2017_Jun_08_1049,60.0099509764,MAFE4ImagesEEG,001,100612,
AFNE01.JPG,AFNE01.JPG,AFNE01.JPG,AFNE01.JPG,AFNE01.JPG,AFNE01.JPG,,,,,,,,,,,,,,,,,,,,,1,1,11,5,,,AFSA09.jpg,AFNE03.jpg,AFSA19.jpg,AFNE10.jpg,AFSA19.jpg,FS,4,num_2,32,num_8,1.86660621804,,,2017_Jun_08_1049,60.0099509764,MAFE4ImagesEEG,001,100612,
AFNE01.JPG,AFNE01.JPG,AFNE01.JPG,AFNE01.JPG,AFNE01.JPG,AFNE01.JPG,,,,,,,,,,,,,,,,,,,,,1,2,12,0,,,AFSA15.jpg,AFSA06.jpg,AFNE03.jpg,AFNE13.jpg,AFNE03.jpg,FN,3,num_2,16,num_2,1.63342024293,,,2017_Jun_08_1049,60.0099509764,MAFE4ImagesEEG,001,100612,
AFNE01.JPG,AFNE01.JPG,AFNE01.JPG,AFNE01.JPG,AFNE01.JPG,AFNE01.JPG,,,,,,,,,,,,,,,,,,,,,1,3,13,2,,,AFNE06.jpg,AFSA20.jpg,AFNE13.jpg,AFSA07.jpg,AFSA20.jpg,FS,4,num_6,16,num_6,0.68342763597,,,2017_Jun_08_1049,60.0099509764,MAFE4ImagesEEG,001,100612,
AFNE01.JPG,AFNE01.JPG,AFNE01.JPG,AFNE01.JPG,AFNE01.JPG,AFNE01.JPG,,,,,,,,,,,,,,,,,,,,,1,4,14,1,,,AFSA19.jpg,AFSA03.jpg,AFNE06.jpg,AFNE16.jpg,AFSA03.jpg,FS,4,num_6,16,num_6,0.750155157532,,,2017_Jun_08_1049,60.0099509764,MAFE4ImagesEEG,001,100612,
AFNE01.JPG,AFNE01.JPG,AFNE01.JPG,AFNE01.JPG,AFNE01.JPG,AFNE01.JPG,,,,,,,,,,,,,,,,,,,,,1,5,15,6,,,AFNE02.jpg,AFNE06.jpg,AFSA20.jpg,AFSA05.jpg,AFSA20.jpg,FS,4,num_2,32,num_6,0.7167848216,,,2017_Jun_08_1049,60.0099509764,MAFE4ImagesEEG,001,100612,
AFNE01.JPG,AFNE01.JPG,AFNE01.JPG,AFNE01.JPG,AFNE01.JPG,AFNE01.JPG,,,,,,,,,,,,,,,,,,,,,1,6,16,8,,,AFSA14.jpg,AFNE08.jpg,AFSA01.jpg,AFNE05.jpg,AFSA01.jpg,FS,4,num_2,32,num_8,0.750098386715,,,2017_Jun_08_1049,60.0099509764,MAFE4ImagesEEG,001,100612,
AFNE01.JPG,AFNE01.JPG,AFNE01.JPG,AFNE01.JPG,AFNE01.JPG,AFNE01.JPG,,,,,,,,,,,,,,,,,,,,,1,7,17,9,,,AFNE09.jpg,AFSA02.jpg,AFNE17.jpg,AFSA10.jpg,AFNE17.jpg,FN,3,num_2,16,num_2,0.933301024216,,,2017_Jun_08_1049,60.0099509764,MAFE4ImagesEEG,001,100612,
AFNE01.JPG,AFNE01.JPG,AFNE01.JPG,AFNE01.JPG,AFNE01.JPG,AFNE01.JPG,,,,,,,,,,,,,,,,,,,,,1,8,18,7,,,AFSA03.jpg,AFNE16.jpg,AFSA12.jpg,AFNE19.jpg,AFNE19.jpg,FN,3,num_4,32,num_8,0.983419392976,,,2017_Jun_08_1049,60.0099509764,MAFE4ImagesEEG,001,100612,
AFNE01.JPG,AFNE01.JPG,AFNE01.JPG,AFNE01.JPG,AFNE01.JPG,AFNE01.JPG,,,,,,,,,,,,,,,,,,,,,1,9,19,4,,,AFSA15.jpg,AFNE19.jpg,AFNE07.jpg,AFSA13.jpg,AFSA15.jpg,FS,4,num_8,32,num_6,0.833474511987,,,2017_Jun_08_1049,60.0099509764,MAFE4ImagesEEG,001,100612,
AFNE01.JPG,AFNE01.JPG,AFNE01.JPG,AFNE01.JPG,AFNE01.JPG,AFNE01.JPG,,,,,,,,,,,,,,,,,,,,,2,0,20,5,,,AFSA14.jpg,AFNE10.jpg,AFNE17.jpg,AFSA12.jpg,AFSA12.jpg,FS,4,num_4,16,num_4,1.13350892729,,,2017_Jun_08_1049,60.0099509764,MAFE4ImagesEEG,001,100612,
AFNE01.JPG,AFNE01.JPG,AFNE01.JPG,AFNE01.JPG,AFNE01.JPG,AFNE01.JPG,,,,,,,,,,,,,,,,,,,,,2,1,21,7,,,AFNE06.jpg,AFSA05.jpg,AFNE20.jpg,AFSA02.jpg,AFNE20.jpg,FN,3,num_2,32,num_8,1.30011267564,,,2017_Jun_08_1049,60.0099509764,MAFE4ImagesEEG,001,100612,
AFNE01.JPG,AFNE01.JPG,AFNE01.JPG,AFNE01.JPG,AFNE01.JPG,AFNE01.JPG,,,,,,,,,,,,,,,,,,,,,2,2,22,9,,,AFSA14.jpg,AFNE01.jpg,AFSA05.jpg,AFNE18.jpg,AFNE18.jpg,FN,3,num_4,32,num_8,0.650124334506,,,2017_Jun_08_1049,60.0099509764,MAFE4ImagesEEG,001,100612,
AFNE01.JPG,AFNE01.JPG,AFNE01.JPG,AFNE01.JPG,AFNE01.JPG,AFNE01.JPG,,,,,,,,,,,,,,,,,,,,,2,3,23,3,,,AFNE06.jpg,AFNE04.jpg,AFSA10.jpg,AFSA11.jpg,AFSA10.jpg,FS,4,num_2,32,num_8,0.833406515301,,,2017_Jun_08_1049,60.0099509764,MAFE4ImagesEEG,001,100612,
AFNE01.JPG,AFNE01.JPG,AFNE01.JPG,AFNE01.JPG,AFNE01.JPG,AFNE01.JPG,,,,,,,,,,,,,,,,,,,,,2,4,24,4,,,AFSA06.jpg,AFNE15.jpg,AFSA07.jpg,AFNE01.jpg,AFNE15.jpg,FN,3,num_6,32,num_4,0.933439583501,,,2017_Jun_08_1049,60.0099509764,MAFE4ImagesEEG,001,100612,
AFNE01.JPG,AFNE01.JPG,AFNE01.JPG,AFNE01.JPG,AFNE01.JPG,AFNE01.JPG,,,,,,,,,,,,,,,,,,,,,2,5,25,1,,,AFSA03.jpg,AFNE09.jpg,AFSA07.jpg,AFNE20.jpg,AFNE09.jpg,FN,3,num_6,32,num_4,0.766854438019,,,2017_Jun_08_1049,60.0099509764,MAFE4ImagesEEG,001,100612,
AFNE01.JPG,AFNE01.JPG,AFNE01.JPG,AFNE01.JPG,AFNE01.JPG,AFNE01.JPG,,,,,,,,,,,,,,,,,,,,,2,6,26,2,,,AFNE06.jpg,AFNE15.jpg,AFSA18.jpg,AFSA03.jpg,AFSA18.jpg,FS,4,num_2,32,num_4,1.33345222062,,,2017_Jun_08_1049,60.0099509764,MAFE4ImagesEEG,001,100612,
AFNE01.JPG,AFNE01.JPG,AFNE01.JPG,AFNE01.JPG,AFNE01.JPG,AFNE01.JPG,,,,,,,,,,,,,,,,,,,,,2,7,27,8,,,AFSA13.jpg,AFNE08.jpg,AFSA10.jpg,AFNE04.jpg,AFNE08.jpg,FN,3,num_6,16,num_6,0.950107431557,,,2017_Jun_08_1049,60.0099509764,MAFE4ImagesEEG,001,100612,
AFNE01.JPG,AFNE01.JPG,AFNE01.JPG,AFNE01.JPG,AFNE01.JPG,AFNE01.JPG,,,,,,,,,,,,,,,,,,,,,2,8,28,0,,,AFSA16.jpg,AFNE14.jpg,AFNE02.jpg,AFSA18.jpg,AFNE14.jpg,FN,3,num_6,16,num_6,0.916790659051,,,2017_Jun_08_1049,60.0099509764,MAFE4ImagesEEG,001,100612,
AFNE01.JPG,AFNE01.JPG,AFNE01.JPG,AFNE01.JPG,AFNE01.JPG,AFNE01.JPG,,,,,,,,,,,,,,,,,,,,,2,9,29,6,,,AFNE20.jpg,AFSA19.jpg,AFNE02.jpg,AFSA11.jpg,AFSA11.jpg,FS,4,num_4,16,num_4,0.566772264665,,,2017_Jun_08_1049,60.0099509764,MAFE4ImagesEEG,001,100612,
AFNE01.JPG,AFNE01.JPG,AFNE01.JPG,AFNE01.JPG,AFNE01.JPG,AFNE01.JPG,,,,,,,,,,,,,,,,,,,,,3,0,30,4,,,AFNE14.jpg,AFSA02.jpg,AFSA18.jpg,AFNE18.jpg,AFSA02.jpg,FS,4,num_6,16,num_6,0.783508173555,,,2017_Jun_08_1049,60.0099509764,MAFE4ImagesEEG,001,100612,
AFNE01.JPG,AFNE01.JPG,AFNE01.JPG,AFNE01.JPG,AFNE01.JPG,AFNE01.JPG,,,,,,,,,,,,,,,,,,,,,3,1,31,7,,,AFNE06.jpg,AFNE10.jpg,AFSA18.jpg,AFSA10.jpg,AFSA18.jpg,FS,4,num_2,16,num_2,0.816577335485,,,2017_Jun_08_1049,60.0099509764,MAFE4ImagesEEG,001,100612,
AFNE01.JPG,AFNE01.JPG,AFNE01.JPG,AFNE01.JPG,AFNE01.JPG,AFNE01.JPG,,,,,,,,,,,,,,,,,,,,,3,2,32,8,,,AFSA15.jpg,AFNE14.jpg,AFNE07.jpg,AFSA11.jpg,AFNE14.jpg,FN,3,num_6,16,num_6,0.933491543233,,,2017_Jun_08_1049,60.0099509764,MAFE4ImagesEEG,001,100612,
AFNE01.JPG,AFNE01.JPG,AFNE01.JPG,AFNE01.JPG,AFNE01.JPG,AFNE01.JPG,,,,,,,,,,,,,,,,,,,,,3,3,33,0,,,AFSA11.jpg,AFNE20.jpg,AFNE01.jpg,AFSA06.jpg,AFNE01.jpg,FN,3,num_2,32,num_6,1.90044098417,,,2017_Jun_08_1049,60.0099509764,MAFE4ImagesEEG,001,100612,
AFNE01.JPG,AFNE01.JPG,AFNE01.JPG,AFNE01.JPG,AFNE01.JPG,AFNE01.JPG,,,,,,,,,,,,,,,,,,,,,3,4,34,6,,,AFNE07.jpg,AFSA12.jpg,AFNE19.jpg,AFSA11.jpg,AFSA11.jpg,FS,4,num_4,16,num_4,0.816806984671,,,2017_Jun_08_1049,60.0099509764,MAFE4ImagesEEG,001,100612,
AFNE01.JPG,AFNE01.JPG,AFNE01.JPG,AFNE01.JPG,AFNE01.JPG,AFNE01.JPG,,,,,,,,,,,,,,,,,,,,,3,5,35,3,,,AFSA06.jpg,AFSA19.jpg,AFNE20.jpg,AFNE02.jpg,AFSA19.jpg,FS,4,num_6,32,num_8,1.45008834758,,,2017_Jun_08_1049,60.0099509764,MAFE4ImagesEEG,001,100612,
AFNE01.JPG,AFNE01.JPG,AFNE01.JPG,AFNE01.JPG,AFNE01.JPG,AFNE01.JPG,,,,,,,,,,,,,,,,,,,,,3,6,36,5,,,AFNE19.jpg,AFNE10.jpg,AFSA10.jpg,AFSA17.jpg,AFNE19.jpg,FN,3,num_8,32,num_6,0.533373382954,,,2017_Jun_08_1049,60.0099509764,MAFE4ImagesEEG,001,100612,
AFNE01.JPG,AFNE01.JPG,AFNE01.JPG,AFNE01.JPG,AFNE01.JPG,AFNE01.JPG,,,,,,,,,,,,,,,,,,,,,3,7,37,9,,,AFSA16.jpg,AFNE11.jpg,AFSA04.jpg,AFNE17.jpg,AFSA16.jpg,FS,4,num_8,16,num_8,0.633460656059,,,2017_Jun_08_1049,60.0099509764,MAFE4ImagesEEG,001,100612,
AFNE01.JPG,AFNE01.JPG,AFNE01.JPG,AFNE01.JPG,AFNE01.JPG,AFNE01.JPG,,,,,,,,,,,,,,,,,,,,,3,8,38,2,,,AFSA20.jpg,AFSA16.jpg,AFNE04.jpg,AFNE10.jpg,AFSA20.jpg,FS,4,num_8,32,num_6,0.700240137354,,,2017_Jun_08_1049,60.0099509764,MAFE4ImagesEEG,001,100612,
