IPosition2,IPosition3,IPosition1,IPosition6,IPosition4,IPosition5,TrialsM1.thisRepN,TrialsM1.thisTrialN,TrialsM1.thisN,TrialsM1.thisIndex,TrialsF1.thisRepN,TrialsF1.thisTrialN,TrialsF1.thisN,TrialsF1.thisIndex,TrialsM2.thisRepN,TrialsM2.thisTrialN,TrialsM2.thisN,TrialsM2.thisIndex,TrialsF2.thisRepN,TrialsF2.thisTrialN,TrialsF2.thisN,TrialsF2.thisIndex,TrialsM3.thisRepN,TrialsM3.thisTrialN,TrialsM3.thisN,TrialsM3.thisIndex,TrialsF3.thisRepN,TrialsF3.thisTrialN,TrialsF3.thisN,TrialsF3.thisIndex,InstrKey_resp.keys,InstrKey_resp.rt,Image0 _Position,Image1 _Position,Image2 _Position,Image3 _Position,Center_image,condition,code,correct_answer,accuracy,Key_Resp.keys,Key_Resp.rt,BreakKey_resp.keys,BreakKey_resp.rt,date,frameRate,expName,session,participant,
,,,,,,,,,,,,,,,,,,,,,,,,,,,,,,space,24.5322244955,,,,,,,,,,,,,,2017_Jun_15_1903,60.006486045,MAFE4ImagesEEG,001,100695,
AMNE22.JPG,AMSA24.JPG,AMSA22.JPG,AMNE25.JPG,AMNE24.JPG,AMSA25.JPG,0,0,0,7,,,,,,,,,,,,,,,,,,,,,,,AMSA06.jpg,AMNE03.jpg,AMNE04.jpg,AMSA05.jpg,AMNE04.jpg,MN,1,num_2,48,None,,,,2017_Jun_15_1903,60.006486045,MAFE4ImagesEEG,001,100695,
AFSA21.JPG,AFNE23.JPG,AFNE21.JPG,AFSA25.JPG,AFNE25.JPG,AFSA23.JPG,0,1,1,4,,,,,,,,,,,,,,,,,,,,,,,AMNE09.jpg,AMSA05.jpg,AMSA15.jpg,AMNE05.jpg,AMSA15.jpg,MS,2,num_2,32,num_4,4.78326954367,,,2017_Jun_15_1903,60.006486045,MAFE4ImagesEEG,001,100695,
AMSA25.JPG,AMNE24.JPG,AMSA24.JPG,AMNE26.JPG,AMSA21.JPG,AMNE25.JPG,0,2,2,3,,,,,,,,,,,,,,,,,,,,,,,AMSA04.jpg,AMNE13.jpg,AMNE03.jpg,AMSA19.jpg,AMNE13.jpg,MN,1,num_6,16,num_6,3.11628876661,,,2017_Jun_15_1903,60.006486045,MAFE4ImagesEEG,001,100695,
AMSA21.JPG,AMNE22.JPG,AMNE21.JPG,AMSA23.JPG,AMSA22.JPG,AMNE23.JPG,0,3,3,1,,,,,,,,,,,,,,,,,,,,,,,AMNE20.jpg,AMSA20.jpg,AMNE08.jpg,AMSA10.jpg,AMNE08.jpg,MN,1,num_2,16,num_2,1.56667604297,,,2017_Jun_15_1903,60.006486045,MAFE4ImagesEEG,001,100695,
AMSA21.JPG,AMNE23.JPG,AMNE21.JPG,AMSA25.JPG,AMNE25.JPG,AMSA23.JPG,0,4,4,5,,,,,,,,,,,,,,,,,,,,,,,AMNE01.jpg,AMSA11.jpg,AMNE05.jpg,AMSA01.jpg,AMSA01.jpg,MS,2,num_4,32,num_6,1.60005600099,,,2017_Jun_15_1903,60.006486045,MAFE4ImagesEEG,001,100695,
AMNE23.JPG,AMNE24.JPG,AMNE22.JPG,AMSA24.JPG,AMSA22.JPG,AMSA23.JPG,0,5,5,9,,,,,,,,,,,,,,,,,,,,,,,AMNE14.jpg,AMSA16.jpg,AMSA04.jpg,AMNE16.jpg,AMSA04.jpg,MS,2,num_2,32,num_6,0.916794828605,,,2017_Jun_15_1903,60.006486045,MAFE4ImagesEEG,001,100695,
AFNE23.JPG,AFNE24.JPG,AFNE22.JPG,AFSA24.JPG,AFSA22.JPG,AFSA23.JPG,0,6,6,8,,,,,,,,,,,,,,,,,,,,,,,AMSA18.jpg,AMNE03.jpg,AMSA13.jpg,AMNE09.jpg,AMSA13.jpg,MS,2,num_2,32,num_8,1.35011974804,,,2017_Jun_15_1903,60.006486045,MAFE4ImagesEEG,001,100695,
AFSA21.JPG,AFNE22.JPG,AFNE21.JPG,AFSA23.JPG,AFSA22.JPG,AFNE23.JPG,0,7,7,0,,,,,,,,,,,,,,,,,,,,,,,AMNE20.jpg,AMSA07.jpg,AMNE02.jpg,AMSA19.jpg,AMNE20.jpg,MN,1,num_8,16,num_8,1.13344125135,,,2017_Jun_15_1903,60.006486045,MAFE4ImagesEEG,001,100695,
AFSA25.JPG,AFNE24.JPG,AFSA24.JPG,AFNE21.JPG,AFSA21.JPG,AFNE25.JPG,0,8,8,2,,,,,,,,,,,,,,,,,,,,,,,AMSA06.jpg,AMNE15.jpg,AMSA09.jpg,AMNE06.jpg,AMNE06.jpg,MN,1,num_4,16,num_4,0.983493163018,,,2017_Jun_15_1903,60.006486045,MAFE4ImagesEEG,001,100695,
AFNE22.JPG,AFSA24.JPG,AFSA22.JPG,AFNE25.JPG,AFNE24.JPG,AFSA25.JPG,0,9,9,6,,,,,,,,,,,,,,,,,,,,,,,AMSA19.jpg,AMNE10.jpg,AMNE18.jpg,AMSA15.jpg,AMSA15.jpg,MS,2,num_4,32,num_8,2.31663522893,,,2017_Jun_15_1903,60.006486045,MAFE4ImagesEEG,001,100695,
AMNE23.JPG,AMNE24.JPG,AMNE22.JPG,AMSA24.JPG,AMSA22.JPG,AMSA23.JPG,,,,,0,0,0,9,,,,,,,,,,,,,,,,,,,AFNE14.jpg,AFSA16.jpg,AFNE03.jpg,AFSA19.jpg,AFNE14.jpg,FN,3,num_8,16,num_8,1.3000219065,,,2017_Jun_15_1903,60.006486045,MAFE4ImagesEEG,001,100695,
AMSA21.JPG,AMNE23.JPG,AMNE21.JPG,AMSA25.JPG,AMNE25.JPG,AMSA23.JPG,,,,,0,1,1,5,,,,,,,,,,,,,,,,,,,AFNE06.jpg,AFNE14.jpg,AFSA07.jpg,AFSA13.jpg,AFNE14.jpg,FN,3,num_6,32,num_8,1.75008074613,,,2017_Jun_15_1903,60.006486045,MAFE4ImagesEEG,001,100695,
AFNE23.JPG,AFNE24.JPG,AFNE22.JPG,AFSA24.JPG,AFSA22.JPG,AFSA23.JPG,,,,,0,2,2,8,,,,,,,,,,,,,,,,,,,AFNE02.jpg,AFSA17.jpg,AFNE07.jpg,AFSA03.jpg,AFSA17.jpg,FS,4,num_6,32,num_2,3.49956844549,,,2017_Jun_15_1903,60.006486045,MAFE4ImagesEEG,001,100695,
AFSA21.JPG,AFNE23.JPG,AFNE21.JPG,AFSA25.JPG,AFNE25.JPG,AFSA23.JPG,,,,,0,3,3,4,,,,,,,,,,,,,,,,,,,AFSA14.jpg,AFNE18.jpg,AFSA01.jpg,AFNE19.jpg,AFSA01.jpg,FS,4,num_2,32,num_6,1.85003972356,,,2017_Jun_15_1903,60.006486045,MAFE4ImagesEEG,001,100695,
AFSA25.JPG,AFNE24.JPG,AFSA24.JPG,AFNE21.JPG,AFSA21.JPG,AFNE25.JPG,,,,,0,4,4,2,,,,,,,,,,,,,,,,,,,AFNE11.jpg,AFNE13.jpg,AFSA19.jpg,AFSA05.jpg,AFSA05.jpg,FS,4,num_4,16,num_4,0.966803183896,,,2017_Jun_15_1903,60.006486045,MAFE4ImagesEEG,001,100695,
AFSA21.JPG,AFNE22.JPG,AFNE21.JPG,AFSA23.JPG,AFSA22.JPG,AFNE23.JPG,,,,,0,5,5,0,,,,,,,,,,,,,,,,,,,AFNE06.jpg,AFSA03.jpg,AFNE17.jpg,AFSA19.jpg,AFSA19.jpg,FS,4,num_4,16,num_4,1.01680223772,,,2017_Jun_15_1903,60.006486045,MAFE4ImagesEEG,001,100695,
AMNE22.JPG,AMSA24.JPG,AMSA22.JPG,AMNE25.JPG,AMNE24.JPG,AMSA25.JPG,,,,,0,6,6,7,,,,,,,,,,,,,,,,,,,AFNE19.jpg,AFNE05.jpg,AFSA08.jpg,AFSA20.jpg,AFSA08.jpg,FS,4,num_2,32,num_4,1.58343562228,,,2017_Jun_15_1903,60.006486045,MAFE4ImagesEEG,001,100695,
AMSA21.JPG,AMNE22.JPG,AMNE21.JPG,AMSA23.JPG,AMSA22.JPG,AMNE23.JPG,,,,,0,7,7,1,,,,,,,,,,,,,,,,,,,AFNE13.jpg,AFSA05.jpg,AFSA12.jpg,AFNE06.jpg,AFNE13.jpg,FN,3,num_8,32,num_4,1.26671828423,,,2017_Jun_15_1903,60.006486045,MAFE4ImagesEEG,001,100695,
AFNE22.JPG,AFSA24.JPG,AFSA22.JPG,AFNE25.JPG,AFNE24.JPG,AFSA25.JPG,,,,,0,8,8,6,,,,,,,,,,,,,,,,,,,AFNE11.jpg,AFSA20.jpg,AFNE16.jpg,AFSA07.jpg,AFNE16.jpg,FN,3,num_2,16,num_2,1.78343632806,,,2017_Jun_15_1903,60.006486045,MAFE4ImagesEEG,001,100695,
AMSA25.JPG,AMNE24.JPG,AMSA24.JPG,AMNE26.JPG,AMSA21.JPG,AMNE25.JPG,,,,,0,9,9,3,,,,,,,,,,,,,,,,,,,AFSA12.jpg,AFNE02.jpg,AFNE12.jpg,AFSA16.jpg,AFSA16.jpg,FS,4,num_4,32,num_8,1.30008477136,,,2017_Jun_15_1903,60.006486045,MAFE4ImagesEEG,001,100695,
AMSA21.JPG,AMNE22.JPG,AMNE21.JPG,AMSA23.JPG,AMSA22.JPG,AMNE23.JPG,,,,,,,,,0,0,0,1,,,,,,,,,,,,,,,AMSA15.jpg,AMNE13.jpg,AMSA13.jpg,AMNE05.jpg,AMNE05.jpg,MN,1,num_4,16,num_4,0.983469748986,,,2017_Jun_15_1903,60.006486045,MAFE4ImagesEEG,001,100695,
AFNE22.JPG,AFSA24.JPG,AFSA22.JPG,AFNE25.JPG,AFNE24.JPG,AFSA25.JPG,,,,,,,,,0,1,1,6,,,,,,,,,,,,,,,AMSA05.jpg,AMSA11.jpg,AMNE12.jpg,AMNE01.jpg,AMNE12.jpg,MN,1,num_2,32,num_4,1.76677040441,,,2017_Jun_15_1903,60.006486045,MAFE4ImagesEEG,001,100695,
AMSA21.JPG,AMNE23.JPG,AMNE21.JPG,AMSA25.JPG,AMNE25.JPG,AMSA23.JPG,,,,,,,,,0,2,2,5,,,,,,,,,,,,,,,AMSA04.jpg,AMNE16.jpg,AMNE07.jpg,AMSA18.jpg,AMNE16.jpg,MN,1,num_6,32,num_8,0.966501368443,,,2017_Jun_15_1903,60.006486045,MAFE4ImagesEEG,001,100695,
AFSA21.JPG,AFNE23.JPG,AFNE21.JPG,AFSA25.JPG,AFNE25.JPG,AFSA23.JPG,,,,,,,,,0,3,3,4,,,,,,,,,,,,,,,AMSA20.jpg,AMNE06.jpg,AMNE18.jpg,AMSA11.jpg,AMNE18.jpg,MN,1,num_2,32,num_6,1.3667545598,,,2017_Jun_15_1903,60.006486045,MAFE4ImagesEEG,001,100695,
AMNE23.JPG,AMNE24.JPG,AMNE22.JPG,AMSA24.JPG,AMSA22.JPG,AMSA23.JPG,,,,,,,,,0,4,4,9,,,,,,,,,,,,,,,AMNE09.jpg,AMNE05.jpg,AMSA10.jpg,AMSA07.jpg,AMSA10.jpg,MS,2,num_2,32,num_8,1.01672526042,,,2017_Jun_15_1903,60.006486045,MAFE4ImagesEEG,001,100695,
AFSA25.JPG,AFNE24.JPG,AFSA24.JPG,AFNE21.JPG,AFSA21.JPG,AFNE25.JPG,,,,,,,,,0,5,5,2,,,,,,,,,,,,,,,AMNE02.jpg,AMSA20.jpg,AMNE05.jpg,AMSA15.jpg,AMSA20.jpg,MS,2,num_6,32,num_8,1.31674909126,,,2017_Jun_15_1903,60.006486045,MAFE4ImagesEEG,001,100695,
AMNE22.JPG,AMSA24.JPG,AMSA22.JPG,AMNE25.JPG,AMNE24.JPG,AMSA25.JPG,,,,,,,,,0,6,6,7,,,,,,,,,,,,,,,AMSA01.jpg,AMNE06.jpg,AMNE15.jpg,AMSA20.jpg,AMNE15.jpg,MN,1,num_2,16,num_2,1.25008860417,,,2017_Jun_15_1903,60.006486045,MAFE4ImagesEEG,001,100695,
AFSA21.JPG,AFNE22.JPG,AFNE21.JPG,AFSA23.JPG,AFSA22.JPG,AFNE23.JPG,,,,,,,,,0,7,7,0,,,,,,,,,,,,,,,AMNE03.jpg,AMNE13.jpg,AMSA07.jpg,AMSA12.jpg,AMSA07.jpg,MS,2,num_2,16,num_2,1.08340306731,,,2017_Jun_15_1903,60.006486045,MAFE4ImagesEEG,001,100695,
AFNE23.JPG,AFNE24.JPG,AFNE22.JPG,AFSA24.JPG,AFSA22.JPG,AFSA23.JPG,,,,,,,,,0,8,8,8,,,,,,,,,,,,,,,AMSA18.jpg,AMSA02.jpg,AMNE03.jpg,AMNE04.jpg,AMSA02.jpg,MS,2,num_6,32,num_2,0.866747984663,,,2017_Jun_15_1903,60.006486045,MAFE4ImagesEEG,001,100695,
AMSA25.JPG,AMNE24.JPG,AMSA24.JPG,AMNE26.JPG,AMSA21.JPG,AMNE25.JPG,,,,,,,,,0,9,9,3,,,,,,,,,,,,,,,AMNE04.jpg,AMNE11.jpg,AMSA02.jpg,AMSA01.jpg,AMNE11.jpg,MN,1,num_6,16,num_6,0.866748305387,,,2017_Jun_15_1903,60.006486045,MAFE4ImagesEEG,001,100695,
AMNE22.JPG,AMSA24.JPG,AMSA22.JPG,AMNE25.JPG,AMNE24.JPG,AMSA25.JPG,,,,,,,,,,,,,0,0,0,7,,,,,,,,,,,AFNE01.jpg,AFSA13.jpg,AFSA14.jpg,AFNE05.jpg,AFNE01.jpg,FN,3,num_8,32,num_2,1.33343041036,,,2017_Jun_15_1903,60.006486045,MAFE4ImagesEEG,001,100695,
AFNE23.JPG,AFNE24.JPG,AFNE22.JPG,AFSA24.JPG,AFSA22.JPG,AFSA23.JPG,,,,,,,,,,,,,0,1,1,8,,,,,,,,,,,AFNE10.jpg,AFNE05.jpg,AFSA13.jpg,AFSA03.jpg,AFNE10.jpg,FN,3,num_8,32,num_6,0.933461393695,,,2017_Jun_15_1903,60.006486045,MAFE4ImagesEEG,001,100695,
AFSA21.JPG,AFNE22.JPG,AFNE21.JPG,AFSA23.JPG,AFSA22.JPG,AFNE23.JPG,,,,,,,,,,,,,0,2,2,0,,,,,,,,,,,AFNE19.jpg,AFNE11.jpg,AFSA16.jpg,AFSA02.jpg,AFSA16.jpg,FS,4,num_2,32,num_8,1.65005729999,,,2017_Jun_15_1903,60.006486045,MAFE4ImagesEEG,001,100695,
AFSA25.JPG,AFNE24.JPG,AFSA24.JPG,AFNE21.JPG,AFSA21.JPG,AFNE25.JPG,,,,,,,,,,,,,0,3,3,2,,,,,,,,,,,AFNE06.jpg,AFNE18.jpg,AFSA20.jpg,AFSA19.jpg,AFSA20.jpg,FS,4,num_2,16,num_2,1.11677404481,,,2017_Jun_15_1903,60.006486045,MAFE4ImagesEEG,001,100695,
AMSA21.JPG,AMNE22.JPG,AMNE21.JPG,AMSA23.JPG,AMSA22.JPG,AMNE23.JPG,,,,,,,,,,,,,0,4,4,1,,,,,,,,,,,AFSA14.jpg,AFNE01.jpg,AFNE03.jpg,AFSA09.jpg,AFNE03.jpg,FN,3,num_2,32,num_6,0.783433441422,,,2017_Jun_15_1903,60.006486045,MAFE4ImagesEEG,001,100695,
AMSA25.JPG,AMNE24.JPG,AMSA24.JPG,AMNE26.JPG,AMSA21.JPG,AMNE25.JPG,,,,,,,,,,,,,0,5,5,3,,,,,,,,,,,AFSA17.jpg,AFNE17.jpg,AFNE12.jpg,AFSA11.jpg,AFSA17.jpg,FS,4,num_8,32,num_2,1.10010331008,,,2017_Jun_15_1903,60.006486045,MAFE4ImagesEEG,001,100695,
AMSA21.JPG,AMNE23.JPG,AMNE21.JPG,AMSA25.JPG,AMNE25.JPG,AMSA23.JPG,,,,,,,,,,,,,0,6,6,5,,,,,,,,,,,AFSA01.jpg,AFSA17.jpg,AFNE19.jpg,AFNE18.jpg,AFSA01.jpg,FS,4,num_8,32,num_6,0.966711131856,,,2017_Jun_15_1903,60.006486045,MAFE4ImagesEEG,001,100695,
AMNE23.JPG,AMNE24.JPG,AMNE22.JPG,AMSA24.JPG,AMSA22.JPG,AMSA23.JPG,,,,,,,,,,,,,0,7,7,9,,,,,,,,,,,AFSA10.jpg,AFSA20.jpg,AFNE20.jpg,AFNE06.jpg,AFNE06.jpg,FN,3,num_4,32,num_8,1.10009753681,,,2017_Jun_15_1903,60.006486045,MAFE4ImagesEEG,001,100695,
AFSA21.JPG,AFNE23.JPG,AFNE21.JPG,AFSA25.JPG,AFNE25.JPG,AFSA23.JPG,,,,,,,,,,,,,0,8,8,4,,,,,,,,,,,AFNE08.jpg,AFNE07.jpg,AFSA13.jpg,AFSA20.jpg,AFSA20.jpg,FS,4,num_4,16,num_4,0.833453663974,,,2017_Jun_15_1903,60.006486045,MAFE4ImagesEEG,001,100695,
AFNE22.JPG,AFSA24.JPG,AFSA22.JPG,AFNE25.JPG,AFNE24.JPG,AFSA25.JPG,,,,,,,,,,,,,0,9,9,6,,,,,,,,,,,AFNE11.jpg,AFSA16.jpg,AFNE16.jpg,AFSA04.jpg,AFNE16.jpg,FN,3,num_2,16,num_2,1.38342882262,,,2017_Jun_15_1903,60.006486045,MAFE4ImagesEEG,001,100695,
AFSA25.JPG,AFNE24.JPG,AFSA24.JPG,AFNE21.JPG,AFSA21.JPG,AFNE25.JPG,,,,,,,,,,,,,,,,,0,0,0,2,,,,,,,AMNE19.jpg,AMSA07.jpg,AMSA18.jpg,AMNE18.jpg,AMNE19.jpg,MN,1,num_8,16,num_8,1.21670158987,,,2017_Jun_15_1903,60.006486045,MAFE4ImagesEEG,001,100695,
AFNE22.JPG,AFSA24.JPG,AFSA22.JPG,AFNE25.JPG,AFNE24.JPG,AFSA25.JPG,,,,,,,,,,,,,,,,,0,1,1,6,,,,,,,AMSA11.jpg,AMNE07.jpg,AMSA05.jpg,AMNE09.jpg,AMSA11.jpg,MS,2,num_8,16,num_8,1.11673715978,,,2017_Jun_15_1903,60.006486045,MAFE4ImagesEEG,001,100695,
AFSA21.JPG,AFNE23.JPG,AFNE21.JPG,AFSA25.JPG,AFNE25.JPG,AFSA23.JPG,,,,,,,,,,,,,,,,,0,2,2,4,,,,,,,AMSA17.jpg,AMNE16.jpg,AMNE13.jpg,AMSA04.jpg,AMSA17.jpg,MS,2,num_8,16,num_8,1.30008797871,,,2017_Jun_15_1903,60.006486045,MAFE4ImagesEEG,001,100695,
AFNE23.JPG,AFNE24.JPG,AFNE22.JPG,AFSA24.JPG,AFSA22.JPG,AFSA23.JPG,,,,,,,,,,,,,,,,,0,3,3,8,,,,,,,AMSA16.jpg,AMSA19.jpg,AMNE08.jpg,AMNE15.jpg,AMSA19.jpg,MS,2,num_6,32,num_8,1.20017614996,,,2017_Jun_15_1903,60.006486045,MAFE4ImagesEEG,001,100695,
AFSA21.JPG,AFNE22.JPG,AFNE21.JPG,AFSA23.JPG,AFSA22.JPG,AFNE23.JPG,,,,,,,,,,,,,,,,,0,4,4,0,,,,,,,AMSA14.jpg,AMNE11.jpg,AMSA15.jpg,AMNE12.jpg,AMNE11.jpg,MN,1,num_6,16,num_6,1.28341916844,,,2017_Jun_15_1903,60.006486045,MAFE4ImagesEEG,001,100695,
AMNE23.JPG,AMNE24.JPG,AMNE22.JPG,AMSA24.JPG,AMSA22.JPG,AMSA23.JPG,,,,,,,,,,,,,,,,,0,5,5,9,,,,,,,AMNE04.jpg,AMSA09.jpg,AMSA07.jpg,AMNE17.jpg,AMSA07.jpg,MS,2,num_2,16,num_2,1.08342038724,,,2017_Jun_15_1903,60.006486045,MAFE4ImagesEEG,001,100695,
AMSA21.JPG,AMNE22.JPG,AMNE21.JPG,AMSA23.JPG,AMSA22.JPG,AMNE23.JPG,,,,,,,,,,,,,,,,,0,6,6,1,,,,,,,AMNE10.jpg,AMNE11.jpg,AMSA03.jpg,AMSA15.jpg,AMNE10.jpg,MN,1,num_8,32,num_6,1.21672724898,,,2017_Jun_15_1903,60.006486045,MAFE4ImagesEEG,001,100695,
AMSA25.JPG,AMNE24.JPG,AMSA24.JPG,AMNE26.JPG,AMSA21.JPG,AMNE25.JPG,,,,,,,,,,,,,,,,,0,7,7,3,,,,,,,AMNE15.jpg,AMSA07.jpg,AMSA11.jpg,AMNE07.jpg,AMSA07.jpg,MS,2,num_6,32,num_2,1.08343963162,,,2017_Jun_15_1903,60.006486045,MAFE4ImagesEEG,001,100695,
AMSA21.JPG,AMNE23.JPG,AMNE21.JPG,AMSA25.JPG,AMNE25.JPG,AMSA23.JPG,,,,,,,,,,,,,,,,,0,8,8,5,,,,,,,AMSA11.jpg,AMNE05.jpg,AMSA08.jpg,AMNE01.jpg,AMSA11.jpg,MS,2,num_8,16,num_8,0.900119282887,,,2017_Jun_15_1903,60.006486045,MAFE4ImagesEEG,001,100695,
AMNE22.JPG,AMSA24.JPG,AMSA22.JPG,AMNE25.JPG,AMNE24.JPG,AMSA25.JPG,,,,,,,,,,,,,,,,,0,9,9,7,,,,,,,AMNE08.jpg,AMNE15.jpg,AMSA02.jpg,AMSA05.jpg,AMSA02.jpg,MS,2,num_2,16,num_2,0.766722614295,,,2017_Jun_15_1903,60.006486045,MAFE4ImagesEEG,001,100695,
AMNE23.JPG,AMNE24.JPG,AMNE22.JPG,AMSA24.JPG,AMSA22.JPG,AMSA23.JPG,,,,,,,,,,,,,,,,,,,,,0,0,0,9,,,AFSA14.jpg,AFNE16.jpg,AFSA15.jpg,AFNE05.jpg,AFNE16.jpg,FN,3,num_6,16,num_6,0.933559219236,,,2017_Jun_15_1903,60.006486045,MAFE4ImagesEEG,001,100695,
AMSA25.JPG,AMNE24.JPG,AMSA24.JPG,AMNE26.JPG,AMSA21.JPG,AMNE25.JPG,,,,,,,,,,,,,,,,,,,,,0,1,1,3,,,AFNE12.jpg,AFSA03.jpg,AFSA05.jpg,AFNE13.jpg,AFNE13.jpg,FN,3,num_4,16,num_4,1.20007864514,,,2017_Jun_15_1903,60.006486045,MAFE4ImagesEEG,001,100695,
AFSA25.JPG,AFNE24.JPG,AFSA24.JPG,AFNE21.JPG,AFSA21.JPG,AFNE25.JPG,,,,,,,,,,,,,,,,,,,,,0,2,2,2,,,AFNE17.jpg,AFNE12.jpg,AFSA19.jpg,AFSA02.jpg,AFNE12.jpg,FN,3,num_6,16,num_6,0.650132673793,,,2017_Jun_15_1903,60.006486045,MAFE4ImagesEEG,001,100695,
AFSA21.JPG,AFNE22.JPG,AFNE21.JPG,AFSA23.JPG,AFSA22.JPG,AFNE23.JPG,,,,,,,,,,,,,,,,,,,,,0,3,3,0,,,AFNE18.jpg,AFSA18.jpg,AFSA04.jpg,AFNE10.jpg,AFSA04.jpg,FS,4,num_2,16,num_2,0.816648218897,,,2017_Jun_15_1903,60.006486045,MAFE4ImagesEEG,001,100695,
AFSA21.JPG,AFNE23.JPG,AFNE21.JPG,AFSA25.JPG,AFNE25.JPG,AFSA23.JPG,,,,,,,,,,,,,,,,,,,,,0,4,4,4,,,AFSA04.jpg,AFSA13.jpg,AFNE09.jpg,AFNE19.jpg,AFSA04.jpg,FS,4,num_8,16,num_8,0.816782929236,,,2017_Jun_15_1903,60.006486045,MAFE4ImagesEEG,001,100695,
AMSA21.JPG,AMNE23.JPG,AMNE21.JPG,AMSA25.JPG,AMNE25.JPG,AMSA23.JPG,,,,,,,,,,,,,,,,,,,,,0,5,5,5,,,AFNE04.jpg,AFNE03.jpg,AFSA05.jpg,AFSA02.jpg,AFNE04.jpg,FN,3,num_8,32,num_6,0.633505880251,,,2017_Jun_15_1903,60.006486045,MAFE4ImagesEEG,001,100695,
AFNE22.JPG,AFSA24.JPG,AFSA22.JPG,AFNE25.JPG,AFNE24.JPG,AFSA25.JPG,,,,,,,,,,,,,,,,,,,,,0,6,6,6,,,AFNE16.jpg,AFNE05.jpg,AFSA18.jpg,AFSA10.jpg,AFNE05.jpg,FN,3,num_6,16,num_6,1.23339990806,,,2017_Jun_15_1903,60.006486045,MAFE4ImagesEEG,001,100695,
AMSA21.JPG,AMNE22.JPG,AMNE21.JPG,AMSA23.JPG,AMSA22.JPG,AMNE23.JPG,,,,,,,,,,,,,,,,,,,,,0,7,7,1,,,AFSA06.jpg,AFNE17.jpg,AFSA20.jpg,AFNE10.jpg,AFNE10.jpg,FN,3,num_4,16,num_4,0.866762097226,,,2017_Jun_15_1903,60.006486045,MAFE4ImagesEEG,001,100695,
AMNE22.JPG,AMSA24.JPG,AMSA22.JPG,AMNE25.JPG,AMNE24.JPG,AMSA25.JPG,,,,,,,,,,,,,,,,,,,,,0,8,8,7,,,AFSA16.jpg,AFNE14.jpg,AFNE01.jpg,AFSA20.jpg,AFNE01.jpg,FN,3,num_2,16,num_2,0.833499850356,,,2017_Jun_15_1903,60.006486045,MAFE4ImagesEEG,001,100695,
AFNE23.JPG,AFNE24.JPG,AFNE22.JPG,AFSA24.JPG,AFSA22.JPG,AFSA23.JPG,,,,,,,,,,,,,,,,,,,,,0,9,9,8,,,AFNE11.jpg,AFSA07.jpg,AFNE05.jpg,AFSA05.jpg,AFNE11.jpg,FN,3,num_8,32,num_2,0.916765962145,,,2017_Jun_15_1903,60.006486045,MAFE4ImagesEEG,001,100695,
,,,,,,,,,,,,,,,,,,,,,,,,,,,,,,,,,,,,,,,,,,,space,3.84987101483,2017_Jun_15_1903,60.006486045,MAFE4ImagesEEG,001,100695,
AFNE01.JPG,AFNE01.JPG,AFNE01.JPG,AFNE01.JPG,AFNE01.JPG,AFNE01.JPG,0,0,0,9,,,,,,,,,,,,,,,,,,,,,,,AMSA05.jpg,AMNE06.jpg,AMSA02.jpg,AMNE19.jpg,AMSA05.jpg,MS,2,num_8,32,num_4,1.38341727608,,,2017_Jun_15_1903,60.006486045,MAFE4ImagesEEG,001,100695,
AFNE01.JPG,AFNE01.JPG,AFNE01.JPG,AFNE01.JPG,AFNE01.JPG,AFNE01.JPG,0,1,1,4,,,,,,,,,,,,,,,,,,,,,,,AMNE12.jpg,AMNE08.jpg,AMSA07.jpg,AMSA10.jpg,AMNE12.jpg,MN,1,num_8,32,num_6,0.916791621246,,,2017_Jun_15_1903,60.006486045,MAFE4ImagesEEG,001,100695,
AFNE01.JPG,AFNE01.JPG,AFNE01.JPG,AFNE01.JPG,AFNE01.JPG,AFNE01.JPG,0,2,2,5,,,,,,,,,,,,,,,,,,,,,,,AMNE04.jpg,AMNE15.jpg,AMSA08.jpg,AMSA06.jpg,AMNE15.jpg,MN,1,num_6,16,num_6,0.916743510403,,,2017_Jun_15_1903,60.006486045,MAFE4ImagesEEG,001,100695,
AFNE01.JPG,AFNE01.JPG,AFNE01.JPG,AFNE01.JPG,AFNE01.JPG,AFNE01.JPG,0,3,3,0,,,,,,,,,,,,,,,,,,,,,,,AMSA07.jpg,AMNE01.jpg,AMNE07.jpg,AMSA02.jpg,AMNE01.jpg,MN,1,num_6,32,num_2,0.833466493525,,,2017_Jun_15_1903,60.006486045,MAFE4ImagesEEG,001,100695,
AFNE01.JPG,AFNE01.JPG,AFNE01.JPG,AFNE01.JPG,AFNE01.JPG,AFNE01.JPG,0,4,4,6,,,,,,,,,,,,,,,,,,,,,,,AMSA12.jpg,AMNE17.jpg,AMNE15.jpg,AMSA10.jpg,AMSA10.jpg,MS,2,num_4,16,num_4,1.03343255923,,,2017_Jun_15_1903,60.006486045,MAFE4ImagesEEG,001,100695,
AFNE01.JPG,AFNE01.JPG,AFNE01.JPG,AFNE01.JPG,AFNE01.JPG,AFNE01.JPG,0,5,5,8,,,,,,,,,,,,,,,,,,,,,,,AMNE18.jpg,AMSA12.jpg,AMNE03.jpg,AMSA09.jpg,AMNE03.jpg,MN,1,num_2,32,num_8,1.81667965115,,,2017_Jun_15_1903,60.006486045,MAFE4ImagesEEG,001,100695,
AFNE01.JPG,AFNE01.JPG,AFNE01.JPG,AFNE01.JPG,AFNE01.JPG,AFNE01.JPG,0,6,6,7,,,,,,,,,,,,,,,,,,,,,,,AMSA04.jpg,AMNE03.jpg,AMNE14.jpg,AMSA11.jpg,AMSA11.jpg,MS,2,num_4,16,num_4,0.950157146086,,,2017_Jun_15_1903,60.006486045,MAFE4ImagesEEG,001,100695,
AFNE01.JPG,AFNE01.JPG,AFNE01.JPG,AFNE01.JPG,AFNE01.JPG,AFNE01.JPG,0,7,7,1,,,,,,,,,,,,,,,,,,,,,,,AMNE16.jpg,AMNE14.jpg,AMSA15.jpg,AMSA20.jpg,AMNE14.jpg,MN,1,num_6,16,num_6,0.883521035081,,,2017_Jun_15_1903,60.006486045,MAFE4ImagesEEG,001,100695,
AFNE01.JPG,AFNE01.JPG,AFNE01.JPG,AFNE01.JPG,AFNE01.JPG,AFNE01.JPG,0,8,8,3,,,,,,,,,,,,,,,,,,,,,,,AMNE14.jpg,AMSA19.jpg,AMNE19.jpg,AMSA07.jpg,AMNE19.jpg,MN,1,num_2,16,num_2,1.13345600537,,,2017_Jun_15_1903,60.006486045,MAFE4ImagesEEG,001,100695,
AFNE01.JPG,AFNE01.JPG,AFNE01.JPG,AFNE01.JPG,AFNE01.JPG,AFNE01.JPG,0,9,9,2,,,,,,,,,,,,,,,,,,,,,,,AMSA06.jpg,AMNE06.jpg,AMSA11.jpg,AMNE01.jpg,AMNE06.jpg,MN,1,num_6,16,num_6,1.1000831034,,,2017_Jun_15_1903,60.006486045,MAFE4ImagesEEG,001,100695,
AFNE01.JPG,AFNE01.JPG,AFNE01.JPG,AFNE01.JPG,AFNE01.JPG,AFNE01.JPG,1,0,10,4,,,,,,,,,,,,,,,,,,,,,,,AMNE14.jpg,AMSA06.jpg,AMNE06.jpg,AMSA16.jpg,AMSA06.jpg,MS,2,num_6,16,num_6,0.933498599567,,,2017_Jun_15_1903,60.006486045,MAFE4ImagesEEG,001,100695,
AFNE01.JPG,AFNE01.JPG,AFNE01.JPG,AFNE01.JPG,AFNE01.JPG,AFNE01.JPG,1,1,11,2,,,,,,,,,,,,,,,,,,,,,,,AMNE03.jpg,AMNE01.jpg,AMSA05.jpg,AMSA06.jpg,AMSA05.jpg,MS,2,num_2,16,num_2,0.750149704982,,,2017_Jun_15_1903,60.006486045,MAFE4ImagesEEG,001,100695,
AFNE01.JPG,AFNE01.JPG,AFNE01.JPG,AFNE01.JPG,AFNE01.JPG,AFNE01.JPG,1,2,12,8,,,,,,,,,,,,,,,,,,,,,,,AMNE16.jpg,AMSA06.jpg,AMNE14.jpg,AMSA19.jpg,AMSA19.jpg,MS,2,num_4,16,num_4,0.933457224164,,,2017_Jun_15_1903,60.006486045,MAFE4ImagesEEG,001,100695,
AFNE01.JPG,AFNE01.JPG,AFNE01.JPG,AFNE01.JPG,AFNE01.JPG,AFNE01.JPG,1,3,13,0,,,,,,,,,,,,,,,,,,,,,,,AMNE08.jpg,AMNE17.jpg,AMSA18.jpg,AMSA08.jpg,AMNE17.jpg,MN,1,num_6,32,num_2,0.650169237982,,,2017_Jun_15_1903,60.006486045,MAFE4ImagesEEG,001,100695,
AFNE01.JPG,AFNE01.JPG,AFNE01.JPG,AFNE01.JPG,AFNE01.JPG,AFNE01.JPG,1,4,14,6,,,,,,,,,,,,,,,,,,,,,,,AMNE08.jpg,AMSA20.jpg,AMSA17.jpg,AMNE02.jpg,AMSA20.jpg,MS,2,num_6,16,num_6,1.01672942995,,,2017_Jun_15_1903,60.006486045,MAFE4ImagesEEG,001,100695,
AFNE01.JPG,AFNE01.JPG,AFNE01.JPG,AFNE01.JPG,AFNE01.JPG,AFNE01.JPG,1,5,15,9,,,,,,,,,,,,,,,,,,,,,,,AMSA11.jpg,AMSA08.jpg,AMNE14.jpg,AMNE16.jpg,AMSA08.jpg,MS,2,num_6,16,num_6,0.700128840865,,,2017_Jun_15_1903,60.006486045,MAFE4ImagesEEG,001,100695,
AFNE01.JPG,AFNE01.JPG,AFNE01.JPG,AFNE01.JPG,AFNE01.JPG,AFNE01.JPG,1,6,16,1,,,,,,,,,,,,,,,,,,,,,,,AMSA04.jpg,AMSA10.jpg,AMNE20.jpg,AMNE05.jpg,AMNE20.jpg,MN,1,num_2,16,num_2,1.26673784934,,,2017_Jun_15_1903,60.006486045,MAFE4ImagesEEG,001,100695,
AFNE01.JPG,AFNE01.JPG,AFNE01.JPG,AFNE01.JPG,AFNE01.JPG,AFNE01.JPG,1,7,17,3,,,,,,,,,,,,,,,,,,,,,,,AMNE11.jpg,AMSA10.jpg,AMNE13.jpg,AMSA13.jpg,AMNE13.jpg,MN,1,num_2,32,num_6,0.766777460696,,,2017_Jun_15_1903,60.006486045,MAFE4ImagesEEG,001,100695,
AFNE01.JPG,AFNE01.JPG,AFNE01.JPG,AFNE01.JPG,AFNE01.JPG,AFNE01.JPG,1,8,18,7,,,,,,,,,,,,,,,,,,,,,,,AMNE18.jpg,AMSA07.jpg,AMNE07.jpg,AMSA04.jpg,AMNE07.jpg,MN,1,num_2,16,num_2,1.11664414546,,,2017_Jun_15_1903,60.006486045,MAFE4ImagesEEG,001,100695,
AFNE01.JPG,AFNE01.JPG,AFNE01.JPG,AFNE01.JPG,AFNE01.JPG,AFNE01.JPG,1,9,19,5,,,,,,,,,,,,,,,,,,,,,,,AMNE06.jpg,AMSA16.jpg,AMSA09.jpg,AMNE20.jpg,AMSA09.jpg,MS,2,num_2,32,num_6,0.583731664577,,,2017_Jun_15_1903,60.006486045,MAFE4ImagesEEG,001,100695,
AFNE01.JPG,AFNE01.JPG,AFNE01.JPG,AFNE01.JPG,AFNE01.JPG,AFNE01.JPG,2,0,20,6,,,,,,,,,,,,,,,,,,,,,,,AMNE01.jpg,AMSA05.jpg,AMNE07.jpg,AMSA16.jpg,AMSA16.jpg,MS,2,num_4,16,num_4,0.60010090447,,,2017_Jun_15_1903,60.006486045,MAFE4ImagesEEG,001,100695,
AFNE01.JPG,AFNE01.JPG,AFNE01.JPG,AFNE01.JPG,AFNE01.JPG,AFNE01.JPG,2,1,21,3,,,,,,,,,,,,,,,,,,,,,,,AMSA02.jpg,AMSA13.jpg,AMNE16.jpg,AMNE05.jpg,AMNE05.jpg,MN,1,num_4,16,num_4,0.633484390681,,,2017_Jun_15_1903,60.006486045,MAFE4ImagesEEG,001,100695,
AFNE01.JPG,AFNE01.JPG,AFNE01.JPG,AFNE01.JPG,AFNE01.JPG,AFNE01.JPG,2,2,22,5,,,,,,,,,,,,,,,,,,,,,,,AMSA03.jpg,AMNE15.jpg,AMSA02.jpg,AMNE04.jpg,AMNE15.jpg,MN,1,num_6,16,num_6,0.600130091771,,,2017_Jun_15_1903,60.006486045,MAFE4ImagesEEG,001,100695,
AFNE01.JPG,AFNE01.JPG,AFNE01.JPG,AFNE01.JPG,AFNE01.JPG,AFNE01.JPG,2,3,23,4,,,,,,,,,,,,,,,,,,,,,,,AMNE11.jpg,AMNE18.jpg,AMSA01.jpg,AMSA13.jpg,AMSA01.jpg,MS,2,num_2,32,num_8,1.00014080445,,,2017_Jun_15_1903,60.006486045,MAFE4ImagesEEG,001,100695,
AFNE01.JPG,AFNE01.JPG,AFNE01.JPG,AFNE01.JPG,AFNE01.JPG,AFNE01.JPG,2,4,24,0,,,,,,,,,,,,,,,,,,,,,,,AMNE01.jpg,AMSA18.jpg,AMNE16.jpg,AMSA19.jpg,AMNE01.jpg,MN,1,num_8,32,num_6,0.916788413888,,,2017_Jun_15_1903,60.006486045,MAFE4ImagesEEG,001,100695,
AFNE01.JPG,AFNE01.JPG,AFNE01.JPG,AFNE01.JPG,AFNE01.JPG,AFNE01.JPG,2,5,25,2,,,,,,,,,,,,,,,,,,,,,,,AMNE12.jpg,AMNE18.jpg,AMSA07.jpg,AMSA06.jpg,AMSA07.jpg,MS,2,num_2,16,num_2,0.816786778159,,,2017_Jun_15_1903,60.006486045,MAFE4ImagesEEG,001,100695,
AFNE01.JPG,AFNE01.JPG,AFNE01.JPG,AFNE01.JPG,AFNE01.JPG,AFNE01.JPG,2,6,26,7,,,,,,,,,,,,,,,,,,,,,,,AMSA14.jpg,AMSA10.jpg,AMNE13.jpg,AMNE11.jpg,AMSA10.jpg,MS,2,num_6,16,num_6,0.766771366587,,,2017_Jun_15_1903,60.006486045,MAFE4ImagesEEG,001,100695,
AFNE01.JPG,AFNE01.JPG,AFNE01.JPG,AFNE01.JPG,AFNE01.JPG,AFNE01.JPG,2,7,27,9,,,,,,,,,,,,,,,,,,,,,,,AMNE20.jpg,AMSA15.jpg,AMSA01.jpg,AMNE13.jpg,AMSA15.jpg,MS,2,num_6,16,num_6,0.716754992842,,,2017_Jun_15_1903,60.006486045,MAFE4ImagesEEG,001,100695,
AFNE01.JPG,AFNE01.JPG,AFNE01.JPG,AFNE01.JPG,AFNE01.JPG,AFNE01.JPG,2,8,28,1,,,,,,,,,,,,,,,,,,,,,,,AMNE06.jpg,AMSA09.jpg,AMSA01.jpg,AMNE10.jpg,AMSA09.jpg,MS,2,num_6,16,num_6,0.600153826526,,,2017_Jun_15_1903,60.006486045,MAFE4ImagesEEG,001,100695,
AFNE01.JPG,AFNE01.JPG,AFNE01.JPG,AFNE01.JPG,AFNE01.JPG,AFNE01.JPG,2,9,29,8,,,,,,,,,,,,,,,,,,,,,,,AMSA13.jpg,AMNE13.jpg,AMNE08.jpg,AMSA02.jpg,AMNE08.jpg,MN,1,num_2,32,num_8,1.15009210014,,,2017_Jun_15_1903,60.006486045,MAFE4ImagesEEG,001,100695,
AFNE01.JPG,AFNE01.JPG,AFNE01.JPG,AFNE01.JPG,AFNE01.JPG,AFNE01.JPG,3,0,30,5,,,,,,,,,,,,,,,,,,,,,,,AMNE13.jpg,AMNE12.jpg,AMSA04.jpg,AMSA10.jpg,AMNE13.jpg,MN,1,num_8,32,num_6,0.666823935695,,,2017_Jun_15_1903,60.006486045,MAFE4ImagesEEG,001,100695,
AFNE01.JPG,AFNE01.JPG,AFNE01.JPG,AFNE01.JPG,AFNE01.JPG,AFNE01.JPG,3,1,31,1,,,,,,,,,,,,,,,,,,,,,,,AMSA16.jpg,AMSA09.jpg,AMNE03.jpg,AMNE06.jpg,AMSA16.jpg,MS,2,num_8,32,num_6,0.850146209006,,,2017_Jun_15_1903,60.006486045,MAFE4ImagesEEG,001,100695,
AFNE01.JPG,AFNE01.JPG,AFNE01.JPG,AFNE01.JPG,AFNE01.JPG,AFNE01.JPG,3,2,32,3,,,,,,,,,,,,,,,,,,,,,,,AMNE19.jpg,AMSA03.jpg,AMNE11.jpg,AMSA09.jpg,AMSA03.jpg,MS,2,num_6,16,num_6,0.616764262202,,,2017_Jun_15_1903,60.006486045,MAFE4ImagesEEG,001,100695,
AFNE01.JPG,AFNE01.JPG,AFNE01.JPG,AFNE01.JPG,AFNE01.JPG,AFNE01.JPG,3,3,33,4,,,,,,,,,,,,,,,,,,,,,,,AMSA02.jpg,AMNE11.jpg,AMSA03.jpg,AMNE01.jpg,AMNE11.jpg,MN,1,num_6,16,num_6,0.783460704261,,,2017_Jun_15_1903,60.006486045,MAFE4ImagesEEG,001,100695,
AFNE01.JPG,AFNE01.JPG,AFNE01.JPG,AFNE01.JPG,AFNE01.JPG,AFNE01.JPG,3,4,34,7,,,,,,,,,,,,,,,,,,,,,,,AMNE05.jpg,AMSA07.jpg,AMNE10.jpg,AMSA12.jpg,AMSA07.jpg,MS,2,num_6,32,num_2,0.716764935758,,,2017_Jun_15_1903,60.006486045,MAFE4ImagesEEG,001,100695,
AFNE01.JPG,AFNE01.JPG,AFNE01.JPG,AFNE01.JPG,AFNE01.JPG,AFNE01.JPG,3,5,35,0,,,,,,,,,,,,,,,,,,,,,,,AMNE09.jpg,AMSA15.jpg,AMSA08.jpg,AMNE02.jpg,AMNE02.jpg,MN,1,num_4,16,num_4,1.03351306485,,,2017_Jun_15_1903,60.006486045,MAFE4ImagesEEG,001,100695,
AFNE01.JPG,AFNE01.JPG,AFNE01.JPG,AFNE01.JPG,AFNE01.JPG,AFNE01.JPG,3,6,36,2,,,,,,,,,,,,,,,,,,,,,,,AMNE08.jpg,AMNE16.jpg,AMSA02.jpg,AMSA16.jpg,AMNE08.jpg,MN,1,num_8,32,num_6,0.683312490699,,,2017_Jun_15_1903,60.006486045,MAFE4ImagesEEG,001,100695,
AFNE01.JPG,AFNE01.JPG,AFNE01.JPG,AFNE01.JPG,AFNE01.JPG,AFNE01.JPG,3,7,37,9,,,,,,,,,,,,,,,,,,,,,,,AMNE03.jpg,AMSA15.jpg,AMNE11.jpg,AMSA13.jpg,AMSA13.jpg,MS,2,num_4,16,num_4,1.11675832851,,,2017_Jun_15_1903,60.006486045,MAFE4ImagesEEG,001,100695,
AFNE01.JPG,AFNE01.JPG,AFNE01.JPG,AFNE01.JPG,AFNE01.JPG,AFNE01.JPG,3,8,38,8,,,,,,,,,,,,,,,,,,,,,,,AMSA19.jpg,AMNE01.jpg,AMSA13.jpg,AMNE16.jpg,AMNE16.jpg,MN,1,num_4,16,num_4,0.816628332948,,,2017_Jun_15_1903,60.006486045,MAFE4ImagesEEG,001,100695,
AFNE01.JPG,AFNE01.JPG,AFNE01.JPG,AFNE01.JPG,AFNE01.JPG,AFNE01.JPG,3,9,39,6,,,,,,,,,,,,,,,,,,,,,,,AMSA14.jpg,AMNE19.jpg,AMNE14.jpg,AMSA17.jpg,AMNE14.jpg,MN,1,num_2,32,num_8,1.5334429834,,,2017_Jun_15_1903,60.006486045,MAFE4ImagesEEG,001,100695,
AFNE01.JPG,AFNE01.JPG,AFNE01.JPG,AFNE01.JPG,AFNE01.JPG,AFNE01.JPG,4,0,40,0,,,,,,,,,,,,,,,,,,,,,,,AMNE03.jpg,AMNE07.jpg,AMSA15.jpg,AMSA18.jpg,AMSA18.jpg,MS,2,num_4,16,num_4,0.95014463726,,,2017_Jun_15_1903,60.006486045,MAFE4ImagesEEG,001,100695,
AFNE01.JPG,AFNE01.JPG,AFNE01.JPG,AFNE01.JPG,AFNE01.JPG,AFNE01.JPG,4,1,41,1,,,,,,,,,,,,,,,,,,,,,,,AMSA02.jpg,AMNE06.jpg,AMNE02.jpg,AMSA05.jpg,AMNE02.jpg,MN,1,num_2,32,num_8,0.916768207331,,,2017_Jun_15_1903,60.006486045,MAFE4ImagesEEG,001,100695,
AFNE01.JPG,AFNE01.JPG,AFNE01.JPG,AFNE01.JPG,AFNE01.JPG,AFNE01.JPG,4,2,42,3,,,,,,,,,,,,,,,,,,,,,,,AMNE04.jpg,AMSA19.jpg,AMSA01.jpg,AMNE12.jpg,AMNE12.jpg,MN,1,num_4,32,num_6,1.06676151988,,,2017_Jun_15_1903,60.006486045,MAFE4ImagesEEG,001,100695,
AFNE01.JPG,AFNE01.JPG,AFNE01.JPG,AFNE01.JPG,AFNE01.JPG,AFNE01.JPG,4,3,43,4,,,,,,,,,,,,,,,,,,,,,,,AMNE05.jpg,AMSA07.jpg,AMSA08.jpg,AMNE20.jpg,AMNE05.jpg,MN,1,num_8,16,num_8,1.00015684147,,,2017_Jun_15_1903,60.006486045,MAFE4ImagesEEG,001,100695,
AFNE01.JPG,AFNE01.JPG,AFNE01.JPG,AFNE01.JPG,AFNE01.JPG,AFNE01.JPG,4,4,44,5,,,,,,,,,,,,,,,,,,,,,,,AMSA16.jpg,AMNE14.jpg,AMNE15.jpg,AMSA06.jpg,AMNE14.jpg,MN,1,num_6,32,num_8,1.06689911697,,,2017_Jun_15_1903,60.006486045,MAFE4ImagesEEG,001,100695,
AFNE01.JPG,AFNE01.JPG,AFNE01.JPG,AFNE01.JPG,AFNE01.JPG,AFNE01.JPG,4,5,45,9,,,,,,,,,,,,,,,,,,,,,,,AMSA03.jpg,AMSA05.jpg,AMNE05.jpg,AMNE02.jpg,AMNE05.jpg,MN,1,num_2,16,num_2,0.616753036389,,,2017_Jun_15_1903,60.006486045,MAFE4ImagesEEG,001,100695,
AFNE01.JPG,AFNE01.JPG,AFNE01.JPG,AFNE01.JPG,AFNE01.JPG,AFNE01.JPG,4,6,46,7,,,,,,,,,,,,,,,,,,,,,,,AMNE03.jpg,AMNE18.jpg,AMSA02.jpg,AMSA07.jpg,AMSA02.jpg,MS,2,num_2,16,num_2,1.06674195477,,,2017_Jun_15_1903,60.006486045,MAFE4ImagesEEG,001,100695,
AFNE01.JPG,AFNE01.JPG,AFNE01.JPG,AFNE01.JPG,AFNE01.JPG,AFNE01.JPG,4,7,47,8,,,,,,,,,,,,,,,,,,,,,,,AMSA19.jpg,AMNE06.jpg,AMNE18.jpg,AMSA04.jpg,AMNE06.jpg,MN,1,num_6,32,num_2,1.13343932689,,,2017_Jun_15_1903,60.006486045,MAFE4ImagesEEG,001,100695,
AFNE01.JPG,AFNE01.JPG,AFNE01.JPG,AFNE01.JPG,AFNE01.JPG,AFNE01.JPG,4,8,48,6,,,,,,,,,,,,,,,,,,,,,,,AMNE16.jpg,AMSA19.jpg,AMNE13.jpg,AMSA20.jpg,AMSA20.jpg,MS,2,num_4,16,num_4,0.650114070857,,,2017_Jun_15_1903,60.006486045,MAFE4ImagesEEG,001,100695,
AFNE01.JPG,AFNE01.JPG,AFNE01.JPG,AFNE01.JPG,AFNE01.JPG,AFNE01.JPG,4,9,49,2,,,,,,,,,,,,,,,,,,,,,,,AMNE20.jpg,AMNE14.jpg,AMSA01.jpg,AMSA19.jpg,AMSA01.jpg,MS,2,num_2,32,num_4,0.783484118176,,,2017_Jun_15_1903,60.006486045,MAFE4ImagesEEG,001,100695,
AFNE01.JPG,AFNE01.JPG,AFNE01.JPG,AFNE01.JPG,AFNE01.JPG,AFNE01.JPG,5,0,50,2,,,,,,,,,,,,,,,,,,,,,,,AMNE04.jpg,AMSA18.jpg,AMNE18.jpg,AMSA02.jpg,AMSA02.jpg,MS,2,num_4,16,num_4,1.20010430436,,,2017_Jun_15_1903,60.006486045,MAFE4ImagesEEG,001,100695,
AFNE01.JPG,AFNE01.JPG,AFNE01.JPG,AFNE01.JPG,AFNE01.JPG,AFNE01.JPG,5,1,51,5,,,,,,,,,,,,,,,,,,,,,,,AMNE10.jpg,AMSA04.jpg,AMNE13.jpg,AMSA18.jpg,AMSA18.jpg,MS,2,num_4,16,num_4,0.650146144675,,,2017_Jun_15_1903,60.006486045,MAFE4ImagesEEG,001,100695,
AFNE01.JPG,AFNE01.JPG,AFNE01.JPG,AFNE01.JPG,AFNE01.JPG,AFNE01.JPG,5,2,52,1,,,,,,,,,,,,,,,,,,,,,,,AMSA08.jpg,AMNE05.jpg,AMSA17.jpg,AMNE04.jpg,AMNE05.jpg,MN,1,num_6,32,num_8,1.23368504515,,,2017_Jun_15_1903,60.006486045,MAFE4ImagesEEG,001,100695,
AFNE01.JPG,AFNE01.JPG,AFNE01.JPG,AFNE01.JPG,AFNE01.JPG,AFNE01.JPG,5,3,53,4,,,,,,,,,,,,,,,,,,,,,,,AMNE17.jpg,AMNE12.jpg,AMSA18.jpg,AMSA10.jpg,AMSA10.jpg,MS,2,num_4,32,num_6,1.30005398043,,,2017_Jun_15_1903,60.006486045,MAFE4ImagesEEG,001,100695,
AFNE01.JPG,AFNE01.JPG,AFNE01.JPG,AFNE01.JPG,AFNE01.JPG,AFNE01.JPG,5,4,54,9,,,,,,,,,,,,,,,,,,,,,,,AMSA20.jpg,AMNE08.jpg,AMNE10.jpg,AMSA07.jpg,AMSA20.jpg,MS,2,num_8,16,num_8,1.16672627069,,,2017_Jun_15_1903,60.006486045,MAFE4ImagesEEG,001,100695,
AFNE01.JPG,AFNE01.JPG,AFNE01.JPG,AFNE01.JPG,AFNE01.JPG,AFNE01.JPG,5,5,55,0,,,,,,,,,,,,,,,,,,,,,,,AMSA07.jpg,AMNE09.jpg,AMNE02.jpg,AMSA02.jpg,AMNE02.jpg,MN,1,num_2,16,num_2,0.75008972676,,,2017_Jun_15_1903,60.006486045,MAFE4ImagesEEG,001,100695,
AFNE01.JPG,AFNE01.JPG,AFNE01.JPG,AFNE01.JPG,AFNE01.JPG,AFNE01.JPG,5,6,56,6,,,,,,,,,,,,,,,,,,,,,,,AMNE15.jpg,AMSA20.jpg,AMNE12.jpg,AMSA09.jpg,AMSA20.jpg,MS,2,num_6,32,num_4,0.666768127121,,,2017_Jun_15_1903,60.006486045,MAFE4ImagesEEG,001,100695,
AFNE01.JPG,AFNE01.JPG,AFNE01.JPG,AFNE01.JPG,AFNE01.JPG,AFNE01.JPG,5,7,57,7,,,,,,,,,,,,,,,,,,,,,,,AMNE01.jpg,AMSA13.jpg,AMNE06.jpg,AMSA06.jpg,AMSA13.jpg,MS,2,num_6,32,num_2,1.18340758979,,,2017_Jun_15_1903,60.006486045,MAFE4ImagesEEG,001,100695,
AFNE01.JPG,AFNE01.JPG,AFNE01.JPG,AFNE01.JPG,AFNE01.JPG,AFNE01.JPG,5,8,58,8,,,,,,,,,,,,,,,,,,,,,,,AMNE03.jpg,AMNE14.jpg,AMSA11.jpg,AMSA14.jpg,AMSA11.jpg,MS,2,num_2,16,num_2,0.616830013809,,,2017_Jun_15_1903,60.006486045,MAFE4ImagesEEG,001,100695,
AFNE01.JPG,AFNE01.JPG,AFNE01.JPG,AFNE01.JPG,AFNE01.JPG,AFNE01.JPG,5,9,59,3,,,,,,,,,,,,,,,,,,,,,,,AMSA12.jpg,AMSA14.jpg,AMNE05.jpg,AMNE15.jpg,AMSA12.jpg,MS,2,num_8,16,num_8,1.6000280967,,,2017_Jun_15_1903,60.006486045,MAFE4ImagesEEG,001,100695,
,,,,,,,,,,,,,,,,,,,,,,,,,,,,,,,,,,,,,,,,,,,space,7.23293772305,2017_Jun_15_1903,60.006486045,MAFE4ImagesEEG,001,100695,
AFNE01.JPG,AFNE01.JPG,AFNE01.JPG,AFNE01.JPG,AFNE01.JPG,AFNE01.JPG,,,,,0,0,0,7,,,,,,,,,,,,,,,,,,,AFNE19.jpg,AFSA12.jpg,AFSA19.jpg,AFNE06.jpg,AFSA12.jpg,FS,4,num_6,32,num_4,1.08347587509,,,2017_Jun_15_1903,60.006486045,MAFE4ImagesEEG,001,100695,
AFNE01.JPG,AFNE01.JPG,AFNE01.JPG,AFNE01.JPG,AFNE01.JPG,AFNE01.JPG,,,,,0,1,1,6,,,,,,,,,,,,,,,,,,,AFSA09.jpg,AFSA06.jpg,AFNE01.jpg,AFNE13.jpg,AFSA09.jpg,FS,4,num_8,32,num_6,1.15011551417,,,2017_Jun_15_1903,60.006486045,MAFE4ImagesEEG,001,100695,
AFNE01.JPG,AFNE01.JPG,AFNE01.JPG,AFNE01.JPG,AFNE01.JPG,AFNE01.JPG,,,,,0,2,2,3,,,,,,,,,,,,,,,,,,,AFNE20.jpg,AFNE18.jpg,AFSA17.jpg,AFSA15.jpg,AFNE18.jpg,FN,3,num_6,16,num_6,0.716805990436,,,2017_Jun_15_1903,60.006486045,MAFE4ImagesEEG,001,100695,
AFNE01.JPG,AFNE01.JPG,AFNE01.JPG,AFNE01.JPG,AFNE01.JPG,AFNE01.JPG,,,,,0,3,3,2,,,,,,,,,,,,,,,,,,,AFSA20.jpg,AFSA13.jpg,AFNE19.jpg,AFNE08.jpg,AFSA13.jpg,FS,4,num_6,16,num_6,0.700085861841,,,2017_Jun_15_1903,60.006486045,MAFE4ImagesEEG,001,100695,
AFNE01.JPG,AFNE01.JPG,AFNE01.JPG,AFNE01.JPG,AFNE01.JPG,AFNE01.JPG,,,,,0,4,4,1,,,,,,,,,,,,,,,,,,,AFNE04.jpg,AFSA12.jpg,AFSA16.jpg,AFNE10.jpg,AFNE10.jpg,FN,3,num_4,32,num_2,1.76668252191,,,2017_Jun_15_1903,60.006486045,MAFE4ImagesEEG,001,100695,
AFNE01.JPG,AFNE01.JPG,AFNE01.JPG,AFNE01.JPG,AFNE01.JPG,AFNE01.JPG,,,,,0,5,5,0,,,,,,,,,,,,,,,,,,,AFSA11.jpg,AFNE16.jpg,AFNE13.jpg,AFSA19.jpg,AFSA19.jpg,FS,4,num_4,32,num_8,0.850135945249,,,2017_Jun_15_1903,60.006486045,MAFE4ImagesEEG,001,100695,
AFNE01.JPG,AFNE01.JPG,AFNE01.JPG,AFNE01.JPG,AFNE01.JPG,AFNE01.JPG,,,,,0,6,6,8,,,,,,,,,,,,,,,,,,,AFNE11.jpg,AFNE08.jpg,AFSA13.jpg,AFSA06.jpg,AFSA13.jpg,FS,4,num_2,32,num_8,0.866794491885,,,2017_Jun_15_1903,60.006486045,MAFE4ImagesEEG,001,100695,
AFNE01.JPG,AFNE01.JPG,AFNE01.JPG,AFNE01.JPG,AFNE01.JPG,AFNE01.JPG,,,,,0,7,7,4,,,,,,,,,,,,,,,,,,,AFSA18.jpg,AFNE14.jpg,AFSA15.jpg,AFNE17.jpg,AFSA18.jpg,FS,4,num_8,16,num_8,0.800100006396,,,2017_Jun_15_1903,60.006486045,MAFE4ImagesEEG,001,100695,
AFNE01.JPG,AFNE01.JPG,AFNE01.JPG,AFNE01.JPG,AFNE01.JPG,AFNE01.JPG,,,,,0,8,8,5,,,,,,,,,,,,,,,,,,,AFSA18.jpg,AFSA04.jpg,AFNE13.jpg,AFNE20.jpg,AFSA04.jpg,FS,4,num_6,16,num_6,0.850126643782,,,2017_Jun_15_1903,60.006486045,MAFE4ImagesEEG,001,100695,
AFNE01.JPG,AFNE01.JPG,AFNE01.JPG,AFNE01.JPG,AFNE01.JPG,AFNE01.JPG,,,,,0,9,9,9,,,,,,,,,,,,,,,,,,,AFNE17.jpg,AFSA04.jpg,AFNE20.jpg,AFSA11.jpg,AFNE17.jpg,FN,3,num_8,32,num_4,0.633488560445,,,2017_Jun_15_1903,60.006486045,MAFE4ImagesEEG,001,100695,
AFNE01.JPG,AFNE01.JPG,AFNE01.JPG,AFNE01.JPG,AFNE01.JPG,AFNE01.JPG,,,,,1,0,10,2,,,,,,,,,,,,,,,,,,,AFNE09.jpg,AFSA10.jpg,AFNE07.jpg,AFSA15.jpg,AFNE07.jpg,FN,3,num_2,32,num_6,0.81660139095,,,2017_Jun_15_1903,60.006486045,MAFE4ImagesEEG,001,100695,
AFNE01.JPG,AFNE01.JPG,AFNE01.JPG,AFNE01.JPG,AFNE01.JPG,AFNE01.JPG,,,,,1,1,11,6,,,,,,,,,,,,,,,,,,,AFSA13.jpg,AFSA03.jpg,AFNE19.jpg,AFNE20.jpg,AFSA13.jpg,FS,4,num_8,16,num_8,0.866819830262,,,2017_Jun_15_1903,60.006486045,MAFE4ImagesEEG,001,100695,
AFNE01.JPG,AFNE01.JPG,AFNE01.JPG,AFNE01.JPG,AFNE01.JPG,AFNE01.JPG,,,,,1,2,12,9,,,,,,,,,,,,,,,,,,,AFSA18.jpg,AFSA13.jpg,AFNE13.jpg,AFNE14.jpg,AFSA18.jpg,FS,4,num_8,32,num_6,0.866789360065,,,2017_Jun_15_1903,60.006486045,MAFE4ImagesEEG,001,100695,
AFNE01.JPG,AFNE01.JPG,AFNE01.JPG,AFNE01.JPG,AFNE01.JPG,AFNE01.JPG,,,,,1,3,13,8,,,,,,,,,,,,,,,,,,,AFNE05.jpg,AFSA13.jpg,AFNE13.jpg,AFSA19.jpg,AFSA19.jpg,FS,4,num_4,32,num_6,0.733529005549,,,2017_Jun_15_1903,60.006486045,MAFE4ImagesEEG,001,100695,
AFNE01.JPG,AFNE01.JPG,AFNE01.JPG,AFNE01.JPG,AFNE01.JPG,AFNE01.JPG,,,,,1,4,14,5,,,,,,,,,,,,,,,,,,,AFSA09.jpg,AFNE17.jpg,AFNE09.jpg,AFSA19.jpg,AFNE17.jpg,FN,3,num_6,16,num_6,1.35007901408,,,2017_Jun_15_1903,60.006486045,MAFE4ImagesEEG,001,100695,
AFNE01.JPG,AFNE01.JPG,AFNE01.JPG,AFNE01.JPG,AFNE01.JPG,AFNE01.JPG,,,,,1,5,15,0,,,,,,,,,,,,,,,,,,,AFNE17.jpg,AFSA02.jpg,AFNE13.jpg,AFSA15.jpg,AFNE17.jpg,FN,3,num_8,32,num_6,0.71676076611,,,2017_Jun_15_1903,60.006486045,MAFE4ImagesEEG,001,100695,
AFNE01.JPG,AFNE01.JPG,AFNE01.JPG,AFNE01.JPG,AFNE01.JPG,AFNE01.JPG,,,,,1,6,16,7,,,,,,,,,,,,,,,,,,,AFSA02.jpg,AFNE05.jpg,AFNE10.jpg,AFSA10.jpg,AFSA02.jpg,FS,4,num_8,16,num_8,0.96677431732,,,2017_Jun_15_1903,60.006486045,MAFE4ImagesEEG,001,100695,
AFNE01.JPG,AFNE01.JPG,AFNE01.JPG,AFNE01.JPG,AFNE01.JPG,AFNE01.JPG,,,,,1,7,17,4,,,,,,,,,,,,,,,,,,,AFNE11.jpg,AFNE20.jpg,AFSA13.jpg,AFSA20.jpg,AFNE20.jpg,FN,3,num_6,32,num_8,0.933457544888,,,2017_Jun_15_1903,60.006486045,MAFE4ImagesEEG,001,100695,
AFNE01.JPG,AFNE01.JPG,AFNE01.JPG,AFNE01.JPG,AFNE01.JPG,AFNE01.JPG,,,,,1,8,18,1,,,,,,,,,,,,,,,,,,,AFNE04.jpg,AFSA15.jpg,AFSA16.jpg,AFNE10.jpg,AFNE04.jpg,FN,3,num_8,32,num_4,0.650164426886,,,2017_Jun_15_1903,60.006486045,MAFE4ImagesEEG,001,100695,
AFNE01.JPG,AFNE01.JPG,AFNE01.JPG,AFNE01.JPG,AFNE01.JPG,AFNE01.JPG,,,,,1,9,19,3,,,,,,,,,,,,,,,,,,,AFSA10.jpg,AFSA03.jpg,AFNE02.jpg,AFNE16.jpg,AFNE02.jpg,FN,3,num_2,32,num_4,0.716802141513,,,2017_Jun_15_1903,60.006486045,MAFE4ImagesEEG,001,100695,
AFNE01.JPG,AFNE01.JPG,AFNE01.JPG,AFNE01.JPG,AFNE01.JPG,AFNE01.JPG,,,,,2,0,20,3,,,,,,,,,,,,,,,,,,,AFNE17.jpg,AFSA01.jpg,AFNE06.jpg,AFSA15.jpg,AFNE06.jpg,FN,3,num_2,16,num_2,0.900139489444,,,2017_Jun_15_1903,60.006486045,MAFE4ImagesEEG,001,100695,
AFNE01.JPG,AFNE01.JPG,AFNE01.JPG,AFNE01.JPG,AFNE01.JPG,AFNE01.JPG,,,,,2,1,21,7,,,,,,,,,,,,,,,,,,,AFSA18.jpg,AFSA17.jpg,AFNE10.jpg,AFNE04.jpg,AFSA18.jpg,FS,4,num_8,32,num_6,0.800106100505,,,2017_Jun_15_1903,60.006486045,MAFE4ImagesEEG,001,100695,
AFNE01.JPG,AFNE01.JPG,AFNE01.JPG,AFNE01.JPG,AFNE01.JPG,AFNE01.JPG,,,,,2,2,22,4,,,,,,,,,,,,,,,,,,,AFNE03.jpg,AFSA05.jpg,AFSA03.jpg,AFNE02.jpg,AFSA03.jpg,FS,4,num_2,32,num_4,0.999950926984,,,2017_Jun_15_1903,60.006486045,MAFE4ImagesEEG,001,100695,
AFNE01.JPG,AFNE01.JPG,AFNE01.JPG,AFNE01.JPG,AFNE01.JPG,AFNE01.JPG,,,,,2,3,23,1,,,,,,,,,,,,,,,,,,,AFSA14.jpg,AFSA04.jpg,AFNE09.jpg,AFNE14.jpg,AFNE09.jpg,FN,3,num_2,32,num_4,1.51669495052,,,2017_Jun_15_1903,60.006486045,MAFE4ImagesEEG,001,100695,
AFNE01.JPG,AFNE01.JPG,AFNE01.JPG,AFNE01.JPG,AFNE01.JPG,AFNE01.JPG,,,,,2,4,24,8,,,,,,,,,,,,,,,,,,,AFSA04.jpg,AFNE07.jpg,AFNE15.jpg,AFSA07.jpg,AFNE07.jpg,FN,3,num_6,32,num_8,0.700242703315,,,2017_Jun_15_1903,60.006486045,MAFE4ImagesEEG,001,100695,
AFNE01.JPG,AFNE01.JPG,AFNE01.JPG,AFNE01.JPG,AFNE01.JPG,AFNE01.JPG,,,,,2,5,25,5,,,,,,,,,,,,,,,,,,,AFSA07.jpg,AFSA16.jpg,AFNE03.jpg,AFNE09.jpg,AFNE09.jpg,FN,3,num_4,32,num_2,0.350181009155,,,2017_Jun_15_1903,60.006486045,MAFE4ImagesEEG,001,100695,
AFNE01.JPG,AFNE01.JPG,AFNE01.JPG,AFNE01.JPG,AFNE01.JPG,AFNE01.JPG,,,,,2,6,26,0,,,,,,,,,,,,,,,,,,,AFSA17.jpg,AFNE05.jpg,AFNE01.jpg,AFSA12.jpg,AFSA17.jpg,FS,4,num_8,32,num_2,0.933483204106,,,2017_Jun_15_1903,60.006486045,MAFE4ImagesEEG,001,100695,
AFNE01.JPG,AFNE01.JPG,AFNE01.JPG,AFNE01.JPG,AFNE01.JPG,AFNE01.JPG,,,,,2,7,27,6,,,,,,,,,,,,,,,,,,,AFNE11.jpg,AFSA20.jpg,AFSA17.jpg,AFNE14.jpg,AFNE14.jpg,FN,3,num_4,16,num_4,0.900310122641,,,2017_Jun_15_1903,60.006486045,MAFE4ImagesEEG,001,100695,
AFNE01.JPG,AFNE01.JPG,AFNE01.JPG,AFNE01.JPG,AFNE01.JPG,AFNE01.JPG,,,,,2,8,28,2,,,,,,,,,,,,,,,,,,,AFSA11.jpg,AFSA16.jpg,AFNE06.jpg,AFNE20.jpg,AFSA16.jpg,FS,4,num_6,32,num_8,0.883476131712,,,2017_Jun_15_1903,60.006486045,MAFE4ImagesEEG,001,100695,
AFNE01.JPG,AFNE01.JPG,AFNE01.JPG,AFNE01.JPG,AFNE01.JPG,AFNE01.JPG,,,,,2,9,29,9,,,,,,,,,,,,,,,,,,,AFSA07.jpg,AFNE12.jpg,AFNE05.jpg,AFSA17.jpg,AFNE12.jpg,FN,3,num_6,16,num_6,0.950125713716,,,2017_Jun_15_1903,60.006486045,MAFE4ImagesEEG,001,100695,
AFNE01.JPG,AFNE01.JPG,AFNE01.JPG,AFNE01.JPG,AFNE01.JPG,AFNE01.JPG,,,,,3,0,30,9,,,,,,,,,,,,,,,,,,,AFNE10.jpg,AFNE06.jpg,AFSA11.jpg,AFSA03.jpg,AFSA03.jpg,FS,4,num_4,32,num_8,0.816743478295,,,2017_Jun_15_1903,60.006486045,MAFE4ImagesEEG,001,100695,
AFNE01.JPG,AFNE01.JPG,AFNE01.JPG,AFNE01.JPG,AFNE01.JPG,AFNE01.JPG,,,,,3,1,31,7,,,,,,,,,,,,,,,,,,,AFSA07.jpg,AFNE01.jpg,AFNE07.jpg,AFSA17.jpg,AFSA07.jpg,FS,4,num_8,32,num_2,1.81653980899,,,2017_Jun_15_1903,60.006486045,MAFE4ImagesEEG,001,100695,
AFNE01.JPG,AFNE01.JPG,AFNE01.JPG,AFNE01.JPG,AFNE01.JPG,AFNE01.JPG,,,,,3,2,32,4,,,,,,,,,,,,,,,,,,,AFNE18.jpg,AFSA16.jpg,AFSA03.jpg,AFNE19.jpg,AFSA16.jpg,FS,4,num_6,16,num_6,0.566742756753,,,2017_Jun_15_1903,60.006486045,MAFE4ImagesEEG,001,100695,
AFNE01.JPG,AFNE01.JPG,AFNE01.JPG,AFNE01.JPG,AFNE01.JPG,AFNE01.JPG,,,,,3,3,33,5,,,,,,,,,,,,,,,,,,,AFSA18.jpg,AFNE14.jpg,AFSA07.jpg,AFNE16.jpg,AFSA07.jpg,FS,4,num_2,32,num_8,1.11644753232,,,2017_Jun_15_1903,60.006486045,MAFE4ImagesEEG,001,100695,
AFNE01.JPG,AFNE01.JPG,AFNE01.JPG,AFNE01.JPG,AFNE01.JPG,AFNE01.JPG,,,,,3,4,34,8,,,,,,,,,,,,,,,,,,,AFNE14.jpg,AFNE19.jpg,AFSA19.jpg,AFSA11.jpg,AFSA11.jpg,FS,4,num_4,32,num_2,0.833460078691,,,2017_Jun_15_1903,60.006486045,MAFE4ImagesEEG,001,100695,
AFNE01.JPG,AFNE01.JPG,AFNE01.JPG,AFNE01.JPG,AFNE01.JPG,AFNE01.JPG,,,,,3,5,35,6,,,,,,,,,,,,,,,,,,,AFSA11.jpg,AFSA18.jpg,AFNE16.jpg,AFNE09.jpg,AFNE16.jpg,FN,3,num_2,16,num_2,0.900159375276,,,2017_Jun_15_1903,60.006486045,MAFE4ImagesEEG,001,100695,
AFNE01.JPG,AFNE01.JPG,AFNE01.JPG,AFNE01.JPG,AFNE01.JPG,AFNE01.JPG,,,,,3,6,36,1,,,,,,,,,,,,,,,,,,,AFSA16.jpg,AFSA01.jpg,AFNE01.jpg,AFNE07.jpg,AFNE07.jpg,FN,3,num_4,16,num_4,0.916745434864,,,2017_Jun_15_1903,60.006486045,MAFE4ImagesEEG,001,100695,
AFNE01.JPG,AFNE01.JPG,AFNE01.JPG,AFNE01.JPG,AFNE01.JPG,AFNE01.JPG,,,,,3,7,37,0,,,,,,,,,,,,,,,,,,,AFNE04.jpg,AFNE19.jpg,AFSA05.jpg,AFSA16.jpg,AFNE19.jpg,FN,3,num_6,16,num_6,1.01678267273,,,2017_Jun_15_1903,60.006486045,MAFE4ImagesEEG,001,100695,
AFNE01.JPG,AFNE01.JPG,AFNE01.JPG,AFNE01.JPG,AFNE01.JPG,AFNE01.JPG,,,,,3,8,38,3,,,,,,,,,,,,,,,,,,,AFNE09.jpg,AFSA13.jpg,AFSA10.jpg,AFNE04.jpg,AFSA13.jpg,FS,4,num_6,16,num_6,0.733471913962,,,2017_Jun_15_1903,60.006486045,MAFE4ImagesEEG,001,100695,
AFNE01.JPG,AFNE01.JPG,AFNE01.JPG,AFNE01.JPG,AFNE01.JPG,AFNE01.JPG,,,,,3,9,39,2,,,,,,,,,,,,,,,,,,,AFSA11.jpg,AFNE10.jpg,AFSA01.jpg,AFNE11.jpg,AFNE11.jpg,FN,3,num_4,32,num_2,0.850099060219,,,2017_Jun_15_1903,60.006486045,MAFE4ImagesEEG,001,100695,
AFNE01.JPG,AFNE01.JPG,AFNE01.JPG,AFNE01.JPG,AFNE01.JPG,AFNE01.JPG,,,,,4,0,40,0,,,,,,,,,,,,,,,,,,,AFSA05.jpg,AFNE12.jpg,AFSA03.jpg,AFNE01.jpg,AFSA05.jpg,FS,4,num_8,32,num_2,1.28339254705,,,2017_Jun_15_1903,60.006486045,MAFE4ImagesEEG,001,100695,
AFNE01.JPG,AFNE01.JPG,AFNE01.JPG,AFNE01.JPG,AFNE01.JPG,AFNE01.JPG,,,,,4,1,41,1,,,,,,,,,,,,,,,,,,,AFSA19.jpg,AFNE02.jpg,AFNE04.jpg,AFSA20.jpg,AFNE04.jpg,FN,3,num_2,32,num_8,1.61668407742,,,2017_Jun_15_1903,60.006486045,MAFE4ImagesEEG,001,100695,
AFNE01.JPG,AFNE01.JPG,AFNE01.JPG,AFNE01.JPG,AFNE01.JPG,AFNE01.JPG,,,,,4,2,42,2,,,,,,,,,,,,,,,,,,,AFSA05.jpg,AFNE05.jpg,AFSA10.jpg,AFNE06.jpg,AFSA10.jpg,FS,4,num_2,32,num_4,0.76680664788,,,2017_Jun_15_1903,60.006486045,MAFE4ImagesEEG,001,100695,
AFNE01.JPG,AFNE01.JPG,AFNE01.JPG,AFNE01.JPG,AFNE01.JPG,AFNE01.JPG,,,,,4,3,43,9,,,,,,,,,,,,,,,,,,,AFSA20.jpg,AFNE04.jpg,AFSA03.jpg,AFNE13.jpg,AFNE04.jpg,FN,3,num_6,16,num_6,0.716786746052,,,2017_Jun_15_1903,60.006486045,MAFE4ImagesEEG,001,100695,
AFNE01.JPG,AFNE01.JPG,AFNE01.JPG,AFNE01.JPG,AFNE01.JPG,AFNE01.JPG,,,,,4,4,44,7,,,,,,,,,,,,,,,,,,,AFNE05.jpg,AFSA04.jpg,AFNE15.jpg,AFSA20.jpg,AFSA20.jpg,FS,4,num_4,16,num_4,1.08310574223,,,2017_Jun_15_1903,60.006486045,MAFE4ImagesEEG,001,100695,
AFNE01.JPG,AFNE01.JPG,AFNE01.JPG,AFNE01.JPG,AFNE01.JPG,AFNE01.JPG,,,,,4,5,45,3,,,,,,,,,,,,,,,,,,,AFSA06.jpg,AFSA14.jpg,AFNE15.jpg,AFNE16.jpg,AFSA14.jpg,FS,4,num_6,32,num_8,0.883425134234,,,2017_Jun_15_1903,60.006486045,MAFE4ImagesEEG,001,100695,
AFNE01.JPG,AFNE01.JPG,AFNE01.JPG,AFNE01.JPG,AFNE01.JPG,AFNE01.JPG,,,,,4,6,46,6,,,,,,,,,,,,,,,,,,,AFNE01.jpg,AFSA11.jpg,AFNE13.jpg,AFSA18.jpg,AFSA11.jpg,FS,4,num_6,32,num_8,1.20007736224,,,2017_Jun_15_1903,60.006486045,MAFE4ImagesEEG,001,100695,
AFNE01.JPG,AFNE01.JPG,AFNE01.JPG,AFNE01.JPG,AFNE01.JPG,AFNE01.JPG,,,,,4,7,47,5,,,,,,,,,,,,,,,,,,,AFSA09.jpg,AFNE13.jpg,AFNE04.jpg,AFSA19.jpg,AFNE13.jpg,FN,3,num_6,16,num_6,0.933431565063,,,2017_Jun_15_1903,60.006486045,MAFE4ImagesEEG,001,100695,
AFNE01.JPG,AFNE01.JPG,AFNE01.JPG,AFNE01.JPG,AFNE01.JPG,AFNE01.JPG,,,,,4,8,48,8,,,,,,,,,,,,,,,,,,,AFNE08.jpg,AFSA05.jpg,AFNE03.jpg,AFSA07.jpg,AFNE03.jpg,FN,3,num_2,16,num_2,1.86665785697,,,2017_Jun_15_1903,60.006486045,MAFE4ImagesEEG,001,100695,
AFNE01.JPG,AFNE01.JPG,AFNE01.JPG,AFNE01.JPG,AFNE01.JPG,AFNE01.JPG,,,,,4,9,49,4,,,,,,,,,,,,,,,,,,,AFSA17.jpg,AFSA14.jpg,AFNE12.jpg,AFNE08.jpg,AFSA17.jpg,FS,4,num_8,32,num_6,0.916749283788,,,2017_Jun_15_1903,60.006486045,MAFE4ImagesEEG,001,100695,
AFNE01.JPG,AFNE01.JPG,AFNE01.JPG,AFNE01.JPG,AFNE01.JPG,AFNE01.JPG,,,,,5,0,50,9,,,,,,,,,,,,,,,,,,,AFNE10.jpg,AFSA11.jpg,AFSA02.jpg,AFNE17.jpg,AFSA11.jpg,FS,4,num_6,16,num_6,0.600108602317,,,2017_Jun_15_1903,60.006486045,MAFE4ImagesEEG,001,100695,
AFNE01.JPG,AFNE01.JPG,AFNE01.JPG,AFNE01.JPG,AFNE01.JPG,AFNE01.JPG,,,,,5,1,51,8,,,,,,,,,,,,,,,,,,,AFSA16.jpg,AFSA02.jpg,AFNE06.jpg,AFNE09.jpg,AFSA02.jpg,FS,4,num_6,16,num_6,0.666771976044,,,2017_Jun_15_1903,60.006486045,MAFE4ImagesEEG,001,100695,
AFNE01.JPG,AFNE01.JPG,AFNE01.JPG,AFNE01.JPG,AFNE01.JPG,AFNE01.JPG,,,,,5,2,52,3,,,,,,,,,,,,,,,,,,,AFSA06.jpg,AFNE07.jpg,AFSA03.jpg,AFNE06.jpg,AFNE07.jpg,FN,3,num_6,16,num_6,0.700122426148,,,2017_Jun_15_1903,60.006486045,MAFE4ImagesEEG,001,100695,
AFNE01.JPG,AFNE01.JPG,AFNE01.JPG,AFNE01.JPG,AFNE01.JPG,AFNE01.JPG,,,,,5,3,53,0,,,,,,,,,,,,,,,,,,,AFSA02.jpg,AFNE06.jpg,AFSA08.jpg,AFNE19.jpg,AFNE06.jpg,FN,3,num_6,32,num_8,1.28339254716,,,2017_Jun_15_1903,60.006486045,MAFE4ImagesEEG,001,100695,
AFNE01.JPG,AFNE01.JPG,AFNE01.JPG,AFNE01.JPG,AFNE01.JPG,AFNE01.JPG,,,,,5,4,54,4,,,,,,,,,,,,,,,,,,,AFNE20.jpg,AFSA11.jpg,AFSA15.jpg,AFNE14.jpg,AFSA11.jpg,FS,4,num_6,16,num_6,0.500169831328,,,2017_Jun_15_1903,60.006486045,MAFE4ImagesEEG,001,100695,
AFNE01.JPG,AFNE01.JPG,AFNE01.JPG,AFNE01.JPG,AFNE01.JPG,AFNE01.JPG,,,,,5,5,55,1,,,,,,,,,,,,,,,,,,,AFSA09.jpg,AFNE14.jpg,AFNE09.jpg,AFSA07.jpg,AFSA09.jpg,FS,4,num_8,32,num_2,1.01673488249,,,2017_Jun_15_1903,60.006486045,MAFE4ImagesEEG,001,100695,
AFNE01.JPG,AFNE01.JPG,AFNE01.JPG,AFNE01.JPG,AFNE01.JPG,AFNE01.JPG,,,,,5,6,56,6,,,,,,,,,,,,,,,,,,,AFNE02.jpg,AFSA19.jpg,AFSA20.jpg,AFNE03.jpg,AFNE03.jpg,FN,3,num_4,16,num_4,0.966781694442,,,2017_Jun_15_1903,60.006486045,MAFE4ImagesEEG,001,100695,
AFNE01.JPG,AFNE01.JPG,AFNE01.JPG,AFNE01.JPG,AFNE01.JPG,AFNE01.JPG,,,,,5,7,57,2,,,,,,,,,,,,,,,,,,,AFSA18.jpg,AFSA13.jpg,AFNE03.jpg,AFNE02.jpg,AFSA13.jpg,FS,4,num_6,32,num_2,0.800107383518,,,2017_Jun_15_1903,60.006486045,MAFE4ImagesEEG,001,100695,
AFNE01.JPG,AFNE01.JPG,AFNE01.JPG,AFNE01.JPG,AFNE01.JPG,AFNE01.JPG,,,,,5,8,58,5,,,,,,,,,,,,,,,,,,,AFNE18.jpg,AFSA10.jpg,AFNE20.jpg,AFSA15.jpg,AFNE20.jpg,FN,3,num_2,32,num_6,0.833465210628,,,2017_Jun_15_1903,60.006486045,MAFE4ImagesEEG,001,100695,
AFNE01.JPG,AFNE01.JPG,AFNE01.JPG,AFNE01.JPG,AFNE01.JPG,AFNE01.JPG,,,,,5,9,59,7,,,,,,,,,,,,,,,,,,,AFSA10.jpg,AFNE03.jpg,AFNE01.jpg,AFSA15.jpg,AFNE03.jpg,FN,3,num_6,16,num_6,0.900094265235,,,2017_Jun_15_1903,60.006486045,MAFE4ImagesEEG,001,100695,
,,,,,,,,,,,,,,,,,,,,,,,,,,,,,,,,,,,,,,,,,,,space,15.3155835255,2017_Jun_15_1903,60.006486045,MAFE4ImagesEEG,001,100695,
AFNE01.JPG,AFNE01.JPG,AFNE01.JPG,AFNE01.JPG,AFNE01.JPG,AFNE01.JPG,,,,,,,,,0,0,0,9,,,,,,,,,,,,,,,AMNE16.jpg,AMSA08.jpg,AMSA18.jpg,AMNE08.jpg,AMSA18.jpg,MS,2,num_2,16,num_2,1.1167471027,,,2017_Jun_15_1903,60.006486045,MAFE4ImagesEEG,001,100695,
AFNE01.JPG,AFNE01.JPG,AFNE01.JPG,AFNE01.JPG,AFNE01.JPG,AFNE01.JPG,,,,,,,,,0,1,1,5,,,,,,,,,,,,,,,AMSA07.jpg,AMNE10.jpg,AMNE01.jpg,AMSA16.jpg,AMSA07.jpg,MS,2,num_8,32,num_6,0.816747006495,,,2017_Jun_15_1903,60.006486045,MAFE4ImagesEEG,001,100695,
AFNE01.JPG,AFNE01.JPG,AFNE01.JPG,AFNE01.JPG,AFNE01.JPG,AFNE01.JPG,,,,,,,,,0,2,2,6,,,,,,,,,,,,,,,AMSA20.jpg,AMSA04.jpg,AMNE04.jpg,AMNE02.jpg,AMNE04.jpg,MN,1,num_2,32,num_4,1.13343066699,,,2017_Jun_15_1903,60.006486045,MAFE4ImagesEEG,001,100695,
AFNE01.JPG,AFNE01.JPG,AFNE01.JPG,AFNE01.JPG,AFNE01.JPG,AFNE01.JPG,,,,,,,,,0,3,3,2,,,,,,,,,,,,,,,AMNE05.jpg,AMSA01.jpg,AMSA15.jpg,AMNE03.jpg,AMNE05.jpg,MN,1,num_8,16,num_8,0.983367112582,,,2017_Jun_15_1903,60.006486045,MAFE4ImagesEEG,001,100695,
AFNE01.JPG,AFNE01.JPG,AFNE01.JPG,AFNE01.JPG,AFNE01.JPG,AFNE01.JPG,,,,,,,,,0,4,4,8,,,,,,,,,,,,,,,AMSA17.jpg,AMNE05.jpg,AMSA14.jpg,AMNE09.jpg,AMSA14.jpg,MS,2,num_2,16,num_2,0.966761487769,,,2017_Jun_15_1903,60.006486045,MAFE4ImagesEEG,001,100695,
AFNE01.JPG,AFNE01.JPG,AFNE01.JPG,AFNE01.JPG,AFNE01.JPG,AFNE01.JPG,,,,,,,,,0,5,5,4,,,,,,,,,,,,,,,AMNE09.jpg,AMSA01.jpg,AMNE15.jpg,AMSA08.jpg,AMSA08.jpg,MS,2,num_4,16,num_4,1.08343129244,,,2017_Jun_15_1903,60.006486045,MAFE4ImagesEEG,001,100695,
AFNE01.JPG,AFNE01.JPG,AFNE01.JPG,AFNE01.JPG,AFNE01.JPG,AFNE01.JPG,,,,,,,,,0,6,6,1,,,,,,,,,,,,,,,AMSA19.jpg,AMNE05.jpg,AMSA18.jpg,AMNE01.jpg,AMSA19.jpg,MS,2,num_8,16,num_8,0.916709512123,,,2017_Jun_15_1903,60.006486045,MAFE4ImagesEEG,001,100695,
AFNE01.JPG,AFNE01.JPG,AFNE01.JPG,AFNE01.JPG,AFNE01.JPG,AFNE01.JPG,,,,,,,,,0,7,7,7,,,,,,,,,,,,,,,AMSA06.jpg,AMNE04.jpg,AMNE07.jpg,AMSA13.jpg,AMSA06.jpg,MS,2,num_8,32,num_2,1.41673180345,,,2017_Jun_15_1903,60.006486045,MAFE4ImagesEEG,001,100695,
AFNE01.JPG,AFNE01.JPG,AFNE01.JPG,AFNE01.JPG,AFNE01.JPG,AFNE01.JPG,,,,,,,,,0,8,8,0,,,,,,,,,,,,,,,AMNE02.jpg,AMSA03.jpg,AMNE12.jpg,AMSA07.jpg,AMNE12.jpg,MN,1,num_2,16,num_2,0.766861173557,,,2017_Jun_15_1903,60.006486045,MAFE4ImagesEEG,001,100695,
AFNE01.JPG,AFNE01.JPG,AFNE01.JPG,AFNE01.JPG,AFNE01.JPG,AFNE01.JPG,,,,,,,,,0,9,9,3,,,,,,,,,,,,,,,AMNE13.jpg,AMNE20.jpg,AMSA10.jpg,AMSA16.jpg,AMSA10.jpg,MS,2,num_2,16,num_2,0.68351006601,,,2017_Jun_15_1903,60.006486045,MAFE4ImagesEEG,001,100695,
AFNE01.JPG,AFNE01.JPG,AFNE01.JPG,AFNE01.JPG,AFNE01.JPG,AFNE01.JPG,,,,,,,,,1,0,10,1,,,,,,,,,,,,,,,AMSA05.jpg,AMSA10.jpg,AMNE14.jpg,AMNE02.jpg,AMNE14.jpg,MN,1,num_2,16,num_2,0.766974073718,,,2017_Jun_15_1903,60.006486045,MAFE4ImagesEEG,001,100695,
AFNE01.JPG,AFNE01.JPG,AFNE01.JPG,AFNE01.JPG,AFNE01.JPG,AFNE01.JPG,,,,,,,,,1,1,11,3,,,,,,,,,,,,,,,AMSA09.jpg,AMNE18.jpg,AMNE13.jpg,AMSA11.jpg,AMNE13.jpg,MN,1,num_2,16,num_2,0.866754078772,,,2017_Jun_15_1903,60.006486045,MAFE4ImagesEEG,001,100695,
AFNE01.JPG,AFNE01.JPG,AFNE01.JPG,AFNE01.JPG,AFNE01.JPG,AFNE01.JPG,,,,,,,,,1,2,12,6,,,,,,,,,,,,,,,AMNE16.jpg,AMSA17.jpg,AMSA12.jpg,AMNE20.jpg,AMSA12.jpg,MS,2,num_2,16,num_2,1.38342882274,,,2017_Jun_15_1903,60.006486045,MAFE4ImagesEEG,001,100695,
AFNE01.JPG,AFNE01.JPG,AFNE01.JPG,AFNE01.JPG,AFNE01.JPG,AFNE01.JPG,,,,,,,,,1,3,13,0,,,,,,,,,,,,,,,AMSA08.jpg,AMSA18.jpg,AMNE05.jpg,AMNE09.jpg,AMSA18.jpg,MS,2,num_6,16,num_6,0.633465467137,,,2017_Jun_15_1903,60.006486045,MAFE4ImagesEEG,001,100695,
AFNE01.JPG,AFNE01.JPG,AFNE01.JPG,AFNE01.JPG,AFNE01.JPG,AFNE01.JPG,,,,,,,,,1,4,14,7,,,,,,,,,,,,,,,AMSA08.jpg,AMSA05.jpg,AMNE07.jpg,AMNE18.jpg,AMNE07.jpg,MN,1,num_2,16,num_2,0.683164629969,,,2017_Jun_15_1903,60.006486045,MAFE4ImagesEEG,001,100695,
AFNE01.JPG,AFNE01.JPG,AFNE01.JPG,AFNE01.JPG,AFNE01.JPG,AFNE01.JPG,,,,,,,,,1,5,15,5,,,,,,,,,,,,,,,AMSA01.jpg,AMNE17.jpg,AMSA04.jpg,AMNE02.jpg,AMSA04.jpg,MS,2,num_2,32,num_4,0.916816318175,,,2017_Jun_15_1903,60.006486045,MAFE4ImagesEEG,001,100695,
AFNE01.JPG,AFNE01.JPG,AFNE01.JPG,AFNE01.JPG,AFNE01.JPG,AFNE01.JPG,,,,,,,,,1,6,16,8,,,,,,,,,,,,,,,AMNE12.jpg,AMSA12.jpg,AMNE07.jpg,AMSA15.jpg,AMNE07.jpg,MN,1,num_2,16,num_2,1.50007938291,,,2017_Jun_15_1903,60.006486045,MAFE4ImagesEEG,001,100695,
AFNE01.JPG,AFNE01.JPG,AFNE01.JPG,AFNE01.JPG,AFNE01.JPG,AFNE01.JPG,,,,,,,,,1,7,17,4,,,,,,,,,,,,,,,AMSA10.jpg,AMSA16.jpg,AMNE18.jpg,AMNE19.jpg,AMSA16.jpg,MS,2,num_6,32,num_4,0.766803119681,,,2017_Jun_15_1903,60.006486045,MAFE4ImagesEEG,001,100695,
AFNE01.JPG,AFNE01.JPG,AFNE01.JPG,AFNE01.JPG,AFNE01.JPG,AFNE01.JPG,,,,,,,,,1,8,18,9,,,,,,,,,,,,,,,AMSA03.jpg,AMNE06.jpg,AMNE04.jpg,AMSA05.jpg,AMNE06.jpg,MN,1,num_6,32,num_4,0.916720737936,,,2017_Jun_15_1903,60.006486045,MAFE4ImagesEEG,001,100695,
AFNE01.JPG,AFNE01.JPG,AFNE01.JPG,AFNE01.JPG,AFNE01.JPG,AFNE01.JPG,,,,,,,,,1,9,19,2,,,,,,,,,,,,,,,AMNE14.jpg,AMSA17.jpg,AMSA08.jpg,AMNE12.jpg,AMNE12.jpg,MN,1,num_4,16,num_4,0.800142343971,,,2017_Jun_15_1903,60.006486045,MAFE4ImagesEEG,001,100695,
AFNE01.JPG,AFNE01.JPG,AFNE01.JPG,AFNE01.JPG,AFNE01.JPG,AFNE01.JPG,,,,,,,,,2,0,20,3,,,,,,,,,,,,,,,AMSA01.jpg,AMNE08.jpg,AMSA18.jpg,AMNE15.jpg,AMNE08.jpg,MN,1,num_6,32,num_8,1.31668911304,,,2017_Jun_15_1903,60.006486045,MAFE4ImagesEEG,001,100695,
AFNE01.JPG,AFNE01.JPG,AFNE01.JPG,AFNE01.JPG,AFNE01.JPG,AFNE01.JPG,,,,,,,,,2,1,21,2,,,,,,,,,,,,,,,AMSA13.jpg,AMNE10.jpg,AMSA01.jpg,AMNE16.jpg,AMSA13.jpg,MS,2,num_8,32,num_4,3.84990789986,,,2017_Jun_15_1903,60.006486045,MAFE4ImagesEEG,001,100695,
AFNE01.JPG,AFNE01.JPG,AFNE01.JPG,AFNE01.JPG,AFNE01.JPG,AFNE01.JPG,,,,,,,,,2,2,22,0,,,,,,,,,,,,,,,AMSA03.jpg,AMNE19.jpg,AMSA14.jpg,AMNE12.jpg,AMNE12.jpg,MN,1,num_4,32,num_6,0.900110622868,,,2017_Jun_15_1903,60.006486045,MAFE4ImagesEEG,001,100695,
AFNE01.JPG,AFNE01.JPG,AFNE01.JPG,AFNE01.JPG,AFNE01.JPG,AFNE01.JPG,,,,,,,,,2,3,23,4,,,,,,,,,,,,,,,AMSA07.jpg,AMNE05.jpg,AMSA10.jpg,AMNE19.jpg,AMSA07.jpg,MS,2,num_8,16,num_8,0.900090095587,,,2017_Jun_15_1903,60.006486045,MAFE4ImagesEEG,001,100695,
AFNE01.JPG,AFNE01.JPG,AFNE01.JPG,AFNE01.JPG,AFNE01.JPG,AFNE01.JPG,,,,,,,,,2,4,24,1,,,,,,,,,,,,,,,AMSA19.jpg,AMSA09.jpg,AMNE18.jpg,AMNE15.jpg,AMSA19.jpg,MS,2,num_8,16,num_8,0.733564607683,,,2017_Jun_15_1903,60.006486045,MAFE4ImagesEEG,001,100695,
AFNE01.JPG,AFNE01.JPG,AFNE01.JPG,AFNE01.JPG,AFNE01.JPG,AFNE01.JPG,,,,,,,,,2,5,25,7,,,,,,,,,,,,,,,AMNE17.jpg,AMNE07.jpg,AMSA06.jpg,AMSA05.jpg,AMSA06.jpg,MS,2,num_2,32,num_4,0.883593522245,,,2017_Jun_15_1903,60.006486045,MAFE4ImagesEEG,001,100695,
AFNE01.JPG,AFNE01.JPG,AFNE01.JPG,AFNE01.JPG,AFNE01.JPG,AFNE01.JPG,,,,,,,,,2,6,26,8,,,,,,,,,,,,,,,AMSA02.jpg,AMSA10.jpg,AMNE07.jpg,AMNE14.jpg,AMNE07.jpg,MN,1,num_2,32,num_8,1.43344808312,,,2017_Jun_15_1903,60.006486045,MAFE4ImagesEEG,001,100695,
AFNE01.JPG,AFNE01.JPG,AFNE01.JPG,AFNE01.JPG,AFNE01.JPG,AFNE01.JPG,,,,,,,,,2,7,27,9,,,,,,,,,,,,,,,AMNE01.jpg,AMSA10.jpg,AMNE13.jpg,AMSA02.jpg,AMSA02.jpg,MS,2,num_4,32,num_6,1.08376069146,,,2017_Jun_15_1903,60.006486045,MAFE4ImagesEEG,001,100695,
AFNE01.JPG,AFNE01.JPG,AFNE01.JPG,AFNE01.JPG,AFNE01.JPG,AFNE01.JPG,,,,,,,,,2,8,28,5,,,,,,,,,,,,,,,AMNE07.jpg,AMSA13.jpg,AMNE20.jpg,AMSA07.jpg,AMSA07.jpg,MS,2,num_4,32,num_8,0.883441491867,,,2017_Jun_15_1903,60.006486045,MAFE4ImagesEEG,001,100695,
AFNE01.JPG,AFNE01.JPG,AFNE01.JPG,AFNE01.JPG,AFNE01.JPG,AFNE01.JPG,,,,,,,,,2,9,29,6,,,,,,,,,,,,,,,AMNE05.jpg,AMSA19.jpg,AMNE14.jpg,AMSA13.jpg,AMSA13.jpg,MS,2,num_4,32,num_2,0.866813094704,,,2017_Jun_15_1903,60.006486045,MAFE4ImagesEEG,001,100695,
AFNE01.JPG,AFNE01.JPG,AFNE01.JPG,AFNE01.JPG,AFNE01.JPG,AFNE01.JPG,,,,,,,,,3,0,30,0,,,,,,,,,,,,,,,AMNE20.jpg,AMSA19.jpg,AMSA10.jpg,AMNE08.jpg,AMNE20.jpg,MN,1,num_8,32,num_6,0.316829596879,,,2017_Jun_15_1903,60.006486045,MAFE4ImagesEEG,001,100695,
AFNE01.JPG,AFNE01.JPG,AFNE01.JPG,AFNE01.JPG,AFNE01.JPG,AFNE01.JPG,,,,,,,,,3,1,31,2,,,,,,,,,,,,,,,AMNE16.jpg,AMSA02.jpg,AMNE09.jpg,AMSA10.jpg,AMSA10.jpg,MS,2,num_4,32,num_8,1.06674548297,,,2017_Jun_15_1903,60.006486045,MAFE4ImagesEEG,001,100695,
AFNE01.JPG,AFNE01.JPG,AFNE01.JPG,AFNE01.JPG,AFNE01.JPG,AFNE01.JPG,,,,,,,,,3,2,32,4,,,,,,,,,,,,,,,AMSA16.jpg,AMSA10.jpg,AMNE10.jpg,AMNE09.jpg,AMSA10.jpg,MS,2,num_6,32,num_4,3.19993784069,,,2017_Jun_15_1903,60.006486045,MAFE4ImagesEEG,001,100695,
AFNE01.JPG,AFNE01.JPG,AFNE01.JPG,AFNE01.JPG,AFNE01.JPG,AFNE01.JPG,,,,,,,,,3,3,33,5,,,,,,,,,,,,,,,AMNE10.jpg,AMNE19.jpg,AMSA06.jpg,AMSA19.jpg,AMNE19.jpg,MN,1,num_6,16,num_6,0.583442999399,,,2017_Jun_15_1903,60.006486045,MAFE4ImagesEEG,001,100695,
AFNE01.JPG,AFNE01.JPG,AFNE01.JPG,AFNE01.JPG,AFNE01.JPG,AFNE01.JPG,,,,,,,,,3,4,34,6,,,,,,,,,,,,,,,AMNE14.jpg,AMSA18.jpg,AMNE04.jpg,AMSA04.jpg,AMNE04.jpg,MN,1,num_2,32,num_8,0.866766908322,,,2017_Jun_15_1903,60.006486045,MAFE4ImagesEEG,001,100695,
AFNE01.JPG,AFNE01.JPG,AFNE01.JPG,AFNE01.JPG,AFNE01.JPG,AFNE01.JPG,,,,,,,,,3,5,35,8,,,,,,,,,,,,,,,AMSA18.jpg,AMSA06.jpg,AMNE02.jpg,AMNE19.jpg,AMSA06.jpg,MS,2,num_6,32,num_2,1.05012029328,,,2017_Jun_15_1903,60.006486045,MAFE4ImagesEEG,001,100695,
AFNE01.JPG,AFNE01.JPG,AFNE01.JPG,AFNE01.JPG,AFNE01.JPG,AFNE01.JPG,,,,,,,,,3,6,36,3,,,,,,,,,,,,,,,AMSA15.jpg,AMSA10.jpg,AMNE02.jpg,AMNE08.jpg,AMNE08.jpg,MN,1,num_4,16,num_4,0.783545379294,,,2017_Jun_15_1903,60.006486045,MAFE4ImagesEEG,001,100695,
AFNE01.JPG,AFNE01.JPG,AFNE01.JPG,AFNE01.JPG,AFNE01.JPG,AFNE01.JPG,,,,,,,,,3,7,37,9,,,,,,,,,,,,,,,AMSA08.jpg,AMNE06.jpg,AMNE12.jpg,AMSA15.jpg,AMSA08.jpg,MS,2,num_8,32,num_2,0.716795406071,,,2017_Jun_15_1903,60.006486045,MAFE4ImagesEEG,001,100695,
AFNE01.JPG,AFNE01.JPG,AFNE01.JPG,AFNE01.JPG,AFNE01.JPG,AFNE01.JPG,,,,,,,,,3,8,38,7,,,,,,,,,,,,,,,AMNE13.jpg,AMNE18.jpg,AMSA12.jpg,AMSA02.jpg,AMSA12.jpg,MS,2,num_2,16,num_2,0.600182372262,,,2017_Jun_15_1903,60.006486045,MAFE4ImagesEEG,001,100695,
AFNE01.JPG,AFNE01.JPG,AFNE01.JPG,AFNE01.JPG,AFNE01.JPG,AFNE01.JPG,,,,,,,,,3,9,39,1,,,,,,,,,,,,,,,AMSA02.jpg,AMSA01.jpg,AMNE20.jpg,AMNE05.jpg,AMSA02.jpg,MS,2,num_8,16,num_8,1.10012319591,,,2017_Jun_15_1903,60.006486045,MAFE4ImagesEEG,001,100695,
AFNE01.JPG,AFNE01.JPG,AFNE01.JPG,AFNE01.JPG,AFNE01.JPG,AFNE01.JPG,,,,,,,,,4,0,40,7,,,,,,,,,,,,,,,AMNE20.jpg,AMSA16.jpg,AMSA15.jpg,AMNE17.jpg,AMSA16.jpg,MS,2,num_6,32,num_4,0.916753453319,,,2017_Jun_15_1903,60.006486045,MAFE4ImagesEEG,001,100695,
AFNE01.JPG,AFNE01.JPG,AFNE01.JPG,AFNE01.JPG,AFNE01.JPG,AFNE01.JPG,,,,,,,,,4,1,41,4,,,,,,,,,,,,,,,AMNE12.jpg,AMSA16.jpg,AMSA07.jpg,AMNE08.jpg,AMNE12.jpg,MN,1,num_8,32,num_6,0.9501549009,,,2017_Jun_15_1903,60.006486045,MAFE4ImagesEEG,001,100695,
AFNE01.JPG,AFNE01.JPG,AFNE01.JPG,AFNE01.JPG,AFNE01.JPG,AFNE01.JPG,,,,,,,,,4,2,42,2,,,,,,,,,,,,,,,AMSA07.jpg,AMNE05.jpg,AMNE18.jpg,AMSA02.jpg,AMNE18.jpg,MN,1,num_2,16,num_2,1.31675678899,,,2017_Jun_15_1903,60.006486045,MAFE4ImagesEEG,001,100695,
AFNE01.JPG,AFNE01.JPG,AFNE01.JPG,AFNE01.JPG,AFNE01.JPG,AFNE01.JPG,,,,,,,,,4,3,43,3,,,,,,,,,,,,,,,AMNE13.jpg,AMSA12.jpg,AMNE09.jpg,AMSA14.jpg,AMNE09.jpg,MN,1,num_2,16,num_2,1.35009440954,,,2017_Jun_15_1903,60.006486045,MAFE4ImagesEEG,001,100695,
AFNE01.JPG,AFNE01.JPG,AFNE01.JPG,AFNE01.JPG,AFNE01.JPG,AFNE01.JPG,,,,,,,,,4,4,44,5,,,,,,,,,,,,,,,AMSA07.jpg,AMSA01.jpg,AMNE13.jpg,AMNE14.jpg,AMSA07.jpg,MS,2,num_8,32,num_4,0.783458459075,,,2017_Jun_15_1903,60.006486045,MAFE4ImagesEEG,001,100695,
AFNE01.JPG,AFNE01.JPG,AFNE01.JPG,AFNE01.JPG,AFNE01.JPG,AFNE01.JPG,,,,,,,,,4,5,45,6,,,,,,,,,,,,,,,AMNE02.jpg,AMSA10.jpg,AMSA03.jpg,AMNE14.jpg,AMNE14.jpg,MN,1,num_4,32,num_8,1.35005463788,,,2017_Jun_15_1903,60.006486045,MAFE4ImagesEEG,001,100695,
AFNE01.JPG,AFNE01.JPG,AFNE01.JPG,AFNE01.JPG,AFNE01.JPG,AFNE01.JPG,,,,,,,,,4,6,46,8,,,,,,,,,,,,,,,AMSA13.jpg,AMNE14.jpg,AMNE07.jpg,AMSA20.jpg,AMSA20.jpg,MS,2,num_4,32,num_8,0.916740303044,,,2017_Jun_15_1903,60.006486045,MAFE4ImagesEEG,001,100695,
AFNE01.JPG,AFNE01.JPG,AFNE01.JPG,AFNE01.JPG,AFNE01.JPG,AFNE01.JPG,,,,,,,,,4,7,47,0,,,,,,,,,,,,,,,AMNE16.jpg,AMSA12.jpg,AMSA17.jpg,AMNE05.jpg,AMSA17.jpg,MS,2,num_2,32,num_4,0.650109580485,,,2017_Jun_15_1903,60.006486045,MAFE4ImagesEEG,001,100695,
AFNE01.JPG,AFNE01.JPG,AFNE01.JPG,AFNE01.JPG,AFNE01.JPG,AFNE01.JPG,,,,,,,,,4,8,48,1,,,,,,,,,,,,,,,AMSA03.jpg,AMSA13.jpg,AMNE12.jpg,AMNE03.jpg,AMNE12.jpg,MN,1,num_2,16,num_2,0.700135576422,,,2017_Jun_15_1903,60.006486045,MAFE4ImagesEEG,001,100695,
AFNE01.JPG,AFNE01.JPG,AFNE01.JPG,AFNE01.JPG,AFNE01.JPG,AFNE01.JPG,,,,,,,,,4,9,49,9,,,,,,,,,,,,,,,AMNE15.jpg,AMSA03.jpg,AMNE19.jpg,AMSA08.jpg,AMSA03.jpg,MS,2,num_6,16,num_6,0.583445565309,,,2017_Jun_15_1903,60.006486045,MAFE4ImagesEEG,001,100695,
AFNE01.JPG,AFNE01.JPG,AFNE01.JPG,AFNE01.JPG,AFNE01.JPG,AFNE01.JPG,,,,,,,,,5,0,50,7,,,,,,,,,,,,,,,AMSA20.jpg,AMSA16.jpg,AMNE01.jpg,AMNE20.jpg,AMSA16.jpg,MS,2,num_6,32,num_4,0.783475778881,,,2017_Jun_15_1903,60.006486045,MAFE4ImagesEEG,001,100695,
AFNE01.JPG,AFNE01.JPG,AFNE01.JPG,AFNE01.JPG,AFNE01.JPG,AFNE01.JPG,,,,,,,,,5,1,51,2,,,,,,,,,,,,,,,AMNE14.jpg,AMSA03.jpg,AMSA11.jpg,AMNE13.jpg,AMSA03.jpg,MS,2,num_6,32,num_4,1.16674262832,,,2017_Jun_15_1903,60.006486045,MAFE4ImagesEEG,001,100695,
AFNE01.JPG,AFNE01.JPG,AFNE01.JPG,AFNE01.JPG,AFNE01.JPG,AFNE01.JPG,,,,,,,,,5,2,52,3,,,,,,,,,,,,,,,AMSA06.jpg,AMNE12.jpg,AMSA16.jpg,AMNE07.jpg,AMNE12.jpg,MN,1,num_6,16,num_6,0.900096831028,,,2017_Jun_15_1903,60.006486045,MAFE4ImagesEEG,001,100695,
AFNE01.JPG,AFNE01.JPG,AFNE01.JPG,AFNE01.JPG,AFNE01.JPG,AFNE01.JPG,,,,,,,,,5,3,53,0,,,,,,,,,,,,,,,AMNE05.jpg,AMSA12.jpg,AMNE07.jpg,AMSA17.jpg,AMNE07.jpg,MN,1,num_2,32,num_8,0.666818803991,,,2017_Jun_15_1903,60.006486045,MAFE4ImagesEEG,001,100695,
AFNE01.JPG,AFNE01.JPG,AFNE01.JPG,AFNE01.JPG,AFNE01.JPG,AFNE01.JPG,,,,,,,,,5,4,54,1,,,,,,,,,,,,,,,AMNE08.jpg,AMSA07.jpg,AMNE13.jpg,AMSA20.jpg,AMNE08.jpg,MN,1,num_8,32,num_4,1.13340244198,,,2017_Jun_15_1903,60.006486045,MAFE4ImagesEEG,001,100695,
AFNE01.JPG,AFNE01.JPG,AFNE01.JPG,AFNE01.JPG,AFNE01.JPG,AFNE01.JPG,,,,,,,,,5,5,55,6,,,,,,,,,,,,,,,AMNE18.jpg,AMSA20.jpg,AMNE17.jpg,AMSA19.jpg,AMNE17.jpg,MN,1,num_2,16,num_2,0.883511733729,,,2017_Jun_15_1903,60.006486045,MAFE4ImagesEEG,001,100695,
AFNE01.JPG,AFNE01.JPG,AFNE01.JPG,AFNE01.JPG,AFNE01.JPG,AFNE01.JPG,,,,,,,,,5,6,56,9,,,,,,,,,,,,,,,AMNE05.jpg,AMNE04.jpg,AMSA06.jpg,AMSA14.jpg,AMNE05.jpg,MN,1,num_8,16,num_8,0.950104224146,,,2017_Jun_15_1903,60.006486045,MAFE4ImagesEEG,001,100695,
AFNE01.JPG,AFNE01.JPG,AFNE01.JPG,AFNE01.JPG,AFNE01.JPG,AFNE01.JPG,,,,,,,,,5,7,57,8,,,,,,,,,,,,,,,AMSA13.jpg,AMSA04.jpg,AMNE16.jpg,AMNE09.jpg,AMNE09.jpg,MN,1,num_4,16,num_4,0.983441523975,,,2017_Jun_15_1903,60.006486045,MAFE4ImagesEEG,001,100695,
AFNE01.JPG,AFNE01.JPG,AFNE01.JPG,AFNE01.JPG,AFNE01.JPG,AFNE01.JPG,,,,,,,,,5,8,58,4,,,,,,,,,,,,,,,AMSA09.jpg,AMSA20.jpg,AMNE09.jpg,AMNE04.jpg,AMNE09.jpg,MN,1,num_2,32,num_4,0.916748642223,,,2017_Jun_15_1903,60.006486045,MAFE4ImagesEEG,001,100695,
AFNE01.JPG,AFNE01.JPG,AFNE01.JPG,AFNE01.JPG,AFNE01.JPG,AFNE01.JPG,,,,,,,,,5,9,59,5,,,,,,,,,,,,,,,AMSA16.jpg,AMNE06.jpg,AMSA15.jpg,AMNE12.jpg,AMNE06.jpg,MN,1,num_6,32,num_8,1.21677888802,,,2017_Jun_15_1903,60.006486045,MAFE4ImagesEEG,001,100695,
,,,,,,,,,,,,,,,,,,,,,,,,,,,,,,,,,,,,,,,,,,,space,25.831689599,2017_Jun_15_1903,60.006486045,MAFE4ImagesEEG,001,100695,
AFNE01.JPG,AFNE01.JPG,AFNE01.JPG,AFNE01.JPG,AFNE01.JPG,AFNE01.JPG,,,,,,,,,,,,,0,0,0,8,,,,,,,,,,,AFSA11.jpg,AFSA03.jpg,AFNE18.jpg,AFNE12.jpg,AFSA11.jpg,FS,4,num_8,16,num_8,1.08340787841,,,2017_Jun_15_1903,60.006486045,MAFE4ImagesEEG,001,100695,
AFNE01.JPG,AFNE01.JPG,AFNE01.JPG,AFNE01.JPG,AFNE01.JPG,AFNE01.JPG,,,,,,,,,,,,,0,1,1,5,,,,,,,,,,,AFNE14.jpg,AFNE15.jpg,AFSA10.jpg,AFSA01.jpg,AFSA10.jpg,FS,4,num_2,32,num_6,0.633472523419,,,2017_Jun_15_1903,60.006486045,MAFE4ImagesEEG,001,100695,
AFNE01.JPG,AFNE01.JPG,AFNE01.JPG,AFNE01.JPG,AFNE01.JPG,AFNE01.JPG,,,,,,,,,,,,,0,2,2,2,,,,,,,,,,,AFSA12.jpg,AFSA02.jpg,AFNE07.jpg,AFNE18.jpg,AFSA02.jpg,FS,4,num_6,16,num_6,0.750131743494,,,2017_Jun_15_1903,60.006486045,MAFE4ImagesEEG,001,100695,
AFNE01.JPG,AFNE01.JPG,AFNE01.JPG,AFNE01.JPG,AFNE01.JPG,AFNE01.JPG,,,,,,,,,,,,,0,3,3,1,,,,,,,,,,,AFNE13.jpg,AFNE09.jpg,AFSA14.jpg,AFSA07.jpg,AFSA07.jpg,FS,4,num_4,16,num_4,0.883468754706,,,2017_Jun_15_1903,60.006486045,MAFE4ImagesEEG,001,100695,
AFNE01.JPG,AFNE01.JPG,AFNE01.JPG,AFNE01.JPG,AFNE01.JPG,AFNE01.JPG,,,,,,,,,,,,,0,4,4,6,,,,,,,,,,,AFSA19.jpg,AFSA06.jpg,AFNE14.jpg,AFNE19.jpg,AFNE19.jpg,FN,3,num_4,16,num_4,0.866785511258,,,2017_Jun_15_1903,60.006486045,MAFE4ImagesEEG,001,100695,
AFNE01.JPG,AFNE01.JPG,AFNE01.JPG,AFNE01.JPG,AFNE01.JPG,AFNE01.JPG,,,,,,,,,,,,,0,5,5,9,,,,,,,,,,,AFSA11.jpg,AFNE02.jpg,AFNE11.jpg,AFSA04.jpg,AFNE11.jpg,FN,3,num_2,32,num_6,1.25012388546,,,2017_Jun_15_1903,60.006486045,MAFE4ImagesEEG,001,100695,
AFNE01.JPG,AFNE01.JPG,AFNE01.JPG,AFNE01.JPG,AFNE01.JPG,AFNE01.JPG,,,,,,,,,,,,,0,6,6,3,,,,,,,,,,,AFSA18.jpg,AFNE16.jpg,AFSA19.jpg,AFNE10.jpg,AFNE16.jpg,FN,3,num_6,16,num_6,0.800146834343,,,2017_Jun_15_1903,60.006486045,MAFE4ImagesEEG,001,100695,
AFNE01.JPG,AFNE01.JPG,AFNE01.JPG,AFNE01.JPG,AFNE01.JPG,AFNE01.JPG,,,,,,,,,,,,,0,7,7,0,,,,,,,,,,,AFNE17.jpg,AFNE13.jpg,AFSA16.jpg,AFSA11.jpg,AFNE17.jpg,FN,3,num_8,32,num_6,0.916731001576,,,2017_Jun_15_1903,60.006486045,MAFE4ImagesEEG,001,100695,
AFNE01.JPG,AFNE01.JPG,AFNE01.JPG,AFNE01.JPG,AFNE01.JPG,AFNE01.JPG,,,,,,,,,,,,,0,8,8,4,,,,,,,,,,,AFNE19.jpg,AFSA19.jpg,AFNE16.jpg,AFSA02.jpg,AFNE19.jpg,FN,3,num_8,16,num_8,1.08344861225,,,2017_Jun_15_1903,60.006486045,MAFE4ImagesEEG,001,100695,
AFNE01.JPG,AFNE01.JPG,AFNE01.JPG,AFNE01.JPG,AFNE01.JPG,AFNE01.JPG,,,,,,,,,,,,,0,9,9,7,,,,,,,,,,,AFNE08.jpg,AFNE15.jpg,AFSA17.jpg,AFSA09.jpg,AFNE15.jpg,FN,3,num_6,32,num_8,1.06680995144,,,2017_Jun_15_1903,60.006486045,MAFE4ImagesEEG,001,100695,
AFNE01.JPG,AFNE01.JPG,AFNE01.JPG,AFNE01.JPG,AFNE01.JPG,AFNE01.JPG,,,,,,,,,,,,,1,0,10,1,,,,,,,,,,,AFNE14.jpg,AFSA14.jpg,AFNE08.jpg,AFSA17.jpg,AFSA17.jpg,FS,4,num_4,16,num_4,0.916751208133,,,2017_Jun_15_1903,60.006486045,MAFE4ImagesEEG,001,100695,
AFNE01.JPG,AFNE01.JPG,AFNE01.JPG,AFNE01.JPG,AFNE01.JPG,AFNE01.JPG,,,,,,,,,,,,,1,1,11,6,,,,,,,,,,,AFNE03.jpg,AFSA14.jpg,AFSA02.jpg,AFNE08.jpg,AFNE08.jpg,FN,3,num_4,32,num_6,0.616779657663,,,2017_Jun_15_1903,60.006486045,MAFE4ImagesEEG,001,100695,
AFNE01.JPG,AFNE01.JPG,AFNE01.JPG,AFNE01.JPG,AFNE01.JPG,AFNE01.JPG,,,,,,,,,,,,,1,2,12,4,,,,,,,,,,,AFSA14.jpg,AFNE18.jpg,AFNE17.jpg,AFSA03.jpg,AFSA14.jpg,FS,4,num_8,16,num_8,1.55004187243,,,2017_Jun_15_1903,60.006486045,MAFE4ImagesEEG,001,100695,
AFNE01.JPG,AFNE01.JPG,AFNE01.JPG,AFNE01.JPG,AFNE01.JPG,AFNE01.JPG,,,,,,,,,,,,,1,3,13,7,,,,,,,,,,,AFSA20.jpg,AFNE15.jpg,AFNE03.jpg,AFSA13.jpg,AFNE03.jpg,FN,3,num_2,16,num_2,0.716629904578,,,2017_Jun_15_1903,60.006486045,MAFE4ImagesEEG,001,100695,
AFNE01.JPG,AFNE01.JPG,AFNE01.JPG,AFNE01.JPG,AFNE01.JPG,AFNE01.JPG,,,,,,,,,,,,,1,4,14,5,,,,,,,,,,,AFNE18.jpg,AFSA06.jpg,AFNE17.jpg,AFSA13.jpg,AFNE17.jpg,FN,3,num_2,32,num_6,0.600150939892,,,2017_Jun_15_1903,60.006486045,MAFE4ImagesEEG,001,100695,
AFNE01.JPG,AFNE01.JPG,AFNE01.JPG,AFNE01.JPG,AFNE01.JPG,AFNE01.JPG,,,,,,,,,,,,,1,5,15,3,,,,,,,,,,,AFNE15.jpg,AFSA19.jpg,AFNE04.jpg,AFSA08.jpg,AFSA19.jpg,FS,4,num_6,32,num_4,0.850149416248,,,2017_Jun_15_1903,60.006486045,MAFE4ImagesEEG,001,100695,
AFNE01.JPG,AFNE01.JPG,AFNE01.JPG,AFNE01.JPG,AFNE01.JPG,AFNE01.JPG,,,,,,,,,,,,,1,6,16,8,,,,,,,,,,,AFSA04.jpg,AFNE12.jpg,AFSA19.jpg,AFNE14.jpg,AFNE12.jpg,FN,3,num_6,16,num_6,1.56673954928,,,2017_Jun_15_1903,60.006486045,MAFE4ImagesEEG,001,100695,
AFNE01.JPG,AFNE01.JPG,AFNE01.JPG,AFNE01.JPG,AFNE01.JPG,AFNE01.JPG,,,,,,,,,,,,,1,7,17,9,,,,,,,,,,,AFSA20.jpg,AFNE02.jpg,AFSA02.jpg,AFNE16.jpg,AFNE16.jpg,FN,3,num_4,16,num_4,0.750135592418,,,2017_Jun_15_1903,60.006486045,MAFE4ImagesEEG,001,100695,
AFNE01.JPG,AFNE01.JPG,AFNE01.JPG,AFNE01.JPG,AFNE01.JPG,AFNE01.JPG,,,,,,,,,,,,,1,8,18,2,,,,,,,,,,,AFSA11.jpg,AFNE12.jpg,AFNE04.jpg,AFSA16.jpg,AFNE12.jpg,FN,3,num_6,16,num_6,1.10010459297,,,2017_Jun_15_1903,60.006486045,MAFE4ImagesEEG,001,100695,
AFNE01.JPG,AFNE01.JPG,AFNE01.JPG,AFNE01.JPG,AFNE01.JPG,AFNE01.JPG,,,,,,,,,,,,,1,9,19,0,,,,,,,,,,,AFSA03.jpg,AFSA14.jpg,AFNE07.jpg,AFNE20.jpg,AFSA14.jpg,FS,4,num_6,32,num_8,0.966718188021,,,2017_Jun_15_1903,60.006486045,MAFE4ImagesEEG,001,100695,
AFNE01.JPG,AFNE01.JPG,AFNE01.JPG,AFNE01.JPG,AFNE01.JPG,AFNE01.JPG,,,,,,,,,,,,,2,0,20,7,,,,,,,,,,,AFSA01.jpg,AFSA13.jpg,AFNE17.jpg,AFNE02.jpg,AFSA13.jpg,FS,4,num_6,32,num_2,1.30022589653,,,2017_Jun_15_1903,60.006486045,MAFE4ImagesEEG,001,100695,
AFNE01.JPG,AFNE01.JPG,AFNE01.JPG,AFNE01.JPG,AFNE01.JPG,AFNE01.JPG,,,,,,,,,,,,,2,1,21,5,,,,,,,,,,,AFSA14.jpg,AFNE12.jpg,AFNE14.jpg,AFSA02.jpg,AFNE12.jpg,FN,3,num_6,16,num_6,1.30005045224,,,2017_Jun_15_1903,60.006486045,MAFE4ImagesEEG,001,100695,
AFNE01.JPG,AFNE01.JPG,AFNE01.JPG,AFNE01.JPG,AFNE01.JPG,AFNE01.JPG,,,,,,,,,,,,,2,2,22,6,,,,,,,,,,,AFNE06.jpg,AFNE05.jpg,AFSA02.jpg,AFSA10.jpg,AFNE05.jpg,FN,3,num_6,16,num_6,1.00011129642,,,2017_Jun_15_1903,60.006486045,MAFE4ImagesEEG,001,100695,
AFNE01.JPG,AFNE01.JPG,AFNE01.JPG,AFNE01.JPG,AFNE01.JPG,AFNE01.JPG,,,,,,,,,,,,,2,3,23,0,,,,,,,,,,,AFNE03.jpg,AFNE20.jpg,AFSA15.jpg,AFSA12.jpg,AFNE20.jpg,FN,3,num_6,16,num_6,0.616765545099,,,2017_Jun_15_1903,60.006486045,MAFE4ImagesEEG,001,100695,
AFNE01.JPG,AFNE01.JPG,AFNE01.JPG,AFNE01.JPG,AFNE01.JPG,AFNE01.JPG,,,,,,,,,,,,,2,4,24,3,,,,,,,,,,,AFSA07.jpg,AFNE20.jpg,AFSA06.jpg,AFNE05.jpg,AFNE20.jpg,FN,3,num_6,32,num_4,0.733468065038,,,2017_Jun_15_1903,60.006486045,MAFE4ImagesEEG,001,100695,
AFNE01.JPG,AFNE01.JPG,AFNE01.JPG,AFNE01.JPG,AFNE01.JPG,AFNE01.JPG,,,,,,,,,,,,,2,5,25,4,,,,,,,,,,,AFNE20.jpg,AFSA11.jpg,AFSA05.jpg,AFNE03.jpg,AFSA05.jpg,FS,4,num_2,32,num_4,0.933423867333,,,2017_Jun_15_1903,60.006486045,MAFE4ImagesEEG,001,100695,
AFNE01.JPG,AFNE01.JPG,AFNE01.JPG,AFNE01.JPG,AFNE01.JPG,AFNE01.JPG,,,,,,,,,,,,,2,6,26,8,,,,,,,,,,,AFSA11.jpg,AFNE05.jpg,AFSA13.jpg,AFNE01.jpg,AFSA13.jpg,FS,4,num_2,32,num_4,0.916731963865,,,2017_Jun_15_1903,60.006486045,MAFE4ImagesEEG,001,100695,
AFNE01.JPG,AFNE01.JPG,AFNE01.JPG,AFNE01.JPG,AFNE01.JPG,AFNE01.JPG,,,,,,,,,,,,,2,7,27,1,,,,,,,,,,,AFNE06.jpg,AFSA02.jpg,AFNE20.jpg,AFSA20.jpg,AFNE20.jpg,FN,3,num_2,32,num_4,0.800142343971,,,2017_Jun_15_1903,60.006486045,MAFE4ImagesEEG,001,100695,
AFNE01.JPG,AFNE01.JPG,AFNE01.JPG,AFNE01.JPG,AFNE01.JPG,AFNE01.JPG,,,,,,,,,,,,,2,8,28,9,,,,,,,,,,,AFSA01.jpg,AFNE01.jpg,AFNE09.jpg,AFSA10.jpg,AFNE09.jpg,FN,3,num_2,32,num_4,0.700362659758,,,2017_Jun_15_1903,60.006486045,MAFE4ImagesEEG,001,100695,
AFNE01.JPG,AFNE01.JPG,AFNE01.JPG,AFNE01.JPG,AFNE01.JPG,AFNE01.JPG,,,,,,,,,,,,,2,9,29,2,,,,,,,,,,,AFSA14.jpg,AFNE18.jpg,AFNE20.jpg,AFSA01.jpg,AFNE18.jpg,FN,3,num_6,32,num_2,0.933462676709,,,2017_Jun_15_1903,60.006486045,MAFE4ImagesEEG,001,100695,
AFNE01.JPG,AFNE01.JPG,AFNE01.JPG,AFNE01.JPG,AFNE01.JPG,AFNE01.JPG,,,,,,,,,,,,,3,0,30,6,,,,,,,,,,,AFNE18.jpg,AFSA09.jpg,AFSA04.jpg,AFNE19.jpg,AFNE19.jpg,FN,3,num_4,32,num_8,0.750119876233,,,2017_Jun_15_1903,60.006486045,MAFE4ImagesEEG,001,100695,
AFNE01.JPG,AFNE01.JPG,AFNE01.JPG,AFNE01.JPG,AFNE01.JPG,AFNE01.JPG,,,,,,,,,,,,,3,1,31,8,,,,,,,,,,,AFNE20.jpg,AFSA17.jpg,AFNE13.jpg,AFSA02.jpg,AFSA17.jpg,FS,4,num_6,32,num_4,1.2834881274,,,2017_Jun_15_1903,60.006486045,MAFE4ImagesEEG,001,100695,
AFNE01.JPG,AFNE01.JPG,AFNE01.JPG,AFNE01.JPG,AFNE01.JPG,AFNE01.JPG,,,,,,,,,,,,,3,2,32,4,,,,,,,,,,,AFSA16.jpg,AFSA11.jpg,AFNE10.jpg,AFNE20.jpg,AFSA11.jpg,FS,4,num_6,16,num_6,0.583479563706,,,2017_Jun_15_1903,60.006486045,MAFE4ImagesEEG,001,100695,
AFNE01.JPG,AFNE01.JPG,AFNE01.JPG,AFNE01.JPG,AFNE01.JPG,AFNE01.JPG,,,,,,,,,,,,,3,3,33,0,,,,,,,,,,,AFNE17.jpg,AFNE02.jpg,AFSA04.jpg,AFSA06.jpg,AFSA06.jpg,FS,4,num_4,16,num_4,1.43339451961,,,2017_Jun_15_1903,60.006486045,MAFE4ImagesEEG,001,100695,
AFNE01.JPG,AFNE01.JPG,AFNE01.JPG,AFNE01.JPG,AFNE01.JPG,AFNE01.JPG,,,,,,,,,,,,,3,4,34,1,,,,,,,,,,,AFSA03.jpg,AFSA20.jpg,AFNE11.jpg,AFNE06.jpg,AFNE11.jpg,FN,3,num_2,16,num_2,0.600224389113,,,2017_Jun_15_1903,60.006486045,MAFE4ImagesEEG,001,100695,
AFNE01.JPG,AFNE01.JPG,AFNE01.JPG,AFNE01.JPG,AFNE01.JPG,AFNE01.JPG,,,,,,,,,,,,,3,5,35,9,,,,,,,,,,,AFSA20.jpg,AFNE19.jpg,AFNE07.jpg,AFSA02.jpg,AFNE19.jpg,FN,3,num_6,32,num_8,0.816788702621,,,2017_Jun_15_1903,60.006486045,MAFE4ImagesEEG,001,100695,
AFNE01.JPG,AFNE01.JPG,AFNE01.JPG,AFNE01.JPG,AFNE01.JPG,AFNE01.JPG,,,,,,,,,,,,,3,6,36,3,,,,,,,,,,,AFSA03.jpg,AFSA16.jpg,AFNE10.jpg,AFNE18.jpg,AFSA03.jpg,FS,4,num_8,32,num_6,0.600030983449,,,2017_Jun_15_1903,60.006486045,MAFE4ImagesEEG,001,100695,
AFNE01.JPG,AFNE01.JPG,AFNE01.JPG,AFNE01.JPG,AFNE01.JPG,AFNE01.JPG,,,,,,,,,,,,,3,7,37,7,,,,,,,,,,,AFSA05.jpg,AFNE06.jpg,AFNE19.jpg,AFSA09.jpg,AFSA09.jpg,FS,4,num_4,32,num_6,1.30004211306,,,2017_Jun_15_1903,60.006486045,MAFE4ImagesEEG,001,100695,
AFNE01.JPG,AFNE01.JPG,AFNE01.JPG,AFNE01.JPG,AFNE01.JPG,AFNE01.JPG,,,,,,,,,,,,,3,8,38,5,,,,,,,,,,,AFNE08.jpg,AFSA15.jpg,AFSA06.jpg,AFNE19.jpg,AFNE19.jpg,FN,3,num_4,16,num_4,0.666798597318,,,2017_Jun_15_1903,60.006486045,MAFE4ImagesEEG,001,100695,
AFNE01.JPG,AFNE01.JPG,AFNE01.JPG,AFNE01.JPG,AFNE01.JPG,AFNE01.JPG,,,,,,,,,,,,,3,9,39,2,,,,,,,,,,,AFNE03.jpg,AFSA14.jpg,AFSA20.jpg,AFNE02.jpg,AFNE03.jpg,FN,3,num_8,32,num_6,2.06655496394,,,2017_Jun_15_1903,60.006486045,MAFE4ImagesEEG,001,100695,
AFNE01.JPG,AFNE01.JPG,AFNE01.JPG,AFNE01.JPG,AFNE01.JPG,AFNE01.JPG,,,,,,,,,,,,,4,0,40,8,,,,,,,,,,,AFSA18.jpg,AFSA10.jpg,AFNE03.jpg,AFNE09.jpg,AFNE09.jpg,FN,3,num_4,32,num_8,0.666620587115,,,2017_Jun_15_1903,60.006486045,MAFE4ImagesEEG,001,100695,
AFNE01.JPG,AFNE01.JPG,AFNE01.JPG,AFNE01.JPG,AFNE01.JPG,AFNE01.JPG,,,,,,,,,,,,,4,1,41,2,,,,,,,,,,,AFNE07.jpg,AFSA20.jpg,AFSA05.jpg,AFNE02.jpg,AFNE07.jpg,FN,3,num_8,16,num_8,1.1001084419,,,2017_Jun_15_1903,60.006486045,MAFE4ImagesEEG,001,100695,
AFNE01.JPG,AFNE01.JPG,AFNE01.JPG,AFNE01.JPG,AFNE01.JPG,AFNE01.JPG,,,,,,,,,,,,,4,2,42,6,,,,,,,,,,,AFSA10.jpg,AFNE20.jpg,AFSA05.jpg,AFNE03.jpg,AFSA10.jpg,FS,4,num_8,32,num_2,1.03343608743,,,2017_Jun_15_1903,60.006486045,MAFE4ImagesEEG,001,100695,
AFNE01.JPG,AFNE01.JPG,AFNE01.JPG,AFNE01.JPG,AFNE01.JPG,AFNE01.JPG,,,,,,,,,,,,,4,3,43,5,,,,,,,,,,,AFNE05.jpg,AFSA10.jpg,AFSA07.jpg,AFNE13.jpg,AFNE13.jpg,FN,3,num_4,16,num_4,0.900124735432,,,2017_Jun_15_1903,60.006486045,MAFE4ImagesEEG,001,100695,
AFNE01.JPG,AFNE01.JPG,AFNE01.JPG,AFNE01.JPG,AFNE01.JPG,AFNE01.JPG,,,,,,,,,,,,,4,4,44,9,,,,,,,,,,,AFSA01.jpg,AFNE18.jpg,AFSA06.jpg,AFNE11.jpg,AFNE11.jpg,FN,3,num_4,32,num_8,1.23341819015,,,2017_Jun_15_1903,60.006486045,MAFE4ImagesEEG,001,100695,
AFNE01.JPG,AFNE01.JPG,AFNE01.JPG,AFNE01.JPG,AFNE01.JPG,AFNE01.JPG,,,,,,,,,,,,,4,5,45,7,,,,,,,,,,,AFNE16.jpg,AFSA04.jpg,AFNE02.jpg,AFSA09.jpg,AFSA09.jpg,FS,4,num_4,16,num_4,0.983422921039,,,2017_Jun_15_1903,60.006486045,MAFE4ImagesEEG,001,100695,
AFNE01.JPG,AFNE01.JPG,AFNE01.JPG,AFNE01.JPG,AFNE01.JPG,AFNE01.JPG,,,,,,,,,,,,,4,6,46,0,,,,,,,,,,,AFSA08.jpg,AFSA20.jpg,AFNE13.jpg,AFNE03.jpg,AFSA20.jpg,FS,4,num_6,16,num_6,0.683510065894,,,2017_Jun_15_1903,60.006486045,MAFE4ImagesEEG,001,100695,
AFNE01.JPG,AFNE01.JPG,AFNE01.JPG,AFNE01.JPG,AFNE01.JPG,AFNE01.JPG,,,,,,,,,,,,,4,7,47,3,,,,,,,,,,,AFNE08.jpg,AFSA19.jpg,AFSA04.jpg,AFNE01.jpg,AFSA04.jpg,FS,4,num_2,16,num_2,1.01673648623,,,2017_Jun_15_1903,60.006486045,MAFE4ImagesEEG,001,100695,
AFNE01.JPG,AFNE01.JPG,AFNE01.JPG,AFNE01.JPG,AFNE01.JPG,AFNE01.JPG,,,,,,,,,,,,,4,8,48,4,,,,,,,,,,,AFNE16.jpg,AFSA10.jpg,AFNE15.jpg,AFSA14.jpg,AFNE16.jpg,FN,3,num_8,32,num_4,0.700113766128,,,2017_Jun_15_1903,60.006486045,MAFE4ImagesEEG,001,100695,
AFNE01.JPG,AFNE01.JPG,AFNE01.JPG,AFNE01.JPG,AFNE01.JPG,AFNE01.JPG,,,,,,,,,,,,,4,9,49,1,,,,,,,,,,,AFSA02.jpg,AFSA10.jpg,AFNE09.jpg,AFNE05.jpg,AFNE09.jpg,FN,3,num_2,32,num_6,0.616798260598,,,2017_Jun_15_1903,60.006486045,MAFE4ImagesEEG,001,100695,
AFNE01.JPG,AFNE01.JPG,AFNE01.JPG,AFNE01.JPG,AFNE01.JPG,AFNE01.JPG,,,,,,,,,,,,,5,0,50,9,,,,,,,,,,,AFSA11.jpg,AFSA04.jpg,AFNE03.jpg,AFNE08.jpg,AFSA11.jpg,FS,4,num_8,16,num_8,1.06677627389,,,2017_Jun_15_1903,60.006486045,MAFE4ImagesEEG,001,100695,
AFNE01.JPG,AFNE01.JPG,AFNE01.JPG,AFNE01.JPG,AFNE01.JPG,AFNE01.JPG,,,,,,,,,,,,,5,1,51,1,,,,,,,,,,,AFNE20.jpg,AFNE09.jpg,AFSA17.jpg,AFSA18.jpg,AFSA18.jpg,FS,4,num_4,32,num_2,1.2334136999,,,2017_Jun_15_1903,60.006486045,MAFE4ImagesEEG,001,100695,
AFNE01.JPG,AFNE01.JPG,AFNE01.JPG,AFNE01.JPG,AFNE01.JPG,AFNE01.JPG,,,,,,,,,,,,,5,2,52,3,,,,,,,,,,,AFNE02.jpg,AFSA15.jpg,AFNE11.jpg,AFSA07.jpg,AFNE02.jpg,FN,3,num_8,16,num_8,1.10007476422,,,2017_Jun_15_1903,60.006486045,MAFE4ImagesEEG,001,100695,
AFNE01.JPG,AFNE01.JPG,AFNE01.JPG,AFNE01.JPG,AFNE01.JPG,AFNE01.JPG,,,,,,,,,,,,,5,3,53,6,,,,,,,,,,,AFSA09.jpg,AFNE03.jpg,AFNE20.jpg,AFSA15.jpg,AFNE20.jpg,FN,3,num_2,32,num_8,1.01678427635,,,2017_Jun_15_1903,60.006486045,MAFE4ImagesEEG,001,100695,
AFNE01.JPG,AFNE01.JPG,AFNE01.JPG,AFNE01.JPG,AFNE01.JPG,AFNE01.JPG,,,,,,,,,,,,,5,4,54,0,,,,,,,,,,,AFNE04.jpg,AFNE10.jpg,AFSA09.jpg,AFSA20.jpg,AFSA20.jpg,FS,4,num_4,32,num_8,1.95008081011,,,2017_Jun_15_1903,60.006486045,MAFE4ImagesEEG,001,100695,
AFNE01.JPG,AFNE01.JPG,AFNE01.JPG,AFNE01.JPG,AFNE01.JPG,AFNE01.JPG,,,,,,,,,,,,,5,5,55,4,,,,,,,,,,,AFNE04.jpg,AFNE19.jpg,AFSA02.jpg,AFSA08.jpg,AFSA08.jpg,FS,4,num_4,16,num_4,1.00023349805,,,2017_Jun_15_1903,60.006486045,MAFE4ImagesEEG,001,100695,
AFNE01.JPG,AFNE01.JPG,AFNE01.JPG,AFNE01.JPG,AFNE01.JPG,AFNE01.JPG,,,,,,,,,,,,,5,6,56,5,,,,,,,,,,,AFNE05.jpg,AFSA18.jpg,AFSA03.jpg,AFNE07.jpg,AFNE07.jpg,FN,3,num_4,32,num_8,0.783602470881,,,2017_Jun_15_1903,60.006486045,MAFE4ImagesEEG,001,100695,
AFNE01.JPG,AFNE01.JPG,AFNE01.JPG,AFNE01.JPG,AFNE01.JPG,AFNE01.JPG,,,,,,,,,,,,,5,7,57,2,,,,,,,,,,,AFNE04.jpg,AFSA13.jpg,AFNE07.jpg,AFSA08.jpg,AFNE04.jpg,FN,3,num_8,16,num_8,1.06679359381,,,2017_Jun_15_1903,60.006486045,MAFE4ImagesEEG,001,100695,
AFNE01.JPG,AFNE01.JPG,AFNE01.JPG,AFNE01.JPG,AFNE01.JPG,AFNE01.JPG,,,,,,,,,,,,,5,8,58,8,,,,,,,,,,,AFNE03.jpg,AFNE20.jpg,AFSA16.jpg,AFSA19.jpg,AFSA16.jpg,FS,4,num_2,32,num_8,0.900202995748,,,2017_Jun_15_1903,60.006486045,MAFE4ImagesEEG,001,100695,
AFNE01.JPG,AFNE01.JPG,AFNE01.JPG,AFNE01.JPG,AFNE01.JPG,AFNE01.JPG,,,,,,,,,,,,,5,9,59,7,,,,,,,,,,,AFNE19.jpg,AFNE20.jpg,AFSA12.jpg,AFSA03.jpg,AFNE19.jpg,FN,3,num_8,32,num_4,0.733533495921,,,2017_Jun_15_1903,60.006486045,MAFE4ImagesEEG,001,100695,
,,,,,,,,,,,,,,,,,,,,,,,,,,,,,,,,,,,,,,,,,,,space,14.5159056116,2017_Jun_15_1903,60.006486045,MAFE4ImagesEEG,001,100695,
AFNE01.JPG,AFNE01.JPG,AFNE01.JPG,AFNE01.JPG,AFNE01.JPG,AFNE01.JPG,,,,,,,,,,,,,,,,,0,0,0,5,,,,,,,AMSA19.jpg,AMNE01.jpg,AMNE10.jpg,AMSA18.jpg,AMSA18.jpg,MS,2,num_4,16,num_4,0.766977922525,,,2017_Jun_15_1903,60.006486045,MAFE4ImagesEEG,001,100695,
AFNE01.JPG,AFNE01.JPG,AFNE01.JPG,AFNE01.JPG,AFNE01.JPG,AFNE01.JPG,,,,,,,,,,,,,,,,,0,1,1,3,,,,,,,AMSA16.jpg,AMNE07.jpg,AMNE06.jpg,AMSA06.jpg,AMNE07.jpg,MN,1,num_6,16,num_6,1.21674039925,,,2017_Jun_15_1903,60.006486045,MAFE4ImagesEEG,001,100695,
AFNE01.JPG,AFNE01.JPG,AFNE01.JPG,AFNE01.JPG,AFNE01.JPG,AFNE01.JPG,,,,,,,,,,,,,,,,,0,2,2,7,,,,,,,AMNE16.jpg,AMSA13.jpg,AMNE17.jpg,AMSA06.jpg,AMNE17.jpg,MN,1,num_2,16,num_2,0.583528957446,,,2017_Jun_15_1903,60.006486045,MAFE4ImagesEEG,001,100695,
AFNE01.JPG,AFNE01.JPG,AFNE01.JPG,AFNE01.JPG,AFNE01.JPG,AFNE01.JPG,,,,,,,,,,,,,,,,,0,3,3,4,,,,,,,AMNE13.jpg,AMNE12.jpg,AMSA09.jpg,AMSA14.jpg,AMNE13.jpg,MN,1,num_8,32,num_6,1.18349001976,,,2017_Jun_15_1903,60.006486045,MAFE4ImagesEEG,001,100695,
AFNE01.JPG,AFNE01.JPG,AFNE01.JPG,AFNE01.JPG,AFNE01.JPG,AFNE01.JPG,,,,,,,,,,,,,,,,,0,4,4,0,,,,,,,AMSA20.jpg,AMNE07.jpg,AMSA04.jpg,AMNE19.jpg,AMSA04.jpg,MS,2,num_2,16,num_2,0.71683517762,,,2017_Jun_15_1903,60.006486045,MAFE4ImagesEEG,001,100695,
AFNE01.JPG,AFNE01.JPG,AFNE01.JPG,AFNE01.JPG,AFNE01.JPG,AFNE01.JPG,,,,,,,,,,,,,,,,,0,5,5,1,,,,,,,AMSA14.jpg,AMSA20.jpg,AMNE12.jpg,AMNE06.jpg,AMSA20.jpg,MS,2,num_6,32,num_4,1.00015652075,,,2017_Jun_15_1903,60.006486045,MAFE4ImagesEEG,001,100695,
AFNE01.JPG,AFNE01.JPG,AFNE01.JPG,AFNE01.JPG,AFNE01.JPG,AFNE01.JPG,,,,,,,,,,,,,,,,,0,6,6,6,,,,,,,AMSA12.jpg,AMNE02.jpg,AMNE10.jpg,AMSA06.jpg,AMNE10.jpg,MN,1,num_2,32,num_4,0.833529037656,,,2017_Jun_15_1903,60.006486045,MAFE4ImagesEEG,001,100695,
AFNE01.JPG,AFNE01.JPG,AFNE01.JPG,AFNE01.JPG,AFNE01.JPG,AFNE01.JPG,,,,,,,,,,,,,,,,,0,7,7,9,,,,,,,AMSA14.jpg,AMNE15.jpg,AMSA02.jpg,AMNE01.jpg,AMSA14.jpg,MS,2,num_8,32,num_4,0.716771350475,,,2017_Jun_15_1903,60.006486045,MAFE4ImagesEEG,001,100695,
AFNE01.JPG,AFNE01.JPG,AFNE01.JPG,AFNE01.JPG,AFNE01.JPG,AFNE01.JPG,,,,,,,,,,,,,,,,,0,8,8,8,,,,,,,AMNE13.jpg,AMSA03.jpg,AMSA15.jpg,AMNE19.jpg,AMNE13.jpg,MN,1,num_8,32,num_4,0.800183719257,,,2017_Jun_15_1903,60.006486045,MAFE4ImagesEEG,001,100695,
AFNE01.JPG,AFNE01.JPG,AFNE01.JPG,AFNE01.JPG,AFNE01.JPG,AFNE01.JPG,,,,,,,,,,,,,,,,,0,9,9,2,,,,,,,AMNE08.jpg,AMSA10.jpg,AMSA09.jpg,AMNE04.jpg,AMNE04.jpg,MN,1,num_4,16,num_4,0.700177593273,,,2017_Jun_15_1903,60.006486045,MAFE4ImagesEEG,001,100695,
AFNE01.JPG,AFNE01.JPG,AFNE01.JPG,AFNE01.JPG,AFNE01.JPG,AFNE01.JPG,,,,,,,,,,,,,,,,,1,0,10,2,,,,,,,AMNE08.jpg,AMSA13.jpg,AMSA14.jpg,AMNE04.jpg,AMNE08.jpg,MN,1,num_8,16,num_8,0.766787082772,,,2017_Jun_15_1903,60.006486045,MAFE4ImagesEEG,001,100695,
AFNE01.JPG,AFNE01.JPG,AFNE01.JPG,AFNE01.JPG,AFNE01.JPG,AFNE01.JPG,,,,,,,,,,,,,,,,,1,1,11,1,,,,,,,AMSA14.jpg,AMNE02.jpg,AMSA13.jpg,AMNE13.jpg,AMSA13.jpg,MS,2,num_2,32,num_6,0.766752443044,,,2017_Jun_15_1903,60.006486045,MAFE4ImagesEEG,001,100695,
AFNE01.JPG,AFNE01.JPG,AFNE01.JPG,AFNE01.JPG,AFNE01.JPG,AFNE01.JPG,,,,,,,,,,,,,,,,,1,2,12,5,,,,,,,AMSA04.jpg,AMSA03.jpg,AMNE11.jpg,AMNE17.jpg,AMSA03.jpg,MS,2,num_6,32,num_8,0.56677290611,,,2017_Jun_15_1903,60.006486045,MAFE4ImagesEEG,001,100695,
AFNE01.JPG,AFNE01.JPG,AFNE01.JPG,AFNE01.JPG,AFNE01.JPG,AFNE01.JPG,,,,,,,,,,,,,,,,,1,3,13,8,,,,,,,AMNE07.jpg,AMSA17.jpg,AMSA06.jpg,AMNE06.jpg,AMNE07.jpg,MN,1,num_8,16,num_8,1.08341910434,,,2017_Jun_15_1903,60.006486045,MAFE4ImagesEEG,001,100695,
AFNE01.JPG,AFNE01.JPG,AFNE01.JPG,AFNE01.JPG,AFNE01.JPG,AFNE01.JPG,,,,,,,,,,,,,,,,,1,4,14,3,,,,,,,AMNE19.jpg,AMNE09.jpg,AMSA03.jpg,AMSA04.jpg,AMSA04.jpg,MS,2,num_4,16,num_4,0.716770388302,,,2017_Jun_15_1903,60.006486045,MAFE4ImagesEEG,001,100695,
AFNE01.JPG,AFNE01.JPG,AFNE01.JPG,AFNE01.JPG,AFNE01.JPG,AFNE01.JPG,,,,,,,,,,,,,,,,,1,5,15,6,,,,,,,AMNE11.jpg,AMSA04.jpg,AMNE02.jpg,AMSA10.jpg,AMNE02.jpg,MN,1,num_2,32,num_6,0.666758825653,,,2017_Jun_15_1903,60.006486045,MAFE4ImagesEEG,001,100695,
AFNE01.JPG,AFNE01.JPG,AFNE01.JPG,AFNE01.JPG,AFNE01.JPG,AFNE01.JPG,,,,,,,,,,,,,,,,,1,6,16,4,,,,,,,AMSA14.jpg,AMNE17.jpg,AMNE13.jpg,AMSA02.jpg,AMNE17.jpg,MN,1,num_6,32,num_8,0.783523569,,,2017_Jun_15_1903,60.006486045,MAFE4ImagesEEG,001,100695,
AFNE01.JPG,AFNE01.JPG,AFNE01.JPG,AFNE01.JPG,AFNE01.JPG,AFNE01.JPG,,,,,,,,,,,,,,,,,1,7,17,0,,,,,,,AMNE20.jpg,AMNE13.jpg,AMSA14.jpg,AMSA12.jpg,AMSA12.jpg,MS,2,num_4,32,num_6,0.933508221642,,,2017_Jun_15_1903,60.006486045,MAFE4ImagesEEG,001,100695,
AFNE01.JPG,AFNE01.JPG,AFNE01.JPG,AFNE01.JPG,AFNE01.JPG,AFNE01.JPG,,,,,,,,,,,,,,,,,1,8,18,7,,,,,,,AMSA09.jpg,AMNE03.jpg,AMSA07.jpg,AMNE05.jpg,AMSA07.jpg,MS,2,num_2,16,num_2,1.58311071363,,,2017_Jun_15_1903,60.006486045,MAFE4ImagesEEG,001,100695,
AFNE01.JPG,AFNE01.JPG,AFNE01.JPG,AFNE01.JPG,AFNE01.JPG,AFNE01.JPG,,,,,,,,,,,,,,,,,1,9,19,9,,,,,,,AMNE01.jpg,AMSA18.jpg,AMSA17.jpg,AMNE13.jpg,AMNE13.jpg,MN,1,num_4,16,num_4,0.866759852041,,,2017_Jun_15_1903,60.006486045,MAFE4ImagesEEG,001,100695,
AFNE01.JPG,AFNE01.JPG,AFNE01.JPG,AFNE01.JPG,AFNE01.JPG,AFNE01.JPG,,,,,,,,,,,,,,,,,2,0,20,2,,,,,,,AMNE06.jpg,AMSA08.jpg,AMNE02.jpg,AMSA12.jpg,AMNE06.jpg,MN,1,num_8,32,num_4,1.40008384117,,,2017_Jun_15_1903,60.006486045,MAFE4ImagesEEG,001,100695,
AFNE01.JPG,AFNE01.JPG,AFNE01.JPG,AFNE01.JPG,AFNE01.JPG,AFNE01.JPG,,,,,,,,,,,,,,,,,2,1,21,3,,,,,,,AMSA11.jpg,AMSA12.jpg,AMNE12.jpg,AMNE09.jpg,AMNE09.jpg,MN,1,num_4,16,num_4,1.18345217255,,,2017_Jun_15_1903,60.006486045,MAFE4ImagesEEG,001,100695,
AFNE01.JPG,AFNE01.JPG,AFNE01.JPG,AFNE01.JPG,AFNE01.JPG,AFNE01.JPG,,,,,,,,,,,,,,,,,2,2,22,0,,,,,,,AMNE09.jpg,AMNE10.jpg,AMSA15.jpg,AMSA03.jpg,AMNE10.jpg,MN,1,num_6,32,num_8,1.49994595547,,,2017_Jun_15_1903,60.006486045,MAFE4ImagesEEG,001,100695,
AFNE01.JPG,AFNE01.JPG,AFNE01.JPG,AFNE01.JPG,AFNE01.JPG,AFNE01.JPG,,,,,,,,,,,,,,,,,2,3,23,5,,,,,,,AMNE08.jpg,AMNE04.jpg,AMSA07.jpg,AMSA06.jpg,AMSA07.jpg,MS,2,num_2,16,num_2,0.733458763687,,,2017_Jun_15_1903,60.006486045,MAFE4ImagesEEG,001,100695,
AFNE01.JPG,AFNE01.JPG,AFNE01.JPG,AFNE01.JPG,AFNE01.JPG,AFNE01.JPG,,,,,,,,,,,,,,,,,2,4,24,7,,,,,,,AMSA15.jpg,AMSA19.jpg,AMNE14.jpg,AMNE18.jpg,AMSA15.jpg,MS,2,num_8,32,num_4,0.916773018427,,,2017_Jun_15_1903,60.006486045,MAFE4ImagesEEG,001,100695,
AFNE01.JPG,AFNE01.JPG,AFNE01.JPG,AFNE01.JPG,AFNE01.JPG,AFNE01.JPG,,,,,,,,,,,,,,,,,2,5,25,6,,,,,,,AMNE03.jpg,AMNE09.jpg,AMSA04.jpg,AMSA06.jpg,AMNE03.jpg,MN,1,num_8,32,num_4,1.00008692034,,,2017_Jun_15_1903,60.006486045,MAFE4ImagesEEG,001,100695,
AFNE01.JPG,AFNE01.JPG,AFNE01.JPG,AFNE01.JPG,AFNE01.JPG,AFNE01.JPG,,,,,,,,,,,,,,,,,2,6,26,8,,,,,,,AMNE11.jpg,AMNE09.jpg,AMSA20.jpg,AMSA14.jpg,AMSA14.jpg,MS,2,num_4,16,num_4,0.716797971865,,,2017_Jun_15_1903,60.006486045,MAFE4ImagesEEG,001,100695,
AFNE01.JPG,AFNE01.JPG,AFNE01.JPG,AFNE01.JPG,AFNE01.JPG,AFNE01.JPG,,,,,,,,,,,,,,,,,2,7,27,1,,,,,,,AMSA18.jpg,AMSA20.jpg,AMNE16.jpg,AMNE06.jpg,AMNE06.jpg,MN,1,num_4,32,num_2,0.700140708243,,,2017_Jun_15_1903,60.006486045,MAFE4ImagesEEG,001,100695,
AFNE01.JPG,AFNE01.JPG,AFNE01.JPG,AFNE01.JPG,AFNE01.JPG,AFNE01.JPG,,,,,,,,,,,,,,,,,2,8,28,9,,,,,,,AMSA16.jpg,AMNE05.jpg,AMSA11.jpg,AMNE17.jpg,AMNE05.jpg,MN,1,num_6,32,num_4,0.700139104505,,,2017_Jun_15_1903,60.006486045,MAFE4ImagesEEG,001,100695,
AFNE01.JPG,AFNE01.JPG,AFNE01.JPG,AFNE01.JPG,AFNE01.JPG,AFNE01.JPG,,,,,,,,,,,,,,,,,2,9,29,4,,,,,,,AMNE17.jpg,AMSA15.jpg,AMSA16.jpg,AMNE19.jpg,AMSA16.jpg,MS,2,num_2,32,num_4,0.716788670397,,,2017_Jun_15_1903,60.006486045,MAFE4ImagesEEG,001,100695,
AFNE01.JPG,AFNE01.JPG,AFNE01.JPG,AFNE01.JPG,AFNE01.JPG,AFNE01.JPG,,,,,,,,,,,,,,,,,3,0,30,5,,,,,,,AMNE03.jpg,AMSA01.jpg,AMNE09.jpg,AMSA20.jpg,AMNE09.jpg,MN,1,num_2,32,num_4,0.683432447142,,,2017_Jun_15_1903,60.006486045,MAFE4ImagesEEG,001,100695,
AFNE01.JPG,AFNE01.JPG,AFNE01.JPG,AFNE01.JPG,AFNE01.JPG,AFNE01.JPG,,,,,,,,,,,,,,,,,3,1,31,1,,,,,,,AMNE15.jpg,AMSA04.jpg,AMNE18.jpg,AMSA15.jpg,AMSA04.jpg,MS,2,num_6,16,num_6,0.800064404379,,,2017_Jun_15_1903,60.006486045,MAFE4ImagesEEG,001,100695,
AFNE01.JPG,AFNE01.JPG,AFNE01.JPG,AFNE01.JPG,AFNE01.JPG,AFNE01.JPG,,,,,,,,,,,,,,,,,3,2,32,6,,,,,,,AMNE06.jpg,AMSA08.jpg,AMNE01.jpg,AMSA01.jpg,AMSA01.jpg,MS,2,num_4,16,num_4,1.1668350012,,,2017_Jun_15_1903,60.006486045,MAFE4ImagesEEG,001,100695,
AFNE01.JPG,AFNE01.JPG,AFNE01.JPG,AFNE01.JPG,AFNE01.JPG,AFNE01.JPG,,,,,,,,,,,,,,,,,3,3,33,3,,,,,,,AMNE04.jpg,AMSA09.jpg,AMNE01.jpg,AMSA13.jpg,AMSA09.jpg,MS,2,num_6,16,num_6,1.18341753271,,,2017_Jun_15_1903,60.006486045,MAFE4ImagesEEG,001,100695,
AFNE01.JPG,AFNE01.JPG,AFNE01.JPG,AFNE01.JPG,AFNE01.JPG,AFNE01.JPG,,,,,,,,,,,,,,,,,3,4,34,0,,,,,,,AMNE01.jpg,AMSA20.jpg,AMSA11.jpg,AMNE13.jpg,AMSA11.jpg,MS,2,num_2,16,num_2,0.800096157589,,,2017_Jun_15_1903,60.006486045,MAFE4ImagesEEG,001,100695,
AFNE01.JPG,AFNE01.JPG,AFNE01.JPG,AFNE01.JPG,AFNE01.JPG,AFNE01.JPG,,,,,,,,,,,,,,,,,3,5,35,7,,,,,,,AMNE20.jpg,AMSA04.jpg,AMNE05.jpg,AMSA15.jpg,AMNE05.jpg,MN,1,num_2,16,num_2,0.950103582698,,,2017_Jun_15_1903,60.006486045,MAFE4ImagesEEG,001,100695,
AFNE01.JPG,AFNE01.JPG,AFNE01.JPG,AFNE01.JPG,AFNE01.JPG,AFNE01.JPG,,,,,,,,,,,,,,,,,3,6,36,8,,,,,,,AMNE07.jpg,AMSA06.jpg,AMNE14.jpg,AMSA02.jpg,AMSA06.jpg,MS,2,num_6,32,num_8,0.883465547347,,,2017_Jun_15_1903,60.006486045,MAFE4ImagesEEG,001,100695,
AFNE01.JPG,AFNE01.JPG,AFNE01.JPG,AFNE01.JPG,AFNE01.JPG,AFNE01.JPG,,,,,,,,,,,,,,,,,3,7,37,9,,,,,,,AMNE16.jpg,AMSA15.jpg,AMNE04.jpg,AMSA02.jpg,AMSA15.jpg,MS,2,num_6,16,num_6,0.950163560919,,,2017_Jun_15_1903,60.006486045,MAFE4ImagesEEG,001,100695,
AFNE01.JPG,AFNE01.JPG,AFNE01.JPG,AFNE01.JPG,AFNE01.JPG,AFNE01.JPG,,,,,,,,,,,,,,,,,3,8,38,4,,,,,,,AMNE06.jpg,AMSA13.jpg,AMNE12.jpg,AMSA14.jpg,AMNE12.jpg,MN,1,num_2,16,num_2,1.78337282164,,,2017_Jun_15_1903,60.006486045,MAFE4ImagesEEG,001,100695,
AFNE01.JPG,AFNE01.JPG,AFNE01.JPG,AFNE01.JPG,AFNE01.JPG,AFNE01.JPG,,,,,,,,,,,,,,,,,3,9,39,2,,,,,,,AMNE18.jpg,AMSA03.jpg,AMNE12.jpg,AMSA13.jpg,AMSA03.jpg,MS,2,num_6,16,num_6,0.566718059825,,,2017_Jun_15_1903,60.006486045,MAFE4ImagesEEG,001,100695,
AFNE01.JPG,AFNE01.JPG,AFNE01.JPG,AFNE01.JPG,AFNE01.JPG,AFNE01.JPG,,,,,,,,,,,,,,,,,4,0,40,5,,,,,,,AMSA15.jpg,AMNE13.jpg,AMNE11.jpg,AMSA09.jpg,AMNE13.jpg,MN,1,num_6,32,num_2,0.966735828668,,,2017_Jun_15_1903,60.006486045,MAFE4ImagesEEG,001,100695,
AFNE01.JPG,AFNE01.JPG,AFNE01.JPG,AFNE01.JPG,AFNE01.JPG,AFNE01.JPG,,,,,,,,,,,,,,,,,4,1,41,9,,,,,,,AMNE03.jpg,AMNE20.jpg,AMSA09.jpg,AMSA13.jpg,AMSA09.jpg,MS,2,num_2,16,num_2,1.01666207472,,,2017_Jun_15_1903,60.006486045,MAFE4ImagesEEG,001,100695,
AFNE01.JPG,AFNE01.JPG,AFNE01.JPG,AFNE01.JPG,AFNE01.JPG,AFNE01.JPG,,,,,,,,,,,,,,,,,4,2,42,0,,,,,,,AMNE17.jpg,AMSA09.jpg,AMSA01.jpg,AMNE09.jpg,AMNE17.jpg,MN,1,num_8,32,num_4,1.05006320169,,,2017_Jun_15_1903,60.006486045,MAFE4ImagesEEG,001,100695,
AFNE01.JPG,AFNE01.JPG,AFNE01.JPG,AFNE01.JPG,AFNE01.JPG,AFNE01.JPG,,,,,,,,,,,,,,,,,4,3,43,3,,,,,,,AMNE05.jpg,AMSA16.jpg,AMSA12.jpg,AMNE07.jpg,AMNE05.jpg,MN,1,num_8,32,num_2,0.550112114404,,,2017_Jun_15_1903,60.006486045,MAFE4ImagesEEG,001,100695,
AFNE01.JPG,AFNE01.JPG,AFNE01.JPG,AFNE01.JPG,AFNE01.JPG,AFNE01.JPG,,,,,,,,,,,,,,,,,4,4,44,8,,,,,,,AMNE02.jpg,AMNE05.jpg,AMSA15.jpg,AMSA19.jpg,AMSA15.jpg,MS,2,num_2,32,num_8,0.900188241736,,,2017_Jun_15_1903,60.006486045,MAFE4ImagesEEG,001,100695,
AFNE01.JPG,AFNE01.JPG,AFNE01.JPG,AFNE01.JPG,AFNE01.JPG,AFNE01.JPG,,,,,,,,,,,,,,,,,4,5,45,7,,,,,,,AMNE19.jpg,AMNE13.jpg,AMSA04.jpg,AMSA16.jpg,AMNE19.jpg,MN,1,num_8,16,num_8,1.10011966771,,,2017_Jun_15_1903,60.006486045,MAFE4ImagesEEG,001,100695,
AFNE01.JPG,AFNE01.JPG,AFNE01.JPG,AFNE01.JPG,AFNE01.JPG,AFNE01.JPG,,,,,,,,,,,,,,,,,4,6,46,1,,,,,,,AMNE13.jpg,AMSA02.jpg,AMNE14.jpg,AMSA16.jpg,AMSA16.jpg,MS,2,num_4,16,num_4,0.766780988779,,,2017_Jun_15_1903,60.006486045,MAFE4ImagesEEG,001,100695,
AFNE01.JPG,AFNE01.JPG,AFNE01.JPG,AFNE01.JPG,AFNE01.JPG,AFNE01.JPG,,,,,,,,,,,,,,,,,4,7,47,2,,,,,,,AMSA15.jpg,AMNE12.jpg,AMSA11.jpg,AMNE09.jpg,AMSA11.jpg,MS,2,num_2,32,num_6,2.35006169416,,,2017_Jun_15_1903,60.006486045,MAFE4ImagesEEG,001,100695,
AFNE01.JPG,AFNE01.JPG,AFNE01.JPG,AFNE01.JPG,AFNE01.JPG,AFNE01.JPG,,,,,,,,,,,,,,,,,4,8,48,4,,,,,,,AMSA02.jpg,AMNE12.jpg,AMSA20.jpg,AMNE15.jpg,AMNE15.jpg,MN,1,num_4,16,num_4,0.700103181764,,,2017_Jun_15_1903,60.006486045,MAFE4ImagesEEG,001,100695,
AFNE01.JPG,AFNE01.JPG,AFNE01.JPG,AFNE01.JPG,AFNE01.JPG,AFNE01.JPG,,,,,,,,,,,,,,,,,4,9,49,6,,,,,,,AMNE06.jpg,AMNE13.jpg,AMSA07.jpg,AMSA18.jpg,AMNE06.jpg,MN,1,num_8,32,num_6,0.850122794975,,,2017_Jun_15_1903,60.006486045,MAFE4ImagesEEG,001,100695,
AFNE01.JPG,AFNE01.JPG,AFNE01.JPG,AFNE01.JPG,AFNE01.JPG,AFNE01.JPG,,,,,,,,,,,,,,,,,5,0,50,7,,,,,,,AMNE15.jpg,AMNE20.jpg,AMSA17.jpg,AMSA02.jpg,AMSA17.jpg,MS,2,num_2,32,num_6,1.06676023698,,,2017_Jun_15_1903,60.006486045,MAFE4ImagesEEG,001,100695,
AFNE01.JPG,AFNE01.JPG,AFNE01.JPG,AFNE01.JPG,AFNE01.JPG,AFNE01.JPG,,,,,,,,,,,,,,,,,5,1,51,3,,,,,,,AMNE05.jpg,AMNE04.jpg,AMSA03.jpg,AMSA10.jpg,AMSA10.jpg,MS,2,num_4,16,num_4,0.63347156113,,,2017_Jun_15_1903,60.006486045,MAFE4ImagesEEG,001,100695,
AFNE01.JPG,AFNE01.JPG,AFNE01.JPG,AFNE01.JPG,AFNE01.JPG,AFNE01.JPG,,,,,,,,,,,,,,,,,5,2,52,4,,,,,,,AMSA04.jpg,AMSA06.jpg,AMNE13.jpg,AMNE03.jpg,AMSA06.jpg,MS,2,num_6,16,num_6,0.633480862598,,,2017_Jun_15_1903,60.006486045,MAFE4ImagesEEG,001,100695,
AFNE01.JPG,AFNE01.JPG,AFNE01.JPG,AFNE01.JPG,AFNE01.JPG,AFNE01.JPG,,,,,,,,,,,,,,,,,5,3,53,6,,,,,,,AMSA11.jpg,AMSA08.jpg,AMNE18.jpg,AMNE05.jpg,AMNE05.jpg,MN,1,num_4,16,num_4,0.499979953747,,,2017_Jun_15_1903,60.006486045,MAFE4ImagesEEG,001,100695,
AFNE01.JPG,AFNE01.JPG,AFNE01.JPG,AFNE01.JPG,AFNE01.JPG,AFNE01.JPG,,,,,,,,,,,,,,,,,5,4,54,5,,,,,,,AMNE03.jpg,AMSA09.jpg,AMSA15.jpg,AMNE05.jpg,AMSA15.jpg,MS,2,num_2,16,num_2,1.06676472735,,,2017_Jun_15_1903,60.006486045,MAFE4ImagesEEG,001,100695,
AFNE01.JPG,AFNE01.JPG,AFNE01.JPG,AFNE01.JPG,AFNE01.JPG,AFNE01.JPG,,,,,,,,,,,,,,,,,5,5,55,1,,,,,,,AMSA17.jpg,AMNE18.jpg,AMNE01.jpg,AMSA14.jpg,AMNE01.jpg,MN,1,num_2,32,num_4,0.650115353754,,,2017_Jun_15_1903,60.006486045,MAFE4ImagesEEG,001,100695,
AFNE01.JPG,AFNE01.JPG,AFNE01.JPG,AFNE01.JPG,AFNE01.JPG,AFNE01.JPG,,,,,,,,,,,,,,,,,5,6,56,2,,,,,,,AMSA06.jpg,AMNE06.jpg,AMSA10.jpg,AMNE18.jpg,AMNE06.jpg,MN,1,num_6,16,num_6,0.76682043972,,,2017_Jun_15_1903,60.006486045,MAFE4ImagesEEG,001,100695,
AFNE01.JPG,AFNE01.JPG,AFNE01.JPG,AFNE01.JPG,AFNE01.JPG,AFNE01.JPG,,,,,,,,,,,,,,,,,5,7,57,9,,,,,,,AMSA17.jpg,AMSA10.jpg,AMNE02.jpg,AMNE09.jpg,AMSA17.jpg,MS,2,num_8,16,num_8,0.700126595679,,,2017_Jun_15_1903,60.006486045,MAFE4ImagesEEG,001,100695,
AFNE01.JPG,AFNE01.JPG,AFNE01.JPG,AFNE01.JPG,AFNE01.JPG,AFNE01.JPG,,,,,,,,,,,,,,,,,5,8,58,0,,,,,,,AMNE16.jpg,AMNE11.jpg,AMSA02.jpg,AMSA08.jpg,AMNE16.jpg,MN,1,num_8,32,num_2,1.46673759283,,,2017_Jun_15_1903,60.006486045,MAFE4ImagesEEG,001,100695,
AFNE01.JPG,AFNE01.JPG,AFNE01.JPG,AFNE01.JPG,AFNE01.JPG,AFNE01.JPG,,,,,,,,,,,,,,,,,5,9,59,8,,,,,,,AMNE01.jpg,AMSA11.jpg,AMNE10.jpg,AMSA16.jpg,AMSA11.jpg,MS,2,num_6,16,num_6,0.566772906226,,,2017_Jun_15_1903,60.006486045,MAFE4ImagesEEG,001,100695,
,,,,,,,,,,,,,,,,,,,,,,,,,,,,,,,,,,,,,,,,,,,space,27.4977152152,2017_Jun_15_1903,60.006486045,MAFE4ImagesEEG,001,100695,
AFNE01.JPG,AFNE01.JPG,AFNE01.JPG,AFNE01.JPG,AFNE01.JPG,AFNE01.JPG,,,,,,,,,,,,,,,,,,,,,0,0,0,2,,,AFNE07.jpg,AFSA07.jpg,AFNE06.jpg,AFSA01.jpg,AFNE06.jpg,FN,3,num_2,32,num_6,1.06678878271,,,2017_Jun_15_1903,60.006486045,MAFE4ImagesEEG,001,100695,
AFNE01.JPG,AFNE01.JPG,AFNE01.JPG,AFNE01.JPG,AFNE01.JPG,AFNE01.JPG,,,,,,,,,,,,,,,,,,,,,0,1,1,0,,,AFNE03.jpg,AFNE05.jpg,AFSA05.jpg,AFSA10.jpg,AFSA05.jpg,FS,4,num_2,32,num_4,1.53341411683,,,2017_Jun_15_1903,60.006486045,MAFE4ImagesEEG,001,100695,
AFNE01.JPG,AFNE01.JPG,AFNE01.JPG,AFNE01.JPG,AFNE01.JPG,AFNE01.JPG,,,,,,,,,,,,,,,,,,,,,0,2,2,4,,,AFSA14.jpg,AFSA08.jpg,AFNE06.jpg,AFNE05.jpg,AFNE06.jpg,FN,3,num_2,32,num_8,0.983429977321,,,2017_Jun_15_1903,60.006486045,MAFE4ImagesEEG,001,100695,
AFNE01.JPG,AFNE01.JPG,AFNE01.JPG,AFNE01.JPG,AFNE01.JPG,AFNE01.JPG,,,,,,,,,,,,,,,,,,,,,0,3,3,7,,,AFNE03.jpg,AFSA13.jpg,AFSA16.jpg,AFNE20.jpg,AFNE03.jpg,FN,3,num_8,32,num_2,1.35009312653,,,2017_Jun_15_1903,60.006486045,MAFE4ImagesEEG,001,100695,
AFNE01.JPG,AFNE01.JPG,AFNE01.JPG,AFNE01.JPG,AFNE01.JPG,AFNE01.JPG,,,,,,,,,,,,,,,,,,,,,0,4,4,1,,,AFNE04.jpg,AFNE03.jpg,AFSA10.jpg,AFSA15.jpg,AFSA15.jpg,FS,4,num_4,16,num_4,0.933463959605,,,2017_Jun_15_1903,60.006486045,MAFE4ImagesEEG,001,100695,
AFNE01.JPG,AFNE01.JPG,AFNE01.JPG,AFNE01.JPG,AFNE01.JPG,AFNE01.JPG,,,,,,,,,,,,,,,,,,,,,0,5,5,9,,,AFSA15.jpg,AFSA08.jpg,AFNE14.jpg,AFNE05.jpg,AFNE05.jpg,FN,3,num_4,16,num_4,0.966731017572,,,2017_Jun_15_1903,60.006486045,MAFE4ImagesEEG,001,100695,
AFNE01.JPG,AFNE01.JPG,AFNE01.JPG,AFNE01.JPG,AFNE01.JPG,AFNE01.JPG,,,,,,,,,,,,,,,,,,,,,0,6,6,8,,,AFNE05.jpg,AFNE08.jpg,AFSA05.jpg,AFSA07.jpg,AFNE05.jpg,FN,3,num_8,32,num_2,0.850182773196,,,2017_Jun_15_1903,60.006486045,MAFE4ImagesEEG,001,100695,
AFNE01.JPG,AFNE01.JPG,AFNE01.JPG,AFNE01.JPG,AFNE01.JPG,AFNE01.JPG,,,,,,,,,,,,,,,,,,,,,0,7,7,6,,,AFSA12.jpg,AFSA20.jpg,AFNE18.jpg,AFNE04.jpg,AFSA12.jpg,FS,4,num_8,32,num_2,0.966830767458,,,2017_Jun_15_1903,60.006486045,MAFE4ImagesEEG,001,100695,
AFNE01.JPG,AFNE01.JPG,AFNE01.JPG,AFNE01.JPG,AFNE01.JPG,AFNE01.JPG,,,,,,,,,,,,,,,,,,,,,0,8,8,5,,,AFSA05.jpg,AFSA17.jpg,AFNE11.jpg,AFNE07.jpg,AFNE07.jpg,FN,3,num_4,16,num_4,0.933440866531,,,2017_Jun_15_1903,60.006486045,MAFE4ImagesEEG,001,100695,
AFNE01.JPG,AFNE01.JPG,AFNE01.JPG,AFNE01.JPG,AFNE01.JPG,AFNE01.JPG,,,,,,,,,,,,,,,,,,,,,0,9,9,3,,,AFNE15.jpg,AFNE07.jpg,AFSA17.jpg,AFSA15.jpg,AFSA17.jpg,FS,4,num_2,16,num_2,0.916763075511,,,2017_Jun_15_1903,60.006486045,MAFE4ImagesEEG,001,100695,
AFNE01.JPG,AFNE01.JPG,AFNE01.JPG,AFNE01.JPG,AFNE01.JPG,AFNE01.JPG,,,,,,,,,,,,,,,,,,,,,1,0,10,8,,,AFNE03.jpg,AFSA10.jpg,AFNE20.jpg,AFSA06.jpg,AFNE20.jpg,FN,3,num_2,16,num_2,1.70010286104,,,2017_Jun_15_1903,60.006486045,MAFE4ImagesEEG,001,100695,
AFNE01.JPG,AFNE01.JPG,AFNE01.JPG,AFNE01.JPG,AFNE01.JPG,AFNE01.JPG,,,,,,,,,,,,,,,,,,,,,1,1,11,0,,,AFNE19.jpg,AFSA06.jpg,AFSA13.jpg,AFNE08.jpg,AFSA13.jpg,FS,4,num_2,16,num_2,1.06714480312,,,2017_Jun_15_1903,60.006486045,MAFE4ImagesEEG,001,100695,
AFNE01.JPG,AFNE01.JPG,AFNE01.JPG,AFNE01.JPG,AFNE01.JPG,AFNE01.JPG,,,,,,,,,,,,,,,,,,,,,1,2,12,9,,,AFSA02.jpg,AFNE06.jpg,AFNE09.jpg,AFSA03.jpg,AFNE06.jpg,FN,3,num_6,32,num_2,1.23347431957,,,2017_Jun_15_1903,60.006486045,MAFE4ImagesEEG,001,100695,
AFNE01.JPG,AFNE01.JPG,AFNE01.JPG,AFNE01.JPG,AFNE01.JPG,AFNE01.JPG,,,,,,,,,,,,,,,,,,,,,1,3,13,1,,,AFNE13.jpg,AFSA11.jpg,AFNE19.jpg,AFSA10.jpg,AFSA10.jpg,FS,4,num_4,32,num_2,1.15008023288,,,2017_Jun_15_1903,60.006486045,MAFE4ImagesEEG,001,100695,
AFNE01.JPG,AFNE01.JPG,AFNE01.JPG,AFNE01.JPG,AFNE01.JPG,AFNE01.JPG,,,,,,,,,,,,,,,,,,,,,1,4,14,3,,,AFNE07.jpg,AFNE09.jpg,AFSA18.jpg,AFSA13.jpg,AFSA13.jpg,FS,4,num_4,16,num_4,1.70008457894,,,2017_Jun_15_1903,60.006486045,MAFE4ImagesEEG,001,100695,
AFNE01.JPG,AFNE01.JPG,AFNE01.JPG,AFNE01.JPG,AFNE01.JPG,AFNE01.JPG,,,,,,,,,,,,,,,,,,,,,1,5,15,4,,,AFNE13.jpg,AFSA08.jpg,AFSA14.jpg,AFNE18.jpg,AFNE18.jpg,FN,3,num_4,32,num_2,1.35012167238,,,2017_Jun_15_1903,60.006486045,MAFE4ImagesEEG,001,100695,
AFNE01.JPG,AFNE01.JPG,AFNE01.JPG,AFNE01.JPG,AFNE01.JPG,AFNE01.JPG,,,,,,,,,,,,,,,,,,,,,1,6,16,7,,,AFNE08.jpg,AFNE12.jpg,AFSA14.jpg,AFSA19.jpg,AFSA14.jpg,FS,4,num_2,16,num_2,0.983462372096,,,2017_Jun_15_1903,60.006486045,MAFE4ImagesEEG,001,100695,
AFNE01.JPG,AFNE01.JPG,AFNE01.JPG,AFNE01.JPG,AFNE01.JPG,AFNE01.JPG,,,,,,,,,,,,,,,,,,,,,1,7,17,5,,,AFNE07.jpg,AFSA20.jpg,AFNE08.jpg,AFSA05.jpg,AFSA05.jpg,FS,4,num_4,16,num_4,1.3667324289,,,2017_Jun_15_1903,60.006486045,MAFE4ImagesEEG,001,100695,
AFNE01.JPG,AFNE01.JPG,AFNE01.JPG,AFNE01.JPG,AFNE01.JPG,AFNE01.JPG,,,,,,,,,,,,,,,,,,,,,1,8,18,2,,,AFNE15.jpg,AFNE02.jpg,AFSA20.jpg,AFSA10.jpg,AFSA10.jpg,FS,4,num_4,32,num_2,1.14979509579,,,2017_Jun_15_1903,60.006486045,MAFE4ImagesEEG,001,100695,
AFNE01.JPG,AFNE01.JPG,AFNE01.JPG,AFNE01.JPG,AFNE01.JPG,AFNE01.JPG,,,,,,,,,,,,,,,,,,,,,1,9,19,6,,,AFNE09.jpg,AFSA10.jpg,AFNE17.jpg,AFSA16.jpg,AFNE17.jpg,FN,3,num_2,32,num_8,1.08338350221,,,2017_Jun_15_1903,60.006486045,MAFE4ImagesEEG,001,100695,
AFNE01.JPG,AFNE01.JPG,AFNE01.JPG,AFNE01.JPG,AFNE01.JPG,AFNE01.JPG,,,,,,,,,,,,,,,,,,,,,2,0,20,1,,,AFSA20.jpg,AFNE13.jpg,AFNE06.jpg,AFSA10.jpg,AFNE13.jpg,FN,3,num_6,32,num_2,0.983430298162,,,2017_Jun_15_1903,60.006486045,MAFE4ImagesEEG,001,100695,
AFNE01.JPG,AFNE01.JPG,AFNE01.JPG,AFNE01.JPG,AFNE01.JPG,AFNE01.JPG,,,,,,,,,,,,,,,,,,,,,2,1,21,0,,,AFSA17.jpg,AFNE17.jpg,AFSA01.jpg,AFNE12.jpg,AFNE17.jpg,FN,3,num_6,32,num_4,1.01678331406,,,2017_Jun_15_1903,60.006486045,MAFE4ImagesEEG,001,100695,
AFNE01.JPG,AFNE01.JPG,AFNE01.JPG,AFNE01.JPG,AFNE01.JPG,AFNE01.JPG,,,,,,,,,,,,,,,,,,,,,2,2,22,9,,,AFNE15.jpg,AFNE18.jpg,AFSA13.jpg,AFSA06.jpg,AFSA13.jpg,FS,4,num_2,32,num_4,0.799956956762,,,2017_Jun_15_1903,60.006486045,MAFE4ImagesEEG,001,100695,
AFNE01.JPG,AFNE01.JPG,AFNE01.JPG,AFNE01.JPG,AFNE01.JPG,AFNE01.JPG,,,,,,,,,,,,,,,,,,,,,2,3,23,6,,,AFSA14.jpg,AFSA02.jpg,AFNE11.jpg,AFNE05.jpg,AFSA14.jpg,FS,4,num_8,32,num_2,1.41672538873,,,2017_Jun_15_1903,60.006486045,MAFE4ImagesEEG,001,100695,
AFNE01.JPG,AFNE01.JPG,AFNE01.JPG,AFNE01.JPG,AFNE01.JPG,AFNE01.JPG,,,,,,,,,,,,,,,,,,,,,2,4,24,4,,,AFSA10.jpg,AFSA02.jpg,AFNE20.jpg,AFNE12.jpg,AFSA10.jpg,FS,4,num_8,16,num_8,1.28344354464,,,2017_Jun_15_1903,60.006486045,MAFE4ImagesEEG,001,100695,
AFNE01.JPG,AFNE01.JPG,AFNE01.JPG,AFNE01.JPG,AFNE01.JPG,AFNE01.JPG,,,,,,,,,,,,,,,,,,,,,2,5,25,7,,,AFSA03.jpg,AFNE11.jpg,AFNE03.jpg,AFSA17.jpg,AFSA03.jpg,FS,4,num_8,32,num_6,2.41666605184,,,2017_Jun_15_1903,60.006486045,MAFE4ImagesEEG,001,100695,
AFNE01.JPG,AFNE01.JPG,AFNE01.JPG,AFNE01.JPG,AFNE01.JPG,AFNE01.JPG,,,,,,,,,,,,,,,,,,,,,2,6,26,5,,,AFNE04.jpg,AFSA20.jpg,AFSA10.jpg,AFNE01.jpg,AFNE01.jpg,FN,3,num_4,16,num_4,0.950069905026,,,2017_Jun_15_1903,60.006486045,MAFE4ImagesEEG,001,100695,
AFNE01.JPG,AFNE01.JPG,AFNE01.JPG,AFNE01.JPG,AFNE01.JPG,AFNE01.JPG,,,,,,,,,,,,,,,,,,,,,2,7,27,2,,,AFNE11.jpg,AFNE10.jpg,AFSA04.jpg,AFSA18.jpg,AFSA04.jpg,FS,4,num_2,16,num_2,0.800087497686,,,2017_Jun_15_1903,60.006486045,MAFE4ImagesEEG,001,100695,
AFNE01.JPG,AFNE01.JPG,AFNE01.JPG,AFNE01.JPG,AFNE01.JPG,AFNE01.JPG,,,,,,,,,,,,,,,,,,,,,2,8,28,3,,,AFNE09.jpg,AFSA20.jpg,AFSA08.jpg,AFNE08.jpg,AFNE08.jpg,FN,3,num_4,16,num_4,0.916786168702,,,2017_Jun_15_1903,60.006486045,MAFE4ImagesEEG,001,100695,
AFNE01.JPG,AFNE01.JPG,AFNE01.JPG,AFNE01.JPG,AFNE01.JPG,AFNE01.JPG,,,,,,,,,,,,,,,,,,,,,2,9,29,8,,,AFSA20.jpg,AFNE16.jpg,AFNE20.jpg,AFSA01.jpg,AFSA01.jpg,FS,4,num_4,32,num_6,1.36684789497,,,2017_Jun_15_1903,60.006486045,MAFE4ImagesEEG,001,100695,
AFNE01.JPG,AFNE01.JPG,AFNE01.JPG,AFNE01.JPG,AFNE01.JPG,AFNE01.JPG,,,,,,,,,,,,,,,,,,,,,3,0,30,6,,,AFNE14.jpg,AFSA01.jpg,AFSA10.jpg,AFNE07.jpg,AFSA10.jpg,FS,4,num_2,16,num_2,2.20007062668,,,2017_Jun_15_1903,60.006486045,MAFE4ImagesEEG,001,100695,
AFNE01.JPG,AFNE01.JPG,AFNE01.JPG,AFNE01.JPG,AFNE01.JPG,AFNE01.JPG,,,,,,,,,,,,,,,,,,,,,3,1,31,4,,,AFNE20.jpg,AFSA12.jpg,AFNE11.jpg,AFSA09.jpg,AFSA09.jpg,FS,4,num_4,16,num_4,0.533501037164,,,2017_Jun_15_1903,60.006486045,MAFE4ImagesEEG,001,100695,
AFNE01.JPG,AFNE01.JPG,AFNE01.JPG,AFNE01.JPG,AFNE01.JPG,AFNE01.JPG,,,,,,,,,,,,,,,,,,,,,3,2,32,1,,,AFSA03.jpg,AFNE16.jpg,AFNE06.jpg,AFSA06.jpg,AFSA03.jpg,FS,4,num_8,32,num_4,1.39998120465,,,2017_Jun_15_1903,60.006486045,MAFE4ImagesEEG,001,100695,
AFNE01.JPG,AFNE01.JPG,AFNE01.JPG,AFNE01.JPG,AFNE01.JPG,AFNE01.JPG,,,,,,,,,,,,,,,,,,,,,3,3,33,8,,,AFSA03.jpg,AFNE11.jpg,AFNE20.jpg,AFSA14.jpg,AFNE11.jpg,FN,3,num_6,32,num_8,0.866779417149,,,2017_Jun_15_1903,60.006486045,MAFE4ImagesEEG,001,100695,
AFNE01.JPG,AFNE01.JPG,AFNE01.JPG,AFNE01.JPG,AFNE01.JPG,AFNE01.JPG,,,,,,,,,,,,,,,,,,,,,3,4,34,9,,,AFSA18.jpg,AFNE03.jpg,AFSA19.jpg,AFNE04.jpg,AFNE03.jpg,FN,3,num_6,32,num_2,0.800166720175,,,2017_Jun_15_1903,60.006486045,MAFE4ImagesEEG,001,100695,
AFNE01.JPG,AFNE01.JPG,AFNE01.JPG,AFNE01.JPG,AFNE01.JPG,AFNE01.JPG,,,,,,,,,,,,,,,,,,,,,3,5,35,5,,,AFSA05.jpg,AFNE12.jpg,AFNE15.jpg,AFSA07.jpg,AFNE12.jpg,FN,3,num_6,16,num_6,1.16673493071,,,2017_Jun_15_1903,60.006486045,MAFE4ImagesEEG,001,100695,
AFNE01.JPG,AFNE01.JPG,AFNE01.JPG,AFNE01.JPG,AFNE01.JPG,AFNE01.JPG,,,,,,,,,,,,,,,,,,,,,3,6,36,3,,,AFNE18.jpg,AFSA15.jpg,AFNE04.jpg,AFSA14.jpg,AFNE04.jpg,FN,3,num_2,32,num_4,1.63338881044,,,2017_Jun_15_1903,60.006486045,MAFE4ImagesEEG,001,100695,
AFNE01.JPG,AFNE01.JPG,AFNE01.JPG,AFNE01.JPG,AFNE01.JPG,AFNE01.JPG,,,,,,,,,,,,,,,,,,,,,3,7,37,0,,,AFNE16.jpg,AFSA07.jpg,AFSA06.jpg,AFNE20.jpg,AFNE16.jpg,FN,3,num_8,16,num_8,1.15010685415,,,2017_Jun_15_1903,60.006486045,MAFE4ImagesEEG,001,100695,
AFNE01.JPG,AFNE01.JPG,AFNE01.JPG,AFNE01.JPG,AFNE01.JPG,AFNE01.JPG,,,,,,,,,,,,,,,,,,,,,3,8,38,2,,,AFSA16.jpg,AFNE10.jpg,AFSA08.jpg,AFNE04.jpg,AFSA08.jpg,FS,4,num_2,16,num_2,1.20028423902,,,2017_Jun_15_1903,60.006486045,MAFE4ImagesEEG,001,100695,
AFNE01.JPG,AFNE01.JPG,AFNE01.JPG,AFNE01.JPG,AFNE01.JPG,AFNE01.JPG,,,,,,,,,,,,,,,,,,,,,3,9,39,7,,,AFNE10.jpg,AFSA16.jpg,AFSA10.jpg,AFNE12.jpg,AFSA10.jpg,FS,4,num_2,32,num_4,1.03344282298,,,2017_Jun_15_1903,60.006486045,MAFE4ImagesEEG,001,100695,
AFNE01.JPG,AFNE01.JPG,AFNE01.JPG,AFNE01.JPG,AFNE01.JPG,AFNE01.JPG,,,,,,,,,,,,,,,,,,,,,4,0,40,9,,,AFNE16.jpg,AFNE08.jpg,AFSA12.jpg,AFSA13.jpg,AFSA12.jpg,FS,4,num_2,16,num_2,0.78347064706,,,2017_Jun_15_1903,60.006486045,MAFE4ImagesEEG,001,100695,
