IPosition2,IPosition3,IPosition1,IPosition6,IPosition4,IPosition5,TrialsM1.thisRepN,TrialsM1.thisTrialN,TrialsM1.thisN,TrialsM1.thisIndex,TrialsF1.thisRepN,TrialsF1.thisTrialN,TrialsF1.thisN,TrialsF1.thisIndex,TrialsM2.thisRepN,TrialsM2.thisTrialN,TrialsM2.thisN,TrialsM2.thisIndex,TrialsF2.thisRepN,TrialsF2.thisTrialN,TrialsF2.thisN,TrialsF2.thisIndex,TrialsM3.thisRepN,TrialsM3.thisTrialN,TrialsM3.thisN,TrialsM3.thisIndex,TrialsF3.thisRepN,TrialsF3.thisTrialN,TrialsF3.thisN,TrialsF3.thisIndex,InstrKey_resp.keys,InstrKey_resp.rt,Image0 _Position,Image1 _Position,Image2 _Position,Image3 _Position,Center_image,condition,code,correct_answer,accuracy,Key_Resp.keys,Key_Resp.rt,BreakKey_resp.keys,BreakKey_resp.rt,date,frameRate,expName,session,participant,
,,,,,,,,,,,,,,,,,,,,,,,,,,,,,,space,18.4491979896,,,,,,,,,,,,,,2017_Jun_22_1204,60.0095467413,MAFE4ImagesEEG,001,100638,
AFNE23.JPG,AFNE24.JPG,AFNE22.JPG,AFSA24.JPG,AFSA22.JPG,AFSA23.JPG,0,0,0,8,,,,,,,,,,,,,,,,,,,,,,,AMSA13.jpg,AMSA11.jpg,AMNE06.jpg,AMNE17.jpg,AMSA11.jpg,MS,2,num_6,32,num_2,3.24994178569,,,2017_Jun_22_1204,60.0095467413,MAFE4ImagesEEG,001,100638,
AMNE23.JPG,AMNE24.JPG,AMNE22.JPG,AMSA24.JPG,AMSA22.JPG,AMSA23.JPG,0,1,1,9,,,,,,,,,,,,,,,,,,,,,,,AMNE18.jpg,AMSA05.jpg,AMSA13.jpg,AMNE20.jpg,AMNE20.jpg,MN,1,num_4,32,num_2,2.25002068773,,,2017_Jun_22_1204,60.0095467413,MAFE4ImagesEEG,001,100638,
AMSA21.JPG,AMNE22.JPG,AMNE21.JPG,AMSA23.JPG,AMSA22.JPG,AMNE23.JPG,0,2,2,1,,,,,,,,,,,,,,,,,,,,,,,AMNE11.jpg,AMSA12.jpg,AMSA03.jpg,AMNE08.jpg,AMNE11.jpg,MN,1,num_8,32,num_4,2.38335006527,,,2017_Jun_22_1204,60.0095467413,MAFE4ImagesEEG,001,100638,
AMSA21.JPG,AMNE23.JPG,AMNE21.JPG,AMSA25.JPG,AMNE25.JPG,AMSA23.JPG,0,3,3,5,,,,,,,,,,,,,,,,,,,,,,,AMNE10.jpg,AMSA09.jpg,AMSA05.jpg,AMNE20.jpg,AMSA05.jpg,MS,2,num_2,32,num_6,2.4000128296,,,2017_Jun_22_1204,60.0095467413,MAFE4ImagesEEG,001,100638,
AFSA25.JPG,AFNE24.JPG,AFSA24.JPG,AFNE21.JPG,AFSA21.JPG,AFNE25.JPG,0,4,4,2,,,,,,,,,,,,,,,,,,,,,,,AMNE11.jpg,AMNE05.jpg,AMSA15.jpg,AMSA05.jpg,AMSA05.jpg,MS,2,num_4,16,num_4,1.89999134002,,,2017_Jun_22_1204,60.0095467413,MAFE4ImagesEEG,001,100638,
AFSA21.JPG,AFNE22.JPG,AFNE21.JPG,AFSA23.JPG,AFSA22.JPG,AFNE23.JPG,0,5,5,0,,,,,,,,,,,,,,,,,,,,,,,AMSA08.jpg,AMSA12.jpg,AMNE09.jpg,AMNE18.jpg,AMNE09.jpg,MN,1,num_2,32,num_4,1.51670029091,,,2017_Jun_22_1204,60.0095467413,MAFE4ImagesEEG,001,100638,
AMSA25.JPG,AMNE24.JPG,AMSA24.JPG,AMNE26.JPG,AMSA21.JPG,AMNE25.JPG,0,6,6,3,,,,,,,,,,,,,,,,,,,,,,,AMNE17.jpg,AMSA01.jpg,AMSA02.jpg,AMNE03.jpg,AMNE03.jpg,MN,1,num_4,32,num_8,1.93342142992,,,2017_Jun_22_1204,60.0095467413,MAFE4ImagesEEG,001,100638,
AMNE22.JPG,AMSA24.JPG,AMSA22.JPG,AMNE25.JPG,AMNE24.JPG,AMSA25.JPG,0,7,7,7,,,,,,,,,,,,,,,,,,,,,,,AMNE12.jpg,AMSA04.jpg,AMSA12.jpg,AMNE11.jpg,AMSA04.jpg,MS,2,num_6,32,num_2,2.00005837468,,,2017_Jun_22_1204,60.0095467413,MAFE4ImagesEEG,001,100638,
AFSA21.JPG,AFNE23.JPG,AFNE21.JPG,AFSA25.JPG,AFNE25.JPG,AFSA23.JPG,0,8,8,4,,,,,,,,,,,,,,,,,,,,,,,AMNE11.jpg,AMNE16.jpg,AMSA05.jpg,AMSA14.jpg,AMSA14.jpg,MS,2,num_4,32,num_6,4.41646582996,,,2017_Jun_22_1204,60.0095467413,MAFE4ImagesEEG,001,100638,
AFNE22.JPG,AFSA24.JPG,AFSA22.JPG,AFNE25.JPG,AFNE24.JPG,AFSA25.JPG,0,9,9,6,,,,,,,,,,,,,,,,,,,,,,,AMSA19.jpg,AMNE19.jpg,AMNE10.jpg,AMSA16.jpg,AMNE19.jpg,MN,1,num_6,32,num_8,3.11660599335,,,2017_Jun_22_1204,60.0095467413,MAFE4ImagesEEG,001,100638,
AMNE23.JPG,AMNE24.JPG,AMNE22.JPG,AMSA24.JPG,AMSA22.JPG,AMSA23.JPG,,,,,0,0,0,9,,,,,,,,,,,,,,,,,,,AFSA03.jpg,AFNE20.jpg,AFNE03.jpg,AFSA17.jpg,AFNE03.jpg,FN,3,num_2,32,num_8,2.58342191103,,,2017_Jun_22_1204,60.0095467413,MAFE4ImagesEEG,001,100638,
AMSA25.JPG,AMNE24.JPG,AMSA24.JPG,AMNE26.JPG,AMSA21.JPG,AMNE25.JPG,,,,,0,1,1,3,,,,,,,,,,,,,,,,,,,AFNE04.jpg,AFNE13.jpg,AFSA09.jpg,AFSA17.jpg,AFNE13.jpg,FN,3,num_6,16,num_6,1.1333932048,,,2017_Jun_22_1204,60.0095467413,MAFE4ImagesEEG,001,100638,
AFNE22.JPG,AFSA24.JPG,AFSA22.JPG,AFNE25.JPG,AFNE24.JPG,AFSA25.JPG,,,,,0,2,2,6,,,,,,,,,,,,,,,,,,,AFNE08.jpg,AFNE05.jpg,AFSA15.jpg,AFSA01.jpg,AFNE08.jpg,FN,3,num_8,16,num_8,2.21664833103,,,2017_Jun_22_1204,60.0095467413,MAFE4ImagesEEG,001,100638,
AFNE23.JPG,AFNE24.JPG,AFNE22.JPG,AFSA24.JPG,AFSA22.JPG,AFSA23.JPG,,,,,0,3,3,8,,,,,,,,,,,,,,,,,,,AFSA06.jpg,AFSA20.jpg,AFNE03.jpg,AFNE01.jpg,AFNE03.jpg,FN,3,num_2,32,num_8,3.09992815424,,,2017_Jun_22_1204,60.0095467413,MAFE4ImagesEEG,001,100638,
AMNE22.JPG,AMSA24.JPG,AMSA22.JPG,AMNE25.JPG,AMNE24.JPG,AMSA25.JPG,,,,,0,4,4,7,,,,,,,,,,,,,,,,,,,AFSA16.jpg,AFNE13.jpg,AFNE05.jpg,AFSA02.jpg,AFSA02.jpg,FS,4,num_4,32,num_2,2.55026637458,,,2017_Jun_22_1204,60.0095467413,MAFE4ImagesEEG,001,100638,
AFSA21.JPG,AFNE23.JPG,AFNE21.JPG,AFSA25.JPG,AFNE25.JPG,AFSA23.JPG,,,,,0,5,5,4,,,,,,,,,,,,,,,,,,,AFNE03.jpg,AFSA08.jpg,AFSA11.jpg,AFNE05.jpg,AFNE05.jpg,FN,3,num_4,32,num_2,2.36668024466,,,2017_Jun_22_1204,60.0095467413,MAFE4ImagesEEG,001,100638,
AMSA21.JPG,AMNE22.JPG,AMNE21.JPG,AMSA23.JPG,AMSA22.JPG,AMNE23.JPG,,,,,0,6,6,1,,,,,,,,,,,,,,,,,,,AFNE02.jpg,AFSA20.jpg,AFNE13.jpg,AFSA16.jpg,AFSA20.jpg,FS,4,num_6,32,num_8,2.05002197069,,,2017_Jun_22_1204,60.0095467413,MAFE4ImagesEEG,001,100638,
AFSA25.JPG,AFNE24.JPG,AFSA24.JPG,AFNE21.JPG,AFSA21.JPG,AFNE25.JPG,,,,,0,7,7,2,,,,,,,,,,,,,,,,,,,AFSA13.jpg,AFNE05.jpg,AFNE03.jpg,AFSA07.jpg,AFSA07.jpg,FS,4,num_4,32,num_6,2.71660374817,,,2017_Jun_22_1204,60.0095467413,MAFE4ImagesEEG,001,100638,
AFSA21.JPG,AFNE22.JPG,AFNE21.JPG,AFSA23.JPG,AFSA22.JPG,AFNE23.JPG,,,,,0,8,8,0,,,,,,,,,,,,,,,,,,,AFSA15.jpg,AFNE05.jpg,AFSA04.jpg,AFNE07.jpg,AFSA15.jpg,FS,4,num_8,32,num_6,3.93322898592,,,2017_Jun_22_1204,60.0095467413,MAFE4ImagesEEG,001,100638,
AMSA21.JPG,AMNE23.JPG,AMNE21.JPG,AMSA25.JPG,AMNE25.JPG,AMSA23.JPG,,,,,0,9,9,5,,,,,,,,,,,,,,,,,,,AFNE17.jpg,AFSA01.jpg,AFSA03.jpg,AFNE09.jpg,AFNE17.jpg,FN,3,num_8,16,num_8,1.60014240857,,,2017_Jun_22_1204,60.0095467413,MAFE4ImagesEEG,001,100638,
AMNE23.JPG,AMNE24.JPG,AMNE22.JPG,AMSA24.JPG,AMSA22.JPG,AMSA23.JPG,,,,,,,,,0,0,0,9,,,,,,,,,,,,,,,AMNE06.jpg,AMNE18.jpg,AMSA07.jpg,AMSA18.jpg,AMSA18.jpg,MS,2,num_4,16,num_4,0.883489266435,,,2017_Jun_22_1204,60.0095467413,MAFE4ImagesEEG,001,100638,
AFSA21.JPG,AFNE22.JPG,AFNE21.JPG,AFSA23.JPG,AFSA22.JPG,AFNE23.JPG,,,,,,,,,0,1,1,0,,,,,,,,,,,,,,,AMSA13.jpg,AMNE17.jpg,AMSA17.jpg,AMNE03.jpg,AMSA17.jpg,MS,2,num_2,16,num_2,1.43336241376,,,2017_Jun_22_1204,60.0095467413,MAFE4ImagesEEG,001,100638,
AFNE22.JPG,AFSA24.JPG,AFSA22.JPG,AFNE25.JPG,AFNE24.JPG,AFSA25.JPG,,,,,,,,,0,2,2,6,,,,,,,,,,,,,,,AMNE09.jpg,AMNE03.jpg,AMSA07.jpg,AMSA05.jpg,AMNE03.jpg,MN,1,num_6,32,num_8,2.35001908403,,,2017_Jun_22_1204,60.0095467413,MAFE4ImagesEEG,001,100638,
AMSA25.JPG,AMNE24.JPG,AMSA24.JPG,AMNE26.JPG,AMSA21.JPG,AMNE25.JPG,,,,,,,,,0,3,3,3,,,,,,,,,,,,,,,AMNE07.jpg,AMSA12.jpg,AMSA17.jpg,AMNE09.jpg,AMNE07.jpg,MN,1,num_8,32,num_4,2.68352551006,,,2017_Jun_22_1204,60.0095467413,MAFE4ImagesEEG,001,100638,
AFSA21.JPG,AFNE23.JPG,AFNE21.JPG,AFSA25.JPG,AFNE25.JPG,AFSA23.JPG,,,,,,,,,0,4,4,4,,,,,,,,,,,,,,,AMNE12.jpg,AMSA13.jpg,AMSA07.jpg,AMNE16.jpg,AMNE16.jpg,MN,1,num_4,16,num_4,1.13352759487,,,2017_Jun_22_1204,60.0095467413,MAFE4ImagesEEG,001,100638,
AMSA21.JPG,AMNE23.JPG,AMNE21.JPG,AMSA25.JPG,AMNE25.JPG,AMSA23.JPG,,,,,,,,,0,5,5,5,,,,,,,,,,,,,,,AMSA19.jpg,AMNE05.jpg,AMSA16.jpg,AMNE10.jpg,AMSA19.jpg,MS,2,num_8,16,num_8,1.63343714618,,,2017_Jun_22_1204,60.0095467413,MAFE4ImagesEEG,001,100638,
AFNE23.JPG,AFNE24.JPG,AFNE22.JPG,AFSA24.JPG,AFSA22.JPG,AFSA23.JPG,,,,,,,,,0,6,6,8,,,,,,,,,,,,,,,AMNE01.jpg,AMNE09.jpg,AMSA07.jpg,AMSA08.jpg,AMSA07.jpg,MS,2,num_2,16,num_2,1.21678656997,,,2017_Jun_22_1204,60.0095467413,MAFE4ImagesEEG,001,100638,
AMNE22.JPG,AMSA24.JPG,AMSA22.JPG,AMNE25.JPG,AMNE24.JPG,AMSA25.JPG,,,,,,,,,0,7,7,7,,,,,,,,,,,,,,,AMNE17.jpg,AMSA03.jpg,AMSA05.jpg,AMNE02.jpg,AMSA03.jpg,MS,2,num_6,16,num_6,1.08344211765,,,2017_Jun_22_1204,60.0095467413,MAFE4ImagesEEG,001,100638,
AMSA21.JPG,AMNE22.JPG,AMNE21.JPG,AMSA23.JPG,AMSA22.JPG,AMNE23.JPG,,,,,,,,,0,8,8,1,,,,,,,,,,,,,,,AMSA17.jpg,AMNE03.jpg,AMNE11.jpg,AMSA01.jpg,AMSA17.jpg,MS,2,num_8,16,num_8,0.950143851895,,,2017_Jun_22_1204,60.0095467413,MAFE4ImagesEEG,001,100638,
AFSA25.JPG,AFNE24.JPG,AFSA24.JPG,AFNE21.JPG,AFSA21.JPG,AFNE25.JPG,,,,,,,,,0,9,9,2,,,,,,,,,,,,,,,AMSA20.jpg,AMNE08.jpg,AMNE14.jpg,AMSA16.jpg,AMNE08.jpg,MN,1,num_6,32,num_8,2.0333402827,,,2017_Jun_22_1204,60.0095467413,MAFE4ImagesEEG,001,100638,
AMSA21.JPG,AMNE22.JPG,AMNE21.JPG,AMSA23.JPG,AMSA22.JPG,AMNE23.JPG,,,,,,,,,,,,,0,0,0,1,,,,,,,,,,,AFNE14.jpg,AFSA19.jpg,AFNE09.jpg,AFSA12.jpg,AFSA12.jpg,FS,4,num_4,32,num_6,1.18346585241,,,2017_Jun_22_1204,60.0095467413,MAFE4ImagesEEG,001,100638,
AMSA21.JPG,AMNE23.JPG,AMNE21.JPG,AMSA25.JPG,AMNE25.JPG,AMSA23.JPG,,,,,,,,,,,,,0,1,1,5,,,,,,,,,,,AFNE12.jpg,AFNE10.jpg,AFSA12.jpg,AFSA05.jpg,AFNE12.jpg,FN,3,num_8,16,num_8,0.83331686868,,,2017_Jun_22_1204,60.0095467413,MAFE4ImagesEEG,001,100638,
AFSA21.JPG,AFNE23.JPG,AFNE21.JPG,AFSA25.JPG,AFNE25.JPG,AFSA23.JPG,,,,,,,,,,,,,0,2,2,4,,,,,,,,,,,AFSA10.jpg,AFSA07.jpg,AFNE18.jpg,AFNE20.jpg,AFNE18.jpg,FN,3,num_2,32,num_8,1.06661770036,,,2017_Jun_22_1204,60.0095467413,MAFE4ImagesEEG,001,100638,
AMNE23.JPG,AMNE24.JPG,AMNE22.JPG,AMSA24.JPG,AMSA22.JPG,AMSA23.JPG,,,,,,,,,,,,,0,3,3,9,,,,,,,,,,,AFNE14.jpg,AFSA04.jpg,AFNE15.jpg,AFSA16.jpg,AFNE15.jpg,FN,3,num_2,32,num_8,1.48375291472,,,2017_Jun_22_1204,60.0095467413,MAFE4ImagesEEG,001,100638,
AFSA21.JPG,AFNE22.JPG,AFNE21.JPG,AFSA23.JPG,AFSA22.JPG,AFNE23.JPG,,,,,,,,,,,,,0,4,4,0,,,,,,,,,,,AFSA11.jpg,AFSA14.jpg,AFNE17.jpg,AFNE06.jpg,AFNE06.jpg,FN,3,num_4,32,num_2,1.4000914109,,,2017_Jun_22_1204,60.0095467413,MAFE4ImagesEEG,001,100638,
AFNE22.JPG,AFSA24.JPG,AFSA22.JPG,AFNE25.JPG,AFNE24.JPG,AFSA25.JPG,,,,,,,,,,,,,0,5,5,6,,,,,,,,,,,AFSA14.jpg,AFNE14.jpg,AFNE13.jpg,AFSA16.jpg,AFNE14.jpg,FN,3,num_6,32,num_4,2.16665362324,,,2017_Jun_22_1204,60.0095467413,MAFE4ImagesEEG,001,100638,
AMSA25.JPG,AMNE24.JPG,AMSA24.JPG,AMNE26.JPG,AMSA21.JPG,AMNE25.JPG,,,,,,,,,,,,,0,6,6,3,,,,,,,,,,,AFSA11.jpg,AFNE07.jpg,AFSA02.jpg,AFNE20.jpg,AFSA11.jpg,FS,4,num_8,16,num_8,1.53347435203,,,2017_Jun_22_1204,60.0095467413,MAFE4ImagesEEG,001,100638,
AFSA25.JPG,AFNE24.JPG,AFSA24.JPG,AFNE21.JPG,AFSA21.JPG,AFNE25.JPG,,,,,,,,,,,,,0,7,7,2,,,,,,,,,,,AFNE02.jpg,AFNE16.jpg,AFSA17.jpg,AFSA16.jpg,AFNE16.jpg,FN,3,num_6,32,num_8,1.78334782009,,,2017_Jun_22_1204,60.0095467413,MAFE4ImagesEEG,001,100638,
AMNE22.JPG,AMSA24.JPG,AMSA22.JPG,AMNE25.JPG,AMNE24.JPG,AMSA25.JPG,,,,,,,,,,,,,0,8,8,7,,,,,,,,,,,AFSA08.jpg,AFNE12.jpg,AFSA17.jpg,AFNE04.jpg,AFNE12.jpg,FN,3,num_6,32,num_8,2.36662347368,,,2017_Jun_22_1204,60.0095467413,MAFE4ImagesEEG,001,100638,
AFNE23.JPG,AFNE24.JPG,AFNE22.JPG,AFSA24.JPG,AFSA22.JPG,AFSA23.JPG,,,,,,,,,,,,,0,9,9,8,,,,,,,,,,,AFSA09.jpg,AFSA14.jpg,AFNE01.jpg,AFNE13.jpg,AFSA14.jpg,FS,4,num_6,32,num_4,1.53339128036,,,2017_Jun_22_1204,60.0095467413,MAFE4ImagesEEG,001,100638,
AMSA21.JPG,AMNE23.JPG,AMNE21.JPG,AMSA25.JPG,AMNE25.JPG,AMSA23.JPG,,,,,,,,,,,,,,,,,0,0,0,5,,,,,,,AMSA10.jpg,AMSA17.jpg,AMNE10.jpg,AMNE16.jpg,AMSA10.jpg,MS,2,num_8,16,num_8,1.45023590428,,,2017_Jun_22_1204,60.0095467413,MAFE4ImagesEEG,001,100638,
AFNE22.JPG,AFSA24.JPG,AFSA22.JPG,AFNE25.JPG,AFNE24.JPG,AFSA25.JPG,,,,,,,,,,,,,,,,,0,1,1,6,,,,,,,AMNE15.jpg,AMSA18.jpg,AMSA15.jpg,AMNE11.jpg,AMNE15.jpg,MN,1,num_8,16,num_8,1.61673525157,,,2017_Jun_22_1204,60.0095467413,MAFE4ImagesEEG,001,100638,
AFSA21.JPG,AFNE22.JPG,AFNE21.JPG,AFSA23.JPG,AFSA22.JPG,AFNE23.JPG,,,,,,,,,,,,,,,,,0,2,2,0,,,,,,,AMNE13.jpg,AMNE07.jpg,AMSA08.jpg,AMSA13.jpg,AMNE07.jpg,MN,1,num_6,16,num_6,1.16677293852,,,2017_Jun_22_1204,60.0095467413,MAFE4ImagesEEG,001,100638,
AMSA21.JPG,AMNE22.JPG,AMNE21.JPG,AMSA23.JPG,AMSA22.JPG,AMNE23.JPG,,,,,,,,,,,,,,,,,0,3,3,1,,,,,,,AMSA13.jpg,AMNE18.jpg,AMSA09.jpg,AMNE19.jpg,AMNE18.jpg,MN,1,num_6,32,num_8,1.26674984524,,,2017_Jun_22_1204,60.0095467413,MAFE4ImagesEEG,001,100638,
AMNE22.JPG,AMSA24.JPG,AMSA22.JPG,AMNE25.JPG,AMNE24.JPG,AMSA25.JPG,,,,,,,,,,,,,,,,,0,4,4,7,,,,,,,AMNE02.jpg,AMNE15.jpg,AMSA12.jpg,AMSA08.jpg,AMSA12.jpg,MS,2,num_2,32,num_6,1.45003640399,,,2017_Jun_22_1204,60.0095467413,MAFE4ImagesEEG,001,100638,
AMSA25.JPG,AMNE24.JPG,AMSA24.JPG,AMNE26.JPG,AMSA21.JPG,AMNE25.JPG,,,,,,,,,,,,,,,,,0,5,5,3,,,,,,,AMSA04.jpg,AMSA12.jpg,AMNE10.jpg,AMNE14.jpg,AMSA04.jpg,MS,2,num_8,16,num_8,1.233370753,,,2017_Jun_22_1204,60.0095467413,MAFE4ImagesEEG,001,100638,
AMNE23.JPG,AMNE24.JPG,AMNE22.JPG,AMSA24.JPG,AMSA22.JPG,AMSA23.JPG,,,,,,,,,,,,,,,,,0,6,6,9,,,,,,,AMSA01.jpg,AMSA17.jpg,AMNE17.jpg,AMNE20.jpg,AMSA01.jpg,MS,2,num_8,16,num_8,1.61660952149,,,2017_Jun_22_1204,60.0095467413,MAFE4ImagesEEG,001,100638,
AFSA25.JPG,AFNE24.JPG,AFSA24.JPG,AFNE21.JPG,AFSA21.JPG,AFNE25.JPG,,,,,,,,,,,,,,,,,0,7,7,2,,,,,,,AMNE20.jpg,AMNE03.jpg,AMSA02.jpg,AMSA20.jpg,AMNE20.jpg,MN,1,num_8,16,num_8,0.933424316583,,,2017_Jun_22_1204,60.0095467413,MAFE4ImagesEEG,001,100638,
AFNE23.JPG,AFNE24.JPG,AFNE22.JPG,AFSA24.JPG,AFSA22.JPG,AFSA23.JPG,,,,,,,,,,,,,,,,,0,8,8,8,,,,,,,AMSA03.jpg,AMNE14.jpg,AMSA10.jpg,AMNE09.jpg,AMSA10.jpg,MS,2,num_2,32,num_4,2.39997498228,,,2017_Jun_22_1204,60.0095467413,MAFE4ImagesEEG,001,100638,
AFSA21.JPG,AFNE23.JPG,AFNE21.JPG,AFSA25.JPG,AFNE25.JPG,AFSA23.JPG,,,,,,,,,,,,,,,,,0,9,9,4,,,,,,,AMNE01.jpg,AMNE08.jpg,AMSA03.jpg,AMSA08.jpg,AMNE01.jpg,MN,1,num_8,16,num_8,1.28344628727,,,2017_Jun_22_1204,60.0095467413,MAFE4ImagesEEG,001,100638,
AMSA25.JPG,AMNE24.JPG,AMSA24.JPG,AMNE26.JPG,AMSA21.JPG,AMNE25.JPG,,,,,,,,,,,,,,,,,,,,,0,0,0,3,,,AFNE17.jpg,AFNE11.jpg,AFSA01.jpg,AFSA06.jpg,AFSA01.jpg,FS,4,num_2,32,num_4,1.66671328088,,,2017_Jun_22_1204,60.0095467413,MAFE4ImagesEEG,001,100638,
AMSA21.JPG,AMNE23.JPG,AMNE21.JPG,AMSA25.JPG,AMNE25.JPG,AMSA23.JPG,,,,,,,,,,,,,,,,,,,,,0,1,1,5,,,AFNE19.jpg,AFSA15.jpg,AFNE04.jpg,AFSA10.jpg,AFNE04.jpg,FN,3,num_2,16,num_2,2.65000946183,,,2017_Jun_22_1204,60.0095467413,MAFE4ImagesEEG,001,100638,
AFSA25.JPG,AFNE24.JPG,AFSA24.JPG,AFNE21.JPG,AFSA21.JPG,AFNE25.JPG,,,,,,,,,,,,,,,,,,,,,0,2,2,2,,,AFNE09.jpg,AFSA16.jpg,AFSA13.jpg,AFNE08.jpg,AFNE08.jpg,FN,3,num_4,32,num_8,1.13344676838,,,2017_Jun_22_1204,60.0095467413,MAFE4ImagesEEG,001,100638,
AMNE23.JPG,AMNE24.JPG,AMNE22.JPG,AMSA24.JPG,AMSA22.JPG,AMSA23.JPG,,,,,,,,,,,,,,,,,,,,,0,3,3,9,,,AFSA02.jpg,AFNE10.jpg,AFNE12.jpg,AFSA04.jpg,AFNE10.jpg,FN,3,num_6,32,num_4,1.35034848402,,,2017_Jun_22_1204,60.0095467413,MAFE4ImagesEEG,001,100638,
AMSA21.JPG,AMNE22.JPG,AMNE21.JPG,AMSA23.JPG,AMSA22.JPG,AMNE23.JPG,,,,,,,,,,,,,,,,,,,,,0,4,4,1,,,AFSA15.jpg,AFSA10.jpg,AFNE09.jpg,AFNE17.jpg,AFSA15.jpg,FS,4,num_8,16,num_8,0.850145776336,,,2017_Jun_22_1204,60.0095467413,MAFE4ImagesEEG,001,100638,
AFNE23.JPG,AFNE24.JPG,AFNE22.JPG,AFSA24.JPG,AFSA22.JPG,AFSA23.JPG,,,,,,,,,,,,,,,,,,,,,0,5,5,8,,,AFNE10.jpg,AFNE15.jpg,AFSA15.jpg,AFSA06.jpg,AFSA06.jpg,FS,4,num_4,16,num_4,1.03344195728,,,2017_Jun_22_1204,60.0095467413,MAFE4ImagesEEG,001,100638,
AFNE22.JPG,AFSA24.JPG,AFSA22.JPG,AFNE25.JPG,AFNE24.JPG,AFSA25.JPG,,,,,,,,,,,,,,,,,,,,,0,6,6,6,,,AFNE15.jpg,AFNE10.jpg,AFSA10.jpg,AFSA03.jpg,AFSA03.jpg,FS,4,num_4,32,num_8,2.01668265021,,,2017_Jun_22_1204,60.0095467413,MAFE4ImagesEEG,001,100638,
AMNE22.JPG,AMSA24.JPG,AMSA22.JPG,AMNE25.JPG,AMNE24.JPG,AMSA25.JPG,,,,,,,,,,,,,,,,,,,,,0,7,7,7,,,AFSA06.jpg,AFNE10.jpg,AFNE05.jpg,AFSA19.jpg,AFNE05.jpg,FN,3,num_2,16,num_2,2.16662379442,,,2017_Jun_22_1204,60.0095467413,MAFE4ImagesEEG,001,100638,
AFSA21.JPG,AFNE23.JPG,AFNE21.JPG,AFSA25.JPG,AFNE25.JPG,AFSA23.JPG,,,,,,,,,,,,,,,,,,,,,0,8,8,4,,,AFSA19.jpg,AFNE03.jpg,AFNE11.jpg,AFSA01.jpg,AFSA01.jpg,FS,4,num_4,16,num_4,1.50008371314,,,2017_Jun_22_1204,60.0095467413,MAFE4ImagesEEG,001,100638,
AFSA21.JPG,AFNE22.JPG,AFNE21.JPG,AFSA23.JPG,AFSA22.JPG,AFNE23.JPG,,,,,,,,,,,,,,,,,,,,,0,9,9,0,,,AFNE16.jpg,AFSA11.jpg,AFSA13.jpg,AFNE02.jpg,AFNE16.jpg,FN,3,num_8,32,num_4,1.55000785813,,,2017_Jun_22_1204,60.0095467413,MAFE4ImagesEEG,001,100638,
,,,,,,,,,,,,,,,,,,,,,,,,,,,,,,,,,,,,,,,,,,,space,19.4319774584,2017_Jun_22_1204,60.0095467413,MAFE4ImagesEEG,001,100638,
AFNE01.JPG,AFNE01.JPG,AFNE01.JPG,AFNE01.JPG,AFNE01.JPG,AFNE01.JPG,0,0,0,7,,,,,,,,,,,,,,,,,,,,,,,AMNE10.jpg,AMSA04.jpg,AMNE07.jpg,AMSA09.jpg,AMSA04.jpg,MS,2,num_6,32,num_4,1.3000898072,,,2017_Jun_22_1204,60.0095467413,MAFE4ImagesEEG,001,100638,
AFNE01.JPG,AFNE01.JPG,AFNE01.JPG,AFNE01.JPG,AFNE01.JPG,AFNE01.JPG,0,1,1,8,,,,,,,,,,,,,,,,,,,,,,,AMNE09.jpg,AMSA15.jpg,AMNE04.jpg,AMSA12.jpg,AMSA12.jpg,MS,2,num_4,32,num_6,2.28319867599,,,2017_Jun_22_1204,60.0095467413,MAFE4ImagesEEG,001,100638,
AFNE01.JPG,AFNE01.JPG,AFNE01.JPG,AFNE01.JPG,AFNE01.JPG,AFNE01.JPG,0,2,2,1,,,,,,,,,,,,,,,,,,,,,,,AMSA18.jpg,AMSA10.jpg,AMNE05.jpg,AMNE16.jpg,AMSA18.jpg,MS,2,num_8,16,num_8,0.616738138233,,,2017_Jun_22_1204,60.0095467413,MAFE4ImagesEEG,001,100638,
AFNE01.JPG,AFNE01.JPG,AFNE01.JPG,AFNE01.JPG,AFNE01.JPG,AFNE01.JPG,0,3,3,0,,,,,,,,,,,,,,,,,,,,,,,AMNE12.jpg,AMSA12.jpg,AMSA14.jpg,AMNE14.jpg,AMNE12.jpg,MN,1,num_8,16,num_8,2.01667078283,,,2017_Jun_22_1204,60.0095467413,MAFE4ImagesEEG,001,100638,
AFNE01.JPG,AFNE01.JPG,AFNE01.JPG,AFNE01.JPG,AFNE01.JPG,AFNE01.JPG,0,4,4,3,,,,,,,,,,,,,,,,,,,,,,,AMNE14.jpg,AMNE08.jpg,AMSA11.jpg,AMSA03.jpg,AMNE14.jpg,MN,1,num_8,16,num_8,0.683447249494,,,2017_Jun_22_1204,60.0095467413,MAFE4ImagesEEG,001,100638,
AFNE01.JPG,AFNE01.JPG,AFNE01.JPG,AFNE01.JPG,AFNE01.JPG,AFNE01.JPG,0,5,5,9,,,,,,,,,,,,,,,,,,,,,,,AMNE20.jpg,AMSA08.jpg,AMNE03.jpg,AMSA06.jpg,AMSA08.jpg,MS,2,num_6,16,num_6,1.8667639578,,,2017_Jun_22_1204,60.0095467413,MAFE4ImagesEEG,001,100638,
AFNE01.JPG,AFNE01.JPG,AFNE01.JPG,AFNE01.JPG,AFNE01.JPG,AFNE01.JPG,0,6,6,6,,,,,,,,,,,,,,,,,,,,,,,AMNE15.jpg,AMSA11.jpg,AMSA04.jpg,AMNE14.jpg,AMSA04.jpg,MS,2,num_2,16,num_2,1.18328944541,,,2017_Jun_22_1204,60.0095467413,MAFE4ImagesEEG,001,100638,
AFNE01.JPG,AFNE01.JPG,AFNE01.JPG,AFNE01.JPG,AFNE01.JPG,AFNE01.JPG,0,7,7,5,,,,,,,,,,,,,,,,,,,,,,,AMNE01.jpg,AMSA16.jpg,AMSA15.jpg,AMNE08.jpg,AMSA16.jpg,MS,2,num_6,32,num_2,1.38344307987,,,2017_Jun_22_1204,60.0095467413,MAFE4ImagesEEG,001,100638,
AFNE01.JPG,AFNE01.JPG,AFNE01.JPG,AFNE01.JPG,AFNE01.JPG,AFNE01.JPG,0,8,8,4,,,,,,,,,,,,,,,,,,,,,,,AMSA13.jpg,AMNE14.jpg,AMNE08.jpg,AMSA08.jpg,AMNE08.jpg,MN,1,num_2,32,num_6,1.20009846718,,,2017_Jun_22_1204,60.0095467413,MAFE4ImagesEEG,001,100638,
AFNE01.JPG,AFNE01.JPG,AFNE01.JPG,AFNE01.JPG,AFNE01.JPG,AFNE01.JPG,0,9,9,2,,,,,,,,,,,,,,,,,,,,,,,AMSA19.jpg,AMSA10.jpg,AMNE16.jpg,AMNE04.jpg,AMSA10.jpg,MS,2,num_6,32,num_8,1.48363199574,,,2017_Jun_22_1204,60.0095467413,MAFE4ImagesEEG,001,100638,
AFNE01.JPG,AFNE01.JPG,AFNE01.JPG,AFNE01.JPG,AFNE01.JPG,AFNE01.JPG,1,0,10,2,,,,,,,,,,,,,,,,,,,,,,,AMSA07.jpg,AMNE17.jpg,AMNE01.jpg,AMSA01.jpg,AMSA07.jpg,MS,2,num_8,16,num_8,1.66671199792,,,2017_Jun_22_1204,60.0095467413,MAFE4ImagesEEG,001,100638,
AFNE01.JPG,AFNE01.JPG,AFNE01.JPG,AFNE01.JPG,AFNE01.JPG,AFNE01.JPG,1,1,11,0,,,,,,,,,,,,,,,,,,,,,,,AMSA18.jpg,AMSA05.jpg,AMNE16.jpg,AMNE09.jpg,AMNE09.jpg,MN,1,num_4,32,num_6,1.5333835826,,,2017_Jun_22_1204,60.0095467413,MAFE4ImagesEEG,001,100638,
AFNE01.JPG,AFNE01.JPG,AFNE01.JPG,AFNE01.JPG,AFNE01.JPG,AFNE01.JPG,1,2,12,5,,,,,,,,,,,,,,,,,,,,,,,AMSA01.jpg,AMSA04.jpg,AMNE19.jpg,AMNE07.jpg,AMSA04.jpg,MS,2,num_6,16,num_6,1.28341742067,,,2017_Jun_22_1204,60.0095467413,MAFE4ImagesEEG,001,100638,
AFNE01.JPG,AFNE01.JPG,AFNE01.JPG,AFNE01.JPG,AFNE01.JPG,AFNE01.JPG,1,3,13,4,,,,,,,,,,,,,,,,,,,,,,,AMNE17.jpg,AMNE18.jpg,AMSA15.jpg,AMSA07.jpg,AMNE17.jpg,MN,1,num_8,16,num_8,1.33341629808,,,2017_Jun_22_1204,60.0095467413,MAFE4ImagesEEG,001,100638,
AFNE01.JPG,AFNE01.JPG,AFNE01.JPG,AFNE01.JPG,AFNE01.JPG,AFNE01.JPG,1,4,14,7,,,,,,,,,,,,,,,,,,,,,,,AMNE06.jpg,AMSA13.jpg,AMSA18.jpg,AMNE17.jpg,AMSA13.jpg,MS,2,num_6,16,num_6,0.866775183705,,,2017_Jun_22_1204,60.0095467413,MAFE4ImagesEEG,001,100638,
AFNE01.JPG,AFNE01.JPG,AFNE01.JPG,AFNE01.JPG,AFNE01.JPG,AFNE01.JPG,1,5,15,3,,,,,,,,,,,,,,,,,,,,,,,AMSA18.jpg,AMSA14.jpg,AMNE10.jpg,AMNE13.jpg,AMSA18.jpg,MS,2,num_8,16,num_8,0.500134710805,,,2017_Jun_22_1204,60.0095467413,MAFE4ImagesEEG,001,100638,
AFNE01.JPG,AFNE01.JPG,AFNE01.JPG,AFNE01.JPG,AFNE01.JPG,AFNE01.JPG,1,6,16,8,,,,,,,,,,,,,,,,,,,,,,,AMNE19.jpg,AMNE14.jpg,AMSA08.jpg,AMSA14.jpg,AMSA08.jpg,MS,2,num_2,32,num_4,2.40001347108,,,2017_Jun_22_1204,60.0095467413,MAFE4ImagesEEG,001,100638,
AFNE01.JPG,AFNE01.JPG,AFNE01.JPG,AFNE01.JPG,AFNE01.JPG,AFNE01.JPG,1,7,17,6,,,,,,,,,,,,,,,,,,,,,,,AMSA16.jpg,AMNE20.jpg,AMSA20.jpg,AMNE17.jpg,AMSA16.jpg,MS,2,num_8,16,num_8,0.550128456375,,,2017_Jun_22_1204,60.0095467413,MAFE4ImagesEEG,001,100638,
AFNE01.JPG,AFNE01.JPG,AFNE01.JPG,AFNE01.JPG,AFNE01.JPG,AFNE01.JPG,1,8,18,9,,,,,,,,,,,,,,,,,,,,,,,AMSA02.jpg,AMNE05.jpg,AMNE07.jpg,AMSA13.jpg,AMSA13.jpg,MS,2,num_4,16,num_4,1.21672819529,,,2017_Jun_22_1204,60.0095467413,MAFE4ImagesEEG,001,100638,
AFNE01.JPG,AFNE01.JPG,AFNE01.JPG,AFNE01.JPG,AFNE01.JPG,AFNE01.JPG,1,9,19,1,,,,,,,,,,,,,,,,,,,,,,,AMSA01.jpg,AMSA16.jpg,AMNE15.jpg,AMNE08.jpg,AMSA16.jpg,MS,2,num_6,16,num_6,0.966809502885,,,2017_Jun_22_1204,60.0095467413,MAFE4ImagesEEG,001,100638,
AFNE01.JPG,AFNE01.JPG,AFNE01.JPG,AFNE01.JPG,AFNE01.JPG,AFNE01.JPG,2,0,20,7,,,,,,,,,,,,,,,,,,,,,,,AMNE15.jpg,AMSA04.jpg,AMSA11.jpg,AMNE01.jpg,AMSA11.jpg,MS,2,num_2,32,num_6,0.666625398118,,,2017_Jun_22_1204,60.0095467413,MAFE4ImagesEEG,001,100638,
AFNE01.JPG,AFNE01.JPG,AFNE01.JPG,AFNE01.JPG,AFNE01.JPG,AFNE01.JPG,2,1,21,4,,,,,,,,,,,,,,,,,,,,,,,AMNE11.jpg,AMSA14.jpg,AMSA01.jpg,AMNE04.jpg,AMNE11.jpg,MN,1,num_8,16,num_8,0.866733166762,,,2017_Jun_22_1204,60.0095467413,MAFE4ImagesEEG,001,100638,
AFNE01.JPG,AFNE01.JPG,AFNE01.JPG,AFNE01.JPG,AFNE01.JPG,AFNE01.JPG,2,2,22,6,,,,,,,,,,,,,,,,,,,,,,,AMSA13.jpg,AMSA05.jpg,AMNE11.jpg,AMNE06.jpg,AMNE11.jpg,MN,1,num_2,32,num_8,1.15007777945,,,2017_Jun_22_1204,60.0095467413,MAFE4ImagesEEG,001,100638,
AFNE01.JPG,AFNE01.JPG,AFNE01.JPG,AFNE01.JPG,AFNE01.JPG,AFNE01.JPG,2,3,23,9,,,,,,,,,,,,,,,,,,,,,,,AMNE15.jpg,AMSA06.jpg,AMNE09.jpg,AMSA19.jpg,AMNE09.jpg,MN,1,num_2,32,num_4,1.76667543356,,,2017_Jun_22_1204,60.0095467413,MAFE4ImagesEEG,001,100638,
AFNE01.JPG,AFNE01.JPG,AFNE01.JPG,AFNE01.JPG,AFNE01.JPG,AFNE01.JPG,2,4,24,8,,,,,,,,,,,,,,,,,,,,,,,AMSA03.jpg,AMSA07.jpg,AMNE12.jpg,AMNE15.jpg,AMSA07.jpg,MS,2,num_6,32,num_8,2.40001347108,,,2017_Jun_22_1204,60.0095467413,MAFE4ImagesEEG,001,100638,
AFNE01.JPG,AFNE01.JPG,AFNE01.JPG,AFNE01.JPG,AFNE01.JPG,AFNE01.JPG,2,5,25,2,,,,,,,,,,,,,,,,,,,,,,,AMNE13.jpg,AMSA11.jpg,AMNE09.jpg,AMSA10.jpg,AMSA10.jpg,MS,2,num_4,16,num_4,1.65003159289,,,2017_Jun_22_1204,60.0095467413,MAFE4ImagesEEG,001,100638,
AFNE01.JPG,AFNE01.JPG,AFNE01.JPG,AFNE01.JPG,AFNE01.JPG,AFNE01.JPG,2,6,26,5,,,,,,,,,,,,,,,,,,,,,,,AMNE02.jpg,AMSA10.jpg,AMNE06.jpg,AMSA13.jpg,AMSA10.jpg,MS,2,num_6,32,num_4,1.11674936413,,,2017_Jun_22_1204,60.0095467413,MAFE4ImagesEEG,001,100638,
AFNE01.JPG,AFNE01.JPG,AFNE01.JPG,AFNE01.JPG,AFNE01.JPG,AFNE01.JPG,2,7,27,3,,,,,,,,,,,,,,,,,,,,,,,AMSA15.jpg,AMNE11.jpg,AMNE02.jpg,AMSA05.jpg,AMNE02.jpg,MN,1,num_2,16,num_2,0.999736993191,,,2017_Jun_22_1204,60.0095467413,MAFE4ImagesEEG,001,100638,
AFNE01.JPG,AFNE01.JPG,AFNE01.JPG,AFNE01.JPG,AFNE01.JPG,AFNE01.JPG,2,8,28,0,,,,,,,,,,,,,,,,,,,,,,,AMNE18.jpg,AMSA16.jpg,AMSA15.jpg,AMNE16.jpg,AMNE18.jpg,MN,1,num_8,16,num_8,0.866618341838,,,2017_Jun_22_1204,60.0095467413,MAFE4ImagesEEG,001,100638,
AFNE01.JPG,AFNE01.JPG,AFNE01.JPG,AFNE01.JPG,AFNE01.JPG,AFNE01.JPG,2,9,29,1,,,,,,,,,,,,,,,,,,,,,,,AMNE10.jpg,AMSA13.jpg,AMNE13.jpg,AMSA08.jpg,AMNE10.jpg,MN,1,num_8,16,num_8,0.833470823885,,,2017_Jun_22_1204,60.0095467413,MAFE4ImagesEEG,001,100638,
AFNE01.JPG,AFNE01.JPG,AFNE01.JPG,AFNE01.JPG,AFNE01.JPG,AFNE01.JPG,3,0,30,4,,,,,,,,,,,,,,,,,,,,,,,AMSA04.jpg,AMSA07.jpg,AMNE20.jpg,AMNE15.jpg,AMNE20.jpg,MN,1,num_2,32,num_4,1.66696858993,,,2017_Jun_22_1204,60.0095467413,MAFE4ImagesEEG,001,100638,
AFNE01.JPG,AFNE01.JPG,AFNE01.JPG,AFNE01.JPG,AFNE01.JPG,AFNE01.JPG,3,1,31,3,,,,,,,,,,,,,,,,,,,,,,,AMSA01.jpg,AMNE10.jpg,AMNE18.jpg,AMSA10.jpg,AMSA10.jpg,MS,2,num_4,32,num_2,1.63340218552,,,2017_Jun_22_1204,60.0095467413,MAFE4ImagesEEG,001,100638,
AFNE01.JPG,AFNE01.JPG,AFNE01.JPG,AFNE01.JPG,AFNE01.JPG,AFNE01.JPG,3,2,32,0,,,,,,,,,,,,,,,,,,,,,,,AMSA04.jpg,AMNE18.jpg,AMSA13.jpg,AMNE02.jpg,AMNE02.jpg,MN,1,num_4,32,num_8,1.41671472421,,,2017_Jun_22_1204,60.0095467413,MAFE4ImagesEEG,001,100638,
AFNE01.JPG,AFNE01.JPG,AFNE01.JPG,AFNE01.JPG,AFNE01.JPG,AFNE01.JPG,3,3,33,1,,,,,,,,,,,,,,,,,,,,,,,AMSA14.jpg,AMNE09.jpg,AMNE07.jpg,AMSA04.jpg,AMSA04.jpg,MS,2,num_4,16,num_4,1.800080185,,,2017_Jun_22_1204,60.0095467413,MAFE4ImagesEEG,001,100638,
AFNE01.JPG,AFNE01.JPG,AFNE01.JPG,AFNE01.JPG,AFNE01.JPG,AFNE01.JPG,3,4,34,9,,,,,,,,,,,,,,,,,,,,,,,AMNE02.jpg,AMSA18.jpg,AMNE09.jpg,AMSA09.jpg,AMSA18.jpg,MS,2,num_6,32,num_4,0.716768608534,,,2017_Jun_22_1204,60.0095467413,MAFE4ImagesEEG,001,100638,
AFNE01.JPG,AFNE01.JPG,AFNE01.JPG,AFNE01.JPG,AFNE01.JPG,AFNE01.JPG,3,5,35,7,,,,,,,,,,,,,,,,,,,,,,,AMSA08.jpg,AMNE17.jpg,AMNE14.jpg,AMSA03.jpg,AMSA08.jpg,MS,2,num_8,32,num_6,1.33340410996,,,2017_Jun_22_1204,60.0095467413,MAFE4ImagesEEG,001,100638,
AFNE01.JPG,AFNE01.JPG,AFNE01.JPG,AFNE01.JPG,AFNE01.JPG,AFNE01.JPG,3,6,36,8,,,,,,,,,,,,,,,,,,,,,,,AMNE16.jpg,AMSA07.jpg,AMSA12.jpg,AMNE19.jpg,AMNE16.jpg,MN,1,num_8,32,num_6,2.25000080185,,,2017_Jun_22_1204,60.0095467413,MAFE4ImagesEEG,001,100638,
AFNE01.JPG,AFNE01.JPG,AFNE01.JPG,AFNE01.JPG,AFNE01.JPG,AFNE01.JPG,3,7,37,2,,,,,,,,,,,,,,,,,,,,,,,AMNE06.jpg,AMNE05.jpg,AMSA10.jpg,AMSA08.jpg,AMNE06.jpg,MN,1,num_8,16,num_8,0.900111938264,,,2017_Jun_22_1204,60.0095467413,MAFE4ImagesEEG,001,100638,
AFNE01.JPG,AFNE01.JPG,AFNE01.JPG,AFNE01.JPG,AFNE01.JPG,AFNE01.JPG,3,8,38,5,,,,,,,,,,,,,,,,,,,,,,,AMNE10.jpg,AMSA20.jpg,AMSA19.jpg,AMNE11.jpg,AMNE10.jpg,MN,1,num_8,16,num_8,0.816746156733,,,2017_Jun_22_1204,60.0095467413,MAFE4ImagesEEG,001,100638,
AFNE01.JPG,AFNE01.JPG,AFNE01.JPG,AFNE01.JPG,AFNE01.JPG,AFNE01.JPG,3,9,39,6,,,,,,,,,,,,,,,,,,,,,,,AMNE17.jpg,AMNE14.jpg,AMSA10.jpg,AMSA17.jpg,AMSA17.jpg,MS,2,num_4,16,num_4,1.30007922278,,,2017_Jun_22_1204,60.0095467413,MAFE4ImagesEEG,001,100638,
AFNE01.JPG,AFNE01.JPG,AFNE01.JPG,AFNE01.JPG,AFNE01.JPG,AFNE01.JPG,4,0,40,2,,,,,,,,,,,,,,,,,,,,,,,AMNE01.jpg,AMSA04.jpg,AMSA07.jpg,AMNE08.jpg,AMSA07.jpg,MS,2,num_2,16,num_2,1.01675802411,,,2017_Jun_22_1204,60.0095467413,MAFE4ImagesEEG,001,100638,
AFNE01.JPG,AFNE01.JPG,AFNE01.JPG,AFNE01.JPG,AFNE01.JPG,AFNE01.JPG,4,1,41,8,,,,,,,,,,,,,,,,,,,,,,,AMNE15.jpg,AMSA06.jpg,AMSA13.jpg,AMNE12.jpg,AMNE15.jpg,MN,1,num_8,16,num_8,0.950081628333,,,2017_Jun_22_1204,60.0095467413,MAFE4ImagesEEG,001,100638,
AFNE01.JPG,AFNE01.JPG,AFNE01.JPG,AFNE01.JPG,AFNE01.JPG,AFNE01.JPG,4,2,42,6,,,,,,,,,,,,,,,,,,,,,,,AMNE06.jpg,AMSA19.jpg,AMSA09.jpg,AMNE16.jpg,AMSA19.jpg,MS,2,num_6,32,num_4,1.35004057361,,,2017_Jun_22_1204,60.0095467413,MAFE4ImagesEEG,001,100638,
AFNE01.JPG,AFNE01.JPG,AFNE01.JPG,AFNE01.JPG,AFNE01.JPG,AFNE01.JPG,4,3,43,1,,,,,,,,,,,,,,,,,,,,,,,AMNE13.jpg,AMSA18.jpg,AMSA13.jpg,AMNE08.jpg,AMSA13.jpg,MS,2,num_2,32,num_6,1.53339833664,,,2017_Jun_22_1204,60.0095467413,MAFE4ImagesEEG,001,100638,
AFNE01.JPG,AFNE01.JPG,AFNE01.JPG,AFNE01.JPG,AFNE01.JPG,AFNE01.JPG,4,4,44,0,,,,,,,,,,,,,,,,,,,,,,,AMNE15.jpg,AMSA08.jpg,AMSA02.jpg,AMNE05.jpg,AMNE15.jpg,MN,1,num_8,16,num_8,0.583480285715,,,2017_Jun_22_1204,60.0095467413,MAFE4ImagesEEG,001,100638,
AFNE01.JPG,AFNE01.JPG,AFNE01.JPG,AFNE01.JPG,AFNE01.JPG,AFNE01.JPG,4,5,45,5,,,,,,,,,,,,,,,,,,,,,,,AMSA14.jpg,AMSA09.jpg,AMNE11.jpg,AMNE13.jpg,AMSA14.jpg,MS,2,num_8,16,num_8,0.950206396197,,,2017_Jun_22_1204,60.0095467413,MAFE4ImagesEEG,001,100638,
AFNE01.JPG,AFNE01.JPG,AFNE01.JPG,AFNE01.JPG,AFNE01.JPG,AFNE01.JPG,4,6,46,4,,,,,,,,,,,,,,,,,,,,,,,AMSA19.jpg,AMNE01.jpg,AMSA03.jpg,AMNE17.jpg,AMSA19.jpg,MS,2,num_8,16,num_8,0.69999294372,,,2017_Jun_22_1204,60.0095467413,MAFE4ImagesEEG,001,100638,
AFNE01.JPG,AFNE01.JPG,AFNE01.JPG,AFNE01.JPG,AFNE01.JPG,AFNE01.JPG,4,7,47,7,,,,,,,,,,,,,,,,,,,,,,,AMSA04.jpg,AMNE18.jpg,AMNE13.jpg,AMSA11.jpg,AMNE13.jpg,MN,1,num_2,16,num_2,1.65004923359,,,2017_Jun_22_1204,60.0095467413,MAFE4ImagesEEG,001,100638,
AFNE01.JPG,AFNE01.JPG,AFNE01.JPG,AFNE01.JPG,AFNE01.JPG,AFNE01.JPG,4,8,48,9,,,,,,,,,,,,,,,,,,,,,,,AMNE05.jpg,AMSA08.jpg,AMSA01.jpg,AMNE15.jpg,AMNE15.jpg,MN,1,num_4,16,num_4,2.09979183973,,,2017_Jun_22_1204,60.0095467413,MAFE4ImagesEEG,001,100638,
AFNE01.JPG,AFNE01.JPG,AFNE01.JPG,AFNE01.JPG,AFNE01.JPG,AFNE01.JPG,4,9,49,3,,,,,,,,,,,,,,,,,,,,,,,AMSA10.jpg,AMNE06.jpg,AMNE20.jpg,AMSA05.jpg,AMNE20.jpg,MN,1,num_2,16,num_2,2.06675337338,,,2017_Jun_22_1204,60.0095467413,MAFE4ImagesEEG,001,100638,
AFNE01.JPG,AFNE01.JPG,AFNE01.JPG,AFNE01.JPG,AFNE01.JPG,AFNE01.JPG,5,0,50,7,,,,,,,,,,,,,,,,,,,,,,,AMNE20.jpg,AMNE04.jpg,AMSA20.jpg,AMSA06.jpg,AMSA20.jpg,MS,2,num_2,32,num_8,2.66666100026,,,2017_Jun_22_1204,60.0095467413,MAFE4ImagesEEG,001,100638,
AFNE01.JPG,AFNE01.JPG,AFNE01.JPG,AFNE01.JPG,AFNE01.JPG,AFNE01.JPG,5,1,51,2,,,,,,,,,,,,,,,,,,,,,,,AMNE05.jpg,AMSA18.jpg,AMSA02.jpg,AMNE13.jpg,AMNE05.jpg,MN,1,num_8,32,num_4,1.31671504495,,,2017_Jun_22_1204,60.0095467413,MAFE4ImagesEEG,001,100638,
AFNE01.JPG,AFNE01.JPG,AFNE01.JPG,AFNE01.JPG,AFNE01.JPG,AFNE01.JPG,5,2,52,5,,,,,,,,,,,,,,,,,,,,,,,AMSA18.jpg,AMSA05.jpg,AMNE11.jpg,AMNE01.jpg,AMNE11.jpg,MN,1,num_2,16,num_2,1.53337428114,,,2017_Jun_22_1204,60.0095467413,MAFE4ImagesEEG,001,100638,
AFNE01.JPG,AFNE01.JPG,AFNE01.JPG,AFNE01.JPG,AFNE01.JPG,AFNE01.JPG,5,3,53,0,,,,,,,,,,,,,,,,,,,,,,,AMNE10.jpg,AMNE19.jpg,AMSA16.jpg,AMSA14.jpg,AMNE10.jpg,MN,1,num_8,32,num_2,1.48337764891,,,2017_Jun_22_1204,60.0095467413,MAFE4ImagesEEG,001,100638,
AFNE01.JPG,AFNE01.JPG,AFNE01.JPG,AFNE01.JPG,AFNE01.JPG,AFNE01.JPG,5,4,54,1,,,,,,,,,,,,,,,,,,,,,,,AMNE06.jpg,AMSA02.jpg,AMSA07.jpg,AMNE13.jpg,AMNE06.jpg,MN,1,num_8,16,num_8,2.10001667848,,,2017_Jun_22_1204,60.0095467413,MAFE4ImagesEEG,001,100638,
AFNE01.JPG,AFNE01.JPG,AFNE01.JPG,AFNE01.JPG,AFNE01.JPG,AFNE01.JPG,5,5,55,4,,,,,,,,,,,,,,,,,,,,,,,AMSA13.jpg,AMNE19.jpg,AMNE13.jpg,AMSA06.jpg,AMNE13.jpg,MN,1,num_2,16,num_2,0.600133748585,,,2017_Jun_22_1204,60.0095467413,MAFE4ImagesEEG,001,100638,
AFNE01.JPG,AFNE01.JPG,AFNE01.JPG,AFNE01.JPG,AFNE01.JPG,AFNE01.JPG,5,6,56,9,,,,,,,,,,,,,,,,,,,,,,,AMSA05.jpg,AMSA18.jpg,AMNE10.jpg,AMNE04.jpg,AMSA18.jpg,MS,2,num_6,16,num_6,1.28341966585,,,2017_Jun_22_1204,60.0095467413,MAFE4ImagesEEG,001,100638,
AFNE01.JPG,AFNE01.JPG,AFNE01.JPG,AFNE01.JPG,AFNE01.JPG,AFNE01.JPG,5,7,57,6,,,,,,,,,,,,,,,,,,,,,,,AMSA15.jpg,AMSA14.jpg,AMNE10.jpg,AMNE11.jpg,AMSA14.jpg,MS,2,num_6,16,num_6,1.5000673554,,,2017_Jun_22_1204,60.0095467413,MAFE4ImagesEEG,001,100638,
AFNE01.JPG,AFNE01.JPG,AFNE01.JPG,AFNE01.JPG,AFNE01.JPG,AFNE01.JPG,5,8,58,3,,,,,,,,,,,,,,,,,,,,,,,AMNE14.jpg,AMSA12.jpg,AMSA06.jpg,AMNE20.jpg,AMSA06.jpg,MS,2,num_2,16,num_2,0.900106485684,,,2017_Jun_22_1204,60.0095467413,MAFE4ImagesEEG,001,100638,
AFNE01.JPG,AFNE01.JPG,AFNE01.JPG,AFNE01.JPG,AFNE01.JPG,AFNE01.JPG,5,9,59,8,,,,,,,,,,,,,,,,,,,,,,,AMNE05.jpg,AMSA20.jpg,AMSA14.jpg,AMNE10.jpg,AMSA14.jpg,MS,2,num_2,16,num_2,0.783514604896,,,2017_Jun_22_1204,60.0095467413,MAFE4ImagesEEG,001,100638,
,,,,,,,,,,,,,,,,,,,,,,,,,,,,,,,,,,,,,,,,,,,space,22.6653802854,2017_Jun_22_1204,60.0095467413,MAFE4ImagesEEG,001,100638,
AFNE01.JPG,AFNE01.JPG,AFNE01.JPG,AFNE01.JPG,AFNE01.JPG,AFNE01.JPG,,,,,0,0,0,0,,,,,,,,,,,,,,,,,,,AFNE04.jpg,AFNE10.jpg,AFSA13.jpg,AFSA12.jpg,AFNE04.jpg,FN,3,num_8,32,num_6,0.716789135894,,,2017_Jun_22_1204,60.0095467413,MAFE4ImagesEEG,001,100638,
AFNE01.JPG,AFNE01.JPG,AFNE01.JPG,AFNE01.JPG,AFNE01.JPG,AFNE01.JPG,,,,,0,1,1,2,,,,,,,,,,,,,,,,,,,AFSA02.jpg,AFNE07.jpg,AFNE18.jpg,AFSA12.jpg,AFSA12.jpg,FS,4,num_4,16,num_4,1.48349920938,,,2017_Jun_22_1204,60.0095467413,MAFE4ImagesEEG,001,100638,
AFNE01.JPG,AFNE01.JPG,AFNE01.JPG,AFNE01.JPG,AFNE01.JPG,AFNE01.JPG,,,,,0,2,2,4,,,,,,,,,,,,,,,,,,,AFSA09.jpg,AFSA13.jpg,AFNE13.jpg,AFNE01.jpg,AFSA09.jpg,FS,4,num_8,32,num_4,0.750136154134,,,2017_Jun_22_1204,60.0095467413,MAFE4ImagesEEG,001,100638,
AFNE01.JPG,AFNE01.JPG,AFNE01.JPG,AFNE01.JPG,AFNE01.JPG,AFNE01.JPG,,,,,0,3,3,5,,,,,,,,,,,,,,,,,,,AFSA03.jpg,AFSA04.jpg,AFNE19.jpg,AFNE18.jpg,AFNE18.jpg,FN,3,num_4,32,num_6,1.51655467495,,,2017_Jun_22_1204,60.0095467413,MAFE4ImagesEEG,001,100638,
AFNE01.JPG,AFNE01.JPG,AFNE01.JPG,AFNE01.JPG,AFNE01.JPG,AFNE01.JPG,,,,,0,4,4,9,,,,,,,,,,,,,,,,,,,AFNE17.jpg,AFSA02.jpg,AFSA05.jpg,AFNE08.jpg,AFNE08.jpg,FN,3,num_4,16,num_4,0.783446928755,,,2017_Jun_22_1204,60.0095467413,MAFE4ImagesEEG,001,100638,
AFNE01.JPG,AFNE01.JPG,AFNE01.JPG,AFNE01.JPG,AFNE01.JPG,AFNE01.JPG,,,,,0,5,5,7,,,,,,,,,,,,,,,,,,,AFSA20.jpg,AFNE06.jpg,AFNE18.jpg,AFSA14.jpg,AFSA20.jpg,FS,4,num_8,16,num_8,0.666796673284,,,2017_Jun_22_1204,60.0095467413,MAFE4ImagesEEG,001,100638,
AFNE01.JPG,AFNE01.JPG,AFNE01.JPG,AFNE01.JPG,AFNE01.JPG,AFNE01.JPG,,,,,0,6,6,1,,,,,,,,,,,,,,,,,,,AFNE07.jpg,AFSA16.jpg,AFSA06.jpg,AFNE18.jpg,AFSA06.jpg,FS,4,num_2,32,num_4,1.1001427293,,,2017_Jun_22_1204,60.0095467413,MAFE4ImagesEEG,001,100638,
AFNE01.JPG,AFNE01.JPG,AFNE01.JPG,AFNE01.JPG,AFNE01.JPG,AFNE01.JPG,,,,,0,7,7,3,,,,,,,,,,,,,,,,,,,AFSA17.jpg,AFNE20.jpg,AFNE07.jpg,AFSA08.jpg,AFSA17.jpg,FS,4,num_8,16,num_8,0.550424178665,,,2017_Jun_22_1204,60.0095467413,MAFE4ImagesEEG,001,100638,
AFNE01.JPG,AFNE01.JPG,AFNE01.JPG,AFNE01.JPG,AFNE01.JPG,AFNE01.JPG,,,,,0,8,8,6,,,,,,,,,,,,,,,,,,,AFSA15.jpg,AFSA08.jpg,AFNE19.jpg,AFNE01.jpg,AFNE19.jpg,FN,3,num_2,32,num_4,1.16675818448,,,2017_Jun_22_1204,60.0095467413,MAFE4ImagesEEG,001,100638,
AFNE01.JPG,AFNE01.JPG,AFNE01.JPG,AFNE01.JPG,AFNE01.JPG,AFNE01.JPG,,,,,0,9,9,8,,,,,,,,,,,,,,,,,,,AFSA04.jpg,AFNE09.jpg,AFNE07.jpg,AFSA18.jpg,AFSA18.jpg,FS,4,num_4,32,num_2,1.13350129419,,,2017_Jun_22_1204,60.0095467413,MAFE4ImagesEEG,001,100638,
AFNE01.JPG,AFNE01.JPG,AFNE01.JPG,AFNE01.JPG,AFNE01.JPG,AFNE01.JPG,,,,,1,0,10,5,,,,,,,,,,,,,,,,,,,AFNE20.jpg,AFSA14.jpg,AFSA13.jpg,AFNE07.jpg,AFNE20.jpg,FN,3,num_8,32,num_4,1.53342880694,,,2017_Jun_22_1204,60.0095467413,MAFE4ImagesEEG,001,100638,
AFNE01.JPG,AFNE01.JPG,AFNE01.JPG,AFNE01.JPG,AFNE01.JPG,AFNE01.JPG,,,,,1,1,11,3,,,,,,,,,,,,,,,,,,,AFNE07.jpg,AFSA19.jpg,AFNE13.jpg,AFSA09.jpg,AFNE13.jpg,FN,3,num_2,32,num_8,1.21676572187,,,2017_Jun_22_1204,60.0095467413,MAFE4ImagesEEG,001,100638,
AFNE01.JPG,AFNE01.JPG,AFNE01.JPG,AFNE01.JPG,AFNE01.JPG,AFNE01.JPG,,,,,1,2,12,1,,,,,,,,,,,,,,,,,,,AFNE03.jpg,AFSA01.jpg,AFNE01.jpg,AFSA07.jpg,AFSA07.jpg,FS,4,num_4,16,num_4,0.700137918205,,,2017_Jun_22_1204,60.0095467413,MAFE4ImagesEEG,001,100638,
AFNE01.JPG,AFNE01.JPG,AFNE01.JPG,AFNE01.JPG,AFNE01.JPG,AFNE01.JPG,,,,,1,3,13,9,,,,,,,,,,,,,,,,,,,AFNE06.jpg,AFSA12.jpg,AFSA11.jpg,AFNE10.jpg,AFSA11.jpg,FS,4,num_2,16,num_2,1.48339881775,,,2017_Jun_22_1204,60.0095467413,MAFE4ImagesEEG,001,100638,
AFNE01.JPG,AFNE01.JPG,AFNE01.JPG,AFNE01.JPG,AFNE01.JPG,AFNE01.JPG,,,,,1,4,14,7,,,,,,,,,,,,,,,,,,,AFSA02.jpg,AFSA16.jpg,AFNE17.jpg,AFNE06.jpg,AFSA16.jpg,FS,4,num_6,16,num_6,0.850126211194,,,2017_Jun_22_1204,60.0095467413,MAFE4ImagesEEG,001,100638,
AFNE01.JPG,AFNE01.JPG,AFNE01.JPG,AFNE01.JPG,AFNE01.JPG,AFNE01.JPG,,,,,1,5,15,4,,,,,,,,,,,,,,,,,,,AFSA11.jpg,AFNE07.jpg,AFSA16.jpg,AFNE12.jpg,AFNE07.jpg,FN,3,num_6,32,num_4,0.850113060854,,,2017_Jun_22_1204,60.0095467413,MAFE4ImagesEEG,001,100638,
AFNE01.JPG,AFNE01.JPG,AFNE01.JPG,AFNE01.JPG,AFNE01.JPG,AFNE01.JPG,,,,,1,6,16,8,,,,,,,,,,,,,,,,,,,AFNE02.jpg,AFSA08.jpg,AFNE16.jpg,AFSA19.jpg,AFSA08.jpg,FS,4,num_6,32,num_8,0.916754175233,,,2017_Jun_22_1204,60.0095467413,MAFE4ImagesEEG,001,100638,
AFNE01.JPG,AFNE01.JPG,AFNE01.JPG,AFNE01.JPG,AFNE01.JPG,AFNE01.JPG,,,,,1,7,17,0,,,,,,,,,,,,,,,,,,,AFSA20.jpg,AFNE17.jpg,AFSA01.jpg,AFNE14.jpg,AFNE14.jpg,FN,3,num_4,16,num_4,1.43346569204,,,2017_Jun_22_1204,60.0095467413,MAFE4ImagesEEG,001,100638,
AFNE01.JPG,AFNE01.JPG,AFNE01.JPG,AFNE01.JPG,AFNE01.JPG,AFNE01.JPG,,,,,1,8,18,6,,,,,,,,,,,,,,,,,,,AFNE18.jpg,AFSA02.jpg,AFSA01.jpg,AFNE06.jpg,AFNE18.jpg,FN,3,num_8,16,num_8,0.766764920023,,,2017_Jun_22_1204,60.0095467413,MAFE4ImagesEEG,001,100638,
AFNE01.JPG,AFNE01.JPG,AFNE01.JPG,AFNE01.JPG,AFNE01.JPG,AFNE01.JPG,,,,,1,9,19,2,,,,,,,,,,,,,,,,,,,AFSA20.jpg,AFNE17.jpg,AFSA18.jpg,AFNE11.jpg,AFSA18.jpg,FS,4,num_2,32,num_6,1.10006446874,,,2017_Jun_22_1204,60.0095467413,MAFE4ImagesEEG,001,100638,
AFNE01.JPG,AFNE01.JPG,AFNE01.JPG,AFNE01.JPG,AFNE01.JPG,AFNE01.JPG,,,,,2,0,20,8,,,,,,,,,,,,,,,,,,,AFSA02.jpg,AFNE20.jpg,AFNE19.jpg,AFSA12.jpg,AFSA02.jpg,FS,4,num_8,16,num_8,0.583475795354,,,2017_Jun_22_1204,60.0095467413,MAFE4ImagesEEG,001,100638,
AFNE01.JPG,AFNE01.JPG,AFNE01.JPG,AFNE01.JPG,AFNE01.JPG,AFNE01.JPG,,,,,2,1,21,2,,,,,,,,,,,,,,,,,,,AFNE18.jpg,AFSA02.jpg,AFNE15.jpg,AFSA12.jpg,AFSA12.jpg,FS,4,num_4,32,num_6,1.01672370493,,,2017_Jun_22_1204,60.0095467413,MAFE4ImagesEEG,001,100638,
AFNE01.JPG,AFNE01.JPG,AFNE01.JPG,AFNE01.JPG,AFNE01.JPG,AFNE01.JPG,,,,,2,2,22,9,,,,,,,,,,,,,,,,,,,AFNE14.jpg,AFSA11.jpg,AFNE07.jpg,AFSA17.jpg,AFSA11.jpg,FS,4,num_6,32,num_2,0.816741024893,,,2017_Jun_22_1204,60.0095467413,MAFE4ImagesEEG,001,100638,
AFNE01.JPG,AFNE01.JPG,AFNE01.JPG,AFNE01.JPG,AFNE01.JPG,AFNE01.JPG,,,,,2,3,23,6,,,,,,,,,,,,,,,,,,,AFNE10.jpg,AFSA09.jpg,AFNE05.jpg,AFSA11.jpg,AFSA11.jpg,FS,4,num_4,16,num_4,0.683473229435,,,2017_Jun_22_1204,60.0095467413,MAFE4ImagesEEG,001,100638,
AFNE01.JPG,AFNE01.JPG,AFNE01.JPG,AFNE01.JPG,AFNE01.JPG,AFNE01.JPG,,,,,2,4,24,4,,,,,,,,,,,,,,,,,,,AFNE15.jpg,AFSA07.jpg,AFNE04.jpg,AFSA02.jpg,AFSA07.jpg,FS,4,num_6,16,num_6,0.850126531935,,,2017_Jun_22_1204,60.0095467413,MAFE4ImagesEEG,001,100638,
AFNE01.JPG,AFNE01.JPG,AFNE01.JPG,AFNE01.JPG,AFNE01.JPG,AFNE01.JPG,,,,,2,5,25,0,,,,,,,,,,,,,,,,,,,AFNE10.jpg,AFSA19.jpg,AFSA02.jpg,AFNE13.jpg,AFNE10.jpg,FN,3,num_8,16,num_8,1.13344484394,,,2017_Jun_22_1204,60.0095467413,MAFE4ImagesEEG,001,100638,
AFNE01.JPG,AFNE01.JPG,AFNE01.JPG,AFNE01.JPG,AFNE01.JPG,AFNE01.JPG,,,,,2,6,26,1,,,,,,,,,,,,,,,,,,,AFNE11.jpg,AFSA04.jpg,AFNE01.jpg,AFSA06.jpg,AFSA06.jpg,FS,4,num_4,32,num_2,1.16647336735,,,2017_Jun_22_1204,60.0095467413,MAFE4ImagesEEG,001,100638,
AFNE01.JPG,AFNE01.JPG,AFNE01.JPG,AFNE01.JPG,AFNE01.JPG,AFNE01.JPG,,,,,2,7,27,3,,,,,,,,,,,,,,,,,,,AFSA04.jpg,AFNE19.jpg,AFSA16.jpg,AFNE03.jpg,AFSA04.jpg,FS,4,num_8,16,num_8,0.966780636284,,,2017_Jun_22_1204,60.0095467413,MAFE4ImagesEEG,001,100638,
AFNE01.JPG,AFNE01.JPG,AFNE01.JPG,AFNE01.JPG,AFNE01.JPG,AFNE01.JPG,,,,,2,8,28,7,,,,,,,,,,,,,,,,,,,AFNE16.jpg,AFSA17.jpg,AFNE05.jpg,AFSA04.jpg,AFSA04.jpg,FS,4,num_4,32,num_8,1.10007312872,,,2017_Jun_22_1204,60.0095467413,MAFE4ImagesEEG,001,100638,
AFNE01.JPG,AFNE01.JPG,AFNE01.JPG,AFNE01.JPG,AFNE01.JPG,AFNE01.JPG,,,,,2,9,29,5,,,,,,,,,,,,,,,,,,,AFNE10.jpg,AFSA04.jpg,AFNE12.jpg,AFSA01.jpg,AFNE12.jpg,FN,3,num_2,16,num_2,0.717049897524,,,2017_Jun_22_1204,60.0095467413,MAFE4ImagesEEG,001,100638,
AFNE01.JPG,AFNE01.JPG,AFNE01.JPG,AFNE01.JPG,AFNE01.JPG,AFNE01.JPG,,,,,3,0,30,2,,,,,,,,,,,,,,,,,,,AFSA05.jpg,AFSA12.jpg,AFNE05.jpg,AFNE13.jpg,AFSA12.jpg,FS,4,num_6,16,num_6,0.700112259005,,,2017_Jun_22_1204,60.0095467413,MAFE4ImagesEEG,001,100638,
AFNE01.JPG,AFNE01.JPG,AFNE01.JPG,AFNE01.JPG,AFNE01.JPG,AFNE01.JPG,,,,,3,1,31,5,,,,,,,,,,,,,,,,,,,AFNE10.jpg,AFSA04.jpg,AFSA19.jpg,AFNE03.jpg,AFNE03.jpg,FN,3,num_4,32,num_6,1.25012973933,,,2017_Jun_22_1204,60.0095467413,MAFE4ImagesEEG,001,100638,
AFNE01.JPG,AFNE01.JPG,AFNE01.JPG,AFNE01.JPG,AFNE01.JPG,AFNE01.JPG,,,,,3,2,32,6,,,,,,,,,,,,,,,,,,,AFSA09.jpg,AFNE16.jpg,AFSA07.jpg,AFNE18.jpg,AFSA07.jpg,FS,4,num_2,16,num_2,1.10020495287,,,2017_Jun_22_1204,60.0095467413,MAFE4ImagesEEG,001,100638,
AFNE01.JPG,AFNE01.JPG,AFNE01.JPG,AFNE01.JPG,AFNE01.JPG,AFNE01.JPG,,,,,3,3,33,4,,,,,,,,,,,,,,,,,,,AFSA10.jpg,AFNE19.jpg,AFSA14.jpg,AFNE14.jpg,AFNE14.jpg,FN,3,num_4,16,num_4,0.566769410384,,,2017_Jun_22_1204,60.0095467413,MAFE4ImagesEEG,001,100638,
AFNE01.JPG,AFNE01.JPG,AFNE01.JPG,AFNE01.JPG,AFNE01.JPG,AFNE01.JPG,,,,,3,4,34,0,,,,,,,,,,,,,,,,,,,AFNE01.jpg,AFSA17.jpg,AFSA01.jpg,AFNE02.jpg,AFSA01.jpg,FS,4,num_2,32,num_6,1.43338390334,,,2017_Jun_22_1204,60.0095467413,MAFE4ImagesEEG,001,100638,
AFNE01.JPG,AFNE01.JPG,AFNE01.JPG,AFNE01.JPG,AFNE01.JPG,AFNE01.JPG,,,,,3,5,35,1,,,,,,,,,,,,,,,,,,,AFNE12.jpg,AFNE13.jpg,AFSA14.jpg,AFSA10.jpg,AFSA10.jpg,FS,4,num_4,16,num_4,0.750128135635,,,2017_Jun_22_1204,60.0095467413,MAFE4ImagesEEG,001,100638,
AFNE01.JPG,AFNE01.JPG,AFNE01.JPG,AFNE01.JPG,AFNE01.JPG,AFNE01.JPG,,,,,3,6,36,8,,,,,,,,,,,,,,,,,,,AFSA01.jpg,AFNE06.jpg,AFSA08.jpg,AFNE19.jpg,AFNE19.jpg,FN,3,num_4,32,num_8,1.13340539292,,,2017_Jun_22_1204,60.0095467413,MAFE4ImagesEEG,001,100638,
AFNE01.JPG,AFNE01.JPG,AFNE01.JPG,AFNE01.JPG,AFNE01.JPG,AFNE01.JPG,,,,,3,7,37,3,,,,,,,,,,,,,,,,,,,AFNE02.jpg,AFSA14.jpg,AFSA19.jpg,AFNE03.jpg,AFSA14.jpg,FS,4,num_6,32,num_8,0.933138537232,,,2017_Jun_22_1204,60.0095467413,MAFE4ImagesEEG,001,100638,
AFNE01.JPG,AFNE01.JPG,AFNE01.JPG,AFNE01.JPG,AFNE01.JPG,AFNE01.JPG,,,,,3,8,38,9,,,,,,,,,,,,,,,,,,,AFSA18.jpg,AFSA02.jpg,AFNE17.jpg,AFNE03.jpg,AFSA18.jpg,FS,4,num_8,32,num_6,1.5667110357,,,2017_Jun_22_1204,60.0095467413,MAFE4ImagesEEG,001,100638,
AFNE01.JPG,AFNE01.JPG,AFNE01.JPG,AFNE01.JPG,AFNE01.JPG,AFNE01.JPG,,,,,3,9,39,7,,,,,,,,,,,,,,,,,,,AFSA09.jpg,AFNE12.jpg,AFNE07.jpg,AFSA15.jpg,AFNE07.jpg,FN,3,num_2,32,num_8,1.15004827137,,,2017_Jun_22_1204,60.0095467413,MAFE4ImagesEEG,001,100638,
AFNE01.JPG,AFNE01.JPG,AFNE01.JPG,AFNE01.JPG,AFNE01.JPG,AFNE01.JPG,,,,,4,0,40,5,,,,,,,,,,,,,,,,,,,AFNE11.jpg,AFSA11.jpg,AFNE02.jpg,AFSA16.jpg,AFNE11.jpg,FN,3,num_8,32,num_6,1.9333579234,,,2017_Jun_22_1204,60.0095467413,MAFE4ImagesEEG,001,100638,
AFNE01.JPG,AFNE01.JPG,AFNE01.JPG,AFNE01.JPG,AFNE01.JPG,AFNE01.JPG,,,,,4,1,41,1,,,,,,,,,,,,,,,,,,,AFSA03.jpg,AFNE02.jpg,AFSA05.jpg,AFNE07.jpg,AFNE07.jpg,FN,3,num_4,16,num_4,0.700135352286,,,2017_Jun_22_1204,60.0095467413,MAFE4ImagesEEG,001,100638,
AFNE01.JPG,AFNE01.JPG,AFNE01.JPG,AFNE01.JPG,AFNE01.JPG,AFNE01.JPG,,,,,4,2,42,4,,,,,,,,,,,,,,,,,,,AFNE17.jpg,AFSA09.jpg,AFSA11.jpg,AFNE07.jpg,AFSA11.jpg,FS,4,num_2,16,num_2,1.26672322382,,,2017_Jun_22_1204,60.0095467413,MAFE4ImagesEEG,001,100638,
AFNE01.JPG,AFNE01.JPG,AFNE01.JPG,AFNE01.JPG,AFNE01.JPG,AFNE01.JPG,,,,,4,3,43,8,,,,,,,,,,,,,,,,,,,AFNE20.jpg,AFSA19.jpg,AFSA01.jpg,AFNE19.jpg,AFNE19.jpg,FN,3,num_4,16,num_4,0.483479964975,,,2017_Jun_22_1204,60.0095467413,MAFE4ImagesEEG,001,100638,
AFNE01.JPG,AFNE01.JPG,AFNE01.JPG,AFNE01.JPG,AFNE01.JPG,AFNE01.JPG,,,,,4,4,44,9,,,,,,,,,,,,,,,,,,,AFNE01.jpg,AFSA09.jpg,AFNE13.jpg,AFSA06.jpg,AFNE01.jpg,FN,3,num_8,32,num_2,0.900103919763,,,2017_Jun_22_1204,60.0095467413,MAFE4ImagesEEG,001,100638,
AFNE01.JPG,AFNE01.JPG,AFNE01.JPG,AFNE01.JPG,AFNE01.JPG,AFNE01.JPG,,,,,4,5,45,3,,,,,,,,,,,,,,,,,,,AFNE12.jpg,AFNE04.jpg,AFSA07.jpg,AFSA12.jpg,AFSA07.jpg,FS,4,num_2,32,num_6,0.833446447644,,,2017_Jun_22_1204,60.0095467413,MAFE4ImagesEEG,001,100638,
AFNE01.JPG,AFNE01.JPG,AFNE01.JPG,AFNE01.JPG,AFNE01.JPG,AFNE01.JPG,,,,,4,6,46,2,,,,,,,,,,,,,,,,,,,AFSA18.jpg,AFSA04.jpg,AFNE15.jpg,AFNE03.jpg,AFSA04.jpg,FS,4,num_6,32,num_2,1.53342110918,,,2017_Jun_22_1204,60.0095467413,MAFE4ImagesEEG,001,100638,
AFNE01.JPG,AFNE01.JPG,AFNE01.JPG,AFNE01.JPG,AFNE01.JPG,AFNE01.JPG,,,,,4,7,47,6,,,,,,,,,,,,,,,,,,,AFNE02.jpg,AFSA19.jpg,AFNE19.jpg,AFSA20.jpg,AFSA19.jpg,FS,4,num_6,16,num_6,1.31673813823,,,2017_Jun_22_1204,60.0095467413,MAFE4ImagesEEG,001,100638,
AFNE01.JPG,AFNE01.JPG,AFNE01.JPG,AFNE01.JPG,AFNE01.JPG,AFNE01.JPG,,,,,4,8,48,0,,,,,,,,,,,,,,,,,,,AFNE13.jpg,AFSA08.jpg,AFNE12.jpg,AFSA12.jpg,AFNE13.jpg,FN,3,num_8,32,num_2,0.733359527101,,,2017_Jun_22_1204,60.0095467413,MAFE4ImagesEEG,001,100638,
AFNE01.JPG,AFNE01.JPG,AFNE01.JPG,AFNE01.JPG,AFNE01.JPG,AFNE01.JPG,,,,,4,9,49,7,,,,,,,,,,,,,,,,,,,AFSA12.jpg,AFNE07.jpg,AFSA16.jpg,AFNE01.jpg,AFSA16.jpg,FS,4,num_2,16,num_2,0.750203188797,,,2017_Jun_22_1204,60.0095467413,MAFE4ImagesEEG,001,100638,
AFNE01.JPG,AFNE01.JPG,AFNE01.JPG,AFNE01.JPG,AFNE01.JPG,AFNE01.JPG,,,,,5,0,50,9,,,,,,,,,,,,,,,,,,,AFSA13.jpg,AFNE06.jpg,AFSA04.jpg,AFNE15.jpg,AFNE06.jpg,FN,3,num_6,32,num_4,1.08345398503,,,2017_Jun_22_1204,60.0095467413,MAFE4ImagesEEG,001,100638,
AFNE01.JPG,AFNE01.JPG,AFNE01.JPG,AFNE01.JPG,AFNE01.JPG,AFNE01.JPG,,,,,5,1,51,1,,,,,,,,,,,,,,,,,,,AFNE06.jpg,AFSA20.jpg,AFSA02.jpg,AFNE11.jpg,AFSA20.jpg,FS,4,num_6,32,num_8,1.81680292771,,,2017_Jun_22_1204,60.0095467413,MAFE4ImagesEEG,001,100638,
AFNE01.JPG,AFNE01.JPG,AFNE01.JPG,AFNE01.JPG,AFNE01.JPG,AFNE01.JPG,,,,,5,2,52,4,,,,,,,,,,,,,,,,,,,AFNE02.jpg,AFNE12.jpg,AFSA12.jpg,AFSA01.jpg,AFNE12.jpg,FN,3,num_6,16,num_6,0.800153634465,,,2017_Jun_22_1204,60.0095467413,MAFE4ImagesEEG,001,100638,
AFNE01.JPG,AFNE01.JPG,AFNE01.JPG,AFNE01.JPG,AFNE01.JPG,AFNE01.JPG,,,,,5,3,53,7,,,,,,,,,,,,,,,,,,,AFSA05.jpg,AFSA17.jpg,AFNE04.jpg,AFNE15.jpg,AFSA17.jpg,FS,4,num_6,32,num_8,1.36681014437,,,2017_Jun_22_1204,60.0095467413,MAFE4ImagesEEG,001,100638,
AFNE01.JPG,AFNE01.JPG,AFNE01.JPG,AFNE01.JPG,AFNE01.JPG,AFNE01.JPG,,,,,5,4,54,6,,,,,,,,,,,,,,,,,,,AFSA09.jpg,AFSA15.jpg,AFNE19.jpg,AFNE06.jpg,AFNE06.jpg,FN,3,num_4,16,num_4,0.750119475654,,,2017_Jun_22_1204,60.0095467413,MAFE4ImagesEEG,001,100638,
AFNE01.JPG,AFNE01.JPG,AFNE01.JPG,AFNE01.JPG,AFNE01.JPG,AFNE01.JPG,,,,,5,5,55,8,,,,,,,,,,,,,,,,,,,AFNE07.jpg,AFNE13.jpg,AFSA14.jpg,AFSA12.jpg,AFNE07.jpg,FN,3,num_8,32,num_6,1.40009173164,,,2017_Jun_22_1204,60.0095467413,MAFE4ImagesEEG,001,100638,
AFNE01.JPG,AFNE01.JPG,AFNE01.JPG,AFNE01.JPG,AFNE01.JPG,AFNE01.JPG,,,,,5,6,56,5,,,,,,,,,,,,,,,,,,,AFSA14.jpg,AFNE07.jpg,AFSA07.jpg,AFNE03.jpg,AFSA07.jpg,FS,4,num_2,32,num_6,0.733458956504,,,2017_Jun_22_1204,60.0095467413,MAFE4ImagesEEG,001,100638,
AFNE01.JPG,AFNE01.JPG,AFNE01.JPG,AFNE01.JPG,AFNE01.JPG,AFNE01.JPG,,,,,5,7,57,0,,,,,,,,,,,,,,,,,,,AFNE06.jpg,AFSA07.jpg,AFNE17.jpg,AFSA14.jpg,AFNE06.jpg,FN,3,num_8,32,num_6,0.716778551474,,,2017_Jun_22_1204,60.0095467413,MAFE4ImagesEEG,001,100638,
AFNE01.JPG,AFNE01.JPG,AFNE01.JPG,AFNE01.JPG,AFNE01.JPG,AFNE01.JPG,,,,,5,8,58,3,,,,,,,,,,,,,,,,,,,AFNE15.jpg,AFSA17.jpg,AFNE07.jpg,AFSA04.jpg,AFSA17.jpg,FS,4,num_6,16,num_6,0.716761231513,,,2017_Jun_22_1204,60.0095467413,MAFE4ImagesEEG,001,100638,
AFNE01.JPG,AFNE01.JPG,AFNE01.JPG,AFNE01.JPG,AFNE01.JPG,AFNE01.JPG,,,,,5,9,59,2,,,,,,,,,,,,,,,,,,,AFSA01.jpg,AFSA19.jpg,AFNE14.jpg,AFNE02.jpg,AFSA01.jpg,FS,4,num_8,16,num_8,1.08350402048,,,2017_Jun_22_1204,60.0095467413,MAFE4ImagesEEG,001,100638,
,,,,,,,,,,,,,,,,,,,,,,,,,,,,,,,,,,,,,,,,,,,space,10.4660339535,2017_Jun_22_1204,60.0095467413,MAFE4ImagesEEG,001,100638,
AFNE01.JPG,AFNE01.JPG,AFNE01.JPG,AFNE01.JPG,AFNE01.JPG,AFNE01.JPG,,,,,,,,,0,0,0,6,,,,,,,,,,,,,,,AMNE01.jpg,AMSA13.jpg,AMNE04.jpg,AMSA05.jpg,AMSA13.jpg,MS,2,num_6,16,num_6,0.816748081173,,,2017_Jun_22_1204,60.0095467413,MAFE4ImagesEEG,001,100638,
AFNE01.JPG,AFNE01.JPG,AFNE01.JPG,AFNE01.JPG,AFNE01.JPG,AFNE01.JPG,,,,,,,,,0,1,1,2,,,,,,,,,,,,,,,AMNE19.jpg,AMSA08.jpg,AMNE06.jpg,AMSA14.jpg,AMSA08.jpg,MS,2,num_6,32,num_8,1.18338791259,,,2017_Jun_22_1204,60.0095467413,MAFE4ImagesEEG,001,100638,
AFNE01.JPG,AFNE01.JPG,AFNE01.JPG,AFNE01.JPG,AFNE01.JPG,AFNE01.JPG,,,,,,,,,0,2,2,5,,,,,,,,,,,,,,,AMSA12.jpg,AMNE06.jpg,AMSA11.jpg,AMNE08.jpg,AMNE06.jpg,MN,1,num_6,16,num_6,0.700135673025,,,2017_Jun_22_1204,60.0095467413,MAFE4ImagesEEG,001,100638,
AFNE01.JPG,AFNE01.JPG,AFNE01.JPG,AFNE01.JPG,AFNE01.JPG,AFNE01.JPG,,,,,,,,,0,3,3,1,,,,,,,,,,,,,,,AMNE07.jpg,AMNE18.jpg,AMSA11.jpg,AMSA02.jpg,AMNE07.jpg,MN,1,num_8,16,num_8,1.08342928805,,,2017_Jun_22_1204,60.0095467413,MAFE4ImagesEEG,001,100638,
AFNE01.JPG,AFNE01.JPG,AFNE01.JPG,AFNE01.JPG,AFNE01.JPG,AFNE01.JPG,,,,,,,,,0,4,4,8,,,,,,,,,,,,,,,AMSA13.jpg,AMNE07.jpg,AMSA15.jpg,AMNE01.jpg,AMSA13.jpg,MS,2,num_8,32,num_6,1.00007569464,,,2017_Jun_22_1204,60.0095467413,MAFE4ImagesEEG,001,100638,
AFNE01.JPG,AFNE01.JPG,AFNE01.JPG,AFNE01.JPG,AFNE01.JPG,AFNE01.JPG,,,,,,,,,0,5,5,0,,,,,,,,,,,,,,,AMSA14.jpg,AMNE19.jpg,AMNE03.jpg,AMSA16.jpg,AMSA16.jpg,MS,2,num_4,16,num_4,0.649975784129,,,2017_Jun_22_1204,60.0095467413,MAFE4ImagesEEG,001,100638,
AFNE01.JPG,AFNE01.JPG,AFNE01.JPG,AFNE01.JPG,AFNE01.JPG,AFNE01.JPG,,,,,,,,,0,6,6,4,,,,,,,,,,,,,,,AMNE07.jpg,AMSA05.jpg,AMSA02.jpg,AMNE08.jpg,AMNE08.jpg,MN,1,num_4,32,num_8,1.70005324284,,,2017_Jun_22_1204,60.0095467413,MAFE4ImagesEEG,001,100638,
AFNE01.JPG,AFNE01.JPG,AFNE01.JPG,AFNE01.JPG,AFNE01.JPG,AFNE01.JPG,,,,,,,,,0,7,7,9,,,,,,,,,,,,,,,AMNE08.jpg,AMNE16.jpg,AMSA17.jpg,AMSA03.jpg,AMNE16.jpg,MN,1,num_6,32,num_8,1.03341597734,,,2017_Jun_22_1204,60.0095467413,MAFE4ImagesEEG,001,100638,
AFNE01.JPG,AFNE01.JPG,AFNE01.JPG,AFNE01.JPG,AFNE01.JPG,AFNE01.JPG,,,,,,,,,0,8,8,7,,,,,,,,,,,,,,,AMSA12.jpg,AMNE17.jpg,AMNE05.jpg,AMSA07.jpg,AMSA07.jpg,MS,2,num_4,32,num_2,1.18343762729,,,2017_Jun_22_1204,60.0095467413,MAFE4ImagesEEG,001,100638,
AFNE01.JPG,AFNE01.JPG,AFNE01.JPG,AFNE01.JPG,AFNE01.JPG,AFNE01.JPG,,,,,,,,,0,9,9,3,,,,,,,,,,,,,,,AMNE11.jpg,AMNE14.jpg,AMSA09.jpg,AMSA11.jpg,AMNE14.jpg,MN,1,num_6,32,num_4,1.11674872265,,,2017_Jun_22_1204,60.0095467413,MAFE4ImagesEEG,001,100638,
AFNE01.JPG,AFNE01.JPG,AFNE01.JPG,AFNE01.JPG,AFNE01.JPG,AFNE01.JPG,,,,,,,,,1,0,10,6,,,,,,,,,,,,,,,AMNE11.jpg,AMNE16.jpg,AMSA16.jpg,AMSA10.jpg,AMNE16.jpg,MN,1,num_6,16,num_6,0.933550046668,,,2017_Jun_22_1204,60.0095467413,MAFE4ImagesEEG,001,100638,
AFNE01.JPG,AFNE01.JPG,AFNE01.JPG,AFNE01.JPG,AFNE01.JPG,AFNE01.JPG,,,,,,,,,1,1,11,5,,,,,,,,,,,,,,,AMNE09.jpg,AMSA15.jpg,AMNE11.jpg,AMSA11.jpg,AMSA15.jpg,MS,2,num_6,32,num_2,1.05008387351,,,2017_Jun_22_1204,60.0095467413,MAFE4ImagesEEG,001,100638,
AFNE01.JPG,AFNE01.JPG,AFNE01.JPG,AFNE01.JPG,AFNE01.JPG,AFNE01.JPG,,,,,,,,,1,2,12,3,,,,,,,,,,,,,,,AMNE17.jpg,AMSA05.jpg,AMNE07.jpg,AMSA12.jpg,AMSA12.jpg,MS,2,num_4,32,num_6,0.783463286495,,,2017_Jun_22_1204,60.0095467413,MAFE4ImagesEEG,001,100638,
AFNE01.JPG,AFNE01.JPG,AFNE01.JPG,AFNE01.JPG,AFNE01.JPG,AFNE01.JPG,,,,,,,,,1,3,13,2,,,,,,,,,,,,,,,AMNE07.jpg,AMNE08.jpg,AMSA08.jpg,AMSA16.jpg,AMNE07.jpg,MN,1,num_8,32,num_6,0.750122683055,,,2017_Jun_22_1204,60.0095467413,MAFE4ImagesEEG,001,100638,
AFNE01.JPG,AFNE01.JPG,AFNE01.JPG,AFNE01.JPG,AFNE01.JPG,AFNE01.JPG,,,,,,,,,1,4,14,9,,,,,,,,,,,,,,,AMNE10.jpg,AMSA09.jpg,AMSA07.jpg,AMNE19.jpg,AMSA09.jpg,MS,2,num_6,32,num_2,1.11670638497,,,2017_Jun_22_1204,60.0095467413,MAFE4ImagesEEG,001,100638,
AFNE01.JPG,AFNE01.JPG,AFNE01.JPG,AFNE01.JPG,AFNE01.JPG,AFNE01.JPG,,,,,,,,,1,5,15,4,,,,,,,,,,,,,,,AMNE15.jpg,AMNE09.jpg,AMSA03.jpg,AMSA04.jpg,AMSA03.jpg,MS,2,num_2,16,num_2,0.816758344853,,,2017_Jun_22_1204,60.0095467413,MAFE4ImagesEEG,001,100638,
AFNE01.JPG,AFNE01.JPG,AFNE01.JPG,AFNE01.JPG,AFNE01.JPG,AFNE01.JPG,,,,,,,,,1,6,16,8,,,,,,,,,,,,,,,AMNE03.jpg,AMNE10.jpg,AMSA20.jpg,AMSA15.jpg,AMSA15.jpg,MS,2,num_4,16,num_4,0.816857453517,,,2017_Jun_22_1204,60.0095467413,MAFE4ImagesEEG,001,100638,
AFNE01.JPG,AFNE01.JPG,AFNE01.JPG,AFNE01.JPG,AFNE01.JPG,AFNE01.JPG,,,,,,,,,1,7,17,1,,,,,,,,,,,,,,,AMNE02.jpg,AMSA17.jpg,AMSA02.jpg,AMNE08.jpg,AMSA02.jpg,MS,2,num_2,16,num_2,0.666462782932,,,2017_Jun_22_1204,60.0095467413,MAFE4ImagesEEG,001,100638,
AFNE01.JPG,AFNE01.JPG,AFNE01.JPG,AFNE01.JPG,AFNE01.JPG,AFNE01.JPG,,,,,,,,,1,8,18,7,,,,,,,,,,,,,,,AMSA03.jpg,AMSA14.jpg,AMNE18.jpg,AMNE17.jpg,AMNE17.jpg,MN,1,num_4,32,num_2,0.816760910773,,,2017_Jun_22_1204,60.0095467413,MAFE4ImagesEEG,001,100638,
AFNE01.JPG,AFNE01.JPG,AFNE01.JPG,AFNE01.JPG,AFNE01.JPG,AFNE01.JPG,,,,,,,,,1,9,19,0,,,,,,,,,,,,,,,AMNE15.jpg,AMSA13.jpg,AMNE07.jpg,AMSA11.jpg,AMSA11.jpg,MS,2,num_4,16,num_4,0.433579554749,,,2017_Jun_22_1204,60.0095467413,MAFE4ImagesEEG,001,100638,
AFNE01.JPG,AFNE01.JPG,AFNE01.JPG,AFNE01.JPG,AFNE01.JPG,AFNE01.JPG,,,,,,,,,2,0,20,2,,,,,,,,,,,,,,,AMNE17.jpg,AMSA16.jpg,AMNE14.jpg,AMSA07.jpg,AMSA07.jpg,MS,2,num_4,32,num_2,1.60003271548,,,2017_Jun_22_1204,60.0095467413,MAFE4ImagesEEG,001,100638,
AFNE01.JPG,AFNE01.JPG,AFNE01.JPG,AFNE01.JPG,AFNE01.JPG,AFNE01.JPG,,,,,,,,,2,1,21,4,,,,,,,,,,,,,,,AMNE07.jpg,AMSA16.jpg,AMNE05.jpg,AMSA11.jpg,AMNE05.jpg,MN,1,num_2,32,num_6,1.06673477046,,,2017_Jun_22_1204,60.0095467413,MAFE4ImagesEEG,001,100638,
AFNE01.JPG,AFNE01.JPG,AFNE01.JPG,AFNE01.JPG,AFNE01.JPG,AFNE01.JPG,,,,,,,,,2,2,22,1,,,,,,,,,,,,,,,AMSA14.jpg,AMNE19.jpg,AMNE06.jpg,AMSA02.jpg,AMNE19.jpg,MN,1,num_6,32,num_2,0.666766202983,,,2017_Jun_22_1204,60.0095467413,MAFE4ImagesEEG,001,100638,
AFNE01.JPG,AFNE01.JPG,AFNE01.JPG,AFNE01.JPG,AFNE01.JPG,AFNE01.JPG,,,,,,,,,2,3,23,8,,,,,,,,,,,,,,,AMSA07.jpg,AMNE15.jpg,AMNE17.jpg,AMSA14.jpg,AMSA07.jpg,MS,2,num_8,32,num_4,0.766757222264,,,2017_Jun_22_1204,60.0095467413,MAFE4ImagesEEG,001,100638,
AFNE01.JPG,AFNE01.JPG,AFNE01.JPG,AFNE01.JPG,AFNE01.JPG,AFNE01.JPG,,,,,,,,,2,4,24,5,,,,,,,,,,,,,,,AMNE15.jpg,AMSA04.jpg,AMSA16.jpg,AMNE02.jpg,AMSA04.jpg,MS,2,num_6,32,num_4,0.966728676402,,,2017_Jun_22_1204,60.0095467413,MAFE4ImagesEEG,001,100638,
AFNE01.JPG,AFNE01.JPG,AFNE01.JPG,AFNE01.JPG,AFNE01.JPG,AFNE01.JPG,,,,,,,,,2,5,25,6,,,,,,,,,,,,,,,AMNE18.jpg,AMSA20.jpg,AMNE05.jpg,AMSA17.jpg,AMSA17.jpg,MS,2,num_4,16,num_4,0.550129739334,,,2017_Jun_22_1204,60.0095467413,MAFE4ImagesEEG,001,100638,
AFNE01.JPG,AFNE01.JPG,AFNE01.JPG,AFNE01.JPG,AFNE01.JPG,AFNE01.JPG,,,,,,,,,2,6,26,0,,,,,,,,,,,,,,,AMSA02.jpg,AMNE08.jpg,AMSA05.jpg,AMNE17.jpg,AMSA05.jpg,MS,2,num_2,32,num_6,1.40007793982,,,2017_Jun_22_1204,60.0095467413,MAFE4ImagesEEG,001,100638,
AFNE01.JPG,AFNE01.JPG,AFNE01.JPG,AFNE01.JPG,AFNE01.JPG,AFNE01.JPG,,,,,,,,,2,7,27,7,,,,,,,,,,,,,,,AMNE12.jpg,AMNE04.jpg,AMSA09.jpg,AMSA10.jpg,AMSA09.jpg,MS,2,num_2,32,num_8,0.916775344073,,,2017_Jun_22_1204,60.0095467413,MAFE4ImagesEEG,001,100638,
AFNE01.JPG,AFNE01.JPG,AFNE01.JPG,AFNE01.JPG,AFNE01.JPG,AFNE01.JPG,,,,,,,,,2,8,28,3,,,,,,,,,,,,,,,AMNE01.jpg,AMNE20.jpg,AMSA10.jpg,AMSA03.jpg,AMSA03.jpg,MS,2,num_4,32,num_2,1.23343265582,,,2017_Jun_22_1204,60.0095467413,MAFE4ImagesEEG,001,100638,
AFNE01.JPG,AFNE01.JPG,AFNE01.JPG,AFNE01.JPG,AFNE01.JPG,AFNE01.JPG,,,,,,,,,2,9,29,9,,,,,,,,,,,,,,,AMNE10.jpg,AMSA20.jpg,AMNE13.jpg,AMSA02.jpg,AMSA20.jpg,MS,2,num_6,32,num_8,1.21672755381,,,2017_Jun_22_1204,60.0095467413,MAFE4ImagesEEG,001,100638,
AFNE01.JPG,AFNE01.JPG,AFNE01.JPG,AFNE01.JPG,AFNE01.JPG,AFNE01.JPG,,,,,,,,,3,0,30,4,,,,,,,,,,,,,,,AMSA19.jpg,AMNE01.jpg,AMSA11.jpg,AMNE06.jpg,AMNE06.jpg,MN,1,num_4,32,num_8,0.733457994284,,,2017_Jun_22_1204,60.0095467413,MAFE4ImagesEEG,001,100638,
AFNE01.JPG,AFNE01.JPG,AFNE01.JPG,AFNE01.JPG,AFNE01.JPG,AFNE01.JPG,,,,,,,,,3,1,31,8,,,,,,,,,,,,,,,AMSA19.jpg,AMNE09.jpg,AMNE18.jpg,AMSA13.jpg,AMSA19.jpg,MS,2,num_8,16,num_8,1.06676652372,,,2017_Jun_22_1204,60.0095467413,MAFE4ImagesEEG,001,100638,
AFNE01.JPG,AFNE01.JPG,AFNE01.JPG,AFNE01.JPG,AFNE01.JPG,AFNE01.JPG,,,,,,,,,3,2,32,9,,,,,,,,,,,,,,,AMNE13.jpg,AMNE14.jpg,AMSA02.jpg,AMSA04.jpg,AMNE13.jpg,MN,1,num_8,16,num_8,0.900105202724,,,2017_Jun_22_1204,60.0095467413,MAFE4ImagesEEG,001,100638,
AFNE01.JPG,AFNE01.JPG,AFNE01.JPG,AFNE01.JPG,AFNE01.JPG,AFNE01.JPG,,,,,,,,,3,3,33,0,,,,,,,,,,,,,,,AMSA08.jpg,AMSA19.jpg,AMNE05.jpg,AMNE20.jpg,AMNE20.jpg,MN,1,num_4,32,num_8,1.10040092501,,,2017_Jun_22_1204,60.0095467413,MAFE4ImagesEEG,001,100638,
AFNE01.JPG,AFNE01.JPG,AFNE01.JPG,AFNE01.JPG,AFNE01.JPG,AFNE01.JPG,,,,,,,,,3,4,34,1,,,,,,,,,,,,,,,AMNE11.jpg,AMSA09.jpg,AMSA03.jpg,AMNE08.jpg,AMNE08.jpg,MN,1,num_4,16,num_4,0.816786890715,,,2017_Jun_22_1204,60.0095467413,MAFE4ImagesEEG,001,100638,
AFNE01.JPG,AFNE01.JPG,AFNE01.JPG,AFNE01.JPG,AFNE01.JPG,AFNE01.JPG,,,,,,,,,3,5,35,5,,,,,,,,,,,,,,,AMSA18.jpg,AMNE01.jpg,AMSA11.jpg,AMNE03.jpg,AMNE03.jpg,MN,1,num_4,16,num_4,0.766824256926,,,2017_Jun_22_1204,60.0095467413,MAFE4ImagesEEG,001,100638,
AFNE01.JPG,AFNE01.JPG,AFNE01.JPG,AFNE01.JPG,AFNE01.JPG,AFNE01.JPG,,,,,,,,,3,6,36,2,,,,,,,,,,,,,,,AMNE01.jpg,AMNE12.jpg,AMSA06.jpg,AMSA20.jpg,AMSA20.jpg,MS,2,num_4,32,num_6,1.03348846459,,,2017_Jun_22_1204,60.0095467413,MAFE4ImagesEEG,001,100638,
AFNE01.JPG,AFNE01.JPG,AFNE01.JPG,AFNE01.JPG,AFNE01.JPG,AFNE01.JPG,,,,,,,,,3,7,37,6,,,,,,,,,,,,,,,AMNE02.jpg,AMSA07.jpg,AMNE05.jpg,AMSA01.jpg,AMSA07.jpg,MS,2,num_6,16,num_6,0.533457673544,,,2017_Jun_22_1204,60.0095467413,MAFE4ImagesEEG,001,100638,
AFNE01.JPG,AFNE01.JPG,AFNE01.JPG,AFNE01.JPG,AFNE01.JPG,AFNE01.JPG,,,,,,,,,3,8,38,3,,,,,,,,,,,,,,,AMSA09.jpg,AMNE12.jpg,AMNE17.jpg,AMSA19.jpg,AMSA09.jpg,MS,2,num_8,16,num_8,1.31656173123,,,2017_Jun_22_1204,60.0095467413,MAFE4ImagesEEG,001,100638,
AFNE01.JPG,AFNE01.JPG,AFNE01.JPG,AFNE01.JPG,AFNE01.JPG,AFNE01.JPG,,,,,,,,,3,9,39,7,,,,,,,,,,,,,,,AMSA17.jpg,AMNE15.jpg,AMNE02.jpg,AMSA05.jpg,AMSA17.jpg,MS,2,num_8,16,num_8,1.8333803752,,,2017_Jun_22_1204,60.0095467413,MAFE4ImagesEEG,001,100638,
AFNE01.JPG,AFNE01.JPG,AFNE01.JPG,AFNE01.JPG,AFNE01.JPG,AFNE01.JPG,,,,,,,,,4,0,40,3,,,,,,,,,,,,,,,AMNE19.jpg,AMSA02.jpg,AMNE06.jpg,AMSA10.jpg,AMNE19.jpg,MN,1,num_8,16,num_8,0.733344452321,,,2017_Jun_22_1204,60.0095467413,MAFE4ImagesEEG,001,100638,
AFNE01.JPG,AFNE01.JPG,AFNE01.JPG,AFNE01.JPG,AFNE01.JPG,AFNE01.JPG,,,,,,,,,4,1,41,4,,,,,,,,,,,,,,,AMNE16.jpg,AMNE02.jpg,AMSA18.jpg,AMSA04.jpg,AMSA18.jpg,MS,2,num_2,16,num_2,1.06674567562,,,2017_Jun_22_1204,60.0095467413,MAFE4ImagesEEG,001,100638,
AFNE01.JPG,AFNE01.JPG,AFNE01.JPG,AFNE01.JPG,AFNE01.JPG,AFNE01.JPG,,,,,,,,,4,2,42,6,,,,,,,,,,,,,,,AMNE15.jpg,AMSA12.jpg,AMSA17.jpg,AMNE17.jpg,AMNE15.jpg,MN,1,num_8,16,num_8,1.78339657257,,,2017_Jun_22_1204,60.0095467413,MAFE4ImagesEEG,001,100638,
AFNE01.JPG,AFNE01.JPG,AFNE01.JPG,AFNE01.JPG,AFNE01.JPG,AFNE01.JPG,,,,,,,,,4,3,43,8,,,,,,,,,,,,,,,AMSA05.jpg,AMNE20.jpg,AMNE13.jpg,AMSA02.jpg,AMNE13.jpg,MN,1,num_2,32,num_8,1.28338213927,,,2017_Jun_22_1204,60.0095467413,MAFE4ImagesEEG,001,100638,
AFNE01.JPG,AFNE01.JPG,AFNE01.JPG,AFNE01.JPG,AFNE01.JPG,AFNE01.JPG,,,,,,,,,4,4,44,1,,,,,,,,,,,,,,,AMNE15.jpg,AMNE16.jpg,AMSA04.jpg,AMSA19.jpg,AMSA04.jpg,MS,2,num_2,16,num_2,1.1334365047,,,2017_Jun_22_1204,60.0095467413,MAFE4ImagesEEG,001,100638,
AFNE01.JPG,AFNE01.JPG,AFNE01.JPG,AFNE01.JPG,AFNE01.JPG,AFNE01.JPG,,,,,,,,,4,5,45,0,,,,,,,,,,,,,,,AMSA12.jpg,AMNE03.jpg,AMSA11.jpg,AMNE09.jpg,AMNE09.jpg,MN,1,num_4,32,num_8,1.4667014135,,,2017_Jun_22_1204,60.0095467413,MAFE4ImagesEEG,001,100638,
AFNE01.JPG,AFNE01.JPG,AFNE01.JPG,AFNE01.JPG,AFNE01.JPG,AFNE01.JPG,,,,,,,,,4,6,46,9,,,,,,,,,,,,,,,AMSA19.jpg,AMSA14.jpg,AMNE04.jpg,AMNE18.jpg,AMSA14.jpg,MS,2,num_6,16,num_6,1.85004121509,,,2017_Jun_22_1204,60.0095467413,MAFE4ImagesEEG,001,100638,
AFNE01.JPG,AFNE01.JPG,AFNE01.JPG,AFNE01.JPG,AFNE01.JPG,AFNE01.JPG,,,,,,,,,4,7,47,7,,,,,,,,,,,,,,,AMSA17.jpg,AMNE10.jpg,AMSA16.jpg,AMNE16.jpg,AMNE16.jpg,MN,1,num_4,32,num_6,0.650132625994,,,2017_Jun_22_1204,60.0095467413,MAFE4ImagesEEG,001,100638,
AFNE01.JPG,AFNE01.JPG,AFNE01.JPG,AFNE01.JPG,AFNE01.JPG,AFNE01.JPG,,,,,,,,,4,8,48,2,,,,,,,,,,,,,,,AMSA17.jpg,AMSA16.jpg,AMNE03.jpg,AMNE07.jpg,AMSA17.jpg,MS,2,num_8,32,num_2,1.21674423229,,,2017_Jun_22_1204,60.0095467413,MAFE4ImagesEEG,001,100638,
AFNE01.JPG,AFNE01.JPG,AFNE01.JPG,AFNE01.JPG,AFNE01.JPG,AFNE01.JPG,,,,,,,,,4,9,49,5,,,,,,,,,,,,,,,AMNE10.jpg,AMNE19.jpg,AMSA07.jpg,AMSA12.jpg,AMSA07.jpg,MS,2,num_2,32,num_4,1.43345542836,,,2017_Jun_22_1204,60.0095467413,MAFE4ImagesEEG,001,100638,
AFNE01.JPG,AFNE01.JPG,AFNE01.JPG,AFNE01.JPG,AFNE01.JPG,AFNE01.JPG,,,,,,,,,5,0,50,6,,,,,,,,,,,,,,,AMNE17.jpg,AMNE08.jpg,AMSA01.jpg,AMSA06.jpg,AMNE17.jpg,MN,1,num_8,16,num_8,0.683453985034,,,2017_Jun_22_1204,60.0095467413,MAFE4ImagesEEG,001,100638,
AFNE01.JPG,AFNE01.JPG,AFNE01.JPG,AFNE01.JPG,AFNE01.JPG,AFNE01.JPG,,,,,,,,,5,1,51,1,,,,,,,,,,,,,,,AMNE14.jpg,AMSA13.jpg,AMSA15.jpg,AMNE08.jpg,AMNE14.jpg,MN,1,num_8,32,num_2,1.04996006787,,,2017_Jun_22_1204,60.0095467413,MAFE4ImagesEEG,001,100638,
AFNE01.JPG,AFNE01.JPG,AFNE01.JPG,AFNE01.JPG,AFNE01.JPG,AFNE01.JPG,,,,,,,,,5,2,52,4,,,,,,,,,,,,,,,AMNE07.jpg,AMSA17.jpg,AMNE18.jpg,AMSA18.jpg,AMSA17.jpg,MS,2,num_6,32,num_2,1.16672643122,,,2017_Jun_22_1204,60.0095467413,MAFE4ImagesEEG,001,100638,
AFNE01.JPG,AFNE01.JPG,AFNE01.JPG,AFNE01.JPG,AFNE01.JPG,AFNE01.JPG,,,,,,,,,5,3,53,8,,,,,,,,,,,,,,,AMNE03.jpg,AMSA03.jpg,AMSA10.jpg,AMNE09.jpg,AMSA10.jpg,MS,2,num_2,16,num_2,0.750116588993,,,2017_Jun_22_1204,60.0095467413,MAFE4ImagesEEG,001,100638,
AFNE01.JPG,AFNE01.JPG,AFNE01.JPG,AFNE01.JPG,AFNE01.JPG,AFNE01.JPG,,,,,,,,,5,4,54,2,,,,,,,,,,,,,,,AMNE19.jpg,AMSA11.jpg,AMNE14.jpg,AMSA12.jpg,AMSA12.jpg,MS,2,num_4,32,num_6,1.23345510762,,,2017_Jun_22_1204,60.0095467413,MAFE4ImagesEEG,001,100638,
AFNE01.JPG,AFNE01.JPG,AFNE01.JPG,AFNE01.JPG,AFNE01.JPG,AFNE01.JPG,,,,,,,,,5,5,55,9,,,,,,,,,,,,,,,AMNE07.jpg,AMNE17.jpg,AMSA02.jpg,AMSA18.jpg,AMNE17.jpg,MN,1,num_6,16,num_6,1.01674230785,,,2017_Jun_22_1204,60.0095467413,MAFE4ImagesEEG,001,100638,
AFNE01.JPG,AFNE01.JPG,AFNE01.JPG,AFNE01.JPG,AFNE01.JPG,AFNE01.JPG,,,,,,,,,5,6,56,5,,,,,,,,,,,,,,,AMSA10.jpg,AMNE11.jpg,AMSA15.jpg,AMNE02.jpg,AMSA15.jpg,MS,2,num_2,16,num_2,0.816750326353,,,2017_Jun_22_1204,60.0095467413,MAFE4ImagesEEG,001,100638,
AFNE01.JPG,AFNE01.JPG,AFNE01.JPG,AFNE01.JPG,AFNE01.JPG,AFNE01.JPG,,,,,,,,,5,7,57,7,,,,,,,,,,,,,,,AMNE17.jpg,AMNE06.jpg,AMSA11.jpg,AMSA03.jpg,AMNE17.jpg,MN,1,num_8,32,num_6,3.01657007047,,,2017_Jun_22_1204,60.0095467413,MAFE4ImagesEEG,001,100638,
AFNE01.JPG,AFNE01.JPG,AFNE01.JPG,AFNE01.JPG,AFNE01.JPG,AFNE01.JPG,,,,,,,,,5,8,58,3,,,,,,,,,,,,,,,AMNE02.jpg,AMSA10.jpg,AMSA03.jpg,AMNE04.jpg,AMNE02.jpg,MN,1,num_8,32,num_4,0.550188434757,,,2017_Jun_22_1204,60.0095467413,MAFE4ImagesEEG,001,100638,
AFNE01.JPG,AFNE01.JPG,AFNE01.JPG,AFNE01.JPG,AFNE01.JPG,AFNE01.JPG,,,,,,,,,5,9,59,0,,,,,,,,,,,,,,,AMSA14.jpg,AMNE13.jpg,AMNE17.jpg,AMSA15.jpg,AMNE13.jpg,MN,1,num_6,32,num_8,1.53375852767,,,2017_Jun_22_1204,60.0095467413,MAFE4ImagesEEG,001,100638,
,,,,,,,,,,,,,,,,,,,,,,,,,,,,,,,,,,,,,,,,,,,space,15.5986702119,2017_Jun_22_1204,60.0095467413,MAFE4ImagesEEG,001,100638,
AFNE01.JPG,AFNE01.JPG,AFNE01.JPG,AFNE01.JPG,AFNE01.JPG,AFNE01.JPG,,,,,,,,,,,,,0,0,0,3,,,,,,,,,,,AFSA19.jpg,AFSA11.jpg,AFNE05.jpg,AFNE03.jpg,AFSA11.jpg,FS,4,num_6,32,num_4,0.650082590552,,,2017_Jun_22_1204,60.0095467413,MAFE4ImagesEEG,001,100638,
AFNE01.JPG,AFNE01.JPG,AFNE01.JPG,AFNE01.JPG,AFNE01.JPG,AFNE01.JPG,,,,,,,,,,,,,0,1,1,8,,,,,,,,,,,AFSA14.jpg,AFNE09.jpg,AFSA06.jpg,AFNE17.jpg,AFSA06.jpg,FS,4,num_2,32,num_4,1.1001347108,,,2017_Jun_22_1204,60.0095467413,MAFE4ImagesEEG,001,100638,
AFNE01.JPG,AFNE01.JPG,AFNE01.JPG,AFNE01.JPG,AFNE01.JPG,AFNE01.JPG,,,,,,,,,,,,,0,2,2,0,,,,,,,,,,,AFNE15.jpg,AFNE19.jpg,AFSA01.jpg,AFSA03.jpg,AFSA01.jpg,FS,4,num_2,32,num_6,1.90004746952,,,2017_Jun_22_1204,60.0095467413,MAFE4ImagesEEG,001,100638,
AFNE01.JPG,AFNE01.JPG,AFNE01.JPG,AFNE01.JPG,AFNE01.JPG,AFNE01.JPG,,,,,,,,,,,,,0,3,3,5,,,,,,,,,,,AFNE17.jpg,AFSA08.jpg,AFNE03.jpg,AFSA10.jpg,AFSA10.jpg,FS,4,num_4,32,num_8,1.11679138107,,,2017_Jun_22_1204,60.0095467413,MAFE4ImagesEEG,001,100638,
AFNE01.JPG,AFNE01.JPG,AFNE01.JPG,AFNE01.JPG,AFNE01.JPG,AFNE01.JPG,,,,,,,,,,,,,0,4,4,2,,,,,,,,,,,AFNE17.jpg,AFNE20.jpg,AFSA18.jpg,AFSA16.jpg,AFNE17.jpg,FN,3,num_8,16,num_8,1.71669547981,,,2017_Jun_22_1204,60.0095467413,MAFE4ImagesEEG,001,100638,
AFNE01.JPG,AFNE01.JPG,AFNE01.JPG,AFNE01.JPG,AFNE01.JPG,AFNE01.JPG,,,,,,,,,,,,,0,5,5,4,,,,,,,,,,,AFNE11.jpg,AFSA13.jpg,AFSA20.jpg,AFNE06.jpg,AFSA20.jpg,FS,4,num_2,16,num_2,0.850137116355,,,2017_Jun_22_1204,60.0095467413,MAFE4ImagesEEG,001,100638,
AFNE01.JPG,AFNE01.JPG,AFNE01.JPG,AFNE01.JPG,AFNE01.JPG,AFNE01.JPG,,,,,,,,,,,,,0,6,6,7,,,,,,,,,,,AFSA14.jpg,AFNE15.jpg,AFNE05.jpg,AFSA08.jpg,AFSA08.jpg,FS,4,num_4,16,num_4,0.53333835826,,,2017_Jun_22_1204,60.0095467413,MAFE4ImagesEEG,001,100638,
AFNE01.JPG,AFNE01.JPG,AFNE01.JPG,AFNE01.JPG,AFNE01.JPG,AFNE01.JPG,,,,,,,,,,,,,0,7,7,6,,,,,,,,,,,AFSA01.jpg,AFSA03.jpg,AFNE19.jpg,AFNE14.jpg,AFSA01.jpg,FS,4,num_8,32,num_6,1.8000994294,,,2017_Jun_22_1204,60.0095467413,MAFE4ImagesEEG,001,100638,
AFNE01.JPG,AFNE01.JPG,AFNE01.JPG,AFNE01.JPG,AFNE01.JPG,AFNE01.JPG,,,,,,,,,,,,,0,8,8,9,,,,,,,,,,,AFSA02.jpg,AFNE12.jpg,AFSA17.jpg,AFNE18.jpg,AFSA17.jpg,FS,4,num_2,32,num_8,1.31671279977,,,2017_Jun_22_1204,60.0095467413,MAFE4ImagesEEG,001,100638,
AFNE01.JPG,AFNE01.JPG,AFNE01.JPG,AFNE01.JPG,AFNE01.JPG,AFNE01.JPG,,,,,,,,,,,,,0,9,9,1,,,,,,,,,,,AFNE18.jpg,AFSA06.jpg,AFSA19.jpg,AFNE02.jpg,AFNE02.jpg,FN,3,num_4,32,num_8,0.566765882243,,,2017_Jun_22_1204,60.0095467413,MAFE4ImagesEEG,001,100638,
AFNE01.JPG,AFNE01.JPG,AFNE01.JPG,AFNE01.JPG,AFNE01.JPG,AFNE01.JPG,,,,,,,,,,,,,1,0,10,3,,,,,,,,,,,AFSA15.jpg,AFNE17.jpg,AFSA13.jpg,AFNE07.jpg,AFSA15.jpg,FS,4,num_8,32,num_2,1.23327998358,,,2017_Jun_22_1204,60.0095467413,MAFE4ImagesEEG,001,100638,
AFNE01.JPG,AFNE01.JPG,AFNE01.JPG,AFNE01.JPG,AFNE01.JPG,AFNE01.JPG,,,,,,,,,,,,,1,1,11,0,,,,,,,,,,,AFSA01.jpg,AFSA18.jpg,AFNE11.jpg,AFNE20.jpg,AFSA18.jpg,FS,4,num_6,32,num_4,1.66660294632,,,2017_Jun_22_1204,60.0095467413,MAFE4ImagesEEG,001,100638,
AFNE01.JPG,AFNE01.JPG,AFNE01.JPG,AFNE01.JPG,AFNE01.JPG,AFNE01.JPG,,,,,,,,,,,,,1,2,12,2,,,,,,,,,,,AFNE03.jpg,AFSA10.jpg,AFNE05.jpg,AFSA20.jpg,AFNE05.jpg,FN,3,num_2,32,num_6,0.933418222523,,,2017_Jun_22_1204,60.0095467413,MAFE4ImagesEEG,001,100638,
AFNE01.JPG,AFNE01.JPG,AFNE01.JPG,AFNE01.JPG,AFNE01.JPG,AFNE01.JPG,,,,,,,,,,,,,1,3,13,1,,,,,,,,,,,AFSA09.jpg,AFNE10.jpg,AFNE09.jpg,AFSA01.jpg,AFSA09.jpg,FS,4,num_8,16,num_8,1.28343955173,,,2017_Jun_22_1204,60.0095467413,MAFE4ImagesEEG,001,100638,
AFNE01.JPG,AFNE01.JPG,AFNE01.JPG,AFNE01.JPG,AFNE01.JPG,AFNE01.JPG,,,,,,,,,,,,,1,4,14,8,,,,,,,,,,,AFSA20.jpg,AFSA11.jpg,AFNE19.jpg,AFNE05.jpg,AFNE05.jpg,FN,3,num_4,16,num_4,0.883447890974,,,2017_Jun_22_1204,60.0095467413,MAFE4ImagesEEG,001,100638,
AFNE01.JPG,AFNE01.JPG,AFNE01.JPG,AFNE01.JPG,AFNE01.JPG,AFNE01.JPG,,,,,,,,,,,,,1,5,15,5,,,,,,,,,,,AFSA01.jpg,AFNE05.jpg,AFNE18.jpg,AFSA11.jpg,AFNE05.jpg,FN,3,num_6,16,num_6,0.600126371564,,,2017_Jun_22_1204,60.0095467413,MAFE4ImagesEEG,001,100638,
AFNE01.JPG,AFNE01.JPG,AFNE01.JPG,AFNE01.JPG,AFNE01.JPG,AFNE01.JPG,,,,,,,,,,,,,1,6,16,4,,,,,,,,,,,AFSA16.jpg,AFSA04.jpg,AFNE14.jpg,AFNE15.jpg,AFNE15.jpg,FN,3,num_4,32,num_2,0.933428486203,,,2017_Jun_22_1204,60.0095467413,MAFE4ImagesEEG,001,100638,
AFNE01.JPG,AFNE01.JPG,AFNE01.JPG,AFNE01.JPG,AFNE01.JPG,AFNE01.JPG,,,,,,,,,,,,,1,7,17,7,,,,,,,,,,,AFNE05.jpg,AFNE18.jpg,AFSA06.jpg,AFSA05.jpg,AFSA06.jpg,FS,4,num_2,16,num_2,1.20007184576,,,2017_Jun_22_1204,60.0095467413,MAFE4ImagesEEG,001,100638,
AFNE01.JPG,AFNE01.JPG,AFNE01.JPG,AFNE01.JPG,AFNE01.JPG,AFNE01.JPG,,,,,,,,,,,,,1,8,18,9,,,,,,,,,,,AFSA16.jpg,AFNE01.jpg,AFSA03.jpg,AFNE16.jpg,AFNE01.jpg,FN,3,num_6,16,num_6,0.833438429144,,,2017_Jun_22_1204,60.0095467413,MAFE4ImagesEEG,001,100638,
AFNE01.JPG,AFNE01.JPG,AFNE01.JPG,AFNE01.JPG,AFNE01.JPG,AFNE01.JPG,,,,,,,,,,,,,1,9,19,6,,,,,,,,,,,AFSA04.jpg,AFSA05.jpg,AFNE14.jpg,AFNE12.jpg,AFSA05.jpg,FS,4,num_6,16,num_6,2.03348301201,,,2017_Jun_22_1204,60.0095467413,MAFE4ImagesEEG,001,100638,
AFNE01.JPG,AFNE01.JPG,AFNE01.JPG,AFNE01.JPG,AFNE01.JPG,AFNE01.JPG,,,,,,,,,,,,,2,0,20,7,,,,,,,,,,,AFNE05.jpg,AFNE06.jpg,AFSA16.jpg,AFSA12.jpg,AFSA16.jpg,FS,4,num_2,16,num_2,1.00010520272,,,2017_Jun_22_1204,60.0095467413,MAFE4ImagesEEG,001,100638,
AFNE01.JPG,AFNE01.JPG,AFNE01.JPG,AFNE01.JPG,AFNE01.JPG,AFNE01.JPG,,,,,,,,,,,,,2,1,21,2,,,,,,,,,,,AFSA18.jpg,AFNE18.jpg,AFSA19.jpg,AFNE03.jpg,AFNE03.jpg,FN,3,num_4,16,num_4,0.616784324794,,,2017_Jun_22_1204,60.0095467413,MAFE4ImagesEEG,001,100638,
AFNE01.JPG,AFNE01.JPG,AFNE01.JPG,AFNE01.JPG,AFNE01.JPG,AFNE01.JPG,,,,,,,,,,,,,2,2,22,8,,,,,,,,,,,AFNE13.jpg,AFSA16.jpg,AFNE20.jpg,AFSA03.jpg,AFSA03.jpg,FS,4,num_4,32,num_2,0.650136474876,,,2017_Jun_22_1204,60.0095467413,MAFE4ImagesEEG,001,100638,
AFNE01.JPG,AFNE01.JPG,AFNE01.JPG,AFNE01.JPG,AFNE01.JPG,AFNE01.JPG,,,,,,,,,,,,,2,3,23,0,,,,,,,,,,,AFNE09.jpg,AFNE12.jpg,AFSA10.jpg,AFSA17.jpg,AFSA10.jpg,FS,4,num_2,32,num_6,1.35008836387,,,2017_Jun_22_1204,60.0095467413,MAFE4ImagesEEG,001,100638,
AFNE01.JPG,AFNE01.JPG,AFNE01.JPG,AFNE01.JPG,AFNE01.JPG,AFNE01.JPG,,,,,,,,,,,,,2,4,24,1,,,,,,,,,,,AFNE20.jpg,AFSA05.jpg,AFSA03.jpg,AFNE07.jpg,AFSA05.jpg,FS,4,num_6,32,num_8,1.50015780409,,,2017_Jun_22_1204,60.0095467413,MAFE4ImagesEEG,001,100638,
AFNE01.JPG,AFNE01.JPG,AFNE01.JPG,AFNE01.JPG,AFNE01.JPG,AFNE01.JPG,,,,,,,,,,,,,2,5,25,3,,,,,,,,,,,AFSA12.jpg,AFNE15.jpg,AFNE02.jpg,AFSA08.jpg,AFNE15.jpg,FN,3,num_6,16,num_6,1.85003383807,,,2017_Jun_22_1204,60.0095467413,MAFE4ImagesEEG,001,100638,
AFNE01.JPG,AFNE01.JPG,AFNE01.JPG,AFNE01.JPG,AFNE01.JPG,AFNE01.JPG,,,,,,,,,,,,,2,6,26,9,,,,,,,,,,,AFNE17.jpg,AFSA20.jpg,AFSA14.jpg,AFNE03.jpg,AFSA14.jpg,FS,4,num_2,16,num_2,0.900125088605,,,2017_Jun_22_1204,60.0095467413,MAFE4ImagesEEG,001,100638,
AFNE01.JPG,AFNE01.JPG,AFNE01.JPG,AFNE01.JPG,AFNE01.JPG,AFNE01.JPG,,,,,,,,,,,,,2,7,27,6,,,,,,,,,,,AFSA03.jpg,AFNE10.jpg,AFNE05.jpg,AFSA18.jpg,AFSA03.jpg,FS,4,num_8,16,num_8,2.08348702125,,,2017_Jun_22_1204,60.0095467413,MAFE4ImagesEEG,001,100638,
AFNE01.JPG,AFNE01.JPG,AFNE01.JPG,AFNE01.JPG,AFNE01.JPG,AFNE01.JPG,,,,,,,,,,,,,2,8,28,4,,,,,,,,,,,AFNE15.jpg,AFSA17.jpg,AFNE02.jpg,AFSA13.jpg,AFNE02.jpg,FN,3,num_2,32,num_6,1.01659861633,,,2017_Jun_22_1204,60.0095467413,MAFE4ImagesEEG,001,100638,
AFNE01.JPG,AFNE01.JPG,AFNE01.JPG,AFNE01.JPG,AFNE01.JPG,AFNE01.JPG,,,,,,,,,,,,,2,9,29,5,,,,,,,,,,,AFNE03.jpg,AFSA10.jpg,AFSA14.jpg,AFNE04.jpg,AFNE04.jpg,FN,3,num_4,32,num_2,1.25008836387,,,2017_Jun_22_1204,60.0095467413,MAFE4ImagesEEG,001,100638,
AFNE01.JPG,AFNE01.JPG,AFNE01.JPG,AFNE01.JPG,AFNE01.JPG,AFNE01.JPG,,,,,,,,,,,,,3,0,30,2,,,,,,,,,,,AFSA08.jpg,AFSA07.jpg,AFNE18.jpg,AFNE11.jpg,AFSA08.jpg,FS,4,num_8,32,num_4,0.8836172417,,,2017_Jun_22_1204,60.0095467413,MAFE4ImagesEEG,001,100638,
AFNE01.JPG,AFNE01.JPG,AFNE01.JPG,AFNE01.JPG,AFNE01.JPG,AFNE01.JPG,,,,,,,,,,,,,3,1,31,7,,,,,,,,,,,AFSA06.jpg,AFNE20.jpg,AFNE05.jpg,AFSA11.jpg,AFNE20.jpg,FN,3,num_6,16,num_6,0.916818323235,,,2017_Jun_22_1204,60.0095467413,MAFE4ImagesEEG,001,100638,
AFNE01.JPG,AFNE01.JPG,AFNE01.JPG,AFNE01.JPG,AFNE01.JPG,AFNE01.JPG,,,,,,,,,,,,,3,2,32,8,,,,,,,,,,,AFSA02.jpg,AFNE11.jpg,AFNE06.jpg,AFSA03.jpg,AFSA03.jpg,FS,4,num_4,32,num_2,1.2835130012,,,2017_Jun_22_1204,60.0095467413,MAFE4ImagesEEG,001,100638,
AFNE01.JPG,AFNE01.JPG,AFNE01.JPG,AFNE01.JPG,AFNE01.JPG,AFNE01.JPG,,,,,,,,,,,,,3,3,33,9,,,,,,,,,,,AFSA19.jpg,AFSA17.jpg,AFNE19.jpg,AFNE20.jpg,AFSA17.jpg,FS,4,num_6,16,num_6,1.06664784992,,,2017_Jun_22_1204,60.0095467413,MAFE4ImagesEEG,001,100638,
AFNE01.JPG,AFNE01.JPG,AFNE01.JPG,AFNE01.JPG,AFNE01.JPG,AFNE01.JPG,,,,,,,,,,,,,3,4,34,3,,,,,,,,,,,AFNE17.jpg,AFSA05.jpg,AFSA13.jpg,AFNE06.jpg,AFNE06.jpg,FN,3,num_4,32,num_8,1.23341918474,,,2017_Jun_22_1204,60.0095467413,MAFE4ImagesEEG,001,100638,
AFNE01.JPG,AFNE01.JPG,AFNE01.JPG,AFNE01.JPG,AFNE01.JPG,AFNE01.JPG,,,,,,,,,,,,,3,5,35,4,,,,,,,,,,,AFSA14.jpg,AFSA20.jpg,AFNE07.jpg,AFNE08.jpg,AFSA20.jpg,FS,4,num_6,32,num_2,1.15012396601,,,2017_Jun_22_1204,60.0095467413,MAFE4ImagesEEG,001,100638,
AFNE01.JPG,AFNE01.JPG,AFNE01.JPG,AFNE01.JPG,AFNE01.JPG,AFNE01.JPG,,,,,,,,,,,,,3,6,36,5,,,,,,,,,,,AFNE10.jpg,AFNE03.jpg,AFSA11.jpg,AFSA07.jpg,AFNE03.jpg,FN,3,num_6,32,num_4,1.38348541756,,,2017_Jun_22_1204,60.0095467413,MAFE4ImagesEEG,001,100638,
AFNE01.JPG,AFNE01.JPG,AFNE01.JPG,AFNE01.JPG,AFNE01.JPG,AFNE01.JPG,,,,,,,,,,,,,3,7,37,0,,,,,,,,,,,AFSA15.jpg,AFSA20.jpg,AFNE09.jpg,AFNE07.jpg,AFSA15.jpg,FS,4,num_8,32,num_6,1.85013583339,,,2017_Jun_22_1204,60.0095467413,MAFE4ImagesEEG,001,100638,
AFNE01.JPG,AFNE01.JPG,AFNE01.JPG,AFNE01.JPG,AFNE01.JPG,AFNE01.JPG,,,,,,,,,,,,,3,8,38,1,,,,,,,,,,,AFSA19.jpg,AFNE14.jpg,AFSA07.jpg,AFNE02.jpg,AFSA07.jpg,FS,4,num_2,32,num_8,1.80002822512,,,2017_Jun_22_1204,60.0095467413,MAFE4ImagesEEG,001,100638,
AFNE01.JPG,AFNE01.JPG,AFNE01.JPG,AFNE01.JPG,AFNE01.JPG,AFNE01.JPG,,,,,,,,,,,,,3,9,39,6,,,,,,,,,,,AFNE11.jpg,AFNE01.jpg,AFSA10.jpg,AFSA14.jpg,AFNE11.jpg,FN,3,num_8,32,num_2,1.16680918215,,,2017_Jun_22_1204,60.0095467413,MAFE4ImagesEEG,001,100638,
AFNE01.JPG,AFNE01.JPG,AFNE01.JPG,AFNE01.JPG,AFNE01.JPG,AFNE01.JPG,,,,,,,,,,,,,4,0,40,7,,,,,,,,,,,AFNE01.jpg,AFSA16.jpg,AFSA05.jpg,AFNE13.jpg,AFNE13.jpg,FN,3,num_4,16,num_4,1.05012075861,,,2017_Jun_22_1204,60.0095467413,MAFE4ImagesEEG,001,100638,
AFNE01.JPG,AFNE01.JPG,AFNE01.JPG,AFNE01.JPG,AFNE01.JPG,AFNE01.JPG,,,,,,,,,,,,,4,1,41,9,,,,,,,,,,,AFSA09.jpg,AFSA20.jpg,AFNE19.jpg,AFNE18.jpg,AFNE19.jpg,FN,3,num_2,16,num_2,0.633466012785,,,2017_Jun_22_1204,60.0095467413,MAFE4ImagesEEG,001,100638,
AFNE01.JPG,AFNE01.JPG,AFNE01.JPG,AFNE01.JPG,AFNE01.JPG,AFNE01.JPG,,,,,,,,,,,,,4,2,42,0,,,,,,,,,,,AFSA19.jpg,AFNE16.jpg,AFNE05.jpg,AFSA18.jpg,AFNE05.jpg,FN,3,num_2,16,num_2,0.783531604117,,,2017_Jun_22_1204,60.0095467413,MAFE4ImagesEEG,001,100638,
AFNE01.JPG,AFNE01.JPG,AFNE01.JPG,AFNE01.JPG,AFNE01.JPG,AFNE01.JPG,,,,,,,,,,,,,4,3,43,1,,,,,,,,,,,AFSA20.jpg,AFNE11.jpg,AFSA10.jpg,AFNE09.jpg,AFSA10.jpg,FS,4,num_2,16,num_2,0.499991981499,,,2017_Jun_22_1204,60.0095467413,MAFE4ImagesEEG,001,100638,
AFNE01.JPG,AFNE01.JPG,AFNE01.JPG,AFNE01.JPG,AFNE01.JPG,AFNE01.JPG,,,,,,,,,,,,,4,4,44,5,,,,,,,,,,,AFNE19.jpg,AFNE13.jpg,AFSA12.jpg,AFSA16.jpg,AFSA16.jpg,FS,4,num_4,16,num_4,1.68336546079,,,2017_Jun_22_1204,60.0095467413,MAFE4ImagesEEG,001,100638,
AFNE01.JPG,AFNE01.JPG,AFNE01.JPG,AFNE01.JPG,AFNE01.JPG,AFNE01.JPG,,,,,,,,,,,,,4,5,45,4,,,,,,,,,,,AFSA11.jpg,AFNE09.jpg,AFNE07.jpg,AFSA20.jpg,AFSA11.jpg,FS,4,num_8,32,num_4,1.30009012794,,,2017_Jun_22_1204,60.0095467413,MAFE4ImagesEEG,001,100638,
AFNE01.JPG,AFNE01.JPG,AFNE01.JPG,AFNE01.JPG,AFNE01.JPG,AFNE01.JPG,,,,,,,,,,,,,4,6,46,8,,,,,,,,,,,AFSA04.jpg,AFNE03.jpg,AFSA02.jpg,AFNE11.jpg,AFSA04.jpg,FS,4,num_8,32,num_6,1.55010119347,,,2017_Jun_22_1204,60.0095467413,MAFE4ImagesEEG,001,100638,
AFNE01.JPG,AFNE01.JPG,AFNE01.JPG,AFNE01.JPG,AFNE01.JPG,AFNE01.JPG,,,,,,,,,,,,,4,7,47,2,,,,,,,,,,,AFNE18.jpg,AFNE15.jpg,AFSA04.jpg,AFSA14.jpg,AFSA14.jpg,FS,4,num_4,32,num_8,1.11672883677,,,2017_Jun_22_1204,60.0095467413,MAFE4ImagesEEG,001,100638,
AFNE01.JPG,AFNE01.JPG,AFNE01.JPG,AFNE01.JPG,AFNE01.JPG,AFNE01.JPG,,,,,,,,,,,,,4,8,48,3,,,,,,,,,,,AFNE02.jpg,AFNE07.jpg,AFSA20.jpg,AFSA07.jpg,AFNE07.jpg,FN,3,num_6,32,num_4,1.08348381386,,,2017_Jun_22_1204,60.0095467413,MAFE4ImagesEEG,001,100638,
AFNE01.JPG,AFNE01.JPG,AFNE01.JPG,AFNE01.JPG,AFNE01.JPG,AFNE01.JPG,,,,,,,,,,,,,4,9,49,6,,,,,,,,,,,AFSA20.jpg,AFNE04.jpg,AFSA16.jpg,AFNE10.jpg,AFSA20.jpg,FS,4,num_8,32,num_2,0.566813993246,,,2017_Jun_22_1204,60.0095467413,MAFE4ImagesEEG,001,100638,
AFNE01.JPG,AFNE01.JPG,AFNE01.JPG,AFNE01.JPG,AFNE01.JPG,AFNE01.JPG,,,,,,,,,,,,,5,0,50,6,,,,,,,,,,,AFNE06.jpg,AFNE14.jpg,AFSA09.jpg,AFSA15.jpg,AFSA09.jpg,FS,4,num_2,16,num_2,1.35010824975,,,2017_Jun_22_1204,60.0095467413,MAFE4ImagesEEG,001,100638,
AFNE01.JPG,AFNE01.JPG,AFNE01.JPG,AFNE01.JPG,AFNE01.JPG,AFNE01.JPG,,,,,,,,,,,,,5,1,51,1,,,,,,,,,,,AFSA04.jpg,AFSA05.jpg,AFNE20.jpg,AFNE05.jpg,AFSA05.jpg,FS,4,num_6,16,num_6,0.566826502106,,,2017_Jun_22_1204,60.0095467413,MAFE4ImagesEEG,001,100638,
AFNE01.JPG,AFNE01.JPG,AFNE01.JPG,AFNE01.JPG,AFNE01.JPG,AFNE01.JPG,,,,,,,,,,,,,5,2,52,2,,,,,,,,,,,AFNE16.jpg,AFNE19.jpg,AFSA11.jpg,AFSA08.jpg,AFNE16.jpg,FN,3,num_8,32,num_6,0.983428005094,,,2017_Jun_22_1204,60.0095467413,MAFE4ImagesEEG,001,100638,
AFNE01.JPG,AFNE01.JPG,AFNE01.JPG,AFNE01.JPG,AFNE01.JPG,AFNE01.JPG,,,,,,,,,,,,,5,3,53,4,,,,,,,,,,,AFNE12.jpg,AFNE16.jpg,AFSA04.jpg,AFSA15.jpg,AFSA15.jpg,FS,4,num_4,32,num_2,0.866871405708,,,2017_Jun_22_1204,60.0095467413,MAFE4ImagesEEG,001,100638,
AFNE01.JPG,AFNE01.JPG,AFNE01.JPG,AFNE01.JPG,AFNE01.JPG,AFNE01.JPG,,,,,,,,,,,,,5,4,54,0,,,,,,,,,,,AFSA18.jpg,AFNE07.jpg,AFSA11.jpg,AFNE11.jpg,AFSA18.jpg,FS,4,num_8,32,num_4,1.0333819789,,,2017_Jun_22_1204,60.0095467413,MAFE4ImagesEEG,001,100638,
AFNE01.JPG,AFNE01.JPG,AFNE01.JPG,AFNE01.JPG,AFNE01.JPG,AFNE01.JPG,,,,,,,,,,,,,5,5,55,7,,,,,,,,,,,AFSA17.jpg,AFNE18.jpg,AFNE14.jpg,AFSA15.jpg,AFNE14.jpg,FN,3,num_2,32,num_6,0.817018785743,,,2017_Jun_22_1204,60.0095467413,MAFE4ImagesEEG,001,100638,
AFNE01.JPG,AFNE01.JPG,AFNE01.JPG,AFNE01.JPG,AFNE01.JPG,AFNE01.JPG,,,,,,,,,,,,,5,6,56,5,,,,,,,,,,,AFSA04.jpg,AFSA07.jpg,AFNE13.jpg,AFNE02.jpg,AFSA07.jpg,FS,4,num_6,16,num_6,0.683452060593,,,2017_Jun_22_1204,60.0095467413,MAFE4ImagesEEG,001,100638,
AFNE01.JPG,AFNE01.JPG,AFNE01.JPG,AFNE01.JPG,AFNE01.JPG,AFNE01.JPG,,,,,,,,,,,,,5,7,57,9,,,,,,,,,,,AFNE07.jpg,AFNE19.jpg,AFSA09.jpg,AFSA15.jpg,AFNE07.jpg,FN,3,num_8,32,num_2,0.950096382374,,,2017_Jun_22_1204,60.0095467413,MAFE4ImagesEEG,001,100638,
AFNE01.JPG,AFNE01.JPG,AFNE01.JPG,AFNE01.JPG,AFNE01.JPG,AFNE01.JPG,,,,,,,,,,,,,5,8,58,8,,,,,,,,,,,AFSA17.jpg,AFSA14.jpg,AFNE07.jpg,AFNE04.jpg,AFSA14.jpg,FS,4,num_6,16,num_6,0.533483653485,,,2017_Jun_22_1204,60.0095467413,MAFE4ImagesEEG,001,100638,
AFNE01.JPG,AFNE01.JPG,AFNE01.JPG,AFNE01.JPG,AFNE01.JPG,AFNE01.JPG,,,,,,,,,,,,,5,9,59,3,,,,,,,,,,,AFSA04.jpg,AFSA12.jpg,AFNE12.jpg,AFNE06.jpg,AFNE06.jpg,FN,3,num_4,32,num_2,1.01667976355,,,2017_Jun_22_1204,60.0095467413,MAFE4ImagesEEG,001,100638,
,,,,,,,,,,,,,,,,,,,,,,,,,,,,,,,,,,,,,,,,,,,space,18.3651034868,2017_Jun_22_1204,60.0095467413,MAFE4ImagesEEG,001,100638,
AFNE01.JPG,AFNE01.JPG,AFNE01.JPG,AFNE01.JPG,AFNE01.JPG,AFNE01.JPG,,,,,,,,,,,,,,,,,0,0,0,7,,,,,,,AMNE13.jpg,AMSA02.jpg,AMNE03.jpg,AMSA10.jpg,AMNE13.jpg,MN,1,num_8,16,num_8,1.50007761908,,,2017_Jun_22_1204,60.0095467413,MAFE4ImagesEEG,001,100638,
AFNE01.JPG,AFNE01.JPG,AFNE01.JPG,AFNE01.JPG,AFNE01.JPG,AFNE01.JPG,,,,,,,,,,,,,,,,,0,1,1,9,,,,,,,AMNE02.jpg,AMSA15.jpg,AMSA13.jpg,AMNE08.jpg,AMSA15.jpg,MS,2,num_6,32,num_4,0.933436504703,,,2017_Jun_22_1204,60.0095467413,MAFE4ImagesEEG,001,100638,
AFNE01.JPG,AFNE01.JPG,AFNE01.JPG,AFNE01.JPG,AFNE01.JPG,AFNE01.JPG,,,,,,,,,,,,,,,,,0,2,2,2,,,,,,,AMSA04.jpg,AMSA02.jpg,AMNE13.jpg,AMNE18.jpg,AMNE13.jpg,MN,1,num_2,32,num_4,1.28367465416,,,2017_Jun_22_1204,60.0095467413,MAFE4ImagesEEG,001,100638,
AFNE01.JPG,AFNE01.JPG,AFNE01.JPG,AFNE01.JPG,AFNE01.JPG,AFNE01.JPG,,,,,,,,,,,,,,,,,0,3,3,3,,,,,,,AMNE06.jpg,AMNE05.jpg,AMSA14.jpg,AMSA12.jpg,AMNE06.jpg,MN,1,num_8,16,num_8,1.01673942119,,,2017_Jun_22_1204,60.0095467413,MAFE4ImagesEEG,001,100638,
AFNE01.JPG,AFNE01.JPG,AFNE01.JPG,AFNE01.JPG,AFNE01.JPG,AFNE01.JPG,,,,,,,,,,,,,,,,,0,4,4,8,,,,,,,AMSA11.jpg,AMNE01.jpg,AMSA03.jpg,AMNE12.jpg,AMNE01.jpg,MN,1,num_6,16,num_6,1.05009574089,,,2017_Jun_22_1204,60.0095467413,MAFE4ImagesEEG,001,100638,
AFNE01.JPG,AFNE01.JPG,AFNE01.JPG,AFNE01.JPG,AFNE01.JPG,AFNE01.JPG,,,,,,,,,,,,,,,,,0,5,5,4,,,,,,,AMNE16.jpg,AMSA15.jpg,AMNE05.jpg,AMSA07.jpg,AMSA07.jpg,MS,2,num_4,32,num_2,0.950082269813,,,2017_Jun_22_1204,60.0095467413,MAFE4ImagesEEG,001,100638,
AFNE01.JPG,AFNE01.JPG,AFNE01.JPG,AFNE01.JPG,AFNE01.JPG,AFNE01.JPG,,,,,,,,,,,,,,,,,0,6,6,6,,,,,,,AMSA14.jpg,AMSA15.jpg,AMNE14.jpg,AMNE04.jpg,AMNE04.jpg,MN,1,num_4,32,num_6,1.1333033976,,,2017_Jun_22_1204,60.0095467413,MAFE4ImagesEEG,001,100638,
AFNE01.JPG,AFNE01.JPG,AFNE01.JPG,AFNE01.JPG,AFNE01.JPG,AFNE01.JPG,,,,,,,,,,,,,,,,,0,7,7,0,,,,,,,AMSA13.jpg,AMNE04.jpg,AMNE02.jpg,AMSA08.jpg,AMSA08.jpg,MS,2,num_4,16,num_4,1.00008403388,,,2017_Jun_22_1204,60.0095467413,MAFE4ImagesEEG,001,100638,
AFNE01.JPG,AFNE01.JPG,AFNE01.JPG,AFNE01.JPG,AFNE01.JPG,AFNE01.JPG,,,,,,,,,,,,,,,,,0,8,8,1,,,,,,,AMSA01.jpg,AMSA20.jpg,AMNE15.jpg,AMNE07.jpg,AMNE07.jpg,MN,1,num_4,16,num_4,1.08343602359,,,2017_Jun_22_1204,60.0095467413,MAFE4ImagesEEG,001,100638,
AFNE01.JPG,AFNE01.JPG,AFNE01.JPG,AFNE01.JPG,AFNE01.JPG,AFNE01.JPG,,,,,,,,,,,,,,,,,0,9,9,5,,,,,,,AMNE02.jpg,AMSA03.jpg,AMNE20.jpg,AMSA02.jpg,AMSA03.jpg,MS,2,num_6,16,num_6,0.566774862964,,,2017_Jun_22_1204,60.0095467413,MAFE4ImagesEEG,001,100638,
AFNE01.JPG,AFNE01.JPG,AFNE01.JPG,AFNE01.JPG,AFNE01.JPG,AFNE01.JPG,,,,,,,,,,,,,,,,,1,0,10,8,,,,,,,AMNE18.jpg,AMSA14.jpg,AMSA01.jpg,AMNE19.jpg,AMNE19.jpg,MN,1,num_4,16,num_4,0.666319732888,,,2017_Jun_22_1204,60.0095467413,MAFE4ImagesEEG,001,100638,
AFNE01.JPG,AFNE01.JPG,AFNE01.JPG,AFNE01.JPG,AFNE01.JPG,AFNE01.JPG,,,,,,,,,,,,,,,,,1,1,11,5,,,,,,,AMNE20.jpg,AMSA05.jpg,AMSA19.jpg,AMNE19.jpg,AMNE20.jpg,MN,1,num_8,16,num_8,0.600099108664,,,2017_Jun_22_1204,60.0095467413,MAFE4ImagesEEG,001,100638,
AFNE01.JPG,AFNE01.JPG,AFNE01.JPG,AFNE01.JPG,AFNE01.JPG,AFNE01.JPG,,,,,,,,,,,,,,,,,1,2,12,0,,,,,,,AMSA11.jpg,AMNE19.jpg,AMSA02.jpg,AMNE18.jpg,AMSA02.jpg,MS,2,num_2,32,num_6,1.05013262599,,,2017_Jun_22_1204,60.0095467413,MAFE4ImagesEEG,001,100638,
AFNE01.JPG,AFNE01.JPG,AFNE01.JPG,AFNE01.JPG,AFNE01.JPG,AFNE01.JPG,,,,,,,,,,,,,,,,,1,3,13,3,,,,,,,AMNE02.jpg,AMSA15.jpg,AMSA12.jpg,AMNE15.jpg,AMSA12.jpg,MS,2,num_2,32,num_6,0.583449815414,,,2017_Jun_22_1204,60.0095467413,MAFE4ImagesEEG,001,100638,
AFNE01.JPG,AFNE01.JPG,AFNE01.JPG,AFNE01.JPG,AFNE01.JPG,AFNE01.JPG,,,,,,,,,,,,,,,,,1,4,14,6,,,,,,,AMSA03.jpg,AMSA20.jpg,AMNE09.jpg,AMNE02.jpg,AMSA20.jpg,MS,2,num_6,32,num_4,0.983484134595,,,2017_Jun_22_1204,60.0095467413,MAFE4ImagesEEG,001,100638,
AFNE01.JPG,AFNE01.JPG,AFNE01.JPG,AFNE01.JPG,AFNE01.JPG,AFNE01.JPG,,,,,,,,,,,,,,,,,1,5,15,9,,,,,,,AMNE13.jpg,AMSA04.jpg,AMNE19.jpg,AMSA06.jpg,AMNE13.jpg,MN,1,num_8,32,num_6,0.933508671206,,,2017_Jun_22_1204,60.0095467413,MAFE4ImagesEEG,001,100638,
AFNE01.JPG,AFNE01.JPG,AFNE01.JPG,AFNE01.JPG,AFNE01.JPG,AFNE01.JPG,,,,,,,,,,,,,,,,,1,6,16,7,,,,,,,AMNE02.jpg,AMSA09.jpg,AMNE15.jpg,AMSA02.jpg,AMNE15.jpg,MN,1,num_2,16,num_2,1.6999294372,,,2017_Jun_22_1204,60.0095467413,MAFE4ImagesEEG,001,100638,
AFNE01.JPG,AFNE01.JPG,AFNE01.JPG,AFNE01.JPG,AFNE01.JPG,AFNE01.JPG,,,,,,,,,,,,,,,,,1,7,17,2,,,,,,,AMSA10.jpg,AMNE13.jpg,AMSA07.jpg,AMNE16.jpg,AMNE13.jpg,MN,1,num_6,16,num_6,0.533467295745,,,2017_Jun_22_1204,60.0095467413,MAFE4ImagesEEG,001,100638,
AFNE01.JPG,AFNE01.JPG,AFNE01.JPG,AFNE01.JPG,AFNE01.JPG,AFNE01.JPG,,,,,,,,,,,,,,,,,1,8,18,4,,,,,,,AMSA15.jpg,AMNE10.jpg,AMNE07.jpg,AMSA04.jpg,AMNE07.jpg,MN,1,num_2,16,num_2,1.31668104651,,,2017_Jun_22_1204,60.0095467413,MAFE4ImagesEEG,001,100638,
AFNE01.JPG,AFNE01.JPG,AFNE01.JPG,AFNE01.JPG,AFNE01.JPG,AFNE01.JPG,,,,,,,,,,,,,,,,,1,9,19,1,,,,,,,AMNE19.jpg,AMSA06.jpg,AMSA18.jpg,AMNE14.jpg,AMSA18.jpg,MS,2,num_2,16,num_2,0.983431533234,,,2017_Jun_22_1204,60.0095467413,MAFE4ImagesEEG,001,100638,
AFNE01.JPG,AFNE01.JPG,AFNE01.JPG,AFNE01.JPG,AFNE01.JPG,AFNE01.JPG,,,,,,,,,,,,,,,,,2,0,20,9,,,,,,,AMNE12.jpg,AMSA19.jpg,AMNE17.jpg,AMSA06.jpg,AMNE17.jpg,MN,1,num_2,16,num_2,0.950101193474,,,2017_Jun_22_1204,60.0095467413,MAFE4ImagesEEG,001,100638,
AFNE01.JPG,AFNE01.JPG,AFNE01.JPG,AFNE01.JPG,AFNE01.JPG,AFNE01.JPG,,,,,,,,,,,,,,,,,2,1,21,8,,,,,,,AMNE13.jpg,AMSA16.jpg,AMSA01.jpg,AMNE07.jpg,AMNE07.jpg,MN,1,num_4,32,num_8,0.900141446345,,,2017_Jun_22_1204,60.0095467413,MAFE4ImagesEEG,001,100638,
AFNE01.JPG,AFNE01.JPG,AFNE01.JPG,AFNE01.JPG,AFNE01.JPG,AFNE01.JPG,,,,,,,,,,,,,,,,,2,2,22,1,,,,,,,AMSA10.jpg,AMSA12.jpg,AMNE05.jpg,AMNE06.jpg,AMSA12.jpg,MS,2,num_6,16,num_6,0.833451900224,,,2017_Jun_22_1204,60.0095467413,MAFE4ImagesEEG,001,100638,
AFNE01.JPG,AFNE01.JPG,AFNE01.JPG,AFNE01.JPG,AFNE01.JPG,AFNE01.JPG,,,,,,,,,,,,,,,,,2,3,23,2,,,,,,,AMSA09.jpg,AMNE13.jpg,AMNE11.jpg,AMSA16.jpg,AMNE13.jpg,MN,1,num_6,32,num_2,1.21677598555,,,2017_Jun_22_1204,60.0095467413,MAFE4ImagesEEG,001,100638,
AFNE01.JPG,AFNE01.JPG,AFNE01.JPG,AFNE01.JPG,AFNE01.JPG,AFNE01.JPG,,,,,,,,,,,,,,,,,2,4,24,5,,,,,,,AMNE16.jpg,AMSA16.jpg,AMSA08.jpg,AMNE01.jpg,AMSA16.jpg,MS,2,num_6,32,num_4,1.2666164174,,,2017_Jun_22_1204,60.0095467413,MAFE4ImagesEEG,001,100638,
AFNE01.JPG,AFNE01.JPG,AFNE01.JPG,AFNE01.JPG,AFNE01.JPG,AFNE01.JPG,,,,,,,,,,,,,,,,,2,5,25,7,,,,,,,AMSA03.jpg,AMNE17.jpg,AMSA01.jpg,AMNE12.jpg,AMSA01.jpg,MS,2,num_2,16,num_2,1.11672530863,,,2017_Jun_22_1204,60.0095467413,MAFE4ImagesEEG,001,100638,
AFNE01.JPG,AFNE01.JPG,AFNE01.JPG,AFNE01.JPG,AFNE01.JPG,AFNE01.JPG,,,,,,,,,,,,,,,,,2,6,26,4,,,,,,,AMSA06.jpg,AMNE15.jpg,AMSA02.jpg,AMNE09.jpg,AMNE15.jpg,MN,1,num_6,16,num_6,1.13341950548,,,2017_Jun_22_1204,60.0095467413,MAFE4ImagesEEG,001,100638,
AFNE01.JPG,AFNE01.JPG,AFNE01.JPG,AFNE01.JPG,AFNE01.JPG,AFNE01.JPG,,,,,,,,,,,,,,,,,2,7,27,3,,,,,,,AMSA11.jpg,AMNE07.jpg,AMSA05.jpg,AMNE02.jpg,AMSA05.jpg,MS,2,num_2,32,num_4,0.816755778933,,,2017_Jun_22_1204,60.0095467413,MAFE4ImagesEEG,001,100638,
AFNE01.JPG,AFNE01.JPG,AFNE01.JPG,AFNE01.JPG,AFNE01.JPG,AFNE01.JPG,,,,,,,,,,,,,,,,,2,8,28,0,,,,,,,AMSA16.jpg,AMNE04.jpg,AMSA04.jpg,AMNE08.jpg,AMSA04.jpg,MS,2,num_2,32,num_6,1.2001363145,,,2017_Jun_22_1204,60.0095467413,MAFE4ImagesEEG,001,100638,
AFNE01.JPG,AFNE01.JPG,AFNE01.JPG,AFNE01.JPG,AFNE01.JPG,AFNE01.JPG,,,,,,,,,,,,,,,,,2,9,29,6,,,,,,,AMNE11.jpg,AMSA10.jpg,AMNE04.jpg,AMSA15.jpg,AMNE11.jpg,MN,1,num_8,16,num_8,2.36661577592,,,2017_Jun_22_1204,60.0095467413,MAFE4ImagesEEG,001,100638,
AFNE01.JPG,AFNE01.JPG,AFNE01.JPG,AFNE01.JPG,AFNE01.JPG,AFNE01.JPG,,,,,,,,,,,,,,,,,3,0,30,7,,,,,,,AMSA07.jpg,AMSA03.jpg,AMNE06.jpg,AMNE07.jpg,AMSA03.jpg,MS,2,num_6,32,num_4,1.03342912768,,,2017_Jun_22_1204,60.0095467413,MAFE4ImagesEEG,001,100638,
AFNE01.JPG,AFNE01.JPG,AFNE01.JPG,AFNE01.JPG,AFNE01.JPG,AFNE01.JPG,,,,,,,,,,,,,,,,,3,1,31,1,,,,,,,AMNE01.jpg,AMSA17.jpg,AMNE12.jpg,AMSA06.jpg,AMSA17.jpg,MS,2,num_6,32,num_2,1.03340892106,,,2017_Jun_22_1204,60.0095467413,MAFE4ImagesEEG,001,100638,
AFNE01.JPG,AFNE01.JPG,AFNE01.JPG,AFNE01.JPG,AFNE01.JPG,AFNE01.JPG,,,,,,,,,,,,,,,,,3,2,32,3,,,,,,,AMSA05.jpg,AMNE01.jpg,AMNE18.jpg,AMSA08.jpg,AMNE18.jpg,MN,1,num_2,32,num_8,1.4000513184,,,2017_Jun_22_1204,60.0095467413,MAFE4ImagesEEG,001,100638,
AFNE01.JPG,AFNE01.JPG,AFNE01.JPG,AFNE01.JPG,AFNE01.JPG,AFNE01.JPG,,,,,,,,,,,,,,,,,3,3,33,4,,,,,,,AMNE14.jpg,AMNE17.jpg,AMSA13.jpg,AMSA05.jpg,AMNE17.jpg,MN,1,num_6,32,num_2,1.06678384368,,,2017_Jun_22_1204,60.0095467413,MAFE4ImagesEEG,001,100638,
AFNE01.JPG,AFNE01.JPG,AFNE01.JPG,AFNE01.JPG,AFNE01.JPG,AFNE01.JPG,,,,,,,,,,,,,,,,,3,4,34,9,,,,,,,AMSA06.jpg,AMNE02.jpg,AMNE12.jpg,AMSA20.jpg,AMSA20.jpg,MS,2,num_4,16,num_4,1.05013487118,,,2017_Jun_22_1204,60.0095467413,MAFE4ImagesEEG,001,100638,
AFNE01.JPG,AFNE01.JPG,AFNE01.JPG,AFNE01.JPG,AFNE01.JPG,AFNE01.JPG,,,,,,,,,,,,,,,,,3,5,35,6,,,,,,,AMSA13.jpg,AMSA16.jpg,AMNE05.jpg,AMNE15.jpg,AMNE05.jpg,MN,1,num_2,16,num_2,1.15005981801,,,2017_Jun_22_1204,60.0095467413,MAFE4ImagesEEG,001,100638,
AFNE01.JPG,AFNE01.JPG,AFNE01.JPG,AFNE01.JPG,AFNE01.JPG,AFNE01.JPG,,,,,,,,,,,,,,,,,3,6,36,8,,,,,,,AMNE01.jpg,AMSA16.jpg,AMSA05.jpg,AMNE06.jpg,AMNE01.jpg,MN,1,num_8,16,num_8,1.01679651291,,,2017_Jun_22_1204,60.0095467413,MAFE4ImagesEEG,001,100638,
AFNE01.JPG,AFNE01.JPG,AFNE01.JPG,AFNE01.JPG,AFNE01.JPG,AFNE01.JPG,,,,,,,,,,,,,,,,,3,7,37,5,,,,,,,AMSA19.jpg,AMNE12.jpg,AMNE19.jpg,AMSA04.jpg,AMNE19.jpg,MN,1,num_2,32,num_6,0.816764438913,,,2017_Jun_22_1204,60.0095467413,MAFE4ImagesEEG,001,100638,
AFNE01.JPG,AFNE01.JPG,AFNE01.JPG,AFNE01.JPG,AFNE01.JPG,AFNE01.JPG,,,,,,,,,,,,,,,,,3,8,38,0,,,,,,,AMSA09.jpg,AMSA10.jpg,AMNE17.jpg,AMNE15.jpg,AMNE17.jpg,MN,1,num_2,32,num_6,0.900180576626,,,2017_Jun_22_1204,60.0095467413,MAFE4ImagesEEG,001,100638,
AFNE01.JPG,AFNE01.JPG,AFNE01.JPG,AFNE01.JPG,AFNE01.JPG,AFNE01.JPG,,,,,,,,,,,,,,,,,3,9,39,2,,,,,,,AMSA09.jpg,AMNE01.jpg,AMNE12.jpg,AMSA14.jpg,AMSA14.jpg,MS,2,num_4,16,num_4,0.916817040275,,,2017_Jun_22_1204,60.0095467413,MAFE4ImagesEEG,001,100638,
AFNE01.JPG,AFNE01.JPG,AFNE01.JPG,AFNE01.JPG,AFNE01.JPG,AFNE01.JPG,,,,,,,,,,,,,,,,,4,0,40,0,,,,,,,AMNE12.jpg,AMNE01.jpg,AMSA15.jpg,AMSA10.jpg,AMNE12.jpg,MN,1,num_8,32,num_2,1.84999502853,,,2017_Jun_22_1204,60.0095467413,MAFE4ImagesEEG,001,100638,
AFNE01.JPG,AFNE01.JPG,AFNE01.JPG,AFNE01.JPG,AFNE01.JPG,AFNE01.JPG,,,,,,,,,,,,,,,,,4,1,41,1,,,,,,,AMSA07.jpg,AMSA18.jpg,AMNE17.jpg,AMNE02.jpg,AMSA18.jpg,MS,2,num_6,16,num_6,0.716753213013,,,2017_Jun_22_1204,60.0095467413,MAFE4ImagesEEG,001,100638,
AFNE01.JPG,AFNE01.JPG,AFNE01.JPG,AFNE01.JPG,AFNE01.JPG,AFNE01.JPG,,,,,,,,,,,,,,,,,4,2,42,7,,,,,,,AMNE18.jpg,AMSA03.jpg,AMSA16.jpg,AMNE06.jpg,AMSA16.jpg,MS,2,num_2,32,num_6,0.566776145924,,,2017_Jun_22_1204,60.0095467413,MAFE4ImagesEEG,001,100638,
AFNE01.JPG,AFNE01.JPG,AFNE01.JPG,AFNE01.JPG,AFNE01.JPG,AFNE01.JPG,,,,,,,,,,,,,,,,,4,3,43,4,,,,,,,AMNE07.jpg,AMNE02.jpg,AMSA20.jpg,AMSA12.jpg,AMSA12.jpg,MS,2,num_4,32,num_8,1.26677165556,,,2017_Jun_22_1204,60.0095467413,MAFE4ImagesEEG,001,100638,
AFNE01.JPG,AFNE01.JPG,AFNE01.JPG,AFNE01.JPG,AFNE01.JPG,AFNE01.JPG,,,,,,,,,,,,,,,,,4,4,44,8,,,,,,,AMNE16.jpg,AMSA08.jpg,AMNE09.jpg,AMSA17.jpg,AMNE16.jpg,MN,1,num_8,32,num_6,1.1168516802,,,2017_Jun_22_1204,60.0095467413,MAFE4ImagesEEG,001,100638,
AFNE01.JPG,AFNE01.JPG,AFNE01.JPG,AFNE01.JPG,AFNE01.JPG,AFNE01.JPG,,,,,,,,,,,,,,,,,4,5,45,3,,,,,,,AMNE06.jpg,AMSA12.jpg,AMNE04.jpg,AMSA07.jpg,AMNE06.jpg,MN,1,num_8,16,num_8,0.700119315284,,,2017_Jun_22_1204,60.0095467413,MAFE4ImagesEEG,001,100638,
AFNE01.JPG,AFNE01.JPG,AFNE01.JPG,AFNE01.JPG,AFNE01.JPG,AFNE01.JPG,,,,,,,,,,,,,,,,,4,6,46,9,,,,,,,AMNE03.jpg,AMSA10.jpg,AMSA17.jpg,AMNE11.jpg,AMSA17.jpg,MS,2,num_2,16,num_2,1.01661946443,,,2017_Jun_22_1204,60.0095467413,MAFE4ImagesEEG,001,100638,
AFNE01.JPG,AFNE01.JPG,AFNE01.JPG,AFNE01.JPG,AFNE01.JPG,AFNE01.JPG,,,,,,,,,,,,,,,,,4,7,47,2,,,,,,,AMNE08.jpg,AMSA03.jpg,AMNE14.jpg,AMSA20.jpg,AMNE08.jpg,MN,1,num_8,32,num_2,2.53331334054,,,2017_Jun_22_1204,60.0095467413,MAFE4ImagesEEG,001,100638,
AFNE01.JPG,AFNE01.JPG,AFNE01.JPG,AFNE01.JPG,AFNE01.JPG,AFNE01.JPG,,,,,,,,,,,,,,,,,4,8,48,6,,,,,,,AMNE17.jpg,AMSA14.jpg,AMSA15.jpg,AMNE08.jpg,AMNE08.jpg,MN,1,num_4,16,num_4,0.566784164424,,,2017_Jun_22_1204,60.0095467413,MAFE4ImagesEEG,001,100638,
AFNE01.JPG,AFNE01.JPG,AFNE01.JPG,AFNE01.JPG,AFNE01.JPG,AFNE01.JPG,,,,,,,,,,,,,,,,,4,9,49,5,,,,,,,AMNE05.jpg,AMSA18.jpg,AMNE11.jpg,AMSA09.jpg,AMSA09.jpg,MS,2,num_4,16,num_4,1.38340106293,,,2017_Jun_22_1204,60.0095467413,MAFE4ImagesEEG,001,100638,
AFNE01.JPG,AFNE01.JPG,AFNE01.JPG,AFNE01.JPG,AFNE01.JPG,AFNE01.JPG,,,,,,,,,,,,,,,,,5,0,50,2,,,,,,,AMNE14.jpg,AMNE11.jpg,AMSA09.jpg,AMSA12.jpg,AMSA09.jpg,MS,2,num_2,16,num_2,0.750225961338,,,2017_Jun_22_1204,60.0095467413,MAFE4ImagesEEG,001,100638,
AFNE01.JPG,AFNE01.JPG,AFNE01.JPG,AFNE01.JPG,AFNE01.JPG,AFNE01.JPG,,,,,,,,,,,,,,,,,5,1,51,3,,,,,,,AMSA03.jpg,AMNE14.jpg,AMSA14.jpg,AMNE07.jpg,AMNE14.jpg,MN,1,num_6,32,num_4,1.00019404771,,,2017_Jun_22_1204,60.0095467413,MAFE4ImagesEEG,001,100638,
AFNE01.JPG,AFNE01.JPG,AFNE01.JPG,AFNE01.JPG,AFNE01.JPG,AFNE01.JPG,,,,,,,,,,,,,,,,,5,2,52,1,,,,,,,AMSA03.jpg,AMNE13.jpg,AMNE12.jpg,AMSA20.jpg,AMSA20.jpg,MS,2,num_4,16,num_4,0.53359847841,,,2017_Jun_22_1204,60.0095467413,MAFE4ImagesEEG,001,100638,
AFNE01.JPG,AFNE01.JPG,AFNE01.JPG,AFNE01.JPG,AFNE01.JPG,AFNE01.JPG,,,,,,,,,,,,,,,,,5,3,53,0,,,,,,,AMNE20.jpg,AMNE18.jpg,AMSA12.jpg,AMSA19.jpg,AMSA12.jpg,MS,2,num_2,32,num_6,1.05008034537,,,2017_Jun_22_1204,60.0095467413,MAFE4ImagesEEG,001,100638,
AFNE01.JPG,AFNE01.JPG,AFNE01.JPG,AFNE01.JPG,AFNE01.JPG,AFNE01.JPG,,,,,,,,,,,,,,,,,5,4,54,7,,,,,,,AMSA08.jpg,AMNE17.jpg,AMNE10.jpg,AMSA15.jpg,AMNE17.jpg,MN,1,num_6,32,num_2,1.4667302801,,,2017_Jun_22_1204,60.0095467413,MAFE4ImagesEEG,001,100638,
AFNE01.JPG,AFNE01.JPG,AFNE01.JPG,AFNE01.JPG,AFNE01.JPG,AFNE01.JPG,,,,,,,,,,,,,,,,,5,5,55,4,,,,,,,AMNE18.jpg,AMSA02.jpg,AMNE01.jpg,AMSA09.jpg,AMNE18.jpg,MN,1,num_8,16,num_8,0.916809021774,,,2017_Jun_22_1204,60.0095467413,MAFE4ImagesEEG,001,100638,
AFNE01.JPG,AFNE01.JPG,AFNE01.JPG,AFNE01.JPG,AFNE01.JPG,AFNE01.JPG,,,,,,,,,,,,,,,,,5,6,56,8,,,,,,,AMSA16.jpg,AMNE17.jpg,AMNE19.jpg,AMSA19.jpg,AMSA16.jpg,MS,2,num_8,32,num_2,0.733753395834,,,2017_Jun_22_1204,60.0095467413,MAFE4ImagesEEG,001,100638,
AFNE01.JPG,AFNE01.JPG,AFNE01.JPG,AFNE01.JPG,AFNE01.JPG,AFNE01.JPG,,,,,,,,,,,,,,,,,5,7,57,9,,,,,,,AMSA10.jpg,AMNE02.jpg,AMSA03.jpg,AMNE18.jpg,AMNE02.jpg,MN,1,num_6,16,num_6,0.699993264459,,,2017_Jun_22_1204,60.0095467413,MAFE4ImagesEEG,001,100638,
AFNE01.JPG,AFNE01.JPG,AFNE01.JPG,AFNE01.JPG,AFNE01.JPG,AFNE01.JPG,,,,,,,,,,,,,,,,,5,8,58,5,,,,,,,AMNE09.jpg,AMSA11.jpg,AMNE12.jpg,AMSA14.jpg,AMSA14.jpg,MS,2,num_4,16,num_4,0.983395610352,,,2017_Jun_22_1204,60.0095467413,MAFE4ImagesEEG,001,100638,
AFNE01.JPG,AFNE01.JPG,AFNE01.JPG,AFNE01.JPG,AFNE01.JPG,AFNE01.JPG,,,,,,,,,,,,,,,,,5,9,59,6,,,,,,,AMSA15.jpg,AMSA05.jpg,AMNE19.jpg,AMNE20.jpg,AMNE20.jpg,MN,1,num_4,32,num_2,1.25008483573,,,2017_Jun_22_1204,60.0095467413,MAFE4ImagesEEG,001,100638,
,,,,,,,,,,,,,,,,,,,,,,,,,,,,,,,,,,,,,,,,,,,space,45.1300918279,2017_Jun_22_1204,60.0095467413,MAFE4ImagesEEG,001,100638,
AFNE01.JPG,AFNE01.JPG,AFNE01.JPG,AFNE01.JPG,AFNE01.JPG,AFNE01.JPG,,,,,,,,,,,,,,,,,,,,,0,0,0,9,,,AFSA02.jpg,AFNE04.jpg,AFNE08.jpg,AFSA10.jpg,AFNE04.jpg,FN,3,num_6,32,num_8,1.43340154404,,,2017_Jun_22_1204,60.0095467413,MAFE4ImagesEEG,001,100638,
AFNE01.JPG,AFNE01.JPG,AFNE01.JPG,AFNE01.JPG,AFNE01.JPG,AFNE01.JPG,,,,,,,,,,,,,,,,,,,,,0,1,1,8,,,AFNE18.jpg,AFSA17.jpg,AFSA01.jpg,AFNE17.jpg,AFSA01.jpg,FS,4,num_2,32,num_6,1.0334477306,,,2017_Jun_22_1204,60.0095467413,MAFE4ImagesEEG,001,100638,
AFNE01.JPG,AFNE01.JPG,AFNE01.JPG,AFNE01.JPG,AFNE01.JPG,AFNE01.JPG,,,,,,,,,,,,,,,,,,,,,0,2,2,4,,,AFSA20.jpg,AFNE14.jpg,AFSA13.jpg,AFNE08.jpg,AFSA13.jpg,FS,4,num_2,32,num_8,0.933477238686,,,2017_Jun_22_1204,60.0095467413,MAFE4ImagesEEG,001,100638,
AFNE01.JPG,AFNE01.JPG,AFNE01.JPG,AFNE01.JPG,AFNE01.JPG,AFNE01.JPG,,,,,,,,,,,,,,,,,,,,,0,3,3,3,,,AFNE16.jpg,AFSA10.jpg,AFNE03.jpg,AFSA09.jpg,AFNE16.jpg,FN,3,num_8,32,num_2,2.03340186478,,,2017_Jun_22_1204,60.0095467413,MAFE4ImagesEEG,001,100638,
AFNE01.JPG,AFNE01.JPG,AFNE01.JPG,AFNE01.JPG,AFNE01.JPG,AFNE01.JPG,,,,,,,,,,,,,,,,,,,,,0,4,4,6,,,AFSA07.jpg,AFSA06.jpg,AFNE10.jpg,AFNE12.jpg,AFSA07.jpg,FS,4,num_8,32,num_6,0.550109211974,,,2017_Jun_22_1204,60.0095467413,MAFE4ImagesEEG,001,100638,
AFNE01.JPG,AFNE01.JPG,AFNE01.JPG,AFNE01.JPG,AFNE01.JPG,AFNE01.JPG,,,,,,,,,,,,,,,,,,,,,0,5,5,1,,,AFNE11.jpg,AFSA11.jpg,AFSA02.jpg,AFNE09.jpg,AFSA11.jpg,FS,4,num_6,32,num_8,0.683496001976,,,2017_Jun_22_1204,60.0095467413,MAFE4ImagesEEG,001,100638,
AFNE01.JPG,AFNE01.JPG,AFNE01.JPG,AFNE01.JPG,AFNE01.JPG,AFNE01.JPG,,,,,,,,,,,,,,,,,,,,,0,6,6,2,,,AFSA08.jpg,AFNE01.jpg,AFSA14.jpg,AFNE09.jpg,AFNE09.jpg,FN,3,num_4,16,num_4,0.516787532194,,,2017_Jun_22_1204,60.0095467413,MAFE4ImagesEEG,001,100638,
AFNE01.JPG,AFNE01.JPG,AFNE01.JPG,AFNE01.JPG,AFNE01.JPG,AFNE01.JPG,,,,,,,,,,,,,,,,,,,,,0,7,7,0,,,AFSA11.jpg,AFNE13.jpg,AFSA17.jpg,AFNE03.jpg,AFNE03.jpg,FN,3,num_4,32,num_2,1.0001459367,,,2017_Jun_22_1204,60.0095467413,MAFE4ImagesEEG,001,100638,
AFNE01.JPG,AFNE01.JPG,AFNE01.JPG,AFNE01.JPG,AFNE01.JPG,AFNE01.JPG,,,,,,,,,,,,,,,,,,,,,0,8,8,5,,,AFSA13.jpg,AFNE10.jpg,AFNE01.jpg,AFSA19.jpg,AFSA13.jpg,FS,4,num_8,16,num_8,0.500147219665,,,2017_Jun_22_1204,60.0095467413,MAFE4ImagesEEG,001,100638,
AFNE01.JPG,AFNE01.JPG,AFNE01.JPG,AFNE01.JPG,AFNE01.JPG,AFNE01.JPG,,,,,,,,,,,,,,,,,,,,,0,9,9,7,,,AFNE01.jpg,AFSA06.jpg,AFNE03.jpg,AFSA14.jpg,AFNE01.jpg,FN,3,num_8,32,num_6,1.51671023385,,,2017_Jun_22_1204,60.0095467413,MAFE4ImagesEEG,001,100638,
AFNE01.JPG,AFNE01.JPG,AFNE01.JPG,AFNE01.JPG,AFNE01.JPG,AFNE01.JPG,,,,,,,,,,,,,,,,,,,,,1,0,10,1,,,AFNE15.jpg,AFSA17.jpg,AFNE05.jpg,AFSA13.jpg,AFNE05.jpg,FN,3,num_2,16,num_2,1.28344404209,,,2017_Jun_22_1204,60.0095467413,MAFE4ImagesEEG,001,100638,
AFNE01.JPG,AFNE01.JPG,AFNE01.JPG,AFNE01.JPG,AFNE01.JPG,AFNE01.JPG,,,,,,,,,,,,,,,,,,,,,1,1,11,2,,,AFSA20.jpg,AFNE04.jpg,AFNE08.jpg,AFSA09.jpg,AFSA09.jpg,FS,4,num_4,16,num_4,0.6666516988,,,2017_Jun_22_1204,60.0095467413,MAFE4ImagesEEG,001,100638,
AFNE01.JPG,AFNE01.JPG,AFNE01.JPG,AFNE01.JPG,AFNE01.JPG,AFNE01.JPG,,,,,,,,,,,,,,,,,,,,,1,2,12,5,,,AFSA02.jpg,AFNE10.jpg,AFNE11.jpg,AFSA04.jpg,AFSA04.jpg,FS,4,num_4,32,num_2,1.00009012794,,,2017_Jun_22_1204,60.0095467413,MAFE4ImagesEEG,001,100638,
AFNE01.JPG,AFNE01.JPG,AFNE01.JPG,AFNE01.JPG,AFNE01.JPG,AFNE01.JPG,,,,,,,,,,,,,,,,,,,,,1,3,13,9,,,AFSA16.jpg,AFSA14.jpg,AFNE07.jpg,AFNE11.jpg,AFSA16.jpg,FS,4,num_8,32,num_6,1.25014834225,,,2017_Jun_22_1204,60.0095467413,MAFE4ImagesEEG,001,100638,
AFNE01.JPG,AFNE01.JPG,AFNE01.JPG,AFNE01.JPG,AFNE01.JPG,AFNE01.JPG,,,,,,,,,,,,,,,,,,,,,1,4,14,7,,,AFSA18.jpg,AFNE07.jpg,AFSA17.jpg,AFNE06.jpg,AFSA18.jpg,FS,4,num_8,32,num_2,1.88336514005,,,2017_Jun_22_1204,60.0095467413,MAFE4ImagesEEG,001,100638,
AFNE01.JPG,AFNE01.JPG,AFNE01.JPG,AFNE01.JPG,AFNE01.JPG,AFNE01.JPG,,,,,,,,,,,,,,,,,,,,,1,5,15,3,,,AFSA10.jpg,AFNE18.jpg,AFSA06.jpg,AFNE01.jpg,AFNE01.jpg,FN,3,num_4,32,num_8,1.26670205498,,,2017_Jun_22_1204,60.0095467413,MAFE4ImagesEEG,001,100638,
AFNE01.JPG,AFNE01.JPG,AFNE01.JPG,AFNE01.JPG,AFNE01.JPG,AFNE01.JPG,,,,,,,,,,,,,,,,,,,,,1,6,16,4,,,AFSA07.jpg,AFNE16.jpg,AFSA04.jpg,AFNE07.jpg,AFSA07.jpg,FS,4,num_8,32,num_4,0.516772457414,,,2017_Jun_22_1204,60.0095467413,MAFE4ImagesEEG,001,100638,
AFNE01.JPG,AFNE01.JPG,AFNE01.JPG,AFNE01.JPG,AFNE01.JPG,AFNE01.JPG,,,,,,,,,,,,,,,,,,,,,1,7,17,8,,,AFNE01.jpg,AFSA11.jpg,AFSA13.jpg,AFNE12.jpg,AFSA11.jpg,FS,4,num_6,32,num_8,1.20015748335,,,2017_Jun_22_1204,60.0095467413,MAFE4ImagesEEG,001,100638,
AFNE01.JPG,AFNE01.JPG,AFNE01.JPG,AFNE01.JPG,AFNE01.JPG,AFNE01.JPG,,,,,,,,,,,,,,,,,,,,,1,8,18,6,,,AFNE11.jpg,AFSA06.jpg,AFNE09.jpg,AFSA03.jpg,AFNE09.jpg,FN,3,num_2,32,num_4,1.50013984264,,,2017_Jun_22_1204,60.0095467413,MAFE4ImagesEEG,001,100638,
AFNE01.JPG,AFNE01.JPG,AFNE01.JPG,AFNE01.JPG,AFNE01.JPG,AFNE01.JPG,,,,,,,,,,,,,,,,,,,,,1,9,19,0,,,AFSA08.jpg,AFNE17.jpg,AFNE19.jpg,AFSA05.jpg,AFNE19.jpg,FN,3,num_2,16,num_2,0.850120437874,,,2017_Jun_22_1204,60.0095467413,MAFE4ImagesEEG,001,100638,
AFNE01.JPG,AFNE01.JPG,AFNE01.JPG,AFNE01.JPG,AFNE01.JPG,AFNE01.JPG,,,,,,,,,,,,,,,,,,,,,2,0,20,1,,,AFNE16.jpg,AFNE07.jpg,AFSA19.jpg,AFSA16.jpg,AFSA19.jpg,FS,4,num_2,32,num_4,1.01676411817,,,2017_Jun_22_1204,60.0095467413,MAFE4ImagesEEG,001,100638,
AFNE01.JPG,AFNE01.JPG,AFNE01.JPG,AFNE01.JPG,AFNE01.JPG,AFNE01.JPG,,,,,,,,,,,,,,,,,,,,,2,1,21,8,,,AFNE10.jpg,AFSA12.jpg,AFSA15.jpg,AFNE11.jpg,AFSA15.jpg,FS,4,num_2,32,num_8,0.966770693344,,,2017_Jun_22_1204,60.0095467413,MAFE4ImagesEEG,001,100638,
AFNE01.JPG,AFNE01.JPG,AFNE01.JPG,AFNE01.JPG,AFNE01.JPG,AFNE01.JPG,,,,,,,,,,,,,,,,,,,,,2,2,22,4,,,AFSA18.jpg,AFSA02.jpg,AFNE20.jpg,AFNE04.jpg,AFSA18.jpg,FS,4,num_8,32,num_6,0.866787371824,,,2017_Jun_22_1204,60.0095467413,MAFE4ImagesEEG,001,100638,
AFNE01.JPG,AFNE01.JPG,AFNE01.JPG,AFNE01.JPG,AFNE01.JPG,AFNE01.JPG,,,,,,,,,,,,,,,,,,,,,2,3,23,3,,,AFNE15.jpg,AFSA01.jpg,AFNE13.jpg,AFSA12.jpg,AFNE13.jpg,FN,3,num_2,32,num_8,1.16677229704,,,2017_Jun_22_1204,60.0095467413,MAFE4ImagesEEG,001,100638,
AFNE01.JPG,AFNE01.JPG,AFNE01.JPG,AFNE01.JPG,AFNE01.JPG,AFNE01.JPG,,,,,,,,,,,,,,,,,,,,,2,4,24,7,,,AFSA17.jpg,AFNE08.jpg,AFSA15.jpg,AFNE05.jpg,AFSA17.jpg,FS,4,num_8,32,num_6,1.35009028831,,,2017_Jun_22_1204,60.0095467413,MAFE4ImagesEEG,001,100638,
AFNE01.JPG,AFNE01.JPG,AFNE01.JPG,AFNE01.JPG,AFNE01.JPG,AFNE01.JPG,,,,,,,,,,,,,,,,,,,,,2,5,25,5,,,AFNE10.jpg,AFSA10.jpg,AFSA19.jpg,AFNE12.jpg,AFSA19.jpg,FS,4,num_2,32,num_6,1.23346280538,,,2017_Jun_22_1204,60.0095467413,MAFE4ImagesEEG,001,100638,
AFNE01.JPG,AFNE01.JPG,AFNE01.JPG,AFNE01.JPG,AFNE01.JPG,AFNE01.JPG,,,,,,,,,,,,,,,,,,,,,2,6,26,9,,,AFSA03.jpg,AFNE06.jpg,AFSA05.jpg,AFNE03.jpg,AFSA05.jpg,FS,4,num_2,16,num_2,0.666759467443,,,2017_Jun_22_1204,60.0095467413,MAFE4ImagesEEG,001,100638,
AFNE01.JPG,AFNE01.JPG,AFNE01.JPG,AFNE01.JPG,AFNE01.JPG,AFNE01.JPG,,,,,,,,,,,,,,,,,,,,,2,7,27,0,,,AFNE08.jpg,AFSA13.jpg,AFNE07.jpg,AFSA11.jpg,AFNE07.jpg,FN,3,num_2,32,num_8,0.800125409344,,,2017_Jun_22_1204,60.0095467413,MAFE4ImagesEEG,001,100638,
AFNE01.JPG,AFNE01.JPG,AFNE01.JPG,AFNE01.JPG,AFNE01.JPG,AFNE01.JPG,,,,,,,,,,,,,,,,,,,,,2,8,28,6,,,AFNE16.jpg,AFSA20.jpg,AFNE13.jpg,AFSA14.jpg,AFNE13.jpg,FN,3,num_2,32,num_8,0.800149464845,,,2017_Jun_22_1204,60.0095467413,MAFE4ImagesEEG,001,100638,
AFNE01.JPG,AFNE01.JPG,AFNE01.JPG,AFNE01.JPG,AFNE01.JPG,AFNE01.JPG,,,,,,,,,,,,,,,,,,,,,2,9,29,2,,,AFNE10.jpg,AFNE06.jpg,AFSA17.jpg,AFSA04.jpg,AFSA17.jpg,FS,4,num_2,32,num_6,0.933415977343,,,2017_Jun_22_1204,60.0095467413,MAFE4ImagesEEG,001,100638,
AFNE01.JPG,AFNE01.JPG,AFNE01.JPG,AFNE01.JPG,AFNE01.JPG,AFNE01.JPG,,,,,,,,,,,,,,,,,,,,,3,0,30,0,,,AFSA16.jpg,AFSA17.jpg,AFNE03.jpg,AFNE07.jpg,AFNE03.jpg,FN,3,num_2,32,num_8,2.03366166419,,,2017_Jun_22_1204,60.0095467413,MAFE4ImagesEEG,001,100638,
AFNE01.JPG,AFNE01.JPG,AFNE01.JPG,AFNE01.JPG,AFNE01.JPG,AFNE01.JPG,,,,,,,,,,,,,,,,,,,,,3,1,31,3,,,AFNE19.jpg,AFNE09.jpg,AFSA02.jpg,AFSA06.jpg,AFNE19.jpg,FN,3,num_8,16,num_8,1.1667062246,,,2017_Jun_22_1204,60.0095467413,MAFE4ImagesEEG,001,100638,
AFNE01.JPG,AFNE01.JPG,AFNE01.JPG,AFNE01.JPG,AFNE01.JPG,AFNE01.JPG,,,,,,,,,,,,,,,,,,,,,3,2,32,8,,,AFNE08.jpg,AFSA09.jpg,AFSA18.jpg,AFNE18.jpg,AFNE18.jpg,FN,3,num_4,32,num_2,0.800127013044,,,2017_Jun_22_1204,60.0095467413,MAFE4ImagesEEG,001,100638,
AFNE01.JPG,AFNE01.JPG,AFNE01.JPG,AFNE01.JPG,AFNE01.JPG,AFNE01.JPG,,,,,,,,,,,,,,,,,,,,,3,3,33,7,,,AFSA10.jpg,AFNE03.jpg,AFSA13.jpg,AFNE04.jpg,AFNE03.jpg,FN,3,num_6,16,num_6,1.61671568643,,,2017_Jun_22_1204,60.0095467413,MAFE4ImagesEEG,001,100638,
AFNE01.JPG,AFNE01.JPG,AFNE01.JPG,AFNE01.JPG,AFNE01.JPG,AFNE01.JPG,,,,,,,,,,,,,,,,,,,,,3,4,34,9,,,AFSA19.jpg,AFSA17.jpg,AFNE11.jpg,AFNE06.jpg,AFNE11.jpg,FN,3,num_2,16,num_2,1.05011209863,,,2017_Jun_22_1204,60.0095467413,MAFE4ImagesEEG,001,100638,
AFNE01.JPG,AFNE01.JPG,AFNE01.JPG,AFNE01.JPG,AFNE01.JPG,AFNE01.JPG,,,,,,,,,,,,,,,,,,,,,3,5,35,1,,,AFNE09.jpg,AFNE04.jpg,AFSA09.jpg,AFSA03.jpg,AFSA03.jpg,FS,4,num_4,32,num_2,0.933418864003,,,2017_Jun_22_1204,60.0095467413,MAFE4ImagesEEG,001,100638,
AFNE01.JPG,AFNE01.JPG,AFNE01.JPG,AFNE01.JPG,AFNE01.JPG,AFNE01.JPG,,,,,,,,,,,,,,,,,,,,,3,6,36,2,,,AFNE12.jpg,AFNE11.jpg,AFSA01.jpg,AFSA11.jpg,AFNE11.jpg,FN,3,num_6,32,num_4,0.666766523724,,,2017_Jun_22_1204,60.0095467413,MAFE4ImagesEEG,001,100638,
AFNE01.JPG,AFNE01.JPG,AFNE01.JPG,AFNE01.JPG,AFNE01.JPG,AFNE01.JPG,,,,,,,,,,,,,,,,,,,,,3,7,37,5,,,AFSA16.jpg,AFNE13.jpg,AFSA03.jpg,AFNE07.jpg,AFSA03.jpg,FS,4,num_2,32,num_4,0.600137276725,,,2017_Jun_22_1204,60.0095467413,MAFE4ImagesEEG,001,100638,
AFNE01.JPG,AFNE01.JPG,AFNE01.JPG,AFNE01.JPG,AFNE01.JPG,AFNE01.JPG,,,,,,,,,,,,,,,,,,,,,3,8,38,4,,,AFSA12.jpg,AFSA05.jpg,AFNE06.jpg,AFNE09.jpg,AFSA05.jpg,FS,4,num_6,16,num_6,0.950258035339,,,2017_Jun_22_1204,60.0095467413,MAFE4ImagesEEG,001,100638,
