IPosition2,IPosition3,IPosition1,IPosition6,IPosition4,IPosition5,TrialsF1.thisRepN,TrialsF1.thisTrialN,TrialsF1.thisN,TrialsF1.thisIndex,TrialsM1.thisRepN,TrialsM1.thisTrialN,TrialsM1.thisN,TrialsM1.thisIndex,TrialsF2.thisRepN,TrialsF2.thisTrialN,TrialsF2.thisN,TrialsF2.thisIndex,TrialsM2.thisRepN,TrialsM2.thisTrialN,TrialsM2.thisN,TrialsM2.thisIndex,TrialsF3.thisRepN,TrialsF3.thisTrialN,TrialsF3.thisN,TrialsF3.thisIndex,TrialsM3.thisRepN,TrialsM3.thisTrialN,TrialsM3.thisN,TrialsM3.thisIndex,InstrKey_resp.keys,InstrKey_resp.rt,Image0 _Position,Image1 _Position,Image2 _Position,Image3 _Position,Center_image,condition,code,correct_answer,accuracy,Key_Resp.keys,Key_Resp.rt,BreakKey_resp.keys,BreakKey_resp.rt,date,frameRate,expName,session,participant,
,,,,,,,,,,,,,,,,,,,,,,,,,,,,,,space,17.1659454293,,,,,,,,,,,,,,2017_Jun_22_1445,60.0015780823,FEMA4ImagesEEG,001,100655,
AFNE23.JPG,AFNE24.JPG,AFNE22.JPG,AFSA24.JPG,AFSA22.JPG,AFSA23.JPG,0,0,0,8,,,,,,,,,,,,,,,,,,,,,,,AFSA10.jpg,AFSA12.jpg,AFNE18.jpg,AFNE09.jpg,AFNE09.jpg,FN,3,num_4,32,num_8,2.54986384586,,,2017_Jun_22_1445,60.0015780823,FEMA4ImagesEEG,001,100655,
AFSA25.JPG,AFNE24.JPG,AFSA24.JPG,AFNE21.JPG,AFSA21.JPG,AFNE25.JPG,0,1,1,2,,,,,,,,,,,,,,,,,,,,,,,AFNE07.jpg,AFNE18.jpg,AFSA11.jpg,AFSA12.jpg,AFSA11.jpg,FS,4,num_2,16,num_2,2.21667014135,,,2017_Jun_22_1445,60.0015780823,FEMA4ImagesEEG,001,100655,
AMNE22.JPG,AMSA24.JPG,AMSA22.JPG,AMNE25.JPG,AMNE24.JPG,AMSA25.JPG,0,2,2,7,,,,,,,,,,,,,,,,,,,,,,,AFNE15.jpg,AFSA05.jpg,AFSA13.jpg,AFNE11.jpg,AFSA13.jpg,FS,4,num_2,32,num_8,1.51671055459,,,2017_Jun_22_1445,60.0015780823,FEMA4ImagesEEG,001,100655,
AMSA25.JPG,AMNE24.JPG,AMSA24.JPG,AMNE26.JPG,AMSA21.JPG,AMNE25.JPG,0,3,3,3,,,,,,,,,,,,,,,,,,,,,,,AFNE05.jpg,AFSA05.jpg,AFNE10.jpg,AFSA14.jpg,AFSA05.jpg,FS,4,num_6,32,num_2,2.966597173,,,2017_Jun_22_1445,60.0015780823,FEMA4ImagesEEG,001,100655,
AFNE22.JPG,AFSA24.JPG,AFSA22.JPG,AFNE25.JPG,AFNE24.JPG,AFSA25.JPG,0,4,4,6,,,,,,,,,,,,,,,,,,,,,,,AFSA18.jpg,AFSA15.jpg,AFNE09.jpg,AFNE02.jpg,AFSA15.jpg,FS,4,num_6,16,num_6,1.65004057361,,,2017_Jun_22_1445,60.0015780823,FEMA4ImagesEEG,001,100655,
AMSA21.JPG,AMNE23.JPG,AMNE21.JPG,AMSA25.JPG,AMNE25.JPG,AMSA23.JPG,0,5,5,5,,,,,,,,,,,,,,,,,,,,,,,AFSA12.jpg,AFNE16.jpg,AFSA06.jpg,AFNE15.jpg,AFNE16.jpg,FN,3,num_6,32,num_4,1.43365075903,,,2017_Jun_22_1445,60.0015780823,FEMA4ImagesEEG,001,100655,
AMSA21.JPG,AMNE22.JPG,AMNE21.JPG,AMSA23.JPG,AMSA22.JPG,AMNE23.JPG,0,6,6,1,,,,,,,,,,,,,,,,,,,,,,,AFNE04.jpg,AFSA02.jpg,AFNE14.jpg,AFSA16.jpg,AFSA02.jpg,FS,4,num_6,32,num_4,1.70000994294,,,2017_Jun_22_1445,60.0015780823,FEMA4ImagesEEG,001,100655,
AFSA21.JPG,AFNE23.JPG,AFNE21.JPG,AFSA25.JPG,AFNE25.JPG,AFSA23.JPG,0,7,7,4,,,,,,,,,,,,,,,,,,,,,,,AFSA20.jpg,AFNE04.jpg,AFNE09.jpg,AFSA02.jpg,AFNE04.jpg,FN,3,num_6,16,num_6,1.45022211246,,,2017_Jun_22_1445,60.0015780823,FEMA4ImagesEEG,001,100655,
AFSA21.JPG,AFNE22.JPG,AFNE21.JPG,AFSA23.JPG,AFSA22.JPG,AFNE23.JPG,0,8,8,0,,,,,,,,,,,,,,,,,,,,,,,AFNE11.jpg,AFNE13.jpg,AFSA05.jpg,AFSA10.jpg,AFNE11.jpg,FN,3,num_8,16,num_8,0.800123484905,,,2017_Jun_22_1445,60.0015780823,FEMA4ImagesEEG,001,100655,
AMNE23.JPG,AMNE24.JPG,AMNE22.JPG,AMSA24.JPG,AMSA22.JPG,AMSA23.JPG,0,9,9,9,,,,,,,,,,,,,,,,,,,,,,,AFSA19.jpg,AFNE18.jpg,AFNE17.jpg,AFSA16.jpg,AFNE18.jpg,FN,3,num_6,16,num_6,0.916901394898,,,2017_Jun_22_1445,60.0015780823,FEMA4ImagesEEG,001,100655,
AFNE23.JPG,AFNE24.JPG,AFNE22.JPG,AFSA24.JPG,AFSA22.JPG,AFSA23.JPG,,,,,0,0,0,8,,,,,,,,,,,,,,,,,,,AMNE20.jpg,AMSA10.jpg,AMNE16.jpg,AMSA15.jpg,AMSA15.jpg,MS,2,num_4,16,num_4,1.56664592548,,,2017_Jun_22_1445,60.0015780823,FEMA4ImagesEEG,001,100655,
AFSA21.JPG,AFNE22.JPG,AFNE21.JPG,AFSA23.JPG,AFSA22.JPG,AFNE23.JPG,,,,,0,1,1,0,,,,,,,,,,,,,,,,,,,AMSA02.jpg,AMSA13.jpg,AMNE05.jpg,AMNE06.jpg,AMSA02.jpg,MS,2,num_8,16,num_8,1.81670189461,,,2017_Jun_22_1445,60.0015780823,FEMA4ImagesEEG,001,100655,
AMSA25.JPG,AMNE24.JPG,AMSA24.JPG,AMNE26.JPG,AMSA21.JPG,AMNE25.JPG,,,,,0,2,2,3,,,,,,,,,,,,,,,,,,,AMSA12.jpg,AMNE06.jpg,AMSA13.jpg,AMNE09.jpg,AMNE09.jpg,MN,1,num_4,16,num_4,2.74999599075,,,2017_Jun_22_1445,60.0015780823,FEMA4ImagesEEG,001,100655,
AFSA25.JPG,AFNE24.JPG,AFSA24.JPG,AFNE21.JPG,AFSA21.JPG,AFNE25.JPG,,,,,0,3,3,2,,,,,,,,,,,,,,,,,,,AMSA03.jpg,AMNE01.jpg,AMNE18.jpg,AMSA04.jpg,AMNE18.jpg,MN,1,num_2,32,num_8,0.900095259783,,,2017_Jun_22_1445,60.0015780823,FEMA4ImagesEEG,001,100655,
AMSA21.JPG,AMNE23.JPG,AMNE21.JPG,AMSA25.JPG,AMNE25.JPG,AMSA23.JPG,,,,,0,4,4,5,,,,,,,,,,,,,,,,,,,AMSA12.jpg,AMNE10.jpg,AMNE03.jpg,AMSA15.jpg,AMNE10.jpg,MN,1,num_6,16,num_6,0.900111296785,,,2017_Jun_22_1445,60.0015780823,FEMA4ImagesEEG,001,100655,
AMNE23.JPG,AMNE24.JPG,AMNE22.JPG,AMSA24.JPG,AMSA22.JPG,AMSA23.JPG,,,,,0,5,5,9,,,,,,,,,,,,,,,,,,,AMSA07.jpg,AMSA12.jpg,AMNE16.jpg,AMNE03.jpg,AMSA12.jpg,MS,2,num_6,16,num_6,1.4000304703,,,2017_Jun_22_1445,60.0015780823,FEMA4ImagesEEG,001,100655,
AMSA21.JPG,AMNE22.JPG,AMNE21.JPG,AMSA23.JPG,AMSA22.JPG,AMNE23.JPG,,,,,0,6,6,1,,,,,,,,,,,,,,,,,,,AMNE16.jpg,AMSA07.jpg,AMSA04.jpg,AMNE05.jpg,AMNE16.jpg,MN,1,num_8,32,num_4,1.266741506,,,2017_Jun_22_1445,60.0015780823,FEMA4ImagesEEG,001,100655,
AMNE22.JPG,AMSA24.JPG,AMSA22.JPG,AMNE25.JPG,AMNE24.JPG,AMSA25.JPG,,,,,0,7,7,7,,,,,,,,,,,,,,,,,,,AMNE02.jpg,AMNE11.jpg,AMSA11.jpg,AMSA07.jpg,AMNE11.jpg,MN,1,num_6,16,num_6,1.7000240555,,,2017_Jun_22_1445,60.0015780823,FEMA4ImagesEEG,001,100655,
AFNE22.JPG,AFSA24.JPG,AFSA22.JPG,AFNE25.JPG,AFNE24.JPG,AFSA25.JPG,,,,,0,8,8,6,,,,,,,,,,,,,,,,,,,AMNE03.jpg,AMNE12.jpg,AMSA07.jpg,AMSA02.jpg,AMSA07.jpg,MS,2,num_2,32,num_6,1.58341998659,,,2017_Jun_22_1445,60.0015780823,FEMA4ImagesEEG,001,100655,
AFSA21.JPG,AFNE23.JPG,AFNE21.JPG,AFSA25.JPG,AFNE25.JPG,AFSA23.JPG,,,,,0,9,9,4,,,,,,,,,,,,,,,,,,,AMSA15.jpg,AMSA05.jpg,AMNE06.jpg,AMNE18.jpg,AMNE06.jpg,MN,1,num_2,16,num_2,2.01683243579,,,2017_Jun_22_1445,60.0015780823,FEMA4ImagesEEG,001,100655,
AMSA21.JPG,AMNE22.JPG,AMNE21.JPG,AMSA23.JPG,AMSA22.JPG,AMNE23.JPG,,,,,,,,,0,0,0,1,,,,,,,,,,,,,,,AFSA18.jpg,AFNE16.jpg,AFSA03.jpg,AFNE19.jpg,AFNE16.jpg,FN,3,num_6,32,num_8,2.15003191363,,,2017_Jun_22_1445,60.0015780823,FEMA4ImagesEEG,001,100655,
AFSA21.JPG,AFNE22.JPG,AFNE21.JPG,AFSA23.JPG,AFSA22.JPG,AFNE23.JPG,,,,,,,,,0,1,1,0,,,,,,,,,,,,,,,AFSA08.jpg,AFNE16.jpg,AFSA05.jpg,AFNE11.jpg,AFSA05.jpg,FS,4,num_2,32,num_6,1.80002341402,,,2017_Jun_22_1445,60.0015780823,FEMA4ImagesEEG,001,100655,
AFNE23.JPG,AFNE24.JPG,AFNE22.JPG,AFSA24.JPG,AFSA22.JPG,AFSA23.JPG,,,,,,,,,0,2,2,8,,,,,,,,,,,,,,,AFNE10.jpg,AFSA19.jpg,AFSA17.jpg,AFNE07.jpg,AFNE10.jpg,FN,3,num_8,16,num_8,1.50004843174,,,2017_Jun_22_1445,60.0015780823,FEMA4ImagesEEG,001,100655,
AMSA25.JPG,AMNE24.JPG,AMSA24.JPG,AMNE26.JPG,AMSA21.JPG,AMNE25.JPG,,,,,,,,,0,3,3,3,,,,,,,,,,,,,,,AFNE19.jpg,AFSA19.jpg,AFNE04.jpg,AFSA05.jpg,AFNE04.jpg,FN,3,num_2,32,num_8,0.816737817491,,,2017_Jun_22_1445,60.0015780823,FEMA4ImagesEEG,001,100655,
AMNE22.JPG,AMSA24.JPG,AMSA22.JPG,AMNE25.JPG,AMNE24.JPG,AMSA25.JPG,,,,,,,,,0,4,4,7,,,,,,,,,,,,,,,AFSA20.jpg,AFNE18.jpg,AFNE04.jpg,AFSA03.jpg,AFSA03.jpg,FS,4,num_4,16,num_4,1.53341469438,,,2017_Jun_22_1445,60.0015780823,FEMA4ImagesEEG,001,100655,
AFSA21.JPG,AFNE23.JPG,AFNE21.JPG,AFSA25.JPG,AFNE25.JPG,AFSA23.JPG,,,,,,,,,0,5,5,4,,,,,,,,,,,,,,,AFSA15.jpg,AFNE01.jpg,AFNE18.jpg,AFSA14.jpg,AFSA15.jpg,FS,4,num_8,16,num_8,0.883472267215,,,2017_Jun_22_1445,60.0015780823,FEMA4ImagesEEG,001,100655,
AFSA25.JPG,AFNE24.JPG,AFSA24.JPG,AFNE21.JPG,AFSA21.JPG,AFNE25.JPG,,,,,,,,,0,6,6,2,,,,,,,,,,,,,,,AFSA18.jpg,AFNE01.jpg,AFNE08.jpg,AFSA01.jpg,AFNE08.jpg,FN,3,num_2,32,num_8,1.01676796705,,,2017_Jun_22_1445,60.0015780823,FEMA4ImagesEEG,001,100655,
AMSA21.JPG,AMNE23.JPG,AMNE21.JPG,AMSA25.JPG,AMNE25.JPG,AMSA23.JPG,,,,,,,,,0,7,7,5,,,,,,,,,,,,,,,AFSA05.jpg,AFNE02.jpg,AFNE03.jpg,AFSA11.jpg,AFSA11.jpg,FS,4,num_4,16,num_4,1.68343923099,,,2017_Jun_22_1445,60.0015780823,FEMA4ImagesEEG,001,100655,
AMNE23.JPG,AMNE24.JPG,AMNE22.JPG,AMSA24.JPG,AMSA22.JPG,AMSA23.JPG,,,,,,,,,0,8,8,9,,,,,,,,,,,,,,,AFNE08.jpg,AFSA19.jpg,AFSA10.jpg,AFNE18.jpg,AFSA19.jpg,FS,4,num_6,32,num_8,0.733434580263,,,2017_Jun_22_1445,60.0015780823,FEMA4ImagesEEG,001,100655,
AFNE22.JPG,AFSA24.JPG,AFSA22.JPG,AFNE25.JPG,AFNE24.JPG,AFSA25.JPG,,,,,,,,,0,9,9,6,,,,,,,,,,,,,,,AFSA19.jpg,AFNE15.jpg,AFSA16.jpg,AFNE07.jpg,AFSA16.jpg,FS,4,num_2,16,num_2,2.24998733077,,,2017_Jun_22_1445,60.0015780823,FEMA4ImagesEEG,001,100655,
AMSA21.JPG,AMNE23.JPG,AMNE21.JPG,AMSA25.JPG,AMNE25.JPG,AMSA23.JPG,,,,,,,,,,,,,0,0,0,5,,,,,,,,,,,AMNE10.jpg,AMSA19.jpg,AMNE19.jpg,AMSA06.jpg,AMNE10.jpg,MN,1,num_8,16,num_8,0.816754495972,,,2017_Jun_22_1445,60.0015780823,FEMA4ImagesEEG,001,100655,
AFNE23.JPG,AFNE24.JPG,AFNE22.JPG,AFSA24.JPG,AFSA22.JPG,AFSA23.JPG,,,,,,,,,,,,,0,1,1,8,,,,,,,,,,,AMNE12.jpg,AMSA19.jpg,AMNE11.jpg,AMSA04.jpg,AMNE12.jpg,MN,1,num_8,16,num_8,0.883473870914,,,2017_Jun_22_1445,60.0015780823,FEMA4ImagesEEG,001,100655,
AMSA21.JPG,AMNE22.JPG,AMNE21.JPG,AMSA23.JPG,AMSA22.JPG,AMNE23.JPG,,,,,,,,,,,,,0,2,2,1,,,,,,,,,,,AMNE09.jpg,AMNE02.jpg,AMSA03.jpg,AMSA02.jpg,AMNE02.jpg,MN,1,num_6,32,num_4,0.950096061633,,,2017_Jun_22_1445,60.0015780823,FEMA4ImagesEEG,001,100655,
AFSA21.JPG,AFNE23.JPG,AFNE21.JPG,AFSA25.JPG,AFNE25.JPG,AFSA23.JPG,,,,,,,,,,,,,0,3,3,4,,,,,,,,,,,AMSA19.jpg,AMNE15.jpg,AMSA14.jpg,AMNE13.jpg,AMSA19.jpg,MS,2,num_8,16,num_8,1.75004153583,,,2017_Jun_22_1445,60.0015780823,FEMA4ImagesEEG,001,100655,
AMNE23.JPG,AMNE24.JPG,AMNE22.JPG,AMSA24.JPG,AMSA22.JPG,AMSA23.JPG,,,,,,,,,,,,,0,4,4,9,,,,,,,,,,,AMSA01.jpg,AMNE19.jpg,AMSA04.jpg,AMNE03.jpg,AMSA01.jpg,MS,2,num_8,32,num_4,2.68332953791,,,2017_Jun_22_1445,60.0015780823,FEMA4ImagesEEG,001,100655,
AMNE22.JPG,AMSA24.JPG,AMSA22.JPG,AMNE25.JPG,AMNE24.JPG,AMSA25.JPG,,,,,,,,,,,,,0,5,5,7,,,,,,,,,,,AMSA13.jpg,AMSA04.jpg,AMNE17.jpg,AMNE10.jpg,AMNE10.jpg,MN,1,num_4,32,num_8,1.66679827698,,,2017_Jun_22_1445,60.0015780823,FEMA4ImagesEEG,001,100655,
AFSA25.JPG,AFNE24.JPG,AFSA24.JPG,AFNE21.JPG,AFSA21.JPG,AFNE25.JPG,,,,,,,,,,,,,0,6,6,2,,,,,,,,,,,AMSA01.jpg,AMNE09.jpg,AMSA13.jpg,AMNE15.jpg,AMSA01.jpg,MS,2,num_8,32,num_4,1.18348862496,,,2017_Jun_22_1445,60.0015780823,FEMA4ImagesEEG,001,100655,
AMSA25.JPG,AMNE24.JPG,AMSA24.JPG,AMNE26.JPG,AMSA21.JPG,AMNE25.JPG,,,,,,,,,,,,,0,7,7,3,,,,,,,,,,,AMSA10.jpg,AMNE18.jpg,AMSA02.jpg,AMNE07.jpg,AMSA10.jpg,MS,2,num_8,32,num_4,0.783473870915,,,2017_Jun_22_1445,60.0015780823,FEMA4ImagesEEG,001,100655,
AFSA21.JPG,AFNE22.JPG,AFNE21.JPG,AFSA23.JPG,AFSA22.JPG,AFNE23.JPG,,,,,,,,,,,,,0,8,8,0,,,,,,,,,,,AMSA13.jpg,AMNE19.jpg,AMSA03.jpg,AMNE02.jpg,AMSA03.jpg,MS,2,num_2,16,num_2,2.43337909224,,,2017_Jun_22_1445,60.0015780823,FEMA4ImagesEEG,001,100655,
AFNE22.JPG,AFSA24.JPG,AFSA22.JPG,AFNE25.JPG,AFNE24.JPG,AFSA25.JPG,,,,,,,,,,,,,0,9,9,6,,,,,,,,,,,AMSA02.jpg,AMNE17.jpg,AMNE01.jpg,AMSA06.jpg,AMNE17.jpg,MN,1,num_6,16,num_6,1.78335615933,,,2017_Jun_22_1445,60.0015780823,FEMA4ImagesEEG,001,100655,
AMSA25.JPG,AMNE24.JPG,AMSA24.JPG,AMNE26.JPG,AMSA21.JPG,AMNE25.JPG,,,,,,,,,,,,,,,,,0,0,0,3,,,,,,,AFSA15.jpg,AFSA02.jpg,AFNE03.jpg,AFNE15.jpg,AFNE03.jpg,FN,3,num_2,32,num_8,0.916707347191,,,2017_Jun_22_1445,60.0015780823,FEMA4ImagesEEG,001,100655,
AMSA21.JPG,AMNE22.JPG,AMNE21.JPG,AMSA23.JPG,AMSA22.JPG,AMNE23.JPG,,,,,,,,,,,,,,,,,0,1,1,1,,,,,,,AFSA14.jpg,AFNE05.jpg,AFSA08.jpg,AFNE18.jpg,AFNE18.jpg,FN,3,num_4,16,num_4,0.666816559165,,,2017_Jun_22_1445,60.0015780823,FEMA4ImagesEEG,001,100655,
AMNE23.JPG,AMNE24.JPG,AMNE22.JPG,AMSA24.JPG,AMSA22.JPG,AMSA23.JPG,,,,,,,,,,,,,,,,,0,2,2,9,,,,,,,AFSA01.jpg,AFNE08.jpg,AFNE17.jpg,AFSA16.jpg,AFSA16.jpg,FS,4,num_4,16,num_4,2.41664255771,,,2017_Jun_22_1445,60.0015780823,FEMA4ImagesEEG,001,100655,
AFSA25.JPG,AFNE24.JPG,AFSA24.JPG,AFNE21.JPG,AFSA21.JPG,AFNE25.JPG,,,,,,,,,,,,,,,,,0,3,3,2,,,,,,,AFSA04.jpg,AFNE06.jpg,AFSA06.jpg,AFNE02.jpg,AFNE06.jpg,FN,3,num_6,32,num_4,0.766758825963,,,2017_Jun_22_1445,60.0015780823,FEMA4ImagesEEG,001,100655,
AFSA21.JPG,AFNE23.JPG,AFNE21.JPG,AFSA25.JPG,AFNE25.JPG,AFSA23.JPG,,,,,,,,,,,,,,,,,0,4,4,4,,,,,,,AFSA08.jpg,AFSA07.jpg,AFNE11.jpg,AFNE19.jpg,AFNE11.jpg,FN,3,num_2,32,num_6,0.816809983995,,,2017_Jun_22_1445,60.0015780823,FEMA4ImagesEEG,001,100655,
AFSA21.JPG,AFNE22.JPG,AFNE21.JPG,AFSA23.JPG,AFSA22.JPG,AFNE23.JPG,,,,,,,,,,,,,,,,,0,5,5,0,,,,,,,AFNE12.jpg,AFSA10.jpg,AFSA07.jpg,AFNE11.jpg,AFNE12.jpg,FN,3,num_8,32,num_6,1.15010343865,,,2017_Jun_22_1445,60.0015780823,FEMA4ImagesEEG,001,100655,
AFNE23.JPG,AFNE24.JPG,AFNE22.JPG,AFSA24.JPG,AFSA22.JPG,AFSA23.JPG,,,,,,,,,,,,,,,,,0,6,6,8,,,,,,,AFNE12.jpg,AFNE09.jpg,AFSA14.jpg,AFSA11.jpg,AFNE12.jpg,FN,3,num_8,16,num_8,1.21672274271,,,2017_Jun_22_1445,60.0015780823,FEMA4ImagesEEG,001,100655,
AFNE22.JPG,AFSA24.JPG,AFSA22.JPG,AFNE25.JPG,AFNE24.JPG,AFSA25.JPG,,,,,,,,,,,,,,,,,0,7,7,6,,,,,,,AFNE06.jpg,AFSA20.jpg,AFSA12.jpg,AFNE15.jpg,AFNE06.jpg,FN,3,num_8,16,num_8,1.1334060344,,,2017_Jun_22_1445,60.0015780823,FEMA4ImagesEEG,001,100655,
AMNE22.JPG,AMSA24.JPG,AMSA22.JPG,AMNE25.JPG,AMNE24.JPG,AMSA25.JPG,,,,,,,,,,,,,,,,,0,8,8,7,,,,,,,AFNE02.jpg,AFSA10.jpg,AFSA20.jpg,AFNE20.jpg,AFSA10.jpg,FS,4,num_6,16,num_6,1.15006655355,,,2017_Jun_22_1445,60.0015780823,FEMA4ImagesEEG,001,100655,
AMSA21.JPG,AMNE23.JPG,AMNE21.JPG,AMSA25.JPG,AMNE25.JPG,AMSA23.JPG,,,,,,,,,,,,,,,,,0,9,9,5,,,,,,,AFNE10.jpg,AFSA20.jpg,AFSA02.jpg,AFNE14.jpg,AFSA20.jpg,FS,4,num_6,16,num_6,1.48337059263,,,2017_Jun_22_1445,60.0015780823,FEMA4ImagesEEG,001,100655,
AMSA25.JPG,AMNE24.JPG,AMSA24.JPG,AMNE26.JPG,AMSA21.JPG,AMNE25.JPG,,,,,,,,,,,,,,,,,,,,,0,0,0,3,,,AMSA05.jpg,AMNE20.jpg,AMNE06.jpg,AMSA10.jpg,AMSA10.jpg,MS,2,num_4,32,num_8,0.750094457933,,,2017_Jun_22_1445,60.0015780823,FEMA4ImagesEEG,001,100655,
AFNE22.JPG,AFSA24.JPG,AFSA22.JPG,AFNE25.JPG,AFNE24.JPG,AFSA25.JPG,,,,,,,,,,,,,,,,,,,,,0,1,1,6,,,AMSA14.jpg,AMSA03.jpg,AMNE16.jpg,AMNE14.jpg,AMNE14.jpg,MN,1,num_4,32,num_2,2.1333659419,,,2017_Jun_22_1445,60.0015780823,FEMA4ImagesEEG,001,100655,
AMNE22.JPG,AMSA24.JPG,AMSA22.JPG,AMNE25.JPG,AMNE24.JPG,AMSA25.JPG,,,,,,,,,,,,,,,,,,,,,0,2,2,7,,,AMNE03.jpg,AMNE08.jpg,AMSA10.jpg,AMSA12.jpg,AMNE08.jpg,MN,1,num_6,16,num_6,1.40018474625,,,2017_Jun_22_1445,60.0015780823,FEMA4ImagesEEG,001,100655,
AMSA21.JPG,AMNE23.JPG,AMNE21.JPG,AMSA25.JPG,AMNE25.JPG,AMSA23.JPG,,,,,,,,,,,,,,,,,,,,,0,3,3,5,,,AMSA12.jpg,AMNE06.jpg,AMNE18.jpg,AMSA01.jpg,AMSA12.jpg,MS,2,num_8,32,num_6,1.10009397682,,,2017_Jun_22_1445,60.0015780823,FEMA4ImagesEEG,001,100655,
AFNE23.JPG,AFNE24.JPG,AFNE22.JPG,AFSA24.JPG,AFSA22.JPG,AFSA23.JPG,,,,,,,,,,,,,,,,,,,,,0,4,4,8,,,AMSA12.jpg,AMNE13.jpg,AMNE02.jpg,AMSA13.jpg,AMSA13.jpg,MS,2,num_4,32,num_6,1.66667350912,,,2017_Jun_22_1445,60.0015780823,FEMA4ImagesEEG,001,100655,
AMSA21.JPG,AMNE22.JPG,AMNE21.JPG,AMSA23.JPG,AMSA22.JPG,AMNE23.JPG,,,,,,,,,,,,,,,,,,,,,0,5,5,1,,,AMNE06.jpg,AMNE12.jpg,AMSA12.jpg,AMSA20.jpg,AMSA12.jpg,MS,2,num_2,32,num_6,1.98306268222,,,2017_Jun_22_1445,60.0015780823,FEMA4ImagesEEG,001,100655,
AFSA21.JPG,AFNE23.JPG,AFNE21.JPG,AFSA25.JPG,AFNE25.JPG,AFSA23.JPG,,,,,,,,,,,,,,,,,,,,,0,6,6,4,,,AMSA13.jpg,AMNE06.jpg,AMSA15.jpg,AMNE08.jpg,AMNE08.jpg,MN,1,num_4,16,num_4,0.833476917944,,,2017_Jun_22_1445,60.0015780823,FEMA4ImagesEEG,001,100655,
AFSA21.JPG,AFNE22.JPG,AFNE21.JPG,AFSA23.JPG,AFSA22.JPG,AFNE23.JPG,,,,,,,,,,,,,,,,,,,,,0,7,7,0,,,AMSA20.jpg,AMNE20.jpg,AMSA06.jpg,AMNE11.jpg,AMSA20.jpg,MS,2,num_8,32,num_2,1.80005420506,,,2017_Jun_22_1445,60.0015780823,FEMA4ImagesEEG,001,100655,
AFSA25.JPG,AFNE24.JPG,AFSA24.JPG,AFNE21.JPG,AFSA21.JPG,AFNE25.JPG,,,,,,,,,,,,,,,,,,,,,0,8,8,2,,,AMNE18.jpg,AMSA07.jpg,AMSA14.jpg,AMNE02.jpg,AMNE18.jpg,MN,1,num_8,16,num_8,1.016874132,,,2017_Jun_22_1445,60.0015780823,FEMA4ImagesEEG,001,100655,
AMNE23.JPG,AMNE24.JPG,AMNE22.JPG,AMSA24.JPG,AMSA22.JPG,AMSA23.JPG,,,,,,,,,,,,,,,,,,,,,0,9,9,9,,,AMSA12.jpg,AMSA06.jpg,AMNE16.jpg,AMNE12.jpg,AMSA12.jpg,MS,2,num_8,32,num_6,2.26651987465,,,2017_Jun_22_1445,60.0015780823,FEMA4ImagesEEG,001,100655,
,,,,,,,,,,,,,,,,,,,,,,,,,,,,,,,,,,,,,,,,,,,space,35.3637733779,2017_Jun_22_1445,60.0015780823,FEMA4ImagesEEG,001,100655,
AFNE01.JPG,AFNE01.JPG,AFNE01.JPG,AFNE01.JPG,AFNE01.JPG,AFNE01.JPG,0,0,0,5,,,,,,,,,,,,,,,,,,,,,,,AFSA13.jpg,AFNE20.jpg,AFNE02.jpg,AFSA06.jpg,AFSA13.jpg,FS,4,num_8,32,num_6,0.700118994544,,,2017_Jun_22_1445,60.0015780823,FEMA4ImagesEEG,001,100655,
AFNE01.JPG,AFNE01.JPG,AFNE01.JPG,AFNE01.JPG,AFNE01.JPG,AFNE01.JPG,0,1,1,4,,,,,,,,,,,,,,,,,,,,,,,AFSA12.jpg,AFNE13.jpg,AFNE16.jpg,AFSA18.jpg,AFNE13.jpg,FN,3,num_6,16,num_6,0.74999534927,,,2017_Jun_22_1445,60.0015780823,FEMA4ImagesEEG,001,100655,
AFNE01.JPG,AFNE01.JPG,AFNE01.JPG,AFNE01.JPG,AFNE01.JPG,AFNE01.JPG,0,2,2,7,,,,,,,,,,,,,,,,,,,,,,,AFNE02.jpg,AFSA19.jpg,AFNE10.jpg,AFSA05.jpg,AFNE02.jpg,FN,3,num_8,32,num_6,1.03343201434,,,2017_Jun_22_1445,60.0015780823,FEMA4ImagesEEG,001,100655,
AFNE01.JPG,AFNE01.JPG,AFNE01.JPG,AFNE01.JPG,AFNE01.JPG,AFNE01.JPG,0,3,3,8,,,,,,,,,,,,,,,,,,,,,,,AFSA01.jpg,AFNE18.jpg,AFNE16.jpg,AFSA20.jpg,AFNE16.jpg,FN,3,num_2,16,num_2,2.11670125313,,,2017_Jun_22_1445,60.0015780823,FEMA4ImagesEEG,001,100655,
AFNE01.JPG,AFNE01.JPG,AFNE01.JPG,AFNE01.JPG,AFNE01.JPG,AFNE01.JPG,0,4,4,9,,,,,,,,,,,,,,,,,,,,,,,AFSA07.jpg,AFNE01.jpg,AFNE07.jpg,AFSA08.jpg,AFSA07.jpg,FS,4,num_8,16,num_8,1.04995237011,,,2017_Jun_22_1445,60.0015780823,FEMA4ImagesEEG,001,100655,
AFNE01.JPG,AFNE01.JPG,AFNE01.JPG,AFNE01.JPG,AFNE01.JPG,AFNE01.JPG,0,5,5,3,,,,,,,,,,,,,,,,,,,,,,,AFSA11.jpg,AFNE08.jpg,AFSA05.jpg,AFNE16.jpg,AFSA11.jpg,FS,4,num_8,16,num_8,1.36669050834,,,2017_Jun_22_1445,60.0015780823,FEMA4ImagesEEG,001,100655,
AFNE01.JPG,AFNE01.JPG,AFNE01.JPG,AFNE01.JPG,AFNE01.JPG,AFNE01.JPG,0,6,6,2,,,,,,,,,,,,,,,,,,,,,,,AFSA15.jpg,AFNE04.jpg,AFNE15.jpg,AFSA11.jpg,AFNE15.jpg,FN,3,num_2,32,num_8,0.949857431064,,,2017_Jun_22_1445,60.0015780823,FEMA4ImagesEEG,001,100655,
AFNE01.JPG,AFNE01.JPG,AFNE01.JPG,AFNE01.JPG,AFNE01.JPG,AFNE01.JPG,0,7,7,0,,,,,,,,,,,,,,,,,,,,,,,AFSA17.jpg,AFNE20.jpg,AFNE05.jpg,AFSA01.jpg,AFSA17.jpg,FS,4,num_8,32,num_4,0.950115306034,,,2017_Jun_22_1445,60.0015780823,FEMA4ImagesEEG,001,100655,
AFNE01.JPG,AFNE01.JPG,AFNE01.JPG,AFNE01.JPG,AFNE01.JPG,AFNE01.JPG,0,8,8,6,,,,,,,,,,,,,,,,,,,,,,,AFSA20.jpg,AFNE20.jpg,AFNE19.jpg,AFSA07.jpg,AFSA20.jpg,FS,4,num_8,32,num_6,0.850132625994,,,2017_Jun_22_1445,60.0015780823,FEMA4ImagesEEG,001,100655,
AFNE01.JPG,AFNE01.JPG,AFNE01.JPG,AFNE01.JPG,AFNE01.JPG,AFNE01.JPG,0,9,9,1,,,,,,,,,,,,,,,,,,,,,,,AFSA13.jpg,AFSA14.jpg,AFNE11.jpg,AFNE08.jpg,AFSA13.jpg,FS,4,num_8,32,num_6,0.783420628073,,,2017_Jun_22_1445,60.0015780823,FEMA4ImagesEEG,001,100655,
AFNE01.JPG,AFNE01.JPG,AFNE01.JPG,AFNE01.JPG,AFNE01.JPG,AFNE01.JPG,1,0,10,5,,,,,,,,,,,,,,,,,,,,,,,AFSA11.jpg,AFSA17.jpg,AFNE02.jpg,AFNE12.jpg,AFSA11.jpg,FS,4,num_8,16,num_8,0.933533368187,,,2017_Jun_22_1445,60.0015780823,FEMA4ImagesEEG,001,100655,
AFNE01.JPG,AFNE01.JPG,AFNE01.JPG,AFNE01.JPG,AFNE01.JPG,AFNE01.JPG,1,1,11,7,,,,,,,,,,,,,,,,,,,,,,,AFSA15.jpg,AFNE03.jpg,AFSA11.jpg,AFNE02.jpg,AFNE03.jpg,FN,3,num_6,16,num_6,1.70034062589,,,2017_Jun_22_1445,60.0015780823,FEMA4ImagesEEG,001,100655,
AFNE01.JPG,AFNE01.JPG,AFNE01.JPG,AFNE01.JPG,AFNE01.JPG,AFNE01.JPG,1,2,12,6,,,,,,,,,,,,,,,,,,,,,,,AFSA15.jpg,AFSA10.jpg,AFNE13.jpg,AFNE01.jpg,AFSA10.jpg,FS,4,num_6,32,num_8,0.883462324275,,,2017_Jun_22_1445,60.0015780823,FEMA4ImagesEEG,001,100655,
AFNE01.JPG,AFNE01.JPG,AFNE01.JPG,AFNE01.JPG,AFNE01.JPG,AFNE01.JPG,1,3,13,8,,,,,,,,,,,,,,,,,,,,,,,AFNE01.jpg,AFSA16.jpg,AFSA20.jpg,AFNE13.jpg,AFNE13.jpg,FN,3,num_4,16,num_4,0.766802125865,,,2017_Jun_22_1445,60.0015780823,FEMA4ImagesEEG,001,100655,
AFNE01.JPG,AFNE01.JPG,AFNE01.JPG,AFNE01.JPG,AFNE01.JPG,AFNE01.JPG,1,4,14,3,,,,,,,,,,,,,,,,,,,,,,,AFNE13.jpg,AFSA02.jpg,AFNE08.jpg,AFSA14.jpg,AFSA02.jpg,FS,4,num_6,16,num_6,0.750108249753,,,2017_Jun_22_1445,60.0015780823,FEMA4ImagesEEG,001,100655,
AFNE01.JPG,AFNE01.JPG,AFNE01.JPG,AFNE01.JPG,AFNE01.JPG,AFNE01.JPG,1,5,15,2,,,,,,,,,,,,,,,,,,,,,,,AFSA16.jpg,AFSA03.jpg,AFNE10.jpg,AFNE14.jpg,AFNE10.jpg,FN,3,num_2,16,num_2,2.36667479208,,,2017_Jun_22_1445,60.0015780823,FEMA4ImagesEEG,001,100655,
AFNE01.JPG,AFNE01.JPG,AFNE01.JPG,AFNE01.JPG,AFNE01.JPG,AFNE01.JPG,1,6,16,0,,,,,,,,,,,,,,,,,,,,,,,AFSA13.jpg,AFNE18.jpg,AFSA18.jpg,AFNE11.jpg,AFNE18.jpg,FN,3,num_6,32,num_4,2.43342271288,,,2017_Jun_22_1445,60.0015780823,FEMA4ImagesEEG,001,100655,
AFNE01.JPG,AFNE01.JPG,AFNE01.JPG,AFNE01.JPG,AFNE01.JPG,AFNE01.JPG,1,7,17,4,,,,,,,,,,,,,,,,,,,,,,,AFSA16.jpg,AFNE15.jpg,AFNE16.jpg,AFSA20.jpg,AFNE15.jpg,FN,3,num_6,16,num_6,0.816757703373,,,2017_Jun_22_1445,60.0015780823,FEMA4ImagesEEG,001,100655,
AFNE01.JPG,AFNE01.JPG,AFNE01.JPG,AFNE01.JPG,AFNE01.JPG,AFNE01.JPG,1,8,18,9,,,,,,,,,,,,,,,,,,,,,,,AFSA09.jpg,AFSA20.jpg,AFNE19.jpg,AFNE01.jpg,AFSA20.jpg,FS,4,num_6,16,num_6,0.683508510836,,,2017_Jun_22_1445,60.0015780823,FEMA4ImagesEEG,001,100655,
AFNE01.JPG,AFNE01.JPG,AFNE01.JPG,AFNE01.JPG,AFNE01.JPG,AFNE01.JPG,1,9,19,1,,,,,,,,,,,,,,,,,,,,,,,AFSA02.jpg,AFNE08.jpg,AFSA11.jpg,AFNE14.jpg,AFNE14.jpg,FN,3,num_4,16,num_4,0.283499530116,,,2017_Jun_22_1445,60.0015780823,FEMA4ImagesEEG,001,100655,
AFNE01.JPG,AFNE01.JPG,AFNE01.JPG,AFNE01.JPG,AFNE01.JPG,AFNE01.JPG,2,0,20,9,,,,,,,,,,,,,,,,,,,,,,,AFNE17.jpg,AFNE10.jpg,AFSA17.jpg,AFSA01.jpg,AFSA17.jpg,FS,4,num_2,32,num_8,1.75003287585,,,2017_Jun_22_1445,60.0015780823,FEMA4ImagesEEG,001,100655,
AFNE01.JPG,AFNE01.JPG,AFNE01.JPG,AFNE01.JPG,AFNE01.JPG,AFNE01.JPG,2,1,21,6,,,,,,,,,,,,,,,,,,,,,,,AFNE02.jpg,AFNE13.jpg,AFSA11.jpg,AFSA09.jpg,AFSA11.jpg,FS,4,num_2,32,num_6,0.650108570493,,,2017_Jun_22_1445,60.0015780823,FEMA4ImagesEEG,001,100655,
AFNE01.JPG,AFNE01.JPG,AFNE01.JPG,AFNE01.JPG,AFNE01.JPG,AFNE01.JPG,2,2,22,8,,,,,,,,,,,,,,,,,,,,,,,AFNE05.jpg,AFSA19.jpg,AFNE17.jpg,AFSA06.jpg,AFNE05.jpg,FN,3,num_8,32,num_4,0.933426241023,,,2017_Jun_22_1445,60.0015780823,FEMA4ImagesEEG,001,100655,
AFNE01.JPG,AFNE01.JPG,AFNE01.JPG,AFNE01.JPG,AFNE01.JPG,AFNE01.JPG,2,3,23,4,,,,,,,,,,,,,,,,,,,,,,,AFNE01.jpg,AFSA04.jpg,AFNE03.jpg,AFSA16.jpg,AFNE03.jpg,FN,3,num_2,32,num_6,0.683488624956,,,2017_Jun_22_1445,60.0015780823,FEMA4ImagesEEG,001,100655,
AFNE01.JPG,AFNE01.JPG,AFNE01.JPG,AFNE01.JPG,AFNE01.JPG,AFNE01.JPG,2,4,24,3,,,,,,,,,,,,,,,,,,,,,,,AFNE20.jpg,AFSA10.jpg,AFSA16.jpg,AFNE15.jpg,AFNE15.jpg,FN,3,num_4,32,num_8,0.900131182663,,,2017_Jun_22_1445,60.0015780823,FEMA4ImagesEEG,001,100655,
AFNE01.JPG,AFNE01.JPG,AFNE01.JPG,AFNE01.JPG,AFNE01.JPG,AFNE01.JPG,2,5,25,5,,,,,,,,,,,,,,,,,,,,,,,AFSA09.jpg,AFNE11.jpg,AFNE10.jpg,AFSA15.jpg,AFSA09.jpg,FS,4,num_8,32,num_2,1.79998460448,,,2017_Jun_22_1445,60.0015780823,FEMA4ImagesEEG,001,100655,
AFNE01.JPG,AFNE01.JPG,AFNE01.JPG,AFNE01.JPG,AFNE01.JPG,AFNE01.JPG,2,6,26,0,,,,,,,,,,,,,,,,,,,,,,,AFSA14.jpg,AFNE05.jpg,AFNE18.jpg,AFSA15.jpg,AFSA15.jpg,FS,4,num_4,16,num_4,0.866737977864,,,2017_Jun_22_1445,60.0015780823,FEMA4ImagesEEG,001,100655,
AFNE01.JPG,AFNE01.JPG,AFNE01.JPG,AFNE01.JPG,AFNE01.JPG,AFNE01.JPG,2,7,27,2,,,,,,,,,,,,,,,,,,,,,,,AFNE06.jpg,AFSA01.jpg,AFNE07.jpg,AFSA05.jpg,AFSA01.jpg,FS,4,num_6,16,num_6,1.31671664865,,,2017_Jun_22_1445,60.0015780823,FEMA4ImagesEEG,001,100655,
AFNE01.JPG,AFNE01.JPG,AFNE01.JPG,AFNE01.JPG,AFNE01.JPG,AFNE01.JPG,2,8,28,1,,,,,,,,,,,,,,,,,,,,,,,AFSA08.jpg,AFSA16.jpg,AFNE01.jpg,AFNE06.jpg,AFSA16.jpg,FS,4,num_6,16,num_6,0.766778711844,,,2017_Jun_22_1445,60.0015780823,FEMA4ImagesEEG,001,100655,
AFNE01.JPG,AFNE01.JPG,AFNE01.JPG,AFNE01.JPG,AFNE01.JPG,AFNE01.JPG,2,9,29,7,,,,,,,,,,,,,,,,,,,,,,,AFSA20.jpg,AFNE15.jpg,AFSA06.jpg,AFNE01.jpg,AFNE15.jpg,FN,3,num_6,16,num_6,0.950134871175,,,2017_Jun_22_1445,60.0015780823,FEMA4ImagesEEG,001,100655,
AFNE01.JPG,AFNE01.JPG,AFNE01.JPG,AFNE01.JPG,AFNE01.JPG,AFNE01.JPG,3,0,30,7,,,,,,,,,,,,,,,,,,,,,,,AFSA03.jpg,AFNE05.jpg,AFNE06.jpg,AFSA14.jpg,AFNE06.jpg,FN,3,num_2,32,num_4,2.46636944759,,,2017_Jun_22_1445,60.0015780823,FEMA4ImagesEEG,001,100655,
AFNE01.JPG,AFNE01.JPG,AFNE01.JPG,AFNE01.JPG,AFNE01.JPG,AFNE01.JPG,3,1,31,2,,,,,,,,,,,,,,,,,,,,,,,AFSA19.jpg,AFNE04.jpg,AFNE05.jpg,AFSA04.jpg,AFNE04.jpg,FN,3,num_6,16,num_6,1.10005035618,,,2017_Jun_22_1445,60.0015780823,FEMA4ImagesEEG,001,100655,
AFNE01.JPG,AFNE01.JPG,AFNE01.JPG,AFNE01.JPG,AFNE01.JPG,AFNE01.JPG,3,2,32,9,,,,,,,,,,,,,,,,,,,,,,,AFNE16.jpg,AFSA08.jpg,AFSA02.jpg,AFNE07.jpg,AFNE16.jpg,FN,3,num_8,32,num_2,2.3836573342,,,2017_Jun_22_1445,60.0015780823,FEMA4ImagesEEG,001,100655,
AFNE01.JPG,AFNE01.JPG,AFNE01.JPG,AFNE01.JPG,AFNE01.JPG,AFNE01.JPG,3,3,33,0,,,,,,,,,,,,,,,,,,,,,,,AFNE08.jpg,AFSA16.jpg,AFSA11.jpg,AFNE18.jpg,AFNE08.jpg,FN,3,num_8,16,num_8,1.11672851603,,,2017_Jun_22_1445,60.0015780823,FEMA4ImagesEEG,001,100655,
AFNE01.JPG,AFNE01.JPG,AFNE01.JPG,AFNE01.JPG,AFNE01.JPG,AFNE01.JPG,3,4,34,4,,,,,,,,,,,,,,,,,,,,,,,AFSA01.jpg,AFNE15.jpg,AFSA05.jpg,AFNE12.jpg,AFNE12.jpg,FN,3,num_4,16,num_4,0.850175925896,,,2017_Jun_22_1445,60.0015780823,FEMA4ImagesEEG,001,100655,
AFNE01.JPG,AFNE01.JPG,AFNE01.JPG,AFNE01.JPG,AFNE01.JPG,AFNE01.JPG,3,5,35,8,,,,,,,,,,,,,,,,,,,,,,,AFSA05.jpg,AFNE18.jpg,AFSA15.jpg,AFNE16.jpg,AFNE16.jpg,FN,3,num_4,32,num_2,1.38342159029,,,2017_Jun_22_1445,60.0015780823,FEMA4ImagesEEG,001,100655,
AFNE01.JPG,AFNE01.JPG,AFNE01.JPG,AFNE01.JPG,AFNE01.JPG,AFNE01.JPG,3,6,36,5,,,,,,,,,,,,,,,,,,,,,,,AFNE09.jpg,AFNE10.jpg,AFSA04.jpg,AFSA17.jpg,AFNE10.jpg,FN,3,num_6,16,num_6,0.66692625225,,,2017_Jun_22_1445,60.0015780823,FEMA4ImagesEEG,001,100655,
AFNE01.JPG,AFNE01.JPG,AFNE01.JPG,AFNE01.JPG,AFNE01.JPG,AFNE01.JPG,3,7,37,3,,,,,,,,,,,,,,,,,,,,,,,AFSA09.jpg,AFNE15.jpg,AFNE11.jpg,AFSA04.jpg,AFNE11.jpg,FN,3,num_2,32,num_4,0.716799078835,,,2017_Jun_22_1445,60.0015780823,FEMA4ImagesEEG,001,100655,
AFNE01.JPG,AFNE01.JPG,AFNE01.JPG,AFNE01.JPG,AFNE01.JPG,AFNE01.JPG,3,8,38,6,,,,,,,,,,,,,,,,,,,,,,,AFNE01.jpg,AFSA02.jpg,AFNE05.jpg,AFSA10.jpg,AFSA10.jpg,FS,4,num_4,16,num_4,0.650156681497,,,2017_Jun_22_1445,60.0015780823,FEMA4ImagesEEG,001,100655,
AFNE01.JPG,AFNE01.JPG,AFNE01.JPG,AFNE01.JPG,AFNE01.JPG,AFNE01.JPG,3,9,39,1,,,,,,,,,,,,,,,,,,,,,,,AFSA15.jpg,AFNE16.jpg,AFSA09.jpg,AFNE04.jpg,AFNE04.jpg,FN,3,num_4,16,num_4,0.566786730344,,,2017_Jun_22_1445,60.0015780823,FEMA4ImagesEEG,001,100655,
AFNE01.JPG,AFNE01.JPG,AFNE01.JPG,AFNE01.JPG,AFNE01.JPG,AFNE01.JPG,4,0,40,8,,,,,,,,,,,,,,,,,,,,,,,AFSA17.jpg,AFSA18.jpg,AFNE08.jpg,AFNE18.jpg,AFSA18.jpg,FS,4,num_6,16,num_6,0.650213773219,,,2017_Jun_22_1445,60.0015780823,FEMA4ImagesEEG,001,100655,
AFNE01.JPG,AFNE01.JPG,AFNE01.JPG,AFNE01.JPG,AFNE01.JPG,AFNE01.JPG,4,1,41,6,,,,,,,,,,,,,,,,,,,,,,,AFNE06.jpg,AFNE16.jpg,AFSA16.jpg,AFSA03.jpg,AFNE16.jpg,FN,3,num_6,16,num_6,0.733496162346,,,2017_Jun_22_1445,60.0015780823,FEMA4ImagesEEG,001,100655,
AFNE01.JPG,AFNE01.JPG,AFNE01.JPG,AFNE01.JPG,AFNE01.JPG,AFNE01.JPG,4,2,42,0,,,,,,,,,,,,,,,,,,,,,,,AFSA14.jpg,AFSA01.jpg,AFNE18.jpg,AFNE12.jpg,AFSA01.jpg,FS,4,num_6,32,num_8,2.11665667027,,,2017_Jun_22_1445,60.0015780823,FEMA4ImagesEEG,001,100655,
AFNE01.JPG,AFNE01.JPG,AFNE01.JPG,AFNE01.JPG,AFNE01.JPG,AFNE01.JPG,4,3,43,2,,,,,,,,,,,,,,,,,,,,,,,AFNE13.jpg,AFNE18.jpg,AFSA15.jpg,AFSA04.jpg,AFSA04.jpg,FS,4,num_4,16,num_4,0.550199019177,,,2017_Jun_22_1445,60.0015780823,FEMA4ImagesEEG,001,100655,
AFNE01.JPG,AFNE01.JPG,AFNE01.JPG,AFNE01.JPG,AFNE01.JPG,AFNE01.JPG,4,4,44,1,,,,,,,,,,,,,,,,,,,,,,,AFSA12.jpg,AFNE19.jpg,AFNE15.jpg,AFSA18.jpg,AFSA12.jpg,FS,4,num_8,16,num_8,0.916664368031,,,2017_Jun_22_1445,60.0015780823,FEMA4ImagesEEG,001,100655,
AFNE01.JPG,AFNE01.JPG,AFNE01.JPG,AFNE01.JPG,AFNE01.JPG,AFNE01.JPG,4,5,45,7,,,,,,,,,,,,,,,,,,,,,,,AFNE19.jpg,AFNE06.jpg,AFSA07.jpg,AFSA19.jpg,AFSA19.jpg,FS,4,num_4,32,num_8,3.06656734418,,,2017_Jun_22_1445,60.0015780823,FEMA4ImagesEEG,001,100655,
AFNE01.JPG,AFNE01.JPG,AFNE01.JPG,AFNE01.JPG,AFNE01.JPG,AFNE01.JPG,4,6,46,9,,,,,,,,,,,,,,,,,,,,,,,AFNE16.jpg,AFNE04.jpg,AFSA15.jpg,AFSA10.jpg,AFSA10.jpg,FS,4,num_4,32,num_2,2.3333290568,,,2017_Jun_22_1445,60.0015780823,FEMA4ImagesEEG,001,100655,
AFNE01.JPG,AFNE01.JPG,AFNE01.JPG,AFNE01.JPG,AFNE01.JPG,AFNE01.JPG,4,7,47,5,,,,,,,,,,,,,,,,,,,,,,,AFSA15.jpg,AFNE03.jpg,AFNE07.jpg,AFSA10.jpg,AFNE07.jpg,FN,3,num_2,32,num_4,1.41680004105,,,2017_Jun_22_1445,60.0015780823,FEMA4ImagesEEG,001,100655,
AFNE01.JPG,AFNE01.JPG,AFNE01.JPG,AFNE01.JPG,AFNE01.JPG,AFNE01.JPG,4,8,48,3,,,,,,,,,,,,,,,,,,,,,,,AFNE14.jpg,AFSA04.jpg,AFSA09.jpg,AFNE07.jpg,AFNE07.jpg,FN,3,num_4,16,num_4,0.716793305513,,,2017_Jun_22_1445,60.0015780823,FEMA4ImagesEEG,001,100655,
AFNE01.JPG,AFNE01.JPG,AFNE01.JPG,AFNE01.JPG,AFNE01.JPG,AFNE01.JPG,4,9,49,4,,,,,,,,,,,,,,,,,,,,,,,AFNE16.jpg,AFSA10.jpg,AFNE17.jpg,AFSA20.jpg,AFSA20.jpg,FS,4,num_4,32,num_8,2.29999871704,,,2017_Jun_22_1445,60.0015780823,FEMA4ImagesEEG,001,100655,
AFNE01.JPG,AFNE01.JPG,AFNE01.JPG,AFNE01.JPG,AFNE01.JPG,AFNE01.JPG,5,0,50,1,,,,,,,,,,,,,,,,,,,,,,,AFSA10.jpg,AFNE08.jpg,AFSA11.jpg,AFNE18.jpg,AFSA10.jpg,FS,4,num_8,16,num_8,0.933439391363,,,2017_Jun_22_1445,60.0015780823,FEMA4ImagesEEG,001,100655,
AFNE01.JPG,AFNE01.JPG,AFNE01.JPG,AFNE01.JPG,AFNE01.JPG,AFNE01.JPG,5,1,51,7,,,,,,,,,,,,,,,,,,,,,,,AFNE03.jpg,AFSA17.jpg,AFNE02.jpg,AFSA09.jpg,AFSA17.jpg,FS,4,num_6,16,num_6,0.533452541706,,,2017_Jun_22_1445,60.0015780823,FEMA4ImagesEEG,001,100655,
AFNE01.JPG,AFNE01.JPG,AFNE01.JPG,AFNE01.JPG,AFNE01.JPG,AFNE01.JPG,5,2,52,4,,,,,,,,,,,,,,,,,,,,,,,AFSA15.jpg,AFNE13.jpg,AFNE19.jpg,AFSA02.jpg,AFSA02.jpg,FS,4,num_4,32,num_6,0.333491671987,,,2017_Jun_22_1445,60.0015780823,FEMA4ImagesEEG,001,100655,
AFNE01.JPG,AFNE01.JPG,AFNE01.JPG,AFNE01.JPG,AFNE01.JPG,AFNE01.JPG,5,3,53,3,,,,,,,,,,,,,,,,,,,,,,,AFNE04.jpg,AFSA09.jpg,AFNE19.jpg,AFSA20.jpg,AFSA20.jpg,FS,4,num_4,32,num_2,1.86657407972,,,2017_Jun_22_1445,60.0015780823,FEMA4ImagesEEG,001,100655,
AFNE01.JPG,AFNE01.JPG,AFNE01.JPG,AFNE01.JPG,AFNE01.JPG,AFNE01.JPG,5,4,54,0,,,,,,,,,,,,,,,,,,,,,,,AFSA16.jpg,AFNE09.jpg,AFSA15.jpg,AFNE07.jpg,AFSA15.jpg,FS,4,num_2,32,num_8,0.850139361535,,,2017_Jun_22_1445,60.0015780823,FEMA4ImagesEEG,001,100655,
AFNE01.JPG,AFNE01.JPG,AFNE01.JPG,AFNE01.JPG,AFNE01.JPG,AFNE01.JPG,5,5,55,9,,,,,,,,,,,,,,,,,,,,,,,AFNE12.jpg,AFSA20.jpg,AFSA05.jpg,AFNE20.jpg,AFSA05.jpg,FS,4,num_2,32,num_4,0.600134710805,,,2017_Jun_22_1445,60.0015780823,FEMA4ImagesEEG,001,100655,
AFNE01.JPG,AFNE01.JPG,AFNE01.JPG,AFNE01.JPG,AFNE01.JPG,AFNE01.JPG,5,6,56,5,,,,,,,,,,,,,,,,,,,,,,,AFSA09.jpg,AFSA08.jpg,AFNE12.jpg,AFNE02.jpg,AFNE02.jpg,FN,3,num_4,32,num_6,2.68335615933,,,2017_Jun_22_1445,60.0015780823,FEMA4ImagesEEG,001,100655,
AFNE01.JPG,AFNE01.JPG,AFNE01.JPG,AFNE01.JPG,AFNE01.JPG,AFNE01.JPG,5,7,57,6,,,,,,,,,,,,,,,,,,,,,,,AFNE09.jpg,AFSA19.jpg,AFSA20.jpg,AFNE19.jpg,AFNE19.jpg,FN,3,num_4,32,num_8,0.216785287013,,,2017_Jun_22_1445,60.0015780823,FEMA4ImagesEEG,001,100655,
AFNE01.JPG,AFNE01.JPG,AFNE01.JPG,AFNE01.JPG,AFNE01.JPG,AFNE01.JPG,5,8,58,2,,,,,,,,,,,,,,,,,,,,,,,AFNE03.jpg,AFNE04.jpg,AFSA08.jpg,AFSA04.jpg,AFNE03.jpg,FN,3,num_8,32,num_4,0.800135993766,,,2017_Jun_22_1445,60.0015780823,FEMA4ImagesEEG,001,100655,
AFNE01.JPG,AFNE01.JPG,AFNE01.JPG,AFNE01.JPG,AFNE01.JPG,AFNE01.JPG,5,9,59,8,,,,,,,,,,,,,,,,,,,,,,,AFSA04.jpg,AFSA09.jpg,AFNE01.jpg,AFNE07.jpg,AFNE01.jpg,FN,3,num_2,32,num_8,0.550140003015,,,2017_Jun_22_1445,60.0015780823,FEMA4ImagesEEG,001,100655,
,,,,,,,,,,,,,,,,,,,,,,,,,,,,,,,,,,,,,,,,,,,space,44.3967685444,2017_Jun_22_1445,60.0015780823,FEMA4ImagesEEG,001,100655,
AFNE01.JPG,AFNE01.JPG,AFNE01.JPG,AFNE01.JPG,AFNE01.JPG,AFNE01.JPG,,,,,0,0,0,6,,,,,,,,,,,,,,,,,,,AMSA03.jpg,AMNE08.jpg,AMSA19.jpg,AMNE04.jpg,AMSA19.jpg,MS,2,num_2,32,num_8,0.800099429403,,,2017_Jun_22_1445,60.0015780823,FEMA4ImagesEEG,001,100655,
AFNE01.JPG,AFNE01.JPG,AFNE01.JPG,AFNE01.JPG,AFNE01.JPG,AFNE01.JPG,,,,,0,1,1,3,,,,,,,,,,,,,,,,,,,AMSA12.jpg,AMNE18.jpg,AMSA05.jpg,AMNE07.jpg,AMNE18.jpg,MN,1,num_6,16,num_6,0.850164058516,,,2017_Jun_22_1445,60.0015780823,FEMA4ImagesEEG,001,100655,
AFNE01.JPG,AFNE01.JPG,AFNE01.JPG,AFNE01.JPG,AFNE01.JPG,AFNE01.JPG,,,,,0,2,2,0,,,,,,,,,,,,,,,,,,,AMNE16.jpg,AMSA02.jpg,AMSA20.jpg,AMNE04.jpg,AMNE04.jpg,MN,1,num_4,32,num_6,0.799990057059,,,2017_Jun_22_1445,60.0015780823,FEMA4ImagesEEG,001,100655,
AFNE01.JPG,AFNE01.JPG,AFNE01.JPG,AFNE01.JPG,AFNE01.JPG,AFNE01.JPG,,,,,0,3,3,7,,,,,,,,,,,,,,,,,,,AMSA01.jpg,AMSA16.jpg,AMNE02.jpg,AMNE05.jpg,AMNE02.jpg,MN,1,num_2,32,num_8,0.600153313726,,,2017_Jun_22_1445,60.0015780823,FEMA4ImagesEEG,001,100655,
AFNE01.JPG,AFNE01.JPG,AFNE01.JPG,AFNE01.JPG,AFNE01.JPG,AFNE01.JPG,,,,,0,4,4,4,,,,,,,,,,,,,,,,,,,AMSA04.jpg,AMSA17.jpg,AMNE01.jpg,AMNE13.jpg,AMSA17.jpg,MS,2,num_6,16,num_6,0.616787211455,,,2017_Jun_22_1445,60.0015780823,FEMA4ImagesEEG,001,100655,
AFNE01.JPG,AFNE01.JPG,AFNE01.JPG,AFNE01.JPG,AFNE01.JPG,AFNE01.JPG,,,,,0,5,5,9,,,,,,,,,,,,,,,,,,,AMSA06.jpg,AMSA04.jpg,AMNE05.jpg,AMNE19.jpg,AMSA06.jpg,MS,2,num_8,32,num_2,3.01660150299,,,2017_Jun_22_1445,60.0015780823,FEMA4ImagesEEG,001,100655,
AFNE01.JPG,AFNE01.JPG,AFNE01.JPG,AFNE01.JPG,AFNE01.JPG,AFNE01.JPG,,,,,0,6,6,5,,,,,,,,,,,,,,,,,,,AMSA17.jpg,AMNE15.jpg,AMSA03.jpg,AMNE02.jpg,AMNE15.jpg,MN,1,num_6,16,num_6,1.55022756504,,,2017_Jun_22_1445,60.0015780823,FEMA4ImagesEEG,001,100655,
AFNE01.JPG,AFNE01.JPG,AFNE01.JPG,AFNE01.JPG,AFNE01.JPG,AFNE01.JPG,,,,,0,7,7,2,,,,,,,,,,,,,,,,,,,AMSA20.jpg,AMSA10.jpg,AMNE04.jpg,AMNE16.jpg,AMSA10.jpg,MS,2,num_6,16,num_6,0.716869962378,,,2017_Jun_22_1445,60.0015780823,FEMA4ImagesEEG,001,100655,
AFNE01.JPG,AFNE01.JPG,AFNE01.JPG,AFNE01.JPG,AFNE01.JPG,AFNE01.JPG,,,,,0,8,8,1,,,,,,,,,,,,,,,,,,,AMSA11.jpg,AMNE10.jpg,AMNE04.jpg,AMSA09.jpg,AMSA09.jpg,MS,2,num_4,32,num_8,1.73343586322,,,2017_Jun_22_1445,60.0015780823,FEMA4ImagesEEG,001,100655,
AFNE01.JPG,AFNE01.JPG,AFNE01.JPG,AFNE01.JPG,AFNE01.JPG,AFNE01.JPG,,,,,0,9,9,8,,,,,,,,,,,,,,,,,,,AMNE16.jpg,AMNE03.jpg,AMSA07.jpg,AMSA15.jpg,AMNE16.jpg,MN,1,num_8,32,num_2,2.66659973892,,,2017_Jun_22_1445,60.0015780823,FEMA4ImagesEEG,001,100655,
AFNE01.JPG,AFNE01.JPG,AFNE01.JPG,AFNE01.JPG,AFNE01.JPG,AFNE01.JPG,,,,,1,0,10,6,,,,,,,,,,,,,,,,,,,AMSA10.jpg,AMSA05.jpg,AMNE16.jpg,AMNE20.jpg,AMNE20.jpg,MN,1,num_4,32,num_8,0.816788494416,,,2017_Jun_22_1445,60.0015780823,FEMA4ImagesEEG,001,100655,
AFNE01.JPG,AFNE01.JPG,AFNE01.JPG,AFNE01.JPG,AFNE01.JPG,AFNE01.JPG,,,,,1,1,11,4,,,,,,,,,,,,,,,,,,,AMSA13.jpg,AMNE18.jpg,AMSA03.jpg,AMNE08.jpg,AMNE18.jpg,MN,1,num_6,32,num_8,0.666745354882,,,2017_Jun_22_1445,60.0015780823,FEMA4ImagesEEG,001,100655,
AFNE01.JPG,AFNE01.JPG,AFNE01.JPG,AFNE01.JPG,AFNE01.JPG,AFNE01.JPG,,,,,1,2,12,0,,,,,,,,,,,,,,,,,,,AMSA02.jpg,AMSA03.jpg,AMNE19.jpg,AMNE08.jpg,AMSA03.jpg,MS,2,num_6,16,num_6,0.616763797434,,,2017_Jun_22_1445,60.0015780823,FEMA4ImagesEEG,001,100655,
AFNE01.JPG,AFNE01.JPG,AFNE01.JPG,AFNE01.JPG,AFNE01.JPG,AFNE01.JPG,,,,,1,3,13,7,,,,,,,,,,,,,,,,,,,AMSA17.jpg,AMSA20.jpg,AMNE07.jpg,AMNE14.jpg,AMSA20.jpg,MS,2,num_6,16,num_6,0.633451258744,,,2017_Jun_22_1445,60.0015780823,FEMA4ImagesEEG,001,100655,
AFNE01.JPG,AFNE01.JPG,AFNE01.JPG,AFNE01.JPG,AFNE01.JPG,AFNE01.JPG,,,,,1,4,14,5,,,,,,,,,,,,,,,,,,,AMSA07.jpg,AMSA01.jpg,AMNE08.jpg,AMNE02.jpg,AMNE08.jpg,MN,1,num_2,16,num_2,2.36663341662,,,2017_Jun_22_1445,60.0015780823,FEMA4ImagesEEG,001,100655,
AFNE01.JPG,AFNE01.JPG,AFNE01.JPG,AFNE01.JPG,AFNE01.JPG,AFNE01.JPG,,,,,1,5,15,8,,,,,,,,,,,,,,,,,,,AMNE09.jpg,AMSA15.jpg,AMSA17.jpg,AMNE03.jpg,AMSA17.jpg,MS,2,num_2,32,num_8,0.766769089643,,,2017_Jun_22_1445,60.0015780823,FEMA4ImagesEEG,001,100655,
AFNE01.JPG,AFNE01.JPG,AFNE01.JPG,AFNE01.JPG,AFNE01.JPG,AFNE01.JPG,,,,,1,6,16,2,,,,,,,,,,,,,,,,,,,AMSA02.jpg,AMNE01.jpg,AMSA01.jpg,AMNE05.jpg,AMNE05.jpg,MN,1,num_4,16,num_4,0.750222433198,,,2017_Jun_22_1445,60.0015780823,FEMA4ImagesEEG,001,100655,
AFNE01.JPG,AFNE01.JPG,AFNE01.JPG,AFNE01.JPG,AFNE01.JPG,AFNE01.JPG,,,,,1,7,17,1,,,,,,,,,,,,,,,,,,,AMSA05.jpg,AMSA18.jpg,AMNE16.jpg,AMNE17.jpg,AMNE17.jpg,MN,1,num_4,32,num_8,1.18343602359,,,2017_Jun_22_1445,60.0015780823,FEMA4ImagesEEG,001,100655,
AFNE01.JPG,AFNE01.JPG,AFNE01.JPG,AFNE01.JPG,AFNE01.JPG,AFNE01.JPG,,,,,1,8,18,9,,,,,,,,,,,,,,,,,,,AMNE01.jpg,AMNE05.jpg,AMSA19.jpg,AMSA09.jpg,AMSA19.jpg,MS,2,num_2,32,num_6,0.700100712364,,,2017_Jun_22_1445,60.0015780823,FEMA4ImagesEEG,001,100655,
AFNE01.JPG,AFNE01.JPG,AFNE01.JPG,AFNE01.JPG,AFNE01.JPG,AFNE01.JPG,,,,,1,9,19,3,,,,,,,,,,,,,,,,,,,AMSA18.jpg,AMSA05.jpg,AMNE14.jpg,AMNE09.jpg,AMNE09.jpg,MN,1,num_4,16,num_4,0.916778551473,,,2017_Jun_22_1445,60.0015780823,FEMA4ImagesEEG,001,100655,
AFNE01.JPG,AFNE01.JPG,AFNE01.JPG,AFNE01.JPG,AFNE01.JPG,AFNE01.JPG,,,,,2,0,20,7,,,,,,,,,,,,,,,,,,,AMSA07.jpg,AMSA13.jpg,AMNE14.jpg,AMNE15.jpg,AMSA13.jpg,MS,2,num_6,16,num_6,0.916733327133,,,2017_Jun_22_1445,60.0015780823,FEMA4ImagesEEG,001,100655,
AFNE01.JPG,AFNE01.JPG,AFNE01.JPG,AFNE01.JPG,AFNE01.JPG,AFNE01.JPG,,,,,2,1,21,3,,,,,,,,,,,,,,,,,,,AMSA03.jpg,AMNE11.jpg,AMSA17.jpg,AMNE06.jpg,AMSA03.jpg,MS,2,num_8,16,num_8,1.16668281058,,,2017_Jun_22_1445,60.0015780823,FEMA4ImagesEEG,001,100655,
AFNE01.JPG,AFNE01.JPG,AFNE01.JPG,AFNE01.JPG,AFNE01.JPG,AFNE01.JPG,,,,,2,2,22,4,,,,,,,,,,,,,,,,,,,AMSA05.jpg,AMNE05.jpg,AMNE01.jpg,AMSA19.jpg,AMSA19.jpg,MS,2,num_4,32,num_8,0.833462484645,,,2017_Jun_22_1445,60.0015780823,FEMA4ImagesEEG,001,100655,
AFNE01.JPG,AFNE01.JPG,AFNE01.JPG,AFNE01.JPG,AFNE01.JPG,AFNE01.JPG,,,,,2,3,23,5,,,,,,,,,,,,,,,,,,,AMSA18.jpg,AMNE20.jpg,AMNE12.jpg,AMSA02.jpg,AMSA02.jpg,MS,2,num_4,32,num_8,0.583502096035,,,2017_Jun_22_1445,60.0015780823,FEMA4ImagesEEG,001,100655,
AFNE01.JPG,AFNE01.JPG,AFNE01.JPG,AFNE01.JPG,AFNE01.JPG,AFNE01.JPG,,,,,2,4,24,9,,,,,,,,,,,,,,,,,,,AMNE18.jpg,AMNE07.jpg,AMSA05.jpg,AMSA08.jpg,AMSA05.jpg,MS,2,num_2,16,num_2,1.41671825235,,,2017_Jun_22_1445,60.0015780823,FEMA4ImagesEEG,001,100655,
AFNE01.JPG,AFNE01.JPG,AFNE01.JPG,AFNE01.JPG,AFNE01.JPG,AFNE01.JPG,,,,,2,5,25,8,,,,,,,,,,,,,,,,,,,AMNE02.jpg,AMSA17.jpg,AMNE10.jpg,AMSA18.jpg,AMNE10.jpg,MN,1,num_2,16,num_2,0.566802767346,,,2017_Jun_22_1445,60.0015780823,FEMA4ImagesEEG,001,100655,
AFNE01.JPG,AFNE01.JPG,AFNE01.JPG,AFNE01.JPG,AFNE01.JPG,AFNE01.JPG,,,,,2,6,26,1,,,,,,,,,,,,,,,,,,,AMNE04.jpg,AMSA09.jpg,AMSA15.jpg,AMNE10.jpg,AMSA15.jpg,MS,2,num_2,32,num_6,0.68359767656,,,2017_Jun_22_1445,60.0015780823,FEMA4ImagesEEG,001,100655,
AFNE01.JPG,AFNE01.JPG,AFNE01.JPG,AFNE01.JPG,AFNE01.JPG,AFNE01.JPG,,,,,2,7,27,6,,,,,,,,,,,,,,,,,,,AMSA06.jpg,AMNE16.jpg,AMSA15.jpg,AMNE08.jpg,AMSA06.jpg,MS,2,num_8,32,num_2,0.316824096555,,,2017_Jun_22_1445,60.0015780823,FEMA4ImagesEEG,001,100655,
AFNE01.JPG,AFNE01.JPG,AFNE01.JPG,AFNE01.JPG,AFNE01.JPG,AFNE01.JPG,,,,,2,8,28,2,,,,,,,,,,,,,,,,,,,AMNE06.jpg,AMNE11.jpg,AMSA06.jpg,AMSA12.jpg,AMNE06.jpg,MN,1,num_8,16,num_8,2.96683419987,,,2017_Jun_22_1445,60.0015780823,FEMA4ImagesEEG,001,100655,
AFNE01.JPG,AFNE01.JPG,AFNE01.JPG,AFNE01.JPG,AFNE01.JPG,AFNE01.JPG,,,,,2,9,29,0,,,,,,,,,,,,,,,,,,,AMSA07.jpg,AMNE14.jpg,AMNE19.jpg,AMSA17.jpg,AMSA17.jpg,MS,2,num_4,32,num_6,1.08340394959,,,2017_Jun_22_1445,60.0015780823,FEMA4ImagesEEG,001,100655,
AFNE01.JPG,AFNE01.JPG,AFNE01.JPG,AFNE01.JPG,AFNE01.JPG,AFNE01.JPG,,,,,3,0,30,7,,,,,,,,,,,,,,,,,,,AMSA14.jpg,AMNE16.jpg,AMSA12.jpg,AMNE17.jpg,AMSA12.jpg,MS,2,num_2,32,num_4,0.766733487502,,,2017_Jun_22_1445,60.0015780823,FEMA4ImagesEEG,001,100655,
AFNE01.JPG,AFNE01.JPG,AFNE01.JPG,AFNE01.JPG,AFNE01.JPG,AFNE01.JPG,,,,,3,1,31,9,,,,,,,,,,,,,,,,,,,AMSA07.jpg,AMNE17.jpg,AMNE09.jpg,AMSA08.jpg,AMSA08.jpg,MS,2,num_4,16,num_4,0.566673829861,,,2017_Jun_22_1445,60.0015780823,FEMA4ImagesEEG,001,100655,
AFNE01.JPG,AFNE01.JPG,AFNE01.JPG,AFNE01.JPG,AFNE01.JPG,AFNE01.JPG,,,,,3,2,32,0,,,,,,,,,,,,,,,,,,,AMSA06.jpg,AMSA15.jpg,AMNE11.jpg,AMNE08.jpg,AMSA15.jpg,MS,2,num_6,32,num_2,1.40006158208,,,2017_Jun_22_1445,60.0015780823,FEMA4ImagesEEG,001,100655,
AFNE01.JPG,AFNE01.JPG,AFNE01.JPG,AFNE01.JPG,AFNE01.JPG,AFNE01.JPG,,,,,3,3,33,1,,,,,,,,,,,,,,,,,,,AMNE18.jpg,AMSA16.jpg,AMNE14.jpg,AMSA19.jpg,AMNE14.jpg,MN,1,num_2,48,None,,,,2017_Jun_22_1445,60.0015780823,FEMA4ImagesEEG,001,100655,
AFNE01.JPG,AFNE01.JPG,AFNE01.JPG,AFNE01.JPG,AFNE01.JPG,AFNE01.JPG,,,,,3,4,34,2,,,,,,,,,,,,,,,,,,,AMSA14.jpg,AMNE19.jpg,AMSA11.jpg,AMNE11.jpg,AMSA11.jpg,MS,2,num_2,32,num_8,0.46693683667,,,2017_Jun_22_1445,60.0015780823,FEMA4ImagesEEG,001,100655,
AFNE01.JPG,AFNE01.JPG,AFNE01.JPG,AFNE01.JPG,AFNE01.JPG,AFNE01.JPG,,,,,3,5,35,3,,,,,,,,,,,,,,,,,,,AMNE01.jpg,AMNE07.jpg,AMSA18.jpg,AMSA06.jpg,AMSA18.jpg,MS,2,num_2,32,num_6,0.733518293408,,,2017_Jun_22_1445,60.0015780823,FEMA4ImagesEEG,001,100655,
AFNE01.JPG,AFNE01.JPG,AFNE01.JPG,AFNE01.JPG,AFNE01.JPG,AFNE01.JPG,,,,,3,6,36,8,,,,,,,,,,,,,,,,,,,AMSA01.jpg,AMSA15.jpg,AMNE10.jpg,AMNE11.jpg,AMNE11.jpg,MN,1,num_4,32,num_2,2.25003832843,,,2017_Jun_22_1445,60.0015780823,FEMA4ImagesEEG,001,100655,
AFNE01.JPG,AFNE01.JPG,AFNE01.JPG,AFNE01.JPG,AFNE01.JPG,AFNE01.JPG,,,,,3,7,37,4,,,,,,,,,,,,,,,,,,,AMNE06.jpg,AMSA05.jpg,AMNE09.jpg,AMSA12.jpg,AMNE06.jpg,MN,1,num_8,32,num_6,0.933520859327,,,2017_Jun_22_1445,60.0015780823,FEMA4ImagesEEG,001,100655,
AFNE01.JPG,AFNE01.JPG,AFNE01.JPG,AFNE01.JPG,AFNE01.JPG,AFNE01.JPG,,,,,3,8,38,6,,,,,,,,,,,,,,,,,,,AMNE13.jpg,AMSA16.jpg,AMSA02.jpg,AMNE10.jpg,AMSA16.jpg,MS,2,num_6,16,num_6,0.500124447124,,,2017_Jun_22_1445,60.0015780823,FEMA4ImagesEEG,001,100655,
AFNE01.JPG,AFNE01.JPG,AFNE01.JPG,AFNE01.JPG,AFNE01.JPG,AFNE01.JPG,,,,,3,9,39,5,,,,,,,,,,,,,,,,,,,AMNE09.jpg,AMSA10.jpg,AMSA11.jpg,AMNE06.jpg,AMSA11.jpg,MS,2,num_2,16,num_2,0.583454626514,,,2017_Jun_22_1445,60.0015780823,FEMA4ImagesEEG,001,100655,
AFNE01.JPG,AFNE01.JPG,AFNE01.JPG,AFNE01.JPG,AFNE01.JPG,AFNE01.JPG,,,,,4,0,40,6,,,,,,,,,,,,,,,,,,,AMNE01.jpg,AMSA19.jpg,AMNE17.jpg,AMSA20.jpg,AMSA19.jpg,MS,2,num_6,32,num_8,0.583448853195,,,2017_Jun_22_1445,60.0015780823,FEMA4ImagesEEG,001,100655,
AFNE01.JPG,AFNE01.JPG,AFNE01.JPG,AFNE01.JPG,AFNE01.JPG,AFNE01.JPG,,,,,4,1,41,8,,,,,,,,,,,,,,,,,,,AMSA18.jpg,AMSA20.jpg,AMNE07.jpg,AMNE03.jpg,AMSA20.jpg,MS,2,num_6,16,num_6,0.533483653486,,,2017_Jun_22_1445,60.0015780823,FEMA4ImagesEEG,001,100655,
AFNE01.JPG,AFNE01.JPG,AFNE01.JPG,AFNE01.JPG,AFNE01.JPG,AFNE01.JPG,,,,,4,2,42,5,,,,,,,,,,,,,,,,,,,AMSA20.jpg,AMNE08.jpg,AMSA13.jpg,AMNE03.jpg,AMNE03.jpg,MN,1,num_4,32,num_6,0.716770532974,,,2017_Jun_22_1445,60.0015780823,FEMA4ImagesEEG,001,100655,
AFNE01.JPG,AFNE01.JPG,AFNE01.JPG,AFNE01.JPG,AFNE01.JPG,AFNE01.JPG,,,,,4,3,43,4,,,,,,,,,,,,,,,,,,,AMSA13.jpg,AMNE08.jpg,AMNE02.jpg,AMSA04.jpg,AMSA04.jpg,MS,2,num_4,32,num_2,1.11670927163,,,2017_Jun_22_1445,60.0015780823,FEMA4ImagesEEG,001,100655,
AFNE01.JPG,AFNE01.JPG,AFNE01.JPG,AFNE01.JPG,AFNE01.JPG,AFNE01.JPG,,,,,4,4,44,0,,,,,,,,,,,,,,,,,,,AMNE11.jpg,AMSA14.jpg,AMNE14.jpg,AMSA01.jpg,AMNE14.jpg,MN,1,num_2,32,num_8,0.716739100453,,,2017_Jun_22_1445,60.0015780823,FEMA4ImagesEEG,001,100655,
AFNE01.JPG,AFNE01.JPG,AFNE01.JPG,AFNE01.JPG,AFNE01.JPG,AFNE01.JPG,,,,,4,5,45,1,,,,,,,,,,,,,,,,,,,AMSA07.jpg,AMNE19.jpg,AMSA14.jpg,AMNE17.jpg,AMSA14.jpg,MS,2,num_2,16,num_2,1.03344356098,,,2017_Jun_22_1445,60.0015780823,FEMA4ImagesEEG,001,100655,
AFNE01.JPG,AFNE01.JPG,AFNE01.JPG,AFNE01.JPG,AFNE01.JPG,AFNE01.JPG,,,,,4,6,46,2,,,,,,,,,,,,,,,,,,,AMNE05.jpg,AMSA06.jpg,AMNE03.jpg,AMSA01.jpg,AMSA01.jpg,MS,2,num_4,32,num_8,0.500144653746,,,2017_Jun_22_1445,60.0015780823,FEMA4ImagesEEG,001,100655,
AFNE01.JPG,AFNE01.JPG,AFNE01.JPG,AFNE01.JPG,AFNE01.JPG,AFNE01.JPG,,,,,4,7,47,7,,,,,,,,,,,,,,,,,,,AMSA18.jpg,AMSA20.jpg,AMNE18.jpg,AMNE05.jpg,AMNE05.jpg,MN,1,num_4,16,num_4,0.466794428105,,,2017_Jun_22_1445,60.0015780823,FEMA4ImagesEEG,001,100655,
AFNE01.JPG,AFNE01.JPG,AFNE01.JPG,AFNE01.JPG,AFNE01.JPG,AFNE01.JPG,,,,,4,8,48,9,,,,,,,,,,,,,,,,,,,AMSA08.jpg,AMNE05.jpg,AMNE08.jpg,AMSA07.jpg,AMSA07.jpg,MS,2,num_4,16,num_4,0.600178331448,,,2017_Jun_22_1445,60.0015780823,FEMA4ImagesEEG,001,100655,
AFNE01.JPG,AFNE01.JPG,AFNE01.JPG,AFNE01.JPG,AFNE01.JPG,AFNE01.JPG,,,,,4,9,49,3,,,,,,,,,,,,,,,,,,,AMNE11.jpg,AMNE13.jpg,AMSA08.jpg,AMSA18.jpg,AMSA18.jpg,MS,2,num_4,16,num_4,0.533471465364,,,2017_Jun_22_1445,60.0015780823,FEMA4ImagesEEG,001,100655,
AFNE01.JPG,AFNE01.JPG,AFNE01.JPG,AFNE01.JPG,AFNE01.JPG,AFNE01.JPG,,,,,5,0,50,0,,,,,,,,,,,,,,,,,,,AMSA14.jpg,AMNE05.jpg,AMSA11.jpg,AMNE04.jpg,AMSA14.jpg,MS,2,num_8,32,num_4,1.26670173424,,,2017_Jun_22_1445,60.0015780823,FEMA4ImagesEEG,001,100655,
AFNE01.JPG,AFNE01.JPG,AFNE01.JPG,AFNE01.JPG,AFNE01.JPG,AFNE01.JPG,,,,,5,1,51,8,,,,,,,,,,,,,,,,,,,AMNE13.jpg,AMSA20.jpg,AMSA09.jpg,AMNE03.jpg,AMSA09.jpg,MS,2,num_2,16,num_2,2.24999567001,,,2017_Jun_22_1445,60.0015780823,FEMA4ImagesEEG,001,100655,
AFNE01.JPG,AFNE01.JPG,AFNE01.JPG,AFNE01.JPG,AFNE01.JPG,AFNE01.JPG,,,,,5,2,52,9,,,,,,,,,,,,,,,,,,,AMSA04.jpg,AMNE15.jpg,AMSA02.jpg,AMNE04.jpg,AMNE15.jpg,MN,1,num_6,16,num_6,0.583430571014,,,2017_Jun_22_1445,60.0015780823,FEMA4ImagesEEG,001,100655,
AFNE01.JPG,AFNE01.JPG,AFNE01.JPG,AFNE01.JPG,AFNE01.JPG,AFNE01.JPG,,,,,5,3,53,7,,,,,,,,,,,,,,,,,,,AMNE10.jpg,AMSA18.jpg,AMNE01.jpg,AMSA13.jpg,AMNE01.jpg,MN,1,num_2,16,num_2,1.51675609967,,,2017_Jun_22_1445,60.0015780823,FEMA4ImagesEEG,001,100655,
AFNE01.JPG,AFNE01.JPG,AFNE01.JPG,AFNE01.JPG,AFNE01.JPG,AFNE01.JPG,,,,,5,4,54,2,,,,,,,,,,,,,,,,,,,AMSA03.jpg,AMNE10.jpg,AMNE02.jpg,AMSA07.jpg,AMSA03.jpg,MS,2,num_8,16,num_8,0.716767646314,,,2017_Jun_22_1445,60.0015780823,FEMA4ImagesEEG,001,100655,
AFNE01.JPG,AFNE01.JPG,AFNE01.JPG,AFNE01.JPG,AFNE01.JPG,AFNE01.JPG,,,,,5,5,55,6,,,,,,,,,,,,,,,,,,,AMNE05.jpg,AMSA14.jpg,AMNE11.jpg,AMSA03.jpg,AMNE11.jpg,MN,1,num_2,16,num_2,1.56666228322,,,2017_Jun_22_1445,60.0015780823,FEMA4ImagesEEG,001,100655,
AFNE01.JPG,AFNE01.JPG,AFNE01.JPG,AFNE01.JPG,AFNE01.JPG,AFNE01.JPG,,,,,5,6,56,4,,,,,,,,,,,,,,,,,,,AMSA05.jpg,AMNE12.jpg,AMNE01.jpg,AMSA10.jpg,AMNE01.jpg,MN,1,num_2,16,num_2,1.23343618396,,,2017_Jun_22_1445,60.0015780823,FEMA4ImagesEEG,001,100655,
AFNE01.JPG,AFNE01.JPG,AFNE01.JPG,AFNE01.JPG,AFNE01.JPG,AFNE01.JPG,,,,,5,7,57,5,,,,,,,,,,,,,,,,,,,AMNE11.jpg,AMNE03.jpg,AMSA11.jpg,AMSA14.jpg,AMSA11.jpg,MS,2,num_2,32,num_8,0.666784164423,,,2017_Jun_22_1445,60.0015780823,FEMA4ImagesEEG,001,100655,
AFNE01.JPG,AFNE01.JPG,AFNE01.JPG,AFNE01.JPG,AFNE01.JPG,AFNE01.JPG,,,,,5,8,58,3,,,,,,,,,,,,,,,,,,,AMSA17.jpg,AMNE17.jpg,AMNE18.jpg,AMSA05.jpg,AMNE18.jpg,MN,1,num_2,16,num_2,1.26674278896,,,2017_Jun_22_1445,60.0015780823,FEMA4ImagesEEG,001,100655,
AFNE01.JPG,AFNE01.JPG,AFNE01.JPG,AFNE01.JPG,AFNE01.JPG,AFNE01.JPG,,,,,5,9,59,1,,,,,,,,,,,,,,,,,,,AMNE19.jpg,AMSA09.jpg,AMNE04.jpg,AMSA11.jpg,AMSA11.jpg,MS,2,num_4,32,num_2,1.1667767874,,,2017_Jun_22_1445,60.0015780823,FEMA4ImagesEEG,001,100655,
,,,,,,,,,,,,,,,,,,,,,,,,,,,,,,,,,,,,,,,,,,,space,49.746542583,2017_Jun_22_1445,60.0015780823,FEMA4ImagesEEG,001,100655,
AFNE01.JPG,AFNE01.JPG,AFNE01.JPG,AFNE01.JPG,AFNE01.JPG,AFNE01.JPG,,,,,,,,,0,0,0,1,,,,,,,,,,,,,,,AFSA01.jpg,AFNE20.jpg,AFNE16.jpg,AFSA05.jpg,AFSA01.jpg,FS,4,num_8,32,num_4,1.38337861113,,,2017_Jun_22_1445,60.0015780823,FEMA4ImagesEEG,001,100655,
AFNE01.JPG,AFNE01.JPG,AFNE01.JPG,AFNE01.JPG,AFNE01.JPG,AFNE01.JPG,,,,,,,,,0,1,1,8,,,,,,,,,,,,,,,AFSA19.jpg,AFSA08.jpg,AFNE15.jpg,AFNE04.jpg,AFNE15.jpg,FN,3,num_2,16,num_2,1.50006863836,,,2017_Jun_22_1445,60.0015780823,FEMA4ImagesEEG,001,100655,
AFNE01.JPG,AFNE01.JPG,AFNE01.JPG,AFNE01.JPG,AFNE01.JPG,AFNE01.JPG,,,,,,,,,0,2,2,9,,,,,,,,,,,,,,,AFSA12.jpg,AFSA20.jpg,AFNE16.jpg,AFNE01.jpg,AFNE16.jpg,FN,3,num_2,32,num_6,1.15008130759,,,2017_Jun_22_1445,60.0015780823,FEMA4ImagesEEG,001,100655,
AFNE01.JPG,AFNE01.JPG,AFNE01.JPG,AFNE01.JPG,AFNE01.JPG,AFNE01.JPG,,,,,,,,,0,3,3,3,,,,,,,,,,,,,,,AFNE20.jpg,AFSA17.jpg,AFSA05.jpg,AFNE19.jpg,AFSA05.jpg,FS,4,num_2,32,num_8,0.933426241023,,,2017_Jun_22_1445,60.0015780823,FEMA4ImagesEEG,001,100655,
AFNE01.JPG,AFNE01.JPG,AFNE01.JPG,AFNE01.JPG,AFNE01.JPG,AFNE01.JPG,,,,,,,,,0,4,4,2,,,,,,,,,,,,,,,AFSA12.jpg,AFNE14.jpg,AFNE06.jpg,AFSA03.jpg,AFNE06.jpg,FN,3,num_2,32,num_6,0.800151068546,,,2017_Jun_22_1445,60.0015780823,FEMA4ImagesEEG,001,100655,
AFNE01.JPG,AFNE01.JPG,AFNE01.JPG,AFNE01.JPG,AFNE01.JPG,AFNE01.JPG,,,,,,,,,0,5,5,4,,,,,,,,,,,,,,,AFNE14.jpg,AFSA15.jpg,AFSA13.jpg,AFNE02.jpg,AFNE14.jpg,FN,3,num_8,16,num_8,0.850119154913,,,2017_Jun_22_1445,60.0015780823,FEMA4ImagesEEG,001,100655,
AFNE01.JPG,AFNE01.JPG,AFNE01.JPG,AFNE01.JPG,AFNE01.JPG,AFNE01.JPG,,,,,,,,,0,6,6,7,,,,,,,,,,,,,,,AFNE10.jpg,AFSA17.jpg,AFSA06.jpg,AFNE13.jpg,AFSA17.jpg,FS,4,num_6,16,num_6,0.933437787664,,,2017_Jun_22_1445,60.0015780823,FEMA4ImagesEEG,001,100655,
AFNE01.JPG,AFNE01.JPG,AFNE01.JPG,AFNE01.JPG,AFNE01.JPG,AFNE01.JPG,,,,,,,,,0,7,7,5,,,,,,,,,,,,,,,AFNE17.jpg,AFSA20.jpg,AFNE03.jpg,AFSA07.jpg,AFNE17.jpg,FN,3,num_8,16,num_8,0.750142568935,,,2017_Jun_22_1445,60.0015780823,FEMA4ImagesEEG,001,100655,
AFNE01.JPG,AFNE01.JPG,AFNE01.JPG,AFNE01.JPG,AFNE01.JPG,AFNE01.JPG,,,,,,,,,0,8,8,0,,,,,,,,,,,,,,,AFSA12.jpg,AFSA17.jpg,AFNE20.jpg,AFNE19.jpg,AFSA17.jpg,FS,4,num_6,32,num_8,1.10009718422,,,2017_Jun_22_1445,60.0015780823,FEMA4ImagesEEG,001,100655,
AFNE01.JPG,AFNE01.JPG,AFNE01.JPG,AFNE01.JPG,AFNE01.JPG,AFNE01.JPG,,,,,,,,,0,9,9,6,,,,,,,,,,,,,,,AFNE04.jpg,AFNE02.jpg,AFSA04.jpg,AFSA13.jpg,AFSA04.jpg,FS,4,num_2,32,num_4,0.883541867799,,,2017_Jun_22_1445,60.0015780823,FEMA4ImagesEEG,001,100655,
AFNE01.JPG,AFNE01.JPG,AFNE01.JPG,AFNE01.JPG,AFNE01.JPG,AFNE01.JPG,,,,,,,,,1,0,10,5,,,,,,,,,,,,,,,AFSA10.jpg,AFNE08.jpg,AFSA13.jpg,AFNE06.jpg,AFNE06.jpg,FN,3,num_4,32,num_6,0.866733808241,,,2017_Jun_22_1445,60.0015780823,FEMA4ImagesEEG,001,100655,
AFNE01.JPG,AFNE01.JPG,AFNE01.JPG,AFNE01.JPG,AFNE01.JPG,AFNE01.JPG,,,,,,,,,1,1,11,8,,,,,,,,,,,,,,,AFSA07.jpg,AFNE05.jpg,AFNE09.jpg,AFSA17.jpg,AFNE05.jpg,FN,3,num_6,32,num_2,2.13338967666,,,2017_Jun_22_1445,60.0015780823,FEMA4ImagesEEG,001,100655,
AFNE01.JPG,AFNE01.JPG,AFNE01.JPG,AFNE01.JPG,AFNE01.JPG,AFNE01.JPG,,,,,,,,,1,2,12,6,,,,,,,,,,,,,,,AFNE05.jpg,AFSA01.jpg,AFNE01.jpg,AFSA13.jpg,AFNE01.jpg,FN,3,num_2,32,num_8,0.800154596685,,,2017_Jun_22_1445,60.0015780823,FEMA4ImagesEEG,001,100655,
AFNE01.JPG,AFNE01.JPG,AFNE01.JPG,AFNE01.JPG,AFNE01.JPG,AFNE01.JPG,,,,,,,,,1,3,13,7,,,,,,,,,,,,,,,AFSA19.jpg,AFNE03.jpg,AFSA05.jpg,AFNE01.jpg,AFSA05.jpg,FS,4,num_2,16,num_2,0.550118834175,,,2017_Jun_22_1445,60.0015780823,FEMA4ImagesEEG,001,100655,
AFNE01.JPG,AFNE01.JPG,AFNE01.JPG,AFNE01.JPG,AFNE01.JPG,AFNE01.JPG,,,,,,,,,1,4,14,4,,,,,,,,,,,,,,,AFNE04.jpg,AFSA12.jpg,AFNE03.jpg,AFSA07.jpg,AFNE03.jpg,FN,3,num_2,32,num_8,0.649976746348,,,2017_Jun_22_1445,60.0015780823,FEMA4ImagesEEG,001,100655,
AFNE01.JPG,AFNE01.JPG,AFNE01.JPG,AFNE01.JPG,AFNE01.JPG,AFNE01.JPG,,,,,,,,,1,5,15,9,,,,,,,,,,,,,,,AFNE02.jpg,AFSA10.jpg,AFSA15.jpg,AFNE15.jpg,AFSA10.jpg,FS,4,num_6,32,num_2,0.950089646833,,,2017_Jun_22_1445,60.0015780823,FEMA4ImagesEEG,001,100655,
AFNE01.JPG,AFNE01.JPG,AFNE01.JPG,AFNE01.JPG,AFNE01.JPG,AFNE01.JPG,,,,,,,,,1,6,16,2,,,,,,,,,,,,,,,AFSA13.jpg,AFNE11.jpg,AFSA01.jpg,AFNE05.jpg,AFNE11.jpg,FN,3,num_6,32,num_4,0.516787532195,,,2017_Jun_22_1445,60.0015780823,FEMA4ImagesEEG,001,100655,
AFNE01.JPG,AFNE01.JPG,AFNE01.JPG,AFNE01.JPG,AFNE01.JPG,AFNE01.JPG,,,,,,,,,1,7,17,3,,,,,,,,,,,,,,,AFSA10.jpg,AFSA01.jpg,AFNE04.jpg,AFNE06.jpg,AFSA10.jpg,FS,4,num_8,32,num_6,0.333471144626,,,2017_Jun_22_1445,60.0015780823,FEMA4ImagesEEG,001,100655,
AFNE01.JPG,AFNE01.JPG,AFNE01.JPG,AFNE01.JPG,AFNE01.JPG,AFNE01.JPG,,,,,,,,,1,8,18,1,,,,,,,,,,,,,,,AFSA09.jpg,AFNE16.jpg,AFSA15.jpg,AFNE20.jpg,AFNE16.jpg,FN,3,num_6,16,num_6,0.550128777115,,,2017_Jun_22_1445,60.0015780823,FEMA4ImagesEEG,001,100655,
AFNE01.JPG,AFNE01.JPG,AFNE01.JPG,AFNE01.JPG,AFNE01.JPG,AFNE01.JPG,,,,,,,,,1,9,19,0,,,,,,,,,,,,,,,AFNE13.jpg,AFSA19.jpg,AFSA10.jpg,AFNE03.jpg,AFNE13.jpg,FN,3,num_8,16,num_8,0.716764759653,,,2017_Jun_22_1445,60.0015780823,FEMA4ImagesEEG,001,100655,
AFNE01.JPG,AFNE01.JPG,AFNE01.JPG,AFNE01.JPG,AFNE01.JPG,AFNE01.JPG,,,,,,,,,2,0,20,5,,,,,,,,,,,,,,,AFNE11.jpg,AFSA16.jpg,AFSA12.jpg,AFNE01.jpg,AFSA16.jpg,FS,4,num_6,32,num_2,1.38357105514,,,2017_Jun_22_1445,60.0015780823,FEMA4ImagesEEG,001,100655,
AFNE01.JPG,AFNE01.JPG,AFNE01.JPG,AFNE01.JPG,AFNE01.JPG,AFNE01.JPG,,,,,,,,,2,1,21,9,,,,,,,,,,,,,,,AFNE04.jpg,AFNE14.jpg,AFSA06.jpg,AFSA12.jpg,AFNE14.jpg,FN,3,num_6,32,num_8,1.80014337079,,,2017_Jun_22_1445,60.0015780823,FEMA4ImagesEEG,001,100655,
AFNE01.JPG,AFNE01.JPG,AFNE01.JPG,AFNE01.JPG,AFNE01.JPG,AFNE01.JPG,,,,,,,,,2,2,22,7,,,,,,,,,,,,,,,AFNE02.jpg,AFNE11.jpg,AFSA04.jpg,AFSA02.jpg,AFSA04.jpg,FS,4,num_2,32,num_4,0.583483493116,,,2017_Jun_22_1445,60.0015780823,FEMA4ImagesEEG,001,100655,
AFNE01.JPG,AFNE01.JPG,AFNE01.JPG,AFNE01.JPG,AFNE01.JPG,AFNE01.JPG,,,,,,,,,2,3,23,6,,,,,,,,,,,,,,,AFNE20.jpg,AFNE03.jpg,AFSA02.jpg,AFSA03.jpg,AFNE03.jpg,FN,3,num_6,16,num_6,1.11673845897,,,2017_Jun_22_1445,60.0015780823,FEMA4ImagesEEG,001,100655,
AFNE01.JPG,AFNE01.JPG,AFNE01.JPG,AFNE01.JPG,AFNE01.JPG,AFNE01.JPG,,,,,,,,,2,4,24,4,,,,,,,,,,,,,,,AFSA05.jpg,AFNE10.jpg,AFNE19.jpg,AFSA10.jpg,AFNE10.jpg,FN,3,num_6,16,num_6,0.500185708466,,,2017_Jun_22_1445,60.0015780823,FEMA4ImagesEEG,001,100655,
AFNE01.JPG,AFNE01.JPG,AFNE01.JPG,AFNE01.JPG,AFNE01.JPG,AFNE01.JPG,,,,,,,,,2,5,25,2,,,,,,,,,,,,,,,AFNE02.jpg,AFNE01.jpg,AFSA07.jpg,AFSA10.jpg,AFNE02.jpg,FN,3,num_8,16,num_8,0.800124126383,,,2017_Jun_22_1445,60.0015780823,FEMA4ImagesEEG,001,100655,
AFNE01.JPG,AFNE01.JPG,AFNE01.JPG,AFNE01.JPG,AFNE01.JPG,AFNE01.JPG,,,,,,,,,2,6,26,8,,,,,,,,,,,,,,,AFSA08.jpg,AFNE12.jpg,AFNE01.jpg,AFSA17.jpg,AFNE12.jpg,FN,3,num_6,16,num_6,0.416826341736,,,2017_Jun_22_1445,60.0015780823,FEMA4ImagesEEG,001,100655,
AFNE01.JPG,AFNE01.JPG,AFNE01.JPG,AFNE01.JPG,AFNE01.JPG,AFNE01.JPG,,,,,,,,,2,7,27,3,,,,,,,,,,,,,,,AFNE06.jpg,AFSA04.jpg,AFNE19.jpg,AFSA17.jpg,AFSA17.jpg,FS,4,num_4,32,num_6,0.350141285975,,,2017_Jun_22_1445,60.0015780823,FEMA4ImagesEEG,001,100655,
AFNE01.JPG,AFNE01.JPG,AFNE01.JPG,AFNE01.JPG,AFNE01.JPG,AFNE01.JPG,,,,,,,,,2,8,28,0,,,,,,,,,,,,,,,AFNE10.jpg,AFSA15.jpg,AFSA13.jpg,AFNE03.jpg,AFNE10.jpg,FN,3,num_8,16,num_8,1.10009975015,,,2017_Jun_22_1445,60.0015780823,FEMA4ImagesEEG,001,100655,
AFNE01.JPG,AFNE01.JPG,AFNE01.JPG,AFNE01.JPG,AFNE01.JPG,AFNE01.JPG,,,,,,,,,2,9,29,1,,,,,,,,,,,,,,,AFNE16.jpg,AFSA10.jpg,AFNE08.jpg,AFSA15.jpg,AFSA15.jpg,FS,4,num_4,16,num_4,0.583466814634,,,2017_Jun_22_1445,60.0015780823,FEMA4ImagesEEG,001,100655,
AFNE01.JPG,AFNE01.JPG,AFNE01.JPG,AFNE01.JPG,AFNE01.JPG,AFNE01.JPG,,,,,,,,,3,0,30,5,,,,,,,,,,,,,,,AFSA03.jpg,AFNE17.jpg,AFSA09.jpg,AFNE04.jpg,AFNE04.jpg,FN,3,num_4,16,num_4,0.566778391105,,,2017_Jun_22_1445,60.0015780823,FEMA4ImagesEEG,001,100655,
AFNE01.JPG,AFNE01.JPG,AFNE01.JPG,AFNE01.JPG,AFNE01.JPG,AFNE01.JPG,,,,,,,,,3,1,31,7,,,,,,,,,,,,,,,AFSA19.jpg,AFNE15.jpg,AFNE16.jpg,AFSA04.jpg,AFSA04.jpg,FS,4,num_4,32,num_6,0.550197415476,,,2017_Jun_22_1445,60.0015780823,FEMA4ImagesEEG,001,100655,
AFNE01.JPG,AFNE01.JPG,AFNE01.JPG,AFNE01.JPG,AFNE01.JPG,AFNE01.JPG,,,,,,,,,3,2,32,1,,,,,,,,,,,,,,,AFSA08.jpg,AFSA19.jpg,AFNE16.jpg,AFNE15.jpg,AFNE15.jpg,FN,3,num_4,16,num_4,0.366808219926,,,2017_Jun_22_1445,60.0015780823,FEMA4ImagesEEG,001,100655,
AFNE01.JPG,AFNE01.JPG,AFNE01.JPG,AFNE01.JPG,AFNE01.JPG,AFNE01.JPG,,,,,,,,,3,3,33,8,,,,,,,,,,,,,,,AFNE09.jpg,AFSA17.jpg,AFSA04.jpg,AFNE06.jpg,AFSA04.jpg,FS,4,num_2,16,num_2,0.500227404667,,,2017_Jun_22_1445,60.0015780823,FEMA4ImagesEEG,001,100655,
AFNE01.JPG,AFNE01.JPG,AFNE01.JPG,AFNE01.JPG,AFNE01.JPG,AFNE01.JPG,,,,,,,,,3,4,34,4,,,,,,,,,,,,,,,AFNE05.jpg,AFSA06.jpg,AFSA18.jpg,AFNE15.jpg,AFNE15.jpg,FN,3,num_4,16,num_4,0.41664961399,,,2017_Jun_22_1445,60.0015780823,FEMA4ImagesEEG,001,100655,
AFNE01.JPG,AFNE01.JPG,AFNE01.JPG,AFNE01.JPG,AFNE01.JPG,AFNE01.JPG,,,,,,,,,3,5,35,6,,,,,,,,,,,,,,,AFNE03.jpg,AFSA09.jpg,AFNE13.jpg,AFSA11.jpg,AFSA09.jpg,FS,4,num_6,32,num_8,0.533458315023,,,2017_Jun_22_1445,60.0015780823,FEMA4ImagesEEG,001,100655,
AFNE01.JPG,AFNE01.JPG,AFNE01.JPG,AFNE01.JPG,AFNE01.JPG,AFNE01.JPG,,,,,,,,,3,6,36,9,,,,,,,,,,,,,,,AFNE10.jpg,AFSA19.jpg,AFNE12.jpg,AFSA20.jpg,AFNE12.jpg,FN,3,num_2,16,num_2,0.633497445306,,,2017_Jun_22_1445,60.0015780823,FEMA4ImagesEEG,001,100655,
AFNE01.JPG,AFNE01.JPG,AFNE01.JPG,AFNE01.JPG,AFNE01.JPG,AFNE01.JPG,,,,,,,,,3,7,37,3,,,,,,,,,,,,,,,AFNE19.jpg,AFSA14.jpg,AFNE11.jpg,AFSA11.jpg,AFNE19.jpg,FN,3,num_8,48,None,,,,2017_Jun_22_1445,60.0015780823,FEMA4ImagesEEG,001,100655,
AFNE01.JPG,AFNE01.JPG,AFNE01.JPG,AFNE01.JPG,AFNE01.JPG,AFNE01.JPG,,,,,,,,,3,8,38,2,,,,,,,,,,,,,,,AFSA14.jpg,AFNE08.jpg,AFSA01.jpg,AFNE02.jpg,AFNE02.jpg,FN,3,num_4,16,num_4,1.38340619477,,,2017_Jun_22_1445,60.0015780823,FEMA4ImagesEEG,001,100655,
AFNE01.JPG,AFNE01.JPG,AFNE01.JPG,AFNE01.JPG,AFNE01.JPG,AFNE01.JPG,,,,,,,,,3,9,39,0,,,,,,,,,,,,,,,AFSA14.jpg,AFNE18.jpg,AFSA09.jpg,AFNE20.jpg,AFNE18.jpg,FN,3,num_6,32,num_8,0.566759788184,,,2017_Jun_22_1445,60.0015780823,FEMA4ImagesEEG,001,100655,
AFNE01.JPG,AFNE01.JPG,AFNE01.JPG,AFNE01.JPG,AFNE01.JPG,AFNE01.JPG,,,,,,,,,4,0,40,4,,,,,,,,,,,,,,,AFSA19.jpg,AFNE12.jpg,AFSA20.jpg,AFNE03.jpg,AFNE12.jpg,FN,3,num_6,16,num_6,2.84997674635,,,2017_Jun_22_1445,60.0015780823,FEMA4ImagesEEG,001,100655,
AFNE01.JPG,AFNE01.JPG,AFNE01.JPG,AFNE01.JPG,AFNE01.JPG,AFNE01.JPG,,,,,,,,,4,1,41,5,,,,,,,,,,,,,,,AFSA12.jpg,AFSA14.jpg,AFNE18.jpg,AFNE06.jpg,AFNE06.jpg,FN,3,num_4,16,num_4,1.08343217471,,,2017_Jun_22_1445,60.0015780823,FEMA4ImagesEEG,001,100655,
AFNE01.JPG,AFNE01.JPG,AFNE01.JPG,AFNE01.JPG,AFNE01.JPG,AFNE01.JPG,,,,,,,,,4,2,42,6,,,,,,,,,,,,,,,AFNE03.jpg,AFSA17.jpg,AFNE01.jpg,AFSA06.jpg,AFSA06.jpg,FS,4,num_4,32,num_2,0.483462645014,,,2017_Jun_22_1445,60.0015780823,FEMA4ImagesEEG,001,100655,
AFNE01.JPG,AFNE01.JPG,AFNE01.JPG,AFNE01.JPG,AFNE01.JPG,AFNE01.JPG,,,,,,,,,4,3,43,0,,,,,,,,,,,,,,,AFNE05.jpg,AFNE02.jpg,AFSA17.jpg,AFSA03.jpg,AFNE02.jpg,FN,3,num_6,16,num_6,0.533463767604,,,2017_Jun_22_1445,60.0015780823,FEMA4ImagesEEG,001,100655,
AFNE01.JPG,AFNE01.JPG,AFNE01.JPG,AFNE01.JPG,AFNE01.JPG,AFNE01.JPG,,,,,,,,,4,4,44,1,,,,,,,,,,,,,,,AFSA18.jpg,AFNE10.jpg,AFSA05.jpg,AFNE20.jpg,AFNE10.jpg,FN,3,num_6,16,num_6,0.733481408304,,,2017_Jun_22_1445,60.0015780823,FEMA4ImagesEEG,001,100655,
AFNE01.JPG,AFNE01.JPG,AFNE01.JPG,AFNE01.JPG,AFNE01.JPG,AFNE01.JPG,,,,,,,,,4,5,45,9,,,,,,,,,,,,,,,AFNE18.jpg,AFSA12.jpg,AFSA17.jpg,AFNE16.jpg,AFSA12.jpg,FS,4,num_6,16,num_6,0.650371256563,,,2017_Jun_22_1445,60.0015780823,FEMA4ImagesEEG,001,100655,
AFNE01.JPG,AFNE01.JPG,AFNE01.JPG,AFNE01.JPG,AFNE01.JPG,AFNE01.JPG,,,,,,,,,4,6,46,7,,,,,,,,,,,,,,,AFSA18.jpg,AFSA12.jpg,AFNE15.jpg,AFNE04.jpg,AFSA12.jpg,FS,4,num_6,16,num_6,0.566771014082,,,2017_Jun_22_1445,60.0015780823,FEMA4ImagesEEG,001,100655,
AFNE01.JPG,AFNE01.JPG,AFNE01.JPG,AFNE01.JPG,AFNE01.JPG,AFNE01.JPG,,,,,,,,,4,7,47,2,,,,,,,,,,,,,,,AFNE04.jpg,AFSA10.jpg,AFSA05.jpg,AFNE10.jpg,AFNE04.jpg,FN,3,num_8,32,num_6,0.933451258745,,,2017_Jun_22_1445,60.0015780823,FEMA4ImagesEEG,001,100655,
AFNE01.JPG,AFNE01.JPG,AFNE01.JPG,AFNE01.JPG,AFNE01.JPG,AFNE01.JPG,,,,,,,,,4,8,48,3,,,,,,,,,,,,,,,AFNE20.jpg,AFSA05.jpg,AFNE04.jpg,AFSA06.jpg,AFNE04.jpg,FN,3,num_2,16,num_2,0.583510756016,,,2017_Jun_22_1445,60.0015780823,FEMA4ImagesEEG,001,100655,
AFNE01.JPG,AFNE01.JPG,AFNE01.JPG,AFNE01.JPG,AFNE01.JPG,AFNE01.JPG,,,,,,,,,4,9,49,8,,,,,,,,,,,,,,,AFSA03.jpg,AFSA10.jpg,AFNE11.jpg,AFNE12.jpg,AFSA10.jpg,FS,4,num_6,16,num_6,0.616759307073,,,2017_Jun_22_1445,60.0015780823,FEMA4ImagesEEG,001,100655,
AFNE01.JPG,AFNE01.JPG,AFNE01.JPG,AFNE01.JPG,AFNE01.JPG,AFNE01.JPG,,,,,,,,,5,0,50,5,,,,,,,,,,,,,,,AFSA05.jpg,AFNE03.jpg,AFSA11.jpg,AFNE17.jpg,AFNE17.jpg,FN,3,num_4,32,num_6,0.633522783768,,,2017_Jun_22_1445,60.0015780823,FEMA4ImagesEEG,001,100655,
AFNE01.JPG,AFNE01.JPG,AFNE01.JPG,AFNE01.JPG,AFNE01.JPG,AFNE01.JPG,,,,,,,,,5,1,51,3,,,,,,,,,,,,,,,AFNE11.jpg,AFSA10.jpg,AFSA09.jpg,AFNE09.jpg,AFSA10.jpg,FS,4,num_6,16,num_6,0.600190198827,,,2017_Jun_22_1445,60.0015780823,FEMA4ImagesEEG,001,100655,
AFNE01.JPG,AFNE01.JPG,AFNE01.JPG,AFNE01.JPG,AFNE01.JPG,AFNE01.JPG,,,,,,,,,5,2,52,7,,,,,,,,,,,,,,,AFNE04.jpg,AFSA06.jpg,AFSA03.jpg,AFNE01.jpg,AFNE01.jpg,FN,3,num_4,16,num_4,1.1334477306,,,2017_Jun_22_1445,60.0015780823,FEMA4ImagesEEG,001,100655,
AFNE01.JPG,AFNE01.JPG,AFNE01.JPG,AFNE01.JPG,AFNE01.JPG,AFNE01.JPG,,,,,,,,,5,3,53,0,,,,,,,,,,,,,,,AFSA15.jpg,AFNE17.jpg,AFSA19.jpg,AFNE18.jpg,AFSA15.jpg,FS,4,num_8,16,num_8,0.483564961078,,,2017_Jun_22_1445,60.0015780823,FEMA4ImagesEEG,001,100655,
AFNE01.JPG,AFNE01.JPG,AFNE01.JPG,AFNE01.JPG,AFNE01.JPG,AFNE01.JPG,,,,,,,,,5,4,54,1,,,,,,,,,,,,,,,AFSA18.jpg,AFNE06.jpg,AFSA19.jpg,AFNE16.jpg,AFSA18.jpg,FS,4,num_8,32,num_2,0.866799880685,,,2017_Jun_22_1445,60.0015780823,FEMA4ImagesEEG,001,100655,
AFNE01.JPG,AFNE01.JPG,AFNE01.JPG,AFNE01.JPG,AFNE01.JPG,AFNE01.JPG,,,,,,,,,5,5,55,8,,,,,,,,,,,,,,,AFNE10.jpg,AFSA15.jpg,AFNE18.jpg,AFSA16.jpg,AFNE10.jpg,FN,3,num_8,32,num_4,1.73338133742,,,2017_Jun_22_1445,60.0015780823,FEMA4ImagesEEG,001,100655,
AFNE01.JPG,AFNE01.JPG,AFNE01.JPG,AFNE01.JPG,AFNE01.JPG,AFNE01.JPG,,,,,,,,,5,6,56,6,,,,,,,,,,,,,,,AFSA03.jpg,AFSA02.jpg,AFNE03.jpg,AFNE07.jpg,AFNE07.jpg,FN,3,num_4,32,num_8,0.516799720313,,,2017_Jun_22_1445,60.0015780823,FEMA4ImagesEEG,001,100655,
AFNE01.JPG,AFNE01.JPG,AFNE01.JPG,AFNE01.JPG,AFNE01.JPG,AFNE01.JPG,,,,,,,,,5,7,57,4,,,,,,,,,,,,,,,AFNE06.jpg,AFSA17.jpg,AFNE11.jpg,AFSA07.jpg,AFSA07.jpg,FS,4,num_4,16,num_4,0.433535613367,,,2017_Jun_22_1445,60.0015780823,FEMA4ImagesEEG,001,100655,
AFNE01.JPG,AFNE01.JPG,AFNE01.JPG,AFNE01.JPG,AFNE01.JPG,AFNE01.JPG,,,,,,,,,5,8,58,2,,,,,,,,,,,,,,,AFNE04.jpg,AFSA08.jpg,AFNE14.jpg,AFSA06.jpg,AFSA08.jpg,FS,4,num_6,16,num_6,0.583457513174,,,2017_Jun_22_1445,60.0015780823,FEMA4ImagesEEG,001,100655,
AFNE01.JPG,AFNE01.JPG,AFNE01.JPG,AFNE01.JPG,AFNE01.JPG,AFNE01.JPG,,,,,,,,,5,9,59,9,,,,,,,,,,,,,,,AFSA09.jpg,AFNE20.jpg,AFNE07.jpg,AFSA07.jpg,AFNE07.jpg,FN,3,num_2,32,num_6,0.566787051084,,,2017_Jun_22_1445,60.0015780823,FEMA4ImagesEEG,001,100655,
,,,,,,,,,,,,,,,,,,,,,,,,,,,,,,,,,,,,,,,,,,,space,75.6773426049,2017_Jun_22_1445,60.0015780823,FEMA4ImagesEEG,001,100655,
AFNE01.JPG,AFNE01.JPG,AFNE01.JPG,AFNE01.JPG,AFNE01.JPG,AFNE01.JPG,,,,,,,,,,,,,0,0,0,8,,,,,,,,,,,AMSA03.jpg,AMNE10.jpg,AMSA10.jpg,AMNE07.jpg,AMNE10.jpg,MN,1,num_6,16,num_6,0.500213292107,,,2017_Jun_22_1445,60.0015780823,FEMA4ImagesEEG,001,100655,
AFNE01.JPG,AFNE01.JPG,AFNE01.JPG,AFNE01.JPG,AFNE01.JPG,AFNE01.JPG,,,,,,,,,,,,,0,1,1,4,,,,,,,,,,,AMNE12.jpg,AMSA12.jpg,AMSA01.jpg,AMNE11.jpg,AMSA12.jpg,MS,2,num_6,32,num_4,1.21688792382,,,2017_Jun_22_1445,60.0015780823,FEMA4ImagesEEG,001,100655,
AFNE01.JPG,AFNE01.JPG,AFNE01.JPG,AFNE01.JPG,AFNE01.JPG,AFNE01.JPG,,,,,,,,,,,,,0,2,2,6,,,,,,,,,,,AMNE10.jpg,AMSA03.jpg,AMSA11.jpg,AMNE04.jpg,AMSA03.jpg,MS,2,num_6,32,num_2,1.85002870623,,,2017_Jun_22_1445,60.0015780823,FEMA4ImagesEEG,001,100655,
AFNE01.JPG,AFNE01.JPG,AFNE01.JPG,AFNE01.JPG,AFNE01.JPG,AFNE01.JPG,,,,,,,,,,,,,0,3,3,2,,,,,,,,,,,AMNE05.jpg,AMSA02.jpg,AMNE11.jpg,AMSA15.jpg,AMSA15.jpg,MS,2,num_4,16,num_4,0.400173841086,,,2017_Jun_22_1445,60.0015780823,FEMA4ImagesEEG,001,100655,
AFNE01.JPG,AFNE01.JPG,AFNE01.JPG,AFNE01.JPG,AFNE01.JPG,AFNE01.JPG,,,,,,,,,,,,,0,4,4,1,,,,,,,,,,,AMNE03.jpg,AMNE20.jpg,AMSA20.jpg,AMSA05.jpg,AMSA05.jpg,MS,2,num_4,32,num_2,1.69994611568,,,2017_Jun_22_1445,60.0015780823,FEMA4ImagesEEG,001,100655,
AFNE01.JPG,AFNE01.JPG,AFNE01.JPG,AFNE01.JPG,AFNE01.JPG,AFNE01.JPG,,,,,,,,,,,,,0,5,5,0,,,,,,,,,,,AMSA09.jpg,AMSA18.jpg,AMNE17.jpg,AMNE13.jpg,AMSA18.jpg,MS,2,num_6,32,num_8,1.10012637156,,,2017_Jun_22_1445,60.0015780823,FEMA4ImagesEEG,001,100655,
AFNE01.JPG,AFNE01.JPG,AFNE01.JPG,AFNE01.JPG,AFNE01.JPG,AFNE01.JPG,,,,,,,,,,,,,0,6,6,9,,,,,,,,,,,AMNE07.jpg,AMNE16.jpg,AMSA10.jpg,AMSA07.jpg,AMNE07.jpg,MN,1,num_8,32,num_6,0.516780796654,,,2017_Jun_22_1445,60.0015780823,FEMA4ImagesEEG,001,100655,
AFNE01.JPG,AFNE01.JPG,AFNE01.JPG,AFNE01.JPG,AFNE01.JPG,AFNE01.JPG,,,,,,,,,,,,,0,7,7,3,,,,,,,,,,,AMSA20.jpg,AMNE06.jpg,AMNE01.jpg,AMSA10.jpg,AMSA20.jpg,MS,2,num_8,16,num_8,0.900113221223,,,2017_Jun_22_1445,60.0015780823,FEMA4ImagesEEG,001,100655,
AFNE01.JPG,AFNE01.JPG,AFNE01.JPG,AFNE01.JPG,AFNE01.JPG,AFNE01.JPG,,,,,,,,,,,,,0,8,8,7,,,,,,,,,,,AMNE10.jpg,AMSA07.jpg,AMNE18.jpg,AMSA03.jpg,AMSA07.jpg,MS,2,num_6,32,num_4,0.716797475136,,,2017_Jun_22_1445,60.0015780823,FEMA4ImagesEEG,001,100655,
AFNE01.JPG,AFNE01.JPG,AFNE01.JPG,AFNE01.JPG,AFNE01.JPG,AFNE01.JPG,,,,,,,,,,,,,0,9,9,5,,,,,,,,,,,AMSA01.jpg,AMNE03.jpg,AMNE18.jpg,AMSA20.jpg,AMNE18.jpg,MN,1,num_2,32,num_8,1.15009253349,,,2017_Jun_22_1445,60.0015780823,FEMA4ImagesEEG,001,100655,
AFNE01.JPG,AFNE01.JPG,AFNE01.JPG,AFNE01.JPG,AFNE01.JPG,AFNE01.JPG,,,,,,,,,,,,,1,0,10,4,,,,,,,,,,,AMSA20.jpg,AMSA16.jpg,AMNE05.jpg,AMNE02.jpg,AMSA20.jpg,MS,2,num_8,32,num_2,0.683653806062,,,2017_Jun_22_1445,60.0015780823,FEMA4ImagesEEG,001,100655,
AFNE01.JPG,AFNE01.JPG,AFNE01.JPG,AFNE01.JPG,AFNE01.JPG,AFNE01.JPG,,,,,,,,,,,,,1,1,11,2,,,,,,,,,,,AMSA17.jpg,AMNE20.jpg,AMSA13.jpg,AMNE04.jpg,AMSA13.jpg,MS,2,num_2,32,num_8,0.933441636544,,,2017_Jun_22_1445,60.0015780823,FEMA4ImagesEEG,001,100655,
AFNE01.JPG,AFNE01.JPG,AFNE01.JPG,AFNE01.JPG,AFNE01.JPG,AFNE01.JPG,,,,,,,,,,,,,1,2,12,9,,,,,,,,,,,AMNE08.jpg,AMSA05.jpg,AMNE11.jpg,AMSA02.jpg,AMNE11.jpg,MN,1,num_2,16,num_2,0.600123484905,,,2017_Jun_22_1445,60.0015780823,FEMA4ImagesEEG,001,100655,
AFNE01.JPG,AFNE01.JPG,AFNE01.JPG,AFNE01.JPG,AFNE01.JPG,AFNE01.JPG,,,,,,,,,,,,,1,3,13,8,,,,,,,,,,,AMNE12.jpg,AMSA16.jpg,AMNE02.jpg,AMSA09.jpg,AMNE02.jpg,MN,1,num_2,32,num_6,1.15011209863,,,2017_Jun_22_1445,60.0015780823,FEMA4ImagesEEG,001,100655,
AFNE01.JPG,AFNE01.JPG,AFNE01.JPG,AFNE01.JPG,AFNE01.JPG,AFNE01.JPG,,,,,,,,,,,,,1,4,14,5,,,,,,,,,,,AMSA07.jpg,AMSA02.jpg,AMNE04.jpg,AMNE08.jpg,AMSA02.jpg,MS,2,num_6,32,num_2,1.60007633612,,,2017_Jun_22_1445,60.0015780823,FEMA4ImagesEEG,001,100655,
AFNE01.JPG,AFNE01.JPG,AFNE01.JPG,AFNE01.JPG,AFNE01.JPG,AFNE01.JPG,,,,,,,,,,,,,1,5,15,0,,,,,,,,,,,AMSA05.jpg,AMSA07.jpg,AMNE03.jpg,AMNE07.jpg,AMNE07.jpg,MN,1,num_4,16,num_4,0.616821530635,,,2017_Jun_22_1445,60.0015780823,FEMA4ImagesEEG,001,100655,
AFNE01.JPG,AFNE01.JPG,AFNE01.JPG,AFNE01.JPG,AFNE01.JPG,AFNE01.JPG,,,,,,,,,,,,,1,6,16,1,,,,,,,,,,,AMSA17.jpg,AMSA12.jpg,AMNE15.jpg,AMNE12.jpg,AMSA12.jpg,MS,2,num_6,16,num_6,0.516791060334,,,2017_Jun_22_1445,60.0015780823,FEMA4ImagesEEG,001,100655,
AFNE01.JPG,AFNE01.JPG,AFNE01.JPG,AFNE01.JPG,AFNE01.JPG,AFNE01.JPG,,,,,,,,,,,,,1,7,17,3,,,,,,,,,,,AMNE20.jpg,AMNE02.jpg,AMSA20.jpg,AMSA16.jpg,AMNE20.jpg,MN,1,num_8,16,num_8,0.833434580265,,,2017_Jun_22_1445,60.0015780823,FEMA4ImagesEEG,001,100655,
AFNE01.JPG,AFNE01.JPG,AFNE01.JPG,AFNE01.JPG,AFNE01.JPG,AFNE01.JPG,,,,,,,,,,,,,1,8,18,7,,,,,,,,,,,AMNE08.jpg,AMNE13.jpg,AMSA11.jpg,AMSA18.jpg,AMSA11.jpg,MS,2,num_2,16,num_2,0.733422392143,,,2017_Jun_22_1445,60.0015780823,FEMA4ImagesEEG,001,100655,
AFNE01.JPG,AFNE01.JPG,AFNE01.JPG,AFNE01.JPG,AFNE01.JPG,AFNE01.JPG,,,,,,,,,,,,,1,9,19,6,,,,,,,,,,,AMNE19.jpg,AMNE01.jpg,AMSA01.jpg,AMSA14.jpg,AMNE19.jpg,MN,1,num_8,16,num_8,0.700130220444,,,2017_Jun_22_1445,60.0015780823,FEMA4ImagesEEG,001,100655,
AFNE01.JPG,AFNE01.JPG,AFNE01.JPG,AFNE01.JPG,AFNE01.JPG,AFNE01.JPG,,,,,,,,,,,,,2,0,20,2,,,,,,,,,,,AMNE12.jpg,AMSA12.jpg,AMSA13.jpg,AMNE17.jpg,AMNE12.jpg,MN,1,num_8,16,num_8,0.816796512914,,,2017_Jun_22_1445,60.0015780823,FEMA4ImagesEEG,001,100655,
AFNE01.JPG,AFNE01.JPG,AFNE01.JPG,AFNE01.JPG,AFNE01.JPG,AFNE01.JPG,,,,,,,,,,,,,2,1,21,4,,,,,,,,,,,AMSA20.jpg,AMSA07.jpg,AMNE13.jpg,AMNE20.jpg,AMSA07.jpg,MS,2,num_6,16,num_6,0.616733647872,,,2017_Jun_22_1445,60.0015780823,FEMA4ImagesEEG,001,100655,
AFNE01.JPG,AFNE01.JPG,AFNE01.JPG,AFNE01.JPG,AFNE01.JPG,AFNE01.JPG,,,,,,,,,,,,,2,2,22,8,,,,,,,,,,,AMSA07.jpg,AMNE17.jpg,AMNE04.jpg,AMSA15.jpg,AMSA15.jpg,MS,2,num_4,16,num_4,0.416806776595,,,2017_Jun_22_1445,60.0015780823,FEMA4ImagesEEG,001,100655,
AFNE01.JPG,AFNE01.JPG,AFNE01.JPG,AFNE01.JPG,AFNE01.JPG,AFNE01.JPG,,,,,,,,,,,,,2,3,23,9,,,,,,,,,,,AMNE12.jpg,AMSA18.jpg,AMSA12.jpg,AMNE16.jpg,AMNE12.jpg,MN,1,num_8,16,num_8,0.716776947773,,,2017_Jun_22_1445,60.0015780823,FEMA4ImagesEEG,001,100655,
AFNE01.JPG,AFNE01.JPG,AFNE01.JPG,AFNE01.JPG,AFNE01.JPG,AFNE01.JPG,,,,,,,,,,,,,2,4,24,0,,,,,,,,,,,AMSA04.jpg,AMNE04.jpg,AMNE19.jpg,AMSA14.jpg,AMNE19.jpg,MN,1,num_2,16,num_2,0.616803248455,,,2017_Jun_22_1445,60.0015780823,FEMA4ImagesEEG,001,100655,
AFNE01.JPG,AFNE01.JPG,AFNE01.JPG,AFNE01.JPG,AFNE01.JPG,AFNE01.JPG,,,,,,,,,,,,,2,5,25,5,,,,,,,,,,,AMSA03.jpg,AMNE16.jpg,AMNE06.jpg,AMSA08.jpg,AMSA08.jpg,MS,2,num_4,32,num_8,0.867014135012,,,2017_Jun_22_1445,60.0015780823,FEMA4ImagesEEG,001,100655,
AFNE01.JPG,AFNE01.JPG,AFNE01.JPG,AFNE01.JPG,AFNE01.JPG,AFNE01.JPG,,,,,,,,,,,,,2,6,26,1,,,,,,,,,,,AMNE19.jpg,AMSA12.jpg,AMSA03.jpg,AMNE12.jpg,AMNE19.jpg,MN,1,num_8,32,num_4,1.00008050574,,,2017_Jun_22_1445,60.0015780823,FEMA4ImagesEEG,001,100655,
AFNE01.JPG,AFNE01.JPG,AFNE01.JPG,AFNE01.JPG,AFNE01.JPG,AFNE01.JPG,,,,,,,,,,,,,2,7,27,7,,,,,,,,,,,AMNE19.jpg,AMNE12.jpg,AMSA03.jpg,AMSA18.jpg,AMNE19.jpg,MN,1,num_8,32,num_6,0.800099429403,,,2017_Jun_22_1445,60.0015780823,FEMA4ImagesEEG,001,100655,
AFNE01.JPG,AFNE01.JPG,AFNE01.JPG,AFNE01.JPG,AFNE01.JPG,AFNE01.JPG,,,,,,,,,,,,,2,8,28,6,,,,,,,,,,,AMSA10.jpg,AMNE04.jpg,AMSA16.jpg,AMNE06.jpg,AMSA16.jpg,MS,2,num_2,16,num_2,0.550121400094,,,2017_Jun_22_1445,60.0015780823,FEMA4ImagesEEG,001,100655,
AFNE01.JPG,AFNE01.JPG,AFNE01.JPG,AFNE01.JPG,AFNE01.JPG,AFNE01.JPG,,,,,,,,,,,,,2,9,29,3,,,,,,,,,,,AMNE01.jpg,AMNE03.jpg,AMSA16.jpg,AMSA20.jpg,AMNE03.jpg,MN,1,num_6,32,num_8,0.650158605935,,,2017_Jun_22_1445,60.0015780823,FEMA4ImagesEEG,001,100655,
AFNE01.JPG,AFNE01.JPG,AFNE01.JPG,AFNE01.JPG,AFNE01.JPG,AFNE01.JPG,,,,,,,,,,,,,3,0,30,7,,,,,,,,,,,AMSA01.jpg,AMNE18.jpg,AMSA16.jpg,AMNE06.jpg,AMSA16.jpg,MS,2,num_2,32,num_8,0.800149464845,,,2017_Jun_22_1445,60.0015780823,FEMA4ImagesEEG,001,100655,
AFNE01.JPG,AFNE01.JPG,AFNE01.JPG,AFNE01.JPG,AFNE01.JPG,AFNE01.JPG,,,,,,,,,,,,,3,1,31,9,,,,,,,,,,,AMSA18.jpg,AMNE06.jpg,AMNE18.jpg,AMSA09.jpg,AMNE18.jpg,MN,1,num_2,32,num_8,1.61682858692,,,2017_Jun_22_1445,60.0015780823,FEMA4ImagesEEG,001,100655,
AFNE01.JPG,AFNE01.JPG,AFNE01.JPG,AFNE01.JPG,AFNE01.JPG,AFNE01.JPG,,,,,,,,,,,,,3,2,32,6,,,,,,,,,,,AMNE19.jpg,AMSA04.jpg,AMSA06.jpg,AMNE20.jpg,AMNE19.jpg,MN,1,num_8,32,num_4,0.816604068908,,,2017_Jun_22_1445,60.0015780823,FEMA4ImagesEEG,001,100655,
AFNE01.JPG,AFNE01.JPG,AFNE01.JPG,AFNE01.JPG,AFNE01.JPG,AFNE01.JPG,,,,,,,,,,,,,3,3,33,3,,,,,,,,,,,AMNE08.jpg,AMSA06.jpg,AMSA09.jpg,AMNE09.jpg,AMSA06.jpg,MS,2,num_6,32,num_8,0.716771174455,,,2017_Jun_22_1445,60.0015780823,FEMA4ImagesEEG,001,100655,
AFNE01.JPG,AFNE01.JPG,AFNE01.JPG,AFNE01.JPG,AFNE01.JPG,AFNE01.JPG,,,,,,,,,,,,,3,4,34,5,,,,,,,,,,,AMSA13.jpg,AMSA03.jpg,AMNE12.jpg,AMNE01.jpg,AMNE12.jpg,MN,1,num_2,16,num_2,1.21675225079,,,2017_Jun_22_1445,60.0015780823,FEMA4ImagesEEG,001,100655,
AFNE01.JPG,AFNE01.JPG,AFNE01.JPG,AFNE01.JPG,AFNE01.JPG,AFNE01.JPG,,,,,,,,,,,,,3,5,35,8,,,,,,,,,,,AMSA19.jpg,AMNE10.jpg,AMSA12.jpg,AMNE06.jpg,AMSA12.jpg,MS,2,num_2,32,num_8,0.800120598245,,,2017_Jun_22_1445,60.0015780823,FEMA4ImagesEEG,001,100655,
AFNE01.JPG,AFNE01.JPG,AFNE01.JPG,AFNE01.JPG,AFNE01.JPG,AFNE01.JPG,,,,,,,,,,,,,3,6,36,4,,,,,,,,,,,AMNE18.jpg,AMSA09.jpg,AMNE20.jpg,AMSA14.jpg,AMSA14.jpg,MS,2,num_4,16,num_4,2.53333803752,,,2017_Jun_22_1445,60.0015780823,FEMA4ImagesEEG,001,100655,
AFNE01.JPG,AFNE01.JPG,AFNE01.JPG,AFNE01.JPG,AFNE01.JPG,AFNE01.JPG,,,,,,,,,,,,,3,7,37,2,,,,,,,,,,,AMSA13.jpg,AMNE18.jpg,AMNE11.jpg,AMSA03.jpg,AMNE18.jpg,MN,1,num_6,16,num_6,0.716636784389,,,2017_Jun_22_1445,60.0015780823,FEMA4ImagesEEG,001,100655,
AFNE01.JPG,AFNE01.JPG,AFNE01.JPG,AFNE01.JPG,AFNE01.JPG,AFNE01.JPG,,,,,,,,,,,,,3,8,38,1,,,,,,,,,,,AMNE14.jpg,AMSA15.jpg,AMSA19.jpg,AMNE18.jpg,AMSA15.jpg,MS,2,num_6,16,num_6,0.600129899703,,,2017_Jun_22_1445,60.0015780823,FEMA4ImagesEEG,001,100655,
AFNE01.JPG,AFNE01.JPG,AFNE01.JPG,AFNE01.JPG,AFNE01.JPG,AFNE01.JPG,,,,,,,,,,,,,3,9,39,0,,,,,,,,,,,AMNE20.jpg,AMNE07.jpg,AMSA07.jpg,AMSA01.jpg,AMSA01.jpg,MS,2,num_4,32,num_6,1.18343185397,,,2017_Jun_22_1445,60.0015780823,FEMA4ImagesEEG,001,100655,
AFNE01.JPG,AFNE01.JPG,AFNE01.JPG,AFNE01.JPG,AFNE01.JPG,AFNE01.JPG,,,,,,,,,,,,,4,0,40,1,,,,,,,,,,,AMSA17.jpg,AMSA09.jpg,AMNE12.jpg,AMNE16.jpg,AMSA09.jpg,MS,2,num_6,32,num_8,1.06678095702,,,2017_Jun_22_1445,60.0015780823,FEMA4ImagesEEG,001,100655,
AFNE01.JPG,AFNE01.JPG,AFNE01.JPG,AFNE01.JPG,AFNE01.JPG,AFNE01.JPG,,,,,,,,,,,,,4,1,41,6,,,,,,,,,,,AMSA08.jpg,AMSA03.jpg,AMNE07.jpg,AMNE13.jpg,AMNE07.jpg,MN,1,num_2,16,num_2,1.80004233768,,,2017_Jun_22_1445,60.0015780823,FEMA4ImagesEEG,001,100655,
AFNE01.JPG,AFNE01.JPG,AFNE01.JPG,AFNE01.JPG,AFNE01.JPG,AFNE01.JPG,,,,,,,,,,,,,4,2,42,2,,,,,,,,,,,AMNE14.jpg,AMSA06.jpg,AMSA13.jpg,AMNE07.jpg,AMNE07.jpg,MN,1,num_4,16,num_4,0.550216018397,,,2017_Jun_22_1445,60.0015780823,FEMA4ImagesEEG,001,100655,
AFNE01.JPG,AFNE01.JPG,AFNE01.JPG,AFNE01.JPG,AFNE01.JPG,AFNE01.JPG,,,,,,,,,,,,,4,3,43,8,,,,,,,,,,,AMSA18.jpg,AMNE14.jpg,AMNE09.jpg,AMSA09.jpg,AMNE09.jpg,MN,1,num_2,32,num_4,0.883469380555,,,2017_Jun_22_1445,60.0015780823,FEMA4ImagesEEG,001,100655,
AFNE01.JPG,AFNE01.JPG,AFNE01.JPG,AFNE01.JPG,AFNE01.JPG,AFNE01.JPG,,,,,,,,,,,,,4,4,44,3,,,,,,,,,,,AMNE15.jpg,AMNE06.jpg,AMSA02.jpg,AMSA18.jpg,AMSA18.jpg,MS,2,num_4,32,num_8,3.1498866184,,,2017_Jun_22_1445,60.0015780823,FEMA4ImagesEEG,001,100655,
AFNE01.JPG,AFNE01.JPG,AFNE01.JPG,AFNE01.JPG,AFNE01.JPG,AFNE01.JPG,,,,,,,,,,,,,4,5,45,9,,,,,,,,,,,AMSA17.jpg,AMSA14.jpg,AMNE09.jpg,AMNE02.jpg,AMNE02.jpg,MN,1,num_4,32,num_6,0.666759467444,,,2017_Jun_22_1445,60.0015780823,FEMA4ImagesEEG,001,100655,
AFNE01.JPG,AFNE01.JPG,AFNE01.JPG,AFNE01.JPG,AFNE01.JPG,AFNE01.JPG,,,,,,,,,,,,,4,6,46,7,,,,,,,,,,,AMSA16.jpg,AMSA15.jpg,AMNE15.jpg,AMNE19.jpg,AMNE15.jpg,MN,1,num_2,32,num_6,0.700169992208,,,2017_Jun_22_1445,60.0015780823,FEMA4ImagesEEG,001,100655,
AFNE01.JPG,AFNE01.JPG,AFNE01.JPG,AFNE01.JPG,AFNE01.JPG,AFNE01.JPG,,,,,,,,,,,,,4,7,47,4,,,,,,,,,,,AMNE01.jpg,AMNE05.jpg,AMSA06.jpg,AMSA13.jpg,AMNE01.jpg,MN,1,num_8,16,num_8,0.683132603543,,,2017_Jun_22_1445,60.0015780823,FEMA4ImagesEEG,001,100655,
AFNE01.JPG,AFNE01.JPG,AFNE01.JPG,AFNE01.JPG,AFNE01.JPG,AFNE01.JPG,,,,,,,,,,,,,4,8,48,0,,,,,,,,,,,AMNE18.jpg,AMSA02.jpg,AMSA17.jpg,AMNE12.jpg,AMSA02.jpg,MS,2,num_6,16,num_6,0.949957822688,,,2017_Jun_22_1445,60.0015780823,FEMA4ImagesEEG,001,100655,
AFNE01.JPG,AFNE01.JPG,AFNE01.JPG,AFNE01.JPG,AFNE01.JPG,AFNE01.JPG,,,,,,,,,,,,,4,9,49,5,,,,,,,,,,,AMSA03.jpg,AMNE13.jpg,AMNE17.jpg,AMSA19.jpg,AMSA03.jpg,MS,2,num_8,16,num_8,0.783462645015,,,2017_Jun_22_1445,60.0015780823,FEMA4ImagesEEG,001,100655,
AFNE01.JPG,AFNE01.JPG,AFNE01.JPG,AFNE01.JPG,AFNE01.JPG,AFNE01.JPG,,,,,,,,,,,,,5,0,50,7,,,,,,,,,,,AMSA07.jpg,AMSA15.jpg,AMNE03.jpg,AMNE18.jpg,AMSA07.jpg,MS,2,num_8,32,num_6,0.966624435898,,,2017_Jun_22_1445,60.0015780823,FEMA4ImagesEEG,001,100655,
AFNE01.JPG,AFNE01.JPG,AFNE01.JPG,AFNE01.JPG,AFNE01.JPG,AFNE01.JPG,,,,,,,,,,,,,5,1,51,2,,,,,,,,,,,AMSA11.jpg,AMSA04.jpg,AMNE17.jpg,AMNE09.jpg,AMSA04.jpg,MS,2,num_6,32,num_8,1.71666565099,,,2017_Jun_22_1445,60.0015780823,FEMA4ImagesEEG,001,100655,
AFNE01.JPG,AFNE01.JPG,AFNE01.JPG,AFNE01.JPG,AFNE01.JPG,AFNE01.JPG,,,,,,,,,,,,,5,2,52,4,,,,,,,,,,,AMSA13.jpg,AMSA19.jpg,AMNE07.jpg,AMNE09.jpg,AMNE07.jpg,MN,1,num_2,16,num_2,1.00009205238,,,2017_Jun_22_1445,60.0015780823,FEMA4ImagesEEG,001,100655,
AFNE01.JPG,AFNE01.JPG,AFNE01.JPG,AFNE01.JPG,AFNE01.JPG,AFNE01.JPG,,,,,,,,,,,,,5,3,53,5,,,,,,,,,,,AMSA20.jpg,AMSA12.jpg,AMNE02.jpg,AMNE17.jpg,AMSA20.jpg,MS,2,num_8,16,num_8,0.850117551216,,,2017_Jun_22_1445,60.0015780823,FEMA4ImagesEEG,001,100655,
AFNE01.JPG,AFNE01.JPG,AFNE01.JPG,AFNE01.JPG,AFNE01.JPG,AFNE01.JPG,,,,,,,,,,,,,5,4,54,8,,,,,,,,,,,AMNE17.jpg,AMSA03.jpg,AMSA14.jpg,AMNE20.jpg,AMNE20.jpg,MN,1,num_4,16,num_4,0.516761231513,,,2017_Jun_22_1445,60.0015780823,FEMA4ImagesEEG,001,100655,
AFNE01.JPG,AFNE01.JPG,AFNE01.JPG,AFNE01.JPG,AFNE01.JPG,AFNE01.JPG,,,,,,,,,,,,,5,5,55,3,,,,,,,,,,,AMSA17.jpg,AMNE03.jpg,AMNE05.jpg,AMSA06.jpg,AMNE03.jpg,MN,1,num_6,16,num_6,0.833466012786,,,2017_Jun_22_1445,60.0015780823,FEMA4ImagesEEG,001,100655,
AFNE01.JPG,AFNE01.JPG,AFNE01.JPG,AFNE01.JPG,AFNE01.JPG,AFNE01.JPG,,,,,,,,,,,,,5,6,56,1,,,,,,,,,,,AMSA02.jpg,AMNE10.jpg,AMNE06.jpg,AMSA05.jpg,AMNE06.jpg,MN,1,num_2,16,num_2,0.700120918984,,,2017_Jun_22_1445,60.0015780823,FEMA4ImagesEEG,001,100655,
AFNE01.JPG,AFNE01.JPG,AFNE01.JPG,AFNE01.JPG,AFNE01.JPG,AFNE01.JPG,,,,,,,,,,,,,5,7,57,6,,,,,,,,,,,AMSA03.jpg,AMNE17.jpg,AMSA08.jpg,AMNE07.jpg,AMNE17.jpg,MN,1,num_6,32,num_8,0.650109853454,,,2017_Jun_22_1445,60.0015780823,FEMA4ImagesEEG,001,100655,
AFNE01.JPG,AFNE01.JPG,AFNE01.JPG,AFNE01.JPG,AFNE01.JPG,AFNE01.JPG,,,,,,,,,,,,,5,8,58,0,,,,,,,,,,,AMSA04.jpg,AMNE15.jpg,AMNE07.jpg,AMSA11.jpg,AMNE07.jpg,MN,1,num_2,16,num_2,0.783465210936,,,2017_Jun_22_1445,60.0015780823,FEMA4ImagesEEG,001,100655,
AFNE01.JPG,AFNE01.JPG,AFNE01.JPG,AFNE01.JPG,AFNE01.JPG,AFNE01.JPG,,,,,,,,,,,,,5,9,59,9,,,,,,,,,,,AMNE03.jpg,AMNE14.jpg,AMSA06.jpg,AMSA13.jpg,AMSA13.jpg,MS,2,num_4,16,num_4,0.716787211455,,,2017_Jun_22_1445,60.0015780823,FEMA4ImagesEEG,001,100655,
,,,,,,,,,,,,,,,,,,,,,,,,,,,,,,,,,,,,,,,,,,,space,46.1797654749,2017_Jun_22_1445,60.0015780823,FEMA4ImagesEEG,001,100655,
AFNE01.JPG,AFNE01.JPG,AFNE01.JPG,AFNE01.JPG,AFNE01.JPG,AFNE01.JPG,,,,,,,,,,,,,,,,,0,0,0,6,,,,,,,AFNE18.jpg,AFSA03.jpg,AFSA20.jpg,AFNE14.jpg,AFNE14.jpg,FN,3,num_4,32,num_8,0.766757543004,,,2017_Jun_22_1445,60.0015780823,FEMA4ImagesEEG,001,100655,
AFNE01.JPG,AFNE01.JPG,AFNE01.JPG,AFNE01.JPG,AFNE01.JPG,AFNE01.JPG,,,,,,,,,,,,,,,,,0,1,1,9,,,,,,,AFSA12.jpg,AFSA08.jpg,AFNE16.jpg,AFNE19.jpg,AFNE19.jpg,FN,3,num_4,32,num_6,2.18334332973,,,2017_Jun_22_1445,60.0015780823,FEMA4ImagesEEG,001,100655,
AFNE01.JPG,AFNE01.JPG,AFNE01.JPG,AFNE01.JPG,AFNE01.JPG,AFNE01.JPG,,,,,,,,,,,,,,,,,0,2,2,5,,,,,,,AFNE11.jpg,AFSA20.jpg,AFSA05.jpg,AFNE09.jpg,AFNE09.jpg,FN,3,num_4,16,num_4,0.566753373383,,,2017_Jun_22_1445,60.0015780823,FEMA4ImagesEEG,001,100655,
AFNE01.JPG,AFNE01.JPG,AFNE01.JPG,AFNE01.JPG,AFNE01.JPG,AFNE01.JPG,,,,,,,,,,,,,,,,,0,3,3,0,,,,,,,AFNE13.jpg,AFSA13.jpg,AFSA11.jpg,AFNE09.jpg,AFSA11.jpg,FS,4,num_2,16,num_2,2.51661946443,,,2017_Jun_22_1445,60.0015780823,FEMA4ImagesEEG,001,100655,
AFNE01.JPG,AFNE01.JPG,AFNE01.JPG,AFNE01.JPG,AFNE01.JPG,AFNE01.JPG,,,,,,,,,,,,,,,,,0,4,4,3,,,,,,,AFNE05.jpg,AFNE17.jpg,AFSA01.jpg,AFSA03.jpg,AFSA03.jpg,FS,4,num_4,32,num_2,1.85002357439,,,2017_Jun_22_1445,60.0015780823,FEMA4ImagesEEG,001,100655,
AFNE01.JPG,AFNE01.JPG,AFNE01.JPG,AFNE01.JPG,AFNE01.JPG,AFNE01.JPG,,,,,,,,,,,,,,,,,0,5,5,1,,,,,,,AFNE12.jpg,AFSA10.jpg,AFSA09.jpg,AFNE07.jpg,AFSA09.jpg,FS,4,num_2,32,num_6,1.78339272369,,,2017_Jun_22_1445,60.0015780823,FEMA4ImagesEEG,001,100655,
AFNE01.JPG,AFNE01.JPG,AFNE01.JPG,AFNE01.JPG,AFNE01.JPG,AFNE01.JPG,,,,,,,,,,,,,,,,,0,6,6,2,,,,,,,AFSA05.jpg,AFNE19.jpg,AFNE09.jpg,AFSA13.jpg,AFSA05.jpg,FS,4,num_8,32,num_4,1.24975736018,,,2017_Jun_22_1445,60.0015780823,FEMA4ImagesEEG,001,100655,
AFNE01.JPG,AFNE01.JPG,AFNE01.JPG,AFNE01.JPG,AFNE01.JPG,AFNE01.JPG,,,,,,,,,,,,,,,,,0,7,7,7,,,,,,,AFSA02.jpg,AFNE05.jpg,AFSA09.jpg,AFNE01.jpg,AFNE05.jpg,FN,3,num_6,32,num_8,0.616776306295,,,2017_Jun_22_1445,60.0015780823,FEMA4ImagesEEG,001,100655,
AFNE01.JPG,AFNE01.JPG,AFNE01.JPG,AFNE01.JPG,AFNE01.JPG,AFNE01.JPG,,,,,,,,,,,,,,,,,0,8,8,4,,,,,,,AFNE10.jpg,AFSA03.jpg,AFSA13.jpg,AFNE19.jpg,AFSA03.jpg,FS,4,num_6,16,num_6,0.700177048488,,,2017_Jun_22_1445,60.0015780823,FEMA4ImagesEEG,001,100655,
AFNE01.JPG,AFNE01.JPG,AFNE01.JPG,AFNE01.JPG,AFNE01.JPG,AFNE01.JPG,,,,,,,,,,,,,,,,,0,9,9,8,,,,,,,AFNE13.jpg,AFSA11.jpg,AFSA17.jpg,AFNE18.jpg,AFSA11.jpg,FS,4,num_6,16,num_6,0.466921120409,,,2017_Jun_22_1445,60.0015780823,FEMA4ImagesEEG,001,100655,
AFNE01.JPG,AFNE01.JPG,AFNE01.JPG,AFNE01.JPG,AFNE01.JPG,AFNE01.JPG,,,,,,,,,,,,,,,,,1,0,10,4,,,,,,,AFSA11.jpg,AFNE02.jpg,AFNE15.jpg,AFSA17.jpg,AFNE15.jpg,FN,3,num_2,16,num_2,0.683487341996,,,2017_Jun_22_1445,60.0015780823,FEMA4ImagesEEG,001,100655,
AFNE01.JPG,AFNE01.JPG,AFNE01.JPG,AFNE01.JPG,AFNE01.JPG,AFNE01.JPG,,,,,,,,,,,,,,,,,1,1,11,7,,,,,,,AFNE11.jpg,AFSA10.jpg,AFSA05.jpg,AFNE13.jpg,AFNE13.jpg,FN,3,num_4,32,num_8,0.616769891494,,,2017_Jun_22_1445,60.0015780823,FEMA4ImagesEEG,001,100655,
AFNE01.JPG,AFNE01.JPG,AFNE01.JPG,AFNE01.JPG,AFNE01.JPG,AFNE01.JPG,,,,,,,,,,,,,,,,,1,2,12,9,,,,,,,AFNE03.jpg,AFSA05.jpg,AFNE05.jpg,AFSA10.jpg,AFNE05.jpg,FN,3,num_2,32,num_6,0.750123645275,,,2017_Jun_22_1445,60.0015780823,FEMA4ImagesEEG,001,100655,
AFNE01.JPG,AFNE01.JPG,AFNE01.JPG,AFNE01.JPG,AFNE01.JPG,AFNE01.JPG,,,,,,,,,,,,,,,,,1,3,13,2,,,,,,,AFSA01.jpg,AFNE09.jpg,AFSA19.jpg,AFNE11.jpg,AFNE11.jpg,FN,3,num_4,32,num_8,0.666765882244,,,2017_Jun_22_1445,60.0015780823,FEMA4ImagesEEG,001,100655,
AFNE01.JPG,AFNE01.JPG,AFNE01.JPG,AFNE01.JPG,AFNE01.JPG,AFNE01.JPG,,,,,,,,,,,,,,,,,1,4,14,3,,,,,,,AFNE01.jpg,AFSA12.jpg,AFSA17.jpg,AFNE03.jpg,AFSA12.jpg,FS,4,num_6,16,num_6,0.883492153096,,,2017_Jun_22_1445,60.0015780823,FEMA4ImagesEEG,001,100655,
AFNE01.JPG,AFNE01.JPG,AFNE01.JPG,AFNE01.JPG,AFNE01.JPG,AFNE01.JPG,,,,,,,,,,,,,,,,,1,5,15,1,,,,,,,AFSA04.jpg,AFNE19.jpg,AFSA14.jpg,AFNE01.jpg,AFSA04.jpg,FS,4,num_8,32,num_2,1.91666468877,,,2017_Jun_22_1445,60.0015780823,FEMA4ImagesEEG,001,100655,
AFNE01.JPG,AFNE01.JPG,AFNE01.JPG,AFNE01.JPG,AFNE01.JPG,AFNE01.JPG,,,,,,,,,,,,,,,,,1,6,16,0,,,,,,,AFSA11.jpg,AFNE10.jpg,AFNE09.jpg,AFSA13.jpg,AFNE10.jpg,FN,3,num_6,16,num_6,0.466766844464,,,2017_Jun_22_1445,60.0015780823,FEMA4ImagesEEG,001,100655,
AFNE01.JPG,AFNE01.JPG,AFNE01.JPG,AFNE01.JPG,AFNE01.JPG,AFNE01.JPG,,,,,,,,,,,,,,,,,1,7,17,8,,,,,,,AFSA13.jpg,AFSA19.jpg,AFNE09.jpg,AFNE14.jpg,AFSA13.jpg,FS,4,num_8,16,num_8,1.11673717601,,,2017_Jun_22_1445,60.0015780823,FEMA4ImagesEEG,001,100655,
AFNE01.JPG,AFNE01.JPG,AFNE01.JPG,AFNE01.JPG,AFNE01.JPG,AFNE01.JPG,,,,,,,,,,,,,,,,,1,8,18,5,,,,,,,AFNE07.jpg,AFNE01.jpg,AFSA20.jpg,AFSA02.jpg,AFNE07.jpg,FN,3,num_8,32,num_6,0.950070723173,,,2017_Jun_22_1445,60.0015780823,FEMA4ImagesEEG,001,100655,
AFNE01.JPG,AFNE01.JPG,AFNE01.JPG,AFNE01.JPG,AFNE01.JPG,AFNE01.JPG,,,,,,,,,,,,,,,,,1,9,19,6,,,,,,,AFSA18.jpg,AFSA16.jpg,AFNE16.jpg,AFNE05.jpg,AFNE05.jpg,FN,3,num_4,32,num_8,0.683474512394,,,2017_Jun_22_1445,60.0015780823,FEMA4ImagesEEG,001,100655,
AFNE01.JPG,AFNE01.JPG,AFNE01.JPG,AFNE01.JPG,AFNE01.JPG,AFNE01.JPG,,,,,,,,,,,,,,,,,2,0,20,0,,,,,,,AFNE15.jpg,AFNE05.jpg,AFSA05.jpg,AFSA15.jpg,AFSA05.jpg,FS,4,num_2,32,num_4,0.766788975525,,,2017_Jun_22_1445,60.0015780823,FEMA4ImagesEEG,001,100655,
AFNE01.JPG,AFNE01.JPG,AFNE01.JPG,AFNE01.JPG,AFNE01.JPG,AFNE01.JPG,,,,,,,,,,,,,,,,,2,1,21,5,,,,,,,AFSA04.jpg,AFNE12.jpg,AFNE17.jpg,AFSA07.jpg,AFSA04.jpg,FS,4,num_8,32,num_6,0.583477078315,,,2017_Jun_22_1445,60.0015780823,FEMA4ImagesEEG,001,100655,
AFNE01.JPG,AFNE01.JPG,AFNE01.JPG,AFNE01.JPG,AFNE01.JPG,AFNE01.JPG,,,,,,,,,,,,,,,,,2,2,22,3,,,,,,,AFSA02.jpg,AFNE15.jpg,AFSA01.jpg,AFNE20.jpg,AFNE20.jpg,FN,3,num_4,32,num_8,0.666750165981,,,2017_Jun_22_1445,60.0015780823,FEMA4ImagesEEG,001,100655,
AFNE01.JPG,AFNE01.JPG,AFNE01.JPG,AFNE01.JPG,AFNE01.JPG,AFNE01.JPG,,,,,,,,,,,,,,,,,2,3,23,8,,,,,,,AFNE08.jpg,AFSA05.jpg,AFNE05.jpg,AFSA11.jpg,AFSA05.jpg,FS,4,num_6,32,num_2,0.550170794055,,,2017_Jun_22_1445,60.0015780823,FEMA4ImagesEEG,001,100655,
AFNE01.JPG,AFNE01.JPG,AFNE01.JPG,AFNE01.JPG,AFNE01.JPG,AFNE01.JPG,,,,,,,,,,,,,,,,,2,4,24,4,,,,,,,AFNE10.jpg,AFSA16.jpg,AFSA07.jpg,AFNE01.jpg,AFSA07.jpg,FS,4,num_2,32,num_4,0.666680886139,,,2017_Jun_22_1445,60.0015780823,FEMA4ImagesEEG,001,100655,
AFNE01.JPG,AFNE01.JPG,AFNE01.JPG,AFNE01.JPG,AFNE01.JPG,AFNE01.JPG,,,,,,,,,,,,,,,,,2,5,25,6,,,,,,,AFSA14.jpg,AFNE02.jpg,AFSA08.jpg,AFNE01.jpg,AFSA14.jpg,FS,4,num_8,16,num_8,0.333511878607,,,2017_Jun_22_1445,60.0015780823,FEMA4ImagesEEG,001,100655,
AFNE01.JPG,AFNE01.JPG,AFNE01.JPG,AFNE01.JPG,AFNE01.JPG,AFNE01.JPG,,,,,,,,,,,,,,,,,2,6,26,2,,,,,,,AFSA12.jpg,AFNE18.jpg,AFSA05.jpg,AFNE04.jpg,AFNE18.jpg,FN,3,num_6,16,num_6,0.516767004832,,,2017_Jun_22_1445,60.0015780823,FEMA4ImagesEEG,001,100655,
AFNE01.JPG,AFNE01.JPG,AFNE01.JPG,AFNE01.JPG,AFNE01.JPG,AFNE01.JPG,,,,,,,,,,,,,,,,,2,7,27,7,,,,,,,AFSA18.jpg,AFNE08.jpg,AFSA20.jpg,AFNE14.jpg,AFNE08.jpg,FN,3,num_6,16,num_6,0.633498407526,,,2017_Jun_22_1445,60.0015780823,FEMA4ImagesEEG,001,100655,
AFNE01.JPG,AFNE01.JPG,AFNE01.JPG,AFNE01.JPG,AFNE01.JPG,AFNE01.JPG,,,,,,,,,,,,,,,,,2,8,28,1,,,,,,,AFNE16.jpg,AFNE09.jpg,AFSA05.jpg,AFSA08.jpg,AFSA05.jpg,FS,4,num_2,16,num_2,1.50004458286,,,2017_Jun_22_1445,60.0015780823,FEMA4ImagesEEG,001,100655,
AFNE01.JPG,AFNE01.JPG,AFNE01.JPG,AFNE01.JPG,AFNE01.JPG,AFNE01.JPG,,,,,,,,,,,,,,,,,2,9,29,9,,,,,,,AFNE10.jpg,AFSA20.jpg,AFSA14.jpg,AFNE08.jpg,AFSA20.jpg,FS,4,num_6,16,num_6,0.366804371046,,,2017_Jun_22_1445,60.0015780823,FEMA4ImagesEEG,001,100655,
AFNE01.JPG,AFNE01.JPG,AFNE01.JPG,AFNE01.JPG,AFNE01.JPG,AFNE01.JPG,,,,,,,,,,,,,,,,,3,0,30,9,,,,,,,AFSA09.jpg,AFSA20.jpg,AFNE20.jpg,AFNE01.jpg,AFSA20.jpg,FS,4,num_6,32,num_8,0.383542830017,,,2017_Jun_22_1445,60.0015780823,FEMA4ImagesEEG,001,100655,
AFNE01.JPG,AFNE01.JPG,AFNE01.JPG,AFNE01.JPG,AFNE01.JPG,AFNE01.JPG,,,,,,,,,,,,,,,,,3,1,31,3,,,,,,,AFSA03.jpg,AFNE02.jpg,AFNE09.jpg,AFSA16.jpg,AFNE09.jpg,FN,3,num_2,32,num_6,0.600004169621,,,2017_Jun_22_1445,60.0015780823,FEMA4ImagesEEG,001,100655,
AFNE01.JPG,AFNE01.JPG,AFNE01.JPG,AFNE01.JPG,AFNE01.JPG,AFNE01.JPG,,,,,,,,,,,,,,,,,3,2,32,2,,,,,,,AFNE04.jpg,AFSA19.jpg,AFNE02.jpg,AFSA01.jpg,AFSA01.jpg,FS,4,num_4,32,num_8,0.650121400095,,,2017_Jun_22_1445,60.0015780823,FEMA4ImagesEEG,001,100655,
AFNE01.JPG,AFNE01.JPG,AFNE01.JPG,AFNE01.JPG,AFNE01.JPG,AFNE01.JPG,,,,,,,,,,,,,,,,,3,3,33,6,,,,,,,AFSA04.jpg,AFNE07.jpg,AFSA19.jpg,AFNE03.jpg,AFNE03.jpg,FN,3,num_4,32,num_2,1.83337043226,,,2017_Jun_22_1445,60.0015780823,FEMA4ImagesEEG,001,100655,
AFNE01.JPG,AFNE01.JPG,AFNE01.JPG,AFNE01.JPG,AFNE01.JPG,AFNE01.JPG,,,,,,,,,,,,,,,,,3,4,34,4,,,,,,,AFSA11.jpg,AFSA20.jpg,AFNE11.jpg,AFNE04.jpg,AFSA11.jpg,FS,4,num_8,16,num_8,0.600065110222,,,2017_Jun_22_1445,60.0015780823,FEMA4ImagesEEG,001,100655,
AFNE01.JPG,AFNE01.JPG,AFNE01.JPG,AFNE01.JPG,AFNE01.JPG,AFNE01.JPG,,,,,,,,,,,,,,,,,3,5,35,0,,,,,,,AFSA04.jpg,AFSA18.jpg,AFNE10.jpg,AFNE12.jpg,AFNE12.jpg,FN,3,num_4,16,num_4,0.550157002235,,,2017_Jun_22_1445,60.0015780823,FEMA4ImagesEEG,001,100655,
AFNE01.JPG,AFNE01.JPG,AFNE01.JPG,AFNE01.JPG,AFNE01.JPG,AFNE01.JPG,,,,,,,,,,,,,,,,,3,6,36,1,,,,,,,AFSA11.jpg,AFNE12.jpg,AFSA02.jpg,AFNE20.jpg,AFSA02.jpg,FS,4,num_2,32,num_8,0.850081949073,,,2017_Jun_22_1445,60.0015780823,FEMA4ImagesEEG,001,100655,
AFNE01.JPG,AFNE01.JPG,AFNE01.JPG,AFNE01.JPG,AFNE01.JPG,AFNE01.JPG,,,,,,,,,,,,,,,,,3,7,37,5,,,,,,,AFSA07.jpg,AFNE12.jpg,AFSA08.jpg,AFNE06.jpg,AFNE06.jpg,FN,3,num_4,32,num_8,0.766798597724,,,2017_Jun_22_1445,60.0015780823,FEMA4ImagesEEG,001,100655,
AFNE01.JPG,AFNE01.JPG,AFNE01.JPG,AFNE01.JPG,AFNE01.JPG,AFNE01.JPG,,,,,,,,,,,,,,,,,3,8,38,8,,,,,,,AFNE18.jpg,AFSA02.jpg,AFSA07.jpg,AFNE16.jpg,AFNE18.jpg,FN,3,num_8,32,num_4,0.883476757575,,,2017_Jun_22_1445,60.0015780823,FEMA4ImagesEEG,001,100655,
AFNE01.JPG,AFNE01.JPG,AFNE01.JPG,AFNE01.JPG,AFNE01.JPG,AFNE01.JPG,,,,,,,,,,,,,,,,,3,9,39,7,,,,,,,AFNE03.jpg,AFNE02.jpg,AFSA04.jpg,AFSA10.jpg,AFNE02.jpg,FN,3,num_6,16,num_6,2.30003560214,,,2017_Jun_22_1445,60.0015780823,FEMA4ImagesEEG,001,100655,
AFNE01.JPG,AFNE01.JPG,AFNE01.JPG,AFNE01.JPG,AFNE01.JPG,AFNE01.JPG,,,,,,,,,,,,,,,,,4,0,40,3,,,,,,,AFSA16.jpg,AFNE18.jpg,AFSA11.jpg,AFNE07.jpg,AFNE07.jpg,FN,3,num_4,16,num_4,0.63332713236,,,2017_Jun_22_1445,60.0015780823,FEMA4ImagesEEG,001,100655,
AFNE01.JPG,AFNE01.JPG,AFNE01.JPG,AFNE01.JPG,AFNE01.JPG,AFNE01.JPG,,,,,,,,,,,,,,,,,4,1,41,8,,,,,,,AFNE05.jpg,AFSA04.jpg,AFSA07.jpg,AFNE19.jpg,AFNE19.jpg,FN,3,num_4,32,num_6,1.53338133742,,,2017_Jun_22_1445,60.0015780823,FEMA4ImagesEEG,001,100655,
AFNE01.JPG,AFNE01.JPG,AFNE01.JPG,AFNE01.JPG,AFNE01.JPG,AFNE01.JPG,,,,,,,,,,,,,,,,,4,2,42,6,,,,,,,AFSA11.jpg,AFNE16.jpg,AFNE10.jpg,AFSA14.jpg,AFSA11.jpg,FS,4,num_8,16,num_8,0.416894980099,,,2017_Jun_22_1445,60.0015780823,FEMA4ImagesEEG,001,100655,
AFNE01.JPG,AFNE01.JPG,AFNE01.JPG,AFNE01.JPG,AFNE01.JPG,AFNE01.JPG,,,,,,,,,,,,,,,,,4,3,43,2,,,,,,,AFNE01.jpg,AFSA18.jpg,AFNE02.jpg,AFSA19.jpg,AFNE01.jpg,FN,3,num_8,16,num_8,0.933411807722,,,2017_Jun_22_1445,60.0015780823,FEMA4ImagesEEG,001,100655,
AFNE01.JPG,AFNE01.JPG,AFNE01.JPG,AFNE01.JPG,AFNE01.JPG,AFNE01.JPG,,,,,,,,,,,,,,,,,4,4,44,1,,,,,,,AFSA16.jpg,AFNE17.jpg,AFSA05.jpg,AFNE15.jpg,AFNE15.jpg,FN,3,num_4,32,num_8,1.30011835306,,,2017_Jun_22_1445,60.0015780823,FEMA4ImagesEEG,001,100655,
AFNE01.JPG,AFNE01.JPG,AFNE01.JPG,AFNE01.JPG,AFNE01.JPG,AFNE01.JPG,,,,,,,,,,,,,,,,,4,5,45,4,,,,,,,AFSA01.jpg,AFNE18.jpg,AFSA07.jpg,AFNE10.jpg,AFSA01.jpg,FS,4,num_8,16,num_8,1.03351219935,,,2017_Jun_22_1445,60.0015780823,FEMA4ImagesEEG,001,100655,
AFNE01.JPG,AFNE01.JPG,AFNE01.JPG,AFNE01.JPG,AFNE01.JPG,AFNE01.JPG,,,,,,,,,,,,,,,,,4,6,46,7,,,,,,,AFNE08.jpg,AFSA10.jpg,AFSA01.jpg,AFNE16.jpg,AFSA10.jpg,FS,4,num_6,16,num_6,0.550147059295,,,2017_Jun_22_1445,60.0015780823,FEMA4ImagesEEG,001,100655,
AFNE01.JPG,AFNE01.JPG,AFNE01.JPG,AFNE01.JPG,AFNE01.JPG,AFNE01.JPG,,,,,,,,,,,,,,,,,4,7,47,9,,,,,,,AFNE02.jpg,AFSA01.jpg,AFNE16.jpg,AFSA14.jpg,AFSA01.jpg,FS,4,num_6,32,num_4,0.633418864003,,,2017_Jun_22_1445,60.0015780823,FEMA4ImagesEEG,001,100655,
AFNE01.JPG,AFNE01.JPG,AFNE01.JPG,AFNE01.JPG,AFNE01.JPG,AFNE01.JPG,,,,,,,,,,,,,,,,,4,8,48,0,,,,,,,AFSA02.jpg,AFNE08.jpg,AFNE18.jpg,AFSA07.jpg,AFSA07.jpg,FS,4,num_4,16,num_4,0.516814474355,,,2017_Jun_22_1445,60.0015780823,FEMA4ImagesEEG,001,100655,
AFNE01.JPG,AFNE01.JPG,AFNE01.JPG,AFNE01.JPG,AFNE01.JPG,AFNE01.JPG,,,,,,,,,,,,,,,,,4,9,49,5,,,,,,,AFNE03.jpg,AFNE08.jpg,AFSA03.jpg,AFSA16.jpg,AFSA16.jpg,FS,4,num_4,32,num_6,0.516799720315,,,2017_Jun_22_1445,60.0015780823,FEMA4ImagesEEG,001,100655,
AFNE01.JPG,AFNE01.JPG,AFNE01.JPG,AFNE01.JPG,AFNE01.JPG,AFNE01.JPG,,,,,,,,,,,,,,,,,5,0,50,6,,,,,,,AFSA18.jpg,AFNE10.jpg,AFNE17.jpg,AFSA12.jpg,AFNE17.jpg,FN,3,num_2,32,num_8,0.566863387208,,,2017_Jun_22_1445,60.0015780823,FEMA4ImagesEEG,001,100655,
AFNE01.JPG,AFNE01.JPG,AFNE01.JPG,AFNE01.JPG,AFNE01.JPG,AFNE01.JPG,,,,,,,,,,,,,,,,,5,1,51,5,,,,,,,AFSA15.jpg,AFSA02.jpg,AFNE18.jpg,AFNE09.jpg,AFNE09.jpg,FN,3,num_4,16,num_4,0.383492794575,,,2017_Jun_22_1445,60.0015780823,FEMA4ImagesEEG,001,100655,
AFNE01.JPG,AFNE01.JPG,AFNE01.JPG,AFNE01.JPG,AFNE01.JPG,AFNE01.JPG,,,,,,,,,,,,,,,,,5,2,52,1,,,,,,,AFNE18.jpg,AFSA18.jpg,AFSA20.jpg,AFNE09.jpg,AFNE18.jpg,FN,3,num_8,16,num_8,0.933430731384,,,2017_Jun_22_1445,60.0015780823,FEMA4ImagesEEG,001,100655,
AFNE01.JPG,AFNE01.JPG,AFNE01.JPG,AFNE01.JPG,AFNE01.JPG,AFNE01.JPG,,,,,,,,,,,,,,,,,5,3,53,3,,,,,,,AFSA14.jpg,AFSA13.jpg,AFNE08.jpg,AFNE12.jpg,AFNE08.jpg,FN,3,num_2,16,num_2,1.71669515907,,,2017_Jun_22_1445,60.0015780823,FEMA4ImagesEEG,001,100655,
AFNE01.JPG,AFNE01.JPG,AFNE01.JPG,AFNE01.JPG,AFNE01.JPG,AFNE01.JPG,,,,,,,,,,,,,,,,,5,4,54,9,,,,,,,AFNE19.jpg,AFSA07.jpg,AFSA12.jpg,AFNE08.jpg,AFNE19.jpg,FN,3,num_8,16,num_8,1.56669403648,,,2017_Jun_22_1445,60.0015780823,FEMA4ImagesEEG,001,100655,
AFNE01.JPG,AFNE01.JPG,AFNE01.JPG,AFNE01.JPG,AFNE01.JPG,AFNE01.JPG,,,,,,,,,,,,,,,,,5,5,55,7,,,,,,,AFSA16.jpg,AFNE11.jpg,AFSA08.jpg,AFNE14.jpg,AFSA08.jpg,FS,4,num_2,16,num_2,0.616771815934,,,2017_Jun_22_1445,60.0015780823,FEMA4ImagesEEG,001,100655,
AFNE01.JPG,AFNE01.JPG,AFNE01.JPG,AFNE01.JPG,AFNE01.JPG,AFNE01.JPG,,,,,,,,,,,,,,,,,5,6,56,4,,,,,,,AFNE08.jpg,AFSA10.jpg,AFNE09.jpg,AFSA13.jpg,AFSA10.jpg,FS,4,num_6,16,num_6,0.550171435536,,,2017_Jun_22_1445,60.0015780823,FEMA4ImagesEEG,001,100655,
AFNE01.JPG,AFNE01.JPG,AFNE01.JPG,AFNE01.JPG,AFNE01.JPG,AFNE01.JPG,,,,,,,,,,,,,,,,,5,7,57,2,,,,,,,AFSA07.jpg,AFSA17.jpg,AFNE14.jpg,AFNE03.jpg,AFSA17.jpg,FS,4,num_6,32,num_8,0.750102797174,,,2017_Jun_22_1445,60.0015780823,FEMA4ImagesEEG,001,100655,
AFNE01.JPG,AFNE01.JPG,AFNE01.JPG,AFNE01.JPG,AFNE01.JPG,AFNE01.JPG,,,,,,,,,,,,,,,,,5,8,58,8,,,,,,,AFNE12.jpg,AFNE20.jpg,AFSA19.jpg,AFSA01.jpg,AFSA19.jpg,FS,4,num_2,32,num_4,0.966769410385,,,2017_Jun_22_1445,60.0015780823,FEMA4ImagesEEG,001,100655,
AFNE01.JPG,AFNE01.JPG,AFNE01.JPG,AFNE01.JPG,AFNE01.JPG,AFNE01.JPG,,,,,,,,,,,,,,,,,5,9,59,0,,,,,,,AFNE12.jpg,AFNE11.jpg,AFSA04.jpg,AFSA11.jpg,AFSA04.jpg,FS,4,num_2,16,num_2,1.68336546079,,,2017_Jun_22_1445,60.0015780823,FEMA4ImagesEEG,001,100655,
,,,,,,,,,,,,,,,,,,,,,,,,,,,,,,,,,,,,,,,,,,,space,88.193399812,2017_Jun_22_1445,60.0015780823,FEMA4ImagesEEG,001,100655,
AFNE01.JPG,AFNE01.JPG,AFNE01.JPG,AFNE01.JPG,AFNE01.JPG,AFNE01.JPG,,,,,,,,,,,,,,,,,,,,,0,0,0,9,,,AMNE07.jpg,AMNE14.jpg,AMSA11.jpg,AMSA15.jpg,AMSA15.jpg,MS,2,num_4,32,num_8,0.683449173932,,,2017_Jun_22_1445,60.0015780823,FEMA4ImagesEEG,001,100655,
AFNE01.JPG,AFNE01.JPG,AFNE01.JPG,AFNE01.JPG,AFNE01.JPG,AFNE01.JPG,,,,,,,,,,,,,,,,,,,,,0,1,1,3,,,AMNE15.jpg,AMNE10.jpg,AMSA13.jpg,AMSA17.jpg,AMSA13.jpg,MS,2,num_2,32,num_4,2.08321214707,,,2017_Jun_22_1445,60.0015780823,FEMA4ImagesEEG,001,100655,
AFNE01.JPG,AFNE01.JPG,AFNE01.JPG,AFNE01.JPG,AFNE01.JPG,AFNE01.JPG,,,,,,,,,,,,,,,,,,,,,0,2,2,8,,,AMSA07.jpg,AMNE01.jpg,AMNE06.jpg,AMSA16.jpg,AMNE01.jpg,MN,1,num_6,16,num_6,2.36666741506,,,2017_Jun_22_1445,60.0015780823,FEMA4ImagesEEG,001,100655,
AFNE01.JPG,AFNE01.JPG,AFNE01.JPG,AFNE01.JPG,AFNE01.JPG,AFNE01.JPG,,,,,,,,,,,,,,,,,,,,,0,3,3,5,,,AMSA07.jpg,AMNE13.jpg,AMNE20.jpg,AMSA19.jpg,AMNE13.jpg,MN,1,num_6,16,num_6,0.783465210934,,,2017_Jun_22_1445,60.0015780823,FEMA4ImagesEEG,001,100655,
AFNE01.JPG,AFNE01.JPG,AFNE01.JPG,AFNE01.JPG,AFNE01.JPG,AFNE01.JPG,,,,,,,,,,,,,,,,,,,,,0,4,4,4,,,AMSA04.jpg,AMNE09.jpg,AMNE10.jpg,AMSA11.jpg,AMNE10.jpg,MN,1,num_2,32,num_6,0.900186991428,,,2017_Jun_22_1445,60.0015780823,FEMA4ImagesEEG,001,100655,
AFNE01.JPG,AFNE01.JPG,AFNE01.JPG,AFNE01.JPG,AFNE01.JPG,AFNE01.JPG,,,,,,,,,,,,,,,,,,,,,0,5,5,1,,,AMNE15.jpg,AMSA05.jpg,AMSA15.jpg,AMNE14.jpg,AMSA05.jpg,MS,2,num_6,32,num_8,1.01672627085,,,2017_Jun_22_1445,60.0015780823,FEMA4ImagesEEG,001,100655,
AFNE01.JPG,AFNE01.JPG,AFNE01.JPG,AFNE01.JPG,AFNE01.JPG,AFNE01.JPG,,,,,,,,,,,,,,,,,,,,,0,6,6,2,,,AMNE07.jpg,AMNE08.jpg,AMSA15.jpg,AMSA04.jpg,AMSA15.jpg,MS,2,num_2,16,num_2,0.533501294183,,,2017_Jun_22_1445,60.0015780823,FEMA4ImagesEEG,001,100655,
AFNE01.JPG,AFNE01.JPG,AFNE01.JPG,AFNE01.JPG,AFNE01.JPG,AFNE01.JPG,,,,,,,,,,,,,,,,,,,,,0,7,7,6,,,AMSA17.jpg,AMNE05.jpg,AMSA04.jpg,AMNE09.jpg,AMNE05.jpg,MN,1,num_6,16,num_6,0.600130861927,,,2017_Jun_22_1445,60.0015780823,FEMA4ImagesEEG,001,100655,
AFNE01.JPG,AFNE01.JPG,AFNE01.JPG,AFNE01.JPG,AFNE01.JPG,AFNE01.JPG,,,,,,,,,,,,,,,,,,,,,0,8,8,0,,,AMSA04.jpg,AMNE12.jpg,AMSA02.jpg,AMNE11.jpg,AMSA04.jpg,MS,2,num_8,16,num_8,0.766800201425,,,2017_Jun_22_1445,60.0015780823,FEMA4ImagesEEG,001,100655,
AFNE01.JPG,AFNE01.JPG,AFNE01.JPG,AFNE01.JPG,AFNE01.JPG,AFNE01.JPG,,,,,,,,,,,,,,,,,,,,,0,9,9,7,,,AMNE15.jpg,AMNE04.jpg,AMSA01.jpg,AMSA07.jpg,AMSA07.jpg,MS,2,num_4,16,num_4,1.38343474063,,,2017_Jun_22_1445,60.0015780823,FEMA4ImagesEEG,001,100655,
AFNE01.JPG,AFNE01.JPG,AFNE01.JPG,AFNE01.JPG,AFNE01.JPG,AFNE01.JPG,,,,,,,,,,,,,,,,,,,,,1,0,10,2,,,AMSA05.jpg,AMNE03.jpg,AMSA14.jpg,AMNE19.jpg,AMSA05.jpg,MS,2,num_8,16,num_8,1.40004105472,,,2017_Jun_22_1445,60.0015780823,FEMA4ImagesEEG,001,100655,
AFNE01.JPG,AFNE01.JPG,AFNE01.JPG,AFNE01.JPG,AFNE01.JPG,AFNE01.JPG,,,,,,,,,,,,,,,,,,,,,1,1,11,7,,,AMNE11.jpg,AMNE06.jpg,AMSA10.jpg,AMSA20.jpg,AMNE11.jpg,MN,1,num_8,32,num_4,0.933442278027,,,2017_Jun_22_1445,60.0015780823,FEMA4ImagesEEG,001,100655,
AFNE01.JPG,AFNE01.JPG,AFNE01.JPG,AFNE01.JPG,AFNE01.JPG,AFNE01.JPG,,,,,,,,,,,,,,,,,,,,,1,2,12,6,,,AMSA01.jpg,AMNE07.jpg,AMNE01.jpg,AMSA07.jpg,AMNE07.jpg,MN,1,num_6,16,num_6,0.600122843425,,,2017_Jun_22_1445,60.0015780823,FEMA4ImagesEEG,001,100655,
AFNE01.JPG,AFNE01.JPG,AFNE01.JPG,AFNE01.JPG,AFNE01.JPG,AFNE01.JPG,,,,,,,,,,,,,,,,,,,,,1,3,13,1,,,AMNE11.jpg,AMSA19.jpg,AMSA20.jpg,AMNE18.jpg,AMSA19.jpg,MS,2,num_6,32,num_8,0.850209924338,,,2017_Jun_22_1445,60.0015780823,FEMA4ImagesEEG,001,100655,
AFNE01.JPG,AFNE01.JPG,AFNE01.JPG,AFNE01.JPG,AFNE01.JPG,AFNE01.JPG,,,,,,,,,,,,,,,,,,,,,1,4,14,0,,,AMNE12.jpg,AMSA18.jpg,AMNE19.jpg,AMSA08.jpg,AMSA18.jpg,MS,2,num_6,16,num_6,0.566750807462,,,2017_Jun_22_1445,60.0015780823,FEMA4ImagesEEG,001,100655,
AFNE01.JPG,AFNE01.JPG,AFNE01.JPG,AFNE01.JPG,AFNE01.JPG,AFNE01.JPG,,,,,,,,,,,,,,,,,,,,,1,5,15,8,,,AMNE02.jpg,AMSA18.jpg,AMSA07.jpg,AMNE04.jpg,AMSA18.jpg,MS,2,num_6,16,num_6,0.433467295745,,,2017_Jun_22_1445,60.0015780823,FEMA4ImagesEEG,001,100655,
AFNE01.JPG,AFNE01.JPG,AFNE01.JPG,AFNE01.JPG,AFNE01.JPG,AFNE01.JPG,,,,,,,,,,,,,,,,,,,,,1,6,16,3,,,AMSA05.jpg,AMSA11.jpg,AMNE19.jpg,AMNE05.jpg,AMSA11.jpg,MS,2,num_6,16,num_6,0.533452862444,,,2017_Jun_22_1445,60.0015780823,FEMA4ImagesEEG,001,100655,
AFNE01.JPG,AFNE01.JPG,AFNE01.JPG,AFNE01.JPG,AFNE01.JPG,AFNE01.JPG,,,,,,,,,,,,,,,,,,,,,1,7,17,9,,,AMSA20.jpg,AMNE01.jpg,AMSA02.jpg,AMNE20.jpg,AMNE01.jpg,MN,1,num_6,16,num_6,1.10013342784,,,2017_Jun_22_1445,60.0015780823,FEMA4ImagesEEG,001,100655,
AFNE01.JPG,AFNE01.JPG,AFNE01.JPG,AFNE01.JPG,AFNE01.JPG,AFNE01.JPG,,,,,,,,,,,,,,,,,,,,,1,8,18,5,,,AMNE05.jpg,AMNE15.jpg,AMSA08.jpg,AMSA01.jpg,AMSA01.jpg,MS,2,num_4,16,num_4,0.833437146182,,,2017_Jun_22_1445,60.0015780823,FEMA4ImagesEEG,001,100655,
AFNE01.JPG,AFNE01.JPG,AFNE01.JPG,AFNE01.JPG,AFNE01.JPG,AFNE01.JPG,,,,,,,,,,,,,,,,,,,,,1,9,19,4,,,AMSA05.jpg,AMNE20.jpg,AMNE18.jpg,AMSA14.jpg,AMSA14.jpg,MS,2,num_4,32,num_8,0.666860500547,,,2017_Jun_22_1445,60.0015780823,FEMA4ImagesEEG,001,100655,
AFNE01.JPG,AFNE01.JPG,AFNE01.JPG,AFNE01.JPG,AFNE01.JPG,AFNE01.JPG,,,,,,,,,,,,,,,,,,,,,2,0,20,1,,,AMNE12.jpg,AMSA17.jpg,AMNE13.jpg,AMSA01.jpg,AMSA17.jpg,MS,2,num_6,16,num_6,0.733477238686,,,2017_Jun_22_1445,60.0015780823,FEMA4ImagesEEG,001,100655,
AFNE01.JPG,AFNE01.JPG,AFNE01.JPG,AFNE01.JPG,AFNE01.JPG,AFNE01.JPG,,,,,,,,,,,,,,,,,,,,,2,1,21,3,,,AMSA08.jpg,AMNE19.jpg,AMNE04.jpg,AMSA15.jpg,AMNE04.jpg,MN,1,num_2,32,num_8,0.58353513226,,,2017_Jun_22_1445,60.0015780823,FEMA4ImagesEEG,001,100655,
AFNE01.JPG,AFNE01.JPG,AFNE01.JPG,AFNE01.JPG,AFNE01.JPG,AFNE01.JPG,,,,,,,,,,,,,,,,,,,,,2,2,22,9,,,AMSA10.jpg,AMSA01.jpg,AMNE15.jpg,AMNE13.jpg,AMNE13.jpg,MN,1,num_4,16,num_4,0.81676540113,,,2017_Jun_22_1445,60.0015780823,FEMA4ImagesEEG,001,100655,
AFNE01.JPG,AFNE01.JPG,AFNE01.JPG,AFNE01.JPG,AFNE01.JPG,AFNE01.JPG,,,,,,,,,,,,,,,,,,,,,2,3,23,7,,,AMNE10.jpg,AMNE06.jpg,AMSA04.jpg,AMSA07.jpg,AMSA07.jpg,MS,2,num_4,32,num_8,0.833438108402,,,2017_Jun_22_1445,60.0015780823,FEMA4ImagesEEG,001,100655,
AFNE01.JPG,AFNE01.JPG,AFNE01.JPG,AFNE01.JPG,AFNE01.JPG,AFNE01.JPG,,,,,,,,,,,,,,,,,,,,,2,4,24,8,,,AMNE18.jpg,AMSA20.jpg,AMSA16.jpg,AMNE10.jpg,AMNE18.jpg,MN,1,num_8,32,num_6,1.23306220111,,,2017_Jun_22_1445,60.0015780823,FEMA4ImagesEEG,001,100655,
AFNE01.JPG,AFNE01.JPG,AFNE01.JPG,AFNE01.JPG,AFNE01.JPG,AFNE01.JPG,,,,,,,,,,,,,,,,,,,,,2,5,25,6,,,AMNE06.jpg,AMNE09.jpg,AMSA18.jpg,AMSA11.jpg,AMNE09.jpg,MN,1,num_6,16,num_6,1.06675978818,,,2017_Jun_22_1445,60.0015780823,FEMA4ImagesEEG,001,100655,
AFNE01.JPG,AFNE01.JPG,AFNE01.JPG,AFNE01.JPG,AFNE01.JPG,AFNE01.JPG,,,,,,,,,,,,,,,,,,,,,2,6,26,2,,,AMNE07.jpg,AMNE01.jpg,AMSA01.jpg,AMSA16.jpg,AMNE01.jpg,MN,1,num_6,16,num_6,0.766768127425,,,2017_Jun_22_1445,60.0015780823,FEMA4ImagesEEG,001,100655,
AFNE01.JPG,AFNE01.JPG,AFNE01.JPG,AFNE01.JPG,AFNE01.JPG,AFNE01.JPG,,,,,,,,,,,,,,,,,,,,,2,7,27,0,,,AMSA17.jpg,AMSA11.jpg,AMNE10.jpg,AMNE11.jpg,AMSA11.jpg,MS,2,num_6,16,num_6,0.66675561856,,,2017_Jun_22_1445,60.0015780823,FEMA4ImagesEEG,001,100655,
AFNE01.JPG,AFNE01.JPG,AFNE01.JPG,AFNE01.JPG,AFNE01.JPG,AFNE01.JPG,,,,,,,,,,,,,,,,,,,,,2,8,28,4,,,AMSA08.jpg,AMNE12.jpg,AMSA04.jpg,AMNE10.jpg,AMNE10.jpg,MN,1,num_4,32,num_6,0.783450456896,,,2017_Jun_22_1445,60.0015780823,FEMA4ImagesEEG,001,100655,
AFNE01.JPG,AFNE01.JPG,AFNE01.JPG,AFNE01.JPG,AFNE01.JPG,AFNE01.JPG,,,,,,,,,,,,,,,,,,,,,2,9,29,5,,,AMNE15.jpg,AMSA16.jpg,AMNE13.jpg,AMSA06.jpg,AMNE15.jpg,MN,1,num_8,16,num_8,1.70007441168,,,2017_Jun_22_1445,60.0015780823,FEMA4ImagesEEG,001,100655,
AFNE01.JPG,AFNE01.JPG,AFNE01.JPG,AFNE01.JPG,AFNE01.JPG,AFNE01.JPG,,,,,,,,,,,,,,,,,,,,,3,0,30,0,,,AMNE19.jpg,AMSA18.jpg,AMNE16.jpg,AMSA12.jpg,AMNE19.jpg,MN,1,num_8,32,num_6,1.05010600457,,,2017_Jun_22_1445,60.0015780823,FEMA4ImagesEEG,001,100655,
AFNE01.JPG,AFNE01.JPG,AFNE01.JPG,AFNE01.JPG,AFNE01.JPG,AFNE01.JPG,,,,,,,,,,,,,,,,,,,,,3,1,31,9,,,AMSA02.jpg,AMNE20.jpg,AMNE12.jpg,AMSA11.jpg,AMSA02.jpg,MS,2,num_8,16,num_8,1.20007312872,,,2017_Jun_22_1445,60.0015780823,FEMA4ImagesEEG,001,100655,
AFNE01.JPG,AFNE01.JPG,AFNE01.JPG,AFNE01.JPG,AFNE01.JPG,AFNE01.JPG,,,,,,,,,,,,,,,,,,,,,3,2,32,1,,,AMSA13.jpg,AMSA18.jpg,AMNE09.jpg,AMNE17.jpg,AMNE17.jpg,MN,1,num_4,16,num_4,0.800075373903,,,2017_Jun_22_1445,60.0015780823,FEMA4ImagesEEG,001,100655,
AFNE01.JPG,AFNE01.JPG,AFNE01.JPG,AFNE01.JPG,AFNE01.JPG,AFNE01.JPG,,,,,,,,,,,,,,,,,,,,,3,3,33,4,,,AMNE07.jpg,AMSA02.jpg,AMNE16.jpg,AMSA04.jpg,AMSA02.jpg,MS,2,num_6,16,num_6,0.850105363093,,,2017_Jun_22_1445,60.0015780823,FEMA4ImagesEEG,001,100655,
AFNE01.JPG,AFNE01.JPG,AFNE01.JPG,AFNE01.JPG,AFNE01.JPG,AFNE01.JPG,,,,,,,,,,,,,,,,,,,,,3,4,34,7,,,AMSA04.jpg,AMNE03.jpg,AMSA17.jpg,AMNE12.jpg,AMNE03.jpg,MN,1,num_6,32,num_8,0.916629728108,,,2017_Jun_22_1445,60.0015780823,FEMA4ImagesEEG,001,100655,
AFNE01.JPG,AFNE01.JPG,AFNE01.JPG,AFNE01.JPG,AFNE01.JPG,AFNE01.JPG,,,,,,,,,,,,,,,,,,,,,3,5,35,6,,,AMSA12.jpg,AMNE04.jpg,AMSA17.jpg,AMNE13.jpg,AMSA12.jpg,MS,2,num_8,32,num_4,0.733379733723,,,2017_Jun_22_1445,60.0015780823,FEMA4ImagesEEG,001,100655,
AFNE01.JPG,AFNE01.JPG,AFNE01.JPG,AFNE01.JPG,AFNE01.JPG,AFNE01.JPG,,,,,,,,,,,,,,,,,,,,,3,6,36,8,,,AMNE10.jpg,AMNE08.jpg,AMSA14.jpg,AMSA13.jpg,AMSA13.jpg,MS,2,num_4,32,num_6,0.900243762408,,,2017_Jun_22_1445,60.0015780823,FEMA4ImagesEEG,001,100655,
AFNE01.JPG,AFNE01.JPG,AFNE01.JPG,AFNE01.JPG,AFNE01.JPG,AFNE01.JPG,,,,,,,,,,,,,,,,,,,,,3,7,37,3,,,AMSA19.jpg,AMSA13.jpg,AMNE06.jpg,AMNE16.jpg,AMNE06.jpg,MN,1,num_2,32,num_8,0.800149464845,,,2017_Jun_22_1445,60.0015780823,FEMA4ImagesEEG,001,100655,
AFNE01.JPG,AFNE01.JPG,AFNE01.JPG,AFNE01.JPG,AFNE01.JPG,AFNE01.JPG,,,,,,,,,,,,,,,,,,,,,3,8,38,5,,,AMNE15.jpg,AMNE13.jpg,AMSA10.jpg,AMSA08.jpg,AMNE15.jpg,MN,1,num_8,16,num_8,0.916791060336,,,2017_Jun_22_1445,60.0015780823,FEMA4ImagesEEG,001,100655,
