IPosition2,IPosition3,IPosition1,IPosition6,IPosition4,IPosition5,TrialsM1.thisRepN,TrialsM1.thisTrialN,TrialsM1.thisN,TrialsM1.thisIndex,TrialsF1.thisRepN,TrialsF1.thisTrialN,TrialsF1.thisN,TrialsF1.thisIndex,TrialsM2.thisRepN,TrialsM2.thisTrialN,TrialsM2.thisN,TrialsM2.thisIndex,TrialsF2.thisRepN,TrialsF2.thisTrialN,TrialsF2.thisN,TrialsF2.thisIndex,TrialsM3.thisRepN,TrialsM3.thisTrialN,TrialsM3.thisN,TrialsM3.thisIndex,TrialsF3.thisRepN,TrialsF3.thisTrialN,TrialsF3.thisN,TrialsF3.thisIndex,InstrKey_resp.keys,InstrKey_resp.rt,Image0 _Position,Image1 _Position,Image2 _Position,Image3 _Position,Center_image,condition,code,correct_answer,accuracy,Key_Resp.keys,Key_Resp.rt,BreakKey_resp.keys,BreakKey_resp.rt,date,frameRate,expName,session,participant,
,,,,,,,,,,,,,,,,,,,,,,,,,,,,,,space,13.2495224997,,,,,,,,,,,,,,2017_Jun_13_1207,60.0087959523,MAFE4ImagesEEG,001,100619,
AFSA21.JPG,AFNE23.JPG,AFNE21.JPG,AFSA25.JPG,AFNE25.JPG,AFSA23.JPG,0,0,0,4,,,,,,,,,,,,,,,,,,,,,,,AMSA17.jpg,AMNE12.jpg,AMNE16.jpg,AMSA03.jpg,AMSA17.jpg,MS,2,num_8,16,num_8,0.933505335008,,,2017_Jun_13_1207,60.0087959523,MAFE4ImagesEEG,001,100619,
AMSA25.JPG,AMNE24.JPG,AMSA24.JPG,AMNE26.JPG,AMSA21.JPG,AMNE25.JPG,0,1,1,3,,,,,,,,,,,,,,,,,,,,,,,AMNE02.jpg,AMSA14.jpg,AMSA16.jpg,AMNE11.jpg,AMSA14.jpg,MS,2,num_6,32,num_2,0.966805749864,,,2017_Jun_13_1207,60.0087959523,MAFE4ImagesEEG,001,100619,
AMSA21.JPG,AMNE23.JPG,AMNE21.JPG,AMSA25.JPG,AMNE25.JPG,AMSA23.JPG,0,2,2,5,,,,,,,,,,,,,,,,,,,,,,,AMSA15.jpg,AMNE06.jpg,AMNE12.jpg,AMSA06.jpg,AMSA06.jpg,MS,2,num_4,16,num_4,1.05010553921,,,2017_Jun_13_1207,60.0087959523,MAFE4ImagesEEG,001,100619,
AFNE23.JPG,AFNE24.JPG,AFNE22.JPG,AFSA24.JPG,AFSA22.JPG,AFSA23.JPG,0,3,3,8,,,,,,,,,,,,,,,,,,,,,,,AMNE11.jpg,AMSA03.jpg,AMNE06.jpg,AMSA10.jpg,AMNE11.jpg,MN,1,num_8,16,num_8,1.03331420658,,,2017_Jun_13_1207,60.0087959523,MAFE4ImagesEEG,001,100619,
AMSA21.JPG,AMNE22.JPG,AMNE21.JPG,AMSA23.JPG,AMSA22.JPG,AMNE23.JPG,0,4,4,1,,,,,,,,,,,,,,,,,,,,,,,AMNE11.jpg,AMSA20.jpg,AMSA12.jpg,AMNE03.jpg,AMSA12.jpg,MS,2,num_2,32,num_6,0.883319290355,,,2017_Jun_13_1207,60.0087959523,MAFE4ImagesEEG,001,100619,
AFSA25.JPG,AFNE24.JPG,AFSA24.JPG,AFNE21.JPG,AFSA21.JPG,AFNE25.JPG,0,5,5,2,,,,,,,,,,,,,,,,,,,,,,,AMSA01.jpg,AMSA09.jpg,AMNE13.jpg,AMNE17.jpg,AMNE13.jpg,MN,1,num_2,32,num_4,0.833463927615,,,2017_Jun_13_1207,60.0087959523,MAFE4ImagesEEG,001,100619,
AFSA21.JPG,AFNE22.JPG,AFNE21.JPG,AFSA23.JPG,AFSA22.JPG,AFNE23.JPG,0,6,6,0,,,,,,,,,,,,,,,,,,,,,,,AMSA16.jpg,AMSA19.jpg,AMNE10.jpg,AMNE17.jpg,AMSA16.jpg,MS,2,num_8,16,num_8,1.23338611634,,,2017_Jun_13_1207,60.0087959523,MAFE4ImagesEEG,001,100619,
AFNE22.JPG,AFSA24.JPG,AFSA22.JPG,AFNE25.JPG,AFNE24.JPG,AFSA25.JPG,0,7,7,6,,,,,,,,,,,,,,,,,,,,,,,AMSA09.jpg,AMNE11.jpg,AMSA03.jpg,AMNE15.jpg,AMNE11.jpg,MN,1,num_6,32,num_8,1.16680228588,,,2017_Jun_13_1207,60.0087959523,MAFE4ImagesEEG,001,100619,
AMNE23.JPG,AMNE24.JPG,AMNE22.JPG,AMSA24.JPG,AMSA22.JPG,AMSA23.JPG,0,8,8,9,,,,,,,,,,,,,,,,,,,,,,,AMSA03.jpg,AMSA02.jpg,AMNE12.jpg,AMNE10.jpg,AMSA02.jpg,MS,2,num_6,16,num_6,1.45004761376,,,2017_Jun_13_1207,60.0087959523,MAFE4ImagesEEG,001,100619,
AMNE22.JPG,AMSA24.JPG,AMSA22.JPG,AMNE25.JPG,AMNE24.JPG,AMSA25.JPG,0,9,9,7,,,,,,,,,,,,,,,,,,,,,,,AMNE01.jpg,AMNE12.jpg,AMSA07.jpg,AMSA08.jpg,AMSA08.jpg,MS,2,num_4,16,num_4,0.867086043698,,,2017_Jun_13_1207,60.0087959523,MAFE4ImagesEEG,001,100619,
AFNE23.JPG,AFNE24.JPG,AFNE22.JPG,AFSA24.JPG,AFSA22.JPG,AFSA23.JPG,,,,,0,0,0,8,,,,,,,,,,,,,,,,,,,AFSA06.jpg,AFSA09.jpg,AFNE04.jpg,AFNE13.jpg,AFSA09.jpg,FS,4,num_6,32,num_8,1.78336704831,,,2017_Jun_13_1207,60.0087959523,MAFE4ImagesEEG,001,100619,
AMSA25.JPG,AMNE24.JPG,AMSA24.JPG,AMNE26.JPG,AMSA21.JPG,AMNE25.JPG,,,,,0,1,1,3,,,,,,,,,,,,,,,,,,,AFSA17.jpg,AFSA01.jpg,AFNE20.jpg,AFNE02.jpg,AFSA01.jpg,FS,4,num_6,16,num_6,0.633469636785,,,2017_Jun_13_1207,60.0087959523,MAFE4ImagesEEG,001,100619,
AMSA21.JPG,AMNE22.JPG,AMNE21.JPG,AMSA23.JPG,AMSA22.JPG,AMNE23.JPG,,,,,0,2,2,1,,,,,,,,,,,,,,,,,,,AFSA06.jpg,AFNE06.jpg,AFNE15.jpg,AFSA02.jpg,AFSA02.jpg,FS,4,num_4,32,num_2,0.750173439679,,,2017_Jun_13_1207,60.0087959523,MAFE4ImagesEEG,001,100619,
AMSA21.JPG,AMNE23.JPG,AMNE21.JPG,AMSA25.JPG,AMNE25.JPG,AMSA23.JPG,,,,,0,3,3,5,,,,,,,,,,,,,,,,,,,AFSA08.jpg,AFNE06.jpg,AFNE10.jpg,AFSA02.jpg,AFSA08.jpg,FS,4,num_8,16,num_8,0.900107736292,,,2017_Jun_13_1207,60.0087959523,MAFE4ImagesEEG,001,100619,
AMNE23.JPG,AMNE24.JPG,AMNE22.JPG,AMSA24.JPG,AMSA22.JPG,AMSA23.JPG,,,,,0,4,4,9,,,,,,,,,,,,,,,,,,,AFNE01.jpg,AFNE14.jpg,AFSA05.jpg,AFSA02.jpg,AFSA05.jpg,FS,4,num_2,16,num_2,0.733467744431,,,2017_Jun_13_1207,60.0087959523,MAFE4ImagesEEG,001,100619,
AFSA21.JPG,AFNE23.JPG,AFNE21.JPG,AFSA25.JPG,AFNE25.JPG,AFSA23.JPG,,,,,0,5,5,4,,,,,,,,,,,,,,,,,,,AFSA20.jpg,AFNE12.jpg,AFSA04.jpg,AFNE02.jpg,AFNE12.jpg,FN,3,num_6,16,num_6,0.55030391633,,,2017_Jun_13_1207,60.0087959523,MAFE4ImagesEEG,001,100619,
AFNE22.JPG,AFSA24.JPG,AFSA22.JPG,AFNE25.JPG,AFNE24.JPG,AFSA25.JPG,,,,,0,6,6,6,,,,,,,,,,,,,,,,,,,AFSA08.jpg,AFSA19.jpg,AFNE02.jpg,AFNE13.jpg,AFSA19.jpg,FS,4,num_6,16,num_6,0.733476404333,,,2017_Jun_13_1207,60.0087959523,MAFE4ImagesEEG,001,100619,
AFSA25.JPG,AFNE24.JPG,AFSA24.JPG,AFNE21.JPG,AFSA21.JPG,AFNE25.JPG,,,,,0,7,7,2,,,,,,,,,,,,,,,,,,,AFSA14.jpg,AFNE16.jpg,AFNE04.jpg,AFSA15.jpg,AFSA15.jpg,FS,4,num_4,32,num_6,1.21677054866,,,2017_Jun_13_1207,60.0087959523,MAFE4ImagesEEG,001,100619,
AMNE22.JPG,AMSA24.JPG,AMSA22.JPG,AMNE25.JPG,AMNE24.JPG,AMSA25.JPG,,,,,0,8,8,7,,,,,,,,,,,,,,,,,,,AFSA17.jpg,AFSA07.jpg,AFNE07.jpg,AFNE16.jpg,AFNE07.jpg,FN,3,num_2,32,num_4,0.816813078709,,,2017_Jun_13_1207,60.0087959523,MAFE4ImagesEEG,001,100619,
AFSA21.JPG,AFNE22.JPG,AFNE21.JPG,AFSA23.JPG,AFSA22.JPG,AFNE23.JPG,,,,,0,9,9,0,,,,,,,,,,,,,,,,,,,AFSA13.jpg,AFSA05.jpg,AFNE19.jpg,AFNE14.jpg,AFSA13.jpg,FS,4,num_8,16,num_8,1.4000841619,,,2017_Jun_13_1207,60.0087959523,MAFE4ImagesEEG,001,100619,
AMSA21.JPG,AMNE22.JPG,AMNE21.JPG,AMSA23.JPG,AMSA22.JPG,AMNE23.JPG,,,,,,,,,0,0,0,1,,,,,,,,,,,,,,,AMNE07.jpg,AMNE16.jpg,AMSA06.jpg,AMSA01.jpg,AMSA06.jpg,MS,2,num_2,32,num_4,0.783502079546,,,2017_Jun_13_1207,60.0087959523,MAFE4ImagesEEG,001,100619,
AFNE22.JPG,AFSA24.JPG,AFSA22.JPG,AFNE25.JPG,AFNE24.JPG,AFSA25.JPG,,,,,,,,,0,1,1,6,,,,,,,,,,,,,,,AMSA19.jpg,AMNE20.jpg,AMNE11.jpg,AMSA20.jpg,AMNE11.jpg,MN,1,num_2,32,num_6,0.933475185535,,,2017_Jun_13_1207,60.0087959523,MAFE4ImagesEEG,001,100619,
AFSA25.JPG,AFNE24.JPG,AFSA24.JPG,AFNE21.JPG,AFSA21.JPG,AFNE25.JPG,,,,,,,,,0,2,2,2,,,,,,,,,,,,,,,AMNE17.jpg,AMSA11.jpg,AMNE15.jpg,AMSA12.jpg,AMSA11.jpg,MS,2,num_6,16,num_6,0.933425791736,,,2017_Jun_13_1207,60.0087959523,MAFE4ImagesEEG,001,100619,
AMSA21.JPG,AMNE23.JPG,AMNE21.JPG,AMSA25.JPG,AMNE25.JPG,AMSA23.JPG,,,,,,,,,0,3,3,5,,,,,,,,,,,,,,,AMSA15.jpg,AMNE13.jpg,AMNE01.jpg,AMSA11.jpg,AMNE01.jpg,MN,1,num_2,16,num_2,0.966772072192,,,2017_Jun_13_1207,60.0087959523,MAFE4ImagesEEG,001,100619,
AFSA21.JPG,AFNE23.JPG,AFNE21.JPG,AFSA25.JPG,AFNE25.JPG,AFSA23.JPG,,,,,,,,,0,4,4,4,,,,,,,,,,,,,,,AMNE03.jpg,AMSA01.jpg,AMSA11.jpg,AMNE02.jpg,AMNE02.jpg,MN,1,num_4,32,num_8,0.850138190435,,,2017_Jun_13_1207,60.0087959523,MAFE4ImagesEEG,001,100619,
AMNE23.JPG,AMNE24.JPG,AMNE22.JPG,AMSA24.JPG,AMSA22.JPG,AMSA23.JPG,,,,,,,,,0,5,5,9,,,,,,,,,,,,,,,AMNE20.jpg,AMNE01.jpg,AMSA11.jpg,AMSA02.jpg,AMNE20.jpg,MN,1,num_8,32,num_6,0.833443721,,,2017_Jun_13_1207,60.0087959523,MAFE4ImagesEEG,001,100619,
AMSA25.JPG,AMNE24.JPG,AMSA24.JPG,AMNE26.JPG,AMSA21.JPG,AMNE25.JPG,,,,,,,,,0,6,6,3,,,,,,,,,,,,,,,AMNE05.jpg,AMNE12.jpg,AMSA01.jpg,AMSA13.jpg,AMNE12.jpg,MN,1,num_6,16,num_6,1.15010813717,,,2017_Jun_13_1207,60.0087959523,MAFE4ImagesEEG,001,100619,
AFNE23.JPG,AFNE24.JPG,AFNE22.JPG,AFSA24.JPG,AFSA22.JPG,AFSA23.JPG,,,,,,,,,0,7,7,8,,,,,,,,,,,,,,,AMSA08.jpg,AMNE03.jpg,AMSA15.jpg,AMNE14.jpg,AMNE14.jpg,MN,1,num_4,16,num_4,0.96684712515,,,2017_Jun_13_1207,60.0087959523,MAFE4ImagesEEG,001,100619,
AMNE22.JPG,AMSA24.JPG,AMSA22.JPG,AMNE25.JPG,AMNE24.JPG,AMSA25.JPG,,,,,,,,,0,8,8,7,,,,,,,,,,,,,,,AMSA11.jpg,AMNE11.jpg,AMNE19.jpg,AMSA02.jpg,AMNE19.jpg,MN,1,num_2,16,num_2,0.933499241015,,,2017_Jun_13_1207,60.0087959523,MAFE4ImagesEEG,001,100619,
AFSA21.JPG,AFNE22.JPG,AFNE21.JPG,AFSA23.JPG,AFSA22.JPG,AFNE23.JPG,,,,,,,,,0,9,9,0,,,,,,,,,,,,,,,AMSA17.jpg,AMSA15.jpg,AMNE02.jpg,AMNE17.jpg,AMSA17.jpg,MS,2,num_8,16,num_8,0.86675728613,,,2017_Jun_13_1207,60.0087959523,MAFE4ImagesEEG,001,100619,
AFSA21.JPG,AFNE23.JPG,AFNE21.JPG,AFSA25.JPG,AFNE25.JPG,AFSA23.JPG,,,,,,,,,,,,,0,0,0,4,,,,,,,,,,,AFSA12.jpg,AFNE19.jpg,AFNE08.jpg,AFSA19.jpg,AFNE19.jpg,FN,3,num_6,16,num_6,0.766799912381,,,2017_Jun_13_1207,60.0087959523,MAFE4ImagesEEG,001,100619,
AFNE22.JPG,AFSA24.JPG,AFSA22.JPG,AFNE25.JPG,AFNE24.JPG,AFSA25.JPG,,,,,,,,,,,,,0,1,1,6,,,,,,,,,,,AFNE16.jpg,AFSA14.jpg,AFNE12.jpg,AFSA02.jpg,AFNE12.jpg,FN,3,num_2,16,num_2,1.03344923776,,,2017_Jun_13_1207,60.0087959523,MAFE4ImagesEEG,001,100619,
AFNE23.JPG,AFNE24.JPG,AFNE22.JPG,AFSA24.JPG,AFSA22.JPG,AFSA23.JPG,,,,,,,,,,,,,0,2,2,8,,,,,,,,,,,AFNE05.jpg,AFSA05.jpg,AFNE15.jpg,AFSA07.jpg,AFSA07.jpg,FS,4,num_4,16,num_4,1.03346174653,,,2017_Jun_13_1207,60.0087959523,MAFE4ImagesEEG,001,100619,
AFSA21.JPG,AFNE22.JPG,AFNE21.JPG,AFSA23.JPG,AFSA22.JPG,AFNE23.JPG,,,,,,,,,,,,,0,3,3,0,,,,,,,,,,,AFSA05.jpg,AFSA15.jpg,AFNE09.jpg,AFNE01.jpg,AFSA15.jpg,FS,4,num_6,32,num_2,1.43343942316,,,2017_Jun_13_1207,60.0087959523,MAFE4ImagesEEG,001,100619,
AFSA25.JPG,AFNE24.JPG,AFSA24.JPG,AFNE21.JPG,AFSA21.JPG,AFNE25.JPG,,,,,,,,,,,,,0,4,4,2,,,,,,,,,,,AFNE04.jpg,AFNE19.jpg,AFSA02.jpg,AFSA11.jpg,AFSA11.jpg,FS,4,num_4,16,num_4,0.733445292688,,,2017_Jun_13_1207,60.0087959523,MAFE4ImagesEEG,001,100619,
AMSA25.JPG,AMNE24.JPG,AMSA24.JPG,AMNE26.JPG,AMSA21.JPG,AMNE25.JPG,,,,,,,,,,,,,0,5,5,3,,,,,,,,,,,AFNE07.jpg,AFSA08.jpg,AFNE13.jpg,AFSA12.jpg,AFSA12.jpg,FS,4,num_4,16,num_4,0.716831328813,,,2017_Jun_13_1207,60.0087959523,MAFE4ImagesEEG,001,100619,
AMNE23.JPG,AMNE24.JPG,AMNE22.JPG,AMSA24.JPG,AMSA22.JPG,AMSA23.JPG,,,,,,,,,,,,,0,6,6,9,,,,,,,,,,,AFNE03.jpg,AFNE17.jpg,AFSA13.jpg,AFSA05.jpg,AFNE03.jpg,FN,3,num_8,32,num_6,0.750449916755,,,2017_Jun_13_1207,60.0087959523,MAFE4ImagesEEG,001,100619,
AMSA21.JPG,AMNE23.JPG,AMNE21.JPG,AMSA25.JPG,AMNE25.JPG,AMSA23.JPG,,,,,,,,,,,,,0,7,7,5,,,,,,,,,,,AFNE17.jpg,AFSA11.jpg,AFNE01.jpg,AFSA15.jpg,AFNE17.jpg,FN,3,num_8,32,num_6,0.800148758804,,,2017_Jun_13_1207,60.0087959523,MAFE4ImagesEEG,001,100619,
AMNE22.JPG,AMSA24.JPG,AMSA22.JPG,AMNE25.JPG,AMNE24.JPG,AMSA25.JPG,,,,,,,,,,,,,0,8,8,7,,,,,,,,,,,AFSA06.jpg,AFNE09.jpg,AFNE12.jpg,AFSA05.jpg,AFSA06.jpg,FS,4,num_8,32,num_4,0.983529727207,,,2017_Jun_13_1207,60.0087959523,MAFE4ImagesEEG,001,100619,
AMSA21.JPG,AMNE22.JPG,AMNE21.JPG,AMSA23.JPG,AMSA22.JPG,AMNE23.JPG,,,,,,,,,,,,,0,9,9,1,,,,,,,,,,,AFSA02.jpg,AFNE04.jpg,AFNE05.jpg,AFSA17.jpg,AFSA02.jpg,FS,4,num_8,32,num_2,1.33343169332,,,2017_Jun_13_1207,60.0087959523,MAFE4ImagesEEG,001,100619,
AFSA21.JPG,AFNE23.JPG,AFNE21.JPG,AFSA25.JPG,AFNE25.JPG,AFSA23.JPG,,,,,,,,,,,,,,,,,0,0,0,4,,,,,,,AMNE12.jpg,AMNE01.jpg,AMSA15.jpg,AMSA12.jpg,AMSA12.jpg,MS,2,num_4,32,num_2,0.666857613367,,,2017_Jun_13_1207,60.0087959523,MAFE4ImagesEEG,001,100619,
AFSA25.JPG,AFNE24.JPG,AFSA24.JPG,AFNE21.JPG,AFSA21.JPG,AFNE25.JPG,,,,,,,,,,,,,,,,,0,1,1,2,,,,,,,AMNE01.jpg,AMSA07.jpg,AMNE19.jpg,AMSA10.jpg,AMSA07.jpg,MS,2,num_6,16,num_6,0.766789007233,,,2017_Jun_13_1207,60.0087959523,MAFE4ImagesEEG,001,100619,
AMSA21.JPG,AMNE22.JPG,AMNE21.JPG,AMSA23.JPG,AMSA22.JPG,AMNE23.JPG,,,,,,,,,,,,,,,,,0,2,2,1,,,,,,,AMSA17.jpg,AMNE13.jpg,AMSA06.jpg,AMNE15.jpg,AMSA17.jpg,MS,2,num_8,16,num_8,0.800132080331,,,2017_Jun_13_1207,60.0087959523,MAFE4ImagesEEG,001,100619,
AMSA25.JPG,AMNE24.JPG,AMSA24.JPG,AMNE26.JPG,AMSA21.JPG,AMNE25.JPG,,,,,,,,,,,,,,,,,0,3,3,3,,,,,,,AMNE16.jpg,AMSA17.jpg,AMSA20.jpg,AMNE04.jpg,AMSA17.jpg,MS,2,num_6,16,num_6,0.800153890625,,,2017_Jun_13_1207,60.0087959523,MAFE4ImagesEEG,001,100619,
AFSA21.JPG,AFNE22.JPG,AFNE21.JPG,AFSA23.JPG,AFSA22.JPG,AFNE23.JPG,,,,,,,,,,,,,,,,,0,4,4,0,,,,,,,AMNE06.jpg,AMSA04.jpg,AMSA10.jpg,AMNE16.jpg,AMNE16.jpg,MN,1,num_4,32,num_2,0.916810544848,,,2017_Jun_13_1207,60.0087959523,MAFE4ImagesEEG,001,100619,
AFNE22.JPG,AFSA24.JPG,AFSA22.JPG,AFNE25.JPG,AFNE24.JPG,AFSA25.JPG,,,,,,,,,,,,,,,,,0,5,5,6,,,,,,,AMSA18.jpg,AMNE17.jpg,AMNE16.jpg,AMSA10.jpg,AMNE17.jpg,MN,1,num_6,32,num_4,0.883336610219,,,2017_Jun_13_1207,60.0087959523,MAFE4ImagesEEG,001,100619,
AFNE23.JPG,AFNE24.JPG,AFNE22.JPG,AFSA24.JPG,AFSA22.JPG,AFSA23.JPG,,,,,,,,,,,,,,,,,0,6,6,8,,,,,,,AMSA01.jpg,AMSA10.jpg,AMNE13.jpg,AMNE18.jpg,AMNE18.jpg,MN,1,num_4,32,num_2,0.83349760517,,,2017_Jun_13_1207,60.0087959523,MAFE4ImagesEEG,001,100619,
AMNE22.JPG,AMSA24.JPG,AMSA22.JPG,AMNE25.JPG,AMNE24.JPG,AMSA25.JPG,,,,,,,,,,,,,,,,,0,7,7,7,,,,,,,AMSA09.jpg,AMNE10.jpg,AMSA12.jpg,AMNE18.jpg,AMSA09.jpg,MS,2,num_8,16,num_8,0.933420339192,,,2017_Jun_13_1207,60.0087959523,MAFE4ImagesEEG,001,100619,
AMSA21.JPG,AMNE23.JPG,AMNE21.JPG,AMSA25.JPG,AMNE25.JPG,AMSA23.JPG,,,,,,,,,,,,,,,,,0,8,8,5,,,,,,,AMNE16.jpg,AMSA02.jpg,AMNE06.jpg,AMSA12.jpg,AMNE16.jpg,MN,1,num_8,32,num_2,0.766800874611,,,2017_Jun_13_1207,60.0087959523,MAFE4ImagesEEG,001,100619,
AMNE23.JPG,AMNE24.JPG,AMNE22.JPG,AMSA24.JPG,AMSA22.JPG,AMSA23.JPG,,,,,,,,,,,,,,,,,0,9,9,9,,,,,,,AMNE04.jpg,AMNE20.jpg,AMSA12.jpg,AMSA03.jpg,AMSA03.jpg,MS,2,num_4,16,num_4,0.800137532933,,,2017_Jun_13_1207,60.0087959523,MAFE4ImagesEEG,001,100619,
AMNE22.JPG,AMSA24.JPG,AMSA22.JPG,AMNE25.JPG,AMNE24.JPG,AMSA25.JPG,,,,,,,,,,,,,,,,,,,,,0,0,0,7,,,AFNE19.jpg,AFSA18.jpg,AFSA10.jpg,AFNE04.jpg,AFNE04.jpg,FN,3,num_4,32,num_8,0.916782961343,,,2017_Jun_13_1207,60.0087959523,MAFE4ImagesEEG,001,100619,
AMSA25.JPG,AMNE24.JPG,AMSA24.JPG,AMNE26.JPG,AMSA21.JPG,AMNE25.JPG,,,,,,,,,,,,,,,,,,,,,0,1,1,3,,,AFNE02.jpg,AFNE18.jpg,AFSA15.jpg,AFSA02.jpg,AFSA02.jpg,FS,4,num_4,16,num_4,0.65017853945,,,2017_Jun_13_1207,60.0087959523,MAFE4ImagesEEG,001,100619,
AFSA21.JPG,AFNE22.JPG,AFNE21.JPG,AFSA23.JPG,AFSA22.JPG,AFNE23.JPG,,,,,,,,,,,,,,,,,,,,,0,2,2,0,,,AFNE12.jpg,AFSA12.jpg,AFNE15.jpg,AFSA19.jpg,AFNE12.jpg,FN,3,num_8,16,num_8,0.700169254036,,,2017_Jun_13_1207,60.0087959523,MAFE4ImagesEEG,001,100619,
AFNE23.JPG,AFNE24.JPG,AFNE22.JPG,AFSA24.JPG,AFSA22.JPG,AFSA23.JPG,,,,,,,,,,,,,,,,,,,,,0,3,3,8,,,AFNE01.jpg,AFSA09.jpg,AFNE13.jpg,AFSA02.jpg,AFSA09.jpg,FS,4,num_6,16,num_6,0.716800858558,,,2017_Jun_13_1207,60.0087959523,MAFE4ImagesEEG,001,100619,
AMSA21.JPG,AMNE23.JPG,AMNE21.JPG,AMSA25.JPG,AMNE25.JPG,AMSA23.JPG,,,,,,,,,,,,,,,,,,,,,0,4,4,5,,,AFNE15.jpg,AFNE18.jpg,AFSA09.jpg,AFSA14.jpg,AFNE18.jpg,FN,3,num_6,16,num_6,0.916781678388,,,2017_Jun_13_1207,60.0087959523,MAFE4ImagesEEG,001,100619,
AFSA25.JPG,AFNE24.JPG,AFSA24.JPG,AFNE21.JPG,AFSA21.JPG,AFNE25.JPG,,,,,,,,,,,,,,,,,,,,,0,5,5,2,,,AFSA17.jpg,AFSA07.jpg,AFNE07.jpg,AFNE01.jpg,AFNE07.jpg,FN,3,num_2,32,num_8,1.0834296887,,,2017_Jun_13_1207,60.0087959523,MAFE4ImagesEEG,001,100619,
AMNE23.JPG,AMNE24.JPG,AMNE22.JPG,AMSA24.JPG,AMSA22.JPG,AMSA23.JPG,,,,,,,,,,,,,,,,,,,,,0,6,6,9,,,AFNE02.jpg,AFSA17.jpg,AFNE19.jpg,AFSA08.jpg,AFSA17.jpg,FS,4,num_6,16,num_6,0.933443432325,,,2017_Jun_13_1207,60.0087959523,MAFE4ImagesEEG,001,100619,
AMSA21.JPG,AMNE22.JPG,AMNE21.JPG,AMSA23.JPG,AMSA22.JPG,AMNE23.JPG,,,,,,,,,,,,,,,,,,,,,0,7,7,1,,,AFNE09.jpg,AFSA03.jpg,AFSA13.jpg,AFNE11.jpg,AFNE09.jpg,FN,3,num_8,32,num_2,0.916790017567,,,2017_Jun_13_1207,60.0087959523,MAFE4ImagesEEG,001,100619,
AFSA21.JPG,AFNE23.JPG,AFNE21.JPG,AFSA25.JPG,AFNE25.JPG,AFSA23.JPG,,,,,,,,,,,,,,,,,,,,,0,8,8,4,,,AFNE19.jpg,AFNE17.jpg,AFSA10.jpg,AFSA06.jpg,AFSA06.jpg,FS,4,num_4,32,num_2,0.800140419567,,,2017_Jun_13_1207,60.0087959523,MAFE4ImagesEEG,001,100619,
AFNE22.JPG,AFSA24.JPG,AFSA22.JPG,AFNE25.JPG,AFNE24.JPG,AFSA25.JPG,,,,,,,,,,,,,,,,,,,,,0,9,9,6,,,AFNE09.jpg,AFSA05.jpg,AFSA15.jpg,AFNE02.jpg,AFNE02.jpg,FN,3,num_4,16,num_4,0.466810721264,,,2017_Jun_13_1207,60.0087959523,MAFE4ImagesEEG,001,100619,
,,,,,,,,,,,,,,,,,,,,,,,,,,,,,,,,,,,,,,,,,,,space,4.6664685568,2017_Jun_13_1207,60.0087959523,MAFE4ImagesEEG,001,100619,
AFNE01.JPG,AFNE01.JPG,AFNE01.JPG,AFNE01.JPG,AFNE01.JPG,AFNE01.JPG,0,0,0,0,,,,,,,,,,,,,,,,,,,,,,,AMSA02.jpg,AMNE17.jpg,AMNE15.jpg,AMSA15.jpg,AMNE17.jpg,MN,1,num_6,16,num_6,0.666776787082,,,2017_Jun_13_1207,60.0087959523,MAFE4ImagesEEG,001,100619,
AFNE01.JPG,AFNE01.JPG,AFNE01.JPG,AFNE01.JPG,AFNE01.JPG,AFNE01.JPG,0,1,1,7,,,,,,,,,,,,,,,,,,,,,,,AMNE05.jpg,AMSA01.jpg,AMSA07.jpg,AMNE02.jpg,AMSA07.jpg,MS,2,num_2,32,num_4,0.800159984617,,,2017_Jun_13_1207,60.0087959523,MAFE4ImagesEEG,001,100619,
AFNE01.JPG,AFNE01.JPG,AFNE01.JPG,AFNE01.JPG,AFNE01.JPG,AFNE01.JPG,0,2,2,3,,,,,,,,,,,,,,,,,,,,,,,AMNE12.jpg,AMSA18.jpg,AMSA11.jpg,AMNE09.jpg,AMSA11.jpg,MS,2,num_2,16,num_2,1.28319946217,,,2017_Jun_13_1207,60.0087959523,MAFE4ImagesEEG,001,100619,
AFNE01.JPG,AFNE01.JPG,AFNE01.JPG,AFNE01.JPG,AFNE01.JPG,AFNE01.JPG,0,3,3,4,,,,,,,,,,,,,,,,,,,,,,,AMNE11.jpg,AMSA16.jpg,AMNE19.jpg,AMSA13.jpg,AMNE11.jpg,MN,1,num_8,16,num_8,0.633478938194,,,2017_Jun_13_1207,60.0087959523,MAFE4ImagesEEG,001,100619,
AFNE01.JPG,AFNE01.JPG,AFNE01.JPG,AFNE01.JPG,AFNE01.JPG,AFNE01.JPG,0,4,4,5,,,,,,,,,,,,,,,,,,,,,,,AMSA11.jpg,AMNE20.jpg,AMSA17.jpg,AMNE04.jpg,AMNE04.jpg,MN,1,num_4,32,num_6,0.516769041249,,,2017_Jun_13_1207,60.0087959523,MAFE4ImagesEEG,001,100619,
AFNE01.JPG,AFNE01.JPG,AFNE01.JPG,AFNE01.JPG,AFNE01.JPG,AFNE01.JPG,0,5,5,2,,,,,,,,,,,,,,,,,,,,,,,AMSA19.jpg,AMNE16.jpg,AMSA07.jpg,AMNE08.jpg,AMNE08.jpg,MN,1,num_4,32,num_8,0.483546886768,,,2017_Jun_13_1207,60.0087959523,MAFE4ImagesEEG,001,100619,
AFNE01.JPG,AFNE01.JPG,AFNE01.JPG,AFNE01.JPG,AFNE01.JPG,AFNE01.JPG,0,6,6,1,,,,,,,,,,,,,,,,,,,,,,,AMSA13.jpg,AMNE09.jpg,AMSA19.jpg,AMNE05.jpg,AMSA13.jpg,MS,2,num_8,32,num_4,0.350149897451,,,2017_Jun_13_1207,60.0087959523,MAFE4ImagesEEG,001,100619,
AFNE01.JPG,AFNE01.JPG,AFNE01.JPG,AFNE01.JPG,AFNE01.JPG,AFNE01.JPG,0,7,7,6,,,,,,,,,,,,,,,,,,,,,,,AMNE10.jpg,AMSA06.jpg,AMNE11.jpg,AMSA03.jpg,AMSA06.jpg,MS,2,num_6,32,num_2,0.433481119224,,,2017_Jun_13_1207,60.0087959523,MAFE4ImagesEEG,001,100619,
AFNE01.JPG,AFNE01.JPG,AFNE01.JPG,AFNE01.JPG,AFNE01.JPG,AFNE01.JPG,0,8,8,8,,,,,,,,,,,,,,,,,,,,,,,AMSA03.jpg,AMNE03.jpg,AMSA14.jpg,AMNE12.jpg,AMSA03.jpg,MS,2,num_8,16,num_8,0.916769490286,,,2017_Jun_13_1207,60.0087959523,MAFE4ImagesEEG,001,100619,
AFNE01.JPG,AFNE01.JPG,AFNE01.JPG,AFNE01.JPG,AFNE01.JPG,AFNE01.JPG,0,9,9,9,,,,,,,,,,,,,,,,,,,,,,,AMSA17.jpg,AMSA19.jpg,AMNE11.jpg,AMNE02.jpg,AMSA17.jpg,MS,2,num_8,32,num_6,0.766647882003,,,2017_Jun_13_1207,60.0087959523,MAFE4ImagesEEG,001,100619,
AFNE01.JPG,AFNE01.JPG,AFNE01.JPG,AFNE01.JPG,AFNE01.JPG,AFNE01.JPG,1,0,10,1,,,,,,,,,,,,,,,,,,,,,,,AMNE13.jpg,AMSA03.jpg,AMNE03.jpg,AMSA11.jpg,AMNE03.jpg,MN,1,num_2,32,num_8,0.700117294327,,,2017_Jun_13_1207,60.0087959523,MAFE4ImagesEEG,001,100619,
AFNE01.JPG,AFNE01.JPG,AFNE01.JPG,AFNE01.JPG,AFNE01.JPG,AFNE01.JPG,1,1,11,9,,,,,,,,,,,,,,,,,,,,,,,AMNE15.jpg,AMNE04.jpg,AMSA06.jpg,AMSA15.jpg,AMNE04.jpg,MN,1,num_6,32,num_2,1.06676985911,,,2017_Jun_13_1207,60.0087959523,MAFE4ImagesEEG,001,100619,
AFNE01.JPG,AFNE01.JPG,AFNE01.JPG,AFNE01.JPG,AFNE01.JPG,AFNE01.JPG,1,2,12,6,,,,,,,,,,,,,,,,,,,,,,,AMNE13.jpg,AMNE20.jpg,AMSA07.jpg,AMSA17.jpg,AMSA07.jpg,MS,2,num_2,32,num_4,1.35007516522,,,2017_Jun_13_1207,60.0087959523,MAFE4ImagesEEG,001,100619,
AFNE01.JPG,AFNE01.JPG,AFNE01.JPG,AFNE01.JPG,AFNE01.JPG,AFNE01.JPG,1,3,13,8,,,,,,,,,,,,,,,,,,,,,,,AMNE06.jpg,AMSA18.jpg,AMSA19.jpg,AMNE08.jpg,AMNE08.jpg,MN,1,num_4,16,num_4,0.68352000881,,,2017_Jun_13_1207,60.0087959523,MAFE4ImagesEEG,001,100619,
AFNE01.JPG,AFNE01.JPG,AFNE01.JPG,AFNE01.JPG,AFNE01.JPG,AFNE01.JPG,1,4,14,7,,,,,,,,,,,,,,,,,,,,,,,AMSA19.jpg,AMNE07.jpg,AMNE12.jpg,AMSA20.jpg,AMNE12.jpg,MN,1,num_2,16,num_2,1.41685111838,,,2017_Jun_13_1207,60.0087959523,MAFE4ImagesEEG,001,100619,
AFNE01.JPG,AFNE01.JPG,AFNE01.JPG,AFNE01.JPG,AFNE01.JPG,AFNE01.JPG,1,5,15,2,,,,,,,,,,,,,,,,,,,,,,,AMNE01.jpg,AMNE06.jpg,AMSA15.jpg,AMSA10.jpg,AMNE06.jpg,MN,1,num_6,16,num_6,0.56682165846,,,2017_Jun_13_1207,60.0087959523,MAFE4ImagesEEG,001,100619,
AFNE01.JPG,AFNE01.JPG,AFNE01.JPG,AFNE01.JPG,AFNE01.JPG,AFNE01.JPG,1,6,16,5,,,,,,,,,,,,,,,,,,,,,,,AMNE14.jpg,AMSA13.jpg,AMSA08.jpg,AMNE11.jpg,AMSA13.jpg,MS,2,num_6,32,num_2,0.80013881583,,,2017_Jun_13_1207,60.0087959523,MAFE4ImagesEEG,001,100619,
AFNE01.JPG,AFNE01.JPG,AFNE01.JPG,AFNE01.JPG,AFNE01.JPG,AFNE01.JPG,1,7,17,0,,,,,,,,,,,,,,,,,,,,,,,AMNE08.jpg,AMNE19.jpg,AMSA12.jpg,AMSA13.jpg,AMNE08.jpg,MN,1,num_8,32,num_6,0.766722614295,,,2017_Jun_13_1207,60.0087959523,MAFE4ImagesEEG,001,100619,
AFNE01.JPG,AFNE01.JPG,AFNE01.JPG,AFNE01.JPG,AFNE01.JPG,AFNE01.JPG,1,8,18,4,,,,,,,,,,,,,,,,,,,,,,,AMNE01.jpg,AMNE20.jpg,AMSA18.jpg,AMSA10.jpg,AMNE20.jpg,MN,1,num_6,16,num_6,0.583465771866,,,2017_Jun_13_1207,60.0087959523,MAFE4ImagesEEG,001,100619,
AFNE01.JPG,AFNE01.JPG,AFNE01.JPG,AFNE01.JPG,AFNE01.JPG,AFNE01.JPG,1,9,19,3,,,,,,,,,,,,,,,,,,,,,,,AMNE05.jpg,AMNE04.jpg,AMSA20.jpg,AMSA06.jpg,AMSA20.jpg,MS,2,num_2,16,num_2,1.8833674012,,,2017_Jun_13_1207,60.0087959523,MAFE4ImagesEEG,001,100619,
AFNE01.JPG,AFNE01.JPG,AFNE01.JPG,AFNE01.JPG,AFNE01.JPG,AFNE01.JPG,2,0,20,6,,,,,,,,,,,,,,,,,,,,,,,AMSA11.jpg,AMNE16.jpg,AMSA09.jpg,AMNE17.jpg,AMNE16.jpg,MN,1,num_6,16,num_6,0.583464488911,,,2017_Jun_13_1207,60.0087959523,MAFE4ImagesEEG,001,100619,
AFNE01.JPG,AFNE01.JPG,AFNE01.JPG,AFNE01.JPG,AFNE01.JPG,AFNE01.JPG,2,1,21,1,,,,,,,,,,,,,,,,,,,,,,,AMNE13.jpg,AMNE04.jpg,AMSA10.jpg,AMSA01.jpg,AMNE04.jpg,MN,1,num_6,32,num_4,0.650120806415,,,2017_Jun_13_1207,60.0087959523,MAFE4ImagesEEG,001,100619,
AFNE01.JPG,AFNE01.JPG,AFNE01.JPG,AFNE01.JPG,AFNE01.JPG,AFNE01.JPG,2,2,22,7,,,,,,,,,,,,,,,,,,,,,,,AMSA09.jpg,AMSA05.jpg,AMNE19.jpg,AMNE20.jpg,AMNE19.jpg,MN,1,num_2,32,num_4,0.633507483988,,,2017_Jun_13_1207,60.0087959523,MAFE4ImagesEEG,001,100619,
AFNE01.JPG,AFNE01.JPG,AFNE01.JPG,AFNE01.JPG,AFNE01.JPG,AFNE01.JPG,2,3,23,9,,,,,,,,,,,,,,,,,,,,,,,AMSA14.jpg,AMNE09.jpg,AMSA15.jpg,AMNE17.jpg,AMSA14.jpg,MS,2,num_8,32,num_2,0.666812709882,,,2017_Jun_13_1207,60.0087959523,MAFE4ImagesEEG,001,100619,
AFNE01.JPG,AFNE01.JPG,AFNE01.JPG,AFNE01.JPG,AFNE01.JPG,AFNE01.JPG,2,4,24,8,,,,,,,,,,,,,,,,,,,,,,,AMNE07.jpg,AMSA09.jpg,AMSA10.jpg,AMNE18.jpg,AMSA09.jpg,MS,2,num_6,16,num_6,0.900104208151,,,2017_Jun_13_1207,60.0087959523,MAFE4ImagesEEG,001,100619,
AFNE01.JPG,AFNE01.JPG,AFNE01.JPG,AFNE01.JPG,AFNE01.JPG,AFNE01.JPG,2,5,25,0,,,,,,,,,,,,,,,,,,,,,,,AMNE14.jpg,AMNE06.jpg,AMSA17.jpg,AMSA03.jpg,AMSA03.jpg,MS,2,num_4,16,num_4,0.899808165967,,,2017_Jun_13_1207,60.0087959523,MAFE4ImagesEEG,001,100619,
AFNE01.JPG,AFNE01.JPG,AFNE01.JPG,AFNE01.JPG,AFNE01.JPG,AFNE01.JPG,2,6,26,3,,,,,,,,,,,,,,,,,,,,,,,AMSA03.jpg,AMNE12.jpg,AMSA19.jpg,AMNE20.jpg,AMSA19.jpg,MS,2,num_2,32,num_8,1.8000560652,,,2017_Jun_13_1207,60.0087959523,MAFE4ImagesEEG,001,100619,
AFNE01.JPG,AFNE01.JPG,AFNE01.JPG,AFNE01.JPG,AFNE01.JPG,AFNE01.JPG,2,7,27,4,,,,,,,,,,,,,,,,,,,,,,,AMSA02.jpg,AMSA08.jpg,AMNE07.jpg,AMNE14.jpg,AMSA08.jpg,MS,2,num_6,16,num_6,0.866824962082,,,2017_Jun_13_1207,60.0087959523,MAFE4ImagesEEG,001,100619,
AFNE01.JPG,AFNE01.JPG,AFNE01.JPG,AFNE01.JPG,AFNE01.JPG,AFNE01.JPG,2,8,28,2,,,,,,,,,,,,,,,,,,,,,,,AMSA19.jpg,AMNE03.jpg,AMNE02.jpg,AMSA17.jpg,AMNE02.jpg,MN,1,num_2,32,num_6,0.816725516925,,,2017_Jun_13_1207,60.0087959523,MAFE4ImagesEEG,001,100619,
AFNE01.JPG,AFNE01.JPG,AFNE01.JPG,AFNE01.JPG,AFNE01.JPG,AFNE01.JPG,2,9,29,5,,,,,,,,,,,,,,,,,,,,,,,AMSA11.jpg,AMSA01.jpg,AMNE06.jpg,AMNE03.jpg,AMSA01.jpg,MS,2,num_6,16,num_6,0.966792599531,,,2017_Jun_13_1207,60.0087959523,MAFE4ImagesEEG,001,100619,
AFNE01.JPG,AFNE01.JPG,AFNE01.JPG,AFNE01.JPG,AFNE01.JPG,AFNE01.JPG,3,0,30,1,,,,,,,,,,,,,,,,,,,,,,,AMNE06.jpg,AMNE17.jpg,AMSA16.jpg,AMSA05.jpg,AMNE06.jpg,MN,1,num_8,16,num_8,0.866781020828,,,2017_Jun_13_1207,60.0087959523,MAFE4ImagesEEG,001,100619,
AFNE01.JPG,AFNE01.JPG,AFNE01.JPG,AFNE01.JPG,AFNE01.JPG,AFNE01.JPG,3,1,31,0,,,,,,,,,,,,,,,,,,,,,,,AMSA10.jpg,AMNE11.jpg,AMSA08.jpg,AMNE20.jpg,AMSA10.jpg,MS,2,num_8,16,num_8,0.866755040945,,,2017_Jun_13_1207,60.0087959523,MAFE4ImagesEEG,001,100619,
AFNE01.JPG,AFNE01.JPG,AFNE01.JPG,AFNE01.JPG,AFNE01.JPG,AFNE01.JPG,3,2,32,7,,,,,,,,,,,,,,,,,,,,,,,AMNE13.jpg,AMSA04.jpg,AMSA10.jpg,AMNE17.jpg,AMSA04.jpg,MS,2,num_6,16,num_6,0.550323160656,,,2017_Jun_13_1207,60.0087959523,MAFE4ImagesEEG,001,100619,
AFNE01.JPG,AFNE01.JPG,AFNE01.JPG,AFNE01.JPG,AFNE01.JPG,AFNE01.JPG,3,3,33,8,,,,,,,,,,,,,,,,,,,,,,,AMSA17.jpg,AMSA02.jpg,AMNE01.jpg,AMNE10.jpg,AMNE10.jpg,MN,1,num_4,16,num_4,1.13342810108,,,2017_Jun_13_1207,60.0087959523,MAFE4ImagesEEG,001,100619,
AFNE01.JPG,AFNE01.JPG,AFNE01.JPG,AFNE01.JPG,AFNE01.JPG,AFNE01.JPG,3,4,34,4,,,,,,,,,,,,,,,,,,,,,,,AMSA07.jpg,AMSA05.jpg,AMNE11.jpg,AMNE19.jpg,AMSA05.jpg,MS,2,num_6,32,num_8,0.866846772376,,,2017_Jun_13_1207,60.0087959523,MAFE4ImagesEEG,001,100619,
AFNE01.JPG,AFNE01.JPG,AFNE01.JPG,AFNE01.JPG,AFNE01.JPG,AFNE01.JPG,3,5,35,3,,,,,,,,,,,,,,,,,,,,,,,AMNE16.jpg,AMSA09.jpg,AMNE12.jpg,AMSA14.jpg,AMSA09.jpg,MS,2,num_6,16,num_6,0.900131150207,,,2017_Jun_13_1207,60.0087959523,MAFE4ImagesEEG,001,100619,
AFNE01.JPG,AFNE01.JPG,AFNE01.JPG,AFNE01.JPG,AFNE01.JPG,AFNE01.JPG,3,6,36,5,,,,,,,,,,,,,,,,,,,,,,,AMNE07.jpg,AMSA16.jpg,AMSA02.jpg,AMNE17.jpg,AMSA02.jpg,MS,2,num_2,16,num_2,1.23310835625,,,2017_Jun_13_1207,60.0087959523,MAFE4ImagesEEG,001,100619,
AFNE01.JPG,AFNE01.JPG,AFNE01.JPG,AFNE01.JPG,AFNE01.JPG,AFNE01.JPG,3,7,37,2,,,,,,,,,,,,,,,,,,,,,,,AMNE13.jpg,AMSA17.jpg,AMSA19.jpg,AMNE06.jpg,AMNE13.jpg,MN,1,num_8,32,num_4,0.783523889782,,,2017_Jun_13_1207,60.0087959523,MAFE4ImagesEEG,001,100619,
AFNE01.JPG,AFNE01.JPG,AFNE01.JPG,AFNE01.JPG,AFNE01.JPG,AFNE01.JPG,3,8,38,6,,,,,,,,,,,,,,,,,,,,,,,AMNE12.jpg,AMSA08.jpg,AMNE09.jpg,AMSA01.jpg,AMNE12.jpg,MN,1,num_8,16,num_8,0.666807578003,,,2017_Jun_13_1207,60.0087959523,MAFE4ImagesEEG,001,100619,
AFNE01.JPG,AFNE01.JPG,AFNE01.JPG,AFNE01.JPG,AFNE01.JPG,AFNE01.JPG,3,9,39,9,,,,,,,,,,,,,,,,,,,,,,,AMSA15.jpg,AMNE18.jpg,AMSA01.jpg,AMNE17.jpg,AMNE17.jpg,MN,1,num_4,32,num_6,0.600174353807,,,2017_Jun_13_1207,60.0087959523,MAFE4ImagesEEG,001,100619,
AFNE01.JPG,AFNE01.JPG,AFNE01.JPG,AFNE01.JPG,AFNE01.JPG,AFNE01.JPG,4,0,40,2,,,,,,,,,,,,,,,,,,,,,,,AMSA11.jpg,AMNE01.jpg,AMSA12.jpg,AMNE09.jpg,AMSA12.jpg,MS,2,num_2,32,num_8,0.71677712386,,,2017_Jun_13_1207,60.0087959523,MAFE4ImagesEEG,001,100619,
AFNE01.JPG,AFNE01.JPG,AFNE01.JPG,AFNE01.JPG,AFNE01.JPG,AFNE01.JPG,4,1,41,6,,,,,,,,,,,,,,,,,,,,,,,AMSA20.jpg,AMNE16.jpg,AMSA18.jpg,AMNE02.jpg,AMSA18.jpg,MS,2,num_2,16,num_2,0.583558144688,,,2017_Jun_13_1207,60.0087959523,MAFE4ImagesEEG,001,100619,
AFNE01.JPG,AFNE01.JPG,AFNE01.JPG,AFNE01.JPG,AFNE01.JPG,AFNE01.JPG,4,2,42,4,,,,,,,,,,,,,,,,,,,,,,,AMNE14.jpg,AMNE07.jpg,AMSA06.jpg,AMSA02.jpg,AMSA02.jpg,MS,2,num_4,16,num_4,0.866781020828,,,2017_Jun_13_1207,60.0087959523,MAFE4ImagesEEG,001,100619,
AFNE01.JPG,AFNE01.JPG,AFNE01.JPG,AFNE01.JPG,AFNE01.JPG,AFNE01.JPG,4,3,43,0,,,,,,,,,,,,,,,,,,,,,,,AMNE14.jpg,AMNE09.jpg,AMSA14.jpg,AMSA01.jpg,AMSA14.jpg,MS,2,num_2,16,num_2,0.850095532136,,,2017_Jun_13_1207,60.0087959523,MAFE4ImagesEEG,001,100619,
AFNE01.JPG,AFNE01.JPG,AFNE01.JPG,AFNE01.JPG,AFNE01.JPG,AFNE01.JPG,4,4,44,5,,,,,,,,,,,,,,,,,,,,,,,AMSA07.jpg,AMNE20.jpg,AMNE12.jpg,AMSA11.jpg,AMNE20.jpg,MN,1,num_6,16,num_6,0.816772665596,,,2017_Jun_13_1207,60.0087959523,MAFE4ImagesEEG,001,100619,
AFNE01.JPG,AFNE01.JPG,AFNE01.JPG,AFNE01.JPG,AFNE01.JPG,AFNE01.JPG,4,5,45,9,,,,,,,,,,,,,,,,,,,,,,,AMNE03.jpg,AMNE08.jpg,AMSA02.jpg,AMSA06.jpg,AMNE08.jpg,MN,1,num_6,32,num_8,0.966770468513,,,2017_Jun_13_1207,60.0087959523,MAFE4ImagesEEG,001,100619,
AFNE01.JPG,AFNE01.JPG,AFNE01.JPG,AFNE01.JPG,AFNE01.JPG,AFNE01.JPG,4,6,46,1,,,,,,,,,,,,,,,,,,,,,,,AMSA16.jpg,AMNE04.jpg,AMNE01.jpg,AMSA15.jpg,AMSA15.jpg,MS,2,num_4,16,num_4,0.800216434698,,,2017_Jun_13_1207,60.0087959523,MAFE4ImagesEEG,001,100619,
AFNE01.JPG,AFNE01.JPG,AFNE01.JPG,AFNE01.JPG,AFNE01.JPG,AFNE01.JPG,4,7,47,8,,,,,,,,,,,,,,,,,,,,,,,AMNE13.jpg,AMNE20.jpg,AMSA08.jpg,AMSA18.jpg,AMSA08.jpg,MS,2,num_2,16,num_2,1.18345121027,,,2017_Jun_13_1207,60.0087959523,MAFE4ImagesEEG,001,100619,
AFNE01.JPG,AFNE01.JPG,AFNE01.JPG,AFNE01.JPG,AFNE01.JPG,AFNE01.JPG,4,8,48,7,,,,,,,,,,,,,,,,,,,,,,,AMSA10.jpg,AMSA11.jpg,AMNE15.jpg,AMNE01.jpg,AMNE15.jpg,MN,1,num_2,16,num_2,0.866739966266,,,2017_Jun_13_1207,60.0087959523,MAFE4ImagesEEG,001,100619,
AFNE01.JPG,AFNE01.JPG,AFNE01.JPG,AFNE01.JPG,AFNE01.JPG,AFNE01.JPG,4,9,49,3,,,,,,,,,,,,,,,,,,,,,,,AMSA13.jpg,AMSA02.jpg,AMNE11.jpg,AMNE19.jpg,AMNE11.jpg,MN,1,num_2,16,num_2,0.900010552316,,,2017_Jun_13_1207,60.0087959523,MAFE4ImagesEEG,001,100619,
AFNE01.JPG,AFNE01.JPG,AFNE01.JPG,AFNE01.JPG,AFNE01.JPG,AFNE01.JPG,5,0,50,0,,,,,,,,,,,,,,,,,,,,,,,AMSA15.jpg,AMNE09.jpg,AMNE13.jpg,AMSA09.jpg,AMSA15.jpg,MS,2,num_8,16,num_8,1.15010877862,,,2017_Jun_13_1207,60.0087959523,MAFE4ImagesEEG,001,100619,
AFNE01.JPG,AFNE01.JPG,AFNE01.JPG,AFNE01.JPG,AFNE01.JPG,AFNE01.JPG,5,1,51,5,,,,,,,,,,,,,,,,,,,,,,,AMNE18.jpg,AMSA03.jpg,AMNE09.jpg,AMSA04.jpg,AMNE18.jpg,MN,1,num_8,32,num_2,0.950134373619,,,2017_Jun_13_1207,60.0087959523,MAFE4ImagesEEG,001,100619,
AFNE01.JPG,AFNE01.JPG,AFNE01.JPG,AFNE01.JPG,AFNE01.JPG,AFNE01.JPG,5,2,52,6,,,,,,,,,,,,,,,,,,,,,,,AMSA01.jpg,AMSA14.jpg,AMNE13.jpg,AMNE18.jpg,AMNE13.jpg,MN,1,num_2,32,num_4,0.950131807709,,,2017_Jun_13_1207,60.0087959523,MAFE4ImagesEEG,001,100619,
AFNE01.JPG,AFNE01.JPG,AFNE01.JPG,AFNE01.JPG,AFNE01.JPG,AFNE01.JPG,5,3,53,9,,,,,,,,,,,,,,,,,,,,,,,AMSA07.jpg,AMSA12.jpg,AMNE15.jpg,AMNE04.jpg,AMNE04.jpg,MN,1,num_4,16,num_4,0.933479996631,,,2017_Jun_13_1207,60.0087959523,MAFE4ImagesEEG,001,100619,
AFNE01.JPG,AFNE01.JPG,AFNE01.JPG,AFNE01.JPG,AFNE01.JPG,AFNE01.JPG,5,4,54,3,,,,,,,,,,,,,,,,,,,,,,,AMNE15.jpg,AMSA17.jpg,AMSA08.jpg,AMNE20.jpg,AMNE20.jpg,MN,1,num_4,32,num_8,0.783511380956,,,2017_Jun_13_1207,60.0087959523,MAFE4ImagesEEG,001,100619,
AFNE01.JPG,AFNE01.JPG,AFNE01.JPG,AFNE01.JPG,AFNE01.JPG,AFNE01.JPG,5,5,55,4,,,,,,,,,,,,,,,,,,,,,,,AMNE05.jpg,AMSA10.jpg,AMSA12.jpg,AMNE19.jpg,AMNE19.jpg,MN,1,num_4,16,num_4,0.900113188778,,,2017_Jun_13_1207,60.0087959523,MAFE4ImagesEEG,001,100619,
AFNE01.JPG,AFNE01.JPG,AFNE01.JPG,AFNE01.JPG,AFNE01.JPG,AFNE01.JPG,5,6,56,1,,,,,,,,,,,,,,,,,,,,,,,AMNE05.jpg,AMSA13.jpg,AMSA20.jpg,AMNE20.jpg,AMSA13.jpg,MS,2,num_6,16,num_6,1.41673404863,,,2017_Jun_13_1207,60.0087959523,MAFE4ImagesEEG,001,100619,
AFNE01.JPG,AFNE01.JPG,AFNE01.JPG,AFNE01.JPG,AFNE01.JPG,AFNE01.JPG,5,7,57,7,,,,,,,,,,,,,,,,,,,,,,,AMSA19.jpg,AMSA14.jpg,AMNE12.jpg,AMNE03.jpg,AMNE03.jpg,MN,1,num_4,32,num_8,0.816760798218,,,2017_Jun_13_1207,60.0087959523,MAFE4ImagesEEG,001,100619,
AFNE01.JPG,AFNE01.JPG,AFNE01.JPG,AFNE01.JPG,AFNE01.JPG,AFNE01.JPG,5,8,58,8,,,,,,,,,,,,,,,,,,,,,,,AMNE10.jpg,AMNE13.jpg,AMSA12.jpg,AMSA15.jpg,AMNE13.jpg,MN,1,num_6,16,num_6,0.650162181701,,,2017_Jun_13_1207,60.0087959523,MAFE4ImagesEEG,001,100619,
AFNE01.JPG,AFNE01.JPG,AFNE01.JPG,AFNE01.JPG,AFNE01.JPG,AFNE01.JPG,5,9,59,2,,,,,,,,,,,,,,,,,,,,,,,AMNE10.jpg,AMNE08.jpg,AMSA17.jpg,AMSA15.jpg,AMNE08.jpg,MN,1,num_6,16,num_6,0.633441411715,,,2017_Jun_13_1207,60.0087959523,MAFE4ImagesEEG,001,100619,
,,,,,,,,,,,,,,,,,,,,,,,,,,,,,,,,,,,,,,,,,,,space,4.03326673724,2017_Jun_13_1207,60.0087959523,MAFE4ImagesEEG,001,100619,
AFNE01.JPG,AFNE01.JPG,AFNE01.JPG,AFNE01.JPG,AFNE01.JPG,AFNE01.JPG,,,,,0,0,0,2,,,,,,,,,,,,,,,,,,,AFNE06.jpg,AFSA10.jpg,AFNE04.jpg,AFSA18.jpg,AFNE06.jpg,FN,3,num_8,16,num_8,0.66679538996,,,2017_Jun_13_1207,60.0087959523,MAFE4ImagesEEG,001,100619,
AFNE01.JPG,AFNE01.JPG,AFNE01.JPG,AFNE01.JPG,AFNE01.JPG,AFNE01.JPG,,,,,0,1,1,3,,,,,,,,,,,,,,,,,,,AFNE18.jpg,AFSA19.jpg,AFNE08.jpg,AFSA05.jpg,AFSA05.jpg,FS,4,num_4,16,num_4,1.06675510516,,,2017_Jun_13_1207,60.0087959523,MAFE4ImagesEEG,001,100619,
AFNE01.JPG,AFNE01.JPG,AFNE01.JPG,AFNE01.JPG,AFNE01.JPG,AFNE01.JPG,,,,,0,2,2,4,,,,,,,,,,,,,,,,,,,AFNE10.jpg,AFSA11.jpg,AFNE04.jpg,AFSA08.jpg,AFSA08.jpg,FS,4,num_4,32,num_6,1.06674644514,,,2017_Jun_13_1207,60.0087959523,MAFE4ImagesEEG,001,100619,
AFNE01.JPG,AFNE01.JPG,AFNE01.JPG,AFNE01.JPG,AFNE01.JPG,AFNE01.JPG,,,,,0,3,3,9,,,,,,,,,,,,,,,,,,,AFNE11.jpg,AFSA03.jpg,AFSA10.jpg,AFNE08.jpg,AFSA10.jpg,FS,4,num_2,16,num_2,0.800136570702,,,2017_Jun_13_1207,60.0087959523,MAFE4ImagesEEG,001,100619,
AFNE01.JPG,AFNE01.JPG,AFNE01.JPG,AFNE01.JPG,AFNE01.JPG,AFNE01.JPG,,,,,0,4,4,1,,,,,,,,,,,,,,,,,,,AFSA08.jpg,AFSA05.jpg,AFNE13.jpg,AFNE18.jpg,AFNE13.jpg,FN,3,num_2,32,num_4,0.916808620386,,,2017_Jun_13_1207,60.0087959523,MAFE4ImagesEEG,001,100619,
AFNE01.JPG,AFNE01.JPG,AFNE01.JPG,AFNE01.JPG,AFNE01.JPG,AFNE01.JPG,,,,,0,5,5,5,,,,,,,,,,,,,,,,,,,AFSA15.jpg,AFSA17.jpg,AFNE06.jpg,AFNE19.jpg,AFNE19.jpg,FN,3,num_4,32,num_2,0.850074042624,,,2017_Jun_13_1207,60.0087959523,MAFE4ImagesEEG,001,100619,
AFNE01.JPG,AFNE01.JPG,AFNE01.JPG,AFNE01.JPG,AFNE01.JPG,AFNE01.JPG,,,,,0,6,6,7,,,,,,,,,,,,,,,,,,,AFSA08.jpg,AFNE02.jpg,AFSA16.jpg,AFNE10.jpg,AFNE10.jpg,FN,3,num_4,16,num_4,0.666811747593,,,2017_Jun_13_1207,60.0087959523,MAFE4ImagesEEG,001,100619,
AFNE01.JPG,AFNE01.JPG,AFNE01.JPG,AFNE01.JPG,AFNE01.JPG,AFNE01.JPG,,,,,0,7,7,8,,,,,,,,,,,,,,,,,,,AFNE09.jpg,AFSA11.jpg,AFSA17.jpg,AFNE13.jpg,AFSA17.jpg,FS,4,num_2,32,num_6,0.833500171138,,,2017_Jun_13_1207,60.0087959523,MAFE4ImagesEEG,001,100619,
AFNE01.JPG,AFNE01.JPG,AFNE01.JPG,AFNE01.JPG,AFNE01.JPG,AFNE01.JPG,,,,,0,8,8,6,,,,,,,,,,,,,,,,,,,AFNE08.jpg,AFNE15.jpg,AFSA10.jpg,AFSA17.jpg,AFSA17.jpg,FS,4,num_4,16,num_4,0.650189444539,,,2017_Jun_13_1207,60.0087959523,MAFE4ImagesEEG,001,100619,
AFNE01.JPG,AFNE01.JPG,AFNE01.JPG,AFNE01.JPG,AFNE01.JPG,AFNE01.JPG,,,,,0,9,9,0,,,,,,,,,,,,,,,,,,,AFNE02.jpg,AFSA13.jpg,AFSA01.jpg,AFNE08.jpg,AFNE02.jpg,FN,3,num_8,16,num_8,1.05008020077,,,2017_Jun_13_1207,60.0087959523,MAFE4ImagesEEG,001,100619,
AFNE01.JPG,AFNE01.JPG,AFNE01.JPG,AFNE01.JPG,AFNE01.JPG,AFNE01.JPG,,,,,1,0,10,8,,,,,,,,,,,,,,,,,,,AFSA04.jpg,AFNE11.jpg,AFNE14.jpg,AFSA05.jpg,AFNE14.jpg,FN,3,num_2,32,num_8,0.73347191402,,,2017_Jun_13_1207,60.0087959523,MAFE4ImagesEEG,001,100619,
AFNE01.JPG,AFNE01.JPG,AFNE01.JPG,AFNE01.JPG,AFNE01.JPG,AFNE01.JPG,,,,,1,1,11,3,,,,,,,,,,,,,,,,,,,AFNE13.jpg,AFSA03.jpg,AFSA15.jpg,AFNE04.jpg,AFSA15.jpg,FS,4,num_2,32,num_8,1.15029544884,,,2017_Jun_13_1207,60.0087959523,MAFE4ImagesEEG,001,100619,
AFNE01.JPG,AFNE01.JPG,AFNE01.JPG,AFNE01.JPG,AFNE01.JPG,AFNE01.JPG,,,,,1,2,12,1,,,,,,,,,,,,,,,,,,,AFSA20.jpg,AFSA17.jpg,AFNE17.jpg,AFNE06.jpg,AFSA17.jpg,FS,4,num_6,16,num_6,0.816757590859,,,2017_Jun_13_1207,60.0087959523,MAFE4ImagesEEG,001,100619,
AFNE01.JPG,AFNE01.JPG,AFNE01.JPG,AFNE01.JPG,AFNE01.JPG,AFNE01.JPG,,,,,1,3,13,7,,,,,,,,,,,,,,,,,,,AFNE19.jpg,AFNE18.jpg,AFSA19.jpg,AFSA06.jpg,AFSA19.jpg,FS,4,num_2,16,num_2,0.800101930858,,,2017_Jun_13_1207,60.0087959523,MAFE4ImagesEEG,001,100619,
AFNE01.JPG,AFNE01.JPG,AFNE01.JPG,AFNE01.JPG,AFNE01.JPG,AFNE01.JPG,,,,,1,4,14,4,,,,,,,,,,,,,,,,,,,AFNE15.jpg,AFSA05.jpg,AFNE19.jpg,AFSA13.jpg,AFSA05.jpg,FS,4,num_6,16,num_6,0.950131166202,,,2017_Jun_13_1207,60.0087959523,MAFE4ImagesEEG,001,100619,
AFNE01.JPG,AFNE01.JPG,AFNE01.JPG,AFNE01.JPG,AFNE01.JPG,AFNE01.JPG,,,,,1,5,15,2,,,,,,,,,,,,,,,,,,,AFNE13.jpg,AFSA11.jpg,AFNE20.jpg,AFSA14.jpg,AFSA11.jpg,FS,4,num_6,16,num_6,0.566808828968,,,2017_Jun_13_1207,60.0087959523,MAFE4ImagesEEG,001,100619,
AFNE01.JPG,AFNE01.JPG,AFNE01.JPG,AFNE01.JPG,AFNE01.JPG,AFNE01.JPG,,,,,1,6,16,0,,,,,,,,,,,,,,,,,,,AFSA11.jpg,AFNE07.jpg,AFNE11.jpg,AFSA08.jpg,AFNE11.jpg,FN,3,num_2,16,num_2,0.800121175242,,,2017_Jun_13_1207,60.0087959523,MAFE4ImagesEEG,001,100619,
AFNE01.JPG,AFNE01.JPG,AFNE01.JPG,AFNE01.JPG,AFNE01.JPG,AFNE01.JPG,,,,,1,7,17,5,,,,,,,,,,,,,,,,,,,AFSA19.jpg,AFSA09.jpg,AFNE10.jpg,AFNE19.jpg,AFNE10.jpg,FN,3,num_2,16,num_2,0.866629631957,,,2017_Jun_13_1207,60.0087959523,MAFE4ImagesEEG,001,100619,
AFNE01.JPG,AFNE01.JPG,AFNE01.JPG,AFNE01.JPG,AFNE01.JPG,AFNE01.JPG,,,,,1,8,18,6,,,,,,,,,,,,,,,,,,,AFSA05.jpg,AFSA13.jpg,AFNE05.jpg,AFNE06.jpg,AFNE06.jpg,FN,3,num_4,16,num_4,0.883412304625,,,2017_Jun_13_1207,60.0087959523,MAFE4ImagesEEG,001,100619,
AFNE01.JPG,AFNE01.JPG,AFNE01.JPG,AFNE01.JPG,AFNE01.JPG,AFNE01.JPG,,,,,1,9,19,9,,,,,,,,,,,,,,,,,,,AFSA09.jpg,AFNE14.jpg,AFSA10.jpg,AFNE16.jpg,AFSA09.jpg,FS,4,num_8,16,num_8,0.716793481552,,,2017_Jun_13_1207,60.0087959523,MAFE4ImagesEEG,001,100619,
AFNE01.JPG,AFNE01.JPG,AFNE01.JPG,AFNE01.JPG,AFNE01.JPG,AFNE01.JPG,,,,,2,0,20,9,,,,,,,,,,,,,,,,,,,AFNE14.jpg,AFSA11.jpg,AFSA04.jpg,AFNE13.jpg,AFSA11.jpg,FS,4,num_6,16,num_6,0.883540600305,,,2017_Jun_13_1207,60.0087959523,MAFE4ImagesEEG,001,100619,
AFNE01.JPG,AFNE01.JPG,AFNE01.JPG,AFNE01.JPG,AFNE01.JPG,AFNE01.JPG,,,,,2,1,21,6,,,,,,,,,,,,,,,,,,,AFNE10.jpg,AFNE13.jpg,AFSA13.jpg,AFSA09.jpg,AFSA09.jpg,FS,4,num_4,32,num_2,0.983435429924,,,2017_Jun_13_1207,60.0087959523,MAFE4ImagesEEG,001,100619,
AFNE01.JPG,AFNE01.JPG,AFNE01.JPG,AFNE01.JPG,AFNE01.JPG,AFNE01.JPG,,,,,2,2,22,1,,,,,,,,,,,,,,,,,,,AFSA12.jpg,AFSA01.jpg,AFNE13.jpg,AFNE11.jpg,AFNE13.jpg,FN,3,num_2,32,num_4,0.733431180124,,,2017_Jun_13_1207,60.0087959523,MAFE4ImagesEEG,001,100619,
AFNE01.JPG,AFNE01.JPG,AFNE01.JPG,AFNE01.JPG,AFNE01.JPG,AFNE01.JPG,,,,,2,3,23,2,,,,,,,,,,,,,,,,,,,AFSA08.jpg,AFSA14.jpg,AFNE11.jpg,AFNE05.jpg,AFSA08.jpg,FS,4,num_8,32,num_6,0.883421285369,,,2017_Jun_13_1207,60.0087959523,MAFE4ImagesEEG,001,100619,
AFNE01.JPG,AFNE01.JPG,AFNE01.JPG,AFNE01.JPG,AFNE01.JPG,AFNE01.JPG,,,,,2,4,24,0,,,,,,,,,,,,,,,,,,,AFSA09.jpg,AFSA17.jpg,AFNE07.jpg,AFNE03.jpg,AFNE03.jpg,FN,3,num_4,16,num_4,0.91703634517,,,2017_Jun_13_1207,60.0087959523,MAFE4ImagesEEG,001,100619,
AFNE01.JPG,AFNE01.JPG,AFNE01.JPG,AFNE01.JPG,AFNE01.JPG,AFNE01.JPG,,,,,2,5,25,3,,,,,,,,,,,,,,,,,,,AFSA16.jpg,AFSA19.jpg,AFNE02.jpg,AFNE04.jpg,AFSA16.jpg,FS,4,num_8,32,num_2,1.56674179446,,,2017_Jun_13_1207,60.0087959523,MAFE4ImagesEEG,001,100619,
AFNE01.JPG,AFNE01.JPG,AFNE01.JPG,AFNE01.JPG,AFNE01.JPG,AFNE01.JPG,,,,,2,6,26,5,,,,,,,,,,,,,,,,,,,AFSA05.jpg,AFNE01.jpg,AFSA03.jpg,AFNE09.jpg,AFNE09.jpg,FN,3,num_4,16,num_4,0.716798613372,,,2017_Jun_13_1207,60.0087959523,MAFE4ImagesEEG,001,100619,
AFNE01.JPG,AFNE01.JPG,AFNE01.JPG,AFNE01.JPG,AFNE01.JPG,AFNE01.JPG,,,,,2,7,27,7,,,,,,,,,,,,,,,,,,,AFSA02.jpg,AFSA19.jpg,AFNE14.jpg,AFNE08.jpg,AFSA19.jpg,FS,4,num_6,16,num_6,0.816795438062,,,2017_Jun_13_1207,60.0087959523,MAFE4ImagesEEG,001,100619,
AFNE01.JPG,AFNE01.JPG,AFNE01.JPG,AFNE01.JPG,AFNE01.JPG,AFNE01.JPG,,,,,2,8,28,4,,,,,,,,,,,,,,,,,,,AFSA13.jpg,AFNE18.jpg,AFNE05.jpg,AFSA03.jpg,AFNE18.jpg,FN,3,num_6,32,num_8,0.533341950562,,,2017_Jun_13_1207,60.0087959523,MAFE4ImagesEEG,001,100619,
AFNE01.JPG,AFNE01.JPG,AFNE01.JPG,AFNE01.JPG,AFNE01.JPG,AFNE01.JPG,,,,,2,9,29,8,,,,,,,,,,,,,,,,,,,AFNE18.jpg,AFNE19.jpg,AFSA17.jpg,AFSA20.jpg,AFNE18.jpg,FN,3,num_8,32,num_6,0.466625654837,,,2017_Jun_13_1207,60.0087959523,MAFE4ImagesEEG,001,100619,
AFNE01.JPG,AFNE01.JPG,AFNE01.JPG,AFNE01.JPG,AFNE01.JPG,AFNE01.JPG,,,,,3,0,30,4,,,,,,,,,,,,,,,,,,,AFSA16.jpg,AFNE08.jpg,AFNE15.jpg,AFSA20.jpg,AFNE15.jpg,FN,3,num_2,16,num_2,0.700130444602,,,2017_Jun_13_1207,60.0087959523,MAFE4ImagesEEG,001,100619,
AFNE01.JPG,AFNE01.JPG,AFNE01.JPG,AFNE01.JPG,AFNE01.JPG,AFNE01.JPG,,,,,3,1,31,7,,,,,,,,,,,,,,,,,,,AFSA18.jpg,AFNE06.jpg,AFNE17.jpg,AFSA12.jpg,AFSA18.jpg,FS,4,num_8,32,num_2,0.916788413888,,,2017_Jun_13_1207,60.0087959523,MAFE4ImagesEEG,001,100619,
AFNE01.JPG,AFNE01.JPG,AFNE01.JPG,AFNE01.JPG,AFNE01.JPG,AFNE01.JPG,,,,,3,2,32,0,,,,,,,,,,,,,,,,,,,AFSA08.jpg,AFNE11.jpg,AFSA19.jpg,AFNE03.jpg,AFSA08.jpg,FS,4,num_8,32,num_2,0.850185018324,,,2017_Jun_13_1207,60.0087959523,MAFE4ImagesEEG,001,100619,
AFNE01.JPG,AFNE01.JPG,AFNE01.JPG,AFNE01.JPG,AFNE01.JPG,AFNE01.JPG,,,,,3,3,33,5,,,,,,,,,,,,,,,,,,,AFSA18.jpg,AFSA02.jpg,AFNE20.jpg,AFNE12.jpg,AFNE20.jpg,FN,3,num_2,32,num_4,0.883470679109,,,2017_Jun_13_1207,60.0087959523,MAFE4ImagesEEG,001,100619,
AFNE01.JPG,AFNE01.JPG,AFNE01.JPG,AFNE01.JPG,AFNE01.JPG,AFNE01.JPG,,,,,3,4,34,6,,,,,,,,,,,,,,,,,,,AFSA11.jpg,AFSA14.jpg,AFNE17.jpg,AFNE18.jpg,AFSA11.jpg,FS,4,num_8,32,num_2,0.883421285369,,,2017_Jun_13_1207,60.0087959523,MAFE4ImagesEEG,001,100619,
AFNE01.JPG,AFNE01.JPG,AFNE01.JPG,AFNE01.JPG,AFNE01.JPG,AFNE01.JPG,,,,,3,5,35,2,,,,,,,,,,,,,,,,,,,AFNE03.jpg,AFSA19.jpg,AFSA11.jpg,AFNE11.jpg,AFSA19.jpg,FS,4,num_6,32,num_2,0.983458523115,,,2017_Jun_13_1207,60.0087959523,MAFE4ImagesEEG,001,100619,
AFNE01.JPG,AFNE01.JPG,AFNE01.JPG,AFNE01.JPG,AFNE01.JPG,AFNE01.JPG,,,,,3,6,36,8,,,,,,,,,,,,,,,,,,,AFSA18.jpg,AFNE19.jpg,AFSA07.jpg,AFNE14.jpg,AFSA07.jpg,FS,4,num_2,32,num_4,1.11675031006,,,2017_Jun_13_1207,60.0087959523,MAFE4ImagesEEG,001,100619,
AFNE01.JPG,AFNE01.JPG,AFNE01.JPG,AFNE01.JPG,AFNE01.JPG,AFNE01.JPG,,,,,3,7,37,1,,,,,,,,,,,,,,,,,,,AFSA13.jpg,AFNE17.jpg,AFSA05.jpg,AFNE16.jpg,AFSA05.jpg,FS,4,num_2,32,num_8,0.883454321476,,,2017_Jun_13_1207,60.0087959523,MAFE4ImagesEEG,001,100619,
AFNE01.JPG,AFNE01.JPG,AFNE01.JPG,AFNE01.JPG,AFNE01.JPG,AFNE01.JPG,,,,,3,8,38,9,,,,,,,,,,,,,,,,,,,AFSA02.jpg,AFNE12.jpg,AFNE04.jpg,AFSA04.jpg,AFNE04.jpg,FN,3,num_2,32,num_6,0.816805060254,,,2017_Jun_13_1207,60.0087959523,MAFE4ImagesEEG,001,100619,
AFNE01.JPG,AFNE01.JPG,AFNE01.JPG,AFNE01.JPG,AFNE01.JPG,AFNE01.JPG,,,,,3,9,39,3,,,,,,,,,,,,,,,,,,,AFNE07.jpg,AFNE14.jpg,AFSA16.jpg,AFSA15.jpg,AFSA16.jpg,FS,4,num_2,16,num_2,0.650162181701,,,2017_Jun_13_1207,60.0087959523,MAFE4ImagesEEG,001,100619,
AFNE01.JPG,AFNE01.JPG,AFNE01.JPG,AFNE01.JPG,AFNE01.JPG,AFNE01.JPG,,,,,4,0,40,2,,,,,,,,,,,,,,,,,,,AFSA15.jpg,AFNE02.jpg,AFNE06.jpg,AFSA13.jpg,AFSA13.jpg,FS,4,num_4,16,num_4,0.783483797393,,,2017_Jun_13_1207,60.0087959523,MAFE4ImagesEEG,001,100619,
AFNE01.JPG,AFNE01.JPG,AFNE01.JPG,AFNE01.JPG,AFNE01.JPG,AFNE01.JPG,,,,,4,1,41,5,,,,,,,,,,,,,,,,,,,AFSA20.jpg,AFSA19.jpg,AFNE11.jpg,AFNE10.jpg,AFSA20.jpg,FS,4,num_8,32,num_6,1.20007992821,,,2017_Jun_13_1207,60.0087959523,MAFE4ImagesEEG,001,100619,
AFNE01.JPG,AFNE01.JPG,AFNE01.JPG,AFNE01.JPG,AFNE01.JPG,AFNE01.JPG,,,,,4,2,42,8,,,,,,,,,,,,,,,,,,,AFSA01.jpg,AFSA09.jpg,AFNE06.jpg,AFNE01.jpg,AFSA09.jpg,FS,4,num_6,32,num_4,0.95008145168,,,2017_Jun_13_1207,60.0087959523,MAFE4ImagesEEG,001,100619,
AFNE01.JPG,AFNE01.JPG,AFNE01.JPG,AFNE01.JPG,AFNE01.JPG,AFNE01.JPG,,,,,4,3,43,7,,,,,,,,,,,,,,,,,,,AFSA16.jpg,AFSA19.jpg,AFNE09.jpg,AFNE15.jpg,AFSA19.jpg,FS,4,num_6,16,num_6,1.15012706077,,,2017_Jun_13_1207,60.0087959523,MAFE4ImagesEEG,001,100619,
AFNE01.JPG,AFNE01.JPG,AFNE01.JPG,AFNE01.JPG,AFNE01.JPG,AFNE01.JPG,,,,,4,4,44,0,,,,,,,,,,,,,,,,,,,AFSA20.jpg,AFNE16.jpg,AFNE17.jpg,AFSA11.jpg,AFNE17.jpg,FN,3,num_2,32,num_8,0.866814056993,,,2017_Jun_13_1207,60.0087959523,MAFE4ImagesEEG,001,100619,
AFNE01.JPG,AFNE01.JPG,AFNE01.JPG,AFNE01.JPG,AFNE01.JPG,AFNE01.JPG,,,,,4,5,45,1,,,,,,,,,,,,,,,,,,,AFSA04.jpg,AFNE17.jpg,AFNE02.jpg,AFSA10.jpg,AFSA04.jpg,FS,4,num_8,32,num_6,0.500158605457,,,2017_Jun_13_1207,60.0087959523,MAFE4ImagesEEG,001,100619,
AFNE01.JPG,AFNE01.JPG,AFNE01.JPG,AFNE01.JPG,AFNE01.JPG,AFNE01.JPG,,,,,4,6,46,4,,,,,,,,,,,,,,,,,,,AFNE13.jpg,AFSA18.jpg,AFSA17.jpg,AFNE19.jpg,AFSA18.jpg,FS,4,num_6,32,num_8,0.700130444544,,,2017_Jun_13_1207,60.0087959523,MAFE4ImagesEEG,001,100619,
AFNE01.JPG,AFNE01.JPG,AFNE01.JPG,AFNE01.JPG,AFNE01.JPG,AFNE01.JPG,,,,,4,7,47,9,,,,,,,,,,,,,,,,,,,AFNE18.jpg,AFNE10.jpg,AFSA09.jpg,AFSA05.jpg,AFNE10.jpg,FN,3,num_6,16,num_6,0.650191048277,,,2017_Jun_13_1207,60.0087959523,MAFE4ImagesEEG,001,100619,
AFNE01.JPG,AFNE01.JPG,AFNE01.JPG,AFNE01.JPG,AFNE01.JPG,AFNE01.JPG,,,,,4,8,48,6,,,,,,,,,,,,,,,,,,,AFNE19.jpg,AFSA20.jpg,AFSA08.jpg,AFNE14.jpg,AFNE14.jpg,FN,3,num_4,32,num_6,0.650087770249,,,2017_Jun_13_1207,60.0087959523,MAFE4ImagesEEG,001,100619,
AFNE01.JPG,AFNE01.JPG,AFNE01.JPG,AFNE01.JPG,AFNE01.JPG,AFNE01.JPG,,,,,4,9,49,3,,,,,,,,,,,,,,,,,,,AFSA13.jpg,AFSA07.jpg,AFNE01.jpg,AFNE13.jpg,AFSA07.jpg,FS,4,num_6,32,num_2,0.73349147907,,,2017_Jun_13_1207,60.0087959523,MAFE4ImagesEEG,001,100619,
AFNE01.JPG,AFNE01.JPG,AFNE01.JPG,AFNE01.JPG,AFNE01.JPG,AFNE01.JPG,,,,,5,0,50,1,,,,,,,,,,,,,,,,,,,AFSA17.jpg,AFNE10.jpg,AFNE01.jpg,AFSA07.jpg,AFNE01.jpg,FN,3,num_2,32,num_4,0.683511348907,,,2017_Jun_13_1207,60.0087959523,MAFE4ImagesEEG,001,100619,
AFNE01.JPG,AFNE01.JPG,AFNE01.JPG,AFNE01.JPG,AFNE01.JPG,AFNE01.JPG,,,,,5,1,51,0,,,,,,,,,,,,,,,,,,,AFSA02.jpg,AFSA18.jpg,AFNE19.jpg,AFNE02.jpg,AFNE02.jpg,FN,3,num_4,16,num_4,0.716771350533,,,2017_Jun_13_1207,60.0087959523,MAFE4ImagesEEG,001,100619,
AFNE01.JPG,AFNE01.JPG,AFNE01.JPG,AFNE01.JPG,AFNE01.JPG,AFNE01.JPG,,,,,5,2,52,7,,,,,,,,,,,,,,,,,,,AFNE14.jpg,AFSA17.jpg,AFNE06.jpg,AFSA01.jpg,AFNE06.jpg,FN,3,num_2,32,num_8,0.916747038544,,,2017_Jun_13_1207,60.0087959523,MAFE4ImagesEEG,001,100619,
AFNE01.JPG,AFNE01.JPG,AFNE01.JPG,AFNE01.JPG,AFNE01.JPG,AFNE01.JPG,,,,,5,3,53,9,,,,,,,,,,,,,,,,,,,AFSA17.jpg,AFNE03.jpg,AFSA06.jpg,AFNE04.jpg,AFSA06.jpg,FS,4,num_2,16,num_2,0.583506505704,,,2017_Jun_13_1207,60.0087959523,MAFE4ImagesEEG,001,100619,
AFNE01.JPG,AFNE01.JPG,AFNE01.JPG,AFNE01.JPG,AFNE01.JPG,AFNE01.JPG,,,,,5,4,54,5,,,,,,,,,,,,,,,,,,,AFSA14.jpg,AFSA01.jpg,AFNE09.jpg,AFNE10.jpg,AFSA01.jpg,FS,4,num_6,32,num_8,0.400207004976,,,2017_Jun_13_1207,60.0087959523,MAFE4ImagesEEG,001,100619,
AFNE01.JPG,AFNE01.JPG,AFNE01.JPG,AFNE01.JPG,AFNE01.JPG,AFNE01.JPG,,,,,5,5,55,6,,,,,,,,,,,,,,,,,,,AFNE12.jpg,AFSA18.jpg,AFSA03.jpg,AFNE03.jpg,AFNE12.jpg,FN,3,num_8,32,num_6,0.466957299039,,,2017_Jun_13_1207,60.0087959523,MAFE4ImagesEEG,001,100619,
AFNE01.JPG,AFNE01.JPG,AFNE01.JPG,AFNE01.JPG,AFNE01.JPG,AFNE01.JPG,,,,,5,6,56,8,,,,,,,,,,,,,,,,,,,AFSA14.jpg,AFNE16.jpg,AFNE07.jpg,AFSA11.jpg,AFSA11.jpg,FS,4,num_4,16,num_4,0.433454818558,,,2017_Jun_13_1207,60.0087959523,MAFE4ImagesEEG,001,100619,
AFNE01.JPG,AFNE01.JPG,AFNE01.JPG,AFNE01.JPG,AFNE01.JPG,AFNE01.JPG,,,,,5,7,57,4,,,,,,,,,,,,,,,,,,,AFNE06.jpg,AFNE11.jpg,AFSA09.jpg,AFSA19.jpg,AFNE11.jpg,FN,3,num_6,16,num_6,0.600162165705,,,2017_Jun_13_1207,60.0087959523,MAFE4ImagesEEG,001,100619,
AFNE01.JPG,AFNE01.JPG,AFNE01.JPG,AFNE01.JPG,AFNE01.JPG,AFNE01.JPG,,,,,5,8,58,2,,,,,,,,,,,,,,,,,,,AFNE02.jpg,AFSA13.jpg,AFSA17.jpg,AFNE01.jpg,AFSA17.jpg,FS,4,num_2,32,num_8,0.616901859292,,,2017_Jun_13_1207,60.0087959523,MAFE4ImagesEEG,001,100619,
AFNE01.JPG,AFNE01.JPG,AFNE01.JPG,AFNE01.JPG,AFNE01.JPG,AFNE01.JPG,,,,,5,9,59,3,,,,,,,,,,,,,,,,,,,AFNE18.jpg,AFSA08.jpg,AFSA09.jpg,AFNE01.jpg,AFNE01.jpg,FN,3,num_4,32,num_2,0.550160545972,,,2017_Jun_13_1207,60.0087959523,MAFE4ImagesEEG,001,100619,
,,,,,,,,,,,,,,,,,,,,,,,,,,,,,,,,,,,,,,,,,,,space,3.94989766821,2017_Jun_13_1207,60.0087959523,MAFE4ImagesEEG,001,100619,
AFNE01.JPG,AFNE01.JPG,AFNE01.JPG,AFNE01.JPG,AFNE01.JPG,AFNE01.JPG,,,,,,,,,0,0,0,7,,,,,,,,,,,,,,,AMNE01.jpg,AMSA12.jpg,AMNE19.jpg,AMSA16.jpg,AMSA12.jpg,MS,2,num_6,32,num_8,0.750109933317,,,2017_Jun_13_1207,60.0087959523,MAFE4ImagesEEG,001,100619,
AFNE01.JPG,AFNE01.JPG,AFNE01.JPG,AFNE01.JPG,AFNE01.JPG,AFNE01.JPG,,,,,,,,,0,1,1,5,,,,,,,,,,,,,,,AMNE17.jpg,AMSA10.jpg,AMNE02.jpg,AMSA16.jpg,AMNE02.jpg,MN,1,num_2,32,num_8,0.483488833008,,,2017_Jun_13_1207,60.0087959523,MAFE4ImagesEEG,001,100619,
AFNE01.JPG,AFNE01.JPG,AFNE01.JPG,AFNE01.JPG,AFNE01.JPG,AFNE01.JPG,,,,,,,,,0,2,2,9,,,,,,,,,,,,,,,AMSA02.jpg,AMSA20.jpg,AMNE19.jpg,AMNE06.jpg,AMNE19.jpg,MN,1,num_2,32,num_6,0.516982974252,,,2017_Jun_13_1207,60.0087959523,MAFE4ImagesEEG,001,100619,
AFNE01.JPG,AFNE01.JPG,AFNE01.JPG,AFNE01.JPG,AFNE01.JPG,AFNE01.JPG,,,,,,,,,0,3,3,1,,,,,,,,,,,,,,,AMNE14.jpg,AMNE16.jpg,AMSA17.jpg,AMSA13.jpg,AMSA17.jpg,MS,2,num_2,16,num_2,0.516786040389,,,2017_Jun_13_1207,60.0087959523,MAFE4ImagesEEG,001,100619,
AFNE01.JPG,AFNE01.JPG,AFNE01.JPG,AFNE01.JPG,AFNE01.JPG,AFNE01.JPG,,,,,,,,,0,4,4,8,,,,,,,,,,,,,,,AMSA16.jpg,AMNE12.jpg,AMSA15.jpg,AMNE06.jpg,AMSA16.jpg,MS,2,num_8,32,num_2,0.483479210816,,,2017_Jun_13_1207,60.0087959523,MAFE4ImagesEEG,001,100619,
AFNE01.JPG,AFNE01.JPG,AFNE01.JPG,AFNE01.JPG,AFNE01.JPG,AFNE01.JPG,,,,,,,,,0,5,5,2,,,,,,,,,,,,,,,AMSA14.jpg,AMNE18.jpg,AMNE16.jpg,AMSA05.jpg,AMSA14.jpg,MS,2,num_8,32,num_4,0.400275001652,,,2017_Jun_13_1207,60.0087959523,MAFE4ImagesEEG,001,100619,
AFNE01.JPG,AFNE01.JPG,AFNE01.JPG,AFNE01.JPG,AFNE01.JPG,AFNE01.JPG,,,,,,,,,0,6,6,6,,,,,,,,,,,,,,,AMNE04.jpg,AMSA13.jpg,AMSA02.jpg,AMNE02.jpg,AMNE02.jpg,MN,1,num_4,32,num_8,0.483498455142,,,2017_Jun_13_1207,60.0087959523,MAFE4ImagesEEG,001,100619,
AFNE01.JPG,AFNE01.JPG,AFNE01.JPG,AFNE01.JPG,AFNE01.JPG,AFNE01.JPG,,,,,,,,,0,7,7,0,,,,,,,,,,,,,,,AMSA15.jpg,AMNE11.jpg,AMSA08.jpg,AMNE10.jpg,AMSA15.jpg,MS,2,num_8,32,num_6,0.283523408638,,,2017_Jun_13_1207,60.0087959523,MAFE4ImagesEEG,001,100619,
AFNE01.JPG,AFNE01.JPG,AFNE01.JPG,AFNE01.JPG,AFNE01.JPG,AFNE01.JPG,,,,,,,,,0,8,8,3,,,,,,,,,,,,,,,AMSA14.jpg,AMNE04.jpg,AMNE10.jpg,AMSA08.jpg,AMNE04.jpg,MN,1,num_6,32,num_8,0.350326945423,,,2017_Jun_13_1207,60.0087959523,MAFE4ImagesEEG,001,100619,
AFNE01.JPG,AFNE01.JPG,AFNE01.JPG,AFNE01.JPG,AFNE01.JPG,AFNE01.JPG,,,,,,,,,0,9,9,4,,,,,,,,,,,,,,,AMNE04.jpg,AMNE06.jpg,AMSA13.jpg,AMSA17.jpg,AMNE06.jpg,MN,1,num_6,32,num_4,0.333398336486,,,2017_Jun_13_1207,60.0087959523,MAFE4ImagesEEG,001,100619,
AFNE01.JPG,AFNE01.JPG,AFNE01.JPG,AFNE01.JPG,AFNE01.JPG,AFNE01.JPG,,,,,,,,,1,0,10,6,,,,,,,,,,,,,,,AMNE19.jpg,AMSA09.jpg,AMSA10.jpg,AMNE11.jpg,AMSA09.jpg,MS,2,num_6,32,num_2,0.816755666398,,,2017_Jun_13_1207,60.0087959523,MAFE4ImagesEEG,001,100619,
AFNE01.JPG,AFNE01.JPG,AFNE01.JPG,AFNE01.JPG,AFNE01.JPG,AFNE01.JPG,,,,,,,,,1,1,11,3,,,,,,,,,,,,,,,AMNE02.jpg,AMSA01.jpg,AMNE19.jpg,AMSA05.jpg,AMSA01.jpg,MS,2,num_6,32,num_8,0.350168179546,,,2017_Jun_13_1207,60.0087959523,MAFE4ImagesEEG,001,100619,
AFNE01.JPG,AFNE01.JPG,AFNE01.JPG,AFNE01.JPG,AFNE01.JPG,AFNE01.JPG,,,,,,,,,1,2,12,9,,,,,,,,,,,,,,,AMNE06.jpg,AMNE15.jpg,AMSA08.jpg,AMSA04.jpg,AMNE15.jpg,MN,1,num_6,16,num_6,0.400178138516,,,2017_Jun_13_1207,60.0087959523,MAFE4ImagesEEG,001,100619,
AFNE01.JPG,AFNE01.JPG,AFNE01.JPG,AFNE01.JPG,AFNE01.JPG,AFNE01.JPG,,,,,,,,,1,3,13,7,,,,,,,,,,,,,,,AMSA08.jpg,AMNE13.jpg,AMSA12.jpg,AMNE07.jpg,AMSA12.jpg,MS,2,num_2,32,num_4,0.350177160231,,,2017_Jun_13_1207,60.0087959523,MAFE4ImagesEEG,001,100619,
AFNE01.JPG,AFNE01.JPG,AFNE01.JPG,AFNE01.JPG,AFNE01.JPG,AFNE01.JPG,,,,,,,,,1,4,14,1,,,,,,,,,,,,,,,AMNE07.jpg,AMSA02.jpg,AMSA18.jpg,AMNE18.jpg,AMSA18.jpg,MS,2,num_2,32,num_6,0.383504517144,,,2017_Jun_13_1207,60.0087959523,MAFE4ImagesEEG,001,100619,
AFNE01.JPG,AFNE01.JPG,AFNE01.JPG,AFNE01.JPG,AFNE01.JPG,AFNE01.JPG,,,,,,,,,1,5,15,0,,,,,,,,,,,,,,,AMSA10.jpg,AMNE15.jpg,AMSA20.jpg,AMNE03.jpg,AMSA20.jpg,MS,2,num_2,16,num_2,0.533330724633,,,2017_Jun_13_1207,60.0087959523,MAFE4ImagesEEG,001,100619,
AFNE01.JPG,AFNE01.JPG,AFNE01.JPG,AFNE01.JPG,AFNE01.JPG,AFNE01.JPG,,,,,,,,,1,6,16,2,,,,,,,,,,,,,,,AMNE07.jpg,AMSA03.jpg,AMNE10.jpg,AMSA15.jpg,AMSA03.jpg,MS,2,num_6,16,num_6,0.533454850724,,,2017_Jun_13_1207,60.0087959523,MAFE4ImagesEEG,001,100619,
AFNE01.JPG,AFNE01.JPG,AFNE01.JPG,AFNE01.JPG,AFNE01.JPG,AFNE01.JPG,,,,,,,,,1,7,17,4,,,,,,,,,,,,,,,AMNE02.jpg,AMSA11.jpg,AMNE08.jpg,AMSA09.jpg,AMSA11.jpg,MS,2,num_6,32,num_4,0.433361483563,,,2017_Jun_13_1207,60.0087959523,MAFE4ImagesEEG,001,100619,
AFNE01.JPG,AFNE01.JPG,AFNE01.JPG,AFNE01.JPG,AFNE01.JPG,AFNE01.JPG,,,,,,,,,1,8,18,5,,,,,,,,,,,,,,,AMSA15.jpg,AMNE16.jpg,AMNE09.jpg,AMSA14.jpg,AMSA15.jpg,MS,2,num_8,16,num_8,0.300204727799,,,2017_Jun_13_1207,60.0087959523,MAFE4ImagesEEG,001,100619,
AFNE01.JPG,AFNE01.JPG,AFNE01.JPG,AFNE01.JPG,AFNE01.JPG,AFNE01.JPG,,,,,,,,,1,9,19,8,,,,,,,,,,,,,,,AMSA09.jpg,AMNE20.jpg,AMSA04.jpg,AMNE16.jpg,AMNE16.jpg,MN,1,num_4,32,num_6,0.800094874576,,,2017_Jun_13_1207,60.0087959523,MAFE4ImagesEEG,001,100619,
AFNE01.JPG,AFNE01.JPG,AFNE01.JPG,AFNE01.JPG,AFNE01.JPG,AFNE01.JPG,,,,,,,,,2,0,20,1,,,,,,,,,,,,,,,AMNE18.jpg,AMSA08.jpg,AMNE09.jpg,AMSA05.jpg,AMSA08.jpg,MS,2,num_6,32,num_4,0.40014157421,,,2017_Jun_13_1207,60.0087959523,MAFE4ImagesEEG,001,100619,
AFNE01.JPG,AFNE01.JPG,AFNE01.JPG,AFNE01.JPG,AFNE01.JPG,AFNE01.JPG,,,,,,,,,2,1,21,6,,,,,,,,,,,,,,,AMSA06.jpg,AMNE02.jpg,AMSA19.jpg,AMNE08.jpg,AMSA06.jpg,MS,2,num_8,16,num_8,0.383463141741,,,2017_Jun_13_1207,60.0087959523,MAFE4ImagesEEG,001,100619,
AFNE01.JPG,AFNE01.JPG,AFNE01.JPG,AFNE01.JPG,AFNE01.JPG,AFNE01.JPG,,,,,,,,,2,2,22,3,,,,,,,,,,,,,,,AMSA08.jpg,AMNE15.jpg,AMNE03.jpg,AMSA15.jpg,AMNE15.jpg,MN,1,num_6,16,num_6,0.483489153732,,,2017_Jun_13_1207,60.0087959523,MAFE4ImagesEEG,001,100619,
AFNE01.JPG,AFNE01.JPG,AFNE01.JPG,AFNE01.JPG,AFNE01.JPG,AFNE01.JPG,,,,,,,,,2,3,23,0,,,,,,,,,,,,,,,AMSA02.jpg,AMNE06.jpg,AMNE11.jpg,AMSA14.jpg,AMNE11.jpg,MN,1,num_2,32,num_6,0.333497444866,,,2017_Jun_13_1207,60.0087959523,MAFE4ImagesEEG,001,100619,
AFNE01.JPG,AFNE01.JPG,AFNE01.JPG,AFNE01.JPG,AFNE01.JPG,AFNE01.JPG,,,,,,,,,2,4,24,7,,,,,,,,,,,,,,,AMNE12.jpg,AMSA09.jpg,AMNE17.jpg,AMSA08.jpg,AMNE17.jpg,MN,1,num_2,16,num_2,0.316785655508,,,2017_Jun_13_1207,60.0087959523,MAFE4ImagesEEG,001,100619,
AFNE01.JPG,AFNE01.JPG,AFNE01.JPG,AFNE01.JPG,AFNE01.JPG,AFNE01.JPG,,,,,,,,,2,5,25,9,,,,,,,,,,,,,,,AMSA11.jpg,AMSA13.jpg,AMNE04.jpg,AMNE15.jpg,AMNE15.jpg,MN,1,num_4,32,num_6,0.233510883816,,,2017_Jun_13_1207,60.0087959523,MAFE4ImagesEEG,001,100619,
AFNE01.JPG,AFNE01.JPG,AFNE01.JPG,AFNE01.JPG,AFNE01.JPG,AFNE01.JPG,,,,,,,,,2,6,26,4,,,,,,,,,,,,,,,AMSA14.jpg,AMNE19.jpg,AMNE08.jpg,AMSA07.jpg,AMSA14.jpg,MS,2,num_8,32,num_4,3.48319535673,,,2017_Jun_13_1207,60.0087959523,MAFE4ImagesEEG,001,100619,
AFNE01.JPG,AFNE01.JPG,AFNE01.JPG,AFNE01.JPG,AFNE01.JPG,AFNE01.JPG,,,,,,,,,2,7,27,8,,,,,,,,,,,,,,,AMNE06.jpg,AMSA07.jpg,AMNE09.jpg,AMSA20.jpg,AMSA07.jpg,MS,2,num_6,32,num_8,0.383558401256,,,2017_Jun_13_1207,60.0087959523,MAFE4ImagesEEG,001,100619,
AFNE01.JPG,AFNE01.JPG,AFNE01.JPG,AFNE01.JPG,AFNE01.JPG,AFNE01.JPG,,,,,,,,,2,8,28,5,,,,,,,,,,,,,,,AMSA01.jpg,AMSA11.jpg,AMNE11.jpg,AMNE02.jpg,AMNE02.jpg,MN,1,num_4,16,num_4,0.466792439169,,,2017_Jun_13_1207,60.0087959523,MAFE4ImagesEEG,001,100619,
AFNE01.JPG,AFNE01.JPG,AFNE01.JPG,AFNE01.JPG,AFNE01.JPG,AFNE01.JPG,,,,,,,,,2,9,29,2,,,,,,,,,,,,,,,AMSA09.jpg,AMNE19.jpg,AMSA17.jpg,AMNE11.jpg,AMNE11.jpg,MN,1,num_4,16,num_4,0.333428806625,,,2017_Jun_13_1207,60.0087959523,MAFE4ImagesEEG,001,100619,
AFNE01.JPG,AFNE01.JPG,AFNE01.JPG,AFNE01.JPG,AFNE01.JPG,AFNE01.JPG,,,,,,,,,3,0,30,1,,,,,,,,,,,,,,,AMNE09.jpg,AMSA10.jpg,AMNE18.jpg,AMSA07.jpg,AMSA07.jpg,MS,2,num_4,32,num_8,0.483500700328,,,2017_Jun_13_1207,60.0087959523,MAFE4ImagesEEG,001,100619,
AFNE01.JPG,AFNE01.JPG,AFNE01.JPG,AFNE01.JPG,AFNE01.JPG,AFNE01.JPG,,,,,,,,,3,1,31,3,,,,,,,,,,,,,,,AMNE10.jpg,AMSA09.jpg,AMNE14.jpg,AMSA16.jpg,AMSA09.jpg,MS,2,num_6,32,num_8,0.30018420046,,,2017_Jun_13_1207,60.0087959523,MAFE4ImagesEEG,001,100619,
AFNE01.JPG,AFNE01.JPG,AFNE01.JPG,AFNE01.JPG,AFNE01.JPG,AFNE01.JPG,,,,,,,,,3,2,32,4,,,,,,,,,,,,,,,AMNE08.jpg,AMNE09.jpg,AMSA14.jpg,AMSA13.jpg,AMNE08.jpg,MN,1,num_8,32,num_2,0.283530144196,,,2017_Jun_13_1207,60.0087959523,MAFE4ImagesEEG,001,100619,
AFNE01.JPG,AFNE01.JPG,AFNE01.JPG,AFNE01.JPG,AFNE01.JPG,AFNE01.JPG,,,,,,,,,3,3,33,6,,,,,,,,,,,,,,,AMSA07.jpg,AMNE02.jpg,AMNE06.jpg,AMSA18.jpg,AMNE06.jpg,MN,1,num_2,32,num_6,2.21655308764,,,2017_Jun_13_1207,60.0087959523,MAFE4ImagesEEG,001,100619,
AFNE01.JPG,AFNE01.JPG,AFNE01.JPG,AFNE01.JPG,AFNE01.JPG,AFNE01.JPG,,,,,,,,,3,4,34,0,,,,,,,,,,,,,,,AMSA20.jpg,AMNE14.jpg,AMNE01.jpg,AMSA13.jpg,AMSA20.jpg,MS,2,num_8,32,num_4,0.866636367515,,,2017_Jun_13_1207,60.0087959523,MAFE4ImagesEEG,001,100619,
AFNE01.JPG,AFNE01.JPG,AFNE01.JPG,AFNE01.JPG,AFNE01.JPG,AFNE01.JPG,,,,,,,,,3,5,35,7,,,,,,,,,,,,,,,AMNE14.jpg,AMNE19.jpg,AMSA20.jpg,AMSA02.jpg,AMNE19.jpg,MN,1,num_6,32,num_8,0.350209234108,,,2017_Jun_13_1207,60.0087959523,MAFE4ImagesEEG,001,100619,
AFNE01.JPG,AFNE01.JPG,AFNE01.JPG,AFNE01.JPG,AFNE01.JPG,AFNE01.JPG,,,,,,,,,3,6,36,5,,,,,,,,,,,,,,,AMNE03.jpg,AMSA04.jpg,AMSA14.jpg,AMNE09.jpg,AMSA04.jpg,MS,2,num_6,32,num_4,0.450139345077,,,2017_Jun_13_1207,60.0087959523,MAFE4ImagesEEG,001,100619,
AFNE01.JPG,AFNE01.JPG,AFNE01.JPG,AFNE01.JPG,AFNE01.JPG,AFNE01.JPG,,,,,,,,,3,7,37,8,,,,,,,,,,,,,,,AMNE16.jpg,AMNE05.jpg,AMSA14.jpg,AMSA18.jpg,AMNE16.jpg,MN,1,num_8,16,num_8,0.383497460862,,,2017_Jun_13_1207,60.0087959523,MAFE4ImagesEEG,001,100619,
AFNE01.JPG,AFNE01.JPG,AFNE01.JPG,AFNE01.JPG,AFNE01.JPG,AFNE01.JPG,,,,,,,,,3,8,38,2,,,,,,,,,,,,,,,AMSA19.jpg,AMNE05.jpg,AMSA14.jpg,AMNE01.jpg,AMSA19.jpg,MS,2,num_8,32,num_4,3.2499372153,,,2017_Jun_13_1207,60.0087959523,MAFE4ImagesEEG,001,100619,
AFNE01.JPG,AFNE01.JPG,AFNE01.JPG,AFNE01.JPG,AFNE01.JPG,AFNE01.JPG,,,,,,,,,3,9,39,9,,,,,,,,,,,,,,,AMSA19.jpg,AMNE16.jpg,AMNE18.jpg,AMSA07.jpg,AMSA19.jpg,MS,2,num_8,32,num_6,0.466777685157,,,2017_Jun_13_1207,60.0087959523,MAFE4ImagesEEG,001,100619,
AFNE01.JPG,AFNE01.JPG,AFNE01.JPG,AFNE01.JPG,AFNE01.JPG,AFNE01.JPG,,,,,,,,,4,0,40,5,,,,,,,,,,,,,,,AMSA13.jpg,AMNE02.jpg,AMNE12.jpg,AMSA17.jpg,AMNE02.jpg,MN,1,num_6,32,num_4,0.366799784068,,,2017_Jun_13_1207,60.0087959523,MAFE4ImagesEEG,001,100619,
AFNE01.JPG,AFNE01.JPG,AFNE01.JPG,AFNE01.JPG,AFNE01.JPG,AFNE01.JPG,,,,,,,,,4,1,41,4,,,,,,,,,,,,,,,AMSA03.jpg,AMSA05.jpg,AMNE17.jpg,AMNE10.jpg,AMSA03.jpg,MS,2,num_8,16,num_8,0.616765224433,,,2017_Jun_13_1207,60.0087959523,MAFE4ImagesEEG,001,100619,
AFNE01.JPG,AFNE01.JPG,AFNE01.JPG,AFNE01.JPG,AFNE01.JPG,AFNE01.JPG,,,,,,,,,4,2,42,0,,,,,,,,,,,,,,,AMSA04.jpg,AMSA01.jpg,AMNE14.jpg,AMNE18.jpg,AMSA01.jpg,MS,2,num_6,16,num_6,0.633426978486,,,2017_Jun_13_1207,60.0087959523,MAFE4ImagesEEG,001,100619,
AFNE01.JPG,AFNE01.JPG,AFNE01.JPG,AFNE01.JPG,AFNE01.JPG,AFNE01.JPG,,,,,,,,,4,3,43,2,,,,,,,,,,,,,,,AMSA08.jpg,AMNE06.jpg,AMSA07.jpg,AMNE05.jpg,AMNE06.jpg,MN,1,num_6,32,num_4,0.616767148895,,,2017_Jun_13_1207,60.0087959523,MAFE4ImagesEEG,001,100619,
AFNE01.JPG,AFNE01.JPG,AFNE01.JPG,AFNE01.JPG,AFNE01.JPG,AFNE01.JPG,,,,,,,,,4,4,44,7,,,,,,,,,,,,,,,AMSA05.jpg,AMSA10.jpg,AMNE20.jpg,AMNE14.jpg,AMSA05.jpg,MS,2,num_8,16,num_8,0.333463125804,,,2017_Jun_13_1207,60.0087959523,MAFE4ImagesEEG,001,100619,
AFNE01.JPG,AFNE01.JPG,AFNE01.JPG,AFNE01.JPG,AFNE01.JPG,AFNE01.JPG,,,,,,,,,4,5,45,3,,,,,,,,,,,,,,,AMNE10.jpg,AMSA15.jpg,AMNE07.jpg,AMSA04.jpg,AMSA04.jpg,MS,2,num_4,32,num_6,0.500261241978,,,2017_Jun_13_1207,60.0087959523,MAFE4ImagesEEG,001,100619,
AFNE01.JPG,AFNE01.JPG,AFNE01.JPG,AFNE01.JPG,AFNE01.JPG,AFNE01.JPG,,,,,,,,,4,6,46,9,,,,,,,,,,,,,,,AMSA02.jpg,AMSA10.jpg,AMNE11.jpg,AMNE04.jpg,AMSA02.jpg,MS,2,num_8,32,num_4,0.316674359085,,,2017_Jun_13_1207,60.0087959523,MAFE4ImagesEEG,001,100619,
AFNE01.JPG,AFNE01.JPG,AFNE01.JPG,AFNE01.JPG,AFNE01.JPG,AFNE01.JPG,,,,,,,,,4,7,47,6,,,,,,,,,,,,,,,AMNE05.jpg,AMNE14.jpg,AMSA02.jpg,AMSA15.jpg,AMNE14.jpg,MN,1,num_6,32,num_8,0.466689161141,,,2017_Jun_13_1207,60.0087959523,MAFE4ImagesEEG,001,100619,
AFNE01.JPG,AFNE01.JPG,AFNE01.JPG,AFNE01.JPG,AFNE01.JPG,AFNE01.JPG,,,,,,,,,4,8,48,8,,,,,,,,,,,,,,,AMNE13.jpg,AMNE16.jpg,AMSA14.jpg,AMSA12.jpg,AMSA12.jpg,MS,2,num_4,32,num_6,0.383495857124,,,2017_Jun_13_1207,60.0087959523,MAFE4ImagesEEG,001,100619,
AFNE01.JPG,AFNE01.JPG,AFNE01.JPG,AFNE01.JPG,AFNE01.JPG,AFNE01.JPG,,,,,,,,,4,9,49,1,,,,,,,,,,,,,,,AMSA05.jpg,AMNE03.jpg,AMSA06.jpg,AMNE02.jpg,AMSA05.jpg,MS,2,num_8,32,num_4,0.50012813526,,,2017_Jun_13_1207,60.0087959523,MAFE4ImagesEEG,001,100619,
AFNE01.JPG,AFNE01.JPG,AFNE01.JPG,AFNE01.JPG,AFNE01.JPG,AFNE01.JPG,,,,,,,,,5,0,50,6,,,,,,,,,,,,,,,AMNE04.jpg,AMSA17.jpg,AMSA11.jpg,AMNE07.jpg,AMNE07.jpg,MN,1,num_4,32,num_8,0.333582119958,,,2017_Jun_13_1207,60.0087959523,MAFE4ImagesEEG,001,100619,
AFNE01.JPG,AFNE01.JPG,AFNE01.JPG,AFNE01.JPG,AFNE01.JPG,AFNE01.JPG,,,,,,,,,5,1,51,5,,,,,,,,,,,,,,,AMNE03.jpg,AMSA16.jpg,AMSA18.jpg,AMNE05.jpg,AMSA18.jpg,MS,2,num_2,32,num_6,0.366828650585,,,2017_Jun_13_1207,60.0087959523,MAFE4ImagesEEG,001,100619,
AFNE01.JPG,AFNE01.JPG,AFNE01.JPG,AFNE01.JPG,AFNE01.JPG,AFNE01.JPG,,,,,,,,,5,2,52,7,,,,,,,,,,,,,,,AMNE16.jpg,AMSA18.jpg,AMNE06.jpg,AMSA14.jpg,AMNE16.jpg,MN,1,num_8,32,num_4,0.333508349955,,,2017_Jun_13_1207,60.0087959523,MAFE4ImagesEEG,001,100619,
AFNE01.JPG,AFNE01.JPG,AFNE01.JPG,AFNE01.JPG,AFNE01.JPG,AFNE01.JPG,,,,,,,,,5,3,53,8,,,,,,,,,,,,,,,AMSA07.jpg,AMSA02.jpg,AMNE20.jpg,AMNE06.jpg,AMSA02.jpg,MS,2,num_6,32,num_8,0.416816157813,,,2017_Jun_13_1207,60.0087959523,MAFE4ImagesEEG,001,100619,
AFNE01.JPG,AFNE01.JPG,AFNE01.JPG,AFNE01.JPG,AFNE01.JPG,AFNE01.JPG,,,,,,,,,5,4,54,0,,,,,,,,,,,,,,,AMSA01.jpg,AMSA03.jpg,AMNE04.jpg,AMNE06.jpg,AMNE06.jpg,MN,1,num_4,16,num_4,0.350191593519,,,2017_Jun_13_1207,60.0087959523,MAFE4ImagesEEG,001,100619,
AFNE01.JPG,AFNE01.JPG,AFNE01.JPG,AFNE01.JPG,AFNE01.JPG,AFNE01.JPG,,,,,,,,,5,5,55,9,,,,,,,,,,,,,,,AMNE13.jpg,AMSA02.jpg,AMSA01.jpg,AMNE08.jpg,AMSA02.jpg,MS,2,num_6,32,num_8,0.350202177884,,,2017_Jun_13_1207,60.0087959523,MAFE4ImagesEEG,001,100619,
AFNE01.JPG,AFNE01.JPG,AFNE01.JPG,AFNE01.JPG,AFNE01.JPG,AFNE01.JPG,,,,,,,,,5,6,56,3,,,,,,,,,,,,,,,AMNE08.jpg,AMNE07.jpg,AMSA19.jpg,AMSA11.jpg,AMNE08.jpg,MN,1,num_8,16,num_8,0.333560630446,,,2017_Jun_13_1207,60.0087959523,MAFE4ImagesEEG,001,100619,
AFNE01.JPG,AFNE01.JPG,AFNE01.JPG,AFNE01.JPG,AFNE01.JPG,AFNE01.JPG,,,,,,,,,5,7,57,4,,,,,,,,,,,,,,,AMSA14.jpg,AMNE02.jpg,AMNE03.jpg,AMSA12.jpg,AMSA14.jpg,MS,2,num_8,32,num_6,0.316832162673,,,2017_Jun_13_1207,60.0087959523,MAFE4ImagesEEG,001,100619,
AFNE01.JPG,AFNE01.JPG,AFNE01.JPG,AFNE01.JPG,AFNE01.JPG,AFNE01.JPG,,,,,,,,,5,8,58,1,,,,,,,,,,,,,,,AMSA17.jpg,AMNE09.jpg,AMNE05.jpg,AMSA06.jpg,AMNE09.jpg,MN,1,num_6,32,num_4,0.383537553251,,,2017_Jun_13_1207,60.0087959523,MAFE4ImagesEEG,001,100619,
AFNE01.JPG,AFNE01.JPG,AFNE01.JPG,AFNE01.JPG,AFNE01.JPG,AFNE01.JPG,,,,,,,,,5,9,59,2,,,,,,,,,,,,,,,AMSA06.jpg,AMNE07.jpg,AMNE05.jpg,AMSA05.jpg,AMNE07.jpg,MN,1,num_6,32,num_8,0.30013127852,,,2017_Jun_13_1207,60.0087959523,MAFE4ImagesEEG,001,100619,
,,,,,,,,,,,,,,,,,,,,,,,,,,,,,,,,,,,,,,,,,,,space,2.53339551395,2017_Jun_13_1207,60.0087959523,MAFE4ImagesEEG,001,100619,
AFNE01.JPG,AFNE01.JPG,AFNE01.JPG,AFNE01.JPG,AFNE01.JPG,AFNE01.JPG,,,,,,,,,,,,,0,0,0,8,,,,,,,,,,,AFSA17.jpg,AFSA09.jpg,AFNE13.jpg,AFNE14.jpg,AFNE13.jpg,FN,3,num_2,16,num_2,0.600173391518,,,2017_Jun_13_1207,60.0087959523,MAFE4ImagesEEG,001,100619,
AFNE01.JPG,AFNE01.JPG,AFNE01.JPG,AFNE01.JPG,AFNE01.JPG,AFNE01.JPG,,,,,,,,,,,,,0,1,1,6,,,,,,,,,,,AFSA08.jpg,AFSA13.jpg,AFNE15.jpg,AFNE02.jpg,AFSA13.jpg,FS,4,num_6,16,num_6,0.350178122462,,,2017_Jun_13_1207,60.0087959523,MAFE4ImagesEEG,001,100619,
AFNE01.JPG,AFNE01.JPG,AFNE01.JPG,AFNE01.JPG,AFNE01.JPG,AFNE01.JPG,,,,,,,,,,,,,0,2,2,5,,,,,,,,,,,AFNE16.jpg,AFSA04.jpg,AFNE02.jpg,AFSA11.jpg,AFSA04.jpg,FS,4,num_6,32,num_2,0.283507371729,,,2017_Jun_13_1207,60.0087959523,MAFE4ImagesEEG,001,100619,
AFNE01.JPG,AFNE01.JPG,AFNE01.JPG,AFNE01.JPG,AFNE01.JPG,AFNE01.JPG,,,,,,,,,,,,,0,3,3,4,,,,,,,,,,,AFSA08.jpg,AFNE14.jpg,AFNE05.jpg,AFSA09.jpg,AFSA08.jpg,FS,4,num_8,32,num_2,0.450056915113,,,2017_Jun_13_1207,60.0087959523,MAFE4ImagesEEG,001,100619,
AFNE01.JPG,AFNE01.JPG,AFNE01.JPG,AFNE01.JPG,AFNE01.JPG,AFNE01.JPG,,,,,,,,,,,,,0,4,4,9,,,,,,,,,,,AFNE05.jpg,AFNE08.jpg,AFSA03.jpg,AFSA20.jpg,AFSA20.jpg,FS,4,num_4,32,num_2,0.416782800923,,,2017_Jun_13_1207,60.0087959523,MAFE4ImagesEEG,001,100619,
AFNE01.JPG,AFNE01.JPG,AFNE01.JPG,AFNE01.JPG,AFNE01.JPG,AFNE01.JPG,,,,,,,,,,,,,0,5,5,1,,,,,,,,,,,AFSA20.jpg,AFNE06.jpg,AFNE15.jpg,AFSA08.jpg,AFNE06.jpg,FN,3,num_6,16,num_6,0.333471464983,,,2017_Jun_13_1207,60.0087959523,MAFE4ImagesEEG,001,100619,
AFNE01.JPG,AFNE01.JPG,AFNE01.JPG,AFNE01.JPG,AFNE01.JPG,AFNE01.JPG,,,,,,,,,,,,,0,6,6,2,,,,,,,,,,,AFNE11.jpg,AFSA17.jpg,AFNE17.jpg,AFSA08.jpg,AFNE17.jpg,FN,3,num_2,32,num_4,0.550165036286,,,2017_Jun_13_1207,60.0087959523,MAFE4ImagesEEG,001,100619,
AFNE01.JPG,AFNE01.JPG,AFNE01.JPG,AFNE01.JPG,AFNE01.JPG,AFNE01.JPG,,,,,,,,,,,,,0,7,7,7,,,,,,,,,,,AFSA13.jpg,AFNE02.jpg,AFSA07.jpg,AFNE15.jpg,AFSA13.jpg,FS,4,num_8,32,num_2,0.466815853084,,,2017_Jun_13_1207,60.0087959523,MAFE4ImagesEEG,001,100619,
AFNE01.JPG,AFNE01.JPG,AFNE01.JPG,AFNE01.JPG,AFNE01.JPG,AFNE01.JPG,,,,,,,,,,,,,0,8,8,0,,,,,,,,,,,AFSA16.jpg,AFNE08.jpg,AFNE15.jpg,AFSA11.jpg,AFNE15.jpg,FN,3,num_2,32,num_6,0.300176823512,,,2017_Jun_13_1207,60.0087959523,MAFE4ImagesEEG,001,100619,
AFNE01.JPG,AFNE01.JPG,AFNE01.JPG,AFNE01.JPG,AFNE01.JPG,AFNE01.JPG,,,,,,,,,,,,,0,9,9,3,,,,,,,,,,,AFNE09.jpg,AFSA15.jpg,AFNE12.jpg,AFSA16.jpg,AFSA15.jpg,FS,4,num_6,32,num_8,0.316817087936,,,2017_Jun_13_1207,60.0087959523,MAFE4ImagesEEG,001,100619,
AFNE01.JPG,AFNE01.JPG,AFNE01.JPG,AFNE01.JPG,AFNE01.JPG,AFNE01.JPG,,,,,,,,,,,,,1,0,10,8,,,,,,,,,,,AFSA14.jpg,AFSA15.jpg,AFNE18.jpg,AFNE15.jpg,AFNE15.jpg,FN,3,num_4,32,num_2,0.333491671481,,,2017_Jun_13_1207,60.0087959523,MAFE4ImagesEEG,001,100619,
AFNE01.JPG,AFNE01.JPG,AFNE01.JPG,AFNE01.JPG,AFNE01.JPG,AFNE01.JPG,,,,,,,,,,,,,1,1,11,9,,,,,,,,,,,AFNE13.jpg,AFNE18.jpg,AFSA20.jpg,AFSA17.jpg,AFNE18.jpg,FN,3,num_6,32,num_8,0.40045525704,,,2017_Jun_13_1207,60.0087959523,MAFE4ImagesEEG,001,100619,
AFNE01.JPG,AFNE01.JPG,AFNE01.JPG,AFNE01.JPG,AFNE01.JPG,AFNE01.JPG,,,,,,,,,,,,,1,2,12,0,,,,,,,,,,,AFNE18.jpg,AFNE14.jpg,AFSA10.jpg,AFSA07.jpg,AFNE18.jpg,FN,3,num_8,32,num_2,0.450171098229,,,2017_Jun_13_1207,60.0087959523,MAFE4ImagesEEG,001,100619,
AFNE01.JPG,AFNE01.JPG,AFNE01.JPG,AFNE01.JPG,AFNE01.JPG,AFNE01.JPG,,,,,,,,,,,,,1,3,13,5,,,,,,,,,,,AFNE05.jpg,AFSA08.jpg,AFSA10.jpg,AFNE09.jpg,AFSA10.jpg,FS,4,num_2,32,num_6,0.316846916685,,,2017_Jun_13_1207,60.0087959523,MAFE4ImagesEEG,001,100619,
AFNE01.JPG,AFNE01.JPG,AFNE01.JPG,AFNE01.JPG,AFNE01.JPG,AFNE01.JPG,,,,,,,,,,,,,1,4,14,2,,,,,,,,,,,AFNE15.jpg,AFSA09.jpg,AFNE01.jpg,AFSA03.jpg,AFNE01.jpg,FN,3,num_2,32,num_8,0.433445837873,,,2017_Jun_13_1207,60.0087959523,MAFE4ImagesEEG,001,100619,
AFNE01.JPG,AFNE01.JPG,AFNE01.JPG,AFNE01.JPG,AFNE01.JPG,AFNE01.JPG,,,,,,,,,,,,,1,5,15,4,,,,,,,,,,,AFNE09.jpg,AFSA05.jpg,AFNE02.jpg,AFSA16.jpg,AFSA05.jpg,FS,4,num_6,32,num_2,0.583489506564,,,2017_Jun_13_1207,60.0087959523,MAFE4ImagesEEG,001,100619,
AFNE01.JPG,AFNE01.JPG,AFNE01.JPG,AFNE01.JPG,AFNE01.JPG,AFNE01.JPG,,,,,,,,,,,,,1,6,16,1,,,,,,,,,,,AFSA16.jpg,AFSA05.jpg,AFNE03.jpg,AFNE15.jpg,AFNE03.jpg,FN,3,num_2,32,num_4,0.516786681896,,,2017_Jun_13_1207,60.0087959523,MAFE4ImagesEEG,001,100619,
AFNE01.JPG,AFNE01.JPG,AFNE01.JPG,AFNE01.JPG,AFNE01.JPG,AFNE01.JPG,,,,,,,,,,,,,1,7,17,6,,,,,,,,,,,AFNE18.jpg,AFSA13.jpg,AFSA07.jpg,AFNE07.jpg,AFNE07.jpg,FN,3,num_4,32,num_8,0.283512824273,,,2017_Jun_13_1207,60.0087959523,MAFE4ImagesEEG,001,100619,
AFNE01.JPG,AFNE01.JPG,AFNE01.JPG,AFNE01.JPG,AFNE01.JPG,AFNE01.JPG,,,,,,,,,,,,,1,8,18,3,,,,,,,,,,,AFSA12.jpg,AFSA03.jpg,AFNE19.jpg,AFNE11.jpg,AFNE11.jpg,FN,3,num_4,32,num_2,0.300231669855,,,2017_Jun_13_1207,60.0087959523,MAFE4ImagesEEG,001,100619,
AFNE01.JPG,AFNE01.JPG,AFNE01.JPG,AFNE01.JPG,AFNE01.JPG,AFNE01.JPG,,,,,,,,,,,,,1,9,19,7,,,,,,,,,,,AFNE19.jpg,AFSA11.jpg,AFNE03.jpg,AFSA18.jpg,AFNE03.jpg,FN,3,num_2,32,num_6,0.283504485036,,,2017_Jun_13_1207,60.0087959523,MAFE4ImagesEEG,001,100619,
AFNE01.JPG,AFNE01.JPG,AFNE01.JPG,AFNE01.JPG,AFNE01.JPG,AFNE01.JPG,,,,,,,,,,,,,2,0,20,0,,,,,,,,,,,AFSA08.jpg,AFNE02.jpg,AFSA14.jpg,AFNE15.jpg,AFSA08.jpg,FS,4,num_8,16,num_8,0.583163956355,,,2017_Jun_13_1207,60.0087959523,MAFE4ImagesEEG,001,100619,
AFNE01.JPG,AFNE01.JPG,AFNE01.JPG,AFNE01.JPG,AFNE01.JPG,AFNE01.JPG,,,,,,,,,,,,,2,1,21,2,,,,,,,,,,,AFSA16.jpg,AFNE08.jpg,AFNE14.jpg,AFSA17.jpg,AFNE14.jpg,FN,3,num_2,32,num_6,0.683450408455,,,2017_Jun_13_1207,60.0087959523,MAFE4ImagesEEG,001,100619,
AFNE01.JPG,AFNE01.JPG,AFNE01.JPG,AFNE01.JPG,AFNE01.JPG,AFNE01.JPG,,,,,,,,,,,,,2,2,22,6,,,,,,,,,,,AFNE11.jpg,AFSA09.jpg,AFNE02.jpg,AFSA07.jpg,AFSA09.jpg,FS,4,num_6,16,num_6,0.733485705743,,,2017_Jun_13_1207,60.0087959523,MAFE4ImagesEEG,001,100619,
AFNE01.JPG,AFNE01.JPG,AFNE01.JPG,AFNE01.JPG,AFNE01.JPG,AFNE01.JPG,,,,,,,,,,,,,2,3,23,4,,,,,,,,,,,AFSA13.jpg,AFNE02.jpg,AFSA15.jpg,AFNE17.jpg,AFNE17.jpg,FN,3,num_4,32,num_8,0.616816542693,,,2017_Jun_13_1207,60.0087959523,MAFE4ImagesEEG,001,100619,
AFNE01.JPG,AFNE01.JPG,AFNE01.JPG,AFNE01.JPG,AFNE01.JPG,AFNE01.JPG,,,,,,,,,,,,,2,4,24,1,,,,,,,,,,,AFSA03.jpg,AFSA19.jpg,AFNE03.jpg,AFNE12.jpg,AFNE12.jpg,FN,3,num_4,16,num_4,0.700136538595,,,2017_Jun_13_1207,60.0087959523,MAFE4ImagesEEG,001,100619,
AFNE01.JPG,AFNE01.JPG,AFNE01.JPG,AFNE01.JPG,AFNE01.JPG,AFNE01.JPG,,,,,,,,,,,,,2,5,25,9,,,,,,,,,,,AFNE13.jpg,AFSA10.jpg,AFSA02.jpg,AFNE11.jpg,AFSA02.jpg,FS,4,num_2,32,num_4,0.800134325516,,,2017_Jun_13_1207,60.0087959523,MAFE4ImagesEEG,001,100619,
AFNE01.JPG,AFNE01.JPG,AFNE01.JPG,AFNE01.JPG,AFNE01.JPG,AFNE01.JPG,,,,,,,,,,,,,2,6,26,3,,,,,,,,,,,AFSA04.jpg,AFNE15.jpg,AFNE09.jpg,AFSA16.jpg,AFSA04.jpg,FS,4,num_8,16,num_8,0.800196869648,,,2017_Jun_13_1207,60.0087959523,MAFE4ImagesEEG,001,100619,
AFNE01.JPG,AFNE01.JPG,AFNE01.JPG,AFNE01.JPG,AFNE01.JPG,AFNE01.JPG,,,,,,,,,,,,,2,7,27,7,,,,,,,,,,,AFNE09.jpg,AFSA09.jpg,AFNE19.jpg,AFSA11.jpg,AFNE09.jpg,FN,3,num_8,32,num_6,0.783273071807,,,2017_Jun_13_1207,60.0087959523,MAFE4ImagesEEG,001,100619,
AFNE01.JPG,AFNE01.JPG,AFNE01.JPG,AFNE01.JPG,AFNE01.JPG,AFNE01.JPG,,,,,,,,,,,,,2,8,28,5,,,,,,,,,,,AFSA09.jpg,AFNE06.jpg,AFSA05.jpg,AFNE12.jpg,AFNE06.jpg,FN,3,num_6,16,num_6,0.600155430147,,,2017_Jun_13_1207,60.0087959523,MAFE4ImagesEEG,001,100619,
AFNE01.JPG,AFNE01.JPG,AFNE01.JPG,AFNE01.JPG,AFNE01.JPG,AFNE01.JPG,,,,,,,,,,,,,2,9,29,8,,,,,,,,,,,AFSA06.jpg,AFNE10.jpg,AFSA19.jpg,AFNE18.jpg,AFNE10.jpg,FN,3,num_6,16,num_6,0.666824256477,,,2017_Jun_13_1207,60.0087959523,MAFE4ImagesEEG,001,100619,
AFNE01.JPG,AFNE01.JPG,AFNE01.JPG,AFNE01.JPG,AFNE01.JPG,AFNE01.JPG,,,,,,,,,,,,,3,0,30,1,,,,,,,,,,,AFSA03.jpg,AFNE20.jpg,AFNE05.jpg,AFSA01.jpg,AFNE20.jpg,FN,3,num_6,32,num_8,0.666811426927,,,2017_Jun_13_1207,60.0087959523,MAFE4ImagesEEG,001,100619,
AFNE01.JPG,AFNE01.JPG,AFNE01.JPG,AFNE01.JPG,AFNE01.JPG,AFNE01.JPG,,,,,,,,,,,,,3,1,31,9,,,,,,,,,,,AFSA05.jpg,AFSA12.jpg,AFNE09.jpg,AFNE13.jpg,AFNE09.jpg,FN,3,num_2,32,num_6,0.633527369821,,,2017_Jun_13_1207,60.0087959523,MAFE4ImagesEEG,001,100619,
AFNE01.JPG,AFNE01.JPG,AFNE01.JPG,AFNE01.JPG,AFNE01.JPG,AFNE01.JPG,,,,,,,,,,,,,3,2,32,4,,,,,,,,,,,AFNE13.jpg,AFNE04.jpg,AFSA08.jpg,AFSA06.jpg,AFNE04.jpg,FN,3,num_6,16,num_6,0.533491094189,,,2017_Jun_13_1207,60.0087959523,MAFE4ImagesEEG,001,100619,
AFNE01.JPG,AFNE01.JPG,AFNE01.JPG,AFNE01.JPG,AFNE01.JPG,AFNE01.JPG,,,,,,,,,,,,,3,3,33,5,,,,,,,,,,,AFNE03.jpg,AFSA20.jpg,AFNE08.jpg,AFSA03.jpg,AFSA03.jpg,FS,4,num_4,32,num_6,0.766781309503,,,2017_Jun_13_1207,60.0087959523,MAFE4ImagesEEG,001,100619,
AFNE01.JPG,AFNE01.JPG,AFNE01.JPG,AFNE01.JPG,AFNE01.JPG,AFNE01.JPG,,,,,,,,,,,,,3,4,34,6,,,,,,,,,,,AFSA10.jpg,AFSA02.jpg,AFNE19.jpg,AFNE07.jpg,AFSA10.jpg,FS,4,num_8,16,num_8,0.716795085231,,,2017_Jun_13_1207,60.0087959523,MAFE4ImagesEEG,001,100619,
AFNE01.JPG,AFNE01.JPG,AFNE01.JPG,AFNE01.JPG,AFNE01.JPG,AFNE01.JPG,,,,,,,,,,,,,3,5,35,8,,,,,,,,,,,AFNE10.jpg,AFNE11.jpg,AFSA07.jpg,AFSA06.jpg,AFNE10.jpg,FN,3,num_8,16,num_8,0.500173038745,,,2017_Jun_13_1207,60.0087959523,MAFE4ImagesEEG,001,100619,
AFNE01.JPG,AFNE01.JPG,AFNE01.JPG,AFNE01.JPG,AFNE01.JPG,AFNE01.JPG,,,,,,,,,,,,,3,6,36,2,,,,,,,,,,,AFNE18.jpg,AFNE19.jpg,AFSA10.jpg,AFSA20.jpg,AFSA10.jpg,FS,4,num_2,32,num_8,0.383512535598,,,2017_Jun_13_1207,60.0087959523,MAFE4ImagesEEG,001,100619,
AFNE01.JPG,AFNE01.JPG,AFNE01.JPG,AFNE01.JPG,AFNE01.JPG,AFNE01.JPG,,,,,,,,,,,,,3,7,37,0,,,,,,,,,,,AFNE13.jpg,AFNE12.jpg,AFSA07.jpg,AFSA16.jpg,AFNE13.jpg,FN,3,num_8,32,num_6,0.283440978732,,,2017_Jun_13_1207,60.0087959523,MAFE4ImagesEEG,001,100619,
AFNE01.JPG,AFNE01.JPG,AFNE01.JPG,AFNE01.JPG,AFNE01.JPG,AFNE01.JPG,,,,,,,,,,,,,3,8,38,7,,,,,,,,,,,AFSA13.jpg,AFNE20.jpg,AFSA11.jpg,AFNE17.jpg,AFSA13.jpg,FS,4,num_8,32,num_4,0.266802959377,,,2017_Jun_13_1207,60.0087959523,MAFE4ImagesEEG,001,100619,
AFNE01.JPG,AFNE01.JPG,AFNE01.JPG,AFNE01.JPG,AFNE01.JPG,AFNE01.JPG,,,,,,,,,,,,,3,9,39,3,,,,,,,,,,,AFNE04.jpg,AFSA02.jpg,AFNE13.jpg,AFSA16.jpg,AFSA16.jpg,FS,4,num_4,32,num_8,0.333544914203,,,2017_Jun_13_1207,60.0087959523,MAFE4ImagesEEG,001,100619,
AFNE01.JPG,AFNE01.JPG,AFNE01.JPG,AFNE01.JPG,AFNE01.JPG,AFNE01.JPG,,,,,,,,,,,,,4,0,40,7,,,,,,,,,,,AFSA09.jpg,AFSA15.jpg,AFNE06.jpg,AFNE03.jpg,AFNE06.jpg,FN,3,num_2,32,num_4,0.350184537238,,,2017_Jun_13_1207,60.0087959523,MAFE4ImagesEEG,001,100619,
AFNE01.JPG,AFNE01.JPG,AFNE01.JPG,AFNE01.JPG,AFNE01.JPG,AFNE01.JPG,,,,,,,,,,,,,4,1,41,3,,,,,,,,,,,AFSA09.jpg,AFSA08.jpg,AFNE02.jpg,AFNE11.jpg,AFSA09.jpg,FS,4,num_8,32,num_2,0.350154708547,,,2017_Jun_13_1207,60.0087959523,MAFE4ImagesEEG,001,100619,
AFNE01.JPG,AFNE01.JPG,AFNE01.JPG,AFNE01.JPG,AFNE01.JPG,AFNE01.JPG,,,,,,,,,,,,,4,2,42,4,,,,,,,,,,,AFNE14.jpg,AFNE16.jpg,AFSA11.jpg,AFSA01.jpg,AFNE16.jpg,FN,3,num_6,16,num_6,0.533512262977,,,2017_Jun_13_1207,60.0087959523,MAFE4ImagesEEG,001,100619,
AFNE01.JPG,AFNE01.JPG,AFNE01.JPG,AFNE01.JPG,AFNE01.JPG,AFNE01.JPG,,,,,,,,,,,,,4,3,43,9,,,,,,,,,,,AFSA19.jpg,AFSA15.jpg,AFNE14.jpg,AFNE08.jpg,AFNE08.jpg,FN,3,num_4,32,num_2,0.400032522972,,,2017_Jun_13_1207,60.0087959523,MAFE4ImagesEEG,001,100619,
AFNE01.JPG,AFNE01.JPG,AFNE01.JPG,AFNE01.JPG,AFNE01.JPG,AFNE01.JPG,,,,,,,,,,,,,4,4,44,5,,,,,,,,,,,AFSA09.jpg,AFSA01.jpg,AFNE12.jpg,AFNE08.jpg,AFNE08.jpg,FN,3,num_4,32,num_6,0.433504212415,,,2017_Jun_13_1207,60.0087959523,MAFE4ImagesEEG,001,100619,
AFNE01.JPG,AFNE01.JPG,AFNE01.JPG,AFNE01.JPG,AFNE01.JPG,AFNE01.JPG,,,,,,,,,,,,,4,5,45,0,,,,,,,,,,,AFNE03.jpg,AFNE12.jpg,AFSA18.jpg,AFSA07.jpg,AFNE03.jpg,FN,3,num_8,32,num_6,0.350124559016,,,2017_Jun_13_1207,60.0087959523,MAFE4ImagesEEG,001,100619,
AFNE01.JPG,AFNE01.JPG,AFNE01.JPG,AFNE01.JPG,AFNE01.JPG,AFNE01.JPG,,,,,,,,,,,,,4,6,46,2,,,,,,,,,,,AFSA14.jpg,AFNE15.jpg,AFSA08.jpg,AFNE17.jpg,AFSA08.jpg,FS,4,num_2,32,num_4,0.400159535639,,,2017_Jun_13_1207,60.0087959523,MAFE4ImagesEEG,001,100619,
AFNE01.JPG,AFNE01.JPG,AFNE01.JPG,AFNE01.JPG,AFNE01.JPG,AFNE01.JPG,,,,,,,,,,,,,4,7,47,6,,,,,,,,,,,AFSA14.jpg,AFNE06.jpg,AFSA12.jpg,AFNE17.jpg,AFNE06.jpg,FN,3,num_6,32,num_8,0.333536574966,,,2017_Jun_13_1207,60.0087959523,MAFE4ImagesEEG,001,100619,
AFNE01.JPG,AFNE01.JPG,AFNE01.JPG,AFNE01.JPG,AFNE01.JPG,AFNE01.JPG,,,,,,,,,,,,,4,8,48,8,,,,,,,,,,,AFNE07.jpg,AFSA03.jpg,AFNE02.jpg,AFSA14.jpg,AFSA14.jpg,FS,4,num_4,32,num_8,0.416818082216,,,2017_Jun_13_1207,60.0087959523,MAFE4ImagesEEG,001,100619,
AFNE01.JPG,AFNE01.JPG,AFNE01.JPG,AFNE01.JPG,AFNE01.JPG,AFNE01.JPG,,,,,,,,,,,,,4,9,49,1,,,,,,,,,,,AFNE01.jpg,AFSA17.jpg,AFSA06.jpg,AFNE09.jpg,AFNE09.jpg,FN,3,num_4,32,num_6,0.316702263372,,,2017_Jun_13_1207,60.0087959523,MAFE4ImagesEEG,001,100619,
AFNE01.JPG,AFNE01.JPG,AFNE01.JPG,AFNE01.JPG,AFNE01.JPG,AFNE01.JPG,,,,,,,,,,,,,5,0,50,1,,,,,,,,,,,AFNE05.jpg,AFSA20.jpg,AFSA01.jpg,AFNE01.jpg,AFNE01.jpg,FN,3,num_4,16,num_4,0.316893423849,,,2017_Jun_13_1207,60.0087959523,MAFE4ImagesEEG,001,100619,
AFNE01.JPG,AFNE01.JPG,AFNE01.JPG,AFNE01.JPG,AFNE01.JPG,AFNE01.JPG,,,,,,,,,,,,,5,1,51,3,,,,,,,,,,,AFNE04.jpg,AFSA15.jpg,AFNE09.jpg,AFSA17.jpg,AFSA17.jpg,FS,4,num_4,32,num_6,2.46670487738,,,2017_Jun_13_1207,60.0087959523,MAFE4ImagesEEG,001,100619,
AFNE01.JPG,AFNE01.JPG,AFNE01.JPG,AFNE01.JPG,AFNE01.JPG,AFNE01.JPG,,,,,,,,,,,,,5,2,52,8,,,,,,,,,,,AFNE15.jpg,AFSA10.jpg,AFNE17.jpg,AFSA06.jpg,AFNE15.jpg,FN,3,num_8,32,num_6,0.316814842809,,,2017_Jun_13_1207,60.0087959523,MAFE4ImagesEEG,001,100619,
AFNE01.JPG,AFNE01.JPG,AFNE01.JPG,AFNE01.JPG,AFNE01.JPG,AFNE01.JPG,,,,,,,,,,,,,5,3,53,2,,,,,,,,,,,AFSA11.jpg,AFNE01.jpg,AFSA19.jpg,AFNE12.jpg,AFNE12.jpg,FN,3,num_4,32,num_8,0.350157274399,,,2017_Jun_13_1207,60.0087959523,MAFE4ImagesEEG,001,100619,
AFNE01.JPG,AFNE01.JPG,AFNE01.JPG,AFNE01.JPG,AFNE01.JPG,AFNE01.JPG,,,,,,,,,,,,,5,4,54,7,,,,,,,,,,,AFNE16.jpg,AFSA08.jpg,AFNE12.jpg,AFSA05.jpg,AFSA05.jpg,FS,4,num_4,16,num_4,0.366800104792,,,2017_Jun_13_1207,60.0087959523,MAFE4ImagesEEG,001,100619,
AFNE01.JPG,AFNE01.JPG,AFNE01.JPG,AFNE01.JPG,AFNE01.JPG,AFNE01.JPG,,,,,,,,,,,,,5,5,55,6,,,,,,,,,,,AFNE09.jpg,AFSA15.jpg,AFSA17.jpg,AFNE03.jpg,AFNE09.jpg,FN,3,num_8,32,num_6,0.316834407859,,,2017_Jun_13_1207,60.0087959523,MAFE4ImagesEEG,001,100619,
AFNE01.JPG,AFNE01.JPG,AFNE01.JPG,AFNE01.JPG,AFNE01.JPG,AFNE01.JPG,,,,,,,,,,,,,5,6,56,9,,,,,,,,,,,AFSA17.jpg,AFNE17.jpg,AFSA12.jpg,AFNE09.jpg,AFSA12.jpg,FS,4,num_2,16,num_2,0.383528572565,,,2017_Jun_13_1207,60.0087959523,MAFE4ImagesEEG,001,100619,
AFNE01.JPG,AFNE01.JPG,AFNE01.JPG,AFNE01.JPG,AFNE01.JPG,AFNE01.JPG,,,,,,,,,,,,,5,7,57,4,,,,,,,,,,,AFNE13.jpg,AFSA01.jpg,AFSA17.jpg,AFNE17.jpg,AFNE13.jpg,FN,3,num_8,32,num_6,0.483495247783,,,2017_Jun_13_1207,60.0087959523,MAFE4ImagesEEG,001,100619,
AFNE01.JPG,AFNE01.JPG,AFNE01.JPG,AFNE01.JPG,AFNE01.JPG,AFNE01.JPG,,,,,,,,,,,,,5,8,58,0,,,,,,,,,,,AFSA14.jpg,AFNE19.jpg,AFSA09.jpg,AFNE11.jpg,AFSA09.jpg,FS,4,num_2,32,num_8,0.466849209974,,,2017_Jun_13_1207,60.0087959523,MAFE4ImagesEEG,001,100619,
AFNE01.JPG,AFNE01.JPG,AFNE01.JPG,AFNE01.JPG,AFNE01.JPG,AFNE01.JPG,,,,,,,,,,,,,5,9,59,5,,,,,,,,,,,AFNE11.jpg,AFSA06.jpg,AFSA17.jpg,AFNE18.jpg,AFNE18.jpg,FN,3,num_4,16,num_4,0.300141862885,,,2017_Jun_13_1207,60.0087959523,MAFE4ImagesEEG,001,100619,
,,,,,,,,,,,,,,,,,,,,,,,,,,,,,,,,,,,,,,,,,,,space,11.4162064328,2017_Jun_13_1207,60.0087959523,MAFE4ImagesEEG,001,100619,
AFNE01.JPG,AFNE01.JPG,AFNE01.JPG,AFNE01.JPG,AFNE01.JPG,AFNE01.JPG,,,,,,,,,,,,,,,,,0,0,0,0,,,,,,,AMSA16.jpg,AMSA10.jpg,AMNE14.jpg,AMNE04.jpg,AMSA16.jpg,MS,2,num_8,16,num_8,0.416796592763,,,2017_Jun_13_1207,60.0087959523,MAFE4ImagesEEG,001,100619,
AFNE01.JPG,AFNE01.JPG,AFNE01.JPG,AFNE01.JPG,AFNE01.JPG,AFNE01.JPG,,,,,,,,,,,,,,,,,0,1,1,4,,,,,,,AMSA10.jpg,AMSA18.jpg,AMNE01.jpg,AMNE20.jpg,AMNE20.jpg,MN,1,num_4,32,num_6,0.316822540481,,,2017_Jun_13_1207,60.0087959523,MAFE4ImagesEEG,001,100619,
AFNE01.JPG,AFNE01.JPG,AFNE01.JPG,AFNE01.JPG,AFNE01.JPG,AFNE01.JPG,,,,,,,,,,,,,,,,,0,2,2,9,,,,,,,AMSA16.jpg,AMNE11.jpg,AMSA19.jpg,AMNE08.jpg,AMNE11.jpg,MN,1,num_6,32,num_4,0.316801051027,,,2017_Jun_13_1207,60.0087959523,MAFE4ImagesEEG,001,100619,
AFNE01.JPG,AFNE01.JPG,AFNE01.JPG,AFNE01.JPG,AFNE01.JPG,AFNE01.JPG,,,,,,,,,,,,,,,,,0,3,3,1,,,,,,,AMNE04.jpg,AMSA01.jpg,AMNE13.jpg,AMSA07.jpg,AMNE04.jpg,MN,1,num_8,16,num_8,0.333514123282,,,2017_Jun_13_1207,60.0087959523,MAFE4ImagesEEG,001,100619,
AFNE01.JPG,AFNE01.JPG,AFNE01.JPG,AFNE01.JPG,AFNE01.JPG,AFNE01.JPG,,,,,,,,,,,,,,,,,0,4,4,5,,,,,,,AMNE03.jpg,AMNE08.jpg,AMSA20.jpg,AMSA04.jpg,AMNE08.jpg,MN,1,num_6,16,num_6,0.333506746276,,,2017_Jun_13_1207,60.0087959523,MAFE4ImagesEEG,001,100619,
AFNE01.JPG,AFNE01.JPG,AFNE01.JPG,AFNE01.JPG,AFNE01.JPG,AFNE01.JPG,,,,,,,,,,,,,,,,,0,5,5,3,,,,,,,AMNE11.jpg,AMSA03.jpg,AMSA01.jpg,AMNE17.jpg,AMNE17.jpg,MN,1,num_4,16,num_4,0.316830238269,,,2017_Jun_13_1207,60.0087959523,MAFE4ImagesEEG,001,100619,
AFNE01.JPG,AFNE01.JPG,AFNE01.JPG,AFNE01.JPG,AFNE01.JPG,AFNE01.JPG,,,,,,,,,,,,,,,,,0,6,6,7,,,,,,,AMNE20.jpg,AMSA12.jpg,AMSA13.jpg,AMNE18.jpg,AMSA12.jpg,MS,2,num_6,32,num_2,0.616797939816,,,2017_Jun_13_1207,60.0087959523,MAFE4ImagesEEG,001,100619,
AFNE01.JPG,AFNE01.JPG,AFNE01.JPG,AFNE01.JPG,AFNE01.JPG,AFNE01.JPG,,,,,,,,,,,,,,,,,0,7,7,8,,,,,,,AMSA16.jpg,AMNE15.jpg,AMNE01.jpg,AMSA14.jpg,AMSA16.jpg,MS,2,num_8,32,num_6,0.40022721159,,,2017_Jun_13_1207,60.0087959523,MAFE4ImagesEEG,001,100619,
AFNE01.JPG,AFNE01.JPG,AFNE01.JPG,AFNE01.JPG,AFNE01.JPG,AFNE01.JPG,,,,,,,,,,,,,,,,,0,8,8,2,,,,,,,AMNE05.jpg,AMSA09.jpg,AMSA17.jpg,AMNE06.jpg,AMSA17.jpg,MS,2,num_2,32,num_8,0.433492986544,,,2017_Jun_13_1207,60.0087959523,MAFE4ImagesEEG,001,100619,
AFNE01.JPG,AFNE01.JPG,AFNE01.JPG,AFNE01.JPG,AFNE01.JPG,AFNE01.JPG,,,,,,,,,,,,,,,,,0,9,9,6,,,,,,,AMNE18.jpg,AMSA03.jpg,AMNE12.jpg,AMSA08.jpg,AMNE12.jpg,MN,1,num_2,32,num_4,0.266819317068,,,2017_Jun_13_1207,60.0087959523,MAFE4ImagesEEG,001,100619,
AFNE01.JPG,AFNE01.JPG,AFNE01.JPG,AFNE01.JPG,AFNE01.JPG,AFNE01.JPG,,,,,,,,,,,,,,,,,1,0,10,5,,,,,,,AMSA03.jpg,AMNE02.jpg,AMSA09.jpg,AMNE07.jpg,AMNE07.jpg,MN,1,num_4,32,num_2,0.816634747782,,,2017_Jun_13_1207,60.0087959523,MAFE4ImagesEEG,001,100619,
AFNE01.JPG,AFNE01.JPG,AFNE01.JPG,AFNE01.JPG,AFNE01.JPG,AFNE01.JPG,,,,,,,,,,,,,,,,,1,1,11,3,,,,,,,AMSA03.jpg,AMNE15.jpg,AMNE13.jpg,AMSA07.jpg,AMSA07.jpg,MS,2,num_4,32,num_8,0.43346957257,,,2017_Jun_13_1207,60.0087959523,MAFE4ImagesEEG,001,100619,
AFNE01.JPG,AFNE01.JPG,AFNE01.JPG,AFNE01.JPG,AFNE01.JPG,AFNE01.JPG,,,,,,,,,,,,,,,,,1,2,12,0,,,,,,,AMSA10.jpg,AMSA17.jpg,AMNE10.jpg,AMNE01.jpg,AMSA17.jpg,MS,2,num_6,16,num_6,0.350268570823,,,2017_Jun_13_1207,60.0087959523,MAFE4ImagesEEG,001,100619,
AFNE01.JPG,AFNE01.JPG,AFNE01.JPG,AFNE01.JPG,AFNE01.JPG,AFNE01.JPG,,,,,,,,,,,,,,,,,1,3,13,8,,,,,,,AMSA03.jpg,AMNE20.jpg,AMNE18.jpg,AMSA08.jpg,AMSA08.jpg,MS,2,num_4,32,num_8,0.366869384481,,,2017_Jun_13_1207,60.0087959523,MAFE4ImagesEEG,001,100619,
AFNE01.JPG,AFNE01.JPG,AFNE01.JPG,AFNE01.JPG,AFNE01.JPG,AFNE01.JPG,,,,,,,,,,,,,,,,,1,4,14,7,,,,,,,AMNE02.jpg,AMSA19.jpg,AMNE01.jpg,AMSA11.jpg,AMNE02.jpg,MN,1,num_8,32,num_4,0.466879038664,,,2017_Jun_13_1207,60.0087959523,MAFE4ImagesEEG,001,100619,
AFNE01.JPG,AFNE01.JPG,AFNE01.JPG,AFNE01.JPG,AFNE01.JPG,AFNE01.JPG,,,,,,,,,,,,,,,,,1,5,15,9,,,,,,,AMSA01.jpg,AMSA13.jpg,AMNE13.jpg,AMNE05.jpg,AMNE05.jpg,MN,1,num_4,32,num_8,0.416808139358,,,2017_Jun_13_1207,60.0087959523,MAFE4ImagesEEG,001,100619,
AFNE01.JPG,AFNE01.JPG,AFNE01.JPG,AFNE01.JPG,AFNE01.JPG,AFNE01.JPG,,,,,,,,,,,,,,,,,1,6,16,1,,,,,,,AMNE20.jpg,AMSA09.jpg,AMNE19.jpg,AMSA12.jpg,AMNE20.jpg,MN,1,num_8,32,num_2,0.300118448969,,,2017_Jun_13_1207,60.0087959523,MAFE4ImagesEEG,001,100619,
AFNE01.JPG,AFNE01.JPG,AFNE01.JPG,AFNE01.JPG,AFNE01.JPG,AFNE01.JPG,,,,,,,,,,,,,,,,,1,7,17,6,,,,,,,AMNE19.jpg,AMNE09.jpg,AMSA20.jpg,AMSA17.jpg,AMSA17.jpg,MS,2,num_4,32,num_2,0.450144156173,,,2017_Jun_13_1207,60.0087959523,MAFE4ImagesEEG,001,100619,
AFNE01.JPG,AFNE01.JPG,AFNE01.JPG,AFNE01.JPG,AFNE01.JPG,AFNE01.JPG,,,,,,,,,,,,,,,,,1,8,18,2,,,,,,,AMNE06.jpg,AMSA04.jpg,AMSA19.jpg,AMNE03.jpg,AMSA04.jpg,MS,2,num_6,16,num_6,0.550013006025,,,2017_Jun_13_1207,60.0087959523,MAFE4ImagesEEG,001,100619,
AFNE01.JPG,AFNE01.JPG,AFNE01.JPG,AFNE01.JPG,AFNE01.JPG,AFNE01.JPG,,,,,,,,,,,,,,,,,1,9,19,4,,,,,,,AMSA09.jpg,AMNE19.jpg,AMSA20.jpg,AMNE14.jpg,AMNE14.jpg,MN,1,num_4,16,num_4,0.666785446985,,,2017_Jun_13_1207,60.0087959523,MAFE4ImagesEEG,001,100619,
AFNE01.JPG,AFNE01.JPG,AFNE01.JPG,AFNE01.JPG,AFNE01.JPG,AFNE01.JPG,,,,,,,,,,,,,,,,,2,0,20,0,,,,,,,AMNE03.jpg,AMSA16.jpg,AMSA15.jpg,AMNE20.jpg,AMNE20.jpg,MN,1,num_4,32,num_8,0.400161460042,,,2017_Jun_13_1207,60.0087959523,MAFE4ImagesEEG,001,100619,
AFNE01.JPG,AFNE01.JPG,AFNE01.JPG,AFNE01.JPG,AFNE01.JPG,AFNE01.JPG,,,,,,,,,,,,,,,,,2,1,21,1,,,,,,,AMNE01.jpg,AMSA06.jpg,AMSA20.jpg,AMNE03.jpg,AMNE03.jpg,MN,1,num_4,32,num_2,0.383529214014,,,2017_Jun_13_1207,60.0087959523,MAFE4ImagesEEG,001,100619,
AFNE01.JPG,AFNE01.JPG,AFNE01.JPG,AFNE01.JPG,AFNE01.JPG,AFNE01.JPG,,,,,,,,,,,,,,,,,2,2,22,3,,,,,,,AMSA16.jpg,AMNE13.jpg,AMNE02.jpg,AMSA12.jpg,AMNE02.jpg,MN,1,num_2,32,num_8,0.566837374703,,,2017_Jun_13_1207,60.0087959523,MAFE4ImagesEEG,001,100619,
AFNE01.JPG,AFNE01.JPG,AFNE01.JPG,AFNE01.JPG,AFNE01.JPG,AFNE01.JPG,,,,,,,,,,,,,,,,,2,3,23,2,,,,,,,AMNE20.jpg,AMSA02.jpg,AMSA05.jpg,AMNE12.jpg,AMSA05.jpg,MS,2,num_2,32,num_6,0.300191256683,,,2017_Jun_13_1207,60.0087959523,MAFE4ImagesEEG,001,100619,
AFNE01.JPG,AFNE01.JPG,AFNE01.JPG,AFNE01.JPG,AFNE01.JPG,AFNE01.JPG,,,,,,,,,,,,,,,,,2,4,24,6,,,,,,,AMNE12.jpg,AMSA14.jpg,AMNE01.jpg,AMSA10.jpg,AMSA10.jpg,MS,2,num_4,32,num_8,0.366788237472,,,2017_Jun_13_1207,60.0087959523,MAFE4ImagesEEG,001,100619,
AFNE01.JPG,AFNE01.JPG,AFNE01.JPG,AFNE01.JPG,AFNE01.JPG,AFNE01.JPG,,,,,,,,,,,,,,,,,2,5,25,8,,,,,,,AMNE04.jpg,AMSA19.jpg,AMSA15.jpg,AMNE19.jpg,AMNE04.jpg,MN,1,num_8,32,num_4,0.333511878096,,,2017_Jun_13_1207,60.0087959523,MAFE4ImagesEEG,001,100619,
AFNE01.JPG,AFNE01.JPG,AFNE01.JPG,AFNE01.JPG,AFNE01.JPG,AFNE01.JPG,,,,,,,,,,,,,,,,,2,6,26,5,,,,,,,AMNE03.jpg,AMSA20.jpg,AMSA19.jpg,AMNE11.jpg,AMNE03.jpg,MN,1,num_8,16,num_8,0.30018676637,,,2017_Jun_13_1207,60.0087959523,MAFE4ImagesEEG,001,100619,
AFNE01.JPG,AFNE01.JPG,AFNE01.JPG,AFNE01.JPG,AFNE01.JPG,AFNE01.JPG,,,,,,,,,,,,,,,,,2,7,27,7,,,,,,,AMSA14.jpg,AMNE02.jpg,AMNE01.jpg,AMSA06.jpg,AMNE01.jpg,MN,1,num_2,32,num_8,0.550188770983,,,2017_Jun_13_1207,60.0087959523,MAFE4ImagesEEG,001,100619,
AFNE01.JPG,AFNE01.JPG,AFNE01.JPG,AFNE01.JPG,AFNE01.JPG,AFNE01.JPG,,,,,,,,,,,,,,,,,2,8,28,4,,,,,,,AMSA10.jpg,AMNE18.jpg,AMSA11.jpg,AMNE08.jpg,AMNE18.jpg,MN,1,num_6,16,num_6,0.283542653022,,,2017_Jun_13_1207,60.0087959523,MAFE4ImagesEEG,001,100619,
AFNE01.JPG,AFNE01.JPG,AFNE01.JPG,AFNE01.JPG,AFNE01.JPG,AFNE01.JPG,,,,,,,,,,,,,,,,,2,9,29,9,,,,,,,AMSA08.jpg,AMSA04.jpg,AMNE04.jpg,AMNE10.jpg,AMSA04.jpg,MS,2,num_6,32,num_4,0.316794315469,,,2017_Jun_13_1207,60.0087959523,MAFE4ImagesEEG,001,100619,
AFNE01.JPG,AFNE01.JPG,AFNE01.JPG,AFNE01.JPG,AFNE01.JPG,AFNE01.JPG,,,,,,,,,,,,,,,,,3,0,30,3,,,,,,,AMSA08.jpg,AMSA19.jpg,AMNE02.jpg,AMNE07.jpg,AMSA08.jpg,MS,2,num_8,32,num_2,0.366831858002,,,2017_Jun_13_1207,60.0087959523,MAFE4ImagesEEG,001,100619,
AFNE01.JPG,AFNE01.JPG,AFNE01.JPG,AFNE01.JPG,AFNE01.JPG,AFNE01.JPG,,,,,,,,,,,,,,,,,3,1,31,5,,,,,,,AMNE04.jpg,AMSA15.jpg,AMSA12.jpg,AMNE11.jpg,AMSA15.jpg,MS,2,num_6,16,num_6,0.666793144774,,,2017_Jun_13_1207,60.0087959523,MAFE4ImagesEEG,001,100619,
AFNE01.JPG,AFNE01.JPG,AFNE01.JPG,AFNE01.JPG,AFNE01.JPG,AFNE01.JPG,,,,,,,,,,,,,,,,,3,2,32,1,,,,,,,AMNE03.jpg,AMNE14.jpg,AMSA15.jpg,AMSA01.jpg,AMSA15.jpg,MS,2,num_2,32,num_6,0.466819060501,,,2017_Jun_13_1207,60.0087959523,MAFE4ImagesEEG,001,100619,
AFNE01.JPG,AFNE01.JPG,AFNE01.JPG,AFNE01.JPG,AFNE01.JPG,AFNE01.JPG,,,,,,,,,,,,,,,,,3,3,33,6,,,,,,,AMSA07.jpg,AMNE03.jpg,AMNE05.jpg,AMSA19.jpg,AMNE03.jpg,MN,1,num_6,32,num_8,1.16687316919,,,2017_Jun_13_1207,60.0087959523,MAFE4ImagesEEG,001,100619,
AFNE01.JPG,AFNE01.JPG,AFNE01.JPG,AFNE01.JPG,AFNE01.JPG,AFNE01.JPG,,,,,,,,,,,,,,,,,3,4,34,7,,,,,,,AMSA06.jpg,AMNE12.jpg,AMNE05.jpg,AMSA20.jpg,AMNE05.jpg,MN,1,num_2,32,num_4,0.550228221924,,,2017_Jun_13_1207,60.0087959523,MAFE4ImagesEEG,001,100619,
AFNE01.JPG,AFNE01.JPG,AFNE01.JPG,AFNE01.JPG,AFNE01.JPG,AFNE01.JPG,,,,,,,,,,,,,,,,,3,5,35,2,,,,,,,AMNE20.jpg,AMSA01.jpg,AMNE11.jpg,AMSA02.jpg,AMSA02.jpg,MS,2,num_4,32,num_6,0.833471946069,,,2017_Jun_13_1207,60.0087959523,MAFE4ImagesEEG,001,100619,
AFNE01.JPG,AFNE01.JPG,AFNE01.JPG,AFNE01.JPG,AFNE01.JPG,AFNE01.JPG,,,,,,,,,,,,,,,,,3,6,36,9,,,,,,,AMSA01.jpg,AMSA06.jpg,AMNE12.jpg,AMNE20.jpg,AMSA01.jpg,MS,2,num_8,32,num_4,1.35004694015,,,2017_Jun_13_1207,60.0087959523,MAFE4ImagesEEG,001,100619,
AFNE01.JPG,AFNE01.JPG,AFNE01.JPG,AFNE01.JPG,AFNE01.JPG,AFNE01.JPG,,,,,,,,,,,,,,,,,3,7,37,4,,,,,,,AMSA05.jpg,AMSA10.jpg,AMNE07.jpg,AMNE19.jpg,AMNE19.jpg,MN,1,num_4,32,num_8,0.583456149674,,,2017_Jun_13_1207,60.0087959523,MAFE4ImagesEEG,001,100619,
AFNE01.JPG,AFNE01.JPG,AFNE01.JPG,AFNE01.JPG,AFNE01.JPG,AFNE01.JPG,,,,,,,,,,,,,,,,,3,8,38,0,,,,,,,AMSA09.jpg,AMSA18.jpg,AMNE16.jpg,AMNE14.jpg,AMSA18.jpg,MS,2,num_6,32,num_4,1.03346367105,,,2017_Jun_13_1207,60.0087959523,MAFE4ImagesEEG,001,100619,
AFNE01.JPG,AFNE01.JPG,AFNE01.JPG,AFNE01.JPG,AFNE01.JPG,AFNE01.JPG,,,,,,,,,,,,,,,,,3,9,39,8,,,,,,,AMSA08.jpg,AMSA18.jpg,AMNE11.jpg,AMNE01.jpg,AMNE11.jpg,MN,1,num_2,32,num_8,0.633481504105,,,2017_Jun_13_1207,60.0087959523,MAFE4ImagesEEG,001,100619,
AFNE01.JPG,AFNE01.JPG,AFNE01.JPG,AFNE01.JPG,AFNE01.JPG,AFNE01.JPG,,,,,,,,,,,,,,,,,4,0,40,6,,,,,,,AMNE19.jpg,AMNE05.jpg,AMSA04.jpg,AMSA18.jpg,AMNE19.jpg,MN,1,num_8,32,num_6,0.166843981948,,,2017_Jun_13_1207,60.0087959523,MAFE4ImagesEEG,001,100619,
AFNE01.JPG,AFNE01.JPG,AFNE01.JPG,AFNE01.JPG,AFNE01.JPG,AFNE01.JPG,,,,,,,,,,,,,,,,,4,1,41,9,,,,,,,AMSA20.jpg,AMNE13.jpg,AMSA18.jpg,AMNE10.jpg,AMSA18.jpg,MS,2,num_2,32,num_6,3.51655831566,,,2017_Jun_13_1207,60.0087959523,MAFE4ImagesEEG,001,100619,
AFNE01.JPG,AFNE01.JPG,AFNE01.JPG,AFNE01.JPG,AFNE01.JPG,AFNE01.JPG,,,,,,,,,,,,,,,,,4,2,42,2,,,,,,,AMSA02.jpg,AMNE06.jpg,AMNE15.jpg,AMSA17.jpg,AMNE06.jpg,MN,1,num_6,32,num_2,0.466862039524,,,2017_Jun_13_1207,60.0087959523,MAFE4ImagesEEG,001,100619,
AFNE01.JPG,AFNE01.JPG,AFNE01.JPG,AFNE01.JPG,AFNE01.JPG,AFNE01.JPG,,,,,,,,,,,,,,,,,4,3,43,8,,,,,,,AMSA14.jpg,AMNE14.jpg,AMSA01.jpg,AMNE03.jpg,AMNE03.jpg,MN,1,num_4,32,num_2,0.400168837048,,,2017_Jun_13_1207,60.0087959523,MAFE4ImagesEEG,001,100619,
AFNE01.JPG,AFNE01.JPG,AFNE01.JPG,AFNE01.JPG,AFNE01.JPG,AFNE01.JPG,,,,,,,,,,,,,,,,,4,4,44,0,,,,,,,AMNE10.jpg,AMSA11.jpg,AMSA17.jpg,AMNE17.jpg,AMNE10.jpg,MN,1,num_8,32,num_4,0.300173936819,,,2017_Jun_13_1207,60.0087959523,MAFE4ImagesEEG,001,100619,
AFNE01.JPG,AFNE01.JPG,AFNE01.JPG,AFNE01.JPG,AFNE01.JPG,AFNE01.JPG,,,,,,,,,,,,,,,,,4,5,45,1,,,,,,,AMSA04.jpg,AMSA13.jpg,AMNE15.jpg,AMNE17.jpg,AMNE15.jpg,MN,1,num_2,16,num_2,0.850107399456,,,2017_Jun_13_1207,60.0087959523,MAFE4ImagesEEG,001,100619,
AFNE01.JPG,AFNE01.JPG,AFNE01.JPG,AFNE01.JPG,AFNE01.JPG,AFNE01.JPG,,,,,,,,,,,,,,,,,4,6,46,5,,,,,,,AMSA02.jpg,AMNE19.jpg,AMNE10.jpg,AMSA14.jpg,AMSA02.jpg,MS,2,num_8,32,num_2,1.5499658573,,,2017_Jun_13_1207,60.0087959523,MAFE4ImagesEEG,001,100619,
AFNE01.JPG,AFNE01.JPG,AFNE01.JPG,AFNE01.JPG,AFNE01.JPG,AFNE01.JPG,,,,,,,,,,,,,,,,,4,7,47,4,,,,,,,AMNE16.jpg,AMSA17.jpg,AMSA01.jpg,AMNE14.jpg,AMSA01.jpg,MS,2,num_2,32,num_6,0.616801147233,,,2017_Jun_13_1207,60.0087959523,MAFE4ImagesEEG,001,100619,
AFNE01.JPG,AFNE01.JPG,AFNE01.JPG,AFNE01.JPG,AFNE01.JPG,AFNE01.JPG,,,,,,,,,,,,,,,,,4,8,48,3,,,,,,,AMNE16.jpg,AMSA07.jpg,AMNE04.jpg,AMSA10.jpg,AMNE04.jpg,MN,1,num_2,16,num_2,0.516759419115,,,2017_Jun_13_1207,60.0087959523,MAFE4ImagesEEG,001,100619,
AFNE01.JPG,AFNE01.JPG,AFNE01.JPG,AFNE01.JPG,AFNE01.JPG,AFNE01.JPG,,,,,,,,,,,,,,,,,4,9,49,7,,,,,,,AMNE14.jpg,AMNE08.jpg,AMSA18.jpg,AMSA20.jpg,AMNE14.jpg,MN,1,num_8,32,num_2,0.433503250184,,,2017_Jun_13_1207,60.0087959523,MAFE4ImagesEEG,001,100619,
AFNE01.JPG,AFNE01.JPG,AFNE01.JPG,AFNE01.JPG,AFNE01.JPG,AFNE01.JPG,,,,,,,,,,,,,,,,,5,0,50,7,,,,,,,AMNE19.jpg,AMSA02.jpg,AMSA07.jpg,AMNE17.jpg,AMSA07.jpg,MS,2,num_2,16,num_2,0.633485673694,,,2017_Jun_13_1207,60.0087959523,MAFE4ImagesEEG,001,100619,
AFNE01.JPG,AFNE01.JPG,AFNE01.JPG,AFNE01.JPG,AFNE01.JPG,AFNE01.JPG,,,,,,,,,,,,,,,,,5,1,51,0,,,,,,,AMSA13.jpg,AMNE14.jpg,AMNE18.jpg,AMSA11.jpg,AMSA13.jpg,MS,2,num_8,32,num_2,0.333599760605,,,2017_Jun_13_1207,60.0087959523,MAFE4ImagesEEG,001,100619,
AFNE01.JPG,AFNE01.JPG,AFNE01.JPG,AFNE01.JPG,AFNE01.JPG,AFNE01.JPG,,,,,,,,,,,,,,,,,5,2,52,1,,,,,,,AMSA03.jpg,AMSA17.jpg,AMNE02.jpg,AMNE09.jpg,AMNE02.jpg,MN,1,num_2,32,num_6,0.366851423052,,,2017_Jun_13_1207,60.0087959523,MAFE4ImagesEEG,001,100619,
AFNE01.JPG,AFNE01.JPG,AFNE01.JPG,AFNE01.JPG,AFNE01.JPG,AFNE01.JPG,,,,,,,,,,,,,,,,,5,3,53,4,,,,,,,AMSA08.jpg,AMNE09.jpg,AMNE08.jpg,AMSA03.jpg,AMNE09.jpg,MN,1,num_6,32,num_8,0.300163352396,,,2017_Jun_13_1207,60.0087959523,MAFE4ImagesEEG,001,100619,
AFNE01.JPG,AFNE01.JPG,AFNE01.JPG,AFNE01.JPG,AFNE01.JPG,AFNE01.JPG,,,,,,,,,,,,,,,,,5,4,54,9,,,,,,,AMNE01.jpg,AMSA14.jpg,AMSA13.jpg,AMNE10.jpg,AMNE10.jpg,MN,1,num_4,16,num_4,0.383516063739,,,2017_Jun_13_1207,60.0087959523,MAFE4ImagesEEG,001,100619,
AFNE01.JPG,AFNE01.JPG,AFNE01.JPG,AFNE01.JPG,AFNE01.JPG,AFNE01.JPG,,,,,,,,,,,,,,,,,5,5,55,6,,,,,,,AMSA12.jpg,AMNE17.jpg,AMNE15.jpg,AMSA09.jpg,AMNE15.jpg,MN,1,num_2,16,num_2,0.400201231707,,,2017_Jun_13_1207,60.0087959523,MAFE4ImagesEEG,001,100619,
AFNE01.JPG,AFNE01.JPG,AFNE01.JPG,AFNE01.JPG,AFNE01.JPG,AFNE01.JPG,,,,,,,,,,,,,,,,,5,6,56,5,,,,,,,AMNE06.jpg,AMSA05.jpg,AMNE14.jpg,AMSA16.jpg,AMNE14.jpg,MN,1,num_2,32,num_6,0.516778984165,,,2017_Jun_13_1207,60.0087959523,MAFE4ImagesEEG,001,100619,
AFNE01.JPG,AFNE01.JPG,AFNE01.JPG,AFNE01.JPG,AFNE01.JPG,AFNE01.JPG,,,,,,,,,,,,,,,,,5,7,57,8,,,,,,,AMNE07.jpg,AMSA19.jpg,AMNE19.jpg,AMSA18.jpg,AMNE19.jpg,MN,1,num_2,32,num_8,0.366831858002,,,2017_Jun_13_1207,60.0087959523,MAFE4ImagesEEG,001,100619,
AFNE01.JPG,AFNE01.JPG,AFNE01.JPG,AFNE01.JPG,AFNE01.JPG,AFNE01.JPG,,,,,,,,,,,,,,,,,5,8,58,2,,,,,,,AMNE14.jpg,AMSA05.jpg,AMNE01.jpg,AMSA02.jpg,AMSA02.jpg,MS,2,num_4,16,num_4,0.383513497829,,,2017_Jun_13_1207,60.0087959523,MAFE4ImagesEEG,001,100619,
AFNE01.JPG,AFNE01.JPG,AFNE01.JPG,AFNE01.JPG,AFNE01.JPG,AFNE01.JPG,,,,,,,,,,,,,,,,,5,9,59,3,,,,,,,AMNE20.jpg,AMNE04.jpg,AMSA19.jpg,AMSA18.jpg,AMSA19.jpg,MS,2,num_2,32,num_8,0.450162438327,,,2017_Jun_13_1207,60.0087959523,MAFE4ImagesEEG,001,100619,
,,,,,,,,,,,,,,,,,,,,,,,,,,,,,,,,,,,,,,,,,,,space,2.36659739772,2017_Jun_13_1207,60.0087959523,MAFE4ImagesEEG,001,100619,
AFNE01.JPG,AFNE01.JPG,AFNE01.JPG,AFNE01.JPG,AFNE01.JPG,AFNE01.JPG,,,,,,,,,,,,,,,,,,,,,0,0,0,4,,,AFSA03.jpg,AFSA08.jpg,AFNE02.jpg,AFNE01.jpg,AFNE01.jpg,FN,3,num_4,16,num_4,0.350200574205,,,2017_Jun_13_1207,60.0087959523,MAFE4ImagesEEG,001,100619,
AFNE01.JPG,AFNE01.JPG,AFNE01.JPG,AFNE01.JPG,AFNE01.JPG,AFNE01.JPG,,,,,,,,,,,,,,,,,,,,,0,1,1,5,,,AFSA19.jpg,AFNE19.jpg,AFSA07.jpg,AFNE07.jpg,AFNE07.jpg,FN,3,num_4,32,num_8,1.28325495002,,,2017_Jun_13_1207,60.0087959523,MAFE4ImagesEEG,001,100619,
AFNE01.JPG,AFNE01.JPG,AFNE01.JPG,AFNE01.JPG,AFNE01.JPG,AFNE01.JPG,,,,,,,,,,,,,,,,,,,,,0,2,2,1,,,AFNE06.jpg,AFSA06.jpg,AFNE10.jpg,AFSA07.jpg,AFNE10.jpg,FN,3,num_2,32,num_8,0.466763572593,,,2017_Jun_13_1207,60.0087959523,MAFE4ImagesEEG,001,100619,
AFNE01.JPG,AFNE01.JPG,AFNE01.JPG,AFNE01.JPG,AFNE01.JPG,AFNE01.JPG,,,,,,,,,,,,,,,,,,,,,0,3,3,7,,,AFNE09.jpg,AFSA12.jpg,AFNE11.jpg,AFSA13.jpg,AFNE09.jpg,FN,3,num_8,16,num_8,0.833465531294,,,2017_Jun_13_1207,60.0087959523,MAFE4ImagesEEG,001,100619,
AFNE01.JPG,AFNE01.JPG,AFNE01.JPG,AFNE01.JPG,AFNE01.JPG,AFNE01.JPG,,,,,,,,,,,,,,,,,,,,,0,4,4,3,,,AFSA07.jpg,AFSA08.jpg,AFNE20.jpg,AFNE19.jpg,AFNE20.jpg,FN,3,num_2,32,num_6,0.416785366891,,,2017_Jun_13_1207,60.0087959523,MAFE4ImagesEEG,001,100619,
AFNE01.JPG,AFNE01.JPG,AFNE01.JPG,AFNE01.JPG,AFNE01.JPG,AFNE01.JPG,,,,,,,,,,,,,,,,,,,,,0,5,5,2,,,AFNE20.jpg,AFNE11.jpg,AFSA04.jpg,AFSA11.jpg,AFSA04.jpg,FS,4,num_2,32,num_4,1.23345539591,,,2017_Jun_13_1207,60.0087959523,MAFE4ImagesEEG,001,100619,
AFNE01.JPG,AFNE01.JPG,AFNE01.JPG,AFNE01.JPG,AFNE01.JPG,AFNE01.JPG,,,,,,,,,,,,,,,,,,,,,0,6,6,6,,,AFSA14.jpg,AFNE17.jpg,AFSA07.jpg,AFNE15.jpg,AFSA07.jpg,FS,4,num_2,16,num_2,0.98345467425,,,2017_Jun_13_1207,60.0087959523,MAFE4ImagesEEG,001,100619,
AFNE01.JPG,AFNE01.JPG,AFNE01.JPG,AFNE01.JPG,AFNE01.JPG,AFNE01.JPG,,,,,,,,,,,,,,,,,,,,,0,7,7,8,,,AFSA20.jpg,AFNE07.jpg,AFSA08.jpg,AFNE08.jpg,AFNE07.jpg,FN,3,num_6,16,num_6,0.733491479128,,,2017_Jun_13_1207,60.0087959523,MAFE4ImagesEEG,001,100619,
AFNE01.JPG,AFNE01.JPG,AFNE01.JPG,AFNE01.JPG,AFNE01.JPG,AFNE01.JPG,,,,,,,,,,,,,,,,,,,,,0,8,8,0,,,AFSA18.jpg,AFNE05.jpg,AFNE18.jpg,AFSA02.jpg,AFNE05.jpg,FN,3,num_6,32,num_8,0.783445308683,,,2017_Jun_13_1207,60.0087959523,MAFE4ImagesEEG,001,100619,
AFNE01.JPG,AFNE01.JPG,AFNE01.JPG,AFNE01.JPG,AFNE01.JPG,AFNE01.JPG,,,,,,,,,,,,,,,,,,,,,0,9,9,9,,,AFNE09.jpg,AFSA14.jpg,AFNE16.jpg,AFSA12.jpg,AFSA12.jpg,FS,4,num_4,32,num_6,0.716782897129,,,2017_Jun_13_1207,60.0087959523,MAFE4ImagesEEG,001,100619,
AFNE01.JPG,AFNE01.JPG,AFNE01.JPG,AFNE01.JPG,AFNE01.JPG,AFNE01.JPG,,,,,,,,,,,,,,,,,,,,,1,0,10,9,,,AFSA10.jpg,AFSA12.jpg,AFNE09.jpg,AFNE17.jpg,AFSA12.jpg,FS,4,num_6,32,num_8,0.966799655755,,,2017_Jun_13_1207,60.0087959523,MAFE4ImagesEEG,001,100619,
AFNE01.JPG,AFNE01.JPG,AFNE01.JPG,AFNE01.JPG,AFNE01.JPG,AFNE01.JPG,,,,,,,,,,,,,,,,,,,,,1,1,11,4,,,AFNE12.jpg,AFSA15.jpg,AFNE20.jpg,AFSA02.jpg,AFNE20.jpg,FN,3,num_2,32,num_6,0.700153537793,,,2017_Jun_13_1207,60.0087959523,MAFE4ImagesEEG,001,100619,
AFNE01.JPG,AFNE01.JPG,AFNE01.JPG,AFNE01.JPG,AFNE01.JPG,AFNE01.JPG,,,,,,,,,,,,,,,,,,,,,1,2,12,0,,,AFNE11.jpg,AFSA10.jpg,AFNE18.jpg,AFSA12.jpg,AFNE11.jpg,FN,3,num_8,32,num_4,0.400162101549,,,2017_Jun_13_1207,60.0087959523,MAFE4ImagesEEG,001,100619,
AFNE01.JPG,AFNE01.JPG,AFNE01.JPG,AFNE01.JPG,AFNE01.JPG,AFNE01.JPG,,,,,,,,,,,,,,,,,,,,,1,3,13,1,,,AFSA03.jpg,AFNE05.jpg,AFSA01.jpg,AFNE10.jpg,AFNE10.jpg,FN,3,num_4,32,num_2,0.600153184962,,,2017_Jun_13_1207,60.0087959523,MAFE4ImagesEEG,001,100619,
AFNE01.JPG,AFNE01.JPG,AFNE01.JPG,AFNE01.JPG,AFNE01.JPG,AFNE01.JPG,,,,,,,,,,,,,,,,,,,,,1,4,14,2,,,AFNE05.jpg,AFNE17.jpg,AFSA18.jpg,AFSA03.jpg,AFSA03.jpg,FS,4,num_4,32,num_8,0.550169847382,,,2017_Jun_13_1207,60.0087959523,MAFE4ImagesEEG,001,100619,
AFNE01.JPG,AFNE01.JPG,AFNE01.JPG,AFNE01.JPG,AFNE01.JPG,AFNE01.JPG,,,,,,,,,,,,,,,,,,,,,1,5,15,7,,,AFNE12.jpg,AFSA11.jpg,AFSA17.jpg,AFNE18.jpg,AFSA17.jpg,FS,4,num_2,32,num_6,0.416860099067,,,2017_Jun_13_1207,60.0087959523,MAFE4ImagesEEG,001,100619,
AFNE01.JPG,AFNE01.JPG,AFNE01.JPG,AFNE01.JPG,AFNE01.JPG,AFNE01.JPG,,,,,,,,,,,,,,,,,,,,,1,6,16,6,,,AFSA04.jpg,AFNE02.jpg,AFSA10.jpg,AFNE08.jpg,AFNE08.jpg,FN,3,num_4,32,num_8,0.416799800121,,,2017_Jun_13_1207,60.0087959523,MAFE4ImagesEEG,001,100619,
AFNE01.JPG,AFNE01.JPG,AFNE01.JPG,AFNE01.JPG,AFNE01.JPG,AFNE01.JPG,,,,,,,,,,,,,,,,,,,,,1,7,17,3,,,AFSA10.jpg,AFSA15.jpg,AFNE10.jpg,AFNE11.jpg,AFNE11.jpg,FN,3,num_4,16,num_4,2.3333656211,,,2017_Jun_13_1207,60.0087959523,MAFE4ImagesEEG,001,100619,
AFNE01.JPG,AFNE01.JPG,AFNE01.JPG,AFNE01.JPG,AFNE01.JPG,AFNE01.JPG,,,,,,,,,,,,,,,,,,,,,1,8,18,8,,,AFNE07.jpg,AFNE16.jpg,AFSA03.jpg,AFSA01.jpg,AFNE07.jpg,FN,3,num_8,16,num_8,0.516625350167,,,2017_Jun_13_1207,60.0087959523,MAFE4ImagesEEG,001,100619,
AFNE01.JPG,AFNE01.JPG,AFNE01.JPG,AFNE01.JPG,AFNE01.JPG,AFNE01.JPG,,,,,,,,,,,,,,,,,,,,,1,9,19,5,,,AFSA13.jpg,AFNE15.jpg,AFSA15.jpg,AFNE18.jpg,AFSA13.jpg,FS,4,num_8,32,num_6,0.366823198041,,,2017_Jun_13_1207,60.0087959523,MAFE4ImagesEEG,001,100619,
AFNE01.JPG,AFNE01.JPG,AFNE01.JPG,AFNE01.JPG,AFNE01.JPG,AFNE01.JPG,,,,,,,,,,,,,,,,,,,,,2,0,20,0,,,AFSA16.jpg,AFNE20.jpg,AFSA03.jpg,AFNE01.jpg,AFNE01.jpg,FN,3,num_4,32,num_8,0.716830366582,,,2017_Jun_13_1207,60.0087959523,MAFE4ImagesEEG,001,100619,
AFNE01.JPG,AFNE01.JPG,AFNE01.JPG,AFNE01.JPG,AFNE01.JPG,AFNE01.JPG,,,,,,,,,,,,,,,,,,,,,2,1,21,1,,,AFNE16.jpg,AFSA15.jpg,AFNE07.jpg,AFSA13.jpg,AFSA15.jpg,FS,4,num_6,16,num_6,0.750434842019,,,2017_Jun_13_1207,60.0087959523,MAFE4ImagesEEG,001,100619,
AFNE01.JPG,AFNE01.JPG,AFNE01.JPG,AFNE01.JPG,AFNE01.JPG,AFNE01.JPG,,,,,,,,,,,,,,,,,,,,,2,2,22,8,,,AFSA16.jpg,AFNE09.jpg,AFNE04.jpg,AFSA08.jpg,AFSA08.jpg,FS,4,num_4,32,num_8,0.483539509762,,,2017_Jun_13_1207,60.0087959523,MAFE4ImagesEEG,001,100619,
AFNE01.JPG,AFNE01.JPG,AFNE01.JPG,AFNE01.JPG,AFNE01.JPG,AFNE01.JPG,,,,,,,,,,,,,,,,,,,,,2,3,23,4,,,AFSA14.jpg,AFNE17.jpg,AFSA13.jpg,AFNE07.jpg,AFNE07.jpg,FN,3,num_4,16,num_4,0.400257040281,,,2017_Jun_13_1207,60.0087959523,MAFE4ImagesEEG,001,100619,
AFNE01.JPG,AFNE01.JPG,AFNE01.JPG,AFNE01.JPG,AFNE01.JPG,AFNE01.JPG,,,,,,,,,,,,,,,,,,,,,2,4,24,9,,,AFSA15.jpg,AFSA08.jpg,AFNE09.jpg,AFNE16.jpg,AFSA15.jpg,FS,4,num_8,32,num_6,0.40015953558,,,2017_Jun_13_1207,60.0087959523,MAFE4ImagesEEG,001,100619,
AFNE01.JPG,AFNE01.JPG,AFNE01.JPG,AFNE01.JPG,AFNE01.JPG,AFNE01.JPG,,,,,,,,,,,,,,,,,,,,,2,5,25,3,,,AFNE04.jpg,AFSA10.jpg,AFSA05.jpg,AFNE07.jpg,AFNE04.jpg,FN,3,num_8,16,num_8,0.750138479052,,,2017_Jun_13_1207,60.0087959523,MAFE4ImagesEEG,001,100619,
AFNE01.JPG,AFNE01.JPG,AFNE01.JPG,AFNE01.JPG,AFNE01.JPG,AFNE01.JPG,,,,,,,,,,,,,,,,,,,,,2,6,26,7,,,AFNE17.jpg,AFSA20.jpg,AFSA13.jpg,AFNE13.jpg,AFNE17.jpg,FN,3,num_8,32,num_4,0.433458346757,,,2017_Jun_13_1207,60.0087959523,MAFE4ImagesEEG,001,100619,
AFNE01.JPG,AFNE01.JPG,AFNE01.JPG,AFNE01.JPG,AFNE01.JPG,AFNE01.JPG,,,,,,,,,,,,,,,,,,,,,2,7,27,6,,,AFSA18.jpg,AFNE03.jpg,AFNE09.jpg,AFSA12.jpg,AFNE03.jpg,FN,3,num_6,32,num_8,0.40027756762,,,2017_Jun_13_1207,60.0087959523,MAFE4ImagesEEG,001,100619,
AFNE01.JPG,AFNE01.JPG,AFNE01.JPG,AFNE01.JPG,AFNE01.JPG,AFNE01.JPG,,,,,,,,,,,,,,,,,,,,,2,8,28,2,,,AFSA15.jpg,AFSA03.jpg,AFNE16.jpg,AFNE20.jpg,AFNE16.jpg,FN,3,num_2,32,num_6,0.383614851336,,,2017_Jun_13_1207,60.0087959523,MAFE4ImagesEEG,001,100619,
AFNE01.JPG,AFNE01.JPG,AFNE01.JPG,AFNE01.JPG,AFNE01.JPG,AFNE01.JPG,,,,,,,,,,,,,,,,,,,,,2,9,29,5,,,AFNE12.jpg,AFSA05.jpg,AFSA10.jpg,AFNE04.jpg,AFNE12.jpg,FN,3,num_8,32,num_4,0.783504324674,,,2017_Jun_13_1207,60.0087959523,MAFE4ImagesEEG,001,100619,
AFNE01.JPG,AFNE01.JPG,AFNE01.JPG,AFNE01.JPG,AFNE01.JPG,AFNE01.JPG,,,,,,,,,,,,,,,,,,,,,3,0,30,7,,,AFNE01.jpg,AFSA13.jpg,AFNE19.jpg,AFSA15.jpg,AFSA15.jpg,FS,4,num_4,16,num_4,0.716779369046,,,2017_Jun_13_1207,60.0087959523,MAFE4ImagesEEG,001,100619,
AFNE01.JPG,AFNE01.JPG,AFNE01.JPG,AFNE01.JPG,AFNE01.JPG,AFNE01.JPG,,,,,,,,,,,,,,,,,,,,,3,1,31,0,,,AFSA10.jpg,AFSA15.jpg,AFNE17.jpg,AFNE08.jpg,AFSA15.jpg,FS,4,num_6,16,num_6,0.650149672932,,,2017_Jun_13_1207,60.0087959523,MAFE4ImagesEEG,001,100619,
AFNE01.JPG,AFNE01.JPG,AFNE01.JPG,AFNE01.JPG,AFNE01.JPG,AFNE01.JPG,,,,,,,,,,,,,,,,,,,,,3,2,32,6,,,AFNE07.jpg,AFNE18.jpg,AFSA15.jpg,AFSA20.jpg,AFNE07.jpg,FN,3,num_8,16,num_8,0.366809726984,,,2017_Jun_13_1207,60.0087959523,MAFE4ImagesEEG,001,100619,
AFNE01.JPG,AFNE01.JPG,AFNE01.JPG,AFNE01.JPG,AFNE01.JPG,AFNE01.JPG,,,,,,,,,,,,,,,,,,,,,3,3,33,1,,,AFSA06.jpg,AFSA05.jpg,AFNE20.jpg,AFNE07.jpg,AFSA05.jpg,FS,4,num_6,32,num_4,0.316819653846,,,2017_Jun_13_1207,60.0087959523,MAFE4ImagesEEG,001,100619,
AFNE01.JPG,AFNE01.JPG,AFNE01.JPG,AFNE01.JPG,AFNE01.JPG,AFNE01.JPG,,,,,,,,,,,,,,,,,,,,,3,4,34,4,,,AFSA04.jpg,AFNE06.jpg,AFNE05.jpg,AFSA13.jpg,AFNE06.jpg,FN,3,num_6,32,num_4,0.400492462795,,,2017_Jun_13_1207,60.0087959523,MAFE4ImagesEEG,001,100619,
AFNE01.JPG,AFNE01.JPG,AFNE01.JPG,AFNE01.JPG,AFNE01.JPG,AFNE01.JPG,,,,,,,,,,,,,,,,,,,,,3,5,35,8,,,AFSA03.jpg,AFNE17.jpg,AFSA02.jpg,AFNE03.jpg,AFNE17.jpg,FN,3,num_6,16,num_6,0.500177529117,,,2017_Jun_13_1207,60.0087959523,MAFE4ImagesEEG,001,100619,
AFNE01.JPG,AFNE01.JPG,AFNE01.JPG,AFNE01.JPG,AFNE01.JPG,AFNE01.JPG,,,,,,,,,,,,,,,,,,,,,3,6,36,9,,,AFNE12.jpg,AFSA20.jpg,AFNE07.jpg,AFSA13.jpg,AFNE07.jpg,FN,3,num_2,32,num_8,0.416819044505,,,2017_Jun_13_1207,60.0087959523,MAFE4ImagesEEG,001,100619,
AFNE01.JPG,AFNE01.JPG,AFNE01.JPG,AFNE01.JPG,AFNE01.JPG,AFNE01.JPG,,,,,,,,,,,,,,,,,,,,,3,7,37,3,,,AFSA17.jpg,AFSA13.jpg,AFNE02.jpg,AFNE20.jpg,AFNE20.jpg,FN,3,num_4,16,num_4,0.300183238229,,,2017_Jun_13_1207,60.0087959523,MAFE4ImagesEEG,001,100619,
AFNE01.JPG,AFNE01.JPG,AFNE01.JPG,AFNE01.JPG,AFNE01.JPG,AFNE01.JPG,,,,,,,,,,,,,,,,,,,,,3,8,38,5,,,AFSA01.jpg,AFNE03.jpg,AFNE20.jpg,AFSA02.jpg,AFNE20.jpg,FN,3,num_2,32,num_8,0.483472154534,,,2017_Jun_13_1207,60.0087959523,MAFE4ImagesEEG,001,100619,
