IPosition2,IPosition3,IPosition1,IPosition6,IPosition4,IPosition5,TrialsF1.thisRepN,TrialsF1.thisTrialN,TrialsF1.thisN,TrialsF1.thisIndex,TrialsM1.thisRepN,TrialsM1.thisTrialN,TrialsM1.thisN,TrialsM1.thisIndex,TrialsF2.thisRepN,TrialsF2.thisTrialN,TrialsF2.thisN,TrialsF2.thisIndex,TrialsM2.thisRepN,TrialsM2.thisTrialN,TrialsM2.thisN,TrialsM2.thisIndex,TrialsF3.thisRepN,TrialsF3.thisTrialN,TrialsF3.thisN,TrialsF3.thisIndex,TrialsM3.thisRepN,TrialsM3.thisTrialN,TrialsM3.thisN,TrialsM3.thisIndex,InstrKey_resp.keys,InstrKey_resp.rt,Image0 _Position,Image1 _Position,Image2 _Position,Image3 _Position,Center_image,condition,code,correct_answer,accuracy,Key_Resp.keys,Key_Resp.rt,BreakKey_resp.keys,BreakKey_resp.rt,date,frameRate,expName,session,participant,
,,,,,,,,,,,,,,,,,,,,,,,,,,,,,,space,29.4148586872,,,,,,,,,,,,,,2017_Jun_19_1618,60.0106439852,FEMA4ImagesEEG,001,100716,
AMSA25.JPG,AMNE24.JPG,AMSA24.JPG,AMNE26.JPG,AMSA21.JPG,AMNE25.JPG,0,0,0,3,,,,,,,,,,,,,,,,,,,,,,,AFSA17.jpg,AFSA16.jpg,AFNE08.jpg,AFNE13.jpg,AFNE08.jpg,FN,3,num_2,32,num_4,1.73335291981,,,2017_Jun_19_1618,60.0106439852,FEMA4ImagesEEG,001,100716,
AFSA25.JPG,AFNE24.JPG,AFSA24.JPG,AFNE21.JPG,AFSA21.JPG,AFNE25.JPG,0,1,1,2,,,,,,,,,,,,,,,,,,,,,,,AFSA11.jpg,AFNE09.jpg,AFSA05.jpg,AFNE02.jpg,AFNE02.jpg,FN,3,num_4,32,num_6,2.3833419024,,,2017_Jun_19_1618,60.0106439852,FEMA4ImagesEEG,001,100716,
AFNE22.JPG,AFSA24.JPG,AFSA22.JPG,AFNE25.JPG,AFNE24.JPG,AFSA25.JPG,0,2,2,6,,,,,,,,,,,,,,,,,,,,,,,AFSA09.jpg,AFNE03.jpg,AFSA15.jpg,AFNE09.jpg,AFNE09.jpg,FN,3,num_4,32,num_8,4.49949627917,,,2017_Jun_19_1618,60.0106439852,FEMA4ImagesEEG,001,100716,
AFSA21.JPG,AFNE22.JPG,AFNE21.JPG,AFSA23.JPG,AFSA22.JPG,AFNE23.JPG,0,3,3,0,,,,,,,,,,,,,,,,,,,,,,,AFSA05.jpg,AFNE02.jpg,AFSA01.jpg,AFNE04.jpg,AFNE02.jpg,FN,3,num_6,16,num_6,1.18342394743,,,2017_Jun_19_1618,60.0106439852,FEMA4ImagesEEG,001,100716,
AFSA21.JPG,AFNE23.JPG,AFNE21.JPG,AFSA25.JPG,AFNE25.JPG,AFSA23.JPG,0,4,4,4,,,,,,,,,,,,,,,,,,,,,,,AFNE14.jpg,AFSA12.jpg,AFNE17.jpg,AFSA03.jpg,AFSA12.jpg,FS,4,num_6,16,num_6,0.916774622165,,,2017_Jun_19_1618,60.0106439852,FEMA4ImagesEEG,001,100716,
AMSA21.JPG,AMNE23.JPG,AMNE21.JPG,AMSA25.JPG,AMNE25.JPG,AMSA23.JPG,0,5,5,5,,,,,,,,,,,,,,,,,,,,,,,AFNE14.jpg,AFSA20.jpg,AFSA19.jpg,AFNE09.jpg,AFSA20.jpg,FS,4,num_6,32,num_2,1.48338555498,,,2017_Jun_19_1618,60.0106439852,FEMA4ImagesEEG,001,100716,
AMNE22.JPG,AMSA24.JPG,AMSA22.JPG,AMNE25.JPG,AMNE24.JPG,AMSA25.JPG,0,6,6,7,,,,,,,,,,,,,,,,,,,,,,,AFNE05.jpg,AFSA17.jpg,AFSA15.jpg,AFNE02.jpg,AFNE05.jpg,FN,3,num_8,16,num_8,3.63323581801,,,2017_Jun_19_1618,60.0106439852,FEMA4ImagesEEG,001,100716,
AFNE23.JPG,AFNE24.JPG,AFNE22.JPG,AFSA24.JPG,AFSA22.JPG,AFSA23.JPG,0,7,7,8,,,,,,,,,,,,,,,,,,,,,,,AFSA15.jpg,AFNE16.jpg,AFSA14.jpg,AFNE01.jpg,AFNE16.jpg,FN,3,num_6,32,num_4,1.6334295444,,,2017_Jun_19_1618,60.0106439852,FEMA4ImagesEEG,001,100716,
AMNE23.JPG,AMNE24.JPG,AMNE22.JPG,AMSA24.JPG,AMSA22.JPG,AMSA23.JPG,0,8,8,9,,,,,,,,,,,,,,,,,,,,,,,AFSA15.jpg,AFSA09.jpg,AFNE18.jpg,AFNE14.jpg,AFSA15.jpg,FS,4,num_8,32,num_2,1.06676697242,,,2017_Jun_19_1618,60.0106439852,FEMA4ImagesEEG,001,100716,
AMSA21.JPG,AMNE22.JPG,AMNE21.JPG,AMSA23.JPG,AMSA22.JPG,AMNE23.JPG,0,9,9,1,,,,,,,,,,,,,,,,,,,,,,,AFNE11.jpg,AFSA20.jpg,AFSA19.jpg,AFNE09.jpg,AFNE11.jpg,FN,3,num_8,32,num_6,1.86663412245,,,2017_Jun_19_1618,60.0106439852,FEMA4ImagesEEG,001,100716,
AMNE22.JPG,AMSA24.JPG,AMSA22.JPG,AMNE25.JPG,AMNE24.JPG,AMSA25.JPG,,,,,0,0,0,7,,,,,,,,,,,,,,,,,,,AMSA11.jpg,AMSA12.jpg,AMNE11.jpg,AMNE06.jpg,AMNE06.jpg,MN,1,num_4,16,num_4,1.68339620344,,,2017_Jun_19_1618,60.0106439852,FEMA4ImagesEEG,001,100716,
AMSA25.JPG,AMNE24.JPG,AMSA24.JPG,AMNE26.JPG,AMSA21.JPG,AMNE25.JPG,,,,,0,1,1,3,,,,,,,,,,,,,,,,,,,AMNE17.jpg,AMSA06.jpg,AMSA13.jpg,AMNE07.jpg,AMSA06.jpg,MS,2,num_6,16,num_6,3.499629386,,,2017_Jun_19_1618,60.0106439852,FEMA4ImagesEEG,001,100716,
AFNE23.JPG,AFNE24.JPG,AFNE22.JPG,AFSA24.JPG,AFSA22.JPG,AFSA23.JPG,,,,,0,2,2,8,,,,,,,,,,,,,,,,,,,AMSA15.jpg,AMNE19.jpg,AMSA11.jpg,AMNE04.jpg,AMSA15.jpg,MS,2,num_8,32,num_4,1.76669855881,,,2017_Jun_19_1618,60.0106439852,FEMA4ImagesEEG,001,100716,
AFSA25.JPG,AFNE24.JPG,AFSA24.JPG,AFNE21.JPG,AFSA21.JPG,AFNE25.JPG,,,,,0,3,3,2,,,,,,,,,,,,,,,,,,,AMSA08.jpg,AMSA02.jpg,AMNE06.jpg,AMNE19.jpg,AMNE19.jpg,MN,1,num_4,32,num_2,2.01673712768,,,2017_Jun_19_1618,60.0106439852,FEMA4ImagesEEG,001,100716,
AMSA21.JPG,AMNE22.JPG,AMNE21.JPG,AMSA23.JPG,AMSA22.JPG,AMNE23.JPG,,,,,0,4,4,1,,,,,,,,,,,,,,,,,,,AMSA17.jpg,AMNE03.jpg,AMNE05.jpg,AMSA09.jpg,AMSA17.jpg,MS,2,num_8,16,num_8,1.85007596703,,,2017_Jun_19_1618,60.0106439852,FEMA4ImagesEEG,001,100716,
AMSA21.JPG,AMNE23.JPG,AMNE21.JPG,AMSA25.JPG,AMNE25.JPG,AMSA23.JPG,,,,,0,5,5,5,,,,,,,,,,,,,,,,,,,AMNE14.jpg,AMSA12.jpg,AMSA11.jpg,AMNE16.jpg,AMNE14.jpg,MN,1,num_8,32,num_6,1.11676249816,,,2017_Jun_19_1618,60.0106439852,FEMA4ImagesEEG,001,100716,
AFNE22.JPG,AFSA24.JPG,AFSA22.JPG,AFNE25.JPG,AFNE24.JPG,AFSA25.JPG,,,,,0,6,6,6,,,,,,,,,,,,,,,,,,,AMSA13.jpg,AMNE11.jpg,AMSA06.jpg,AMNE10.jpg,AMNE11.jpg,MN,1,num_6,32,num_2,1.90011350962,,,2017_Jun_19_1618,60.0106439852,FEMA4ImagesEEG,001,100716,
AFSA21.JPG,AFNE22.JPG,AFNE21.JPG,AFSA23.JPG,AFSA22.JPG,AFNE23.JPG,,,,,0,7,7,0,,,,,,,,,,,,,,,,,,,AMSA11.jpg,AMSA08.jpg,AMNE07.jpg,AMNE10.jpg,AMSA08.jpg,MS,2,num_6,16,num_6,2.23337072076,,,2017_Jun_19_1618,60.0106439852,FEMA4ImagesEEG,001,100716,
AMNE23.JPG,AMNE24.JPG,AMNE22.JPG,AMSA24.JPG,AMSA22.JPG,AMSA23.JPG,,,,,0,8,8,9,,,,,,,,,,,,,,,,,,,AMSA18.jpg,AMNE05.jpg,AMNE11.jpg,AMSA04.jpg,AMSA04.jpg,MS,2,num_4,16,num_4,1.13343932689,,,2017_Jun_19_1618,60.0106439852,FEMA4ImagesEEG,001,100716,
AFSA21.JPG,AFNE23.JPG,AFNE21.JPG,AFSA25.JPG,AFNE25.JPG,AFSA23.JPG,,,,,0,9,9,4,,,,,,,,,,,,,,,,,,,AMSA20.jpg,AMNE11.jpg,AMSA17.jpg,AMNE06.jpg,AMSA17.jpg,MS,2,num_2,32,num_4,2.59996876004,,,2017_Jun_19_1618,60.0106439852,FEMA4ImagesEEG,001,100716,
AFSA21.JPG,AFNE23.JPG,AFNE21.JPG,AFSA25.JPG,AFNE25.JPG,AFSA23.JPG,,,,,,,,,0,0,0,4,,,,,,,,,,,,,,,AFNE20.jpg,AFSA09.jpg,AFNE13.jpg,AFSA04.jpg,AFSA09.jpg,FS,4,num_6,32,num_2,2.96629192575,,,2017_Jun_19_1618,60.0106439852,FEMA4ImagesEEG,001,100716,
AMSA21.JPG,AMNE23.JPG,AMNE21.JPG,AMSA25.JPG,AMNE25.JPG,AMSA23.JPG,,,,,,,,,0,1,1,5,,,,,,,,,,,,,,,AFNE10.jpg,AFSA13.jpg,AFSA19.jpg,AFNE14.jpg,AFNE14.jpg,FN,3,num_4,32,num_8,1.28344065789,,,2017_Jun_19_1618,60.0106439852,FEMA4ImagesEEG,001,100716,
AMSA25.JPG,AMNE24.JPG,AMSA24.JPG,AMNE26.JPG,AMSA21.JPG,AMNE25.JPG,,,,,,,,,0,2,2,3,,,,,,,,,,,,,,,AFNE10.jpg,AFSA14.jpg,AFNE12.jpg,AFSA04.jpg,AFSA14.jpg,FS,4,num_6,16,num_6,0.866812132532,,,2017_Jun_19_1618,60.0106439852,FEMA4ImagesEEG,001,100716,
AFSA25.JPG,AFNE24.JPG,AFSA24.JPG,AFNE21.JPG,AFSA21.JPG,AFNE25.JPG,,,,,,,,,0,3,3,2,,,,,,,,,,,,,,,AFNE11.jpg,AFSA15.jpg,AFSA10.jpg,AFNE04.jpg,AFSA15.jpg,FS,4,num_6,32,num_2,1.61671550979,,,2017_Jun_19_1618,60.0106439852,FEMA4ImagesEEG,001,100716,
AFNE23.JPG,AFNE24.JPG,AFNE22.JPG,AFSA24.JPG,AFSA22.JPG,AFSA23.JPG,,,,,,,,,0,4,4,8,,,,,,,,,,,,,,,AFNE02.jpg,AFSA01.jpg,AFSA11.jpg,AFNE20.jpg,AFSA11.jpg,FS,4,num_2,16,num_2,0.73350174271,,,2017_Jun_19_1618,60.0106439852,FEMA4ImagesEEG,001,100716,
AMNE23.JPG,AMNE24.JPG,AMNE22.JPG,AMSA24.JPG,AMSA22.JPG,AMSA23.JPG,,,,,,,,,0,5,5,9,,,,,,,,,,,,,,,AFNE12.jpg,AFSA04.jpg,AFNE11.jpg,AFSA18.jpg,AFSA04.jpg,FS,4,num_6,32,num_4,0.883518790011,,,2017_Jun_19_1618,60.0106439852,FEMA4ImagesEEG,001,100716,
AMSA21.JPG,AMNE22.JPG,AMNE21.JPG,AMSA23.JPG,AMSA22.JPG,AMNE23.JPG,,,,,,,,,0,6,6,1,,,,,,,,,,,,,,,AFSA14.jpg,AFSA11.jpg,AFNE12.jpg,AFNE10.jpg,AFNE12.jpg,FN,3,num_2,32,num_4,2.78330482508,,,2017_Jun_19_1618,60.0106439852,FEMA4ImagesEEG,001,100716,
AMNE22.JPG,AMSA24.JPG,AMSA22.JPG,AMNE25.JPG,AMNE24.JPG,AMSA25.JPG,,,,,,,,,0,7,7,7,,,,,,,,,,,,,,,AFSA11.jpg,AFNE07.jpg,AFNE15.jpg,AFSA05.jpg,AFNE07.jpg,FN,3,num_6,16,num_6,0.883478697739,,,2017_Jun_19_1618,60.0106439852,FEMA4ImagesEEG,001,100716,
AFSA21.JPG,AFNE22.JPG,AFNE21.JPG,AFSA23.JPG,AFSA22.JPG,AFNE23.JPG,,,,,,,,,0,8,8,0,,,,,,,,,,,,,,,AFSA02.jpg,AFNE09.jpg,AFNE01.jpg,AFSA19.jpg,AFSA02.jpg,FS,4,num_8,32,num_4,0.750125328777,,,2017_Jun_19_1618,60.0106439852,FEMA4ImagesEEG,001,100716,
AFNE22.JPG,AFSA24.JPG,AFSA22.JPG,AFNE25.JPG,AFNE24.JPG,AFSA25.JPG,,,,,,,,,0,9,9,6,,,,,,,,,,,,,,,AFNE09.jpg,AFSA03.jpg,AFSA13.jpg,AFNE04.jpg,AFSA13.jpg,FS,4,num_2,32,num_6,1.0834296887,,,2017_Jun_19_1618,60.0106439852,FEMA4ImagesEEG,001,100716,
AMSA21.JPG,AMNE22.JPG,AMNE21.JPG,AMSA23.JPG,AMSA22.JPG,AMNE23.JPG,,,,,,,,,,,,,0,0,0,1,,,,,,,,,,,AMNE14.jpg,AMSA10.jpg,AMNE20.jpg,AMSA03.jpg,AMSA03.jpg,MS,2,num_4,16,num_4,1.68339363765,,,2017_Jun_19_1618,60.0106439852,FEMA4ImagesEEG,001,100716,
AMSA21.JPG,AMNE23.JPG,AMNE21.JPG,AMSA25.JPG,AMNE25.JPG,AMSA23.JPG,,,,,,,,,,,,,0,1,1,5,,,,,,,,,,,AMSA06.jpg,AMSA08.jpg,AMNE08.jpg,AMNE09.jpg,AMNE08.jpg,MN,1,num_2,16,num_2,1.35007452371,,,2017_Jun_19_1618,60.0106439852,FEMA4ImagesEEG,001,100716,
AFSA21.JPG,AFNE23.JPG,AFNE21.JPG,AFSA25.JPG,AFNE25.JPG,AFSA23.JPG,,,,,,,,,,,,,0,2,2,4,,,,,,,,,,,AMSA19.jpg,AMNE17.jpg,AMSA03.jpg,AMNE08.jpg,AMNE17.jpg,MN,1,num_6,32,num_4,2.03342935187,,,2017_Jun_19_1618,60.0106439852,FEMA4ImagesEEG,001,100716,
AFSA21.JPG,AFNE22.JPG,AFNE21.JPG,AFSA23.JPG,AFSA22.JPG,AFNE23.JPG,,,,,,,,,,,,,0,3,3,0,,,,,,,,,,,AMNE11.jpg,AMNE17.jpg,AMSA19.jpg,AMSA11.jpg,AMNE17.jpg,MN,1,num_6,16,num_6,1.00017961394,,,2017_Jun_19_1618,60.0106439852,FEMA4ImagesEEG,001,100716,
AFSA25.JPG,AFNE24.JPG,AFSA24.JPG,AFNE21.JPG,AFSA21.JPG,AFNE25.JPG,,,,,,,,,,,,,0,4,4,2,,,,,,,,,,,AMSA11.jpg,AMSA20.jpg,AMNE13.jpg,AMNE14.jpg,AMSA11.jpg,MS,2,num_8,16,num_8,1.43343012175,,,2017_Jun_19_1618,60.0106439852,FEMA4ImagesEEG,001,100716,
AFNE22.JPG,AFSA24.JPG,AFSA22.JPG,AFNE25.JPG,AFNE24.JPG,AFSA25.JPG,,,,,,,,,,,,,0,5,5,6,,,,,,,,,,,AMSA02.jpg,AMSA16.jpg,AMNE01.jpg,AMNE05.jpg,AMNE01.jpg,MN,1,num_2,16,num_2,2.43334223924,,,2017_Jun_19_1618,60.0106439852,FEMA4ImagesEEG,001,100716,
AFNE23.JPG,AFNE24.JPG,AFNE22.JPG,AFSA24.JPG,AFSA22.JPG,AFSA23.JPG,,,,,,,,,,,,,0,6,6,8,,,,,,,,,,,AMNE19.jpg,AMNE03.jpg,AMSA06.jpg,AMSA03.jpg,AMSA06.jpg,MS,2,num_2,32,num_6,1.16670478112,,,2017_Jun_19_1618,60.0106439852,FEMA4ImagesEEG,001,100716,
AMNE23.JPG,AMNE24.JPG,AMNE22.JPG,AMSA24.JPG,AMSA22.JPG,AMSA23.JPG,,,,,,,,,,,,,0,7,7,9,,,,,,,,,,,AMSA02.jpg,AMSA15.jpg,AMNE12.jpg,AMNE20.jpg,AMNE20.jpg,MN,1,num_4,32,num_6,2.55001493043,,,2017_Jun_19_1618,60.0106439852,FEMA4ImagesEEG,001,100716,
AMSA25.JPG,AMNE24.JPG,AMSA24.JPG,AMNE26.JPG,AMSA21.JPG,AMNE25.JPG,,,,,,,,,,,,,0,8,8,3,,,,,,,,,,,AMSA20.jpg,AMNE06.jpg,AMSA13.jpg,AMNE18.jpg,AMNE18.jpg,MN,1,num_4,16,num_4,0.500161171309,,,2017_Jun_19_1618,60.0106439852,FEMA4ImagesEEG,001,100716,
AMNE22.JPG,AMSA24.JPG,AMSA22.JPG,AMNE25.JPG,AMNE24.JPG,AMSA25.JPG,,,,,,,,,,,,,0,9,9,7,,,,,,,,,,,AMSA08.jpg,AMNE13.jpg,AMSA11.jpg,AMNE08.jpg,AMSA08.jpg,MS,2,num_8,32,num_2,1.48344906128,,,2017_Jun_19_1618,60.0106439852,FEMA4ImagesEEG,001,100716,
AFNE23.JPG,AFNE24.JPG,AFNE22.JPG,AFSA24.JPG,AFSA22.JPG,AFSA23.JPG,,,,,,,,,,,,,,,,,0,0,0,8,,,,,,,AFSA09.jpg,AFNE17.jpg,AFSA04.jpg,AFNE12.jpg,AFNE12.jpg,FN,3,num_4,16,num_4,2.79971127072,,,2017_Jun_19_1618,60.0106439852,FEMA4ImagesEEG,001,100716,
AMSA25.JPG,AMNE24.JPG,AMSA24.JPG,AMNE26.JPG,AMSA21.JPG,AMNE25.JPG,,,,,,,,,,,,,,,,,0,1,1,3,,,,,,,AFSA14.jpg,AFNE14.jpg,AFSA06.jpg,AFNE12.jpg,AFSA06.jpg,FS,4,num_2,16,num_2,1.13342713879,,,2017_Jun_19_1618,60.0106439852,FEMA4ImagesEEG,001,100716,
AFSA21.JPG,AFNE23.JPG,AFNE21.JPG,AFSA25.JPG,AFNE25.JPG,AFSA23.JPG,,,,,,,,,,,,,,,,,0,2,2,4,,,,,,,AFNE16.jpg,AFSA07.jpg,AFSA04.jpg,AFNE08.jpg,AFNE08.jpg,FN,3,num_4,16,num_4,0.750150667154,,,2017_Jun_19_1618,60.0106439852,FEMA4ImagesEEG,001,100716,
AMNE22.JPG,AMSA24.JPG,AMSA22.JPG,AMNE25.JPG,AMNE24.JPG,AMSA25.JPG,,,,,,,,,,,,,,,,,0,3,3,7,,,,,,,AFSA17.jpg,AFNE19.jpg,AFSA18.jpg,AFNE07.jpg,AFSA18.jpg,FS,4,num_2,16,num_2,1.46670551889,,,2017_Jun_19_1618,60.0106439852,FEMA4ImagesEEG,001,100716,
AFNE22.JPG,AFSA24.JPG,AFSA22.JPG,AFNE25.JPG,AFNE24.JPG,AFSA25.JPG,,,,,,,,,,,,,,,,,0,4,4,6,,,,,,,AFNE03.jpg,AFNE14.jpg,AFSA10.jpg,AFSA12.jpg,AFNE14.jpg,FN,3,num_6,32,num_2,1.6333907349,,,2017_Jun_19_1618,60.0106439852,FEMA4ImagesEEG,001,100716,
AMSA21.JPG,AMNE23.JPG,AMNE21.JPG,AMSA25.JPG,AMNE25.JPG,AMSA23.JPG,,,,,,,,,,,,,,,,,0,5,5,5,,,,,,,AFSA09.jpg,AFNE08.jpg,AFNE10.jpg,AFSA07.jpg,AFSA07.jpg,FS,4,num_4,32,num_2,1.35008222156,,,2017_Jun_19_1618,60.0106439852,FEMA4ImagesEEG,001,100716,
AMNE23.JPG,AMNE24.JPG,AMNE22.JPG,AMSA24.JPG,AMSA22.JPG,AMSA23.JPG,,,,,,,,,,,,,,,,,0,6,6,9,,,,,,,AFSA05.jpg,AFSA04.jpg,AFNE17.jpg,AFNE08.jpg,AFSA04.jpg,FS,4,num_6,32,num_8,1.73339108774,,,2017_Jun_19_1618,60.0106439852,FEMA4ImagesEEG,001,100716,
AFSA21.JPG,AFNE22.JPG,AFNE21.JPG,AFSA23.JPG,AFSA22.JPG,AFNE23.JPG,,,,,,,,,,,,,,,,,0,7,7,0,,,,,,,AFNE20.jpg,AFNE15.jpg,AFSA20.jpg,AFSA18.jpg,AFSA18.jpg,FS,4,num_4,16,num_4,0.750143610872,,,2017_Jun_19_1618,60.0106439852,FEMA4ImagesEEG,001,100716,
AMSA21.JPG,AMNE22.JPG,AMNE21.JPG,AMSA23.JPG,AMSA22.JPG,AMNE23.JPG,,,,,,,,,,,,,,,,,0,8,8,1,,,,,,,AFSA11.jpg,AFSA09.jpg,AFNE03.jpg,AFNE06.jpg,AFSA11.jpg,FS,4,num_8,32,num_6,1.81673257321,,,2017_Jun_19_1618,60.0106439852,FEMA4ImagesEEG,001,100716,
AFSA25.JPG,AFNE24.JPG,AFSA24.JPG,AFNE21.JPG,AFSA21.JPG,AFNE25.JPG,,,,,,,,,,,,,,,,,0,9,9,2,,,,,,,AFNE18.jpg,AFSA10.jpg,AFSA06.jpg,AFNE05.jpg,AFNE18.jpg,FN,3,num_8,32,num_4,1.29975441005,,,2017_Jun_19_1618,60.0106439852,FEMA4ImagesEEG,001,100716,
AFSA25.JPG,AFNE24.JPG,AFSA24.JPG,AFNE21.JPG,AFSA21.JPG,AFNE25.JPG,,,,,,,,,,,,,,,,,,,,,0,0,0,2,,,AMNE16.jpg,AMSA10.jpg,AMNE18.jpg,AMSA11.jpg,AMSA10.jpg,MS,2,num_6,32,num_2,0.850164811825,,,2017_Jun_19_1618,60.0106439852,FEMA4ImagesEEG,001,100716,
AFNE23.JPG,AFNE24.JPG,AFNE22.JPG,AFSA24.JPG,AFSA22.JPG,AFSA23.JPG,,,,,,,,,,,,,,,,,,,,,0,1,1,8,,,AMNE16.jpg,AMSA11.jpg,AMNE17.jpg,AMSA09.jpg,AMNE17.jpg,MN,1,num_2,16,num_2,1.55006849393,,,2017_Jun_19_1618,60.0106439852,FEMA4ImagesEEG,001,100716,
AMSA21.JPG,AMNE23.JPG,AMNE21.JPG,AMSA25.JPG,AMNE25.JPG,AMSA23.JPG,,,,,,,,,,,,,,,,,,,,,0,2,2,5,,,AMSA08.jpg,AMNE01.jpg,AMNE03.jpg,AMSA17.jpg,AMSA17.jpg,MS,2,num_4,32,num_6,1.10017002386,,,2017_Jun_19_1618,60.0106439852,FEMA4ImagesEEG,001,100716,
AMNE23.JPG,AMNE24.JPG,AMNE22.JPG,AMSA24.JPG,AMSA22.JPG,AMSA23.JPG,,,,,,,,,,,,,,,,,,,,,0,3,3,9,,,AMSA14.jpg,AMSA10.jpg,AMNE10.jpg,AMNE06.jpg,AMNE06.jpg,MN,1,num_4,16,num_4,1.28375851037,,,2017_Jun_19_1618,60.0106439852,FEMA4ImagesEEG,001,100716,
AFNE22.JPG,AFSA24.JPG,AFSA22.JPG,AFNE25.JPG,AFNE24.JPG,AFSA25.JPG,,,,,,,,,,,,,,,,,,,,,0,4,4,6,,,AMSA20.jpg,AMNE20.jpg,AMNE19.jpg,AMSA19.jpg,AMSA19.jpg,MS,2,num_4,16,num_4,2.16669740411,,,2017_Jun_19_1618,60.0106439852,FEMA4ImagesEEG,001,100716,
AFSA21.JPG,AFNE22.JPG,AFNE21.JPG,AFSA23.JPG,AFSA22.JPG,AFNE23.JPG,,,,,,,,,,,,,,,,,,,,,0,5,5,0,,,AMNE16.jpg,AMNE05.jpg,AMSA14.jpg,AMSA03.jpg,AMSA03.jpg,MS,2,num_4,16,num_4,1.20008089044,,,2017_Jun_19_1618,60.0106439852,FEMA4ImagesEEG,001,100716,
AMNE22.JPG,AMSA24.JPG,AMSA22.JPG,AMNE25.JPG,AMNE24.JPG,AMSA25.JPG,,,,,,,,,,,,,,,,,,,,,0,6,6,7,,,AMNE01.jpg,AMNE18.jpg,AMSA09.jpg,AMSA02.jpg,AMNE18.jpg,MN,1,num_6,16,num_6,1.06671918242,,,2017_Jun_19_1618,60.0106439852,FEMA4ImagesEEG,001,100716,
AFSA21.JPG,AFNE23.JPG,AFNE21.JPG,AFSA25.JPG,AFNE25.JPG,AFSA23.JPG,,,,,,,,,,,,,,,,,,,,,0,7,7,4,,,AMNE07.jpg,AMNE08.jpg,AMSA10.jpg,AMSA19.jpg,AMNE08.jpg,MN,1,num_6,32,num_2,0.983304247609,,,2017_Jun_19_1618,60.0106439852,FEMA4ImagesEEG,001,100716,
AMSA25.JPG,AMNE24.JPG,AMSA24.JPG,AMNE26.JPG,AMSA21.JPG,AMNE25.JPG,,,,,,,,,,,,,,,,,,,,,0,8,8,3,,,AMNE13.jpg,AMSA01.jpg,AMNE09.jpg,AMSA13.jpg,AMSA01.jpg,MS,2,num_6,16,num_6,0.750120517681,,,2017_Jun_19_1618,60.0106439852,FEMA4ImagesEEG,001,100716,
AMSA21.JPG,AMNE22.JPG,AMNE21.JPG,AMSA23.JPG,AMSA22.JPG,AMNE23.JPG,,,,,,,,,,,,,,,,,,,,,0,9,9,1,,,AMNE11.jpg,AMSA03.jpg,AMNE03.jpg,AMSA19.jpg,AMSA03.jpg,MS,2,num_6,32,num_4,1.55005117389,,,2017_Jun_19_1618,60.0106439852,FEMA4ImagesEEG,001,100716,
,,,,,,,,,,,,,,,,,,,,,,,,,,,,,,,,,,,,,,,,,,,space,16.265205358,2017_Jun_19_1618,60.0106439852,FEMA4ImagesEEG,001,100716,
AFNE01.JPG,AFNE01.JPG,AFNE01.JPG,AFNE01.JPG,AFNE01.JPG,AFNE01.JPG,0,0,0,1,,,,,,,,,,,,,,,,,,,,,,,AFSA07.jpg,AFNE13.jpg,AFNE11.jpg,AFSA04.jpg,AFSA07.jpg,FS,4,num_8,16,num_8,1.40038918471,,,2017_Jun_19_1618,60.0106439852,FEMA4ImagesEEG,001,100716,
AFNE01.JPG,AFNE01.JPG,AFNE01.JPG,AFNE01.JPG,AFNE01.JPG,AFNE01.JPG,0,1,1,3,,,,,,,,,,,,,,,,,,,,,,,AFNE15.jpg,AFSA11.jpg,AFNE18.jpg,AFSA02.jpg,AFNE18.jpg,FN,3,num_2,16,num_2,1.26671539759,,,2017_Jun_19_1618,60.0106439852,FEMA4ImagesEEG,001,100716,
AFNE01.JPG,AFNE01.JPG,AFNE01.JPG,AFNE01.JPG,AFNE01.JPG,AFNE01.JPG,0,2,2,5,,,,,,,,,,,,,,,,,,,,,,,AFNE15.jpg,AFSA04.jpg,AFSA07.jpg,AFNE04.jpg,AFSA07.jpg,FS,4,num_2,32,num_4,0.749932885403,,,2017_Jun_19_1618,60.0106439852,FEMA4ImagesEEG,001,100716,
AFNE01.JPG,AFNE01.JPG,AFNE01.JPG,AFNE01.JPG,AFNE01.JPG,AFNE01.JPG,0,3,3,9,,,,,,,,,,,,,,,,,,,,,,,AFSA20.jpg,AFNE16.jpg,AFSA10.jpg,AFNE15.jpg,AFNE15.jpg,FN,3,num_4,16,num_4,0.766783233848,,,2017_Jun_19_1618,60.0106439852,FEMA4ImagesEEG,001,100716,
AFNE01.JPG,AFNE01.JPG,AFNE01.JPG,AFNE01.JPG,AFNE01.JPG,AFNE01.JPG,0,4,4,7,,,,,,,,,,,,,,,,,,,,,,,AFSA15.jpg,AFNE09.jpg,AFSA05.jpg,AFNE07.jpg,AFNE09.jpg,FN,3,num_6,32,num_4,0.983498936286,,,2017_Jun_19_1618,60.0106439852,FEMA4ImagesEEG,001,100716,
AFNE01.JPG,AFNE01.JPG,AFNE01.JPG,AFNE01.JPG,AFNE01.JPG,AFNE01.JPG,0,5,5,0,,,,,,,,,,,,,,,,,,,,,,,AFSA14.jpg,AFNE01.jpg,AFSA17.jpg,AFNE19.jpg,AFNE01.jpg,FN,3,num_6,32,num_2,0.86662321724,,,2017_Jun_19_1618,60.0106439852,FEMA4ImagesEEG,001,100716,
AFNE01.JPG,AFNE01.JPG,AFNE01.JPG,AFNE01.JPG,AFNE01.JPG,AFNE01.JPG,0,6,6,6,,,,,,,,,,,,,,,,,,,,,,,AFSA13.jpg,AFNE11.jpg,AFSA18.jpg,AFNE04.jpg,AFNE11.jpg,FN,3,num_6,32,num_2,1.46671097144,,,2017_Jun_19_1618,60.0106439852,FEMA4ImagesEEG,001,100716,
AFNE01.JPG,AFNE01.JPG,AFNE01.JPG,AFNE01.JPG,AFNE01.JPG,AFNE01.JPG,0,7,7,8,,,,,,,,,,,,,,,,,,,,,,,AFSA13.jpg,AFNE04.jpg,AFNE17.jpg,AFSA10.jpg,AFSA10.jpg,FS,4,num_4,32,num_6,2.30003505677,,,2017_Jun_19_1618,60.0106439852,FEMA4ImagesEEG,001,100716,
AFNE01.JPG,AFNE01.JPG,AFNE01.JPG,AFNE01.JPG,AFNE01.JPG,AFNE01.JPG,0,8,8,2,,,,,,,,,,,,,,,,,,,,,,,AFSA12.jpg,AFNE04.jpg,AFNE05.jpg,AFSA18.jpg,AFNE05.jpg,FN,3,num_2,32,num_8,1.39975380071,,,2017_Jun_19_1618,60.0106439852,FEMA4ImagesEEG,001,100716,
AFNE01.JPG,AFNE01.JPG,AFNE01.JPG,AFNE01.JPG,AFNE01.JPG,AFNE01.JPG,0,9,9,4,,,,,,,,,,,,,,,,,,,,,,,AFSA04.jpg,AFSA06.jpg,AFNE20.jpg,AFNE05.jpg,AFSA06.jpg,FS,4,num_6,32,num_4,1.25010592409,,,2017_Jun_19_1618,60.0106439852,FEMA4ImagesEEG,001,100716,
AFNE01.JPG,AFNE01.JPG,AFNE01.JPG,AFNE01.JPG,AFNE01.JPG,AFNE01.JPG,1,0,10,0,,,,,,,,,,,,,,,,,,,,,,,AFSA20.jpg,AFNE13.jpg,AFSA17.jpg,AFNE17.jpg,AFSA20.jpg,FS,4,num_8,32,num_6,0.766768159112,,,2017_Jun_19_1618,60.0106439852,FEMA4ImagesEEG,001,100716,
AFNE01.JPG,AFNE01.JPG,AFNE01.JPG,AFNE01.JPG,AFNE01.JPG,AFNE01.JPG,1,1,11,7,,,,,,,,,,,,,,,,,,,,,,,AFSA07.jpg,AFNE08.jpg,AFNE16.jpg,AFSA18.jpg,AFSA18.jpg,FS,4,num_4,16,num_4,0.616731546819,,,2017_Jun_19_1618,60.0106439852,FEMA4ImagesEEG,001,100716,
AFNE01.JPG,AFNE01.JPG,AFNE01.JPG,AFNE01.JPG,AFNE01.JPG,AFNE01.JPG,1,2,12,9,,,,,,,,,,,,,,,,,,,,,,,AFSA07.jpg,AFNE08.jpg,AFSA04.jpg,AFNE06.jpg,AFSA04.jpg,FS,4,num_2,16,num_2,1.4833685559,,,2017_Jun_19_1618,60.0106439852,FEMA4ImagesEEG,001,100716,
AFNE01.JPG,AFNE01.JPG,AFNE01.JPG,AFNE01.JPG,AFNE01.JPG,AFNE01.JPG,1,3,13,1,,,,,,,,,,,,,,,,,,,,,,,AFNE17.jpg,AFNE04.jpg,AFSA18.jpg,AFSA02.jpg,AFNE04.jpg,FN,3,num_6,16,num_6,0.66680821951,,,2017_Jun_19_1618,60.0106439852,FEMA4ImagesEEG,001,100716,
AFNE01.JPG,AFNE01.JPG,AFNE01.JPG,AFNE01.JPG,AFNE01.JPG,AFNE01.JPG,1,4,14,3,,,,,,,,,,,,,,,,,,,,,,,AFSA12.jpg,AFNE13.jpg,AFNE11.jpg,AFSA06.jpg,AFNE11.jpg,FN,3,num_2,32,num_8,1.05013504717,,,2017_Jun_19_1618,60.0106439852,FEMA4ImagesEEG,001,100716,
AFNE01.JPG,AFNE01.JPG,AFNE01.JPG,AFNE01.JPG,AFNE01.JPG,AFNE01.JPG,1,5,15,4,,,,,,,,,,,,,,,,,,,,,,,AFSA11.jpg,AFNE20.jpg,AFNE01.jpg,AFSA13.jpg,AFNE01.jpg,FN,3,num_2,32,num_6,0.616792807938,,,2017_Jun_19_1618,60.0106439852,FEMA4ImagesEEG,001,100716,
AFNE01.JPG,AFNE01.JPG,AFNE01.JPG,AFNE01.JPG,AFNE01.JPG,AFNE01.JPG,1,6,16,8,,,,,,,,,,,,,,,,,,,,,,,AFNE03.jpg,AFSA16.jpg,AFSA08.jpg,AFNE12.jpg,AFSA08.jpg,FS,4,num_2,32,num_6,0.8501487748,,,2017_Jun_19_1618,60.0106439852,FEMA4ImagesEEG,001,100716,
AFNE01.JPG,AFNE01.JPG,AFNE01.JPG,AFNE01.JPG,AFNE01.JPG,AFNE01.JPG,1,7,17,5,,,,,,,,,,,,,,,,,,,,,,,AFSA09.jpg,AFNE19.jpg,AFNE03.jpg,AFSA04.jpg,AFSA04.jpg,FS,4,num_4,32,num_2,0.716776803136,,,2017_Jun_19_1618,60.0106439852,FEMA4ImagesEEG,001,100716,
AFNE01.JPG,AFNE01.JPG,AFNE01.JPG,AFNE01.JPG,AFNE01.JPG,AFNE01.JPG,1,8,18,6,,,,,,,,,,,,,,,,,,,,,,,AFNE17.jpg,AFNE02.jpg,AFSA05.jpg,AFSA17.jpg,AFNE17.jpg,FN,3,num_8,16,num_8,1.58341669873,,,2017_Jun_19_1618,60.0106439852,FEMA4ImagesEEG,001,100716,
AFNE01.JPG,AFNE01.JPG,AFNE01.JPG,AFNE01.JPG,AFNE01.JPG,AFNE01.JPG,1,9,19,2,,,,,,,,,,,,,,,,,,,,,,,AFSA07.jpg,AFNE15.jpg,AFNE04.jpg,AFSA18.jpg,AFSA18.jpg,FS,4,num_4,16,num_4,1.09971681947,,,2017_Jun_19_1618,60.0106439852,FEMA4ImagesEEG,001,100716,
AFNE01.JPG,AFNE01.JPG,AFNE01.JPG,AFNE01.JPG,AFNE01.JPG,AFNE01.JPG,2,0,20,8,,,,,,,,,,,,,,,,,,,,,,,AFNE11.jpg,AFNE15.jpg,AFSA08.jpg,AFSA05.jpg,AFSA05.jpg,FS,4,num_4,32,num_2,1.08333410847,,,2017_Jun_19_1618,60.0106439852,FEMA4ImagesEEG,001,100716,
AFNE01.JPG,AFNE01.JPG,AFNE01.JPG,AFNE01.JPG,AFNE01.JPG,AFNE01.JPG,2,1,21,7,,,,,,,,,,,,,,,,,,,,,,,AFSA03.jpg,AFNE08.jpg,AFSA09.jpg,AFNE03.jpg,AFNE08.jpg,FN,3,num_6,32,num_8,1.38356834417,,,2017_Jun_19_1618,60.0106439852,FEMA4ImagesEEG,001,100716,
AFNE01.JPG,AFNE01.JPG,AFNE01.JPG,AFNE01.JPG,AFNE01.JPG,AFNE01.JPG,2,2,22,4,,,,,,,,,,,,,,,,,,,,,,,AFSA01.jpg,AFNE03.jpg,AFSA06.jpg,AFNE13.jpg,AFNE13.jpg,FN,3,num_4,32,num_6,2.9833103416,,,2017_Jun_19_1618,60.0106439852,FEMA4ImagesEEG,001,100716,
AFNE01.JPG,AFNE01.JPG,AFNE01.JPG,AFNE01.JPG,AFNE01.JPG,AFNE01.JPG,2,3,23,9,,,,,,,,,,,,,,,,,,,,,,,AFNE03.jpg,AFSA07.jpg,AFSA15.jpg,AFNE12.jpg,AFNE12.jpg,FN,3,num_4,16,num_4,0.566780283116,,,2017_Jun_19_1618,60.0106439852,FEMA4ImagesEEG,001,100716,
AFNE01.JPG,AFNE01.JPG,AFNE01.JPG,AFNE01.JPG,AFNE01.JPG,AFNE01.JPG,2,4,24,1,,,,,,,,,,,,,,,,,,,,,,,AFNE09.jpg,AFNE15.jpg,AFSA11.jpg,AFSA10.jpg,AFNE09.jpg,FN,3,num_8,32,num_6,0.633475089213,,,2017_Jun_19_1618,60.0106439852,FEMA4ImagesEEG,001,100716,
AFNE01.JPG,AFNE01.JPG,AFNE01.JPG,AFNE01.JPG,AFNE01.JPG,AFNE01.JPG,2,5,25,6,,,,,,,,,,,,,,,,,,,,,,,AFNE17.jpg,AFNE19.jpg,AFSA19.jpg,AFSA02.jpg,AFNE17.jpg,FN,3,num_8,32,num_4,1.00010744762,,,2017_Jun_19_1618,60.0106439852,FEMA4ImagesEEG,001,100716,
AFNE01.JPG,AFNE01.JPG,AFNE01.JPG,AFNE01.JPG,AFNE01.JPG,AFNE01.JPG,2,6,26,2,,,,,,,,,,,,,,,,,,,,,,,AFSA18.jpg,AFNE06.jpg,AFSA10.jpg,AFNE13.jpg,AFSA10.jpg,FS,4,num_2,16,num_2,1.36672152369,,,2017_Jun_19_1618,60.0106439852,FEMA4ImagesEEG,001,100716,
AFNE01.JPG,AFNE01.JPG,AFNE01.JPG,AFNE01.JPG,AFNE01.JPG,AFNE01.JPG,2,7,27,5,,,,,,,,,,,,,,,,,,,,,,,AFNE01.jpg,AFSA08.jpg,AFNE09.jpg,AFSA13.jpg,AFSA08.jpg,FS,4,num_6,32,num_8,1.33340539271,,,2017_Jun_19_1618,60.0106439852,FEMA4ImagesEEG,001,100716,
AFNE01.JPG,AFNE01.JPG,AFNE01.JPG,AFNE01.JPG,AFNE01.JPG,AFNE01.JPG,2,8,28,0,,,,,,,,,,,,,,,,,,,,,,,AFNE20.jpg,AFNE02.jpg,AFSA15.jpg,AFSA17.jpg,AFNE02.jpg,FN,3,num_6,16,num_6,0.950123147806,,,2017_Jun_19_1618,60.0106439852,FEMA4ImagesEEG,001,100716,
AFNE01.JPG,AFNE01.JPG,AFNE01.JPG,AFNE01.JPG,AFNE01.JPG,AFNE01.JPG,2,9,29,3,,,,,,,,,,,,,,,,,,,,,,,AFSA20.jpg,AFNE10.jpg,AFSA01.jpg,AFNE18.jpg,AFSA20.jpg,FS,4,num_8,32,num_2,1.2666204588,,,2017_Jun_19_1618,60.0106439852,FEMA4ImagesEEG,001,100716,
AFNE01.JPG,AFNE01.JPG,AFNE01.JPG,AFNE01.JPG,AFNE01.JPG,AFNE01.JPG,3,0,30,2,,,,,,,,,,,,,,,,,,,,,,,AFNE18.jpg,AFSA10.jpg,AFNE16.jpg,AFSA07.jpg,AFSA07.jpg,FS,4,num_4,32,num_8,1.50013936125,,,2017_Jun_19_1618,60.0106439852,FEMA4ImagesEEG,001,100716,
AFNE01.JPG,AFNE01.JPG,AFNE01.JPG,AFNE01.JPG,AFNE01.JPG,AFNE01.JPG,3,1,31,3,,,,,,,,,,,,,,,,,,,,,,,AFSA01.jpg,AFNE12.jpg,AFNE10.jpg,AFSA06.jpg,AFSA01.jpg,FS,4,num_8,16,num_8,1.46681392868,,,2017_Jun_19_1618,60.0106439852,FEMA4ImagesEEG,001,100716,
AFNE01.JPG,AFNE01.JPG,AFNE01.JPG,AFNE01.JPG,AFNE01.JPG,AFNE01.JPG,3,2,32,7,,,,,,,,,,,,,,,,,,,,,,,AFSA06.jpg,AFNE17.jpg,AFSA10.jpg,AFNE06.jpg,AFNE06.jpg,FN,3,num_4,16,num_4,1.25009277381,,,2017_Jun_19_1618,60.0106439852,FEMA4ImagesEEG,001,100716,
AFNE01.JPG,AFNE01.JPG,AFNE01.JPG,AFNE01.JPG,AFNE01.JPG,AFNE01.JPG,3,3,33,6,,,,,,,,,,,,,,,,,,,,,,,AFSA17.jpg,AFNE08.jpg,AFNE20.jpg,AFSA12.jpg,AFSA17.jpg,FS,4,num_8,16,num_8,0.966747054481,,,2017_Jun_19_1618,60.0106439852,FEMA4ImagesEEG,001,100716,
AFNE01.JPG,AFNE01.JPG,AFNE01.JPG,AFNE01.JPG,AFNE01.JPG,AFNE01.JPG,3,4,34,4,,,,,,,,,,,,,,,,,,,,,,,AFNE03.jpg,AFSA18.jpg,AFNE07.jpg,AFSA05.jpg,AFSA05.jpg,FS,4,num_4,32,num_8,1.03344955854,,,2017_Jun_19_1618,60.0106439852,FEMA4ImagesEEG,001,100716,
AFNE01.JPG,AFNE01.JPG,AFNE01.JPG,AFNE01.JPG,AFNE01.JPG,AFNE01.JPG,3,5,35,9,,,,,,,,,,,,,,,,,,,,,,,AFSA20.jpg,AFNE17.jpg,AFNE14.jpg,AFSA02.jpg,AFSA20.jpg,FS,4,num_8,32,num_6,1.11679938319,,,2017_Jun_19_1618,60.0106439852,FEMA4ImagesEEG,001,100716,
AFNE01.JPG,AFNE01.JPG,AFNE01.JPG,AFNE01.JPG,AFNE01.JPG,AFNE01.JPG,3,6,36,1,,,,,,,,,,,,,,,,,,,,,,,AFSA04.jpg,AFNE01.jpg,AFNE14.jpg,AFSA07.jpg,AFNE01.jpg,FN,3,num_6,32,num_4,0.983348830487,,,2017_Jun_19_1618,60.0106439852,FEMA4ImagesEEG,001,100716,
AFNE01.JPG,AFNE01.JPG,AFNE01.JPG,AFNE01.JPG,AFNE01.JPG,AFNE01.JPG,3,7,37,0,,,,,,,,,,,,,,,,,,,,,,,AFSA08.jpg,AFNE15.jpg,AFNE18.jpg,AFSA16.jpg,AFSA16.jpg,FS,4,num_4,32,num_8,1.00009718398,,,2017_Jun_19_1618,60.0106439852,FEMA4ImagesEEG,001,100716,
AFNE01.JPG,AFNE01.JPG,AFNE01.JPG,AFNE01.JPG,AFNE01.JPG,AFNE01.JPG,3,8,38,5,,,,,,,,,,,,,,,,,,,,,,,AFNE16.jpg,AFNE19.jpg,AFSA07.jpg,AFSA18.jpg,AFNE16.jpg,FN,3,num_8,32,num_6,1.0000426583,,,2017_Jun_19_1618,60.0106439852,FEMA4ImagesEEG,001,100716,
AFNE01.JPG,AFNE01.JPG,AFNE01.JPG,AFNE01.JPG,AFNE01.JPG,AFNE01.JPG,3,9,39,8,,,,,,,,,,,,,,,,,,,,,,,AFNE13.jpg,AFSA16.jpg,AFSA08.jpg,AFNE01.jpg,AFNE13.jpg,FN,3,num_8,32,num_4,0.700139425229,,,2017_Jun_19_1618,60.0106439852,FEMA4ImagesEEG,001,100716,
AFNE01.JPG,AFNE01.JPG,AFNE01.JPG,AFNE01.JPG,AFNE01.JPG,AFNE01.JPG,4,0,40,0,,,,,,,,,,,,,,,,,,,,,,,AFSA11.jpg,AFSA08.jpg,AFNE19.jpg,AFNE10.jpg,AFNE19.jpg,FN,3,num_2,16,num_2,1.10006867023,,,2017_Jun_19_1618,60.0106439852,FEMA4ImagesEEG,001,100716,
AFNE01.JPG,AFNE01.JPG,AFNE01.JPG,AFNE01.JPG,AFNE01.JPG,AFNE01.JPG,4,1,41,4,,,,,,,,,,,,,,,,,,,,,,,AFSA16.jpg,AFNE02.jpg,AFSA08.jpg,AFNE11.jpg,AFNE02.jpg,FN,3,num_6,32,num_2,1.40010821738,,,2017_Jun_19_1618,60.0106439852,FEMA4ImagesEEG,001,100716,
AFNE01.JPG,AFNE01.JPG,AFNE01.JPG,AFNE01.JPG,AFNE01.JPG,AFNE01.JPG,4,2,42,7,,,,,,,,,,,,,,,,,,,,,,,AFNE05.jpg,AFNE09.jpg,AFSA17.jpg,AFSA07.jpg,AFNE05.jpg,FN,3,num_8,32,num_6,0.483486908604,,,2017_Jun_19_1618,60.0106439852,FEMA4ImagesEEG,001,100716,
AFNE01.JPG,AFNE01.JPG,AFNE01.JPG,AFNE01.JPG,AFNE01.JPG,AFNE01.JPG,4,3,43,6,,,,,,,,,,,,,,,,,,,,,,,AFNE11.jpg,AFSA03.jpg,AFSA06.jpg,AFNE02.jpg,AFSA03.jpg,FS,4,num_6,16,num_6,0.667099450715,,,2017_Jun_19_1618,60.0106439852,FEMA4ImagesEEG,001,100716,
AFNE01.JPG,AFNE01.JPG,AFNE01.JPG,AFNE01.JPG,AFNE01.JPG,AFNE01.JPG,4,4,44,5,,,,,,,,,,,,,,,,,,,,,,,AFSA01.jpg,AFNE08.jpg,AFSA17.jpg,AFNE13.jpg,AFSA01.jpg,FS,4,num_8,32,num_4,1.30014057993,,,2017_Jun_19_1618,60.0106439852,FEMA4ImagesEEG,001,100716,
AFNE01.JPG,AFNE01.JPG,AFNE01.JPG,AFNE01.JPG,AFNE01.JPG,AFNE01.JPG,4,5,45,9,,,,,,,,,,,,,,,,,,,,,,,AFSA03.jpg,AFSA11.jpg,AFNE04.jpg,AFNE10.jpg,AFSA11.jpg,FS,4,num_6,16,num_6,1.06676601025,,,2017_Jun_19_1618,60.0106439852,FEMA4ImagesEEG,001,100716,
AFNE01.JPG,AFNE01.JPG,AFNE01.JPG,AFNE01.JPG,AFNE01.JPG,AFNE01.JPG,4,6,46,3,,,,,,,,,,,,,,,,,,,,,,,AFNE14.jpg,AFSA17.jpg,AFSA08.jpg,AFNE19.jpg,AFNE14.jpg,FN,3,num_8,16,num_8,0.966726848041,,,2017_Jun_19_1618,60.0106439852,FEMA4ImagesEEG,001,100716,
AFNE01.JPG,AFNE01.JPG,AFNE01.JPG,AFNE01.JPG,AFNE01.JPG,AFNE01.JPG,4,7,47,8,,,,,,,,,,,,,,,,,,,,,,,AFSA20.jpg,AFNE04.jpg,AFSA10.jpg,AFNE20.jpg,AFSA10.jpg,FS,4,num_2,32,num_6,0.88347420725,,,2017_Jun_19_1618,60.0106439852,FEMA4ImagesEEG,001,100716,
AFNE01.JPG,AFNE01.JPG,AFNE01.JPG,AFNE01.JPG,AFNE01.JPG,AFNE01.JPG,4,8,48,2,,,,,,,,,,,,,,,,,,,,,,,AFSA10.jpg,AFNE15.jpg,AFNE03.jpg,AFSA01.jpg,AFSA01.jpg,FS,4,num_4,32,num_2,0.850096815033,,,2017_Jun_19_1618,60.0106439852,FEMA4ImagesEEG,001,100716,
AFNE01.JPG,AFNE01.JPG,AFNE01.JPG,AFNE01.JPG,AFNE01.JPG,AFNE01.JPG,4,9,49,1,,,,,,,,,,,,,,,,,,,,,,,AFNE17.jpg,AFSA14.jpg,AFNE14.jpg,AFSA17.jpg,AFNE14.jpg,FN,3,num_2,32,num_8,1.14992082561,,,2017_Jun_19_1618,60.0106439852,FEMA4ImagesEEG,001,100716,
AFNE01.JPG,AFNE01.JPG,AFNE01.JPG,AFNE01.JPG,AFNE01.JPG,AFNE01.JPG,5,0,50,1,,,,,,,,,,,,,,,,,,,,,,,AFSA16.jpg,AFNE15.jpg,AFNE11.jpg,AFSA07.jpg,AFNE11.jpg,FN,3,num_2,32,num_4,1.83342030703,,,2017_Jun_19_1618,60.0106439852,FEMA4ImagesEEG,001,100716,
AFNE01.JPG,AFNE01.JPG,AFNE01.JPG,AFNE01.JPG,AFNE01.JPG,AFNE01.JPG,5,1,51,8,,,,,,,,,,,,,,,,,,,,,,,AFSA14.jpg,AFNE06.jpg,AFSA10.jpg,AFNE11.jpg,AFSA10.jpg,FS,4,num_2,32,num_8,1.38309525407,,,2017_Jun_19_1618,60.0106439852,FEMA4ImagesEEG,001,100716,
AFNE01.JPG,AFNE01.JPG,AFNE01.JPG,AFNE01.JPG,AFNE01.JPG,AFNE01.JPG,5,2,52,4,,,,,,,,,,,,,,,,,,,,,,,AFSA13.jpg,AFSA15.jpg,AFNE13.jpg,AFNE07.jpg,AFNE13.jpg,FN,3,num_2,16,num_2,1.1334210448,,,2017_Jun_19_1618,60.0106439852,FEMA4ImagesEEG,001,100716,
AFNE01.JPG,AFNE01.JPG,AFNE01.JPG,AFNE01.JPG,AFNE01.JPG,AFNE01.JPG,5,3,53,5,,,,,,,,,,,,,,,,,,,,,,,AFSA20.jpg,AFSA01.jpg,AFNE03.jpg,AFNE16.jpg,AFNE16.jpg,FN,3,num_4,16,num_4,0.783353256527,,,2017_Jun_19_1618,60.0106439852,FEMA4ImagesEEG,001,100716,
AFNE01.JPG,AFNE01.JPG,AFNE01.JPG,AFNE01.JPG,AFNE01.JPG,AFNE01.JPG,5,4,54,2,,,,,,,,,,,,,,,,,,,,,,,AFNE05.jpg,AFSA10.jpg,AFSA13.jpg,AFNE11.jpg,AFNE05.jpg,FN,3,num_8,16,num_8,0.983475522371,,,2017_Jun_19_1618,60.0106439852,FEMA4ImagesEEG,001,100716,
AFNE01.JPG,AFNE01.JPG,AFNE01.JPG,AFNE01.JPG,AFNE01.JPG,AFNE01.JPG,5,5,55,6,,,,,,,,,,,,,,,,,,,,,,,AFSA20.jpg,AFNE09.jpg,AFNE12.jpg,AFSA18.jpg,AFNE09.jpg,FN,3,num_6,16,num_6,0.633467391599,,,2017_Jun_19_1618,60.0106439852,FEMA4ImagesEEG,001,100716,
AFNE01.JPG,AFNE01.JPG,AFNE01.JPG,AFNE01.JPG,AFNE01.JPG,AFNE01.JPG,5,6,56,9,,,,,,,,,,,,,,,,,,,,,,,AFNE15.jpg,AFSA05.jpg,AFSA19.jpg,AFNE17.jpg,AFSA19.jpg,FS,4,num_2,16,num_2,0.900102925138,,,2017_Jun_19_1618,60.0106439852,FEMA4ImagesEEG,001,100716,
AFNE01.JPG,AFNE01.JPG,AFNE01.JPG,AFNE01.JPG,AFNE01.JPG,AFNE01.JPG,5,7,57,7,,,,,,,,,,,,,,,,,,,,,,,AFNE03.jpg,AFNE19.jpg,AFSA04.jpg,AFSA09.jpg,AFSA09.jpg,FS,4,num_4,16,num_4,0.616824561148,,,2017_Jun_19_1618,60.0106439852,FEMA4ImagesEEG,001,100716,
AFNE01.JPG,AFNE01.JPG,AFNE01.JPG,AFNE01.JPG,AFNE01.JPG,AFNE01.JPG,5,8,58,0,,,,,,,,,,,,,,,,,,,,,,,AFNE01.jpg,AFSA20.jpg,AFNE06.jpg,AFSA18.jpg,AFNE01.jpg,FN,3,num_8,16,num_8,1.38345448184,,,2017_Jun_19_1618,60.0106439852,FEMA4ImagesEEG,001,100716,
AFNE01.JPG,AFNE01.JPG,AFNE01.JPG,AFNE01.JPG,AFNE01.JPG,AFNE01.JPG,5,9,59,3,,,,,,,,,,,,,,,,,,,,,,,AFNE06.jpg,AFSA19.jpg,AFSA11.jpg,AFNE04.jpg,AFNE04.jpg,FN,3,num_4,32,num_8,1.03346399171,,,2017_Jun_19_1618,60.0106439852,FEMA4ImagesEEG,001,100716,
,,,,,,,,,,,,,,,,,,,,,,,,,,,,,,,,,,,,,,,,,,,space,14.2653291633,2017_Jun_19_1618,60.0106439852,FEMA4ImagesEEG,001,100716,
AFNE01.JPG,AFNE01.JPG,AFNE01.JPG,AFNE01.JPG,AFNE01.JPG,AFNE01.JPG,,,,,0,0,0,4,,,,,,,,,,,,,,,,,,,AMSA14.jpg,AMSA02.jpg,AMNE10.jpg,AMNE07.jpg,AMNE10.jpg,MN,1,num_2,16,num_2,0.883425134234,,,2017_Jun_19_1618,60.0106439852,FEMA4ImagesEEG,001,100716,
AFNE01.JPG,AFNE01.JPG,AFNE01.JPG,AFNE01.JPG,AFNE01.JPG,AFNE01.JPG,,,,,0,1,1,3,,,,,,,,,,,,,,,,,,,AMSA15.jpg,AMSA06.jpg,AMNE13.jpg,AMNE04.jpg,AMSA15.jpg,MS,2,num_8,32,num_4,0.666777749313,,,2017_Jun_19_1618,60.0106439852,FEMA4ImagesEEG,001,100716,
AFNE01.JPG,AFNE01.JPG,AFNE01.JPG,AFNE01.JPG,AFNE01.JPG,AFNE01.JPG,,,,,0,2,2,5,,,,,,,,,,,,,,,,,,,AMNE13.jpg,AMSA10.jpg,AMSA16.jpg,AMNE09.jpg,AMNE13.jpg,MN,1,num_8,16,num_8,1.00013759709,,,2017_Jun_19_1618,60.0106439852,FEMA4ImagesEEG,001,100716,
AFNE01.JPG,AFNE01.JPG,AFNE01.JPG,AFNE01.JPG,AFNE01.JPG,AFNE01.JPG,,,,,0,3,3,0,,,,,,,,,,,,,,,,,,,AMNE16.jpg,AMNE06.jpg,AMSA01.jpg,AMSA12.jpg,AMNE06.jpg,MN,1,num_6,16,num_6,0.850150057813,,,2017_Jun_19_1618,60.0106439852,FEMA4ImagesEEG,001,100716,
AFNE01.JPG,AFNE01.JPG,AFNE01.JPG,AFNE01.JPG,AFNE01.JPG,AFNE01.JPG,,,,,0,4,4,2,,,,,,,,,,,,,,,,,,,AMSA11.jpg,AMNE16.jpg,AMSA17.jpg,AMNE04.jpg,AMSA17.jpg,MS,2,num_2,16,num_2,1.26681707194,,,2017_Jun_19_1618,60.0106439852,FEMA4ImagesEEG,001,100716,
AFNE01.JPG,AFNE01.JPG,AFNE01.JPG,AFNE01.JPG,AFNE01.JPG,AFNE01.JPG,,,,,0,5,5,6,,,,,,,,,,,,,,,,,,,AMSA02.jpg,AMSA14.jpg,AMNE12.jpg,AMNE17.jpg,AMSA14.jpg,MS,2,num_6,16,num_6,0.633498503244,,,2017_Jun_19_1618,60.0106439852,FEMA4ImagesEEG,001,100716,
AFNE01.JPG,AFNE01.JPG,AFNE01.JPG,AFNE01.JPG,AFNE01.JPG,AFNE01.JPG,,,,,0,6,6,8,,,,,,,,,,,,,,,,,,,AMNE08.jpg,AMSA03.jpg,AMNE19.jpg,AMSA13.jpg,AMNE19.jpg,MN,1,num_2,32,num_4,0.850012139999,,,2017_Jun_19_1618,60.0106439852,FEMA4ImagesEEG,001,100716,
AFNE01.JPG,AFNE01.JPG,AFNE01.JPG,AFNE01.JPG,AFNE01.JPG,AFNE01.JPG,,,,,0,7,7,9,,,,,,,,,,,,,,,,,,,AMNE19.jpg,AMNE12.jpg,AMSA05.jpg,AMSA08.jpg,AMSA05.jpg,MS,2,num_2,32,num_8,1.21637219074,,,2017_Jun_19_1618,60.0106439852,FEMA4ImagesEEG,001,100716,
AFNE01.JPG,AFNE01.JPG,AFNE01.JPG,AFNE01.JPG,AFNE01.JPG,AFNE01.JPG,,,,,0,8,8,1,,,,,,,,,,,,,,,,,,,AMNE14.jpg,AMSA04.jpg,AMSA14.jpg,AMNE01.jpg,AMNE14.jpg,MN,1,num_8,16,num_8,0.93335330463,,,2017_Jun_19_1618,60.0106439852,FEMA4ImagesEEG,001,100716,
AFNE01.JPG,AFNE01.JPG,AFNE01.JPG,AFNE01.JPG,AFNE01.JPG,AFNE01.JPG,,,,,0,9,9,7,,,,,,,,,,,,,,,,,,,AMSA19.jpg,AMNE10.jpg,AMSA15.jpg,AMNE20.jpg,AMSA15.jpg,MS,2,num_2,16,num_2,0.81715338293,,,2017_Jun_19_1618,60.0106439852,FEMA4ImagesEEG,001,100716,
AFNE01.JPG,AFNE01.JPG,AFNE01.JPG,AFNE01.JPG,AFNE01.JPG,AFNE01.JPG,,,,,1,0,10,2,,,,,,,,,,,,,,,,,,,AMSA20.jpg,AMNE16.jpg,AMSA06.jpg,AMNE07.jpg,AMSA20.jpg,MS,2,num_8,32,num_4,1.53331661213,,,2017_Jun_19_1618,60.0106439852,FEMA4ImagesEEG,001,100716,
AFNE01.JPG,AFNE01.JPG,AFNE01.JPG,AFNE01.JPG,AFNE01.JPG,AFNE01.JPG,,,,,1,1,11,5,,,,,,,,,,,,,,,,,,,AMNE01.jpg,AMSA09.jpg,AMNE19.jpg,AMSA02.jpg,AMSA02.jpg,MS,2,num_4,32,num_8,1.28343552619,,,2017_Jun_19_1618,60.0106439852,FEMA4ImagesEEG,001,100716,
AFNE01.JPG,AFNE01.JPG,AFNE01.JPG,AFNE01.JPG,AFNE01.JPG,AFNE01.JPG,,,,,1,2,12,3,,,,,,,,,,,,,,,,,,,AMSA18.jpg,AMNE19.jpg,AMSA17.jpg,AMNE09.jpg,AMNE19.jpg,MN,1,num_6,32,num_2,1.05010585987,,,2017_Jun_19_1618,60.0106439852,FEMA4ImagesEEG,001,100716,
AFNE01.JPG,AFNE01.JPG,AFNE01.JPG,AFNE01.JPG,AFNE01.JPG,AFNE01.JPG,,,,,1,3,13,8,,,,,,,,,,,,,,,,,,,AMNE15.jpg,AMSA11.jpg,AMNE04.jpg,AMSA13.jpg,AMSA11.jpg,MS,2,num_6,32,num_2,0.916787772439,,,2017_Jun_19_1618,60.0106439852,FEMA4ImagesEEG,001,100716,
AFNE01.JPG,AFNE01.JPG,AFNE01.JPG,AFNE01.JPG,AFNE01.JPG,AFNE01.JPG,,,,,1,4,14,9,,,,,,,,,,,,,,,,,,,AMSA03.jpg,AMSA08.jpg,AMNE11.jpg,AMNE04.jpg,AMSA08.jpg,MS,2,num_6,16,num_6,0.883468113258,,,2017_Jun_19_1618,60.0106439852,FEMA4ImagesEEG,001,100716,
AFNE01.JPG,AFNE01.JPG,AFNE01.JPG,AFNE01.JPG,AFNE01.JPG,AFNE01.JPG,,,,,1,5,15,7,,,,,,,,,,,,,,,,,,,AMNE03.jpg,AMNE19.jpg,AMSA06.jpg,AMSA19.jpg,AMNE19.jpg,MN,1,num_6,16,num_6,0.983479050454,,,2017_Jun_19_1618,60.0106439852,FEMA4ImagesEEG,001,100716,
AFNE01.JPG,AFNE01.JPG,AFNE01.JPG,AFNE01.JPG,AFNE01.JPG,AFNE01.JPG,,,,,1,6,16,4,,,,,,,,,,,,,,,,,,,AMSA10.jpg,AMNE11.jpg,AMNE04.jpg,AMSA09.jpg,AMNE04.jpg,MN,1,num_2,16,num_2,0.750169911538,,,2017_Jun_19_1618,60.0106439852,FEMA4ImagesEEG,001,100716,
AFNE01.JPG,AFNE01.JPG,AFNE01.JPG,AFNE01.JPG,AFNE01.JPG,AFNE01.JPG,,,,,1,7,17,6,,,,,,,,,,,,,,,,,,,AMNE07.jpg,AMNE20.jpg,AMSA01.jpg,AMSA13.jpg,AMSA01.jpg,MS,2,num_2,16,num_2,0.916806695983,,,2017_Jun_19_1618,60.0106439852,FEMA4ImagesEEG,001,100716,
AFNE01.JPG,AFNE01.JPG,AFNE01.JPG,AFNE01.JPG,AFNE01.JPG,AFNE01.JPG,,,,,1,8,18,0,,,,,,,,,,,,,,,,,,,AMNE11.jpg,AMSA16.jpg,AMSA19.jpg,AMNE05.jpg,AMSA19.jpg,MS,2,num_2,32,num_8,1.65017629426,,,2017_Jun_19_1618,60.0106439852,FEMA4ImagesEEG,001,100716,
AFNE01.JPG,AFNE01.JPG,AFNE01.JPG,AFNE01.JPG,AFNE01.JPG,AFNE01.JPG,,,,,1,9,19,1,,,,,,,,,,,,,,,,,,,AMNE02.jpg,AMNE04.jpg,AMSA02.jpg,AMSA06.jpg,AMNE04.jpg,MN,1,num_6,32,num_2,3.69990271993,,,2017_Jun_19_1618,60.0106439852,FEMA4ImagesEEG,001,100716,
AFNE01.JPG,AFNE01.JPG,AFNE01.JPG,AFNE01.JPG,AFNE01.JPG,AFNE01.JPG,,,,,2,0,20,6,,,,,,,,,,,,,,,,,,,AMNE20.jpg,AMSA13.jpg,AMSA01.jpg,AMNE12.jpg,AMNE20.jpg,MN,1,num_8,32,num_4,0.616832258995,,,2017_Jun_19_1618,60.0106439852,FEMA4ImagesEEG,001,100716,
AFNE01.JPG,AFNE01.JPG,AFNE01.JPG,AFNE01.JPG,AFNE01.JPG,AFNE01.JPG,,,,,2,1,21,8,,,,,,,,,,,,,,,,,,,AMSA11.jpg,AMNE01.jpg,AMNE16.jpg,AMSA03.jpg,AMSA03.jpg,MS,2,num_4,16,num_4,0.950160353561,,,2017_Jun_19_1618,60.0106439852,FEMA4ImagesEEG,001,100716,
AFNE01.JPG,AFNE01.JPG,AFNE01.JPG,AFNE01.JPG,AFNE01.JPG,AFNE01.JPG,,,,,2,2,22,0,,,,,,,,,,,,,,,,,,,AMSA09.jpg,AMSA02.jpg,AMNE13.jpg,AMNE19.jpg,AMNE19.jpg,MN,1,num_4,16,num_4,1.98332990671,,,2017_Jun_19_1618,60.0106439852,FEMA4ImagesEEG,001,100716,
AFNE01.JPG,AFNE01.JPG,AFNE01.JPG,AFNE01.JPG,AFNE01.JPG,AFNE01.JPG,,,,,2,3,23,1,,,,,,,,,,,,,,,,,,,AMNE13.jpg,AMSA05.jpg,AMSA18.jpg,AMNE15.jpg,AMSA05.jpg,MS,2,num_6,32,num_8,1.35042861965,,,2017_Jun_19_1618,60.0106439852,FEMA4ImagesEEG,001,100716,
AFNE01.JPG,AFNE01.JPG,AFNE01.JPG,AFNE01.JPG,AFNE01.JPG,AFNE01.JPG,,,,,2,4,24,4,,,,,,,,,,,,,,,,,,,AMNE02.jpg,AMSA12.jpg,AMSA18.jpg,AMNE20.jpg,AMSA12.jpg,MS,2,num_6,32,num_2,1.65005280962,,,2017_Jun_19_1618,60.0106439852,FEMA4ImagesEEG,001,100716,
AFNE01.JPG,AFNE01.JPG,AFNE01.JPG,AFNE01.JPG,AFNE01.JPG,AFNE01.JPG,,,,,2,5,25,2,,,,,,,,,,,,,,,,,,,AMSA12.jpg,AMNE18.jpg,AMSA05.jpg,AMNE06.jpg,AMNE18.jpg,MN,1,num_6,16,num_6,1.26676254626,,,2017_Jun_19_1618,60.0106439852,FEMA4ImagesEEG,001,100716,
AFNE01.JPG,AFNE01.JPG,AFNE01.JPG,AFNE01.JPG,AFNE01.JPG,AFNE01.JPG,,,,,2,6,26,3,,,,,,,,,,,,,,,,,,,AMSA15.jpg,AMNE14.jpg,AMNE10.jpg,AMSA10.jpg,AMSA15.jpg,MS,2,num_8,32,num_2,0.916734850383,,,2017_Jun_19_1618,60.0106439852,FEMA4ImagesEEG,001,100716,
AFNE01.JPG,AFNE01.JPG,AFNE01.JPG,AFNE01.JPG,AFNE01.JPG,AFNE01.JPG,,,,,2,7,27,5,,,,,,,,,,,,,,,,,,,AMNE01.jpg,AMNE06.jpg,AMSA12.jpg,AMSA01.jpg,AMNE06.jpg,MN,1,num_6,16,num_6,0.533473774325,,,2017_Jun_19_1618,60.0106439852,FEMA4ImagesEEG,001,100716,
AFNE01.JPG,AFNE01.JPG,AFNE01.JPG,AFNE01.JPG,AFNE01.JPG,AFNE01.JPG,,,,,2,8,28,9,,,,,,,,,,,,,,,,,,,AMSA04.jpg,AMSA05.jpg,AMNE08.jpg,AMNE11.jpg,AMNE11.jpg,MN,1,num_4,32,num_6,1.1833944394,,,2017_Jun_19_1618,60.0106439852,FEMA4ImagesEEG,001,100716,
AFNE01.JPG,AFNE01.JPG,AFNE01.JPG,AFNE01.JPG,AFNE01.JPG,AFNE01.JPG,,,,,2,9,29,7,,,,,,,,,,,,,,,,,,,AMSA10.jpg,AMSA08.jpg,AMNE20.jpg,AMNE06.jpg,AMSA08.jpg,MS,2,num_6,16,num_6,0.666629888583,,,2017_Jun_19_1618,60.0106439852,FEMA4ImagesEEG,001,100716,
AFNE01.JPG,AFNE01.JPG,AFNE01.JPG,AFNE01.JPG,AFNE01.JPG,AFNE01.JPG,,,,,3,0,30,0,,,,,,,,,,,,,,,,,,,AMSA15.jpg,AMNE07.jpg,AMNE03.jpg,AMSA12.jpg,AMSA12.jpg,MS,2,num_4,32,num_8,0.883441491867,,,2017_Jun_19_1618,60.0106439852,FEMA4ImagesEEG,001,100716,
AFNE01.JPG,AFNE01.JPG,AFNE01.JPG,AFNE01.JPG,AFNE01.JPG,AFNE01.JPG,,,,,3,1,31,7,,,,,,,,,,,,,,,,,,,AMNE04.jpg,AMSA04.jpg,AMNE16.jpg,AMSA02.jpg,AMSA02.jpg,MS,2,num_4,16,num_4,0.883489602711,,,2017_Jun_19_1618,60.0106439852,FEMA4ImagesEEG,001,100716,
AFNE01.JPG,AFNE01.JPG,AFNE01.JPG,AFNE01.JPG,AFNE01.JPG,AFNE01.JPG,,,,,3,2,32,8,,,,,,,,,,,,,,,,,,,AMNE10.jpg,AMSA03.jpg,AMSA14.jpg,AMNE05.jpg,AMSA03.jpg,MS,2,num_6,16,num_6,0.566816205974,,,2017_Jun_19_1618,60.0106439852,FEMA4ImagesEEG,001,100716,
AFNE01.JPG,AFNE01.JPG,AFNE01.JPG,AFNE01.JPG,AFNE01.JPG,AFNE01.JPG,,,,,3,3,33,6,,,,,,,,,,,,,,,,,,,AMNE15.jpg,AMSA14.jpg,AMNE10.jpg,AMSA08.jpg,AMSA08.jpg,MS,2,num_4,32,num_2,1.16679843701,,,2017_Jun_19_1618,60.0106439852,FEMA4ImagesEEG,001,100716,
AFNE01.JPG,AFNE01.JPG,AFNE01.JPG,AFNE01.JPG,AFNE01.JPG,AFNE01.JPG,,,,,3,4,34,9,,,,,,,,,,,,,,,,,,,AMSA18.jpg,AMSA08.jpg,AMNE16.jpg,AMNE14.jpg,AMSA18.jpg,MS,2,num_8,32,num_2,0.683505896362,,,2017_Jun_19_1618,60.0106439852,FEMA4ImagesEEG,001,100716,
AFNE01.JPG,AFNE01.JPG,AFNE01.JPG,AFNE01.JPG,AFNE01.JPG,AFNE01.JPG,,,,,3,5,35,5,,,,,,,,,,,,,,,,,,,AMSA15.jpg,AMSA02.jpg,AMNE17.jpg,AMNE10.jpg,AMSA15.jpg,MS,2,num_8,32,num_6,0.866748305387,,,2017_Jun_19_1618,60.0106439852,FEMA4ImagesEEG,001,100716,
AFNE01.JPG,AFNE01.JPG,AFNE01.JPG,AFNE01.JPG,AFNE01.JPG,AFNE01.JPG,,,,,3,6,36,1,,,,,,,,,,,,,,,,,,,AMSA02.jpg,AMNE07.jpg,AMNE02.jpg,AMSA11.jpg,AMSA02.jpg,MS,2,num_8,32,num_2,1.20014984929,,,2017_Jun_19_1618,60.0106439852,FEMA4ImagesEEG,001,100716,
AFNE01.JPG,AFNE01.JPG,AFNE01.JPG,AFNE01.JPG,AFNE01.JPG,AFNE01.JPG,,,,,3,7,37,3,,,,,,,,,,,,,,,,,,,AMNE04.jpg,AMSA16.jpg,AMSA18.jpg,AMNE03.jpg,AMNE03.jpg,MN,1,num_4,32,num_6,0.866779417149,,,2017_Jun_19_1618,60.0106439852,FEMA4ImagesEEG,001,100716,
AFNE01.JPG,AFNE01.JPG,AFNE01.JPG,AFNE01.JPG,AFNE01.JPG,AFNE01.JPG,,,,,3,8,38,2,,,,,,,,,,,,,,,,,,,AMNE12.jpg,AMNE01.jpg,AMSA06.jpg,AMSA02.jpg,AMSA06.jpg,MS,2,num_2,32,num_6,0.933483524714,,,2017_Jun_19_1618,60.0106439852,FEMA4ImagesEEG,001,100716,
AFNE01.JPG,AFNE01.JPG,AFNE01.JPG,AFNE01.JPG,AFNE01.JPG,AFNE01.JPG,,,,,3,9,39,4,,,,,,,,,,,,,,,,,,,AMSA01.jpg,AMNE05.jpg,AMNE19.jpg,AMSA16.jpg,AMNE19.jpg,MN,1,num_2,32,num_8,0.800147155067,,,2017_Jun_19_1618,60.0106439852,FEMA4ImagesEEG,001,100716,
AFNE01.JPG,AFNE01.JPG,AFNE01.JPG,AFNE01.JPG,AFNE01.JPG,AFNE01.JPG,,,,,4,0,40,1,,,,,,,,,,,,,,,,,,,AMNE12.jpg,AMSA13.jpg,AMNE09.jpg,AMSA18.jpg,AMNE09.jpg,MN,1,num_2,16,num_2,0.766832627705,,,2017_Jun_19_1618,60.0106439852,FEMA4ImagesEEG,001,100716,
AFNE01.JPG,AFNE01.JPG,AFNE01.JPG,AFNE01.JPG,AFNE01.JPG,AFNE01.JPG,,,,,4,1,41,5,,,,,,,,,,,,,,,,,,,AMSA13.jpg,AMNE08.jpg,AMNE10.jpg,AMSA06.jpg,AMSA13.jpg,MS,2,num_8,16,num_8,0.700255532865,,,2017_Jun_19_1618,60.0106439852,FEMA4ImagesEEG,001,100716,
AFNE01.JPG,AFNE01.JPG,AFNE01.JPG,AFNE01.JPG,AFNE01.JPG,AFNE01.JPG,,,,,4,2,42,0,,,,,,,,,,,,,,,,,,,AMNE06.jpg,AMNE07.jpg,AMSA03.jpg,AMSA14.jpg,AMNE07.jpg,MN,1,num_6,32,num_8,0.883441171143,,,2017_Jun_19_1618,60.0106439852,FEMA4ImagesEEG,001,100716,
AFNE01.JPG,AFNE01.JPG,AFNE01.JPG,AFNE01.JPG,AFNE01.JPG,AFNE01.JPG,,,,,4,3,43,8,,,,,,,,,,,,,,,,,,,AMNE08.jpg,AMSA15.jpg,AMSA18.jpg,AMNE14.jpg,AMSA15.jpg,MS,2,num_6,16,num_6,0.516797907767,,,2017_Jun_19_1618,60.0106439852,FEMA4ImagesEEG,001,100716,
AFNE01.JPG,AFNE01.JPG,AFNE01.JPG,AFNE01.JPG,AFNE01.JPG,AFNE01.JPG,,,,,4,4,44,2,,,,,,,,,,,,,,,,,,,AMSA09.jpg,AMNE16.jpg,AMNE20.jpg,AMSA05.jpg,AMSA05.jpg,MS,2,num_4,16,num_4,0.633606271585,,,2017_Jun_19_1618,60.0106439852,FEMA4ImagesEEG,001,100716,
AFNE01.JPG,AFNE01.JPG,AFNE01.JPG,AFNE01.JPG,AFNE01.JPG,AFNE01.JPG,,,,,4,5,45,4,,,,,,,,,,,,,,,,,,,AMSA03.jpg,AMNE13.jpg,AMNE17.jpg,AMSA09.jpg,AMNE17.jpg,MN,1,num_2,32,num_8,1.18352850841,,,2017_Jun_19_1618,60.0106439852,FEMA4ImagesEEG,001,100716,
AFNE01.JPG,AFNE01.JPG,AFNE01.JPG,AFNE01.JPG,AFNE01.JPG,AFNE01.JPG,,,,,4,6,46,6,,,,,,,,,,,,,,,,,,,AMNE09.jpg,AMSA01.jpg,AMSA20.jpg,AMNE05.jpg,AMSA20.jpg,MS,2,num_2,16,num_2,0.766894209664,,,2017_Jun_19_1618,60.0106439852,FEMA4ImagesEEG,001,100716,
AFNE01.JPG,AFNE01.JPG,AFNE01.JPG,AFNE01.JPG,AFNE01.JPG,AFNE01.JPG,,,,,4,7,47,9,,,,,,,,,,,,,,,,,,,AMSA02.jpg,AMNE15.jpg,AMSA18.jpg,AMNE14.jpg,AMSA02.jpg,MS,2,num_8,32,num_2,0.950074716122,,,2017_Jun_19_1618,60.0106439852,FEMA4ImagesEEG,001,100716,
AFNE01.JPG,AFNE01.JPG,AFNE01.JPG,AFNE01.JPG,AFNE01.JPG,AFNE01.JPG,,,,,4,8,48,7,,,,,,,,,,,,,,,,,,,AMSA17.jpg,AMNE12.jpg,AMSA19.jpg,AMNE10.jpg,AMNE10.jpg,MN,1,num_4,16,num_4,0.683419617591,,,2017_Jun_19_1618,60.0106439852,FEMA4ImagesEEG,001,100716,
AFNE01.JPG,AFNE01.JPG,AFNE01.JPG,AFNE01.JPG,AFNE01.JPG,AFNE01.JPG,,,,,4,9,49,3,,,,,,,,,,,,,,,,,,,AMSA11.jpg,AMSA17.jpg,AMNE14.jpg,AMNE20.jpg,AMSA11.jpg,MS,2,num_8,32,num_4,1.35026055248,,,2017_Jun_19_1618,60.0106439852,FEMA4ImagesEEG,001,100716,
AFNE01.JPG,AFNE01.JPG,AFNE01.JPG,AFNE01.JPG,AFNE01.JPG,AFNE01.JPG,,,,,5,0,50,4,,,,,,,,,,,,,,,,,,,AMNE20.jpg,AMSA08.jpg,AMSA16.jpg,AMNE15.jpg,AMNE20.jpg,MN,1,num_8,16,num_8,2.36663332046,,,2017_Jun_19_1618,60.0106439852,FEMA4ImagesEEG,001,100716,
AFNE01.JPG,AFNE01.JPG,AFNE01.JPG,AFNE01.JPG,AFNE01.JPG,AFNE01.JPG,,,,,5,1,51,9,,,,,,,,,,,,,,,,,,,AMNE10.jpg,AMSA04.jpg,AMNE05.jpg,AMSA14.jpg,AMNE10.jpg,MN,1,num_8,16,num_8,1.06681636628,,,2017_Jun_19_1618,60.0106439852,FEMA4ImagesEEG,001,100716,
AFNE01.JPG,AFNE01.JPG,AFNE01.JPG,AFNE01.JPG,AFNE01.JPG,AFNE01.JPG,,,,,5,2,52,5,,,,,,,,,,,,,,,,,,,AMNE01.jpg,AMSA11.jpg,AMSA16.jpg,AMNE18.jpg,AMSA11.jpg,MS,2,num_6,16,num_6,1.0334662369,,,2017_Jun_19_1618,60.0106439852,FEMA4ImagesEEG,001,100716,
AFNE01.JPG,AFNE01.JPG,AFNE01.JPG,AFNE01.JPG,AFNE01.JPG,AFNE01.JPG,,,,,5,3,53,7,,,,,,,,,,,,,,,,,,,AMSA05.jpg,AMSA12.jpg,AMNE01.jpg,AMNE10.jpg,AMSA12.jpg,MS,2,num_6,32,num_8,1.88339145656,,,2017_Jun_19_1618,60.0106439852,FEMA4ImagesEEG,001,100716,
AFNE01.JPG,AFNE01.JPG,AFNE01.JPG,AFNE01.JPG,AFNE01.JPG,AFNE01.JPG,,,,,5,4,54,1,,,,,,,,,,,,,,,,,,,AMNE16.jpg,AMNE19.jpg,AMSA04.jpg,AMSA09.jpg,AMNE19.jpg,MN,1,num_6,32,num_8,1.06678717898,,,2017_Jun_19_1618,60.0106439852,FEMA4ImagesEEG,001,100716,
AFNE01.JPG,AFNE01.JPG,AFNE01.JPG,AFNE01.JPG,AFNE01.JPG,AFNE01.JPG,,,,,5,5,55,3,,,,,,,,,,,,,,,,,,,AMNE04.jpg,AMNE15.jpg,AMSA09.jpg,AMSA15.jpg,AMNE15.jpg,MN,1,num_6,16,num_6,0.450186172966,,,2017_Jun_19_1618,60.0106439852,FEMA4ImagesEEG,001,100716,
AFNE01.JPG,AFNE01.JPG,AFNE01.JPG,AFNE01.JPG,AFNE01.JPG,AFNE01.JPG,,,,,5,6,56,8,,,,,,,,,,,,,,,,,,,AMNE04.jpg,AMSA14.jpg,AMSA12.jpg,AMNE13.jpg,AMSA12.jpg,MS,2,num_2,32,num_8,1.93369489186,,,2017_Jun_19_1618,60.0106439852,FEMA4ImagesEEG,001,100716,
AFNE01.JPG,AFNE01.JPG,AFNE01.JPG,AFNE01.JPG,AFNE01.JPG,AFNE01.JPG,,,,,5,7,57,2,,,,,,,,,,,,,,,,,,,AMSA11.jpg,AMNE07.jpg,AMNE16.jpg,AMSA09.jpg,AMSA11.jpg,MS,2,num_8,32,num_6,0.583460640046,,,2017_Jun_19_1618,60.0106439852,FEMA4ImagesEEG,001,100716,
AFNE01.JPG,AFNE01.JPG,AFNE01.JPG,AFNE01.JPG,AFNE01.JPG,AFNE01.JPG,,,,,5,8,58,0,,,,,,,,,,,,,,,,,,,AMNE04.jpg,AMNE18.jpg,AMSA12.jpg,AMSA20.jpg,AMSA20.jpg,MS,2,num_4,32,num_2,1.6834077501,,,2017_Jun_19_1618,60.0106439852,FEMA4ImagesEEG,001,100716,
AFNE01.JPG,AFNE01.JPG,AFNE01.JPG,AFNE01.JPG,AFNE01.JPG,AFNE01.JPG,,,,,5,9,59,6,,,,,,,,,,,,,,,,,,,AMNE15.jpg,AMSA13.jpg,AMNE09.jpg,AMSA09.jpg,AMSA13.jpg,MS,2,num_6,32,num_8,1.00016614283,,,2017_Jun_19_1618,60.0106439852,FEMA4ImagesEEG,001,100716,
,,,,,,,,,,,,,,,,,,,,,,,,,,,,,,,,,,,,,,,,,,,space,9.83273360471,2017_Jun_19_1618,60.0106439852,FEMA4ImagesEEG,001,100716,
AFNE01.JPG,AFNE01.JPG,AFNE01.JPG,AFNE01.JPG,AFNE01.JPG,AFNE01.JPG,,,,,,,,,0,0,0,6,,,,,,,,,,,,,,,AFNE10.jpg,AFNE18.jpg,AFSA11.jpg,AFSA04.jpg,AFNE10.jpg,FN,3,num_8,16,num_8,1.08354323043,,,2017_Jun_19_1618,60.0106439852,FEMA4ImagesEEG,001,100716,
AFNE01.JPG,AFNE01.JPG,AFNE01.JPG,AFNE01.JPG,AFNE01.JPG,AFNE01.JPG,,,,,,,,,0,1,1,1,,,,,,,,,,,,,,,AFNE09.jpg,AFNE10.jpg,AFSA13.jpg,AFSA20.jpg,AFNE09.jpg,FN,3,num_8,32,num_6,1.03346655774,,,2017_Jun_19_1618,60.0106439852,FEMA4ImagesEEG,001,100716,
AFNE01.JPG,AFNE01.JPG,AFNE01.JPG,AFNE01.JPG,AFNE01.JPG,AFNE01.JPG,,,,,,,,,0,2,2,3,,,,,,,,,,,,,,,AFSA14.jpg,AFNE07.jpg,AFNE13.jpg,AFSA09.jpg,AFSA14.jpg,FS,4,num_8,32,num_4,0.550117566949,,,2017_Jun_19_1618,60.0106439852,FEMA4ImagesEEG,001,100716,
AFNE01.JPG,AFNE01.JPG,AFNE01.JPG,AFNE01.JPG,AFNE01.JPG,AFNE01.JPG,,,,,,,,,0,3,3,5,,,,,,,,,,,,,,,AFSA10.jpg,AFNE05.jpg,AFNE18.jpg,AFSA04.jpg,AFSA04.jpg,FS,4,num_4,32,num_6,0.983483540826,,,2017_Jun_19_1618,60.0106439852,FEMA4ImagesEEG,001,100716,
AFNE01.JPG,AFNE01.JPG,AFNE01.JPG,AFNE01.JPG,AFNE01.JPG,AFNE01.JPG,,,,,,,,,0,4,4,7,,,,,,,,,,,,,,,AFNE09.jpg,AFNE11.jpg,AFSA20.jpg,AFSA01.jpg,AFNE09.jpg,FN,3,num_8,16,num_8,0.733524836018,,,2017_Jun_19_1618,60.0106439852,FEMA4ImagesEEG,001,100716,
AFNE01.JPG,AFNE01.JPG,AFNE01.JPG,AFNE01.JPG,AFNE01.JPG,AFNE01.JPG,,,,,,,,,0,5,5,8,,,,,,,,,,,,,,,AFSA11.jpg,AFNE19.jpg,AFNE11.jpg,AFSA13.jpg,AFNE19.jpg,FN,3,num_6,16,num_6,0.900173167,,,2017_Jun_19_1618,60.0106439852,FEMA4ImagesEEG,001,100716,
AFNE01.JPG,AFNE01.JPG,AFNE01.JPG,AFNE01.JPG,AFNE01.JPG,AFNE01.JPG,,,,,,,,,0,6,6,9,,,,,,,,,,,,,,,AFNE02.jpg,AFSA05.jpg,AFNE20.jpg,AFSA06.jpg,AFNE20.jpg,FN,3,num_2,16,num_2,1.08345117816,,,2017_Jun_19_1618,60.0106439852,FEMA4ImagesEEG,001,100716,
AFNE01.JPG,AFNE01.JPG,AFNE01.JPG,AFNE01.JPG,AFNE01.JPG,AFNE01.JPG,,,,,,,,,0,7,7,2,,,,,,,,,,,,,,,AFNE15.jpg,AFSA11.jpg,AFSA08.jpg,AFNE14.jpg,AFSA08.jpg,FS,4,num_2,32,num_8,0.916755377781,,,2017_Jun_19_1618,60.0106439852,FEMA4ImagesEEG,001,100716,
AFNE01.JPG,AFNE01.JPG,AFNE01.JPG,AFNE01.JPG,AFNE01.JPG,AFNE01.JPG,,,,,,,,,0,8,8,4,,,,,,,,,,,,,,,AFSA16.jpg,AFNE18.jpg,AFSA08.jpg,AFNE04.jpg,AFSA08.jpg,FS,4,num_2,16,num_2,0.783464553067,,,2017_Jun_19_1618,60.0106439852,FEMA4ImagesEEG,001,100716,
AFNE01.JPG,AFNE01.JPG,AFNE01.JPG,AFNE01.JPG,AFNE01.JPG,AFNE01.JPG,,,,,,,,,0,9,9,0,,,,,,,,,,,,,,,AFSA20.jpg,AFSA01.jpg,AFNE02.jpg,AFNE04.jpg,AFNE02.jpg,FN,3,num_2,16,num_2,0.733419312746,,,2017_Jun_19_1618,60.0106439852,FEMA4ImagesEEG,001,100716,
AFNE01.JPG,AFNE01.JPG,AFNE01.JPG,AFNE01.JPG,AFNE01.JPG,AFNE01.JPG,,,,,,,,,1,0,10,7,,,,,,,,,,,,,,,AFNE08.jpg,AFSA17.jpg,AFNE03.jpg,AFSA04.jpg,AFSA17.jpg,FS,4,num_6,32,num_2,0.583456791122,,,2017_Jun_19_1618,60.0106439852,FEMA4ImagesEEG,001,100716,
AFNE01.JPG,AFNE01.JPG,AFNE01.JPG,AFNE01.JPG,AFNE01.JPG,AFNE01.JPG,,,,,,,,,1,1,11,6,,,,,,,,,,,,,,,AFNE19.jpg,AFSA15.jpg,AFNE10.jpg,AFSA13.jpg,AFSA13.jpg,FS,4,num_4,16,num_4,0.483498134417,,,2017_Jun_19_1618,60.0106439852,FEMA4ImagesEEG,001,100716,
AFNE01.JPG,AFNE01.JPG,AFNE01.JPG,AFNE01.JPG,AFNE01.JPG,AFNE01.JPG,,,,,,,,,1,2,12,1,,,,,,,,,,,,,,,AFNE03.jpg,AFSA05.jpg,AFNE13.jpg,AFSA11.jpg,AFSA11.jpg,FS,4,num_4,16,num_4,0.633497861796,,,2017_Jun_19_1618,60.0106439852,FEMA4ImagesEEG,001,100716,
AFNE01.JPG,AFNE01.JPG,AFNE01.JPG,AFNE01.JPG,AFNE01.JPG,AFNE01.JPG,,,,,,,,,1,3,13,5,,,,,,,,,,,,,,,AFNE03.jpg,AFNE15.jpg,AFSA18.jpg,AFSA13.jpg,AFNE15.jpg,FN,3,num_6,16,num_6,0.583496883512,,,2017_Jun_19_1618,60.0106439852,FEMA4ImagesEEG,001,100716,
AFNE01.JPG,AFNE01.JPG,AFNE01.JPG,AFNE01.JPG,AFNE01.JPG,AFNE01.JPG,,,,,,,,,1,4,14,8,,,,,,,,,,,,,,,AFNE10.jpg,AFNE14.jpg,AFSA01.jpg,AFSA07.jpg,AFSA01.jpg,FS,4,num_2,16,num_2,0.966800938826,,,2017_Jun_19_1618,60.0106439852,FEMA4ImagesEEG,001,100716,
AFNE01.JPG,AFNE01.JPG,AFNE01.JPG,AFNE01.JPG,AFNE01.JPG,AFNE01.JPG,,,,,,,,,1,5,15,0,,,,,,,,,,,,,,,AFNE05.jpg,AFNE08.jpg,AFSA06.jpg,AFSA20.jpg,AFNE05.jpg,FN,3,num_8,32,num_4,0.633704417734,,,2017_Jun_19_1618,60.0106439852,FEMA4ImagesEEG,001,100716,
AFNE01.JPG,AFNE01.JPG,AFNE01.JPG,AFNE01.JPG,AFNE01.JPG,AFNE01.JPG,,,,,,,,,1,6,16,3,,,,,,,,,,,,,,,AFSA02.jpg,AFSA03.jpg,AFNE18.jpg,AFNE10.jpg,AFSA02.jpg,FS,4,num_8,32,num_2,2.36667726177,,,2017_Jun_19_1618,60.0106439852,FEMA4ImagesEEG,001,100716,
AFNE01.JPG,AFNE01.JPG,AFNE01.JPG,AFNE01.JPG,AFNE01.JPG,AFNE01.JPG,,,,,,,,,1,7,17,2,,,,,,,,,,,,,,,AFSA16.jpg,AFSA10.jpg,AFNE13.jpg,AFNE10.jpg,AFSA16.jpg,FS,4,num_8,16,num_8,0.616809486412,,,2017_Jun_19_1618,60.0106439852,FEMA4ImagesEEG,001,100716,
AFNE01.JPG,AFNE01.JPG,AFNE01.JPG,AFNE01.JPG,AFNE01.JPG,AFNE01.JPG,,,,,,,,,1,8,18,4,,,,,,,,,,,,,,,AFNE15.jpg,AFNE10.jpg,AFSA13.jpg,AFSA17.jpg,AFNE10.jpg,FN,3,num_6,32,num_8,0.733422199497,,,2017_Jun_19_1618,60.0106439852,FEMA4ImagesEEG,001,100716,
AFNE01.JPG,AFNE01.JPG,AFNE01.JPG,AFNE01.JPG,AFNE01.JPG,AFNE01.JPG,,,,,,,,,1,9,19,9,,,,,,,,,,,,,,,AFSA15.jpg,AFSA03.jpg,AFNE15.jpg,AFNE07.jpg,AFNE15.jpg,FN,3,num_2,16,num_2,0.583450055681,,,2017_Jun_19_1618,60.0106439852,FEMA4ImagesEEG,001,100716,
AFNE01.JPG,AFNE01.JPG,AFNE01.JPG,AFNE01.JPG,AFNE01.JPG,AFNE01.JPG,,,,,,,,,2,0,20,4,,,,,,,,,,,,,,,AFNE01.jpg,AFSA01.jpg,AFNE15.jpg,AFSA14.jpg,AFSA14.jpg,FS,4,num_4,32,num_6,1.51673664653,,,2017_Jun_19_1618,60.0106439852,FEMA4ImagesEEG,001,100716,
AFNE01.JPG,AFNE01.JPG,AFNE01.JPG,AFNE01.JPG,AFNE01.JPG,AFNE01.JPG,,,,,,,,,2,1,21,6,,,,,,,,,,,,,,,AFNE15.jpg,AFSA05.jpg,AFSA12.jpg,AFNE16.jpg,AFNE16.jpg,FN,3,num_4,16,num_4,1.33339288388,,,2017_Jun_19_1618,60.0106439852,FEMA4ImagesEEG,001,100716,
AFNE01.JPG,AFNE01.JPG,AFNE01.JPG,AFNE01.JPG,AFNE01.JPG,AFNE01.JPG,,,,,,,,,2,2,22,8,,,,,,,,,,,,,,,AFNE16.jpg,AFSA08.jpg,AFNE14.jpg,AFSA16.jpg,AFSA16.jpg,FS,4,num_4,32,num_2,0.833551168675,,,2017_Jun_19_1618,60.0106439852,FEMA4ImagesEEG,001,100716,
AFNE01.JPG,AFNE01.JPG,AFNE01.JPG,AFNE01.JPG,AFNE01.JPG,AFNE01.JPG,,,,,,,,,2,3,23,7,,,,,,,,,,,,,,,AFNE05.jpg,AFSA14.jpg,AFSA03.jpg,AFNE13.jpg,AFNE13.jpg,FN,3,num_4,16,num_4,0.933495392092,,,2017_Jun_19_1618,60.0106439852,FEMA4ImagesEEG,001,100716,
AFNE01.JPG,AFNE01.JPG,AFNE01.JPG,AFNE01.JPG,AFNE01.JPG,AFNE01.JPG,,,,,,,,,2,4,24,2,,,,,,,,,,,,,,,AFNE12.jpg,AFSA04.jpg,AFSA20.jpg,AFNE19.jpg,AFSA04.jpg,FS,4,num_6,32,num_2,1.66671873338,,,2017_Jun_19_1618,60.0106439852,FEMA4ImagesEEG,001,100716,
AFNE01.JPG,AFNE01.JPG,AFNE01.JPG,AFNE01.JPG,AFNE01.JPG,AFNE01.JPG,,,,,,,,,2,5,25,5,,,,,,,,,,,,,,,AFNE07.jpg,AFNE05.jpg,AFSA20.jpg,AFSA18.jpg,AFSA18.jpg,FS,4,num_4,32,num_2,0.916786489426,,,2017_Jun_19_1618,60.0106439852,FEMA4ImagesEEG,001,100716,
AFNE01.JPG,AFNE01.JPG,AFNE01.JPG,AFNE01.JPG,AFNE01.JPG,AFNE01.JPG,,,,,,,,,2,6,26,0,,,,,,,,,,,,,,,AFSA12.jpg,AFNE18.jpg,AFNE01.jpg,AFSA15.jpg,AFNE01.jpg,FN,3,num_2,16,num_2,1.03344121925,,,2017_Jun_19_1618,60.0106439852,FEMA4ImagesEEG,001,100716,
AFNE01.JPG,AFNE01.JPG,AFNE01.JPG,AFNE01.JPG,AFNE01.JPG,AFNE01.JPG,,,,,,,,,2,7,27,9,,,,,,,,,,,,,,,AFNE17.jpg,AFSA13.jpg,AFSA20.jpg,AFNE18.jpg,AFSA20.jpg,FS,4,num_2,32,num_8,1.03346431244,,,2017_Jun_19_1618,60.0106439852,FEMA4ImagesEEG,001,100716,
AFNE01.JPG,AFNE01.JPG,AFNE01.JPG,AFNE01.JPG,AFNE01.JPG,AFNE01.JPG,,,,,,,,,2,8,28,3,,,,,,,,,,,,,,,AFNE02.jpg,AFSA05.jpg,AFNE08.jpg,AFSA10.jpg,AFSA05.jpg,FS,4,num_6,16,num_6,1.08339087933,,,2017_Jun_19_1618,60.0106439852,FEMA4ImagesEEG,001,100716,
AFNE01.JPG,AFNE01.JPG,AFNE01.JPG,AFNE01.JPG,AFNE01.JPG,AFNE01.JPG,,,,,,,,,2,9,29,1,,,,,,,,,,,,,,,AFSA08.jpg,AFNE03.jpg,AFNE07.jpg,AFSA15.jpg,AFNE07.jpg,FN,3,num_2,16,num_2,1.31675646827,,,2017_Jun_19_1618,60.0106439852,FEMA4ImagesEEG,001,100716,
AFNE01.JPG,AFNE01.JPG,AFNE01.JPG,AFNE01.JPG,AFNE01.JPG,AFNE01.JPG,,,,,,,,,3,0,30,3,,,,,,,,,,,,,,,AFNE02.jpg,AFSA14.jpg,AFNE10.jpg,AFSA04.jpg,AFNE02.jpg,FN,3,num_8,32,num_2,1.43338778417,,,2017_Jun_19_1618,60.0106439852,FEMA4ImagesEEG,001,100716,
AFNE01.JPG,AFNE01.JPG,AFNE01.JPG,AFNE01.JPG,AFNE01.JPG,AFNE01.JPG,,,,,,,,,3,1,31,5,,,,,,,,,,,,,,,AFNE17.jpg,AFSA02.jpg,AFNE16.jpg,AFSA19.jpg,AFNE16.jpg,FN,3,num_2,32,num_8,1.1834297207,,,2017_Jun_19_1618,60.0106439852,FEMA4ImagesEEG,001,100716,
AFNE01.JPG,AFNE01.JPG,AFNE01.JPG,AFNE01.JPG,AFNE01.JPG,AFNE01.JPG,,,,,,,,,3,2,32,8,,,,,,,,,,,,,,,AFNE02.jpg,AFSA10.jpg,AFNE08.jpg,AFSA04.jpg,AFSA10.jpg,FS,4,num_6,32,num_2,2.03335558192,,,2017_Jun_19_1618,60.0106439852,FEMA4ImagesEEG,001,100716,
AFNE01.JPG,AFNE01.JPG,AFNE01.JPG,AFNE01.JPG,AFNE01.JPG,AFNE01.JPG,,,,,,,,,3,3,33,6,,,,,,,,,,,,,,,AFSA06.jpg,AFSA01.jpg,AFNE15.jpg,AFNE13.jpg,AFSA06.jpg,FS,4,num_8,16,num_8,1.20010013483,,,2017_Jun_19_1618,60.0106439852,FEMA4ImagesEEG,001,100716,
AFNE01.JPG,AFNE01.JPG,AFNE01.JPG,AFNE01.JPG,AFNE01.JPG,AFNE01.JPG,,,,,,,,,3,4,34,7,,,,,,,,,,,,,,,AFSA05.jpg,AFNE12.jpg,AFNE09.jpg,AFSA02.jpg,AFNE12.jpg,FN,3,num_6,16,num_6,0.566781566129,,,2017_Jun_19_1618,60.0106439852,FEMA4ImagesEEG,001,100716,
AFNE01.JPG,AFNE01.JPG,AFNE01.JPG,AFNE01.JPG,AFNE01.JPG,AFNE01.JPG,,,,,,,,,3,5,35,2,,,,,,,,,,,,,,,AFSA12.jpg,AFNE02.jpg,AFSA04.jpg,AFNE13.jpg,AFNE13.jpg,FN,3,num_4,32,num_8,0.833460720256,,,2017_Jun_19_1618,60.0106439852,FEMA4ImagesEEG,001,100716,
AFNE01.JPG,AFNE01.JPG,AFNE01.JPG,AFNE01.JPG,AFNE01.JPG,AFNE01.JPG,,,,,,,,,3,6,36,9,,,,,,,,,,,,,,,AFNE20.jpg,AFNE15.jpg,AFSA06.jpg,AFSA07.jpg,AFSA06.jpg,FS,4,num_2,16,num_2,0.933483203989,,,2017_Jun_19_1618,60.0106439852,FEMA4ImagesEEG,001,100716,
AFNE01.JPG,AFNE01.JPG,AFNE01.JPG,AFNE01.JPG,AFNE01.JPG,AFNE01.JPG,,,,,,,,,3,7,37,1,,,,,,,,,,,,,,,AFSA03.jpg,AFSA12.jpg,AFNE07.jpg,AFNE09.jpg,AFSA03.jpg,FS,4,num_8,16,num_8,0.866791605251,,,2017_Jun_19_1618,60.0106439852,FEMA4ImagesEEG,001,100716,
AFNE01.JPG,AFNE01.JPG,AFNE01.JPG,AFNE01.JPG,AFNE01.JPG,AFNE01.JPG,,,,,,,,,3,8,38,0,,,,,,,,,,,,,,,AFSA09.jpg,AFNE20.jpg,AFNE10.jpg,AFSA11.jpg,AFSA09.jpg,FS,4,num_8,32,num_2,0.850485550938,,,2017_Jun_19_1618,60.0106439852,FEMA4ImagesEEG,001,100716,
AFNE01.JPG,AFNE01.JPG,AFNE01.JPG,AFNE01.JPG,AFNE01.JPG,AFNE01.JPG,,,,,,,,,3,9,39,4,,,,,,,,,,,,,,,AFNE01.jpg,AFNE10.jpg,AFSA17.jpg,AFSA04.jpg,AFSA04.jpg,FS,4,num_4,32,num_6,0.550127830473,,,2017_Jun_19_1618,60.0106439852,FEMA4ImagesEEG,001,100716,
AFNE01.JPG,AFNE01.JPG,AFNE01.JPG,AFNE01.JPG,AFNE01.JPG,AFNE01.JPG,,,,,,,,,4,0,40,0,,,,,,,,,,,,,,,AFSA04.jpg,AFNE12.jpg,AFSA03.jpg,AFNE19.jpg,AFNE19.jpg,FN,3,num_4,32,num_6,0.833480926813,,,2017_Jun_19_1618,60.0106439852,FEMA4ImagesEEG,001,100716,
AFNE01.JPG,AFNE01.JPG,AFNE01.JPG,AFNE01.JPG,AFNE01.JPG,AFNE01.JPG,,,,,,,,,4,1,41,1,,,,,,,,,,,,,,,AFSA11.jpg,AFSA06.jpg,AFNE10.jpg,AFNE12.jpg,AFSA06.jpg,FS,4,num_6,32,num_8,1.30012101482,,,2017_Jun_19_1618,60.0106439852,FEMA4ImagesEEG,001,100716,
AFNE01.JPG,AFNE01.JPG,AFNE01.JPG,AFNE01.JPG,AFNE01.JPG,AFNE01.JPG,,,,,,,,,4,2,42,5,,,,,,,,,,,,,,,AFNE20.jpg,AFSA15.jpg,AFSA12.jpg,AFNE19.jpg,AFSA12.jpg,FS,4,num_2,32,num_4,0.666817520978,,,2017_Jun_19_1618,60.0106439852,FEMA4ImagesEEG,001,100716,
AFNE01.JPG,AFNE01.JPG,AFNE01.JPG,AFNE01.JPG,AFNE01.JPG,AFNE01.JPG,,,,,,,,,4,3,43,7,,,,,,,,,,,,,,,AFNE04.jpg,AFSA06.jpg,AFNE01.jpg,AFSA05.jpg,AFNE01.jpg,FN,3,num_2,16,num_2,1.75009742449,,,2017_Jun_19_1618,60.0106439852,FEMA4ImagesEEG,001,100716,
AFNE01.JPG,AFNE01.JPG,AFNE01.JPG,AFNE01.JPG,AFNE01.JPG,AFNE01.JPG,,,,,,,,,4,4,44,9,,,,,,,,,,,,,,,AFSA20.jpg,AFNE13.jpg,AFSA06.jpg,AFNE14.jpg,AFNE14.jpg,FN,3,num_4,32,num_2,0.916736774845,,,2017_Jun_19_1618,60.0106439852,FEMA4ImagesEEG,001,100716,
AFNE01.JPG,AFNE01.JPG,AFNE01.JPG,AFNE01.JPG,AFNE01.JPG,AFNE01.JPG,,,,,,,,,4,5,45,2,,,,,,,,,,,,,,,AFSA17.jpg,AFNE12.jpg,AFSA11.jpg,AFNE18.jpg,AFNE12.jpg,FN,3,num_6,16,num_6,0.650164426886,,,2017_Jun_19_1618,60.0106439852,FEMA4ImagesEEG,001,100716,
AFNE01.JPG,AFNE01.JPG,AFNE01.JPG,AFNE01.JPG,AFNE01.JPG,AFNE01.JPG,,,,,,,,,4,6,46,6,,,,,,,,,,,,,,,AFSA06.jpg,AFSA18.jpg,AFNE07.jpg,AFNE05.jpg,AFSA06.jpg,FS,4,num_8,16,num_8,0.800171851995,,,2017_Jun_19_1618,60.0106439852,FEMA4ImagesEEG,001,100716,
AFNE01.JPG,AFNE01.JPG,AFNE01.JPG,AFNE01.JPG,AFNE01.JPG,AFNE01.JPG,,,,,,,,,4,7,47,4,,,,,,,,,,,,,,,AFSA03.jpg,AFSA13.jpg,AFNE11.jpg,AFNE09.jpg,AFNE11.jpg,FN,3,num_2,16,num_2,0.750157081988,,,2017_Jun_19_1618,60.0106439852,FEMA4ImagesEEG,001,100716,
AFNE01.JPG,AFNE01.JPG,AFNE01.JPG,AFNE01.JPG,AFNE01.JPG,AFNE01.JPG,,,,,,,,,4,8,48,8,,,,,,,,,,,,,,,AFSA12.jpg,AFSA11.jpg,AFNE08.jpg,AFNE10.jpg,AFSA12.jpg,FS,4,num_8,16,num_8,0.950109997415,,,2017_Jun_19_1618,60.0106439852,FEMA4ImagesEEG,001,100716,
AFNE01.JPG,AFNE01.JPG,AFNE01.JPG,AFNE01.JPG,AFNE01.JPG,AFNE01.JPG,,,,,,,,,4,9,49,3,,,,,,,,,,,,,,,AFSA13.jpg,AFNE11.jpg,AFSA01.jpg,AFNE20.jpg,AFNE11.jpg,FN,3,num_6,32,num_2,0.88345881179,,,2017_Jun_19_1618,60.0106439852,FEMA4ImagesEEG,001,100716,
AFNE01.JPG,AFNE01.JPG,AFNE01.JPG,AFNE01.JPG,AFNE01.JPG,AFNE01.JPG,,,,,,,,,5,0,50,6,,,,,,,,,,,,,,,AFNE18.jpg,AFSA11.jpg,AFSA14.jpg,AFNE12.jpg,AFSA14.jpg,FS,4,num_2,16,num_2,0.933443432441,,,2017_Jun_19_1618,60.0106439852,FEMA4ImagesEEG,001,100716,
AFNE01.JPG,AFNE01.JPG,AFNE01.JPG,AFNE01.JPG,AFNE01.JPG,AFNE01.JPG,,,,,,,,,5,1,51,9,,,,,,,,,,,,,,,AFNE15.jpg,AFNE09.jpg,AFSA20.jpg,AFSA11.jpg,AFNE09.jpg,FN,3,num_6,32,num_8,1.48342340218,,,2017_Jun_19_1618,60.0106439852,FEMA4ImagesEEG,001,100716,
AFNE01.JPG,AFNE01.JPG,AFNE01.JPG,AFNE01.JPG,AFNE01.JPG,AFNE01.JPG,,,,,,,,,5,2,52,1,,,,,,,,,,,,,,,AFNE18.jpg,AFSA07.jpg,AFNE20.jpg,AFSA01.jpg,AFNE18.jpg,FN,3,num_8,16,num_8,1.11675800779,,,2017_Jun_19_1618,60.0106439852,FEMA4ImagesEEG,001,100716,
AFNE01.JPG,AFNE01.JPG,AFNE01.JPG,AFNE01.JPG,AFNE01.JPG,AFNE01.JPG,,,,,,,,,5,3,53,3,,,,,,,,,,,,,,,AFSA07.jpg,AFNE19.jpg,AFNE11.jpg,AFSA04.jpg,AFSA04.jpg,FS,4,num_4,32,num_2,1.06675606733,,,2017_Jun_19_1618,60.0106439852,FEMA4ImagesEEG,001,100716,
AFNE01.JPG,AFNE01.JPG,AFNE01.JPG,AFNE01.JPG,AFNE01.JPG,AFNE01.JPG,,,,,,,,,5,4,54,2,,,,,,,,,,,,,,,AFNE09.jpg,AFNE19.jpg,AFSA05.jpg,AFSA20.jpg,AFNE09.jpg,FN,3,num_8,32,num_2,3.14994808845,,,2017_Jun_19_1618,60.0106439852,FEMA4ImagesEEG,001,100716,
AFNE01.JPG,AFNE01.JPG,AFNE01.JPG,AFNE01.JPG,AFNE01.JPG,AFNE01.JPG,,,,,,,,,5,5,55,7,,,,,,,,,,,,,,,AFNE18.jpg,AFSA10.jpg,AFSA07.jpg,AFNE05.jpg,AFSA10.jpg,FS,4,num_6,16,num_6,0.833465852076,,,2017_Jun_19_1618,60.0106439852,FEMA4ImagesEEG,001,100716,
AFNE01.JPG,AFNE01.JPG,AFNE01.JPG,AFNE01.JPG,AFNE01.JPG,AFNE01.JPG,,,,,,,,,5,6,56,8,,,,,,,,,,,,,,,AFNE06.jpg,AFSA02.jpg,AFSA03.jpg,AFNE05.jpg,AFSA03.jpg,FS,4,num_2,32,num_6,1.88338760764,,,2017_Jun_19_1618,60.0106439852,FEMA4ImagesEEG,001,100716,
AFNE01.JPG,AFNE01.JPG,AFNE01.JPG,AFNE01.JPG,AFNE01.JPG,AFNE01.JPG,,,,,,,,,5,7,57,0,,,,,,,,,,,,,,,AFSA06.jpg,AFSA09.jpg,AFNE12.jpg,AFNE06.jpg,AFNE12.jpg,FN,3,num_2,16,num_2,0.66649485752,,,2017_Jun_19_1618,60.0106439852,FEMA4ImagesEEG,001,100716,
AFNE01.JPG,AFNE01.JPG,AFNE01.JPG,AFNE01.JPG,AFNE01.JPG,AFNE01.JPG,,,,,,,,,5,8,58,4,,,,,,,,,,,,,,,AFNE02.jpg,AFNE11.jpg,AFSA05.jpg,AFSA14.jpg,AFNE02.jpg,FN,3,num_8,32,num_2,1.53345741658,,,2017_Jun_19_1618,60.0106439852,FEMA4ImagesEEG,001,100716,
AFNE01.JPG,AFNE01.JPG,AFNE01.JPG,AFNE01.JPG,AFNE01.JPG,AFNE01.JPG,,,,,,,,,5,9,59,5,,,,,,,,,,,,,,,AFSA13.jpg,AFNE16.jpg,AFSA07.jpg,AFNE04.jpg,AFSA07.jpg,FS,4,num_2,32,num_8,1.18341881561,,,2017_Jun_19_1618,60.0106439852,FEMA4ImagesEEG,001,100716,
,,,,,,,,,,,,,,,,,,,,,,,,,,,,,,,,,,,,,,,,,,,space,20.0488918625,2017_Jun_19_1618,60.0106439852,FEMA4ImagesEEG,001,100716,
AFNE01.JPG,AFNE01.JPG,AFNE01.JPG,AFNE01.JPG,AFNE01.JPG,AFNE01.JPG,,,,,,,,,,,,,0,0,0,6,,,,,,,,,,,AMNE05.jpg,AMSA05.jpg,AMNE14.jpg,AMSA06.jpg,AMSA05.jpg,MS,2,num_6,32,num_8,0.816822059453,,,2017_Jun_19_1618,60.0106439852,FEMA4ImagesEEG,001,100716,
AFNE01.JPG,AFNE01.JPG,AFNE01.JPG,AFNE01.JPG,AFNE01.JPG,AFNE01.JPG,,,,,,,,,,,,,0,1,1,0,,,,,,,,,,,AMNE11.jpg,AMNE08.jpg,AMSA07.jpg,AMSA16.jpg,AMNE08.jpg,MN,1,num_6,32,num_2,0.900126339169,,,2017_Jun_19_1618,60.0106439852,FEMA4ImagesEEG,001,100716,
AFNE01.JPG,AFNE01.JPG,AFNE01.JPG,AFNE01.JPG,AFNE01.JPG,AFNE01.JPG,,,,,,,,,,,,,0,2,2,1,,,,,,,,,,,AMSA12.jpg,AMNE19.jpg,AMSA18.jpg,AMNE04.jpg,AMNE04.jpg,MN,1,num_4,16,num_4,0.816820455715,,,2017_Jun_19_1618,60.0106439852,FEMA4ImagesEEG,001,100716,
AFNE01.JPG,AFNE01.JPG,AFNE01.JPG,AFNE01.JPG,AFNE01.JPG,AFNE01.JPG,,,,,,,,,,,,,0,3,3,7,,,,,,,,,,,AMNE12.jpg,AMSA15.jpg,AMNE17.jpg,AMSA05.jpg,AMSA15.jpg,MS,2,num_6,16,num_6,1.03346527473,,,2017_Jun_19_1618,60.0106439852,FEMA4ImagesEEG,001,100716,
AFNE01.JPG,AFNE01.JPG,AFNE01.JPG,AFNE01.JPG,AFNE01.JPG,AFNE01.JPG,,,,,,,,,,,,,0,4,4,9,,,,,,,,,,,AMNE14.jpg,AMNE13.jpg,AMSA12.jpg,AMSA17.jpg,AMNE14.jpg,MN,1,num_8,16,num_8,1.06682374328,,,2017_Jun_19_1618,60.0106439852,FEMA4ImagesEEG,001,100716,
AFNE01.JPG,AFNE01.JPG,AFNE01.JPG,AFNE01.JPG,AFNE01.JPG,AFNE01.JPG,,,,,,,,,,,,,0,5,5,2,,,,,,,,,,,AMNE19.jpg,AMNE03.jpg,AMSA14.jpg,AMSA05.jpg,AMSA05.jpg,MS,2,num_4,32,num_8,0.900094585959,,,2017_Jun_19_1618,60.0106439852,FEMA4ImagesEEG,001,100716,
AFNE01.JPG,AFNE01.JPG,AFNE01.JPG,AFNE01.JPG,AFNE01.JPG,AFNE01.JPG,,,,,,,,,,,,,0,6,6,3,,,,,,,,,,,AMSA18.jpg,AMNE04.jpg,AMSA06.jpg,AMNE18.jpg,AMSA18.jpg,MS,2,num_8,32,num_6,0.716788670514,,,2017_Jun_19_1618,60.0106439852,FEMA4ImagesEEG,001,100716,
AFNE01.JPG,AFNE01.JPG,AFNE01.JPG,AFNE01.JPG,AFNE01.JPG,AFNE01.JPG,,,,,,,,,,,,,0,7,7,5,,,,,,,,,,,AMNE01.jpg,AMSA06.jpg,AMNE16.jpg,AMSA15.jpg,AMSA06.jpg,MS,2,num_6,32,num_4,0.616919820663,,,2017_Jun_19_1618,60.0106439852,FEMA4ImagesEEG,001,100716,
AFNE01.JPG,AFNE01.JPG,AFNE01.JPG,AFNE01.JPG,AFNE01.JPG,AFNE01.JPG,,,,,,,,,,,,,0,8,8,4,,,,,,,,,,,AMNE03.jpg,AMSA16.jpg,AMSA10.jpg,AMNE06.jpg,AMSA16.jpg,MS,2,num_6,16,num_6,0.850107399398,,,2017_Jun_19_1618,60.0106439852,FEMA4ImagesEEG,001,100716,
AFNE01.JPG,AFNE01.JPG,AFNE01.JPG,AFNE01.JPG,AFNE01.JPG,AFNE01.JPG,,,,,,,,,,,,,0,9,9,8,,,,,,,,,,,AMSA12.jpg,AMNE07.jpg,AMSA03.jpg,AMNE15.jpg,AMSA03.jpg,MS,2,num_2,16,num_2,1.0667448414,,,2017_Jun_19_1618,60.0106439852,FEMA4ImagesEEG,001,100716,
AFNE01.JPG,AFNE01.JPG,AFNE01.JPG,AFNE01.JPG,AFNE01.JPG,AFNE01.JPG,,,,,,,,,,,,,1,0,10,2,,,,,,,,,,,AMSA06.jpg,AMNE13.jpg,AMSA18.jpg,AMNE20.jpg,AMNE13.jpg,MN,1,num_6,32,num_8,1.01684168866,,,2017_Jun_19_1618,60.0106439852,FEMA4ImagesEEG,001,100716,
AFNE01.JPG,AFNE01.JPG,AFNE01.JPG,AFNE01.JPG,AFNE01.JPG,AFNE01.JPG,,,,,,,,,,,,,1,1,11,9,,,,,,,,,,,AMSA04.jpg,AMNE15.jpg,AMNE07.jpg,AMSA10.jpg,AMSA10.jpg,MS,2,num_4,32,num_6,1.00000673556,,,2017_Jun_19_1618,60.0106439852,FEMA4ImagesEEG,001,100716,
AFNE01.JPG,AFNE01.JPG,AFNE01.JPG,AFNE01.JPG,AFNE01.JPG,AFNE01.JPG,,,,,,,,,,,,,1,2,12,7,,,,,,,,,,,AMNE20.jpg,AMNE15.jpg,AMSA20.jpg,AMSA01.jpg,AMNE20.jpg,MN,1,num_8,32,num_6,0.816741874558,,,2017_Jun_19_1618,60.0106439852,FEMA4ImagesEEG,001,100716,
AFNE01.JPG,AFNE01.JPG,AFNE01.JPG,AFNE01.JPG,AFNE01.JPG,AFNE01.JPG,,,,,,,,,,,,,1,3,13,5,,,,,,,,,,,AMSA14.jpg,AMNE01.jpg,AMSA05.jpg,AMNE05.jpg,AMSA05.jpg,MS,2,num_2,32,num_4,1.20010462508,,,2017_Jun_19_1618,60.0106439852,FEMA4ImagesEEG,001,100716,
AFNE01.JPG,AFNE01.JPG,AFNE01.JPG,AFNE01.JPG,AFNE01.JPG,AFNE01.JPG,,,,,,,,,,,,,1,4,14,4,,,,,,,,,,,AMNE02.jpg,AMNE14.jpg,AMSA09.jpg,AMSA07.jpg,AMNE14.jpg,MN,1,num_6,16,num_6,0.83346104098,,,2017_Jun_19_1618,60.0106439852,FEMA4ImagesEEG,001,100716,
AFNE01.JPG,AFNE01.JPG,AFNE01.JPG,AFNE01.JPG,AFNE01.JPG,AFNE01.JPG,,,,,,,,,,,,,1,5,15,0,,,,,,,,,,,AMNE04.jpg,AMNE09.jpg,AMSA01.jpg,AMSA14.jpg,AMNE04.jpg,MN,1,num_8,16,num_8,0.766799912322,,,2017_Jun_19_1618,60.0106439852,FEMA4ImagesEEG,001,100716,
AFNE01.JPG,AFNE01.JPG,AFNE01.JPG,AFNE01.JPG,AFNE01.JPG,AFNE01.JPG,,,,,,,,,,,,,1,6,16,6,,,,,,,,,,,AMSA16.jpg,AMNE15.jpg,AMNE17.jpg,AMSA20.jpg,AMSA16.jpg,MS,2,num_8,32,num_6,0.850169622805,,,2017_Jun_19_1618,60.0106439852,FEMA4ImagesEEG,001,100716,
AFNE01.JPG,AFNE01.JPG,AFNE01.JPG,AFNE01.JPG,AFNE01.JPG,AFNE01.JPG,,,,,,,,,,,,,1,7,17,1,,,,,,,,,,,AMNE01.jpg,AMNE10.jpg,AMSA02.jpg,AMSA10.jpg,AMSA10.jpg,MS,2,num_4,16,num_4,0.883487036801,,,2017_Jun_19_1618,60.0106439852,FEMA4ImagesEEG,001,100716,
AFNE01.JPG,AFNE01.JPG,AFNE01.JPG,AFNE01.JPG,AFNE01.JPG,AFNE01.JPG,,,,,,,,,,,,,1,8,18,8,,,,,,,,,,,AMNE12.jpg,AMSA06.jpg,AMNE14.jpg,AMSA15.jpg,AMSA15.jpg,MS,2,num_4,32,num_8,0.983321246924,,,2017_Jun_19_1618,60.0106439852,FEMA4ImagesEEG,001,100716,
AFNE01.JPG,AFNE01.JPG,AFNE01.JPG,AFNE01.JPG,AFNE01.JPG,AFNE01.JPG,,,,,,,,,,,,,1,9,19,3,,,,,,,,,,,AMNE12.jpg,AMNE14.jpg,AMSA19.jpg,AMSA18.jpg,AMSA19.jpg,MS,2,num_2,32,num_6,1.05013440573,,,2017_Jun_19_1618,60.0106439852,FEMA4ImagesEEG,001,100716,
AFNE01.JPG,AFNE01.JPG,AFNE01.JPG,AFNE01.JPG,AFNE01.JPG,AFNE01.JPG,,,,,,,,,,,,,2,0,20,3,,,,,,,,,,,AMSA13.jpg,AMSA03.jpg,AMNE15.jpg,AMNE12.jpg,AMNE15.jpg,MN,1,num_2,32,num_8,0.85017283028,,,2017_Jun_19_1618,60.0106439852,FEMA4ImagesEEG,001,100716,
AFNE01.JPG,AFNE01.JPG,AFNE01.JPG,AFNE01.JPG,AFNE01.JPG,AFNE01.JPG,,,,,,,,,,,,,2,1,21,7,,,,,,,,,,,AMNE13.jpg,AMSA19.jpg,AMSA05.jpg,AMNE04.jpg,AMNE13.jpg,MN,1,num_8,32,num_2,1.11675031006,,,2017_Jun_19_1618,60.0106439852,FEMA4ImagesEEG,001,100716,
AFNE01.JPG,AFNE01.JPG,AFNE01.JPG,AFNE01.JPG,AFNE01.JPG,AFNE01.JPG,,,,,,,,,,,,,2,2,22,1,,,,,,,,,,,AMNE14.jpg,AMNE05.jpg,AMSA03.jpg,AMSA02.jpg,AMSA03.jpg,MS,2,num_2,32,num_4,0.583485657698,,,2017_Jun_19_1618,60.0106439852,FEMA4ImagesEEG,001,100716,
AFNE01.JPG,AFNE01.JPG,AFNE01.JPG,AFNE01.JPG,AFNE01.JPG,AFNE01.JPG,,,,,,,,,,,,,2,3,23,4,,,,,,,,,,,AMNE11.jpg,AMNE08.jpg,AMSA16.jpg,AMSA05.jpg,AMNE08.jpg,MN,1,num_6,16,num_6,0.633446543594,,,2017_Jun_19_1618,60.0106439852,FEMA4ImagesEEG,001,100716,
AFNE01.JPG,AFNE01.JPG,AFNE01.JPG,AFNE01.JPG,AFNE01.JPG,AFNE01.JPG,,,,,,,,,,,,,2,4,24,6,,,,,,,,,,,AMSA03.jpg,AMNE03.jpg,AMNE12.jpg,AMSA11.jpg,AMNE03.jpg,MN,1,num_6,32,num_8,0.766761423671,,,2017_Jun_19_1618,60.0106439852,FEMA4ImagesEEG,001,100716,
AFNE01.JPG,AFNE01.JPG,AFNE01.JPG,AFNE01.JPG,AFNE01.JPG,AFNE01.JPG,,,,,,,,,,,,,2,5,25,9,,,,,,,,,,,AMNE08.jpg,AMNE05.jpg,AMSA03.jpg,AMSA18.jpg,AMNE08.jpg,MN,1,num_8,32,num_6,0.933463638998,,,2017_Jun_19_1618,60.0106439852,FEMA4ImagesEEG,001,100716,
AFNE01.JPG,AFNE01.JPG,AFNE01.JPG,AFNE01.JPG,AFNE01.JPG,AFNE01.JPG,,,,,,,,,,,,,2,6,26,5,,,,,,,,,,,AMNE01.jpg,AMNE07.jpg,AMSA14.jpg,AMSA12.jpg,AMNE07.jpg,MN,1,num_6,16,num_6,0.58351388271,,,2017_Jun_19_1618,60.0106439852,FEMA4ImagesEEG,001,100716,
AFNE01.JPG,AFNE01.JPG,AFNE01.JPG,AFNE01.JPG,AFNE01.JPG,AFNE01.JPG,,,,,,,,,,,,,2,7,27,0,,,,,,,,,,,AMNE02.jpg,AMSA09.jpg,AMNE03.jpg,AMSA12.jpg,AMSA12.jpg,MS,2,num_4,32,num_6,0.866780058597,,,2017_Jun_19_1618,60.0106439852,FEMA4ImagesEEG,001,100716,
AFNE01.JPG,AFNE01.JPG,AFNE01.JPG,AFNE01.JPG,AFNE01.JPG,AFNE01.JPG,,,,,,,,,,,,,2,8,28,8,,,,,,,,,,,AMSA03.jpg,AMNE15.jpg,AMSA18.jpg,AMNE09.jpg,AMSA03.jpg,MS,2,num_8,32,num_2,1.20011873764,,,2017_Jun_19_1618,60.0106439852,FEMA4ImagesEEG,001,100716,
AFNE01.JPG,AFNE01.JPG,AFNE01.JPG,AFNE01.JPG,AFNE01.JPG,AFNE01.JPG,,,,,,,,,,,,,2,9,29,2,,,,,,,,,,,AMNE07.jpg,AMNE02.jpg,AMSA07.jpg,AMSA17.jpg,AMNE02.jpg,MN,1,num_6,32,num_4,2.05005261733,,,2017_Jun_19_1618,60.0106439852,FEMA4ImagesEEG,001,100716,
AFNE01.JPG,AFNE01.JPG,AFNE01.JPG,AFNE01.JPG,AFNE01.JPG,AFNE01.JPG,,,,,,,,,,,,,3,0,30,0,,,,,,,,,,,AMSA10.jpg,AMSA19.jpg,AMNE01.jpg,AMNE03.jpg,AMSA19.jpg,MS,2,num_6,32,num_8,1.15010942006,,,2017_Jun_19_1618,60.0106439852,FEMA4ImagesEEG,001,100716,
AFNE01.JPG,AFNE01.JPG,AFNE01.JPG,AFNE01.JPG,AFNE01.JPG,AFNE01.JPG,,,,,,,,,,,,,3,1,31,6,,,,,,,,,,,AMSA01.jpg,AMSA07.jpg,AMNE13.jpg,AMNE19.jpg,AMSA01.jpg,MS,2,num_8,16,num_8,0.900126018445,,,2017_Jun_19_1618,60.0106439852,FEMA4ImagesEEG,001,100716,
AFNE01.JPG,AFNE01.JPG,AFNE01.JPG,AFNE01.JPG,AFNE01.JPG,AFNE01.JPG,,,,,,,,,,,,,3,2,32,2,,,,,,,,,,,AMNE08.jpg,AMSA15.jpg,AMSA02.jpg,AMNE01.jpg,AMNE08.jpg,MN,1,num_8,16,num_8,0.716812405153,,,2017_Jun_19_1618,60.0106439852,FEMA4ImagesEEG,001,100716,
AFNE01.JPG,AFNE01.JPG,AFNE01.JPG,AFNE01.JPG,AFNE01.JPG,AFNE01.JPG,,,,,,,,,,,,,3,3,33,3,,,,,,,,,,,AMSA03.jpg,AMSA20.jpg,AMNE16.jpg,AMNE05.jpg,AMNE05.jpg,MN,1,num_4,32,num_6,0.900131791597,,,2017_Jun_19_1618,60.0106439852,FEMA4ImagesEEG,001,100716,
AFNE01.JPG,AFNE01.JPG,AFNE01.JPG,AFNE01.JPG,AFNE01.JPG,AFNE01.JPG,,,,,,,,,,,,,3,4,34,9,,,,,,,,,,,AMSA04.jpg,AMNE10.jpg,AMNE18.jpg,AMSA07.jpg,AMNE10.jpg,MN,1,num_6,16,num_6,1.06674035115,,,2017_Jun_19_1618,60.0106439852,FEMA4ImagesEEG,001,100716,
AFNE01.JPG,AFNE01.JPG,AFNE01.JPG,AFNE01.JPG,AFNE01.JPG,AFNE01.JPG,,,,,,,,,,,,,3,5,35,7,,,,,,,,,,,AMNE15.jpg,AMSA19.jpg,AMNE06.jpg,AMSA15.jpg,AMSA19.jpg,MS,2,num_6,32,num_2,0.916793224984,,,2017_Jun_19_1618,60.0106439852,FEMA4ImagesEEG,001,100716,
AFNE01.JPG,AFNE01.JPG,AFNE01.JPG,AFNE01.JPG,AFNE01.JPG,AFNE01.JPG,,,,,,,,,,,,,3,6,36,4,,,,,,,,,,,AMNE18.jpg,AMSA09.jpg,AMNE05.jpg,AMSA10.jpg,AMSA10.jpg,MS,2,num_4,32,num_8,0.816782929236,,,2017_Jun_19_1618,60.0106439852,FEMA4ImagesEEG,001,100716,
AFNE01.JPG,AFNE01.JPG,AFNE01.JPG,AFNE01.JPG,AFNE01.JPG,AFNE01.JPG,,,,,,,,,,,,,3,7,37,1,,,,,,,,,,,AMNE10.jpg,AMSA16.jpg,AMNE18.jpg,AMSA13.jpg,AMSA16.jpg,MS,2,num_6,32,num_2,0.983437675168,,,2017_Jun_19_1618,60.0106439852,FEMA4ImagesEEG,001,100716,
AFNE01.JPG,AFNE01.JPG,AFNE01.JPG,AFNE01.JPG,AFNE01.JPG,AFNE01.JPG,,,,,,,,,,,,,3,8,38,5,,,,,,,,,,,AMNE19.jpg,AMSA19.jpg,AMNE16.jpg,AMSA11.jpg,AMNE16.jpg,MN,1,num_2,32,num_8,0.983468145248,,,2017_Jun_19_1618,60.0106439852,FEMA4ImagesEEG,001,100716,
AFNE01.JPG,AFNE01.JPG,AFNE01.JPG,AFNE01.JPG,AFNE01.JPG,AFNE01.JPG,,,,,,,,,,,,,3,9,39,8,,,,,,,,,,,AMSA11.jpg,AMSA02.jpg,AMNE12.jpg,AMNE20.jpg,AMNE12.jpg,MN,1,num_2,16,num_2,1.15007606323,,,2017_Jun_19_1618,60.0106439852,FEMA4ImagesEEG,001,100716,
AFNE01.JPG,AFNE01.JPG,AFNE01.JPG,AFNE01.JPG,AFNE01.JPG,AFNE01.JPG,,,,,,,,,,,,,4,0,40,7,,,,,,,,,,,AMNE05.jpg,AMSA10.jpg,AMNE10.jpg,AMSA11.jpg,AMSA10.jpg,MS,2,num_6,16,num_6,1.78342093248,,,2017_Jun_19_1618,60.0106439852,FEMA4ImagesEEG,001,100716,
AFNE01.JPG,AFNE01.JPG,AFNE01.JPG,AFNE01.JPG,AFNE01.JPG,AFNE01.JPG,,,,,,,,,,,,,4,1,41,0,,,,,,,,,,,AMNE13.jpg,AMSA17.jpg,AMNE17.jpg,AMSA14.jpg,AMNE13.jpg,MN,1,num_8,32,num_2,1.26673784934,,,2017_Jun_19_1618,60.0106439852,FEMA4ImagesEEG,001,100716,
AFNE01.JPG,AFNE01.JPG,AFNE01.JPG,AFNE01.JPG,AFNE01.JPG,AFNE01.JPG,,,,,,,,,,,,,4,2,42,2,,,,,,,,,,,AMNE14.jpg,AMSA17.jpg,AMNE09.jpg,AMSA07.jpg,AMSA07.jpg,MS,2,num_4,32,num_8,1.10014885501,,,2017_Jun_19_1618,60.0106439852,FEMA4ImagesEEG,001,100716,
AFNE01.JPG,AFNE01.JPG,AFNE01.JPG,AFNE01.JPG,AFNE01.JPG,AFNE01.JPG,,,,,,,,,,,,,4,3,43,9,,,,,,,,,,,AMSA17.jpg,AMNE04.jpg,AMNE03.jpg,AMSA02.jpg,AMNE04.jpg,MN,1,num_6,32,num_2,1.40007582272,,,2017_Jun_19_1618,60.0106439852,FEMA4ImagesEEG,001,100716,
AFNE01.JPG,AFNE01.JPG,AFNE01.JPG,AFNE01.JPG,AFNE01.JPG,AFNE01.JPG,,,,,,,,,,,,,4,4,44,8,,,,,,,,,,,AMSA09.jpg,AMNE06.jpg,AMNE02.jpg,AMSA05.jpg,AMSA09.jpg,MS,2,num_8,16,num_8,0.983298153616,,,2017_Jun_19_1618,60.0106439852,FEMA4ImagesEEG,001,100716,
AFNE01.JPG,AFNE01.JPG,AFNE01.JPG,AFNE01.JPG,AFNE01.JPG,AFNE01.JPG,,,,,,,,,,,,,4,5,45,4,,,,,,,,,,,AMNE06.jpg,AMSA20.jpg,AMNE08.jpg,AMSA04.jpg,AMSA04.jpg,MS,2,num_4,16,num_4,0.966789392056,,,2017_Jun_19_1618,60.0106439852,FEMA4ImagesEEG,001,100716,
AFNE01.JPG,AFNE01.JPG,AFNE01.JPG,AFNE01.JPG,AFNE01.JPG,AFNE01.JPG,,,,,,,,,,,,,4,6,46,5,,,,,,,,,,,AMSA18.jpg,AMSA03.jpg,AMNE20.jpg,AMNE16.jpg,AMNE20.jpg,MN,1,num_2,32,num_8,1.26677890401,,,2017_Jun_19_1618,60.0106439852,FEMA4ImagesEEG,001,100716,
AFNE01.JPG,AFNE01.JPG,AFNE01.JPG,AFNE01.JPG,AFNE01.JPG,AFNE01.JPG,,,,,,,,,,,,,4,7,47,6,,,,,,,,,,,AMSA19.jpg,AMNE02.jpg,AMSA20.jpg,AMNE07.jpg,AMNE07.jpg,MN,1,num_4,16,num_4,0.966739998315,,,2017_Jun_19_1618,60.0106439852,FEMA4ImagesEEG,001,100716,
AFNE01.JPG,AFNE01.JPG,AFNE01.JPG,AFNE01.JPG,AFNE01.JPG,AFNE01.JPG,,,,,,,,,,,,,4,8,48,1,,,,,,,,,,,AMSA11.jpg,AMNE02.jpg,AMNE04.jpg,AMSA03.jpg,AMSA03.jpg,MS,2,num_4,16,num_4,1.11676378117,,,2017_Jun_19_1618,60.0106439852,FEMA4ImagesEEG,001,100716,
AFNE01.JPG,AFNE01.JPG,AFNE01.JPG,AFNE01.JPG,AFNE01.JPG,AFNE01.JPG,,,,,,,,,,,,,4,9,49,3,,,,,,,,,,,AMSA20.jpg,AMSA02.jpg,AMNE04.jpg,AMNE20.jpg,AMSA02.jpg,MS,2,num_6,16,num_6,0.866658177809,,,2017_Jun_19_1618,60.0106439852,FEMA4ImagesEEG,001,100716,
AFNE01.JPG,AFNE01.JPG,AFNE01.JPG,AFNE01.JPG,AFNE01.JPG,AFNE01.JPG,,,,,,,,,,,,,5,0,50,3,,,,,,,,,,,AMSA13.jpg,AMNE05.jpg,AMSA20.jpg,AMNE14.jpg,AMNE05.jpg,MN,1,num_6,16,num_6,0.666678640875,,,2017_Jun_19_1618,60.0106439852,FEMA4ImagesEEG,001,100716,
AFNE01.JPG,AFNE01.JPG,AFNE01.JPG,AFNE01.JPG,AFNE01.JPG,AFNE01.JPG,,,,,,,,,,,,,5,1,51,8,,,,,,,,,,,AMSA19.jpg,AMNE17.jpg,AMNE18.jpg,AMSA06.jpg,AMNE17.jpg,MN,1,num_6,32,num_8,0.833479643799,,,2017_Jun_19_1618,60.0106439852,FEMA4ImagesEEG,001,100716,
AFNE01.JPG,AFNE01.JPG,AFNE01.JPG,AFNE01.JPG,AFNE01.JPG,AFNE01.JPG,,,,,,,,,,,,,5,2,52,9,,,,,,,,,,,AMNE06.jpg,AMSA15.jpg,AMNE08.jpg,AMSA17.jpg,AMNE08.jpg,MN,1,num_2,32,num_8,1.90004294692,,,2017_Jun_19_1618,60.0106439852,FEMA4ImagesEEG,001,100716,
AFNE01.JPG,AFNE01.JPG,AFNE01.JPG,AFNE01.JPG,AFNE01.JPG,AFNE01.JPG,,,,,,,,,,,,,5,3,53,0,,,,,,,,,,,AMSA09.jpg,AMSA02.jpg,AMNE08.jpg,AMNE18.jpg,AMSA09.jpg,MS,2,num_8,32,num_2,0.900165148545,,,2017_Jun_19_1618,60.0106439852,FEMA4ImagesEEG,001,100716,
AFNE01.JPG,AFNE01.JPG,AFNE01.JPG,AFNE01.JPG,AFNE01.JPG,AFNE01.JPG,,,,,,,,,,,,,5,4,54,4,,,,,,,,,,,AMSA11.jpg,AMNE10.jpg,AMNE14.jpg,AMSA05.jpg,AMSA05.jpg,MS,2,num_4,32,num_6,0.933466204791,,,2017_Jun_19_1618,60.0106439852,FEMA4ImagesEEG,001,100716,
AFNE01.JPG,AFNE01.JPG,AFNE01.JPG,AFNE01.JPG,AFNE01.JPG,AFNE01.JPG,,,,,,,,,,,,,5,5,55,7,,,,,,,,,,,AMSA16.jpg,AMNE08.jpg,AMNE13.jpg,AMSA20.jpg,AMSA20.jpg,MS,2,num_4,32,num_8,2.31667147239,,,2017_Jun_19_1618,60.0106439852,FEMA4ImagesEEG,001,100716,
AFNE01.JPG,AFNE01.JPG,AFNE01.JPG,AFNE01.JPG,AFNE01.JPG,AFNE01.JPG,,,,,,,,,,,,,5,6,56,6,,,,,,,,,,,AMSA12.jpg,AMSA20.jpg,AMNE09.jpg,AMNE11.jpg,AMNE11.jpg,MN,1,num_4,32,num_2,1.45006717881,,,2017_Jun_19_1618,60.0106439852,FEMA4ImagesEEG,001,100716,
AFNE01.JPG,AFNE01.JPG,AFNE01.JPG,AFNE01.JPG,AFNE01.JPG,AFNE01.JPG,,,,,,,,,,,,,5,7,57,1,,,,,,,,,,,AMSA16.jpg,AMNE02.jpg,AMSA02.jpg,AMNE13.jpg,AMSA16.jpg,MS,2,num_8,16,num_8,1.41674623673,,,2017_Jun_19_1618,60.0106439852,FEMA4ImagesEEG,001,100716,
AFNE01.JPG,AFNE01.JPG,AFNE01.JPG,AFNE01.JPG,AFNE01.JPG,AFNE01.JPG,,,,,,,,,,,,,5,8,58,5,,,,,,,,,,,AMNE06.jpg,AMNE07.jpg,AMSA08.jpg,AMSA02.jpg,AMNE07.jpg,MN,1,num_6,32,num_2,0.91674254823,,,2017_Jun_19_1618,60.0106439852,FEMA4ImagesEEG,001,100716,
AFNE01.JPG,AFNE01.JPG,AFNE01.JPG,AFNE01.JPG,AFNE01.JPG,AFNE01.JPG,,,,,,,,,,,,,5,9,59,2,,,,,,,,,,,AMNE17.jpg,AMSA17.jpg,AMSA12.jpg,AMNE20.jpg,AMNE17.jpg,MN,1,num_8,32,num_6,0.533487886772,,,2017_Jun_19_1618,60.0106439852,FEMA4ImagesEEG,001,100716,
,,,,,,,,,,,,,,,,,,,,,,,,,,,,,,,,,,,,,,,,,,,space,32.2312724458,2017_Jun_19_1618,60.0106439852,FEMA4ImagesEEG,001,100716,
AFNE01.JPG,AFNE01.JPG,AFNE01.JPG,AFNE01.JPG,AFNE01.JPG,AFNE01.JPG,,,,,,,,,,,,,,,,,0,0,0,4,,,,,,,AFNE07.jpg,AFSA03.jpg,AFSA18.jpg,AFNE04.jpg,AFSA03.jpg,FS,4,num_6,32,num_2,1.23344930192,,,2017_Jun_19_1618,60.0106439852,FEMA4ImagesEEG,001,100716,
AFNE01.JPG,AFNE01.JPG,AFNE01.JPG,AFNE01.JPG,AFNE01.JPG,AFNE01.JPG,,,,,,,,,,,,,,,,,0,1,1,6,,,,,,,AFSA02.jpg,AFNE02.jpg,AFNE06.jpg,AFSA15.jpg,AFNE06.jpg,FN,3,num_2,32,num_4,0.66643552063,,,2017_Jun_19_1618,60.0106439852,FEMA4ImagesEEG,001,100716,
AFNE01.JPG,AFNE01.JPG,AFNE01.JPG,AFNE01.JPG,AFNE01.JPG,AFNE01.JPG,,,,,,,,,,,,,,,,,0,2,2,2,,,,,,,AFNE18.jpg,AFSA01.jpg,AFNE01.jpg,AFSA05.jpg,AFSA05.jpg,FS,4,num_4,32,num_2,0.833557262667,,,2017_Jun_19_1618,60.0106439852,FEMA4ImagesEEG,001,100716,
AFNE01.JPG,AFNE01.JPG,AFNE01.JPG,AFNE01.JPG,AFNE01.JPG,AFNE01.JPG,,,,,,,,,,,,,,,,,0,3,3,5,,,,,,,AFNE20.jpg,AFNE09.jpg,AFSA03.jpg,AFSA09.jpg,AFNE20.jpg,FN,3,num_8,32,num_6,0.766848664614,,,2017_Jun_19_1618,60.0106439852,FEMA4ImagesEEG,001,100716,
AFNE01.JPG,AFNE01.JPG,AFNE01.JPG,AFNE01.JPG,AFNE01.JPG,AFNE01.JPG,,,,,,,,,,,,,,,,,0,4,4,1,,,,,,,AFSA11.jpg,AFNE09.jpg,AFNE12.jpg,AFSA15.jpg,AFNE12.jpg,FN,3,num_2,16,num_2,1.38328160346,,,2017_Jun_19_1618,60.0106439852,FEMA4ImagesEEG,001,100716,
AFNE01.JPG,AFNE01.JPG,AFNE01.JPG,AFNE01.JPG,AFNE01.JPG,AFNE01.JPG,,,,,,,,,,,,,,,,,0,5,5,9,,,,,,,AFSA03.jpg,AFNE19.jpg,AFNE16.jpg,AFSA02.jpg,AFSA03.jpg,FS,4,num_8,32,num_6,0.550183959887,,,2017_Jun_19_1618,60.0106439852,FEMA4ImagesEEG,001,100716,
AFNE01.JPG,AFNE01.JPG,AFNE01.JPG,AFNE01.JPG,AFNE01.JPG,AFNE01.JPG,,,,,,,,,,,,,,,,,0,6,6,7,,,,,,,AFNE06.jpg,AFNE09.jpg,AFSA07.jpg,AFSA19.jpg,AFNE06.jpg,FN,3,num_8,16,num_8,1.15013540001,,,2017_Jun_19_1618,60.0106439852,FEMA4ImagesEEG,001,100716,
AFNE01.JPG,AFNE01.JPG,AFNE01.JPG,AFNE01.JPG,AFNE01.JPG,AFNE01.JPG,,,,,,,,,,,,,,,,,0,7,7,8,,,,,,,AFNE17.jpg,AFSA11.jpg,AFSA16.jpg,AFNE07.jpg,AFSA16.jpg,FS,4,num_2,32,num_6,0.966777524794,,,2017_Jun_19_1618,60.0106439852,FEMA4ImagesEEG,001,100716,
AFNE01.JPG,AFNE01.JPG,AFNE01.JPG,AFNE01.JPG,AFNE01.JPG,AFNE01.JPG,,,,,,,,,,,,,,,,,0,8,8,3,,,,,,,AFSA01.jpg,AFSA09.jpg,AFNE14.jpg,AFNE06.jpg,AFSA09.jpg,FS,4,num_6,32,num_4,1.05013536802,,,2017_Jun_19_1618,60.0106439852,FEMA4ImagesEEG,001,100716,
AFNE01.JPG,AFNE01.JPG,AFNE01.JPG,AFNE01.JPG,AFNE01.JPG,AFNE01.JPG,,,,,,,,,,,,,,,,,0,9,9,0,,,,,,,AFSA06.jpg,AFNE07.jpg,AFNE06.jpg,AFSA20.jpg,AFNE06.jpg,FN,3,num_2,32,num_6,0.716764935758,,,2017_Jun_19_1618,60.0106439852,FEMA4ImagesEEG,001,100716,
AFNE01.JPG,AFNE01.JPG,AFNE01.JPG,AFNE01.JPG,AFNE01.JPG,AFNE01.JPG,,,,,,,,,,,,,,,,,1,0,10,3,,,,,,,AFNE05.jpg,AFSA05.jpg,AFSA11.jpg,AFNE20.jpg,AFSA11.jpg,FS,4,num_2,32,num_8,1.0334101076,,,2017_Jun_19_1618,60.0106439852,FEMA4ImagesEEG,001,100716,
AFNE01.JPG,AFNE01.JPG,AFNE01.JPG,AFNE01.JPG,AFNE01.JPG,AFNE01.JPG,,,,,,,,,,,,,,,,,1,1,11,4,,,,,,,AFNE05.jpg,AFNE11.jpg,AFSA10.jpg,AFSA05.jpg,AFNE11.jpg,FN,3,num_6,16,num_6,2.16665314219,,,2017_Jun_19_1618,60.0106439852,FEMA4ImagesEEG,001,100716,
AFNE01.JPG,AFNE01.JPG,AFNE01.JPG,AFNE01.JPG,AFNE01.JPG,AFNE01.JPG,,,,,,,,,,,,,,,,,1,2,12,8,,,,,,,AFNE19.jpg,AFNE02.jpg,AFSA17.jpg,AFSA16.jpg,AFSA16.jpg,FS,4,num_4,32,num_2,1.4335064576,,,2017_Jun_19_1618,60.0106439852,FEMA4ImagesEEG,001,100716,
AFNE01.JPG,AFNE01.JPG,AFNE01.JPG,AFNE01.JPG,AFNE01.JPG,AFNE01.JPG,,,,,,,,,,,,,,,,,1,3,13,0,,,,,,,AFSA01.jpg,AFNE05.jpg,AFNE01.jpg,AFSA03.jpg,AFNE01.jpg,FN,3,num_2,32,num_8,0.966765657417,,,2017_Jun_19_1618,60.0106439852,FEMA4ImagesEEG,001,100716,
AFNE01.JPG,AFNE01.JPG,AFNE01.JPG,AFNE01.JPG,AFNE01.JPG,AFNE01.JPG,,,,,,,,,,,,,,,,,1,4,14,5,,,,,,,AFNE07.jpg,AFSA08.jpg,AFNE16.jpg,AFSA07.jpg,AFNE07.jpg,FN,3,num_8,16,num_8,0.96677463816,,,2017_Jun_19_1618,60.0106439852,FEMA4ImagesEEG,001,100716,
AFNE01.JPG,AFNE01.JPG,AFNE01.JPG,AFNE01.JPG,AFNE01.JPG,AFNE01.JPG,,,,,,,,,,,,,,,,,1,5,15,6,,,,,,,AFNE17.jpg,AFSA11.jpg,AFSA17.jpg,AFNE05.jpg,AFNE17.jpg,FN,3,num_8,32,num_4,2.10004493548,,,2017_Jun_19_1618,60.0106439852,FEMA4ImagesEEG,001,100716,
AFNE01.JPG,AFNE01.JPG,AFNE01.JPG,AFNE01.JPG,AFNE01.JPG,AFNE01.JPG,,,,,,,,,,,,,,,,,1,6,16,7,,,,,,,AFSA01.jpg,AFNE09.jpg,AFSA18.jpg,AFNE14.jpg,AFNE14.jpg,FN,3,num_4,16,num_4,0.916781357606,,,2017_Jun_19_1618,60.0106439852,FEMA4ImagesEEG,001,100716,
AFNE01.JPG,AFNE01.JPG,AFNE01.JPG,AFNE01.JPG,AFNE01.JPG,AFNE01.JPG,,,,,,,,,,,,,,,,,1,7,17,9,,,,,,,AFNE09.jpg,AFSA09.jpg,AFNE04.jpg,AFSA13.jpg,AFSA09.jpg,FS,4,num_6,16,num_6,0.65014678624,,,2017_Jun_19_1618,60.0106439852,FEMA4ImagesEEG,001,100716,
AFNE01.JPG,AFNE01.JPG,AFNE01.JPG,AFNE01.JPG,AFNE01.JPG,AFNE01.JPG,,,,,,,,,,,,,,,,,1,8,18,1,,,,,,,AFSA20.jpg,AFNE19.jpg,AFSA07.jpg,AFNE08.jpg,AFSA07.jpg,FS,4,num_2,16,num_2,0.833514925209,,,2017_Jun_19_1618,60.0106439852,FEMA4ImagesEEG,001,100716,
AFNE01.JPG,AFNE01.JPG,AFNE01.JPG,AFNE01.JPG,AFNE01.JPG,AFNE01.JPG,,,,,,,,,,,,,,,,,1,9,19,2,,,,,,,AFSA02.jpg,AFNE13.jpg,AFSA07.jpg,AFNE07.jpg,AFSA07.jpg,FS,4,num_2,16,num_2,0.600173070794,,,2017_Jun_19_1618,60.0106439852,FEMA4ImagesEEG,001,100716,
AFNE01.JPG,AFNE01.JPG,AFNE01.JPG,AFNE01.JPG,AFNE01.JPG,AFNE01.JPG,,,,,,,,,,,,,,,,,2,0,20,0,,,,,,,AFNE19.jpg,AFSA01.jpg,AFSA17.jpg,AFNE17.jpg,AFSA17.jpg,FS,4,num_2,32,num_4,0.883335968712,,,2017_Jun_19_1618,60.0106439852,FEMA4ImagesEEG,001,100716,
AFNE01.JPG,AFNE01.JPG,AFNE01.JPG,AFNE01.JPG,AFNE01.JPG,AFNE01.JPG,,,,,,,,,,,,,,,,,2,1,21,7,,,,,,,AFSA09.jpg,AFSA18.jpg,AFNE05.jpg,AFNE15.jpg,AFSA09.jpg,FS,4,num_8,16,num_8,1.51671804383,,,2017_Jun_19_1618,60.0106439852,FEMA4ImagesEEG,001,100716,
AFNE01.JPG,AFNE01.JPG,AFNE01.JPG,AFNE01.JPG,AFNE01.JPG,AFNE01.JPG,,,,,,,,,,,,,,,,,2,2,22,1,,,,,,,AFNE12.jpg,AFSA15.jpg,AFSA06.jpg,AFNE03.jpg,AFNE03.jpg,FN,3,num_4,32,num_2,1.63344333624,,,2017_Jun_19_1618,60.0106439852,FEMA4ImagesEEG,001,100716,
AFNE01.JPG,AFNE01.JPG,AFNE01.JPG,AFNE01.JPG,AFNE01.JPG,AFNE01.JPG,,,,,,,,,,,,,,,,,2,3,23,5,,,,,,,AFNE10.jpg,AFNE05.jpg,AFSA12.jpg,AFSA14.jpg,AFNE05.jpg,FN,3,num_6,32,num_4,1.25008732127,,,2017_Jun_19_1618,60.0106439852,FEMA4ImagesEEG,001,100716,
AFNE01.JPG,AFNE01.JPG,AFNE01.JPG,AFNE01.JPG,AFNE01.JPG,AFNE01.JPG,,,,,,,,,,,,,,,,,2,4,24,3,,,,,,,AFSA19.jpg,AFSA17.jpg,AFNE09.jpg,AFNE15.jpg,AFNE15.jpg,FN,3,num_4,32,num_8,1.30010369502,,,2017_Jun_19_1618,60.0106439852,FEMA4ImagesEEG,001,100716,
AFNE01.JPG,AFNE01.JPG,AFNE01.JPG,AFNE01.JPG,AFNE01.JPG,AFNE01.JPG,,,,,,,,,,,,,,,,,2,5,25,6,,,,,,,AFSA04.jpg,AFNE05.jpg,AFNE09.jpg,AFSA01.jpg,AFSA04.jpg,FS,4,num_8,32,num_2,1.25009726419,,,2017_Jun_19_1618,60.0106439852,FEMA4ImagesEEG,001,100716,
AFNE01.JPG,AFNE01.JPG,AFNE01.JPG,AFNE01.JPG,AFNE01.JPG,AFNE01.JPG,,,,,,,,,,,,,,,,,2,6,26,8,,,,,,,AFNE18.jpg,AFSA18.jpg,AFSA14.jpg,AFNE16.jpg,AFSA18.jpg,FS,4,num_6,16,num_6,1.61672641512,,,2017_Jun_19_1618,60.0106439852,FEMA4ImagesEEG,001,100716,
AFNE01.JPG,AFNE01.JPG,AFNE01.JPG,AFNE01.JPG,AFNE01.JPG,AFNE01.JPG,,,,,,,,,,,,,,,,,2,7,27,9,,,,,,,AFNE10.jpg,AFSA09.jpg,AFSA03.jpg,AFNE03.jpg,AFNE10.jpg,FN,3,num_8,16,num_8,1.16674519435,,,2017_Jun_19_1618,60.0106439852,FEMA4ImagesEEG,001,100716,
AFNE01.JPG,AFNE01.JPG,AFNE01.JPG,AFNE01.JPG,AFNE01.JPG,AFNE01.JPG,,,,,,,,,,,,,,,,,2,8,28,2,,,,,,,AFNE05.jpg,AFNE12.jpg,AFSA13.jpg,AFSA16.jpg,AFNE12.jpg,FN,3,num_6,16,num_6,0.666754014557,,,2017_Jun_19_1618,60.0106439852,FEMA4ImagesEEG,001,100716,
AFNE01.JPG,AFNE01.JPG,AFNE01.JPG,AFNE01.JPG,AFNE01.JPG,AFNE01.JPG,,,,,,,,,,,,,,,,,2,9,29,4,,,,,,,AFNE18.jpg,AFSA02.jpg,AFNE05.jpg,AFSA12.jpg,AFSA12.jpg,FS,4,num_4,16,num_4,0.750140403514,,,2017_Jun_19_1618,60.0106439852,FEMA4ImagesEEG,001,100716,
AFNE01.JPG,AFNE01.JPG,AFNE01.JPG,AFNE01.JPG,AFNE01.JPG,AFNE01.JPG,,,,,,,,,,,,,,,,,3,0,30,9,,,,,,,AFSA16.jpg,AFSA14.jpg,AFNE02.jpg,AFNE09.jpg,AFNE09.jpg,FN,3,num_4,32,num_2,0.999971133424,,,2017_Jun_19_1618,60.0106439852,FEMA4ImagesEEG,001,100716,
AFNE01.JPG,AFNE01.JPG,AFNE01.JPG,AFNE01.JPG,AFNE01.JPG,AFNE01.JPG,,,,,,,,,,,,,,,,,3,1,31,8,,,,,,,AFNE02.jpg,AFSA11.jpg,AFSA19.jpg,AFNE01.jpg,AFSA11.jpg,FS,4,num_6,16,num_6,3.91655427439,,,2017_Jun_19_1618,60.0106439852,FEMA4ImagesEEG,001,100716,
AFNE01.JPG,AFNE01.JPG,AFNE01.JPG,AFNE01.JPG,AFNE01.JPG,AFNE01.JPG,,,,,,,,,,,,,,,,,3,2,32,5,,,,,,,AFSA10.jpg,AFNE13.jpg,AFNE08.jpg,AFSA12.jpg,AFSA12.jpg,FS,4,num_4,16,num_4,0.750164779718,,,2017_Jun_19_1618,60.0106439852,FEMA4ImagesEEG,001,100716,
AFNE01.JPG,AFNE01.JPG,AFNE01.JPG,AFNE01.JPG,AFNE01.JPG,AFNE01.JPG,,,,,,,,,,,,,,,,,3,3,33,0,,,,,,,AFSA10.jpg,AFSA14.jpg,AFNE06.jpg,AFNE03.jpg,AFSA14.jpg,FS,4,num_6,32,num_2,1.20017935731,,,2017_Jun_19_1618,60.0106439852,FEMA4ImagesEEG,001,100716,
AFNE01.JPG,AFNE01.JPG,AFNE01.JPG,AFNE01.JPG,AFNE01.JPG,AFNE01.JPG,,,,,,,,,,,,,,,,,3,4,34,2,,,,,,,AFSA05.jpg,AFNE09.jpg,AFNE15.jpg,AFSA07.jpg,AFSA05.jpg,FS,4,num_8,32,num_6,0.983136821887,,,2017_Jun_19_1618,60.0106439852,FEMA4ImagesEEG,001,100716,
AFNE01.JPG,AFNE01.JPG,AFNE01.JPG,AFNE01.JPG,AFNE01.JPG,AFNE01.JPG,,,,,,,,,,,,,,,,,3,5,35,4,,,,,,,AFNE18.jpg,AFSA17.jpg,AFSA03.jpg,AFNE19.jpg,AFSA03.jpg,FS,4,num_2,16,num_2,1.03346559545,,,2017_Jun_19_1618,60.0106439852,FEMA4ImagesEEG,001,100716,
AFNE01.JPG,AFNE01.JPG,AFNE01.JPG,AFNE01.JPG,AFNE01.JPG,AFNE01.JPG,,,,,,,,,,,,,,,,,3,6,36,1,,,,,,,AFNE10.jpg,AFNE15.jpg,AFSA14.jpg,AFSA07.jpg,AFSA14.jpg,FS,4,num_2,16,num_2,0.816799928434,,,2017_Jun_19_1618,60.0106439852,FEMA4ImagesEEG,001,100716,
AFNE01.JPG,AFNE01.JPG,AFNE01.JPG,AFNE01.JPG,AFNE01.JPG,AFNE01.JPG,,,,,,,,,,,,,,,,,3,7,37,6,,,,,,,AFNE12.jpg,AFSA17.jpg,AFNE10.jpg,AFSA20.jpg,AFSA17.jpg,FS,4,num_6,16,num_6,0.966822749004,,,2017_Jun_19_1618,60.0106439852,FEMA4ImagesEEG,001,100716,
AFNE01.JPG,AFNE01.JPG,AFNE01.JPG,AFNE01.JPG,AFNE01.JPG,AFNE01.JPG,,,,,,,,,,,,,,,,,3,8,38,3,,,,,,,AFNE14.jpg,AFSA05.jpg,AFSA13.jpg,AFNE15.jpg,AFNE14.jpg,FN,3,num_8,16,num_8,0.933462355984,,,2017_Jun_19_1618,60.0106439852,FEMA4ImagesEEG,001,100716,
AFNE01.JPG,AFNE01.JPG,AFNE01.JPG,AFNE01.JPG,AFNE01.JPG,AFNE01.JPG,,,,,,,,,,,,,,,,,3,9,39,7,,,,,,,AFNE07.jpg,AFNE05.jpg,AFSA04.jpg,AFSA06.jpg,AFNE07.jpg,FN,3,num_8,16,num_8,0.833522622823,,,2017_Jun_19_1618,60.0106439852,FEMA4ImagesEEG,001,100716,
AFNE01.JPG,AFNE01.JPG,AFNE01.JPG,AFNE01.JPG,AFNE01.JPG,AFNE01.JPG,,,,,,,,,,,,,,,,,4,0,40,7,,,,,,,AFSA16.jpg,AFNE02.jpg,AFSA04.jpg,AFNE09.jpg,AFNE02.jpg,FN,3,num_6,32,num_2,2.2166849114,,,2017_Jun_19_1618,60.0106439852,FEMA4ImagesEEG,001,100716,
AFNE01.JPG,AFNE01.JPG,AFNE01.JPG,AFNE01.JPG,AFNE01.JPG,AFNE01.JPG,,,,,,,,,,,,,,,,,4,1,41,2,,,,,,,AFNE08.jpg,AFNE10.jpg,AFSA01.jpg,AFSA12.jpg,AFSA12.jpg,FS,4,num_4,32,num_6,1.70005956118,,,2017_Jun_19_1618,60.0106439852,FEMA4ImagesEEG,001,100716,
AFNE01.JPG,AFNE01.JPG,AFNE01.JPG,AFNE01.JPG,AFNE01.JPG,AFNE01.JPG,,,,,,,,,,,,,,,,,4,2,42,0,,,,,,,AFSA01.jpg,AFSA19.jpg,AFNE09.jpg,AFNE19.jpg,AFSA01.jpg,FS,4,num_8,32,num_6,1.83351267991,,,2017_Jun_19_1618,60.0106439852,FEMA4ImagesEEG,001,100716,
AFNE01.JPG,AFNE01.JPG,AFNE01.JPG,AFNE01.JPG,AFNE01.JPG,AFNE01.JPG,,,,,,,,,,,,,,,,,4,3,43,5,,,,,,,AFSA04.jpg,AFNE04.jpg,AFNE09.jpg,AFSA06.jpg,AFNE04.jpg,FN,3,num_6,32,num_2,0.683521291707,,,2017_Jun_19_1618,60.0106439852,FEMA4ImagesEEG,001,100716,
AFNE01.JPG,AFNE01.JPG,AFNE01.JPG,AFNE01.JPG,AFNE01.JPG,AFNE01.JPG,,,,,,,,,,,,,,,,,4,4,44,3,,,,,,,AFNE06.jpg,AFSA01.jpg,AFSA15.jpg,AFNE18.jpg,AFNE18.jpg,FN,3,num_4,16,num_4,0.716874949285,,,2017_Jun_19_1618,60.0106439852,FEMA4ImagesEEG,001,100716,
AFNE01.JPG,AFNE01.JPG,AFNE01.JPG,AFNE01.JPG,AFNE01.JPG,AFNE01.JPG,,,,,,,,,,,,,,,,,4,5,45,4,,,,,,,AFSA08.jpg,AFNE02.jpg,AFNE11.jpg,AFSA16.jpg,AFNE11.jpg,FN,3,num_2,16,num_2,0.700222817482,,,2017_Jun_19_1618,60.0106439852,FEMA4ImagesEEG,001,100716,
AFNE01.JPG,AFNE01.JPG,AFNE01.JPG,AFNE01.JPG,AFNE01.JPG,AFNE01.JPG,,,,,,,,,,,,,,,,,4,6,46,9,,,,,,,AFSA04.jpg,AFNE03.jpg,AFSA07.jpg,AFNE17.jpg,AFNE03.jpg,FN,3,num_6,32,num_8,2.46664393705,,,2017_Jun_19_1618,60.0106439852,FEMA4ImagesEEG,001,100716,
AFNE01.JPG,AFNE01.JPG,AFNE01.JPG,AFNE01.JPG,AFNE01.JPG,AFNE01.JPG,,,,,,,,,,,,,,,,,4,7,47,8,,,,,,,AFNE15.jpg,AFNE08.jpg,AFSA04.jpg,AFSA03.jpg,AFNE15.jpg,FN,3,num_8,16,num_8,0.700162197696,,,2017_Jun_19_1618,60.0106439852,FEMA4ImagesEEG,001,100716,
AFNE01.JPG,AFNE01.JPG,AFNE01.JPG,AFNE01.JPG,AFNE01.JPG,AFNE01.JPG,,,,,,,,,,,,,,,,,4,8,48,6,,,,,,,AFNE07.jpg,AFSA13.jpg,AFSA06.jpg,AFNE15.jpg,AFSA06.jpg,FS,4,num_2,16,num_2,0.850311068818,,,2017_Jun_19_1618,60.0106439852,FEMA4ImagesEEG,001,100716,
AFNE01.JPG,AFNE01.JPG,AFNE01.JPG,AFNE01.JPG,AFNE01.JPG,AFNE01.JPG,,,,,,,,,,,,,,,,,4,9,49,1,,,,,,,AFSA12.jpg,AFNE03.jpg,AFSA17.jpg,AFNE07.jpg,AFNE03.jpg,FN,3,num_6,16,num_6,0.90014943236,,,2017_Jun_19_1618,60.0106439852,FEMA4ImagesEEG,001,100716,
AFNE01.JPG,AFNE01.JPG,AFNE01.JPG,AFNE01.JPG,AFNE01.JPG,AFNE01.JPG,,,,,,,,,,,,,,,,,5,0,50,5,,,,,,,AFSA16.jpg,AFNE15.jpg,AFNE09.jpg,AFSA02.jpg,AFNE15.jpg,FN,3,num_6,16,num_6,0.633454241208,,,2017_Jun_19_1618,60.0106439852,FEMA4ImagesEEG,001,100716,
AFNE01.JPG,AFNE01.JPG,AFNE01.JPG,AFNE01.JPG,AFNE01.JPG,AFNE01.JPG,,,,,,,,,,,,,,,,,5,1,51,3,,,,,,,AFNE12.jpg,AFSA17.jpg,AFNE05.jpg,AFSA16.jpg,AFSA16.jpg,FS,4,num_4,16,num_4,1.31674909126,,,2017_Jun_19_1618,60.0106439852,FEMA4ImagesEEG,001,100716,
AFNE01.JPG,AFNE01.JPG,AFNE01.JPG,AFNE01.JPG,AFNE01.JPG,AFNE01.JPG,,,,,,,,,,,,,,,,,5,2,52,1,,,,,,,AFNE02.jpg,AFSA14.jpg,AFNE03.jpg,AFSA02.jpg,AFSA14.jpg,FS,4,num_6,32,num_4,0.816789985518,,,2017_Jun_19_1618,60.0106439852,FEMA4ImagesEEG,001,100716,
AFNE01.JPG,AFNE01.JPG,AFNE01.JPG,AFNE01.JPG,AFNE01.JPG,AFNE01.JPG,,,,,,,,,,,,,,,,,5,3,53,9,,,,,,,AFNE17.jpg,AFSA15.jpg,AFSA08.jpg,AFNE09.jpg,AFSA15.jpg,FS,4,num_6,16,num_6,1.0667531807,,,2017_Jun_19_1618,60.0106439852,FEMA4ImagesEEG,001,100716,
AFNE01.JPG,AFNE01.JPG,AFNE01.JPG,AFNE01.JPG,AFNE01.JPG,AFNE01.JPG,,,,,,,,,,,,,,,,,5,4,54,8,,,,,,,AFSA07.jpg,AFSA04.jpg,AFNE16.jpg,AFNE13.jpg,AFNE13.jpg,FN,3,num_4,16,num_4,1.61669754854,,,2017_Jun_19_1618,60.0106439852,FEMA4ImagesEEG,001,100716,
AFNE01.JPG,AFNE01.JPG,AFNE01.JPG,AFNE01.JPG,AFNE01.JPG,AFNE01.JPG,,,,,,,,,,,,,,,,,5,5,55,4,,,,,,,AFNE10.jpg,AFSA10.jpg,AFSA02.jpg,AFNE06.jpg,AFSA10.jpg,FS,4,num_6,32,num_8,1.73341193574,,,2017_Jun_19_1618,60.0106439852,FEMA4ImagesEEG,001,100716,
AFNE01.JPG,AFNE01.JPG,AFNE01.JPG,AFNE01.JPG,AFNE01.JPG,AFNE01.JPG,,,,,,,,,,,,,,,,,5,6,56,6,,,,,,,AFNE16.jpg,AFSA10.jpg,AFNE06.jpg,AFSA07.jpg,AFSA10.jpg,FS,4,num_6,16,num_6,0.866909316508,,,2017_Jun_19_1618,60.0106439852,FEMA4ImagesEEG,001,100716,
AFNE01.JPG,AFNE01.JPG,AFNE01.JPG,AFNE01.JPG,AFNE01.JPG,AFNE01.JPG,,,,,,,,,,,,,,,,,5,7,57,7,,,,,,,AFSA12.jpg,AFSA11.jpg,AFNE03.jpg,AFNE02.jpg,AFNE02.jpg,FN,3,num_4,32,num_6,0.983473918634,,,2017_Jun_19_1618,60.0106439852,FEMA4ImagesEEG,001,100716,
AFNE01.JPG,AFNE01.JPG,AFNE01.JPG,AFNE01.JPG,AFNE01.JPG,AFNE01.JPG,,,,,,,,,,,,,,,,,5,8,58,0,,,,,,,AFSA18.jpg,AFNE08.jpg,AFNE05.jpg,AFSA10.jpg,AFSA18.jpg,FS,4,num_8,32,num_2,1.0167945401,,,2017_Jun_19_1618,60.0106439852,FEMA4ImagesEEG,001,100716,
AFNE01.JPG,AFNE01.JPG,AFNE01.JPG,AFNE01.JPG,AFNE01.JPG,AFNE01.JPG,,,,,,,,,,,,,,,,,5,9,59,2,,,,,,,AFNE17.jpg,AFSA17.jpg,AFNE05.jpg,AFSA05.jpg,AFSA05.jpg,FS,4,num_4,16,num_4,0.80014843808,,,2017_Jun_19_1618,60.0106439852,FEMA4ImagesEEG,001,100716,
,,,,,,,,,,,,,,,,,,,,,,,,,,,,,,,,,,,,,,,,,,,space,32.5309556518,2017_Jun_19_1618,60.0106439852,FEMA4ImagesEEG,001,100716,
AFNE01.JPG,AFNE01.JPG,AFNE01.JPG,AFNE01.JPG,AFNE01.JPG,AFNE01.JPG,,,,,,,,,,,,,,,,,,,,,0,0,0,1,,,AMNE16.jpg,AMSA16.jpg,AMSA08.jpg,AMNE17.jpg,AMNE16.jpg,MN,1,num_8,32,num_6,1.01678620081,,,2017_Jun_19_1618,60.0106439852,FEMA4ImagesEEG,001,100716,
AFNE01.JPG,AFNE01.JPG,AFNE01.JPG,AFNE01.JPG,AFNE01.JPG,AFNE01.JPG,,,,,,,,,,,,,,,,,,,,,0,1,1,4,,,AMNE11.jpg,AMSA16.jpg,AMSA13.jpg,AMNE07.jpg,AMNE11.jpg,MN,1,num_8,32,num_6,1.23345924483,,,2017_Jun_19_1618,60.0106439852,FEMA4ImagesEEG,001,100716,
AFNE01.JPG,AFNE01.JPG,AFNE01.JPG,AFNE01.JPG,AFNE01.JPG,AFNE01.JPG,,,,,,,,,,,,,,,,,,,,,0,2,2,0,,,AMSA11.jpg,AMNE20.jpg,AMSA09.jpg,AMNE19.jpg,AMNE19.jpg,MN,1,num_4,32,num_8,0.783478986355,,,2017_Jun_19_1618,60.0106439852,FEMA4ImagesEEG,001,100716,
AFNE01.JPG,AFNE01.JPG,AFNE01.JPG,AFNE01.JPG,AFNE01.JPG,AFNE01.JPG,,,,,,,,,,,,,,,,,,,,,0,3,3,7,,,AMSA03.jpg,AMNE20.jpg,AMSA09.jpg,AMNE14.jpg,AMNE14.jpg,MN,1,num_4,16,num_4,0.583481167327,,,2017_Jun_19_1618,60.0106439852,FEMA4ImagesEEG,001,100716,
AFNE01.JPG,AFNE01.JPG,AFNE01.JPG,AFNE01.JPG,AFNE01.JPG,AFNE01.JPG,,,,,,,,,,,,,,,,,,,,,0,4,4,9,,,AMNE05.jpg,AMSA10.jpg,AMSA15.jpg,AMNE20.jpg,AMSA10.jpg,MS,2,num_6,16,num_6,0.700230194372,,,2017_Jun_19_1618,60.0106439852,FEMA4ImagesEEG,001,100716,
AFNE01.JPG,AFNE01.JPG,AFNE01.JPG,AFNE01.JPG,AFNE01.JPG,AFNE01.JPG,,,,,,,,,,,,,,,,,,,,,0,5,5,6,,,AMSA18.jpg,AMNE11.jpg,AMSA11.jpg,AMNE13.jpg,AMNE13.jpg,MN,1,num_4,32,num_8,0.900152639719,,,2017_Jun_19_1618,60.0106439852,FEMA4ImagesEEG,001,100716,
AFNE01.JPG,AFNE01.JPG,AFNE01.JPG,AFNE01.JPG,AFNE01.JPG,AFNE01.JPG,,,,,,,,,,,,,,,,,,,,,0,6,6,8,,,AMNE11.jpg,AMSA04.jpg,AMNE06.jpg,AMSA15.jpg,AMNE11.jpg,MN,1,num_8,32,num_6,1.58329128986,,,2017_Jun_19_1618,60.0106439852,FEMA4ImagesEEG,001,100716,
AFNE01.JPG,AFNE01.JPG,AFNE01.JPG,AFNE01.JPG,AFNE01.JPG,AFNE01.JPG,,,,,,,,,,,,,,,,,,,,,0,7,7,3,,,AMSA08.jpg,AMNE11.jpg,AMNE10.jpg,AMSA13.jpg,AMSA08.jpg,MS,2,num_8,16,num_8,3.53322263563,,,2017_Jun_19_1618,60.0106439852,FEMA4ImagesEEG,001,100716,
AFNE01.JPG,AFNE01.JPG,AFNE01.JPG,AFNE01.JPG,AFNE01.JPG,AFNE01.JPG,,,,,,,,,,,,,,,,,,,,,0,8,8,5,,,AMSA02.jpg,AMNE20.jpg,AMSA10.jpg,AMNE12.jpg,AMSA10.jpg,MS,2,num_2,48,None,,,,2017_Jun_19_1618,60.0106439852,FEMA4ImagesEEG,001,100716,
AFNE01.JPG,AFNE01.JPG,AFNE01.JPG,AFNE01.JPG,AFNE01.JPG,AFNE01.JPG,,,,,,,,,,,,,,,,,,,,,0,9,9,2,,,AMSA10.jpg,AMNE15.jpg,AMNE02.jpg,AMSA06.jpg,AMSA10.jpg,MS,2,num_8,32,num_6,0.615754575585,,,2017_Jun_19_1618,60.0106439852,FEMA4ImagesEEG,001,100716,
AFNE01.JPG,AFNE01.JPG,AFNE01.JPG,AFNE01.JPG,AFNE01.JPG,AFNE01.JPG,,,,,,,,,,,,,,,,,,,,,1,0,10,4,,,AMSA01.jpg,AMNE20.jpg,AMSA12.jpg,AMNE09.jpg,AMSA01.jpg,MS,2,num_8,32,num_2,2.28334668139,,,2017_Jun_19_1618,60.0106439852,FEMA4ImagesEEG,001,100716,
AFNE01.JPG,AFNE01.JPG,AFNE01.JPG,AFNE01.JPG,AFNE01.JPG,AFNE01.JPG,,,,,,,,,,,,,,,,,,,,,1,1,11,6,,,AMSA07.jpg,AMNE08.jpg,AMSA08.jpg,AMNE15.jpg,AMSA07.jpg,MS,2,num_8,16,num_8,1.75005155872,,,2017_Jun_19_1618,60.0106439852,FEMA4ImagesEEG,001,100716,
AFNE01.JPG,AFNE01.JPG,AFNE01.JPG,AFNE01.JPG,AFNE01.JPG,AFNE01.JPG,,,,,,,,,,,,,,,,,,,,,1,2,12,3,,,AMSA09.jpg,AMNE20.jpg,AMNE09.jpg,AMSA10.jpg,AMNE09.jpg,MN,1,num_2,32,num_8,2.23337681487,,,2017_Jun_19_1618,60.0106439852,FEMA4ImagesEEG,001,100716,
AFNE01.JPG,AFNE01.JPG,AFNE01.JPG,AFNE01.JPG,AFNE01.JPG,AFNE01.JPG,,,,,,,,,,,,,,,,,,,,,1,3,13,9,,,AMNE05.jpg,AMNE15.jpg,AMSA04.jpg,AMSA19.jpg,AMSA19.jpg,MS,2,num_4,32,num_6,1.0001010329,,,2017_Jun_19_1618,60.0106439852,FEMA4ImagesEEG,001,100716,
AFNE01.JPG,AFNE01.JPG,AFNE01.JPG,AFNE01.JPG,AFNE01.JPG,AFNE01.JPG,,,,,,,,,,,,,,,,,,,,,1,4,14,8,,,AMSA18.jpg,AMSA19.jpg,AMNE13.jpg,AMNE20.jpg,AMNE20.jpg,MN,1,num_4,32,num_8,1.03342293715,,,2017_Jun_19_1618,60.0106439852,FEMA4ImagesEEG,001,100716,
AFNE01.JPG,AFNE01.JPG,AFNE01.JPG,AFNE01.JPG,AFNE01.JPG,AFNE01.JPG,,,,,,,,,,,,,,,,,,,,,1,5,15,7,,,AMSA18.jpg,AMNE18.jpg,AMSA03.jpg,AMNE05.jpg,AMNE18.jpg,MN,1,num_6,32,num_4,1.25001194759,,,2017_Jun_19_1618,60.0106439852,FEMA4ImagesEEG,001,100716,
AFNE01.JPG,AFNE01.JPG,AFNE01.JPG,AFNE01.JPG,AFNE01.JPG,AFNE01.JPG,,,,,,,,,,,,,,,,,,,,,1,6,16,0,,,AMSA11.jpg,AMSA02.jpg,AMNE03.jpg,AMNE17.jpg,AMSA11.jpg,MS,2,num_8,32,num_2,0.650125296786,,,2017_Jun_19_1618,60.0106439852,FEMA4ImagesEEG,001,100716,
AFNE01.JPG,AFNE01.JPG,AFNE01.JPG,AFNE01.JPG,AFNE01.JPG,AFNE01.JPG,,,,,,,,,,,,,,,,,,,,,1,7,17,2,,,AMSA09.jpg,AMNE03.jpg,AMNE05.jpg,AMSA02.jpg,AMSA09.jpg,MS,2,num_8,32,num_6,1.13349866366,,,2017_Jun_19_1618,60.0106439852,FEMA4ImagesEEG,001,100716,
AFNE01.JPG,AFNE01.JPG,AFNE01.JPG,AFNE01.JPG,AFNE01.JPG,AFNE01.JPG,,,,,,,,,,,,,,,,,,,,,1,8,18,1,,,AMSA20.jpg,AMNE11.jpg,AMNE18.jpg,AMSA04.jpg,AMSA20.jpg,MS,2,num_8,16,num_8,0.850193357561,,,2017_Jun_19_1618,60.0106439852,FEMA4ImagesEEG,001,100716,
AFNE01.JPG,AFNE01.JPG,AFNE01.JPG,AFNE01.JPG,AFNE01.JPG,AFNE01.JPG,,,,,,,,,,,,,,,,,,,,,1,9,19,5,,,AMSA08.jpg,AMSA06.jpg,AMNE03.jpg,AMNE17.jpg,AMNE17.jpg,MN,1,num_4,16,num_4,0.900127301342,,,2017_Jun_19_1618,60.0106439852,FEMA4ImagesEEG,001,100716,
AFNE01.JPG,AFNE01.JPG,AFNE01.JPG,AFNE01.JPG,AFNE01.JPG,AFNE01.JPG,,,,,,,,,,,,,,,,,,,,,2,0,20,4,,,AMNE05.jpg,AMSA06.jpg,AMSA16.jpg,AMNE01.jpg,AMNE01.jpg,MN,1,num_4,16,num_4,0.716795726796,,,2017_Jun_19_1618,60.0106439852,FEMA4ImagesEEG,001,100716,
AFNE01.JPG,AFNE01.JPG,AFNE01.JPG,AFNE01.JPG,AFNE01.JPG,AFNE01.JPG,,,,,,,,,,,,,,,,,,,,,2,1,21,9,,,AMNE16.jpg,AMNE01.jpg,AMSA10.jpg,AMSA20.jpg,AMNE16.jpg,MN,1,num_8,16,num_8,0.766803761246,,,2017_Jun_19_1618,60.0106439852,FEMA4ImagesEEG,001,100716,
AFNE01.JPG,AFNE01.JPG,AFNE01.JPG,AFNE01.JPG,AFNE01.JPG,AFNE01.JPG,,,,,,,,,,,,,,,,,,,,,2,2,22,8,,,AMNE10.jpg,AMSA01.jpg,AMNE20.jpg,AMSA14.jpg,AMSA14.jpg,MS,2,num_4,16,num_4,0.933755832259,,,2017_Jun_19_1618,60.0106439852,FEMA4ImagesEEG,001,100716,
AFNE01.JPG,AFNE01.JPG,AFNE01.JPG,AFNE01.JPG,AFNE01.JPG,AFNE01.JPG,,,,,,,,,,,,,,,,,,,,,2,3,23,6,,,AMSA17.jpg,AMNE17.jpg,AMNE05.jpg,AMSA15.jpg,AMSA15.jpg,MS,2,num_4,32,num_2,2.49999887741,,,2017_Jun_19_1618,60.0106439852,FEMA4ImagesEEG,001,100716,
AFNE01.JPG,AFNE01.JPG,AFNE01.JPG,AFNE01.JPG,AFNE01.JPG,AFNE01.JPG,,,,,,,,,,,,,,,,,,,,,2,4,24,7,,,AMNE06.jpg,AMNE11.jpg,AMSA08.jpg,AMSA20.jpg,AMNE06.jpg,MN,1,num_8,16,num_8,1.21676413389,,,2017_Jun_19_1618,60.0106439852,FEMA4ImagesEEG,001,100716,
AFNE01.JPG,AFNE01.JPG,AFNE01.JPG,AFNE01.JPG,AFNE01.JPG,AFNE01.JPG,,,,,,,,,,,,,,,,,,,,,2,5,25,5,,,AMNE08.jpg,AMSA03.jpg,AMSA06.jpg,AMNE14.jpg,AMSA03.jpg,MS,2,num_6,32,num_2,1.01682372729,,,2017_Jun_19_1618,60.0106439852,FEMA4ImagesEEG,001,100716,
AFNE01.JPG,AFNE01.JPG,AFNE01.JPG,AFNE01.JPG,AFNE01.JPG,AFNE01.JPG,,,,,,,,,,,,,,,,,,,,,2,6,26,2,,,AMNE19.jpg,AMSA05.jpg,AMSA07.jpg,AMNE09.jpg,AMNE09.jpg,MN,1,num_4,32,num_2,0.966817937908,,,2017_Jun_19_1618,60.0106439852,FEMA4ImagesEEG,001,100716,
AFNE01.JPG,AFNE01.JPG,AFNE01.JPG,AFNE01.JPG,AFNE01.JPG,AFNE01.JPG,,,,,,,,,,,,,,,,,,,,,2,7,27,0,,,AMSA19.jpg,AMSA04.jpg,AMNE10.jpg,AMNE11.jpg,AMNE10.jpg,MN,1,num_2,32,num_8,1.00012540899,,,2017_Jun_19_1618,60.0106439852,FEMA4ImagesEEG,001,100716,
AFNE01.JPG,AFNE01.JPG,AFNE01.JPG,AFNE01.JPG,AFNE01.JPG,AFNE01.JPG,,,,,,,,,,,,,,,,,,,,,2,8,28,3,,,AMSA20.jpg,AMNE13.jpg,AMNE10.jpg,AMSA03.jpg,AMSA03.jpg,MS,2,num_4,32,num_6,0.833445004071,,,2017_Jun_19_1618,60.0106439852,FEMA4ImagesEEG,001,100716,
AFNE01.JPG,AFNE01.JPG,AFNE01.JPG,AFNE01.JPG,AFNE01.JPG,AFNE01.JPG,,,,,,,,,,,,,,,,,,,,,2,9,29,1,,,AMNE03.jpg,AMSA14.jpg,AMNE18.jpg,AMSA11.jpg,AMSA14.jpg,MS,2,num_6,16,num_6,1.18342426827,,,2017_Jun_19_1618,60.0106439852,FEMA4ImagesEEG,001,100716,
AFNE01.JPG,AFNE01.JPG,AFNE01.JPG,AFNE01.JPG,AFNE01.JPG,AFNE01.JPG,,,,,,,,,,,,,,,,,,,,,3,0,30,3,,,AMSA18.jpg,AMNE03.jpg,AMNE15.jpg,AMSA17.jpg,AMSA17.jpg,MS,2,num_4,16,num_4,1.11673715978,,,2017_Jun_19_1618,60.0106439852,FEMA4ImagesEEG,001,100716,
AFNE01.JPG,AFNE01.JPG,AFNE01.JPG,AFNE01.JPG,AFNE01.JPG,AFNE01.JPG,,,,,,,,,,,,,,,,,,,,,3,1,31,5,,,AMSA15.jpg,AMSA01.jpg,AMNE05.jpg,AMNE13.jpg,AMNE13.jpg,MN,1,num_4,32,num_8,0.800171531271,,,2017_Jun_19_1618,60.0106439852,FEMA4ImagesEEG,001,100716,
AFNE01.JPG,AFNE01.JPG,AFNE01.JPG,AFNE01.JPG,AFNE01.JPG,AFNE01.JPG,,,,,,,,,,,,,,,,,,,,,3,2,32,1,,,AMNE14.jpg,AMSA05.jpg,AMNE18.jpg,AMSA06.jpg,AMSA05.jpg,MS,2,num_6,32,num_2,0.866753437207,,,2017_Jun_19_1618,60.0106439852,FEMA4ImagesEEG,001,100716,
AFNE01.JPG,AFNE01.JPG,AFNE01.JPG,AFNE01.JPG,AFNE01.JPG,AFNE01.JPG,,,,,,,,,,,,,,,,,,,,,3,3,33,4,,,AMNE13.jpg,AMNE17.jpg,AMSA19.jpg,AMSA18.jpg,AMSA18.jpg,MS,2,num_4,16,num_4,0.833459437243,,,2017_Jun_19_1618,60.0106439852,FEMA4ImagesEEG,001,100716,
AFNE01.JPG,AFNE01.JPG,AFNE01.JPG,AFNE01.JPG,AFNE01.JPG,AFNE01.JPG,,,,,,,,,,,,,,,,,,,,,3,4,34,9,,,AMNE03.jpg,AMNE07.jpg,AMSA18.jpg,AMSA14.jpg,AMSA14.jpg,MS,2,num_4,32,num_2,0.833451739512,,,2017_Jun_19_1618,60.0106439852,FEMA4ImagesEEG,001,100716,
AFNE01.JPG,AFNE01.JPG,AFNE01.JPG,AFNE01.JPG,AFNE01.JPG,AFNE01.JPG,,,,,,,,,,,,,,,,,,,,,3,5,35,0,,,AMSA13.jpg,AMSA16.jpg,AMNE05.jpg,AMNE09.jpg,AMSA13.jpg,MS,2,num_8,16,num_8,0.866783586796,,,2017_Jun_19_1618,60.0106439852,FEMA4ImagesEEG,001,100716,
AFNE01.JPG,AFNE01.JPG,AFNE01.JPG,AFNE01.JPG,AFNE01.JPG,AFNE01.JPG,,,,,,,,,,,,,,,,,,,,,3,6,36,8,,,AMNE17.jpg,AMSA08.jpg,AMSA16.jpg,AMNE11.jpg,AMNE17.jpg,MN,1,num_8,32,num_4,0.916920558433,,,2017_Jun_19_1618,60.0106439852,FEMA4ImagesEEG,001,100716,
AFNE01.JPG,AFNE01.JPG,AFNE01.JPG,AFNE01.JPG,AFNE01.JPG,AFNE01.JPG,,,,,,,,,,,,,,,,,,,,,3,7,37,6,,,AMSA07.jpg,AMNE15.jpg,AMSA05.jpg,AMNE08.jpg,AMNE15.jpg,MN,1,num_6,16,num_6,0.633509729174,,,2017_Jun_19_1618,60.0106439852,FEMA4ImagesEEG,001,100716,
AFNE01.JPG,AFNE01.JPG,AFNE01.JPG,AFNE01.JPG,AFNE01.JPG,AFNE01.JPG,,,,,,,,,,,,,,,,,,,,,3,8,38,2,,,AMNE14.jpg,AMNE16.jpg,AMSA02.jpg,AMSA12.jpg,AMNE14.jpg,MN,1,num_8,32,num_2,0.783456534613,,,2017_Jun_19_1618,60.0106439852,FEMA4ImagesEEG,001,100716,
