IPosition2,IPosition3,IPosition1,IPosition6,IPosition4,IPosition5,TrialsM1.thisRepN,TrialsM1.thisTrialN,TrialsM1.thisN,TrialsM1.thisIndex,TrialsF1.thisRepN,TrialsF1.thisTrialN,TrialsF1.thisN,TrialsF1.thisIndex,TrialsM2.thisRepN,TrialsM2.thisTrialN,TrialsM2.thisN,TrialsM2.thisIndex,TrialsF2.thisRepN,TrialsF2.thisTrialN,TrialsF2.thisN,TrialsF2.thisIndex,TrialsM3.thisRepN,TrialsM3.thisTrialN,TrialsM3.thisN,TrialsM3.thisIndex,TrialsF3.thisRepN,TrialsF3.thisTrialN,TrialsF3.thisN,TrialsF3.thisIndex,InstrKey_resp.keys,InstrKey_resp.rt,Image0 _Position,Image1 _Position,Image2 _Position,Image3 _Position,Center_image,condition,code,correct_answer,accuracy,Key_Resp.keys,Key_Resp.rt,BreakKey_resp.keys,BreakKey_resp.rt,date,frameRate,expName,session,participant,
,,,,,,,,,,,,,,,,,,,,,,,,,,,,,,space,26.6650956861,,,,,,,,,,,,,,2017_Jun_27_1053,60.0035796626,MAFE4ImagesEEG,001,100788,
AFNE22.JPG,AFSA24.JPG,AFSA22.JPG,AFNE25.JPG,AFNE24.JPG,AFSA25.JPG,0,0,0,6,,,,,,,,,,,,,,,,,,,,,,,AMNE01.jpg,AMSA19.jpg,AMSA13.jpg,AMNE06.jpg,AMSA13.jpg,MS,2,num_2,32,num_4,2.24999695298,,,2017_Jun_27_1053,60.0035796626,MAFE4ImagesEEG,001,100788,
AFSA25.JPG,AFNE24.JPG,AFSA24.JPG,AFNE21.JPG,AFSA21.JPG,AFNE25.JPG,0,1,1,2,,,,,,,,,,,,,,,,,,,,,,,AMSA05.jpg,AMNE17.jpg,AMSA09.jpg,AMNE06.jpg,AMSA09.jpg,MS,2,num_2,32,num_8,1.60006774012,,,2017_Jun_27_1053,60.0035796626,MAFE4ImagesEEG,001,100788,
AMSA21.JPG,AMNE22.JPG,AMNE21.JPG,AMSA23.JPG,AMSA22.JPG,AMNE23.JPG,0,2,2,1,,,,,,,,,,,,,,,,,,,,,,,AMNE19.jpg,AMNE13.jpg,AMSA17.jpg,AMSA07.jpg,AMSA17.jpg,MS,2,num_2,16,num_2,2.00002886653,,,2017_Jun_27_1053,60.0035796626,MAFE4ImagesEEG,001,100788,
AMSA21.JPG,AMNE23.JPG,AMNE21.JPG,AMSA25.JPG,AMNE25.JPG,AMSA23.JPG,0,3,3,5,,,,,,,,,,,,,,,,,,,,,,,AMSA08.jpg,AMSA20.jpg,AMNE08.jpg,AMNE02.jpg,AMSA08.jpg,MS,2,num_8,32,num_2,1.68338423464,,,2017_Jun_27_1053,60.0035796626,MAFE4ImagesEEG,001,100788,
AMNE22.JPG,AMSA24.JPG,AMSA22.JPG,AMNE25.JPG,AMNE24.JPG,AMSA25.JPG,0,4,4,7,,,,,,,,,,,,,,,,,,,,,,,AMSA06.jpg,AMNE01.jpg,AMSA03.jpg,AMNE10.jpg,AMNE10.jpg,MN,1,num_4,32,num_6,2.05003114378,,,2017_Jun_27_1053,60.0035796626,MAFE4ImagesEEG,001,100788,
AFSA21.JPG,AFNE23.JPG,AFNE21.JPG,AFSA25.JPG,AFNE25.JPG,AFSA23.JPG,0,5,5,4,,,,,,,,,,,,,,,,,,,,,,,AMSA08.jpg,AMNE11.jpg,AMSA16.jpg,AMNE12.jpg,AMNE12.jpg,MN,1,num_4,16,num_4,1.56697194623,,,2017_Jun_27_1053,60.0035796626,MAFE4ImagesEEG,001,100788,
AFSA21.JPG,AFNE22.JPG,AFNE21.JPG,AFSA23.JPG,AFSA22.JPG,AFNE23.JPG,0,6,6,0,,,,,,,,,,,,,,,,,,,,,,,AMSA18.jpg,AMSA15.jpg,AMNE11.jpg,AMNE10.jpg,AMNE10.jpg,MN,1,num_4,16,num_4,1.76672927496,,,2017_Jun_27_1053,60.0035796626,MAFE4ImagesEEG,001,100788,
AMNE23.JPG,AMNE24.JPG,AMNE22.JPG,AMSA24.JPG,AMSA22.JPG,AMSA23.JPG,0,7,7,9,,,,,,,,,,,,,,,,,,,,,,,AMNE04.jpg,AMSA11.jpg,AMSA15.jpg,AMNE08.jpg,AMNE08.jpg,MN,1,num_4,32,num_8,1.49996696386,,,2017_Jun_27_1053,60.0035796626,MAFE4ImagesEEG,001,100788,
AFNE23.JPG,AFNE24.JPG,AFNE22.JPG,AFSA24.JPG,AFSA22.JPG,AFSA23.JPG,0,8,8,8,,,,,,,,,,,,,,,,,,,,,,,AMNE03.jpg,AMNE15.jpg,AMSA09.jpg,AMSA07.jpg,AMNE15.jpg,MN,1,num_6,16,num_6,1.36670945327,,,2017_Jun_27_1053,60.0035796626,MAFE4ImagesEEG,001,100788,
AMSA25.JPG,AMNE24.JPG,AMSA24.JPG,AMNE26.JPG,AMSA21.JPG,AMNE25.JPG,0,9,9,3,,,,,,,,,,,,,,,,,,,,,,,AMNE14.jpg,AMSA07.jpg,AMNE15.jpg,AMSA18.jpg,AMSA07.jpg,MS,2,num_6,16,num_6,1.61669967073,,,2017_Jun_27_1053,60.0035796626,MAFE4ImagesEEG,001,100788,
AMSA21.JPG,AMNE23.JPG,AMNE21.JPG,AMSA25.JPG,AMNE25.JPG,AMSA23.JPG,,,,,0,0,0,5,,,,,,,,,,,,,,,,,,,AFSA18.jpg,AFSA20.jpg,AFNE19.jpg,AFNE16.jpg,AFSA20.jpg,FS,4,num_6,32,num_8,1.76669174847,,,2017_Jun_27_1053,60.0035796626,MAFE4ImagesEEG,001,100788,
AMNE23.JPG,AMNE24.JPG,AMNE22.JPG,AMSA24.JPG,AMSA22.JPG,AMSA23.JPG,,,,,0,1,1,9,,,,,,,,,,,,,,,,,,,AFSA08.jpg,AFSA14.jpg,AFNE09.jpg,AFNE17.jpg,AFNE09.jpg,FN,3,num_2,16,num_2,1.78338558175,,,2017_Jun_27_1053,60.0035796626,MAFE4ImagesEEG,001,100788,
AFSA21.JPG,AFNE22.JPG,AFNE21.JPG,AFSA23.JPG,AFSA22.JPG,AFNE23.JPG,,,,,0,2,2,0,,,,,,,,,,,,,,,,,,,AFNE04.jpg,AFNE17.jpg,AFSA04.jpg,AFSA07.jpg,AFNE17.jpg,FN,3,num_6,32,num_4,1.98338186117,,,2017_Jun_27_1053,60.0035796626,MAFE4ImagesEEG,001,100788,
AMSA25.JPG,AMNE24.JPG,AMSA24.JPG,AMNE26.JPG,AMSA21.JPG,AMNE25.JPG,,,,,0,3,3,3,,,,,,,,,,,,,,,,,,,AFSA12.jpg,AFNE05.jpg,AFSA04.jpg,AFNE01.jpg,AFSA04.jpg,FS,4,num_2,32,num_8,0.983450499359,,,2017_Jun_27_1053,60.0035796626,MAFE4ImagesEEG,001,100788,
AFSA25.JPG,AFNE24.JPG,AFSA24.JPG,AFNE21.JPG,AFSA21.JPG,AFNE25.JPG,,,,,0,4,4,2,,,,,,,,,,,,,,,,,,,AFSA06.jpg,AFSA05.jpg,AFNE15.jpg,AFNE10.jpg,AFSA06.jpg,FS,4,num_8,32,num_6,1.91675214366,,,2017_Jun_27_1053,60.0035796626,MAFE4ImagesEEG,001,100788,
AMNE22.JPG,AMSA24.JPG,AMSA22.JPG,AMNE25.JPG,AMNE24.JPG,AMSA25.JPG,,,,,0,5,5,7,,,,,,,,,,,,,,,,,,,AFNE18.jpg,AFNE17.jpg,AFSA10.jpg,AFSA15.jpg,AFNE18.jpg,FN,3,num_8,16,num_8,1.43340684676,,,2017_Jun_27_1053,60.0035796626,MAFE4ImagesEEG,001,100788,
AMSA21.JPG,AMNE22.JPG,AMNE21.JPG,AMSA23.JPG,AMSA22.JPG,AMNE23.JPG,,,,,0,6,6,1,,,,,,,,,,,,,,,,,,,AFSA13.jpg,AFSA17.jpg,AFNE09.jpg,AFNE12.jpg,AFNE12.jpg,FN,3,num_4,16,num_4,1.66672023011,,,2017_Jun_27_1053,60.0035796626,MAFE4ImagesEEG,001,100788,
AFSA21.JPG,AFNE23.JPG,AFNE21.JPG,AFSA25.JPG,AFNE25.JPG,AFSA23.JPG,,,,,0,7,7,4,,,,,,,,,,,,,,,,,,,AFSA17.jpg,AFNE08.jpg,AFNE03.jpg,AFSA02.jpg,AFSA02.jpg,FS,4,num_4,16,num_4,1.23336438089,,,2017_Jun_27_1053,60.0035796626,MAFE4ImagesEEG,001,100788,
AFNE23.JPG,AFNE24.JPG,AFNE22.JPG,AFSA24.JPG,AFSA22.JPG,AFSA23.JPG,,,,,0,8,8,8,,,,,,,,,,,,,,,,,,,AFNE03.jpg,AFSA14.jpg,AFNE08.jpg,AFSA04.jpg,AFNE03.jpg,FN,3,num_8,16,num_8,1.33341864996,,,2017_Jun_27_1053,60.0035796626,MAFE4ImagesEEG,001,100788,
AFNE22.JPG,AFSA24.JPG,AFSA22.JPG,AFNE25.JPG,AFNE24.JPG,AFSA25.JPG,,,,,0,9,9,6,,,,,,,,,,,,,,,,,,,AFSA07.jpg,AFNE18.jpg,AFNE01.jpg,AFSA14.jpg,AFNE18.jpg,FN,3,num_6,32,num_4,1.91666554408,,,2017_Jun_27_1053,60.0035796626,MAFE4ImagesEEG,001,100788,
AFSA21.JPG,AFNE23.JPG,AFNE21.JPG,AFSA25.JPG,AFNE25.JPG,AFSA23.JPG,,,,,,,,,0,0,0,4,,,,,,,,,,,,,,,AMNE05.jpg,AMSA08.jpg,AMSA12.jpg,AMNE18.jpg,AMSA12.jpg,MS,2,num_2,16,num_2,1.63341595575,,,2017_Jun_27_1053,60.0035796626,MAFE4ImagesEEG,001,100788,
AFNE22.JPG,AFSA24.JPG,AFSA22.JPG,AFNE25.JPG,AFNE24.JPG,AFSA25.JPG,,,,,,,,,0,1,1,6,,,,,,,,,,,,,,,AMNE14.jpg,AMSA09.jpg,AMNE07.jpg,AMSA03.jpg,AMSA09.jpg,MS,2,num_6,16,num_6,1.20008672788,,,2017_Jun_27_1053,60.0035796626,MAFE4ImagesEEG,001,100788,
AMNE22.JPG,AMSA24.JPG,AMSA22.JPG,AMNE25.JPG,AMNE24.JPG,AMSA25.JPG,,,,,,,,,0,2,2,7,,,,,,,,,,,,,,,AMSA04.jpg,AMNE07.jpg,AMSA12.jpg,AMNE01.jpg,AMSA04.jpg,MS,2,num_8,16,num_8,1.08342875324,,,2017_Jun_27_1053,60.0035796626,MAFE4ImagesEEG,001,100788,
AFNE23.JPG,AFNE24.JPG,AFNE22.JPG,AFSA24.JPG,AFSA22.JPG,AFSA23.JPG,,,,,,,,,0,3,3,8,,,,,,,,,,,,,,,AMNE16.jpg,AMSA14.jpg,AMSA04.jpg,AMNE19.jpg,AMNE19.jpg,MN,1,num_4,32,num_8,1.31672994851,,,2017_Jun_27_1053,60.0035796626,MAFE4ImagesEEG,001,100788,
AFSA25.JPG,AFNE24.JPG,AFSA24.JPG,AFNE21.JPG,AFSA21.JPG,AFNE25.JPG,,,,,,,,,0,4,4,2,,,,,,,,,,,,,,,AMSA12.jpg,AMNE08.jpg,AMNE18.jpg,AMSA17.jpg,AMSA12.jpg,MS,2,num_8,16,num_8,2.14996673935,,,2017_Jun_27_1053,60.0035796626,MAFE4ImagesEEG,001,100788,
AFSA21.JPG,AFNE22.JPG,AFNE21.JPG,AFSA23.JPG,AFSA22.JPG,AFNE23.JPG,,,,,,,,,0,5,5,0,,,,,,,,,,,,,,,AMNE06.jpg,AMNE10.jpg,AMSA11.jpg,AMSA12.jpg,AMNE10.jpg,MN,1,num_6,32,num_2,1.60010590808,,,2017_Jun_27_1053,60.0035796626,MAFE4ImagesEEG,001,100788,
AMNE23.JPG,AMNE24.JPG,AMNE22.JPG,AMSA24.JPG,AMSA22.JPG,AMSA23.JPG,,,,,,,,,0,6,6,9,,,,,,,,,,,,,,,AMSA03.jpg,AMNE05.jpg,AMNE04.jpg,AMSA11.jpg,AMNE04.jpg,MN,1,num_2,32,num_8,1.28345710659,,,2017_Jun_27_1053,60.0035796626,MAFE4ImagesEEG,001,100788,
AMSA21.JPG,AMNE23.JPG,AMNE21.JPG,AMSA25.JPG,AMNE25.JPG,AMSA23.JPG,,,,,,,,,0,7,7,5,,,,,,,,,,,,,,,AMNE14.jpg,AMSA12.jpg,AMNE09.jpg,AMSA10.jpg,AMNE09.jpg,MN,1,num_2,32,num_4,1.81666066884,,,2017_Jun_27_1053,60.0035796626,MAFE4ImagesEEG,001,100788,
AMSA21.JPG,AMNE22.JPG,AMNE21.JPG,AMSA23.JPG,AMSA22.JPG,AMNE23.JPG,,,,,,,,,0,8,8,1,,,,,,,,,,,,,,,AMNE06.jpg,AMNE19.jpg,AMSA10.jpg,AMSA07.jpg,AMSA10.jpg,MS,2,num_2,16,num_2,1.45009169933,,,2017_Jun_27_1053,60.0035796626,MAFE4ImagesEEG,001,100788,
AMSA25.JPG,AMNE24.JPG,AMSA24.JPG,AMNE26.JPG,AMSA21.JPG,AMNE25.JPG,,,,,,,,,0,9,9,3,,,,,,,,,,,,,,,AMNE09.jpg,AMNE17.jpg,AMSA11.jpg,AMSA10.jpg,AMSA10.jpg,MS,2,num_4,16,num_4,1.60004240172,,,2017_Jun_27_1053,60.0035796626,MAFE4ImagesEEG,001,100788,
AFNE23.JPG,AFNE24.JPG,AFNE22.JPG,AFSA24.JPG,AFSA22.JPG,AFSA23.JPG,,,,,,,,,,,,,0,0,0,8,,,,,,,,,,,AFNE01.jpg,AFSA20.jpg,AFNE20.jpg,AFSA01.jpg,AFSA20.jpg,FS,4,num_6,32,num_8,1.51671756798,,,2017_Jun_27_1053,60.0035796626,MAFE4ImagesEEG,001,100788,
AMSA25.JPG,AMNE24.JPG,AMSA24.JPG,AMNE26.JPG,AMSA21.JPG,AMNE25.JPG,,,,,,,,,,,,,0,1,1,3,,,,,,,,,,,AFSA12.jpg,AFNE14.jpg,AFNE04.jpg,AFSA04.jpg,AFNE14.jpg,FN,3,num_6,32,num_8,1.38337538224,,,2017_Jun_27_1053,60.0035796626,MAFE4ImagesEEG,001,100788,
AMNE23.JPG,AMNE24.JPG,AMNE22.JPG,AMSA24.JPG,AMSA22.JPG,AMSA23.JPG,,,,,,,,,,,,,0,2,2,9,,,,,,,,,,,AFSA04.jpg,AFNE09.jpg,AFSA12.jpg,AFNE17.jpg,AFSA04.jpg,FS,4,num_8,32,num_6,1.3167257789,,,2017_Jun_27_1053,60.0035796626,MAFE4ImagesEEG,001,100788,
AMSA21.JPG,AMNE22.JPG,AMNE21.JPG,AMSA23.JPG,AMSA22.JPG,AMNE23.JPG,,,,,,,,,,,,,0,3,3,1,,,,,,,,,,,AFNE11.jpg,AFSA13.jpg,AFSA16.jpg,AFNE12.jpg,AFSA16.jpg,FS,4,num_2,16,num_2,1.43342512889,,,2017_Jun_27_1053,60.0035796626,MAFE4ImagesEEG,001,100788,
AFSA21.JPG,AFNE22.JPG,AFNE21.JPG,AFSA23.JPG,AFSA22.JPG,AFNE23.JPG,,,,,,,,,,,,,0,4,4,0,,,,,,,,,,,AFSA18.jpg,AFNE11.jpg,AFSA13.jpg,AFNE14.jpg,AFSA13.jpg,FS,4,num_2,16,num_2,1.50009846693,,,2017_Jun_27_1053,60.0035796626,MAFE4ImagesEEG,001,100788,
AFNE22.JPG,AFSA24.JPG,AFSA22.JPG,AFNE25.JPG,AFNE24.JPG,AFSA25.JPG,,,,,,,,,,,,,0,5,5,6,,,,,,,,,,,AFSA09.jpg,AFNE03.jpg,AFNE07.jpg,AFSA04.jpg,AFSA04.jpg,FS,4,num_4,32,num_8,1.18368733317,,,2017_Jun_27_1053,60.0035796626,MAFE4ImagesEEG,001,100788,
AMNE22.JPG,AMSA24.JPG,AMSA22.JPG,AMNE25.JPG,AMNE24.JPG,AMSA25.JPG,,,,,,,,,,,,,0,6,6,7,,,,,,,,,,,AFSA11.jpg,AFNE18.jpg,AFNE20.jpg,AFSA06.jpg,AFSA11.jpg,FS,4,num_8,32,num_4,1.63338516479,,,2017_Jun_27_1053,60.0035796626,MAFE4ImagesEEG,001,100788,
AMSA21.JPG,AMNE23.JPG,AMNE21.JPG,AMSA25.JPG,AMNE25.JPG,AMSA23.JPG,,,,,,,,,,,,,0,7,7,5,,,,,,,,,,,AFSA02.jpg,AFNE03.jpg,AFNE09.jpg,AFSA07.jpg,AFNE03.jpg,FN,3,num_6,32,num_8,1.15010946829,,,2017_Jun_27_1053,60.0035796626,MAFE4ImagesEEG,001,100788,
AFSA25.JPG,AFNE24.JPG,AFSA24.JPG,AFNE21.JPG,AFSA21.JPG,AFNE25.JPG,,,,,,,,,,,,,0,8,8,2,,,,,,,,,,,AFSA20.jpg,AFNE12.jpg,AFNE16.jpg,AFSA07.jpg,AFNE16.jpg,FN,3,num_2,32,num_8,1.61673270687,,,2017_Jun_27_1053,60.0035796626,MAFE4ImagesEEG,001,100788,
AFSA21.JPG,AFNE23.JPG,AFNE21.JPG,AFSA25.JPG,AFNE25.JPG,AFSA23.JPG,,,,,,,,,,,,,0,9,9,4,,,,,,,,,,,AFNE18.jpg,AFSA12.jpg,AFSA05.jpg,AFNE12.jpg,AFNE18.jpg,FN,3,num_8,16,num_8,1.98336357904,,,2017_Jun_27_1053,60.0035796626,MAFE4ImagesEEG,001,100788,
AMSA25.JPG,AMNE24.JPG,AMSA24.JPG,AMNE26.JPG,AMSA21.JPG,AMNE25.JPG,,,,,,,,,,,,,,,,,0,0,0,3,,,,,,,AMNE19.jpg,AMSA07.jpg,AMSA20.jpg,AMNE03.jpg,AMNE03.jpg,MN,1,num_4,16,num_4,1.25011466426,,,2017_Jun_27_1053,60.0035796626,MAFE4ImagesEEG,001,100788,
AFSA25.JPG,AFNE24.JPG,AFSA24.JPG,AFNE21.JPG,AFSA21.JPG,AFNE25.JPG,,,,,,,,,,,,,,,,,0,1,1,2,,,,,,,AMSA17.jpg,AMSA13.jpg,AMNE11.jpg,AMNE13.jpg,AMSA17.jpg,MS,2,num_8,32,num_4,1.83334231403,,,2017_Jun_27_1053,60.0035796626,MAFE4ImagesEEG,001,100788,
AMSA21.JPG,AMNE23.JPG,AMNE21.JPG,AMSA25.JPG,AMNE25.JPG,AMSA23.JPG,,,,,,,,,,,,,,,,,0,2,2,5,,,,,,,AMNE07.jpg,AMSA11.jpg,AMSA07.jpg,AMNE06.jpg,AMSA07.jpg,MS,2,num_2,16,num_2,0.933470673854,,,2017_Jun_27_1053,60.0035796626,MAFE4ImagesEEG,001,100788,
AMNE23.JPG,AMNE24.JPG,AMNE22.JPG,AMSA24.JPG,AMSA22.JPG,AMSA23.JPG,,,,,,,,,,,,,,,,,0,3,3,9,,,,,,,AMNE10.jpg,AMNE09.jpg,AMSA12.jpg,AMSA11.jpg,AMSA11.jpg,MS,2,num_4,32,num_8,1.58337583128,,,2017_Jun_27_1053,60.0035796626,MAFE4ImagesEEG,001,100788,
AFNE22.JPG,AFSA24.JPG,AFSA22.JPG,AFNE25.JPG,AFNE24.JPG,AFSA25.JPG,,,,,,,,,,,,,,,,,0,4,4,6,,,,,,,AMNE18.jpg,AMSA13.jpg,AMSA19.jpg,AMNE03.jpg,AMNE03.jpg,MN,1,num_4,32,num_8,1.11676830892,,,2017_Jun_27_1053,60.0035796626,MAFE4ImagesEEG,001,100788,
AFSA21.JPG,AFNE22.JPG,AFNE21.JPG,AFSA23.JPG,AFSA22.JPG,AFNE23.JPG,,,,,,,,,,,,,,,,,0,5,5,0,,,,,,,AMSA14.jpg,AMNE03.jpg,AMNE16.jpg,AMSA07.jpg,AMSA14.jpg,MS,2,num_8,32,num_2,1.45032423525,,,2017_Jun_27_1053,60.0035796626,MAFE4ImagesEEG,001,100788,
AMNE22.JPG,AMSA24.JPG,AMSA22.JPG,AMNE25.JPG,AMNE24.JPG,AMSA25.JPG,,,,,,,,,,,,,,,,,0,6,6,7,,,,,,,AMNE15.jpg,AMSA02.jpg,AMNE06.jpg,AMSA17.jpg,AMNE06.jpg,MN,1,num_2,32,num_6,1.53338670433,,,2017_Jun_27_1053,60.0035796626,MAFE4ImagesEEG,001,100788,
AFSA21.JPG,AFNE23.JPG,AFNE21.JPG,AFSA25.JPG,AFNE25.JPG,AFSA23.JPG,,,,,,,,,,,,,,,,,0,7,7,4,,,,,,,AMSA16.jpg,AMNE07.jpg,AMNE09.jpg,AMSA09.jpg,AMNE09.jpg,MN,1,num_2,32,num_8,1.28342599488,,,2017_Jun_27_1053,60.0035796626,MAFE4ImagesEEG,001,100788,
AFNE23.JPG,AFNE24.JPG,AFNE22.JPG,AFSA24.JPG,AFSA22.JPG,AFSA23.JPG,,,,,,,,,,,,,,,,,0,8,8,8,,,,,,,AMNE17.jpg,AMSA11.jpg,AMSA19.jpg,AMNE01.jpg,AMSA19.jpg,MS,2,num_2,16,num_2,2.38330834775,,,2017_Jun_27_1053,60.0035796626,MAFE4ImagesEEG,001,100788,
AMSA21.JPG,AMNE22.JPG,AMNE21.JPG,AMSA23.JPG,AMSA22.JPG,AMNE23.JPG,,,,,,,,,,,,,,,,,0,9,9,1,,,,,,,AMNE15.jpg,AMSA05.jpg,AMSA18.jpg,AMNE08.jpg,AMNE08.jpg,MN,1,num_4,32,num_6,2.11673366908,,,2017_Jun_27_1053,60.0035796626,MAFE4ImagesEEG,001,100788,
AMSA21.JPG,AMNE23.JPG,AMNE21.JPG,AMSA25.JPG,AMNE25.JPG,AMSA23.JPG,,,,,,,,,,,,,,,,,,,,,0,0,0,5,,,AFSA14.jpg,AFSA10.jpg,AFNE03.jpg,AFNE19.jpg,AFNE19.jpg,FN,3,num_4,16,num_4,2.08333926701,,,2017_Jun_27_1053,60.0035796626,MAFE4ImagesEEG,001,100788,
AFNE22.JPG,AFSA24.JPG,AFSA22.JPG,AFNE25.JPG,AFNE24.JPG,AFSA25.JPG,,,,,,,,,,,,,,,,,,,,,0,1,1,6,,,AFSA07.jpg,AFNE10.jpg,AFNE06.jpg,AFSA04.jpg,AFSA04.jpg,FS,4,num_4,16,num_4,1.58338801936,,,2017_Jun_27_1053,60.0035796626,MAFE4ImagesEEG,001,100788,
AMSA21.JPG,AMNE22.JPG,AMNE21.JPG,AMSA23.JPG,AMSA22.JPG,AMNE23.JPG,,,,,,,,,,,,,,,,,,,,,0,2,2,1,,,AFNE11.jpg,AFSA20.jpg,AFSA01.jpg,AFNE12.jpg,AFSA20.jpg,FS,4,num_6,32,num_8,1.36645093749,,,2017_Jun_27_1053,60.0035796626,MAFE4ImagesEEG,001,100788,
AMNE22.JPG,AMSA24.JPG,AMSA22.JPG,AMNE25.JPG,AMNE24.JPG,AMSA25.JPG,,,,,,,,,,,,,,,,,,,,,0,3,3,7,,,AFNE04.jpg,AFSA08.jpg,AFSA12.jpg,AFNE20.jpg,AFSA08.jpg,FS,4,num_6,16,num_6,1.86679926025,,,2017_Jun_27_1053,60.0035796626,MAFE4ImagesEEG,001,100788,
AFSA21.JPG,AFNE23.JPG,AFNE21.JPG,AFSA25.JPG,AFNE25.JPG,AFSA23.JPG,,,,,,,,,,,,,,,,,,,,,0,4,4,4,,,AFNE18.jpg,AFSA11.jpg,AFSA03.jpg,AFNE17.jpg,AFNE17.jpg,FN,3,num_4,32,num_8,1.16673370116,,,2017_Jun_27_1053,60.0035796626,MAFE4ImagesEEG,001,100788,
AMNE23.JPG,AMNE24.JPG,AMNE22.JPG,AMSA24.JPG,AMSA22.JPG,AMSA23.JPG,,,,,,,,,,,,,,,,,,,,,0,5,5,9,,,AFSA18.jpg,AFNE02.jpg,AFSA02.jpg,AFNE09.jpg,AFSA18.jpg,FS,4,num_8,16,num_8,1.43339979049,,,2017_Jun_27_1053,60.0035796626,MAFE4ImagesEEG,001,100788,
AMSA25.JPG,AMNE24.JPG,AMSA24.JPG,AMNE26.JPG,AMSA21.JPG,AMNE25.JPG,,,,,,,,,,,,,,,,,,,,,0,6,6,3,,,AFSA02.jpg,AFNE15.jpg,AFSA16.jpg,AFNE08.jpg,AFNE15.jpg,FN,3,num_6,32,num_2,1.66667564736,,,2017_Jun_27_1053,60.0035796626,MAFE4ImagesEEG,001,100788,
AFNE23.JPG,AFNE24.JPG,AFNE22.JPG,AFSA24.JPG,AFSA22.JPG,AFSA23.JPG,,,,,,,,,,,,,,,,,,,,,0,7,7,8,,,AFNE11.jpg,AFNE03.jpg,AFSA19.jpg,AFSA06.jpg,AFNE03.jpg,FN,3,num_6,32,num_4,1.50016550142,,,2017_Jun_27_1053,60.0035796626,MAFE4ImagesEEG,001,100788,
AFSA21.JPG,AFNE22.JPG,AFNE21.JPG,AFSA23.JPG,AFSA22.JPG,AFNE23.JPG,,,,,,,,,,,,,,,,,,,,,0,8,8,0,,,AFSA20.jpg,AFNE09.jpg,AFNE15.jpg,AFSA18.jpg,AFSA18.jpg,FS,4,num_4,16,num_4,1.25010055174,,,2017_Jun_27_1053,60.0035796626,MAFE4ImagesEEG,001,100788,
AFSA25.JPG,AFNE24.JPG,AFSA24.JPG,AFNE21.JPG,AFSA21.JPG,AFNE25.JPG,,,,,,,,,,,,,,,,,,,,,0,9,9,2,,,AFNE05.jpg,AFNE18.jpg,AFSA19.jpg,AFSA10.jpg,AFSA19.jpg,FS,4,num_2,32,num_6,1.71654513859,,,2017_Jun_27_1053,60.0035796626,MAFE4ImagesEEG,001,100788,
,,,,,,,,,,,,,,,,,,,,,,,,,,,,,,,,,,,,,,,,,,,space,47.5630262127,2017_Jun_27_1053,60.0035796626,MAFE4ImagesEEG,001,100788,
AFNE01.JPG,AFNE01.JPG,AFNE01.JPG,AFNE01.JPG,AFNE01.JPG,AFNE01.JPG,0,0,0,4,,,,,,,,,,,,,,,,,,,,,,,AMSA18.jpg,AMNE09.jpg,AMSA05.jpg,AMNE14.jpg,AMNE14.jpg,MN,1,num_4,16,num_4,0.983427085398,,,2017_Jun_27_1053,60.0035796626,MAFE4ImagesEEG,001,100788,
AFNE01.JPG,AFNE01.JPG,AFNE01.JPG,AFNE01.JPG,AFNE01.JPG,AFNE01.JPG,0,1,1,1,,,,,,,,,,,,,,,,,,,,,,,AMSA12.jpg,AMNE08.jpg,AMNE14.jpg,AMSA07.jpg,AMNE08.jpg,MN,1,num_6,32,num_8,0.950098434857,,,2017_Jun_27_1053,60.0035796626,MAFE4ImagesEEG,001,100788,
AFNE01.JPG,AFNE01.JPG,AFNE01.JPG,AFNE01.JPG,AFNE01.JPG,AFNE01.JPG,0,2,2,0,,,,,,,,,,,,,,,,,,,,,,,AMSA18.jpg,AMNE15.jpg,AMSA14.jpg,AMNE07.jpg,AMSA14.jpg,MS,2,num_2,32,num_6,1.50004682792,,,2017_Jun_27_1053,60.0035796626,MAFE4ImagesEEG,001,100788,
AFNE01.JPG,AFNE01.JPG,AFNE01.JPG,AFNE01.JPG,AFNE01.JPG,AFNE01.JPG,0,3,3,2,,,,,,,,,,,,,,,,,,,,,,,AMNE20.jpg,AMSA09.jpg,AMNE05.jpg,AMSA17.jpg,AMSA17.jpg,MS,2,num_4,16,num_4,1.06676122058,,,2017_Jun_27_1053,60.0035796626,MAFE4ImagesEEG,001,100788,
AFNE01.JPG,AFNE01.JPG,AFNE01.JPG,AFNE01.JPG,AFNE01.JPG,AFNE01.JPG,0,4,4,8,,,,,,,,,,,,,,,,,,,,,,,AMNE06.jpg,AMNE18.jpg,AMSA20.jpg,AMSA14.jpg,AMSA14.jpg,MS,2,num_4,32,num_2,1.28364473901,,,2017_Jun_27_1053,60.0035796626,MAFE4ImagesEEG,001,100788,
AFNE01.JPG,AFNE01.JPG,AFNE01.JPG,AFNE01.JPG,AFNE01.JPG,AFNE01.JPG,0,5,5,7,,,,,,,,,,,,,,,,,,,,,,,AMSA02.jpg,AMSA05.jpg,AMNE19.jpg,AMNE12.jpg,AMNE19.jpg,MN,1,num_2,32,num_8,1.28342182528,,,2017_Jun_27_1053,60.0035796626,MAFE4ImagesEEG,001,100788,
AFNE01.JPG,AFNE01.JPG,AFNE01.JPG,AFNE01.JPG,AFNE01.JPG,AFNE01.JPG,0,6,6,3,,,,,,,,,,,,,,,,,,,,,,,AMSA08.jpg,AMSA16.jpg,AMNE18.jpg,AMNE20.jpg,AMSA08.jpg,MS,2,num_8,16,num_8,1.46676532604,,,2017_Jun_27_1053,60.0035796626,MAFE4ImagesEEG,001,100788,
AFNE01.JPG,AFNE01.JPG,AFNE01.JPG,AFNE01.JPG,AFNE01.JPG,AFNE01.JPG,0,7,7,9,,,,,,,,,,,,,,,,,,,,,,,AMSA10.jpg,AMSA19.jpg,AMNE05.jpg,AMNE10.jpg,AMNE10.jpg,MN,1,num_4,32,num_6,1.16676545434,,,2017_Jun_27_1053,60.0035796626,MAFE4ImagesEEG,001,100788,
AFNE01.JPG,AFNE01.JPG,AFNE01.JPG,AFNE01.JPG,AFNE01.JPG,AFNE01.JPG,0,8,8,6,,,,,,,,,,,,,,,,,,,,,,,AMSA08.jpg,AMSA09.jpg,AMNE01.jpg,AMNE09.jpg,AMSA09.jpg,MS,2,num_6,32,num_8,1.21675875089,,,2017_Jun_27_1053,60.0035796626,MAFE4ImagesEEG,001,100788,
AFNE01.JPG,AFNE01.JPG,AFNE01.JPG,AFNE01.JPG,AFNE01.JPG,AFNE01.JPG,0,9,9,5,,,,,,,,,,,,,,,,,,,,,,,AMNE20.jpg,AMNE03.jpg,AMSA01.jpg,AMSA09.jpg,AMNE20.jpg,MN,1,num_8,16,num_8,1.03342198564,,,2017_Jun_27_1053,60.0035796626,MAFE4ImagesEEG,001,100788,
AFNE01.JPG,AFNE01.JPG,AFNE01.JPG,AFNE01.JPG,AFNE01.JPG,AFNE01.JPG,1,0,10,2,,,,,,,,,,,,,,,,,,,,,,,AMSA11.jpg,AMNE12.jpg,AMSA05.jpg,AMNE20.jpg,AMSA05.jpg,MS,2,num_2,32,num_8,2.19983719279,,,2017_Jun_27_1053,60.0035796626,MAFE4ImagesEEG,001,100788,
AFNE01.JPG,AFNE01.JPG,AFNE01.JPG,AFNE01.JPG,AFNE01.JPG,AFNE01.JPG,1,1,11,9,,,,,,,,,,,,,,,,,,,,,,,AMNE16.jpg,AMSA02.jpg,AMNE18.jpg,AMSA12.jpg,AMSA12.jpg,MS,2,num_4,32,num_2,2.3333535399,,,2017_Jun_27_1053,60.0035796626,MAFE4ImagesEEG,001,100788,
AFNE01.JPG,AFNE01.JPG,AFNE01.JPG,AFNE01.JPG,AFNE01.JPG,AFNE01.JPG,1,2,12,0,,,,,,,,,,,,,,,,,,,,,,,AMSA18.jpg,AMNE11.jpg,AMSA12.jpg,AMNE08.jpg,AMNE08.jpg,MN,1,num_4,16,num_4,0.850121143191,,,2017_Jun_27_1053,60.0035796626,MAFE4ImagesEEG,001,100788,
AFNE01.JPG,AFNE01.JPG,AFNE01.JPG,AFNE01.JPG,AFNE01.JPG,AFNE01.JPG,1,3,13,7,,,,,,,,,,,,,,,,,,,,,,,AMNE05.jpg,AMSA19.jpg,AMNE13.jpg,AMSA02.jpg,AMNE05.jpg,MN,1,num_8,16,num_8,1.64992921286,,,2017_Jun_27_1053,60.0035796626,MAFE4ImagesEEG,001,100788,
AFNE01.JPG,AFNE01.JPG,AFNE01.JPG,AFNE01.JPG,AFNE01.JPG,AFNE01.JPG,1,4,14,8,,,,,,,,,,,,,,,,,,,,,,,AMSA06.jpg,AMSA20.jpg,AMNE08.jpg,AMNE16.jpg,AMSA20.jpg,MS,2,num_6,32,num_4,1.3167584943,,,2017_Jun_27_1053,60.0035796626,MAFE4ImagesEEG,001,100788,
AFNE01.JPG,AFNE01.JPG,AFNE01.JPG,AFNE01.JPG,AFNE01.JPG,AFNE01.JPG,1,5,15,1,,,,,,,,,,,,,,,,,,,,,,,AMNE17.jpg,AMSA03.jpg,AMSA18.jpg,AMNE06.jpg,AMSA03.jpg,MS,2,num_6,32,num_8,2.23346958334,,,2017_Jun_27_1053,60.0035796626,MAFE4ImagesEEG,001,100788,
AFNE01.JPG,AFNE01.JPG,AFNE01.JPG,AFNE01.JPG,AFNE01.JPG,AFNE01.JPG,1,6,16,3,,,,,,,,,,,,,,,,,,,,,,,AMNE11.jpg,AMSA13.jpg,AMSA14.jpg,AMNE18.jpg,AMNE18.jpg,MN,1,num_4,16,num_4,1.73338971928,,,2017_Jun_27_1053,60.0035796626,MAFE4ImagesEEG,001,100788,
AFNE01.JPG,AFNE01.JPG,AFNE01.JPG,AFNE01.JPG,AFNE01.JPG,AFNE01.JPG,1,7,17,4,,,,,,,,,,,,,,,,,,,,,,,AMSA11.jpg,AMSA13.jpg,AMNE04.jpg,AMNE06.jpg,AMSA11.jpg,MS,2,num_8,32,num_6,1.50004682792,,,2017_Jun_27_1053,60.0035796626,MAFE4ImagesEEG,001,100788,
AFNE01.JPG,AFNE01.JPG,AFNE01.JPG,AFNE01.JPG,AFNE01.JPG,AFNE01.JPG,1,8,18,6,,,,,,,,,,,,,,,,,,,,,,,AMSA09.jpg,AMNE03.jpg,AMNE02.jpg,AMSA07.jpg,AMSA07.jpg,MS,2,num_4,32,num_6,1.99990025011,,,2017_Jun_27_1053,60.0035796626,MAFE4ImagesEEG,001,100788,
AFNE01.JPG,AFNE01.JPG,AFNE01.JPG,AFNE01.JPG,AFNE01.JPG,AFNE01.JPG,1,9,19,5,,,,,,,,,,,,,,,,,,,,,,,AMNE18.jpg,AMSA14.jpg,AMNE08.jpg,AMSA16.jpg,AMSA14.jpg,MS,2,num_6,16,num_6,1.20006748352,,,2017_Jun_27_1053,60.0035796626,MAFE4ImagesEEG,001,100788,
AFNE01.JPG,AFNE01.JPG,AFNE01.JPG,AFNE01.JPG,AFNE01.JPG,AFNE01.JPG,2,0,20,3,,,,,,,,,,,,,,,,,,,,,,,AMNE11.jpg,AMSA18.jpg,AMNE03.jpg,AMSA06.jpg,AMNE03.jpg,MN,1,num_2,32,num_8,1.14998790813,,,2017_Jun_27_1053,60.0035796626,MAFE4ImagesEEG,001,100788,
AFNE01.JPG,AFNE01.JPG,AFNE01.JPG,AFNE01.JPG,AFNE01.JPG,AFNE01.JPG,2,1,21,7,,,,,,,,,,,,,,,,,,,,,,,AMNE10.jpg,AMSA18.jpg,AMSA17.jpg,AMNE19.jpg,AMNE19.jpg,MN,1,num_4,16,num_4,1.26689285194,,,2017_Jun_27_1053,60.0035796626,MAFE4ImagesEEG,001,100788,
AFNE01.JPG,AFNE01.JPG,AFNE01.JPG,AFNE01.JPG,AFNE01.JPG,AFNE01.JPG,2,2,22,9,,,,,,,,,,,,,,,,,,,,,,,AMSA15.jpg,AMNE07.jpg,AMNE18.jpg,AMSA09.jpg,AMNE18.jpg,MN,1,num_2,32,num_8,1.58338898158,,,2017_Jun_27_1053,60.0035796626,MAFE4ImagesEEG,001,100788,
AFNE01.JPG,AFNE01.JPG,AFNE01.JPG,AFNE01.JPG,AFNE01.JPG,AFNE01.JPG,2,3,23,1,,,,,,,,,,,,,,,,,,,,,,,AMSA11.jpg,AMNE19.jpg,AMNE09.jpg,AMSA05.jpg,AMNE09.jpg,MN,1,num_2,16,num_2,1.51672783163,,,2017_Jun_27_1053,60.0035796626,MAFE4ImagesEEG,001,100788,
AFNE01.JPG,AFNE01.JPG,AFNE01.JPG,AFNE01.JPG,AFNE01.JPG,AFNE01.JPG,2,4,24,0,,,,,,,,,,,,,,,,,,,,,,,AMSA09.jpg,AMNE01.jpg,AMNE10.jpg,AMSA08.jpg,AMNE10.jpg,MN,1,num_2,16,num_2,2.11666855903,,,2017_Jun_27_1053,60.0035796626,MAFE4ImagesEEG,001,100788,
AFNE01.JPG,AFNE01.JPG,AFNE01.JPG,AFNE01.JPG,AFNE01.JPG,AFNE01.JPG,2,5,25,6,,,,,,,,,,,,,,,,,,,,,,,AMSA17.jpg,AMNE10.jpg,AMNE15.jpg,AMSA19.jpg,AMSA17.jpg,MS,2,num_8,16,num_8,1.0000801848,,,2017_Jun_27_1053,60.0035796626,MAFE4ImagesEEG,001,100788,
AFNE01.JPG,AFNE01.JPG,AFNE01.JPG,AFNE01.JPG,AFNE01.JPG,AFNE01.JPG,2,6,26,8,,,,,,,,,,,,,,,,,,,,,,,AMNE11.jpg,AMSA09.jpg,AMNE03.jpg,AMSA11.jpg,AMNE11.jpg,MN,1,num_8,16,num_8,2.23334674023,,,2017_Jun_27_1053,60.0035796626,MAFE4ImagesEEG,001,100788,
AFNE01.JPG,AFNE01.JPG,AFNE01.JPG,AFNE01.JPG,AFNE01.JPG,AFNE01.JPG,2,7,27,2,,,,,,,,,,,,,,,,,,,,,,,AMSA01.jpg,AMNE13.jpg,AMSA19.jpg,AMNE05.jpg,AMNE13.jpg,MN,1,num_6,32,num_2,1.94995346074,,,2017_Jun_27_1053,60.0035796626,MAFE4ImagesEEG,001,100788,
AFNE01.JPG,AFNE01.JPG,AFNE01.JPG,AFNE01.JPG,AFNE01.JPG,AFNE01.JPG,2,8,28,5,,,,,,,,,,,,,,,,,,,,,,,AMSA12.jpg,AMSA09.jpg,AMNE09.jpg,AMNE13.jpg,AMNE13.jpg,MN,1,num_4,16,num_4,1.78346031398,,,2017_Jun_27_1053,60.0035796626,MAFE4ImagesEEG,001,100788,
AFNE01.JPG,AFNE01.JPG,AFNE01.JPG,AFNE01.JPG,AFNE01.JPG,AFNE01.JPG,2,9,29,4,,,,,,,,,,,,,,,,,,,,,,,AMSA03.jpg,AMNE12.jpg,AMSA10.jpg,AMNE17.jpg,AMSA03.jpg,MS,2,num_8,32,num_4,2.03323980579,,,2017_Jun_27_1053,60.0035796626,MAFE4ImagesEEG,001,100788,
AFNE01.JPG,AFNE01.JPG,AFNE01.JPG,AFNE01.JPG,AFNE01.JPG,AFNE01.JPG,3,0,30,2,,,,,,,,,,,,,,,,,,,,,,,AMNE09.jpg,AMNE08.jpg,AMSA19.jpg,AMSA16.jpg,AMSA19.jpg,MS,2,num_2,32,num_6,1.21671064001,,,2017_Jun_27_1053,60.0035796626,MAFE4ImagesEEG,001,100788,
AFNE01.JPG,AFNE01.JPG,AFNE01.JPG,AFNE01.JPG,AFNE01.JPG,AFNE01.JPG,3,1,31,5,,,,,,,,,,,,,,,,,,,,,,,AMNE05.jpg,AMNE14.jpg,AMSA11.jpg,AMSA12.jpg,AMSA11.jpg,MS,2,num_2,32,num_8,1.85003967544,,,2017_Jun_27_1053,60.0035796626,MAFE4ImagesEEG,001,100788,
AFNE01.JPG,AFNE01.JPG,AFNE01.JPG,AFNE01.JPG,AFNE01.JPG,AFNE01.JPG,3,2,32,8,,,,,,,,,,,,,,,,,,,,,,,AMSA13.jpg,AMNE06.jpg,AMNE17.jpg,AMSA17.jpg,AMSA13.jpg,MS,2,num_8,32,num_2,2.73299328565,,,2017_Jun_27_1053,60.0035796626,MAFE4ImagesEEG,001,100788,
AFNE01.JPG,AFNE01.JPG,AFNE01.JPG,AFNE01.JPG,AFNE01.JPG,AFNE01.JPG,3,3,33,4,,,,,,,,,,,,,,,,,,,,,,,AMSA11.jpg,AMNE16.jpg,AMNE08.jpg,AMSA20.jpg,AMSA11.jpg,MS,2,num_8,32,num_6,1.31679602078,,,2017_Jun_27_1053,60.0035796626,MAFE4ImagesEEG,001,100788,
AFNE01.JPG,AFNE01.JPG,AFNE01.JPG,AFNE01.JPG,AFNE01.JPG,AFNE01.JPG,3,4,34,3,,,,,,,,,,,,,,,,,,,,,,,AMNE18.jpg,AMSA19.jpg,AMNE16.jpg,AMSA08.jpg,AMNE16.jpg,MN,1,num_2,32,num_8,1.48348674289,,,2017_Jun_27_1053,60.0035796626,MAFE4ImagesEEG,001,100788,
AFNE01.JPG,AFNE01.JPG,AFNE01.JPG,AFNE01.JPG,AFNE01.JPG,AFNE01.JPG,3,5,35,0,,,,,,,,,,,,,,,,,,,,,,,AMNE02.jpg,AMSA11.jpg,AMSA06.jpg,AMNE13.jpg,AMSA06.jpg,MS,2,num_2,32,num_4,1.96668289607,,,2017_Jun_27_1053,60.0035796626,MAFE4ImagesEEG,001,100788,
AFNE01.JPG,AFNE01.JPG,AFNE01.JPG,AFNE01.JPG,AFNE01.JPG,AFNE01.JPG,3,6,36,7,,,,,,,,,,,,,,,,,,,,,,,AMSA07.jpg,AMNE02.jpg,AMNE09.jpg,AMSA04.jpg,AMSA04.jpg,MS,2,num_4,32,num_6,1.26672446387,,,2017_Jun_27_1053,60.0035796626,MAFE4ImagesEEG,001,100788,
AFNE01.JPG,AFNE01.JPG,AFNE01.JPG,AFNE01.JPG,AFNE01.JPG,AFNE01.JPG,3,7,37,6,,,,,,,,,,,,,,,,,,,,,,,AMNE16.jpg,AMNE09.jpg,AMSA02.jpg,AMSA09.jpg,AMSA02.jpg,MS,2,num_2,32,num_8,1.36671554732,,,2017_Jun_27_1053,60.0035796626,MAFE4ImagesEEG,001,100788,
AFNE01.JPG,AFNE01.JPG,AFNE01.JPG,AFNE01.JPG,AFNE01.JPG,AFNE01.JPG,3,8,38,9,,,,,,,,,,,,,,,,,,,,,,,AMNE19.jpg,AMNE12.jpg,AMSA01.jpg,AMSA17.jpg,AMNE19.jpg,MN,1,num_8,32,num_4,1.55008342426,,,2017_Jun_27_1053,60.0035796626,MAFE4ImagesEEG,001,100788,
AFNE01.JPG,AFNE01.JPG,AFNE01.JPG,AFNE01.JPG,AFNE01.JPG,AFNE01.JPG,3,9,39,1,,,,,,,,,,,,,,,,,,,,,,,AMSA19.jpg,AMNE13.jpg,AMSA05.jpg,AMNE05.jpg,AMNE13.jpg,MN,1,num_6,16,num_6,1.31678094604,,,2017_Jun_27_1053,60.0035796626,MAFE4ImagesEEG,001,100788,
AFNE01.JPG,AFNE01.JPG,AFNE01.JPG,AFNE01.JPG,AFNE01.JPG,AFNE01.JPG,4,0,40,5,,,,,,,,,,,,,,,,,,,,,,,AMSA16.jpg,AMNE20.jpg,AMSA05.jpg,AMNE01.jpg,AMSA16.jpg,MS,2,num_8,32,num_2,1.10023420376,,,2017_Jun_27_1053,60.0035796626,MAFE4ImagesEEG,001,100788,
AFNE01.JPG,AFNE01.JPG,AFNE01.JPG,AFNE01.JPG,AFNE01.JPG,AFNE01.JPG,4,1,41,1,,,,,,,,,,,,,,,,,,,,,,,AMSA15.jpg,AMNE17.jpg,AMNE04.jpg,AMSA10.jpg,AMNE04.jpg,MN,1,num_2,32,num_4,1.1667340219,,,2017_Jun_27_1053,60.0035796626,MAFE4ImagesEEG,001,100788,
AFNE01.JPG,AFNE01.JPG,AFNE01.JPG,AFNE01.JPG,AFNE01.JPG,AFNE01.JPG,4,2,42,4,,,,,,,,,,,,,,,,,,,,,,,AMNE05.jpg,AMSA08.jpg,AMSA15.jpg,AMNE04.jpg,AMSA08.jpg,MS,2,num_6,32,num_8,1.19983623057,,,2017_Jun_27_1053,60.0035796626,MAFE4ImagesEEG,001,100788,
AFNE01.JPG,AFNE01.JPG,AFNE01.JPG,AFNE01.JPG,AFNE01.JPG,AFNE01.JPG,4,3,43,7,,,,,,,,,,,,,,,,,,,,,,,AMSA09.jpg,AMNE11.jpg,AMNE07.jpg,AMSA01.jpg,AMNE11.jpg,MN,1,num_6,32,num_2,2.10001962924,,,2017_Jun_27_1053,60.0035796626,MAFE4ImagesEEG,001,100788,
AFNE01.JPG,AFNE01.JPG,AFNE01.JPG,AFNE01.JPG,AFNE01.JPG,AFNE01.JPG,4,4,44,9,,,,,,,,,,,,,,,,,,,,,,,AMNE10.jpg,AMSA19.jpg,AMSA04.jpg,AMNE13.jpg,AMSA04.jpg,MS,2,num_2,32,num_6,1.5169985355,,,2017_Jun_27_1053,60.0035796626,MAFE4ImagesEEG,001,100788,
AFNE01.JPG,AFNE01.JPG,AFNE01.JPG,AFNE01.JPG,AFNE01.JPG,AFNE01.JPG,4,5,45,2,,,,,,,,,,,,,,,,,,,,,,,AMSA20.jpg,AMNE14.jpg,AMNE07.jpg,AMSA18.jpg,AMNE07.jpg,MN,1,num_2,32,num_4,0.683456721698,,,2017_Jun_27_1053,60.0035796626,MAFE4ImagesEEG,001,100788,
AFNE01.JPG,AFNE01.JPG,AFNE01.JPG,AFNE01.JPG,AFNE01.JPG,AFNE01.JPG,4,6,46,6,,,,,,,,,,,,,,,,,,,,,,,AMSA01.jpg,AMNE05.jpg,AMNE18.jpg,AMSA20.jpg,AMNE18.jpg,MN,1,num_2,32,num_8,1.40011283605,,,2017_Jun_27_1053,60.0035796626,MAFE4ImagesEEG,001,100788,
AFNE01.JPG,AFNE01.JPG,AFNE01.JPG,AFNE01.JPG,AFNE01.JPG,AFNE01.JPG,4,7,47,3,,,,,,,,,,,,,,,,,,,,,,,AMSA04.jpg,AMNE02.jpg,AMNE07.jpg,AMSA01.jpg,AMNE07.jpg,MN,1,num_2,16,num_2,2.10005234464,,,2017_Jun_27_1053,60.0035796626,MAFE4ImagesEEG,001,100788,
AFNE01.JPG,AFNE01.JPG,AFNE01.JPG,AFNE01.JPG,AFNE01.JPG,AFNE01.JPG,4,8,48,8,,,,,,,,,,,,,,,,,,,,,,,AMNE20.jpg,AMSA04.jpg,AMNE19.jpg,AMSA15.jpg,AMNE20.jpg,MN,1,num_8,16,num_8,0.850156424503,,,2017_Jun_27_1053,60.0035796626,MAFE4ImagesEEG,001,100788,
AFNE01.JPG,AFNE01.JPG,AFNE01.JPG,AFNE01.JPG,AFNE01.JPG,AFNE01.JPG,4,9,49,0,,,,,,,,,,,,,,,,,,,,,,,AMNE03.jpg,AMNE15.jpg,AMSA08.jpg,AMSA09.jpg,AMSA08.jpg,MS,2,num_2,32,num_6,1.38342285164,,,2017_Jun_27_1053,60.0035796626,MAFE4ImagesEEG,001,100788,
AFNE01.JPG,AFNE01.JPG,AFNE01.JPG,AFNE01.JPG,AFNE01.JPG,AFNE01.JPG,5,0,50,9,,,,,,,,,,,,,,,,,,,,,,,AMSA17.jpg,AMNE10.jpg,AMSA16.jpg,AMNE08.jpg,AMNE08.jpg,MN,1,num_4,16,num_4,1.40008396952,,,2017_Jun_27_1053,60.0035796626,MAFE4ImagesEEG,001,100788,
AFNE01.JPG,AFNE01.JPG,AFNE01.JPG,AFNE01.JPG,AFNE01.JPG,AFNE01.JPG,5,1,51,5,,,,,,,,,,,,,,,,,,,,,,,AMNE13.jpg,AMNE16.jpg,AMSA11.jpg,AMSA20.jpg,AMNE16.jpg,MN,1,num_6,32,num_8,1.18343362848,,,2017_Jun_27_1053,60.0035796626,MAFE4ImagesEEG,001,100788,
AFNE01.JPG,AFNE01.JPG,AFNE01.JPG,AFNE01.JPG,AFNE01.JPG,AFNE01.JPG,5,2,52,7,,,,,,,,,,,,,,,,,,,,,,,AMSA03.jpg,AMNE07.jpg,AMSA02.jpg,AMNE16.jpg,AMNE07.jpg,MN,1,num_6,32,num_4,1.73309175258,,,2017_Jun_27_1053,60.0035796626,MAFE4ImagesEEG,001,100788,
AFNE01.JPG,AFNE01.JPG,AFNE01.JPG,AFNE01.JPG,AFNE01.JPG,AFNE01.JPG,5,3,53,1,,,,,,,,,,,,,,,,,,,,,,,AMSA03.jpg,AMNE20.jpg,AMNE06.jpg,AMSA15.jpg,AMSA15.jpg,MS,2,num_4,32,num_6,1.23343622646,,,2017_Jun_27_1053,60.0035796626,MAFE4ImagesEEG,001,100788,
AFNE01.JPG,AFNE01.JPG,AFNE01.JPG,AFNE01.JPG,AFNE01.JPG,AFNE01.JPG,5,4,54,8,,,,,,,,,,,,,,,,,,,,,,,AMNE16.jpg,AMNE20.jpg,AMSA09.jpg,AMSA15.jpg,AMNE20.jpg,MN,1,num_6,32,num_2,4.683173509,,,2017_Jun_27_1053,60.0035796626,MAFE4ImagesEEG,001,100788,
AFNE01.JPG,AFNE01.JPG,AFNE01.JPG,AFNE01.JPG,AFNE01.JPG,AFNE01.JPG,5,5,55,3,,,,,,,,,,,,,,,,,,,,,,,AMSA04.jpg,AMSA01.jpg,AMNE12.jpg,AMNE19.jpg,AMSA04.jpg,MS,2,num_8,16,num_8,1.36668860523,,,2017_Jun_27_1053,60.0035796626,MAFE4ImagesEEG,001,100788,
AFNE01.JPG,AFNE01.JPG,AFNE01.JPG,AFNE01.JPG,AFNE01.JPG,AFNE01.JPG,5,6,56,0,,,,,,,,,,,,,,,,,,,,,,,AMSA07.jpg,AMSA02.jpg,AMNE07.jpg,AMNE09.jpg,AMSA02.jpg,MS,2,num_6,32,num_2,1.7500274232,,,2017_Jun_27_1053,60.0035796626,MAFE4ImagesEEG,001,100788,
AFNE01.JPG,AFNE01.JPG,AFNE01.JPG,AFNE01.JPG,AFNE01.JPG,AFNE01.JPG,5,7,57,6,,,,,,,,,,,,,,,,,,,,,,,AMNE05.jpg,AMNE02.jpg,AMSA06.jpg,AMSA07.jpg,AMNE05.jpg,MN,1,num_8,32,num_6,1.83350557028,,,2017_Jun_27_1053,60.0035796626,MAFE4ImagesEEG,001,100788,
AFNE01.JPG,AFNE01.JPG,AFNE01.JPG,AFNE01.JPG,AFNE01.JPG,AFNE01.JPG,5,8,58,4,,,,,,,,,,,,,,,,,,,,,,,AMSA08.jpg,AMNE15.jpg,AMSA15.jpg,AMNE03.jpg,AMNE15.jpg,MN,1,num_6,32,num_8,1.25008740143,,,2017_Jun_27_1053,60.0035796626,MAFE4ImagesEEG,001,100788,
AFNE01.JPG,AFNE01.JPG,AFNE01.JPG,AFNE01.JPG,AFNE01.JPG,AFNE01.JPG,5,9,59,2,,,,,,,,,,,,,,,,,,,,,,,AMSA03.jpg,AMNE08.jpg,AMSA18.jpg,AMNE18.jpg,AMSA18.jpg,MS,2,num_2,16,num_2,1.11679460953,,,2017_Jun_27_1053,60.0035796626,MAFE4ImagesEEG,001,100788,
,,,,,,,,,,,,,,,,,,,,,,,,,,,,,,,,,,,,,,,,,,,space,45.8798767592,2017_Jun_27_1053,60.0035796626,MAFE4ImagesEEG,001,100788,
AFNE01.JPG,AFNE01.JPG,AFNE01.JPG,AFNE01.JPG,AFNE01.JPG,AFNE01.JPG,,,,,0,0,0,6,,,,,,,,,,,,,,,,,,,AFNE16.jpg,AFNE02.jpg,AFSA11.jpg,AFSA12.jpg,AFSA12.jpg,FS,4,num_4,16,num_4,1.66680586747,,,2017_Jun_27_1053,60.0035796626,MAFE4ImagesEEG,001,100788,
AFNE01.JPG,AFNE01.JPG,AFNE01.JPG,AFNE01.JPG,AFNE01.JPG,AFNE01.JPG,,,,,0,1,1,1,,,,,,,,,,,,,,,,,,,AFSA19.jpg,AFSA08.jpg,AFNE13.jpg,AFNE15.jpg,AFNE15.jpg,FN,3,num_4,32,num_2,2.20008191679,,,2017_Jun_27_1053,60.0035796626,MAFE4ImagesEEG,001,100788,
AFNE01.JPG,AFNE01.JPG,AFNE01.JPG,AFNE01.JPG,AFNE01.JPG,AFNE01.JPG,,,,,0,2,2,3,,,,,,,,,,,,,,,,,,,AFNE18.jpg,AFNE04.jpg,AFSA02.jpg,AFSA15.jpg,AFNE18.jpg,FN,3,num_8,32,num_4,1.2998132015,,,2017_Jun_27_1053,60.0035796626,MAFE4ImagesEEG,001,100788,
AFNE01.JPG,AFNE01.JPG,AFNE01.JPG,AFNE01.JPG,AFNE01.JPG,AFNE01.JPG,,,,,0,3,3,0,,,,,,,,,,,,,,,,,,,AFNE13.jpg,AFSA19.jpg,AFNE01.jpg,AFSA10.jpg,AFSA10.jpg,FS,4,num_4,32,num_8,1.01679807351,,,2017_Jun_27_1053,60.0035796626,MAFE4ImagesEEG,001,100788,
AFNE01.JPG,AFNE01.JPG,AFNE01.JPG,AFNE01.JPG,AFNE01.JPG,AFNE01.JPG,,,,,0,4,4,2,,,,,,,,,,,,,,,,,,,AFNE03.jpg,AFSA04.jpg,AFSA14.jpg,AFNE05.jpg,AFSA14.jpg,FS,4,num_2,32,num_6,0.900106100524,,,2017_Jun_27_1053,60.0035796626,MAFE4ImagesEEG,001,100788,
AFNE01.JPG,AFNE01.JPG,AFNE01.JPG,AFNE01.JPG,AFNE01.JPG,AFNE01.JPG,,,,,0,5,5,9,,,,,,,,,,,,,,,,,,,AFNE18.jpg,AFSA14.jpg,AFSA20.jpg,AFNE10.jpg,AFNE10.jpg,FN,3,num_4,16,num_4,1.33353700272,,,2017_Jun_27_1053,60.0035796626,MAFE4ImagesEEG,001,100788,
AFNE01.JPG,AFNE01.JPG,AFNE01.JPG,AFNE01.JPG,AFNE01.JPG,AFNE01.JPG,,,,,0,6,6,8,,,,,,,,,,,,,,,,,,,AFSA06.jpg,AFNE02.jpg,AFSA04.jpg,AFNE04.jpg,AFSA06.jpg,FS,4,num_8,16,num_8,0.900165437273,,,2017_Jun_27_1053,60.0035796626,MAFE4ImagesEEG,001,100788,
AFNE01.JPG,AFNE01.JPG,AFNE01.JPG,AFNE01.JPG,AFNE01.JPG,AFNE01.JPG,,,,,0,7,7,7,,,,,,,,,,,,,,,,,,,AFNE16.jpg,AFSA06.jpg,AFNE05.jpg,AFSA02.jpg,AFSA06.jpg,FS,4,num_6,32,num_4,1.3000178331,,,2017_Jun_27_1053,60.0035796626,MAFE4ImagesEEG,001,100788,
AFNE01.JPG,AFNE01.JPG,AFNE01.JPG,AFNE01.JPG,AFNE01.JPG,AFNE01.JPG,,,,,0,8,8,5,,,,,,,,,,,,,,,,,,,AFSA01.jpg,AFNE19.jpg,AFSA16.jpg,AFNE16.jpg,AFNE16.jpg,FN,3,num_4,32,num_8,2.05003403043,,,2017_Jun_27_1053,60.0035796626,MAFE4ImagesEEG,001,100788,
AFNE01.JPG,AFNE01.JPG,AFNE01.JPG,AFNE01.JPG,AFNE01.JPG,AFNE01.JPG,,,,,0,9,9,4,,,,,,,,,,,,,,,,,,,AFNE04.jpg,AFSA15.jpg,AFSA03.jpg,AFNE17.jpg,AFNE04.jpg,FN,3,num_8,16,num_8,1.36681465573,,,2017_Jun_27_1053,60.0035796626,MAFE4ImagesEEG,001,100788,
AFNE01.JPG,AFNE01.JPG,AFNE01.JPG,AFNE01.JPG,AFNE01.JPG,AFNE01.JPG,,,,,1,0,10,3,,,,,,,,,,,,,,,,,,,AFSA10.jpg,AFNE01.jpg,AFSA19.jpg,AFNE14.jpg,AFNE14.jpg,FN,3,num_4,32,num_8,1.31673443886,,,2017_Jun_27_1053,60.0035796626,MAFE4ImagesEEG,001,100788,
AFNE01.JPG,AFNE01.JPG,AFNE01.JPG,AFNE01.JPG,AFNE01.JPG,AFNE01.JPG,,,,,1,1,11,9,,,,,,,,,,,,,,,,,,,AFSA03.jpg,AFSA15.jpg,AFNE06.jpg,AFNE04.jpg,AFNE04.jpg,FN,3,num_4,32,num_6,0.766831270018,,,2017_Jun_27_1053,60.0035796626,MAFE4ImagesEEG,001,100788,
AFNE01.JPG,AFNE01.JPG,AFNE01.JPG,AFNE01.JPG,AFNE01.JPG,AFNE01.JPG,,,,,1,2,12,8,,,,,,,,,,,,,,,,,,,AFNE20.jpg,AFSA12.jpg,AFNE01.jpg,AFSA14.jpg,AFNE20.jpg,FN,3,num_8,16,num_8,1.56673748588,,,2017_Jun_27_1053,60.0035796626,MAFE4ImagesEEG,001,100788,
AFNE01.JPG,AFNE01.JPG,AFNE01.JPG,AFNE01.JPG,AFNE01.JPG,AFNE01.JPG,,,,,1,3,13,4,,,,,,,,,,,,,,,,,,,AFSA12.jpg,AFSA18.jpg,AFNE13.jpg,AFNE14.jpg,AFNE13.jpg,FN,3,num_2,32,num_4,1.51671468132,,,2017_Jun_27_1053,60.0035796626,MAFE4ImagesEEG,001,100788,
AFNE01.JPG,AFNE01.JPG,AFNE01.JPG,AFNE01.JPG,AFNE01.JPG,AFNE01.JPG,,,,,1,4,14,5,,,,,,,,,,,,,,,,,,,AFNE06.jpg,AFSA11.jpg,AFNE18.jpg,AFSA18.jpg,AFSA18.jpg,FS,4,num_4,32,num_2,1.10002796846,,,2017_Jun_27_1053,60.0035796626,MAFE4ImagesEEG,001,100788,
AFNE01.JPG,AFNE01.JPG,AFNE01.JPG,AFNE01.JPG,AFNE01.JPG,AFNE01.JPG,,,,,1,5,15,7,,,,,,,,,,,,,,,,,,,AFNE09.jpg,AFSA06.jpg,AFNE06.jpg,AFSA18.jpg,AFSA06.jpg,FS,4,num_6,16,num_6,1.6000577972,,,2017_Jun_27_1053,60.0035796626,MAFE4ImagesEEG,001,100788,
AFNE01.JPG,AFNE01.JPG,AFNE01.JPG,AFNE01.JPG,AFNE01.JPG,AFNE01.JPG,,,,,1,6,16,1,,,,,,,,,,,,,,,,,,,AFNE15.jpg,AFSA17.jpg,AFSA04.jpg,AFNE11.jpg,AFNE15.jpg,FN,3,num_8,16,num_8,0.800138110295,,,2017_Jun_27_1053,60.0035796626,MAFE4ImagesEEG,001,100788,
AFNE01.JPG,AFNE01.JPG,AFNE01.JPG,AFNE01.JPG,AFNE01.JPG,AFNE01.JPG,,,,,1,7,17,2,,,,,,,,,,,,,,,,,,,AFNE18.jpg,AFSA13.jpg,AFSA02.jpg,AFNE03.jpg,AFSA13.jpg,FS,4,num_6,32,num_2,1.18341149747,,,2017_Jun_27_1053,60.0035796626,MAFE4ImagesEEG,001,100788,
AFNE01.JPG,AFNE01.JPG,AFNE01.JPG,AFNE01.JPG,AFNE01.JPG,AFNE01.JPG,,,,,1,8,18,6,,,,,,,,,,,,,,,,,,,AFSA14.jpg,AFNE07.jpg,AFNE10.jpg,AFSA05.jpg,AFNE10.jpg,FN,3,num_2,32,num_6,1.9500006094,,,2017_Jun_27_1053,60.0035796626,MAFE4ImagesEEG,001,100788,
AFNE01.JPG,AFNE01.JPG,AFNE01.JPG,AFNE01.JPG,AFNE01.JPG,AFNE01.JPG,,,,,1,9,19,0,,,,,,,,,,,,,,,,,,,AFSA03.jpg,AFNE13.jpg,AFSA11.jpg,AFNE11.jpg,AFNE13.jpg,FN,3,num_6,16,num_6,1.6334900465,,,2017_Jun_27_1053,60.0035796626,MAFE4ImagesEEG,001,100788,
AFNE01.JPG,AFNE01.JPG,AFNE01.JPG,AFNE01.JPG,AFNE01.JPG,AFNE01.JPG,,,,,2,0,20,7,,,,,,,,,,,,,,,,,,,AFNE14.jpg,AFSA18.jpg,AFNE06.jpg,AFSA10.jpg,AFSA18.jpg,FS,4,num_6,32,num_4,1.85000022452,,,2017_Jun_27_1053,60.0035796626,MAFE4ImagesEEG,001,100788,
AFNE01.JPG,AFNE01.JPG,AFNE01.JPG,AFNE01.JPG,AFNE01.JPG,AFNE01.JPG,,,,,2,1,21,4,,,,,,,,,,,,,,,,,,,AFSA08.jpg,AFNE03.jpg,AFSA13.jpg,AFNE07.jpg,AFSA08.jpg,FS,4,num_8,32,num_4,1.61667625677,,,2017_Jun_27_1053,60.0035796626,MAFE4ImagesEEG,001,100788,
AFNE01.JPG,AFNE01.JPG,AFNE01.JPG,AFNE01.JPG,AFNE01.JPG,AFNE01.JPG,,,,,2,2,22,5,,,,,,,,,,,,,,,,,,,AFNE13.jpg,AFNE01.jpg,AFSA17.jpg,AFSA14.jpg,AFNE01.jpg,FN,3,num_6,32,num_2,2.56650751588,,,2017_Jun_27_1053,60.0035796626,MAFE4ImagesEEG,001,100788,
AFNE01.JPG,AFNE01.JPG,AFNE01.JPG,AFNE01.JPG,AFNE01.JPG,AFNE01.JPG,,,,,2,3,23,8,,,,,,,,,,,,,,,,,,,AFSA03.jpg,AFSA05.jpg,AFNE06.jpg,AFNE03.jpg,AFSA05.jpg,FS,4,num_6,32,num_8,0.400165437273,,,2017_Jun_27_1053,60.0035796626,MAFE4ImagesEEG,001,100788,
AFNE01.JPG,AFNE01.JPG,AFNE01.JPG,AFNE01.JPG,AFNE01.JPG,AFNE01.JPG,,,,,2,4,24,1,,,,,,,,,,,,,,,,,,,AFNE05.jpg,AFSA11.jpg,AFSA01.jpg,AFNE09.jpg,AFSA11.jpg,FS,4,num_6,32,num_4,2.66662497057,,,2017_Jun_27_1053,60.0035796626,MAFE4ImagesEEG,001,100788,
AFNE01.JPG,AFNE01.JPG,AFNE01.JPG,AFNE01.JPG,AFNE01.JPG,AFNE01.JPG,,,,,2,5,25,3,,,,,,,,,,,,,,,,,,,AFNE18.jpg,AFSA05.jpg,AFNE11.jpg,AFSA16.jpg,AFSA05.jpg,FS,4,num_6,16,num_6,1.90035018305,,,2017_Jun_27_1053,60.0035796626,MAFE4ImagesEEG,001,100788,
AFNE01.JPG,AFNE01.JPG,AFNE01.JPG,AFNE01.JPG,AFNE01.JPG,AFNE01.JPG,,,,,2,6,26,2,,,,,,,,,,,,,,,,,,,AFNE02.jpg,AFNE16.jpg,AFSA18.jpg,AFSA08.jpg,AFNE16.jpg,FN,3,num_6,32,num_8,2.21669620675,,,2017_Jun_27_1053,60.0035796626,MAFE4ImagesEEG,001,100788,
AFNE01.JPG,AFNE01.JPG,AFNE01.JPG,AFNE01.JPG,AFNE01.JPG,AFNE01.JPG,,,,,2,7,27,6,,,,,,,,,,,,,,,,,,,AFSA03.jpg,AFNE10.jpg,AFSA19.jpg,AFNE16.jpg,AFNE16.jpg,FN,3,num_4,32,num_8,1.61672789578,,,2017_Jun_27_1053,60.0035796626,MAFE4ImagesEEG,001,100788,
AFNE01.JPG,AFNE01.JPG,AFNE01.JPG,AFNE01.JPG,AFNE01.JPG,AFNE01.JPG,,,,,2,8,28,0,,,,,,,,,,,,,,,,,,,AFNE09.jpg,AFSA11.jpg,AFNE06.jpg,AFSA12.jpg,AFSA11.jpg,FS,4,num_6,32,num_8,2.816589144,,,2017_Jun_27_1053,60.0035796626,MAFE4ImagesEEG,001,100788,
AFNE01.JPG,AFNE01.JPG,AFNE01.JPG,AFNE01.JPG,AFNE01.JPG,AFNE01.JPG,,,,,2,9,29,9,,,,,,,,,,,,,,,,,,,AFNE20.jpg,AFNE12.jpg,AFSA11.jpg,AFSA01.jpg,AFNE12.jpg,FN,3,num_6,16,num_6,4.16655087982,,,2017_Jun_27_1053,60.0035796626,MAFE4ImagesEEG,001,100788,
AFNE01.JPG,AFNE01.JPG,AFNE01.JPG,AFNE01.JPG,AFNE01.JPG,AFNE01.JPG,,,,,3,0,30,4,,,,,,,,,,,,,,,,,,,AFSA14.jpg,AFNE19.jpg,AFSA10.jpg,AFNE02.jpg,AFNE02.jpg,FN,3,num_4,16,num_4,2.1666317061,,,2017_Jun_27_1053,60.0035796626,MAFE4ImagesEEG,001,100788,
AFNE01.JPG,AFNE01.JPG,AFNE01.JPG,AFNE01.JPG,AFNE01.JPG,AFNE01.JPG,,,,,3,1,31,1,,,,,,,,,,,,,,,,,,,AFSA04.jpg,AFSA13.jpg,AFNE01.jpg,AFNE20.jpg,AFNE01.jpg,FN,3,num_2,48,None,,,,2017_Jun_27_1053,60.0035796626,MAFE4ImagesEEG,001,100788,
AFNE01.JPG,AFNE01.JPG,AFNE01.JPG,AFNE01.JPG,AFNE01.JPG,AFNE01.JPG,,,,,3,2,32,8,,,,,,,,,,,,,,,,,,,AFSA12.jpg,AFNE02.jpg,AFNE15.jpg,AFSA08.jpg,AFNE02.jpg,FN,3,num_6,32,num_8,1.00014433263,,,2017_Jun_27_1053,60.0035796626,MAFE4ImagesEEG,001,100788,
AFNE01.JPG,AFNE01.JPG,AFNE01.JPG,AFNE01.JPG,AFNE01.JPG,AFNE01.JPG,,,,,3,3,33,5,,,,,,,,,,,,,,,,,,,AFNE11.jpg,AFSA01.jpg,AFSA15.jpg,AFNE03.jpg,AFNE03.jpg,FN,3,num_4,32,num_2,1.10013990643,,,2017_Jun_27_1053,60.0035796626,MAFE4ImagesEEG,001,100788,
AFNE01.JPG,AFNE01.JPG,AFNE01.JPG,AFNE01.JPG,AFNE01.JPG,AFNE01.JPG,,,,,3,4,34,2,,,,,,,,,,,,,,,,,,,AFSA10.jpg,AFNE19.jpg,AFNE03.jpg,AFSA04.jpg,AFNE19.jpg,FN,3,num_6,32,num_4,0.966792588873,,,2017_Jun_27_1053,60.0035796626,MAFE4ImagesEEG,001,100788,
AFNE01.JPG,AFNE01.JPG,AFNE01.JPG,AFNE01.JPG,AFNE01.JPG,AFNE01.JPG,,,,,3,5,35,7,,,,,,,,,,,,,,,,,,,AFNE01.jpg,AFSA01.jpg,AFSA09.jpg,AFNE11.jpg,AFNE01.jpg,FN,3,num_8,16,num_8,1.01673296346,,,2017_Jun_27_1053,60.0035796626,MAFE4ImagesEEG,001,100788,
AFNE01.JPG,AFNE01.JPG,AFNE01.JPG,AFNE01.JPG,AFNE01.JPG,AFNE01.JPG,,,,,3,6,36,0,,,,,,,,,,,,,,,,,,,AFSA10.jpg,AFNE09.jpg,AFSA02.jpg,AFNE02.jpg,AFNE09.jpg,FN,3,num_6,16,num_6,1.30007364172,,,2017_Jun_27_1053,60.0035796626,MAFE4ImagesEEG,001,100788,
AFNE01.JPG,AFNE01.JPG,AFNE01.JPG,AFNE01.JPG,AFNE01.JPG,AFNE01.JPG,,,,,3,7,37,6,,,,,,,,,,,,,,,,,,,AFNE07.jpg,AFSA02.jpg,AFNE15.jpg,AFSA13.jpg,AFSA13.jpg,FS,4,num_4,32,num_8,0.916766576924,,,2017_Jun_27_1053,60.0035796626,MAFE4ImagesEEG,001,100788,
AFNE01.JPG,AFNE01.JPG,AFNE01.JPG,AFNE01.JPG,AFNE01.JPG,AFNE01.JPG,,,,,3,8,38,3,,,,,,,,,,,,,,,,,,,AFSA20.jpg,AFNE14.jpg,AFSA05.jpg,AFNE17.jpg,AFSA20.jpg,FS,4,num_8,32,num_4,1.30011341338,,,2017_Jun_27_1053,60.0035796626,MAFE4ImagesEEG,001,100788,
AFNE01.JPG,AFNE01.JPG,AFNE01.JPG,AFNE01.JPG,AFNE01.JPG,AFNE01.JPG,,,,,3,9,39,9,,,,,,,,,,,,,,,,,,,AFNE01.jpg,AFNE03.jpg,AFSA14.jpg,AFSA19.jpg,AFNE03.jpg,FN,3,num_6,32,num_8,1.23338715337,,,2017_Jun_27_1053,60.0035796626,MAFE4ImagesEEG,001,100788,
AFNE01.JPG,AFNE01.JPG,AFNE01.JPG,AFNE01.JPG,AFNE01.JPG,AFNE01.JPG,,,,,4,0,40,0,,,,,,,,,,,,,,,,,,,AFNE15.jpg,AFSA12.jpg,AFSA04.jpg,AFNE12.jpg,AFNE12.jpg,FN,3,num_4,16,num_4,1.58348808999,,,2017_Jun_27_1053,60.0035796626,MAFE4ImagesEEG,001,100788,
AFNE01.JPG,AFNE01.JPG,AFNE01.JPG,AFNE01.JPG,AFNE01.JPG,AFNE01.JPG,,,,,4,1,41,9,,,,,,,,,,,,,,,,,,,AFSA03.jpg,AFNE07.jpg,AFNE19.jpg,AFSA18.jpg,AFSA18.jpg,FS,4,num_4,16,num_4,0.849806498048,,,2017_Jun_27_1053,60.0035796626,MAFE4ImagesEEG,001,100788,
AFNE01.JPG,AFNE01.JPG,AFNE01.JPG,AFNE01.JPG,AFNE01.JPG,AFNE01.JPG,,,,,4,2,42,5,,,,,,,,,,,,,,,,,,,AFNE02.jpg,AFNE01.jpg,AFSA14.jpg,AFSA16.jpg,AFSA16.jpg,FS,4,num_4,16,num_4,0.949959875527,,,2017_Jun_27_1053,60.0035796626,MAFE4ImagesEEG,001,100788,
AFNE01.JPG,AFNE01.JPG,AFNE01.JPG,AFNE01.JPG,AFNE01.JPG,AFNE01.JPG,,,,,4,3,43,8,,,,,,,,,,,,,,,,,,,AFSA06.jpg,AFNE16.jpg,AFNE02.jpg,AFSA02.jpg,AFNE02.jpg,FN,3,num_2,32,num_8,1.61673174465,,,2017_Jun_27_1053,60.0035796626,MAFE4ImagesEEG,001,100788,
AFNE01.JPG,AFNE01.JPG,AFNE01.JPG,AFNE01.JPG,AFNE01.JPG,AFNE01.JPG,,,,,4,4,44,6,,,,,,,,,,,,,,,,,,,AFNE09.jpg,AFSA02.jpg,AFSA13.jpg,AFNE04.jpg,AFSA13.jpg,FS,4,num_2,32,num_6,1.11690847194,,,2017_Jun_27_1053,60.0035796626,MAFE4ImagesEEG,001,100788,
AFNE01.JPG,AFNE01.JPG,AFNE01.JPG,AFNE01.JPG,AFNE01.JPG,AFNE01.JPG,,,,,4,5,45,7,,,,,,,,,,,,,,,,,,,AFSA07.jpg,AFNE20.jpg,AFNE06.jpg,AFSA18.jpg,AFSA18.jpg,FS,4,num_4,32,num_8,1.05011100783,,,2017_Jun_27_1053,60.0035796626,MAFE4ImagesEEG,001,100788,
AFNE01.JPG,AFNE01.JPG,AFNE01.JPG,AFNE01.JPG,AFNE01.JPG,AFNE01.JPG,,,,,4,6,46,3,,,,,,,,,,,,,,,,,,,AFNE07.jpg,AFNE15.jpg,AFSA11.jpg,AFSA19.jpg,AFNE15.jpg,FN,3,num_6,32,num_4,0.899976521891,,,2017_Jun_27_1053,60.0035796626,MAFE4ImagesEEG,001,100788,
AFNE01.JPG,AFNE01.JPG,AFNE01.JPG,AFNE01.JPG,AFNE01.JPG,AFNE01.JPG,,,,,4,7,47,2,,,,,,,,,,,,,,,,,,,AFNE06.jpg,AFSA11.jpg,AFSA07.jpg,AFNE03.jpg,AFNE03.jpg,FN,3,num_4,16,num_4,0.783451654021,,,2017_Jun_27_1053,60.0035796626,MAFE4ImagesEEG,001,100788,
AFNE01.JPG,AFNE01.JPG,AFNE01.JPG,AFNE01.JPG,AFNE01.JPG,AFNE01.JPG,,,,,4,8,48,1,,,,,,,,,,,,,,,,,,,AFSA17.jpg,AFSA12.jpg,AFNE10.jpg,AFNE05.jpg,AFNE10.jpg,FN,3,num_2,32,num_8,0.66675647364,,,2017_Jun_27_1053,60.0035796626,MAFE4ImagesEEG,001,100788,
AFNE01.JPG,AFNE01.JPG,AFNE01.JPG,AFNE01.JPG,AFNE01.JPG,AFNE01.JPG,,,,,4,9,49,4,,,,,,,,,,,,,,,,,,,AFNE20.jpg,AFNE19.jpg,AFSA03.jpg,AFSA06.jpg,AFSA03.jpg,FS,4,num_2,32,num_8,1.08345152572,,,2017_Jun_27_1053,60.0035796626,MAFE4ImagesEEG,001,100788,
AFNE01.JPG,AFNE01.JPG,AFNE01.JPG,AFNE01.JPG,AFNE01.JPG,AFNE01.JPG,,,,,5,0,50,7,,,,,,,,,,,,,,,,,,,AFNE18.jpg,AFSA20.jpg,AFSA15.jpg,AFNE05.jpg,AFSA20.jpg,FS,4,num_6,32,num_4,0.866775204808,,,2017_Jun_27_1053,60.0035796626,MAFE4ImagesEEG,001,100788,
AFNE01.JPG,AFNE01.JPG,AFNE01.JPG,AFNE01.JPG,AFNE01.JPG,AFNE01.JPG,,,,,5,1,51,3,,,,,,,,,,,,,,,,,,,AFSA16.jpg,AFSA09.jpg,AFNE14.jpg,AFNE03.jpg,AFNE14.jpg,FN,3,num_2,32,num_6,1.35008073005,,,2017_Jun_27_1053,60.0035796626,MAFE4ImagesEEG,001,100788,
AFNE01.JPG,AFNE01.JPG,AFNE01.JPG,AFNE01.JPG,AFNE01.JPG,AFNE01.JPG,,,,,5,2,52,6,,,,,,,,,,,,,,,,,,,AFNE16.jpg,AFSA04.jpg,AFNE19.jpg,AFSA16.jpg,AFNE19.jpg,FN,3,num_2,32,num_8,1.63313113935,,,2017_Jun_27_1053,60.0035796626,MAFE4ImagesEEG,001,100788,
AFNE01.JPG,AFNE01.JPG,AFNE01.JPG,AFNE01.JPG,AFNE01.JPG,AFNE01.JPG,,,,,5,3,53,9,,,,,,,,,,,,,,,,,,,AFNE13.jpg,AFNE06.jpg,AFSA08.jpg,AFSA17.jpg,AFNE13.jpg,FN,3,num_8,32,num_4,3.99987298728,,,2017_Jun_27_1053,60.0035796626,MAFE4ImagesEEG,001,100788,
AFNE01.JPG,AFNE01.JPG,AFNE01.JPG,AFNE01.JPG,AFNE01.JPG,AFNE01.JPG,,,,,5,4,54,2,,,,,,,,,,,,,,,,,,,AFNE08.jpg,AFSA02.jpg,AFNE16.jpg,AFSA16.jpg,AFNE16.jpg,FN,3,num_2,32,num_4,1.01675220781,,,2017_Jun_27_1053,60.0035796626,MAFE4ImagesEEG,001,100788,
AFNE01.JPG,AFNE01.JPG,AFNE01.JPG,AFNE01.JPG,AFNE01.JPG,AFNE01.JPG,,,,,5,5,55,4,,,,,,,,,,,,,,,,,,,AFNE19.jpg,AFNE14.jpg,AFSA18.jpg,AFSA19.jpg,AFNE19.jpg,FN,3,num_8,48,None,,,,2017_Jun_27_1053,60.0035796626,MAFE4ImagesEEG,001,100788,
AFNE01.JPG,AFNE01.JPG,AFNE01.JPG,AFNE01.JPG,AFNE01.JPG,AFNE01.JPG,,,,,5,6,56,1,,,,,,,,,,,,,,,,,,,AFSA06.jpg,AFSA15.jpg,AFNE04.jpg,AFNE15.jpg,AFSA06.jpg,FS,4,num_8,16,num_8,0.60008634299,,,2017_Jun_27_1053,60.0035796626,MAFE4ImagesEEG,001,100788,
AFNE01.JPG,AFNE01.JPG,AFNE01.JPG,AFNE01.JPG,AFNE01.JPG,AFNE01.JPG,,,,,5,7,57,8,,,,,,,,,,,,,,,,,,,AFNE12.jpg,AFSA08.jpg,AFNE13.jpg,AFSA01.jpg,AFNE13.jpg,FN,3,num_2,32,num_8,1.15010177054,,,2017_Jun_27_1053,60.0035796626,MAFE4ImagesEEG,001,100788,
AFNE01.JPG,AFNE01.JPG,AFNE01.JPG,AFNE01.JPG,AFNE01.JPG,AFNE01.JPG,,,,,5,8,58,5,,,,,,,,,,,,,,,,,,,AFSA06.jpg,AFNE15.jpg,AFNE05.jpg,AFSA19.jpg,AFSA19.jpg,FS,4,num_4,32,num_2,2.01666528749,,,2017_Jun_27_1053,60.0035796626,MAFE4ImagesEEG,001,100788,
AFNE01.JPG,AFNE01.JPG,AFNE01.JPG,AFNE01.JPG,AFNE01.JPG,AFNE01.JPG,,,,,5,9,59,0,,,,,,,,,,,,,,,,,,,AFNE09.jpg,AFSA09.jpg,AFSA07.jpg,AFNE17.jpg,AFNE17.jpg,FN,3,num_4,16,num_4,0.850100936623,,,2017_Jun_27_1053,60.0035796626,MAFE4ImagesEEG,001,100788,
,,,,,,,,,,,,,,,,,,,,,,,,,,,,,,,,,,,,,,,,,,,space,30.5477057847,2017_Jun_27_1053,60.0035796626,MAFE4ImagesEEG,001,100788,
AFNE01.JPG,AFNE01.JPG,AFNE01.JPG,AFNE01.JPG,AFNE01.JPG,AFNE01.JPG,,,,,,,,,0,0,0,7,,,,,,,,,,,,,,,AMSA05.jpg,AMNE02.jpg,AMSA09.jpg,AMNE18.jpg,AMSA09.jpg,MS,2,num_2,32,num_8,1.46672779956,,,2017_Jun_27_1053,60.0035796626,MAFE4ImagesEEG,001,100788,
AFNE01.JPG,AFNE01.JPG,AFNE01.JPG,AFNE01.JPG,AFNE01.JPG,AFNE01.JPG,,,,,,,,,0,1,1,5,,,,,,,,,,,,,,,AMNE15.jpg,AMNE06.jpg,AMSA11.jpg,AMSA06.jpg,AMNE15.jpg,MN,1,num_8,32,num_6,1.30008615055,,,2017_Jun_27_1053,60.0035796626,MAFE4ImagesEEG,001,100788,
AFNE01.JPG,AFNE01.JPG,AFNE01.JPG,AFNE01.JPG,AFNE01.JPG,AFNE01.JPG,,,,,,,,,0,2,2,9,,,,,,,,,,,,,,,AMSA14.jpg,AMSA19.jpg,AMNE17.jpg,AMNE07.jpg,AMNE07.jpg,MN,1,num_4,16,num_4,1.05010363083,,,2017_Jun_27_1053,60.0035796626,MAFE4ImagesEEG,001,100788,
AFNE01.JPG,AFNE01.JPG,AFNE01.JPG,AFNE01.JPG,AFNE01.JPG,AFNE01.JPG,,,,,,,,,0,3,3,4,,,,,,,,,,,,,,,AMSA10.jpg,AMNE12.jpg,AMSA19.jpg,AMNE04.jpg,AMNE12.jpg,MN,1,num_6,16,num_6,0.884465254003,,,2017_Jun_27_1053,60.0035796626,MAFE4ImagesEEG,001,100788,
AFNE01.JPG,AFNE01.JPG,AFNE01.JPG,AFNE01.JPG,AFNE01.JPG,AFNE01.JPG,,,,,,,,,0,4,4,8,,,,,,,,,,,,,,,AMNE12.jpg,AMSA14.jpg,AMNE17.jpg,AMSA15.jpg,AMNE12.jpg,MN,1,num_8,16,num_8,1.51692412401,,,2017_Jun_27_1053,60.0035796626,MAFE4ImagesEEG,001,100788,
AFNE01.JPG,AFNE01.JPG,AFNE01.JPG,AFNE01.JPG,AFNE01.JPG,AFNE01.JPG,,,,,,,,,0,5,5,2,,,,,,,,,,,,,,,AMNE10.jpg,AMSA03.jpg,AMSA01.jpg,AMNE13.jpg,AMSA03.jpg,MS,2,num_6,16,num_6,1.53297872409,,,2017_Jun_27_1053,60.0035796626,MAFE4ImagesEEG,001,100788,
AFNE01.JPG,AFNE01.JPG,AFNE01.JPG,AFNE01.JPG,AFNE01.JPG,AFNE01.JPG,,,,,,,,,0,6,6,3,,,,,,,,,,,,,,,AMNE17.jpg,AMSA07.jpg,AMSA08.jpg,AMNE10.jpg,AMNE10.jpg,MN,1,num_4,32,num_2,0.900119571569,,,2017_Jun_27_1053,60.0035796626,MAFE4ImagesEEG,001,100788,
AFNE01.JPG,AFNE01.JPG,AFNE01.JPG,AFNE01.JPG,AFNE01.JPG,AFNE01.JPG,,,,,,,,,0,7,7,0,,,,,,,,,,,,,,,AMNE20.jpg,AMNE19.jpg,AMSA14.jpg,AMSA16.jpg,AMNE19.jpg,MN,1,num_6,32,num_4,1.0001186735,,,2017_Jun_27_1053,60.0035796626,MAFE4ImagesEEG,001,100788,
AFNE01.JPG,AFNE01.JPG,AFNE01.JPG,AFNE01.JPG,AFNE01.JPG,AFNE01.JPG,,,,,,,,,0,8,8,1,,,,,,,,,,,,,,,AMNE13.jpg,AMNE17.jpg,AMSA06.jpg,AMSA20.jpg,AMNE13.jpg,MN,1,num_8,16,num_8,1.45014943239,,,2017_Jun_27_1053,60.0035796626,MAFE4ImagesEEG,001,100788,
AFNE01.JPG,AFNE01.JPG,AFNE01.JPG,AFNE01.JPG,AFNE01.JPG,AFNE01.JPG,,,,,,,,,0,9,9,6,,,,,,,,,,,,,,,AMNE04.jpg,AMSA05.jpg,AMSA12.jpg,AMNE01.jpg,AMNE04.jpg,MN,1,num_8,32,num_4,1.23346605521,,,2017_Jun_27_1053,60.0035796626,MAFE4ImagesEEG,001,100788,
AFNE01.JPG,AFNE01.JPG,AFNE01.JPG,AFNE01.JPG,AFNE01.JPG,AFNE01.JPG,,,,,,,,,1,0,10,3,,,,,,,,,,,,,,,AMNE01.jpg,AMSA12.jpg,AMSA07.jpg,AMNE08.jpg,AMSA07.jpg,MS,2,num_2,16,num_2,2.91666233669,,,2017_Jun_27_1053,60.0035796626,MAFE4ImagesEEG,001,100788,
AFNE01.JPG,AFNE01.JPG,AFNE01.JPG,AFNE01.JPG,AFNE01.JPG,AFNE01.JPG,,,,,,,,,1,1,11,0,,,,,,,,,,,,,,,AMNE03.jpg,AMSA05.jpg,AMSA19.jpg,AMNE17.jpg,AMNE03.jpg,MN,1,num_8,16,num_8,1.88335036458,,,2017_Jun_27_1053,60.0035796626,MAFE4ImagesEEG,001,100788,
AFNE01.JPG,AFNE01.JPG,AFNE01.JPG,AFNE01.JPG,AFNE01.JPG,AFNE01.JPG,,,,,,,,,1,2,12,2,,,,,,,,,,,,,,,AMSA16.jpg,AMSA09.jpg,AMNE03.jpg,AMNE05.jpg,AMNE03.jpg,MN,1,num_2,16,num_2,1.76672574683,,,2017_Jun_27_1053,60.0035796626,MAFE4ImagesEEG,001,100788,
AFNE01.JPG,AFNE01.JPG,AFNE01.JPG,AFNE01.JPG,AFNE01.JPG,AFNE01.JPG,,,,,,,,,1,3,13,5,,,,,,,,,,,,,,,AMSA15.jpg,AMNE14.jpg,AMSA09.jpg,AMNE19.jpg,AMSA15.jpg,MS,2,num_8,16,num_8,2.56659154955,,,2017_Jun_27_1053,60.0035796626,MAFE4ImagesEEG,001,100788,
AFNE01.JPG,AFNE01.JPG,AFNE01.JPG,AFNE01.JPG,AFNE01.JPG,AFNE01.JPG,,,,,,,,,1,4,14,8,,,,,,,,,,,,,,,AMNE02.jpg,AMSA15.jpg,AMNE10.jpg,AMSA20.jpg,AMNE02.jpg,MN,1,num_8,16,num_8,1.51668324888,,,2017_Jun_27_1053,60.0035796626,MAFE4ImagesEEG,001,100788,
AFNE01.JPG,AFNE01.JPG,AFNE01.JPG,AFNE01.JPG,AFNE01.JPG,AFNE01.JPG,,,,,,,,,1,5,15,1,,,,,,,,,,,,,,,AMNE08.jpg,AMSA04.jpg,AMSA13.jpg,AMNE16.jpg,AMSA04.jpg,MS,2,num_6,32,num_2,3.34994377442,,,2017_Jun_27_1053,60.0035796626,MAFE4ImagesEEG,001,100788,
AFNE01.JPG,AFNE01.JPG,AFNE01.JPG,AFNE01.JPG,AFNE01.JPG,AFNE01.JPG,,,,,,,,,1,6,16,9,,,,,,,,,,,,,,,AMSA08.jpg,AMNE10.jpg,AMNE09.jpg,AMSA02.jpg,AMNE09.jpg,MN,1,num_2,16,num_2,1.38338500442,,,2017_Jun_27_1053,60.0035796626,MAFE4ImagesEEG,001,100788,
AFNE01.JPG,AFNE01.JPG,AFNE01.JPG,AFNE01.JPG,AFNE01.JPG,AFNE01.JPG,,,,,,,,,1,7,17,7,,,,,,,,,,,,,,,AMNE06.jpg,AMSA09.jpg,AMNE14.jpg,AMSA16.jpg,AMNE14.jpg,MN,1,num_2,32,num_8,2.85020261094,,,2017_Jun_27_1053,60.0035796626,MAFE4ImagesEEG,001,100788,
AFNE01.JPG,AFNE01.JPG,AFNE01.JPG,AFNE01.JPG,AFNE01.JPG,AFNE01.JPG,,,,,,,,,1,8,18,6,,,,,,,,,,,,,,,AMNE19.jpg,AMSA11.jpg,AMSA16.jpg,AMNE04.jpg,AMSA11.jpg,MS,2,num_6,16,num_6,2.10002187441,,,2017_Jun_27_1053,60.0035796626,MAFE4ImagesEEG,001,100788,
AFNE01.JPG,AFNE01.JPG,AFNE01.JPG,AFNE01.JPG,AFNE01.JPG,AFNE01.JPG,,,,,,,,,1,9,19,4,,,,,,,,,,,,,,,AMNE09.jpg,AMNE07.jpg,AMSA07.jpg,AMSA18.jpg,AMNE07.jpg,MN,1,num_6,16,num_6,1.06681253885,,,2017_Jun_27_1053,60.0035796626,MAFE4ImagesEEG,001,100788,
AFNE01.JPG,AFNE01.JPG,AFNE01.JPG,AFNE01.JPG,AFNE01.JPG,AFNE01.JPG,,,,,,,,,2,0,20,4,,,,,,,,,,,,,,,AMSA16.jpg,AMNE06.jpg,AMSA08.jpg,AMNE02.jpg,AMSA16.jpg,MS,2,num_8,16,num_8,1.20008384122,,,2017_Jun_27_1053,60.0035796626,MAFE4ImagesEEG,001,100788,
AFNE01.JPG,AFNE01.JPG,AFNE01.JPG,AFNE01.JPG,AFNE01.JPG,AFNE01.JPG,,,,,,,,,2,1,21,3,,,,,,,,,,,,,,,AMSA15.jpg,AMNE04.jpg,AMSA10.jpg,AMNE16.jpg,AMNE04.jpg,MN,1,num_6,16,num_6,1.21673116732,,,2017_Jun_27_1053,60.0035796626,MAFE4ImagesEEG,001,100788,
AFNE01.JPG,AFNE01.JPG,AFNE01.JPG,AFNE01.JPG,AFNE01.JPG,AFNE01.JPG,,,,,,,,,2,2,22,6,,,,,,,,,,,,,,,AMNE12.jpg,AMSA20.jpg,AMSA10.jpg,AMNE15.jpg,AMNE15.jpg,MN,1,num_4,16,num_4,1.10008089042,,,2017_Jun_27_1053,60.0035796626,MAFE4ImagesEEG,001,100788,
AFNE01.JPG,AFNE01.JPG,AFNE01.JPG,AFNE01.JPG,AFNE01.JPG,AFNE01.JPG,,,,,,,,,2,3,23,9,,,,,,,,,,,,,,,AMNE17.jpg,AMNE12.jpg,AMSA08.jpg,AMSA14.jpg,AMSA08.jpg,MS,2,num_2,16,num_2,1.63348523541,,,2017_Jun_27_1053,60.0035796626,MAFE4ImagesEEG,001,100788,
AFNE01.JPG,AFNE01.JPG,AFNE01.JPG,AFNE01.JPG,AFNE01.JPG,AFNE01.JPG,,,,,,,,,2,4,24,8,,,,,,,,,,,,,,,AMSA07.jpg,AMNE08.jpg,AMSA08.jpg,AMNE18.jpg,AMNE08.jpg,MN,1,num_6,16,num_6,1.73296024951,,,2017_Jun_27_1053,60.0035796626,MAFE4ImagesEEG,001,100788,
AFNE01.JPG,AFNE01.JPG,AFNE01.JPG,AFNE01.JPG,AFNE01.JPG,AFNE01.JPG,,,,,,,,,2,5,25,2,,,,,,,,,,,,,,,AMNE09.jpg,AMSA08.jpg,AMSA03.jpg,AMNE17.jpg,AMSA03.jpg,MS,2,num_2,32,num_4,1.8167479099,,,2017_Jun_27_1053,60.0035796626,MAFE4ImagesEEG,001,100788,
AFNE01.JPG,AFNE01.JPG,AFNE01.JPG,AFNE01.JPG,AFNE01.JPG,AFNE01.JPG,,,,,,,,,2,6,26,1,,,,,,,,,,,,,,,AMSA13.jpg,AMNE18.jpg,AMNE05.jpg,AMSA08.jpg,AMNE18.jpg,MN,1,num_6,32,num_8,4.28350585894,,,2017_Jun_27_1053,60.0035796626,MAFE4ImagesEEG,001,100788,
AFNE01.JPG,AFNE01.JPG,AFNE01.JPG,AFNE01.JPG,AFNE01.JPG,AFNE01.JPG,,,,,,,,,2,7,27,5,,,,,,,,,,,,,,,AMSA03.jpg,AMNE06.jpg,AMSA12.jpg,AMNE13.jpg,AMSA03.jpg,MS,2,num_8,32,num_4,2.11651684939,,,2017_Jun_27_1053,60.0035796626,MAFE4ImagesEEG,001,100788,
AFNE01.JPG,AFNE01.JPG,AFNE01.JPG,AFNE01.JPG,AFNE01.JPG,AFNE01.JPG,,,,,,,,,2,8,28,0,,,,,,,,,,,,,,,AMNE12.jpg,AMSA05.jpg,AMSA20.jpg,AMNE18.jpg,AMNE12.jpg,MN,1,num_8,16,num_8,1.31677934234,,,2017_Jun_27_1053,60.0035796626,MAFE4ImagesEEG,001,100788,
AFNE01.JPG,AFNE01.JPG,AFNE01.JPG,AFNE01.JPG,AFNE01.JPG,AFNE01.JPG,,,,,,,,,2,9,29,7,,,,,,,,,,,,,,,AMNE16.jpg,AMNE12.jpg,AMSA03.jpg,AMSA13.jpg,AMSA03.jpg,MS,2,num_2,32,num_6,1.10011873765,,,2017_Jun_27_1053,60.0035796626,MAFE4ImagesEEG,001,100788,
AFNE01.JPG,AFNE01.JPG,AFNE01.JPG,AFNE01.JPG,AFNE01.JPG,AFNE01.JPG,,,,,,,,,3,0,30,8,,,,,,,,,,,,,,,AMSA08.jpg,AMNE18.jpg,AMSA15.jpg,AMNE13.jpg,AMNE13.jpg,MN,1,num_4,16,num_4,1.0167643959,,,2017_Jun_27_1053,60.0035796626,MAFE4ImagesEEG,001,100788,
AFNE01.JPG,AFNE01.JPG,AFNE01.JPG,AFNE01.JPG,AFNE01.JPG,AFNE01.JPG,,,,,,,,,3,1,31,6,,,,,,,,,,,,,,,AMNE03.jpg,AMSA17.jpg,AMSA04.jpg,AMNE07.jpg,AMSA17.jpg,MS,2,num_6,32,num_2,4.49980338688,,,2017_Jun_27_1053,60.0035796626,MAFE4ImagesEEG,001,100788,
AFNE01.JPG,AFNE01.JPG,AFNE01.JPG,AFNE01.JPG,AFNE01.JPG,AFNE01.JPG,,,,,,,,,3,2,32,9,,,,,,,,,,,,,,,AMNE07.jpg,AMNE19.jpg,AMSA10.jpg,AMSA15.jpg,AMNE19.jpg,MN,1,num_6,16,num_6,1.76666512712,,,2017_Jun_27_1053,60.0035796626,MAFE4ImagesEEG,001,100788,
AFNE01.JPG,AFNE01.JPG,AFNE01.JPG,AFNE01.JPG,AFNE01.JPG,AFNE01.JPG,,,,,,,,,3,3,33,3,,,,,,,,,,,,,,,AMSA06.jpg,AMNE04.jpg,AMNE12.jpg,AMSA20.jpg,AMSA06.jpg,MS,2,num_8,16,num_8,2.48307298933,,,2017_Jun_27_1053,60.0035796626,MAFE4ImagesEEG,001,100788,
AFNE01.JPG,AFNE01.JPG,AFNE01.JPG,AFNE01.JPG,AFNE01.JPG,AFNE01.JPG,,,,,,,,,3,4,34,5,,,,,,,,,,,,,,,AMNE05.jpg,AMSA13.jpg,AMNE14.jpg,AMSA01.jpg,AMNE14.jpg,MN,1,num_2,32,num_4,1.08345248794,,,2017_Jun_27_1053,60.0035796626,MAFE4ImagesEEG,001,100788,
AFNE01.JPG,AFNE01.JPG,AFNE01.JPG,AFNE01.JPG,AFNE01.JPG,AFNE01.JPG,,,,,,,,,3,5,35,7,,,,,,,,,,,,,,,AMNE16.jpg,AMNE11.jpg,AMSA07.jpg,AMSA06.jpg,AMNE11.jpg,MN,1,num_6,32,num_4,1.98350534576,,,2017_Jun_27_1053,60.0035796626,MAFE4ImagesEEG,001,100788,
AFNE01.JPG,AFNE01.JPG,AFNE01.JPG,AFNE01.JPG,AFNE01.JPG,AFNE01.JPG,,,,,,,,,3,6,36,0,,,,,,,,,,,,,,,AMNE13.jpg,AMSA13.jpg,AMNE10.jpg,AMSA02.jpg,AMNE10.jpg,MN,1,num_2,32,num_6,4.34985428819,,,2017_Jun_27_1053,60.0035796626,MAFE4ImagesEEG,001,100788,
AFNE01.JPG,AFNE01.JPG,AFNE01.JPG,AFNE01.JPG,AFNE01.JPG,AFNE01.JPG,,,,,,,,,3,7,37,4,,,,,,,,,,,,,,,AMNE03.jpg,AMSA19.jpg,AMSA04.jpg,AMNE05.jpg,AMNE03.jpg,MN,1,num_8,32,num_4,1.11674521569,,,2017_Jun_27_1053,60.0035796626,MAFE4ImagesEEG,001,100788,
AFNE01.JPG,AFNE01.JPG,AFNE01.JPG,AFNE01.JPG,AFNE01.JPG,AFNE01.JPG,,,,,,,,,3,8,38,2,,,,,,,,,,,,,,,AMSA19.jpg,AMNE05.jpg,AMNE08.jpg,AMSA10.jpg,AMNE08.jpg,MN,1,num_2,32,num_6,1.30010411194,,,2017_Jun_27_1053,60.0035796626,MAFE4ImagesEEG,001,100788,
AFNE01.JPG,AFNE01.JPG,AFNE01.JPG,AFNE01.JPG,AFNE01.JPG,AFNE01.JPG,,,,,,,,,3,9,39,1,,,,,,,,,,,,,,,AMNE10.jpg,AMSA02.jpg,AMNE20.jpg,AMSA01.jpg,AMNE10.jpg,MN,1,num_8,16,num_8,1.88334844015,,,2017_Jun_27_1053,60.0035796626,MAFE4ImagesEEG,001,100788,
AFNE01.JPG,AFNE01.JPG,AFNE01.JPG,AFNE01.JPG,AFNE01.JPG,AFNE01.JPG,,,,,,,,,4,0,40,0,,,,,,,,,,,,,,,AMSA16.jpg,AMNE09.jpg,AMSA15.jpg,AMNE13.jpg,AMNE13.jpg,MN,1,num_4,32,num_6,2.38334683645,,,2017_Jun_27_1053,60.0035796626,MAFE4ImagesEEG,001,100788,
AFNE01.JPG,AFNE01.JPG,AFNE01.JPG,AFNE01.JPG,AFNE01.JPG,AFNE01.JPG,,,,,,,,,4,1,41,3,,,,,,,,,,,,,,,AMNE19.jpg,AMSA01.jpg,AMSA06.jpg,AMNE09.jpg,AMSA06.jpg,MS,2,num_2,48,None,,,,2017_Jun_27_1053,60.0035796626,MAFE4ImagesEEG,001,100788,
AFNE01.JPG,AFNE01.JPG,AFNE01.JPG,AFNE01.JPG,AFNE01.JPG,AFNE01.JPG,,,,,,,,,4,2,42,6,,,,,,,,,,,,,,,AMSA05.jpg,AMSA19.jpg,AMNE02.jpg,AMNE09.jpg,AMSA05.jpg,MS,2,num_8,16,num_8,1.15008124324,,,2017_Jun_27_1053,60.0035796626,MAFE4ImagesEEG,001,100788,
AFNE01.JPG,AFNE01.JPG,AFNE01.JPG,AFNE01.JPG,AFNE01.JPG,AFNE01.JPG,,,,,,,,,4,3,43,8,,,,,,,,,,,,,,,AMNE19.jpg,AMSA17.jpg,AMNE05.jpg,AMSA03.jpg,AMSA17.jpg,MS,2,num_6,32,num_8,1.00011899424,,,2017_Jun_27_1053,60.0035796626,MAFE4ImagesEEG,001,100788,
AFNE01.JPG,AFNE01.JPG,AFNE01.JPG,AFNE01.JPG,AFNE01.JPG,AFNE01.JPG,,,,,,,,,4,4,44,7,,,,,,,,,,,,,,,AMSA09.jpg,AMNE12.jpg,AMNE14.jpg,AMSA05.jpg,AMSA05.jpg,MS,2,num_4,16,num_4,2.09990608757,,,2017_Jun_27_1053,60.0035796626,MAFE4ImagesEEG,001,100788,
AFNE01.JPG,AFNE01.JPG,AFNE01.JPG,AFNE01.JPG,AFNE01.JPG,AFNE01.JPG,,,,,,,,,4,5,45,2,,,,,,,,,,,,,,,AMNE14.jpg,AMNE06.jpg,AMSA18.jpg,AMSA04.jpg,AMNE14.jpg,MN,1,num_8,32,num_6,1.38338500442,,,2017_Jun_27_1053,60.0035796626,MAFE4ImagesEEG,001,100788,
AFNE01.JPG,AFNE01.JPG,AFNE01.JPG,AFNE01.JPG,AFNE01.JPG,AFNE01.JPG,,,,,,,,,4,6,46,4,,,,,,,,,,,,,,,AMNE17.jpg,AMSA11.jpg,AMSA07.jpg,AMNE05.jpg,AMNE05.jpg,MN,1,num_4,32,num_2,3.76638544255,,,2017_Jun_27_1053,60.0035796626,MAFE4ImagesEEG,001,100788,
AFNE01.JPG,AFNE01.JPG,AFNE01.JPG,AFNE01.JPG,AFNE01.JPG,AFNE01.JPG,,,,,,,,,4,7,47,9,,,,,,,,,,,,,,,AMSA12.jpg,AMNE13.jpg,AMNE20.jpg,AMSA03.jpg,AMNE20.jpg,MN,1,num_2,32,num_6,1.83337278425,,,2017_Jun_27_1053,60.0035796626,MAFE4ImagesEEG,001,100788,
AFNE01.JPG,AFNE01.JPG,AFNE01.JPG,AFNE01.JPG,AFNE01.JPG,AFNE01.JPG,,,,,,,,,4,8,48,5,,,,,,,,,,,,,,,AMSA15.jpg,AMNE02.jpg,AMNE15.jpg,AMSA19.jpg,AMSA15.jpg,MS,2,num_8,32,num_2,1.48342099135,,,2017_Jun_27_1053,60.0035796626,MAFE4ImagesEEG,001,100788,
AFNE01.JPG,AFNE01.JPG,AFNE01.JPG,AFNE01.JPG,AFNE01.JPG,AFNE01.JPG,,,,,,,,,4,9,49,1,,,,,,,,,,,,,,,AMSA20.jpg,AMNE06.jpg,AMNE17.jpg,AMSA15.jpg,AMNE17.jpg,MN,1,num_2,32,num_8,1.70005818209,,,2017_Jun_27_1053,60.0035796626,MAFE4ImagesEEG,001,100788,
AFNE01.JPG,AFNE01.JPG,AFNE01.JPG,AFNE01.JPG,AFNE01.JPG,AFNE01.JPG,,,,,,,,,5,0,50,8,,,,,,,,,,,,,,,AMSA20.jpg,AMNE20.jpg,AMNE17.jpg,AMSA14.jpg,AMNE17.jpg,MN,1,num_2,16,num_2,1.66673338042,,,2017_Jun_27_1053,60.0035796626,MAFE4ImagesEEG,001,100788,
AFNE01.JPG,AFNE01.JPG,AFNE01.JPG,AFNE01.JPG,AFNE01.JPG,AFNE01.JPG,,,,,,,,,5,1,51,5,,,,,,,,,,,,,,,AMSA06.jpg,AMNE03.jpg,AMSA07.jpg,AMNE10.jpg,AMNE03.jpg,MN,1,num_6,32,num_4,0.916792877537,,,2017_Jun_27_1053,60.0035796626,MAFE4ImagesEEG,001,100788,
AFNE01.JPG,AFNE01.JPG,AFNE01.JPG,AFNE01.JPG,AFNE01.JPG,AFNE01.JPG,,,,,,,,,5,2,52,3,,,,,,,,,,,,,,,AMNE06.jpg,AMSA07.jpg,AMNE09.jpg,AMSA01.jpg,AMNE06.jpg,MN,1,num_8,32,num_6,2.03339311912,,,2017_Jun_27_1053,60.0035796626,MAFE4ImagesEEG,001,100788,
AFNE01.JPG,AFNE01.JPG,AFNE01.JPG,AFNE01.JPG,AFNE01.JPG,AFNE01.JPG,,,,,,,,,5,3,53,9,,,,,,,,,,,,,,,AMNE05.jpg,AMNE04.jpg,AMSA18.jpg,AMSA02.jpg,AMSA18.jpg,MS,2,num_2,48,None,,,,2017_Jun_27_1053,60.0035796626,MAFE4ImagesEEG,001,100788,
AFNE01.JPG,AFNE01.JPG,AFNE01.JPG,AFNE01.JPG,AFNE01.JPG,AFNE01.JPG,,,,,,,,,5,4,54,7,,,,,,,,,,,,,,,AMSA08.jpg,AMNE04.jpg,AMSA16.jpg,AMNE17.jpg,AMSA08.jpg,MS,2,num_8,32,num_4,1.08345858199,,,2017_Jun_27_1053,60.0035796626,MAFE4ImagesEEG,001,100788,
AFNE01.JPG,AFNE01.JPG,AFNE01.JPG,AFNE01.JPG,AFNE01.JPG,AFNE01.JPG,,,,,,,,,5,5,55,2,,,,,,,,,,,,,,,AMNE12.jpg,AMNE03.jpg,AMSA03.jpg,AMSA13.jpg,AMNE03.jpg,MN,1,num_6,48,None,,,,2017_Jun_27_1053,60.0035796626,MAFE4ImagesEEG,001,100788,
AFNE01.JPG,AFNE01.JPG,AFNE01.JPG,AFNE01.JPG,AFNE01.JPG,AFNE01.JPG,,,,,,,,,5,6,56,0,,,,,,,,,,,,,,,AMNE01.jpg,AMSA20.jpg,AMNE17.jpg,AMSA19.jpg,AMSA19.jpg,MS,2,num_4,16,num_4,2.49986047845,,,2017_Jun_27_1053,60.0035796626,MAFE4ImagesEEG,001,100788,
AFNE01.JPG,AFNE01.JPG,AFNE01.JPG,AFNE01.JPG,AFNE01.JPG,AFNE01.JPG,,,,,,,,,5,7,57,4,,,,,,,,,,,,,,,AMSA15.jpg,AMSA13.jpg,AMNE18.jpg,AMNE14.jpg,AMSA15.jpg,MS,2,num_8,16,num_8,1.16672728637,,,2017_Jun_27_1053,60.0035796626,MAFE4ImagesEEG,001,100788,
AFNE01.JPG,AFNE01.JPG,AFNE01.JPG,AFNE01.JPG,AFNE01.JPG,AFNE01.JPG,,,,,,,,,5,8,58,6,,,,,,,,,,,,,,,AMNE11.jpg,AMSA17.jpg,AMSA05.jpg,AMNE05.jpg,AMSA17.jpg,MS,2,num_6,16,num_6,0.966742874298,,,2017_Jun_27_1053,60.0035796626,MAFE4ImagesEEG,001,100788,
AFNE01.JPG,AFNE01.JPG,AFNE01.JPG,AFNE01.JPG,AFNE01.JPG,AFNE01.JPG,,,,,,,,,5,9,59,1,,,,,,,,,,,,,,,AMNE02.jpg,AMSA10.jpg,AMNE07.jpg,AMSA11.jpg,AMSA10.jpg,MS,2,num_6,32,num_4,4.19953569795,,,2017_Jun_27_1053,60.0035796626,MAFE4ImagesEEG,001,100788,
,,,,,,,,,,,,,,,,,,,,,,,,,,,,,,,,,,,,,,,,,,,space,46.4634036586,2017_Jun_27_1053,60.0035796626,MAFE4ImagesEEG,001,100788,
AFNE01.JPG,AFNE01.JPG,AFNE01.JPG,AFNE01.JPG,AFNE01.JPG,AFNE01.JPG,,,,,,,,,,,,,0,0,0,5,,,,,,,,,,,AFNE17.jpg,AFNE02.jpg,AFSA04.jpg,AFSA02.jpg,AFNE17.jpg,FN,3,num_8,16,num_8,1.01680320534,,,2017_Jun_27_1053,60.0035796626,MAFE4ImagesEEG,001,100788,
AFNE01.JPG,AFNE01.JPG,AFNE01.JPG,AFNE01.JPG,AFNE01.JPG,AFNE01.JPG,,,,,,,,,,,,,0,1,1,2,,,,,,,,,,,AFSA11.jpg,AFNE13.jpg,AFNE11.jpg,AFSA06.jpg,AFNE11.jpg,FN,3,num_2,32,num_6,0.850097087752,,,2017_Jun_27_1053,60.0035796626,MAFE4ImagesEEG,001,100788,
AFNE01.JPG,AFNE01.JPG,AFNE01.JPG,AFNE01.JPG,AFNE01.JPG,AFNE01.JPG,,,,,,,,,,,,,0,2,2,3,,,,,,,,,,,AFNE04.jpg,AFSA03.jpg,AFSA16.jpg,AFNE08.jpg,AFNE04.jpg,FN,3,num_8,32,num_4,0.983500213933,,,2017_Jun_27_1053,60.0035796626,MAFE4ImagesEEG,001,100788,
AFNE01.JPG,AFNE01.JPG,AFNE01.JPG,AFNE01.JPG,AFNE01.JPG,AFNE01.JPG,,,,,,,,,,,,,0,3,3,8,,,,,,,,,,,AFNE18.jpg,AFNE08.jpg,AFSA14.jpg,AFSA13.jpg,AFSA14.jpg,FS,4,num_2,32,num_8,0.850098691448,,,2017_Jun_27_1053,60.0035796626,MAFE4ImagesEEG,001,100788,
AFNE01.JPG,AFNE01.JPG,AFNE01.JPG,AFNE01.JPG,AFNE01.JPG,AFNE01.JPG,,,,,,,,,,,,,0,4,4,1,,,,,,,,,,,AFSA08.jpg,AFNE17.jpg,AFNE14.jpg,AFSA04.jpg,AFNE17.jpg,FN,3,num_6,32,num_2,1.00009558028,,,2017_Jun_27_1053,60.0035796626,MAFE4ImagesEEG,001,100788,
AFNE01.JPG,AFNE01.JPG,AFNE01.JPG,AFNE01.JPG,AFNE01.JPG,AFNE01.JPG,,,,,,,,,,,,,0,5,5,9,,,,,,,,,,,AFNE11.jpg,AFNE07.jpg,AFSA15.jpg,AFSA03.jpg,AFSA03.jpg,FS,4,num_4,32,num_8,0.88351779044,,,2017_Jun_27_1053,60.0035796626,MAFE4ImagesEEG,001,100788,
AFNE01.JPG,AFNE01.JPG,AFNE01.JPG,AFNE01.JPG,AFNE01.JPG,AFNE01.JPG,,,,,,,,,,,,,0,6,6,7,,,,,,,,,,,AFNE15.jpg,AFNE11.jpg,AFSA20.jpg,AFSA19.jpg,AFNE15.jpg,FN,3,num_8,16,num_8,1.18345287283,,,2017_Jun_27_1053,60.0035796626,MAFE4ImagesEEG,001,100788,
AFNE01.JPG,AFNE01.JPG,AFNE01.JPG,AFNE01.JPG,AFNE01.JPG,AFNE01.JPG,,,,,,,,,,,,,0,7,7,6,,,,,,,,,,,AFNE03.jpg,AFSA19.jpg,AFNE14.jpg,AFSA04.jpg,AFSA19.jpg,FS,4,num_6,16,num_6,1.28344267332,,,2017_Jun_27_1053,60.0035796626,MAFE4ImagesEEG,001,100788,
AFNE01.JPG,AFNE01.JPG,AFNE01.JPG,AFNE01.JPG,AFNE01.JPG,AFNE01.JPG,,,,,,,,,,,,,0,8,8,4,,,,,,,,,,,AFSA07.jpg,AFSA16.jpg,AFNE17.jpg,AFNE07.jpg,AFSA07.jpg,FS,4,num_8,32,num_2,1.46679836218,,,2017_Jun_27_1053,60.0035796626,MAFE4ImagesEEG,001,100788,
AFNE01.JPG,AFNE01.JPG,AFNE01.JPG,AFNE01.JPG,AFNE01.JPG,AFNE01.JPG,,,,,,,,,,,,,0,9,9,0,,,,,,,,,,,AFNE02.jpg,AFSA12.jpg,AFSA03.jpg,AFNE20.jpg,AFNE20.jpg,FN,3,num_4,32,num_8,1.56670669492,,,2017_Jun_27_1053,60.0035796626,MAFE4ImagesEEG,001,100788,
AFNE01.JPG,AFNE01.JPG,AFNE01.JPG,AFNE01.JPG,AFNE01.JPG,AFNE01.JPG,,,,,,,,,,,,,1,0,10,0,,,,,,,,,,,AFSA05.jpg,AFNE03.jpg,AFSA14.jpg,AFNE01.jpg,AFNE03.jpg,FN,3,num_6,32,num_4,1.21673245027,,,2017_Jun_27_1053,60.0035796626,MAFE4ImagesEEG,001,100788,
AFNE01.JPG,AFNE01.JPG,AFNE01.JPG,AFNE01.JPG,AFNE01.JPG,AFNE01.JPG,,,,,,,,,,,,,1,1,11,9,,,,,,,,,,,AFSA07.jpg,AFSA20.jpg,AFNE19.jpg,AFNE02.jpg,AFNE02.jpg,FN,3,num_4,32,num_8,1.38340681468,,,2017_Jun_27_1053,60.0035796626,MAFE4ImagesEEG,001,100788,
AFNE01.JPG,AFNE01.JPG,AFNE01.JPG,AFNE01.JPG,AFNE01.JPG,AFNE01.JPG,,,,,,,,,,,,,1,2,12,1,,,,,,,,,,,AFNE19.jpg,AFSA06.jpg,AFSA01.jpg,AFNE06.jpg,AFNE06.jpg,FN,3,num_4,16,num_4,1.05011549818,,,2017_Jun_27_1053,60.0035796626,MAFE4ImagesEEG,001,100788,
AFNE01.JPG,AFNE01.JPG,AFNE01.JPG,AFNE01.JPG,AFNE01.JPG,AFNE01.JPG,,,,,,,,,,,,,1,3,13,5,,,,,,,,,,,AFNE10.jpg,AFNE08.jpg,AFSA02.jpg,AFSA04.jpg,AFSA02.jpg,FS,4,num_2,32,num_8,0.750187472056,,,2017_Jun_27_1053,60.0035796626,MAFE4ImagesEEG,001,100788,
AFNE01.JPG,AFNE01.JPG,AFNE01.JPG,AFNE01.JPG,AFNE01.JPG,AFNE01.JPG,,,,,,,,,,,,,1,4,14,4,,,,,,,,,,,AFNE03.jpg,AFNE18.jpg,AFSA19.jpg,AFSA18.jpg,AFSA19.jpg,FS,4,num_2,32,num_4,0.73352122235,,,2017_Jun_27_1053,60.0035796626,MAFE4ImagesEEG,001,100788,
AFNE01.JPG,AFNE01.JPG,AFNE01.JPG,AFNE01.JPG,AFNE01.JPG,AFNE01.JPG,,,,,,,,,,,,,1,5,15,7,,,,,,,,,,,AFNE04.jpg,AFNE13.jpg,AFSA15.jpg,AFSA13.jpg,AFSA15.jpg,FS,4,num_2,16,num_2,1.75003287577,,,2017_Jun_27_1053,60.0035796626,MAFE4ImagesEEG,001,100788,
AFNE01.JPG,AFNE01.JPG,AFNE01.JPG,AFNE01.JPG,AFNE01.JPG,AFNE01.JPG,,,,,,,,,,,,,1,6,16,3,,,,,,,,,,,AFNE15.jpg,AFNE13.jpg,AFSA14.jpg,AFSA09.jpg,AFNE13.jpg,FN,3,num_6,32,num_4,1.51673360494,,,2017_Jun_27_1053,60.0035796626,MAFE4ImagesEEG,001,100788,
AFNE01.JPG,AFNE01.JPG,AFNE01.JPG,AFNE01.JPG,AFNE01.JPG,AFNE01.JPG,,,,,,,,,,,,,1,7,17,2,,,,,,,,,,,AFNE12.jpg,AFSA11.jpg,AFSA03.jpg,AFNE16.jpg,AFNE12.jpg,FN,3,num_8,48,None,,,,2017_Jun_27_1053,60.0035796626,MAFE4ImagesEEG,001,100788,
AFNE01.JPG,AFNE01.JPG,AFNE01.JPG,AFNE01.JPG,AFNE01.JPG,AFNE01.JPG,,,,,,,,,,,,,1,8,18,6,,,,,,,,,,,AFSA16.jpg,AFNE07.jpg,AFNE11.jpg,AFSA14.jpg,AFSA14.jpg,FS,4,num_4,32,num_6,1.05014532693,,,2017_Jun_27_1053,60.0035796626,MAFE4ImagesEEG,001,100788,
AFNE01.JPG,AFNE01.JPG,AFNE01.JPG,AFNE01.JPG,AFNE01.JPG,AFNE01.JPG,,,,,,,,,,,,,1,9,19,8,,,,,,,,,,,AFNE13.jpg,AFSA18.jpg,AFNE11.jpg,AFSA19.jpg,AFSA19.jpg,FS,4,num_4,16,num_4,0.766811063449,,,2017_Jun_27_1053,60.0035796626,MAFE4ImagesEEG,001,100788,
AFNE01.JPG,AFNE01.JPG,AFNE01.JPG,AFNE01.JPG,AFNE01.JPG,AFNE01.JPG,,,,,,,,,,,,,2,0,20,1,,,,,,,,,,,AFSA05.jpg,AFNE11.jpg,AFNE15.jpg,AFSA16.jpg,AFNE11.jpg,FN,3,num_6,32,num_8,1.0331695639,,,2017_Jun_27_1053,60.0035796626,MAFE4ImagesEEG,001,100788,
AFNE01.JPG,AFNE01.JPG,AFNE01.JPG,AFNE01.JPG,AFNE01.JPG,AFNE01.JPG,,,,,,,,,,,,,2,1,21,5,,,,,,,,,,,AFSA08.jpg,AFNE11.jpg,AFSA02.jpg,AFNE02.jpg,AFSA02.jpg,FS,4,num_2,32,num_4,1.48335491908,,,2017_Jun_27_1053,60.0035796626,MAFE4ImagesEEG,001,100788,
AFNE01.JPG,AFNE01.JPG,AFNE01.JPG,AFNE01.JPG,AFNE01.JPG,AFNE01.JPG,,,,,,,,,,,,,2,2,22,7,,,,,,,,,,,AFSA11.jpg,AFNE10.jpg,AFNE01.jpg,AFSA10.jpg,AFSA10.jpg,FS,4,num_4,32,num_8,1.00008531662,,,2017_Jun_27_1053,60.0035796626,MAFE4ImagesEEG,001,100788,
AFNE01.JPG,AFNE01.JPG,AFNE01.JPG,AFNE01.JPG,AFNE01.JPG,AFNE01.JPG,,,,,,,,,,,,,2,3,23,9,,,,,,,,,,,AFSA05.jpg,AFNE12.jpg,AFSA03.jpg,AFNE11.jpg,AFSA05.jpg,FS,4,num_8,16,num_8,1.25012107904,,,2017_Jun_27_1053,60.0035796626,MAFE4ImagesEEG,001,100788,
AFNE01.JPG,AFNE01.JPG,AFNE01.JPG,AFNE01.JPG,AFNE01.JPG,AFNE01.JPG,,,,,,,,,,,,,2,4,24,0,,,,,,,,,,,AFSA03.jpg,AFNE17.jpg,AFSA05.jpg,AFNE04.jpg,AFSA03.jpg,FS,4,num_8,32,num_6,1.31675817356,,,2017_Jun_27_1053,60.0035796626,MAFE4ImagesEEG,001,100788,
AFNE01.JPG,AFNE01.JPG,AFNE01.JPG,AFNE01.JPG,AFNE01.JPG,AFNE01.JPG,,,,,,,,,,,,,2,5,25,4,,,,,,,,,,,AFNE07.jpg,AFSA01.jpg,AFNE14.jpg,AFSA04.jpg,AFNE14.jpg,FN,3,num_2,32,num_4,3.86658244056,,,2017_Jun_27_1053,60.0035796626,MAFE4ImagesEEG,001,100788,
AFNE01.JPG,AFNE01.JPG,AFNE01.JPG,AFNE01.JPG,AFNE01.JPG,AFNE01.JPG,,,,,,,,,,,,,2,6,26,3,,,,,,,,,,,AFSA03.jpg,AFNE13.jpg,AFSA12.jpg,AFNE11.jpg,AFSA12.jpg,FS,4,num_2,32,num_8,0.866769110764,,,2017_Jun_27_1053,60.0035796626,MAFE4ImagesEEG,001,100788,
AFNE01.JPG,AFNE01.JPG,AFNE01.JPG,AFNE01.JPG,AFNE01.JPG,AFNE01.JPG,,,,,,,,,,,,,2,7,27,2,,,,,,,,,,,AFSA12.jpg,AFNE03.jpg,AFNE19.jpg,AFSA06.jpg,AFNE03.jpg,FN,3,num_6,16,num_6,0.933494087814,,,2017_Jun_27_1053,60.0035796626,MAFE4ImagesEEG,001,100788,
AFNE01.JPG,AFNE01.JPG,AFNE01.JPG,AFNE01.JPG,AFNE01.JPG,AFNE01.JPG,,,,,,,,,,,,,2,8,28,8,,,,,,,,,,,AFSA18.jpg,AFSA14.jpg,AFNE01.jpg,AFNE08.jpg,AFSA14.jpg,FS,4,num_6,16,num_6,4.5498480017,,,2017_Jun_27_1053,60.0035796626,MAFE4ImagesEEG,001,100788,
AFNE01.JPG,AFNE01.JPG,AFNE01.JPG,AFNE01.JPG,AFNE01.JPG,AFNE01.JPG,,,,,,,,,,,,,2,9,29,6,,,,,,,,,,,AFNE10.jpg,AFSA17.jpg,AFSA02.jpg,AFNE01.jpg,AFSA17.jpg,FS,4,num_6,32,num_4,2.66659417961,,,2017_Jun_27_1053,60.0035796626,MAFE4ImagesEEG,001,100788,
AFNE01.JPG,AFNE01.JPG,AFNE01.JPG,AFNE01.JPG,AFNE01.JPG,AFNE01.JPG,,,,,,,,,,,,,3,0,30,6,,,,,,,,,,,AFNE08.jpg,AFSA17.jpg,AFNE14.jpg,AFSA18.jpg,AFSA18.jpg,FS,4,num_4,16,num_4,2.33332499411,,,2017_Jun_27_1053,60.0035796626,MAFE4ImagesEEG,001,100788,
AFNE01.JPG,AFNE01.JPG,AFNE01.JPG,AFNE01.JPG,AFNE01.JPG,AFNE01.JPG,,,,,,,,,,,,,3,1,31,9,,,,,,,,,,,AFNE08.jpg,AFSA09.jpg,AFSA20.jpg,AFNE09.jpg,AFNE09.jpg,FN,3,num_4,32,num_2,2.96654080861,,,2017_Jun_27_1053,60.0035796626,MAFE4ImagesEEG,001,100788,
AFNE01.JPG,AFNE01.JPG,AFNE01.JPG,AFNE01.JPG,AFNE01.JPG,AFNE01.JPG,,,,,,,,,,,,,3,2,32,5,,,,,,,,,,,AFSA16.jpg,AFNE18.jpg,AFSA09.jpg,AFNE05.jpg,AFSA09.jpg,FS,4,num_2,32,num_4,3.06661849164,,,2017_Jun_27_1053,60.0035796626,MAFE4ImagesEEG,001,100788,
AFNE01.JPG,AFNE01.JPG,AFNE01.JPG,AFNE01.JPG,AFNE01.JPG,AFNE01.JPG,,,,,,,,,,,,,3,3,33,0,,,,,,,,,,,AFNE12.jpg,AFSA06.jpg,AFNE08.jpg,AFSA09.jpg,AFNE12.jpg,FN,3,num_8,16,num_8,0.766828062627,,,2017_Jun_27_1053,60.0035796626,MAFE4ImagesEEG,001,100788,
AFNE01.JPG,AFNE01.JPG,AFNE01.JPG,AFNE01.JPG,AFNE01.JPG,AFNE01.JPG,,,,,,,,,,,,,3,4,34,2,,,,,,,,,,,AFSA20.jpg,AFNE15.jpg,AFNE13.jpg,AFSA13.jpg,AFNE13.jpg,FN,3,num_2,32,num_6,0.783488539027,,,2017_Jun_27_1053,60.0035796626,MAFE4ImagesEEG,001,100788,
AFNE01.JPG,AFNE01.JPG,AFNE01.JPG,AFNE01.JPG,AFNE01.JPG,AFNE01.JPG,,,,,,,,,,,,,3,5,35,4,,,,,,,,,,,AFNE11.jpg,AFSA06.jpg,AFSA18.jpg,AFNE19.jpg,AFSA18.jpg,FS,4,num_2,32,num_4,0.916746370354,,,2017_Jun_27_1053,60.0035796626,MAFE4ImagesEEG,001,100788,
AFNE01.JPG,AFNE01.JPG,AFNE01.JPG,AFNE01.JPG,AFNE01.JPG,AFNE01.JPG,,,,,,,,,,,,,3,6,36,7,,,,,,,,,,,AFNE13.jpg,AFSA05.jpg,AFSA18.jpg,AFNE06.jpg,AFNE06.jpg,FN,3,num_4,32,num_8,1.51675284929,,,2017_Jun_27_1053,60.0035796626,MAFE4ImagesEEG,001,100788,
AFNE01.JPG,AFNE01.JPG,AFNE01.JPG,AFNE01.JPG,AFNE01.JPG,AFNE01.JPG,,,,,,,,,,,,,3,7,37,3,,,,,,,,,,,AFNE06.jpg,AFSA07.jpg,AFNE05.jpg,AFSA08.jpg,AFSA08.jpg,FS,4,num_4,16,num_4,2.74997931232,,,2017_Jun_27_1053,60.0035796626,MAFE4ImagesEEG,001,100788,
AFNE01.JPG,AFNE01.JPG,AFNE01.JPG,AFNE01.JPG,AFNE01.JPG,AFNE01.JPG,,,,,,,,,,,,,3,8,38,8,,,,,,,,,,,AFSA15.jpg,AFSA07.jpg,AFNE04.jpg,AFNE03.jpg,AFNE04.jpg,FN,3,num_2,32,num_6,2.48330392155,,,2017_Jun_27_1053,60.0035796626,MAFE4ImagesEEG,001,100788,
AFNE01.JPG,AFNE01.JPG,AFNE01.JPG,AFNE01.JPG,AFNE01.JPG,AFNE01.JPG,,,,,,,,,,,,,3,9,39,1,,,,,,,,,,,AFSA20.jpg,AFNE13.jpg,AFNE19.jpg,AFSA19.jpg,AFNE13.jpg,FN,3,num_6,32,num_2,3.89984341513,,,2017_Jun_27_1053,60.0035796626,MAFE4ImagesEEG,001,100788,
AFNE01.JPG,AFNE01.JPG,AFNE01.JPG,AFNE01.JPG,AFNE01.JPG,AFNE01.JPG,,,,,,,,,,,,,4,0,40,9,,,,,,,,,,,AFSA11.jpg,AFNE10.jpg,AFSA02.jpg,AFNE01.jpg,AFSA11.jpg,FS,4,num_8,32,num_6,2.51694304763,,,2017_Jun_27_1053,60.0035796626,MAFE4ImagesEEG,001,100788,
AFNE01.JPG,AFNE01.JPG,AFNE01.JPG,AFNE01.JPG,AFNE01.JPG,AFNE01.JPG,,,,,,,,,,,,,4,1,41,5,,,,,,,,,,,AFSA06.jpg,AFNE17.jpg,AFSA07.jpg,AFNE13.jpg,AFNE13.jpg,FN,3,num_4,32,num_2,1.80001398423,,,2017_Jun_27_1053,60.0035796626,MAFE4ImagesEEG,001,100788,
AFNE01.JPG,AFNE01.JPG,AFNE01.JPG,AFNE01.JPG,AFNE01.JPG,AFNE01.JPG,,,,,,,,,,,,,4,2,42,0,,,,,,,,,,,AFNE03.jpg,AFSA02.jpg,AFNE13.jpg,AFSA10.jpg,AFNE13.jpg,FN,3,num_2,32,num_4,2.60003053437,,,2017_Jun_27_1053,60.0035796626,MAFE4ImagesEEG,001,100788,
AFNE01.JPG,AFNE01.JPG,AFNE01.JPG,AFNE01.JPG,AFNE01.JPG,AFNE01.JPG,,,,,,,,,,,,,4,3,43,8,,,,,,,,,,,AFNE14.jpg,AFNE04.jpg,AFSA16.jpg,AFSA05.jpg,AFNE14.jpg,FN,3,num_8,32,num_4,2.54999682468,,,2017_Jun_27_1053,60.0035796626,MAFE4ImagesEEG,001,100788,
AFNE01.JPG,AFNE01.JPG,AFNE01.JPG,AFNE01.JPG,AFNE01.JPG,AFNE01.JPG,,,,,,,,,,,,,4,4,44,6,,,,,,,,,,,AFSA10.jpg,AFNE19.jpg,AFNE10.jpg,AFSA19.jpg,AFNE10.jpg,FN,3,num_2,32,num_6,1.90003200977,,,2017_Jun_27_1053,60.0035796626,MAFE4ImagesEEG,001,100788,
AFNE01.JPG,AFNE01.JPG,AFNE01.JPG,AFNE01.JPG,AFNE01.JPG,AFNE01.JPG,,,,,,,,,,,,,4,5,45,1,,,,,,,,,,,AFSA10.jpg,AFNE19.jpg,AFSA15.jpg,AFNE08.jpg,AFNE19.jpg,FN,3,num_6,32,num_8,1.10010590808,,,2017_Jun_27_1053,60.0035796626,MAFE4ImagesEEG,001,100788,
AFNE01.JPG,AFNE01.JPG,AFNE01.JPG,AFNE01.JPG,AFNE01.JPG,AFNE01.JPG,,,,,,,,,,,,,4,6,46,2,,,,,,,,,,,AFSA02.jpg,AFSA06.jpg,AFNE12.jpg,AFNE05.jpg,AFNE12.jpg,FN,3,num_2,48,None,,,,2017_Jun_27_1053,60.0035796626,MAFE4ImagesEEG,001,100788,
AFNE01.JPG,AFNE01.JPG,AFNE01.JPG,AFNE01.JPG,AFNE01.JPG,AFNE01.JPG,,,,,,,,,,,,,4,7,47,7,,,,,,,,,,,AFSA03.jpg,AFNE17.jpg,AFNE16.jpg,AFSA17.jpg,AFNE16.jpg,FN,3,num_2,32,num_4,0.78345550289,,,2017_Jun_27_1053,60.0035796626,MAFE4ImagesEEG,001,100788,
AFNE01.JPG,AFNE01.JPG,AFNE01.JPG,AFNE01.JPG,AFNE01.JPG,AFNE01.JPG,,,,,,,,,,,,,4,8,48,4,,,,,,,,,,,AFSA02.jpg,AFNE03.jpg,AFNE05.jpg,AFSA15.jpg,AFNE03.jpg,FN,3,num_6,32,num_8,2.3833439498,,,2017_Jun_27_1053,60.0035796626,MAFE4ImagesEEG,001,100788,
AFNE01.JPG,AFNE01.JPG,AFNE01.JPG,AFNE01.JPG,AFNE01.JPG,AFNE01.JPG,,,,,,,,,,,,,4,9,49,3,,,,,,,,,,,AFSA18.jpg,AFNE08.jpg,AFSA09.jpg,AFNE10.jpg,AFNE10.jpg,FN,3,num_4,32,num_6,2.21690276278,,,2017_Jun_27_1053,60.0035796626,MAFE4ImagesEEG,001,100788,
AFNE01.JPG,AFNE01.JPG,AFNE01.JPG,AFNE01.JPG,AFNE01.JPG,AFNE01.JPG,,,,,,,,,,,,,5,0,50,7,,,,,,,,,,,AFSA20.jpg,AFNE05.jpg,AFSA16.jpg,AFNE15.jpg,AFNE05.jpg,FN,3,num_6,32,num_8,1.20012040549,,,2017_Jun_27_1053,60.0035796626,MAFE4ImagesEEG,001,100788,
AFNE01.JPG,AFNE01.JPG,AFNE01.JPG,AFNE01.JPG,AFNE01.JPG,AFNE01.JPG,,,,,,,,,,,,,5,1,51,2,,,,,,,,,,,AFSA05.jpg,AFNE11.jpg,AFNE08.jpg,AFSA16.jpg,AFSA05.jpg,FS,4,num_8,32,num_4,4.83312934321,,,2017_Jun_27_1053,60.0035796626,MAFE4ImagesEEG,001,100788,
AFNE01.JPG,AFNE01.JPG,AFNE01.JPG,AFNE01.JPG,AFNE01.JPG,AFNE01.JPG,,,,,,,,,,,,,5,2,52,5,,,,,,,,,,,AFSA03.jpg,AFSA05.jpg,AFNE02.jpg,AFNE15.jpg,AFSA05.jpg,FS,4,num_6,32,num_8,3.28326466307,,,2017_Jun_27_1053,60.0035796626,MAFE4ImagesEEG,001,100788,
AFNE01.JPG,AFNE01.JPG,AFNE01.JPG,AFNE01.JPG,AFNE01.JPG,AFNE01.JPG,,,,,,,,,,,,,5,3,53,6,,,,,,,,,,,AFNE07.jpg,AFSA04.jpg,AFSA13.jpg,AFNE06.jpg,AFSA04.jpg,FS,4,num_6,16,num_6,1.00010039137,,,2017_Jun_27_1053,60.0035796626,MAFE4ImagesEEG,001,100788,
AFNE01.JPG,AFNE01.JPG,AFNE01.JPG,AFNE01.JPG,AFNE01.JPG,AFNE01.JPG,,,,,,,,,,,,,5,4,54,1,,,,,,,,,,,AFSA17.jpg,AFNE12.jpg,AFSA01.jpg,AFNE19.jpg,AFSA17.jpg,FS,4,num_8,16,num_8,4.34984113788,,,2017_Jun_27_1053,60.0035796626,MAFE4ImagesEEG,001,100788,
AFNE01.JPG,AFNE01.JPG,AFNE01.JPG,AFNE01.JPG,AFNE01.JPG,AFNE01.JPG,,,,,,,,,,,,,5,5,55,0,,,,,,,,,,,AFNE15.jpg,AFSA16.jpg,AFNE14.jpg,AFSA05.jpg,AFSA16.jpg,FS,4,num_6,32,num_2,1.90006793256,,,2017_Jun_27_1053,60.0035796626,MAFE4ImagesEEG,001,100788,
AFNE01.JPG,AFNE01.JPG,AFNE01.JPG,AFNE01.JPG,AFNE01.JPG,AFNE01.JPG,,,,,,,,,,,,,5,6,56,4,,,,,,,,,,,AFNE09.jpg,AFNE08.jpg,AFSA10.jpg,AFSA02.jpg,AFSA10.jpg,FS,4,num_2,16,num_2,1.18346923053,,,2017_Jun_27_1053,60.0035796626,MAFE4ImagesEEG,001,100788,
AFNE01.JPG,AFNE01.JPG,AFNE01.JPG,AFNE01.JPG,AFNE01.JPG,AFNE01.JPG,,,,,,,,,,,,,5,7,57,3,,,,,,,,,,,AFSA10.jpg,AFSA13.jpg,AFNE08.jpg,AFNE20.jpg,AFNE08.jpg,FN,3,num_2,32,num_4,0.833494665146,,,2017_Jun_27_1053,60.0035796626,MAFE4ImagesEEG,001,100788,
AFNE01.JPG,AFNE01.JPG,AFNE01.JPG,AFNE01.JPG,AFNE01.JPG,AFNE01.JPG,,,,,,,,,,,,,5,8,58,9,,,,,,,,,,,AFNE15.jpg,AFSA15.jpg,AFSA02.jpg,AFNE04.jpg,AFSA15.jpg,FS,4,num_6,32,num_8,1.10011873765,,,2017_Jun_27_1053,60.0035796626,MAFE4ImagesEEG,001,100788,
AFNE01.JPG,AFNE01.JPG,AFNE01.JPG,AFNE01.JPG,AFNE01.JPG,AFNE01.JPG,,,,,,,,,,,,,5,9,59,8,,,,,,,,,,,AFSA08.jpg,AFNE07.jpg,AFSA01.jpg,AFNE20.jpg,AFNE20.jpg,FN,3,num_4,32,num_6,1.26671484169,,,2017_Jun_27_1053,60.0035796626,MAFE4ImagesEEG,001,100788,
,,,,,,,,,,,,,,,,,,,,,,,,,,,,,,,,,,,,,,,,,,,space,38.1301861121,2017_Jun_27_1053,60.0035796626,MAFE4ImagesEEG,001,100788,
AFNE01.JPG,AFNE01.JPG,AFNE01.JPG,AFNE01.JPG,AFNE01.JPG,AFNE01.JPG,,,,,,,,,,,,,,,,,0,0,0,8,,,,,,,AMSA02.jpg,AMSA07.jpg,AMNE01.jpg,AMNE16.jpg,AMSA07.jpg,MS,2,num_6,16,num_6,1.05012319592,,,2017_Jun_27_1053,60.0035796626,MAFE4ImagesEEG,001,100788,
AFNE01.JPG,AFNE01.JPG,AFNE01.JPG,AFNE01.JPG,AFNE01.JPG,AFNE01.JPG,,,,,,,,,,,,,,,,,0,1,1,3,,,,,,,AMSA19.jpg,AMSA09.jpg,AMNE15.jpg,AMNE09.jpg,AMSA19.jpg,MS,2,num_8,16,num_8,0.93345239172,,,2017_Jun_27_1053,60.0035796626,MAFE4ImagesEEG,001,100788,
AFNE01.JPG,AFNE01.JPG,AFNE01.JPG,AFNE01.JPG,AFNE01.JPG,AFNE01.JPG,,,,,,,,,,,,,,,,,0,2,2,9,,,,,,,AMNE16.jpg,AMNE19.jpg,AMSA19.jpg,AMSA14.jpg,AMNE16.jpg,MN,1,num_8,16,num_8,1.48344761271,,,2017_Jun_27_1053,60.0035796626,MAFE4ImagesEEG,001,100788,
AFNE01.JPG,AFNE01.JPG,AFNE01.JPG,AFNE01.JPG,AFNE01.JPG,AFNE01.JPG,,,,,,,,,,,,,,,,,0,3,3,1,,,,,,,AMNE12.jpg,AMSA09.jpg,AMSA20.jpg,AMNE18.jpg,AMNE12.jpg,MN,1,num_8,16,num_8,1.31672160929,,,2017_Jun_27_1053,60.0035796626,MAFE4ImagesEEG,001,100788,
AFNE01.JPG,AFNE01.JPG,AFNE01.JPG,AFNE01.JPG,AFNE01.JPG,AFNE01.JPG,,,,,,,,,,,,,,,,,0,4,4,5,,,,,,,AMSA09.jpg,AMSA18.jpg,AMNE01.jpg,AMNE07.jpg,AMNE01.jpg,MN,1,num_2,32,num_6,0.933494408554,,,2017_Jun_27_1053,60.0035796626,MAFE4ImagesEEG,001,100788,
AFNE01.JPG,AFNE01.JPG,AFNE01.JPG,AFNE01.JPG,AFNE01.JPG,AFNE01.JPG,,,,,,,,,,,,,,,,,0,5,5,0,,,,,,,AMNE02.jpg,AMSA07.jpg,AMSA14.jpg,AMNE19.jpg,AMNE02.jpg,MN,1,num_8,16,num_8,1.18348751266,,,2017_Jun_27_1053,60.0035796626,MAFE4ImagesEEG,001,100788,
AFNE01.JPG,AFNE01.JPG,AFNE01.JPG,AFNE01.JPG,AFNE01.JPG,AFNE01.JPG,,,,,,,,,,,,,,,,,0,6,6,2,,,,,,,AMNE05.jpg,AMSA20.jpg,AMSA08.jpg,AMNE03.jpg,AMSA20.jpg,MS,2,num_6,32,num_2,1.45011992438,,,2017_Jun_27_1053,60.0035796626,MAFE4ImagesEEG,001,100788,
AFNE01.JPG,AFNE01.JPG,AFNE01.JPG,AFNE01.JPG,AFNE01.JPG,AFNE01.JPG,,,,,,,,,,,,,,,,,0,7,7,6,,,,,,,AMNE06.jpg,AMSA03.jpg,AMSA14.jpg,AMNE16.jpg,AMSA14.jpg,MS,2,num_2,32,num_4,1.01675124559,,,2017_Jun_27_1053,60.0035796626,MAFE4ImagesEEG,001,100788,
AFNE01.JPG,AFNE01.JPG,AFNE01.JPG,AFNE01.JPG,AFNE01.JPG,AFNE01.JPG,,,,,,,,,,,,,,,,,0,8,8,4,,,,,,,AMSA08.jpg,AMSA13.jpg,AMNE08.jpg,AMNE15.jpg,AMNE08.jpg,MN,1,num_2,32,num_6,0.700696132334,,,2017_Jun_27_1053,60.0035796626,MAFE4ImagesEEG,001,100788,
AFNE01.JPG,AFNE01.JPG,AFNE01.JPG,AFNE01.JPG,AFNE01.JPG,AFNE01.JPG,,,,,,,,,,,,,,,,,0,9,9,7,,,,,,,AMSA16.jpg,AMSA05.jpg,AMNE02.jpg,AMNE14.jpg,AMNE02.jpg,MN,1,num_2,16,num_2,2.18335793403,,,2017_Jun_27_1053,60.0035796626,MAFE4ImagesEEG,001,100788,
AFNE01.JPG,AFNE01.JPG,AFNE01.JPG,AFNE01.JPG,AFNE01.JPG,AFNE01.JPG,,,,,,,,,,,,,,,,,1,0,10,0,,,,,,,AMSA12.jpg,AMSA05.jpg,AMNE15.jpg,AMNE11.jpg,AMNE11.jpg,MN,1,num_4,16,num_4,0.850167650374,,,2017_Jun_27_1053,60.0035796626,MAFE4ImagesEEG,001,100788,
AFNE01.JPG,AFNE01.JPG,AFNE01.JPG,AFNE01.JPG,AFNE01.JPG,AFNE01.JPG,,,,,,,,,,,,,,,,,1,1,11,5,,,,,,,AMSA01.jpg,AMNE12.jpg,AMSA07.jpg,AMNE01.jpg,AMNE12.jpg,MN,1,num_6,16,num_6,1.05006802878,,,2017_Jun_27_1053,60.0035796626,MAFE4ImagesEEG,001,100788,
AFNE01.JPG,AFNE01.JPG,AFNE01.JPG,AFNE01.JPG,AFNE01.JPG,AFNE01.JPG,,,,,,,,,,,,,,,,,1,2,12,8,,,,,,,AMNE12.jpg,AMNE20.jpg,AMSA03.jpg,AMSA01.jpg,AMSA03.jpg,MS,2,num_2,32,num_4,1.71669267861,,,2017_Jun_27_1053,60.0035796626,MAFE4ImagesEEG,001,100788,
AFNE01.JPG,AFNE01.JPG,AFNE01.JPG,AFNE01.JPG,AFNE01.JPG,AFNE01.JPG,,,,,,,,,,,,,,,,,1,3,13,2,,,,,,,AMSA11.jpg,AMNE03.jpg,AMNE19.jpg,AMSA20.jpg,AMSA20.jpg,MS,2,num_4,32,num_6,1.03343545669,,,2017_Jun_27_1053,60.0035796626,MAFE4ImagesEEG,001,100788,
AFNE01.JPG,AFNE01.JPG,AFNE01.JPG,AFNE01.JPG,AFNE01.JPG,AFNE01.JPG,,,,,,,,,,,,,,,,,1,4,14,6,,,,,,,AMSA15.jpg,AMNE18.jpg,AMSA05.jpg,AMNE17.jpg,AMNE18.jpg,MN,1,num_6,32,num_4,1.8167004405,,,2017_Jun_27_1053,60.0035796626,MAFE4ImagesEEG,001,100788,
AFNE01.JPG,AFNE01.JPG,AFNE01.JPG,AFNE01.JPG,AFNE01.JPG,AFNE01.JPG,,,,,,,,,,,,,,,,,1,5,15,3,,,,,,,AMNE16.jpg,AMNE02.jpg,AMSA08.jpg,AMSA09.jpg,AMNE16.jpg,MN,1,num_8,16,num_8,0.883542166619,,,2017_Jun_27_1053,60.0035796626,MAFE4ImagesEEG,001,100788,
AFNE01.JPG,AFNE01.JPG,AFNE01.JPG,AFNE01.JPG,AFNE01.JPG,AFNE01.JPG,,,,,,,,,,,,,,,,,1,6,16,4,,,,,,,AMSA01.jpg,AMNE08.jpg,AMNE15.jpg,AMSA17.jpg,AMNE08.jpg,MN,1,num_6,16,num_6,0.6502618194,,,2017_Jun_27_1053,60.0035796626,MAFE4ImagesEEG,001,100788,
AFNE01.JPG,AFNE01.JPG,AFNE01.JPG,AFNE01.JPG,AFNE01.JPG,AFNE01.JPG,,,,,,,,,,,,,,,,,1,7,17,7,,,,,,,AMSA14.jpg,AMSA20.jpg,AMNE20.jpg,AMNE06.jpg,AMNE20.jpg,MN,1,num_2,32,num_4,1.21657592955,,,2017_Jun_27_1053,60.0035796626,MAFE4ImagesEEG,001,100788,
AFNE01.JPG,AFNE01.JPG,AFNE01.JPG,AFNE01.JPG,AFNE01.JPG,AFNE01.JPG,,,,,,,,,,,,,,,,,1,8,18,9,,,,,,,AMSA14.jpg,AMNE13.jpg,AMNE01.jpg,AMSA10.jpg,AMSA10.jpg,MS,2,num_4,32,num_8,0.833458100878,,,2017_Jun_27_1053,60.0035796626,MAFE4ImagesEEG,001,100788,
AFNE01.JPG,AFNE01.JPG,AFNE01.JPG,AFNE01.JPG,AFNE01.JPG,AFNE01.JPG,,,,,,,,,,,,,,,,,1,9,19,1,,,,,,,AMNE16.jpg,AMSA06.jpg,AMSA19.jpg,AMNE03.jpg,AMNE16.jpg,MN,1,num_8,32,num_4,0.966783608175,,,2017_Jun_27_1053,60.0035796626,MAFE4ImagesEEG,001,100788,
AFNE01.JPG,AFNE01.JPG,AFNE01.JPG,AFNE01.JPG,AFNE01.JPG,AFNE01.JPG,,,,,,,,,,,,,,,,,2,0,20,4,,,,,,,AMSA04.jpg,AMNE17.jpg,AMNE15.jpg,AMSA09.jpg,AMSA04.jpg,MS,2,num_8,32,num_2,1.73339164372,,,2017_Jun_27_1053,60.0035796626,MAFE4ImagesEEG,001,100788,
AFNE01.JPG,AFNE01.JPG,AFNE01.JPG,AFNE01.JPG,AFNE01.JPG,AFNE01.JPG,,,,,,,,,,,,,,,,,2,1,21,1,,,,,,,AMSA15.jpg,AMNE12.jpg,AMNE20.jpg,AMSA16.jpg,AMSA15.jpg,MS,2,num_8,32,num_6,4.56680291667,,,2017_Jun_27_1053,60.0035796626,MAFE4ImagesEEG,001,100788,
AFNE01.JPG,AFNE01.JPG,AFNE01.JPG,AFNE01.JPG,AFNE01.JPG,AFNE01.JPG,,,,,,,,,,,,,,,,,2,2,22,0,,,,,,,AMNE17.jpg,AMSA08.jpg,AMSA02.jpg,AMNE20.jpg,AMNE20.jpg,MN,1,num_4,16,num_4,0.816767154254,,,2017_Jun_27_1053,60.0035796626,MAFE4ImagesEEG,001,100788,
AFNE01.JPG,AFNE01.JPG,AFNE01.JPG,AFNE01.JPG,AFNE01.JPG,AFNE01.JPG,,,,,,,,,,,,,,,,,2,3,23,9,,,,,,,AMNE13.jpg,AMNE07.jpg,AMSA18.jpg,AMSA15.jpg,AMSA15.jpg,MS,2,num_4,32,num_6,1.7835055382,,,2017_Jun_27_1053,60.0035796626,MAFE4ImagesEEG,001,100788,
AFNE01.JPG,AFNE01.JPG,AFNE01.JPG,AFNE01.JPG,AFNE01.JPG,AFNE01.JPG,,,,,,,,,,,,,,,,,2,4,24,6,,,,,,,AMSA14.jpg,AMNE07.jpg,AMNE06.jpg,AMSA19.jpg,AMNE07.jpg,MN,1,num_6,32,num_8,1.10007864525,,,2017_Jun_27_1053,60.0035796626,MAFE4ImagesEEG,001,100788,
AFNE01.JPG,AFNE01.JPG,AFNE01.JPG,AFNE01.JPG,AFNE01.JPG,AFNE01.JPG,,,,,,,,,,,,,,,,,2,5,25,3,,,,,,,AMNE05.jpg,AMNE20.jpg,AMSA17.jpg,AMSA15.jpg,AMSA15.jpg,MS,2,num_4,16,num_4,3.59994778366,,,2017_Jun_27_1053,60.0035796626,MAFE4ImagesEEG,001,100788,
AFNE01.JPG,AFNE01.JPG,AFNE01.JPG,AFNE01.JPG,AFNE01.JPG,AFNE01.JPG,,,,,,,,,,,,,,,,,2,6,26,7,,,,,,,AMNE03.jpg,AMSA18.jpg,AMNE11.jpg,AMSA06.jpg,AMSA06.jpg,MS,2,num_4,16,num_4,2.41665463895,,,2017_Jun_27_1053,60.0035796626,MAFE4ImagesEEG,001,100788,
AFNE01.JPG,AFNE01.JPG,AFNE01.JPG,AFNE01.JPG,AFNE01.JPG,AFNE01.JPG,,,,,,,,,,,,,,,,,2,7,27,5,,,,,,,AMSA15.jpg,AMSA10.jpg,AMNE10.jpg,AMNE15.jpg,AMSA15.jpg,MS,2,num_8,32,num_6,0.650150202162,,,2017_Jun_27_1053,60.0035796626,MAFE4ImagesEEG,001,100788,
AFNE01.JPG,AFNE01.JPG,AFNE01.JPG,AFNE01.JPG,AFNE01.JPG,AFNE01.JPG,,,,,,,,,,,,,,,,,2,8,28,8,,,,,,,AMSA03.jpg,AMSA19.jpg,AMNE06.jpg,AMNE20.jpg,AMSA03.jpg,MS,2,num_8,16,num_8,3.54989611258,,,2017_Jun_27_1053,60.0035796626,MAFE4ImagesEEG,001,100788,
AFNE01.JPG,AFNE01.JPG,AFNE01.JPG,AFNE01.JPG,AFNE01.JPG,AFNE01.JPG,,,,,,,,,,,,,,,,,2,9,29,2,,,,,,,AMSA07.jpg,AMNE12.jpg,AMSA08.jpg,AMNE11.jpg,AMNE11.jpg,MN,1,num_4,32,num_6,1.33342249883,,,2017_Jun_27_1053,60.0035796626,MAFE4ImagesEEG,001,100788,
AFNE01.JPG,AFNE01.JPG,AFNE01.JPG,AFNE01.JPG,AFNE01.JPG,AFNE01.JPG,,,,,,,,,,,,,,,,,3,0,30,9,,,,,,,AMNE02.jpg,AMSA12.jpg,AMSA10.jpg,AMNE10.jpg,AMNE02.jpg,MN,1,num_8,32,num_6,1.0167496419,,,2017_Jun_27_1053,60.0035796626,MAFE4ImagesEEG,001,100788,
AFNE01.JPG,AFNE01.JPG,AFNE01.JPG,AFNE01.JPG,AFNE01.JPG,AFNE01.JPG,,,,,,,,,,,,,,,,,3,1,31,2,,,,,,,AMNE02.jpg,AMSA01.jpg,AMNE06.jpg,AMSA03.jpg,AMNE02.jpg,MN,1,num_8,32,num_2,1.23340671846,,,2017_Jun_27_1053,60.0035796626,MAFE4ImagesEEG,001,100788,
AFNE01.JPG,AFNE01.JPG,AFNE01.JPG,AFNE01.JPG,AFNE01.JPG,AFNE01.JPG,,,,,,,,,,,,,,,,,3,2,32,5,,,,,,,AMSA14.jpg,AMNE12.jpg,AMSA03.jpg,AMNE11.jpg,AMNE12.jpg,MN,1,num_6,32,num_4,4.46643368172,,,2017_Jun_27_1053,60.0035796626,MAFE4ImagesEEG,001,100788,
AFNE01.JPG,AFNE01.JPG,AFNE01.JPG,AFNE01.JPG,AFNE01.JPG,AFNE01.JPG,,,,,,,,,,,,,,,,,3,3,33,8,,,,,,,AMSA16.jpg,AMNE04.jpg,AMSA08.jpg,AMNE11.jpg,AMSA08.jpg,MS,2,num_2,32,num_6,2.81653878795,,,2017_Jun_27_1053,60.0035796626,MAFE4ImagesEEG,001,100788,
AFNE01.JPG,AFNE01.JPG,AFNE01.JPG,AFNE01.JPG,AFNE01.JPG,AFNE01.JPG,,,,,,,,,,,,,,,,,3,4,34,3,,,,,,,AMNE14.jpg,AMSA19.jpg,AMNE18.jpg,AMSA04.jpg,AMNE14.jpg,MN,1,num_8,32,num_4,2.34998675347,,,2017_Jun_27_1053,60.0035796626,MAFE4ImagesEEG,001,100788,
AFNE01.JPG,AFNE01.JPG,AFNE01.JPG,AFNE01.JPG,AFNE01.JPG,AFNE01.JPG,,,,,,,,,,,,,,,,,3,5,35,1,,,,,,,AMSA03.jpg,AMSA19.jpg,AMNE01.jpg,AMNE18.jpg,AMNE01.jpg,MN,1,num_2,32,num_8,1.0001350312,,,2017_Jun_27_1053,60.0035796626,MAFE4ImagesEEG,001,100788,
AFNE01.JPG,AFNE01.JPG,AFNE01.JPG,AFNE01.JPG,AFNE01.JPG,AFNE01.JPG,,,,,,,,,,,,,,,,,3,6,36,4,,,,,,,AMSA19.jpg,AMNE04.jpg,AMSA11.jpg,AMNE17.jpg,AMNE17.jpg,MN,1,num_4,32,num_8,1.43340043197,,,2017_Jun_27_1053,60.0035796626,MAFE4ImagesEEG,001,100788,
AFNE01.JPG,AFNE01.JPG,AFNE01.JPG,AFNE01.JPG,AFNE01.JPG,AFNE01.JPG,,,,,,,,,,,,,,,,,3,7,37,6,,,,,,,AMSA11.jpg,AMNE15.jpg,AMSA03.jpg,AMNE02.jpg,AMSA11.jpg,MS,2,num_8,32,num_2,1.81671647746,,,2017_Jun_27_1053,60.0035796626,MAFE4ImagesEEG,001,100788,
AFNE01.JPG,AFNE01.JPG,AFNE01.JPG,AFNE01.JPG,AFNE01.JPG,AFNE01.JPG,,,,,,,,,,,,,,,,,3,8,38,0,,,,,,,AMNE02.jpg,AMSA07.jpg,AMSA15.jpg,AMNE19.jpg,AMSA07.jpg,MS,2,num_6,32,num_4,1.36675980933,,,2017_Jun_27_1053,60.0035796626,MAFE4ImagesEEG,001,100788,
AFNE01.JPG,AFNE01.JPG,AFNE01.JPG,AFNE01.JPG,AFNE01.JPG,AFNE01.JPG,,,,,,,,,,,,,,,,,3,9,39,7,,,,,,,AMNE13.jpg,AMSA11.jpg,AMSA05.jpg,AMNE12.jpg,AMSA11.jpg,MS,2,num_6,32,num_4,1.45002370263,,,2017_Jun_27_1053,60.0035796626,MAFE4ImagesEEG,001,100788,
AFNE01.JPG,AFNE01.JPG,AFNE01.JPG,AFNE01.JPG,AFNE01.JPG,AFNE01.JPG,,,,,,,,,,,,,,,,,4,0,40,5,,,,,,,AMSA07.jpg,AMNE18.jpg,AMSA20.jpg,AMNE08.jpg,AMNE18.jpg,MN,1,num_6,16,num_6,1.60005138242,,,2017_Jun_27_1053,60.0035796626,MAFE4ImagesEEG,001,100788,
AFNE01.JPG,AFNE01.JPG,AFNE01.JPG,AFNE01.JPG,AFNE01.JPG,AFNE01.JPG,,,,,,,,,,,,,,,,,4,1,41,4,,,,,,,AMSA03.jpg,AMNE19.jpg,AMNE06.jpg,AMSA18.jpg,AMSA18.jpg,MS,2,num_4,32,num_2,2.06669643126,,,2017_Jun_27_1053,60.0035796626,MAFE4ImagesEEG,001,100788,
AFNE01.JPG,AFNE01.JPG,AFNE01.JPG,AFNE01.JPG,AFNE01.JPG,AFNE01.JPG,,,,,,,,,,,,,,,,,4,2,42,0,,,,,,,AMNE08.jpg,AMNE03.jpg,AMSA20.jpg,AMSA01.jpg,AMSA01.jpg,MS,2,num_4,16,num_4,4.38325189765,,,2017_Jun_27_1053,60.0035796626,MAFE4ImagesEEG,001,100788,
AFNE01.JPG,AFNE01.JPG,AFNE01.JPG,AFNE01.JPG,AFNE01.JPG,AFNE01.JPG,,,,,,,,,,,,,,,,,4,3,43,2,,,,,,,AMSA07.jpg,AMSA11.jpg,AMNE20.jpg,AMNE14.jpg,AMSA11.jpg,MS,2,num_6,32,num_4,1.16670579685,,,2017_Jun_27_1053,60.0035796626,MAFE4ImagesEEG,001,100788,
AFNE01.JPG,AFNE01.JPG,AFNE01.JPG,AFNE01.JPG,AFNE01.JPG,AFNE01.JPG,,,,,,,,,,,,,,,,,4,4,44,1,,,,,,,AMSA18.jpg,AMNE03.jpg,AMNE16.jpg,AMSA08.jpg,AMSA18.jpg,MS,2,num_8,16,num_8,0.966616823797,,,2017_Jun_27_1053,60.0035796626,MAFE4ImagesEEG,001,100788,
AFNE01.JPG,AFNE01.JPG,AFNE01.JPG,AFNE01.JPG,AFNE01.JPG,AFNE01.JPG,,,,,,,,,,,,,,,,,4,5,45,9,,,,,,,AMNE10.jpg,AMNE09.jpg,AMSA02.jpg,AMSA16.jpg,AMNE09.jpg,MN,1,num_6,32,num_8,1.30010411194,,,2017_Jun_27_1053,60.0035796626,MAFE4ImagesEEG,001,100788,
AFNE01.JPG,AFNE01.JPG,AFNE01.JPG,AFNE01.JPG,AFNE01.JPG,AFNE01.JPG,,,,,,,,,,,,,,,,,4,6,46,3,,,,,,,AMNE05.jpg,AMSA07.jpg,AMSA08.jpg,AMNE18.jpg,AMSA07.jpg,MS,2,num_6,32,num_2,1.73340671846,,,2017_Jun_27_1053,60.0035796626,MAFE4ImagesEEG,001,100788,
AFNE01.JPG,AFNE01.JPG,AFNE01.JPG,AFNE01.JPG,AFNE01.JPG,AFNE01.JPG,,,,,,,,,,,,,,,,,4,7,47,7,,,,,,,AMSA04.jpg,AMSA06.jpg,AMNE02.jpg,AMNE19.jpg,AMNE19.jpg,MN,1,num_4,32,num_6,2.15005109375,,,2017_Jun_27_1053,60.0035796626,MAFE4ImagesEEG,001,100788,
AFNE01.JPG,AFNE01.JPG,AFNE01.JPG,AFNE01.JPG,AFNE01.JPG,AFNE01.JPG,,,,,,,,,,,,,,,,,4,8,48,8,,,,,,,AMSA03.jpg,AMSA01.jpg,AMNE13.jpg,AMNE15.jpg,AMNE13.jpg,MN,1,num_2,32,num_4,3.30025036901,,,2017_Jun_27_1053,60.0035796626,MAFE4ImagesEEG,001,100788,
AFNE01.JPG,AFNE01.JPG,AFNE01.JPG,AFNE01.JPG,AFNE01.JPG,AFNE01.JPG,,,,,,,,,,,,,,,,,4,9,49,6,,,,,,,AMSA04.jpg,AMNE17.jpg,AMSA12.jpg,AMNE11.jpg,AMNE17.jpg,MN,1,num_6,32,num_4,0.933508200339,,,2017_Jun_27_1053,60.0035796626,MAFE4ImagesEEG,001,100788,
AFNE01.JPG,AFNE01.JPG,AFNE01.JPG,AFNE01.JPG,AFNE01.JPG,AFNE01.JPG,,,,,,,,,,,,,,,,,5,0,50,0,,,,,,,AMSA09.jpg,AMNE18.jpg,AMNE02.jpg,AMSA15.jpg,AMSA09.jpg,MS,2,num_8,16,num_8,1.50009237289,,,2017_Jun_27_1053,60.0035796626,MAFE4ImagesEEG,001,100788,
AFNE01.JPG,AFNE01.JPG,AFNE01.JPG,AFNE01.JPG,AFNE01.JPG,AFNE01.JPG,,,,,,,,,,,,,,,,,5,1,51,1,,,,,,,AMSA15.jpg,AMSA02.jpg,AMNE17.jpg,AMNE13.jpg,AMSA02.jpg,MS,2,num_6,32,num_4,2.38335036458,,,2017_Jun_27_1053,60.0035796626,MAFE4ImagesEEG,001,100788,
AFNE01.JPG,AFNE01.JPG,AFNE01.JPG,AFNE01.JPG,AFNE01.JPG,AFNE01.JPG,,,,,,,,,,,,,,,,,5,2,52,2,,,,,,,AMNE10.jpg,AMNE12.jpg,AMSA17.jpg,AMSA10.jpg,AMSA17.jpg,MS,2,num_2,32,num_8,1.91648881679,,,2017_Jun_27_1053,60.0035796626,MAFE4ImagesEEG,001,100788,
AFNE01.JPG,AFNE01.JPG,AFNE01.JPG,AFNE01.JPG,AFNE01.JPG,AFNE01.JPG,,,,,,,,,,,,,,,,,5,3,53,8,,,,,,,AMNE17.jpg,AMNE14.jpg,AMSA16.jpg,AMSA09.jpg,AMSA16.jpg,MS,2,num_2,32,num_6,0.716472330792,,,2017_Jun_27_1053,60.0035796626,MAFE4ImagesEEG,001,100788,
AFNE01.JPG,AFNE01.JPG,AFNE01.JPG,AFNE01.JPG,AFNE01.JPG,AFNE01.JPG,,,,,,,,,,,,,,,,,5,4,54,7,,,,,,,AMNE19.jpg,AMNE12.jpg,AMSA13.jpg,AMSA04.jpg,AMNE19.jpg,MN,1,num_8,16,num_8,0.666784698687,,,2017_Jun_27_1053,60.0035796626,MAFE4ImagesEEG,001,100788,
AFNE01.JPG,AFNE01.JPG,AFNE01.JPG,AFNE01.JPG,AFNE01.JPG,AFNE01.JPG,,,,,,,,,,,,,,,,,5,5,55,6,,,,,,,AMNE05.jpg,AMSA01.jpg,AMNE15.jpg,AMSA18.jpg,AMNE15.jpg,MN,1,num_2,16,num_2,0.483479365886,,,2017_Jun_27_1053,60.0035796626,MAFE4ImagesEEG,001,100788,
AFNE01.JPG,AFNE01.JPG,AFNE01.JPG,AFNE01.JPG,AFNE01.JPG,AFNE01.JPG,,,,,,,,,,,,,,,,,5,6,56,4,,,,,,,AMSA05.jpg,AMNE07.jpg,AMNE13.jpg,AMSA15.jpg,AMNE07.jpg,MN,1,num_6,16,num_6,0.650158220642,,,2017_Jun_27_1053,60.0035796626,MAFE4ImagesEEG,001,100788,
AFNE01.JPG,AFNE01.JPG,AFNE01.JPG,AFNE01.JPG,AFNE01.JPG,AFNE01.JPG,,,,,,,,,,,,,,,,,5,7,57,9,,,,,,,AMSA18.jpg,AMNE14.jpg,AMNE16.jpg,AMSA09.jpg,AMSA18.jpg,MS,2,num_8,16,num_8,0.333546304155,,,2017_Jun_27_1053,60.0035796626,MAFE4ImagesEEG,001,100788,
AFNE01.JPG,AFNE01.JPG,AFNE01.JPG,AFNE01.JPG,AFNE01.JPG,AFNE01.JPG,,,,,,,,,,,,,,,,,5,8,58,3,,,,,,,AMSA06.jpg,AMSA19.jpg,AMNE14.jpg,AMNE12.jpg,AMNE14.jpg,MN,1,num_2,16,num_2,1.16674909664,,,2017_Jun_27_1053,60.0035796626,MAFE4ImagesEEG,001,100788,
AFNE01.JPG,AFNE01.JPG,AFNE01.JPG,AFNE01.JPG,AFNE01.JPG,AFNE01.JPG,,,,,,,,,,,,,,,,,5,9,59,5,,,,,,,AMNE08.jpg,AMSA09.jpg,AMNE14.jpg,AMSA18.jpg,AMSA09.jpg,MS,2,num_6,32,num_8,1.11697486495,,,2017_Jun_27_1053,60.0035796626,MAFE4ImagesEEG,001,100788,
,,,,,,,,,,,,,,,,,,,,,,,,,,,,,,,,,,,,,,,,,,,space,14.582383785,2017_Jun_27_1053,60.0035796626,MAFE4ImagesEEG,001,100788,
AFNE01.JPG,AFNE01.JPG,AFNE01.JPG,AFNE01.JPG,AFNE01.JPG,AFNE01.JPG,,,,,,,,,,,,,,,,,,,,,0,0,0,5,,,AFSA17.jpg,AFSA11.jpg,AFNE07.jpg,AFNE09.jpg,AFNE07.jpg,FN,3,num_2,16,num_2,0.950098434857,,,2017_Jun_27_1053,60.0035796626,MAFE4ImagesEEG,001,100788,
AFNE01.JPG,AFNE01.JPG,AFNE01.JPG,AFNE01.JPG,AFNE01.JPG,AFNE01.JPG,,,,,,,,,,,,,,,,,,,,,0,1,1,8,,,AFSA02.jpg,AFNE07.jpg,AFSA11.jpg,AFNE13.jpg,AFSA11.jpg,FS,4,num_2,16,num_2,0.883514903788,,,2017_Jun_27_1053,60.0035796626,MAFE4ImagesEEG,001,100788,
AFNE01.JPG,AFNE01.JPG,AFNE01.JPG,AFNE01.JPG,AFNE01.JPG,AFNE01.JPG,,,,,,,,,,,,,,,,,,,,,0,2,2,2,,,AFNE14.jpg,AFSA15.jpg,AFSA08.jpg,AFNE10.jpg,AFNE14.jpg,FN,3,num_8,32,num_4,0.650112354938,,,2017_Jun_27_1053,60.0035796626,MAFE4ImagesEEG,001,100788,
AFNE01.JPG,AFNE01.JPG,AFNE01.JPG,AFNE01.JPG,AFNE01.JPG,AFNE01.JPG,,,,,,,,,,,,,,,,,,,,,0,3,3,6,,,AFSA06.jpg,AFSA01.jpg,AFNE04.jpg,AFNE18.jpg,AFSA06.jpg,FS,4,num_8,16,num_8,0.833312806026,,,2017_Jun_27_1053,60.0035796626,MAFE4ImagesEEG,001,100788,
AFNE01.JPG,AFNE01.JPG,AFNE01.JPG,AFNE01.JPG,AFNE01.JPG,AFNE01.JPG,,,,,,,,,,,,,,,,,,,,,0,4,4,9,,,AFSA14.jpg,AFNE01.jpg,AFNE04.jpg,AFSA16.jpg,AFSA16.jpg,FS,4,num_4,32,num_8,1.266742746,,,2017_Jun_27_1053,60.0035796626,MAFE4ImagesEEG,001,100788,
AFNE01.JPG,AFNE01.JPG,AFNE01.JPG,AFNE01.JPG,AFNE01.JPG,AFNE01.JPG,,,,,,,,,,,,,,,,,,,,,0,5,5,1,,,AFNE14.jpg,AFNE16.jpg,AFSA19.jpg,AFSA08.jpg,AFSA08.jpg,FS,4,num_4,16,num_4,0.966769174912,,,2017_Jun_27_1053,60.0035796626,MAFE4ImagesEEG,001,100788,
AFNE01.JPG,AFNE01.JPG,AFNE01.JPG,AFNE01.JPG,AFNE01.JPG,AFNE01.JPG,,,,,,,,,,,,,,,,,,,,,0,6,6,4,,,AFSA10.jpg,AFSA07.jpg,AFNE01.jpg,AFNE10.jpg,AFSA07.jpg,FS,4,num_6,32,num_4,1.05013185588,,,2017_Jun_27_1053,60.0035796626,MAFE4ImagesEEG,001,100788,
AFNE01.JPG,AFNE01.JPG,AFNE01.JPG,AFNE01.JPG,AFNE01.JPG,AFNE01.JPG,,,,,,,,,,,,,,,,,,,,,0,7,7,3,,,AFSA19.jpg,AFNE19.jpg,AFSA12.jpg,AFNE20.jpg,AFNE19.jpg,FN,3,num_6,32,num_8,1.33344206392,,,2017_Jun_27_1053,60.0035796626,MAFE4ImagesEEG,001,100788,
AFNE01.JPG,AFNE01.JPG,AFNE01.JPG,AFNE01.JPG,AFNE01.JPG,AFNE01.JPG,,,,,,,,,,,,,,,,,,,,,0,8,8,7,,,AFNE02.jpg,AFSA05.jpg,AFSA07.jpg,AFNE07.jpg,AFNE02.jpg,FN,3,num_8,32,num_6,1.14997956891,,,2017_Jun_27_1053,60.0035796626,MAFE4ImagesEEG,001,100788,
AFNE01.JPG,AFNE01.JPG,AFNE01.JPG,AFNE01.JPG,AFNE01.JPG,AFNE01.JPG,,,,,,,,,,,,,,,,,,,,,0,9,9,0,,,AFNE11.jpg,AFSA07.jpg,AFNE16.jpg,AFSA01.jpg,AFSA01.jpg,FS,4,num_4,32,num_2,1.51675124559,,,2017_Jun_27_1053,60.0035796626,MAFE4ImagesEEG,001,100788,
AFNE01.JPG,AFNE01.JPG,AFNE01.JPG,AFNE01.JPG,AFNE01.JPG,AFNE01.JPG,,,,,,,,,,,,,,,,,,,,,1,0,10,7,,,AFNE14.jpg,AFNE11.jpg,AFSA16.jpg,AFSA06.jpg,AFSA06.jpg,FS,4,num_4,16,num_4,1.21678922111,,,2017_Jun_27_1053,60.0035796626,MAFE4ImagesEEG,001,100788,
AFNE01.JPG,AFNE01.JPG,AFNE01.JPG,AFNE01.JPG,AFNE01.JPG,AFNE01.JPG,,,,,,,,,,,,,,,,,,,,,1,1,11,2,,,AFSA13.jpg,AFSA17.jpg,AFNE17.jpg,AFNE12.jpg,AFNE12.jpg,FN,3,num_4,32,num_8,1.29992513947,,,2017_Jun_27_1053,60.0035796626,MAFE4ImagesEEG,001,100788,
AFNE01.JPG,AFNE01.JPG,AFNE01.JPG,AFNE01.JPG,AFNE01.JPG,AFNE01.JPG,,,,,,,,,,,,,,,,,,,,,1,2,12,3,,,AFSA06.jpg,AFNE04.jpg,AFSA07.jpg,AFNE01.jpg,AFSA07.jpg,FS,4,num_2,32,num_8,1.96663735111,,,2017_Jun_27_1053,60.0035796626,MAFE4ImagesEEG,001,100788,
AFNE01.JPG,AFNE01.JPG,AFNE01.JPG,AFNE01.JPG,AFNE01.JPG,AFNE01.JPG,,,,,,,,,,,,,,,,,,,,,1,3,13,4,,,AFNE02.jpg,AFSA19.jpg,AFSA01.jpg,AFNE04.jpg,AFNE04.jpg,FN,3,num_4,16,num_4,0.816781587518,,,2017_Jun_27_1053,60.0035796626,MAFE4ImagesEEG,001,100788,
AFNE01.JPG,AFNE01.JPG,AFNE01.JPG,AFNE01.JPG,AFNE01.JPG,AFNE01.JPG,,,,,,,,,,,,,,,,,,,,,1,4,14,6,,,AFNE18.jpg,AFSA06.jpg,AFNE05.jpg,AFSA07.jpg,AFNE05.jpg,FN,3,num_2,32,num_4,1.31647399864,,,2017_Jun_27_1053,60.0035796626,MAFE4ImagesEEG,001,100788,
AFNE01.JPG,AFNE01.JPG,AFNE01.JPG,AFNE01.JPG,AFNE01.JPG,AFNE01.JPG,,,,,,,,,,,,,,,,,,,,,1,5,15,0,,,AFNE11.jpg,AFSA18.jpg,AFNE15.jpg,AFSA14.jpg,AFNE11.jpg,FN,3,num_8,32,num_6,0.783442352584,,,2017_Jun_27_1053,60.0035796626,MAFE4ImagesEEG,001,100788,
AFNE01.JPG,AFNE01.JPG,AFNE01.JPG,AFNE01.JPG,AFNE01.JPG,AFNE01.JPG,,,,,,,,,,,,,,,,,,,,,1,6,16,8,,,AFNE18.jpg,AFSA13.jpg,AFNE04.jpg,AFSA12.jpg,AFNE18.jpg,FN,3,num_8,16,num_8,1.40006729108,,,2017_Jun_27_1053,60.0035796626,MAFE4ImagesEEG,001,100788,
AFNE01.JPG,AFNE01.JPG,AFNE01.JPG,AFNE01.JPG,AFNE01.JPG,AFNE01.JPG,,,,,,,,,,,,,,,,,,,,,1,7,17,9,,,AFNE12.jpg,AFSA14.jpg,AFSA03.jpg,AFNE13.jpg,AFNE12.jpg,FN,3,num_8,32,num_4,0.866787713637,,,2017_Jun_27_1053,60.0035796626,MAFE4ImagesEEG,001,100788,
AFNE01.JPG,AFNE01.JPG,AFNE01.JPG,AFNE01.JPG,AFNE01.JPG,AFNE01.JPG,,,,,,,,,,,,,,,,,,,,,1,8,18,5,,,AFNE06.jpg,AFNE10.jpg,AFSA14.jpg,AFSA01.jpg,AFSA14.jpg,FS,4,num_2,32,num_6,0.700080313092,,,2017_Jun_27_1053,60.0035796626,MAFE4ImagesEEG,001,100788,
AFNE01.JPG,AFNE01.JPG,AFNE01.JPG,AFNE01.JPG,AFNE01.JPG,AFNE01.JPG,,,,,,,,,,,,,,,,,,,,,1,9,19,1,,,AFSA09.jpg,AFSA10.jpg,AFNE06.jpg,AFNE14.jpg,AFNE14.jpg,FN,3,num_4,32,num_8,0.900127590049,,,2017_Jun_27_1053,60.0035796626,MAFE4ImagesEEG,001,100788,
AFNE01.JPG,AFNE01.JPG,AFNE01.JPG,AFNE01.JPG,AFNE01.JPG,AFNE01.JPG,,,,,,,,,,,,,,,,,,,,,2,0,20,5,,,AFNE03.jpg,AFNE13.jpg,AFSA10.jpg,AFSA07.jpg,AFNE03.jpg,FN,3,num_8,32,num_4,1.90003425495,,,2017_Jun_27_1053,60.0035796626,MAFE4ImagesEEG,001,100788,
AFNE01.JPG,AFNE01.JPG,AFNE01.JPG,AFNE01.JPG,AFNE01.JPG,AFNE01.JPG,,,,,,,,,,,,,,,,,,,,,2,1,21,4,,,AFSA19.jpg,AFSA14.jpg,AFNE13.jpg,AFNE18.jpg,AFSA14.jpg,FS,4,num_6,32,num_8,0.566789124889,,,2017_Jun_27_1053,60.0035796626,MAFE4ImagesEEG,001,100788,
AFNE01.JPG,AFNE01.JPG,AFNE01.JPG,AFNE01.JPG,AFNE01.JPG,AFNE01.JPG,,,,,,,,,,,,,,,,,,,,,2,2,22,3,,,AFSA07.jpg,AFNE10.jpg,AFSA09.jpg,AFNE12.jpg,AFSA07.jpg,FS,4,num_8,32,num_4,1.33346579862,,,2017_Jun_27_1053,60.0035796626,MAFE4ImagesEEG,001,100788,
AFNE01.JPG,AFNE01.JPG,AFNE01.JPG,AFNE01.JPG,AFNE01.JPG,AFNE01.JPG,,,,,,,,,,,,,,,,,,,,,2,3,23,1,,,AFSA19.jpg,AFNE16.jpg,AFSA11.jpg,AFNE07.jpg,AFNE16.jpg,FN,3,num_6,32,num_2,1.3334083863,,,2017_Jun_27_1053,60.0035796626,MAFE4ImagesEEG,001,100788,
AFNE01.JPG,AFNE01.JPG,AFNE01.JPG,AFNE01.JPG,AFNE01.JPG,AFNE01.JPG,,,,,,,,,,,,,,,,,,,,,2,4,24,7,,,AFNE18.jpg,AFNE04.jpg,AFSA02.jpg,AFSA08.jpg,AFSA08.jpg,FS,4,num_4,32,num_6,1.00009782545,,,2017_Jun_27_1053,60.0035796626,MAFE4ImagesEEG,001,100788,
AFNE01.JPG,AFNE01.JPG,AFNE01.JPG,AFNE01.JPG,AFNE01.JPG,AFNE01.JPG,,,,,,,,,,,,,,,,,,,,,2,5,25,9,,,AFNE08.jpg,AFSA12.jpg,AFSA05.jpg,AFNE20.jpg,AFNE08.jpg,FN,3,num_8,16,num_8,1.48310987434,,,2017_Jun_27_1053,60.0035796626,MAFE4ImagesEEG,001,100788,
AFNE01.JPG,AFNE01.JPG,AFNE01.JPG,AFNE01.JPG,AFNE01.JPG,AFNE01.JPG,,,,,,,,,,,,,,,,,,,,,2,6,26,8,,,AFNE11.jpg,AFSA10.jpg,AFSA13.jpg,AFNE05.jpg,AFNE11.jpg,FN,3,num_8,32,num_2,0.850149688978,,,2017_Jun_27_1053,60.0035796626,MAFE4ImagesEEG,001,100788,
AFNE01.JPG,AFNE01.JPG,AFNE01.JPG,AFNE01.JPG,AFNE01.JPG,AFNE01.JPG,,,,,,,,,,,,,,,,,,,,,2,7,27,0,,,AFNE12.jpg,AFSA04.jpg,AFNE19.jpg,AFSA13.jpg,AFSA04.jpg,FS,4,num_6,16,num_6,1.7834048261,,,2017_Jun_27_1053,60.0035796626,MAFE4ImagesEEG,001,100788,
AFNE01.JPG,AFNE01.JPG,AFNE01.JPG,AFNE01.JPG,AFNE01.JPG,AFNE01.JPG,,,,,,,,,,,,,,,,,,,,,2,8,28,2,,,AFSA13.jpg,AFSA12.jpg,AFNE10.jpg,AFNE08.jpg,AFNE10.jpg,FN,3,num_2,32,num_4,1.15009760094,,,2017_Jun_27_1053,60.0035796626,MAFE4ImagesEEG,001,100788,
AFNE01.JPG,AFNE01.JPG,AFNE01.JPG,AFNE01.JPG,AFNE01.JPG,AFNE01.JPG,,,,,,,,,,,,,,,,,,,,,2,9,29,6,,,AFNE02.jpg,AFNE07.jpg,AFSA01.jpg,AFSA08.jpg,AFSA08.jpg,FS,4,num_4,16,num_4,1.15013865555,,,2017_Jun_27_1053,60.0035796626,MAFE4ImagesEEG,001,100788,
AFNE01.JPG,AFNE01.JPG,AFNE01.JPG,AFNE01.JPG,AFNE01.JPG,AFNE01.JPG,,,,,,,,,,,,,,,,,,,,,3,0,30,6,,,AFNE09.jpg,AFSA01.jpg,AFNE07.jpg,AFSA15.jpg,AFSA15.jpg,FS,4,num_4,32,num_8,1.15009503502,,,2017_Jun_27_1053,60.0035796626,MAFE4ImagesEEG,001,100788,
AFNE01.JPG,AFNE01.JPG,AFNE01.JPG,AFNE01.JPG,AFNE01.JPG,AFNE01.JPG,,,,,,,,,,,,,,,,,,,,,3,1,31,8,,,AFNE12.jpg,AFNE04.jpg,AFSA02.jpg,AFSA13.jpg,AFNE04.jpg,FN,3,num_6,16,num_6,0.600095965165,,,2017_Jun_27_1053,60.0035796626,MAFE4ImagesEEG,001,100788,
AFNE01.JPG,AFNE01.JPG,AFNE01.JPG,AFNE01.JPG,AFNE01.JPG,AFNE01.JPG,,,,,,,,,,,,,,,,,,,,,3,2,32,4,,,AFNE04.jpg,AFNE07.jpg,AFSA05.jpg,AFSA13.jpg,AFSA13.jpg,FS,4,num_4,16,num_4,0.833477665969,,,2017_Jun_27_1053,60.0035796626,MAFE4ImagesEEG,001,100788,
AFNE01.JPG,AFNE01.JPG,AFNE01.JPG,AFNE01.JPG,AFNE01.JPG,AFNE01.JPG,,,,,,,,,,,,,,,,,,,,,3,3,33,1,,,AFNE20.jpg,AFSA04.jpg,AFSA02.jpg,AFNE12.jpg,AFSA04.jpg,FS,4,num_6,32,num_8,1.18340155456,,,2017_Jun_27_1053,60.0035796626,MAFE4ImagesEEG,001,100788,
AFNE01.JPG,AFNE01.JPG,AFNE01.JPG,AFNE01.JPG,AFNE01.JPG,AFNE01.JPG,,,,,,,,,,,,,,,,,,,,,3,4,34,3,,,AFSA03.jpg,AFSA10.jpg,AFNE19.jpg,AFNE17.jpg,AFSA10.jpg,FS,4,num_6,32,num_8,1.61669101077,,,2017_Jun_27_1053,60.0035796626,MAFE4ImagesEEG,001,100788,
AFNE01.JPG,AFNE01.JPG,AFNE01.JPG,AFNE01.JPG,AFNE01.JPG,AFNE01.JPG,,,,,,,,,,,,,,,,,,,,,3,5,35,0,,,AFNE20.jpg,AFSA02.jpg,AFNE12.jpg,AFSA18.jpg,AFSA02.jpg,FS,4,num_6,16,num_6,2.43330805908,,,2017_Jun_27_1053,60.0035796626,MAFE4ImagesEEG,001,100788,
AFNE01.JPG,AFNE01.JPG,AFNE01.JPG,AFNE01.JPG,AFNE01.JPG,AFNE01.JPG,,,,,,,,,,,,,,,,,,,,,3,6,36,5,,,AFSA14.jpg,AFSA02.jpg,AFNE02.jpg,AFNE10.jpg,AFSA02.jpg,FS,4,num_6,32,num_4,0.833510702105,,,2017_Jun_27_1053,60.0035796626,MAFE4ImagesEEG,001,100788,
AFNE01.JPG,AFNE01.JPG,AFNE01.JPG,AFNE01.JPG,AFNE01.JPG,AFNE01.JPG,,,,,,,,,,,,,,,,,,,,,3,7,37,2,,,AFSA09.jpg,AFNE14.jpg,AFSA10.jpg,AFNE03.jpg,AFNE14.jpg,FN,3,num_6,16,num_6,0.750142889308,,,2017_Jun_27_1053,60.0035796626,MAFE4ImagesEEG,001,100788,
AFNE01.JPG,AFNE01.JPG,AFNE01.JPG,AFNE01.JPG,AFNE01.JPG,AFNE01.JPG,,,,,,,,,,,,,,,,,,,,,3,8,38,7,,,AFSA11.jpg,AFSA16.jpg,AFNE17.jpg,AFNE09.jpg,AFNE17.jpg,FN,3,num_2,16,num_2,1.19991641537,,,2017_Jun_27_1053,60.0035796626,MAFE4ImagesEEG,001,100788,
AFNE01.JPG,AFNE01.JPG,AFNE01.JPG,AFNE01.JPG,AFNE01.JPG,AFNE01.JPG,,,,,,,,,,,,,,,,,,,,,3,9,39,9,,,AFNE08.jpg,AFSA16.jpg,AFSA06.jpg,AFNE01.jpg,AFNE08.jpg,FN,3,num_8,16,num_8,1.06679970928,,,2017_Jun_27_1053,60.0035796626,MAFE4ImagesEEG,001,100788,
