IPosition2,IPosition3,IPosition1,IPosition6,IPosition4,IPosition5,TrialsF1.thisRepN,TrialsF1.thisTrialN,TrialsF1.thisN,TrialsF1.thisIndex,TrialsM1.thisRepN,TrialsM1.thisTrialN,TrialsM1.thisN,TrialsM1.thisIndex,TrialsF2.thisRepN,TrialsF2.thisTrialN,TrialsF2.thisN,TrialsF2.thisIndex,TrialsM2.thisRepN,TrialsM2.thisTrialN,TrialsM2.thisN,TrialsM2.thisIndex,TrialsF3.thisRepN,TrialsF3.thisTrialN,TrialsF3.thisN,TrialsF3.thisIndex,TrialsM3.thisRepN,TrialsM3.thisTrialN,TrialsM3.thisN,TrialsM3.thisIndex,InstrKey_resp.keys,InstrKey_resp.rt,Image0 _Position,Image1 _Position,Image2 _Position,Image3 _Position,Center_image,condition,code,correct_answer,accuracy,Key_Resp.keys,Key_Resp.rt,BreakKey_resp.keys,BreakKey_resp.rt,date,frameRate,expName,session,participant,
,,,,,,,,,,,,,,,,,,,,,,,,,,,,,,space,29.5313896118,,,,,,,,,,,,,,2017_Jun_16_1256,60.0115680968,FEMA4ImagesEEG,001,100707,
AMSA21.JPG,AMNE23.JPG,AMNE21.JPG,AMSA25.JPG,AMNE25.JPG,AMSA23.JPG,0,0,0,5,,,,,,,,,,,,,,,,,,,,,,,AFSA20.jpg,AFNE03.jpg,AFNE09.jpg,AFSA14.jpg,AFNE09.jpg,FN,3,num_2,48,None,,,,2017_Jun_16_1256,60.0115680968,FEMA4ImagesEEG,001,100707,
AMNE23.JPG,AMNE24.JPG,AMNE22.JPG,AMSA24.JPG,AMSA22.JPG,AMSA23.JPG,0,1,1,9,,,,,,,,,,,,,,,,,,,,,,,AFSA04.jpg,AFNE03.jpg,AFNE19.jpg,AFSA11.jpg,AFNE03.jpg,FN,3,num_6,32,num_2,2.25004498358,,,2017_Jun_16_1256,60.0115680968,FEMA4ImagesEEG,001,100707,
AFSA21.JPG,AFNE22.JPG,AFNE21.JPG,AFSA23.JPG,AFSA22.JPG,AFNE23.JPG,0,2,2,0,,,,,,,,,,,,,,,,,,,,,,,AFNE16.jpg,AFSA05.jpg,AFNE17.jpg,AFSA13.jpg,AFSA13.jpg,FS,4,num_4,32,num_8,2.94963851105,,,2017_Jun_16_1256,60.0115680968,FEMA4ImagesEEG,001,100707,
AFNE23.JPG,AFNE24.JPG,AFNE22.JPG,AFSA24.JPG,AFSA22.JPG,AFSA23.JPG,0,3,3,8,,,,,,,,,,,,,,,,,,,,,,,AFSA02.jpg,AFNE06.jpg,AFNE04.jpg,AFSA03.jpg,AFSA03.jpg,FS,4,num_4,16,num_4,1.36679657665,,,2017_Jun_16_1256,60.0115680968,FEMA4ImagesEEG,001,100707,
AFNE22.JPG,AFSA24.JPG,AFSA22.JPG,AFNE25.JPG,AFNE24.JPG,AFSA25.JPG,0,4,4,6,,,,,,,,,,,,,,,,,,,,,,,AFSA18.jpg,AFSA15.jpg,AFNE17.jpg,AFNE05.jpg,AFNE17.jpg,FN,3,num_2,16,num_2,2.93359001016,,,2017_Jun_16_1256,60.0115680968,FEMA4ImagesEEG,001,100707,
AMNE22.JPG,AMSA24.JPG,AMSA22.JPG,AMNE25.JPG,AMNE24.JPG,AMSA25.JPG,0,5,5,7,,,,,,,,,,,,,,,,,,,,,,,AFSA19.jpg,AFNE04.jpg,AFSA04.jpg,AFNE12.jpg,AFNE12.jpg,FN,3,num_4,32,num_8,1.68346997362,,,2017_Jun_16_1256,60.0115680968,FEMA4ImagesEEG,001,100707,
AFSA25.JPG,AFNE24.JPG,AFSA24.JPG,AFNE21.JPG,AFSA21.JPG,AFNE25.JPG,0,6,6,2,,,,,,,,,,,,,,,,,,,,,,,AFSA20.jpg,AFNE16.jpg,AFSA17.jpg,AFNE07.jpg,AFNE07.jpg,FN,3,num_4,16,num_4,1.3334041097,,,2017_Jun_16_1256,60.0115680968,FEMA4ImagesEEG,001,100707,
AMSA25.JPG,AMNE24.JPG,AMSA24.JPG,AMNE26.JPG,AMSA21.JPG,AMNE25.JPG,0,7,7,3,,,,,,,,,,,,,,,,,,,,,,,AFSA04.jpg,AFNE02.jpg,AFNE05.jpg,AFSA06.jpg,AFSA04.jpg,FS,4,num_8,32,num_4,1.65005890373,,,2017_Jun_16_1256,60.0115680968,FEMA4ImagesEEG,001,100707,
AFSA21.JPG,AFNE23.JPG,AFNE21.JPG,AFSA25.JPG,AFNE25.JPG,AFSA23.JPG,0,8,8,4,,,,,,,,,,,,,,,,,,,,,,,AFNE13.jpg,AFNE05.jpg,AFSA08.jpg,AFSA02.jpg,AFSA02.jpg,FS,4,num_4,16,num_4,1.25011201808,,,2017_Jun_16_1256,60.0115680968,FEMA4ImagesEEG,001,100707,
AMSA21.JPG,AMNE22.JPG,AMNE21.JPG,AMSA23.JPG,AMSA22.JPG,AMNE23.JPG,0,9,9,1,,,,,,,,,,,,,,,,,,,,,,,AFNE05.jpg,AFSA15.jpg,AFNE11.jpg,AFSA10.jpg,AFNE05.jpg,FN,3,num_8,16,num_8,2.91671560612,,,2017_Jun_16_1256,60.0115680968,FEMA4ImagesEEG,001,100707,
AMSA21.JPG,AMNE23.JPG,AMNE21.JPG,AMSA25.JPG,AMNE25.JPG,AMSA23.JPG,,,,,0,0,0,5,,,,,,,,,,,,,,,,,,,AMNE15.jpg,AMNE19.jpg,AMSA01.jpg,AMSA17.jpg,AMSA01.jpg,MS,2,num_2,16,num_2,1.55005021172,,,2017_Jun_16_1256,60.0115680968,FEMA4ImagesEEG,001,100707,
AMNE22.JPG,AMSA24.JPG,AMSA22.JPG,AMNE25.JPG,AMNE24.JPG,AMSA25.JPG,,,,,0,1,1,7,,,,,,,,,,,,,,,,,,,AMNE16.jpg,AMNE19.jpg,AMSA08.jpg,AMSA11.jpg,AMNE16.jpg,MN,1,num_8,32,num_6,1.19979286671,,,2017_Jun_16_1256,60.0115680968,FEMA4ImagesEEG,001,100707,
AMNE23.JPG,AMNE24.JPG,AMNE22.JPG,AMSA24.JPG,AMSA22.JPG,AMSA23.JPG,,,,,0,2,2,9,,,,,,,,,,,,,,,,,,,AMNE03.jpg,AMNE01.jpg,AMSA04.jpg,AMSA08.jpg,AMNE03.jpg,MN,1,num_8,16,num_8,2.0666643359,,,2017_Jun_16_1256,60.0115680968,FEMA4ImagesEEG,001,100707,
AMSA21.JPG,AMNE22.JPG,AMNE21.JPG,AMSA23.JPG,AMSA22.JPG,AMNE23.JPG,,,,,0,3,3,1,,,,,,,,,,,,,,,,,,,AMSA03.jpg,AMNE14.jpg,AMSA02.jpg,AMNE01.jpg,AMSA03.jpg,MS,2,num_8,32,num_4,3.0333565441,,,2017_Jun_16_1256,60.0115680968,FEMA4ImagesEEG,001,100707,
AFNE23.JPG,AFNE24.JPG,AFNE22.JPG,AFSA24.JPG,AFSA22.JPG,AFSA23.JPG,,,,,0,4,4,8,,,,,,,,,,,,,,,,,,,AMSA03.jpg,AMNE15.jpg,AMSA05.jpg,AMNE11.jpg,AMSA05.jpg,MS,2,num_2,32,num_6,1.86649877043,,,2017_Jun_16_1256,60.0115680968,FEMA4ImagesEEG,001,100707,
AFSA21.JPG,AFNE22.JPG,AFNE21.JPG,AFSA23.JPG,AFSA22.JPG,AFNE23.JPG,,,,,0,5,5,0,,,,,,,,,,,,,,,,,,,AMSA04.jpg,AMSA03.jpg,AMNE17.jpg,AMNE11.jpg,AMSA03.jpg,MS,2,num_6,32,num_8,1.80011893006,,,2017_Jun_16_1256,60.0115680968,FEMA4ImagesEEG,001,100707,
AFSA25.JPG,AFNE24.JPG,AFSA24.JPG,AFNE21.JPG,AFSA21.JPG,AFNE25.JPG,,,,,0,6,6,2,,,,,,,,,,,,,,,,,,,AMNE01.jpg,AMNE11.jpg,AMSA20.jpg,AMSA02.jpg,AMSA20.jpg,MS,2,num_2,16,num_2,1.6500390179,,,2017_Jun_16_1256,60.0115680968,FEMA4ImagesEEG,001,100707,
AFNE22.JPG,AFSA24.JPG,AFSA22.JPG,AFNE25.JPG,AFNE24.JPG,AFSA25.JPG,,,,,0,7,7,6,,,,,,,,,,,,,,,,,,,AMSA11.jpg,AMNE16.jpg,AMSA17.jpg,AMNE08.jpg,AMSA17.jpg,MS,2,num_2,32,num_6,4.01649945998,,,2017_Jun_16_1256,60.0115680968,FEMA4ImagesEEG,001,100707,
AMSA25.JPG,AMNE24.JPG,AMSA24.JPG,AMNE26.JPG,AMSA21.JPG,AMNE25.JPG,,,,,0,8,8,3,,,,,,,,,,,,,,,,,,,AMSA03.jpg,AMNE03.jpg,AMSA02.jpg,AMNE18.jpg,AMNE18.jpg,MN,1,num_4,32,num_8,1.63342890283,,,2017_Jun_16_1256,60.0115680968,FEMA4ImagesEEG,001,100707,
AFSA21.JPG,AFNE23.JPG,AFNE21.JPG,AFSA25.JPG,AFNE25.JPG,AFSA23.JPG,,,,,0,9,9,4,,,,,,,,,,,,,,,,,,,AMSA12.jpg,AMNE20.jpg,AMNE18.jpg,AMSA06.jpg,AMNE18.jpg,MN,1,num_2,32,num_6,1.63337084919,,,2017_Jun_16_1256,60.0115680968,FEMA4ImagesEEG,001,100707,
AFSA21.JPG,AFNE23.JPG,AFNE21.JPG,AFSA25.JPG,AFNE25.JPG,AFSA23.JPG,,,,,,,,,0,0,0,4,,,,,,,,,,,,,,,AFSA09.jpg,AFNE12.jpg,AFNE11.jpg,AFSA20.jpg,AFSA20.jpg,FS,4,num_4,16,num_4,1.43316422903,,,2017_Jun_16_1256,60.0115680968,FEMA4ImagesEEG,001,100707,
AMSA21.JPG,AMNE23.JPG,AMNE21.JPG,AMSA25.JPG,AMNE25.JPG,AMSA23.JPG,,,,,,,,,0,1,1,5,,,,,,,,,,,,,,,AFSA09.jpg,AFNE12.jpg,AFNE09.jpg,AFSA08.jpg,AFSA08.jpg,FS,4,num_4,32,num_8,1.18351888622,,,2017_Jun_16_1256,60.0115680968,FEMA4ImagesEEG,001,100707,
AFNE22.JPG,AFSA24.JPG,AFSA22.JPG,AFNE25.JPG,AFNE24.JPG,AFSA25.JPG,,,,,,,,,0,2,2,6,,,,,,,,,,,,,,,AFNE01.jpg,AFSA12.jpg,AFSA14.jpg,AFNE20.jpg,AFNE20.jpg,FN,3,num_4,16,num_4,1.21677632199,,,2017_Jun_16_1256,60.0115680968,FEMA4ImagesEEG,001,100707,
AMSA25.JPG,AMNE24.JPG,AMSA24.JPG,AMNE26.JPG,AMSA21.JPG,AMNE25.JPG,,,,,,,,,0,3,3,3,,,,,,,,,,,,,,,AFNE03.jpg,AFSA13.jpg,AFNE10.jpg,AFSA20.jpg,AFSA20.jpg,FS,4,num_4,16,num_4,1.13344125135,,,2017_Jun_16_1256,60.0115680968,FEMA4ImagesEEG,001,100707,
AMSA21.JPG,AMNE22.JPG,AMNE21.JPG,AMSA23.JPG,AMSA22.JPG,AMNE23.JPG,,,,,,,,,0,4,4,1,,,,,,,,,,,,,,,AFNE06.jpg,AFSA18.jpg,AFSA15.jpg,AFNE11.jpg,AFNE06.jpg,FN,3,num_8,16,num_8,1.88330710214,,,2017_Jun_16_1256,60.0115680968,FEMA4ImagesEEG,001,100707,
AFSA21.JPG,AFNE22.JPG,AFNE21.JPG,AFSA23.JPG,AFSA22.JPG,AFNE23.JPG,,,,,,,,,0,5,5,0,,,,,,,,,,,,,,,AFSA14.jpg,AFSA12.jpg,AFNE02.jpg,AFNE20.jpg,AFSA12.jpg,FS,4,num_6,16,num_6,1.36668752541,,,2017_Jun_16_1256,60.0115680968,FEMA4ImagesEEG,001,100707,
AFNE23.JPG,AFNE24.JPG,AFNE22.JPG,AFSA24.JPG,AFSA22.JPG,AFSA23.JPG,,,,,,,,,0,6,6,8,,,,,,,,,,,,,,,AFNE11.jpg,AFNE09.jpg,AFSA05.jpg,AFSA10.jpg,AFNE09.jpg,FN,3,num_6,32,num_4,1.91665659007,,,2017_Jun_16_1256,60.0115680968,FEMA4ImagesEEG,001,100707,
AFSA25.JPG,AFNE24.JPG,AFSA24.JPG,AFNE21.JPG,AFSA21.JPG,AFNE25.JPG,,,,,,,,,0,7,7,2,,,,,,,,,,,,,,,AFSA04.jpg,AFSA03.jpg,AFNE07.jpg,AFNE14.jpg,AFSA03.jpg,FS,4,num_6,16,num_6,0.883490885724,,,2017_Jun_16_1256,60.0115680968,FEMA4ImagesEEG,001,100707,
AMNE23.JPG,AMNE24.JPG,AMNE22.JPG,AMSA24.JPG,AMSA22.JPG,AMSA23.JPG,,,,,,,,,0,8,8,9,,,,,,,,,,,,,,,AFSA08.jpg,AFSA01.jpg,AFNE06.jpg,AFNE13.jpg,AFNE13.jpg,FN,3,num_4,32,num_2,1.90022031567,,,2017_Jun_16_1256,60.0115680968,FEMA4ImagesEEG,001,100707,
AMNE22.JPG,AMSA24.JPG,AMSA22.JPG,AMNE25.JPG,AMNE24.JPG,AMSA25.JPG,,,,,,,,,0,9,9,7,,,,,,,,,,,,,,,AFSA08.jpg,AFNE19.jpg,AFSA17.jpg,AFNE13.jpg,AFSA08.jpg,FS,4,num_8,32,num_6,1.48338427208,,,2017_Jun_16_1256,60.0115680968,FEMA4ImagesEEG,001,100707,
AFSA21.JPG,AFNE22.JPG,AFNE21.JPG,AFSA23.JPG,AFSA22.JPG,AFNE23.JPG,,,,,,,,,,,,,0,0,0,0,,,,,,,,,,,AMNE17.jpg,AMNE07.jpg,AMSA10.jpg,AMSA01.jpg,AMNE17.jpg,MN,1,num_8,32,num_4,3.66625269945,,,2017_Jun_16_1256,60.0115680968,FEMA4ImagesEEG,001,100707,
AMNE23.JPG,AMNE24.JPG,AMNE22.JPG,AMSA24.JPG,AMSA22.JPG,AMSA23.JPG,,,,,,,,,,,,,0,1,1,9,,,,,,,,,,,AMNE04.jpg,AMSA19.jpg,AMSA14.jpg,AMNE07.jpg,AMSA14.jpg,MS,2,num_2,16,num_2,3.29993274098,,,2017_Jun_16_1256,60.0115680968,FEMA4ImagesEEG,001,100707,
AMNE22.JPG,AMSA24.JPG,AMSA22.JPG,AMNE25.JPG,AMNE24.JPG,AMSA25.JPG,,,,,,,,,,,,,0,2,2,7,,,,,,,,,,,AMSA03.jpg,AMNE12.jpg,AMSA16.jpg,AMNE10.jpg,AMSA03.jpg,MS,2,num_8,32,num_2,0.716865327093,,,2017_Jun_16_1256,60.0115680968,FEMA4ImagesEEG,001,100707,
AFSA21.JPG,AFNE23.JPG,AFNE21.JPG,AFSA25.JPG,AFNE25.JPG,AFSA23.JPG,,,,,,,,,,,,,0,3,3,4,,,,,,,,,,,AMSA07.jpg,AMNE06.jpg,AMNE15.jpg,AMSA13.jpg,AMNE15.jpg,MN,1,num_2,32,num_4,1.90006571938,,,2017_Jun_16_1256,60.0115680968,FEMA4ImagesEEG,001,100707,
AFNE22.JPG,AFSA24.JPG,AFSA22.JPG,AFNE25.JPG,AFNE24.JPG,AFSA25.JPG,,,,,,,,,,,,,0,4,4,6,,,,,,,,,,,AMSA08.jpg,AMNE17.jpg,AMNE02.jpg,AMSA03.jpg,AMSA08.jpg,MS,2,num_8,16,num_8,1.50005532755,,,2017_Jun_16_1256,60.0115680968,FEMA4ImagesEEG,001,100707,
AMSA25.JPG,AMNE24.JPG,AMSA24.JPG,AMNE26.JPG,AMSA21.JPG,AMNE25.JPG,,,,,,,,,,,,,0,5,5,3,,,,,,,,,,,AMNE05.jpg,AMSA03.jpg,AMSA04.jpg,AMNE12.jpg,AMNE05.jpg,MN,1,num_8,32,num_4,1.18347622792,,,2017_Jun_16_1256,60.0115680968,FEMA4ImagesEEG,001,100707,
AMSA21.JPG,AMNE23.JPG,AMNE21.JPG,AMSA25.JPG,AMNE25.JPG,AMSA23.JPG,,,,,,,,,,,,,0,6,6,5,,,,,,,,,,,AMSA01.jpg,AMSA17.jpg,AMNE13.jpg,AMNE08.jpg,AMSA01.jpg,MS,2,num_8,16,num_8,1.33349327522,,,2017_Jun_16_1256,60.0115680968,FEMA4ImagesEEG,001,100707,
AFSA25.JPG,AFNE24.JPG,AFSA24.JPG,AFNE21.JPG,AFSA21.JPG,AFNE25.JPG,,,,,,,,,,,,,0,7,7,2,,,,,,,,,,,AMNE01.jpg,AMSA04.jpg,AMSA16.jpg,AMNE03.jpg,AMNE03.jpg,MN,1,num_4,16,num_4,1.33339833643,,,2017_Jun_16_1256,60.0115680968,FEMA4ImagesEEG,001,100707,
AFNE23.JPG,AFNE24.JPG,AFNE22.JPG,AFSA24.JPG,AFSA22.JPG,AFSA23.JPG,,,,,,,,,,,,,0,8,8,8,,,,,,,,,,,AMSA06.jpg,AMSA19.jpg,AMNE08.jpg,AMNE18.jpg,AMNE08.jpg,MN,1,num_2,32,num_4,1.26674330188,,,2017_Jun_16_1256,60.0115680968,FEMA4ImagesEEG,001,100707,
AMSA21.JPG,AMNE22.JPG,AMNE21.JPG,AMSA23.JPG,AMSA22.JPG,AMNE23.JPG,,,,,,,,,,,,,0,9,9,1,,,,,,,,,,,AMSA11.jpg,AMNE15.jpg,AMSA20.jpg,AMNE14.jpg,AMSA20.jpg,MS,2,num_2,16,num_2,1.56669528724,,,2017_Jun_16_1256,60.0115680968,FEMA4ImagesEEG,001,100707,
AMSA21.JPG,AMNE22.JPG,AMNE21.JPG,AMSA23.JPG,AMSA22.JPG,AMNE23.JPG,,,,,,,,,,,,,,,,,0,0,0,1,,,,,,,AFNE18.jpg,AFSA06.jpg,AFSA05.jpg,AFNE06.jpg,AFSA05.jpg,FS,4,num_2,16,num_2,1.68338497775,,,2017_Jun_16_1256,60.0115680968,FEMA4ImagesEEG,001,100707,
AMSA21.JPG,AMNE23.JPG,AMNE21.JPG,AMSA25.JPG,AMNE25.JPG,AMSA23.JPG,,,,,,,,,,,,,,,,,0,1,1,5,,,,,,,AFSA04.jpg,AFNE01.jpg,AFNE12.jpg,AFSA14.jpg,AFSA14.jpg,FS,4,num_4,32,num_6,2.15002314129,,,2017_Jun_16_1256,60.0115680968,FEMA4ImagesEEG,001,100707,
AFSA21.JPG,AFNE22.JPG,AFNE21.JPG,AFSA23.JPG,AFSA22.JPG,AFNE23.JPG,,,,,,,,,,,,,,,,,0,2,2,0,,,,,,,AFSA06.jpg,AFNE01.jpg,AFSA13.jpg,AFNE11.jpg,AFNE11.jpg,FN,3,num_4,16,num_4,1.56697785843,,,2017_Jun_16_1256,60.0115680968,FEMA4ImagesEEG,001,100707,
AMNE23.JPG,AMNE24.JPG,AMNE22.JPG,AMSA24.JPG,AMSA22.JPG,AMSA23.JPG,,,,,,,,,,,,,,,,,0,3,3,9,,,,,,,AFNE05.jpg,AFNE13.jpg,AFSA09.jpg,AFSA19.jpg,AFSA19.jpg,FS,4,num_4,32,num_8,1.66670173407,,,2017_Jun_16_1256,60.0115680968,FEMA4ImagesEEG,001,100707,
AMNE22.JPG,AMSA24.JPG,AMSA22.JPG,AMNE25.JPG,AMNE24.JPG,AMSA25.JPG,,,,,,,,,,,,,,,,,0,4,4,7,,,,,,,AFNE13.jpg,AFSA08.jpg,AFSA15.jpg,AFNE07.jpg,AFSA15.jpg,FS,4,num_2,32,num_8,4.71648076095,,,2017_Jun_16_1256,60.0115680968,FEMA4ImagesEEG,001,100707,
AFNE22.JPG,AFSA24.JPG,AFSA22.JPG,AFNE25.JPG,AFNE24.JPG,AFSA25.JPG,,,,,,,,,,,,,,,,,0,5,5,6,,,,,,,AFNE19.jpg,AFSA03.jpg,AFSA14.jpg,AFNE13.jpg,AFNE19.jpg,FN,3,num_8,32,num_4,1.36665833811,,,2017_Jun_16_1256,60.0115680968,FEMA4ImagesEEG,001,100707,
AFSA21.JPG,AFNE23.JPG,AFNE21.JPG,AFSA25.JPG,AFNE25.JPG,AFSA23.JPG,,,,,,,,,,,,,,,,,0,6,6,4,,,,,,,AFSA13.jpg,AFSA03.jpg,AFNE02.jpg,AFNE07.jpg,AFNE07.jpg,FN,3,num_4,16,num_4,1.11679745873,,,2017_Jun_16_1256,60.0115680968,FEMA4ImagesEEG,001,100707,
AFNE23.JPG,AFNE24.JPG,AFNE22.JPG,AFSA24.JPG,AFSA22.JPG,AFSA23.JPG,,,,,,,,,,,,,,,,,0,7,7,8,,,,,,,AFNE05.jpg,AFSA17.jpg,AFNE19.jpg,AFSA02.jpg,AFSA02.jpg,FS,4,num_4,16,num_4,3.33327677636,,,2017_Jun_16_1256,60.0115680968,FEMA4ImagesEEG,001,100707,
AFSA25.JPG,AFNE24.JPG,AFSA24.JPG,AFNE21.JPG,AFSA21.JPG,AFNE25.JPG,,,,,,,,,,,,,,,,,0,8,8,2,,,,,,,AFSA08.jpg,AFNE01.jpg,AFSA05.jpg,AFNE11.jpg,AFSA05.jpg,FS,4,num_2,32,num_8,2.44967042457,,,2017_Jun_16_1256,60.0115680968,FEMA4ImagesEEG,001,100707,
AMSA25.JPG,AMNE24.JPG,AMSA24.JPG,AMNE26.JPG,AMSA21.JPG,AMNE25.JPG,,,,,,,,,,,,,,,,,0,9,9,3,,,,,,,AFSA06.jpg,AFSA11.jpg,AFNE07.jpg,AFNE19.jpg,AFNE07.jpg,FN,3,num_2,16,num_2,1.76660009194,,,2017_Jun_16_1256,60.0115680968,FEMA4ImagesEEG,001,100707,
AMSA21.JPG,AMNE23.JPG,AMNE21.JPG,AMSA25.JPG,AMNE25.JPG,AMSA23.JPG,,,,,,,,,,,,,,,,,,,,,0,0,0,5,,,AMNE06.jpg,AMNE03.jpg,AMSA06.jpg,AMSA18.jpg,AMNE03.jpg,MN,1,num_6,16,num_6,1.16673557204,,,2017_Jun_16_1256,60.0115680968,FEMA4ImagesEEG,001,100707,
AFSA21.JPG,AFNE22.JPG,AFNE21.JPG,AFSA23.JPG,AFSA22.JPG,AFNE23.JPG,,,,,,,,,,,,,,,,,,,,,0,1,1,0,,,AMNE10.jpg,AMSA18.jpg,AMSA14.jpg,AMNE12.jpg,AMNE10.jpg,MN,1,num_8,16,num_8,1.50005276164,,,2017_Jun_16_1256,60.0115680968,FEMA4ImagesEEG,001,100707,
AMNE23.JPG,AMNE24.JPG,AMNE22.JPG,AMSA24.JPG,AMSA22.JPG,AMSA23.JPG,,,,,,,,,,,,,,,,,,,,,0,2,2,9,,,AMNE16.jpg,AMSA18.jpg,AMNE06.jpg,AMSA17.jpg,AMSA18.jpg,MS,2,num_6,32,num_2,1.20010302134,,,2017_Jun_16_1256,60.0115680968,FEMA4ImagesEEG,001,100707,
AFNE23.JPG,AFNE24.JPG,AFNE22.JPG,AFSA24.JPG,AFSA22.JPG,AFSA23.JPG,,,,,,,,,,,,,,,,,,,,,0,3,3,8,,,AMSA09.jpg,AMSA16.jpg,AMNE04.jpg,AMNE01.jpg,AMNE04.jpg,MN,1,num_2,32,num_4,2.06668454246,,,2017_Jun_16_1256,60.0115680968,FEMA4ImagesEEG,001,100707,
AFSA25.JPG,AFNE24.JPG,AFSA24.JPG,AFNE21.JPG,AFSA21.JPG,AFNE25.JPG,,,,,,,,,,,,,,,,,,,,,0,4,4,2,,,AMNE13.jpg,AMSA15.jpg,AMSA20.jpg,AMNE16.jpg,AMSA20.jpg,MS,2,num_2,16,num_2,1.00014401192,,,2017_Jun_16_1256,60.0115680968,FEMA4ImagesEEG,001,100707,
AFNE22.JPG,AFSA24.JPG,AFSA22.JPG,AFNE25.JPG,AFNE24.JPG,AFSA25.JPG,,,,,,,,,,,,,,,,,,,,,0,5,5,6,,,AMSA06.jpg,AMSA11.jpg,AMNE13.jpg,AMNE10.jpg,AMNE13.jpg,MN,1,num_2,32,num_4,2.23335660831,,,2017_Jun_16_1256,60.0115680968,FEMA4ImagesEEG,001,100707,
AMSA25.JPG,AMNE24.JPG,AMSA24.JPG,AMNE26.JPG,AMSA21.JPG,AMNE25.JPG,,,,,,,,,,,,,,,,,,,,,0,6,6,3,,,AMNE05.jpg,AMNE12.jpg,AMSA03.jpg,AMSA10.jpg,AMSA03.jpg,MS,2,num_2,16,num_2,1.5334307953,,,2017_Jun_16_1256,60.0115680968,FEMA4ImagesEEG,001,100707,
AFSA21.JPG,AFNE23.JPG,AFNE21.JPG,AFSA25.JPG,AFNE25.JPG,AFSA23.JPG,,,,,,,,,,,,,,,,,,,,,0,7,7,4,,,AMSA02.jpg,AMSA10.jpg,AMNE10.jpg,AMNE03.jpg,AMSA10.jpg,MS,2,num_6,32,num_8,1.20012130355,,,2017_Jun_16_1256,60.0115680968,FEMA4ImagesEEG,001,100707,
AMSA21.JPG,AMNE22.JPG,AMNE21.JPG,AMSA23.JPG,AMSA22.JPG,AMNE23.JPG,,,,,,,,,,,,,,,,,,,,,0,8,8,1,,,AMSA19.jpg,AMNE16.jpg,AMSA06.jpg,AMNE06.jpg,AMSA06.jpg,MS,2,num_2,32,num_8,1.41639919695,,,2017_Jun_16_1256,60.0115680968,FEMA4ImagesEEG,001,100707,
AMNE22.JPG,AMSA24.JPG,AMSA22.JPG,AMNE25.JPG,AMNE24.JPG,AMSA25.JPG,,,,,,,,,,,,,,,,,,,,,0,9,9,7,,,AMNE20.jpg,AMSA01.jpg,AMSA20.jpg,AMNE13.jpg,AMNE20.jpg,MN,1,num_8,32,num_2,1.2834624683,,,2017_Jun_16_1256,60.0115680968,FEMA4ImagesEEG,001,100707,
,,,,,,,,,,,,,,,,,,,,,,,,,,,,,,,,,,,,,,,,,,,space,12.4327642674,2017_Jun_16_1256,60.0115680968,FEMA4ImagesEEG,001,100707,
AFNE01.JPG,AFNE01.JPG,AFNE01.JPG,AFNE01.JPG,AFNE01.JPG,AFNE01.JPG,0,0,0,6,,,,,,,,,,,,,,,,,,,,,,,AFNE13.jpg,AFSA15.jpg,AFSA10.jpg,AFNE15.jpg,AFSA15.jpg,FS,4,num_6,32,num_2,1.06679487671,,,2017_Jun_16_1256,60.0115680968,FEMA4ImagesEEG,001,100707,
AFNE01.JPG,AFNE01.JPG,AFNE01.JPG,AFNE01.JPG,AFNE01.JPG,AFNE01.JPG,0,1,1,8,,,,,,,,,,,,,,,,,,,,,,,AFSA12.jpg,AFSA15.jpg,AFNE06.jpg,AFNE15.jpg,AFNE15.jpg,FN,3,num_4,16,num_4,1.56670939981,,,2017_Jun_16_1256,60.0115680968,FEMA4ImagesEEG,001,100707,
AFNE01.JPG,AFNE01.JPG,AFNE01.JPG,AFNE01.JPG,AFNE01.JPG,AFNE01.JPG,0,2,2,0,,,,,,,,,,,,,,,,,,,,,,,AFSA01.jpg,AFNE05.jpg,AFSA11.jpg,AFNE11.jpg,AFNE05.jpg,FN,3,num_6,32,num_8,2.40004118287,,,2017_Jun_16_1256,60.0115680968,FEMA4ImagesEEG,001,100707,
AFNE01.JPG,AFNE01.JPG,AFNE01.JPG,AFNE01.JPG,AFNE01.JPG,AFNE01.JPG,0,3,3,5,,,,,,,,,,,,,,,,,,,,,,,AFNE09.jpg,AFSA10.jpg,AFSA07.jpg,AFNE15.jpg,AFNE15.jpg,FN,3,num_4,32,num_6,1.80018307781,,,2017_Jun_16_1256,60.0115680968,FEMA4ImagesEEG,001,100707,
AFNE01.JPG,AFNE01.JPG,AFNE01.JPG,AFNE01.JPG,AFNE01.JPG,AFNE01.JPG,0,4,4,7,,,,,,,,,,,,,,,,,,,,,,,AFSA19.jpg,AFNE07.jpg,AFNE13.jpg,AFSA08.jpg,AFSA19.jpg,FS,4,num_8,32,num_2,2.06669191958,,,2017_Jun_16_1256,60.0115680968,FEMA4ImagesEEG,001,100707,
AFNE01.JPG,AFNE01.JPG,AFNE01.JPG,AFNE01.JPG,AFNE01.JPG,AFNE01.JPG,0,5,5,9,,,,,,,,,,,,,,,,,,,,,,,AFSA05.jpg,AFSA06.jpg,AFNE02.jpg,AFNE07.jpg,AFSA05.jpg,FS,4,num_8,16,num_8,1.96636248846,,,2017_Jun_16_1256,60.0115680968,FEMA4ImagesEEG,001,100707,
AFNE01.JPG,AFNE01.JPG,AFNE01.JPG,AFNE01.JPG,AFNE01.JPG,AFNE01.JPG,0,6,6,1,,,,,,,,,,,,,,,,,,,,,,,AFSA15.jpg,AFNE08.jpg,AFNE19.jpg,AFSA02.jpg,AFNE08.jpg,FN,3,num_6,32,num_2,1.10006289696,,,2017_Jun_16_1256,60.0115680968,FEMA4ImagesEEG,001,100707,
AFNE01.JPG,AFNE01.JPG,AFNE01.JPG,AFNE01.JPG,AFNE01.JPG,AFNE01.JPG,0,7,7,2,,,,,,,,,,,,,,,,,,,,,,,AFSA09.jpg,AFNE01.jpg,AFSA03.jpg,AFNE11.jpg,AFNE01.jpg,FN,3,num_6,32,num_8,1.36664647073,,,2017_Jun_16_1256,60.0115680968,FEMA4ImagesEEG,001,100707,
AFNE01.JPG,AFNE01.JPG,AFNE01.JPG,AFNE01.JPG,AFNE01.JPG,AFNE01.JPG,0,8,8,3,,,,,,,,,,,,,,,,,,,,,,,AFSA17.jpg,AFNE08.jpg,AFSA10.jpg,AFNE07.jpg,AFNE07.jpg,FN,3,num_4,16,num_4,1.05048721866,,,2017_Jun_16_1256,60.0115680968,FEMA4ImagesEEG,001,100707,
AFNE01.JPG,AFNE01.JPG,AFNE01.JPG,AFNE01.JPG,AFNE01.JPG,AFNE01.JPG,0,9,9,4,,,,,,,,,,,,,,,,,,,,,,,AFSA16.jpg,AFSA12.jpg,AFNE06.jpg,AFNE02.jpg,AFNE06.jpg,FN,3,num_2,32,num_4,2.50000400923,,,2017_Jun_16_1256,60.0115680968,FEMA4ImagesEEG,001,100707,
AFNE01.JPG,AFNE01.JPG,AFNE01.JPG,AFNE01.JPG,AFNE01.JPG,AFNE01.JPG,1,0,10,8,,,,,,,,,,,,,,,,,,,,,,,AFSA08.jpg,AFNE03.jpg,AFNE17.jpg,AFSA09.jpg,AFSA09.jpg,FS,4,num_4,32,num_2,1.13348262664,,,2017_Jun_16_1256,60.0115680968,FEMA4ImagesEEG,001,100707,
AFNE01.JPG,AFNE01.JPG,AFNE01.JPG,AFNE01.JPG,AFNE01.JPG,AFNE01.JPG,1,1,11,1,,,,,,,,,,,,,,,,,,,,,,,AFSA18.jpg,AFNE02.jpg,AFSA04.jpg,AFNE10.jpg,AFSA18.jpg,FS,4,num_8,16,num_8,1.31671380997,,,2017_Jun_16_1256,60.0115680968,FEMA4ImagesEEG,001,100707,
AFNE01.JPG,AFNE01.JPG,AFNE01.JPG,AFNE01.JPG,AFNE01.JPG,AFNE01.JPG,1,2,12,3,,,,,,,,,,,,,,,,,,,,,,,AFNE03.jpg,AFNE11.jpg,AFSA13.jpg,AFSA02.jpg,AFNE11.jpg,FN,3,num_6,16,num_6,1.31671380997,,,2017_Jun_16_1256,60.0115680968,FEMA4ImagesEEG,001,100707,
AFNE01.JPG,AFNE01.JPG,AFNE01.JPG,AFNE01.JPG,AFNE01.JPG,AFNE01.JPG,1,3,13,2,,,,,,,,,,,,,,,,,,,,,,,AFNE14.jpg,AFSA16.jpg,AFSA15.jpg,AFNE10.jpg,AFNE10.jpg,FN,3,num_4,16,num_4,1.50009317463,,,2017_Jun_16_1256,60.0115680968,FEMA4ImagesEEG,001,100707,
AFNE01.JPG,AFNE01.JPG,AFNE01.JPG,AFNE01.JPG,AFNE01.JPG,AFNE01.JPG,1,4,14,5,,,,,,,,,,,,,,,,,,,,,,,AFNE11.jpg,AFNE09.jpg,AFSA16.jpg,AFSA12.jpg,AFNE11.jpg,FN,3,num_8,32,num_6,1.41671352135,,,2017_Jun_16_1256,60.0115680968,FEMA4ImagesEEG,001,100707,
AFNE01.JPG,AFNE01.JPG,AFNE01.JPG,AFNE01.JPG,AFNE01.JPG,AFNE01.JPG,1,5,15,9,,,,,,,,,,,,,,,,,,,,,,,AFSA09.jpg,AFNE14.jpg,AFNE05.jpg,AFSA10.jpg,AFSA10.jpg,FS,4,num_4,32,num_2,1.64974682464,,,2017_Jun_16_1256,60.0115680968,FEMA4ImagesEEG,001,100707,
AFNE01.JPG,AFNE01.JPG,AFNE01.JPG,AFNE01.JPG,AFNE01.JPG,AFNE01.JPG,1,6,16,6,,,,,,,,,,,,,,,,,,,,,,,AFSA07.jpg,AFNE11.jpg,AFSA10.jpg,AFNE14.jpg,AFNE11.jpg,FN,3,num_6,16,num_6,1.05011387845,,,2017_Jun_16_1256,60.0115680968,FEMA4ImagesEEG,001,100707,
AFNE01.JPG,AFNE01.JPG,AFNE01.JPG,AFNE01.JPG,AFNE01.JPG,AFNE01.JPG,1,7,17,7,,,,,,,,,,,,,,,,,,,,,,,AFSA14.jpg,AFSA19.jpg,AFNE02.jpg,AFNE18.jpg,AFSA14.jpg,FS,4,num_8,16,num_8,3.13329403207,,,2017_Jun_16_1256,60.0115680968,FEMA4ImagesEEG,001,100707,
AFNE01.JPG,AFNE01.JPG,AFNE01.JPG,AFNE01.JPG,AFNE01.JPG,AFNE01.JPG,1,8,18,4,,,,,,,,,,,,,,,,,,,,,,,AFSA07.jpg,AFSA11.jpg,AFNE12.jpg,AFNE03.jpg,AFSA11.jpg,FS,4,num_6,16,num_6,1.45007166907,,,2017_Jun_16_1256,60.0115680968,FEMA4ImagesEEG,001,100707,
AFNE01.JPG,AFNE01.JPG,AFNE01.JPG,AFNE01.JPG,AFNE01.JPG,AFNE01.JPG,1,9,19,0,,,,,,,,,,,,,,,,,,,,,,,AFSA20.jpg,AFSA16.jpg,AFNE14.jpg,AFNE05.jpg,AFNE14.jpg,FN,3,num_2,32,num_8,3.48318573448,,,2017_Jun_16_1256,60.0115680968,FEMA4ImagesEEG,001,100707,
AFNE01.JPG,AFNE01.JPG,AFNE01.JPG,AFNE01.JPG,AFNE01.JPG,AFNE01.JPG,2,0,20,7,,,,,,,,,,,,,,,,,,,,,,,AFSA20.jpg,AFNE09.jpg,AFNE17.jpg,AFSA08.jpg,AFNE09.jpg,FN,3,num_6,16,num_6,2.05002759967,,,2017_Jun_16_1256,60.0115680968,FEMA4ImagesEEG,001,100707,
AFNE01.JPG,AFNE01.JPG,AFNE01.JPG,AFNE01.JPG,AFNE01.JPG,AFNE01.JPG,2,1,21,9,,,,,,,,,,,,,,,,,,,,,,,AFNE04.jpg,AFSA09.jpg,AFNE05.jpg,AFSA11.jpg,AFSA11.jpg,FS,4,num_4,32,num_8,1.53338525037,,,2017_Jun_16_1256,60.0115680968,FEMA4ImagesEEG,001,100707,
AFNE01.JPG,AFNE01.JPG,AFNE01.JPG,AFNE01.JPG,AFNE01.JPG,AFNE01.JPG,2,2,22,1,,,,,,,,,,,,,,,,,,,,,,,AFNE20.jpg,AFNE04.jpg,AFSA10.jpg,AFSA08.jpg,AFNE20.jpg,FN,3,num_8,32,num_2,1.50006045925,,,2017_Jun_16_1256,60.0115680968,FEMA4ImagesEEG,001,100707,
AFNE01.JPG,AFNE01.JPG,AFNE01.JPG,AFNE01.JPG,AFNE01.JPG,AFNE01.JPG,2,3,23,5,,,,,,,,,,,,,,,,,,,,,,,AFSA10.jpg,AFSA02.jpg,AFNE05.jpg,AFNE14.jpg,AFSA10.jpg,FS,4,num_8,16,num_8,1.13343291217,,,2017_Jun_16_1256,60.0115680968,FEMA4ImagesEEG,001,100707,
AFNE01.JPG,AFNE01.JPG,AFNE01.JPG,AFNE01.JPG,AFNE01.JPG,AFNE01.JPG,2,4,24,0,,,,,,,,,,,,,,,,,,,,,,,AFNE07.jpg,AFSA09.jpg,AFNE08.jpg,AFSA01.jpg,AFNE07.jpg,FN,3,num_8,16,num_8,2.01660915278,,,2017_Jun_16_1256,60.0115680968,FEMA4ImagesEEG,001,100707,
AFNE01.JPG,AFNE01.JPG,AFNE01.JPG,AFNE01.JPG,AFNE01.JPG,AFNE01.JPG,2,5,25,6,,,,,,,,,,,,,,,,,,,,,,,AFSA06.jpg,AFSA05.jpg,AFNE09.jpg,AFNE11.jpg,AFNE11.jpg,FN,3,num_4,32,num_6,2.35002673359,,,2017_Jun_16_1256,60.0115680968,FEMA4ImagesEEG,001,100707,
AFNE01.JPG,AFNE01.JPG,AFNE01.JPG,AFNE01.JPG,AFNE01.JPG,AFNE01.JPG,2,6,26,8,,,,,,,,,,,,,,,,,,,,,,,AFNE20.jpg,AFSA07.jpg,AFSA19.jpg,AFNE16.jpg,AFSA19.jpg,FS,4,num_2,16,num_2,1.58337436127,,,2017_Jun_16_1256,60.0115680968,FEMA4ImagesEEG,001,100707,
AFNE01.JPG,AFNE01.JPG,AFNE01.JPG,AFNE01.JPG,AFNE01.JPG,AFNE01.JPG,2,7,27,4,,,,,,,,,,,,,,,,,,,,,,,AFSA15.jpg,AFNE19.jpg,AFSA20.jpg,AFNE15.jpg,AFNE19.jpg,FN,3,num_6,32,num_8,1.40007999237,,,2017_Jun_16_1256,60.0115680968,FEMA4ImagesEEG,001,100707,
AFNE01.JPG,AFNE01.JPG,AFNE01.JPG,AFNE01.JPG,AFNE01.JPG,AFNE01.JPG,2,8,28,2,,,,,,,,,,,,,,,,,,,,,,,AFNE06.jpg,AFNE13.jpg,AFSA20.jpg,AFSA17.jpg,AFSA20.jpg,FS,4,num_2,32,num_8,1.55010794476,,,2017_Jun_16_1256,60.0115680968,FEMA4ImagesEEG,001,100707,
AFNE01.JPG,AFNE01.JPG,AFNE01.JPG,AFNE01.JPG,AFNE01.JPG,AFNE01.JPG,2,9,29,3,,,,,,,,,,,,,,,,,,,,,,,AFSA02.jpg,AFSA19.jpg,AFNE04.jpg,AFNE18.jpg,AFNE04.jpg,FN,3,num_2,16,num_2,1.45006525435,,,2017_Jun_16_1256,60.0115680968,FEMA4ImagesEEG,001,100707,
AFNE01.JPG,AFNE01.JPG,AFNE01.JPG,AFNE01.JPG,AFNE01.JPG,AFNE01.JPG,3,0,30,4,,,,,,,,,,,,,,,,,,,,,,,AFNE17.jpg,AFSA03.jpg,AFSA17.jpg,AFNE13.jpg,AFSA03.jpg,FS,4,num_6,16,num_6,1.18328218081,,,2017_Jun_16_1256,60.0115680968,FEMA4ImagesEEG,001,100707,
AFNE01.JPG,AFNE01.JPG,AFNE01.JPG,AFNE01.JPG,AFNE01.JPG,AFNE01.JPG,3,1,31,3,,,,,,,,,,,,,,,,,,,,,,,AFSA02.jpg,AFNE08.jpg,AFNE11.jpg,AFSA09.jpg,AFSA02.jpg,FS,4,num_8,32,num_2,1.66681206843,,,2017_Jun_16_1256,60.0115680968,FEMA4ImagesEEG,001,100707,
AFNE01.JPG,AFNE01.JPG,AFNE01.JPG,AFNE01.JPG,AFNE01.JPG,AFNE01.JPG,3,2,32,1,,,,,,,,,,,,,,,,,,,,,,,AFSA03.jpg,AFSA06.jpg,AFNE13.jpg,AFNE08.jpg,AFSA03.jpg,FS,4,num_8,16,num_8,1.53342758794,,,2017_Jun_16_1256,60.0115680968,FEMA4ImagesEEG,001,100707,
AFNE01.JPG,AFNE01.JPG,AFNE01.JPG,AFNE01.JPG,AFNE01.JPG,AFNE01.JPG,3,3,33,2,,,,,,,,,,,,,,,,,,,,,,,AFSA08.jpg,AFSA15.jpg,AFNE03.jpg,AFNE18.jpg,AFSA08.jpg,FS,4,num_8,32,num_4,1.58340354846,,,2017_Jun_16_1256,60.0115680968,FEMA4ImagesEEG,001,100707,
AFNE01.JPG,AFNE01.JPG,AFNE01.JPG,AFNE01.JPG,AFNE01.JPG,AFNE01.JPG,3,4,34,7,,,,,,,,,,,,,,,,,,,,,,,AFSA10.jpg,AFSA13.jpg,AFNE16.jpg,AFNE05.jpg,AFSA13.jpg,FS,4,num_6,16,num_6,0.666884234757,,,2017_Jun_16_1256,60.0115680968,FEMA4ImagesEEG,001,100707,
AFNE01.JPG,AFNE01.JPG,AFNE01.JPG,AFNE01.JPG,AFNE01.JPG,AFNE01.JPG,3,5,35,6,,,,,,,,,,,,,,,,,,,,,,,AFNE03.jpg,AFNE17.jpg,AFSA19.jpg,AFSA12.jpg,AFNE17.jpg,FN,3,num_6,32,num_2,0.80009038432,,,2017_Jun_16_1256,60.0115680968,FEMA4ImagesEEG,001,100707,
AFNE01.JPG,AFNE01.JPG,AFNE01.JPG,AFNE01.JPG,AFNE01.JPG,AFNE01.JPG,3,6,36,0,,,,,,,,,,,,,,,,,,,,,,,AFSA17.jpg,AFNE19.jpg,AFNE04.jpg,AFSA13.jpg,AFSA17.jpg,FS,4,num_8,32,num_4,1.10008887679,,,2017_Jun_16_1256,60.0115680968,FEMA4ImagesEEG,001,100707,
AFNE01.JPG,AFNE01.JPG,AFNE01.JPG,AFNE01.JPG,AFNE01.JPG,AFNE01.JPG,3,7,37,5,,,,,,,,,,,,,,,,,,,,,,,AFNE13.jpg,AFNE19.jpg,AFSA15.jpg,AFSA19.jpg,AFSA15.jpg,FS,4,num_2,16,num_2,1.15014470147,,,2017_Jun_16_1256,60.0115680968,FEMA4ImagesEEG,001,100707,
AFNE01.JPG,AFNE01.JPG,AFNE01.JPG,AFNE01.JPG,AFNE01.JPG,AFNE01.JPG,3,8,38,8,,,,,,,,,,,,,,,,,,,,,,,AFSA10.jpg,AFSA09.jpg,AFNE10.jpg,AFNE02.jpg,AFSA09.jpg,FS,4,num_6,16,num_6,1.05009559623,,,2017_Jun_16_1256,60.0115680968,FEMA4ImagesEEG,001,100707,
AFNE01.JPG,AFNE01.JPG,AFNE01.JPG,AFNE01.JPG,AFNE01.JPG,AFNE01.JPG,3,9,39,9,,,,,,,,,,,,,,,,,,,,,,,AFNE03.jpg,AFNE13.jpg,AFSA18.jpg,AFSA17.jpg,AFNE13.jpg,FN,3,num_6,32,num_2,2.11665344681,,,2017_Jun_16_1256,60.0115680968,FEMA4ImagesEEG,001,100707,
AFNE01.JPG,AFNE01.JPG,AFNE01.JPG,AFNE01.JPG,AFNE01.JPG,AFNE01.JPG,4,0,40,6,,,,,,,,,,,,,,,,,,,,,,,AFSA02.jpg,AFSA01.jpg,AFNE12.jpg,AFNE07.jpg,AFNE12.jpg,FN,3,num_2,32,num_4,1.13339281979,,,2017_Jun_16_1256,60.0115680968,FEMA4ImagesEEG,001,100707,
AFNE01.JPG,AFNE01.JPG,AFNE01.JPG,AFNE01.JPG,AFNE01.JPG,AFNE01.JPG,4,1,41,5,,,,,,,,,,,,,,,,,,,,,,,AFNE11.jpg,AFSA18.jpg,AFNE19.jpg,AFSA04.jpg,AFNE11.jpg,FN,3,num_8,16,num_8,1.6167164722,,,2017_Jun_16_1256,60.0115680968,FEMA4ImagesEEG,001,100707,
AFNE01.JPG,AFNE01.JPG,AFNE01.JPG,AFNE01.JPG,AFNE01.JPG,AFNE01.JPG,4,2,42,7,,,,,,,,,,,,,,,,,,,,,,,AFNE13.jpg,AFNE16.jpg,AFSA17.jpg,AFSA18.jpg,AFNE13.jpg,FN,3,num_8,32,num_6,1.23343775526,,,2017_Jun_16_1256,60.0115680968,FEMA4ImagesEEG,001,100707,
AFNE01.JPG,AFNE01.JPG,AFNE01.JPG,AFNE01.JPG,AFNE01.JPG,AFNE01.JPG,4,3,43,9,,,,,,,,,,,,,,,,,,,,,,,AFNE17.jpg,AFSA04.jpg,AFSA05.jpg,AFNE14.jpg,AFSA04.jpg,FS,4,num_6,16,num_6,0.716856987914,,,2017_Jun_16_1256,60.0115680968,FEMA4ImagesEEG,001,100707,
AFNE01.JPG,AFNE01.JPG,AFNE01.JPG,AFNE01.JPG,AFNE01.JPG,AFNE01.JPG,4,4,44,2,,,,,,,,,,,,,,,,,,,,,,,AFNE11.jpg,AFNE02.jpg,AFSA07.jpg,AFSA13.jpg,AFNE11.jpg,FN,3,num_8,32,num_4,1.33340378897,,,2017_Jun_16_1256,60.0115680968,FEMA4ImagesEEG,001,100707,
AFNE01.JPG,AFNE01.JPG,AFNE01.JPG,AFNE01.JPG,AFNE01.JPG,AFNE01.JPG,4,5,45,4,,,,,,,,,,,,,,,,,,,,,,,AFNE12.jpg,AFNE07.jpg,AFSA04.jpg,AFSA18.jpg,AFSA04.jpg,FS,4,num_2,16,num_2,1.40011816029,,,2017_Jun_16_1256,60.0115680968,FEMA4ImagesEEG,001,100707,
AFNE01.JPG,AFNE01.JPG,AFNE01.JPG,AFNE01.JPG,AFNE01.JPG,AFNE01.JPG,4,6,46,0,,,,,,,,,,,,,,,,,,,,,,,AFSA07.jpg,AFSA01.jpg,AFNE11.jpg,AFNE03.jpg,AFNE11.jpg,FN,3,num_2,16,num_2,1.41673693527,,,2017_Jun_16_1256,60.0115680968,FEMA4ImagesEEG,001,100707,
AFNE01.JPG,AFNE01.JPG,AFNE01.JPG,AFNE01.JPG,AFNE01.JPG,AFNE01.JPG,4,7,47,3,,,,,,,,,,,,,,,,,,,,,,,AFNE16.jpg,AFNE12.jpg,AFSA11.jpg,AFSA12.jpg,AFSA11.jpg,FS,4,num_2,16,num_2,2.33363151376,,,2017_Jun_16_1256,60.0115680968,FEMA4ImagesEEG,001,100707,
AFNE01.JPG,AFNE01.JPG,AFNE01.JPG,AFNE01.JPG,AFNE01.JPG,AFNE01.JPG,4,8,48,8,,,,,,,,,,,,,,,,,,,,,,,AFSA05.jpg,AFSA07.jpg,AFNE16.jpg,AFNE01.jpg,AFSA07.jpg,FS,4,num_6,32,num_4,1.56675141654,,,2017_Jun_16_1256,60.0115680968,FEMA4ImagesEEG,001,100707,
AFNE01.JPG,AFNE01.JPG,AFNE01.JPG,AFNE01.JPG,AFNE01.JPG,AFNE01.JPG,4,9,49,1,,,,,,,,,,,,,,,,,,,,,,,AFNE11.jpg,AFSA19.jpg,AFNE15.jpg,AFSA03.jpg,AFSA03.jpg,FS,4,num_4,32,num_8,1.7000294117,,,2017_Jun_16_1256,60.0115680968,FEMA4ImagesEEG,001,100707,
AFNE01.JPG,AFNE01.JPG,AFNE01.JPG,AFNE01.JPG,AFNE01.JPG,AFNE01.JPG,5,0,50,0,,,,,,,,,,,,,,,,,,,,,,,AFNE13.jpg,AFSA12.jpg,AFNE06.jpg,AFSA03.jpg,AFSA12.jpg,FS,4,num_6,32,num_2,3.83321984508,,,2017_Jun_16_1256,60.0115680968,FEMA4ImagesEEG,001,100707,
AFNE01.JPG,AFNE01.JPG,AFNE01.JPG,AFNE01.JPG,AFNE01.JPG,AFNE01.JPG,5,1,51,9,,,,,,,,,,,,,,,,,,,,,,,AFNE13.jpg,AFSA04.jpg,AFNE11.jpg,AFSA17.jpg,AFNE13.jpg,FN,3,num_8,16,num_8,4.89974626328,,,2017_Jun_16_1256,60.0115680968,FEMA4ImagesEEG,001,100707,
AFNE01.JPG,AFNE01.JPG,AFNE01.JPG,AFNE01.JPG,AFNE01.JPG,AFNE01.JPG,5,2,52,8,,,,,,,,,,,,,,,,,,,,,,,AFSA18.jpg,AFNE09.jpg,AFSA08.jpg,AFNE14.jpg,AFSA18.jpg,FS,4,num_8,32,num_2,2.05004748539,,,2017_Jun_16_1256,60.0115680968,FEMA4ImagesEEG,001,100707,
AFNE01.JPG,AFNE01.JPG,AFNE01.JPG,AFNE01.JPG,AFNE01.JPG,AFNE01.JPG,5,3,53,7,,,,,,,,,,,,,,,,,,,,,,,AFNE09.jpg,AFNE05.jpg,AFSA19.jpg,AFSA01.jpg,AFNE05.jpg,FN,3,num_6,16,num_6,1.86673964548,,,2017_Jun_16_1256,60.0115680968,FEMA4ImagesEEG,001,100707,
AFNE01.JPG,AFNE01.JPG,AFNE01.JPG,AFNE01.JPG,AFNE01.JPG,AFNE01.JPG,5,4,54,3,,,,,,,,,,,,,,,,,,,,,,,AFSA11.jpg,AFNE17.jpg,AFNE06.jpg,AFSA02.jpg,AFSA11.jpg,FS,4,num_8,16,num_8,1.4334625164,,,2017_Jun_16_1256,60.0115680968,FEMA4ImagesEEG,001,100707,
AFNE01.JPG,AFNE01.JPG,AFNE01.JPG,AFNE01.JPG,AFNE01.JPG,AFNE01.JPG,5,5,55,6,,,,,,,,,,,,,,,,,,,,,,,AFSA20.jpg,AFNE15.jpg,AFSA06.jpg,AFNE07.jpg,AFNE15.jpg,FN,3,num_6,32,num_4,1.96670343401,,,2017_Jun_16_1256,60.0115680968,FEMA4ImagesEEG,001,100707,
AFNE01.JPG,AFNE01.JPG,AFNE01.JPG,AFNE01.JPG,AFNE01.JPG,AFNE01.JPG,5,6,56,4,,,,,,,,,,,,,,,,,,,,,,,AFSA07.jpg,AFSA11.jpg,AFNE17.jpg,AFNE14.jpg,AFSA07.jpg,FS,4,num_8,16,num_8,1.08345502708,,,2017_Jun_16_1256,60.0115680968,FEMA4ImagesEEG,001,100707,
AFNE01.JPG,AFNE01.JPG,AFNE01.JPG,AFNE01.JPG,AFNE01.JPG,AFNE01.JPG,5,7,57,2,,,,,,,,,,,,,,,,,,,,,,,AFSA02.jpg,AFNE10.jpg,AFNE11.jpg,AFSA11.jpg,AFNE10.jpg,FN,3,num_6,16,num_6,1.10007476422,,,2017_Jun_16_1256,60.0115680968,FEMA4ImagesEEG,001,100707,
AFNE01.JPG,AFNE01.JPG,AFNE01.JPG,AFNE01.JPG,AFNE01.JPG,AFNE01.JPG,5,8,58,1,,,,,,,,,,,,,,,,,,,,,,,AFNE15.jpg,AFSA10.jpg,AFSA03.jpg,AFNE08.jpg,AFNE15.jpg,FN,3,num_8,32,num_4,2.31665415247,,,2017_Jun_16_1256,60.0115680968,FEMA4ImagesEEG,001,100707,
AFNE01.JPG,AFNE01.JPG,AFNE01.JPG,AFNE01.JPG,AFNE01.JPG,AFNE01.JPG,5,9,59,5,,,,,,,,,,,,,,,,,,,,,,,AFSA15.jpg,AFSA03.jpg,AFNE11.jpg,AFNE19.jpg,AFNE11.jpg,FN,3,num_2,16,num_2,1.15001544356,,,2017_Jun_16_1256,60.0115680968,FEMA4ImagesEEG,001,100707,
,,,,,,,,,,,,,,,,,,,,,,,,,,,,,,,,,,,,,,,,,,,space,45.8965109682,2017_Jun_16_1256,60.0115680968,FEMA4ImagesEEG,001,100707,
AFNE01.JPG,AFNE01.JPG,AFNE01.JPG,AFNE01.JPG,AFNE01.JPG,AFNE01.JPG,,,,,0,0,0,0,,,,,,,,,,,,,,,,,,,AMNE17.jpg,AMNE09.jpg,AMSA10.jpg,AMSA11.jpg,AMNE17.jpg,MN,1,num_8,16,num_8,1.25007769908,,,2017_Jun_16_1256,60.0115680968,FEMA4ImagesEEG,001,100707,
AFNE01.JPG,AFNE01.JPG,AFNE01.JPG,AFNE01.JPG,AFNE01.JPG,AFNE01.JPG,,,,,0,1,1,4,,,,,,,,,,,,,,,,,,,AMNE16.jpg,AMSA05.jpg,AMSA04.jpg,AMNE08.jpg,AMNE16.jpg,MN,1,num_8,32,num_4,1.20008185261,,,2017_Jun_16_1256,60.0115680968,FEMA4ImagesEEG,001,100707,
AFNE01.JPG,AFNE01.JPG,AFNE01.JPG,AFNE01.JPG,AFNE01.JPG,AFNE01.JPG,,,,,0,2,2,7,,,,,,,,,,,,,,,,,,,AMNE09.jpg,AMSA13.jpg,AMSA20.jpg,AMNE19.jpg,AMSA13.jpg,MS,2,num_6,16,num_6,1.15010909946,,,2017_Jun_16_1256,60.0115680968,FEMA4ImagesEEG,001,100707,
AFNE01.JPG,AFNE01.JPG,AFNE01.JPG,AFNE01.JPG,AFNE01.JPG,AFNE01.JPG,,,,,0,3,3,1,,,,,,,,,,,,,,,,,,,AMSA19.jpg,AMNE08.jpg,AMSA18.jpg,AMNE15.jpg,AMSA19.jpg,MS,2,num_8,16,num_8,0.700139425229,,,2017_Jun_16_1256,60.0115680968,FEMA4ImagesEEG,001,100707,
AFNE01.JPG,AFNE01.JPG,AFNE01.JPG,AFNE01.JPG,AFNE01.JPG,AFNE01.JPG,,,,,0,4,4,9,,,,,,,,,,,,,,,,,,,AMNE02.jpg,AMNE07.jpg,AMSA09.jpg,AMSA08.jpg,AMSA09.jpg,MS,2,num_2,32,num_8,0.833495680825,,,2017_Jun_16_1256,60.0115680968,FEMA4ImagesEEG,001,100707,
AFNE01.JPG,AFNE01.JPG,AFNE01.JPG,AFNE01.JPG,AFNE01.JPG,AFNE01.JPG,,,,,0,5,5,3,,,,,,,,,,,,,,,,,,,AMNE20.jpg,AMNE13.jpg,AMSA02.jpg,AMSA15.jpg,AMSA15.jpg,MS,2,num_4,32,num_6,1.11678142182,,,2017_Jun_16_1256,60.0115680968,FEMA4ImagesEEG,001,100707,
AFNE01.JPG,AFNE01.JPG,AFNE01.JPG,AFNE01.JPG,AFNE01.JPG,AFNE01.JPG,,,,,0,6,6,8,,,,,,,,,,,,,,,,,,,AMNE01.jpg,AMSA07.jpg,AMNE16.jpg,AMSA11.jpg,AMNE01.jpg,MN,1,num_8,32,num_2,1.75005989813,,,2017_Jun_16_1256,60.0115680968,FEMA4ImagesEEG,001,100707,
AFNE01.JPG,AFNE01.JPG,AFNE01.JPG,AFNE01.JPG,AFNE01.JPG,AFNE01.JPG,,,,,0,7,7,5,,,,,,,,,,,,,,,,,,,AMSA09.jpg,AMNE19.jpg,AMNE06.jpg,AMSA01.jpg,AMSA09.jpg,MS,2,num_8,16,num_8,2.66688359319,,,2017_Jun_16_1256,60.0115680968,FEMA4ImagesEEG,001,100707,
AFNE01.JPG,AFNE01.JPG,AFNE01.JPG,AFNE01.JPG,AFNE01.JPG,AFNE01.JPG,,,,,0,8,8,6,,,,,,,,,,,,,,,,,,,AMNE01.jpg,AMNE19.jpg,AMSA20.jpg,AMSA10.jpg,AMSA20.jpg,MS,2,num_2,16,num_2,1.05009687925,,,2017_Jun_16_1256,60.0115680968,FEMA4ImagesEEG,001,100707,
AFNE01.JPG,AFNE01.JPG,AFNE01.JPG,AFNE01.JPG,AFNE01.JPG,AFNE01.JPG,,,,,0,9,9,2,,,,,,,,,,,,,,,,,,,AMSA12.jpg,AMNE19.jpg,AMNE12.jpg,AMSA05.jpg,AMSA05.jpg,MS,2,num_4,32,num_2,2.61662698595,,,2017_Jun_16_1256,60.0115680968,FEMA4ImagesEEG,001,100707,
AFNE01.JPG,AFNE01.JPG,AFNE01.JPG,AFNE01.JPG,AFNE01.JPG,AFNE01.JPG,,,,,1,0,10,3,,,,,,,,,,,,,,,,,,,AMNE14.jpg,AMNE16.jpg,AMSA07.jpg,AMSA11.jpg,AMNE14.jpg,MN,1,num_8,16,num_8,2.20000904484,,,2017_Jun_16_1256,60.0115680968,FEMA4ImagesEEG,001,100707,
AFNE01.JPG,AFNE01.JPG,AFNE01.JPG,AFNE01.JPG,AFNE01.JPG,AFNE01.JPG,,,,,1,1,11,9,,,,,,,,,,,,,,,,,,,AMSA11.jpg,AMNE20.jpg,AMNE02.jpg,AMSA09.jpg,AMSA11.jpg,MS,2,num_8,32,num_4,2.10012704472,,,2017_Jun_16_1256,60.0115680968,FEMA4ImagesEEG,001,100707,
AFNE01.JPG,AFNE01.JPG,AFNE01.JPG,AFNE01.JPG,AFNE01.JPG,AFNE01.JPG,,,,,1,2,12,6,,,,,,,,,,,,,,,,,,,AMNE03.jpg,AMSA04.jpg,AMNE18.jpg,AMSA06.jpg,AMSA06.jpg,MS,2,num_4,16,num_4,1.40008993517,,,2017_Jun_16_1256,60.0115680968,FEMA4ImagesEEG,001,100707,
AFNE01.JPG,AFNE01.JPG,AFNE01.JPG,AFNE01.JPG,AFNE01.JPG,AFNE01.JPG,,,,,1,3,13,4,,,,,,,,,,,,,,,,,,,AMSA10.jpg,AMSA17.jpg,AMNE13.jpg,AMNE12.jpg,AMNE13.jpg,MN,1,num_2,16,num_2,1.35007965553,,,2017_Jun_16_1256,60.0115680968,FEMA4ImagesEEG,001,100707,
AFNE01.JPG,AFNE01.JPG,AFNE01.JPG,AFNE01.JPG,AFNE01.JPG,AFNE01.JPG,,,,,1,4,14,8,,,,,,,,,,,,,,,,,,,AMSA18.jpg,AMSA02.jpg,AMNE10.jpg,AMNE02.jpg,AMNE02.jpg,MN,1,num_4,32,num_6,1.35012071021,,,2017_Jun_16_1256,60.0115680968,FEMA4ImagesEEG,001,100707,
AFNE01.JPG,AFNE01.JPG,AFNE01.JPG,AFNE01.JPG,AFNE01.JPG,AFNE01.JPG,,,,,1,5,15,7,,,,,,,,,,,,,,,,,,,AMNE10.jpg,AMSA08.jpg,AMSA20.jpg,AMNE11.jpg,AMSA20.jpg,MS,2,num_2,16,num_2,1.60000115458,,,2017_Jun_16_1256,60.0115680968,FEMA4ImagesEEG,001,100707,
AFNE01.JPG,AFNE01.JPG,AFNE01.JPG,AFNE01.JPG,AFNE01.JPG,AFNE01.JPG,,,,,1,6,16,0,,,,,,,,,,,,,,,,,,,AMNE18.jpg,AMNE10.jpg,AMSA15.jpg,AMSA16.jpg,AMNE10.jpg,MN,1,num_6,16,num_6,1.74625721539,,,2017_Jun_16_1256,60.0115680968,FEMA4ImagesEEG,001,100707,
AFNE01.JPG,AFNE01.JPG,AFNE01.JPG,AFNE01.JPG,AFNE01.JPG,AFNE01.JPG,,,,,1,7,17,5,,,,,,,,,,,,,,,,,,,AMNE07.jpg,AMSA01.jpg,AMSA10.jpg,AMNE03.jpg,AMNE03.jpg,MN,1,num_4,16,num_4,0.933439904242,,,2017_Jun_16_1256,60.0115680968,FEMA4ImagesEEG,001,100707,
AFNE01.JPG,AFNE01.JPG,AFNE01.JPG,AFNE01.JPG,AFNE01.JPG,AFNE01.JPG,,,,,1,8,18,1,,,,,,,,,,,,,,,,,,,AMSA06.jpg,AMNE02.jpg,AMSA08.jpg,AMNE13.jpg,AMNE13.jpg,MN,1,num_4,32,num_2,0.883445982239,,,2017_Jun_16_1256,60.0115680968,FEMA4ImagesEEG,001,100707,
AFNE01.JPG,AFNE01.JPG,AFNE01.JPG,AFNE01.JPG,AFNE01.JPG,AFNE01.JPG,,,,,1,9,19,2,,,,,,,,,,,,,,,,,,,AMNE08.jpg,AMSA11.jpg,AMNE20.jpg,AMSA10.jpg,AMNE08.jpg,MN,1,num_8,16,num_8,0.883457528776,,,2017_Jun_16_1256,60.0115680968,FEMA4ImagesEEG,001,100707,
AFNE01.JPG,AFNE01.JPG,AFNE01.JPG,AFNE01.JPG,AFNE01.JPG,AFNE01.JPG,,,,,2,0,20,1,,,,,,,,,,,,,,,,,,,AMNE04.jpg,AMSA13.jpg,AMNE13.jpg,AMSA01.jpg,AMSA13.jpg,MS,2,num_6,32,num_2,1.03352012113,,,2017_Jun_16_1256,60.0115680968,FEMA4ImagesEEG,001,100707,
AFNE01.JPG,AFNE01.JPG,AFNE01.JPG,AFNE01.JPG,AFNE01.JPG,AFNE01.JPG,,,,,2,1,21,7,,,,,,,,,,,,,,,,,,,AMNE07.jpg,AMSA09.jpg,AMNE06.jpg,AMSA01.jpg,AMSA09.jpg,MS,2,num_6,32,num_8,1.10019407922,,,2017_Jun_16_1256,60.0115680968,FEMA4ImagesEEG,001,100707,
AFNE01.JPG,AFNE01.JPG,AFNE01.JPG,AFNE01.JPG,AFNE01.JPG,AFNE01.JPG,,,,,2,2,22,3,,,,,,,,,,,,,,,,,,,AMSA15.jpg,AMNE01.jpg,AMNE15.jpg,AMSA10.jpg,AMNE01.jpg,MN,1,num_6,16,num_6,0.750147459796,,,2017_Jun_16_1256,60.0115680968,FEMA4ImagesEEG,001,100707,
AFNE01.JPG,AFNE01.JPG,AFNE01.JPG,AFNE01.JPG,AFNE01.JPG,AFNE01.JPG,,,,,2,3,23,6,,,,,,,,,,,,,,,,,,,AMNE05.jpg,AMNE04.jpg,AMSA17.jpg,AMSA20.jpg,AMSA17.jpg,MS,2,num_2,32,num_8,1.55003321252,,,2017_Jun_16_1256,60.0115680968,FEMA4ImagesEEG,001,100707,
AFNE01.JPG,AFNE01.JPG,AFNE01.JPG,AFNE01.JPG,AFNE01.JPG,AFNE01.JPG,,,,,2,4,24,0,,,,,,,,,,,,,,,,,,,AMNE04.jpg,AMSA14.jpg,AMSA16.jpg,AMNE10.jpg,AMSA14.jpg,MS,2,num_6,16,num_6,0.900188883301,,,2017_Jun_16_1256,60.0115680968,FEMA4ImagesEEG,001,100707,
AFNE01.JPG,AFNE01.JPG,AFNE01.JPG,AFNE01.JPG,AFNE01.JPG,AFNE01.JPG,,,,,2,5,25,4,,,,,,,,,,,,,,,,,,,AMSA01.jpg,AMNE10.jpg,AMSA07.jpg,AMNE05.jpg,AMSA01.jpg,MS,2,num_8,32,num_2,1.30016174878,,,2017_Jun_16_1256,60.0115680968,FEMA4ImagesEEG,001,100707,
AFNE01.JPG,AFNE01.JPG,AFNE01.JPG,AFNE01.JPG,AFNE01.JPG,AFNE01.JPG,,,,,2,6,26,9,,,,,,,,,,,,,,,,,,,AMNE14.jpg,AMSA06.jpg,AMSA03.jpg,AMNE04.jpg,AMNE14.jpg,MN,1,num_8,16,num_8,1.18345794582,,,2017_Jun_16_1256,60.0115680968,FEMA4ImagesEEG,001,100707,
AFNE01.JPG,AFNE01.JPG,AFNE01.JPG,AFNE01.JPG,AFNE01.JPG,AFNE01.JPG,,,,,2,7,27,8,,,,,,,,,,,,,,,,,,,AMNE09.jpg,AMSA08.jpg,AMNE07.jpg,AMSA04.jpg,AMSA04.jpg,MS,2,num_4,16,num_4,3.60035204317,,,2017_Jun_16_1256,60.0115680968,FEMA4ImagesEEG,001,100707,
AFNE01.JPG,AFNE01.JPG,AFNE01.JPG,AFNE01.JPG,AFNE01.JPG,AFNE01.JPG,,,,,2,8,28,2,,,,,,,,,,,,,,,,,,,AMNE04.jpg,AMSA13.jpg,AMNE11.jpg,AMSA14.jpg,AMNE04.jpg,MN,1,num_8,32,num_2,1.7166263765,,,2017_Jun_16_1256,60.0115680968,FEMA4ImagesEEG,001,100707,
AFNE01.JPG,AFNE01.JPG,AFNE01.JPG,AFNE01.JPG,AFNE01.JPG,AFNE01.JPG,,,,,2,9,29,5,,,,,,,,,,,,,,,,,,,AMSA12.jpg,AMNE17.jpg,AMNE19.jpg,AMSA09.jpg,AMSA12.jpg,MS,2,num_8,32,num_4,1.10011068708,,,2017_Jun_16_1256,60.0115680968,FEMA4ImagesEEG,001,100707,
AFNE01.JPG,AFNE01.JPG,AFNE01.JPG,AFNE01.JPG,AFNE01.JPG,AFNE01.JPG,,,,,3,0,30,5,,,,,,,,,,,,,,,,,,,AMNE01.jpg,AMNE18.jpg,AMSA09.jpg,AMSA02.jpg,AMNE01.jpg,MN,1,num_8,16,num_8,1.66667350905,,,2017_Jun_16_1256,60.0115680968,FEMA4ImagesEEG,001,100707,
AFNE01.JPG,AFNE01.JPG,AFNE01.JPG,AFNE01.JPG,AFNE01.JPG,AFNE01.JPG,,,,,3,1,31,0,,,,,,,,,,,,,,,,,,,AMNE12.jpg,AMSA11.jpg,AMSA19.jpg,AMNE02.jpg,AMNE12.jpg,MN,1,num_8,32,num_2,4.68326534191,,,2017_Jun_16_1256,60.0115680968,FEMA4ImagesEEG,001,100707,
AFNE01.JPG,AFNE01.JPG,AFNE01.JPG,AFNE01.JPG,AFNE01.JPG,AFNE01.JPG,,,,,3,2,32,1,,,,,,,,,,,,,,,,,,,AMSA04.jpg,AMNE14.jpg,AMNE16.jpg,AMSA07.jpg,AMSA07.jpg,MS,2,num_4,32,num_8,1.00014625711,,,2017_Jun_16_1256,60.0115680968,FEMA4ImagesEEG,001,100707,
AFNE01.JPG,AFNE01.JPG,AFNE01.JPG,AFNE01.JPG,AFNE01.JPG,AFNE01.JPG,,,,,3,3,33,2,,,,,,,,,,,,,,,,,,,AMSA14.jpg,AMNE04.jpg,AMSA02.jpg,AMNE20.jpg,AMSA14.jpg,MS,2,num_8,32,num_4,1.01687472477,,,2017_Jun_16_1256,60.0115680968,FEMA4ImagesEEG,001,100707,
AFNE01.JPG,AFNE01.JPG,AFNE01.JPG,AFNE01.JPG,AFNE01.JPG,AFNE01.JPG,,,,,3,4,34,7,,,,,,,,,,,,,,,,,,,AMNE04.jpg,AMSA07.jpg,AMNE18.jpg,AMSA03.jpg,AMNE04.jpg,MN,1,num_8,32,num_6,1.5334882075,,,2017_Jun_16_1256,60.0115680968,FEMA4ImagesEEG,001,100707,
AFNE01.JPG,AFNE01.JPG,AFNE01.JPG,AFNE01.JPG,AFNE01.JPG,AFNE01.JPG,,,,,3,5,35,6,,,,,,,,,,,,,,,,,,,AMNE04.jpg,AMSA17.jpg,AMNE20.jpg,AMSA19.jpg,AMSA19.jpg,MS,2,num_4,32,num_2,0.966825635638,,,2017_Jun_16_1256,60.0115680968,FEMA4ImagesEEG,001,100707,
AFNE01.JPG,AFNE01.JPG,AFNE01.JPG,AFNE01.JPG,AFNE01.JPG,AFNE01.JPG,,,,,3,6,36,4,,,,,,,,,,,,,,,,,,,AMNE20.jpg,AMNE12.jpg,AMSA01.jpg,AMSA14.jpg,AMNE12.jpg,MN,1,num_6,32,num_4,1.10047761258,,,2017_Jun_16_1256,60.0115680968,FEMA4ImagesEEG,001,100707,
AFNE01.JPG,AFNE01.JPG,AFNE01.JPG,AFNE01.JPG,AFNE01.JPG,AFNE01.JPG,,,,,3,7,37,8,,,,,,,,,,,,,,,,,,,AMNE06.jpg,AMSA18.jpg,AMNE01.jpg,AMSA09.jpg,AMSA18.jpg,MS,2,num_6,16,num_6,1.00027872226,,,2017_Jun_16_1256,60.0115680968,FEMA4ImagesEEG,001,100707,
AFNE01.JPG,AFNE01.JPG,AFNE01.JPG,AFNE01.JPG,AFNE01.JPG,AFNE01.JPG,,,,,3,8,38,3,,,,,,,,,,,,,,,,,,,AMSA06.jpg,AMNE14.jpg,AMSA04.jpg,AMNE10.jpg,AMNE10.jpg,MN,1,num_4,16,num_4,1.13349834294,,,2017_Jun_16_1256,60.0115680968,FEMA4ImagesEEG,001,100707,
AFNE01.JPG,AFNE01.JPG,AFNE01.JPG,AFNE01.JPG,AFNE01.JPG,AFNE01.JPG,,,,,3,9,39,9,,,,,,,,,,,,,,,,,,,AMNE10.jpg,AMSA02.jpg,AMNE16.jpg,AMSA16.jpg,AMNE10.jpg,MN,1,num_8,16,num_8,1.26675164106,,,2017_Jun_16_1256,60.0115680968,FEMA4ImagesEEG,001,100707,
AFNE01.JPG,AFNE01.JPG,AFNE01.JPG,AFNE01.JPG,AFNE01.JPG,AFNE01.JPG,,,,,4,0,40,1,,,,,,,,,,,,,,,,,,,AMNE11.jpg,AMSA11.jpg,AMNE20.jpg,AMSA01.jpg,AMNE20.jpg,MN,1,num_2,32,num_8,1.89990727429,,,2017_Jun_16_1256,60.0115680968,FEMA4ImagesEEG,001,100707,
AFNE01.JPG,AFNE01.JPG,AFNE01.JPG,AFNE01.JPG,AFNE01.JPG,AFNE01.JPG,,,,,4,1,41,2,,,,,,,,,,,,,,,,,,,AMSA17.jpg,AMNE02.jpg,AMSA12.jpg,AMNE15.jpg,AMNE15.jpg,MN,1,num_4,16,num_4,0.866751512745,,,2017_Jun_16_1256,60.0115680968,FEMA4ImagesEEG,001,100707,
AFNE01.JPG,AFNE01.JPG,AFNE01.JPG,AFNE01.JPG,AFNE01.JPG,AFNE01.JPG,,,,,4,2,42,3,,,,,,,,,,,,,,,,,,,AMSA05.jpg,AMSA20.jpg,AMNE15.jpg,AMNE06.jpg,AMSA05.jpg,MS,2,num_8,32,num_2,2.1833383101,,,2017_Jun_16_1256,60.0115680968,FEMA4ImagesEEG,001,100707,
AFNE01.JPG,AFNE01.JPG,AFNE01.JPG,AFNE01.JPG,AFNE01.JPG,AFNE01.JPG,,,,,4,3,43,5,,,,,,,,,,,,,,,,,,,AMSA11.jpg,AMNE08.jpg,AMNE19.jpg,AMSA18.jpg,AMSA11.jpg,MS,2,num_8,32,num_4,0.900127622066,,,2017_Jun_16_1256,60.0115680968,FEMA4ImagesEEG,001,100707,
AFNE01.JPG,AFNE01.JPG,AFNE01.JPG,AFNE01.JPG,AFNE01.JPG,AFNE01.JPG,,,,,4,4,44,0,,,,,,,,,,,,,,,,,,,AMNE05.jpg,AMSA07.jpg,AMSA19.jpg,AMNE04.jpg,AMNE05.jpg,MN,1,num_8,32,num_6,1.11640776077,,,2017_Jun_16_1256,60.0115680968,FEMA4ImagesEEG,001,100707,
AFNE01.JPG,AFNE01.JPG,AFNE01.JPG,AFNE01.JPG,AFNE01.JPG,AFNE01.JPG,,,,,4,5,45,4,,,,,,,,,,,,,,,,,,,AMNE08.jpg,AMSA07.jpg,AMNE06.jpg,AMSA14.jpg,AMNE08.jpg,MN,1,num_8,16,num_8,1.68338978884,,,2017_Jun_16_1256,60.0115680968,FEMA4ImagesEEG,001,100707,
AFNE01.JPG,AFNE01.JPG,AFNE01.JPG,AFNE01.JPG,AFNE01.JPG,AFNE01.JPG,,,,,4,6,46,8,,,,,,,,,,,,,,,,,,,AMNE05.jpg,AMNE16.jpg,AMSA09.jpg,AMSA15.jpg,AMNE16.jpg,MN,1,num_6,16,num_6,1.48341602529,,,2017_Jun_16_1256,60.0115680968,FEMA4ImagesEEG,001,100707,
AFNE01.JPG,AFNE01.JPG,AFNE01.JPG,AFNE01.JPG,AFNE01.JPG,AFNE01.JPG,,,,,4,7,47,7,,,,,,,,,,,,,,,,,,,AMSA10.jpg,AMSA14.jpg,AMNE04.jpg,AMNE10.jpg,AMNE04.jpg,MN,1,num_2,32,num_4,1.05009078514,,,2017_Jun_16_1256,60.0115680968,FEMA4ImagesEEG,001,100707,
AFNE01.JPG,AFNE01.JPG,AFNE01.JPG,AFNE01.JPG,AFNE01.JPG,AFNE01.JPG,,,,,4,8,48,9,,,,,,,,,,,,,,,,,,,AMSA13.jpg,AMSA03.jpg,AMNE02.jpg,AMNE03.jpg,AMNE03.jpg,MN,1,num_4,32,num_6,1.70005378791,,,2017_Jun_16_1256,60.0115680968,FEMA4ImagesEEG,001,100707,
AFNE01.JPG,AFNE01.JPG,AFNE01.JPG,AFNE01.JPG,AFNE01.JPG,AFNE01.JPG,,,,,4,9,49,6,,,,,,,,,,,,,,,,,,,AMSA15.jpg,AMSA18.jpg,AMNE13.jpg,AMNE02.jpg,AMSA18.jpg,MS,2,num_6,32,num_2,1.33342271263,,,2017_Jun_16_1256,60.0115680968,FEMA4ImagesEEG,001,100707,
AFNE01.JPG,AFNE01.JPG,AFNE01.JPG,AFNE01.JPG,AFNE01.JPG,AFNE01.JPG,,,,,5,0,50,6,,,,,,,,,,,,,,,,,,,AMNE05.jpg,AMSA02.jpg,AMSA10.jpg,AMNE08.jpg,AMNE05.jpg,MN,1,num_8,48,None,,,,2017_Jun_16_1256,60.0115680968,FEMA4ImagesEEG,001,100707,
AFNE01.JPG,AFNE01.JPG,AFNE01.JPG,AFNE01.JPG,AFNE01.JPG,AFNE01.JPG,,,,,5,1,51,4,,,,,,,,,,,,,,,,,,,AMSA15.jpg,AMSA18.jpg,AMNE02.jpg,AMNE19.jpg,AMNE02.jpg,MN,1,num_2,16,num_2,0.950204936205,,,2017_Jun_16_1256,60.0115680968,FEMA4ImagesEEG,001,100707,
AFNE01.JPG,AFNE01.JPG,AFNE01.JPG,AFNE01.JPG,AFNE01.JPG,AFNE01.JPG,,,,,5,2,52,3,,,,,,,,,,,,,,,,,,,AMSA08.jpg,AMNE02.jpg,AMNE14.jpg,AMSA12.jpg,AMNE02.jpg,MN,1,num_6,16,num_6,3.28327291145,,,2017_Jun_16_1256,60.0115680968,FEMA4ImagesEEG,001,100707,
AFNE01.JPG,AFNE01.JPG,AFNE01.JPG,AFNE01.JPG,AFNE01.JPG,AFNE01.JPG,,,,,5,3,53,5,,,,,,,,,,,,,,,,,,,AMNE11.jpg,AMSA16.jpg,AMNE20.jpg,AMSA18.jpg,AMSA18.jpg,MS,2,num_4,32,num_6,1.01674642914,,,2017_Jun_16_1256,60.0115680968,FEMA4ImagesEEG,001,100707,
AFNE01.JPG,AFNE01.JPG,AFNE01.JPG,AFNE01.JPG,AFNE01.JPG,AFNE01.JPG,,,,,5,4,54,8,,,,,,,,,,,,,,,,,,,AMSA05.jpg,AMSA16.jpg,AMNE16.jpg,AMNE09.jpg,AMSA05.jpg,MS,2,num_8,16,num_8,0.93355665321,,,2017_Jun_16_1256,60.0115680968,FEMA4ImagesEEG,001,100707,
AFNE01.JPG,AFNE01.JPG,AFNE01.JPG,AFNE01.JPG,AFNE01.JPG,AFNE01.JPG,,,,,5,5,55,2,,,,,,,,,,,,,,,,,,,AMSA10.jpg,AMNE10.jpg,AMNE18.jpg,AMSA20.jpg,AMSA20.jpg,MS,2,num_4,32,num_2,0.983449221705,,,2017_Jun_16_1256,60.0115680968,FEMA4ImagesEEG,001,100707,
AFNE01.JPG,AFNE01.JPG,AFNE01.JPG,AFNE01.JPG,AFNE01.JPG,AFNE01.JPG,,,,,5,6,56,9,,,,,,,,,,,,,,,,,,,AMNE02.jpg,AMSA10.jpg,AMNE06.jpg,AMSA20.jpg,AMSA10.jpg,MS,2,num_6,32,num_4,1.96691864997,,,2017_Jun_16_1256,60.0115680968,FEMA4ImagesEEG,001,100707,
AFNE01.JPG,AFNE01.JPG,AFNE01.JPG,AFNE01.JPG,AFNE01.JPG,AFNE01.JPG,,,,,5,7,57,7,,,,,,,,,,,,,,,,,,,AMSA01.jpg,AMNE16.jpg,AMNE13.jpg,AMSA14.jpg,AMSA01.jpg,MS,2,num_8,16,num_8,2.41664167575,,,2017_Jun_16_1256,60.0115680968,FEMA4ImagesEEG,001,100707,
AFNE01.JPG,AFNE01.JPG,AFNE01.JPG,AFNE01.JPG,AFNE01.JPG,AFNE01.JPG,,,,,5,8,58,0,,,,,,,,,,,,,,,,,,,AMSA14.jpg,AMNE11.jpg,AMNE10.jpg,AMSA17.jpg,AMSA17.jpg,MS,2,num_4,16,num_4,1.16676219343,,,2017_Jun_16_1256,60.0115680968,FEMA4ImagesEEG,001,100707,
AFNE01.JPG,AFNE01.JPG,AFNE01.JPG,AFNE01.JPG,AFNE01.JPG,AFNE01.JPG,,,,,5,9,59,1,,,,,,,,,,,,,,,,,,,AMSA09.jpg,AMNE18.jpg,AMSA08.jpg,AMNE14.jpg,AMNE14.jpg,MN,1,num_4,48,None,,,,2017_Jun_16_1256,60.0115680968,FEMA4ImagesEEG,001,100707,
,,,,,,,,,,,,,,,,,,,,,,,,,,,,,,,,,,,,,,,,,,,space,40.4469046914,2017_Jun_16_1256,60.0115680968,FEMA4ImagesEEG,001,100707,
AFNE01.JPG,AFNE01.JPG,AFNE01.JPG,AFNE01.JPG,AFNE01.JPG,AFNE01.JPG,,,,,,,,,0,0,0,0,,,,,,,,,,,,,,,AFNE19.jpg,AFSA19.jpg,AFNE01.jpg,AFSA18.jpg,AFNE01.jpg,FN,3,num_2,32,num_4,1.00015395472,,,2017_Jun_16_1256,60.0115680968,FEMA4ImagesEEG,001,100707,
AFNE01.JPG,AFNE01.JPG,AFNE01.JPG,AFNE01.JPG,AFNE01.JPG,AFNE01.JPG,,,,,,,,,0,1,1,7,,,,,,,,,,,,,,,AFSA01.jpg,AFSA18.jpg,AFNE08.jpg,AFNE12.jpg,AFSA01.jpg,FS,4,num_8,32,num_2,1.50006398745,,,2017_Jun_16_1256,60.0115680968,FEMA4ImagesEEG,001,100707,
AFNE01.JPG,AFNE01.JPG,AFNE01.JPG,AFNE01.JPG,AFNE01.JPG,AFNE01.JPG,,,,,,,,,0,2,2,5,,,,,,,,,,,,,,,AFNE01.jpg,AFSA19.jpg,AFSA18.jpg,AFNE14.jpg,AFSA19.jpg,FS,4,num_6,16,num_6,0.566820375621,,,2017_Jun_16_1256,60.0115680968,FEMA4ImagesEEG,001,100707,
AFNE01.JPG,AFNE01.JPG,AFNE01.JPG,AFNE01.JPG,AFNE01.JPG,AFNE01.JPG,,,,,,,,,0,3,3,6,,,,,,,,,,,,,,,AFSA08.jpg,AFNE07.jpg,AFSA12.jpg,AFNE11.jpg,AFSA08.jpg,FS,4,num_8,32,num_2,1.28350031551,,,2017_Jun_16_1256,60.0115680968,FEMA4ImagesEEG,001,100707,
AFNE01.JPG,AFNE01.JPG,AFNE01.JPG,AFNE01.JPG,AFNE01.JPG,AFNE01.JPG,,,,,,,,,0,4,4,3,,,,,,,,,,,,,,,AFSA13.jpg,AFSA14.jpg,AFNE18.jpg,AFNE12.jpg,AFSA14.jpg,FS,4,num_6,16,num_6,1.21677343536,,,2017_Jun_16_1256,60.0115680968,FEMA4ImagesEEG,001,100707,
AFNE01.JPG,AFNE01.JPG,AFNE01.JPG,AFNE01.JPG,AFNE01.JPG,AFNE01.JPG,,,,,,,,,0,5,5,9,,,,,,,,,,,,,,,AFSA13.jpg,AFSA11.jpg,AFNE07.jpg,AFNE14.jpg,AFSA13.jpg,FS,4,num_8,16,num_8,0.650125617394,,,2017_Jun_16_1256,60.0115680968,FEMA4ImagesEEG,001,100707,
AFNE01.JPG,AFNE01.JPG,AFNE01.JPG,AFNE01.JPG,AFNE01.JPG,AFNE01.JPG,,,,,,,,,0,6,6,4,,,,,,,,,,,,,,,AFSA03.jpg,AFNE05.jpg,AFNE08.jpg,AFSA04.jpg,AFNE05.jpg,FN,3,num_6,32,num_2,2.60004573734,,,2017_Jun_16_1256,60.0115680968,FEMA4ImagesEEG,001,100707,
AFNE01.JPG,AFNE01.JPG,AFNE01.JPG,AFNE01.JPG,AFNE01.JPG,AFNE01.JPG,,,,,,,,,0,7,7,1,,,,,,,,,,,,,,,AFSA09.jpg,AFNE14.jpg,AFSA16.jpg,AFNE04.jpg,AFNE14.jpg,FN,3,num_6,16,num_6,0.883599936962,,,2017_Jun_16_1256,60.0115680968,FEMA4ImagesEEG,001,100707,
AFNE01.JPG,AFNE01.JPG,AFNE01.JPG,AFNE01.JPG,AFNE01.JPG,AFNE01.JPG,,,,,,,,,0,8,8,2,,,,,,,,,,,,,,,AFSA04.jpg,AFSA15.jpg,AFNE18.jpg,AFNE20.jpg,AFSA15.jpg,FS,4,num_6,16,num_6,1.08340723696,,,2017_Jun_16_1256,60.0115680968,FEMA4ImagesEEG,001,100707,
AFNE01.JPG,AFNE01.JPG,AFNE01.JPG,AFNE01.JPG,AFNE01.JPG,AFNE01.JPG,,,,,,,,,0,9,9,8,,,,,,,,,,,,,,,AFNE08.jpg,AFSA08.jpg,AFNE20.jpg,AFSA05.jpg,AFNE20.jpg,FN,3,num_2,16,num_2,1.31672311132,,,2017_Jun_16_1256,60.0115680968,FEMA4ImagesEEG,001,100707,
AFNE01.JPG,AFNE01.JPG,AFNE01.JPG,AFNE01.JPG,AFNE01.JPG,AFNE01.JPG,,,,,,,,,1,0,10,0,,,,,,,,,,,,,,,AFSA18.jpg,AFSA01.jpg,AFNE11.jpg,AFNE16.jpg,AFNE16.jpg,FN,3,num_4,16,num_4,2.40003252297,,,2017_Jun_16_1256,60.0115680968,FEMA4ImagesEEG,001,100707,
AFNE01.JPG,AFNE01.JPG,AFNE01.JPG,AFNE01.JPG,AFNE01.JPG,AFNE01.JPG,,,,,,,,,1,1,11,2,,,,,,,,,,,,,,,AFNE14.jpg,AFSA15.jpg,AFNE10.jpg,AFSA19.jpg,AFSA19.jpg,FS,4,num_4,32,num_8,0.916746397037,,,2017_Jun_16_1256,60.0115680968,FEMA4ImagesEEG,001,100707,
AFNE01.JPG,AFNE01.JPG,AFNE01.JPG,AFNE01.JPG,AFNE01.JPG,AFNE01.JPG,,,,,,,,,1,2,12,1,,,,,,,,,,,,,,,AFNE13.jpg,AFSA14.jpg,AFSA03.jpg,AFNE07.jpg,AFSA14.jpg,FS,4,num_6,32,num_4,0.900098434882,,,2017_Jun_16_1256,60.0115680968,FEMA4ImagesEEG,001,100707,
AFNE01.JPG,AFNE01.JPG,AFNE01.JPG,AFNE01.JPG,AFNE01.JPG,AFNE01.JPG,,,,,,,,,1,3,13,7,,,,,,,,,,,,,,,AFSA03.jpg,AFNE16.jpg,AFNE05.jpg,AFSA02.jpg,AFSA03.jpg,FS,4,num_8,32,num_2,1.28344514838,,,2017_Jun_16_1256,60.0115680968,FEMA4ImagesEEG,001,100707,
AFNE01.JPG,AFNE01.JPG,AFNE01.JPG,AFNE01.JPG,AFNE01.JPG,AFNE01.JPG,,,,,,,,,1,4,14,9,,,,,,,,,,,,,,,AFSA19.jpg,AFNE05.jpg,AFSA12.jpg,AFNE15.jpg,AFNE05.jpg,FN,3,num_6,32,num_8,1.21674937999,,,2017_Jun_16_1256,60.0115680968,FEMA4ImagesEEG,001,100707,
AFNE01.JPG,AFNE01.JPG,AFNE01.JPG,AFNE01.JPG,AFNE01.JPG,AFNE01.JPG,,,,,,,,,1,5,15,3,,,,,,,,,,,,,,,AFNE19.jpg,AFSA16.jpg,AFSA07.jpg,AFNE11.jpg,AFNE19.jpg,FN,3,num_8,32,num_4,0.933408471756,,,2017_Jun_16_1256,60.0115680968,FEMA4ImagesEEG,001,100707,
AFNE01.JPG,AFNE01.JPG,AFNE01.JPG,AFNE01.JPG,AFNE01.JPG,AFNE01.JPG,,,,,,,,,1,6,16,8,,,,,,,,,,,,,,,AFNE02.jpg,AFNE17.jpg,AFSA07.jpg,AFSA19.jpg,AFNE02.jpg,FN,3,num_8,16,num_8,1.06677114207,,,2017_Jun_16_1256,60.0115680968,FEMA4ImagesEEG,001,100707,
AFNE01.JPG,AFNE01.JPG,AFNE01.JPG,AFNE01.JPG,AFNE01.JPG,AFNE01.JPG,,,,,,,,,1,7,17,6,,,,,,,,,,,,,,,AFSA02.jpg,AFNE10.jpg,AFSA18.jpg,AFNE05.jpg,AFNE10.jpg,FN,3,num_6,16,num_6,1.16678272083,,,2017_Jun_16_1256,60.0115680968,FEMA4ImagesEEG,001,100707,
AFNE01.JPG,AFNE01.JPG,AFNE01.JPG,AFNE01.JPG,AFNE01.JPG,AFNE01.JPG,,,,,,,,,1,8,18,5,,,,,,,,,,,,,,,AFSA15.jpg,AFNE10.jpg,AFSA16.jpg,AFNE09.jpg,AFNE09.jpg,FN,3,num_4,32,num_8,2.88332666736,,,2017_Jun_16_1256,60.0115680968,FEMA4ImagesEEG,001,100707,
AFNE01.JPG,AFNE01.JPG,AFNE01.JPG,AFNE01.JPG,AFNE01.JPG,AFNE01.JPG,,,,,,,,,1,9,19,4,,,,,,,,,,,,,,,AFSA17.jpg,AFNE01.jpg,AFNE17.jpg,AFSA10.jpg,AFNE01.jpg,FN,3,num_6,32,num_4,2.20004079794,,,2017_Jun_16_1256,60.0115680968,FEMA4ImagesEEG,001,100707,
AFNE01.JPG,AFNE01.JPG,AFNE01.JPG,AFNE01.JPG,AFNE01.JPG,AFNE01.JPG,,,,,,,,,2,0,20,5,,,,,,,,,,,,,,,AFSA03.jpg,AFSA07.jpg,AFNE09.jpg,AFNE18.jpg,AFSA07.jpg,FS,4,num_6,16,num_6,1.28352405014,,,2017_Jun_16_1256,60.0115680968,FEMA4ImagesEEG,001,100707,
AFNE01.JPG,AFNE01.JPG,AFNE01.JPG,AFNE01.JPG,AFNE01.JPG,AFNE01.JPG,,,,,,,,,2,1,21,4,,,,,,,,,,,,,,,AFSA08.jpg,AFSA16.jpg,AFNE16.jpg,AFNE17.jpg,AFNE16.jpg,FN,3,num_2,32,num_8,1.31672022468,,,2017_Jun_16_1256,60.0115680968,FEMA4ImagesEEG,001,100707,
AFNE01.JPG,AFNE01.JPG,AFNE01.JPG,AFNE01.JPG,AFNE01.JPG,AFNE01.JPG,,,,,,,,,2,2,22,6,,,,,,,,,,,,,,,AFNE16.jpg,AFNE11.jpg,AFSA08.jpg,AFSA01.jpg,AFSA01.jpg,FS,4,num_4,16,num_4,0.949979135883,,,2017_Jun_16_1256,60.0115680968,FEMA4ImagesEEG,001,100707,
AFNE01.JPG,AFNE01.JPG,AFNE01.JPG,AFNE01.JPG,AFNE01.JPG,AFNE01.JPG,,,,,,,,,2,3,23,0,,,,,,,,,,,,,,,AFSA04.jpg,AFNE12.jpg,AFNE15.jpg,AFSA16.jpg,AFSA16.jpg,FS,4,num_4,32,num_8,2.2833579072,,,2017_Jun_16_1256,60.0115680968,FEMA4ImagesEEG,001,100707,
AFNE01.JPG,AFNE01.JPG,AFNE01.JPG,AFNE01.JPG,AFNE01.JPG,AFNE01.JPG,,,,,,,,,2,4,24,3,,,,,,,,,,,,,,,AFSA11.jpg,AFSA05.jpg,AFNE05.jpg,AFNE08.jpg,AFSA11.jpg,FS,4,num_8,16,num_8,1.41674302926,,,2017_Jun_16_1256,60.0115680968,FEMA4ImagesEEG,001,100707,
AFNE01.JPG,AFNE01.JPG,AFNE01.JPG,AFNE01.JPG,AFNE01.JPG,AFNE01.JPG,,,,,,,,,2,5,25,2,,,,,,,,,,,,,,,AFSA07.jpg,AFNE14.jpg,AFSA05.jpg,AFNE15.jpg,AFSA07.jpg,FS,4,num_8,32,num_2,1.73293980781,,,2017_Jun_16_1256,60.0115680968,FEMA4ImagesEEG,001,100707,
AFNE01.JPG,AFNE01.JPG,AFNE01.JPG,AFNE01.JPG,AFNE01.JPG,AFNE01.JPG,,,,,,,,,2,6,26,9,,,,,,,,,,,,,,,AFSA16.jpg,AFNE09.jpg,AFNE10.jpg,AFSA05.jpg,AFSA16.jpg,FS,4,num_8,16,num_8,1.50005693117,,,2017_Jun_16_1256,60.0115680968,FEMA4ImagesEEG,001,100707,
AFNE01.JPG,AFNE01.JPG,AFNE01.JPG,AFNE01.JPG,AFNE01.JPG,AFNE01.JPG,,,,,,,,,2,7,27,1,,,,,,,,,,,,,,,AFNE09.jpg,AFSA18.jpg,AFNE17.jpg,AFSA08.jpg,AFNE09.jpg,FN,3,num_8,16,num_8,1.60012945032,,,2017_Jun_16_1256,60.0115680968,FEMA4ImagesEEG,001,100707,
AFNE01.JPG,AFNE01.JPG,AFNE01.JPG,AFNE01.JPG,AFNE01.JPG,AFNE01.JPG,,,,,,,,,2,8,28,8,,,,,,,,,,,,,,,AFSA02.jpg,AFNE09.jpg,AFSA15.jpg,AFNE07.jpg,AFSA02.jpg,FS,4,num_8,32,num_2,1.16676508007,,,2017_Jun_16_1256,60.0115680968,FEMA4ImagesEEG,001,100707,
AFNE01.JPG,AFNE01.JPG,AFNE01.JPG,AFNE01.JPG,AFNE01.JPG,AFNE01.JPG,,,,,,,,,2,9,29,7,,,,,,,,,,,,,,,AFNE06.jpg,AFSA20.jpg,AFSA08.jpg,AFNE17.jpg,AFSA20.jpg,FS,4,num_6,16,num_6,0.983477126108,,,2017_Jun_16_1256,60.0115680968,FEMA4ImagesEEG,001,100707,
AFNE01.JPG,AFNE01.JPG,AFNE01.JPG,AFNE01.JPG,AFNE01.JPG,AFNE01.JPG,,,,,,,,,3,0,30,5,,,,,,,,,,,,,,,AFNE02.jpg,AFSA05.jpg,AFNE07.jpg,AFSA10.jpg,AFNE07.jpg,FN,3,num_2,16,num_2,1.06689206068,,,2017_Jun_16_1256,60.0115680968,FEMA4ImagesEEG,001,100707,
AFNE01.JPG,AFNE01.JPG,AFNE01.JPG,AFNE01.JPG,AFNE01.JPG,AFNE01.JPG,,,,,,,,,3,1,31,9,,,,,,,,,,,,,,,AFSA09.jpg,AFSA02.jpg,AFNE13.jpg,AFNE08.jpg,AFNE08.jpg,FN,3,num_4,32,num_8,1.05010778445,,,2017_Jun_16_1256,60.0115680968,FEMA4ImagesEEG,001,100707,
AFNE01.JPG,AFNE01.JPG,AFNE01.JPG,AFNE01.JPG,AFNE01.JPG,AFNE01.JPG,,,,,,,,,3,2,32,6,,,,,,,,,,,,,,,AFNE09.jpg,AFSA09.jpg,AFSA03.jpg,AFNE20.jpg,AFNE20.jpg,FN,3,num_4,16,num_4,1.40009699145,,,2017_Jun_16_1256,60.0115680968,FEMA4ImagesEEG,001,100707,
AFNE01.JPG,AFNE01.JPG,AFNE01.JPG,AFNE01.JPG,AFNE01.JPG,AFNE01.JPG,,,,,,,,,3,3,33,3,,,,,,,,,,,,,,,AFNE11.jpg,AFSA10.jpg,AFNE10.jpg,AFSA09.jpg,AFSA10.jpg,FS,4,num_6,32,num_2,1.30007258325,,,2017_Jun_16_1256,60.0115680968,FEMA4ImagesEEG,001,100707,
AFNE01.JPG,AFNE01.JPG,AFNE01.JPG,AFNE01.JPG,AFNE01.JPG,AFNE01.JPG,,,,,,,,,3,4,34,0,,,,,,,,,,,,,,,AFSA10.jpg,AFSA12.jpg,AFNE13.jpg,AFNE01.jpg,AFSA12.jpg,FS,4,num_6,16,num_6,0.866768191219,,,2017_Jun_16_1256,60.0115680968,FEMA4ImagesEEG,001,100707,
AFNE01.JPG,AFNE01.JPG,AFNE01.JPG,AFNE01.JPG,AFNE01.JPG,AFNE01.JPG,,,,,,,,,3,5,35,1,,,,,,,,,,,,,,,AFNE07.jpg,AFSA16.jpg,AFSA01.jpg,AFNE04.jpg,AFNE04.jpg,FN,3,num_4,16,num_4,0.916778150247,,,2017_Jun_16_1256,60.0115680968,FEMA4ImagesEEG,001,100707,
AFNE01.JPG,AFNE01.JPG,AFNE01.JPG,AFNE01.JPG,AFNE01.JPG,AFNE01.JPG,,,,,,,,,3,6,36,4,,,,,,,,,,,,,,,AFNE14.jpg,AFSA11.jpg,AFNE07.jpg,AFSA14.jpg,AFNE07.jpg,FN,3,num_2,16,num_2,1.56670747546,,,2017_Jun_16_1256,60.0115680968,FEMA4ImagesEEG,001,100707,
AFNE01.JPG,AFNE01.JPG,AFNE01.JPG,AFNE01.JPG,AFNE01.JPG,AFNE01.JPG,,,,,,,,,3,7,37,7,,,,,,,,,,,,,,,AFNE03.jpg,AFNE15.jpg,AFSA15.jpg,AFSA07.jpg,AFNE03.jpg,FN,3,num_8,16,num_8,1.3001072231,,,2017_Jun_16_1256,60.0115680968,FEMA4ImagesEEG,001,100707,
AFNE01.JPG,AFNE01.JPG,AFNE01.JPG,AFNE01.JPG,AFNE01.JPG,AFNE01.JPG,,,,,,,,,3,8,38,2,,,,,,,,,,,,,,,AFSA05.jpg,AFSA06.jpg,AFNE16.jpg,AFNE13.jpg,AFNE13.jpg,FN,3,num_4,32,num_8,0.950109355967,,,2017_Jun_16_1256,60.0115680968,FEMA4ImagesEEG,001,100707,
AFNE01.JPG,AFNE01.JPG,AFNE01.JPG,AFNE01.JPG,AFNE01.JPG,AFNE01.JPG,,,,,,,,,3,9,39,8,,,,,,,,,,,,,,,AFNE19.jpg,AFNE16.jpg,AFSA04.jpg,AFSA02.jpg,AFSA02.jpg,FS,4,num_4,16,num_4,1.0833931244,,,2017_Jun_16_1256,60.0115680968,FEMA4ImagesEEG,001,100707,
AFNE01.JPG,AFNE01.JPG,AFNE01.JPG,AFNE01.JPG,AFNE01.JPG,AFNE01.JPG,,,,,,,,,4,0,40,6,,,,,,,,,,,,,,,AFNE11.jpg,AFNE19.jpg,AFSA12.jpg,AFSA16.jpg,AFSA16.jpg,FS,4,num_4,16,num_4,0.933447601972,,,2017_Jun_16_1256,60.0115680968,FEMA4ImagesEEG,001,100707,
AFNE01.JPG,AFNE01.JPG,AFNE01.JPG,AFNE01.JPG,AFNE01.JPG,AFNE01.JPG,,,,,,,,,4,1,41,3,,,,,,,,,,,,,,,AFNE03.jpg,AFSA06.jpg,AFNE19.jpg,AFSA07.jpg,AFSA07.jpg,FS,4,num_4,32,num_8,1.43341055664,,,2017_Jun_16_1256,60.0115680968,FEMA4ImagesEEG,001,100707,
AFNE01.JPG,AFNE01.JPG,AFNE01.JPG,AFNE01.JPG,AFNE01.JPG,AFNE01.JPG,,,,,,,,,4,2,42,9,,,,,,,,,,,,,,,AFNE19.jpg,AFSA20.jpg,AFSA16.jpg,AFNE10.jpg,AFSA16.jpg,FS,4,num_2,16,num_2,1.65004896082,,,2017_Jun_16_1256,60.0115680968,FEMA4ImagesEEG,001,100707,
AFNE01.JPG,AFNE01.JPG,AFNE01.JPG,AFNE01.JPG,AFNE01.JPG,AFNE01.JPG,,,,,,,,,4,3,43,2,,,,,,,,,,,,,,,AFNE19.jpg,AFSA13.jpg,AFSA07.jpg,AFNE05.jpg,AFSA07.jpg,FS,4,num_2,32,num_8,1.81666778389,,,2017_Jun_16_1256,60.0115680968,FEMA4ImagesEEG,001,100707,
AFNE01.JPG,AFNE01.JPG,AFNE01.JPG,AFNE01.JPG,AFNE01.JPG,AFNE01.JPG,,,,,,,,,4,4,44,8,,,,,,,,,,,,,,,AFSA18.jpg,AFSA16.jpg,AFNE04.jpg,AFNE05.jpg,AFSA18.jpg,FS,4,num_8,16,num_8,1.80003265128,,,2017_Jun_16_1256,60.0115680968,FEMA4ImagesEEG,001,100707,
AFNE01.JPG,AFNE01.JPG,AFNE01.JPG,AFNE01.JPG,AFNE01.JPG,AFNE01.JPG,,,,,,,,,4,5,45,0,,,,,,,,,,,,,,,AFNE05.jpg,AFSA12.jpg,AFNE03.jpg,AFSA14.jpg,AFSA14.jpg,FS,4,num_4,32,num_6,1.75004482327,,,2017_Jun_16_1256,60.0115680968,FEMA4ImagesEEG,001,100707,
AFNE01.JPG,AFNE01.JPG,AFNE01.JPG,AFNE01.JPG,AFNE01.JPG,AFNE01.JPG,,,,,,,,,4,6,46,1,,,,,,,,,,,,,,,AFNE10.jpg,AFSA08.jpg,AFNE11.jpg,AFSA01.jpg,AFSA08.jpg,FS,4,num_6,32,num_8,1.21674777626,,,2017_Jun_16_1256,60.0115680968,FEMA4ImagesEEG,001,100707,
AFNE01.JPG,AFNE01.JPG,AFNE01.JPG,AFNE01.JPG,AFNE01.JPG,AFNE01.JPG,,,,,,,,,4,7,47,5,,,,,,,,,,,,,,,AFSA04.jpg,AFNE12.jpg,AFNE17.jpg,AFSA07.jpg,AFNE17.jpg,FN,3,num_2,32,num_8,1.55011179356,,,2017_Jun_16_1256,60.0115680968,FEMA4ImagesEEG,001,100707,
AFNE01.JPG,AFNE01.JPG,AFNE01.JPG,AFNE01.JPG,AFNE01.JPG,AFNE01.JPG,,,,,,,,,4,8,48,4,,,,,,,,,,,,,,,AFNE17.jpg,AFNE07.jpg,AFSA10.jpg,AFSA04.jpg,AFSA04.jpg,FS,4,num_4,16,num_4,1.48340127128,,,2017_Jun_16_1256,60.0115680968,FEMA4ImagesEEG,001,100707,
AFNE01.JPG,AFNE01.JPG,AFNE01.JPG,AFNE01.JPG,AFNE01.JPG,AFNE01.JPG,,,,,,,,,4,9,49,7,,,,,,,,,,,,,,,AFNE14.jpg,AFSA12.jpg,AFNE10.jpg,AFSA07.jpg,AFSA12.jpg,FS,4,num_6,32,num_8,2.46619746811,,,2017_Jun_16_1256,60.0115680968,FEMA4ImagesEEG,001,100707,
AFNE01.JPG,AFNE01.JPG,AFNE01.JPG,AFNE01.JPG,AFNE01.JPG,AFNE01.JPG,,,,,,,,,5,0,50,9,,,,,,,,,,,,,,,AFNE10.jpg,AFNE06.jpg,AFSA20.jpg,AFSA18.jpg,AFSA18.jpg,FS,4,num_4,16,num_4,1.1000827828,,,2017_Jun_16_1256,60.0115680968,FEMA4ImagesEEG,001,100707,
AFNE01.JPG,AFNE01.JPG,AFNE01.JPG,AFNE01.JPG,AFNE01.JPG,AFNE01.JPG,,,,,,,,,5,1,51,8,,,,,,,,,,,,,,,AFNE11.jpg,AFNE20.jpg,AFSA09.jpg,AFSA17.jpg,AFSA17.jpg,FS,4,num_4,16,num_4,3.9665716103,,,2017_Jun_16_1256,60.0115680968,FEMA4ImagesEEG,001,100707,
AFNE01.JPG,AFNE01.JPG,AFNE01.JPG,AFNE01.JPG,AFNE01.JPG,AFNE01.JPG,,,,,,,,,5,2,52,3,,,,,,,,,,,,,,,AFSA16.jpg,AFNE04.jpg,AFNE10.jpg,AFSA01.jpg,AFSA16.jpg,FS,4,num_8,16,num_8,2.03340561723,,,2017_Jun_16_1256,60.0115680968,FEMA4ImagesEEG,001,100707,
AFNE01.JPG,AFNE01.JPG,AFNE01.JPG,AFNE01.JPG,AFNE01.JPG,AFNE01.JPG,,,,,,,,,5,3,53,2,,,,,,,,,,,,,,,AFNE17.jpg,AFSA17.jpg,AFSA13.jpg,AFNE09.jpg,AFNE09.jpg,FN,3,num_4,16,num_4,3.34994141699,,,2017_Jun_16_1256,60.0115680968,FEMA4ImagesEEG,001,100707,
AFNE01.JPG,AFNE01.JPG,AFNE01.JPG,AFNE01.JPG,AFNE01.JPG,AFNE01.JPG,,,,,,,,,5,4,54,0,,,,,,,,,,,,,,,AFNE11.jpg,AFSA20.jpg,AFNE15.jpg,AFSA09.jpg,AFNE11.jpg,FN,3,num_8,16,num_8,1.50006206299,,,2017_Jun_16_1256,60.0115680968,FEMA4ImagesEEG,001,100707,
AFNE01.JPG,AFNE01.JPG,AFNE01.JPG,AFNE01.JPG,AFNE01.JPG,AFNE01.JPG,,,,,,,,,5,5,55,1,,,,,,,,,,,,,,,AFSA02.jpg,AFNE12.jpg,AFSA03.jpg,AFNE16.jpg,AFNE12.jpg,FN,3,num_6,16,num_6,1.31676993938,,,2017_Jun_16_1256,60.0115680968,FEMA4ImagesEEG,001,100707,
AFNE01.JPG,AFNE01.JPG,AFNE01.JPG,AFNE01.JPG,AFNE01.JPG,AFNE01.JPG,,,,,,,,,5,6,56,4,,,,,,,,,,,,,,,AFSA02.jpg,AFNE18.jpg,AFSA06.jpg,AFNE19.jpg,AFNE19.jpg,FN,3,num_4,16,num_4,1.28340184852,,,2017_Jun_16_1256,60.0115680968,FEMA4ImagesEEG,001,100707,
AFNE01.JPG,AFNE01.JPG,AFNE01.JPG,AFNE01.JPG,AFNE01.JPG,AFNE01.JPG,,,,,,,,,5,7,57,7,,,,,,,,,,,,,,,AFSA14.jpg,AFSA06.jpg,AFNE15.jpg,AFNE14.jpg,AFSA14.jpg,FS,4,num_8,16,num_8,0.866752475034,,,2017_Jun_16_1256,60.0115680968,FEMA4ImagesEEG,001,100707,
AFNE01.JPG,AFNE01.JPG,AFNE01.JPG,AFNE01.JPG,AFNE01.JPG,AFNE01.JPG,,,,,,,,,5,8,58,5,,,,,,,,,,,,,,,AFSA07.jpg,AFSA05.jpg,AFNE19.jpg,AFNE14.jpg,AFSA05.jpg,FS,4,num_6,16,num_6,1.08349960984,,,2017_Jun_16_1256,60.0115680968,FEMA4ImagesEEG,001,100707,
AFNE01.JPG,AFNE01.JPG,AFNE01.JPG,AFNE01.JPG,AFNE01.JPG,AFNE01.JPG,,,,,,,,,5,9,59,6,,,,,,,,,,,,,,,AFNE09.jpg,AFSA18.jpg,AFSA08.jpg,AFNE19.jpg,AFSA18.jpg,FS,4,num_6,32,num_8,1.31677250529,,,2017_Jun_16_1256,60.0115680968,FEMA4ImagesEEG,001,100707,
,,,,,,,,,,,,,,,,,,,,,,,,,,,,,,,,,,,,,,,,,,,space,16.9487760436,2017_Jun_16_1256,60.0115680968,FEMA4ImagesEEG,001,100707,
AFNE01.JPG,AFNE01.JPG,AFNE01.JPG,AFNE01.JPG,AFNE01.JPG,AFNE01.JPG,,,,,,,,,,,,,0,0,0,9,,,,,,,,,,,AMSA09.jpg,AMNE10.jpg,AMNE15.jpg,AMSA03.jpg,AMNE15.jpg,MN,1,num_2,16,num_2,1.15015624813,,,2017_Jun_16_1256,60.0115680968,FEMA4ImagesEEG,001,100707,
AFNE01.JPG,AFNE01.JPG,AFNE01.JPG,AFNE01.JPG,AFNE01.JPG,AFNE01.JPG,,,,,,,,,,,,,0,1,1,1,,,,,,,,,,,AMNE12.jpg,AMNE14.jpg,AMSA02.jpg,AMSA20.jpg,AMSA20.jpg,MS,2,num_4,16,num_4,0.966803184012,,,2017_Jun_16_1256,60.0115680968,FEMA4ImagesEEG,001,100707,
AFNE01.JPG,AFNE01.JPG,AFNE01.JPG,AFNE01.JPG,AFNE01.JPG,AFNE01.JPG,,,,,,,,,,,,,0,2,2,7,,,,,,,,,,,AMSA15.jpg,AMSA01.jpg,AMNE11.jpg,AMNE04.jpg,AMNE11.jpg,MN,1,num_2,32,num_6,0.85010098468,,,2017_Jun_16_1256,60.0115680968,FEMA4ImagesEEG,001,100707,
AFNE01.JPG,AFNE01.JPG,AFNE01.JPG,AFNE01.JPG,AFNE01.JPG,AFNE01.JPG,,,,,,,,,,,,,0,3,3,5,,,,,,,,,,,AMSA19.jpg,AMSA07.jpg,AMNE09.jpg,AMNE01.jpg,AMNE01.jpg,MN,1,num_4,16,num_4,1.00016036956,,,2017_Jun_16_1256,60.0115680968,FEMA4ImagesEEG,001,100707,
AFNE01.JPG,AFNE01.JPG,AFNE01.JPG,AFNE01.JPG,AFNE01.JPG,AFNE01.JPG,,,,,,,,,,,,,0,4,4,8,,,,,,,,,,,AMNE04.jpg,AMSA17.jpg,AMNE16.jpg,AMSA15.jpg,AMNE16.jpg,MN,1,num_2,16,num_2,2.00015555846,,,2017_Jun_16_1256,60.0115680968,FEMA4ImagesEEG,001,100707,
AFNE01.JPG,AFNE01.JPG,AFNE01.JPG,AFNE01.JPG,AFNE01.JPG,AFNE01.JPG,,,,,,,,,,,,,0,5,5,2,,,,,,,,,,,AMSA09.jpg,AMSA20.jpg,AMNE03.jpg,AMNE18.jpg,AMSA09.jpg,MS,2,num_8,16,num_8,2.46666286048,,,2017_Jun_16_1256,60.0115680968,FEMA4ImagesEEG,001,100707,
AFNE01.JPG,AFNE01.JPG,AFNE01.JPG,AFNE01.JPG,AFNE01.JPG,AFNE01.JPG,,,,,,,,,,,,,0,6,6,4,,,,,,,,,,,AMNE19.jpg,AMNE06.jpg,AMSA06.jpg,AMSA12.jpg,AMNE19.jpg,MN,1,num_8,32,num_4,1.05015140481,,,2017_Jun_16_1256,60.0115680968,FEMA4ImagesEEG,001,100707,
AFNE01.JPG,AFNE01.JPG,AFNE01.JPG,AFNE01.JPG,AFNE01.JPG,AFNE01.JPG,,,,,,,,,,,,,0,7,7,3,,,,,,,,,,,AMSA03.jpg,AMNE07.jpg,AMNE11.jpg,AMSA06.jpg,AMSA06.jpg,MS,2,num_4,16,num_4,0.800109949429,,,2017_Jun_16_1256,60.0115680968,FEMA4ImagesEEG,001,100707,
AFNE01.JPG,AFNE01.JPG,AFNE01.JPG,AFNE01.JPG,AFNE01.JPG,AFNE01.JPG,,,,,,,,,,,,,0,8,8,0,,,,,,,,,,,AMNE01.jpg,AMSA07.jpg,AMNE20.jpg,AMSA15.jpg,AMSA15.jpg,MS,2,num_4,16,num_4,1.33341918443,,,2017_Jun_16_1256,60.0115680968,FEMA4ImagesEEG,001,100707,
AFNE01.JPG,AFNE01.JPG,AFNE01.JPG,AFNE01.JPG,AFNE01.JPG,AFNE01.JPG,,,,,,,,,,,,,0,9,9,6,,,,,,,,,,,AMNE15.jpg,AMNE13.jpg,AMSA07.jpg,AMSA11.jpg,AMNE15.jpg,MN,1,num_8,16,num_8,1.06673874741,,,2017_Jun_16_1256,60.0115680968,FEMA4ImagesEEG,001,100707,
AFNE01.JPG,AFNE01.JPG,AFNE01.JPG,AFNE01.JPG,AFNE01.JPG,AFNE01.JPG,,,,,,,,,,,,,1,0,10,6,,,,,,,,,,,AMNE02.jpg,AMSA01.jpg,AMNE04.jpg,AMSA10.jpg,AMNE04.jpg,MN,1,num_2,32,num_6,0.983585215057,,,2017_Jun_16_1256,60.0115680968,FEMA4ImagesEEG,001,100707,
AFNE01.JPG,AFNE01.JPG,AFNE01.JPG,AFNE01.JPG,AFNE01.JPG,AFNE01.JPG,,,,,,,,,,,,,1,1,11,9,,,,,,,,,,,AMSA03.jpg,AMSA11.jpg,AMNE19.jpg,AMNE02.jpg,AMNE19.jpg,MN,1,num_2,16,num_2,1.38341406872,,,2017_Jun_16_1256,60.0115680968,FEMA4ImagesEEG,001,100707,
AFNE01.JPG,AFNE01.JPG,AFNE01.JPG,AFNE01.JPG,AFNE01.JPG,AFNE01.JPG,,,,,,,,,,,,,1,2,12,7,,,,,,,,,,,AMSA08.jpg,AMSA19.jpg,AMNE10.jpg,AMNE03.jpg,AMNE10.jpg,MN,1,num_2,32,num_8,1.78335742617,,,2017_Jun_16_1256,60.0115680968,FEMA4ImagesEEG,001,100707,
AFNE01.JPG,AFNE01.JPG,AFNE01.JPG,AFNE01.JPG,AFNE01.JPG,AFNE01.JPG,,,,,,,,,,,,,1,3,13,5,,,,,,,,,,,AMNE06.jpg,AMSA02.jpg,AMNE19.jpg,AMSA06.jpg,AMNE06.jpg,MN,1,num_8,32,num_4,1.36672825925,,,2017_Jun_16_1256,60.0115680968,FEMA4ImagesEEG,001,100707,
AFNE01.JPG,AFNE01.JPG,AFNE01.JPG,AFNE01.JPG,AFNE01.JPG,AFNE01.JPG,,,,,,,,,,,,,1,4,14,2,,,,,,,,,,,AMSA15.jpg,AMNE07.jpg,AMSA06.jpg,AMNE02.jpg,AMNE07.jpg,MN,1,num_6,16,num_6,0.967103395727,,,2017_Jun_16_1256,60.0115680968,FEMA4ImagesEEG,001,100707,
AFNE01.JPG,AFNE01.JPG,AFNE01.JPG,AFNE01.JPG,AFNE01.JPG,AFNE01.JPG,,,,,,,,,,,,,1,5,15,1,,,,,,,,,,,AMSA07.jpg,AMNE06.jpg,AMSA09.jpg,AMNE18.jpg,AMNE06.jpg,MN,1,num_6,16,num_6,1.18348296348,,,2017_Jun_16_1256,60.0115680968,FEMA4ImagesEEG,001,100707,
AFNE01.JPG,AFNE01.JPG,AFNE01.JPG,AFNE01.JPG,AFNE01.JPG,AFNE01.JPG,,,,,,,,,,,,,1,6,16,0,,,,,,,,,,,AMSA19.jpg,AMNE10.jpg,AMNE20.jpg,AMSA17.jpg,AMSA17.jpg,MS,2,num_4,16,num_4,1.20019571495,,,2017_Jun_16_1256,60.0115680968,FEMA4ImagesEEG,001,100707,
AFNE01.JPG,AFNE01.JPG,AFNE01.JPG,AFNE01.JPG,AFNE01.JPG,AFNE01.JPG,,,,,,,,,,,,,1,7,17,3,,,,,,,,,,,AMNE12.jpg,AMSA19.jpg,AMSA03.jpg,AMNE14.jpg,AMNE12.jpg,MN,1,num_8,32,num_6,1.18344255036,,,2017_Jun_16_1256,60.0115680968,FEMA4ImagesEEG,001,100707,
AFNE01.JPG,AFNE01.JPG,AFNE01.JPG,AFNE01.JPG,AFNE01.JPG,AFNE01.JPG,,,,,,,,,,,,,1,8,18,4,,,,,,,,,,,AMSA17.jpg,AMNE20.jpg,AMNE13.jpg,AMSA20.jpg,AMSA17.jpg,MS,2,num_8,32,num_4,3.33332873613,,,2017_Jun_16_1256,60.0115680968,FEMA4ImagesEEG,001,100707,
AFNE01.JPG,AFNE01.JPG,AFNE01.JPG,AFNE01.JPG,AFNE01.JPG,AFNE01.JPG,,,,,,,,,,,,,1,9,19,8,,,,,,,,,,,AMSA10.jpg,AMNE04.jpg,AMNE19.jpg,AMSA05.jpg,AMNE19.jpg,MN,1,num_2,32,num_6,2.83331221796,,,2017_Jun_16_1256,60.0115680968,FEMA4ImagesEEG,001,100707,
AFNE01.JPG,AFNE01.JPG,AFNE01.JPG,AFNE01.JPG,AFNE01.JPG,AFNE01.JPG,,,,,,,,,,,,,2,0,20,1,,,,,,,,,,,AMSA10.jpg,AMSA12.jpg,AMNE19.jpg,AMNE20.jpg,AMSA10.jpg,MS,2,num_8,16,num_8,0.983465579455,,,2017_Jun_16_1256,60.0115680968,FEMA4ImagesEEG,001,100707,
AFNE01.JPG,AFNE01.JPG,AFNE01.JPG,AFNE01.JPG,AFNE01.JPG,AFNE01.JPG,,,,,,,,,,,,,2,1,21,9,,,,,,,,,,,AMSA03.jpg,AMNE11.jpg,AMNE20.jpg,AMSA09.jpg,AMNE20.jpg,MN,1,num_2,16,num_2,1.73335965525,,,2017_Jun_16_1256,60.0115680968,FEMA4ImagesEEG,001,100707,
AFNE01.JPG,AFNE01.JPG,AFNE01.JPG,AFNE01.JPG,AFNE01.JPG,AFNE01.JPG,,,,,,,,,,,,,2,2,22,2,,,,,,,,,,,AMSA12.jpg,AMSA05.jpg,AMNE10.jpg,AMNE18.jpg,AMNE10.jpg,MN,1,num_2,32,num_8,1.18341560825,,,2017_Jun_16_1256,60.0115680968,FEMA4ImagesEEG,001,100707,
AFNE01.JPG,AFNE01.JPG,AFNE01.JPG,AFNE01.JPG,AFNE01.JPG,AFNE01.JPG,,,,,,,,,,,,,2,3,23,7,,,,,,,,,,,AMSA14.jpg,AMNE19.jpg,AMNE14.jpg,AMSA10.jpg,AMNE19.jpg,MN,1,num_6,16,num_6,0.816874660668,,,2017_Jun_16_1256,60.0115680968,FEMA4ImagesEEG,001,100707,
AFNE01.JPG,AFNE01.JPG,AFNE01.JPG,AFNE01.JPG,AFNE01.JPG,AFNE01.JPG,,,,,,,,,,,,,2,4,24,8,,,,,,,,,,,AMSA06.jpg,AMSA02.jpg,AMNE10.jpg,AMNE04.jpg,AMNE10.jpg,MN,1,num_2,32,num_8,1.66681527568,,,2017_Jun_16_1256,60.0115680968,FEMA4ImagesEEG,001,100707,
AFNE01.JPG,AFNE01.JPG,AFNE01.JPG,AFNE01.JPG,AFNE01.JPG,AFNE01.JPG,,,,,,,,,,,,,2,5,25,3,,,,,,,,,,,AMNE10.jpg,AMNE05.jpg,AMSA20.jpg,AMSA07.jpg,AMSA07.jpg,MS,2,num_4,32,num_8,0.98347006971,,,2017_Jun_16_1256,60.0115680968,FEMA4ImagesEEG,001,100707,
AFNE01.JPG,AFNE01.JPG,AFNE01.JPG,AFNE01.JPG,AFNE01.JPG,AFNE01.JPG,,,,,,,,,,,,,2,6,26,5,,,,,,,,,,,AMSA03.jpg,AMSA10.jpg,AMNE06.jpg,AMNE10.jpg,AMNE10.jpg,MN,1,num_4,32,num_2,1.50013583305,,,2017_Jun_16_1256,60.0115680968,FEMA4ImagesEEG,001,100707,
AFNE01.JPG,AFNE01.JPG,AFNE01.JPG,AFNE01.JPG,AFNE01.JPG,AFNE01.JPG,,,,,,,,,,,,,2,7,27,4,,,,,,,,,,,AMSA11.jpg,AMNE18.jpg,AMNE10.jpg,AMSA04.jpg,AMNE18.jpg,MN,1,num_6,32,num_2,1.7000707871,,,2017_Jun_16_1256,60.0115680968,FEMA4ImagesEEG,001,100707,
AFNE01.JPG,AFNE01.JPG,AFNE01.JPG,AFNE01.JPG,AFNE01.JPG,AFNE01.JPG,,,,,,,,,,,,,2,8,28,6,,,,,,,,,,,AMSA14.jpg,AMNE20.jpg,AMSA09.jpg,AMNE16.jpg,AMNE20.jpg,MN,1,num_6,16,num_6,2.36664743291,,,2017_Jun_16_1256,60.0115680968,FEMA4ImagesEEG,001,100707,
AFNE01.JPG,AFNE01.JPG,AFNE01.JPG,AFNE01.JPG,AFNE01.JPG,AFNE01.JPG,,,,,,,,,,,,,2,9,29,0,,,,,,,,,,,AMSA13.jpg,AMNE05.jpg,AMNE02.jpg,AMSA03.jpg,AMSA03.jpg,MS,2,num_4,32,num_2,1.11671727395,,,2017_Jun_16_1256,60.0115680968,FEMA4ImagesEEG,001,100707,
AFNE01.JPG,AFNE01.JPG,AFNE01.JPG,AFNE01.JPG,AFNE01.JPG,AFNE01.JPG,,,,,,,,,,,,,3,0,30,9,,,,,,,,,,,AMNE12.jpg,AMNE20.jpg,AMSA09.jpg,AMSA03.jpg,AMNE12.jpg,MN,1,num_8,32,num_4,2.46665420057,,,2017_Jun_16_1256,60.0115680968,FEMA4ImagesEEG,001,100707,
AFNE01.JPG,AFNE01.JPG,AFNE01.JPG,AFNE01.JPG,AFNE01.JPG,AFNE01.JPG,,,,,,,,,,,,,3,1,31,4,,,,,,,,,,,AMSA10.jpg,AMNE15.jpg,AMSA04.jpg,AMNE07.jpg,AMNE07.jpg,MN,1,num_4,32,num_8,1.28342141362,,,2017_Jun_16_1256,60.0115680968,FEMA4ImagesEEG,001,100707,
AFNE01.JPG,AFNE01.JPG,AFNE01.JPG,AFNE01.JPG,AFNE01.JPG,AFNE01.JPG,,,,,,,,,,,,,3,2,32,1,,,,,,,,,,,AMNE17.jpg,AMSA15.jpg,AMNE14.jpg,AMSA14.jpg,AMNE14.jpg,MN,1,num_2,32,num_4,4.44980417273,,,2017_Jun_16_1256,60.0115680968,FEMA4ImagesEEG,001,100707,
AFNE01.JPG,AFNE01.JPG,AFNE01.JPG,AFNE01.JPG,AFNE01.JPG,AFNE01.JPG,,,,,,,,,,,,,3,3,33,7,,,,,,,,,,,AMSA12.jpg,AMSA01.jpg,AMNE07.jpg,AMNE01.jpg,AMNE07.jpg,MN,1,num_2,16,num_2,2.43337687908,,,2017_Jun_16_1256,60.0115680968,FEMA4ImagesEEG,001,100707,
AFNE01.JPG,AFNE01.JPG,AFNE01.JPG,AFNE01.JPG,AFNE01.JPG,AFNE01.JPG,,,,,,,,,,,,,3,4,34,8,,,,,,,,,,,AMNE10.jpg,AMSA15.jpg,AMNE15.jpg,AMSA03.jpg,AMNE15.jpg,MN,1,num_2,32,num_8,1.16678496602,,,2017_Jun_16_1256,60.0115680968,FEMA4ImagesEEG,001,100707,
AFNE01.JPG,AFNE01.JPG,AFNE01.JPG,AFNE01.JPG,AFNE01.JPG,AFNE01.JPG,,,,,,,,,,,,,3,5,35,5,,,,,,,,,,,AMSA17.jpg,AMNE18.jpg,AMNE11.jpg,AMSA04.jpg,AMSA17.jpg,MS,2,num_8,16,num_8,2.15001448139,,,2017_Jun_16_1256,60.0115680968,FEMA4ImagesEEG,001,100707,
AFNE01.JPG,AFNE01.JPG,AFNE01.JPG,AFNE01.JPG,AFNE01.JPG,AFNE01.JPG,,,,,,,,,,,,,3,6,36,2,,,,,,,,,,,AMSA06.jpg,AMNE15.jpg,AMSA19.jpg,AMNE08.jpg,AMSA06.jpg,MS,2,num_8,32,num_4,4.28322095168,,,2017_Jun_16_1256,60.0115680968,FEMA4ImagesEEG,001,100707,
AFNE01.JPG,AFNE01.JPG,AFNE01.JPG,AFNE01.JPG,AFNE01.JPG,AFNE01.JPG,,,,,,,,,,,,,3,7,37,3,,,,,,,,,,,AMNE08.jpg,AMSA16.jpg,AMSA08.jpg,AMNE06.jpg,AMNE08.jpg,MN,1,num_8,32,num_6,0.900071171927,,,2017_Jun_16_1256,60.0115680968,FEMA4ImagesEEG,001,100707,
AFNE01.JPG,AFNE01.JPG,AFNE01.JPG,AFNE01.JPG,AFNE01.JPG,AFNE01.JPG,,,,,,,,,,,,,3,8,38,6,,,,,,,,,,,AMNE15.jpg,AMSA01.jpg,AMSA15.jpg,AMNE06.jpg,AMSA15.jpg,MS,2,num_2,16,num_2,0.566899277386,,,2017_Jun_16_1256,60.0115680968,FEMA4ImagesEEG,001,100707,
AFNE01.JPG,AFNE01.JPG,AFNE01.JPG,AFNE01.JPG,AFNE01.JPG,AFNE01.JPG,,,,,,,,,,,,,3,9,39,0,,,,,,,,,,,AMNE20.jpg,AMSA07.jpg,AMSA01.jpg,AMNE01.jpg,AMNE01.jpg,MN,1,num_4,16,num_4,1.28339479223,,,2017_Jun_16_1256,60.0115680968,FEMA4ImagesEEG,001,100707,
AFNE01.JPG,AFNE01.JPG,AFNE01.JPG,AFNE01.JPG,AFNE01.JPG,AFNE01.JPG,,,,,,,,,,,,,4,0,40,6,,,,,,,,,,,AMSA17.jpg,AMNE02.jpg,AMSA05.jpg,AMNE07.jpg,AMNE07.jpg,MN,1,num_4,16,num_4,1.6167216039,,,2017_Jun_16_1256,60.0115680968,FEMA4ImagesEEG,001,100707,
AFNE01.JPG,AFNE01.JPG,AFNE01.JPG,AFNE01.JPG,AFNE01.JPG,AFNE01.JPG,,,,,,,,,,,,,4,1,41,0,,,,,,,,,,,AMSA07.jpg,AMNE17.jpg,AMSA01.jpg,AMNE08.jpg,AMSA07.jpg,MS,2,num_8,16,num_8,1.33341661852,,,2017_Jun_16_1256,60.0115680968,FEMA4ImagesEEG,001,100707,
AFNE01.JPG,AFNE01.JPG,AFNE01.JPG,AFNE01.JPG,AFNE01.JPG,AFNE01.JPG,,,,,,,,,,,,,4,2,42,1,,,,,,,,,,,AMNE04.jpg,AMNE03.jpg,AMSA07.jpg,AMSA15.jpg,AMNE03.jpg,MN,1,num_6,16,num_6,1.15011198609,,,2017_Jun_16_1256,60.0115680968,FEMA4ImagesEEG,001,100707,
AFNE01.JPG,AFNE01.JPG,AFNE01.JPG,AFNE01.JPG,AFNE01.JPG,AFNE01.JPG,,,,,,,,,,,,,4,3,43,5,,,,,,,,,,,AMSA05.jpg,AMNE12.jpg,AMSA03.jpg,AMNE04.jpg,AMNE12.jpg,MN,1,num_6,32,num_2,1.70038094174,,,2017_Jun_16_1256,60.0115680968,FEMA4ImagesEEG,001,100707,
AFNE01.JPG,AFNE01.JPG,AFNE01.JPG,AFNE01.JPG,AFNE01.JPG,AFNE01.JPG,,,,,,,,,,,,,4,4,44,8,,,,,,,,,,,AMNE16.jpg,AMSA08.jpg,AMNE06.jpg,AMSA13.jpg,AMNE06.jpg,MN,1,num_2,32,num_8,1.35014027532,,,2017_Jun_16_1256,60.0115680968,FEMA4ImagesEEG,001,100707,
AFNE01.JPG,AFNE01.JPG,AFNE01.JPG,AFNE01.JPG,AFNE01.JPG,AFNE01.JPG,,,,,,,,,,,,,4,5,45,2,,,,,,,,,,,AMNE18.jpg,AMNE20.jpg,AMSA20.jpg,AMSA19.jpg,AMNE18.jpg,MN,1,num_8,32,num_4,1.15016971901,,,2017_Jun_16_1256,60.0115680968,FEMA4ImagesEEG,001,100707,
AFNE01.JPG,AFNE01.JPG,AFNE01.JPG,AFNE01.JPG,AFNE01.JPG,AFNE01.JPG,,,,,,,,,,,,,4,6,46,7,,,,,,,,,,,AMSA05.jpg,AMSA19.jpg,AMNE06.jpg,AMNE17.jpg,AMNE06.jpg,MN,1,num_2,32,num_6,1.38344357675,,,2017_Jun_16_1256,60.0115680968,FEMA4ImagesEEG,001,100707,
AFNE01.JPG,AFNE01.JPG,AFNE01.JPG,AFNE01.JPG,AFNE01.JPG,AFNE01.JPG,,,,,,,,,,,,,4,7,47,4,,,,,,,,,,,AMNE03.jpg,AMNE18.jpg,AMSA10.jpg,AMSA06.jpg,AMSA06.jpg,MS,2,num_4,32,num_8,1.31669745222,,,2017_Jun_16_1256,60.0115680968,FEMA4ImagesEEG,001,100707,
AFNE01.JPG,AFNE01.JPG,AFNE01.JPG,AFNE01.JPG,AFNE01.JPG,AFNE01.JPG,,,,,,,,,,,,,4,8,48,3,,,,,,,,,,,AMNE07.jpg,AMSA20.jpg,AMNE09.jpg,AMSA10.jpg,AMSA10.jpg,MS,2,num_4,32,num_8,1.30009471427,,,2017_Jun_16_1256,60.0115680968,FEMA4ImagesEEG,001,100707,
AFNE01.JPG,AFNE01.JPG,AFNE01.JPG,AFNE01.JPG,AFNE01.JPG,AFNE01.JPG,,,,,,,,,,,,,4,9,49,9,,,,,,,,,,,AMNE01.jpg,AMNE05.jpg,AMSA18.jpg,AMSA06.jpg,AMSA06.jpg,MS,2,num_4,16,num_4,1.98334883037,,,2017_Jun_16_1256,60.0115680968,FEMA4ImagesEEG,001,100707,
AFNE01.JPG,AFNE01.JPG,AFNE01.JPG,AFNE01.JPG,AFNE01.JPG,AFNE01.JPG,,,,,,,,,,,,,5,0,50,2,,,,,,,,,,,AMSA17.jpg,AMNE02.jpg,AMNE08.jpg,AMSA11.jpg,AMSA11.jpg,MS,2,num_4,16,num_4,2.03338701441,,,2017_Jun_16_1256,60.0115680968,FEMA4ImagesEEG,001,100707,
AFNE01.JPG,AFNE01.JPG,AFNE01.JPG,AFNE01.JPG,AFNE01.JPG,AFNE01.JPG,,,,,,,,,,,,,5,1,51,8,,,,,,,,,,,AMNE14.jpg,AMSA04.jpg,AMSA03.jpg,AMNE19.jpg,AMSA03.jpg,MS,2,num_2,16,num_2,1.23345218855,,,2017_Jun_16_1256,60.0115680968,FEMA4ImagesEEG,001,100707,
AFNE01.JPG,AFNE01.JPG,AFNE01.JPG,AFNE01.JPG,AFNE01.JPG,AFNE01.JPG,,,,,,,,,,,,,5,2,52,9,,,,,,,,,,,AMNE16.jpg,AMSA16.jpg,AMNE15.jpg,AMSA02.jpg,AMNE15.jpg,MN,1,num_2,32,num_8,1.15009915654,,,2017_Jun_16_1256,60.0115680968,FEMA4ImagesEEG,001,100707,
AFNE01.JPG,AFNE01.JPG,AFNE01.JPG,AFNE01.JPG,AFNE01.JPG,AFNE01.JPG,,,,,,,,,,,,,5,3,53,1,,,,,,,,,,,AMNE18.jpg,AMNE06.jpg,AMSA01.jpg,AMSA06.jpg,AMNE06.jpg,MN,1,num_6,32,num_4,3.24992117833,,,2017_Jun_16_1256,60.0115680968,FEMA4ImagesEEG,001,100707,
AFNE01.JPG,AFNE01.JPG,AFNE01.JPG,AFNE01.JPG,AFNE01.JPG,AFNE01.JPG,,,,,,,,,,,,,5,4,54,3,,,,,,,,,,,AMNE17.jpg,AMNE02.jpg,AMSA04.jpg,AMSA06.jpg,AMSA06.jpg,MS,2,num_4,32,num_2,3.61655802699,,,2017_Jun_16_1256,60.0115680968,FEMA4ImagesEEG,001,100707,
AFNE01.JPG,AFNE01.JPG,AFNE01.JPG,AFNE01.JPG,AFNE01.JPG,AFNE01.JPG,,,,,,,,,,,,,5,5,55,7,,,,,,,,,,,AMNE01.jpg,AMSA01.jpg,AMNE11.jpg,AMSA03.jpg,AMSA01.jpg,MS,2,num_6,32,num_8,1.43349202443,,,2017_Jun_16_1256,60.0115680968,FEMA4ImagesEEG,001,100707,
AFNE01.JPG,AFNE01.JPG,AFNE01.JPG,AFNE01.JPG,AFNE01.JPG,AFNE01.JPG,,,,,,,,,,,,,5,6,56,0,,,,,,,,,,,AMNE12.jpg,AMSA09.jpg,AMNE20.jpg,AMSA11.jpg,AMNE12.jpg,MN,1,num_8,32,num_6,1.1334540809,,,2017_Jun_16_1256,60.0115680968,FEMA4ImagesEEG,001,100707,
AFNE01.JPG,AFNE01.JPG,AFNE01.JPG,AFNE01.JPG,AFNE01.JPG,AFNE01.JPG,,,,,,,,,,,,,5,7,57,5,,,,,,,,,,,AMSA20.jpg,AMNE09.jpg,AMSA15.jpg,AMNE14.jpg,AMNE14.jpg,MN,1,num_4,32,num_2,1.7833917453,,,2017_Jun_16_1256,60.0115680968,FEMA4ImagesEEG,001,100707,
AFNE01.JPG,AFNE01.JPG,AFNE01.JPG,AFNE01.JPG,AFNE01.JPG,AFNE01.JPG,,,,,,,,,,,,,5,8,58,6,,,,,,,,,,,AMNE08.jpg,AMSA05.jpg,AMSA15.jpg,AMNE02.jpg,AMNE08.jpg,MN,1,num_8,16,num_8,1.04995286732,,,2017_Jun_16_1256,60.0115680968,FEMA4ImagesEEG,001,100707,
AFNE01.JPG,AFNE01.JPG,AFNE01.JPG,AFNE01.JPG,AFNE01.JPG,AFNE01.JPG,,,,,,,,,,,,,5,9,59,4,,,,,,,,,,,AMSA05.jpg,AMNE18.jpg,AMNE10.jpg,AMSA17.jpg,AMSA17.jpg,MS,2,num_4,32,num_2,4.01622394519,,,2017_Jun_16_1256,60.0115680968,FEMA4ImagesEEG,001,100707,
,,,,,,,,,,,,,,,,,,,,,,,,,,,,,,,,,,,,,,,,,,,space,128.173550316,2017_Jun_16_1256,60.0115680968,FEMA4ImagesEEG,001,100707,
AFNE01.JPG,AFNE01.JPG,AFNE01.JPG,AFNE01.JPG,AFNE01.JPG,AFNE01.JPG,,,,,,,,,,,,,,,,,0,0,0,2,,,,,,,AFNE18.jpg,AFSA05.jpg,AFSA11.jpg,AFNE20.jpg,AFSA05.jpg,FS,4,num_6,32,num_2,0.966739036143,,,2017_Jun_16_1256,60.0115680968,FEMA4ImagesEEG,001,100707,
AFNE01.JPG,AFNE01.JPG,AFNE01.JPG,AFNE01.JPG,AFNE01.JPG,AFNE01.JPG,,,,,,,,,,,,,,,,,0,1,1,6,,,,,,,AFSA13.jpg,AFNE11.jpg,AFNE18.jpg,AFSA08.jpg,AFSA08.jpg,FS,4,num_4,16,num_4,1.06672142749,,,2017_Jun_16_1256,60.0115680968,FEMA4ImagesEEG,001,100707,
AFNE01.JPG,AFNE01.JPG,AFNE01.JPG,AFNE01.JPG,AFNE01.JPG,AFNE01.JPG,,,,,,,,,,,,,,,,,0,2,2,7,,,,,,,AFSA05.jpg,AFSA18.jpg,AFNE14.jpg,AFNE20.jpg,AFNE14.jpg,FN,3,num_2,32,num_4,0.983422279707,,,2017_Jun_16_1256,60.0115680968,FEMA4ImagesEEG,001,100707,
AFNE01.JPG,AFNE01.JPG,AFNE01.JPG,AFNE01.JPG,AFNE01.JPG,AFNE01.JPG,,,,,,,,,,,,,,,,,0,3,3,5,,,,,,,AFNE09.jpg,AFSA05.jpg,AFNE08.jpg,AFSA04.jpg,AFSA05.jpg,FS,4,num_6,32,num_8,1.15009594907,,,2017_Jun_16_1256,60.0115680968,FEMA4ImagesEEG,001,100707,
AFNE01.JPG,AFNE01.JPG,AFNE01.JPG,AFNE01.JPG,AFNE01.JPG,AFNE01.JPG,,,,,,,,,,,,,,,,,0,4,4,0,,,,,,,AFNE05.jpg,AFSA08.jpg,AFSA12.jpg,AFNE19.jpg,AFSA12.jpg,FS,4,num_2,32,num_6,1.53339775908,,,2017_Jun_16_1256,60.0115680968,FEMA4ImagesEEG,001,100707,
AFNE01.JPG,AFNE01.JPG,AFNE01.JPG,AFNE01.JPG,AFNE01.JPG,AFNE01.JPG,,,,,,,,,,,,,,,,,0,5,5,8,,,,,,,AFSA15.jpg,AFSA19.jpg,AFNE02.jpg,AFNE10.jpg,AFSA15.jpg,FS,4,num_8,16,num_8,1.70009965368,,,2017_Jun_16_1256,60.0115680968,FEMA4ImagesEEG,001,100707,
AFNE01.JPG,AFNE01.JPG,AFNE01.JPG,AFNE01.JPG,AFNE01.JPG,AFNE01.JPG,,,,,,,,,,,,,,,,,0,6,6,4,,,,,,,AFSA18.jpg,AFSA03.jpg,AFNE01.jpg,AFNE03.jpg,AFNE03.jpg,FN,3,num_4,16,num_4,1.43386889272,,,2017_Jun_16_1256,60.0115680968,FEMA4ImagesEEG,001,100707,
AFNE01.JPG,AFNE01.JPG,AFNE01.JPG,AFNE01.JPG,AFNE01.JPG,AFNE01.JPG,,,,,,,,,,,,,,,,,0,7,7,3,,,,,,,AFNE19.jpg,AFSA17.jpg,AFSA19.jpg,AFNE14.jpg,AFSA17.jpg,FS,4,num_6,16,num_6,1.2001062287,,,2017_Jun_16_1256,60.0115680968,FEMA4ImagesEEG,001,100707,
AFNE01.JPG,AFNE01.JPG,AFNE01.JPG,AFNE01.JPG,AFNE01.JPG,AFNE01.JPG,,,,,,,,,,,,,,,,,0,8,8,1,,,,,,,AFSA13.jpg,AFSA10.jpg,AFNE13.jpg,AFNE01.jpg,AFNE01.jpg,FN,3,num_4,16,num_4,1.61683995661,,,2017_Jun_16_1256,60.0115680968,FEMA4ImagesEEG,001,100707,
AFNE01.JPG,AFNE01.JPG,AFNE01.JPG,AFNE01.JPG,AFNE01.JPG,AFNE01.JPG,,,,,,,,,,,,,,,,,0,9,9,9,,,,,,,AFNE02.jpg,AFNE11.jpg,AFSA02.jpg,AFSA16.jpg,AFSA02.jpg,FS,4,num_2,16,num_2,1.31669841451,,,2017_Jun_16_1256,60.0115680968,FEMA4ImagesEEG,001,100707,
AFNE01.JPG,AFNE01.JPG,AFNE01.JPG,AFNE01.JPG,AFNE01.JPG,AFNE01.JPG,,,,,,,,,,,,,,,,,1,0,10,7,,,,,,,AFSA18.jpg,AFNE11.jpg,AFNE09.jpg,AFSA12.jpg,AFNE09.jpg,FN,3,num_2,32,num_8,1.13340115896,,,2017_Jun_16_1256,60.0115680968,FEMA4ImagesEEG,001,100707,
AFNE01.JPG,AFNE01.JPG,AFNE01.JPG,AFNE01.JPG,AFNE01.JPG,AFNE01.JPG,,,,,,,,,,,,,,,,,1,1,11,2,,,,,,,AFSA17.jpg,AFNE12.jpg,AFSA20.jpg,AFNE09.jpg,AFNE09.jpg,FN,3,num_4,16,num_4,1.36669458169,,,2017_Jun_16_1256,60.0115680968,FEMA4ImagesEEG,001,100707,
AFNE01.JPG,AFNE01.JPG,AFNE01.JPG,AFNE01.JPG,AFNE01.JPG,AFNE01.JPG,,,,,,,,,,,,,,,,,1,2,12,9,,,,,,,AFNE13.jpg,AFSA03.jpg,AFSA10.jpg,AFNE14.jpg,AFSA03.jpg,FS,4,num_6,32,num_8,1.48339068692,,,2017_Jun_16_1256,60.0115680968,FEMA4ImagesEEG,001,100707,
AFNE01.JPG,AFNE01.JPG,AFNE01.JPG,AFNE01.JPG,AFNE01.JPG,AFNE01.JPG,,,,,,,,,,,,,,,,,1,3,13,4,,,,,,,AFSA18.jpg,AFNE12.jpg,AFNE19.jpg,AFSA17.jpg,AFNE12.jpg,FN,3,num_6,16,num_6,1.41673565237,,,2017_Jun_16_1256,60.0115680968,FEMA4ImagesEEG,001,100707,
AFNE01.JPG,AFNE01.JPG,AFNE01.JPG,AFNE01.JPG,AFNE01.JPG,AFNE01.JPG,,,,,,,,,,,,,,,,,1,4,14,6,,,,,,,AFSA02.jpg,AFSA04.jpg,AFNE08.jpg,AFNE10.jpg,AFNE10.jpg,FN,3,num_4,16,num_4,1.21642928233,,,2017_Jun_16_1256,60.0115680968,FEMA4ImagesEEG,001,100707,
AFNE01.JPG,AFNE01.JPG,AFNE01.JPG,AFNE01.JPG,AFNE01.JPG,AFNE01.JPG,,,,,,,,,,,,,,,,,1,5,15,5,,,,,,,AFNE04.jpg,AFNE18.jpg,AFSA19.jpg,AFSA20.jpg,AFSA20.jpg,FS,4,num_4,32,num_2,1.21677086945,,,2017_Jun_16_1256,60.0115680968,FEMA4ImagesEEG,001,100707,
AFNE01.JPG,AFNE01.JPG,AFNE01.JPG,AFNE01.JPG,AFNE01.JPG,AFNE01.JPG,,,,,,,,,,,,,,,,,1,6,16,1,,,,,,,AFSA19.jpg,AFNE09.jpg,AFSA13.jpg,AFNE15.jpg,AFSA19.jpg,FS,4,num_8,16,num_8,1.53343432338,,,2017_Jun_16_1256,60.0115680968,FEMA4ImagesEEG,001,100707,
AFNE01.JPG,AFNE01.JPG,AFNE01.JPG,AFNE01.JPG,AFNE01.JPG,AFNE01.JPG,,,,,,,,,,,,,,,,,1,7,17,3,,,,,,,AFSA09.jpg,AFSA10.jpg,AFNE15.jpg,AFNE01.jpg,AFSA10.jpg,FS,4,num_6,16,num_6,2.1167265753,,,2017_Jun_16_1256,60.0115680968,FEMA4ImagesEEG,001,100707,
AFNE01.JPG,AFNE01.JPG,AFNE01.JPG,AFNE01.JPG,AFNE01.JPG,AFNE01.JPG,,,,,,,,,,,,,,,,,1,8,18,8,,,,,,,AFSA05.jpg,AFSA03.jpg,AFNE09.jpg,AFNE05.jpg,AFSA03.jpg,FS,4,num_6,32,num_8,1.3833980317,,,2017_Jun_16_1256,60.0115680968,FEMA4ImagesEEG,001,100707,
AFNE01.JPG,AFNE01.JPG,AFNE01.JPG,AFNE01.JPG,AFNE01.JPG,AFNE01.JPG,,,,,,,,,,,,,,,,,1,9,19,0,,,,,,,AFNE11.jpg,AFSA09.jpg,AFSA02.jpg,AFNE09.jpg,AFNE09.jpg,FN,3,num_4,32,num_6,1.18346307764,,,2017_Jun_16_1256,60.0115680968,FEMA4ImagesEEG,001,100707,
AFNE01.JPG,AFNE01.JPG,AFNE01.JPG,AFNE01.JPG,AFNE01.JPG,AFNE01.JPG,,,,,,,,,,,,,,,,,2,0,20,8,,,,,,,AFNE05.jpg,AFSA03.jpg,AFSA20.jpg,AFNE16.jpg,AFNE16.jpg,FN,3,num_4,16,num_4,1.18345313473,,,2017_Jun_16_1256,60.0115680968,FEMA4ImagesEEG,001,100707,
AFNE01.JPG,AFNE01.JPG,AFNE01.JPG,AFNE01.JPG,AFNE01.JPG,AFNE01.JPG,,,,,,,,,,,,,,,,,2,1,21,3,,,,,,,AFSA13.jpg,AFNE01.jpg,AFSA17.jpg,AFNE07.jpg,AFNE07.jpg,FN,3,num_4,16,num_4,1.21672211715,,,2017_Jun_16_1256,60.0115680968,FEMA4ImagesEEG,001,100707,
AFNE01.JPG,AFNE01.JPG,AFNE01.JPG,AFNE01.JPG,AFNE01.JPG,AFNE01.JPG,,,,,,,,,,,,,,,,,2,2,22,0,,,,,,,AFNE14.jpg,AFSA15.jpg,AFSA05.jpg,AFNE16.jpg,AFSA05.jpg,FS,4,num_2,32,num_4,1.41670133325,,,2017_Jun_16_1256,60.0115680968,FEMA4ImagesEEG,001,100707,
AFNE01.JPG,AFNE01.JPG,AFNE01.JPG,AFNE01.JPG,AFNE01.JPG,AFNE01.JPG,,,,,,,,,,,,,,,,,2,3,23,1,,,,,,,AFNE06.jpg,AFSA07.jpg,AFSA19.jpg,AFNE08.jpg,AFNE06.jpg,FN,3,num_8,16,num_8,1.75003391819,,,2017_Jun_16_1256,60.0115680968,FEMA4ImagesEEG,001,100707,
AFNE01.JPG,AFNE01.JPG,AFNE01.JPG,AFNE01.JPG,AFNE01.JPG,AFNE01.JPG,,,,,,,,,,,,,,,,,2,4,24,6,,,,,,,AFNE09.jpg,AFSA09.jpg,AFNE02.jpg,AFSA18.jpg,AFSA09.jpg,FS,4,num_6,32,num_4,1.56644286565,,,2017_Jun_16_1256,60.0115680968,FEMA4ImagesEEG,001,100707,
AFNE01.JPG,AFNE01.JPG,AFNE01.JPG,AFNE01.JPG,AFNE01.JPG,AFNE01.JPG,,,,,,,,,,,,,,,,,2,5,25,9,,,,,,,AFSA16.jpg,AFNE01.jpg,AFSA19.jpg,AFNE09.jpg,AFNE01.jpg,FN,3,num_6,32,num_4,1.73337761674,,,2017_Jun_16_1256,60.0115680968,FEMA4ImagesEEG,001,100707,
AFNE01.JPG,AFNE01.JPG,AFNE01.JPG,AFNE01.JPG,AFNE01.JPG,AFNE01.JPG,,,,,,,,,,,,,,,,,2,6,26,5,,,,,,,AFNE06.jpg,AFSA14.jpg,AFNE01.jpg,AFSA04.jpg,AFNE01.jpg,FN,3,num_2,16,num_2,1.23344032117,,,2017_Jun_16_1256,60.0115680968,FEMA4ImagesEEG,001,100707,
AFNE01.JPG,AFNE01.JPG,AFNE01.JPG,AFNE01.JPG,AFNE01.JPG,AFNE01.JPG,,,,,,,,,,,,,,,,,2,7,27,4,,,,,,,AFNE06.jpg,AFNE18.jpg,AFSA06.jpg,AFSA05.jpg,AFNE06.jpg,FN,3,num_8,32,num_4,1.550049891,,,2017_Jun_16_1256,60.0115680968,FEMA4ImagesEEG,001,100707,
AFNE01.JPG,AFNE01.JPG,AFNE01.JPG,AFNE01.JPG,AFNE01.JPG,AFNE01.JPG,,,,,,,,,,,,,,,,,2,8,28,2,,,,,,,AFNE08.jpg,AFSA20.jpg,AFSA13.jpg,AFNE20.jpg,AFSA13.jpg,FS,4,num_2,16,num_2,1.25008122716,,,2017_Jun_16_1256,60.0115680968,FEMA4ImagesEEG,001,100707,
AFNE01.JPG,AFNE01.JPG,AFNE01.JPG,AFNE01.JPG,AFNE01.JPG,AFNE01.JPG,,,,,,,,,,,,,,,,,2,9,29,7,,,,,,,AFNE11.jpg,AFSA02.jpg,AFSA13.jpg,AFNE10.jpg,AFNE10.jpg,FN,3,num_4,16,num_4,1.16684558557,,,2017_Jun_16_1256,60.0115680968,FEMA4ImagesEEG,001,100707,
AFNE01.JPG,AFNE01.JPG,AFNE01.JPG,AFNE01.JPG,AFNE01.JPG,AFNE01.JPG,,,,,,,,,,,,,,,,,3,0,30,3,,,,,,,AFSA16.jpg,AFNE11.jpg,AFNE15.jpg,AFSA06.jpg,AFNE11.jpg,FN,3,num_6,32,num_4,1.18328025646,,,2017_Jun_16_1256,60.0115680968,FEMA4ImagesEEG,001,100707,
AFNE01.JPG,AFNE01.JPG,AFNE01.JPG,AFNE01.JPG,AFNE01.JPG,AFNE01.JPG,,,,,,,,,,,,,,,,,3,1,31,1,,,,,,,AFNE04.jpg,AFSA20.jpg,AFNE08.jpg,AFSA01.jpg,AFSA20.jpg,FS,4,num_6,32,num_4,1.10015879793,,,2017_Jun_16_1256,60.0115680968,FEMA4ImagesEEG,001,100707,
AFNE01.JPG,AFNE01.JPG,AFNE01.JPG,AFNE01.JPG,AFNE01.JPG,AFNE01.JPG,,,,,,,,,,,,,,,,,3,2,32,4,,,,,,,AFNE07.jpg,AFSA13.jpg,AFSA03.jpg,AFNE05.jpg,AFSA03.jpg,FS,4,num_2,16,num_2,1.56673602108,,,2017_Jun_16_1256,60.0115680968,FEMA4ImagesEEG,001,100707,
AFNE01.JPG,AFNE01.JPG,AFNE01.JPG,AFNE01.JPG,AFNE01.JPG,AFNE01.JPG,,,,,,,,,,,,,,,,,3,3,33,7,,,,,,,AFNE03.jpg,AFSA19.jpg,AFNE06.jpg,AFSA17.jpg,AFSA17.jpg,FS,4,num_4,16,num_4,1.56671805982,,,2017_Jun_16_1256,60.0115680968,FEMA4ImagesEEG,001,100707,
AFNE01.JPG,AFNE01.JPG,AFNE01.JPG,AFNE01.JPG,AFNE01.JPG,AFNE01.JPG,,,,,,,,,,,,,,,,,3,4,34,6,,,,,,,AFSA10.jpg,AFSA14.jpg,AFNE15.jpg,AFNE07.jpg,AFNE07.jpg,FN,3,num_4,16,num_4,1.88302902144,,,2017_Jun_16_1256,60.0115680968,FEMA4ImagesEEG,001,100707,
AFNE01.JPG,AFNE01.JPG,AFNE01.JPG,AFNE01.JPG,AFNE01.JPG,AFNE01.JPG,,,,,,,,,,,,,,,,,3,5,35,2,,,,,,,AFNE14.jpg,AFNE08.jpg,AFSA11.jpg,AFSA20.jpg,AFNE14.jpg,FN,3,num_8,16,num_8,1.16676219355,,,2017_Jun_16_1256,60.0115680968,FEMA4ImagesEEG,001,100707,
AFNE01.JPG,AFNE01.JPG,AFNE01.JPG,AFNE01.JPG,AFNE01.JPG,AFNE01.JPG,,,,,,,,,,,,,,,,,3,6,36,5,,,,,,,AFSA09.jpg,AFNE15.jpg,AFSA05.jpg,AFNE11.jpg,AFSA05.jpg,FS,4,num_2,32,num_4,0.900050644646,,,2017_Jun_16_1256,60.0115680968,FEMA4ImagesEEG,001,100707,
AFNE01.JPG,AFNE01.JPG,AFNE01.JPG,AFNE01.JPG,AFNE01.JPG,AFNE01.JPG,,,,,,,,,,,,,,,,,3,7,37,8,,,,,,,AFSA07.jpg,AFNE17.jpg,AFNE08.jpg,AFSA02.jpg,AFSA07.jpg,FS,4,num_8,32,num_4,3.04450351023,,,2017_Jun_16_1256,60.0115680968,FEMA4ImagesEEG,001,100707,
AFNE01.JPG,AFNE01.JPG,AFNE01.JPG,AFNE01.JPG,AFNE01.JPG,AFNE01.JPG,,,,,,,,,,,,,,,,,3,8,38,0,,,,,,,AFNE10.jpg,AFNE05.jpg,AFSA12.jpg,AFSA13.jpg,AFSA12.jpg,FS,4,num_2,16,num_2,1.23341145471,,,2017_Jun_16_1256,60.0115680968,FEMA4ImagesEEG,001,100707,
AFNE01.JPG,AFNE01.JPG,AFNE01.JPG,AFNE01.JPG,AFNE01.JPG,AFNE01.JPG,,,,,,,,,,,,,,,,,3,9,39,9,,,,,,,AFNE18.jpg,AFSA06.jpg,AFSA05.jpg,AFNE09.jpg,AFSA05.jpg,FS,4,num_2,32,num_8,1.86671270337,,,2017_Jun_16_1256,60.0115680968,FEMA4ImagesEEG,001,100707,
AFNE01.JPG,AFNE01.JPG,AFNE01.JPG,AFNE01.JPG,AFNE01.JPG,AFNE01.JPG,,,,,,,,,,,,,,,,,4,0,40,3,,,,,,,AFNE16.jpg,AFSA06.jpg,AFSA03.jpg,AFNE10.jpg,AFSA06.jpg,FS,4,num_6,16,num_6,1.51673408074,,,2017_Jun_16_1256,60.0115680968,FEMA4ImagesEEG,001,100707,
AFNE01.JPG,AFNE01.JPG,AFNE01.JPG,AFNE01.JPG,AFNE01.JPG,AFNE01.JPG,,,,,,,,,,,,,,,,,4,1,41,4,,,,,,,AFSA04.jpg,AFNE10.jpg,AFNE14.jpg,AFSA18.jpg,AFSA18.jpg,FS,4,num_4,16,num_4,1.23345315072,,,2017_Jun_16_1256,60.0115680968,FEMA4ImagesEEG,001,100707,
AFNE01.JPG,AFNE01.JPG,AFNE01.JPG,AFNE01.JPG,AFNE01.JPG,AFNE01.JPG,,,,,,,,,,,,,,,,,4,2,42,0,,,,,,,AFNE01.jpg,AFSA10.jpg,AFNE03.jpg,AFSA14.jpg,AFSA14.jpg,FS,4,num_4,32,num_2,1.28341660253,,,2017_Jun_16_1256,60.0115680968,FEMA4ImagesEEG,001,100707,
AFNE01.JPG,AFNE01.JPG,AFNE01.JPG,AFNE01.JPG,AFNE01.JPG,AFNE01.JPG,,,,,,,,,,,,,,,,,4,3,43,1,,,,,,,AFNE06.jpg,AFSA16.jpg,AFNE08.jpg,AFSA13.jpg,AFSA16.jpg,FS,4,num_6,32,num_4,1.81673321465,,,2017_Jun_16_1256,60.0115680968,FEMA4ImagesEEG,001,100707,
AFNE01.JPG,AFNE01.JPG,AFNE01.JPG,AFNE01.JPG,AFNE01.JPG,AFNE01.JPG,,,,,,,,,,,,,,,,,4,4,44,7,,,,,,,AFNE13.jpg,AFNE11.jpg,AFSA07.jpg,AFSA19.jpg,AFNE11.jpg,FN,3,num_6,32,num_8,1.83306172071,,,2017_Jun_16_1256,60.0115680968,FEMA4ImagesEEG,001,100707,
AFNE01.JPG,AFNE01.JPG,AFNE01.JPG,AFNE01.JPG,AFNE01.JPG,AFNE01.JPG,,,,,,,,,,,,,,,,,4,5,45,9,,,,,,,AFNE18.jpg,AFSA18.jpg,AFSA04.jpg,AFNE07.jpg,AFSA04.jpg,FS,4,num_2,32,num_4,0.983471994172,,,2017_Jun_16_1256,60.0115680968,FEMA4ImagesEEG,001,100707,
AFNE01.JPG,AFNE01.JPG,AFNE01.JPG,AFNE01.JPG,AFNE01.JPG,AFNE01.JPG,,,,,,,,,,,,,,,,,4,6,46,6,,,,,,,AFNE07.jpg,AFNE01.jpg,AFSA06.jpg,AFSA02.jpg,AFNE07.jpg,FN,3,num_8,16,num_8,1.1667275537,,,2017_Jun_16_1256,60.0115680968,FEMA4ImagesEEG,001,100707,
AFNE01.JPG,AFNE01.JPG,AFNE01.JPG,AFNE01.JPG,AFNE01.JPG,AFNE01.JPG,,,,,,,,,,,,,,,,,4,7,47,5,,,,,,,AFSA11.jpg,AFNE13.jpg,AFNE02.jpg,AFSA13.jpg,AFNE02.jpg,FN,3,num_2,16,num_2,1.73342187877,,,2017_Jun_16_1256,60.0115680968,FEMA4ImagesEEG,001,100707,
AFNE01.JPG,AFNE01.JPG,AFNE01.JPG,AFNE01.JPG,AFNE01.JPG,AFNE01.JPG,,,,,,,,,,,,,,,,,4,8,48,2,,,,,,,AFSA10.jpg,AFSA08.jpg,AFNE08.jpg,AFNE06.jpg,AFNE06.jpg,FN,3,num_4,32,num_6,0.816734176828,,,2017_Jun_16_1256,60.0115680968,FEMA4ImagesEEG,001,100707,
AFNE01.JPG,AFNE01.JPG,AFNE01.JPG,AFNE01.JPG,AFNE01.JPG,AFNE01.JPG,,,,,,,,,,,,,,,,,4,9,49,8,,,,,,,AFNE19.jpg,AFSA17.jpg,AFNE15.jpg,AFSA15.jpg,AFSA15.jpg,FS,4,num_4,16,num_4,0.650121127022,,,2017_Jun_16_1256,60.0115680968,FEMA4ImagesEEG,001,100707,
AFNE01.JPG,AFNE01.JPG,AFNE01.JPG,AFNE01.JPG,AFNE01.JPG,AFNE01.JPG,,,,,,,,,,,,,,,,,5,0,50,6,,,,,,,AFNE12.jpg,AFNE11.jpg,AFSA12.jpg,AFSA07.jpg,AFSA07.jpg,FS,4,num_4,32,num_8,1.60005664243,,,2017_Jun_16_1256,60.0115680968,FEMA4ImagesEEG,001,100707,
AFNE01.JPG,AFNE01.JPG,AFNE01.JPG,AFNE01.JPG,AFNE01.JPG,AFNE01.JPG,,,,,,,,,,,,,,,,,5,1,51,7,,,,,,,AFSA18.jpg,AFNE20.jpg,AFSA09.jpg,AFNE07.jpg,AFSA18.jpg,FS,4,num_8,16,num_8,1.23346694256,,,2017_Jun_16_1256,60.0115680968,FEMA4ImagesEEG,001,100707,
AFNE01.JPG,AFNE01.JPG,AFNE01.JPG,AFNE01.JPG,AFNE01.JPG,AFNE01.JPG,,,,,,,,,,,,,,,,,5,2,52,0,,,,,,,AFSA18.jpg,AFNE09.jpg,AFNE17.jpg,AFSA04.jpg,AFNE17.jpg,FN,3,num_2,32,num_8,1.33345510729,,,2017_Jun_16_1256,60.0115680968,FEMA4ImagesEEG,001,100707,
AFNE01.JPG,AFNE01.JPG,AFNE01.JPG,AFNE01.JPG,AFNE01.JPG,AFNE01.JPG,,,,,,,,,,,,,,,,,5,3,53,2,,,,,,,AFNE05.jpg,AFNE04.jpg,AFSA02.jpg,AFSA01.jpg,AFNE04.jpg,FN,3,num_6,16,num_6,1.10004301101,,,2017_Jun_16_1256,60.0115680968,FEMA4ImagesEEG,001,100707,
AFNE01.JPG,AFNE01.JPG,AFNE01.JPG,AFNE01.JPG,AFNE01.JPG,AFNE01.JPG,,,,,,,,,,,,,,,,,5,4,54,5,,,,,,,AFSA12.jpg,AFNE04.jpg,AFSA11.jpg,AFNE19.jpg,AFNE04.jpg,FN,3,num_6,16,num_6,1.20011007763,,,2017_Jun_16_1256,60.0115680968,FEMA4ImagesEEG,001,100707,
AFNE01.JPG,AFNE01.JPG,AFNE01.JPG,AFNE01.JPG,AFNE01.JPG,AFNE01.JPG,,,,,,,,,,,,,,,,,5,5,55,8,,,,,,,AFNE18.jpg,AFSA01.jpg,AFNE02.jpg,AFSA07.jpg,AFSA01.jpg,FS,4,num_6,32,num_2,1.20014054794,,,2017_Jun_16_1256,60.0115680968,FEMA4ImagesEEG,001,100707,
AFNE01.JPG,AFNE01.JPG,AFNE01.JPG,AFNE01.JPG,AFNE01.JPG,AFNE01.JPG,,,,,,,,,,,,,,,,,5,6,56,9,,,,,,,AFSA20.jpg,AFSA09.jpg,AFNE04.jpg,AFNE08.jpg,AFSA09.jpg,FS,4,num_6,16,num_6,3.76666327752,,,2017_Jun_16_1256,60.0115680968,FEMA4ImagesEEG,001,100707,
AFNE01.JPG,AFNE01.JPG,AFNE01.JPG,AFNE01.JPG,AFNE01.JPG,AFNE01.JPG,,,,,,,,,,,,,,,,,5,7,57,3,,,,,,,AFNE02.jpg,AFNE12.jpg,AFSA05.jpg,AFSA08.jpg,AFSA05.jpg,FS,4,num_2,32,num_4,1.31671284779,,,2017_Jun_16_1256,60.0115680968,FEMA4ImagesEEG,001,100707,
AFNE01.JPG,AFNE01.JPG,AFNE01.JPG,AFNE01.JPG,AFNE01.JPG,AFNE01.JPG,,,,,,,,,,,,,,,,,5,8,58,4,,,,,,,AFSA09.jpg,AFNE14.jpg,AFNE07.jpg,AFSA01.jpg,AFNE14.jpg,FN,3,num_6,32,num_2,1.28384158178,,,2017_Jun_16_1256,60.0115680968,FEMA4ImagesEEG,001,100707,
AFNE01.JPG,AFNE01.JPG,AFNE01.JPG,AFNE01.JPG,AFNE01.JPG,AFNE01.JPG,,,,,,,,,,,,,,,,,5,9,59,1,,,,,,,AFNE03.jpg,AFNE17.jpg,AFSA17.jpg,AFSA20.jpg,AFNE17.jpg,FN,3,num_6,16,num_6,1.75010223559,,,2017_Jun_16_1256,60.0115680968,FEMA4ImagesEEG,001,100707,
,,,,,,,,,,,,,,,,,,,,,,,,,,,,,,,,,,,,,,,,,,,space,2.6498000673,2017_Jun_16_1256,60.0115680968,FEMA4ImagesEEG,001,100707,
AFNE01.JPG,AFNE01.JPG,AFNE01.JPG,AFNE01.JPG,AFNE01.JPG,AFNE01.JPG,,,,,,,,,,,,,,,,,,,,,0,0,0,8,,,AMNE10.jpg,AMSA16.jpg,AMSA09.jpg,AMNE01.jpg,AMNE10.jpg,MN,1,num_8,16,num_8,1.16678400373,,,2017_Jun_16_1256,60.0115680968,FEMA4ImagesEEG,001,100707,
AFNE01.JPG,AFNE01.JPG,AFNE01.JPG,AFNE01.JPG,AFNE01.JPG,AFNE01.JPG,,,,,,,,,,,,,,,,,,,,,0,1,1,6,,,AMNE03.jpg,AMSA13.jpg,AMSA06.jpg,AMNE07.jpg,AMSA06.jpg,MS,2,num_2,16,num_2,1.30005814997,,,2017_Jun_16_1256,60.0115680968,FEMA4ImagesEEG,001,100707,
AFNE01.JPG,AFNE01.JPG,AFNE01.JPG,AFNE01.JPG,AFNE01.JPG,AFNE01.JPG,,,,,,,,,,,,,,,,,,,,,0,2,2,5,,,AMNE06.jpg,AMNE12.jpg,AMSA15.jpg,AMSA11.jpg,AMSA11.jpg,MS,2,num_4,16,num_4,0.750117310323,,,2017_Jun_16_1256,60.0115680968,FEMA4ImagesEEG,001,100707,
AFNE01.JPG,AFNE01.JPG,AFNE01.JPG,AFNE01.JPG,AFNE01.JPG,AFNE01.JPG,,,,,,,,,,,,,,,,,,,,,0,3,3,7,,,AMSA20.jpg,AMNE07.jpg,AMNE15.jpg,AMSA05.jpg,AMNE07.jpg,MN,1,num_6,32,num_2,1.66670526227,,,2017_Jun_16_1256,60.0115680968,FEMA4ImagesEEG,001,100707,
AFNE01.JPG,AFNE01.JPG,AFNE01.JPG,AFNE01.JPG,AFNE01.JPG,AFNE01.JPG,,,,,,,,,,,,,,,,,,,,,0,4,4,2,,,AMSA10.jpg,AMNE20.jpg,AMNE04.jpg,AMSA14.jpg,AMNE20.jpg,MN,1,num_6,32,num_8,2.09988520748,,,2017_Jun_16_1256,60.0115680968,FEMA4ImagesEEG,001,100707,
AFNE01.JPG,AFNE01.JPG,AFNE01.JPG,AFNE01.JPG,AFNE01.JPG,AFNE01.JPG,,,,,,,,,,,,,,,,,,,,,0,5,5,4,,,AMSA09.jpg,AMNE07.jpg,AMSA14.jpg,AMNE05.jpg,AMSA14.jpg,MS,2,num_2,16,num_2,1.13345183583,,,2017_Jun_16_1256,60.0115680968,FEMA4ImagesEEG,001,100707,
AFNE01.JPG,AFNE01.JPG,AFNE01.JPG,AFNE01.JPG,AFNE01.JPG,AFNE01.JPG,,,,,,,,,,,,,,,,,,,,,0,6,6,3,,,AMSA20.jpg,AMNE08.jpg,AMNE13.jpg,AMSA14.jpg,AMNE08.jpg,MN,1,num_6,16,num_6,1.43343493273,,,2017_Jun_16_1256,60.0115680968,FEMA4ImagesEEG,001,100707,
AFNE01.JPG,AFNE01.JPG,AFNE01.JPG,AFNE01.JPG,AFNE01.JPG,AFNE01.JPG,,,,,,,,,,,,,,,,,,,,,0,7,7,9,,,AMSA02.jpg,AMNE03.jpg,AMSA14.jpg,AMNE01.jpg,AMSA02.jpg,MS,2,num_8,16,num_8,2.64982989605,,,2017_Jun_16_1256,60.0115680968,FEMA4ImagesEEG,001,100707,
AFNE01.JPG,AFNE01.JPG,AFNE01.JPG,AFNE01.JPG,AFNE01.JPG,AFNE01.JPG,,,,,,,,,,,,,,,,,,,,,0,8,8,1,,,AMNE16.jpg,AMNE05.jpg,AMSA05.jpg,AMSA08.jpg,AMSA05.jpg,MS,2,num_2,16,num_2,1.11680932611,,,2017_Jun_16_1256,60.0115680968,FEMA4ImagesEEG,001,100707,
AFNE01.JPG,AFNE01.JPG,AFNE01.JPG,AFNE01.JPG,AFNE01.JPG,AFNE01.JPG,,,,,,,,,,,,,,,,,,,,,0,9,9,0,,,AMNE16.jpg,AMSA10.jpg,AMNE05.jpg,AMSA07.jpg,AMSA10.jpg,MS,2,num_6,32,num_8,1.41671255906,,,2017_Jun_16_1256,60.0115680968,FEMA4ImagesEEG,001,100707,
AFNE01.JPG,AFNE01.JPG,AFNE01.JPG,AFNE01.JPG,AFNE01.JPG,AFNE01.JPG,,,,,,,,,,,,,,,,,,,,,1,0,10,0,,,AMNE13.jpg,AMSA16.jpg,AMNE19.jpg,AMSA18.jpg,AMSA18.jpg,MS,2,num_4,32,num_2,2.38334607205,,,2017_Jun_16_1256,60.0115680968,FEMA4ImagesEEG,001,100707,
AFNE01.JPG,AFNE01.JPG,AFNE01.JPG,AFNE01.JPG,AFNE01.JPG,AFNE01.JPG,,,,,,,,,,,,,,,,,,,,,1,1,11,7,,,AMNE04.jpg,AMSA08.jpg,AMSA06.jpg,AMNE09.jpg,AMNE09.jpg,MN,1,num_4,32,num_8,2.4166288462,,,2017_Jun_16_1256,60.0115680968,FEMA4ImagesEEG,001,100707,
AFNE01.JPG,AFNE01.JPG,AFNE01.JPG,AFNE01.JPG,AFNE01.JPG,AFNE01.JPG,,,,,,,,,,,,,,,,,,,,,1,2,12,1,,,AMSA14.jpg,AMNE02.jpg,AMNE16.jpg,AMSA20.jpg,AMSA14.jpg,MS,2,num_8,32,num_4,1.11677917663,,,2017_Jun_16_1256,60.0115680968,FEMA4ImagesEEG,001,100707,
AFNE01.JPG,AFNE01.JPG,AFNE01.JPG,AFNE01.JPG,AFNE01.JPG,AFNE01.JPG,,,,,,,,,,,,,,,,,,,,,1,3,13,3,,,AMNE17.jpg,AMSA20.jpg,AMNE05.jpg,AMSA09.jpg,AMSA20.jpg,MS,2,num_6,32,num_4,1.65012593823,,,2017_Jun_16_1256,60.0115680968,FEMA4ImagesEEG,001,100707,
AFNE01.JPG,AFNE01.JPG,AFNE01.JPG,AFNE01.JPG,AFNE01.JPG,AFNE01.JPG,,,,,,,,,,,,,,,,,,,,,1,4,14,6,,,AMNE15.jpg,AMNE12.jpg,AMSA19.jpg,AMSA13.jpg,AMSA13.jpg,MS,2,num_4,32,num_8,2.13341879961,,,2017_Jun_16_1256,60.0115680968,FEMA4ImagesEEG,001,100707,
AFNE01.JPG,AFNE01.JPG,AFNE01.JPG,AFNE01.JPG,AFNE01.JPG,AFNE01.JPG,,,,,,,,,,,,,,,,,,,,,1,5,15,8,,,AMSA15.jpg,AMNE13.jpg,AMSA11.jpg,AMNE18.jpg,AMSA11.jpg,MS,2,num_2,16,num_2,1.3335138025,,,2017_Jun_16_1256,60.0115680968,FEMA4ImagesEEG,001,100707,
AFNE01.JPG,AFNE01.JPG,AFNE01.JPG,AFNE01.JPG,AFNE01.JPG,AFNE01.JPG,,,,,,,,,,,,,,,,,,,,,1,6,16,5,,,AMSA13.jpg,AMNE11.jpg,AMNE04.jpg,AMSA12.jpg,AMSA13.jpg,MS,2,num_8,32,num_4,1.23343583092,,,2017_Jun_16_1256,60.0115680968,FEMA4ImagesEEG,001,100707,
AFNE01.JPG,AFNE01.JPG,AFNE01.JPG,AFNE01.JPG,AFNE01.JPG,AFNE01.JPG,,,,,,,,,,,,,,,,,,,,,1,7,17,2,,,AMNE17.jpg,AMNE14.jpg,AMSA14.jpg,AMSA16.jpg,AMNE17.jpg,MN,1,num_8,32,num_4,4.18316222448,,,2017_Jun_16_1256,60.0115680968,FEMA4ImagesEEG,001,100707,
AFNE01.JPG,AFNE01.JPG,AFNE01.JPG,AFNE01.JPG,AFNE01.JPG,AFNE01.JPG,,,,,,,,,,,,,,,,,,,,,1,8,18,4,,,AMSA08.jpg,AMSA06.jpg,AMNE09.jpg,AMNE13.jpg,AMNE13.jpg,MN,1,num_4,32,num_2,1.45014672203,,,2017_Jun_16_1256,60.0115680968,FEMA4ImagesEEG,001,100707,
AFNE01.JPG,AFNE01.JPG,AFNE01.JPG,AFNE01.JPG,AFNE01.JPG,AFNE01.JPG,,,,,,,,,,,,,,,,,,,,,1,9,19,9,,,AMNE14.jpg,AMNE09.jpg,AMSA15.jpg,AMSA05.jpg,AMSA15.jpg,MS,2,num_2,32,num_8,1.06687730667,,,2017_Jun_16_1256,60.0115680968,FEMA4ImagesEEG,001,100707,
AFNE01.JPG,AFNE01.JPG,AFNE01.JPG,AFNE01.JPG,AFNE01.JPG,AFNE01.JPG,,,,,,,,,,,,,,,,,,,,,2,0,20,0,,,AMNE20.jpg,AMNE01.jpg,AMSA16.jpg,AMSA15.jpg,AMSA15.jpg,MS,2,num_4,16,num_4,1.5667068339,,,2017_Jun_16_1256,60.0115680968,FEMA4ImagesEEG,001,100707,
AFNE01.JPG,AFNE01.JPG,AFNE01.JPG,AFNE01.JPG,AFNE01.JPG,AFNE01.JPG,,,,,,,,,,,,,,,,,,,,,2,1,21,2,,,AMNE18.jpg,AMSA09.jpg,AMNE07.jpg,AMSA03.jpg,AMNE18.jpg,MN,1,num_8,16,num_8,1.13343066699,,,2017_Jun_16_1256,60.0115680968,FEMA4ImagesEEG,001,100707,
AFNE01.JPG,AFNE01.JPG,AFNE01.JPG,AFNE01.JPG,AFNE01.JPG,AFNE01.JPG,,,,,,,,,,,,,,,,,,,,,2,2,22,6,,,AMNE04.jpg,AMSA05.jpg,AMSA09.jpg,AMNE11.jpg,AMNE04.jpg,MN,1,num_8,32,num_4,2.71660488693,,,2017_Jun_16_1256,60.0115680968,FEMA4ImagesEEG,001,100707,
AFNE01.JPG,AFNE01.JPG,AFNE01.JPG,AFNE01.JPG,AFNE01.JPG,AFNE01.JPG,,,,,,,,,,,,,,,,,,,,,2,3,23,9,,,AMSA12.jpg,AMNE06.jpg,AMNE05.jpg,AMSA01.jpg,AMNE05.jpg,MN,1,num_2,32,num_6,1.66669692309,,,2017_Jun_16_1256,60.0115680968,FEMA4ImagesEEG,001,100707,
AFNE01.JPG,AFNE01.JPG,AFNE01.JPG,AFNE01.JPG,AFNE01.JPG,AFNE01.JPG,,,,,,,,,,,,,,,,,,,,,2,4,24,1,,,AMSA01.jpg,AMSA12.jpg,AMNE04.jpg,AMNE09.jpg,AMNE09.jpg,MN,1,num_4,16,num_4,1.63339233864,,,2017_Jun_16_1256,60.0115680968,FEMA4ImagesEEG,001,100707,
AFNE01.JPG,AFNE01.JPG,AFNE01.JPG,AFNE01.JPG,AFNE01.JPG,AFNE01.JPG,,,,,,,,,,,,,,,,,,,,,2,5,25,3,,,AMNE15.jpg,AMNE17.jpg,AMSA12.jpg,AMSA01.jpg,AMSA12.jpg,MS,2,num_2,32,num_4,3.98348289926,,,2017_Jun_16_1256,60.0115680968,FEMA4ImagesEEG,001,100707,
AFNE01.JPG,AFNE01.JPG,AFNE01.JPG,AFNE01.JPG,AFNE01.JPG,AFNE01.JPG,,,,,,,,,,,,,,,,,,,,,2,6,26,4,,,AMSA20.jpg,AMSA08.jpg,AMNE03.jpg,AMNE01.jpg,AMSA20.jpg,MS,2,num_8,16,num_8,1.63341286592,,,2017_Jun_16_1256,60.0115680968,FEMA4ImagesEEG,001,100707,
AFNE01.JPG,AFNE01.JPG,AFNE01.JPG,AFNE01.JPG,AFNE01.JPG,AFNE01.JPG,,,,,,,,,,,,,,,,,,,,,2,7,27,8,,,AMNE02.jpg,AMSA16.jpg,AMNE14.jpg,AMSA05.jpg,AMSA16.jpg,MS,2,num_6,32,num_8,1.94995091087,,,2017_Jun_16_1256,60.0115680968,FEMA4ImagesEEG,001,100707,
AFNE01.JPG,AFNE01.JPG,AFNE01.JPG,AFNE01.JPG,AFNE01.JPG,AFNE01.JPG,,,,,,,,,,,,,,,,,,,,,2,8,28,5,,,AMSA18.jpg,AMNE19.jpg,AMSA01.jpg,AMNE16.jpg,AMNE16.jpg,MN,1,num_4,16,num_4,1.51673279773,,,2017_Jun_16_1256,60.0115680968,FEMA4ImagesEEG,001,100707,
AFNE01.JPG,AFNE01.JPG,AFNE01.JPG,AFNE01.JPG,AFNE01.JPG,AFNE01.JPG,,,,,,,,,,,,,,,,,,,,,2,9,29,7,,,AMSA19.jpg,AMNE12.jpg,AMNE16.jpg,AMSA11.jpg,AMNE12.jpg,MN,1,num_6,48,None,,,,2017_Jun_16_1256,60.0115680968,FEMA4ImagesEEG,001,100707,
AFNE01.JPG,AFNE01.JPG,AFNE01.JPG,AFNE01.JPG,AFNE01.JPG,AFNE01.JPG,,,,,,,,,,,,,,,,,,,,,3,0,30,6,,,AMSA09.jpg,AMNE20.jpg,AMSA10.jpg,AMNE05.jpg,AMSA10.jpg,MS,2,num_2,32,num_8,0.733440481592,,,2017_Jun_16_1256,60.0115680968,FEMA4ImagesEEG,001,100707,
AFNE01.JPG,AFNE01.JPG,AFNE01.JPG,AFNE01.JPG,AFNE01.JPG,AFNE01.JPG,,,,,,,,,,,,,,,,,,,,,3,1,31,2,,,AMSA16.jpg,AMNE08.jpg,AMSA09.jpg,AMNE18.jpg,AMNE08.jpg,MN,1,num_6,32,num_2,1.50008579774,,,2017_Jun_16_1256,60.0115680968,FEMA4ImagesEEG,001,100707,
AFNE01.JPG,AFNE01.JPG,AFNE01.JPG,AFNE01.JPG,AFNE01.JPG,AFNE01.JPG,,,,,,,,,,,,,,,,,,,,,3,2,32,5,,,AMSA20.jpg,AMNE03.jpg,AMNE17.jpg,AMSA06.jpg,AMSA20.jpg,MS,2,num_8,16,num_8,1.39988530369,,,2017_Jun_16_1256,60.0115680968,FEMA4ImagesEEG,001,100707,
AFNE01.JPG,AFNE01.JPG,AFNE01.JPG,AFNE01.JPG,AFNE01.JPG,AFNE01.JPG,,,,,,,,,,,,,,,,,,,,,3,3,33,7,,,AMNE07.jpg,AMNE01.jpg,AMSA08.jpg,AMSA18.jpg,AMNE07.jpg,MN,1,num_8,48,None,,,,2017_Jun_16_1256,60.0115680968,FEMA4ImagesEEG,001,100707,
AFNE01.JPG,AFNE01.JPG,AFNE01.JPG,AFNE01.JPG,AFNE01.JPG,AFNE01.JPG,,,,,,,,,,,,,,,,,,,,,3,4,34,8,,,AMNE17.jpg,AMSA05.jpg,AMSA14.jpg,AMNE06.jpg,AMSA14.jpg,MS,2,num_2,32,num_8,2.21669100539,,,2017_Jun_16_1256,60.0115680968,FEMA4ImagesEEG,001,100707,
AFNE01.JPG,AFNE01.JPG,AFNE01.JPG,AFNE01.JPG,AFNE01.JPG,AFNE01.JPG,,,,,,,,,,,,,,,,,,,,,3,5,35,1,,,AMNE06.jpg,AMSA20.jpg,AMNE19.jpg,AMSA15.jpg,AMNE19.jpg,MN,1,num_2,32,num_8,0.0168089732761,,,2017_Jun_16_1256,60.0115680968,FEMA4ImagesEEG,001,100707,
AFNE01.JPG,AFNE01.JPG,AFNE01.JPG,AFNE01.JPG,AFNE01.JPG,AFNE01.JPG,,,,,,,,,,,,,,,,,,,,,3,6,36,3,,,AMNE06.jpg,AMSA19.jpg,AMNE18.jpg,AMSA04.jpg,AMNE06.jpg,MN,1,num_8,48,None,,,,2017_Jun_16_1256,60.0115680968,FEMA4ImagesEEG,001,100707,
AFNE01.JPG,AFNE01.JPG,AFNE01.JPG,AFNE01.JPG,AFNE01.JPG,AFNE01.JPG,,,,,,,,,,,,,,,,,,,,,3,7,37,0,,,AMSA13.jpg,AMNE11.jpg,AMNE10.jpg,AMSA04.jpg,AMNE10.jpg,MN,1,num_2,32,num_8,0.999985566712,,,2017_Jun_16_1256,60.0115680968,FEMA4ImagesEEG,001,100707,
AFNE01.JPG,AFNE01.JPG,AFNE01.JPG,AFNE01.JPG,AFNE01.JPG,AFNE01.JPG,,,,,,,,,,,,,,,,,,,,,3,8,38,4,,,AMNE10.jpg,AMSA08.jpg,AMNE12.jpg,AMSA19.jpg,AMNE12.jpg,MN,1,num_2,32,num_8,1.33339929872,,,2017_Jun_16_1256,60.0115680968,FEMA4ImagesEEG,001,100707,
AFNE01.JPG,AFNE01.JPG,AFNE01.JPG,AFNE01.JPG,AFNE01.JPG,AFNE01.JPG,,,,,,,,,,,,,,,,,,,,,3,9,39,9,,,AMSA12.jpg,AMNE18.jpg,AMSA04.jpg,AMNE12.jpg,AMSA04.jpg,MS,2,num_2,16,num_2,1.28355355817,,,2017_Jun_16_1256,60.0115680968,FEMA4ImagesEEG,001,100707,
