IPosition2,IPosition3,IPosition1,IPosition6,IPosition4,IPosition5,TrialsM1.thisRepN,TrialsM1.thisTrialN,TrialsM1.thisN,TrialsM1.thisIndex,TrialsF1.thisRepN,TrialsF1.thisTrialN,TrialsF1.thisN,TrialsF1.thisIndex,TrialsM2.thisRepN,TrialsM2.thisTrialN,TrialsM2.thisN,TrialsM2.thisIndex,TrialsF2.thisRepN,TrialsF2.thisTrialN,TrialsF2.thisN,TrialsF2.thisIndex,TrialsM3.thisRepN,TrialsM3.thisTrialN,TrialsM3.thisN,TrialsM3.thisIndex,TrialsF3.thisRepN,TrialsF3.thisTrialN,TrialsF3.thisN,TrialsF3.thisIndex,InstrKey_resp.keys,InstrKey_resp.rt,Image0 _Position,Image1 _Position,Image2 _Position,Image3 _Position,Center_image,condition,code,correct_answer,accuracy,Key_Resp.keys,Key_Resp.rt,BreakKey_resp.keys,BreakKey_resp.rt,date,frameRate,expName,session,participant,
,,,,,,,,,,,,,,,,,,,,,,,,,,,,,,space,22.932104026,,,,,,,,,,,,,,2017_Jun_16_1558,60.0108750314,MAFE4ImagesEEG,001,100726,
AMNE23.JPG,AMNE24.JPG,AMNE22.JPG,AMSA24.JPG,AMSA22.JPG,AMSA23.JPG,0,0,0,9,,,,,,,,,,,,,,,,,,,,,,,AMSA03.jpg,AMSA12.jpg,AMNE15.jpg,AMNE17.jpg,AMNE15.jpg,MN,1,num_2,48,None,,,,2017_Jun_16_1558,60.0108750314,MAFE4ImagesEEG,001,100726,
AMSA25.JPG,AMNE24.JPG,AMSA24.JPG,AMNE26.JPG,AMSA21.JPG,AMNE25.JPG,0,1,1,3,,,,,,,,,,,,,,,,,,,,,,,AMSA12.jpg,AMNE18.jpg,AMNE19.jpg,AMSA19.jpg,AMSA12.jpg,MS,2,num_8,48,None,,,,2017_Jun_16_1558,60.0108750314,MAFE4ImagesEEG,001,100726,
AMSA21.JPG,AMNE22.JPG,AMNE21.JPG,AMSA23.JPG,AMSA22.JPG,AMNE23.JPG,0,2,2,1,,,,,,,,,,,,,,,,,,,,,,,AMSA06.jpg,AMNE10.jpg,AMSA02.jpg,AMNE17.jpg,AMSA06.jpg,MS,2,num_8,48,None,,,,2017_Jun_16_1558,60.0108750314,MAFE4ImagesEEG,001,100726,
AFSA21.JPG,AFNE22.JPG,AFNE21.JPG,AFSA23.JPG,AFSA22.JPG,AFNE23.JPG,0,3,3,0,,,,,,,,,,,,,,,,,,,,,,,AMSA15.jpg,AMNE02.jpg,AMSA18.jpg,AMNE13.jpg,AMSA18.jpg,MS,2,num_2,48,None,,,,2017_Jun_16_1558,60.0108750314,MAFE4ImagesEEG,001,100726,
AMNE22.JPG,AMSA24.JPG,AMSA22.JPG,AMNE25.JPG,AMNE24.JPG,AMSA25.JPG,0,4,4,7,,,,,,,,,,,,,,,,,,,,,,,AMNE17.jpg,AMSA15.jpg,AMSA05.jpg,AMNE02.jpg,AMSA05.jpg,MS,2,num_2,48,None,,,,2017_Jun_16_1558,60.0108750314,MAFE4ImagesEEG,001,100726,
AFNE23.JPG,AFNE24.JPG,AFNE22.JPG,AFSA24.JPG,AFSA22.JPG,AFSA23.JPG,0,5,5,8,,,,,,,,,,,,,,,,,,,,,,,AMNE10.jpg,AMSA12.jpg,AMNE14.jpg,AMSA01.jpg,AMNE14.jpg,MN,1,num_2,48,None,,,,2017_Jun_16_1558,60.0108750314,MAFE4ImagesEEG,001,100726,
AFSA25.JPG,AFNE24.JPG,AFSA24.JPG,AFNE21.JPG,AFSA21.JPG,AFNE25.JPG,0,6,6,2,,,,,,,,,,,,,,,,,,,,,,,AMNE06.jpg,AMSA16.jpg,AMSA20.jpg,AMNE09.jpg,AMNE09.jpg,MN,1,num_4,48,None,,,,2017_Jun_16_1558,60.0108750314,MAFE4ImagesEEG,001,100726,
AFNE22.JPG,AFSA24.JPG,AFSA22.JPG,AFNE25.JPG,AFNE24.JPG,AFSA25.JPG,0,7,7,6,,,,,,,,,,,,,,,,,,,,,,,AMSA20.jpg,AMNE16.jpg,AMSA17.jpg,AMNE20.jpg,AMNE20.jpg,MN,1,num_4,48,None,,,,2017_Jun_16_1558,60.0108750314,MAFE4ImagesEEG,001,100726,
AFSA21.JPG,AFNE23.JPG,AFNE21.JPG,AFSA25.JPG,AFNE25.JPG,AFSA23.JPG,0,8,8,4,,,,,,,,,,,,,,,,,,,,,,,AMSA16.jpg,AMSA04.jpg,AMNE20.jpg,AMNE04.jpg,AMSA04.jpg,MS,2,num_6,48,None,,,,2017_Jun_16_1558,60.0108750314,MAFE4ImagesEEG,001,100726,
AMSA21.JPG,AMNE23.JPG,AMNE21.JPG,AMSA25.JPG,AMNE25.JPG,AMSA23.JPG,0,9,9,5,,,,,,,,,,,,,,,,,,,,,,,AMSA17.jpg,AMSA03.jpg,AMNE11.jpg,AMNE12.jpg,AMNE11.jpg,MN,1,num_2,48,None,,,,2017_Jun_16_1558,60.0108750314,MAFE4ImagesEEG,001,100726,
AFSA25.JPG,AFNE24.JPG,AFSA24.JPG,AFNE21.JPG,AFSA21.JPG,AFNE25.JPG,,,,,0,0,0,2,,,,,,,,,,,,,,,,,,,AFSA19.jpg,AFNE12.jpg,AFNE11.jpg,AFSA12.jpg,AFSA19.jpg,FS,4,num_8,16,num_8,1.91667262709,,,2017_Jun_16_1558,60.0108750314,MAFE4ImagesEEG,001,100726,
AFSA21.JPG,AFNE23.JPG,AFNE21.JPG,AFSA25.JPG,AFNE25.JPG,AFSA23.JPG,,,,,0,1,1,4,,,,,,,,,,,,,,,,,,,AFNE09.jpg,AFNE15.jpg,AFSA08.jpg,AFSA05.jpg,AFSA08.jpg,FS,4,num_2,32,num_4,0.916797394515,,,2017_Jun_16_1558,60.0108750314,MAFE4ImagesEEG,001,100726,
AMNE22.JPG,AMSA24.JPG,AMSA22.JPG,AMNE25.JPG,AMNE24.JPG,AMSA25.JPG,,,,,0,2,2,7,,,,,,,,,,,,,,,,,,,AFNE03.jpg,AFSA20.jpg,AFNE04.jpg,AFSA18.jpg,AFSA18.jpg,FS,4,num_4,16,num_4,1.10011549818,,,2017_Jun_16_1558,60.0108750314,MAFE4ImagesEEG,001,100726,
AMSA21.JPG,AMNE23.JPG,AMNE21.JPG,AMSA25.JPG,AMNE25.JPG,AMSA23.JPG,,,,,0,3,3,5,,,,,,,,,,,,,,,,,,,AFSA20.jpg,AFSA15.jpg,AFNE05.jpg,AFNE04.jpg,AFNE05.jpg,FN,3,num_2,32,num_6,1.81677587295,,,2017_Jun_16_1558,60.0108750314,MAFE4ImagesEEG,001,100726,
AMNE23.JPG,AMNE24.JPG,AMNE22.JPG,AMSA24.JPG,AMSA22.JPG,AMSA23.JPG,,,,,0,4,4,9,,,,,,,,,,,,,,,,,,,AFNE14.jpg,AFSA01.jpg,AFSA11.jpg,AFNE17.jpg,AFNE14.jpg,FN,3,num_8,32,num_6,2.05007025786,,,2017_Jun_16_1558,60.0108750314,MAFE4ImagesEEG,001,100726,
AMSA25.JPG,AMNE24.JPG,AMSA24.JPG,AMNE26.JPG,AMSA21.JPG,AMNE25.JPG,,,,,0,5,5,3,,,,,,,,,,,,,,,,,,,AFNE15.jpg,AFSA07.jpg,AFSA08.jpg,AFNE02.jpg,AFSA07.jpg,FS,4,num_6,32,num_2,1.11663099518,,,2017_Jun_16_1558,60.0108750314,MAFE4ImagesEEG,001,100726,
AFSA21.JPG,AFNE22.JPG,AFNE21.JPG,AFSA23.JPG,AFSA22.JPG,AFNE23.JPG,,,,,0,6,6,0,,,,,,,,,,,,,,,,,,,AFSA02.jpg,AFNE06.jpg,AFSA13.jpg,AFNE01.jpg,AFNE06.jpg,FN,3,num_6,32,num_4,0.983452749904,,,2017_Jun_16_1558,60.0108750314,MAFE4ImagesEEG,001,100726,
AFNE22.JPG,AFSA24.JPG,AFSA22.JPG,AFNE25.JPG,AFNE24.JPG,AFSA25.JPG,,,,,0,7,7,6,,,,,,,,,,,,,,,,,,,AFNE13.jpg,AFSA07.jpg,AFSA02.jpg,AFNE04.jpg,AFSA07.jpg,FS,4,num_6,16,num_6,1.48338844173,,,2017_Jun_16_1558,60.0108750314,MAFE4ImagesEEG,001,100726,
AFNE23.JPG,AFNE24.JPG,AFNE22.JPG,AFSA24.JPG,AFSA22.JPG,AFSA23.JPG,,,,,0,8,8,8,,,,,,,,,,,,,,,,,,,AFNE08.jpg,AFSA01.jpg,AFSA15.jpg,AFNE15.jpg,AFNE15.jpg,FN,3,num_4,16,num_4,1.13335336884,,,2017_Jun_16_1558,60.0108750314,MAFE4ImagesEEG,001,100726,
AMSA21.JPG,AMNE22.JPG,AMNE21.JPG,AMSA23.JPG,AMSA22.JPG,AMNE23.JPG,,,,,0,9,9,1,,,,,,,,,,,,,,,,,,,AFSA08.jpg,AFNE14.jpg,AFNE10.jpg,AFSA06.jpg,AFSA08.jpg,FS,4,num_8,32,num_4,1.23342588788,,,2017_Jun_16_1558,60.0108750314,MAFE4ImagesEEG,001,100726,
AMSA21.JPG,AMNE22.JPG,AMNE21.JPG,AMSA23.JPG,AMSA22.JPG,AMNE23.JPG,,,,,,,,,0,0,0,1,,,,,,,,,,,,,,,AMSA01.jpg,AMNE05.jpg,AMNE18.jpg,AMSA09.jpg,AMNE05.jpg,MN,1,num_6,32,num_8,1.35005335486,,,2017_Jun_16_1558,60.0108750314,MAFE4ImagesEEG,001,100726,
AMNE23.JPG,AMNE24.JPG,AMNE22.JPG,AMSA24.JPG,AMSA22.JPG,AMSA23.JPG,,,,,,,,,0,1,1,9,,,,,,,,,,,,,,,AMSA19.jpg,AMNE12.jpg,AMSA11.jpg,AMNE05.jpg,AMNE12.jpg,MN,1,num_6,32,num_8,0.966785222525,,,2017_Jun_16_1558,60.0108750314,MAFE4ImagesEEG,001,100726,
AFSA21.JPG,AFNE23.JPG,AFNE21.JPG,AFSA25.JPG,AFNE25.JPG,AFSA23.JPG,,,,,,,,,0,2,2,4,,,,,,,,,,,,,,,AMNE16.jpg,AMNE13.jpg,AMSA12.jpg,AMSA17.jpg,AMNE16.jpg,MN,1,num_8,16,num_8,1.0834758752,,,2017_Jun_16_1558,60.0108750314,MAFE4ImagesEEG,001,100726,
AFNE23.JPG,AFNE24.JPG,AFNE22.JPG,AFSA24.JPG,AFSA22.JPG,AFSA23.JPG,,,,,,,,,0,3,3,8,,,,,,,,,,,,,,,AMSA10.jpg,AMNE16.jpg,AMNE01.jpg,AMSA05.jpg,AMSA10.jpg,MS,2,num_8,32,num_4,1.86666715844,,,2017_Jun_16_1558,60.0108750314,MAFE4ImagesEEG,001,100726,
AMSA25.JPG,AMNE24.JPG,AMSA24.JPG,AMNE26.JPG,AMSA21.JPG,AMNE25.JPG,,,,,,,,,0,4,4,3,,,,,,,,,,,,,,,AMSA01.jpg,AMNE20.jpg,AMNE05.jpg,AMSA17.jpg,AMNE20.jpg,MN,1,num_6,16,num_6,1.20010398363,,,2017_Jun_16_1558,60.0108750314,MAFE4ImagesEEG,001,100726,
AFSA21.JPG,AFNE22.JPG,AFNE21.JPG,AFSA23.JPG,AFSA22.JPG,AFNE23.JPG,,,,,,,,,0,5,5,0,,,,,,,,,,,,,,,AMSA04.jpg,AMNE01.jpg,AMNE13.jpg,AMSA01.jpg,AMNE01.jpg,MN,1,num_6,16,num_6,1.13344253425,,,2017_Jun_16_1558,60.0108750314,MAFE4ImagesEEG,001,100726,
AMNE22.JPG,AMSA24.JPG,AMSA22.JPG,AMNE25.JPG,AMNE24.JPG,AMSA25.JPG,,,,,,,,,0,6,6,7,,,,,,,,,,,,,,,AMSA04.jpg,AMNE19.jpg,AMNE17.jpg,AMSA08.jpg,AMSA04.jpg,MS,2,num_8,32,num_4,1.33341726009,,,2017_Jun_16_1558,60.0108750314,MAFE4ImagesEEG,001,100726,
AFSA25.JPG,AFNE24.JPG,AFSA24.JPG,AFNE21.JPG,AFSA21.JPG,AFNE25.JPG,,,,,,,,,0,7,7,2,,,,,,,,,,,,,,,AMSA09.jpg,AMNE16.jpg,AMSA02.jpg,AMNE19.jpg,AMNE16.jpg,MN,1,num_6,16,num_6,0.916766924434,,,2017_Jun_16_1558,60.0108750314,MAFE4ImagesEEG,001,100726,
AFNE22.JPG,AFSA24.JPG,AFSA22.JPG,AFNE25.JPG,AFNE24.JPG,AFSA25.JPG,,,,,,,,,0,8,8,6,,,,,,,,,,,,,,,AMSA17.jpg,AMNE14.jpg,AMNE03.jpg,AMSA19.jpg,AMSA17.jpg,MS,2,num_8,32,num_4,1.10015430755,,,2017_Jun_16_1558,60.0108750314,MAFE4ImagesEEG,001,100726,
AMSA21.JPG,AMNE23.JPG,AMNE21.JPG,AMSA25.JPG,AMNE25.JPG,AMSA23.JPG,,,,,,,,,0,9,9,5,,,,,,,,,,,,,,,AMSA05.jpg,AMSA17.jpg,AMNE09.jpg,AMNE06.jpg,AMNE06.jpg,MN,1,num_4,32,num_6,0.883454321418,,,2017_Jun_16_1558,60.0108750314,MAFE4ImagesEEG,001,100726,
AFNE22.JPG,AFSA24.JPG,AFSA22.JPG,AFNE25.JPG,AFNE24.JPG,AFSA25.JPG,,,,,,,,,,,,,0,0,0,6,,,,,,,,,,,AFNE12.jpg,AFSA10.jpg,AFNE01.jpg,AFSA20.jpg,AFNE01.jpg,FN,3,num_2,32,num_6,0.833504982176,,,2017_Jun_16_1558,60.0108750314,MAFE4ImagesEEG,001,100726,
AFSA25.JPG,AFNE24.JPG,AFSA24.JPG,AFNE21.JPG,AFSA21.JPG,AFNE25.JPG,,,,,,,,,,,,,0,1,1,2,,,,,,,,,,,AFNE14.jpg,AFSA20.jpg,AFNE18.jpg,AFSA04.jpg,AFSA20.jpg,FS,4,num_6,16,num_6,1.0667483696,,,2017_Jun_16_1558,60.0108750314,MAFE4ImagesEEG,001,100726,
AMNE22.JPG,AMSA24.JPG,AMSA22.JPG,AMNE25.JPG,AMNE24.JPG,AMSA25.JPG,,,,,,,,,,,,,0,2,2,7,,,,,,,,,,,AFNE04.jpg,AFSA17.jpg,AFNE20.jpg,AFSA09.jpg,AFNE20.jpg,FN,3,num_2,32,num_4,0.933435734711,,,2017_Jun_16_1558,60.0108750314,MAFE4ImagesEEG,001,100726,
AFNE23.JPG,AFNE24.JPG,AFNE22.JPG,AFSA24.JPG,AFSA22.JPG,AFSA23.JPG,,,,,,,,,,,,,0,3,3,8,,,,,,,,,,,AFNE09.jpg,AFNE04.jpg,AFSA02.jpg,AFSA09.jpg,AFSA09.jpg,FS,4,num_4,16,num_4,1.06666209083,,,2017_Jun_16_1558,60.0108750314,MAFE4ImagesEEG,001,100726,
AMSA25.JPG,AMNE24.JPG,AMSA24.JPG,AMNE26.JPG,AMSA21.JPG,AMNE25.JPG,,,,,,,,,,,,,0,4,4,3,,,,,,,,,,,AFSA14.jpg,AFSA16.jpg,AFNE17.jpg,AFNE19.jpg,AFSA16.jpg,FS,4,num_6,32,num_2,1.41667952295,,,2017_Jun_16_1558,60.0108750314,MAFE4ImagesEEG,001,100726,
AMNE23.JPG,AMNE24.JPG,AMNE22.JPG,AMSA24.JPG,AMSA22.JPG,AMSA23.JPG,,,,,,,,,,,,,0,5,5,9,,,,,,,,,,,AFNE16.jpg,AFSA19.jpg,AFNE02.jpg,AFSA05.jpg,AFNE02.jpg,FN,3,num_2,32,num_8,1.00011803198,,,2017_Jun_16_1558,60.0108750314,MAFE4ImagesEEG,001,100726,
AMSA21.JPG,AMNE22.JPG,AMNE21.JPG,AMSA23.JPG,AMSA22.JPG,AMNE23.JPG,,,,,,,,,,,,,0,6,6,1,,,,,,,,,,,AFSA13.jpg,AFNE07.jpg,AFSA11.jpg,AFNE13.jpg,AFSA13.jpg,FS,4,num_8,16,num_8,0.916758264415,,,2017_Jun_16_1558,60.0108750314,MAFE4ImagesEEG,001,100726,
AFSA21.JPG,AFNE22.JPG,AFNE21.JPG,AFSA23.JPG,AFSA22.JPG,AFNE23.JPG,,,,,,,,,,,,,0,7,7,0,,,,,,,,,,,AFSA15.jpg,AFNE15.jpg,AFSA07.jpg,AFNE12.jpg,AFSA15.jpg,FS,4,num_8,16,num_8,1.18341721199,,,2017_Jun_16_1558,60.0108750314,MAFE4ImagesEEG,001,100726,
AMSA21.JPG,AMNE23.JPG,AMNE21.JPG,AMSA25.JPG,AMNE25.JPG,AMSA23.JPG,,,,,,,,,,,,,0,8,8,5,,,,,,,,,,,AFSA03.jpg,AFNE03.jpg,AFNE16.jpg,AFSA06.jpg,AFNE03.jpg,FN,3,num_6,16,num_6,1.0001571622,,,2017_Jun_16_1558,60.0108750314,MAFE4ImagesEEG,001,100726,
AFSA21.JPG,AFNE23.JPG,AFNE21.JPG,AFSA25.JPG,AFNE25.JPG,AFSA23.JPG,,,,,,,,,,,,,0,9,9,4,,,,,,,,,,,AFSA15.jpg,AFNE05.jpg,AFNE18.jpg,AFSA17.jpg,AFNE18.jpg,FN,3,num_2,16,num_2,1.13346177875,,,2017_Jun_16_1558,60.0108750314,MAFE4ImagesEEG,001,100726,
AMNE22.JPG,AMSA24.JPG,AMSA22.JPG,AMNE25.JPG,AMNE24.JPG,AMSA25.JPG,,,,,,,,,,,,,,,,,0,0,0,7,,,,,,,AMNE02.jpg,AMNE16.jpg,AMSA02.jpg,AMSA16.jpg,AMNE02.jpg,MN,1,num_8,16,num_8,1.08342519833,,,2017_Jun_16_1558,60.0108750314,MAFE4ImagesEEG,001,100726,
AMSA25.JPG,AMNE24.JPG,AMSA24.JPG,AMNE26.JPG,AMSA21.JPG,AMNE25.JPG,,,,,,,,,,,,,,,,,0,1,1,3,,,,,,,AMSA02.jpg,AMSA12.jpg,AMNE16.jpg,AMNE04.jpg,AMNE04.jpg,MN,1,num_4,32,num_8,1.30010818527,,,2017_Jun_16_1558,60.0108750314,MAFE4ImagesEEG,001,100726,
AFNE22.JPG,AFSA24.JPG,AFSA22.JPG,AFNE25.JPG,AFNE24.JPG,AFSA25.JPG,,,,,,,,,,,,,,,,,0,2,2,6,,,,,,,AMNE18.jpg,AMSA09.jpg,AMNE05.jpg,AMSA18.jpg,AMNE05.jpg,MN,1,num_2,32,num_6,1.38341182354,,,2017_Jun_16_1558,60.0108750314,MAFE4ImagesEEG,001,100726,
AMSA21.JPG,AMNE23.JPG,AMNE21.JPG,AMSA25.JPG,AMNE25.JPG,AMSA23.JPG,,,,,,,,,,,,,,,,,0,3,3,5,,,,,,,AMSA02.jpg,AMNE01.jpg,AMNE15.jpg,AMSA11.jpg,AMNE15.jpg,MN,1,num_2,32,num_8,0.933304552338,,,2017_Jun_16_1558,60.0108750314,MAFE4ImagesEEG,001,100726,
AFNE23.JPG,AFNE24.JPG,AFNE22.JPG,AFSA24.JPG,AFSA22.JPG,AFSA23.JPG,,,,,,,,,,,,,,,,,0,4,4,8,,,,,,,AMSA07.jpg,AMSA09.jpg,AMNE20.jpg,AMNE14.jpg,AMNE20.jpg,MN,1,num_2,32,num_6,0.950106790173,,,2017_Jun_16_1558,60.0108750314,MAFE4ImagesEEG,001,100726,
AFSA25.JPG,AFNE24.JPG,AFSA24.JPG,AFNE21.JPG,AFSA21.JPG,AFNE25.JPG,,,,,,,,,,,,,,,,,0,5,5,2,,,,,,,AMSA16.jpg,AMSA09.jpg,AMNE17.jpg,AMNE10.jpg,AMSA16.jpg,MS,2,num_8,16,num_8,0.9834675038,,,2017_Jun_16_1558,60.0108750314,MAFE4ImagesEEG,001,100726,
AFSA21.JPG,AFNE23.JPG,AFNE21.JPG,AFSA25.JPG,AFNE25.JPG,AFSA23.JPG,,,,,,,,,,,,,,,,,0,6,6,4,,,,,,,AMNE15.jpg,AMSA18.jpg,AMNE10.jpg,AMSA20.jpg,AMSA20.jpg,MS,2,num_4,32,num_6,0.783452364965,,,2017_Jun_16_1558,60.0108750314,MAFE4ImagesEEG,001,100726,
AMSA21.JPG,AMNE22.JPG,AMNE21.JPG,AMSA23.JPG,AMSA22.JPG,AMNE23.JPG,,,,,,,,,,,,,,,,,0,7,7,1,,,,,,,AMSA13.jpg,AMNE14.jpg,AMSA12.jpg,AMNE16.jpg,AMSA13.jpg,MS,2,num_8,32,num_2,2.43334095622,,,2017_Jun_16_1558,60.0108750314,MAFE4ImagesEEG,001,100726,
AMNE23.JPG,AMNE24.JPG,AMNE22.JPG,AMSA24.JPG,AMSA22.JPG,AMSA23.JPG,,,,,,,,,,,,,,,,,0,8,8,9,,,,,,,AMSA14.jpg,AMNE09.jpg,AMSA07.jpg,AMNE16.jpg,AMSA07.jpg,MS,2,num_2,32,num_8,1.05011997244,,,2017_Jun_16_1558,60.0108750314,MAFE4ImagesEEG,001,100726,
AFSA21.JPG,AFNE22.JPG,AFNE21.JPG,AFSA23.JPG,AFSA22.JPG,AFNE23.JPG,,,,,,,,,,,,,,,,,0,9,9,0,,,,,,,AMSA10.jpg,AMSA15.jpg,AMNE16.jpg,AMNE05.jpg,AMNE16.jpg,MN,1,num_2,32,num_4,1.01676086243,,,2017_Jun_16_1558,60.0108750314,MAFE4ImagesEEG,001,100726,
AFSA21.JPG,AFNE23.JPG,AFNE21.JPG,AFSA25.JPG,AFNE25.JPG,AFSA23.JPG,,,,,,,,,,,,,,,,,,,,,0,0,0,4,,,AFNE09.jpg,AFSA18.jpg,AFSA20.jpg,AFNE15.jpg,AFSA20.jpg,FS,4,num_2,16,num_2,1.8500512701,,,2017_Jun_16_1558,60.0108750314,MAFE4ImagesEEG,001,100726,
AFSA21.JPG,AFNE22.JPG,AFNE21.JPG,AFSA23.JPG,AFSA22.JPG,AFNE23.JPG,,,,,,,,,,,,,,,,,,,,,0,1,1,0,,,AFSA11.jpg,AFNE13.jpg,AFSA17.jpg,AFNE17.jpg,AFNE17.jpg,FN,3,num_4,32,num_8,0.950067659956,,,2017_Jun_16_1558,60.0108750314,MAFE4ImagesEEG,001,100726,
AMSA21.JPG,AMNE22.JPG,AMNE21.JPG,AMSA23.JPG,AMSA22.JPG,AMNE23.JPG,,,,,,,,,,,,,,,,,,,,,0,2,2,1,,,AFNE09.jpg,AFNE12.jpg,AFSA10.jpg,AFSA09.jpg,AFNE09.jpg,FN,3,num_8,32,num_2,2.29998598364,,,2017_Jun_16_1558,60.0108750314,MAFE4ImagesEEG,001,100726,
AMSA25.JPG,AMNE24.JPG,AMSA24.JPG,AMNE26.JPG,AMSA21.JPG,AMNE25.JPG,,,,,,,,,,,,,,,,,,,,,0,3,3,3,,,AFSA14.jpg,AFNE01.jpg,AFSA09.jpg,AFNE06.jpg,AFSA14.jpg,FS,4,num_8,16,num_8,0.983403035323,,,2017_Jun_16_1558,60.0108750314,MAFE4ImagesEEG,001,100726,
AFSA25.JPG,AFNE24.JPG,AFSA24.JPG,AFNE21.JPG,AFSA21.JPG,AFNE25.JPG,,,,,,,,,,,,,,,,,,,,,0,4,4,2,,,AFSA18.jpg,AFSA13.jpg,AFNE10.jpg,AFNE12.jpg,AFSA18.jpg,FS,4,num_8,16,num_8,1.25006422796,,,2017_Jun_16_1558,60.0108750314,MAFE4ImagesEEG,001,100726,
AFNE22.JPG,AFSA24.JPG,AFSA22.JPG,AFNE25.JPG,AFNE24.JPG,AFSA25.JPG,,,,,,,,,,,,,,,,,,,,,0,5,5,6,,,AFSA13.jpg,AFSA17.jpg,AFNE15.jpg,AFNE03.jpg,AFNE03.jpg,FN,3,num_4,32,num_8,0.850161604467,,,2017_Jun_16_1558,60.0108750314,MAFE4ImagesEEG,001,100726,
AMSA21.JPG,AMNE23.JPG,AMNE21.JPG,AMSA25.JPG,AMNE25.JPG,AMSA23.JPG,,,,,,,,,,,,,,,,,,,,,0,6,6,5,,,AFSA18.jpg,AFSA01.jpg,AFNE17.jpg,AFNE19.jpg,AFNE17.jpg,FN,3,num_2,16,num_2,0.650191369001,,,2017_Jun_16_1558,60.0108750314,MAFE4ImagesEEG,001,100726,
AMNE22.JPG,AMSA24.JPG,AMSA22.JPG,AMNE25.JPG,AMNE24.JPG,AMSA25.JPG,,,,,,,,,,,,,,,,,,,,,0,7,7,7,,,AFNE09.jpg,AFNE11.jpg,AFSA12.jpg,AFSA03.jpg,AFSA12.jpg,FS,4,num_2,32,num_6,1.61671422701,,,2017_Jun_16_1558,60.0108750314,MAFE4ImagesEEG,001,100726,
AFNE23.JPG,AFNE24.JPG,AFNE22.JPG,AFSA24.JPG,AFSA22.JPG,AFSA23.JPG,,,,,,,,,,,,,,,,,,,,,0,8,8,8,,,AFNE09.jpg,AFNE06.jpg,AFSA19.jpg,AFSA01.jpg,AFNE06.jpg,FN,3,num_6,16,num_6,1.03346335026,,,2017_Jun_16_1558,60.0108750314,MAFE4ImagesEEG,001,100726,
AMNE23.JPG,AMNE24.JPG,AMNE22.JPG,AMSA24.JPG,AMSA22.JPG,AMSA23.JPG,,,,,,,,,,,,,,,,,,,,,0,9,9,9,,,AFNE15.jpg,AFSA08.jpg,AFSA16.jpg,AFNE16.jpg,AFSA08.jpg,FS,4,num_6,32,num_2,1.30008316762,,,2017_Jun_16_1558,60.0108750314,MAFE4ImagesEEG,001,100726,
,,,,,,,,,,,,,,,,,,,,,,,,,,,,,,,,,,,,,,,,,,,space,5.78274256934,2017_Jun_16_1558,60.0108750314,MAFE4ImagesEEG,001,100726,
AFNE01.JPG,AFNE01.JPG,AFNE01.JPG,AFNE01.JPG,AFNE01.JPG,AFNE01.JPG,0,0,0,1,,,,,,,,,,,,,,,,,,,,,,,AMSA08.jpg,AMSA20.jpg,AMNE06.jpg,AMNE12.jpg,AMSA08.jpg,MS,2,num_8,16,num_8,1.18346692657,,,2017_Jun_16_1558,60.0108750314,MAFE4ImagesEEG,001,100726,
AFNE01.JPG,AFNE01.JPG,AFNE01.JPG,AFNE01.JPG,AFNE01.JPG,AFNE01.JPG,0,1,1,2,,,,,,,,,,,,,,,,,,,,,,,AMSA20.jpg,AMNE03.jpg,AMSA13.jpg,AMNE16.jpg,AMNE16.jpg,MN,1,num_4,32,num_2,1.35011397465,,,2017_Jun_16_1558,60.0108750314,MAFE4ImagesEEG,001,100726,
AFNE01.JPG,AFNE01.JPG,AFNE01.JPG,AFNE01.JPG,AFNE01.JPG,AFNE01.JPG,0,2,2,6,,,,,,,,,,,,,,,,,,,,,,,AMSA03.jpg,AMSA07.jpg,AMNE16.jpg,AMNE10.jpg,AMSA07.jpg,MS,2,num_6,32,num_8,1.21673783334,,,2017_Jun_16_1558,60.0108750314,MAFE4ImagesEEG,001,100726,
AFNE01.JPG,AFNE01.JPG,AFNE01.JPG,AFNE01.JPG,AFNE01.JPG,AFNE01.JPG,0,3,3,8,,,,,,,,,,,,,,,,,,,,,,,AMNE12.jpg,AMSA02.jpg,AMSA04.jpg,AMNE15.jpg,AMNE12.jpg,MN,1,num_8,32,num_4,0.966805429081,,,2017_Jun_16_1558,60.0108750314,MAFE4ImagesEEG,001,100726,
AFNE01.JPG,AFNE01.JPG,AFNE01.JPG,AFNE01.JPG,AFNE01.JPG,AFNE01.JPG,0,4,4,4,,,,,,,,,,,,,,,,,,,,,,,AMNE12.jpg,AMNE15.jpg,AMSA07.jpg,AMSA17.jpg,AMNE15.jpg,MN,1,num_6,16,num_6,1.03346110519,,,2017_Jun_16_1558,60.0108750314,MAFE4ImagesEEG,001,100726,
AFNE01.JPG,AFNE01.JPG,AFNE01.JPG,AFNE01.JPG,AFNE01.JPG,AFNE01.JPG,0,5,5,3,,,,,,,,,,,,,,,,,,,,,,,AMNE02.jpg,AMSA02.jpg,AMSA08.jpg,AMNE15.jpg,AMNE15.jpg,MN,1,num_4,16,num_4,0.750168949249,,,2017_Jun_16_1558,60.0108750314,MAFE4ImagesEEG,001,100726,
AFNE01.JPG,AFNE01.JPG,AFNE01.JPG,AFNE01.JPG,AFNE01.JPG,AFNE01.JPG,0,6,6,7,,,,,,,,,,,,,,,,,,,,,,,AMNE12.jpg,AMSA06.jpg,AMNE05.jpg,AMSA12.jpg,AMNE05.jpg,MN,1,num_2,32,num_8,1.11680900527,,,2017_Jun_16_1558,60.0108750314,MAFE4ImagesEEG,001,100726,
AFNE01.JPG,AFNE01.JPG,AFNE01.JPG,AFNE01.JPG,AFNE01.JPG,AFNE01.JPG,0,7,7,5,,,,,,,,,,,,,,,,,,,,,,,AMSA18.jpg,AMNE07.jpg,AMSA06.jpg,AMNE09.jpg,AMNE07.jpg,MN,1,num_6,32,num_2,1.38342112501,,,2017_Jun_16_1558,60.0108750314,MAFE4ImagesEEG,001,100726,
AFNE01.JPG,AFNE01.JPG,AFNE01.JPG,AFNE01.JPG,AFNE01.JPG,AFNE01.JPG,0,8,8,9,,,,,,,,,,,,,,,,,,,,,,,AMNE14.jpg,AMNE20.jpg,AMSA05.jpg,AMSA16.jpg,AMNE14.jpg,MN,1,num_8,32,num_6,0.850157755543,,,2017_Jun_16_1558,60.0108750314,MAFE4ImagesEEG,001,100726,
AFNE01.JPG,AFNE01.JPG,AFNE01.JPG,AFNE01.JPG,AFNE01.JPG,AFNE01.JPG,0,9,9,0,,,,,,,,,,,,,,,,,,,,,,,AMSA06.jpg,AMNE09.jpg,AMSA13.jpg,AMNE19.jpg,AMNE09.jpg,MN,1,num_6,16,num_6,0.866810208187,,,2017_Jun_16_1558,60.0108750314,MAFE4ImagesEEG,001,100726,
AFNE01.JPG,AFNE01.JPG,AFNE01.JPG,AFNE01.JPG,AFNE01.JPG,AFNE01.JPG,1,0,10,3,,,,,,,,,,,,,,,,,,,,,,,AMSA19.jpg,AMNE20.jpg,AMNE06.jpg,AMSA20.jpg,AMNE06.jpg,MN,1,num_2,32,num_6,0.933609254542,,,2017_Jun_16_1558,60.0108750314,MAFE4ImagesEEG,001,100726,
AFNE01.JPG,AFNE01.JPG,AFNE01.JPG,AFNE01.JPG,AFNE01.JPG,AFNE01.JPG,1,1,11,2,,,,,,,,,,,,,,,,,,,,,,,AMNE04.jpg,AMSA03.jpg,AMNE11.jpg,AMSA20.jpg,AMNE04.jpg,MN,1,num_8,32,num_4,0.833466814249,,,2017_Jun_16_1558,60.0108750314,MAFE4ImagesEEG,001,100726,
AFNE01.JPG,AFNE01.JPG,AFNE01.JPG,AFNE01.JPG,AFNE01.JPG,AFNE01.JPG,1,2,12,1,,,,,,,,,,,,,,,,,,,,,,,AMSA16.jpg,AMNE08.jpg,AMNE12.jpg,AMSA17.jpg,AMNE12.jpg,MN,1,num_2,16,num_2,0.817088593612,,,2017_Jun_16_1558,60.0108750314,MAFE4ImagesEEG,001,100726,
AFNE01.JPG,AFNE01.JPG,AFNE01.JPG,AFNE01.JPG,AFNE01.JPG,AFNE01.JPG,1,3,13,7,,,,,,,,,,,,,,,,,,,,,,,AMNE18.jpg,AMSA18.jpg,AMSA12.jpg,AMNE07.jpg,AMNE07.jpg,MN,1,num_4,16,num_4,1.31673818605,,,2017_Jun_16_1558,60.0108750314,MAFE4ImagesEEG,001,100726,
AFNE01.JPG,AFNE01.JPG,AFNE01.JPG,AFNE01.JPG,AFNE01.JPG,AFNE01.JPG,1,4,14,4,,,,,,,,,,,,,,,,,,,,,,,AMNE07.jpg,AMSA09.jpg,AMSA17.jpg,AMNE18.jpg,AMNE18.jpg,MN,1,num_4,32,num_8,0.816799607594,,,2017_Jun_16_1558,60.0108750314,MAFE4ImagesEEG,001,100726,
AFNE01.JPG,AFNE01.JPG,AFNE01.JPG,AFNE01.JPG,AFNE01.JPG,AFNE01.JPG,1,5,15,6,,,,,,,,,,,,,,,,,,,,,,,AMNE19.jpg,AMNE02.jpg,AMSA17.jpg,AMSA08.jpg,AMNE02.jpg,MN,1,num_6,32,num_4,1.00011835271,,,2017_Jun_16_1558,60.0108750314,MAFE4ImagesEEG,001,100726,
AFNE01.JPG,AFNE01.JPG,AFNE01.JPG,AFNE01.JPG,AFNE01.JPG,AFNE01.JPG,1,6,16,9,,,,,,,,,,,,,,,,,,,,,,,AMNE20.jpg,AMSA07.jpg,AMSA11.jpg,AMNE14.jpg,AMSA07.jpg,MS,2,num_6,32,num_4,1.31678308966,,,2017_Jun_16_1558,60.0108750314,MAFE4ImagesEEG,001,100726,
AFNE01.JPG,AFNE01.JPG,AFNE01.JPG,AFNE01.JPG,AFNE01.JPG,AFNE01.JPG,1,7,17,0,,,,,,,,,,,,,,,,,,,,,,,AMNE13.jpg,AMNE01.jpg,AMSA11.jpg,AMSA06.jpg,AMNE01.jpg,MN,1,num_6,32,num_8,2.10005648225,,,2017_Jun_16_1558,60.0108750314,MAFE4ImagesEEG,001,100726,
AFNE01.JPG,AFNE01.JPG,AFNE01.JPG,AFNE01.JPG,AFNE01.JPG,AFNE01.JPG,1,8,18,5,,,,,,,,,,,,,,,,,,,,,,,AMNE06.jpg,AMSA03.jpg,AMNE19.jpg,AMSA17.jpg,AMNE06.jpg,MN,1,num_8,16,num_8,1.15011294826,,,2017_Jun_16_1558,60.0108750314,MAFE4ImagesEEG,001,100726,
AFNE01.JPG,AFNE01.JPG,AFNE01.JPG,AFNE01.JPG,AFNE01.JPG,AFNE01.JPG,1,9,19,8,,,,,,,,,,,,,,,,,,,,,,,AMNE12.jpg,AMSA13.jpg,AMSA11.jpg,AMNE18.jpg,AMNE12.jpg,MN,1,num_8,16,num_8,0.766781630227,,,2017_Jun_16_1558,60.0108750314,MAFE4ImagesEEG,001,100726,
AFNE01.JPG,AFNE01.JPG,AFNE01.JPG,AFNE01.JPG,AFNE01.JPG,AFNE01.JPG,2,0,20,5,,,,,,,,,,,,,,,,,,,,,,,AMSA04.jpg,AMSA17.jpg,AMNE19.jpg,AMNE11.jpg,AMSA04.jpg,MS,2,num_8,32,num_6,1.13347075938,,,2017_Jun_16_1558,60.0108750314,MAFE4ImagesEEG,001,100726,
AFNE01.JPG,AFNE01.JPG,AFNE01.JPG,AFNE01.JPG,AFNE01.JPG,AFNE01.JPG,2,1,21,0,,,,,,,,,,,,,,,,,,,,,,,AMNE11.jpg,AMSA03.jpg,AMNE02.jpg,AMSA14.jpg,AMSA14.jpg,MS,2,num_4,32,num_2,2.44999854069,,,2017_Jun_16_1558,60.0108750314,MAFE4ImagesEEG,001,100726,
AFNE01.JPG,AFNE01.JPG,AFNE01.JPG,AFNE01.JPG,AFNE01.JPG,AFNE01.JPG,2,2,22,2,,,,,,,,,,,,,,,,,,,,,,,AMSA14.jpg,AMNE14.jpg,AMNE13.jpg,AMSA06.jpg,AMSA14.jpg,MS,2,num_8,16,num_8,0.983439599513,,,2017_Jun_16_1558,60.0108750314,MAFE4ImagesEEG,001,100726,
AFNE01.JPG,AFNE01.JPG,AFNE01.JPG,AFNE01.JPG,AFNE01.JPG,AFNE01.JPG,2,3,23,3,,,,,,,,,,,,,,,,,,,,,,,AMNE16.jpg,AMSA07.jpg,AMNE04.jpg,AMSA20.jpg,AMNE04.jpg,MN,1,num_2,32,num_4,0.917032175697,,,2017_Jun_16_1558,60.0108750314,MAFE4ImagesEEG,001,100726,
AFNE01.JPG,AFNE01.JPG,AFNE01.JPG,AFNE01.JPG,AFNE01.JPG,AFNE01.JPG,2,4,24,8,,,,,,,,,,,,,,,,,,,,,,,AMSA18.jpg,AMNE09.jpg,AMSA09.jpg,AMNE07.jpg,AMNE07.jpg,MN,1,num_4,32,num_8,1.06678076426,,,2017_Jun_16_1558,60.0108750314,MAFE4ImagesEEG,001,100726,
AFNE01.JPG,AFNE01.JPG,AFNE01.JPG,AFNE01.JPG,AFNE01.JPG,AFNE01.JPG,2,5,25,4,,,,,,,,,,,,,,,,,,,,,,,AMNE15.jpg,AMSA11.jpg,AMSA19.jpg,AMNE19.jpg,AMSA11.jpg,MS,2,num_6,32,num_4,0.916775263497,,,2017_Jun_16_1558,60.0108750314,MAFE4ImagesEEG,001,100726,
AFNE01.JPG,AFNE01.JPG,AFNE01.JPG,AFNE01.JPG,AFNE01.JPG,AFNE01.JPG,2,6,26,1,,,,,,,,,,,,,,,,,,,,,,,AMNE11.jpg,AMNE19.jpg,AMSA15.jpg,AMSA19.jpg,AMSA19.jpg,MS,2,num_4,16,num_4,1.36690306209,,,2017_Jun_16_1558,60.0108750314,MAFE4ImagesEEG,001,100726,
AFNE01.JPG,AFNE01.JPG,AFNE01.JPG,AFNE01.JPG,AFNE01.JPG,AFNE01.JPG,2,7,27,6,,,,,,,,,,,,,,,,,,,,,,,AMSA08.jpg,AMNE01.jpg,AMSA07.jpg,AMNE13.jpg,AMNE01.jpg,MN,1,num_6,16,num_6,1.53299459012,,,2017_Jun_16_1558,60.0108750314,MAFE4ImagesEEG,001,100726,
AFNE01.JPG,AFNE01.JPG,AFNE01.JPG,AFNE01.JPG,AFNE01.JPG,AFNE01.JPG,2,8,28,9,,,,,,,,,,,,,,,,,,,,,,,AMSA11.jpg,AMSA17.jpg,AMNE20.jpg,AMNE15.jpg,AMSA11.jpg,MS,2,num_8,16,num_8,0.86676851206,,,2017_Jun_16_1558,60.0108750314,MAFE4ImagesEEG,001,100726,
AFNE01.JPG,AFNE01.JPG,AFNE01.JPG,AFNE01.JPG,AFNE01.JPG,AFNE01.JPG,2,9,29,7,,,,,,,,,,,,,,,,,,,,,,,AMNE18.jpg,AMSA04.jpg,AMNE14.jpg,AMSA08.jpg,AMNE14.jpg,MN,1,num_2,16,num_2,1.90005032392,,,2017_Jun_16_1558,60.0108750314,MAFE4ImagesEEG,001,100726,
AFNE01.JPG,AFNE01.JPG,AFNE01.JPG,AFNE01.JPG,AFNE01.JPG,AFNE01.JPG,3,0,30,3,,,,,,,,,,,,,,,,,,,,,,,AMNE18.jpg,AMSA07.jpg,AMSA13.jpg,AMNE10.jpg,AMNE10.jpg,MN,1,num_4,16,num_4,1.7667399341,,,2017_Jun_16_1558,60.0108750314,MAFE4ImagesEEG,001,100726,
AFNE01.JPG,AFNE01.JPG,AFNE01.JPG,AFNE01.JPG,AFNE01.JPG,AFNE01.JPG,3,1,31,1,,,,,,,,,,,,,,,,,,,,,,,AMNE02.jpg,AMNE06.jpg,AMSA15.jpg,AMSA07.jpg,AMSA07.jpg,MS,2,num_4,16,num_4,0.950173503836,,,2017_Jun_16_1558,60.0108750314,MAFE4ImagesEEG,001,100726,
AFNE01.JPG,AFNE01.JPG,AFNE01.JPG,AFNE01.JPG,AFNE01.JPG,AFNE01.JPG,3,2,32,0,,,,,,,,,,,,,,,,,,,,,,,AMSA06.jpg,AMNE17.jpg,AMSA20.jpg,AMNE01.jpg,AMNE17.jpg,MN,1,num_6,32,num_2,1.38342689828,,,2017_Jun_16_1558,60.0108750314,MAFE4ImagesEEG,001,100726,
AFNE01.JPG,AFNE01.JPG,AFNE01.JPG,AFNE01.JPG,AFNE01.JPG,AFNE01.JPG,3,3,33,2,,,,,,,,,,,,,,,,,,,,,,,AMNE02.jpg,AMNE03.jpg,AMSA03.jpg,AMSA02.jpg,AMNE03.jpg,MN,1,num_6,16,num_6,1.66669499862,,,2017_Jun_16_1558,60.0108750314,MAFE4ImagesEEG,001,100726,
AFNE01.JPG,AFNE01.JPG,AFNE01.JPG,AFNE01.JPG,AFNE01.JPG,AFNE01.JPG,3,4,34,4,,,,,,,,,,,,,,,,,,,,,,,AMSA15.jpg,AMSA08.jpg,AMNE10.jpg,AMNE04.jpg,AMSA15.jpg,MS,2,num_8,16,num_8,0.683568761218,,,2017_Jun_16_1558,60.0108750314,MAFE4ImagesEEG,001,100726,
AFNE01.JPG,AFNE01.JPG,AFNE01.JPG,AFNE01.JPG,AFNE01.JPG,AFNE01.JPG,3,5,35,9,,,,,,,,,,,,,,,,,,,,,,,AMNE01.jpg,AMNE03.jpg,AMSA18.jpg,AMSA04.jpg,AMNE03.jpg,MN,1,num_6,32,num_2,1.81670466892,,,2017_Jun_16_1558,60.0108750314,MAFE4ImagesEEG,001,100726,
AFNE01.JPG,AFNE01.JPG,AFNE01.JPG,AFNE01.JPG,AFNE01.JPG,AFNE01.JPG,3,6,36,8,,,,,,,,,,,,,,,,,,,,,,,AMSA07.jpg,AMNE14.jpg,AMSA20.jpg,AMNE19.jpg,AMSA07.jpg,MS,2,num_8,16,num_8,0.816784212249,,,2017_Jun_16_1558,60.0108750314,MAFE4ImagesEEG,001,100726,
AFNE01.JPG,AFNE01.JPG,AFNE01.JPG,AFNE01.JPG,AFNE01.JPG,AFNE01.JPG,3,7,37,6,,,,,,,,,,,,,,,,,,,,,,,AMSA14.jpg,AMNE04.jpg,AMNE10.jpg,AMSA07.jpg,AMSA07.jpg,MS,2,num_4,32,num_8,0.78344145976,,,2017_Jun_16_1558,60.0108750314,MAFE4ImagesEEG,001,100726,
AFNE01.JPG,AFNE01.JPG,AFNE01.JPG,AFNE01.JPG,AFNE01.JPG,AFNE01.JPG,3,8,38,7,,,,,,,,,,,,,,,,,,,,,,,AMSA03.jpg,AMNE01.jpg,AMSA17.jpg,AMNE04.jpg,AMNE01.jpg,MN,1,num_6,16,num_6,1.83338310127,,,2017_Jun_16_1558,60.0108750314,MAFE4ImagesEEG,001,100726,
AFNE01.JPG,AFNE01.JPG,AFNE01.JPG,AFNE01.JPG,AFNE01.JPG,AFNE01.JPG,3,9,39,5,,,,,,,,,,,,,,,,,,,,,,,AMSA19.jpg,AMSA08.jpg,AMNE06.jpg,AMNE07.jpg,AMNE07.jpg,MN,1,num_4,16,num_4,0.950216803583,,,2017_Jun_16_1558,60.0108750314,MAFE4ImagesEEG,001,100726,
AFNE01.JPG,AFNE01.JPG,AFNE01.JPG,AFNE01.JPG,AFNE01.JPG,AFNE01.JPG,4,0,40,8,,,,,,,,,,,,,,,,,,,,,,,AMNE01.jpg,AMNE13.jpg,AMSA02.jpg,AMSA18.jpg,AMSA18.jpg,MS,2,num_4,16,num_4,0.733466461534,,,2017_Jun_16_1558,60.0108750314,MAFE4ImagesEEG,001,100726,
AFNE01.JPG,AFNE01.JPG,AFNE01.JPG,AFNE01.JPG,AFNE01.JPG,AFNE01.JPG,4,1,41,6,,,,,,,,,,,,,,,,,,,,,,,AMSA13.jpg,AMSA10.jpg,AMNE07.jpg,AMNE15.jpg,AMNE07.jpg,MN,1,num_2,16,num_2,1.38305965206,,,2017_Jun_16_1558,60.0108750314,MAFE4ImagesEEG,001,100726,
AFNE01.JPG,AFNE01.JPG,AFNE01.JPG,AFNE01.JPG,AFNE01.JPG,AFNE01.JPG,4,2,42,0,,,,,,,,,,,,,,,,,,,,,,,AMNE09.jpg,AMNE15.jpg,AMSA02.jpg,AMSA07.jpg,AMNE15.jpg,MN,1,num_6,32,num_8,0.833450777223,,,2017_Jun_16_1558,60.0108750314,MAFE4ImagesEEG,001,100726,
AFNE01.JPG,AFNE01.JPG,AFNE01.JPG,AFNE01.JPG,AFNE01.JPG,AFNE01.JPG,4,3,43,9,,,,,,,,,,,,,,,,,,,,,,,AMNE07.jpg,AMSA03.jpg,AMNE18.jpg,AMSA13.jpg,AMNE07.jpg,MN,1,num_8,32,num_2,2.25000777794,,,2017_Jun_16_1558,60.0108750314,MAFE4ImagesEEG,001,100726,
AFNE01.JPG,AFNE01.JPG,AFNE01.JPG,AFNE01.JPG,AFNE01.JPG,AFNE01.JPG,4,4,44,4,,,,,,,,,,,,,,,,,,,,,,,AMNE03.jpg,AMSA04.jpg,AMSA06.jpg,AMNE12.jpg,AMNE03.jpg,MN,1,num_8,16,num_8,0.83378819481,,,2017_Jun_16_1558,60.0108750314,MAFE4ImagesEEG,001,100726,
AFNE01.JPG,AFNE01.JPG,AFNE01.JPG,AFNE01.JPG,AFNE01.JPG,AFNE01.JPG,4,5,45,1,,,,,,,,,,,,,,,,,,,,,,,AMNE14.jpg,AMNE04.jpg,AMSA15.jpg,AMSA06.jpg,AMNE14.jpg,MN,1,num_8,32,num_2,1.55010890693,,,2017_Jun_16_1558,60.0108750314,MAFE4ImagesEEG,001,100726,
AFNE01.JPG,AFNE01.JPG,AFNE01.JPG,AFNE01.JPG,AFNE01.JPG,AFNE01.JPG,4,6,46,3,,,,,,,,,,,,,,,,,,,,,,,AMSA01.jpg,AMSA04.jpg,AMNE09.jpg,AMNE20.jpg,AMNE09.jpg,MN,1,num_2,32,num_8,0.900145262713,,,2017_Jun_16_1558,60.0108750314,MAFE4ImagesEEG,001,100726,
AFNE01.JPG,AFNE01.JPG,AFNE01.JPG,AFNE01.JPG,AFNE01.JPG,AFNE01.JPG,4,7,47,5,,,,,,,,,,,,,,,,,,,,,,,AMNE02.jpg,AMSA17.jpg,AMNE19.jpg,AMSA06.jpg,AMSA17.jpg,MS,2,num_6,32,num_2,1.38343299238,,,2017_Jun_16_1558,60.0108750314,MAFE4ImagesEEG,001,100726,
AFNE01.JPG,AFNE01.JPG,AFNE01.JPG,AFNE01.JPG,AFNE01.JPG,AFNE01.JPG,4,8,48,2,,,,,,,,,,,,,,,,,,,,,,,AMNE03.jpg,AMSA20.jpg,AMNE04.jpg,AMSA11.jpg,AMNE04.jpg,MN,1,num_2,32,num_6,1.65010476939,,,2017_Jun_16_1558,60.0108750314,MAFE4ImagesEEG,001,100726,
AFNE01.JPG,AFNE01.JPG,AFNE01.JPG,AFNE01.JPG,AFNE01.JPG,AFNE01.JPG,4,9,49,7,,,,,,,,,,,,,,,,,,,,,,,AMSA06.jpg,AMNE01.jpg,AMNE09.jpg,AMSA10.jpg,AMNE09.jpg,MN,1,num_2,16,num_2,1.10009368788,,,2017_Jun_16_1558,60.0108750314,MAFE4ImagesEEG,001,100726,
AFNE01.JPG,AFNE01.JPG,AFNE01.JPG,AFNE01.JPG,AFNE01.JPG,AFNE01.JPG,5,0,50,5,,,,,,,,,,,,,,,,,,,,,,,AMSA05.jpg,AMNE16.jpg,AMNE11.jpg,AMSA18.jpg,AMNE11.jpg,MN,1,num_2,32,num_4,1.28342141362,,,2017_Jun_16_1558,60.0108750314,MAFE4ImagesEEG,001,100726,
AFNE01.JPG,AFNE01.JPG,AFNE01.JPG,AFNE01.JPG,AFNE01.JPG,AFNE01.JPG,5,1,51,6,,,,,,,,,,,,,,,,,,,,,,,AMSA16.jpg,AMNE04.jpg,AMSA03.jpg,AMNE09.jpg,AMSA03.jpg,MS,2,num_2,32,num_8,1.03346046363,,,2017_Jun_16_1558,60.0108750314,MAFE4ImagesEEG,001,100726,
AFNE01.JPG,AFNE01.JPG,AFNE01.JPG,AFNE01.JPG,AFNE01.JPG,AFNE01.JPG,5,2,52,2,,,,,,,,,,,,,,,,,,,,,,,AMSA02.jpg,AMNE01.jpg,AMNE04.jpg,AMSA20.jpg,AMNE01.jpg,MN,1,num_6,32,num_2,1.41674399143,,,2017_Jun_16_1558,60.0108750314,MAFE4ImagesEEG,001,100726,
AFNE01.JPG,AFNE01.JPG,AFNE01.JPG,AFNE01.JPG,AFNE01.JPG,AFNE01.JPG,5,3,53,9,,,,,,,,,,,,,,,,,,,,,,,AMNE14.jpg,AMSA20.jpg,AMNE19.jpg,AMSA19.jpg,AMNE19.jpg,MN,1,num_2,32,num_6,1.58340066182,,,2017_Jun_16_1558,60.0108750314,MAFE4ImagesEEG,001,100726,
AFNE01.JPG,AFNE01.JPG,AFNE01.JPG,AFNE01.JPG,AFNE01.JPG,AFNE01.JPG,5,4,54,3,,,,,,,,,,,,,,,,,,,,,,,AMSA09.jpg,AMSA04.jpg,AMNE05.jpg,AMNE07.jpg,AMNE05.jpg,MN,1,num_2,16,num_2,1.616747263,,,2017_Jun_16_1558,60.0108750314,MAFE4ImagesEEG,001,100726,
AFNE01.JPG,AFNE01.JPG,AFNE01.JPG,AFNE01.JPG,AFNE01.JPG,AFNE01.JPG,5,5,55,1,,,,,,,,,,,,,,,,,,,,,,,AMSA14.jpg,AMNE11.jpg,AMNE14.jpg,AMSA12.jpg,AMSA14.jpg,MS,2,num_8,32,num_2,3.1333613873,,,2017_Jun_16_1558,60.0108750314,MAFE4ImagesEEG,001,100726,
AFNE01.JPG,AFNE01.JPG,AFNE01.JPG,AFNE01.JPG,AFNE01.JPG,AFNE01.JPG,5,6,56,4,,,,,,,,,,,,,,,,,,,,,,,AMNE18.jpg,AMNE05.jpg,AMSA11.jpg,AMSA20.jpg,AMNE18.jpg,MN,1,num_8,32,num_2,1.45006365073,,,2017_Jun_16_1558,60.0108750314,MAFE4ImagesEEG,001,100726,
AFNE01.JPG,AFNE01.JPG,AFNE01.JPG,AFNE01.JPG,AFNE01.JPG,AFNE01.JPG,5,7,57,8,,,,,,,,,,,,,,,,,,,,,,,AMNE15.jpg,AMSA02.jpg,AMNE01.jpg,AMSA07.jpg,AMSA07.jpg,MS,2,num_4,32,num_8,1.01675027795,,,2017_Jun_16_1558,60.0108750314,MAFE4ImagesEEG,001,100726,
AFNE01.JPG,AFNE01.JPG,AFNE01.JPG,AFNE01.JPG,AFNE01.JPG,AFNE01.JPG,5,8,58,0,,,,,,,,,,,,,,,,,,,,,,,AMSA04.jpg,AMNE07.jpg,AMNE14.jpg,AMSA18.jpg,AMNE07.jpg,MN,1,num_6,32,num_8,0.933547993307,,,2017_Jun_16_1558,60.0108750314,MAFE4ImagesEEG,001,100726,
AFNE01.JPG,AFNE01.JPG,AFNE01.JPG,AFNE01.JPG,AFNE01.JPG,AFNE01.JPG,5,9,59,7,,,,,,,,,,,,,,,,,,,,,,,AMSA02.jpg,AMSA09.jpg,AMNE09.jpg,AMNE15.jpg,AMSA02.jpg,MS,2,num_8,32,num_6,1.13349353184,,,2017_Jun_16_1558,60.0108750314,MAFE4ImagesEEG,001,100726,
,,,,,,,,,,,,,,,,,,,,,,,,,,,,,,,,,,,,,,,,,,,space,5.84974624717,2017_Jun_16_1558,60.0108750314,MAFE4ImagesEEG,001,100726,
AFNE01.JPG,AFNE01.JPG,AFNE01.JPG,AFNE01.JPG,AFNE01.JPG,AFNE01.JPG,,,,,0,0,0,0,,,,,,,,,,,,,,,,,,,AFNE04.jpg,AFSA17.jpg,AFNE13.jpg,AFSA03.jpg,AFNE13.jpg,FN,3,num_2,32,num_8,1.26668941777,,,2017_Jun_16_1558,60.0108750314,MAFE4ImagesEEG,001,100726,
AFNE01.JPG,AFNE01.JPG,AFNE01.JPG,AFNE01.JPG,AFNE01.JPG,AFNE01.JPG,,,,,0,1,1,2,,,,,,,,,,,,,,,,,,,AFNE10.jpg,AFSA02.jpg,AFNE07.jpg,AFSA06.jpg,AFSA02.jpg,FS,4,num_6,32,num_8,1.50007649628,,,2017_Jun_16_1558,60.0108750314,MAFE4ImagesEEG,001,100726,
AFNE01.JPG,AFNE01.JPG,AFNE01.JPG,AFNE01.JPG,AFNE01.JPG,AFNE01.JPG,,,,,0,2,2,5,,,,,,,,,,,,,,,,,,,AFNE07.jpg,AFSA05.jpg,AFNE13.jpg,AFSA07.jpg,AFNE07.jpg,FN,3,num_8,16,num_8,0.850156151806,,,2017_Jun_16_1558,60.0108750314,MAFE4ImagesEEG,001,100726,
AFNE01.JPG,AFNE01.JPG,AFNE01.JPG,AFNE01.JPG,AFNE01.JPG,AFNE01.JPG,,,,,0,3,3,3,,,,,,,,,,,,,,,,,,,AFSA09.jpg,AFNE09.jpg,AFSA16.jpg,AFNE14.jpg,AFSA09.jpg,FS,4,num_8,32,num_4,1.36667918612,,,2017_Jun_16_1558,60.0108750314,MAFE4ImagesEEG,001,100726,
AFNE01.JPG,AFNE01.JPG,AFNE01.JPG,AFNE01.JPG,AFNE01.JPG,AFNE01.JPG,,,,,0,4,4,7,,,,,,,,,,,,,,,,,,,AFNE12.jpg,AFSA12.jpg,AFNE04.jpg,AFSA18.jpg,AFNE12.jpg,FN,3,num_8,16,num_8,1.33330211474,,,2017_Jun_16_1558,60.0108750314,MAFE4ImagesEEG,001,100726,
AFNE01.JPG,AFNE01.JPG,AFNE01.JPG,AFNE01.JPG,AFNE01.JPG,AFNE01.JPG,,,,,0,5,5,8,,,,,,,,,,,,,,,,,,,AFSA01.jpg,AFNE14.jpg,AFSA10.jpg,AFNE08.jpg,AFSA01.jpg,FS,4,num_8,16,num_8,0.949725110549,,,2017_Jun_16_1558,60.0108750314,MAFE4ImagesEEG,001,100726,
AFNE01.JPG,AFNE01.JPG,AFNE01.JPG,AFNE01.JPG,AFNE01.JPG,AFNE01.JPG,,,,,0,6,6,4,,,,,,,,,,,,,,,,,,,AFNE13.jpg,AFSA16.jpg,AFSA20.jpg,AFNE01.jpg,AFNE13.jpg,FN,3,num_8,16,num_8,0.900055776583,,,2017_Jun_16_1558,60.0108750314,MAFE4ImagesEEG,001,100726,
AFNE01.JPG,AFNE01.JPG,AFNE01.JPG,AFNE01.JPG,AFNE01.JPG,AFNE01.JPG,,,,,0,7,7,6,,,,,,,,,,,,,,,,,,,AFSA08.jpg,AFSA14.jpg,AFNE17.jpg,AFNE14.jpg,AFNE17.jpg,FN,3,num_2,32,num_4,0.766633128049,,,2017_Jun_16_1558,60.0108750314,MAFE4ImagesEEG,001,100726,
AFNE01.JPG,AFNE01.JPG,AFNE01.JPG,AFNE01.JPG,AFNE01.JPG,AFNE01.JPG,,,,,0,8,8,1,,,,,,,,,,,,,,,,,,,AFSA12.jpg,AFSA19.jpg,AFNE19.jpg,AFNE02.jpg,AFNE19.jpg,FN,3,num_2,16,num_2,1.56670298497,,,2017_Jun_16_1558,60.0108750314,MAFE4ImagesEEG,001,100726,
AFNE01.JPG,AFNE01.JPG,AFNE01.JPG,AFNE01.JPG,AFNE01.JPG,AFNE01.JPG,,,,,0,9,9,9,,,,,,,,,,,,,,,,,,,AFNE04.jpg,AFSA20.jpg,AFSA10.jpg,AFNE03.jpg,AFSA10.jpg,FS,4,num_2,32,num_4,1.3167336958,,,2017_Jun_16_1558,60.0108750314,MAFE4ImagesEEG,001,100726,
AFNE01.JPG,AFNE01.JPG,AFNE01.JPG,AFNE01.JPG,AFNE01.JPG,AFNE01.JPG,,,,,1,0,10,0,,,,,,,,,,,,,,,,,,,AFNE19.jpg,AFNE04.jpg,AFSA05.jpg,AFSA15.jpg,AFSA05.jpg,FS,4,num_2,32,num_6,1.85008013668,,,2017_Jun_16_1558,60.0108750314,MAFE4ImagesEEG,001,100726,
AFNE01.JPG,AFNE01.JPG,AFNE01.JPG,AFNE01.JPG,AFNE01.JPG,AFNE01.JPG,,,,,1,1,11,7,,,,,,,,,,,,,,,,,,,AFNE15.jpg,AFSA08.jpg,AFSA01.jpg,AFNE01.jpg,AFSA01.jpg,FS,4,num_2,32,num_6,0.83342672186,,,2017_Jun_16_1558,60.0108750314,MAFE4ImagesEEG,001,100726,
AFNE01.JPG,AFNE01.JPG,AFNE01.JPG,AFNE01.JPG,AFNE01.JPG,AFNE01.JPG,,,,,1,2,12,1,,,,,,,,,,,,,,,,,,,AFSA12.jpg,AFNE12.jpg,AFSA05.jpg,AFNE13.jpg,AFSA12.jpg,FS,4,num_8,32,num_2,1.53340096655,,,2017_Jun_16_1558,60.0108750314,MAFE4ImagesEEG,001,100726,
AFNE01.JPG,AFNE01.JPG,AFNE01.JPG,AFNE01.JPG,AFNE01.JPG,AFNE01.JPG,,,,,1,3,13,6,,,,,,,,,,,,,,,,,,,AFSA13.jpg,AFNE11.jpg,AFNE13.jpg,AFSA09.jpg,AFSA09.jpg,FS,4,num_4,16,num_4,0.816775231506,,,2017_Jun_16_1558,60.0108750314,MAFE4ImagesEEG,001,100726,
AFNE01.JPG,AFNE01.JPG,AFNE01.JPG,AFNE01.JPG,AFNE01.JPG,AFNE01.JPG,,,,,1,4,14,9,,,,,,,,,,,,,,,,,,,AFSA17.jpg,AFSA14.jpg,AFNE05.jpg,AFNE19.jpg,AFNE19.jpg,FN,3,num_4,32,num_8,0.9834675038,,,2017_Jun_16_1558,60.0108750314,MAFE4ImagesEEG,001,100726,
AFNE01.JPG,AFNE01.JPG,AFNE01.JPG,AFNE01.JPG,AFNE01.JPG,AFNE01.JPG,,,,,1,5,15,5,,,,,,,,,,,,,,,,,,,AFNE02.jpg,AFSA06.jpg,AFSA10.jpg,AFNE20.jpg,AFNE02.jpg,FN,3,num_8,16,num_8,0.950183446752,,,2017_Jun_16_1558,60.0108750314,MAFE4ImagesEEG,001,100726,
AFNE01.JPG,AFNE01.JPG,AFNE01.JPG,AFNE01.JPG,AFNE01.JPG,AFNE01.JPG,,,,,1,6,16,8,,,,,,,,,,,,,,,,,,,AFNE11.jpg,AFSA11.jpg,AFNE01.jpg,AFSA10.jpg,AFSA10.jpg,FS,4,num_4,32,num_6,1.13351919095,,,2017_Jun_16_1558,60.0108750314,MAFE4ImagesEEG,001,100726,
AFNE01.JPG,AFNE01.JPG,AFNE01.JPG,AFNE01.JPG,AFNE01.JPG,AFNE01.JPG,,,,,1,7,17,2,,,,,,,,,,,,,,,,,,,AFNE03.jpg,AFNE18.jpg,AFSA12.jpg,AFSA10.jpg,AFSA12.jpg,FS,4,num_2,32,num_4,3.31666441623,,,2017_Jun_16_1558,60.0108750314,MAFE4ImagesEEG,001,100726,
AFNE01.JPG,AFNE01.JPG,AFNE01.JPG,AFNE01.JPG,AFNE01.JPG,AFNE01.JPG,,,,,1,8,18,3,,,,,,,,,,,,,,,,,,,AFNE11.jpg,AFSA03.jpg,AFSA04.jpg,AFNE15.jpg,AFNE15.jpg,FN,3,num_4,32,num_8,1.18345987017,,,2017_Jun_16_1558,60.0108750314,MAFE4ImagesEEG,001,100726,
AFNE01.JPG,AFNE01.JPG,AFNE01.JPG,AFNE01.JPG,AFNE01.JPG,AFNE01.JPG,,,,,1,9,19,4,,,,,,,,,,,,,,,,,,,AFSA09.jpg,AFNE19.jpg,AFNE15.jpg,AFSA05.jpg,AFNE15.jpg,FN,3,num_2,16,num_2,0.533463510685,,,2017_Jun_16_1558,60.0108750314,MAFE4ImagesEEG,001,100726,
AFNE01.JPG,AFNE01.JPG,AFNE01.JPG,AFNE01.JPG,AFNE01.JPG,AFNE01.JPG,,,,,2,0,20,5,,,,,,,,,,,,,,,,,,,AFNE20.jpg,AFSA01.jpg,AFSA16.jpg,AFNE11.jpg,AFSA16.jpg,FS,4,num_2,32,num_4,2.38332650694,,,2017_Jun_16_1558,60.0108750314,MAFE4ImagesEEG,001,100726,
AFNE01.JPG,AFNE01.JPG,AFNE01.JPG,AFNE01.JPG,AFNE01.JPG,AFNE01.JPG,,,,,2,1,21,9,,,,,,,,,,,,,,,,,,,AFNE19.jpg,AFSA17.jpg,AFSA13.jpg,AFNE10.jpg,AFNE19.jpg,FN,3,num_8,16,num_8,1.30008445051,,,2017_Jun_16_1558,60.0108750314,MAFE4ImagesEEG,001,100726,
AFNE01.JPG,AFNE01.JPG,AFNE01.JPG,AFNE01.JPG,AFNE01.JPG,AFNE01.JPG,,,,,2,2,22,1,,,,,,,,,,,,,,,,,,,AFSA09.jpg,AFNE03.jpg,AFSA20.jpg,AFNE02.jpg,AFNE02.jpg,FN,3,num_4,32,num_8,1.06678493379,,,2017_Jun_16_1558,60.0108750314,MAFE4ImagesEEG,001,100726,
AFNE01.JPG,AFNE01.JPG,AFNE01.JPG,AFNE01.JPG,AFNE01.JPG,AFNE01.JPG,,,,,2,3,23,0,,,,,,,,,,,,,,,,,,,AFNE20.jpg,AFNE09.jpg,AFSA12.jpg,AFSA06.jpg,AFNE20.jpg,FN,3,num_8,32,num_4,0.816732893931,,,2017_Jun_16_1558,60.0108750314,MAFE4ImagesEEG,001,100726,
AFNE01.JPG,AFNE01.JPG,AFNE01.JPG,AFNE01.JPG,AFNE01.JPG,AFNE01.JPG,,,,,2,4,24,4,,,,,,,,,,,,,,,,,,,AFSA17.jpg,AFNE14.jpg,AFSA05.jpg,AFNE04.jpg,AFSA17.jpg,FS,4,num_8,32,num_4,0.967018720577,,,2017_Jun_16_1558,60.0108750314,MAFE4ImagesEEG,001,100726,
AFNE01.JPG,AFNE01.JPG,AFNE01.JPG,AFNE01.JPG,AFNE01.JPG,AFNE01.JPG,,,,,2,5,25,6,,,,,,,,,,,,,,,,,,,AFSA17.jpg,AFNE20.jpg,AFNE17.jpg,AFSA11.jpg,AFNE17.jpg,FN,3,num_2,32,num_6,0.716821385897,,,2017_Jun_16_1558,60.0108750314,MAFE4ImagesEEG,001,100726,
AFNE01.JPG,AFNE01.JPG,AFNE01.JPG,AFNE01.JPG,AFNE01.JPG,AFNE01.JPG,,,,,2,6,26,7,,,,,,,,,,,,,,,,,,,AFSA01.jpg,AFSA14.jpg,AFNE03.jpg,AFNE09.jpg,AFNE09.jpg,FN,3,num_4,32,num_8,0.666770372307,,,2017_Jun_16_1558,60.0108750314,MAFE4ImagesEEG,001,100726,
AFNE01.JPG,AFNE01.JPG,AFNE01.JPG,AFNE01.JPG,AFNE01.JPG,AFNE01.JPG,,,,,2,7,27,8,,,,,,,,,,,,,,,,,,,AFNE16.jpg,AFNE18.jpg,AFSA18.jpg,AFSA16.jpg,AFSA16.jpg,FS,4,num_4,16,num_4,1.20015305665,,,2017_Jun_16_1558,60.0108750314,MAFE4ImagesEEG,001,100726,
AFNE01.JPG,AFNE01.JPG,AFNE01.JPG,AFNE01.JPG,AFNE01.JPG,AFNE01.JPG,,,,,2,8,28,2,,,,,,,,,,,,,,,,,,,AFNE06.jpg,AFSA01.jpg,AFNE09.jpg,AFSA12.jpg,AFNE09.jpg,FN,3,num_2,16,num_2,0.60016793909,,,2017_Jun_16_1558,60.0108750314,MAFE4ImagesEEG,001,100726,
AFNE01.JPG,AFNE01.JPG,AFNE01.JPG,AFNE01.JPG,AFNE01.JPG,AFNE01.JPG,,,,,2,9,29,3,,,,,,,,,,,,,,,,,,,AFSA01.jpg,AFNE09.jpg,AFNE12.jpg,AFSA14.jpg,AFNE09.jpg,FN,3,num_6,16,num_6,1.050134085,,,2017_Jun_16_1558,60.0108750314,MAFE4ImagesEEG,001,100726,
AFNE01.JPG,AFNE01.JPG,AFNE01.JPG,AFNE01.JPG,AFNE01.JPG,AFNE01.JPG,,,,,3,0,30,3,,,,,,,,,,,,,,,,,,,AFNE17.jpg,AFSA12.jpg,AFSA17.jpg,AFNE13.jpg,AFSA17.jpg,FS,4,num_2,32,num_8,1.95001441718,,,2017_Jun_16_1558,60.0108750314,MAFE4ImagesEEG,001,100726,
AFNE01.JPG,AFNE01.JPG,AFNE01.JPG,AFNE01.JPG,AFNE01.JPG,AFNE01.JPG,,,,,3,1,31,0,,,,,,,,,,,,,,,,,,,AFSA11.jpg,AFNE05.jpg,AFSA10.jpg,AFNE08.jpg,AFNE05.jpg,FN,3,num_6,32,num_4,1.20016203739,,,2017_Jun_16_1558,60.0108750314,MAFE4ImagesEEG,001,100726,
AFNE01.JPG,AFNE01.JPG,AFNE01.JPG,AFNE01.JPG,AFNE01.JPG,AFNE01.JPG,,,,,3,2,32,7,,,,,,,,,,,,,,,,,,,AFSA11.jpg,AFNE17.jpg,AFNE14.jpg,AFSA07.jpg,AFNE14.jpg,FN,3,num_2,16,num_2,0.966640889994,,,2017_Jun_16_1558,60.0108750314,MAFE4ImagesEEG,001,100726,
AFNE01.JPG,AFNE01.JPG,AFNE01.JPG,AFNE01.JPG,AFNE01.JPG,AFNE01.JPG,,,,,3,3,33,2,,,,,,,,,,,,,,,,,,,AFNE11.jpg,AFSA10.jpg,AFNE08.jpg,AFSA16.jpg,AFNE08.jpg,FN,3,num_2,32,num_8,0.950151051977,,,2017_Jun_16_1558,60.0108750314,MAFE4ImagesEEG,001,100726,
AFNE01.JPG,AFNE01.JPG,AFNE01.JPG,AFNE01.JPG,AFNE01.JPG,AFNE01.JPG,,,,,3,4,34,5,,,,,,,,,,,,,,,,,,,AFSA02.jpg,AFSA06.jpg,AFNE12.jpg,AFNE17.jpg,AFNE17.jpg,FN,3,num_4,16,num_4,1.60006786836,,,2017_Jun_16_1558,60.0108750314,MAFE4ImagesEEG,001,100726,
AFNE01.JPG,AFNE01.JPG,AFNE01.JPG,AFNE01.JPG,AFNE01.JPG,AFNE01.JPG,,,,,3,5,35,9,,,,,,,,,,,,,,,,,,,AFSA16.jpg,AFSA07.jpg,AFNE16.jpg,AFNE14.jpg,AFNE14.jpg,FN,3,num_4,16,num_4,1.45013709995,,,2017_Jun_16_1558,60.0108750314,MAFE4ImagesEEG,001,100726,
AFNE01.JPG,AFNE01.JPG,AFNE01.JPG,AFNE01.JPG,AFNE01.JPG,AFNE01.JPG,,,,,3,6,36,6,,,,,,,,,,,,,,,,,,,AFSA10.jpg,AFNE13.jpg,AFSA09.jpg,AFNE06.jpg,AFNE06.jpg,FN,3,num_4,32,num_8,0.933472940349,,,2017_Jun_16_1558,60.0108750314,MAFE4ImagesEEG,001,100726,
AFNE01.JPG,AFNE01.JPG,AFNE01.JPG,AFNE01.JPG,AFNE01.JPG,AFNE01.JPG,,,,,3,7,37,1,,,,,,,,,,,,,,,,,,,AFNE04.jpg,AFSA12.jpg,AFNE17.jpg,AFSA04.jpg,AFSA04.jpg,FS,4,num_4,32,num_6,0.833438589238,,,2017_Jun_16_1558,60.0108750314,MAFE4ImagesEEG,001,100726,
AFNE01.JPG,AFNE01.JPG,AFNE01.JPG,AFNE01.JPG,AFNE01.JPG,AFNE01.JPG,,,,,3,8,38,4,,,,,,,,,,,,,,,,,,,AFNE13.jpg,AFNE08.jpg,AFSA20.jpg,AFSA11.jpg,AFNE13.jpg,FN,3,num_8,16,num_8,1.1334502321,,,2017_Jun_16_1558,60.0108750314,MAFE4ImagesEEG,001,100726,
AFNE01.JPG,AFNE01.JPG,AFNE01.JPG,AFNE01.JPG,AFNE01.JPG,AFNE01.JPG,,,,,3,9,39,8,,,,,,,,,,,,,,,,,,,AFSA05.jpg,AFNE05.jpg,AFNE15.jpg,AFSA18.jpg,AFNE15.jpg,FN,3,num_2,16,num_2,1.16675481643,,,2017_Jun_16_1558,60.0108750314,MAFE4ImagesEEG,001,100726,
AFNE01.JPG,AFNE01.JPG,AFNE01.JPG,AFNE01.JPG,AFNE01.JPG,AFNE01.JPG,,,,,4,0,40,3,,,,,,,,,,,,,,,,,,,AFNE10.jpg,AFSA05.jpg,AFSA04.jpg,AFNE20.jpg,AFNE10.jpg,FN,3,num_8,32,num_4,1.11676249816,,,2017_Jun_16_1558,60.0108750314,MAFE4ImagesEEG,001,100726,
AFNE01.JPG,AFNE01.JPG,AFNE01.JPG,AFNE01.JPG,AFNE01.JPG,AFNE01.JPG,,,,,4,1,41,1,,,,,,,,,,,,,,,,,,,AFNE09.jpg,AFSA09.jpg,AFSA13.jpg,AFNE13.jpg,AFSA09.jpg,FS,4,num_6,32,num_8,0.966762450058,,,2017_Jun_16_1558,60.0108750314,MAFE4ImagesEEG,001,100726,
AFNE01.JPG,AFNE01.JPG,AFNE01.JPG,AFNE01.JPG,AFNE01.JPG,AFNE01.JPG,,,,,4,2,42,2,,,,,,,,,,,,,,,,,,,AFSA11.jpg,AFNE14.jpg,AFSA09.jpg,AFNE05.jpg,AFSA11.jpg,FS,4,num_8,16,num_8,0.866758248303,,,2017_Jun_16_1558,60.0108750314,MAFE4ImagesEEG,001,100726,
AFNE01.JPG,AFNE01.JPG,AFNE01.JPG,AFNE01.JPG,AFNE01.JPG,AFNE01.JPG,,,,,4,3,43,9,,,,,,,,,,,,,,,,,,,AFSA19.jpg,AFSA05.jpg,AFNE17.jpg,AFNE11.jpg,AFNE17.jpg,FN,3,num_2,32,num_4,0.916744472575,,,2017_Jun_16_1558,60.0108750314,MAFE4ImagesEEG,001,100726,
AFNE01.JPG,AFNE01.JPG,AFNE01.JPG,AFNE01.JPG,AFNE01.JPG,AFNE01.JPG,,,,,4,4,44,4,,,,,,,,,,,,,,,,,,,AFNE15.jpg,AFSA04.jpg,AFNE09.jpg,AFSA05.jpg,AFSA05.jpg,FS,4,num_4,16,num_4,1.06674484152,,,2017_Jun_16_1558,60.0108750314,MAFE4ImagesEEG,001,100726,
AFNE01.JPG,AFNE01.JPG,AFNE01.JPG,AFNE01.JPG,AFNE01.JPG,AFNE01.JPG,,,,,4,5,45,8,,,,,,,,,,,,,,,,,,,AFSA18.jpg,AFSA04.jpg,AFNE19.jpg,AFNE15.jpg,AFNE19.jpg,FN,3,num_2,32,num_6,0.90012281097,,,2017_Jun_16_1558,60.0108750314,MAFE4ImagesEEG,001,100726,
AFNE01.JPG,AFNE01.JPG,AFNE01.JPG,AFNE01.JPG,AFNE01.JPG,AFNE01.JPG,,,,,4,6,46,6,,,,,,,,,,,,,,,,,,,AFSA10.jpg,AFSA20.jpg,AFNE12.jpg,AFNE06.jpg,AFNE06.jpg,FN,3,num_4,32,num_2,1.0167409766,,,2017_Jun_16_1558,60.0108750314,MAFE4ImagesEEG,001,100726,
AFNE01.JPG,AFNE01.JPG,AFNE01.JPG,AFNE01.JPG,AFNE01.JPG,AFNE01.JPG,,,,,4,7,47,5,,,,,,,,,,,,,,,,,,,AFNE03.jpg,AFSA01.jpg,AFSA12.jpg,AFNE19.jpg,AFSA01.jpg,FS,4,num_6,32,num_4,0.783478986239,,,2017_Jun_16_1558,60.0108750314,MAFE4ImagesEEG,001,100726,
AFNE01.JPG,AFNE01.JPG,AFNE01.JPG,AFNE01.JPG,AFNE01.JPG,AFNE01.JPG,,,,,4,8,48,7,,,,,,,,,,,,,,,,,,,AFNE02.jpg,AFSA02.jpg,AFSA15.jpg,AFNE14.jpg,AFSA02.jpg,FS,4,num_6,32,num_8,0.916770131793,,,2017_Jun_16_1558,60.0108750314,MAFE4ImagesEEG,001,100726,
AFNE01.JPG,AFNE01.JPG,AFNE01.JPG,AFNE01.JPG,AFNE01.JPG,AFNE01.JPG,,,,,4,9,49,0,,,,,,,,,,,,,,,,,,,AFSA05.jpg,AFSA08.jpg,AFNE14.jpg,AFNE20.jpg,AFSA05.jpg,FS,4,num_8,32,num_6,0.950141750625,,,2017_Jun_16_1558,60.0108750314,MAFE4ImagesEEG,001,100726,
AFNE01.JPG,AFNE01.JPG,AFNE01.JPG,AFNE01.JPG,AFNE01.JPG,AFNE01.JPG,,,,,5,0,50,0,,,,,,,,,,,,,,,,,,,AFNE02.jpg,AFNE13.jpg,AFSA03.jpg,AFSA13.jpg,AFSA13.jpg,FS,4,num_4,32,num_8,0.883479980635,,,2017_Jun_16_1558,60.0108750314,MAFE4ImagesEEG,001,100726,
AFNE01.JPG,AFNE01.JPG,AFNE01.JPG,AFNE01.JPG,AFNE01.JPG,AFNE01.JPG,,,,,5,1,51,4,,,,,,,,,,,,,,,,,,,AFSA20.jpg,AFNE13.jpg,AFSA02.jpg,AFNE20.jpg,AFSA20.jpg,FS,4,num_8,32,num_4,0.833448532154,,,2017_Jun_16_1558,60.0108750314,MAFE4ImagesEEG,001,100726,
AFNE01.JPG,AFNE01.JPG,AFNE01.JPG,AFNE01.JPG,AFNE01.JPG,AFNE01.JPG,,,,,5,2,52,6,,,,,,,,,,,,,,,,,,,AFSA01.jpg,AFNE16.jpg,AFSA19.jpg,AFNE02.jpg,AFNE16.jpg,FN,3,num_6,32,num_8,0.966749299783,,,2017_Jun_16_1558,60.0108750314,MAFE4ImagesEEG,001,100726,
AFNE01.JPG,AFNE01.JPG,AFNE01.JPG,AFNE01.JPG,AFNE01.JPG,AFNE01.JPG,,,,,5,3,53,2,,,,,,,,,,,,,,,,,,,AFSA17.jpg,AFSA03.jpg,AFNE04.jpg,AFNE07.jpg,AFNE07.jpg,FN,3,num_4,16,num_4,1.65010990133,,,2017_Jun_16_1558,60.0108750314,MAFE4ImagesEEG,001,100726,
AFNE01.JPG,AFNE01.JPG,AFNE01.JPG,AFNE01.JPG,AFNE01.JPG,AFNE01.JPG,,,,,5,4,54,1,,,,,,,,,,,,,,,,,,,AFSA08.jpg,AFNE09.jpg,AFNE01.jpg,AFSA19.jpg,AFSA19.jpg,FS,4,num_4,16,num_4,0.850138831884,,,2017_Jun_16_1558,60.0108750314,MAFE4ImagesEEG,001,100726,
AFNE01.JPG,AFNE01.JPG,AFNE01.JPG,AFNE01.JPG,AFNE01.JPG,AFNE01.JPG,,,,,5,5,55,9,,,,,,,,,,,,,,,,,,,AFSA06.jpg,AFNE05.jpg,AFNE03.jpg,AFSA17.jpg,AFNE05.jpg,FN,3,num_6,16,num_6,0.933539333404,,,2017_Jun_16_1558,60.0108750314,MAFE4ImagesEEG,001,100726,
AFNE01.JPG,AFNE01.JPG,AFNE01.JPG,AFNE01.JPG,AFNE01.JPG,AFNE01.JPG,,,,,5,6,56,5,,,,,,,,,,,,,,,,,,,AFSA07.jpg,AFNE09.jpg,AFSA19.jpg,AFNE14.jpg,AFNE14.jpg,FN,3,num_4,32,num_8,1.11664286244,,,2017_Jun_16_1558,60.0108750314,MAFE4ImagesEEG,001,100726,
AFNE01.JPG,AFNE01.JPG,AFNE01.JPG,AFNE01.JPG,AFNE01.JPG,AFNE01.JPG,,,,,5,7,57,7,,,,,,,,,,,,,,,,,,,AFSA14.jpg,AFNE08.jpg,AFSA13.jpg,AFNE20.jpg,AFSA14.jpg,FS,4,num_8,32,num_4,0.833453984698,,,2017_Jun_16_1558,60.0108750314,MAFE4ImagesEEG,001,100726,
AFNE01.JPG,AFNE01.JPG,AFNE01.JPG,AFNE01.JPG,AFNE01.JPG,AFNE01.JPG,,,,,5,8,58,8,,,,,,,,,,,,,,,,,,,AFNE18.jpg,AFSA18.jpg,AFNE04.jpg,AFSA01.jpg,AFSA18.jpg,FS,4,num_6,32,num_4,1.10009529162,,,2017_Jun_16_1558,60.0108750314,MAFE4ImagesEEG,001,100726,
AFNE01.JPG,AFNE01.JPG,AFNE01.JPG,AFNE01.JPG,AFNE01.JPG,AFNE01.JPG,,,,,5,9,59,3,,,,,,,,,,,,,,,,,,,AFNE07.jpg,AFSA08.jpg,AFNE13.jpg,AFSA06.jpg,AFSA06.jpg,FS,4,num_4,16,num_4,0.700174385798,,,2017_Jun_16_1558,60.0108750314,MAFE4ImagesEEG,001,100726,
,,,,,,,,,,,,,,,,,,,,,,,,,,,,,,,,,,,,,,,,,,,space,1.733410332,2017_Jun_16_1558,60.0108750314,MAFE4ImagesEEG,001,100726,
AFNE01.JPG,AFNE01.JPG,AFNE01.JPG,AFNE01.JPG,AFNE01.JPG,AFNE01.JPG,,,,,,,,,0,0,0,0,,,,,,,,,,,,,,,AMNE11.jpg,AMSA18.jpg,AMNE01.jpg,AMSA07.jpg,AMSA07.jpg,MS,2,num_4,16,num_4,1.53340353246,,,2017_Jun_16_1558,60.0108750314,MAFE4ImagesEEG,001,100726,
AFNE01.JPG,AFNE01.JPG,AFNE01.JPG,AFNE01.JPG,AFNE01.JPG,AFNE01.JPG,,,,,,,,,0,1,1,1,,,,,,,,,,,,,,,AMNE16.jpg,AMNE14.jpg,AMSA01.jpg,AMSA20.jpg,AMNE16.jpg,MN,1,num_8,16,num_8,0.933487052913,,,2017_Jun_16_1558,60.0108750314,MAFE4ImagesEEG,001,100726,
AFNE01.JPG,AFNE01.JPG,AFNE01.JPG,AFNE01.JPG,AFNE01.JPG,AFNE01.JPG,,,,,,,,,0,2,2,7,,,,,,,,,,,,,,,AMSA15.jpg,AMNE05.jpg,AMNE01.jpg,AMSA12.jpg,AMNE05.jpg,MN,1,num_6,16,num_6,1.10011325288,,,2017_Jun_16_1558,60.0108750314,MAFE4ImagesEEG,001,100726,
AFNE01.JPG,AFNE01.JPG,AFNE01.JPG,AFNE01.JPG,AFNE01.JPG,AFNE01.JPG,,,,,,,,,0,3,3,2,,,,,,,,,,,,,,,AMSA15.jpg,AMNE17.jpg,AMSA03.jpg,AMNE01.jpg,AMNE01.jpg,MN,1,num_4,16,num_4,1.00010424014,,,2017_Jun_16_1558,60.0108750314,MAFE4ImagesEEG,001,100726,
AFNE01.JPG,AFNE01.JPG,AFNE01.JPG,AFNE01.JPG,AFNE01.JPG,AFNE01.JPG,,,,,,,,,0,4,4,6,,,,,,,,,,,,,,,AMSA10.jpg,AMSA06.jpg,AMNE10.jpg,AMNE09.jpg,AMSA10.jpg,MS,2,num_8,16,num_8,0.916804450913,,,2017_Jun_16_1558,60.0108750314,MAFE4ImagesEEG,001,100726,
AFNE01.JPG,AFNE01.JPG,AFNE01.JPG,AFNE01.JPG,AFNE01.JPG,AFNE01.JPG,,,,,,,,,0,5,5,8,,,,,,,,,,,,,,,AMSA13.jpg,AMSA01.jpg,AMNE16.jpg,AMNE17.jpg,AMSA13.jpg,MS,2,num_8,32,num_4,1.03332254582,,,2017_Jun_16_1558,60.0108750314,MAFE4ImagesEEG,001,100726,
AFNE01.JPG,AFNE01.JPG,AFNE01.JPG,AFNE01.JPG,AFNE01.JPG,AFNE01.JPG,,,,,,,,,0,6,6,3,,,,,,,,,,,,,,,AMNE17.jpg,AMSA15.jpg,AMSA11.jpg,AMNE20.jpg,AMNE17.jpg,MN,1,num_8,32,num_4,0.866861526272,,,2017_Jun_16_1558,60.0108750314,MAFE4ImagesEEG,001,100726,
AFNE01.JPG,AFNE01.JPG,AFNE01.JPG,AFNE01.JPG,AFNE01.JPG,AFNE01.JPG,,,,,,,,,0,7,7,4,,,,,,,,,,,,,,,AMSA07.jpg,AMNE02.jpg,AMNE04.jpg,AMSA11.jpg,AMSA07.jpg,MS,2,num_8,32,num_4,0.833480926813,,,2017_Jun_16_1558,60.0108750314,MAFE4ImagesEEG,001,100726,
AFNE01.JPG,AFNE01.JPG,AFNE01.JPG,AFNE01.JPG,AFNE01.JPG,AFNE01.JPG,,,,,,,,,0,8,8,9,,,,,,,,,,,,,,,AMNE04.jpg,AMNE01.jpg,AMSA02.jpg,AMSA07.jpg,AMSA02.jpg,MS,2,num_2,32,num_8,1.15007927071,,,2017_Jun_16_1558,60.0108750314,MAFE4ImagesEEG,001,100726,
AFNE01.JPG,AFNE01.JPG,AFNE01.JPG,AFNE01.JPG,AFNE01.JPG,AFNE01.JPG,,,,,,,,,0,9,9,5,,,,,,,,,,,,,,,AMNE07.jpg,AMSA19.jpg,AMNE11.jpg,AMSA06.jpg,AMSA06.jpg,MS,2,num_4,16,num_4,0.816773948609,,,2017_Jun_16_1558,60.0108750314,MAFE4ImagesEEG,001,100726,
AFNE01.JPG,AFNE01.JPG,AFNE01.JPG,AFNE01.JPG,AFNE01.JPG,AFNE01.JPG,,,,,,,,,1,0,10,1,,,,,,,,,,,,,,,AMSA07.jpg,AMSA02.jpg,AMNE10.jpg,AMNE08.jpg,AMSA07.jpg,MS,2,num_8,32,num_4,0.716805348871,,,2017_Jun_16_1558,60.0108750314,MAFE4ImagesEEG,001,100726,
AFNE01.JPG,AFNE01.JPG,AFNE01.JPG,AFNE01.JPG,AFNE01.JPG,AFNE01.JPG,,,,,,,,,1,1,11,0,,,,,,,,,,,,,,,AMSA14.jpg,AMNE20.jpg,AMSA02.jpg,AMNE05.jpg,AMNE20.jpg,MN,1,num_6,16,num_6,0.866743815131,,,2017_Jun_16_1558,60.0108750314,MAFE4ImagesEEG,001,100726,
AFNE01.JPG,AFNE01.JPG,AFNE01.JPG,AFNE01.JPG,AFNE01.JPG,AFNE01.JPG,,,,,,,,,1,2,12,3,,,,,,,,,,,,,,,AMNE03.jpg,AMNE17.jpg,AMSA04.jpg,AMSA01.jpg,AMSA04.jpg,MS,2,num_2,16,num_2,2.03338765586,,,2017_Jun_16_1558,60.0108750314,MAFE4ImagesEEG,001,100726,
AFNE01.JPG,AFNE01.JPG,AFNE01.JPG,AFNE01.JPG,AFNE01.JPG,AFNE01.JPG,,,,,,,,,1,3,13,9,,,,,,,,,,,,,,,AMNE13.jpg,AMSA19.jpg,AMNE14.jpg,AMSA13.jpg,AMNE13.jpg,MN,1,num_8,16,num_8,1.21672628669,,,2017_Jun_16_1558,60.0108750314,MAFE4ImagesEEG,001,100726,
AFNE01.JPG,AFNE01.JPG,AFNE01.JPG,AFNE01.JPG,AFNE01.JPG,AFNE01.JPG,,,,,,,,,1,4,14,2,,,,,,,,,,,,,,,AMNE08.jpg,AMNE03.jpg,AMSA04.jpg,AMSA14.jpg,AMSA14.jpg,MS,2,num_4,16,num_4,0.983474880806,,,2017_Jun_16_1558,60.0108750314,MAFE4ImagesEEG,001,100726,
AFNE01.JPG,AFNE01.JPG,AFNE01.JPG,AFNE01.JPG,AFNE01.JPG,AFNE01.JPG,,,,,,,,,1,5,15,5,,,,,,,,,,,,,,,AMNE04.jpg,AMNE02.jpg,AMSA10.jpg,AMSA09.jpg,AMSA10.jpg,MS,2,num_2,32,num_4,0.966817937908,,,2017_Jun_16_1558,60.0108750314,MAFE4ImagesEEG,001,100726,
AFNE01.JPG,AFNE01.JPG,AFNE01.JPG,AFNE01.JPG,AFNE01.JPG,AFNE01.JPG,,,,,,,,,1,6,16,8,,,,,,,,,,,,,,,AMNE12.jpg,AMSA17.jpg,AMSA02.jpg,AMNE19.jpg,AMSA17.jpg,MS,2,num_6,32,num_2,1.58338109672,,,2017_Jun_16_1558,60.0108750314,MAFE4ImagesEEG,001,100726,
AFNE01.JPG,AFNE01.JPG,AFNE01.JPG,AFNE01.JPG,AFNE01.JPG,AFNE01.JPG,,,,,,,,,1,7,17,7,,,,,,,,,,,,,,,AMNE13.jpg,AMNE19.jpg,AMSA01.jpg,AMSA07.jpg,AMSA01.jpg,MS,2,num_2,32,num_4,1.15010204306,,,2017_Jun_16_1558,60.0108750314,MAFE4ImagesEEG,001,100726,
AFNE01.JPG,AFNE01.JPG,AFNE01.JPG,AFNE01.JPG,AFNE01.JPG,AFNE01.JPG,,,,,,,,,1,8,18,4,,,,,,,,,,,,,,,AMNE18.jpg,AMNE07.jpg,AMSA13.jpg,AMSA01.jpg,AMNE07.jpg,MN,1,num_6,32,num_8,0.86679994443,,,2017_Jun_16_1558,60.0108750314,MAFE4ImagesEEG,001,100726,
AFNE01.JPG,AFNE01.JPG,AFNE01.JPG,AFNE01.JPG,AFNE01.JPG,AFNE01.JPG,,,,,,,,,1,9,19,6,,,,,,,,,,,,,,,AMSA17.jpg,AMNE11.jpg,AMNE13.jpg,AMSA20.jpg,AMSA20.jpg,MS,2,num_4,32,num_8,1.2167310979,,,2017_Jun_16_1558,60.0108750314,MAFE4ImagesEEG,001,100726,
AFNE01.JPG,AFNE01.JPG,AFNE01.JPG,AFNE01.JPG,AFNE01.JPG,AFNE01.JPG,,,,,,,,,2,0,20,6,,,,,,,,,,,,,,,AMNE17.jpg,AMNE13.jpg,AMSA19.jpg,AMSA04.jpg,AMSA19.jpg,MS,2,num_2,32,num_4,1.16676283488,,,2017_Jun_16_1558,60.0108750314,MAFE4ImagesEEG,001,100726,
AFNE01.JPG,AFNE01.JPG,AFNE01.JPG,AFNE01.JPG,AFNE01.JPG,AFNE01.JPG,,,,,,,,,2,1,21,5,,,,,,,,,,,,,,,AMNE06.jpg,AMNE12.jpg,AMSA17.jpg,AMSA08.jpg,AMNE06.jpg,MN,1,num_8,32,num_4,0.750131743611,,,2017_Jun_16_1558,60.0108750314,MAFE4ImagesEEG,001,100726,
AFNE01.JPG,AFNE01.JPG,AFNE01.JPG,AFNE01.JPG,AFNE01.JPG,AFNE01.JPG,,,,,,,,,2,2,22,1,,,,,,,,,,,,,,,AMNE18.jpg,AMSA06.jpg,AMSA01.jpg,AMNE20.jpg,AMSA01.jpg,MS,2,num_2,16,num_2,1.13349513558,,,2017_Jun_16_1558,60.0108750314,MAFE4ImagesEEG,001,100726,
AFNE01.JPG,AFNE01.JPG,AFNE01.JPG,AFNE01.JPG,AFNE01.JPG,AFNE01.JPG,,,,,,,,,2,3,23,9,,,,,,,,,,,,,,,AMNE10.jpg,AMSA03.jpg,AMNE19.jpg,AMSA12.jpg,AMNE19.jpg,MN,1,num_2,32,num_8,0.916757622967,,,2017_Jun_16_1558,60.0108750314,MAFE4ImagesEEG,001,100726,
AFNE01.JPG,AFNE01.JPG,AFNE01.JPG,AFNE01.JPG,AFNE01.JPG,AFNE01.JPG,,,,,,,,,2,4,24,2,,,,,,,,,,,,,,,AMNE07.jpg,AMNE20.jpg,AMSA02.jpg,AMSA14.jpg,AMNE20.jpg,MN,1,num_6,32,num_8,1.23342139763,,,2017_Jun_16_1558,60.0108750314,MAFE4ImagesEEG,001,100726,
AFNE01.JPG,AFNE01.JPG,AFNE01.JPG,AFNE01.JPG,AFNE01.JPG,AFNE01.JPG,,,,,,,,,2,5,25,4,,,,,,,,,,,,,,,AMSA02.jpg,AMNE19.jpg,AMSA12.jpg,AMNE16.jpg,AMSA02.jpg,MS,2,num_8,16,num_8,1.26675613155,,,2017_Jun_16_1558,60.0108750314,MAFE4ImagesEEG,001,100726,
AFNE01.JPG,AFNE01.JPG,AFNE01.JPG,AFNE01.JPG,AFNE01.JPG,AFNE01.JPG,,,,,,,,,2,6,26,7,,,,,,,,,,,,,,,AMSA02.jpg,AMNE09.jpg,AMSA18.jpg,AMNE04.jpg,AMSA02.jpg,MS,2,num_8,16,num_8,0.933132636244,,,2017_Jun_16_1558,60.0108750314,MAFE4ImagesEEG,001,100726,
AFNE01.JPG,AFNE01.JPG,AFNE01.JPG,AFNE01.JPG,AFNE01.JPG,AFNE01.JPG,,,,,,,,,2,7,27,8,,,,,,,,,,,,,,,AMSA03.jpg,AMSA09.jpg,AMNE10.jpg,AMNE05.jpg,AMSA09.jpg,MS,2,num_6,32,num_8,0.900109019247,,,2017_Jun_16_1558,60.0108750314,MAFE4ImagesEEG,001,100726,
AFNE01.JPG,AFNE01.JPG,AFNE01.JPG,AFNE01.JPG,AFNE01.JPG,AFNE01.JPG,,,,,,,,,2,8,28,0,,,,,,,,,,,,,,,AMSA19.jpg,AMSA03.jpg,AMNE09.jpg,AMNE13.jpg,AMSA03.jpg,MS,2,num_6,16,num_6,0.816792230704,,,2017_Jun_16_1558,60.0108750314,MAFE4ImagesEEG,001,100726,
AFNE01.JPG,AFNE01.JPG,AFNE01.JPG,AFNE01.JPG,AFNE01.JPG,AFNE01.JPG,,,,,,,,,2,9,29,3,,,,,,,,,,,,,,,AMSA02.jpg,AMNE08.jpg,AMSA03.jpg,AMNE05.jpg,AMSA02.jpg,MS,2,num_8,16,num_8,0.950121864793,,,2017_Jun_16_1558,60.0108750314,MAFE4ImagesEEG,001,100726,
AFNE01.JPG,AFNE01.JPG,AFNE01.JPG,AFNE01.JPG,AFNE01.JPG,AFNE01.JPG,,,,,,,,,3,0,30,8,,,,,,,,,,,,,,,AMNE11.jpg,AMSA13.jpg,AMSA19.jpg,AMNE08.jpg,AMSA19.jpg,MS,2,num_2,16,num_2,1.533240597,,,2017_Jun_16_1558,60.0108750314,MAFE4ImagesEEG,001,100726,
AFNE01.JPG,AFNE01.JPG,AFNE01.JPG,AFNE01.JPG,AFNE01.JPG,AFNE01.JPG,,,,,,,,,3,1,31,1,,,,,,,,,,,,,,,AMNE13.jpg,AMNE04.jpg,AMSA08.jpg,AMSA16.jpg,AMNE13.jpg,MN,1,num_8,16,num_8,0.983463975717,,,2017_Jun_16_1558,60.0108750314,MAFE4ImagesEEG,001,100726,
AFNE01.JPG,AFNE01.JPG,AFNE01.JPG,AFNE01.JPG,AFNE01.JPG,AFNE01.JPG,,,,,,,,,3,2,32,4,,,,,,,,,,,,,,,AMSA09.jpg,AMSA20.jpg,AMNE03.jpg,AMNE07.jpg,AMNE03.jpg,MN,1,num_2,32,num_4,1.20010173845,,,2017_Jun_16_1558,60.0108750314,MAFE4ImagesEEG,001,100726,
AFNE01.JPG,AFNE01.JPG,AFNE01.JPG,AFNE01.JPG,AFNE01.JPG,AFNE01.JPG,,,,,,,,,3,3,33,9,,,,,,,,,,,,,,,AMNE01.jpg,AMNE09.jpg,AMSA17.jpg,AMSA12.jpg,AMNE09.jpg,MN,1,num_6,32,num_8,0.800147796515,,,2017_Jun_16_1558,60.0108750314,MAFE4ImagesEEG,001,100726,
AFNE01.JPG,AFNE01.JPG,AFNE01.JPG,AFNE01.JPG,AFNE01.JPG,AFNE01.JPG,,,,,,,,,3,4,34,3,,,,,,,,,,,,,,,AMSA11.jpg,AMNE15.jpg,AMSA04.jpg,AMNE02.jpg,AMNE02.jpg,MN,1,num_4,16,num_4,0.983440240961,,,2017_Jun_16_1558,60.0108750314,MAFE4ImagesEEG,001,100726,
AFNE01.JPG,AFNE01.JPG,AFNE01.JPG,AFNE01.JPG,AFNE01.JPG,AFNE01.JPG,,,,,,,,,3,5,35,5,,,,,,,,,,,,,,,AMNE14.jpg,AMSA01.jpg,AMNE03.jpg,AMSA05.jpg,AMNE03.jpg,MN,1,num_2,32,num_4,0.983449863154,,,2017_Jun_16_1558,60.0108750314,MAFE4ImagesEEG,001,100726,
AFNE01.JPG,AFNE01.JPG,AFNE01.JPG,AFNE01.JPG,AFNE01.JPG,AFNE01.JPG,,,,,,,,,3,6,36,0,,,,,,,,,,,,,,,AMSA15.jpg,AMSA14.jpg,AMNE05.jpg,AMNE13.jpg,AMNE05.jpg,MN,1,num_2,32,num_4,1.16672915732,,,2017_Jun_16_1558,60.0108750314,MAFE4ImagesEEG,001,100726,
AFNE01.JPG,AFNE01.JPG,AFNE01.JPG,AFNE01.JPG,AFNE01.JPG,AFNE01.JPG,,,,,,,,,3,7,37,6,,,,,,,,,,,,,,,AMNE12.jpg,AMNE11.jpg,AMSA17.jpg,AMSA08.jpg,AMNE12.jpg,MN,1,num_8,32,num_2,1.19979767781,,,2017_Jun_16_1558,60.0108750314,MAFE4ImagesEEG,001,100726,
AFNE01.JPG,AFNE01.JPG,AFNE01.JPG,AFNE01.JPG,AFNE01.JPG,AFNE01.JPG,,,,,,,,,3,8,38,7,,,,,,,,,,,,,,,AMSA12.jpg,AMNE08.jpg,AMSA19.jpg,AMNE16.jpg,AMNE16.jpg,MN,1,num_4,32,num_2,2.066642205,,,2017_Jun_16_1558,60.0108750314,MAFE4ImagesEEG,001,100726,
AFNE01.JPG,AFNE01.JPG,AFNE01.JPG,AFNE01.JPG,AFNE01.JPG,AFNE01.JPG,,,,,,,,,3,9,39,2,,,,,,,,,,,,,,,AMNE07.jpg,AMNE15.jpg,AMSA16.jpg,AMSA02.jpg,AMSA02.jpg,MS,2,num_4,16,num_4,0.950146882446,,,2017_Jun_16_1558,60.0108750314,MAFE4ImagesEEG,001,100726,
AFNE01.JPG,AFNE01.JPG,AFNE01.JPG,AFNE01.JPG,AFNE01.JPG,AFNE01.JPG,,,,,,,,,4,0,40,1,,,,,,,,,,,,,,,AMNE09.jpg,AMNE07.jpg,AMSA18.jpg,AMSA17.jpg,AMNE07.jpg,MN,1,num_6,32,num_8,1.20010430436,,,2017_Jun_16_1558,60.0108750314,MAFE4ImagesEEG,001,100726,
AFNE01.JPG,AFNE01.JPG,AFNE01.JPG,AFNE01.JPG,AFNE01.JPG,AFNE01.JPG,,,,,,,,,4,1,41,7,,,,,,,,,,,,,,,AMSA15.jpg,AMNE19.jpg,AMNE07.jpg,AMSA17.jpg,AMNE07.jpg,MN,1,num_2,32,num_6,0.983511765837,,,2017_Jun_16_1558,60.0108750314,MAFE4ImagesEEG,001,100726,
AFNE01.JPG,AFNE01.JPG,AFNE01.JPG,AFNE01.JPG,AFNE01.JPG,AFNE01.JPG,,,,,,,,,4,2,42,0,,,,,,,,,,,,,,,AMNE06.jpg,AMSA04.jpg,AMSA12.jpg,AMNE17.jpg,AMNE17.jpg,MN,1,num_4,16,num_4,0.866792567424,,,2017_Jun_16_1558,60.0108750314,MAFE4ImagesEEG,001,100726,
AFNE01.JPG,AFNE01.JPG,AFNE01.JPG,AFNE01.JPG,AFNE01.JPG,AFNE01.JPG,,,,,,,,,4,3,43,8,,,,,,,,,,,,,,,AMNE11.jpg,AMNE17.jpg,AMSA19.jpg,AMSA07.jpg,AMSA19.jpg,MS,2,num_2,16,num_2,1.86668287462,,,2017_Jun_16_1558,60.0108750314,MAFE4ImagesEEG,001,100726,
AFNE01.JPG,AFNE01.JPG,AFNE01.JPG,AFNE01.JPG,AFNE01.JPG,AFNE01.JPG,,,,,,,,,4,4,44,5,,,,,,,,,,,,,,,AMSA06.jpg,AMSA01.jpg,AMNE08.jpg,AMNE12.jpg,AMNE12.jpg,MN,1,num_4,16,num_4,0.766738651204,,,2017_Jun_16_1558,60.0108750314,MAFE4ImagesEEG,001,100726,
AFNE01.JPG,AFNE01.JPG,AFNE01.JPG,AFNE01.JPG,AFNE01.JPG,AFNE01.JPG,,,,,,,,,4,5,45,6,,,,,,,,,,,,,,,AMNE17.jpg,AMSA12.jpg,AMNE11.jpg,AMSA18.jpg,AMSA18.jpg,MS,2,num_4,16,num_4,0.783497909899,,,2017_Jun_16_1558,60.0108750314,MAFE4ImagesEEG,001,100726,
AFNE01.JPG,AFNE01.JPG,AFNE01.JPG,AFNE01.JPG,AFNE01.JPG,AFNE01.JPG,,,,,,,,,4,6,46,9,,,,,,,,,,,,,,,AMNE05.jpg,AMSA19.jpg,AMSA16.jpg,AMNE04.jpg,AMSA16.jpg,MS,2,num_2,16,num_2,1.50008772209,,,2017_Jun_16_1558,60.0108750314,MAFE4ImagesEEG,001,100726,
AFNE01.JPG,AFNE01.JPG,AFNE01.JPG,AFNE01.JPG,AFNE01.JPG,AFNE01.JPG,,,,,,,,,4,7,47,2,,,,,,,,,,,,,,,AMSA14.jpg,AMNE01.jpg,AMNE07.jpg,AMSA04.jpg,AMSA14.jpg,MS,2,num_8,32,num_4,0.766794459778,,,2017_Jun_16_1558,60.0108750314,MAFE4ImagesEEG,001,100726,
AFNE01.JPG,AFNE01.JPG,AFNE01.JPG,AFNE01.JPG,AFNE01.JPG,AFNE01.JPG,,,,,,,,,4,8,48,4,,,,,,,,,,,,,,,AMNE04.jpg,AMSA17.jpg,AMNE08.jpg,AMSA15.jpg,AMNE04.jpg,MN,1,num_8,32,num_4,0.766800553887,,,2017_Jun_16_1558,60.0108750314,MAFE4ImagesEEG,001,100726,
AFNE01.JPG,AFNE01.JPG,AFNE01.JPG,AFNE01.JPG,AFNE01.JPG,AFNE01.JPG,,,,,,,,,4,9,49,3,,,,,,,,,,,,,,,AMSA08.jpg,AMNE18.jpg,AMNE09.jpg,AMSA20.jpg,AMSA08.jpg,MS,2,num_8,32,num_2,0.533486603876,,,2017_Jun_16_1558,60.0108750314,MAFE4ImagesEEG,001,100726,
AFNE01.JPG,AFNE01.JPG,AFNE01.JPG,AFNE01.JPG,AFNE01.JPG,AFNE01.JPG,,,,,,,,,5,0,50,9,,,,,,,,,,,,,,,AMSA20.jpg,AMNE03.jpg,AMSA18.jpg,AMNE10.jpg,AMSA20.jpg,MS,2,num_8,32,num_2,1.23343262344,,,2017_Jun_16_1558,60.0108750314,MAFE4ImagesEEG,001,100726,
AFNE01.JPG,AFNE01.JPG,AFNE01.JPG,AFNE01.JPG,AFNE01.JPG,AFNE01.JPG,,,,,,,,,5,1,51,6,,,,,,,,,,,,,,,AMSA10.jpg,AMNE12.jpg,AMSA16.jpg,AMNE19.jpg,AMNE12.jpg,MN,1,num_6,32,num_4,1.03342838981,,,2017_Jun_16_1558,60.0108750314,MAFE4ImagesEEG,001,100726,
AFNE01.JPG,AFNE01.JPG,AFNE01.JPG,AFNE01.JPG,AFNE01.JPG,AFNE01.JPG,,,,,,,,,5,2,52,4,,,,,,,,,,,,,,,AMNE06.jpg,AMSA15.jpg,AMNE12.jpg,AMSA11.jpg,AMSA11.jpg,MS,2,num_4,16,num_4,0.916759547312,,,2017_Jun_16_1558,60.0108750314,MAFE4ImagesEEG,001,100726,
AFNE01.JPG,AFNE01.JPG,AFNE01.JPG,AFNE01.JPG,AFNE01.JPG,AFNE01.JPG,,,,,,,,,5,3,53,7,,,,,,,,,,,,,,,AMNE18.jpg,AMNE14.jpg,AMSA10.jpg,AMSA11.jpg,AMNE18.jpg,MN,1,num_8,32,num_6,0.950117053697,,,2017_Jun_16_1558,60.0108750314,MAFE4ImagesEEG,001,100726,
AFNE01.JPG,AFNE01.JPG,AFNE01.JPG,AFNE01.JPG,AFNE01.JPG,AFNE01.JPG,,,,,,,,,5,4,54,8,,,,,,,,,,,,,,,AMNE12.jpg,AMNE06.jpg,AMSA16.jpg,AMSA03.jpg,AMNE06.jpg,MN,1,num_6,32,num_8,0.866779096425,,,2017_Jun_16_1558,60.0108750314,MAFE4ImagesEEG,001,100726,
AFNE01.JPG,AFNE01.JPG,AFNE01.JPG,AFNE01.JPG,AFNE01.JPG,AFNE01.JPG,,,,,,,,,5,5,55,2,,,,,,,,,,,,,,,AMSA05.jpg,AMNE03.jpg,AMNE14.jpg,AMSA08.jpg,AMSA05.jpg,MS,2,num_8,32,num_2,1.18343324889,,,2017_Jun_16_1558,60.0108750314,MAFE4ImagesEEG,001,100726,
AFNE01.JPG,AFNE01.JPG,AFNE01.JPG,AFNE01.JPG,AFNE01.JPG,AFNE01.JPG,,,,,,,,,5,6,56,5,,,,,,,,,,,,,,,AMSA15.jpg,AMSA17.jpg,AMNE19.jpg,AMNE14.jpg,AMSA17.jpg,MS,2,num_6,32,num_4,1.25010624481,,,2017_Jun_16_1558,60.0108750314,MAFE4ImagesEEG,001,100726,
AFNE01.JPG,AFNE01.JPG,AFNE01.JPG,AFNE01.JPG,AFNE01.JPG,AFNE01.JPG,,,,,,,,,5,7,57,3,,,,,,,,,,,,,,,AMSA14.jpg,AMNE10.jpg,AMSA07.jpg,AMNE15.jpg,AMNE10.jpg,MN,1,num_6,16,num_6,1.01676599425,,,2017_Jun_16_1558,60.0108750314,MAFE4ImagesEEG,001,100726,
AFNE01.JPG,AFNE01.JPG,AFNE01.JPG,AFNE01.JPG,AFNE01.JPG,AFNE01.JPG,,,,,,,,,5,8,58,1,,,,,,,,,,,,,,,AMSA08.jpg,AMNE19.jpg,AMSA13.jpg,AMNE14.jpg,AMNE14.jpg,MN,1,num_4,16,num_4,1.41673116188,,,2017_Jun_16_1558,60.0108750314,MAFE4ImagesEEG,001,100726,
AFNE01.JPG,AFNE01.JPG,AFNE01.JPG,AFNE01.JPG,AFNE01.JPG,AFNE01.JPG,,,,,,,,,5,9,59,0,,,,,,,,,,,,,,,AMNE04.jpg,AMNE10.jpg,AMSA06.jpg,AMSA09.jpg,AMNE04.jpg,MN,1,num_8,32,num_4,0.983498294721,,,2017_Jun_16_1558,60.0108750314,MAFE4ImagesEEG,001,100726,
,,,,,,,,,,,,,,,,,,,,,,,,,,,,,,,,,,,,,,,,,,,space,5.39971563267,2017_Jun_16_1558,60.0108750314,MAFE4ImagesEEG,001,100726,
AFNE01.JPG,AFNE01.JPG,AFNE01.JPG,AFNE01.JPG,AFNE01.JPG,AFNE01.JPG,,,,,,,,,,,,,0,0,0,7,,,,,,,,,,,AFSA20.jpg,AFNE09.jpg,AFNE01.jpg,AFSA06.jpg,AFSA06.jpg,FS,4,num_4,16,num_4,0.783501438098,,,2017_Jun_16_1558,60.0108750314,MAFE4ImagesEEG,001,100726,
AFNE01.JPG,AFNE01.JPG,AFNE01.JPG,AFNE01.JPG,AFNE01.JPG,AFNE01.JPG,,,,,,,,,,,,,0,1,1,2,,,,,,,,,,,AFSA04.jpg,AFNE08.jpg,AFNE05.jpg,AFSA07.jpg,AFSA04.jpg,FS,4,num_8,16,num_8,1.31661694683,,,2017_Jun_16_1558,60.0108750314,MAFE4ImagesEEG,001,100726,
AFNE01.JPG,AFNE01.JPG,AFNE01.JPG,AFNE01.JPG,AFNE01.JPG,AFNE01.JPG,,,,,,,,,,,,,0,2,2,6,,,,,,,,,,,AFSA20.jpg,AFSA18.jpg,AFNE05.jpg,AFNE02.jpg,AFNE05.jpg,FN,3,num_2,32,num_4,0.816760156769,,,2017_Jun_16_1558,60.0108750314,MAFE4ImagesEEG,001,100726,
AFNE01.JPG,AFNE01.JPG,AFNE01.JPG,AFNE01.JPG,AFNE01.JPG,AFNE01.JPG,,,,,,,,,,,,,0,3,3,0,,,,,,,,,,,AFSA14.jpg,AFSA10.jpg,AFNE09.jpg,AFNE10.jpg,AFSA14.jpg,FS,4,num_8,32,num_6,0.950110318139,,,2017_Jun_16_1558,60.0108750314,MAFE4ImagesEEG,001,100726,
AFNE01.JPG,AFNE01.JPG,AFNE01.JPG,AFNE01.JPG,AFNE01.JPG,AFNE01.JPG,,,,,,,,,,,,,0,4,4,5,,,,,,,,,,,AFSA10.jpg,AFNE16.jpg,AFNE07.jpg,AFSA11.jpg,AFSA11.jpg,FS,4,num_4,32,num_8,0.950138222543,,,2017_Jun_16_1558,60.0108750314,MAFE4ImagesEEG,001,100726,
AFNE01.JPG,AFNE01.JPG,AFNE01.JPG,AFNE01.JPG,AFNE01.JPG,AFNE01.JPG,,,,,,,,,,,,,0,5,5,4,,,,,,,,,,,AFSA06.jpg,AFSA08.jpg,AFNE09.jpg,AFNE16.jpg,AFSA06.jpg,FS,4,num_8,16,num_8,1.00000801845,,,2017_Jun_16_1558,60.0108750314,MAFE4ImagesEEG,001,100726,
AFNE01.JPG,AFNE01.JPG,AFNE01.JPG,AFNE01.JPG,AFNE01.JPG,AFNE01.JPG,,,,,,,,,,,,,0,6,6,3,,,,,,,,,,,AFNE13.jpg,AFSA10.jpg,AFNE01.jpg,AFSA18.jpg,AFNE13.jpg,FN,3,num_8,32,num_6,0.9334466398,,,2017_Jun_16_1558,60.0108750314,MAFE4ImagesEEG,001,100726,
AFNE01.JPG,AFNE01.JPG,AFNE01.JPG,AFNE01.JPG,AFNE01.JPG,AFNE01.JPG,,,,,,,,,,,,,0,7,7,8,,,,,,,,,,,AFSA10.jpg,AFSA12.jpg,AFNE05.jpg,AFNE15.jpg,AFNE15.jpg,FN,3,num_4,16,num_4,0.600158316782,,,2017_Jun_16_1558,60.0108750314,MAFE4ImagesEEG,001,100726,
AFNE01.JPG,AFNE01.JPG,AFNE01.JPG,AFNE01.JPG,AFNE01.JPG,AFNE01.JPG,,,,,,,,,,,,,0,8,8,9,,,,,,,,,,,AFNE13.jpg,AFNE11.jpg,AFSA13.jpg,AFSA02.jpg,AFNE13.jpg,FN,3,num_8,16,num_8,0.81675406266,,,2017_Jun_16_1558,60.0108750314,MAFE4ImagesEEG,001,100726,
AFNE01.JPG,AFNE01.JPG,AFNE01.JPG,AFNE01.JPG,AFNE01.JPG,AFNE01.JPG,,,,,,,,,,,,,0,9,9,1,,,,,,,,,,,AFSA09.jpg,AFSA08.jpg,AFNE06.jpg,AFNE18.jpg,AFSA09.jpg,FS,4,num_8,16,num_8,0.800103855319,,,2017_Jun_16_1558,60.0108750314,MAFE4ImagesEEG,001,100726,
AFNE01.JPG,AFNE01.JPG,AFNE01.JPG,AFNE01.JPG,AFNE01.JPG,AFNE01.JPG,,,,,,,,,,,,,1,0,10,2,,,,,,,,,,,AFSA11.jpg,AFNE03.jpg,AFNE09.jpg,AFSA01.jpg,AFNE03.jpg,FN,3,num_6,32,num_4,1.36674333399,,,2017_Jun_16_1558,60.0108750314,MAFE4ImagesEEG,001,100726,
AFNE01.JPG,AFNE01.JPG,AFNE01.JPG,AFNE01.JPG,AFNE01.JPG,AFNE01.JPG,,,,,,,,,,,,,1,1,11,5,,,,,,,,,,,AFSA17.jpg,AFNE20.jpg,AFNE14.jpg,AFSA12.jpg,AFNE14.jpg,FN,3,num_2,32,num_4,0.799912694842,,,2017_Jun_16_1558,60.0108750314,MAFE4ImagesEEG,001,100726,
AFNE01.JPG,AFNE01.JPG,AFNE01.JPG,AFNE01.JPG,AFNE01.JPG,AFNE01.JPG,,,,,,,,,,,,,1,2,12,7,,,,,,,,,,,AFSA13.jpg,AFSA08.jpg,AFNE07.jpg,AFNE10.jpg,AFSA13.jpg,FS,4,num_8,32,num_6,0.866794812609,,,2017_Jun_16_1558,60.0108750314,MAFE4ImagesEEG,001,100726,
AFNE01.JPG,AFNE01.JPG,AFNE01.JPG,AFNE01.JPG,AFNE01.JPG,AFNE01.JPG,,,,,,,,,,,,,1,3,13,4,,,,,,,,,,,AFNE07.jpg,AFSA18.jpg,AFNE04.jpg,AFSA14.jpg,AFNE04.jpg,FN,3,num_2,32,num_8,0.950121544069,,,2017_Jun_16_1558,60.0108750314,MAFE4ImagesEEG,001,100726,
AFNE01.JPG,AFNE01.JPG,AFNE01.JPG,AFNE01.JPG,AFNE01.JPG,AFNE01.JPG,,,,,,,,,,,,,1,4,14,6,,,,,,,,,,,AFNE13.jpg,AFSA02.jpg,AFNE03.jpg,AFSA17.jpg,AFSA02.jpg,FS,4,num_6,32,num_4,0.91677911242,,,2017_Jun_16_1558,60.0108750314,MAFE4ImagesEEG,001,100726,
AFNE01.JPG,AFNE01.JPG,AFNE01.JPG,AFNE01.JPG,AFNE01.JPG,AFNE01.JPG,,,,,,,,,,,,,1,5,15,1,,,,,,,,,,,AFSA11.jpg,AFNE04.jpg,AFNE05.jpg,AFSA02.jpg,AFSA11.jpg,FS,4,num_8,32,num_2,1.38341535162,,,2017_Jun_16_1558,60.0108750314,MAFE4ImagesEEG,001,100726,
AFNE01.JPG,AFNE01.JPG,AFNE01.JPG,AFNE01.JPG,AFNE01.JPG,AFNE01.JPG,,,,,,,,,,,,,1,6,16,8,,,,,,,,,,,AFNE11.jpg,AFSA10.jpg,AFNE19.jpg,AFSA13.jpg,AFNE19.jpg,FN,3,num_2,32,num_4,0.833470342448,,,2017_Jun_16_1558,60.0108750314,MAFE4ImagesEEG,001,100726,
AFNE01.JPG,AFNE01.JPG,AFNE01.JPG,AFNE01.JPG,AFNE01.JPG,AFNE01.JPG,,,,,,,,,,,,,1,7,17,0,,,,,,,,,,,AFNE07.jpg,AFSA17.jpg,AFSA15.jpg,AFNE02.jpg,AFSA15.jpg,FS,4,num_2,32,num_4,2.46665580431,,,2017_Jun_16_1558,60.0108750314,MAFE4ImagesEEG,001,100726,
AFNE01.JPG,AFNE01.JPG,AFNE01.JPG,AFNE01.JPG,AFNE01.JPG,AFNE01.JPG,,,,,,,,,,,,,1,8,18,9,,,,,,,,,,,AFNE08.jpg,AFNE02.jpg,AFSA19.jpg,AFSA17.jpg,AFNE08.jpg,FN,3,num_8,16,num_8,1.18341079715,,,2017_Jun_16_1558,60.0108750314,MAFE4ImagesEEG,001,100726,
AFNE01.JPG,AFNE01.JPG,AFNE01.JPG,AFNE01.JPG,AFNE01.JPG,AFNE01.JPG,,,,,,,,,,,,,1,9,19,3,,,,,,,,,,,AFSA03.jpg,AFNE16.jpg,AFSA20.jpg,AFNE07.jpg,AFSA20.jpg,FS,4,num_2,16,num_2,1.4001499135,,,2017_Jun_16_1558,60.0108750314,MAFE4ImagesEEG,001,100726,
AFNE01.JPG,AFNE01.JPG,AFNE01.JPG,AFNE01.JPG,AFNE01.JPG,AFNE01.JPG,,,,,,,,,,,,,2,0,20,9,,,,,,,,,,,AFSA06.jpg,AFNE12.jpg,AFSA17.jpg,AFNE15.jpg,AFSA17.jpg,FS,4,num_2,16,num_2,1.1834136839,,,2017_Jun_16_1558,60.0108750314,MAFE4ImagesEEG,001,100726,
AFNE01.JPG,AFNE01.JPG,AFNE01.JPG,AFNE01.JPG,AFNE01.JPG,AFNE01.JPG,,,,,,,,,,,,,2,1,21,8,,,,,,,,,,,AFSA18.jpg,AFNE09.jpg,AFNE17.jpg,AFSA08.jpg,AFSA08.jpg,FS,4,num_4,16,num_4,1.29993049579,,,2017_Jun_16_1558,60.0108750314,MAFE4ImagesEEG,001,100726,
AFNE01.JPG,AFNE01.JPG,AFNE01.JPG,AFNE01.JPG,AFNE01.JPG,AFNE01.JPG,,,,,,,,,,,,,2,2,22,3,,,,,,,,,,,AFNE03.jpg,AFSA12.jpg,AFSA01.jpg,AFNE08.jpg,AFSA01.jpg,FS,4,num_2,16,num_2,1.23341819027,,,2017_Jun_16_1558,60.0108750314,MAFE4ImagesEEG,001,100726,
AFNE01.JPG,AFNE01.JPG,AFNE01.JPG,AFNE01.JPG,AFNE01.JPG,AFNE01.JPG,,,,,,,,,,,,,2,3,23,6,,,,,,,,,,,AFSA06.jpg,AFNE14.jpg,AFNE16.jpg,AFSA08.jpg,AFNE14.jpg,FN,3,num_6,16,num_6,1.43341632991,,,2017_Jun_16_1558,60.0108750314,MAFE4ImagesEEG,001,100726,
AFNE01.JPG,AFNE01.JPG,AFNE01.JPG,AFNE01.JPG,AFNE01.JPG,AFNE01.JPG,,,,,,,,,,,,,2,4,24,4,,,,,,,,,,,AFSA04.jpg,AFNE06.jpg,AFSA06.jpg,AFNE07.jpg,AFSA04.jpg,FS,4,num_8,32,num_2,1.25013767718,,,2017_Jun_16_1558,60.0108750314,MAFE4ImagesEEG,001,100726,
AFNE01.JPG,AFNE01.JPG,AFNE01.JPG,AFNE01.JPG,AFNE01.JPG,AFNE01.JPG,,,,,,,,,,,,,2,5,25,2,,,,,,,,,,,AFNE06.jpg,AFNE13.jpg,AFSA15.jpg,AFSA07.jpg,AFNE06.jpg,FN,3,num_8,16,num_8,0.950104865595,,,2017_Jun_16_1558,60.0108750314,MAFE4ImagesEEG,001,100726,
AFNE01.JPG,AFNE01.JPG,AFNE01.JPG,AFNE01.JPG,AFNE01.JPG,AFNE01.JPG,,,,,,,,,,,,,2,6,26,0,,,,,,,,,,,AFNE07.jpg,AFSA04.jpg,AFNE02.jpg,AFSA06.jpg,AFSA04.jpg,FS,4,num_6,32,num_4,0.983591309167,,,2017_Jun_16_1558,60.0108750314,MAFE4ImagesEEG,001,100726,
AFNE01.JPG,AFNE01.JPG,AFNE01.JPG,AFNE01.JPG,AFNE01.JPG,AFNE01.JPG,,,,,,,,,,,,,2,7,27,1,,,,,,,,,,,AFNE01.jpg,AFNE18.jpg,AFSA06.jpg,AFSA02.jpg,AFNE18.jpg,FN,3,num_6,32,num_4,0.866767229047,,,2017_Jun_16_1558,60.0108750314,MAFE4ImagesEEG,001,100726,
AFNE01.JPG,AFNE01.JPG,AFNE01.JPG,AFNE01.JPG,AFNE01.JPG,AFNE01.JPG,,,,,,,,,,,,,2,8,28,7,,,,,,,,,,,AFSA07.jpg,AFNE17.jpg,AFNE07.jpg,AFSA14.jpg,AFNE17.jpg,FN,3,num_6,32,num_2,2.00002950791,,,2017_Jun_16_1558,60.0108750314,MAFE4ImagesEEG,001,100726,
AFNE01.JPG,AFNE01.JPG,AFNE01.JPG,AFNE01.JPG,AFNE01.JPG,AFNE01.JPG,,,,,,,,,,,,,2,9,29,5,,,,,,,,,,,AFNE14.jpg,AFSA20.jpg,AFSA19.jpg,AFNE20.jpg,AFNE20.jpg,FN,3,num_4,16,num_4,1.06680161238,,,2017_Jun_16_1558,60.0108750314,MAFE4ImagesEEG,001,100726,
AFNE01.JPG,AFNE01.JPG,AFNE01.JPG,AFNE01.JPG,AFNE01.JPG,AFNE01.JPG,,,,,,,,,,,,,3,0,30,6,,,,,,,,,,,AFNE04.jpg,AFSA03.jpg,AFSA06.jpg,AFNE20.jpg,AFNE04.jpg,FN,3,num_8,16,num_8,0.950119298883,,,2017_Jun_16_1558,60.0108750314,MAFE4ImagesEEG,001,100726,
AFNE01.JPG,AFNE01.JPG,AFNE01.JPG,AFNE01.JPG,AFNE01.JPG,AFNE01.JPG,,,,,,,,,,,,,3,1,31,8,,,,,,,,,,,AFNE08.jpg,AFSA01.jpg,AFSA04.jpg,AFNE15.jpg,AFSA04.jpg,FS,4,num_2,16,num_2,1.10012736556,,,2017_Jun_16_1558,60.0108750314,MAFE4ImagesEEG,001,100726,
AFNE01.JPG,AFNE01.JPG,AFNE01.JPG,AFNE01.JPG,AFNE01.JPG,AFNE01.JPG,,,,,,,,,,,,,3,2,32,0,,,,,,,,,,,AFSA11.jpg,AFSA03.jpg,AFNE17.jpg,AFNE14.jpg,AFNE14.jpg,FN,3,num_4,16,num_4,0.983421317418,,,2017_Jun_16_1558,60.0108750314,MAFE4ImagesEEG,001,100726,
AFNE01.JPG,AFNE01.JPG,AFNE01.JPG,AFNE01.JPG,AFNE01.JPG,AFNE01.JPG,,,,,,,,,,,,,3,3,33,1,,,,,,,,,,,AFNE04.jpg,AFSA02.jpg,AFSA19.jpg,AFNE09.jpg,AFNE09.jpg,FN,3,num_4,32,num_8,0.550230787834,,,2017_Jun_16_1558,60.0108750314,MAFE4ImagesEEG,001,100726,
AFNE01.JPG,AFNE01.JPG,AFNE01.JPG,AFNE01.JPG,AFNE01.JPG,AFNE01.JPG,,,,,,,,,,,,,3,4,34,9,,,,,,,,,,,AFSA12.jpg,AFNE13.jpg,AFSA07.jpg,AFNE14.jpg,AFNE13.jpg,FN,3,num_6,32,num_4,1.01675637206,,,2017_Jun_16_1558,60.0108750314,MAFE4ImagesEEG,001,100726,
AFNE01.JPG,AFNE01.JPG,AFNE01.JPG,AFNE01.JPG,AFNE01.JPG,AFNE01.JPG,,,,,,,,,,,,,3,5,35,7,,,,,,,,,,,AFSA17.jpg,AFNE11.jpg,AFSA13.jpg,AFNE05.jpg,AFNE05.jpg,FN,3,num_4,16,num_4,0.900157130091,,,2017_Jun_16_1558,60.0108750314,MAFE4ImagesEEG,001,100726,
AFNE01.JPG,AFNE01.JPG,AFNE01.JPG,AFNE01.JPG,AFNE01.JPG,AFNE01.JPG,,,,,,,,,,,,,3,6,36,2,,,,,,,,,,,AFNE19.jpg,AFSA20.jpg,AFSA01.jpg,AFNE17.jpg,AFSA20.jpg,FS,4,num_6,32,num_2,1.716720353,,,2017_Jun_16_1558,60.0108750314,MAFE4ImagesEEG,001,100726,
AFNE01.JPG,AFNE01.JPG,AFNE01.JPG,AFNE01.JPG,AFNE01.JPG,AFNE01.JPG,,,,,,,,,,,,,3,7,37,5,,,,,,,,,,,AFNE05.jpg,AFSA19.jpg,AFSA15.jpg,AFNE08.jpg,AFNE08.jpg,FN,3,num_4,16,num_4,1.16673974169,,,2017_Jun_16_1558,60.0108750314,MAFE4ImagesEEG,001,100726,
AFNE01.JPG,AFNE01.JPG,AFNE01.JPG,AFNE01.JPG,AFNE01.JPG,AFNE01.JPG,,,,,,,,,,,,,3,8,38,4,,,,,,,,,,,AFNE19.jpg,AFSA17.jpg,AFSA16.jpg,AFNE11.jpg,AFSA16.jpg,FS,4,num_2,32,num_4,1.05017353594,,,2017_Jun_16_1558,60.0108750314,MAFE4ImagesEEG,001,100726,
AFNE01.JPG,AFNE01.JPG,AFNE01.JPG,AFNE01.JPG,AFNE01.JPG,AFNE01.JPG,,,,,,,,,,,,,3,9,39,3,,,,,,,,,,,AFSA10.jpg,AFNE12.jpg,AFNE13.jpg,AFSA14.jpg,AFNE12.jpg,FN,3,num_6,32,num_4,3.00001635775,,,2017_Jun_16_1558,60.0108750314,MAFE4ImagesEEG,001,100726,
AFNE01.JPG,AFNE01.JPG,AFNE01.JPG,AFNE01.JPG,AFNE01.JPG,AFNE01.JPG,,,,,,,,,,,,,4,0,40,5,,,,,,,,,,,AFSA05.jpg,AFNE11.jpg,AFSA11.jpg,AFNE10.jpg,AFNE10.jpg,FN,3,num_4,16,num_4,0.800150683266,,,2017_Jun_16_1558,60.0108750314,MAFE4ImagesEEG,001,100726,
AFNE01.JPG,AFNE01.JPG,AFNE01.JPG,AFNE01.JPG,AFNE01.JPG,AFNE01.JPG,,,,,,,,,,,,,4,1,41,6,,,,,,,,,,,AFNE01.jpg,AFNE11.jpg,AFSA08.jpg,AFSA05.jpg,AFNE11.jpg,FN,3,num_6,32,num_4,0.883494734531,,,2017_Jun_16_1558,60.0108750314,MAFE4ImagesEEG,001,100726,
AFNE01.JPG,AFNE01.JPG,AFNE01.JPG,AFNE01.JPG,AFNE01.JPG,AFNE01.JPG,,,,,,,,,,,,,4,2,42,9,,,,,,,,,,,AFNE11.jpg,AFSA09.jpg,AFSA19.jpg,AFNE12.jpg,AFSA09.jpg,FS,4,num_6,16,num_6,1.49995686056,,,2017_Jun_16_1558,60.0108750314,MAFE4ImagesEEG,001,100726,
AFNE01.JPG,AFNE01.JPG,AFNE01.JPG,AFNE01.JPG,AFNE01.JPG,AFNE01.JPG,,,,,,,,,,,,,4,3,43,2,,,,,,,,,,,AFNE14.jpg,AFSA04.jpg,AFNE13.jpg,AFSA17.jpg,AFSA17.jpg,FS,4,num_4,16,num_4,0.950092036161,,,2017_Jun_16_1558,60.0108750314,MAFE4ImagesEEG,001,100726,
AFNE01.JPG,AFNE01.JPG,AFNE01.JPG,AFNE01.JPG,AFNE01.JPG,AFNE01.JPG,,,,,,,,,,,,,4,4,44,8,,,,,,,,,,,AFSA12.jpg,AFNE20.jpg,AFSA02.jpg,AFNE03.jpg,AFNE03.jpg,FN,3,num_4,16,num_4,1.30013993848,,,2017_Jun_16_1558,60.0108750314,MAFE4ImagesEEG,001,100726,
AFNE01.JPG,AFNE01.JPG,AFNE01.JPG,AFNE01.JPG,AFNE01.JPG,AFNE01.JPG,,,,,,,,,,,,,4,5,45,1,,,,,,,,,,,AFSA11.jpg,AFNE18.jpg,AFSA06.jpg,AFNE10.jpg,AFNE18.jpg,FN,3,num_6,16,num_6,1.10024603899,,,2017_Jun_16_1558,60.0108750314,MAFE4ImagesEEG,001,100726,
AFNE01.JPG,AFNE01.JPG,AFNE01.JPG,AFNE01.JPG,AFNE01.JPG,AFNE01.JPG,,,,,,,,,,,,,4,6,46,3,,,,,,,,,,,AFSA05.jpg,AFNE18.jpg,AFSA02.jpg,AFNE03.jpg,AFNE03.jpg,FN,3,num_4,16,num_4,0.933495712816,,,2017_Jun_16_1558,60.0108750314,MAFE4ImagesEEG,001,100726,
AFNE01.JPG,AFNE01.JPG,AFNE01.JPG,AFNE01.JPG,AFNE01.JPG,AFNE01.JPG,,,,,,,,,,,,,4,7,47,4,,,,,,,,,,,AFSA10.jpg,AFSA03.jpg,AFNE03.jpg,AFNE07.jpg,AFSA03.jpg,FS,4,num_6,16,num_6,0.966726206592,,,2017_Jun_16_1558,60.0108750314,MAFE4ImagesEEG,001,100726,
AFNE01.JPG,AFNE01.JPG,AFNE01.JPG,AFNE01.JPG,AFNE01.JPG,AFNE01.JPG,,,,,,,,,,,,,4,8,48,0,,,,,,,,,,,AFNE02.jpg,AFSA10.jpg,AFNE12.jpg,AFSA17.jpg,AFSA10.jpg,FS,4,num_6,32,num_4,1.73335997597,,,2017_Jun_16_1558,60.0108750314,MAFE4ImagesEEG,001,100726,
AFNE01.JPG,AFNE01.JPG,AFNE01.JPG,AFNE01.JPG,AFNE01.JPG,AFNE01.JPG,,,,,,,,,,,,,4,9,49,7,,,,,,,,,,,AFSA17.jpg,AFNE13.jpg,AFNE04.jpg,AFSA04.jpg,AFSA04.jpg,FS,4,num_4,16,num_4,1.93323655566,,,2017_Jun_16_1558,60.0108750314,MAFE4ImagesEEG,001,100726,
AFNE01.JPG,AFNE01.JPG,AFNE01.JPG,AFNE01.JPG,AFNE01.JPG,AFNE01.JPG,,,,,,,,,,,,,5,0,50,5,,,,,,,,,,,AFSA16.jpg,AFNE18.jpg,AFSA14.jpg,AFNE15.jpg,AFNE18.jpg,FN,3,num_6,32,num_8,0.866837150184,,,2017_Jun_16_1558,60.0108750314,MAFE4ImagesEEG,001,100726,
AFNE01.JPG,AFNE01.JPG,AFNE01.JPG,AFNE01.JPG,AFNE01.JPG,AFNE01.JPG,,,,,,,,,,,,,5,1,51,9,,,,,,,,,,,AFNE07.jpg,AFNE19.jpg,AFSA02.jpg,AFSA01.jpg,AFSA02.jpg,FS,4,num_2,16,num_2,1.81670210301,,,2017_Jun_16_1558,60.0108750314,MAFE4ImagesEEG,001,100726,
AFNE01.JPG,AFNE01.JPG,AFNE01.JPG,AFNE01.JPG,AFNE01.JPG,AFNE01.JPG,,,,,,,,,,,,,5,2,52,7,,,,,,,,,,,AFSA20.jpg,AFNE04.jpg,AFSA04.jpg,AFNE18.jpg,AFSA04.jpg,FS,4,num_2,16,num_2,1.34997188719,,,2017_Jun_16_1558,60.0108750314,MAFE4ImagesEEG,001,100726,
AFNE01.JPG,AFNE01.JPG,AFNE01.JPG,AFNE01.JPG,AFNE01.JPG,AFNE01.JPG,,,,,,,,,,,,,5,3,53,0,,,,,,,,,,,AFNE09.jpg,AFNE06.jpg,AFSA14.jpg,AFSA08.jpg,AFSA08.jpg,FS,4,num_4,32,num_2,1.10039293743,,,2017_Jun_16_1558,60.0108750314,MAFE4ImagesEEG,001,100726,
AFNE01.JPG,AFNE01.JPG,AFNE01.JPG,AFNE01.JPG,AFNE01.JPG,AFNE01.JPG,,,,,,,,,,,,,5,4,54,3,,,,,,,,,,,AFSA20.jpg,AFNE20.jpg,AFNE19.jpg,AFSA07.jpg,AFSA07.jpg,FS,4,num_4,32,num_2,1.60004926554,,,2017_Jun_16_1558,60.0108750314,MAFE4ImagesEEG,001,100726,
AFNE01.JPG,AFNE01.JPG,AFNE01.JPG,AFNE01.JPG,AFNE01.JPG,AFNE01.JPG,,,,,,,,,,,,,5,5,55,1,,,,,,,,,,,AFSA02.jpg,AFSA04.jpg,AFNE07.jpg,AFNE19.jpg,AFNE07.jpg,FN,3,num_2,32,num_8,1.10013891209,,,2017_Jun_16_1558,60.0108750314,MAFE4ImagesEEG,001,100726,
AFNE01.JPG,AFNE01.JPG,AFNE01.JPG,AFNE01.JPG,AFNE01.JPG,AFNE01.JPG,,,,,,,,,,,,,5,6,56,6,,,,,,,,,,,AFSA12.jpg,AFSA11.jpg,AFNE14.jpg,AFNE19.jpg,AFNE19.jpg,FN,3,num_4,16,num_4,1.11674774415,,,2017_Jun_16_1558,60.0108750314,MAFE4ImagesEEG,001,100726,
AFNE01.JPG,AFNE01.JPG,AFNE01.JPG,AFNE01.JPG,AFNE01.JPG,AFNE01.JPG,,,,,,,,,,,,,5,7,57,8,,,,,,,,,,,AFNE01.jpg,AFNE05.jpg,AFSA05.jpg,AFSA03.jpg,AFSA03.jpg,FS,4,num_4,16,num_4,1.76670497365,,,2017_Jun_16_1558,60.0108750314,MAFE4ImagesEEG,001,100726,
AFNE01.JPG,AFNE01.JPG,AFNE01.JPG,AFNE01.JPG,AFNE01.JPG,AFNE01.JPG,,,,,,,,,,,,,5,8,58,2,,,,,,,,,,,AFNE18.jpg,AFNE07.jpg,AFSA14.jpg,AFSA11.jpg,AFNE07.jpg,FN,3,num_6,32,num_8,1.01674674987,,,2017_Jun_16_1558,60.0108750314,MAFE4ImagesEEG,001,100726,
AFNE01.JPG,AFNE01.JPG,AFNE01.JPG,AFNE01.JPG,AFNE01.JPG,AFNE01.JPG,,,,,,,,,,,,,5,9,59,4,,,,,,,,,,,AFNE19.jpg,AFSA07.jpg,AFNE14.jpg,AFSA10.jpg,AFNE14.jpg,FN,3,num_2,32,num_6,0.716780331219,,,2017_Jun_16_1558,60.0108750314,MAFE4ImagesEEG,001,100726,
,,,,,,,,,,,,,,,,,,,,,,,,,,,,,,,,,,,,,,,,,,,space,2.06683978019,2017_Jun_16_1558,60.0108750314,MAFE4ImagesEEG,001,100726,
AFNE01.JPG,AFNE01.JPG,AFNE01.JPG,AFNE01.JPG,AFNE01.JPG,AFNE01.JPG,,,,,,,,,,,,,,,,,0,0,0,1,,,,,,,AMSA12.jpg,AMNE18.jpg,AMNE09.jpg,AMSA17.jpg,AMNE18.jpg,MN,1,num_6,16,num_6,1.53344202111,,,2017_Jun_16_1558,60.0108750314,MAFE4ImagesEEG,001,100726,
AFNE01.JPG,AFNE01.JPG,AFNE01.JPG,AFNE01.JPG,AFNE01.JPG,AFNE01.JPG,,,,,,,,,,,,,,,,,0,1,1,0,,,,,,,AMSA17.jpg,AMNE02.jpg,AMNE17.jpg,AMSA11.jpg,AMNE17.jpg,MN,1,num_2,32,num_8,1.23346694256,,,2017_Jun_16_1558,60.0108750314,MAFE4ImagesEEG,001,100726,
AFNE01.JPG,AFNE01.JPG,AFNE01.JPG,AFNE01.JPG,AFNE01.JPG,AFNE01.JPG,,,,,,,,,,,,,,,,,0,2,2,6,,,,,,,AMNE01.jpg,AMSA17.jpg,AMNE09.jpg,AMSA11.jpg,AMSA11.jpg,MS,2,num_4,32,num_2,1.31675133645,,,2017_Jun_16_1558,60.0108750314,MAFE4ImagesEEG,001,100726,
AFNE01.JPG,AFNE01.JPG,AFNE01.JPG,AFNE01.JPG,AFNE01.JPG,AFNE01.JPG,,,,,,,,,,,,,,,,,0,3,3,2,,,,,,,AMNE01.jpg,AMSA11.jpg,AMNE12.jpg,AMSA04.jpg,AMSA11.jpg,MS,2,num_6,32,num_4,0.716809839243,,,2017_Jun_16_1558,60.0108750314,MAFE4ImagesEEG,001,100726,
AFNE01.JPG,AFNE01.JPG,AFNE01.JPG,AFNE01.JPG,AFNE01.JPG,AFNE01.JPG,,,,,,,,,,,,,,,,,0,4,4,4,,,,,,,AMNE14.jpg,AMSA12.jpg,AMSA19.jpg,AMNE18.jpg,AMSA19.jpg,MS,2,num_2,16,num_2,1.03341331496,,,2017_Jun_16_1558,60.0108750314,MAFE4ImagesEEG,001,100726,
AFNE01.JPG,AFNE01.JPG,AFNE01.JPG,AFNE01.JPG,AFNE01.JPG,AFNE01.JPG,,,,,,,,,,,,,,,,,0,5,5,8,,,,,,,AMNE13.jpg,AMSA09.jpg,AMNE14.jpg,AMSA06.jpg,AMNE14.jpg,MN,1,num_2,32,num_8,0.983465258614,,,2017_Jun_16_1558,60.0108750314,MAFE4ImagesEEG,001,100726,
AFNE01.JPG,AFNE01.JPG,AFNE01.JPG,AFNE01.JPG,AFNE01.JPG,AFNE01.JPG,,,,,,,,,,,,,,,,,0,6,6,7,,,,,,,AMSA11.jpg,AMSA17.jpg,AMNE20.jpg,AMNE12.jpg,AMNE12.jpg,MN,1,num_4,16,num_4,0.733436312061,,,2017_Jun_16_1558,60.0108750314,MAFE4ImagesEEG,001,100726,
AFNE01.JPG,AFNE01.JPG,AFNE01.JPG,AFNE01.JPG,AFNE01.JPG,AFNE01.JPG,,,,,,,,,,,,,,,,,0,7,7,3,,,,,,,AMSA13.jpg,AMNE18.jpg,AMSA20.jpg,AMNE05.jpg,AMNE05.jpg,MN,1,num_4,32,num_6,1.91670983285,,,2017_Jun_16_1558,60.0108750314,MAFE4ImagesEEG,001,100726,
AFNE01.JPG,AFNE01.JPG,AFNE01.JPG,AFNE01.JPG,AFNE01.JPG,AFNE01.JPG,,,,,,,,,,,,,,,,,0,8,8,9,,,,,,,AMSA03.jpg,AMSA14.jpg,AMNE02.jpg,AMNE07.jpg,AMNE02.jpg,MN,1,num_2,32,num_4,0.933462997549,,,2017_Jun_16_1558,60.0108750314,MAFE4ImagesEEG,001,100726,
AFNE01.JPG,AFNE01.JPG,AFNE01.JPG,AFNE01.JPG,AFNE01.JPG,AFNE01.JPG,,,,,,,,,,,,,,,,,0,9,9,5,,,,,,,AMNE07.jpg,AMSA03.jpg,AMSA16.jpg,AMNE08.jpg,AMSA16.jpg,MS,2,num_2,16,num_2,1.21672436222,,,2017_Jun_16_1558,60.0108750314,MAFE4ImagesEEG,001,100726,
AFNE01.JPG,AFNE01.JPG,AFNE01.JPG,AFNE01.JPG,AFNE01.JPG,AFNE01.JPG,,,,,,,,,,,,,,,,,1,0,10,6,,,,,,,AMSA01.jpg,AMSA10.jpg,AMNE01.jpg,AMNE09.jpg,AMNE01.jpg,MN,1,num_2,32,num_4,0.850064741215,,,2017_Jun_16_1558,60.0108750314,MAFE4ImagesEEG,001,100726,
AFNE01.JPG,AFNE01.JPG,AFNE01.JPG,AFNE01.JPG,AFNE01.JPG,AFNE01.JPG,,,,,,,,,,,,,,,,,1,1,11,4,,,,,,,AMNE01.jpg,AMSA12.jpg,AMNE17.jpg,AMSA07.jpg,AMSA07.jpg,MS,2,num_4,32,num_2,2.15002827311,,,2017_Jun_16_1558,60.0108750314,MAFE4ImagesEEG,001,100726,
AFNE01.JPG,AFNE01.JPG,AFNE01.JPG,AFNE01.JPG,AFNE01.JPG,AFNE01.JPG,,,,,,,,,,,,,,,,,1,2,12,0,,,,,,,AMSA07.jpg,AMNE12.jpg,AMSA20.jpg,AMNE06.jpg,AMNE06.jpg,MN,1,num_4,16,num_4,0.850086872233,,,2017_Jun_16_1558,60.0108750314,MAFE4ImagesEEG,001,100726,
AFNE01.JPG,AFNE01.JPG,AFNE01.JPG,AFNE01.JPG,AFNE01.JPG,AFNE01.JPG,,,,,,,,,,,,,,,,,1,3,13,5,,,,,,,AMSA01.jpg,AMNE08.jpg,AMSA16.jpg,AMNE07.jpg,AMSA01.jpg,MS,2,num_8,32,num_2,1.93335843645,,,2017_Jun_16_1558,60.0108750314,MAFE4ImagesEEG,001,100726,
AFNE01.JPG,AFNE01.JPG,AFNE01.JPG,AFNE01.JPG,AFNE01.JPG,AFNE01.JPG,,,,,,,,,,,,,,,,,1,4,14,8,,,,,,,AMNE12.jpg,AMNE01.jpg,AMSA14.jpg,AMSA18.jpg,AMSA14.jpg,MS,2,num_2,32,num_6,1.23347143293,,,2017_Jun_16_1558,60.0108750314,MAFE4ImagesEEG,001,100726,
AFNE01.JPG,AFNE01.JPG,AFNE01.JPG,AFNE01.JPG,AFNE01.JPG,AFNE01.JPG,,,,,,,,,,,,,,,,,1,5,15,9,,,,,,,AMNE20.jpg,AMNE13.jpg,AMSA02.jpg,AMSA11.jpg,AMNE13.jpg,MN,1,num_6,32,num_8,0.716805669595,,,2017_Jun_16_1558,60.0108750314,MAFE4ImagesEEG,001,100726,
AFNE01.JPG,AFNE01.JPG,AFNE01.JPG,AFNE01.JPG,AFNE01.JPG,AFNE01.JPG,,,,,,,,,,,,,,,,,1,6,16,1,,,,,,,AMSA10.jpg,AMSA20.jpg,AMNE05.jpg,AMNE16.jpg,AMSA10.jpg,MS,2,num_8,16,num_8,0.716763011296,,,2017_Jun_16_1558,60.0108750314,MAFE4ImagesEEG,001,100726,
AFNE01.JPG,AFNE01.JPG,AFNE01.JPG,AFNE01.JPG,AFNE01.JPG,AFNE01.JPG,,,,,,,,,,,,,,,,,1,7,17,7,,,,,,,AMNE14.jpg,AMSA05.jpg,AMSA12.jpg,AMNE02.jpg,AMNE14.jpg,MN,1,num_8,32,num_4,0.900132433162,,,2017_Jun_16_1558,60.0108750314,MAFE4ImagesEEG,001,100726,
AFNE01.JPG,AFNE01.JPG,AFNE01.JPG,AFNE01.JPG,AFNE01.JPG,AFNE01.JPG,,,,,,,,,,,,,,,,,1,8,18,2,,,,,,,AMNE06.jpg,AMSA10.jpg,AMNE01.jpg,AMSA04.jpg,AMNE06.jpg,MN,1,num_8,16,num_8,0.633477013791,,,2017_Jun_16_1558,60.0108750314,MAFE4ImagesEEG,001,100726,
AFNE01.JPG,AFNE01.JPG,AFNE01.JPG,AFNE01.JPG,AFNE01.JPG,AFNE01.JPG,,,,,,,,,,,,,,,,,1,9,19,3,,,,,,,AMNE09.jpg,AMSA08.jpg,AMSA03.jpg,AMNE12.jpg,AMNE09.jpg,MN,1,num_8,32,num_4,0.733496290282,,,2017_Jun_16_1558,60.0108750314,MAFE4ImagesEEG,001,100726,
AFNE01.JPG,AFNE01.JPG,AFNE01.JPG,AFNE01.JPG,AFNE01.JPG,AFNE01.JPG,,,,,,,,,,,,,,,,,2,0,20,4,,,,,,,AMSA19.jpg,AMNE07.jpg,AMNE16.jpg,AMSA16.jpg,AMSA16.jpg,MS,2,num_4,16,num_4,1.10007700953,,,2017_Jun_16_1558,60.0108750314,MAFE4ImagesEEG,001,100726,
AFNE01.JPG,AFNE01.JPG,AFNE01.JPG,AFNE01.JPG,AFNE01.JPG,AFNE01.JPG,,,,,,,,,,,,,,,,,2,1,21,1,,,,,,,AMNE01.jpg,AMSA19.jpg,AMSA14.jpg,AMNE07.jpg,AMNE01.jpg,MN,1,num_8,16,num_8,1.0667666517,,,2017_Jun_16_1558,60.0108750314,MAFE4ImagesEEG,001,100726,
AFNE01.JPG,AFNE01.JPG,AFNE01.JPG,AFNE01.JPG,AFNE01.JPG,AFNE01.JPG,,,,,,,,,,,,,,,,,2,2,22,6,,,,,,,AMSA17.jpg,AMSA10.jpg,AMNE18.jpg,AMNE12.jpg,AMSA17.jpg,MS,2,num_8,32,num_4,1.33362381603,,,2017_Jun_16_1558,60.0108750314,MAFE4ImagesEEG,001,100726,
AFNE01.JPG,AFNE01.JPG,AFNE01.JPG,AFNE01.JPG,AFNE01.JPG,AFNE01.JPG,,,,,,,,,,,,,,,,,2,3,23,8,,,,,,,AMSA05.jpg,AMNE07.jpg,AMSA01.jpg,AMNE02.jpg,AMNE07.jpg,MN,1,num_6,32,num_4,1.11675640417,,,2017_Jun_16_1558,60.0108750314,MAFE4ImagesEEG,001,100726,
AFNE01.JPG,AFNE01.JPG,AFNE01.JPG,AFNE01.JPG,AFNE01.JPG,AFNE01.JPG,,,,,,,,,,,,,,,,,2,4,24,3,,,,,,,AMSA05.jpg,AMNE14.jpg,AMNE06.jpg,AMSA11.jpg,AMSA05.jpg,MS,2,num_8,32,num_2,2.86662514159,,,2017_Jun_16_1558,60.0108750314,MAFE4ImagesEEG,001,100726,
AFNE01.JPG,AFNE01.JPG,AFNE01.JPG,AFNE01.JPG,AFNE01.JPG,AFNE01.JPG,,,,,,,,,,,,,,,,,2,5,25,5,,,,,,,AMNE09.jpg,AMSA10.jpg,AMNE13.jpg,AMSA11.jpg,AMNE13.jpg,MN,1,num_2,32,num_8,2.366792407,,,2017_Jun_16_1558,60.0108750314,MAFE4ImagesEEG,001,100726,
AFNE01.JPG,AFNE01.JPG,AFNE01.JPG,AFNE01.JPG,AFNE01.JPG,AFNE01.JPG,,,,,,,,,,,,,,,,,2,6,26,7,,,,,,,AMSA15.jpg,AMSA18.jpg,AMNE13.jpg,AMNE09.jpg,AMNE13.jpg,MN,1,num_2,32,num_4,1.48347632412,,,2017_Jun_16_1558,60.0108750314,MAFE4ImagesEEG,001,100726,
AFNE01.JPG,AFNE01.JPG,AFNE01.JPG,AFNE01.JPG,AFNE01.JPG,AFNE01.JPG,,,,,,,,,,,,,,,,,2,7,27,9,,,,,,,AMNE11.jpg,AMSA07.jpg,AMSA15.jpg,AMNE14.jpg,AMNE11.jpg,MN,1,num_8,16,num_8,1.20002379885,,,2017_Jun_16_1558,60.0108750314,MAFE4ImagesEEG,001,100726,
AFNE01.JPG,AFNE01.JPG,AFNE01.JPG,AFNE01.JPG,AFNE01.JPG,AFNE01.JPG,,,,,,,,,,,,,,,,,2,8,28,0,,,,,,,AMNE19.jpg,AMSA10.jpg,AMNE04.jpg,AMSA17.jpg,AMSA10.jpg,MS,2,num_6,32,num_8,1.28343424317,,,2017_Jun_16_1558,60.0108750314,MAFE4ImagesEEG,001,100726,
AFNE01.JPG,AFNE01.JPG,AFNE01.JPG,AFNE01.JPG,AFNE01.JPG,AFNE01.JPG,,,,,,,,,,,,,,,,,2,9,29,2,,,,,,,AMNE13.jpg,AMNE20.jpg,AMSA03.jpg,AMSA04.jpg,AMNE13.jpg,MN,1,num_8,16,num_8,1.01679325709,,,2017_Jun_16_1558,60.0108750314,MAFE4ImagesEEG,001,100726,
AFNE01.JPG,AFNE01.JPG,AFNE01.JPG,AFNE01.JPG,AFNE01.JPG,AFNE01.JPG,,,,,,,,,,,,,,,,,3,0,30,8,,,,,,,AMSA20.jpg,AMNE01.jpg,AMNE08.jpg,AMSA14.jpg,AMNE01.jpg,MN,1,num_6,32,num_8,1.51673536364,,,2017_Jun_16_1558,60.0108750314,MAFE4ImagesEEG,001,100726,
AFNE01.JPG,AFNE01.JPG,AFNE01.JPG,AFNE01.JPG,AFNE01.JPG,AFNE01.JPG,,,,,,,,,,,,,,,,,3,1,31,4,,,,,,,AMNE13.jpg,AMSA02.jpg,AMSA06.jpg,AMNE09.jpg,AMSA06.jpg,MS,2,num_2,16,num_2,1.60005792545,,,2017_Jun_16_1558,60.0108750314,MAFE4ImagesEEG,001,100726,
AFNE01.JPG,AFNE01.JPG,AFNE01.JPG,AFNE01.JPG,AFNE01.JPG,AFNE01.JPG,,,,,,,,,,,,,,,,,3,2,32,2,,,,,,,AMNE14.jpg,AMSA16.jpg,AMSA01.jpg,AMNE04.jpg,AMNE04.jpg,MN,1,num_4,32,num_8,0.833152169129,,,2017_Jun_16_1558,60.0108750314,MAFE4ImagesEEG,001,100726,
AFNE01.JPG,AFNE01.JPG,AFNE01.JPG,AFNE01.JPG,AFNE01.JPG,AFNE01.JPG,,,,,,,,,,,,,,,,,3,3,33,7,,,,,,,AMNE16.jpg,AMSA06.jpg,AMSA12.jpg,AMNE04.jpg,AMSA06.jpg,MS,2,num_6,32,num_8,1.18342138152,,,2017_Jun_16_1558,60.0108750314,MAFE4ImagesEEG,001,100726,
AFNE01.JPG,AFNE01.JPG,AFNE01.JPG,AFNE01.JPG,AFNE01.JPG,AFNE01.JPG,,,,,,,,,,,,,,,,,3,4,34,5,,,,,,,AMNE06.jpg,AMSA13.jpg,AMSA15.jpg,AMNE12.jpg,AMNE12.jpg,MN,1,num_4,32,num_8,1.70007527748,,,2017_Jun_16_1558,60.0108750314,MAFE4ImagesEEG,001,100726,
AFNE01.JPG,AFNE01.JPG,AFNE01.JPG,AFNE01.JPG,AFNE01.JPG,AFNE01.JPG,,,,,,,,,,,,,,,,,3,5,35,1,,,,,,,AMNE08.jpg,AMSA18.jpg,AMSA15.jpg,AMNE20.jpg,AMSA15.jpg,MS,2,num_2,16,num_2,0.983449863154,,,2017_Jun_16_1558,60.0108750314,MAFE4ImagesEEG,001,100726,
AFNE01.JPG,AFNE01.JPG,AFNE01.JPG,AFNE01.JPG,AFNE01.JPG,AFNE01.JPG,,,,,,,,,,,,,,,,,3,6,36,0,,,,,,,AMNE13.jpg,AMSA19.jpg,AMSA06.jpg,AMNE16.jpg,AMSA06.jpg,MS,2,num_2,16,num_2,0.933471015887,,,2017_Jun_16_1558,60.0108750314,MAFE4ImagesEEG,001,100726,
AFNE01.JPG,AFNE01.JPG,AFNE01.JPG,AFNE01.JPG,AFNE01.JPG,AFNE01.JPG,,,,,,,,,,,,,,,,,3,7,37,3,,,,,,,AMSA17.jpg,AMNE17.jpg,AMNE02.jpg,AMSA14.jpg,AMNE02.jpg,MN,1,num_2,16,num_2,1.16678753193,,,2017_Jun_16_1558,60.0108750314,MAFE4ImagesEEG,001,100726,
AFNE01.JPG,AFNE01.JPG,AFNE01.JPG,AFNE01.JPG,AFNE01.JPG,AFNE01.JPG,,,,,,,,,,,,,,,,,3,8,38,9,,,,,,,AMNE19.jpg,AMSA13.jpg,AMSA07.jpg,AMNE11.jpg,AMNE19.jpg,MN,1,num_8,16,num_8,1.11677917663,,,2017_Jun_16_1558,60.0108750314,MAFE4ImagesEEG,001,100726,
AFNE01.JPG,AFNE01.JPG,AFNE01.JPG,AFNE01.JPG,AFNE01.JPG,AFNE01.JPG,,,,,,,,,,,,,,,,,3,9,39,6,,,,,,,AMSA15.jpg,AMNE09.jpg,AMNE02.jpg,AMSA18.jpg,AMSA18.jpg,MS,2,num_4,32,num_8,0.966764695244,,,2017_Jun_16_1558,60.0108750314,MAFE4ImagesEEG,001,100726,
AFNE01.JPG,AFNE01.JPG,AFNE01.JPG,AFNE01.JPG,AFNE01.JPG,AFNE01.JPG,,,,,,,,,,,,,,,,,4,0,40,0,,,,,,,AMNE15.jpg,AMSA12.jpg,AMNE10.jpg,AMSA04.jpg,AMSA12.jpg,MS,2,num_6,16,num_6,0.850089117419,,,2017_Jun_16_1558,60.0108750314,MAFE4ImagesEEG,001,100726,
AFNE01.JPG,AFNE01.JPG,AFNE01.JPG,AFNE01.JPG,AFNE01.JPG,AFNE01.JPG,,,,,,,,,,,,,,,,,4,1,41,8,,,,,,,AMNE09.jpg,AMNE16.jpg,AMSA18.jpg,AMSA04.jpg,AMSA18.jpg,MS,2,num_2,16,num_2,1.81668927334,,,2017_Jun_16_1558,60.0108750314,MAFE4ImagesEEG,001,100726,
AFNE01.JPG,AFNE01.JPG,AFNE01.JPG,AFNE01.JPG,AFNE01.JPG,AFNE01.JPG,,,,,,,,,,,,,,,,,4,2,42,4,,,,,,,AMNE06.jpg,AMSA03.jpg,AMSA12.jpg,AMNE12.jpg,AMSA12.jpg,MS,2,num_2,32,num_6,1.01674193877,,,2017_Jun_16_1558,60.0108750314,MAFE4ImagesEEG,001,100726,
AFNE01.JPG,AFNE01.JPG,AFNE01.JPG,AFNE01.JPG,AFNE01.JPG,AFNE01.JPG,,,,,,,,,,,,,,,,,4,3,43,6,,,,,,,AMSA17.jpg,AMSA10.jpg,AMNE01.jpg,AMNE15.jpg,AMSA10.jpg,MS,2,num_6,32,num_4,1.26679012994,,,2017_Jun_16_1558,60.0108750314,MAFE4ImagesEEG,001,100726,
AFNE01.JPG,AFNE01.JPG,AFNE01.JPG,AFNE01.JPG,AFNE01.JPG,AFNE01.JPG,,,,,,,,,,,,,,,,,4,4,44,2,,,,,,,AMSA16.jpg,AMSA13.jpg,AMNE10.jpg,AMNE02.jpg,AMNE10.jpg,MN,1,num_2,32,num_4,1.15009402472,,,2017_Jun_16_1558,60.0108750314,MAFE4ImagesEEG,001,100726,
AFNE01.JPG,AFNE01.JPG,AFNE01.JPG,AFNE01.JPG,AFNE01.JPG,AFNE01.JPG,,,,,,,,,,,,,,,,,4,5,45,3,,,,,,,AMNE08.jpg,AMSA01.jpg,AMNE02.jpg,AMSA14.jpg,AMNE02.jpg,MN,1,num_2,16,num_2,1.33358596882,,,2017_Jun_16_1558,60.0108750314,MAFE4ImagesEEG,001,100726,
AFNE01.JPG,AFNE01.JPG,AFNE01.JPG,AFNE01.JPG,AFNE01.JPG,AFNE01.JPG,,,,,,,,,,,,,,,,,4,6,46,5,,,,,,,AMNE14.jpg,AMSA09.jpg,AMSA07.jpg,AMNE13.jpg,AMNE13.jpg,MN,1,num_4,16,num_4,1.06685004395,,,2017_Jun_16_1558,60.0108750314,MAFE4ImagesEEG,001,100726,
AFNE01.JPG,AFNE01.JPG,AFNE01.JPG,AFNE01.JPG,AFNE01.JPG,AFNE01.JPG,,,,,,,,,,,,,,,,,4,7,47,9,,,,,,,AMSA11.jpg,AMSA13.jpg,AMNE02.jpg,AMNE13.jpg,AMSA13.jpg,MS,2,num_6,16,num_6,0.800090063596,,,2017_Jun_16_1558,60.0108750314,MAFE4ImagesEEG,001,100726,
AFNE01.JPG,AFNE01.JPG,AFNE01.JPG,AFNE01.JPG,AFNE01.JPG,AFNE01.JPG,,,,,,,,,,,,,,,,,4,8,48,7,,,,,,,AMSA14.jpg,AMNE20.jpg,AMSA05.jpg,AMNE19.jpg,AMNE20.jpg,MN,1,num_6,32,num_4,0.950189220021,,,2017_Jun_16_1558,60.0108750314,MAFE4ImagesEEG,001,100726,
AFNE01.JPG,AFNE01.JPG,AFNE01.JPG,AFNE01.JPG,AFNE01.JPG,AFNE01.JPG,,,,,,,,,,,,,,,,,4,9,49,1,,,,,,,AMNE06.jpg,AMSA02.jpg,AMNE13.jpg,AMSA10.jpg,AMNE06.jpg,MN,1,num_8,32,num_4,1.28339447163,,,2017_Jun_16_1558,60.0108750314,MAFE4ImagesEEG,001,100726,
AFNE01.JPG,AFNE01.JPG,AFNE01.JPG,AFNE01.JPG,AFNE01.JPG,AFNE01.JPG,,,,,,,,,,,,,,,,,5,0,50,1,,,,,,,AMSA19.jpg,AMNE10.jpg,AMNE04.jpg,AMSA13.jpg,AMSA13.jpg,MS,2,num_4,16,num_4,1.03343704971,,,2017_Jun_16_1558,60.0108750314,MAFE4ImagesEEG,001,100726,
AFNE01.JPG,AFNE01.JPG,AFNE01.JPG,AFNE01.JPG,AFNE01.JPG,AFNE01.JPG,,,,,,,,,,,,,,,,,5,1,51,0,,,,,,,AMNE07.jpg,AMNE10.jpg,AMSA04.jpg,AMSA17.jpg,AMSA04.jpg,MS,2,num_2,16,num_2,1.15014117339,,,2017_Jun_16_1558,60.0108750314,MAFE4ImagesEEG,001,100726,
AFNE01.JPG,AFNE01.JPG,AFNE01.JPG,AFNE01.JPG,AFNE01.JPG,AFNE01.JPG,,,,,,,,,,,,,,,,,5,2,52,3,,,,,,,AMSA15.jpg,AMSA09.jpg,AMNE07.jpg,AMNE02.jpg,AMSA09.jpg,MS,2,num_6,32,num_4,1.73336029681,,,2017_Jun_16_1558,60.0108750314,MAFE4ImagesEEG,001,100726,
AFNE01.JPG,AFNE01.JPG,AFNE01.JPG,AFNE01.JPG,AFNE01.JPG,AFNE01.JPG,,,,,,,,,,,,,,,,,5,3,53,6,,,,,,,AMSA05.jpg,AMNE07.jpg,AMSA11.jpg,AMNE02.jpg,AMNE07.jpg,MN,1,num_6,16,num_6,1.78336095426,,,2017_Jun_16_1558,60.0108750314,MAFE4ImagesEEG,001,100726,
AFNE01.JPG,AFNE01.JPG,AFNE01.JPG,AFNE01.JPG,AFNE01.JPG,AFNE01.JPG,,,,,,,,,,,,,,,,,5,4,54,5,,,,,,,AMNE05.jpg,AMNE08.jpg,AMSA04.jpg,AMSA05.jpg,AMSA04.jpg,MS,2,num_2,16,num_2,0.81679190998,,,2017_Jun_16_1558,60.0108750314,MAFE4ImagesEEG,001,100726,
AFNE01.JPG,AFNE01.JPG,AFNE01.JPG,AFNE01.JPG,AFNE01.JPG,AFNE01.JPG,,,,,,,,,,,,,,,,,5,5,55,8,,,,,,,AMNE18.jpg,AMSA11.jpg,AMSA20.jpg,AMNE16.jpg,AMNE18.jpg,MN,1,num_8,32,num_4,1.64992451412,,,2017_Jun_16_1558,60.0108750314,MAFE4ImagesEEG,001,100726,
AFNE01.JPG,AFNE01.JPG,AFNE01.JPG,AFNE01.JPG,AFNE01.JPG,AFNE01.JPG,,,,,,,,,,,,,,,,,5,6,56,2,,,,,,,AMSA10.jpg,AMSA09.jpg,AMNE02.jpg,AMNE14.jpg,AMNE14.jpg,MN,1,num_4,16,num_4,0.783445950132,,,2017_Jun_16_1558,60.0108750314,MAFE4ImagesEEG,001,100726,
AFNE01.JPG,AFNE01.JPG,AFNE01.JPG,AFNE01.JPG,AFNE01.JPG,AFNE01.JPG,,,,,,,,,,,,,,,,,5,7,57,7,,,,,,,AMSA02.jpg,AMNE06.jpg,AMNE14.jpg,AMSA12.jpg,AMSA12.jpg,MS,2,num_4,16,num_4,1.51666608395,,,2017_Jun_16_1558,60.0108750314,MAFE4ImagesEEG,001,100726,
AFNE01.JPG,AFNE01.JPG,AFNE01.JPG,AFNE01.JPG,AFNE01.JPG,AFNE01.JPG,,,,,,,,,,,,,,,,,5,8,58,9,,,,,,,AMSA09.jpg,AMNE18.jpg,AMSA17.jpg,AMNE01.jpg,AMSA09.jpg,MS,2,num_8,16,num_8,0.966782656615,,,2017_Jun_16_1558,60.0108750314,MAFE4ImagesEEG,001,100726,
AFNE01.JPG,AFNE01.JPG,AFNE01.JPG,AFNE01.JPG,AFNE01.JPG,AFNE01.JPG,,,,,,,,,,,,,,,,,5,9,59,4,,,,,,,AMSA08.jpg,AMNE07.jpg,AMNE03.jpg,AMSA17.jpg,AMNE03.jpg,MN,1,num_2,32,num_8,0.883454000694,,,2017_Jun_16_1558,60.0108750314,MAFE4ImagesEEG,001,100726,
,,,,,,,,,,,,,,,,,,,,,,,,,,,,,,,,,,,,,,,,,,,space,1.91672683205,2017_Jun_16_1558,60.0108750314,MAFE4ImagesEEG,001,100726,
AFNE01.JPG,AFNE01.JPG,AFNE01.JPG,AFNE01.JPG,AFNE01.JPG,AFNE01.JPG,,,,,,,,,,,,,,,,,,,,,0,0,0,7,,,AFSA13.jpg,AFNE17.jpg,AFNE02.jpg,AFSA16.jpg,AFSA13.jpg,FS,4,num_8,32,num_4,1.06676408579,,,2017_Jun_16_1558,60.0108750314,MAFE4ImagesEEG,001,100726,
AFNE01.JPG,AFNE01.JPG,AFNE01.JPG,AFNE01.JPG,AFNE01.JPG,AFNE01.JPG,,,,,,,,,,,,,,,,,,,,,0,1,1,5,,,AFNE19.jpg,AFSA02.jpg,AFSA01.jpg,AFNE12.jpg,AFSA02.jpg,FS,4,num_6,32,num_4,1.05011933099,,,2017_Jun_16_1558,60.0108750314,MAFE4ImagesEEG,001,100726,
AFNE01.JPG,AFNE01.JPG,AFNE01.JPG,AFNE01.JPG,AFNE01.JPG,AFNE01.JPG,,,,,,,,,,,,,,,,,,,,,0,2,2,4,,,AFSA03.jpg,AFNE08.jpg,AFNE15.jpg,AFSA12.jpg,AFSA12.jpg,FS,4,num_4,16,num_4,0.900177015807,,,2017_Jun_16_1558,60.0108750314,MAFE4ImagesEEG,001,100726,
AFNE01.JPG,AFNE01.JPG,AFNE01.JPG,AFNE01.JPG,AFNE01.JPG,AFNE01.JPG,,,,,,,,,,,,,,,,,,,,,0,3,3,2,,,AFSA16.jpg,AFNE01.jpg,AFNE05.jpg,AFSA19.jpg,AFNE01.jpg,FN,3,num_6,16,num_6,0.933461393695,,,2017_Jun_16_1558,60.0108750314,MAFE4ImagesEEG,001,100726,
AFNE01.JPG,AFNE01.JPG,AFNE01.JPG,AFNE01.JPG,AFNE01.JPG,AFNE01.JPG,,,,,,,,,,,,,,,,,,,,,0,4,4,9,,,AFSA11.jpg,AFNE11.jpg,AFNE09.jpg,AFSA13.jpg,AFNE11.jpg,FN,3,num_6,16,num_6,1.516732477,,,2017_Jun_16_1558,60.0108750314,MAFE4ImagesEEG,001,100726,
AFNE01.JPG,AFNE01.JPG,AFNE01.JPG,AFNE01.JPG,AFNE01.JPG,AFNE01.JPG,,,,,,,,,,,,,,,,,,,,,0,5,5,6,,,AFSA11.jpg,AFSA15.jpg,AFNE13.jpg,AFNE01.jpg,AFNE13.jpg,FN,3,num_2,32,num_4,0.71686436492,,,2017_Jun_16_1558,60.0108750314,MAFE4ImagesEEG,001,100726,
AFNE01.JPG,AFNE01.JPG,AFNE01.JPG,AFNE01.JPG,AFNE01.JPG,AFNE01.JPG,,,,,,,,,,,,,,,,,,,,,0,6,6,8,,,AFSA19.jpg,AFNE09.jpg,AFNE08.jpg,AFSA01.jpg,AFNE08.jpg,FN,3,num_2,16,num_2,1.16667046212,,,2017_Jun_16_1558,60.0108750314,MAFE4ImagesEEG,001,100726,
AFNE01.JPG,AFNE01.JPG,AFNE01.JPG,AFNE01.JPG,AFNE01.JPG,AFNE01.JPG,,,,,,,,,,,,,,,,,,,,,0,7,7,3,,,AFSA17.jpg,AFSA03.jpg,AFNE11.jpg,AFNE04.jpg,AFNE11.jpg,FN,3,num_2,32,num_4,0.983451466891,,,2017_Jun_16_1558,60.0108750314,MAFE4ImagesEEG,001,100726,
AFNE01.JPG,AFNE01.JPG,AFNE01.JPG,AFNE01.JPG,AFNE01.JPG,AFNE01.JPG,,,,,,,,,,,,,,,,,,,,,0,8,8,0,,,AFSA14.jpg,AFNE10.jpg,AFSA20.jpg,AFNE15.jpg,AFSA20.jpg,FS,4,num_2,32,num_4,1.36673948506,,,2017_Jun_16_1558,60.0108750314,MAFE4ImagesEEG,001,100726,
AFNE01.JPG,AFNE01.JPG,AFNE01.JPG,AFNE01.JPG,AFNE01.JPG,AFNE01.JPG,,,,,,,,,,,,,,,,,,,,,0,9,9,1,,,AFSA07.jpg,AFSA13.jpg,AFNE11.jpg,AFNE04.jpg,AFNE04.jpg,FN,3,num_4,16,num_4,0.716758841765,,,2017_Jun_16_1558,60.0108750314,MAFE4ImagesEEG,001,100726,
AFNE01.JPG,AFNE01.JPG,AFNE01.JPG,AFNE01.JPG,AFNE01.JPG,AFNE01.JPG,,,,,,,,,,,,,,,,,,,,,1,0,10,1,,,AFSA12.jpg,AFNE08.jpg,AFNE20.jpg,AFSA19.jpg,AFNE08.jpg,FN,3,num_6,16,num_6,1.11677115818,,,2017_Jun_16_1558,60.0108750314,MAFE4ImagesEEG,001,100726,
AFNE01.JPG,AFNE01.JPG,AFNE01.JPG,AFNE01.JPG,AFNE01.JPG,AFNE01.JPG,,,,,,,,,,,,,,,,,,,,,1,1,11,7,,,AFSA14.jpg,AFNE16.jpg,AFNE15.jpg,AFSA03.jpg,AFNE16.jpg,FN,3,num_6,16,num_6,1.13344830764,,,2017_Jun_16_1558,60.0108750314,MAFE4ImagesEEG,001,100726,
AFNE01.JPG,AFNE01.JPG,AFNE01.JPG,AFNE01.JPG,AFNE01.JPG,AFNE01.JPG,,,,,,,,,,,,,,,,,,,,,1,2,12,2,,,AFSA09.jpg,AFNE13.jpg,AFSA03.jpg,AFNE01.jpg,AFSA09.jpg,FS,4,num_8,32,num_2,1.53328293457,,,2017_Jun_16_1558,60.0108750314,MAFE4ImagesEEG,001,100726,
AFNE01.JPG,AFNE01.JPG,AFNE01.JPG,AFNE01.JPG,AFNE01.JPG,AFNE01.JPG,,,,,,,,,,,,,,,,,,,,,1,3,13,4,,,AFSA11.jpg,AFNE19.jpg,AFNE04.jpg,AFSA05.jpg,AFNE19.jpg,FN,3,num_6,16,num_6,0.850144605269,,,2017_Jun_16_1558,60.0108750314,MAFE4ImagesEEG,001,100726,
AFNE01.JPG,AFNE01.JPG,AFNE01.JPG,AFNE01.JPG,AFNE01.JPG,AFNE01.JPG,,,,,,,,,,,,,,,,,,,,,1,4,14,9,,,AFNE13.jpg,AFNE05.jpg,AFSA02.jpg,AFSA05.jpg,AFSA05.jpg,FS,4,num_4,32,num_6,1.48339966754,,,2017_Jun_16_1558,60.0108750314,MAFE4ImagesEEG,001,100726,
AFNE01.JPG,AFNE01.JPG,AFNE01.JPG,AFNE01.JPG,AFNE01.JPG,AFNE01.JPG,,,,,,,,,,,,,,,,,,,,,1,5,15,6,,,AFSA12.jpg,AFNE08.jpg,AFNE07.jpg,AFSA19.jpg,AFNE07.jpg,FN,3,num_2,32,num_6,0.983430618886,,,2017_Jun_16_1558,60.0108750314,MAFE4ImagesEEG,001,100726,
AFNE01.JPG,AFNE01.JPG,AFNE01.JPG,AFNE01.JPG,AFNE01.JPG,AFNE01.JPG,,,,,,,,,,,,,,,,,,,,,1,6,16,0,,,AFNE13.jpg,AFSA14.jpg,AFNE19.jpg,AFSA17.jpg,AFSA17.jpg,FS,4,num_4,16,num_4,0.90015937516,,,2017_Jun_16_1558,60.0108750314,MAFE4ImagesEEG,001,100726,
AFNE01.JPG,AFNE01.JPG,AFNE01.JPG,AFNE01.JPG,AFNE01.JPG,AFNE01.JPG,,,,,,,,,,,,,,,,,,,,,1,7,17,8,,,AFNE18.jpg,AFNE14.jpg,AFSA12.jpg,AFSA17.jpg,AFSA17.jpg,FS,4,num_4,32,num_8,2.00011771114,,,2017_Jun_16_1558,60.0108750314,MAFE4ImagesEEG,001,100726,
AFNE01.JPG,AFNE01.JPG,AFNE01.JPG,AFNE01.JPG,AFNE01.JPG,AFNE01.JPG,,,,,,,,,,,,,,,,,,,,,1,8,18,5,,,AFNE03.jpg,AFSA07.jpg,AFSA12.jpg,AFNE10.jpg,AFNE03.jpg,FN,3,num_8,32,num_4,1.45007359365,,,2017_Jun_16_1558,60.0108750314,MAFE4ImagesEEG,001,100726,
AFNE01.JPG,AFNE01.JPG,AFNE01.JPG,AFNE01.JPG,AFNE01.JPG,AFNE01.JPG,,,,,,,,,,,,,,,,,,,,,1,9,19,3,,,AFSA17.jpg,AFNE13.jpg,AFSA06.jpg,AFNE20.jpg,AFSA06.jpg,FS,4,num_2,16,num_2,1.36670003424,,,2017_Jun_16_1558,60.0108750314,MAFE4ImagesEEG,001,100726,
AFNE01.JPG,AFNE01.JPG,AFNE01.JPG,AFNE01.JPG,AFNE01.JPG,AFNE01.JPG,,,,,,,,,,,,,,,,,,,,,2,0,20,3,,,AFNE08.jpg,AFNE14.jpg,AFSA09.jpg,AFSA13.jpg,AFNE08.jpg,FN,3,num_8,32,num_4,0.950136618805,,,2017_Jun_16_1558,60.0108750314,MAFE4ImagesEEG,001,100726,
AFNE01.JPG,AFNE01.JPG,AFNE01.JPG,AFNE01.JPG,AFNE01.JPG,AFNE01.JPG,,,,,,,,,,,,,,,,,,,,,2,1,21,7,,,AFNE17.jpg,AFNE04.jpg,AFSA02.jpg,AFSA17.jpg,AFNE17.jpg,FN,3,num_8,16,num_8,0.833408760489,,,2017_Jun_16_1558,60.0108750314,MAFE4ImagesEEG,001,100726,
AFNE01.JPG,AFNE01.JPG,AFNE01.JPG,AFNE01.JPG,AFNE01.JPG,AFNE01.JPG,,,,,,,,,,,,,,,,,,,,,2,2,22,6,,,AFSA11.jpg,AFNE08.jpg,AFSA14.jpg,AFNE20.jpg,AFNE20.jpg,FN,3,num_4,16,num_4,1.20014311373,,,2017_Jun_16_1558,60.0108750314,MAFE4ImagesEEG,001,100726,
AFNE01.JPG,AFNE01.JPG,AFNE01.JPG,AFNE01.JPG,AFNE01.JPG,AFNE01.JPG,,,,,,,,,,,,,,,,,,,,,2,3,23,0,,,AFSA10.jpg,AFNE05.jpg,AFNE02.jpg,AFSA05.jpg,AFSA05.jpg,FS,4,num_4,32,num_6,1.2667397738,,,2017_Jun_16_1558,60.0108750314,MAFE4ImagesEEG,001,100726,
AFNE01.JPG,AFNE01.JPG,AFNE01.JPG,AFNE01.JPG,AFNE01.JPG,AFNE01.JPG,,,,,,,,,,,,,,,,,,,,,2,4,24,5,,,AFSA06.jpg,AFNE14.jpg,AFNE19.jpg,AFSA04.jpg,AFNE14.jpg,FN,3,num_6,32,num_2,1.73337120202,,,2017_Jun_16_1558,60.0108750314,MAFE4ImagesEEG,001,100726,
AFNE01.JPG,AFNE01.JPG,AFNE01.JPG,AFNE01.JPG,AFNE01.JPG,AFNE01.JPG,,,,,,,,,,,,,,,,,,,,,2,5,25,9,,,AFNE13.jpg,AFSA04.jpg,AFNE19.jpg,AFSA19.jpg,AFSA04.jpg,FS,4,num_6,32,num_4,1.26672822714,,,2017_Jun_16_1558,60.0108750314,MAFE4ImagesEEG,001,100726,
AFNE01.JPG,AFNE01.JPG,AFNE01.JPG,AFNE01.JPG,AFNE01.JPG,AFNE01.JPG,,,,,,,,,,,,,,,,,,,,,2,6,26,8,,,AFNE18.jpg,AFSA08.jpg,AFSA18.jpg,AFNE07.jpg,AFNE07.jpg,FN,3,num_4,16,num_4,1.00010552316,,,2017_Jun_16_1558,60.0108750314,MAFE4ImagesEEG,001,100726,
AFNE01.JPG,AFNE01.JPG,AFNE01.JPG,AFNE01.JPG,AFNE01.JPG,AFNE01.JPG,,,,,,,,,,,,,,,,,,,,,2,7,27,2,,,AFSA18.jpg,AFNE03.jpg,AFNE06.jpg,AFSA14.jpg,AFNE03.jpg,FN,3,num_6,32,num_2,4.39988402068,,,2017_Jun_16_1558,60.0108750314,MAFE4ImagesEEG,001,100726,
AFNE01.JPG,AFNE01.JPG,AFNE01.JPG,AFNE01.JPG,AFNE01.JPG,AFNE01.JPG,,,,,,,,,,,,,,,,,,,,,2,8,28,1,,,AFSA20.jpg,AFNE07.jpg,AFSA08.jpg,AFNE02.jpg,AFSA08.jpg,FS,4,num_2,32,num_8,1.6001461288,,,2017_Jun_16_1558,60.0108750314,MAFE4ImagesEEG,001,100726,
AFNE01.JPG,AFNE01.JPG,AFNE01.JPG,AFNE01.JPG,AFNE01.JPG,AFNE01.JPG,,,,,,,,,,,,,,,,,,,,,2,9,29,4,,,AFNE07.jpg,AFSA12.jpg,AFSA20.jpg,AFNE05.jpg,AFSA20.jpg,FS,4,num_2,32,num_4,1.39994464046,,,2017_Jun_16_1558,60.0108750314,MAFE4ImagesEEG,001,100726,
AFNE01.JPG,AFNE01.JPG,AFNE01.JPG,AFNE01.JPG,AFNE01.JPG,AFNE01.JPG,,,,,,,,,,,,,,,,,,,,,3,0,30,3,,,AFSA08.jpg,AFNE06.jpg,AFNE16.jpg,AFSA04.jpg,AFNE06.jpg,FN,3,num_6,32,num_8,0.78347321297,,,2017_Jun_16_1558,60.0108750314,MAFE4ImagesEEG,001,100726,
AFNE01.JPG,AFNE01.JPG,AFNE01.JPG,AFNE01.JPG,AFNE01.JPG,AFNE01.JPG,,,,,,,,,,,,,,,,,,,,,3,1,31,7,,,AFSA03.jpg,AFSA20.jpg,AFNE18.jpg,AFNE14.jpg,AFNE14.jpg,FN,3,num_4,32,num_2,1.45011368603,,,2017_Jun_16_1558,60.0108750314,MAFE4ImagesEEG,001,100726,
AFNE01.JPG,AFNE01.JPG,AFNE01.JPG,AFNE01.JPG,AFNE01.JPG,AFNE01.JPG,,,,,,,,,,,,,,,,,,,,,3,2,32,0,,,AFSA12.jpg,AFNE18.jpg,AFNE04.jpg,AFSA03.jpg,AFSA12.jpg,FS,4,num_8,16,num_8,0.700186253176,,,2017_Jun_16_1558,60.0108750314,MAFE4ImagesEEG,001,100726,
AFNE01.JPG,AFNE01.JPG,AFNE01.JPG,AFNE01.JPG,AFNE01.JPG,AFNE01.JPG,,,,,,,,,,,,,,,,,,,,,3,3,33,4,,,AFNE11.jpg,AFNE05.jpg,AFSA03.jpg,AFSA04.jpg,AFSA03.jpg,FS,4,num_2,16,num_2,1.08356119168,,,2017_Jun_16_1558,60.0108750314,MAFE4ImagesEEG,001,100726,
AFNE01.JPG,AFNE01.JPG,AFNE01.JPG,AFNE01.JPG,AFNE01.JPG,AFNE01.JPG,,,,,,,,,,,,,,,,,,,,,3,4,34,8,,,AFSA03.jpg,AFNE10.jpg,AFNE17.jpg,AFSA17.jpg,AFSA03.jpg,FS,4,num_8,32,num_4,0.883459453355,,,2017_Jun_16_1558,60.0108750314,MAFE4ImagesEEG,001,100726,
AFNE01.JPG,AFNE01.JPG,AFNE01.JPG,AFNE01.JPG,AFNE01.JPG,AFNE01.JPG,,,,,,,,,,,,,,,,,,,,,3,5,35,1,,,AFNE20.jpg,AFNE02.jpg,AFSA03.jpg,AFSA06.jpg,AFNE02.jpg,FN,3,num_6,16,num_6,1.26676864037,,,2017_Jun_16_1558,60.0108750314,MAFE4ImagesEEG,001,100726,
AFNE01.JPG,AFNE01.JPG,AFNE01.JPG,AFNE01.JPG,AFNE01.JPG,AFNE01.JPG,,,,,,,,,,,,,,,,,,,,,3,6,36,5,,,AFNE19.jpg,AFNE10.jpg,AFSA02.jpg,AFSA15.jpg,AFNE19.jpg,FN,3,num_8,16,num_8,1.16686226404,,,2017_Jun_16_1558,60.0108750314,MAFE4ImagesEEG,001,100726,
AFNE01.JPG,AFNE01.JPG,AFNE01.JPG,AFNE01.JPG,AFNE01.JPG,AFNE01.JPG,,,,,,,,,,,,,,,,,,,,,3,7,37,9,,,AFNE17.jpg,AFSA08.jpg,AFSA04.jpg,AFNE18.jpg,AFSA04.jpg,FS,4,num_2,32,num_6,1.33341758081,,,2017_Jun_16_1558,60.0108750314,MAFE4ImagesEEG,001,100726,
AFNE01.JPG,AFNE01.JPG,AFNE01.JPG,AFNE01.JPG,AFNE01.JPG,AFNE01.JPG,,,,,,,,,,,,,,,,,,,,,3,8,38,6,,,AFSA15.jpg,AFSA18.jpg,AFNE20.jpg,AFNE11.jpg,AFSA18.jpg,FS,4,num_6,16,num_6,1.20008249406,,,2017_Jun_16_1558,60.0108750314,MAFE4ImagesEEG,001,100726,
AFNE01.JPG,AFNE01.JPG,AFNE01.JPG,AFNE01.JPG,AFNE01.JPG,AFNE01.JPG,,,,,,,,,,,,,,,,,,,,,3,9,39,2,,,AFNE16.jpg,AFSA11.jpg,AFNE12.jpg,AFSA04.jpg,AFSA04.jpg,FS,4,num_4,16,num_4,0.833427684032,,,2017_Jun_16_1558,60.0108750314,MAFE4ImagesEEG,001,100726,
