IPosition2,IPosition3,IPosition1,IPosition6,IPosition4,IPosition5,TrialsF1.thisRepN,TrialsF1.thisTrialN,TrialsF1.thisN,TrialsF1.thisIndex,TrialsM1.thisRepN,TrialsM1.thisTrialN,TrialsM1.thisN,TrialsM1.thisIndex,TrialsF2.thisRepN,TrialsF2.thisTrialN,TrialsF2.thisN,TrialsF2.thisIndex,TrialsM2.thisRepN,TrialsM2.thisTrialN,TrialsM2.thisN,TrialsM2.thisIndex,TrialsF3.thisRepN,TrialsF3.thisTrialN,TrialsF3.thisN,TrialsF3.thisIndex,TrialsM3.thisRepN,TrialsM3.thisTrialN,TrialsM3.thisN,TrialsM3.thisIndex,InstrKey_resp.keys,InstrKey_resp.rt,Image0 _Position,Image1 _Position,Image2 _Position,Image3 _Position,Center_image,condition,code,correct_answer,accuracy,Key_Resp.keys,Key_Resp.rt,BreakKey_resp.keys,BreakKey_resp.rt,date,frameRate,expName,session,participant,
,,,,,,,,,,,,,,,,,,,,,,,,,,,,,,space,20.7989777403,,,,,,,,,,,,,,2017_Jun_20_1609,60.0156112204,FEMA4ImagesEEG,001,100759,
AFNE23.JPG,AFNE24.JPG,AFNE22.JPG,AFSA24.JPG,AFSA22.JPG,AFSA23.JPG,0,0,0,8,,,,,,,,,,,,,,,,,,,,,,,AFSA16.jpg,AFNE05.jpg,AFSA19.jpg,AFNE19.jpg,AFSA16.jpg,FS,4,num_8,32,num_4,2.98328660708,,,2017_Jun_20_1609,60.0156112204,FEMA4ImagesEEG,001,100759,
AMNE22.JPG,AMSA24.JPG,AMSA22.JPG,AMNE25.JPG,AMNE24.JPG,AMSA25.JPG,0,1,1,7,,,,,,,,,,,,,,,,,,,,,,,AFNE02.jpg,AFNE20.jpg,AFSA08.jpg,AFSA06.jpg,AFSA08.jpg,FS,4,num_2,32,num_4,4.31654895027,,,2017_Jun_20_1609,60.0156112204,FEMA4ImagesEEG,001,100759,
AMSA21.JPG,AMNE22.JPG,AMNE21.JPG,AMSA23.JPG,AMSA22.JPG,AMNE23.JPG,0,2,2,1,,,,,,,,,,,,,,,,,,,,,,,AFSA10.jpg,AFNE12.jpg,AFSA16.jpg,AFNE13.jpg,AFNE13.jpg,FN,3,num_4,32,num_8,1.9000621913,,,2017_Jun_20_1609,60.0156112204,FEMA4ImagesEEG,001,100759,
AFNE22.JPG,AFSA24.JPG,AFSA22.JPG,AFNE25.JPG,AFNE24.JPG,AFSA25.JPG,0,3,3,6,,,,,,,,,,,,,,,,,,,,,,,AFNE02.jpg,AFSA01.jpg,AFSA20.jpg,AFNE04.jpg,AFSA01.jpg,FS,4,num_6,32,num_2,1.46669268911,,,2017_Jun_20_1609,60.0156112204,FEMA4ImagesEEG,001,100759,
AFSA21.JPG,AFNE23.JPG,AFNE21.JPG,AFSA25.JPG,AFNE25.JPG,AFSA23.JPG,0,4,4,4,,,,,,,,,,,,,,,,,,,,,,,AFSA19.jpg,AFNE05.jpg,AFSA15.jpg,AFNE19.jpg,AFNE05.jpg,FN,3,num_6,32,num_4,2.43333806959,,,2017_Jun_20_1609,60.0156112204,FEMA4ImagesEEG,001,100759,
AMSA25.JPG,AMNE24.JPG,AMSA24.JPG,AMNE26.JPG,AMSA21.JPG,AMNE25.JPG,0,5,5,3,,,,,,,,,,,,,,,,,,,,,,,AFNE05.jpg,AFSA12.jpg,AFNE14.jpg,AFSA14.jpg,AFSA14.jpg,FS,4,num_4,32,num_2,1.90005417285,,,2017_Jun_20_1609,60.0156112204,FEMA4ImagesEEG,001,100759,
AFSA25.JPG,AFNE24.JPG,AFSA24.JPG,AFNE21.JPG,AFSA21.JPG,AFNE25.JPG,0,6,6,2,,,,,,,,,,,,,,,,,,,,,,,AFNE04.jpg,AFSA16.jpg,AFNE14.jpg,AFSA12.jpg,AFSA12.jpg,FS,4,num_4,16,num_4,2.06663803523,,,2017_Jun_20_1609,60.0156112204,FEMA4ImagesEEG,001,100759,
AMSA21.JPG,AMNE23.JPG,AMNE21.JPG,AMSA25.JPG,AMNE25.JPG,AMSA23.JPG,0,7,7,5,,,,,,,,,,,,,,,,,,,,,,,AFSA14.jpg,AFNE08.jpg,AFSA11.jpg,AFNE03.jpg,AFNE08.jpg,FN,3,num_6,32,num_2,2.63334903866,,,2017_Jun_20_1609,60.0156112204,FEMA4ImagesEEG,001,100759,
AFSA21.JPG,AFNE22.JPG,AFNE21.JPG,AFSA23.JPG,AFSA22.JPG,AFNE23.JPG,0,8,8,0,,,,,,,,,,,,,,,,,,,,,,,AFSA05.jpg,AFNE18.jpg,AFSA11.jpg,AFNE07.jpg,AFSA11.jpg,FS,4,num_2,32,num_4,2.09999137209,,,2017_Jun_20_1609,60.0156112204,FEMA4ImagesEEG,001,100759,
AMNE23.JPG,AMNE24.JPG,AMNE22.JPG,AMSA24.JPG,AMSA22.JPG,AMSA23.JPG,0,9,9,9,,,,,,,,,,,,,,,,,,,,,,,AFSA01.jpg,AFSA07.jpg,AFNE11.jpg,AFNE20.jpg,AFSA07.jpg,FS,4,num_6,32,num_2,1.88340973877,,,2017_Jun_20_1609,60.0156112204,FEMA4ImagesEEG,001,100759,
AMSA21.JPG,AMNE23.JPG,AMNE21.JPG,AMSA25.JPG,AMNE25.JPG,AMSA23.JPG,,,,,0,0,0,5,,,,,,,,,,,,,,,,,,,AMNE18.jpg,AMSA11.jpg,AMSA15.jpg,AMNE11.jpg,AMNE11.jpg,MN,1,num_4,32,num_8,1.75009999052,,,2017_Jun_20_1609,60.0156112204,FEMA4ImagesEEG,001,100759,
AFNE23.JPG,AFNE24.JPG,AFNE22.JPG,AFSA24.JPG,AFSA22.JPG,AFSA23.JPG,,,,,0,1,1,8,,,,,,,,,,,,,,,,,,,AMSA11.jpg,AMNE15.jpg,AMNE05.jpg,AMSA19.jpg,AMSA19.jpg,MS,2,num_4,32,num_2,3.26657363097,,,2017_Jun_20_1609,60.0156112204,FEMA4ImagesEEG,001,100759,
AFSA21.JPG,AFNE23.JPG,AFNE21.JPG,AFSA25.JPG,AFNE25.JPG,AFSA23.JPG,,,,,0,2,2,4,,,,,,,,,,,,,,,,,,,AMNE09.jpg,AMSA03.jpg,AMNE05.jpg,AMSA10.jpg,AMSA10.jpg,MS,2,num_4,16,num_4,1.95003783121,,,2017_Jun_20_1609,60.0156112204,FEMA4ImagesEEG,001,100759,
AMNE23.JPG,AMNE24.JPG,AMNE22.JPG,AMSA24.JPG,AMSA22.JPG,AMSA23.JPG,,,,,0,3,3,9,,,,,,,,,,,,,,,,,,,AMNE14.jpg,AMSA10.jpg,AMSA07.jpg,AMNE20.jpg,AMNE14.jpg,MN,1,num_8,16,num_8,1.2667583765,,,2017_Jun_20_1609,60.0156112204,FEMA4ImagesEEG,001,100759,
AMSA25.JPG,AMNE24.JPG,AMSA24.JPG,AMNE26.JPG,AMSA21.JPG,AMNE25.JPG,,,,,0,4,4,3,,,,,,,,,,,,,,,,,,,AMSA20.jpg,AMNE16.jpg,AMNE08.jpg,AMSA14.jpg,AMNE16.jpg,MN,1,num_6,32,num_2,1.98340367666,,,2017_Jun_20_1609,60.0156112204,FEMA4ImagesEEG,001,100759,
AMNE22.JPG,AMSA24.JPG,AMSA22.JPG,AMNE25.JPG,AMNE24.JPG,AMSA25.JPG,,,,,0,5,5,7,,,,,,,,,,,,,,,,,,,AMNE18.jpg,AMSA13.jpg,AMNE14.jpg,AMSA11.jpg,AMSA11.jpg,MS,2,num_4,16,num_4,1.38340605027,,,2017_Jun_20_1609,60.0156112204,FEMA4ImagesEEG,001,100759,
AFSA25.JPG,AFNE24.JPG,AFSA24.JPG,AFNE21.JPG,AFSA21.JPG,AFNE25.JPG,,,,,0,6,6,2,,,,,,,,,,,,,,,,,,,AMSA10.jpg,AMNE16.jpg,AMNE10.jpg,AMSA18.jpg,AMNE16.jpg,MN,1,num_6,32,num_8,3.14997535106,,,2017_Jun_20_1609,60.0156112204,FEMA4ImagesEEG,001,100759,
AFNE22.JPG,AFSA24.JPG,AFSA22.JPG,AFNE25.JPG,AFNE24.JPG,AFSA25.JPG,,,,,0,7,7,6,,,,,,,,,,,,,,,,,,,AMSA08.jpg,AMSA15.jpg,AMNE01.jpg,AMNE09.jpg,AMSA08.jpg,MS,2,num_8,32,num_6,1.1667265913,,,2017_Jun_20_1609,60.0156112204,FEMA4ImagesEEG,001,100759,
AMSA21.JPG,AMNE22.JPG,AMNE21.JPG,AMSA23.JPG,AMSA22.JPG,AMNE23.JPG,,,,,0,8,8,1,,,,,,,,,,,,,,,,,,,AMSA03.jpg,AMNE12.jpg,AMNE07.jpg,AMSA17.jpg,AMSA17.jpg,MS,2,num_4,16,num_4,2.6500050195,,,2017_Jun_20_1609,60.0156112204,FEMA4ImagesEEG,001,100759,
AFSA21.JPG,AFNE22.JPG,AFNE21.JPG,AFSA23.JPG,AFSA22.JPG,AFNE23.JPG,,,,,0,9,9,0,,,,,,,,,,,,,,,,,,,AMNE18.jpg,AMSA16.jpg,AMSA18.jpg,AMNE15.jpg,AMSA16.jpg,MS,2,num_6,32,num_2,4.34984166711,,,2017_Jun_20_1609,60.0156112204,FEMA4ImagesEEG,001,100759,
AFNE22.JPG,AFSA24.JPG,AFSA22.JPG,AFNE25.JPG,AFNE24.JPG,AFSA25.JPG,,,,,,,,,0,0,0,6,,,,,,,,,,,,,,,AFNE01.jpg,AFSA08.jpg,AFSA11.jpg,AFNE10.jpg,AFSA11.jpg,FS,4,num_2,32,num_4,2.08344380138,,,2017_Jun_20_1609,60.0156112204,FEMA4ImagesEEG,001,100759,
AFSA21.JPG,AFNE23.JPG,AFNE21.JPG,AFSA25.JPG,AFNE25.JPG,AFSA23.JPG,,,,,,,,,0,1,1,4,,,,,,,,,,,,,,,AFNE13.jpg,AFNE15.jpg,AFSA17.jpg,AFSA10.jpg,AFNE13.jpg,FN,3,num_8,32,num_6,2.13303134684,,,2017_Jun_20_1609,60.0156112204,FEMA4ImagesEEG,001,100759,
AMSA25.JPG,AMNE24.JPG,AMSA24.JPG,AMNE26.JPG,AMSA21.JPG,AMNE25.JPG,,,,,,,,,0,2,2,3,,,,,,,,,,,,,,,AFSA20.jpg,AFNE08.jpg,AFSA09.jpg,AFNE11.jpg,AFSA09.jpg,FS,4,num_2,32,num_4,1.16673172312,,,2017_Jun_20_1609,60.0156112204,FEMA4ImagesEEG,001,100759,
AMNE22.JPG,AMSA24.JPG,AMSA22.JPG,AMNE25.JPG,AMNE24.JPG,AMSA25.JPG,,,,,,,,,0,3,3,7,,,,,,,,,,,,,,,AFSA12.jpg,AFNE08.jpg,AFSA07.jpg,AFNE10.jpg,AFNE10.jpg,FN,3,num_4,32,num_6,3.95024599088,,,2017_Jun_20_1609,60.0156112204,FEMA4ImagesEEG,001,100759,
AMNE23.JPG,AMNE24.JPG,AMNE22.JPG,AMSA24.JPG,AMSA22.JPG,AMSA23.JPG,,,,,,,,,0,4,4,9,,,,,,,,,,,,,,,AFSA14.jpg,AFNE20.jpg,AFNE04.jpg,AFSA16.jpg,AFNE04.jpg,FN,3,num_2,16,num_2,1.90001504263,,,2017_Jun_20_1609,60.0156112204,FEMA4ImagesEEG,001,100759,
AMSA21.JPG,AMNE22.JPG,AMNE21.JPG,AMSA23.JPG,AMSA22.JPG,AMNE23.JPG,,,,,,,,,0,5,5,1,,,,,,,,,,,,,,,AFNE11.jpg,AFNE05.jpg,AFSA08.jpg,AFSA02.jpg,AFNE11.jpg,FN,3,num_8,16,num_8,2.3333293777,,,2017_Jun_20_1609,60.0156112204,FEMA4ImagesEEG,001,100759,
AMSA21.JPG,AMNE23.JPG,AMNE21.JPG,AMSA25.JPG,AMNE25.JPG,AMSA23.JPG,,,,,,,,,0,6,6,5,,,,,,,,,,,,,,,AFNE11.jpg,AFNE18.jpg,AFSA12.jpg,AFSA02.jpg,AFNE18.jpg,FN,3,num_6,16,num_6,0.833431212232,,,2017_Jun_20_1609,60.0156112204,FEMA4ImagesEEG,001,100759,
AFSA25.JPG,AFNE24.JPG,AFSA24.JPG,AFNE21.JPG,AFSA21.JPG,AFNE25.JPG,,,,,,,,,0,7,7,2,,,,,,,,,,,,,,,AFSA12.jpg,AFNE05.jpg,AFSA17.jpg,AFNE15.jpg,AFSA12.jpg,FS,4,num_8,32,num_4,1.41675168904,,,2017_Jun_20_1609,60.0156112204,FEMA4ImagesEEG,001,100759,
AFSA21.JPG,AFNE22.JPG,AFNE21.JPG,AFSA23.JPG,AFSA22.JPG,AFNE23.JPG,,,,,,,,,0,8,8,0,,,,,,,,,,,,,,,AFSA16.jpg,AFNE08.jpg,AFNE02.jpg,AFSA03.jpg,AFSA03.jpg,FS,4,num_4,16,num_4,1.71668090206,,,2017_Jun_20_1609,60.0156112204,FEMA4ImagesEEG,001,100759,
AFNE23.JPG,AFNE24.JPG,AFNE22.JPG,AFSA24.JPG,AFSA22.JPG,AFSA23.JPG,,,,,,,,,0,9,9,8,,,,,,,,,,,,,,,AFNE05.jpg,AFNE01.jpg,AFSA15.jpg,AFSA07.jpg,AFSA15.jpg,FS,4,num_2,16,num_2,4.96656006365,,,2017_Jun_20_1609,60.0156112204,FEMA4ImagesEEG,001,100759,
AMSA21.JPG,AMNE22.JPG,AMNE21.JPG,AMSA23.JPG,AMSA22.JPG,AMNE23.JPG,,,,,,,,,,,,,0,0,0,1,,,,,,,,,,,AMSA12.jpg,AMSA14.jpg,AMNE17.jpg,AMNE08.jpg,AMSA14.jpg,MS,2,num_6,32,num_8,3.83320894022,,,2017_Jun_20_1609,60.0156112204,FEMA4ImagesEEG,001,100759,
AMNE22.JPG,AMSA24.JPG,AMSA22.JPG,AMNE25.JPG,AMNE24.JPG,AMSA25.JPG,,,,,,,,,,,,,0,1,1,7,,,,,,,,,,,AMSA14.jpg,AMNE05.jpg,AMSA09.jpg,AMNE11.jpg,AMNE05.jpg,MN,1,num_6,16,num_6,0.98346622102,,,2017_Jun_20_1609,60.0156112204,FEMA4ImagesEEG,001,100759,
AFSA21.JPG,AFNE23.JPG,AFNE21.JPG,AFSA25.JPG,AFNE25.JPG,AFSA23.JPG,,,,,,,,,,,,,0,2,2,4,,,,,,,,,,,AMNE05.jpg,AMSA13.jpg,AMSA19.jpg,AMNE19.jpg,AMSA19.jpg,MS,2,num_2,16,num_2,0.666806936497,,,2017_Jun_20_1609,60.0156112204,FEMA4ImagesEEG,001,100759,
AFNE22.JPG,AFSA24.JPG,AFSA22.JPG,AFNE25.JPG,AFNE24.JPG,AFSA25.JPG,,,,,,,,,,,,,0,3,3,6,,,,,,,,,,,AMSA13.jpg,AMSA16.jpg,AMNE11.jpg,AMNE04.jpg,AMSA16.jpg,MS,2,num_6,32,num_4,2.94999324856,,,2017_Jun_20_1609,60.0156112204,FEMA4ImagesEEG,001,100759,
AMNE23.JPG,AMNE24.JPG,AMNE22.JPG,AMSA24.JPG,AMSA22.JPG,AMSA23.JPG,,,,,,,,,,,,,0,4,4,9,,,,,,,,,,,AMNE16.jpg,AMSA06.jpg,AMNE08.jpg,AMSA14.jpg,AMNE08.jpg,MN,1,num_2,32,num_4,1.70007078722,,,2017_Jun_20_1609,60.0156112204,FEMA4ImagesEEG,001,100759,
AMSA25.JPG,AMNE24.JPG,AMSA24.JPG,AMNE26.JPG,AMSA21.JPG,AMNE25.JPG,,,,,,,,,,,,,0,5,5,3,,,,,,,,,,,AMSA12.jpg,AMSA07.jpg,AMNE12.jpg,AMNE08.jpg,AMSA12.jpg,MS,2,num_8,32,num_6,1.26673175534,,,2017_Jun_20_1609,60.0156112204,FEMA4ImagesEEG,001,100759,
AFNE23.JPG,AFNE24.JPG,AFNE22.JPG,AFSA24.JPG,AFSA22.JPG,AFSA23.JPG,,,,,,,,,,,,,0,6,6,8,,,,,,,,,,,AMNE17.jpg,AMSA19.jpg,AMNE12.jpg,AMSA12.jpg,AMSA19.jpg,MS,2,num_6,32,num_4,3.08330973214,,,2017_Jun_20_1609,60.0156112204,FEMA4ImagesEEG,001,100759,
AFSA25.JPG,AFNE24.JPG,AFSA24.JPG,AFNE21.JPG,AFSA21.JPG,AFNE25.JPG,,,,,,,,,,,,,0,7,7,2,,,,,,,,,,,AMNE18.jpg,AMSA08.jpg,AMNE11.jpg,AMSA19.jpg,AMSA08.jpg,MS,2,num_6,32,num_2,1.45008706464,,,2017_Jun_20_1609,60.0156112204,FEMA4ImagesEEG,001,100759,
AFSA21.JPG,AFNE22.JPG,AFNE21.JPG,AFSA23.JPG,AFSA22.JPG,AFNE23.JPG,,,,,,,,,,,,,0,8,8,0,,,,,,,,,,,AMNE13.jpg,AMSA13.jpg,AMNE15.jpg,AMSA17.jpg,AMSA13.jpg,MS,2,num_6,32,num_8,1.71666871407,,,2017_Jun_20_1609,60.0156112204,FEMA4ImagesEEG,001,100759,
AMSA21.JPG,AMNE23.JPG,AMNE21.JPG,AMSA25.JPG,AMNE25.JPG,AMSA23.JPG,,,,,,,,,,,,,0,9,9,5,,,,,,,,,,,AMNE16.jpg,AMSA04.jpg,AMSA03.jpg,AMNE02.jpg,AMNE02.jpg,MN,1,num_4,48,None,,,,2017_Jun_20_1609,60.0156112204,FEMA4ImagesEEG,001,100759,
AMNE23.JPG,AMNE24.JPG,AMNE22.JPG,AMSA24.JPG,AMSA22.JPG,AMSA23.JPG,,,,,,,,,,,,,,,,,0,0,0,9,,,,,,,AFSA15.jpg,AFSA14.jpg,AFNE20.jpg,AFNE18.jpg,AFNE18.jpg,FN,3,num_4,32,num_2,2.56668053335,,,2017_Jun_20_1609,60.0156112204,FEMA4ImagesEEG,001,100759,
AFSA25.JPG,AFNE24.JPG,AFSA24.JPG,AFNE21.JPG,AFSA21.JPG,AFNE25.JPG,,,,,,,,,,,,,,,,,0,1,1,2,,,,,,,AFSA11.jpg,AFSA12.jpg,AFNE15.jpg,AFNE07.jpg,AFSA12.jpg,FS,4,num_6,32,num_4,0.950063490309,,,2017_Jun_20_1609,60.0156112204,FEMA4ImagesEEG,001,100759,
AFNE23.JPG,AFNE24.JPG,AFNE22.JPG,AFSA24.JPG,AFSA22.JPG,AFSA23.JPG,,,,,,,,,,,,,,,,,0,2,2,8,,,,,,,AFNE10.jpg,AFNE04.jpg,AFSA08.jpg,AFSA06.jpg,AFSA06.jpg,FS,4,num_4,16,num_4,1.40010244399,,,2017_Jun_20_1609,60.0156112204,FEMA4ImagesEEG,001,100759,
AMSA21.JPG,AMNE23.JPG,AMNE21.JPG,AMSA25.JPG,AMNE25.JPG,AMSA23.JPG,,,,,,,,,,,,,,,,,0,3,3,5,,,,,,,AFSA01.jpg,AFNE09.jpg,AFNE06.jpg,AFSA18.jpg,AFNE06.jpg,FN,3,num_2,32,num_6,0.966836540727,,,2017_Jun_20_1609,60.0156112204,FEMA4ImagesEEG,001,100759,
AMSA25.JPG,AMNE24.JPG,AMSA24.JPG,AMNE26.JPG,AMSA21.JPG,AMNE25.JPG,,,,,,,,,,,,,,,,,0,4,4,3,,,,,,,AFSA13.jpg,AFNE14.jpg,AFSA11.jpg,AFNE19.jpg,AFSA11.jpg,FS,4,num_2,32,num_4,1.39997895947,,,2017_Jun_20_1609,60.0156112204,FEMA4ImagesEEG,001,100759,
AMNE22.JPG,AMSA24.JPG,AMSA22.JPG,AMNE25.JPG,AMNE24.JPG,AMSA25.JPG,,,,,,,,,,,,,,,,,0,5,5,7,,,,,,,AFSA08.jpg,AFNE11.jpg,AFNE06.jpg,AFSA10.jpg,AFSA08.jpg,FS,4,num_8,16,num_8,2.34997317009,,,2017_Jun_20_1609,60.0156112204,FEMA4ImagesEEG,001,100759,
AFSA21.JPG,AFNE23.JPG,AFNE21.JPG,AFSA25.JPG,AFNE25.JPG,AFSA23.JPG,,,,,,,,,,,,,,,,,0,6,6,4,,,,,,,AFSA05.jpg,AFSA18.jpg,AFNE20.jpg,AFNE16.jpg,AFNE20.jpg,FN,3,num_2,16,num_2,1.300129354,,,2017_Jun_20_1609,60.0156112204,FEMA4ImagesEEG,001,100759,
AMSA21.JPG,AMNE22.JPG,AMNE21.JPG,AMSA23.JPG,AMSA22.JPG,AMNE23.JPG,,,,,,,,,,,,,,,,,0,7,7,1,,,,,,,AFSA19.jpg,AFSA07.jpg,AFNE04.jpg,AFNE07.jpg,AFNE07.jpg,FN,3,num_4,48,None,,,,2017_Jun_20_1609,60.0156112204,FEMA4ImagesEEG,001,100759,
AFNE22.JPG,AFSA24.JPG,AFSA22.JPG,AFNE25.JPG,AFNE24.JPG,AFSA25.JPG,,,,,,,,,,,,,,,,,0,8,8,6,,,,,,,AFNE20.jpg,AFSA14.jpg,AFNE18.jpg,AFSA19.jpg,AFSA19.jpg,FS,4,num_4,48,None,,,,2017_Jun_20_1609,60.0156112204,FEMA4ImagesEEG,001,100759,
AFSA21.JPG,AFNE22.JPG,AFNE21.JPG,AFSA23.JPG,AFSA22.JPG,AFNE23.JPG,,,,,,,,,,,,,,,,,0,9,9,0,,,,,,,AFSA01.jpg,AFNE14.jpg,AFSA02.jpg,AFNE04.jpg,AFSA02.jpg,FS,4,num_2,16,num_2,1.40043889941,,,2017_Jun_20_1609,60.0156112204,FEMA4ImagesEEG,001,100759,
AFNE22.JPG,AFSA24.JPG,AFSA22.JPG,AFNE25.JPG,AFNE24.JPG,AFSA25.JPG,,,,,,,,,,,,,,,,,,,,,0,0,0,6,,,AMSA17.jpg,AMNE02.jpg,AMSA03.jpg,AMNE10.jpg,AMNE02.jpg,MN,1,num_6,32,num_2,1.81669183937,,,2017_Jun_20_1609,60.0156112204,FEMA4ImagesEEG,001,100759,
AMNE22.JPG,AMSA24.JPG,AMSA22.JPG,AMNE25.JPG,AMNE24.JPG,AMSA25.JPG,,,,,,,,,,,,,,,,,,,,,0,1,1,7,,,AMNE08.jpg,AMNE02.jpg,AMSA06.jpg,AMSA03.jpg,AMSA03.jpg,MS,2,num_4,32,num_2,1.10011485661,,,2017_Jun_20_1609,60.0156112204,FEMA4ImagesEEG,001,100759,
AMSA21.JPG,AMNE23.JPG,AMNE21.JPG,AMSA25.JPG,AMNE25.JPG,AMSA23.JPG,,,,,,,,,,,,,,,,,,,,,0,2,2,5,,,AMSA14.jpg,AMNE16.jpg,AMSA17.jpg,AMNE07.jpg,AMSA14.jpg,MS,2,num_8,16,num_8,1.71678289701,,,2017_Jun_20_1609,60.0156112204,FEMA4ImagesEEG,001,100759,
AMSA21.JPG,AMNE22.JPG,AMNE21.JPG,AMSA23.JPG,AMSA22.JPG,AMNE23.JPG,,,,,,,,,,,,,,,,,,,,,0,3,3,1,,,AMSA18.jpg,AMNE02.jpg,AMNE18.jpg,AMSA01.jpg,AMNE02.jpg,MN,1,num_6,32,num_2,1.13344445871,,,2017_Jun_20_1609,60.0156112204,FEMA4ImagesEEG,001,100759,
AFSA21.JPG,AFNE23.JPG,AFNE21.JPG,AFSA25.JPG,AFNE25.JPG,AFSA23.JPG,,,,,,,,,,,,,,,,,,,,,0,4,4,4,,,AMSA02.jpg,AMNE16.jpg,AMNE18.jpg,AMSA12.jpg,AMNE16.jpg,MN,1,num_6,16,num_6,1.20007383404,,,2017_Jun_20_1609,60.0156112204,FEMA4ImagesEEG,001,100759,
AMNE23.JPG,AMNE24.JPG,AMNE22.JPG,AMSA24.JPG,AMSA22.JPG,AMSA23.JPG,,,,,,,,,,,,,,,,,,,,,0,5,5,9,,,AMNE20.jpg,AMSA04.jpg,AMSA05.jpg,AMNE01.jpg,AMSA04.jpg,MS,2,num_6,32,num_2,0.850150057813,,,2017_Jun_20_1609,60.0156112204,FEMA4ImagesEEG,001,100759,
AMSA25.JPG,AMNE24.JPG,AMSA24.JPG,AMNE26.JPG,AMSA21.JPG,AMNE25.JPG,,,,,,,,,,,,,,,,,,,,,0,6,6,3,,,AMNE11.jpg,AMSA10.jpg,AMSA09.jpg,AMNE05.jpg,AMNE05.jpg,MN,1,num_4,16,num_4,1.65008552512,,,2017_Jun_20_1609,60.0156112204,FEMA4ImagesEEG,001,100759,
AFSA25.JPG,AFNE24.JPG,AFSA24.JPG,AFNE21.JPG,AFSA21.JPG,AFNE25.JPG,,,,,,,,,,,,,,,,,,,,,0,7,7,2,,,AMNE01.jpg,AMSA14.jpg,AMNE16.jpg,AMSA13.jpg,AMNE16.jpg,MN,1,num_2,16,num_2,0.733495007269,,,2017_Jun_20_1609,60.0156112204,FEMA4ImagesEEG,001,100759,
AFSA21.JPG,AFNE22.JPG,AFNE21.JPG,AFSA23.JPG,AFSA22.JPG,AFNE23.JPG,,,,,,,,,,,,,,,,,,,,,0,8,8,0,,,AMNE08.jpg,AMNE18.jpg,AMSA04.jpg,AMSA03.jpg,AMNE18.jpg,MN,1,num_6,16,num_6,0.666800842388,,,2017_Jun_20_1609,60.0156112204,FEMA4ImagesEEG,001,100759,
AFNE23.JPG,AFNE24.JPG,AFNE22.JPG,AFSA24.JPG,AFSA22.JPG,AFSA23.JPG,,,,,,,,,,,,,,,,,,,,,0,9,9,8,,,AMNE11.jpg,AMSA05.jpg,AMNE07.jpg,AMSA08.jpg,AMSA08.jpg,MS,2,num_4,16,num_4,1.40007935092,,,2017_Jun_20_1609,60.0156112204,FEMA4ImagesEEG,001,100759,
,,,,,,,,,,,,,,,,,,,,,,,,,,,,,,,,,,,,,,,,,,,space,7.43322324497,2017_Jun_20_1609,60.0156112204,FEMA4ImagesEEG,001,100759,
AFNE01.JPG,AFNE01.JPG,AFNE01.JPG,AFNE01.JPG,AFNE01.JPG,AFNE01.JPG,0,0,0,1,,,,,,,,,,,,,,,,,,,,,,,AFSA04.jpg,AFNE16.jpg,AFSA20.jpg,AFNE17.jpg,AFNE16.jpg,FN,3,num_6,32,num_2,0.716642092681,,,2017_Jun_20_1609,60.0156112204,FEMA4ImagesEEG,001,100759,
AFNE01.JPG,AFNE01.JPG,AFNE01.JPG,AFNE01.JPG,AFNE01.JPG,AFNE01.JPG,0,1,1,9,,,,,,,,,,,,,,,,,,,,,,,AFSA06.jpg,AFSA16.jpg,AFNE16.jpg,AFNE03.jpg,AFSA16.jpg,FS,4,num_6,16,num_6,1.30010786443,,,2017_Jun_20_1609,60.0156112204,FEMA4ImagesEEG,001,100759,
AFNE01.JPG,AFNE01.JPG,AFNE01.JPG,AFNE01.JPG,AFNE01.JPG,AFNE01.JPG,0,2,2,3,,,,,,,,,,,,,,,,,,,,,,,AFSA08.jpg,AFNE16.jpg,AFNE03.jpg,AFSA09.jpg,AFNE03.jpg,FN,3,num_2,32,num_8,2.65004447056,,,2017_Jun_20_1609,60.0156112204,FEMA4ImagesEEG,001,100759,
AFNE01.JPG,AFNE01.JPG,AFNE01.JPG,AFNE01.JPG,AFNE01.JPG,AFNE01.JPG,0,3,3,6,,,,,,,,,,,,,,,,,,,,,,,AFSA01.jpg,AFNE07.jpg,AFSA07.jpg,AFNE14.jpg,AFNE14.jpg,FN,3,num_4,16,num_4,1.60009224457,,,2017_Jun_20_1609,60.0156112204,FEMA4ImagesEEG,001,100759,
AFNE01.JPG,AFNE01.JPG,AFNE01.JPG,AFNE01.JPG,AFNE01.JPG,AFNE01.JPG,0,4,4,0,,,,,,,,,,,,,,,,,,,,,,,AFSA01.jpg,AFNE12.jpg,AFSA18.jpg,AFNE10.jpg,AFSA01.jpg,FS,4,num_8,32,num_4,1.0167425801,,,2017_Jun_20_1609,60.0156112204,FEMA4ImagesEEG,001,100759,
AFNE01.JPG,AFNE01.JPG,AFNE01.JPG,AFNE01.JPG,AFNE01.JPG,AFNE01.JPG,0,5,5,8,,,,,,,,,,,,,,,,,,,,,,,AFNE06.jpg,AFSA18.jpg,AFNE17.jpg,AFSA13.jpg,AFNE06.jpg,FN,3,num_8,32,num_2,0.950145278824,,,2017_Jun_20_1609,60.0156112204,FEMA4ImagesEEG,001,100759,
AFNE01.JPG,AFNE01.JPG,AFNE01.JPG,AFNE01.JPG,AFNE01.JPG,AFNE01.JPG,0,6,6,4,,,,,,,,,,,,,,,,,,,,,,,AFNE19.jpg,AFNE14.jpg,AFSA17.jpg,AFSA15.jpg,AFNE14.jpg,FN,3,num_6,16,num_6,1.33343874966,,,2017_Jun_20_1609,60.0156112204,FEMA4ImagesEEG,001,100759,
AFNE01.JPG,AFNE01.JPG,AFNE01.JPG,AFNE01.JPG,AFNE01.JPG,AFNE01.JPG,0,7,7,5,,,,,,,,,,,,,,,,,,,,,,,AFSA13.jpg,AFSA08.jpg,AFNE10.jpg,AFNE04.jpg,AFSA13.jpg,FS,4,num_8,32,num_2,0.800147475908,,,2017_Jun_20_1609,60.0156112204,FEMA4ImagesEEG,001,100759,
AFNE01.JPG,AFNE01.JPG,AFNE01.JPG,AFNE01.JPG,AFNE01.JPG,AFNE01.JPG,0,8,8,7,,,,,,,,,,,,,,,,,,,,,,,AFSA20.jpg,AFNE04.jpg,AFSA16.jpg,AFNE11.jpg,AFSA20.jpg,FS,4,num_8,32,num_2,1.34992505936,,,2017_Jun_20_1609,60.0156112204,FEMA4ImagesEEG,001,100759,
AFNE01.JPG,AFNE01.JPG,AFNE01.JPG,AFNE01.JPG,AFNE01.JPG,AFNE01.JPG,0,9,9,2,,,,,,,,,,,,,,,,,,,,,,,AFNE11.jpg,AFSA16.jpg,AFSA11.jpg,AFNE17.jpg,AFNE11.jpg,FN,3,num_8,32,num_2,2.13338383916,,,2017_Jun_20_1609,60.0156112204,FEMA4ImagesEEG,001,100759,
AFNE01.JPG,AFNE01.JPG,AFNE01.JPG,AFNE01.JPG,AFNE01.JPG,AFNE01.JPG,1,0,10,5,,,,,,,,,,,,,,,,,,,,,,,AFSA04.jpg,AFNE10.jpg,AFNE06.jpg,AFSA05.jpg,AFNE06.jpg,FN,3,num_2,32,num_8,2.58334966423,,,2017_Jun_20_1609,60.0156112204,FEMA4ImagesEEG,001,100759,
AFNE01.JPG,AFNE01.JPG,AFNE01.JPG,AFNE01.JPG,AFNE01.JPG,AFNE01.JPG,1,1,11,4,,,,,,,,,,,,,,,,,,,,,,,AFSA17.jpg,AFNE03.jpg,AFNE02.jpg,AFSA12.jpg,AFNE03.jpg,FN,3,num_6,32,num_4,2.23336590966,,,2017_Jun_20_1609,60.0156112204,FEMA4ImagesEEG,001,100759,
AFNE01.JPG,AFNE01.JPG,AFNE01.JPG,AFNE01.JPG,AFNE01.JPG,AFNE01.JPG,1,2,12,0,,,,,,,,,,,,,,,,,,,,,,,AFNE13.jpg,AFSA18.jpg,AFNE20.jpg,AFSA19.jpg,AFNE13.jpg,FN,3,num_8,32,num_4,0.983517218381,,,2017_Jun_20_1609,60.0156112204,FEMA4ImagesEEG,001,100759,
AFNE01.JPG,AFNE01.JPG,AFNE01.JPG,AFNE01.JPG,AFNE01.JPG,AFNE01.JPG,1,3,13,7,,,,,,,,,,,,,,,,,,,,,,,AFNE13.jpg,AFSA09.jpg,AFSA20.jpg,AFNE01.jpg,AFNE01.jpg,FN,3,num_4,32,num_8,1.31673305435,,,2017_Jun_20_1609,60.0156112204,FEMA4ImagesEEG,001,100759,
AFNE01.JPG,AFNE01.JPG,AFNE01.JPG,AFNE01.JPG,AFNE01.JPG,AFNE01.JPG,1,4,14,2,,,,,,,,,,,,,,,,,,,,,,,AFNE14.jpg,AFSA06.jpg,AFNE13.jpg,AFSA16.jpg,AFNE14.jpg,FN,3,num_8,32,num_4,1.70003839256,,,2017_Jun_20_1609,60.0156112204,FEMA4ImagesEEG,001,100759,
AFNE01.JPG,AFNE01.JPG,AFNE01.JPG,AFNE01.JPG,AFNE01.JPG,AFNE01.JPG,1,5,15,3,,,,,,,,,,,,,,,,,,,,,,,AFNE12.jpg,AFNE04.jpg,AFSA14.jpg,AFSA04.jpg,AFSA14.jpg,FS,4,num_2,32,num_6,2.1166887281,,,2017_Jun_20_1609,60.0156112204,FEMA4ImagesEEG,001,100759,
AFNE01.JPG,AFNE01.JPG,AFNE01.JPG,AFNE01.JPG,AFNE01.JPG,AFNE01.JPG,1,6,16,9,,,,,,,,,,,,,,,,,,,,,,,AFNE19.jpg,AFSA17.jpg,AFNE10.jpg,AFSA11.jpg,AFSA17.jpg,FS,4,num_6,48,None,,,,2017_Jun_20_1609,60.0156112204,FEMA4ImagesEEG,001,100759,
AFNE01.JPG,AFNE01.JPG,AFNE01.JPG,AFNE01.JPG,AFNE01.JPG,AFNE01.JPG,1,7,17,1,,,,,,,,,,,,,,,,,,,,,,,AFSA05.jpg,AFNE16.jpg,AFSA11.jpg,AFNE19.jpg,AFSA11.jpg,FS,4,num_2,16,num_2,0.933521051193,,,2017_Jun_20_1609,60.0156112204,FEMA4ImagesEEG,001,100759,
AFNE01.JPG,AFNE01.JPG,AFNE01.JPG,AFNE01.JPG,AFNE01.JPG,AFNE01.JPG,1,8,18,8,,,,,,,,,,,,,,,,,,,,,,,AFNE01.jpg,AFSA08.jpg,AFSA07.jpg,AFNE05.jpg,AFSA08.jpg,FS,4,num_6,32,num_4,1.36673082528,,,2017_Jun_20_1609,60.0156112204,FEMA4ImagesEEG,001,100759,
AFNE01.JPG,AFNE01.JPG,AFNE01.JPG,AFNE01.JPG,AFNE01.JPG,AFNE01.JPG,1,9,19,6,,,,,,,,,,,,,,,,,,,,,,,AFSA05.jpg,AFNE17.jpg,AFSA10.jpg,AFNE01.jpg,AFNE01.jpg,FN,3,num_4,32,num_6,3.61651793448,,,2017_Jun_20_1609,60.0156112204,FEMA4ImagesEEG,001,100759,
AFNE01.JPG,AFNE01.JPG,AFNE01.JPG,AFNE01.JPG,AFNE01.JPG,AFNE01.JPG,2,0,20,3,,,,,,,,,,,,,,,,,,,,,,,AFSA04.jpg,AFSA10.jpg,AFNE07.jpg,AFNE14.jpg,AFNE14.jpg,FN,3,num_4,32,num_8,0.966790674953,,,2017_Jun_20_1609,60.0156112204,FEMA4ImagesEEG,001,100759,
AFNE01.JPG,AFNE01.JPG,AFNE01.JPG,AFNE01.JPG,AFNE01.JPG,AFNE01.JPG,2,1,21,5,,,,,,,,,,,,,,,,,,,,,,,AFNE05.jpg,AFSA10.jpg,AFSA16.jpg,AFNE09.jpg,AFNE05.jpg,FN,3,num_8,32,num_4,2.6000338702,,,2017_Jun_20_1609,60.0156112204,FEMA4ImagesEEG,001,100759,
AFNE01.JPG,AFNE01.JPG,AFNE01.JPG,AFNE01.JPG,AFNE01.JPG,AFNE01.JPG,2,2,22,9,,,,,,,,,,,,,,,,,,,,,,,AFSA02.jpg,AFNE15.jpg,AFNE09.jpg,AFSA11.jpg,AFSA11.jpg,FS,4,num_4,16,num_4,1.00013471046,,,2017_Jun_20_1609,60.0156112204,FEMA4ImagesEEG,001,100759,
AFNE01.JPG,AFNE01.JPG,AFNE01.JPG,AFNE01.JPG,AFNE01.JPG,AFNE01.JPG,2,3,23,1,,,,,,,,,,,,,,,,,,,,,,,AFSA12.jpg,AFSA08.jpg,AFNE16.jpg,AFNE17.jpg,AFNE16.jpg,FN,3,num_2,32,num_4,1.43345353566,,,2017_Jun_20_1609,60.0156112204,FEMA4ImagesEEG,001,100759,
AFNE01.JPG,AFNE01.JPG,AFNE01.JPG,AFNE01.JPG,AFNE01.JPG,AFNE01.JPG,2,4,24,2,,,,,,,,,,,,,,,,,,,,,,,AFNE06.jpg,AFSA08.jpg,AFNE04.jpg,AFSA02.jpg,AFSA02.jpg,FS,4,num_4,32,num_2,1.81670210301,,,2017_Jun_20_1609,60.0156112204,FEMA4ImagesEEG,001,100759,
AFNE01.JPG,AFNE01.JPG,AFNE01.JPG,AFNE01.JPG,AFNE01.JPG,AFNE01.JPG,2,5,25,0,,,,,,,,,,,,,,,,,,,,,,,AFSA15.jpg,AFSA18.jpg,AFNE03.jpg,AFNE14.jpg,AFSA15.jpg,FS,4,num_8,16,num_8,0.800178908277,,,2017_Jun_20_1609,60.0156112204,FEMA4ImagesEEG,001,100759,
AFNE01.JPG,AFNE01.JPG,AFNE01.JPG,AFNE01.JPG,AFNE01.JPG,AFNE01.JPG,2,6,26,6,,,,,,,,,,,,,,,,,,,,,,,AFNE12.jpg,AFSA13.jpg,AFNE19.jpg,AFSA11.jpg,AFNE19.jpg,FN,3,num_2,16,num_2,3.16660214448,,,2017_Jun_20_1609,60.0156112204,FEMA4ImagesEEG,001,100759,
AFNE01.JPG,AFNE01.JPG,AFNE01.JPG,AFNE01.JPG,AFNE01.JPG,AFNE01.JPG,2,7,27,4,,,,,,,,,,,,,,,,,,,,,,,AFNE20.jpg,AFNE06.jpg,AFSA14.jpg,AFSA18.jpg,AFSA14.jpg,FS,4,num_2,16,num_2,0.550127509981,,,2017_Jun_20_1609,60.0156112204,FEMA4ImagesEEG,001,100759,
AFNE01.JPG,AFNE01.JPG,AFNE01.JPG,AFNE01.JPG,AFNE01.JPG,AFNE01.JPG,2,8,28,8,,,,,,,,,,,,,,,,,,,,,,,AFNE17.jpg,AFSA13.jpg,AFSA04.jpg,AFNE01.jpg,AFSA04.jpg,FS,4,num_2,16,num_2,0.800152928336,,,2017_Jun_20_1609,60.0156112204,FEMA4ImagesEEG,001,100759,
AFNE01.JPG,AFNE01.JPG,AFNE01.JPG,AFNE01.JPG,AFNE01.JPG,AFNE01.JPG,2,9,29,7,,,,,,,,,,,,,,,,,,,,,,,AFNE14.jpg,AFSA15.jpg,AFNE15.jpg,AFSA10.jpg,AFNE15.jpg,FN,3,num_2,16,num_2,0.783458458958,,,2017_Jun_20_1609,60.0156112204,FEMA4ImagesEEG,001,100759,
AFNE01.JPG,AFNE01.JPG,AFNE01.JPG,AFNE01.JPG,AFNE01.JPG,AFNE01.JPG,3,0,30,2,,,,,,,,,,,,,,,,,,,,,,,AFSA20.jpg,AFNE19.jpg,AFSA05.jpg,AFNE01.jpg,AFSA20.jpg,FS,4,num_8,32,num_4,1.05013857526,,,2017_Jun_20_1609,60.0156112204,FEMA4ImagesEEG,001,100759,
AFNE01.JPG,AFNE01.JPG,AFNE01.JPG,AFNE01.JPG,AFNE01.JPG,AFNE01.JPG,3,1,31,5,,,,,,,,,,,,,,,,,,,,,,,AFNE09.jpg,AFNE13.jpg,AFSA08.jpg,AFSA10.jpg,AFSA08.jpg,FS,4,num_2,32,num_4,0.683438541135,,,2017_Jun_20_1609,60.0156112204,FEMA4ImagesEEG,001,100759,
AFNE01.JPG,AFNE01.JPG,AFNE01.JPG,AFNE01.JPG,AFNE01.JPG,AFNE01.JPG,3,2,32,3,,,,,,,,,,,,,,,,,,,,,,,AFSA19.jpg,AFNE10.jpg,AFSA14.jpg,AFNE11.jpg,AFNE11.jpg,FN,3,num_4,16,num_4,2.33335086703,,,2017_Jun_20_1609,60.0156112204,FEMA4ImagesEEG,001,100759,
AFNE01.JPG,AFNE01.JPG,AFNE01.JPG,AFNE01.JPG,AFNE01.JPG,AFNE01.JPG,3,3,33,4,,,,,,,,,,,,,,,,,,,,,,,AFSA16.jpg,AFNE10.jpg,AFSA02.jpg,AFNE18.jpg,AFNE10.jpg,FN,3,num_6,32,num_2,0.833459116518,,,2017_Jun_20_1609,60.0156112204,FEMA4ImagesEEG,001,100759,
AFNE01.JPG,AFNE01.JPG,AFNE01.JPG,AFNE01.JPG,AFNE01.JPG,AFNE01.JPG,3,4,34,1,,,,,,,,,,,,,,,,,,,,,,,AFNE06.jpg,AFNE17.jpg,AFSA11.jpg,AFSA18.jpg,AFNE06.jpg,FN,3,num_8,32,num_2,0.650199066615,,,2017_Jun_20_1609,60.0156112204,FEMA4ImagesEEG,001,100759,
AFNE01.JPG,AFNE01.JPG,AFNE01.JPG,AFNE01.JPG,AFNE01.JPG,AFNE01.JPG,3,5,35,9,,,,,,,,,,,,,,,,,,,,,,,AFNE08.jpg,AFSA13.jpg,AFSA01.jpg,AFNE11.jpg,AFNE11.jpg,FN,3,num_4,16,num_4,0.666812709998,,,2017_Jun_20_1609,60.0156112204,FEMA4ImagesEEG,001,100759,
AFNE01.JPG,AFNE01.JPG,AFNE01.JPG,AFNE01.JPG,AFNE01.JPG,AFNE01.JPG,3,6,36,8,,,,,,,,,,,,,,,,,,,,,,,AFNE09.jpg,AFSA04.jpg,AFNE15.jpg,AFSA07.jpg,AFSA07.jpg,FS,4,num_4,16,num_4,3.89985755994,,,2017_Jun_20_1609,60.0156112204,FEMA4ImagesEEG,001,100759,
AFNE01.JPG,AFNE01.JPG,AFNE01.JPG,AFNE01.JPG,AFNE01.JPG,AFNE01.JPG,3,7,37,0,,,,,,,,,,,,,,,,,,,,,,,AFSA13.jpg,AFNE15.jpg,AFSA12.jpg,AFNE08.jpg,AFSA13.jpg,FS,4,num_8,32,num_4,1.53384968033,,,2017_Jun_20_1609,60.0156112204,FEMA4ImagesEEG,001,100759,
AFNE01.JPG,AFNE01.JPG,AFNE01.JPG,AFNE01.JPG,AFNE01.JPG,AFNE01.JPG,3,8,38,6,,,,,,,,,,,,,,,,,,,,,,,AFSA08.jpg,AFNE09.jpg,AFSA03.jpg,AFNE15.jpg,AFSA03.jpg,FS,4,num_2,16,num_2,0.966648267116,,,2017_Jun_20_1609,60.0156112204,FEMA4ImagesEEG,001,100759,
AFNE01.JPG,AFNE01.JPG,AFNE01.JPG,AFNE01.JPG,AFNE01.JPG,AFNE01.JPG,3,9,39,7,,,,,,,,,,,,,,,,,,,,,,,AFNE15.jpg,AFNE02.jpg,AFSA15.jpg,AFSA02.jpg,AFSA15.jpg,FS,4,num_2,32,num_4,2.0832125484,,,2017_Jun_20_1609,60.0156112204,FEMA4ImagesEEG,001,100759,
AFNE01.JPG,AFNE01.JPG,AFNE01.JPG,AFNE01.JPG,AFNE01.JPG,AFNE01.JPG,4,0,40,1,,,,,,,,,,,,,,,,,,,,,,,AFNE03.jpg,AFNE18.jpg,AFSA05.jpg,AFSA06.jpg,AFSA05.jpg,FS,4,num_2,48,None,,,,2017_Jun_20_1609,60.0156112204,FEMA4ImagesEEG,001,100759,
AFNE01.JPG,AFNE01.JPG,AFNE01.JPG,AFNE01.JPG,AFNE01.JPG,AFNE01.JPG,4,1,41,8,,,,,,,,,,,,,,,,,,,,,,,AFSA02.jpg,AFSA10.jpg,AFNE05.jpg,AFNE03.jpg,AFSA02.jpg,FS,4,num_8,32,num_6,1.48339293199,,,2017_Jun_20_1609,60.0156112204,FEMA4ImagesEEG,001,100759,
AFNE01.JPG,AFNE01.JPG,AFNE01.JPG,AFNE01.JPG,AFNE01.JPG,AFNE01.JPG,4,2,42,7,,,,,,,,,,,,,,,,,,,,,,,AFNE09.jpg,AFSA03.jpg,AFNE01.jpg,AFSA11.jpg,AFNE09.jpg,FN,3,num_8,32,num_2,1.86664534803,,,2017_Jun_20_1609,60.0156112204,FEMA4ImagesEEG,001,100759,
AFNE01.JPG,AFNE01.JPG,AFNE01.JPG,AFNE01.JPG,AFNE01.JPG,AFNE01.JPG,4,3,43,4,,,,,,,,,,,,,,,,,,,,,,,AFNE15.jpg,AFSA06.jpg,AFNE20.jpg,AFSA01.jpg,AFNE20.jpg,FN,3,num_2,32,num_8,2.63328713621,,,2017_Jun_20_1609,60.0156112204,FEMA4ImagesEEG,001,100759,
AFNE01.JPG,AFNE01.JPG,AFNE01.JPG,AFNE01.JPG,AFNE01.JPG,AFNE01.JPG,4,4,44,9,,,,,,,,,,,,,,,,,,,,,,,AFSA09.jpg,AFNE18.jpg,AFNE17.jpg,AFSA01.jpg,AFNE18.jpg,FN,3,num_6,32,num_4,1.25012196088,,,2017_Jun_20_1609,60.0156112204,FEMA4ImagesEEG,001,100759,
AFNE01.JPG,AFNE01.JPG,AFNE01.JPG,AFNE01.JPG,AFNE01.JPG,AFNE01.JPG,4,5,45,6,,,,,,,,,,,,,,,,,,,,,,,AFSA13.jpg,AFNE10.jpg,AFNE08.jpg,AFSA10.jpg,AFSA13.jpg,FS,4,num_8,32,num_2,0.900178940501,,,2017_Jun_20_1609,60.0156112204,FEMA4ImagesEEG,001,100759,
AFNE01.JPG,AFNE01.JPG,AFNE01.JPG,AFNE01.JPG,AFNE01.JPG,AFNE01.JPG,4,6,46,5,,,,,,,,,,,,,,,,,,,,,,,AFNE17.jpg,AFSA08.jpg,AFNE13.jpg,AFSA09.jpg,AFSA09.jpg,FS,4,num_4,32,num_2,0.733802595874,,,2017_Jun_20_1609,60.0156112204,FEMA4ImagesEEG,001,100759,
AFNE01.JPG,AFNE01.JPG,AFNE01.JPG,AFNE01.JPG,AFNE01.JPG,AFNE01.JPG,4,7,47,3,,,,,,,,,,,,,,,,,,,,,,,AFSA13.jpg,AFSA17.jpg,AFNE05.jpg,AFNE20.jpg,AFSA13.jpg,FS,4,num_8,16,num_8,1.00012316392,,,2017_Jun_20_1609,60.0156112204,FEMA4ImagesEEG,001,100759,
AFNE01.JPG,AFNE01.JPG,AFNE01.JPG,AFNE01.JPG,AFNE01.JPG,AFNE01.JPG,4,8,48,0,,,,,,,,,,,,,,,,,,,,,,,AFSA17.jpg,AFNE01.jpg,AFNE05.jpg,AFSA10.jpg,AFNE05.jpg,FN,3,num_2,16,num_2,0.683506537694,,,2017_Jun_20_1609,60.0156112204,FEMA4ImagesEEG,001,100759,
AFNE01.JPG,AFNE01.JPG,AFNE01.JPG,AFNE01.JPG,AFNE01.JPG,AFNE01.JPG,4,9,49,2,,,,,,,,,,,,,,,,,,,,,,,AFSA14.jpg,AFSA10.jpg,AFNE02.jpg,AFNE01.jpg,AFSA10.jpg,FS,4,num_6,16,num_6,0.950108393794,,,2017_Jun_20_1609,60.0156112204,FEMA4ImagesEEG,001,100759,
AFNE01.JPG,AFNE01.JPG,AFNE01.JPG,AFNE01.JPG,AFNE01.JPG,AFNE01.JPG,5,0,50,9,,,,,,,,,,,,,,,,,,,,,,,AFSA08.jpg,AFSA19.jpg,AFNE09.jpg,AFNE17.jpg,AFSA08.jpg,FS,4,num_8,16,num_8,2.05001541157,,,2017_Jun_20_1609,60.0156112204,FEMA4ImagesEEG,001,100759,
AFNE01.JPG,AFNE01.JPG,AFNE01.JPG,AFNE01.JPG,AFNE01.JPG,AFNE01.JPG,5,1,51,3,,,,,,,,,,,,,,,,,,,,,,,AFSA01.jpg,AFNE04.jpg,AFSA02.jpg,AFNE15.jpg,AFNE04.jpg,FN,3,num_6,32,num_4,1.38345576497,,,2017_Jun_20_1609,60.0156112204,FEMA4ImagesEEG,001,100759,
AFNE01.JPG,AFNE01.JPG,AFNE01.JPG,AFNE01.JPG,AFNE01.JPG,AFNE01.JPG,5,2,52,6,,,,,,,,,,,,,,,,,,,,,,,AFSA15.jpg,AFNE12.jpg,AFNE11.jpg,AFSA10.jpg,AFSA15.jpg,FS,4,num_8,16,num_8,0.633516144007,,,2017_Jun_20_1609,60.0156112204,FEMA4ImagesEEG,001,100759,
AFNE01.JPG,AFNE01.JPG,AFNE01.JPG,AFNE01.JPG,AFNE01.JPG,AFNE01.JPG,5,3,53,5,,,,,,,,,,,,,,,,,,,,,,,AFSA20.jpg,AFNE16.jpg,AFNE08.jpg,AFSA09.jpg,AFNE16.jpg,FN,3,num_6,16,num_6,1.51662567072,,,2017_Jun_20_1609,60.0156112204,FEMA4ImagesEEG,001,100759,
AFNE01.JPG,AFNE01.JPG,AFNE01.JPG,AFNE01.JPG,AFNE01.JPG,AFNE01.JPG,5,4,54,2,,,,,,,,,,,,,,,,,,,,,,,AFNE15.jpg,AFSA09.jpg,AFNE03.jpg,AFSA02.jpg,AFSA02.jpg,FS,4,num_4,16,num_4,1.05007891776,,,2017_Jun_20_1609,60.0156112204,FEMA4ImagesEEG,001,100759,
AFNE01.JPG,AFNE01.JPG,AFNE01.JPG,AFNE01.JPG,AFNE01.JPG,AFNE01.JPG,5,5,55,8,,,,,,,,,,,,,,,,,,,,,,,AFSA20.jpg,AFNE01.jpg,AFNE18.jpg,AFSA12.jpg,AFNE01.jpg,FN,3,num_6,32,num_2,1.75008491566,,,2017_Jun_20_1609,60.0156112204,FEMA4ImagesEEG,001,100759,
AFNE01.JPG,AFNE01.JPG,AFNE01.JPG,AFNE01.JPG,AFNE01.JPG,AFNE01.JPG,5,6,56,7,,,,,,,,,,,,,,,,,,,,,,,AFNE17.jpg,AFSA09.jpg,AFSA06.jpg,AFNE11.jpg,AFSA06.jpg,FS,4,num_2,32,num_6,1.18346339837,,,2017_Jun_20_1609,60.0156112204,FEMA4ImagesEEG,001,100759,
AFNE01.JPG,AFNE01.JPG,AFNE01.JPG,AFNE01.JPG,AFNE01.JPG,AFNE01.JPG,5,7,57,0,,,,,,,,,,,,,,,,,,,,,,,AFSA14.jpg,AFSA17.jpg,AFNE09.jpg,AFNE15.jpg,AFSA17.jpg,FS,4,num_6,32,num_2,1.70003197761,,,2017_Jun_20_1609,60.0156112204,FEMA4ImagesEEG,001,100759,
AFNE01.JPG,AFNE01.JPG,AFNE01.JPG,AFNE01.JPG,AFNE01.JPG,AFNE01.JPG,5,8,58,1,,,,,,,,,,,,,,,,,,,,,,,AFSA12.jpg,AFNE06.jpg,AFSA16.jpg,AFNE18.jpg,AFSA12.jpg,FS,4,num_8,48,None,,,,2017_Jun_20_1609,60.0156112204,FEMA4ImagesEEG,001,100759,
AFNE01.JPG,AFNE01.JPG,AFNE01.JPG,AFNE01.JPG,AFNE01.JPG,AFNE01.JPG,5,9,59,4,,,,,,,,,,,,,,,,,,,,,,,AFNE10.jpg,AFSA14.jpg,AFSA03.jpg,AFNE03.jpg,AFNE10.jpg,FN,3,num_8,32,num_2,1.53342021094,,,2017_Jun_20_1609,60.0156112204,FEMA4ImagesEEG,001,100759,
,,,,,,,,,,,,,,,,,,,,,,,,,,,,,,,,,,,,,,,,,,,space,17.5653776913,2017_Jun_20_1609,60.0156112204,FEMA4ImagesEEG,001,100759,
AFNE01.JPG,AFNE01.JPG,AFNE01.JPG,AFNE01.JPG,AFNE01.JPG,AFNE01.JPG,,,,,0,0,0,9,,,,,,,,,,,,,,,,,,,AMNE15.jpg,AMSA18.jpg,AMNE17.jpg,AMSA01.jpg,AMNE15.jpg,MN,1,num_8,32,num_4,2.36630616663,,,2017_Jun_20_1609,60.0156112204,FEMA4ImagesEEG,001,100759,
AFNE01.JPG,AFNE01.JPG,AFNE01.JPG,AFNE01.JPG,AFNE01.JPG,AFNE01.JPG,,,,,0,1,1,8,,,,,,,,,,,,,,,,,,,AMSA10.jpg,AMNE12.jpg,AMSA17.jpg,AMNE08.jpg,AMSA17.jpg,MS,2,num_2,16,num_2,1.09999939054,,,2017_Jun_20_1609,60.0156112204,FEMA4ImagesEEG,001,100759,
AFNE01.JPG,AFNE01.JPG,AFNE01.JPG,AFNE01.JPG,AFNE01.JPG,AFNE01.JPG,,,,,0,2,2,1,,,,,,,,,,,,,,,,,,,AMNE16.jpg,AMSA01.jpg,AMNE01.jpg,AMSA07.jpg,AMNE16.jpg,MN,1,num_8,16,num_8,0.983423883328,,,2017_Jun_20_1609,60.0156112204,FEMA4ImagesEEG,001,100759,
AFNE01.JPG,AFNE01.JPG,AFNE01.JPG,AFNE01.JPG,AFNE01.JPG,AFNE01.JPG,,,,,0,3,3,7,,,,,,,,,,,,,,,,,,,AMSA16.jpg,AMSA14.jpg,AMNE17.jpg,AMNE04.jpg,AMSA16.jpg,MS,2,num_8,32,num_2,1.00012412597,,,2017_Jun_20_1609,60.0156112204,FEMA4ImagesEEG,001,100759,
AFNE01.JPG,AFNE01.JPG,AFNE01.JPG,AFNE01.JPG,AFNE01.JPG,AFNE01.JPG,,,,,0,4,4,4,,,,,,,,,,,,,,,,,,,AMNE20.jpg,AMNE12.jpg,AMSA17.jpg,AMSA11.jpg,AMSA17.jpg,MS,2,num_2,16,num_2,3.91649301327,,,2017_Jun_20_1609,60.0156112204,FEMA4ImagesEEG,001,100759,
AFNE01.JPG,AFNE01.JPG,AFNE01.JPG,AFNE01.JPG,AFNE01.JPG,AFNE01.JPG,,,,,0,5,5,3,,,,,,,,,,,,,,,,,,,AMSA04.jpg,AMNE17.jpg,AMSA14.jpg,AMNE02.jpg,AMSA14.jpg,MS,2,num_2,32,num_8,1.78337442526,,,2017_Jun_20_1609,60.0156112204,FEMA4ImagesEEG,001,100759,
AFNE01.JPG,AFNE01.JPG,AFNE01.JPG,AFNE01.JPG,AFNE01.JPG,AFNE01.JPG,,,,,0,6,6,2,,,,,,,,,,,,,,,,,,,AMSA04.jpg,AMNE01.jpg,AMSA18.jpg,AMNE09.jpg,AMSA04.jpg,MS,2,num_8,16,num_8,2.76662190212,,,2017_Jun_20_1609,60.0156112204,FEMA4ImagesEEG,001,100759,
AFNE01.JPG,AFNE01.JPG,AFNE01.JPG,AFNE01.JPG,AFNE01.JPG,AFNE01.JPG,,,,,0,7,7,6,,,,,,,,,,,,,,,,,,,AMSA04.jpg,AMSA15.jpg,AMNE20.jpg,AMNE02.jpg,AMNE20.jpg,MN,1,num_2,16,num_2,0.999957983149,,,2017_Jun_20_1609,60.0156112204,FEMA4ImagesEEG,001,100759,
AFNE01.JPG,AFNE01.JPG,AFNE01.JPG,AFNE01.JPG,AFNE01.JPG,AFNE01.JPG,,,,,0,8,8,5,,,,,,,,,,,,,,,,,,,AMNE14.jpg,AMNE19.jpg,AMSA06.jpg,AMSA07.jpg,AMSA06.jpg,MS,2,num_2,32,num_4,0.933483845321,,,2017_Jun_20_1609,60.0156112204,FEMA4ImagesEEG,001,100759,
AFNE01.JPG,AFNE01.JPG,AFNE01.JPG,AFNE01.JPG,AFNE01.JPG,AFNE01.JPG,,,,,0,9,9,0,,,,,,,,,,,,,,,,,,,AMSA13.jpg,AMSA19.jpg,AMNE10.jpg,AMNE08.jpg,AMNE08.jpg,MN,1,num_4,32,num_8,2.59998511756,,,2017_Jun_20_1609,60.0156112204,FEMA4ImagesEEG,001,100759,
AFNE01.JPG,AFNE01.JPG,AFNE01.JPG,AFNE01.JPG,AFNE01.JPG,AFNE01.JPG,,,,,1,0,10,6,,,,,,,,,,,,,,,,,,,AMNE19.jpg,AMSA13.jpg,AMSA04.jpg,AMNE13.jpg,AMSA13.jpg,MS,2,num_6,32,num_2,1.16681800201,,,2017_Jun_20_1609,60.0156112204,FEMA4ImagesEEG,001,100759,
AFNE01.JPG,AFNE01.JPG,AFNE01.JPG,AFNE01.JPG,AFNE01.JPG,AFNE01.JPG,,,,,1,1,11,1,,,,,,,,,,,,,,,,,,,AMNE16.jpg,AMSA18.jpg,AMSA20.jpg,AMNE20.jpg,AMSA18.jpg,MS,2,num_6,32,num_8,1.10015013814,,,2017_Jun_20_1609,60.0156112204,FEMA4ImagesEEG,001,100759,
AFNE01.JPG,AFNE01.JPG,AFNE01.JPG,AFNE01.JPG,AFNE01.JPG,AFNE01.JPG,,,,,1,2,12,5,,,,,,,,,,,,,,,,,,,AMSA02.jpg,AMSA12.jpg,AMNE20.jpg,AMNE02.jpg,AMSA02.jpg,MS,2,num_8,16,num_8,1.60010411171,,,2017_Jun_20_1609,60.0156112204,FEMA4ImagesEEG,001,100759,
AFNE01.JPG,AFNE01.JPG,AFNE01.JPG,AFNE01.JPG,AFNE01.JPG,AFNE01.JPG,,,,,1,3,13,0,,,,,,,,,,,,,,,,,,,AMNE05.jpg,AMSA20.jpg,AMSA07.jpg,AMNE12.jpg,AMNE05.jpg,MN,1,num_8,16,num_8,2.78332246561,,,2017_Jun_20_1609,60.0156112204,FEMA4ImagesEEG,001,100759,
AFNE01.JPG,AFNE01.JPG,AFNE01.JPG,AFNE01.JPG,AFNE01.JPG,AFNE01.JPG,,,,,1,4,14,8,,,,,,,,,,,,,,,,,,,AMNE08.jpg,AMSA06.jpg,AMNE10.jpg,AMSA17.jpg,AMNE08.jpg,MN,1,num_8,16,num_8,1.05015204637,,,2017_Jun_20_1609,60.0156112204,FEMA4ImagesEEG,001,100759,
AFNE01.JPG,AFNE01.JPG,AFNE01.JPG,AFNE01.JPG,AFNE01.JPG,AFNE01.JPG,,,,,1,5,15,9,,,,,,,,,,,,,,,,,,,AMNE17.jpg,AMSA09.jpg,AMNE16.jpg,AMSA13.jpg,AMSA09.jpg,MS,2,num_6,32,num_2,4.01654981612,,,2017_Jun_20_1609,60.0156112204,FEMA4ImagesEEG,001,100759,
AFNE01.JPG,AFNE01.JPG,AFNE01.JPG,AFNE01.JPG,AFNE01.JPG,AFNE01.JPG,,,,,1,6,16,3,,,,,,,,,,,,,,,,,,,AMNE06.jpg,AMSA01.jpg,AMSA09.jpg,AMNE05.jpg,AMSA01.jpg,MS,2,num_6,16,num_6,0.916841656668,,,2017_Jun_20_1609,60.0156112204,FEMA4ImagesEEG,001,100759,
AFNE01.JPG,AFNE01.JPG,AFNE01.JPG,AFNE01.JPG,AFNE01.JPG,AFNE01.JPG,,,,,1,7,17,7,,,,,,,,,,,,,,,,,,,AMSA07.jpg,AMNE18.jpg,AMNE19.jpg,AMSA03.jpg,AMNE19.jpg,MN,1,num_2,16,num_2,1.21675804001,,,2017_Jun_20_1609,60.0156112204,FEMA4ImagesEEG,001,100759,
AFNE01.JPG,AFNE01.JPG,AFNE01.JPG,AFNE01.JPG,AFNE01.JPG,AFNE01.JPG,,,,,1,8,18,4,,,,,,,,,,,,,,,,,,,AMNE15.jpg,AMNE02.jpg,AMSA10.jpg,AMSA03.jpg,AMNE15.jpg,MN,1,num_8,32,num_2,1.33343041036,,,2017_Jun_20_1609,60.0156112204,FEMA4ImagesEEG,001,100759,
AFNE01.JPG,AFNE01.JPG,AFNE01.JPG,AFNE01.JPG,AFNE01.JPG,AFNE01.JPG,,,,,1,9,19,2,,,,,,,,,,,,,,,,,,,AMNE17.jpg,AMSA02.jpg,AMNE19.jpg,AMSA14.jpg,AMSA14.jpg,MS,2,num_4,32,num_2,2.41669972939,,,2017_Jun_20_1609,60.0156112204,FEMA4ImagesEEG,001,100759,
AFNE01.JPG,AFNE01.JPG,AFNE01.JPG,AFNE01.JPG,AFNE01.JPG,AFNE01.JPG,,,,,2,0,20,8,,,,,,,,,,,,,,,,,,,AMSA01.jpg,AMNE13.jpg,AMNE07.jpg,AMSA04.jpg,AMNE07.jpg,MN,1,num_2,16,num_2,1.35012103105,,,2017_Jun_20_1609,60.0156112204,FEMA4ImagesEEG,001,100759,
AFNE01.JPG,AFNE01.JPG,AFNE01.JPG,AFNE01.JPG,AFNE01.JPG,AFNE01.JPG,,,,,2,1,21,7,,,,,,,,,,,,,,,,,,,AMNE04.jpg,AMSA09.jpg,AMNE01.jpg,AMSA17.jpg,AMSA09.jpg,MS,2,num_6,16,num_6,1.0503951665,,,2017_Jun_20_1609,60.0156112204,FEMA4ImagesEEG,001,100759,
AFNE01.JPG,AFNE01.JPG,AFNE01.JPG,AFNE01.JPG,AFNE01.JPG,AFNE01.JPG,,,,,2,2,22,0,,,,,,,,,,,,,,,,,,,AMSA16.jpg,AMSA02.jpg,AMNE15.jpg,AMNE10.jpg,AMSA02.jpg,MS,2,num_6,32,num_8,1.35014123749,,,2017_Jun_20_1609,60.0156112204,FEMA4ImagesEEG,001,100759,
AFNE01.JPG,AFNE01.JPG,AFNE01.JPG,AFNE01.JPG,AFNE01.JPG,AFNE01.JPG,,,,,2,3,23,1,,,,,,,,,,,,,,,,,,,AMSA05.jpg,AMNE12.jpg,AMNE17.jpg,AMSA06.jpg,AMNE12.jpg,MN,1,num_6,16,num_6,0.850167377852,,,2017_Jun_20_1609,60.0156112204,FEMA4ImagesEEG,001,100759,
AFNE01.JPG,AFNE01.JPG,AFNE01.JPG,AFNE01.JPG,AFNE01.JPG,AFNE01.JPG,,,,,2,4,24,2,,,,,,,,,,,,,,,,,,,AMNE07.jpg,AMNE04.jpg,AMSA20.jpg,AMSA12.jpg,AMSA12.jpg,MS,2,num_4,32,num_8,1.58335864497,,,2017_Jun_20_1609,60.0156112204,FEMA4ImagesEEG,001,100759,
AFNE01.JPG,AFNE01.JPG,AFNE01.JPG,AFNE01.JPG,AFNE01.JPG,AFNE01.JPG,,,,,2,5,25,4,,,,,,,,,,,,,,,,,,,AMNE09.jpg,AMSA14.jpg,AMSA02.jpg,AMNE12.jpg,AMNE12.jpg,MN,1,num_4,16,num_4,0.950156825362,,,2017_Jun_20_1609,60.0156112204,FEMA4ImagesEEG,001,100759,
AFNE01.JPG,AFNE01.JPG,AFNE01.JPG,AFNE01.JPG,AFNE01.JPG,AFNE01.JPG,,,,,2,6,26,5,,,,,,,,,,,,,,,,,,,AMSA19.jpg,AMNE06.jpg,AMSA02.jpg,AMNE04.jpg,AMSA02.jpg,MS,2,num_2,32,num_4,2.39984232467,,,2017_Jun_20_1609,60.0156112204,FEMA4ImagesEEG,001,100759,
AFNE01.JPG,AFNE01.JPG,AFNE01.JPG,AFNE01.JPG,AFNE01.JPG,AFNE01.JPG,,,,,2,7,27,6,,,,,,,,,,,,,,,,,,,AMSA01.jpg,AMSA04.jpg,AMNE15.jpg,AMNE07.jpg,AMNE15.jpg,MN,1,num_2,16,num_2,1.35010435246,,,2017_Jun_20_1609,60.0156112204,FEMA4ImagesEEG,001,100759,
AFNE01.JPG,AFNE01.JPG,AFNE01.JPG,AFNE01.JPG,AFNE01.JPG,AFNE01.JPG,,,,,2,8,28,9,,,,,,,,,,,,,,,,,,,AMSA16.jpg,AMNE08.jpg,AMNE17.jpg,AMSA08.jpg,AMNE08.jpg,MN,1,num_6,32,num_8,1.43343204632,,,2017_Jun_20_1609,60.0156112204,FEMA4ImagesEEG,001,100759,
AFNE01.JPG,AFNE01.JPG,AFNE01.JPG,AFNE01.JPG,AFNE01.JPG,AFNE01.JPG,,,,,2,9,29,3,,,,,,,,,,,,,,,,,,,AMSA01.jpg,AMSA12.jpg,AMNE16.jpg,AMNE14.jpg,AMSA01.jpg,MS,2,num_8,16,num_8,2.18332612189,,,2017_Jun_20_1609,60.0156112204,FEMA4ImagesEEG,001,100759,
AFNE01.JPG,AFNE01.JPG,AFNE01.JPG,AFNE01.JPG,AFNE01.JPG,AFNE01.JPG,,,,,3,0,30,6,,,,,,,,,,,,,,,,,,,AMNE12.jpg,AMNE09.jpg,AMSA02.jpg,AMSA12.jpg,AMNE12.jpg,MN,1,num_8,32,num_2,1.68340582587,,,2017_Jun_20_1609,60.0156112204,FEMA4ImagesEEG,001,100759,
AFNE01.JPG,AFNE01.JPG,AFNE01.JPG,AFNE01.JPG,AFNE01.JPG,AFNE01.JPG,,,,,3,1,31,2,,,,,,,,,,,,,,,,,,,AMSA09.jpg,AMSA14.jpg,AMNE07.jpg,AMNE02.jpg,AMSA14.jpg,MS,2,num_6,16,num_6,0.917100172257,,,2017_Jun_20_1609,60.0156112204,FEMA4ImagesEEG,001,100759,
AFNE01.JPG,AFNE01.JPG,AFNE01.JPG,AFNE01.JPG,AFNE01.JPG,AFNE01.JPG,,,,,3,2,32,1,,,,,,,,,,,,,,,,,,,AMNE11.jpg,AMSA13.jpg,AMSA19.jpg,AMNE17.jpg,AMSA13.jpg,MS,2,num_6,48,None,,,,2017_Jun_20_1609,60.0156112204,FEMA4ImagesEEG,001,100759,
AFNE01.JPG,AFNE01.JPG,AFNE01.JPG,AFNE01.JPG,AFNE01.JPG,AFNE01.JPG,,,,,3,3,33,4,,,,,,,,,,,,,,,,,,,AMSA01.jpg,AMSA11.jpg,AMNE16.jpg,AMNE18.jpg,AMNE16.jpg,MN,1,num_2,16,num_2,0.983426449355,,,2017_Jun_20_1609,60.0156112204,FEMA4ImagesEEG,001,100759,
AFNE01.JPG,AFNE01.JPG,AFNE01.JPG,AFNE01.JPG,AFNE01.JPG,AFNE01.JPG,,,,,3,4,34,7,,,,,,,,,,,,,,,,,,,AMSA04.jpg,AMNE18.jpg,AMSA16.jpg,AMNE07.jpg,AMNE18.jpg,MN,1,num_6,32,num_2,1.90008143568,,,2017_Jun_20_1609,60.0156112204,FEMA4ImagesEEG,001,100759,
AFNE01.JPG,AFNE01.JPG,AFNE01.JPG,AFNE01.JPG,AFNE01.JPG,AFNE01.JPG,,,,,3,5,35,5,,,,,,,,,,,,,,,,,,,AMSA10.jpg,AMNE03.jpg,AMSA12.jpg,AMNE19.jpg,AMSA12.jpg,MS,2,num_2,32,num_4,1.71674184245,,,2017_Jun_20_1609,60.0156112204,FEMA4ImagesEEG,001,100759,
AFNE01.JPG,AFNE01.JPG,AFNE01.JPG,AFNE01.JPG,AFNE01.JPG,AFNE01.JPG,,,,,3,6,36,3,,,,,,,,,,,,,,,,,,,AMSA01.jpg,AMSA11.jpg,AMNE01.jpg,AMNE05.jpg,AMSA11.jpg,MS,2,num_6,16,num_6,0.750177609269,,,2017_Jun_20_1609,60.0156112204,FEMA4ImagesEEG,001,100759,
AFNE01.JPG,AFNE01.JPG,AFNE01.JPG,AFNE01.JPG,AFNE01.JPG,AFNE01.JPG,,,,,3,7,37,9,,,,,,,,,,,,,,,,,,,AMSA10.jpg,AMSA16.jpg,AMNE03.jpg,AMNE01.jpg,AMNE03.jpg,MN,1,num_2,16,num_2,4.13328280603,,,2017_Jun_20_1609,60.0156112204,FEMA4ImagesEEG,001,100759,
AFNE01.JPG,AFNE01.JPG,AFNE01.JPG,AFNE01.JPG,AFNE01.JPG,AFNE01.JPG,,,,,3,8,38,8,,,,,,,,,,,,,,,,,,,AMNE11.jpg,AMSA11.jpg,AMNE02.jpg,AMSA16.jpg,AMNE02.jpg,MN,1,num_2,16,num_2,1.01683880202,,,2017_Jun_20_1609,60.0156112204,FEMA4ImagesEEG,001,100759,
AFNE01.JPG,AFNE01.JPG,AFNE01.JPG,AFNE01.JPG,AFNE01.JPG,AFNE01.JPG,,,,,3,9,39,0,,,,,,,,,,,,,,,,,,,AMSA04.jpg,AMSA16.jpg,AMNE04.jpg,AMNE11.jpg,AMSA16.jpg,MS,2,num_6,16,num_6,1.05009110575,,,2017_Jun_20_1609,60.0156112204,FEMA4ImagesEEG,001,100759,
AFNE01.JPG,AFNE01.JPG,AFNE01.JPG,AFNE01.JPG,AFNE01.JPG,AFNE01.JPG,,,,,4,0,40,9,,,,,,,,,,,,,,,,,,,AMNE12.jpg,AMSA01.jpg,AMNE09.jpg,AMSA15.jpg,AMNE12.jpg,MN,1,num_8,32,num_4,1.36701435852,,,2017_Jun_20_1609,60.0156112204,FEMA4ImagesEEG,001,100759,
AFNE01.JPG,AFNE01.JPG,AFNE01.JPG,AFNE01.JPG,AFNE01.JPG,AFNE01.JPG,,,,,4,1,41,5,,,,,,,,,,,,,,,,,,,AMSA05.jpg,AMNE01.jpg,AMSA11.jpg,AMNE18.jpg,AMSA05.jpg,MS,2,num_8,16,num_8,4.88321504998,,,2017_Jun_20_1609,60.0156112204,FEMA4ImagesEEG,001,100759,
AFNE01.JPG,AFNE01.JPG,AFNE01.JPG,AFNE01.JPG,AFNE01.JPG,AFNE01.JPG,,,,,4,2,42,4,,,,,,,,,,,,,,,,,,,AMNE03.jpg,AMSA07.jpg,AMSA05.jpg,AMNE01.jpg,AMNE01.jpg,MN,1,num_4,16,num_4,1.06685389276,,,2017_Jun_20_1609,60.0156112204,FEMA4ImagesEEG,001,100759,
AFNE01.JPG,AFNE01.JPG,AFNE01.JPG,AFNE01.JPG,AFNE01.JPG,AFNE01.JPG,,,,,4,3,43,0,,,,,,,,,,,,,,,,,,,AMSA19.jpg,AMNE04.jpg,AMSA04.jpg,AMNE08.jpg,AMNE08.jpg,MN,1,num_4,32,num_8,1.08343995246,,,2017_Jun_20_1609,60.0156112204,FEMA4ImagesEEG,001,100759,
AFNE01.JPG,AFNE01.JPG,AFNE01.JPG,AFNE01.JPG,AFNE01.JPG,AFNE01.JPG,,,,,4,4,44,7,,,,,,,,,,,,,,,,,,,AMSA20.jpg,AMSA17.jpg,AMNE17.jpg,AMNE19.jpg,AMSA17.jpg,MS,2,num_6,16,num_6,1.68323839991,,,2017_Jun_20_1609,60.0156112204,FEMA4ImagesEEG,001,100759,
AFNE01.JPG,AFNE01.JPG,AFNE01.JPG,AFNE01.JPG,AFNE01.JPG,AFNE01.JPG,,,,,4,5,45,8,,,,,,,,,,,,,,,,,,,AMNE06.jpg,AMSA07.jpg,AMNE05.jpg,AMSA15.jpg,AMSA15.jpg,MS,2,num_4,16,num_4,0.983510803664,,,2017_Jun_20_1609,60.0156112204,FEMA4ImagesEEG,001,100759,
AFNE01.JPG,AFNE01.JPG,AFNE01.JPG,AFNE01.JPG,AFNE01.JPG,AFNE01.JPG,,,,,4,6,46,2,,,,,,,,,,,,,,,,,,,AMSA07.jpg,AMNE14.jpg,AMSA08.jpg,AMNE20.jpg,AMSA07.jpg,MS,2,num_8,16,num_8,1.56666706223,,,2017_Jun_20_1609,60.0156112204,FEMA4ImagesEEG,001,100759,
AFNE01.JPG,AFNE01.JPG,AFNE01.JPG,AFNE01.JPG,AFNE01.JPG,AFNE01.JPG,,,,,4,7,47,6,,,,,,,,,,,,,,,,,,,AMSA11.jpg,AMNE14.jpg,AMNE13.jpg,AMSA04.jpg,AMSA11.jpg,MS,2,num_8,32,num_6,0.866823679069,,,2017_Jun_20_1609,60.0156112204,FEMA4ImagesEEG,001,100759,
AFNE01.JPG,AFNE01.JPG,AFNE01.JPG,AFNE01.JPG,AFNE01.JPG,AFNE01.JPG,,,,,4,8,48,1,,,,,,,,,,,,,,,,,,,AMSA07.jpg,AMNE16.jpg,AMSA17.jpg,AMNE14.jpg,AMSA07.jpg,MS,2,num_8,32,num_6,1.33339897799,,,2017_Jun_20_1609,60.0156112204,FEMA4ImagesEEG,001,100759,
AFNE01.JPG,AFNE01.JPG,AFNE01.JPG,AFNE01.JPG,AFNE01.JPG,AFNE01.JPG,,,,,4,9,49,3,,,,,,,,,,,,,,,,,,,AMSA11.jpg,AMNE09.jpg,AMNE11.jpg,AMSA14.jpg,AMSA11.jpg,MS,2,num_8,16,num_8,0.950143995928,,,2017_Jun_20_1609,60.0156112204,FEMA4ImagesEEG,001,100759,
AFNE01.JPG,AFNE01.JPG,AFNE01.JPG,AFNE01.JPG,AFNE01.JPG,AFNE01.JPG,,,,,5,0,50,7,,,,,,,,,,,,,,,,,,,AMSA01.jpg,AMSA16.jpg,AMNE03.jpg,AMNE11.jpg,AMSA16.jpg,MS,2,num_6,32,num_2,1.41702752491,,,2017_Jun_20_1609,60.0156112204,FEMA4ImagesEEG,001,100759,
AFNE01.JPG,AFNE01.JPG,AFNE01.JPG,AFNE01.JPG,AFNE01.JPG,AFNE01.JPG,,,,,5,1,51,5,,,,,,,,,,,,,,,,,,,AMNE17.jpg,AMSA18.jpg,AMNE10.jpg,AMSA16.jpg,AMSA16.jpg,MS,2,num_4,32,num_2,1.23349452601,,,2017_Jun_20_1609,60.0156112204,FEMA4ImagesEEG,001,100759,
AFNE01.JPG,AFNE01.JPG,AFNE01.JPG,AFNE01.JPG,AFNE01.JPG,AFNE01.JPG,,,,,5,2,52,8,,,,,,,,,,,,,,,,,,,AMSA04.jpg,AMSA06.jpg,AMNE09.jpg,AMNE01.jpg,AMNE09.jpg,MN,1,num_2,32,num_4,2.89997751615,,,2017_Jun_20_1609,60.0156112204,FEMA4ImagesEEG,001,100759,
AFNE01.JPG,AFNE01.JPG,AFNE01.JPG,AFNE01.JPG,AFNE01.JPG,AFNE01.JPG,,,,,5,3,53,3,,,,,,,,,,,,,,,,,,,AMNE07.jpg,AMSA17.jpg,AMNE16.jpg,AMSA19.jpg,AMSA19.jpg,MS,2,num_4,32,num_2,4.7498231926,,,2017_Jun_20_1609,60.0156112204,FEMA4ImagesEEG,001,100759,
AFNE01.JPG,AFNE01.JPG,AFNE01.JPG,AFNE01.JPG,AFNE01.JPG,AFNE01.JPG,,,,,5,4,54,4,,,,,,,,,,,,,,,,,,,AMNE07.jpg,AMSA17.jpg,AMSA18.jpg,AMNE15.jpg,AMSA18.jpg,MS,2,num_2,32,num_8,2.46668563294,,,2017_Jun_20_1609,60.0156112204,FEMA4ImagesEEG,001,100759,
AFNE01.JPG,AFNE01.JPG,AFNE01.JPG,AFNE01.JPG,AFNE01.JPG,AFNE01.JPG,,,,,5,5,55,0,,,,,,,,,,,,,,,,,,,AMSA19.jpg,AMNE11.jpg,AMNE13.jpg,AMSA05.jpg,AMNE13.jpg,MN,1,num_2,16,num_2,3.83319001645,,,2017_Jun_20_1609,60.0156112204,FEMA4ImagesEEG,001,100759,
AFNE01.JPG,AFNE01.JPG,AFNE01.JPG,AFNE01.JPG,AFNE01.JPG,AFNE01.JPG,,,,,5,6,56,9,,,,,,,,,,,,,,,,,,,AMNE18.jpg,AMSA20.jpg,AMSA15.jpg,AMNE12.jpg,AMSA15.jpg,MS,2,num_2,32,num_8,1.19979639491,,,2017_Jun_20_1609,60.0156112204,FEMA4ImagesEEG,001,100759,
AFNE01.JPG,AFNE01.JPG,AFNE01.JPG,AFNE01.JPG,AFNE01.JPG,AFNE01.JPG,,,,,5,7,57,1,,,,,,,,,,,,,,,,,,,AMSA09.jpg,AMNE01.jpg,AMNE14.jpg,AMSA01.jpg,AMSA09.jpg,MS,2,num_8,16,num_8,2.76663569408,,,2017_Jun_20_1609,60.0156112204,FEMA4ImagesEEG,001,100759,
AFNE01.JPG,AFNE01.JPG,AFNE01.JPG,AFNE01.JPG,AFNE01.JPG,AFNE01.JPG,,,,,5,8,58,6,,,,,,,,,,,,,,,,,,,AMSA09.jpg,AMNE13.jpg,AMNE18.jpg,AMSA18.jpg,AMSA09.jpg,MS,2,num_8,32,num_2,4.01683687745,,,2017_Jun_20_1609,60.0156112204,FEMA4ImagesEEG,001,100759,
AFNE01.JPG,AFNE01.JPG,AFNE01.JPG,AFNE01.JPG,AFNE01.JPG,AFNE01.JPG,,,,,5,9,59,2,,,,,,,,,,,,,,,,,,,AMNE16.jpg,AMSA02.jpg,AMNE07.jpg,AMSA20.jpg,AMSA02.jpg,MS,2,num_6,16,num_6,2.94998298469,,,2017_Jun_20_1609,60.0156112204,FEMA4ImagesEEG,001,100759,
,,,,,,,,,,,,,,,,,,,,,,,,,,,,,,,,,,,,,,,,,,,space,7.36620930326,2017_Jun_20_1609,60.0156112204,FEMA4ImagesEEG,001,100759,
AFNE01.JPG,AFNE01.JPG,AFNE01.JPG,AFNE01.JPG,AFNE01.JPG,AFNE01.JPG,,,,,,,,,0,0,0,2,,,,,,,,,,,,,,,AFNE20.jpg,AFNE16.jpg,AFSA16.jpg,AFSA02.jpg,AFNE20.jpg,FN,3,num_8,16,num_8,2.3666580175,,,2017_Jun_20_1609,60.0156112204,FEMA4ImagesEEG,001,100759,
AFNE01.JPG,AFNE01.JPG,AFNE01.JPG,AFNE01.JPG,AFNE01.JPG,AFNE01.JPG,,,,,,,,,0,1,1,6,,,,,,,,,,,,,,,AFSA05.jpg,AFNE12.jpg,AFNE06.jpg,AFSA17.jpg,AFNE06.jpg,FN,3,num_2,16,num_2,1.18343036226,,,2017_Jun_20_1609,60.0156112204,FEMA4ImagesEEG,001,100759,
AFNE01.JPG,AFNE01.JPG,AFNE01.JPG,AFNE01.JPG,AFNE01.JPG,AFNE01.JPG,,,,,,,,,0,2,2,0,,,,,,,,,,,,,,,AFNE02.jpg,AFNE15.jpg,AFSA02.jpg,AFSA12.jpg,AFNE15.jpg,FN,3,num_6,32,num_8,0.983485144563,,,2017_Jun_20_1609,60.0156112204,FEMA4ImagesEEG,001,100759,
AFNE01.JPG,AFNE01.JPG,AFNE01.JPG,AFNE01.JPG,AFNE01.JPG,AFNE01.JPG,,,,,,,,,0,3,3,5,,,,,,,,,,,,,,,AFSA20.jpg,AFNE08.jpg,AFSA05.jpg,AFNE19.jpg,AFSA05.jpg,FS,4,num_2,16,num_2,0.616754960734,,,2017_Jun_20_1609,60.0156112204,FEMA4ImagesEEG,001,100759,
AFNE01.JPG,AFNE01.JPG,AFNE01.JPG,AFNE01.JPG,AFNE01.JPG,AFNE01.JPG,,,,,,,,,0,4,4,3,,,,,,,,,,,,,,,AFNE17.jpg,AFNE03.jpg,AFSA01.jpg,AFSA18.jpg,AFNE17.jpg,FN,3,num_8,32,num_6,0.816731290193,,,2017_Jun_20_1609,60.0156112204,FEMA4ImagesEEG,001,100759,
AFNE01.JPG,AFNE01.JPG,AFNE01.JPG,AFNE01.JPG,AFNE01.JPG,AFNE01.JPG,,,,,,,,,0,5,5,7,,,,,,,,,,,,,,,AFSA12.jpg,AFNE02.jpg,AFSA14.jpg,AFNE09.jpg,AFNE09.jpg,FN,3,num_4,16,num_4,1.25008892501,,,2017_Jun_20_1609,60.0156112204,FEMA4ImagesEEG,001,100759,
AFNE01.JPG,AFNE01.JPG,AFNE01.JPG,AFNE01.JPG,AFNE01.JPG,AFNE01.JPG,,,,,,,,,0,6,6,1,,,,,,,,,,,,,,,AFSA06.jpg,AFNE04.jpg,AFNE20.jpg,AFSA13.jpg,AFNE04.jpg,FN,3,num_6,16,num_6,0.900092661381,,,2017_Jun_20_1609,60.0156112204,FEMA4ImagesEEG,001,100759,
AFNE01.JPG,AFNE01.JPG,AFNE01.JPG,AFNE01.JPG,AFNE01.JPG,AFNE01.JPG,,,,,,,,,0,7,7,9,,,,,,,,,,,,,,,AFSA10.jpg,AFNE03.jpg,AFNE07.jpg,AFSA11.jpg,AFNE07.jpg,FN,3,num_2,48,None,,,,2017_Jun_20_1609,60.0156112204,FEMA4ImagesEEG,001,100759,
AFNE01.JPG,AFNE01.JPG,AFNE01.JPG,AFNE01.JPG,AFNE01.JPG,AFNE01.JPG,,,,,,,,,0,8,8,4,,,,,,,,,,,,,,,AFSA02.jpg,AFSA19.jpg,AFNE03.jpg,AFNE14.jpg,AFNE03.jpg,FN,3,num_2,32,num_4,2.05007282365,,,2017_Jun_20_1609,60.0156112204,FEMA4ImagesEEG,001,100759,
AFNE01.JPG,AFNE01.JPG,AFNE01.JPG,AFNE01.JPG,AFNE01.JPG,AFNE01.JPG,,,,,,,,,0,9,9,8,,,,,,,,,,,,,,,AFNE13.jpg,AFSA18.jpg,AFSA08.jpg,AFNE06.jpg,AFNE06.jpg,FN,3,num_4,32,num_8,1.73338980484,,,2017_Jun_20_1609,60.0156112204,FEMA4ImagesEEG,001,100759,
AFNE01.JPG,AFNE01.JPG,AFNE01.JPG,AFNE01.JPG,AFNE01.JPG,AFNE01.JPG,,,,,,,,,1,0,10,4,,,,,,,,,,,,,,,AFNE03.jpg,AFSA04.jpg,AFSA07.jpg,AFNE16.jpg,AFSA07.jpg,FS,4,num_2,32,num_4,0.800144268433,,,2017_Jun_20_1609,60.0156112204,FEMA4ImagesEEG,001,100759,
AFNE01.JPG,AFNE01.JPG,AFNE01.JPG,AFNE01.JPG,AFNE01.JPG,AFNE01.JPG,,,,,,,,,1,1,11,8,,,,,,,,,,,,,,,AFNE18.jpg,AFSA08.jpg,AFSA09.jpg,AFNE05.jpg,AFNE18.jpg,FN,3,num_8,16,num_8,0.800115722697,,,2017_Jun_20_1609,60.0156112204,FEMA4ImagesEEG,001,100759,
AFNE01.JPG,AFNE01.JPG,AFNE01.JPG,AFNE01.JPG,AFNE01.JPG,AFNE01.JPG,,,,,,,,,1,2,12,0,,,,,,,,,,,,,,,AFNE10.jpg,AFNE07.jpg,AFSA01.jpg,AFSA14.jpg,AFNE07.jpg,FN,3,num_6,16,num_6,0.950119298883,,,2017_Jun_20_1609,60.0156112204,FEMA4ImagesEEG,001,100759,
AFNE01.JPG,AFNE01.JPG,AFNE01.JPG,AFNE01.JPG,AFNE01.JPG,AFNE01.JPG,,,,,,,,,1,3,13,5,,,,,,,,,,,,,,,AFNE20.jpg,AFSA06.jpg,AFSA02.jpg,AFNE01.jpg,AFSA02.jpg,FS,4,num_2,16,num_2,1.08347619581,,,2017_Jun_20_1609,60.0156112204,FEMA4ImagesEEG,001,100759,
AFNE01.JPG,AFNE01.JPG,AFNE01.JPG,AFNE01.JPG,AFNE01.JPG,AFNE01.JPG,,,,,,,,,1,4,14,6,,,,,,,,,,,,,,,AFSA16.jpg,AFSA07.jpg,AFNE13.jpg,AFNE05.jpg,AFNE13.jpg,FN,3,num_2,32,num_8,2.21669966541,,,2017_Jun_20_1609,60.0156112204,FEMA4ImagesEEG,001,100759,
AFNE01.JPG,AFNE01.JPG,AFNE01.JPG,AFNE01.JPG,AFNE01.JPG,AFNE01.JPG,,,,,,,,,1,5,15,1,,,,,,,,,,,,,,,AFNE02.jpg,AFSA04.jpg,AFNE19.jpg,AFSA14.jpg,AFNE19.jpg,FN,3,num_2,32,num_8,1.11679072306,,,2017_Jun_20_1609,60.0156112204,FEMA4ImagesEEG,001,100759,
AFNE01.JPG,AFNE01.JPG,AFNE01.JPG,AFNE01.JPG,AFNE01.JPG,AFNE01.JPG,,,,,,,,,1,6,16,3,,,,,,,,,,,,,,,AFNE17.jpg,AFNE11.jpg,AFSA10.jpg,AFSA08.jpg,AFSA10.jpg,FS,4,num_2,32,num_8,1.15011743875,,,2017_Jun_20_1609,60.0156112204,FEMA4ImagesEEG,001,100759,
AFNE01.JPG,AFNE01.JPG,AFNE01.JPG,AFNE01.JPG,AFNE01.JPG,AFNE01.JPG,,,,,,,,,1,7,17,2,,,,,,,,,,,,,,,AFNE20.jpg,AFNE17.jpg,AFSA02.jpg,AFSA13.jpg,AFNE17.jpg,FN,3,num_6,32,num_4,1.58345935703,,,2017_Jun_20_1609,60.0156112204,FEMA4ImagesEEG,001,100759,
AFNE01.JPG,AFNE01.JPG,AFNE01.JPG,AFNE01.JPG,AFNE01.JPG,AFNE01.JPG,,,,,,,,,1,8,18,7,,,,,,,,,,,,,,,AFSA19.jpg,AFNE04.jpg,AFSA17.jpg,AFNE20.jpg,AFNE20.jpg,FN,3,num_4,48,None,,,,2017_Jun_20_1609,60.0156112204,FEMA4ImagesEEG,001,100759,
AFNE01.JPG,AFNE01.JPG,AFNE01.JPG,AFNE01.JPG,AFNE01.JPG,AFNE01.JPG,,,,,,,,,1,9,19,9,,,,,,,,,,,,,,,AFNE17.jpg,AFSA14.jpg,AFSA11.jpg,AFNE02.jpg,AFNE17.jpg,FN,3,num_8,16,num_8,0.633455524454,,,2017_Jun_20_1609,60.0156112204,FEMA4ImagesEEG,001,100759,
AFNE01.JPG,AFNE01.JPG,AFNE01.JPG,AFNE01.JPG,AFNE01.JPG,AFNE01.JPG,,,,,,,,,2,0,20,8,,,,,,,,,,,,,,,AFSA16.jpg,AFNE03.jpg,AFSA13.jpg,AFNE20.jpg,AFSA13.jpg,FS,4,num_2,16,num_2,0.98340303544,,,2017_Jun_20_1609,60.0156112204,FEMA4ImagesEEG,001,100759,
AFNE01.JPG,AFNE01.JPG,AFNE01.JPG,AFNE01.JPG,AFNE01.JPG,AFNE01.JPG,,,,,,,,,2,1,21,9,,,,,,,,,,,,,,,AFSA18.jpg,AFNE03.jpg,AFNE15.jpg,AFSA07.jpg,AFSA07.jpg,FS,4,num_4,16,num_4,0.700104464777,,,2017_Jun_20_1609,60.0156112204,FEMA4ImagesEEG,001,100759,
AFNE01.JPG,AFNE01.JPG,AFNE01.JPG,AFNE01.JPG,AFNE01.JPG,AFNE01.JPG,,,,,,,,,2,2,22,0,,,,,,,,,,,,,,,AFNE03.jpg,AFSA20.jpg,AFSA10.jpg,AFNE12.jpg,AFSA10.jpg,FS,4,num_2,16,num_2,0.883474528091,,,2017_Jun_20_1609,60.0156112204,FEMA4ImagesEEG,001,100759,
AFNE01.JPG,AFNE01.JPG,AFNE01.JPG,AFNE01.JPG,AFNE01.JPG,AFNE01.JPG,,,,,,,,,2,3,23,2,,,,,,,,,,,,,,,AFNE06.jpg,AFNE10.jpg,AFSA03.jpg,AFSA17.jpg,AFNE10.jpg,FN,3,num_6,16,num_6,0.76677008369,,,2017_Jun_20_1609,60.0156112204,FEMA4ImagesEEG,001,100759,
AFNE01.JPG,AFNE01.JPG,AFNE01.JPG,AFNE01.JPG,AFNE01.JPG,AFNE01.JPG,,,,,,,,,2,4,24,7,,,,,,,,,,,,,,,AFNE09.jpg,AFSA17.jpg,AFNE08.jpg,AFSA19.jpg,AFNE08.jpg,FN,3,num_2,16,num_2,0.783443384105,,,2017_Jun_20_1609,60.0156112204,FEMA4ImagesEEG,001,100759,
AFNE01.JPG,AFNE01.JPG,AFNE01.JPG,AFNE01.JPG,AFNE01.JPG,AFNE01.JPG,,,,,,,,,2,5,25,1,,,,,,,,,,,,,,,AFSA11.jpg,AFNE20.jpg,AFSA17.jpg,AFNE05.jpg,AFNE20.jpg,FN,3,num_6,32,num_8,1.40008095442,,,2017_Jun_20_1609,60.0156112204,FEMA4ImagesEEG,001,100759,
AFNE01.JPG,AFNE01.JPG,AFNE01.JPG,AFNE01.JPG,AFNE01.JPG,AFNE01.JPG,,,,,,,,,2,6,26,6,,,,,,,,,,,,,,,AFNE10.jpg,AFNE04.jpg,AFSA06.jpg,AFSA08.jpg,AFNE04.jpg,FN,3,num_6,32,num_2,1.56700351764,,,2017_Jun_20_1609,60.0156112204,FEMA4ImagesEEG,001,100759,
AFNE01.JPG,AFNE01.JPG,AFNE01.JPG,AFNE01.JPG,AFNE01.JPG,AFNE01.JPG,,,,,,,,,2,7,27,3,,,,,,,,,,,,,,,AFSA03.jpg,AFNE01.jpg,AFSA17.jpg,AFNE20.jpg,AFNE20.jpg,FN,3,num_4,16,num_4,1.18344158819,,,2017_Jun_20_1609,60.0156112204,FEMA4ImagesEEG,001,100759,
AFNE01.JPG,AFNE01.JPG,AFNE01.JPG,AFNE01.JPG,AFNE01.JPG,AFNE01.JPG,,,,,,,,,2,8,28,4,,,,,,,,,,,,,,,AFSA11.jpg,AFSA04.jpg,AFNE18.jpg,AFNE10.jpg,AFSA11.jpg,FS,4,num_8,16,num_8,0.483507756609,,,2017_Jun_20_1609,60.0156112204,FEMA4ImagesEEG,001,100759,
AFNE01.JPG,AFNE01.JPG,AFNE01.JPG,AFNE01.JPG,AFNE01.JPG,AFNE01.JPG,,,,,,,,,2,9,29,5,,,,,,,,,,,,,,,AFNE20.jpg,AFSA06.jpg,AFNE10.jpg,AFSA10.jpg,AFNE20.jpg,FN,3,num_8,32,num_2,0.983434788417,,,2017_Jun_20_1609,60.0156112204,FEMA4ImagesEEG,001,100759,
AFNE01.JPG,AFNE01.JPG,AFNE01.JPG,AFNE01.JPG,AFNE01.JPG,AFNE01.JPG,,,,,,,,,3,0,30,8,,,,,,,,,,,,,,,AFNE13.jpg,AFNE08.jpg,AFSA03.jpg,AFSA13.jpg,AFNE13.jpg,FN,3,num_8,16,num_8,0.700140387518,,,2017_Jun_20_1609,60.0156112204,FEMA4ImagesEEG,001,100759,
AFNE01.JPG,AFNE01.JPG,AFNE01.JPG,AFNE01.JPG,AFNE01.JPG,AFNE01.JPG,,,,,,,,,3,1,31,5,,,,,,,,,,,,,,,AFSA04.jpg,AFNE20.jpg,AFNE09.jpg,AFSA12.jpg,AFNE20.jpg,FN,3,num_6,16,num_6,0.883438605117,,,2017_Jun_20_1609,60.0156112204,FEMA4ImagesEEG,001,100759,
AFNE01.JPG,AFNE01.JPG,AFNE01.JPG,AFNE01.JPG,AFNE01.JPG,AFNE01.JPG,,,,,,,,,3,2,32,1,,,,,,,,,,,,,,,AFSA08.jpg,AFNE15.jpg,AFSA13.jpg,AFNE13.jpg,AFNE15.jpg,FN,3,num_6,16,num_6,0.666771013755,,,2017_Jun_20_1609,60.0156112204,FEMA4ImagesEEG,001,100759,
AFNE01.JPG,AFNE01.JPG,AFNE01.JPG,AFNE01.JPG,AFNE01.JPG,AFNE01.JPG,,,,,,,,,3,3,33,9,,,,,,,,,,,,,,,AFNE04.jpg,AFNE12.jpg,AFSA12.jpg,AFSA17.jpg,AFSA12.jpg,FS,4,num_2,32,num_8,1.35008927784,,,2017_Jun_20_1609,60.0156112204,FEMA4ImagesEEG,001,100759,
AFNE01.JPG,AFNE01.JPG,AFNE01.JPG,AFNE01.JPG,AFNE01.JPG,AFNE01.JPG,,,,,,,,,3,4,34,6,,,,,,,,,,,,,,,AFSA02.jpg,AFNE11.jpg,AFSA03.jpg,AFNE10.jpg,AFNE10.jpg,FN,3,num_4,32,num_8,3.34963414911,,,2017_Jun_20_1609,60.0156112204,FEMA4ImagesEEG,001,100759,
AFNE01.JPG,AFNE01.JPG,AFNE01.JPG,AFNE01.JPG,AFNE01.JPG,AFNE01.JPG,,,,,,,,,3,5,35,3,,,,,,,,,,,,,,,AFSA05.jpg,AFNE20.jpg,AFSA01.jpg,AFNE07.jpg,AFNE07.jpg,FN,3,num_4,32,num_2,1.21672500367,,,2017_Jun_20_1609,60.0156112204,FEMA4ImagesEEG,001,100759,
AFNE01.JPG,AFNE01.JPG,AFNE01.JPG,AFNE01.JPG,AFNE01.JPG,AFNE01.JPG,,,,,,,,,3,6,36,7,,,,,,,,,,,,,,,AFNE01.jpg,AFNE03.jpg,AFSA14.jpg,AFSA04.jpg,AFNE03.jpg,FN,3,num_6,48,None,,,,2017_Jun_20_1609,60.0156112204,FEMA4ImagesEEG,001,100759,
AFNE01.JPG,AFNE01.JPG,AFNE01.JPG,AFNE01.JPG,AFNE01.JPG,AFNE01.JPG,,,,,,,,,3,7,37,2,,,,,,,,,,,,,,,AFSA10.jpg,AFNE15.jpg,AFSA02.jpg,AFNE05.jpg,AFNE15.jpg,FN,3,num_6,16,num_6,0.583498487249,,,2017_Jun_20_1609,60.0156112204,FEMA4ImagesEEG,001,100759,
AFNE01.JPG,AFNE01.JPG,AFNE01.JPG,AFNE01.JPG,AFNE01.JPG,AFNE01.JPG,,,,,,,,,3,8,38,4,,,,,,,,,,,,,,,AFNE02.jpg,AFNE14.jpg,AFSA02.jpg,AFSA01.jpg,AFSA01.jpg,FS,4,num_4,32,num_8,0.983437033603,,,2017_Jun_20_1609,60.0156112204,FEMA4ImagesEEG,001,100759,
AFNE01.JPG,AFNE01.JPG,AFNE01.JPG,AFNE01.JPG,AFNE01.JPG,AFNE01.JPG,,,,,,,,,3,9,39,0,,,,,,,,,,,,,,,AFNE14.jpg,AFSA14.jpg,AFNE15.jpg,AFSA17.jpg,AFSA14.jpg,FS,4,num_6,32,num_2,1.63342312956,,,2017_Jun_20_1609,60.0156112204,FEMA4ImagesEEG,001,100759,
AFNE01.JPG,AFNE01.JPG,AFNE01.JPG,AFNE01.JPG,AFNE01.JPG,AFNE01.JPG,,,,,,,,,4,0,40,0,,,,,,,,,,,,,,,AFSA08.jpg,AFNE11.jpg,AFNE16.jpg,AFSA13.jpg,AFNE11.jpg,FN,3,num_6,32,num_4,1.28346471349,,,2017_Jun_20_1609,60.0156112204,FEMA4ImagesEEG,001,100759,
AFNE01.JPG,AFNE01.JPG,AFNE01.JPG,AFNE01.JPG,AFNE01.JPG,AFNE01.JPG,,,,,,,,,4,1,41,1,,,,,,,,,,,,,,,AFSA06.jpg,AFNE09.jpg,AFNE14.jpg,AFSA05.jpg,AFNE14.jpg,FN,3,num_2,32,num_6,3.56656699162,,,2017_Jun_20_1609,60.0156112204,FEMA4ImagesEEG,001,100759,
AFNE01.JPG,AFNE01.JPG,AFNE01.JPG,AFNE01.JPG,AFNE01.JPG,AFNE01.JPG,,,,,,,,,4,2,42,2,,,,,,,,,,,,,,,AFSA12.jpg,AFSA11.jpg,AFNE14.jpg,AFNE02.jpg,AFNE02.jpg,FN,3,num_4,32,num_8,1.50019292464,,,2017_Jun_20_1609,60.0156112204,FEMA4ImagesEEG,001,100759,
AFNE01.JPG,AFNE01.JPG,AFNE01.JPG,AFNE01.JPG,AFNE01.JPG,AFNE01.JPG,,,,,,,,,4,3,43,3,,,,,,,,,,,,,,,AFSA03.jpg,AFNE02.jpg,AFNE10.jpg,AFSA02.jpg,AFSA02.jpg,FS,4,num_4,32,num_2,1.59978722152,,,2017_Jun_20_1609,60.0156112204,FEMA4ImagesEEG,001,100759,
AFNE01.JPG,AFNE01.JPG,AFNE01.JPG,AFNE01.JPG,AFNE01.JPG,AFNE01.JPG,,,,,,,,,4,4,44,9,,,,,,,,,,,,,,,AFSA11.jpg,AFNE05.jpg,AFNE13.jpg,AFSA01.jpg,AFSA11.jpg,FS,4,num_8,16,num_8,2.65001849062,,,2017_Jun_20_1609,60.0156112204,FEMA4ImagesEEG,001,100759,
AFNE01.JPG,AFNE01.JPG,AFNE01.JPG,AFNE01.JPG,AFNE01.JPG,AFNE01.JPG,,,,,,,,,4,5,45,6,,,,,,,,,,,,,,,AFSA03.jpg,AFSA04.jpg,AFNE08.jpg,AFNE17.jpg,AFSA04.jpg,FS,4,num_6,32,num_4,2.5835392212,,,2017_Jun_20_1609,60.0156112204,FEMA4ImagesEEG,001,100759,
AFNE01.JPG,AFNE01.JPG,AFNE01.JPG,AFNE01.JPG,AFNE01.JPG,AFNE01.JPG,,,,,,,,,4,6,46,5,,,,,,,,,,,,,,,AFSA15.jpg,AFSA17.jpg,AFNE01.jpg,AFNE05.jpg,AFSA17.jpg,FS,4,num_6,32,num_2,1.9834039975,,,2017_Jun_20_1609,60.0156112204,FEMA4ImagesEEG,001,100759,
AFNE01.JPG,AFNE01.JPG,AFNE01.JPG,AFNE01.JPG,AFNE01.JPG,AFNE01.JPG,,,,,,,,,4,7,47,7,,,,,,,,,,,,,,,AFNE01.jpg,AFSA08.jpg,AFSA12.jpg,AFNE14.jpg,AFSA12.jpg,FS,4,num_2,32,num_6,3.28324500727,,,2017_Jun_20_1609,60.0156112204,FEMA4ImagesEEG,001,100759,
AFNE01.JPG,AFNE01.JPG,AFNE01.JPG,AFNE01.JPG,AFNE01.JPG,AFNE01.JPG,,,,,,,,,4,8,48,8,,,,,,,,,,,,,,,AFSA01.jpg,AFSA18.jpg,AFNE05.jpg,AFNE08.jpg,AFNE08.jpg,FN,3,num_4,32,num_2,0.800097440602,,,2017_Jun_20_1609,60.0156112204,FEMA4ImagesEEG,001,100759,
AFNE01.JPG,AFNE01.JPG,AFNE01.JPG,AFNE01.JPG,AFNE01.JPG,AFNE01.JPG,,,,,,,,,4,9,49,4,,,,,,,,,,,,,,,AFSA02.jpg,AFNE17.jpg,AFSA06.jpg,AFNE05.jpg,AFSA06.jpg,FS,4,num_2,32,num_8,1.45008161222,,,2017_Jun_20_1609,60.0156112204,FEMA4ImagesEEG,001,100759,
AFNE01.JPG,AFNE01.JPG,AFNE01.JPG,AFNE01.JPG,AFNE01.JPG,AFNE01.JPG,,,,,,,,,5,0,50,6,,,,,,,,,,,,,,,AFNE01.jpg,AFNE09.jpg,AFSA02.jpg,AFSA09.jpg,AFSA02.jpg,FS,4,num_2,32,num_8,0.633434676332,,,2017_Jun_20_1609,60.0156112204,FEMA4ImagesEEG,001,100759,
AFNE01.JPG,AFNE01.JPG,AFNE01.JPG,AFNE01.JPG,AFNE01.JPG,AFNE01.JPG,,,,,,,,,5,1,51,5,,,,,,,,,,,,,,,AFNE09.jpg,AFNE19.jpg,AFSA11.jpg,AFSA13.jpg,AFNE09.jpg,FN,3,num_8,16,num_8,0.883442774881,,,2017_Jun_20_1609,60.0156112204,FEMA4ImagesEEG,001,100759,
AFNE01.JPG,AFNE01.JPG,AFNE01.JPG,AFNE01.JPG,AFNE01.JPG,AFNE01.JPG,,,,,,,,,5,2,52,8,,,,,,,,,,,,,,,AFNE11.jpg,AFNE15.jpg,AFSA02.jpg,AFSA19.jpg,AFNE15.jpg,FN,3,num_6,16,num_6,0.766783875413,,,2017_Jun_20_1609,60.0156112204,FEMA4ImagesEEG,001,100759,
AFNE01.JPG,AFNE01.JPG,AFNE01.JPG,AFNE01.JPG,AFNE01.JPG,AFNE01.JPG,,,,,,,,,5,3,53,3,,,,,,,,,,,,,,,AFSA16.jpg,AFNE04.jpg,AFNE18.jpg,AFSA07.jpg,AFNE04.jpg,FN,3,num_6,16,num_6,0.733518741792,,,2017_Jun_20_1609,60.0156112204,FEMA4ImagesEEG,001,100759,
AFNE01.JPG,AFNE01.JPG,AFNE01.JPG,AFNE01.JPG,AFNE01.JPG,AFNE01.JPG,,,,,,,,,5,4,54,2,,,,,,,,,,,,,,,AFNE18.jpg,AFNE15.jpg,AFSA18.jpg,AFSA07.jpg,AFNE18.jpg,FN,3,num_8,32,num_2,2.6333038148,,,2017_Jun_20_1609,60.0156112204,FEMA4ImagesEEG,001,100759,
AFNE01.JPG,AFNE01.JPG,AFNE01.JPG,AFNE01.JPG,AFNE01.JPG,AFNE01.JPG,,,,,,,,,5,5,55,7,,,,,,,,,,,,,,,AFSA19.jpg,AFNE12.jpg,AFSA04.jpg,AFNE11.jpg,AFNE12.jpg,FN,3,num_6,32,num_8,3.60046558478,,,2017_Jun_20_1609,60.0156112204,FEMA4ImagesEEG,001,100759,
AFNE01.JPG,AFNE01.JPG,AFNE01.JPG,AFNE01.JPG,AFNE01.JPG,AFNE01.JPG,,,,,,,,,5,6,56,4,,,,,,,,,,,,,,,AFSA19.jpg,AFSA18.jpg,AFNE15.jpg,AFNE04.jpg,AFSA18.jpg,FS,4,num_6,16,num_6,1.13349994668,,,2017_Jun_20_1609,60.0156112204,FEMA4ImagesEEG,001,100759,
AFNE01.JPG,AFNE01.JPG,AFNE01.JPG,AFNE01.JPG,AFNE01.JPG,AFNE01.JPG,,,,,,,,,5,7,57,0,,,,,,,,,,,,,,,AFNE04.jpg,AFNE07.jpg,AFSA13.jpg,AFSA17.jpg,AFSA17.jpg,FS,4,num_4,32,num_2,1.46671642386,,,2017_Jun_20_1609,60.0156112204,FEMA4ImagesEEG,001,100759,
AFNE01.JPG,AFNE01.JPG,AFNE01.JPG,AFNE01.JPG,AFNE01.JPG,AFNE01.JPG,,,,,,,,,5,8,58,9,,,,,,,,,,,,,,,AFNE18.jpg,AFSA13.jpg,AFNE14.jpg,AFSA17.jpg,AFNE18.jpg,FN,3,num_8,16,num_8,1.46679500514,,,2017_Jun_20_1609,60.0156112204,FEMA4ImagesEEG,001,100759,
AFNE01.JPG,AFNE01.JPG,AFNE01.JPG,AFNE01.JPG,AFNE01.JPG,AFNE01.JPG,,,,,,,,,5,9,59,1,,,,,,,,,,,,,,,AFNE01.jpg,AFSA15.jpg,AFSA08.jpg,AFNE16.jpg,AFNE16.jpg,FN,3,num_4,32,num_2,2.61658047861,,,2017_Jun_20_1609,60.0156112204,FEMA4ImagesEEG,001,100759,
,,,,,,,,,,,,,,,,,,,,,,,,,,,,,,,,,,,,,,,,,,,space,13.6323220322,2017_Jun_20_1609,60.0156112204,FEMA4ImagesEEG,001,100759,
AFNE01.JPG,AFNE01.JPG,AFNE01.JPG,AFNE01.JPG,AFNE01.JPG,AFNE01.JPG,,,,,,,,,,,,,0,0,0,7,,,,,,,,,,,AMSA02.jpg,AMSA01.jpg,AMNE10.jpg,AMNE17.jpg,AMSA01.jpg,MS,2,num_6,16,num_6,0.766798950266,,,2017_Jun_20_1609,60.0156112204,FEMA4ImagesEEG,001,100759,
AFNE01.JPG,AFNE01.JPG,AFNE01.JPG,AFNE01.JPG,AFNE01.JPG,AFNE01.JPG,,,,,,,,,,,,,0,1,1,9,,,,,,,,,,,AMSA13.jpg,AMNE19.jpg,AMNE01.jpg,AMSA04.jpg,AMSA04.jpg,MS,2,num_4,32,num_2,1.23344673589,,,2017_Jun_20_1609,60.0156112204,FEMA4ImagesEEG,001,100759,
AFNE01.JPG,AFNE01.JPG,AFNE01.JPG,AFNE01.JPG,AFNE01.JPG,AFNE01.JPG,,,,,,,,,,,,,0,2,2,5,,,,,,,,,,,AMSA01.jpg,AMSA07.jpg,AMNE04.jpg,AMNE09.jpg,AMNE04.jpg,MN,1,num_2,32,num_6,1.90039511863,,,2017_Jun_20_1609,60.0156112204,FEMA4ImagesEEG,001,100759,
AFNE01.JPG,AFNE01.JPG,AFNE01.JPG,AFNE01.JPG,AFNE01.JPG,AFNE01.JPG,,,,,,,,,,,,,0,3,3,8,,,,,,,,,,,AMSA06.jpg,AMSA04.jpg,AMNE13.jpg,AMNE03.jpg,AMNE13.jpg,MN,1,num_2,32,num_8,0.916820487706,,,2017_Jun_20_1609,60.0156112204,FEMA4ImagesEEG,001,100759,
AFNE01.JPG,AFNE01.JPG,AFNE01.JPG,AFNE01.JPG,AFNE01.JPG,AFNE01.JPG,,,,,,,,,,,,,0,4,4,2,,,,,,,,,,,AMSA07.jpg,AMSA02.jpg,AMNE09.jpg,AMNE17.jpg,AMSA07.jpg,MS,2,num_8,32,num_2,0.950140467612,,,2017_Jun_20_1609,60.0156112204,FEMA4ImagesEEG,001,100759,
AFNE01.JPG,AFNE01.JPG,AFNE01.JPG,AFNE01.JPG,AFNE01.JPG,AFNE01.JPG,,,,,,,,,,,,,0,5,5,0,,,,,,,,,,,AMNE09.jpg,AMNE16.jpg,AMSA06.jpg,AMSA05.jpg,AMNE09.jpg,MN,1,num_8,32,num_4,0.916761151049,,,2017_Jun_20_1609,60.0156112204,FEMA4ImagesEEG,001,100759,
AFNE01.JPG,AFNE01.JPG,AFNE01.JPG,AFNE01.JPG,AFNE01.JPG,AFNE01.JPG,,,,,,,,,,,,,0,6,6,4,,,,,,,,,,,AMSA01.jpg,AMNE04.jpg,AMSA13.jpg,AMNE03.jpg,AMSA01.jpg,MS,2,num_8,32,num_2,2.10002601193,,,2017_Jun_20_1609,60.0156112204,FEMA4ImagesEEG,001,100759,
AFNE01.JPG,AFNE01.JPG,AFNE01.JPG,AFNE01.JPG,AFNE01.JPG,AFNE01.JPG,,,,,,,,,,,,,0,7,7,1,,,,,,,,,,,AMSA20.jpg,AMNE14.jpg,AMSA04.jpg,AMNE06.jpg,AMSA04.jpg,MS,2,num_2,32,num_8,1.03340978688,,,2017_Jun_20_1609,60.0156112204,FEMA4ImagesEEG,001,100759,
AFNE01.JPG,AFNE01.JPG,AFNE01.JPG,AFNE01.JPG,AFNE01.JPG,AFNE01.JPG,,,,,,,,,,,,,0,8,8,3,,,,,,,,,,,AMSA14.jpg,AMSA15.jpg,AMNE09.jpg,AMNE13.jpg,AMNE09.jpg,MN,1,num_2,32,num_8,2.65005954541,,,2017_Jun_20_1609,60.0156112204,FEMA4ImagesEEG,001,100759,
AFNE01.JPG,AFNE01.JPG,AFNE01.JPG,AFNE01.JPG,AFNE01.JPG,AFNE01.JPG,,,,,,,,,,,,,0,9,9,6,,,,,,,,,,,AMSA13.jpg,AMSA15.jpg,AMNE19.jpg,AMNE15.jpg,AMNE15.jpg,MN,1,num_4,32,num_2,1.53341700346,,,2017_Jun_20_1609,60.0156112204,FEMA4ImagesEEG,001,100759,
AFNE01.JPG,AFNE01.JPG,AFNE01.JPG,AFNE01.JPG,AFNE01.JPG,AFNE01.JPG,,,,,,,,,,,,,1,0,10,7,,,,,,,,,,,AMSA09.jpg,AMNE08.jpg,AMNE10.jpg,AMSA13.jpg,AMSA09.jpg,MS,2,num_8,16,num_8,0.783445308683,,,2017_Jun_20_1609,60.0156112204,FEMA4ImagesEEG,001,100759,
AFNE01.JPG,AFNE01.JPG,AFNE01.JPG,AFNE01.JPG,AFNE01.JPG,AFNE01.JPG,,,,,,,,,,,,,1,1,11,9,,,,,,,,,,,AMNE07.jpg,AMNE16.jpg,AMSA20.jpg,AMSA04.jpg,AMNE07.jpg,MN,1,num_8,32,num_4,0.600173070794,,,2017_Jun_20_1609,60.0156112204,FEMA4ImagesEEG,001,100759,
AFNE01.JPG,AFNE01.JPG,AFNE01.JPG,AFNE01.JPG,AFNE01.JPG,AFNE01.JPG,,,,,,,,,,,,,1,2,12,4,,,,,,,,,,,AMSA07.jpg,AMNE10.jpg,AMNE15.jpg,AMSA04.jpg,AMNE15.jpg,MN,1,num_2,32,num_8,1.91672105878,,,2017_Jun_20_1609,60.0156112204,FEMA4ImagesEEG,001,100759,
AFNE01.JPG,AFNE01.JPG,AFNE01.JPG,AFNE01.JPG,AFNE01.JPG,AFNE01.JPG,,,,,,,,,,,,,1,3,13,6,,,,,,,,,,,AMNE16.jpg,AMSA03.jpg,AMNE06.jpg,AMSA12.jpg,AMNE16.jpg,MN,1,num_8,16,num_8,0.51679919078,,,2017_Jun_20_1609,60.0156112204,FEMA4ImagesEEG,001,100759,
AFNE01.JPG,AFNE01.JPG,AFNE01.JPG,AFNE01.JPG,AFNE01.JPG,AFNE01.JPG,,,,,,,,,,,,,1,4,14,2,,,,,,,,,,,AMSA08.jpg,AMSA03.jpg,AMNE19.jpg,AMNE04.jpg,AMNE04.jpg,MN,1,num_4,16,num_4,0.916813752381,,,2017_Jun_20_1609,60.0156112204,FEMA4ImagesEEG,001,100759,
AFNE01.JPG,AFNE01.JPG,AFNE01.JPG,AFNE01.JPG,AFNE01.JPG,AFNE01.JPG,,,,,,,,,,,,,1,5,15,8,,,,,,,,,,,AMNE01.jpg,AMNE05.jpg,AMSA08.jpg,AMSA20.jpg,AMSA08.jpg,MS,2,num_2,32,num_8,1.30011299625,,,2017_Jun_20_1609,60.0156112204,FEMA4ImagesEEG,001,100759,
AFNE01.JPG,AFNE01.JPG,AFNE01.JPG,AFNE01.JPG,AFNE01.JPG,AFNE01.JPG,,,,,,,,,,,,,1,6,16,0,,,,,,,,,,,AMNE07.jpg,AMSA18.jpg,AMNE03.jpg,AMSA17.jpg,AMSA18.jpg,MS,2,num_6,32,num_8,0.60020065424,,,2017_Jun_20_1609,60.0156112204,FEMA4ImagesEEG,001,100759,
AFNE01.JPG,AFNE01.JPG,AFNE01.JPG,AFNE01.JPG,AFNE01.JPG,AFNE01.JPG,,,,,,,,,,,,,1,7,17,3,,,,,,,,,,,AMSA20.jpg,AMNE13.jpg,AMSA06.jpg,AMNE17.jpg,AMNE17.jpg,MN,1,num_4,16,num_4,1.51658108807,,,2017_Jun_20_1609,60.0156112204,FEMA4ImagesEEG,001,100759,
AFNE01.JPG,AFNE01.JPG,AFNE01.JPG,AFNE01.JPG,AFNE01.JPG,AFNE01.JPG,,,,,,,,,,,,,1,8,18,1,,,,,,,,,,,AMNE07.jpg,AMNE02.jpg,AMSA12.jpg,AMSA14.jpg,AMSA12.jpg,MS,2,num_2,16,num_2,0.966709528118,,,2017_Jun_20_1609,60.0156112204,FEMA4ImagesEEG,001,100759,
AFNE01.JPG,AFNE01.JPG,AFNE01.JPG,AFNE01.JPG,AFNE01.JPG,AFNE01.JPG,,,,,,,,,,,,,1,9,19,5,,,,,,,,,,,AMNE10.jpg,AMNE18.jpg,AMSA14.jpg,AMSA09.jpg,AMSA09.jpg,MS,2,num_4,32,num_8,1.63352769031,,,2017_Jun_20_1609,60.0156112204,FEMA4ImagesEEG,001,100759,
AFNE01.JPG,AFNE01.JPG,AFNE01.JPG,AFNE01.JPG,AFNE01.JPG,AFNE01.JPG,,,,,,,,,,,,,2,0,20,5,,,,,,,,,,,AMSA08.jpg,AMNE10.jpg,AMSA17.jpg,AMNE06.jpg,AMNE10.jpg,MN,1,num_6,32,num_4,1.23367381934,,,2017_Jun_20_1609,60.0156112204,FEMA4ImagesEEG,001,100759,
AFNE01.JPG,AFNE01.JPG,AFNE01.JPG,AFNE01.JPG,AFNE01.JPG,AFNE01.JPG,,,,,,,,,,,,,2,1,21,3,,,,,,,,,,,AMSA14.jpg,AMSA08.jpg,AMNE17.jpg,AMNE06.jpg,AMNE17.jpg,MN,1,num_2,32,num_6,2.23335308023,,,2017_Jun_20_1609,60.0156112204,FEMA4ImagesEEG,001,100759,
AFNE01.JPG,AFNE01.JPG,AFNE01.JPG,AFNE01.JPG,AFNE01.JPG,AFNE01.JPG,,,,,,,,,,,,,2,2,22,6,,,,,,,,,,,AMNE13.jpg,AMSA17.jpg,AMSA06.jpg,AMNE16.jpg,AMSA06.jpg,MS,2,num_2,16,num_2,2.38336403342,,,2017_Jun_20_1609,60.0156112204,FEMA4ImagesEEG,001,100759,
AFNE01.JPG,AFNE01.JPG,AFNE01.JPG,AFNE01.JPG,AFNE01.JPG,AFNE01.JPG,,,,,,,,,,,,,2,3,23,1,,,,,,,,,,,AMSA02.jpg,AMNE02.jpg,AMSA08.jpg,AMNE07.jpg,AMNE07.jpg,MN,1,num_4,16,num_4,0.950133090839,,,2017_Jun_20_1609,60.0156112204,FEMA4ImagesEEG,001,100759,
AFNE01.JPG,AFNE01.JPG,AFNE01.JPG,AFNE01.JPG,AFNE01.JPG,AFNE01.JPG,,,,,,,,,,,,,2,4,24,9,,,,,,,,,,,AMSA10.jpg,AMSA08.jpg,AMNE05.jpg,AMNE03.jpg,AMSA10.jpg,MS,2,num_8,32,num_2,0.866777171846,,,2017_Jun_20_1609,60.0156112204,FEMA4ImagesEEG,001,100759,
AFNE01.JPG,AFNE01.JPG,AFNE01.JPG,AFNE01.JPG,AFNE01.JPG,AFNE01.JPG,,,,,,,,,,,,,2,5,25,8,,,,,,,,,,,AMSA13.jpg,AMNE05.jpg,AMNE08.jpg,AMSA14.jpg,AMNE08.jpg,MN,1,num_2,32,num_4,1.7167155419,,,2017_Jun_20_1609,60.0156112204,FEMA4ImagesEEG,001,100759,
AFNE01.JPG,AFNE01.JPG,AFNE01.JPG,AFNE01.JPG,AFNE01.JPG,AFNE01.JPG,,,,,,,,,,,,,2,6,26,7,,,,,,,,,,,AMSA12.jpg,AMNE14.jpg,AMNE12.jpg,AMSA14.jpg,AMSA14.jpg,MS,2,num_4,16,num_4,0.900214542169,,,2017_Jun_20_1609,60.0156112204,FEMA4ImagesEEG,001,100759,
AFNE01.JPG,AFNE01.JPG,AFNE01.JPG,AFNE01.JPG,AFNE01.JPG,AFNE01.JPG,,,,,,,,,,,,,2,7,27,4,,,,,,,,,,,AMSA03.jpg,AMNE03.jpg,AMSA16.jpg,AMNE20.jpg,AMNE03.jpg,MN,1,num_6,32,num_8,0.766751801595,,,2017_Jun_20_1609,60.0156112204,FEMA4ImagesEEG,001,100759,
AFNE01.JPG,AFNE01.JPG,AFNE01.JPG,AFNE01.JPG,AFNE01.JPG,AFNE01.JPG,,,,,,,,,,,,,2,8,28,0,,,,,,,,,,,AMNE17.jpg,AMNE15.jpg,AMSA06.jpg,AMSA10.jpg,AMSA10.jpg,MS,2,num_4,32,num_6,0.783481231425,,,2017_Jun_20_1609,60.0156112204,FEMA4ImagesEEG,001,100759,
AFNE01.JPG,AFNE01.JPG,AFNE01.JPG,AFNE01.JPG,AFNE01.JPG,AFNE01.JPG,,,,,,,,,,,,,2,9,29,2,,,,,,,,,,,AMNE05.jpg,AMSA14.jpg,AMSA10.jpg,AMNE07.jpg,AMNE07.jpg,MN,1,num_4,16,num_4,1.8000560652,,,2017_Jun_20_1609,60.0156112204,FEMA4ImagesEEG,001,100759,
AFNE01.JPG,AFNE01.JPG,AFNE01.JPG,AFNE01.JPG,AFNE01.JPG,AFNE01.JPG,,,,,,,,,,,,,3,0,30,2,,,,,,,,,,,AMSA15.jpg,AMSA08.jpg,AMNE07.jpg,AMNE06.jpg,AMSA15.jpg,MS,2,num_8,32,num_2,1.76673993422,,,2017_Jun_20_1609,60.0156112204,FEMA4ImagesEEG,001,100759,
AFNE01.JPG,AFNE01.JPG,AFNE01.JPG,AFNE01.JPG,AFNE01.JPG,AFNE01.JPG,,,,,,,,,,,,,3,1,31,6,,,,,,,,,,,AMNE02.jpg,AMNE01.jpg,AMSA01.jpg,AMSA07.jpg,AMNE01.jpg,MN,1,num_6,32,num_4,2.1166787853,,,2017_Jun_20_1609,60.0156112204,FEMA4ImagesEEG,001,100759,
AFNE01.JPG,AFNE01.JPG,AFNE01.JPG,AFNE01.JPG,AFNE01.JPG,AFNE01.JPG,,,,,,,,,,,,,3,2,32,3,,,,,,,,,,,AMSA14.jpg,AMNE07.jpg,AMSA17.jpg,AMNE15.jpg,AMSA17.jpg,MS,2,num_2,32,num_8,1.93339949101,,,2017_Jun_20_1609,60.0156112204,FEMA4ImagesEEG,001,100759,
AFNE01.JPG,AFNE01.JPG,AFNE01.JPG,AFNE01.JPG,AFNE01.JPG,AFNE01.JPG,,,,,,,,,,,,,3,3,33,0,,,,,,,,,,,AMSA14.jpg,AMNE12.jpg,AMNE01.jpg,AMSA12.jpg,AMNE12.jpg,MN,1,num_6,32,num_2,1.00002277247,,,2017_Jun_20_1609,60.0156112204,FEMA4ImagesEEG,001,100759,
AFNE01.JPG,AFNE01.JPG,AFNE01.JPG,AFNE01.JPG,AFNE01.JPG,AFNE01.JPG,,,,,,,,,,,,,3,4,34,4,,,,,,,,,,,AMNE18.jpg,AMSA06.jpg,AMSA11.jpg,AMNE12.jpg,AMSA11.jpg,MS,2,num_2,32,num_4,1.23345796182,,,2017_Jun_20_1609,60.0156112204,FEMA4ImagesEEG,001,100759,
AFNE01.JPG,AFNE01.JPG,AFNE01.JPG,AFNE01.JPG,AFNE01.JPG,AFNE01.JPG,,,,,,,,,,,,,3,5,35,1,,,,,,,,,,,AMSA01.jpg,AMNE06.jpg,AMSA09.jpg,AMNE18.jpg,AMSA01.jpg,MS,2,num_8,32,num_4,0.71683293255,,,2017_Jun_20_1609,60.0156112204,FEMA4ImagesEEG,001,100759,
AFNE01.JPG,AFNE01.JPG,AFNE01.JPG,AFNE01.JPG,AFNE01.JPG,AFNE01.JPG,,,,,,,,,,,,,3,6,36,8,,,,,,,,,,,AMNE14.jpg,AMNE16.jpg,AMSA15.jpg,AMSA12.jpg,AMNE16.jpg,MN,1,num_6,16,num_6,1.03344218154,,,2017_Jun_20_1609,60.0156112204,FEMA4ImagesEEG,001,100759,
AFNE01.JPG,AFNE01.JPG,AFNE01.JPG,AFNE01.JPG,AFNE01.JPG,AFNE01.JPG,,,,,,,,,,,,,3,7,37,9,,,,,,,,,,,AMSA01.jpg,AMNE14.jpg,AMNE17.jpg,AMSA12.jpg,AMNE14.jpg,MN,1,num_6,32,num_8,1.98340014857,,,2017_Jun_20_1609,60.0156112204,FEMA4ImagesEEG,001,100759,
AFNE01.JPG,AFNE01.JPG,AFNE01.JPG,AFNE01.JPG,AFNE01.JPG,AFNE01.JPG,,,,,,,,,,,,,3,8,38,7,,,,,,,,,,,AMNE12.jpg,AMNE17.jpg,AMSA16.jpg,AMSA18.jpg,AMNE17.jpg,MN,1,num_6,32,num_4,0.93382831919,,,2017_Jun_20_1609,60.0156112204,FEMA4ImagesEEG,001,100759,
AFNE01.JPG,AFNE01.JPG,AFNE01.JPG,AFNE01.JPG,AFNE01.JPG,AFNE01.JPG,,,,,,,,,,,,,3,9,39,5,,,,,,,,,,,AMNE05.jpg,AMNE09.jpg,AMSA20.jpg,AMSA15.jpg,AMNE09.jpg,MN,1,num_6,32,num_2,1.56671324861,,,2017_Jun_20_1609,60.0156112204,FEMA4ImagesEEG,001,100759,
AFNE01.JPG,AFNE01.JPG,AFNE01.JPG,AFNE01.JPG,AFNE01.JPG,AFNE01.JPG,,,,,,,,,,,,,4,0,40,2,,,,,,,,,,,AMSA05.jpg,AMNE18.jpg,AMNE19.jpg,AMSA20.jpg,AMSA05.jpg,MS,2,num_8,16,num_8,1.51671098755,,,2017_Jun_20_1609,60.0156112204,FEMA4ImagesEEG,001,100759,
AFNE01.JPG,AFNE01.JPG,AFNE01.JPG,AFNE01.JPG,AFNE01.JPG,AFNE01.JPG,,,,,,,,,,,,,4,1,41,8,,,,,,,,,,,AMSA02.jpg,AMNE13.jpg,AMNE01.jpg,AMSA08.jpg,AMSA02.jpg,MS,2,num_8,32,num_4,2.31669296185,,,2017_Jun_20_1609,60.0156112204,FEMA4ImagesEEG,001,100759,
AFNE01.JPG,AFNE01.JPG,AFNE01.JPG,AFNE01.JPG,AFNE01.JPG,AFNE01.JPG,,,,,,,,,,,,,4,2,42,6,,,,,,,,,,,AMNE07.jpg,AMSA13.jpg,AMSA11.jpg,AMNE16.jpg,AMNE16.jpg,MN,1,num_4,32,num_8,2.31666249176,,,2017_Jun_20_1609,60.0156112204,FEMA4ImagesEEG,001,100759,
AFNE01.JPG,AFNE01.JPG,AFNE01.JPG,AFNE01.JPG,AFNE01.JPG,AFNE01.JPG,,,,,,,,,,,,,4,3,43,0,,,,,,,,,,,AMNE20.jpg,AMSA04.jpg,AMNE01.jpg,AMSA07.jpg,AMNE20.jpg,MN,1,num_8,16,num_8,1.11675127246,,,2017_Jun_20_1609,60.0156112204,FEMA4ImagesEEG,001,100759,
AFNE01.JPG,AFNE01.JPG,AFNE01.JPG,AFNE01.JPG,AFNE01.JPG,AFNE01.JPG,,,,,,,,,,,,,4,4,44,1,,,,,,,,,,,AMSA17.jpg,AMSA11.jpg,AMNE01.jpg,AMNE15.jpg,AMSA17.jpg,MS,2,num_8,32,num_4,1.71665748837,,,2017_Jun_20_1609,60.0156112204,FEMA4ImagesEEG,001,100759,
AFNE01.JPG,AFNE01.JPG,AFNE01.JPG,AFNE01.JPG,AFNE01.JPG,AFNE01.JPG,,,,,,,,,,,,,4,5,45,5,,,,,,,,,,,AMSA17.jpg,AMSA12.jpg,AMNE06.jpg,AMNE20.jpg,AMNE06.jpg,MN,1,num_2,32,num_8,3.549930576,,,2017_Jun_20_1609,60.0156112204,FEMA4ImagesEEG,001,100759,
AFNE01.JPG,AFNE01.JPG,AFNE01.JPG,AFNE01.JPG,AFNE01.JPG,AFNE01.JPG,,,,,,,,,,,,,4,6,46,3,,,,,,,,,,,AMSA16.jpg,AMNE20.jpg,AMSA19.jpg,AMNE07.jpg,AMSA19.jpg,MS,2,num_2,48,None,,,,2017_Jun_20_1609,60.0156112204,FEMA4ImagesEEG,001,100759,
AFNE01.JPG,AFNE01.JPG,AFNE01.JPG,AFNE01.JPG,AFNE01.JPG,AFNE01.JPG,,,,,,,,,,,,,4,7,47,9,,,,,,,,,,,AMSA10.jpg,AMNE02.jpg,AMSA06.jpg,AMNE11.jpg,AMNE11.jpg,MN,1,num_4,32,num_2,2.26672341628,,,2017_Jun_20_1609,60.0156112204,FEMA4ImagesEEG,001,100759,
AFNE01.JPG,AFNE01.JPG,AFNE01.JPG,AFNE01.JPG,AFNE01.JPG,AFNE01.JPG,,,,,,,,,,,,,4,8,48,7,,,,,,,,,,,AMNE16.jpg,AMSA01.jpg,AMNE03.jpg,AMSA14.jpg,AMNE03.jpg,MN,1,num_2,32,num_8,1.75008299109,,,2017_Jun_20_1609,60.0156112204,FEMA4ImagesEEG,001,100759,
AFNE01.JPG,AFNE01.JPG,AFNE01.JPG,AFNE01.JPG,AFNE01.JPG,AFNE01.JPG,,,,,,,,,,,,,4,9,49,4,,,,,,,,,,,AMSA07.jpg,AMNE18.jpg,AMSA19.jpg,AMNE09.jpg,AMSA19.jpg,MS,2,num_2,16,num_2,1.11627337104,,,2017_Jun_20_1609,60.0156112204,FEMA4ImagesEEG,001,100759,
AFNE01.JPG,AFNE01.JPG,AFNE01.JPG,AFNE01.JPG,AFNE01.JPG,AFNE01.JPG,,,,,,,,,,,,,5,0,50,2,,,,,,,,,,,AMNE18.jpg,AMSA19.jpg,AMSA13.jpg,AMNE02.jpg,AMSA13.jpg,MS,2,num_2,16,num_2,1.31676031696,,,2017_Jun_20_1609,60.0156112204,FEMA4ImagesEEG,001,100759,
AFNE01.JPG,AFNE01.JPG,AFNE01.JPG,AFNE01.JPG,AFNE01.JPG,AFNE01.JPG,,,,,,,,,,,,,5,1,51,6,,,,,,,,,,,AMNE16.jpg,AMSA09.jpg,AMNE05.jpg,AMSA10.jpg,AMNE16.jpg,MN,1,num_8,32,num_2,1.60006241594,,,2017_Jun_20_1609,60.0156112204,FEMA4ImagesEEG,001,100759,
AFNE01.JPG,AFNE01.JPG,AFNE01.JPG,AFNE01.JPG,AFNE01.JPG,AFNE01.JPG,,,,,,,,,,,,,5,2,52,5,,,,,,,,,,,AMNE09.jpg,AMSA07.jpg,AMNE10.jpg,AMSA20.jpg,AMSA20.jpg,MS,2,num_4,32,num_6,1.20026242873,,,2017_Jun_20_1609,60.0156112204,FEMA4ImagesEEG,001,100759,
AFNE01.JPG,AFNE01.JPG,AFNE01.JPG,AFNE01.JPG,AFNE01.JPG,AFNE01.JPG,,,,,,,,,,,,,5,3,53,7,,,,,,,,,,,AMNE09.jpg,AMSA12.jpg,AMSA04.jpg,AMNE18.jpg,AMNE09.jpg,MN,1,num_8,32,num_4,1.63345199614,,,2017_Jun_20_1609,60.0156112204,FEMA4ImagesEEG,001,100759,
AFNE01.JPG,AFNE01.JPG,AFNE01.JPG,AFNE01.JPG,AFNE01.JPG,AFNE01.JPG,,,,,,,,,,,,,5,4,54,1,,,,,,,,,,,AMSA18.jpg,AMSA03.jpg,AMNE12.jpg,AMNE13.jpg,AMSA03.jpg,MS,2,num_6,16,num_6,1.61673411285,,,2017_Jun_20_1609,60.0156112204,FEMA4ImagesEEG,001,100759,
AFNE01.JPG,AFNE01.JPG,AFNE01.JPG,AFNE01.JPG,AFNE01.JPG,AFNE01.JPG,,,,,,,,,,,,,5,5,55,9,,,,,,,,,,,AMSA17.jpg,AMNE10.jpg,AMNE19.jpg,AMSA13.jpg,AMNE10.jpg,MN,1,num_6,32,num_4,3.04991630302,,,2017_Jun_20_1609,60.0156112204,FEMA4ImagesEEG,001,100759,
AFNE01.JPG,AFNE01.JPG,AFNE01.JPG,AFNE01.JPG,AFNE01.JPG,AFNE01.JPG,,,,,,,,,,,,,5,6,56,4,,,,,,,,,,,AMSA09.jpg,AMNE01.jpg,AMNE06.jpg,AMSA15.jpg,AMSA09.jpg,MS,2,num_8,16,num_8,1.76664467482,,,2017_Jun_20_1609,60.0156112204,FEMA4ImagesEEG,001,100759,
AFNE01.JPG,AFNE01.JPG,AFNE01.JPG,AFNE01.JPG,AFNE01.JPG,AFNE01.JPG,,,,,,,,,,,,,5,7,57,0,,,,,,,,,,,AMNE14.jpg,AMNE15.jpg,AMSA13.jpg,AMSA04.jpg,AMNE14.jpg,MN,1,num_8,48,None,,,,2017_Jun_20_1609,60.0156112204,FEMA4ImagesEEG,001,100759,
AFNE01.JPG,AFNE01.JPG,AFNE01.JPG,AFNE01.JPG,AFNE01.JPG,AFNE01.JPG,,,,,,,,,,,,,5,8,58,8,,,,,,,,,,,AMNE14.jpg,AMNE15.jpg,AMSA13.jpg,AMSA20.jpg,AMNE14.jpg,MN,1,num_8,16,num_8,0.56648744829,,,2017_Jun_20_1609,60.0156112204,FEMA4ImagesEEG,001,100759,
AFNE01.JPG,AFNE01.JPG,AFNE01.JPG,AFNE01.JPG,AFNE01.JPG,AFNE01.JPG,,,,,,,,,,,,,5,9,59,3,,,,,,,,,,,AMSA13.jpg,AMNE10.jpg,AMSA20.jpg,AMNE14.jpg,AMSA13.jpg,MS,2,num_8,16,num_8,1.6334686745,,,2017_Jun_20_1609,60.0156112204,FEMA4ImagesEEG,001,100759,
,,,,,,,,,,,,,,,,,,,,,,,,,,,,,,,,,,,,,,,,,,,space,26.4483730351,2017_Jun_20_1609,60.0156112204,FEMA4ImagesEEG,001,100759,
AFNE01.JPG,AFNE01.JPG,AFNE01.JPG,AFNE01.JPG,AFNE01.JPG,AFNE01.JPG,,,,,,,,,,,,,,,,,0,0,0,9,,,,,,,AFNE04.jpg,AFSA04.jpg,AFNE07.jpg,AFSA15.jpg,AFSA15.jpg,FS,4,num_4,32,num_6,0.750188514357,,,2017_Jun_20_1609,60.0156112204,FEMA4ImagesEEG,001,100759,
AFNE01.JPG,AFNE01.JPG,AFNE01.JPG,AFNE01.JPG,AFNE01.JPG,AFNE01.JPG,,,,,,,,,,,,,,,,,0,1,1,4,,,,,,,AFSA01.jpg,AFNE13.jpg,AFNE03.jpg,AFSA05.jpg,AFSA05.jpg,FS,4,num_4,32,num_8,3.26657651761,,,2017_Jun_20_1609,60.0156112204,FEMA4ImagesEEG,001,100759,
AFNE01.JPG,AFNE01.JPG,AFNE01.JPG,AFNE01.JPG,AFNE01.JPG,AFNE01.JPG,,,,,,,,,,,,,,,,,0,2,2,0,,,,,,,AFNE09.jpg,AFSA09.jpg,AFNE06.jpg,AFSA17.jpg,AFSA17.jpg,FS,4,num_4,32,num_8,0.850099380827,,,2017_Jun_20_1609,60.0156112204,FEMA4ImagesEEG,001,100759,
AFNE01.JPG,AFNE01.JPG,AFNE01.JPG,AFNE01.JPG,AFNE01.JPG,AFNE01.JPG,,,,,,,,,,,,,,,,,0,3,3,3,,,,,,,AFNE18.jpg,AFSA04.jpg,AFNE09.jpg,AFSA18.jpg,AFSA04.jpg,FS,4,num_6,32,num_2,0.983460768359,,,2017_Jun_20_1609,60.0156112204,FEMA4ImagesEEG,001,100759,
AFNE01.JPG,AFNE01.JPG,AFNE01.JPG,AFNE01.JPG,AFNE01.JPG,AFNE01.JPG,,,,,,,,,,,,,,,,,0,4,4,5,,,,,,,AFNE16.jpg,AFNE09.jpg,AFSA02.jpg,AFSA06.jpg,AFSA06.jpg,FS,4,num_4,32,num_8,1.53353535617,,,2017_Jun_20_1609,60.0156112204,FEMA4ImagesEEG,001,100759,
AFNE01.JPG,AFNE01.JPG,AFNE01.JPG,AFNE01.JPG,AFNE01.JPG,AFNE01.JPG,,,,,,,,,,,,,,,,,0,5,5,2,,,,,,,AFNE20.jpg,AFNE07.jpg,AFSA20.jpg,AFSA12.jpg,AFNE20.jpg,FN,3,num_8,32,num_2,1.55030551995,,,2017_Jun_20_1609,60.0156112204,FEMA4ImagesEEG,001,100759,
AFNE01.JPG,AFNE01.JPG,AFNE01.JPG,AFNE01.JPG,AFNE01.JPG,AFNE01.JPG,,,,,,,,,,,,,,,,,0,6,6,6,,,,,,,AFSA17.jpg,AFSA08.jpg,AFNE20.jpg,AFNE09.jpg,AFSA08.jpg,FS,4,num_6,32,num_8,0.650167313637,,,2017_Jun_20_1609,60.0156112204,FEMA4ImagesEEG,001,100759,
AFNE01.JPG,AFNE01.JPG,AFNE01.JPG,AFNE01.JPG,AFNE01.JPG,AFNE01.JPG,,,,,,,,,,,,,,,,,0,7,7,1,,,,,,,AFSA16.jpg,AFNE20.jpg,AFSA08.jpg,AFNE05.jpg,AFSA16.jpg,FS,4,num_8,32,num_4,0.766824288527,,,2017_Jun_20_1609,60.0156112204,FEMA4ImagesEEG,001,100759,
AFNE01.JPG,AFNE01.JPG,AFNE01.JPG,AFNE01.JPG,AFNE01.JPG,AFNE01.JPG,,,,,,,,,,,,,,,,,0,8,8,7,,,,,,,AFNE08.jpg,AFSA14.jpg,AFSA07.jpg,AFNE18.jpg,AFSA14.jpg,FS,4,num_6,32,num_8,0.850153585896,,,2017_Jun_20_1609,60.0156112204,FEMA4ImagesEEG,001,100759,
AFNE01.JPG,AFNE01.JPG,AFNE01.JPG,AFNE01.JPG,AFNE01.JPG,AFNE01.JPG,,,,,,,,,,,,,,,,,0,9,9,8,,,,,,,AFNE12.jpg,AFSA07.jpg,AFNE13.jpg,AFSA13.jpg,AFSA13.jpg,FS,4,num_4,32,num_8,0.616816542577,,,2017_Jun_20_1609,60.0156112204,FEMA4ImagesEEG,001,100759,
AFNE01.JPG,AFNE01.JPG,AFNE01.JPG,AFNE01.JPG,AFNE01.JPG,AFNE01.JPG,,,,,,,,,,,,,,,,,1,0,10,0,,,,,,,AFNE02.jpg,AFSA06.jpg,AFSA11.jpg,AFNE13.jpg,AFNE13.jpg,FN,3,num_4,32,num_2,0.983460447518,,,2017_Jun_20_1609,60.0156112204,FEMA4ImagesEEG,001,100759,
AFNE01.JPG,AFNE01.JPG,AFNE01.JPG,AFNE01.JPG,AFNE01.JPG,AFNE01.JPG,,,,,,,,,,,,,,,,,1,1,11,2,,,,,,,AFNE17.jpg,AFSA06.jpg,AFSA16.jpg,AFNE02.jpg,AFSA06.jpg,FS,4,num_6,32,num_4,1.08344251825,,,2017_Jun_20_1609,60.0156112204,FEMA4ImagesEEG,001,100759,
AFNE01.JPG,AFNE01.JPG,AFNE01.JPG,AFNE01.JPG,AFNE01.JPG,AFNE01.JPG,,,,,,,,,,,,,,,,,1,2,12,9,,,,,,,AFNE10.jpg,AFSA12.jpg,AFSA16.jpg,AFNE07.jpg,AFNE07.jpg,FN,3,num_4,16,num_4,1.10005776514,,,2017_Jun_20_1609,60.0156112204,FEMA4ImagesEEG,001,100759,
AFNE01.JPG,AFNE01.JPG,AFNE01.JPG,AFNE01.JPG,AFNE01.JPG,AFNE01.JPG,,,,,,,,,,,,,,,,,1,3,13,5,,,,,,,AFNE15.jpg,AFSA10.jpg,AFNE01.jpg,AFSA20.jpg,AFNE01.jpg,FN,3,num_2,16,num_2,1.33345863526,,,2017_Jun_20_1609,60.0156112204,FEMA4ImagesEEG,001,100759,
AFNE01.JPG,AFNE01.JPG,AFNE01.JPG,AFNE01.JPG,AFNE01.JPG,AFNE01.JPG,,,,,,,,,,,,,,,,,1,4,14,7,,,,,,,AFNE04.jpg,AFSA05.jpg,AFNE06.jpg,AFSA06.jpg,AFSA05.jpg,FS,4,num_6,32,num_2,1.13344253437,,,2017_Jun_20_1609,60.0156112204,FEMA4ImagesEEG,001,100759,
AFNE01.JPG,AFNE01.JPG,AFNE01.JPG,AFNE01.JPG,AFNE01.JPG,AFNE01.JPG,,,,,,,,,,,,,,,,,1,5,15,8,,,,,,,AFSA18.jpg,AFNE13.jpg,AFSA08.jpg,AFNE04.jpg,AFSA08.jpg,FS,4,num_2,32,num_4,1.21670832532,,,2017_Jun_20_1609,60.0156112204,FEMA4ImagesEEG,001,100759,
AFNE01.JPG,AFNE01.JPG,AFNE01.JPG,AFNE01.JPG,AFNE01.JPG,AFNE01.JPG,,,,,,,,,,,,,,,,,1,6,16,4,,,,,,,AFNE11.jpg,AFSA12.jpg,AFNE13.jpg,AFSA20.jpg,AFSA12.jpg,FS,4,num_6,16,num_6,0.66683708597,,,2017_Jun_20_1609,60.0156112204,FEMA4ImagesEEG,001,100759,
AFNE01.JPG,AFNE01.JPG,AFNE01.JPG,AFNE01.JPG,AFNE01.JPG,AFNE01.JPG,,,,,,,,,,,,,,,,,1,7,17,1,,,,,,,AFNE17.jpg,AFSA14.jpg,AFNE12.jpg,AFSA03.jpg,AFNE12.jpg,FN,3,num_2,16,num_2,0.699973282404,,,2017_Jun_20_1609,60.0156112204,FEMA4ImagesEEG,001,100759,
AFNE01.JPG,AFNE01.JPG,AFNE01.JPG,AFNE01.JPG,AFNE01.JPG,AFNE01.JPG,,,,,,,,,,,,,,,,,1,8,18,3,,,,,,,AFNE13.jpg,AFSA08.jpg,AFSA10.jpg,AFNE02.jpg,AFSA08.jpg,FS,4,num_6,32,num_4,1.31668750918,,,2017_Jun_20_1609,60.0156112204,FEMA4ImagesEEG,001,100759,
AFNE01.JPG,AFNE01.JPG,AFNE01.JPG,AFNE01.JPG,AFNE01.JPG,AFNE01.JPG,,,,,,,,,,,,,,,,,1,9,19,6,,,,,,,AFSA17.jpg,AFNE19.jpg,AFSA12.jpg,AFNE03.jpg,AFSA17.jpg,FS,4,num_8,32,num_2,1.40005144663,,,2017_Jun_20_1609,60.0156112204,FEMA4ImagesEEG,001,100759,
AFNE01.JPG,AFNE01.JPG,AFNE01.JPG,AFNE01.JPG,AFNE01.JPG,AFNE01.JPG,,,,,,,,,,,,,,,,,2,0,20,7,,,,,,,AFSA04.jpg,AFSA08.jpg,AFNE11.jpg,AFNE12.jpg,AFSA04.jpg,FS,4,num_8,16,num_8,3.86650967551,,,2017_Jun_20_1609,60.0156112204,FEMA4ImagesEEG,001,100759,
AFNE01.JPG,AFNE01.JPG,AFNE01.JPG,AFNE01.JPG,AFNE01.JPG,AFNE01.JPG,,,,,,,,,,,,,,,,,2,1,21,6,,,,,,,AFSA02.jpg,AFSA09.jpg,AFNE16.jpg,AFNE13.jpg,AFNE16.jpg,FN,3,num_2,32,num_4,2.36664550845,,,2017_Jun_20_1609,60.0156112204,FEMA4ImagesEEG,001,100759,
AFNE01.JPG,AFNE01.JPG,AFNE01.JPG,AFNE01.JPG,AFNE01.JPG,AFNE01.JPG,,,,,,,,,,,,,,,,,2,2,22,4,,,,,,,AFSA19.jpg,AFSA06.jpg,AFNE07.jpg,AFNE18.jpg,AFSA19.jpg,FS,4,num_8,32,num_6,3.63326821267,,,2017_Jun_20_1609,60.0156112204,FEMA4ImagesEEG,001,100759,
AFNE01.JPG,AFNE01.JPG,AFNE01.JPG,AFNE01.JPG,AFNE01.JPG,AFNE01.JPG,,,,,,,,,,,,,,,,,2,3,23,2,,,,,,,AFSA12.jpg,AFNE01.jpg,AFSA09.jpg,AFNE10.jpg,AFNE10.jpg,FN,3,num_4,32,num_8,1.19979928131,,,2017_Jun_20_1609,60.0156112204,FEMA4ImagesEEG,001,100759,
AFNE01.JPG,AFNE01.JPG,AFNE01.JPG,AFNE01.JPG,AFNE01.JPG,AFNE01.JPG,,,,,,,,,,,,,,,,,2,4,24,5,,,,,,,AFSA09.jpg,AFNE02.jpg,AFSA10.jpg,AFNE12.jpg,AFNE02.jpg,FN,3,num_6,32,num_2,1.63337950897,,,2017_Jun_20_1609,60.0156112204,FEMA4ImagesEEG,001,100759,
AFNE01.JPG,AFNE01.JPG,AFNE01.JPG,AFNE01.JPG,AFNE01.JPG,AFNE01.JPG,,,,,,,,,,,,,,,,,2,5,25,9,,,,,,,AFNE07.jpg,AFNE10.jpg,AFSA03.jpg,AFSA17.jpg,AFSA17.jpg,FS,4,num_4,32,num_8,3.60011309269,,,2017_Jun_20_1609,60.0156112204,FEMA4ImagesEEG,001,100759,
AFNE01.JPG,AFNE01.JPG,AFNE01.JPG,AFNE01.JPG,AFNE01.JPG,AFNE01.JPG,,,,,,,,,,,,,,,,,2,6,26,3,,,,,,,AFNE04.jpg,AFSA11.jpg,AFNE12.jpg,AFSA05.jpg,AFNE12.jpg,FN,3,num_2,48,None,,,,2017_Jun_20_1609,60.0156112204,FEMA4ImagesEEG,001,100759,
AFNE01.JPG,AFNE01.JPG,AFNE01.JPG,AFNE01.JPG,AFNE01.JPG,AFNE01.JPG,,,,,,,,,,,,,,,,,2,7,27,0,,,,,,,AFSA09.jpg,AFSA20.jpg,AFNE16.jpg,AFNE01.jpg,AFSA20.jpg,FS,4,num_6,32,num_8,0.650203236146,,,2017_Jun_20_1609,60.0156112204,FEMA4ImagesEEG,001,100759,
AFNE01.JPG,AFNE01.JPG,AFNE01.JPG,AFNE01.JPG,AFNE01.JPG,AFNE01.JPG,,,,,,,,,,,,,,,,,2,8,28,8,,,,,,,AFNE02.jpg,AFNE10.jpg,AFSA12.jpg,AFSA17.jpg,AFSA12.jpg,FS,4,num_2,32,num_6,2.78332759743,,,2017_Jun_20_1609,60.0156112204,FEMA4ImagesEEG,001,100759,
AFNE01.JPG,AFNE01.JPG,AFNE01.JPG,AFNE01.JPG,AFNE01.JPG,AFNE01.JPG,,,,,,,,,,,,,,,,,2,9,29,1,,,,,,,AFNE04.jpg,AFSA12.jpg,AFNE17.jpg,AFSA19.jpg,AFSA19.jpg,FS,4,num_4,32,num_2,0.916800922714,,,2017_Jun_20_1609,60.0156112204,FEMA4ImagesEEG,001,100759,
AFNE01.JPG,AFNE01.JPG,AFNE01.JPG,AFNE01.JPG,AFNE01.JPG,AFNE01.JPG,,,,,,,,,,,,,,,,,3,0,30,8,,,,,,,AFSA01.jpg,AFNE11.jpg,AFNE10.jpg,AFSA19.jpg,AFNE10.jpg,FN,3,num_2,16,num_2,0.833451418672,,,2017_Jun_20_1609,60.0156112204,FEMA4ImagesEEG,001,100759,
AFNE01.JPG,AFNE01.JPG,AFNE01.JPG,AFNE01.JPG,AFNE01.JPG,AFNE01.JPG,,,,,,,,,,,,,,,,,3,1,31,9,,,,,,,AFNE16.jpg,AFNE11.jpg,AFSA10.jpg,AFSA19.jpg,AFSA19.jpg,FS,4,num_4,32,num_8,2.71662477264,,,2017_Jun_20_1609,60.0156112204,FEMA4ImagesEEG,001,100759,
AFNE01.JPG,AFNE01.JPG,AFNE01.JPG,AFNE01.JPG,AFNE01.JPG,AFNE01.JPG,,,,,,,,,,,,,,,,,3,2,32,0,,,,,,,AFNE20.jpg,AFSA02.jpg,AFSA20.jpg,AFNE07.jpg,AFSA20.jpg,FS,4,num_2,32,num_6,1.11691324553,,,2017_Jun_20_1609,60.0156112204,FEMA4ImagesEEG,001,100759,
AFNE01.JPG,AFNE01.JPG,AFNE01.JPG,AFNE01.JPG,AFNE01.JPG,AFNE01.JPG,,,,,,,,,,,,,,,,,3,3,33,4,,,,,,,AFNE19.jpg,AFSA03.jpg,AFSA04.jpg,AFNE09.jpg,AFNE09.jpg,FN,3,num_4,32,num_8,1.550111152,,,2017_Jun_20_1609,60.0156112204,FEMA4ImagesEEG,001,100759,
AFNE01.JPG,AFNE01.JPG,AFNE01.JPG,AFNE01.JPG,AFNE01.JPG,AFNE01.JPG,,,,,,,,,,,,,,,,,3,4,34,2,,,,,,,AFNE02.jpg,AFSA14.jpg,AFNE10.jpg,AFSA15.jpg,AFSA14.jpg,FS,4,num_6,32,num_2,0.866803472629,,,2017_Jun_20_1609,60.0156112204,FEMA4ImagesEEG,001,100759,
AFNE01.JPG,AFNE01.JPG,AFNE01.JPG,AFNE01.JPG,AFNE01.JPG,AFNE01.JPG,,,,,,,,,,,,,,,,,3,5,35,1,,,,,,,AFNE14.jpg,AFSA01.jpg,AFNE11.jpg,AFSA04.jpg,AFNE11.jpg,FN,3,num_2,32,num_8,1.19975950988,,,2017_Jun_20_1609,60.0156112204,FEMA4ImagesEEG,001,100759,
AFNE01.JPG,AFNE01.JPG,AFNE01.JPG,AFNE01.JPG,AFNE01.JPG,AFNE01.JPG,,,,,,,,,,,,,,,,,3,6,36,3,,,,,,,AFSA07.jpg,AFNE07.jpg,AFSA20.jpg,AFNE12.jpg,AFSA20.jpg,FS,4,num_2,16,num_2,0.850120549789,,,2017_Jun_20_1609,60.0156112204,FEMA4ImagesEEG,001,100759,
AFNE01.JPG,AFNE01.JPG,AFNE01.JPG,AFNE01.JPG,AFNE01.JPG,AFNE01.JPG,,,,,,,,,,,,,,,,,3,7,37,7,,,,,,,AFSA06.jpg,AFNE18.jpg,AFNE15.jpg,AFSA08.jpg,AFSA06.jpg,FS,4,num_8,32,num_4,1.183439343,,,2017_Jun_20_1609,60.0156112204,FEMA4ImagesEEG,001,100759,
AFNE01.JPG,AFNE01.JPG,AFNE01.JPG,AFNE01.JPG,AFNE01.JPG,AFNE01.JPG,,,,,,,,,,,,,,,,,3,8,38,5,,,,,,,AFSA04.jpg,AFSA03.jpg,AFNE02.jpg,AFNE12.jpg,AFNE02.jpg,FN,3,num_2,32,num_8,1.50009638211,,,2017_Jun_20_1609,60.0156112204,FEMA4ImagesEEG,001,100759,
AFNE01.JPG,AFNE01.JPG,AFNE01.JPG,AFNE01.JPG,AFNE01.JPG,AFNE01.JPG,,,,,,,,,,,,,,,,,3,9,39,6,,,,,,,AFSA20.jpg,AFNE11.jpg,AFNE04.jpg,AFSA11.jpg,AFNE11.jpg,FN,3,num_6,32,num_4,0.716762690572,,,2017_Jun_20_1609,60.0156112204,FEMA4ImagesEEG,001,100759,
AFNE01.JPG,AFNE01.JPG,AFNE01.JPG,AFNE01.JPG,AFNE01.JPG,AFNE01.JPG,,,,,,,,,,,,,,,,,4,0,40,5,,,,,,,AFSA14.jpg,AFNE10.jpg,AFNE19.jpg,AFSA15.jpg,AFNE10.jpg,FN,3,num_6,32,num_2,1.98339245073,,,2017_Jun_20_1609,60.0156112204,FEMA4ImagesEEG,001,100759,
AFNE01.JPG,AFNE01.JPG,AFNE01.JPG,AFNE01.JPG,AFNE01.JPG,AFNE01.JPG,,,,,,,,,,,,,,,,,4,1,41,9,,,,,,,AFNE02.jpg,AFSA07.jpg,AFSA05.jpg,AFNE18.jpg,AFSA05.jpg,FS,4,num_2,32,num_4,0.883440850535,,,2017_Jun_20_1609,60.0156112204,FEMA4ImagesEEG,001,100759,
AFNE01.JPG,AFNE01.JPG,AFNE01.JPG,AFNE01.JPG,AFNE01.JPG,AFNE01.JPG,,,,,,,,,,,,,,,,,4,2,42,6,,,,,,,AFSA12.jpg,AFNE13.jpg,AFNE16.jpg,AFSA16.jpg,AFSA12.jpg,FS,4,num_8,16,num_8,0.483473758213,,,2017_Jun_20_1609,60.0156112204,FEMA4ImagesEEG,001,100759,
AFNE01.JPG,AFNE01.JPG,AFNE01.JPG,AFNE01.JPG,AFNE01.JPG,AFNE01.JPG,,,,,,,,,,,,,,,,,4,3,43,1,,,,,,,AFSA01.jpg,AFNE02.jpg,AFNE14.jpg,AFSA17.jpg,AFSA01.jpg,FS,4,num_8,32,num_4,1.36664101807,,,2017_Jun_20_1609,60.0156112204,FEMA4ImagesEEG,001,100759,
AFNE01.JPG,AFNE01.JPG,AFNE01.JPG,AFNE01.JPG,AFNE01.JPG,AFNE01.JPG,,,,,,,,,,,,,,,,,4,4,44,8,,,,,,,AFNE12.jpg,AFSA10.jpg,AFNE09.jpg,AFSA02.jpg,AFSA10.jpg,FS,4,num_6,48,None,,,,2017_Jun_20_1609,60.0156112204,FEMA4ImagesEEG,001,100759,
AFNE01.JPG,AFNE01.JPG,AFNE01.JPG,AFNE01.JPG,AFNE01.JPG,AFNE01.JPG,,,,,,,,,,,,,,,,,4,5,45,7,,,,,,,AFNE07.jpg,AFNE06.jpg,AFSA06.jpg,AFSA13.jpg,AFNE07.jpg,FN,3,num_8,16,num_8,1.5833968129,,,2017_Jun_20_1609,60.0156112204,FEMA4ImagesEEG,001,100759,
AFNE01.JPG,AFNE01.JPG,AFNE01.JPG,AFNE01.JPG,AFNE01.JPG,AFNE01.JPG,,,,,,,,,,,,,,,,,4,6,46,2,,,,,,,AFSA19.jpg,AFSA02.jpg,AFNE14.jpg,AFNE16.jpg,AFNE16.jpg,FN,3,num_4,32,num_8,3.09995160042,,,2017_Jun_20_1609,60.0156112204,FEMA4ImagesEEG,001,100759,
AFNE01.JPG,AFNE01.JPG,AFNE01.JPG,AFNE01.JPG,AFNE01.JPG,AFNE01.JPG,,,,,,,,,,,,,,,,,4,7,47,3,,,,,,,AFSA01.jpg,AFNE11.jpg,AFNE09.jpg,AFSA15.jpg,AFSA15.jpg,FS,4,num_4,32,num_2,1.21675226674,,,2017_Jun_20_1609,60.0156112204,FEMA4ImagesEEG,001,100759,
AFNE01.JPG,AFNE01.JPG,AFNE01.JPG,AFNE01.JPG,AFNE01.JPG,AFNE01.JPG,,,,,,,,,,,,,,,,,4,8,48,4,,,,,,,AFSA08.jpg,AFSA11.jpg,AFNE06.jpg,AFNE19.jpg,AFNE19.jpg,FN,3,num_4,48,None,,,,2017_Jun_20_1609,60.0156112204,FEMA4ImagesEEG,001,100759,
AFNE01.JPG,AFNE01.JPG,AFNE01.JPG,AFNE01.JPG,AFNE01.JPG,AFNE01.JPG,,,,,,,,,,,,,,,,,4,9,49,0,,,,,,,AFNE02.jpg,AFSA20.jpg,AFSA09.jpg,AFNE12.jpg,AFSA09.jpg,FS,4,num_2,32,num_8,1.61675464013,,,2017_Jun_20_1609,60.0156112204,FEMA4ImagesEEG,001,100759,
AFNE01.JPG,AFNE01.JPG,AFNE01.JPG,AFNE01.JPG,AFNE01.JPG,AFNE01.JPG,,,,,,,,,,,,,,,,,5,0,50,5,,,,,,,AFSA13.jpg,AFNE09.jpg,AFSA20.jpg,AFNE04.jpg,AFSA13.jpg,FS,4,num_8,48,None,,,,2017_Jun_20_1609,60.0156112204,FEMA4ImagesEEG,001,100759,
AFNE01.JPG,AFNE01.JPG,AFNE01.JPG,AFNE01.JPG,AFNE01.JPG,AFNE01.JPG,,,,,,,,,,,,,,,,,5,1,51,1,,,,,,,AFSA15.jpg,AFSA04.jpg,AFNE02.jpg,AFNE11.jpg,AFNE11.jpg,FN,3,num_4,16,num_4,1.96670183027,,,2017_Jun_20_1609,60.0156112204,FEMA4ImagesEEG,001,100759,
AFNE01.JPG,AFNE01.JPG,AFNE01.JPG,AFNE01.JPG,AFNE01.JPG,AFNE01.JPG,,,,,,,,,,,,,,,,,5,2,52,0,,,,,,,AFSA07.jpg,AFSA15.jpg,AFNE05.jpg,AFNE12.jpg,AFSA07.jpg,FS,4,num_8,32,num_6,0.633467070758,,,2017_Jun_20_1609,60.0156112204,FEMA4ImagesEEG,001,100759,
AFNE01.JPG,AFNE01.JPG,AFNE01.JPG,AFNE01.JPG,AFNE01.JPG,AFNE01.JPG,,,,,,,,,,,,,,,,,5,3,53,4,,,,,,,AFNE14.jpg,AFSA13.jpg,AFNE09.jpg,AFSA12.jpg,AFSA13.jpg,FS,4,num_6,32,num_8,0.983463654993,,,2017_Jun_20_1609,60.0156112204,FEMA4ImagesEEG,001,100759,
AFNE01.JPG,AFNE01.JPG,AFNE01.JPG,AFNE01.JPG,AFNE01.JPG,AFNE01.JPG,,,,,,,,,,,,,,,,,5,4,54,7,,,,,,,AFNE07.jpg,AFNE15.jpg,AFSA08.jpg,AFSA05.jpg,AFNE15.jpg,FN,3,num_6,16,num_6,0.716824914096,,,2017_Jun_20_1609,60.0156112204,FEMA4ImagesEEG,001,100759,
AFNE01.JPG,AFNE01.JPG,AFNE01.JPG,AFNE01.JPG,AFNE01.JPG,AFNE01.JPG,,,,,,,,,,,,,,,,,5,5,55,8,,,,,,,AFNE12.jpg,AFNE13.jpg,AFSA06.jpg,AFSA11.jpg,AFNE13.jpg,FN,3,num_6,32,num_4,1.56674019084,,,2017_Jun_20_1609,60.0156112204,FEMA4ImagesEEG,001,100759,
AFNE01.JPG,AFNE01.JPG,AFNE01.JPG,AFNE01.JPG,AFNE01.JPG,AFNE01.JPG,,,,,,,,,,,,,,,,,5,6,56,6,,,,,,,AFNE19.jpg,AFSA15.jpg,AFSA09.jpg,AFNE01.jpg,AFSA15.jpg,FS,4,num_6,16,num_6,1.96666270006,,,2017_Jun_20_1609,60.0156112204,FEMA4ImagesEEG,001,100759,
AFNE01.JPG,AFNE01.JPG,AFNE01.JPG,AFNE01.JPG,AFNE01.JPG,AFNE01.JPG,,,,,,,,,,,,,,,,,5,7,57,9,,,,,,,AFSA08.jpg,AFNE03.jpg,AFNE05.jpg,AFSA20.jpg,AFSA08.jpg,FS,4,num_8,16,num_8,0.983587780967,,,2017_Jun_20_1609,60.0156112204,FEMA4ImagesEEG,001,100759,
AFNE01.JPG,AFNE01.JPG,AFNE01.JPG,AFNE01.JPG,AFNE01.JPG,AFNE01.JPG,,,,,,,,,,,,,,,,,5,8,58,3,,,,,,,AFSA03.jpg,AFNE05.jpg,AFSA09.jpg,AFNE16.jpg,AFNE05.jpg,FN,3,num_6,32,num_4,0.966807353543,,,2017_Jun_20_1609,60.0156112204,FEMA4ImagesEEG,001,100759,
AFNE01.JPG,AFNE01.JPG,AFNE01.JPG,AFNE01.JPG,AFNE01.JPG,AFNE01.JPG,,,,,,,,,,,,,,,,,5,9,59,2,,,,,,,AFSA06.jpg,AFNE03.jpg,AFNE16.jpg,AFSA08.jpg,AFSA08.jpg,FS,4,num_4,32,num_2,1.40048187831,,,2017_Jun_20_1609,60.0156112204,FEMA4ImagesEEG,001,100759,
,,,,,,,,,,,,,,,,,,,,,,,,,,,,,,,,,,,,,,,,,,,space,30.7143828066,2017_Jun_20_1609,60.0156112204,FEMA4ImagesEEG,001,100759,
AFNE01.JPG,AFNE01.JPG,AFNE01.JPG,AFNE01.JPG,AFNE01.JPG,AFNE01.JPG,,,,,,,,,,,,,,,,,,,,,0,0,0,8,,,AMNE01.jpg,AMSA06.jpg,AMNE02.jpg,AMSA02.jpg,AMSA02.jpg,MS,2,num_4,32,num_2,0.900165148545,,,2017_Jun_20_1609,60.0156112204,FEMA4ImagesEEG,001,100759,
AFNE01.JPG,AFNE01.JPG,AFNE01.JPG,AFNE01.JPG,AFNE01.JPG,AFNE01.JPG,,,,,,,,,,,,,,,,,,,,,0,1,1,9,,,AMNE19.jpg,AMSA06.jpg,AMNE11.jpg,AMSA19.jpg,AMSA06.jpg,MS,2,num_6,32,num_8,0.883479339071,,,2017_Jun_20_1609,60.0156112204,FEMA4ImagesEEG,001,100759,
AFNE01.JPG,AFNE01.JPG,AFNE01.JPG,AFNE01.JPG,AFNE01.JPG,AFNE01.JPG,,,,,,,,,,,,,,,,,,,,,0,2,2,7,,,AMNE05.jpg,AMNE19.jpg,AMSA04.jpg,AMSA07.jpg,AMNE19.jpg,MN,1,num_6,32,num_8,0.900128263747,,,2017_Jun_20_1609,60.0156112204,FEMA4ImagesEEG,001,100759,
AFNE01.JPG,AFNE01.JPG,AFNE01.JPG,AFNE01.JPG,AFNE01.JPG,AFNE01.JPG,,,,,,,,,,,,,,,,,,,,,0,3,3,2,,,AMNE17.jpg,AMSA19.jpg,AMSA10.jpg,AMNE20.jpg,AMSA19.jpg,MS,2,num_6,16,num_6,0.883422889048,,,2017_Jun_20_1609,60.0156112204,FEMA4ImagesEEG,001,100759,
AFNE01.JPG,AFNE01.JPG,AFNE01.JPG,AFNE01.JPG,AFNE01.JPG,AFNE01.JPG,,,,,,,,,,,,,,,,,,,,,0,4,4,0,,,AMSA05.jpg,AMNE04.jpg,AMNE08.jpg,AMSA09.jpg,AMSA05.jpg,MS,2,num_8,16,num_8,3.58323804708,,,2017_Jun_20_1609,60.0156112204,FEMA4ImagesEEG,001,100759,
AFNE01.JPG,AFNE01.JPG,AFNE01.JPG,AFNE01.JPG,AFNE01.JPG,AFNE01.JPG,,,,,,,,,,,,,,,,,,,,,0,5,5,1,,,AMSA03.jpg,AMSA16.jpg,AMNE17.jpg,AMNE13.jpg,AMNE13.jpg,MN,1,num_4,32,num_8,3.48323416617,,,2017_Jun_20_1609,60.0156112204,FEMA4ImagesEEG,001,100759,
AFNE01.JPG,AFNE01.JPG,AFNE01.JPG,AFNE01.JPG,AFNE01.JPG,AFNE01.JPG,,,,,,,,,,,,,,,,,,,,,0,6,6,3,,,AMSA16.jpg,AMNE03.jpg,AMSA17.jpg,AMNE12.jpg,AMNE12.jpg,MN,1,num_4,32,num_8,1.0335159516,,,2017_Jun_20_1609,60.0156112204,FEMA4ImagesEEG,001,100759,
AFNE01.JPG,AFNE01.JPG,AFNE01.JPG,AFNE01.JPG,AFNE01.JPG,AFNE01.JPG,,,,,,,,,,,,,,,,,,,,,0,7,7,6,,,AMSA04.jpg,AMNE03.jpg,AMSA14.jpg,AMNE01.jpg,AMNE03.jpg,MN,1,num_6,16,num_6,1.35010980489,,,2017_Jun_20_1609,60.0156112204,FEMA4ImagesEEG,001,100759,
AFNE01.JPG,AFNE01.JPG,AFNE01.JPG,AFNE01.JPG,AFNE01.JPG,AFNE01.JPG,,,,,,,,,,,,,,,,,,,,,0,8,8,5,,,AMSA13.jpg,AMSA18.jpg,AMNE12.jpg,AMNE14.jpg,AMNE12.jpg,MN,1,num_2,16,num_2,1.00015972811,,,2017_Jun_20_1609,60.0156112204,FEMA4ImagesEEG,001,100759,
AFNE01.JPG,AFNE01.JPG,AFNE01.JPG,AFNE01.JPG,AFNE01.JPG,AFNE01.JPG,,,,,,,,,,,,,,,,,,,,,0,9,9,4,,,AMNE04.jpg,AMSA14.jpg,AMSA05.jpg,AMNE12.jpg,AMNE04.jpg,MN,1,num_8,16,num_8,1.01669414877,,,2017_Jun_20_1609,60.0156112204,FEMA4ImagesEEG,001,100759,
AFNE01.JPG,AFNE01.JPG,AFNE01.JPG,AFNE01.JPG,AFNE01.JPG,AFNE01.JPG,,,,,,,,,,,,,,,,,,,,,1,0,10,7,,,AMSA05.jpg,AMSA16.jpg,AMNE08.jpg,AMNE02.jpg,AMSA05.jpg,MS,2,num_8,16,num_8,0.750146497507,,,2017_Jun_20_1609,60.0156112204,FEMA4ImagesEEG,001,100759,
AFNE01.JPG,AFNE01.JPG,AFNE01.JPG,AFNE01.JPG,AFNE01.JPG,AFNE01.JPG,,,,,,,,,,,,,,,,,,,,,1,1,11,1,,,AMNE19.jpg,AMSA10.jpg,AMNE01.jpg,AMSA11.jpg,AMNE19.jpg,MN,1,num_8,16,num_8,0.900120565668,,,2017_Jun_20_1609,60.0156112204,FEMA4ImagesEEG,001,100759,
AFNE01.JPG,AFNE01.JPG,AFNE01.JPG,AFNE01.JPG,AFNE01.JPG,AFNE01.JPG,,,,,,,,,,,,,,,,,,,,,1,2,12,8,,,AMSA20.jpg,AMNE02.jpg,AMSA11.jpg,AMNE05.jpg,AMNE05.jpg,MN,1,num_4,32,num_8,1.78342638514,,,2017_Jun_20_1609,60.0156112204,FEMA4ImagesEEG,001,100759,
AFNE01.JPG,AFNE01.JPG,AFNE01.JPG,AFNE01.JPG,AFNE01.JPG,AFNE01.JPG,,,,,,,,,,,,,,,,,,,,,1,3,13,5,,,AMSA14.jpg,AMNE08.jpg,AMSA20.jpg,AMNE07.jpg,AMNE08.jpg,MN,1,num_6,32,num_2,0.916790017625,,,2017_Jun_20_1609,60.0156112204,FEMA4ImagesEEG,001,100759,
AFNE01.JPG,AFNE01.JPG,AFNE01.JPG,AFNE01.JPG,AFNE01.JPG,AFNE01.JPG,,,,,,,,,,,,,,,,,,,,,1,4,14,3,,,AMSA09.jpg,AMNE11.jpg,AMSA07.jpg,AMNE19.jpg,AMSA07.jpg,MS,2,num_2,32,num_6,2.1000645007,,,2017_Jun_20_1609,60.0156112204,FEMA4ImagesEEG,001,100759,
AFNE01.JPG,AFNE01.JPG,AFNE01.JPG,AFNE01.JPG,AFNE01.JPG,AFNE01.JPG,,,,,,,,,,,,,,,,,,,,,1,5,15,6,,,AMNE18.jpg,AMSA03.jpg,AMNE07.jpg,AMSA02.jpg,AMSA03.jpg,MS,2,num_6,32,num_4,0.900127622066,,,2017_Jun_20_1609,60.0156112204,FEMA4ImagesEEG,001,100759,
AFNE01.JPG,AFNE01.JPG,AFNE01.JPG,AFNE01.JPG,AFNE01.JPG,AFNE01.JPG,,,,,,,,,,,,,,,,,,,,,1,6,16,2,,,AMSA10.jpg,AMSA04.jpg,AMNE07.jpg,AMNE14.jpg,AMNE07.jpg,MN,1,num_2,16,num_2,0.550206732238,,,2017_Jun_20_1609,60.0156112204,FEMA4ImagesEEG,001,100759,
AFNE01.JPG,AFNE01.JPG,AFNE01.JPG,AFNE01.JPG,AFNE01.JPG,AFNE01.JPG,,,,,,,,,,,,,,,,,,,,,1,7,17,4,,,AMNE10.jpg,AMNE03.jpg,AMSA05.jpg,AMSA01.jpg,AMSA01.jpg,MS,2,num_4,32,num_8,4.15019601979,,,2017_Jun_20_1609,60.0156112204,FEMA4ImagesEEG,001,100759,
AFNE01.JPG,AFNE01.JPG,AFNE01.JPG,AFNE01.JPG,AFNE01.JPG,AFNE01.JPG,,,,,,,,,,,,,,,,,,,,,1,8,18,0,,,AMNE02.jpg,AMSA18.jpg,AMSA14.jpg,AMNE06.jpg,AMSA18.jpg,MS,2,num_6,16,num_6,0.533496546792,,,2017_Jun_20_1609,60.0156112204,FEMA4ImagesEEG,001,100759,
AFNE01.JPG,AFNE01.JPG,AFNE01.JPG,AFNE01.JPG,AFNE01.JPG,AFNE01.JPG,,,,,,,,,,,,,,,,,,,,,1,9,19,9,,,AMNE09.jpg,AMNE10.jpg,AMSA19.jpg,AMSA13.jpg,AMSA13.jpg,MS,2,num_4,32,num_8,1.78342830949,,,2017_Jun_20_1609,60.0156112204,FEMA4ImagesEEG,001,100759,
AFNE01.JPG,AFNE01.JPG,AFNE01.JPG,AFNE01.JPG,AFNE01.JPG,AFNE01.JPG,,,,,,,,,,,,,,,,,,,,,2,0,20,9,,,AMSA13.jpg,AMSA16.jpg,AMNE06.jpg,AMNE11.jpg,AMSA13.jpg,MS,2,num_8,32,num_2,1.41675329302,,,2017_Jun_20_1609,60.0156112204,FEMA4ImagesEEG,001,100759,
AFNE01.JPG,AFNE01.JPG,AFNE01.JPG,AFNE01.JPG,AFNE01.JPG,AFNE01.JPG,,,,,,,,,,,,,,,,,,,,,2,1,21,4,,,AMSA01.jpg,AMNE14.jpg,AMNE12.jpg,AMSA02.jpg,AMNE14.jpg,MN,1,num_6,48,None,,,,2017_Jun_20_1609,60.0156112204,FEMA4ImagesEEG,001,100759,
AFNE01.JPG,AFNE01.JPG,AFNE01.JPG,AFNE01.JPG,AFNE01.JPG,AFNE01.JPG,,,,,,,,,,,,,,,,,,,,,2,2,22,6,,,AMNE16.jpg,AMSA02.jpg,AMSA15.jpg,AMNE10.jpg,AMSA02.jpg,MS,2,num_6,16,num_6,0.733492120635,,,2017_Jun_20_1609,60.0156112204,FEMA4ImagesEEG,001,100759,
AFNE01.JPG,AFNE01.JPG,AFNE01.JPG,AFNE01.JPG,AFNE01.JPG,AFNE01.JPG,,,,,,,,,,,,,,,,,,,,,2,3,23,8,,,AMSA08.jpg,AMNE20.jpg,AMSA12.jpg,AMNE07.jpg,AMSA08.jpg,MS,2,num_8,32,num_4,0.616777091753,,,2017_Jun_20_1609,60.0156112204,FEMA4ImagesEEG,001,100759,
AFNE01.JPG,AFNE01.JPG,AFNE01.JPG,AFNE01.JPG,AFNE01.JPG,AFNE01.JPG,,,,,,,,,,,,,,,,,,,,,2,4,24,7,,,AMNE18.jpg,AMSA14.jpg,AMSA01.jpg,AMNE01.jpg,AMNE01.jpg,MN,1,num_4,32,num_2,0.966482765507,,,2017_Jun_20_1609,60.0156112204,FEMA4ImagesEEG,001,100759,
AFNE01.JPG,AFNE01.JPG,AFNE01.JPG,AFNE01.JPG,AFNE01.JPG,AFNE01.JPG,,,,,,,,,,,,,,,,,,,,,2,5,25,2,,,AMSA17.jpg,AMNE14.jpg,AMSA18.jpg,AMNE11.jpg,AMSA17.jpg,MS,2,num_8,32,num_6,0.966595345177,,,2017_Jun_20_1609,60.0156112204,FEMA4ImagesEEG,001,100759,
AFNE01.JPG,AFNE01.JPG,AFNE01.JPG,AFNE01.JPG,AFNE01.JPG,AFNE01.JPG,,,,,,,,,,,,,,,,,,,,,2,6,26,1,,,AMNE05.jpg,AMNE09.jpg,AMSA16.jpg,AMSA11.jpg,AMSA16.jpg,MS,2,num_2,32,num_4,0.733486667974,,,2017_Jun_20_1609,60.0156112204,FEMA4ImagesEEG,001,100759,
AFNE01.JPG,AFNE01.JPG,AFNE01.JPG,AFNE01.JPG,AFNE01.JPG,AFNE01.JPG,,,,,,,,,,,,,,,,,,,,,2,7,27,3,,,AMSA15.jpg,AMNE14.jpg,AMSA08.jpg,AMNE09.jpg,AMSA15.jpg,MS,2,num_8,48,None,,,,2017_Jun_20_1609,60.0156112204,FEMA4ImagesEEG,001,100759,
AFNE01.JPG,AFNE01.JPG,AFNE01.JPG,AFNE01.JPG,AFNE01.JPG,AFNE01.JPG,,,,,,,,,,,,,,,,,,,,,2,8,28,5,,,AMSA15.jpg,AMNE13.jpg,AMSA10.jpg,AMNE20.jpg,AMNE13.jpg,MN,1,num_6,16,num_6,0.899976553861,,,2017_Jun_20_1609,60.0156112204,FEMA4ImagesEEG,001,100759,
AFNE01.JPG,AFNE01.JPG,AFNE01.JPG,AFNE01.JPG,AFNE01.JPG,AFNE01.JPG,,,,,,,,,,,,,,,,,,,,,2,9,29,0,,,AMNE19.jpg,AMSA13.jpg,AMSA02.jpg,AMNE08.jpg,AMNE08.jpg,MN,1,num_4,32,num_8,4.38315459085,,,2017_Jun_20_1609,60.0156112204,FEMA4ImagesEEG,001,100759,
AFNE01.JPG,AFNE01.JPG,AFNE01.JPG,AFNE01.JPG,AFNE01.JPG,AFNE01.JPG,,,,,,,,,,,,,,,,,,,,,3,0,30,3,,,AMSA03.jpg,AMSA15.jpg,AMNE08.jpg,AMNE07.jpg,AMNE08.jpg,MN,1,num_2,16,num_2,3.20002572332,,,2017_Jun_20_1609,60.0156112204,FEMA4ImagesEEG,001,100759,
AFNE01.JPG,AFNE01.JPG,AFNE01.JPG,AFNE01.JPG,AFNE01.JPG,AFNE01.JPG,,,,,,,,,,,,,,,,,,,,,3,1,31,4,,,AMSA14.jpg,AMSA09.jpg,AMNE14.jpg,AMNE08.jpg,AMNE08.jpg,MN,1,num_4,32,num_2,0.983463975601,,,2017_Jun_20_1609,60.0156112204,FEMA4ImagesEEG,001,100759,
AFNE01.JPG,AFNE01.JPG,AFNE01.JPG,AFNE01.JPG,AFNE01.JPG,AFNE01.JPG,,,,,,,,,,,,,,,,,,,,,3,2,32,9,,,AMSA11.jpg,AMNE09.jpg,AMSA14.jpg,AMNE16.jpg,AMSA11.jpg,MS,2,num_8,32,num_2,4.06653796486,,,2017_Jun_20_1609,60.0156112204,FEMA4ImagesEEG,001,100759,
AFNE01.JPG,AFNE01.JPG,AFNE01.JPG,AFNE01.JPG,AFNE01.JPG,AFNE01.JPG,,,,,,,,,,,,,,,,,,,,,3,3,33,0,,,AMSA01.jpg,AMNE07.jpg,AMNE17.jpg,AMSA15.jpg,AMSA15.jpg,MS,2,num_4,32,num_8,3.83326282422,,,2017_Jun_20_1609,60.0156112204,FEMA4ImagesEEG,001,100759,
AFNE01.JPG,AFNE01.JPG,AFNE01.JPG,AFNE01.JPG,AFNE01.JPG,AFNE01.JPG,,,,,,,,,,,,,,,,,,,,,3,4,34,2,,,AMSA18.jpg,AMSA12.jpg,AMNE10.jpg,AMNE13.jpg,AMNE10.jpg,MN,1,num_2,48,None,,,,2017_Jun_20_1609,60.0156112204,FEMA4ImagesEEG,001,100759,
AFNE01.JPG,AFNE01.JPG,AFNE01.JPG,AFNE01.JPG,AFNE01.JPG,AFNE01.JPG,,,,,,,,,,,,,,,,,,,,,3,5,35,1,,,AMSA03.jpg,AMNE15.jpg,AMNE19.jpg,AMSA02.jpg,AMNE15.jpg,MN,1,num_6,32,num_2,3.93320159498,,,2017_Jun_20_1609,60.0156112204,FEMA4ImagesEEG,001,100759,
AFNE01.JPG,AFNE01.JPG,AFNE01.JPG,AFNE01.JPG,AFNE01.JPG,AFNE01.JPG,,,,,,,,,,,,,,,,,,,,,3,6,36,7,,,AMSA05.jpg,AMNE11.jpg,AMNE17.jpg,AMSA08.jpg,AMNE17.jpg,MN,1,num_2,32,num_8,1.07613030844,,,2017_Jun_20_1609,60.0156112204,FEMA4ImagesEEG,001,100759,
AFNE01.JPG,AFNE01.JPG,AFNE01.JPG,AFNE01.JPG,AFNE01.JPG,AFNE01.JPG,,,,,,,,,,,,,,,,,,,,,3,7,37,6,,,AMSA17.jpg,AMSA11.jpg,AMNE08.jpg,AMNE01.jpg,AMNE08.jpg,MN,1,num_2,16,num_2,1.01676439052,,,2017_Jun_20_1609,60.0156112204,FEMA4ImagesEEG,001,100759,
AFNE01.JPG,AFNE01.JPG,AFNE01.JPG,AFNE01.JPG,AFNE01.JPG,AFNE01.JPG,,,,,,,,,,,,,,,,,,,,,3,8,38,5,,,AMNE11.jpg,AMSA10.jpg,AMNE15.jpg,AMSA17.jpg,AMNE15.jpg,MN,1,num_2,16,num_2,3.89985050331,,,2017_Jun_20_1609,60.0156112204,FEMA4ImagesEEG,001,100759,
AFNE01.JPG,AFNE01.JPG,AFNE01.JPG,AFNE01.JPG,AFNE01.JPG,AFNE01.JPG,,,,,,,,,,,,,,,,,,,,,3,9,39,8,,,AMSA17.jpg,AMSA03.jpg,AMNE13.jpg,AMNE04.jpg,AMNE04.jpg,MN,1,num_4,16,num_4,1.25012741354,,,2017_Jun_20_1609,60.0156112204,FEMA4ImagesEEG,001,100759,
AFNE01.JPG,AFNE01.JPG,AFNE01.JPG,AFNE01.JPG,AFNE01.JPG,AFNE01.JPG,,,,,,,,,,,,,,,,,,,,,4,0,40,9,,,AMNE17.jpg,AMNE13.jpg,AMSA12.jpg,AMSA11.jpg,AMSA11.jpg,MS,2,num_4,32,num_8,3.74958007247,,,2017_Jun_20_1609,60.0156112204,FEMA4ImagesEEG,001,100759,
