IPosition2,IPosition3,IPosition1,IPosition6,IPosition4,IPosition5,TrialsM1.thisRepN,TrialsM1.thisTrialN,TrialsM1.thisN,TrialsM1.thisIndex,TrialsF1.thisRepN,TrialsF1.thisTrialN,TrialsF1.thisN,TrialsF1.thisIndex,TrialsM2.thisRepN,TrialsM2.thisTrialN,TrialsM2.thisN,TrialsM2.thisIndex,TrialsF2.thisRepN,TrialsF2.thisTrialN,TrialsF2.thisN,TrialsF2.thisIndex,TrialsM3.thisRepN,TrialsM3.thisTrialN,TrialsM3.thisN,TrialsM3.thisIndex,TrialsF3.thisRepN,TrialsF3.thisTrialN,TrialsF3.thisN,TrialsF3.thisIndex,InstrKey_resp.keys,InstrKey_resp.rt,Image0 _Position,Image1 _Position,Image2 _Position,Image3 _Position,Center_image,condition,code,correct_answer,accuracy,Key_Resp.keys,Key_Resp.rt,BreakKey_resp.keys,BreakKey_resp.rt,date,frameRate,expName,session,participant,
,,,,,,,,,,,,,,,,,,,,,,,,,,,,,,space,22.832131039,,,,,,,,,,,,,,2017_Jul_20_1520,60.0228132868,MAFE4ImagesEEG,001,100868,
AFSA21.JPG,AFNE22.JPG,AFNE21.JPG,AFSA23.JPG,AFSA22.JPG,AFNE23.JPG,0,0,0,0,,,,,,,,,,,,,,,,,,,,,,,AMSA20.jpg,AMSA16.jpg,AMNE19.jpg,AMNE10.jpg,AMNE19.jpg,MN,1,num_2,32,num_4,2.46666275366,,,2017_Jul_20_1520,60.0228132868,MAFE4ImagesEEG,001,100868,
AFSA21.JPG,AFNE23.JPG,AFNE21.JPG,AFSA25.JPG,AFNE25.JPG,AFSA23.JPG,0,1,1,4,,,,,,,,,,,,,,,,,,,,,,,AMSA09.jpg,AMSA11.jpg,AMNE16.jpg,AMNE19.jpg,AMSA09.jpg,MS,2,num_8,16,num_8,0.750136715476,,,2017_Jul_20_1520,60.0228132868,MAFE4ImagesEEG,001,100868,
AFNE23.JPG,AFNE24.JPG,AFNE22.JPG,AFSA24.JPG,AFSA22.JPG,AFSA23.JPG,0,2,2,8,,,,,,,,,,,,,,,,,,,,,,,AMNE08.jpg,AMSA03.jpg,AMNE15.jpg,AMSA13.jpg,AMSA03.jpg,MS,2,num_6,16,num_6,1.23347025726,,,2017_Jul_20_1520,60.0228132868,MAFE4ImagesEEG,001,100868,
AMNE22.JPG,AMSA24.JPG,AMSA22.JPG,AMNE25.JPG,AMNE24.JPG,AMSA25.JPG,0,3,3,7,,,,,,,,,,,,,,,,,,,,,,,AMNE03.jpg,AMSA08.jpg,AMSA03.jpg,AMNE02.jpg,AMNE03.jpg,MN,1,num_8,32,num_4,1.46669258241,,,2017_Jul_20_1520,60.0228132868,MAFE4ImagesEEG,001,100868,
AMSA25.JPG,AMNE24.JPG,AMSA24.JPG,AMNE26.JPG,AMSA21.JPG,AMNE25.JPG,0,4,4,3,,,,,,,,,,,,,,,,,,,,,,,AMSA17.jpg,AMNE03.jpg,AMSA13.jpg,AMNE16.jpg,AMSA13.jpg,MS,2,num_2,32,num_6,1.36647893745,,,2017_Jul_20_1520,60.0228132868,MAFE4ImagesEEG,001,100868,
AFNE22.JPG,AFSA24.JPG,AFSA22.JPG,AFNE25.JPG,AFNE24.JPG,AFSA25.JPG,0,5,5,6,,,,,,,,,,,,,,,,,,,,,,,AMSA20.jpg,AMSA01.jpg,AMNE09.jpg,AMNE16.jpg,AMSA20.jpg,MS,2,num_8,32,num_6,0.816735513508,,,2017_Jul_20_1520,60.0228132868,MAFE4ImagesEEG,001,100868,
AMSA21.JPG,AMNE22.JPG,AMNE21.JPG,AMSA23.JPG,AMSA22.JPG,AMNE23.JPG,0,6,6,1,,,,,,,,,,,,,,,,,,,,,,,AMSA02.jpg,AMSA09.jpg,AMNE08.jpg,AMNE01.jpg,AMSA02.jpg,MS,2,num_8,32,num_4,1.53342865728,,,2017_Jul_20_1520,60.0228132868,MAFE4ImagesEEG,001,100868,
AFSA25.JPG,AFNE24.JPG,AFSA24.JPG,AFNE21.JPG,AFSA21.JPG,AFNE25.JPG,0,7,7,2,,,,,,,,,,,,,,,,,,,,,,,AMSA19.jpg,AMNE08.jpg,AMSA14.jpg,AMNE11.jpg,AMNE11.jpg,MN,1,num_4,32,num_6,1.61680120107,,,2017_Jul_20_1520,60.0228132868,MAFE4ImagesEEG,001,100868,
AMNE23.JPG,AMNE24.JPG,AMNE22.JPG,AMSA24.JPG,AMSA22.JPG,AMSA23.JPG,0,8,8,9,,,,,,,,,,,,,,,,,,,,,,,AMSA11.jpg,AMNE18.jpg,AMSA10.jpg,AMNE03.jpg,AMNE03.jpg,MN,1,num_4,16,num_4,0.900077266269,,,2017_Jul_20_1520,60.0228132868,MAFE4ImagesEEG,001,100868,
AMSA21.JPG,AMNE23.JPG,AMNE21.JPG,AMSA25.JPG,AMNE25.JPG,AMSA23.JPG,0,9,9,5,,,,,,,,,,,,,,,,,,,,,,,AMNE08.jpg,AMNE16.jpg,AMSA12.jpg,AMSA10.jpg,AMSA12.jpg,MS,2,num_2,32,num_8,1.20010590839,,,2017_Jul_20_1520,60.0228132868,MAFE4ImagesEEG,001,100868,
AMNE23.JPG,AMNE24.JPG,AMNE22.JPG,AMSA24.JPG,AMSA22.JPG,AMSA23.JPG,,,,,0,0,0,9,,,,,,,,,,,,,,,,,,,AFNE16.jpg,AFSA05.jpg,AFNE05.jpg,AFSA06.jpg,AFSA05.jpg,FS,4,num_6,16,num_6,0.900128905429,,,2017_Jul_20_1520,60.0228132868,MAFE4ImagesEEG,001,100868,
AMNE22.JPG,AMSA24.JPG,AMSA22.JPG,AMNE25.JPG,AMNE24.JPG,AMSA25.JPG,,,,,0,1,1,7,,,,,,,,,,,,,,,,,,,AFSA05.jpg,AFSA19.jpg,AFNE06.jpg,AFNE15.jpg,AFSA19.jpg,FS,4,num_6,32,num_4,1.1501066942,,,2017_Jul_20_1520,60.0228132868,MAFE4ImagesEEG,001,100868,
AFSA21.JPG,AFNE22.JPG,AFNE21.JPG,AFSA23.JPG,AFSA22.JPG,AFNE23.JPG,,,,,0,2,2,0,,,,,,,,,,,,,,,,,,,AFSA20.jpg,AFNE16.jpg,AFSA07.jpg,AFNE17.jpg,AFNE16.jpg,FN,3,num_6,16,num_6,1.1667110892,,,2017_Jul_20_1520,60.0228132868,MAFE4ImagesEEG,001,100868,
AMSA25.JPG,AMNE24.JPG,AMSA24.JPG,AMNE26.JPG,AMSA21.JPG,AMNE25.JPG,,,,,0,3,3,3,,,,,,,,,,,,,,,,,,,AFNE15.jpg,AFSA16.jpg,AFNE10.jpg,AFSA04.jpg,AFNE10.jpg,FN,3,num_2,16,num_2,3.34996338753,,,2017_Jul_20_1520,60.0228132868,MAFE4ImagesEEG,001,100868,
AFSA21.JPG,AFNE23.JPG,AFNE21.JPG,AFSA25.JPG,AFNE25.JPG,AFSA23.JPG,,,,,0,4,4,4,,,,,,,,,,,,,,,,,,,AFSA10.jpg,AFNE15.jpg,AFNE03.jpg,AFSA08.jpg,AFSA08.jpg,FS,4,num_4,32,num_6,1.29977910628,,,2017_Jul_20_1520,60.0228132868,MAFE4ImagesEEG,001,100868,
AMSA21.JPG,AMNE23.JPG,AMNE21.JPG,AMSA25.JPG,AMNE25.JPG,AMSA23.JPG,,,,,0,5,5,5,,,,,,,,,,,,,,,,,,,AFNE14.jpg,AFSA05.jpg,AFNE09.jpg,AFSA01.jpg,AFSA01.jpg,FS,4,num_4,16,num_4,1.08340461779,,,2017_Jul_20_1520,60.0228132868,MAFE4ImagesEEG,001,100868,
AFSA25.JPG,AFNE24.JPG,AFSA24.JPG,AFNE21.JPG,AFSA21.JPG,AFNE25.JPG,,,,,0,6,6,2,,,,,,,,,,,,,,,,,,,AFNE16.jpg,AFSA15.jpg,AFSA13.jpg,AFNE07.jpg,AFNE07.jpg,FN,3,num_4,32,num_6,2.81697831379,,,2017_Jul_20_1520,60.0228132868,MAFE4ImagesEEG,001,100868,
AFNE22.JPG,AFSA24.JPG,AFSA22.JPG,AFNE25.JPG,AFNE24.JPG,AFSA25.JPG,,,,,0,7,7,6,,,,,,,,,,,,,,,,,,,AFNE04.jpg,AFNE05.jpg,AFSA04.jpg,AFSA08.jpg,AFNE05.jpg,FN,3,num_6,16,num_6,1.50008291134,,,2017_Jul_20_1520,60.0228132868,MAFE4ImagesEEG,001,100868,
AMSA21.JPG,AMNE22.JPG,AMNE21.JPG,AMSA23.JPG,AMSA22.JPG,AMNE23.JPG,,,,,0,8,8,1,,,,,,,,,,,,,,,,,,,AFNE20.jpg,AFNE11.jpg,AFSA07.jpg,AFSA09.jpg,AFNE20.jpg,FN,3,num_8,32,num_6,0.983490223356,,,2017_Jul_20_1520,60.0228132868,MAFE4ImagesEEG,001,100868,
AFNE23.JPG,AFNE24.JPG,AFNE22.JPG,AFSA24.JPG,AFSA22.JPG,AFSA23.JPG,,,,,0,9,9,8,,,,,,,,,,,,,,,,,,,AFSA10.jpg,AFNE11.jpg,AFNE07.jpg,AFSA13.jpg,AFNE11.jpg,FN,3,num_6,32,num_8,0.950118497421,,,2017_Jul_20_1520,60.0228132868,MAFE4ImagesEEG,001,100868,
AMSA25.JPG,AMNE24.JPG,AMSA24.JPG,AMNE26.JPG,AMSA21.JPG,AMNE25.JPG,,,,,,,,,0,0,0,3,,,,,,,,,,,,,,,AMNE10.jpg,AMSA06.jpg,AMNE13.jpg,AMSA07.jpg,AMSA07.jpg,MS,2,num_4,32,num_6,0.866770329885,,,2017_Jul_20_1520,60.0228132868,MAFE4ImagesEEG,001,100868,
AMSA21.JPG,AMNE22.JPG,AMNE21.JPG,AMSA23.JPG,AMSA22.JPG,AMNE23.JPG,,,,,,,,,0,1,1,1,,,,,,,,,,,,,,,AMSA17.jpg,AMSA15.jpg,AMNE08.jpg,AMNE13.jpg,AMNE13.jpg,MN,1,num_4,32,num_8,0.716800591676,,,2017_Jul_20_1520,60.0228132868,MAFE4ImagesEEG,001,100868,
AMNE22.JPG,AMSA24.JPG,AMSA22.JPG,AMNE25.JPG,AMNE24.JPG,AMSA25.JPG,,,,,,,,,0,2,2,7,,,,,,,,,,,,,,,AMNE06.jpg,AMNE20.jpg,AMSA15.jpg,AMSA08.jpg,AMSA08.jpg,MS,2,num_4,16,num_4,0.866754613584,,,2017_Jul_20_1520,60.0228132868,MAFE4ImagesEEG,001,100868,
AFNE23.JPG,AFNE24.JPG,AFNE22.JPG,AFSA24.JPG,AFSA22.JPG,AFSA23.JPG,,,,,,,,,0,3,3,8,,,,,,,,,,,,,,,AMSA20.jpg,AMNE03.jpg,AMSA09.jpg,AMNE12.jpg,AMSA20.jpg,MS,2,num_8,32,num_2,0.800107704534,,,2017_Jul_20_1520,60.0228132868,MAFE4ImagesEEG,001,100868,
AFSA21.JPG,AFNE22.JPG,AFNE21.JPG,AFSA23.JPG,AFSA22.JPG,AFNE23.JPG,,,,,,,,,0,4,4,0,,,,,,,,,,,,,,,AMNE14.jpg,AMNE13.jpg,AMSA04.jpg,AMSA12.jpg,AMSA04.jpg,MS,2,num_2,32,num_6,0.733430966618,,,2017_Jul_20_1520,60.0228132868,MAFE4ImagesEEG,001,100868,
AFNE22.JPG,AFSA24.JPG,AFSA22.JPG,AFNE25.JPG,AFNE24.JPG,AFSA25.JPG,,,,,,,,,0,5,5,6,,,,,,,,,,,,,,,AMNE16.jpg,AMNE08.jpg,AMSA10.jpg,AMSA01.jpg,AMNE08.jpg,MN,1,num_6,16,num_6,1.25008587819,,,2017_Jul_20_1520,60.0228132868,MAFE4ImagesEEG,001,100868,
AFSA21.JPG,AFNE23.JPG,AFNE21.JPG,AFSA25.JPG,AFNE25.JPG,AFSA23.JPG,,,,,,,,,0,6,6,4,,,,,,,,,,,,,,,AMSA06.jpg,AMSA19.jpg,AMNE09.jpg,AMNE02.jpg,AMNE09.jpg,MN,1,num_2,32,num_8,1.00013214489,,,2017_Jul_20_1520,60.0228132868,MAFE4ImagesEEG,001,100868,
AFSA25.JPG,AFNE24.JPG,AFSA24.JPG,AFNE21.JPG,AFSA21.JPG,AFNE25.JPG,,,,,,,,,0,7,7,2,,,,,,,,,,,,,,,AMSA18.jpg,AMNE09.jpg,AMSA04.jpg,AMNE16.jpg,AMSA18.jpg,MS,2,num_8,16,num_8,1.03344934504,,,2017_Jul_20_1520,60.0228132868,MAFE4ImagesEEG,001,100868,
AMNE23.JPG,AMNE24.JPG,AMNE22.JPG,AMSA24.JPG,AMSA22.JPG,AMSA23.JPG,,,,,,,,,0,8,8,9,,,,,,,,,,,,,,,AMSA04.jpg,AMNE17.jpg,AMNE12.jpg,AMSA12.jpg,AMNE17.jpg,MN,1,num_6,32,num_2,1.03346377838,,,2017_Jul_20_1520,60.0228132868,MAFE4ImagesEEG,001,100868,
AMSA21.JPG,AMNE23.JPG,AMNE21.JPG,AMSA25.JPG,AMNE25.JPG,AMSA23.JPG,,,,,,,,,0,9,9,5,,,,,,,,,,,,,,,AMNE05.jpg,AMSA11.jpg,AMSA19.jpg,AMNE03.jpg,AMNE03.jpg,MN,1,num_4,16,num_4,1.28339570126,,,2017_Jul_20_1520,60.0228132868,MAFE4ImagesEEG,001,100868,
AFSA21.JPG,AFNE22.JPG,AFNE21.JPG,AFSA23.JPG,AFSA22.JPG,AFNE23.JPG,,,,,,,,,,,,,0,0,0,0,,,,,,,,,,,AFSA13.jpg,AFNE07.jpg,AFSA08.jpg,AFNE06.jpg,AFNE06.jpg,FN,3,num_4,32,num_2,0.983460715273,,,2017_Jul_20_1520,60.0228132868,MAFE4ImagesEEG,001,100868,
AFNE23.JPG,AFNE24.JPG,AFNE22.JPG,AFSA24.JPG,AFSA22.JPG,AFSA23.JPG,,,,,,,,,,,,,0,1,1,8,,,,,,,,,,,AFNE05.jpg,AFSA17.jpg,AFSA03.jpg,AFNE08.jpg,AFSA17.jpg,FS,4,num_6,16,num_6,1.23334965901,,,2017_Jul_20_1520,60.0228132868,MAFE4ImagesEEG,001,100868,
AMSA21.JPG,AMNE23.JPG,AMNE21.JPG,AMSA25.JPG,AMNE25.JPG,AMSA23.JPG,,,,,,,,,,,,,0,2,2,5,,,,,,,,,,,AFNE16.jpg,AFNE12.jpg,AFSA12.jpg,AFSA05.jpg,AFNE12.jpg,FN,3,num_6,16,num_6,1.03341791249,,,2017_Jul_20_1520,60.0228132868,MAFE4ImagesEEG,001,100868,
AFSA25.JPG,AFNE24.JPG,AFSA24.JPG,AFNE21.JPG,AFSA21.JPG,AFNE25.JPG,,,,,,,,,,,,,0,3,3,2,,,,,,,,,,,AFNE15.jpg,AFNE03.jpg,AFSA19.jpg,AFSA13.jpg,AFNE15.jpg,FN,3,num_8,32,num_6,1.00010103313,,,2017_Jul_20_1520,60.0228132868,MAFE4ImagesEEG,001,100868,
AMSA25.JPG,AMNE24.JPG,AMSA24.JPG,AMNE26.JPG,AMSA21.JPG,AMNE25.JPG,,,,,,,,,,,,,0,4,4,3,,,,,,,,,,,AFSA17.jpg,AFNE13.jpg,AFSA14.jpg,AFNE14.jpg,AFSA14.jpg,FS,4,num_2,32,num_4,1.63343959453,,,2017_Jul_20_1520,60.0228132868,MAFE4ImagesEEG,001,100868,
AFSA21.JPG,AFNE23.JPG,AFNE21.JPG,AFSA25.JPG,AFNE25.JPG,AFSA23.JPG,,,,,,,,,,,,,0,5,5,4,,,,,,,,,,,AFSA12.jpg,AFNE15.jpg,AFNE16.jpg,AFSA08.jpg,AFSA12.jpg,FS,4,num_8,32,num_6,1.10008791485,,,2017_Jul_20_1520,60.0228132868,MAFE4ImagesEEG,001,100868,
AMSA21.JPG,AMNE22.JPG,AMNE21.JPG,AMSA23.JPG,AMSA22.JPG,AMNE23.JPG,,,,,,,,,,,,,0,6,6,1,,,,,,,,,,,AFNE01.jpg,AFSA01.jpg,AFNE02.jpg,AFSA18.jpg,AFSA01.jpg,FS,4,num_6,16,num_6,0.966790568607,,,2017_Jul_20_1520,60.0228132868,MAFE4ImagesEEG,001,100868,
AFNE22.JPG,AFSA24.JPG,AFSA22.JPG,AFNE25.JPG,AFNE24.JPG,AFSA25.JPG,,,,,,,,,,,,,0,7,7,6,,,,,,,,,,,AFNE10.jpg,AFNE02.jpg,AFSA14.jpg,AFSA06.jpg,AFSA06.jpg,FS,4,num_4,16,num_4,1.30784668238,,,2017_Jul_20_1520,60.0228132868,MAFE4ImagesEEG,001,100868,
AMNE23.JPG,AMNE24.JPG,AMNE22.JPG,AMSA24.JPG,AMSA22.JPG,AMSA23.JPG,,,,,,,,,,,,,0,8,8,9,,,,,,,,,,,AFNE10.jpg,AFSA10.jpg,AFSA04.jpg,AFNE19.jpg,AFSA04.jpg,FS,4,num_2,16,num_2,1.0832792084,,,2017_Jul_20_1520,60.0228132868,MAFE4ImagesEEG,001,100868,
AMNE22.JPG,AMSA24.JPG,AMSA22.JPG,AMNE25.JPG,AMNE24.JPG,AMSA25.JPG,,,,,,,,,,,,,0,9,9,7,,,,,,,,,,,AFSA01.jpg,AFNE16.jpg,AFNE08.jpg,AFSA19.jpg,AFNE08.jpg,FN,3,num_2,32,num_6,1.10011613998,,,2017_Jul_20_1520,60.0228132868,MAFE4ImagesEEG,001,100868,
AMNE22.JPG,AMSA24.JPG,AMSA22.JPG,AMNE25.JPG,AMNE24.JPG,AMSA25.JPG,,,,,,,,,,,,,,,,,0,0,0,7,,,,,,,AMNE10.jpg,AMSA16.jpg,AMSA12.jpg,AMNE01.jpg,AMSA12.jpg,MS,2,num_2,32,num_6,0.849993055977,,,2017_Jul_20_1520,60.0228132868,MAFE4ImagesEEG,001,100868,
AFSA25.JPG,AFNE24.JPG,AFSA24.JPG,AFNE21.JPG,AFSA21.JPG,AFNE25.JPG,,,,,,,,,,,,,,,,,0,1,1,2,,,,,,,AMSA09.jpg,AMSA06.jpg,AMNE05.jpg,AMNE16.jpg,AMSA06.jpg,MS,2,num_6,16,num_6,0.933458614454,,,2017_Jul_20_1520,60.0228132868,MAFE4ImagesEEG,001,100868,
AMSA21.JPG,AMNE22.JPG,AMNE21.JPG,AMSA23.JPG,AMSA22.JPG,AMNE23.JPG,,,,,,,,,,,,,,,,,0,2,2,1,,,,,,,AMSA06.jpg,AMNE15.jpg,AMNE06.jpg,AMSA18.jpg,AMSA06.jpg,MS,2,num_8,32,num_4,0.866961490945,,,2017_Jul_20_1520,60.0228132868,MAFE4ImagesEEG,001,100868,
AMSA25.JPG,AMNE24.JPG,AMSA24.JPG,AMNE26.JPG,AMSA21.JPG,AMNE25.JPG,,,,,,,,,,,,,,,,,0,3,3,3,,,,,,,AMNE16.jpg,AMSA04.jpg,AMNE10.jpg,AMSA06.jpg,AMSA06.jpg,MS,2,num_4,32,num_6,1.56677119585,,,2017_Jul_20_1520,60.0228132868,MAFE4ImagesEEG,001,100868,
AFSA21.JPG,AFNE22.JPG,AFNE21.JPG,AFSA23.JPG,AFSA22.JPG,AFNE23.JPG,,,,,,,,,,,,,,,,,0,4,4,0,,,,,,,AMSA12.jpg,AMNE09.jpg,AMNE18.jpg,AMSA15.jpg,AMSA15.jpg,MS,2,num_4,32,num_8,1.60012720549,,,2017_Jul_20_1520,60.0228132868,MAFE4ImagesEEG,001,100868,
AMSA21.JPG,AMNE23.JPG,AMNE21.JPG,AMSA25.JPG,AMNE25.JPG,AMSA23.JPG,,,,,,,,,,,,,,,,,0,5,5,5,,,,,,,AMNE12.jpg,AMNE03.jpg,AMSA07.jpg,AMSA02.jpg,AMSA02.jpg,MS,2,num_4,32,num_6,1.36674803845,,,2017_Jul_20_1520,60.0228132868,MAFE4ImagesEEG,001,100868,
AMNE23.JPG,AMNE24.JPG,AMNE22.JPG,AMSA24.JPG,AMSA22.JPG,AMSA23.JPG,,,,,,,,,,,,,,,,,0,6,6,9,,,,,,,AMSA17.jpg,AMNE01.jpg,AMSA11.jpg,AMNE12.jpg,AMSA17.jpg,MS,2,num_8,32,num_2,2.39972814068,,,2017_Jul_20_1520,60.0228132868,MAFE4ImagesEEG,001,100868,
AFNE23.JPG,AFNE24.JPG,AFNE22.JPG,AFSA24.JPG,AFSA22.JPG,AFSA23.JPG,,,,,,,,,,,,,,,,,0,7,7,8,,,,,,,AMNE09.jpg,AMNE01.jpg,AMSA08.jpg,AMSA04.jpg,AMSA08.jpg,MS,2,num_2,32,num_8,1.11676511785,,,2017_Jul_20_1520,60.0228132868,MAFE4ImagesEEG,001,100868,
AFNE22.JPG,AFSA24.JPG,AFSA22.JPG,AFNE25.JPG,AFNE24.JPG,AFSA25.JPG,,,,,,,,,,,,,,,,,0,8,8,6,,,,,,,AMNE15.jpg,AMSA06.jpg,AMSA08.jpg,AMNE01.jpg,AMNE01.jpg,MN,1,num_4,32,num_6,0.900115755096,,,2017_Jul_20_1520,60.0228132868,MAFE4ImagesEEG,001,100868,
AFSA21.JPG,AFNE23.JPG,AFNE21.JPG,AFSA25.JPG,AFNE25.JPG,AFSA23.JPG,,,,,,,,,,,,,,,,,0,9,9,4,,,,,,,AMNE07.jpg,AMNE12.jpg,AMSA18.jpg,AMSA13.jpg,AMSA18.jpg,MS,2,num_2,32,num_4,1.73328278464,,,2017_Jul_20_1520,60.0228132868,MAFE4ImagesEEG,001,100868,
AMNE22.JPG,AMSA24.JPG,AMSA22.JPG,AMNE25.JPG,AMNE24.JPG,AMSA25.JPG,,,,,,,,,,,,,,,,,,,,,0,0,0,7,,,AFNE04.jpg,AFSA02.jpg,AFSA07.jpg,AFNE07.jpg,AFSA02.jpg,FS,4,num_6,16,num_6,1.18340015959,,,2017_Jul_20_1520,60.0228132868,MAFE4ImagesEEG,001,100868,
AFNE22.JPG,AFSA24.JPG,AFSA22.JPG,AFNE25.JPG,AFNE24.JPG,AFSA25.JPG,,,,,,,,,,,,,,,,,,,,,0,1,1,6,,,AFSA12.jpg,AFNE15.jpg,AFNE07.jpg,AFSA09.jpg,AFSA09.jpg,FS,4,num_4,32,num_8,0.933456369268,,,2017_Jul_20_1520,60.0228132868,MAFE4ImagesEEG,001,100868,
AFSA21.JPG,AFNE22.JPG,AFNE21.JPG,AFSA23.JPG,AFSA22.JPG,AFNE23.JPG,,,,,,,,,,,,,,,,,,,,,0,2,2,0,,,AFNE19.jpg,AFSA10.jpg,AFNE17.jpg,AFSA20.jpg,AFNE19.jpg,FN,3,num_8,32,num_2,1.38342267554,,,2017_Jul_20_1520,60.0228132868,MAFE4ImagesEEG,001,100868,
AMSA21.JPG,AMNE23.JPG,AMNE21.JPG,AMSA25.JPG,AMNE25.JPG,AMSA23.JPG,,,,,,,,,,,,,,,,,,,,,0,3,3,5,,,AFSA12.jpg,AFNE12.jpg,AFNE08.jpg,AFSA14.jpg,AFNE08.jpg,FN,3,num_2,32,num_6,1.1167468357,,,2017_Jul_20_1520,60.0228132868,MAFE4ImagesEEG,001,100868,
AMSA21.JPG,AMNE22.JPG,AMNE21.JPG,AMSA23.JPG,AMSA22.JPG,AMNE23.JPG,,,,,,,,,,,,,,,,,,,,,0,4,4,1,,,AFSA15.jpg,AFSA16.jpg,AFNE04.jpg,AFNE09.jpg,AFSA15.jpg,FS,4,num_8,32,num_6,1.13344039634,,,2017_Jul_20_1520,60.0228132868,MAFE4ImagesEEG,001,100868,
AFSA25.JPG,AFNE24.JPG,AFSA24.JPG,AFNE21.JPG,AFSA21.JPG,AFNE25.JPG,,,,,,,,,,,,,,,,,,,,,0,5,5,2,,,AFSA04.jpg,AFSA18.jpg,AFNE20.jpg,AFNE14.jpg,AFNE20.jpg,FN,3,num_2,16,num_2,1.43341611634,,,2017_Jul_20_1520,60.0228132868,MAFE4ImagesEEG,001,100868,
AMNE23.JPG,AMNE24.JPG,AMNE22.JPG,AMSA24.JPG,AMSA22.JPG,AMSA23.JPG,,,,,,,,,,,,,,,,,,,,,0,6,6,9,,,AFSA08.jpg,AFSA17.jpg,AFNE08.jpg,AFNE11.jpg,AFNE11.jpg,FN,3,num_4,32,num_2,2.11668140464,,,2017_Jul_20_1520,60.0228132868,MAFE4ImagesEEG,001,100868,
AFNE23.JPG,AFNE24.JPG,AFNE22.JPG,AFSA24.JPG,AFSA22.JPG,AFSA23.JPG,,,,,,,,,,,,,,,,,,,,,0,7,7,8,,,AFNE20.jpg,AFNE17.jpg,AFSA11.jpg,AFSA01.jpg,AFSA11.jpg,FS,4,num_2,16,num_2,1.10013795033,,,2017_Jul_20_1520,60.0228132868,MAFE4ImagesEEG,001,100868,
AFSA21.JPG,AFNE23.JPG,AFNE21.JPG,AFSA25.JPG,AFNE25.JPG,AFSA23.JPG,,,,,,,,,,,,,,,,,,,,,0,8,8,4,,,AFNE15.jpg,AFSA04.jpg,AFSA14.jpg,AFNE11.jpg,AFNE11.jpg,FN,3,num_4,32,num_2,1.26672523381,,,2017_Jul_20_1520,60.0228132868,MAFE4ImagesEEG,001,100868,
AMSA25.JPG,AMNE24.JPG,AMSA24.JPG,AMNE26.JPG,AMSA21.JPG,AMNE25.JPG,,,,,,,,,,,,,,,,,,,,,0,9,9,3,,,AFNE07.jpg,AFSA01.jpg,AFNE14.jpg,AFSA02.jpg,AFNE07.jpg,FN,3,num_8,16,num_8,1.10016136436,,,2017_Jul_20_1520,60.0228132868,MAFE4ImagesEEG,001,100868,
,,,,,,,,,,,,,,,,,,,,,,,,,,,,,,,,,,,,,,,,,,,space,9.53280032746,2017_Jul_20_1520,60.0228132868,MAFE4ImagesEEG,001,100868,
AFNE01.JPG,AFNE01.JPG,AFNE01.JPG,AFNE01.JPG,AFNE01.JPG,AFNE01.JPG,0,0,0,6,,,,,,,,,,,,,,,,,,,,,,,AMSA06.jpg,AMSA11.jpg,AMNE19.jpg,AMNE03.jpg,AMSA06.jpg,MS,2,num_8,16,num_8,1.86670650257,,,2017_Jul_20_1520,60.0228132868,MAFE4ImagesEEG,001,100868,
AFNE01.JPG,AFNE01.JPG,AFNE01.JPG,AFNE01.JPG,AFNE01.JPG,AFNE01.JPG,0,1,1,8,,,,,,,,,,,,,,,,,,,,,,,AMSA20.jpg,AMNE10.jpg,AMNE06.jpg,AMSA03.jpg,AMNE06.jpg,MN,1,num_2,32,num_4,1.26675121376,,,2017_Jul_20_1520,60.0228132868,MAFE4ImagesEEG,001,100868,
AFNE01.JPG,AFNE01.JPG,AFNE01.JPG,AFNE01.JPG,AFNE01.JPG,AFNE01.JPG,0,2,2,0,,,,,,,,,,,,,,,,,,,,,,,AMNE14.jpg,AMSA04.jpg,AMSA07.jpg,AMNE10.jpg,AMNE14.jpg,MN,1,num_8,32,num_6,1.25012564997,,,2017_Jul_20_1520,60.0228132868,MAFE4ImagesEEG,001,100868,
AFNE01.JPG,AFNE01.JPG,AFNE01.JPG,AFNE01.JPG,AFNE01.JPG,AFNE01.JPG,0,3,3,7,,,,,,,,,,,,,,,,,,,,,,,AMNE14.jpg,AMNE04.jpg,AMSA20.jpg,AMSA07.jpg,AMSA20.jpg,MS,2,num_2,16,num_2,1.08343861625,,,2017_Jul_20_1520,60.0228132868,MAFE4ImagesEEG,001,100868,
AFNE01.JPG,AFNE01.JPG,AFNE01.JPG,AFNE01.JPG,AFNE01.JPG,AFNE01.JPG,0,4,4,2,,,,,,,,,,,,,,,,,,,,,,,AMNE02.jpg,AMNE09.jpg,AMSA18.jpg,AMSA04.jpg,AMNE09.jpg,MN,1,num_6,32,num_8,1.15013556078,,,2017_Jul_20_1520,60.0228132868,MAFE4ImagesEEG,001,100868,
AFNE01.JPG,AFNE01.JPG,AFNE01.JPG,AFNE01.JPG,AFNE01.JPG,AFNE01.JPG,0,5,5,5,,,,,,,,,,,,,,,,,,,,,,,AMSA11.jpg,AMNE03.jpg,AMSA02.jpg,AMNE16.jpg,AMSA11.jpg,MS,2,num_8,32,num_2,1.20011777576,,,2017_Jul_20_1520,60.0228132868,MAFE4ImagesEEG,001,100868,
AFNE01.JPG,AFNE01.JPG,AFNE01.JPG,AFNE01.JPG,AFNE01.JPG,AFNE01.JPG,0,6,6,3,,,,,,,,,,,,,,,,,,,,,,,AMNE09.jpg,AMSA19.jpg,AMNE11.jpg,AMSA01.jpg,AMNE09.jpg,MN,1,num_8,32,num_6,1.21680941206,,,2017_Jul_20_1520,60.0228132868,MAFE4ImagesEEG,001,100868,
AFNE01.JPG,AFNE01.JPG,AFNE01.JPG,AFNE01.JPG,AFNE01.JPG,AFNE01.JPG,0,7,7,4,,,,,,,,,,,,,,,,,,,,,,,AMNE15.jpg,AMNE07.jpg,AMSA05.jpg,AMSA02.jpg,AMSA05.jpg,MS,2,num_2,16,num_2,0.933499348466,,,2017_Jul_20_1520,60.0228132868,MAFE4ImagesEEG,001,100868,
AFNE01.JPG,AFNE01.JPG,AFNE01.JPG,AFNE01.JPG,AFNE01.JPG,AFNE01.JPG,0,8,8,9,,,,,,,,,,,,,,,,,,,,,,,AMNE14.jpg,AMSA18.jpg,AMSA06.jpg,AMNE10.jpg,AMSA18.jpg,MS,2,num_6,32,num_2,1.23343818326,,,2017_Jul_20_1520,60.0228132868,MAFE4ImagesEEG,001,100868,
AFNE01.JPG,AFNE01.JPG,AFNE01.JPG,AFNE01.JPG,AFNE01.JPG,AFNE01.JPG,0,9,9,1,,,,,,,,,,,,,,,,,,,,,,,AMSA18.jpg,AMNE03.jpg,AMNE01.jpg,AMSA04.jpg,AMNE01.jpg,MN,1,num_2,16,num_2,0.633488988504,,,2017_Jul_20_1520,60.0228132868,MAFE4ImagesEEG,001,100868,
AFNE01.JPG,AFNE01.JPG,AFNE01.JPG,AFNE01.JPG,AFNE01.JPG,AFNE01.JPG,1,0,10,3,,,,,,,,,,,,,,,,,,,,,,,AMNE16.jpg,AMNE09.jpg,AMSA08.jpg,AMSA19.jpg,AMSA19.jpg,MS,2,num_4,32,num_2,0.933461180306,,,2017_Jul_20_1520,60.0228132868,MAFE4ImagesEEG,001,100868,
AFNE01.JPG,AFNE01.JPG,AFNE01.JPG,AFNE01.JPG,AFNE01.JPG,AFNE01.JPG,1,1,11,9,,,,,,,,,,,,,,,,,,,,,,,AMSA04.jpg,AMNE03.jpg,AMSA20.jpg,AMNE16.jpg,AMSA20.jpg,MS,2,num_2,32,num_8,1.00010359904,,,2017_Jul_20_1520,60.0228132868,MAFE4ImagesEEG,001,100868,
AFNE01.JPG,AFNE01.JPG,AFNE01.JPG,AFNE01.JPG,AFNE01.JPG,AFNE01.JPG,1,2,12,1,,,,,,,,,,,,,,,,,,,,,,,AMSA11.jpg,AMNE02.jpg,AMNE01.jpg,AMSA09.jpg,AMSA11.jpg,MS,2,num_8,16,num_8,0.800148438546,,,2017_Jul_20_1520,60.0228132868,MAFE4ImagesEEG,001,100868,
AFNE01.JPG,AFNE01.JPG,AFNE01.JPG,AFNE01.JPG,AFNE01.JPG,AFNE01.JPG,1,3,13,8,,,,,,,,,,,,,,,,,,,,,,,AMNE18.jpg,AMSA14.jpg,AMNE04.jpg,AMSA15.jpg,AMNE18.jpg,MN,1,num_8,32,num_6,1.51674471877,,,2017_Jul_20_1520,60.0228132868,MAFE4ImagesEEG,001,100868,
AFNE01.JPG,AFNE01.JPG,AFNE01.JPG,AFNE01.JPG,AFNE01.JPG,AFNE01.JPG,1,4,14,4,,,,,,,,,,,,,,,,,,,,,,,AMNE02.jpg,AMNE19.jpg,AMSA20.jpg,AMSA11.jpg,AMNE19.jpg,MN,1,num_6,16,num_6,0.966778059723,,,2017_Jul_20_1520,60.0228132868,MAFE4ImagesEEG,001,100868,
AFNE01.JPG,AFNE01.JPG,AFNE01.JPG,AFNE01.JPG,AFNE01.JPG,AFNE01.JPG,1,5,15,0,,,,,,,,,,,,,,,,,,,,,,,AMNE16.jpg,AMSA11.jpg,AMNE03.jpg,AMSA03.jpg,AMNE16.jpg,MN,1,num_8,16,num_8,0.65017132333,,,2017_Jul_20_1520,60.0228132868,MAFE4ImagesEEG,001,100868,
AFNE01.JPG,AFNE01.JPG,AFNE01.JPG,AFNE01.JPG,AFNE01.JPG,AFNE01.JPG,1,6,16,2,,,,,,,,,,,,,,,,,,,,,,,AMSA18.jpg,AMSA16.jpg,AMNE12.jpg,AMNE06.jpg,AMNE06.jpg,MN,1,num_4,32,num_6,0.616807936633,,,2017_Jul_20_1520,60.0228132868,MAFE4ImagesEEG,001,100868,
AFNE01.JPG,AFNE01.JPG,AFNE01.JPG,AFNE01.JPG,AFNE01.JPG,AFNE01.JPG,1,7,17,5,,,,,,,,,,,,,,,,,,,,,,,AMNE02.jpg,AMSA05.jpg,AMNE11.jpg,AMSA06.jpg,AMNE02.jpg,MN,1,num_8,32,num_2,0.899905349594,,,2017_Jul_20_1520,60.0228132868,MAFE4ImagesEEG,001,100868,
AFNE01.JPG,AFNE01.JPG,AFNE01.JPG,AFNE01.JPG,AFNE01.JPG,AFNE01.JPG,1,8,18,6,,,,,,,,,,,,,,,,,,,,,,,AMNE19.jpg,AMSA05.jpg,AMSA20.jpg,AMNE20.jpg,AMSA20.jpg,MS,2,num_2,32,num_6,0.983451413806,,,2017_Jul_20_1520,60.0228132868,MAFE4ImagesEEG,001,100868,
AFNE01.JPG,AFNE01.JPG,AFNE01.JPG,AFNE01.JPG,AFNE01.JPG,AFNE01.JPG,1,9,19,7,,,,,,,,,,,,,,,,,,,,,,,AMSA15.jpg,AMNE09.jpg,AMSA01.jpg,AMNE02.jpg,AMNE09.jpg,MN,1,num_6,16,num_6,0.716910605552,,,2017_Jul_20_1520,60.0228132868,MAFE4ImagesEEG,001,100868,
AFNE01.JPG,AFNE01.JPG,AFNE01.JPG,AFNE01.JPG,AFNE01.JPG,AFNE01.JPG,2,0,20,8,,,,,,,,,,,,,,,,,,,,,,,AMSA19.jpg,AMSA09.jpg,AMNE17.jpg,AMNE03.jpg,AMSA19.jpg,MS,2,num_8,16,num_8,0.916808032896,,,2017_Jul_20_1520,60.0228132868,MAFE4ImagesEEG,001,100868,
AFNE01.JPG,AFNE01.JPG,AFNE01.JPG,AFNE01.JPG,AFNE01.JPG,AFNE01.JPG,2,1,21,3,,,,,,,,,,,,,,,,,,,,,,,AMNE20.jpg,AMNE15.jpg,AMSA02.jpg,AMSA05.jpg,AMSA05.jpg,MS,2,num_4,16,num_4,1.36679326283,,,2017_Jul_20_1520,60.0228132868,MAFE4ImagesEEG,001,100868,
AFNE01.JPG,AFNE01.JPG,AFNE01.JPG,AFNE01.JPG,AFNE01.JPG,AFNE01.JPG,2,2,22,1,,,,,,,,,,,,,,,,,,,,,,,AMNE18.jpg,AMSA08.jpg,AMSA04.jpg,AMNE17.jpg,AMSA08.jpg,MS,2,num_6,32,num_2,1.10009080154,,,2017_Jul_20_1520,60.0228132868,MAFE4ImagesEEG,001,100868,
AFNE01.JPG,AFNE01.JPG,AFNE01.JPG,AFNE01.JPG,AFNE01.JPG,AFNE01.JPG,2,3,23,5,,,,,,,,,,,,,,,,,,,,,,,AMNE02.jpg,AMNE05.jpg,AMSA15.jpg,AMSA18.jpg,AMNE05.jpg,MN,1,num_6,16,num_6,0.766753940028,,,2017_Jul_20_1520,60.0228132868,MAFE4ImagesEEG,001,100868,
AFNE01.JPG,AFNE01.JPG,AFNE01.JPG,AFNE01.JPG,AFNE01.JPG,AFNE01.JPG,2,4,24,9,,,,,,,,,,,,,,,,,,,,,,,AMSA11.jpg,AMSA18.jpg,AMNE01.jpg,AMNE03.jpg,AMNE01.jpg,MN,1,num_2,32,num_6,1.11676704226,,,2017_Jul_20_1520,60.0228132868,MAFE4ImagesEEG,001,100868,
AFNE01.JPG,AFNE01.JPG,AFNE01.JPG,AFNE01.JPG,AFNE01.JPG,AFNE01.JPG,2,5,25,2,,,,,,,,,,,,,,,,,,,,,,,AMNE13.jpg,AMNE03.jpg,AMSA16.jpg,AMSA13.jpg,AMNE03.jpg,MN,1,num_6,32,num_8,1.00010937237,,,2017_Jul_20_1520,60.0228132868,MAFE4ImagesEEG,001,100868,
AFNE01.JPG,AFNE01.JPG,AFNE01.JPG,AFNE01.JPG,AFNE01.JPG,AFNE01.JPG,2,6,26,4,,,,,,,,,,,,,,,,,,,,,,,AMNE07.jpg,AMSA09.jpg,AMNE19.jpg,AMSA19.jpg,AMNE19.jpg,MN,1,num_2,32,num_4,0.950091234525,,,2017_Jul_20_1520,60.0228132868,MAFE4ImagesEEG,001,100868,
AFNE01.JPG,AFNE01.JPG,AFNE01.JPG,AFNE01.JPG,AFNE01.JPG,AFNE01.JPG,2,7,27,7,,,,,,,,,,,,,,,,,,,,,,,AMSA05.jpg,AMSA13.jpg,AMNE10.jpg,AMNE19.jpg,AMNE19.jpg,MN,1,num_4,16,num_4,0.816769832745,,,2017_Jul_20_1520,60.0228132868,MAFE4ImagesEEG,001,100868,
AFNE01.JPG,AFNE01.JPG,AFNE01.JPG,AFNE01.JPG,AFNE01.JPG,AFNE01.JPG,2,8,28,6,,,,,,,,,,,,,,,,,,,,,,,AMNE05.jpg,AMNE15.jpg,AMSA14.jpg,AMSA18.jpg,AMSA18.jpg,MS,2,num_4,32,num_8,1.18344121426,,,2017_Jul_20_1520,60.0228132868,MAFE4ImagesEEG,001,100868,
AFNE01.JPG,AFNE01.JPG,AFNE01.JPG,AFNE01.JPG,AFNE01.JPG,AFNE01.JPG,2,9,29,0,,,,,,,,,,,,,,,,,,,,,,,AMSA20.jpg,AMNE19.jpg,AMSA19.jpg,AMNE17.jpg,AMNE17.jpg,MN,1,num_4,16,num_4,1.51674985065,,,2017_Jul_20_1520,60.0228132868,MAFE4ImagesEEG,001,100868,
AFNE01.JPG,AFNE01.JPG,AFNE01.JPG,AFNE01.JPG,AFNE01.JPG,AFNE01.JPG,3,0,30,7,,,,,,,,,,,,,,,,,,,,,,,AMNE12.jpg,AMNE03.jpg,AMSA11.jpg,AMSA18.jpg,AMNE03.jpg,MN,1,num_6,16,num_6,0.900125698012,,,2017_Jul_20_1520,60.0228132868,MAFE4ImagesEEG,001,100868,
AFNE01.JPG,AFNE01.JPG,AFNE01.JPG,AFNE01.JPG,AFNE01.JPG,AFNE01.JPG,3,1,31,3,,,,,,,,,,,,,,,,,,,,,,,AMSA08.jpg,AMNE02.jpg,AMSA20.jpg,AMNE17.jpg,AMNE17.jpg,MN,1,num_4,32,num_2,1.89994512137,,,2017_Jul_20_1520,60.0228132868,MAFE4ImagesEEG,001,100868,
AFNE01.JPG,AFNE01.JPG,AFNE01.JPG,AFNE01.JPG,AFNE01.JPG,AFNE01.JPG,3,2,32,2,,,,,,,,,,,,,,,,,,,,,,,AMNE01.jpg,AMSA07.jpg,AMNE02.jpg,AMSA13.jpg,AMNE02.jpg,MN,1,num_2,16,num_2,0.633480649267,,,2017_Jul_20_1520,60.0228132868,MAFE4ImagesEEG,001,100868,
AFNE01.JPG,AFNE01.JPG,AFNE01.JPG,AFNE01.JPG,AFNE01.JPG,AFNE01.JPG,3,3,33,1,,,,,,,,,,,,,,,,,,,,,,,AMSA03.jpg,AMNE06.jpg,AMNE07.jpg,AMSA07.jpg,AMNE06.jpg,MN,1,num_6,16,num_6,0.933478821069,,,2017_Jul_20_1520,60.0228132868,MAFE4ImagesEEG,001,100868,
AFNE01.JPG,AFNE01.JPG,AFNE01.JPG,AFNE01.JPG,AFNE01.JPG,AFNE01.JPG,3,4,34,8,,,,,,,,,,,,,,,,,,,,,,,AMNE01.jpg,AMSA11.jpg,AMSA03.jpg,AMNE17.jpg,AMSA03.jpg,MS,2,num_2,16,num_2,0.783469952585,,,2017_Jul_20_1520,60.0228132868,MAFE4ImagesEEG,001,100868,
AFNE01.JPG,AFNE01.JPG,AFNE01.JPG,AFNE01.JPG,AFNE01.JPG,AFNE01.JPG,3,5,35,0,,,,,,,,,,,,,,,,,,,,,,,AMSA19.jpg,AMNE15.jpg,AMSA07.jpg,AMNE12.jpg,AMSA07.jpg,MS,2,num_2,16,num_2,1.11680232373,,,2017_Jul_20_1520,60.0228132868,MAFE4ImagesEEG,001,100868,
AFNE01.JPG,AFNE01.JPG,AFNE01.JPG,AFNE01.JPG,AFNE01.JPG,AFNE01.JPG,3,6,36,9,,,,,,,,,,,,,,,,,,,,,,,AMSA01.jpg,AMSA19.jpg,AMNE20.jpg,AMNE04.jpg,AMNE20.jpg,MN,1,num_2,16,num_2,1.56674393296,,,2017_Jul_20_1520,60.0228132868,MAFE4ImagesEEG,001,100868,
AFNE01.JPG,AFNE01.JPG,AFNE01.JPG,AFNE01.JPG,AFNE01.JPG,AFNE01.JPG,3,7,37,6,,,,,,,,,,,,,,,,,,,,,,,AMNE04.jpg,AMNE07.jpg,AMSA17.jpg,AMSA16.jpg,AMNE04.jpg,MN,1,num_8,32,num_2,1.3000751494,,,2017_Jul_20_1520,60.0228132868,MAFE4ImagesEEG,001,100868,
AFNE01.JPG,AFNE01.JPG,AFNE01.JPG,AFNE01.JPG,AFNE01.JPG,AFNE01.JPG,3,8,38,5,,,,,,,,,,,,,,,,,,,,,,,AMSA11.jpg,AMNE04.jpg,AMNE09.jpg,AMSA13.jpg,AMNE09.jpg,MN,1,num_2,16,num_2,0.73342326883,,,2017_Jul_20_1520,60.0228132868,MAFE4ImagesEEG,001,100868,
AFNE01.JPG,AFNE01.JPG,AFNE01.JPG,AFNE01.JPG,AFNE01.JPG,AFNE01.JPG,3,9,39,4,,,,,,,,,,,,,,,,,,,,,,,AMNE01.jpg,AMNE04.jpg,AMSA07.jpg,AMSA06.jpg,AMSA06.jpg,MS,2,num_4,16,num_4,0.933448350755,,,2017_Jul_20_1520,60.0228132868,MAFE4ImagesEEG,001,100868,
AFNE01.JPG,AFNE01.JPG,AFNE01.JPG,AFNE01.JPG,AFNE01.JPG,AFNE01.JPG,4,0,40,1,,,,,,,,,,,,,,,,,,,,,,,AMNE04.jpg,AMSA19.jpg,AMSA07.jpg,AMNE06.jpg,AMNE06.jpg,MN,1,num_4,32,num_6,0.800173777039,,,2017_Jul_20_1520,60.0228132868,MAFE4ImagesEEG,001,100868,
AFNE01.JPG,AFNE01.JPG,AFNE01.JPG,AFNE01.JPG,AFNE01.JPG,AFNE01.JPG,4,1,41,3,,,,,,,,,,,,,,,,,,,,,,,AMSA08.jpg,AMNE09.jpg,AMSA19.jpg,AMNE18.jpg,AMSA08.jpg,MS,2,num_8,16,num_8,1.11676255194,,,2017_Jul_20_1520,60.0228132868,MAFE4ImagesEEG,001,100868,
AFNE01.JPG,AFNE01.JPG,AFNE01.JPG,AFNE01.JPG,AFNE01.JPG,AFNE01.JPG,4,2,42,4,,,,,,,,,,,,,,,,,,,,,,,AMSA10.jpg,AMNE03.jpg,AMNE18.jpg,AMSA02.jpg,AMSA10.jpg,MS,2,num_8,32,num_6,0.800144589623,,,2017_Jul_20_1520,60.0228132868,MAFE4ImagesEEG,001,100868,
AFNE01.JPG,AFNE01.JPG,AFNE01.JPG,AFNE01.JPG,AFNE01.JPG,AFNE01.JPG,4,3,43,2,,,,,,,,,,,,,,,,,,,,,,,AMSA12.jpg,AMSA13.jpg,AMNE13.jpg,AMNE01.jpg,AMSA13.jpg,MS,2,num_6,16,num_6,0.733464323625,,,2017_Jul_20_1520,60.0228132868,MAFE4ImagesEEG,001,100868,
AFNE01.JPG,AFNE01.JPG,AFNE01.JPG,AFNE01.JPG,AFNE01.JPG,AFNE01.JPG,4,4,44,8,,,,,,,,,,,,,,,,,,,,,,,AMNE05.jpg,AMSA13.jpg,AMNE19.jpg,AMSA14.jpg,AMSA13.jpg,MS,2,num_6,16,num_6,0.850203461479,,,2017_Jul_20_1520,60.0228132868,MAFE4ImagesEEG,001,100868,
AFNE01.JPG,AFNE01.JPG,AFNE01.JPG,AFNE01.JPG,AFNE01.JPG,AFNE01.JPG,4,5,45,9,,,,,,,,,,,,,,,,,,,,,,,AMNE16.jpg,AMSA15.jpg,AMSA04.jpg,AMNE05.jpg,AMSA15.jpg,MS,2,num_6,32,num_2,0.733565035975,,,2017_Jul_20_1520,60.0228132868,MAFE4ImagesEEG,001,100868,
AFNE01.JPG,AFNE01.JPG,AFNE01.JPG,AFNE01.JPG,AFNE01.JPG,AFNE01.JPG,4,6,46,7,,,,,,,,,,,,,,,,,,,,,,,AMSA19.jpg,AMNE10.jpg,AMNE11.jpg,AMSA18.jpg,AMNE10.jpg,MN,1,num_6,16,num_6,1.11677955114,,,2017_Jul_20_1520,60.0228132868,MAFE4ImagesEEG,001,100868,
AFNE01.JPG,AFNE01.JPG,AFNE01.JPG,AFNE01.JPG,AFNE01.JPG,AFNE01.JPG,4,7,47,5,,,,,,,,,,,,,,,,,,,,,,,AMNE16.jpg,AMNE17.jpg,AMSA01.jpg,AMSA07.jpg,AMNE17.jpg,MN,1,num_6,32,num_8,0.76678184449,,,2017_Jul_20_1520,60.0228132868,MAFE4ImagesEEG,001,100868,
AFNE01.JPG,AFNE01.JPG,AFNE01.JPG,AFNE01.JPG,AFNE01.JPG,AFNE01.JPG,4,8,48,0,,,,,,,,,,,,,,,,,,,,,,,AMNE15.jpg,AMSA07.jpg,AMNE20.jpg,AMSA10.jpg,AMSA07.jpg,MS,2,num_6,16,num_6,1.74992759293,,,2017_Jul_20_1520,60.0228132868,MAFE4ImagesEEG,001,100868,
AFNE01.JPG,AFNE01.JPG,AFNE01.JPG,AFNE01.JPG,AFNE01.JPG,AFNE01.JPG,4,9,49,6,,,,,,,,,,,,,,,,,,,,,,,AMNE07.jpg,AMNE13.jpg,AMSA18.jpg,AMSA01.jpg,AMSA01.jpg,MS,2,num_4,16,num_4,0.85008639138,,,2017_Jul_20_1520,60.0228132868,MAFE4ImagesEEG,001,100868,
AFNE01.JPG,AFNE01.JPG,AFNE01.JPG,AFNE01.JPG,AFNE01.JPG,AFNE01.JPG,5,0,50,0,,,,,,,,,,,,,,,,,,,,,,,AMSA10.jpg,AMNE13.jpg,AMNE06.jpg,AMSA06.jpg,AMNE06.jpg,MN,1,num_2,16,num_2,1.73338125192,,,2017_Jul_20_1520,60.0228132868,MAFE4ImagesEEG,001,100868,
AFNE01.JPG,AFNE01.JPG,AFNE01.JPG,AFNE01.JPG,AFNE01.JPG,AFNE01.JPG,5,1,51,8,,,,,,,,,,,,,,,,,,,,,,,AMSA02.jpg,AMNE13.jpg,AMSA17.jpg,AMNE16.jpg,AMNE16.jpg,MN,1,num_4,32,num_6,1.00016614341,,,2017_Jul_20_1520,60.0228132868,MAFE4ImagesEEG,001,100868,
AFNE01.JPG,AFNE01.JPG,AFNE01.JPG,AFNE01.JPG,AFNE01.JPG,AFNE01.JPG,5,2,52,5,,,,,,,,,,,,,,,,,,,,,,,AMSA17.jpg,AMNE01.jpg,AMNE12.jpg,AMSA07.jpg,AMSA17.jpg,MS,2,num_8,32,num_4,1.35024243145,,,2017_Jul_20_1520,60.0228132868,MAFE4ImagesEEG,001,100868,
AFNE01.JPG,AFNE01.JPG,AFNE01.JPG,AFNE01.JPG,AFNE01.JPG,AFNE01.JPG,5,3,53,4,,,,,,,,,,,,,,,,,,,,,,,AMNE05.jpg,AMNE20.jpg,AMSA17.jpg,AMSA19.jpg,AMNE05.jpg,MN,1,num_8,16,num_8,0.866772575013,,,2017_Jul_20_1520,60.0228132868,MAFE4ImagesEEG,001,100868,
AFNE01.JPG,AFNE01.JPG,AFNE01.JPG,AFNE01.JPG,AFNE01.JPG,AFNE01.JPG,5,4,54,3,,,,,,,,,,,,,,,,,,,,,,,AMNE10.jpg,AMNE16.jpg,AMSA10.jpg,AMSA12.jpg,AMSA12.jpg,MS,2,num_4,16,num_4,1.16674765357,,,2017_Jul_20_1520,60.0228132868,MAFE4ImagesEEG,001,100868,
AFNE01.JPG,AFNE01.JPG,AFNE01.JPG,AFNE01.JPG,AFNE01.JPG,AFNE01.JPG,5,5,55,1,,,,,,,,,,,,,,,,,,,,,,,AMNE03.jpg,AMSA11.jpg,AMSA18.jpg,AMNE04.jpg,AMNE04.jpg,MN,1,num_4,32,num_8,0.933438407781,,,2017_Jul_20_1520,60.0228132868,MAFE4ImagesEEG,001,100868,
AFNE01.JPG,AFNE01.JPG,AFNE01.JPG,AFNE01.JPG,AFNE01.JPG,AFNE01.JPG,5,6,56,9,,,,,,,,,,,,,,,,,,,,,,,AMNE16.jpg,AMSA18.jpg,AMNE10.jpg,AMSA15.jpg,AMSA18.jpg,MS,2,num_6,16,num_6,0.916794240999,,,2017_Jul_20_1520,60.0228132868,MAFE4ImagesEEG,001,100868,
AFNE01.JPG,AFNE01.JPG,AFNE01.JPG,AFNE01.JPG,AFNE01.JPG,AFNE01.JPG,5,7,57,6,,,,,,,,,,,,,,,,,,,,,,,AMSA20.jpg,AMNE01.jpg,AMSA17.jpg,AMNE16.jpg,AMNE16.jpg,MN,1,num_4,16,num_4,0.750186430174,,,2017_Jul_20_1520,60.0228132868,MAFE4ImagesEEG,001,100868,
AFNE01.JPG,AFNE01.JPG,AFNE01.JPG,AFNE01.JPG,AFNE01.JPG,AFNE01.JPG,5,8,58,2,,,,,,,,,,,,,,,,,,,,,,,AMNE20.jpg,AMNE09.jpg,AMSA06.jpg,AMSA03.jpg,AMNE20.jpg,MN,1,num_8,16,num_8,1.3334494413,,,2017_Jul_20_1520,60.0228132868,MAFE4ImagesEEG,001,100868,
AFNE01.JPG,AFNE01.JPG,AFNE01.JPG,AFNE01.JPG,AFNE01.JPG,AFNE01.JPG,5,9,59,7,,,,,,,,,,,,,,,,,,,,,,,AMNE06.jpg,AMNE16.jpg,AMSA16.jpg,AMSA07.jpg,AMNE16.jpg,MN,1,num_6,16,num_6,0.883487304614,,,2017_Jul_20_1520,60.0228132868,MAFE4ImagesEEG,001,100868,
,,,,,,,,,,,,,,,,,,,,,,,,,,,,,,,,,,,,,,,,,,,space,5.98274642701,2017_Jul_20_1520,60.0228132868,MAFE4ImagesEEG,001,100868,
AFNE01.JPG,AFNE01.JPG,AFNE01.JPG,AFNE01.JPG,AFNE01.JPG,AFNE01.JPG,,,,,0,0,0,4,,,,,,,,,,,,,,,,,,,AFSA20.jpg,AFNE07.jpg,AFSA12.jpg,AFNE08.jpg,AFNE08.jpg,FN,3,num_4,32,num_8,1.26676276041,,,2017_Jul_20_1520,60.0228132868,MAFE4ImagesEEG,001,100868,
AFNE01.JPG,AFNE01.JPG,AFNE01.JPG,AFNE01.JPG,AFNE01.JPG,AFNE01.JPG,,,,,0,1,1,3,,,,,,,,,,,,,,,,,,,AFNE20.jpg,AFNE15.jpg,AFSA03.jpg,AFSA08.jpg,AFNE15.jpg,FN,3,num_6,16,num_6,0.650167153741,,,2017_Jul_20_1520,60.0228132868,MAFE4ImagesEEG,001,100868,
AFNE01.JPG,AFNE01.JPG,AFNE01.JPG,AFNE01.JPG,AFNE01.JPG,AFNE01.JPG,,,,,0,2,2,0,,,,,,,,,,,,,,,,,,,AFSA15.jpg,AFNE05.jpg,AFSA16.jpg,AFNE03.jpg,AFSA16.jpg,FS,4,num_2,32,num_6,1.20005106181,,,2017_Jul_20_1520,60.0228132868,MAFE4ImagesEEG,001,100868,
AFNE01.JPG,AFNE01.JPG,AFNE01.JPG,AFNE01.JPG,AFNE01.JPG,AFNE01.JPG,,,,,0,3,3,5,,,,,,,,,,,,,,,,,,,AFSA07.jpg,AFSA06.jpg,AFNE04.jpg,AFNE01.jpg,AFSA07.jpg,FS,4,num_8,16,num_8,0.850145728269,,,2017_Jul_20_1520,60.0228132868,MAFE4ImagesEEG,001,100868,
AFNE01.JPG,AFNE01.JPG,AFNE01.JPG,AFNE01.JPG,AFNE01.JPG,AFNE01.JPG,,,,,0,4,4,7,,,,,,,,,,,,,,,,,,,AFSA09.jpg,AFSA07.jpg,AFNE08.jpg,AFNE07.jpg,AFNE07.jpg,FN,3,num_4,32,num_2,1.2834434915,,,2017_Jul_20_1520,60.0228132868,MAFE4ImagesEEG,001,100868,
AFNE01.JPG,AFNE01.JPG,AFNE01.JPG,AFNE01.JPG,AFNE01.JPG,AFNE01.JPG,,,,,0,5,5,9,,,,,,,,,,,,,,,,,,,AFNE18.jpg,AFSA07.jpg,AFNE15.jpg,AFSA02.jpg,AFNE15.jpg,FN,3,num_2,16,num_2,0.866742425482,,,2017_Jul_20_1520,60.0228132868,MAFE4ImagesEEG,001,100868,
AFNE01.JPG,AFNE01.JPG,AFNE01.JPG,AFNE01.JPG,AFNE01.JPG,AFNE01.JPG,,,,,0,6,6,2,,,,,,,,,,,,,,,,,,,AFNE07.jpg,AFSA14.jpg,AFNE06.jpg,AFSA10.jpg,AFNE06.jpg,FN,3,num_2,32,num_8,1.2000988521,,,2017_Jul_20_1520,60.0228132868,MAFE4ImagesEEG,001,100868,
AFNE01.JPG,AFNE01.JPG,AFNE01.JPG,AFNE01.JPG,AFNE01.JPG,AFNE01.JPG,,,,,0,7,7,8,,,,,,,,,,,,,,,,,,,AFNE13.jpg,AFNE10.jpg,AFSA20.jpg,AFSA17.jpg,AFSA17.jpg,FS,4,num_4,16,num_4,1.3334083865,,,2017_Jul_20_1520,60.0228132868,MAFE4ImagesEEG,001,100868,
AFNE01.JPG,AFNE01.JPG,AFNE01.JPG,AFNE01.JPG,AFNE01.JPG,AFNE01.JPG,,,,,0,8,8,6,,,,,,,,,,,,,,,,,,,AFNE06.jpg,AFNE11.jpg,AFSA02.jpg,AFSA10.jpg,AFSA10.jpg,FS,4,num_4,32,num_6,1.33345778048,,,2017_Jul_20_1520,60.0228132868,MAFE4ImagesEEG,001,100868,
AFNE01.JPG,AFNE01.JPG,AFNE01.JPG,AFNE01.JPG,AFNE01.JPG,AFNE01.JPG,,,,,0,9,9,1,,,,,,,,,,,,,,,,,,,AFSA15.jpg,AFSA11.jpg,AFNE01.jpg,AFNE08.jpg,AFSA15.jpg,FS,4,num_8,32,num_2,1.46641353861,,,2017_Jul_20_1520,60.0228132868,MAFE4ImagesEEG,001,100868,
AFNE01.JPG,AFNE01.JPG,AFNE01.JPG,AFNE01.JPG,AFNE01.JPG,AFNE01.JPG,,,,,1,0,10,1,,,,,,,,,,,,,,,,,,,AFSA04.jpg,AFSA02.jpg,AFNE17.jpg,AFNE10.jpg,AFSA04.jpg,FS,4,num_8,16,num_8,0.733462399163,,,2017_Jul_20_1520,60.0228132868,MAFE4ImagesEEG,001,100868,
AFNE01.JPG,AFNE01.JPG,AFNE01.JPG,AFNE01.JPG,AFNE01.JPG,AFNE01.JPG,,,,,1,1,11,8,,,,,,,,,,,,,,,,,,,AFNE19.jpg,AFSA20.jpg,AFSA17.jpg,AFNE20.jpg,AFSA17.jpg,FS,4,num_2,32,num_6,1.43343119114,,,2017_Jul_20_1520,60.0228132868,MAFE4ImagesEEG,001,100868,
AFNE01.JPG,AFNE01.JPG,AFNE01.JPG,AFNE01.JPG,AFNE01.JPG,AFNE01.JPG,,,,,1,2,12,5,,,,,,,,,,,,,,,,,,,AFNE17.jpg,AFSA19.jpg,AFNE16.jpg,AFSA14.jpg,AFSA19.jpg,FS,4,num_6,32,num_4,1.01688696706,,,2017_Jul_20_1520,60.0228132868,MAFE4ImagesEEG,001,100868,
AFNE01.JPG,AFNE01.JPG,AFNE01.JPG,AFNE01.JPG,AFNE01.JPG,AFNE01.JPG,,,,,1,3,13,2,,,,,,,,,,,,,,,,,,,AFSA14.jpg,AFSA12.jpg,AFNE19.jpg,AFNE09.jpg,AFSA14.jpg,FS,4,num_8,16,num_8,0.86674563284,,,2017_Jul_20_1520,60.0228132868,MAFE4ImagesEEG,001,100868,
AFNE01.JPG,AFNE01.JPG,AFNE01.JPG,AFNE01.JPG,AFNE01.JPG,AFNE01.JPG,,,,,1,4,14,9,,,,,,,,,,,,,,,,,,,AFNE03.jpg,AFNE02.jpg,AFSA07.jpg,AFSA12.jpg,AFNE03.jpg,FN,3,num_8,32,num_6,1.11674426973,,,2017_Jul_20_1520,60.0228132868,MAFE4ImagesEEG,001,100868,
AFNE01.JPG,AFNE01.JPG,AFNE01.JPG,AFNE01.JPG,AFNE01.JPG,AFNE01.JPG,,,,,1,5,15,0,,,,,,,,,,,,,,,,,,,AFNE04.jpg,AFSA20.jpg,AFNE14.jpg,AFSA11.jpg,AFSA11.jpg,FS,4,num_4,32,num_6,1.16672840912,,,2017_Jul_20_1520,60.0228132868,MAFE4ImagesEEG,001,100868,
AFNE01.JPG,AFNE01.JPG,AFNE01.JPG,AFNE01.JPG,AFNE01.JPG,AFNE01.JPG,,,,,1,6,16,7,,,,,,,,,,,,,,,,,,,AFSA18.jpg,AFNE19.jpg,AFNE01.jpg,AFSA20.jpg,AFNE01.jpg,FN,3,num_2,16,num_2,1.45008177269,,,2017_Jul_20_1520,60.0228132868,MAFE4ImagesEEG,001,100868,
AFNE01.JPG,AFNE01.JPG,AFNE01.JPG,AFNE01.JPG,AFNE01.JPG,AFNE01.JPG,,,,,1,7,17,4,,,,,,,,,,,,,,,,,,,AFNE05.jpg,AFSA20.jpg,AFSA14.jpg,AFNE18.jpg,AFNE05.jpg,FN,3,num_8,32,num_6,0.733476191002,,,2017_Jul_20_1520,60.0228132868,MAFE4ImagesEEG,001,100868,
AFNE01.JPG,AFNE01.JPG,AFNE01.JPG,AFNE01.JPG,AFNE01.JPG,AFNE01.JPG,,,,,1,8,18,6,,,,,,,,,,,,,,,,,,,AFSA02.jpg,AFNE15.jpg,AFSA09.jpg,AFNE12.jpg,AFNE15.jpg,FN,3,num_6,32,num_4,0.933455727762,,,2017_Jul_20_1520,60.0228132868,MAFE4ImagesEEG,001,100868,
AFNE01.JPG,AFNE01.JPG,AFNE01.JPG,AFNE01.JPG,AFNE01.JPG,AFNE01.JPG,,,,,1,9,19,3,,,,,,,,,,,,,,,,,,,AFNE17.jpg,AFSA20.jpg,AFNE18.jpg,AFSA09.jpg,AFNE18.jpg,FN,3,num_2,32,num_8,0.666714777704,,,2017_Jul_20_1520,60.0228132868,MAFE4ImagesEEG,001,100868,
AFNE01.JPG,AFNE01.JPG,AFNE01.JPG,AFNE01.JPG,AFNE01.JPG,AFNE01.JPG,,,,,2,0,20,0,,,,,,,,,,,,,,,,,,,AFNE20.jpg,AFNE09.jpg,AFSA20.jpg,AFSA19.jpg,AFSA19.jpg,FS,4,num_4,32,num_8,0.899839918653,,,2017_Jul_20_1520,60.0228132868,MAFE4ImagesEEG,001,100868,
AFNE01.JPG,AFNE01.JPG,AFNE01.JPG,AFNE01.JPG,AFNE01.JPG,AFNE01.JPG,,,,,2,1,21,8,,,,,,,,,,,,,,,,,,,AFNE19.jpg,AFSA07.jpg,AFSA11.jpg,AFNE11.jpg,AFNE19.jpg,FN,3,num_8,32,num_4,1.08345080441,,,2017_Jul_20_1520,60.0228132868,MAFE4ImagesEEG,001,100868,
AFNE01.JPG,AFNE01.JPG,AFNE01.JPG,AFNE01.JPG,AFNE01.JPG,AFNE01.JPG,,,,,2,2,22,1,,,,,,,,,,,,,,,,,,,AFSA09.jpg,AFNE14.jpg,AFSA03.jpg,AFNE09.jpg,AFSA03.jpg,FS,4,num_2,32,num_6,2.11671027128,,,2017_Jul_20_1520,60.0228132868,MAFE4ImagesEEG,001,100868,
AFNE01.JPG,AFNE01.JPG,AFNE01.JPG,AFNE01.JPG,AFNE01.JPG,AFNE01.JPG,,,,,2,3,23,2,,,,,,,,,,,,,,,,,,,AFSA09.jpg,AFNE09.jpg,AFSA20.jpg,AFNE05.jpg,AFSA20.jpg,FS,4,num_2,32,num_8,0.883516491973,,,2017_Jul_20_1520,60.0228132868,MAFE4ImagesEEG,001,100868,
AFNE01.JPG,AFNE01.JPG,AFNE01.JPG,AFNE01.JPG,AFNE01.JPG,AFNE01.JPG,,,,,2,4,24,6,,,,,,,,,,,,,,,,,,,AFNE15.jpg,AFSA19.jpg,AFSA01.jpg,AFNE18.jpg,AFNE15.jpg,FN,3,num_8,32,num_4,1.18346206238,,,2017_Jul_20_1520,60.0228132868,MAFE4ImagesEEG,001,100868,
AFNE01.JPG,AFNE01.JPG,AFNE01.JPG,AFNE01.JPG,AFNE01.JPG,AFNE01.JPG,,,,,2,5,25,3,,,,,,,,,,,,,,,,,,,AFNE07.jpg,AFNE02.jpg,AFSA16.jpg,AFSA17.jpg,AFNE02.jpg,FN,3,num_6,16,num_6,1.08330198098,,,2017_Jul_20_1520,60.0228132868,MAFE4ImagesEEG,001,100868,
AFNE01.JPG,AFNE01.JPG,AFNE01.JPG,AFNE01.JPG,AFNE01.JPG,AFNE01.JPG,,,,,2,6,26,9,,,,,,,,,,,,,,,,,,,AFNE17.jpg,AFSA14.jpg,AFSA08.jpg,AFNE04.jpg,AFNE17.jpg,FN,3,num_8,16,num_8,0.950142552902,,,2017_Jul_20_1520,60.0228132868,MAFE4ImagesEEG,001,100868,
AFNE01.JPG,AFNE01.JPG,AFNE01.JPG,AFNE01.JPG,AFNE01.JPG,AFNE01.JPG,,,,,2,7,27,5,,,,,,,,,,,,,,,,,,,AFSA14.jpg,AFNE13.jpg,AFSA04.jpg,AFNE17.jpg,AFNE13.jpg,FN,3,num_6,16,num_6,0.933499989857,,,2017_Jul_20_1520,60.0228132868,MAFE4ImagesEEG,001,100868,
AFNE01.JPG,AFNE01.JPG,AFNE01.JPG,AFNE01.JPG,AFNE01.JPG,AFNE01.JPG,,,,,2,8,28,4,,,,,,,,,,,,,,,,,,,AFNE12.jpg,AFNE04.jpg,AFSA17.jpg,AFSA08.jpg,AFNE12.jpg,FN,3,num_8,16,num_8,1.20010751212,,,2017_Jul_20_1520,60.0228132868,MAFE4ImagesEEG,001,100868,
AFNE01.JPG,AFNE01.JPG,AFNE01.JPG,AFNE01.JPG,AFNE01.JPG,AFNE01.JPG,,,,,2,9,29,7,,,,,,,,,,,,,,,,,,,AFNE08.jpg,AFSA01.jpg,AFNE07.jpg,AFSA13.jpg,AFNE08.jpg,FN,3,num_8,32,num_2,1.41657854331,,,2017_Jul_20_1520,60.0228132868,MAFE4ImagesEEG,001,100868,
AFNE01.JPG,AFNE01.JPG,AFNE01.JPG,AFNE01.JPG,AFNE01.JPG,AFNE01.JPG,,,,,3,0,30,9,,,,,,,,,,,,,,,,,,,AFNE08.jpg,AFSA02.jpg,AFNE06.jpg,AFSA11.jpg,AFNE06.jpg,FN,3,num_2,32,num_6,0.916715018218,,,2017_Jul_20_1520,60.0228132868,MAFE4ImagesEEG,001,100868,
AFNE01.JPG,AFNE01.JPG,AFNE01.JPG,AFNE01.JPG,AFNE01.JPG,AFNE01.JPG,,,,,3,1,31,1,,,,,,,,,,,,,,,,,,,AFSA13.jpg,AFNE16.jpg,AFSA10.jpg,AFNE20.jpg,AFNE20.jpg,FN,3,num_4,32,num_8,0.950137741864,,,2017_Jul_20_1520,60.0228132868,MAFE4ImagesEEG,001,100868,
AFNE01.JPG,AFNE01.JPG,AFNE01.JPG,AFNE01.JPG,AFNE01.JPG,AFNE01.JPG,,,,,3,2,32,3,,,,,,,,,,,,,,,,,,,AFSA05.jpg,AFNE04.jpg,AFNE19.jpg,AFSA07.jpg,AFNE19.jpg,FN,3,num_2,32,num_8,0.83347878902,,,2017_Jul_20_1520,60.0228132868,MAFE4ImagesEEG,001,100868,
AFNE01.JPG,AFNE01.JPG,AFNE01.JPG,AFNE01.JPG,AFNE01.JPG,AFNE01.JPG,,,,,3,3,33,2,,,,,,,,,,,,,,,,,,,AFNE08.jpg,AFNE01.jpg,AFSA20.jpg,AFSA05.jpg,AFSA05.jpg,FS,4,num_4,16,num_4,0.583492340229,,,2017_Jul_20_1520,60.0228132868,MAFE4ImagesEEG,001,100868,
AFNE01.JPG,AFNE01.JPG,AFNE01.JPG,AFNE01.JPG,AFNE01.JPG,AFNE01.JPG,,,,,3,4,34,5,,,,,,,,,,,,,,,,,,,AFSA05.jpg,AFSA06.jpg,AFNE12.jpg,AFNE10.jpg,AFSA05.jpg,FS,4,num_8,16,num_8,0.666755511658,,,2017_Jul_20_1520,60.0228132868,MAFE4ImagesEEG,001,100868,
AFNE01.JPG,AFNE01.JPG,AFNE01.JPG,AFNE01.JPG,AFNE01.JPG,AFNE01.JPG,,,,,3,5,35,7,,,,,,,,,,,,,,,,,,,AFNE06.jpg,AFNE20.jpg,AFSA08.jpg,AFSA19.jpg,AFSA08.jpg,FS,4,num_2,16,num_2,1.1667784446,,,2017_Jul_20_1520,60.0228132868,MAFE4ImagesEEG,001,100868,
AFNE01.JPG,AFNE01.JPG,AFNE01.JPG,AFNE01.JPG,AFNE01.JPG,AFNE01.JPG,,,,,3,6,36,0,,,,,,,,,,,,,,,,,,,AFSA14.jpg,AFSA06.jpg,AFNE15.jpg,AFNE03.jpg,AFSA14.jpg,FS,4,num_8,16,num_8,0.866778027674,,,2017_Jul_20_1520,60.0228132868,MAFE4ImagesEEG,001,100868,
AFNE01.JPG,AFNE01.JPG,AFNE01.JPG,AFNE01.JPG,AFNE01.JPG,AFNE01.JPG,,,,,3,7,37,6,,,,,,,,,,,,,,,,,,,AFNE07.jpg,AFSA08.jpg,AFNE15.jpg,AFSA09.jpg,AFSA09.jpg,FS,4,num_4,16,num_4,0.750131262932,,,2017_Jul_20_1520,60.0228132868,MAFE4ImagesEEG,001,100868,
AFNE01.JPG,AFNE01.JPG,AFNE01.JPG,AFNE01.JPG,AFNE01.JPG,AFNE01.JPG,,,,,3,8,38,4,,,,,,,,,,,,,,,,,,,AFSA16.jpg,AFNE14.jpg,AFNE16.jpg,AFSA14.jpg,AFSA14.jpg,FS,4,num_4,32,num_6,0.733326084563,,,2017_Jul_20_1520,60.0228132868,MAFE4ImagesEEG,001,100868,
AFNE01.JPG,AFNE01.JPG,AFNE01.JPG,AFNE01.JPG,AFNE01.JPG,AFNE01.JPG,,,,,3,9,39,8,,,,,,,,,,,,,,,,,,,AFNE14.jpg,AFSA19.jpg,AFNE06.jpg,AFSA13.jpg,AFSA13.jpg,FS,4,num_4,32,num_6,0.900110944,,,2017_Jul_20_1520,60.0228132868,MAFE4ImagesEEG,001,100868,
AFNE01.JPG,AFNE01.JPG,AFNE01.JPG,AFNE01.JPG,AFNE01.JPG,AFNE01.JPG,,,,,4,0,40,5,,,,,,,,,,,,,,,,,,,AFNE13.jpg,AFSA02.jpg,AFNE20.jpg,AFSA06.jpg,AFNE20.jpg,FN,3,num_2,16,num_2,0.616799597454,,,2017_Jul_20_1520,60.0228132868,MAFE4ImagesEEG,001,100868,
AFNE01.JPG,AFNE01.JPG,AFNE01.JPG,AFNE01.JPG,AFNE01.JPG,AFNE01.JPG,,,,,4,1,41,4,,,,,,,,,,,,,,,,,,,AFNE11.jpg,AFNE17.jpg,AFSA17.jpg,AFSA11.jpg,AFSA17.jpg,FS,4,num_2,16,num_2,1.20011649281,,,2017_Jul_20_1520,60.0228132868,MAFE4ImagesEEG,001,100868,
AFNE01.JPG,AFNE01.JPG,AFNE01.JPG,AFNE01.JPG,AFNE01.JPG,AFNE01.JPG,,,,,4,2,42,2,,,,,,,,,,,,,,,,,,,AFSA17.jpg,AFNE04.jpg,AFSA08.jpg,AFNE06.jpg,AFSA17.jpg,FS,4,num_8,32,num_6,0.666484486312,,,2017_Jul_20_1520,60.0228132868,MAFE4ImagesEEG,001,100868,
AFNE01.JPG,AFNE01.JPG,AFNE01.JPG,AFNE01.JPG,AFNE01.JPG,AFNE01.JPG,,,,,4,3,43,9,,,,,,,,,,,,,,,,,,,AFNE01.jpg,AFSA17.jpg,AFSA05.jpg,AFNE11.jpg,AFSA17.jpg,FS,4,num_6,16,num_6,0.616812747787,,,2017_Jul_20_1520,60.0228132868,MAFE4ImagesEEG,001,100868,
AFNE01.JPG,AFNE01.JPG,AFNE01.JPG,AFNE01.JPG,AFNE01.JPG,AFNE01.JPG,,,,,4,4,44,1,,,,,,,,,,,,,,,,,,,AFNE15.jpg,AFSA01.jpg,AFSA05.jpg,AFNE12.jpg,AFSA01.jpg,FS,4,num_6,16,num_6,0.733474587265,,,2017_Jul_20_1520,60.0228132868,MAFE4ImagesEEG,001,100868,
AFNE01.JPG,AFNE01.JPG,AFNE01.JPG,AFNE01.JPG,AFNE01.JPG,AFNE01.JPG,,,,,4,5,45,6,,,,,,,,,,,,,,,,,,,AFNE07.jpg,AFNE05.jpg,AFSA06.jpg,AFSA07.jpg,AFNE05.jpg,FN,3,num_6,32,num_8,0.900164507621,,,2017_Jul_20_1520,60.0228132868,MAFE4ImagesEEG,001,100868,
AFNE01.JPG,AFNE01.JPG,AFNE01.JPG,AFNE01.JPG,AFNE01.JPG,AFNE01.JPG,,,,,4,6,46,8,,,,,,,,,,,,,,,,,,,AFSA06.jpg,AFNE20.jpg,AFNE18.jpg,AFSA18.jpg,AFSA18.jpg,FS,4,num_4,32,num_8,1.31675074867,,,2017_Jul_20_1520,60.0228132868,MAFE4ImagesEEG,001,100868,
AFNE01.JPG,AFNE01.JPG,AFNE01.JPG,AFNE01.JPG,AFNE01.JPG,AFNE01.JPG,,,,,4,7,47,3,,,,,,,,,,,,,,,,,,,AFNE06.jpg,AFSA14.jpg,AFNE05.jpg,AFSA20.jpg,AFNE06.jpg,FN,3,num_8,32,num_6,0.983495355234,,,2017_Jul_20_1520,60.0228132868,MAFE4ImagesEEG,001,100868,
AFNE01.JPG,AFNE01.JPG,AFNE01.JPG,AFNE01.JPG,AFNE01.JPG,AFNE01.JPG,,,,,4,8,48,0,,,,,,,,,,,,,,,,,,,AFSA12.jpg,AFNE03.jpg,AFSA08.jpg,AFNE07.jpg,AFNE03.jpg,FN,3,num_6,32,num_4,0.966778059723,,,2017_Jul_20_1520,60.0228132868,MAFE4ImagesEEG,001,100868,
AFNE01.JPG,AFNE01.JPG,AFNE01.JPG,AFNE01.JPG,AFNE01.JPG,AFNE01.JPG,,,,,4,9,49,7,,,,,,,,,,,,,,,,,,,AFNE05.jpg,AFNE15.jpg,AFSA11.jpg,AFSA07.jpg,AFNE05.jpg,FN,3,num_8,32,num_4,0.733372271177,,,2017_Jul_20_1520,60.0228132868,MAFE4ImagesEEG,001,100868,
AFNE01.JPG,AFNE01.JPG,AFNE01.JPG,AFNE01.JPG,AFNE01.JPG,AFNE01.JPG,,,,,5,0,50,2,,,,,,,,,,,,,,,,,,,AFSA04.jpg,AFNE12.jpg,AFSA12.jpg,AFNE13.jpg,AFNE13.jpg,FN,3,num_4,32,num_2,0.933450595883,,,2017_Jul_20_1520,60.0228132868,MAFE4ImagesEEG,001,100868,
AFNE01.JPG,AFNE01.JPG,AFNE01.JPG,AFNE01.JPG,AFNE01.JPG,AFNE01.JPG,,,,,5,1,51,9,,,,,,,,,,,,,,,,,,,AFSA20.jpg,AFNE08.jpg,AFNE03.jpg,AFSA16.jpg,AFNE08.jpg,FN,3,num_6,32,num_8,0.999964077142,,,2017_Jul_20_1520,60.0228132868,MAFE4ImagesEEG,001,100868,
AFNE01.JPG,AFNE01.JPG,AFNE01.JPG,AFNE01.JPG,AFNE01.JPG,AFNE01.JPG,,,,,5,2,52,0,,,,,,,,,,,,,,,,,,,AFNE12.jpg,AFNE16.jpg,AFSA08.jpg,AFSA18.jpg,AFNE16.jpg,FN,3,num_6,16,num_6,0.933438407839,,,2017_Jul_20_1520,60.0228132868,MAFE4ImagesEEG,001,100868,
AFNE01.JPG,AFNE01.JPG,AFNE01.JPG,AFNE01.JPG,AFNE01.JPG,AFNE01.JPG,,,,,5,3,53,1,,,,,,,,,,,,,,,,,,,AFSA08.jpg,AFNE10.jpg,AFNE17.jpg,AFSA04.jpg,AFSA04.jpg,FS,4,num_4,32,num_2,1.28343162412,,,2017_Jul_20_1520,60.0228132868,MAFE4ImagesEEG,001,100868,
AFNE01.JPG,AFNE01.JPG,AFNE01.JPG,AFNE01.JPG,AFNE01.JPG,AFNE01.JPG,,,,,5,4,54,6,,,,,,,,,,,,,,,,,,,AFSA05.jpg,AFSA06.jpg,AFNE03.jpg,AFNE12.jpg,AFNE03.jpg,FN,3,num_2,16,num_2,0.733489982784,,,2017_Jul_20_1520,60.0228132868,MAFE4ImagesEEG,001,100868,
AFNE01.JPG,AFNE01.JPG,AFNE01.JPG,AFNE01.JPG,AFNE01.JPG,AFNE01.JPG,,,,,5,5,55,5,,,,,,,,,,,,,,,,,,,AFNE01.jpg,AFSA15.jpg,AFNE04.jpg,AFSA13.jpg,AFSA15.jpg,FS,4,num_6,16,num_6,0.750176487199,,,2017_Jul_20_1520,60.0228132868,MAFE4ImagesEEG,001,100868,
AFNE01.JPG,AFNE01.JPG,AFNE01.JPG,AFNE01.JPG,AFNE01.JPG,AFNE01.JPG,,,,,5,6,56,7,,,,,,,,,,,,,,,,,,,AFNE15.jpg,AFSA14.jpg,AFSA18.jpg,AFNE12.jpg,AFNE15.jpg,FN,3,num_8,16,num_8,1.21673339664,,,2017_Jul_20_1520,60.0228132868,MAFE4ImagesEEG,001,100868,
AFNE01.JPG,AFNE01.JPG,AFNE01.JPG,AFNE01.JPG,AFNE01.JPG,AFNE01.JPG,,,,,5,7,57,4,,,,,,,,,,,,,,,,,,,AFSA10.jpg,AFNE06.jpg,AFNE12.jpg,AFSA02.jpg,AFSA10.jpg,FS,4,num_8,32,num_4,1.10012993182,,,2017_Jul_20_1520,60.0228132868,MAFE4ImagesEEG,001,100868,
AFNE01.JPG,AFNE01.JPG,AFNE01.JPG,AFNE01.JPG,AFNE01.JPG,AFNE01.JPG,,,,,5,8,58,3,,,,,,,,,,,,,,,,,,,AFNE03.jpg,AFSA14.jpg,AFNE06.jpg,AFSA19.jpg,AFNE06.jpg,FN,3,num_2,16,num_2,0.833473336359,,,2017_Jul_20_1520,60.0228132868,MAFE4ImagesEEG,001,100868,
AFNE01.JPG,AFNE01.JPG,AFNE01.JPG,AFNE01.JPG,AFNE01.JPG,AFNE01.JPG,,,,,5,9,59,8,,,,,,,,,,,,,,,,,,,AFSA19.jpg,AFSA07.jpg,AFNE09.jpg,AFNE19.jpg,AFNE09.jpg,FN,3,num_2,32,num_8,1.38345603249,,,2017_Jul_20_1520,60.0228132868,MAFE4ImagesEEG,001,100868,
,,,,,,,,,,,,,,,,,,,,,,,,,,,,,,,,,,,,,,,,,,,space,10.9826569406,2017_Jul_20_1520,60.0228132868,MAFE4ImagesEEG,001,100868,
AFNE01.JPG,AFNE01.JPG,AFNE01.JPG,AFNE01.JPG,AFNE01.JPG,AFNE01.JPG,,,,,,,,,0,0,0,7,,,,,,,,,,,,,,,AMNE02.jpg,AMSA04.jpg,AMNE19.jpg,AMSA07.jpg,AMSA04.jpg,MS,2,num_6,32,num_8,1.18344634614,,,2017_Jul_20_1520,60.0228132868,MAFE4ImagesEEG,001,100868,
AFNE01.JPG,AFNE01.JPG,AFNE01.JPG,AFNE01.JPG,AFNE01.JPG,AFNE01.JPG,,,,,,,,,0,1,1,1,,,,,,,,,,,,,,,AMSA05.jpg,AMNE14.jpg,AMSA06.jpg,AMNE13.jpg,AMNE13.jpg,MN,1,num_4,32,num_8,0.86677674466,,,2017_Jul_20_1520,60.0228132868,MAFE4ImagesEEG,001,100868,
AFNE01.JPG,AFNE01.JPG,AFNE01.JPG,AFNE01.JPG,AFNE01.JPG,AFNE01.JPG,,,,,,,,,0,2,2,4,,,,,,,,,,,,,,,AMNE03.jpg,AMSA02.jpg,AMSA15.jpg,AMNE12.jpg,AMNE03.jpg,MN,1,num_8,16,num_8,0.766579457442,,,2017_Jul_20_1520,60.0228132868,MAFE4ImagesEEG,001,100868,
AFNE01.JPG,AFNE01.JPG,AFNE01.JPG,AFNE01.JPG,AFNE01.JPG,AFNE01.JPG,,,,,,,,,0,3,3,8,,,,,,,,,,,,,,,AMNE11.jpg,AMSA04.jpg,AMNE20.jpg,AMSA13.jpg,AMNE11.jpg,MN,1,num_8,16,num_8,1.05015605612,,,2017_Jul_20_1520,60.0228132868,MAFE4ImagesEEG,001,100868,
AFNE01.JPG,AFNE01.JPG,AFNE01.JPG,AFNE01.JPG,AFNE01.JPG,AFNE01.JPG,,,,,,,,,0,4,4,3,,,,,,,,,,,,,,,AMNE13.jpg,AMSA15.jpg,AMNE14.jpg,AMSA13.jpg,AMNE13.jpg,MN,1,num_8,16,num_8,1.93337650492,,,2017_Jul_20_1520,60.0228132868,MAFE4ImagesEEG,001,100868,
AFNE01.JPG,AFNE01.JPG,AFNE01.JPG,AFNE01.JPG,AFNE01.JPG,AFNE01.JPG,,,,,,,,,0,5,5,0,,,,,,,,,,,,,,,AMSA18.jpg,AMNE10.jpg,AMNE07.jpg,AMSA01.jpg,AMNE10.jpg,MN,1,num_6,16,num_6,1.01677567017,,,2017_Jul_20_1520,60.0228132868,MAFE4ImagesEEG,001,100868,
AFNE01.JPG,AFNE01.JPG,AFNE01.JPG,AFNE01.JPG,AFNE01.JPG,AFNE01.JPG,,,,,,,,,0,6,6,6,,,,,,,,,,,,,,,AMSA04.jpg,AMNE08.jpg,AMSA10.jpg,AMNE01.jpg,AMSA10.jpg,MS,2,num_2,16,num_2,1.16688172292,,,2017_Jul_20_1520,60.0228132868,MAFE4ImagesEEG,001,100868,
AFNE01.JPG,AFNE01.JPG,AFNE01.JPG,AFNE01.JPG,AFNE01.JPG,AFNE01.JPG,,,,,,,,,0,7,7,5,,,,,,,,,,,,,,,AMSA18.jpg,AMSA07.jpg,AMNE01.jpg,AMNE16.jpg,AMNE01.jpg,MN,1,num_2,32,num_6,1.13346381043,,,2017_Jul_20_1520,60.0228132868,MAFE4ImagesEEG,001,100868,
AFNE01.JPG,AFNE01.JPG,AFNE01.JPG,AFNE01.JPG,AFNE01.JPG,AFNE01.JPG,,,,,,,,,0,8,8,2,,,,,,,,,,,,,,,AMNE11.jpg,AMSA07.jpg,AMNE04.jpg,AMSA04.jpg,AMNE04.jpg,MN,1,num_2,16,num_2,1.40006299334,,,2017_Jul_20_1520,60.0228132868,MAFE4ImagesEEG,001,100868,
AFNE01.JPG,AFNE01.JPG,AFNE01.JPG,AFNE01.JPG,AFNE01.JPG,AFNE01.JPG,,,,,,,,,0,9,9,9,,,,,,,,,,,,,,,AMNE02.jpg,AMSA02.jpg,AMSA17.jpg,AMNE07.jpg,AMNE07.jpg,MN,1,num_4,32,num_6,0.750141847297,,,2017_Jul_20_1520,60.0228132868,MAFE4ImagesEEG,001,100868,
AFNE01.JPG,AFNE01.JPG,AFNE01.JPG,AFNE01.JPG,AFNE01.JPG,AFNE01.JPG,,,,,,,,,1,0,10,9,,,,,,,,,,,,,,,AMSA07.jpg,AMNE01.jpg,AMSA13.jpg,AMNE15.jpg,AMNE15.jpg,MN,1,num_4,32,num_2,1.10011581925,,,2017_Jul_20_1520,60.0228132868,MAFE4ImagesEEG,001,100868,
AFNE01.JPG,AFNE01.JPG,AFNE01.JPG,AFNE01.JPG,AFNE01.JPG,AFNE01.JPG,,,,,,,,,1,1,11,8,,,,,,,,,,,,,,,AMNE20.jpg,AMNE14.jpg,AMSA15.jpg,AMSA09.jpg,AMNE14.jpg,MN,1,num_6,32,num_4,0.766838936193,,,2017_Jul_20_1520,60.0228132868,MAFE4ImagesEEG,001,100868,
AFNE01.JPG,AFNE01.JPG,AFNE01.JPG,AFNE01.JPG,AFNE01.JPG,AFNE01.JPG,,,,,,,,,1,2,12,6,,,,,,,,,,,,,,,AMSA14.jpg,AMNE15.jpg,AMNE09.jpg,AMSA07.jpg,AMSA07.jpg,MS,2,num_4,32,num_6,0.783482782135,,,2017_Jul_20_1520,60.0228132868,MAFE4ImagesEEG,001,100868,
AFNE01.JPG,AFNE01.JPG,AFNE01.JPG,AFNE01.JPG,AFNE01.JPG,AFNE01.JPG,,,,,,,,,1,3,13,3,,,,,,,,,,,,,,,AMNE16.jpg,AMSA17.jpg,AMNE11.jpg,AMSA07.jpg,AMSA07.jpg,MS,2,num_4,32,num_6,0.983504015196,,,2017_Jul_20_1520,60.0228132868,MAFE4ImagesEEG,001,100868,
AFNE01.JPG,AFNE01.JPG,AFNE01.JPG,AFNE01.JPG,AFNE01.JPG,AFNE01.JPG,,,,,,,,,1,4,14,1,,,,,,,,,,,,,,,AMSA01.jpg,AMSA09.jpg,AMNE11.jpg,AMNE01.jpg,AMNE11.jpg,MN,1,num_2,32,num_8,1.1500720543,,,2017_Jul_20_1520,60.0228132868,MAFE4ImagesEEG,001,100868,
AFNE01.JPG,AFNE01.JPG,AFNE01.JPG,AFNE01.JPG,AFNE01.JPG,AFNE01.JPG,,,,,,,,,1,5,15,2,,,,,,,,,,,,,,,AMNE06.jpg,AMNE15.jpg,AMSA10.jpg,AMSA14.jpg,AMNE15.jpg,MN,1,num_6,32,num_8,1.13375985355,,,2017_Jul_20_1520,60.0228132868,MAFE4ImagesEEG,001,100868,
AFNE01.JPG,AFNE01.JPG,AFNE01.JPG,AFNE01.JPG,AFNE01.JPG,AFNE01.JPG,,,,,,,,,1,6,16,4,,,,,,,,,,,,,,,AMSA13.jpg,AMNE14.jpg,AMNE04.jpg,AMSA06.jpg,AMNE14.jpg,MN,1,num_6,16,num_6,0.900095227757,,,2017_Jul_20_1520,60.0228132868,MAFE4ImagesEEG,001,100868,
AFNE01.JPG,AFNE01.JPG,AFNE01.JPG,AFNE01.JPG,AFNE01.JPG,AFNE01.JPG,,,,,,,,,1,7,17,5,,,,,,,,,,,,,,,AMNE18.jpg,AMSA17.jpg,AMNE03.jpg,AMSA10.jpg,AMNE18.jpg,MN,1,num_8,16,num_8,2.74997410027,,,2017_Jul_20_1520,60.0228132868,MAFE4ImagesEEG,001,100868,
AFNE01.JPG,AFNE01.JPG,AFNE01.JPG,AFNE01.JPG,AFNE01.JPG,AFNE01.JPG,,,,,,,,,1,8,18,7,,,,,,,,,,,,,,,AMNE07.jpg,AMSA06.jpg,AMSA02.jpg,AMNE13.jpg,AMNE07.jpg,MN,1,num_8,32,num_4,1.06675371557,,,2017_Jul_20_1520,60.0228132868,MAFE4ImagesEEG,001,100868,
AFNE01.JPG,AFNE01.JPG,AFNE01.JPG,AFNE01.JPG,AFNE01.JPG,AFNE01.JPG,,,,,,,,,1,9,19,0,,,,,,,,,,,,,,,AMNE20.jpg,AMNE08.jpg,AMSA11.jpg,AMSA10.jpg,AMNE08.jpg,MN,1,num_6,16,num_6,1.316763899,,,2017_Jul_20_1520,60.0228132868,MAFE4ImagesEEG,001,100868,
AFNE01.JPG,AFNE01.JPG,AFNE01.JPG,AFNE01.JPG,AFNE01.JPG,AFNE01.JPG,,,,,,,,,2,0,20,4,,,,,,,,,,,,,,,AMNE03.jpg,AMNE01.jpg,AMSA11.jpg,AMSA17.jpg,AMSA11.jpg,MS,2,num_2,32,num_4,1.70005731622,,,2017_Jul_20_1520,60.0228132868,MAFE4ImagesEEG,001,100868,
AFNE01.JPG,AFNE01.JPG,AFNE01.JPG,AFNE01.JPG,AFNE01.JPG,AFNE01.JPG,,,,,,,,,2,1,21,1,,,,,,,,,,,,,,,AMSA20.jpg,AMSA11.jpg,AMNE03.jpg,AMNE10.jpg,AMSA20.jpg,MS,2,num_8,16,num_8,0.633487384825,,,2017_Jul_20_1520,60.0228132868,MAFE4ImagesEEG,001,100868,
AFNE01.JPG,AFNE01.JPG,AFNE01.JPG,AFNE01.JPG,AFNE01.JPG,AFNE01.JPG,,,,,,,,,2,2,22,6,,,,,,,,,,,,,,,AMNE20.jpg,AMSA06.jpg,AMSA03.jpg,AMNE08.jpg,AMNE20.jpg,MN,1,num_8,32,num_4,1.05024554254,,,2017_Jul_20_1520,60.0228132868,MAFE4ImagesEEG,001,100868,
AFNE01.JPG,AFNE01.JPG,AFNE01.JPG,AFNE01.JPG,AFNE01.JPG,AFNE01.JPG,,,,,,,,,2,3,23,7,,,,,,,,,,,,,,,AMSA05.jpg,AMNE16.jpg,AMSA19.jpg,AMNE07.jpg,AMSA19.jpg,MS,2,num_2,16,num_2,1.18313426594,,,2017_Jul_20_1520,60.0228132868,MAFE4ImagesEEG,001,100868,
AFNE01.JPG,AFNE01.JPG,AFNE01.JPG,AFNE01.JPG,AFNE01.JPG,AFNE01.JPG,,,,,,,,,2,4,24,3,,,,,,,,,,,,,,,AMSA18.jpg,AMSA09.jpg,AMNE07.jpg,AMNE03.jpg,AMSA09.jpg,MS,2,num_6,16,num_6,2.08335554454,,,2017_Jul_20_1520,60.0228132868,MAFE4ImagesEEG,001,100868,
AFNE01.JPG,AFNE01.JPG,AFNE01.JPG,AFNE01.JPG,AFNE01.JPG,AFNE01.JPG,,,,,,,,,2,5,25,2,,,,,,,,,,,,,,,AMNE10.jpg,AMSA14.jpg,AMSA09.jpg,AMNE17.jpg,AMNE17.jpg,MN,1,num_4,32,num_8,0.900126981025,,,2017_Jul_20_1520,60.0228132868,MAFE4ImagesEEG,001,100868,
AFNE01.JPG,AFNE01.JPG,AFNE01.JPG,AFNE01.JPG,AFNE01.JPG,AFNE01.JPG,,,,,,,,,2,6,26,9,,,,,,,,,,,,,,,AMSA19.jpg,AMNE12.jpg,AMNE16.jpg,AMSA20.jpg,AMSA19.jpg,MS,2,num_8,32,num_2,1.08372567868,,,2017_Jul_20_1520,60.0228132868,MAFE4ImagesEEG,001,100868,
AFNE01.JPG,AFNE01.JPG,AFNE01.JPG,AFNE01.JPG,AFNE01.JPG,AFNE01.JPG,,,,,,,,,2,7,27,8,,,,,,,,,,,,,,,AMNE19.jpg,AMNE06.jpg,AMSA03.jpg,AMSA11.jpg,AMSA11.jpg,MS,2,num_4,32,num_6,0.700126596144,,,2017_Jul_20_1520,60.0228132868,MAFE4ImagesEEG,001,100868,
AFNE01.JPG,AFNE01.JPG,AFNE01.JPG,AFNE01.JPG,AFNE01.JPG,AFNE01.JPG,,,,,,,,,2,8,28,0,,,,,,,,,,,,,,,AMNE01.jpg,AMSA14.jpg,AMSA11.jpg,AMNE16.jpg,AMSA11.jpg,MS,2,num_2,32,num_4,0.666787264985,,,2017_Jul_20_1520,60.0228132868,MAFE4ImagesEEG,001,100868,
AFNE01.JPG,AFNE01.JPG,AFNE01.JPG,AFNE01.JPG,AFNE01.JPG,AFNE01.JPG,,,,,,,,,2,9,29,5,,,,,,,,,,,,,,,AMSA20.jpg,AMNE15.jpg,AMNE14.jpg,AMSA17.jpg,AMNE14.jpg,MN,1,num_2,32,num_8,0.900173488306,,,2017_Jul_20_1520,60.0228132868,MAFE4ImagesEEG,001,100868,
AFNE01.JPG,AFNE01.JPG,AFNE01.JPG,AFNE01.JPG,AFNE01.JPG,AFNE01.JPG,,,,,,,,,3,0,30,1,,,,,,,,,,,,,,,AMSA11.jpg,AMSA18.jpg,AMNE04.jpg,AMNE15.jpg,AMNE15.jpg,MN,1,num_4,32,num_8,2.1333852291,,,2017_Jul_20_1520,60.0228132868,MAFE4ImagesEEG,001,100868,
AFNE01.JPG,AFNE01.JPG,AFNE01.JPG,AFNE01.JPG,AFNE01.JPG,AFNE01.JPG,,,,,,,,,3,1,31,8,,,,,,,,,,,,,,,AMSA17.jpg,AMNE16.jpg,AMSA05.jpg,AMNE07.jpg,AMSA17.jpg,MS,2,num_8,32,num_6,0.800154853321,,,2017_Jul_20_1520,60.0228132868,MAFE4ImagesEEG,001,100868,
AFNE01.JPG,AFNE01.JPG,AFNE01.JPG,AFNE01.JPG,AFNE01.JPG,AFNE01.JPG,,,,,,,,,3,2,32,4,,,,,,,,,,,,,,,AMNE01.jpg,AMSA19.jpg,AMSA02.jpg,AMNE18.jpg,AMSA02.jpg,MS,2,num_2,32,num_8,0.650220075797,,,2017_Jul_20_1520,60.0228132868,MAFE4ImagesEEG,001,100868,
AFNE01.JPG,AFNE01.JPG,AFNE01.JPG,AFNE01.JPG,AFNE01.JPG,AFNE01.JPG,,,,,,,,,3,3,33,0,,,,,,,,,,,,,,,AMNE05.jpg,AMNE04.jpg,AMSA16.jpg,AMSA20.jpg,AMSA20.jpg,MS,2,num_4,16,num_4,0.666829281894,,,2017_Jul_20_1520,60.0228132868,MAFE4ImagesEEG,001,100868,
AFNE01.JPG,AFNE01.JPG,AFNE01.JPG,AFNE01.JPG,AFNE01.JPG,AFNE01.JPG,,,,,,,,,3,4,34,9,,,,,,,,,,,,,,,AMNE11.jpg,AMSA16.jpg,AMSA03.jpg,AMNE15.jpg,AMSA16.jpg,MS,2,num_6,16,num_6,0.816498165834,,,2017_Jul_20_1520,60.0228132868,MAFE4ImagesEEG,001,100868,
AFNE01.JPG,AFNE01.JPG,AFNE01.JPG,AFNE01.JPG,AFNE01.JPG,AFNE01.JPG,,,,,,,,,3,5,35,3,,,,,,,,,,,,,,,AMSA03.jpg,AMNE06.jpg,AMNE04.jpg,AMSA20.jpg,AMSA20.jpg,MS,2,num_4,32,num_6,0.650153361901,,,2017_Jul_20_1520,60.0228132868,MAFE4ImagesEEG,001,100868,
AFNE01.JPG,AFNE01.JPG,AFNE01.JPG,AFNE01.JPG,AFNE01.JPG,AFNE01.JPG,,,,,,,,,3,6,36,7,,,,,,,,,,,,,,,AMNE04.jpg,AMSA15.jpg,AMSA05.jpg,AMNE13.jpg,AMSA15.jpg,MS,2,num_6,32,num_8,0.533487673441,,,2017_Jul_20_1520,60.0228132868,MAFE4ImagesEEG,001,100868,
AFNE01.JPG,AFNE01.JPG,AFNE01.JPG,AFNE01.JPG,AFNE01.JPG,AFNE01.JPG,,,,,,,,,3,7,37,6,,,,,,,,,,,,,,,AMSA10.jpg,AMNE04.jpg,AMNE19.jpg,AMSA17.jpg,AMNE04.jpg,MN,1,num_6,32,num_8,0.73346817249,,,2017_Jul_20_1520,60.0228132868,MAFE4ImagesEEG,001,100868,
AFNE01.JPG,AFNE01.JPG,AFNE01.JPG,AFNE01.JPG,AFNE01.JPG,AFNE01.JPG,,,,,,,,,3,8,38,2,,,,,,,,,,,,,,,AMNE04.jpg,AMSA10.jpg,AMNE06.jpg,AMSA12.jpg,AMSA12.jpg,MS,2,num_4,32,num_8,0.81679773709,,,2017_Jul_20_1520,60.0228132868,MAFE4ImagesEEG,001,100868,
AFNE01.JPG,AFNE01.JPG,AFNE01.JPG,AFNE01.JPG,AFNE01.JPG,AFNE01.JPG,,,,,,,,,3,9,39,5,,,,,,,,,,,,,,,AMSA15.jpg,AMNE01.jpg,AMSA18.jpg,AMNE07.jpg,AMSA15.jpg,MS,2,num_8,32,num_4,0.733452456188,,,2017_Jul_20_1520,60.0228132868,MAFE4ImagesEEG,001,100868,
AFNE01.JPG,AFNE01.JPG,AFNE01.JPG,AFNE01.JPG,AFNE01.JPG,AFNE01.JPG,,,,,,,,,4,0,40,7,,,,,,,,,,,,,,,AMSA19.jpg,AMSA12.jpg,AMNE17.jpg,AMNE07.jpg,AMSA19.jpg,MS,2,num_8,16,num_8,1.06672613189,,,2017_Jul_20_1520,60.0228132868,MAFE4ImagesEEG,001,100868,
AFNE01.JPG,AFNE01.JPG,AFNE01.JPG,AFNE01.JPG,AFNE01.JPG,AFNE01.JPG,,,,,,,,,4,1,41,2,,,,,,,,,,,,,,,AMNE15.jpg,AMNE13.jpg,AMSA01.jpg,AMSA09.jpg,AMSA01.jpg,MS,2,num_2,32,num_6,1.08346299251,,,2017_Jul_20_1520,60.0228132868,MAFE4ImagesEEG,001,100868,
AFNE01.JPG,AFNE01.JPG,AFNE01.JPG,AFNE01.JPG,AFNE01.JPG,AFNE01.JPG,,,,,,,,,4,2,42,0,,,,,,,,,,,,,,,AMSA12.jpg,AMNE13.jpg,AMSA02.jpg,AMNE08.jpg,AMNE08.jpg,MN,1,num_4,32,num_8,1.18348964601,,,2017_Jul_20_1520,60.0228132868,MAFE4ImagesEEG,001,100868,
AFNE01.JPG,AFNE01.JPG,AFNE01.JPG,AFNE01.JPG,AFNE01.JPG,AFNE01.JPG,,,,,,,,,4,3,43,3,,,,,,,,,,,,,,,AMNE03.jpg,AMSA05.jpg,AMSA02.jpg,AMNE06.jpg,AMSA05.jpg,MS,2,num_6,48,None,,,,2017_Jul_20_1520,60.0228132868,MAFE4ImagesEEG,001,100868,
AFNE01.JPG,AFNE01.JPG,AFNE01.JPG,AFNE01.JPG,AFNE01.JPG,AFNE01.JPG,,,,,,,,,4,4,44,8,,,,,,,,,,,,,,,AMNE01.jpg,AMSA07.jpg,AMNE04.jpg,AMSA12.jpg,AMSA12.jpg,MS,2,num_4,32,num_8,0.700230515911,,,2017_Jul_20_1520,60.0228132868,MAFE4ImagesEEG,001,100868,
AFNE01.JPG,AFNE01.JPG,AFNE01.JPG,AFNE01.JPG,AFNE01.JPG,AFNE01.JPG,,,,,,,,,4,5,45,5,,,,,,,,,,,,,,,AMNE06.jpg,AMSA09.jpg,AMSA19.jpg,AMNE16.jpg,AMNE16.jpg,MN,1,num_4,32,num_8,0.71684421238,,,2017_Jul_20_1520,60.0228132868,MAFE4ImagesEEG,001,100868,
AFNE01.JPG,AFNE01.JPG,AFNE01.JPG,AFNE01.JPG,AFNE01.JPG,AFNE01.JPG,,,,,,,,,4,6,46,6,,,,,,,,,,,,,,,AMSA17.jpg,AMNE01.jpg,AMNE16.jpg,AMSA12.jpg,AMSA17.jpg,MS,2,num_8,16,num_8,1.1668451585,,,2017_Jul_20_1520,60.0228132868,MAFE4ImagesEEG,001,100868,
AFNE01.JPG,AFNE01.JPG,AFNE01.JPG,AFNE01.JPG,AFNE01.JPG,AFNE01.JPG,,,,,,,,,4,7,47,4,,,,,,,,,,,,,,,AMNE16.jpg,AMSA09.jpg,AMSA19.jpg,AMNE12.jpg,AMSA19.jpg,MS,2,num_2,32,num_8,1.46677918232,,,2017_Jul_20_1520,60.0228132868,MAFE4ImagesEEG,001,100868,
AFNE01.JPG,AFNE01.JPG,AFNE01.JPG,AFNE01.JPG,AFNE01.JPG,AFNE01.JPG,,,,,,,,,4,8,48,1,,,,,,,,,,,,,,,AMSA17.jpg,AMNE11.jpg,AMNE16.jpg,AMSA15.jpg,AMNE16.jpg,MN,1,num_2,32,num_8,0.816781379399,,,2017_Jul_20_1520,60.0228132868,MAFE4ImagesEEG,001,100868,
AFNE01.JPG,AFNE01.JPG,AFNE01.JPG,AFNE01.JPG,AFNE01.JPG,AFNE01.JPG,,,,,,,,,4,9,49,9,,,,,,,,,,,,,,,AMNE18.jpg,AMNE17.jpg,AMSA17.jpg,AMSA16.jpg,AMSA16.jpg,MS,2,num_4,16,num_4,0.866829025326,,,2017_Jul_20_1520,60.0228132868,MAFE4ImagesEEG,001,100868,
AFNE01.JPG,AFNE01.JPG,AFNE01.JPG,AFNE01.JPG,AFNE01.JPG,AFNE01.JPG,,,,,,,,,5,0,50,9,,,,,,,,,,,,,,,AMNE05.jpg,AMNE17.jpg,AMSA01.jpg,AMSA15.jpg,AMNE17.jpg,MN,1,num_6,16,num_6,1.01677246281,,,2017_Jul_20_1520,60.0228132868,MAFE4ImagesEEG,001,100868,
AFNE01.JPG,AFNE01.JPG,AFNE01.JPG,AFNE01.JPG,AFNE01.JPG,AFNE01.JPG,,,,,,,,,5,1,51,5,,,,,,,,,,,,,,,AMNE07.jpg,AMSA01.jpg,AMSA11.jpg,AMNE13.jpg,AMNE07.jpg,MN,1,num_8,16,num_8,0.833817811275,,,2017_Jul_20_1520,60.0228132868,MAFE4ImagesEEG,001,100868,
AFNE01.JPG,AFNE01.JPG,AFNE01.JPG,AFNE01.JPG,AFNE01.JPG,AFNE01.JPG,,,,,,,,,5,2,52,8,,,,,,,,,,,,,,,AMNE10.jpg,AMSA11.jpg,AMNE08.jpg,AMSA08.jpg,AMSA08.jpg,MS,2,num_4,16,num_4,1.05013649096,,,2017_Jul_20_1520,60.0228132868,MAFE4ImagesEEG,001,100868,
AFNE01.JPG,AFNE01.JPG,AFNE01.JPG,AFNE01.JPG,AFNE01.JPG,AFNE01.JPG,,,,,,,,,5,3,53,7,,,,,,,,,,,,,,,AMSA04.jpg,AMSA02.jpg,AMNE19.jpg,AMNE14.jpg,AMSA02.jpg,MS,2,num_6,32,num_8,1.06676045107,,,2017_Jul_20_1520,60.0228132868,MAFE4ImagesEEG,001,100868,
AFNE01.JPG,AFNE01.JPG,AFNE01.JPG,AFNE01.JPG,AFNE01.JPG,AFNE01.JPG,,,,,,,,,5,4,54,6,,,,,,,,,,,,,,,AMNE20.jpg,AMNE06.jpg,AMSA15.jpg,AMSA04.jpg,AMNE06.jpg,MN,1,num_6,32,num_8,0.683301531943,,,2017_Jul_20_1520,60.0228132868,MAFE4ImagesEEG,001,100868,
AFNE01.JPG,AFNE01.JPG,AFNE01.JPG,AFNE01.JPG,AFNE01.JPG,AFNE01.JPG,,,,,,,,,5,5,55,4,,,,,,,,,,,,,,,AMNE03.jpg,AMSA12.jpg,AMNE10.jpg,AMSA07.jpg,AMSA12.jpg,MS,2,num_6,32,num_8,0.983542183239,,,2017_Jul_20_1520,60.0228132868,MAFE4ImagesEEG,001,100868,
AFNE01.JPG,AFNE01.JPG,AFNE01.JPG,AFNE01.JPG,AFNE01.JPG,AFNE01.JPG,,,,,,,,,5,6,56,1,,,,,,,,,,,,,,,AMSA15.jpg,AMSA14.jpg,AMNE15.jpg,AMNE07.jpg,AMNE07.jpg,MN,1,num_4,32,num_8,1.13354656141,,,2017_Jul_20_1520,60.0228132868,MAFE4ImagesEEG,001,100868,
AFNE01.JPG,AFNE01.JPG,AFNE01.JPG,AFNE01.JPG,AFNE01.JPG,AFNE01.JPG,,,,,,,,,5,7,57,3,,,,,,,,,,,,,,,AMNE17.jpg,AMSA05.jpg,AMSA13.jpg,AMNE02.jpg,AMSA05.jpg,MS,2,num_6,32,num_8,0.833462751994,,,2017_Jul_20_1520,60.0228132868,MAFE4ImagesEEG,001,100868,
AFNE01.JPG,AFNE01.JPG,AFNE01.JPG,AFNE01.JPG,AFNE01.JPG,AFNE01.JPG,,,,,,,,,5,8,58,2,,,,,,,,,,,,,,,AMNE17.jpg,AMSA05.jpg,AMSA07.jpg,AMNE04.jpg,AMNE04.jpg,MN,1,num_4,32,num_8,2.50030742941,,,2017_Jul_20_1520,60.0228132868,MAFE4ImagesEEG,001,100868,
AFNE01.JPG,AFNE01.JPG,AFNE01.JPG,AFNE01.JPG,AFNE01.JPG,AFNE01.JPG,,,,,,,,,5,9,59,0,,,,,,,,,,,,,,,AMNE20.jpg,AMSA10.jpg,AMNE14.jpg,AMSA17.jpg,AMSA17.jpg,MS,2,num_4,16,num_4,0.733527830103,,,2017_Jul_20_1520,60.0228132868,MAFE4ImagesEEG,001,100868,
,,,,,,,,,,,,,,,,,,,,,,,,,,,,,,,,,,,,,,,,,,,space,8.91614410083,2017_Jul_20_1520,60.0228132868,MAFE4ImagesEEG,001,100868,
AFNE01.JPG,AFNE01.JPG,AFNE01.JPG,AFNE01.JPG,AFNE01.JPG,AFNE01.JPG,,,,,,,,,,,,,0,0,0,2,,,,,,,,,,,AFSA05.jpg,AFSA11.jpg,AFNE20.jpg,AFNE14.jpg,AFNE20.jpg,FN,3,num_2,32,num_8,0.783472197712,,,2017_Jul_20_1520,60.0228132868,MAFE4ImagesEEG,001,100868,
AFNE01.JPG,AFNE01.JPG,AFNE01.JPG,AFNE01.JPG,AFNE01.JPG,AFNE01.JPG,,,,,,,,,,,,,0,1,1,6,,,,,,,,,,,AFNE09.jpg,AFSA11.jpg,AFNE06.jpg,AFSA08.jpg,AFSA11.jpg,FS,4,num_6,32,num_8,0.666786944203,,,2017_Jul_20_1520,60.0228132868,MAFE4ImagesEEG,001,100868,
AFNE01.JPG,AFNE01.JPG,AFNE01.JPG,AFNE01.JPG,AFNE01.JPG,AFNE01.JPG,,,,,,,,,,,,,0,2,2,9,,,,,,,,,,,AFNE16.jpg,AFSA05.jpg,AFSA02.jpg,AFNE17.jpg,AFNE17.jpg,FN,3,num_4,32,num_2,1.31675331463,,,2017_Jul_20_1520,60.0228132868,MAFE4ImagesEEG,001,100868,
AFNE01.JPG,AFNE01.JPG,AFNE01.JPG,AFNE01.JPG,AFNE01.JPG,AFNE01.JPG,,,,,,,,,,,,,0,3,3,0,,,,,,,,,,,AFNE04.jpg,AFNE18.jpg,AFSA04.jpg,AFSA14.jpg,AFNE04.jpg,FN,3,num_8,16,num_8,0.71684677829,,,2017_Jul_20_1520,60.0228132868,MAFE4ImagesEEG,001,100868,
AFNE01.JPG,AFNE01.JPG,AFNE01.JPG,AFNE01.JPG,AFNE01.JPG,AFNE01.JPG,,,,,,,,,,,,,0,4,4,1,,,,,,,,,,,AFSA05.jpg,AFNE04.jpg,AFSA12.jpg,AFNE16.jpg,AFNE16.jpg,FN,3,num_4,32,num_8,0.966643669643,,,2017_Jul_20_1520,60.0228132868,MAFE4ImagesEEG,001,100868,
AFNE01.JPG,AFNE01.JPG,AFNE01.JPG,AFNE01.JPG,AFNE01.JPG,AFNE01.JPG,,,,,,,,,,,,,0,5,5,3,,,,,,,,,,,AFNE02.jpg,AFSA12.jpg,AFSA09.jpg,AFNE04.jpg,AFNE02.jpg,FN,3,num_8,32,num_4,0.70015289681,,,2017_Jul_20_1520,60.0228132868,MAFE4ImagesEEG,001,100868,
AFNE01.JPG,AFNE01.JPG,AFNE01.JPG,AFNE01.JPG,AFNE01.JPG,AFNE01.JPG,,,,,,,,,,,,,0,6,6,7,,,,,,,,,,,AFSA09.jpg,AFSA13.jpg,AFNE02.jpg,AFNE03.jpg,AFSA13.jpg,FS,4,num_6,16,num_6,0.866784763173,,,2017_Jul_20_1520,60.0228132868,MAFE4ImagesEEG,001,100868,
AFNE01.JPG,AFNE01.JPG,AFNE01.JPG,AFNE01.JPG,AFNE01.JPG,AFNE01.JPG,,,,,,,,,,,,,0,7,7,8,,,,,,,,,,,AFSA08.jpg,AFNE18.jpg,AFSA20.jpg,AFNE02.jpg,AFNE02.jpg,FN,3,num_4,32,num_6,0.900166432082,,,2017_Jul_20_1520,60.0228132868,MAFE4ImagesEEG,001,100868,
AFNE01.JPG,AFNE01.JPG,AFNE01.JPG,AFNE01.JPG,AFNE01.JPG,AFNE01.JPG,,,,,,,,,,,,,0,8,8,5,,,,,,,,,,,AFSA13.jpg,AFNE15.jpg,AFSA12.jpg,AFNE16.jpg,AFNE15.jpg,FN,3,num_6,16,num_6,1.15011246747,,,2017_Jul_20_1520,60.0228132868,MAFE4ImagesEEG,001,100868,
AFNE01.JPG,AFNE01.JPG,AFNE01.JPG,AFNE01.JPG,AFNE01.JPG,AFNE01.JPG,,,,,,,,,,,,,0,9,9,4,,,,,,,,,,,AFNE10.jpg,AFNE04.jpg,AFSA01.jpg,AFSA13.jpg,AFSA13.jpg,FS,4,num_4,32,num_6,1.66671189101,,,2017_Jul_20_1520,60.0228132868,MAFE4ImagesEEG,001,100868,
AFNE01.JPG,AFNE01.JPG,AFNE01.JPG,AFNE01.JPG,AFNE01.JPG,AFNE01.JPG,,,,,,,,,,,,,1,0,10,9,,,,,,,,,,,AFNE13.jpg,AFSA09.jpg,AFSA19.jpg,AFNE08.jpg,AFNE13.jpg,FN,3,num_8,16,num_8,0.533523275633,,,2017_Jul_20_1520,60.0228132868,MAFE4ImagesEEG,001,100868,
AFNE01.JPG,AFNE01.JPG,AFNE01.JPG,AFNE01.JPG,AFNE01.JPG,AFNE01.JPG,,,,,,,,,,,,,1,1,11,7,,,,,,,,,,,AFSA06.jpg,AFNE20.jpg,AFNE10.jpg,AFSA02.jpg,AFSA02.jpg,FS,4,num_4,32,num_8,0.883505586826,,,2017_Jul_20_1520,60.0228132868,MAFE4ImagesEEG,001,100868,
AFNE01.JPG,AFNE01.JPG,AFNE01.JPG,AFNE01.JPG,AFNE01.JPG,AFNE01.JPG,,,,,,,,,,,,,1,2,12,4,,,,,,,,,,,AFSA04.jpg,AFSA18.jpg,AFNE17.jpg,AFNE15.jpg,AFSA18.jpg,FS,4,num_6,32,num_8,0.900134999538,,,2017_Jul_20_1520,60.0228132868,MAFE4ImagesEEG,001,100868,
AFNE01.JPG,AFNE01.JPG,AFNE01.JPG,AFNE01.JPG,AFNE01.JPG,AFNE01.JPG,,,,,,,,,,,,,1,3,13,5,,,,,,,,,,,AFNE06.jpg,AFSA14.jpg,AFSA13.jpg,AFNE08.jpg,AFSA13.jpg,FS,4,num_2,32,num_8,0.850140596449,,,2017_Jul_20_1520,60.0228132868,MAFE4ImagesEEG,001,100868,
AFNE01.JPG,AFNE01.JPG,AFNE01.JPG,AFNE01.JPG,AFNE01.JPG,AFNE01.JPG,,,,,,,,,,,,,1,4,14,3,,,,,,,,,,,AFSA08.jpg,AFSA01.jpg,AFNE17.jpg,AFNE09.jpg,AFSA08.jpg,FS,4,num_8,16,num_8,0.65022649063,,,2017_Jul_20_1520,60.0228132868,MAFE4ImagesEEG,001,100868,
AFNE01.JPG,AFNE01.JPG,AFNE01.JPG,AFNE01.JPG,AFNE01.JPG,AFNE01.JPG,,,,,,,,,,,,,1,5,15,0,,,,,,,,,,,AFSA01.jpg,AFNE13.jpg,AFSA04.jpg,AFNE05.jpg,AFNE05.jpg,FN,3,num_4,32,num_8,0.716789686529,,,2017_Jul_20_1520,60.0228132868,MAFE4ImagesEEG,001,100868,
AFNE01.JPG,AFNE01.JPG,AFNE01.JPG,AFNE01.JPG,AFNE01.JPG,AFNE01.JPG,,,,,,,,,,,,,1,6,16,1,,,,,,,,,,,AFNE05.jpg,AFSA20.jpg,AFNE09.jpg,AFSA17.jpg,AFNE05.jpg,FN,3,num_8,32,num_6,0.750152752502,,,2017_Jul_20_1520,60.0228132868,MAFE4ImagesEEG,001,100868,
AFNE01.JPG,AFNE01.JPG,AFNE01.JPG,AFNE01.JPG,AFNE01.JPG,AFNE01.JPG,,,,,,,,,,,,,1,7,17,6,,,,,,,,,,,AFSA13.jpg,AFNE03.jpg,AFSA06.jpg,AFNE14.jpg,AFNE14.jpg,FN,3,num_4,32,num_6,1.15011567489,,,2017_Jul_20_1520,60.0228132868,MAFE4ImagesEEG,001,100868,
AFNE01.JPG,AFNE01.JPG,AFNE01.JPG,AFNE01.JPG,AFNE01.JPG,AFNE01.JPG,,,,,,,,,,,,,1,8,18,8,,,,,,,,,,,AFSA16.jpg,AFSA02.jpg,AFNE02.jpg,AFNE05.jpg,AFNE05.jpg,FN,3,num_4,32,num_8,0.883464532089,,,2017_Jul_20_1520,60.0228132868,MAFE4ImagesEEG,001,100868,
AFNE01.JPG,AFNE01.JPG,AFNE01.JPG,AFNE01.JPG,AFNE01.JPG,AFNE01.JPG,,,,,,,,,,,,,1,9,19,2,,,,,,,,,,,AFSA05.jpg,AFNE05.jpg,AFNE11.jpg,AFSA12.jpg,AFSA12.jpg,FS,4,num_4,32,num_6,1.33349466557,,,2017_Jul_20_1520,60.0228132868,MAFE4ImagesEEG,001,100868,
AFNE01.JPG,AFNE01.JPG,AFNE01.JPG,AFNE01.JPG,AFNE01.JPG,AFNE01.JPG,,,,,,,,,,,,,2,0,20,2,,,,,,,,,,,AFSA02.jpg,AFSA16.jpg,AFNE13.jpg,AFNE10.jpg,AFNE13.jpg,FN,3,num_2,16,num_2,1.81670536398,,,2017_Jul_20_1520,60.0228132868,MAFE4ImagesEEG,001,100868,
AFNE01.JPG,AFNE01.JPG,AFNE01.JPG,AFNE01.JPG,AFNE01.JPG,AFNE01.JPG,,,,,,,,,,,,,2,1,21,7,,,,,,,,,,,AFSA15.jpg,AFSA12.jpg,AFNE15.jpg,AFNE01.jpg,AFNE01.jpg,FN,3,num_4,32,num_8,1.33343757386,,,2017_Jul_20_1520,60.0228132868,MAFE4ImagesEEG,001,100868,
AFNE01.JPG,AFNE01.JPG,AFNE01.JPG,AFNE01.JPG,AFNE01.JPG,AFNE01.JPG,,,,,,,,,,,,,2,2,22,5,,,,,,,,,,,AFNE13.jpg,AFNE10.jpg,AFSA01.jpg,AFSA15.jpg,AFNE13.jpg,FN,3,num_8,16,num_8,0.800173776981,,,2017_Jul_20_1520,60.0228132868,MAFE4ImagesEEG,001,100868,
AFNE01.JPG,AFNE01.JPG,AFNE01.JPG,AFNE01.JPG,AFNE01.JPG,AFNE01.JPG,,,,,,,,,,,,,2,3,23,1,,,,,,,,,,,AFSA05.jpg,AFSA06.jpg,AFNE02.jpg,AFNE10.jpg,AFSA05.jpg,FS,4,num_8,32,num_6,0.933557402401,,,2017_Jul_20_1520,60.0228132868,MAFE4ImagesEEG,001,100868,
AFNE01.JPG,AFNE01.JPG,AFNE01.JPG,AFNE01.JPG,AFNE01.JPG,AFNE01.JPG,,,,,,,,,,,,,2,4,24,0,,,,,,,,,,,AFNE14.jpg,AFSA19.jpg,AFSA09.jpg,AFNE09.jpg,AFSA19.jpg,FS,4,num_6,32,num_8,1.23343273066,,,2017_Jul_20_1520,60.0228132868,MAFE4ImagesEEG,001,100868,
AFNE01.JPG,AFNE01.JPG,AFNE01.JPG,AFNE01.JPG,AFNE01.JPG,AFNE01.JPG,,,,,,,,,,,,,2,5,25,3,,,,,,,,,,,AFSA06.jpg,AFNE01.jpg,AFSA05.jpg,AFNE12.jpg,AFSA05.jpg,FS,4,num_2,32,num_6,0.950159872882,,,2017_Jul_20_1520,60.0228132868,MAFE4ImagesEEG,001,100868,
AFNE01.JPG,AFNE01.JPG,AFNE01.JPG,AFNE01.JPG,AFNE01.JPG,AFNE01.JPG,,,,,,,,,,,,,2,6,26,4,,,,,,,,,,,AFNE13.jpg,AFNE09.jpg,AFSA11.jpg,AFSA13.jpg,AFNE13.jpg,FN,3,num_8,16,num_8,0.866664164874,,,2017_Jul_20_1520,60.0228132868,MAFE4ImagesEEG,001,100868,
AFNE01.JPG,AFNE01.JPG,AFNE01.JPG,AFNE01.JPG,AFNE01.JPG,AFNE01.JPG,,,,,,,,,,,,,2,7,27,6,,,,,,,,,,,AFSA06.jpg,AFSA13.jpg,AFNE16.jpg,AFNE19.jpg,AFNE16.jpg,FN,3,num_2,32,num_6,1.11680488958,,,2017_Jul_20_1520,60.0228132868,MAFE4ImagesEEG,001,100868,
AFNE01.JPG,AFNE01.JPG,AFNE01.JPG,AFNE01.JPG,AFNE01.JPG,AFNE01.JPG,,,,,,,,,,,,,2,8,28,9,,,,,,,,,,,AFSA09.jpg,AFNE14.jpg,AFNE03.jpg,AFSA19.jpg,AFNE14.jpg,FN,3,num_6,16,num_6,0.966802435985,,,2017_Jul_20_1520,60.0228132868,MAFE4ImagesEEG,001,100868,
AFNE01.JPG,AFNE01.JPG,AFNE01.JPG,AFNE01.JPG,AFNE01.JPG,AFNE01.JPG,,,,,,,,,,,,,2,9,29,8,,,,,,,,,,,AFNE18.jpg,AFSA16.jpg,AFNE04.jpg,AFSA17.jpg,AFSA16.jpg,FS,4,num_6,32,num_8,0.550207534863,,,2017_Jul_20_1520,60.0228132868,MAFE4ImagesEEG,001,100868,
AFNE01.JPG,AFNE01.JPG,AFNE01.JPG,AFNE01.JPG,AFNE01.JPG,AFNE01.JPG,,,,,,,,,,,,,3,0,30,2,,,,,,,,,,,AFNE06.jpg,AFSA13.jpg,AFSA06.jpg,AFNE07.jpg,AFSA13.jpg,FS,4,num_6,16,num_6,0.533143198583,,,2017_Jul_20_1520,60.0228132868,MAFE4ImagesEEG,001,100868,
AFNE01.JPG,AFNE01.JPG,AFNE01.JPG,AFNE01.JPG,AFNE01.JPG,AFNE01.JPG,,,,,,,,,,,,,3,1,31,9,,,,,,,,,,,AFSA14.jpg,AFSA13.jpg,AFNE11.jpg,AFNE20.jpg,AFNE20.jpg,FN,3,num_4,16,num_4,0.799996407761,,,2017_Jul_20_1520,60.0228132868,MAFE4ImagesEEG,001,100868,
AFNE01.JPG,AFNE01.JPG,AFNE01.JPG,AFNE01.JPG,AFNE01.JPG,AFNE01.JPG,,,,,,,,,,,,,3,2,32,3,,,,,,,,,,,AFSA17.jpg,AFSA02.jpg,AFNE08.jpg,AFNE01.jpg,AFSA17.jpg,FS,4,num_8,16,num_8,1.26657833485,,,2017_Jul_20_1520,60.0228132868,MAFE4ImagesEEG,001,100868,
AFNE01.JPG,AFNE01.JPG,AFNE01.JPG,AFNE01.JPG,AFNE01.JPG,AFNE01.JPG,,,,,,,,,,,,,3,3,33,8,,,,,,,,,,,AFNE06.jpg,AFNE08.jpg,AFSA12.jpg,AFSA02.jpg,AFSA12.jpg,FS,4,num_2,32,num_6,0.883351310797,,,2017_Jul_20_1520,60.0228132868,MAFE4ImagesEEG,001,100868,
AFNE01.JPG,AFNE01.JPG,AFNE01.JPG,AFNE01.JPG,AFNE01.JPG,AFNE01.JPG,,,,,,,,,,,,,3,4,34,0,,,,,,,,,,,AFSA13.jpg,AFSA09.jpg,AFNE11.jpg,AFNE12.jpg,AFNE11.jpg,FN,3,num_2,16,num_2,0.716791290208,,,2017_Jul_20_1520,60.0228132868,MAFE4ImagesEEG,001,100868,
AFNE01.JPG,AFNE01.JPG,AFNE01.JPG,AFNE01.JPG,AFNE01.JPG,AFNE01.JPG,,,,,,,,,,,,,3,5,35,5,,,,,,,,,,,AFNE17.jpg,AFSA17.jpg,AFNE14.jpg,AFSA08.jpg,AFNE14.jpg,FN,3,num_2,32,num_6,2.01668073115,,,2017_Jul_20_1520,60.0228132868,MAFE4ImagesEEG,001,100868,
AFNE01.JPG,AFNE01.JPG,AFNE01.JPG,AFNE01.JPG,AFNE01.JPG,AFNE01.JPG,,,,,,,,,,,,,3,6,36,7,,,,,,,,,,,AFSA12.jpg,AFSA16.jpg,AFNE09.jpg,AFNE05.jpg,AFSA16.jpg,FS,4,num_6,32,num_8,0.933482669934,,,2017_Jul_20_1520,60.0228132868,MAFE4ImagesEEG,001,100868,
AFNE01.JPG,AFNE01.JPG,AFNE01.JPG,AFNE01.JPG,AFNE01.JPG,AFNE01.JPG,,,,,,,,,,,,,3,7,37,1,,,,,,,,,,,AFNE01.jpg,AFSA08.jpg,AFNE02.jpg,AFSA05.jpg,AFNE02.jpg,FN,3,num_2,32,num_8,0.933454124024,,,2017_Jul_20_1520,60.0228132868,MAFE4ImagesEEG,001,100868,
AFNE01.JPG,AFNE01.JPG,AFNE01.JPG,AFNE01.JPG,AFNE01.JPG,AFNE01.JPG,,,,,,,,,,,,,3,8,38,4,,,,,,,,,,,AFNE16.jpg,AFSA11.jpg,AFSA04.jpg,AFNE07.jpg,AFSA04.jpg,FS,4,num_2,32,num_8,1.20020116819,,,2017_Jul_20_1520,60.0228132868,MAFE4ImagesEEG,001,100868,
AFNE01.JPG,AFNE01.JPG,AFNE01.JPG,AFNE01.JPG,AFNE01.JPG,AFNE01.JPG,,,,,,,,,,,,,3,9,39,6,,,,,,,,,,,AFNE08.jpg,AFSA07.jpg,AFSA10.jpg,AFNE18.jpg,AFSA10.jpg,FS,4,num_2,32,num_6,0.9168099573,,,2017_Jul_20_1520,60.0228132868,MAFE4ImagesEEG,001,100868,
AFNE01.JPG,AFNE01.JPG,AFNE01.JPG,AFNE01.JPG,AFNE01.JPG,AFNE01.JPG,,,,,,,,,,,,,4,0,40,2,,,,,,,,,,,AFNE06.jpg,AFSA08.jpg,AFNE18.jpg,AFSA17.jpg,AFNE18.jpg,FN,3,num_2,16,num_2,1.18372506928,,,2017_Jul_20_1520,60.0228132868,MAFE4ImagesEEG,001,100868,
AFNE01.JPG,AFNE01.JPG,AFNE01.JPG,AFNE01.JPG,AFNE01.JPG,AFNE01.JPG,,,,,,,,,,,,,4,1,41,3,,,,,,,,,,,AFSA19.jpg,AFNE12.jpg,AFNE02.jpg,AFSA08.jpg,AFNE12.jpg,FN,3,num_6,16,num_6,0.600141638832,,,2017_Jul_20_1520,60.0228132868,MAFE4ImagesEEG,001,100868,
AFNE01.JPG,AFNE01.JPG,AFNE01.JPG,AFNE01.JPG,AFNE01.JPG,AFNE01.JPG,,,,,,,,,,,,,4,2,42,5,,,,,,,,,,,AFNE10.jpg,AFSA11.jpg,AFNE07.jpg,AFSA04.jpg,AFSA04.jpg,FS,4,num_4,32,num_2,1.1001042726,,,2017_Jul_20_1520,60.0228132868,MAFE4ImagesEEG,001,100868,
AFNE01.JPG,AFNE01.JPG,AFNE01.JPG,AFNE01.JPG,AFNE01.JPG,AFNE01.JPG,,,,,,,,,,,,,4,3,43,9,,,,,,,,,,,AFNE19.jpg,AFSA08.jpg,AFSA06.jpg,AFNE14.jpg,AFSA06.jpg,FS,4,num_2,32,num_4,0.750150186534,,,2017_Jul_20_1520,60.0228132868,MAFE4ImagesEEG,001,100868,
AFNE01.JPG,AFNE01.JPG,AFNE01.JPG,AFNE01.JPG,AFNE01.JPG,AFNE01.JPG,,,,,,,,,,,,,4,4,44,0,,,,,,,,,,,AFNE05.jpg,AFSA19.jpg,AFSA08.jpg,AFNE16.jpg,AFSA08.jpg,FS,4,num_2,32,num_6,0.766778316291,,,2017_Jul_20_1520,60.0228132868,MAFE4ImagesEEG,001,100868,
AFNE01.JPG,AFNE01.JPG,AFNE01.JPG,AFNE01.JPG,AFNE01.JPG,AFNE01.JPG,,,,,,,,,,,,,4,5,45,1,,,,,,,,,,,AFNE02.jpg,AFSA10.jpg,AFSA06.jpg,AFNE10.jpg,AFNE10.jpg,FN,3,num_4,32,num_8,1.03342272359,,,2017_Jul_20_1520,60.0228132868,MAFE4ImagesEEG,001,100868,
AFNE01.JPG,AFNE01.JPG,AFNE01.JPG,AFNE01.JPG,AFNE01.JPG,AFNE01.JPG,,,,,,,,,,,,,4,6,46,7,,,,,,,,,,,AFNE05.jpg,AFSA09.jpg,AFNE16.jpg,AFSA18.jpg,AFSA09.jpg,FS,4,num_6,32,num_8,0.93347112328,,,2017_Jul_20_1520,60.0228132868,MAFE4ImagesEEG,001,100868,
AFNE01.JPG,AFNE01.JPG,AFNE01.JPG,AFNE01.JPG,AFNE01.JPG,AFNE01.JPG,,,,,,,,,,,,,4,7,47,4,,,,,,,,,,,AFNE10.jpg,AFNE11.jpg,AFSA18.jpg,AFSA16.jpg,AFNE10.jpg,FN,3,num_8,32,num_6,0.78344718006,,,2017_Jul_20_1520,60.0228132868,MAFE4ImagesEEG,001,100868,
AFNE01.JPG,AFNE01.JPG,AFNE01.JPG,AFNE01.JPG,AFNE01.JPG,AFNE01.JPG,,,,,,,,,,,,,4,8,48,8,,,,,,,,,,,AFSA14.jpg,AFSA18.jpg,AFNE17.jpg,AFNE07.jpg,AFNE07.jpg,FN,3,num_4,16,num_4,1.2499181311,,,2017_Jul_20_1520,60.0228132868,MAFE4ImagesEEG,001,100868,
AFNE01.JPG,AFNE01.JPG,AFNE01.JPG,AFNE01.JPG,AFNE01.JPG,AFNE01.JPG,,,,,,,,,,,,,4,9,49,6,,,,,,,,,,,AFSA13.jpg,AFNE05.jpg,AFSA11.jpg,AFNE12.jpg,AFSA11.jpg,FS,4,num_2,32,num_6,0.783454236283,,,2017_Jul_20_1520,60.0228132868,MAFE4ImagesEEG,001,100868,
AFNE01.JPG,AFNE01.JPG,AFNE01.JPG,AFNE01.JPG,AFNE01.JPG,AFNE01.JPG,,,,,,,,,,,,,5,0,50,9,,,,,,,,,,,AFNE20.jpg,AFNE08.jpg,AFSA02.jpg,AFSA09.jpg,AFSA02.jpg,FS,4,num_2,32,num_8,0.600131695857,,,2017_Jul_20_1520,60.0228132868,MAFE4ImagesEEG,001,100868,
AFNE01.JPG,AFNE01.JPG,AFNE01.JPG,AFNE01.JPG,AFNE01.JPG,AFNE01.JPG,,,,,,,,,,,,,5,1,51,5,,,,,,,,,,,AFNE09.jpg,AFSA05.jpg,AFNE12.jpg,AFSA01.jpg,AFSA01.jpg,FS,4,num_4,32,num_8,1.01673814363,,,2017_Jul_20_1520,60.0228132868,MAFE4ImagesEEG,001,100868,
AFNE01.JPG,AFNE01.JPG,AFNE01.JPG,AFNE01.JPG,AFNE01.JPG,AFNE01.JPG,,,,,,,,,,,,,5,2,52,1,,,,,,,,,,,AFSA05.jpg,AFSA14.jpg,AFNE07.jpg,AFNE15.jpg,AFSA05.jpg,FS,4,num_8,32,num_6,1.23368290794,,,2017_Jul_20_1520,60.0228132868,MAFE4ImagesEEG,001,100868,
AFNE01.JPG,AFNE01.JPG,AFNE01.JPG,AFNE01.JPG,AFNE01.JPG,AFNE01.JPG,,,,,,,,,,,,,5,3,53,8,,,,,,,,,,,AFSA12.jpg,AFNE02.jpg,AFSA17.jpg,AFNE19.jpg,AFSA17.jpg,FS,4,num_2,32,num_8,0.700146802759,,,2017_Jul_20_1520,60.0228132868,MAFE4ImagesEEG,001,100868,
AFNE01.JPG,AFNE01.JPG,AFNE01.JPG,AFNE01.JPG,AFNE01.JPG,AFNE01.JPG,,,,,,,,,,,,,5,4,54,0,,,,,,,,,,,AFSA11.jpg,AFSA01.jpg,AFNE07.jpg,AFNE10.jpg,AFSA11.jpg,FS,4,num_8,16,num_8,1.45007856534,,,2017_Jul_20_1520,60.0228132868,MAFE4ImagesEEG,001,100868,
AFNE01.JPG,AFNE01.JPG,AFNE01.JPG,AFNE01.JPG,AFNE01.JPG,AFNE01.JPG,,,,,,,,,,,,,5,5,55,7,,,,,,,,,,,AFNE04.jpg,AFSA13.jpg,AFNE18.jpg,AFSA05.jpg,AFNE18.jpg,FN,3,num_2,32,num_6,1.01674808655,,,2017_Jul_20_1520,60.0228132868,MAFE4ImagesEEG,001,100868,
AFNE01.JPG,AFNE01.JPG,AFNE01.JPG,AFNE01.JPG,AFNE01.JPG,AFNE01.JPG,,,,,,,,,,,,,5,6,56,6,,,,,,,,,,,AFNE20.jpg,AFNE08.jpg,AFSA05.jpg,AFSA07.jpg,AFNE20.jpg,FN,3,num_8,16,num_8,1.1334731119,,,2017_Jul_20_1520,60.0228132868,MAFE4ImagesEEG,001,100868,
AFNE01.JPG,AFNE01.JPG,AFNE01.JPG,AFNE01.JPG,AFNE01.JPG,AFNE01.JPG,,,,,,,,,,,,,5,7,57,2,,,,,,,,,,,AFSA19.jpg,AFNE19.jpg,AFSA11.jpg,AFNE06.jpg,AFNE19.jpg,FN,3,num_6,32,num_8,1.28346305666,,,2017_Jul_20_1520,60.0228132868,MAFE4ImagesEEG,001,100868,
AFNE01.JPG,AFNE01.JPG,AFNE01.JPG,AFNE01.JPG,AFNE01.JPG,AFNE01.JPG,,,,,,,,,,,,,5,8,58,4,,,,,,,,,,,AFNE09.jpg,AFNE20.jpg,AFSA03.jpg,AFSA16.jpg,AFSA03.jpg,FS,4,num_2,32,num_6,0.950115290005,,,2017_Jul_20_1520,60.0228132868,MAFE4ImagesEEG,001,100868,
AFNE01.JPG,AFNE01.JPG,AFNE01.JPG,AFNE01.JPG,AFNE01.JPG,AFNE01.JPG,,,,,,,,,,,,,5,9,59,3,,,,,,,,,,,AFSA11.jpg,AFSA02.jpg,AFNE15.jpg,AFNE02.jpg,AFSA11.jpg,FS,4,num_8,32,num_4,0.833498033404,,,2017_Jul_20_1520,60.0228132868,MAFE4ImagesEEG,001,100868,
,,,,,,,,,,,,,,,,,,,,,,,,,,,,,,,,,,,,,,,,,,,space,20.8818996411,2017_Jul_20_1520,60.0228132868,MAFE4ImagesEEG,001,100868,
AFNE01.JPG,AFNE01.JPG,AFNE01.JPG,AFNE01.JPG,AFNE01.JPG,AFNE01.JPG,,,,,,,,,,,,,,,,,0,0,0,2,,,,,,,AMSA01.jpg,AMNE12.jpg,AMSA07.jpg,AMNE13.jpg,AMSA01.jpg,MS,2,num_8,16,num_8,0.833509259275,,,2017_Jul_20_1520,60.0228132868,MAFE4ImagesEEG,001,100868,
AFNE01.JPG,AFNE01.JPG,AFNE01.JPG,AFNE01.JPG,AFNE01.JPG,AFNE01.JPG,,,,,,,,,,,,,,,,,0,1,1,6,,,,,,,AMSA10.jpg,AMSA19.jpg,AMNE10.jpg,AMNE08.jpg,AMSA10.jpg,MS,2,num_8,16,num_8,0.900127943198,,,2017_Jul_20_1520,60.0228132868,MAFE4ImagesEEG,001,100868,
AFNE01.JPG,AFNE01.JPG,AFNE01.JPG,AFNE01.JPG,AFNE01.JPG,AFNE01.JPG,,,,,,,,,,,,,,,,,0,2,2,7,,,,,,,AMSA15.jpg,AMNE02.jpg,AMNE15.jpg,AMSA13.jpg,AMSA13.jpg,MS,2,num_4,32,num_8,0.600174354331,,,2017_Jul_20_1520,60.0228132868,MAFE4ImagesEEG,001,100868,
AFNE01.JPG,AFNE01.JPG,AFNE01.JPG,AFNE01.JPG,AFNE01.JPG,AFNE01.JPG,,,,,,,,,,,,,,,,,0,3,3,4,,,,,,,AMNE09.jpg,AMNE16.jpg,AMSA01.jpg,AMSA10.jpg,AMSA01.jpg,MS,2,num_2,16,num_2,0.783467386675,,,2017_Jul_20_1520,60.0228132868,MAFE4ImagesEEG,001,100868,
AFNE01.JPG,AFNE01.JPG,AFNE01.JPG,AFNE01.JPG,AFNE01.JPG,AFNE01.JPG,,,,,,,,,,,,,,,,,0,4,4,3,,,,,,,AMNE01.jpg,AMSA04.jpg,AMSA02.jpg,AMNE15.jpg,AMNE15.jpg,MN,1,num_4,16,num_4,0.750150507316,,,2017_Jul_20_1520,60.0228132868,MAFE4ImagesEEG,001,100868,
AFNE01.JPG,AFNE01.JPG,AFNE01.JPG,AFNE01.JPG,AFNE01.JPG,AFNE01.JPG,,,,,,,,,,,,,,,,,0,5,5,9,,,,,,,AMNE18.jpg,AMSA07.jpg,AMSA08.jpg,AMNE17.jpg,AMNE17.jpg,MN,1,num_4,32,num_8,0.800132080738,,,2017_Jul_20_1520,60.0228132868,MAFE4ImagesEEG,001,100868,
AFNE01.JPG,AFNE01.JPG,AFNE01.JPG,AFNE01.JPG,AFNE01.JPG,AFNE01.JPG,,,,,,,,,,,,,,,,,0,6,6,0,,,,,,,AMSA07.jpg,AMNE10.jpg,AMSA11.jpg,AMNE15.jpg,AMNE10.jpg,MN,1,num_6,32,num_8,0.950112082646,,,2017_Jul_20_1520,60.0228132868,MAFE4ImagesEEG,001,100868,
AFNE01.JPG,AFNE01.JPG,AFNE01.JPG,AFNE01.JPG,AFNE01.JPG,AFNE01.JPG,,,,,,,,,,,,,,,,,0,7,7,5,,,,,,,AMSA12.jpg,AMSA03.jpg,AMNE06.jpg,AMNE16.jpg,AMSA12.jpg,MS,2,num_8,32,num_6,0.766693640908,,,2017_Jul_20_1520,60.0228132868,MAFE4ImagesEEG,001,100868,
AFNE01.JPG,AFNE01.JPG,AFNE01.JPG,AFNE01.JPG,AFNE01.JPG,AFNE01.JPG,,,,,,,,,,,,,,,,,0,8,8,8,,,,,,,AMNE10.jpg,AMNE03.jpg,AMSA11.jpg,AMSA15.jpg,AMNE10.jpg,MN,1,num_8,16,num_8,1.45016163698,,,2017_Jul_20_1520,60.0228132868,MAFE4ImagesEEG,001,100868,
AFNE01.JPG,AFNE01.JPG,AFNE01.JPG,AFNE01.JPG,AFNE01.JPG,AFNE01.JPG,,,,,,,,,,,,,,,,,0,9,9,1,,,,,,,AMNE15.jpg,AMSA19.jpg,AMSA13.jpg,AMNE20.jpg,AMNE15.jpg,MN,1,num_8,16,num_8,0.80016255111,,,2017_Jul_20_1520,60.0228132868,MAFE4ImagesEEG,001,100868,
AFNE01.JPG,AFNE01.JPG,AFNE01.JPG,AFNE01.JPG,AFNE01.JPG,AFNE01.JPG,,,,,,,,,,,,,,,,,1,0,10,9,,,,,,,AMSA01.jpg,AMNE09.jpg,AMSA02.jpg,AMNE01.jpg,AMNE01.jpg,MN,1,num_4,32,num_6,0.816787794174,,,2017_Jul_20_1520,60.0228132868,MAFE4ImagesEEG,001,100868,
AFNE01.JPG,AFNE01.JPG,AFNE01.JPG,AFNE01.JPG,AFNE01.JPG,AFNE01.JPG,,,,,,,,,,,,,,,,,1,1,11,2,,,,,,,AMSA11.jpg,AMSA08.jpg,AMNE05.jpg,AMNE09.jpg,AMNE05.jpg,MN,1,num_2,32,num_8,1.28340917232,,,2017_Jul_20_1520,60.0228132868,MAFE4ImagesEEG,001,100868,
AFNE01.JPG,AFNE01.JPG,AFNE01.JPG,AFNE01.JPG,AFNE01.JPG,AFNE01.JPG,,,,,,,,,,,,,,,,,1,2,12,4,,,,,,,AMNE13.jpg,AMSA13.jpg,AMSA19.jpg,AMNE20.jpg,AMNE13.jpg,MN,1,num_8,16,num_8,1.63341008639,,,2017_Jul_20_1520,60.0228132868,MAFE4ImagesEEG,001,100868,
AFNE01.JPG,AFNE01.JPG,AFNE01.JPG,AFNE01.JPG,AFNE01.JPG,AFNE01.JPG,,,,,,,,,,,,,,,,,1,3,13,6,,,,,,,AMSA13.jpg,AMNE14.jpg,AMNE09.jpg,AMSA04.jpg,AMNE14.jpg,MN,1,num_6,16,num_6,1.03343779838,,,2017_Jul_20_1520,60.0228132868,MAFE4ImagesEEG,001,100868,
AFNE01.JPG,AFNE01.JPG,AFNE01.JPG,AFNE01.JPG,AFNE01.JPG,AFNE01.JPG,,,,,,,,,,,,,,,,,1,4,14,7,,,,,,,AMSA20.jpg,AMNE12.jpg,AMSA14.jpg,AMNE01.jpg,AMSA14.jpg,MS,2,num_2,32,num_8,0.966835151485,,,2017_Jul_20_1520,60.0228132868,MAFE4ImagesEEG,001,100868,
AFNE01.JPG,AFNE01.JPG,AFNE01.JPG,AFNE01.JPG,AFNE01.JPG,AFNE01.JPG,,,,,,,,,,,,,,,,,1,5,15,8,,,,,,,AMNE05.jpg,AMNE11.jpg,AMSA01.jpg,AMSA08.jpg,AMNE11.jpg,MN,1,num_6,16,num_6,0.883448815788,,,2017_Jul_20_1520,60.0228132868,MAFE4ImagesEEG,001,100868,
AFNE01.JPG,AFNE01.JPG,AFNE01.JPG,AFNE01.JPG,AFNE01.JPG,AFNE01.JPG,,,,,,,,,,,,,,,,,1,6,16,5,,,,,,,AMSA13.jpg,AMNE14.jpg,AMNE19.jpg,AMSA15.jpg,AMNE19.jpg,MN,1,num_2,32,num_6,1.23344139068,,,2017_Jul_20_1520,60.0228132868,MAFE4ImagesEEG,001,100868,
AFNE01.JPG,AFNE01.JPG,AFNE01.JPG,AFNE01.JPG,AFNE01.JPG,AFNE01.JPG,,,,,,,,,,,,,,,,,1,7,17,0,,,,,,,AMNE06.jpg,AMSA12.jpg,AMSA06.jpg,AMNE14.jpg,AMSA12.jpg,MS,2,num_6,32,num_2,1.51672002178,,,2017_Jul_20_1520,60.0228132868,MAFE4ImagesEEG,001,100868,
AFNE01.JPG,AFNE01.JPG,AFNE01.JPG,AFNE01.JPG,AFNE01.JPG,AFNE01.JPG,,,,,,,,,,,,,,,,,1,8,18,1,,,,,,,AMSA15.jpg,AMNE12.jpg,AMNE09.jpg,AMSA01.jpg,AMNE09.jpg,MN,1,num_2,16,num_2,0.98345879087,,,2017_Jul_20_1520,60.0228132868,MAFE4ImagesEEG,001,100868,
AFNE01.JPG,AFNE01.JPG,AFNE01.JPG,AFNE01.JPG,AFNE01.JPG,AFNE01.JPG,,,,,,,,,,,,,,,,,1,9,19,3,,,,,,,AMSA13.jpg,AMNE16.jpg,AMNE12.jpg,AMSA11.jpg,AMSA11.jpg,MS,2,num_4,32,num_8,1.1168789806,,,2017_Jul_20_1520,60.0228132868,MAFE4ImagesEEG,001,100868,
AFNE01.JPG,AFNE01.JPG,AFNE01.JPG,AFNE01.JPG,AFNE01.JPG,AFNE01.JPG,,,,,,,,,,,,,,,,,2,0,20,8,,,,,,,AMNE06.jpg,AMNE04.jpg,AMSA02.jpg,AMSA18.jpg,AMSA02.jpg,MS,2,num_2,32,num_4,1.03346217464,,,2017_Jul_20_1520,60.0228132868,MAFE4ImagesEEG,001,100868,
AFNE01.JPG,AFNE01.JPG,AFNE01.JPG,AFNE01.JPG,AFNE01.JPG,AFNE01.JPG,,,,,,,,,,,,,,,,,2,1,21,4,,,,,,,AMNE13.jpg,AMSA18.jpg,AMSA05.jpg,AMNE09.jpg,AMNE13.jpg,MN,1,num_8,16,num_8,0.983446923434,,,2017_Jul_20_1520,60.0228132868,MAFE4ImagesEEG,001,100868,
AFNE01.JPG,AFNE01.JPG,AFNE01.JPG,AFNE01.JPG,AFNE01.JPG,AFNE01.JPG,,,,,,,,,,,,,,,,,2,2,22,7,,,,,,,AMNE05.jpg,AMNE14.jpg,AMSA12.jpg,AMSA19.jpg,AMNE05.jpg,MN,1,num_8,16,num_8,1.33347061009,,,2017_Jul_20_1520,60.0228132868,MAFE4ImagesEEG,001,100868,
AFNE01.JPG,AFNE01.JPG,AFNE01.JPG,AFNE01.JPG,AFNE01.JPG,AFNE01.JPG,,,,,,,,,,,,,,,,,2,3,23,5,,,,,,,AMSA10.jpg,AMNE02.jpg,AMSA07.jpg,AMNE03.jpg,AMNE03.jpg,MN,1,num_4,32,num_2,1.78334646765,,,2017_Jul_20_1520,60.0228132868,MAFE4ImagesEEG,001,100868,
AFNE01.JPG,AFNE01.JPG,AFNE01.JPG,AFNE01.JPG,AFNE01.JPG,AFNE01.JPG,,,,,,,,,,,,,,,,,2,4,24,2,,,,,,,AMSA16.jpg,AMNE17.jpg,AMNE18.jpg,AMSA19.jpg,AMNE18.jpg,MN,1,num_2,32,num_6,0.950108233781,,,2017_Jul_20_1520,60.0228132868,MAFE4ImagesEEG,001,100868,
AFNE01.JPG,AFNE01.JPG,AFNE01.JPG,AFNE01.JPG,AFNE01.JPG,AFNE01.JPG,,,,,,,,,,,,,,,,,2,5,25,3,,,,,,,AMSA15.jpg,AMNE09.jpg,AMSA06.jpg,AMNE18.jpg,AMSA15.jpg,MS,2,num_8,16,num_8,0.966776456044,,,2017_Jul_20_1520,60.0228132868,MAFE4ImagesEEG,001,100868,
AFNE01.JPG,AFNE01.JPG,AFNE01.JPG,AFNE01.JPG,AFNE01.JPG,AFNE01.JPG,,,,,,,,,,,,,,,,,2,6,26,1,,,,,,,AMSA05.jpg,AMNE15.jpg,AMNE19.jpg,AMSA20.jpg,AMSA20.jpg,MS,2,num_4,32,num_8,0.850152463827,,,2017_Jul_20_1520,60.0228132868,MAFE4ImagesEEG,001,100868,
AFNE01.JPG,AFNE01.JPG,AFNE01.JPG,AFNE01.JPG,AFNE01.JPG,AFNE01.JPG,,,,,,,,,,,,,,,,,2,7,27,6,,,,,,,AMSA16.jpg,AMSA10.jpg,AMNE10.jpg,AMNE04.jpg,AMSA10.jpg,MS,2,num_6,32,num_8,0.883448815788,,,2017_Jul_20_1520,60.0228132868,MAFE4ImagesEEG,001,100868,
AFNE01.JPG,AFNE01.JPG,AFNE01.JPG,AFNE01.JPG,AFNE01.JPG,AFNE01.JPG,,,,,,,,,,,,,,,,,2,8,28,9,,,,,,,AMSA08.jpg,AMSA19.jpg,AMNE18.jpg,AMNE01.jpg,AMSA08.jpg,MS,2,num_8,16,num_8,0.866815874993,,,2017_Jul_20_1520,60.0228132868,MAFE4ImagesEEG,001,100868,
AFNE01.JPG,AFNE01.JPG,AFNE01.JPG,AFNE01.JPG,AFNE01.JPG,AFNE01.JPG,,,,,,,,,,,,,,,,,2,9,29,0,,,,,,,AMNE11.jpg,AMSA14.jpg,AMSA17.jpg,AMNE19.jpg,AMNE19.jpg,MN,1,num_4,32,num_8,3.0500405897,,,2017_Jul_20_1520,60.0228132868,MAFE4ImagesEEG,001,100868,
AFNE01.JPG,AFNE01.JPG,AFNE01.JPG,AFNE01.JPG,AFNE01.JPG,AFNE01.JPG,,,,,,,,,,,,,,,,,3,0,30,4,,,,,,,AMNE04.jpg,AMSA12.jpg,AMNE03.jpg,AMSA06.jpg,AMNE04.jpg,MN,1,num_8,16,num_8,0.63351015735,,,2017_Jul_20_1520,60.0228132868,MAFE4ImagesEEG,001,100868,
AFNE01.JPG,AFNE01.JPG,AFNE01.JPG,AFNE01.JPG,AFNE01.JPG,AFNE01.JPG,,,,,,,,,,,,,,,,,3,1,31,8,,,,,,,AMSA18.jpg,AMNE03.jpg,AMNE06.jpg,AMSA08.jpg,AMSA08.jpg,MS,2,num_4,32,num_6,0.766691395722,,,2017_Jul_20_1520,60.0228132868,MAFE4ImagesEEG,001,100868,
AFNE01.JPG,AFNE01.JPG,AFNE01.JPG,AFNE01.JPG,AFNE01.JPG,AFNE01.JPG,,,,,,,,,,,,,,,,,3,2,32,7,,,,,,,AMNE14.jpg,AMSA12.jpg,AMNE20.jpg,AMSA01.jpg,AMNE20.jpg,MN,1,num_2,32,num_6,1.00010776863,,,2017_Jul_20_1520,60.0228132868,MAFE4ImagesEEG,001,100868,
AFNE01.JPG,AFNE01.JPG,AFNE01.JPG,AFNE01.JPG,AFNE01.JPG,AFNE01.JPG,,,,,,,,,,,,,,,,,3,3,33,6,,,,,,,AMNE05.jpg,AMNE15.jpg,AMSA06.jpg,AMSA11.jpg,AMSA11.jpg,MS,2,num_4,32,num_8,1.06674409332,,,2017_Jul_20_1520,60.0228132868,MAFE4ImagesEEG,001,100868,
AFNE01.JPG,AFNE01.JPG,AFNE01.JPG,AFNE01.JPG,AFNE01.JPG,AFNE01.JPG,,,,,,,,,,,,,,,,,3,4,34,9,,,,,,,AMNE12.jpg,AMSA18.jpg,AMSA05.jpg,AMNE01.jpg,AMSA05.jpg,MS,2,num_2,32,num_6,1.18345179869,,,2017_Jul_20_1520,60.0228132868,MAFE4ImagesEEG,001,100868,
AFNE01.JPG,AFNE01.JPG,AFNE01.JPG,AFNE01.JPG,AFNE01.JPG,AFNE01.JPG,,,,,,,,,,,,,,,,,3,5,35,2,,,,,,,AMNE09.jpg,AMSA16.jpg,AMSA05.jpg,AMNE08.jpg,AMNE08.jpg,MN,1,num_4,32,num_8,0.933474330697,,,2017_Jul_20_1520,60.0228132868,MAFE4ImagesEEG,001,100868,
AFNE01.JPG,AFNE01.JPG,AFNE01.JPG,AFNE01.JPG,AFNE01.JPG,AFNE01.JPG,,,,,,,,,,,,,,,,,3,6,36,3,,,,,,,AMSA01.jpg,AMNE14.jpg,AMNE10.jpg,AMSA19.jpg,AMSA19.jpg,MS,2,num_4,32,num_8,0.616762712249,,,2017_Jul_20_1520,60.0228132868,MAFE4ImagesEEG,001,100868,
AFNE01.JPG,AFNE01.JPG,AFNE01.JPG,AFNE01.JPG,AFNE01.JPG,AFNE01.JPG,,,,,,,,,,,,,,,,,3,7,37,5,,,,,,,AMSA16.jpg,AMNE16.jpg,AMSA13.jpg,AMNE15.jpg,AMNE15.jpg,MN,1,num_4,32,num_6,0.800248188723,,,2017_Jul_20_1520,60.0228132868,MAFE4ImagesEEG,001,100868,
AFNE01.JPG,AFNE01.JPG,AFNE01.JPG,AFNE01.JPG,AFNE01.JPG,AFNE01.JPG,,,,,,,,,,,,,,,,,3,8,38,1,,,,,,,AMSA13.jpg,AMSA18.jpg,AMNE01.jpg,AMNE14.jpg,AMSA13.jpg,MS,2,num_8,32,num_2,1.2001745468,,,2017_Jul_20_1520,60.0228132868,MAFE4ImagesEEG,001,100868,
AFNE01.JPG,AFNE01.JPG,AFNE01.JPG,AFNE01.JPG,AFNE01.JPG,AFNE01.JPG,,,,,,,,,,,,,,,,,3,9,39,0,,,,,,,AMSA17.jpg,AMSA13.jpg,AMNE04.jpg,AMNE07.jpg,AMNE07.jpg,MN,1,num_4,32,num_6,0.983147352177,,,2017_Jul_20_1520,60.0228132868,MAFE4ImagesEEG,001,100868,
AFNE01.JPG,AFNE01.JPG,AFNE01.JPG,AFNE01.JPG,AFNE01.JPG,AFNE01.JPG,,,,,,,,,,,,,,,,,4,0,40,5,,,,,,,AMNE03.jpg,AMNE04.jpg,AMSA12.jpg,AMSA18.jpg,AMSA12.jpg,MS,2,num_2,32,num_8,0.68349429674,,,2017_Jul_20_1520,60.0228132868,MAFE4ImagesEEG,001,100868,
AFNE01.JPG,AFNE01.JPG,AFNE01.JPG,AFNE01.JPG,AFNE01.JPG,AFNE01.JPG,,,,,,,,,,,,,,,,,4,1,41,3,,,,,,,AMNE08.jpg,AMNE13.jpg,AMSA15.jpg,AMSA19.jpg,AMNE13.jpg,MN,1,num_6,32,num_8,1.03342528956,,,2017_Jul_20_1520,60.0228132868,MAFE4ImagesEEG,001,100868,
AFNE01.JPG,AFNE01.JPG,AFNE01.JPG,AFNE01.JPG,AFNE01.JPG,AFNE01.JPG,,,,,,,,,,,,,,,,,4,2,42,2,,,,,,,AMSA09.jpg,AMNE20.jpg,AMSA02.jpg,AMNE08.jpg,AMSA09.jpg,MS,2,num_8,16,num_8,0.900151357288,,,2017_Jul_20_1520,60.0228132868,MAFE4ImagesEEG,001,100868,
AFNE01.JPG,AFNE01.JPG,AFNE01.JPG,AFNE01.JPG,AFNE01.JPG,AFNE01.JPG,,,,,,,,,,,,,,,,,4,3,43,6,,,,,,,AMNE17.jpg,AMSA09.jpg,AMSA06.jpg,AMNE02.jpg,AMNE17.jpg,MN,1,num_8,16,num_8,1.00012316421,,,2017_Jul_20_1520,60.0228132868,MAFE4ImagesEEG,001,100868,
AFNE01.JPG,AFNE01.JPG,AFNE01.JPG,AFNE01.JPG,AFNE01.JPG,AFNE01.JPG,,,,,,,,,,,,,,,,,4,4,44,4,,,,,,,AMNE01.jpg,AMSA10.jpg,AMSA18.jpg,AMNE17.jpg,AMSA18.jpg,MS,2,num_2,16,num_2,0.550321397663,,,2017_Jul_20_1520,60.0228132868,MAFE4ImagesEEG,001,100868,
AFNE01.JPG,AFNE01.JPG,AFNE01.JPG,AFNE01.JPG,AFNE01.JPG,AFNE01.JPG,,,,,,,,,,,,,,,,,4,5,45,9,,,,,,,AMSA10.jpg,AMNE01.jpg,AMNE07.jpg,AMSA08.jpg,AMSA08.jpg,MS,2,num_4,32,num_6,0.616766240448,,,2017_Jul_20_1520,60.0228132868,MAFE4ImagesEEG,001,100868,
AFNE01.JPG,AFNE01.JPG,AFNE01.JPG,AFNE01.JPG,AFNE01.JPG,AFNE01.JPG,,,,,,,,,,,,,,,,,4,6,46,0,,,,,,,AMNE05.jpg,AMNE04.jpg,AMSA01.jpg,AMSA14.jpg,AMNE05.jpg,MN,1,num_8,16,num_8,0.683493655291,,,2017_Jul_20_1520,60.0228132868,MAFE4ImagesEEG,001,100868,
AFNE01.JPG,AFNE01.JPG,AFNE01.JPG,AFNE01.JPG,AFNE01.JPG,AFNE01.JPG,,,,,,,,,,,,,,,,,4,7,47,1,,,,,,,AMSA07.jpg,AMNE06.jpg,AMSA16.jpg,AMNE13.jpg,AMNE13.jpg,MN,1,num_4,32,num_8,0.750111376983,,,2017_Jul_20_1520,60.0228132868,MAFE4ImagesEEG,001,100868,
AFNE01.JPG,AFNE01.JPG,AFNE01.JPG,AFNE01.JPG,AFNE01.JPG,AFNE01.JPG,,,,,,,,,,,,,,,,,4,8,48,7,,,,,,,AMNE20.jpg,AMSA01.jpg,AMSA11.jpg,AMNE15.jpg,AMNE15.jpg,MN,1,num_4,32,num_8,1.06675307406,,,2017_Jul_20_1520,60.0228132868,MAFE4ImagesEEG,001,100868,
AFNE01.JPG,AFNE01.JPG,AFNE01.JPG,AFNE01.JPG,AFNE01.JPG,AFNE01.JPG,,,,,,,,,,,,,,,,,4,9,49,8,,,,,,,AMNE04.jpg,AMSA12.jpg,AMNE19.jpg,AMSA09.jpg,AMNE04.jpg,MN,1,num_8,16,num_8,0.983437622024,,,2017_Jul_20_1520,60.0228132868,MAFE4ImagesEEG,001,100868,
AFNE01.JPG,AFNE01.JPG,AFNE01.JPG,AFNE01.JPG,AFNE01.JPG,AFNE01.JPG,,,,,,,,,,,,,,,,,5,0,50,3,,,,,,,AMNE04.jpg,AMSA05.jpg,AMSA12.jpg,AMNE03.jpg,AMSA12.jpg,MS,2,num_2,32,num_6,0.883446249878,,,2017_Jul_20_1520,60.0228132868,MAFE4ImagesEEG,001,100868,
AFNE01.JPG,AFNE01.JPG,AFNE01.JPG,AFNE01.JPG,AFNE01.JPG,AFNE01.JPG,,,,,,,,,,,,,,,,,5,1,51,2,,,,,,,AMNE14.jpg,AMNE19.jpg,AMSA16.jpg,AMSA09.jpg,AMNE14.jpg,MN,1,num_8,16,num_8,0.66680490569,,,2017_Jul_20_1520,60.0228132868,MAFE4ImagesEEG,001,100868,
AFNE01.JPG,AFNE01.JPG,AFNE01.JPG,AFNE01.JPG,AFNE01.JPG,AFNE01.JPG,,,,,,,,,,,,,,,,,5,2,52,4,,,,,,,AMNE15.jpg,AMSA12.jpg,AMNE13.jpg,AMSA06.jpg,AMNE13.jpg,MN,1,num_2,32,num_6,0.616800238902,,,2017_Jul_20_1520,60.0228132868,MAFE4ImagesEEG,001,100868,
AFNE01.JPG,AFNE01.JPG,AFNE01.JPG,AFNE01.JPG,AFNE01.JPG,AFNE01.JPG,,,,,,,,,,,,,,,,,5,3,53,5,,,,,,,AMSA06.jpg,AMSA18.jpg,AMNE06.jpg,AMNE03.jpg,AMSA06.jpg,MS,2,num_8,16,num_8,0.950120742607,,,2017_Jul_20_1520,60.0228132868,MAFE4ImagesEEG,001,100868,
AFNE01.JPG,AFNE01.JPG,AFNE01.JPG,AFNE01.JPG,AFNE01.JPG,AFNE01.JPG,,,,,,,,,,,,,,,,,5,4,54,6,,,,,,,AMSA18.jpg,AMNE14.jpg,AMSA11.jpg,AMNE06.jpg,AMSA18.jpg,MS,2,num_8,16,num_8,0.483510269609,,,2017_Jul_20_1520,60.0228132868,MAFE4ImagesEEG,001,100868,
AFNE01.JPG,AFNE01.JPG,AFNE01.JPG,AFNE01.JPG,AFNE01.JPG,AFNE01.JPG,,,,,,,,,,,,,,,,,5,5,55,1,,,,,,,AMNE16.jpg,AMSA02.jpg,AMNE08.jpg,AMSA11.jpg,AMNE16.jpg,MN,1,num_8,32,num_2,0.96679922851,,,2017_Jul_20_1520,60.0228132868,MAFE4ImagesEEG,001,100868,
AFNE01.JPG,AFNE01.JPG,AFNE01.JPG,AFNE01.JPG,AFNE01.JPG,AFNE01.JPG,,,,,,,,,,,,,,,,,5,6,56,0,,,,,,,AMNE08.jpg,AMSA10.jpg,AMNE07.jpg,AMSA08.jpg,AMSA10.jpg,MS,2,num_6,32,num_8,0.683457732375,,,2017_Jul_20_1520,60.0228132868,MAFE4ImagesEEG,001,100868,
AFNE01.JPG,AFNE01.JPG,AFNE01.JPG,AFNE01.JPG,AFNE01.JPG,AFNE01.JPG,,,,,,,,,,,,,,,,,5,7,57,7,,,,,,,AMNE12.jpg,AMSA20.jpg,AMNE20.jpg,AMSA09.jpg,AMNE12.jpg,MN,1,num_8,16,num_8,0.966799228569,,,2017_Jul_20_1520,60.0228132868,MAFE4ImagesEEG,001,100868,
AFNE01.JPG,AFNE01.JPG,AFNE01.JPG,AFNE01.JPG,AFNE01.JPG,AFNE01.JPG,,,,,,,,,,,,,,,,,5,8,58,9,,,,,,,AMNE13.jpg,AMSA12.jpg,AMNE05.jpg,AMSA04.jpg,AMNE13.jpg,MN,1,num_8,16,num_8,1.14996749297,,,2017_Jul_20_1520,60.0228132868,MAFE4ImagesEEG,001,100868,
AFNE01.JPG,AFNE01.JPG,AFNE01.JPG,AFNE01.JPG,AFNE01.JPG,AFNE01.JPG,,,,,,,,,,,,,,,,,5,9,59,8,,,,,,,AMNE02.jpg,AMSA07.jpg,AMNE07.jpg,AMSA05.jpg,AMNE02.jpg,MN,1,num_8,16,num_8,0.966735721973,,,2017_Jul_20_1520,60.0228132868,MAFE4ImagesEEG,001,100868,
,,,,,,,,,,,,,,,,,,,,,,,,,,,,,,,,,,,,,,,,,,,space,4.31655734242,2017_Jul_20_1520,60.0228132868,MAFE4ImagesEEG,001,100868,
AFNE01.JPG,AFNE01.JPG,AFNE01.JPG,AFNE01.JPG,AFNE01.JPG,AFNE01.JPG,,,,,,,,,,,,,,,,,,,,,0,0,0,5,,,AFSA16.jpg,AFSA08.jpg,AFNE02.jpg,AFNE08.jpg,AFNE02.jpg,FN,3,num_2,16,num_2,1.98332600447,,,2017_Jul_20_1520,60.0228132868,MAFE4ImagesEEG,001,100868,
AFNE01.JPG,AFNE01.JPG,AFNE01.JPG,AFNE01.JPG,AFNE01.JPG,AFNE01.JPG,,,,,,,,,,,,,,,,,,,,,0,1,1,9,,,AFSA11.jpg,AFNE13.jpg,AFSA19.jpg,AFNE06.jpg,AFNE06.jpg,FN,3,num_4,32,num_6,0.866782517987,,,2017_Jul_20_1520,60.0228132868,MAFE4ImagesEEG,001,100868,
AFNE01.JPG,AFNE01.JPG,AFNE01.JPG,AFNE01.JPG,AFNE01.JPG,AFNE01.JPG,,,,,,,,,,,,,,,,,,,,,0,2,2,8,,,AFSA20.jpg,AFSA15.jpg,AFNE17.jpg,AFNE04.jpg,AFNE04.jpg,FN,3,num_4,16,num_4,1.06676750735,,,2017_Jul_20_1520,60.0228132868,MAFE4ImagesEEG,001,100868,
AFNE01.JPG,AFNE01.JPG,AFNE01.JPG,AFNE01.JPG,AFNE01.JPG,AFNE01.JPG,,,,,,,,,,,,,,,,,,,,,0,3,3,6,,,AFSA12.jpg,AFNE07.jpg,AFNE20.jpg,AFSA09.jpg,AFSA12.jpg,FS,4,num_8,16,num_8,0.616842576594,,,2017_Jul_20_1520,60.0228132868,MAFE4ImagesEEG,001,100868,
AFNE01.JPG,AFNE01.JPG,AFNE01.JPG,AFNE01.JPG,AFNE01.JPG,AFNE01.JPG,,,,,,,,,,,,,,,,,,,,,0,4,4,2,,,AFSA16.jpg,AFNE01.jpg,AFSA13.jpg,AFNE07.jpg,AFNE01.jpg,FN,3,num_6,32,num_2,1.21686842822,,,2017_Jul_20_1520,60.0228132868,MAFE4ImagesEEG,001,100868,
AFNE01.JPG,AFNE01.JPG,AFNE01.JPG,AFNE01.JPG,AFNE01.JPG,AFNE01.JPG,,,,,,,,,,,,,,,,,,,,,0,5,5,0,,,AFSA06.jpg,AFNE12.jpg,AFNE05.jpg,AFSA05.jpg,AFSA05.jpg,FS,4,num_4,32,num_6,0.783485348104,,,2017_Jul_20_1520,60.0228132868,MAFE4ImagesEEG,001,100868,
AFNE01.JPG,AFNE01.JPG,AFNE01.JPG,AFNE01.JPG,AFNE01.JPG,AFNE01.JPG,,,,,,,,,,,,,,,,,,,,,0,6,6,1,,,AFNE10.jpg,AFSA18.jpg,AFSA19.jpg,AFNE09.jpg,AFNE10.jpg,FN,3,num_8,16,num_8,0.783484385873,,,2017_Jul_20_1520,60.0228132868,MAFE4ImagesEEG,001,100868,
AFNE01.JPG,AFNE01.JPG,AFNE01.JPG,AFNE01.JPG,AFNE01.JPG,AFNE01.JPG,,,,,,,,,,,,,,,,,,,,,0,7,7,4,,,AFSA10.jpg,AFNE20.jpg,AFSA06.jpg,AFNE12.jpg,AFNE20.jpg,FN,3,num_6,32,num_8,0.833429074264,,,2017_Jul_20_1520,60.0228132868,MAFE4ImagesEEG,001,100868,
AFNE01.JPG,AFNE01.JPG,AFNE01.JPG,AFNE01.JPG,AFNE01.JPG,AFNE01.JPG,,,,,,,,,,,,,,,,,,,,,0,8,8,3,,,AFNE20.jpg,AFSA01.jpg,AFSA10.jpg,AFNE07.jpg,AFSA10.jpg,FS,4,num_2,32,num_6,0.850123597193,,,2017_Jul_20_1520,60.0228132868,MAFE4ImagesEEG,001,100868,
AFNE01.JPG,AFNE01.JPG,AFNE01.JPG,AFNE01.JPG,AFNE01.JPG,AFNE01.JPG,,,,,,,,,,,,,,,,,,,,,0,9,9,7,,,AFNE01.jpg,AFNE12.jpg,AFSA17.jpg,AFSA11.jpg,AFSA11.jpg,FS,4,num_4,32,num_6,0.78341703047,,,2017_Jul_20_1520,60.0228132868,MAFE4ImagesEEG,001,100868,
AFNE01.JPG,AFNE01.JPG,AFNE01.JPG,AFNE01.JPG,AFNE01.JPG,AFNE01.JPG,,,,,,,,,,,,,,,,,,,,,1,0,10,4,,,AFNE03.jpg,AFNE08.jpg,AFSA05.jpg,AFSA03.jpg,AFSA05.jpg,FS,4,num_2,32,num_8,1.23334228201,,,2017_Jul_20_1520,60.0228132868,MAFE4ImagesEEG,001,100868,
AFNE01.JPG,AFNE01.JPG,AFNE01.JPG,AFNE01.JPG,AFNE01.JPG,AFNE01.JPG,,,,,,,,,,,,,,,,,,,,,1,1,11,3,,,AFNE12.jpg,AFNE15.jpg,AFSA19.jpg,AFSA07.jpg,AFSA07.jpg,FS,4,num_4,32,num_8,1.13348305481,,,2017_Jul_20_1520,60.0228132868,MAFE4ImagesEEG,001,100868,
AFNE01.JPG,AFNE01.JPG,AFNE01.JPG,AFNE01.JPG,AFNE01.JPG,AFNE01.JPG,,,,,,,,,,,,,,,,,,,,,1,2,12,2,,,AFSA11.jpg,AFNE12.jpg,AFSA16.jpg,AFNE14.jpg,AFSA16.jpg,FS,4,num_2,32,num_6,0.883436627686,,,2017_Jul_20_1520,60.0228132868,MAFE4ImagesEEG,001,100868,
AFNE01.JPG,AFNE01.JPG,AFNE01.JPG,AFNE01.JPG,AFNE01.JPG,AFNE01.JPG,,,,,,,,,,,,,,,,,,,,,1,3,13,1,,,AFSA03.jpg,AFNE15.jpg,AFSA11.jpg,AFNE14.jpg,AFSA11.jpg,FS,4,num_2,32,num_4,0.733540018264,,,2017_Jul_20_1520,60.0228132868,MAFE4ImagesEEG,001,100868,
AFNE01.JPG,AFNE01.JPG,AFNE01.JPG,AFNE01.JPG,AFNE01.JPG,AFNE01.JPG,,,,,,,,,,,,,,,,,,,,,1,4,14,8,,,AFNE18.jpg,AFSA10.jpg,AFNE19.jpg,AFSA03.jpg,AFNE19.jpg,FN,3,num_2,32,num_8,0.63343702862,,,2017_Jul_20_1520,60.0228132868,MAFE4ImagesEEG,001,100868,
AFNE01.JPG,AFNE01.JPG,AFNE01.JPG,AFNE01.JPG,AFNE01.JPG,AFNE01.JPG,,,,,,,,,,,,,,,,,,,,,1,5,15,0,,,AFNE17.jpg,AFNE03.jpg,AFSA06.jpg,AFSA10.jpg,AFNE03.jpg,FN,3,num_6,32,num_8,0.816788756405,,,2017_Jul_20_1520,60.0228132868,MAFE4ImagesEEG,001,100868,
AFNE01.JPG,AFNE01.JPG,AFNE01.JPG,AFNE01.JPG,AFNE01.JPG,AFNE01.JPG,,,,,,,,,,,,,,,,,,,,,1,6,16,6,,,AFSA02.jpg,AFNE02.jpg,AFNE13.jpg,AFSA12.jpg,AFNE02.jpg,FN,3,num_6,32,num_8,0.833519522974,,,2017_Jul_20_1520,60.0228132868,MAFE4ImagesEEG,001,100868,
AFNE01.JPG,AFNE01.JPG,AFNE01.JPG,AFNE01.JPG,AFNE01.JPG,AFNE01.JPG,,,,,,,,,,,,,,,,,,,,,1,7,17,5,,,AFNE16.jpg,AFNE09.jpg,AFSA02.jpg,AFSA11.jpg,AFSA02.jpg,FS,4,num_2,32,num_8,1.43340553192,,,2017_Jul_20_1520,60.0228132868,MAFE4ImagesEEG,001,100868,
AFNE01.JPG,AFNE01.JPG,AFNE01.JPG,AFNE01.JPG,AFNE01.JPG,AFNE01.JPG,,,,,,,,,,,,,,,,,,,,,1,8,18,7,,,AFSA06.jpg,AFSA04.jpg,AFNE17.jpg,AFNE07.jpg,AFSA06.jpg,FS,4,num_8,16,num_8,1.05009832286,,,2017_Jul_20_1520,60.0228132868,MAFE4ImagesEEG,001,100868,
AFNE01.JPG,AFNE01.JPG,AFNE01.JPG,AFNE01.JPG,AFNE01.JPG,AFNE01.JPG,,,,,,,,,,,,,,,,,,,,,1,9,19,9,,,AFSA09.jpg,AFNE02.jpg,AFSA06.jpg,AFNE16.jpg,AFSA06.jpg,FS,4,num_2,32,num_8,0.900203637895,,,2017_Jul_20_1520,60.0228132868,MAFE4ImagesEEG,001,100868,
AFNE01.JPG,AFNE01.JPG,AFNE01.JPG,AFNE01.JPG,AFNE01.JPG,AFNE01.JPG,,,,,,,,,,,,,,,,,,,,,2,0,20,2,,,AFSA06.jpg,AFNE01.jpg,AFNE07.jpg,AFSA12.jpg,AFSA06.jpg,FS,4,num_8,16,num_8,0.916766336653,,,2017_Jul_20_1520,60.0228132868,MAFE4ImagesEEG,001,100868,
AFNE01.JPG,AFNE01.JPG,AFNE01.JPG,AFNE01.JPG,AFNE01.JPG,AFNE01.JPG,,,,,,,,,,,,,,,,,,,,,2,1,21,4,,,AFNE03.jpg,AFNE12.jpg,AFSA11.jpg,AFSA16.jpg,AFNE03.jpg,FN,3,num_8,32,num_6,0.916794241057,,,2017_Jul_20_1520,60.0228132868,MAFE4ImagesEEG,001,100868,
AFNE01.JPG,AFNE01.JPG,AFNE01.JPG,AFNE01.JPG,AFNE01.JPG,AFNE01.JPG,,,,,,,,,,,,,,,,,,,,,2,2,22,9,,,AFSA20.jpg,AFSA18.jpg,AFNE09.jpg,AFNE05.jpg,AFNE05.jpg,FN,3,num_4,32,num_2,0.766782806662,,,2017_Jul_20_1520,60.0228132868,MAFE4ImagesEEG,001,100868,
AFNE01.JPG,AFNE01.JPG,AFNE01.JPG,AFNE01.JPG,AFNE01.JPG,AFNE01.JPG,,,,,,,,,,,,,,,,,,,,,2,3,23,1,,,AFSA09.jpg,AFSA06.jpg,AFNE19.jpg,AFNE04.jpg,AFNE19.jpg,FN,3,num_2,32,num_8,0.749977307627,,,2017_Jul_20_1520,60.0228132868,MAFE4ImagesEEG,001,100868,
AFNE01.JPG,AFNE01.JPG,AFNE01.JPG,AFNE01.JPG,AFNE01.JPG,AFNE01.JPG,,,,,,,,,,,,,,,,,,,,,2,4,24,7,,,AFSA14.jpg,AFNE14.jpg,AFSA01.jpg,AFNE07.jpg,AFSA14.jpg,FS,4,num_8,32,num_2,0.866620544228,,,2017_Jul_20_1520,60.0228132868,MAFE4ImagesEEG,001,100868,
AFNE01.JPG,AFNE01.JPG,AFNE01.JPG,AFNE01.JPG,AFNE01.JPG,AFNE01.JPG,,,,,,,,,,,,,,,,,,,,,2,5,25,5,,,AFNE05.jpg,AFSA15.jpg,AFSA16.jpg,AFNE06.jpg,AFNE06.jpg,FN,3,num_4,16,num_4,0.800135288213,,,2017_Jul_20_1520,60.0228132868,MAFE4ImagesEEG,001,100868,
AFNE01.JPG,AFNE01.JPG,AFNE01.JPG,AFNE01.JPG,AFNE01.JPG,AFNE01.JPG,,,,,,,,,,,,,,,,,,,,,2,6,26,3,,,AFSA14.jpg,AFNE06.jpg,AFSA17.jpg,AFNE02.jpg,AFSA17.jpg,FS,4,num_2,32,num_8,1.61678933376,,,2017_Jul_20_1520,60.0228132868,MAFE4ImagesEEG,001,100868,
AFNE01.JPG,AFNE01.JPG,AFNE01.JPG,AFNE01.JPG,AFNE01.JPG,AFNE01.JPG,,,,,,,,,,,,,,,,,,,,,2,7,27,0,,,AFSA15.jpg,AFSA08.jpg,AFNE13.jpg,AFNE07.jpg,AFSA15.jpg,FS,4,num_8,32,num_2,0.950142232236,,,2017_Jul_20_1520,60.0228132868,MAFE4ImagesEEG,001,100868,
AFNE01.JPG,AFNE01.JPG,AFNE01.JPG,AFNE01.JPG,AFNE01.JPG,AFNE01.JPG,,,,,,,,,,,,,,,,,,,,,2,8,28,6,,,AFSA17.jpg,AFSA16.jpg,AFNE07.jpg,AFNE14.jpg,AFSA17.jpg,FS,4,num_8,16,num_8,0.733488379105,,,2017_Jul_20_1520,60.0228132868,MAFE4ImagesEEG,001,100868,
AFNE01.JPG,AFNE01.JPG,AFNE01.JPG,AFNE01.JPG,AFNE01.JPG,AFNE01.JPG,,,,,,,,,,,,,,,,,,,,,2,9,29,8,,,AFSA16.jpg,AFNE19.jpg,AFNE13.jpg,AFSA13.jpg,AFNE13.jpg,FN,3,num_2,32,num_6,0.866780272801,,,2017_Jul_20_1520,60.0228132868,MAFE4ImagesEEG,001,100868,
AFNE01.JPG,AFNE01.JPG,AFNE01.JPG,AFNE01.JPG,AFNE01.JPG,AFNE01.JPG,,,,,,,,,,,,,,,,,,,,,3,0,30,0,,,AFSA02.jpg,AFSA06.jpg,AFNE07.jpg,AFNE04.jpg,AFSA06.jpg,FS,4,num_6,32,num_2,0.56679428916,,,2017_Jul_20_1520,60.0228132868,MAFE4ImagesEEG,001,100868,
AFNE01.JPG,AFNE01.JPG,AFNE01.JPG,AFNE01.JPG,AFNE01.JPG,AFNE01.JPG,,,,,,,,,,,,,,,,,,,,,3,1,31,8,,,AFNE10.jpg,AFSA12.jpg,AFNE02.jpg,AFSA01.jpg,AFNE02.jpg,FN,3,num_2,32,num_6,1.08344086143,,,2017_Jul_20_1520,60.0228132868,MAFE4ImagesEEG,001,100868,
AFNE01.JPG,AFNE01.JPG,AFNE01.JPG,AFNE01.JPG,AFNE01.JPG,AFNE01.JPG,,,,,,,,,,,,,,,,,,,,,3,2,32,6,,,AFSA13.jpg,AFNE05.jpg,AFSA19.jpg,AFNE10.jpg,AFSA19.jpg,FS,4,num_2,32,num_8,0.800089101598,,,2017_Jul_20_1520,60.0228132868,MAFE4ImagesEEG,001,100868,
AFNE01.JPG,AFNE01.JPG,AFNE01.JPG,AFNE01.JPG,AFNE01.JPG,AFNE01.JPG,,,,,,,,,,,,,,,,,,,,,3,3,33,7,,,AFNE06.jpg,AFSA04.jpg,AFSA06.jpg,AFNE12.jpg,AFNE06.jpg,FN,3,num_8,32,num_6,1.70010125765,,,2017_Jul_20_1520,60.0228132868,MAFE4ImagesEEG,001,100868,
AFNE01.JPG,AFNE01.JPG,AFNE01.JPG,AFNE01.JPG,AFNE01.JPG,AFNE01.JPG,,,,,,,,,,,,,,,,,,,,,3,4,34,1,,,AFNE06.jpg,AFSA01.jpg,AFSA20.jpg,AFNE13.jpg,AFSA01.jpg,FS,4,num_6,16,num_6,1.03348526789,,,2017_Jul_20_1520,60.0228132868,MAFE4ImagesEEG,001,100868,
AFNE01.JPG,AFNE01.JPG,AFNE01.JPG,AFNE01.JPG,AFNE01.JPG,AFNE01.JPG,,,,,,,,,,,,,,,,,,,,,3,5,35,5,,,AFNE13.jpg,AFSA17.jpg,AFNE02.jpg,AFSA08.jpg,AFNE02.jpg,FN,3,num_2,16,num_2,0.933465991402,,,2017_Jul_20_1520,60.0228132868,MAFE4ImagesEEG,001,100868,
AFNE01.JPG,AFNE01.JPG,AFNE01.JPG,AFNE01.JPG,AFNE01.JPG,AFNE01.JPG,,,,,,,,,,,,,,,,,,,,,3,6,36,2,,,AFSA20.jpg,AFSA07.jpg,AFNE17.jpg,AFNE13.jpg,AFSA20.jpg,FS,4,num_8,32,num_6,1.1334580371,,,2017_Jul_20_1520,60.0228132868,MAFE4ImagesEEG,001,100868,
AFNE01.JPG,AFNE01.JPG,AFNE01.JPG,AFNE01.JPG,AFNE01.JPG,AFNE01.JPG,,,,,,,,,,,,,,,,,,,,,3,7,37,3,,,AFNE19.jpg,AFSA14.jpg,AFSA16.jpg,AFNE20.jpg,AFNE20.jpg,FN,3,num_4,16,num_4,1.08344663476,,,2017_Jul_20_1520,60.0228132868,MAFE4ImagesEEG,001,100868,
AFNE01.JPG,AFNE01.JPG,AFNE01.JPG,AFNE01.JPG,AFNE01.JPG,AFNE01.JPG,,,,,,,,,,,,,,,,,,,,,3,8,38,9,,,AFNE19.jpg,AFSA13.jpg,AFNE12.jpg,AFSA09.jpg,AFSA09.jpg,FS,4,num_4,32,num_8,1.00009044871,,,2017_Jul_20_1520,60.0228132868,MAFE4ImagesEEG,001,100868,
