IPosition2,IPosition3,IPosition1,IPosition6,IPosition4,IPosition5,TrialsM1.thisRepN,TrialsM1.thisTrialN,TrialsM1.thisN,TrialsM1.thisIndex,TrialsF1.thisRepN,TrialsF1.thisTrialN,TrialsF1.thisN,TrialsF1.thisIndex,TrialsM2.thisRepN,TrialsM2.thisTrialN,TrialsM2.thisN,TrialsM2.thisIndex,TrialsF2.thisRepN,TrialsF2.thisTrialN,TrialsF2.thisN,TrialsF2.thisIndex,TrialsM3.thisRepN,TrialsM3.thisTrialN,TrialsM3.thisN,TrialsM3.thisIndex,TrialsF3.thisRepN,TrialsF3.thisTrialN,TrialsF3.thisN,TrialsF3.thisIndex,InstrKey_resp.keys,InstrKey_resp.rt,Image0 _Position,Image1 _Position,Image2 _Position,Image3 _Position,Center_image,condition,code,correct_answer,accuracy,Key_Resp.keys,Key_Resp.rt,BreakKey_resp.keys,BreakKey_resp.rt,date,frameRate,expName,session,participant,
,,,,,,,,,,,,,,,,,,,,,,,,,,,,,,space,13.6661505973,,,,,,,,,,,,,,2017_Jun_28_1407,60.0072752459,MAFE4ImagesEEG,001,100809,
AFNE22.JPG,AFSA24.JPG,AFSA22.JPG,AFNE25.JPG,AFNE24.JPG,AFSA25.JPG,0,0,0,6,,,,,,,,,,,,,,,,,,,,,,,AMSA12.jpg,AMSA06.jpg,AMNE18.jpg,AMNE12.jpg,AMNE12.jpg,MN,1,num_4,32,num_8,2.83327463806,,,2017_Jun_28_1407,60.0072752459,MAFE4ImagesEEG,001,100809,
AFNE23.JPG,AFNE24.JPG,AFNE22.JPG,AFSA24.JPG,AFSA22.JPG,AFSA23.JPG,0,1,1,8,,,,,,,,,,,,,,,,,,,,,,,AMNE05.jpg,AMSA14.jpg,AMNE10.jpg,AMSA15.jpg,AMNE10.jpg,MN,1,num_2,16,num_2,2.54996859963,,,2017_Jun_28_1407,60.0072752459,MAFE4ImagesEEG,001,100809,
AMSA21.JPG,AMNE22.JPG,AMNE21.JPG,AMSA23.JPG,AMSA22.JPG,AMNE23.JPG,0,2,2,1,,,,,,,,,,,,,,,,,,,,,,,AMNE03.jpg,AMSA12.jpg,AMNE19.jpg,AMSA08.jpg,AMSA12.jpg,MS,2,num_6,16,num_6,1.08341624442,,,2017_Jun_28_1407,60.0072752459,MAFE4ImagesEEG,001,100809,
AMSA21.JPG,AMNE23.JPG,AMNE21.JPG,AMSA25.JPG,AMNE25.JPG,AMSA23.JPG,0,3,3,5,,,,,,,,,,,,,,,,,,,,,,,AMSA01.jpg,AMSA18.jpg,AMNE12.jpg,AMNE04.jpg,AMNE12.jpg,MN,1,num_2,16,num_2,1.15049146865,,,2017_Jun_28_1407,60.0072752459,MAFE4ImagesEEG,001,100809,
AFSA21.JPG,AFNE23.JPG,AFNE21.JPG,AFSA25.JPG,AFNE25.JPG,AFSA23.JPG,0,4,4,4,,,,,,,,,,,,,,,,,,,,,,,AMNE16.jpg,AMNE15.jpg,AMSA18.jpg,AMSA07.jpg,AMNE16.jpg,MN,1,num_8,16,num_8,0.91677555762,,,2017_Jun_28_1407,60.0072752459,MAFE4ImagesEEG,001,100809,
AFSA21.JPG,AFNE22.JPG,AFNE21.JPG,AFSA23.JPG,AFSA22.JPG,AFNE23.JPG,0,5,5,0,,,,,,,,,,,,,,,,,,,,,,,AMSA08.jpg,AMNE09.jpg,AMSA03.jpg,AMNE07.jpg,AMNE07.jpg,MN,1,num_4,32,num_8,1.71670454596,,,2017_Jun_28_1407,60.0072752459,MAFE4ImagesEEG,001,100809,
AMSA25.JPG,AMNE24.JPG,AMSA24.JPG,AMNE26.JPG,AMSA21.JPG,AMNE25.JPG,0,6,6,3,,,,,,,,,,,,,,,,,,,,,,,AMNE18.jpg,AMSA07.jpg,AMNE08.jpg,AMSA15.jpg,AMSA07.jpg,MS,2,num_6,16,num_6,0.93353867055,,,2017_Jun_28_1407,60.0072752459,MAFE4ImagesEEG,001,100809,
AMNE22.JPG,AMSA24.JPG,AMSA22.JPG,AMNE25.JPG,AMNE24.JPG,AMSA25.JPG,0,7,7,7,,,,,,,,,,,,,,,,,,,,,,,AMSA01.jpg,AMSA14.jpg,AMNE09.jpg,AMNE02.jpg,AMSA01.jpg,MS,2,num_8,32,num_6,2.00001347104,,,2017_Jun_28_1407,60.0072752459,MAFE4ImagesEEG,001,100809,
AFSA25.JPG,AFNE24.JPG,AFSA24.JPG,AFNE21.JPG,AFSA21.JPG,AFNE25.JPG,0,8,8,2,,,,,,,,,,,,,,,,,,,,,,,AMSA06.jpg,AMSA14.jpg,AMNE15.jpg,AMNE09.jpg,AMNE09.jpg,MN,1,num_4,16,num_4,1.26674210452,,,2017_Jun_28_1407,60.0072752459,MAFE4ImagesEEG,001,100809,
AMNE23.JPG,AMNE24.JPG,AMNE22.JPG,AMSA24.JPG,AMSA22.JPG,AMSA23.JPG,0,9,9,9,,,,,,,,,,,,,,,,,,,,,,,AMSA02.jpg,AMNE04.jpg,AMSA07.jpg,AMNE06.jpg,AMNE06.jpg,MN,1,num_4,16,num_4,0.650106581626,,,2017_Jun_28_1407,60.0072752459,MAFE4ImagesEEG,001,100809,
AFSA25.JPG,AFNE24.JPG,AFSA24.JPG,AFNE21.JPG,AFSA21.JPG,AFNE25.JPG,,,,,0,0,0,2,,,,,,,,,,,,,,,,,,,AFNE02.jpg,AFSA16.jpg,AFSA18.jpg,AFNE18.jpg,AFSA16.jpg,FS,4,num_6,16,num_6,1.21674271394,,,2017_Jun_28_1407,60.0072752459,MAFE4ImagesEEG,001,100809,
AMSA25.JPG,AMNE24.JPG,AMSA24.JPG,AMNE26.JPG,AMSA21.JPG,AMNE25.JPG,,,,,0,1,1,3,,,,,,,,,,,,,,,,,,,AFSA04.jpg,AFNE07.jpg,AFSA06.jpg,AFNE10.jpg,AFNE07.jpg,FN,3,num_6,32,num_8,1.53341653307,,,2017_Jun_28_1407,60.0072752459,MAFE4ImagesEEG,001,100809,
AMSA21.JPG,AMNE22.JPG,AMNE21.JPG,AMSA23.JPG,AMSA22.JPG,AMNE23.JPG,,,,,0,2,2,1,,,,,,,,,,,,,,,,,,,AFNE12.jpg,AFSA08.jpg,AFSA03.jpg,AFNE08.jpg,AFSA08.jpg,FS,4,num_6,16,num_6,1.26676808439,,,2017_Jun_28_1407,60.0072752459,MAFE4ImagesEEG,001,100809,
AMSA21.JPG,AMNE23.JPG,AMNE21.JPG,AMSA25.JPG,AMNE25.JPG,AMSA23.JPG,,,,,0,3,3,5,,,,,,,,,,,,,,,,,,,AFSA14.jpg,AFSA20.jpg,AFNE02.jpg,AFNE14.jpg,AFNE14.jpg,FN,3,num_4,32,num_8,2.98339052113,,,2017_Jun_28_1407,60.0072752459,MAFE4ImagesEEG,001,100809,
AFNE22.JPG,AFSA24.JPG,AFSA22.JPG,AFNE25.JPG,AFNE24.JPG,AFSA25.JPG,,,,,0,4,4,6,,,,,,,,,,,,,,,,,,,AFSA09.jpg,AFSA12.jpg,AFNE18.jpg,AFNE08.jpg,AFNE08.jpg,FN,3,num_4,32,num_2,0.816794737824,,,2017_Jun_28_1407,60.0072752459,MAFE4ImagesEEG,001,100809,
AMNE23.JPG,AMNE24.JPG,AMNE22.JPG,AMSA24.JPG,AMSA22.JPG,AMSA23.JPG,,,,,0,5,5,9,,,,,,,,,,,,,,,,,,,AFNE04.jpg,AFSA15.jpg,AFNE19.jpg,AFSA07.jpg,AFSA07.jpg,FS,4,num_4,16,num_4,2.15014731551,,,2017_Jun_28_1407,60.0072752459,MAFE4ImagesEEG,001,100809,
AMNE22.JPG,AMSA24.JPG,AMSA22.JPG,AMNE25.JPG,AMNE24.JPG,AMSA25.JPG,,,,,0,6,6,7,,,,,,,,,,,,,,,,,,,AFNE04.jpg,AFSA09.jpg,AFNE17.jpg,AFSA19.jpg,AFNE04.jpg,FN,3,num_8,16,num_8,1.05011517745,,,2017_Jun_28_1407,60.0072752459,MAFE4ImagesEEG,001,100809,
AFSA21.JPG,AFNE23.JPG,AFNE21.JPG,AFSA25.JPG,AFNE25.JPG,AFSA23.JPG,,,,,0,7,7,4,,,,,,,,,,,,,,,,,,,AFSA06.jpg,AFNE05.jpg,AFSA19.jpg,AFNE16.jpg,AFSA06.jpg,FS,4,num_8,16,num_8,0.916770425785,,,2017_Jun_28_1407,60.0072752459,MAFE4ImagesEEG,001,100809,
AFNE23.JPG,AFNE24.JPG,AFNE22.JPG,AFSA24.JPG,AFSA22.JPG,AFSA23.JPG,,,,,0,8,8,8,,,,,,,,,,,,,,,,,,,AFNE17.jpg,AFSA04.jpg,AFNE07.jpg,AFSA06.jpg,AFNE07.jpg,FN,3,num_2,16,num_2,1.90001148246,,,2017_Jun_28_1407,60.0072752459,MAFE4ImagesEEG,001,100809,
AFSA21.JPG,AFNE22.JPG,AFNE21.JPG,AFSA23.JPG,AFSA22.JPG,AFNE23.JPG,,,,,0,9,9,0,,,,,,,,,,,,,,,,,,,AFNE09.jpg,AFSA10.jpg,AFSA03.jpg,AFNE17.jpg,AFSA10.jpg,FS,4,num_6,16,num_6,1.88337089188,,,2017_Jun_28_1407,60.0072752459,MAFE4ImagesEEG,001,100809,
AMSA21.JPG,AMNE23.JPG,AMNE21.JPG,AMSA25.JPG,AMNE25.JPG,AMSA23.JPG,,,,,,,,,0,0,0,5,,,,,,,,,,,,,,,AMSA14.jpg,AMNE09.jpg,AMNE01.jpg,AMSA18.jpg,AMSA14.jpg,MS,2,num_8,32,num_4,0.833482477057,,,2017_Jun_28_1407,60.0072752459,MAFE4ImagesEEG,001,100809,
AMSA21.JPG,AMNE22.JPG,AMNE21.JPG,AMSA23.JPG,AMSA22.JPG,AMNE23.JPG,,,,,,,,,0,1,1,1,,,,,,,,,,,,,,,AMNE07.jpg,AMSA02.jpg,AMSA09.jpg,AMNE12.jpg,AMSA02.jpg,MS,2,num_6,16,num_6,0.766809780485,,,2017_Jun_28_1407,60.0072752459,MAFE4ImagesEEG,001,100809,
AFNE22.JPG,AFSA24.JPG,AFSA22.JPG,AFNE25.JPG,AFNE24.JPG,AFSA25.JPG,,,,,,,,,0,2,2,6,,,,,,,,,,,,,,,AMSA04.jpg,AMSA15.jpg,AMNE19.jpg,AMNE18.jpg,AMSA04.jpg,MS,2,num_8,32,num_4,3.38323393626,,,2017_Jun_28_1407,60.0072752459,MAFE4ImagesEEG,001,100809,
AMNE23.JPG,AMNE24.JPG,AMNE22.JPG,AMSA24.JPG,AMSA22.JPG,AMSA23.JPG,,,,,,,,,0,3,3,9,,,,,,,,,,,,,,,AMNE19.jpg,AMSA02.jpg,AMNE07.jpg,AMSA07.jpg,AMSA02.jpg,MS,2,num_6,16,num_6,1.18342111964,,,2017_Jun_28_1407,60.0072752459,MAFE4ImagesEEG,001,100809,
AFSA21.JPG,AFNE23.JPG,AFNE21.JPG,AFSA25.JPG,AFNE25.JPG,AFSA23.JPG,,,,,,,,,0,4,4,4,,,,,,,,,,,,,,,AMNE17.jpg,AMSA17.jpg,AMSA12.jpg,AMNE03.jpg,AMNE17.jpg,MN,1,num_8,16,num_8,0.616782421435,,,2017_Jun_28_1407,60.0072752459,MAFE4ImagesEEG,001,100809,
AMNE22.JPG,AMSA24.JPG,AMSA22.JPG,AMNE25.JPG,AMNE24.JPG,AMSA25.JPG,,,,,,,,,0,5,5,7,,,,,,,,,,,,,,,AMSA18.jpg,AMNE01.jpg,AMNE11.jpg,AMSA11.jpg,AMNE11.jpg,MN,1,num_2,16,num_2,1.35008714483,,,2017_Jun_28_1407,60.0072752459,MAFE4ImagesEEG,001,100809,
AFNE23.JPG,AFNE24.JPG,AFNE22.JPG,AFSA24.JPG,AFSA22.JPG,AFSA23.JPG,,,,,,,,,0,6,6,8,,,,,,,,,,,,,,,AMSA03.jpg,AMNE18.jpg,AMNE15.jpg,AMSA19.jpg,AMSA19.jpg,MS,2,num_4,16,num_4,2.76629467336,,,2017_Jun_28_1407,60.0072752459,MAFE4ImagesEEG,001,100809,
AFSA25.JPG,AFNE24.JPG,AFSA24.JPG,AFNE21.JPG,AFSA21.JPG,AFNE25.JPG,,,,,,,,,0,7,7,2,,,,,,,,,,,,,,,AMSA15.jpg,AMNE01.jpg,AMSA01.jpg,AMNE03.jpg,AMSA15.jpg,MS,2,num_8,16,num_8,1.20012329215,,,2017_Jun_28_1407,60.0072752459,MAFE4ImagesEEG,001,100809,
AMSA25.JPG,AMNE24.JPG,AMSA24.JPG,AMNE26.JPG,AMSA21.JPG,AMNE25.JPG,,,,,,,,,0,8,8,3,,,,,,,,,,,,,,,AMSA11.jpg,AMSA13.jpg,AMNE06.jpg,AMNE08.jpg,AMSA11.jpg,MS,2,num_8,32,num_4,2.21696947653,,,2017_Jun_28_1407,60.0072752459,MAFE4ImagesEEG,001,100809,
AFSA21.JPG,AFNE22.JPG,AFNE21.JPG,AFSA23.JPG,AFSA22.JPG,AFNE23.JPG,,,,,,,,,0,9,9,0,,,,,,,,,,,,,,,AMNE20.jpg,AMSA14.jpg,AMNE16.jpg,AMSA09.jpg,AMNE20.jpg,MN,1,num_8,32,num_4,2.98328852607,,,2017_Jun_28_1407,60.0072752459,MAFE4ImagesEEG,001,100809,
AMSA25.JPG,AMNE24.JPG,AMSA24.JPG,AMNE26.JPG,AMSA21.JPG,AMNE25.JPG,,,,,,,,,,,,,0,0,0,3,,,,,,,,,,,AFNE05.jpg,AFSA20.jpg,AFSA02.jpg,AFNE14.jpg,AFNE14.jpg,FN,3,num_4,16,num_4,0.600113926572,,,2017_Jun_28_1407,60.0072752459,MAFE4ImagesEEG,001,100809,
AFSA21.JPG,AFNE22.JPG,AFNE21.JPG,AFSA23.JPG,AFSA22.JPG,AFNE23.JPG,,,,,,,,,,,,,0,1,1,0,,,,,,,,,,,AFNE13.jpg,AFNE06.jpg,AFSA17.jpg,AFSA01.jpg,AFNE06.jpg,FN,3,num_6,16,num_6,1.78339424171,,,2017_Jun_28_1407,60.0072752459,MAFE4ImagesEEG,001,100809,
AFSA25.JPG,AFNE24.JPG,AFSA24.JPG,AFNE21.JPG,AFSA21.JPG,AFNE25.JPG,,,,,,,,,,,,,0,2,2,2,,,,,,,,,,,AFSA01.jpg,AFNE07.jpg,AFNE20.jpg,AFSA06.jpg,AFSA06.jpg,FS,4,num_4,32,num_8,1.60011360582,,,2017_Jun_28_1407,60.0072752459,MAFE4ImagesEEG,001,100809,
AFSA21.JPG,AFNE23.JPG,AFNE21.JPG,AFSA25.JPG,AFNE25.JPG,AFSA23.JPG,,,,,,,,,,,,,0,3,3,4,,,,,,,,,,,AFSA19.jpg,AFNE16.jpg,AFSA13.jpg,AFNE05.jpg,AFNE16.jpg,FN,3,num_6,32,num_4,2.00013727637,,,2017_Jun_28_1407,60.0072752459,MAFE4ImagesEEG,001,100809,
AMNE23.JPG,AMNE24.JPG,AMNE22.JPG,AMSA24.JPG,AMSA22.JPG,AMSA23.JPG,,,,,,,,,,,,,0,4,4,9,,,,,,,,,,,AFNE05.jpg,AFSA10.jpg,AFNE19.jpg,AFSA20.jpg,AFSA20.jpg,FS,4,num_4,32,num_8,1.55005295404,,,2017_Jun_28_1407,60.0072752459,MAFE4ImagesEEG,001,100809,
AMNE22.JPG,AMSA24.JPG,AMSA22.JPG,AMNE25.JPG,AMNE24.JPG,AMSA25.JPG,,,,,,,,,,,,,0,5,5,7,,,,,,,,,,,AFSA07.jpg,AFNE02.jpg,AFSA20.jpg,AFNE05.jpg,AFNE05.jpg,FN,3,num_4,16,num_4,1.30019520187,,,2017_Jun_28_1407,60.0072752459,MAFE4ImagesEEG,001,100809,
AMSA21.JPG,AMNE23.JPG,AMNE21.JPG,AMSA25.JPG,AMNE25.JPG,AMSA23.JPG,,,,,,,,,,,,,0,6,6,5,,,,,,,,,,,AFNE03.jpg,AFNE06.jpg,AFSA10.jpg,AFSA07.jpg,AFSA10.jpg,FS,4,num_2,16,num_2,2.33334840808,,,2017_Jun_28_1407,60.0072752459,MAFE4ImagesEEG,001,100809,
AFNE23.JPG,AFNE24.JPG,AFNE22.JPG,AFSA24.JPG,AFSA22.JPG,AFSA23.JPG,,,,,,,,,,,,,0,7,7,8,,,,,,,,,,,AFNE04.jpg,AFNE20.jpg,AFSA06.jpg,AFSA15.jpg,AFSA06.jpg,FS,4,num_2,32,num_8,1.58341720664,,,2017_Jun_28_1407,60.0072752459,MAFE4ImagesEEG,001,100809,
AFNE22.JPG,AFSA24.JPG,AFSA22.JPG,AFNE25.JPG,AFNE24.JPG,AFSA25.JPG,,,,,,,,,,,,,0,8,8,6,,,,,,,,,,,AFSA14.jpg,AFNE14.jpg,AFNE05.jpg,AFSA04.jpg,AFSA04.jpg,FS,4,num_4,16,num_4,1.31688743144,,,2017_Jun_28_1407,60.0072752459,MAFE4ImagesEEG,001,100809,
AMSA21.JPG,AMNE22.JPG,AMNE21.JPG,AMSA23.JPG,AMSA22.JPG,AMNE23.JPG,,,,,,,,,,,,,0,9,9,1,,,,,,,,,,,AFNE19.jpg,AFSA13.jpg,AFSA09.jpg,AFNE10.jpg,AFSA13.jpg,FS,4,num_6,16,num_6,2.84994409516,,,2017_Jun_28_1407,60.0072752459,MAFE4ImagesEEG,001,100809,
AMSA25.JPG,AMNE24.JPG,AMSA24.JPG,AMNE26.JPG,AMSA21.JPG,AMNE25.JPG,,,,,,,,,,,,,,,,,0,0,0,3,,,,,,,AMNE11.jpg,AMSA12.jpg,AMSA19.jpg,AMNE16.jpg,AMNE11.jpg,MN,1,num_8,32,num_4,1.70003188148,,,2017_Jun_28_1407,60.0072752459,MAFE4ImagesEEG,001,100809,
AFSA21.JPG,AFNE23.JPG,AFNE21.JPG,AFSA25.JPG,AFNE25.JPG,AFSA23.JPG,,,,,,,,,,,,,,,,,0,1,1,4,,,,,,,AMSA10.jpg,AMSA18.jpg,AMNE07.jpg,AMNE14.jpg,AMNE07.jpg,MN,1,num_2,32,num_8,1.16680586748,,,2017_Jun_28_1407,60.0072752459,MAFE4ImagesEEG,001,100809,
AMSA21.JPG,AMNE23.JPG,AMNE21.JPG,AMSA25.JPG,AMNE25.JPG,AMSA23.JPG,,,,,,,,,,,,,,,,,0,2,2,5,,,,,,,AMSA01.jpg,AMNE14.jpg,AMSA11.jpg,AMNE12.jpg,AMNE12.jpg,MN,1,num_4,16,num_4,0.83347285488,,,2017_Jun_28_1407,60.0072752459,MAFE4ImagesEEG,001,100809,
AFNE22.JPG,AFSA24.JPG,AFSA22.JPG,AFNE25.JPG,AFNE24.JPG,AFSA25.JPG,,,,,,,,,,,,,,,,,0,3,3,6,,,,,,,AMNE13.jpg,AMNE10.jpg,AMSA20.jpg,AMSA13.jpg,AMSA13.jpg,MS,2,num_4,32,num_6,1.55011646039,,,2017_Jun_28_1407,60.0072752459,MAFE4ImagesEEG,001,100809,
AMSA21.JPG,AMNE22.JPG,AMNE21.JPG,AMSA23.JPG,AMSA22.JPG,AMNE23.JPG,,,,,,,,,,,,,,,,,0,4,4,1,,,,,,,AMNE03.jpg,AMNE05.jpg,AMSA05.jpg,AMSA01.jpg,AMNE03.jpg,MN,1,num_8,32,num_4,1.46667295315,,,2017_Jun_28_1407,60.0072752459,MAFE4ImagesEEG,001,100809,
AMNE22.JPG,AMSA24.JPG,AMSA22.JPG,AMNE25.JPG,AMNE24.JPG,AMSA25.JPG,,,,,,,,,,,,,,,,,0,5,5,7,,,,,,,AMNE05.jpg,AMNE17.jpg,AMSA09.jpg,AMSA16.jpg,AMNE17.jpg,MN,1,num_6,32,num_8,2.69963191971,,,2017_Jun_28_1407,60.0072752459,MAFE4ImagesEEG,001,100809,
AMNE23.JPG,AMNE24.JPG,AMNE22.JPG,AMSA24.JPG,AMSA22.JPG,AMSA23.JPG,,,,,,,,,,,,,,,,,0,6,6,9,,,,,,,AMNE09.jpg,AMNE08.jpg,AMSA19.jpg,AMSA16.jpg,AMSA19.jpg,MS,2,num_2,16,num_2,1.71671673407,,,2017_Jun_28_1407,60.0072752459,MAFE4ImagesEEG,001,100809,
AFNE23.JPG,AFNE24.JPG,AFNE22.JPG,AFSA24.JPG,AFSA22.JPG,AFSA23.JPG,,,,,,,,,,,,,,,,,0,7,7,8,,,,,,,AMNE20.jpg,AMSA06.jpg,AMNE15.jpg,AMSA02.jpg,AMSA02.jpg,MS,2,num_4,16,num_4,1.08349001443,,,2017_Jun_28_1407,60.0072752459,MAFE4ImagesEEG,001,100809,
AFSA25.JPG,AFNE24.JPG,AFSA24.JPG,AFNE21.JPG,AFSA21.JPG,AFNE25.JPG,,,,,,,,,,,,,,,,,0,8,8,2,,,,,,,AMSA18.jpg,AMNE18.jpg,AMSA15.jpg,AMNE03.jpg,AMNE18.jpg,MN,1,num_6,16,num_6,0.683331954162,,,2017_Jun_28_1407,60.0072752459,MAFE4ImagesEEG,001,100809,
AFSA21.JPG,AFNE22.JPG,AFNE21.JPG,AFSA23.JPG,AFSA22.JPG,AFNE23.JPG,,,,,,,,,,,,,,,,,0,9,9,0,,,,,,,AMNE20.jpg,AMSA07.jpg,AMSA14.jpg,AMNE05.jpg,AMSA14.jpg,MS,2,num_2,16,num_2,0.716760354582,,,2017_Jun_28_1407,60.0072752459,MAFE4ImagesEEG,001,100809,
AMNE23.JPG,AMNE24.JPG,AMNE22.JPG,AMSA24.JPG,AMSA22.JPG,AMSA23.JPG,,,,,,,,,,,,,,,,,,,,,0,0,0,9,,,AFNE09.jpg,AFSA07.jpg,AFSA13.jpg,AFNE15.jpg,AFNE15.jpg,FN,3,num_4,16,num_4,0.533440267769,,,2017_Jun_28_1407,60.0072752459,MAFE4ImagesEEG,001,100809,
AFNE23.JPG,AFNE24.JPG,AFNE22.JPG,AFSA24.JPG,AFSA22.JPG,AFSA23.JPG,,,,,,,,,,,,,,,,,,,,,0,1,1,8,,,AFNE01.jpg,AFNE07.jpg,AFSA15.jpg,AFSA17.jpg,AFNE01.jpg,FN,3,num_8,16,num_8,1.38359573008,,,2017_Jun_28_1407,60.0072752459,MAFE4ImagesEEG,001,100809,
AMNE22.JPG,AMSA24.JPG,AMSA22.JPG,AMNE25.JPG,AMNE24.JPG,AMSA25.JPG,,,,,,,,,,,,,,,,,,,,,0,2,2,7,,,AFSA04.jpg,AFNE09.jpg,AFSA01.jpg,AFNE13.jpg,AFSA01.jpg,FS,4,num_2,32,num_4,1.23340671846,,,2017_Jun_28_1407,60.0072752459,MAFE4ImagesEEG,001,100809,
AFSA25.JPG,AFNE24.JPG,AFSA24.JPG,AFNE21.JPG,AFSA21.JPG,AFNE25.JPG,,,,,,,,,,,,,,,,,,,,,0,3,3,2,,,AFNE15.jpg,AFNE14.jpg,AFSA16.jpg,AFSA09.jpg,AFNE15.jpg,FN,3,num_8,32,num_6,1.83342249882,,,2017_Jun_28_1407,60.0072752459,MAFE4ImagesEEG,001,100809,
AMSA21.JPG,AMNE22.JPG,AMNE21.JPG,AMSA23.JPG,AMSA22.JPG,AMNE23.JPG,,,,,,,,,,,,,,,,,,,,,0,4,4,1,,,AFNE12.jpg,AFNE01.jpg,AFSA14.jpg,AFSA05.jpg,AFSA05.jpg,FS,4,num_4,16,num_4,1.033455984,,,2017_Jun_28_1407,60.0072752459,MAFE4ImagesEEG,001,100809,
AMSA25.JPG,AMNE24.JPG,AMSA24.JPG,AMNE26.JPG,AMSA21.JPG,AMNE25.JPG,,,,,,,,,,,,,,,,,,,,,0,5,5,3,,,AFSA07.jpg,AFNE12.jpg,AFSA05.jpg,AFNE20.jpg,AFSA05.jpg,FS,4,num_2,16,num_2,0.700138687622,,,2017_Jun_28_1407,60.0072752459,MAFE4ImagesEEG,001,100809,
AFSA21.JPG,AFNE23.JPG,AFNE21.JPG,AFSA25.JPG,AFNE25.JPG,AFSA23.JPG,,,,,,,,,,,,,,,,,,,,,0,6,6,4,,,AFSA20.jpg,AFSA03.jpg,AFNE19.jpg,AFNE16.jpg,AFNE16.jpg,FN,3,num_4,32,num_8,1.70005689914,,,2017_Jun_28_1407,60.0072752459,MAFE4ImagesEEG,001,100809,
AMSA21.JPG,AMNE23.JPG,AMNE21.JPG,AMSA25.JPG,AMNE25.JPG,AMSA23.JPG,,,,,,,,,,,,,,,,,,,,,0,7,7,5,,,AFNE11.jpg,AFSA15.jpg,AFSA18.jpg,AFNE09.jpg,AFSA18.jpg,FS,4,num_2,32,num_6,0.733464772245,,,2017_Jun_28_1407,60.0072752459,MAFE4ImagesEEG,001,100809,
AFSA21.JPG,AFNE22.JPG,AFNE21.JPG,AFSA23.JPG,AFSA22.JPG,AFNE23.JPG,,,,,,,,,,,,,,,,,,,,,0,8,8,0,,,AFNE12.jpg,AFSA08.jpg,AFNE02.jpg,AFSA17.jpg,AFSA08.jpg,FS,4,num_6,32,num_4,1.8003437041,,,2017_Jun_28_1407,60.0072752459,MAFE4ImagesEEG,001,100809,
AFNE22.JPG,AFSA24.JPG,AFSA22.JPG,AFNE25.JPG,AFNE24.JPG,AFSA25.JPG,,,,,,,,,,,,,,,,,,,,,0,9,9,6,,,AFNE04.jpg,AFSA01.jpg,AFSA05.jpg,AFNE15.jpg,AFSA01.jpg,FS,4,num_6,16,num_6,1.08348969369,,,2017_Jun_28_1407,60.0072752459,MAFE4ImagesEEG,001,100809,
,,,,,,,,,,,,,,,,,,,,,,,,,,,,,,,,,,,,,,,,,,,space,11.4492147984,2017_Jun_28_1407,60.0072752459,MAFE4ImagesEEG,001,100809,
AFNE01.JPG,AFNE01.JPG,AFNE01.JPG,AFNE01.JPG,AFNE01.JPG,AFNE01.JPG,0,0,0,1,,,,,,,,,,,,,,,,,,,,,,,AMSA02.jpg,AMNE19.jpg,AMNE17.jpg,AMSA20.jpg,AMSA02.jpg,MS,2,num_8,32,num_4,1.61673398982,,,2017_Jun_28_1407,60.0072752459,MAFE4ImagesEEG,001,100809,
AFNE01.JPG,AFNE01.JPG,AFNE01.JPG,AFNE01.JPG,AFNE01.JPG,AFNE01.JPG,0,1,1,3,,,,,,,,,,,,,,,,,,,,,,,AMSA18.jpg,AMNE20.jpg,AMSA09.jpg,AMNE19.jpg,AMSA18.jpg,MS,2,num_8,16,num_8,2.08331841897,,,2017_Jun_28_1407,60.0072752459,MAFE4ImagesEEG,001,100809,
AFNE01.JPG,AFNE01.JPG,AFNE01.JPG,AFNE01.JPG,AFNE01.JPG,AFNE01.JPG,0,2,2,8,,,,,,,,,,,,,,,,,,,,,,,AMSA02.jpg,AMNE16.jpg,AMSA16.jpg,AMNE04.jpg,AMNE04.jpg,MN,1,num_4,16,num_4,0.600128359816,,,2017_Jun_28_1407,60.0072752459,MAFE4ImagesEEG,001,100809,
AFNE01.JPG,AFNE01.JPG,AFNE01.JPG,AFNE01.JPG,AFNE01.JPG,AFNE01.JPG,0,3,3,2,,,,,,,,,,,,,,,,,,,,,,,AMSA15.jpg,AMNE16.jpg,AMSA17.jpg,AMNE15.jpg,AMNE16.jpg,MN,1,num_6,16,num_6,1.11676446005,,,2017_Jun_28_1407,60.0072752459,MAFE4ImagesEEG,001,100809,
AFNE01.JPG,AFNE01.JPG,AFNE01.JPG,AFNE01.JPG,AFNE01.JPG,AFNE01.JPG,0,4,4,4,,,,,,,,,,,,,,,,,,,,,,,AMNE17.jpg,AMSA12.jpg,AMSA17.jpg,AMNE19.jpg,AMNE17.jpg,MN,1,num_8,32,num_4,0.800147411734,,,2017_Jun_28_1407,60.0072752459,MAFE4ImagesEEG,001,100809,
AFNE01.JPG,AFNE01.JPG,AFNE01.JPG,AFNE01.JPG,AFNE01.JPG,AFNE01.JPG,0,5,5,0,,,,,,,,,,,,,,,,,,,,,,,AMNE18.jpg,AMSA04.jpg,AMSA10.jpg,AMNE16.jpg,AMNE16.jpg,MN,1,num_4,32,num_8,1.08306888388,,,2017_Jun_28_1407,60.0072752459,MAFE4ImagesEEG,001,100809,
AFNE01.JPG,AFNE01.JPG,AFNE01.JPG,AFNE01.JPG,AFNE01.JPG,AFNE01.JPG,0,6,6,9,,,,,,,,,,,,,,,,,,,,,,,AMSA06.jpg,AMSA03.jpg,AMNE16.jpg,AMNE09.jpg,AMNE09.jpg,MN,1,num_4,16,num_4,2.11669550113,,,2017_Jun_28_1407,60.0072752459,MAFE4ImagesEEG,001,100809,
AFNE01.JPG,AFNE01.JPG,AFNE01.JPG,AFNE01.JPG,AFNE01.JPG,AFNE01.JPG,0,7,7,7,,,,,,,,,,,,,,,,,,,,,,,AMSA19.jpg,AMSA18.jpg,AMNE13.jpg,AMNE20.jpg,AMSA19.jpg,MS,2,num_8,16,num_8,1.78337018627,,,2017_Jun_28_1407,60.0072752459,MAFE4ImagesEEG,001,100809,
AFNE01.JPG,AFNE01.JPG,AFNE01.JPG,AFNE01.JPG,AFNE01.JPG,AFNE01.JPG,0,8,8,6,,,,,,,,,,,,,,,,,,,,,,,AMNE03.jpg,AMSA02.jpg,AMSA10.jpg,AMNE08.jpg,AMNE08.jpg,MN,1,num_4,16,num_4,1.21673245027,,,2017_Jun_28_1407,60.0072752459,MAFE4ImagesEEG,001,100809,
AFNE01.JPG,AFNE01.JPG,AFNE01.JPG,AFNE01.JPG,AFNE01.JPG,AFNE01.JPG,0,9,9,5,,,,,,,,,,,,,,,,,,,,,,,AMNE11.jpg,AMNE19.jpg,AMSA04.jpg,AMSA10.jpg,AMNE19.jpg,MN,1,num_6,16,num_6,0.85017919699,,,2017_Jun_28_1407,60.0072752459,MAFE4ImagesEEG,001,100809,
AFNE01.JPG,AFNE01.JPG,AFNE01.JPG,AFNE01.JPG,AFNE01.JPG,AFNE01.JPG,1,0,10,9,,,,,,,,,,,,,,,,,,,,,,,AMNE05.jpg,AMNE01.jpg,AMSA20.jpg,AMSA16.jpg,AMNE05.jpg,MN,1,num_8,16,num_8,1.25016630326,,,2017_Jun_28_1407,60.0072752459,MAFE4ImagesEEG,001,100809,
AFNE01.JPG,AFNE01.JPG,AFNE01.JPG,AFNE01.JPG,AFNE01.JPG,AFNE01.JPG,1,1,11,0,,,,,,,,,,,,,,,,,,,,,,,AMSA10.jpg,AMNE18.jpg,AMNE17.jpg,AMSA19.jpg,AMSA19.jpg,MS,2,num_4,16,num_4,1.41658824593,,,2017_Jun_28_1407,60.0072752459,MAFE4ImagesEEG,001,100809,
AFNE01.JPG,AFNE01.JPG,AFNE01.JPG,AFNE01.JPG,AFNE01.JPG,AFNE01.JPG,1,2,12,1,,,,,,,,,,,,,,,,,,,,,,,AMNE07.jpg,AMSA08.jpg,AMNE11.jpg,AMSA20.jpg,AMSA20.jpg,MS,2,num_4,16,num_4,0.616840795978,,,2017_Jun_28_1407,60.0072752459,MAFE4ImagesEEG,001,100809,
AFNE01.JPG,AFNE01.JPG,AFNE01.JPG,AFNE01.JPG,AFNE01.JPG,AFNE01.JPG,1,3,13,8,,,,,,,,,,,,,,,,,,,,,,,AMNE05.jpg,AMNE14.jpg,AMSA14.jpg,AMSA18.jpg,AMNE14.jpg,MN,1,num_6,16,num_6,2.54996763742,,,2017_Jun_28_1407,60.0072752459,MAFE4ImagesEEG,001,100809,
AFNE01.JPG,AFNE01.JPG,AFNE01.JPG,AFNE01.JPG,AFNE01.JPG,AFNE01.JPG,1,4,14,7,,,,,,,,,,,,,,,,,,,,,,,AMNE18.jpg,AMSA12.jpg,AMSA09.jpg,AMNE10.jpg,AMSA12.jpg,MS,2,num_6,16,num_6,0.850087144849,,,2017_Jun_28_1407,60.0072752459,MAFE4ImagesEEG,001,100809,
AFNE01.JPG,AFNE01.JPG,AFNE01.JPG,AFNE01.JPG,AFNE01.JPG,AFNE01.JPG,1,5,15,2,,,,,,,,,,,,,,,,,,,,,,,AMNE03.jpg,AMSA12.jpg,AMNE13.jpg,AMSA10.jpg,AMNE13.jpg,MN,1,num_2,32,num_8,1.13341531427,,,2017_Jun_28_1407,60.0072752459,MAFE4ImagesEEG,001,100809,
AFNE01.JPG,AFNE01.JPG,AFNE01.JPG,AFNE01.JPG,AFNE01.JPG,AFNE01.JPG,1,6,16,6,,,,,,,,,,,,,,,,,,,,,,,AMSA03.jpg,AMNE03.jpg,AMSA20.jpg,AMNE12.jpg,AMNE03.jpg,MN,1,num_6,32,num_4,1.15009375206,,,2017_Jun_28_1407,60.0072752459,MAFE4ImagesEEG,001,100809,
AFNE01.JPG,AFNE01.JPG,AFNE01.JPG,AFNE01.JPG,AFNE01.JPG,AFNE01.JPG,1,7,17,3,,,,,,,,,,,,,,,,,,,,,,,AMNE11.jpg,AMSA01.jpg,AMNE18.jpg,AMSA14.jpg,AMSA01.jpg,MS,2,num_6,16,num_6,0.600214638675,,,2017_Jun_28_1407,60.0072752459,MAFE4ImagesEEG,001,100809,
AFNE01.JPG,AFNE01.JPG,AFNE01.JPG,AFNE01.JPG,AFNE01.JPG,AFNE01.JPG,1,8,18,4,,,,,,,,,,,,,,,,,,,,,,,AMNE06.jpg,AMSA13.jpg,AMNE13.jpg,AMSA11.jpg,AMSA11.jpg,MS,2,num_4,32,num_6,0.933462334637,,,2017_Jun_28_1407,60.0072752459,MAFE4ImagesEEG,001,100809,
AFNE01.JPG,AFNE01.JPG,AFNE01.JPG,AFNE01.JPG,AFNE01.JPG,AFNE01.JPG,1,9,19,5,,,,,,,,,,,,,,,,,,,,,,,AMSA06.jpg,AMNE16.jpg,AMSA20.jpg,AMNE04.jpg,AMNE04.jpg,MN,1,num_4,16,num_4,1.41693143688,,,2017_Jun_28_1407,60.0072752459,MAFE4ImagesEEG,001,100809,
AFNE01.JPG,AFNE01.JPG,AFNE01.JPG,AFNE01.JPG,AFNE01.JPG,AFNE01.JPG,2,0,20,6,,,,,,,,,,,,,,,,,,,,,,,AMSA16.jpg,AMNE12.jpg,AMSA10.jpg,AMNE13.jpg,AMNE13.jpg,MN,1,num_4,32,num_8,2.13351602637,,,2017_Jun_28_1407,60.0072752459,MAFE4ImagesEEG,001,100809,
AFNE01.JPG,AFNE01.JPG,AFNE01.JPG,AFNE01.JPG,AFNE01.JPG,AFNE01.JPG,2,1,21,8,,,,,,,,,,,,,,,,,,,,,,,AMNE19.jpg,AMSA15.jpg,AMNE16.jpg,AMSA06.jpg,AMSA15.jpg,MS,2,num_6,16,num_6,0.616771516303,,,2017_Jun_28_1407,60.0072752459,MAFE4ImagesEEG,001,100809,
AFNE01.JPG,AFNE01.JPG,AFNE01.JPG,AFNE01.JPG,AFNE01.JPG,AFNE01.JPG,2,2,22,3,,,,,,,,,,,,,,,,,,,,,,,AMNE15.jpg,AMSA15.jpg,AMSA12.jpg,AMNE07.jpg,AMNE07.jpg,MN,1,num_4,16,num_4,0.650057187799,,,2017_Jun_28_1407,60.0072752459,MAFE4ImagesEEG,001,100809,
AFNE01.JPG,AFNE01.JPG,AFNE01.JPG,AFNE01.JPG,AFNE01.JPG,AFNE01.JPG,2,3,23,5,,,,,,,,,,,,,,,,,,,,,,,AMSA09.jpg,AMNE03.jpg,AMNE09.jpg,AMSA01.jpg,AMNE09.jpg,MN,1,num_2,16,num_2,1.88345877443,,,2017_Jun_28_1407,60.0072752459,MAFE4ImagesEEG,001,100809,
AFNE01.JPG,AFNE01.JPG,AFNE01.JPG,AFNE01.JPG,AFNE01.JPG,AFNE01.JPG,2,4,24,1,,,,,,,,,,,,,,,,,,,,,,,AMNE09.jpg,AMSA02.jpg,AMNE05.jpg,AMSA16.jpg,AMSA02.jpg,MS,2,num_6,32,num_4,2.28300999616,,,2017_Jun_28_1407,60.0072752459,MAFE4ImagesEEG,001,100809,
AFNE01.JPG,AFNE01.JPG,AFNE01.JPG,AFNE01.JPG,AFNE01.JPG,AFNE01.JPG,2,5,25,9,,,,,,,,,,,,,,,,,,,,,,,AMSA15.jpg,AMNE15.jpg,AMNE03.jpg,AMSA18.jpg,AMSA18.jpg,MS,2,num_4,16,num_4,1.18346409869,,,2017_Jun_28_1407,60.0072752459,MAFE4ImagesEEG,001,100809,
AFNE01.JPG,AFNE01.JPG,AFNE01.JPG,AFNE01.JPG,AFNE01.JPG,AFNE01.JPG,2,6,26,0,,,,,,,,,,,,,,,,,,,,,,,AMSA11.jpg,AMNE11.jpg,AMSA19.jpg,AMNE07.jpg,AMNE07.jpg,MN,1,num_4,16,num_4,0.916738351865,,,2017_Jun_28_1407,60.0072752459,MAFE4ImagesEEG,001,100809,
AFNE01.JPG,AFNE01.JPG,AFNE01.JPG,AFNE01.JPG,AFNE01.JPG,AFNE01.JPG,2,7,27,7,,,,,,,,,,,,,,,,,,,,,,,AMSA04.jpg,AMSA08.jpg,AMNE06.jpg,AMNE12.jpg,AMNE06.jpg,MN,1,num_2,16,num_2,2.60025473106,,,2017_Jun_28_1407,60.0072752459,MAFE4ImagesEEG,001,100809,
AFNE01.JPG,AFNE01.JPG,AFNE01.JPG,AFNE01.JPG,AFNE01.JPG,AFNE01.JPG,2,8,28,4,,,,,,,,,,,,,,,,,,,,,,,AMSA13.jpg,AMNE20.jpg,AMNE02.jpg,AMSA11.jpg,AMSA13.jpg,MS,2,num_8,16,num_8,1.33339716043,,,2017_Jun_28_1407,60.0072752459,MAFE4ImagesEEG,001,100809,
AFNE01.JPG,AFNE01.JPG,AFNE01.JPG,AFNE01.JPG,AFNE01.JPG,AFNE01.JPG,2,9,29,2,,,,,,,,,,,,,,,,,,,,,,,AMSA20.jpg,AMNE14.jpg,AMSA11.jpg,AMNE16.jpg,AMNE16.jpg,MN,1,num_4,16,num_4,0.566771163489,,,2017_Jun_28_1407,60.0072752459,MAFE4ImagesEEG,001,100809,
AFNE01.JPG,AFNE01.JPG,AFNE01.JPG,AFNE01.JPG,AFNE01.JPG,AFNE01.JPG,3,0,30,8,,,,,,,,,,,,,,,,,,,,,,,AMSA08.jpg,AMNE04.jpg,AMSA18.jpg,AMNE11.jpg,AMSA08.jpg,MS,2,num_8,32,num_6,1.56672850519,,,2017_Jun_28_1407,60.0072752459,MAFE4ImagesEEG,001,100809,
AFNE01.JPG,AFNE01.JPG,AFNE01.JPG,AFNE01.JPG,AFNE01.JPG,AFNE01.JPG,3,1,31,6,,,,,,,,,,,,,,,,,,,,,,,AMNE07.jpg,AMSA03.jpg,AMNE14.jpg,AMSA02.jpg,AMSA03.jpg,MS,2,num_6,32,num_4,1.01688820122,,,2017_Jun_28_1407,60.0072752459,MAFE4ImagesEEG,001,100809,
AFNE01.JPG,AFNE01.JPG,AFNE01.JPG,AFNE01.JPG,AFNE01.JPG,AFNE01.JPG,3,2,32,2,,,,,,,,,,,,,,,,,,,,,,,AMSA02.jpg,AMNE05.jpg,AMSA18.jpg,AMNE11.jpg,AMSA18.jpg,MS,2,num_2,16,num_2,1.48338827597,,,2017_Jun_28_1407,60.0072752459,MAFE4ImagesEEG,001,100809,
AFNE01.JPG,AFNE01.JPG,AFNE01.JPG,AFNE01.JPG,AFNE01.JPG,AFNE01.JPG,3,3,33,3,,,,,,,,,,,,,,,,,,,,,,,AMSA12.jpg,AMNE10.jpg,AMNE04.jpg,AMSA14.jpg,AMNE10.jpg,MN,1,num_6,32,num_2,1.96667199093,,,2017_Jun_28_1407,60.0072752459,MAFE4ImagesEEG,001,100809,
AFNE01.JPG,AFNE01.JPG,AFNE01.JPG,AFNE01.JPG,AFNE01.JPG,AFNE01.JPG,3,4,34,5,,,,,,,,,,,,,,,,,,,,,,,AMNE13.jpg,AMNE15.jpg,AMSA04.jpg,AMSA02.jpg,AMSA02.jpg,MS,2,num_4,16,num_4,2.19965116406,,,2017_Jun_28_1407,60.0072752459,MAFE4ImagesEEG,001,100809,
AFNE01.JPG,AFNE01.JPG,AFNE01.JPG,AFNE01.JPG,AFNE01.JPG,AFNE01.JPG,3,5,35,4,,,,,,,,,,,,,,,,,,,,,,,AMSA07.jpg,AMSA20.jpg,AMNE10.jpg,AMNE15.jpg,AMSA07.jpg,MS,2,num_8,16,num_8,1.18344838248,,,2017_Jun_28_1407,60.0072752459,MAFE4ImagesEEG,001,100809,
AFNE01.JPG,AFNE01.JPG,AFNE01.JPG,AFNE01.JPG,AFNE01.JPG,AFNE01.JPG,3,6,36,9,,,,,,,,,,,,,,,,,,,,,,,AMSA03.jpg,AMSA19.jpg,AMNE10.jpg,AMNE13.jpg,AMNE10.jpg,MN,1,num_2,32,num_4,1.083280251,,,2017_Jun_28_1407,60.0072752459,MAFE4ImagesEEG,001,100809,
AFNE01.JPG,AFNE01.JPG,AFNE01.JPG,AFNE01.JPG,AFNE01.JPG,AFNE01.JPG,3,7,37,7,,,,,,,,,,,,,,,,,,,,,,,AMSA14.jpg,AMSA04.jpg,AMNE07.jpg,AMNE01.jpg,AMNE01.jpg,MN,1,num_4,32,num_8,3.31655739082,,,2017_Jun_28_1407,60.0072752459,MAFE4ImagesEEG,001,100809,
AFNE01.JPG,AFNE01.JPG,AFNE01.JPG,AFNE01.JPG,AFNE01.JPG,AFNE01.JPG,3,8,38,0,,,,,,,,,,,,,,,,,,,,,,,AMNE03.jpg,AMSA10.jpg,AMNE01.jpg,AMSA05.jpg,AMSA05.jpg,MS,2,num_4,16,num_4,3.34996366025,,,2017_Jun_28_1407,60.0072752459,MAFE4ImagesEEG,001,100809,
AFNE01.JPG,AFNE01.JPG,AFNE01.JPG,AFNE01.JPG,AFNE01.JPG,AFNE01.JPG,3,9,39,1,,,,,,,,,,,,,,,,,,,,,,,AMNE04.jpg,AMSA12.jpg,AMSA20.jpg,AMNE17.jpg,AMSA12.jpg,MS,2,num_6,32,num_2,0.800093848273,,,2017_Jun_28_1407,60.0072752459,MAFE4ImagesEEG,001,100809,
AFNE01.JPG,AFNE01.JPG,AFNE01.JPG,AFNE01.JPG,AFNE01.JPG,AFNE01.JPG,4,0,40,8,,,,,,,,,,,,,,,,,,,,,,,AMNE05.jpg,AMSA11.jpg,AMNE01.jpg,AMSA14.jpg,AMNE01.jpg,MN,1,num_2,32,num_6,1.33348408077,,,2017_Jun_28_1407,60.0072752459,MAFE4ImagesEEG,001,100809,
AFNE01.JPG,AFNE01.JPG,AFNE01.JPG,AFNE01.JPG,AFNE01.JPG,AFNE01.JPG,4,1,41,4,,,,,,,,,,,,,,,,,,,,,,,AMSA05.jpg,AMNE11.jpg,AMNE13.jpg,AMSA11.jpg,AMNE11.jpg,MN,1,num_6,32,num_2,0.950073417203,,,2017_Jun_28_1407,60.0072752459,MAFE4ImagesEEG,001,100809,
AFNE01.JPG,AFNE01.JPG,AFNE01.JPG,AFNE01.JPG,AFNE01.JPG,AFNE01.JPG,4,2,42,9,,,,,,,,,,,,,,,,,,,,,,,AMNE19.jpg,AMSA12.jpg,AMNE01.jpg,AMSA19.jpg,AMSA19.jpg,MS,2,num_4,16,num_4,0.550121912966,,,2017_Jun_28_1407,60.0072752459,MAFE4ImagesEEG,001,100809,
AFNE01.JPG,AFNE01.JPG,AFNE01.JPG,AFNE01.JPG,AFNE01.JPG,AFNE01.JPG,4,3,43,2,,,,,,,,,,,,,,,,,,,,,,,AMSA01.jpg,AMNE15.jpg,AMSA13.jpg,AMNE11.jpg,AMSA13.jpg,MS,2,num_2,16,num_2,0.883496300914,,,2017_Jun_28_1407,60.0072752459,MAFE4ImagesEEG,001,100809,
AFNE01.JPG,AFNE01.JPG,AFNE01.JPG,AFNE01.JPG,AFNE01.JPG,AFNE01.JPG,4,4,44,7,,,,,,,,,,,,,,,,,,,,,,,AMNE01.jpg,AMSA03.jpg,AMSA09.jpg,AMNE16.jpg,AMSA03.jpg,MS,2,num_6,32,num_8,1.23312510944,,,2017_Jun_28_1407,60.0072752459,MAFE4ImagesEEG,001,100809,
AFNE01.JPG,AFNE01.JPG,AFNE01.JPG,AFNE01.JPG,AFNE01.JPG,AFNE01.JPG,4,5,45,6,,,,,,,,,,,,,,,,,,,,,,,AMSA12.jpg,AMNE04.jpg,AMNE13.jpg,AMSA08.jpg,AMNE04.jpg,MN,1,num_6,16,num_6,1.36676911077,,,2017_Jun_28_1407,60.0072752459,MAFE4ImagesEEG,001,100809,
AFNE01.JPG,AFNE01.JPG,AFNE01.JPG,AFNE01.JPG,AFNE01.JPG,AFNE01.JPG,4,6,46,3,,,,,,,,,,,,,,,,,,,,,,,AMNE14.jpg,AMSA01.jpg,AMNE08.jpg,AMSA10.jpg,AMSA10.jpg,MS,2,num_4,32,num_2,1.73341056732,,,2017_Jun_28_1407,60.0072752459,MAFE4ImagesEEG,001,100809,
AFNE01.JPG,AFNE01.JPG,AFNE01.JPG,AFNE01.JPG,AFNE01.JPG,AFNE01.JPG,4,7,47,1,,,,,,,,,,,,,,,,,,,,,,,AMNE18.jpg,AMSA05.jpg,AMNE16.jpg,AMSA10.jpg,AMNE16.jpg,MN,1,num_2,16,num_2,0.733720401389,,,2017_Jun_28_1407,60.0072752459,MAFE4ImagesEEG,001,100809,
AFNE01.JPG,AFNE01.JPG,AFNE01.JPG,AFNE01.JPG,AFNE01.JPG,AFNE01.JPG,4,8,48,5,,,,,,,,,,,,,,,,,,,,,,,AMSA02.jpg,AMNE02.jpg,AMSA19.jpg,AMNE04.jpg,AMSA02.jpg,MS,2,num_8,16,num_8,2.71659773983,,,2017_Jun_28_1407,60.0072752459,MAFE4ImagesEEG,001,100809,
AFNE01.JPG,AFNE01.JPG,AFNE01.JPG,AFNE01.JPG,AFNE01.JPG,AFNE01.JPG,4,9,49,0,,,,,,,,,,,,,,,,,,,,,,,AMSA11.jpg,AMNE13.jpg,AMNE18.jpg,AMSA20.jpg,AMSA20.jpg,MS,2,num_4,16,num_4,0.816739891423,,,2017_Jun_28_1407,60.0072752459,MAFE4ImagesEEG,001,100809,
AFNE01.JPG,AFNE01.JPG,AFNE01.JPG,AFNE01.JPG,AFNE01.JPG,AFNE01.JPG,5,0,50,8,,,,,,,,,,,,,,,,,,,,,,,AMSA20.jpg,AMNE13.jpg,AMSA14.jpg,AMNE03.jpg,AMSA14.jpg,MS,2,num_2,16,num_2,0.816761701688,,,2017_Jun_28_1407,60.0072752459,MAFE4ImagesEEG,001,100809,
AFNE01.JPG,AFNE01.JPG,AFNE01.JPG,AFNE01.JPG,AFNE01.JPG,AFNE01.JPG,5,1,51,0,,,,,,,,,,,,,,,,,,,,,,,AMSA11.jpg,AMNE07.jpg,AMSA07.jpg,AMNE13.jpg,AMSA11.jpg,MS,2,num_8,32,num_6,1.13330914961,,,2017_Jun_28_1407,60.0072752459,MAFE4ImagesEEG,001,100809,
AFNE01.JPG,AFNE01.JPG,AFNE01.JPG,AFNE01.JPG,AFNE01.JPG,AFNE01.JPG,5,2,52,7,,,,,,,,,,,,,,,,,,,,,,,AMSA09.jpg,AMNE06.jpg,AMSA05.jpg,AMNE05.jpg,AMSA05.jpg,MS,2,num_2,32,num_6,0.816737325513,,,2017_Jun_28_1407,60.0072752459,MAFE4ImagesEEG,001,100809,
AFNE01.JPG,AFNE01.JPG,AFNE01.JPG,AFNE01.JPG,AFNE01.JPG,AFNE01.JPG,5,3,53,4,,,,,,,,,,,,,,,,,,,,,,,AMNE19.jpg,AMSA12.jpg,AMSA17.jpg,AMNE04.jpg,AMSA12.jpg,MS,2,num_6,32,num_8,3.61652037753,,,2017_Jun_28_1407,60.0072752459,MAFE4ImagesEEG,001,100809,
AFNE01.JPG,AFNE01.JPG,AFNE01.JPG,AFNE01.JPG,AFNE01.JPG,AFNE01.JPG,5,4,54,6,,,,,,,,,,,,,,,,,,,,,,,AMNE10.jpg,AMNE16.jpg,AMSA10.jpg,AMSA13.jpg,AMSA10.jpg,MS,2,num_2,32,num_6,1.3331235699,,,2017_Jun_28_1407,60.0072752459,MAFE4ImagesEEG,001,100809,
AFNE01.JPG,AFNE01.JPG,AFNE01.JPG,AFNE01.JPG,AFNE01.JPG,AFNE01.JPG,5,5,55,2,,,,,,,,,,,,,,,,,,,,,,,AMSA10.jpg,AMNE18.jpg,AMSA14.jpg,AMNE15.jpg,AMSA10.jpg,MS,2,num_8,32,num_6,2.78331886799,,,2017_Jun_28_1407,60.0072752459,MAFE4ImagesEEG,001,100809,
AFNE01.JPG,AFNE01.JPG,AFNE01.JPG,AFNE01.JPG,AFNE01.JPG,AFNE01.JPG,5,6,56,3,,,,,,,,,,,,,,,,,,,,,,,AMNE09.jpg,AMSA08.jpg,AMNE19.jpg,AMSA04.jpg,AMSA04.jpg,MS,2,num_4,16,num_4,0.800100263077,,,2017_Jun_28_1407,60.0072752459,MAFE4ImagesEEG,001,100809,
AFNE01.JPG,AFNE01.JPG,AFNE01.JPG,AFNE01.JPG,AFNE01.JPG,AFNE01.JPG,5,7,57,9,,,,,,,,,,,,,,,,,,,,,,,AMSA07.jpg,AMNE08.jpg,AMSA03.jpg,AMNE18.jpg,AMSA07.jpg,MS,2,num_8,16,num_8,1.8667431309,,,2017_Jun_28_1407,60.0072752459,MAFE4ImagesEEG,001,100809,
AFNE01.JPG,AFNE01.JPG,AFNE01.JPG,AFNE01.JPG,AFNE01.JPG,AFNE01.JPG,5,8,58,5,,,,,,,,,,,,,,,,,,,,,,,AMNE19.jpg,AMNE12.jpg,AMSA19.jpg,AMSA01.jpg,AMSA01.jpg,MS,2,num_4,16,num_4,0.600164282601,,,2017_Jun_28_1407,60.0072752459,MAFE4ImagesEEG,001,100809,
AFNE01.JPG,AFNE01.JPG,AFNE01.JPG,AFNE01.JPG,AFNE01.JPG,AFNE01.JPG,5,9,59,1,,,,,,,,,,,,,,,,,,,,,,,AMSA11.jpg,AMNE06.jpg,AMSA12.jpg,AMNE05.jpg,AMSA12.jpg,MS,2,num_2,16,num_2,1.00013920081,,,2017_Jun_28_1407,60.0072752459,MAFE4ImagesEEG,001,100809,
,,,,,,,,,,,,,,,,,,,,,,,,,,,,,,,,,,,,,,,,,,,space,20.331969871,2017_Jun_28_1407,60.0072752459,MAFE4ImagesEEG,001,100809,
AFNE01.JPG,AFNE01.JPG,AFNE01.JPG,AFNE01.JPG,AFNE01.JPG,AFNE01.JPG,,,,,0,0,0,9,,,,,,,,,,,,,,,,,,,AFNE04.jpg,AFNE03.jpg,AFSA18.jpg,AFSA08.jpg,AFNE03.jpg,FN,3,num_6,32,num_4,3.04963920049,,,2017_Jun_28_1407,60.0072752459,MAFE4ImagesEEG,001,100809,
AFNE01.JPG,AFNE01.JPG,AFNE01.JPG,AFNE01.JPG,AFNE01.JPG,AFNE01.JPG,,,,,0,1,1,0,,,,,,,,,,,,,,,,,,,AFSA09.jpg,AFNE19.jpg,AFNE10.jpg,AFSA12.jpg,AFSA09.jpg,FS,4,num_8,16,num_8,0.58349514626,,,2017_Jun_28_1407,60.0072752459,MAFE4ImagesEEG,001,100809,
AFNE01.JPG,AFNE01.JPG,AFNE01.JPG,AFNE01.JPG,AFNE01.JPG,AFNE01.JPG,,,,,0,2,2,1,,,,,,,,,,,,,,,,,,,AFSA03.jpg,AFSA14.jpg,AFNE13.jpg,AFNE14.jpg,AFSA03.jpg,FS,4,num_8,32,num_6,0.95012698065,,,2017_Jun_28_1407,60.0072752459,MAFE4ImagesEEG,001,100809,
AFNE01.JPG,AFNE01.JPG,AFNE01.JPG,AFNE01.JPG,AFNE01.JPG,AFNE01.JPG,,,,,0,3,3,8,,,,,,,,,,,,,,,,,,,AFSA09.jpg,AFNE12.jpg,AFNE15.jpg,AFSA20.jpg,AFNE15.jpg,FN,3,num_2,16,num_2,1.23346092338,,,2017_Jun_28_1407,60.0072752459,MAFE4ImagesEEG,001,100809,
AFNE01.JPG,AFNE01.JPG,AFNE01.JPG,AFNE01.JPG,AFNE01.JPG,AFNE01.JPG,,,,,0,4,4,2,,,,,,,,,,,,,,,,,,,AFSA08.jpg,AFSA20.jpg,AFNE15.jpg,AFNE10.jpg,AFSA20.jpg,FS,4,num_6,32,num_8,1.26674659488,,,2017_Jun_28_1407,60.0072752459,MAFE4ImagesEEG,001,100809,
AFNE01.JPG,AFNE01.JPG,AFNE01.JPG,AFNE01.JPG,AFNE01.JPG,AFNE01.JPG,,,,,0,5,5,6,,,,,,,,,,,,,,,,,,,AFNE04.jpg,AFNE15.jpg,AFSA15.jpg,AFSA06.jpg,AFNE04.jpg,FN,3,num_8,16,num_8,2.53329785957,,,2017_Jun_28_1407,60.0072752459,MAFE4ImagesEEG,001,100809,
AFNE01.JPG,AFNE01.JPG,AFNE01.JPG,AFNE01.JPG,AFNE01.JPG,AFNE01.JPG,,,,,0,6,6,7,,,,,,,,,,,,,,,,,,,AFNE01.jpg,AFSA07.jpg,AFSA17.jpg,AFNE20.jpg,AFSA07.jpg,FS,4,num_6,16,num_6,1.65014667403,,,2017_Jun_28_1407,60.0072752459,MAFE4ImagesEEG,001,100809,
AFNE01.JPG,AFNE01.JPG,AFNE01.JPG,AFNE01.JPG,AFNE01.JPG,AFNE01.JPG,,,,,0,7,7,4,,,,,,,,,,,,,,,,,,,AFSA09.jpg,AFSA04.jpg,AFNE01.jpg,AFNE07.jpg,AFNE01.jpg,FN,3,num_2,32,num_8,1.95002466484,,,2017_Jun_28_1407,60.0072752459,MAFE4ImagesEEG,001,100809,
AFNE01.JPG,AFNE01.JPG,AFNE01.JPG,AFNE01.JPG,AFNE01.JPG,AFNE01.JPG,,,,,0,8,8,3,,,,,,,,,,,,,,,,,,,AFSA11.jpg,AFSA04.jpg,AFNE20.jpg,AFNE10.jpg,AFNE10.jpg,FN,3,num_4,16,num_4,1.03342358934,,,2017_Jun_28_1407,60.0072752459,MAFE4ImagesEEG,001,100809,
AFNE01.JPG,AFNE01.JPG,AFNE01.JPG,AFNE01.JPG,AFNE01.JPG,AFNE01.JPG,,,,,0,9,9,5,,,,,,,,,,,,,,,,,,,AFNE05.jpg,AFSA01.jpg,AFNE07.jpg,AFSA19.jpg,AFNE07.jpg,FN,3,num_2,16,num_2,3.09990576682,,,2017_Jun_28_1407,60.0072752459,MAFE4ImagesEEG,001,100809,
AFNE01.JPG,AFNE01.JPG,AFNE01.JPG,AFNE01.JPG,AFNE01.JPG,AFNE01.JPG,,,,,1,0,10,4,,,,,,,,,,,,,,,,,,,AFSA14.jpg,AFNE09.jpg,AFNE14.jpg,AFSA03.jpg,AFSA14.jpg,FS,4,num_8,16,num_8,1.13344161489,,,2017_Jun_28_1407,60.0072752459,MAFE4ImagesEEG,001,100809,
AFNE01.JPG,AFNE01.JPG,AFNE01.JPG,AFNE01.JPG,AFNE01.JPG,AFNE01.JPG,,,,,1,1,11,7,,,,,,,,,,,,,,,,,,,AFSA08.jpg,AFNE05.jpg,AFSA02.jpg,AFNE15.jpg,AFSA02.jpg,FS,4,num_2,32,num_8,1.81672289224,,,2017_Jun_28_1407,60.0072752459,MAFE4ImagesEEG,001,100809,
AFNE01.JPG,AFNE01.JPG,AFNE01.JPG,AFNE01.JPG,AFNE01.JPG,AFNE01.JPG,,,,,1,2,12,8,,,,,,,,,,,,,,,,,,,AFNE18.jpg,AFNE06.jpg,AFSA11.jpg,AFSA20.jpg,AFNE18.jpg,FN,3,num_8,16,num_8,1.38327627383,,,2017_Jun_28_1407,60.0072752459,MAFE4ImagesEEG,001,100809,
AFNE01.JPG,AFNE01.JPG,AFNE01.JPG,AFNE01.JPG,AFNE01.JPG,AFNE01.JPG,,,,,1,3,13,2,,,,,,,,,,,,,,,,,,,AFSA11.jpg,AFNE16.jpg,AFSA04.jpg,AFNE08.jpg,AFSA04.jpg,FS,4,num_2,16,num_2,0.816770682388,,,2017_Jun_28_1407,60.0072752459,MAFE4ImagesEEG,001,100809,
AFNE01.JPG,AFNE01.JPG,AFNE01.JPG,AFNE01.JPG,AFNE01.JPG,AFNE01.JPG,,,,,1,4,14,5,,,,,,,,,,,,,,,,,,,AFNE13.jpg,AFSA01.jpg,AFNE01.jpg,AFSA14.jpg,AFSA01.jpg,FS,4,num_6,16,num_6,3.34988828654,,,2017_Jun_28_1407,60.0072752459,MAFE4ImagesEEG,001,100809,
AFNE01.JPG,AFNE01.JPG,AFNE01.JPG,AFNE01.JPG,AFNE01.JPG,AFNE01.JPG,,,,,1,5,15,6,,,,,,,,,,,,,,,,,,,AFSA12.jpg,AFNE09.jpg,AFNE05.jpg,AFSA04.jpg,AFSA12.jpg,FS,4,num_8,16,num_8,1.11675900748,,,2017_Jun_28_1407,60.0072752459,MAFE4ImagesEEG,001,100809,
AFNE01.JPG,AFNE01.JPG,AFNE01.JPG,AFNE01.JPG,AFNE01.JPG,AFNE01.JPG,,,,,1,6,16,9,,,,,,,,,,,,,,,,,,,AFSA07.jpg,AFNE10.jpg,AFNE14.jpg,AFSA19.jpg,AFSA19.jpg,FS,4,num_4,16,num_4,1.00000865996,,,2017_Jun_28_1407,60.0072752459,MAFE4ImagesEEG,001,100809,
AFNE01.JPG,AFNE01.JPG,AFNE01.JPG,AFNE01.JPG,AFNE01.JPG,AFNE01.JPG,,,,,1,7,17,1,,,,,,,,,,,,,,,,,,,AFNE08.jpg,AFSA18.jpg,AFNE19.jpg,AFSA20.jpg,AFSA18.jpg,FS,4,num_6,32,num_8,1.88337409928,,,2017_Jun_28_1407,60.0072752459,MAFE4ImagesEEG,001,100809,
AFNE01.JPG,AFNE01.JPG,AFNE01.JPG,AFNE01.JPG,AFNE01.JPG,AFNE01.JPG,,,,,1,8,18,3,,,,,,,,,,,,,,,,,,,AFSA05.jpg,AFNE10.jpg,AFSA09.jpg,AFNE18.jpg,AFSA09.jpg,FS,4,num_2,16,num_2,1.21684310529,,,2017_Jun_28_1407,60.0072752459,MAFE4ImagesEEG,001,100809,
AFNE01.JPG,AFNE01.JPG,AFNE01.JPG,AFNE01.JPG,AFNE01.JPG,AFNE01.JPG,,,,,1,9,19,0,,,,,,,,,,,,,,,,,,,AFNE17.jpg,AFSA12.jpg,AFNE18.jpg,AFSA16.jpg,AFSA16.jpg,FS,4,num_4,32,num_8,1.55008663166,,,2017_Jun_28_1407,60.0072752459,MAFE4ImagesEEG,001,100809,
AFNE01.JPG,AFNE01.JPG,AFNE01.JPG,AFNE01.JPG,AFNE01.JPG,AFNE01.JPG,,,,,2,0,20,4,,,,,,,,,,,,,,,,,,,AFNE07.jpg,AFSA17.jpg,AFNE11.jpg,AFSA02.jpg,AFNE11.jpg,FN,3,num_2,16,num_2,0.866760450808,,,2017_Jun_28_1407,60.0072752459,MAFE4ImagesEEG,001,100809,
AFNE01.JPG,AFNE01.JPG,AFNE01.JPG,AFNE01.JPG,AFNE01.JPG,AFNE01.JPG,,,,,2,1,21,9,,,,,,,,,,,,,,,,,,,AFNE19.jpg,AFNE11.jpg,AFSA05.jpg,AFSA11.jpg,AFNE11.jpg,FN,3,num_6,16,num_6,2.16678694387,,,2017_Jun_28_1407,60.0072752459,MAFE4ImagesEEG,001,100809,
AFNE01.JPG,AFNE01.JPG,AFNE01.JPG,AFNE01.JPG,AFNE01.JPG,AFNE01.JPG,,,,,2,2,22,7,,,,,,,,,,,,,,,,,,,AFSA13.jpg,AFNE07.jpg,AFNE12.jpg,AFSA15.jpg,AFSA13.jpg,FS,4,num_8,16,num_8,0.733458036731,,,2017_Jun_28_1407,60.0072752459,MAFE4ImagesEEG,001,100809,
AFNE01.JPG,AFNE01.JPG,AFNE01.JPG,AFNE01.JPG,AFNE01.JPG,AFNE01.JPG,,,,,2,3,23,0,,,,,,,,,,,,,,,,,,,AFNE10.jpg,AFSA15.jpg,AFNE12.jpg,AFSA05.jpg,AFSA15.jpg,FS,4,num_6,16,num_6,0.666760322507,,,2017_Jun_28_1407,60.0072752459,MAFE4ImagesEEG,001,100809,
AFNE01.JPG,AFNE01.JPG,AFNE01.JPG,AFNE01.JPG,AFNE01.JPG,AFNE01.JPG,,,,,2,4,24,1,,,,,,,,,,,,,,,,,,,AFSA08.jpg,AFNE05.jpg,AFSA06.jpg,AFNE07.jpg,AFNE05.jpg,FN,3,num_6,16,num_6,0.78344459775,,,2017_Jun_28_1407,60.0072752459,MAFE4ImagesEEG,001,100809,
AFNE01.JPG,AFNE01.JPG,AFNE01.JPG,AFNE01.JPG,AFNE01.JPG,AFNE01.JPG,,,,,2,5,25,6,,,,,,,,,,,,,,,,,,,AFNE02.jpg,AFSA17.jpg,AFSA14.jpg,AFNE18.jpg,AFSA14.jpg,FS,4,num_2,16,num_2,1.4833902004,,,2017_Jun_28_1407,60.0072752459,MAFE4ImagesEEG,001,100809,
AFNE01.JPG,AFNE01.JPG,AFNE01.JPG,AFNE01.JPG,AFNE01.JPG,AFNE01.JPG,,,,,2,6,26,8,,,,,,,,,,,,,,,,,,,AFNE16.jpg,AFSA10.jpg,AFNE07.jpg,AFSA12.jpg,AFSA10.jpg,FS,4,num_6,32,num_8,1.06670220457,,,2017_Jun_28_1407,60.0072752459,MAFE4ImagesEEG,001,100809,
AFNE01.JPG,AFNE01.JPG,AFNE01.JPG,AFNE01.JPG,AFNE01.JPG,AFNE01.JPG,,,,,2,7,27,3,,,,,,,,,,,,,,,,,,,AFSA01.jpg,AFNE15.jpg,AFNE12.jpg,AFSA12.jpg,AFNE12.jpg,FN,3,num_2,16,num_2,0.716718658485,,,2017_Jun_28_1407,60.0072752459,MAFE4ImagesEEG,001,100809,
AFNE01.JPG,AFNE01.JPG,AFNE01.JPG,AFNE01.JPG,AFNE01.JPG,AFNE01.JPG,,,,,2,8,28,5,,,,,,,,,,,,,,,,,,,AFSA04.jpg,AFNE17.jpg,AFNE18.jpg,AFSA06.jpg,AFNE17.jpg,FN,3,num_6,16,num_6,1.21682770981,,,2017_Jun_28_1407,60.0072752459,MAFE4ImagesEEG,001,100809,
AFNE01.JPG,AFNE01.JPG,AFNE01.JPG,AFNE01.JPG,AFNE01.JPG,AFNE01.JPG,,,,,2,9,29,2,,,,,,,,,,,,,,,,,,,AFNE09.jpg,AFNE01.jpg,AFSA05.jpg,AFSA16.jpg,AFSA16.jpg,FS,4,num_4,16,num_4,1.84983664753,,,2017_Jun_28_1407,60.0072752459,MAFE4ImagesEEG,001,100809,
AFNE01.JPG,AFNE01.JPG,AFNE01.JPG,AFNE01.JPG,AFNE01.JPG,AFNE01.JPG,,,,,3,0,30,9,,,,,,,,,,,,,,,,,,,AFNE18.jpg,AFSA04.jpg,AFNE03.jpg,AFSA20.jpg,AFSA20.jpg,FS,4,num_4,16,num_4,0.916418574896,,,2017_Jun_28_1407,60.0072752459,MAFE4ImagesEEG,001,100809,
AFNE01.JPG,AFNE01.JPG,AFNE01.JPG,AFNE01.JPG,AFNE01.JPG,AFNE01.JPG,,,,,3,1,31,8,,,,,,,,,,,,,,,,,,,AFSA05.jpg,AFNE07.jpg,AFNE04.jpg,AFSA15.jpg,AFSA05.jpg,FS,4,num_8,16,num_8,1.35007816413,,,2017_Jun_28_1407,60.0072752459,MAFE4ImagesEEG,001,100809,
AFNE01.JPG,AFNE01.JPG,AFNE01.JPG,AFNE01.JPG,AFNE01.JPG,AFNE01.JPG,,,,,3,2,32,4,,,,,,,,,,,,,,,,,,,AFNE11.jpg,AFSA19.jpg,AFSA12.jpg,AFNE05.jpg,AFNE11.jpg,FN,3,num_8,16,num_8,2.56663324565,,,2017_Jun_28_1407,60.0072752459,MAFE4ImagesEEG,001,100809,
AFNE01.JPG,AFNE01.JPG,AFNE01.JPG,AFNE01.JPG,AFNE01.JPG,AFNE01.JPG,,,,,3,3,33,6,,,,,,,,,,,,,,,,,,,AFNE19.jpg,AFSA09.jpg,AFSA01.jpg,AFNE15.jpg,AFNE19.jpg,FN,3,num_8,32,num_2,1.8000588877,,,2017_Jun_28_1407,60.0072752459,MAFE4ImagesEEG,001,100809,
AFNE01.JPG,AFNE01.JPG,AFNE01.JPG,AFNE01.JPG,AFNE01.JPG,AFNE01.JPG,,,,,3,4,34,7,,,,,,,,,,,,,,,,,,,AFNE16.jpg,AFSA18.jpg,AFSA03.jpg,AFNE20.jpg,AFSA03.jpg,FS,4,num_2,32,num_8,1.21672443178,,,2017_Jun_28_1407,60.0072752459,MAFE4ImagesEEG,001,100809,
AFNE01.JPG,AFNE01.JPG,AFNE01.JPG,AFNE01.JPG,AFNE01.JPG,AFNE01.JPG,,,,,3,5,35,3,,,,,,,,,,,,,,,,,,,AFNE02.jpg,AFSA19.jpg,AFNE08.jpg,AFSA11.jpg,AFNE02.jpg,FN,3,num_8,32,num_2,1.78337371441,,,2017_Jun_28_1407,60.0072752459,MAFE4ImagesEEG,001,100809,
AFNE01.JPG,AFNE01.JPG,AFNE01.JPG,AFNE01.JPG,AFNE01.JPG,AFNE01.JPG,,,,,3,6,36,1,,,,,,,,,,,,,,,,,,,AFNE10.jpg,AFSA20.jpg,AFSA10.jpg,AFNE03.jpg,AFSA10.jpg,FS,4,num_2,32,num_8,1.16672472046,,,2017_Jun_28_1407,60.0072752459,MAFE4ImagesEEG,001,100809,
AFNE01.JPG,AFNE01.JPG,AFNE01.JPG,AFNE01.JPG,AFNE01.JPG,AFNE01.JPG,,,,,3,7,37,2,,,,,,,,,,,,,,,,,,,AFSA06.jpg,AFSA16.jpg,AFNE06.jpg,AFNE15.jpg,AFNE15.jpg,FN,3,num_4,16,num_4,0.65014282515,,,2017_Jun_28_1407,60.0072752459,MAFE4ImagesEEG,001,100809,
AFNE01.JPG,AFNE01.JPG,AFNE01.JPG,AFNE01.JPG,AFNE01.JPG,AFNE01.JPG,,,,,3,8,38,0,,,,,,,,,,,,,,,,,,,AFSA14.jpg,AFSA11.jpg,AFNE20.jpg,AFNE14.jpg,AFNE14.jpg,FN,3,num_4,32,num_8,2.2332957427,,,2017_Jun_28_1407,60.0072752459,MAFE4ImagesEEG,001,100809,
AFNE01.JPG,AFNE01.JPG,AFNE01.JPG,AFNE01.JPG,AFNE01.JPG,AFNE01.JPG,,,,,3,9,39,5,,,,,,,,,,,,,,,,,,,AFSA07.jpg,AFNE11.jpg,AFSA19.jpg,AFNE13.jpg,AFNE13.jpg,FN,3,num_4,32,num_2,1.23339677555,,,2017_Jun_28_1407,60.0072752459,MAFE4ImagesEEG,001,100809,
AFNE01.JPG,AFNE01.JPG,AFNE01.JPG,AFNE01.JPG,AFNE01.JPG,AFNE01.JPG,,,,,4,0,40,7,,,,,,,,,,,,,,,,,,,AFSA15.jpg,AFSA10.jpg,AFNE08.jpg,AFNE09.jpg,AFNE09.jpg,FN,3,num_4,16,num_4,1.5830862038,,,2017_Jun_28_1407,60.0072752459,MAFE4ImagesEEG,001,100809,
AFNE01.JPG,AFNE01.JPG,AFNE01.JPG,AFNE01.JPG,AFNE01.JPG,AFNE01.JPG,,,,,4,1,41,3,,,,,,,,,,,,,,,,,,,AFSA05.jpg,AFSA02.jpg,AFNE12.jpg,AFNE04.jpg,AFSA05.jpg,FS,4,num_8,16,num_8,1.65006424405,,,2017_Jun_28_1407,60.0072752459,MAFE4ImagesEEG,001,100809,
AFNE01.JPG,AFNE01.JPG,AFNE01.JPG,AFNE01.JPG,AFNE01.JPG,AFNE01.JPG,,,,,4,2,42,0,,,,,,,,,,,,,,,,,,,AFNE07.jpg,AFNE16.jpg,AFSA10.jpg,AFSA15.jpg,AFSA10.jpg,FS,4,num_2,32,num_6,1.55005327478,,,2017_Jun_28_1407,60.0072752459,MAFE4ImagesEEG,001,100809,
AFNE01.JPG,AFNE01.JPG,AFNE01.JPG,AFNE01.JPG,AFNE01.JPG,AFNE01.JPG,,,,,4,3,43,8,,,,,,,,,,,,,,,,,,,AFSA13.jpg,AFSA04.jpg,AFNE13.jpg,AFNE02.jpg,AFSA04.jpg,FS,4,num_6,32,num_2,2.33331120232,,,2017_Jun_28_1407,60.0072752459,MAFE4ImagesEEG,001,100809,
AFNE01.JPG,AFNE01.JPG,AFNE01.JPG,AFNE01.JPG,AFNE01.JPG,AFNE01.JPG,,,,,4,4,44,2,,,,,,,,,,,,,,,,,,,AFNE05.jpg,AFSA20.jpg,AFSA15.jpg,AFNE20.jpg,AFSA15.jpg,FS,4,num_2,16,num_2,1.01678588543,,,2017_Jun_28_1407,60.0072752459,MAFE4ImagesEEG,001,100809,
AFNE01.JPG,AFNE01.JPG,AFNE01.JPG,AFNE01.JPG,AFNE01.JPG,AFNE01.JPG,,,,,4,5,45,1,,,,,,,,,,,,,,,,,,,AFNE14.jpg,AFNE02.jpg,AFSA06.jpg,AFSA09.jpg,AFSA06.jpg,FS,4,num_2,16,num_2,1.36674858346,,,2017_Jun_28_1407,60.0072752459,MAFE4ImagesEEG,001,100809,
AFNE01.JPG,AFNE01.JPG,AFNE01.JPG,AFNE01.JPG,AFNE01.JPG,AFNE01.JPG,,,,,4,6,46,5,,,,,,,,,,,,,,,,,,,AFSA08.jpg,AFNE13.jpg,AFNE18.jpg,AFSA13.jpg,AFSA08.jpg,FS,4,num_8,32,num_4,0.766762952568,,,2017_Jun_28_1407,60.0072752459,MAFE4ImagesEEG,001,100809,
AFNE01.JPG,AFNE01.JPG,AFNE01.JPG,AFNE01.JPG,AFNE01.JPG,AFNE01.JPG,,,,,4,7,47,6,,,,,,,,,,,,,,,,,,,AFNE20.jpg,AFSA05.jpg,AFSA18.jpg,AFNE18.jpg,AFSA05.jpg,FS,4,num_6,16,num_6,1.30005728402,,,2017_Jun_28_1407,60.0072752459,MAFE4ImagesEEG,001,100809,
AFNE01.JPG,AFNE01.JPG,AFNE01.JPG,AFNE01.JPG,AFNE01.JPG,AFNE01.JPG,,,,,4,8,48,4,,,,,,,,,,,,,,,,,,,AFSA16.jpg,AFNE17.jpg,AFSA15.jpg,AFNE07.jpg,AFSA15.jpg,FS,4,num_2,16,num_2,1.5333953643,,,2017_Jun_28_1407,60.0072752459,MAFE4ImagesEEG,001,100809,
AFNE01.JPG,AFNE01.JPG,AFNE01.JPG,AFNE01.JPG,AFNE01.JPG,AFNE01.JPG,,,,,4,9,49,9,,,,,,,,,,,,,,,,,,,AFNE05.jpg,AFNE14.jpg,AFSA02.jpg,AFSA16.jpg,AFNE05.jpg,FN,3,num_8,16,num_8,1.5000596575,,,2017_Jun_28_1407,60.0072752459,MAFE4ImagesEEG,001,100809,
AFNE01.JPG,AFNE01.JPG,AFNE01.JPG,AFNE01.JPG,AFNE01.JPG,AFNE01.JPG,,,,,5,0,50,0,,,,,,,,,,,,,,,,,,,AFSA04.jpg,AFNE11.jpg,AFNE19.jpg,AFSA02.jpg,AFNE11.jpg,FN,3,num_6,32,num_8,2.44977673345,,,2017_Jun_28_1407,60.0072752459,MAFE4ImagesEEG,001,100809,
AFNE01.JPG,AFNE01.JPG,AFNE01.JPG,AFNE01.JPG,AFNE01.JPG,AFNE01.JPG,,,,,5,1,51,2,,,,,,,,,,,,,,,,,,,AFSA03.jpg,AFNE15.jpg,AFNE05.jpg,AFSA02.jpg,AFSA03.jpg,FS,4,num_8,32,num_4,1.31671391155,,,2017_Jun_28_1407,60.0072752459,MAFE4ImagesEEG,001,100809,
AFNE01.JPG,AFNE01.JPG,AFNE01.JPG,AFNE01.JPG,AFNE01.JPG,AFNE01.JPG,,,,,5,2,52,3,,,,,,,,,,,,,,,,,,,AFNE14.jpg,AFSA03.jpg,AFNE16.jpg,AFSA12.jpg,AFSA03.jpg,FS,4,num_6,32,num_2,1.48372216546,,,2017_Jun_28_1407,60.0072752459,MAFE4ImagesEEG,001,100809,
AFNE01.JPG,AFNE01.JPG,AFNE01.JPG,AFNE01.JPG,AFNE01.JPG,AFNE01.JPG,,,,,5,3,53,9,,,,,,,,,,,,,,,,,,,AFSA07.jpg,AFNE17.jpg,AFNE04.jpg,AFSA17.jpg,AFSA17.jpg,FS,4,num_4,16,num_4,1.03350922671,,,2017_Jun_28_1407,60.0072752459,MAFE4ImagesEEG,001,100809,
AFNE01.JPG,AFNE01.JPG,AFNE01.JPG,AFNE01.JPG,AFNE01.JPG,AFNE01.JPG,,,,,5,4,54,6,,,,,,,,,,,,,,,,,,,AFNE18.jpg,AFSA16.jpg,AFNE14.jpg,AFSA05.jpg,AFSA05.jpg,FS,4,num_4,16,num_4,0.950113830346,,,2017_Jun_28_1407,60.0072752459,MAFE4ImagesEEG,001,100809,
AFNE01.JPG,AFNE01.JPG,AFNE01.JPG,AFNE01.JPG,AFNE01.JPG,AFNE01.JPG,,,,,5,5,55,7,,,,,,,,,,,,,,,,,,,AFNE13.jpg,AFNE08.jpg,AFSA09.jpg,AFSA03.jpg,AFNE08.jpg,FN,3,num_6,32,num_8,1.36671554732,,,2017_Jun_28_1407,60.0072752459,MAFE4ImagesEEG,001,100809,
AFNE01.JPG,AFNE01.JPG,AFNE01.JPG,AFNE01.JPG,AFNE01.JPG,AFNE01.JPG,,,,,5,6,56,1,,,,,,,,,,,,,,,,,,,AFNE18.jpg,AFSA04.jpg,AFNE15.jpg,AFSA09.jpg,AFNE18.jpg,FN,3,num_8,16,num_8,2.84997007503,,,2017_Jun_28_1407,60.0072752459,MAFE4ImagesEEG,001,100809,
AFNE01.JPG,AFNE01.JPG,AFNE01.JPG,AFNE01.JPG,AFNE01.JPG,AFNE01.JPG,,,,,5,7,57,5,,,,,,,,,,,,,,,,,,,AFSA18.jpg,AFNE16.jpg,AFNE05.jpg,AFSA12.jpg,AFSA12.jpg,FS,4,num_4,16,num_4,0.75017913284,,,2017_Jun_28_1407,60.0072752459,MAFE4ImagesEEG,001,100809,
AFNE01.JPG,AFNE01.JPG,AFNE01.JPG,AFNE01.JPG,AFNE01.JPG,AFNE01.JPG,,,,,5,8,58,4,,,,,,,,,,,,,,,,,,,AFNE09.jpg,AFSA07.jpg,AFNE06.jpg,AFSA19.jpg,AFNE09.jpg,FN,3,num_8,16,num_8,1.15008445062,,,2017_Jun_28_1407,60.0072752459,MAFE4ImagesEEG,001,100809,
AFNE01.JPG,AFNE01.JPG,AFNE01.JPG,AFNE01.JPG,AFNE01.JPG,AFNE01.JPG,,,,,5,9,59,8,,,,,,,,,,,,,,,,,,,AFNE10.jpg,AFNE13.jpg,AFSA15.jpg,AFSA05.jpg,AFNE10.jpg,FN,3,num_8,16,num_8,1.40003682085,,,2017_Jun_28_1407,60.0072752459,MAFE4ImagesEEG,001,100809,
,,,,,,,,,,,,,,,,,,,,,,,,,,,,,,,,,,,,,,,,,,,space,21.0818430187,2017_Jun_28_1407,60.0072752459,MAFE4ImagesEEG,001,100809,
AFNE01.JPG,AFNE01.JPG,AFNE01.JPG,AFNE01.JPG,AFNE01.JPG,AFNE01.JPG,,,,,,,,,0,0,0,1,,,,,,,,,,,,,,,AMNE19.jpg,AMNE09.jpg,AMSA07.jpg,AMSA01.jpg,AMNE09.jpg,MN,1,num_6,16,num_6,1.58339667933,,,2017_Jun_28_1407,60.0072752459,MAFE4ImagesEEG,001,100809,
AFNE01.JPG,AFNE01.JPG,AFNE01.JPG,AFNE01.JPG,AFNE01.JPG,AFNE01.JPG,,,,,,,,,0,1,1,2,,,,,,,,,,,,,,,AMSA14.jpg,AMNE01.jpg,AMSA16.jpg,AMNE15.jpg,AMSA14.jpg,MS,2,num_8,16,num_8,0.683469551266,,,2017_Jun_28_1407,60.0072752459,MAFE4ImagesEEG,001,100809,
AFNE01.JPG,AFNE01.JPG,AFNE01.JPG,AFNE01.JPG,AFNE01.JPG,AFNE01.JPG,,,,,,,,,0,2,2,4,,,,,,,,,,,,,,,AMSA14.jpg,AMSA20.jpg,AMNE06.jpg,AMNE04.jpg,AMSA20.jpg,MS,2,num_6,16,num_6,1.21674912871,,,2017_Jun_28_1407,60.0072752459,MAFE4ImagesEEG,001,100809,
AFNE01.JPG,AFNE01.JPG,AFNE01.JPG,AFNE01.JPG,AFNE01.JPG,AFNE01.JPG,,,,,,,,,0,3,3,7,,,,,,,,,,,,,,,AMSA08.jpg,AMNE06.jpg,AMNE10.jpg,AMSA07.jpg,AMNE10.jpg,MN,1,num_2,16,num_2,2.3333666902,,,2017_Jun_28_1407,60.0072752459,MAFE4ImagesEEG,001,100809,
AFNE01.JPG,AFNE01.JPG,AFNE01.JPG,AFNE01.JPG,AFNE01.JPG,AFNE01.JPG,,,,,,,,,0,4,4,3,,,,,,,,,,,,,,,AMNE05.jpg,AMSA14.jpg,AMSA07.jpg,AMNE10.jpg,AMSA07.jpg,MS,2,num_2,16,num_2,0.683450306911,,,2017_Jun_28_1407,60.0072752459,MAFE4ImagesEEG,001,100809,
AFNE01.JPG,AFNE01.JPG,AFNE01.JPG,AFNE01.JPG,AFNE01.JPG,AFNE01.JPG,,,,,,,,,0,5,5,0,,,,,,,,,,,,,,,AMSA02.jpg,AMNE10.jpg,AMSA06.jpg,AMNE20.jpg,AMSA02.jpg,MS,2,num_8,16,num_8,1.18348302232,,,2017_Jun_28_1407,60.0072752459,MAFE4ImagesEEG,001,100809,
AFNE01.JPG,AFNE01.JPG,AFNE01.JPG,AFNE01.JPG,AFNE01.JPG,AFNE01.JPG,,,,,,,,,0,6,6,5,,,,,,,,,,,,,,,AMNE11.jpg,AMNE13.jpg,AMSA04.jpg,AMSA16.jpg,AMSA04.jpg,MS,2,num_2,16,num_2,0.766444779307,,,2017_Jun_28_1407,60.0072752459,MAFE4ImagesEEG,001,100809,
AFNE01.JPG,AFNE01.JPG,AFNE01.JPG,AFNE01.JPG,AFNE01.JPG,AFNE01.JPG,,,,,,,,,0,7,7,8,,,,,,,,,,,,,,,AMNE14.jpg,AMSA19.jpg,AMSA02.jpg,AMNE04.jpg,AMNE04.jpg,MN,1,num_4,32,num_8,1.68340347899,,,2017_Jun_28_1407,60.0072752459,MAFE4ImagesEEG,001,100809,
AFNE01.JPG,AFNE01.JPG,AFNE01.JPG,AFNE01.JPG,AFNE01.JPG,AFNE01.JPG,,,,,,,,,0,8,8,9,,,,,,,,,,,,,,,AMNE10.jpg,AMSA06.jpg,AMSA17.jpg,AMNE03.jpg,AMNE03.jpg,MN,1,num_4,16,num_4,1.6167003122,,,2017_Jun_28_1407,60.0072752459,MAFE4ImagesEEG,001,100809,
AFNE01.JPG,AFNE01.JPG,AFNE01.JPG,AFNE01.JPG,AFNE01.JPG,AFNE01.JPG,,,,,,,,,0,9,9,6,,,,,,,,,,,,,,,AMSA10.jpg,AMNE18.jpg,AMSA18.jpg,AMNE06.jpg,AMSA10.jpg,MS,2,num_8,16,num_8,0.950227692752,,,2017_Jun_28_1407,60.0072752459,MAFE4ImagesEEG,001,100809,
AFNE01.JPG,AFNE01.JPG,AFNE01.JPG,AFNE01.JPG,AFNE01.JPG,AFNE01.JPG,,,,,,,,,1,0,10,4,,,,,,,,,,,,,,,AMSA10.jpg,AMSA02.jpg,AMNE04.jpg,AMNE12.jpg,AMSA10.jpg,MS,2,num_8,16,num_8,0.883489886124,,,2017_Jun_28_1407,60.0072752459,MAFE4ImagesEEG,001,100809,
AFNE01.JPG,AFNE01.JPG,AFNE01.JPG,AFNE01.JPG,AFNE01.JPG,AFNE01.JPG,,,,,,,,,1,1,11,9,,,,,,,,,,,,,,,AMSA16.jpg,AMNE17.jpg,AMSA09.jpg,AMNE04.jpg,AMSA16.jpg,MS,2,num_8,32,num_2,3.21655219485,,,2017_Jun_28_1407,60.0072752459,MAFE4ImagesEEG,001,100809,
AFNE01.JPG,AFNE01.JPG,AFNE01.JPG,AFNE01.JPG,AFNE01.JPG,AFNE01.JPG,,,,,,,,,1,2,12,7,,,,,,,,,,,,,,,AMSA15.jpg,AMNE03.jpg,AMNE10.jpg,AMSA02.jpg,AMNE10.jpg,MN,1,num_2,16,num_2,0.750130059736,,,2017_Jun_28_1407,60.0072752459,MAFE4ImagesEEG,001,100809,
AFNE01.JPG,AFNE01.JPG,AFNE01.JPG,AFNE01.JPG,AFNE01.JPG,AFNE01.JPG,,,,,,,,,1,3,13,5,,,,,,,,,,,,,,,AMSA11.jpg,AMSA01.jpg,AMNE11.jpg,AMNE20.jpg,AMSA11.jpg,MS,2,num_8,16,num_8,1.46669187676,,,2017_Jun_28_1407,60.0072752459,MAFE4ImagesEEG,001,100809,
AFNE01.JPG,AFNE01.JPG,AFNE01.JPG,AFNE01.JPG,AFNE01.JPG,AFNE01.JPG,,,,,,,,,1,4,14,8,,,,,,,,,,,,,,,AMNE15.jpg,AMSA12.jpg,AMSA10.jpg,AMNE18.jpg,AMNE18.jpg,MN,1,num_4,16,num_4,0.966725554375,,,2017_Jun_28_1407,60.0072752459,MAFE4ImagesEEG,001,100809,
AFNE01.JPG,AFNE01.JPG,AFNE01.JPG,AFNE01.JPG,AFNE01.JPG,AFNE01.JPG,,,,,,,,,1,5,15,0,,,,,,,,,,,,,,,AMNE01.jpg,AMSA18.jpg,AMSA10.jpg,AMNE09.jpg,AMSA18.jpg,MS,2,num_6,16,num_6,0.566808369229,,,2017_Jun_28_1407,60.0072752459,MAFE4ImagesEEG,001,100809,
AFNE01.JPG,AFNE01.JPG,AFNE01.JPG,AFNE01.JPG,AFNE01.JPG,AFNE01.JPG,,,,,,,,,1,6,16,1,,,,,,,,,,,,,,,AMNE09.jpg,AMSA10.jpg,AMNE10.jpg,AMSA05.jpg,AMSA05.jpg,MS,2,num_4,16,num_4,0.900103855354,,,2017_Jun_28_1407,60.0072752459,MAFE4ImagesEEG,001,100809,
AFNE01.JPG,AFNE01.JPG,AFNE01.JPG,AFNE01.JPG,AFNE01.JPG,AFNE01.JPG,,,,,,,,,1,7,17,3,,,,,,,,,,,,,,,AMNE06.jpg,AMSA20.jpg,AMNE14.jpg,AMSA15.jpg,AMSA15.jpg,MS,2,num_4,16,num_4,0.750137436742,,,2017_Jun_28_1407,60.0072752459,MAFE4ImagesEEG,001,100809,
AFNE01.JPG,AFNE01.JPG,AFNE01.JPG,AFNE01.JPG,AFNE01.JPG,AFNE01.JPG,,,,,,,,,1,8,18,6,,,,,,,,,,,,,,,AMSA08.jpg,AMNE12.jpg,AMNE19.jpg,AMSA03.jpg,AMNE19.jpg,MN,1,num_2,16,num_2,2.00004714866,,,2017_Jun_28_1407,60.0072752459,MAFE4ImagesEEG,001,100809,
AFNE01.JPG,AFNE01.JPG,AFNE01.JPG,AFNE01.JPG,AFNE01.JPG,AFNE01.JPG,,,,,,,,,1,9,19,2,,,,,,,,,,,,,,,AMSA15.jpg,AMNE20.jpg,AMNE19.jpg,AMSA13.jpg,AMNE19.jpg,MN,1,num_2,16,num_2,1.08343356433,,,2017_Jun_28_1407,60.0072752459,MAFE4ImagesEEG,001,100809,
AFNE01.JPG,AFNE01.JPG,AFNE01.JPG,AFNE01.JPG,AFNE01.JPG,AFNE01.JPG,,,,,,,,,2,0,20,7,,,,,,,,,,,,,,,AMNE04.jpg,AMSA13.jpg,AMSA12.jpg,AMNE08.jpg,AMSA13.jpg,MS,2,num_6,32,num_8,2.56663420786,,,2017_Jun_28_1407,60.0072752459,MAFE4ImagesEEG,001,100809,
AFNE01.JPG,AFNE01.JPG,AFNE01.JPG,AFNE01.JPG,AFNE01.JPG,AFNE01.JPG,,,,,,,,,2,1,21,9,,,,,,,,,,,,,,,AMSA17.jpg,AMNE12.jpg,AMSA13.jpg,AMNE18.jpg,AMNE18.jpg,MN,1,num_4,32,num_2,1.55007412282,,,2017_Jun_28_1407,60.0072752459,MAFE4ImagesEEG,001,100809,
AFNE01.JPG,AFNE01.JPG,AFNE01.JPG,AFNE01.JPG,AFNE01.JPG,AFNE01.JPG,,,,,,,,,2,2,22,0,,,,,,,,,,,,,,,AMNE13.jpg,AMNE08.jpg,AMSA02.jpg,AMSA06.jpg,AMSA06.jpg,MS,2,num_4,32,num_8,3.09994746292,,,2017_Jun_28_1407,60.0072752459,MAFE4ImagesEEG,001,100809,
AFNE01.JPG,AFNE01.JPG,AFNE01.JPG,AFNE01.JPG,AFNE01.JPG,AFNE01.JPG,,,,,,,,,2,3,23,1,,,,,,,,,,,,,,,AMNE02.jpg,AMSA01.jpg,AMNE05.jpg,AMSA11.jpg,AMNE05.jpg,MN,1,num_2,16,num_2,1.26661605402,,,2017_Jun_28_1407,60.0072752459,MAFE4ImagesEEG,001,100809,
AFNE01.JPG,AFNE01.JPG,AFNE01.JPG,AFNE01.JPG,AFNE01.JPG,AFNE01.JPG,,,,,,,,,2,4,24,2,,,,,,,,,,,,,,,AMSA09.jpg,AMNE04.jpg,AMNE08.jpg,AMSA03.jpg,AMSA09.jpg,MS,2,num_8,16,num_8,1.43342577037,,,2017_Jun_28_1407,60.0072752459,MAFE4ImagesEEG,001,100809,
AFNE01.JPG,AFNE01.JPG,AFNE01.JPG,AFNE01.JPG,AFNE01.JPG,AFNE01.JPG,,,,,,,,,2,5,25,6,,,,,,,,,,,,,,,AMNE15.jpg,AMNE13.jpg,AMSA01.jpg,AMSA02.jpg,AMNE15.jpg,MN,1,num_8,16,num_8,1.20007133239,,,2017_Jun_28_1407,60.0072752459,MAFE4ImagesEEG,001,100809,
AFNE01.JPG,AFNE01.JPG,AFNE01.JPG,AFNE01.JPG,AFNE01.JPG,AFNE01.JPG,,,,,,,,,2,6,26,5,,,,,,,,,,,,,,,AMSA09.jpg,AMNE02.jpg,AMNE01.jpg,AMSA06.jpg,AMNE02.jpg,MN,1,num_6,16,num_6,3.53296685674,,,2017_Jun_28_1407,60.0072752459,MAFE4ImagesEEG,001,100809,
AFNE01.JPG,AFNE01.JPG,AFNE01.JPG,AFNE01.JPG,AFNE01.JPG,AFNE01.JPG,,,,,,,,,2,7,27,3,,,,,,,,,,,,,,,AMSA16.jpg,AMNE04.jpg,AMNE15.jpg,AMSA03.jpg,AMSA03.jpg,MS,2,num_4,16,num_4,0.566645754472,,,2017_Jun_28_1407,60.0072752459,MAFE4ImagesEEG,001,100809,
AFNE01.JPG,AFNE01.JPG,AFNE01.JPG,AFNE01.JPG,AFNE01.JPG,AFNE01.JPG,,,,,,,,,2,8,28,4,,,,,,,,,,,,,,,AMNE01.jpg,AMNE12.jpg,AMSA02.jpg,AMSA20.jpg,AMSA02.jpg,MS,2,num_2,16,num_2,1.58346756268,,,2017_Jun_28_1407,60.0072752459,MAFE4ImagesEEG,001,100809,
AFNE01.JPG,AFNE01.JPG,AFNE01.JPG,AFNE01.JPG,AFNE01.JPG,AFNE01.JPG,,,,,,,,,2,9,29,8,,,,,,,,,,,,,,,AMNE19.jpg,AMSA07.jpg,AMSA14.jpg,AMNE10.jpg,AMSA07.jpg,MS,2,num_6,32,num_8,2.34984851487,,,2017_Jun_28_1407,60.0072752459,MAFE4ImagesEEG,001,100809,
AFNE01.JPG,AFNE01.JPG,AFNE01.JPG,AFNE01.JPG,AFNE01.JPG,AFNE01.JPG,,,,,,,,,3,0,30,1,,,,,,,,,,,,,,,AMNE07.jpg,AMSA13.jpg,AMNE15.jpg,AMSA11.jpg,AMSA13.jpg,MS,2,num_6,32,num_8,1.45011832069,,,2017_Jun_28_1407,60.0072752459,MAFE4ImagesEEG,001,100809,
AFNE01.JPG,AFNE01.JPG,AFNE01.JPG,AFNE01.JPG,AFNE01.JPG,AFNE01.JPG,,,,,,,,,3,1,31,0,,,,,,,,,,,,,,,AMSA11.jpg,AMSA17.jpg,AMNE05.jpg,AMNE06.jpg,AMNE06.jpg,MN,1,num_4,16,num_4,1.5167833195,,,2017_Jun_28_1407,60.0072752459,MAFE4ImagesEEG,001,100809,
AFNE01.JPG,AFNE01.JPG,AFNE01.JPG,AFNE01.JPG,AFNE01.JPG,AFNE01.JPG,,,,,,,,,3,2,32,8,,,,,,,,,,,,,,,AMNE17.jpg,AMNE14.jpg,AMSA17.jpg,AMSA18.jpg,AMNE14.jpg,MN,1,num_6,16,num_6,1.00013727637,,,2017_Jun_28_1407,60.0072752459,MAFE4ImagesEEG,001,100809,
AFNE01.JPG,AFNE01.JPG,AFNE01.JPG,AFNE01.JPG,AFNE01.JPG,AFNE01.JPG,,,,,,,,,3,3,33,3,,,,,,,,,,,,,,,AMNE20.jpg,AMSA12.jpg,AMNE01.jpg,AMSA06.jpg,AMSA12.jpg,MS,2,num_6,32,num_8,1.28341701419,,,2017_Jun_28_1407,60.0072752459,MAFE4ImagesEEG,001,100809,
AFNE01.JPG,AFNE01.JPG,AFNE01.JPG,AFNE01.JPG,AFNE01.JPG,AFNE01.JPG,,,,,,,,,3,4,34,4,,,,,,,,,,,,,,,AMNE17.jpg,AMNE11.jpg,AMSA11.jpg,AMSA19.jpg,AMNE17.jpg,MN,1,num_8,16,num_8,2.3000579255,,,2017_Jun_28_1407,60.0072752459,MAFE4ImagesEEG,001,100809,
AFNE01.JPG,AFNE01.JPG,AFNE01.JPG,AFNE01.JPG,AFNE01.JPG,AFNE01.JPG,,,,,,,,,3,5,35,2,,,,,,,,,,,,,,,AMSA12.jpg,AMNE07.jpg,AMNE12.jpg,AMSA07.jpg,AMSA12.jpg,MS,2,num_8,16,num_8,2.633334488,,,2017_Jun_28_1407,60.0072752459,MAFE4ImagesEEG,001,100809,
AFNE01.JPG,AFNE01.JPG,AFNE01.JPG,AFNE01.JPG,AFNE01.JPG,AFNE01.JPG,,,,,,,,,3,6,36,6,,,,,,,,,,,,,,,AMSA19.jpg,AMNE04.jpg,AMNE13.jpg,AMSA14.jpg,AMSA19.jpg,MS,2,num_8,16,num_8,1.48337031457,,,2017_Jun_28_1407,60.0072752459,MAFE4ImagesEEG,001,100809,
AFNE01.JPG,AFNE01.JPG,AFNE01.JPG,AFNE01.JPG,AFNE01.JPG,AFNE01.JPG,,,,,,,,,3,7,37,9,,,,,,,,,,,,,,,AMSA14.jpg,AMNE04.jpg,AMSA13.jpg,AMNE17.jpg,AMSA14.jpg,MS,2,num_8,16,num_8,1.53337355402,,,2017_Jun_28_1407,60.0072752459,MAFE4ImagesEEG,001,100809,
AFNE01.JPG,AFNE01.JPG,AFNE01.JPG,AFNE01.JPG,AFNE01.JPG,AFNE01.JPG,,,,,,,,,3,8,38,5,,,,,,,,,,,,,,,AMNE11.jpg,AMSA17.jpg,AMNE20.jpg,AMSA13.jpg,AMNE20.jpg,MN,1,num_2,32,num_8,1.90002655721,,,2017_Jun_28_1407,60.0072752459,MAFE4ImagesEEG,001,100809,
AFNE01.JPG,AFNE01.JPG,AFNE01.JPG,AFNE01.JPG,AFNE01.JPG,AFNE01.JPG,,,,,,,,,3,9,39,7,,,,,,,,,,,,,,,AMSA16.jpg,AMSA02.jpg,AMNE11.jpg,AMNE04.jpg,AMNE11.jpg,MN,1,num_2,32,num_8,2.13332839395,,,2017_Jun_28_1407,60.0072752459,MAFE4ImagesEEG,001,100809,
AFNE01.JPG,AFNE01.JPG,AFNE01.JPG,AFNE01.JPG,AFNE01.JPG,AFNE01.JPG,,,,,,,,,4,0,40,0,,,,,,,,,,,,,,,AMNE03.jpg,AMSA14.jpg,AMNE08.jpg,AMSA12.jpg,AMSA14.jpg,MS,2,num_6,16,num_6,0.800149015427,,,2017_Jun_28_1407,60.0072752459,MAFE4ImagesEEG,001,100809,
AFNE01.JPG,AFNE01.JPG,AFNE01.JPG,AFNE01.JPG,AFNE01.JPG,AFNE01.JPG,,,,,,,,,4,1,41,1,,,,,,,,,,,,,,,AMSA12.jpg,AMNE02.jpg,AMNE16.jpg,AMSA05.jpg,AMNE02.jpg,MN,1,num_6,16,num_6,0.600183206217,,,2017_Jun_28_1407,60.0072752459,MAFE4ImagesEEG,001,100809,
AFNE01.JPG,AFNE01.JPG,AFNE01.JPG,AFNE01.JPG,AFNE01.JPG,AFNE01.JPG,,,,,,,,,4,2,42,9,,,,,,,,,,,,,,,AMNE15.jpg,AMNE06.jpg,AMSA05.jpg,AMSA09.jpg,AMNE15.jpg,MN,1,num_8,16,num_8,1.21673501618,,,2017_Jun_28_1407,60.0072752459,MAFE4ImagesEEG,001,100809,
AFNE01.JPG,AFNE01.JPG,AFNE01.JPG,AFNE01.JPG,AFNE01.JPG,AFNE01.JPG,,,,,,,,,4,3,43,5,,,,,,,,,,,,,,,AMNE10.jpg,AMSA17.jpg,AMSA06.jpg,AMNE07.jpg,AMSA06.jpg,MS,2,num_2,16,num_2,1.6168000621,,,2017_Jun_28_1407,60.0072752459,MAFE4ImagesEEG,001,100809,
AFNE01.JPG,AFNE01.JPG,AFNE01.JPG,AFNE01.JPG,AFNE01.JPG,AFNE01.JPG,,,,,,,,,4,4,44,4,,,,,,,,,,,,,,,AMNE14.jpg,AMSA11.jpg,AMSA07.jpg,AMNE01.jpg,AMNE14.jpg,MN,1,num_8,16,num_8,1.45004872027,,,2017_Jun_28_1407,60.0072752459,MAFE4ImagesEEG,001,100809,
AFNE01.JPG,AFNE01.JPG,AFNE01.JPG,AFNE01.JPG,AFNE01.JPG,AFNE01.JPG,,,,,,,,,4,5,45,6,,,,,,,,,,,,,,,AMNE19.jpg,AMSA07.jpg,AMNE01.jpg,AMSA19.jpg,AMNE01.jpg,MN,1,num_2,32,num_4,0.850161877068,,,2017_Jun_28_1407,60.0072752459,MAFE4ImagesEEG,001,100809,
AFNE01.JPG,AFNE01.JPG,AFNE01.JPG,AFNE01.JPG,AFNE01.JPG,AFNE01.JPG,,,,,,,,,4,6,46,8,,,,,,,,,,,,,,,AMSA17.jpg,AMNE16.jpg,AMSA20.jpg,AMNE06.jpg,AMNE16.jpg,MN,1,num_6,16,num_6,1.1501267882,,,2017_Jun_28_1407,60.0072752459,MAFE4ImagesEEG,001,100809,
AFNE01.JPG,AFNE01.JPG,AFNE01.JPG,AFNE01.JPG,AFNE01.JPG,AFNE01.JPG,,,,,,,,,4,7,47,3,,,,,,,,,,,,,,,AMNE10.jpg,AMNE02.jpg,AMSA18.jpg,AMSA16.jpg,AMSA16.jpg,MS,2,num_4,32,num_2,1.05008566943,,,2017_Jun_28_1407,60.0072752459,MAFE4ImagesEEG,001,100809,
AFNE01.JPG,AFNE01.JPG,AFNE01.JPG,AFNE01.JPG,AFNE01.JPG,AFNE01.JPG,,,,,,,,,4,8,48,2,,,,,,,,,,,,,,,AMNE02.jpg,AMNE18.jpg,AMSA01.jpg,AMSA02.jpg,AMNE02.jpg,MN,1,num_8,16,num_8,1.1001642826,,,2017_Jun_28_1407,60.0072752459,MAFE4ImagesEEG,001,100809,
AFNE01.JPG,AFNE01.JPG,AFNE01.JPG,AFNE01.JPG,AFNE01.JPG,AFNE01.JPG,,,,,,,,,4,9,49,7,,,,,,,,,,,,,,,AMNE01.jpg,AMSA06.jpg,AMNE02.jpg,AMSA19.jpg,AMSA06.jpg,MS,2,num_6,16,num_6,1.08345473312,,,2017_Jun_28_1407,60.0072752459,MAFE4ImagesEEG,001,100809,
AFNE01.JPG,AFNE01.JPG,AFNE01.JPG,AFNE01.JPG,AFNE01.JPG,AFNE01.JPG,,,,,,,,,5,0,50,0,,,,,,,,,,,,,,,AMSA13.jpg,AMNE02.jpg,AMNE10.jpg,AMSA14.jpg,AMSA13.jpg,MS,2,num_8,16,num_8,3.11657554467,,,2017_Jun_28_1407,60.0072752459,MAFE4ImagesEEG,001,100809,
AFNE01.JPG,AFNE01.JPG,AFNE01.JPG,AFNE01.JPG,AFNE01.JPG,AFNE01.JPG,,,,,,,,,5,1,51,1,,,,,,,,,,,,,,,AMSA17.jpg,AMNE18.jpg,AMSA06.jpg,AMNE02.jpg,AMSA06.jpg,MS,2,num_2,16,num_2,0.666762888417,,,2017_Jun_28_1407,60.0072752459,MAFE4ImagesEEG,001,100809,
AFNE01.JPG,AFNE01.JPG,AFNE01.JPG,AFNE01.JPG,AFNE01.JPG,AFNE01.JPG,,,,,,,,,5,2,52,8,,,,,,,,,,,,,,,AMSA07.jpg,AMNE09.jpg,AMNE18.jpg,AMSA08.jpg,AMSA07.jpg,MS,2,num_8,16,num_8,1.80004509592,,,2017_Jun_28_1407,60.0072752459,MAFE4ImagesEEG,001,100809,
AFNE01.JPG,AFNE01.JPG,AFNE01.JPG,AFNE01.JPG,AFNE01.JPG,AFNE01.JPG,,,,,,,,,5,3,53,2,,,,,,,,,,,,,,,AMSA07.jpg,AMNE10.jpg,AMNE16.jpg,AMSA15.jpg,AMNE10.jpg,MN,1,num_6,16,num_6,1.899891526,,,2017_Jun_28_1407,60.0072752459,MAFE4ImagesEEG,001,100809,
AFNE01.JPG,AFNE01.JPG,AFNE01.JPG,AFNE01.JPG,AFNE01.JPG,AFNE01.JPG,,,,,,,,,5,4,54,6,,,,,,,,,,,,,,,AMNE14.jpg,AMSA14.jpg,AMNE20.jpg,AMSA04.jpg,AMSA14.jpg,MS,2,num_6,16,num_6,0.68346858905,,,2017_Jun_28_1407,60.0072752459,MAFE4ImagesEEG,001,100809,
AFNE01.JPG,AFNE01.JPG,AFNE01.JPG,AFNE01.JPG,AFNE01.JPG,AFNE01.JPG,,,,,,,,,5,5,55,3,,,,,,,,,,,,,,,AMSA10.jpg,AMNE09.jpg,AMSA17.jpg,AMNE04.jpg,AMSA10.jpg,MS,2,num_8,16,num_8,1.3500246007,,,2017_Jun_28_1407,60.0072752459,MAFE4ImagesEEG,001,100809,
AFNE01.JPG,AFNE01.JPG,AFNE01.JPG,AFNE01.JPG,AFNE01.JPG,AFNE01.JPG,,,,,,,,,5,6,56,9,,,,,,,,,,,,,,,AMSA17.jpg,AMNE16.jpg,AMSA06.jpg,AMNE20.jpg,AMSA06.jpg,MS,2,num_2,16,num_2,0.816781266782,,,2017_Jun_28_1407,60.0072752459,MAFE4ImagesEEG,001,100809,
AFNE01.JPG,AFNE01.JPG,AFNE01.JPG,AFNE01.JPG,AFNE01.JPG,AFNE01.JPG,,,,,,,,,5,7,57,4,,,,,,,,,,,,,,,AMNE02.jpg,AMNE09.jpg,AMSA06.jpg,AMSA05.jpg,AMNE02.jpg,MN,1,num_8,16,num_8,1.91670756091,,,2017_Jun_28_1407,60.0072752459,MAFE4ImagesEEG,001,100809,
AFNE01.JPG,AFNE01.JPG,AFNE01.JPG,AFNE01.JPG,AFNE01.JPG,AFNE01.JPG,,,,,,,,,5,8,58,5,,,,,,,,,,,,,,,AMNE01.jpg,AMSA15.jpg,AMSA18.jpg,AMNE09.jpg,AMSA18.jpg,MS,2,num_2,16,num_2,0.866812089822,,,2017_Jun_28_1407,60.0072752459,MAFE4ImagesEEG,001,100809,
AFNE01.JPG,AFNE01.JPG,AFNE01.JPG,AFNE01.JPG,AFNE01.JPG,AFNE01.JPG,,,,,,,,,5,9,59,7,,,,,,,,,,,,,,,AMSA06.jpg,AMNE05.jpg,AMNE02.jpg,AMSA17.jpg,AMSA06.jpg,MS,2,num_8,16,num_8,1.01661332775,,,2017_Jun_28_1407,60.0072752459,MAFE4ImagesEEG,001,100809,
,,,,,,,,,,,,,,,,,,,,,,,,,,,,,,,,,,,,,,,,,,,space,24.7981684509,2017_Jun_28_1407,60.0072752459,MAFE4ImagesEEG,001,100809,
AFNE01.JPG,AFNE01.JPG,AFNE01.JPG,AFNE01.JPG,AFNE01.JPG,AFNE01.JPG,,,,,,,,,,,,,0,0,0,3,,,,,,,,,,,AFSA09.jpg,AFSA15.jpg,AFNE19.jpg,AFNE12.jpg,AFNE12.jpg,FN,3,num_4,16,num_4,0.916728408949,,,2017_Jun_28_1407,60.0072752459,MAFE4ImagesEEG,001,100809,
AFNE01.JPG,AFNE01.JPG,AFNE01.JPG,AFNE01.JPG,AFNE01.JPG,AFNE01.JPG,,,,,,,,,,,,,0,1,1,1,,,,,,,,,,,AFSA12.jpg,AFSA11.jpg,AFNE14.jpg,AFNE10.jpg,AFSA12.jpg,FS,4,num_8,16,num_8,1.43314768949,,,2017_Jun_28_1407,60.0072752459,MAFE4ImagesEEG,001,100809,
AFNE01.JPG,AFNE01.JPG,AFNE01.JPG,AFNE01.JPG,AFNE01.JPG,AFNE01.JPG,,,,,,,,,,,,,0,2,2,9,,,,,,,,,,,AFSA14.jpg,AFSA04.jpg,AFNE11.jpg,AFNE20.jpg,AFNE20.jpg,FN,3,num_4,16,num_4,1.21672795992,,,2017_Jun_28_1407,60.0072752459,MAFE4ImagesEEG,001,100809,
AFNE01.JPG,AFNE01.JPG,AFNE01.JPG,AFNE01.JPG,AFNE01.JPG,AFNE01.JPG,,,,,,,,,,,,,0,3,3,2,,,,,,,,,,,AFNE15.jpg,AFSA03.jpg,AFSA10.jpg,AFNE17.jpg,AFNE17.jpg,FN,3,num_4,16,num_4,1.08344254503,,,2017_Jun_28_1407,60.0072752459,MAFE4ImagesEEG,001,100809,
AFNE01.JPG,AFNE01.JPG,AFNE01.JPG,AFNE01.JPG,AFNE01.JPG,AFNE01.JPG,,,,,,,,,,,,,0,4,4,7,,,,,,,,,,,AFNE05.jpg,AFSA17.jpg,AFSA10.jpg,AFNE01.jpg,AFNE01.jpg,FN,3,num_4,16,num_4,0.500193726461,,,2017_Jun_28_1407,60.0072752459,MAFE4ImagesEEG,001,100809,
AFNE01.JPG,AFNE01.JPG,AFNE01.JPG,AFNE01.JPG,AFNE01.JPG,AFNE01.JPG,,,,,,,,,,,,,0,5,5,5,,,,,,,,,,,AFNE01.jpg,AFNE15.jpg,AFSA03.jpg,AFSA09.jpg,AFNE15.jpg,FN,3,num_6,16,num_6,1.56672080744,,,2017_Jun_28_1407,60.0072752459,MAFE4ImagesEEG,001,100809,
AFNE01.JPG,AFNE01.JPG,AFNE01.JPG,AFNE01.JPG,AFNE01.JPG,AFNE01.JPG,,,,,,,,,,,,,0,6,6,4,,,,,,,,,,,AFSA10.jpg,AFNE08.jpg,AFNE09.jpg,AFSA06.jpg,AFSA10.jpg,FS,4,num_8,16,num_8,1.25007874146,,,2017_Jun_28_1407,60.0072752459,MAFE4ImagesEEG,001,100809,
AFNE01.JPG,AFNE01.JPG,AFNE01.JPG,AFNE01.JPG,AFNE01.JPG,AFNE01.JPG,,,,,,,,,,,,,0,7,7,6,,,,,,,,,,,AFNE18.jpg,AFSA10.jpg,AFSA17.jpg,AFNE11.jpg,AFNE11.jpg,FN,3,num_4,16,num_4,1.20024004122,,,2017_Jun_28_1407,60.0072752459,MAFE4ImagesEEG,001,100809,
AFNE01.JPG,AFNE01.JPG,AFNE01.JPG,AFNE01.JPG,AFNE01.JPG,AFNE01.JPG,,,,,,,,,,,,,0,8,8,8,,,,,,,,,,,AFSA16.jpg,AFNE01.jpg,AFSA02.jpg,AFNE20.jpg,AFSA02.jpg,FS,4,num_2,16,num_2,1.65004949005,,,2017_Jun_28_1407,60.0072752459,MAFE4ImagesEEG,001,100809,
AFNE01.JPG,AFNE01.JPG,AFNE01.JPG,AFNE01.JPG,AFNE01.JPG,AFNE01.JPG,,,,,,,,,,,,,0,9,9,0,,,,,,,,,,,AFSA18.jpg,AFSA09.jpg,AFNE09.jpg,AFNE01.jpg,AFSA09.jpg,FS,4,num_6,16,num_6,1.66670547612,,,2017_Jun_28_1407,60.0072752459,MAFE4ImagesEEG,001,100809,
AFNE01.JPG,AFNE01.JPG,AFNE01.JPG,AFNE01.JPG,AFNE01.JPG,AFNE01.JPG,,,,,,,,,,,,,1,0,10,3,,,,,,,,,,,AFSA18.jpg,AFNE10.jpg,AFNE19.jpg,AFSA14.jpg,AFSA14.jpg,FS,4,num_4,16,num_4,0.916734823739,,,2017_Jun_28_1407,60.0072752459,MAFE4ImagesEEG,001,100809,
AFNE01.JPG,AFNE01.JPG,AFNE01.JPG,AFNE01.JPG,AFNE01.JPG,AFNE01.JPG,,,,,,,,,,,,,1,1,11,1,,,,,,,,,,,AFNE18.jpg,AFSA04.jpg,AFNE15.jpg,AFSA17.jpg,AFSA04.jpg,FS,4,num_6,16,num_6,0.483484176963,,,2017_Jun_28_1407,60.0072752459,MAFE4ImagesEEG,001,100809,
AFNE01.JPG,AFNE01.JPG,AFNE01.JPG,AFNE01.JPG,AFNE01.JPG,AFNE01.JPG,,,,,,,,,,,,,1,2,12,9,,,,,,,,,,,AFNE03.jpg,AFNE16.jpg,AFSA12.jpg,AFSA09.jpg,AFNE16.jpg,FN,3,num_6,32,num_2,1.41670371204,,,2017_Jun_28_1407,60.0072752459,MAFE4ImagesEEG,001,100809,
AFNE01.JPG,AFNE01.JPG,AFNE01.JPG,AFNE01.JPG,AFNE01.JPG,AFNE01.JPG,,,,,,,,,,,,,1,3,13,5,,,,,,,,,,,AFNE17.jpg,AFSA15.jpg,AFSA11.jpg,AFNE11.jpg,AFNE11.jpg,FN,3,num_4,16,num_4,0.600170055914,,,2017_Jun_28_1407,60.0072752459,MAFE4ImagesEEG,001,100809,
AFNE01.JPG,AFNE01.JPG,AFNE01.JPG,AFNE01.JPG,AFNE01.JPG,AFNE01.JPG,,,,,,,,,,,,,1,4,14,6,,,,,,,,,,,AFSA17.jpg,AFNE14.jpg,AFSA20.jpg,AFNE04.jpg,AFSA17.jpg,FS,4,num_8,16,num_8,1.26674916079,,,2017_Jun_28_1407,60.0072752459,MAFE4ImagesEEG,001,100809,
AFNE01.JPG,AFNE01.JPG,AFNE01.JPG,AFNE01.JPG,AFNE01.JPG,AFNE01.JPG,,,,,,,,,,,,,1,5,15,2,,,,,,,,,,,AFNE18.jpg,AFNE19.jpg,AFSA10.jpg,AFSA13.jpg,AFSA13.jpg,FS,4,num_4,16,num_4,0.483471347397,,,2017_Jun_28_1407,60.0072752459,MAFE4ImagesEEG,001,100809,
AFNE01.JPG,AFNE01.JPG,AFNE01.JPG,AFNE01.JPG,AFNE01.JPG,AFNE01.JPG,,,,,,,,,,,,,1,6,16,8,,,,,,,,,,,AFNE09.jpg,AFSA06.jpg,AFNE07.jpg,AFSA19.jpg,AFSA06.jpg,FS,4,num_6,16,num_6,1.86662830626,,,2017_Jun_28_1407,60.0072752459,MAFE4ImagesEEG,001,100809,
AFNE01.JPG,AFNE01.JPG,AFNE01.JPG,AFNE01.JPG,AFNE01.JPG,AFNE01.JPG,,,,,,,,,,,,,1,7,17,0,,,,,,,,,,,AFSA12.jpg,AFNE06.jpg,AFNE02.jpg,AFSA16.jpg,AFNE02.jpg,FN,3,num_2,16,num_2,2.83337053908,,,2017_Jun_28_1407,60.0072752459,MAFE4ImagesEEG,001,100809,
AFNE01.JPG,AFNE01.JPG,AFNE01.JPG,AFNE01.JPG,AFNE01.JPG,AFNE01.JPG,,,,,,,,,,,,,1,8,18,7,,,,,,,,,,,AFSA05.jpg,AFSA04.jpg,AFNE06.jpg,AFNE18.jpg,AFSA04.jpg,FS,4,num_6,32,num_2,1.60002219515,,,2017_Jun_28_1407,60.0072752459,MAFE4ImagesEEG,001,100809,
AFNE01.JPG,AFNE01.JPG,AFNE01.JPG,AFNE01.JPG,AFNE01.JPG,AFNE01.JPG,,,,,,,,,,,,,1,9,19,4,,,,,,,,,,,AFSA12.jpg,AFNE05.jpg,AFSA16.jpg,AFNE12.jpg,AFSA12.jpg,FS,4,num_8,16,num_8,1.16681901777,,,2017_Jun_28_1407,60.0072752459,MAFE4ImagesEEG,001,100809,
AFNE01.JPG,AFNE01.JPG,AFNE01.JPG,AFNE01.JPG,AFNE01.JPG,AFNE01.JPG,,,,,,,,,,,,,2,0,20,1,,,,,,,,,,,AFSA11.jpg,AFNE10.jpg,AFNE09.jpg,AFSA13.jpg,AFSA11.jpg,FS,4,num_8,16,num_8,0.899974276719,,,2017_Jun_28_1407,60.0072752459,MAFE4ImagesEEG,001,100809,
AFNE01.JPG,AFNE01.JPG,AFNE01.JPG,AFNE01.JPG,AFNE01.JPG,AFNE01.JPG,,,,,,,,,,,,,2,1,21,5,,,,,,,,,,,AFSA12.jpg,AFNE19.jpg,AFSA08.jpg,AFNE12.jpg,AFSA12.jpg,FS,4,num_8,16,num_8,1.43341326153,,,2017_Jun_28_1407,60.0072752459,MAFE4ImagesEEG,001,100809,
AFNE01.JPG,AFNE01.JPG,AFNE01.JPG,AFNE01.JPG,AFNE01.JPG,AFNE01.JPG,,,,,,,,,,,,,2,2,22,2,,,,,,,,,,,AFNE15.jpg,AFNE01.jpg,AFSA14.jpg,AFSA12.jpg,AFNE01.jpg,FN,3,num_6,32,num_8,0.816553541968,,,2017_Jun_28_1407,60.0072752459,MAFE4ImagesEEG,001,100809,
AFNE01.JPG,AFNE01.JPG,AFNE01.JPG,AFNE01.JPG,AFNE01.JPG,AFNE01.JPG,,,,,,,,,,,,,2,3,23,0,,,,,,,,,,,AFSA19.jpg,AFSA12.jpg,AFNE09.jpg,AFNE02.jpg,AFNE02.jpg,FN,3,num_4,32,num_2,1.13339061734,,,2017_Jun_28_1407,60.0072752459,MAFE4ImagesEEG,001,100809,
AFNE01.JPG,AFNE01.JPG,AFNE01.JPG,AFNE01.JPG,AFNE01.JPG,AFNE01.JPG,,,,,,,,,,,,,2,4,24,8,,,,,,,,,,,AFSA01.jpg,AFSA13.jpg,AFNE01.jpg,AFNE11.jpg,AFNE01.jpg,FN,3,num_2,32,num_8,1.28341829714,,,2017_Jun_28_1407,60.0072752459,MAFE4ImagesEEG,001,100809,
AFNE01.JPG,AFNE01.JPG,AFNE01.JPG,AFNE01.JPG,AFNE01.JPG,AFNE01.JPG,,,,,,,,,,,,,2,5,25,3,,,,,,,,,,,AFSA15.jpg,AFSA01.jpg,AFNE13.jpg,AFNE09.jpg,AFSA15.jpg,FS,4,num_8,16,num_8,1.2003725065,,,2017_Jun_28_1407,60.0072752459,MAFE4ImagesEEG,001,100809,
AFNE01.JPG,AFNE01.JPG,AFNE01.JPG,AFNE01.JPG,AFNE01.JPG,AFNE01.JPG,,,,,,,,,,,,,2,6,26,4,,,,,,,,,,,AFSA17.jpg,AFSA18.jpg,AFNE10.jpg,AFNE20.jpg,AFSA17.jpg,FS,4,num_8,32,num_6,1.05013089367,,,2017_Jun_28_1407,60.0072752459,MAFE4ImagesEEG,001,100809,
AFNE01.JPG,AFNE01.JPG,AFNE01.JPG,AFNE01.JPG,AFNE01.JPG,AFNE01.JPG,,,,,,,,,,,,,2,7,27,6,,,,,,,,,,,AFSA08.jpg,AFNE03.jpg,AFSA02.jpg,AFNE04.jpg,AFSA08.jpg,FS,4,num_8,16,num_8,2.61660858081,,,2017_Jun_28_1407,60.0072752459,MAFE4ImagesEEG,001,100809,
AFNE01.JPG,AFNE01.JPG,AFNE01.JPG,AFNE01.JPG,AFNE01.JPG,AFNE01.JPG,,,,,,,,,,,,,2,8,28,7,,,,,,,,,,,AFSA19.jpg,AFSA17.jpg,AFNE20.jpg,AFNE07.jpg,AFNE07.jpg,FN,3,num_4,16,num_4,1.00010103286,,,2017_Jun_28_1407,60.0072752459,MAFE4ImagesEEG,001,100809,
AFNE01.JPG,AFNE01.JPG,AFNE01.JPG,AFNE01.JPG,AFNE01.JPG,AFNE01.JPG,,,,,,,,,,,,,2,9,29,9,,,,,,,,,,,AFSA19.jpg,AFSA11.jpg,AFNE19.jpg,AFNE15.jpg,AFSA11.jpg,FS,4,num_6,32,num_8,0.966724912912,,,2017_Jun_28_1407,60.0072752459,MAFE4ImagesEEG,001,100809,
AFNE01.JPG,AFNE01.JPG,AFNE01.JPG,AFNE01.JPG,AFNE01.JPG,AFNE01.JPG,,,,,,,,,,,,,3,0,30,2,,,,,,,,,,,AFNE17.jpg,AFNE10.jpg,AFSA13.jpg,AFSA01.jpg,AFNE17.jpg,FN,3,num_8,16,num_8,1.44992331126,,,2017_Jun_28_1407,60.0072752459,MAFE4ImagesEEG,001,100809,
AFNE01.JPG,AFNE01.JPG,AFNE01.JPG,AFNE01.JPG,AFNE01.JPG,AFNE01.JPG,,,,,,,,,,,,,3,1,31,6,,,,,,,,,,,AFNE17.jpg,AFNE19.jpg,AFSA19.jpg,AFSA05.jpg,AFSA05.jpg,FS,4,num_4,16,num_4,0.566837877253,,,2017_Jun_28_1407,60.0072752459,MAFE4ImagesEEG,001,100809,
AFNE01.JPG,AFNE01.JPG,AFNE01.JPG,AFNE01.JPG,AFNE01.JPG,AFNE01.JPG,,,,,,,,,,,,,3,2,32,9,,,,,,,,,,,AFSA02.jpg,AFNE20.jpg,AFSA10.jpg,AFNE18.jpg,AFNE20.jpg,FN,3,num_6,16,num_6,2.64997155043,,,2017_Jun_28_1407,60.0072752459,MAFE4ImagesEEG,001,100809,
AFNE01.JPG,AFNE01.JPG,AFNE01.JPG,AFNE01.JPG,AFNE01.JPG,AFNE01.JPG,,,,,,,,,,,,,3,3,33,1,,,,,,,,,,,AFNE17.jpg,AFSA08.jpg,AFNE13.jpg,AFSA15.jpg,AFSA08.jpg,FS,4,num_6,16,num_6,0.716763882709,,,2017_Jun_28_1407,60.0072752459,MAFE4ImagesEEG,001,100809,
AFNE01.JPG,AFNE01.JPG,AFNE01.JPG,AFNE01.JPG,AFNE01.JPG,AFNE01.JPG,,,,,,,,,,,,,3,4,34,8,,,,,,,,,,,AFNE19.jpg,AFSA05.jpg,AFSA04.jpg,AFNE08.jpg,AFNE08.jpg,FN,3,num_4,32,num_8,3.28323579655,,,2017_Jun_28_1407,60.0072752459,MAFE4ImagesEEG,001,100809,
AFNE01.JPG,AFNE01.JPG,AFNE01.JPG,AFNE01.JPG,AFNE01.JPG,AFNE01.JPG,,,,,,,,,,,,,3,5,35,5,,,,,,,,,,,AFNE07.jpg,AFSA11.jpg,AFSA01.jpg,AFNE11.jpg,AFNE07.jpg,FN,3,num_8,16,num_8,1.23339004001,,,2017_Jun_28_1407,60.0072752459,MAFE4ImagesEEG,001,100809,
AFNE01.JPG,AFNE01.JPG,AFNE01.JPG,AFNE01.JPG,AFNE01.JPG,AFNE01.JPG,,,,,,,,,,,,,3,6,36,0,,,,,,,,,,,AFNE09.jpg,AFSA13.jpg,AFNE05.jpg,AFSA04.jpg,AFSA13.jpg,FS,4,num_6,16,num_6,0.800145166548,,,2017_Jun_28_1407,60.0072752459,MAFE4ImagesEEG,001,100809,
AFNE01.JPG,AFNE01.JPG,AFNE01.JPG,AFNE01.JPG,AFNE01.JPG,AFNE01.JPG,,,,,,,,,,,,,3,7,37,7,,,,,,,,,,,AFNE10.jpg,AFSA03.jpg,AFSA17.jpg,AFNE04.jpg,AFSA03.jpg,FS,4,num_6,16,num_6,0.850122746881,,,2017_Jun_28_1407,60.0072752459,MAFE4ImagesEEG,001,100809,
AFNE01.JPG,AFNE01.JPG,AFNE01.JPG,AFNE01.JPG,AFNE01.JPG,AFNE01.JPG,,,,,,,,,,,,,3,8,38,3,,,,,,,,,,,AFNE09.jpg,AFNE13.jpg,AFSA13.jpg,AFSA08.jpg,AFNE13.jpg,FN,3,num_6,16,num_6,1.96666044432,,,2017_Jun_28_1407,60.0072752459,MAFE4ImagesEEG,001,100809,
AFNE01.JPG,AFNE01.JPG,AFNE01.JPG,AFNE01.JPG,AFNE01.JPG,AFNE01.JPG,,,,,,,,,,,,,3,9,39,4,,,,,,,,,,,AFNE16.jpg,AFSA01.jpg,AFNE14.jpg,AFSA04.jpg,AFNE14.jpg,FN,3,num_2,16,num_2,1.30007171728,,,2017_Jun_28_1407,60.0072752459,MAFE4ImagesEEG,001,100809,
AFNE01.JPG,AFNE01.JPG,AFNE01.JPG,AFNE01.JPG,AFNE01.JPG,AFNE01.JPG,,,,,,,,,,,,,4,0,40,9,,,,,,,,,,,AFSA11.jpg,AFNE20.jpg,AFNE11.jpg,AFSA04.jpg,AFNE20.jpg,FN,3,num_6,32,num_4,1.18345062765,,,2017_Jun_28_1407,60.0072752459,MAFE4ImagesEEG,001,100809,
AFNE01.JPG,AFNE01.JPG,AFNE01.JPG,AFNE01.JPG,AFNE01.JPG,AFNE01.JPG,,,,,,,,,,,,,4,1,41,2,,,,,,,,,,,AFSA02.jpg,AFNE10.jpg,AFNE06.jpg,AFSA13.jpg,AFNE10.jpg,FN,3,num_6,16,num_6,1.23347439442,,,2017_Jun_28_1407,60.0072752459,MAFE4ImagesEEG,001,100809,
AFNE01.JPG,AFNE01.JPG,AFNE01.JPG,AFNE01.JPG,AFNE01.JPG,AFNE01.JPG,,,,,,,,,,,,,4,2,42,0,,,,,,,,,,,AFSA04.jpg,AFNE09.jpg,AFNE08.jpg,AFSA09.jpg,AFSA04.jpg,FS,4,num_8,16,num_8,0.716850482306,,,2017_Jun_28_1407,60.0072752459,MAFE4ImagesEEG,001,100809,
AFNE01.JPG,AFNE01.JPG,AFNE01.JPG,AFNE01.JPG,AFNE01.JPG,AFNE01.JPG,,,,,,,,,,,,,4,3,43,6,,,,,,,,,,,AFNE07.jpg,AFSA07.jpg,AFSA14.jpg,AFNE06.jpg,AFSA07.jpg,FS,4,num_6,16,num_6,1.18347243792,,,2017_Jun_28_1407,60.0072752459,MAFE4ImagesEEG,001,100809,
AFNE01.JPG,AFNE01.JPG,AFNE01.JPG,AFNE01.JPG,AFNE01.JPG,AFNE01.JPG,,,,,,,,,,,,,4,4,44,4,,,,,,,,,,,AFNE04.jpg,AFSA01.jpg,AFNE02.jpg,AFSA08.jpg,AFSA08.jpg,FS,4,num_4,32,num_8,0.766805610881,,,2017_Jun_28_1407,60.0072752459,MAFE4ImagesEEG,001,100809,
AFNE01.JPG,AFNE01.JPG,AFNE01.JPG,AFNE01.JPG,AFNE01.JPG,AFNE01.JPG,,,,,,,,,,,,,4,5,45,8,,,,,,,,,,,AFSA11.jpg,AFNE08.jpg,AFNE17.jpg,AFSA02.jpg,AFNE08.jpg,FN,3,num_6,16,num_6,1.56686578155,,,2017_Jun_28_1407,60.0072752459,MAFE4ImagesEEG,001,100809,
AFNE01.JPG,AFNE01.JPG,AFNE01.JPG,AFNE01.JPG,AFNE01.JPG,AFNE01.JPG,,,,,,,,,,,,,4,6,46,7,,,,,,,,,,,AFNE03.jpg,AFSA17.jpg,AFSA11.jpg,AFNE05.jpg,AFNE05.jpg,FN,3,num_4,16,num_4,1.31671647746,,,2017_Jun_28_1407,60.0072752459,MAFE4ImagesEEG,001,100809,
AFNE01.JPG,AFNE01.JPG,AFNE01.JPG,AFNE01.JPG,AFNE01.JPG,AFNE01.JPG,,,,,,,,,,,,,4,7,47,1,,,,,,,,,,,AFNE13.jpg,AFSA16.jpg,AFNE04.jpg,AFSA12.jpg,AFSA12.jpg,FS,4,num_4,32,num_8,1.01681763861,,,2017_Jun_28_1407,60.0072752459,MAFE4ImagesEEG,001,100809,
AFNE01.JPG,AFNE01.JPG,AFNE01.JPG,AFNE01.JPG,AFNE01.JPG,AFNE01.JPG,,,,,,,,,,,,,4,8,48,3,,,,,,,,,,,AFSA04.jpg,AFSA03.jpg,AFNE18.jpg,AFNE05.jpg,AFSA03.jpg,FS,4,num_6,32,num_8,2.5333536682,,,2017_Jun_28_1407,60.0072752459,MAFE4ImagesEEG,001,100809,
AFNE01.JPG,AFNE01.JPG,AFNE01.JPG,AFNE01.JPG,AFNE01.JPG,AFNE01.JPG,,,,,,,,,,,,,4,9,49,5,,,,,,,,,,,AFNE10.jpg,AFSA16.jpg,AFNE05.jpg,AFSA13.jpg,AFSA13.jpg,FS,4,num_4,16,num_4,0.950117679211,,,2017_Jun_28_1407,60.0072752459,MAFE4ImagesEEG,001,100809,
AFNE01.JPG,AFNE01.JPG,AFNE01.JPG,AFNE01.JPG,AFNE01.JPG,AFNE01.JPG,,,,,,,,,,,,,5,0,50,5,,,,,,,,,,,AFSA12.jpg,AFNE08.jpg,AFNE12.jpg,AFSA08.jpg,AFNE08.jpg,FN,3,num_6,32,num_2,1.48338346486,,,2017_Jun_28_1407,60.0072752459,MAFE4ImagesEEG,001,100809,
AFNE01.JPG,AFNE01.JPG,AFNE01.JPG,AFNE01.JPG,AFNE01.JPG,AFNE01.JPG,,,,,,,,,,,,,5,1,51,8,,,,,,,,,,,AFSA14.jpg,AFNE13.jpg,AFSA15.jpg,AFNE09.jpg,AFNE13.jpg,FN,3,num_6,16,num_6,1.23341537842,,,2017_Jun_28_1407,60.0072752459,MAFE4ImagesEEG,001,100809,
AFNE01.JPG,AFNE01.JPG,AFNE01.JPG,AFNE01.JPG,AFNE01.JPG,AFNE01.JPG,,,,,,,,,,,,,5,2,52,3,,,,,,,,,,,AFNE15.jpg,AFNE10.jpg,AFSA03.jpg,AFSA12.jpg,AFNE10.jpg,FN,3,num_6,16,num_6,0.933346227044,,,2017_Jun_28_1407,60.0072752459,MAFE4ImagesEEG,001,100809,
AFNE01.JPG,AFNE01.JPG,AFNE01.JPG,AFNE01.JPG,AFNE01.JPG,AFNE01.JPG,,,,,,,,,,,,,5,3,53,6,,,,,,,,,,,AFNE19.jpg,AFSA02.jpg,AFNE05.jpg,AFSA19.jpg,AFNE05.jpg,FN,3,num_2,16,num_2,2.08289600545,,,2017_Jun_28_1407,60.0072752459,MAFE4ImagesEEG,001,100809,
AFNE01.JPG,AFNE01.JPG,AFNE01.JPG,AFNE01.JPG,AFNE01.JPG,AFNE01.JPG,,,,,,,,,,,,,5,4,54,9,,,,,,,,,,,AFSA10.jpg,AFNE13.jpg,AFNE18.jpg,AFSA20.jpg,AFNE18.jpg,FN,3,num_2,32,num_6,1.05014468545,,,2017_Jun_28_1407,60.0072752459,MAFE4ImagesEEG,001,100809,
AFNE01.JPG,AFNE01.JPG,AFNE01.JPG,AFNE01.JPG,AFNE01.JPG,AFNE01.JPG,,,,,,,,,,,,,5,5,55,4,,,,,,,,,,,AFNE02.jpg,AFNE17.jpg,AFSA08.jpg,AFSA13.jpg,AFSA13.jpg,FS,4,num_4,16,num_4,0.566808369229,,,2017_Jun_28_1407,60.0072752459,MAFE4ImagesEEG,001,100809,
AFNE01.JPG,AFNE01.JPG,AFNE01.JPG,AFNE01.JPG,AFNE01.JPG,AFNE01.JPG,,,,,,,,,,,,,5,6,56,2,,,,,,,,,,,AFNE04.jpg,AFSA12.jpg,AFNE20.jpg,AFSA17.jpg,AFNE04.jpg,FN,3,num_8,16,num_8,1.11673591427,,,2017_Jun_28_1407,60.0072752459,MAFE4ImagesEEG,001,100809,
AFNE01.JPG,AFNE01.JPG,AFNE01.JPG,AFNE01.JPG,AFNE01.JPG,AFNE01.JPG,,,,,,,,,,,,,5,7,57,0,,,,,,,,,,,AFNE08.jpg,AFSA01.jpg,AFNE18.jpg,AFSA06.jpg,AFNE18.jpg,FN,3,num_2,32,num_8,0.983450499363,,,2017_Jun_28_1407,60.0072752459,MAFE4ImagesEEG,001,100809,
AFNE01.JPG,AFNE01.JPG,AFNE01.JPG,AFNE01.JPG,AFNE01.JPG,AFNE01.JPG,,,,,,,,,,,,,5,8,58,1,,,,,,,,,,,AFNE11.jpg,AFSA15.jpg,AFNE18.jpg,AFSA02.jpg,AFNE18.jpg,FN,3,num_2,16,num_2,1.5500673873,,,2017_Jun_28_1407,60.0072752459,MAFE4ImagesEEG,001,100809,
AFNE01.JPG,AFNE01.JPG,AFNE01.JPG,AFNE01.JPG,AFNE01.JPG,AFNE01.JPG,,,,,,,,,,,,,5,9,59,7,,,,,,,,,,,AFNE13.jpg,AFSA20.jpg,AFNE14.jpg,AFSA10.jpg,AFNE13.jpg,FN,3,num_8,32,num_2,1.53338221399,,,2017_Jun_28_1407,60.0072752459,MAFE4ImagesEEG,001,100809,
,,,,,,,,,,,,,,,,,,,,,,,,,,,,,,,,,,,,,,,,,,,space,41.4135880516,2017_Jun_28_1407,60.0072752459,MAFE4ImagesEEG,001,100809,
AFNE01.JPG,AFNE01.JPG,AFNE01.JPG,AFNE01.JPG,AFNE01.JPG,AFNE01.JPG,,,,,,,,,,,,,,,,,0,0,0,7,,,,,,,AMNE14.jpg,AMNE18.jpg,AMSA20.jpg,AMSA15.jpg,AMNE18.jpg,MN,1,num_6,16,num_6,1.61669742556,,,2017_Jun_28_1407,60.0072752459,MAFE4ImagesEEG,001,100809,
AFNE01.JPG,AFNE01.JPG,AFNE01.JPG,AFNE01.JPG,AFNE01.JPG,AFNE01.JPG,,,,,,,,,,,,,,,,,0,1,1,3,,,,,,,AMNE03.jpg,AMSA03.jpg,AMSA16.jpg,AMNE08.jpg,AMNE08.jpg,MN,1,num_4,16,num_4,0.550223908023,,,2017_Jun_28_1407,60.0072752459,MAFE4ImagesEEG,001,100809,
AFNE01.JPG,AFNE01.JPG,AFNE01.JPG,AFNE01.JPG,AFNE01.JPG,AFNE01.JPG,,,,,,,,,,,,,,,,,0,2,2,6,,,,,,,AMNE02.jpg,AMSA13.jpg,AMNE07.jpg,AMSA05.jpg,AMNE02.jpg,MN,1,num_8,16,num_8,0.716847595642,,,2017_Jun_28_1407,60.0072752459,MAFE4ImagesEEG,001,100809,
AFNE01.JPG,AFNE01.JPG,AFNE01.JPG,AFNE01.JPG,AFNE01.JPG,AFNE01.JPG,,,,,,,,,,,,,,,,,0,3,3,2,,,,,,,AMNE15.jpg,AMSA20.jpg,AMNE16.jpg,AMSA11.jpg,AMNE15.jpg,MN,1,num_8,16,num_8,2.23333230696,,,2017_Jun_28_1407,60.0072752459,MAFE4ImagesEEG,001,100809,
AFNE01.JPG,AFNE01.JPG,AFNE01.JPG,AFNE01.JPG,AFNE01.JPG,AFNE01.JPG,,,,,,,,,,,,,,,,,0,4,4,4,,,,,,,AMSA03.jpg,AMSA05.jpg,AMNE04.jpg,AMNE01.jpg,AMNE01.jpg,MN,1,num_4,32,num_2,0.483467819271,,,2017_Jun_28_1407,60.0072752459,MAFE4ImagesEEG,001,100809,
AFNE01.JPG,AFNE01.JPG,AFNE01.JPG,AFNE01.JPG,AFNE01.JPG,AFNE01.JPG,,,,,,,,,,,,,,,,,0,5,5,1,,,,,,,AMNE12.jpg,AMSA17.jpg,AMNE13.jpg,AMSA09.jpg,AMNE13.jpg,MN,1,num_2,32,num_8,1.00008788254,,,2017_Jun_28_1407,60.0072752459,MAFE4ImagesEEG,001,100809,
AFNE01.JPG,AFNE01.JPG,AFNE01.JPG,AFNE01.JPG,AFNE01.JPG,AFNE01.JPG,,,,,,,,,,,,,,,,,0,6,6,9,,,,,,,AMNE17.jpg,AMSA04.jpg,AMNE12.jpg,AMSA09.jpg,AMSA09.jpg,MS,2,num_4,32,num_2,1.0667220904,,,2017_Jun_28_1407,60.0072752459,MAFE4ImagesEEG,001,100809,
AFNE01.JPG,AFNE01.JPG,AFNE01.JPG,AFNE01.JPG,AFNE01.JPG,AFNE01.JPG,,,,,,,,,,,,,,,,,0,7,7,5,,,,,,,AMNE14.jpg,AMSA09.jpg,AMSA13.jpg,AMNE20.jpg,AMSA09.jpg,MS,2,num_6,16,num_6,0.666787585345,,,2017_Jun_28_1407,60.0072752459,MAFE4ImagesEEG,001,100809,
AFNE01.JPG,AFNE01.JPG,AFNE01.JPG,AFNE01.JPG,AFNE01.JPG,AFNE01.JPG,,,,,,,,,,,,,,,,,0,8,8,0,,,,,,,AMSA13.jpg,AMSA20.jpg,AMNE06.jpg,AMNE03.jpg,AMSA13.jpg,MS,2,num_8,16,num_8,1.28344427703,,,2017_Jun_28_1407,60.0072752459,MAFE4ImagesEEG,001,100809,
AFNE01.JPG,AFNE01.JPG,AFNE01.JPG,AFNE01.JPG,AFNE01.JPG,AFNE01.JPG,,,,,,,,,,,,,,,,,0,9,9,8,,,,,,,AMSA16.jpg,AMNE15.jpg,AMSA08.jpg,AMNE09.jpg,AMSA08.jpg,MS,2,num_2,16,num_2,1.46669604638,,,2017_Jun_28_1407,60.0072752459,MAFE4ImagesEEG,001,100809,
AFNE01.JPG,AFNE01.JPG,AFNE01.JPG,AFNE01.JPG,AFNE01.JPG,AFNE01.JPG,,,,,,,,,,,,,,,,,1,0,10,9,,,,,,,AMSA17.jpg,AMNE14.jpg,AMNE03.jpg,AMSA12.jpg,AMSA17.jpg,MS,2,num_8,32,num_2,1.48339180408,,,2017_Jun_28_1407,60.0072752459,MAFE4ImagesEEG,001,100809,
AFNE01.JPG,AFNE01.JPG,AFNE01.JPG,AFNE01.JPG,AFNE01.JPG,AFNE01.JPG,,,,,,,,,,,,,,,,,1,1,11,8,,,,,,,AMNE20.jpg,AMSA01.jpg,AMSA12.jpg,AMNE04.jpg,AMSA01.jpg,MS,2,num_6,32,num_4,1.15015052291,,,2017_Jun_28_1407,60.0072752459,MAFE4ImagesEEG,001,100809,
AFNE01.JPG,AFNE01.JPG,AFNE01.JPG,AFNE01.JPG,AFNE01.JPG,AFNE01.JPG,,,,,,,,,,,,,,,,,1,2,12,2,,,,,,,AMSA08.jpg,AMNE14.jpg,AMNE16.jpg,AMSA16.jpg,AMNE14.jpg,MN,1,num_6,16,num_6,0.700125537318,,,2017_Jun_28_1407,60.0072752459,MAFE4ImagesEEG,001,100809,
AFNE01.JPG,AFNE01.JPG,AFNE01.JPG,AFNE01.JPG,AFNE01.JPG,AFNE01.JPG,,,,,,,,,,,,,,,,,1,3,13,6,,,,,,,AMNE08.jpg,AMSA10.jpg,AMSA06.jpg,AMNE16.jpg,AMNE08.jpg,MN,1,num_8,16,num_8,1.06671920375,,,2017_Jun_28_1407,60.0072752459,MAFE4ImagesEEG,001,100809,
AFNE01.JPG,AFNE01.JPG,AFNE01.JPG,AFNE01.JPG,AFNE01.JPG,AFNE01.JPG,,,,,,,,,,,,,,,,,1,4,14,7,,,,,,,AMNE07.jpg,AMSA10.jpg,AMNE15.jpg,AMSA11.jpg,AMSA11.jpg,MS,2,num_4,32,num_6,2.58336749206,,,2017_Jun_28_1407,60.0072752459,MAFE4ImagesEEG,001,100809,
AFNE01.JPG,AFNE01.JPG,AFNE01.JPG,AFNE01.JPG,AFNE01.JPG,AFNE01.JPG,,,,,,,,,,,,,,,,,1,5,15,1,,,,,,,AMSA04.jpg,AMNE01.jpg,AMSA17.jpg,AMNE13.jpg,AMSA17.jpg,MS,2,num_2,16,num_2,0.550135384008,,,2017_Jun_28_1407,60.0072752459,MAFE4ImagesEEG,001,100809,
AFNE01.JPG,AFNE01.JPG,AFNE01.JPG,AFNE01.JPG,AFNE01.JPG,AFNE01.JPG,,,,,,,,,,,,,,,,,1,6,16,0,,,,,,,AMSA15.jpg,AMSA17.jpg,AMNE13.jpg,AMNE20.jpg,AMSA17.jpg,MS,2,num_6,16,num_6,1.70005754061,,,2017_Jun_28_1407,60.0072752459,MAFE4ImagesEEG,001,100809,
AFNE01.JPG,AFNE01.JPG,AFNE01.JPG,AFNE01.JPG,AFNE01.JPG,AFNE01.JPG,,,,,,,,,,,,,,,,,1,7,17,5,,,,,,,AMNE10.jpg,AMSA07.jpg,AMNE17.jpg,AMSA11.jpg,AMNE17.jpg,MN,1,num_2,32,num_8,1.30006562323,,,2017_Jun_28_1407,60.0072752459,MAFE4ImagesEEG,001,100809,
AFNE01.JPG,AFNE01.JPG,AFNE01.JPG,AFNE01.JPG,AFNE01.JPG,AFNE01.JPG,,,,,,,,,,,,,,,,,1,8,18,4,,,,,,,AMNE08.jpg,AMSA14.jpg,AMSA02.jpg,AMNE17.jpg,AMSA14.jpg,MS,2,num_6,16,num_6,1.16691235288,,,2017_Jun_28_1407,60.0072752459,MAFE4ImagesEEG,001,100809,
AFNE01.JPG,AFNE01.JPG,AFNE01.JPG,AFNE01.JPG,AFNE01.JPG,AFNE01.JPG,,,,,,,,,,,,,,,,,1,9,19,3,,,,,,,AMNE16.jpg,AMSA08.jpg,AMNE18.jpg,AMSA13.jpg,AMSA08.jpg,MS,2,num_6,32,num_8,1.08345280869,,,2017_Jun_28_1407,60.0072752459,MAFE4ImagesEEG,001,100809,
AFNE01.JPG,AFNE01.JPG,AFNE01.JPG,AFNE01.JPG,AFNE01.JPG,AFNE01.JPG,,,,,,,,,,,,,,,,,2,0,20,7,,,,,,,AMSA13.jpg,AMSA09.jpg,AMNE12.jpg,AMNE20.jpg,AMNE12.jpg,MN,1,num_2,16,num_2,2.84998964013,,,2017_Jun_28_1407,60.0072752459,MAFE4ImagesEEG,001,100809,
AFNE01.JPG,AFNE01.JPG,AFNE01.JPG,AFNE01.JPG,AFNE01.JPG,AFNE01.JPG,,,,,,,,,,,,,,,,,2,1,21,1,,,,,,,AMNE17.jpg,AMSA13.jpg,AMSA04.jpg,AMNE15.jpg,AMSA13.jpg,MS,2,num_6,16,num_6,0.750168227707,,,2017_Jun_28_1407,60.0072752459,MAFE4ImagesEEG,001,100809,
AFNE01.JPG,AFNE01.JPG,AFNE01.JPG,AFNE01.JPG,AFNE01.JPG,AFNE01.JPG,,,,,,,,,,,,,,,,,2,2,22,3,,,,,,,AMSA04.jpg,AMNE10.jpg,AMSA14.jpg,AMNE12.jpg,AMSA04.jpg,MS,2,num_8,16,num_8,0.766614129592,,,2017_Jun_28_1407,60.0072752459,MAFE4ImagesEEG,001,100809,
AFNE01.JPG,AFNE01.JPG,AFNE01.JPG,AFNE01.JPG,AFNE01.JPG,AFNE01.JPG,,,,,,,,,,,,,,,,,2,3,23,2,,,,,,,AMNE09.jpg,AMSA01.jpg,AMSA03.jpg,AMNE14.jpg,AMNE14.jpg,MN,1,num_4,16,num_4,0.733509675731,,,2017_Jun_28_1407,60.0072752459,MAFE4ImagesEEG,001,100809,
AFNE01.JPG,AFNE01.JPG,AFNE01.JPG,AFNE01.JPG,AFNE01.JPG,AFNE01.JPG,,,,,,,,,,,,,,,,,2,4,24,4,,,,,,,AMSA12.jpg,AMNE11.jpg,AMSA10.jpg,AMNE10.jpg,AMNE11.jpg,MN,1,num_6,16,num_6,0.633473688809,,,2017_Jun_28_1407,60.0072752459,MAFE4ImagesEEG,001,100809,
AFNE01.JPG,AFNE01.JPG,AFNE01.JPG,AFNE01.JPG,AFNE01.JPG,AFNE01.JPG,,,,,,,,,,,,,,,,,2,5,25,9,,,,,,,AMSA17.jpg,AMSA04.jpg,AMNE13.jpg,AMNE14.jpg,AMNE13.jpg,MN,1,num_2,16,num_2,0.966729723979,,,2017_Jun_28_1407,60.0072752459,MAFE4ImagesEEG,001,100809,
AFNE01.JPG,AFNE01.JPG,AFNE01.JPG,AFNE01.JPG,AFNE01.JPG,AFNE01.JPG,,,,,,,,,,,,,,,,,2,6,26,0,,,,,,,AMNE09.jpg,AMNE02.jpg,AMSA11.jpg,AMSA20.jpg,AMSA20.jpg,MS,2,num_4,32,num_8,1.75014577596,,,2017_Jun_28_1407,60.0072752459,MAFE4ImagesEEG,001,100809,
AFNE01.JPG,AFNE01.JPG,AFNE01.JPG,AFNE01.JPG,AFNE01.JPG,AFNE01.JPG,,,,,,,,,,,,,,,,,2,7,27,8,,,,,,,AMSA11.jpg,AMNE13.jpg,AMSA08.jpg,AMNE10.jpg,AMSA08.jpg,MS,2,num_2,16,num_2,1.05004589778,,,2017_Jun_28_1407,60.0072752459,MAFE4ImagesEEG,001,100809,
AFNE01.JPG,AFNE01.JPG,AFNE01.JPG,AFNE01.JPG,AFNE01.JPG,AFNE01.JPG,,,,,,,,,,,,,,,,,2,8,28,6,,,,,,,AMNE14.jpg,AMSA04.jpg,AMSA13.jpg,AMNE03.jpg,AMSA04.jpg,MS,2,num_6,16,num_6,1.01677145215,,,2017_Jun_28_1407,60.0072752459,MAFE4ImagesEEG,001,100809,
AFNE01.JPG,AFNE01.JPG,AFNE01.JPG,AFNE01.JPG,AFNE01.JPG,AFNE01.JPG,,,,,,,,,,,,,,,,,2,9,29,5,,,,,,,AMNE08.jpg,AMSA07.jpg,AMNE03.jpg,AMSA12.jpg,AMSA07.jpg,MS,2,num_6,16,num_6,2.7835972696,,,2017_Jun_28_1407,60.0072752459,MAFE4ImagesEEG,001,100809,
AFNE01.JPG,AFNE01.JPG,AFNE01.JPG,AFNE01.JPG,AFNE01.JPG,AFNE01.JPG,,,,,,,,,,,,,,,,,3,0,30,7,,,,,,,AMNE12.jpg,AMSA12.jpg,AMSA05.jpg,AMNE07.jpg,AMSA12.jpg,MS,2,num_6,32,num_2,1.71669556528,,,2017_Jun_28_1407,60.0072752459,MAFE4ImagesEEG,001,100809,
AFNE01.JPG,AFNE01.JPG,AFNE01.JPG,AFNE01.JPG,AFNE01.JPG,AFNE01.JPG,,,,,,,,,,,,,,,,,3,1,31,6,,,,,,,AMSA08.jpg,AMNE02.jpg,AMNE10.jpg,AMSA20.jpg,AMSA08.jpg,MS,2,num_8,16,num_8,1.1334172387,,,2017_Jun_28_1407,60.0072752459,MAFE4ImagesEEG,001,100809,
AFNE01.JPG,AFNE01.JPG,AFNE01.JPG,AFNE01.JPG,AFNE01.JPG,AFNE01.JPG,,,,,,,,,,,,,,,,,3,2,32,8,,,,,,,AMNE17.jpg,AMNE02.jpg,AMSA14.jpg,AMSA04.jpg,AMNE17.jpg,MN,1,num_8,32,num_6,2.28336088483,,,2017_Jun_28_1407,60.0072752459,MAFE4ImagesEEG,001,100809,
AFNE01.JPG,AFNE01.JPG,AFNE01.JPG,AFNE01.JPG,AFNE01.JPG,AFNE01.JPG,,,,,,,,,,,,,,,,,3,3,33,5,,,,,,,AMNE03.jpg,AMSA09.jpg,AMSA11.jpg,AMNE11.jpg,AMSA09.jpg,MS,2,num_6,16,num_6,0.983502138377,,,2017_Jun_28_1407,60.0072752459,MAFE4ImagesEEG,001,100809,
AFNE01.JPG,AFNE01.JPG,AFNE01.JPG,AFNE01.JPG,AFNE01.JPG,AFNE01.JPG,,,,,,,,,,,,,,,,,3,4,34,9,,,,,,,AMNE03.jpg,AMNE02.jpg,AMSA02.jpg,AMSA06.jpg,AMSA02.jpg,MS,2,num_2,16,num_2,2.01666560823,,,2017_Jun_28_1407,60.0072752459,MAFE4ImagesEEG,001,100809,
AFNE01.JPG,AFNE01.JPG,AFNE01.JPG,AFNE01.JPG,AFNE01.JPG,AFNE01.JPG,,,,,,,,,,,,,,,,,3,5,35,2,,,,,,,AMNE09.jpg,AMSA04.jpg,AMSA11.jpg,AMNE05.jpg,AMSA04.jpg,MS,2,num_6,16,num_6,0.600259542145,,,2017_Jun_28_1407,60.0072752459,MAFE4ImagesEEG,001,100809,
AFNE01.JPG,AFNE01.JPG,AFNE01.JPG,AFNE01.JPG,AFNE01.JPG,AFNE01.JPG,,,,,,,,,,,,,,,,,3,6,36,4,,,,,,,AMSA16.jpg,AMNE14.jpg,AMNE12.jpg,AMSA18.jpg,AMSA16.jpg,MS,2,num_8,16,num_8,1.88336800523,,,2017_Jun_28_1407,60.0072752459,MAFE4ImagesEEG,001,100809,
AFNE01.JPG,AFNE01.JPG,AFNE01.JPG,AFNE01.JPG,AFNE01.JPG,AFNE01.JPG,,,,,,,,,,,,,,,,,3,7,37,3,,,,,,,AMNE16.jpg,AMSA04.jpg,AMNE08.jpg,AMSA05.jpg,AMSA05.jpg,MS,2,num_4,16,num_4,0.616836626359,,,2017_Jun_28_1407,60.0072752459,MAFE4ImagesEEG,001,100809,
AFNE01.JPG,AFNE01.JPG,AFNE01.JPG,AFNE01.JPG,AFNE01.JPG,AFNE01.JPG,,,,,,,,,,,,,,,,,3,8,38,0,,,,,,,AMNE05.jpg,AMSA14.jpg,AMNE10.jpg,AMSA06.jpg,AMSA06.jpg,MS,2,num_4,16,num_4,0.966744157253,,,2017_Jun_28_1407,60.0072752459,MAFE4ImagesEEG,001,100809,
AFNE01.JPG,AFNE01.JPG,AFNE01.JPG,AFNE01.JPG,AFNE01.JPG,AFNE01.JPG,,,,,,,,,,,,,,,,,3,9,39,1,,,,,,,AMNE10.jpg,AMSA16.jpg,AMSA08.jpg,AMNE12.jpg,AMSA16.jpg,MS,2,num_6,32,num_2,1.98334754207,,,2017_Jun_28_1407,60.0072752459,MAFE4ImagesEEG,001,100809,
AFNE01.JPG,AFNE01.JPG,AFNE01.JPG,AFNE01.JPG,AFNE01.JPG,AFNE01.JPG,,,,,,,,,,,,,,,,,4,0,40,0,,,,,,,AMSA19.jpg,AMNE20.jpg,AMNE03.jpg,AMSA08.jpg,AMSA19.jpg,MS,2,num_8,16,num_8,1.23340992584,,,2017_Jun_28_1407,60.0072752459,MAFE4ImagesEEG,001,100809,
AFNE01.JPG,AFNE01.JPG,AFNE01.JPG,AFNE01.JPG,AFNE01.JPG,AFNE01.JPG,,,,,,,,,,,,,,,,,4,1,41,9,,,,,,,AMSA16.jpg,AMSA09.jpg,AMNE01.jpg,AMNE12.jpg,AMSA09.jpg,MS,2,num_6,32,num_4,2.26668725813,,,2017_Jun_28_1407,60.0072752459,MAFE4ImagesEEG,001,100809,
AFNE01.JPG,AFNE01.JPG,AFNE01.JPG,AFNE01.JPG,AFNE01.JPG,AFNE01.JPG,,,,,,,,,,,,,,,,,4,2,42,2,,,,,,,AMNE09.jpg,AMSA15.jpg,AMSA01.jpg,AMNE10.jpg,AMSA15.jpg,MS,2,num_6,16,num_6,1.93337156545,,,2017_Jun_28_1407,60.0072752459,MAFE4ImagesEEG,001,100809,
AFNE01.JPG,AFNE01.JPG,AFNE01.JPG,AFNE01.JPG,AFNE01.JPG,AFNE01.JPG,,,,,,,,,,,,,,,,,4,3,43,8,,,,,,,AMSA18.jpg,AMSA13.jpg,AMNE11.jpg,AMNE13.jpg,AMSA18.jpg,MS,2,num_8,32,num_6,0.700144460934,,,2017_Jun_28_1407,60.0072752459,MAFE4ImagesEEG,001,100809,
AFNE01.JPG,AFNE01.JPG,AFNE01.JPG,AFNE01.JPG,AFNE01.JPG,AFNE01.JPG,,,,,,,,,,,,,,,,,4,4,44,4,,,,,,,AMSA07.jpg,AMSA14.jpg,AMNE14.jpg,AMNE01.jpg,AMNE14.jpg,MN,1,num_2,32,num_6,3.38322303114,,,2017_Jun_28_1407,60.0072752459,MAFE4ImagesEEG,001,100809,
AFNE01.JPG,AFNE01.JPG,AFNE01.JPG,AFNE01.JPG,AFNE01.JPG,AFNE01.JPG,,,,,,,,,,,,,,,,,4,5,45,7,,,,,,,AMNE13.jpg,AMNE07.jpg,AMSA10.jpg,AMSA20.jpg,AMSA10.jpg,MS,2,num_2,32,num_8,0.966757307557,,,2017_Jun_28_1407,60.0072752459,MAFE4ImagesEEG,001,100809,
AFNE01.JPG,AFNE01.JPG,AFNE01.JPG,AFNE01.JPG,AFNE01.JPG,AFNE01.JPG,,,,,,,,,,,,,,,,,4,6,46,6,,,,,,,AMSA05.jpg,AMSA19.jpg,AMNE03.jpg,AMNE01.jpg,AMSA19.jpg,MS,2,num_6,32,num_2,1.64970309174,,,2017_Jun_28_1407,60.0072752459,MAFE4ImagesEEG,001,100809,
AFNE01.JPG,AFNE01.JPG,AFNE01.JPG,AFNE01.JPG,AFNE01.JPG,AFNE01.JPG,,,,,,,,,,,,,,,,,4,7,47,1,,,,,,,AMNE08.jpg,AMNE10.jpg,AMSA10.jpg,AMSA01.jpg,AMSA10.jpg,MS,2,num_2,32,num_8,1.0666123976,,,2017_Jun_28_1407,60.0072752459,MAFE4ImagesEEG,001,100809,
AFNE01.JPG,AFNE01.JPG,AFNE01.JPG,AFNE01.JPG,AFNE01.JPG,AFNE01.JPG,,,,,,,,,,,,,,,,,4,8,48,5,,,,,,,AMSA03.jpg,AMNE01.jpg,AMNE15.jpg,AMSA20.jpg,AMNE15.jpg,MN,1,num_2,16,num_2,1.13348202802,,,2017_Jun_28_1407,60.0072752459,MAFE4ImagesEEG,001,100809,
AFNE01.JPG,AFNE01.JPG,AFNE01.JPG,AFNE01.JPG,AFNE01.JPG,AFNE01.JPG,,,,,,,,,,,,,,,,,4,9,49,3,,,,,,,AMSA08.jpg,AMSA02.jpg,AMNE01.jpg,AMNE15.jpg,AMNE01.jpg,MN,1,num_2,16,num_2,2.13363373766,,,2017_Jun_28_1407,60.0072752459,MAFE4ImagesEEG,001,100809,
AFNE01.JPG,AFNE01.JPG,AFNE01.JPG,AFNE01.JPG,AFNE01.JPG,AFNE01.JPG,,,,,,,,,,,,,,,,,5,0,50,8,,,,,,,AMNE19.jpg,AMNE12.jpg,AMSA15.jpg,AMSA02.jpg,AMNE12.jpg,MN,1,num_6,32,num_8,1.08340662225,,,2017_Jun_28_1407,60.0072752459,MAFE4ImagesEEG,001,100809,
AFNE01.JPG,AFNE01.JPG,AFNE01.JPG,AFNE01.JPG,AFNE01.JPG,AFNE01.JPG,,,,,,,,,,,,,,,,,5,1,51,1,,,,,,,AMSA19.jpg,AMNE18.jpg,AMSA07.jpg,AMNE16.jpg,AMSA19.jpg,MS,2,num_8,16,num_8,1.40015549437,,,2017_Jun_28_1407,60.0072752459,MAFE4ImagesEEG,001,100809,
AFNE01.JPG,AFNE01.JPG,AFNE01.JPG,AFNE01.JPG,AFNE01.JPG,AFNE01.JPG,,,,,,,,,,,,,,,,,5,2,52,9,,,,,,,AMSA02.jpg,AMSA18.jpg,AMNE08.jpg,AMNE04.jpg,AMNE08.jpg,MN,1,num_2,16,num_2,1.51670890801,,,2017_Jun_28_1407,60.0072752459,MAFE4ImagesEEG,001,100809,
AFNE01.JPG,AFNE01.JPG,AFNE01.JPG,AFNE01.JPG,AFNE01.JPG,AFNE01.JPG,,,,,,,,,,,,,,,,,5,3,53,7,,,,,,,AMSA16.jpg,AMSA19.jpg,AMNE08.jpg,AMNE17.jpg,AMSA19.jpg,MS,2,num_6,32,num_2,1.2334471316,,,2017_Jun_28_1407,60.0072752459,MAFE4ImagesEEG,001,100809,
AFNE01.JPG,AFNE01.JPG,AFNE01.JPG,AFNE01.JPG,AFNE01.JPG,AFNE01.JPG,,,,,,,,,,,,,,,,,5,4,54,5,,,,,,,AMSA03.jpg,AMNE06.jpg,AMSA02.jpg,AMNE02.jpg,AMNE06.jpg,MN,1,num_6,16,num_6,1.55009721605,,,2017_Jun_28_1407,60.0072752459,MAFE4ImagesEEG,001,100809,
AFNE01.JPG,AFNE01.JPG,AFNE01.JPG,AFNE01.JPG,AFNE01.JPG,AFNE01.JPG,,,,,,,,,,,,,,,,,5,5,55,6,,,,,,,AMSA18.jpg,AMSA05.jpg,AMNE09.jpg,AMNE03.jpg,AMNE03.jpg,MN,1,num_4,16,num_4,1.10009115408,,,2017_Jun_28_1407,60.0072752459,MAFE4ImagesEEG,001,100809,
AFNE01.JPG,AFNE01.JPG,AFNE01.JPG,AFNE01.JPG,AFNE01.JPG,AFNE01.JPG,,,,,,,,,,,,,,,,,5,6,56,4,,,,,,,AMSA01.jpg,AMNE05.jpg,AMSA03.jpg,AMNE10.jpg,AMNE10.jpg,MN,1,num_4,16,num_4,0.883441133774,,,2017_Jun_28_1407,60.0072752459,MAFE4ImagesEEG,001,100809,
AFNE01.JPG,AFNE01.JPG,AFNE01.JPG,AFNE01.JPG,AFNE01.JPG,AFNE01.JPG,,,,,,,,,,,,,,,,,5,7,57,0,,,,,,,AMSA03.jpg,AMNE06.jpg,AMSA16.jpg,AMNE13.jpg,AMSA16.jpg,MS,2,num_2,16,num_2,1.00012829568,,,2017_Jun_28_1407,60.0072752459,MAFE4ImagesEEG,001,100809,
AFNE01.JPG,AFNE01.JPG,AFNE01.JPG,AFNE01.JPG,AFNE01.JPG,AFNE01.JPG,,,,,,,,,,,,,,,,,5,8,58,2,,,,,,,AMSA03.jpg,AMSA20.jpg,AMNE11.jpg,AMNE12.jpg,AMNE11.jpg,MN,1,num_2,16,num_2,2.21668241496,,,2017_Jun_28_1407,60.0072752459,MAFE4ImagesEEG,001,100809,
AFNE01.JPG,AFNE01.JPG,AFNE01.JPG,AFNE01.JPG,AFNE01.JPG,AFNE01.JPG,,,,,,,,,,,,,,,,,5,9,59,3,,,,,,,AMNE03.jpg,AMNE19.jpg,AMSA02.jpg,AMSA06.jpg,AMNE03.jpg,MN,1,num_8,32,num_6,1.03371866939,,,2017_Jun_28_1407,60.0072752459,MAFE4ImagesEEG,001,100809,
,,,,,,,,,,,,,,,,,,,,,,,,,,,,,,,,,,,,,,,,,,,space,34.7473851738,2017_Jun_28_1407,60.0072752459,MAFE4ImagesEEG,001,100809,
AFNE01.JPG,AFNE01.JPG,AFNE01.JPG,AFNE01.JPG,AFNE01.JPG,AFNE01.JPG,,,,,,,,,,,,,,,,,,,,,0,0,0,7,,,AFNE18.jpg,AFNE08.jpg,AFSA18.jpg,AFSA06.jpg,AFSA06.jpg,FS,4,num_4,16,num_4,1.38341483315,,,2017_Jun_28_1407,60.0072752459,MAFE4ImagesEEG,001,100809,
AFNE01.JPG,AFNE01.JPG,AFNE01.JPG,AFNE01.JPG,AFNE01.JPG,AFNE01.JPG,,,,,,,,,,,,,,,,,,,,,0,1,1,8,,,AFSA14.jpg,AFNE18.jpg,AFSA16.jpg,AFNE16.jpg,AFNE16.jpg,FN,3,num_4,32,num_6,0.983443763835,,,2017_Jun_28_1407,60.0072752459,MAFE4ImagesEEG,001,100809,
AFNE01.JPG,AFNE01.JPG,AFNE01.JPG,AFNE01.JPG,AFNE01.JPG,AFNE01.JPG,,,,,,,,,,,,,,,,,,,,,0,2,2,5,,,AFSA12.jpg,AFSA06.jpg,AFNE05.jpg,AFNE15.jpg,AFNE05.jpg,FN,3,num_2,32,num_8,1.56679137006,,,2017_Jun_28_1407,60.0072752459,MAFE4ImagesEEG,001,100809,
AFNE01.JPG,AFNE01.JPG,AFNE01.JPG,AFNE01.JPG,AFNE01.JPG,AFNE01.JPG,,,,,,,,,,,,,,,,,,,,,0,3,3,0,,,AFSA12.jpg,AFSA15.jpg,AFNE08.jpg,AFNE13.jpg,AFNE13.jpg,FN,3,num_4,16,num_4,0.883452038906,,,2017_Jun_28_1407,60.0072752459,MAFE4ImagesEEG,001,100809,
AFNE01.JPG,AFNE01.JPG,AFNE01.JPG,AFNE01.JPG,AFNE01.JPG,AFNE01.JPG,,,,,,,,,,,,,,,,,,,,,0,4,4,3,,,AFNE07.jpg,AFSA06.jpg,AFNE04.jpg,AFSA11.jpg,AFSA11.jpg,FS,4,num_4,16,num_4,1.26665807085,,,2017_Jun_28_1407,60.0072752459,MAFE4ImagesEEG,001,100809,
AFNE01.JPG,AFNE01.JPG,AFNE01.JPG,AFNE01.JPG,AFNE01.JPG,AFNE01.JPG,,,,,,,,,,,,,,,,,,,,,0,5,5,9,,,AFNE04.jpg,AFNE07.jpg,AFSA02.jpg,AFSA20.jpg,AFNE04.jpg,FN,3,num_8,16,num_8,0.86673575388,,,2017_Jun_28_1407,60.0072752459,MAFE4ImagesEEG,001,100809,
AFNE01.JPG,AFNE01.JPG,AFNE01.JPG,AFNE01.JPG,AFNE01.JPG,AFNE01.JPG,,,,,,,,,,,,,,,,,,,,,0,6,6,2,,,AFNE06.jpg,AFSA20.jpg,AFSA01.jpg,AFNE14.jpg,AFSA01.jpg,FS,4,num_2,16,num_2,0.850096446273,,,2017_Jun_28_1407,60.0072752459,MAFE4ImagesEEG,001,100809,
AFNE01.JPG,AFNE01.JPG,AFNE01.JPG,AFNE01.JPG,AFNE01.JPG,AFNE01.JPG,,,,,,,,,,,,,,,,,,,,,0,7,7,4,,,AFNE04.jpg,AFSA07.jpg,AFSA16.jpg,AFNE05.jpg,AFNE05.jpg,FN,3,num_4,16,num_4,0.883523243014,,,2017_Jun_28_1407,60.0072752459,MAFE4ImagesEEG,001,100809,
AFNE01.JPG,AFNE01.JPG,AFNE01.JPG,AFNE01.JPG,AFNE01.JPG,AFNE01.JPG,,,,,,,,,,,,,,,,,,,,,0,8,8,1,,,AFNE11.jpg,AFSA07.jpg,AFNE13.jpg,AFSA06.jpg,AFSA07.jpg,FS,4,num_6,16,num_6,1.05007893391,,,2017_Jun_28_1407,60.0072752459,MAFE4ImagesEEG,001,100809,
AFNE01.JPG,AFNE01.JPG,AFNE01.JPG,AFNE01.JPG,AFNE01.JPG,AFNE01.JPG,,,,,,,,,,,,,,,,,,,,,0,9,9,6,,,AFNE18.jpg,AFSA15.jpg,AFSA01.jpg,AFNE16.jpg,AFSA15.jpg,FS,4,num_6,16,num_6,0.600186734358,,,2017_Jun_28_1407,60.0072752459,MAFE4ImagesEEG,001,100809,
AFNE01.JPG,AFNE01.JPG,AFNE01.JPG,AFNE01.JPG,AFNE01.JPG,AFNE01.JPG,,,,,,,,,,,,,,,,,,,,,1,0,10,9,,,AFSA08.jpg,AFNE08.jpg,AFSA01.jpg,AFNE19.jpg,AFSA01.jpg,FS,4,num_2,16,num_2,0.800137148079,,,2017_Jun_28_1407,60.0072752459,MAFE4ImagesEEG,001,100809,
AFNE01.JPG,AFNE01.JPG,AFNE01.JPG,AFNE01.JPG,AFNE01.JPG,AFNE01.JPG,,,,,,,,,,,,,,,,,,,,,1,1,11,6,,,AFNE12.jpg,AFNE20.jpg,AFSA20.jpg,AFSA09.jpg,AFSA09.jpg,FS,4,num_4,16,num_4,1.66677122764,,,2017_Jun_28_1407,60.0072752459,MAFE4ImagesEEG,001,100809,
AFNE01.JPG,AFNE01.JPG,AFNE01.JPG,AFNE01.JPG,AFNE01.JPG,AFNE01.JPG,,,,,,,,,,,,,,,,,,,,,1,2,12,4,,,AFSA09.jpg,AFNE16.jpg,AFSA08.jpg,AFNE20.jpg,AFSA09.jpg,FS,4,num_8,16,num_8,1.48338025747,,,2017_Jun_28_1407,60.0072752459,MAFE4ImagesEEG,001,100809,
AFNE01.JPG,AFNE01.JPG,AFNE01.JPG,AFNE01.JPG,AFNE01.JPG,AFNE01.JPG,,,,,,,,,,,,,,,,,,,,,1,3,13,0,,,AFSA06.jpg,AFSA01.jpg,AFNE19.jpg,AFNE09.jpg,AFNE19.jpg,FN,3,num_2,32,num_8,2.28322906102,,,2017_Jun_28_1407,60.0072752459,MAFE4ImagesEEG,001,100809,
AFNE01.JPG,AFNE01.JPG,AFNE01.JPG,AFNE01.JPG,AFNE01.JPG,AFNE01.JPG,,,,,,,,,,,,,,,,,,,,,1,4,14,5,,,AFSA02.jpg,AFNE04.jpg,AFNE10.jpg,AFSA18.jpg,AFNE04.jpg,FN,3,num_6,32,num_2,1.41673418228,,,2017_Jun_28_1407,60.0072752459,MAFE4ImagesEEG,001,100809,
AFNE01.JPG,AFNE01.JPG,AFNE01.JPG,AFNE01.JPG,AFNE01.JPG,AFNE01.JPG,,,,,,,,,,,,,,,,,,,,,1,5,15,7,,,AFNE12.jpg,AFNE10.jpg,AFSA05.jpg,AFSA15.jpg,AFNE12.jpg,FN,3,num_8,16,num_8,1.80006979285,,,2017_Jun_28_1407,60.0072752459,MAFE4ImagesEEG,001,100809,
AFNE01.JPG,AFNE01.JPG,AFNE01.JPG,AFNE01.JPG,AFNE01.JPG,AFNE01.JPG,,,,,,,,,,,,,,,,,,,,,1,6,16,1,,,AFNE20.jpg,AFNE09.jpg,AFSA11.jpg,AFSA02.jpg,AFNE09.jpg,FN,3,num_6,32,num_8,1.23343590573,,,2017_Jun_28_1407,60.0072752459,MAFE4ImagesEEG,001,100809,
AFNE01.JPG,AFNE01.JPG,AFNE01.JPG,AFNE01.JPG,AFNE01.JPG,AFNE01.JPG,,,,,,,,,,,,,,,,,,,,,1,7,17,8,,,AFSA18.jpg,AFNE18.jpg,AFNE04.jpg,AFSA08.jpg,AFNE18.jpg,FN,3,num_6,16,num_6,1.16680137713,,,2017_Jun_28_1407,60.0072752459,MAFE4ImagesEEG,001,100809,
AFNE01.JPG,AFNE01.JPG,AFNE01.JPG,AFNE01.JPG,AFNE01.JPG,AFNE01.JPG,,,,,,,,,,,,,,,,,,,,,1,8,18,3,,,AFNE17.jpg,AFSA01.jpg,AFNE13.jpg,AFSA10.jpg,AFNE17.jpg,FN,3,num_8,16,num_8,0.983429330576,,,2017_Jun_28_1407,60.0072752459,MAFE4ImagesEEG,001,100809,
AFNE01.JPG,AFNE01.JPG,AFNE01.JPG,AFNE01.JPG,AFNE01.JPG,AFNE01.JPG,,,,,,,,,,,,,,,,,,,,,1,9,19,2,,,AFNE18.jpg,AFSA19.jpg,AFSA11.jpg,AFNE11.jpg,AFNE11.jpg,FN,3,num_4,32,num_2,0.783440748884,,,2017_Jun_28_1407,60.0072752459,MAFE4ImagesEEG,001,100809,
AFNE01.JPG,AFNE01.JPG,AFNE01.JPG,AFNE01.JPG,AFNE01.JPG,AFNE01.JPG,,,,,,,,,,,,,,,,,,,,,2,0,20,4,,,AFSA17.jpg,AFNE14.jpg,AFNE01.jpg,AFSA02.jpg,AFNE14.jpg,FN,3,num_6,16,num_6,1.30006145363,,,2017_Jun_28_1407,60.0072752459,MAFE4ImagesEEG,001,100809,
AFNE01.JPG,AFNE01.JPG,AFNE01.JPG,AFNE01.JPG,AFNE01.JPG,AFNE01.JPG,,,,,,,,,,,,,,,,,,,,,2,1,21,7,,,AFSA06.jpg,AFSA04.jpg,AFNE03.jpg,AFNE16.jpg,AFNE16.jpg,FN,3,num_4,16,num_4,0.766748519309,,,2017_Jun_28_1407,60.0072752459,MAFE4ImagesEEG,001,100809,
AFNE01.JPG,AFNE01.JPG,AFNE01.JPG,AFNE01.JPG,AFNE01.JPG,AFNE01.JPG,,,,,,,,,,,,,,,,,,,,,2,2,22,2,,,AFSA16.jpg,AFNE13.jpg,AFSA19.jpg,AFNE08.jpg,AFSA16.jpg,FS,4,num_8,16,num_8,0.866740564976,,,2017_Jun_28_1407,60.0072752459,MAFE4ImagesEEG,001,100809,
AFNE01.JPG,AFNE01.JPG,AFNE01.JPG,AFNE01.JPG,AFNE01.JPG,AFNE01.JPG,,,,,,,,,,,,,,,,,,,,,2,3,23,6,,,AFNE15.jpg,AFNE18.jpg,AFSA10.jpg,AFSA19.jpg,AFNE18.jpg,FN,3,num_6,32,num_2,1.78340546758,,,2017_Jun_28_1407,60.0072752459,MAFE4ImagesEEG,001,100809,
AFNE01.JPG,AFNE01.JPG,AFNE01.JPG,AFNE01.JPG,AFNE01.JPG,AFNE01.JPG,,,,,,,,,,,,,,,,,,,,,2,4,24,5,,,AFSA14.jpg,AFNE01.jpg,AFSA05.jpg,AFNE05.jpg,AFNE01.jpg,FN,3,num_6,16,num_6,3.63322383298,,,2017_Jun_28_1407,60.0072752459,MAFE4ImagesEEG,001,100809,
AFNE01.JPG,AFNE01.JPG,AFNE01.JPG,AFNE01.JPG,AFNE01.JPG,AFNE01.JPG,,,,,,,,,,,,,,,,,,,,,2,5,25,9,,,AFSA18.jpg,AFNE11.jpg,AFSA08.jpg,AFNE15.jpg,AFSA18.jpg,FS,4,num_8,16,num_8,0.966590202457,,,2017_Jun_28_1407,60.0072752459,MAFE4ImagesEEG,001,100809,
AFNE01.JPG,AFNE01.JPG,AFNE01.JPG,AFNE01.JPG,AFNE01.JPG,AFNE01.JPG,,,,,,,,,,,,,,,,,,,,,2,6,26,8,,,AFNE16.jpg,AFNE18.jpg,AFSA09.jpg,AFSA16.jpg,AFSA16.jpg,FS,4,num_4,16,num_4,1.01675766037,,,2017_Jun_28_1407,60.0072752459,MAFE4ImagesEEG,001,100809,
AFNE01.JPG,AFNE01.JPG,AFNE01.JPG,AFNE01.JPG,AFNE01.JPG,AFNE01.JPG,,,,,,,,,,,,,,,,,,,,,2,7,27,0,,,AFSA05.jpg,AFNE05.jpg,AFSA08.jpg,AFNE14.jpg,AFSA05.jpg,FS,4,num_8,16,num_8,1.28343690002,,,2017_Jun_28_1407,60.0072752459,MAFE4ImagesEEG,001,100809,
AFNE01.JPG,AFNE01.JPG,AFNE01.JPG,AFNE01.JPG,AFNE01.JPG,AFNE01.JPG,,,,,,,,,,,,,,,,,,,,,2,8,28,3,,,AFNE06.jpg,AFSA07.jpg,AFSA20.jpg,AFNE18.jpg,AFNE18.jpg,FN,3,num_4,16,num_4,1.13342461571,,,2017_Jun_28_1407,60.0072752459,MAFE4ImagesEEG,001,100809,
AFNE01.JPG,AFNE01.JPG,AFNE01.JPG,AFNE01.JPG,AFNE01.JPG,AFNE01.JPG,,,,,,,,,,,,,,,,,,,,,2,9,29,1,,,AFSA08.jpg,AFSA07.jpg,AFNE17.jpg,AFNE06.jpg,AFNE17.jpg,FN,3,num_2,16,num_2,2.23336662607,,,2017_Jun_28_1407,60.0072752459,MAFE4ImagesEEG,001,100809,
AFNE01.JPG,AFNE01.JPG,AFNE01.JPG,AFNE01.JPG,AFNE01.JPG,AFNE01.JPG,,,,,,,,,,,,,,,,,,,,,3,0,30,9,,,AFNE15.jpg,AFSA02.jpg,AFSA19.jpg,AFNE01.jpg,AFSA19.jpg,FS,4,num_2,16,num_2,1.80007107581,,,2017_Jun_28_1407,60.0072752459,MAFE4ImagesEEG,001,100809,
AFNE01.JPG,AFNE01.JPG,AFNE01.JPG,AFNE01.JPG,AFNE01.JPG,AFNE01.JPG,,,,,,,,,,,,,,,,,,,,,3,1,31,2,,,AFNE16.jpg,AFNE02.jpg,AFSA06.jpg,AFSA13.jpg,AFSA13.jpg,FS,4,num_4,16,num_4,0.516803846811,,,2017_Jun_28_1407,60.0072752459,MAFE4ImagesEEG,001,100809,
AFNE01.JPG,AFNE01.JPG,AFNE01.JPG,AFNE01.JPG,AFNE01.JPG,AFNE01.JPG,,,,,,,,,,,,,,,,,,,,,3,2,32,7,,,AFNE20.jpg,AFNE13.jpg,AFSA03.jpg,AFSA05.jpg,AFSA05.jpg,FS,4,num_4,16,num_4,0.650138655546,,,2017_Jun_28_1407,60.0072752459,MAFE4ImagesEEG,001,100809,
AFNE01.JPG,AFNE01.JPG,AFNE01.JPG,AFNE01.JPG,AFNE01.JPG,AFNE01.JPG,,,,,,,,,,,,,,,,,,,,,3,3,33,4,,,AFSA04.jpg,AFNE03.jpg,AFNE17.jpg,AFSA01.jpg,AFNE03.jpg,FN,3,num_6,16,num_6,1.00048142952,,,2017_Jun_28_1407,60.0072752459,MAFE4ImagesEEG,001,100809,
AFNE01.JPG,AFNE01.JPG,AFNE01.JPG,AFNE01.JPG,AFNE01.JPG,AFNE01.JPG,,,,,,,,,,,,,,,,,,,,,3,4,34,5,,,AFSA18.jpg,AFNE13.jpg,AFNE05.jpg,AFSA12.jpg,AFNE13.jpg,FN,3,num_6,32,num_4,0.733457715978,,,2017_Jun_28_1407,60.0072752459,MAFE4ImagesEEG,001,100809,
AFNE01.JPG,AFNE01.JPG,AFNE01.JPG,AFNE01.JPG,AFNE01.JPG,AFNE01.JPG,,,,,,,,,,,,,,,,,,,,,3,5,35,6,,,AFNE18.jpg,AFSA05.jpg,AFNE04.jpg,AFSA17.jpg,AFSA05.jpg,FS,4,num_6,16,num_6,0.716756826456,,,2017_Jun_28_1407,60.0072752459,MAFE4ImagesEEG,001,100809,
AFNE01.JPG,AFNE01.JPG,AFNE01.JPG,AFNE01.JPG,AFNE01.JPG,AFNE01.JPG,,,,,,,,,,,,,,,,,,,,,3,6,36,8,,,AFNE16.jpg,AFNE14.jpg,AFSA17.jpg,AFSA11.jpg,AFNE14.jpg,FN,3,num_6,32,num_8,2.8333134475,,,2017_Jun_28_1407,60.0072752459,MAFE4ImagesEEG,001,100809,
AFNE01.JPG,AFNE01.JPG,AFNE01.JPG,AFNE01.JPG,AFNE01.JPG,AFNE01.JPG,,,,,,,,,,,,,,,,,,,,,3,7,37,3,,,AFSA13.jpg,AFNE08.jpg,AFSA07.jpg,AFNE04.jpg,AFSA07.jpg,FS,4,num_2,16,num_2,1.1667651336,,,2017_Jun_28_1407,60.0072752459,MAFE4ImagesEEG,001,100809,
AFNE01.JPG,AFNE01.JPG,AFNE01.JPG,AFNE01.JPG,AFNE01.JPG,AFNE01.JPG,,,,,,,,,,,,,,,,,,,,,3,8,38,0,,,AFSA19.jpg,AFNE14.jpg,AFNE07.jpg,AFSA18.jpg,AFSA18.jpg,FS,4,num_4,32,num_8,1.26669271068,,,2017_Jun_28_1407,60.0072752459,MAFE4ImagesEEG,001,100809,
AFNE01.JPG,AFNE01.JPG,AFNE01.JPG,AFNE01.JPG,AFNE01.JPG,AFNE01.JPG,,,,,,,,,,,,,,,,,,,,,3,9,39,1,,,AFNE19.jpg,AFSA01.jpg,AFNE04.jpg,AFSA20.jpg,AFSA20.jpg,FS,4,num_4,16,num_4,2.0333209528,,,2017_Jun_28_1407,60.0072752459,MAFE4ImagesEEG,001,100809,
