IPosition2,IPosition3,IPosition1,IPosition6,IPosition4,IPosition5,TrialsF1.thisRepN,TrialsF1.thisTrialN,TrialsF1.thisN,TrialsF1.thisIndex,TrialsM1.thisRepN,TrialsM1.thisTrialN,TrialsM1.thisN,TrialsM1.thisIndex,TrialsF2.thisRepN,TrialsF2.thisTrialN,TrialsF2.thisN,TrialsF2.thisIndex,TrialsM2.thisRepN,TrialsM2.thisTrialN,TrialsM2.thisN,TrialsM2.thisIndex,TrialsF3.thisRepN,TrialsF3.thisTrialN,TrialsF3.thisN,TrialsF3.thisIndex,TrialsM3.thisRepN,TrialsM3.thisTrialN,TrialsM3.thisN,TrialsM3.thisIndex,InstrKey_resp.keys,InstrKey_resp.rt,Image0 _Position,Image1 _Position,Image2 _Position,Image3 _Position,Center_image,condition,code,correct_answer,accuracy,Key_Resp.keys,Key_Resp.rt,BreakKey_resp.keys,BreakKey_resp.rt,date,frameRate,expName,session,participant,
,,,,,,,,,,,,,,,,,,,,,,,,,,,,,,space,15.0826990451,,,,,,,,,,,,,,2017_Jun_21_1721,59.9342756148,FEMA4ImagesEEG,001,100808,
AFSA21.JPG,AFNE23.JPG,AFNE21.JPG,AFSA25.JPG,AFNE25.JPG,AFSA23.JPG,0,0,0,4,,,,,,,,,,,,,,,,,,,,,,,AFNE13.jpg,AFNE05.jpg,AFSA18.jpg,AFSA09.jpg,AFSA09.jpg,FS,4,num_4,32,num_6,3.01656232495,,,2017_Jun_21_1721,59.9342756148,FEMA4ImagesEEG,001,100808,
AMNE23.JPG,AMNE24.JPG,AMNE22.JPG,AMSA24.JPG,AMSA22.JPG,AMSA23.JPG,0,1,1,9,,,,,,,,,,,,,,,,,,,,,,,AFNE20.jpg,AFSA05.jpg,AFNE16.jpg,AFSA12.jpg,AFNE16.jpg,FN,3,num_2,16,num_2,2.5999953812,,,2017_Jun_21_1721,59.9342756148,FEMA4ImagesEEG,001,100808,
AFSA25.JPG,AFNE24.JPG,AFSA24.JPG,AFNE21.JPG,AFSA21.JPG,AFNE25.JPG,0,2,2,2,,,,,,,,,,,,,,,,,,,,,,,AFSA12.jpg,AFNE03.jpg,AFNE02.jpg,AFSA13.jpg,AFSA13.jpg,FS,4,num_4,16,num_4,0.950100375339,,,2017_Jun_21_1721,59.9342756148,FEMA4ImagesEEG,001,100808,
AMSA21.JPG,AMNE22.JPG,AMNE21.JPG,AMSA23.JPG,AMSA22.JPG,AMNE23.JPG,0,3,3,1,,,,,,,,,,,,,,,,,,,,,,,AFNE17.jpg,AFSA10.jpg,AFSA18.jpg,AFNE09.jpg,AFSA10.jpg,FS,4,num_6,32,num_2,2.9665607051,,,2017_Jun_21_1721,59.9342756148,FEMA4ImagesEEG,001,100808,
AFSA21.JPG,AFNE22.JPG,AFNE21.JPG,AFSA23.JPG,AFSA22.JPG,AFNE23.JPG,0,4,4,0,,,,,,,,,,,,,,,,,,,,,,,AFSA19.jpg,AFNE16.jpg,AFSA07.jpg,AFNE08.jpg,AFNE16.jpg,FN,3,num_6,32,num_4,1.98342099669,,,2017_Jun_21_1721,59.9342756148,FEMA4ImagesEEG,001,100808,
AMNE22.JPG,AMSA24.JPG,AMSA22.JPG,AMNE25.JPG,AMNE24.JPG,AMSA25.JPG,0,5,5,7,,,,,,,,,,,,,,,,,,,,,,,AFNE09.jpg,AFSA19.jpg,AFSA17.jpg,AFNE14.jpg,AFNE09.jpg,FN,3,num_8,16,num_8,3.09992497903,,,2017_Jun_21_1721,59.9342756148,FEMA4ImagesEEG,001,100808,
AMSA25.JPG,AMNE24.JPG,AMSA24.JPG,AMNE26.JPG,AMSA21.JPG,AMNE25.JPG,0,6,6,3,,,,,,,,,,,,,,,,,,,,,,,AFSA08.jpg,AFSA07.jpg,AFNE06.jpg,AFNE18.jpg,AFNE18.jpg,FN,3,num_4,32,num_2,3.58323002863,,,2017_Jun_21_1721,59.9342756148,FEMA4ImagesEEG,001,100808,
AMSA21.JPG,AMNE23.JPG,AMNE21.JPG,AMSA25.JPG,AMNE25.JPG,AMSA23.JPG,0,7,7,5,,,,,,,,,,,,,,,,,,,,,,,AFNE14.jpg,AFSA04.jpg,AFSA14.jpg,AFNE12.jpg,AFNE12.jpg,FN,3,num_4,16,num_4,1.10010555526,,,2017_Jun_21_1721,59.9342756148,FEMA4ImagesEEG,001,100808,
AFNE22.JPG,AFSA24.JPG,AFSA22.JPG,AFNE25.JPG,AFNE24.JPG,AFSA25.JPG,0,8,8,6,,,,,,,,,,,,,,,,,,,,,,,AFSA06.jpg,AFSA03.jpg,AFNE20.jpg,AFNE08.jpg,AFNE20.jpg,FN,3,num_2,32,num_4,3.06655977503,,,2017_Jun_21_1721,59.9342756148,FEMA4ImagesEEG,001,100808,
AFNE23.JPG,AFNE24.JPG,AFNE22.JPG,AFSA24.JPG,AFSA22.JPG,AFSA23.JPG,0,9,9,8,,,,,,,,,,,,,,,,,,,,,,,AFNE18.jpg,AFSA02.jpg,AFNE16.jpg,AFSA15.jpg,AFSA02.jpg,FS,4,num_6,16,num_6,1.46665965323,,,2017_Jun_21_1721,59.9342756148,FEMA4ImagesEEG,001,100808,
AMNE22.JPG,AMSA24.JPG,AMSA22.JPG,AMNE25.JPG,AMNE24.JPG,AMSA25.JPG,,,,,0,0,0,7,,,,,,,,,,,,,,,,,,,AMNE07.jpg,AMSA05.jpg,AMSA16.jpg,AMNE18.jpg,AMSA16.jpg,MS,2,num_2,16,num_2,1.21688248683,,,2017_Jun_21_1721,59.9342756148,FEMA4ImagesEEG,001,100808,
AFNE23.JPG,AFNE24.JPG,AFNE22.JPG,AFSA24.JPG,AFSA22.JPG,AFSA23.JPG,,,,,0,1,1,8,,,,,,,,,,,,,,,,,,,AMNE19.jpg,AMSA12.jpg,AMNE20.jpg,AMSA07.jpg,AMSA07.jpg,MS,2,num_4,16,num_4,1.2833800381,,,2017_Jun_21_1721,59.9342756148,FEMA4ImagesEEG,001,100808,
AMSA21.JPG,AMNE22.JPG,AMNE21.JPG,AMSA23.JPG,AMSA22.JPG,AMNE23.JPG,,,,,0,2,2,1,,,,,,,,,,,,,,,,,,,AMNE04.jpg,AMSA17.jpg,AMSA14.jpg,AMNE20.jpg,AMSA17.jpg,MS,2,num_6,16,num_6,2.63329964504,,,2017_Jun_21_1721,59.9342756148,FEMA4ImagesEEG,001,100808,
AMSA21.JPG,AMNE23.JPG,AMNE21.JPG,AMSA25.JPG,AMNE25.JPG,AMSA23.JPG,,,,,0,3,3,5,,,,,,,,,,,,,,,,,,,AMSA10.jpg,AMSA05.jpg,AMNE20.jpg,AMNE03.jpg,AMNE20.jpg,MN,1,num_2,16,num_2,1.81663250248,,,2017_Jun_21_1721,59.9342756148,FEMA4ImagesEEG,001,100808,
AFSA21.JPG,AFNE22.JPG,AFNE21.JPG,AFSA23.JPG,AFSA22.JPG,AFNE23.JPG,,,,,0,4,4,0,,,,,,,,,,,,,,,,,,,AMSA13.jpg,AMNE01.jpg,AMNE14.jpg,AMSA14.jpg,AMNE01.jpg,MN,1,num_6,32,num_4,2.73328780988,,,2017_Jun_21_1721,59.9342756148,FEMA4ImagesEEG,001,100808,
AFSA25.JPG,AFNE24.JPG,AFSA24.JPG,AFNE21.JPG,AFSA21.JPG,AFNE25.JPG,,,,,0,5,5,2,,,,,,,,,,,,,,,,,,,AMSA20.jpg,AMNE19.jpg,AMSA01.jpg,AMNE06.jpg,AMNE19.jpg,MN,1,num_6,32,num_4,4.93341681105,,,2017_Jun_21_1721,59.9342756148,FEMA4ImagesEEG,001,100808,
AMNE23.JPG,AMNE24.JPG,AMNE22.JPG,AMSA24.JPG,AMSA22.JPG,AMSA23.JPG,,,,,0,6,6,9,,,,,,,,,,,,,,,,,,,AMNE03.jpg,AMNE04.jpg,AMSA19.jpg,AMSA06.jpg,AMNE03.jpg,MN,1,num_8,16,num_8,2.38337044814,,,2017_Jun_21_1721,59.9342756148,FEMA4ImagesEEG,001,100808,
AFNE22.JPG,AFSA24.JPG,AFSA22.JPG,AFNE25.JPG,AFNE24.JPG,AFSA25.JPG,,,,,0,7,7,6,,,,,,,,,,,,,,,,,,,AMNE18.jpg,AMNE20.jpg,AMSA11.jpg,AMSA12.jpg,AMSA12.jpg,MS,2,num_4,32,num_6,4.21649535466,,,2017_Jun_21_1721,59.9342756148,FEMA4ImagesEEG,001,100808,
AMSA25.JPG,AMNE24.JPG,AMSA24.JPG,AMNE26.JPG,AMSA21.JPG,AMNE25.JPG,,,,,0,8,8,3,,,,,,,,,,,,,,,,,,,AMNE02.jpg,AMSA07.jpg,AMSA19.jpg,AMNE01.jpg,AMNE01.jpg,MN,1,num_4,32,num_8,4.1164597203,,,2017_Jun_21_1721,59.9342756148,FEMA4ImagesEEG,001,100808,
AFSA21.JPG,AFNE23.JPG,AFNE21.JPG,AFSA25.JPG,AFNE25.JPG,AFSA23.JPG,,,,,0,9,9,4,,,,,,,,,,,,,,,,,,,AMSA17.jpg,AMNE14.jpg,AMSA09.jpg,AMNE09.jpg,AMSA09.jpg,MS,2,num_2,16,num_2,1.76666520187,,,2017_Jun_21_1721,59.9342756148,FEMA4ImagesEEG,001,100808,
AFSA21.JPG,AFNE23.JPG,AFNE21.JPG,AFSA25.JPG,AFNE25.JPG,AFSA23.JPG,,,,,,,,,0,0,0,4,,,,,,,,,,,,,,,AFNE19.jpg,AFNE14.jpg,AFSA14.jpg,AFSA08.jpg,AFNE19.jpg,FN,3,num_8,32,num_6,1.48339357344,,,2017_Jun_21_1721,59.9342756148,FEMA4ImagesEEG,001,100808,
AMSA21.JPG,AMNE23.JPG,AMNE21.JPG,AMSA25.JPG,AMNE25.JPG,AMSA23.JPG,,,,,,,,,0,1,1,5,,,,,,,,,,,,,,,AFNE01.jpg,AFNE18.jpg,AFSA04.jpg,AFSA18.jpg,AFSA18.jpg,FS,4,num_4,16,num_4,1.31670964044,,,2017_Jun_21_1721,59.9342756148,FEMA4ImagesEEG,001,100808,
AFNE23.JPG,AFNE24.JPG,AFNE22.JPG,AFSA24.JPG,AFSA22.JPG,AFSA23.JPG,,,,,,,,,0,2,2,8,,,,,,,,,,,,,,,AFNE10.jpg,AFNE14.jpg,AFSA02.jpg,AFSA16.jpg,AFNE10.jpg,FN,3,num_8,32,num_2,1.86672649533,,,2017_Jun_21_1721,59.9342756148,FEMA4ImagesEEG,001,100808,
AFSA25.JPG,AFNE24.JPG,AFSA24.JPG,AFNE21.JPG,AFSA21.JPG,AFNE25.JPG,,,,,,,,,0,3,3,2,,,,,,,,,,,,,,,AFSA13.jpg,AFNE06.jpg,AFSA02.jpg,AFNE07.jpg,AFNE07.jpg,FN,3,num_4,16,num_4,1.15012192912,,,2017_Jun_21_1721,59.9342756148,FEMA4ImagesEEG,001,100808,
AMSA25.JPG,AMNE24.JPG,AMSA24.JPG,AMNE26.JPG,AMSA21.JPG,AMNE25.JPG,,,,,,,,,0,4,4,3,,,,,,,,,,,,,,,AFSA15.jpg,AFNE10.jpg,AFNE05.jpg,AFSA17.jpg,AFNE05.jpg,FN,3,num_2,16,num_2,3.43353885226,,,2017_Jun_21_1721,59.9342756148,FEMA4ImagesEEG,001,100808,
AMNE23.JPG,AMNE24.JPG,AMNE22.JPG,AMSA24.JPG,AMSA22.JPG,AMSA23.JPG,,,,,,,,,0,5,5,9,,,,,,,,,,,,,,,AFNE13.jpg,AFSA03.jpg,AFSA18.jpg,AFNE10.jpg,AFSA03.jpg,FS,4,num_6,16,num_6,1.66669531935,,,2017_Jun_21_1721,59.9342756148,FEMA4ImagesEEG,001,100808,
AMSA21.JPG,AMNE22.JPG,AMNE21.JPG,AMSA23.JPG,AMSA22.JPG,AMNE23.JPG,,,,,,,,,0,6,6,1,,,,,,,,,,,,,,,AFSA04.jpg,AFSA10.jpg,AFNE11.jpg,AFNE19.jpg,AFNE11.jpg,FN,3,num_2,16,num_2,1.31678116531,,,2017_Jun_21_1721,59.9342756148,FEMA4ImagesEEG,001,100808,
AMNE22.JPG,AMSA24.JPG,AMSA22.JPG,AMNE25.JPG,AMNE24.JPG,AMSA25.JPG,,,,,,,,,0,7,7,7,,,,,,,,,,,,,,,AFSA02.jpg,AFSA07.jpg,AFNE04.jpg,AFNE19.jpg,AFSA02.jpg,FS,4,num_8,16,num_8,1.28341564047,,,2017_Jun_21_1721,59.9342756148,FEMA4ImagesEEG,001,100808,
AFSA21.JPG,AFNE22.JPG,AFNE21.JPG,AFSA23.JPG,AFSA22.JPG,AFNE23.JPG,,,,,,,,,0,8,8,0,,,,,,,,,,,,,,,AFSA19.jpg,AFNE09.jpg,AFNE11.jpg,AFSA01.jpg,AFNE09.jpg,FN,3,num_6,48,None,,,,2017_Jun_21_1721,59.9342756148,FEMA4ImagesEEG,001,100808,
AFNE22.JPG,AFSA24.JPG,AFSA22.JPG,AFNE25.JPG,AFNE24.JPG,AFSA25.JPG,,,,,,,,,0,9,9,6,,,,,,,,,,,,,,,AFSA09.jpg,AFNE02.jpg,AFNE11.jpg,AFSA11.jpg,AFSA09.jpg,FS,4,num_8,32,num_6,3.63319989503,,,2017_Jun_21_1721,59.9342756148,FEMA4ImagesEEG,001,100808,
AMSA21.JPG,AMNE22.JPG,AMNE21.JPG,AMSA23.JPG,AMSA22.JPG,AMNE23.JPG,,,,,,,,,,,,,0,0,0,1,,,,,,,,,,,AMNE12.jpg,AMNE01.jpg,AMSA09.jpg,AMSA15.jpg,AMNE12.jpg,MN,1,num_8,16,num_8,1.21671506064,,,2017_Jun_21_1721,59.9342756148,FEMA4ImagesEEG,001,100808,
AMSA25.JPG,AMNE24.JPG,AMSA24.JPG,AMNE26.JPG,AMSA21.JPG,AMNE25.JPG,,,,,,,,,,,,,0,1,1,3,,,,,,,,,,,AMNE13.jpg,AMSA13.jpg,AMNE05.jpg,AMSA08.jpg,AMSA13.jpg,MS,2,num_6,32,num_8,2.66666292469,,,2017_Jun_21_1721,59.9342756148,FEMA4ImagesEEG,001,100808,
AMNE23.JPG,AMNE24.JPG,AMNE22.JPG,AMSA24.JPG,AMSA22.JPG,AMSA23.JPG,,,,,,,,,,,,,0,2,2,9,,,,,,,,,,,AMNE03.jpg,AMSA18.jpg,AMSA14.jpg,AMNE14.jpg,AMSA14.jpg,MS,2,num_2,16,num_2,1.21703900723,,,2017_Jun_21_1721,59.9342756148,FEMA4ImagesEEG,001,100808,
AFNE22.JPG,AFSA24.JPG,AFSA22.JPG,AFNE25.JPG,AFNE24.JPG,AFSA25.JPG,,,,,,,,,,,,,0,3,3,6,,,,,,,,,,,AMSA01.jpg,AMSA20.jpg,AMNE03.jpg,AMNE11.jpg,AMSA20.jpg,MS,2,num_6,16,num_6,1.58344684844,,,2017_Jun_21_1721,59.9342756148,FEMA4ImagesEEG,001,100808,
AMNE22.JPG,AMSA24.JPG,AMSA22.JPG,AMNE25.JPG,AMNE24.JPG,AMSA25.JPG,,,,,,,,,,,,,0,4,4,7,,,,,,,,,,,AMSA13.jpg,AMNE09.jpg,AMNE12.jpg,AMSA08.jpg,AMNE12.jpg,MN,1,num_2,32,num_6,3.03327283124,,,2017_Jun_21_1721,59.9342756148,FEMA4ImagesEEG,001,100808,
AFSA25.JPG,AFNE24.JPG,AFSA24.JPG,AFNE21.JPG,AFSA21.JPG,AFNE25.JPG,,,,,,,,,,,,,0,5,5,2,,,,,,,,,,,AMNE12.jpg,AMSA05.jpg,AMSA01.jpg,AMNE09.jpg,AMNE09.jpg,MN,1,num_4,16,num_4,2.64995947457,,,2017_Jun_21_1721,59.9342756148,FEMA4ImagesEEG,001,100808,
AFNE23.JPG,AFNE24.JPG,AFNE22.JPG,AFSA24.JPG,AFSA22.JPG,AFSA23.JPG,,,,,,,,,,,,,0,6,6,8,,,,,,,,,,,AMSA19.jpg,AMNE17.jpg,AMNE14.jpg,AMSA03.jpg,AMSA19.jpg,MS,2,num_8,32,num_2,1.71666871407,,,2017_Jun_21_1721,59.9342756148,FEMA4ImagesEEG,001,100808,
AFSA21.JPG,AFNE23.JPG,AFNE21.JPG,AFSA25.JPG,AFNE25.JPG,AFSA23.JPG,,,,,,,,,,,,,0,7,7,4,,,,,,,,,,,AMNE13.jpg,AMSA03.jpg,AMNE07.jpg,AMSA17.jpg,AMSA03.jpg,MS,2,num_6,16,num_6,0.850567339221,,,2017_Jun_21_1721,59.9342756148,FEMA4ImagesEEG,001,100808,
AFSA21.JPG,AFNE22.JPG,AFNE21.JPG,AFSA23.JPG,AFSA22.JPG,AFNE23.JPG,,,,,,,,,,,,,0,8,8,0,,,,,,,,,,,AMSA02.jpg,AMNE19.jpg,AMNE15.jpg,AMSA09.jpg,AMSA02.jpg,MS,2,num_8,32,num_2,2.23341883183,,,2017_Jun_21_1721,59.9342756148,FEMA4ImagesEEG,001,100808,
AMSA21.JPG,AMNE23.JPG,AMNE21.JPG,AMSA25.JPG,AMNE25.JPG,AMSA23.JPG,,,,,,,,,,,,,0,9,9,5,,,,,,,,,,,AMSA07.jpg,AMNE19.jpg,AMSA15.jpg,AMNE04.jpg,AMSA15.jpg,MS,2,num_2,16,num_2,1.46637162939,,,2017_Jun_21_1721,59.9342756148,FEMA4ImagesEEG,001,100808,
AFNE23.JPG,AFNE24.JPG,AFNE22.JPG,AFSA24.JPG,AFSA22.JPG,AFSA23.JPG,,,,,,,,,,,,,,,,,0,0,0,8,,,,,,,AFSA18.jpg,AFNE19.jpg,AFNE05.jpg,AFSA17.jpg,AFNE05.jpg,FN,3,num_2,32,num_4,1.8833212147,,,2017_Jun_21_1721,59.9342756148,FEMA4ImagesEEG,001,100808,
AMSA21.JPG,AMNE23.JPG,AMNE21.JPG,AMSA25.JPG,AMNE25.JPG,AMSA23.JPG,,,,,,,,,,,,,,,,,0,1,1,5,,,,,,,AFSA09.jpg,AFSA05.jpg,AFNE07.jpg,AFNE11.jpg,AFNE07.jpg,FN,3,num_2,32,num_8,1.39993149019,,,2017_Jun_21_1721,59.9342756148,FEMA4ImagesEEG,001,100808,
AFSA21.JPG,AFNE23.JPG,AFNE21.JPG,AFSA25.JPG,AFNE25.JPG,AFSA23.JPG,,,,,,,,,,,,,,,,,0,2,2,4,,,,,,,AFNE20.jpg,AFNE12.jpg,AFSA08.jpg,AFSA15.jpg,AFSA15.jpg,FS,4,num_4,16,num_4,1.35006971261,,,2017_Jun_21_1721,59.9342756148,FEMA4ImagesEEG,001,100808,
AFNE22.JPG,AFSA24.JPG,AFSA22.JPG,AFNE25.JPG,AFNE24.JPG,AFSA25.JPG,,,,,,,,,,,,,,,,,0,3,3,6,,,,,,,AFNE18.jpg,AFNE06.jpg,AFSA07.jpg,AFSA06.jpg,AFNE18.jpg,FN,3,num_8,16,num_8,2.63329290948,,,2017_Jun_21_1721,59.9342756148,FEMA4ImagesEEG,001,100808,
AMNE22.JPG,AMSA24.JPG,AMSA22.JPG,AMNE25.JPG,AMNE24.JPG,AMSA25.JPG,,,,,,,,,,,,,,,,,0,4,4,7,,,,,,,AFSA11.jpg,AFNE13.jpg,AFSA05.jpg,AFNE03.jpg,AFSA11.jpg,FS,4,num_8,16,num_8,1.150128023,,,2017_Jun_21_1721,59.9342756148,FEMA4ImagesEEG,001,100808,
AMNE23.JPG,AMNE24.JPG,AMNE22.JPG,AMSA24.JPG,AMSA22.JPG,AMSA23.JPG,,,,,,,,,,,,,,,,,0,5,5,9,,,,,,,AFNE20.jpg,AFNE04.jpg,AFSA15.jpg,AFSA04.jpg,AFSA04.jpg,FS,4,num_4,32,num_8,1.2834310357,,,2017_Jun_21_1721,59.9342756148,FEMA4ImagesEEG,001,100808,
AFSA21.JPG,AFNE22.JPG,AFNE21.JPG,AFSA23.JPG,AFSA22.JPG,AFNE23.JPG,,,,,,,,,,,,,,,,,0,6,6,0,,,,,,,AFNE17.jpg,AFNE10.jpg,AFSA06.jpg,AFSA14.jpg,AFSA06.jpg,FS,4,num_2,16,num_2,1.2166935713,,,2017_Jun_21_1721,59.9342756148,FEMA4ImagesEEG,001,100808,
AMSA21.JPG,AMNE22.JPG,AMNE21.JPG,AMSA23.JPG,AMSA22.JPG,AMNE23.JPG,,,,,,,,,,,,,,,,,0,7,7,1,,,,,,,AFNE09.jpg,AFNE19.jpg,AFSA19.jpg,AFSA03.jpg,AFNE19.jpg,FN,3,num_6,32,num_2,1.38339546602,,,2017_Jun_21_1721,59.9342756148,FEMA4ImagesEEG,001,100808,
AMSA25.JPG,AMNE24.JPG,AMSA24.JPG,AMNE26.JPG,AMSA21.JPG,AMNE25.JPG,,,,,,,,,,,,,,,,,0,8,8,3,,,,,,,AFNE16.jpg,AFSA01.jpg,AFSA16.jpg,AFNE03.jpg,AFSA16.jpg,FS,4,num_2,32,num_8,1.38343459601,,,2017_Jun_21_1721,59.9342756148,FEMA4ImagesEEG,001,100808,
AFSA25.JPG,AFNE24.JPG,AFSA24.JPG,AFNE21.JPG,AFSA21.JPG,AFNE25.JPG,,,,,,,,,,,,,,,,,0,9,9,2,,,,,,,AFSA11.jpg,AFNE07.jpg,AFSA18.jpg,AFNE01.jpg,AFSA11.jpg,FS,4,num_8,16,num_8,1.1163740831,,,2017_Jun_21_1721,59.9342756148,FEMA4ImagesEEG,001,100808,
AMSA21.JPG,AMNE23.JPG,AMNE21.JPG,AMSA25.JPG,AMNE25.JPG,AMSA23.JPG,,,,,,,,,,,,,,,,,,,,,0,0,0,5,,,AMSA20.jpg,AMNE15.jpg,AMNE08.jpg,AMSA10.jpg,AMSA20.jpg,MS,2,num_8,16,num_8,0.91682337434,,,2017_Jun_21_1721,59.9342756148,FEMA4ImagesEEG,001,100808,
AMNE23.JPG,AMNE24.JPG,AMNE22.JPG,AMSA24.JPG,AMSA22.JPG,AMSA23.JPG,,,,,,,,,,,,,,,,,,,,,0,1,1,9,,,AMNE08.jpg,AMSA04.jpg,AMNE11.jpg,AMSA19.jpg,AMNE11.jpg,MN,1,num_2,16,num_2,1.50003961148,,,2017_Jun_21_1721,59.9342756148,FEMA4ImagesEEG,001,100808,
AMSA25.JPG,AMNE24.JPG,AMSA24.JPG,AMNE26.JPG,AMSA21.JPG,AMNE25.JPG,,,,,,,,,,,,,,,,,,,,,0,2,2,3,,,AMNE03.jpg,AMSA10.jpg,AMNE19.jpg,AMSA13.jpg,AMSA10.jpg,MS,2,num_6,16,num_6,1.500063346,,,2017_Jun_21_1721,59.9342756148,FEMA4ImagesEEG,001,100808,
AFNE23.JPG,AFNE24.JPG,AFNE22.JPG,AFSA24.JPG,AFSA22.JPG,AFSA23.JPG,,,,,,,,,,,,,,,,,,,,,0,3,3,8,,,AMNE17.jpg,AMSA17.jpg,AMNE08.jpg,AMSA20.jpg,AMNE17.jpg,MN,1,num_8,32,num_2,1.1166986709,,,2017_Jun_21_1721,59.9342756148,FEMA4ImagesEEG,001,100808,
AFSA21.JPG,AFNE22.JPG,AFNE21.JPG,AFSA23.JPG,AFSA22.JPG,AFNE23.JPG,,,,,,,,,,,,,,,,,,,,,0,4,4,0,,,AMSA18.jpg,AMNE04.jpg,AMNE08.jpg,AMSA14.jpg,AMNE08.jpg,MN,1,num_2,16,num_2,2.11667076685,,,2017_Jun_21_1721,59.9342756148,FEMA4ImagesEEG,001,100808,
AFSA21.JPG,AFNE23.JPG,AFNE21.JPG,AFSA25.JPG,AFNE25.JPG,AFSA23.JPG,,,,,,,,,,,,,,,,,,,,,0,5,5,4,,,AMNE01.jpg,AMSA10.jpg,AMSA19.jpg,AMNE07.jpg,AMSA19.jpg,MS,2,num_2,32,num_6,1.20016428269,,,2017_Jun_21_1721,59.9342756148,FEMA4ImagesEEG,001,100808,
AFSA25.JPG,AFNE24.JPG,AFSA24.JPG,AFNE21.JPG,AFSA21.JPG,AFNE25.JPG,,,,,,,,,,,,,,,,,,,,,0,6,6,2,,,AMSA04.jpg,AMNE07.jpg,AMSA01.jpg,AMNE09.jpg,AMSA01.jpg,MS,2,num_2,16,num_2,1.15008087433,,,2017_Jun_21_1721,59.9342756148,FEMA4ImagesEEG,001,100808,
AMNE22.JPG,AMSA24.JPG,AMSA22.JPG,AMNE25.JPG,AMNE24.JPG,AMSA25.JPG,,,,,,,,,,,,,,,,,,,,,0,7,7,7,,,AMNE09.jpg,AMSA12.jpg,AMSA16.jpg,AMNE20.jpg,AMSA12.jpg,MS,2,num_6,16,num_6,2.78356366139,,,2017_Jun_21_1721,59.9342756148,FEMA4ImagesEEG,001,100808,
AFNE22.JPG,AFSA24.JPG,AFSA22.JPG,AFNE25.JPG,AFNE24.JPG,AFSA25.JPG,,,,,,,,,,,,,,,,,,,,,0,8,8,6,,,AMSA16.jpg,AMSA15.jpg,AMNE20.jpg,AMNE08.jpg,AMNE08.jpg,MN,1,num_4,16,num_4,1.70001369552,,,2017_Jun_21_1721,59.9342756148,FEMA4ImagesEEG,001,100808,
AMSA21.JPG,AMNE22.JPG,AMNE21.JPG,AMSA23.JPG,AMSA22.JPG,AMNE23.JPG,,,,,,,,,,,,,,,,,,,,,0,9,9,1,,,AMSA06.jpg,AMSA20.jpg,AMNE04.jpg,AMNE19.jpg,AMSA06.jpg,MS,2,num_8,16,num_8,2.49997706711,,,2017_Jun_21_1721,59.9342756148,FEMA4ImagesEEG,001,100808,
,,,,,,,,,,,,,,,,,,,,,,,,,,,,,,,,,,,,,,,,,,,space,12.8327900548,2017_Jun_21_1721,59.9342756148,FEMA4ImagesEEG,001,100808,
AFNE01.JPG,AFNE01.JPG,AFNE01.JPG,AFNE01.JPG,AFNE01.JPG,AFNE01.JPG,0,0,0,5,,,,,,,,,,,,,,,,,,,,,,,AFSA10.jpg,AFNE01.jpg,AFSA13.jpg,AFNE08.jpg,AFNE01.jpg,FN,3,num_6,32,num_8,2.06668710848,,,2017_Jun_21_1721,59.9342756148,FEMA4ImagesEEG,001,100808,
AFNE01.JPG,AFNE01.JPG,AFNE01.JPG,AFNE01.JPG,AFNE01.JPG,AFNE01.JPG,0,1,1,6,,,,,,,,,,,,,,,,,,,,,,,AFSA12.jpg,AFNE19.jpg,AFNE16.jpg,AFSA02.jpg,AFNE19.jpg,FN,3,num_6,16,num_6,1.81666778401,,,2017_Jun_21_1721,59.9342756148,FEMA4ImagesEEG,001,100808,
AFNE01.JPG,AFNE01.JPG,AFNE01.JPG,AFNE01.JPG,AFNE01.JPG,AFNE01.JPG,0,2,2,0,,,,,,,,,,,,,,,,,,,,,,,AFNE15.jpg,AFSA19.jpg,AFNE01.jpg,AFSA03.jpg,AFSA03.jpg,FS,4,num_4,32,num_2,1.85002464894,,,2017_Jun_21_1721,59.9342756148,FEMA4ImagesEEG,001,100808,
AFNE01.JPG,AFNE01.JPG,AFNE01.JPG,AFNE01.JPG,AFNE01.JPG,AFNE01.JPG,0,3,3,1,,,,,,,,,,,,,,,,,,,,,,,AFSA14.jpg,AFNE02.jpg,AFSA01.jpg,AFNE19.jpg,AFNE19.jpg,FN,3,num_4,16,num_4,2.11650269944,,,2017_Jun_21_1721,59.9342756148,FEMA4ImagesEEG,001,100808,
AFNE01.JPG,AFNE01.JPG,AFNE01.JPG,AFNE01.JPG,AFNE01.JPG,AFNE01.JPG,0,4,4,9,,,,,,,,,,,,,,,,,,,,,,,AFSA19.jpg,AFNE14.jpg,AFSA07.jpg,AFNE15.jpg,AFSA07.jpg,FS,4,num_2,16,num_2,2.03333345079,,,2017_Jun_21_1721,59.9342756148,FEMA4ImagesEEG,001,100808,
AFNE01.JPG,AFNE01.JPG,AFNE01.JPG,AFNE01.JPG,AFNE01.JPG,AFNE01.JPG,0,5,5,2,,,,,,,,,,,,,,,,,,,,,,,AFSA07.jpg,AFSA05.jpg,AFNE07.jpg,AFNE09.jpg,AFSA07.jpg,FS,4,num_8,32,num_4,1.68340197694,,,2017_Jun_21_1721,59.9342756148,FEMA4ImagesEEG,001,100808,
AFNE01.JPG,AFNE01.JPG,AFNE01.JPG,AFNE01.JPG,AFNE01.JPG,AFNE01.JPG,0,6,6,7,,,,,,,,,,,,,,,,,,,,,,,AFSA06.jpg,AFSA18.jpg,AFNE19.jpg,AFNE01.jpg,AFNE19.jpg,FN,3,num_2,32,num_6,2.84996210458,,,2017_Jun_21_1721,59.9342756148,FEMA4ImagesEEG,001,100808,
AFNE01.JPG,AFNE01.JPG,AFNE01.JPG,AFNE01.JPG,AFNE01.JPG,AFNE01.JPG,0,7,7,8,,,,,,,,,,,,,,,,,,,,,,,AFNE03.jpg,AFSA14.jpg,AFNE11.jpg,AFSA08.jpg,AFSA08.jpg,FS,4,num_4,16,num_4,1.0167239774,,,2017_Jun_21_1721,59.9342756148,FEMA4ImagesEEG,001,100808,
AFNE01.JPG,AFNE01.JPG,AFNE01.JPG,AFNE01.JPG,AFNE01.JPG,AFNE01.JPG,0,8,8,4,,,,,,,,,,,,,,,,,,,,,,,AFNE15.jpg,AFSA13.jpg,AFSA02.jpg,AFNE01.jpg,AFNE01.jpg,FN,3,num_4,16,num_4,1.35004822328,,,2017_Jun_21_1721,59.9342756148,FEMA4ImagesEEG,001,100808,
AFNE01.JPG,AFNE01.JPG,AFNE01.JPG,AFNE01.JPG,AFNE01.JPG,AFNE01.JPG,0,9,9,3,,,,,,,,,,,,,,,,,,,,,,,AFNE06.jpg,AFSA04.jpg,AFNE11.jpg,AFSA06.jpg,AFNE06.jpg,FN,3,num_8,16,num_8,1.56668245792,,,2017_Jun_21_1721,59.9342756148,FEMA4ImagesEEG,001,100808,
AFNE01.JPG,AFNE01.JPG,AFNE01.JPG,AFNE01.JPG,AFNE01.JPG,AFNE01.JPG,1,0,10,2,,,,,,,,,,,,,,,,,,,,,,,AFSA17.jpg,AFNE01.jpg,AFSA12.jpg,AFNE09.jpg,AFNE09.jpg,FN,3,num_4,16,num_4,0.816659124102,,,2017_Jun_21_1721,59.9342756148,FEMA4ImagesEEG,001,100808,
AFNE01.JPG,AFNE01.JPG,AFNE01.JPG,AFNE01.JPG,AFNE01.JPG,AFNE01.JPG,1,1,11,4,,,,,,,,,,,,,,,,,,,,,,,AFSA19.jpg,AFNE01.jpg,AFSA12.jpg,AFNE13.jpg,AFNE01.jpg,FN,3,num_6,32,num_4,1.85005543986,,,2017_Jun_21_1721,59.9342756148,FEMA4ImagesEEG,001,100808,
AFNE01.JPG,AFNE01.JPG,AFNE01.JPG,AFNE01.JPG,AFNE01.JPG,AFNE01.JPG,1,2,12,7,,,,,,,,,,,,,,,,,,,,,,,AFNE03.jpg,AFNE09.jpg,AFSA14.jpg,AFSA02.jpg,AFSA02.jpg,FS,4,num_4,32,num_6,1.9500901117,,,2017_Jun_21_1721,59.9342756148,FEMA4ImagesEEG,001,100808,
AFNE01.JPG,AFNE01.JPG,AFNE01.JPG,AFNE01.JPG,AFNE01.JPG,AFNE01.JPG,1,3,13,6,,,,,,,,,,,,,,,,,,,,,,,AFNE20.jpg,AFNE08.jpg,AFSA01.jpg,AFSA03.jpg,AFSA01.jpg,FS,4,num_2,16,num_2,1.23330529011,,,2017_Jun_21_1721,59.9342756148,FEMA4ImagesEEG,001,100808,
AFNE01.JPG,AFNE01.JPG,AFNE01.JPG,AFNE01.JPG,AFNE01.JPG,AFNE01.JPG,1,4,14,1,,,,,,,,,,,,,,,,,,,,,,,AFSA10.jpg,AFNE07.jpg,AFNE19.jpg,AFSA16.jpg,AFSA16.jpg,FS,4,num_4,16,num_4,1.30005558417,,,2017_Jun_21_1721,59.9342756148,FEMA4ImagesEEG,001,100808,
AFNE01.JPG,AFNE01.JPG,AFNE01.JPG,AFNE01.JPG,AFNE01.JPG,AFNE01.JPG,1,5,15,5,,,,,,,,,,,,,,,,,,,,,,,AFNE06.jpg,AFNE04.jpg,AFSA20.jpg,AFSA11.jpg,AFSA20.jpg,FS,4,num_2,16,num_2,1.30010144971,,,2017_Jun_21_1721,59.9342756148,FEMA4ImagesEEG,001,100808,
AFNE01.JPG,AFNE01.JPG,AFNE01.JPG,AFNE01.JPG,AFNE01.JPG,AFNE01.JPG,1,6,16,8,,,,,,,,,,,,,,,,,,,,,,,AFSA07.jpg,AFNE06.jpg,AFNE03.jpg,AFSA14.jpg,AFSA14.jpg,FS,4,num_4,16,num_4,3.89993004687,,,2017_Jun_21_1721,59.9342756148,FEMA4ImagesEEG,001,100808,
AFNE01.JPG,AFNE01.JPG,AFNE01.JPG,AFNE01.JPG,AFNE01.JPG,AFNE01.JPG,1,7,17,9,,,,,,,,,,,,,,,,,,,,,,,AFNE02.jpg,AFNE01.jpg,AFSA15.jpg,AFSA05.jpg,AFSA15.jpg,FS,4,num_2,32,num_6,1.01673392043,,,2017_Jun_21_1721,59.9342756148,FEMA4ImagesEEG,001,100808,
AFNE01.JPG,AFNE01.JPG,AFNE01.JPG,AFNE01.JPG,AFNE01.JPG,AFNE01.JPG,1,8,18,3,,,,,,,,,,,,,,,,,,,,,,,AFSA16.jpg,AFNE11.jpg,AFNE15.jpg,AFSA15.jpg,AFSA16.jpg,FS,4,num_8,16,num_8,1.10010491381,,,2017_Jun_21_1721,59.9342756148,FEMA4ImagesEEG,001,100808,
AFNE01.JPG,AFNE01.JPG,AFNE01.JPG,AFNE01.JPG,AFNE01.JPG,AFNE01.JPG,1,9,19,0,,,,,,,,,,,,,,,,,,,,,,,AFSA20.jpg,AFNE14.jpg,AFNE13.jpg,AFSA13.jpg,AFNE14.jpg,FN,3,num_6,32,num_8,1.16677726828,,,2017_Jun_21_1721,59.9342756148,FEMA4ImagesEEG,001,100808,
AFNE01.JPG,AFNE01.JPG,AFNE01.JPG,AFNE01.JPG,AFNE01.JPG,AFNE01.JPG,2,0,20,0,,,,,,,,,,,,,,,,,,,,,,,AFNE16.jpg,AFSA17.jpg,AFNE03.jpg,AFSA08.jpg,AFSA17.jpg,FS,4,num_6,16,num_6,1.66668858379,,,2017_Jun_21_1721,59.9342756148,FEMA4ImagesEEG,001,100808,
AFNE01.JPG,AFNE01.JPG,AFNE01.JPG,AFNE01.JPG,AFNE01.JPG,AFNE01.JPG,2,1,21,2,,,,,,,,,,,,,,,,,,,,,,,AFSA16.jpg,AFSA04.jpg,AFNE09.jpg,AFNE17.jpg,AFSA04.jpg,FS,4,num_6,16,num_6,1.26671796362,,,2017_Jun_21_1721,59.9342756148,FEMA4ImagesEEG,001,100808,
AFNE01.JPG,AFNE01.JPG,AFNE01.JPG,AFNE01.JPG,AFNE01.JPG,AFNE01.JPG,2,2,22,1,,,,,,,,,,,,,,,,,,,,,,,AFNE14.jpg,AFNE06.jpg,AFSA09.jpg,AFSA07.jpg,AFNE06.jpg,FN,3,num_6,16,num_6,1.68341256119,,,2017_Jun_21_1721,59.9342756148,FEMA4ImagesEEG,001,100808,
AFNE01.JPG,AFNE01.JPG,AFNE01.JPG,AFNE01.JPG,AFNE01.JPG,AFNE01.JPG,2,3,23,9,,,,,,,,,,,,,,,,,,,,,,,AFNE08.jpg,AFSA13.jpg,AFSA17.jpg,AFNE11.jpg,AFNE08.jpg,FN,3,num_8,32,num_4,1.65000501974,,,2017_Jun_21_1721,59.9342756148,FEMA4ImagesEEG,001,100808,
AFNE01.JPG,AFNE01.JPG,AFNE01.JPG,AFNE01.JPG,AFNE01.JPG,AFNE01.JPG,2,4,24,4,,,,,,,,,,,,,,,,,,,,,,,AFNE16.jpg,AFSA07.jpg,AFNE17.jpg,AFSA16.jpg,AFNE16.jpg,FN,3,num_8,32,num_2,2.53333938471,,,2017_Jun_21_1721,59.9342756148,FEMA4ImagesEEG,001,100808,
AFNE01.JPG,AFNE01.JPG,AFNE01.JPG,AFNE01.JPG,AFNE01.JPG,AFNE01.JPG,2,5,25,5,,,,,,,,,,,,,,,,,,,,,,,AFSA06.jpg,AFSA19.jpg,AFNE04.jpg,AFNE06.jpg,AFSA19.jpg,FS,4,num_6,32,num_4,1.7000255629,,,2017_Jun_21_1721,59.9342756148,FEMA4ImagesEEG,001,100808,
AFNE01.JPG,AFNE01.JPG,AFNE01.JPG,AFNE01.JPG,AFNE01.JPG,AFNE01.JPG,2,6,26,8,,,,,,,,,,,,,,,,,,,,,,,AFSA09.jpg,AFSA16.jpg,AFNE12.jpg,AFNE01.jpg,AFSA16.jpg,FS,4,num_6,32,num_4,1.28339190548,,,2017_Jun_21_1721,59.9342756148,FEMA4ImagesEEG,001,100808,
AFNE01.JPG,AFNE01.JPG,AFNE01.JPG,AFNE01.JPG,AFNE01.JPG,AFNE01.JPG,2,7,27,7,,,,,,,,,,,,,,,,,,,,,,,AFSA09.jpg,AFSA10.jpg,AFNE11.jpg,AFNE16.jpg,AFSA09.jpg,FS,4,num_8,16,num_8,2.16697323974,,,2017_Jun_21_1721,59.9342756148,FEMA4ImagesEEG,001,100808,
AFNE01.JPG,AFNE01.JPG,AFNE01.JPG,AFNE01.JPG,AFNE01.JPG,AFNE01.JPG,2,8,28,6,,,,,,,,,,,,,,,,,,,,,,,AFSA19.jpg,AFSA12.jpg,AFNE04.jpg,AFNE10.jpg,AFSA12.jpg,FS,4,num_6,16,num_6,0.866758568911,,,2017_Jun_21_1721,59.9342756148,FEMA4ImagesEEG,001,100808,
AFNE01.JPG,AFNE01.JPG,AFNE01.JPG,AFNE01.JPG,AFNE01.JPG,AFNE01.JPG,2,9,29,3,,,,,,,,,,,,,,,,,,,,,,,AFSA03.jpg,AFNE11.jpg,AFNE03.jpg,AFSA10.jpg,AFNE11.jpg,FN,3,num_6,16,num_6,0.933438942069,,,2017_Jun_21_1721,59.9342756148,FEMA4ImagesEEG,001,100808,
AFNE01.JPG,AFNE01.JPG,AFNE01.JPG,AFNE01.JPG,AFNE01.JPG,AFNE01.JPG,3,0,30,3,,,,,,,,,,,,,,,,,,,,,,,AFNE07.jpg,AFSA05.jpg,AFNE02.jpg,AFSA13.jpg,AFSA05.jpg,FS,4,num_6,32,num_4,2.88330068742,,,2017_Jun_21_1721,59.9342756148,FEMA4ImagesEEG,001,100808,
AFNE01.JPG,AFNE01.JPG,AFNE01.JPG,AFNE01.JPG,AFNE01.JPG,AFNE01.JPG,3,1,31,6,,,,,,,,,,,,,,,,,,,,,,,AFSA19.jpg,AFNE06.jpg,AFNE02.jpg,AFSA10.jpg,AFNE02.jpg,FN,3,num_2,16,num_2,1.28345316672,,,2017_Jun_21_1721,59.9342756148,FEMA4ImagesEEG,001,100808,
AFNE01.JPG,AFNE01.JPG,AFNE01.JPG,AFNE01.JPG,AFNE01.JPG,AFNE01.JPG,3,2,32,7,,,,,,,,,,,,,,,,,,,,,,,AFSA01.jpg,AFNE16.jpg,AFSA03.jpg,AFNE17.jpg,AFSA03.jpg,FS,4,num_2,32,num_4,2.5666628927,,,2017_Jun_21_1721,59.9342756148,FEMA4ImagesEEG,001,100808,
AFNE01.JPG,AFNE01.JPG,AFNE01.JPG,AFNE01.JPG,AFNE01.JPG,AFNE01.JPG,3,3,33,2,,,,,,,,,,,,,,,,,,,,,,,AFSA16.jpg,AFSA11.jpg,AFNE19.jpg,AFNE16.jpg,AFSA16.jpg,FS,4,num_8,16,num_8,1.68337439327,,,2017_Jun_21_1721,59.9342756148,FEMA4ImagesEEG,001,100808,
AFNE01.JPG,AFNE01.JPG,AFNE01.JPG,AFNE01.JPG,AFNE01.JPG,AFNE01.JPG,3,4,34,8,,,,,,,,,,,,,,,,,,,,,,,AFNE07.jpg,AFSA05.jpg,AFSA02.jpg,AFNE17.jpg,AFSA02.jpg,FS,4,num_2,16,num_2,1.18345858715,,,2017_Jun_21_1721,59.9342756148,FEMA4ImagesEEG,001,100808,
AFNE01.JPG,AFNE01.JPG,AFNE01.JPG,AFNE01.JPG,AFNE01.JPG,AFNE01.JPG,3,5,35,1,,,,,,,,,,,,,,,,,,,,,,,AFNE08.jpg,AFNE16.jpg,AFSA20.jpg,AFSA14.jpg,AFNE16.jpg,FN,3,num_6,16,num_6,1.31674588379,,,2017_Jun_21_1721,59.9342756148,FEMA4ImagesEEG,001,100808,
AFNE01.JPG,AFNE01.JPG,AFNE01.JPG,AFNE01.JPG,AFNE01.JPG,AFNE01.JPG,3,6,36,5,,,,,,,,,,,,,,,,,,,,,,,AFNE16.jpg,AFSA18.jpg,AFSA02.jpg,AFNE20.jpg,AFSA02.jpg,FS,4,num_2,16,num_2,1.03342614463,,,2017_Jun_21_1721,59.9342756148,FEMA4ImagesEEG,001,100808,
AFNE01.JPG,AFNE01.JPG,AFNE01.JPG,AFNE01.JPG,AFNE01.JPG,AFNE01.JPG,3,7,37,0,,,,,,,,,,,,,,,,,,,,,,,AFSA03.jpg,AFNE18.jpg,AFNE17.jpg,AFSA11.jpg,AFSA03.jpg,FS,4,num_8,16,num_8,1.56696983986,,,2017_Jun_21_1721,59.9342756148,FEMA4ImagesEEG,001,100808,
AFNE01.JPG,AFNE01.JPG,AFNE01.JPG,AFNE01.JPG,AFNE01.JPG,AFNE01.JPG,3,8,38,9,,,,,,,,,,,,,,,,,,,,,,,AFSA20.jpg,AFNE03.jpg,AFSA12.jpg,AFNE09.jpg,AFNE03.jpg,FN,3,num_6,16,num_6,2.24987948244,,,2017_Jun_21_1721,59.9342756148,FEMA4ImagesEEG,001,100808,
AFNE01.JPG,AFNE01.JPG,AFNE01.JPG,AFNE01.JPG,AFNE01.JPG,AFNE01.JPG,3,9,39,4,,,,,,,,,,,,,,,,,,,,,,,AFNE20.jpg,AFNE02.jpg,AFSA20.jpg,AFSA05.jpg,AFNE02.jpg,FN,3,num_6,32,num_4,1.35044144932,,,2017_Jun_21_1721,59.9342756148,FEMA4ImagesEEG,001,100808,
AFNE01.JPG,AFNE01.JPG,AFNE01.JPG,AFNE01.JPG,AFNE01.JPG,AFNE01.JPG,4,0,40,0,,,,,,,,,,,,,,,,,,,,,,,AFNE01.jpg,AFSA16.jpg,AFSA20.jpg,AFNE12.jpg,AFSA16.jpg,FS,4,num_6,16,num_6,0.750091972062,,,2017_Jun_21_1721,59.9342756148,FEMA4ImagesEEG,001,100808,
AFNE01.JPG,AFNE01.JPG,AFNE01.JPG,AFNE01.JPG,AFNE01.JPG,AFNE01.JPG,4,1,41,6,,,,,,,,,,,,,,,,,,,,,,,AFNE02.jpg,AFNE14.jpg,AFSA03.jpg,AFSA01.jpg,AFSA01.jpg,FS,4,num_4,32,num_2,1.89999034582,,,2017_Jun_21_1721,59.9342756148,FEMA4ImagesEEG,001,100808,
AFNE01.JPG,AFNE01.JPG,AFNE01.JPG,AFNE01.JPG,AFNE01.JPG,AFNE01.JPG,4,2,42,3,,,,,,,,,,,,,,,,,,,,,,,AFNE02.jpg,AFSA07.jpg,AFSA10.jpg,AFNE03.jpg,AFSA07.jpg,FS,4,num_6,16,num_6,0.966798052192,,,2017_Jun_21_1721,59.9342756148,FEMA4ImagesEEG,001,100808,
AFNE01.JPG,AFNE01.JPG,AFNE01.JPG,AFNE01.JPG,AFNE01.JPG,AFNE01.JPG,4,3,43,5,,,,,,,,,,,,,,,,,,,,,,,AFSA18.jpg,AFNE07.jpg,AFNE05.jpg,AFSA07.jpg,AFNE05.jpg,FN,3,num_2,16,num_2,1.68338401546,,,2017_Jun_21_1721,59.9342756148,FEMA4ImagesEEG,001,100808,
AFNE01.JPG,AFNE01.JPG,AFNE01.JPG,AFNE01.JPG,AFNE01.JPG,AFNE01.JPG,4,4,44,7,,,,,,,,,,,,,,,,,,,,,,,AFSA17.jpg,AFNE14.jpg,AFNE19.jpg,AFSA01.jpg,AFNE14.jpg,FN,3,num_6,16,num_6,0.966735828668,,,2017_Jun_21_1721,59.9342756148,FEMA4ImagesEEG,001,100808,
AFNE01.JPG,AFNE01.JPG,AFNE01.JPG,AFNE01.JPG,AFNE01.JPG,AFNE01.JPG,4,5,45,4,,,,,,,,,,,,,,,,,,,,,,,AFNE15.jpg,AFSA03.jpg,AFNE08.jpg,AFSA08.jpg,AFSA08.jpg,FS,4,num_4,16,num_4,1.41670325771,,,2017_Jun_21_1721,59.9342756148,FEMA4ImagesEEG,001,100808,
AFNE01.JPG,AFNE01.JPG,AFNE01.JPG,AFNE01.JPG,AFNE01.JPG,AFNE01.JPG,4,6,46,1,,,,,,,,,,,,,,,,,,,,,,,AFNE13.jpg,AFSA06.jpg,AFSA11.jpg,AFNE08.jpg,AFSA06.jpg,FS,4,num_6,16,num_6,0.650104769506,,,2017_Jun_21_1721,59.9342756148,FEMA4ImagesEEG,001,100808,
AFNE01.JPG,AFNE01.JPG,AFNE01.JPG,AFNE01.JPG,AFNE01.JPG,AFNE01.JPG,4,7,47,8,,,,,,,,,,,,,,,,,,,,,,,AFSA14.jpg,AFNE16.jpg,AFNE06.jpg,AFSA08.jpg,AFSA14.jpg,FS,4,num_8,32,num_2,1.43375021918,,,2017_Jun_21_1721,59.9342756148,FEMA4ImagesEEG,001,100808,
AFNE01.JPG,AFNE01.JPG,AFNE01.JPG,AFNE01.JPG,AFNE01.JPG,AFNE01.JPG,4,8,48,2,,,,,,,,,,,,,,,,,,,,,,,AFNE17.jpg,AFNE11.jpg,AFSA15.jpg,AFSA19.jpg,AFNE11.jpg,FN,3,num_6,32,num_8,1.81669312227,,,2017_Jun_21_1721,59.9342756148,FEMA4ImagesEEG,001,100808,
AFNE01.JPG,AFNE01.JPG,AFNE01.JPG,AFNE01.JPG,AFNE01.JPG,AFNE01.JPG,4,9,49,9,,,,,,,,,,,,,,,,,,,,,,,AFSA11.jpg,AFNE08.jpg,AFNE11.jpg,AFSA16.jpg,AFNE08.jpg,FN,3,num_6,16,num_6,1.71655677608,,,2017_Jun_21_1721,59.9342756148,FEMA4ImagesEEG,001,100808,
AFNE01.JPG,AFNE01.JPG,AFNE01.JPG,AFNE01.JPG,AFNE01.JPG,AFNE01.JPG,5,0,50,8,,,,,,,,,,,,,,,,,,,,,,,AFSA20.jpg,AFNE04.jpg,AFNE06.jpg,AFSA08.jpg,AFSA08.jpg,FS,4,num_4,32,num_8,2.1666826501,,,2017_Jun_21_1721,59.9342756148,FEMA4ImagesEEG,001,100808,
AFNE01.JPG,AFNE01.JPG,AFNE01.JPG,AFNE01.JPG,AFNE01.JPG,AFNE01.JPG,5,1,51,0,,,,,,,,,,,,,,,,,,,,,,,AFNE05.jpg,AFNE07.jpg,AFSA14.jpg,AFSA20.jpg,AFNE05.jpg,FN,3,num_8,32,num_6,1.23341209604,,,2017_Jun_21_1721,59.9342756148,FEMA4ImagesEEG,001,100808,
AFNE01.JPG,AFNE01.JPG,AFNE01.JPG,AFNE01.JPG,AFNE01.JPG,AFNE01.JPG,5,2,52,7,,,,,,,,,,,,,,,,,,,,,,,AFSA13.jpg,AFNE18.jpg,AFNE13.jpg,AFSA03.jpg,AFSA13.jpg,FS,4,num_8,32,num_2,1.38339257916,,,2017_Jun_21_1721,59.9342756148,FEMA4ImagesEEG,001,100808,
AFNE01.JPG,AFNE01.JPG,AFNE01.JPG,AFNE01.JPG,AFNE01.JPG,AFNE01.JPG,5,3,53,1,,,,,,,,,,,,,,,,,,,,,,,AFNE05.jpg,AFSA03.jpg,AFSA12.jpg,AFNE15.jpg,AFSA12.jpg,FS,4,num_2,16,num_2,0.950093318941,,,2017_Jun_21_1721,59.9342756148,FEMA4ImagesEEG,001,100808,
AFNE01.JPG,AFNE01.JPG,AFNE01.JPG,AFNE01.JPG,AFNE01.JPG,AFNE01.JPG,5,4,54,3,,,,,,,,,,,,,,,,,,,,,,,AFSA18.jpg,AFNE09.jpg,AFNE16.jpg,AFSA10.jpg,AFSA10.jpg,FS,4,num_4,16,num_4,2.16668521613,,,2017_Jun_21_1721,59.9342756148,FEMA4ImagesEEG,001,100808,
AFNE01.JPG,AFNE01.JPG,AFNE01.JPG,AFNE01.JPG,AFNE01.JPG,AFNE01.JPG,5,5,55,9,,,,,,,,,,,,,,,,,,,,,,,AFSA16.jpg,AFSA01.jpg,AFNE03.jpg,AFNE13.jpg,AFNE13.jpg,FN,3,num_4,32,num_6,0.950085300719,,,2017_Jun_21_1721,59.9342756148,FEMA4ImagesEEG,001,100808,
AFNE01.JPG,AFNE01.JPG,AFNE01.JPG,AFNE01.JPG,AFNE01.JPG,AFNE01.JPG,5,6,56,5,,,,,,,,,,,,,,,,,,,,,,,AFSA04.jpg,AFNE13.jpg,AFSA01.jpg,AFNE09.jpg,AFSA01.jpg,FS,4,num_2,16,num_2,1.71667480818,,,2017_Jun_21_1721,59.9342756148,FEMA4ImagesEEG,001,100808,
AFNE01.JPG,AFNE01.JPG,AFNE01.JPG,AFNE01.JPG,AFNE01.JPG,AFNE01.JPG,5,7,57,4,,,,,,,,,,,,,,,,,,,,,,,AFSA11.jpg,AFNE10.jpg,AFNE14.jpg,AFSA17.jpg,AFNE10.jpg,FN,3,num_6,16,num_6,1.23375368328,,,2017_Jun_21_1721,59.9342756148,FEMA4ImagesEEG,001,100808,
AFNE01.JPG,AFNE01.JPG,AFNE01.JPG,AFNE01.JPG,AFNE01.JPG,AFNE01.JPG,5,8,58,6,,,,,,,,,,,,,,,,,,,,,,,AFNE03.jpg,AFNE09.jpg,AFSA15.jpg,AFSA06.jpg,AFSA15.jpg,FS,4,num_2,16,num_2,1.50011145696,,,2017_Jun_21_1721,59.9342756148,FEMA4ImagesEEG,001,100808,
AFNE01.JPG,AFNE01.JPG,AFNE01.JPG,AFNE01.JPG,AFNE01.JPG,AFNE01.JPG,5,9,59,2,,,,,,,,,,,,,,,,,,,,,,,AFNE17.jpg,AFNE05.jpg,AFSA16.jpg,AFSA05.jpg,AFSA05.jpg,FS,4,num_4,32,num_6,1.66670269636,,,2017_Jun_21_1721,59.9342756148,FEMA4ImagesEEG,001,100808,
,,,,,,,,,,,,,,,,,,,,,,,,,,,,,,,,,,,,,,,,,,,space,12.4491527518,2017_Jun_21_1721,59.9342756148,FEMA4ImagesEEG,001,100808,
AFNE01.JPG,AFNE01.JPG,AFNE01.JPG,AFNE01.JPG,AFNE01.JPG,AFNE01.JPG,,,,,0,0,0,7,,,,,,,,,,,,,,,,,,,AMSA07.jpg,AMSA17.jpg,AMNE14.jpg,AMNE01.jpg,AMNE14.jpg,MN,1,num_2,32,num_8,2.09999008919,,,2017_Jun_21_1721,59.9342756148,FEMA4ImagesEEG,001,100808,
AFNE01.JPG,AFNE01.JPG,AFNE01.JPG,AFNE01.JPG,AFNE01.JPG,AFNE01.JPG,,,,,0,1,1,2,,,,,,,,,,,,,,,,,,,AMSA15.jpg,AMNE02.jpg,AMNE04.jpg,AMSA11.jpg,AMSA11.jpg,MS,2,num_4,32,num_2,1.70003678882,,,2017_Jun_21_1721,59.9342756148,FEMA4ImagesEEG,001,100808,
AFNE01.JPG,AFNE01.JPG,AFNE01.JPG,AFNE01.JPG,AFNE01.JPG,AFNE01.JPG,,,,,0,2,2,4,,,,,,,,,,,,,,,,,,,AMNE11.jpg,AMSA19.jpg,AMNE14.jpg,AMSA13.jpg,AMNE14.jpg,MN,1,num_2,32,num_6,1.69972919999,,,2017_Jun_21_1721,59.9342756148,FEMA4ImagesEEG,001,100808,
AFNE01.JPG,AFNE01.JPG,AFNE01.JPG,AFNE01.JPG,AFNE01.JPG,AFNE01.JPG,,,,,0,3,3,1,,,,,,,,,,,,,,,,,,,AMNE13.jpg,AMNE01.jpg,AMSA06.jpg,AMSA14.jpg,AMSA06.jpg,MS,2,num_2,16,num_2,1.43337303004,,,2017_Jun_21_1721,59.9342756148,FEMA4ImagesEEG,001,100808,
AFNE01.JPG,AFNE01.JPG,AFNE01.JPG,AFNE01.JPG,AFNE01.JPG,AFNE01.JPG,,,,,0,4,4,3,,,,,,,,,,,,,,,,,,,AMNE06.jpg,AMSA18.jpg,AMSA10.jpg,AMNE14.jpg,AMNE14.jpg,MN,1,num_4,16,num_4,1.36657879478,,,2017_Jun_21_1721,59.9342756148,FEMA4ImagesEEG,001,100808,
AFNE01.JPG,AFNE01.JPG,AFNE01.JPG,AFNE01.JPG,AFNE01.JPG,AFNE01.JPG,,,,,0,5,5,9,,,,,,,,,,,,,,,,,,,AMSA14.jpg,AMNE06.jpg,AMSA15.jpg,AMNE13.jpg,AMNE13.jpg,MN,1,num_4,32,num_6,2.40003765468,,,2017_Jun_21_1721,59.9342756148,FEMA4ImagesEEG,001,100808,
AFNE01.JPG,AFNE01.JPG,AFNE01.JPG,AFNE01.JPG,AFNE01.JPG,AFNE01.JPG,,,,,0,6,6,6,,,,,,,,,,,,,,,,,,,AMNE11.jpg,AMSA13.jpg,AMNE10.jpg,AMSA07.jpg,AMSA13.jpg,MS,2,num_6,32,num_4,2.81661133398,,,2017_Jun_21_1721,59.9342756148,FEMA4ImagesEEG,001,100808,
AFNE01.JPG,AFNE01.JPG,AFNE01.JPG,AFNE01.JPG,AFNE01.JPG,AFNE01.JPG,,,,,0,7,7,5,,,,,,,,,,,,,,,,,,,AMSA18.jpg,AMNE13.jpg,AMNE18.jpg,AMSA08.jpg,AMNE13.jpg,MN,1,num_6,16,num_6,1.31670899875,,,2017_Jun_21_1721,59.9342756148,FEMA4ImagesEEG,001,100808,
AFNE01.JPG,AFNE01.JPG,AFNE01.JPG,AFNE01.JPG,AFNE01.JPG,AFNE01.JPG,,,,,0,8,8,8,,,,,,,,,,,,,,,,,,,AMNE17.jpg,AMSA20.jpg,AMSA16.jpg,AMNE03.jpg,AMNE03.jpg,MN,1,num_4,32,num_6,1.16668104636,,,2017_Jun_21_1721,59.9342756148,FEMA4ImagesEEG,001,100808,
AFNE01.JPG,AFNE01.JPG,AFNE01.JPG,AFNE01.JPG,AFNE01.JPG,AFNE01.JPG,,,,,0,9,9,0,,,,,,,,,,,,,,,,,,,AMNE04.jpg,AMSA07.jpg,AMNE19.jpg,AMSA01.jpg,AMNE19.jpg,MN,1,num_2,16,num_2,1.80002944381,,,2017_Jun_21_1721,59.9342756148,FEMA4ImagesEEG,001,100808,
AFNE01.JPG,AFNE01.JPG,AFNE01.JPG,AFNE01.JPG,AFNE01.JPG,AFNE01.JPG,,,,,1,0,10,4,,,,,,,,,,,,,,,,,,,AMSA10.jpg,AMSA13.jpg,AMNE18.jpg,AMNE13.jpg,AMNE18.jpg,MN,1,num_2,16,num_2,1.73333752435,,,2017_Jun_21_1721,59.9342756148,FEMA4ImagesEEG,001,100808,
AFNE01.JPG,AFNE01.JPG,AFNE01.JPG,AFNE01.JPG,AFNE01.JPG,AFNE01.JPG,,,,,1,1,11,7,,,,,,,,,,,,,,,,,,,AMSA17.jpg,AMNE12.jpg,AMNE17.jpg,AMSA09.jpg,AMSA09.jpg,MS,2,num_4,16,num_4,1.35007644817,,,2017_Jun_21_1721,59.9342756148,FEMA4ImagesEEG,001,100808,
AFNE01.JPG,AFNE01.JPG,AFNE01.JPG,AFNE01.JPG,AFNE01.JPG,AFNE01.JPG,,,,,1,2,12,3,,,,,,,,,,,,,,,,,,,AMSA11.jpg,AMNE19.jpg,AMNE16.jpg,AMSA07.jpg,AMNE19.jpg,MN,1,num_6,16,num_6,1.30009182775,,,2017_Jun_21_1721,59.9342756148,FEMA4ImagesEEG,001,100808,
AFNE01.JPG,AFNE01.JPG,AFNE01.JPG,AFNE01.JPG,AFNE01.JPG,AFNE01.JPG,,,,,1,3,13,8,,,,,,,,,,,,,,,,,,,AMNE03.jpg,AMNE18.jpg,AMSA14.jpg,AMSA19.jpg,AMNE18.jpg,MN,1,num_6,16,num_6,3.48322358192,,,2017_Jun_21_1721,59.9342756148,FEMA4ImagesEEG,001,100808,
AFNE01.JPG,AFNE01.JPG,AFNE01.JPG,AFNE01.JPG,AFNE01.JPG,AFNE01.JPG,,,,,1,4,14,6,,,,,,,,,,,,,,,,,,,AMSA17.jpg,AMNE01.jpg,AMSA10.jpg,AMNE15.jpg,AMSA10.jpg,MS,2,num_2,32,num_4,0.833439551294,,,2017_Jun_21_1721,59.9342756148,FEMA4ImagesEEG,001,100808,
AFNE01.JPG,AFNE01.JPG,AFNE01.JPG,AFNE01.JPG,AFNE01.JPG,AFNE01.JPG,,,,,1,5,15,1,,,,,,,,,,,,,,,,,,,AMNE12.jpg,AMSA05.jpg,AMNE13.jpg,AMSA01.jpg,AMNE13.jpg,MN,1,num_2,16,num_2,1.40015889425,,,2017_Jun_21_1721,59.9342756148,FEMA4ImagesEEG,001,100808,
AFNE01.JPG,AFNE01.JPG,AFNE01.JPG,AFNE01.JPG,AFNE01.JPG,AFNE01.JPG,,,,,1,6,16,2,,,,,,,,,,,,,,,,,,,AMNE17.jpg,AMSA01.jpg,AMSA07.jpg,AMNE04.jpg,AMSA07.jpg,MS,2,num_2,16,num_2,2.51661444479,,,2017_Jun_21_1721,59.9342756148,FEMA4ImagesEEG,001,100808,
AFNE01.JPG,AFNE01.JPG,AFNE01.JPG,AFNE01.JPG,AFNE01.JPG,AFNE01.JPG,,,,,1,7,17,9,,,,,,,,,,,,,,,,,,,AMSA09.jpg,AMNE01.jpg,AMSA14.jpg,AMNE10.jpg,AMNE10.jpg,MN,1,num_4,16,num_4,1.48350134166,,,2017_Jun_21_1721,59.9342756148,FEMA4ImagesEEG,001,100808,
AFNE01.JPG,AFNE01.JPG,AFNE01.JPG,AFNE01.JPG,AFNE01.JPG,AFNE01.JPG,,,,,1,8,18,5,,,,,,,,,,,,,,,,,,,AMNE06.jpg,AMSA05.jpg,AMSA12.jpg,AMNE04.jpg,AMSA05.jpg,MS,2,num_6,16,num_6,0.983455957146,,,2017_Jun_21_1721,59.9342756148,FEMA4ImagesEEG,001,100808,
AFNE01.JPG,AFNE01.JPG,AFNE01.JPG,AFNE01.JPG,AFNE01.JPG,AFNE01.JPG,,,,,1,9,19,0,,,,,,,,,,,,,,,,,,,AMSA05.jpg,AMSA18.jpg,AMNE07.jpg,AMNE15.jpg,AMSA18.jpg,MS,2,num_6,16,num_6,1.05008853995,,,2017_Jun_21_1721,59.9342756148,FEMA4ImagesEEG,001,100808,
AFNE01.JPG,AFNE01.JPG,AFNE01.JPG,AFNE01.JPG,AFNE01.JPG,AFNE01.JPG,,,,,2,0,20,0,,,,,,,,,,,,,,,,,,,AMSA11.jpg,AMSA03.jpg,AMNE11.jpg,AMNE13.jpg,AMSA03.jpg,MS,2,num_6,16,num_6,1.23341209628,,,2017_Jun_21_1721,59.9342756148,FEMA4ImagesEEG,001,100808,
AFNE01.JPG,AFNE01.JPG,AFNE01.JPG,AFNE01.JPG,AFNE01.JPG,AFNE01.JPG,,,,,2,1,21,7,,,,,,,,,,,,,,,,,,,AMSA07.jpg,AMNE19.jpg,AMNE16.jpg,AMSA19.jpg,AMSA07.jpg,MS,2,num_8,32,num_4,1.95002115285,,,2017_Jun_21_1721,59.9342756148,FEMA4ImagesEEG,001,100808,
AFNE01.JPG,AFNE01.JPG,AFNE01.JPG,AFNE01.JPG,AFNE01.JPG,AFNE01.JPG,,,,,2,2,22,1,,,,,,,,,,,,,,,,,,,AMNE15.jpg,AMNE11.jpg,AMSA18.jpg,AMSA02.jpg,AMSA18.jpg,MS,2,num_2,16,num_2,0.900126018329,,,2017_Jun_21_1721,59.9342756148,FEMA4ImagesEEG,001,100808,
AFNE01.JPG,AFNE01.JPG,AFNE01.JPG,AFNE01.JPG,AFNE01.JPG,AFNE01.JPG,,,,,2,3,23,8,,,,,,,,,,,,,,,,,,,AMNE05.jpg,AMNE07.jpg,AMSA06.jpg,AMSA11.jpg,AMNE05.jpg,MN,1,num_8,16,num_8,1.55004475918,,,2017_Jun_21_1721,59.9342756148,FEMA4ImagesEEG,001,100808,
AFNE01.JPG,AFNE01.JPG,AFNE01.JPG,AFNE01.JPG,AFNE01.JPG,AFNE01.JPG,,,,,2,4,24,5,,,,,,,,,,,,,,,,,,,AMNE10.jpg,AMNE15.jpg,AMSA04.jpg,AMSA19.jpg,AMNE10.jpg,MN,1,num_8,32,num_6,0.950134694343,,,2017_Jun_21_1721,59.9342756148,FEMA4ImagesEEG,001,100808,
AFNE01.JPG,AFNE01.JPG,AFNE01.JPG,AFNE01.JPG,AFNE01.JPG,AFNE01.JPG,,,,,2,5,25,2,,,,,,,,,,,,,,,,,,,AMNE08.jpg,AMSA04.jpg,AMSA13.jpg,AMNE01.jpg,AMSA13.jpg,MS,2,num_2,16,num_2,1.56669111759,,,2017_Jun_21_1721,59.9342756148,FEMA4ImagesEEG,001,100808,
AFNE01.JPG,AFNE01.JPG,AFNE01.JPG,AFNE01.JPG,AFNE01.JPG,AFNE01.JPG,,,,,2,6,26,9,,,,,,,,,,,,,,,,,,,AMNE06.jpg,AMSA18.jpg,AMNE04.jpg,AMSA01.jpg,AMSA18.jpg,MS,2,num_6,16,num_6,0.633418960031,,,2017_Jun_21_1721,59.9342756148,FEMA4ImagesEEG,001,100808,
AFNE01.JPG,AFNE01.JPG,AFNE01.JPG,AFNE01.JPG,AFNE01.JPG,AFNE01.JPG,,,,,2,7,27,6,,,,,,,,,,,,,,,,,,,AMSA10.jpg,AMNE07.jpg,AMSA03.jpg,AMNE08.jpg,AMSA03.jpg,MS,2,num_2,16,num_2,0.800147796515,,,2017_Jun_21_1721,59.9342756148,FEMA4ImagesEEG,001,100808,
AFNE01.JPG,AFNE01.JPG,AFNE01.JPG,AFNE01.JPG,AFNE01.JPG,AFNE01.JPG,,,,,2,8,28,4,,,,,,,,,,,,,,,,,,,AMSA08.jpg,AMNE17.jpg,AMNE16.jpg,AMSA09.jpg,AMNE17.jpg,MN,1,num_6,16,num_6,2.31667628349,,,2017_Jun_21_1721,59.9342756148,FEMA4ImagesEEG,001,100808,
AFNE01.JPG,AFNE01.JPG,AFNE01.JPG,AFNE01.JPG,AFNE01.JPG,AFNE01.JPG,,,,,2,9,29,3,,,,,,,,,,,,,,,,,,,AMSA19.jpg,AMSA04.jpg,AMNE18.jpg,AMNE12.jpg,AMSA19.jpg,MS,2,num_8,16,num_8,1.86671302398,,,2017_Jun_21_1721,59.9342756148,FEMA4ImagesEEG,001,100808,
AFNE01.JPG,AFNE01.JPG,AFNE01.JPG,AFNE01.JPG,AFNE01.JPG,AFNE01.JPG,,,,,3,0,30,9,,,,,,,,,,,,,,,,,,,AMNE10.jpg,AMNE03.jpg,AMSA19.jpg,AMSA20.jpg,AMSA20.jpg,MS,2,num_4,16,num_4,3.14997503045,,,2017_Jun_21_1721,59.9342756148,FEMA4ImagesEEG,001,100808,
AFNE01.JPG,AFNE01.JPG,AFNE01.JPG,AFNE01.JPG,AFNE01.JPG,AFNE01.JPG,,,,,3,1,31,0,,,,,,,,,,,,,,,,,,,AMSA13.jpg,AMNE18.jpg,AMSA19.jpg,AMNE05.jpg,AMNE05.jpg,MN,1,num_4,16,num_4,1.34969508951,,,2017_Jun_21_1721,59.9342756148,FEMA4ImagesEEG,001,100808,
AFNE01.JPG,AFNE01.JPG,AFNE01.JPG,AFNE01.JPG,AFNE01.JPG,AFNE01.JPG,,,,,3,2,32,8,,,,,,,,,,,,,,,,,,,AMSA05.jpg,AMSA14.jpg,AMNE02.jpg,AMNE10.jpg,AMNE02.jpg,MN,1,num_2,16,num_2,1.50005885563,,,2017_Jun_21_1721,59.9342756148,FEMA4ImagesEEG,001,100808,
AFNE01.JPG,AFNE01.JPG,AFNE01.JPG,AFNE01.JPG,AFNE01.JPG,AFNE01.JPG,,,,,3,3,33,1,,,,,,,,,,,,,,,,,,,AMSA13.jpg,AMNE12.jpg,AMNE19.jpg,AMSA02.jpg,AMSA13.jpg,MS,2,num_8,32,num_6,1.21676253015,,,2017_Jun_21_1721,59.9342756148,FEMA4ImagesEEG,001,100808,
AFNE01.JPG,AFNE01.JPG,AFNE01.JPG,AFNE01.JPG,AFNE01.JPG,AFNE01.JPG,,,,,3,4,34,6,,,,,,,,,,,,,,,,,,,AMSA10.jpg,AMNE19.jpg,AMSA14.jpg,AMNE09.jpg,AMSA10.jpg,MS,2,num_8,16,num_8,1.8166517471,,,2017_Jun_21_1721,59.9342756148,FEMA4ImagesEEG,001,100808,
AFNE01.JPG,AFNE01.JPG,AFNE01.JPG,AFNE01.JPG,AFNE01.JPG,AFNE01.JPG,,,,,3,5,35,7,,,,,,,,,,,,,,,,,,,AMNE01.jpg,AMSA17.jpg,AMSA13.jpg,AMNE10.jpg,AMSA17.jpg,MS,2,num_6,16,num_6,2.2666204588,,,2017_Jun_21_1721,59.9342756148,FEMA4ImagesEEG,001,100808,
AFNE01.JPG,AFNE01.JPG,AFNE01.JPG,AFNE01.JPG,AFNE01.JPG,AFNE01.JPG,,,,,3,6,36,3,,,,,,,,,,,,,,,,,,,AMSA06.jpg,AMNE17.jpg,AMNE13.jpg,AMSA14.jpg,AMSA14.jpg,MS,2,num_4,32,num_2,1.38338616444,,,2017_Jun_21_1721,59.9342756148,FEMA4ImagesEEG,001,100808,
AFNE01.JPG,AFNE01.JPG,AFNE01.JPG,AFNE01.JPG,AFNE01.JPG,AFNE01.JPG,,,,,3,7,37,2,,,,,,,,,,,,,,,,,,,AMSA15.jpg,AMNE06.jpg,AMNE18.jpg,AMSA03.jpg,AMNE06.jpg,MN,1,num_6,16,num_6,1.26668428606,,,2017_Jun_21_1721,59.9342756148,FEMA4ImagesEEG,001,100808,
AFNE01.JPG,AFNE01.JPG,AFNE01.JPG,AFNE01.JPG,AFNE01.JPG,AFNE01.JPG,,,,,3,8,38,4,,,,,,,,,,,,,,,,,,,AMSA02.jpg,AMSA18.jpg,AMNE18.jpg,AMNE14.jpg,AMNE14.jpg,MN,1,num_4,32,num_2,1.71667865687,,,2017_Jun_21_1721,59.9342756148,FEMA4ImagesEEG,001,100808,
AFNE01.JPG,AFNE01.JPG,AFNE01.JPG,AFNE01.JPG,AFNE01.JPG,AFNE01.JPG,,,,,3,9,39,5,,,,,,,,,,,,,,,,,,,AMNE09.jpg,AMSA14.jpg,AMNE12.jpg,AMSA17.jpg,AMSA14.jpg,MS,2,num_6,16,num_6,0.633530897787,,,2017_Jun_21_1721,59.9342756148,FEMA4ImagesEEG,001,100808,
AFNE01.JPG,AFNE01.JPG,AFNE01.JPG,AFNE01.JPG,AFNE01.JPG,AFNE01.JPG,,,,,4,0,40,3,,,,,,,,,,,,,,,,,,,AMSA09.jpg,AMNE06.jpg,AMSA04.jpg,AMNE10.jpg,AMNE06.jpg,MN,1,num_6,16,num_6,1.25005203998,,,2017_Jun_21_1721,59.9342756148,FEMA4ImagesEEG,001,100808,
AFNE01.JPG,AFNE01.JPG,AFNE01.JPG,AFNE01.JPG,AFNE01.JPG,AFNE01.JPG,,,,,4,1,41,4,,,,,,,,,,,,,,,,,,,AMNE01.jpg,AMSA13.jpg,AMNE14.jpg,AMSA16.jpg,AMSA16.jpg,MS,2,num_4,32,num_6,1.43330310914,,,2017_Jun_21_1721,59.9342756148,FEMA4ImagesEEG,001,100808,
AFNE01.JPG,AFNE01.JPG,AFNE01.JPG,AFNE01.JPG,AFNE01.JPG,AFNE01.JPG,,,,,4,2,42,5,,,,,,,,,,,,,,,,,,,AMNE18.jpg,AMNE16.jpg,AMSA01.jpg,AMSA13.jpg,AMSA13.jpg,MS,2,num_4,16,num_4,2.33332937746,,,2017_Jun_21_1721,59.9342756148,FEMA4ImagesEEG,001,100808,
AFNE01.JPG,AFNE01.JPG,AFNE01.JPG,AFNE01.JPG,AFNE01.JPG,AFNE01.JPG,,,,,4,3,43,7,,,,,,,,,,,,,,,,,,,AMNE05.jpg,AMNE10.jpg,AMSA09.jpg,AMSA17.jpg,AMNE05.jpg,MN,1,num_8,32,num_2,1.40010180254,,,2017_Jun_21_1721,59.9342756148,FEMA4ImagesEEG,001,100808,
AFNE01.JPG,AFNE01.JPG,AFNE01.JPG,AFNE01.JPG,AFNE01.JPG,AFNE01.JPG,,,,,4,4,44,6,,,,,,,,,,,,,,,,,,,AMSA17.jpg,AMNE10.jpg,AMSA18.jpg,AMNE03.jpg,AMNE03.jpg,MN,1,num_4,32,num_6,1.71675787959,,,2017_Jun_21_1721,59.9342756148,FEMA4ImagesEEG,001,100808,
AFNE01.JPG,AFNE01.JPG,AFNE01.JPG,AFNE01.JPG,AFNE01.JPG,AFNE01.JPG,,,,,4,5,45,0,,,,,,,,,,,,,,,,,,,AMNE16.jpg,AMNE02.jpg,AMSA06.jpg,AMSA10.jpg,AMSA10.jpg,MS,2,num_4,32,num_2,1.15008311952,,,2017_Jun_21_1721,59.9342756148,FEMA4ImagesEEG,001,100808,
AFNE01.JPG,AFNE01.JPG,AFNE01.JPG,AFNE01.JPG,AFNE01.JPG,AFNE01.JPG,,,,,4,6,46,8,,,,,,,,,,,,,,,,,,,AMNE20.jpg,AMNE10.jpg,AMSA10.jpg,AMSA08.jpg,AMNE10.jpg,MN,1,num_6,16,num_6,0.666765561327,,,2017_Jun_21_1721,59.9342756148,FEMA4ImagesEEG,001,100808,
AFNE01.JPG,AFNE01.JPG,AFNE01.JPG,AFNE01.JPG,AFNE01.JPG,AFNE01.JPG,,,,,4,7,47,9,,,,,,,,,,,,,,,,,,,AMSA10.jpg,AMNE20.jpg,AMNE16.jpg,AMSA13.jpg,AMSA10.jpg,MS,2,num_8,32,num_4,2.11683755112,,,2017_Jun_21_1721,59.9342756148,FEMA4ImagesEEG,001,100808,
AFNE01.JPG,AFNE01.JPG,AFNE01.JPG,AFNE01.JPG,AFNE01.JPG,AFNE01.JPG,,,,,4,8,48,2,,,,,,,,,,,,,,,,,,,AMNE06.jpg,AMSA15.jpg,AMNE05.jpg,AMSA04.jpg,AMSA15.jpg,MS,2,num_6,32,num_4,1.10021139914,,,2017_Jun_21_1721,59.9342756148,FEMA4ImagesEEG,001,100808,
AFNE01.JPG,AFNE01.JPG,AFNE01.JPG,AFNE01.JPG,AFNE01.JPG,AFNE01.JPG,,,,,4,9,49,1,,,,,,,,,,,,,,,,,,,AMSA20.jpg,AMNE18.jpg,AMNE04.jpg,AMSA02.jpg,AMSA20.jpg,MS,2,num_8,16,num_8,1.45006749965,,,2017_Jun_21_1721,59.9342756148,FEMA4ImagesEEG,001,100808,
AFNE01.JPG,AFNE01.JPG,AFNE01.JPG,AFNE01.JPG,AFNE01.JPG,AFNE01.JPG,,,,,5,0,50,2,,,,,,,,,,,,,,,,,,,AMSA05.jpg,AMNE12.jpg,AMSA12.jpg,AMNE07.jpg,AMSA12.jpg,MS,2,num_2,16,num_2,0.916767245159,,,2017_Jun_21_1721,59.9342756148,FEMA4ImagesEEG,001,100808,
AFNE01.JPG,AFNE01.JPG,AFNE01.JPG,AFNE01.JPG,AFNE01.JPG,AFNE01.JPG,,,,,5,1,51,7,,,,,,,,,,,,,,,,,,,AMNE14.jpg,AMSA09.jpg,AMSA18.jpg,AMNE20.jpg,AMSA09.jpg,MS,2,num_6,16,num_6,2.04966612672,,,2017_Jun_21_1721,59.9342756148,FEMA4ImagesEEG,001,100808,
AFNE01.JPG,AFNE01.JPG,AFNE01.JPG,AFNE01.JPG,AFNE01.JPG,AFNE01.JPG,,,,,5,2,52,3,,,,,,,,,,,,,,,,,,,AMSA05.jpg,AMNE06.jpg,AMNE20.jpg,AMSA03.jpg,AMSA05.jpg,MS,2,num_8,32,num_2,1.55006945599,,,2017_Jun_21_1721,59.9342756148,FEMA4ImagesEEG,001,100808,
AFNE01.JPG,AFNE01.JPG,AFNE01.JPG,AFNE01.JPG,AFNE01.JPG,AFNE01.JPG,,,,,5,3,53,9,,,,,,,,,,,,,,,,,,,AMSA17.jpg,AMNE15.jpg,AMNE18.jpg,AMSA14.jpg,AMSA14.jpg,MS,2,num_4,32,num_6,1.18342523044,,,2017_Jun_21_1721,59.9342756148,FEMA4ImagesEEG,001,100808,
AFNE01.JPG,AFNE01.JPG,AFNE01.JPG,AFNE01.JPG,AFNE01.JPG,AFNE01.JPG,,,,,5,4,54,4,,,,,,,,,,,,,,,,,,,AMSA11.jpg,AMNE09.jpg,AMNE03.jpg,AMSA13.jpg,AMNE03.jpg,MN,1,num_2,32,num_8,1.88337702327,,,2017_Jun_21_1721,59.9342756148,FEMA4ImagesEEG,001,100808,
AFNE01.JPG,AFNE01.JPG,AFNE01.JPG,AFNE01.JPG,AFNE01.JPG,AFNE01.JPG,,,,,5,5,55,6,,,,,,,,,,,,,,,,,,,AMSA18.jpg,AMNE07.jpg,AMNE08.jpg,AMSA07.jpg,AMSA07.jpg,MS,2,num_4,32,num_6,1.61666322942,,,2017_Jun_21_1721,59.9342756148,FEMA4ImagesEEG,001,100808,
AFNE01.JPG,AFNE01.JPG,AFNE01.JPG,AFNE01.JPG,AFNE01.JPG,AFNE01.JPG,,,,,5,6,56,5,,,,,,,,,,,,,,,,,,,AMNE10.jpg,AMSA06.jpg,AMNE11.jpg,AMSA19.jpg,AMNE10.jpg,MN,1,num_8,16,num_8,2.41665001516,,,2017_Jun_21_1721,59.9342756148,FEMA4ImagesEEG,001,100808,
AFNE01.JPG,AFNE01.JPG,AFNE01.JPG,AFNE01.JPG,AFNE01.JPG,AFNE01.JPG,,,,,5,7,57,1,,,,,,,,,,,,,,,,,,,AMSA02.jpg,AMNE07.jpg,AMNE08.jpg,AMSA14.jpg,AMNE08.jpg,MN,1,num_2,16,num_2,1.4166885037,,,2017_Jun_21_1721,59.9342756148,FEMA4ImagesEEG,001,100808,
AFNE01.JPG,AFNE01.JPG,AFNE01.JPG,AFNE01.JPG,AFNE01.JPG,AFNE01.JPG,,,,,5,8,58,0,,,,,,,,,,,,,,,,,,,AMSA20.jpg,AMSA17.jpg,AMNE04.jpg,AMNE14.jpg,AMNE04.jpg,MN,1,num_2,16,num_2,1.55007170117,,,2017_Jun_21_1721,59.9342756148,FEMA4ImagesEEG,001,100808,
AFNE01.JPG,AFNE01.JPG,AFNE01.JPG,AFNE01.JPG,AFNE01.JPG,AFNE01.JPG,,,,,5,9,59,8,,,,,,,,,,,,,,,,,,,AMSA17.jpg,AMNE20.jpg,AMNE10.jpg,AMSA15.jpg,AMNE20.jpg,MN,1,num_6,16,num_6,0.750114423689,,,2017_Jun_21_1721,59.9342756148,FEMA4ImagesEEG,001,100808,
,,,,,,,,,,,,,,,,,,,,,,,,,,,,,,,,,,,,,,,,,,,space,8.19954301114,2017_Jun_21_1721,59.9342756148,FEMA4ImagesEEG,001,100808,
AFNE01.JPG,AFNE01.JPG,AFNE01.JPG,AFNE01.JPG,AFNE01.JPG,AFNE01.JPG,,,,,,,,,0,0,0,4,,,,,,,,,,,,,,,AFSA02.jpg,AFSA07.jpg,AFNE19.jpg,AFNE18.jpg,AFSA02.jpg,FS,4,num_8,16,num_8,1.59992064931,,,2017_Jun_21_1721,59.9342756148,FEMA4ImagesEEG,001,100808,
AFNE01.JPG,AFNE01.JPG,AFNE01.JPG,AFNE01.JPG,AFNE01.JPG,AFNE01.JPG,,,,,,,,,0,1,1,9,,,,,,,,,,,,,,,AFNE15.jpg,AFSA12.jpg,AFSA19.jpg,AFNE13.jpg,AFSA19.jpg,FS,4,num_2,32,num_4,1.8832172954,,,2017_Jun_21_1721,59.9342756148,FEMA4ImagesEEG,001,100808,
AFNE01.JPG,AFNE01.JPG,AFNE01.JPG,AFNE01.JPG,AFNE01.JPG,AFNE01.JPG,,,,,,,,,0,2,2,2,,,,,,,,,,,,,,,AFSA07.jpg,AFSA04.jpg,AFNE03.jpg,AFNE20.jpg,AFNE03.jpg,FN,3,num_2,16,num_2,1.35031187069,,,2017_Jun_21_1721,59.9342756148,FEMA4ImagesEEG,001,100808,
AFNE01.JPG,AFNE01.JPG,AFNE01.JPG,AFNE01.JPG,AFNE01.JPG,AFNE01.JPG,,,,,,,,,0,3,3,0,,,,,,,,,,,,,,,AFSA10.jpg,AFNE10.jpg,AFNE11.jpg,AFSA04.jpg,AFSA10.jpg,FS,4,num_8,16,num_8,1.76663922216,,,2017_Jun_21_1721,59.9342756148,FEMA4ImagesEEG,001,100808,
AFNE01.JPG,AFNE01.JPG,AFNE01.JPG,AFNE01.JPG,AFNE01.JPG,AFNE01.JPG,,,,,,,,,0,4,4,8,,,,,,,,,,,,,,,AFSA02.jpg,AFSA19.jpg,AFNE06.jpg,AFNE20.jpg,AFSA19.jpg,FS,4,num_6,16,num_6,1.19997889549,,,2017_Jun_21_1721,59.9342756148,FEMA4ImagesEEG,001,100808,
AFNE01.JPG,AFNE01.JPG,AFNE01.JPG,AFNE01.JPG,AFNE01.JPG,AFNE01.JPG,,,,,,,,,0,5,5,3,,,,,,,,,,,,,,,AFNE11.jpg,AFSA08.jpg,AFSA20.jpg,AFNE15.jpg,AFNE11.jpg,FN,3,num_8,16,num_8,1.2334842626,,,2017_Jun_21_1721,59.9342756148,FEMA4ImagesEEG,001,100808,
AFNE01.JPG,AFNE01.JPG,AFNE01.JPG,AFNE01.JPG,AFNE01.JPG,AFNE01.JPG,,,,,,,,,0,6,6,7,,,,,,,,,,,,,,,AFNE08.jpg,AFNE14.jpg,AFSA11.jpg,AFSA06.jpg,AFNE14.jpg,FN,3,num_6,32,num_8,1.08345085755,,,2017_Jun_21_1721,59.9342756148,FEMA4ImagesEEG,001,100808,
AFNE01.JPG,AFNE01.JPG,AFNE01.JPG,AFNE01.JPG,AFNE01.JPG,AFNE01.JPG,,,,,,,,,0,7,7,1,,,,,,,,,,,,,,,AFSA10.jpg,AFNE02.jpg,AFSA07.jpg,AFNE13.jpg,AFNE13.jpg,FN,3,num_4,16,num_4,1.63334935973,,,2017_Jun_21_1721,59.9342756148,FEMA4ImagesEEG,001,100808,
AFNE01.JPG,AFNE01.JPG,AFNE01.JPG,AFNE01.JPG,AFNE01.JPG,AFNE01.JPG,,,,,,,,,0,8,8,6,,,,,,,,,,,,,,,AFNE17.jpg,AFSA18.jpg,AFSA13.jpg,AFNE12.jpg,AFSA18.jpg,FS,4,num_6,16,num_6,1.10008246219,,,2017_Jun_21_1721,59.9342756148,FEMA4ImagesEEG,001,100808,
AFNE01.JPG,AFNE01.JPG,AFNE01.JPG,AFNE01.JPG,AFNE01.JPG,AFNE01.JPG,,,,,,,,,0,9,9,5,,,,,,,,,,,,,,,AFSA16.jpg,AFNE06.jpg,AFSA04.jpg,AFNE20.jpg,AFNE20.jpg,FN,3,num_4,32,num_2,1.45007006545,,,2017_Jun_21_1721,59.9342756148,FEMA4ImagesEEG,001,100808,
AFNE01.JPG,AFNE01.JPG,AFNE01.JPG,AFNE01.JPG,AFNE01.JPG,AFNE01.JPG,,,,,,,,,1,0,10,7,,,,,,,,,,,,,,,AFNE08.jpg,AFSA03.jpg,AFSA18.jpg,AFNE04.jpg,AFSA03.jpg,FS,4,num_6,32,num_8,1.71673639002,,,2017_Jun_21_1721,59.9342756148,FEMA4ImagesEEG,001,100808,
AFNE01.JPG,AFNE01.JPG,AFNE01.JPG,AFNE01.JPG,AFNE01.JPG,AFNE01.JPG,,,,,,,,,1,1,11,0,,,,,,,,,,,,,,,AFSA03.jpg,AFNE10.jpg,AFSA15.jpg,AFNE20.jpg,AFNE20.jpg,FN,3,num_4,16,num_4,1.56669272156,,,2017_Jun_21_1721,59.9342756148,FEMA4ImagesEEG,001,100808,
AFNE01.JPG,AFNE01.JPG,AFNE01.JPG,AFNE01.JPG,AFNE01.JPG,AFNE01.JPG,,,,,,,,,1,2,12,3,,,,,,,,,,,,,,,AFNE12.jpg,AFSA05.jpg,AFNE14.jpg,AFSA20.jpg,AFSA20.jpg,FS,4,num_4,16,num_4,2.33335696114,,,2017_Jun_21_1721,59.9342756148,FEMA4ImagesEEG,001,100808,
AFNE01.JPG,AFNE01.JPG,AFNE01.JPG,AFNE01.JPG,AFNE01.JPG,AFNE01.JPG,,,,,,,,,1,3,13,2,,,,,,,,,,,,,,,AFSA05.jpg,AFNE15.jpg,AFSA18.jpg,AFNE03.jpg,AFSA18.jpg,FS,4,num_2,16,num_2,2.58336089016,,,2017_Jun_21_1721,59.9342756148,FEMA4ImagesEEG,001,100808,
AFNE01.JPG,AFNE01.JPG,AFNE01.JPG,AFNE01.JPG,AFNE01.JPG,AFNE01.JPG,,,,,,,,,1,4,14,5,,,,,,,,,,,,,,,AFNE05.jpg,AFSA09.jpg,AFSA03.jpg,AFNE01.jpg,AFSA03.jpg,FS,4,num_2,32,num_6,0.783467118861,,,2017_Jun_21_1721,59.9342756148,FEMA4ImagesEEG,001,100808,
AFNE01.JPG,AFNE01.JPG,AFNE01.JPG,AFNE01.JPG,AFNE01.JPG,AFNE01.JPG,,,,,,,,,1,5,15,4,,,,,,,,,,,,,,,AFSA02.jpg,AFNE04.jpg,AFSA20.jpg,AFNE10.jpg,AFNE04.jpg,FN,3,num_6,16,num_6,1.7667178032,,,2017_Jun_21_1721,59.9342756148,FEMA4ImagesEEG,001,100808,
AFNE01.JPG,AFNE01.JPG,AFNE01.JPG,AFNE01.JPG,AFNE01.JPG,AFNE01.JPG,,,,,,,,,1,6,16,9,,,,,,,,,,,,,,,AFNE14.jpg,AFNE19.jpg,AFSA07.jpg,AFSA10.jpg,AFNE19.jpg,FN,3,num_6,16,num_6,0.816777797416,,,2017_Jun_21_1721,59.9342756148,FEMA4ImagesEEG,001,100808,
AFNE01.JPG,AFNE01.JPG,AFNE01.JPG,AFNE01.JPG,AFNE01.JPG,AFNE01.JPG,,,,,,,,,1,7,17,1,,,,,,,,,,,,,,,AFSA20.jpg,AFSA05.jpg,AFNE07.jpg,AFNE05.jpg,AFSA05.jpg,FS,4,num_6,16,num_6,0.850130171981,,,2017_Jun_21_1721,59.9342756148,FEMA4ImagesEEG,001,100808,
AFNE01.JPG,AFNE01.JPG,AFNE01.JPG,AFNE01.JPG,AFNE01.JPG,AFNE01.JPG,,,,,,,,,1,8,18,6,,,,,,,,,,,,,,,AFSA10.jpg,AFNE04.jpg,AFNE15.jpg,AFSA20.jpg,AFNE15.jpg,FN,3,num_2,32,num_8,1.55009703967,,,2017_Jun_21_1721,59.9342756148,FEMA4ImagesEEG,001,100808,
AFNE01.JPG,AFNE01.JPG,AFNE01.JPG,AFNE01.JPG,AFNE01.JPG,AFNE01.JPG,,,,,,,,,1,9,19,8,,,,,,,,,,,,,,,AFSA09.jpg,AFSA01.jpg,AFNE09.jpg,AFNE15.jpg,AFSA09.jpg,FS,4,num_8,16,num_8,1.26675099973,,,2017_Jun_21_1721,59.9342756148,FEMA4ImagesEEG,001,100808,
AFNE01.JPG,AFNE01.JPG,AFNE01.JPG,AFNE01.JPG,AFNE01.JPG,AFNE01.JPG,,,,,,,,,2,0,20,2,,,,,,,,,,,,,,,AFSA11.jpg,AFNE16.jpg,AFSA10.jpg,AFNE04.jpg,AFSA11.jpg,FS,4,num_8,16,num_8,3.0665738876,,,2017_Jun_21_1721,59.9342756148,FEMA4ImagesEEG,001,100808,
AFNE01.JPG,AFNE01.JPG,AFNE01.JPG,AFNE01.JPG,AFNE01.JPG,AFNE01.JPG,,,,,,,,,2,1,21,3,,,,,,,,,,,,,,,AFNE18.jpg,AFSA03.jpg,AFSA05.jpg,AFNE12.jpg,AFNE12.jpg,FN,3,num_4,16,num_4,0.983312907629,,,2017_Jun_21_1721,59.9342756148,FEMA4ImagesEEG,001,100808,
AFNE01.JPG,AFNE01.JPG,AFNE01.JPG,AFNE01.JPG,AFNE01.JPG,AFNE01.JPG,,,,,,,,,2,2,22,1,,,,,,,,,,,,,,,AFSA03.jpg,AFNE04.jpg,AFNE20.jpg,AFSA11.jpg,AFNE20.jpg,FN,3,num_2,16,num_2,1.81700359774,,,2017_Jun_21_1721,59.9342756148,FEMA4ImagesEEG,001,100808,
AFNE01.JPG,AFNE01.JPG,AFNE01.JPG,AFNE01.JPG,AFNE01.JPG,AFNE01.JPG,,,,,,,,,2,3,23,6,,,,,,,,,,,,,,,AFSA09.jpg,AFSA11.jpg,AFNE06.jpg,AFNE04.jpg,AFNE06.jpg,FN,3,num_2,32,num_4,2.28335822816,,,2017_Jun_21_1721,59.9342756148,FEMA4ImagesEEG,001,100808,
AFNE01.JPG,AFNE01.JPG,AFNE01.JPG,AFNE01.JPG,AFNE01.JPG,AFNE01.JPG,,,,,,,,,2,4,24,0,,,,,,,,,,,,,,,AFSA06.jpg,AFNE08.jpg,AFSA05.jpg,AFNE12.jpg,AFSA06.jpg,FS,4,num_8,16,num_8,1.3001437874,,,2017_Jun_21_1721,59.9342756148,FEMA4ImagesEEG,001,100808,
AFNE01.JPG,AFNE01.JPG,AFNE01.JPG,AFNE01.JPG,AFNE01.JPG,AFNE01.JPG,,,,,,,,,2,5,25,7,,,,,,,,,,,,,,,AFSA03.jpg,AFNE03.jpg,AFSA17.jpg,AFNE07.jpg,AFNE07.jpg,FN,3,num_4,32,num_8,3.13329242845,,,2017_Jun_21_1721,59.9342756148,FEMA4ImagesEEG,001,100808,
AFNE01.JPG,AFNE01.JPG,AFNE01.JPG,AFNE01.JPG,AFNE01.JPG,AFNE01.JPG,,,,,,,,,2,6,26,5,,,,,,,,,,,,,,,AFSA08.jpg,AFSA09.jpg,AFNE07.jpg,AFNE09.jpg,AFNE07.jpg,FN,3,num_2,32,num_4,0.850099381059,,,2017_Jun_21_1721,59.9342756148,FEMA4ImagesEEG,001,100808,
AFNE01.JPG,AFNE01.JPG,AFNE01.JPG,AFNE01.JPG,AFNE01.JPG,AFNE01.JPG,,,,,,,,,2,7,27,8,,,,,,,,,,,,,,,AFNE17.jpg,AFNE03.jpg,AFSA19.jpg,AFSA13.jpg,AFSA13.jpg,FS,4,num_4,16,num_4,1.21671153279,,,2017_Jun_21_1721,59.9342756148,FEMA4ImagesEEG,001,100808,
AFNE01.JPG,AFNE01.JPG,AFNE01.JPG,AFNE01.JPG,AFNE01.JPG,AFNE01.JPG,,,,,,,,,2,8,28,9,,,,,,,,,,,,,,,AFNE12.jpg,AFNE13.jpg,AFSA06.jpg,AFSA11.jpg,AFNE13.jpg,FN,3,num_6,32,num_8,2.01666303701,,,2017_Jun_21_1721,59.9342756148,FEMA4ImagesEEG,001,100808,
AFNE01.JPG,AFNE01.JPG,AFNE01.JPG,AFNE01.JPG,AFNE01.JPG,AFNE01.JPG,,,,,,,,,2,9,29,4,,,,,,,,,,,,,,,AFSA16.jpg,AFNE18.jpg,AFSA01.jpg,AFNE13.jpg,AFSA01.jpg,FS,4,num_2,16,num_2,1.55024682474,,,2017_Jun_21_1721,59.9342756148,FEMA4ImagesEEG,001,100808,
AFNE01.JPG,AFNE01.JPG,AFNE01.JPG,AFNE01.JPG,AFNE01.JPG,AFNE01.JPG,,,,,,,,,3,0,30,7,,,,,,,,,,,,,,,AFSA15.jpg,AFNE11.jpg,AFSA11.jpg,AFNE04.jpg,AFSA11.jpg,FS,4,num_2,16,num_2,1.66668313136,,,2017_Jun_21_1721,59.9342756148,FEMA4ImagesEEG,001,100808,
AFNE01.JPG,AFNE01.JPG,AFNE01.JPG,AFNE01.JPG,AFNE01.JPG,AFNE01.JPG,,,,,,,,,3,1,31,2,,,,,,,,,,,,,,,AFSA20.jpg,AFNE09.jpg,AFNE01.jpg,AFSA16.jpg,AFNE09.jpg,FN,3,num_6,16,num_6,1.31672118697,,,2017_Jun_21_1721,59.9342756148,FEMA4ImagesEEG,001,100808,
AFNE01.JPG,AFNE01.JPG,AFNE01.JPG,AFNE01.JPG,AFNE01.JPG,AFNE01.JPG,,,,,,,,,3,2,32,0,,,,,,,,,,,,,,,AFNE02.jpg,AFNE14.jpg,AFSA16.jpg,AFSA01.jpg,AFNE02.jpg,FN,3,num_8,16,num_8,1.90004487149,,,2017_Jun_21_1721,59.9342756148,FEMA4ImagesEEG,001,100808,
AFNE01.JPG,AFNE01.JPG,AFNE01.JPG,AFNE01.JPG,AFNE01.JPG,AFNE01.JPG,,,,,,,,,3,3,33,1,,,,,,,,,,,,,,,AFNE16.jpg,AFNE06.jpg,AFSA13.jpg,AFSA04.jpg,AFNE16.jpg,FN,3,num_8,16,num_8,1.58339232253,,,2017_Jun_21_1721,59.9342756148,FEMA4ImagesEEG,001,100808,
AFNE01.JPG,AFNE01.JPG,AFNE01.JPG,AFNE01.JPG,AFNE01.JPG,AFNE01.JPG,,,,,,,,,3,4,34,8,,,,,,,,,,,,,,,AFSA18.jpg,AFNE06.jpg,AFNE04.jpg,AFSA06.jpg,AFSA06.jpg,FS,4,num_4,16,num_4,0.966734866612,,,2017_Jun_21_1721,59.9342756148,FEMA4ImagesEEG,001,100808,
AFNE01.JPG,AFNE01.JPG,AFNE01.JPG,AFNE01.JPG,AFNE01.JPG,AFNE01.JPG,,,,,,,,,3,5,35,9,,,,,,,,,,,,,,,AFNE19.jpg,AFSA08.jpg,AFSA02.jpg,AFNE17.jpg,AFNE19.jpg,FN,3,num_8,32,num_4,1.35008703265,,,2017_Jun_21_1721,59.9342756148,FEMA4ImagesEEG,001,100808,
AFNE01.JPG,AFNE01.JPG,AFNE01.JPG,AFNE01.JPG,AFNE01.JPG,AFNE01.JPG,,,,,,,,,3,6,36,5,,,,,,,,,,,,,,,AFNE12.jpg,AFNE14.jpg,AFSA01.jpg,AFSA10.jpg,AFNE12.jpg,FN,3,num_8,16,num_8,1.03341812594,,,2017_Jun_21_1721,59.9342756148,FEMA4ImagesEEG,001,100808,
AFNE01.JPG,AFNE01.JPG,AFNE01.JPG,AFNE01.JPG,AFNE01.JPG,AFNE01.JPG,,,,,,,,,3,7,37,3,,,,,,,,,,,,,,,AFNE06.jpg,AFSA10.jpg,AFSA20.jpg,AFNE05.jpg,AFNE06.jpg,FN,3,num_8,32,num_2,2.53337498661,,,2017_Jun_21_1721,59.9342756148,FEMA4ImagesEEG,001,100808,
AFNE01.JPG,AFNE01.JPG,AFNE01.JPG,AFNE01.JPG,AFNE01.JPG,AFNE01.JPG,,,,,,,,,3,8,38,4,,,,,,,,,,,,,,,AFSA15.jpg,AFNE06.jpg,AFNE08.jpg,AFSA09.jpg,AFSA15.jpg,FS,4,num_8,16,num_8,1.31671701744,,,2017_Jun_21_1721,59.9342756148,FEMA4ImagesEEG,001,100808,
AFNE01.JPG,AFNE01.JPG,AFNE01.JPG,AFNE01.JPG,AFNE01.JPG,AFNE01.JPG,,,,,,,,,3,9,39,6,,,,,,,,,,,,,,,AFSA12.jpg,AFNE04.jpg,AFNE17.jpg,AFSA07.jpg,AFNE04.jpg,FN,3,num_6,16,num_6,0.700283116428,,,2017_Jun_21_1721,59.9342756148,FEMA4ImagesEEG,001,100808,
AFNE01.JPG,AFNE01.JPG,AFNE01.JPG,AFNE01.JPG,AFNE01.JPG,AFNE01.JPG,,,,,,,,,4,0,40,4,,,,,,,,,,,,,,,AFSA02.jpg,AFSA16.jpg,AFNE16.jpg,AFNE04.jpg,AFSA02.jpg,FS,4,num_8,16,num_8,1.48339646007,,,2017_Jun_21_1721,59.9342756148,FEMA4ImagesEEG,001,100808,
AFNE01.JPG,AFNE01.JPG,AFNE01.JPG,AFNE01.JPG,AFNE01.JPG,AFNE01.JPG,,,,,,,,,4,1,41,2,,,,,,,,,,,,,,,AFSA14.jpg,AFNE05.jpg,AFNE12.jpg,AFSA09.jpg,AFSA14.jpg,FS,4,num_8,32,num_6,2.69990207837,,,2017_Jun_21_1721,59.9342756148,FEMA4ImagesEEG,001,100808,
AFNE01.JPG,AFNE01.JPG,AFNE01.JPG,AFNE01.JPG,AFNE01.JPG,AFNE01.JPG,,,,,,,,,4,2,42,6,,,,,,,,,,,,,,,AFSA01.jpg,AFNE19.jpg,AFNE05.jpg,AFSA15.jpg,AFNE05.jpg,FN,3,num_2,16,num_2,2.69999092328,,,2017_Jun_21_1721,59.9342756148,FEMA4ImagesEEG,001,100808,
AFNE01.JPG,AFNE01.JPG,AFNE01.JPG,AFNE01.JPG,AFNE01.JPG,AFNE01.JPG,,,,,,,,,4,3,43,9,,,,,,,,,,,,,,,AFSA08.jpg,AFNE10.jpg,AFSA16.jpg,AFNE08.jpg,AFSA16.jpg,FS,4,num_2,32,num_4,1.48342436459,,,2017_Jun_21_1721,59.9342756148,FEMA4ImagesEEG,001,100808,
AFNE01.JPG,AFNE01.JPG,AFNE01.JPG,AFNE01.JPG,AFNE01.JPG,AFNE01.JPG,,,,,,,,,4,4,44,7,,,,,,,,,,,,,,,AFSA20.jpg,AFSA02.jpg,AFNE02.jpg,AFNE18.jpg,AFSA02.jpg,FS,4,num_6,16,num_6,0.91676532058,,,2017_Jun_21_1721,59.9342756148,FEMA4ImagesEEG,001,100808,
AFNE01.JPG,AFNE01.JPG,AFNE01.JPG,AFNE01.JPG,AFNE01.JPG,AFNE01.JPG,,,,,,,,,4,5,45,5,,,,,,,,,,,,,,,AFSA19.jpg,AFSA11.jpg,AFNE07.jpg,AFNE03.jpg,AFNE03.jpg,FN,3,num_4,32,num_2,1.43340574554,,,2017_Jun_21_1721,59.9342756148,FEMA4ImagesEEG,001,100808,
AFNE01.JPG,AFNE01.JPG,AFNE01.JPG,AFNE01.JPG,AFNE01.JPG,AFNE01.JPG,,,,,,,,,4,6,46,3,,,,,,,,,,,,,,,AFNE02.jpg,AFSA03.jpg,AFNE08.jpg,AFSA07.jpg,AFNE08.jpg,FN,3,num_2,16,num_2,2.05003946694,,,2017_Jun_21_1721,59.9342756148,FEMA4ImagesEEG,001,100808,
AFNE01.JPG,AFNE01.JPG,AFNE01.JPG,AFNE01.JPG,AFNE01.JPG,AFNE01.JPG,,,,,,,,,4,7,47,0,,,,,,,,,,,,,,,AFSA01.jpg,AFSA03.jpg,AFNE12.jpg,AFNE16.jpg,AFNE12.jpg,FN,3,num_2,16,num_2,2.08332769386,,,2017_Jun_21_1721,59.9342756148,FEMA4ImagesEEG,001,100808,
AFNE01.JPG,AFNE01.JPG,AFNE01.JPG,AFNE01.JPG,AFNE01.JPG,AFNE01.JPG,,,,,,,,,4,8,48,8,,,,,,,,,,,,,,,AFSA19.jpg,AFNE01.jpg,AFNE06.jpg,AFSA18.jpg,AFNE06.jpg,FN,3,num_2,32,num_6,1.03324268176,,,2017_Jun_21_1721,59.9342756148,FEMA4ImagesEEG,001,100808,
AFNE01.JPG,AFNE01.JPG,AFNE01.JPG,AFNE01.JPG,AFNE01.JPG,AFNE01.JPG,,,,,,,,,4,9,49,1,,,,,,,,,,,,,,,AFSA14.jpg,AFNE18.jpg,AFSA05.jpg,AFNE08.jpg,AFSA14.jpg,FS,4,num_8,32,num_4,1.55005213618,,,2017_Jun_21_1721,59.9342756148,FEMA4ImagesEEG,001,100808,
AFNE01.JPG,AFNE01.JPG,AFNE01.JPG,AFNE01.JPG,AFNE01.JPG,AFNE01.JPG,,,,,,,,,5,0,50,2,,,,,,,,,,,,,,,AFNE01.jpg,AFSA13.jpg,AFSA09.jpg,AFNE11.jpg,AFSA09.jpg,FS,4,num_2,16,num_2,2.41693386901,,,2017_Jun_21_1721,59.9342756148,FEMA4ImagesEEG,001,100808,
AFNE01.JPG,AFNE01.JPG,AFNE01.JPG,AFNE01.JPG,AFNE01.JPG,AFNE01.JPG,,,,,,,,,5,1,51,3,,,,,,,,,,,,,,,AFSA10.jpg,AFNE01.jpg,AFNE10.jpg,AFSA19.jpg,AFSA10.jpg,FS,4,num_8,32,num_4,1.216777605,,,2017_Jun_21_1721,59.9342756148,FEMA4ImagesEEG,001,100808,
AFNE01.JPG,AFNE01.JPG,AFNE01.JPG,AFNE01.JPG,AFNE01.JPG,AFNE01.JPG,,,,,,,,,5,2,52,4,,,,,,,,,,,,,,,AFSA16.jpg,AFNE11.jpg,AFNE09.jpg,AFSA02.jpg,AFNE11.jpg,FN,3,num_6,16,num_6,0.883463302162,,,2017_Jun_21_1721,59.9342756148,FEMA4ImagesEEG,001,100808,
AFNE01.JPG,AFNE01.JPG,AFNE01.JPG,AFNE01.JPG,AFNE01.JPG,AFNE01.JPG,,,,,,,,,5,3,53,5,,,,,,,,,,,,,,,AFNE01.jpg,AFSA19.jpg,AFNE11.jpg,AFSA03.jpg,AFNE11.jpg,FN,3,num_2,32,num_4,1.14995482378,,,2017_Jun_21_1721,59.9342756148,FEMA4ImagesEEG,001,100808,
AFNE01.JPG,AFNE01.JPG,AFNE01.JPG,AFNE01.JPG,AFNE01.JPG,AFNE01.JPG,,,,,,,,,5,4,54,8,,,,,,,,,,,,,,,AFSA06.jpg,AFNE11.jpg,AFNE19.jpg,AFSA07.jpg,AFNE11.jpg,FN,3,num_6,16,num_6,0.733472234802,,,2017_Jun_21_1721,59.9342756148,FEMA4ImagesEEG,001,100808,
AFNE01.JPG,AFNE01.JPG,AFNE01.JPG,AFNE01.JPG,AFNE01.JPG,AFNE01.JPG,,,,,,,,,5,5,55,9,,,,,,,,,,,,,,,AFSA09.jpg,AFNE02.jpg,AFNE11.jpg,AFSA14.jpg,AFSA09.jpg,FS,4,num_8,16,num_8,1.2833627183,,,2017_Jun_21_1721,59.9342756148,FEMA4ImagesEEG,001,100808,
AFNE01.JPG,AFNE01.JPG,AFNE01.JPG,AFNE01.JPG,AFNE01.JPG,AFNE01.JPG,,,,,,,,,5,6,56,6,,,,,,,,,,,,,,,AFSA03.jpg,AFNE07.jpg,AFNE11.jpg,AFSA12.jpg,AFSA03.jpg,FS,4,num_8,32,num_4,1.13346691057,,,2017_Jun_21_1721,59.9342756148,FEMA4ImagesEEG,001,100808,
AFNE01.JPG,AFNE01.JPG,AFNE01.JPG,AFNE01.JPG,AFNE01.JPG,AFNE01.JPG,,,,,,,,,5,7,57,7,,,,,,,,,,,,,,,AFSA12.jpg,AFSA03.jpg,AFNE14.jpg,AFNE12.jpg,AFSA12.jpg,FS,4,num_8,16,num_8,1.55010634125,,,2017_Jun_21_1721,59.9342756148,FEMA4ImagesEEG,001,100808,
AFNE01.JPG,AFNE01.JPG,AFNE01.JPG,AFNE01.JPG,AFNE01.JPG,AFNE01.JPG,,,,,,,,,5,8,58,1,,,,,,,,,,,,,,,AFNE16.jpg,AFNE01.jpg,AFSA15.jpg,AFSA17.jpg,AFNE01.jpg,FN,3,num_6,16,num_6,1.2000892295,,,2017_Jun_21_1721,59.9342756148,FEMA4ImagesEEG,001,100808,
AFNE01.JPG,AFNE01.JPG,AFNE01.JPG,AFNE01.JPG,AFNE01.JPG,AFNE01.JPG,,,,,,,,,5,9,59,0,,,,,,,,,,,,,,,AFSA19.jpg,AFNE04.jpg,AFNE01.jpg,AFSA12.jpg,AFNE04.jpg,FN,3,num_6,16,num_6,1.21675098361,,,2017_Jun_21_1721,59.9342756148,FEMA4ImagesEEG,001,100808,
,,,,,,,,,,,,,,,,,,,,,,,,,,,,,,,,,,,,,,,,,,,space,12.1995106163,2017_Jun_21_1721,59.9342756148,FEMA4ImagesEEG,001,100808,
AFNE01.JPG,AFNE01.JPG,AFNE01.JPG,AFNE01.JPG,AFNE01.JPG,AFNE01.JPG,,,,,,,,,,,,,0,0,0,5,,,,,,,,,,,AMNE16.jpg,AMNE17.jpg,AMSA11.jpg,AMSA08.jpg,AMNE17.jpg,MN,1,num_6,32,num_4,1.40009250096,,,2017_Jun_21_1721,59.9342756148,FEMA4ImagesEEG,001,100808,
AFNE01.JPG,AFNE01.JPG,AFNE01.JPG,AFNE01.JPG,AFNE01.JPG,AFNE01.JPG,,,,,,,,,,,,,0,1,1,1,,,,,,,,,,,AMSA05.jpg,AMSA13.jpg,AMNE18.jpg,AMNE12.jpg,AMNE18.jpg,MN,1,num_2,32,num_6,1.90004198486,,,2017_Jun_21_1721,59.9342756148,FEMA4ImagesEEG,001,100808,
AFNE01.JPG,AFNE01.JPG,AFNE01.JPG,AFNE01.JPG,AFNE01.JPG,AFNE01.JPG,,,,,,,,,,,,,0,2,2,7,,,,,,,,,,,AMSA08.jpg,AMNE02.jpg,AMSA12.jpg,AMNE06.jpg,AMNE02.jpg,MN,1,num_6,16,num_6,1.13351021009,,,2017_Jun_21_1721,59.9342756148,FEMA4ImagesEEG,001,100808,
AFNE01.JPG,AFNE01.JPG,AFNE01.JPG,AFNE01.JPG,AFNE01.JPG,AFNE01.JPG,,,,,,,,,,,,,0,3,3,0,,,,,,,,,,,AMNE19.jpg,AMSA13.jpg,AMNE04.jpg,AMSA10.jpg,AMSA10.jpg,MS,2,num_4,32,num_6,0.88344758586,,,2017_Jun_21_1721,59.9342756148,FEMA4ImagesEEG,001,100808,
AFNE01.JPG,AFNE01.JPG,AFNE01.JPG,AFNE01.JPG,AFNE01.JPG,AFNE01.JPG,,,,,,,,,,,,,0,4,4,6,,,,,,,,,,,AMSA04.jpg,AMNE07.jpg,AMSA01.jpg,AMNE10.jpg,AMNE10.jpg,MN,1,num_4,32,num_8,1.5001672653,,,2017_Jun_21_1721,59.9342756148,FEMA4ImagesEEG,001,100808,
AFNE01.JPG,AFNE01.JPG,AFNE01.JPG,AFNE01.JPG,AFNE01.JPG,AFNE01.JPG,,,,,,,,,,,,,0,5,5,2,,,,,,,,,,,AMNE16.jpg,AMSA07.jpg,AMNE14.jpg,AMSA10.jpg,AMNE16.jpg,MN,1,num_8,32,num_4,1.30004820693,,,2017_Jun_21_1721,59.9342756148,FEMA4ImagesEEG,001,100808,
AFNE01.JPG,AFNE01.JPG,AFNE01.JPG,AFNE01.JPG,AFNE01.JPG,AFNE01.JPG,,,,,,,,,,,,,0,6,6,8,,,,,,,,,,,AMNE05.jpg,AMSA06.jpg,AMSA08.jpg,AMNE12.jpg,AMNE12.jpg,MN,1,num_4,32,num_8,2.69963746867,,,2017_Jun_21_1721,59.9342756148,FEMA4ImagesEEG,001,100808,
AFNE01.JPG,AFNE01.JPG,AFNE01.JPG,AFNE01.JPG,AFNE01.JPG,AFNE01.JPG,,,,,,,,,,,,,0,7,7,4,,,,,,,,,,,AMSA04.jpg,AMSA20.jpg,AMNE04.jpg,AMNE19.jpg,AMNE19.jpg,MN,1,num_4,16,num_4,1.18340309942,,,2017_Jun_21_1721,59.9342756148,FEMA4ImagesEEG,001,100808,
AFNE01.JPG,AFNE01.JPG,AFNE01.JPG,AFNE01.JPG,AFNE01.JPG,AFNE01.JPG,,,,,,,,,,,,,0,8,8,3,,,,,,,,,,,AMNE13.jpg,AMNE18.jpg,AMSA01.jpg,AMSA20.jpg,AMSA01.jpg,MS,2,num_2,16,num_2,1.40004567336,,,2017_Jun_21_1721,59.9342756148,FEMA4ImagesEEG,001,100808,
AFNE01.JPG,AFNE01.JPG,AFNE01.JPG,AFNE01.JPG,AFNE01.JPG,AFNE01.JPG,,,,,,,,,,,,,0,9,9,9,,,,,,,,,,,AMSA16.jpg,AMNE02.jpg,AMSA06.jpg,AMNE15.jpg,AMSA06.jpg,MS,2,num_2,32,num_8,2.81657476956,,,2017_Jun_21_1721,59.9342756148,FEMA4ImagesEEG,001,100808,
AFNE01.JPG,AFNE01.JPG,AFNE01.JPG,AFNE01.JPG,AFNE01.JPG,AFNE01.JPG,,,,,,,,,,,,,1,0,10,6,,,,,,,,,,,AMSA04.jpg,AMNE17.jpg,AMNE07.jpg,AMSA09.jpg,AMSA04.jpg,MS,2,num_8,16,num_8,0.96662806021,,,2017_Jun_21_1721,59.9342756148,FEMA4ImagesEEG,001,100808,
AFNE01.JPG,AFNE01.JPG,AFNE01.JPG,AFNE01.JPG,AFNE01.JPG,AFNE01.JPG,,,,,,,,,,,,,1,1,11,7,,,,,,,,,,,AMNE08.jpg,AMSA11.jpg,AMSA09.jpg,AMNE11.jpg,AMSA11.jpg,MS,2,num_6,32,num_4,1.66708181007,,,2017_Jun_21_1721,59.9342756148,FEMA4ImagesEEG,001,100808,
AFNE01.JPG,AFNE01.JPG,AFNE01.JPG,AFNE01.JPG,AFNE01.JPG,AFNE01.JPG,,,,,,,,,,,,,1,2,12,5,,,,,,,,,,,AMSA16.jpg,AMSA01.jpg,AMNE07.jpg,AMNE01.jpg,AMSA16.jpg,MS,2,num_8,16,num_8,1.71666711033,,,2017_Jun_21_1721,59.9342756148,FEMA4ImagesEEG,001,100808,
AFNE01.JPG,AFNE01.JPG,AFNE01.JPG,AFNE01.JPG,AFNE01.JPG,AFNE01.JPG,,,,,,,,,,,,,1,3,13,8,,,,,,,,,,,AMSA02.jpg,AMSA18.jpg,AMNE10.jpg,AMNE14.jpg,AMNE14.jpg,MN,1,num_4,16,num_4,1.33356768684,,,2017_Jun_21_1721,59.9342756148,FEMA4ImagesEEG,001,100808,
AFNE01.JPG,AFNE01.JPG,AFNE01.JPG,AFNE01.JPG,AFNE01.JPG,AFNE01.JPG,,,,,,,,,,,,,1,4,14,2,,,,,,,,,,,AMNE19.jpg,AMSA04.jpg,AMSA03.jpg,AMNE17.jpg,AMSA04.jpg,MS,2,num_6,32,num_8,0.866775568342,,,2017_Jun_21_1721,59.9342756148,FEMA4ImagesEEG,001,100808,
AFNE01.JPG,AFNE01.JPG,AFNE01.JPG,AFNE01.JPG,AFNE01.JPG,AFNE01.JPG,,,,,,,,,,,,,1,5,15,9,,,,,,,,,,,AMNE20.jpg,AMSA08.jpg,AMSA12.jpg,AMNE16.jpg,AMSA12.jpg,MS,2,num_2,16,num_2,1.51672253408,,,2017_Jun_21_1721,59.9342756148,FEMA4ImagesEEG,001,100808,
AFNE01.JPG,AFNE01.JPG,AFNE01.JPG,AFNE01.JPG,AFNE01.JPG,AFNE01.JPG,,,,,,,,,,,,,1,6,16,0,,,,,,,,,,,AMNE19.jpg,AMSA12.jpg,AMNE01.jpg,AMSA13.jpg,AMNE01.jpg,MN,1,num_2,32,num_4,1.14980568015,,,2017_Jun_21_1721,59.9342756148,FEMA4ImagesEEG,001,100808,
AFNE01.JPG,AFNE01.JPG,AFNE01.JPG,AFNE01.JPG,AFNE01.JPG,AFNE01.JPG,,,,,,,,,,,,,1,7,17,3,,,,,,,,,,,AMSA06.jpg,AMSA04.jpg,AMNE17.jpg,AMNE05.jpg,AMSA06.jpg,MS,2,num_8,32,num_4,1.08339569042,,,2017_Jun_21_1721,59.9342756148,FEMA4ImagesEEG,001,100808,
AFNE01.JPG,AFNE01.JPG,AFNE01.JPG,AFNE01.JPG,AFNE01.JPG,AFNE01.JPG,,,,,,,,,,,,,1,8,18,1,,,,,,,,,,,AMSA17.jpg,AMSA15.jpg,AMNE09.jpg,AMNE08.jpg,AMNE08.jpg,MN,1,num_4,32,num_8,0.883443095488,,,2017_Jun_21_1721,59.9342756148,FEMA4ImagesEEG,001,100808,
AFNE01.JPG,AFNE01.JPG,AFNE01.JPG,AFNE01.JPG,AFNE01.JPG,AFNE01.JPG,,,,,,,,,,,,,1,9,19,4,,,,,,,,,,,AMSA02.jpg,AMSA07.jpg,AMNE14.jpg,AMNE08.jpg,AMNE08.jpg,MN,1,num_4,32,num_8,1.00011322089,,,2017_Jun_21_1721,59.9342756148,FEMA4ImagesEEG,001,100808,
AFNE01.JPG,AFNE01.JPG,AFNE01.JPG,AFNE01.JPG,AFNE01.JPG,AFNE01.JPG,,,,,,,,,,,,,2,0,20,6,,,,,,,,,,,AMNE12.jpg,AMSA13.jpg,AMNE19.jpg,AMSA20.jpg,AMSA20.jpg,MS,2,num_4,16,num_4,0.816748289391,,,2017_Jun_21_1721,59.9342756148,FEMA4ImagesEEG,001,100808,
AFNE01.JPG,AFNE01.JPG,AFNE01.JPG,AFNE01.JPG,AFNE01.JPG,AFNE01.JPG,,,,,,,,,,,,,2,1,21,0,,,,,,,,,,,AMSA02.jpg,AMSA17.jpg,AMNE13.jpg,AMNE15.jpg,AMSA02.jpg,MS,2,num_8,16,num_8,0.916774942772,,,2017_Jun_21_1721,59.9342756148,FEMA4ImagesEEG,001,100808,
AFNE01.JPG,AFNE01.JPG,AFNE01.JPG,AFNE01.JPG,AFNE01.JPG,AFNE01.JPG,,,,,,,,,,,,,2,2,22,4,,,,,,,,,,,AMSA07.jpg,AMNE15.jpg,AMSA17.jpg,AMNE10.jpg,AMSA07.jpg,MS,2,num_8,16,num_8,0.749963034876,,,2017_Jun_21_1721,59.9342756148,FEMA4ImagesEEG,001,100808,
AFNE01.JPG,AFNE01.JPG,AFNE01.JPG,AFNE01.JPG,AFNE01.JPG,AFNE01.JPG,,,,,,,,,,,,,2,3,23,2,,,,,,,,,,,AMSA06.jpg,AMSA03.jpg,AMNE15.jpg,AMNE10.jpg,AMNE15.jpg,MN,1,num_2,32,num_6,1.76671010558,,,2017_Jun_21_1721,59.9342756148,FEMA4ImagesEEG,001,100808,
AFNE01.JPG,AFNE01.JPG,AFNE01.JPG,AFNE01.JPG,AFNE01.JPG,AFNE01.JPG,,,,,,,,,,,,,2,4,24,9,,,,,,,,,,,AMNE17.jpg,AMSA03.jpg,AMNE15.jpg,AMSA18.jpg,AMNE15.jpg,MN,1,num_2,16,num_2,1.51673376001,,,2017_Jun_21_1721,59.9342756148,FEMA4ImagesEEG,001,100808,
AFNE01.JPG,AFNE01.JPG,AFNE01.JPG,AFNE01.JPG,AFNE01.JPG,AFNE01.JPG,,,,,,,,,,,,,2,5,25,3,,,,,,,,,,,AMSA05.jpg,AMNE08.jpg,AMSA16.jpg,AMNE15.jpg,AMSA05.jpg,MS,2,num_8,16,num_8,1.36680619884,,,2017_Jun_21_1721,59.9342756148,FEMA4ImagesEEG,001,100808,
AFNE01.JPG,AFNE01.JPG,AFNE01.JPG,AFNE01.JPG,AFNE01.JPG,AFNE01.JPG,,,,,,,,,,,,,2,6,26,7,,,,,,,,,,,AMNE12.jpg,AMSA07.jpg,AMNE03.jpg,AMSA02.jpg,AMSA07.jpg,MS,2,num_6,16,num_6,0.666737015592,,,2017_Jun_21_1721,59.9342756148,FEMA4ImagesEEG,001,100808,
AFNE01.JPG,AFNE01.JPG,AFNE01.JPG,AFNE01.JPG,AFNE01.JPG,AFNE01.JPG,,,,,,,,,,,,,2,7,27,1,,,,,,,,,,,AMNE10.jpg,AMSA07.jpg,AMSA10.jpg,AMNE13.jpg,AMSA07.jpg,MS,2,num_6,32,num_4,1.03342197509,,,2017_Jun_21_1721,59.9342756148,FEMA4ImagesEEG,001,100808,
AFNE01.JPG,AFNE01.JPG,AFNE01.JPG,AFNE01.JPG,AFNE01.JPG,AFNE01.JPG,,,,,,,,,,,,,2,8,28,8,,,,,,,,,,,AMSA11.jpg,AMNE02.jpg,AMNE19.jpg,AMSA16.jpg,AMSA16.jpg,MS,2,num_4,16,num_4,1.11677308264,,,2017_Jun_21_1721,59.9342756148,FEMA4ImagesEEG,001,100808,
AFNE01.JPG,AFNE01.JPG,AFNE01.JPG,AFNE01.JPG,AFNE01.JPG,AFNE01.JPG,,,,,,,,,,,,,2,9,29,5,,,,,,,,,,,AMSA17.jpg,AMNE01.jpg,AMNE18.jpg,AMSA18.jpg,AMSA18.jpg,MS,2,num_4,16,num_4,1.76696958323,,,2017_Jun_21_1721,59.9342756148,FEMA4ImagesEEG,001,100808,
AFNE01.JPG,AFNE01.JPG,AFNE01.JPG,AFNE01.JPG,AFNE01.JPG,AFNE01.JPG,,,,,,,,,,,,,3,0,30,5,,,,,,,,,,,AMSA02.jpg,AMNE12.jpg,AMNE19.jpg,AMSA11.jpg,AMSA02.jpg,MS,2,num_8,16,num_8,1.93336388911,,,2017_Jun_21_1721,59.9342756148,FEMA4ImagesEEG,001,100808,
AFNE01.JPG,AFNE01.JPG,AFNE01.JPG,AFNE01.JPG,AFNE01.JPG,AFNE01.JPG,,,,,,,,,,,,,3,1,31,7,,,,,,,,,,,AMNE02.jpg,AMNE05.jpg,AMSA03.jpg,AMSA08.jpg,AMSA08.jpg,MS,2,num_4,32,num_8,0.9834383165,,,2017_Jun_21_1721,59.9342756148,FEMA4ImagesEEG,001,100808,
AFNE01.JPG,AFNE01.JPG,AFNE01.JPG,AFNE01.JPG,AFNE01.JPG,AFNE01.JPG,,,,,,,,,,,,,3,2,32,2,,,,,,,,,,,AMNE02.jpg,AMNE18.jpg,AMSA16.jpg,AMSA15.jpg,AMSA16.jpg,MS,2,num_2,32,num_4,0.850108682411,,,2017_Jun_21_1721,59.9342756148,FEMA4ImagesEEG,001,100808,
AFNE01.JPG,AFNE01.JPG,AFNE01.JPG,AFNE01.JPG,AFNE01.JPG,AFNE01.JPG,,,,,,,,,,,,,3,3,33,1,,,,,,,,,,,AMNE05.jpg,AMNE03.jpg,AMSA03.jpg,AMSA14.jpg,AMNE05.jpg,MN,1,num_8,32,num_6,1.36668014829,,,2017_Jun_21_1721,59.9342756148,FEMA4ImagesEEG,001,100808,
AFNE01.JPG,AFNE01.JPG,AFNE01.JPG,AFNE01.JPG,AFNE01.JPG,AFNE01.JPG,,,,,,,,,,,,,3,4,34,9,,,,,,,,,,,AMNE10.jpg,AMSA18.jpg,AMSA04.jpg,AMNE03.jpg,AMSA04.jpg,MS,2,num_2,32,num_4,1.23342845379,,,2017_Jun_21_1721,59.9342756148,FEMA4ImagesEEG,001,100808,
AFNE01.JPG,AFNE01.JPG,AFNE01.JPG,AFNE01.JPG,AFNE01.JPG,AFNE01.JPG,,,,,,,,,,,,,3,5,35,6,,,,,,,,,,,AMSA18.jpg,AMSA03.jpg,AMNE12.jpg,AMNE08.jpg,AMSA18.jpg,MS,2,num_8,16,num_8,1.78337602899,,,2017_Jun_21_1721,59.9342756148,FEMA4ImagesEEG,001,100808,
AFNE01.JPG,AFNE01.JPG,AFNE01.JPG,AFNE01.JPG,AFNE01.JPG,AFNE01.JPG,,,,,,,,,,,,,3,6,36,4,,,,,,,,,,,AMSA10.jpg,AMSA07.jpg,AMNE08.jpg,AMNE09.jpg,AMSA10.jpg,MS,2,num_8,32,num_4,1.21672115475,,,2017_Jun_21_1721,59.9342756148,FEMA4ImagesEEG,001,100808,
AFNE01.JPG,AFNE01.JPG,AFNE01.JPG,AFNE01.JPG,AFNE01.JPG,AFNE01.JPG,,,,,,,,,,,,,3,7,37,0,,,,,,,,,,,AMSA20.jpg,AMNE13.jpg,AMNE16.jpg,AMSA17.jpg,AMSA20.jpg,MS,2,num_8,16,num_8,0.949753335677,,,2017_Jun_21_1721,59.9342756148,FEMA4ImagesEEG,001,100808,
AFNE01.JPG,AFNE01.JPG,AFNE01.JPG,AFNE01.JPG,AFNE01.JPG,AFNE01.JPG,,,,,,,,,,,,,3,8,38,3,,,,,,,,,,,AMSA11.jpg,AMSA06.jpg,AMNE02.jpg,AMNE20.jpg,AMSA06.jpg,MS,2,num_6,16,num_6,1.46669846261,,,2017_Jun_21_1721,59.9342756148,FEMA4ImagesEEG,001,100808,
AFNE01.JPG,AFNE01.JPG,AFNE01.JPG,AFNE01.JPG,AFNE01.JPG,AFNE01.JPG,,,,,,,,,,,,,3,9,39,8,,,,,,,,,,,AMNE10.jpg,AMSA12.jpg,AMSA16.jpg,AMNE04.jpg,AMNE04.jpg,MN,1,num_4,32,num_8,1.30007867725,,,2017_Jun_21_1721,59.9342756148,FEMA4ImagesEEG,001,100808,
AFNE01.JPG,AFNE01.JPG,AFNE01.JPG,AFNE01.JPG,AFNE01.JPG,AFNE01.JPG,,,,,,,,,,,,,4,0,40,2,,,,,,,,,,,AMSA09.jpg,AMSA16.jpg,AMNE06.jpg,AMNE01.jpg,AMNE01.jpg,MN,1,num_4,16,num_4,0.916752811754,,,2017_Jun_21_1721,59.9342756148,FEMA4ImagesEEG,001,100808,
AFNE01.JPG,AFNE01.JPG,AFNE01.JPG,AFNE01.JPG,AFNE01.JPG,AFNE01.JPG,,,,,,,,,,,,,4,1,41,1,,,,,,,,,,,AMSA17.jpg,AMSA10.jpg,AMNE09.jpg,AMNE13.jpg,AMSA10.jpg,MS,2,num_6,16,num_6,1.06670314539,,,2017_Jun_21_1721,59.9342756148,FEMA4ImagesEEG,001,100808,
AFNE01.JPG,AFNE01.JPG,AFNE01.JPG,AFNE01.JPG,AFNE01.JPG,AFNE01.JPG,,,,,,,,,,,,,4,2,42,3,,,,,,,,,,,AMNE20.jpg,AMSA09.jpg,AMNE17.jpg,AMSA10.jpg,AMNE20.jpg,MN,1,num_8,32,num_4,1.15012064599,,,2017_Jun_21_1721,59.9342756148,FEMA4ImagesEEG,001,100808,
AFNE01.JPG,AFNE01.JPG,AFNE01.JPG,AFNE01.JPG,AFNE01.JPG,AFNE01.JPG,,,,,,,,,,,,,4,3,43,6,,,,,,,,,,,AMNE12.jpg,AMSA08.jpg,AMNE02.jpg,AMSA07.jpg,AMSA08.jpg,MS,2,num_6,32,num_8,1.81662127678,,,2017_Jun_21_1721,59.9342756148,FEMA4ImagesEEG,001,100808,
AFNE01.JPG,AFNE01.JPG,AFNE01.JPG,AFNE01.JPG,AFNE01.JPG,AFNE01.JPG,,,,,,,,,,,,,4,4,44,7,,,,,,,,,,,AMSA01.jpg,AMNE05.jpg,AMNE13.jpg,AMSA07.jpg,AMSA01.jpg,MS,2,num_8,16,num_8,0.850116701098,,,2017_Jun_21_1721,59.9342756148,FEMA4ImagesEEG,001,100808,
AFNE01.JPG,AFNE01.JPG,AFNE01.JPG,AFNE01.JPG,AFNE01.JPG,AFNE01.JPG,,,,,,,,,,,,,4,5,45,8,,,,,,,,,,,AMSA12.jpg,AMSA09.jpg,AMNE05.jpg,AMNE10.jpg,AMNE10.jpg,MN,1,num_4,32,num_6,1.28338869824,,,2017_Jun_21_1721,59.9342756148,FEMA4ImagesEEG,001,100808,
AFNE01.JPG,AFNE01.JPG,AFNE01.JPG,AFNE01.JPG,AFNE01.JPG,AFNE01.JPG,,,,,,,,,,,,,4,6,46,5,,,,,,,,,,,AMNE20.jpg,AMSA11.jpg,AMNE17.jpg,AMSA14.jpg,AMSA14.jpg,MS,2,num_4,32,num_2,1.3001194112,,,2017_Jun_21_1721,59.9342756148,FEMA4ImagesEEG,001,100808,
AFNE01.JPG,AFNE01.JPG,AFNE01.JPG,AFNE01.JPG,AFNE01.JPG,AFNE01.JPG,,,,,,,,,,,,,4,7,47,4,,,,,,,,,,,AMNE14.jpg,AMNE03.jpg,AMSA06.jpg,AMSA05.jpg,AMSA06.jpg,MS,2,num_2,32,num_4,1.10003499244,,,2017_Jun_21_1721,59.9342756148,FEMA4ImagesEEG,001,100808,
AFNE01.JPG,AFNE01.JPG,AFNE01.JPG,AFNE01.JPG,AFNE01.JPG,AFNE01.JPG,,,,,,,,,,,,,4,8,48,0,,,,,,,,,,,AMNE05.jpg,AMNE17.jpg,AMSA07.jpg,AMSA06.jpg,AMNE05.jpg,MN,1,num_8,16,num_8,2.51664170786,,,2017_Jun_21_1721,59.9342756148,FEMA4ImagesEEG,001,100808,
AFNE01.JPG,AFNE01.JPG,AFNE01.JPG,AFNE01.JPG,AFNE01.JPG,AFNE01.JPG,,,,,,,,,,,,,4,9,49,9,,,,,,,,,,,AMSA08.jpg,AMSA15.jpg,AMNE15.jpg,AMNE20.jpg,AMSA15.jpg,MS,2,num_6,16,num_6,2.66660839901,,,2017_Jun_21_1721,59.9342756148,FEMA4ImagesEEG,001,100808,
AFNE01.JPG,AFNE01.JPG,AFNE01.JPG,AFNE01.JPG,AFNE01.JPG,AFNE01.JPG,,,,,,,,,,,,,5,0,50,8,,,,,,,,,,,AMSA09.jpg,AMSA17.jpg,AMNE01.jpg,AMNE17.jpg,AMSA09.jpg,MS,2,num_8,16,num_8,1.31670611235,,,2017_Jun_21_1721,59.9342756148,FEMA4ImagesEEG,001,100808,
AFNE01.JPG,AFNE01.JPG,AFNE01.JPG,AFNE01.JPG,AFNE01.JPG,AFNE01.JPG,,,,,,,,,,,,,5,1,51,1,,,,,,,,,,,AMNE13.jpg,AMSA15.jpg,AMNE12.jpg,AMSA10.jpg,AMSA15.jpg,MS,2,num_6,16,num_6,1.00003848877,,,2017_Jun_21_1721,59.9342756148,FEMA4ImagesEEG,001,100808,
AFNE01.JPG,AFNE01.JPG,AFNE01.JPG,AFNE01.JPG,AFNE01.JPG,AFNE01.JPG,,,,,,,,,,,,,5,2,52,3,,,,,,,,,,,AMSA13.jpg,AMSA19.jpg,AMNE02.jpg,AMNE12.jpg,AMSA19.jpg,MS,2,num_6,16,num_6,0.833436664892,,,2017_Jun_21_1721,59.9342756148,FEMA4ImagesEEG,001,100808,
AFNE01.JPG,AFNE01.JPG,AFNE01.JPG,AFNE01.JPG,AFNE01.JPG,AFNE01.JPG,,,,,,,,,,,,,5,3,53,6,,,,,,,,,,,AMNE17.jpg,AMNE20.jpg,AMSA18.jpg,AMSA15.jpg,AMNE17.jpg,MN,1,num_8,16,num_8,1.71670399513,,,2017_Jun_21_1721,59.9342756148,FEMA4ImagesEEG,001,100808,
AFNE01.JPG,AFNE01.JPG,AFNE01.JPG,AFNE01.JPG,AFNE01.JPG,AFNE01.JPG,,,,,,,,,,,,,5,4,54,2,,,,,,,,,,,AMNE19.jpg,AMNE14.jpg,AMSA03.jpg,AMSA11.jpg,AMSA03.jpg,MS,2,num_2,16,num_2,1.94997849432,,,2017_Jun_21_1721,59.9342756148,FEMA4ImagesEEG,001,100808,
AFNE01.JPG,AFNE01.JPG,AFNE01.JPG,AFNE01.JPG,AFNE01.JPG,AFNE01.JPG,,,,,,,,,,,,,5,5,55,5,,,,,,,,,,,AMSA19.jpg,AMNE15.jpg,AMSA15.jpg,AMNE06.jpg,AMSA15.jpg,MS,2,num_2,32,num_4,2.48329895549,,,2017_Jun_21_1721,59.9342756148,FEMA4ImagesEEG,001,100808,
AFNE01.JPG,AFNE01.JPG,AFNE01.JPG,AFNE01.JPG,AFNE01.JPG,AFNE01.JPG,,,,,,,,,,,,,5,6,56,7,,,,,,,,,,,AMSA01.jpg,AMSA16.jpg,AMNE05.jpg,AMNE19.jpg,AMSA16.jpg,MS,2,num_6,32,num_8,1.166756741,,,2017_Jun_21_1721,59.9342756148,FEMA4ImagesEEG,001,100808,
AFNE01.JPG,AFNE01.JPG,AFNE01.JPG,AFNE01.JPG,AFNE01.JPG,AFNE01.JPG,,,,,,,,,,,,,5,7,57,9,,,,,,,,,,,AMNE09.jpg,AMSA18.jpg,AMNE19.jpg,AMSA15.jpg,AMNE09.jpg,MN,1,num_8,32,num_2,2.06642795121,,,2017_Jun_21_1721,59.9342756148,FEMA4ImagesEEG,001,100808,
AFNE01.JPG,AFNE01.JPG,AFNE01.JPG,AFNE01.JPG,AFNE01.JPG,AFNE01.JPG,,,,,,,,,,,,,5,8,58,0,,,,,,,,,,,AMSA19.jpg,AMSA08.jpg,AMNE19.jpg,AMNE20.jpg,AMNE20.jpg,MN,1,num_4,32,num_8,1.85005159094,,,2017_Jun_21_1721,59.9342756148,FEMA4ImagesEEG,001,100808,
AFNE01.JPG,AFNE01.JPG,AFNE01.JPG,AFNE01.JPG,AFNE01.JPG,AFNE01.JPG,,,,,,,,,,,,,5,9,59,4,,,,,,,,,,,AMSA05.jpg,AMNE06.jpg,AMSA17.jpg,AMNE15.jpg,AMNE06.jpg,MN,1,num_6,16,num_6,1.33339961921,,,2017_Jun_21_1721,59.9342756148,FEMA4ImagesEEG,001,100808,
,,,,,,,,,,,,,,,,,,,,,,,,,,,,,,,,,,,,,,,,,,,space,14.6992596379,2017_Jun_21_1721,59.9342756148,FEMA4ImagesEEG,001,100808,
AFNE01.JPG,AFNE01.JPG,AFNE01.JPG,AFNE01.JPG,AFNE01.JPG,AFNE01.JPG,,,,,,,,,,,,,,,,,0,0,0,9,,,,,,,AFNE11.jpg,AFNE20.jpg,AFSA01.jpg,AFSA13.jpg,AFSA01.jpg,FS,4,num_2,16,num_2,1.53337979759,,,2017_Jun_21_1721,59.9342756148,FEMA4ImagesEEG,001,100808,
AFNE01.JPG,AFNE01.JPG,AFNE01.JPG,AFNE01.JPG,AFNE01.JPG,AFNE01.JPG,,,,,,,,,,,,,,,,,0,1,1,3,,,,,,,AFSA19.jpg,AFNE17.jpg,AFNE07.jpg,AFSA11.jpg,AFNE17.jpg,FN,3,num_6,32,num_2,2.36662177392,,,2017_Jun_21_1721,59.9342756148,FEMA4ImagesEEG,001,100808,
AFNE01.JPG,AFNE01.JPG,AFNE01.JPG,AFNE01.JPG,AFNE01.JPG,AFNE01.JPG,,,,,,,,,,,,,,,,,0,2,2,0,,,,,,,AFNE19.jpg,AFSA13.jpg,AFSA17.jpg,AFNE08.jpg,AFSA13.jpg,FS,4,num_6,32,num_8,1.46670744312,,,2017_Jun_21_1721,59.9342756148,FEMA4ImagesEEG,001,100808,
AFNE01.JPG,AFNE01.JPG,AFNE01.JPG,AFNE01.JPG,AFNE01.JPG,AFNE01.JPG,,,,,,,,,,,,,,,,,0,3,3,5,,,,,,,AFSA12.jpg,AFSA10.jpg,AFNE07.jpg,AFNE16.jpg,AFNE07.jpg,FN,3,num_2,32,num_8,1.16672627069,,,2017_Jun_21_1721,59.9342756148,FEMA4ImagesEEG,001,100808,
AFNE01.JPG,AFNE01.JPG,AFNE01.JPG,AFNE01.JPG,AFNE01.JPG,AFNE01.JPG,,,,,,,,,,,,,,,,,0,4,4,1,,,,,,,AFNE03.jpg,AFSA03.jpg,AFSA08.jpg,AFNE19.jpg,AFNE03.jpg,FN,3,num_8,16,num_8,1.23342364281,,,2017_Jun_21_1721,59.9342756148,FEMA4ImagesEEG,001,100808,
AFNE01.JPG,AFNE01.JPG,AFNE01.JPG,AFNE01.JPG,AFNE01.JPG,AFNE01.JPG,,,,,,,,,,,,,,,,,0,5,5,8,,,,,,,AFNE06.jpg,AFNE16.jpg,AFSA05.jpg,AFSA12.jpg,AFNE16.jpg,FN,3,num_6,16,num_6,0.7836310165,,,2017_Jun_21_1721,59.9342756148,FEMA4ImagesEEG,001,100808,
AFNE01.JPG,AFNE01.JPG,AFNE01.JPG,AFNE01.JPG,AFNE01.JPG,AFNE01.JPG,,,,,,,,,,,,,,,,,0,6,6,2,,,,,,,AFSA10.jpg,AFSA08.jpg,AFNE16.jpg,AFNE19.jpg,AFNE16.jpg,FN,3,num_2,32,num_4,1.28342686617,,,2017_Jun_21_1721,59.9342756148,FEMA4ImagesEEG,001,100808,
AFNE01.JPG,AFNE01.JPG,AFNE01.JPG,AFNE01.JPG,AFNE01.JPG,AFNE01.JPG,,,,,,,,,,,,,,,,,0,7,7,6,,,,,,,AFSA12.jpg,AFNE07.jpg,AFNE02.jpg,AFSA11.jpg,AFSA12.jpg,FS,4,num_8,16,num_8,1.10019792803,,,2017_Jun_21_1721,59.9342756148,FEMA4ImagesEEG,001,100808,
AFNE01.JPG,AFNE01.JPG,AFNE01.JPG,AFNE01.JPG,AFNE01.JPG,AFNE01.JPG,,,,,,,,,,,,,,,,,0,8,8,4,,,,,,,AFSA15.jpg,AFNE06.jpg,AFSA20.jpg,AFNE12.jpg,AFSA15.jpg,FS,4,num_8,32,num_6,1.30006039515,,,2017_Jun_21_1721,59.9342756148,FEMA4ImagesEEG,001,100808,
AFNE01.JPG,AFNE01.JPG,AFNE01.JPG,AFNE01.JPG,AFNE01.JPG,AFNE01.JPG,,,,,,,,,,,,,,,,,0,9,9,7,,,,,,,AFNE01.jpg,AFSA17.jpg,AFNE09.jpg,AFSA15.jpg,AFSA15.jpg,FS,4,num_4,16,num_4,0.750082349638,,,2017_Jun_21_1721,59.9342756148,FEMA4ImagesEEG,001,100808,
AFNE01.JPG,AFNE01.JPG,AFNE01.JPG,AFNE01.JPG,AFNE01.JPG,AFNE01.JPG,,,,,,,,,,,,,,,,,1,0,10,0,,,,,,,AFNE09.jpg,AFSA05.jpg,AFSA20.jpg,AFNE17.jpg,AFNE17.jpg,FN,3,num_4,32,num_2,1.63339650817,,,2017_Jun_21_1721,59.9342756148,FEMA4ImagesEEG,001,100808,
AFNE01.JPG,AFNE01.JPG,AFNE01.JPG,AFNE01.JPG,AFNE01.JPG,AFNE01.JPG,,,,,,,,,,,,,,,,,1,1,11,5,,,,,,,AFNE11.jpg,AFNE20.jpg,AFSA03.jpg,AFSA20.jpg,AFSA03.jpg,FS,4,num_2,16,num_2,1.56666994886,,,2017_Jun_21_1721,59.9342756148,FEMA4ImagesEEG,001,100808,
AFNE01.JPG,AFNE01.JPG,AFNE01.JPG,AFNE01.JPG,AFNE01.JPG,AFNE01.JPG,,,,,,,,,,,,,,,,,1,2,12,9,,,,,,,AFNE02.jpg,AFSA06.jpg,AFSA07.jpg,AFNE14.jpg,AFNE14.jpg,FN,3,num_4,32,num_8,1.53339615534,,,2017_Jun_21_1721,59.9342756148,FEMA4ImagesEEG,001,100808,
AFNE01.JPG,AFNE01.JPG,AFNE01.JPG,AFNE01.JPG,AFNE01.JPG,AFNE01.JPG,,,,,,,,,,,,,,,,,1,3,13,8,,,,,,,AFNE16.jpg,AFSA05.jpg,AFNE14.jpg,AFSA09.jpg,AFNE16.jpg,FN,3,num_8,32,num_4,0.783450119896,,,2017_Jun_21_1721,59.9342756148,FEMA4ImagesEEG,001,100808,
AFNE01.JPG,AFNE01.JPG,AFNE01.JPG,AFNE01.JPG,AFNE01.JPG,AFNE01.JPG,,,,,,,,,,,,,,,,,1,4,14,1,,,,,,,AFNE12.jpg,AFSA16.jpg,AFSA15.jpg,AFNE11.jpg,AFNE12.jpg,FN,3,num_8,16,num_8,1.68342956039,,,2017_Jun_21_1721,59.9342756148,FEMA4ImagesEEG,001,100808,
AFNE01.JPG,AFNE01.JPG,AFNE01.JPG,AFNE01.JPG,AFNE01.JPG,AFNE01.JPG,,,,,,,,,,,,,,,,,1,5,15,6,,,,,,,AFSA10.jpg,AFNE03.jpg,AFSA13.jpg,AFNE13.jpg,AFSA10.jpg,FS,4,num_8,16,num_8,1.51673408062,,,2017_Jun_21_1721,59.9342756148,FEMA4ImagesEEG,001,100808,
AFNE01.JPG,AFNE01.JPG,AFNE01.JPG,AFNE01.JPG,AFNE01.JPG,AFNE01.JPG,,,,,,,,,,,,,,,,,1,6,16,2,,,,,,,AFNE07.jpg,AFNE12.jpg,AFSA17.jpg,AFSA14.jpg,AFSA17.jpg,FS,4,num_2,16,num_2,1.93336004019,,,2017_Jun_21_1721,59.9342756148,FEMA4ImagesEEG,001,100808,
AFNE01.JPG,AFNE01.JPG,AFNE01.JPG,AFNE01.JPG,AFNE01.JPG,AFNE01.JPG,,,,,,,,,,,,,,,,,1,7,17,3,,,,,,,AFSA04.jpg,AFNE20.jpg,AFNE02.jpg,AFSA03.jpg,AFSA04.jpg,FS,4,num_8,16,num_8,2.86660878407,,,2017_Jun_21_1721,59.9342756148,FEMA4ImagesEEG,001,100808,
AFNE01.JPG,AFNE01.JPG,AFNE01.JPG,AFNE01.JPG,AFNE01.JPG,AFNE01.JPG,,,,,,,,,,,,,,,,,1,8,18,7,,,,,,,AFSA10.jpg,AFSA07.jpg,AFNE20.jpg,AFNE09.jpg,AFSA10.jpg,FS,4,num_8,32,num_4,0.7667434623,,,2017_Jun_21_1721,59.9342756148,FEMA4ImagesEEG,001,100808,
AFNE01.JPG,AFNE01.JPG,AFNE01.JPG,AFNE01.JPG,AFNE01.JPG,AFNE01.JPG,,,,,,,,,,,,,,,,,1,9,19,4,,,,,,,AFNE04.jpg,AFNE16.jpg,AFSA20.jpg,AFSA01.jpg,AFSA01.jpg,FS,4,num_4,16,num_4,3.26642352506,,,2017_Jun_21_1721,59.9342756148,FEMA4ImagesEEG,001,100808,
AFNE01.JPG,AFNE01.JPG,AFNE01.JPG,AFNE01.JPG,AFNE01.JPG,AFNE01.JPG,,,,,,,,,,,,,,,,,2,0,20,5,,,,,,,AFNE14.jpg,AFSA02.jpg,AFNE20.jpg,AFSA17.jpg,AFSA17.jpg,FS,4,num_4,32,num_2,1.7833917453,,,2017_Jun_21_1721,59.9342756148,FEMA4ImagesEEG,001,100808,
AFNE01.JPG,AFNE01.JPG,AFNE01.JPG,AFNE01.JPG,AFNE01.JPG,AFNE01.JPG,,,,,,,,,,,,,,,,,2,1,21,3,,,,,,,AFSA07.jpg,AFNE14.jpg,AFNE15.jpg,AFSA01.jpg,AFSA07.jpg,FS,4,num_8,16,num_8,1.85006377893,,,2017_Jun_21_1721,59.9342756148,FEMA4ImagesEEG,001,100808,
AFNE01.JPG,AFNE01.JPG,AFNE01.JPG,AFNE01.JPG,AFNE01.JPG,AFNE01.JPG,,,,,,,,,,,,,,,,,2,2,22,4,,,,,,,AFNE15.jpg,AFSA13.jpg,AFSA12.jpg,AFNE12.jpg,AFSA13.jpg,FS,4,num_6,32,num_4,1.50002581952,,,2017_Jun_21_1721,59.9342756148,FEMA4ImagesEEG,001,100808,
AFNE01.JPG,AFNE01.JPG,AFNE01.JPG,AFNE01.JPG,AFNE01.JPG,AFNE01.JPG,,,,,,,,,,,,,,,,,2,3,23,1,,,,,,,AFSA04.jpg,AFSA05.jpg,AFNE14.jpg,AFNE20.jpg,AFSA05.jpg,FS,4,num_6,16,num_6,1.08337548375,,,2017_Jun_21_1721,59.9342756148,FEMA4ImagesEEG,001,100808,
AFNE01.JPG,AFNE01.JPG,AFNE01.JPG,AFNE01.JPG,AFNE01.JPG,AFNE01.JPG,,,,,,,,,,,,,,,,,2,4,24,2,,,,,,,AFSA10.jpg,AFNE10.jpg,AFNE19.jpg,AFSA03.jpg,AFSA10.jpg,FS,4,num_8,16,num_8,1.93352201348,,,2017_Jun_21_1721,59.9342756148,FEMA4ImagesEEG,001,100808,
AFNE01.JPG,AFNE01.JPG,AFNE01.JPG,AFNE01.JPG,AFNE01.JPG,AFNE01.JPG,,,,,,,,,,,,,,,,,2,5,25,7,,,,,,,AFSA08.jpg,AFNE07.jpg,AFSA19.jpg,AFNE03.jpg,AFNE07.jpg,FN,3,num_6,32,num_8,1.2667243781,,,2017_Jun_21_1721,59.9342756148,FEMA4ImagesEEG,001,100808,
AFNE01.JPG,AFNE01.JPG,AFNE01.JPG,AFNE01.JPG,AFNE01.JPG,AFNE01.JPG,,,,,,,,,,,,,,,,,2,6,26,0,,,,,,,AFNE10.jpg,AFNE16.jpg,AFSA02.jpg,AFSA03.jpg,AFNE16.jpg,FN,3,num_6,16,num_6,0.584058176959,,,2017_Jun_21_1721,59.9342756148,FEMA4ImagesEEG,001,100808,
AFNE01.JPG,AFNE01.JPG,AFNE01.JPG,AFNE01.JPG,AFNE01.JPG,AFNE01.JPG,,,,,,,,,,,,,,,,,2,7,27,9,,,,,,,AFNE16.jpg,AFSA20.jpg,AFSA02.jpg,AFNE10.jpg,AFNE10.jpg,FN,3,num_4,32,num_2,1.94998394698,,,2017_Jun_21_1721,59.9342756148,FEMA4ImagesEEG,001,100808,
AFNE01.JPG,AFNE01.JPG,AFNE01.JPG,AFNE01.JPG,AFNE01.JPG,AFNE01.JPG,,,,,,,,,,,,,,,,,2,8,28,8,,,,,,,AFNE12.jpg,AFSA11.jpg,AFSA12.jpg,AFNE03.jpg,AFSA12.jpg,FS,4,num_2,32,num_4,1.65004831925,,,2017_Jun_21_1721,59.9342756148,FEMA4ImagesEEG,001,100808,
AFNE01.JPG,AFNE01.JPG,AFNE01.JPG,AFNE01.JPG,AFNE01.JPG,AFNE01.JPG,,,,,,,,,,,,,,,,,2,9,29,6,,,,,,,AFSA07.jpg,AFNE04.jpg,AFSA15.jpg,AFNE07.jpg,AFSA07.jpg,FS,4,num_8,16,num_8,1.03345084144,,,2017_Jun_21_1721,59.9342756148,FEMA4ImagesEEG,001,100808,
AFNE01.JPG,AFNE01.JPG,AFNE01.JPG,AFNE01.JPG,AFNE01.JPG,AFNE01.JPG,,,,,,,,,,,,,,,,,3,0,30,8,,,,,,,AFNE17.jpg,AFNE02.jpg,AFSA01.jpg,AFSA14.jpg,AFNE17.jpg,FN,3,num_8,16,num_8,1.1667095921,,,2017_Jun_21_1721,59.9342756148,FEMA4ImagesEEG,001,100808,
AFNE01.JPG,AFNE01.JPG,AFNE01.JPG,AFNE01.JPG,AFNE01.JPG,AFNE01.JPG,,,,,,,,,,,,,,,,,3,1,31,3,,,,,,,AFNE02.jpg,AFSA17.jpg,AFSA07.jpg,AFNE08.jpg,AFNE02.jpg,FN,3,num_8,16,num_8,1.0835284763,,,2017_Jun_21_1721,59.9342756148,FEMA4ImagesEEG,001,100808,
AFNE01.JPG,AFNE01.JPG,AFNE01.JPG,AFNE01.JPG,AFNE01.JPG,AFNE01.JPG,,,,,,,,,,,,,,,,,3,2,32,6,,,,,,,AFNE01.jpg,AFNE16.jpg,AFSA12.jpg,AFSA14.jpg,AFSA12.jpg,FS,4,num_2,16,num_2,1.93354446534,,,2017_Jun_21_1721,59.9342756148,FEMA4ImagesEEG,001,100808,
AFNE01.JPG,AFNE01.JPG,AFNE01.JPG,AFNE01.JPG,AFNE01.JPG,AFNE01.JPG,,,,,,,,,,,,,,,,,3,3,33,4,,,,,,,AFSA14.jpg,AFSA17.jpg,AFNE04.jpg,AFNE13.jpg,AFNE13.jpg,FN,3,num_4,32,num_8,1.3833858436,,,2017_Jun_21_1721,59.9342756148,FEMA4ImagesEEG,001,100808,
AFNE01.JPG,AFNE01.JPG,AFNE01.JPG,AFNE01.JPG,AFNE01.JPG,AFNE01.JPG,,,,,,,,,,,,,,,,,3,4,34,5,,,,,,,AFSA17.jpg,AFNE04.jpg,AFNE12.jpg,AFSA15.jpg,AFNE12.jpg,FN,3,num_2,32,num_4,1.38337525935,,,2017_Jun_21_1721,59.9342756148,FEMA4ImagesEEG,001,100808,
AFNE01.JPG,AFNE01.JPG,AFNE01.JPG,AFNE01.JPG,AFNE01.JPG,AFNE01.JPG,,,,,,,,,,,,,,,,,3,5,35,0,,,,,,,AFNE06.jpg,AFNE20.jpg,AFSA04.jpg,AFSA05.jpg,AFNE06.jpg,FN,3,num_8,32,num_4,1.1000657836,,,2017_Jun_21_1721,59.9342756148,FEMA4ImagesEEG,001,100808,
AFNE01.JPG,AFNE01.JPG,AFNE01.JPG,AFNE01.JPG,AFNE01.JPG,AFNE01.JPG,,,,,,,,,,,,,,,,,3,6,36,9,,,,,,,AFNE09.jpg,AFNE10.jpg,AFSA15.jpg,AFSA19.jpg,AFSA15.jpg,FS,4,num_2,16,num_2,1.550049891,,,2017_Jun_21_1721,59.9342756148,FEMA4ImagesEEG,001,100808,
AFNE01.JPG,AFNE01.JPG,AFNE01.JPG,AFNE01.JPG,AFNE01.JPG,AFNE01.JPG,,,,,,,,,,,,,,,,,3,7,37,2,,,,,,,AFNE18.jpg,AFSA12.jpg,AFNE09.jpg,AFSA02.jpg,AFNE18.jpg,FN,3,num_8,32,num_4,0.833561752923,,,2017_Jun_21_1721,59.9342756148,FEMA4ImagesEEG,001,100808,
AFNE01.JPG,AFNE01.JPG,AFNE01.JPG,AFNE01.JPG,AFNE01.JPG,AFNE01.JPG,,,,,,,,,,,,,,,,,3,8,38,1,,,,,,,AFNE16.jpg,AFNE20.jpg,AFSA04.jpg,AFSA06.jpg,AFNE20.jpg,FN,3,num_6,32,num_8,1.21683630021,,,2017_Jun_21_1721,59.9342756148,FEMA4ImagesEEG,001,100808,
AFNE01.JPG,AFNE01.JPG,AFNE01.JPG,AFNE01.JPG,AFNE01.JPG,AFNE01.JPG,,,,,,,,,,,,,,,,,3,9,39,7,,,,,,,AFNE13.jpg,AFSA05.jpg,AFNE19.jpg,AFSA12.jpg,AFSA05.jpg,FS,4,num_6,16,num_6,0.650119523518,,,2017_Jun_21_1721,59.9342756148,FEMA4ImagesEEG,001,100808,
AFNE01.JPG,AFNE01.JPG,AFNE01.JPG,AFNE01.JPG,AFNE01.JPG,AFNE01.JPG,,,,,,,,,,,,,,,,,4,0,40,8,,,,,,,AFNE02.jpg,AFSA05.jpg,AFNE09.jpg,AFSA07.jpg,AFSA05.jpg,FS,4,num_6,16,num_6,0.750089726644,,,2017_Jun_21_1721,59.9342756148,FEMA4ImagesEEG,001,100808,
AFNE01.JPG,AFNE01.JPG,AFNE01.JPG,AFNE01.JPG,AFNE01.JPG,AFNE01.JPG,,,,,,,,,,,,,,,,,4,1,41,3,,,,,,,AFNE10.jpg,AFNE11.jpg,AFSA06.jpg,AFSA17.jpg,AFNE10.jpg,FN,3,num_8,32,num_6,1.66675561829,,,2017_Jun_21_1721,59.9342756148,FEMA4ImagesEEG,001,100808,
AFNE01.JPG,AFNE01.JPG,AFNE01.JPG,AFNE01.JPG,AFNE01.JPG,AFNE01.JPG,,,,,,,,,,,,,,,,,4,2,42,0,,,,,,,AFNE20.jpg,AFSA02.jpg,AFSA04.jpg,AFNE16.jpg,AFNE20.jpg,FN,3,num_8,32,num_2,1.70000920538,,,2017_Jun_21_1721,59.9342756148,FEMA4ImagesEEG,001,100808,
AFNE01.JPG,AFNE01.JPG,AFNE01.JPG,AFNE01.JPG,AFNE01.JPG,AFNE01.JPG,,,,,,,,,,,,,,,,,4,3,43,2,,,,,,,AFSA14.jpg,AFSA19.jpg,AFNE07.jpg,AFNE16.jpg,AFSA14.jpg,FS,4,num_8,16,num_8,2.11665761657,,,2017_Jun_21_1721,59.9342756148,FEMA4ImagesEEG,001,100808,
AFNE01.JPG,AFNE01.JPG,AFNE01.JPG,AFNE01.JPG,AFNE01.JPG,AFNE01.JPG,,,,,,,,,,,,,,,,,4,4,44,5,,,,,,,AFSA06.jpg,AFNE10.jpg,AFNE01.jpg,AFSA13.jpg,AFSA06.jpg,FS,4,num_8,16,num_8,1.15007542167,,,2017_Jun_21_1721,59.9342756148,FEMA4ImagesEEG,001,100808,
AFNE01.JPG,AFNE01.JPG,AFNE01.JPG,AFNE01.JPG,AFNE01.JPG,AFNE01.JPG,,,,,,,,,,,,,,,,,4,5,45,9,,,,,,,AFSA06.jpg,AFNE05.jpg,AFSA15.jpg,AFNE19.jpg,AFSA15.jpg,FS,4,num_2,16,num_2,1.45012491173,,,2017_Jun_21_1721,59.9342756148,FEMA4ImagesEEG,001,100808,
AFNE01.JPG,AFNE01.JPG,AFNE01.JPG,AFNE01.JPG,AFNE01.JPG,AFNE01.JPG,,,,,,,,,,,,,,,,,4,6,46,6,,,,,,,AFSA17.jpg,AFNE04.jpg,AFSA03.jpg,AFNE12.jpg,AFSA17.jpg,FS,4,num_8,16,num_8,2.48357447027,,,2017_Jun_21_1721,59.9342756148,FEMA4ImagesEEG,001,100808,
AFNE01.JPG,AFNE01.JPG,AFNE01.JPG,AFNE01.JPG,AFNE01.JPG,AFNE01.JPG,,,,,,,,,,,,,,,,,4,7,47,4,,,,,,,AFNE02.jpg,AFSA10.jpg,AFNE16.jpg,AFSA09.jpg,AFNE16.jpg,FN,3,num_2,32,num_8,2.76661067619,,,2017_Jun_21_1721,59.9342756148,FEMA4ImagesEEG,001,100808,
AFNE01.JPG,AFNE01.JPG,AFNE01.JPG,AFNE01.JPG,AFNE01.JPG,AFNE01.JPG,,,,,,,,,,,,,,,,,4,8,48,1,,,,,,,AFNE13.jpg,AFSA15.jpg,AFSA01.jpg,AFNE04.jpg,AFSA15.jpg,FS,4,num_6,16,num_6,0.883414229145,,,2017_Jun_21_1721,59.9342756148,FEMA4ImagesEEG,001,100808,
AFNE01.JPG,AFNE01.JPG,AFNE01.JPG,AFNE01.JPG,AFNE01.JPG,AFNE01.JPG,,,,,,,,,,,,,,,,,4,9,49,7,,,,,,,AFNE04.jpg,AFSA09.jpg,AFSA20.jpg,AFNE11.jpg,AFNE04.jpg,FN,3,num_8,16,num_8,1.18344736123,,,2017_Jun_21_1721,59.9342756148,FEMA4ImagesEEG,001,100808,
AFNE01.JPG,AFNE01.JPG,AFNE01.JPG,AFNE01.JPG,AFNE01.JPG,AFNE01.JPG,,,,,,,,,,,,,,,,,5,0,50,8,,,,,,,AFNE12.jpg,AFSA11.jpg,AFSA03.jpg,AFNE10.jpg,AFSA03.jpg,FS,4,num_2,16,num_2,1.26676703664,,,2017_Jun_21_1721,59.9342756148,FEMA4ImagesEEG,001,100808,
AFNE01.JPG,AFNE01.JPG,AFNE01.JPG,AFNE01.JPG,AFNE01.JPG,AFNE01.JPG,,,,,,,,,,,,,,,,,5,1,51,1,,,,,,,AFNE08.jpg,AFNE07.jpg,AFSA19.jpg,AFSA09.jpg,AFNE08.jpg,FN,3,num_8,32,num_6,0.883397229947,,,2017_Jun_21_1721,59.9342756148,FEMA4ImagesEEG,001,100808,
AFNE01.JPG,AFNE01.JPG,AFNE01.JPG,AFNE01.JPG,AFNE01.JPG,AFNE01.JPG,,,,,,,,,,,,,,,,,5,2,52,7,,,,,,,AFNE17.jpg,AFNE10.jpg,AFSA04.jpg,AFSA20.jpg,AFNE10.jpg,FN,3,num_6,32,num_2,2.58330123266,,,2017_Jun_21_1721,59.9342756148,FEMA4ImagesEEG,001,100808,
AFNE01.JPG,AFNE01.JPG,AFNE01.JPG,AFNE01.JPG,AFNE01.JPG,AFNE01.JPG,,,,,,,,,,,,,,,,,5,3,53,6,,,,,,,AFSA19.jpg,AFSA02.jpg,AFNE20.jpg,AFNE06.jpg,AFNE20.jpg,FN,3,num_2,32,num_4,1.23339253129,,,2017_Jun_21_1721,59.9342756148,FEMA4ImagesEEG,001,100808,
AFNE01.JPG,AFNE01.JPG,AFNE01.JPG,AFNE01.JPG,AFNE01.JPG,AFNE01.JPG,,,,,,,,,,,,,,,,,5,4,54,3,,,,,,,AFNE18.jpg,AFNE13.jpg,AFSA10.jpg,AFSA04.jpg,AFSA10.jpg,FS,4,num_2,16,num_2,0.866466375766,,,2017_Jun_21_1721,59.9342756148,FEMA4ImagesEEG,001,100808,
AFNE01.JPG,AFNE01.JPG,AFNE01.JPG,AFNE01.JPG,AFNE01.JPG,AFNE01.JPG,,,,,,,,,,,,,,,,,5,5,55,4,,,,,,,AFNE03.jpg,AFSA13.jpg,AFNE16.jpg,AFSA08.jpg,AFSA13.jpg,FS,4,num_6,32,num_8,2.2999840593,,,2017_Jun_21_1721,59.9342756148,FEMA4ImagesEEG,001,100808,
AFNE01.JPG,AFNE01.JPG,AFNE01.JPG,AFNE01.JPG,AFNE01.JPG,AFNE01.JPG,,,,,,,,,,,,,,,,,5,6,56,9,,,,,,,AFSA01.jpg,AFNE07.jpg,AFSA11.jpg,AFNE19.jpg,AFNE19.jpg,FN,3,num_4,32,num_8,1.25007385015,,,2017_Jun_21_1721,59.9342756148,FEMA4ImagesEEG,001,100808,
AFNE01.JPG,AFNE01.JPG,AFNE01.JPG,AFNE01.JPG,AFNE01.JPG,AFNE01.JPG,,,,,,,,,,,,,,,,,5,7,57,5,,,,,,,AFNE01.jpg,AFSA17.jpg,AFSA07.jpg,AFNE10.jpg,AFSA07.jpg,FS,4,num_2,32,num_4,1.08353585331,,,2017_Jun_21_1721,59.9342756148,FEMA4ImagesEEG,001,100808,
AFNE01.JPG,AFNE01.JPG,AFNE01.JPG,AFNE01.JPG,AFNE01.JPG,AFNE01.JPG,,,,,,,,,,,,,,,,,5,8,58,0,,,,,,,AFSA03.jpg,AFNE01.jpg,AFNE06.jpg,AFSA07.jpg,AFNE06.jpg,FN,3,num_2,32,num_8,1.41673019971,,,2017_Jun_21_1721,59.9342756148,FEMA4ImagesEEG,001,100808,
AFNE01.JPG,AFNE01.JPG,AFNE01.JPG,AFNE01.JPG,AFNE01.JPG,AFNE01.JPG,,,,,,,,,,,,,,,,,5,9,59,2,,,,,,,AFSA16.jpg,AFNE16.jpg,AFNE14.jpg,AFSA12.jpg,AFSA16.jpg,FS,4,num_8,32,num_6,1.25005620974,,,2017_Jun_21_1721,59.9342756148,FEMA4ImagesEEG,001,100808,
,,,,,,,,,,,,,,,,,,,,,,,,,,,,,,,,,,,,,,,,,,,space,7.7661388691,2017_Jun_21_1721,59.9342756148,FEMA4ImagesEEG,001,100808,
AFNE01.JPG,AFNE01.JPG,AFNE01.JPG,AFNE01.JPG,AFNE01.JPG,AFNE01.JPG,,,,,,,,,,,,,,,,,,,,,0,0,0,8,,,AMSA13.jpg,AMNE20.jpg,AMNE01.jpg,AMSA04.jpg,AMNE01.jpg,MN,1,num_2,16,num_2,1.40010180254,,,2017_Jun_21_1721,59.9342756148,FEMA4ImagesEEG,001,100808,
AFNE01.JPG,AFNE01.JPG,AFNE01.JPG,AFNE01.JPG,AFNE01.JPG,AFNE01.JPG,,,,,,,,,,,,,,,,,,,,,0,1,1,3,,,AMNE10.jpg,AMSA03.jpg,AMSA06.jpg,AMNE19.jpg,AMNE19.jpg,MN,1,num_4,16,num_4,0.883434756426,,,2017_Jun_21_1721,59.9342756148,FEMA4ImagesEEG,001,100808,
AFNE01.JPG,AFNE01.JPG,AFNE01.JPG,AFNE01.JPG,AFNE01.JPG,AFNE01.JPG,,,,,,,,,,,,,,,,,,,,,0,2,2,5,,,AMSA17.jpg,AMNE13.jpg,AMNE08.jpg,AMSA02.jpg,AMNE13.jpg,MN,1,num_6,16,num_6,0.966874708654,,,2017_Jun_21_1721,59.9342756148,FEMA4ImagesEEG,001,100808,
AFNE01.JPG,AFNE01.JPG,AFNE01.JPG,AFNE01.JPG,AFNE01.JPG,AFNE01.JPG,,,,,,,,,,,,,,,,,,,,,0,3,3,1,,,AMSA02.jpg,AMNE15.jpg,AMNE14.jpg,AMSA11.jpg,AMSA11.jpg,MS,2,num_4,16,num_4,0.950129241915,,,2017_Jun_21_1721,59.9342756148,FEMA4ImagesEEG,001,100808,
AFNE01.JPG,AFNE01.JPG,AFNE01.JPG,AFNE01.JPG,AFNE01.JPG,AFNE01.JPG,,,,,,,,,,,,,,,,,,,,,0,4,4,9,,,AMSA03.jpg,AMNE01.jpg,AMNE12.jpg,AMSA20.jpg,AMNE01.jpg,MN,1,num_6,16,num_6,0.583527353592,,,2017_Jun_21_1721,59.9342756148,FEMA4ImagesEEG,001,100808,
AFNE01.JPG,AFNE01.JPG,AFNE01.JPG,AFNE01.JPG,AFNE01.JPG,AFNE01.JPG,,,,,,,,,,,,,,,,,,,,,0,5,5,6,,,AMSA18.jpg,AMNE12.jpg,AMSA07.jpg,AMNE13.jpg,AMSA07.jpg,MS,2,num_2,32,num_4,1.05005101347,,,2017_Jun_21_1721,59.9342756148,FEMA4ImagesEEG,001,100808,
AFNE01.JPG,AFNE01.JPG,AFNE01.JPG,AFNE01.JPG,AFNE01.JPG,AFNE01.JPG,,,,,,,,,,,,,,,,,,,,,0,6,6,7,,,AMNE06.jpg,AMSA05.jpg,AMSA20.jpg,AMNE03.jpg,AMNE03.jpg,MN,1,num_4,32,num_8,2.3666349242,,,2017_Jun_21_1721,59.9342756148,FEMA4ImagesEEG,001,100808,
AFNE01.JPG,AFNE01.JPG,AFNE01.JPG,AFNE01.JPG,AFNE01.JPG,AFNE01.JPG,,,,,,,,,,,,,,,,,,,,,0,7,7,2,,,AMNE16.jpg,AMNE12.jpg,AMSA16.jpg,AMSA07.jpg,AMSA16.jpg,MS,2,num_2,32,num_8,0.783529983833,,,2017_Jun_21_1721,59.9342756148,FEMA4ImagesEEG,001,100808,
AFNE01.JPG,AFNE01.JPG,AFNE01.JPG,AFNE01.JPG,AFNE01.JPG,AFNE01.JPG,,,,,,,,,,,,,,,,,,,,,0,8,8,0,,,AMSA04.jpg,AMNE11.jpg,AMNE08.jpg,AMSA18.jpg,AMSA04.jpg,MS,2,num_8,16,num_8,1.00010712678,,,2017_Jun_21_1721,59.9342756148,FEMA4ImagesEEG,001,100808,
AFNE01.JPG,AFNE01.JPG,AFNE01.JPG,AFNE01.JPG,AFNE01.JPG,AFNE01.JPG,,,,,,,,,,,,,,,,,,,,,0,9,9,4,,,AMNE05.jpg,AMSA18.jpg,AMSA13.jpg,AMNE04.jpg,AMNE04.jpg,MN,1,num_4,32,num_8,0.833439551527,,,2017_Jun_21_1721,59.9342756148,FEMA4ImagesEEG,001,100808,
AFNE01.JPG,AFNE01.JPG,AFNE01.JPG,AFNE01.JPG,AFNE01.JPG,AFNE01.JPG,,,,,,,,,,,,,,,,,,,,,1,0,10,2,,,AMNE07.jpg,AMSA06.jpg,AMNE19.jpg,AMSA14.jpg,AMSA14.jpg,MS,2,num_4,32,num_8,1.10009593307,,,2017_Jun_21_1721,59.9342756148,FEMA4ImagesEEG,001,100808,
AFNE01.JPG,AFNE01.JPG,AFNE01.JPG,AFNE01.JPG,AFNE01.JPG,AFNE01.JPG,,,,,,,,,,,,,,,,,,,,,1,1,11,8,,,AMSA09.jpg,AMNE05.jpg,AMSA12.jpg,AMNE14.jpg,AMNE14.jpg,MN,1,num_4,16,num_4,0.88342609629,,,2017_Jun_21_1721,59.9342756148,FEMA4ImagesEEG,001,100808,
AFNE01.JPG,AFNE01.JPG,AFNE01.JPG,AFNE01.JPG,AFNE01.JPG,AFNE01.JPG,,,,,,,,,,,,,,,,,,,,,1,2,12,7,,,AMNE16.jpg,AMSA14.jpg,AMSA12.jpg,AMNE14.jpg,AMSA12.jpg,MS,2,num_2,16,num_2,1.95000447449,,,2017_Jun_21_1721,59.9342756148,FEMA4ImagesEEG,001,100808,
AFNE01.JPG,AFNE01.JPG,AFNE01.JPG,AFNE01.JPG,AFNE01.JPG,AFNE01.JPG,,,,,,,,,,,,,,,,,,,,,1,3,13,4,,,AMSA04.jpg,AMSA18.jpg,AMNE08.jpg,AMNE18.jpg,AMNE18.jpg,MN,1,num_4,32,num_8,1.20007672068,,,2017_Jun_21_1721,59.9342756148,FEMA4ImagesEEG,001,100808,
AFNE01.JPG,AFNE01.JPG,AFNE01.JPG,AFNE01.JPG,AFNE01.JPG,AFNE01.JPG,,,,,,,,,,,,,,,,,,,,,1,4,14,6,,,AMNE15.jpg,AMNE05.jpg,AMSA03.jpg,AMSA14.jpg,AMNE05.jpg,MN,1,num_6,16,num_6,0.66680052178,,,2017_Jun_21_1721,59.9342756148,FEMA4ImagesEEG,001,100808,
AFNE01.JPG,AFNE01.JPG,AFNE01.JPG,AFNE01.JPG,AFNE01.JPG,AFNE01.JPG,,,,,,,,,,,,,,,,,,,,,1,5,15,9,,,AMNE03.jpg,AMNE08.jpg,AMSA16.jpg,AMSA09.jpg,AMNE08.jpg,MN,1,num_6,16,num_6,0.833504661452,,,2017_Jun_21_1721,59.9342756148,FEMA4ImagesEEG,001,100808,
AFNE01.JPG,AFNE01.JPG,AFNE01.JPG,AFNE01.JPG,AFNE01.JPG,AFNE01.JPG,,,,,,,,,,,,,,,,,,,,,1,6,16,3,,,AMSA13.jpg,AMNE17.jpg,AMSA04.jpg,AMNE12.jpg,AMNE12.jpg,MN,1,num_4,32,num_8,1.73368841293,,,2017_Jun_21_1721,59.9342756148,FEMA4ImagesEEG,001,100808,
AFNE01.JPG,AFNE01.JPG,AFNE01.JPG,AFNE01.JPG,AFNE01.JPG,AFNE01.JPG,,,,,,,,,,,,,,,,,,,,,1,7,17,5,,,AMSA18.jpg,AMNE20.jpg,AMNE05.jpg,AMSA07.jpg,AMNE20.jpg,MN,1,num_6,16,num_6,0.766814987175,,,2017_Jun_21_1721,59.9342756148,FEMA4ImagesEEG,001,100808,
AFNE01.JPG,AFNE01.JPG,AFNE01.JPG,AFNE01.JPG,AFNE01.JPG,AFNE01.JPG,,,,,,,,,,,,,,,,,,,,,1,8,18,1,,,AMNE11.jpg,AMNE01.jpg,AMSA13.jpg,AMSA19.jpg,AMSA13.jpg,MS,2,num_2,32,num_8,1.13343772315,,,2017_Jun_21_1721,59.9342756148,FEMA4ImagesEEG,001,100808,
AFNE01.JPG,AFNE01.JPG,AFNE01.JPG,AFNE01.JPG,AFNE01.JPG,AFNE01.JPG,,,,,,,,,,,,,,,,,,,,,1,9,19,0,,,AMNE14.jpg,AMNE01.jpg,AMSA17.jpg,AMSA10.jpg,AMSA17.jpg,MS,2,num_2,16,num_2,1.01671563834,,,2017_Jun_21_1721,59.9342756148,FEMA4ImagesEEG,001,100808,
AFNE01.JPG,AFNE01.JPG,AFNE01.JPG,AFNE01.JPG,AFNE01.JPG,AFNE01.JPG,,,,,,,,,,,,,,,,,,,,,2,0,20,5,,,AMSA15.jpg,AMNE07.jpg,AMNE08.jpg,AMSA20.jpg,AMNE08.jpg,MN,1,num_2,16,num_2,1.15012192912,,,2017_Jun_21_1721,59.9342756148,FEMA4ImagesEEG,001,100808,
AFNE01.JPG,AFNE01.JPG,AFNE01.JPG,AFNE01.JPG,AFNE01.JPG,AFNE01.JPG,,,,,,,,,,,,,,,,,,,,,2,1,21,9,,,AMNE16.jpg,AMSA12.jpg,AMSA07.jpg,AMNE03.jpg,AMSA07.jpg,MS,2,num_2,16,num_2,1.43336212495,,,2017_Jun_21_1721,59.9342756148,FEMA4ImagesEEG,001,100808,
AFNE01.JPG,AFNE01.JPG,AFNE01.JPG,AFNE01.JPG,AFNE01.JPG,AFNE01.JPG,,,,,,,,,,,,,,,,,,,,,2,2,22,4,,,AMNE04.jpg,AMSA02.jpg,AMNE05.jpg,AMSA08.jpg,AMSA08.jpg,MS,2,num_4,32,num_6,0.866740287049,,,2017_Jun_21_1721,59.9342756148,FEMA4ImagesEEG,001,100808,
AFNE01.JPG,AFNE01.JPG,AFNE01.JPG,AFNE01.JPG,AFNE01.JPG,AFNE01.JPG,,,,,,,,,,,,,,,,,,,,,2,3,23,0,,,AMNE03.jpg,AMSA15.jpg,AMSA14.jpg,AMNE04.jpg,AMSA14.jpg,MS,2,num_2,32,num_8,2.46661346685,,,2017_Jun_21_1721,59.9342756148,FEMA4ImagesEEG,001,100808,
AFNE01.JPG,AFNE01.JPG,AFNE01.JPG,AFNE01.JPG,AFNE01.JPG,AFNE01.JPG,,,,,,,,,,,,,,,,,,,,,2,4,24,1,,,AMNE20.jpg,AMNE11.jpg,AMSA06.jpg,AMSA20.jpg,AMNE11.jpg,MN,1,num_6,32,num_8,1.43306768662,,,2017_Jun_21_1721,59.9342756148,FEMA4ImagesEEG,001,100808,
AFNE01.JPG,AFNE01.JPG,AFNE01.JPG,AFNE01.JPG,AFNE01.JPG,AFNE01.JPG,,,,,,,,,,,,,,,,,,,,,2,5,25,6,,,AMSA15.jpg,AMNE03.jpg,AMNE11.jpg,AMSA13.jpg,AMSA15.jpg,MS,2,num_8,16,num_8,1.15009594895,,,2017_Jun_21_1721,59.9342756148,FEMA4ImagesEEG,001,100808,
AFNE01.JPG,AFNE01.JPG,AFNE01.JPG,AFNE01.JPG,AFNE01.JPG,AFNE01.JPG,,,,,,,,,,,,,,,,,,,,,2,6,26,2,,,AMNE19.jpg,AMNE14.jpg,AMSA12.jpg,AMSA05.jpg,AMSA05.jpg,MS,2,num_4,16,num_4,0.766760140657,,,2017_Jun_21_1721,59.9342756148,FEMA4ImagesEEG,001,100808,
AFNE01.JPG,AFNE01.JPG,AFNE01.JPG,AFNE01.JPG,AFNE01.JPG,AFNE01.JPG,,,,,,,,,,,,,,,,,,,,,2,7,27,7,,,AMNE03.jpg,AMSA07.jpg,AMNE01.jpg,AMSA13.jpg,AMNE03.jpg,MN,1,num_8,16,num_8,0.783535115654,,,2017_Jun_21_1721,59.9342756148,FEMA4ImagesEEG,001,100808,
AFNE01.JPG,AFNE01.JPG,AFNE01.JPG,AFNE01.JPG,AFNE01.JPG,AFNE01.JPG,,,,,,,,,,,,,,,,,,,,,2,8,28,8,,,AMSA17.jpg,AMNE09.jpg,AMNE15.jpg,AMSA15.jpg,AMSA17.jpg,MS,2,num_8,16,num_8,0.816808909178,,,2017_Jun_21_1721,59.9342756148,FEMA4ImagesEEG,001,100808,
AFNE01.JPG,AFNE01.JPG,AFNE01.JPG,AFNE01.JPG,AFNE01.JPG,AFNE01.JPG,,,,,,,,,,,,,,,,,,,,,2,9,29,3,,,AMNE17.jpg,AMSA14.jpg,AMSA03.jpg,AMNE01.jpg,AMNE01.jpg,MN,1,num_4,16,num_4,0.85015134071,,,2017_Jun_21_1721,59.9342756148,FEMA4ImagesEEG,001,100808,
AFNE01.JPG,AFNE01.JPG,AFNE01.JPG,AFNE01.JPG,AFNE01.JPG,AFNE01.JPG,,,,,,,,,,,,,,,,,,,,,3,0,30,1,,,AMNE18.jpg,AMSA08.jpg,AMSA09.jpg,AMNE01.jpg,AMNE01.jpg,MN,1,num_4,16,num_4,0.566791829886,,,2017_Jun_21_1721,59.9342756148,FEMA4ImagesEEG,001,100808,
AFNE01.JPG,AFNE01.JPG,AFNE01.JPG,AFNE01.JPG,AFNE01.JPG,AFNE01.JPG,,,,,,,,,,,,,,,,,,,,,3,1,31,0,,,AMNE11.jpg,AMNE17.jpg,AMSA18.jpg,AMSA12.jpg,AMNE11.jpg,MN,1,num_8,16,num_8,1.00007184572,,,2017_Jun_21_1721,59.9342756148,FEMA4ImagesEEG,001,100808,
AFNE01.JPG,AFNE01.JPG,AFNE01.JPG,AFNE01.JPG,AFNE01.JPG,AFNE01.JPG,,,,,,,,,,,,,,,,,,,,,3,2,32,3,,,AMSA15.jpg,AMSA14.jpg,AMNE12.jpg,AMNE11.jpg,AMNE11.jpg,MN,1,num_4,16,num_4,0.666808860842,,,2017_Jun_21_1721,59.9342756148,FEMA4ImagesEEG,001,100808,
AFNE01.JPG,AFNE01.JPG,AFNE01.JPG,AFNE01.JPG,AFNE01.JPG,AFNE01.JPG,,,,,,,,,,,,,,,,,,,,,3,3,33,5,,,AMSA16.jpg,AMSA06.jpg,AMNE07.jpg,AMNE14.jpg,AMNE14.jpg,MN,1,num_4,32,num_8,0.950123147806,,,2017_Jun_21_1721,59.9342756148,FEMA4ImagesEEG,001,100808,
AFNE01.JPG,AFNE01.JPG,AFNE01.JPG,AFNE01.JPG,AFNE01.JPG,AFNE01.JPG,,,,,,,,,,,,,,,,,,,,,3,4,34,9,,,AMNE18.jpg,AMSA19.jpg,AMSA15.jpg,AMNE07.jpg,AMNE07.jpg,MN,1,num_4,32,num_8,1.29995936225,,,2017_Jun_21_1721,59.9342756148,FEMA4ImagesEEG,001,100808,
AFNE01.JPG,AFNE01.JPG,AFNE01.JPG,AFNE01.JPG,AFNE01.JPG,AFNE01.JPG,,,,,,,,,,,,,,,,,,,,,3,5,35,4,,,AMNE12.jpg,AMSA14.jpg,AMSA18.jpg,AMNE16.jpg,AMSA14.jpg,MS,2,num_6,16,num_6,0.666544571985,,,2017_Jun_21_1721,59.9342756148,FEMA4ImagesEEG,001,100808,
AFNE01.JPG,AFNE01.JPG,AFNE01.JPG,AFNE01.JPG,AFNE01.JPG,AFNE01.JPG,,,,,,,,,,,,,,,,,,,,,3,6,36,2,,,AMSA04.jpg,AMNE12.jpg,AMSA14.jpg,AMNE02.jpg,AMSA04.jpg,MS,2,num_8,16,num_8,0.916740623768,,,2017_Jun_21_1721,59.9342756148,FEMA4ImagesEEG,001,100808,
AFNE01.JPG,AFNE01.JPG,AFNE01.JPG,AFNE01.JPG,AFNE01.JPG,AFNE01.JPG,,,,,,,,,,,,,,,,,,,,,3,7,37,6,,,AMNE11.jpg,AMNE02.jpg,AMSA12.jpg,AMSA19.jpg,AMSA12.jpg,MS,2,num_2,16,num_2,1.83336770581,,,2017_Jun_21_1721,59.9342756148,FEMA4ImagesEEG,001,100808,
AFNE01.JPG,AFNE01.JPG,AFNE01.JPG,AFNE01.JPG,AFNE01.JPG,AFNE01.JPG,,,,,,,,,,,,,,,,,,,,,3,8,38,8,,,AMNE14.jpg,AMSA09.jpg,AMSA04.jpg,AMNE12.jpg,AMNE12.jpg,MN,1,num_4,32,num_8,1.89994768752,,,2017_Jun_21_1721,59.9342756148,FEMA4ImagesEEG,001,100808,
AFNE01.JPG,AFNE01.JPG,AFNE01.JPG,AFNE01.JPG,AFNE01.JPG,AFNE01.JPG,,,,,,,,,,,,,,,,,,,,,3,9,39,7,,,AMNE04.jpg,AMNE15.jpg,AMSA02.jpg,AMSA10.jpg,AMNE04.jpg,MN,1,num_8,16,num_8,1.30011620396,,,2017_Jun_21_1721,59.9342756148,FEMA4ImagesEEG,001,100808,
