IPosition2,IPosition3,IPosition1,IPosition6,IPosition4,IPosition5,TrialsM1.thisRepN,TrialsM1.thisTrialN,TrialsM1.thisN,TrialsM1.thisIndex,TrialsF1.thisRepN,TrialsF1.thisTrialN,TrialsF1.thisN,TrialsF1.thisIndex,TrialsM2.thisRepN,TrialsM2.thisTrialN,TrialsM2.thisN,TrialsM2.thisIndex,TrialsF2.thisRepN,TrialsF2.thisTrialN,TrialsF2.thisN,TrialsF2.thisIndex,TrialsM3.thisRepN,TrialsM3.thisTrialN,TrialsM3.thisN,TrialsM3.thisIndex,TrialsF3.thisRepN,TrialsF3.thisTrialN,TrialsF3.thisN,TrialsF3.thisIndex,InstrKey_resp.keys,InstrKey_resp.rt,Image0 _Position,Image1 _Position,Image2 _Position,Image3 _Position,Center_image,condition,code,correct_answer,accuracy,Key_Resp.keys,Key_Resp.rt,BreakKey_resp.keys,BreakKey_resp.rt,date,frameRate,expName,session,participant,
,,,,,,,,,,,,,,,,,,,,,,,,,,,,,,space,18.7491402586,,,,,,,,,,,,,,2017_Jun_27_1257,60.0077372273,MAFE4ImagesEEG,001,100818,
AFNE22.JPG,AFSA24.JPG,AFSA22.JPG,AFNE25.JPG,AFNE24.JPG,AFSA25.JPG,0,0,0,6,,,,,,,,,,,,,,,,,,,,,,,AMNE09.jpg,AMSA10.jpg,AMSA17.jpg,AMNE03.jpg,AMSA10.jpg,MS,2,num_6,32,num_4,1.68342047817,,,2017_Jun_27_1257,60.0077372273,MAFE4ImagesEEG,001,100818,
AFSA21.JPG,AFNE22.JPG,AFNE21.JPG,AFSA23.JPG,AFSA22.JPG,AFNE23.JPG,0,1,1,0,,,,,,,,,,,,,,,,,,,,,,,AMSA02.jpg,AMSA20.jpg,AMNE04.jpg,AMNE14.jpg,AMSA20.jpg,MS,2,num_6,16,num_6,0.966732289904,,,2017_Jun_27_1257,60.0077372273,MAFE4ImagesEEG,001,100818,
AMSA21.JPG,AMNE22.JPG,AMNE21.JPG,AMSA23.JPG,AMSA22.JPG,AMNE23.JPG,0,2,2,1,,,,,,,,,,,,,,,,,,,,,,,AMNE01.jpg,AMSA15.jpg,AMNE18.jpg,AMSA13.jpg,AMNE01.jpg,MN,1,num_8,32,num_2,2.06668712983,,,2017_Jun_27_1257,60.0077372273,MAFE4ImagesEEG,001,100818,
AMNE23.JPG,AMNE24.JPG,AMNE22.JPG,AMSA24.JPG,AMSA22.JPG,AMSA23.JPG,0,3,3,9,,,,,,,,,,,,,,,,,,,,,,,AMNE04.jpg,AMSA03.jpg,AMNE10.jpg,AMSA17.jpg,AMSA17.jpg,MS,2,num_4,16,num_4,1.10013381239,,,2017_Jun_27_1257,60.0077372273,MAFE4ImagesEEG,001,100818,
AFNE23.JPG,AFNE24.JPG,AFNE22.JPG,AFSA24.JPG,AFSA22.JPG,AFSA23.JPG,0,4,4,8,,,,,,,,,,,,,,,,,,,,,,,AMSA09.jpg,AMNE15.jpg,AMSA13.jpg,AMNE13.jpg,AMNE13.jpg,MN,1,num_4,32,num_8,1.08354101196,,,2017_Jun_27_1257,60.0077372273,MAFE4ImagesEEG,001,100818,
AMSA25.JPG,AMNE24.JPG,AMSA24.JPG,AMNE26.JPG,AMSA21.JPG,AMNE25.JPG,0,5,5,3,,,,,,,,,,,,,,,,,,,,,,,AMSA08.jpg,AMNE15.jpg,AMSA18.jpg,AMNE02.jpg,AMSA18.jpg,MS,2,num_2,32,num_6,1.83309502412,,,2017_Jun_27_1257,60.0077372273,MAFE4ImagesEEG,001,100818,
AMNE22.JPG,AMSA24.JPG,AMSA22.JPG,AMNE25.JPG,AMNE24.JPG,AMSA25.JPG,0,6,6,7,,,,,,,,,,,,,,,,,,,,,,,AMSA19.jpg,AMNE12.jpg,AMSA11.jpg,AMNE14.jpg,AMSA11.jpg,MS,2,num_2,32,num_4,1.20010116114,,,2017_Jun_27_1257,60.0077372273,MAFE4ImagesEEG,001,100818,
AFSA25.JPG,AFNE24.JPG,AFSA24.JPG,AFNE21.JPG,AFSA21.JPG,AFNE25.JPG,0,7,7,2,,,,,,,,,,,,,,,,,,,,,,,AMSA08.jpg,AMSA17.jpg,AMNE15.jpg,AMNE20.jpg,AMSA17.jpg,MS,2,num_6,16,num_6,1.01678107434,,,2017_Jun_27_1257,60.0077372273,MAFE4ImagesEEG,001,100818,
AFSA21.JPG,AFNE23.JPG,AFNE21.JPG,AFSA25.JPG,AFNE25.JPG,AFSA23.JPG,0,8,8,4,,,,,,,,,,,,,,,,,,,,,,,AMNE01.jpg,AMSA11.jpg,AMNE20.jpg,AMSA17.jpg,AMNE20.jpg,MN,1,num_2,16,num_2,1.35009067297,,,2017_Jun_27_1257,60.0077372273,MAFE4ImagesEEG,001,100818,
AMSA21.JPG,AMNE23.JPG,AMNE21.JPG,AMSA25.JPG,AMNE25.JPG,AMSA23.JPG,0,9,9,5,,,,,,,,,,,,,,,,,,,,,,,AMNE09.jpg,AMSA13.jpg,AMSA07.jpg,AMNE02.jpg,AMSA07.jpg,MS,2,num_2,32,num_8,1.6500482071,,,2017_Jun_27_1257,60.0077372273,MAFE4ImagesEEG,001,100818,
AFNE23.JPG,AFNE24.JPG,AFNE22.JPG,AFSA24.JPG,AFSA22.JPG,AFSA23.JPG,,,,,0,0,0,8,,,,,,,,,,,,,,,,,,,AFNE05.jpg,AFSA03.jpg,AFSA11.jpg,AFNE10.jpg,AFNE05.jpg,FN,3,num_8,32,num_6,0.933502747772,,,2017_Jun_27_1257,60.0077372273,MAFE4ImagesEEG,001,100818,
AFSA25.JPG,AFNE24.JPG,AFSA24.JPG,AFNE21.JPG,AFSA21.JPG,AFNE25.JPG,,,,,0,1,1,2,,,,,,,,,,,,,,,,,,,AFSA20.jpg,AFNE05.jpg,AFNE09.jpg,AFSA07.jpg,AFNE05.jpg,FN,3,num_6,32,num_2,1.08341816885,,,2017_Jun_27_1257,60.0077372273,MAFE4ImagesEEG,001,100818,
AMSA21.JPG,AMNE23.JPG,AMNE21.JPG,AMSA25.JPG,AMNE25.JPG,AMSA23.JPG,,,,,0,2,2,5,,,,,,,,,,,,,,,,,,,AFNE12.jpg,AFSA16.jpg,AFSA15.jpg,AFNE18.jpg,AFSA16.jpg,FS,4,num_6,32,num_4,1.483401747,,,2017_Jun_27_1257,60.0077372273,MAFE4ImagesEEG,001,100818,
AFNE22.JPG,AFSA24.JPG,AFSA22.JPG,AFNE25.JPG,AFNE24.JPG,AFSA25.JPG,,,,,0,3,3,6,,,,,,,,,,,,,,,,,,,AFNE13.jpg,AFSA10.jpg,AFNE16.jpg,AFSA15.jpg,AFNE13.jpg,FN,3,num_8,32,num_6,0.85013365202,,,2017_Jun_27_1257,60.0077372273,MAFE4ImagesEEG,001,100818,
AMSA25.JPG,AMNE24.JPG,AMSA24.JPG,AMNE26.JPG,AMSA21.JPG,AMNE25.JPG,,,,,0,4,4,3,,,,,,,,,,,,,,,,,,,AFNE12.jpg,AFSA15.jpg,AFSA05.jpg,AFNE06.jpg,AFSA05.jpg,FS,4,num_2,16,num_2,1.31669274276,,,2017_Jun_27_1257,60.0077372273,MAFE4ImagesEEG,001,100818,
AFSA21.JPG,AFNE22.JPG,AFNE21.JPG,AFSA23.JPG,AFSA22.JPG,AFNE23.JPG,,,,,0,5,5,0,,,,,,,,,,,,,,,,,,,AFSA14.jpg,AFSA07.jpg,AFNE02.jpg,AFNE06.jpg,AFSA07.jpg,FS,4,num_6,32,num_8,0.700167874891,,,2017_Jun_27_1257,60.0077372273,MAFE4ImagesEEG,001,100818,
AMSA21.JPG,AMNE22.JPG,AMNE21.JPG,AMSA23.JPG,AMSA22.JPG,AMNE23.JPG,,,,,0,6,6,1,,,,,,,,,,,,,,,,,,,AFNE12.jpg,AFSA04.jpg,AFNE16.jpg,AFSA11.jpg,AFNE12.jpg,FN,3,num_8,32,num_6,1.01666143862,,,2017_Jun_27_1257,60.0077372273,MAFE4ImagesEEG,001,100818,
AFSA21.JPG,AFNE23.JPG,AFNE21.JPG,AFSA25.JPG,AFNE25.JPG,AFSA23.JPG,,,,,0,7,7,4,,,,,,,,,,,,,,,,,,,AFNE08.jpg,AFSA02.jpg,AFSA08.jpg,AFNE17.jpg,AFNE17.jpg,FN,3,num_4,32,num_8,1.5501148567,,,2017_Jun_27_1257,60.0077372273,MAFE4ImagesEEG,001,100818,
AMNE22.JPG,AMSA24.JPG,AMSA22.JPG,AMNE25.JPG,AMNE24.JPG,AMSA25.JPG,,,,,0,8,8,7,,,,,,,,,,,,,,,,,,,AFSA17.jpg,AFNE19.jpg,AFSA06.jpg,AFNE17.jpg,AFSA06.jpg,FS,4,num_2,16,num_2,1.0834864863,,,2017_Jun_27_1257,60.0077372273,MAFE4ImagesEEG,001,100818,
AMNE23.JPG,AMNE24.JPG,AMNE22.JPG,AMSA24.JPG,AMSA22.JPG,AMSA23.JPG,,,,,0,9,9,9,,,,,,,,,,,,,,,,,,,AFSA10.jpg,AFSA13.jpg,AFNE12.jpg,AFNE15.jpg,AFSA13.jpg,FS,4,num_6,16,num_6,0.850127237236,,,2017_Jun_27_1257,60.0077372273,MAFE4ImagesEEG,001,100818,
AFSA25.JPG,AFNE24.JPG,AFSA24.JPG,AFNE21.JPG,AFSA21.JPG,AFNE25.JPG,,,,,,,,,0,0,0,2,,,,,,,,,,,,,,,AMSA16.jpg,AMNE04.jpg,AMSA09.jpg,AMNE05.jpg,AMNE05.jpg,MN,1,num_4,16,num_4,1.00015940738,,,2017_Jun_27_1257,60.0077372273,MAFE4ImagesEEG,001,100818,
AFNE22.JPG,AFSA24.JPG,AFSA22.JPG,AFNE25.JPG,AFNE24.JPG,AFSA25.JPG,,,,,,,,,0,1,1,6,,,,,,,,,,,,,,,AMSA20.jpg,AMSA08.jpg,AMNE01.jpg,AMNE12.jpg,AMSA20.jpg,MS,2,num_8,16,num_8,1.28343240967,,,2017_Jun_27_1257,60.0077372273,MAFE4ImagesEEG,001,100818,
AMNE23.JPG,AMNE24.JPG,AMNE22.JPG,AMSA24.JPG,AMSA22.JPG,AMSA23.JPG,,,,,,,,,0,2,2,9,,,,,,,,,,,,,,,AMNE13.jpg,AMNE09.jpg,AMSA18.jpg,AMSA02.jpg,AMSA02.jpg,MS,2,num_4,16,num_4,0.983463328927,,,2017_Jun_27_1257,60.0077372273,MAFE4ImagesEEG,001,100818,
AFNE23.JPG,AFNE24.JPG,AFNE22.JPG,AFSA24.JPG,AFSA22.JPG,AFSA23.JPG,,,,,,,,,0,3,3,8,,,,,,,,,,,,,,,AMSA14.jpg,AMSA11.jpg,AMNE10.jpg,AMNE07.jpg,AMSA14.jpg,MS,2,num_8,16,num_8,1.20020508064,,,2017_Jun_27_1257,60.0077372273,MAFE4ImagesEEG,001,100818,
AMSA25.JPG,AMNE24.JPG,AMSA24.JPG,AMNE26.JPG,AMSA21.JPG,AMNE25.JPG,,,,,,,,,0,4,4,3,,,,,,,,,,,,,,,AMSA11.jpg,AMSA03.jpg,AMNE01.jpg,AMNE12.jpg,AMSA03.jpg,MS,2,num_6,32,num_2,1.76667346634,,,2017_Jun_27_1257,60.0077372273,MAFE4ImagesEEG,001,100818,
AMNE22.JPG,AMSA24.JPG,AMSA22.JPG,AMNE25.JPG,AMNE24.JPG,AMSA25.JPG,,,,,,,,,0,5,5,7,,,,,,,,,,,,,,,AMSA03.jpg,AMNE20.jpg,AMNE11.jpg,AMSA05.jpg,AMNE20.jpg,MN,1,num_6,32,num_4,1.18344966544,,,2017_Jun_27_1257,60.0077372273,MAFE4ImagesEEG,001,100818,
AFSA21.JPG,AFNE22.JPG,AFNE21.JPG,AFSA23.JPG,AFSA22.JPG,AFNE23.JPG,,,,,,,,,0,6,6,0,,,,,,,,,,,,,,,AMSA08.jpg,AMSA09.jpg,AMNE20.jpg,AMNE14.jpg,AMSA08.jpg,MS,2,num_8,32,num_6,1.33344591279,,,2017_Jun_27_1257,60.0077372273,MAFE4ImagesEEG,001,100818,
AMSA21.JPG,AMNE23.JPG,AMNE21.JPG,AMSA25.JPG,AMNE25.JPG,AMSA23.JPG,,,,,,,,,0,7,7,5,,,,,,,,,,,,,,,AMNE12.jpg,AMSA11.jpg,AMNE11.jpg,AMSA17.jpg,AMNE12.jpg,MN,1,num_8,16,num_8,1.3334500824,,,2017_Jun_27_1257,60.0077372273,MAFE4ImagesEEG,001,100818,
AMSA21.JPG,AMNE22.JPG,AMNE21.JPG,AMSA23.JPG,AMSA22.JPG,AMNE23.JPG,,,,,,,,,0,8,8,1,,,,,,,,,,,,,,,AMNE10.jpg,AMSA14.jpg,AMNE20.jpg,AMSA11.jpg,AMNE10.jpg,MN,1,num_8,32,num_4,0.96679355109,,,2017_Jun_27_1257,60.0077372273,MAFE4ImagesEEG,001,100818,
AFSA21.JPG,AFNE23.JPG,AFNE21.JPG,AFSA25.JPG,AFNE25.JPG,AFSA23.JPG,,,,,,,,,0,9,9,4,,,,,,,,,,,,,,,AMNE05.jpg,AMSA13.jpg,AMSA18.jpg,AMNE07.jpg,AMNE07.jpg,MN,1,num_4,16,num_4,1.4834344624,,,2017_Jun_27_1257,60.0077372273,MAFE4ImagesEEG,001,100818,
AFNE23.JPG,AFNE24.JPG,AFNE22.JPG,AFSA24.JPG,AFSA22.JPG,AFSA23.JPG,,,,,,,,,,,,,0,0,0,8,,,,,,,,,,,AFSA20.jpg,AFNE14.jpg,AFNE09.jpg,AFSA03.jpg,AFSA20.jpg,FS,4,num_8,32,num_4,1.35008329597,,,2017_Jun_27_1257,60.0077372273,MAFE4ImagesEEG,001,100818,
AMSA25.JPG,AMNE24.JPG,AMSA24.JPG,AMNE26.JPG,AMSA21.JPG,AMNE25.JPG,,,,,,,,,,,,,0,1,1,3,,,,,,,,,,,AFNE14.jpg,AFSA09.jpg,AFNE05.jpg,AFSA20.jpg,AFSA20.jpg,FS,4,num_4,32,num_6,1.10007928673,,,2017_Jun_27_1257,60.0077372273,MAFE4ImagesEEG,001,100818,
AFSA21.JPG,AFNE23.JPG,AFNE21.JPG,AFSA25.JPG,AFNE25.JPG,AFSA23.JPG,,,,,,,,,,,,,0,2,2,4,,,,,,,,,,,AFSA02.jpg,AFSA14.jpg,AFNE07.jpg,AFNE14.jpg,AFSA14.jpg,FS,4,num_6,32,num_4,1.05012191297,,,2017_Jun_27_1257,60.0077372273,MAFE4ImagesEEG,001,100818,
AMNE22.JPG,AMSA24.JPG,AMSA22.JPG,AMNE25.JPG,AMNE24.JPG,AMSA25.JPG,,,,,,,,,,,,,0,3,3,7,,,,,,,,,,,AFSA03.jpg,AFNE05.jpg,AFNE16.jpg,AFSA02.jpg,AFNE05.jpg,FN,3,num_6,32,num_2,1.4834655741,,,2017_Jun_27_1257,60.0077372273,MAFE4ImagesEEG,001,100818,
AFSA25.JPG,AFNE24.JPG,AFSA24.JPG,AFNE21.JPG,AFSA21.JPG,AFNE25.JPG,,,,,,,,,,,,,0,4,4,2,,,,,,,,,,,AFSA10.jpg,AFNE09.jpg,AFNE07.jpg,AFSA08.jpg,AFSA08.jpg,FS,4,num_4,16,num_4,0.883455567038,,,2017_Jun_27_1257,60.0077372273,MAFE4ImagesEEG,001,100818,
AFSA21.JPG,AFNE22.JPG,AFNE21.JPG,AFSA23.JPG,AFSA22.JPG,AFNE23.JPG,,,,,,,,,,,,,0,5,5,0,,,,,,,,,,,AFNE06.jpg,AFSA13.jpg,AFSA03.jpg,AFNE12.jpg,AFSA13.jpg,FS,4,num_6,32,num_4,1.20012329214,,,2017_Jun_27_1257,60.0077372273,MAFE4ImagesEEG,001,100818,
AMSA21.JPG,AMNE23.JPG,AMNE21.JPG,AMSA25.JPG,AMNE25.JPG,AMSA23.JPG,,,,,,,,,,,,,0,6,6,5,,,,,,,,,,,AFNE08.jpg,AFSA03.jpg,AFSA04.jpg,AFNE02.jpg,AFSA03.jpg,FS,4,num_6,32,num_2,1.70007229461,,,2017_Jun_27_1257,60.0077372273,MAFE4ImagesEEG,001,100818,
AFNE22.JPG,AFSA24.JPG,AFSA22.JPG,AFNE25.JPG,AFNE24.JPG,AFSA25.JPG,,,,,,,,,,,,,0,7,7,6,,,,,,,,,,,AFNE10.jpg,AFSA18.jpg,AFNE03.jpg,AFSA15.jpg,AFSA18.jpg,FS,4,num_6,32,num_4,1.11676638448,,,2017_Jun_27_1257,60.0077372273,MAFE4ImagesEEG,001,100818,
AMSA21.JPG,AMNE22.JPG,AMNE21.JPG,AMSA23.JPG,AMSA22.JPG,AMNE23.JPG,,,,,,,,,,,,,0,8,8,1,,,,,,,,,,,AFSA09.jpg,AFSA03.jpg,AFNE18.jpg,AFNE10.jpg,AFSA09.jpg,FS,4,num_8,16,num_8,0.700140932799,,,2017_Jun_27_1257,60.0077372273,MAFE4ImagesEEG,001,100818,
AMNE23.JPG,AMNE24.JPG,AMNE22.JPG,AMSA24.JPG,AMSA22.JPG,AMSA23.JPG,,,,,,,,,,,,,0,9,9,9,,,,,,,,,,,AFNE02.jpg,AFSA12.jpg,AFSA17.jpg,AFNE18.jpg,AFNE18.jpg,FN,3,num_4,16,num_4,0.933477730116,,,2017_Jun_27_1257,60.0077372273,MAFE4ImagesEEG,001,100818,
AMSA21.JPG,AMNE23.JPG,AMNE21.JPG,AMSA25.JPG,AMNE25.JPG,AMSA23.JPG,,,,,,,,,,,,,,,,,0,0,0,5,,,,,,,AMSA04.jpg,AMNE17.jpg,AMSA16.jpg,AMNE09.jpg,AMNE17.jpg,MN,1,num_6,32,num_4,0.883630049157,,,2017_Jun_27_1257,60.0077372273,MAFE4ImagesEEG,001,100818,
AMNE22.JPG,AMSA24.JPG,AMSA22.JPG,AMNE25.JPG,AMNE24.JPG,AMSA25.JPG,,,,,,,,,,,,,,,,,0,1,1,7,,,,,,,AMNE12.jpg,AMSA03.jpg,AMSA11.jpg,AMNE16.jpg,AMSA11.jpg,MS,2,num_2,32,num_6,0.716854010427,,,2017_Jun_27_1257,60.0077372273,MAFE4ImagesEEG,001,100818,
AFNE23.JPG,AFNE24.JPG,AFNE22.JPG,AFSA24.JPG,AFSA22.JPG,AFSA23.JPG,,,,,,,,,,,,,,,,,0,2,2,8,,,,,,,AMNE10.jpg,AMSA02.jpg,AMNE05.jpg,AMSA09.jpg,AMNE05.jpg,MN,1,num_2,32,num_8,1.03347554909,,,2017_Jun_27_1257,60.0077372273,MAFE4ImagesEEG,001,100818,
AMSA21.JPG,AMNE22.JPG,AMNE21.JPG,AMSA23.JPG,AMSA22.JPG,AMNE23.JPG,,,,,,,,,,,,,,,,,0,3,3,1,,,,,,,AMNE06.jpg,AMNE05.jpg,AMSA06.jpg,AMSA03.jpg,AMSA03.jpg,MS,2,num_4,16,num_4,1.00012957863,,,2017_Jun_27_1257,60.0077372273,MAFE4ImagesEEG,001,100818,
AFSA21.JPG,AFNE23.JPG,AFNE21.JPG,AFSA25.JPG,AFNE25.JPG,AFSA23.JPG,,,,,,,,,,,,,,,,,0,4,4,4,,,,,,,AMNE03.jpg,AMNE15.jpg,AMSA11.jpg,AMSA04.jpg,AMNE15.jpg,MN,1,num_6,32,num_8,1.10015401896,,,2017_Jun_27_1257,60.0077372273,MAFE4ImagesEEG,001,100818,
AFSA25.JPG,AFNE24.JPG,AFSA24.JPG,AFNE21.JPG,AFSA21.JPG,AFNE25.JPG,,,,,,,,,,,,,,,,,0,5,5,2,,,,,,,AMSA20.jpg,AMNE05.jpg,AMSA16.jpg,AMNE08.jpg,AMNE08.jpg,MN,1,num_4,16,num_4,0.933794620434,,,2017_Jun_27_1257,60.0077372273,MAFE4ImagesEEG,001,100818,
AFSA21.JPG,AFNE22.JPG,AFNE21.JPG,AFSA23.JPG,AFSA22.JPG,AFNE23.JPG,,,,,,,,,,,,,,,,,0,6,6,0,,,,,,,AMNE04.jpg,AMNE02.jpg,AMSA16.jpg,AMSA02.jpg,AMSA02.jpg,MS,2,num_4,32,num_6,1.86655838512,,,2017_Jun_27_1257,60.0077372273,MAFE4ImagesEEG,001,100818,
AFNE22.JPG,AFSA24.JPG,AFSA22.JPG,AFNE25.JPG,AFNE24.JPG,AFSA25.JPG,,,,,,,,,,,,,,,,,0,7,7,6,,,,,,,AMSA07.jpg,AMNE11.jpg,AMNE02.jpg,AMSA19.jpg,AMNE11.jpg,MN,1,num_6,32,num_4,0.833450082397,,,2017_Jun_27_1257,60.0077372273,MAFE4ImagesEEG,001,100818,
AMNE23.JPG,AMNE24.JPG,AMNE22.JPG,AMSA24.JPG,AMSA22.JPG,AMSA23.JPG,,,,,,,,,,,,,,,,,0,8,8,9,,,,,,,AMSA02.jpg,AMSA11.jpg,AMNE01.jpg,AMNE05.jpg,AMNE01.jpg,MN,1,num_2,32,num_6,1.03344411665,,,2017_Jun_27_1257,60.0077372273,MAFE4ImagesEEG,001,100818,
AMSA25.JPG,AMNE24.JPG,AMSA24.JPG,AMNE26.JPG,AMSA21.JPG,AMNE25.JPG,,,,,,,,,,,,,,,,,0,9,9,3,,,,,,,AMSA19.jpg,AMSA11.jpg,AMNE09.jpg,AMNE18.jpg,AMSA11.jpg,MS,2,num_6,16,num_6,1.01675413224,,,2017_Jun_27_1257,60.0077372273,MAFE4ImagesEEG,001,100818,
AMSA21.JPG,AMNE22.JPG,AMNE21.JPG,AMSA23.JPG,AMSA22.JPG,AMNE23.JPG,,,,,,,,,,,,,,,,,,,,,0,0,0,1,,,AFNE11.jpg,AFSA15.jpg,AFSA11.jpg,AFNE01.jpg,AFNE11.jpg,FN,3,num_8,32,num_4,0.900085573216,,,2017_Jun_27_1257,60.0077372273,MAFE4ImagesEEG,001,100818,
AFSA21.JPG,AFNE23.JPG,AFNE21.JPG,AFSA25.JPG,AFNE25.JPG,AFSA23.JPG,,,,,,,,,,,,,,,,,,,,,0,1,1,4,,,AFNE08.jpg,AFSA17.jpg,AFNE17.jpg,AFSA20.jpg,AFNE17.jpg,FN,3,num_2,32,num_8,0.683470834223,,,2017_Jun_27_1257,60.0077372273,MAFE4ImagesEEG,001,100818,
AFNE23.JPG,AFNE24.JPG,AFNE22.JPG,AFSA24.JPG,AFSA22.JPG,AFSA23.JPG,,,,,,,,,,,,,,,,,,,,,0,2,2,8,,,AFNE17.jpg,AFSA13.jpg,AFNE16.jpg,AFSA10.jpg,AFSA10.jpg,FS,4,num_4,16,num_4,1.08351695652,,,2017_Jun_27_1257,60.0077372273,MAFE4ImagesEEG,001,100818,
AFNE22.JPG,AFSA24.JPG,AFSA22.JPG,AFNE25.JPG,AFNE24.JPG,AFSA25.JPG,,,,,,,,,,,,,,,,,,,,,0,3,3,6,,,AFNE04.jpg,AFNE18.jpg,AFSA11.jpg,AFSA05.jpg,AFSA11.jpg,FS,4,num_2,32,num_6,0.900128231528,,,2017_Jun_27_1257,60.0077372273,MAFE4ImagesEEG,001,100818,
AMSA25.JPG,AMNE24.JPG,AMSA24.JPG,AMNE26.JPG,AMSA21.JPG,AMNE25.JPG,,,,,,,,,,,,,,,,,,,,,0,4,4,3,,,AFNE02.jpg,AFNE20.jpg,AFSA20.jpg,AFSA08.jpg,AFSA08.jpg,FS,4,num_4,32,num_8,1.26678668727,,,2017_Jun_27_1257,60.0077372273,MAFE4ImagesEEG,001,100818,
AFSA21.JPG,AFNE22.JPG,AFNE21.JPG,AFSA23.JPG,AFSA22.JPG,AFNE23.JPG,,,,,,,,,,,,,,,,,,,,,0,5,5,0,,,AFNE11.jpg,AFNE04.jpg,AFSA01.jpg,AFSA04.jpg,AFNE11.jpg,FN,3,num_8,32,num_4,0.983477762191,,,2017_Jun_27_1257,60.0077372273,MAFE4ImagesEEG,001,100818,
AMSA21.JPG,AMNE23.JPG,AMNE21.JPG,AMSA25.JPG,AMNE25.JPG,AMSA23.JPG,,,,,,,,,,,,,,,,,,,,,0,6,6,5,,,AFSA01.jpg,AFNE16.jpg,AFSA12.jpg,AFNE19.jpg,AFNE19.jpg,FN,3,num_4,16,num_4,0.950097793379,,,2017_Jun_27_1257,60.0077372273,MAFE4ImagesEEG,001,100818,
AMNE22.JPG,AMSA24.JPG,AMSA22.JPG,AMNE25.JPG,AMNE24.JPG,AMSA25.JPG,,,,,,,,,,,,,,,,,,,,,0,7,7,7,,,AFNE04.jpg,AFSA13.jpg,AFNE12.jpg,AFSA01.jpg,AFNE12.jpg,FN,3,num_2,16,num_2,1.08343645098,,,2017_Jun_27_1257,60.0077372273,MAFE4ImagesEEG,001,100818,
AMNE23.JPG,AMNE24.JPG,AMNE22.JPG,AMSA24.JPG,AMSA22.JPG,AMSA23.JPG,,,,,,,,,,,,,,,,,,,,,0,8,8,9,,,AFSA05.jpg,AFNE10.jpg,AFSA14.jpg,AFNE19.jpg,AFSA05.jpg,FS,4,num_8,32,num_4,1.1666211217,,,2017_Jun_27_1257,60.0077372273,MAFE4ImagesEEG,001,100818,
AFSA25.JPG,AFNE24.JPG,AFSA24.JPG,AFNE21.JPG,AFSA21.JPG,AFNE25.JPG,,,,,,,,,,,,,,,,,,,,,0,9,9,2,,,AFNE15.jpg,AFSA06.jpg,AFSA18.jpg,AFNE03.jpg,AFNE03.jpg,FN,3,num_4,16,num_4,1.316774852,,,2017_Jun_27_1257,60.0077372273,MAFE4ImagesEEG,001,100818,
,,,,,,,,,,,,,,,,,,,,,,,,,,,,,,,,,,,,,,,,,,,space,33.44780098,2017_Jun_27_1257,60.0077372273,MAFE4ImagesEEG,001,100818,
AFNE01.JPG,AFNE01.JPG,AFNE01.JPG,AFNE01.JPG,AFNE01.JPG,AFNE01.JPG,0,0,0,3,,,,,,,,,,,,,,,,,,,,,,,AMSA16.jpg,AMSA15.jpg,AMNE06.jpg,AMNE04.jpg,AMNE06.jpg,MN,1,num_2,32,num_6,0.983470705929,,,2017_Jun_27_1257,60.0077372273,MAFE4ImagesEEG,001,100818,
AFNE01.JPG,AFNE01.JPG,AFNE01.JPG,AFNE01.JPG,AFNE01.JPG,AFNE01.JPG,0,1,1,0,,,,,,,,,,,,,,,,,,,,,,,AMSA01.jpg,AMSA07.jpg,AMNE18.jpg,AMNE01.jpg,AMSA01.jpg,MS,2,num_8,16,num_8,2.0833662091,,,2017_Jun_27_1257,60.0077372273,MAFE4ImagesEEG,001,100818,
AFNE01.JPG,AFNE01.JPG,AFNE01.JPG,AFNE01.JPG,AFNE01.JPG,AFNE01.JPG,0,2,2,2,,,,,,,,,,,,,,,,,,,,,,,AMNE07.jpg,AMNE20.jpg,AMSA18.jpg,AMSA16.jpg,AMSA16.jpg,MS,2,num_4,16,num_4,0.616801024313,,,2017_Jun_27_1257,60.0077372273,MAFE4ImagesEEG,001,100818,
AFNE01.JPG,AFNE01.JPG,AFNE01.JPG,AFNE01.JPG,AFNE01.JPG,AFNE01.JPG,0,3,3,5,,,,,,,,,,,,,,,,,,,,,,,AMSA11.jpg,AMNE15.jpg,AMSA17.jpg,AMNE08.jpg,AMSA17.jpg,MS,2,num_2,32,num_8,0.716788258893,,,2017_Jun_27_1257,60.0077372273,MAFE4ImagesEEG,001,100818,
AFNE01.JPG,AFNE01.JPG,AFNE01.JPG,AFNE01.JPG,AFNE01.JPG,AFNE01.JPG,0,4,4,4,,,,,,,,,,,,,,,,,,,,,,,AMSA15.jpg,AMSA10.jpg,AMNE08.jpg,AMNE11.jpg,AMNE08.jpg,MN,1,num_2,32,num_4,0.850353999842,,,2017_Jun_27_1257,60.0077372273,MAFE4ImagesEEG,001,100818,
AFNE01.JPG,AFNE01.JPG,AFNE01.JPG,AFNE01.JPG,AFNE01.JPG,AFNE01.JPG,0,5,5,8,,,,,,,,,,,,,,,,,,,,,,,AMNE07.jpg,AMSA20.jpg,AMSA13.jpg,AMNE19.jpg,AMSA20.jpg,MS,2,num_6,16,num_6,0.766807856056,,,2017_Jun_27_1257,60.0077372273,MAFE4ImagesEEG,001,100818,
AFNE01.JPG,AFNE01.JPG,AFNE01.JPG,AFNE01.JPG,AFNE01.JPG,AFNE01.JPG,0,6,6,1,,,,,,,,,,,,,,,,,,,,,,,AMSA07.jpg,AMNE02.jpg,AMSA01.jpg,AMNE10.jpg,AMNE02.jpg,MN,1,num_6,32,num_4,0.883458132952,,,2017_Jun_27_1257,60.0077372273,MAFE4ImagesEEG,001,100818,
AFNE01.JPG,AFNE01.JPG,AFNE01.JPG,AFNE01.JPG,AFNE01.JPG,AFNE01.JPG,0,7,7,7,,,,,,,,,,,,,,,,,,,,,,,AMNE05.jpg,AMSA09.jpg,AMSA13.jpg,AMNE11.jpg,AMNE11.jpg,MN,1,num_4,32,num_2,0.933457202809,,,2017_Jun_27_1257,60.0077372273,MAFE4ImagesEEG,001,100818,
AFNE01.JPG,AFNE01.JPG,AFNE01.JPG,AFNE01.JPG,AFNE01.JPG,AFNE01.JPG,0,8,8,9,,,,,,,,,,,,,,,,,,,,,,,AMSA13.jpg,AMNE12.jpg,AMNE07.jpg,AMSA16.jpg,AMNE12.jpg,MN,1,num_6,16,num_6,0.783465766544,,,2017_Jun_27_1257,60.0077372273,MAFE4ImagesEEG,001,100818,
AFNE01.JPG,AFNE01.JPG,AFNE01.JPG,AFNE01.JPG,AFNE01.JPG,AFNE01.JPG,0,9,9,6,,,,,,,,,,,,,,,,,,,,,,,AMSA13.jpg,AMNE08.jpg,AMNE12.jpg,AMSA17.jpg,AMNE12.jpg,MN,1,num_2,32,num_6,1.00010552319,,,2017_Jun_27_1257,60.0077372273,MAFE4ImagesEEG,001,100818,
AFNE01.JPG,AFNE01.JPG,AFNE01.JPG,AFNE01.JPG,AFNE01.JPG,AFNE01.JPG,1,0,10,3,,,,,,,,,,,,,,,,,,,,,,,AMSA12.jpg,AMSA19.jpg,AMNE08.jpg,AMNE20.jpg,AMNE08.jpg,MN,1,num_2,32,num_4,0.666873543443,,,2017_Jun_27_1257,60.0077372273,MAFE4ImagesEEG,001,100818,
AFNE01.JPG,AFNE01.JPG,AFNE01.JPG,AFNE01.JPG,AFNE01.JPG,AFNE01.JPG,1,1,11,0,,,,,,,,,,,,,,,,,,,,,,,AMSA03.jpg,AMSA09.jpg,AMNE03.jpg,AMNE09.jpg,AMSA09.jpg,MS,2,num_6,32,num_8,0.583532993478,,,2017_Jun_27_1257,60.0077372273,MAFE4ImagesEEG,001,100818,
AFNE01.JPG,AFNE01.JPG,AFNE01.JPG,AFNE01.JPG,AFNE01.JPG,AFNE01.JPG,1,2,12,8,,,,,,,,,,,,,,,,,,,,,,,AMSA07.jpg,AMSA17.jpg,AMNE20.jpg,AMNE15.jpg,AMNE20.jpg,MN,1,num_2,16,num_2,1.06677212571,,,2017_Jun_27_1257,60.0077372273,MAFE4ImagesEEG,001,100818,
AFNE01.JPG,AFNE01.JPG,AFNE01.JPG,AFNE01.JPG,AFNE01.JPG,AFNE01.JPG,1,3,13,7,,,,,,,,,,,,,,,,,,,,,,,AMNE14.jpg,AMSA02.jpg,AMSA03.jpg,AMNE07.jpg,AMSA02.jpg,MS,2,num_6,32,num_4,0.833493382188,,,2017_Jun_27_1257,60.0077372273,MAFE4ImagesEEG,001,100818,
AFNE01.JPG,AFNE01.JPG,AFNE01.JPG,AFNE01.JPG,AFNE01.JPG,AFNE01.JPG,1,4,14,4,,,,,,,,,,,,,,,,,,,,,,,AMNE13.jpg,AMSA10.jpg,AMNE05.jpg,AMSA05.jpg,AMNE13.jpg,MN,1,num_8,32,num_2,0.683485908965,,,2017_Jun_27_1257,60.0077372273,MAFE4ImagesEEG,001,100818,
AFNE01.JPG,AFNE01.JPG,AFNE01.JPG,AFNE01.JPG,AFNE01.JPG,AFNE01.JPG,1,5,15,5,,,,,,,,,,,,,,,,,,,,,,,AMSA18.jpg,AMNE12.jpg,AMNE20.jpg,AMSA12.jpg,AMSA18.jpg,MS,2,num_8,32,num_4,0.866771997415,,,2017_Jun_27_1257,60.0077372273,MAFE4ImagesEEG,001,100818,
AFNE01.JPG,AFNE01.JPG,AFNE01.JPG,AFNE01.JPG,AFNE01.JPG,AFNE01.JPG,1,6,16,6,,,,,,,,,,,,,,,,,,,,,,,AMNE15.jpg,AMNE11.jpg,AMSA11.jpg,AMSA17.jpg,AMNE15.jpg,MN,1,num_8,16,num_8,1.05012896923,,,2017_Jun_27_1257,60.0077372273,MAFE4ImagesEEG,001,100818,
AFNE01.JPG,AFNE01.JPG,AFNE01.JPG,AFNE01.JPG,AFNE01.JPG,AFNE01.JPG,1,7,17,9,,,,,,,,,,,,,,,,,,,,,,,AMNE06.jpg,AMSA10.jpg,AMNE14.jpg,AMSA19.jpg,AMNE14.jpg,MN,1,num_2,32,num_4,1.05010555527,,,2017_Jun_27_1257,60.0077372273,MAFE4ImagesEEG,001,100818,
AFNE01.JPG,AFNE01.JPG,AFNE01.JPG,AFNE01.JPG,AFNE01.JPG,AFNE01.JPG,1,8,18,1,,,,,,,,,,,,,,,,,,,,,,,AMNE05.jpg,AMNE14.jpg,AMSA06.jpg,AMSA15.jpg,AMNE05.jpg,MN,1,num_8,32,num_6,0.766769046617,,,2017_Jun_27_1257,60.0077372273,MAFE4ImagesEEG,001,100818,
AFNE01.JPG,AFNE01.JPG,AFNE01.JPG,AFNE01.JPG,AFNE01.JPG,AFNE01.JPG,1,9,19,2,,,,,,,,,,,,,,,,,,,,,,,AMNE19.jpg,AMNE07.jpg,AMSA13.jpg,AMSA09.jpg,AMNE19.jpg,MN,1,num_8,32,num_2,0.866802467639,,,2017_Jun_27_1257,60.0077372273,MAFE4ImagesEEG,001,100818,
AFNE01.JPG,AFNE01.JPG,AFNE01.JPG,AFNE01.JPG,AFNE01.JPG,AFNE01.JPG,2,0,20,4,,,,,,,,,,,,,,,,,,,,,,,AMNE03.jpg,AMSA01.jpg,AMNE01.jpg,AMSA16.jpg,AMSA16.jpg,MS,2,num_4,16,num_4,0.950178298915,,,2017_Jun_27_1257,60.0077372273,MAFE4ImagesEEG,001,100818,
AFNE01.JPG,AFNE01.JPG,AFNE01.JPG,AFNE01.JPG,AFNE01.JPG,AFNE01.JPG,2,1,21,2,,,,,,,,,,,,,,,,,,,,,,,AMSA18.jpg,AMNE04.jpg,AMNE07.jpg,AMSA02.jpg,AMNE04.jpg,MN,1,num_6,16,num_6,0.766719011302,,,2017_Jun_27_1257,60.0077372273,MAFE4ImagesEEG,001,100818,
AFNE01.JPG,AFNE01.JPG,AFNE01.JPG,AFNE01.JPG,AFNE01.JPG,AFNE01.JPG,2,2,22,1,,,,,,,,,,,,,,,,,,,,,,,AMNE05.jpg,AMSA20.jpg,AMNE03.jpg,AMSA02.jpg,AMNE03.jpg,MN,1,num_2,32,num_8,1.30009384829,,,2017_Jun_27_1257,60.0077372273,MAFE4ImagesEEG,001,100818,
AFNE01.JPG,AFNE01.JPG,AFNE01.JPG,AFNE01.JPG,AFNE01.JPG,AFNE01.JPG,2,3,23,8,,,,,,,,,,,,,,,,,,,,,,,AMNE09.jpg,AMNE18.jpg,AMSA11.jpg,AMSA15.jpg,AMSA15.jpg,MS,2,num_4,16,num_4,0.73347760182,,,2017_Jun_27_1257,60.0077372273,MAFE4ImagesEEG,001,100818,
AFNE01.JPG,AFNE01.JPG,AFNE01.JPG,AFNE01.JPG,AFNE01.JPG,AFNE01.JPG,2,4,24,9,,,,,,,,,,,,,,,,,,,,,,,AMSA11.jpg,AMSA16.jpg,AMNE08.jpg,AMNE16.jpg,AMSA16.jpg,MS,2,num_6,16,num_6,0.716797881068,,,2017_Jun_27_1257,60.0077372273,MAFE4ImagesEEG,001,100818,
AFNE01.JPG,AFNE01.JPG,AFNE01.JPG,AFNE01.JPG,AFNE01.JPG,AFNE01.JPG,2,5,25,6,,,,,,,,,,,,,,,,,,,,,,,AMNE19.jpg,AMSA08.jpg,AMSA20.jpg,AMNE04.jpg,AMNE04.jpg,MN,1,num_4,32,num_8,1.29978690088,,,2017_Jun_27_1257,60.0077372273,MAFE4ImagesEEG,001,100818,
AFNE01.JPG,AFNE01.JPG,AFNE01.JPG,AFNE01.JPG,AFNE01.JPG,AFNE01.JPG,2,6,26,5,,,,,,,,,,,,,,,,,,,,,,,AMSA08.jpg,AMNE02.jpg,AMSA06.jpg,AMNE18.jpg,AMNE02.jpg,MN,1,num_6,16,num_6,0.850120180974,,,2017_Jun_27_1257,60.0077372273,MAFE4ImagesEEG,001,100818,
AFNE01.JPG,AFNE01.JPG,AFNE01.JPG,AFNE01.JPG,AFNE01.JPG,AFNE01.JPG,2,7,27,3,,,,,,,,,,,,,,,,,,,,,,,AMNE07.jpg,AMSA04.jpg,AMSA01.jpg,AMNE03.jpg,AMSA04.jpg,MS,2,num_6,16,num_6,0.600077362293,,,2017_Jun_27_1257,60.0077372273,MAFE4ImagesEEG,001,100818,
AFNE01.JPG,AFNE01.JPG,AFNE01.JPG,AFNE01.JPG,AFNE01.JPG,AFNE01.JPG,2,8,28,7,,,,,,,,,,,,,,,,,,,,,,,AMSA15.jpg,AMNE04.jpg,AMNE11.jpg,AMSA11.jpg,AMSA15.jpg,MS,2,num_8,16,num_8,0.535229992451,,,2017_Jun_27_1257,60.0077372273,MAFE4ImagesEEG,001,100818,
AFNE01.JPG,AFNE01.JPG,AFNE01.JPG,AFNE01.JPG,AFNE01.JPG,AFNE01.JPG,2,9,29,0,,,,,,,,,,,,,,,,,,,,,,,AMSA08.jpg,AMSA09.jpg,AMNE10.jpg,AMNE04.jpg,AMSA08.jpg,MS,2,num_8,32,num_4,0.700179100762,,,2017_Jun_27_1257,60.0077372273,MAFE4ImagesEEG,001,100818,
AFNE01.JPG,AFNE01.JPG,AFNE01.JPG,AFNE01.JPG,AFNE01.JPG,AFNE01.JPG,3,0,30,8,,,,,,,,,,,,,,,,,,,,,,,AMNE17.jpg,AMNE19.jpg,AMSA03.jpg,AMSA12.jpg,AMNE19.jpg,MN,1,num_6,16,num_6,0.600134774608,,,2017_Jun_27_1257,60.0077372273,MAFE4ImagesEEG,001,100818,
AFNE01.JPG,AFNE01.JPG,AFNE01.JPG,AFNE01.JPG,AFNE01.JPG,AFNE01.JPG,3,1,31,0,,,,,,,,,,,,,,,,,,,,,,,AMNE01.jpg,AMSA12.jpg,AMNE10.jpg,AMSA06.jpg,AMNE10.jpg,MN,1,num_2,32,num_6,0.733447452336,,,2017_Jun_27_1257,60.0077372273,MAFE4ImagesEEG,001,100818,
AFNE01.JPG,AFNE01.JPG,AFNE01.JPG,AFNE01.JPG,AFNE01.JPG,AFNE01.JPG,3,2,32,1,,,,,,,,,,,,,,,,,,,,,,,AMSA06.jpg,AMNE03.jpg,AMNE08.jpg,AMSA01.jpg,AMNE03.jpg,MN,1,num_6,32,num_4,1.05013474253,,,2017_Jun_27_1257,60.0077372273,MAFE4ImagesEEG,001,100818,
AFNE01.JPG,AFNE01.JPG,AFNE01.JPG,AFNE01.JPG,AFNE01.JPG,AFNE01.JPG,3,3,33,6,,,,,,,,,,,,,,,,,,,,,,,AMSA02.jpg,AMSA06.jpg,AMNE20.jpg,AMNE06.jpg,AMNE06.jpg,MN,1,num_4,32,num_6,0.933467466462,,,2017_Jun_27_1257,60.0077372273,MAFE4ImagesEEG,001,100818,
AFNE01.JPG,AFNE01.JPG,AFNE01.JPG,AFNE01.JPG,AFNE01.JPG,AFNE01.JPG,3,4,34,7,,,,,,,,,,,,,,,,,,,,,,,AMNE01.jpg,AMSA16.jpg,AMSA07.jpg,AMNE10.jpg,AMNE10.jpg,MN,1,num_4,16,num_4,1.06672882592,,,2017_Jun_27_1257,60.0077372273,MAFE4ImagesEEG,001,100818,
AFNE01.JPG,AFNE01.JPG,AFNE01.JPG,AFNE01.JPG,AFNE01.JPG,AFNE01.JPG,3,5,35,4,,,,,,,,,,,,,,,,,,,,,,,AMSA11.jpg,AMSA17.jpg,AMNE19.jpg,AMNE18.jpg,AMNE19.jpg,MN,1,num_2,32,num_6,0.700150875713,,,2017_Jun_27_1257,60.0077372273,MAFE4ImagesEEG,001,100818,
AFNE01.JPG,AFNE01.JPG,AFNE01.JPG,AFNE01.JPG,AFNE01.JPG,AFNE01.JPG,3,6,36,3,,,,,,,,,,,,,,,,,,,,,,,AMSA12.jpg,AMSA01.jpg,AMNE11.jpg,AMNE18.jpg,AMSA01.jpg,MS,2,num_6,16,num_6,0.700095708575,,,2017_Jun_27_1257,60.0077372273,MAFE4ImagesEEG,001,100818,
AFNE01.JPG,AFNE01.JPG,AFNE01.JPG,AFNE01.JPG,AFNE01.JPG,AFNE01.JPG,3,7,37,2,,,,,,,,,,,,,,,,,,,,,,,AMSA07.jpg,AMNE20.jpg,AMSA16.jpg,AMNE04.jpg,AMSA16.jpg,MS,2,num_2,16,num_2,1.05013698771,,,2017_Jun_27_1257,60.0077372273,MAFE4ImagesEEG,001,100818,
AFNE01.JPG,AFNE01.JPG,AFNE01.JPG,AFNE01.JPG,AFNE01.JPG,AFNE01.JPG,3,8,38,5,,,,,,,,,,,,,,,,,,,,,,,AMSA06.jpg,AMNE01.jpg,AMNE10.jpg,AMSA11.jpg,AMSA06.jpg,MS,2,num_8,16,num_8,1.13343808675,,,2017_Jun_27_1257,60.0077372273,MAFE4ImagesEEG,001,100818,
AFNE01.JPG,AFNE01.JPG,AFNE01.JPG,AFNE01.JPG,AFNE01.JPG,AFNE01.JPG,3,9,39,9,,,,,,,,,,,,,,,,,,,,,,,AMSA12.jpg,AMNE06.jpg,AMSA16.jpg,AMNE19.jpg,AMNE19.jpg,MN,1,num_4,32,num_8,0.933511086991,,,2017_Jun_27_1257,60.0077372273,MAFE4ImagesEEG,001,100818,
AFNE01.JPG,AFNE01.JPG,AFNE01.JPG,AFNE01.JPG,AFNE01.JPG,AFNE01.JPG,4,0,40,4,,,,,,,,,,,,,,,,,,,,,,,AMSA04.jpg,AMNE05.jpg,AMSA09.jpg,AMNE09.jpg,AMSA09.jpg,MS,2,num_2,16,num_2,1.51681828008,,,2017_Jun_27_1257,60.0077372273,MAFE4ImagesEEG,001,100818,
AFNE01.JPG,AFNE01.JPG,AFNE01.JPG,AFNE01.JPG,AFNE01.JPG,AFNE01.JPG,4,1,41,6,,,,,,,,,,,,,,,,,,,,,,,AMNE03.jpg,AMNE08.jpg,AMSA02.jpg,AMSA01.jpg,AMSA02.jpg,MS,2,num_2,16,num_2,0.966813757659,,,2017_Jun_27_1257,60.0077372273,MAFE4ImagesEEG,001,100818,
AFNE01.JPG,AFNE01.JPG,AFNE01.JPG,AFNE01.JPG,AFNE01.JPG,AFNE01.JPG,4,2,42,0,,,,,,,,,,,,,,,,,,,,,,,AMSA02.jpg,AMNE18.jpg,AMNE03.jpg,AMSA13.jpg,AMNE03.jpg,MN,1,num_2,32,num_4,0.950116396252,,,2017_Jun_27_1257,60.0077372273,MAFE4ImagesEEG,001,100818,
AFNE01.JPG,AFNE01.JPG,AFNE01.JPG,AFNE01.JPG,AFNE01.JPG,AFNE01.JPG,4,3,43,1,,,,,,,,,,,,,,,,,,,,,,,AMNE10.jpg,AMSA12.jpg,AMNE08.jpg,AMSA03.jpg,AMSA12.jpg,MS,2,num_6,16,num_6,0.683449023958,,,2017_Jun_27_1257,60.0077372273,MAFE4ImagesEEG,001,100818,
AFNE01.JPG,AFNE01.JPG,AFNE01.JPG,AFNE01.JPG,AFNE01.JPG,AFNE01.JPG,4,4,44,3,,,,,,,,,,,,,,,,,,,,,,,AMSA09.jpg,AMNE18.jpg,AMSA17.jpg,AMNE12.jpg,AMSA09.jpg,MS,2,num_8,32,num_6,0.766754934091,,,2017_Jun_27_1257,60.0077372273,MAFE4ImagesEEG,001,100818,
AFNE01.JPG,AFNE01.JPG,AFNE01.JPG,AFNE01.JPG,AFNE01.JPG,AFNE01.JPG,4,5,45,2,,,,,,,,,,,,,,,,,,,,,,,AMNE19.jpg,AMSA01.jpg,AMSA05.jpg,AMNE18.jpg,AMNE18.jpg,MN,1,num_4,16,num_4,0.550142761012,,,2017_Jun_27_1257,60.0077372273,MAFE4ImagesEEG,001,100818,
AFNE01.JPG,AFNE01.JPG,AFNE01.JPG,AFNE01.JPG,AFNE01.JPG,AFNE01.JPG,4,6,46,8,,,,,,,,,,,,,,,,,,,,,,,AMNE09.jpg,AMNE08.jpg,AMSA12.jpg,AMSA13.jpg,AMNE09.jpg,MN,1,num_8,32,num_6,0.650133844463,,,2017_Jun_27_1257,60.0077372273,MAFE4ImagesEEG,001,100818,
AFNE01.JPG,AFNE01.JPG,AFNE01.JPG,AFNE01.JPG,AFNE01.JPG,AFNE01.JPG,4,7,47,7,,,,,,,,,,,,,,,,,,,,,,,AMNE14.jpg,AMNE08.jpg,AMSA17.jpg,AMSA09.jpg,AMNE08.jpg,MN,1,num_6,16,num_6,0.616772157786,,,2017_Jun_27_1257,60.0077372273,MAFE4ImagesEEG,001,100818,
AFNE01.JPG,AFNE01.JPG,AFNE01.JPG,AFNE01.JPG,AFNE01.JPG,AFNE01.JPG,4,8,48,5,,,,,,,,,,,,,,,,,,,,,,,AMSA11.jpg,AMNE09.jpg,AMNE18.jpg,AMSA05.jpg,AMNE18.jpg,MN,1,num_2,32,num_6,0.650150522901,,,2017_Jun_27_1257,60.0077372273,MAFE4ImagesEEG,001,100818,
AFNE01.JPG,AFNE01.JPG,AFNE01.JPG,AFNE01.JPG,AFNE01.JPG,AFNE01.JPG,4,9,49,9,,,,,,,,,,,,,,,,,,,,,,,AMNE05.jpg,AMSA19.jpg,AMNE04.jpg,AMSA06.jpg,AMSA19.jpg,MS,2,num_6,32,num_8,1.06674774953,,,2017_Jun_27_1257,60.0077372273,MAFE4ImagesEEG,001,100818,
AFNE01.JPG,AFNE01.JPG,AFNE01.JPG,AFNE01.JPG,AFNE01.JPG,AFNE01.JPG,5,0,50,4,,,,,,,,,,,,,,,,,,,,,,,AMSA20.jpg,AMNE07.jpg,AMNE14.jpg,AMSA07.jpg,AMSA07.jpg,MS,2,num_4,32,num_8,0.666815489649,,,2017_Jun_27_1257,60.0077372273,MAFE4ImagesEEG,001,100818,
AFNE01.JPG,AFNE01.JPG,AFNE01.JPG,AFNE01.JPG,AFNE01.JPG,AFNE01.JPG,5,1,51,0,,,,,,,,,,,,,,,,,,,,,,,AMSA03.jpg,AMSA02.jpg,AMNE03.jpg,AMNE12.jpg,AMSA02.jpg,MS,2,num_6,16,num_6,0.483512722762,,,2017_Jun_27_1257,60.0077372273,MAFE4ImagesEEG,001,100818,
AFNE01.JPG,AFNE01.JPG,AFNE01.JPG,AFNE01.JPG,AFNE01.JPG,AFNE01.JPG,5,2,52,3,,,,,,,,,,,,,,,,,,,,,,,AMSA19.jpg,AMSA16.jpg,AMNE06.jpg,AMNE16.jpg,AMSA16.jpg,MS,2,num_6,16,num_6,0.950131150254,,,2017_Jun_27_1257,60.0077372273,MAFE4ImagesEEG,001,100818,
AFNE01.JPG,AFNE01.JPG,AFNE01.JPG,AFNE01.JPG,AFNE01.JPG,AFNE01.JPG,5,3,53,1,,,,,,,,,,,,,,,,,,,,,,,AMNE04.jpg,AMNE03.jpg,AMSA20.jpg,AMSA12.jpg,AMSA12.jpg,MS,2,num_4,16,num_4,0.56680836924,,,2017_Jun_27_1257,60.0077372273,MAFE4ImagesEEG,001,100818,
AFNE01.JPG,AFNE01.JPG,AFNE01.JPG,AFNE01.JPG,AFNE01.JPG,AFNE01.JPG,5,4,54,6,,,,,,,,,,,,,,,,,,,,,,,AMNE17.jpg,AMNE14.jpg,AMSA05.jpg,AMSA16.jpg,AMNE17.jpg,MN,1,num_8,16,num_8,1.40012406192,,,2017_Jun_27_1257,60.0077372273,MAFE4ImagesEEG,001,100818,
AFNE01.JPG,AFNE01.JPG,AFNE01.JPG,AFNE01.JPG,AFNE01.JPG,AFNE01.JPG,5,5,55,2,,,,,,,,,,,,,,,,,,,,,,,AMSA17.jpg,AMSA06.jpg,AMNE06.jpg,AMNE12.jpg,AMNE12.jpg,MN,1,num_4,16,num_4,1.06674293845,,,2017_Jun_27_1257,60.0077372273,MAFE4ImagesEEG,001,100818,
AFNE01.JPG,AFNE01.JPG,AFNE01.JPG,AFNE01.JPG,AFNE01.JPG,AFNE01.JPG,5,6,56,8,,,,,,,,,,,,,,,,,,,,,,,AMNE18.jpg,AMSA11.jpg,AMNE14.jpg,AMSA01.jpg,AMSA11.jpg,MS,2,num_6,16,num_6,0.666779246123,,,2017_Jun_27_1257,60.0077372273,MAFE4ImagesEEG,001,100818,
AFNE01.JPG,AFNE01.JPG,AFNE01.JPG,AFNE01.JPG,AFNE01.JPG,AFNE01.JPG,5,7,57,7,,,,,,,,,,,,,,,,,,,,,,,AMNE01.jpg,AMSA11.jpg,AMSA20.jpg,AMNE04.jpg,AMNE04.jpg,MN,1,num_4,16,num_4,0.75016213366,,,2017_Jun_27_1257,60.0077372273,MAFE4ImagesEEG,001,100818,
AFNE01.JPG,AFNE01.JPG,AFNE01.JPG,AFNE01.JPG,AFNE01.JPG,AFNE01.JPG,5,8,58,9,,,,,,,,,,,,,,,,,,,,,,,AMSA14.jpg,AMNE19.jpg,AMSA03.jpg,AMNE03.jpg,AMNE19.jpg,MN,1,num_6,16,num_6,1.25009060882,,,2017_Jun_27_1257,60.0077372273,MAFE4ImagesEEG,001,100818,
AFNE01.JPG,AFNE01.JPG,AFNE01.JPG,AFNE01.JPG,AFNE01.JPG,AFNE01.JPG,5,9,59,5,,,,,,,,,,,,,,,,,,,,,,,AMSA03.jpg,AMNE17.jpg,AMSA20.jpg,AMNE08.jpg,AMNE08.jpg,MN,1,num_4,16,num_4,0.766798233881,,,2017_Jun_27_1257,60.0077372273,MAFE4ImagesEEG,001,100818,
,,,,,,,,,,,,,,,,,,,,,,,,,,,,,,,,,,,,,,,,,,,space,17.7653860192,2017_Jun_27_1257,60.0077372273,MAFE4ImagesEEG,001,100818,
AFNE01.JPG,AFNE01.JPG,AFNE01.JPG,AFNE01.JPG,AFNE01.JPG,AFNE01.JPG,,,,,0,0,0,9,,,,,,,,,,,,,,,,,,,AFSA10.jpg,AFSA03.jpg,AFNE03.jpg,AFNE04.jpg,AFSA03.jpg,FS,4,num_6,32,num_4,1.08346627973,,,2017_Jun_27_1257,60.0077372273,MAFE4ImagesEEG,001,100818,
AFNE01.JPG,AFNE01.JPG,AFNE01.JPG,AFNE01.JPG,AFNE01.JPG,AFNE01.JPG,,,,,0,1,1,5,,,,,,,,,,,,,,,,,,,AFSA03.jpg,AFNE04.jpg,AFSA07.jpg,AFNE18.jpg,AFSA03.jpg,FS,4,num_8,32,num_2,0.633501272372,,,2017_Jun_27_1257,60.0077372273,MAFE4ImagesEEG,001,100818,
AFNE01.JPG,AFNE01.JPG,AFNE01.JPG,AFNE01.JPG,AFNE01.JPG,AFNE01.JPG,,,,,0,2,2,8,,,,,,,,,,,,,,,,,,,AFNE04.jpg,AFSA19.jpg,AFNE12.jpg,AFSA02.jpg,AFSA02.jpg,FS,4,num_4,32,num_6,0.716803654374,,,2017_Jun_27_1257,60.0077372273,MAFE4ImagesEEG,001,100818,
AFNE01.JPG,AFNE01.JPG,AFNE01.JPG,AFNE01.JPG,AFNE01.JPG,AFNE01.JPG,,,,,0,3,3,0,,,,,,,,,,,,,,,,,,,AFNE14.jpg,AFNE19.jpg,AFSA16.jpg,AFSA04.jpg,AFSA04.jpg,FS,4,num_4,16,num_4,1.00018699095,,,2017_Jun_27_1257,60.0077372273,MAFE4ImagesEEG,001,100818,
AFNE01.JPG,AFNE01.JPG,AFNE01.JPG,AFNE01.JPG,AFNE01.JPG,AFNE01.JPG,,,,,0,4,4,6,,,,,,,,,,,,,,,,,,,AFNE09.jpg,AFSA16.jpg,AFNE13.jpg,AFSA03.jpg,AFSA03.jpg,FS,4,num_4,32,num_6,0.650043396012,,,2017_Jun_27_1257,60.0077372273,MAFE4ImagesEEG,001,100818,
AFNE01.JPG,AFNE01.JPG,AFNE01.JPG,AFNE01.JPG,AFNE01.JPG,AFNE01.JPG,,,,,0,5,5,7,,,,,,,,,,,,,,,,,,,AFSA08.jpg,AFNE11.jpg,AFNE14.jpg,AFSA01.jpg,AFSA08.jpg,FS,4,num_8,16,num_8,2.16666634593,,,2017_Jun_27_1257,60.0077372273,MAFE4ImagesEEG,001,100818,
AFNE01.JPG,AFNE01.JPG,AFNE01.JPG,AFNE01.JPG,AFNE01.JPG,AFNE01.JPG,,,,,0,6,6,4,,,,,,,,,,,,,,,,,,,AFNE06.jpg,AFSA04.jpg,AFSA06.jpg,AFNE10.jpg,AFSA04.jpg,FS,4,num_6,16,num_6,1.21675361906,,,2017_Jun_27_1257,60.0077372273,MAFE4ImagesEEG,001,100818,
AFNE01.JPG,AFNE01.JPG,AFNE01.JPG,AFNE01.JPG,AFNE01.JPG,AFNE01.JPG,,,,,0,7,7,1,,,,,,,,,,,,,,,,,,,AFNE12.jpg,AFSA20.jpg,AFNE04.jpg,AFSA04.jpg,AFSA20.jpg,FS,4,num_6,16,num_6,0.950175412263,,,2017_Jun_27_1257,60.0077372273,MAFE4ImagesEEG,001,100818,
AFNE01.JPG,AFNE01.JPG,AFNE01.JPG,AFNE01.JPG,AFNE01.JPG,AFNE01.JPG,,,,,0,8,8,2,,,,,,,,,,,,,,,,,,,AFSA13.jpg,AFSA07.jpg,AFNE05.jpg,AFNE16.jpg,AFNE16.jpg,FN,3,num_4,16,num_4,0.80006850989,,,2017_Jun_27_1257,60.0077372273,MAFE4ImagesEEG,001,100818,
AFNE01.JPG,AFNE01.JPG,AFNE01.JPG,AFNE01.JPG,AFNE01.JPG,AFNE01.JPG,,,,,0,9,9,3,,,,,,,,,,,,,,,,,,,AFSA04.jpg,AFNE01.jpg,AFNE18.jpg,AFSA17.jpg,AFSA04.jpg,FS,4,num_8,16,num_8,0.666835375479,,,2017_Jun_27_1257,60.0077372273,MAFE4ImagesEEG,001,100818,
AFNE01.JPG,AFNE01.JPG,AFNE01.JPG,AFNE01.JPG,AFNE01.JPG,AFNE01.JPG,,,,,1,0,10,2,,,,,,,,,,,,,,,,,,,AFSA08.jpg,AFNE15.jpg,AFSA02.jpg,AFNE04.jpg,AFNE04.jpg,FN,3,num_4,32,num_6,0.616808722054,,,2017_Jun_27_1257,60.0077372273,MAFE4ImagesEEG,001,100818,
AFNE01.JPG,AFNE01.JPG,AFNE01.JPG,AFNE01.JPG,AFNE01.JPG,AFNE01.JPG,,,,,1,1,11,5,,,,,,,,,,,,,,,,,,,AFNE06.jpg,AFSA16.jpg,AFNE02.jpg,AFSA20.jpg,AFNE02.jpg,FN,3,num_2,32,num_8,0.800063378063,,,2017_Jun_27_1257,60.0077372273,MAFE4ImagesEEG,001,100818,
AFNE01.JPG,AFNE01.JPG,AFNE01.JPG,AFNE01.JPG,AFNE01.JPG,AFNE01.JPG,,,,,1,2,12,3,,,,,,,,,,,,,,,,,,,AFSA09.jpg,AFNE16.jpg,AFSA12.jpg,AFNE11.jpg,AFSA09.jpg,FS,4,num_8,16,num_8,0.716782806327,,,2017_Jun_27_1257,60.0077372273,MAFE4ImagesEEG,001,100818,
AFNE01.JPG,AFNE01.JPG,AFNE01.JPG,AFNE01.JPG,AFNE01.JPG,AFNE01.JPG,,,,,1,3,13,8,,,,,,,,,,,,,,,,,,,AFNE05.jpg,AFNE13.jpg,AFSA05.jpg,AFSA14.jpg,AFNE05.jpg,FN,3,num_8,32,num_4,0.833467402314,,,2017_Jun_27_1257,60.0077372273,MAFE4ImagesEEG,001,100818,
AFNE01.JPG,AFNE01.JPG,AFNE01.JPG,AFNE01.JPG,AFNE01.JPG,AFNE01.JPG,,,,,1,4,14,4,,,,,,,,,,,,,,,,,,,AFSA12.jpg,AFSA15.jpg,AFNE03.jpg,AFNE16.jpg,AFNE16.jpg,FN,3,num_4,16,num_4,0.783319830212,,,2017_Jun_27_1257,60.0077372273,MAFE4ImagesEEG,001,100818,
AFNE01.JPG,AFNE01.JPG,AFNE01.JPG,AFNE01.JPG,AFNE01.JPG,AFNE01.JPG,,,,,1,5,15,0,,,,,,,,,,,,,,,,,,,AFNE20.jpg,AFSA07.jpg,AFNE09.jpg,AFSA02.jpg,AFSA07.jpg,FS,4,num_6,16,num_6,0.683356971811,,,2017_Jun_27_1257,60.0077372273,MAFE4ImagesEEG,001,100818,
AFNE01.JPG,AFNE01.JPG,AFNE01.JPG,AFNE01.JPG,AFNE01.JPG,AFNE01.JPG,,,,,1,6,16,1,,,,,,,,,,,,,,,,,,,AFSA04.jpg,AFNE13.jpg,AFSA19.jpg,AFNE04.jpg,AFNE04.jpg,FN,3,num_4,16,num_4,0.916778123536,,,2017_Jun_27_1257,60.0077372273,MAFE4ImagesEEG,001,100818,
AFNE01.JPG,AFNE01.JPG,AFNE01.JPG,AFNE01.JPG,AFNE01.JPG,AFNE01.JPG,,,,,1,7,17,9,,,,,,,,,,,,,,,,,,,AFNE19.jpg,AFSA04.jpg,AFNE02.jpg,AFSA10.jpg,AFNE02.jpg,FN,3,num_2,32,num_8,0.866746017542,,,2017_Jun_27_1257,60.0077372273,MAFE4ImagesEEG,001,100818,
AFNE01.JPG,AFNE01.JPG,AFNE01.JPG,AFNE01.JPG,AFNE01.JPG,AFNE01.JPG,,,,,1,8,18,6,,,,,,,,,,,,,,,,,,,AFSA06.jpg,AFNE13.jpg,AFNE09.jpg,AFSA07.jpg,AFSA07.jpg,FS,4,num_4,32,num_2,1.41676336953,,,2017_Jun_27_1257,60.0077372273,MAFE4ImagesEEG,001,100818,
AFNE01.JPG,AFNE01.JPG,AFNE01.JPG,AFNE01.JPG,AFNE01.JPG,AFNE01.JPG,,,,,1,9,19,7,,,,,,,,,,,,,,,,,,,AFNE07.jpg,AFSA17.jpg,AFNE13.jpg,AFSA14.jpg,AFNE13.jpg,FN,3,num_2,32,num_8,0.966773023782,,,2017_Jun_27_1257,60.0077372273,MAFE4ImagesEEG,001,100818,
AFNE01.JPG,AFNE01.JPG,AFNE01.JPG,AFNE01.JPG,AFNE01.JPG,AFNE01.JPG,,,,,2,0,20,3,,,,,,,,,,,,,,,,,,,AFNE06.jpg,AFSA13.jpg,AFSA02.jpg,AFNE14.jpg,AFSA02.jpg,FS,4,num_2,32,num_4,1.30044794435,,,2017_Jun_27_1257,60.0077372273,MAFE4ImagesEEG,001,100818,
AFNE01.JPG,AFNE01.JPG,AFNE01.JPG,AFNE01.JPG,AFNE01.JPG,AFNE01.JPG,,,,,2,1,21,9,,,,,,,,,,,,,,,,,,,AFNE09.jpg,AFSA14.jpg,AFNE15.jpg,AFSA11.jpg,AFSA11.jpg,FS,4,num_4,16,num_4,0.566773729408,,,2017_Jun_27_1257,60.0077372273,MAFE4ImagesEEG,001,100818,
AFNE01.JPG,AFNE01.JPG,AFNE01.JPG,AFNE01.JPG,AFNE01.JPG,AFNE01.JPG,,,,,2,2,22,5,,,,,,,,,,,,,,,,,,,AFNE03.jpg,AFSA15.jpg,AFNE15.jpg,AFSA04.jpg,AFNE03.jpg,FN,3,num_8,16,num_8,0.783487576809,,,2017_Jun_27_1257,60.0077372273,MAFE4ImagesEEG,001,100818,
AFNE01.JPG,AFNE01.JPG,AFNE01.JPG,AFNE01.JPG,AFNE01.JPG,AFNE01.JPG,,,,,2,3,23,0,,,,,,,,,,,,,,,,,,,AFNE07.jpg,AFSA08.jpg,AFSA05.jpg,AFNE11.jpg,AFSA05.jpg,FS,4,num_2,16,num_2,0.666828960697,,,2017_Jun_27_1257,60.0077372273,MAFE4ImagesEEG,001,100818,
AFNE01.JPG,AFNE01.JPG,AFNE01.JPG,AFNE01.JPG,AFNE01.JPG,AFNE01.JPG,,,,,2,4,24,7,,,,,,,,,,,,,,,,,,,AFNE05.jpg,AFSA13.jpg,AFNE20.jpg,AFSA12.jpg,AFSA13.jpg,FS,4,num_6,32,num_2,2.63331973399,,,2017_Jun_27_1257,60.0077372273,MAFE4ImagesEEG,001,100818,
AFNE01.JPG,AFNE01.JPG,AFNE01.JPG,AFNE01.JPG,AFNE01.JPG,AFNE01.JPG,,,,,2,5,25,2,,,,,,,,,,,,,,,,,,,AFNE18.jpg,AFSA19.jpg,AFNE06.jpg,AFSA07.jpg,AFSA07.jpg,FS,4,num_4,16,num_4,0.933479975291,,,2017_Jun_27_1257,60.0077372273,MAFE4ImagesEEG,001,100818,
AFNE01.JPG,AFNE01.JPG,AFNE01.JPG,AFNE01.JPG,AFNE01.JPG,AFNE01.JPG,,,,,2,6,26,8,,,,,,,,,,,,,,,,,,,AFSA08.jpg,AFNE01.jpg,AFNE11.jpg,AFSA19.jpg,AFNE11.jpg,FN,3,num_2,32,num_6,1.19977432791,,,2017_Jun_27_1257,60.0077372273,MAFE4ImagesEEG,001,100818,
AFNE01.JPG,AFNE01.JPG,AFNE01.JPG,AFNE01.JPG,AFNE01.JPG,AFNE01.JPG,,,,,2,7,27,4,,,,,,,,,,,,,,,,,,,AFSA12.jpg,AFNE09.jpg,AFSA13.jpg,AFNE16.jpg,AFSA13.jpg,FS,4,num_2,32,num_6,1.3001037912,,,2017_Jun_27_1257,60.0077372273,MAFE4ImagesEEG,001,100818,
AFNE01.JPG,AFNE01.JPG,AFNE01.JPG,AFNE01.JPG,AFNE01.JPG,AFNE01.JPG,,,,,2,8,28,1,,,,,,,,,,,,,,,,,,,AFSA12.jpg,AFSA02.jpg,AFNE16.jpg,AFNE07.jpg,AFSA02.jpg,FS,4,num_6,32,num_4,0.916743483702,,,2017_Jun_27_1257,60.0077372273,MAFE4ImagesEEG,001,100818,
AFNE01.JPG,AFNE01.JPG,AFNE01.JPG,AFNE01.JPG,AFNE01.JPG,AFNE01.JPG,,,,,2,9,29,6,,,,,,,,,,,,,,,,,,,AFNE18.jpg,AFSA07.jpg,AFSA11.jpg,AFNE14.jpg,AFNE14.jpg,FN,3,num_4,16,num_4,1.1168680588,,,2017_Jun_27_1257,60.0077372273,MAFE4ImagesEEG,001,100818,
AFNE01.JPG,AFNE01.JPG,AFNE01.JPG,AFNE01.JPG,AFNE01.JPG,AFNE01.JPG,,,,,3,0,30,9,,,,,,,,,,,,,,,,,,,AFSA03.jpg,AFNE16.jpg,AFSA05.jpg,AFNE02.jpg,AFSA03.jpg,FS,4,num_8,16,num_8,0.71685208599,,,2017_Jun_27_1257,60.0077372273,MAFE4ImagesEEG,001,100818,
AFNE01.JPG,AFNE01.JPG,AFNE01.JPG,AFNE01.JPG,AFNE01.JPG,AFNE01.JPG,,,,,3,1,31,4,,,,,,,,,,,,,,,,,,,AFNE15.jpg,AFSA09.jpg,AFNE16.jpg,AFSA10.jpg,AFNE16.jpg,FN,3,num_2,32,num_4,0.700163063804,,,2017_Jun_27_1257,60.0077372273,MAFE4ImagesEEG,001,100818,
AFNE01.JPG,AFNE01.JPG,AFNE01.JPG,AFNE01.JPG,AFNE01.JPG,AFNE01.JPG,,,,,3,2,32,2,,,,,,,,,,,,,,,,,,,AFNE15.jpg,AFSA11.jpg,AFSA10.jpg,AFNE08.jpg,AFSA10.jpg,FS,4,num_2,32,num_4,0.816805322218,,,2017_Jun_27_1257,60.0077372273,MAFE4ImagesEEG,001,100818,
AFNE01.JPG,AFNE01.JPG,AFNE01.JPG,AFNE01.JPG,AFNE01.JPG,AFNE01.JPG,,,,,3,3,33,7,,,,,,,,,,,,,,,,,,,AFSA20.jpg,AFNE07.jpg,AFSA19.jpg,AFNE12.jpg,AFSA20.jpg,FS,4,num_8,32,num_4,0.883487640956,,,2017_Jun_27_1257,60.0077372273,MAFE4ImagesEEG,001,100818,
AFNE01.JPG,AFNE01.JPG,AFNE01.JPG,AFNE01.JPG,AFNE01.JPG,AFNE01.JPG,,,,,3,4,34,8,,,,,,,,,,,,,,,,,,,AFSA09.jpg,AFNE15.jpg,AFSA07.jpg,AFNE18.jpg,AFSA09.jpg,FS,4,num_8,32,num_2,1.51667458893,,,2017_Jun_27_1257,60.0077372273,MAFE4ImagesEEG,001,100818,
AFNE01.JPG,AFNE01.JPG,AFNE01.JPG,AFNE01.JPG,AFNE01.JPG,AFNE01.JPG,,,,,3,5,35,0,,,,,,,,,,,,,,,,,,,AFNE11.jpg,AFSA15.jpg,AFSA18.jpg,AFNE12.jpg,AFSA18.jpg,FS,4,num_2,16,num_2,1.00008788254,,,2017_Jun_27_1257,60.0077372273,MAFE4ImagesEEG,001,100818,
AFNE01.JPG,AFNE01.JPG,AFNE01.JPG,AFNE01.JPG,AFNE01.JPG,AFNE01.JPG,,,,,3,6,36,6,,,,,,,,,,,,,,,,,,,AFNE14.jpg,AFSA09.jpg,AFNE06.jpg,AFSA06.jpg,AFNE06.jpg,FN,3,num_2,32,num_8,0.966649218453,,,2017_Jun_27_1257,60.0077372273,MAFE4ImagesEEG,001,100818,
AFNE01.JPG,AFNE01.JPG,AFNE01.JPG,AFNE01.JPG,AFNE01.JPG,AFNE01.JPG,,,,,3,7,37,5,,,,,,,,,,,,,,,,,,,AFNE16.jpg,AFSA13.jpg,AFSA19.jpg,AFNE08.jpg,AFSA13.jpg,FS,4,num_6,16,num_6,0.650175861296,,,2017_Jun_27_1257,60.0077372273,MAFE4ImagesEEG,001,100818,
AFNE01.JPG,AFNE01.JPG,AFNE01.JPG,AFNE01.JPG,AFNE01.JPG,AFNE01.JPG,,,,,3,8,38,1,,,,,,,,,,,,,,,,,,,AFSA04.jpg,AFNE09.jpg,AFNE19.jpg,AFSA09.jpg,AFNE09.jpg,FN,3,num_6,32,num_8,0.850151934153,,,2017_Jun_27_1257,60.0077372273,MAFE4ImagesEEG,001,100818,
AFNE01.JPG,AFNE01.JPG,AFNE01.JPG,AFNE01.JPG,AFNE01.JPG,AFNE01.JPG,,,,,3,9,39,3,,,,,,,,,,,,,,,,,,,AFSA05.jpg,AFNE06.jpg,AFSA10.jpg,AFNE17.jpg,AFSA10.jpg,FS,4,num_2,32,num_6,0.666787906081,,,2017_Jun_27_1257,60.0077372273,MAFE4ImagesEEG,001,100818,
AFNE01.JPG,AFNE01.JPG,AFNE01.JPG,AFNE01.JPG,AFNE01.JPG,AFNE01.JPG,,,,,4,0,40,8,,,,,,,,,,,,,,,,,,,AFNE20.jpg,AFNE13.jpg,AFSA09.jpg,AFSA13.jpg,AFSA13.jpg,FS,4,num_4,32,num_2,0.833443346875,,,2017_Jun_27_1257,60.0077372273,MAFE4ImagesEEG,001,100818,
AFNE01.JPG,AFNE01.JPG,AFNE01.JPG,AFNE01.JPG,AFNE01.JPG,AFNE01.JPG,,,,,4,1,41,5,,,,,,,,,,,,,,,,,,,AFSA02.jpg,AFNE15.jpg,AFNE16.jpg,AFSA08.jpg,AFSA02.jpg,FS,4,num_8,32,num_4,0.700103406314,,,2017_Jun_27_1257,60.0077372273,MAFE4ImagesEEG,001,100818,
AFNE01.JPG,AFNE01.JPG,AFNE01.JPG,AFNE01.JPG,AFNE01.JPG,AFNE01.JPG,,,,,4,2,42,6,,,,,,,,,,,,,,,,,,,AFSA17.jpg,AFSA18.jpg,AFNE10.jpg,AFNE15.jpg,AFNE10.jpg,FN,3,num_2,32,num_6,0.633479141368,,,2017_Jun_27_1257,60.0077372273,MAFE4ImagesEEG,001,100818,
AFNE01.JPG,AFNE01.JPG,AFNE01.JPG,AFNE01.JPG,AFNE01.JPG,AFNE01.JPG,,,,,4,3,43,7,,,,,,,,,,,,,,,,,,,AFNE12.jpg,AFSA11.jpg,AFSA09.jpg,AFNE04.jpg,AFSA09.jpg,FS,4,num_2,16,num_2,0.533452776606,,,2017_Jun_27_1257,60.0077372273,MAFE4ImagesEEG,001,100818,
AFNE01.JPG,AFNE01.JPG,AFNE01.JPG,AFNE01.JPG,AFNE01.JPG,AFNE01.JPG,,,,,4,4,44,1,,,,,,,,,,,,,,,,,,,AFNE11.jpg,AFNE19.jpg,AFSA04.jpg,AFSA07.jpg,AFSA07.jpg,FS,4,num_4,32,num_8,0.816769399429,,,2017_Jun_27_1257,60.0077372273,MAFE4ImagesEEG,001,100818,
AFNE01.JPG,AFNE01.JPG,AFNE01.JPG,AFNE01.JPG,AFNE01.JPG,AFNE01.JPG,,,,,4,5,45,3,,,,,,,,,,,,,,,,,,,AFNE16.jpg,AFSA19.jpg,AFSA08.jpg,AFNE13.jpg,AFSA19.jpg,FS,4,num_6,16,num_6,0.666844356178,,,2017_Jun_27_1257,60.0077372273,MAFE4ImagesEEG,001,100818,
AFNE01.JPG,AFNE01.JPG,AFNE01.JPG,AFNE01.JPG,AFNE01.JPG,AFNE01.JPG,,,,,4,6,46,2,,,,,,,,,,,,,,,,,,,AFSA12.jpg,AFNE06.jpg,AFSA07.jpg,AFNE17.jpg,AFSA12.jpg,FS,4,num_8,16,num_8,0.583477505599,,,2017_Jun_27_1257,60.0077372273,MAFE4ImagesEEG,001,100818,
AFNE01.JPG,AFNE01.JPG,AFNE01.JPG,AFNE01.JPG,AFNE01.JPG,AFNE01.JPG,,,,,4,7,47,4,,,,,,,,,,,,,,,,,,,AFSA06.jpg,AFNE20.jpg,AFNE10.jpg,AFSA09.jpg,AFNE20.jpg,FN,3,num_6,16,num_6,0.700173648196,,,2017_Jun_27_1257,60.0077372273,MAFE4ImagesEEG,001,100818,
AFNE01.JPG,AFNE01.JPG,AFNE01.JPG,AFNE01.JPG,AFNE01.JPG,AFNE01.JPG,,,,,4,8,48,9,,,,,,,,,,,,,,,,,,,AFSA09.jpg,AFNE12.jpg,AFNE17.jpg,AFSA11.jpg,AFSA11.jpg,FS,4,num_4,16,num_4,1.01674835894,,,2017_Jun_27_1257,60.0077372273,MAFE4ImagesEEG,001,100818,
AFNE01.JPG,AFNE01.JPG,AFNE01.JPG,AFNE01.JPG,AFNE01.JPG,AFNE01.JPG,,,,,4,9,49,0,,,,,,,,,,,,,,,,,,,AFSA06.jpg,AFNE15.jpg,AFNE06.jpg,AFSA14.jpg,AFNE15.jpg,FN,3,num_6,32,num_8,1.23339773776,,,2017_Jun_27_1257,60.0077372273,MAFE4ImagesEEG,001,100818,
AFNE01.JPG,AFNE01.JPG,AFNE01.JPG,AFNE01.JPG,AFNE01.JPG,AFNE01.JPG,,,,,5,0,50,9,,,,,,,,,,,,,,,,,,,AFSA19.jpg,AFNE08.jpg,AFNE10.jpg,AFSA06.jpg,AFSA19.jpg,FS,4,num_8,32,num_6,1.06676506945,,,2017_Jun_27_1257,60.0077372273,MAFE4ImagesEEG,001,100818,
AFNE01.JPG,AFNE01.JPG,AFNE01.JPG,AFNE01.JPG,AFNE01.JPG,AFNE01.JPG,,,,,5,1,51,3,,,,,,,,,,,,,,,,,,,AFNE02.jpg,AFSA03.jpg,AFNE01.jpg,AFSA10.jpg,AFSA10.jpg,FS,4,num_4,32,num_6,0.833478628185,,,2017_Jun_27_1257,60.0077372273,MAFE4ImagesEEG,001,100818,
AFNE01.JPG,AFNE01.JPG,AFNE01.JPG,AFNE01.JPG,AFNE01.JPG,AFNE01.JPG,,,,,5,2,52,0,,,,,,,,,,,,,,,,,,,AFNE03.jpg,AFNE13.jpg,AFSA02.jpg,AFSA19.jpg,AFSA02.jpg,FS,4,num_2,32,num_4,0.633440011186,,,2017_Jun_27_1257,60.0077372273,MAFE4ImagesEEG,001,100818,
AFNE01.JPG,AFNE01.JPG,AFNE01.JPG,AFNE01.JPG,AFNE01.JPG,AFNE01.JPG,,,,,5,3,53,5,,,,,,,,,,,,,,,,,,,AFNE13.jpg,AFNE05.jpg,AFSA03.jpg,AFSA04.jpg,AFSA04.jpg,FS,4,num_4,16,num_4,0.783495274549,,,2017_Jun_27_1257,60.0077372273,MAFE4ImagesEEG,001,100818,
AFNE01.JPG,AFNE01.JPG,AFNE01.JPG,AFNE01.JPG,AFNE01.JPG,AFNE01.JPG,,,,,5,4,54,2,,,,,,,,,,,,,,,,,,,AFSA14.jpg,AFSA17.jpg,AFNE19.jpg,AFNE14.jpg,AFSA14.jpg,FS,4,num_8,32,num_6,0.816817189569,,,2017_Jun_27_1257,60.0077372273,MAFE4ImagesEEG,001,100818,
AFNE01.JPG,AFNE01.JPG,AFNE01.JPG,AFNE01.JPG,AFNE01.JPG,AFNE01.JPG,,,,,5,5,55,6,,,,,,,,,,,,,,,,,,,AFSA09.jpg,AFNE06.jpg,AFSA15.jpg,AFNE12.jpg,AFNE06.jpg,FN,3,num_6,32,num_4,0.783487897548,,,2017_Jun_27_1257,60.0077372273,MAFE4ImagesEEG,001,100818,
AFNE01.JPG,AFNE01.JPG,AFNE01.JPG,AFNE01.JPG,AFNE01.JPG,AFNE01.JPG,,,,,5,6,56,7,,,,,,,,,,,,,,,,,,,AFNE19.jpg,AFNE06.jpg,AFSA12.jpg,AFSA18.jpg,AFNE19.jpg,FN,3,num_8,32,num_6,0.966803814743,,,2017_Jun_27_1257,60.0077372273,MAFE4ImagesEEG,001,100818,
AFNE01.JPG,AFNE01.JPG,AFNE01.JPG,AFNE01.JPG,AFNE01.JPG,AFNE01.JPG,,,,,5,7,57,8,,,,,,,,,,,,,,,,,,,AFNE11.jpg,AFNE07.jpg,AFSA07.jpg,AFSA04.jpg,AFNE11.jpg,FN,3,num_8,16,num_8,0.93345239172,,,2017_Jun_27_1257,60.0077372273,MAFE4ImagesEEG,001,100818,
AFNE01.JPG,AFNE01.JPG,AFNE01.JPG,AFNE01.JPG,AFNE01.JPG,AFNE01.JPG,,,,,5,8,58,1,,,,,,,,,,,,,,,,,,,AFNE12.jpg,AFSA04.jpg,AFSA20.jpg,AFNE15.jpg,AFSA04.jpg,FS,4,num_6,16,num_6,0.983460121535,,,2017_Jun_27_1257,60.0077372273,MAFE4ImagesEEG,001,100818,
AFNE01.JPG,AFNE01.JPG,AFNE01.JPG,AFNE01.JPG,AFNE01.JPG,AFNE01.JPG,,,,,5,9,59,4,,,,,,,,,,,,,,,,,,,AFNE13.jpg,AFSA01.jpg,AFSA05.jpg,AFNE10.jpg,AFSA01.jpg,FS,4,num_6,32,num_2,2.83330574976,,,2017_Jun_27_1257,60.0077372273,MAFE4ImagesEEG,001,100818,
,,,,,,,,,,,,,,,,,,,,,,,,,,,,,,,,,,,,,,,,,,,space,30.4811145559,2017_Jun_27_1257,60.0077372273,MAFE4ImagesEEG,001,100818,
AFNE01.JPG,AFNE01.JPG,AFNE01.JPG,AFNE01.JPG,AFNE01.JPG,AFNE01.JPG,,,,,,,,,0,0,0,9,,,,,,,,,,,,,,,AMNE11.jpg,AMSA07.jpg,AMSA10.jpg,AMNE19.jpg,AMSA07.jpg,MS,2,num_6,16,num_6,1.03335238524,,,2017_Jun_27_1257,60.0077372273,MAFE4ImagesEEG,001,100818,
AFNE01.JPG,AFNE01.JPG,AFNE01.JPG,AFNE01.JPG,AFNE01.JPG,AFNE01.JPG,,,,,,,,,0,1,1,4,,,,,,,,,,,,,,,AMNE10.jpg,AMSA12.jpg,AMNE05.jpg,AMSA15.jpg,AMSA15.jpg,MS,2,num_4,16,num_4,0.633515705635,,,2017_Jun_27_1257,60.0077372273,MAFE4ImagesEEG,001,100818,
AFNE01.JPG,AFNE01.JPG,AFNE01.JPG,AFNE01.JPG,AFNE01.JPG,AFNE01.JPG,,,,,,,,,0,2,2,3,,,,,,,,,,,,,,,AMNE03.jpg,AMSA02.jpg,AMSA17.jpg,AMNE11.jpg,AMSA02.jpg,MS,2,num_6,32,num_8,0.716794352938,,,2017_Jun_27_1257,60.0077372273,MAFE4ImagesEEG,001,100818,
AFNE01.JPG,AFNE01.JPG,AFNE01.JPG,AFNE01.JPG,AFNE01.JPG,AFNE01.JPG,,,,,,,,,0,3,3,7,,,,,,,,,,,,,,,AMNE09.jpg,AMSA06.jpg,AMNE13.jpg,AMSA14.jpg,AMSA06.jpg,MS,2,num_6,16,num_6,0.766778989531,,,2017_Jun_27_1257,60.0077372273,MAFE4ImagesEEG,001,100818,
AFNE01.JPG,AFNE01.JPG,AFNE01.JPG,AFNE01.JPG,AFNE01.JPG,AFNE01.JPG,,,,,,,,,0,4,4,8,,,,,,,,,,,,,,,AMSA11.jpg,AMSA18.jpg,AMNE07.jpg,AMNE18.jpg,AMNE07.jpg,MN,1,num_2,32,num_4,1.08346403455,,,2017_Jun_27_1257,60.0077372273,MAFE4ImagesEEG,001,100818,
AFNE01.JPG,AFNE01.JPG,AFNE01.JPG,AFNE01.JPG,AFNE01.JPG,AFNE01.JPG,,,,,,,,,0,5,5,5,,,,,,,,,,,,,,,AMNE10.jpg,AMNE08.jpg,AMSA04.jpg,AMSA01.jpg,AMNE10.jpg,MN,1,num_8,16,num_8,0.983445046792,,,2017_Jun_27_1257,60.0077372273,MAFE4ImagesEEG,001,100818,
AFNE01.JPG,AFNE01.JPG,AFNE01.JPG,AFNE01.JPG,AFNE01.JPG,AFNE01.JPG,,,,,,,,,0,6,6,0,,,,,,,,,,,,,,,AMNE14.jpg,AMSA08.jpg,AMSA17.jpg,AMNE13.jpg,AMSA08.jpg,MS,2,num_6,16,num_6,0.81676522982,,,2017_Jun_27_1257,60.0077372273,MAFE4ImagesEEG,001,100818,
AFNE01.JPG,AFNE01.JPG,AFNE01.JPG,AFNE01.JPG,AFNE01.JPG,AFNE01.JPG,,,,,,,,,0,7,7,2,,,,,,,,,,,,,,,AMNE14.jpg,AMSA19.jpg,AMNE16.jpg,AMSA02.jpg,AMSA19.jpg,MS,2,num_6,16,num_6,1.20013098988,,,2017_Jun_27_1257,60.0077372273,MAFE4ImagesEEG,001,100818,
AFNE01.JPG,AFNE01.JPG,AFNE01.JPG,AFNE01.JPG,AFNE01.JPG,AFNE01.JPG,,,,,,,,,0,8,8,6,,,,,,,,,,,,,,,AMSA08.jpg,AMNE13.jpg,AMNE12.jpg,AMSA11.jpg,AMNE12.jpg,MN,1,num_2,16,num_2,2.41653628619,,,2017_Jun_27_1257,60.0077372273,MAFE4ImagesEEG,001,100818,
AFNE01.JPG,AFNE01.JPG,AFNE01.JPG,AFNE01.JPG,AFNE01.JPG,AFNE01.JPG,,,,,,,,,0,9,9,1,,,,,,,,,,,,,,,AMNE07.jpg,AMSA10.jpg,AMNE09.jpg,AMSA09.jpg,AMNE09.jpg,MN,1,num_2,32,num_8,0.800140034731,,,2017_Jun_27_1257,60.0077372273,MAFE4ImagesEEG,001,100818,
AFNE01.JPG,AFNE01.JPG,AFNE01.JPG,AFNE01.JPG,AFNE01.JPG,AFNE01.JPG,,,,,,,,,1,0,10,0,,,,,,,,,,,,,,,AMNE11.jpg,AMNE08.jpg,AMSA15.jpg,AMSA05.jpg,AMSA15.jpg,MS,2,num_2,16,num_2,0.700143177974,,,2017_Jun_27_1257,60.0077372273,MAFE4ImagesEEG,001,100818,
AFNE01.JPG,AFNE01.JPG,AFNE01.JPG,AFNE01.JPG,AFNE01.JPG,AFNE01.JPG,,,,,,,,,1,1,11,6,,,,,,,,,,,,,,,AMNE07.jpg,AMNE13.jpg,AMSA13.jpg,AMSA12.jpg,AMNE13.jpg,MN,1,num_6,32,num_8,0.900017576507,,,2017_Jun_27_1257,60.0077372273,MAFE4ImagesEEG,001,100818,
AFNE01.JPG,AFNE01.JPG,AFNE01.JPG,AFNE01.JPG,AFNE01.JPG,AFNE01.JPG,,,,,,,,,1,2,12,4,,,,,,,,,,,,,,,AMSA15.jpg,AMNE20.jpg,AMNE10.jpg,AMSA02.jpg,AMNE20.jpg,MN,1,num_6,16,num_6,0.916769784317,,,2017_Jun_27_1257,60.0077372273,MAFE4ImagesEEG,001,100818,
AFNE01.JPG,AFNE01.JPG,AFNE01.JPG,AFNE01.JPG,AFNE01.JPG,AFNE01.JPG,,,,,,,,,1,3,13,9,,,,,,,,,,,,,,,AMSA17.jpg,AMSA03.jpg,AMNE20.jpg,AMNE17.jpg,AMNE17.jpg,MN,1,num_4,16,num_4,0.900130476701,,,2017_Jun_27_1257,60.0077372273,MAFE4ImagesEEG,001,100818,
AFNE01.JPG,AFNE01.JPG,AFNE01.JPG,AFNE01.JPG,AFNE01.JPG,AFNE01.JPG,,,,,,,,,1,4,14,3,,,,,,,,,,,,,,,AMSA15.jpg,AMNE08.jpg,AMSA06.jpg,AMNE09.jpg,AMNE09.jpg,MN,1,num_4,16,num_4,0.850090672968,,,2017_Jun_27_1257,60.0077372273,MAFE4ImagesEEG,001,100818,
AFNE01.JPG,AFNE01.JPG,AFNE01.JPG,AFNE01.JPG,AFNE01.JPG,AFNE01.JPG,,,,,,,,,1,5,15,5,,,,,,,,,,,,,,,AMNE15.jpg,AMSA08.jpg,AMSA04.jpg,AMNE13.jpg,AMSA08.jpg,MS,2,num_6,32,num_4,0.883461661082,,,2017_Jun_27_1257,60.0077372273,MAFE4ImagesEEG,001,100818,
AFNE01.JPG,AFNE01.JPG,AFNE01.JPG,AFNE01.JPG,AFNE01.JPG,AFNE01.JPG,,,,,,,,,1,6,16,2,,,,,,,,,,,,,,,AMNE07.jpg,AMSA18.jpg,AMNE03.jpg,AMSA07.jpg,AMNE03.jpg,MN,1,num_2,32,num_8,0.850160273372,,,2017_Jun_27_1257,60.0077372273,MAFE4ImagesEEG,001,100818,
AFNE01.JPG,AFNE01.JPG,AFNE01.JPG,AFNE01.JPG,AFNE01.JPG,AFNE01.JPG,,,,,,,,,1,7,17,7,,,,,,,,,,,,,,,AMNE04.jpg,AMNE09.jpg,AMSA13.jpg,AMSA15.jpg,AMSA13.jpg,MS,2,num_2,32,num_8,1.20012970693,,,2017_Jun_27_1257,60.0077372273,MAFE4ImagesEEG,001,100818,
AFNE01.JPG,AFNE01.JPG,AFNE01.JPG,AFNE01.JPG,AFNE01.JPG,AFNE01.JPG,,,,,,,,,1,8,18,1,,,,,,,,,,,,,,,AMNE05.jpg,AMSA02.jpg,AMSA17.jpg,AMNE20.jpg,AMNE05.jpg,MN,1,num_8,32,num_4,0.73348497882,,,2017_Jun_27_1257,60.0077372273,MAFE4ImagesEEG,001,100818,
AFNE01.JPG,AFNE01.JPG,AFNE01.JPG,AFNE01.JPG,AFNE01.JPG,AFNE01.JPG,,,,,,,,,1,9,19,8,,,,,,,,,,,,,,,AMNE14.jpg,AMSA11.jpg,AMNE20.jpg,AMSA18.jpg,AMSA18.jpg,MS,2,num_4,16,num_4,0.866768790025,,,2017_Jun_27_1257,60.0077372273,MAFE4ImagesEEG,001,100818,
AFNE01.JPG,AFNE01.JPG,AFNE01.JPG,AFNE01.JPG,AFNE01.JPG,AFNE01.JPG,,,,,,,,,2,0,20,3,,,,,,,,,,,,,,,AMNE04.jpg,AMSA07.jpg,AMNE06.jpg,AMSA01.jpg,AMSA07.jpg,MS,2,num_6,16,num_6,0.833498193277,,,2017_Jun_27_1257,60.0077372273,MAFE4ImagesEEG,001,100818,
AFNE01.JPG,AFNE01.JPG,AFNE01.JPG,AFNE01.JPG,AFNE01.JPG,AFNE01.JPG,,,,,,,,,2,1,21,6,,,,,,,,,,,,,,,AMNE19.jpg,AMNE11.jpg,AMSA01.jpg,AMSA13.jpg,AMSA13.jpg,MS,2,num_4,16,num_4,0.81677260682,,,2017_Jun_27_1257,60.0077372273,MAFE4ImagesEEG,001,100818,
AFNE01.JPG,AFNE01.JPG,AFNE01.JPG,AFNE01.JPG,AFNE01.JPG,AFNE01.JPG,,,,,,,,,2,2,22,5,,,,,,,,,,,,,,,AMSA05.jpg,AMNE01.jpg,AMNE20.jpg,AMSA10.jpg,AMSA10.jpg,MS,2,num_4,16,num_4,0.533492869006,,,2017_Jun_27_1257,60.0077372273,MAFE4ImagesEEG,001,100818,
AFNE01.JPG,AFNE01.JPG,AFNE01.JPG,AFNE01.JPG,AFNE01.JPG,AFNE01.JPG,,,,,,,,,2,3,23,9,,,,,,,,,,,,,,,AMNE14.jpg,AMSA19.jpg,AMNE11.jpg,AMSA07.jpg,AMSA07.jpg,MS,2,num_4,16,num_4,1.23347439443,,,2017_Jun_27_1257,60.0077372273,MAFE4ImagesEEG,001,100818,
AFNE01.JPG,AFNE01.JPG,AFNE01.JPG,AFNE01.JPG,AFNE01.JPG,AFNE01.JPG,,,,,,,,,2,4,24,1,,,,,,,,,,,,,,,AMSA13.jpg,AMNE10.jpg,AMNE13.jpg,AMSA02.jpg,AMNE13.jpg,MN,1,num_2,32,num_6,0.816883261839,,,2017_Jun_27_1257,60.0077372273,MAFE4ImagesEEG,001,100818,
AFNE01.JPG,AFNE01.JPG,AFNE01.JPG,AFNE01.JPG,AFNE01.JPG,AFNE01.JPG,,,,,,,,,2,5,25,4,,,,,,,,,,,,,,,AMNE10.jpg,AMSA11.jpg,AMNE17.jpg,AMSA17.jpg,AMNE10.jpg,MN,1,num_8,16,num_8,0.816754003949,,,2017_Jun_27_1257,60.0077372273,MAFE4ImagesEEG,001,100818,
AFNE01.JPG,AFNE01.JPG,AFNE01.JPG,AFNE01.JPG,AFNE01.JPG,AFNE01.JPG,,,,,,,,,2,6,26,8,,,,,,,,,,,,,,,AMNE14.jpg,AMNE02.jpg,AMSA18.jpg,AMSA05.jpg,AMNE14.jpg,MN,1,num_8,16,num_8,0.950131150254,,,2017_Jun_27_1257,60.0077372273,MAFE4ImagesEEG,001,100818,
AFNE01.JPG,AFNE01.JPG,AFNE01.JPG,AFNE01.JPG,AFNE01.JPG,AFNE01.JPG,,,,,,,,,2,7,27,7,,,,,,,,,,,,,,,AMSA11.jpg,AMNE09.jpg,AMNE03.jpg,AMSA19.jpg,AMSA19.jpg,MS,2,num_4,32,num_8,0.700179100762,,,2017_Jun_27_1257,60.0077372273,MAFE4ImagesEEG,001,100818,
AFNE01.JPG,AFNE01.JPG,AFNE01.JPG,AFNE01.JPG,AFNE01.JPG,AFNE01.JPG,,,,,,,,,2,8,28,2,,,,,,,,,,,,,,,AMNE08.jpg,AMNE18.jpg,AMSA18.jpg,AMSA09.jpg,AMNE18.jpg,MN,1,num_6,32,num_8,1.11672051878,,,2017_Jun_27_1257,60.0077372273,MAFE4ImagesEEG,001,100818,
AFNE01.JPG,AFNE01.JPG,AFNE01.JPG,AFNE01.JPG,AFNE01.JPG,AFNE01.JPG,,,,,,,,,2,9,29,0,,,,,,,,,,,,,,,AMNE09.jpg,AMSA04.jpg,AMNE12.jpg,AMSA19.jpg,AMSA19.jpg,MS,2,num_4,16,num_4,1.03314839512,,,2017_Jun_27_1257,60.0077372273,MAFE4ImagesEEG,001,100818,
AFNE01.JPG,AFNE01.JPG,AFNE01.JPG,AFNE01.JPG,AFNE01.JPG,AFNE01.JPG,,,,,,,,,3,0,30,6,,,,,,,,,,,,,,,AMSA12.jpg,AMNE09.jpg,AMNE06.jpg,AMSA03.jpg,AMSA03.jpg,MS,2,num_4,16,num_4,0.833460346052,,,2017_Jun_27_1257,60.0077372273,MAFE4ImagesEEG,001,100818,
AFNE01.JPG,AFNE01.JPG,AFNE01.JPG,AFNE01.JPG,AFNE01.JPG,AFNE01.JPG,,,,,,,,,3,1,31,4,,,,,,,,,,,,,,,AMNE14.jpg,AMSA15.jpg,AMNE03.jpg,AMSA06.jpg,AMSA15.jpg,MS,2,num_6,16,num_6,0.916737710399,,,2017_Jun_27_1257,60.0077372273,MAFE4ImagesEEG,001,100818,
AFNE01.JPG,AFNE01.JPG,AFNE01.JPG,AFNE01.JPG,AFNE01.JPG,AFNE01.JPG,,,,,,,,,3,2,32,2,,,,,,,,,,,,,,,AMSA07.jpg,AMNE10.jpg,AMNE07.jpg,AMSA12.jpg,AMNE10.jpg,MN,1,num_6,32,num_8,1.35039280928,,,2017_Jun_27_1257,60.0077372273,MAFE4ImagesEEG,001,100818,
AFNE01.JPG,AFNE01.JPG,AFNE01.JPG,AFNE01.JPG,AFNE01.JPG,AFNE01.JPG,,,,,,,,,3,3,33,5,,,,,,,,,,,,,,,AMNE07.jpg,AMSA14.jpg,AMNE17.jpg,AMSA16.jpg,AMSA16.jpg,MS,2,num_4,16,num_4,0.600166527787,,,2017_Jun_27_1257,60.0077372273,MAFE4ImagesEEG,001,100818,
AFNE01.JPG,AFNE01.JPG,AFNE01.JPG,AFNE01.JPG,AFNE01.JPG,AFNE01.JPG,,,,,,,,,3,4,34,1,,,,,,,,,,,,,,,AMNE02.jpg,AMNE05.jpg,AMSA08.jpg,AMSA02.jpg,AMSA08.jpg,MS,2,num_2,32,num_6,0.966777193391,,,2017_Jun_27_1257,60.0077372273,MAFE4ImagesEEG,001,100818,
AFNE01.JPG,AFNE01.JPG,AFNE01.JPG,AFNE01.JPG,AFNE01.JPG,AFNE01.JPG,,,,,,,,,3,5,35,8,,,,,,,,,,,,,,,AMSA02.jpg,AMSA05.jpg,AMNE01.jpg,AMNE18.jpg,AMNE01.jpg,MN,1,num_2,32,num_4,0.699978318031,,,2017_Jun_27_1257,60.0077372273,MAFE4ImagesEEG,001,100818,
AFNE01.JPG,AFNE01.JPG,AFNE01.JPG,AFNE01.JPG,AFNE01.JPG,AFNE01.JPG,,,,,,,,,3,6,36,9,,,,,,,,,,,,,,,AMNE05.jpg,AMSA05.jpg,AMSA12.jpg,AMNE09.jpg,AMNE05.jpg,MN,1,num_8,32,num_4,1.0502024185,,,2017_Jun_27_1257,60.0077372273,MAFE4ImagesEEG,001,100818,
AFNE01.JPG,AFNE01.JPG,AFNE01.JPG,AFNE01.JPG,AFNE01.JPG,AFNE01.JPG,,,,,,,,,3,7,37,7,,,,,,,,,,,,,,,AMNE11.jpg,AMNE17.jpg,AMSA03.jpg,AMSA01.jpg,AMNE17.jpg,MN,1,num_6,32,num_8,0.800193918914,,,2017_Jun_27_1257,60.0077372273,MAFE4ImagesEEG,001,100818,
AFNE01.JPG,AFNE01.JPG,AFNE01.JPG,AFNE01.JPG,AFNE01.JPG,AFNE01.JPG,,,,,,,,,3,8,38,0,,,,,,,,,,,,,,,AMSA05.jpg,AMNE14.jpg,AMSA15.jpg,AMNE20.jpg,AMSA05.jpg,MS,2,num_8,32,num_6,0.816772286082,,,2017_Jun_27_1257,60.0077372273,MAFE4ImagesEEG,001,100818,
AFNE01.JPG,AFNE01.JPG,AFNE01.JPG,AFNE01.JPG,AFNE01.JPG,AFNE01.JPG,,,,,,,,,3,9,39,3,,,,,,,,,,,,,,,AMNE07.jpg,AMNE16.jpg,AMSA03.jpg,AMSA07.jpg,AMSA03.jpg,MS,2,num_2,16,num_2,1.71672058292,,,2017_Jun_27_1257,60.0077372273,MAFE4ImagesEEG,001,100818,
AFNE01.JPG,AFNE01.JPG,AFNE01.JPG,AFNE01.JPG,AFNE01.JPG,AFNE01.JPG,,,,,,,,,4,0,40,5,,,,,,,,,,,,,,,AMSA14.jpg,AMNE01.jpg,AMSA20.jpg,AMNE15.jpg,AMNE01.jpg,MN,1,num_6,32,num_4,0.783366658135,,,2017_Jun_27_1257,60.0077372273,MAFE4ImagesEEG,001,100818,
AFNE01.JPG,AFNE01.JPG,AFNE01.JPG,AFNE01.JPG,AFNE01.JPG,AFNE01.JPG,,,,,,,,,4,1,41,8,,,,,,,,,,,,,,,AMNE06.jpg,AMSA10.jpg,AMSA01.jpg,AMNE03.jpg,AMNE03.jpg,MN,1,num_4,32,num_6,0.86679060029,,,2017_Jun_27_1257,60.0077372273,MAFE4ImagesEEG,001,100818,
AFNE01.JPG,AFNE01.JPG,AFNE01.JPG,AFNE01.JPG,AFNE01.JPG,AFNE01.JPG,,,,,,,,,4,2,42,3,,,,,,,,,,,,,,,AMSA19.jpg,AMNE17.jpg,AMSA16.jpg,AMNE20.jpg,AMNE17.jpg,MN,1,num_6,32,num_4,1.00005452566,,,2017_Jun_27_1257,60.0077372273,MAFE4ImagesEEG,001,100818,
AFNE01.JPG,AFNE01.JPG,AFNE01.JPG,AFNE01.JPG,AFNE01.JPG,AFNE01.JPG,,,,,,,,,4,3,43,4,,,,,,,,,,,,,,,AMNE03.jpg,AMNE18.jpg,AMSA11.jpg,AMSA07.jpg,AMSA11.jpg,MS,2,num_2,16,num_2,1.06678559676,,,2017_Jun_27_1257,60.0077372273,MAFE4ImagesEEG,001,100818,
AFNE01.JPG,AFNE01.JPG,AFNE01.JPG,AFNE01.JPG,AFNE01.JPG,AFNE01.JPG,,,,,,,,,4,4,44,1,,,,,,,,,,,,,,,AMNE10.jpg,AMSA09.jpg,AMNE07.jpg,AMSA10.jpg,AMNE07.jpg,MN,1,num_2,32,num_6,0.666892787794,,,2017_Jun_27_1257,60.0077372273,MAFE4ImagesEEG,001,100818,
AFNE01.JPG,AFNE01.JPG,AFNE01.JPG,AFNE01.JPG,AFNE01.JPG,AFNE01.JPG,,,,,,,,,4,5,45,0,,,,,,,,,,,,,,,AMSA14.jpg,AMNE09.jpg,AMSA20.jpg,AMNE03.jpg,AMNE03.jpg,MN,1,num_4,16,num_4,0.766800799796,,,2017_Jun_27_1257,60.0077372273,MAFE4ImagesEEG,001,100818,
AFNE01.JPG,AFNE01.JPG,AFNE01.JPG,AFNE01.JPG,AFNE01.JPG,AFNE01.JPG,,,,,,,,,4,6,46,6,,,,,,,,,,,,,,,AMNE03.jpg,AMSA06.jpg,AMNE07.jpg,AMSA10.jpg,AMNE07.jpg,MN,1,num_2,32,num_8,0.833454893485,,,2017_Jun_27_1257,60.0077372273,MAFE4ImagesEEG,001,100818,
AFNE01.JPG,AFNE01.JPG,AFNE01.JPG,AFNE01.JPG,AFNE01.JPG,AFNE01.JPG,,,,,,,,,4,7,47,2,,,,,,,,,,,,,,,AMSA20.jpg,AMNE15.jpg,AMNE08.jpg,AMSA04.jpg,AMSA20.jpg,MS,2,num_8,16,num_8,1.0167570189,,,2017_Jun_27_1257,60.0077372273,MAFE4ImagesEEG,001,100818,
AFNE01.JPG,AFNE01.JPG,AFNE01.JPG,AFNE01.JPG,AFNE01.JPG,AFNE01.JPG,,,,,,,,,4,8,48,9,,,,,,,,,,,,,,,AMNE09.jpg,AMNE15.jpg,AMSA06.jpg,AMSA13.jpg,AMSA06.jpg,MS,2,num_2,32,num_6,1.10013573682,,,2017_Jun_27_1257,60.0077372273,MAFE4ImagesEEG,001,100818,
AFNE01.JPG,AFNE01.JPG,AFNE01.JPG,AFNE01.JPG,AFNE01.JPG,AFNE01.JPG,,,,,,,,,4,9,49,7,,,,,,,,,,,,,,,AMSA04.jpg,AMSA19.jpg,AMNE05.jpg,AMNE14.jpg,AMNE14.jpg,MN,1,num_4,16,num_4,0.700137404669,,,2017_Jun_27_1257,60.0077372273,MAFE4ImagesEEG,001,100818,
AFNE01.JPG,AFNE01.JPG,AFNE01.JPG,AFNE01.JPG,AFNE01.JPG,AFNE01.JPG,,,,,,,,,5,0,50,3,,,,,,,,,,,,,,,AMSA03.jpg,AMNE09.jpg,AMNE02.jpg,AMSA05.jpg,AMSA03.jpg,MS,2,num_8,32,num_4,1.15009760094,,,2017_Jun_27_1257,60.0077372273,MAFE4ImagesEEG,001,100818,
AFNE01.JPG,AFNE01.JPG,AFNE01.JPG,AFNE01.JPG,AFNE01.JPG,AFNE01.JPG,,,,,,,,,5,1,51,9,,,,,,,,,,,,,,,AMSA05.jpg,AMSA20.jpg,AMNE02.jpg,AMNE03.jpg,AMNE02.jpg,MN,1,num_2,32,num_4,0.850150009719,,,2017_Jun_27_1257,60.0077372273,MAFE4ImagesEEG,001,100818,
AFNE01.JPG,AFNE01.JPG,AFNE01.JPG,AFNE01.JPG,AFNE01.JPG,AFNE01.JPG,,,,,,,,,5,2,52,1,,,,,,,,,,,,,,,AMNE05.jpg,AMSA03.jpg,AMSA19.jpg,AMNE02.jpg,AMSA03.jpg,MS,2,num_6,16,num_6,0.500168067336,,,2017_Jun_27_1257,60.0077372273,MAFE4ImagesEEG,001,100818,
AFNE01.JPG,AFNE01.JPG,AFNE01.JPG,AFNE01.JPG,AFNE01.JPG,AFNE01.JPG,,,,,,,,,5,3,53,5,,,,,,,,,,,,,,,AMSA10.jpg,AMSA20.jpg,AMNE14.jpg,AMNE13.jpg,AMNE14.jpg,MN,1,num_2,32,num_4,0.816809171089,,,2017_Jun_27_1257,60.0077372273,MAFE4ImagesEEG,001,100818,
AFNE01.JPG,AFNE01.JPG,AFNE01.JPG,AFNE01.JPG,AFNE01.JPG,AFNE01.JPG,,,,,,,,,5,4,54,7,,,,,,,,,,,,,,,AMNE09.jpg,AMNE12.jpg,AMSA12.jpg,AMSA07.jpg,AMNE09.jpg,MN,1,num_8,16,num_8,0.716850482295,,,2017_Jun_27_1257,60.0077372273,MAFE4ImagesEEG,001,100818,
AFNE01.JPG,AFNE01.JPG,AFNE01.JPG,AFNE01.JPG,AFNE01.JPG,AFNE01.JPG,,,,,,,,,5,5,55,0,,,,,,,,,,,,,,,AMNE13.jpg,AMSA18.jpg,AMNE10.jpg,AMSA11.jpg,AMSA11.jpg,MS,2,num_4,16,num_4,1.03346464396,,,2017_Jun_27_1257,60.0077372273,MAFE4ImagesEEG,001,100818,
AFNE01.JPG,AFNE01.JPG,AFNE01.JPG,AFNE01.JPG,AFNE01.JPG,AFNE01.JPG,,,,,,,,,5,6,56,6,,,,,,,,,,,,,,,AMNE14.jpg,AMSA20.jpg,AMSA10.jpg,AMNE09.jpg,AMSA10.jpg,MS,2,num_2,32,num_6,0.78349944416,,,2017_Jun_27_1257,60.0077372273,MAFE4ImagesEEG,001,100818,
AFNE01.JPG,AFNE01.JPG,AFNE01.JPG,AFNE01.JPG,AFNE01.JPG,AFNE01.JPG,,,,,,,,,5,7,57,8,,,,,,,,,,,,,,,AMNE20.jpg,AMSA17.jpg,AMNE03.jpg,AMSA11.jpg,AMSA17.jpg,MS,2,num_6,32,num_8,0.816756890599,,,2017_Jun_27_1257,60.0077372273,MAFE4ImagesEEG,001,100818,
AFNE01.JPG,AFNE01.JPG,AFNE01.JPG,AFNE01.JPG,AFNE01.JPG,AFNE01.JPG,,,,,,,,,5,8,58,2,,,,,,,,,,,,,,,AMSA10.jpg,AMNE06.jpg,AMNE03.jpg,AMSA06.jpg,AMSA06.jpg,MS,2,num_4,16,num_4,0.766737293437,,,2017_Jun_27_1257,60.0077372273,MAFE4ImagesEEG,001,100818,
AFNE01.JPG,AFNE01.JPG,AFNE01.JPG,AFNE01.JPG,AFNE01.JPG,AFNE01.JPG,,,,,,,,,5,9,59,4,,,,,,,,,,,,,,,AMSA07.jpg,AMNE10.jpg,AMNE04.jpg,AMSA09.jpg,AMSA07.jpg,MS,2,num_8,16,num_8,0.683497134838,,,2017_Jun_27_1257,60.0077372273,MAFE4ImagesEEG,001,100818,
,,,,,,,,,,,,,,,,,,,,,,,,,,,,,,,,,,,,,,,,,,,space,29.1143053527,2017_Jun_27_1257,60.0077372273,MAFE4ImagesEEG,001,100818,
AFNE01.JPG,AFNE01.JPG,AFNE01.JPG,AFNE01.JPG,AFNE01.JPG,AFNE01.JPG,,,,,,,,,,,,,0,0,0,9,,,,,,,,,,,AFNE11.jpg,AFNE14.jpg,AFSA11.jpg,AFSA03.jpg,AFSA11.jpg,FS,4,num_2,32,num_4,0.766765518485,,,2017_Jun_27_1257,60.0077372273,MAFE4ImagesEEG,001,100818,
AFNE01.JPG,AFNE01.JPG,AFNE01.JPG,AFNE01.JPG,AFNE01.JPG,AFNE01.JPG,,,,,,,,,,,,,0,1,1,5,,,,,,,,,,,AFSA18.jpg,AFNE19.jpg,AFNE16.jpg,AFSA20.jpg,AFSA18.jpg,FS,4,num_8,32,num_4,0.633457010365,,,2017_Jun_27_1257,60.0077372273,MAFE4ImagesEEG,001,100818,
AFNE01.JPG,AFNE01.JPG,AFNE01.JPG,AFNE01.JPG,AFNE01.JPG,AFNE01.JPG,,,,,,,,,,,,,0,2,2,8,,,,,,,,,,,AFSA18.jpg,AFSA04.jpg,AFNE16.jpg,AFNE14.jpg,AFSA04.jpg,FS,4,num_6,16,num_6,0.900086214693,,,2017_Jun_27_1257,60.0077372273,MAFE4ImagesEEG,001,100818,
AFNE01.JPG,AFNE01.JPG,AFNE01.JPG,AFNE01.JPG,AFNE01.JPG,AFNE01.JPG,,,,,,,,,,,,,0,3,3,6,,,,,,,,,,,AFNE09.jpg,AFSA19.jpg,AFNE04.jpg,AFSA14.jpg,AFNE04.jpg,FN,3,num_2,16,num_2,0.900173776494,,,2017_Jun_27_1257,60.0077372273,MAFE4ImagesEEG,001,100818,
AFNE01.JPG,AFNE01.JPG,AFNE01.JPG,AFNE01.JPG,AFNE01.JPG,AFNE01.JPG,,,,,,,,,,,,,0,4,4,3,,,,,,,,,,,AFNE02.jpg,AFSA14.jpg,AFNE05.jpg,AFSA04.jpg,AFNE05.jpg,FN,3,num_2,32,num_8,0.800140676209,,,2017_Jun_27_1257,60.0077372273,MAFE4ImagesEEG,001,100818,
AFNE01.JPG,AFNE01.JPG,AFNE01.JPG,AFNE01.JPG,AFNE01.JPG,AFNE01.JPG,,,,,,,,,,,,,0,5,5,7,,,,,,,,,,,AFNE17.jpg,AFNE14.jpg,AFSA20.jpg,AFSA12.jpg,AFNE17.jpg,FN,3,num_8,16,num_8,1.28339616614,,,2017_Jun_27_1257,60.0077372273,MAFE4ImagesEEG,001,100818,
AFNE01.JPG,AFNE01.JPG,AFNE01.JPG,AFNE01.JPG,AFNE01.JPG,AFNE01.JPG,,,,,,,,,,,,,0,6,6,4,,,,,,,,,,,AFSA14.jpg,AFNE08.jpg,AFSA19.jpg,AFNE18.jpg,AFNE08.jpg,FN,3,num_6,16,num_6,0.783464162849,,,2017_Jun_27_1257,60.0077372273,MAFE4ImagesEEG,001,100818,
AFNE01.JPG,AFNE01.JPG,AFNE01.JPG,AFNE01.JPG,AFNE01.JPG,AFNE01.JPG,,,,,,,,,,,,,0,7,7,2,,,,,,,,,,,AFSA13.jpg,AFSA08.jpg,AFNE09.jpg,AFNE19.jpg,AFSA08.jpg,FS,4,num_6,32,num_8,1.65005494262,,,2017_Jun_27_1257,60.0077372273,MAFE4ImagesEEG,001,100818,
AFNE01.JPG,AFNE01.JPG,AFNE01.JPG,AFNE01.JPG,AFNE01.JPG,AFNE01.JPG,,,,,,,,,,,,,0,8,8,0,,,,,,,,,,,AFSA02.jpg,AFNE06.jpg,AFNE20.jpg,AFSA19.jpg,AFNE06.jpg,FN,3,num_6,32,num_8,0.900104176088,,,2017_Jun_27_1257,60.0077372273,MAFE4ImagesEEG,001,100818,
AFNE01.JPG,AFNE01.JPG,AFNE01.JPG,AFNE01.JPG,AFNE01.JPG,AFNE01.JPG,,,,,,,,,,,,,0,9,9,1,,,,,,,,,,,AFNE03.jpg,AFSA08.jpg,AFNE02.jpg,AFSA18.jpg,AFSA08.jpg,FS,4,num_6,32,num_4,0.633468236236,,,2017_Jun_27_1257,60.0077372273,MAFE4ImagesEEG,001,100818,
AFNE01.JPG,AFNE01.JPG,AFNE01.JPG,AFNE01.JPG,AFNE01.JPG,AFNE01.JPG,,,,,,,,,,,,,1,0,10,6,,,,,,,,,,,AFNE12.jpg,AFSA10.jpg,AFNE04.jpg,AFSA16.jpg,AFSA10.jpg,FS,4,num_6,16,num_6,0.633481065803,,,2017_Jun_27_1257,60.0077372273,MAFE4ImagesEEG,001,100818,
AFNE01.JPG,AFNE01.JPG,AFNE01.JPG,AFNE01.JPG,AFNE01.JPG,AFNE01.JPG,,,,,,,,,,,,,1,1,11,4,,,,,,,,,,,AFSA17.jpg,AFSA14.jpg,AFNE14.jpg,AFNE02.jpg,AFSA14.jpg,FS,4,num_6,32,num_4,0.616763818567,,,2017_Jun_27_1257,60.0077372273,MAFE4ImagesEEG,001,100818,
AFNE01.JPG,AFNE01.JPG,AFNE01.JPG,AFNE01.JPG,AFNE01.JPG,AFNE01.JPG,,,,,,,,,,,,,1,2,12,5,,,,,,,,,,,AFNE08.jpg,AFSA11.jpg,AFSA12.jpg,AFNE09.jpg,AFNE09.jpg,FN,3,num_4,32,num_8,0.766777385836,,,2017_Jun_27_1257,60.0077372273,MAFE4ImagesEEG,001,100818,
AFNE01.JPG,AFNE01.JPG,AFNE01.JPG,AFNE01.JPG,AFNE01.JPG,AFNE01.JPG,,,,,,,,,,,,,1,3,13,3,,,,,,,,,,,AFNE01.jpg,AFSA08.jpg,AFSA11.jpg,AFNE03.jpg,AFNE01.jpg,FN,3,num_8,16,num_8,0.78347089837,,,2017_Jun_27_1257,60.0077372273,MAFE4ImagesEEG,001,100818,
AFNE01.JPG,AFNE01.JPG,AFNE01.JPG,AFNE01.JPG,AFNE01.JPG,AFNE01.JPG,,,,,,,,,,,,,1,4,14,8,,,,,,,,,,,AFNE19.jpg,AFNE13.jpg,AFSA07.jpg,AFSA03.jpg,AFSA07.jpg,FS,4,num_2,32,num_4,1.28339327949,,,2017_Jun_27_1257,60.0077372273,MAFE4ImagesEEG,001,100818,
AFNE01.JPG,AFNE01.JPG,AFNE01.JPG,AFNE01.JPG,AFNE01.JPG,AFNE01.JPG,,,,,,,,,,,,,1,5,15,0,,,,,,,,,,,AFSA15.jpg,AFNE14.jpg,AFNE12.jpg,AFSA01.jpg,AFNE14.jpg,FN,3,num_6,32,num_2,2.4833706353,,,2017_Jun_27_1257,60.0077372273,MAFE4ImagesEEG,001,100818,
AFNE01.JPG,AFNE01.JPG,AFNE01.JPG,AFNE01.JPG,AFNE01.JPG,AFNE01.JPG,,,,,,,,,,,,,1,6,16,9,,,,,,,,,,,AFNE15.jpg,AFSA07.jpg,AFNE10.jpg,AFSA11.jpg,AFSA07.jpg,FS,4,num_6,16,num_6,0.68349168227,,,2017_Jun_27_1257,60.0077372273,MAFE4ImagesEEG,001,100818,
AFNE01.JPG,AFNE01.JPG,AFNE01.JPG,AFNE01.JPG,AFNE01.JPG,AFNE01.JPG,,,,,,,,,,,,,1,7,17,1,,,,,,,,,,,AFSA03.jpg,AFNE03.jpg,AFSA15.jpg,AFNE02.jpg,AFSA03.jpg,FS,4,num_8,32,num_4,0.800125922206,,,2017_Jun_27_1257,60.0077372273,MAFE4ImagesEEG,001,100818,
AFNE01.JPG,AFNE01.JPG,AFNE01.JPG,AFNE01.JPG,AFNE01.JPG,AFNE01.JPG,,,,,,,,,,,,,1,8,18,2,,,,,,,,,,,AFSA08.jpg,AFNE17.jpg,AFNE03.jpg,AFSA19.jpg,AFSA08.jpg,FS,4,num_8,16,num_8,0.550027615645,,,2017_Jun_27_1257,60.0077372273,MAFE4ImagesEEG,001,100818,
AFNE01.JPG,AFNE01.JPG,AFNE01.JPG,AFNE01.JPG,AFNE01.JPG,AFNE01.JPG,,,,,,,,,,,,,1,9,19,7,,,,,,,,,,,AFNE17.jpg,AFSA15.jpg,AFSA02.jpg,AFNE08.jpg,AFSA02.jpg,FS,4,num_2,32,num_4,0.883291027834,,,2017_Jun_27_1257,60.0077372273,MAFE4ImagesEEG,001,100818,
AFNE01.JPG,AFNE01.JPG,AFNE01.JPG,AFNE01.JPG,AFNE01.JPG,AFNE01.JPG,,,,,,,,,,,,,2,0,20,9,,,,,,,,,,,AFSA17.jpg,AFSA03.jpg,AFNE05.jpg,AFNE19.jpg,AFSA03.jpg,FS,4,num_6,16,num_6,0.666846922091,,,2017_Jun_27_1257,60.0077372273,MAFE4ImagesEEG,001,100818,
AFNE01.JPG,AFNE01.JPG,AFNE01.JPG,AFNE01.JPG,AFNE01.JPG,AFNE01.JPG,,,,,,,,,,,,,2,1,21,3,,,,,,,,,,,AFNE16.jpg,AFNE20.jpg,AFSA06.jpg,AFSA12.jpg,AFSA12.jpg,FS,4,num_4,16,num_4,0.533483246831,,,2017_Jun_27_1257,60.0077372273,MAFE4ImagesEEG,001,100818,
AFNE01.JPG,AFNE01.JPG,AFNE01.JPG,AFNE01.JPG,AFNE01.JPG,AFNE01.JPG,,,,,,,,,,,,,2,2,22,8,,,,,,,,,,,AFSA02.jpg,AFNE01.jpg,AFNE16.jpg,AFSA09.jpg,AFSA02.jpg,FS,4,num_8,32,num_4,0.750134229351,,,2017_Jun_27_1257,60.0077372273,MAFE4ImagesEEG,001,100818,
AFNE01.JPG,AFNE01.JPG,AFNE01.JPG,AFNE01.JPG,AFNE01.JPG,AFNE01.JPG,,,,,,,,,,,,,2,3,23,0,,,,,,,,,,,AFNE06.jpg,AFNE07.jpg,AFSA08.jpg,AFSA14.jpg,AFSA08.jpg,FS,4,num_2,16,num_2,1.76674178378,,,2017_Jun_27_1257,60.0077372273,MAFE4ImagesEEG,001,100818,
AFNE01.JPG,AFNE01.JPG,AFNE01.JPG,AFNE01.JPG,AFNE01.JPG,AFNE01.JPG,,,,,,,,,,,,,2,4,24,2,,,,,,,,,,,AFSA03.jpg,AFNE18.jpg,AFSA10.jpg,AFNE02.jpg,AFNE02.jpg,FN,3,num_4,16,num_4,0.900129193746,,,2017_Jun_27_1257,60.0077372273,MAFE4ImagesEEG,001,100818,
AFNE01.JPG,AFNE01.JPG,AFNE01.JPG,AFNE01.JPG,AFNE01.JPG,AFNE01.JPG,,,,,,,,,,,,,2,5,25,6,,,,,,,,,,,AFSA12.jpg,AFSA11.jpg,AFNE01.jpg,AFNE14.jpg,AFSA12.jpg,FS,4,num_8,32,num_4,0.816759777254,,,2017_Jun_27_1257,60.0077372273,MAFE4ImagesEEG,001,100818,
AFNE01.JPG,AFNE01.JPG,AFNE01.JPG,AFNE01.JPG,AFNE01.JPG,AFNE01.JPG,,,,,,,,,,,,,2,6,26,7,,,,,,,,,,,AFSA12.jpg,AFNE18.jpg,AFSA01.jpg,AFNE07.jpg,AFNE18.jpg,FN,3,num_6,32,num_4,0.833494985885,,,2017_Jun_27_1257,60.0077372273,MAFE4ImagesEEG,001,100818,
AFNE01.JPG,AFNE01.JPG,AFNE01.JPG,AFNE01.JPG,AFNE01.JPG,AFNE01.JPG,,,,,,,,,,,,,2,7,27,4,,,,,,,,,,,AFNE07.jpg,AFSA18.jpg,AFSA10.jpg,AFNE05.jpg,AFSA18.jpg,FS,4,num_6,16,num_6,0.733518014958,,,2017_Jun_27_1257,60.0077372273,MAFE4ImagesEEG,001,100818,
AFNE01.JPG,AFNE01.JPG,AFNE01.JPG,AFNE01.JPG,AFNE01.JPG,AFNE01.JPG,,,,,,,,,,,,,2,8,28,1,,,,,,,,,,,AFNE16.jpg,AFSA03.jpg,AFNE13.jpg,AFSA20.jpg,AFSA20.jpg,FS,4,num_4,16,num_4,1.55008246204,,,2017_Jun_27_1257,60.0077372273,MAFE4ImagesEEG,001,100818,
AFNE01.JPG,AFNE01.JPG,AFNE01.JPG,AFNE01.JPG,AFNE01.JPG,AFNE01.JPG,,,,,,,,,,,,,2,9,29,5,,,,,,,,,,,AFNE17.jpg,AFSA10.jpg,AFSA17.jpg,AFNE08.jpg,AFNE08.jpg,FN,3,num_4,32,num_8,1.3167078175,,,2017_Jun_27_1257,60.0077372273,MAFE4ImagesEEG,001,100818,
AFNE01.JPG,AFNE01.JPG,AFNE01.JPG,AFNE01.JPG,AFNE01.JPG,AFNE01.JPG,,,,,,,,,,,,,3,0,30,0,,,,,,,,,,,AFSA07.jpg,AFNE07.jpg,AFSA13.jpg,AFNE14.jpg,AFSA13.jpg,FS,4,num_2,32,num_4,0.633503838286,,,2017_Jun_27_1257,60.0077372273,MAFE4ImagesEEG,001,100818,
AFNE01.JPG,AFNE01.JPG,AFNE01.JPG,AFNE01.JPG,AFNE01.JPG,AFNE01.JPG,,,,,,,,,,,,,3,1,31,8,,,,,,,,,,,AFSA06.jpg,AFNE12.jpg,AFNE04.jpg,AFSA16.jpg,AFSA06.jpg,FS,4,num_8,32,num_4,0.550168099408,,,2017_Jun_27_1257,60.0077372273,MAFE4ImagesEEG,001,100818,
AFNE01.JPG,AFNE01.JPG,AFNE01.JPG,AFNE01.JPG,AFNE01.JPG,AFNE01.JPG,,,,,,,,,,,,,3,2,32,5,,,,,,,,,,,AFSA11.jpg,AFNE02.jpg,AFSA16.jpg,AFNE06.jpg,AFNE02.jpg,FN,3,num_6,32,num_4,0.883438888601,,,2017_Jun_27_1257,60.0077372273,MAFE4ImagesEEG,001,100818,
AFNE01.JPG,AFNE01.JPG,AFNE01.JPG,AFNE01.JPG,AFNE01.JPG,AFNE01.JPG,,,,,,,,,,,,,3,3,33,1,,,,,,,,,,,AFSA20.jpg,AFSA18.jpg,AFNE19.jpg,AFNE11.jpg,AFNE11.jpg,FN,3,num_4,16,num_4,0.833737143972,,,2017_Jun_27_1257,60.0077372273,MAFE4ImagesEEG,001,100818,
AFNE01.JPG,AFNE01.JPG,AFNE01.JPG,AFNE01.JPG,AFNE01.JPG,AFNE01.JPG,,,,,,,,,,,,,3,4,34,9,,,,,,,,,,,AFNE06.jpg,AFNE13.jpg,AFSA01.jpg,AFSA19.jpg,AFNE06.jpg,FN,3,num_8,32,num_6,0.750158926268,,,2017_Jun_27_1257,60.0077372273,MAFE4ImagesEEG,001,100818,
AFNE01.JPG,AFNE01.JPG,AFNE01.JPG,AFNE01.JPG,AFNE01.JPG,AFNE01.JPG,,,,,,,,,,,,,3,5,35,2,,,,,,,,,,,AFSA11.jpg,AFSA14.jpg,AFNE01.jpg,AFNE16.jpg,AFSA14.jpg,FS,4,num_6,16,num_6,0.700113669969,,,2017_Jun_27_1257,60.0077372273,MAFE4ImagesEEG,001,100818,
AFNE01.JPG,AFNE01.JPG,AFNE01.JPG,AFNE01.JPG,AFNE01.JPG,AFNE01.JPG,,,,,,,,,,,,,3,6,36,3,,,,,,,,,,,AFSA13.jpg,AFNE10.jpg,AFSA19.jpg,AFNE07.jpg,AFNE07.jpg,FN,3,num_4,32,num_6,0.866742168671,,,2017_Jun_27_1257,60.0077372273,MAFE4ImagesEEG,001,100818,
AFNE01.JPG,AFNE01.JPG,AFNE01.JPG,AFNE01.JPG,AFNE01.JPG,AFNE01.JPG,,,,,,,,,,,,,3,7,37,6,,,,,,,,,,,AFNE09.jpg,AFSA06.jpg,AFNE20.jpg,AFSA04.jpg,AFSA04.jpg,FS,4,num_4,16,num_4,0.416792556798,,,2017_Jun_27_1257,60.0077372273,MAFE4ImagesEEG,001,100818,
AFNE01.JPG,AFNE01.JPG,AFNE01.JPG,AFNE01.JPG,AFNE01.JPG,AFNE01.JPG,,,,,,,,,,,,,3,8,38,4,,,,,,,,,,,AFSA06.jpg,AFNE11.jpg,AFSA17.jpg,AFNE14.jpg,AFNE11.jpg,FN,3,num_6,16,num_6,0.950103887424,,,2017_Jun_27_1257,60.0077372273,MAFE4ImagesEEG,001,100818,
AFNE01.JPG,AFNE01.JPG,AFNE01.JPG,AFNE01.JPG,AFNE01.JPG,AFNE01.JPG,,,,,,,,,,,,,3,9,39,7,,,,,,,,,,,AFNE10.jpg,AFSA09.jpg,AFNE18.jpg,AFSA11.jpg,AFSA09.jpg,FS,4,num_6,32,num_8,0.866757243413,,,2017_Jun_27_1257,60.0077372273,MAFE4ImagesEEG,001,100818,
AFNE01.JPG,AFNE01.JPG,AFNE01.JPG,AFNE01.JPG,AFNE01.JPG,AFNE01.JPG,,,,,,,,,,,,,4,0,40,4,,,,,,,,,,,AFNE03.jpg,AFNE17.jpg,AFSA02.jpg,AFSA11.jpg,AFNE17.jpg,FN,3,num_6,32,num_4,0.80012784664,,,2017_Jun_27_1257,60.0077372273,MAFE4ImagesEEG,001,100818,
AFNE01.JPG,AFNE01.JPG,AFNE01.JPG,AFNE01.JPG,AFNE01.JPG,AFNE01.JPG,,,,,,,,,,,,,4,1,41,2,,,,,,,,,,,AFNE05.jpg,AFNE15.jpg,AFSA16.jpg,AFSA12.jpg,AFNE05.jpg,FN,3,num_8,32,num_6,0.76675525483,,,2017_Jun_27_1257,60.0077372273,MAFE4ImagesEEG,001,100818,
AFNE01.JPG,AFNE01.JPG,AFNE01.JPG,AFNE01.JPG,AFNE01.JPG,AFNE01.JPG,,,,,,,,,,,,,4,2,42,0,,,,,,,,,,,AFSA20.jpg,AFSA03.jpg,AFNE10.jpg,AFNE19.jpg,AFSA03.jpg,FS,4,num_6,16,num_6,0.716776070803,,,2017_Jun_27_1257,60.0077372273,MAFE4ImagesEEG,001,100818,
AFNE01.JPG,AFNE01.JPG,AFNE01.JPG,AFNE01.JPG,AFNE01.JPG,AFNE01.JPG,,,,,,,,,,,,,4,3,43,8,,,,,,,,,,,AFNE15.jpg,AFNE01.jpg,AFSA17.jpg,AFSA13.jpg,AFSA13.jpg,FS,4,num_4,16,num_4,0.816794417085,,,2017_Jun_27_1257,60.0077372273,MAFE4ImagesEEG,001,100818,
AFNE01.JPG,AFNE01.JPG,AFNE01.JPG,AFNE01.JPG,AFNE01.JPG,AFNE01.JPG,,,,,,,,,,,,,4,4,44,5,,,,,,,,,,,AFSA08.jpg,AFSA03.jpg,AFNE03.jpg,AFNE02.jpg,AFSA08.jpg,FS,4,num_8,32,num_4,1.83347413784,,,2017_Jun_27_1257,60.0077372273,MAFE4ImagesEEG,001,100818,
AFNE01.JPG,AFNE01.JPG,AFNE01.JPG,AFNE01.JPG,AFNE01.JPG,AFNE01.JPG,,,,,,,,,,,,,4,5,45,9,,,,,,,,,,,AFNE18.jpg,AFSA02.jpg,AFNE12.jpg,AFSA04.jpg,AFNE12.jpg,FN,3,num_2,16,num_2,1.18339353608,,,2017_Jun_27_1257,60.0077372273,MAFE4ImagesEEG,001,100818,
AFNE01.JPG,AFNE01.JPG,AFNE01.JPG,AFNE01.JPG,AFNE01.JPG,AFNE01.JPG,,,,,,,,,,,,,4,6,46,7,,,,,,,,,,,AFSA13.jpg,AFNE04.jpg,AFNE05.jpg,AFSA15.jpg,AFSA13.jpg,FS,4,num_8,16,num_8,0.650138014073,,,2017_Jun_27_1257,60.0077372273,MAFE4ImagesEEG,001,100818,
AFNE01.JPG,AFNE01.JPG,AFNE01.JPG,AFNE01.JPG,AFNE01.JPG,AFNE01.JPG,,,,,,,,,,,,,4,7,47,1,,,,,,,,,,,AFNE02.jpg,AFSA07.jpg,AFNE10.jpg,AFSA03.jpg,AFSA07.jpg,FS,4,num_6,16,num_6,0.683475003834,,,2017_Jun_27_1257,60.0077372273,MAFE4ImagesEEG,001,100818,
AFNE01.JPG,AFNE01.JPG,AFNE01.JPG,AFNE01.JPG,AFNE01.JPG,AFNE01.JPG,,,,,,,,,,,,,4,8,48,6,,,,,,,,,,,AFNE13.jpg,AFNE08.jpg,AFSA13.jpg,AFSA15.jpg,AFNE08.jpg,FN,3,num_6,32,num_4,0.416806027844,,,2017_Jun_27_1257,60.0077372273,MAFE4ImagesEEG,001,100818,
AFNE01.JPG,AFNE01.JPG,AFNE01.JPG,AFNE01.JPG,AFNE01.JPG,AFNE01.JPG,,,,,,,,,,,,,4,9,49,3,,,,,,,,,,,AFSA09.jpg,AFNE20.jpg,AFNE13.jpg,AFSA12.jpg,AFNE20.jpg,FN,3,num_6,16,num_6,1.31676106021,,,2017_Jun_27_1257,60.0077372273,MAFE4ImagesEEG,001,100818,
AFNE01.JPG,AFNE01.JPG,AFNE01.JPG,AFNE01.JPG,AFNE01.JPG,AFNE01.JPG,,,,,,,,,,,,,5,0,50,3,,,,,,,,,,,AFSA13.jpg,AFNE09.jpg,AFSA07.jpg,AFNE01.jpg,AFSA07.jpg,FS,4,num_2,32,num_8,2.59998049906,,,2017_Jun_27_1257,60.0077372273,MAFE4ImagesEEG,001,100818,
AFNE01.JPG,AFNE01.JPG,AFNE01.JPG,AFNE01.JPG,AFNE01.JPG,AFNE01.JPG,,,,,,,,,,,,,5,1,51,5,,,,,,,,,,,AFSA08.jpg,AFNE20.jpg,AFSA09.jpg,AFNE02.jpg,AFNE20.jpg,FN,3,num_6,16,num_6,0.683471475702,,,2017_Jun_27_1257,60.0077372273,MAFE4ImagesEEG,001,100818,
AFNE01.JPG,AFNE01.JPG,AFNE01.JPG,AFNE01.JPG,AFNE01.JPG,AFNE01.JPG,,,,,,,,,,,,,5,2,52,4,,,,,,,,,,,AFNE08.jpg,AFSA15.jpg,AFNE05.jpg,AFSA08.jpg,AFNE08.jpg,FN,3,num_8,32,num_4,1.30008775424,,,2017_Jun_27_1257,60.0077372273,MAFE4ImagesEEG,001,100818,
AFNE01.JPG,AFNE01.JPG,AFNE01.JPG,AFNE01.JPG,AFNE01.JPG,AFNE01.JPG,,,,,,,,,,,,,5,3,53,8,,,,,,,,,,,AFNE01.jpg,AFSA04.jpg,AFSA02.jpg,AFNE08.jpg,AFNE08.jpg,FN,3,num_4,16,num_4,1.35007142862,,,2017_Jun_27_1257,60.0077372273,MAFE4ImagesEEG,001,100818,
AFNE01.JPG,AFNE01.JPG,AFNE01.JPG,AFNE01.JPG,AFNE01.JPG,AFNE01.JPG,,,,,,,,,,,,,5,4,54,9,,,,,,,,,,,AFNE02.jpg,AFSA19.jpg,AFSA14.jpg,AFNE06.jpg,AFNE06.jpg,FN,3,num_4,32,num_6,1.76677257475,,,2017_Jun_27_1257,60.0077372273,MAFE4ImagesEEG,001,100818,
AFNE01.JPG,AFNE01.JPG,AFNE01.JPG,AFNE01.JPG,AFNE01.JPG,AFNE01.JPG,,,,,,,,,,,,,5,5,55,0,,,,,,,,,,,AFSA10.jpg,AFNE11.jpg,AFNE12.jpg,AFSA01.jpg,AFNE12.jpg,FN,3,num_2,16,num_2,1.38370959248,,,2017_Jun_27_1257,60.0077372273,MAFE4ImagesEEG,001,100818,
AFNE01.JPG,AFNE01.JPG,AFNE01.JPG,AFNE01.JPG,AFNE01.JPG,AFNE01.JPG,,,,,,,,,,,,,5,6,56,1,,,,,,,,,,,AFSA11.jpg,AFNE08.jpg,AFSA20.jpg,AFNE20.jpg,AFSA11.jpg,FS,4,num_8,16,num_8,0.716792107763,,,2017_Jun_27_1257,60.0077372273,MAFE4ImagesEEG,001,100818,
AFNE01.JPG,AFNE01.JPG,AFNE01.JPG,AFNE01.JPG,AFNE01.JPG,AFNE01.JPG,,,,,,,,,,,,,5,7,57,7,,,,,,,,,,,AFSA01.jpg,AFNE19.jpg,AFSA09.jpg,AFNE10.jpg,AFSA01.jpg,FS,4,num_8,16,num_8,0.966721384772,,,2017_Jun_27_1257,60.0077372273,MAFE4ImagesEEG,001,100818,
AFNE01.JPG,AFNE01.JPG,AFNE01.JPG,AFNE01.JPG,AFNE01.JPG,AFNE01.JPG,,,,,,,,,,,,,5,8,58,6,,,,,,,,,,,AFSA14.jpg,AFSA10.jpg,AFNE06.jpg,AFNE05.jpg,AFNE05.jpg,FN,3,num_4,16,num_4,0.933475484941,,,2017_Jun_27_1257,60.0077372273,MAFE4ImagesEEG,001,100818,
AFNE01.JPG,AFNE01.JPG,AFNE01.JPG,AFNE01.JPG,AFNE01.JPG,AFNE01.JPG,,,,,,,,,,,,,5,9,59,2,,,,,,,,,,,AFSA07.jpg,AFSA16.jpg,AFNE01.jpg,AFNE04.jpg,AFSA16.jpg,FS,4,num_6,16,num_6,0.633599739303,,,2017_Jun_27_1257,60.0077372273,MAFE4ImagesEEG,001,100818,
,,,,,,,,,,,,,,,,,,,,,,,,,,,,,,,,,,,,,,,,,,,space,31.0807130545,2017_Jun_27_1257,60.0077372273,MAFE4ImagesEEG,001,100818,
AFNE01.JPG,AFNE01.JPG,AFNE01.JPG,AFNE01.JPG,AFNE01.JPG,AFNE01.JPG,,,,,,,,,,,,,,,,,0,0,0,6,,,,,,,AMSA02.jpg,AMNE11.jpg,AMNE15.jpg,AMSA17.jpg,AMSA17.jpg,MS,2,num_4,16,num_4,0.716811672854,,,2017_Jun_27_1257,60.0077372273,MAFE4ImagesEEG,001,100818,
AFNE01.JPG,AFNE01.JPG,AFNE01.JPG,AFNE01.JPG,AFNE01.JPG,AFNE01.JPG,,,,,,,,,,,,,,,,,0,1,1,1,,,,,,,AMNE05.jpg,AMSA16.jpg,AMNE11.jpg,AMSA12.jpg,AMNE11.jpg,MN,1,num_2,32,num_8,0.733499412085,,,2017_Jun_27_1257,60.0077372273,MAFE4ImagesEEG,001,100818,
AFNE01.JPG,AFNE01.JPG,AFNE01.JPG,AFNE01.JPG,AFNE01.JPG,AFNE01.JPG,,,,,,,,,,,,,,,,,0,2,2,7,,,,,,,AMNE08.jpg,AMNE06.jpg,AMSA02.jpg,AMSA05.jpg,AMSA02.jpg,MS,2,num_2,16,num_2,0.833542455284,,,2017_Jun_27_1257,60.0077372273,MAFE4ImagesEEG,001,100818,
AFNE01.JPG,AFNE01.JPG,AFNE01.JPG,AFNE01.JPG,AFNE01.JPG,AFNE01.JPG,,,,,,,,,,,,,,,,,0,3,3,5,,,,,,,AMNE16.jpg,AMSA09.jpg,AMSA15.jpg,AMNE12.jpg,AMNE12.jpg,MN,1,num_4,32,num_8,0.933473881245,,,2017_Jun_27_1257,60.0077372273,MAFE4ImagesEEG,001,100818,
AFNE01.JPG,AFNE01.JPG,AFNE01.JPG,AFNE01.JPG,AFNE01.JPG,AFNE01.JPG,,,,,,,,,,,,,,,,,0,4,4,3,,,,,,,AMNE07.jpg,AMSA17.jpg,AMSA07.jpg,AMNE06.jpg,AMNE06.jpg,MN,1,num_4,16,num_4,0.766731840869,,,2017_Jun_27_1257,60.0077372273,MAFE4ImagesEEG,001,100818,
AFNE01.JPG,AFNE01.JPG,AFNE01.JPG,AFNE01.JPG,AFNE01.JPG,AFNE01.JPG,,,,,,,,,,,,,,,,,0,5,5,2,,,,,,,AMSA12.jpg,AMNE16.jpg,AMNE07.jpg,AMSA09.jpg,AMSA12.jpg,MS,2,num_8,32,num_6,0.66677603873,,,2017_Jun_27_1257,60.0077372273,MAFE4ImagesEEG,001,100818,
AFNE01.JPG,AFNE01.JPG,AFNE01.JPG,AFNE01.JPG,AFNE01.JPG,AFNE01.JPG,,,,,,,,,,,,,,,,,0,6,6,9,,,,,,,AMSA13.jpg,AMNE14.jpg,AMSA19.jpg,AMNE09.jpg,AMNE09.jpg,MN,1,num_4,16,num_4,1.66668142067,,,2017_Jun_27_1257,60.0077372273,MAFE4ImagesEEG,001,100818,
AFNE01.JPG,AFNE01.JPG,AFNE01.JPG,AFNE01.JPG,AFNE01.JPG,AFNE01.JPG,,,,,,,,,,,,,,,,,0,7,7,0,,,,,,,AMSA09.jpg,AMSA01.jpg,AMNE17.jpg,AMNE03.jpg,AMNE03.jpg,MN,1,num_4,16,num_4,0.566813180329,,,2017_Jun_27_1257,60.0077372273,MAFE4ImagesEEG,001,100818,
AFNE01.JPG,AFNE01.JPG,AFNE01.JPG,AFNE01.JPG,AFNE01.JPG,AFNE01.JPG,,,,,,,,,,,,,,,,,0,8,8,8,,,,,,,AMNE17.jpg,AMSA14.jpg,AMNE09.jpg,AMSA16.jpg,AMSA14.jpg,MS,2,num_6,16,num_6,1.00010937206,,,2017_Jun_27_1257,60.0077372273,MAFE4ImagesEEG,001,100818,
AFNE01.JPG,AFNE01.JPG,AFNE01.JPG,AFNE01.JPG,AFNE01.JPG,AFNE01.JPG,,,,,,,,,,,,,,,,,0,9,9,4,,,,,,,AMNE11.jpg,AMSA18.jpg,AMSA10.jpg,AMNE05.jpg,AMSA18.jpg,MS,2,num_6,16,num_6,0.566776936801,,,2017_Jun_27_1257,60.0077372273,MAFE4ImagesEEG,001,100818,
AFNE01.JPG,AFNE01.JPG,AFNE01.JPG,AFNE01.JPG,AFNE01.JPG,AFNE01.JPG,,,,,,,,,,,,,,,,,1,0,10,1,,,,,,,AMSA05.jpg,AMNE06.jpg,AMNE01.jpg,AMSA09.jpg,AMSA05.jpg,MS,2,num_8,32,num_4,2.4168547802,,,2017_Jun_27_1257,60.0077372273,MAFE4ImagesEEG,001,100818,
AFNE01.JPG,AFNE01.JPG,AFNE01.JPG,AFNE01.JPG,AFNE01.JPG,AFNE01.JPG,,,,,,,,,,,,,,,,,1,1,11,6,,,,,,,AMNE05.jpg,AMNE07.jpg,AMSA12.jpg,AMSA10.jpg,AMNE05.jpg,MN,1,num_8,32,num_6,0.550058727344,,,2017_Jun_27_1257,60.0077372273,MAFE4ImagesEEG,001,100818,
AFNE01.JPG,AFNE01.JPG,AFNE01.JPG,AFNE01.JPG,AFNE01.JPG,AFNE01.JPG,,,,,,,,,,,,,,,,,1,2,12,3,,,,,,,AMSA01.jpg,AMNE05.jpg,AMNE04.jpg,AMSA04.jpg,AMSA04.jpg,MS,2,num_4,32,num_8,0.683461212047,,,2017_Jun_27_1257,60.0077372273,MAFE4ImagesEEG,001,100818,
AFNE01.JPG,AFNE01.JPG,AFNE01.JPG,AFNE01.JPG,AFNE01.JPG,AFNE01.JPG,,,,,,,,,,,,,,,,,1,3,13,7,,,,,,,AMSA07.jpg,AMNE09.jpg,AMSA16.jpg,AMNE05.jpg,AMNE09.jpg,MN,1,num_6,32,num_4,0.766707464691,,,2017_Jun_27_1257,60.0077372273,MAFE4ImagesEEG,001,100818,
AFNE01.JPG,AFNE01.JPG,AFNE01.JPG,AFNE01.JPG,AFNE01.JPG,AFNE01.JPG,,,,,,,,,,,,,,,,,1,4,14,4,,,,,,,AMNE09.jpg,AMSA16.jpg,AMSA04.jpg,AMNE12.jpg,AMNE12.jpg,MN,1,num_4,32,num_6,0.58349290108,,,2017_Jun_27_1257,60.0077372273,MAFE4ImagesEEG,001,100818,
AFNE01.JPG,AFNE01.JPG,AFNE01.JPG,AFNE01.JPG,AFNE01.JPG,AFNE01.JPG,,,,,,,,,,,,,,,,,1,5,15,2,,,,,,,AMSA08.jpg,AMNE14.jpg,AMNE12.jpg,AMSA09.jpg,AMSA09.jpg,MS,2,num_4,16,num_4,0.5668244062,,,2017_Jun_27_1257,60.0077372273,MAFE4ImagesEEG,001,100818,
AFNE01.JPG,AFNE01.JPG,AFNE01.JPG,AFNE01.JPG,AFNE01.JPG,AFNE01.JPG,,,,,,,,,,,,,,,,,1,6,16,8,,,,,,,AMNE07.jpg,AMNE05.jpg,AMSA19.jpg,AMSA05.jpg,AMSA19.jpg,MS,2,num_2,16,num_2,0.650131920029,,,2017_Jun_27_1257,60.0077372273,MAFE4ImagesEEG,001,100818,
AFNE01.JPG,AFNE01.JPG,AFNE01.JPG,AFNE01.JPG,AFNE01.JPG,AFNE01.JPG,,,,,,,,,,,,,,,,,1,7,17,5,,,,,,,AMSA19.jpg,AMNE14.jpg,AMNE08.jpg,AMSA02.jpg,AMSA02.jpg,MS,2,num_4,16,num_4,0.483498610238,,,2017_Jun_27_1257,60.0077372273,MAFE4ImagesEEG,001,100818,
AFNE01.JPG,AFNE01.JPG,AFNE01.JPG,AFNE01.JPG,AFNE01.JPG,AFNE01.JPG,,,,,,,,,,,,,,,,,1,8,18,9,,,,,,,AMNE20.jpg,AMSA19.jpg,AMNE03.jpg,AMSA09.jpg,AMSA09.jpg,MS,2,num_4,32,num_2,1.6001142473,,,2017_Jun_27_1257,60.0077372273,MAFE4ImagesEEG,001,100818,
AFNE01.JPG,AFNE01.JPG,AFNE01.JPG,AFNE01.JPG,AFNE01.JPG,AFNE01.JPG,,,,,,,,,,,,,,,,,1,9,19,0,,,,,,,AMNE03.jpg,AMNE05.jpg,AMSA02.jpg,AMSA20.jpg,AMNE05.jpg,MN,1,num_6,16,num_6,0.666857827224,,,2017_Jun_27_1257,60.0077372273,MAFE4ImagesEEG,001,100818,
AFNE01.JPG,AFNE01.JPG,AFNE01.JPG,AFNE01.JPG,AFNE01.JPG,AFNE01.JPG,,,,,,,,,,,,,,,,,2,0,20,4,,,,,,,AMSA17.jpg,AMNE11.jpg,AMNE15.jpg,AMSA20.jpg,AMSA20.jpg,MS,2,num_4,32,num_6,0.816815585871,,,2017_Jun_27_1257,60.0077372273,MAFE4ImagesEEG,001,100818,
AFNE01.JPG,AFNE01.JPG,AFNE01.JPG,AFNE01.JPG,AFNE01.JPG,AFNE01.JPG,,,,,,,,,,,,,,,,,2,1,21,6,,,,,,,AMNE15.jpg,AMSA10.jpg,AMSA15.jpg,AMNE14.jpg,AMNE14.jpg,MN,1,num_4,16,num_4,0.633500951633,,,2017_Jun_27_1257,60.0077372273,MAFE4ImagesEEG,001,100818,
AFNE01.JPG,AFNE01.JPG,AFNE01.JPG,AFNE01.JPG,AFNE01.JPG,AFNE01.JPG,,,,,,,,,,,,,,,,,2,2,22,8,,,,,,,AMNE06.jpg,AMNE04.jpg,AMSA18.jpg,AMSA16.jpg,AMNE06.jpg,MN,1,num_8,16,num_8,0.767132444116,,,2017_Jun_27_1257,60.0077372273,MAFE4ImagesEEG,001,100818,
AFNE01.JPG,AFNE01.JPG,AFNE01.JPG,AFNE01.JPG,AFNE01.JPG,AFNE01.JPG,,,,,,,,,,,,,,,,,2,3,23,3,,,,,,,AMNE04.jpg,AMNE08.jpg,AMSA20.jpg,AMSA07.jpg,AMNE04.jpg,MN,1,num_8,32,num_6,0.716787296675,,,2017_Jun_27_1257,60.0077372273,MAFE4ImagesEEG,001,100818,
AFNE01.JPG,AFNE01.JPG,AFNE01.JPG,AFNE01.JPG,AFNE01.JPG,AFNE01.JPG,,,,,,,,,,,,,,,,,2,4,24,9,,,,,,,AMSA01.jpg,AMSA02.jpg,AMNE05.jpg,AMNE10.jpg,AMNE10.jpg,MN,1,num_4,32,num_2,0.733428849462,,,2017_Jun_27_1257,60.0077372273,MAFE4ImagesEEG,001,100818,
AFNE01.JPG,AFNE01.JPG,AFNE01.JPG,AFNE01.JPG,AFNE01.JPG,AFNE01.JPG,,,,,,,,,,,,,,,,,2,5,25,1,,,,,,,AMSA03.jpg,AMNE10.jpg,AMSA04.jpg,AMNE05.jpg,AMNE05.jpg,MN,1,num_4,32,num_6,3.68325080714,,,2017_Jun_27_1257,60.0077372273,MAFE4ImagesEEG,001,100818,
AFNE01.JPG,AFNE01.JPG,AFNE01.JPG,AFNE01.JPG,AFNE01.JPG,AFNE01.JPG,,,,,,,,,,,,,,,,,2,6,26,0,,,,,,,AMNE11.jpg,AMSA02.jpg,AMSA06.jpg,AMNE19.jpg,AMNE11.jpg,MN,1,num_8,32,num_4,0.666763529902,,,2017_Jun_27_1257,60.0077372273,MAFE4ImagesEEG,001,100818,
AFNE01.JPG,AFNE01.JPG,AFNE01.JPG,AFNE01.JPG,AFNE01.JPG,AFNE01.JPG,,,,,,,,,,,,,,,,,2,7,27,5,,,,,,,AMNE14.jpg,AMSA09.jpg,AMNE17.jpg,AMSA14.jpg,AMSA14.jpg,MS,2,num_4,16,num_4,0.733500695042,,,2017_Jun_27_1257,60.0077372273,MAFE4ImagesEEG,001,100818,
AFNE01.JPG,AFNE01.JPG,AFNE01.JPG,AFNE01.JPG,AFNE01.JPG,AFNE01.JPG,,,,,,,,,,,,,,,,,2,8,28,7,,,,,,,AMSA02.jpg,AMNE06.jpg,AMNE10.jpg,AMSA07.jpg,AMNE06.jpg,MN,1,num_6,16,num_6,0.750129418262,,,2017_Jun_27_1257,60.0077372273,MAFE4ImagesEEG,001,100818,
AFNE01.JPG,AFNE01.JPG,AFNE01.JPG,AFNE01.JPG,AFNE01.JPG,AFNE01.JPG,,,,,,,,,,,,,,,,,2,9,29,2,,,,,,,AMNE05.jpg,AMSA03.jpg,AMSA08.jpg,AMNE02.jpg,AMNE05.jpg,MN,1,num_8,32,num_4,0.73345739525,,,2017_Jun_27_1257,60.0077372273,MAFE4ImagesEEG,001,100818,
AFNE01.JPG,AFNE01.JPG,AFNE01.JPG,AFNE01.JPG,AFNE01.JPG,AFNE01.JPG,,,,,,,,,,,,,,,,,3,0,30,3,,,,,,,AMNE10.jpg,AMSA18.jpg,AMSA04.jpg,AMNE07.jpg,AMNE10.jpg,MN,1,num_8,16,num_8,1.06676731462,,,2017_Jun_27_1257,60.0077372273,MAFE4ImagesEEG,001,100818,
AFNE01.JPG,AFNE01.JPG,AFNE01.JPG,AFNE01.JPG,AFNE01.JPG,AFNE01.JPG,,,,,,,,,,,,,,,,,3,1,31,8,,,,,,,AMNE13.jpg,AMSA10.jpg,AMSA13.jpg,AMNE16.jpg,AMSA10.jpg,MS,2,num_6,16,num_6,0.566831783201,,,2017_Jun_27_1257,60.0077372273,MAFE4ImagesEEG,001,100818,
AFNE01.JPG,AFNE01.JPG,AFNE01.JPG,AFNE01.JPG,AFNE01.JPG,AFNE01.JPG,,,,,,,,,,,,,,,,,3,2,32,9,,,,,,,AMNE19.jpg,AMSA12.jpg,AMNE01.jpg,AMSA15.jpg,AMNE01.jpg,MN,1,num_2,32,num_4,0.633460217758,,,2017_Jun_27_1257,60.0077372273,MAFE4ImagesEEG,001,100818,
AFNE01.JPG,AFNE01.JPG,AFNE01.JPG,AFNE01.JPG,AFNE01.JPG,AFNE01.JPG,,,,,,,,,,,,,,,,,3,3,33,7,,,,,,,AMSA03.jpg,AMNE01.jpg,AMNE19.jpg,AMSA01.jpg,AMSA03.jpg,MS,2,num_8,16,num_8,0.633466311801,,,2017_Jun_27_1257,60.0077372273,MAFE4ImagesEEG,001,100818,
AFNE01.JPG,AFNE01.JPG,AFNE01.JPG,AFNE01.JPG,AFNE01.JPG,AFNE01.JPG,,,,,,,,,,,,,,,,,3,4,34,0,,,,,,,AMNE03.jpg,AMSA19.jpg,AMSA14.jpg,AMNE06.jpg,AMSA19.jpg,MS,2,num_6,16,num_6,0.750178812097,,,2017_Jun_27_1257,60.0077372273,MAFE4ImagesEEG,001,100818,
AFNE01.JPG,AFNE01.JPG,AFNE01.JPG,AFNE01.JPG,AFNE01.JPG,AFNE01.JPG,,,,,,,,,,,,,,,,,3,5,35,1,,,,,,,AMNE14.jpg,AMNE11.jpg,AMSA18.jpg,AMSA14.jpg,AMNE14.jpg,MN,1,num_8,32,num_4,0.733475035906,,,2017_Jun_27_1257,60.0077372273,MAFE4ImagesEEG,001,100818,
AFNE01.JPG,AFNE01.JPG,AFNE01.JPG,AFNE01.JPG,AFNE01.JPG,AFNE01.JPG,,,,,,,,,,,,,,,,,3,6,36,4,,,,,,,AMNE16.jpg,AMNE14.jpg,AMSA11.jpg,AMSA19.jpg,AMSA19.jpg,MS,2,num_4,32,num_6,0.650197350824,,,2017_Jun_27_1257,60.0077372273,MAFE4ImagesEEG,001,100818,
AFNE01.JPG,AFNE01.JPG,AFNE01.JPG,AFNE01.JPG,AFNE01.JPG,AFNE01.JPG,,,,,,,,,,,,,,,,,3,7,37,5,,,,,,,AMSA13.jpg,AMNE03.jpg,AMNE16.jpg,AMSA18.jpg,AMNE16.jpg,MN,1,num_2,32,num_6,0.633494857588,,,2017_Jun_27_1257,60.0077372273,MAFE4ImagesEEG,001,100818,
AFNE01.JPG,AFNE01.JPG,AFNE01.JPG,AFNE01.JPG,AFNE01.JPG,AFNE01.JPG,,,,,,,,,,,,,,,,,3,8,38,2,,,,,,,AMSA01.jpg,AMNE02.jpg,AMSA07.jpg,AMNE19.jpg,AMNE19.jpg,MN,1,num_4,16,num_4,0.566808048501,,,2017_Jun_27_1257,60.0077372273,MAFE4ImagesEEG,001,100818,
AFNE01.JPG,AFNE01.JPG,AFNE01.JPG,AFNE01.JPG,AFNE01.JPG,AFNE01.JPG,,,,,,,,,,,,,,,,,3,9,39,6,,,,,,,AMSA06.jpg,AMNE20.jpg,AMNE10.jpg,AMSA08.jpg,AMNE10.jpg,MN,1,num_2,32,num_8,0.80013233699,,,2017_Jun_27_1257,60.0077372273,MAFE4ImagesEEG,001,100818,
AFNE01.JPG,AFNE01.JPG,AFNE01.JPG,AFNE01.JPG,AFNE01.JPG,AFNE01.JPG,,,,,,,,,,,,,,,,,4,0,40,1,,,,,,,AMSA13.jpg,AMSA10.jpg,AMNE14.jpg,AMNE09.jpg,AMSA13.jpg,MS,2,num_8,32,num_6,0.783455502891,,,2017_Jun_27_1257,60.0077372273,MAFE4ImagesEEG,001,100818,
AFNE01.JPG,AFNE01.JPG,AFNE01.JPG,AFNE01.JPG,AFNE01.JPG,AFNE01.JPG,,,,,,,,,,,,,,,,,4,1,41,6,,,,,,,AMNE02.jpg,AMSA15.jpg,AMNE18.jpg,AMSA10.jpg,AMNE02.jpg,MN,1,num_8,16,num_8,0.583463393075,,,2017_Jun_27_1257,60.0077372273,MAFE4ImagesEEG,001,100818,
AFNE01.JPG,AFNE01.JPG,AFNE01.JPG,AFNE01.JPG,AFNE01.JPG,AFNE01.JPG,,,,,,,,,,,,,,,,,4,2,42,9,,,,,,,AMSA15.jpg,AMNE15.jpg,AMNE02.jpg,AMSA14.jpg,AMSA14.jpg,MS,2,num_4,16,num_4,0.75013839896,,,2017_Jun_27_1257,60.0077372273,MAFE4ImagesEEG,001,100818,
AFNE01.JPG,AFNE01.JPG,AFNE01.JPG,AFNE01.JPG,AFNE01.JPG,AFNE01.JPG,,,,,,,,,,,,,,,,,4,3,43,8,,,,,,,AMSA05.jpg,AMNE17.jpg,AMNE08.jpg,AMSA09.jpg,AMNE08.jpg,MN,1,num_2,32,num_8,0.583502523255,,,2017_Jun_27_1257,60.0077372273,MAFE4ImagesEEG,001,100818,
AFNE01.JPG,AFNE01.JPG,AFNE01.JPG,AFNE01.JPG,AFNE01.JPG,AFNE01.JPG,,,,,,,,,,,,,,,,,4,4,44,0,,,,,,,AMSA14.jpg,AMNE05.jpg,AMSA12.jpg,AMNE06.jpg,AMNE05.jpg,MN,1,num_6,16,num_6,0.783459672499,,,2017_Jun_27_1257,60.0077372273,MAFE4ImagesEEG,001,100818,
AFNE01.JPG,AFNE01.JPG,AFNE01.JPG,AFNE01.JPG,AFNE01.JPG,AFNE01.JPG,,,,,,,,,,,,,,,,,4,5,45,4,,,,,,,AMSA02.jpg,AMNE10.jpg,AMSA19.jpg,AMNE20.jpg,AMNE20.jpg,MN,1,num_4,16,num_4,0.817044593652,,,2017_Jun_27_1257,60.0077372273,MAFE4ImagesEEG,001,100818,
AFNE01.JPG,AFNE01.JPG,AFNE01.JPG,AFNE01.JPG,AFNE01.JPG,AFNE01.JPG,,,,,,,,,,,,,,,,,4,6,46,7,,,,,,,AMSA03.jpg,AMSA15.jpg,AMNE01.jpg,AMNE04.jpg,AMSA15.jpg,MS,2,num_6,32,num_4,0.733496204693,,,2017_Jun_27_1257,60.0077372273,MAFE4ImagesEEG,001,100818,
AFNE01.JPG,AFNE01.JPG,AFNE01.JPG,AFNE01.JPG,AFNE01.JPG,AFNE01.JPG,,,,,,,,,,,,,,,,,4,7,47,5,,,,,,,AMSA03.jpg,AMNE18.jpg,AMNE04.jpg,AMSA02.jpg,AMSA03.jpg,MS,2,num_8,32,num_6,2.03339311912,,,2017_Jun_27_1257,60.0077372273,MAFE4ImagesEEG,001,100818,
AFNE01.JPG,AFNE01.JPG,AFNE01.JPG,AFNE01.JPG,AFNE01.JPG,AFNE01.JPG,,,,,,,,,,,,,,,,,4,8,48,2,,,,,,,AMSA14.jpg,AMSA17.jpg,AMNE03.jpg,AMNE14.jpg,AMNE03.jpg,MN,1,num_2,32,num_4,0.666804584518,,,2017_Jun_27_1257,60.0077372273,MAFE4ImagesEEG,001,100818,
AFNE01.JPG,AFNE01.JPG,AFNE01.JPG,AFNE01.JPG,AFNE01.JPG,AFNE01.JPG,,,,,,,,,,,,,,,,,4,9,49,3,,,,,,,AMSA10.jpg,AMNE03.jpg,AMNE15.jpg,AMSA15.jpg,AMNE15.jpg,MN,1,num_2,16,num_2,1.40013240114,,,2017_Jun_27_1257,60.0077372273,MAFE4ImagesEEG,001,100818,
AFNE01.JPG,AFNE01.JPG,AFNE01.JPG,AFNE01.JPG,AFNE01.JPG,AFNE01.JPG,,,,,,,,,,,,,,,,,5,0,50,1,,,,,,,AMNE09.jpg,AMNE01.jpg,AMSA02.jpg,AMSA14.jpg,AMNE01.jpg,MN,1,num_6,16,num_6,0.716874858474,,,2017_Jun_27_1257,60.0077372273,MAFE4ImagesEEG,001,100818,
AFNE01.JPG,AFNE01.JPG,AFNE01.JPG,AFNE01.JPG,AFNE01.JPG,AFNE01.JPG,,,,,,,,,,,,,,,,,5,1,51,9,,,,,,,AMNE10.jpg,AMSA07.jpg,AMSA06.jpg,AMNE19.jpg,AMNE10.jpg,MN,1,num_8,32,num_4,0.883484754304,,,2017_Jun_27_1257,60.0077372273,MAFE4ImagesEEG,001,100818,
AFNE01.JPG,AFNE01.JPG,AFNE01.JPG,AFNE01.JPG,AFNE01.JPG,AFNE01.JPG,,,,,,,,,,,,,,,,,5,2,52,2,,,,,,,AMSA19.jpg,AMSA10.jpg,AMNE19.jpg,AMNE12.jpg,AMSA19.jpg,MS,2,num_8,32,num_6,1.16674107816,,,2017_Jun_27_1257,60.0077372273,MAFE4ImagesEEG,001,100818,
AFNE01.JPG,AFNE01.JPG,AFNE01.JPG,AFNE01.JPG,AFNE01.JPG,AFNE01.JPG,,,,,,,,,,,,,,,,,5,3,53,0,,,,,,,AMNE05.jpg,AMSA02.jpg,AMSA04.jpg,AMNE20.jpg,AMNE20.jpg,MN,1,num_4,16,num_4,0.766746915611,,,2017_Jun_27_1257,60.0077372273,MAFE4ImagesEEG,001,100818,
AFNE01.JPG,AFNE01.JPG,AFNE01.JPG,AFNE01.JPG,AFNE01.JPG,AFNE01.JPG,,,,,,,,,,,,,,,,,5,4,54,4,,,,,,,AMSA12.jpg,AMNE15.jpg,AMNE20.jpg,AMSA05.jpg,AMSA05.jpg,MS,2,num_4,48,None,,,,2017_Jun_27_1257,60.0077372273,MAFE4ImagesEEG,001,100818,
AFNE01.JPG,AFNE01.JPG,AFNE01.JPG,AFNE01.JPG,AFNE01.JPG,AFNE01.JPG,,,,,,,,,,,,,,,,,5,5,55,6,,,,,,,AMSA05.jpg,AMSA11.jpg,AMNE20.jpg,AMNE12.jpg,AMSA11.jpg,MS,2,num_6,32,num_4,0.650125505244,,,2017_Jun_27_1257,60.0077372273,MAFE4ImagesEEG,001,100818,
AFNE01.JPG,AFNE01.JPG,AFNE01.JPG,AFNE01.JPG,AFNE01.JPG,AFNE01.JPG,,,,,,,,,,,,,,,,,5,6,56,7,,,,,,,AMNE07.jpg,AMSA11.jpg,AMSA03.jpg,AMNE03.jpg,AMNE07.jpg,MN,1,num_8,32,num_6,0.650167201338,,,2017_Jun_27_1257,60.0077372273,MAFE4ImagesEEG,001,100818,
AFNE01.JPG,AFNE01.JPG,AFNE01.JPG,AFNE01.JPG,AFNE01.JPG,AFNE01.JPG,,,,,,,,,,,,,,,,,5,7,57,8,,,,,,,AMNE08.jpg,AMSA19.jpg,AMNE09.jpg,AMSA14.jpg,AMNE09.jpg,MN,1,num_2,32,num_8,0.733455470816,,,2017_Jun_27_1257,60.0077372273,MAFE4ImagesEEG,001,100818,
AFNE01.JPG,AFNE01.JPG,AFNE01.JPG,AFNE01.JPG,AFNE01.JPG,AFNE01.JPG,,,,,,,,,,,,,,,,,5,8,58,3,,,,,,,AMNE11.jpg,AMNE15.jpg,AMSA19.jpg,AMSA11.jpg,AMNE11.jpg,MN,1,num_8,32,num_6,0.716794352938,,,2017_Jun_27_1257,60.0077372273,MAFE4ImagesEEG,001,100818,
AFNE01.JPG,AFNE01.JPG,AFNE01.JPG,AFNE01.JPG,AFNE01.JPG,AFNE01.JPG,,,,,,,,,,,,,,,,,5,9,59,5,,,,,,,AMSA04.jpg,AMSA19.jpg,AMNE13.jpg,AMNE16.jpg,AMSA04.jpg,MS,2,num_8,32,num_6,0.633436162318,,,2017_Jun_27_1257,60.0077372273,MAFE4ImagesEEG,001,100818,
,,,,,,,,,,,,,,,,,,,,,,,,,,,,,,,,,,,,,,,,,,,space,40.8969657431,2017_Jun_27_1257,60.0077372273,MAFE4ImagesEEG,001,100818,
AFNE01.JPG,AFNE01.JPG,AFNE01.JPG,AFNE01.JPG,AFNE01.JPG,AFNE01.JPG,,,,,,,,,,,,,,,,,,,,,0,0,0,7,,,AFSA13.jpg,AFNE02.jpg,AFSA12.jpg,AFNE05.jpg,AFNE02.jpg,FN,3,num_6,16,num_6,0.966744798732,,,2017_Jun_27_1257,60.0077372273,MAFE4ImagesEEG,001,100818,
AFNE01.JPG,AFNE01.JPG,AFNE01.JPG,AFNE01.JPG,AFNE01.JPG,AFNE01.JPG,,,,,,,,,,,,,,,,,,,,,0,1,1,2,,,AFSA19.jpg,AFSA16.jpg,AFNE19.jpg,AFNE05.jpg,AFNE05.jpg,FN,3,num_4,16,num_4,0.733488506952,,,2017_Jun_27_1257,60.0077372273,MAFE4ImagesEEG,001,100818,
AFNE01.JPG,AFNE01.JPG,AFNE01.JPG,AFNE01.JPG,AFNE01.JPG,AFNE01.JPG,,,,,,,,,,,,,,,,,,,,,0,2,2,0,,,AFNE01.jpg,AFNE06.jpg,AFSA10.jpg,AFSA02.jpg,AFSA10.jpg,FS,4,num_2,16,num_2,0.78332079243,,,2017_Jun_27_1257,60.0077372273,MAFE4ImagesEEG,001,100818,
AFNE01.JPG,AFNE01.JPG,AFNE01.JPG,AFNE01.JPG,AFNE01.JPG,AFNE01.JPG,,,,,,,,,,,,,,,,,,,,,0,3,3,9,,,AFNE01.jpg,AFSA10.jpg,AFSA12.jpg,AFNE06.jpg,AFNE06.jpg,FN,3,num_4,16,num_4,0.833473496359,,,2017_Jun_27_1257,60.0077372273,MAFE4ImagesEEG,001,100818,
AFNE01.JPG,AFNE01.JPG,AFNE01.JPG,AFNE01.JPG,AFNE01.JPG,AFNE01.JPG,,,,,,,,,,,,,,,,,,,,,0,4,4,8,,,AFSA08.jpg,AFSA15.jpg,AFNE19.jpg,AFNE08.jpg,AFNE19.jpg,FN,3,num_2,32,num_8,0.700130027666,,,2017_Jun_27_1257,60.0077372273,MAFE4ImagesEEG,001,100818,
AFNE01.JPG,AFNE01.JPG,AFNE01.JPG,AFNE01.JPG,AFNE01.JPG,AFNE01.JPG,,,,,,,,,,,,,,,,,,,,,0,5,5,6,,,AFNE19.jpg,AFSA07.jpg,AFNE11.jpg,AFSA01.jpg,AFSA01.jpg,FS,4,num_4,32,num_6,0.816781587519,,,2017_Jun_27_1257,60.0077372273,MAFE4ImagesEEG,001,100818,
AFNE01.JPG,AFNE01.JPG,AFNE01.JPG,AFNE01.JPG,AFNE01.JPG,AFNE01.JPG,,,,,,,,,,,,,,,,,,,,,0,6,6,5,,,AFNE08.jpg,AFSA05.jpg,AFNE04.jpg,AFSA16.jpg,AFSA05.jpg,FS,4,num_6,16,num_6,0.583457940507,,,2017_Jun_27_1257,60.0077372273,MAFE4ImagesEEG,001,100818,
AFNE01.JPG,AFNE01.JPG,AFNE01.JPG,AFNE01.JPG,AFNE01.JPG,AFNE01.JPG,,,,,,,,,,,,,,,,,,,,,0,7,7,3,,,AFSA04.jpg,AFNE08.jpg,AFNE15.jpg,AFSA09.jpg,AFNE08.jpg,FN,3,num_6,32,num_8,0.933467466462,,,2017_Jun_27_1257,60.0077372273,MAFE4ImagesEEG,001,100818,
AFNE01.JPG,AFNE01.JPG,AFNE01.JPG,AFNE01.JPG,AFNE01.JPG,AFNE01.JPG,,,,,,,,,,,,,,,,,,,,,0,8,8,4,,,AFNE06.jpg,AFNE14.jpg,AFSA01.jpg,AFSA02.jpg,AFSA01.jpg,FS,4,num_2,16,num_2,0.63349838572,,,2017_Jun_27_1257,60.0077372273,MAFE4ImagesEEG,001,100818,
AFNE01.JPG,AFNE01.JPG,AFNE01.JPG,AFNE01.JPG,AFNE01.JPG,AFNE01.JPG,,,,,,,,,,,,,,,,,,,,,0,9,9,1,,,AFSA20.jpg,AFNE17.jpg,AFNE11.jpg,AFSA08.jpg,AFSA20.jpg,FS,4,num_8,32,num_6,0.60015337748,,,2017_Jun_27_1257,60.0077372273,MAFE4ImagesEEG,001,100818,
AFNE01.JPG,AFNE01.JPG,AFNE01.JPG,AFNE01.JPG,AFNE01.JPG,AFNE01.JPG,,,,,,,,,,,,,,,,,,,,,1,0,10,2,,,AFSA07.jpg,AFNE04.jpg,AFSA12.jpg,AFNE18.jpg,AFSA07.jpg,FS,4,num_8,16,num_8,0.766751405959,,,2017_Jun_27_1257,60.0077372273,MAFE4ImagesEEG,001,100818,
AFNE01.JPG,AFNE01.JPG,AFNE01.JPG,AFNE01.JPG,AFNE01.JPG,AFNE01.JPG,,,,,,,,,,,,,,,,,,,,,1,1,11,4,,,AFSA08.jpg,AFNE14.jpg,AFSA16.jpg,AFNE09.jpg,AFSA16.jpg,FS,4,num_2,16,num_2,1.03346304026,,,2017_Jun_27_1257,60.0077372273,MAFE4ImagesEEG,001,100818,
AFNE01.JPG,AFNE01.JPG,AFNE01.JPG,AFNE01.JPG,AFNE01.JPG,AFNE01.JPG,,,,,,,,,,,,,,,,,,,,,1,2,12,6,,,AFNE05.jpg,AFSA11.jpg,AFNE07.jpg,AFSA12.jpg,AFNE07.jpg,FN,3,num_2,16,num_2,1.78339360023,,,2017_Jun_27_1257,60.0077372273,MAFE4ImagesEEG,001,100818,
AFNE01.JPG,AFNE01.JPG,AFNE01.JPG,AFNE01.JPG,AFNE01.JPG,AFNE01.JPG,,,,,,,,,,,,,,,,,,,,,1,3,13,8,,,AFSA20.jpg,AFNE18.jpg,AFSA10.jpg,AFNE06.jpg,AFNE18.jpg,FN,3,num_6,16,num_6,0.583513428388,,,2017_Jun_27_1257,60.0077372273,MAFE4ImagesEEG,001,100818,
AFNE01.JPG,AFNE01.JPG,AFNE01.JPG,AFNE01.JPG,AFNE01.JPG,AFNE01.JPG,,,,,,,,,,,,,,,,,,,,,1,4,14,7,,,AFSA05.jpg,AFSA01.jpg,AFNE03.jpg,AFNE19.jpg,AFSA01.jpg,FS,4,num_6,32,num_4,0.583457619769,,,2017_Jun_27_1257,60.0077372273,MAFE4ImagesEEG,001,100818,
AFNE01.JPG,AFNE01.JPG,AFNE01.JPG,AFNE01.JPG,AFNE01.JPG,AFNE01.JPG,,,,,,,,,,,,,,,,,,,,,1,5,15,9,,,AFNE18.jpg,AFSA09.jpg,AFNE12.jpg,AFSA17.jpg,AFNE12.jpg,FN,3,num_2,32,num_6,1.15005269745,,,2017_Jun_27_1257,60.0077372273,MAFE4ImagesEEG,001,100818,
AFNE01.JPG,AFNE01.JPG,AFNE01.JPG,AFNE01.JPG,AFNE01.JPG,AFNE01.JPG,,,,,,,,,,,,,,,,,,,,,1,6,16,1,,,AFNE07.jpg,AFSA01.jpg,AFSA08.jpg,AFNE08.jpg,AFNE08.jpg,FN,3,num_4,32,num_6,0.783569044563,,,2017_Jun_27_1257,60.0077372273,MAFE4ImagesEEG,001,100818,
AFNE01.JPG,AFNE01.JPG,AFNE01.JPG,AFNE01.JPG,AFNE01.JPG,AFNE01.JPG,,,,,,,,,,,,,,,,,,,,,1,7,17,5,,,AFNE06.jpg,AFSA19.jpg,AFSA05.jpg,AFNE04.jpg,AFSA05.jpg,FS,4,num_2,16,num_2,1.24977275629,,,2017_Jun_27_1257,60.0077372273,MAFE4ImagesEEG,001,100818,
AFNE01.JPG,AFNE01.JPG,AFNE01.JPG,AFNE01.JPG,AFNE01.JPG,AFNE01.JPG,,,,,,,,,,,,,,,,,,,,,1,8,18,3,,,AFNE03.jpg,AFSA08.jpg,AFSA05.jpg,AFNE06.jpg,AFNE03.jpg,FN,3,num_8,32,num_6,3.3499280582,,,2017_Jun_27_1257,60.0077372273,MAFE4ImagesEEG,001,100818,
AFNE01.JPG,AFNE01.JPG,AFNE01.JPG,AFNE01.JPG,AFNE01.JPG,AFNE01.JPG,,,,,,,,,,,,,,,,,,,,,1,9,19,0,,,AFNE11.jpg,AFSA01.jpg,AFSA11.jpg,AFNE07.jpg,AFSA01.jpg,FS,4,num_6,16,num_6,0.650167842818,,,2017_Jun_27_1257,60.0077372273,MAFE4ImagesEEG,001,100818,
AFNE01.JPG,AFNE01.JPG,AFNE01.JPG,AFNE01.JPG,AFNE01.JPG,AFNE01.JPG,,,,,,,,,,,,,,,,,,,,,2,0,20,6,,,AFSA16.jpg,AFSA12.jpg,AFNE01.jpg,AFNE16.jpg,AFSA16.jpg,FS,4,num_8,16,num_8,0.800110847464,,,2017_Jun_27_1257,60.0077372273,MAFE4ImagesEEG,001,100818,
AFNE01.JPG,AFNE01.JPG,AFNE01.JPG,AFNE01.JPG,AFNE01.JPG,AFNE01.JPG,,,,,,,,,,,,,,,,,,,,,2,1,21,2,,,AFSA04.jpg,AFNE09.jpg,AFNE20.jpg,AFSA14.jpg,AFNE20.jpg,FN,3,num_2,32,num_4,0.866748904195,,,2017_Jun_27_1257,60.0077372273,MAFE4ImagesEEG,001,100818,
AFNE01.JPG,AFNE01.JPG,AFNE01.JPG,AFNE01.JPG,AFNE01.JPG,AFNE01.JPG,,,,,,,,,,,,,,,,,,,,,2,2,22,7,,,AFNE16.jpg,AFSA20.jpg,AFSA17.jpg,AFNE18.jpg,AFSA20.jpg,FS,4,num_6,16,num_6,0.816771003125,,,2017_Jun_27_1257,60.0077372273,MAFE4ImagesEEG,001,100818,
AFNE01.JPG,AFNE01.JPG,AFNE01.JPG,AFNE01.JPG,AFNE01.JPG,AFNE01.JPG,,,,,,,,,,,,,,,,,,,,,2,3,23,1,,,AFSA08.jpg,AFSA11.jpg,AFNE02.jpg,AFNE12.jpg,AFSA08.jpg,FS,4,num_8,32,num_4,0.766768084399,,,2017_Jun_27_1257,60.0077372273,MAFE4ImagesEEG,001,100818,
AFNE01.JPG,AFNE01.JPG,AFNE01.JPG,AFNE01.JPG,AFNE01.JPG,AFNE01.JPG,,,,,,,,,,,,,,,,,,,,,2,4,24,9,,,AFSA11.jpg,AFNE07.jpg,AFSA03.jpg,AFNE08.jpg,AFSA03.jpg,FS,4,num_2,16,num_2,1.06679682263,,,2017_Jun_27_1257,60.0077372273,MAFE4ImagesEEG,001,100818,
AFNE01.JPG,AFNE01.JPG,AFNE01.JPG,AFNE01.JPG,AFNE01.JPG,AFNE01.JPG,,,,,,,,,,,,,,,,,,,,,2,5,25,3,,,AFSA17.jpg,AFNE16.jpg,AFNE04.jpg,AFSA04.jpg,AFSA04.jpg,FS,4,num_4,32,num_8,1.0167316805,,,2017_Jun_27_1257,60.0077372273,MAFE4ImagesEEG,001,100818,
AFNE01.JPG,AFNE01.JPG,AFNE01.JPG,AFNE01.JPG,AFNE01.JPG,AFNE01.JPG,,,,,,,,,,,,,,,,,,,,,2,6,26,5,,,AFSA12.jpg,AFNE20.jpg,AFNE19.jpg,AFSA02.jpg,AFNE19.jpg,FN,3,num_2,32,num_6,2.93331864348,,,2017_Jun_27_1257,60.0077372273,MAFE4ImagesEEG,001,100818,
AFNE01.JPG,AFNE01.JPG,AFNE01.JPG,AFNE01.JPG,AFNE01.JPG,AFNE01.JPG,,,,,,,,,,,,,,,,,,,,,2,7,27,4,,,AFNE08.jpg,AFNE01.jpg,AFSA20.jpg,AFSA08.jpg,AFSA08.jpg,FS,4,num_4,32,num_6,4.7995046504,,,2017_Jun_27_1257,60.0077372273,MAFE4ImagesEEG,001,100818,
AFNE01.JPG,AFNE01.JPG,AFNE01.JPG,AFNE01.JPG,AFNE01.JPG,AFNE01.JPG,,,,,,,,,,,,,,,,,,,,,2,8,28,0,,,AFSA18.jpg,AFSA12.jpg,AFNE14.jpg,AFNE15.jpg,AFNE15.jpg,FN,3,num_4,16,num_4,0.600179678093,,,2017_Jun_27_1257,60.0077372273,MAFE4ImagesEEG,001,100818,
AFNE01.JPG,AFNE01.JPG,AFNE01.JPG,AFNE01.JPG,AFNE01.JPG,AFNE01.JPG,,,,,,,,,,,,,,,,,,,,,2,9,29,8,,,AFNE01.jpg,AFSA07.jpg,AFNE20.jpg,AFSA19.jpg,AFNE01.jpg,FN,3,num_8,32,num_2,1.3337243144,,,2017_Jun_27_1257,60.0077372273,MAFE4ImagesEEG,001,100818,
AFNE01.JPG,AFNE01.JPG,AFNE01.JPG,AFNE01.JPG,AFNE01.JPG,AFNE01.JPG,,,,,,,,,,,,,,,,,,,,,3,0,30,3,,,AFNE17.jpg,AFSA12.jpg,AFSA13.jpg,AFNE05.jpg,AFNE05.jpg,FN,3,num_4,16,num_4,0.98343382092,,,2017_Jun_27_1257,60.0077372273,MAFE4ImagesEEG,001,100818,
AFNE01.JPG,AFNE01.JPG,AFNE01.JPG,AFNE01.JPG,AFNE01.JPG,AFNE01.JPG,,,,,,,,,,,,,,,,,,,,,3,1,31,0,,,AFSA03.jpg,AFNE01.jpg,AFNE17.jpg,AFSA13.jpg,AFNE17.jpg,FN,3,num_2,32,num_6,0.850143274194,,,2017_Jun_27_1257,60.0077372273,MAFE4ImagesEEG,001,100818,
AFNE01.JPG,AFNE01.JPG,AFNE01.JPG,AFNE01.JPG,AFNE01.JPG,AFNE01.JPG,,,,,,,,,,,,,,,,,,,,,3,2,32,4,,,AFSA01.jpg,AFNE06.jpg,AFNE13.jpg,AFSA02.jpg,AFSA02.jpg,FS,4,num_4,16,num_4,0.86681786312,,,2017_Jun_27_1257,60.0077372273,MAFE4ImagesEEG,001,100818,
AFNE01.JPG,AFNE01.JPG,AFNE01.JPG,AFNE01.JPG,AFNE01.JPG,AFNE01.JPG,,,,,,,,,,,,,,,,,,,,,3,3,33,8,,,AFNE20.jpg,AFSA04.jpg,AFSA20.jpg,AFNE14.jpg,AFSA20.jpg,FS,4,num_2,32,num_6,3.19996805438,,,2017_Jun_27_1257,60.0077372273,MAFE4ImagesEEG,001,100818,
AFNE01.JPG,AFNE01.JPG,AFNE01.JPG,AFNE01.JPG,AFNE01.JPG,AFNE01.JPG,,,,,,,,,,,,,,,,,,,,,3,4,34,7,,,AFSA19.jpg,AFNE08.jpg,AFNE18.jpg,AFSA17.jpg,AFNE08.jpg,FN,3,num_6,16,num_6,0.63352532781,,,2017_Jun_27_1257,60.0077372273,MAFE4ImagesEEG,001,100818,
AFNE01.JPG,AFNE01.JPG,AFNE01.JPG,AFNE01.JPG,AFNE01.JPG,AFNE01.JPG,,,,,,,,,,,,,,,,,,,,,3,5,35,9,,,AFNE13.jpg,AFNE18.jpg,AFSA14.jpg,AFSA07.jpg,AFNE13.jpg,FN,3,num_8,32,num_6,0.8167495136,,,2017_Jun_27_1257,60.0077372273,MAFE4ImagesEEG,001,100818,
AFNE01.JPG,AFNE01.JPG,AFNE01.JPG,AFNE01.JPG,AFNE01.JPG,AFNE01.JPG,,,,,,,,,,,,,,,,,,,,,3,6,36,6,,,AFNE13.jpg,AFNE01.jpg,AFSA10.jpg,AFSA09.jpg,AFNE13.jpg,FN,3,num_8,16,num_8,0.783493670853,,,2017_Jun_27_1257,60.0077372273,MAFE4ImagesEEG,001,100818,
AFNE01.JPG,AFNE01.JPG,AFNE01.JPG,AFNE01.JPG,AFNE01.JPG,AFNE01.JPG,,,,,,,,,,,,,,,,,,,,,3,7,37,1,,,AFNE07.jpg,AFNE15.jpg,AFSA20.jpg,AFSA08.jpg,AFNE15.jpg,FN,3,num_6,16,num_6,3.93287377823,,,2017_Jun_27_1257,60.0077372273,MAFE4ImagesEEG,001,100818,
AFNE01.JPG,AFNE01.JPG,AFNE01.JPG,AFNE01.JPG,AFNE01.JPG,AFNE01.JPG,,,,,,,,,,,,,,,,,,,,,3,8,38,5,,,AFSA02.jpg,AFSA08.jpg,AFNE02.jpg,AFNE04.jpg,AFSA08.jpg,FS,4,num_6,16,num_6,0.900157739532,,,2017_Jun_27_1257,60.0077372273,MAFE4ImagesEEG,001,100818,
