IPosition2,IPosition3,IPosition1,IPosition6,IPosition4,IPosition5,TrialsM1.thisRepN,TrialsM1.thisTrialN,TrialsM1.thisN,TrialsM1.thisIndex,TrialsF1.thisRepN,TrialsF1.thisTrialN,TrialsF1.thisN,TrialsF1.thisIndex,TrialsM2.thisRepN,TrialsM2.thisTrialN,TrialsM2.thisN,TrialsM2.thisIndex,TrialsF2.thisRepN,TrialsF2.thisTrialN,TrialsF2.thisN,TrialsF2.thisIndex,TrialsM3.thisRepN,TrialsM3.thisTrialN,TrialsM3.thisN,TrialsM3.thisIndex,TrialsF3.thisRepN,TrialsF3.thisTrialN,TrialsF3.thisN,TrialsF3.thisIndex,InstrKey_resp.keys,InstrKey_resp.rt,Image0 _Position,Image1 _Position,Image2 _Position,Image3 _Position,Center_image,condition,code,correct_answer,accuracy,Key_Resp.keys,Key_Resp.rt,BreakKey_resp.keys,BreakKey_resp.rt,date,frameRate,expName,session,participant,
,,,,,,,,,,,,,,,,,,,,,,,,,,,,,,space,17.0658974701,,,,,,,,,,,,,,2017_Jul_13_1614,60.003464245,MAFE4ImagesEEG,001,100884,
AFNE23.JPG,AFNE24.JPG,AFNE22.JPG,AFSA24.JPG,AFSA22.JPG,AFSA23.JPG,0,0,0,8,,,,,,,,,,,,,,,,,,,,,,,AMSA14.jpg,AMNE18.jpg,AMNE01.jpg,AMSA20.jpg,AMSA14.jpg,MS,2,num_8,32,num_4,4.78315080074,,,2017_Jul_13_1614,60.003464245,MAFE4ImagesEEG,001,100884,
AMSA21.JPG,AMNE22.JPG,AMNE21.JPG,AMSA23.JPG,AMSA22.JPG,AMNE23.JPG,0,1,1,1,,,,,,,,,,,,,,,,,,,,,,,AMNE06.jpg,AMNE02.jpg,AMSA06.jpg,AMSA20.jpg,AMSA20.jpg,MS,2,num_4,32,num_6,4.08316125674,,,2017_Jul_13_1614,60.003464245,MAFE4ImagesEEG,001,100884,
AMNE23.JPG,AMNE24.JPG,AMNE22.JPG,AMSA24.JPG,AMSA22.JPG,AMSA23.JPG,0,2,2,9,,,,,,,,,,,,,,,,,,,,,,,AMSA19.jpg,AMNE01.jpg,AMSA17.jpg,AMNE17.jpg,AMSA17.jpg,MS,2,num_2,48,None,,,,2017_Jul_13_1614,60.003464245,MAFE4ImagesEEG,001,100884,
AMSA25.JPG,AMNE24.JPG,AMSA24.JPG,AMNE26.JPG,AMSA21.JPG,AMNE25.JPG,0,3,3,3,,,,,,,,,,,,,,,,,,,,,,,AMNE10.jpg,AMSA16.jpg,AMNE08.jpg,AMSA20.jpg,AMNE10.jpg,MN,1,num_8,32,num_6,3.86639160081,,,2017_Jul_13_1614,60.003464245,MAFE4ImagesEEG,001,100884,
AMNE22.JPG,AMSA24.JPG,AMSA22.JPG,AMNE25.JPG,AMNE24.JPG,AMSA25.JPG,0,4,4,7,,,,,,,,,,,,,,,,,,,,,,,AMNE01.jpg,AMSA04.jpg,AMSA15.jpg,AMNE17.jpg,AMSA04.jpg,MS,2,num_6,32,num_4,1.83370956033,,,2017_Jul_13_1614,60.003464245,MAFE4ImagesEEG,001,100884,
AFSA21.JPG,AFNE22.JPG,AFNE21.JPG,AFSA23.JPG,AFSA22.JPG,AFNE23.JPG,0,5,5,0,,,,,,,,,,,,,,,,,,,,,,,AMSA18.jpg,AMNE19.jpg,AMSA11.jpg,AMNE05.jpg,AMNE19.jpg,MN,1,num_6,32,num_2,1.58373634215,,,2017_Jul_13_1614,60.003464245,MAFE4ImagesEEG,001,100884,
AFSA21.JPG,AFNE23.JPG,AFNE21.JPG,AFSA25.JPG,AFNE25.JPG,AFSA23.JPG,0,6,6,4,,,,,,,,,,,,,,,,,,,,,,,AMNE07.jpg,AMSA02.jpg,AMNE14.jpg,AMSA18.jpg,AMNE14.jpg,MN,1,num_2,32,num_8,1.85001048818,,,2017_Jul_13_1614,60.003464245,MAFE4ImagesEEG,001,100884,
AFNE22.JPG,AFSA24.JPG,AFSA22.JPG,AFNE25.JPG,AFNE24.JPG,AFSA25.JPG,0,7,7,6,,,,,,,,,,,,,,,,,,,,,,,AMNE06.jpg,AMSA05.jpg,AMSA20.jpg,AMNE16.jpg,AMNE16.jpg,MN,1,num_4,32,num_8,1.41676785983,,,2017_Jul_13_1614,60.003464245,MAFE4ImagesEEG,001,100884,
AMSA21.JPG,AMNE23.JPG,AMNE21.JPG,AMSA25.JPG,AMNE25.JPG,AMSA23.JPG,0,8,8,5,,,,,,,,,,,,,,,,,,,,,,,AMSA06.jpg,AMNE04.jpg,AMNE06.jpg,AMSA10.jpg,AMNE06.jpg,MN,1,num_2,32,num_6,3.11659222306,,,2017_Jul_13_1614,60.003464245,MAFE4ImagesEEG,001,100884,
AFSA25.JPG,AFNE24.JPG,AFSA24.JPG,AFNE21.JPG,AFSA21.JPG,AFNE25.JPG,0,9,9,2,,,,,,,,,,,,,,,,,,,,,,,AMNE08.jpg,AMSA14.jpg,AMSA19.jpg,AMNE06.jpg,AMSA19.jpg,MS,2,num_2,16,num_2,1.85010286118,,,2017_Jul_13_1614,60.003464245,MAFE4ImagesEEG,001,100884,
AFNE23.JPG,AFNE24.JPG,AFNE22.JPG,AFSA24.JPG,AFSA22.JPG,AFSA23.JPG,,,,,0,0,0,8,,,,,,,,,,,,,,,,,,,AFSA02.jpg,AFSA06.jpg,AFNE03.jpg,AFNE11.jpg,AFNE11.jpg,FN,3,num_4,32,num_2,1.33342987578,,,2017_Jul_13_1614,60.003464245,MAFE4ImagesEEG,001,100884,
AFNE22.JPG,AFSA24.JPG,AFSA22.JPG,AFNE25.JPG,AFNE24.JPG,AFSA25.JPG,,,,,0,1,1,6,,,,,,,,,,,,,,,,,,,AFNE14.jpg,AFSA01.jpg,AFSA05.jpg,AFNE08.jpg,AFSA01.jpg,FS,4,num_6,32,num_4,1.51671756804,,,2017_Jul_13_1614,60.003464245,MAFE4ImagesEEG,001,100884,
AFSA21.JPG,AFNE23.JPG,AFNE21.JPG,AFSA25.JPG,AFNE25.JPG,AFSA23.JPG,,,,,0,2,2,4,,,,,,,,,,,,,,,,,,,AFSA02.jpg,AFNE05.jpg,AFNE06.jpg,AFSA15.jpg,AFNE05.jpg,FN,3,num_6,32,num_8,1.30007524532,,,2017_Jul_13_1614,60.003464245,MAFE4ImagesEEG,001,100884,
AFSA21.JPG,AFNE22.JPG,AFNE21.JPG,AFSA23.JPG,AFSA22.JPG,AFNE23.JPG,,,,,0,3,3,0,,,,,,,,,,,,,,,,,,,AFSA11.jpg,AFNE04.jpg,AFNE13.jpg,AFSA16.jpg,AFNE04.jpg,FN,3,num_6,16,num_6,1.08340277337,,,2017_Jul_13_1614,60.003464245,MAFE4ImagesEEG,001,100884,
AMNE22.JPG,AMSA24.JPG,AMSA22.JPG,AMNE25.JPG,AMNE24.JPG,AMSA25.JPG,,,,,0,4,4,7,,,,,,,,,,,,,,,,,,,AFNE18.jpg,AFSA04.jpg,AFNE20.jpg,AFSA16.jpg,AFNE18.jpg,FN,3,num_8,32,num_4,1.86671362282,,,2017_Jul_13_1614,60.003464245,MAFE4ImagesEEG,001,100884,
AMNE23.JPG,AMNE24.JPG,AMNE22.JPG,AMSA24.JPG,AMSA22.JPG,AMSA23.JPG,,,,,0,5,5,9,,,,,,,,,,,,,,,,,,,AFNE16.jpg,AFSA12.jpg,AFSA08.jpg,AFNE20.jpg,AFNE20.jpg,FN,3,num_4,16,num_4,1.11677857256,,,2017_Jul_13_1614,60.003464245,MAFE4ImagesEEG,001,100884,
AMSA21.JPG,AMNE23.JPG,AMNE21.JPG,AMSA25.JPG,AMNE25.JPG,AMSA23.JPG,,,,,0,6,6,5,,,,,,,,,,,,,,,,,,,AFSA12.jpg,AFSA17.jpg,AFNE10.jpg,AFNE19.jpg,AFSA17.jpg,FS,4,num_6,32,num_2,1.20007678494,,,2017_Jul_13_1614,60.003464245,MAFE4ImagesEEG,001,100884,
AFSA25.JPG,AFNE24.JPG,AFSA24.JPG,AFNE21.JPG,AFSA21.JPG,AFNE25.JPG,,,,,0,7,7,2,,,,,,,,,,,,,,,,,,,AFNE14.jpg,AFSA04.jpg,AFNE12.jpg,AFSA03.jpg,AFNE12.jpg,FN,3,num_2,16,num_2,1.33344719582,,,2017_Jul_13_1614,60.003464245,MAFE4ImagesEEG,001,100884,
AMSA25.JPG,AMNE24.JPG,AMSA24.JPG,AMNE26.JPG,AMSA21.JPG,AMNE25.JPG,,,,,0,8,8,3,,,,,,,,,,,,,,,,,,,AFNE11.jpg,AFSA04.jpg,AFSA13.jpg,AFNE18.jpg,AFNE18.jpg,FN,3,num_4,16,num_4,1.08345858194,,,2017_Jul_13_1614,60.003464245,MAFE4ImagesEEG,001,100884,
AMSA21.JPG,AMNE22.JPG,AMNE21.JPG,AMSA23.JPG,AMSA22.JPG,AMNE23.JPG,,,,,0,9,9,1,,,,,,,,,,,,,,,,,,,AFNE02.jpg,AFNE06.jpg,AFSA19.jpg,AFSA17.jpg,AFNE06.jpg,FN,3,num_6,32,num_8,1.41671301355,,,2017_Jul_13_1614,60.003464245,MAFE4ImagesEEG,001,100884,
AMSA21.JPG,AMNE22.JPG,AMNE21.JPG,AMSA23.JPG,AMSA22.JPG,AMNE23.JPG,,,,,,,,,0,0,0,1,,,,,,,,,,,,,,,AMNE17.jpg,AMSA16.jpg,AMNE13.jpg,AMSA03.jpg,AMNE17.jpg,MN,1,num_8,32,num_6,1.20019738283,,,2017_Jul_13_1614,60.003464245,MAFE4ImagesEEG,001,100884,
AMNE23.JPG,AMNE24.JPG,AMNE22.JPG,AMSA24.JPG,AMSA22.JPG,AMSA23.JPG,,,,,,,,,0,1,1,9,,,,,,,,,,,,,,,AMSA04.jpg,AMNE11.jpg,AMSA19.jpg,AMNE20.jpg,AMSA19.jpg,MS,2,num_2,16,num_2,1.15012550517,,,2017_Jul_13_1614,60.003464245,MAFE4ImagesEEG,001,100884,
AMNE22.JPG,AMSA24.JPG,AMSA22.JPG,AMNE25.JPG,AMNE24.JPG,AMSA25.JPG,,,,,,,,,0,2,2,7,,,,,,,,,,,,,,,AMNE04.jpg,AMSA09.jpg,AMSA04.jpg,AMNE06.jpg,AMNE06.jpg,MN,1,num_4,32,num_8,1.16679784912,,,2017_Jul_13_1614,60.003464245,MAFE4ImagesEEG,001,100884,
AFSA21.JPG,AFNE23.JPG,AFNE21.JPG,AFSA25.JPG,AFNE25.JPG,AFSA23.JPG,,,,,,,,,0,3,3,4,,,,,,,,,,,,,,,AMNE06.jpg,AMSA08.jpg,AMNE13.jpg,AMSA15.jpg,AMNE06.jpg,MN,1,num_8,16,num_8,1.19979966641,,,2017_Jul_13_1614,60.003464245,MAFE4ImagesEEG,001,100884,
AMSA25.JPG,AMNE24.JPG,AMSA24.JPG,AMNE26.JPG,AMSA21.JPG,AMNE25.JPG,,,,,,,,,0,4,4,3,,,,,,,,,,,,,,,AMSA20.jpg,AMNE20.jpg,AMNE07.jpg,AMSA13.jpg,AMNE20.jpg,MN,1,num_6,32,num_4,1.05008502793,,,2017_Jul_13_1614,60.003464245,MAFE4ImagesEEG,001,100884,
AFSA21.JPG,AFNE22.JPG,AFNE21.JPG,AFSA23.JPG,AFSA22.JPG,AFNE23.JPG,,,,,,,,,0,5,5,0,,,,,,,,,,,,,,,AMSA16.jpg,AMNE11.jpg,AMNE06.jpg,AMSA17.jpg,AMNE11.jpg,MN,1,num_6,16,num_6,2.10006645718,,,2017_Jul_13_1614,60.003464245,MAFE4ImagesEEG,001,100884,
AFNE22.JPG,AFSA24.JPG,AFSA22.JPG,AFNE25.JPG,AFNE24.JPG,AFSA25.JPG,,,,,,,,,0,6,6,6,,,,,,,,,,,,,,,AMNE17.jpg,AMNE07.jpg,AMSA08.jpg,AMSA10.jpg,AMSA08.jpg,MS,2,num_2,32,num_8,1.30010828166,,,2017_Jul_13_1614,60.003464245,MAFE4ImagesEEG,001,100884,
AFSA25.JPG,AFNE24.JPG,AFSA24.JPG,AFNE21.JPG,AFSA21.JPG,AFNE25.JPG,,,,,,,,,0,7,7,2,,,,,,,,,,,,,,,AMNE13.jpg,AMNE19.jpg,AMSA04.jpg,AMSA14.jpg,AMNE19.jpg,MN,1,num_6,16,num_6,0.90018885117,,,2017_Jul_13_1614,60.003464245,MAFE4ImagesEEG,001,100884,
AMSA21.JPG,AMNE23.JPG,AMNE21.JPG,AMSA25.JPG,AMNE25.JPG,AMSA23.JPG,,,,,,,,,0,8,8,5,,,,,,,,,,,,,,,AMSA15.jpg,AMNE02.jpg,AMSA19.jpg,AMNE19.jpg,AMSA15.jpg,MS,2,num_8,32,num_6,0.816768116551,,,2017_Jul_13_1614,60.003464245,MAFE4ImagesEEG,001,100884,
AFNE23.JPG,AFNE24.JPG,AFNE22.JPG,AFSA24.JPG,AFSA22.JPG,AFSA23.JPG,,,,,,,,,0,9,9,8,,,,,,,,,,,,,,,AMSA07.jpg,AMNE12.jpg,AMNE10.jpg,AMSA08.jpg,AMSA07.jpg,MS,2,num_8,16,num_8,0.916764652589,,,2017_Jul_13_1614,60.003464245,MAFE4ImagesEEG,001,100884,
AMSA21.JPG,AMNE22.JPG,AMNE21.JPG,AMSA23.JPG,AMSA22.JPG,AMNE23.JPG,,,,,,,,,,,,,0,0,0,1,,,,,,,,,,,AFSA15.jpg,AFNE08.jpg,AFSA01.jpg,AFNE15.jpg,AFSA01.jpg,FS,4,num_2,32,num_6,1.11660216586,,,2017_Jul_13_1614,60.003464245,MAFE4ImagesEEG,001,100884,
AMSA21.JPG,AMNE23.JPG,AMNE21.JPG,AMSA25.JPG,AMNE25.JPG,AMSA23.JPG,,,,,,,,,,,,,0,1,1,5,,,,,,,,,,,AFNE06.jpg,AFSA04.jpg,AFNE07.jpg,AFSA08.jpg,AFSA04.jpg,FS,4,num_6,32,num_4,0.90011027013,,,2017_Jul_13_1614,60.003464245,MAFE4ImagesEEG,001,100884,
AFSA21.JPG,AFNE22.JPG,AFNE21.JPG,AFSA23.JPG,AFSA22.JPG,AFNE23.JPG,,,,,,,,,,,,,0,2,2,0,,,,,,,,,,,AFSA19.jpg,AFNE14.jpg,AFNE15.jpg,AFSA13.jpg,AFNE15.jpg,FN,3,num_2,32,num_8,1.11675387551,,,2017_Jul_13_1614,60.003464245,MAFE4ImagesEEG,001,100884,
AMNE22.JPG,AMSA24.JPG,AMSA22.JPG,AMNE25.JPG,AMNE24.JPG,AMSA25.JPG,,,,,,,,,,,,,0,3,3,7,,,,,,,,,,,AFSA12.jpg,AFNE20.jpg,AFSA09.jpg,AFNE07.jpg,AFSA12.jpg,FS,4,num_8,32,num_2,1.7666609576,,,2017_Jul_13_1614,60.003464245,MAFE4ImagesEEG,001,100884,
AMNE23.JPG,AMNE24.JPG,AMNE22.JPG,AMSA24.JPG,AMSA22.JPG,AMSA23.JPG,,,,,,,,,,,,,0,4,4,9,,,,,,,,,,,AFNE09.jpg,AFNE04.jpg,AFSA08.jpg,AFSA13.jpg,AFSA08.jpg,FS,4,num_2,32,num_4,0.916662657401,,,2017_Jul_13_1614,60.003464245,MAFE4ImagesEEG,001,100884,
AFNE22.JPG,AFSA24.JPG,AFSA22.JPG,AFNE25.JPG,AFNE24.JPG,AFSA25.JPG,,,,,,,,,,,,,0,5,5,6,,,,,,,,,,,AFNE18.jpg,AFNE06.jpg,AFSA07.jpg,AFSA18.jpg,AFNE06.jpg,FN,3,num_6,32,num_4,1.63335212856,,,2017_Jul_13_1614,60.003464245,MAFE4ImagesEEG,001,100884,
AFSA25.JPG,AFNE24.JPG,AFSA24.JPG,AFNE21.JPG,AFSA21.JPG,AFNE25.JPG,,,,,,,,,,,,,0,6,6,2,,,,,,,,,,,AFSA07.jpg,AFNE20.jpg,AFNE12.jpg,AFSA10.jpg,AFNE12.jpg,FN,3,num_2,16,num_2,1.6501197319,,,2017_Jul_13_1614,60.003464245,MAFE4ImagesEEG,001,100884,
AMSA25.JPG,AMNE24.JPG,AMSA24.JPG,AMNE26.JPG,AMSA21.JPG,AMNE25.JPG,,,,,,,,,,,,,0,7,7,3,,,,,,,,,,,AFSA18.jpg,AFNE16.jpg,AFNE08.jpg,AFSA06.jpg,AFSA18.jpg,FS,4,num_8,32,num_4,1.48340687901,,,2017_Jul_13_1614,60.003464245,MAFE4ImagesEEG,001,100884,
AFNE23.JPG,AFNE24.JPG,AFNE22.JPG,AFSA24.JPG,AFSA22.JPG,AFSA23.JPG,,,,,,,,,,,,,0,8,8,8,,,,,,,,,,,AFNE04.jpg,AFSA13.jpg,AFSA05.jpg,AFNE07.jpg,AFNE07.jpg,FN,3,num_4,16,num_4,0.550181249622,,,2017_Jul_13_1614,60.003464245,MAFE4ImagesEEG,001,100884,
AFSA21.JPG,AFNE23.JPG,AFNE21.JPG,AFSA25.JPG,AFNE25.JPG,AFSA23.JPG,,,,,,,,,,,,,0,9,9,4,,,,,,,,,,,AFSA05.jpg,AFNE08.jpg,AFSA19.jpg,AFNE14.jpg,AFSA05.jpg,FS,4,num_8,16,num_8,2.33335995465,,,2017_Jul_13_1614,60.003464245,MAFE4ImagesEEG,001,100884,
AFSA25.JPG,AFNE24.JPG,AFSA24.JPG,AFNE21.JPG,AFSA21.JPG,AFNE25.JPG,,,,,,,,,,,,,,,,,0,0,0,2,,,,,,,AMSA06.jpg,AMNE15.jpg,AMNE03.jpg,AMSA18.jpg,AMNE15.jpg,MN,1,num_6,16,num_6,0.966773344669,,,2017_Jul_13_1614,60.003464245,MAFE4ImagesEEG,001,100884,
AFSA21.JPG,AFNE23.JPG,AFNE21.JPG,AFSA25.JPG,AFNE25.JPG,AFSA23.JPG,,,,,,,,,,,,,,,,,0,1,1,4,,,,,,,AMNE15.jpg,AMSA01.jpg,AMNE20.jpg,AMSA02.jpg,AMNE20.jpg,MN,1,num_2,16,num_2,1.05015013786,,,2017_Jul_13_1614,60.003464245,MAFE4ImagesEEG,001,100884,
AMSA21.JPG,AMNE22.JPG,AMNE21.JPG,AMSA23.JPG,AMSA22.JPG,AMNE23.JPG,,,,,,,,,,,,,,,,,0,2,2,1,,,,,,,AMSA19.jpg,AMSA05.jpg,AMNE14.jpg,AMNE11.jpg,AMNE14.jpg,MN,1,num_2,32,num_8,1.15007643215,,,2017_Jul_13_1614,60.003464245,MAFE4ImagesEEG,001,100884,
AFNE23.JPG,AFNE24.JPG,AFNE22.JPG,AFSA24.JPG,AFSA22.JPG,AFSA23.JPG,,,,,,,,,,,,,,,,,0,3,3,8,,,,,,,AMSA20.jpg,AMNE02.jpg,AMNE14.jpg,AMSA16.jpg,AMSA16.jpg,MS,2,num_4,32,num_8,0.966747364728,,,2017_Jul_13_1614,60.003464245,MAFE4ImagesEEG,001,100884,
AMNE22.JPG,AMSA24.JPG,AMSA22.JPG,AMNE25.JPG,AMNE24.JPG,AMSA25.JPG,,,,,,,,,,,,,,,,,0,4,4,7,,,,,,,AMSA08.jpg,AMSA17.jpg,AMNE20.jpg,AMNE10.jpg,AMSA17.jpg,MS,2,num_6,32,num_4,0.933178480482,,,2017_Jul_13_1614,60.003464245,MAFE4ImagesEEG,001,100884,
AMNE23.JPG,AMNE24.JPG,AMNE22.JPG,AMSA24.JPG,AMSA22.JPG,AMSA23.JPG,,,,,,,,,,,,,,,,,0,5,5,9,,,,,,,AMNE16.jpg,AMSA10.jpg,AMNE12.jpg,AMSA12.jpg,AMSA10.jpg,MS,2,num_6,32,num_4,0.866741206497,,,2017_Jul_13_1614,60.003464245,MAFE4ImagesEEG,001,100884,
AFSA21.JPG,AFNE22.JPG,AFNE21.JPG,AFSA23.JPG,AFSA22.JPG,AFNE23.JPG,,,,,,,,,,,,,,,,,0,6,6,0,,,,,,,AMSA17.jpg,AMNE02.jpg,AMSA18.jpg,AMNE04.jpg,AMSA17.jpg,MS,2,num_8,16,num_8,0.983502138406,,,2017_Jul_13_1614,60.003464245,MAFE4ImagesEEG,001,100884,
AMSA21.JPG,AMNE23.JPG,AMNE21.JPG,AMSA25.JPG,AMNE25.JPG,AMSA23.JPG,,,,,,,,,,,,,,,,,0,7,7,5,,,,,,,AMSA07.jpg,AMSA20.jpg,AMNE15.jpg,AMNE20.jpg,AMSA20.jpg,MS,2,num_6,32,num_8,1.46672812034,,,2017_Jul_13_1614,60.003464245,MAFE4ImagesEEG,001,100884,
AMSA25.JPG,AMNE24.JPG,AMSA24.JPG,AMNE26.JPG,AMSA21.JPG,AMNE25.JPG,,,,,,,,,,,,,,,,,0,8,8,3,,,,,,,AMSA06.jpg,AMNE04.jpg,AMSA08.jpg,AMNE09.jpg,AMNE04.jpg,MN,1,num_6,16,num_6,1.35004480719,,,2017_Jul_13_1614,60.003464245,MAFE4ImagesEEG,001,100884,
AFNE22.JPG,AFSA24.JPG,AFSA22.JPG,AFNE25.JPG,AFNE24.JPG,AFSA25.JPG,,,,,,,,,,,,,,,,,0,9,9,6,,,,,,,AMSA05.jpg,AMNE17.jpg,AMSA10.jpg,AMNE12.jpg,AMNE12.jpg,MN,1,num_4,32,num_8,1.94994736672,,,2017_Jul_13_1614,60.003464245,MAFE4ImagesEEG,001,100884,
AMSA21.JPG,AMNE22.JPG,AMNE21.JPG,AMSA23.JPG,AMSA22.JPG,AMNE23.JPG,,,,,,,,,,,,,,,,,,,,,0,0,0,1,,,AFNE14.jpg,AFSA06.jpg,AFSA10.jpg,AFNE06.jpg,AFSA10.jpg,FS,4,num_2,32,num_4,0.800125601469,,,2017_Jul_13_1614,60.003464245,MAFE4ImagesEEG,001,100884,
AFSA21.JPG,AFNE23.JPG,AFNE21.JPG,AFSA25.JPG,AFNE25.JPG,AFSA23.JPG,,,,,,,,,,,,,,,,,,,,,0,1,1,4,,,AFSA08.jpg,AFSA13.jpg,AFNE15.jpg,AFNE19.jpg,AFNE15.jpg,FN,3,num_2,32,num_8,1.80010731937,,,2017_Jul_13_1614,60.003464245,MAFE4ImagesEEG,001,100884,
AFNE22.JPG,AFSA24.JPG,AFSA22.JPG,AFNE25.JPG,AFNE24.JPG,AFSA25.JPG,,,,,,,,,,,,,,,,,,,,,0,2,2,6,,,AFSA08.jpg,AFNE13.jpg,AFSA14.jpg,AFNE05.jpg,AFNE05.jpg,FN,3,num_4,16,num_4,1.10007704142,,,2017_Jul_13_1614,60.003464245,MAFE4ImagesEEG,001,100884,
AMNE23.JPG,AMNE24.JPG,AMNE22.JPG,AMSA24.JPG,AMSA22.JPG,AMSA23.JPG,,,,,,,,,,,,,,,,,,,,,0,3,3,9,,,AFSA12.jpg,AFNE08.jpg,AFSA17.jpg,AFNE03.jpg,AFNE03.jpg,FN,3,num_4,16,num_4,1.55004974664,,,2017_Jul_13_1614,60.003464245,MAFE4ImagesEEG,001,100884,
AMNE22.JPG,AMSA24.JPG,AMSA22.JPG,AMNE25.JPG,AMNE24.JPG,AMSA25.JPG,,,,,,,,,,,,,,,,,,,,,0,4,4,7,,,AFNE02.jpg,AFSA10.jpg,AFSA13.jpg,AFNE05.jpg,AFSA10.jpg,FS,4,num_6,32,num_8,0.883500470547,,,2017_Jul_13_1614,60.003464245,MAFE4ImagesEEG,001,100884,
AFSA25.JPG,AFNE24.JPG,AFSA24.JPG,AFNE21.JPG,AFSA21.JPG,AFNE25.JPG,,,,,,,,,,,,,,,,,,,,,0,5,5,2,,,AFNE18.jpg,AFSA07.jpg,AFSA06.jpg,AFNE16.jpg,AFSA07.jpg,FS,4,num_6,16,num_6,3.16659610393,,,2017_Jul_13_1614,60.003464245,MAFE4ImagesEEG,001,100884,
AFNE23.JPG,AFNE24.JPG,AFNE22.JPG,AFSA24.JPG,AFSA22.JPG,AFSA23.JPG,,,,,,,,,,,,,,,,,,,,,0,6,6,8,,,AFNE16.jpg,AFNE07.jpg,AFSA17.jpg,AFSA11.jpg,AFSA11.jpg,FS,4,num_4,16,num_4,0.783497519791,,,2017_Jul_13_1614,60.003464245,MAFE4ImagesEEG,001,100884,
AMSA25.JPG,AMNE24.JPG,AMSA24.JPG,AMNE26.JPG,AMSA21.JPG,AMNE25.JPG,,,,,,,,,,,,,,,,,,,,,0,7,7,3,,,AFSA14.jpg,AFSA07.jpg,AFNE05.jpg,AFNE19.jpg,AFSA07.jpg,FS,4,num_6,16,num_6,0.73353116517,,,2017_Jul_13_1614,60.003464245,MAFE4ImagesEEG,001,100884,
AFSA21.JPG,AFNE22.JPG,AFNE21.JPG,AFSA23.JPG,AFSA22.JPG,AFNE23.JPG,,,,,,,,,,,,,,,,,,,,,0,8,8,0,,,AFSA01.jpg,AFNE07.jpg,AFNE14.jpg,AFSA14.jpg,AFSA14.jpg,FS,4,num_4,32,num_8,0.98343670764,,,2017_Jul_13_1614,60.003464245,MAFE4ImagesEEG,001,100884,
AMSA21.JPG,AMNE23.JPG,AMNE21.JPG,AMSA25.JPG,AMNE25.JPG,AMSA23.JPG,,,,,,,,,,,,,,,,,,,,,0,9,9,5,,,AFNE15.jpg,AFSA17.jpg,AFNE04.jpg,AFSA16.jpg,AFNE04.jpg,FN,3,num_2,32,num_4,1.46673261072,,,2017_Jul_13_1614,60.003464245,MAFE4ImagesEEG,001,100884,
,,,,,,,,,,,,,,,,,,,,,,,,,,,,,,,,,,,,,,,,,,,space,16.7155174902,2017_Jul_13_1614,60.003464245,MAFE4ImagesEEG,001,100884,
AFNE01.JPG,AFNE01.JPG,AFNE01.JPG,AFNE01.JPG,AFNE01.JPG,AFNE01.JPG,0,0,0,6,,,,,,,,,,,,,,,,,,,,,,,AMNE16.jpg,AMSA18.jpg,AMSA08.jpg,AMNE02.jpg,AMSA18.jpg,MS,2,num_6,16,num_6,1.16680779192,,,2017_Jul_13_1614,60.003464245,MAFE4ImagesEEG,001,100884,
AFNE01.JPG,AFNE01.JPG,AFNE01.JPG,AFNE01.JPG,AFNE01.JPG,AFNE01.JPG,0,1,1,1,,,,,,,,,,,,,,,,,,,,,,,AMSA14.jpg,AMSA16.jpg,AMNE08.jpg,AMNE19.jpg,AMSA16.jpg,MS,2,num_6,32,num_4,1.06673684437,,,2017_Jul_13_1614,60.003464245,MAFE4ImagesEEG,001,100884,
AFNE01.JPG,AFNE01.JPG,AFNE01.JPG,AFNE01.JPG,AFNE01.JPG,AFNE01.JPG,0,2,2,3,,,,,,,,,,,,,,,,,,,,,,,AMNE17.jpg,AMSA03.jpg,AMNE12.jpg,AMSA09.jpg,AMSA09.jpg,MS,2,num_4,16,num_4,2.25000112271,,,2017_Jul_13_1614,60.003464245,MAFE4ImagesEEG,001,100884,
AFNE01.JPG,AFNE01.JPG,AFNE01.JPG,AFNE01.JPG,AFNE01.JPG,AFNE01.JPG,0,3,3,9,,,,,,,,,,,,,,,,,,,,,,,AMNE06.jpg,AMNE07.jpg,AMSA11.jpg,AMSA05.jpg,AMSA05.jpg,MS,2,num_4,16,num_4,1.41661326354,,,2017_Jul_13_1614,60.003464245,MAFE4ImagesEEG,001,100884,
AFNE01.JPG,AFNE01.JPG,AFNE01.JPG,AFNE01.JPG,AFNE01.JPG,AFNE01.JPG,0,4,4,2,,,,,,,,,,,,,,,,,,,,,,,AMSA04.jpg,AMNE12.jpg,AMNE15.jpg,AMSA05.jpg,AMSA05.jpg,MS,2,num_4,16,num_4,1.15015405091,,,2017_Jul_13_1614,60.003464245,MAFE4ImagesEEG,001,100884,
AFNE01.JPG,AFNE01.JPG,AFNE01.JPG,AFNE01.JPG,AFNE01.JPG,AFNE01.JPG,0,5,5,5,,,,,,,,,,,,,,,,,,,,,,,AMNE14.jpg,AMSA05.jpg,AMNE06.jpg,AMSA08.jpg,AMNE06.jpg,MN,1,num_2,32,num_4,1.0667811064,,,2017_Jul_13_1614,60.003464245,MAFE4ImagesEEG,001,100884,
AFNE01.JPG,AFNE01.JPG,AFNE01.JPG,AFNE01.JPG,AFNE01.JPG,AFNE01.JPG,0,6,6,4,,,,,,,,,,,,,,,,,,,,,,,AMSA06.jpg,AMSA12.jpg,AMNE20.jpg,AMNE04.jpg,AMSA12.jpg,MS,2,num_6,16,num_6,1.31675624917,,,2017_Jul_13_1614,60.003464245,MAFE4ImagesEEG,001,100884,
AFNE01.JPG,AFNE01.JPG,AFNE01.JPG,AFNE01.JPG,AFNE01.JPG,AFNE01.JPG,0,7,7,8,,,,,,,,,,,,,,,,,,,,,,,AMSA11.jpg,AMNE18.jpg,AMNE15.jpg,AMSA02.jpg,AMNE18.jpg,MN,1,num_6,32,num_8,1.31683354732,,,2017_Jul_13_1614,60.003464245,MAFE4ImagesEEG,001,100884,
AFNE01.JPG,AFNE01.JPG,AFNE01.JPG,AFNE01.JPG,AFNE01.JPG,AFNE01.JPG,0,8,8,0,,,,,,,,,,,,,,,,,,,,,,,AMSA13.jpg,AMNE17.jpg,AMSA09.jpg,AMNE13.jpg,AMSA09.jpg,MS,2,num_2,32,num_8,1.28342471202,,,2017_Jul_13_1614,60.003464245,MAFE4ImagesEEG,001,100884,
AFNE01.JPG,AFNE01.JPG,AFNE01.JPG,AFNE01.JPG,AFNE01.JPG,AFNE01.JPG,0,9,9,7,,,,,,,,,,,,,,,,,,,,,,,AMSA13.jpg,AMNE18.jpg,AMSA10.jpg,AMNE09.jpg,AMNE18.jpg,MN,1,num_6,48,None,,,,2017_Jul_13_1614,60.003464245,MAFE4ImagesEEG,001,100884,
AFNE01.JPG,AFNE01.JPG,AFNE01.JPG,AFNE01.JPG,AFNE01.JPG,AFNE01.JPG,1,0,10,3,,,,,,,,,,,,,,,,,,,,,,,AMSA02.jpg,AMNE15.jpg,AMSA20.jpg,AMNE19.jpg,AMSA02.jpg,MS,2,num_8,16,num_8,1.73347792262,,,2017_Jul_13_1614,60.003464245,MAFE4ImagesEEG,001,100884,
AFNE01.JPG,AFNE01.JPG,AFNE01.JPG,AFNE01.JPG,AFNE01.JPG,AFNE01.JPG,1,1,11,1,,,,,,,,,,,,,,,,,,,,,,,AMNE15.jpg,AMNE04.jpg,AMSA15.jpg,AMSA18.jpg,AMSA15.jpg,MS,2,num_2,16,num_2,0.733461564872,,,2017_Jul_13_1614,60.003464245,MAFE4ImagesEEG,001,100884,
AFNE01.JPG,AFNE01.JPG,AFNE01.JPG,AFNE01.JPG,AFNE01.JPG,AFNE01.JPG,1,2,12,4,,,,,,,,,,,,,,,,,,,,,,,AMSA07.jpg,AMNE19.jpg,AMSA12.jpg,AMNE17.jpg,AMNE17.jpg,MN,1,num_4,16,num_4,2.68332169065,,,2017_Jul_13_1614,60.003464245,MAFE4ImagesEEG,001,100884,
AFNE01.JPG,AFNE01.JPG,AFNE01.JPG,AFNE01.JPG,AFNE01.JPG,AFNE01.JPG,1,3,13,7,,,,,,,,,,,,,,,,,,,,,,,AMSA10.jpg,AMNE14.jpg,AMSA14.jpg,AMNE09.jpg,AMNE14.jpg,MN,1,num_6,32,num_4,3.38351169648,,,2017_Jul_13_1614,60.003464245,MAFE4ImagesEEG,001,100884,
AFNE01.JPG,AFNE01.JPG,AFNE01.JPG,AFNE01.JPG,AFNE01.JPG,AFNE01.JPG,1,4,14,2,,,,,,,,,,,,,,,,,,,,,,,AMNE05.jpg,AMSA15.jpg,AMSA08.jpg,AMNE03.jpg,AMNE03.jpg,MN,1,num_4,16,num_4,1.18353177467,,,2017_Jul_13_1614,60.003464245,MAFE4ImagesEEG,001,100884,
AFNE01.JPG,AFNE01.JPG,AFNE01.JPG,AFNE01.JPG,AFNE01.JPG,AFNE01.JPG,1,5,15,5,,,,,,,,,,,,,,,,,,,,,,,AMSA03.jpg,AMNE02.jpg,AMNE08.jpg,AMSA19.jpg,AMNE02.jpg,MN,1,num_6,16,num_6,1.31673283526,,,2017_Jul_13_1614,60.003464245,MAFE4ImagesEEG,001,100884,
AFNE01.JPG,AFNE01.JPG,AFNE01.JPG,AFNE01.JPG,AFNE01.JPG,AFNE01.JPG,1,6,16,0,,,,,,,,,,,,,,,,,,,,,,,AMSA17.jpg,AMNE15.jpg,AMSA08.jpg,AMNE11.jpg,AMSA08.jpg,MS,2,num_2,32,num_4,3.06662105746,,,2017_Jul_13_1614,60.003464245,MAFE4ImagesEEG,001,100884,
AFNE01.JPG,AFNE01.JPG,AFNE01.JPG,AFNE01.JPG,AFNE01.JPG,AFNE01.JPG,1,7,17,8,,,,,,,,,,,,,,,,,,,,,,,AMSA15.jpg,AMNE18.jpg,AMSA10.jpg,AMNE19.jpg,AMSA10.jpg,MS,2,num_2,16,num_2,1.50003079092,,,2017_Jul_13_1614,60.003464245,MAFE4ImagesEEG,001,100884,
AFNE01.JPG,AFNE01.JPG,AFNE01.JPG,AFNE01.JPG,AFNE01.JPG,AFNE01.JPG,1,8,18,9,,,,,,,,,,,,,,,,,,,,,,,AMNE20.jpg,AMSA09.jpg,AMSA04.jpg,AMNE16.jpg,AMSA09.jpg,MS,2,num_6,16,num_6,1.31674245722,,,2017_Jul_13_1614,60.003464245,MAFE4ImagesEEG,001,100884,
AFNE01.JPG,AFNE01.JPG,AFNE01.JPG,AFNE01.JPG,AFNE01.JPG,AFNE01.JPG,1,9,19,6,,,,,,,,,,,,,,,,,,,,,,,AMSA09.jpg,AMSA04.jpg,AMNE05.jpg,AMNE18.jpg,AMNE05.jpg,MN,1,num_2,32,num_8,1.31674438179,,,2017_Jul_13_1614,60.003464245,MAFE4ImagesEEG,001,100884,
AFNE01.JPG,AFNE01.JPG,AFNE01.JPG,AFNE01.JPG,AFNE01.JPG,AFNE01.JPG,2,0,20,0,,,,,,,,,,,,,,,,,,,,,,,AMSA03.jpg,AMNE04.jpg,AMSA13.jpg,AMNE20.jpg,AMNE20.jpg,MN,1,num_4,16,num_4,2.23306224472,,,2017_Jul_13_1614,60.003464245,MAFE4ImagesEEG,001,100884,
AFNE01.JPG,AFNE01.JPG,AFNE01.JPG,AFNE01.JPG,AFNE01.JPG,AFNE01.JPG,2,1,21,8,,,,,,,,,,,,,,,,,,,,,,,AMNE08.jpg,AMNE05.jpg,AMSA05.jpg,AMSA10.jpg,AMNE08.jpg,MN,1,num_8,32,num_4,2.94981233543,,,2017_Jul_13_1614,60.003464245,MAFE4ImagesEEG,001,100884,
AFNE01.JPG,AFNE01.JPG,AFNE01.JPG,AFNE01.JPG,AFNE01.JPG,AFNE01.JPG,2,2,22,3,,,,,,,,,,,,,,,,,,,,,,,AMNE01.jpg,AMSA18.jpg,AMSA20.jpg,AMNE08.jpg,AMSA20.jpg,MS,2,num_2,32,num_8,1.21673084656,,,2017_Jul_13_1614,60.003464245,MAFE4ImagesEEG,001,100884,
AFNE01.JPG,AFNE01.JPG,AFNE01.JPG,AFNE01.JPG,AFNE01.JPG,AFNE01.JPG,2,3,23,6,,,,,,,,,,,,,,,,,,,,,,,AMSA07.jpg,AMNE13.jpg,AMNE05.jpg,AMSA01.jpg,AMSA07.jpg,MS,2,num_8,32,num_2,1.0501260825,,,2017_Jul_13_1614,60.003464245,MAFE4ImagesEEG,001,100884,
AFNE01.JPG,AFNE01.JPG,AFNE01.JPG,AFNE01.JPG,AFNE01.JPG,AFNE01.JPG,2,4,24,1,,,,,,,,,,,,,,,,,,,,,,,AMSA12.jpg,AMSA15.jpg,AMNE04.jpg,AMNE17.jpg,AMSA12.jpg,MS,2,num_8,32,num_4,1.13344129408,,,2017_Jul_13_1614,60.003464245,MAFE4ImagesEEG,001,100884,
AFNE01.JPG,AFNE01.JPG,AFNE01.JPG,AFNE01.JPG,AFNE01.JPG,AFNE01.JPG,2,5,25,5,,,,,,,,,,,,,,,,,,,,,,,AMSA17.jpg,AMNE04.jpg,AMNE09.jpg,AMSA09.jpg,AMSA17.jpg,MS,2,num_8,32,num_4,0.850192988757,,,2017_Jul_13_1614,60.003464245,MAFE4ImagesEEG,001,100884,
AFNE01.JPG,AFNE01.JPG,AFNE01.JPG,AFNE01.JPG,AFNE01.JPG,AFNE01.JPG,2,6,26,9,,,,,,,,,,,,,,,,,,,,,,,AMSA09.jpg,AMNE12.jpg,AMNE07.jpg,AMSA15.jpg,AMNE12.jpg,MN,1,num_6,16,num_6,1.18342657224,,,2017_Jul_13_1614,60.003464245,MAFE4ImagesEEG,001,100884,
AFNE01.JPG,AFNE01.JPG,AFNE01.JPG,AFNE01.JPG,AFNE01.JPG,AFNE01.JPG,2,7,27,2,,,,,,,,,,,,,,,,,,,,,,,AMSA06.jpg,AMNE01.jpg,AMNE08.jpg,AMSA17.jpg,AMSA06.jpg,MS,2,num_8,16,num_8,1.9000563859,,,2017_Jul_13_1614,60.003464245,MAFE4ImagesEEG,001,100884,
AFNE01.JPG,AFNE01.JPG,AFNE01.JPG,AFNE01.JPG,AFNE01.JPG,AFNE01.JPG,2,8,28,4,,,,,,,,,,,,,,,,,,,,,,,AMSA18.jpg,AMNE20.jpg,AMSA09.jpg,AMNE05.jpg,AMSA09.jpg,MS,2,num_2,16,num_2,1.51675605658,,,2017_Jul_13_1614,60.003464245,MAFE4ImagesEEG,001,100884,
AFNE01.JPG,AFNE01.JPG,AFNE01.JPG,AFNE01.JPG,AFNE01.JPG,AFNE01.JPG,2,9,29,7,,,,,,,,,,,,,,,,,,,,,,,AMSA14.jpg,AMNE18.jpg,AMNE19.jpg,AMSA04.jpg,AMNE19.jpg,MN,1,num_2,32,num_6,1.03346271953,,,2017_Jul_13_1614,60.003464245,MAFE4ImagesEEG,001,100884,
AFNE01.JPG,AFNE01.JPG,AFNE01.JPG,AFNE01.JPG,AFNE01.JPG,AFNE01.JPG,3,0,30,9,,,,,,,,,,,,,,,,,,,,,,,AMSA18.jpg,AMNE10.jpg,AMSA13.jpg,AMNE07.jpg,AMNE07.jpg,MN,1,num_4,32,num_8,4.39952395903,,,2017_Jul_13_1614,60.003464245,MAFE4ImagesEEG,001,100884,
AFNE01.JPG,AFNE01.JPG,AFNE01.JPG,AFNE01.JPG,AFNE01.JPG,AFNE01.JPG,3,1,31,5,,,,,,,,,,,,,,,,,,,,,,,AMNE04.jpg,AMNE01.jpg,AMSA05.jpg,AMSA04.jpg,AMSA05.jpg,MS,2,num_2,32,num_4,1.20008191676,,,2017_Jul_13_1614,60.003464245,MAFE4ImagesEEG,001,100884,
AFNE01.JPG,AFNE01.JPG,AFNE01.JPG,AFNE01.JPG,AFNE01.JPG,AFNE01.JPG,3,2,32,6,,,,,,,,,,,,,,,,,,,,,,,AMNE03.jpg,AMSA04.jpg,AMSA05.jpg,AMNE17.jpg,AMSA05.jpg,MS,2,num_2,32,num_4,0.800122394226,,,2017_Jul_13_1614,60.003464245,MAFE4ImagesEEG,001,100884,
AFNE01.JPG,AFNE01.JPG,AFNE01.JPG,AFNE01.JPG,AFNE01.JPG,AFNE01.JPG,3,3,33,3,,,,,,,,,,,,,,,,,,,,,,,AMSA12.jpg,AMSA05.jpg,AMNE06.jpg,AMNE17.jpg,AMSA05.jpg,MS,2,num_6,16,num_6,1.39971127058,,,2017_Jul_13_1614,60.003464245,MAFE4ImagesEEG,001,100884,
AFNE01.JPG,AFNE01.JPG,AFNE01.JPG,AFNE01.JPG,AFNE01.JPG,AFNE01.JPG,3,4,34,4,,,,,,,,,,,,,,,,,,,,,,,AMSA14.jpg,AMNE02.jpg,AMSA16.jpg,AMNE20.jpg,AMSA16.jpg,MS,2,num_2,32,num_8,1.73334994772,,,2017_Jul_13_1614,60.003464245,MAFE4ImagesEEG,001,100884,
AFNE01.JPG,AFNE01.JPG,AFNE01.JPG,AFNE01.JPG,AFNE01.JPG,AFNE01.JPG,3,5,35,0,,,,,,,,,,,,,,,,,,,,,,,AMSA10.jpg,AMSA06.jpg,AMNE13.jpg,AMNE03.jpg,AMNE03.jpg,MN,1,num_4,32,num_8,1.53343000403,,,2017_Jul_13_1614,60.003464245,MAFE4ImagesEEG,001,100884,
AFNE01.JPG,AFNE01.JPG,AFNE01.JPG,AFNE01.JPG,AFNE01.JPG,AFNE01.JPG,3,6,36,7,,,,,,,,,,,,,,,,,,,,,,,AMNE09.jpg,AMNE04.jpg,AMSA14.jpg,AMSA17.jpg,AMNE04.jpg,MN,1,num_6,16,num_6,1.10013124649,,,2017_Jul_13_1614,60.003464245,MAFE4ImagesEEG,001,100884,
AFNE01.JPG,AFNE01.JPG,AFNE01.JPG,AFNE01.JPG,AFNE01.JPG,AFNE01.JPG,3,7,37,1,,,,,,,,,,,,,,,,,,,,,,,AMNE11.jpg,AMSA05.jpg,AMSA17.jpg,AMNE01.jpg,AMSA05.jpg,MS,2,num_6,32,num_8,1.28340418474,,,2017_Jul_13_1614,60.003464245,MAFE4ImagesEEG,001,100884,
AFNE01.JPG,AFNE01.JPG,AFNE01.JPG,AFNE01.JPG,AFNE01.JPG,AFNE01.JPG,3,8,38,2,,,,,,,,,,,,,,,,,,,,,,,AMNE02.jpg,AMSA11.jpg,AMSA12.jpg,AMNE03.jpg,AMNE03.jpg,MN,1,num_4,16,num_4,0.900113156764,,,2017_Jul_13_1614,60.003464245,MAFE4ImagesEEG,001,100884,
AFNE01.JPG,AFNE01.JPG,AFNE01.JPG,AFNE01.JPG,AFNE01.JPG,AFNE01.JPG,3,9,39,8,,,,,,,,,,,,,,,,,,,,,,,AMSA01.jpg,AMSA04.jpg,AMNE16.jpg,AMNE02.jpg,AMNE02.jpg,MN,1,num_4,32,num_8,1.38343953015,,,2017_Jul_13_1614,60.003464245,MAFE4ImagesEEG,001,100884,
AFNE01.JPG,AFNE01.JPG,AFNE01.JPG,AFNE01.JPG,AFNE01.JPG,AFNE01.JPG,4,0,40,8,,,,,,,,,,,,,,,,,,,,,,,AMSA08.jpg,AMNE08.jpg,AMSA09.jpg,AMNE13.jpg,AMSA08.jpg,MS,2,num_8,32,num_2,1.23342917021,,,2017_Jul_13_1614,60.003464245,MAFE4ImagesEEG,001,100884,
AFNE01.JPG,AFNE01.JPG,AFNE01.JPG,AFNE01.JPG,AFNE01.JPG,AFNE01.JPG,4,1,41,7,,,,,,,,,,,,,,,,,,,,,,,AMNE10.jpg,AMNE16.jpg,AMSA14.jpg,AMSA19.jpg,AMNE10.jpg,MN,1,num_8,16,num_8,1.10015818849,,,2017_Jul_13_1614,60.003464245,MAFE4ImagesEEG,001,100884,
AFNE01.JPG,AFNE01.JPG,AFNE01.JPG,AFNE01.JPG,AFNE01.JPG,AFNE01.JPG,4,2,42,0,,,,,,,,,,,,,,,,,,,,,,,AMNE13.jpg,AMNE01.jpg,AMSA11.jpg,AMSA03.jpg,AMNE13.jpg,MN,1,num_8,16,num_8,1.40044127288,,,2017_Jul_13_1614,60.003464245,MAFE4ImagesEEG,001,100884,
AFNE01.JPG,AFNE01.JPG,AFNE01.JPG,AFNE01.JPG,AFNE01.JPG,AFNE01.JPG,4,3,43,6,,,,,,,,,,,,,,,,,,,,,,,AMSA08.jpg,AMNE02.jpg,AMNE16.jpg,AMSA05.jpg,AMNE16.jpg,MN,1,num_2,16,num_2,0.716726356186,,,2017_Jul_13_1614,60.003464245,MAFE4ImagesEEG,001,100884,
AFNE01.JPG,AFNE01.JPG,AFNE01.JPG,AFNE01.JPG,AFNE01.JPG,AFNE01.JPG,4,4,44,9,,,,,,,,,,,,,,,,,,,,,,,AMNE08.jpg,AMSA01.jpg,AMSA10.jpg,AMNE03.jpg,AMSA01.jpg,MS,2,num_6,32,num_4,1.30007781112,,,2017_Jul_13_1614,60.003464245,MAFE4ImagesEEG,001,100884,
AFNE01.JPG,AFNE01.JPG,AFNE01.JPG,AFNE01.JPG,AFNE01.JPG,AFNE01.JPG,4,5,45,1,,,,,,,,,,,,,,,,,,,,,,,AMSA17.jpg,AMSA03.jpg,AMNE04.jpg,AMNE11.jpg,AMSA03.jpg,MS,2,num_6,32,num_8,1.06675448501,,,2017_Jul_13_1614,60.003464245,MAFE4ImagesEEG,001,100884,
AFNE01.JPG,AFNE01.JPG,AFNE01.JPG,AFNE01.JPG,AFNE01.JPG,AFNE01.JPG,4,6,46,2,,,,,,,,,,,,,,,,,,,,,,,AMSA11.jpg,AMNE18.jpg,AMSA20.jpg,AMNE17.jpg,AMSA20.jpg,MS,2,num_2,32,num_8,0.850128840888,,,2017_Jul_13_1614,60.003464245,MAFE4ImagesEEG,001,100884,
AFNE01.JPG,AFNE01.JPG,AFNE01.JPG,AFNE01.JPG,AFNE01.JPG,AFNE01.JPG,4,7,47,4,,,,,,,,,,,,,,,,,,,,,,,AMNE12.jpg,AMNE05.jpg,AMSA07.jpg,AMSA04.jpg,AMSA04.jpg,MS,2,num_4,16,num_4,1.20011591516,,,2017_Jul_13_1614,60.003464245,MAFE4ImagesEEG,001,100884,
AFNE01.JPG,AFNE01.JPG,AFNE01.JPG,AFNE01.JPG,AFNE01.JPG,AFNE01.JPG,4,8,48,5,,,,,,,,,,,,,,,,,,,,,,,AMNE11.jpg,AMSA19.jpg,AMSA04.jpg,AMNE17.jpg,AMNE17.jpg,MN,1,num_4,32,num_6,1.03351083025,,,2017_Jul_13_1614,60.003464245,MAFE4ImagesEEG,001,100884,
AFNE01.JPG,AFNE01.JPG,AFNE01.JPG,AFNE01.JPG,AFNE01.JPG,AFNE01.JPG,4,9,49,3,,,,,,,,,,,,,,,,,,,,,,,AMSA12.jpg,AMNE17.jpg,AMSA01.jpg,AMNE10.jpg,AMNE10.jpg,MN,1,num_4,16,num_4,0.983478724258,,,2017_Jul_13_1614,60.003464245,MAFE4ImagesEEG,001,100884,
AFNE01.JPG,AFNE01.JPG,AFNE01.JPG,AFNE01.JPG,AFNE01.JPG,AFNE01.JPG,5,0,50,2,,,,,,,,,,,,,,,,,,,,,,,AMSA12.jpg,AMNE07.jpg,AMNE03.jpg,AMSA18.jpg,AMSA18.jpg,MS,2,num_4,16,num_4,0.850166367367,,,2017_Jul_13_1614,60.003464245,MAFE4ImagesEEG,001,100884,
AFNE01.JPG,AFNE01.JPG,AFNE01.JPG,AFNE01.JPG,AFNE01.JPG,AFNE01.JPG,5,1,51,1,,,,,,,,,,,,,,,,,,,,,,,AMSA01.jpg,AMNE10.jpg,AMNE06.jpg,AMSA20.jpg,AMSA01.jpg,MS,2,num_8,16,num_8,0.933452391764,,,2017_Jul_13_1614,60.003464245,MAFE4ImagesEEG,001,100884,
AFNE01.JPG,AFNE01.JPG,AFNE01.JPG,AFNE01.JPG,AFNE01.JPG,AFNE01.JPG,5,2,52,0,,,,,,,,,,,,,,,,,,,,,,,AMSA13.jpg,AMNE08.jpg,AMNE03.jpg,AMSA18.jpg,AMNE08.jpg,MN,1,num_6,32,num_8,1.75007425109,,,2017_Jul_13_1614,60.003464245,MAFE4ImagesEEG,001,100884,
AFNE01.JPG,AFNE01.JPG,AFNE01.JPG,AFNE01.JPG,AFNE01.JPG,AFNE01.JPG,5,3,53,4,,,,,,,,,,,,,,,,,,,,,,,AMNE16.jpg,AMSA02.jpg,AMSA20.jpg,AMNE10.jpg,AMNE10.jpg,MN,1,num_4,16,num_4,1.75002389518,,,2017_Jul_13_1614,60.003464245,MAFE4ImagesEEG,001,100884,
AFNE01.JPG,AFNE01.JPG,AFNE01.JPG,AFNE01.JPG,AFNE01.JPG,AFNE01.JPG,5,4,54,9,,,,,,,,,,,,,,,,,,,,,,,AMNE09.jpg,AMSA20.jpg,AMNE13.jpg,AMSA10.jpg,AMSA10.jpg,MS,2,num_4,16,num_4,1.56675608875,,,2017_Jul_13_1614,60.003464245,MAFE4ImagesEEG,001,100884,
AFNE01.JPG,AFNE01.JPG,AFNE01.JPG,AFNE01.JPG,AFNE01.JPG,AFNE01.JPG,5,5,55,3,,,,,,,,,,,,,,,,,,,,,,,AMNE15.jpg,AMSA16.jpg,AMNE10.jpg,AMSA01.jpg,AMNE10.jpg,MN,1,num_2,32,num_8,2.00003816793,,,2017_Jul_13_1614,60.003464245,MAFE4ImagesEEG,001,100884,
AFNE01.JPG,AFNE01.JPG,AFNE01.JPG,AFNE01.JPG,AFNE01.JPG,AFNE01.JPG,5,6,56,5,,,,,,,,,,,,,,,,,,,,,,,AMSA07.jpg,AMNE17.jpg,AMNE13.jpg,AMSA20.jpg,AMNE17.jpg,MN,1,num_6,32,num_8,0.833510702243,,,2017_Jul_13_1614,60.003464245,MAFE4ImagesEEG,001,100884,
AFNE01.JPG,AFNE01.JPG,AFNE01.JPG,AFNE01.JPG,AFNE01.JPG,AFNE01.JPG,5,7,57,8,,,,,,,,,,,,,,,,,,,,,,,AMSA18.jpg,AMNE19.jpg,AMNE06.jpg,AMSA16.jpg,AMNE19.jpg,MN,1,num_6,32,num_2,1.4167466911,,,2017_Jul_13_1614,60.003464245,MAFE4ImagesEEG,001,100884,
AFNE01.JPG,AFNE01.JPG,AFNE01.JPG,AFNE01.JPG,AFNE01.JPG,AFNE01.JPG,5,8,58,6,,,,,,,,,,,,,,,,,,,,,,,AMNE05.jpg,AMSA09.jpg,AMSA05.jpg,AMNE04.jpg,AMSA05.jpg,MS,2,num_2,32,num_6,1.71681520087,,,2017_Jul_13_1614,60.003464245,MAFE4ImagesEEG,001,100884,
AFNE01.JPG,AFNE01.JPG,AFNE01.JPG,AFNE01.JPG,AFNE01.JPG,AFNE01.JPG,5,9,59,7,,,,,,,,,,,,,,,,,,,,,,,AMNE05.jpg,AMSA09.jpg,AMNE06.jpg,AMSA15.jpg,AMSA09.jpg,MS,2,num_6,32,num_2,1.05012896913,,,2017_Jul_13_1614,60.003464245,MAFE4ImagesEEG,001,100884,
,,,,,,,,,,,,,,,,,,,,,,,,,,,,,,,,,,,,,,,,,,,space,29.064468577,2017_Jul_13_1614,60.003464245,MAFE4ImagesEEG,001,100884,
AFNE01.JPG,AFNE01.JPG,AFNE01.JPG,AFNE01.JPG,AFNE01.JPG,AFNE01.JPG,,,,,0,0,0,4,,,,,,,,,,,,,,,,,,,AFNE03.jpg,AFSA05.jpg,AFSA17.jpg,AFNE18.jpg,AFSA05.jpg,FS,4,num_6,32,num_4,2.216631738,,,2017_Jul_13_1614,60.003464245,MAFE4ImagesEEG,001,100884,
AFNE01.JPG,AFNE01.JPG,AFNE01.JPG,AFNE01.JPG,AFNE01.JPG,AFNE01.JPG,,,,,0,1,1,6,,,,,,,,,,,,,,,,,,,AFSA20.jpg,AFNE13.jpg,AFNE09.jpg,AFSA02.jpg,AFNE09.jpg,FN,3,num_2,32,num_4,0.883453001035,,,2017_Jul_13_1614,60.003464245,MAFE4ImagesEEG,001,100884,
AFNE01.JPG,AFNE01.JPG,AFNE01.JPG,AFNE01.JPG,AFNE01.JPG,AFNE01.JPG,,,,,0,2,2,8,,,,,,,,,,,,,,,,,,,AFSA07.jpg,AFNE08.jpg,AFNE09.jpg,AFSA08.jpg,AFSA08.jpg,FS,4,num_4,32,num_6,1.55006738729,,,2017_Jul_13_1614,60.003464245,MAFE4ImagesEEG,001,100884,
AFNE01.JPG,AFNE01.JPG,AFNE01.JPG,AFNE01.JPG,AFNE01.JPG,AFNE01.JPG,,,,,0,3,3,7,,,,,,,,,,,,,,,,,,,AFSA14.jpg,AFNE10.jpg,AFSA08.jpg,AFNE18.jpg,AFSA14.jpg,FS,4,num_8,16,num_8,1.00014401181,,,2017_Jul_13_1614,60.003464245,MAFE4ImagesEEG,001,100884,
AFNE01.JPG,AFNE01.JPG,AFNE01.JPG,AFNE01.JPG,AFNE01.JPG,AFNE01.JPG,,,,,0,4,4,3,,,,,,,,,,,,,,,,,,,AFSA10.jpg,AFNE07.jpg,AFNE09.jpg,AFSA07.jpg,AFSA10.jpg,FS,4,num_8,32,num_2,1.35009933286,,,2017_Jul_13_1614,60.003464245,MAFE4ImagesEEG,001,100884,
AFNE01.JPG,AFNE01.JPG,AFNE01.JPG,AFNE01.JPG,AFNE01.JPG,AFNE01.JPG,,,,,0,5,5,9,,,,,,,,,,,,,,,,,,,AFSA14.jpg,AFNE19.jpg,AFSA01.jpg,AFNE15.jpg,AFSA14.jpg,FS,4,num_8,32,num_6,0.933487673057,,,2017_Jul_13_1614,60.003464245,MAFE4ImagesEEG,001,100884,
AFNE01.JPG,AFNE01.JPG,AFNE01.JPG,AFNE01.JPG,AFNE01.JPG,AFNE01.JPG,,,,,0,6,6,1,,,,,,,,,,,,,,,,,,,AFNE14.jpg,AFSA01.jpg,AFSA19.jpg,AFNE04.jpg,AFSA19.jpg,FS,4,num_2,16,num_2,1.20007999241,,,2017_Jul_13_1614,60.003464245,MAFE4ImagesEEG,001,100884,
AFNE01.JPG,AFNE01.JPG,AFNE01.JPG,AFNE01.JPG,AFNE01.JPG,AFNE01.JPG,,,,,0,7,7,0,,,,,,,,,,,,,,,,,,,AFNE10.jpg,AFSA04.jpg,AFNE07.jpg,AFSA06.jpg,AFSA04.jpg,FS,4,num_6,32,num_8,1.90003233054,,,2017_Jul_13_1614,60.003464245,MAFE4ImagesEEG,001,100884,
AFNE01.JPG,AFNE01.JPG,AFNE01.JPG,AFNE01.JPG,AFNE01.JPG,AFNE01.JPG,,,,,0,8,8,5,,,,,,,,,,,,,,,,,,,AFSA02.jpg,AFNE01.jpg,AFNE10.jpg,AFSA20.jpg,AFSA02.jpg,FS,4,num_8,32,num_4,1.25009221234,,,2017_Jul_13_1614,60.003464245,MAFE4ImagesEEG,001,100884,
AFNE01.JPG,AFNE01.JPG,AFNE01.JPG,AFNE01.JPG,AFNE01.JPG,AFNE01.JPG,,,,,0,9,9,2,,,,,,,,,,,,,,,,,,,AFSA17.jpg,AFNE14.jpg,AFSA05.jpg,AFNE11.jpg,AFNE11.jpg,FN,3,num_4,32,num_8,3.13330401783,,,2017_Jul_13_1614,60.003464245,MAFE4ImagesEEG,001,100884,
AFNE01.JPG,AFNE01.JPG,AFNE01.JPG,AFNE01.JPG,AFNE01.JPG,AFNE01.JPG,,,,,1,0,10,1,,,,,,,,,,,,,,,,,,,AFSA02.jpg,AFNE18.jpg,AFSA12.jpg,AFNE05.jpg,AFNE05.jpg,FN,3,num_4,32,num_8,1.49989608047,,,2017_Jul_13_1614,60.003464245,MAFE4ImagesEEG,001,100884,
AFNE01.JPG,AFNE01.JPG,AFNE01.JPG,AFNE01.JPG,AFNE01.JPG,AFNE01.JPG,,,,,1,1,11,5,,,,,,,,,,,,,,,,,,,AFNE17.jpg,AFSA05.jpg,AFSA12.jpg,AFNE14.jpg,AFNE17.jpg,FN,3,num_8,32,num_2,2.70000397717,,,2017_Jul_13_1614,60.003464245,MAFE4ImagesEEG,001,100884,
AFNE01.JPG,AFNE01.JPG,AFNE01.JPG,AFNE01.JPG,AFNE01.JPG,AFNE01.JPG,,,,,1,2,12,8,,,,,,,,,,,,,,,,,,,AFNE01.jpg,AFNE03.jpg,AFSA02.jpg,AFSA11.jpg,AFSA11.jpg,FS,4,num_4,32,num_2,1.20011270768,,,2017_Jul_13_1614,60.003464245,MAFE4ImagesEEG,001,100884,
AFNE01.JPG,AFNE01.JPG,AFNE01.JPG,AFNE01.JPG,AFNE01.JPG,AFNE01.JPG,,,,,1,3,13,6,,,,,,,,,,,,,,,,,,,AFNE08.jpg,AFNE19.jpg,AFSA20.jpg,AFSA12.jpg,AFSA12.jpg,FS,4,num_4,16,num_4,0.916788066505,,,2017_Jul_13_1614,60.003464245,MAFE4ImagesEEG,001,100884,
AFNE01.JPG,AFNE01.JPG,AFNE01.JPG,AFNE01.JPG,AFNE01.JPG,AFNE01.JPG,,,,,1,4,14,9,,,,,,,,,,,,,,,,,,,AFNE05.jpg,AFSA09.jpg,AFNE04.jpg,AFSA17.jpg,AFNE05.jpg,FN,3,num_8,16,num_8,1.31670942111,,,2017_Jul_13_1614,60.003464245,MAFE4ImagesEEG,001,100884,
AFNE01.JPG,AFNE01.JPG,AFNE01.JPG,AFNE01.JPG,AFNE01.JPG,AFNE01.JPG,,,,,1,5,15,4,,,,,,,,,,,,,,,,,,,AFNE19.jpg,AFSA19.jpg,AFSA20.jpg,AFNE17.jpg,AFSA20.jpg,FS,4,num_2,32,num_8,1.06678271014,,,2017_Jul_13_1614,60.003464245,MAFE4ImagesEEG,001,100884,
AFNE01.JPG,AFNE01.JPG,AFNE01.JPG,AFNE01.JPG,AFNE01.JPG,AFNE01.JPG,,,,,1,6,16,7,,,,,,,,,,,,,,,,,,,AFSA09.jpg,AFNE10.jpg,AFNE16.jpg,AFSA01.jpg,AFNE16.jpg,FN,3,num_2,32,num_6,1.80001366348,,,2017_Jul_13_1614,60.003464245,MAFE4ImagesEEG,001,100884,
AFNE01.JPG,AFNE01.JPG,AFNE01.JPG,AFNE01.JPG,AFNE01.JPG,AFNE01.JPG,,,,,1,7,17,0,,,,,,,,,,,,,,,,,,,AFNE08.jpg,AFSA11.jpg,AFSA20.jpg,AFNE05.jpg,AFSA11.jpg,FS,4,num_6,16,num_6,1.40007627173,,,2017_Jul_13_1614,60.003464245,MAFE4ImagesEEG,001,100884,
AFNE01.JPG,AFNE01.JPG,AFNE01.JPG,AFNE01.JPG,AFNE01.JPG,AFNE01.JPG,,,,,1,8,18,3,,,,,,,,,,,,,,,,,,,AFNE14.jpg,AFNE03.jpg,AFSA07.jpg,AFSA04.jpg,AFNE14.jpg,FN,3,num_8,16,num_8,1.1001543398,,,2017_Jul_13_1614,60.003464245,MAFE4ImagesEEG,001,100884,
AFNE01.JPG,AFNE01.JPG,AFNE01.JPG,AFNE01.JPG,AFNE01.JPG,AFNE01.JPG,,,,,1,9,19,2,,,,,,,,,,,,,,,,,,,AFSA03.jpg,AFSA05.jpg,AFNE07.jpg,AFNE16.jpg,AFSA05.jpg,FS,4,num_6,48,None,,,,2017_Jul_13_1614,60.003464245,MAFE4ImagesEEG,001,100884,
AFNE01.JPG,AFNE01.JPG,AFNE01.JPG,AFNE01.JPG,AFNE01.JPG,AFNE01.JPG,,,,,2,0,20,5,,,,,,,,,,,,,,,,,,,AFNE01.jpg,AFSA18.jpg,AFNE15.jpg,AFSA05.jpg,AFSA18.jpg,FS,4,num_6,32,num_8,1.26660162071,,,2017_Jul_13_1614,60.003464245,MAFE4ImagesEEG,001,100884,
AFNE01.JPG,AFNE01.JPG,AFNE01.JPG,AFNE01.JPG,AFNE01.JPG,AFNE01.JPG,,,,,2,1,21,7,,,,,,,,,,,,,,,,,,,AFNE06.jpg,AFNE16.jpg,AFSA03.jpg,AFSA08.jpg,AFNE06.jpg,FN,3,num_8,16,num_8,0.616810325766,,,2017_Jul_13_1614,60.003464245,MAFE4ImagesEEG,001,100884,
AFNE01.JPG,AFNE01.JPG,AFNE01.JPG,AFNE01.JPG,AFNE01.JPG,AFNE01.JPG,,,,,2,2,22,2,,,,,,,,,,,,,,,,,,,AFNE12.jpg,AFNE16.jpg,AFSA15.jpg,AFSA12.jpg,AFNE12.jpg,FN,3,num_8,16,num_8,1.84999028174,,,2017_Jul_13_1614,60.003464245,MAFE4ImagesEEG,001,100884,
AFNE01.JPG,AFNE01.JPG,AFNE01.JPG,AFNE01.JPG,AFNE01.JPG,AFNE01.JPG,,,,,2,3,23,9,,,,,,,,,,,,,,,,,,,AFSA09.jpg,AFSA13.jpg,AFNE03.jpg,AFNE08.jpg,AFNE08.jpg,FN,3,num_4,32,num_8,1.38344626571,,,2017_Jul_13_1614,60.003464245,MAFE4ImagesEEG,001,100884,
AFNE01.JPG,AFNE01.JPG,AFNE01.JPG,AFNE01.JPG,AFNE01.JPG,AFNE01.JPG,,,,,2,4,24,4,,,,,,,,,,,,,,,,,,,AFSA04.jpg,AFNE02.jpg,AFNE09.jpg,AFSA07.jpg,AFNE09.jpg,FN,3,num_2,16,num_2,1.38309794292,,,2017_Jul_13_1614,60.003464245,MAFE4ImagesEEG,001,100884,
AFNE01.JPG,AFNE01.JPG,AFNE01.JPG,AFNE01.JPG,AFNE01.JPG,AFNE01.JPG,,,,,2,5,25,8,,,,,,,,,,,,,,,,,,,AFSA14.jpg,AFNE11.jpg,AFNE07.jpg,AFSA18.jpg,AFNE11.jpg,FN,3,num_6,16,num_6,2.74998476496,,,2017_Jul_13_1614,60.003464245,MAFE4ImagesEEG,001,100884,
AFNE01.JPG,AFNE01.JPG,AFNE01.JPG,AFNE01.JPG,AFNE01.JPG,AFNE01.JPG,,,,,2,6,26,6,,,,,,,,,,,,,,,,,,,AFSA10.jpg,AFNE12.jpg,AFSA09.jpg,AFNE13.jpg,AFNE12.jpg,FN,3,num_6,32,num_4,1.16678758524,,,2017_Jul_13_1614,60.003464245,MAFE4ImagesEEG,001,100884,
AFNE01.JPG,AFNE01.JPG,AFNE01.JPG,AFNE01.JPG,AFNE01.JPG,AFNE01.JPG,,,,,2,7,27,3,,,,,,,,,,,,,,,,,,,AFNE06.jpg,AFSA01.jpg,AFSA16.jpg,AFNE17.jpg,AFSA16.jpg,FS,4,num_2,32,num_6,1.35005924059,,,2017_Jul_13_1614,60.003464245,MAFE4ImagesEEG,001,100884,
AFNE01.JPG,AFNE01.JPG,AFNE01.JPG,AFNE01.JPG,AFNE01.JPG,AFNE01.JPG,,,,,2,8,28,0,,,,,,,,,,,,,,,,,,,AFNE10.jpg,AFNE05.jpg,AFSA12.jpg,AFSA09.jpg,AFNE05.jpg,FN,3,num_6,32,num_8,1.06676763529,,,2017_Jul_13_1614,60.003464245,MAFE4ImagesEEG,001,100884,
AFNE01.JPG,AFNE01.JPG,AFNE01.JPG,AFNE01.JPG,AFNE01.JPG,AFNE01.JPG,,,,,2,9,29,1,,,,,,,,,,,,,,,,,,,AFSA17.jpg,AFSA18.jpg,AFNE14.jpg,AFNE04.jpg,AFNE04.jpg,FN,3,num_4,16,num_4,2.4166870336,,,2017_Jul_13_1614,60.003464245,MAFE4ImagesEEG,001,100884,
AFNE01.JPG,AFNE01.JPG,AFNE01.JPG,AFNE01.JPG,AFNE01.JPG,AFNE01.JPG,,,,,3,0,30,0,,,,,,,,,,,,,,,,,,,AFSA06.jpg,AFNE10.jpg,AFSA02.jpg,AFNE11.jpg,AFNE10.jpg,FN,3,num_6,16,num_6,2.35000920529,,,2017_Jul_13_1614,60.003464245,MAFE4ImagesEEG,001,100884,
AFNE01.JPG,AFNE01.JPG,AFNE01.JPG,AFNE01.JPG,AFNE01.JPG,AFNE01.JPG,,,,,3,1,31,2,,,,,,,,,,,,,,,,,,,AFNE10.jpg,AFNE15.jpg,AFSA12.jpg,AFSA09.jpg,AFSA12.jpg,FS,4,num_2,32,num_4,2.25004955404,,,2017_Jul_13_1614,60.003464245,MAFE4ImagesEEG,001,100884,
AFNE01.JPG,AFNE01.JPG,AFNE01.JPG,AFNE01.JPG,AFNE01.JPG,AFNE01.JPG,,,,,3,2,32,1,,,,,,,,,,,,,,,,,,,AFNE15.jpg,AFSA11.jpg,AFSA06.jpg,AFNE08.jpg,AFSA06.jpg,FS,4,num_2,16,num_2,1.20009538787,,,2017_Jul_13_1614,60.003464245,MAFE4ImagesEEG,001,100884,
AFNE01.JPG,AFNE01.JPG,AFNE01.JPG,AFNE01.JPG,AFNE01.JPG,AFNE01.JPG,,,,,3,3,33,9,,,,,,,,,,,,,,,,,,,AFSA14.jpg,AFNE07.jpg,AFNE11.jpg,AFSA06.jpg,AFNE07.jpg,FN,3,num_6,32,num_8,1.11675644154,,,2017_Jul_13_1614,60.003464245,MAFE4ImagesEEG,001,100884,
AFNE01.JPG,AFNE01.JPG,AFNE01.JPG,AFNE01.JPG,AFNE01.JPG,AFNE01.JPG,,,,,3,4,34,5,,,,,,,,,,,,,,,,,,,AFSA08.jpg,AFNE12.jpg,AFSA04.jpg,AFNE09.jpg,AFNE12.jpg,FN,3,num_6,16,num_6,1.46673357277,,,2017_Jul_13_1614,60.003464245,MAFE4ImagesEEG,001,100884,
AFNE01.JPG,AFNE01.JPG,AFNE01.JPG,AFNE01.JPG,AFNE01.JPG,AFNE01.JPG,,,,,3,5,35,4,,,,,,,,,,,,,,,,,,,AFSA18.jpg,AFSA09.jpg,AFNE10.jpg,AFNE16.jpg,AFNE16.jpg,FN,3,num_4,32,num_6,1.61674168753,,,2017_Jul_13_1614,60.003464245,MAFE4ImagesEEG,001,100884,
AFNE01.JPG,AFNE01.JPG,AFNE01.JPG,AFNE01.JPG,AFNE01.JPG,AFNE01.JPG,,,,,3,6,36,6,,,,,,,,,,,,,,,,,,,AFSA10.jpg,AFSA12.jpg,AFNE05.jpg,AFNE15.jpg,AFSA12.jpg,FS,4,num_6,48,None,,,,2017_Jul_13_1614,60.003464245,MAFE4ImagesEEG,001,100884,
AFNE01.JPG,AFNE01.JPG,AFNE01.JPG,AFNE01.JPG,AFNE01.JPG,AFNE01.JPG,,,,,3,7,37,3,,,,,,,,,,,,,,,,,,,AFNE06.jpg,AFSA06.jpg,AFSA01.jpg,AFNE12.jpg,AFSA06.jpg,FS,4,num_6,16,num_6,1.05014019529,,,2017_Jul_13_1614,60.003464245,MAFE4ImagesEEG,001,100884,
AFNE01.JPG,AFNE01.JPG,AFNE01.JPG,AFNE01.JPG,AFNE01.JPG,AFNE01.JPG,,,,,3,8,38,8,,,,,,,,,,,,,,,,,,,AFSA02.jpg,AFSA01.jpg,AFNE12.jpg,AFNE05.jpg,AFNE12.jpg,FN,3,num_2,32,num_4,2.05004397337,,,2017_Jul_13_1614,60.003464245,MAFE4ImagesEEG,001,100884,
AFNE01.JPG,AFNE01.JPG,AFNE01.JPG,AFNE01.JPG,AFNE01.JPG,AFNE01.JPG,,,,,3,9,39,7,,,,,,,,,,,,,,,,,,,AFNE18.jpg,AFNE06.jpg,AFSA04.jpg,AFSA17.jpg,AFNE18.jpg,FN,3,num_8,16,num_8,1.39992744895,,,2017_Jul_13_1614,60.003464245,MAFE4ImagesEEG,001,100884,
AFNE01.JPG,AFNE01.JPG,AFNE01.JPG,AFNE01.JPG,AFNE01.JPG,AFNE01.JPG,,,,,4,0,40,3,,,,,,,,,,,,,,,,,,,AFNE07.jpg,AFSA19.jpg,AFNE08.jpg,AFSA15.jpg,AFSA15.jpg,FS,4,num_4,16,num_4,1.08350188169,,,2017_Jul_13_1614,60.003464245,MAFE4ImagesEEG,001,100884,
AFNE01.JPG,AFNE01.JPG,AFNE01.JPG,AFNE01.JPG,AFNE01.JPG,AFNE01.JPG,,,,,4,1,41,0,,,,,,,,,,,,,,,,,,,AFSA11.jpg,AFNE12.jpg,AFSA04.jpg,AFNE04.jpg,AFNE04.jpg,FN,3,num_4,32,num_8,1.3335556055,,,2017_Jul_13_1614,60.003464245,MAFE4ImagesEEG,001,100884,
AFNE01.JPG,AFNE01.JPG,AFNE01.JPG,AFNE01.JPG,AFNE01.JPG,AFNE01.JPG,,,,,4,2,42,5,,,,,,,,,,,,,,,,,,,AFNE09.jpg,AFSA05.jpg,AFSA08.jpg,AFNE16.jpg,AFSA05.jpg,FS,4,num_6,32,num_8,1.4167636903,,,2017_Jul_13_1614,60.003464245,MAFE4ImagesEEG,001,100884,
AFNE01.JPG,AFNE01.JPG,AFNE01.JPG,AFNE01.JPG,AFNE01.JPG,AFNE01.JPG,,,,,4,3,43,2,,,,,,,,,,,,,,,,,,,AFNE04.jpg,AFNE09.jpg,AFSA17.jpg,AFSA18.jpg,AFNE04.jpg,FN,3,num_8,16,num_8,1.38309762208,,,2017_Jul_13_1614,60.003464245,MAFE4ImagesEEG,001,100884,
AFNE01.JPG,AFNE01.JPG,AFNE01.JPG,AFNE01.JPG,AFNE01.JPG,AFNE01.JPG,,,,,4,4,44,1,,,,,,,,,,,,,,,,,,,AFSA14.jpg,AFNE04.jpg,AFSA06.jpg,AFNE18.jpg,AFSA14.jpg,FS,4,num_8,32,num_2,1.21678890055,,,2017_Jul_13_1614,60.003464245,MAFE4ImagesEEG,001,100884,
AFNE01.JPG,AFNE01.JPG,AFNE01.JPG,AFNE01.JPG,AFNE01.JPG,AFNE01.JPG,,,,,4,5,45,6,,,,,,,,,,,,,,,,,,,AFSA17.jpg,AFSA12.jpg,AFNE15.jpg,AFNE19.jpg,AFNE19.jpg,FN,3,num_4,16,num_4,1.23337881407,,,2017_Jul_13_1614,60.003464245,MAFE4ImagesEEG,001,100884,
AFNE01.JPG,AFNE01.JPG,AFNE01.JPG,AFNE01.JPG,AFNE01.JPG,AFNE01.JPG,,,,,4,6,46,9,,,,,,,,,,,,,,,,,,,AFNE20.jpg,AFNE19.jpg,AFSA13.jpg,AFSA06.jpg,AFSA13.jpg,FS,4,num_2,16,num_2,1.28355846019,,,2017_Jul_13_1614,60.003464245,MAFE4ImagesEEG,001,100884,
AFNE01.JPG,AFNE01.JPG,AFNE01.JPG,AFNE01.JPG,AFNE01.JPG,AFNE01.JPG,,,,,4,7,47,4,,,,,,,,,,,,,,,,,,,AFSA02.jpg,AFNE05.jpg,AFSA09.jpg,AFNE12.jpg,AFSA09.jpg,FS,4,num_2,16,num_2,2.13337490126,,,2017_Jul_13_1614,60.003464245,MAFE4ImagesEEG,001,100884,
AFNE01.JPG,AFNE01.JPG,AFNE01.JPG,AFNE01.JPG,AFNE01.JPG,AFNE01.JPG,,,,,4,8,48,7,,,,,,,,,,,,,,,,,,,AFNE07.jpg,AFSA11.jpg,AFNE06.jpg,AFSA20.jpg,AFNE06.jpg,FN,3,num_2,32,num_6,1.1667673788,,,2017_Jul_13_1614,60.003464245,MAFE4ImagesEEG,001,100884,
AFNE01.JPG,AFNE01.JPG,AFNE01.JPG,AFNE01.JPG,AFNE01.JPG,AFNE01.JPG,,,,,4,9,49,8,,,,,,,,,,,,,,,,,,,AFSA15.jpg,AFNE02.jpg,AFNE15.jpg,AFSA05.jpg,AFNE15.jpg,FN,3,num_2,32,num_8,1.01676792395,,,2017_Jul_13_1614,60.003464245,MAFE4ImagesEEG,001,100884,
AFNE01.JPG,AFNE01.JPG,AFNE01.JPG,AFNE01.JPG,AFNE01.JPG,AFNE01.JPG,,,,,5,0,50,4,,,,,,,,,,,,,,,,,,,AFSA04.jpg,AFNE05.jpg,AFNE15.jpg,AFSA14.jpg,AFNE05.jpg,FN,3,num_6,16,num_6,1.11674842308,,,2017_Jul_13_1614,60.003464245,MAFE4ImagesEEG,001,100884,
AFNE01.JPG,AFNE01.JPG,AFNE01.JPG,AFNE01.JPG,AFNE01.JPG,AFNE01.JPG,,,,,5,1,51,8,,,,,,,,,,,,,,,,,,,AFSA08.jpg,AFNE02.jpg,AFNE03.jpg,AFSA14.jpg,AFNE03.jpg,FN,3,num_2,32,num_4,1.5001010329,,,2017_Jul_13_1614,60.003464245,MAFE4ImagesEEG,001,100884,
AFNE01.JPG,AFNE01.JPG,AFNE01.JPG,AFNE01.JPG,AFNE01.JPG,AFNE01.JPG,,,,,5,2,52,1,,,,,,,,,,,,,,,,,,,AFSA19.jpg,AFSA14.jpg,AFNE10.jpg,AFNE02.jpg,AFSA14.jpg,FS,4,num_6,16,num_6,0.96675570379,,,2017_Jul_13_1614,60.003464245,MAFE4ImagesEEG,001,100884,
AFNE01.JPG,AFNE01.JPG,AFNE01.JPG,AFNE01.JPG,AFNE01.JPG,AFNE01.JPG,,,,,5,3,53,0,,,,,,,,,,,,,,,,,,,AFNE17.jpg,AFSA05.jpg,AFNE15.jpg,AFSA11.jpg,AFNE15.jpg,FN,3,num_2,32,num_4,1.6834275343,,,2017_Jul_13_1614,60.003464245,MAFE4ImagesEEG,001,100884,
AFNE01.JPG,AFNE01.JPG,AFNE01.JPG,AFNE01.JPG,AFNE01.JPG,AFNE01.JPG,,,,,5,4,54,2,,,,,,,,,,,,,,,,,,,AFSA01.jpg,AFNE03.jpg,AFSA12.jpg,AFNE16.jpg,AFNE16.jpg,FN,3,num_4,32,num_8,1.38343054941,,,2017_Jul_13_1614,60.003464245,MAFE4ImagesEEG,001,100884,
AFNE01.JPG,AFNE01.JPG,AFNE01.JPG,AFNE01.JPG,AFNE01.JPG,AFNE01.JPG,,,,,5,5,55,7,,,,,,,,,,,,,,,,,,,AFNE05.jpg,AFSA11.jpg,AFNE10.jpg,AFSA18.jpg,AFSA18.jpg,FS,4,num_4,32,num_6,1.38346037804,,,2017_Jul_13_1614,60.003464245,MAFE4ImagesEEG,001,100884,
AFNE01.JPG,AFNE01.JPG,AFNE01.JPG,AFNE01.JPG,AFNE01.JPG,AFNE01.JPG,,,,,5,6,56,9,,,,,,,,,,,,,,,,,,,AFSA10.jpg,AFSA06.jpg,AFNE16.jpg,AFNE13.jpg,AFNE16.jpg,FN,3,num_2,32,num_6,1.28345550294,,,2017_Jul_13_1614,60.003464245,MAFE4ImagesEEG,001,100884,
AFNE01.JPG,AFNE01.JPG,AFNE01.JPG,AFNE01.JPG,AFNE01.JPG,AFNE01.JPG,,,,,5,7,57,5,,,,,,,,,,,,,,,,,,,AFSA06.jpg,AFNE17.jpg,AFSA05.jpg,AFNE10.jpg,AFNE17.jpg,FN,3,num_6,32,num_2,3.01663738326,,,2017_Jul_13_1614,60.003464245,MAFE4ImagesEEG,001,100884,
AFNE01.JPG,AFNE01.JPG,AFNE01.JPG,AFNE01.JPG,AFNE01.JPG,AFNE01.JPG,,,,,5,8,58,3,,,,,,,,,,,,,,,,,,,AFSA19.jpg,AFNE16.jpg,AFNE13.jpg,AFSA08.jpg,AFSA08.jpg,FS,4,num_4,32,num_8,2.39999929443,,,2017_Jul_13_1614,60.003464245,MAFE4ImagesEEG,001,100884,
AFNE01.JPG,AFNE01.JPG,AFNE01.JPG,AFNE01.JPG,AFNE01.JPG,AFNE01.JPG,,,,,5,9,59,6,,,,,,,,,,,,,,,,,,,AFSA11.jpg,AFNE04.jpg,AFNE11.jpg,AFSA09.jpg,AFSA09.jpg,FS,4,num_4,16,num_4,1.95029504783,,,2017_Jul_13_1614,60.003464245,MAFE4ImagesEEG,001,100884,
,,,,,,,,,,,,,,,,,,,,,,,,,,,,,,,,,,,,,,,,,,,space,24.1145484732,2017_Jul_13_1614,60.003464245,MAFE4ImagesEEG,001,100884,
AFNE01.JPG,AFNE01.JPG,AFNE01.JPG,AFNE01.JPG,AFNE01.JPG,AFNE01.JPG,,,,,,,,,0,0,0,8,,,,,,,,,,,,,,,AMNE16.jpg,AMNE06.jpg,AMSA16.jpg,AMSA13.jpg,AMNE06.jpg,MN,1,num_6,32,num_8,1.25009574066,,,2017_Jul_13_1614,60.003464245,MAFE4ImagesEEG,001,100884,
AFNE01.JPG,AFNE01.JPG,AFNE01.JPG,AFNE01.JPG,AFNE01.JPG,AFNE01.JPG,,,,,,,,,0,1,1,9,,,,,,,,,,,,,,,AMNE06.jpg,AMSA10.jpg,AMNE10.jpg,AMSA19.jpg,AMNE10.jpg,MN,1,num_2,32,num_8,0.883409059839,,,2017_Jul_13_1614,60.003464245,MAFE4ImagesEEG,001,100884,
AFNE01.JPG,AFNE01.JPG,AFNE01.JPG,AFNE01.JPG,AFNE01.JPG,AFNE01.JPG,,,,,,,,,0,2,2,3,,,,,,,,,,,,,,,AMSA04.jpg,AMNE13.jpg,AMNE06.jpg,AMSA15.jpg,AMNE13.jpg,MN,1,num_6,32,num_4,1.06677565398,,,2017_Jul_13_1614,60.003464245,MAFE4ImagesEEG,001,100884,
AFNE01.JPG,AFNE01.JPG,AFNE01.JPG,AFNE01.JPG,AFNE01.JPG,AFNE01.JPG,,,,,,,,,0,3,3,0,,,,,,,,,,,,,,,AMSA06.jpg,AMNE13.jpg,AMNE18.jpg,AMSA09.jpg,AMNE13.jpg,MN,1,num_6,32,num_8,0.600156905595,,,2017_Jul_13_1614,60.003464245,MAFE4ImagesEEG,001,100884,
AFNE01.JPG,AFNE01.JPG,AFNE01.JPG,AFNE01.JPG,AFNE01.JPG,AFNE01.JPG,,,,,,,,,0,4,4,1,,,,,,,,,,,,,,,AMNE19.jpg,AMSA05.jpg,AMNE11.jpg,AMSA14.jpg,AMSA05.jpg,MS,2,num_6,16,num_6,1.35010382324,,,2017_Jul_13_1614,60.003464245,MAFE4ImagesEEG,001,100884,
AFNE01.JPG,AFNE01.JPG,AFNE01.JPG,AFNE01.JPG,AFNE01.JPG,AFNE01.JPG,,,,,,,,,0,5,5,7,,,,,,,,,,,,,,,AMSA20.jpg,AMNE20.jpg,AMSA16.jpg,AMNE03.jpg,AMNE20.jpg,MN,1,num_6,32,num_2,1.65006199898,,,2017_Jul_13_1614,60.003464245,MAFE4ImagesEEG,001,100884,
AFNE01.JPG,AFNE01.JPG,AFNE01.JPG,AFNE01.JPG,AFNE01.JPG,AFNE01.JPG,,,,,,,,,0,6,6,4,,,,,,,,,,,,,,,AMSA18.jpg,AMNE09.jpg,AMSA17.jpg,AMNE05.jpg,AMNE05.jpg,MN,1,num_4,32,num_8,1.28352125431,,,2017_Jul_13_1614,60.003464245,MAFE4ImagesEEG,001,100884,
AFNE01.JPG,AFNE01.JPG,AFNE01.JPG,AFNE01.JPG,AFNE01.JPG,AFNE01.JPG,,,,,,,,,0,7,7,5,,,,,,,,,,,,,,,AMNE12.jpg,AMNE02.jpg,AMSA07.jpg,AMSA16.jpg,AMSA16.jpg,MS,2,num_4,16,num_4,1.39995439094,,,2017_Jul_13_1614,60.003464245,MAFE4ImagesEEG,001,100884,
AFNE01.JPG,AFNE01.JPG,AFNE01.JPG,AFNE01.JPG,AFNE01.JPG,AFNE01.JPG,,,,,,,,,0,8,8,6,,,,,,,,,,,,,,,AMSA08.jpg,AMNE01.jpg,AMSA01.jpg,AMNE16.jpg,AMNE16.jpg,MN,1,num_4,16,num_4,0.716786975972,,,2017_Jul_13_1614,60.003464245,MAFE4ImagesEEG,001,100884,
AFNE01.JPG,AFNE01.JPG,AFNE01.JPG,AFNE01.JPG,AFNE01.JPG,AFNE01.JPG,,,,,,,,,0,9,9,2,,,,,,,,,,,,,,,AMSA04.jpg,AMNE19.jpg,AMNE10.jpg,AMSA11.jpg,AMSA04.jpg,MS,2,num_8,16,num_8,1.26681523304,,,2017_Jul_13_1614,60.003464245,MAFE4ImagesEEG,001,100884,
AFNE01.JPG,AFNE01.JPG,AFNE01.JPG,AFNE01.JPG,AFNE01.JPG,AFNE01.JPG,,,,,,,,,1,0,10,9,,,,,,,,,,,,,,,AMSA15.jpg,AMNE14.jpg,AMSA08.jpg,AMNE09.jpg,AMSA15.jpg,MS,2,num_8,16,num_8,1.11675996962,,,2017_Jul_13_1614,60.003464245,MAFE4ImagesEEG,001,100884,
AFNE01.JPG,AFNE01.JPG,AFNE01.JPG,AFNE01.JPG,AFNE01.JPG,AFNE01.JPG,,,,,,,,,1,1,11,0,,,,,,,,,,,,,,,AMNE06.jpg,AMSA10.jpg,AMNE18.jpg,AMSA07.jpg,AMSA07.jpg,MS,2,num_4,16,num_4,1.15017906879,,,2017_Jul_13_1614,60.003464245,MAFE4ImagesEEG,001,100884,
AFNE01.JPG,AFNE01.JPG,AFNE01.JPG,AFNE01.JPG,AFNE01.JPG,AFNE01.JPG,,,,,,,,,1,2,12,8,,,,,,,,,,,,,,,AMSA14.jpg,AMNE10.jpg,AMSA19.jpg,AMNE17.jpg,AMSA19.jpg,MS,2,num_2,32,num_8,1.73337560683,,,2017_Jul_13_1614,60.003464245,MAFE4ImagesEEG,001,100884,
AFNE01.JPG,AFNE01.JPG,AFNE01.JPG,AFNE01.JPG,AFNE01.JPG,AFNE01.JPG,,,,,,,,,1,3,13,7,,,,,,,,,,,,,,,AMNE01.jpg,AMSA11.jpg,AMSA08.jpg,AMNE12.jpg,AMNE01.jpg,MN,1,num_8,16,num_8,1.11676445999,,,2017_Jul_13_1614,60.003464245,MAFE4ImagesEEG,001,100884,
AFNE01.JPG,AFNE01.JPG,AFNE01.JPG,AFNE01.JPG,AFNE01.JPG,AFNE01.JPG,,,,,,,,,1,4,14,5,,,,,,,,,,,,,,,AMSA05.jpg,AMSA14.jpg,AMNE07.jpg,AMNE10.jpg,AMSA14.jpg,MS,2,num_6,32,num_2,1.36675596051,,,2017_Jul_13_1614,60.003464245,MAFE4ImagesEEG,001,100884,
AFNE01.JPG,AFNE01.JPG,AFNE01.JPG,AFNE01.JPG,AFNE01.JPG,AFNE01.JPG,,,,,,,,,1,5,15,4,,,,,,,,,,,,,,,AMNE03.jpg,AMSA10.jpg,AMNE14.jpg,AMSA03.jpg,AMSA10.jpg,MS,2,num_6,32,num_2,1.20009378414,,,2017_Jul_13_1614,60.003464245,MAFE4ImagesEEG,001,100884,
AFNE01.JPG,AFNE01.JPG,AFNE01.JPG,AFNE01.JPG,AFNE01.JPG,AFNE01.JPG,,,,,,,,,1,6,16,6,,,,,,,,,,,,,,,AMSA15.jpg,AMNE16.jpg,AMNE18.jpg,AMSA19.jpg,AMNE18.jpg,MN,1,num_2,16,num_2,1.41658343491,,,2017_Jul_13_1614,60.003464245,MAFE4ImagesEEG,001,100884,
AFNE01.JPG,AFNE01.JPG,AFNE01.JPG,AFNE01.JPG,AFNE01.JPG,AFNE01.JPG,,,,,,,,,1,7,17,2,,,,,,,,,,,,,,,AMNE01.jpg,AMNE13.jpg,AMSA20.jpg,AMSA15.jpg,AMNE01.jpg,MN,1,num_8,16,num_8,1.18958316091,,,2017_Jul_13_1614,60.003464245,MAFE4ImagesEEG,001,100884,
AFNE01.JPG,AFNE01.JPG,AFNE01.JPG,AFNE01.JPG,AFNE01.JPG,AFNE01.JPG,,,,,,,,,1,8,18,1,,,,,,,,,,,,,,,AMSA08.jpg,AMSA02.jpg,AMNE05.jpg,AMNE19.jpg,AMNE05.jpg,MN,1,num_2,32,num_4,1.43341678986,,,2017_Jul_13_1614,60.003464245,MAFE4ImagesEEG,001,100884,
AFNE01.JPG,AFNE01.JPG,AFNE01.JPG,AFNE01.JPG,AFNE01.JPG,AFNE01.JPG,,,,,,,,,1,9,19,3,,,,,,,,,,,,,,,AMNE11.jpg,AMSA17.jpg,AMNE16.jpg,AMSA08.jpg,AMSA08.jpg,MS,2,num_4,16,num_4,1.6997448199,,,2017_Jul_13_1614,60.003464245,MAFE4ImagesEEG,001,100884,
AFNE01.JPG,AFNE01.JPG,AFNE01.JPG,AFNE01.JPG,AFNE01.JPG,AFNE01.JPG,,,,,,,,,2,0,20,1,,,,,,,,,,,,,,,AMNE20.jpg,AMNE17.jpg,AMSA06.jpg,AMSA08.jpg,AMNE20.jpg,MN,1,num_8,32,num_6,1.55007412285,,,2017_Jul_13_1614,60.003464245,MAFE4ImagesEEG,001,100884,
AFNE01.JPG,AFNE01.JPG,AFNE01.JPG,AFNE01.JPG,AFNE01.JPG,AFNE01.JPG,,,,,,,,,2,1,21,3,,,,,,,,,,,,,,,AMSA18.jpg,AMNE12.jpg,AMSA12.jpg,AMNE16.jpg,AMSA12.jpg,MS,2,num_2,32,num_8,0.66704930854,,,2017_Jul_13_1614,60.003464245,MAFE4ImagesEEG,001,100884,
AFNE01.JPG,AFNE01.JPG,AFNE01.JPG,AFNE01.JPG,AFNE01.JPG,AFNE01.JPG,,,,,,,,,2,2,22,5,,,,,,,,,,,,,,,AMNE12.jpg,AMSA19.jpg,AMSA08.jpg,AMNE09.jpg,AMSA19.jpg,MS,2,num_6,16,num_6,0.93344309018,,,2017_Jul_13_1614,60.003464245,MAFE4ImagesEEG,001,100884,
AFNE01.JPG,AFNE01.JPG,AFNE01.JPG,AFNE01.JPG,AFNE01.JPG,AFNE01.JPG,,,,,,,,,2,3,23,8,,,,,,,,,,,,,,,AMSA11.jpg,AMNE08.jpg,AMNE07.jpg,AMSA15.jpg,AMSA15.jpg,MS,2,num_4,16,num_4,1.2334314154,,,2017_Jul_13_1614,60.003464245,MAFE4ImagesEEG,001,100884,
AFNE01.JPG,AFNE01.JPG,AFNE01.JPG,AFNE01.JPG,AFNE01.JPG,AFNE01.JPG,,,,,,,,,2,4,24,6,,,,,,,,,,,,,,,AMSA10.jpg,AMSA16.jpg,AMNE17.jpg,AMNE11.jpg,AMNE17.jpg,MN,1,num_2,16,num_2,1.40007755463,,,2017_Jul_13_1614,60.003464245,MAFE4ImagesEEG,001,100884,
AFNE01.JPG,AFNE01.JPG,AFNE01.JPG,AFNE01.JPG,AFNE01.JPG,AFNE01.JPG,,,,,,,,,2,5,25,4,,,,,,,,,,,,,,,AMSA04.jpg,AMNE05.jpg,AMSA13.jpg,AMNE12.jpg,AMNE12.jpg,MN,1,num_4,32,num_8,0.883483150508,,,2017_Jul_13_1614,60.003464245,MAFE4ImagesEEG,001,100884,
AFNE01.JPG,AFNE01.JPG,AFNE01.JPG,AFNE01.JPG,AFNE01.JPG,AFNE01.JPG,,,,,,,,,2,6,26,7,,,,,,,,,,,,,,,AMSA09.jpg,AMNE07.jpg,AMNE08.jpg,AMSA11.jpg,AMSA09.jpg,MS,2,num_8,32,num_2,0.950111906044,,,2017_Jul_13_1614,60.003464245,MAFE4ImagesEEG,001,100884,
AFNE01.JPG,AFNE01.JPG,AFNE01.JPG,AFNE01.JPG,AFNE01.JPG,AFNE01.JPG,,,,,,,,,2,7,27,0,,,,,,,,,,,,,,,AMSA07.jpg,AMSA15.jpg,AMNE13.jpg,AMNE06.jpg,AMSA07.jpg,MS,2,num_8,32,num_4,1.28332111309,,,2017_Jul_13_1614,60.003464245,MAFE4ImagesEEG,001,100884,
AFNE01.JPG,AFNE01.JPG,AFNE01.JPG,AFNE01.JPG,AFNE01.JPG,AFNE01.JPG,,,,,,,,,2,8,28,9,,,,,,,,,,,,,,,AMNE10.jpg,AMSA04.jpg,AMSA01.jpg,AMNE14.jpg,AMSA04.jpg,MS,2,num_6,16,num_6,0.883431511698,,,2017_Jul_13_1614,60.003464245,MAFE4ImagesEEG,001,100884,
AFNE01.JPG,AFNE01.JPG,AFNE01.JPG,AFNE01.JPG,AFNE01.JPG,AFNE01.JPG,,,,,,,,,2,9,29,2,,,,,,,,,,,,,,,AMSA08.jpg,AMSA20.jpg,AMNE09.jpg,AMNE15.jpg,AMNE15.jpg,MN,1,num_4,32,num_8,1.03344507888,,,2017_Jul_13_1614,60.003464245,MAFE4ImagesEEG,001,100884,
AFNE01.JPG,AFNE01.JPG,AFNE01.JPG,AFNE01.JPG,AFNE01.JPG,AFNE01.JPG,,,,,,,,,3,0,30,3,,,,,,,,,,,,,,,AMSA02.jpg,AMSA04.jpg,AMNE20.jpg,AMNE13.jpg,AMSA04.jpg,MS,2,num_6,16,num_6,0.833465157077,,,2017_Jul_13_1614,60.003464245,MAFE4ImagesEEG,001,100884,
AFNE01.JPG,AFNE01.JPG,AFNE01.JPG,AFNE01.JPG,AFNE01.JPG,AFNE01.JPG,,,,,,,,,3,1,31,6,,,,,,,,,,,,,,,AMNE20.jpg,AMSA10.jpg,AMSA12.jpg,AMNE05.jpg,AMSA10.jpg,MS,2,num_6,16,num_6,1.74991003261,,,2017_Jul_13_1614,60.003464245,MAFE4ImagesEEG,001,100884,
AFNE01.JPG,AFNE01.JPG,AFNE01.JPG,AFNE01.JPG,AFNE01.JPG,AFNE01.JPG,,,,,,,,,3,2,32,4,,,,,,,,,,,,,,,AMSA04.jpg,AMNE20.jpg,AMNE07.jpg,AMSA05.jpg,AMSA05.jpg,MS,2,num_4,32,num_6,1.78343337169,,,2017_Jul_13_1614,60.003464245,MAFE4ImagesEEG,001,100884,
AFNE01.JPG,AFNE01.JPG,AFNE01.JPG,AFNE01.JPG,AFNE01.JPG,AFNE01.JPG,,,,,,,,,3,3,33,5,,,,,,,,,,,,,,,AMNE16.jpg,AMSA17.jpg,AMNE12.jpg,AMSA05.jpg,AMSA17.jpg,MS,2,num_6,32,num_4,1.36675756401,,,2017_Jul_13_1614,60.003464245,MAFE4ImagesEEG,001,100884,
AFNE01.JPG,AFNE01.JPG,AFNE01.JPG,AFNE01.JPG,AFNE01.JPG,AFNE01.JPG,,,,,,,,,3,4,34,0,,,,,,,,,,,,,,,AMNE10.jpg,AMSA17.jpg,AMNE05.jpg,AMSA13.jpg,AMNE05.jpg,MN,1,num_2,32,num_8,2.03336938447,,,2017_Jul_13_1614,60.003464245,MAFE4ImagesEEG,001,100884,
AFNE01.JPG,AFNE01.JPG,AFNE01.JPG,AFNE01.JPG,AFNE01.JPG,AFNE01.JPG,,,,,,,,,3,5,35,8,,,,,,,,,,,,,,,AMSA04.jpg,AMSA06.jpg,AMNE20.jpg,AMNE19.jpg,AMSA06.jpg,MS,2,num_6,32,num_8,1.06674582511,,,2017_Jul_13_1614,60.003464245,MAFE4ImagesEEG,001,100884,
AFNE01.JPG,AFNE01.JPG,AFNE01.JPG,AFNE01.JPG,AFNE01.JPG,AFNE01.JPG,,,,,,,,,3,6,36,2,,,,,,,,,,,,,,,AMSA09.jpg,AMSA01.jpg,AMNE06.jpg,AMNE05.jpg,AMSA09.jpg,MS,2,num_8,32,num_6,0.933495691512,,,2017_Jul_13_1614,60.003464245,MAFE4ImagesEEG,001,100884,
AFNE01.JPG,AFNE01.JPG,AFNE01.JPG,AFNE01.JPG,AFNE01.JPG,AFNE01.JPG,,,,,,,,,3,7,37,7,,,,,,,,,,,,,,,AMNE20.jpg,AMSA19.jpg,AMNE09.jpg,AMSA16.jpg,AMNE09.jpg,MN,1,num_2,32,num_4,1.61676766723,,,2017_Jul_13_1614,60.003464245,MAFE4ImagesEEG,001,100884,
AFNE01.JPG,AFNE01.JPG,AFNE01.JPG,AFNE01.JPG,AFNE01.JPG,AFNE01.JPG,,,,,,,,,3,8,38,1,,,,,,,,,,,,,,,AMNE14.jpg,AMSA04.jpg,AMSA03.jpg,AMNE19.jpg,AMSA04.jpg,MS,2,num_6,16,num_6,1.15012069419,,,2017_Jul_13_1614,60.003464245,MAFE4ImagesEEG,001,100884,
AFNE01.JPG,AFNE01.JPG,AFNE01.JPG,AFNE01.JPG,AFNE01.JPG,AFNE01.JPG,,,,,,,,,3,9,39,9,,,,,,,,,,,,,,,AMSA06.jpg,AMSA12.jpg,AMNE09.jpg,AMNE18.jpg,AMNE18.jpg,MN,1,num_4,32,num_2,1.61670384021,,,2017_Jul_13_1614,60.003464245,MAFE4ImagesEEG,001,100884,
AFNE01.JPG,AFNE01.JPG,AFNE01.JPG,AFNE01.JPG,AFNE01.JPG,AFNE01.JPG,,,,,,,,,4,0,40,2,,,,,,,,,,,,,,,AMNE09.jpg,AMSA07.jpg,AMNE15.jpg,AMSA15.jpg,AMSA15.jpg,MS,2,num_4,16,num_4,1.21678312705,,,2017_Jul_13_1614,60.003464245,MAFE4ImagesEEG,001,100884,
AFNE01.JPG,AFNE01.JPG,AFNE01.JPG,AFNE01.JPG,AFNE01.JPG,AFNE01.JPG,,,,,,,,,4,1,41,5,,,,,,,,,,,,,,,AMSA08.jpg,AMSA17.jpg,AMNE09.jpg,AMNE13.jpg,AMNE09.jpg,MN,1,num_2,32,num_8,1.31673187297,,,2017_Jul_13_1614,60.003464245,MAFE4ImagesEEG,001,100884,
AFNE01.JPG,AFNE01.JPG,AFNE01.JPG,AFNE01.JPG,AFNE01.JPG,AFNE01.JPG,,,,,,,,,4,2,42,6,,,,,,,,,,,,,,,AMSA03.jpg,AMNE10.jpg,AMSA10.jpg,AMNE18.jpg,AMNE10.jpg,MN,1,num_6,32,num_8,1.03374240431,,,2017_Jul_13_1614,60.003464245,MAFE4ImagesEEG,001,100884,
AFNE01.JPG,AFNE01.JPG,AFNE01.JPG,AFNE01.JPG,AFNE01.JPG,AFNE01.JPG,,,,,,,,,4,3,43,8,,,,,,,,,,,,,,,AMNE15.jpg,AMSA06.jpg,AMSA09.jpg,AMNE17.jpg,AMNE15.jpg,MN,1,num_8,16,num_8,0.983459800715,,,2017_Jul_13_1614,60.003464245,MAFE4ImagesEEG,001,100884,
AFNE01.JPG,AFNE01.JPG,AFNE01.JPG,AFNE01.JPG,AFNE01.JPG,AFNE01.JPG,,,,,,,,,4,4,44,7,,,,,,,,,,,,,,,AMNE07.jpg,AMSA06.jpg,AMNE17.jpg,AMSA12.jpg,AMSA12.jpg,MS,2,num_4,16,num_4,1.86653048079,,,2017_Jul_13_1614,60.003464245,MAFE4ImagesEEG,001,100884,
AFNE01.JPG,AFNE01.JPG,AFNE01.JPG,AFNE01.JPG,AFNE01.JPG,AFNE01.JPG,,,,,,,,,4,5,45,3,,,,,,,,,,,,,,,AMNE01.jpg,AMSA12.jpg,AMSA05.jpg,AMNE12.jpg,AMNE01.jpg,MN,1,num_8,16,num_8,1.31673091068,,,2017_Jul_13_1614,60.003464245,MAFE4ImagesEEG,001,100884,
AFNE01.JPG,AFNE01.JPG,AFNE01.JPG,AFNE01.JPG,AFNE01.JPG,AFNE01.JPG,,,,,,,,,4,6,46,4,,,,,,,,,,,,,,,AMSA17.jpg,AMSA01.jpg,AMNE11.jpg,AMNE20.jpg,AMNE20.jpg,MN,1,num_4,16,num_4,1.9333969038,,,2017_Jul_13_1614,60.003464245,MAFE4ImagesEEG,001,100884,
AFNE01.JPG,AFNE01.JPG,AFNE01.JPG,AFNE01.JPG,AFNE01.JPG,AFNE01.JPG,,,,,,,,,4,7,47,0,,,,,,,,,,,,,,,AMNE15.jpg,AMSA13.jpg,AMSA20.jpg,AMNE10.jpg,AMNE10.jpg,MN,1,num_4,16,num_4,1.40009936504,,,2017_Jul_13_1614,60.003464245,MAFE4ImagesEEG,001,100884,
AFNE01.JPG,AFNE01.JPG,AFNE01.JPG,AFNE01.JPG,AFNE01.JPG,AFNE01.JPG,,,,,,,,,4,8,48,9,,,,,,,,,,,,,,,AMNE16.jpg,AMSA13.jpg,AMSA04.jpg,AMNE05.jpg,AMNE16.jpg,MN,1,num_8,16,num_8,2.26656313217,,,2017_Jul_13_1614,60.003464245,MAFE4ImagesEEG,001,100884,
AFNE01.JPG,AFNE01.JPG,AFNE01.JPG,AFNE01.JPG,AFNE01.JPG,AFNE01.JPG,,,,,,,,,4,9,49,1,,,,,,,,,,,,,,,AMNE15.jpg,AMSA09.jpg,AMNE20.jpg,AMSA06.jpg,AMNE15.jpg,MN,1,num_8,32,num_2,1.86670560436,,,2017_Jul_13_1614,60.003464245,MAFE4ImagesEEG,001,100884,
AFNE01.JPG,AFNE01.JPG,AFNE01.JPG,AFNE01.JPG,AFNE01.JPG,AFNE01.JPG,,,,,,,,,5,0,50,6,,,,,,,,,,,,,,,AMSA08.jpg,AMNE13.jpg,AMNE02.jpg,AMSA06.jpg,AMNE13.jpg,MN,1,num_6,32,num_8,1.81670364807,,,2017_Jul_13_1614,60.003464245,MAFE4ImagesEEG,001,100884,
AFNE01.JPG,AFNE01.JPG,AFNE01.JPG,AFNE01.JPG,AFNE01.JPG,AFNE01.JPG,,,,,,,,,5,1,51,8,,,,,,,,,,,,,,,AMNE14.jpg,AMSA04.jpg,AMNE11.jpg,AMSA13.jpg,AMNE11.jpg,MN,1,num_2,16,num_2,1.10015401896,,,2017_Jul_13_1614,60.003464245,MAFE4ImagesEEG,001,100884,
AFNE01.JPG,AFNE01.JPG,AFNE01.JPG,AFNE01.JPG,AFNE01.JPG,AFNE01.JPG,,,,,,,,,5,2,52,3,,,,,,,,,,,,,,,AMSA02.jpg,AMSA19.jpg,AMNE05.jpg,AMNE17.jpg,AMSA02.jpg,MS,2,num_8,16,num_8,1.33341191453,,,2017_Jul_13_1614,60.003464245,MAFE4ImagesEEG,001,100884,
AFNE01.JPG,AFNE01.JPG,AFNE01.JPG,AFNE01.JPG,AFNE01.JPG,AFNE01.JPG,,,,,,,,,5,3,53,5,,,,,,,,,,,,,,,AMSA03.jpg,AMNE08.jpg,AMSA06.jpg,AMNE12.jpg,AMNE08.jpg,MN,1,num_6,32,num_8,1.20008576545,,,2017_Jul_13_1614,60.003464245,MAFE4ImagesEEG,001,100884,
AFNE01.JPG,AFNE01.JPG,AFNE01.JPG,AFNE01.JPG,AFNE01.JPG,AFNE01.JPG,,,,,,,,,5,4,54,4,,,,,,,,,,,,,,,AMNE05.jpg,AMSA12.jpg,AMNE10.jpg,AMSA04.jpg,AMNE05.jpg,MN,1,num_8,32,num_2,1.9500275515,,,2017_Jul_13_1614,60.003464245,MAFE4ImagesEEG,001,100884,
AFNE01.JPG,AFNE01.JPG,AFNE01.JPG,AFNE01.JPG,AFNE01.JPG,AFNE01.JPG,,,,,,,,,5,5,55,7,,,,,,,,,,,,,,,AMNE05.jpg,AMSA17.jpg,AMNE02.jpg,AMSA18.jpg,AMNE05.jpg,MN,1,num_8,16,num_8,0.950116396183,,,2017_Jul_13_1614,60.003464245,MAFE4ImagesEEG,001,100884,
AFNE01.JPG,AFNE01.JPG,AFNE01.JPG,AFNE01.JPG,AFNE01.JPG,AFNE01.JPG,,,,,,,,,5,6,56,2,,,,,,,,,,,,,,,AMNE18.jpg,AMSA15.jpg,AMSA03.jpg,AMNE19.jpg,AMNE18.jpg,MN,1,num_8,32,num_2,1.61672853725,,,2017_Jul_13_1614,60.003464245,MAFE4ImagesEEG,001,100884,
AFNE01.JPG,AFNE01.JPG,AFNE01.JPG,AFNE01.JPG,AFNE01.JPG,AFNE01.JPG,,,,,,,,,5,7,57,1,,,,,,,,,,,,,,,AMNE01.jpg,AMNE20.jpg,AMSA14.jpg,AMSA09.jpg,AMNE20.jpg,MN,1,num_6,32,num_4,1.5000865995,,,2017_Jul_13_1614,60.003464245,MAFE4ImagesEEG,001,100884,
AFNE01.JPG,AFNE01.JPG,AFNE01.JPG,AFNE01.JPG,AFNE01.JPG,AFNE01.JPG,,,,,,,,,5,8,58,9,,,,,,,,,,,,,,,AMSA13.jpg,AMNE05.jpg,AMSA17.jpg,AMNE09.jpg,AMSA17.jpg,MS,2,num_2,16,num_2,1.41675246437,,,2017_Jul_13_1614,60.003464245,MAFE4ImagesEEG,001,100884,
AFNE01.JPG,AFNE01.JPG,AFNE01.JPG,AFNE01.JPG,AFNE01.JPG,AFNE01.JPG,,,,,,,,,5,9,59,0,,,,,,,,,,,,,,,AMNE05.jpg,AMNE07.jpg,AMSA20.jpg,AMSA10.jpg,AMNE05.jpg,MN,1,num_8,16,num_8,2.44998874189,,,2017_Jul_13_1614,60.003464245,MAFE4ImagesEEG,001,100884,
,,,,,,,,,,,,,,,,,,,,,,,,,,,,,,,,,,,,,,,,,,,space,50.7126115931,2017_Jul_13_1614,60.003464245,MAFE4ImagesEEG,001,100884,
AFNE01.JPG,AFNE01.JPG,AFNE01.JPG,AFNE01.JPG,AFNE01.JPG,AFNE01.JPG,,,,,,,,,,,,,0,0,0,0,,,,,,,,,,,AFSA01.jpg,AFNE15.jpg,AFNE20.jpg,AFSA14.jpg,AFNE20.jpg,FN,3,num_2,32,num_8,1.3000855092,,,2017_Jul_13_1614,60.003464245,MAFE4ImagesEEG,001,100884,
AFNE01.JPG,AFNE01.JPG,AFNE01.JPG,AFNE01.JPG,AFNE01.JPG,AFNE01.JPG,,,,,,,,,,,,,0,1,1,5,,,,,,,,,,,AFSA04.jpg,AFNE02.jpg,AFSA16.jpg,AFNE07.jpg,AFNE02.jpg,FN,3,num_6,32,num_2,0.833465477917,,,2017_Jul_13_1614,60.003464245,MAFE4ImagesEEG,001,100884,
AFNE01.JPG,AFNE01.JPG,AFNE01.JPG,AFNE01.JPG,AFNE01.JPG,AFNE01.JPG,,,,,,,,,,,,,0,2,2,3,,,,,,,,,,,AFNE16.jpg,AFSA05.jpg,AFNE05.jpg,AFSA12.jpg,AFSA12.jpg,FS,4,num_4,16,num_4,0.750161492033,,,2017_Jul_13_1614,60.003464245,MAFE4ImagesEEG,001,100884,
AFNE01.JPG,AFNE01.JPG,AFNE01.JPG,AFNE01.JPG,AFNE01.JPG,AFNE01.JPG,,,,,,,,,,,,,0,3,3,9,,,,,,,,,,,AFNE08.jpg,AFNE15.jpg,AFSA07.jpg,AFSA17.jpg,AFSA07.jpg,FS,4,num_2,16,num_2,0.666794000193,,,2017_Jul_13_1614,60.003464245,MAFE4ImagesEEG,001,100884,
AFNE01.JPG,AFNE01.JPG,AFNE01.JPG,AFNE01.JPG,AFNE01.JPG,AFNE01.JPG,,,,,,,,,,,,,0,4,4,1,,,,,,,,,,,AFNE01.jpg,AFNE10.jpg,AFSA13.jpg,AFSA08.jpg,AFNE10.jpg,FN,3,num_6,16,num_6,1.26673568971,,,2017_Jul_13_1614,60.003464245,MAFE4ImagesEEG,001,100884,
AFNE01.JPG,AFNE01.JPG,AFNE01.JPG,AFNE01.JPG,AFNE01.JPG,AFNE01.JPG,,,,,,,,,,,,,0,5,5,7,,,,,,,,,,,AFSA02.jpg,AFNE18.jpg,AFNE08.jpg,AFSA07.jpg,AFSA07.jpg,FS,4,num_4,16,num_4,1.56674005184,,,2017_Jul_13_1614,60.003464245,MAFE4ImagesEEG,001,100884,
AFNE01.JPG,AFNE01.JPG,AFNE01.JPG,AFNE01.JPG,AFNE01.JPG,AFNE01.JPG,,,,,,,,,,,,,0,6,6,4,,,,,,,,,,,AFNE18.jpg,AFNE03.jpg,AFSA05.jpg,AFSA19.jpg,AFSA19.jpg,FS,4,num_4,16,num_4,1.06683851872,,,2017_Jul_13_1614,60.003464245,MAFE4ImagesEEG,001,100884,
AFNE01.JPG,AFNE01.JPG,AFNE01.JPG,AFNE01.JPG,AFNE01.JPG,AFNE01.JPG,,,,,,,,,,,,,0,7,7,2,,,,,,,,,,,AFNE15.jpg,AFNE09.jpg,AFSA20.jpg,AFSA14.jpg,AFSA14.jpg,FS,4,num_4,32,num_2,1.51675766031,,,2017_Jul_13_1614,60.003464245,MAFE4ImagesEEG,001,100884,
AFNE01.JPG,AFNE01.JPG,AFNE01.JPG,AFNE01.JPG,AFNE01.JPG,AFNE01.JPG,,,,,,,,,,,,,0,8,8,6,,,,,,,,,,,AFSA09.jpg,AFNE13.jpg,AFSA12.jpg,AFNE18.jpg,AFNE13.jpg,FN,3,num_6,32,num_4,1.58339250972,,,2017_Jul_13_1614,60.003464245,MAFE4ImagesEEG,001,100884,
AFNE01.JPG,AFNE01.JPG,AFNE01.JPG,AFNE01.JPG,AFNE01.JPG,AFNE01.JPG,,,,,,,,,,,,,0,9,9,8,,,,,,,,,,,AFSA16.jpg,AFNE20.jpg,AFNE03.jpg,AFSA17.jpg,AFSA17.jpg,FS,4,num_4,16,num_4,1.28344139038,,,2017_Jul_13_1614,60.003464245,MAFE4ImagesEEG,001,100884,
AFNE01.JPG,AFNE01.JPG,AFNE01.JPG,AFNE01.JPG,AFNE01.JPG,AFNE01.JPG,,,,,,,,,,,,,1,0,10,7,,,,,,,,,,,AFSA19.jpg,AFSA02.jpg,AFNE09.jpg,AFNE20.jpg,AFNE20.jpg,FN,3,num_4,16,num_4,1.3164473772,,,2017_Jul_13_1614,60.003464245,MAFE4ImagesEEG,001,100884,
AFNE01.JPG,AFNE01.JPG,AFNE01.JPG,AFNE01.JPG,AFNE01.JPG,AFNE01.JPG,,,,,,,,,,,,,1,1,11,1,,,,,,,,,,,AFSA04.jpg,AFSA03.jpg,AFNE17.jpg,AFNE11.jpg,AFSA04.jpg,FS,4,num_8,32,num_4,0.866840314819,,,2017_Jul_13_1614,60.003464245,MAFE4ImagesEEG,001,100884,
AFNE01.JPG,AFNE01.JPG,AFNE01.JPG,AFNE01.JPG,AFNE01.JPG,AFNE01.JPG,,,,,,,,,,,,,1,2,12,0,,,,,,,,,,,AFSA02.jpg,AFNE12.jpg,AFNE19.jpg,AFSA05.jpg,AFSA02.jpg,FS,4,num_8,32,num_4,1.73338811565,,,2017_Jul_13_1614,60.003464245,MAFE4ImagesEEG,001,100884,
AFNE01.JPG,AFNE01.JPG,AFNE01.JPG,AFNE01.JPG,AFNE01.JPG,AFNE01.JPG,,,,,,,,,,,,,1,3,13,4,,,,,,,,,,,AFNE04.jpg,AFSA19.jpg,AFNE13.jpg,AFSA07.jpg,AFNE13.jpg,FN,3,num_2,32,num_4,1.00012957864,,,2017_Jul_13_1614,60.003464245,MAFE4ImagesEEG,001,100884,
AFNE01.JPG,AFNE01.JPG,AFNE01.JPG,AFNE01.JPG,AFNE01.JPG,AFNE01.JPG,,,,,,,,,,,,,1,4,14,6,,,,,,,,,,,AFSA03.jpg,AFNE17.jpg,AFNE14.jpg,AFSA15.jpg,AFSA15.jpg,FS,4,num_4,16,num_4,0.96662933263,,,2017_Jul_13_1614,60.003464245,MAFE4ImagesEEG,001,100884,
AFNE01.JPG,AFNE01.JPG,AFNE01.JPG,AFNE01.JPG,AFNE01.JPG,AFNE01.JPG,,,,,,,,,,,,,1,5,15,2,,,,,,,,,,,AFNE18.jpg,AFSA19.jpg,AFNE09.jpg,AFSA17.jpg,AFNE09.jpg,FN,3,num_2,16,num_2,1.50008435454,,,2017_Jul_13_1614,60.003464245,MAFE4ImagesEEG,001,100884,
AFNE01.JPG,AFNE01.JPG,AFNE01.JPG,AFNE01.JPG,AFNE01.JPG,AFNE01.JPG,,,,,,,,,,,,,1,6,16,5,,,,,,,,,,,AFNE03.jpg,AFNE06.jpg,AFSA04.jpg,AFSA10.jpg,AFSA10.jpg,FS,4,num_4,16,num_4,1.16673626704,,,2017_Jul_13_1614,60.003464245,MAFE4ImagesEEG,001,100884,
AFNE01.JPG,AFNE01.JPG,AFNE01.JPG,AFNE01.JPG,AFNE01.JPG,AFNE01.JPG,,,,,,,,,,,,,1,7,17,9,,,,,,,,,,,AFNE15.jpg,AFSA07.jpg,AFNE11.jpg,AFSA03.jpg,AFNE15.jpg,FN,3,num_8,16,num_8,2.2166727928,,,2017_Jul_13_1614,60.003464245,MAFE4ImagesEEG,001,100884,
AFNE01.JPG,AFNE01.JPG,AFNE01.JPG,AFNE01.JPG,AFNE01.JPG,AFNE01.JPG,,,,,,,,,,,,,1,8,18,3,,,,,,,,,,,AFSA05.jpg,AFNE12.jpg,AFNE20.jpg,AFSA02.jpg,AFNE12.jpg,FN,3,num_6,16,num_6,1.30011245119,,,2017_Jul_13_1614,60.003464245,MAFE4ImagesEEG,001,100884,
AFNE01.JPG,AFNE01.JPG,AFNE01.JPG,AFNE01.JPG,AFNE01.JPG,AFNE01.JPG,,,,,,,,,,,,,1,9,19,8,,,,,,,,,,,AFNE03.jpg,AFNE11.jpg,AFSA07.jpg,AFSA19.jpg,AFSA07.jpg,FS,4,num_2,16,num_2,1.21661377698,,,2017_Jul_13_1614,60.003464245,MAFE4ImagesEEG,001,100884,
AFNE01.JPG,AFNE01.JPG,AFNE01.JPG,AFNE01.JPG,AFNE01.JPG,AFNE01.JPG,,,,,,,,,,,,,2,0,20,4,,,,,,,,,,,AFSA07.jpg,AFNE12.jpg,AFNE04.jpg,AFSA05.jpg,AFNE12.jpg,FN,3,num_6,32,num_8,1.46672715805,,,2017_Jul_13_1614,60.003464245,MAFE4ImagesEEG,001,100884,
AFNE01.JPG,AFNE01.JPG,AFNE01.JPG,AFNE01.JPG,AFNE01.JPG,AFNE01.JPG,,,,,,,,,,,,,2,1,21,8,,,,,,,,,,,AFNE04.jpg,AFNE02.jpg,AFSA05.jpg,AFSA11.jpg,AFNE02.jpg,FN,3,num_6,16,num_6,1.0501090833,,,2017_Jul_13_1614,60.003464245,MAFE4ImagesEEG,001,100884,
AFNE01.JPG,AFNE01.JPG,AFNE01.JPG,AFNE01.JPG,AFNE01.JPG,AFNE01.JPG,,,,,,,,,,,,,2,2,22,1,,,,,,,,,,,AFSA18.jpg,AFNE17.jpg,AFSA13.jpg,AFNE06.jpg,AFSA18.jpg,FS,4,num_8,32,num_2,1.43341967626,,,2017_Jul_13_1614,60.003464245,MAFE4ImagesEEG,001,100884,
AFNE01.JPG,AFNE01.JPG,AFNE01.JPG,AFNE01.JPG,AFNE01.JPG,AFNE01.JPG,,,,,,,,,,,,,2,3,23,5,,,,,,,,,,,AFNE18.jpg,AFSA20.jpg,AFSA14.jpg,AFNE10.jpg,AFNE18.jpg,FN,3,num_8,32,num_4,1.06703160377,,,2017_Jul_13_1614,60.003464245,MAFE4ImagesEEG,001,100884,
AFNE01.JPG,AFNE01.JPG,AFNE01.JPG,AFNE01.JPG,AFNE01.JPG,AFNE01.JPG,,,,,,,,,,,,,2,4,24,6,,,,,,,,,,,AFNE06.jpg,AFNE08.jpg,AFSA14.jpg,AFSA04.jpg,AFNE08.jpg,FN,3,num_6,16,num_6,1.26674916083,,,2017_Jul_13_1614,60.003464245,MAFE4ImagesEEG,001,100884,
AFNE01.JPG,AFNE01.JPG,AFNE01.JPG,AFNE01.JPG,AFNE01.JPG,AFNE01.JPG,,,,,,,,,,,,,2,5,25,2,,,,,,,,,,,AFSA04.jpg,AFNE01.jpg,AFSA19.jpg,AFNE04.jpg,AFSA04.jpg,FS,4,num_8,16,num_8,1.03344828612,,,2017_Jul_13_1614,60.003464245,MAFE4ImagesEEG,001,100884,
AFNE01.JPG,AFNE01.JPG,AFNE01.JPG,AFNE01.JPG,AFNE01.JPG,AFNE01.JPG,,,,,,,,,,,,,2,6,26,9,,,,,,,,,,,AFNE16.jpg,AFSA11.jpg,AFSA16.jpg,AFNE07.jpg,AFSA11.jpg,FS,4,num_6,16,num_6,1.35011152108,,,2017_Jul_13_1614,60.003464245,MAFE4ImagesEEG,001,100884,
AFNE01.JPG,AFNE01.JPG,AFNE01.JPG,AFNE01.JPG,AFNE01.JPG,AFNE01.JPG,,,,,,,,,,,,,2,7,27,7,,,,,,,,,,,AFNE17.jpg,AFNE19.jpg,AFSA01.jpg,AFSA12.jpg,AFNE17.jpg,FN,3,num_8,32,num_2,1.26673697284,,,2017_Jul_13_1614,60.003464245,MAFE4ImagesEEG,001,100884,
AFNE01.JPG,AFNE01.JPG,AFNE01.JPG,AFNE01.JPG,AFNE01.JPG,AFNE01.JPG,,,,,,,,,,,,,2,8,28,3,,,,,,,,,,,AFSA17.jpg,AFNE11.jpg,AFSA08.jpg,AFNE19.jpg,AFNE19.jpg,FN,3,num_4,32,num_2,1.28347346419,,,2017_Jul_13_1614,60.003464245,MAFE4ImagesEEG,001,100884,
AFNE01.JPG,AFNE01.JPG,AFNE01.JPG,AFNE01.JPG,AFNE01.JPG,AFNE01.JPG,,,,,,,,,,,,,2,9,29,0,,,,,,,,,,,AFNE19.jpg,AFSA15.jpg,AFNE03.jpg,AFSA10.jpg,AFSA10.jpg,FS,4,num_4,16,num_4,1.16674268176,,,2017_Jul_13_1614,60.003464245,MAFE4ImagesEEG,001,100884,
AFNE01.JPG,AFNE01.JPG,AFNE01.JPG,AFNE01.JPG,AFNE01.JPG,AFNE01.JPG,,,,,,,,,,,,,3,0,30,3,,,,,,,,,,,AFSA10.jpg,AFSA20.jpg,AFNE04.jpg,AFNE15.jpg,AFSA20.jpg,FS,4,num_6,32,num_2,1.05012961058,,,2017_Jul_13_1614,60.003464245,MAFE4ImagesEEG,001,100884,
AFNE01.JPG,AFNE01.JPG,AFNE01.JPG,AFNE01.JPG,AFNE01.JPG,AFNE01.JPG,,,,,,,,,,,,,3,1,31,0,,,,,,,,,,,AFNE02.jpg,AFSA12.jpg,AFSA19.jpg,AFNE03.jpg,AFSA19.jpg,FS,4,num_2,32,num_8,1.23341601994,,,2017_Jul_13_1614,60.003464245,MAFE4ImagesEEG,001,100884,
AFNE01.JPG,AFNE01.JPG,AFNE01.JPG,AFNE01.JPG,AFNE01.JPG,AFNE01.JPG,,,,,,,,,,,,,3,2,32,8,,,,,,,,,,,AFSA10.jpg,AFSA15.jpg,AFNE10.jpg,AFNE19.jpg,AFSA10.jpg,FS,4,num_8,32,num_6,1.33345296909,,,2017_Jul_13_1614,60.003464245,MAFE4ImagesEEG,001,100884,
AFNE01.JPG,AFNE01.JPG,AFNE01.JPG,AFNE01.JPG,AFNE01.JPG,AFNE01.JPG,,,,,,,,,,,,,3,3,33,5,,,,,,,,,,,AFNE08.jpg,AFNE18.jpg,AFSA04.jpg,AFSA14.jpg,AFSA14.jpg,FS,4,num_4,32,num_2,1.30042902078,,,2017_Jul_13_1614,60.003464245,MAFE4ImagesEEG,001,100884,
AFNE01.JPG,AFNE01.JPG,AFNE01.JPG,AFNE01.JPG,AFNE01.JPG,AFNE01.JPG,,,,,,,,,,,,,3,4,34,2,,,,,,,,,,,AFSA09.jpg,AFSA05.jpg,AFNE07.jpg,AFNE20.jpg,AFSA05.jpg,FS,4,num_6,16,num_6,1.66671285289,,,2017_Jul_13_1614,60.003464245,MAFE4ImagesEEG,001,100884,
AFNE01.JPG,AFNE01.JPG,AFNE01.JPG,AFNE01.JPG,AFNE01.JPG,AFNE01.JPG,,,,,,,,,,,,,3,5,35,4,,,,,,,,,,,AFSA17.jpg,AFSA13.jpg,AFNE06.jpg,AFNE10.jpg,AFNE06.jpg,FN,3,num_2,16,num_2,1.75006494974,,,2017_Jul_13_1614,60.003464245,MAFE4ImagesEEG,001,100884,
AFNE01.JPG,AFNE01.JPG,AFNE01.JPG,AFNE01.JPG,AFNE01.JPG,AFNE01.JPG,,,,,,,,,,,,,3,6,36,7,,,,,,,,,,,AFSA12.jpg,AFNE17.jpg,AFNE11.jpg,AFSA02.jpg,AFSA02.jpg,FS,4,num_4,32,num_8,1.50003848877,,,2017_Jul_13_1614,60.003464245,MAFE4ImagesEEG,001,100884,
AFNE01.JPG,AFNE01.JPG,AFNE01.JPG,AFNE01.JPG,AFNE01.JPG,AFNE01.JPG,,,,,,,,,,,,,3,7,37,6,,,,,,,,,,,AFNE16.jpg,AFSA17.jpg,AFSA03.jpg,AFNE14.jpg,AFSA03.jpg,FS,4,num_2,16,num_2,1.15012422227,,,2017_Jul_13_1614,60.003464245,MAFE4ImagesEEG,001,100884,
AFNE01.JPG,AFNE01.JPG,AFNE01.JPG,AFNE01.JPG,AFNE01.JPG,AFNE01.JPG,,,,,,,,,,,,,3,8,38,1,,,,,,,,,,,AFSA08.jpg,AFNE02.jpg,AFSA11.jpg,AFNE17.jpg,AFNE17.jpg,FN,3,num_4,32,num_8,1.08342939476,,,2017_Jul_13_1614,60.003464245,MAFE4ImagesEEG,001,100884,
AFNE01.JPG,AFNE01.JPG,AFNE01.JPG,AFNE01.JPG,AFNE01.JPG,AFNE01.JPG,,,,,,,,,,,,,3,9,39,9,,,,,,,,,,,AFNE01.jpg,AFSA09.jpg,AFNE09.jpg,AFSA01.jpg,AFNE01.jpg,FN,3,num_8,32,num_2,1.41671429644,,,2017_Jul_13_1614,60.003464245,MAFE4ImagesEEG,001,100884,
AFNE01.JPG,AFNE01.JPG,AFNE01.JPG,AFNE01.JPG,AFNE01.JPG,AFNE01.JPG,,,,,,,,,,,,,4,0,40,6,,,,,,,,,,,AFNE11.jpg,AFSA05.jpg,AFNE09.jpg,AFSA10.jpg,AFSA10.jpg,FS,4,num_4,32,num_2,3.09995548124,,,2017_Jul_13_1614,60.003464245,MAFE4ImagesEEG,001,100884,
AFNE01.JPG,AFNE01.JPG,AFNE01.JPG,AFNE01.JPG,AFNE01.JPG,AFNE01.JPG,,,,,,,,,,,,,4,1,41,1,,,,,,,,,,,AFSA09.jpg,AFNE05.jpg,AFSA16.jpg,AFNE11.jpg,AFSA16.jpg,FS,4,num_2,32,num_6,1.20009987801,,,2017_Jul_13_1614,60.003464245,MAFE4ImagesEEG,001,100884,
AFNE01.JPG,AFNE01.JPG,AFNE01.JPG,AFNE01.JPG,AFNE01.JPG,AFNE01.JPG,,,,,,,,,,,,,4,2,42,0,,,,,,,,,,,AFNE07.jpg,AFSA04.jpg,AFSA18.jpg,AFNE03.jpg,AFNE03.jpg,FN,3,num_4,32,num_8,0.966798362089,,,2017_Jul_13_1614,60.003464245,MAFE4ImagesEEG,001,100884,
AFNE01.JPG,AFNE01.JPG,AFNE01.JPG,AFNE01.JPG,AFNE01.JPG,AFNE01.JPG,,,,,,,,,,,,,4,3,43,9,,,,,,,,,,,AFSA20.jpg,AFNE08.jpg,AFNE13.jpg,AFSA03.jpg,AFSA03.jpg,FS,4,num_4,32,num_2,1.60012579383,,,2017_Jul_13_1614,60.003464245,MAFE4ImagesEEG,001,100884,
AFNE01.JPG,AFNE01.JPG,AFNE01.JPG,AFNE01.JPG,AFNE01.JPG,AFNE01.JPG,,,,,,,,,,,,,4,4,44,8,,,,,,,,,,,AFNE14.jpg,AFSA14.jpg,AFSA07.jpg,AFNE17.jpg,AFSA07.jpg,FS,4,num_2,32,num_6,0.816764909076,,,2017_Jul_13_1614,60.003464245,MAFE4ImagesEEG,001,100884,
AFNE01.JPG,AFNE01.JPG,AFNE01.JPG,AFNE01.JPG,AFNE01.JPG,AFNE01.JPG,,,,,,,,,,,,,4,5,45,3,,,,,,,,,,,AFSA03.jpg,AFNE20.jpg,AFSA13.jpg,AFNE19.jpg,AFNE20.jpg,FN,3,num_6,32,num_8,0.833448157879,,,2017_Jul_13_1614,60.003464245,MAFE4ImagesEEG,001,100884,
AFNE01.JPG,AFNE01.JPG,AFNE01.JPG,AFNE01.JPG,AFNE01.JPG,AFNE01.JPG,,,,,,,,,,,,,4,6,46,5,,,,,,,,,,,AFNE16.jpg,AFSA12.jpg,AFSA06.jpg,AFNE08.jpg,AFSA12.jpg,FS,4,num_6,16,num_6,0.816779021639,,,2017_Jul_13_1614,60.003464245,MAFE4ImagesEEG,001,100884,
AFNE01.JPG,AFNE01.JPG,AFNE01.JPG,AFNE01.JPG,AFNE01.JPG,AFNE01.JPG,,,,,,,,,,,,,4,7,47,7,,,,,,,,,,,AFSA18.jpg,AFNE17.jpg,AFNE02.jpg,AFSA11.jpg,AFSA11.jpg,FS,4,num_4,16,num_4,1.15015148511,,,2017_Jul_13_1614,60.003464245,MAFE4ImagesEEG,001,100884,
AFNE01.JPG,AFNE01.JPG,AFNE01.JPG,AFNE01.JPG,AFNE01.JPG,AFNE01.JPG,,,,,,,,,,,,,4,8,48,2,,,,,,,,,,,AFSA02.jpg,AFSA09.jpg,AFNE06.jpg,AFNE10.jpg,AFNE06.jpg,FN,3,num_2,32,num_8,0.68349745567,,,2017_Jul_13_1614,60.003464245,MAFE4ImagesEEG,001,100884,
AFNE01.JPG,AFNE01.JPG,AFNE01.JPG,AFNE01.JPG,AFNE01.JPG,AFNE01.JPG,,,,,,,,,,,,,4,9,49,4,,,,,,,,,,,AFNE07.jpg,AFSA01.jpg,AFNE13.jpg,AFSA04.jpg,AFNE07.jpg,FN,3,num_8,32,num_2,1.73337753117,,,2017_Jul_13_1614,60.003464245,MAFE4ImagesEEG,001,100884,
AFNE01.JPG,AFNE01.JPG,AFNE01.JPG,AFNE01.JPG,AFNE01.JPG,AFNE01.JPG,,,,,,,,,,,,,5,0,50,4,,,,,,,,,,,AFSA07.jpg,AFNE04.jpg,AFNE05.jpg,AFSA20.jpg,AFSA20.jpg,FS,4,num_4,16,num_4,1.00015876605,,,2017_Jul_13_1614,60.003464245,MAFE4ImagesEEG,001,100884,
AFNE01.JPG,AFNE01.JPG,AFNE01.JPG,AFNE01.JPG,AFNE01.JPG,AFNE01.JPG,,,,,,,,,,,,,5,1,51,2,,,,,,,,,,,AFSA05.jpg,AFNE16.jpg,AFSA17.jpg,AFNE03.jpg,AFSA17.jpg,FS,4,num_2,32,num_4,0.916754388716,,,2017_Jul_13_1614,60.003464245,MAFE4ImagesEEG,001,100884,
AFNE01.JPG,AFNE01.JPG,AFNE01.JPG,AFNE01.JPG,AFNE01.JPG,AFNE01.JPG,,,,,,,,,,,,,5,2,52,1,,,,,,,,,,,AFSA13.jpg,AFSA20.jpg,AFNE13.jpg,AFNE16.jpg,AFNE13.jpg,FN,3,num_2,32,num_6,0.816611595685,,,2017_Jul_13_1614,60.003464245,MAFE4ImagesEEG,001,100884,
AFNE01.JPG,AFNE01.JPG,AFNE01.JPG,AFNE01.JPG,AFNE01.JPG,AFNE01.JPG,,,,,,,,,,,,,5,3,53,7,,,,,,,,,,,AFNE08.jpg,AFSA17.jpg,AFNE09.jpg,AFSA03.jpg,AFSA03.jpg,FS,4,num_4,32,num_8,0.700174610363,,,2017_Jul_13_1614,60.003464245,MAFE4ImagesEEG,001,100884,
AFNE01.JPG,AFNE01.JPG,AFNE01.JPG,AFNE01.JPG,AFNE01.JPG,AFNE01.JPG,,,,,,,,,,,,,5,4,54,6,,,,,,,,,,,AFNE02.jpg,AFSA11.jpg,AFSA12.jpg,AFNE18.jpg,AFNE02.jpg,FN,3,num_8,16,num_8,0.633497744333,,,2017_Jul_13_1614,60.003464245,MAFE4ImagesEEG,001,100884,
AFNE01.JPG,AFNE01.JPG,AFNE01.JPG,AFNE01.JPG,AFNE01.JPG,AFNE01.JPG,,,,,,,,,,,,,5,5,55,0,,,,,,,,,,,AFSA09.jpg,AFSA05.jpg,AFNE05.jpg,AFNE12.jpg,AFSA05.jpg,FS,4,num_6,16,num_6,0.766809780616,,,2017_Jul_13_1614,60.003464245,MAFE4ImagesEEG,001,100884,
AFNE01.JPG,AFNE01.JPG,AFNE01.JPG,AFNE01.JPG,AFNE01.JPG,AFNE01.JPG,,,,,,,,,,,,,5,6,56,8,,,,,,,,,,,AFNE08.jpg,AFSA09.jpg,AFSA15.jpg,AFNE04.jpg,AFNE08.jpg,FN,3,num_8,32,num_2,0.950128905009,,,2017_Jul_13_1614,60.003464245,MAFE4ImagesEEG,001,100884,
AFNE01.JPG,AFNE01.JPG,AFNE01.JPG,AFNE01.JPG,AFNE01.JPG,AFNE01.JPG,,,,,,,,,,,,,5,7,57,9,,,,,,,,,,,AFSA16.jpg,AFSA03.jpg,AFNE08.jpg,AFNE05.jpg,AFSA03.jpg,FS,4,num_6,16,num_6,0.933501144173,,,2017_Jul_13_1614,60.003464245,MAFE4ImagesEEG,001,100884,
AFNE01.JPG,AFNE01.JPG,AFNE01.JPG,AFNE01.JPG,AFNE01.JPG,AFNE01.JPG,,,,,,,,,,,,,5,8,58,3,,,,,,,,,,,AFSA12.jpg,AFNE01.jpg,AFSA03.jpg,AFNE02.jpg,AFSA12.jpg,FS,4,num_8,16,num_8,0.533478435595,,,2017_Jul_13_1614,60.003464245,MAFE4ImagesEEG,001,100884,
AFNE01.JPG,AFNE01.JPG,AFNE01.JPG,AFNE01.JPG,AFNE01.JPG,AFNE01.JPG,,,,,,,,,,,,,5,9,59,5,,,,,,,,,,,AFNE08.jpg,AFSA05.jpg,AFNE07.jpg,AFSA18.jpg,AFSA18.jpg,FS,4,num_4,16,num_4,1.2834282401,,,2017_Jul_13_1614,60.003464245,MAFE4ImagesEEG,001,100884,
,,,,,,,,,,,,,,,,,,,,,,,,,,,,,,,,,,,,,,,,,,,space,61.0119805709,2017_Jul_13_1614,60.003464245,MAFE4ImagesEEG,001,100884,
AFNE01.JPG,AFNE01.JPG,AFNE01.JPG,AFNE01.JPG,AFNE01.JPG,AFNE01.JPG,,,,,,,,,,,,,,,,,0,0,0,7,,,,,,,AMSA18.jpg,AMNE17.jpg,AMSA16.jpg,AMNE08.jpg,AMSA16.jpg,MS,2,num_2,16,num_2,0.550184136257,,,2017_Jul_13_1614,60.003464245,MAFE4ImagesEEG,001,100884,
AFNE01.JPG,AFNE01.JPG,AFNE01.JPG,AFNE01.JPG,AFNE01.JPG,AFNE01.JPG,,,,,,,,,,,,,,,,,0,1,1,4,,,,,,,AMSA14.jpg,AMSA16.jpg,AMNE04.jpg,AMNE10.jpg,AMSA16.jpg,MS,2,num_6,32,num_2,0.583458581939,,,2017_Jul_13_1614,60.003464245,MAFE4ImagesEEG,001,100884,
AFNE01.JPG,AFNE01.JPG,AFNE01.JPG,AFNE01.JPG,AFNE01.JPG,AFNE01.JPG,,,,,,,,,,,,,,,,,0,2,2,0,,,,,,,AMNE01.jpg,AMNE14.jpg,AMSA07.jpg,AMSA10.jpg,AMNE01.jpg,MN,1,num_8,32,num_4,0.766804969404,,,2017_Jul_13_1614,60.003464245,MAFE4ImagesEEG,001,100884,
AFNE01.JPG,AFNE01.JPG,AFNE01.JPG,AFNE01.JPG,AFNE01.JPG,AFNE01.JPG,,,,,,,,,,,,,,,,,0,3,3,3,,,,,,,AMSA11.jpg,AMNE05.jpg,AMSA09.jpg,AMNE20.jpg,AMNE20.jpg,MN,1,num_4,16,num_4,1.06680195429,,,2017_Jul_13_1614,60.003464245,MAFE4ImagesEEG,001,100884,
AFNE01.JPG,AFNE01.JPG,AFNE01.JPG,AFNE01.JPG,AFNE01.JPG,AFNE01.JPG,,,,,,,,,,,,,,,,,0,4,4,2,,,,,,,AMSA17.jpg,AMNE08.jpg,AMSA09.jpg,AMNE20.jpg,AMSA09.jpg,MS,2,num_2,32,num_6,2.9500018924,,,2017_Jul_13_1614,60.003464245,MAFE4ImagesEEG,001,100884,
AFNE01.JPG,AFNE01.JPG,AFNE01.JPG,AFNE01.JPG,AFNE01.JPG,AFNE01.JPG,,,,,,,,,,,,,,,,,0,5,5,8,,,,,,,AMSA11.jpg,AMNE05.jpg,AMSA03.jpg,AMNE11.jpg,AMSA03.jpg,MS,2,num_2,16,num_2,0.766782517545,,,2017_Jul_13_1614,60.003464245,MAFE4ImagesEEG,001,100884,
AFNE01.JPG,AFNE01.JPG,AFNE01.JPG,AFNE01.JPG,AFNE01.JPG,AFNE01.JPG,,,,,,,,,,,,,,,,,0,6,6,6,,,,,,,AMSA09.jpg,AMNE03.jpg,AMSA01.jpg,AMNE09.jpg,AMNE09.jpg,MN,1,num_4,16,num_4,0.516797431977,,,2017_Jul_13_1614,60.003464245,MAFE4ImagesEEG,001,100884,
AFNE01.JPG,AFNE01.JPG,AFNE01.JPG,AFNE01.JPG,AFNE01.JPG,AFNE01.JPG,,,,,,,,,,,,,,,,,0,7,7,5,,,,,,,AMSA09.jpg,AMNE03.jpg,AMSA13.jpg,AMNE01.jpg,AMNE01.jpg,MN,1,num_4,16,num_4,0.800021361094,,,2017_Jul_13_1614,60.003464245,MAFE4ImagesEEG,001,100884,
AFNE01.JPG,AFNE01.JPG,AFNE01.JPG,AFNE01.JPG,AFNE01.JPG,AFNE01.JPG,,,,,,,,,,,,,,,,,0,8,8,1,,,,,,,AMNE07.jpg,AMSA13.jpg,AMSA14.jpg,AMNE06.jpg,AMSA14.jpg,MS,2,num_2,16,num_2,1.55008438649,,,2017_Jul_13_1614,60.003464245,MAFE4ImagesEEG,001,100884,
AFNE01.JPG,AFNE01.JPG,AFNE01.JPG,AFNE01.JPG,AFNE01.JPG,AFNE01.JPG,,,,,,,,,,,,,,,,,0,9,9,9,,,,,,,AMNE04.jpg,AMNE13.jpg,AMSA01.jpg,AMSA04.jpg,AMSA04.jpg,MS,2,num_4,16,num_4,0.683474362362,,,2017_Jul_13_1614,60.003464245,MAFE4ImagesEEG,001,100884,
AFNE01.JPG,AFNE01.JPG,AFNE01.JPG,AFNE01.JPG,AFNE01.JPG,AFNE01.JPG,,,,,,,,,,,,,,,,,1,0,10,1,,,,,,,AMNE03.jpg,AMNE10.jpg,AMSA09.jpg,AMSA18.jpg,AMSA18.jpg,MS,2,num_4,16,num_4,0.683492965298,,,2017_Jul_13_1614,60.003464245,MAFE4ImagesEEG,001,100884,
AFNE01.JPG,AFNE01.JPG,AFNE01.JPG,AFNE01.JPG,AFNE01.JPG,AFNE01.JPG,,,,,,,,,,,,,,,,,1,1,11,9,,,,,,,AMNE06.jpg,AMSA02.jpg,AMSA15.jpg,AMNE07.jpg,AMSA02.jpg,MS,2,num_6,32,num_2,0.866759809433,,,2017_Jul_13_1614,60.003464245,MAFE4ImagesEEG,001,100884,
AFNE01.JPG,AFNE01.JPG,AFNE01.JPG,AFNE01.JPG,AFNE01.JPG,AFNE01.JPG,,,,,,,,,,,,,,,,,1,2,12,2,,,,,,,AMNE06.jpg,AMSA04.jpg,AMSA05.jpg,AMNE05.jpg,AMNE05.jpg,MN,1,num_4,16,num_4,0.900122778956,,,2017_Jul_13_1614,60.003464245,MAFE4ImagesEEG,001,100884,
AFNE01.JPG,AFNE01.JPG,AFNE01.JPG,AFNE01.JPG,AFNE01.JPG,AFNE01.JPG,,,,,,,,,,,,,,,,,1,3,13,8,,,,,,,AMSA08.jpg,AMNE04.jpg,AMNE15.jpg,AMSA07.jpg,AMNE04.jpg,MN,1,num_6,16,num_6,1.13344321842,,,2017_Jul_13_1614,60.003464245,MAFE4ImagesEEG,001,100884,
AFNE01.JPG,AFNE01.JPG,AFNE01.JPG,AFNE01.JPG,AFNE01.JPG,AFNE01.JPG,,,,,,,,,,,,,,,,,1,4,14,3,,,,,,,AMSA05.jpg,AMNE06.jpg,AMSA19.jpg,AMNE07.jpg,AMNE07.jpg,MN,1,num_4,16,num_4,0.83351711696,,,2017_Jul_13_1614,60.003464245,MAFE4ImagesEEG,001,100884,
AFNE01.JPG,AFNE01.JPG,AFNE01.JPG,AFNE01.JPG,AFNE01.JPG,AFNE01.JPG,,,,,,,,,,,,,,,,,1,5,15,6,,,,,,,AMNE01.jpg,AMNE07.jpg,AMSA10.jpg,AMSA07.jpg,AMSA07.jpg,MS,2,num_4,16,num_4,0.583490976598,,,2017_Jul_13_1614,60.003464245,MAFE4ImagesEEG,001,100884,
AFNE01.JPG,AFNE01.JPG,AFNE01.JPG,AFNE01.JPG,AFNE01.JPG,AFNE01.JPG,,,,,,,,,,,,,,,,,1,6,16,7,,,,,,,AMNE11.jpg,AMNE06.jpg,AMSA20.jpg,AMSA15.jpg,AMSA15.jpg,MS,2,num_4,16,num_4,0.783408995718,,,2017_Jul_13_1614,60.003464245,MAFE4ImagesEEG,001,100884,
AFNE01.JPG,AFNE01.JPG,AFNE01.JPG,AFNE01.JPG,AFNE01.JPG,AFNE01.JPG,,,,,,,,,,,,,,,,,1,7,17,5,,,,,,,AMSA04.jpg,AMNE04.jpg,AMNE01.jpg,AMSA17.jpg,AMNE01.jpg,MN,1,num_2,32,num_8,0.833474779269,,,2017_Jul_13_1614,60.003464245,MAFE4ImagesEEG,001,100884,
AFNE01.JPG,AFNE01.JPG,AFNE01.JPG,AFNE01.JPG,AFNE01.JPG,AFNE01.JPG,,,,,,,,,,,,,,,,,1,8,18,0,,,,,,,AMSA01.jpg,AMSA18.jpg,AMNE14.jpg,AMNE08.jpg,AMSA18.jpg,MS,2,num_6,16,num_6,1.06679970934,,,2017_Jul_13_1614,60.003464245,MAFE4ImagesEEG,001,100884,
AFNE01.JPG,AFNE01.JPG,AFNE01.JPG,AFNE01.JPG,AFNE01.JPG,AFNE01.JPG,,,,,,,,,,,,,,,,,1,9,19,4,,,,,,,AMSA07.jpg,AMSA12.jpg,AMNE15.jpg,AMNE13.jpg,AMNE15.jpg,MN,1,num_2,16,num_2,0.58336396399,,,2017_Jul_13_1614,60.003464245,MAFE4ImagesEEG,001,100884,
AFNE01.JPG,AFNE01.JPG,AFNE01.JPG,AFNE01.JPG,AFNE01.JPG,AFNE01.JPG,,,,,,,,,,,,,,,,,2,0,20,2,,,,,,,AMSA09.jpg,AMSA15.jpg,AMNE01.jpg,AMNE20.jpg,AMSA15.jpg,MS,2,num_6,32,num_2,0.900123099564,,,2017_Jul_13_1614,60.003464245,MAFE4ImagesEEG,001,100884,
AFNE01.JPG,AFNE01.JPG,AFNE01.JPG,AFNE01.JPG,AFNE01.JPG,AFNE01.JPG,,,,,,,,,,,,,,,,,2,1,21,3,,,,,,,AMNE12.jpg,AMSA10.jpg,AMNE20.jpg,AMSA07.jpg,AMNE20.jpg,MN,1,num_2,32,num_6,1.0667807858,,,2017_Jul_13_1614,60.003464245,MAFE4ImagesEEG,001,100884,
AFNE01.JPG,AFNE01.JPG,AFNE01.JPG,AFNE01.JPG,AFNE01.JPG,AFNE01.JPG,,,,,,,,,,,,,,,,,2,2,22,7,,,,,,,AMNE16.jpg,AMSA20.jpg,AMSA03.jpg,AMNE19.jpg,AMNE16.jpg,MN,1,num_8,32,num_2,1.18345704232,,,2017_Jul_13_1614,60.003464245,MAFE4ImagesEEG,001,100884,
AFNE01.JPG,AFNE01.JPG,AFNE01.JPG,AFNE01.JPG,AFNE01.JPG,AFNE01.JPG,,,,,,,,,,,,,,,,,2,3,23,6,,,,,,,AMSA01.jpg,AMNE02.jpg,AMSA17.jpg,AMNE18.jpg,AMSA01.jpg,MS,2,num_8,16,num_8,0.516825336497,,,2017_Jul_13_1614,60.003464245,MAFE4ImagesEEG,001,100884,
AFNE01.JPG,AFNE01.JPG,AFNE01.JPG,AFNE01.JPG,AFNE01.JPG,AFNE01.JPG,,,,,,,,,,,,,,,,,2,4,24,5,,,,,,,AMNE13.jpg,AMNE17.jpg,AMSA13.jpg,AMSA14.jpg,AMNE13.jpg,MN,1,num_8,32,num_6,0.800122714834,,,2017_Jul_13_1614,60.003464245,MAFE4ImagesEEG,001,100884,
AFNE01.JPG,AFNE01.JPG,AFNE01.JPG,AFNE01.JPG,AFNE01.JPG,AFNE01.JPG,,,,,,,,,,,,,,,,,2,5,25,8,,,,,,,AMNE03.jpg,AMSA02.jpg,AMSA07.jpg,AMNE09.jpg,AMSA02.jpg,MS,2,num_6,32,num_8,0.950119603658,,,2017_Jul_13_1614,60.003464245,MAFE4ImagesEEG,001,100884,
AFNE01.JPG,AFNE01.JPG,AFNE01.JPG,AFNE01.JPG,AFNE01.JPG,AFNE01.JPG,,,,,,,,,,,,,,,,,2,6,26,1,,,,,,,AMSA06.jpg,AMNE19.jpg,AMNE08.jpg,AMSA14.jpg,AMNE08.jpg,MN,1,num_2,32,num_4,0.78374609258,,,2017_Jul_13_1614,60.003464245,MAFE4ImagesEEG,001,100884,
AFNE01.JPG,AFNE01.JPG,AFNE01.JPG,AFNE01.JPG,AFNE01.JPG,AFNE01.JPG,,,,,,,,,,,,,,,,,2,7,27,4,,,,,,,AMSA04.jpg,AMSA02.jpg,AMNE16.jpg,AMNE03.jpg,AMNE16.jpg,MN,1,num_2,32,num_6,0.33351583383,,,2017_Jul_13_1614,60.003464245,MAFE4ImagesEEG,001,100884,
AFNE01.JPG,AFNE01.JPG,AFNE01.JPG,AFNE01.JPG,AFNE01.JPG,AFNE01.JPG,,,,,,,,,,,,,,,,,2,8,28,9,,,,,,,AMSA06.jpg,AMSA08.jpg,AMNE03.jpg,AMNE20.jpg,AMNE03.jpg,MN,1,num_2,32,num_4,0.23348979,,,2017_Jul_13_1614,60.003464245,MAFE4ImagesEEG,001,100884,
AFNE01.JPG,AFNE01.JPG,AFNE01.JPG,AFNE01.JPG,AFNE01.JPG,AFNE01.JPG,,,,,,,,,,,,,,,,,2,9,29,0,,,,,,,AMSA10.jpg,AMNE04.jpg,AMNE16.jpg,AMSA18.jpg,AMSA10.jpg,MS,2,num_8,16,num_8,0.766790215392,,,2017_Jul_13_1614,60.003464245,MAFE4ImagesEEG,001,100884,
AFNE01.JPG,AFNE01.JPG,AFNE01.JPG,AFNE01.JPG,AFNE01.JPG,AFNE01.JPG,,,,,,,,,,,,,,,,,3,0,30,2,,,,,,,AMNE04.jpg,AMNE06.jpg,AMSA06.jpg,AMSA15.jpg,AMNE04.jpg,MN,1,num_8,16,num_8,0.683543962659,,,2017_Jul_13_1614,60.003464245,MAFE4ImagesEEG,001,100884,
AFNE01.JPG,AFNE01.JPG,AFNE01.JPG,AFNE01.JPG,AFNE01.JPG,AFNE01.JPG,,,,,,,,,,,,,,,,,3,1,31,4,,,,,,,AMSA12.jpg,AMNE20.jpg,AMNE18.jpg,AMSA19.jpg,AMSA12.jpg,MS,2,num_8,32,num_6,0.80014003464,,,2017_Jul_13_1614,60.003464245,MAFE4ImagesEEG,001,100884,
AFNE01.JPG,AFNE01.JPG,AFNE01.JPG,AFNE01.JPG,AFNE01.JPG,AFNE01.JPG,,,,,,,,,,,,,,,,,3,2,32,0,,,,,,,AMNE13.jpg,AMSA07.jpg,AMNE15.jpg,AMSA09.jpg,AMSA09.jpg,MS,2,num_4,32,num_2,0.600161075359,,,2017_Jul_13_1614,60.003464245,MAFE4ImagesEEG,001,100884,
AFNE01.JPG,AFNE01.JPG,AFNE01.JPG,AFNE01.JPG,AFNE01.JPG,AFNE01.JPG,,,,,,,,,,,,,,,,,3,3,33,9,,,,,,,AMSA09.jpg,AMNE18.jpg,AMNE09.jpg,AMSA07.jpg,AMSA07.jpg,MS,2,num_4,32,num_8,0.716787296813,,,2017_Jul_13_1614,60.003464245,MAFE4ImagesEEG,001,100884,
AFNE01.JPG,AFNE01.JPG,AFNE01.JPG,AFNE01.JPG,AFNE01.JPG,AFNE01.JPG,,,,,,,,,,,,,,,,,3,4,34,3,,,,,,,AMSA14.jpg,AMNE14.jpg,AMNE16.jpg,AMSA11.jpg,AMNE14.jpg,MN,1,num_6,16,num_6,2.4666450487,,,2017_Jul_13_1614,60.003464245,MAFE4ImagesEEG,001,100884,
AFNE01.JPG,AFNE01.JPG,AFNE01.JPG,AFNE01.JPG,AFNE01.JPG,AFNE01.JPG,,,,,,,,,,,,,,,,,3,5,35,1,,,,,,,AMNE05.jpg,AMNE18.jpg,AMSA17.jpg,AMSA07.jpg,AMNE05.jpg,MN,1,num_8,16,num_8,0.883418361424,,,2017_Jul_13_1614,60.003464245,MAFE4ImagesEEG,001,100884,
AFNE01.JPG,AFNE01.JPG,AFNE01.JPG,AFNE01.JPG,AFNE01.JPG,AFNE01.JPG,,,,,,,,,,,,,,,,,3,6,36,5,,,,,,,AMSA12.jpg,AMNE12.jpg,AMNE10.jpg,AMSA09.jpg,AMSA12.jpg,MS,2,num_8,32,num_2,0.583530106815,,,2017_Jul_13_1614,60.003464245,MAFE4ImagesEEG,001,100884,
AFNE01.JPG,AFNE01.JPG,AFNE01.JPG,AFNE01.JPG,AFNE01.JPG,AFNE01.JPG,,,,,,,,,,,,,,,,,3,7,37,7,,,,,,,AMNE10.jpg,AMSA03.jpg,AMSA04.jpg,AMNE06.jpg,AMSA03.jpg,MS,2,num_6,32,num_4,0.533484850544,,,2017_Jul_13_1614,60.003464245,MAFE4ImagesEEG,001,100884,
AFNE01.JPG,AFNE01.JPG,AFNE01.JPG,AFNE01.JPG,AFNE01.JPG,AFNE01.JPG,,,,,,,,,,,,,,,,,3,8,38,6,,,,,,,AMNE12.jpg,AMSA12.jpg,AMSA20.jpg,AMNE15.jpg,AMNE12.jpg,MN,1,num_8,32,num_6,0.866784506245,,,2017_Jul_13_1614,60.003464245,MAFE4ImagesEEG,001,100884,
AFNE01.JPG,AFNE01.JPG,AFNE01.JPG,AFNE01.JPG,AFNE01.JPG,AFNE01.JPG,,,,,,,,,,,,,,,,,3,9,39,8,,,,,,,AMSA02.jpg,AMSA18.jpg,AMNE16.jpg,AMNE12.jpg,AMNE16.jpg,MN,1,num_2,32,num_4,0.600186734227,,,2017_Jul_13_1614,60.003464245,MAFE4ImagesEEG,001,100884,
AFNE01.JPG,AFNE01.JPG,AFNE01.JPG,AFNE01.JPG,AFNE01.JPG,AFNE01.JPG,,,,,,,,,,,,,,,,,4,0,40,2,,,,,,,AMNE05.jpg,AMSA09.jpg,AMNE03.jpg,AMSA10.jpg,AMSA10.jpg,MS,2,num_4,48,None,,,,2017_Jul_13_1614,60.003464245,MAFE4ImagesEEG,001,100884,
AFNE01.JPG,AFNE01.JPG,AFNE01.JPG,AFNE01.JPG,AFNE01.JPG,AFNE01.JPG,,,,,,,,,,,,,,,,,4,1,41,8,,,,,,,AMNE20.jpg,AMNE18.jpg,AMSA06.jpg,AMSA09.jpg,AMSA09.jpg,MS,2,num_4,32,num_6,2.68331431341,,,2017_Jul_13_1614,60.003464245,MAFE4ImagesEEG,001,100884,
AFNE01.JPG,AFNE01.JPG,AFNE01.JPG,AFNE01.JPG,AFNE01.JPG,AFNE01.JPG,,,,,,,,,,,,,,,,,4,2,42,6,,,,,,,AMSA13.jpg,AMNE14.jpg,AMSA15.jpg,AMNE03.jpg,AMNE14.jpg,MN,1,num_6,32,num_4,0.783478596248,,,2017_Jul_13_1614,60.003464245,MAFE4ImagesEEG,001,100884,
AFNE01.JPG,AFNE01.JPG,AFNE01.JPG,AFNE01.JPG,AFNE01.JPG,AFNE01.JPG,,,,,,,,,,,,,,,,,4,3,43,3,,,,,,,AMSA18.jpg,AMNE02.jpg,AMNE04.jpg,AMSA10.jpg,AMSA18.jpg,MS,2,num_8,32,num_2,2.26666320255,,,2017_Jul_13_1614,60.003464245,MAFE4ImagesEEG,001,100884,
AFNE01.JPG,AFNE01.JPG,AFNE01.JPG,AFNE01.JPG,AFNE01.JPG,AFNE01.JPG,,,,,,,,,,,,,,,,,4,4,44,9,,,,,,,AMSA05.jpg,AMSA17.jpg,AMNE20.jpg,AMNE14.jpg,AMSA17.jpg,MS,2,num_6,32,num_8,3.98295239126,,,2017_Jul_13_1614,60.003464245,MAFE4ImagesEEG,001,100884,
AFNE01.JPG,AFNE01.JPG,AFNE01.JPG,AFNE01.JPG,AFNE01.JPG,AFNE01.JPG,,,,,,,,,,,,,,,,,4,5,45,1,,,,,,,AMNE01.jpg,AMSA02.jpg,AMSA11.jpg,AMNE06.jpg,AMSA11.jpg,MS,2,num_2,32,num_4,0.566840443062,,,2017_Jul_13_1614,60.003464245,MAFE4ImagesEEG,001,100884,
AFNE01.JPG,AFNE01.JPG,AFNE01.JPG,AFNE01.JPG,AFNE01.JPG,AFNE01.JPG,,,,,,,,,,,,,,,,,4,6,46,5,,,,,,,AMSA02.jpg,AMNE07.jpg,AMNE03.jpg,AMSA17.jpg,AMNE03.jpg,MN,1,num_2,32,num_8,0.950168676674,,,2017_Jul_13_1614,60.003464245,MAFE4ImagesEEG,001,100884,
AFNE01.JPG,AFNE01.JPG,AFNE01.JPG,AFNE01.JPG,AFNE01.JPG,AFNE01.JPG,,,,,,,,,,,,,,,,,4,7,47,4,,,,,,,AMNE14.jpg,AMSA16.jpg,AMSA02.jpg,AMNE02.jpg,AMSA16.jpg,MS,2,num_6,32,num_4,0.600190262543,,,2017_Jul_13_1614,60.003464245,MAFE4ImagesEEG,001,100884,
AFNE01.JPG,AFNE01.JPG,AFNE01.JPG,AFNE01.JPG,AFNE01.JPG,AFNE01.JPG,,,,,,,,,,,,,,,,,4,8,48,7,,,,,,,AMNE01.jpg,AMSA16.jpg,AMSA20.jpg,AMNE09.jpg,AMSA20.jpg,MS,2,num_2,32,num_6,0.633867235621,,,2017_Jul_13_1614,60.003464245,MAFE4ImagesEEG,001,100884,
AFNE01.JPG,AFNE01.JPG,AFNE01.JPG,AFNE01.JPG,AFNE01.JPG,AFNE01.JPG,,,,,,,,,,,,,,,,,4,9,49,0,,,,,,,AMSA14.jpg,AMNE18.jpg,AMSA12.jpg,AMNE08.jpg,AMNE08.jpg,MN,1,num_4,16,num_4,0.550184777705,,,2017_Jul_13_1614,60.003464245,MAFE4ImagesEEG,001,100884,
AFNE01.JPG,AFNE01.JPG,AFNE01.JPG,AFNE01.JPG,AFNE01.JPG,AFNE01.JPG,,,,,,,,,,,,,,,,,5,0,50,5,,,,,,,AMSA19.jpg,AMNE17.jpg,AMNE20.jpg,AMSA18.jpg,AMNE17.jpg,MN,1,num_6,32,num_8,0.683476928389,,,2017_Jul_13_1614,60.003464245,MAFE4ImagesEEG,001,100884,
AFNE01.JPG,AFNE01.JPG,AFNE01.JPG,AFNE01.JPG,AFNE01.JPG,AFNE01.JPG,,,,,,,,,,,,,,,,,5,1,51,8,,,,,,,AMSA10.jpg,AMSA18.jpg,AMNE19.jpg,AMNE02.jpg,AMNE19.jpg,MN,1,num_2,32,num_6,0.716760033742,,,2017_Jul_13_1614,60.003464245,MAFE4ImagesEEG,001,100884,
AFNE01.JPG,AFNE01.JPG,AFNE01.JPG,AFNE01.JPG,AFNE01.JPG,AFNE01.JPG,,,,,,,,,,,,,,,,,5,2,52,4,,,,,,,AMSA03.jpg,AMNE06.jpg,AMNE12.jpg,AMSA07.jpg,AMSA07.jpg,MS,2,num_4,16,num_4,0.666813565185,,,2017_Jul_13_1614,60.003464245,MAFE4ImagesEEG,001,100884,
AFNE01.JPG,AFNE01.JPG,AFNE01.JPG,AFNE01.JPG,AFNE01.JPG,AFNE01.JPG,,,,,,,,,,,,,,,,,5,3,53,1,,,,,,,AMNE19.jpg,AMSA03.jpg,AMSA16.jpg,AMNE16.jpg,AMNE16.jpg,MN,1,num_4,32,num_8,0.800190711394,,,2017_Jul_13_1614,60.003464245,MAFE4ImagesEEG,001,100884,
AFNE01.JPG,AFNE01.JPG,AFNE01.JPG,AFNE01.JPG,AFNE01.JPG,AFNE01.JPG,,,,,,,,,,,,,,,,,5,4,54,3,,,,,,,AMNE05.jpg,AMNE09.jpg,AMSA15.jpg,AMSA04.jpg,AMSA15.jpg,MS,2,num_2,16,num_2,1.33344046026,,,2017_Jul_13_1614,60.003464245,MAFE4ImagesEEG,001,100884,
AFNE01.JPG,AFNE01.JPG,AFNE01.JPG,AFNE01.JPG,AFNE01.JPG,AFNE01.JPG,,,,,,,,,,,,,,,,,5,5,55,7,,,,,,,AMNE10.jpg,AMSA06.jpg,AMNE15.jpg,AMSA02.jpg,AMNE15.jpg,MN,1,num_2,32,num_4,0.700174610363,,,2017_Jul_13_1614,60.003464245,MAFE4ImagesEEG,001,100884,
AFNE01.JPG,AFNE01.JPG,AFNE01.JPG,AFNE01.JPG,AFNE01.JPG,AFNE01.JPG,,,,,,,,,,,,,,,,,5,6,56,9,,,,,,,AMNE08.jpg,AMSA17.jpg,AMNE12.jpg,AMSA07.jpg,AMNE12.jpg,MN,1,num_2,32,num_6,0.666810037103,,,2017_Jul_13_1614,60.003464245,MAFE4ImagesEEG,001,100884,
AFNE01.JPG,AFNE01.JPG,AFNE01.JPG,AFNE01.JPG,AFNE01.JPG,AFNE01.JPG,,,,,,,,,,,,,,,,,5,7,57,6,,,,,,,AMNE16.jpg,AMSA19.jpg,AMNE11.jpg,AMSA18.jpg,AMSA19.jpg,MS,2,num_6,16,num_6,0.833308636444,,,2017_Jul_13_1614,60.003464245,MAFE4ImagesEEG,001,100884,
AFNE01.JPG,AFNE01.JPG,AFNE01.JPG,AFNE01.JPG,AFNE01.JPG,AFNE01.JPG,,,,,,,,,,,,,,,,,5,8,58,2,,,,,,,AMSA12.jpg,AMNE15.jpg,AMSA02.jpg,AMNE16.jpg,AMSA12.jpg,MS,2,num_8,32,num_4,1.2000921804,,,2017_Jul_13_1614,60.003464245,MAFE4ImagesEEG,001,100884,
AFNE01.JPG,AFNE01.JPG,AFNE01.JPG,AFNE01.JPG,AFNE01.JPG,AFNE01.JPG,,,,,,,,,,,,,,,,,5,9,59,0,,,,,,,AMNE02.jpg,AMSA01.jpg,AMSA17.jpg,AMNE08.jpg,AMNE08.jpg,MN,1,num_4,16,num_4,0.833468364552,,,2017_Jul_13_1614,60.003464245,MAFE4ImagesEEG,001,100884,
,,,,,,,,,,,,,,,,,,,,,,,,,,,,,,,,,,,,,,,,,,,space,61.2786360758,2017_Jul_13_1614,60.003464245,MAFE4ImagesEEG,001,100884,
AFNE01.JPG,AFNE01.JPG,AFNE01.JPG,AFNE01.JPG,AFNE01.JPG,AFNE01.JPG,,,,,,,,,,,,,,,,,,,,,0,0,0,8,,,AFSA08.jpg,AFNE03.jpg,AFSA18.jpg,AFNE09.jpg,AFNE09.jpg,FN,3,num_4,32,num_8,1.18341951584,,,2017_Jul_13_1614,60.003464245,MAFE4ImagesEEG,001,100884,
AFNE01.JPG,AFNE01.JPG,AFNE01.JPG,AFNE01.JPG,AFNE01.JPG,AFNE01.JPG,,,,,,,,,,,,,,,,,,,,,0,1,1,2,,,AFNE13.jpg,AFSA12.jpg,AFNE04.jpg,AFSA10.jpg,AFNE13.jpg,FN,3,num_8,32,num_6,0.866769110784,,,2017_Jul_13_1614,60.003464245,MAFE4ImagesEEG,001,100884,
AFNE01.JPG,AFNE01.JPG,AFNE01.JPG,AFNE01.JPG,AFNE01.JPG,AFNE01.JPG,,,,,,,,,,,,,,,,,,,,,0,2,2,9,,,AFNE14.jpg,AFSA11.jpg,AFSA04.jpg,AFNE13.jpg,AFNE14.jpg,FN,3,num_8,32,num_6,0.733490752056,,,2017_Jul_13_1614,60.003464245,MAFE4ImagesEEG,001,100884,
AFNE01.JPG,AFNE01.JPG,AFNE01.JPG,AFNE01.JPG,AFNE01.JPG,AFNE01.JPG,,,,,,,,,,,,,,,,,,,,,0,3,3,1,,,AFSA07.jpg,AFSA13.jpg,AFNE07.jpg,AFNE12.jpg,AFSA07.jpg,FS,4,num_8,16,num_8,0.633491329383,,,2017_Jul_13_1614,60.003464245,MAFE4ImagesEEG,001,100884,
AFNE01.JPG,AFNE01.JPG,AFNE01.JPG,AFNE01.JPG,AFNE01.JPG,AFNE01.JPG,,,,,,,,,,,,,,,,,,,,,0,4,4,3,,,AFSA06.jpg,AFNE15.jpg,AFSA04.jpg,AFNE10.jpg,AFSA04.jpg,FS,4,num_2,16,num_2,0.783160102088,,,2017_Jul_13_1614,60.003464245,MAFE4ImagesEEG,001,100884,
AFNE01.JPG,AFNE01.JPG,AFNE01.JPG,AFNE01.JPG,AFNE01.JPG,AFNE01.JPG,,,,,,,,,,,,,,,,,,,,,0,5,5,4,,,AFSA12.jpg,AFNE03.jpg,AFNE06.jpg,AFSA05.jpg,AFNE03.jpg,FN,3,num_6,16,num_6,0.633501272416,,,2017_Jul_13_1614,60.003464245,MAFE4ImagesEEG,001,100884,
AFNE01.JPG,AFNE01.JPG,AFNE01.JPG,AFNE01.JPG,AFNE01.JPG,AFNE01.JPG,,,,,,,,,,,,,,,,,,,,,0,6,6,0,,,AFSA04.jpg,AFNE13.jpg,AFSA18.jpg,AFNE03.jpg,AFSA18.jpg,FS,4,num_2,16,num_2,0.566772767343,,,2017_Jul_13_1614,60.003464245,MAFE4ImagesEEG,001,100884,
AFNE01.JPG,AFNE01.JPG,AFNE01.JPG,AFNE01.JPG,AFNE01.JPG,AFNE01.JPG,,,,,,,,,,,,,,,,,,,,,0,7,7,5,,,AFNE01.jpg,AFSA09.jpg,AFSA10.jpg,AFNE11.jpg,AFNE11.jpg,FN,3,num_4,16,num_4,0.883470641915,,,2017_Jul_13_1614,60.003464245,MAFE4ImagesEEG,001,100884,
AFNE01.JPG,AFNE01.JPG,AFNE01.JPG,AFNE01.JPG,AFNE01.JPG,AFNE01.JPG,,,,,,,,,,,,,,,,,,,,,0,8,8,6,,,AFSA07.jpg,AFNE19.jpg,AFNE17.jpg,AFSA16.jpg,AFSA16.jpg,FS,4,num_4,16,num_4,0.63347112271,,,2017_Jul_13_1614,60.003464245,MAFE4ImagesEEG,001,100884,
AFNE01.JPG,AFNE01.JPG,AFNE01.JPG,AFNE01.JPG,AFNE01.JPG,AFNE01.JPG,,,,,,,,,,,,,,,,,,,,,0,9,9,7,,,AFSA19.jpg,AFSA20.jpg,AFNE06.jpg,AFNE15.jpg,AFSA20.jpg,FS,4,num_6,16,num_6,0.683522473089,,,2017_Jul_13_1614,60.003464245,MAFE4ImagesEEG,001,100884,
AFNE01.JPG,AFNE01.JPG,AFNE01.JPG,AFNE01.JPG,AFNE01.JPG,AFNE01.JPG,,,,,,,,,,,,,,,,,,,,,1,0,10,0,,,AFNE04.jpg,AFSA15.jpg,AFNE11.jpg,AFSA01.jpg,AFNE11.jpg,FN,3,num_2,32,num_4,0.650171370944,,,2017_Jul_13_1614,60.003464245,MAFE4ImagesEEG,001,100884,
AFNE01.JPG,AFNE01.JPG,AFNE01.JPG,AFNE01.JPG,AFNE01.JPG,AFNE01.JPG,,,,,,,,,,,,,,,,,,,,,1,1,11,1,,,AFSA11.jpg,AFSA02.jpg,AFNE01.jpg,AFNE20.jpg,AFNE01.jpg,FN,3,num_2,16,num_2,0.966579297325,,,2017_Jul_13_1614,60.003464245,MAFE4ImagesEEG,001,100884,
AFNE01.JPG,AFNE01.JPG,AFNE01.JPG,AFNE01.JPG,AFNE01.JPG,AFNE01.JPG,,,,,,,,,,,,,,,,,,,,,1,2,12,4,,,AFNE01.jpg,AFSA09.jpg,AFSA12.jpg,AFNE14.jpg,AFSA12.jpg,FS,4,num_2,32,num_4,0.833463232731,,,2017_Jul_13_1614,60.003464245,MAFE4ImagesEEG,001,100884,
AFNE01.JPG,AFNE01.JPG,AFNE01.JPG,AFNE01.JPG,AFNE01.JPG,AFNE01.JPG,,,,,,,,,,,,,,,,,,,,,1,3,13,5,,,AFSA06.jpg,AFSA11.jpg,AFNE09.jpg,AFNE01.jpg,AFNE09.jpg,FN,3,num_2,32,num_4,0.816782229114,,,2017_Jul_13_1614,60.003464245,MAFE4ImagesEEG,001,100884,
AFNE01.JPG,AFNE01.JPG,AFNE01.JPG,AFNE01.JPG,AFNE01.JPG,AFNE01.JPG,,,,,,,,,,,,,,,,,,,,,1,4,14,2,,,AFSA03.jpg,AFSA12.jpg,AFNE01.jpg,AFNE13.jpg,AFNE13.jpg,FN,3,num_4,32,num_2,1.76670778543,,,2017_Jul_13_1614,60.003464245,MAFE4ImagesEEG,001,100884,
AFNE01.JPG,AFNE01.JPG,AFNE01.JPG,AFNE01.JPG,AFNE01.JPG,AFNE01.JPG,,,,,,,,,,,,,,,,,,,,,1,5,15,9,,,AFNE13.jpg,AFSA18.jpg,AFSA20.jpg,AFNE06.jpg,AFNE13.jpg,FN,3,num_8,16,num_8,0.833446874982,,,2017_Jul_13_1614,60.003464245,MAFE4ImagesEEG,001,100884,
AFNE01.JPG,AFNE01.JPG,AFNE01.JPG,AFNE01.JPG,AFNE01.JPG,AFNE01.JPG,,,,,,,,,,,,,,,,,,,,,1,6,16,6,,,AFSA10.jpg,AFSA12.jpg,AFNE04.jpg,AFNE14.jpg,AFNE14.jpg,FN,3,num_4,32,num_8,0.783464162843,,,2017_Jul_13_1614,60.003464245,MAFE4ImagesEEG,001,100884,
AFNE01.JPG,AFNE01.JPG,AFNE01.JPG,AFNE01.JPG,AFNE01.JPG,AFNE01.JPG,,,,,,,,,,,,,,,,,,,,,1,7,17,3,,,AFSA02.jpg,AFNE18.jpg,AFNE08.jpg,AFSA16.jpg,AFNE18.jpg,FN,3,num_6,16,num_6,0.600195714971,,,2017_Jul_13_1614,60.003464245,MAFE4ImagesEEG,001,100884,
AFNE01.JPG,AFNE01.JPG,AFNE01.JPG,AFNE01.JPG,AFNE01.JPG,AFNE01.JPG,,,,,,,,,,,,,,,,,,,,,1,8,18,8,,,AFNE09.jpg,AFNE08.jpg,AFSA12.jpg,AFSA02.jpg,AFNE08.jpg,FN,3,num_6,32,num_8,0.616870304104,,,2017_Jul_13_1614,60.003464245,MAFE4ImagesEEG,001,100884,
AFNE01.JPG,AFNE01.JPG,AFNE01.JPG,AFNE01.JPG,AFNE01.JPG,AFNE01.JPG,,,,,,,,,,,,,,,,,,,,,1,9,19,7,,,AFSA02.jpg,AFSA14.jpg,AFNE08.jpg,AFNE02.jpg,AFSA02.jpg,FS,4,num_8,32,num_6,0.933426090982,,,2017_Jul_13_1614,60.003464245,MAFE4ImagesEEG,001,100884,
AFNE01.JPG,AFNE01.JPG,AFNE01.JPG,AFNE01.JPG,AFNE01.JPG,AFNE01.JPG,,,,,,,,,,,,,,,,,,,,,2,0,20,5,,,AFNE14.jpg,AFSA10.jpg,AFNE06.jpg,AFSA20.jpg,AFSA10.jpg,FS,4,num_6,32,num_8,0.666782132816,,,2017_Jul_13_1614,60.003464245,MAFE4ImagesEEG,001,100884,
AFNE01.JPG,AFNE01.JPG,AFNE01.JPG,AFNE01.JPG,AFNE01.JPG,AFNE01.JPG,,,,,,,,,,,,,,,,,,,,,2,1,21,6,,,AFNE17.jpg,AFNE01.jpg,AFSA05.jpg,AFSA20.jpg,AFSA05.jpg,FS,4,num_2,16,num_2,0.83344366774,,,2017_Jul_13_1614,60.003464245,MAFE4ImagesEEG,001,100884,
AFNE01.JPG,AFNE01.JPG,AFNE01.JPG,AFNE01.JPG,AFNE01.JPG,AFNE01.JPG,,,,,,,,,,,,,,,,,,,,,2,2,22,9,,,AFSA20.jpg,AFNE07.jpg,AFSA05.jpg,AFNE18.jpg,AFNE18.jpg,FN,3,num_4,16,num_4,0.816739891423,,,2017_Jul_13_1614,60.003464245,MAFE4ImagesEEG,001,100884,
AFNE01.JPG,AFNE01.JPG,AFNE01.JPG,AFNE01.JPG,AFNE01.JPG,AFNE01.JPG,,,,,,,,,,,,,,,,,,,,,2,3,23,8,,,AFNE10.jpg,AFSA19.jpg,AFNE06.jpg,AFSA04.jpg,AFNE10.jpg,FN,3,num_8,32,num_6,0.800171146402,,,2017_Jul_13_1614,60.003464245,MAFE4ImagesEEG,001,100884,
AFNE01.JPG,AFNE01.JPG,AFNE01.JPG,AFNE01.JPG,AFNE01.JPG,AFNE01.JPG,,,,,,,,,,,,,,,,,,,,,2,4,24,4,,,AFSA13.jpg,AFNE16.jpg,AFNE20.jpg,AFSA20.jpg,AFSA13.jpg,FS,4,num_8,16,num_8,2.06669290317,,,2017_Jul_13_1614,60.003464245,MAFE4ImagesEEG,001,100884,
AFNE01.JPG,AFNE01.JPG,AFNE01.JPG,AFNE01.JPG,AFNE01.JPG,AFNE01.JPG,,,,,,,,,,,,,,,,,,,,,2,5,25,3,,,AFSA18.jpg,AFNE09.jpg,AFNE08.jpg,AFSA19.jpg,AFNE09.jpg,FN,3,num_6,32,num_4,3.36659462866,,,2017_Jul_13_1614,60.003464245,MAFE4ImagesEEG,001,100884,
AFNE01.JPG,AFNE01.JPG,AFNE01.JPG,AFNE01.JPG,AFNE01.JPG,AFNE01.JPG,,,,,,,,,,,,,,,,,,,,,2,6,26,7,,,AFSA19.jpg,AFNE14.jpg,AFNE18.jpg,AFSA14.jpg,AFSA14.jpg,FS,4,num_4,16,num_4,0.56675801333,,,2017_Jul_13_1614,60.003464245,MAFE4ImagesEEG,001,100884,
AFNE01.JPG,AFNE01.JPG,AFNE01.JPG,AFNE01.JPG,AFNE01.JPG,AFNE01.JPG,,,,,,,,,,,,,,,,,,,,,2,7,27,1,,,AFSA10.jpg,AFNE02.jpg,AFNE19.jpg,AFSA11.jpg,AFSA11.jpg,FS,4,num_4,16,num_4,0.516841373406,,,2017_Jul_13_1614,60.003464245,MAFE4ImagesEEG,001,100884,
AFNE01.JPG,AFNE01.JPG,AFNE01.JPG,AFNE01.JPG,AFNE01.JPG,AFNE01.JPG,,,,,,,,,,,,,,,,,,,,,2,8,28,0,,,AFNE11.jpg,AFSA16.jpg,AFSA14.jpg,AFNE16.jpg,AFSA14.jpg,FS,4,num_2,32,num_8,1.26675557555,,,2017_Jul_13_1614,60.003464245,MAFE4ImagesEEG,001,100884,
AFNE01.JPG,AFNE01.JPG,AFNE01.JPG,AFNE01.JPG,AFNE01.JPG,AFNE01.JPG,,,,,,,,,,,,,,,,,,,,,2,9,29,2,,,AFNE01.jpg,AFSA05.jpg,AFNE14.jpg,AFSA07.jpg,AFNE01.jpg,FN,3,num_8,32,num_2,1.90003040596,,,2017_Jul_13_1614,60.003464245,MAFE4ImagesEEG,001,100884,
AFNE01.JPG,AFNE01.JPG,AFNE01.JPG,AFNE01.JPG,AFNE01.JPG,AFNE01.JPG,,,,,,,,,,,,,,,,,,,,,3,0,30,8,,,AFSA07.jpg,AFNE04.jpg,AFNE03.jpg,AFSA06.jpg,AFSA06.jpg,FS,4,num_4,16,num_4,0.683475324418,,,2017_Jul_13_1614,60.003464245,MAFE4ImagesEEG,001,100884,
AFNE01.JPG,AFNE01.JPG,AFNE01.JPG,AFNE01.JPG,AFNE01.JPG,AFNE01.JPG,,,,,,,,,,,,,,,,,,,,,3,1,31,0,,,AFSA05.jpg,AFNE16.jpg,AFSA02.jpg,AFNE04.jpg,AFNE16.jpg,FN,3,num_6,16,num_6,0.750088363653,,,2017_Jul_13_1614,60.003464245,MAFE4ImagesEEG,001,100884,
AFNE01.JPG,AFNE01.JPG,AFNE01.JPG,AFNE01.JPG,AFNE01.JPG,AFNE01.JPG,,,,,,,,,,,,,,,,,,,,,3,2,32,9,,,AFSA18.jpg,AFNE11.jpg,AFNE09.jpg,AFSA03.jpg,AFSA18.jpg,FS,4,num_8,32,num_4,0.86676622415,,,2017_Jul_13_1614,60.003464245,MAFE4ImagesEEG,001,100884,
AFNE01.JPG,AFNE01.JPG,AFNE01.JPG,AFNE01.JPG,AFNE01.JPG,AFNE01.JPG,,,,,,,,,,,,,,,,,,,,,3,3,33,4,,,AFNE04.jpg,AFNE02.jpg,AFSA10.jpg,AFSA01.jpg,AFNE02.jpg,FN,3,num_6,16,num_6,1.03344219201,,,2017_Jul_13_1614,60.003464245,MAFE4ImagesEEG,001,100884,
AFNE01.JPG,AFNE01.JPG,AFNE01.JPG,AFNE01.JPG,AFNE01.JPG,AFNE01.JPG,,,,,,,,,,,,,,,,,,,,,3,4,34,5,,,AFSA05.jpg,AFNE18.jpg,AFNE19.jpg,AFSA13.jpg,AFSA13.jpg,FS,4,num_4,32,num_8,0.883448831504,,,2017_Jul_13_1614,60.003464245,MAFE4ImagesEEG,001,100884,
AFNE01.JPG,AFNE01.JPG,AFNE01.JPG,AFNE01.JPG,AFNE01.JPG,AFNE01.JPG,,,,,,,,,,,,,,,,,,,,,3,5,35,7,,,AFSA17.jpg,AFNE13.jpg,AFNE20.jpg,AFSA19.jpg,AFNE13.jpg,FN,3,num_6,16,num_6,0.83349049557,,,2017_Jul_13_1614,60.003464245,MAFE4ImagesEEG,001,100884,
AFNE01.JPG,AFNE01.JPG,AFNE01.JPG,AFNE01.JPG,AFNE01.JPG,AFNE01.JPG,,,,,,,,,,,,,,,,,,,,,3,6,36,1,,,AFSA19.jpg,AFNE16.jpg,AFNE13.jpg,AFSA07.jpg,AFSA07.jpg,FS,4,num_4,32,num_2,0.833472854923,,,2017_Jul_13_1614,60.003464245,MAFE4ImagesEEG,001,100884,
AFNE01.JPG,AFNE01.JPG,AFNE01.JPG,AFNE01.JPG,AFNE01.JPG,AFNE01.JPG,,,,,,,,,,,,,,,,,,,,,3,7,37,2,,,AFSA09.jpg,AFNE07.jpg,AFNE20.jpg,AFSA18.jpg,AFNE20.jpg,FN,3,num_2,32,num_4,0.63350287592,,,2017_Jul_13_1614,60.003464245,MAFE4ImagesEEG,001,100884,
AFNE01.JPG,AFNE01.JPG,AFNE01.JPG,AFNE01.JPG,AFNE01.JPG,AFNE01.JPG,,,,,,,,,,,,,,,,,,,,,3,8,38,3,,,AFNE02.jpg,AFSA06.jpg,AFSA03.jpg,AFNE08.jpg,AFSA03.jpg,FS,4,num_2,32,num_6,0.700124575058,,,2017_Jul_13_1614,60.003464245,MAFE4ImagesEEG,001,100884,
AFNE01.JPG,AFNE01.JPG,AFNE01.JPG,AFNE01.JPG,AFNE01.JPG,AFNE01.JPG,,,,,,,,,,,,,,,,,,,,,3,9,39,6,,,AFSA01.jpg,AFSA20.jpg,AFNE11.jpg,AFNE17.jpg,AFSA01.jpg,FS,4,num_8,32,num_4,0.300191673916,,,2017_Jul_13_1614,60.003464245,MAFE4ImagesEEG,001,100884,
AFNE01.JPG,AFNE01.JPG,AFNE01.JPG,AFNE01.JPG,AFNE01.JPG,AFNE01.JPG,,,,,,,,,,,,,,,,,,,,,4,0,40,0,,,AFSA14.jpg,AFSA08.jpg,AFNE07.jpg,AFNE11.jpg,AFNE11.jpg,FN,3,num_4,16,num_4,0.516799035715,,,2017_Jul_13_1614,60.003464245,MAFE4ImagesEEG,001,100884,
AFNE01.JPG,AFNE01.JPG,AFNE01.JPG,AFNE01.JPG,AFNE01.JPG,AFNE01.JPG,,,,,,,,,,,,,,,,,,,,,4,1,41,9,,,AFNE16.jpg,AFNE14.jpg,AFSA16.jpg,AFSA14.jpg,AFNE16.jpg,FN,3,num_8,16,num_8,1.20010276488,,,2017_Jul_13_1614,60.003464245,MAFE4ImagesEEG,001,100884,
