IPosition2,IPosition3,IPosition1,IPosition6,IPosition4,IPosition5,TrialsM1.thisRepN,TrialsM1.thisTrialN,TrialsM1.thisN,TrialsM1.thisIndex,TrialsF1.thisRepN,TrialsF1.thisTrialN,TrialsF1.thisN,TrialsF1.thisIndex,TrialsM2.thisRepN,TrialsM2.thisTrialN,TrialsM2.thisN,TrialsM2.thisIndex,TrialsF2.thisRepN,TrialsF2.thisTrialN,TrialsF2.thisN,TrialsF2.thisIndex,TrialsM3.thisRepN,TrialsM3.thisTrialN,TrialsM3.thisN,TrialsM3.thisIndex,TrialsF3.thisRepN,TrialsF3.thisTrialN,TrialsF3.thisN,TrialsF3.thisIndex,InstrKey_resp.keys,InstrKey_resp.rt,Image0 _Position,Image1 _Position,Image2 _Position,Image3 _Position,Center_image,condition,code,correct_answer,accuracy,Key_Resp.keys,Key_Resp.rt,BreakKey_resp.keys,BreakKey_resp.rt,date,frameRate,expName,session,participant,
,,,,,,,,,,,,,,,,,,,,,,,,,,,,,,space,12.4662053154,,,,,,,,,,,,,,2017_Jun_28_1146,60.0040415894,MAFE4ImagesEEG,001,100826,
AFSA25.JPG,AFNE24.JPG,AFSA24.JPG,AFNE21.JPG,AFSA21.JPG,AFNE25.JPG,0,0,0,2,,,,,,,,,,,,,,,,,,,,,,,AMSA10.jpg,AMNE16.jpg,AMNE12.jpg,AMSA16.jpg,AMNE12.jpg,MN,1,num_2,32,num_8,3.01659889446,,,2017_Jun_28_1146,60.0040415894,MAFE4ImagesEEG,001,100826,
AMNE22.JPG,AMSA24.JPG,AMSA22.JPG,AMNE25.JPG,AMNE24.JPG,AMSA25.JPG,0,1,1,7,,,,,,,,,,,,,,,,,,,,,,,AMSA09.jpg,AMNE12.jpg,AMNE11.jpg,AMSA12.jpg,AMNE11.jpg,MN,1,num_2,32,num_6,1.98338827596,,,2017_Jun_28_1146,60.0040415894,MAFE4ImagesEEG,001,100826,
AMSA21.JPG,AMNE23.JPG,AMNE21.JPG,AMSA25.JPG,AMNE25.JPG,AMSA23.JPG,0,2,2,5,,,,,,,,,,,,,,,,,,,,,,,AMNE16.jpg,AMNE14.jpg,AMSA13.jpg,AMSA10.jpg,AMSA13.jpg,MS,2,num_2,16,num_2,1.83335193622,,,2017_Jun_28_1146,60.0040415894,MAFE4ImagesEEG,001,100826,
AFNE22.JPG,AFSA24.JPG,AFSA22.JPG,AFNE25.JPG,AFNE24.JPG,AFSA25.JPG,0,3,3,6,,,,,,,,,,,,,,,,,,,,,,,AMSA12.jpg,AMSA01.jpg,AMNE04.jpg,AMNE08.jpg,AMSA01.jpg,MS,2,num_6,32,num_8,1.63340922022,,,2017_Jun_28_1146,60.0040415894,MAFE4ImagesEEG,001,100826,
AFNE23.JPG,AFNE24.JPG,AFNE22.JPG,AFSA24.JPG,AFSA22.JPG,AFSA23.JPG,0,4,4,8,,,,,,,,,,,,,,,,,,,,,,,AMSA09.jpg,AMNE12.jpg,AMNE18.jpg,AMSA04.jpg,AMNE12.jpg,MN,1,num_6,16,num_6,1.86687238878,,,2017_Jun_28_1146,60.0040415894,MAFE4ImagesEEG,001,100826,
AMSA25.JPG,AMNE24.JPG,AMSA24.JPG,AMNE26.JPG,AMSA21.JPG,AMNE25.JPG,0,5,5,3,,,,,,,,,,,,,,,,,,,,,,,AMNE01.jpg,AMSA05.jpg,AMNE19.jpg,AMSA01.jpg,AMSA01.jpg,MS,2,num_4,16,num_4,1.28355300761,,,2017_Jun_28_1146,60.0040415894,MAFE4ImagesEEG,001,100826,
AFSA21.JPG,AFNE23.JPG,AFNE21.JPG,AFSA25.JPG,AFNE25.JPG,AFSA23.JPG,0,6,6,4,,,,,,,,,,,,,,,,,,,,,,,AMSA07.jpg,AMNE16.jpg,AMSA04.jpg,AMNE19.jpg,AMNE16.jpg,MN,1,num_6,32,num_8,1.96668995233,,,2017_Jun_28_1146,60.0040415894,MAFE4ImagesEEG,001,100826,
AMSA21.JPG,AMNE22.JPG,AMNE21.JPG,AMSA23.JPG,AMSA22.JPG,AMNE23.JPG,0,7,7,1,,,,,,,,,,,,,,,,,,,,,,,AMSA01.jpg,AMNE14.jpg,AMNE08.jpg,AMSA11.jpg,AMSA01.jpg,MS,2,num_8,32,num_2,2.23325917844,,,2017_Jun_28_1146,60.0040415894,MAFE4ImagesEEG,001,100826,
AFSA21.JPG,AFNE22.JPG,AFNE21.JPG,AFSA23.JPG,AFSA22.JPG,AFNE23.JPG,0,8,8,0,,,,,,,,,,,,,,,,,,,,,,,AMNE03.jpg,AMSA09.jpg,AMNE02.jpg,AMSA04.jpg,AMSA04.jpg,MS,2,num_4,32,num_8,1.53342198564,,,2017_Jun_28_1146,60.0040415894,MAFE4ImagesEEG,001,100826,
AMNE23.JPG,AMNE24.JPG,AMNE22.JPG,AMSA24.JPG,AMSA22.JPG,AMSA23.JPG,0,9,9,9,,,,,,,,,,,,,,,,,,,,,,,AMNE11.jpg,AMSA13.jpg,AMSA20.jpg,AMNE13.jpg,AMNE13.jpg,MN,1,num_4,16,num_4,1.16671638124,,,2017_Jun_28_1146,60.0040415894,MAFE4ImagesEEG,001,100826,
AFSA25.JPG,AFNE24.JPG,AFSA24.JPG,AFNE21.JPG,AFSA21.JPG,AFNE25.JPG,,,,,0,0,0,2,,,,,,,,,,,,,,,,,,,AFSA16.jpg,AFNE02.jpg,AFSA11.jpg,AFNE17.jpg,AFSA11.jpg,FS,4,num_2,16,num_2,1.18348302231,,,2017_Jun_28_1146,60.0040415894,MAFE4ImagesEEG,001,100826,
AMSA25.JPG,AMNE24.JPG,AMSA24.JPG,AMNE26.JPG,AMSA21.JPG,AMNE25.JPG,,,,,0,1,1,3,,,,,,,,,,,,,,,,,,,AFSA06.jpg,AFNE04.jpg,AFNE02.jpg,AFSA18.jpg,AFNE04.jpg,FN,3,num_6,32,num_2,1.10013028425,,,2017_Jun_28_1146,60.0040415894,MAFE4ImagesEEG,001,100826,
AMNE23.JPG,AMNE24.JPG,AMNE22.JPG,AMSA24.JPG,AMSA22.JPG,AMSA23.JPG,,,,,0,2,2,9,,,,,,,,,,,,,,,,,,,AFSA06.jpg,AFSA07.jpg,AFNE20.jpg,AFNE03.jpg,AFNE03.jpg,FN,3,num_4,16,num_4,0.600137340531,,,2017_Jun_28_1146,60.0040415894,MAFE4ImagesEEG,001,100826,
AFSA21.JPG,AFNE23.JPG,AFNE21.JPG,AFSA25.JPG,AFNE25.JPG,AFSA23.JPG,,,,,0,3,3,4,,,,,,,,,,,,,,,,,,,AFNE05.jpg,AFNE09.jpg,AFSA06.jpg,AFSA13.jpg,AFSA06.jpg,FS,4,num_2,16,num_2,1.26677257475,,,2017_Jun_28_1146,60.0040415894,MAFE4ImagesEEG,001,100826,
AFNE22.JPG,AFSA24.JPG,AFSA22.JPG,AFNE25.JPG,AFNE24.JPG,AFSA25.JPG,,,,,0,4,4,6,,,,,,,,,,,,,,,,,,,AFSA12.jpg,AFNE08.jpg,AFSA04.jpg,AFNE01.jpg,AFSA12.jpg,FS,4,num_8,32,num_6,1.21660223017,,,2017_Jun_28_1146,60.0040415894,MAFE4ImagesEEG,001,100826,
AMSA21.JPG,AMNE23.JPG,AMNE21.JPG,AMSA25.JPG,AMNE25.JPG,AMSA23.JPG,,,,,0,5,5,5,,,,,,,,,,,,,,,,,,,AFSA04.jpg,AFSA19.jpg,AFNE12.jpg,AFNE04.jpg,AFSA19.jpg,FS,4,num_6,16,num_6,0.616760290446,,,2017_Jun_28_1146,60.0040415894,MAFE4ImagesEEG,001,100826,
AMSA21.JPG,AMNE22.JPG,AMNE21.JPG,AMSA23.JPG,AMSA22.JPG,AMNE23.JPG,,,,,0,6,6,1,,,,,,,,,,,,,,,,,,,AFNE16.jpg,AFSA04.jpg,AFNE02.jpg,AFSA20.jpg,AFNE16.jpg,FN,3,num_8,32,num_2,1.38343022864,,,2017_Jun_28_1146,60.0040415894,MAFE4ImagesEEG,001,100826,
AMNE22.JPG,AMSA24.JPG,AMSA22.JPG,AMNE25.JPG,AMNE24.JPG,AMSA25.JPG,,,,,0,7,7,7,,,,,,,,,,,,,,,,,,,AFNE18.jpg,AFSA09.jpg,AFNE08.jpg,AFSA10.jpg,AFSA09.jpg,FS,4,num_6,16,num_6,0.650130637077,,,2017_Jun_28_1146,60.0040415894,MAFE4ImagesEEG,001,100826,
AFNE23.JPG,AFNE24.JPG,AFNE22.JPG,AFSA24.JPG,AFSA22.JPG,AFSA23.JPG,,,,,0,8,8,8,,,,,,,,,,,,,,,,,,,AFSA12.jpg,AFNE12.jpg,AFNE03.jpg,AFSA13.jpg,AFNE03.jpg,FN,3,num_2,16,num_2,0.933474201986,,,2017_Jun_28_1146,60.0040415894,MAFE4ImagesEEG,001,100826,
AFSA21.JPG,AFNE22.JPG,AFNE21.JPG,AFSA23.JPG,AFSA22.JPG,AFNE23.JPG,,,,,0,9,9,0,,,,,,,,,,,,,,,,,,,AFNE10.jpg,AFSA07.jpg,AFNE20.jpg,AFSA19.jpg,AFNE10.jpg,FN,3,num_8,32,num_2,0.983572059515,,,2017_Jun_28_1146,60.0040415894,MAFE4ImagesEEG,001,100826,
AMSA25.JPG,AMNE24.JPG,AMSA24.JPG,AMNE26.JPG,AMSA21.JPG,AMNE25.JPG,,,,,,,,,0,0,0,3,,,,,,,,,,,,,,,AMSA02.jpg,AMSA14.jpg,AMNE20.jpg,AMNE17.jpg,AMSA02.jpg,MS,2,num_8,32,num_4,0.766809780485,,,2017_Jun_28_1146,60.0040415894,MAFE4ImagesEEG,001,100826,
AFNE23.JPG,AFNE24.JPG,AFNE22.JPG,AFSA24.JPG,AFSA22.JPG,AFSA23.JPG,,,,,,,,,0,1,1,8,,,,,,,,,,,,,,,AMNE16.jpg,AMSA05.jpg,AMNE14.jpg,AMSA07.jpg,AMSA07.jpg,MS,2,num_4,16,num_4,0.550156873534,,,2017_Jun_28_1146,60.0040415894,MAFE4ImagesEEG,001,100826,
AFSA25.JPG,AFNE24.JPG,AFSA24.JPG,AFNE21.JPG,AFSA21.JPG,AFNE25.JPG,,,,,,,,,0,2,2,2,,,,,,,,,,,,,,,AMSA15.jpg,AMSA10.jpg,AMNE01.jpg,AMNE11.jpg,AMNE01.jpg,MN,1,num_2,32,num_8,0.783484690153,,,2017_Jun_28_1146,60.0040415894,MAFE4ImagesEEG,001,100826,
AFNE22.JPG,AFSA24.JPG,AFSA22.JPG,AFNE25.JPG,AFNE24.JPG,AFSA25.JPG,,,,,,,,,0,3,3,6,,,,,,,,,,,,,,,AMNE07.jpg,AMSA01.jpg,AMNE02.jpg,AMSA19.jpg,AMSA19.jpg,MS,2,num_4,16,num_4,0.999920777424,,,2017_Jun_28_1146,60.0040415894,MAFE4ImagesEEG,001,100826,
AMSA21.JPG,AMNE22.JPG,AMNE21.JPG,AMSA23.JPG,AMSA22.JPG,AMNE23.JPG,,,,,,,,,0,4,4,1,,,,,,,,,,,,,,,AMNE20.jpg,AMSA10.jpg,AMSA19.jpg,AMNE16.jpg,AMNE16.jpg,MN,1,num_4,16,num_4,1.05009368791,,,2017_Jun_28_1146,60.0040415894,MAFE4ImagesEEG,001,100826,
AFSA21.JPG,AFNE22.JPG,AFNE21.JPG,AFSA23.JPG,AFSA22.JPG,AFNE23.JPG,,,,,,,,,0,5,5,0,,,,,,,,,,,,,,,AMSA16.jpg,AMSA18.jpg,AMNE18.jpg,AMNE20.jpg,AMSA16.jpg,MS,2,num_8,32,num_6,1.29991776247,,,2017_Jun_28_1146,60.0040415894,MAFE4ImagesEEG,001,100826,
AMNE22.JPG,AMSA24.JPG,AMSA22.JPG,AMNE25.JPG,AMNE24.JPG,AMSA25.JPG,,,,,,,,,0,6,6,7,,,,,,,,,,,,,,,AMNE16.jpg,AMSA18.jpg,AMNE20.jpg,AMSA19.jpg,AMSA19.jpg,MS,2,num_4,16,num_4,1.01676503738,,,2017_Jun_28_1146,60.0040415894,MAFE4ImagesEEG,001,100826,
AFSA21.JPG,AFNE23.JPG,AFNE21.JPG,AFSA25.JPG,AFNE25.JPG,AFSA23.JPG,,,,,,,,,0,7,7,4,,,,,,,,,,,,,,,AMSA19.jpg,AMNE06.jpg,AMSA12.jpg,AMNE15.jpg,AMNE15.jpg,MN,1,num_4,32,num_2,1.64998726666,,,2017_Jun_28_1146,60.0040415894,MAFE4ImagesEEG,001,100826,
AMSA21.JPG,AMNE23.JPG,AMNE21.JPG,AMSA25.JPG,AMNE25.JPG,AMSA23.JPG,,,,,,,,,0,8,8,5,,,,,,,,,,,,,,,AMNE20.jpg,AMSA09.jpg,AMSA18.jpg,AMNE15.jpg,AMSA09.jpg,MS,2,num_6,32,num_2,1.26671420022,,,2017_Jun_28_1146,60.0040415894,MAFE4ImagesEEG,001,100826,
AMNE23.JPG,AMNE24.JPG,AMNE22.JPG,AMSA24.JPG,AMSA22.JPG,AMSA23.JPG,,,,,,,,,0,9,9,9,,,,,,,,,,,,,,,AMNE03.jpg,AMSA04.jpg,AMNE09.jpg,AMSA16.jpg,AMNE03.jpg,MN,1,num_8,16,num_8,0.933583894774,,,2017_Jun_28_1146,60.0040415894,MAFE4ImagesEEG,001,100826,
AMNE22.JPG,AMSA24.JPG,AMSA22.JPG,AMNE25.JPG,AMNE24.JPG,AMSA25.JPG,,,,,,,,,,,,,0,0,0,7,,,,,,,,,,,AFSA18.jpg,AFSA04.jpg,AFNE02.jpg,AFNE08.jpg,AFSA04.jpg,FS,4,num_6,16,num_6,0.750123324207,,,2017_Jun_28_1146,60.0040415894,MAFE4ImagesEEG,001,100826,
AMNE23.JPG,AMNE24.JPG,AMNE22.JPG,AMSA24.JPG,AMSA22.JPG,AMSA23.JPG,,,,,,,,,,,,,0,1,1,9,,,,,,,,,,,AFSA04.jpg,AFNE15.jpg,AFSA18.jpg,AFNE02.jpg,AFSA18.jpg,FS,4,num_2,16,num_2,1.18342368555,,,2017_Jun_28_1146,60.0040415894,MAFE4ImagesEEG,001,100826,
AMSA25.JPG,AMNE24.JPG,AMSA24.JPG,AMNE26.JPG,AMSA21.JPG,AMNE25.JPG,,,,,,,,,,,,,0,2,2,3,,,,,,,,,,,AFSA12.jpg,AFNE10.jpg,AFSA11.jpg,AFNE13.jpg,AFNE13.jpg,FN,3,num_4,32,num_6,0.916770105046,,,2017_Jun_28_1146,60.0040415894,MAFE4ImagesEEG,001,100826,
AFSA21.JPG,AFNE22.JPG,AFNE21.JPG,AFSA23.JPG,AFSA22.JPG,AFNE23.JPG,,,,,,,,,,,,,0,3,3,0,,,,,,,,,,,AFSA04.jpg,AFSA12.jpg,AFNE02.jpg,AFNE14.jpg,AFNE02.jpg,FN,3,num_2,16,num_2,1.70003380592,,,2017_Jun_28_1146,60.0040415894,MAFE4ImagesEEG,001,100826,
AMSA21.JPG,AMNE23.JPG,AMNE21.JPG,AMSA25.JPG,AMNE25.JPG,AMSA23.JPG,,,,,,,,,,,,,0,4,4,5,,,,,,,,,,,AFNE17.jpg,AFNE07.jpg,AFSA07.jpg,AFSA16.jpg,AFSA16.jpg,FS,4,num_4,16,num_4,1.01676984846,,,2017_Jun_28_1146,60.0040415894,MAFE4ImagesEEG,001,100826,
AMSA21.JPG,AMNE22.JPG,AMNE21.JPG,AMSA23.JPG,AMSA22.JPG,AMNE23.JPG,,,,,,,,,,,,,0,5,5,1,,,,,,,,,,,AFNE03.jpg,AFSA04.jpg,AFSA16.jpg,AFNE20.jpg,AFNE20.jpg,FN,3,num_4,16,num_4,1.48341265215,,,2017_Jun_28_1146,60.0040415894,MAFE4ImagesEEG,001,100826,
AFNE22.JPG,AFSA24.JPG,AFSA22.JPG,AFNE25.JPG,AFNE24.JPG,AFSA25.JPG,,,,,,,,,,,,,0,6,6,6,,,,,,,,,,,AFSA12.jpg,AFNE11.jpg,AFNE05.jpg,AFSA03.jpg,AFSA03.jpg,FS,4,num_4,16,num_4,0.916762086563,,,2017_Jun_28_1146,60.0040415894,MAFE4ImagesEEG,001,100826,
AFSA25.JPG,AFNE24.JPG,AFSA24.JPG,AFNE21.JPG,AFSA21.JPG,AFNE25.JPG,,,,,,,,,,,,,0,7,7,2,,,,,,,,,,,AFNE03.jpg,AFNE17.jpg,AFSA05.jpg,AFSA04.jpg,AFNE17.jpg,FN,3,num_6,32,num_4,1.01674258563,,,2017_Jun_28_1146,60.0040415894,MAFE4ImagesEEG,001,100826,
AFSA21.JPG,AFNE23.JPG,AFNE21.JPG,AFSA25.JPG,AFNE25.JPG,AFSA23.JPG,,,,,,,,,,,,,0,8,8,4,,,,,,,,,,,AFSA17.jpg,AFSA07.jpg,AFNE02.jpg,AFNE13.jpg,AFNE02.jpg,FN,3,num_2,32,num_6,1.20009442561,,,2017_Jun_28_1146,60.0040415894,MAFE4ImagesEEG,001,100826,
AFNE23.JPG,AFNE24.JPG,AFNE22.JPG,AFSA24.JPG,AFSA22.JPG,AFSA23.JPG,,,,,,,,,,,,,0,9,9,8,,,,,,,,,,,AFNE02.jpg,AFSA05.jpg,AFNE08.jpg,AFSA08.jpg,AFSA05.jpg,FS,4,num_6,32,num_2,2.16665993114,,,2017_Jun_28_1146,60.0040415894,MAFE4ImagesEEG,001,100826,
AMSA21.JPG,AMNE23.JPG,AMNE21.JPG,AMSA25.JPG,AMNE25.JPG,AMSA23.JPG,,,,,,,,,,,,,,,,,0,0,0,5,,,,,,,AMNE17.jpg,AMNE18.jpg,AMSA08.jpg,AMSA13.jpg,AMNE18.jpg,MN,1,num_6,16,num_6,1.10014343457,,,2017_Jun_28_1146,60.0040415894,MAFE4ImagesEEG,001,100826,
AFNE22.JPG,AFSA24.JPG,AFSA22.JPG,AFNE25.JPG,AFNE24.JPG,AFSA25.JPG,,,,,,,,,,,,,,,,,0,1,1,6,,,,,,,AMSA12.jpg,AMNE04.jpg,AMNE08.jpg,AMSA15.jpg,AMSA15.jpg,MS,2,num_4,16,num_4,0.950109660727,,,2017_Jun_28_1146,60.0040415894,MAFE4ImagesEEG,001,100826,
AFNE23.JPG,AFNE24.JPG,AFNE22.JPG,AFSA24.JPG,AFSA22.JPG,AFSA23.JPG,,,,,,,,,,,,,,,,,0,2,2,8,,,,,,,AMSA01.jpg,AMSA16.jpg,AMNE02.jpg,AMNE01.jpg,AMNE01.jpg,MN,1,num_4,16,num_4,1.08343613024,,,2017_Jun_28_1146,60.0040415894,MAFE4ImagesEEG,001,100826,
AMNE23.JPG,AMNE24.JPG,AMNE22.JPG,AMSA24.JPG,AMSA22.JPG,AMSA23.JPG,,,,,,,,,,,,,,,,,0,3,3,9,,,,,,,AMSA05.jpg,AMNE01.jpg,AMNE07.jpg,AMSA03.jpg,AMNE01.jpg,MN,1,num_6,16,num_6,1.2666920692,,,2017_Jun_28_1146,60.0040415894,MAFE4ImagesEEG,001,100826,
AFSA21.JPG,AFNE23.JPG,AFNE21.JPG,AFSA25.JPG,AFNE25.JPG,AFSA23.JPG,,,,,,,,,,,,,,,,,0,4,4,4,,,,,,,AMNE13.jpg,AMSA08.jpg,AMNE05.jpg,AMSA09.jpg,AMSA09.jpg,MS,2,num_4,16,num_4,1.13351827156,,,2017_Jun_28_1146,60.0040415894,MAFE4ImagesEEG,001,100826,
AFSA25.JPG,AFNE24.JPG,AFSA24.JPG,AFNE21.JPG,AFSA21.JPG,AFNE25.JPG,,,,,,,,,,,,,,,,,0,5,5,2,,,,,,,AMSA16.jpg,AMNE09.jpg,AMSA14.jpg,AMNE08.jpg,AMNE09.jpg,MN,1,num_6,32,num_8,0.716901479827,,,2017_Jun_28_1146,60.0040415894,MAFE4ImagesEEG,001,100826,
AMSA21.JPG,AMNE22.JPG,AMNE21.JPG,AMSA23.JPG,AMSA22.JPG,AMNE23.JPG,,,,,,,,,,,,,,,,,0,6,6,1,,,,,,,AMNE14.jpg,AMSA15.jpg,AMNE17.jpg,AMSA06.jpg,AMSA15.jpg,MS,2,num_6,16,num_6,1.18340572416,,,2017_Jun_28_1146,60.0040415894,MAFE4ImagesEEG,001,100826,
AMNE22.JPG,AMSA24.JPG,AMSA22.JPG,AMNE25.JPG,AMNE24.JPG,AMSA25.JPG,,,,,,,,,,,,,,,,,0,7,7,7,,,,,,,AMSA09.jpg,AMSA20.jpg,AMNE05.jpg,AMNE19.jpg,AMNE19.jpg,MN,1,num_4,16,num_4,0.733471507789,,,2017_Jun_28_1146,60.0040415894,MAFE4ImagesEEG,001,100826,
AMSA25.JPG,AMNE24.JPG,AMSA24.JPG,AMNE26.JPG,AMSA21.JPG,AMNE25.JPG,,,,,,,,,,,,,,,,,0,8,8,3,,,,,,,AMNE18.jpg,AMSA01.jpg,AMNE05.jpg,AMSA19.jpg,AMSA19.jpg,MS,2,num_4,16,num_4,0.683456400962,,,2017_Jun_28_1146,60.0040415894,MAFE4ImagesEEG,001,100826,
AFSA21.JPG,AFNE22.JPG,AFNE21.JPG,AFSA23.JPG,AFSA22.JPG,AFNE23.JPG,,,,,,,,,,,,,,,,,0,9,9,0,,,,,,,AMNE12.jpg,AMSA15.jpg,AMSA04.jpg,AMNE08.jpg,AMSA15.jpg,MS,2,num_6,16,num_6,0.783427277842,,,2017_Jun_28_1146,60.0040415894,MAFE4ImagesEEG,001,100826,
AFNE22.JPG,AFSA24.JPG,AFSA22.JPG,AFNE25.JPG,AFNE24.JPG,AFSA25.JPG,,,,,,,,,,,,,,,,,,,,,0,0,0,6,,,AFNE12.jpg,AFNE11.jpg,AFSA16.jpg,AFSA19.jpg,AFSA16.jpg,FS,4,num_2,16,num_2,1.03344475813,,,2017_Jun_28_1146,60.0040415894,MAFE4ImagesEEG,001,100826,
AMSA21.JPG,AMNE22.JPG,AMNE21.JPG,AMSA23.JPG,AMSA22.JPG,AMNE23.JPG,,,,,,,,,,,,,,,,,,,,,0,1,1,1,,,AFSA16.jpg,AFNE12.jpg,AFSA02.jpg,AFNE04.jpg,AFSA16.jpg,FS,4,num_8,32,num_2,1.20010404779,,,2017_Jun_28_1146,60.0040415894,MAFE4ImagesEEG,001,100826,
AMSA25.JPG,AMNE24.JPG,AMSA24.JPG,AMNE26.JPG,AMSA21.JPG,AMNE25.JPG,,,,,,,,,,,,,,,,,,,,,0,2,2,3,,,AFNE16.jpg,AFSA11.jpg,AFSA04.jpg,AFNE12.jpg,AFNE12.jpg,FN,3,num_4,16,num_4,1.30007332098,,,2017_Jun_28_1146,60.0040415894,MAFE4ImagesEEG,001,100826,
AFNE23.JPG,AFNE24.JPG,AFNE22.JPG,AFSA24.JPG,AFSA22.JPG,AFSA23.JPG,,,,,,,,,,,,,,,,,,,,,0,3,3,8,,,AFSA12.jpg,AFNE14.jpg,AFSA02.jpg,AFNE03.jpg,AFNE14.jpg,FN,3,num_6,16,num_6,0.716775750057,,,2017_Jun_28_1146,60.0040415894,MAFE4ImagesEEG,001,100826,
AMSA21.JPG,AMNE23.JPG,AMNE21.JPG,AMSA25.JPG,AMNE25.JPG,AMSA23.JPG,,,,,,,,,,,,,,,,,,,,,0,4,4,5,,,AFSA12.jpg,AFSA09.jpg,AFNE06.jpg,AFNE09.jpg,AFSA09.jpg,FS,4,num_6,16,num_6,1.06659988877,,,2017_Jun_28_1146,60.0040415894,MAFE4ImagesEEG,001,100826,
AMNE23.JPG,AMNE24.JPG,AMNE22.JPG,AMSA24.JPG,AMSA22.JPG,AMSA23.JPG,,,,,,,,,,,,,,,,,,,,,0,5,5,9,,,AFNE05.jpg,AFSA11.jpg,AFSA07.jpg,AFNE14.jpg,AFNE14.jpg,FN,3,num_4,16,num_4,0.783528310698,,,2017_Jun_28_1146,60.0040415894,MAFE4ImagesEEG,001,100826,
AMNE22.JPG,AMSA24.JPG,AMSA22.JPG,AMNE25.JPG,AMNE24.JPG,AMSA25.JPG,,,,,,,,,,,,,,,,,,,,,0,6,6,7,,,AFSA20.jpg,AFSA16.jpg,AFNE09.jpg,AFNE03.jpg,AFSA16.jpg,FS,4,num_6,16,num_6,0.833433083215,,,2017_Jun_28_1146,60.0040415894,MAFE4ImagesEEG,001,100826,
AFSA25.JPG,AFNE24.JPG,AFSA24.JPG,AFNE21.JPG,AFSA21.JPG,AFNE25.JPG,,,,,,,,,,,,,,,,,,,,,0,7,7,2,,,AFNE19.jpg,AFSA20.jpg,AFSA06.jpg,AFNE07.jpg,AFSA20.jpg,FS,4,num_6,32,num_4,1.15008862024,,,2017_Jun_28_1146,60.0040415894,MAFE4ImagesEEG,001,100826,
AFSA21.JPG,AFNE23.JPG,AFNE21.JPG,AFSA25.JPG,AFNE25.JPG,AFSA23.JPG,,,,,,,,,,,,,,,,,,,,,0,8,8,4,,,AFSA15.jpg,AFNE11.jpg,AFSA05.jpg,AFNE20.jpg,AFNE11.jpg,FN,3,num_6,32,num_4,0.850224100461,,,2017_Jun_28_1146,60.0040415894,MAFE4ImagesEEG,001,100826,
AFSA21.JPG,AFNE22.JPG,AFNE21.JPG,AFSA23.JPG,AFSA22.JPG,AFNE23.JPG,,,,,,,,,,,,,,,,,,,,,0,9,9,0,,,AFNE11.jpg,AFNE12.jpg,AFSA04.jpg,AFSA19.jpg,AFSA19.jpg,FS,4,num_4,16,num_4,1.01671307762,,,2017_Jun_28_1146,60.0040415894,MAFE4ImagesEEG,001,100826,
,,,,,,,,,,,,,,,,,,,,,,,,,,,,,,,,,,,,,,,,,,,space,9.53245303256,2017_Jun_28_1146,60.0040415894,MAFE4ImagesEEG,001,100826,
AFNE01.JPG,AFNE01.JPG,AFNE01.JPG,AFNE01.JPG,AFNE01.JPG,AFNE01.JPG,0,0,0,6,,,,,,,,,,,,,,,,,,,,,,,AMNE19.jpg,AMSA01.jpg,AMSA13.jpg,AMNE20.jpg,AMSA01.jpg,MS,2,num_6,32,num_4,1.06684108464,,,2017_Jun_28_1146,60.0040415894,MAFE4ImagesEEG,001,100826,
AFNE01.JPG,AFNE01.JPG,AFNE01.JPG,AFNE01.JPG,AFNE01.JPG,AFNE01.JPG,0,1,1,2,,,,,,,,,,,,,,,,,,,,,,,AMNE20.jpg,AMNE02.jpg,AMSA15.jpg,AMSA05.jpg,AMSA15.jpg,MS,2,num_2,32,num_6,1.5167095495,,,2017_Jun_28_1146,60.0040415894,MAFE4ImagesEEG,001,100826,
AFNE01.JPG,AFNE01.JPG,AFNE01.JPG,AFNE01.JPG,AFNE01.JPG,AFNE01.JPG,0,2,2,7,,,,,,,,,,,,,,,,,,,,,,,AMNE13.jpg,AMSA01.jpg,AMSA06.jpg,AMNE04.jpg,AMSA01.jpg,MS,2,num_6,32,num_8,1.45007405868,,,2017_Jun_28_1146,60.0040415894,MAFE4ImagesEEG,001,100826,
AFNE01.JPG,AFNE01.JPG,AFNE01.JPG,AFNE01.JPG,AFNE01.JPG,AFNE01.JPG,0,3,3,9,,,,,,,,,,,,,,,,,,,,,,,AMNE10.jpg,AMSA09.jpg,AMNE02.jpg,AMSA03.jpg,AMSA03.jpg,MS,2,num_4,16,num_4,0.716778315982,,,2017_Jun_28_1146,60.0040415894,MAFE4ImagesEEG,001,100826,
AFNE01.JPG,AFNE01.JPG,AFNE01.JPG,AFNE01.JPG,AFNE01.JPG,AFNE01.JPG,0,4,4,8,,,,,,,,,,,,,,,,,,,,,,,AMSA09.jpg,AMNE05.jpg,AMNE15.jpg,AMSA13.jpg,AMSA13.jpg,MS,2,num_4,32,num_8,0.866798618765,,,2017_Jun_28_1146,60.0040415894,MAFE4ImagesEEG,001,100826,
AFNE01.JPG,AFNE01.JPG,AFNE01.JPG,AFNE01.JPG,AFNE01.JPG,AFNE01.JPG,0,5,5,5,,,,,,,,,,,,,,,,,,,,,,,AMNE14.jpg,AMNE12.jpg,AMSA16.jpg,AMSA03.jpg,AMSA16.jpg,MS,2,num_2,32,num_4,0.983493478416,,,2017_Jun_28_1146,60.0040415894,MAFE4ImagesEEG,001,100826,
AFNE01.JPG,AFNE01.JPG,AFNE01.JPG,AFNE01.JPG,AFNE01.JPG,AFNE01.JPG,0,6,6,3,,,,,,,,,,,,,,,,,,,,,,,AMSA13.jpg,AMSA20.jpg,AMNE16.jpg,AMNE01.jpg,AMSA13.jpg,MS,2,num_8,16,num_8,0.933476126433,,,2017_Jun_28_1146,60.0040415894,MAFE4ImagesEEG,001,100826,
AFNE01.JPG,AFNE01.JPG,AFNE01.JPG,AFNE01.JPG,AFNE01.JPG,AFNE01.JPG,0,7,7,4,,,,,,,,,,,,,,,,,,,,,,,AMNE18.jpg,AMNE13.jpg,AMSA04.jpg,AMSA06.jpg,AMSA06.jpg,MS,2,num_4,32,num_6,0.983583926849,,,2017_Jun_28_1146,60.0040415894,MAFE4ImagesEEG,001,100826,
AFNE01.JPG,AFNE01.JPG,AFNE01.JPG,AFNE01.JPG,AFNE01.JPG,AFNE01.JPG,0,8,8,0,,,,,,,,,,,,,,,,,,,,,,,AMSA11.jpg,AMSA13.jpg,AMNE07.jpg,AMNE17.jpg,AMNE07.jpg,MN,1,num_2,16,num_2,1.14978327653,,,2017_Jun_28_1146,60.0040415894,MAFE4ImagesEEG,001,100826,
AFNE01.JPG,AFNE01.JPG,AFNE01.JPG,AFNE01.JPG,AFNE01.JPG,AFNE01.JPG,0,9,9,1,,,,,,,,,,,,,,,,,,,,,,,AMNE04.jpg,AMSA13.jpg,AMSA08.jpg,AMNE07.jpg,AMNE07.jpg,MN,1,num_4,16,num_4,0.616895963118,,,2017_Jun_28_1146,60.0040415894,MAFE4ImagesEEG,001,100826,
AFNE01.JPG,AFNE01.JPG,AFNE01.JPG,AFNE01.JPG,AFNE01.JPG,AFNE01.JPG,1,0,10,5,,,,,,,,,,,,,,,,,,,,,,,AMSA17.jpg,AMNE11.jpg,AMSA03.jpg,AMNE02.jpg,AMNE02.jpg,MN,1,num_4,32,num_2,1.26666095751,,,2017_Jun_28_1146,60.0040415894,MAFE4ImagesEEG,001,100826,
AFNE01.JPG,AFNE01.JPG,AFNE01.JPG,AFNE01.JPG,AFNE01.JPG,AFNE01.JPG,1,1,11,9,,,,,,,,,,,,,,,,,,,,,,,AMNE15.jpg,AMSA13.jpg,AMSA15.jpg,AMNE02.jpg,AMNE02.jpg,MN,1,num_4,16,num_4,1.25010472134,,,2017_Jun_28_1146,60.0040415894,MAFE4ImagesEEG,001,100826,
AFNE01.JPG,AFNE01.JPG,AFNE01.JPG,AFNE01.JPG,AFNE01.JPG,AFNE01.JPG,1,2,12,1,,,,,,,,,,,,,,,,,,,,,,,AMSA12.jpg,AMNE12.jpg,AMSA11.jpg,AMNE11.jpg,AMNE12.jpg,MN,1,num_6,32,num_4,1.45010933999,,,2017_Jun_28_1146,60.0040415894,MAFE4ImagesEEG,001,100826,
AFNE01.JPG,AFNE01.JPG,AFNE01.JPG,AFNE01.JPG,AFNE01.JPG,AFNE01.JPG,1,3,13,3,,,,,,,,,,,,,,,,,,,,,,,AMSA10.jpg,AMNE07.jpg,AMNE05.jpg,AMSA18.jpg,AMSA10.jpg,MS,2,num_8,32,num_4,1.10014824565,,,2017_Jun_28_1146,60.0040415894,MAFE4ImagesEEG,001,100826,
AFNE01.JPG,AFNE01.JPG,AFNE01.JPG,AFNE01.JPG,AFNE01.JPG,AFNE01.JPG,1,4,14,7,,,,,,,,,,,,,,,,,,,,,,,AMNE08.jpg,AMNE06.jpg,AMSA08.jpg,AMSA18.jpg,AMNE08.jpg,MN,1,num_8,32,num_4,1.43342865702,,,2017_Jun_28_1146,60.0040415894,MAFE4ImagesEEG,001,100826,
AFNE01.JPG,AFNE01.JPG,AFNE01.JPG,AFNE01.JPG,AFNE01.JPG,AFNE01.JPG,1,5,15,2,,,,,,,,,,,,,,,,,,,,,,,AMSA19.jpg,AMNE08.jpg,AMSA07.jpg,AMNE02.jpg,AMSA19.jpg,MS,2,num_8,32,num_6,1.36672581096,,,2017_Jun_28_1146,60.0040415894,MAFE4ImagesEEG,001,100826,
AFNE01.JPG,AFNE01.JPG,AFNE01.JPG,AFNE01.JPG,AFNE01.JPG,AFNE01.JPG,1,6,16,8,,,,,,,,,,,,,,,,,,,,,,,AMNE11.jpg,AMNE17.jpg,AMSA17.jpg,AMSA08.jpg,AMSA08.jpg,MS,2,num_4,32,num_8,0.983437028306,,,2017_Jun_28_1146,60.0040415894,MAFE4ImagesEEG,001,100826,
AFNE01.JPG,AFNE01.JPG,AFNE01.JPG,AFNE01.JPG,AFNE01.JPG,AFNE01.JPG,1,7,17,6,,,,,,,,,,,,,,,,,,,,,,,AMSA03.jpg,AMNE17.jpg,AMNE06.jpg,AMSA14.jpg,AMSA03.jpg,MS,2,num_8,32,num_2,1.26676872588,,,2017_Jun_28_1146,60.0040415894,MAFE4ImagesEEG,001,100826,
AFNE01.JPG,AFNE01.JPG,AFNE01.JPG,AFNE01.JPG,AFNE01.JPG,AFNE01.JPG,1,8,18,4,,,,,,,,,,,,,,,,,,,,,,,AMSA14.jpg,AMNE03.jpg,AMNE17.jpg,AMSA20.jpg,AMSA14.jpg,MS,2,num_8,32,num_4,0.91676657692,,,2017_Jun_28_1146,60.0040415894,MAFE4ImagesEEG,001,100826,
AFNE01.JPG,AFNE01.JPG,AFNE01.JPG,AFNE01.JPG,AFNE01.JPG,AFNE01.JPG,1,9,19,0,,,,,,,,,,,,,,,,,,,,,,,AMSA04.jpg,AMSA06.jpg,AMNE17.jpg,AMNE07.jpg,AMSA04.jpg,MS,2,num_8,32,num_6,0.833466760843,,,2017_Jun_28_1146,60.0040415894,MAFE4ImagesEEG,001,100826,
AFNE01.JPG,AFNE01.JPG,AFNE01.JPG,AFNE01.JPG,AFNE01.JPG,AFNE01.JPG,2,0,20,6,,,,,,,,,,,,,,,,,,,,,,,AMNE20.jpg,AMNE12.jpg,AMSA10.jpg,AMSA11.jpg,AMNE12.jpg,MN,1,num_6,32,num_8,1.45008047346,,,2017_Jun_28_1146,60.0040415894,MAFE4ImagesEEG,001,100826,
AFNE01.JPG,AFNE01.JPG,AFNE01.JPG,AFNE01.JPG,AFNE01.JPG,AFNE01.JPG,2,1,21,8,,,,,,,,,,,,,,,,,,,,,,,AMSA11.jpg,AMNE07.jpg,AMSA01.jpg,AMNE03.jpg,AMSA11.jpg,MS,2,num_8,32,num_6,1.21678761741,,,2017_Jun_28_1146,60.0040415894,MAFE4ImagesEEG,001,100826,
AFNE01.JPG,AFNE01.JPG,AFNE01.JPG,AFNE01.JPG,AFNE01.JPG,AFNE01.JPG,2,2,22,9,,,,,,,,,,,,,,,,,,,,,,,AMSA16.jpg,AMNE08.jpg,AMNE15.jpg,AMSA07.jpg,AMSA07.jpg,MS,2,num_4,16,num_4,0.650162710997,,,2017_Jun_28_1146,60.0040415894,MAFE4ImagesEEG,001,100826,
AFNE01.JPG,AFNE01.JPG,AFNE01.JPG,AFNE01.JPG,AFNE01.JPG,AFNE01.JPG,2,3,23,5,,,,,,,,,,,,,,,,,,,,,,,AMNE03.jpg,AMSA15.jpg,AMNE04.jpg,AMSA16.jpg,AMNE03.jpg,MN,1,num_8,32,num_2,0.683439722518,,,2017_Jun_28_1146,60.0040415894,MAFE4ImagesEEG,001,100826,
AFNE01.JPG,AFNE01.JPG,AFNE01.JPG,AFNE01.JPG,AFNE01.JPG,AFNE01.JPG,2,4,24,3,,,,,,,,,,,,,,,,,,,,,,,AMNE10.jpg,AMNE18.jpg,AMSA16.jpg,AMSA19.jpg,AMSA16.jpg,MS,2,num_2,16,num_2,0.850178555513,,,2017_Jun_28_1146,60.0040415894,MAFE4ImagesEEG,001,100826,
AFNE01.JPG,AFNE01.JPG,AFNE01.JPG,AFNE01.JPG,AFNE01.JPG,AFNE01.JPG,2,5,25,7,,,,,,,,,,,,,,,,,,,,,,,AMNE16.jpg,AMNE20.jpg,AMSA18.jpg,AMSA10.jpg,AMNE16.jpg,MN,1,num_8,16,num_8,0.866768790031,,,2017_Jun_28_1146,60.0040415894,MAFE4ImagesEEG,001,100826,
AFNE01.JPG,AFNE01.JPG,AFNE01.JPG,AFNE01.JPG,AFNE01.JPG,AFNE01.JPG,2,6,26,1,,,,,,,,,,,,,,,,,,,,,,,AMNE17.jpg,AMSA11.jpg,AMSA18.jpg,AMNE04.jpg,AMSA11.jpg,MS,2,num_6,32,num_2,0.966748006118,,,2017_Jun_28_1146,60.0040415894,MAFE4ImagesEEG,001,100826,
AFNE01.JPG,AFNE01.JPG,AFNE01.JPG,AFNE01.JPG,AFNE01.JPG,AFNE01.JPG,2,7,27,2,,,,,,,,,,,,,,,,,,,,,,,AMSA10.jpg,AMNE05.jpg,AMSA13.jpg,AMNE19.jpg,AMSA10.jpg,MS,2,num_8,32,num_6,0.966752496461,,,2017_Jun_28_1146,60.0040415894,MAFE4ImagesEEG,001,100826,
AFNE01.JPG,AFNE01.JPG,AFNE01.JPG,AFNE01.JPG,AFNE01.JPG,AFNE01.JPG,2,8,28,4,,,,,,,,,,,,,,,,,,,,,,,AMSA06.jpg,AMNE04.jpg,AMSA05.jpg,AMNE19.jpg,AMSA05.jpg,MS,2,num_2,16,num_2,0.816732193693,,,2017_Jun_28_1146,60.0040415894,MAFE4ImagesEEG,001,100826,
AFNE01.JPG,AFNE01.JPG,AFNE01.JPG,AFNE01.JPG,AFNE01.JPG,AFNE01.JPG,2,9,29,0,,,,,,,,,,,,,,,,,,,,,,,AMNE17.jpg,AMSA08.jpg,AMNE06.jpg,AMSA01.jpg,AMSA08.jpg,MS,2,num_6,32,num_2,1.0501328181,,,2017_Jun_28_1146,60.0040415894,MAFE4ImagesEEG,001,100826,
AFNE01.JPG,AFNE01.JPG,AFNE01.JPG,AFNE01.JPG,AFNE01.JPG,AFNE01.JPG,3,0,30,2,,,,,,,,,,,,,,,,,,,,,,,AMNE06.jpg,AMSA16.jpg,AMNE14.jpg,AMSA15.jpg,AMSA15.jpg,MS,2,num_4,32,num_8,0.88314829889,,,2017_Jun_28_1146,60.0040415894,MAFE4ImagesEEG,001,100826,
AFNE01.JPG,AFNE01.JPG,AFNE01.JPG,AFNE01.JPG,AFNE01.JPG,AFNE01.JPG,3,1,31,3,,,,,,,,,,,,,,,,,,,,,,,AMNE16.jpg,AMSA18.jpg,AMNE11.jpg,AMSA20.jpg,AMNE16.jpg,MN,1,num_8,32,num_6,0.866752432325,,,2017_Jun_28_1146,60.0040415894,MAFE4ImagesEEG,001,100826,
AFNE01.JPG,AFNE01.JPG,AFNE01.JPG,AFNE01.JPG,AFNE01.JPG,AFNE01.JPG,3,2,32,1,,,,,,,,,,,,,,,,,,,,,,,AMNE04.jpg,AMSA13.jpg,AMNE11.jpg,AMSA18.jpg,AMNE04.jpg,MN,1,num_8,32,num_2,0.633452199269,,,2017_Jun_28_1146,60.0040415894,MAFE4ImagesEEG,001,100826,
AFNE01.JPG,AFNE01.JPG,AFNE01.JPG,AFNE01.JPG,AFNE01.JPG,AFNE01.JPG,3,3,33,9,,,,,,,,,,,,,,,,,,,,,,,AMSA06.jpg,AMSA12.jpg,AMNE19.jpg,AMNE17.jpg,AMNE17.jpg,MN,1,num_4,32,num_2,1.05009272569,,,2017_Jun_28_1146,60.0040415894,MAFE4ImagesEEG,001,100826,
AFNE01.JPG,AFNE01.JPG,AFNE01.JPG,AFNE01.JPG,AFNE01.JPG,AFNE01.JPG,3,4,34,6,,,,,,,,,,,,,,,,,,,,,,,AMNE16.jpg,AMSA13.jpg,AMNE02.jpg,AMSA16.jpg,AMSA16.jpg,MS,2,num_4,16,num_4,1.35044220313,,,2017_Jun_28_1146,60.0040415894,MAFE4ImagesEEG,001,100826,
AFNE01.JPG,AFNE01.JPG,AFNE01.JPG,AFNE01.JPG,AFNE01.JPG,AFNE01.JPG,3,5,35,4,,,,,,,,,,,,,,,,,,,,,,,AMNE17.jpg,AMSA01.jpg,AMNE13.jpg,AMSA18.jpg,AMNE13.jpg,MN,1,num_2,16,num_2,0.650172653914,,,2017_Jun_28_1146,60.0040415894,MAFE4ImagesEEG,001,100826,
AFNE01.JPG,AFNE01.JPG,AFNE01.JPG,AFNE01.JPG,AFNE01.JPG,AFNE01.JPG,3,6,36,0,,,,,,,,,,,,,,,,,,,,,,,AMSA04.jpg,AMNE03.jpg,AMNE07.jpg,AMSA15.jpg,AMNE03.jpg,MN,1,num_6,16,num_6,0.733459640425,,,2017_Jun_28_1146,60.0040415894,MAFE4ImagesEEG,001,100826,
AFNE01.JPG,AFNE01.JPG,AFNE01.JPG,AFNE01.JPG,AFNE01.JPG,AFNE01.JPG,3,7,37,5,,,,,,,,,,,,,,,,,,,,,,,AMSA15.jpg,AMNE14.jpg,AMNE12.jpg,AMSA10.jpg,AMSA10.jpg,MS,2,num_4,32,num_8,1.2335346934,,,2017_Jun_28_1146,60.0040415894,MAFE4ImagesEEG,001,100826,
AFNE01.JPG,AFNE01.JPG,AFNE01.JPG,AFNE01.JPG,AFNE01.JPG,AFNE01.JPG,3,8,38,8,,,,,,,,,,,,,,,,,,,,,,,AMSA16.jpg,AMNE11.jpg,AMNE08.jpg,AMSA17.jpg,AMSA17.jpg,MS,2,num_4,32,num_2,1.26671516243,,,2017_Jun_28_1146,60.0040415894,MAFE4ImagesEEG,001,100826,
AFNE01.JPG,AFNE01.JPG,AFNE01.JPG,AFNE01.JPG,AFNE01.JPG,AFNE01.JPG,3,9,39,7,,,,,,,,,,,,,,,,,,,,,,,AMNE04.jpg,AMSA12.jpg,AMSA11.jpg,AMNE08.jpg,AMSA11.jpg,MS,2,num_2,16,num_2,0.900081403612,,,2017_Jun_28_1146,60.0040415894,MAFE4ImagesEEG,001,100826,
AFNE01.JPG,AFNE01.JPG,AFNE01.JPG,AFNE01.JPG,AFNE01.JPG,AFNE01.JPG,4,0,40,6,,,,,,,,,,,,,,,,,,,,,,,AMSA08.jpg,AMSA10.jpg,AMNE09.jpg,AMNE20.jpg,AMNE09.jpg,MN,1,num_2,16,num_2,0.733535014137,,,2017_Jun_28_1146,60.0040415894,MAFE4ImagesEEG,001,100826,
AFNE01.JPG,AFNE01.JPG,AFNE01.JPG,AFNE01.JPG,AFNE01.JPG,AFNE01.JPG,4,1,41,5,,,,,,,,,,,,,,,,,,,,,,,AMNE19.jpg,AMNE20.jpg,AMSA10.jpg,AMSA06.jpg,AMNE19.jpg,MN,1,num_8,16,num_8,1.79973750706,,,2017_Jun_28_1146,60.0040415894,MAFE4ImagesEEG,001,100826,
AFNE01.JPG,AFNE01.JPG,AFNE01.JPG,AFNE01.JPG,AFNE01.JPG,AFNE01.JPG,4,2,42,3,,,,,,,,,,,,,,,,,,,,,,,AMSA09.jpg,AMSA20.jpg,AMNE10.jpg,AMNE18.jpg,AMSA20.jpg,MS,2,num_6,32,num_2,1.05013345958,,,2017_Jun_28_1146,60.0040415894,MAFE4ImagesEEG,001,100826,
AFNE01.JPG,AFNE01.JPG,AFNE01.JPG,AFNE01.JPG,AFNE01.JPG,AFNE01.JPG,4,3,43,2,,,,,,,,,,,,,,,,,,,,,,,AMNE10.jpg,AMNE06.jpg,AMSA06.jpg,AMSA13.jpg,AMNE10.jpg,MN,1,num_8,16,num_8,0.950107094817,,,2017_Jun_28_1146,60.0040415894,MAFE4ImagesEEG,001,100826,
AFNE01.JPG,AFNE01.JPG,AFNE01.JPG,AFNE01.JPG,AFNE01.JPG,AFNE01.JPG,4,4,44,1,,,,,,,,,,,,,,,,,,,,,,,AMNE13.jpg,AMNE20.jpg,AMSA02.jpg,AMSA20.jpg,AMNE20.jpg,MN,1,num_6,16,num_6,2.05030730022,,,2017_Jun_28_1146,60.0040415894,MAFE4ImagesEEG,001,100826,
AFNE01.JPG,AFNE01.JPG,AFNE01.JPG,AFNE01.JPG,AFNE01.JPG,AFNE01.JPG,4,5,45,9,,,,,,,,,,,,,,,,,,,,,,,AMSA07.jpg,AMNE11.jpg,AMSA10.jpg,AMNE14.jpg,AMSA10.jpg,MS,2,num_2,32,num_8,2.76660001706,,,2017_Jun_28_1146,60.0040415894,MAFE4ImagesEEG,001,100826,
AFNE01.JPG,AFNE01.JPG,AFNE01.JPG,AFNE01.JPG,AFNE01.JPG,AFNE01.JPG,4,6,46,4,,,,,,,,,,,,,,,,,,,,,,,AMNE09.jpg,AMNE14.jpg,AMSA18.jpg,AMSA16.jpg,AMSA18.jpg,MS,2,num_2,16,num_2,0.483525231597,,,2017_Jun_28_1146,60.0040415894,MAFE4ImagesEEG,001,100826,
AFNE01.JPG,AFNE01.JPG,AFNE01.JPG,AFNE01.JPG,AFNE01.JPG,AFNE01.JPG,4,7,47,0,,,,,,,,,,,,,,,,,,,,,,,AMSA20.jpg,AMNE19.jpg,AMSA05.jpg,AMNE17.jpg,AMSA20.jpg,MS,2,num_8,32,num_6,0.716679849051,,,2017_Jun_28_1146,60.0040415894,MAFE4ImagesEEG,001,100826,
AFNE01.JPG,AFNE01.JPG,AFNE01.JPG,AFNE01.JPG,AFNE01.JPG,AFNE01.JPG,4,8,48,7,,,,,,,,,,,,,,,,,,,,,,,AMSA04.jpg,AMNE11.jpg,AMNE16.jpg,AMSA14.jpg,AMSA04.jpg,MS,2,num_8,32,num_2,0.916755671788,,,2017_Jun_28_1146,60.0040415894,MAFE4ImagesEEG,001,100826,
AFNE01.JPG,AFNE01.JPG,AFNE01.JPG,AFNE01.JPG,AFNE01.JPG,AFNE01.JPG,4,9,49,8,,,,,,,,,,,,,,,,,,,,,,,AMSA16.jpg,AMNE14.jpg,AMSA05.jpg,AMNE03.jpg,AMSA05.jpg,MS,2,num_2,16,num_2,0.48347198889,,,2017_Jun_28_1146,60.0040415894,MAFE4ImagesEEG,001,100826,
AFNE01.JPG,AFNE01.JPG,AFNE01.JPG,AFNE01.JPG,AFNE01.JPG,AFNE01.JPG,5,0,50,3,,,,,,,,,,,,,,,,,,,,,,,AMSA20.jpg,AMSA19.jpg,AMNE03.jpg,AMNE01.jpg,AMNE01.jpg,MN,1,num_4,16,num_4,0.416787424969,,,2017_Jun_28_1146,60.0040415894,MAFE4ImagesEEG,001,100826,
AFNE01.JPG,AFNE01.JPG,AFNE01.JPG,AFNE01.JPG,AFNE01.JPG,AFNE01.JPG,5,1,51,0,,,,,,,,,,,,,,,,,,,,,,,AMNE10.jpg,AMNE08.jpg,AMSA10.jpg,AMSA06.jpg,AMSA06.jpg,MS,2,num_4,16,num_4,0.633442256352,,,2017_Jun_28_1146,60.0040415894,MAFE4ImagesEEG,001,100826,
AFNE01.JPG,AFNE01.JPG,AFNE01.JPG,AFNE01.JPG,AFNE01.JPG,AFNE01.JPG,5,2,52,2,,,,,,,,,,,,,,,,,,,,,,,AMNE04.jpg,AMSA02.jpg,AMSA11.jpg,AMNE07.jpg,AMNE07.jpg,MN,1,num_4,16,num_4,0.533486454224,,,2017_Jun_28_1146,60.0040415894,MAFE4ImagesEEG,001,100826,
AFNE01.JPG,AFNE01.JPG,AFNE01.JPG,AFNE01.JPG,AFNE01.JPG,AFNE01.JPG,5,3,53,8,,,,,,,,,,,,,,,,,,,,,,,AMSA03.jpg,AMSA17.jpg,AMNE14.jpg,AMNE06.jpg,AMNE14.jpg,MN,1,num_2,32,num_6,0.833487929616,,,2017_Jun_28_1146,60.0040415894,MAFE4ImagesEEG,001,100826,
AFNE01.JPG,AFNE01.JPG,AFNE01.JPG,AFNE01.JPG,AFNE01.JPG,AFNE01.JPG,5,4,54,1,,,,,,,,,,,,,,,,,,,,,,,AMSA02.jpg,AMSA18.jpg,AMNE20.jpg,AMNE06.jpg,AMNE20.jpg,MN,1,num_2,16,num_2,1.33344013948,,,2017_Jun_28_1146,60.0040415894,MAFE4ImagesEEG,001,100826,
AFNE01.JPG,AFNE01.JPG,AFNE01.JPG,AFNE01.JPG,AFNE01.JPG,AFNE01.JPG,5,5,55,7,,,,,,,,,,,,,,,,,,,,,,,AMNE13.jpg,AMNE19.jpg,AMSA20.jpg,AMSA17.jpg,AMNE13.jpg,MN,1,num_8,32,num_2,0.683413742649,,,2017_Jun_28_1146,60.0040415894,MAFE4ImagesEEG,001,100826,
AFNE01.JPG,AFNE01.JPG,AFNE01.JPG,AFNE01.JPG,AFNE01.JPG,AFNE01.JPG,5,6,56,9,,,,,,,,,,,,,,,,,,,,,,,AMNE07.jpg,AMSA17.jpg,AMSA04.jpg,AMNE11.jpg,AMSA17.jpg,MS,2,num_6,16,num_6,0.966849359713,,,2017_Jun_28_1146,60.0040415894,MAFE4ImagesEEG,001,100826,
AFNE01.JPG,AFNE01.JPG,AFNE01.JPG,AFNE01.JPG,AFNE01.JPG,AFNE01.JPG,5,7,57,4,,,,,,,,,,,,,,,,,,,,,,,AMSA08.jpg,AMSA04.jpg,AMNE18.jpg,AMNE07.jpg,AMNE07.jpg,MN,1,num_4,16,num_4,0.883487320214,,,2017_Jun_28_1146,60.0040415894,MAFE4ImagesEEG,001,100826,
AFNE01.JPG,AFNE01.JPG,AFNE01.JPG,AFNE01.JPG,AFNE01.JPG,AFNE01.JPG,5,8,58,6,,,,,,,,,,,,,,,,,,,,,,,AMNE05.jpg,AMSA04.jpg,AMSA17.jpg,AMNE11.jpg,AMNE11.jpg,MN,1,num_4,16,num_4,0.450204599532,,,2017_Jun_28_1146,60.0040415894,MAFE4ImagesEEG,001,100826,
AFNE01.JPG,AFNE01.JPG,AFNE01.JPG,AFNE01.JPG,AFNE01.JPG,AFNE01.JPG,5,9,59,5,,,,,,,,,,,,,,,,,,,,,,,AMNE18.jpg,AMSA03.jpg,AMNE07.jpg,AMSA06.jpg,AMNE07.jpg,MN,1,num_2,16,num_2,1.20011751883,,,2017_Jun_28_1146,60.0040415894,MAFE4ImagesEEG,001,100826,
,,,,,,,,,,,,,,,,,,,,,,,,,,,,,,,,,,,,,,,,,,,space,12.41590443,2017_Jun_28_1146,60.0040415894,MAFE4ImagesEEG,001,100826,
AFNE01.JPG,AFNE01.JPG,AFNE01.JPG,AFNE01.JPG,AFNE01.JPG,AFNE01.JPG,,,,,0,0,0,7,,,,,,,,,,,,,,,,,,,AFSA04.jpg,AFNE05.jpg,AFNE19.jpg,AFSA20.jpg,AFSA04.jpg,FS,4,num_8,16,num_8,0.666792396441,,,2017_Jun_28_1146,60.0040415894,MAFE4ImagesEEG,001,100826,
AFNE01.JPG,AFNE01.JPG,AFNE01.JPG,AFNE01.JPG,AFNE01.JPG,AFNE01.JPG,,,,,0,1,1,5,,,,,,,,,,,,,,,,,,,AFSA11.jpg,AFNE11.jpg,AFNE04.jpg,AFSA19.jpg,AFNE11.jpg,FN,3,num_6,16,num_6,1.08340694297,,,2017_Jun_28_1146,60.0040415894,MAFE4ImagesEEG,001,100826,
AFNE01.JPG,AFNE01.JPG,AFNE01.JPG,AFNE01.JPG,AFNE01.JPG,AFNE01.JPG,,,,,0,2,2,3,,,,,,,,,,,,,,,,,,,AFSA08.jpg,AFSA20.jpg,AFNE02.jpg,AFNE19.jpg,AFSA20.jpg,FS,4,num_6,32,num_4,1.11672982022,,,2017_Jun_28_1146,60.0040415894,MAFE4ImagesEEG,001,100826,
AFNE01.JPG,AFNE01.JPG,AFNE01.JPG,AFNE01.JPG,AFNE01.JPG,AFNE01.JPG,,,,,0,3,3,4,,,,,,,,,,,,,,,,,,,AFNE15.jpg,AFNE17.jpg,AFSA19.jpg,AFSA08.jpg,AFNE17.jpg,FN,3,num_6,16,num_6,0.783780411686,,,2017_Jun_28_1146,60.0040415894,MAFE4ImagesEEG,001,100826,
AFNE01.JPG,AFNE01.JPG,AFNE01.JPG,AFNE01.JPG,AFNE01.JPG,AFNE01.JPG,,,,,0,4,4,2,,,,,,,,,,,,,,,,,,,AFNE19.jpg,AFSA05.jpg,AFNE11.jpg,AFSA11.jpg,AFSA05.jpg,FS,4,num_6,16,num_6,1.55008246204,,,2017_Jun_28_1146,60.0040415894,MAFE4ImagesEEG,001,100826,
AFNE01.JPG,AFNE01.JPG,AFNE01.JPG,AFNE01.JPG,AFNE01.JPG,AFNE01.JPG,,,,,0,5,5,8,,,,,,,,,,,,,,,,,,,AFSA01.jpg,AFSA20.jpg,AFNE07.jpg,AFNE01.jpg,AFNE07.jpg,FN,3,num_2,16,num_2,1.21677863672,,,2017_Jun_28_1146,60.0040415894,MAFE4ImagesEEG,001,100826,
AFNE01.JPG,AFNE01.JPG,AFNE01.JPG,AFNE01.JPG,AFNE01.JPG,AFNE01.JPG,,,,,0,6,6,1,,,,,,,,,,,,,,,,,,,AFNE06.jpg,AFSA04.jpg,AFSA17.jpg,AFNE11.jpg,AFNE06.jpg,FN,3,num_8,16,num_8,1.15007354549,,,2017_Jun_28_1146,60.0040415894,MAFE4ImagesEEG,001,100826,
AFNE01.JPG,AFNE01.JPG,AFNE01.JPG,AFNE01.JPG,AFNE01.JPG,AFNE01.JPG,,,,,0,7,7,0,,,,,,,,,,,,,,,,,,,AFNE19.jpg,AFNE14.jpg,AFSA13.jpg,AFSA12.jpg,AFSA12.jpg,FS,4,num_4,32,num_8,1.03346688913,,,2017_Jun_28_1146,60.0040415894,MAFE4ImagesEEG,001,100826,
AFNE01.JPG,AFNE01.JPG,AFNE01.JPG,AFNE01.JPG,AFNE01.JPG,AFNE01.JPG,,,,,0,8,8,6,,,,,,,,,,,,,,,,,,,AFNE20.jpg,AFNE12.jpg,AFSA17.jpg,AFSA15.jpg,AFSA15.jpg,FS,4,num_4,16,num_4,0.616804552454,,,2017_Jun_28_1146,60.0040415894,MAFE4ImagesEEG,001,100826,
AFNE01.JPG,AFNE01.JPG,AFNE01.JPG,AFNE01.JPG,AFNE01.JPG,AFNE01.JPG,,,,,0,9,9,9,,,,,,,,,,,,,,,,,,,AFSA03.jpg,AFNE14.jpg,AFNE19.jpg,AFSA06.jpg,AFNE14.jpg,FN,3,num_6,16,num_6,0.883449472996,,,2017_Jun_28_1146,60.0040415894,MAFE4ImagesEEG,001,100826,
AFNE01.JPG,AFNE01.JPG,AFNE01.JPG,AFNE01.JPG,AFNE01.JPG,AFNE01.JPG,,,,,1,0,10,7,,,,,,,,,,,,,,,,,,,AFNE14.jpg,AFSA09.jpg,AFSA07.jpg,AFNE11.jpg,AFNE14.jpg,FN,3,num_8,16,num_8,0.566803558162,,,2017_Jun_28_1146,60.0040415894,MAFE4ImagesEEG,001,100826,
AFNE01.JPG,AFNE01.JPG,AFNE01.JPG,AFNE01.JPG,AFNE01.JPG,AFNE01.JPG,,,,,1,1,11,0,,,,,,,,,,,,,,,,,,,AFNE14.jpg,AFSA08.jpg,AFNE04.jpg,AFSA10.jpg,AFSA08.jpg,FS,4,num_6,16,num_6,1.20008929378,,,2017_Jun_28_1146,60.0040415894,MAFE4ImagesEEG,001,100826,
AFNE01.JPG,AFNE01.JPG,AFNE01.JPG,AFNE01.JPG,AFNE01.JPG,AFNE01.JPG,,,,,1,2,12,5,,,,,,,,,,,,,,,,,,,AFNE01.jpg,AFSA05.jpg,AFNE05.jpg,AFSA11.jpg,AFNE05.jpg,FN,3,num_2,16,num_2,1.05008342427,,,2017_Jun_28_1146,60.0040415894,MAFE4ImagesEEG,001,100826,
AFNE01.JPG,AFNE01.JPG,AFNE01.JPG,AFNE01.JPG,AFNE01.JPG,AFNE01.JPG,,,,,1,3,13,1,,,,,,,,,,,,,,,,,,,AFSA04.jpg,AFNE02.jpg,AFNE06.jpg,AFSA02.jpg,AFSA02.jpg,FS,4,num_4,16,num_4,0.550184136373,,,2017_Jun_28_1146,60.0040415894,MAFE4ImagesEEG,001,100826,
AFNE01.JPG,AFNE01.JPG,AFNE01.JPG,AFNE01.JPG,AFNE01.JPG,AFNE01.JPG,,,,,1,4,14,6,,,,,,,,,,,,,,,,,,,AFSA04.jpg,AFNE19.jpg,AFNE09.jpg,AFSA06.jpg,AFNE09.jpg,FN,3,num_2,16,num_2,1.05019728668,,,2017_Jun_28_1146,60.0040415894,MAFE4ImagesEEG,001,100826,
AFNE01.JPG,AFNE01.JPG,AFNE01.JPG,AFNE01.JPG,AFNE01.JPG,AFNE01.JPG,,,,,1,5,15,2,,,,,,,,,,,,,,,,,,,AFSA04.jpg,AFNE09.jpg,AFSA01.jpg,AFNE14.jpg,AFNE09.jpg,FN,3,num_6,32,num_4,0.683472117176,,,2017_Jun_28_1146,60.0040415894,MAFE4ImagesEEG,001,100826,
AFNE01.JPG,AFNE01.JPG,AFNE01.JPG,AFNE01.JPG,AFNE01.JPG,AFNE01.JPG,,,,,1,6,16,9,,,,,,,,,,,,,,,,,,,AFSA19.jpg,AFSA12.jpg,AFNE01.jpg,AFNE08.jpg,AFSA19.jpg,FS,4,num_8,32,num_6,1.36672837687,,,2017_Jun_28_1146,60.0040415894,MAFE4ImagesEEG,001,100826,
AFNE01.JPG,AFNE01.JPG,AFNE01.JPG,AFNE01.JPG,AFNE01.JPG,AFNE01.JPG,,,,,1,7,17,3,,,,,,,,,,,,,,,,,,,AFSA05.jpg,AFSA09.jpg,AFNE15.jpg,AFNE01.jpg,AFSA09.jpg,FS,4,num_6,32,num_2,0.833449120168,,,2017_Jun_28_1146,60.0040415894,MAFE4ImagesEEG,001,100826,
AFNE01.JPG,AFNE01.JPG,AFNE01.JPG,AFNE01.JPG,AFNE01.JPG,AFNE01.JPG,,,,,1,8,18,8,,,,,,,,,,,,,,,,,,,AFNE09.jpg,AFSA01.jpg,AFNE17.jpg,AFSA04.jpg,AFNE09.jpg,FN,3,num_8,16,num_8,1.06671214748,,,2017_Jun_28_1146,60.0040415894,MAFE4ImagesEEG,001,100826,
AFNE01.JPG,AFNE01.JPG,AFNE01.JPG,AFNE01.JPG,AFNE01.JPG,AFNE01.JPG,,,,,1,9,19,4,,,,,,,,,,,,,,,,,,,AFNE07.jpg,AFNE13.jpg,AFSA03.jpg,AFSA13.jpg,AFNE13.jpg,FN,3,num_6,32,num_8,0.833478307453,,,2017_Jun_28_1146,60.0040415894,MAFE4ImagesEEG,001,100826,
AFNE01.JPG,AFNE01.JPG,AFNE01.JPG,AFNE01.JPG,AFNE01.JPG,AFNE01.JPG,,,,,2,0,20,7,,,,,,,,,,,,,,,,,,,AFNE13.jpg,AFSA06.jpg,AFNE20.jpg,AFSA10.jpg,AFNE13.jpg,FN,3,num_8,16,num_8,0.883412267256,,,2017_Jun_28_1146,60.0040415894,MAFE4ImagesEEG,001,100826,
AFNE01.JPG,AFNE01.JPG,AFNE01.JPG,AFNE01.JPG,AFNE01.JPG,AFNE01.JPG,,,,,2,1,21,5,,,,,,,,,,,,,,,,,,,AFNE19.jpg,AFSA17.jpg,AFNE10.jpg,AFSA10.jpg,AFSA17.jpg,FS,4,num_6,32,num_4,1.05009272569,,,2017_Jun_28_1146,60.0040415894,MAFE4ImagesEEG,001,100826,
AFNE01.JPG,AFNE01.JPG,AFNE01.JPG,AFNE01.JPG,AFNE01.JPG,AFNE01.JPG,,,,,2,2,22,9,,,,,,,,,,,,,,,,,,,AFSA01.jpg,AFNE08.jpg,AFSA02.jpg,AFNE17.jpg,AFSA02.jpg,FS,4,num_2,16,num_2,0.783449729584,,,2017_Jun_28_1146,60.0040415894,MAFE4ImagesEEG,001,100826,
AFNE01.JPG,AFNE01.JPG,AFNE01.JPG,AFNE01.JPG,AFNE01.JPG,AFNE01.JPG,,,,,2,3,23,4,,,,,,,,,,,,,,,,,,,AFNE06.jpg,AFSA03.jpg,AFSA15.jpg,AFNE19.jpg,AFSA03.jpg,FS,4,num_6,16,num_6,1.10007415491,,,2017_Jun_28_1146,60.0040415894,MAFE4ImagesEEG,001,100826,
AFNE01.JPG,AFNE01.JPG,AFNE01.JPG,AFNE01.JPG,AFNE01.JPG,AFNE01.JPG,,,,,2,4,24,1,,,,,,,,,,,,,,,,,,,AFNE20.jpg,AFNE07.jpg,AFSA10.jpg,AFSA04.jpg,AFSA10.jpg,FS,4,num_2,32,num_6,0.833448157966,,,2017_Jun_28_1146,60.0040415894,MAFE4ImagesEEG,001,100826,
AFNE01.JPG,AFNE01.JPG,AFNE01.JPG,AFNE01.JPG,AFNE01.JPG,AFNE01.JPG,,,,,2,5,25,2,,,,,,,,,,,,,,,,,,,AFSA11.jpg,AFNE05.jpg,AFNE18.jpg,AFSA20.jpg,AFNE05.jpg,FN,3,num_6,32,num_8,1.06674229696,,,2017_Jun_28_1146,60.0040415894,MAFE4ImagesEEG,001,100826,
AFNE01.JPG,AFNE01.JPG,AFNE01.JPG,AFNE01.JPG,AFNE01.JPG,AFNE01.JPG,,,,,2,6,26,8,,,,,,,,,,,,,,,,,,,AFSA15.jpg,AFSA06.jpg,AFNE07.jpg,AFNE03.jpg,AFNE03.jpg,FN,3,num_4,32,num_6,0.93343571329,,,2017_Jun_28_1146,60.0040415894,MAFE4ImagesEEG,001,100826,
AFNE01.JPG,AFNE01.JPG,AFNE01.JPG,AFNE01.JPG,AFNE01.JPG,AFNE01.JPG,,,,,2,7,27,6,,,,,,,,,,,,,,,,,,,AFSA18.jpg,AFSA11.jpg,AFNE15.jpg,AFNE08.jpg,AFNE15.jpg,FN,3,num_2,16,num_2,0.883481226178,,,2017_Jun_28_1146,60.0040415894,MAFE4ImagesEEG,001,100826,
AFNE01.JPG,AFNE01.JPG,AFNE01.JPG,AFNE01.JPG,AFNE01.JPG,AFNE01.JPG,,,,,2,8,28,0,,,,,,,,,,,,,,,,,,,AFSA03.jpg,AFNE08.jpg,AFSA05.jpg,AFNE19.jpg,AFNE08.jpg,FN,3,num_6,16,num_6,0.816750475817,,,2017_Jun_28_1146,60.0040415894,MAFE4ImagesEEG,001,100826,
AFNE01.JPG,AFNE01.JPG,AFNE01.JPG,AFNE01.JPG,AFNE01.JPG,AFNE01.JPG,,,,,2,9,29,3,,,,,,,,,,,,,,,,,,,AFSA19.jpg,AFSA18.jpg,AFNE18.jpg,AFNE14.jpg,AFNE18.jpg,FN,3,num_2,16,num_2,0.733454187852,,,2017_Jun_28_1146,60.0040415894,MAFE4ImagesEEG,001,100826,
AFNE01.JPG,AFNE01.JPG,AFNE01.JPG,AFNE01.JPG,AFNE01.JPG,AFNE01.JPG,,,,,3,0,30,2,,,,,,,,,,,,,,,,,,,AFSA19.jpg,AFNE12.jpg,AFNE06.jpg,AFSA01.jpg,AFSA19.jpg,FS,4,num_8,32,num_4,1.06682729286,,,2017_Jun_28_1146,60.0040415894,MAFE4ImagesEEG,001,100826,
AFNE01.JPG,AFNE01.JPG,AFNE01.JPG,AFNE01.JPG,AFNE01.JPG,AFNE01.JPG,,,,,3,1,31,1,,,,,,,,,,,,,,,,,,,AFNE04.jpg,AFSA18.jpg,AFSA02.jpg,AFNE09.jpg,AFNE09.jpg,FN,3,num_4,16,num_4,0.850164122254,,,2017_Jun_28_1146,60.0040415894,MAFE4ImagesEEG,001,100826,
AFNE01.JPG,AFNE01.JPG,AFNE01.JPG,AFNE01.JPG,AFNE01.JPG,AFNE01.JPG,,,,,3,2,32,3,,,,,,,,,,,,,,,,,,,AFNE01.jpg,AFNE16.jpg,AFSA20.jpg,AFSA06.jpg,AFSA20.jpg,FS,4,num_2,16,num_2,0.800124639252,,,2017_Jun_28_1146,60.0040415894,MAFE4ImagesEEG,001,100826,
AFNE01.JPG,AFNE01.JPG,AFNE01.JPG,AFNE01.JPG,AFNE01.JPG,AFNE01.JPG,,,,,3,3,33,8,,,,,,,,,,,,,,,,,,,AFSA17.jpg,AFSA11.jpg,AFNE05.jpg,AFNE08.jpg,AFNE08.jpg,FN,3,num_4,32,num_2,0.883452359645,,,2017_Jun_28_1146,60.0040415894,MAFE4ImagesEEG,001,100826,
AFNE01.JPG,AFNE01.JPG,AFNE01.JPG,AFNE01.JPG,AFNE01.JPG,AFNE01.JPG,,,,,3,4,34,4,,,,,,,,,,,,,,,,,,,AFSA19.jpg,AFNE15.jpg,AFNE09.jpg,AFSA14.jpg,AFNE15.jpg,FN,3,num_6,16,num_6,1.08319204772,,,2017_Jun_28_1146,60.0040415894,MAFE4ImagesEEG,001,100826,
AFNE01.JPG,AFNE01.JPG,AFNE01.JPG,AFNE01.JPG,AFNE01.JPG,AFNE01.JPG,,,,,3,5,35,6,,,,,,,,,,,,,,,,,,,AFNE04.jpg,AFNE09.jpg,AFSA16.jpg,AFSA15.jpg,AFSA16.jpg,FS,4,num_2,32,num_4,0.716816804677,,,2017_Jun_28_1146,60.0040415894,MAFE4ImagesEEG,001,100826,
AFNE01.JPG,AFNE01.JPG,AFNE01.JPG,AFNE01.JPG,AFNE01.JPG,AFNE01.JPG,,,,,3,6,36,0,,,,,,,,,,,,,,,,,,,AFSA03.jpg,AFNE11.jpg,AFSA02.jpg,AFNE14.jpg,AFSA03.jpg,FS,4,num_8,32,num_6,0.833481514826,,,2017_Jun_28_1146,60.0040415894,MAFE4ImagesEEG,001,100826,
AFNE01.JPG,AFNE01.JPG,AFNE01.JPG,AFNE01.JPG,AFNE01.JPG,AFNE01.JPG,,,,,3,7,37,5,,,,,,,,,,,,,,,,,,,AFSA09.jpg,AFNE11.jpg,AFNE04.jpg,AFSA13.jpg,AFSA09.jpg,FS,4,num_8,32,num_4,0.700114952924,,,2017_Jun_28_1146,60.0040415894,MAFE4ImagesEEG,001,100826,
AFNE01.JPG,AFNE01.JPG,AFNE01.JPG,AFNE01.JPG,AFNE01.JPG,AFNE01.JPG,,,,,3,8,38,7,,,,,,,,,,,,,,,,,,,AFNE13.jpg,AFSA10.jpg,AFNE15.jpg,AFSA14.jpg,AFNE15.jpg,FN,3,num_2,16,num_2,0.683488474882,,,2017_Jun_28_1146,60.0040415894,MAFE4ImagesEEG,001,100826,
AFNE01.JPG,AFNE01.JPG,AFNE01.JPG,AFNE01.JPG,AFNE01.JPG,AFNE01.JPG,,,,,3,9,39,9,,,,,,,,,,,,,,,,,,,AFSA13.jpg,AFNE01.jpg,AFSA11.jpg,AFNE12.jpg,AFSA11.jpg,FS,4,num_2,16,num_2,0.700119443281,,,2017_Jun_28_1146,60.0040415894,MAFE4ImagesEEG,001,100826,
AFNE01.JPG,AFNE01.JPG,AFNE01.JPG,AFNE01.JPG,AFNE01.JPG,AFNE01.JPG,,,,,4,0,40,1,,,,,,,,,,,,,,,,,,,AFSA13.jpg,AFNE17.jpg,AFSA04.jpg,AFNE07.jpg,AFNE07.jpg,FN,3,num_4,16,num_4,0.566792332291,,,2017_Jun_28_1146,60.0040415894,MAFE4ImagesEEG,001,100826,
AFNE01.JPG,AFNE01.JPG,AFNE01.JPG,AFNE01.JPG,AFNE01.JPG,AFNE01.JPG,,,,,4,1,41,0,,,,,,,,,,,,,,,,,,,AFSA07.jpg,AFNE17.jpg,AFNE10.jpg,AFSA12.jpg,AFNE10.jpg,FN,3,num_2,16,num_2,0.866755639727,,,2017_Jun_28_1146,60.0040415894,MAFE4ImagesEEG,001,100826,
AFNE01.JPG,AFNE01.JPG,AFNE01.JPG,AFNE01.JPG,AFNE01.JPG,AFNE01.JPG,,,,,4,2,42,8,,,,,,,,,,,,,,,,,,,AFNE05.jpg,AFNE11.jpg,AFSA17.jpg,AFSA02.jpg,AFNE11.jpg,FN,3,num_6,32,num_2,0.700296170573,,,2017_Jun_28_1146,60.0040415894,MAFE4ImagesEEG,001,100826,
AFNE01.JPG,AFNE01.JPG,AFNE01.JPG,AFNE01.JPG,AFNE01.JPG,AFNE01.JPG,,,,,4,3,43,3,,,,,,,,,,,,,,,,,,,AFNE03.jpg,AFSA14.jpg,AFNE14.jpg,AFSA12.jpg,AFSA12.jpg,FS,4,num_4,32,num_8,1.98339821887,,,2017_Jun_28_1146,60.0040415894,MAFE4ImagesEEG,001,100826,
AFNE01.JPG,AFNE01.JPG,AFNE01.JPG,AFNE01.JPG,AFNE01.JPG,AFNE01.JPG,,,,,4,4,44,9,,,,,,,,,,,,,,,,,,,AFNE07.jpg,AFSA14.jpg,AFNE17.jpg,AFSA08.jpg,AFNE17.jpg,FN,3,num_2,32,num_6,1.08344992202,,,2017_Jun_28_1146,60.0040415894,MAFE4ImagesEEG,001,100826,
AFNE01.JPG,AFNE01.JPG,AFNE01.JPG,AFNE01.JPG,AFNE01.JPG,AFNE01.JPG,,,,,4,5,45,7,,,,,,,,,,,,,,,,,,,AFSA18.jpg,AFNE15.jpg,AFNE20.jpg,AFSA11.jpg,AFSA18.jpg,FS,4,num_8,16,num_8,0.966855774488,,,2017_Jun_28_1146,60.0040415894,MAFE4ImagesEEG,001,100826,
AFNE01.JPG,AFNE01.JPG,AFNE01.JPG,AFNE01.JPG,AFNE01.JPG,AFNE01.JPG,,,,,4,6,46,4,,,,,,,,,,,,,,,,,,,AFSA01.jpg,AFNE18.jpg,AFSA10.jpg,AFNE14.jpg,AFSA10.jpg,FS,4,num_2,32,num_4,0.916798971579,,,2017_Jun_28_1146,60.0040415894,MAFE4ImagesEEG,001,100826,
AFNE01.JPG,AFNE01.JPG,AFNE01.JPG,AFNE01.JPG,AFNE01.JPG,AFNE01.JPG,,,,,4,7,47,6,,,,,,,,,,,,,,,,,,,AFNE09.jpg,AFSA17.jpg,AFNE12.jpg,AFSA07.jpg,AFSA07.jpg,FS,4,num_4,32,num_6,1.51674771747,,,2017_Jun_28_1146,60.0040415894,MAFE4ImagesEEG,001,100826,
AFNE01.JPG,AFNE01.JPG,AFNE01.JPG,AFNE01.JPG,AFNE01.JPG,AFNE01.JPG,,,,,4,8,48,2,,,,,,,,,,,,,,,,,,,AFSA18.jpg,AFNE12.jpg,AFSA20.jpg,AFNE10.jpg,AFSA18.jpg,FS,4,num_8,16,num_8,1.30007877355,,,2017_Jun_28_1146,60.0040415894,MAFE4ImagesEEG,001,100826,
AFNE01.JPG,AFNE01.JPG,AFNE01.JPG,AFNE01.JPG,AFNE01.JPG,AFNE01.JPG,,,,,4,9,49,5,,,,,,,,,,,,,,,,,,,AFSA20.jpg,AFNE05.jpg,AFSA03.jpg,AFNE07.jpg,AFNE05.jpg,FN,3,num_6,16,num_6,0.917139275858,,,2017_Jun_28_1146,60.0040415894,MAFE4ImagesEEG,001,100826,
AFNE01.JPG,AFNE01.JPG,AFNE01.JPG,AFNE01.JPG,AFNE01.JPG,AFNE01.JPG,,,,,5,0,50,3,,,,,,,,,,,,,,,,,,,AFSA07.jpg,AFSA02.jpg,AFNE13.jpg,AFNE01.jpg,AFNE13.jpg,FN,3,num_2,32,num_6,0.800151902091,,,2017_Jun_28_1146,60.0040415894,MAFE4ImagesEEG,001,100826,
AFNE01.JPG,AFNE01.JPG,AFNE01.JPG,AFNE01.JPG,AFNE01.JPG,AFNE01.JPG,,,,,5,1,51,5,,,,,,,,,,,,,,,,,,,AFSA14.jpg,AFNE03.jpg,AFSA05.jpg,AFNE16.jpg,AFSA05.jpg,FS,4,num_2,16,num_2,0.483457876355,,,2017_Jun_28_1146,60.0040415894,MAFE4ImagesEEG,001,100826,
AFNE01.JPG,AFNE01.JPG,AFNE01.JPG,AFNE01.JPG,AFNE01.JPG,AFNE01.JPG,,,,,5,2,52,7,,,,,,,,,,,,,,,,,,,AFNE18.jpg,AFSA13.jpg,AFSA07.jpg,AFNE17.jpg,AFNE17.jpg,FN,3,num_4,32,num_8,1.13345027484,,,2017_Jun_28_1146,60.0040415894,MAFE4ImagesEEG,001,100826,
AFNE01.JPG,AFNE01.JPG,AFNE01.JPG,AFNE01.JPG,AFNE01.JPG,AFNE01.JPG,,,,,5,3,53,1,,,,,,,,,,,,,,,,,,,AFSA05.jpg,AFNE13.jpg,AFSA03.jpg,AFNE11.jpg,AFSA03.jpg,FS,4,num_2,16,num_2,0.683448703217,,,2017_Jun_28_1146,60.0040415894,MAFE4ImagesEEG,001,100826,
AFNE01.JPG,AFNE01.JPG,AFNE01.JPG,AFNE01.JPG,AFNE01.JPG,AFNE01.JPG,,,,,5,4,54,0,,,,,,,,,,,,,,,,,,,AFNE03.jpg,AFNE16.jpg,AFSA14.jpg,AFSA05.jpg,AFSA05.jpg,FS,4,num_4,32,num_2,1.10016973517,,,2017_Jun_28_1146,60.0040415894,MAFE4ImagesEEG,001,100826,
AFNE01.JPG,AFNE01.JPG,AFNE01.JPG,AFNE01.JPG,AFNE01.JPG,AFNE01.JPG,,,,,5,5,55,4,,,,,,,,,,,,,,,,,,,AFNE19.jpg,AFSA06.jpg,AFNE03.jpg,AFSA11.jpg,AFSA11.jpg,FS,4,num_4,16,num_4,0.927066153745,,,2017_Jun_28_1146,60.0040415894,MAFE4ImagesEEG,001,100826,
AFNE01.JPG,AFNE01.JPG,AFNE01.JPG,AFNE01.JPG,AFNE01.JPG,AFNE01.JPG,,,,,5,6,56,9,,,,,,,,,,,,,,,,,,,AFSA11.jpg,AFSA10.jpg,AFNE18.jpg,AFNE09.jpg,AFNE09.jpg,FN,3,num_4,32,num_2,1.00021874411,,,2017_Jun_28_1146,60.0040415894,MAFE4ImagesEEG,001,100826,
AFNE01.JPG,AFNE01.JPG,AFNE01.JPG,AFNE01.JPG,AFNE01.JPG,AFNE01.JPG,,,,,5,7,57,2,,,,,,,,,,,,,,,,,,,AFSA02.jpg,AFNE13.jpg,AFNE06.jpg,AFSA01.jpg,AFNE13.jpg,FN,3,num_6,16,num_6,1.20006427614,,,2017_Jun_28_1146,60.0040415894,MAFE4ImagesEEG,001,100826,
AFNE01.JPG,AFNE01.JPG,AFNE01.JPG,AFNE01.JPG,AFNE01.JPG,AFNE01.JPG,,,,,5,8,58,8,,,,,,,,,,,,,,,,,,,AFNE12.jpg,AFSA06.jpg,AFSA04.jpg,AFNE04.jpg,AFNE04.jpg,FN,3,num_4,16,num_4,1.28339712835,,,2017_Jun_28_1146,60.0040415894,MAFE4ImagesEEG,001,100826,
AFNE01.JPG,AFNE01.JPG,AFNE01.JPG,AFNE01.JPG,AFNE01.JPG,AFNE01.JPG,,,,,5,9,59,6,,,,,,,,,,,,,,,,,,,AFSA03.jpg,AFNE13.jpg,AFSA15.jpg,AFNE15.jpg,AFSA03.jpg,FS,4,num_8,32,num_6,0.9500333248,,,2017_Jun_28_1146,60.0040415894,MAFE4ImagesEEG,001,100826,
,,,,,,,,,,,,,,,,,,,,,,,,,,,,,,,,,,,,,,,,,,,space,11.5328587676,2017_Jun_28_1146,60.0040415894,MAFE4ImagesEEG,001,100826,
AFNE01.JPG,AFNE01.JPG,AFNE01.JPG,AFNE01.JPG,AFNE01.JPG,AFNE01.JPG,,,,,,,,,0,0,0,0,,,,,,,,,,,,,,,AMSA03.jpg,AMNE11.jpg,AMNE14.jpg,AMSA15.jpg,AMNE14.jpg,MN,1,num_2,32,num_4,0.766760386658,,,2017_Jun_28_1146,60.0040415894,MAFE4ImagesEEG,001,100826,
AFNE01.JPG,AFNE01.JPG,AFNE01.JPG,AFNE01.JPG,AFNE01.JPG,AFNE01.JPG,,,,,,,,,0,1,1,3,,,,,,,,,,,,,,,AMNE17.jpg,AMSA07.jpg,AMNE12.jpg,AMSA03.jpg,AMNE12.jpg,MN,1,num_2,16,num_2,1.03341236347,,,2017_Jun_28_1146,60.0040415894,MAFE4ImagesEEG,001,100826,
AFNE01.JPG,AFNE01.JPG,AFNE01.JPG,AFNE01.JPG,AFNE01.JPG,AFNE01.JPG,,,,,,,,,0,2,2,5,,,,,,,,,,,,,,,AMNE18.jpg,AMSA04.jpg,AMNE15.jpg,AMSA11.jpg,AMSA11.jpg,MS,2,num_4,16,num_4,0.966759873481,,,2017_Jun_28_1146,60.0040415894,MAFE4ImagesEEG,001,100826,
AFNE01.JPG,AFNE01.JPG,AFNE01.JPG,AFNE01.JPG,AFNE01.JPG,AFNE01.JPG,,,,,,,,,0,3,3,1,,,,,,,,,,,,,,,AMNE03.jpg,AMNE13.jpg,AMSA05.jpg,AMSA08.jpg,AMNE13.jpg,MN,1,num_6,32,num_4,0.90012181674,,,2017_Jun_28_1146,60.0040415894,MAFE4ImagesEEG,001,100826,
AFNE01.JPG,AFNE01.JPG,AFNE01.JPG,AFNE01.JPG,AFNE01.JPG,AFNE01.JPG,,,,,,,,,0,4,4,7,,,,,,,,,,,,,,,AMSA13.jpg,AMNE12.jpg,AMSA18.jpg,AMNE17.jpg,AMSA18.jpg,MS,2,num_2,16,num_2,0.433463296853,,,2017_Jun_28_1146,60.0040415894,MAFE4ImagesEEG,001,100826,
AFNE01.JPG,AFNE01.JPG,AFNE01.JPG,AFNE01.JPG,AFNE01.JPG,AFNE01.JPG,,,,,,,,,0,5,5,4,,,,,,,,,,,,,,,AMNE03.jpg,AMNE14.jpg,AMSA13.jpg,AMSA04.jpg,AMNE14.jpg,MN,1,num_6,16,num_6,0.68316837716,,,2017_Jun_28_1146,60.0040415894,MAFE4ImagesEEG,001,100826,
AFNE01.JPG,AFNE01.JPG,AFNE01.JPG,AFNE01.JPG,AFNE01.JPG,AFNE01.JPG,,,,,,,,,0,6,6,6,,,,,,,,,,,,,,,AMNE02.jpg,AMSA10.jpg,AMSA15.jpg,AMNE06.jpg,AMNE02.jpg,MN,1,num_8,32,num_4,0.900084931738,,,2017_Jun_28_1146,60.0040415894,MAFE4ImagesEEG,001,100826,
AFNE01.JPG,AFNE01.JPG,AFNE01.JPG,AFNE01.JPG,AFNE01.JPG,AFNE01.JPG,,,,,,,,,0,7,7,9,,,,,,,,,,,,,,,AMSA02.jpg,AMNE17.jpg,AMNE15.jpg,AMSA09.jpg,AMNE15.jpg,MN,1,num_2,16,num_2,1.18347436236,,,2017_Jun_28_1146,60.0040415894,MAFE4ImagesEEG,001,100826,
AFNE01.JPG,AFNE01.JPG,AFNE01.JPG,AFNE01.JPG,AFNE01.JPG,AFNE01.JPG,,,,,,,,,0,8,8,2,,,,,,,,,,,,,,,AMNE03.jpg,AMNE04.jpg,AMSA19.jpg,AMSA08.jpg,AMNE03.jpg,MN,1,num_8,32,num_4,0.80047424497,,,2017_Jun_28_1146,60.0040415894,MAFE4ImagesEEG,001,100826,
AFNE01.JPG,AFNE01.JPG,AFNE01.JPG,AFNE01.JPG,AFNE01.JPG,AFNE01.JPG,,,,,,,,,0,9,9,8,,,,,,,,,,,,,,,AMSA19.jpg,AMSA04.jpg,AMNE08.jpg,AMNE17.jpg,AMSA19.jpg,MS,2,num_8,32,num_6,1.03343385299,,,2017_Jun_28_1146,60.0040415894,MAFE4ImagesEEG,001,100826,
AFNE01.JPG,AFNE01.JPG,AFNE01.JPG,AFNE01.JPG,AFNE01.JPG,AFNE01.JPG,,,,,,,,,1,0,10,7,,,,,,,,,,,,,,,AMNE07.jpg,AMNE20.jpg,AMSA08.jpg,AMSA16.jpg,AMNE07.jpg,MN,1,num_8,32,num_4,1.30009224459,,,2017_Jun_28_1146,60.0040415894,MAFE4ImagesEEG,001,100826,
AFNE01.JPG,AFNE01.JPG,AFNE01.JPG,AFNE01.JPG,AFNE01.JPG,AFNE01.JPG,,,,,,,,,1,1,11,2,,,,,,,,,,,,,,,AMNE14.jpg,AMSA10.jpg,AMNE16.jpg,AMSA12.jpg,AMNE16.jpg,MN,1,num_2,16,num_2,1.1001216243,,,2017_Jun_28_1146,60.0040415894,MAFE4ImagesEEG,001,100826,
AFNE01.JPG,AFNE01.JPG,AFNE01.JPG,AFNE01.JPG,AFNE01.JPG,AFNE01.JPG,,,,,,,,,1,2,12,0,,,,,,,,,,,,,,,AMNE07.jpg,AMSA09.jpg,AMSA07.jpg,AMNE03.jpg,AMNE07.jpg,MN,1,num_8,32,num_4,1.00009269362,,,2017_Jun_28_1146,60.0040415894,MAFE4ImagesEEG,001,100826,
AFNE01.JPG,AFNE01.JPG,AFNE01.JPG,AFNE01.JPG,AFNE01.JPG,AFNE01.JPG,,,,,,,,,1,3,13,3,,,,,,,,,,,,,,,AMSA10.jpg,AMNE06.jpg,AMSA19.jpg,AMNE11.jpg,AMNE06.jpg,MN,1,num_6,16,num_6,0.950092661544,,,2017_Jun_28_1146,60.0040415894,MAFE4ImagesEEG,001,100826,
AFNE01.JPG,AFNE01.JPG,AFNE01.JPG,AFNE01.JPG,AFNE01.JPG,AFNE01.JPG,,,,,,,,,1,4,14,9,,,,,,,,,,,,,,,AMSA13.jpg,AMNE17.jpg,AMNE03.jpg,AMSA19.jpg,AMSA13.jpg,MS,2,num_8,32,num_6,0.816796341518,,,2017_Jun_28_1146,60.0040415894,MAFE4ImagesEEG,001,100826,
AFNE01.JPG,AFNE01.JPG,AFNE01.JPG,AFNE01.JPG,AFNE01.JPG,AFNE01.JPG,,,,,,,,,1,5,15,6,,,,,,,,,,,,,,,AMNE15.jpg,AMSA15.jpg,AMNE08.jpg,AMSA14.jpg,AMNE08.jpg,MN,1,num_2,16,num_2,1.06671599636,,,2017_Jun_28_1146,60.0040415894,MAFE4ImagesEEG,001,100826,
AFNE01.JPG,AFNE01.JPG,AFNE01.JPG,AFNE01.JPG,AFNE01.JPG,AFNE01.JPG,,,,,,,,,1,6,16,5,,,,,,,,,,,,,,,AMNE16.jpg,AMSA01.jpg,AMSA05.jpg,AMNE10.jpg,AMSA01.jpg,MS,2,num_6,32,num_4,1.34976993379,,,2017_Jun_28_1146,60.0040415894,MAFE4ImagesEEG,001,100826,
AFNE01.JPG,AFNE01.JPG,AFNE01.JPG,AFNE01.JPG,AFNE01.JPG,AFNE01.JPG,,,,,,,,,1,7,17,8,,,,,,,,,,,,,,,AMSA15.jpg,AMNE13.jpg,AMSA02.jpg,AMNE06.jpg,AMNE13.jpg,MN,1,num_6,32,num_8,1.23346188561,,,2017_Jun_28_1146,60.0040415894,MAFE4ImagesEEG,001,100826,
AFNE01.JPG,AFNE01.JPG,AFNE01.JPG,AFNE01.JPG,AFNE01.JPG,AFNE01.JPG,,,,,,,,,1,8,18,1,,,,,,,,,,,,,,,AMNE03.jpg,AMNE12.jpg,AMSA04.jpg,AMSA13.jpg,AMNE03.jpg,MN,1,num_8,32,num_6,0.783496557502,,,2017_Jun_28_1146,60.0040415894,MAFE4ImagesEEG,001,100826,
AFNE01.JPG,AFNE01.JPG,AFNE01.JPG,AFNE01.JPG,AFNE01.JPG,AFNE01.JPG,,,,,,,,,1,9,19,4,,,,,,,,,,,,,,,AMNE05.jpg,AMSA13.jpg,AMNE09.jpg,AMSA12.jpg,AMSA13.jpg,MS,2,num_6,16,num_6,1.31699038873,,,2017_Jun_28_1146,60.0040415894,MAFE4ImagesEEG,001,100826,
AFNE01.JPG,AFNE01.JPG,AFNE01.JPG,AFNE01.JPG,AFNE01.JPG,AFNE01.JPG,,,,,,,,,2,0,20,5,,,,,,,,,,,,,,,AMSA04.jpg,AMNE02.jpg,AMNE14.jpg,AMSA13.jpg,AMNE02.jpg,MN,1,num_6,32,num_4,0.683428175907,,,2017_Jun_28_1146,60.0040415894,MAFE4ImagesEEG,001,100826,
AFNE01.JPG,AFNE01.JPG,AFNE01.JPG,AFNE01.JPG,AFNE01.JPG,AFNE01.JPG,,,,,,,,,2,1,21,9,,,,,,,,,,,,,,,AMNE06.jpg,AMSA03.jpg,AMNE10.jpg,AMSA20.jpg,AMSA03.jpg,MS,2,num_6,32,num_2,0.916787745708,,,2017_Jun_28_1146,60.0040415894,MAFE4ImagesEEG,001,100826,
AFNE01.JPG,AFNE01.JPG,AFNE01.JPG,AFNE01.JPG,AFNE01.JPG,AFNE01.JPG,,,,,,,,,2,2,22,7,,,,,,,,,,,,,,,AMSA03.jpg,AMNE12.jpg,AMNE14.jpg,AMSA16.jpg,AMNE12.jpg,MN,1,num_6,16,num_6,0.75015860553,,,2017_Jun_28_1146,60.0040415894,MAFE4ImagesEEG,001,100826,
AFNE01.JPG,AFNE01.JPG,AFNE01.JPG,AFNE01.JPG,AFNE01.JPG,AFNE01.JPG,,,,,,,,,2,3,23,6,,,,,,,,,,,,,,,AMSA07.jpg,AMSA13.jpg,AMNE20.jpg,AMNE16.jpg,AMSA13.jpg,MS,2,num_6,32,num_4,0.666785019435,,,2017_Jun_28_1146,60.0040415894,MAFE4ImagesEEG,001,100826,
AFNE01.JPG,AFNE01.JPG,AFNE01.JPG,AFNE01.JPG,AFNE01.JPG,AFNE01.JPG,,,,,,,,,2,4,24,2,,,,,,,,,,,,,,,AMSA05.jpg,AMSA15.jpg,AMNE06.jpg,AMNE16.jpg,AMNE06.jpg,MN,1,num_2,32,num_4,0.966824662799,,,2017_Jun_28_1146,60.0040415894,MAFE4ImagesEEG,001,100826,
AFNE01.JPG,AFNE01.JPG,AFNE01.JPG,AFNE01.JPG,AFNE01.JPG,AFNE01.JPG,,,,,,,,,2,5,25,0,,,,,,,,,,,,,,,AMSA15.jpg,AMNE02.jpg,AMSA10.jpg,AMNE12.jpg,AMNE02.jpg,MN,1,num_6,32,num_4,0.716765486402,,,2017_Jun_28_1146,60.0040415894,MAFE4ImagesEEG,001,100826,
AFNE01.JPG,AFNE01.JPG,AFNE01.JPG,AFNE01.JPG,AFNE01.JPG,AFNE01.JPG,,,,,,,,,2,6,26,1,,,,,,,,,,,,,,,AMSA07.jpg,AMNE09.jpg,AMSA13.jpg,AMNE03.jpg,AMNE09.jpg,MN,1,num_6,32,num_2,0.78345614436,,,2017_Jun_28_1146,60.0040415894,MAFE4ImagesEEG,001,100826,
AFNE01.JPG,AFNE01.JPG,AFNE01.JPG,AFNE01.JPG,AFNE01.JPG,AFNE01.JPG,,,,,,,,,2,7,27,3,,,,,,,,,,,,,,,AMNE04.jpg,AMSA15.jpg,AMNE18.jpg,AMSA18.jpg,AMNE04.jpg,MN,1,num_8,32,num_4,0.833464515657,,,2017_Jun_28_1146,60.0040415894,MAFE4ImagesEEG,001,100826,
AFNE01.JPG,AFNE01.JPG,AFNE01.JPG,AFNE01.JPG,AFNE01.JPG,AFNE01.JPG,,,,,,,,,2,8,28,4,,,,,,,,,,,,,,,AMSA10.jpg,AMNE03.jpg,AMNE16.jpg,AMSA05.jpg,AMSA05.jpg,MS,2,num_4,32,num_8,4.63316000588,,,2017_Jun_28_1146,60.0040415894,MAFE4ImagesEEG,001,100826,
AFNE01.JPG,AFNE01.JPG,AFNE01.JPG,AFNE01.JPG,AFNE01.JPG,AFNE01.JPG,,,,,,,,,2,9,29,8,,,,,,,,,,,,,,,AMSA01.jpg,AMNE06.jpg,AMSA16.jpg,AMNE20.jpg,AMNE06.jpg,MN,1,num_6,32,num_2,0.867036927986,,,2017_Jun_28_1146,60.0040415894,MAFE4ImagesEEG,001,100826,
AFNE01.JPG,AFNE01.JPG,AFNE01.JPG,AFNE01.JPG,AFNE01.JPG,AFNE01.JPG,,,,,,,,,3,0,30,3,,,,,,,,,,,,,,,AMNE17.jpg,AMSA07.jpg,AMSA02.jpg,AMNE16.jpg,AMNE16.jpg,MN,1,num_4,32,num_6,0.650123901549,,,2017_Jun_28_1146,60.0040415894,MAFE4ImagesEEG,001,100826,
AFNE01.JPG,AFNE01.JPG,AFNE01.JPG,AFNE01.JPG,AFNE01.JPG,AFNE01.JPG,,,,,,,,,3,1,31,1,,,,,,,,,,,,,,,AMSA20.jpg,AMNE19.jpg,AMSA16.jpg,AMNE20.jpg,AMNE19.jpg,MN,1,num_6,32,num_4,0.916786462752,,,2017_Jun_28_1146,60.0040415894,MAFE4ImagesEEG,001,100826,
AFNE01.JPG,AFNE01.JPG,AFNE01.JPG,AFNE01.JPG,AFNE01.JPG,AFNE01.JPG,,,,,,,,,3,2,32,4,,,,,,,,,,,,,,,AMNE16.jpg,AMSA01.jpg,AMNE05.jpg,AMSA15.jpg,AMNE05.jpg,MN,1,num_2,32,num_4,0.850149368242,,,2017_Jun_28_1146,60.0040415894,MAFE4ImagesEEG,001,100826,
AFNE01.JPG,AFNE01.JPG,AFNE01.JPG,AFNE01.JPG,AFNE01.JPG,AFNE01.JPG,,,,,,,,,3,3,33,5,,,,,,,,,,,,,,,AMSA04.jpg,AMSA06.jpg,AMNE04.jpg,AMNE11.jpg,AMNE11.jpg,MN,1,num_4,16,num_4,0.816748551384,,,2017_Jun_28_1146,60.0040415894,MAFE4ImagesEEG,001,100826,
AFNE01.JPG,AFNE01.JPG,AFNE01.JPG,AFNE01.JPG,AFNE01.JPG,AFNE01.JPG,,,,,,,,,3,4,34,7,,,,,,,,,,,,,,,AMNE13.jpg,AMSA16.jpg,AMSA03.jpg,AMNE19.jpg,AMSA16.jpg,MS,2,num_6,16,num_6,0.683470192758,,,2017_Jun_28_1146,60.0040415894,MAFE4ImagesEEG,001,100826,
AFNE01.JPG,AFNE01.JPG,AFNE01.JPG,AFNE01.JPG,AFNE01.JPG,AFNE01.JPG,,,,,,,,,3,5,35,2,,,,,,,,,,,,,,,AMSA04.jpg,AMSA03.jpg,AMNE17.jpg,AMNE06.jpg,AMNE17.jpg,MN,1,num_2,16,num_2,1.76670169138,,,2017_Jun_28_1146,60.0040415894,MAFE4ImagesEEG,001,100826,
AFNE01.JPG,AFNE01.JPG,AFNE01.JPG,AFNE01.JPG,AFNE01.JPG,AFNE01.JPG,,,,,,,,,3,6,36,0,,,,,,,,,,,,,,,AMNE15.jpg,AMNE06.jpg,AMSA13.jpg,AMSA14.jpg,AMNE06.jpg,MN,1,num_6,32,num_2,0.866727414672,,,2017_Jun_28_1146,60.0040415894,MAFE4ImagesEEG,001,100826,
AFNE01.JPG,AFNE01.JPG,AFNE01.JPG,AFNE01.JPG,AFNE01.JPG,AFNE01.JPG,,,,,,,,,3,7,37,8,,,,,,,,,,,,,,,AMNE16.jpg,AMSA06.jpg,AMNE03.jpg,AMSA08.jpg,AMSA06.jpg,MS,2,num_6,32,num_2,0.850132369058,,,2017_Jun_28_1146,60.0040415894,MAFE4ImagesEEG,001,100826,
AFNE01.JPG,AFNE01.JPG,AFNE01.JPG,AFNE01.JPG,AFNE01.JPG,AFNE01.JPG,,,,,,,,,3,8,38,6,,,,,,,,,,,,,,,AMSA05.jpg,AMNE11.jpg,AMNE16.jpg,AMSA10.jpg,AMNE11.jpg,MN,1,num_6,16,num_6,0.566647358166,,,2017_Jun_28_1146,60.0040415894,MAFE4ImagesEEG,001,100826,
AFNE01.JPG,AFNE01.JPG,AFNE01.JPG,AFNE01.JPG,AFNE01.JPG,AFNE01.JPG,,,,,,,,,3,9,39,9,,,,,,,,,,,,,,,AMSA04.jpg,AMNE01.jpg,AMNE16.jpg,AMSA15.jpg,AMNE01.jpg,MN,1,num_6,16,num_6,0.566865140077,,,2017_Jun_28_1146,60.0040415894,MAFE4ImagesEEG,001,100826,
AFNE01.JPG,AFNE01.JPG,AFNE01.JPG,AFNE01.JPG,AFNE01.JPG,AFNE01.JPG,,,,,,,,,4,0,40,9,,,,,,,,,,,,,,,AMSA10.jpg,AMSA02.jpg,AMNE13.jpg,AMNE11.jpg,AMSA10.jpg,MS,2,num_8,32,num_4,1.20002931556,,,2017_Jun_28_1146,60.0040415894,MAFE4ImagesEEG,001,100826,
AFNE01.JPG,AFNE01.JPG,AFNE01.JPG,AFNE01.JPG,AFNE01.JPG,AFNE01.JPG,,,,,,,,,4,1,41,7,,,,,,,,,,,,,,,AMSA05.jpg,AMNE06.jpg,AMSA03.jpg,AMNE15.jpg,AMSA03.jpg,MS,2,num_2,16,num_2,1.03348228462,,,2017_Jun_28_1146,60.0040415894,MAFE4ImagesEEG,001,100826,
AFNE01.JPG,AFNE01.JPG,AFNE01.JPG,AFNE01.JPG,AFNE01.JPG,AFNE01.JPG,,,,,,,,,4,2,42,8,,,,,,,,,,,,,,,AMNE03.jpg,AMSA16.jpg,AMSA14.jpg,AMNE07.jpg,AMNE03.jpg,MN,1,num_8,32,num_4,1.18336049994,,,2017_Jun_28_1146,60.0040415894,MAFE4ImagesEEG,001,100826,
AFNE01.JPG,AFNE01.JPG,AFNE01.JPG,AFNE01.JPG,AFNE01.JPG,AFNE01.JPG,,,,,,,,,4,3,43,5,,,,,,,,,,,,,,,AMSA09.jpg,AMSA14.jpg,AMNE06.jpg,AMNE07.jpg,AMSA14.jpg,MS,2,num_6,16,num_6,0.433548613481,,,2017_Jun_28_1146,60.0040415894,MAFE4ImagesEEG,001,100826,
AFNE01.JPG,AFNE01.JPG,AFNE01.JPG,AFNE01.JPG,AFNE01.JPG,AFNE01.JPG,,,,,,,,,4,4,44,2,,,,,,,,,,,,,,,AMSA01.jpg,AMNE10.jpg,AMNE05.jpg,AMSA10.jpg,AMNE05.jpg,MN,1,num_2,32,num_6,1.01675381151,,,2017_Jun_28_1146,60.0040415894,MAFE4ImagesEEG,001,100826,
AFNE01.JPG,AFNE01.JPG,AFNE01.JPG,AFNE01.JPG,AFNE01.JPG,AFNE01.JPG,,,,,,,,,4,5,45,4,,,,,,,,,,,,,,,AMSA07.jpg,AMNE20.jpg,AMSA20.jpg,AMNE12.jpg,AMNE12.jpg,MN,1,num_4,32,num_6,0.850137500893,,,2017_Jun_28_1146,60.0040415894,MAFE4ImagesEEG,001,100826,
AFNE01.JPG,AFNE01.JPG,AFNE01.JPG,AFNE01.JPG,AFNE01.JPG,AFNE01.JPG,,,,,,,,,4,6,46,6,,,,,,,,,,,,,,,AMSA03.jpg,AMNE15.jpg,AMNE18.jpg,AMSA01.jpg,AMSA01.jpg,MS,2,num_4,16,num_4,0.950128905068,,,2017_Jun_28_1146,60.0040415894,MAFE4ImagesEEG,001,100826,
AFNE01.JPG,AFNE01.JPG,AFNE01.JPG,AFNE01.JPG,AFNE01.JPG,AFNE01.JPG,,,,,,,,,4,7,47,3,,,,,,,,,,,,,,,AMSA15.jpg,AMSA08.jpg,AMNE05.jpg,AMNE12.jpg,AMNE12.jpg,MN,1,num_4,32,num_8,0.933451108765,,,2017_Jun_28_1146,60.0040415894,MAFE4ImagesEEG,001,100826,
AFNE01.JPG,AFNE01.JPG,AFNE01.JPG,AFNE01.JPG,AFNE01.JPG,AFNE01.JPG,,,,,,,,,4,8,48,1,,,,,,,,,,,,,,,AMSA09.jpg,AMNE11.jpg,AMNE01.jpg,AMSA15.jpg,AMSA15.jpg,MS,2,num_4,32,num_8,0.750146738181,,,2017_Jun_28_1146,60.0040415894,MAFE4ImagesEEG,001,100826,
AFNE01.JPG,AFNE01.JPG,AFNE01.JPG,AFNE01.JPG,AFNE01.JPG,AFNE01.JPG,,,,,,,,,4,9,49,0,,,,,,,,,,,,,,,AMSA04.jpg,AMNE03.jpg,AMNE20.jpg,AMSA17.jpg,AMNE20.jpg,MN,1,num_2,32,num_4,0.766426497154,,,2017_Jun_28_1146,60.0040415894,MAFE4ImagesEEG,001,100826,
AFNE01.JPG,AFNE01.JPG,AFNE01.JPG,AFNE01.JPG,AFNE01.JPG,AFNE01.JPG,,,,,,,,,5,0,50,1,,,,,,,,,,,,,,,AMNE09.jpg,AMSA18.jpg,AMSA01.jpg,AMNE12.jpg,AMNE12.jpg,MN,1,num_4,16,num_4,0.733443282734,,,2017_Jun_28_1146,60.0040415894,MAFE4ImagesEEG,001,100826,
AFNE01.JPG,AFNE01.JPG,AFNE01.JPG,AFNE01.JPG,AFNE01.JPG,AFNE01.JPG,,,,,,,,,5,1,51,3,,,,,,,,,,,,,,,AMNE15.jpg,AMSA05.jpg,AMSA10.jpg,AMNE04.jpg,AMNE04.jpg,MN,1,num_4,16,num_4,0.60015177379,,,2017_Jun_28_1146,60.0040415894,MAFE4ImagesEEG,001,100826,
AFNE01.JPG,AFNE01.JPG,AFNE01.JPG,AFNE01.JPG,AFNE01.JPG,AFNE01.JPG,,,,,,,,,5,2,52,2,,,,,,,,,,,,,,,AMNE10.jpg,AMSA17.jpg,AMSA01.jpg,AMNE20.jpg,AMNE20.jpg,MN,1,num_4,32,num_8,0.966734855829,,,2017_Jun_28_1146,60.0040415894,MAFE4ImagesEEG,001,100826,
AFNE01.JPG,AFNE01.JPG,AFNE01.JPG,AFNE01.JPG,AFNE01.JPG,AFNE01.JPG,,,,,,,,,5,3,53,7,,,,,,,,,,,,,,,AMSA14.jpg,AMNE13.jpg,AMSA05.jpg,AMNE15.jpg,AMNE13.jpg,MN,1,num_6,16,num_6,0.700144781673,,,2017_Jun_28_1146,60.0040415894,MAFE4ImagesEEG,001,100826,
AFNE01.JPG,AFNE01.JPG,AFNE01.JPG,AFNE01.JPG,AFNE01.JPG,AFNE01.JPG,,,,,,,,,5,4,54,6,,,,,,,,,,,,,,,AMSA01.jpg,AMNE05.jpg,AMSA14.jpg,AMNE13.jpg,AMNE05.jpg,MN,1,num_6,32,num_2,1.38338307998,,,2017_Jun_28_1146,60.0040415894,MAFE4ImagesEEG,001,100826,
AFNE01.JPG,AFNE01.JPG,AFNE01.JPG,AFNE01.JPG,AFNE01.JPG,AFNE01.JPG,,,,,,,,,5,5,55,8,,,,,,,,,,,,,,,AMNE18.jpg,AMSA11.jpg,AMSA09.jpg,AMNE16.jpg,AMSA09.jpg,MS,2,num_2,16,num_2,0.950112226652,,,2017_Jun_28_1146,60.0040415894,MAFE4ImagesEEG,001,100826,
AFNE01.JPG,AFNE01.JPG,AFNE01.JPG,AFNE01.JPG,AFNE01.JPG,AFNE01.JPG,,,,,,,,,5,6,56,0,,,,,,,,,,,,,,,AMSA19.jpg,AMNE19.jpg,AMSA05.jpg,AMNE07.jpg,AMSA19.jpg,MS,2,num_8,32,num_6,1.03348036019,,,2017_Jun_28_1146,60.0040415894,MAFE4ImagesEEG,001,100826,
AFNE01.JPG,AFNE01.JPG,AFNE01.JPG,AFNE01.JPG,AFNE01.JPG,AFNE01.JPG,,,,,,,,,5,7,57,9,,,,,,,,,,,,,,,AMSA17.jpg,AMSA16.jpg,AMNE11.jpg,AMNE15.jpg,AMNE11.jpg,MN,1,num_2,16,num_2,0.533483567575,,,2017_Jun_28_1146,60.0040415894,MAFE4ImagesEEG,001,100826,
AFNE01.JPG,AFNE01.JPG,AFNE01.JPG,AFNE01.JPG,AFNE01.JPG,AFNE01.JPG,,,,,,,,,5,8,58,5,,,,,,,,,,,,,,,AMNE18.jpg,AMSA18.jpg,AMSA09.jpg,AMNE16.jpg,AMSA18.jpg,MS,2,num_6,32,num_4,0.933491201155,,,2017_Jun_28_1146,60.0040415894,MAFE4ImagesEEG,001,100826,
AFNE01.JPG,AFNE01.JPG,AFNE01.JPG,AFNE01.JPG,AFNE01.JPG,AFNE01.JPG,,,,,,,,,5,9,59,4,,,,,,,,,,,,,,,AMNE12.jpg,AMNE18.jpg,AMSA01.jpg,AMSA04.jpg,AMSA04.jpg,MS,2,num_4,32,num_6,1.16672311677,,,2017_Jun_28_1146,60.0040415894,MAFE4ImagesEEG,001,100826,
,,,,,,,,,,,,,,,,,,,,,,,,,,,,,,,,,,,,,,,,,,,space,15.0319680749,2017_Jun_28_1146,60.0040415894,MAFE4ImagesEEG,001,100826,
AFNE01.JPG,AFNE01.JPG,AFNE01.JPG,AFNE01.JPG,AFNE01.JPG,AFNE01.JPG,,,,,,,,,,,,,0,0,0,1,,,,,,,,,,,AFSA12.jpg,AFNE05.jpg,AFSA01.jpg,AFNE03.jpg,AFSA01.jpg,FS,4,num_2,32,num_8,0.65013256151,,,2017_Jun_28_1146,60.0040415894,MAFE4ImagesEEG,001,100826,
AFNE01.JPG,AFNE01.JPG,AFNE01.JPG,AFNE01.JPG,AFNE01.JPG,AFNE01.JPG,,,,,,,,,,,,,0,1,1,9,,,,,,,,,,,AFSA03.jpg,AFSA07.jpg,AFNE15.jpg,AFNE08.jpg,AFNE15.jpg,FN,3,num_2,16,num_2,1.36670496293,,,2017_Jun_28_1146,60.0040415894,MAFE4ImagesEEG,001,100826,
AFNE01.JPG,AFNE01.JPG,AFNE01.JPG,AFNE01.JPG,AFNE01.JPG,AFNE01.JPG,,,,,,,,,,,,,0,2,2,3,,,,,,,,,,,AFSA11.jpg,AFNE10.jpg,AFSA17.jpg,AFNE11.jpg,AFNE10.jpg,FN,3,num_6,16,num_6,0.683520869541,,,2017_Jun_28_1146,60.0040415894,MAFE4ImagesEEG,001,100826,
AFNE01.JPG,AFNE01.JPG,AFNE01.JPG,AFNE01.JPG,AFNE01.JPG,AFNE01.JPG,,,,,,,,,,,,,0,3,3,6,,,,,,,,,,,AFSA13.jpg,AFNE11.jpg,AFNE13.jpg,AFSA12.jpg,AFNE13.jpg,FN,3,num_2,16,num_2,1.20010212336,,,2017_Jun_28_1146,60.0040415894,MAFE4ImagesEEG,001,100826,
AFNE01.JPG,AFNE01.JPG,AFNE01.JPG,AFNE01.JPG,AFNE01.JPG,AFNE01.JPG,,,,,,,,,,,,,0,4,4,2,,,,,,,,,,,AFSA17.jpg,AFNE02.jpg,AFSA14.jpg,AFNE01.jpg,AFNE01.jpg,FN,3,num_4,32,num_6,0.633494216119,,,2017_Jun_28_1146,60.0040415894,MAFE4ImagesEEG,001,100826,
AFNE01.JPG,AFNE01.JPG,AFNE01.JPG,AFNE01.JPG,AFNE01.JPG,AFNE01.JPG,,,,,,,,,,,,,0,5,5,8,,,,,,,,,,,AFNE06.jpg,AFSA12.jpg,AFNE19.jpg,AFSA11.jpg,AFNE19.jpg,FN,3,num_2,32,num_6,0.866727414657,,,2017_Jun_28_1146,60.0040415894,MAFE4ImagesEEG,001,100826,
AFNE01.JPG,AFNE01.JPG,AFNE01.JPG,AFNE01.JPG,AFNE01.JPG,AFNE01.JPG,,,,,,,,,,,,,0,6,6,5,,,,,,,,,,,AFNE06.jpg,AFSA17.jpg,AFSA12.jpg,AFNE03.jpg,AFSA17.jpg,FS,4,num_6,16,num_6,0.850106709928,,,2017_Jun_28_1146,60.0040415894,MAFE4ImagesEEG,001,100826,
AFNE01.JPG,AFNE01.JPG,AFNE01.JPG,AFNE01.JPG,AFNE01.JPG,AFNE01.JPG,,,,,,,,,,,,,0,7,7,7,,,,,,,,,,,AFNE20.jpg,AFNE08.jpg,AFSA16.jpg,AFSA07.jpg,AFSA07.jpg,FS,4,num_4,32,num_2,0.783461917687,,,2017_Jun_28_1146,60.0040415894,MAFE4ImagesEEG,001,100826,
AFNE01.JPG,AFNE01.JPG,AFNE01.JPG,AFNE01.JPG,AFNE01.JPG,AFNE01.JPG,,,,,,,,,,,,,0,8,8,0,,,,,,,,,,,AFNE01.jpg,AFSA10.jpg,AFSA06.jpg,AFNE12.jpg,AFSA10.jpg,FS,4,num_6,32,num_2,0.633479782846,,,2017_Jun_28_1146,60.0040415894,MAFE4ImagesEEG,001,100826,
AFNE01.JPG,AFNE01.JPG,AFNE01.JPG,AFNE01.JPG,AFNE01.JPG,AFNE01.JPG,,,,,,,,,,,,,0,9,9,4,,,,,,,,,,,AFSA10.jpg,AFNE12.jpg,AFSA08.jpg,AFNE07.jpg,AFNE07.jpg,FN,3,num_4,32,num_6,0.716788579637,,,2017_Jun_28_1146,60.0040415894,MAFE4ImagesEEG,001,100826,
AFNE01.JPG,AFNE01.JPG,AFNE01.JPG,AFNE01.JPG,AFNE01.JPG,AFNE01.JPG,,,,,,,,,,,,,1,0,10,9,,,,,,,,,,,AFSA14.jpg,AFNE15.jpg,AFNE01.jpg,AFSA06.jpg,AFSA14.jpg,FS,4,num_8,16,num_8,1.71673405397,,,2017_Jun_28_1146,60.0040415894,MAFE4ImagesEEG,001,100826,
AFNE01.JPG,AFNE01.JPG,AFNE01.JPG,AFNE01.JPG,AFNE01.JPG,AFNE01.JPG,,,,,,,,,,,,,1,1,11,2,,,,,,,,,,,AFNE17.jpg,AFNE19.jpg,AFSA02.jpg,AFSA13.jpg,AFSA13.jpg,FS,4,num_4,32,num_2,0.583473335981,,,2017_Jun_28_1146,60.0040415894,MAFE4ImagesEEG,001,100826,
AFNE01.JPG,AFNE01.JPG,AFNE01.JPG,AFNE01.JPG,AFNE01.JPG,AFNE01.JPG,,,,,,,,,,,,,1,2,12,7,,,,,,,,,,,AFNE17.jpg,AFSA10.jpg,AFNE02.jpg,AFSA12.jpg,AFNE17.jpg,FN,3,num_8,32,num_2,0.583455695334,,,2017_Jun_28_1146,60.0040415894,MAFE4ImagesEEG,001,100826,
AFNE01.JPG,AFNE01.JPG,AFNE01.JPG,AFNE01.JPG,AFNE01.JPG,AFNE01.JPG,,,,,,,,,,,,,1,3,13,4,,,,,,,,,,,AFNE16.jpg,AFNE20.jpg,AFSA11.jpg,AFSA02.jpg,AFNE16.jpg,FN,3,num_8,32,num_2,0.766814591581,,,2017_Jun_28_1146,60.0040415894,MAFE4ImagesEEG,001,100826,
AFNE01.JPG,AFNE01.JPG,AFNE01.JPG,AFNE01.JPG,AFNE01.JPG,AFNE01.JPG,,,,,,,,,,,,,1,4,14,8,,,,,,,,,,,AFNE05.jpg,AFSA03.jpg,AFNE16.jpg,AFSA20.jpg,AFSA20.jpg,FS,4,num_4,32,num_2,0.816800190383,,,2017_Jun_28_1146,60.0040415894,MAFE4ImagesEEG,001,100826,
AFNE01.JPG,AFNE01.JPG,AFNE01.JPG,AFNE01.JPG,AFNE01.JPG,AFNE01.JPG,,,,,,,,,,,,,1,5,15,0,,,,,,,,,,,AFSA13.jpg,AFNE03.jpg,AFNE07.jpg,AFSA07.jpg,AFSA13.jpg,FS,4,num_8,16,num_8,0.483523307164,,,2017_Jun_28_1146,60.0040415894,MAFE4ImagesEEG,001,100826,
AFNE01.JPG,AFNE01.JPG,AFNE01.JPG,AFNE01.JPG,AFNE01.JPG,AFNE01.JPG,,,,,,,,,,,,,1,6,16,6,,,,,,,,,,,AFNE17.jpg,AFSA15.jpg,AFNE03.jpg,AFSA10.jpg,AFSA10.jpg,FS,4,num_4,32,num_2,0.816756249114,,,2017_Jun_28_1146,60.0040415894,MAFE4ImagesEEG,001,100826,
AFNE01.JPG,AFNE01.JPG,AFNE01.JPG,AFNE01.JPG,AFNE01.JPG,AFNE01.JPG,,,,,,,,,,,,,1,7,17,1,,,,,,,,,,,AFSA05.jpg,AFNE12.jpg,AFNE04.jpg,AFSA12.jpg,AFNE12.jpg,FN,3,num_6,16,num_6,0.816390927183,,,2017_Jun_28_1146,60.0040415894,MAFE4ImagesEEG,001,100826,
AFNE01.JPG,AFNE01.JPG,AFNE01.JPG,AFNE01.JPG,AFNE01.JPG,AFNE01.JPG,,,,,,,,,,,,,1,8,18,5,,,,,,,,,,,AFSA04.jpg,AFSA12.jpg,AFNE11.jpg,AFNE02.jpg,AFSA04.jpg,FS,4,num_8,16,num_8,0.666824791086,,,2017_Jun_28_1146,60.0040415894,MAFE4ImagesEEG,001,100826,
AFNE01.JPG,AFNE01.JPG,AFNE01.JPG,AFNE01.JPG,AFNE01.JPG,AFNE01.JPG,,,,,,,,,,,,,1,9,19,3,,,,,,,,,,,AFNE10.jpg,AFNE14.jpg,AFSA16.jpg,AFSA20.jpg,AFSA20.jpg,FS,4,num_4,32,num_6,0.733459961164,,,2017_Jun_28_1146,60.0040415894,MAFE4ImagesEEG,001,100826,
AFNE01.JPG,AFNE01.JPG,AFNE01.JPG,AFNE01.JPG,AFNE01.JPG,AFNE01.JPG,,,,,,,,,,,,,2,0,20,4,,,,,,,,,,,AFNE09.jpg,AFSA02.jpg,AFNE06.jpg,AFSA06.jpg,AFNE09.jpg,FN,3,num_8,16,num_8,0.9003424853,,,2017_Jun_28_1146,60.0040415894,MAFE4ImagesEEG,001,100826,
AFNE01.JPG,AFNE01.JPG,AFNE01.JPG,AFNE01.JPG,AFNE01.JPG,AFNE01.JPG,,,,,,,,,,,,,2,1,21,8,,,,,,,,,,,AFNE02.jpg,AFSA19.jpg,AFNE13.jpg,AFSA17.jpg,AFNE13.jpg,FN,3,num_2,16,num_2,1.20008159605,,,2017_Jun_28_1146,60.0040415894,MAFE4ImagesEEG,001,100826,
AFNE01.JPG,AFNE01.JPG,AFNE01.JPG,AFNE01.JPG,AFNE01.JPG,AFNE01.JPG,,,,,,,,,,,,,2,2,22,9,,,,,,,,,,,AFSA05.jpg,AFSA14.jpg,AFNE04.jpg,AFNE02.jpg,AFNE04.jpg,FN,3,num_2,16,num_2,0.516634496526,,,2017_Jun_28_1146,60.0040415894,MAFE4ImagesEEG,001,100826,
AFNE01.JPG,AFNE01.JPG,AFNE01.JPG,AFNE01.JPG,AFNE01.JPG,AFNE01.JPG,,,,,,,,,,,,,2,3,23,0,,,,,,,,,,,AFSA06.jpg,AFNE08.jpg,AFSA02.jpg,AFNE06.jpg,AFSA06.jpg,FS,4,num_8,32,num_2,0.883802286102,,,2017_Jun_28_1146,60.0040415894,MAFE4ImagesEEG,001,100826,
AFNE01.JPG,AFNE01.JPG,AFNE01.JPG,AFNE01.JPG,AFNE01.JPG,AFNE01.JPG,,,,,,,,,,,,,2,4,24,5,,,,,,,,,,,AFNE08.jpg,AFNE04.jpg,AFSA13.jpg,AFSA19.jpg,AFSA13.jpg,FS,4,num_2,16,num_2,0.600153698222,,,2017_Jun_28_1146,60.0040415894,MAFE4ImagesEEG,001,100826,
AFNE01.JPG,AFNE01.JPG,AFNE01.JPG,AFNE01.JPG,AFNE01.JPG,AFNE01.JPG,,,,,,,,,,,,,2,5,25,6,,,,,,,,,,,AFSA05.jpg,AFSA16.jpg,AFNE01.jpg,AFNE07.jpg,AFNE01.jpg,FN,3,num_2,16,num_2,0.716785372235,,,2017_Jun_28_1146,60.0040415894,MAFE4ImagesEEG,001,100826,
AFNE01.JPG,AFNE01.JPG,AFNE01.JPG,AFNE01.JPG,AFNE01.JPG,AFNE01.JPG,,,,,,,,,,,,,2,6,26,2,,,,,,,,,,,AFNE05.jpg,AFSA19.jpg,AFNE12.jpg,AFSA16.jpg,AFSA16.jpg,FS,4,num_4,16,num_4,0.550177400844,,,2017_Jun_28_1146,60.0040415894,MAFE4ImagesEEG,001,100826,
AFNE01.JPG,AFNE01.JPG,AFNE01.JPG,AFNE01.JPG,AFNE01.JPG,AFNE01.JPG,,,,,,,,,,,,,2,7,27,1,,,,,,,,,,,AFNE12.jpg,AFSA02.jpg,AFNE01.jpg,AFSA07.jpg,AFSA02.jpg,FS,4,num_6,16,num_6,0.583436130255,,,2017_Jun_28_1146,60.0040415894,MAFE4ImagesEEG,001,100826,
AFNE01.JPG,AFNE01.JPG,AFNE01.JPG,AFNE01.JPG,AFNE01.JPG,AFNE01.JPG,,,,,,,,,,,,,2,8,28,3,,,,,,,,,,,AFSA08.jpg,AFNE08.jpg,AFSA10.jpg,AFNE16.jpg,AFNE08.jpg,FN,3,num_6,16,num_6,0.883491169094,,,2017_Jun_28_1146,60.0040415894,MAFE4ImagesEEG,001,100826,
AFNE01.JPG,AFNE01.JPG,AFNE01.JPG,AFNE01.JPG,AFNE01.JPG,AFNE01.JPG,,,,,,,,,,,,,2,9,29,7,,,,,,,,,,,AFSA17.jpg,AFNE03.jpg,AFNE11.jpg,AFSA01.jpg,AFNE11.jpg,FN,3,num_2,32,num_6,0.700018089687,,,2017_Jun_28_1146,60.0040415894,MAFE4ImagesEEG,001,100826,
AFNE01.JPG,AFNE01.JPG,AFNE01.JPG,AFNE01.JPG,AFNE01.JPG,AFNE01.JPG,,,,,,,,,,,,,3,0,30,3,,,,,,,,,,,AFSA02.jpg,AFSA18.jpg,AFNE05.jpg,AFNE08.jpg,AFSA18.jpg,FS,4,num_6,16,num_6,0.600146321216,,,2017_Jun_28_1146,60.0040415894,MAFE4ImagesEEG,001,100826,
AFNE01.JPG,AFNE01.JPG,AFNE01.JPG,AFNE01.JPG,AFNE01.JPG,AFNE01.JPG,,,,,,,,,,,,,3,1,31,9,,,,,,,,,,,AFSA11.jpg,AFNE09.jpg,AFSA16.jpg,AFNE19.jpg,AFNE09.jpg,FN,3,num_6,32,num_8,1.38339462659,,,2017_Jun_28_1146,60.0040415894,MAFE4ImagesEEG,001,100826,
AFNE01.JPG,AFNE01.JPG,AFNE01.JPG,AFNE01.JPG,AFNE01.JPG,AFNE01.JPG,,,,,,,,,,,,,3,2,32,0,,,,,,,,,,,AFNE04.jpg,AFSA09.jpg,AFNE20.jpg,AFSA19.jpg,AFNE04.jpg,FN,3,num_8,32,num_6,0.75015219074,,,2017_Jun_28_1146,60.0040415894,MAFE4ImagesEEG,001,100826,
AFNE01.JPG,AFNE01.JPG,AFNE01.JPG,AFNE01.JPG,AFNE01.JPG,AFNE01.JPG,,,,,,,,,,,,,3,3,33,5,,,,,,,,,,,AFSA08.jpg,AFNE02.jpg,AFNE03.jpg,AFSA18.jpg,AFSA08.jpg,FS,4,num_8,32,num_4,1.18346858905,,,2017_Jun_28_1146,60.0040415894,MAFE4ImagesEEG,001,100826,
AFNE01.JPG,AFNE01.JPG,AFNE01.JPG,AFNE01.JPG,AFNE01.JPG,AFNE01.JPG,,,,,,,,,,,,,3,4,34,2,,,,,,,,,,,AFSA19.jpg,AFSA20.jpg,AFNE19.jpg,AFNE06.jpg,AFNE06.jpg,FN,3,num_4,16,num_4,1.48343382092,,,2017_Jun_28_1146,60.0040415894,MAFE4ImagesEEG,001,100826,
AFNE01.JPG,AFNE01.JPG,AFNE01.JPG,AFNE01.JPG,AFNE01.JPG,AFNE01.JPG,,,,,,,,,,,,,3,5,35,1,,,,,,,,,,,AFSA06.jpg,AFSA16.jpg,AFNE19.jpg,AFNE09.jpg,AFSA16.jpg,FS,4,num_6,16,num_6,0.849951472163,,,2017_Jun_28_1146,60.0040415894,MAFE4ImagesEEG,001,100826,
AFNE01.JPG,AFNE01.JPG,AFNE01.JPG,AFNE01.JPG,AFNE01.JPG,AFNE01.JPG,,,,,,,,,,,,,3,6,36,6,,,,,,,,,,,AFNE16.jpg,AFSA14.jpg,AFSA08.jpg,AFNE03.jpg,AFNE16.jpg,FN,3,num_8,32,num_4,0.983492516199,,,2017_Jun_28_1146,60.0040415894,MAFE4ImagesEEG,001,100826,
AFNE01.JPG,AFNE01.JPG,AFNE01.JPG,AFNE01.JPG,AFNE01.JPG,AFNE01.JPG,,,,,,,,,,,,,3,7,37,8,,,,,,,,,,,AFSA07.jpg,AFNE09.jpg,AFNE08.jpg,AFSA17.jpg,AFNE08.jpg,FN,3,num_2,16,num_2,0.833540530846,,,2017_Jun_28_1146,60.0040415894,MAFE4ImagesEEG,001,100826,
AFNE01.JPG,AFNE01.JPG,AFNE01.JPG,AFNE01.JPG,AFNE01.JPG,AFNE01.JPG,,,,,,,,,,,,,3,8,38,7,,,,,,,,,,,AFSA03.jpg,AFNE05.jpg,AFSA18.jpg,AFNE20.jpg,AFNE20.jpg,FN,3,num_4,32,num_6,0.933445656192,,,2017_Jun_28_1146,60.0040415894,MAFE4ImagesEEG,001,100826,
AFNE01.JPG,AFNE01.JPG,AFNE01.JPG,AFNE01.JPG,AFNE01.JPG,AFNE01.JPG,,,,,,,,,,,,,3,9,39,4,,,,,,,,,,,AFNE01.jpg,AFSA13.jpg,AFSA12.jpg,AFNE08.jpg,AFNE08.jpg,FN,3,num_4,16,num_4,0.900138174446,,,2017_Jun_28_1146,60.0040415894,MAFE4ImagesEEG,001,100826,
AFNE01.JPG,AFNE01.JPG,AFNE01.JPG,AFNE01.JPG,AFNE01.JPG,AFNE01.JPG,,,,,,,,,,,,,4,0,40,5,,,,,,,,,,,AFNE14.jpg,AFSA20.jpg,AFSA06.jpg,AFNE13.jpg,AFSA06.jpg,FS,4,num_2,16,num_2,0.900129193746,,,2017_Jun_28_1146,60.0040415894,MAFE4ImagesEEG,001,100826,
AFNE01.JPG,AFNE01.JPG,AFNE01.JPG,AFNE01.JPG,AFNE01.JPG,AFNE01.JPG,,,,,,,,,,,,,4,1,41,8,,,,,,,,,,,AFNE18.jpg,AFSA10.jpg,AFNE03.jpg,AFSA12.jpg,AFNE18.jpg,FN,3,num_8,32,num_4,1.23353533488,,,2017_Jun_28_1146,60.0040415894,MAFE4ImagesEEG,001,100826,
AFNE01.JPG,AFNE01.JPG,AFNE01.JPG,AFNE01.JPG,AFNE01.JPG,AFNE01.JPG,,,,,,,,,,,,,4,2,42,0,,,,,,,,,,,AFSA08.jpg,AFSA10.jpg,AFNE02.jpg,AFNE03.jpg,AFNE02.jpg,FN,3,num_2,16,num_2,0.816773569037,,,2017_Jun_28_1146,60.0040415894,MAFE4ImagesEEG,001,100826,
AFNE01.JPG,AFNE01.JPG,AFNE01.JPG,AFNE01.JPG,AFNE01.JPG,AFNE01.JPG,,,,,,,,,,,,,4,3,43,9,,,,,,,,,,,AFNE16.jpg,AFSA20.jpg,AFSA10.jpg,AFNE15.jpg,AFSA20.jpg,FS,4,num_6,16,num_6,2.28338494027,,,2017_Jun_28_1146,60.0040415894,MAFE4ImagesEEG,001,100826,
AFNE01.JPG,AFNE01.JPG,AFNE01.JPG,AFNE01.JPG,AFNE01.JPG,AFNE01.JPG,,,,,,,,,,,,,4,4,44,4,,,,,,,,,,,AFSA12.jpg,AFNE12.jpg,AFSA07.jpg,AFNE14.jpg,AFNE12.jpg,FN,3,num_6,32,num_2,1.36674473458,,,2017_Jun_28_1146,60.0040415894,MAFE4ImagesEEG,001,100826,
AFNE01.JPG,AFNE01.JPG,AFNE01.JPG,AFNE01.JPG,AFNE01.JPG,AFNE01.JPG,,,,,,,,,,,,,4,5,45,6,,,,,,,,,,,AFSA01.jpg,AFSA15.jpg,AFNE09.jpg,AFNE01.jpg,AFNE01.jpg,FN,3,num_4,16,num_4,1.13347336807,,,2017_Jun_28_1146,60.0040415894,MAFE4ImagesEEG,001,100826,
AFNE01.JPG,AFNE01.JPG,AFNE01.JPG,AFNE01.JPG,AFNE01.JPG,AFNE01.JPG,,,,,,,,,,,,,4,6,46,3,,,,,,,,,,,AFSA12.jpg,AFSA01.jpg,AFNE13.jpg,AFNE15.jpg,AFNE15.jpg,FN,3,num_4,16,num_4,0.616739763122,,,2017_Jun_28_1146,60.0040415894,MAFE4ImagesEEG,001,100826,
AFNE01.JPG,AFNE01.JPG,AFNE01.JPG,AFNE01.JPG,AFNE01.JPG,AFNE01.JPG,,,,,,,,,,,,,4,7,47,1,,,,,,,,,,,AFSA17.jpg,AFNE14.jpg,AFNE20.jpg,AFSA07.jpg,AFNE14.jpg,FN,3,num_6,16,num_6,1.31676362612,,,2017_Jun_28_1146,60.0040415894,MAFE4ImagesEEG,001,100826,
AFNE01.JPG,AFNE01.JPG,AFNE01.JPG,AFNE01.JPG,AFNE01.JPG,AFNE01.JPG,,,,,,,,,,,,,4,8,48,7,,,,,,,,,,,AFNE20.jpg,AFNE07.jpg,AFSA01.jpg,AFSA16.jpg,AFSA01.jpg,FS,4,num_2,16,num_2,0.966810550264,,,2017_Jun_28_1146,60.0040415894,MAFE4ImagesEEG,001,100826,
AFNE01.JPG,AFNE01.JPG,AFNE01.JPG,AFNE01.JPG,AFNE01.JPG,AFNE01.JPG,,,,,,,,,,,,,4,9,49,2,,,,,,,,,,,AFSA02.jpg,AFNE12.jpg,AFNE04.jpg,AFSA06.jpg,AFNE04.jpg,FN,3,num_2,16,num_2,1.00010103284,,,2017_Jun_28_1146,60.0040415894,MAFE4ImagesEEG,001,100826,
AFNE01.JPG,AFNE01.JPG,AFNE01.JPG,AFNE01.JPG,AFNE01.JPG,AFNE01.JPG,,,,,,,,,,,,,5,0,50,1,,,,,,,,,,,AFSA02.jpg,AFSA08.jpg,AFNE10.jpg,AFNE18.jpg,AFSA02.jpg,FS,4,num_8,16,num_8,0.900094233177,,,2017_Jun_28_1146,60.0040415894,MAFE4ImagesEEG,001,100826,
AFNE01.JPG,AFNE01.JPG,AFNE01.JPG,AFNE01.JPG,AFNE01.JPG,AFNE01.JPG,,,,,,,,,,,,,5,1,51,6,,,,,,,,,,,AFNE07.jpg,AFSA02.jpg,AFSA06.jpg,AFNE13.jpg,AFSA02.jpg,FS,4,num_6,16,num_6,0.766818761185,,,2017_Jun_28_1146,60.0040415894,MAFE4ImagesEEG,001,100826,
AFNE01.JPG,AFNE01.JPG,AFNE01.JPG,AFNE01.JPG,AFNE01.JPG,AFNE01.JPG,,,,,,,,,,,,,5,2,52,0,,,,,,,,,,,AFNE15.jpg,AFSA01.jpg,AFNE20.jpg,AFSA06.jpg,AFNE20.jpg,FN,3,num_2,16,num_2,0.983462687451,,,2017_Jun_28_1146,60.0040415894,MAFE4ImagesEEG,001,100826,
AFNE01.JPG,AFNE01.JPG,AFNE01.JPG,AFNE01.JPG,AFNE01.JPG,AFNE01.JPG,,,,,,,,,,,,,5,3,53,2,,,,,,,,,,,AFNE04.jpg,AFSA07.jpg,AFSA15.jpg,AFNE01.jpg,AFNE04.jpg,FN,3,num_8,32,num_4,0.966768854167,,,2017_Jun_28_1146,60.0040415894,MAFE4ImagesEEG,001,100826,
AFNE01.JPG,AFNE01.JPG,AFNE01.JPG,AFNE01.JPG,AFNE01.JPG,AFNE01.JPG,,,,,,,,,,,,,5,4,54,9,,,,,,,,,,,AFSA04.jpg,AFNE03.jpg,AFSA18.jpg,AFNE13.jpg,AFSA18.jpg,FS,4,num_2,16,num_2,0.516819883778,,,2017_Jun_28_1146,60.0040415894,MAFE4ImagesEEG,001,100826,
AFNE01.JPG,AFNE01.JPG,AFNE01.JPG,AFNE01.JPG,AFNE01.JPG,AFNE01.JPG,,,,,,,,,,,,,5,5,55,3,,,,,,,,,,,AFNE13.jpg,AFSA16.jpg,AFNE09.jpg,AFSA04.jpg,AFNE13.jpg,FN,3,num_8,32,num_2,0.966769816398,,,2017_Jun_28_1146,60.0040415894,MAFE4ImagesEEG,001,100826,
AFNE01.JPG,AFNE01.JPG,AFNE01.JPG,AFNE01.JPG,AFNE01.JPG,AFNE01.JPG,,,,,,,,,,,,,5,6,56,8,,,,,,,,,,,AFSA12.jpg,AFNE20.jpg,AFNE07.jpg,AFSA01.jpg,AFNE20.jpg,FN,3,num_6,32,num_2,1.23339869999,,,2017_Jun_28_1146,60.0040415894,MAFE4ImagesEEG,001,100826,
AFNE01.JPG,AFNE01.JPG,AFNE01.JPG,AFNE01.JPG,AFNE01.JPG,AFNE01.JPG,,,,,,,,,,,,,5,7,57,5,,,,,,,,,,,AFSA18.jpg,AFNE14.jpg,AFNE02.jpg,AFSA17.jpg,AFSA18.jpg,FS,4,num_8,32,num_6,0.850128199454,,,2017_Jun_28_1146,60.0040415894,MAFE4ImagesEEG,001,100826,
AFNE01.JPG,AFNE01.JPG,AFNE01.JPG,AFNE01.JPG,AFNE01.JPG,AFNE01.JPG,,,,,,,,,,,,,5,8,58,4,,,,,,,,,,,AFSA15.jpg,AFNE14.jpg,AFNE09.jpg,AFSA19.jpg,AFNE09.jpg,FN,3,num_2,32,num_6,0.716768693805,,,2017_Jun_28_1146,60.0040415894,MAFE4ImagesEEG,001,100826,
AFNE01.JPG,AFNE01.JPG,AFNE01.JPG,AFNE01.JPG,AFNE01.JPG,AFNE01.JPG,,,,,,,,,,,,,5,9,59,7,,,,,,,,,,,AFNE20.jpg,AFNE13.jpg,AFSA13.jpg,AFSA15.jpg,AFNE20.jpg,FN,3,num_8,32,num_4,0.816928806817,,,2017_Jun_28_1146,60.0040415894,MAFE4ImagesEEG,001,100826,
,,,,,,,,,,,,,,,,,,,,,,,,,,,,,,,,,,,,,,,,,,,space,12.4492090251,2017_Jun_28_1146,60.0040415894,MAFE4ImagesEEG,001,100826,
AFNE01.JPG,AFNE01.JPG,AFNE01.JPG,AFNE01.JPG,AFNE01.JPG,AFNE01.JPG,,,,,,,,,,,,,,,,,0,0,0,8,,,,,,,AMSA05.jpg,AMNE19.jpg,AMNE09.jpg,AMSA14.jpg,AMSA05.jpg,MS,2,num_8,16,num_8,0.666791754949,,,2017_Jun_28_1146,60.0040415894,MAFE4ImagesEEG,001,100826,
AFNE01.JPG,AFNE01.JPG,AFNE01.JPG,AFNE01.JPG,AFNE01.JPG,AFNE01.JPG,,,,,,,,,,,,,,,,,0,1,1,4,,,,,,,AMSA20.jpg,AMNE12.jpg,AMNE11.jpg,AMSA06.jpg,AMSA20.jpg,MS,2,num_8,32,num_6,0.750245205112,,,2017_Jun_28_1146,60.0040415894,MAFE4ImagesEEG,001,100826,
AFNE01.JPG,AFNE01.JPG,AFNE01.JPG,AFNE01.JPG,AFNE01.JPG,AFNE01.JPG,,,,,,,,,,,,,,,,,0,2,2,6,,,,,,,AMNE13.jpg,AMSA03.jpg,AMNE12.jpg,AMSA12.jpg,AMSA03.jpg,MS,2,num_6,32,num_4,0.616717952857,,,2017_Jun_28_1146,60.0040415894,MAFE4ImagesEEG,001,100826,
AFNE01.JPG,AFNE01.JPG,AFNE01.JPG,AFNE01.JPG,AFNE01.JPG,AFNE01.JPG,,,,,,,,,,,,,,,,,0,3,3,7,,,,,,,AMSA13.jpg,AMSA06.jpg,AMNE08.jpg,AMNE14.jpg,AMSA13.jpg,MS,2,num_8,16,num_8,0.583460827169,,,2017_Jun_28_1146,60.0040415894,MAFE4ImagesEEG,001,100826,
AFNE01.JPG,AFNE01.JPG,AFNE01.JPG,AFNE01.JPG,AFNE01.JPG,AFNE01.JPG,,,,,,,,,,,,,,,,,0,4,4,2,,,,,,,AMSA11.jpg,AMNE11.jpg,AMSA05.jpg,AMNE19.jpg,AMSA05.jpg,MS,2,num_2,16,num_2,0.516824374121,,,2017_Jun_28_1146,60.0040415894,MAFE4ImagesEEG,001,100826,
AFNE01.JPG,AFNE01.JPG,AFNE01.JPG,AFNE01.JPG,AFNE01.JPG,AFNE01.JPG,,,,,,,,,,,,,,,,,0,5,5,1,,,,,,,AMNE10.jpg,AMSA04.jpg,AMNE09.jpg,AMSA19.jpg,AMSA04.jpg,MS,2,num_6,16,num_6,0.566771484242,,,2017_Jun_28_1146,60.0040415894,MAFE4ImagesEEG,001,100826,
AFNE01.JPG,AFNE01.JPG,AFNE01.JPG,AFNE01.JPG,AFNE01.JPG,AFNE01.JPG,,,,,,,,,,,,,,,,,0,6,6,5,,,,,,,AMNE11.jpg,AMNE13.jpg,AMSA10.jpg,AMSA15.jpg,AMNE13.jpg,MN,1,num_6,16,num_6,0.666753907717,,,2017_Jun_28_1146,60.0040415894,MAFE4ImagesEEG,001,100826,
AFNE01.JPG,AFNE01.JPG,AFNE01.JPG,AFNE01.JPG,AFNE01.JPG,AFNE01.JPG,,,,,,,,,,,,,,,,,0,7,7,0,,,,,,,AMSA12.jpg,AMNE17.jpg,AMNE10.jpg,AMSA19.jpg,AMNE17.jpg,MN,1,num_6,16,num_6,0.616791402135,,,2017_Jun_28_1146,60.0040415894,MAFE4ImagesEEG,001,100826,
AFNE01.JPG,AFNE01.JPG,AFNE01.JPG,AFNE01.JPG,AFNE01.JPG,AFNE01.JPG,,,,,,,,,,,,,,,,,0,8,8,3,,,,,,,AMSA17.jpg,AMNE14.jpg,AMSA06.jpg,AMNE08.jpg,AMSA17.jpg,MS,2,num_8,32,num_6,0.650119411206,,,2017_Jun_28_1146,60.0040415894,MAFE4ImagesEEG,001,100826,
AFNE01.JPG,AFNE01.JPG,AFNE01.JPG,AFNE01.JPG,AFNE01.JPG,AFNE01.JPG,,,,,,,,,,,,,,,,,0,9,9,9,,,,,,,AMSA06.jpg,AMNE08.jpg,AMSA14.jpg,AMNE15.jpg,AMSA06.jpg,MS,2,num_8,32,num_4,0.700116235879,,,2017_Jun_28_1146,60.0040415894,MAFE4ImagesEEG,001,100826,
AFNE01.JPG,AFNE01.JPG,AFNE01.JPG,AFNE01.JPG,AFNE01.JPG,AFNE01.JPG,,,,,,,,,,,,,,,,,1,0,10,6,,,,,,,AMNE03.jpg,AMSA10.jpg,AMNE08.jpg,AMSA19.jpg,AMSA19.jpg,MS,2,num_4,16,num_4,0.716782806325,,,2017_Jun_28_1146,60.0040415894,MAFE4ImagesEEG,001,100826,
AFNE01.JPG,AFNE01.JPG,AFNE01.JPG,AFNE01.JPG,AFNE01.JPG,AFNE01.JPG,,,,,,,,,,,,,,,,,1,1,11,7,,,,,,,AMSA02.jpg,AMNE16.jpg,AMSA06.jpg,AMNE02.jpg,AMNE16.jpg,MN,1,num_6,16,num_6,0.750097344353,,,2017_Jun_28_1146,60.0040415894,MAFE4ImagesEEG,001,100826,
AFNE01.JPG,AFNE01.JPG,AFNE01.JPG,AFNE01.JPG,AFNE01.JPG,AFNE01.JPG,,,,,,,,,,,,,,,,,1,2,12,5,,,,,,,AMSA08.jpg,AMNE07.jpg,AMNE10.jpg,AMSA19.jpg,AMNE07.jpg,MN,1,num_6,16,num_6,0.633451557791,,,2017_Jun_28_1146,60.0040415894,MAFE4ImagesEEG,001,100826,
AFNE01.JPG,AFNE01.JPG,AFNE01.JPG,AFNE01.JPG,AFNE01.JPG,AFNE01.JPG,,,,,,,,,,,,,,,,,1,3,13,9,,,,,,,AMSA11.jpg,AMSA05.jpg,AMNE17.jpg,AMNE09.jpg,AMNE09.jpg,MN,1,num_4,32,num_6,0.683493606703,,,2017_Jun_28_1146,60.0040415894,MAFE4ImagesEEG,001,100826,
AFNE01.JPG,AFNE01.JPG,AFNE01.JPG,AFNE01.JPG,AFNE01.JPG,AFNE01.JPG,,,,,,,,,,,,,,,,,1,4,14,2,,,,,,,AMSA10.jpg,AMSA06.jpg,AMNE14.jpg,AMNE15.jpg,AMNE15.jpg,MN,1,num_4,16,num_4,0.816794737824,,,2017_Jun_28_1146,60.0040415894,MAFE4ImagesEEG,001,100826,
AFNE01.JPG,AFNE01.JPG,AFNE01.JPG,AFNE01.JPG,AFNE01.JPG,AFNE01.JPG,,,,,,,,,,,,,,,,,1,5,15,0,,,,,,,AMSA12.jpg,AMNE01.jpg,AMNE10.jpg,AMSA10.jpg,AMNE10.jpg,MN,1,num_2,16,num_2,1.1167837044,,,2017_Jun_28_1146,60.0040415894,MAFE4ImagesEEG,001,100826,
AFNE01.JPG,AFNE01.JPG,AFNE01.JPG,AFNE01.JPG,AFNE01.JPG,AFNE01.JPG,,,,,,,,,,,,,,,,,1,6,16,1,,,,,,,AMSA15.jpg,AMNE17.jpg,AMNE05.jpg,AMSA07.jpg,AMSA15.jpg,MS,2,num_8,32,num_2,1.31670813824,,,2017_Jun_28_1146,60.0040415894,MAFE4ImagesEEG,001,100826,
AFNE01.JPG,AFNE01.JPG,AFNE01.JPG,AFNE01.JPG,AFNE01.JPG,AFNE01.JPG,,,,,,,,,,,,,,,,,1,7,17,4,,,,,,,AMNE01.jpg,AMSA11.jpg,AMSA01.jpg,AMNE16.jpg,AMNE01.jpg,MN,1,num_8,32,num_2,1.06673844809,,,2017_Jun_28_1146,60.0040415894,MAFE4ImagesEEG,001,100826,
AFNE01.JPG,AFNE01.JPG,AFNE01.JPG,AFNE01.JPG,AFNE01.JPG,AFNE01.JPG,,,,,,,,,,,,,,,,,1,8,18,8,,,,,,,AMNE04.jpg,AMNE17.jpg,AMSA16.jpg,AMSA02.jpg,AMSA16.jpg,MS,2,num_2,32,num_4,0.750085156251,,,2017_Jun_28_1146,60.0040415894,MAFE4ImagesEEG,001,100826,
AFNE01.JPG,AFNE01.JPG,AFNE01.JPG,AFNE01.JPG,AFNE01.JPG,AFNE01.JPG,,,,,,,,,,,,,,,,,1,9,19,3,,,,,,,AMNE01.jpg,AMSA18.jpg,AMSA05.jpg,AMNE14.jpg,AMNE01.jpg,MN,1,num_8,32,num_4,0.866729339104,,,2017_Jun_28_1146,60.0040415894,MAFE4ImagesEEG,001,100826,
AFNE01.JPG,AFNE01.JPG,AFNE01.JPG,AFNE01.JPG,AFNE01.JPG,AFNE01.JPG,,,,,,,,,,,,,,,,,2,0,20,3,,,,,,,AMNE09.jpg,AMSA05.jpg,AMNE11.jpg,AMSA06.jpg,AMNE09.jpg,MN,1,num_8,16,num_8,1.0501049138,,,2017_Jun_28_1146,60.0040415894,MAFE4ImagesEEG,001,100826,
AFNE01.JPG,AFNE01.JPG,AFNE01.JPG,AFNE01.JPG,AFNE01.JPG,AFNE01.JPG,,,,,,,,,,,,,,,,,2,1,21,2,,,,,,,AMSA03.jpg,AMNE12.jpg,AMNE14.jpg,AMSA20.jpg,AMNE14.jpg,MN,1,num_2,16,num_2,0.700247418208,,,2017_Jun_28_1146,60.0040415894,MAFE4ImagesEEG,001,100826,
AFNE01.JPG,AFNE01.JPG,AFNE01.JPG,AFNE01.JPG,AFNE01.JPG,AFNE01.JPG,,,,,,,,,,,,,,,,,2,2,22,0,,,,,,,AMNE16.jpg,AMNE12.jpg,AMSA03.jpg,AMSA17.jpg,AMSA03.jpg,MS,2,num_2,32,num_4,1.03343770186,,,2017_Jun_28_1146,60.0040415894,MAFE4ImagesEEG,001,100826,
AFNE01.JPG,AFNE01.JPG,AFNE01.JPG,AFNE01.JPG,AFNE01.JPG,AFNE01.JPG,,,,,,,,,,,,,,,,,2,3,23,7,,,,,,,AMNE02.jpg,AMNE03.jpg,AMSA20.jpg,AMSA13.jpg,AMNE03.jpg,MN,1,num_6,16,num_6,1.65006648922,,,2017_Jun_28_1146,60.0040415894,MAFE4ImagesEEG,001,100826,
AFNE01.JPG,AFNE01.JPG,AFNE01.JPG,AFNE01.JPG,AFNE01.JPG,AFNE01.JPG,,,,,,,,,,,,,,,,,2,4,24,6,,,,,,,AMNE02.jpg,AMSA15.jpg,AMNE05.jpg,AMSA04.jpg,AMSA04.jpg,MS,2,num_4,32,num_6,1.03348324682,,,2017_Jun_28_1146,60.0040415894,MAFE4ImagesEEG,001,100826,
AFNE01.JPG,AFNE01.JPG,AFNE01.JPG,AFNE01.JPG,AFNE01.JPG,AFNE01.JPG,,,,,,,,,,,,,,,,,2,5,25,8,,,,,,,AMSA16.jpg,AMSA17.jpg,AMNE01.jpg,AMNE08.jpg,AMSA17.jpg,MS,2,num_6,16,num_6,0.716810389902,,,2017_Jun_28_1146,60.0040415894,MAFE4ImagesEEG,001,100826,
AFNE01.JPG,AFNE01.JPG,AFNE01.JPG,AFNE01.JPG,AFNE01.JPG,AFNE01.JPG,,,,,,,,,,,,,,,,,2,6,26,1,,,,,,,AMNE18.jpg,AMSA01.jpg,AMNE16.jpg,AMSA12.jpg,AMSA12.jpg,MS,2,num_4,32,num_2,1.26671259651,,,2017_Jun_28_1146,60.0040415894,MAFE4ImagesEEG,001,100826,
AFNE01.JPG,AFNE01.JPG,AFNE01.JPG,AFNE01.JPG,AFNE01.JPG,AFNE01.JPG,,,,,,,,,,,,,,,,,2,7,27,5,,,,,,,AMSA20.jpg,AMSA14.jpg,AMNE16.jpg,AMNE07.jpg,AMNE16.jpg,MN,1,num_2,32,num_4,1.16676481285,,,2017_Jun_28_1146,60.0040415894,MAFE4ImagesEEG,001,100826,
AFNE01.JPG,AFNE01.JPG,AFNE01.JPG,AFNE01.JPG,AFNE01.JPG,AFNE01.JPG,,,,,,,,,,,,,,,,,2,8,28,4,,,,,,,AMNE09.jpg,AMNE19.jpg,AMSA11.jpg,AMSA18.jpg,AMSA18.jpg,MS,2,num_4,32,num_6,1.10011136065,,,2017_Jun_28_1146,60.0040415894,MAFE4ImagesEEG,001,100826,
AFNE01.JPG,AFNE01.JPG,AFNE01.JPG,AFNE01.JPG,AFNE01.JPG,AFNE01.JPG,,,,,,,,,,,,,,,,,2,9,29,9,,,,,,,AMSA20.jpg,AMSA07.jpg,AMNE16.jpg,AMNE10.jpg,AMNE10.jpg,MN,1,num_4,16,num_4,1.30009577273,,,2017_Jun_28_1146,60.0040415894,MAFE4ImagesEEG,001,100826,
AFNE01.JPG,AFNE01.JPG,AFNE01.JPG,AFNE01.JPG,AFNE01.JPG,AFNE01.JPG,,,,,,,,,,,,,,,,,3,0,30,9,,,,,,,AMNE17.jpg,AMNE04.jpg,AMSA13.jpg,AMSA16.jpg,AMNE17.jpg,MN,1,num_8,32,num_6,1.1001585093,,,2017_Jun_28_1146,60.0040415894,MAFE4ImagesEEG,001,100826,
AFNE01.JPG,AFNE01.JPG,AFNE01.JPG,AFNE01.JPG,AFNE01.JPG,AFNE01.JPG,,,,,,,,,,,,,,,,,3,1,31,3,,,,,,,AMNE15.jpg,AMSA13.jpg,AMSA08.jpg,AMNE09.jpg,AMNE09.jpg,MN,1,num_4,32,num_2,1.11673302761,,,2017_Jun_28_1146,60.0040415894,MAFE4ImagesEEG,001,100826,
AFNE01.JPG,AFNE01.JPG,AFNE01.JPG,AFNE01.JPG,AFNE01.JPG,AFNE01.JPG,,,,,,,,,,,,,,,,,3,2,32,1,,,,,,,AMSA05.jpg,AMSA04.jpg,AMNE12.jpg,AMNE19.jpg,AMNE12.jpg,MN,1,num_2,16,num_2,0.9334203178,,,2017_Jun_28_1146,60.0040415894,MAFE4ImagesEEG,001,100826,
AFNE01.JPG,AFNE01.JPG,AFNE01.JPG,AFNE01.JPG,AFNE01.JPG,AFNE01.JPG,,,,,,,,,,,,,,,,,3,3,33,8,,,,,,,AMNE16.jpg,AMNE19.jpg,AMSA12.jpg,AMSA19.jpg,AMSA19.jpg,MS,2,num_4,16,num_4,0.600154981177,,,2017_Jun_28_1146,60.0040415894,MAFE4ImagesEEG,001,100826,
AFNE01.JPG,AFNE01.JPG,AFNE01.JPG,AFNE01.JPG,AFNE01.JPG,AFNE01.JPG,,,,,,,,,,,,,,,,,3,4,34,6,,,,,,,AMSA13.jpg,AMNE11.jpg,AMSA08.jpg,AMNE08.jpg,AMNE11.jpg,MN,1,num_6,16,num_6,0.56678367233,,,2017_Jun_28_1146,60.0040415894,MAFE4ImagesEEG,001,100826,
AFNE01.JPG,AFNE01.JPG,AFNE01.JPG,AFNE01.JPG,AFNE01.JPG,AFNE01.JPG,,,,,,,,,,,,,,,,,3,5,35,0,,,,,,,AMNE08.jpg,AMSA07.jpg,AMSA13.jpg,AMNE11.jpg,AMNE08.jpg,MN,1,num_8,16,num_8,1.03343064561,,,2017_Jun_28_1146,60.0040415894,MAFE4ImagesEEG,001,100826,
AFNE01.JPG,AFNE01.JPG,AFNE01.JPG,AFNE01.JPG,AFNE01.JPG,AFNE01.JPG,,,,,,,,,,,,,,,,,3,6,36,2,,,,,,,AMSA09.jpg,AMNE20.jpg,AMSA14.jpg,AMNE17.jpg,AMNE17.jpg,MN,1,num_4,32,num_6,1.31659940766,,,2017_Jun_28_1146,60.0040415894,MAFE4ImagesEEG,001,100826,
AFNE01.JPG,AFNE01.JPG,AFNE01.JPG,AFNE01.JPG,AFNE01.JPG,AFNE01.JPG,,,,,,,,,,,,,,,,,3,7,37,7,,,,,,,AMNE06.jpg,AMSA04.jpg,AMSA18.jpg,AMNE17.jpg,AMNE06.jpg,MN,1,num_8,16,num_8,0.883289744874,,,2017_Jun_28_1146,60.0040415894,MAFE4ImagesEEG,001,100826,
AFNE01.JPG,AFNE01.JPG,AFNE01.JPG,AFNE01.JPG,AFNE01.JPG,AFNE01.JPG,,,,,,,,,,,,,,,,,3,8,38,4,,,,,,,AMSA12.jpg,AMNE11.jpg,AMSA18.jpg,AMNE09.jpg,AMNE11.jpg,MN,1,num_6,16,num_6,0.633474651011,,,2017_Jun_28_1146,60.0040415894,MAFE4ImagesEEG,001,100826,
AFNE01.JPG,AFNE01.JPG,AFNE01.JPG,AFNE01.JPG,AFNE01.JPG,AFNE01.JPG,,,,,,,,,,,,,,,,,3,9,39,5,,,,,,,AMSA16.jpg,AMNE15.jpg,AMSA02.jpg,AMNE04.jpg,AMNE15.jpg,MN,1,num_6,16,num_6,0.90045666846,,,2017_Jun_28_1146,60.0040415894,MAFE4ImagesEEG,001,100826,
AFNE01.JPG,AFNE01.JPG,AFNE01.JPG,AFNE01.JPG,AFNE01.JPG,AFNE01.JPG,,,,,,,,,,,,,,,,,4,0,40,5,,,,,,,AMNE01.jpg,AMNE05.jpg,AMSA20.jpg,AMSA03.jpg,AMSA03.jpg,MS,2,num_4,32,num_8,0.816867224887,,,2017_Jun_28_1146,60.0040415894,MAFE4ImagesEEG,001,100826,
AFNE01.JPG,AFNE01.JPG,AFNE01.JPG,AFNE01.JPG,AFNE01.JPG,AFNE01.JPG,,,,,,,,,,,,,,,,,4,1,41,3,,,,,,,AMSA05.jpg,AMSA04.jpg,AMNE09.jpg,AMNE19.jpg,AMNE19.jpg,MN,1,num_4,32,num_6,1.0001302201,,,2017_Jun_28_1146,60.0040415894,MAFE4ImagesEEG,001,100826,
AFNE01.JPG,AFNE01.JPG,AFNE01.JPG,AFNE01.JPG,AFNE01.JPG,AFNE01.JPG,,,,,,,,,,,,,,,,,4,2,42,2,,,,,,,AMNE05.jpg,AMSA10.jpg,AMNE19.jpg,AMSA09.jpg,AMSA10.jpg,MS,2,num_6,16,num_6,0.700132593585,,,2017_Jun_28_1146,60.0040415894,MAFE4ImagesEEG,001,100826,
AFNE01.JPG,AFNE01.JPG,AFNE01.JPG,AFNE01.JPG,AFNE01.JPG,AFNE01.JPG,,,,,,,,,,,,,,,,,4,3,43,6,,,,,,,AMSA17.jpg,AMNE20.jpg,AMNE09.jpg,AMSA01.jpg,AMNE09.jpg,MN,1,num_2,16,num_2,1.56672593926,,,2017_Jun_28_1146,60.0040415894,MAFE4ImagesEEG,001,100826,
AFNE01.JPG,AFNE01.JPG,AFNE01.JPG,AFNE01.JPG,AFNE01.JPG,AFNE01.JPG,,,,,,,,,,,,,,,,,4,4,44,0,,,,,,,AMNE18.jpg,AMSA11.jpg,AMSA03.jpg,AMNE03.jpg,AMSA03.jpg,MS,2,num_2,32,num_6,0.666793037904,,,2017_Jun_28_1146,60.0040415894,MAFE4ImagesEEG,001,100826,
AFNE01.JPG,AFNE01.JPG,AFNE01.JPG,AFNE01.JPG,AFNE01.JPG,AFNE01.JPG,,,,,,,,,,,,,,,,,4,5,45,8,,,,,,,AMNE06.jpg,AMNE18.jpg,AMSA20.jpg,AMSA12.jpg,AMNE18.jpg,MN,1,num_6,16,num_6,1.15010433646,,,2017_Jun_28_1146,60.0040415894,MAFE4ImagesEEG,001,100826,
AFNE01.JPG,AFNE01.JPG,AFNE01.JPG,AFNE01.JPG,AFNE01.JPG,AFNE01.JPG,,,,,,,,,,,,,,,,,4,6,46,7,,,,,,,AMSA01.jpg,AMSA07.jpg,AMNE06.jpg,AMNE19.jpg,AMNE06.jpg,MN,1,num_2,32,num_6,0.616785628838,,,2017_Jun_28_1146,60.0040415894,MAFE4ImagesEEG,001,100826,
AFNE01.JPG,AFNE01.JPG,AFNE01.JPG,AFNE01.JPG,AFNE01.JPG,AFNE01.JPG,,,,,,,,,,,,,,,,,4,7,47,1,,,,,,,AMSA05.jpg,AMSA19.jpg,AMNE11.jpg,AMNE18.jpg,AMSA05.jpg,MS,2,num_8,32,num_6,0.766447345217,,,2017_Jun_28_1146,60.0040415894,MAFE4ImagesEEG,001,100826,
AFNE01.JPG,AFNE01.JPG,AFNE01.JPG,AFNE01.JPG,AFNE01.JPG,AFNE01.JPG,,,,,,,,,,,,,,,,,4,8,48,9,,,,,,,AMNE18.jpg,AMNE10.jpg,AMSA16.jpg,AMSA07.jpg,AMNE10.jpg,MN,1,num_6,32,num_4,0.816791851175,,,2017_Jun_28_1146,60.0040415894,MAFE4ImagesEEG,001,100826,
AFNE01.JPG,AFNE01.JPG,AFNE01.JPG,AFNE01.JPG,AFNE01.JPG,AFNE01.JPG,,,,,,,,,,,,,,,,,4,9,49,4,,,,,,,AMSA15.jpg,AMNE09.jpg,AMNE17.jpg,AMSA18.jpg,AMNE17.jpg,MN,1,num_2,32,num_6,1.18335633034,,,2017_Jun_28_1146,60.0040415894,MAFE4ImagesEEG,001,100826,
AFNE01.JPG,AFNE01.JPG,AFNE01.JPG,AFNE01.JPG,AFNE01.JPG,AFNE01.JPG,,,,,,,,,,,,,,,,,5,0,50,8,,,,,,,AMSA15.jpg,AMSA17.jpg,AMNE20.jpg,AMNE08.jpg,AMSA15.jpg,MS,2,num_8,32,num_4,0.983455310445,,,2017_Jun_28_1146,60.0040415894,MAFE4ImagesEEG,001,100826,
AFNE01.JPG,AFNE01.JPG,AFNE01.JPG,AFNE01.JPG,AFNE01.JPG,AFNE01.JPG,,,,,,,,,,,,,,,,,5,1,51,6,,,,,,,AMSA17.jpg,AMSA07.jpg,AMNE16.jpg,AMNE02.jpg,AMNE16.jpg,MN,1,num_2,32,num_8,0.816768757955,,,2017_Jun_28_1146,60.0040415894,MAFE4ImagesEEG,001,100826,
AFNE01.JPG,AFNE01.JPG,AFNE01.JPG,AFNE01.JPG,AFNE01.JPG,AFNE01.JPG,,,,,,,,,,,,,,,,,5,2,52,7,,,,,,,AMNE19.jpg,AMSA18.jpg,AMNE01.jpg,AMSA04.jpg,AMSA04.jpg,MS,2,num_4,32,num_6,0.716741110242,,,2017_Jun_28_1146,60.0040415894,MAFE4ImagesEEG,001,100826,
AFNE01.JPG,AFNE01.JPG,AFNE01.JPG,AFNE01.JPG,AFNE01.JPG,AFNE01.JPG,,,,,,,,,,,,,,,,,5,3,53,9,,,,,,,AMSA17.jpg,AMNE08.jpg,AMNE02.jpg,AMSA02.jpg,AMSA17.jpg,MS,2,num_8,32,num_4,1.18341887448,,,2017_Jun_28_1146,60.0040415894,MAFE4ImagesEEG,001,100826,
AFNE01.JPG,AFNE01.JPG,AFNE01.JPG,AFNE01.JPG,AFNE01.JPG,AFNE01.JPG,,,,,,,,,,,,,,,,,5,4,54,2,,,,,,,AMSA20.jpg,AMNE04.jpg,AMNE18.jpg,AMSA10.jpg,AMSA10.jpg,MS,2,num_4,16,num_4,1.00009558027,,,2017_Jun_28_1146,60.0040415894,MAFE4ImagesEEG,001,100826,
AFNE01.JPG,AFNE01.JPG,AFNE01.JPG,AFNE01.JPG,AFNE01.JPG,AFNE01.JPG,,,,,,,,,,,,,,,,,5,5,55,0,,,,,,,AMSA03.jpg,AMNE13.jpg,AMSA15.jpg,AMNE16.jpg,AMNE13.jpg,MN,1,num_6,16,num_6,0.583481675218,,,2017_Jun_28_1146,60.0040415894,MAFE4ImagesEEG,001,100826,
AFNE01.JPG,AFNE01.JPG,AFNE01.JPG,AFNE01.JPG,AFNE01.JPG,AFNE01.JPG,,,,,,,,,,,,,,,,,5,6,56,1,,,,,,,AMSA02.jpg,AMNE16.jpg,AMNE07.jpg,AMSA05.jpg,AMSA05.jpg,MS,2,num_4,16,num_4,1.10012835983,,,2017_Jun_28_1146,60.0040415894,MAFE4ImagesEEG,001,100826,
AFNE01.JPG,AFNE01.JPG,AFNE01.JPG,AFNE01.JPG,AFNE01.JPG,AFNE01.JPG,,,,,,,,,,,,,,,,,5,7,57,4,,,,,,,AMSA01.jpg,AMNE10.jpg,AMSA17.jpg,AMNE07.jpg,AMSA01.jpg,MS,2,num_8,16,num_8,0.633496461291,,,2017_Jun_28_1146,60.0040415894,MAFE4ImagesEEG,001,100826,
AFNE01.JPG,AFNE01.JPG,AFNE01.JPG,AFNE01.JPG,AFNE01.JPG,AFNE01.JPG,,,,,,,,,,,,,,,,,5,8,58,3,,,,,,,AMNE02.jpg,AMNE14.jpg,AMSA17.jpg,AMSA07.jpg,AMNE14.jpg,MN,1,num_6,16,num_6,0.483616642261,,,2017_Jun_28_1146,60.0040415894,MAFE4ImagesEEG,001,100826,
AFNE01.JPG,AFNE01.JPG,AFNE01.JPG,AFNE01.JPG,AFNE01.JPG,AFNE01.JPG,,,,,,,,,,,,,,,,,5,9,59,5,,,,,,,AMSA19.jpg,AMSA10.jpg,AMNE04.jpg,AMNE13.jpg,AMSA19.jpg,MS,2,num_8,32,num_6,0.750145134472,,,2017_Jun_28_1146,60.0040415894,MAFE4ImagesEEG,001,100826,
,,,,,,,,,,,,,,,,,,,,,,,,,,,,,,,,,,,,,,,,,,,space,19.9159605593,2017_Jun_28_1146,60.0040415894,MAFE4ImagesEEG,001,100826,
AFNE01.JPG,AFNE01.JPG,AFNE01.JPG,AFNE01.JPG,AFNE01.JPG,AFNE01.JPG,,,,,,,,,,,,,,,,,,,,,0,0,0,9,,,AFNE15.jpg,AFSA10.jpg,AFSA05.jpg,AFNE06.jpg,AFNE15.jpg,FN,3,num_8,32,num_6,0.650111392722,,,2017_Jun_28_1146,60.0040415894,MAFE4ImagesEEG,001,100826,
AFNE01.JPG,AFNE01.JPG,AFNE01.JPG,AFNE01.JPG,AFNE01.JPG,AFNE01.JPG,,,,,,,,,,,,,,,,,,,,,0,1,1,2,,,AFNE17.jpg,AFSA05.jpg,AFNE01.jpg,AFSA08.jpg,AFNE17.jpg,FN,3,num_8,32,num_4,0.583354341754,,,2017_Jun_28_1146,60.0040415894,MAFE4ImagesEEG,001,100826,
AFNE01.JPG,AFNE01.JPG,AFNE01.JPG,AFNE01.JPG,AFNE01.JPG,AFNE01.JPG,,,,,,,,,,,,,,,,,,,,,0,2,2,6,,,AFSA03.jpg,AFNE05.jpg,AFNE11.jpg,AFSA19.jpg,AFSA03.jpg,FS,4,num_8,16,num_8,0.8000996216,,,2017_Jun_28_1146,60.0040415894,MAFE4ImagesEEG,001,100826,
AFNE01.JPG,AFNE01.JPG,AFNE01.JPG,AFNE01.JPG,AFNE01.JPG,AFNE01.JPG,,,,,,,,,,,,,,,,,,,,,0,3,3,7,,,AFSA10.jpg,AFNE08.jpg,AFNE01.jpg,AFSA18.jpg,AFNE01.jpg,FN,3,num_2,32,num_6,0.600152094514,,,2017_Jun_28_1146,60.0040415894,MAFE4ImagesEEG,001,100826,
AFNE01.JPG,AFNE01.JPG,AFNE01.JPG,AFNE01.JPG,AFNE01.JPG,AFNE01.JPG,,,,,,,,,,,,,,,,,,,,,0,4,4,1,,,AFNE13.jpg,AFNE16.jpg,AFSA17.jpg,AFSA13.jpg,AFSA13.jpg,FS,4,num_4,32,num_6,0.683466985356,,,2017_Jun_28_1146,60.0040415894,MAFE4ImagesEEG,001,100826,
AFNE01.JPG,AFNE01.JPG,AFNE01.JPG,AFNE01.JPG,AFNE01.JPG,AFNE01.JPG,,,,,,,,,,,,,,,,,,,,,0,5,5,8,,,AFSA08.jpg,AFSA18.jpg,AFNE10.jpg,AFNE15.jpg,AFSA18.jpg,FS,4,num_6,32,num_4,0.983476799971,,,2017_Jun_28_1146,60.0040415894,MAFE4ImagesEEG,001,100826,
AFNE01.JPG,AFNE01.JPG,AFNE01.JPG,AFNE01.JPG,AFNE01.JPG,AFNE01.JPG,,,,,,,,,,,,,,,,,,,,,0,6,6,5,,,AFSA19.jpg,AFSA14.jpg,AFNE15.jpg,AFNE19.jpg,AFSA19.jpg,FS,4,num_8,32,num_6,1.33341832922,,,2017_Jun_28_1146,60.0040415894,MAFE4ImagesEEG,001,100826,
AFNE01.JPG,AFNE01.JPG,AFNE01.JPG,AFNE01.JPG,AFNE01.JPG,AFNE01.JPG,,,,,,,,,,,,,,,,,,,,,0,7,7,3,,,AFSA16.jpg,AFNE09.jpg,AFSA12.jpg,AFNE17.jpg,AFSA12.jpg,FS,4,num_2,32,num_4,0.583447035373,,,2017_Jun_28_1146,60.0040415894,MAFE4ImagesEEG,001,100826,
AFNE01.JPG,AFNE01.JPG,AFNE01.JPG,AFNE01.JPG,AFNE01.JPG,AFNE01.JPG,,,,,,,,,,,,,,,,,,,,,0,8,8,0,,,AFSA20.jpg,AFSA05.jpg,AFNE01.jpg,AFNE20.jpg,AFSA05.jpg,FS,4,num_6,16,num_6,0.366842560034,,,2017_Jun_28_1146,60.0040415894,MAFE4ImagesEEG,001,100826,
AFNE01.JPG,AFNE01.JPG,AFNE01.JPG,AFNE01.JPG,AFNE01.JPG,AFNE01.JPG,,,,,,,,,,,,,,,,,,,,,0,9,9,4,,,AFNE02.jpg,AFNE05.jpg,AFSA08.jpg,AFSA19.jpg,AFNE02.jpg,FN,3,num_8,16,num_8,0.750102476173,,,2017_Jun_28_1146,60.0040415894,MAFE4ImagesEEG,001,100826,
AFNE01.JPG,AFNE01.JPG,AFNE01.JPG,AFNE01.JPG,AFNE01.JPG,AFNE01.JPG,,,,,,,,,,,,,,,,,,,,,1,0,10,1,,,AFSA04.jpg,AFSA11.jpg,AFNE04.jpg,AFNE17.jpg,AFNE04.jpg,FN,3,num_2,32,num_8,0.716757467933,,,2017_Jun_28_1146,60.0040415894,MAFE4ImagesEEG,001,100826,
AFNE01.JPG,AFNE01.JPG,AFNE01.JPG,AFNE01.JPG,AFNE01.JPG,AFNE01.JPG,,,,,,,,,,,,,,,,,,,,,1,1,11,7,,,AFSA06.jpg,AFNE05.jpg,AFNE16.jpg,AFSA09.jpg,AFNE16.jpg,FN,3,num_2,32,num_4,1.13343135122,,,2017_Jun_28_1146,60.0040415894,MAFE4ImagesEEG,001,100826,
AFNE01.JPG,AFNE01.JPG,AFNE01.JPG,AFNE01.JPG,AFNE01.JPG,AFNE01.JPG,,,,,,,,,,,,,,,,,,,,,1,2,12,4,,,AFSA10.jpg,AFNE03.jpg,AFSA11.jpg,AFNE18.jpg,AFSA10.jpg,FS,4,num_8,32,num_4,2.06659636064,,,2017_Jun_28_1146,60.0040415894,MAFE4ImagesEEG,001,100826,
AFNE01.JPG,AFNE01.JPG,AFNE01.JPG,AFNE01.JPG,AFNE01.JPG,AFNE01.JPG,,,,,,,,,,,,,,,,,,,,,1,3,13,9,,,AFNE10.jpg,AFSA14.jpg,AFNE11.jpg,AFSA20.jpg,AFSA14.jpg,FS,4,num_6,32,num_4,0.916751181445,,,2017_Jun_28_1146,60.0040415894,MAFE4ImagesEEG,001,100826,
AFNE01.JPG,AFNE01.JPG,AFNE01.JPG,AFNE01.JPG,AFNE01.JPG,AFNE01.JPG,,,,,,,,,,,,,,,,,,,,,1,4,14,5,,,AFNE12.jpg,AFNE06.jpg,AFSA15.jpg,AFSA14.jpg,AFSA15.jpg,FS,4,num_2,32,num_6,1.01671981315,,,2017_Jun_28_1146,60.0040415894,MAFE4ImagesEEG,001,100826,
AFNE01.JPG,AFNE01.JPG,AFNE01.JPG,AFNE01.JPG,AFNE01.JPG,AFNE01.JPG,,,,,,,,,,,,,,,,,,,,,1,5,15,2,,,AFNE19.jpg,AFSA07.jpg,AFNE01.jpg,AFSA12.jpg,AFNE19.jpg,FN,3,num_8,16,num_8,1.26673857639,,,2017_Jun_28_1146,60.0040415894,MAFE4ImagesEEG,001,100826,
AFNE01.JPG,AFNE01.JPG,AFNE01.JPG,AFNE01.JPG,AFNE01.JPG,AFNE01.JPG,,,,,,,,,,,,,,,,,,,,,1,6,16,6,,,AFSA04.jpg,AFSA18.jpg,AFNE04.jpg,AFNE18.jpg,AFSA18.jpg,FS,4,num_6,16,num_6,0.650236481,,,2017_Jun_28_1146,60.0040415894,MAFE4ImagesEEG,001,100826,
AFNE01.JPG,AFNE01.JPG,AFNE01.JPG,AFNE01.JPG,AFNE01.JPG,AFNE01.JPG,,,,,,,,,,,,,,,,,,,,,1,7,17,3,,,AFNE09.jpg,AFSA17.jpg,AFSA08.jpg,AFNE01.jpg,AFSA08.jpg,FS,4,num_2,16,num_2,1.41669505209,,,2017_Jun_28_1146,60.0040415894,MAFE4ImagesEEG,001,100826,
AFNE01.JPG,AFNE01.JPG,AFNE01.JPG,AFNE01.JPG,AFNE01.JPG,AFNE01.JPG,,,,,,,,,,,,,,,,,,,,,1,8,18,8,,,AFSA12.jpg,AFNE06.jpg,AFNE14.jpg,AFSA01.jpg,AFNE06.jpg,FN,3,num_6,16,num_6,1.10007768303,,,2017_Jun_28_1146,60.0040415894,MAFE4ImagesEEG,001,100826,
AFNE01.JPG,AFNE01.JPG,AFNE01.JPG,AFNE01.JPG,AFNE01.JPG,AFNE01.JPG,,,,,,,,,,,,,,,,,,,,,1,9,19,0,,,AFSA02.jpg,AFNE04.jpg,AFNE17.jpg,AFSA14.jpg,AFNE17.jpg,FN,3,num_2,32,num_6,0.766875852758,,,2017_Jun_28_1146,60.0040415894,MAFE4ImagesEEG,001,100826,
AFNE01.JPG,AFNE01.JPG,AFNE01.JPG,AFNE01.JPG,AFNE01.JPG,AFNE01.JPG,,,,,,,,,,,,,,,,,,,,,2,0,20,7,,,AFSA20.jpg,AFSA13.jpg,AFNE07.jpg,AFNE08.jpg,AFNE08.jpg,FN,3,num_4,32,num_6,0.550154307624,,,2017_Jun_28_1146,60.0040415894,MAFE4ImagesEEG,001,100826,
AFNE01.JPG,AFNE01.JPG,AFNE01.JPG,AFNE01.JPG,AFNE01.JPG,AFNE01.JPG,,,,,,,,,,,,,,,,,,,,,2,1,21,5,,,AFNE13.jpg,AFSA19.jpg,AFNE01.jpg,AFSA03.jpg,AFSA03.jpg,FS,4,num_4,16,num_4,0.866805033555,,,2017_Jun_28_1146,60.0040415894,MAFE4ImagesEEG,001,100826,
AFNE01.JPG,AFNE01.JPG,AFNE01.JPG,AFNE01.JPG,AFNE01.JPG,AFNE01.JPG,,,,,,,,,,,,,,,,,,,,,2,2,22,0,,,AFNE08.jpg,AFSA04.jpg,AFSA14.jpg,AFNE09.jpg,AFSA04.jpg,FS,4,num_6,16,num_6,0.633874933526,,,2017_Jun_28_1146,60.0040415894,MAFE4ImagesEEG,001,100826,
AFNE01.JPG,AFNE01.JPG,AFNE01.JPG,AFNE01.JPG,AFNE01.JPG,AFNE01.JPG,,,,,,,,,,,,,,,,,,,,,2,3,23,4,,,AFNE10.jpg,AFSA06.jpg,AFNE20.jpg,AFSA08.jpg,AFSA06.jpg,FS,4,num_6,32,num_8,0.966746402424,,,2017_Jun_28_1146,60.0040415894,MAFE4ImagesEEG,001,100826,
AFNE01.JPG,AFNE01.JPG,AFNE01.JPG,AFNE01.JPG,AFNE01.JPG,AFNE01.JPG,,,,,,,,,,,,,,,,,,,,,2,4,24,3,,,AFNE20.jpg,AFSA03.jpg,AFSA17.jpg,AFNE01.jpg,AFSA03.jpg,FS,4,num_6,16,num_6,0.966819530964,,,2017_Jun_28_1146,60.0040415894,MAFE4ImagesEEG,001,100826,
AFNE01.JPG,AFNE01.JPG,AFNE01.JPG,AFNE01.JPG,AFNE01.JPG,AFNE01.JPG,,,,,,,,,,,,,,,,,,,,,2,5,25,1,,,AFNE02.jpg,AFNE07.jpg,AFSA01.jpg,AFSA12.jpg,AFSA01.jpg,FS,4,num_2,32,num_4,0.633457972581,,,2017_Jun_28_1146,60.0040415894,MAFE4ImagesEEG,001,100826,
AFNE01.JPG,AFNE01.JPG,AFNE01.JPG,AFNE01.JPG,AFNE01.JPG,AFNE01.JPG,,,,,,,,,,,,,,,,,,,,,2,6,26,2,,,AFSA16.jpg,AFNE03.jpg,AFNE09.jpg,AFSA07.jpg,AFSA16.jpg,FS,4,num_8,32,num_6,0.666771869131,,,2017_Jun_28_1146,60.0040415894,MAFE4ImagesEEG,001,100826,
AFNE01.JPG,AFNE01.JPG,AFNE01.JPG,AFNE01.JPG,AFNE01.JPG,AFNE01.JPG,,,,,,,,,,,,,,,,,,,,,2,7,27,8,,,AFSA10.jpg,AFNE16.jpg,AFSA08.jpg,AFNE12.jpg,AFSA08.jpg,FS,4,num_2,32,num_6,1.21675393981,,,2017_Jun_28_1146,60.0040415894,MAFE4ImagesEEG,001,100826,
AFNE01.JPG,AFNE01.JPG,AFNE01.JPG,AFNE01.JPG,AFNE01.JPG,AFNE01.JPG,,,,,,,,,,,,,,,,,,,,,2,8,28,9,,,AFSA17.jpg,AFSA15.jpg,AFNE16.jpg,AFNE07.jpg,AFSA17.jpg,FS,4,num_8,32,num_4,0.966615540849,,,2017_Jun_28_1146,60.0040415894,MAFE4ImagesEEG,001,100826,
AFNE01.JPG,AFNE01.JPG,AFNE01.JPG,AFNE01.JPG,AFNE01.JPG,AFNE01.JPG,,,,,,,,,,,,,,,,,,,,,2,9,29,6,,,AFNE02.jpg,AFSA01.jpg,AFNE10.jpg,AFSA20.jpg,AFSA01.jpg,FS,4,num_6,16,num_6,0.683515737706,,,2017_Jun_28_1146,60.0040415894,MAFE4ImagesEEG,001,100826,
AFNE01.JPG,AFNE01.JPG,AFNE01.JPG,AFNE01.JPG,AFNE01.JPG,AFNE01.JPG,,,,,,,,,,,,,,,,,,,,,3,0,30,3,,,AFNE05.jpg,AFSA02.jpg,AFSA10.jpg,AFNE14.jpg,AFSA10.jpg,FS,4,num_2,32,num_4,0.916798330101,,,2017_Jun_28_1146,60.0040415894,MAFE4ImagesEEG,001,100826,
AFNE01.JPG,AFNE01.JPG,AFNE01.JPG,AFNE01.JPG,AFNE01.JPG,AFNE01.JPG,,,,,,,,,,,,,,,,,,,,,3,1,31,7,,,AFNE14.jpg,AFSA20.jpg,AFSA01.jpg,AFNE13.jpg,AFSA01.jpg,FS,4,num_2,32,num_6,0.683652693348,,,2017_Jun_28_1146,60.0040415894,MAFE4ImagesEEG,001,100826,
AFNE01.JPG,AFNE01.JPG,AFNE01.JPG,AFNE01.JPG,AFNE01.JPG,AFNE01.JPG,,,,,,,,,,,,,,,,,,,,,3,2,32,2,,,AFSA19.jpg,AFNE05.jpg,AFNE04.jpg,AFSA11.jpg,AFSA19.jpg,FS,4,num_8,32,num_4,0.916764331749,,,2017_Jun_28_1146,60.0040415894,MAFE4ImagesEEG,001,100826,
AFNE01.JPG,AFNE01.JPG,AFNE01.JPG,AFNE01.JPG,AFNE01.JPG,AFNE01.JPG,,,,,,,,,,,,,,,,,,,,,3,3,33,1,,,AFSA10.jpg,AFSA03.jpg,AFNE04.jpg,AFNE20.jpg,AFSA10.jpg,FS,4,num_8,32,num_6,0.583447035373,,,2017_Jun_28_1146,60.0040415894,MAFE4ImagesEEG,001,100826,
AFNE01.JPG,AFNE01.JPG,AFNE01.JPG,AFNE01.JPG,AFNE01.JPG,AFNE01.JPG,,,,,,,,,,,,,,,,,,,,,3,4,34,9,,,AFSA10.jpg,AFNE04.jpg,AFSA16.jpg,AFNE09.jpg,AFSA16.jpg,FS,4,num_2,32,num_6,1.2168251439,,,2017_Jun_28_1146,60.0040415894,MAFE4ImagesEEG,001,100826,
AFNE01.JPG,AFNE01.JPG,AFNE01.JPG,AFNE01.JPG,AFNE01.JPG,AFNE01.JPG,,,,,,,,,,,,,,,,,,,,,3,5,35,0,,,AFNE11.jpg,AFNE09.jpg,AFSA12.jpg,AFSA04.jpg,AFNE11.jpg,FN,3,num_8,32,num_6,2.64994492909,,,2017_Jun_28_1146,60.0040415894,MAFE4ImagesEEG,001,100826,
AFNE01.JPG,AFNE01.JPG,AFNE01.JPG,AFNE01.JPG,AFNE01.JPG,AFNE01.JPG,,,,,,,,,,,,,,,,,,,,,3,6,36,8,,,AFSA19.jpg,AFNE19.jpg,AFNE15.jpg,AFSA14.jpg,AFNE19.jpg,FN,3,num_6,16,num_6,2.89994412723,,,2017_Jun_28_1146,60.0040415894,MAFE4ImagesEEG,001,100826,
AFNE01.JPG,AFNE01.JPG,AFNE01.JPG,AFNE01.JPG,AFNE01.JPG,AFNE01.JPG,,,,,,,,,,,,,,,,,,,,,3,7,37,6,,,AFNE19.jpg,AFSA09.jpg,AFSA13.jpg,AFNE11.jpg,AFSA13.jpg,FS,4,num_2,32,num_8,0.316842207234,,,2017_Jun_28_1146,60.0040415894,MAFE4ImagesEEG,001,100826,
AFNE01.JPG,AFNE01.JPG,AFNE01.JPG,AFNE01.JPG,AFNE01.JPG,AFNE01.JPG,,,,,,,,,,,,,,,,,,,,,3,8,38,4,,,AFSA10.jpg,AFSA08.jpg,AFNE04.jpg,AFNE05.jpg,AFNE04.jpg,FN,3,num_2,32,num_4,0.583503485468,,,2017_Jun_28_1146,60.0040415894,MAFE4ImagesEEG,001,100826,
