IPosition2,IPosition3,IPosition1,IPosition6,IPosition4,IPosition5,TrialsF1.thisRepN,TrialsF1.thisTrialN,TrialsF1.thisN,TrialsF1.thisIndex,TrialsM1.thisRepN,TrialsM1.thisTrialN,TrialsM1.thisN,TrialsM1.thisIndex,TrialsF2.thisRepN,TrialsF2.thisTrialN,TrialsF2.thisN,TrialsF2.thisIndex,TrialsM2.thisRepN,TrialsM2.thisTrialN,TrialsM2.thisN,TrialsM2.thisIndex,TrialsF3.thisRepN,TrialsF3.thisTrialN,TrialsF3.thisN,TrialsF3.thisIndex,TrialsM3.thisRepN,TrialsM3.thisTrialN,TrialsM3.thisN,TrialsM3.thisIndex,InstrKey_resp.keys,InstrKey_resp.rt,Image0 _Position,Image1 _Position,Image2 _Position,Image3 _Position,Center_image,condition,code,correct_answer,accuracy,Key_Resp.keys,Key_Resp.rt,BreakKey_resp.keys,BreakKey_resp.rt,date,frameRate,expName,session,participant,
,,,,,,,,,,,,,,,,,,,,,,,,,,,,,,space,18.5491006795,,,,,,,,,,,,,,2017_Jul_06_1835,60.0062357921,FEMA4ImagesEEG,001,100824,
AMNE23.JPG,AMNE24.JPG,AMNE22.JPG,AMSA24.JPG,AMSA22.JPG,AMSA23.JPG,0,0,0,9,,,,,,,,,,,,,,,,,,,,,,,AFSA01.jpg,AFNE01.jpg,AFSA12.jpg,AFNE15.jpg,AFSA12.jpg,FS,4,num_2,32,num_4,3.11658195942,,,2017_Jul_06_1835,60.0062357921,FEMA4ImagesEEG,001,100824,
AMSA25.JPG,AMNE24.JPG,AMSA24.JPG,AMNE26.JPG,AMSA21.JPG,AMNE25.JPG,0,1,1,3,,,,,,,,,,,,,,,,,,,,,,,AFNE12.jpg,AFSA02.jpg,AFNE10.jpg,AFSA18.jpg,AFNE10.jpg,FN,3,num_2,16,num_2,2.68330052169,,,2017_Jul_06_1835,60.0062357921,FEMA4ImagesEEG,001,100824,
AMSA21.JPG,AMNE22.JPG,AMNE21.JPG,AMSA23.JPG,AMSA22.JPG,AMNE23.JPG,0,2,2,1,,,,,,,,,,,,,,,,,,,,,,,AFSA04.jpg,AFSA11.jpg,AFNE13.jpg,AFNE12.jpg,AFNE12.jpg,FN,3,num_4,16,num_4,1.21675137384,,,2017_Jul_06_1835,60.0062357921,FEMA4ImagesEEG,001,100824,
AMSA21.JPG,AMNE23.JPG,AMNE21.JPG,AMSA25.JPG,AMNE25.JPG,AMSA23.JPG,0,3,3,5,,,,,,,,,,,,,,,,,,,,,,,AFSA01.jpg,AFNE09.jpg,AFNE06.jpg,AFSA02.jpg,AFSA02.jpg,FS,4,num_4,32,num_8,1.36671843391,,,2017_Jul_06_1835,60.0062357921,FEMA4ImagesEEG,001,100824,
AFSA21.JPG,AFNE22.JPG,AFNE21.JPG,AFSA23.JPG,AFSA22.JPG,AFNE23.JPG,0,4,4,0,,,,,,,,,,,,,,,,,,,,,,,AFSA05.jpg,AFNE19.jpg,AFNE02.jpg,AFSA12.jpg,AFSA05.jpg,FS,4,num_8,32,num_2,1.8333885005,,,2017_Jul_06_1835,60.0062357921,FEMA4ImagesEEG,001,100824,
AFSA21.JPG,AFNE23.JPG,AFNE21.JPG,AFSA25.JPG,AFNE25.JPG,AFSA23.JPG,0,5,5,4,,,,,,,,,,,,,,,,,,,,,,,AFNE01.jpg,AFSA02.jpg,AFSA19.jpg,AFNE19.jpg,AFSA02.jpg,FS,4,num_6,16,num_6,0.700119764078,,,2017_Jul_06_1835,60.0062357921,FEMA4ImagesEEG,001,100824,
AFSA25.JPG,AFNE24.JPG,AFSA24.JPG,AFNE21.JPG,AFSA21.JPG,AFNE25.JPG,0,6,6,2,,,,,,,,,,,,,,,,,,,,,,,AFNE11.jpg,AFSA02.jpg,AFSA09.jpg,AFNE03.jpg,AFSA02.jpg,FS,4,num_6,16,num_6,0.84995884914,,,2017_Jul_06_1835,60.0062357921,FEMA4ImagesEEG,001,100824,
AMNE22.JPG,AMSA24.JPG,AMSA22.JPG,AMNE25.JPG,AMNE24.JPG,AMSA25.JPG,0,7,7,7,,,,,,,,,,,,,,,,,,,,,,,AFSA08.jpg,AFSA19.jpg,AFNE08.jpg,AFNE06.jpg,AFSA08.jpg,FS,4,num_8,16,num_8,1.96673036541,,,2017_Jul_06_1835,60.0062357921,FEMA4ImagesEEG,001,100824,
AFNE22.JPG,AFSA24.JPG,AFSA22.JPG,AFNE25.JPG,AFNE24.JPG,AFSA25.JPG,0,8,8,6,,,,,,,,,,,,,,,,,,,,,,,AFNE04.jpg,AFSA20.jpg,AFSA11.jpg,AFNE03.jpg,AFSA20.jpg,FS,4,num_6,16,num_6,2.48343831126,,,2017_Jul_06_1835,60.0062357921,FEMA4ImagesEEG,001,100824,
AFNE23.JPG,AFNE24.JPG,AFNE22.JPG,AFSA24.JPG,AFSA22.JPG,AFSA23.JPG,0,9,9,8,,,,,,,,,,,,,,,,,,,,,,,AFSA14.jpg,AFSA10.jpg,AFNE18.jpg,AFNE17.jpg,AFNE18.jpg,FN,3,num_2,32,num_8,1.28338012914,,,2017_Jul_06_1835,60.0062357921,FEMA4ImagesEEG,001,100824,
AMSA25.JPG,AMNE24.JPG,AMSA24.JPG,AMNE26.JPG,AMSA21.JPG,AMNE25.JPG,,,,,0,0,0,3,,,,,,,,,,,,,,,,,,,AMNE12.jpg,AMNE04.jpg,AMSA18.jpg,AMSA11.jpg,AMNE04.jpg,MN,1,num_6,32,num_8,3.04995352495,,,2017_Jul_06_1835,60.0062357921,FEMA4ImagesEEG,001,100824,
AFSA21.JPG,AFNE23.JPG,AFNE21.JPG,AFSA25.JPG,AFNE25.JPG,AFSA23.JPG,,,,,0,1,1,4,,,,,,,,,,,,,,,,,,,AMSA06.jpg,AMSA07.jpg,AMNE10.jpg,AMNE20.jpg,AMNE10.jpg,MN,1,num_2,32,num_8,1.15017521987,,,2017_Jul_06_1835,60.0062357921,FEMA4ImagesEEG,001,100824,
AFNE22.JPG,AFSA24.JPG,AFSA22.JPG,AFNE25.JPG,AFNE24.JPG,AFSA25.JPG,,,,,0,2,2,6,,,,,,,,,,,,,,,,,,,AMSA02.jpg,AMNE03.jpg,AMSA04.jpg,AMNE02.jpg,AMSA02.jpg,MS,2,num_8,32,num_6,1.93340011116,,,2017_Jul_06_1835,60.0062357921,FEMA4ImagesEEG,001,100824,
AMSA21.JPG,AMNE22.JPG,AMNE21.JPG,AMSA23.JPG,AMSA22.JPG,AMNE23.JPG,,,,,0,3,3,1,,,,,,,,,,,,,,,,,,,AMNE09.jpg,AMSA10.jpg,AMNE17.jpg,AMSA14.jpg,AMNE09.jpg,MN,1,num_8,16,num_8,1.55004365265,,,2017_Jul_06_1835,60.0062357921,FEMA4ImagesEEG,001,100824,
AFSA25.JPG,AFNE24.JPG,AFSA24.JPG,AFNE21.JPG,AFSA21.JPG,AFNE25.JPG,,,,,0,4,4,2,,,,,,,,,,,,,,,,,,,AMSA09.jpg,AMSA13.jpg,AMNE19.jpg,AMNE01.jpg,AMSA09.jpg,MS,2,num_8,32,num_6,1.79976316623,,,2017_Jul_06_1835,60.0062357921,FEMA4ImagesEEG,001,100824,
AFNE23.JPG,AFNE24.JPG,AFNE22.JPG,AFSA24.JPG,AFSA22.JPG,AFSA23.JPG,,,,,0,5,5,8,,,,,,,,,,,,,,,,,,,AMSA09.jpg,AMSA03.jpg,AMNE19.jpg,AMNE06.jpg,AMSA03.jpg,MS,2,num_6,16,num_6,1.45004904096,,,2017_Jul_06_1835,60.0062357921,FEMA4ImagesEEG,001,100824,
AMNE23.JPG,AMNE24.JPG,AMNE22.JPG,AMSA24.JPG,AMSA22.JPG,AMSA23.JPG,,,,,0,6,6,9,,,,,,,,,,,,,,,,,,,AMSA08.jpg,AMSA13.jpg,AMNE17.jpg,AMNE11.jpg,AMNE17.jpg,MN,1,num_2,32,num_8,1.31667061173,,,2017_Jul_06_1835,60.0062357921,FEMA4ImagesEEG,001,100824,
AMNE22.JPG,AMSA24.JPG,AMSA22.JPG,AMNE25.JPG,AMNE24.JPG,AMSA25.JPG,,,,,0,7,7,7,,,,,,,,,,,,,,,,,,,AMSA03.jpg,AMNE07.jpg,AMNE04.jpg,AMSA07.jpg,AMSA03.jpg,MS,2,num_8,16,num_8,1.93338696088,,,2017_Jul_06_1835,60.0062357921,FEMA4ImagesEEG,001,100824,
AFSA21.JPG,AFNE22.JPG,AFNE21.JPG,AFSA23.JPG,AFSA22.JPG,AFNE23.JPG,,,,,0,8,8,0,,,,,,,,,,,,,,,,,,,AMNE07.jpg,AMNE15.jpg,AMSA07.jpg,AMSA18.jpg,AMNE15.jpg,MN,1,num_6,32,num_8,2.50000064145,,,2017_Jul_06_1835,60.0062357921,FEMA4ImagesEEG,001,100824,
AMSA21.JPG,AMNE23.JPG,AMNE21.JPG,AMSA25.JPG,AMNE25.JPG,AMSA23.JPG,,,,,0,9,9,5,,,,,,,,,,,,,,,,,,,AMNE16.jpg,AMSA01.jpg,AMSA11.jpg,AMNE06.jpg,AMSA01.jpg,MS,2,num_6,16,num_6,2.53332063206,,,2017_Jul_06_1835,60.0062357921,FEMA4ImagesEEG,001,100824,
AFSA21.JPG,AFNE22.JPG,AFNE21.JPG,AFSA23.JPG,AFSA22.JPG,AFNE23.JPG,,,,,,,,,0,0,0,0,,,,,,,,,,,,,,,AFSA01.jpg,AFSA14.jpg,AFNE05.jpg,AFNE15.jpg,AFNE05.jpg,FN,3,num_2,32,num_8,1.88339719246,,,2017_Jul_06_1835,60.0062357921,FEMA4ImagesEEG,001,100824,
AFNE23.JPG,AFNE24.JPG,AFNE22.JPG,AFSA24.JPG,AFSA22.JPG,AFSA23.JPG,,,,,,,,,0,1,1,8,,,,,,,,,,,,,,,AFSA16.jpg,AFNE13.jpg,AFNE04.jpg,AFSA17.jpg,AFSA17.jpg,FS,4,num_4,16,num_4,2.76661573327,,,2017_Jul_06_1835,60.0062357921,FEMA4ImagesEEG,001,100824,
AFSA25.JPG,AFNE24.JPG,AFSA24.JPG,AFNE21.JPG,AFSA21.JPG,AFNE25.JPG,,,,,,,,,0,2,2,2,,,,,,,,,,,,,,,AFSA04.jpg,AFNE11.jpg,AFSA17.jpg,AFNE05.jpg,AFSA17.jpg,FS,4,num_2,16,num_2,1.26674178382,,,2017_Jul_06_1835,60.0062357921,FEMA4ImagesEEG,001,100824,
AFNE22.JPG,AFSA24.JPG,AFSA22.JPG,AFNE25.JPG,AFNE24.JPG,AFSA25.JPG,,,,,,,,,0,3,3,6,,,,,,,,,,,,,,,AFSA06.jpg,AFSA17.jpg,AFNE11.jpg,AFNE05.jpg,AFNE05.jpg,FN,3,num_4,32,num_6,2.3499999037,,,2017_Jul_06_1835,60.0062357921,FEMA4ImagesEEG,001,100824,
AMSA21.JPG,AMNE23.JPG,AMNE21.JPG,AMSA25.JPG,AMNE25.JPG,AMSA23.JPG,,,,,,,,,0,4,4,5,,,,,,,,,,,,,,,AFNE06.jpg,AFSA06.jpg,AFSA05.jpg,AFNE07.jpg,AFSA05.jpg,FS,4,num_2,32,num_6,4.33317328454,,,2017_Jul_06_1835,60.0062357921,FEMA4ImagesEEG,001,100824,
AMNE23.JPG,AMNE24.JPG,AMNE22.JPG,AMSA24.JPG,AMSA22.JPG,AMSA23.JPG,,,,,,,,,0,5,5,9,,,,,,,,,,,,,,,AFNE14.jpg,AFSA01.jpg,AFSA12.jpg,AFNE19.jpg,AFNE19.jpg,FN,3,num_4,32,num_8,1.11674778152,,,2017_Jul_06_1835,60.0062357921,FEMA4ImagesEEG,001,100824,
AMNE22.JPG,AMSA24.JPG,AMSA22.JPG,AMNE25.JPG,AMNE24.JPG,AMSA25.JPG,,,,,,,,,0,6,6,7,,,,,,,,,,,,,,,AFNE17.jpg,AFNE08.jpg,AFSA06.jpg,AFSA08.jpg,AFNE08.jpg,FN,3,num_6,32,num_8,1.20014798909,,,2017_Jul_06_1835,60.0062357921,FEMA4ImagesEEG,001,100824,
AFSA21.JPG,AFNE23.JPG,AFNE21.JPG,AFSA25.JPG,AFNE25.JPG,AFSA23.JPG,,,,,,,,,0,7,7,4,,,,,,,,,,,,,,,AFSA01.jpg,AFNE16.jpg,AFNE04.jpg,AFSA02.jpg,AFSA01.jpg,FS,4,num_8,16,num_8,2.98328307341,,,2017_Jul_06_1835,60.0062357921,FEMA4ImagesEEG,001,100824,
AMSA25.JPG,AMNE24.JPG,AMSA24.JPG,AMNE26.JPG,AMSA21.JPG,AMNE25.JPG,,,,,,,,,0,8,8,3,,,,,,,,,,,,,,,AFSA11.jpg,AFNE06.jpg,AFNE11.jpg,AFSA01.jpg,AFNE11.jpg,FN,3,num_2,32,num_6,1.41671044752,,,2017_Jul_06_1835,60.0062357921,FEMA4ImagesEEG,001,100824,
AMSA21.JPG,AMNE22.JPG,AMNE21.JPG,AMSA23.JPG,AMSA22.JPG,AMNE23.JPG,,,,,,,,,0,9,9,1,,,,,,,,,,,,,,,AFNE19.jpg,AFSA18.jpg,AFNE04.jpg,AFSA04.jpg,AFNE19.jpg,FN,3,num_8,32,num_2,1.91654815362,,,2017_Jul_06_1835,60.0062357921,FEMA4ImagesEEG,001,100824,
AMSA21.JPG,AMNE23.JPG,AMNE21.JPG,AMSA25.JPG,AMNE25.JPG,AMSA23.JPG,,,,,,,,,,,,,0,0,0,5,,,,,,,,,,,AMNE10.jpg,AMNE01.jpg,AMSA10.jpg,AMSA18.jpg,AMSA10.jpg,MS,2,num_2,16,num_2,0.933469711686,,,2017_Jul_06_1835,60.0062357921,FEMA4ImagesEEG,001,100824,
AFSA21.JPG,AFNE23.JPG,AFNE21.JPG,AFSA25.JPG,AFNE25.JPG,AFSA23.JPG,,,,,,,,,,,,,0,1,1,4,,,,,,,,,,,AMNE18.jpg,AMSA06.jpg,AMNE15.jpg,AMSA08.jpg,AMNE15.jpg,MN,1,num_2,32,num_8,1.0334280798,,,2017_Jul_06_1835,60.0062357921,FEMA4ImagesEEG,001,100824,
AFNE23.JPG,AFNE24.JPG,AFNE22.JPG,AFSA24.JPG,AFSA22.JPG,AFSA23.JPG,,,,,,,,,,,,,0,2,2,8,,,,,,,,,,,AMSA19.jpg,AMNE04.jpg,AMNE01.jpg,AMSA13.jpg,AMNE04.jpg,MN,1,num_6,16,num_6,0.866808561608,,,2017_Jul_06_1835,60.0062357921,FEMA4ImagesEEG,001,100824,
AFSA25.JPG,AFNE24.JPG,AFSA24.JPG,AFNE21.JPG,AFSA21.JPG,AFNE25.JPG,,,,,,,,,,,,,0,3,3,2,,,,,,,,,,,AMSA14.jpg,AMNE20.jpg,AMSA19.jpg,AMNE03.jpg,AMNE20.jpg,MN,1,num_6,32,num_8,1.21679339081,,,2017_Jul_06_1835,60.0062357921,FEMA4ImagesEEG,001,100824,
AMNE22.JPG,AMSA24.JPG,AMSA22.JPG,AMNE25.JPG,AMNE24.JPG,AMSA25.JPG,,,,,,,,,,,,,0,4,4,7,,,,,,,,,,,AMNE04.jpg,AMNE18.jpg,AMSA02.jpg,AMSA06.jpg,AMSA02.jpg,MS,2,num_2,32,num_6,1.65003024577,,,2017_Jul_06_1835,60.0062357921,FEMA4ImagesEEG,001,100824,
AMSA21.JPG,AMNE22.JPG,AMNE21.JPG,AMSA23.JPG,AMSA22.JPG,AMNE23.JPG,,,,,,,,,,,,,0,5,5,1,,,,,,,,,,,AMSA03.jpg,AMNE06.jpg,AMNE12.jpg,AMSA15.jpg,AMSA03.jpg,MS,2,num_8,32,num_4,2.38377630617,,,2017_Jul_06_1835,60.0062357921,FEMA4ImagesEEG,001,100824,
AFNE22.JPG,AFSA24.JPG,AFSA22.JPG,AFNE25.JPG,AFNE24.JPG,AFSA25.JPG,,,,,,,,,,,,,0,6,6,6,,,,,,,,,,,AMSA08.jpg,AMSA15.jpg,AMNE02.jpg,AMNE16.jpg,AMNE02.jpg,MN,1,num_2,16,num_2,1.96677430673,,,2017_Jul_06_1835,60.0062357921,FEMA4ImagesEEG,001,100824,
AMNE23.JPG,AMNE24.JPG,AMNE22.JPG,AMSA24.JPG,AMSA22.JPG,AMSA23.JPG,,,,,,,,,,,,,0,7,7,9,,,,,,,,,,,AMSA20.jpg,AMNE15.jpg,AMSA06.jpg,AMNE04.jpg,AMNE04.jpg,MN,1,num_4,32,num_6,1.66684852575,,,2017_Jul_06_1835,60.0062357921,FEMA4ImagesEEG,001,100824,
AMSA25.JPG,AMNE24.JPG,AMSA24.JPG,AMNE26.JPG,AMSA21.JPG,AMNE25.JPG,,,,,,,,,,,,,0,8,8,3,,,,,,,,,,,AMNE06.jpg,AMNE02.jpg,AMSA03.jpg,AMSA09.jpg,AMSA09.jpg,MS,2,num_4,32,num_8,1.33342089516,,,2017_Jul_06_1835,60.0062357921,FEMA4ImagesEEG,001,100824,
AFSA21.JPG,AFNE22.JPG,AFNE21.JPG,AFSA23.JPG,AFSA22.JPG,AFNE23.JPG,,,,,,,,,,,,,0,9,9,0,,,,,,,,,,,AMNE08.jpg,AMNE14.jpg,AMSA05.jpg,AMSA19.jpg,AMSA19.jpg,MS,2,num_4,16,num_4,1.63347657537,,,2017_Jul_06_1835,60.0062357921,FEMA4ImagesEEG,001,100824,
AMSA21.JPG,AMNE22.JPG,AMNE21.JPG,AMSA23.JPG,AMSA22.JPG,AMNE23.JPG,,,,,,,,,,,,,,,,,0,0,0,1,,,,,,,AFSA07.jpg,AFNE20.jpg,AFSA11.jpg,AFNE18.jpg,AFNE18.jpg,FN,3,num_4,32,num_6,2.91661326354,,,2017_Jul_06_1835,60.0062357921,FEMA4ImagesEEG,001,100824,
AMNE23.JPG,AMNE24.JPG,AMNE22.JPG,AMSA24.JPG,AMSA22.JPG,AMSA23.JPG,,,,,,,,,,,,,,,,,0,1,1,9,,,,,,,AFSA18.jpg,AFNE11.jpg,AFSA13.jpg,AFNE20.jpg,AFSA18.jpg,FS,4,num_8,32,num_6,2.36664947507,,,2017_Jul_06_1835,60.0062357921,FEMA4ImagesEEG,001,100824,
AFSA21.JPG,AFNE23.JPG,AFNE21.JPG,AFSA25.JPG,AFNE25.JPG,AFSA23.JPG,,,,,,,,,,,,,,,,,0,2,2,4,,,,,,,AFSA05.jpg,AFNE14.jpg,AFSA17.jpg,AFNE18.jpg,AFSA05.jpg,FS,4,num_8,16,num_8,1.84969231486,,,2017_Jul_06_1835,60.0062357921,FEMA4ImagesEEG,001,100824,
AMSA25.JPG,AMNE24.JPG,AMSA24.JPG,AMNE26.JPG,AMSA21.JPG,AMNE25.JPG,,,,,,,,,,,,,,,,,0,3,3,3,,,,,,,AFSA14.jpg,AFNE14.jpg,AFNE05.jpg,AFSA20.jpg,AFNE05.jpg,FN,3,num_2,16,num_2,1.9667326106,,,2017_Jul_06_1835,60.0062357921,FEMA4ImagesEEG,001,100824,
AFNE22.JPG,AFSA24.JPG,AFSA22.JPG,AFNE25.JPG,AFNE24.JPG,AFSA25.JPG,,,,,,,,,,,,,,,,,0,4,4,6,,,,,,,AFNE01.jpg,AFNE13.jpg,AFSA08.jpg,AFSA16.jpg,AFNE01.jpg,FN,3,num_8,32,num_6,2.35008682404,,,2017_Jul_06_1835,60.0062357921,FEMA4ImagesEEG,001,100824,
AFSA25.JPG,AFNE24.JPG,AFSA24.JPG,AFNE21.JPG,AFSA21.JPG,AFNE25.JPG,,,,,,,,,,,,,,,,,0,5,5,2,,,,,,,AFNE14.jpg,AFSA19.jpg,AFSA07.jpg,AFNE09.jpg,AFNE14.jpg,FN,3,num_8,16,num_8,1.0335939019,,,2017_Jul_06_1835,60.0062357921,FEMA4ImagesEEG,001,100824,
AMSA21.JPG,AMNE23.JPG,AMNE21.JPG,AMSA25.JPG,AMNE25.JPG,AMSA23.JPG,,,,,,,,,,,,,,,,,0,6,6,5,,,,,,,AFSA08.jpg,AFNE09.jpg,AFNE14.jpg,AFSA03.jpg,AFSA03.jpg,FS,4,num_4,16,num_4,0.666875147144,,,2017_Jul_06_1835,60.0062357921,FEMA4ImagesEEG,001,100824,
AFNE23.JPG,AFNE24.JPG,AFNE22.JPG,AFSA24.JPG,AFSA22.JPG,AFSA23.JPG,,,,,,,,,,,,,,,,,0,7,7,8,,,,,,,AFNE16.jpg,AFNE03.jpg,AFSA05.jpg,AFSA02.jpg,AFNE16.jpg,FN,3,num_8,16,num_8,1.28338718542,,,2017_Jul_06_1835,60.0062357921,FEMA4ImagesEEG,001,100824,
AMNE22.JPG,AMSA24.JPG,AMSA22.JPG,AMNE25.JPG,AMNE24.JPG,AMSA25.JPG,,,,,,,,,,,,,,,,,0,8,8,7,,,,,,,AFSA15.jpg,AFNE05.jpg,AFNE03.jpg,AFSA18.jpg,AFNE03.jpg,FN,3,num_2,16,num_2,0.866851861472,,,2017_Jul_06_1835,60.0062357921,FEMA4ImagesEEG,001,100824,
AFSA21.JPG,AFNE22.JPG,AFNE21.JPG,AFSA23.JPG,AFSA22.JPG,AFNE23.JPG,,,,,,,,,,,,,,,,,0,9,9,0,,,,,,,AFSA02.jpg,AFNE15.jpg,AFNE19.jpg,AFSA17.jpg,AFSA02.jpg,FS,4,num_8,16,num_8,1.50008788251,,,2017_Jul_06_1835,60.0062357921,FEMA4ImagesEEG,001,100824,
AFSA21.JPG,AFNE23.JPG,AFNE21.JPG,AFSA25.JPG,AFNE25.JPG,AFSA23.JPG,,,,,,,,,,,,,,,,,,,,,0,0,0,4,,,AMNE06.jpg,AMSA16.jpg,AMNE15.jpg,AMSA09.jpg,AMSA16.jpg,MS,2,num_6,32,num_2,3.24994595547,,,2017_Jul_06_1835,60.0062357921,FEMA4ImagesEEG,001,100824,
AMSA21.JPG,AMNE23.JPG,AMNE21.JPG,AMSA25.JPG,AMNE25.JPG,AMSA23.JPG,,,,,,,,,,,,,,,,,,,,,0,1,1,5,,,AMNE12.jpg,AMSA06.jpg,AMSA01.jpg,AMNE02.jpg,AMSA01.jpg,MS,2,num_2,32,num_8,2.20000526018,,,2017_Jul_06_1835,60.0062357921,FEMA4ImagesEEG,001,100824,
AMSA25.JPG,AMNE24.JPG,AMSA24.JPG,AMNE26.JPG,AMSA21.JPG,AMNE25.JPG,,,,,,,,,,,,,,,,,,,,,0,2,2,3,,,AMSA20.jpg,AMNE03.jpg,AMNE13.jpg,AMSA04.jpg,AMSA20.jpg,MS,2,num_8,16,num_8,1.50009044854,,,2017_Jul_06_1835,60.0062357921,FEMA4ImagesEEG,001,100824,
AMSA21.JPG,AMNE22.JPG,AMNE21.JPG,AMSA23.JPG,AMSA22.JPG,AMNE23.JPG,,,,,,,,,,,,,,,,,,,,,0,3,3,1,,,AMSA18.jpg,AMSA12.jpg,AMNE20.jpg,AMNE01.jpg,AMNE20.jpg,MN,1,num_2,16,num_2,1.40010096866,,,2017_Jul_06_1835,60.0062357921,FEMA4ImagesEEG,001,100824,
AMNE23.JPG,AMNE24.JPG,AMNE22.JPG,AMSA24.JPG,AMSA22.JPG,AMSA23.JPG,,,,,,,,,,,,,,,,,,,,,0,4,4,9,,,AMNE15.jpg,AMSA05.jpg,AMNE18.jpg,AMSA02.jpg,AMNE18.jpg,MN,1,num_2,32,num_8,1.16677732172,,,2017_Jul_06_1835,60.0062357921,FEMA4ImagesEEG,001,100824,
AFNE22.JPG,AFSA24.JPG,AFSA22.JPG,AFNE25.JPG,AFNE24.JPG,AFSA25.JPG,,,,,,,,,,,,,,,,,,,,,0,5,5,6,,,AMNE20.jpg,AMNE11.jpg,AMSA08.jpg,AMSA09.jpg,AMSA09.jpg,MS,2,num_4,16,num_4,0.716795315151,,,2017_Jul_06_1835,60.0062357921,FEMA4ImagesEEG,001,100824,
AFSA21.JPG,AFNE22.JPG,AFNE21.JPG,AFSA23.JPG,AFSA22.JPG,AFNE23.JPG,,,,,,,,,,,,,,,,,,,,,0,6,6,0,,,AMSA07.jpg,AMNE10.jpg,AMSA20.jpg,AMNE16.jpg,AMNE16.jpg,MN,1,num_4,32,num_6,1.63338997588,,,2017_Jul_06_1835,60.0062357921,FEMA4ImagesEEG,001,100824,
AFNE23.JPG,AFNE24.JPG,AFNE22.JPG,AFSA24.JPG,AFSA22.JPG,AFSA23.JPG,,,,,,,,,,,,,,,,,,,,,0,7,7,8,,,AMNE03.jpg,AMSA07.jpg,AMSA03.jpg,AMNE05.jpg,AMSA07.jpg,MS,2,num_6,32,num_4,2.31665649917,,,2017_Jul_06_1835,60.0062357921,FEMA4ImagesEEG,001,100824,
AMNE22.JPG,AMSA24.JPG,AMSA22.JPG,AMNE25.JPG,AMNE24.JPG,AMSA25.JPG,,,,,,,,,,,,,,,,,,,,,0,8,8,7,,,AMSA03.jpg,AMSA18.jpg,AMNE04.jpg,AMNE02.jpg,AMSA03.jpg,MS,2,num_8,16,num_8,1.38342958712,,,2017_Jul_06_1835,60.0062357921,FEMA4ImagesEEG,001,100824,
AFSA25.JPG,AFNE24.JPG,AFSA24.JPG,AFNE21.JPG,AFSA21.JPG,AFNE25.JPG,,,,,,,,,,,,,,,,,,,,,0,9,9,2,,,AMNE02.jpg,AMSA08.jpg,AMSA14.jpg,AMNE18.jpg,AMNE18.jpg,MN,1,num_4,32,num_8,1.25010792864,,,2017_Jul_06_1835,60.0062357921,FEMA4ImagesEEG,001,100824,
,,,,,,,,,,,,,,,,,,,,,,,,,,,,,,,,,,,,,,,,,,,space,7.48294661799,2017_Jul_06_1835,60.0062357921,FEMA4ImagesEEG,001,100824,
AFNE01.JPG,AFNE01.JPG,AFNE01.JPG,AFNE01.JPG,AFNE01.JPG,AFNE01.JPG,0,0,0,0,,,,,,,,,,,,,,,,,,,,,,,AFSA08.jpg,AFSA12.jpg,AFNE15.jpg,AFNE06.jpg,AFSA08.jpg,FS,4,num_8,32,num_4,3.26622699737,,,2017_Jul_06_1835,60.0062357921,FEMA4ImagesEEG,001,100824,
AFNE01.JPG,AFNE01.JPG,AFNE01.JPG,AFNE01.JPG,AFNE01.JPG,AFNE01.JPG,0,1,1,2,,,,,,,,,,,,,,,,,,,,,,,AFSA03.jpg,AFSA15.jpg,AFNE13.jpg,AFNE17.jpg,AFNE13.jpg,FN,3,num_2,32,num_8,1.36672003765,,,2017_Jul_06_1835,60.0062357921,FEMA4ImagesEEG,001,100824,
AFNE01.JPG,AFNE01.JPG,AFNE01.JPG,AFNE01.JPG,AFNE01.JPG,AFNE01.JPG,0,2,2,5,,,,,,,,,,,,,,,,,,,,,,,AFNE20.jpg,AFNE19.jpg,AFSA18.jpg,AFSA01.jpg,AFSA01.jpg,FS,4,num_4,32,num_2,1.08344799757,,,2017_Jul_06_1835,60.0062357921,FEMA4ImagesEEG,001,100824,
AFNE01.JPG,AFNE01.JPG,AFNE01.JPG,AFNE01.JPG,AFNE01.JPG,AFNE01.JPG,0,3,3,1,,,,,,,,,,,,,,,,,,,,,,,AFSA03.jpg,AFNE18.jpg,AFSA18.jpg,AFNE05.jpg,AFNE18.jpg,FN,3,num_6,32,num_8,1.58345024276,,,2017_Jul_06_1835,60.0062357921,FEMA4ImagesEEG,001,100824,
AFNE01.JPG,AFNE01.JPG,AFNE01.JPG,AFNE01.JPG,AFNE01.JPG,AFNE01.JPG,0,4,4,9,,,,,,,,,,,,,,,,,,,,,,,AFSA18.jpg,AFNE03.jpg,AFNE14.jpg,AFSA14.jpg,AFSA18.jpg,FS,4,num_8,32,num_4,1.26673857635,,,2017_Jul_06_1835,60.0062357921,FEMA4ImagesEEG,001,100824,
AFNE01.JPG,AFNE01.JPG,AFNE01.JPG,AFNE01.JPG,AFNE01.JPG,AFNE01.JPG,0,5,5,4,,,,,,,,,,,,,,,,,,,,,,,AFSA06.jpg,AFNE08.jpg,AFNE18.jpg,AFSA16.jpg,AFNE18.jpg,FN,3,num_2,32,num_6,1.3500473731,,,2017_Jul_06_1835,60.0062357921,FEMA4ImagesEEG,001,100824,
AFNE01.JPG,AFNE01.JPG,AFNE01.JPG,AFNE01.JPG,AFNE01.JPG,AFNE01.JPG,0,6,6,8,,,,,,,,,,,,,,,,,,,,,,,AFSA04.jpg,AFNE04.jpg,AFNE07.jpg,AFSA01.jpg,AFSA04.jpg,FS,4,num_8,32,num_2,1.76670297433,,,2017_Jul_06_1835,60.0062357921,FEMA4ImagesEEG,001,100824,
AFNE01.JPG,AFNE01.JPG,AFNE01.JPG,AFNE01.JPG,AFNE01.JPG,AFNE01.JPG,0,7,7,6,,,,,,,,,,,,,,,,,,,,,,,AFSA11.jpg,AFNE12.jpg,AFNE16.jpg,AFSA20.jpg,AFSA20.jpg,FS,4,num_4,16,num_4,1.31673091068,,,2017_Jul_06_1835,60.0062357921,FEMA4ImagesEEG,001,100824,
AFNE01.JPG,AFNE01.JPG,AFNE01.JPG,AFNE01.JPG,AFNE01.JPG,AFNE01.JPG,0,8,8,3,,,,,,,,,,,,,,,,,,,,,,,AFSA02.jpg,AFNE01.jpg,AFNE07.jpg,AFSA03.jpg,AFSA02.jpg,FS,4,num_8,16,num_8,1.2001091796,,,2017_Jul_06_1835,60.0062357921,FEMA4ImagesEEG,001,100824,
AFNE01.JPG,AFNE01.JPG,AFNE01.JPG,AFNE01.JPG,AFNE01.JPG,AFNE01.JPG,0,9,9,7,,,,,,,,,,,,,,,,,,,,,,,AFNE09.jpg,AFSA08.jpg,AFSA05.jpg,AFNE12.jpg,AFNE09.jpg,FN,3,num_8,32,num_2,1.23347888479,,,2017_Jul_06_1835,60.0062357921,FEMA4ImagesEEG,001,100824,
AFNE01.JPG,AFNE01.JPG,AFNE01.JPG,AFNE01.JPG,AFNE01.JPG,AFNE01.JPG,1,0,10,3,,,,,,,,,,,,,,,,,,,,,,,AFSA06.jpg,AFNE03.jpg,AFSA02.jpg,AFNE09.jpg,AFSA02.jpg,FS,4,num_2,32,num_8,1.00014561554,,,2017_Jul_06_1835,60.0062357921,FEMA4ImagesEEG,001,100824,
AFNE01.JPG,AFNE01.JPG,AFNE01.JPG,AFNE01.JPG,AFNE01.JPG,AFNE01.JPG,1,1,11,4,,,,,,,,,,,,,,,,,,,,,,,AFNE09.jpg,AFSA14.jpg,AFSA11.jpg,AFNE19.jpg,AFSA14.jpg,FS,4,num_6,16,num_6,0.81680211483,,,2017_Jul_06_1835,60.0062357921,FEMA4ImagesEEG,001,100824,
AFNE01.JPG,AFNE01.JPG,AFNE01.JPG,AFNE01.JPG,AFNE01.JPG,AFNE01.JPG,1,2,12,5,,,,,,,,,,,,,,,,,,,,,,,AFNE10.jpg,AFNE05.jpg,AFSA10.jpg,AFSA06.jpg,AFSA06.jpg,FS,4,num_4,16,num_4,1.7167398273,,,2017_Jul_06_1835,60.0062357921,FEMA4ImagesEEG,001,100824,
AFNE01.JPG,AFNE01.JPG,AFNE01.JPG,AFNE01.JPG,AFNE01.JPG,AFNE01.JPG,1,3,13,6,,,,,,,,,,,,,,,,,,,,,,,AFSA08.jpg,AFNE04.jpg,AFSA10.jpg,AFNE12.jpg,AFNE04.jpg,FN,3,num_6,32,num_8,1.3833987962,,,2017_Jul_06_1835,60.0062357921,FEMA4ImagesEEG,001,100824,
AFNE01.JPG,AFNE01.JPG,AFNE01.JPG,AFNE01.JPG,AFNE01.JPG,AFNE01.JPG,1,4,14,2,,,,,,,,,,,,,,,,,,,,,,,AFNE14.jpg,AFNE16.jpg,AFSA08.jpg,AFSA13.jpg,AFSA08.jpg,FS,4,num_2,16,num_2,1.06678720051,,,2017_Jul_06_1835,60.0062357921,FEMA4ImagesEEG,001,100824,
AFNE01.JPG,AFNE01.JPG,AFNE01.JPG,AFNE01.JPG,AFNE01.JPG,AFNE01.JPG,1,5,15,8,,,,,,,,,,,,,,,,,,,,,,,AFNE17.jpg,AFSA19.jpg,AFSA17.jpg,AFNE14.jpg,AFNE17.jpg,FN,3,num_8,16,num_8,2.03367793548,,,2017_Jul_06_1835,60.0062357921,FEMA4ImagesEEG,001,100824,
AFNE01.JPG,AFNE01.JPG,AFNE01.JPG,AFNE01.JPG,AFNE01.JPG,AFNE01.JPG,1,6,16,0,,,,,,,,,,,,,,,,,,,,,,,AFSA12.jpg,AFSA16.jpg,AFNE08.jpg,AFNE09.jpg,AFNE09.jpg,FN,3,num_4,32,num_8,1.33342859289,,,2017_Jul_06_1835,60.0062357921,FEMA4ImagesEEG,001,100824,
AFNE01.JPG,AFNE01.JPG,AFNE01.JPG,AFNE01.JPG,AFNE01.JPG,AFNE01.JPG,1,7,17,7,,,,,,,,,,,,,,,,,,,,,,,AFNE14.jpg,AFNE13.jpg,AFSA12.jpg,AFSA08.jpg,AFSA08.jpg,FS,4,num_4,16,num_4,0.733485299628,,,2017_Jul_06_1835,60.0062357921,FEMA4ImagesEEG,001,100824,
AFNE01.JPG,AFNE01.JPG,AFNE01.JPG,AFNE01.JPG,AFNE01.JPG,AFNE01.JPG,1,8,18,9,,,,,,,,,,,,,,,,,,,,,,,AFNE05.jpg,AFNE08.jpg,AFSA07.jpg,AFSA10.jpg,AFNE05.jpg,FN,3,num_8,32,num_6,1.95004294696,,,2017_Jul_06_1835,60.0062357921,FEMA4ImagesEEG,001,100824,
AFNE01.JPG,AFNE01.JPG,AFNE01.JPG,AFNE01.JPG,AFNE01.JPG,AFNE01.JPG,1,9,19,1,,,,,,,,,,,,,,,,,,,,,,,AFNE07.jpg,AFSA11.jpg,AFNE09.jpg,AFSA20.jpg,AFSA20.jpg,FS,4,num_4,32,num_8,1.05010010267,,,2017_Jul_06_1835,60.0062357921,FEMA4ImagesEEG,001,100824,
AFNE01.JPG,AFNE01.JPG,AFNE01.JPG,AFNE01.JPG,AFNE01.JPG,AFNE01.JPG,2,0,20,3,,,,,,,,,,,,,,,,,,,,,,,AFSA08.jpg,AFNE08.jpg,AFNE07.jpg,AFSA11.jpg,AFNE08.jpg,FN,3,num_6,32,num_2,1.36674056505,,,2017_Jul_06_1835,60.0062357921,FEMA4ImagesEEG,001,100824,
AFNE01.JPG,AFNE01.JPG,AFNE01.JPG,AFNE01.JPG,AFNE01.JPG,AFNE01.JPG,2,1,21,5,,,,,,,,,,,,,,,,,,,,,,,AFNE11.jpg,AFNE01.jpg,AFSA01.jpg,AFSA09.jpg,AFNE11.jpg,FN,3,num_8,16,num_8,1.30011341337,,,2017_Jul_06_1835,60.0062357921,FEMA4ImagesEEG,001,100824,
AFNE01.JPG,AFNE01.JPG,AFNE01.JPG,AFNE01.JPG,AFNE01.JPG,AFNE01.JPG,2,2,22,0,,,,,,,,,,,,,,,,,,,,,,,AFNE05.jpg,AFSA10.jpg,AFSA04.jpg,AFNE11.jpg,AFSA04.jpg,FS,4,num_2,32,num_8,1.40003874525,,,2017_Jul_06_1835,60.0062357921,FEMA4ImagesEEG,001,100824,
AFNE01.JPG,AFNE01.JPG,AFNE01.JPG,AFNE01.JPG,AFNE01.JPG,AFNE01.JPG,2,3,23,2,,,,,,,,,,,,,,,,,,,,,,,AFSA14.jpg,AFNE10.jpg,AFSA19.jpg,AFNE12.jpg,AFNE12.jpg,FN,3,num_4,32,num_2,0.933497615973,,,2017_Jul_06_1835,60.0062357921,FEMA4ImagesEEG,001,100824,
AFNE01.JPG,AFNE01.JPG,AFNE01.JPG,AFNE01.JPG,AFNE01.JPG,AFNE01.JPG,2,4,24,9,,,,,,,,,,,,,,,,,,,,,,,AFNE16.jpg,AFSA15.jpg,AFNE17.jpg,AFSA19.jpg,AFSA15.jpg,FS,4,num_6,16,num_6,1.30007524532,,,2017_Jul_06_1835,60.0062357921,FEMA4ImagesEEG,001,100824,
AFNE01.JPG,AFNE01.JPG,AFNE01.JPG,AFNE01.JPG,AFNE01.JPG,AFNE01.JPG,2,5,25,4,,,,,,,,,,,,,,,,,,,,,,,AFNE16.jpg,AFSA17.jpg,AFNE13.jpg,AFSA19.jpg,AFSA17.jpg,FS,4,num_6,32,num_8,2.16669617465,,,2017_Jul_06_1835,60.0062357921,FEMA4ImagesEEG,001,100824,
AFNE01.JPG,AFNE01.JPG,AFNE01.JPG,AFNE01.JPG,AFNE01.JPG,AFNE01.JPG,2,6,26,1,,,,,,,,,,,,,,,,,,,,,,,AFSA01.jpg,AFSA20.jpg,AFNE09.jpg,AFNE01.jpg,AFNE01.jpg,FN,3,num_4,16,num_4,3.33325603511,,,2017_Jul_06_1835,60.0062357921,FEMA4ImagesEEG,001,100824,
AFNE01.JPG,AFNE01.JPG,AFNE01.JPG,AFNE01.JPG,AFNE01.JPG,AFNE01.JPG,2,7,27,6,,,,,,,,,,,,,,,,,,,,,,,AFSA06.jpg,AFNE06.jpg,AFSA09.jpg,AFNE01.jpg,AFSA09.jpg,FS,4,num_2,16,num_2,1.28340995789,,,2017_Jul_06_1835,60.0062357921,FEMA4ImagesEEG,001,100824,
AFNE01.JPG,AFNE01.JPG,AFNE01.JPG,AFNE01.JPG,AFNE01.JPG,AFNE01.JPG,2,8,28,7,,,,,,,,,,,,,,,,,,,,,,,AFSA19.jpg,AFNE03.jpg,AFSA01.jpg,AFNE20.jpg,AFNE03.jpg,FN,3,num_6,32,num_8,1.08343484718,,,2017_Jul_06_1835,60.0062357921,FEMA4ImagesEEG,001,100824,
AFNE01.JPG,AFNE01.JPG,AFNE01.JPG,AFNE01.JPG,AFNE01.JPG,AFNE01.JPG,2,9,29,8,,,,,,,,,,,,,,,,,,,,,,,AFSA17.jpg,AFNE12.jpg,AFNE13.jpg,AFSA12.jpg,AFNE12.jpg,FN,3,num_6,32,num_4,1.30007107579,,,2017_Jul_06_1835,60.0062357921,FEMA4ImagesEEG,001,100824,
AFNE01.JPG,AFNE01.JPG,AFNE01.JPG,AFNE01.JPG,AFNE01.JPG,AFNE01.JPG,3,0,30,0,,,,,,,,,,,,,,,,,,,,,,,AFNE20.jpg,AFSA10.jpg,AFSA02.jpg,AFNE12.jpg,AFNE12.jpg,FN,3,num_4,32,num_8,1.8997651547,,,2017_Jul_06_1835,60.0062357921,FEMA4ImagesEEG,001,100824,
AFNE01.JPG,AFNE01.JPG,AFNE01.JPG,AFNE01.JPG,AFNE01.JPG,AFNE01.JPG,3,1,31,5,,,,,,,,,,,,,,,,,,,,,,,AFNE01.jpg,AFSA13.jpg,AFNE17.jpg,AFSA19.jpg,AFSA13.jpg,FS,4,num_6,16,num_6,0.800097055733,,,2017_Jul_06_1835,60.0062357921,FEMA4ImagesEEG,001,100824,
AFNE01.JPG,AFNE01.JPG,AFNE01.JPG,AFNE01.JPG,AFNE01.JPG,AFNE01.JPG,3,2,32,9,,,,,,,,,,,,,,,,,,,,,,,AFSA11.jpg,AFSA07.jpg,AFNE10.jpg,AFNE09.jpg,AFNE10.jpg,FN,3,num_2,32,num_4,0.883462302503,,,2017_Jul_06_1835,60.0062357921,FEMA4ImagesEEG,001,100824,
AFNE01.JPG,AFNE01.JPG,AFNE01.JPG,AFNE01.JPG,AFNE01.JPG,AFNE01.JPG,3,3,33,7,,,,,,,,,,,,,,,,,,,,,,,AFSA17.jpg,AFSA18.jpg,AFNE16.jpg,AFNE03.jpg,AFSA18.jpg,FS,4,num_6,32,num_8,2.25000400923,,,2017_Jul_06_1835,60.0062357921,FEMA4ImagesEEG,001,100824,
AFNE01.JPG,AFNE01.JPG,AFNE01.JPG,AFNE01.JPG,AFNE01.JPG,AFNE01.JPG,3,4,34,4,,,,,,,,,,,,,,,,,,,,,,,AFNE07.jpg,AFSA17.jpg,AFSA10.jpg,AFNE05.jpg,AFNE07.jpg,FN,3,num_8,16,num_8,1.38338949473,,,2017_Jul_06_1835,60.0062357921,FEMA4ImagesEEG,001,100824,
AFNE01.JPG,AFNE01.JPG,AFNE01.JPG,AFNE01.JPG,AFNE01.JPG,AFNE01.JPG,3,5,35,6,,,,,,,,,,,,,,,,,,,,,,,AFNE15.jpg,AFSA01.jpg,AFSA08.jpg,AFNE05.jpg,AFSA01.jpg,FS,4,num_6,32,num_4,1.26670201204,,,2017_Jul_06_1835,60.0062357921,FEMA4ImagesEEG,001,100824,
AFNE01.JPG,AFNE01.JPG,AFNE01.JPG,AFNE01.JPG,AFNE01.JPG,AFNE01.JPG,3,6,36,1,,,,,,,,,,,,,,,,,,,,,,,AFNE13.jpg,AFNE05.jpg,AFSA03.jpg,AFSA16.jpg,AFSA16.jpg,FS,4,num_4,32,num_6,0.800064019626,,,2017_Jul_06_1835,60.0062357921,FEMA4ImagesEEG,001,100824,
AFNE01.JPG,AFNE01.JPG,AFNE01.JPG,AFNE01.JPG,AFNE01.JPG,AFNE01.JPG,3,7,37,2,,,,,,,,,,,,,,,,,,,,,,,AFSA11.jpg,AFSA07.jpg,AFNE14.jpg,AFNE11.jpg,AFNE14.jpg,FN,3,num_2,32,num_8,1.60009147483,,,2017_Jul_06_1835,60.0062357921,FEMA4ImagesEEG,001,100824,
AFNE01.JPG,AFNE01.JPG,AFNE01.JPG,AFNE01.JPG,AFNE01.JPG,AFNE01.JPG,3,8,38,3,,,,,,,,,,,,,,,,,,,,,,,AFSA04.jpg,AFSA03.jpg,AFNE10.jpg,AFNE09.jpg,AFNE09.jpg,FN,3,num_4,32,num_2,1.95002049522,,,2017_Jul_06_1835,60.0062357921,FEMA4ImagesEEG,001,100824,
AFNE01.JPG,AFNE01.JPG,AFNE01.JPG,AFNE01.JPG,AFNE01.JPG,AFNE01.JPG,3,9,39,8,,,,,,,,,,,,,,,,,,,,,,,AFNE14.jpg,AFSA08.jpg,AFSA16.jpg,AFNE12.jpg,AFSA16.jpg,FS,4,num_2,32,num_6,0.866767827771,,,2017_Jul_06_1835,60.0062357921,FEMA4ImagesEEG,001,100824,
AFNE01.JPG,AFNE01.JPG,AFNE01.JPG,AFNE01.JPG,AFNE01.JPG,AFNE01.JPG,4,0,40,6,,,,,,,,,,,,,,,,,,,,,,,AFNE16.jpg,AFSA15.jpg,AFSA08.jpg,AFNE05.jpg,AFSA15.jpg,FS,4,num_6,32,num_8,0.966738704708,,,2017_Jul_06_1835,60.0062357921,FEMA4ImagesEEG,001,100824,
AFNE01.JPG,AFNE01.JPG,AFNE01.JPG,AFNE01.JPG,AFNE01.JPG,AFNE01.JPG,4,1,41,2,,,,,,,,,,,,,,,,,,,,,,,AFSA11.jpg,AFNE13.jpg,AFSA02.jpg,AFNE12.jpg,AFNE12.jpg,FN,3,num_4,16,num_4,0.716802371317,,,2017_Jul_06_1835,60.0062357921,FEMA4ImagesEEG,001,100824,
AFNE01.JPG,AFNE01.JPG,AFNE01.JPG,AFNE01.JPG,AFNE01.JPG,AFNE01.JPG,4,2,42,5,,,,,,,,,,,,,,,,,,,,,,,AFNE16.jpg,AFNE03.jpg,AFSA14.jpg,AFSA20.jpg,AFNE03.jpg,FN,3,num_6,16,num_6,2.56666660251,,,2017_Jul_06_1835,60.0062357921,FEMA4ImagesEEG,001,100824,
AFNE01.JPG,AFNE01.JPG,AFNE01.JPG,AFNE01.JPG,AFNE01.JPG,AFNE01.JPG,4,3,43,7,,,,,,,,,,,,,,,,,,,,,,,AFNE07.jpg,AFNE01.jpg,AFSA07.jpg,AFSA18.jpg,AFNE07.jpg,FN,3,num_8,16,num_8,1.91697473661,,,2017_Jul_06_1835,60.0062357921,FEMA4ImagesEEG,001,100824,
AFNE01.JPG,AFNE01.JPG,AFNE01.JPG,AFNE01.JPG,AFNE01.JPG,AFNE01.JPG,4,4,44,8,,,,,,,,,,,,,,,,,,,,,,,AFNE16.jpg,AFSA03.jpg,AFSA01.jpg,AFNE05.jpg,AFNE05.jpg,FN,3,num_4,32,num_8,1.26660579036,,,2017_Jul_06_1835,60.0062357921,FEMA4ImagesEEG,001,100824,
AFNE01.JPG,AFNE01.JPG,AFNE01.JPG,AFNE01.JPG,AFNE01.JPG,AFNE01.JPG,4,5,45,1,,,,,,,,,,,,,,,,,,,,,,,AFNE12.jpg,AFSA04.jpg,AFNE10.jpg,AFSA07.jpg,AFNE10.jpg,FN,3,num_2,16,num_2,1.08341592364,,,2017_Jul_06_1835,60.0062357921,FEMA4ImagesEEG,001,100824,
AFNE01.JPG,AFNE01.JPG,AFNE01.JPG,AFNE01.JPG,AFNE01.JPG,AFNE01.JPG,4,6,46,0,,,,,,,,,,,,,,,,,,,,,,,AFSA19.jpg,AFNE14.jpg,AFNE04.jpg,AFSA15.jpg,AFSA19.jpg,FS,4,num_8,16,num_8,1.13344899192,,,2017_Jul_06_1835,60.0062357921,FEMA4ImagesEEG,001,100824,
AFNE01.JPG,AFNE01.JPG,AFNE01.JPG,AFNE01.JPG,AFNE01.JPG,AFNE01.JPG,4,7,47,3,,,,,,,,,,,,,,,,,,,,,,,AFSA15.jpg,AFSA09.jpg,AFNE17.jpg,AFNE09.jpg,AFNE17.jpg,FN,3,num_2,32,num_4,1.00012572971,,,2017_Jul_06_1835,60.0062357921,FEMA4ImagesEEG,001,100824,
AFNE01.JPG,AFNE01.JPG,AFNE01.JPG,AFNE01.JPG,AFNE01.JPG,AFNE01.JPG,4,8,48,9,,,,,,,,,,,,,,,,,,,,,,,AFSA19.jpg,AFNE15.jpg,AFNE13.jpg,AFSA12.jpg,AFNE13.jpg,FN,3,num_2,16,num_2,1.20008833159,,,2017_Jul_06_1835,60.0062357921,FEMA4ImagesEEG,001,100824,
AFNE01.JPG,AFNE01.JPG,AFNE01.JPG,AFNE01.JPG,AFNE01.JPG,AFNE01.JPG,4,9,49,4,,,,,,,,,,,,,,,,,,,,,,,AFSA10.jpg,AFNE05.jpg,AFSA12.jpg,AFNE13.jpg,AFNE13.jpg,FN,3,num_4,32,num_8,1.98331226083,,,2017_Jul_06_1835,60.0062357921,FEMA4ImagesEEG,001,100824,
AFNE01.JPG,AFNE01.JPG,AFNE01.JPG,AFNE01.JPG,AFNE01.JPG,AFNE01.JPG,5,0,50,4,,,,,,,,,,,,,,,,,,,,,,,AFSA20.jpg,AFNE03.jpg,AFNE12.jpg,AFSA10.jpg,AFSA10.jpg,FS,4,num_4,32,num_2,1.449967894,,,2017_Jul_06_1835,60.0062357921,FEMA4ImagesEEG,001,100824,
AFNE01.JPG,AFNE01.JPG,AFNE01.JPG,AFNE01.JPG,AFNE01.JPG,AFNE01.JPG,5,1,51,7,,,,,,,,,,,,,,,,,,,,,,,AFNE17.jpg,AFSA11.jpg,AFSA10.jpg,AFNE06.jpg,AFNE06.jpg,FN,3,num_4,32,num_8,1.0501065175,,,2017_Jul_06_1835,60.0062357921,FEMA4ImagesEEG,001,100824,
AFNE01.JPG,AFNE01.JPG,AFNE01.JPG,AFNE01.JPG,AFNE01.JPG,AFNE01.JPG,5,2,52,8,,,,,,,,,,,,,,,,,,,,,,,AFSA02.jpg,AFNE03.jpg,AFNE13.jpg,AFSA20.jpg,AFNE13.jpg,FN,3,num_2,32,num_4,0.833486005198,,,2017_Jul_06_1835,60.0062357921,FEMA4ImagesEEG,001,100824,
AFNE01.JPG,AFNE01.JPG,AFNE01.JPG,AFNE01.JPG,AFNE01.JPG,AFNE01.JPG,5,3,53,3,,,,,,,,,,,,,,,,,,,,,,,AFNE08.jpg,AFSA20.jpg,AFSA09.jpg,AFNE17.jpg,AFSA09.jpg,FS,4,num_2,16,num_2,1.18345255207,,,2017_Jul_06_1835,60.0062357921,FEMA4ImagesEEG,001,100824,
AFNE01.JPG,AFNE01.JPG,AFNE01.JPG,AFNE01.JPG,AFNE01.JPG,AFNE01.JPG,5,4,54,5,,,,,,,,,,,,,,,,,,,,,,,AFNE15.jpg,AFSA11.jpg,AFNE16.jpg,AFSA15.jpg,AFNE16.jpg,FN,3,num_2,32,num_8,1.04998976842,,,2017_Jul_06_1835,60.0062357921,FEMA4ImagesEEG,001,100824,
AFNE01.JPG,AFNE01.JPG,AFNE01.JPG,AFNE01.JPG,AFNE01.JPG,AFNE01.JPG,5,5,55,1,,,,,,,,,,,,,,,,,,,,,,,AFSA08.jpg,AFNE09.jpg,AFNE16.jpg,AFSA02.jpg,AFSA08.jpg,FS,4,num_8,16,num_8,2.76659552671,,,2017_Jul_06_1835,60.0062357921,FEMA4ImagesEEG,001,100824,
AFNE01.JPG,AFNE01.JPG,AFNE01.JPG,AFNE01.JPG,AFNE01.JPG,AFNE01.JPG,5,6,56,2,,,,,,,,,,,,,,,,,,,,,,,AFSA17.jpg,AFSA16.jpg,AFNE13.jpg,AFNE06.jpg,AFSA17.jpg,FS,4,num_8,32,num_6,0.633487480576,,,2017_Jul_06_1835,60.0062357921,FEMA4ImagesEEG,001,100824,
AFNE01.JPG,AFNE01.JPG,AFNE01.JPG,AFNE01.JPG,AFNE01.JPG,AFNE01.JPG,5,7,57,9,,,,,,,,,,,,,,,,,,,,,,,AFNE17.jpg,AFNE08.jpg,AFSA08.jpg,AFSA17.jpg,AFNE17.jpg,FN,3,num_8,32,num_4,1.75009221246,,,2017_Jul_06_1835,60.0062357921,FEMA4ImagesEEG,001,100824,
AFNE01.JPG,AFNE01.JPG,AFNE01.JPG,AFNE01.JPG,AFNE01.JPG,AFNE01.JPG,5,8,58,0,,,,,,,,,,,,,,,,,,,,,,,AFNE11.jpg,AFNE10.jpg,AFSA14.jpg,AFSA19.jpg,AFNE11.jpg,FN,3,num_8,16,num_8,1.31673540105,,,2017_Jul_06_1835,60.0062357921,FEMA4ImagesEEG,001,100824,
AFNE01.JPG,AFNE01.JPG,AFNE01.JPG,AFNE01.JPG,AFNE01.JPG,AFNE01.JPG,5,9,59,6,,,,,,,,,,,,,,,,,,,,,,,AFSA07.jpg,AFNE04.jpg,AFNE17.jpg,AFSA13.jpg,AFNE17.jpg,FN,3,num_2,32,num_8,2.35005025985,,,2017_Jul_06_1835,60.0062357921,FEMA4ImagesEEG,001,100824,
,,,,,,,,,,,,,,,,,,,,,,,,,,,,,,,,,,,,,,,,,,,space,6.34968750388,2017_Jul_06_1835,60.0062357921,FEMA4ImagesEEG,001,100824,
AFNE01.JPG,AFNE01.JPG,AFNE01.JPG,AFNE01.JPG,AFNE01.JPG,AFNE01.JPG,,,,,0,0,0,5,,,,,,,,,,,,,,,,,,,AMNE11.jpg,AMNE19.jpg,AMSA17.jpg,AMSA01.jpg,AMSA01.jpg,MS,2,num_4,16,num_4,0.5334893408,,,2017_Jul_06_1835,60.0062357921,FEMA4ImagesEEG,001,100824,
AFNE01.JPG,AFNE01.JPG,AFNE01.JPG,AFNE01.JPG,AFNE01.JPG,AFNE01.JPG,,,,,0,1,1,6,,,,,,,,,,,,,,,,,,,AMSA07.jpg,AMNE12.jpg,AMNE06.jpg,AMSA04.jpg,AMNE06.jpg,MN,1,num_2,16,num_2,0.983453385998,,,2017_Jul_06_1835,60.0062357921,FEMA4ImagesEEG,001,100824,
AFNE01.JPG,AFNE01.JPG,AFNE01.JPG,AFNE01.JPG,AFNE01.JPG,AFNE01.JPG,,,,,0,2,2,8,,,,,,,,,,,,,,,,,,,AMSA02.jpg,AMNE15.jpg,AMNE10.jpg,AMSA04.jpg,AMNE10.jpg,MN,1,num_2,32,num_6,1.31656989967,,,2017_Jul_06_1835,60.0062357921,FEMA4ImagesEEG,001,100824,
AFNE01.JPG,AFNE01.JPG,AFNE01.JPG,AFNE01.JPG,AFNE01.JPG,AFNE01.JPG,,,,,0,3,3,9,,,,,,,,,,,,,,,,,,,AMNE17.jpg,AMSA19.jpg,AMSA13.jpg,AMNE06.jpg,AMSA19.jpg,MS,2,num_6,32,num_2,1.86656768655,,,2017_Jul_06_1835,60.0062357921,FEMA4ImagesEEG,001,100824,
AFNE01.JPG,AFNE01.JPG,AFNE01.JPG,AFNE01.JPG,AFNE01.JPG,AFNE01.JPG,,,,,0,4,4,3,,,,,,,,,,,,,,,,,,,AMNE06.jpg,AMNE01.jpg,AMSA02.jpg,AMSA08.jpg,AMNE06.jpg,MN,1,num_8,16,num_8,1.41676657693,,,2017_Jul_06_1835,60.0062357921,FEMA4ImagesEEG,001,100824,
AFNE01.JPG,AFNE01.JPG,AFNE01.JPG,AFNE01.JPG,AFNE01.JPG,AFNE01.JPG,,,,,0,5,5,7,,,,,,,,,,,,,,,,,,,AMSA04.jpg,AMSA14.jpg,AMNE04.jpg,AMNE09.jpg,AMNE04.jpg,MN,1,num_2,32,num_8,0.95007598307,,,2017_Jul_06_1835,60.0062357921,FEMA4ImagesEEG,001,100824,
AFNE01.JPG,AFNE01.JPG,AFNE01.JPG,AFNE01.JPG,AFNE01.JPG,AFNE01.JPG,,,,,0,6,6,2,,,,,,,,,,,,,,,,,,,AMSA20.jpg,AMNE01.jpg,AMSA03.jpg,AMNE19.jpg,AMSA03.jpg,MS,2,num_2,32,num_8,1.56672305265,,,2017_Jul_06_1835,60.0062357921,FEMA4ImagesEEG,001,100824,
AFNE01.JPG,AFNE01.JPG,AFNE01.JPG,AFNE01.JPG,AFNE01.JPG,AFNE01.JPG,,,,,0,7,7,1,,,,,,,,,,,,,,,,,,,AMNE07.jpg,AMSA17.jpg,AMSA13.jpg,AMNE09.jpg,AMNE07.jpg,MN,1,num_8,32,num_4,0.93347484339,,,2017_Jul_06_1835,60.0062357921,FEMA4ImagesEEG,001,100824,
AFNE01.JPG,AFNE01.JPG,AFNE01.JPG,AFNE01.JPG,AFNE01.JPG,AFNE01.JPG,,,,,0,8,8,0,,,,,,,,,,,,,,,,,,,AMSA07.jpg,AMSA04.jpg,AMNE02.jpg,AMNE18.jpg,AMSA04.jpg,MS,2,num_6,16,num_6,1.05007829238,,,2017_Jul_06_1835,60.0062357921,FEMA4ImagesEEG,001,100824,
AFNE01.JPG,AFNE01.JPG,AFNE01.JPG,AFNE01.JPG,AFNE01.JPG,AFNE01.JPG,,,,,0,9,9,4,,,,,,,,,,,,,,,,,,,AMSA10.jpg,AMNE20.jpg,AMNE03.jpg,AMSA07.jpg,AMSA10.jpg,MS,2,num_8,16,num_8,1.61670095369,,,2017_Jul_06_1835,60.0062357921,FEMA4ImagesEEG,001,100824,
AFNE01.JPG,AFNE01.JPG,AFNE01.JPG,AFNE01.JPG,AFNE01.JPG,AFNE01.JPG,,,,,1,0,10,6,,,,,,,,,,,,,,,,,,,AMNE17.jpg,AMNE19.jpg,AMSA19.jpg,AMSA02.jpg,AMSA02.jpg,MS,2,num_4,16,num_4,0.850120501709,,,2017_Jul_06_1835,60.0062357921,FEMA4ImagesEEG,001,100824,
AFNE01.JPG,AFNE01.JPG,AFNE01.JPG,AFNE01.JPG,AFNE01.JPG,AFNE01.JPG,,,,,1,1,11,8,,,,,,,,,,,,,,,,,,,AMNE07.jpg,AMSA12.jpg,AMNE01.jpg,AMSA06.jpg,AMNE01.jpg,MN,1,num_2,32,num_4,1.60049336101,,,2017_Jul_06_1835,60.0062357921,FEMA4ImagesEEG,001,100824,
AFNE01.JPG,AFNE01.JPG,AFNE01.JPG,AFNE01.JPG,AFNE01.JPG,AFNE01.JPG,,,,,1,2,12,0,,,,,,,,,,,,,,,,,,,AMNE16.jpg,AMNE15.jpg,AMSA09.jpg,AMSA12.jpg,AMSA12.jpg,MS,2,num_4,32,num_8,1.06692062796,,,2017_Jul_06_1835,60.0062357921,FEMA4ImagesEEG,001,100824,
AFNE01.JPG,AFNE01.JPG,AFNE01.JPG,AFNE01.JPG,AFNE01.JPG,AFNE01.JPG,,,,,1,3,13,5,,,,,,,,,,,,,,,,,,,AMSA02.jpg,AMNE03.jpg,AMNE18.jpg,AMSA15.jpg,AMSA15.jpg,MS,2,num_4,16,num_4,1.01674964186,,,2017_Jul_06_1835,60.0062357921,FEMA4ImagesEEG,001,100824,
AFNE01.JPG,AFNE01.JPG,AFNE01.JPG,AFNE01.JPG,AFNE01.JPG,AFNE01.JPG,,,,,1,4,14,3,,,,,,,,,,,,,,,,,,,AMNE01.jpg,AMSA15.jpg,AMNE11.jpg,AMSA11.jpg,AMNE11.jpg,MN,1,num_2,32,num_6,0.833411272964,,,2017_Jul_06_1835,60.0062357921,FEMA4ImagesEEG,001,100824,
AFNE01.JPG,AFNE01.JPG,AFNE01.JPG,AFNE01.JPG,AFNE01.JPG,AFNE01.JPG,,,,,1,5,15,1,,,,,,,,,,,,,,,,,,,AMNE01.jpg,AMSA17.jpg,AMSA10.jpg,AMNE13.jpg,AMSA10.jpg,MS,2,num_2,32,num_8,1.36673864047,,,2017_Jul_06_1835,60.0062357921,FEMA4ImagesEEG,001,100824,
AFNE01.JPG,AFNE01.JPG,AFNE01.JPG,AFNE01.JPG,AFNE01.JPG,AFNE01.JPG,,,,,1,6,16,4,,,,,,,,,,,,,,,,,,,AMSA15.jpg,AMSA18.jpg,AMNE02.jpg,AMNE06.jpg,AMSA18.jpg,MS,2,num_6,32,num_4,1.00010135362,,,2017_Jul_06_1835,60.0062357921,FEMA4ImagesEEG,001,100824,
AFNE01.JPG,AFNE01.JPG,AFNE01.JPG,AFNE01.JPG,AFNE01.JPG,AFNE01.JPG,,,,,1,7,17,2,,,,,,,,,,,,,,,,,,,AMNE09.jpg,AMSA05.jpg,AMNE18.jpg,AMSA18.jpg,AMNE09.jpg,MN,1,num_8,32,num_2,1.23337432381,,,2017_Jul_06_1835,60.0062357921,FEMA4ImagesEEG,001,100824,
AFNE01.JPG,AFNE01.JPG,AFNE01.JPG,AFNE01.JPG,AFNE01.JPG,AFNE01.JPG,,,,,1,8,18,9,,,,,,,,,,,,,,,,,,,AMSA03.jpg,AMNE05.jpg,AMSA13.jpg,AMNE11.jpg,AMNE05.jpg,MN,1,num_6,32,num_8,2.11669710488,,,2017_Jul_06_1835,60.0062357921,FEMA4ImagesEEG,001,100824,
AFNE01.JPG,AFNE01.JPG,AFNE01.JPG,AFNE01.JPG,AFNE01.JPG,AFNE01.JPG,,,,,1,9,19,7,,,,,,,,,,,,,,,,,,,AMNE19.jpg,AMSA05.jpg,AMNE15.jpg,AMSA02.jpg,AMNE19.jpg,MN,1,num_8,32,num_6,0.916757917032,,,2017_Jul_06_1835,60.0062357921,FEMA4ImagesEEG,001,100824,
AFNE01.JPG,AFNE01.JPG,AFNE01.JPG,AFNE01.JPG,AFNE01.JPG,AFNE01.JPG,,,,,2,0,20,1,,,,,,,,,,,,,,,,,,,AMSA09.jpg,AMNE18.jpg,AMNE07.jpg,AMSA04.jpg,AMSA04.jpg,MS,2,num_4,16,num_4,1.08339956601,,,2017_Jul_06_1835,60.0062357921,FEMA4ImagesEEG,001,100824,
AFNE01.JPG,AFNE01.JPG,AFNE01.JPG,AFNE01.JPG,AFNE01.JPG,AFNE01.JPG,,,,,2,1,21,6,,,,,,,,,,,,,,,,,,,AMSA02.jpg,AMSA14.jpg,AMNE05.jpg,AMNE01.jpg,AMSA02.jpg,MS,2,num_8,16,num_8,1.01678299881,,,2017_Jul_06_1835,60.0062357921,FEMA4ImagesEEG,001,100824,
AFNE01.JPG,AFNE01.JPG,AFNE01.JPG,AFNE01.JPG,AFNE01.JPG,AFNE01.JPG,,,,,2,2,22,2,,,,,,,,,,,,,,,,,,,AMSA16.jpg,AMSA13.jpg,AMNE17.jpg,AMNE15.jpg,AMNE15.jpg,MN,1,num_4,16,num_4,0.916820140439,,,2017_Jul_06_1835,60.0062357921,FEMA4ImagesEEG,001,100824,
AFNE01.JPG,AFNE01.JPG,AFNE01.JPG,AFNE01.JPG,AFNE01.JPG,AFNE01.JPG,,,,,2,3,23,0,,,,,,,,,,,,,,,,,,,AMSA02.jpg,AMNE01.jpg,AMNE14.jpg,AMSA04.jpg,AMSA02.jpg,MS,2,num_8,32,num_4,0.95000157156,,,2017_Jul_06_1835,60.0062357921,FEMA4ImagesEEG,001,100824,
AFNE01.JPG,AFNE01.JPG,AFNE01.JPG,AFNE01.JPG,AFNE01.JPG,AFNE01.JPG,,,,,2,4,24,8,,,,,,,,,,,,,,,,,,,AMSA11.jpg,AMNE03.jpg,AMSA02.jpg,AMNE19.jpg,AMNE03.jpg,MN,1,num_6,32,num_8,0.866798298084,,,2017_Jul_06_1835,60.0062357921,FEMA4ImagesEEG,001,100824,
AFNE01.JPG,AFNE01.JPG,AFNE01.JPG,AFNE01.JPG,AFNE01.JPG,AFNE01.JPG,,,,,2,5,25,4,,,,,,,,,,,,,,,,,,,AMNE08.jpg,AMNE05.jpg,AMSA10.jpg,AMSA08.jpg,AMSA08.jpg,MS,2,num_4,32,num_6,0.633460538462,,,2017_Jul_06_1835,60.0062357921,FEMA4ImagesEEG,001,100824,
AFNE01.JPG,AFNE01.JPG,AFNE01.JPG,AFNE01.JPG,AFNE01.JPG,AFNE01.JPG,,,,,2,6,26,9,,,,,,,,,,,,,,,,,,,AMSA13.jpg,AMSA19.jpg,AMNE02.jpg,AMNE15.jpg,AMSA13.jpg,MS,2,num_8,32,num_4,1.26671965281,,,2017_Jul_06_1835,60.0062357921,FEMA4ImagesEEG,001,100824,
AFNE01.JPG,AFNE01.JPG,AFNE01.JPG,AFNE01.JPG,AFNE01.JPG,AFNE01.JPG,,,,,2,7,27,7,,,,,,,,,,,,,,,,,,,AMNE04.jpg,AMSA12.jpg,AMNE01.jpg,AMSA02.jpg,AMSA02.jpg,MS,2,num_4,32,num_8,0.950171242584,,,2017_Jul_06_1835,60.0062357921,FEMA4ImagesEEG,001,100824,
AFNE01.JPG,AFNE01.JPG,AFNE01.JPG,AFNE01.JPG,AFNE01.JPG,AFNE01.JPG,,,,,2,8,28,3,,,,,,,,,,,,,,,,,,,AMNE11.jpg,AMSA06.jpg,AMSA04.jpg,AMNE13.jpg,AMSA04.jpg,MS,2,num_2,16,num_2,1.05007765105,,,2017_Jul_06_1835,60.0062357921,FEMA4ImagesEEG,001,100824,
AFNE01.JPG,AFNE01.JPG,AFNE01.JPG,AFNE01.JPG,AFNE01.JPG,AFNE01.JPG,,,,,2,9,29,5,,,,,,,,,,,,,,,,,,,AMNE19.jpg,AMSA05.jpg,AMNE08.jpg,AMSA01.jpg,AMNE19.jpg,MN,1,num_8,32,num_2,1.33338240639,,,2017_Jul_06_1835,60.0062357921,FEMA4ImagesEEG,001,100824,
AFNE01.JPG,AFNE01.JPG,AFNE01.JPG,AFNE01.JPG,AFNE01.JPG,AFNE01.JPG,,,,,3,0,30,4,,,,,,,,,,,,,,,,,,,AMNE17.jpg,AMSA06.jpg,AMSA14.jpg,AMNE16.jpg,AMNE16.jpg,MN,1,num_4,16,num_4,0.966734214337,,,2017_Jul_06_1835,60.0062357921,FEMA4ImagesEEG,001,100824,
AFNE01.JPG,AFNE01.JPG,AFNE01.JPG,AFNE01.JPG,AFNE01.JPG,AFNE01.JPG,,,,,3,1,31,3,,,,,,,,,,,,,,,,,,,AMSA09.jpg,AMNE01.jpg,AMNE14.jpg,AMSA20.jpg,AMNE14.jpg,MN,1,num_2,32,num_6,1.53346111579,,,2017_Jul_06_1835,60.0062357921,FEMA4ImagesEEG,001,100824,
AFNE01.JPG,AFNE01.JPG,AFNE01.JPG,AFNE01.JPG,AFNE01.JPG,AFNE01.JPG,,,,,3,2,32,6,,,,,,,,,,,,,,,,,,,AMSA19.jpg,AMNE07.jpg,AMSA07.jpg,AMNE19.jpg,AMNE19.jpg,MN,1,num_4,16,num_4,0.93348863523,,,2017_Jul_06_1835,60.0062357921,FEMA4ImagesEEG,001,100824,
AFNE01.JPG,AFNE01.JPG,AFNE01.JPG,AFNE01.JPG,AFNE01.JPG,AFNE01.JPG,,,,,3,3,33,2,,,,,,,,,,,,,,,,,,,AMNE16.jpg,AMSA06.jpg,AMSA07.jpg,AMNE11.jpg,AMSA06.jpg,MS,2,num_6,16,num_6,2.08338384982,,,2017_Jul_06_1835,60.0062357921,FEMA4ImagesEEG,001,100824,
AFNE01.JPG,AFNE01.JPG,AFNE01.JPG,AFNE01.JPG,AFNE01.JPG,AFNE01.JPG,,,,,3,4,34,0,,,,,,,,,,,,,,,,,,,AMSA07.jpg,AMNE18.jpg,AMSA18.jpg,AMNE14.jpg,AMNE18.jpg,MN,1,num_6,32,num_8,1.36698657193,,,2017_Jul_06_1835,60.0062357921,FEMA4ImagesEEG,001,100824,
AFNE01.JPG,AFNE01.JPG,AFNE01.JPG,AFNE01.JPG,AFNE01.JPG,AFNE01.JPG,,,,,3,5,35,5,,,,,,,,,,,,,,,,,,,AMSA01.jpg,AMSA17.jpg,AMNE02.jpg,AMNE04.jpg,AMNE02.jpg,MN,1,num_2,16,num_2,0.900118930032,,,2017_Jul_06_1835,60.0062357921,FEMA4ImagesEEG,001,100824,
AFNE01.JPG,AFNE01.JPG,AFNE01.JPG,AFNE01.JPG,AFNE01.JPG,AFNE01.JPG,,,,,3,6,36,9,,,,,,,,,,,,,,,,,,,AMNE01.jpg,AMSA14.jpg,AMNE03.jpg,AMSA20.jpg,AMSA14.jpg,MS,2,num_6,32,num_8,1.30008294317,,,2017_Jul_06_1835,60.0062357921,FEMA4ImagesEEG,001,100824,
AFNE01.JPG,AFNE01.JPG,AFNE01.JPG,AFNE01.JPG,AFNE01.JPG,AFNE01.JPG,,,,,3,7,37,7,,,,,,,,,,,,,,,,,,,AMSA04.jpg,AMNE14.jpg,AMNE18.jpg,AMSA08.jpg,AMSA08.jpg,MS,2,num_4,32,num_8,1.45006219123,,,2017_Jul_06_1835,60.0062357921,FEMA4ImagesEEG,001,100824,
AFNE01.JPG,AFNE01.JPG,AFNE01.JPG,AFNE01.JPG,AFNE01.JPG,AFNE01.JPG,,,,,3,8,38,8,,,,,,,,,,,,,,,,,,,AMSA10.jpg,AMSA02.jpg,AMNE18.jpg,AMNE19.jpg,AMSA02.jpg,MS,2,num_6,16,num_6,0.650139938458,,,2017_Jul_06_1835,60.0062357921,FEMA4ImagesEEG,001,100824,
AFNE01.JPG,AFNE01.JPG,AFNE01.JPG,AFNE01.JPG,AFNE01.JPG,AFNE01.JPG,,,,,3,9,39,1,,,,,,,,,,,,,,,,,,,AMNE12.jpg,AMSA16.jpg,AMNE10.jpg,AMSA10.jpg,AMNE10.jpg,MN,1,num_2,16,num_2,1.03347105882,,,2017_Jul_06_1835,60.0062357921,FEMA4ImagesEEG,001,100824,
AFNE01.JPG,AFNE01.JPG,AFNE01.JPG,AFNE01.JPG,AFNE01.JPG,AFNE01.JPG,,,,,4,0,40,6,,,,,,,,,,,,,,,,,,,AMSA14.jpg,AMSA04.jpg,AMNE07.jpg,AMNE14.jpg,AMSA14.jpg,MS,2,num_8,16,num_8,1.63342525717,,,2017_Jul_06_1835,60.0062357921,FEMA4ImagesEEG,001,100824,
AFNE01.JPG,AFNE01.JPG,AFNE01.JPG,AFNE01.JPG,AFNE01.JPG,AFNE01.JPG,,,,,4,1,41,5,,,,,,,,,,,,,,,,,,,AMSA15.jpg,AMNE14.jpg,AMNE18.jpg,AMSA17.jpg,AMSA15.jpg,MS,2,num_8,32,num_2,2.08334022923,,,2017_Jul_06_1835,60.0062357921,FEMA4ImagesEEG,001,100824,
AFNE01.JPG,AFNE01.JPG,AFNE01.JPG,AFNE01.JPG,AFNE01.JPG,AFNE01.JPG,,,,,4,2,42,7,,,,,,,,,,,,,,,,,,,AMNE05.jpg,AMNE01.jpg,AMSA18.jpg,AMSA19.jpg,AMNE05.jpg,MN,1,num_8,16,num_8,0.916783255409,,,2017_Jul_06_1835,60.0062357921,FEMA4ImagesEEG,001,100824,
AFNE01.JPG,AFNE01.JPG,AFNE01.JPG,AFNE01.JPG,AFNE01.JPG,AFNE01.JPG,,,,,4,3,43,0,,,,,,,,,,,,,,,,,,,AMNE19.jpg,AMSA03.jpg,AMSA01.jpg,AMNE13.jpg,AMSA03.jpg,MS,2,num_6,16,num_6,1.26679887529,,,2017_Jul_06_1835,60.0062357921,FEMA4ImagesEEG,001,100824,
AFNE01.JPG,AFNE01.JPG,AFNE01.JPG,AFNE01.JPG,AFNE01.JPG,AFNE01.JPG,,,,,4,4,44,4,,,,,,,,,,,,,,,,,,,AMNE02.jpg,AMNE09.jpg,AMSA03.jpg,AMSA20.jpg,AMNE09.jpg,MN,1,num_6,32,num_8,0.917146973661,,,2017_Jul_06_1835,60.0062357921,FEMA4ImagesEEG,001,100824,
AFNE01.JPG,AFNE01.JPG,AFNE01.JPG,AFNE01.JPG,AFNE01.JPG,AFNE01.JPG,,,,,4,5,45,3,,,,,,,,,,,,,,,,,,,AMNE03.jpg,AMSA09.jpg,AMNE07.jpg,AMSA16.jpg,AMNE07.jpg,MN,1,num_2,32,num_6,1.08312597545,,,2017_Jul_06_1835,60.0062357921,FEMA4ImagesEEG,001,100824,
AFNE01.JPG,AFNE01.JPG,AFNE01.JPG,AFNE01.JPG,AFNE01.JPG,AFNE01.JPG,,,,,4,6,46,8,,,,,,,,,,,,,,,,,,,AMNE02.jpg,AMNE04.jpg,AMSA14.jpg,AMSA18.jpg,AMNE04.jpg,MN,1,num_6,32,num_2,0.950089454185,,,2017_Jul_06_1835,60.0062357921,FEMA4ImagesEEG,001,100824,
AFNE01.JPG,AFNE01.JPG,AFNE01.JPG,AFNE01.JPG,AFNE01.JPG,AFNE01.JPG,,,,,4,7,47,1,,,,,,,,,,,,,,,,,,,AMNE05.jpg,AMSA14.jpg,AMSA02.jpg,AMNE17.jpg,AMNE17.jpg,MN,1,num_4,32,num_6,3.3833526097,,,2017_Jul_06_1835,60.0062357921,FEMA4ImagesEEG,001,100824,
AFNE01.JPG,AFNE01.JPG,AFNE01.JPG,AFNE01.JPG,AFNE01.JPG,AFNE01.JPG,,,,,4,8,48,2,,,,,,,,,,,,,,,,,,,AMSA20.jpg,AMNE20.jpg,AMNE04.jpg,AMSA16.jpg,AMNE20.jpg,MN,1,num_6,32,num_8,1.5334123635,,,2017_Jul_06_1835,60.0062357921,FEMA4ImagesEEG,001,100824,
AFNE01.JPG,AFNE01.JPG,AFNE01.JPG,AFNE01.JPG,AFNE01.JPG,AFNE01.JPG,,,,,4,9,49,9,,,,,,,,,,,,,,,,,,,AMNE06.jpg,AMSA03.jpg,AMSA18.jpg,AMNE01.jpg,AMSA03.jpg,MS,2,num_6,32,num_2,0.850115049165,,,2017_Jul_06_1835,60.0062357921,FEMA4ImagesEEG,001,100824,
AFNE01.JPG,AFNE01.JPG,AFNE01.JPG,AFNE01.JPG,AFNE01.JPG,AFNE01.JPG,,,,,5,0,50,1,,,,,,,,,,,,,,,,,,,AMNE06.jpg,AMSA19.jpg,AMSA12.jpg,AMNE04.jpg,AMNE04.jpg,MN,1,num_4,16,num_4,0.666785340174,,,2017_Jul_06_1835,60.0062357921,FEMA4ImagesEEG,001,100824,
AFNE01.JPG,AFNE01.JPG,AFNE01.JPG,AFNE01.JPG,AFNE01.JPG,AFNE01.JPG,,,,,5,1,51,3,,,,,,,,,,,,,,,,,,,AMSA15.jpg,AMSA09.jpg,AMNE13.jpg,AMNE12.jpg,AMNE12.jpg,MN,1,num_4,32,num_8,1.00021489523,,,2017_Jul_06_1835,60.0062357921,FEMA4ImagesEEG,001,100824,
AFNE01.JPG,AFNE01.JPG,AFNE01.JPG,AFNE01.JPG,AFNE01.JPG,AFNE01.JPG,,,,,5,2,52,9,,,,,,,,,,,,,,,,,,,AMNE07.jpg,AMSA15.jpg,AMSA17.jpg,AMNE12.jpg,AMNE07.jpg,MN,1,num_8,32,num_2,0.81647464016,,,2017_Jul_06_1835,60.0062357921,FEMA4ImagesEEG,001,100824,
AFNE01.JPG,AFNE01.JPG,AFNE01.JPG,AFNE01.JPG,AFNE01.JPG,AFNE01.JPG,,,,,5,3,53,6,,,,,,,,,,,,,,,,,,,AMSA03.jpg,AMSA15.jpg,AMNE15.jpg,AMNE12.jpg,AMSA03.jpg,MS,2,num_8,16,num_8,0.900100327213,,,2017_Jul_06_1835,60.0062357921,FEMA4ImagesEEG,001,100824,
AFNE01.JPG,AFNE01.JPG,AFNE01.JPG,AFNE01.JPG,AFNE01.JPG,AFNE01.JPG,,,,,5,4,54,8,,,,,,,,,,,,,,,,,,,AMNE09.jpg,AMSA15.jpg,AMSA17.jpg,AMNE16.jpg,AMNE16.jpg,MN,1,num_4,16,num_4,0.983477762202,,,2017_Jul_06_1835,60.0062357921,FEMA4ImagesEEG,001,100824,
AFNE01.JPG,AFNE01.JPG,AFNE01.JPG,AFNE01.JPG,AFNE01.JPG,AFNE01.JPG,,,,,5,5,55,0,,,,,,,,,,,,,,,,,,,AMSA10.jpg,AMNE16.jpg,AMNE05.jpg,AMSA03.jpg,AMSA03.jpg,MS,2,num_4,32,num_6,4.13333352585,,,2017_Jul_06_1835,60.0062357921,FEMA4ImagesEEG,001,100824,
AFNE01.JPG,AFNE01.JPG,AFNE01.JPG,AFNE01.JPG,AFNE01.JPG,AFNE01.JPG,,,,,5,6,56,4,,,,,,,,,,,,,,,,,,,AMSA14.jpg,AMNE14.jpg,AMNE03.jpg,AMSA17.jpg,AMNE14.jpg,MN,1,num_6,32,num_2,1.00011867343,,,2017_Jul_06_1835,60.0062357921,FEMA4ImagesEEG,001,100824,
AFNE01.JPG,AFNE01.JPG,AFNE01.JPG,AFNE01.JPG,AFNE01.JPG,AFNE01.JPG,,,,,5,7,57,7,,,,,,,,,,,,,,,,,,,AMSA08.jpg,AMNE19.jpg,AMNE05.jpg,AMSA02.jpg,AMNE19.jpg,MN,1,num_6,16,num_6,1.75007104373,,,2017_Jul_06_1835,60.0062357921,FEMA4ImagesEEG,001,100824,
AFNE01.JPG,AFNE01.JPG,AFNE01.JPG,AFNE01.JPG,AFNE01.JPG,AFNE01.JPG,,,,,5,8,58,2,,,,,,,,,,,,,,,,,,,AMNE04.jpg,AMNE09.jpg,AMSA14.jpg,AMSA05.jpg,AMSA14.jpg,MS,2,num_2,32,num_8,1.68335408508,,,2017_Jul_06_1835,60.0062357921,FEMA4ImagesEEG,001,100824,
AFNE01.JPG,AFNE01.JPG,AFNE01.JPG,AFNE01.JPG,AFNE01.JPG,AFNE01.JPG,,,,,5,9,59,5,,,,,,,,,,,,,,,,,,,AMSA18.jpg,AMNE19.jpg,AMNE05.jpg,AMSA04.jpg,AMSA18.jpg,MS,2,num_8,32,num_4,3.33329805208,,,2017_Jul_06_1835,60.0062357921,FEMA4ImagesEEG,001,100824,
,,,,,,,,,,,,,,,,,,,,,,,,,,,,,,,,,,,,,,,,,,,space,8.3495916028,2017_Jul_06_1835,60.0062357921,FEMA4ImagesEEG,001,100824,
AFNE01.JPG,AFNE01.JPG,AFNE01.JPG,AFNE01.JPG,AFNE01.JPG,AFNE01.JPG,,,,,,,,,0,0,0,1,,,,,,,,,,,,,,,AFNE18.jpg,AFNE04.jpg,AFSA19.jpg,AFSA14.jpg,AFNE18.jpg,FN,3,num_8,32,num_4,1.016806092,,,2017_Jul_06_1835,60.0062357921,FEMA4ImagesEEG,001,100824,
AFNE01.JPG,AFNE01.JPG,AFNE01.JPG,AFNE01.JPG,AFNE01.JPG,AFNE01.JPG,,,,,,,,,0,1,1,4,,,,,,,,,,,,,,,AFSA03.jpg,AFNE02.jpg,AFNE05.jpg,AFSA09.jpg,AFNE02.jpg,FN,3,num_6,32,num_8,0.833443026175,,,2017_Jul_06_1835,60.0062357921,FEMA4ImagesEEG,001,100824,
AFNE01.JPG,AFNE01.JPG,AFNE01.JPG,AFNE01.JPG,AFNE01.JPG,AFNE01.JPG,,,,,,,,,0,2,2,7,,,,,,,,,,,,,,,AFSA07.jpg,AFNE04.jpg,AFSA11.jpg,AFNE18.jpg,AFNE04.jpg,FN,3,num_6,32,num_2,0.966673273826,,,2017_Jul_06_1835,60.0062357921,FEMA4ImagesEEG,001,100824,
AFNE01.JPG,AFNE01.JPG,AFNE01.JPG,AFNE01.JPG,AFNE01.JPG,AFNE01.JPG,,,,,,,,,0,3,3,5,,,,,,,,,,,,,,,AFSA03.jpg,AFNE12.jpg,AFSA02.jpg,AFNE14.jpg,AFSA03.jpg,FS,4,num_8,16,num_8,1.24970315583,,,2017_Jul_06_1835,60.0062357921,FEMA4ImagesEEG,001,100824,
AFNE01.JPG,AFNE01.JPG,AFNE01.JPG,AFNE01.JPG,AFNE01.JPG,AFNE01.JPG,,,,,,,,,0,4,4,8,,,,,,,,,,,,,,,AFSA20.jpg,AFNE13.jpg,AFSA03.jpg,AFNE14.jpg,AFNE14.jpg,FN,3,num_4,32,num_2,1.26674082153,,,2017_Jul_06_1835,60.0062357921,FEMA4ImagesEEG,001,100824,
AFNE01.JPG,AFNE01.JPG,AFNE01.JPG,AFNE01.JPG,AFNE01.JPG,AFNE01.JPG,,,,,,,,,0,5,5,6,,,,,,,,,,,,,,,AFSA03.jpg,AFNE20.jpg,AFNE04.jpg,AFSA15.jpg,AFSA03.jpg,FS,4,num_8,16,num_8,1.63338324032,,,2017_Jul_06_1835,60.0062357921,FEMA4ImagesEEG,001,100824,
AFNE01.JPG,AFNE01.JPG,AFNE01.JPG,AFNE01.JPG,AFNE01.JPG,AFNE01.JPG,,,,,,,,,0,6,6,3,,,,,,,,,,,,,,,AFNE06.jpg,AFSA05.jpg,AFNE18.jpg,AFSA07.jpg,AFNE18.jpg,FN,3,num_2,32,num_4,0.783484048676,,,2017_Jul_06_1835,60.0062357921,FEMA4ImagesEEG,001,100824,
AFNE01.JPG,AFNE01.JPG,AFNE01.JPG,AFNE01.JPG,AFNE01.JPG,AFNE01.JPG,,,,,,,,,0,7,7,2,,,,,,,,,,,,,,,AFSA12.jpg,AFNE01.jpg,AFSA04.jpg,AFNE09.jpg,AFNE09.jpg,FN,3,num_4,32,num_8,1.10011328512,,,2017_Jul_06_1835,60.0062357921,FEMA4ImagesEEG,001,100824,
AFNE01.JPG,AFNE01.JPG,AFNE01.JPG,AFNE01.JPG,AFNE01.JPG,AFNE01.JPG,,,,,,,,,0,8,8,9,,,,,,,,,,,,,,,AFSA09.jpg,AFSA16.jpg,AFNE19.jpg,AFNE04.jpg,AFSA16.jpg,FS,4,num_6,16,num_6,1.10010719101,,,2017_Jul_06_1835,60.0062357921,FEMA4ImagesEEG,001,100824,
AFNE01.JPG,AFNE01.JPG,AFNE01.JPG,AFNE01.JPG,AFNE01.JPG,AFNE01.JPG,,,,,,,,,0,9,9,0,,,,,,,,,,,,,,,AFNE16.jpg,AFSA15.jpg,AFNE18.jpg,AFSA13.jpg,AFNE16.jpg,FN,3,num_8,32,num_2,1.05005712365,,,2017_Jul_06_1835,60.0062357921,FEMA4ImagesEEG,001,100824,
AFNE01.JPG,AFNE01.JPG,AFNE01.JPG,AFNE01.JPG,AFNE01.JPG,AFNE01.JPG,,,,,,,,,1,0,10,4,,,,,,,,,,,,,,,AFSA16.jpg,AFNE09.jpg,AFSA04.jpg,AFNE12.jpg,AFNE09.jpg,FN,3,num_6,32,num_8,1.68340155459,,,2017_Jul_06_1835,60.0062357921,FEMA4ImagesEEG,001,100824,
AFNE01.JPG,AFNE01.JPG,AFNE01.JPG,AFNE01.JPG,AFNE01.JPG,AFNE01.JPG,,,,,,,,,1,1,11,2,,,,,,,,,,,,,,,AFSA04.jpg,AFNE11.jpg,AFSA02.jpg,AFNE12.jpg,AFNE11.jpg,FN,3,num_6,16,num_6,1.61673880089,,,2017_Jul_06_1835,60.0062357921,FEMA4ImagesEEG,001,100824,
AFNE01.JPG,AFNE01.JPG,AFNE01.JPG,AFNE01.JPG,AFNE01.JPG,AFNE01.JPG,,,,,,,,,1,2,12,8,,,,,,,,,,,,,,,AFSA17.jpg,AFSA02.jpg,AFNE20.jpg,AFNE11.jpg,AFSA02.jpg,FS,4,num_6,32,num_2,0.950096510467,,,2017_Jul_06_1835,60.0062357921,FEMA4ImagesEEG,001,100824,
AFNE01.JPG,AFNE01.JPG,AFNE01.JPG,AFNE01.JPG,AFNE01.JPG,AFNE01.JPG,,,,,,,,,1,3,13,1,,,,,,,,,,,,,,,AFSA20.jpg,AFSA11.jpg,AFNE18.jpg,AFNE09.jpg,AFSA11.jpg,FS,4,num_6,16,num_6,0.799944383791,,,2017_Jul_06_1835,60.0062357921,FEMA4ImagesEEG,001,100824,
AFNE01.JPG,AFNE01.JPG,AFNE01.JPG,AFNE01.JPG,AFNE01.JPG,AFNE01.JPG,,,,,,,,,1,4,14,0,,,,,,,,,,,,,,,AFNE20.jpg,AFSA16.jpg,AFSA04.jpg,AFNE13.jpg,AFNE13.jpg,FN,3,num_4,32,num_8,0.916798009304,,,2017_Jul_06_1835,60.0062357921,FEMA4ImagesEEG,001,100824,
AFNE01.JPG,AFNE01.JPG,AFNE01.JPG,AFNE01.JPG,AFNE01.JPG,AFNE01.JPG,,,,,,,,,1,5,15,6,,,,,,,,,,,,,,,AFNE12.jpg,AFNE08.jpg,AFSA16.jpg,AFSA05.jpg,AFNE08.jpg,FN,3,num_6,16,num_6,0.966766288271,,,2017_Jul_06_1835,60.0062357921,FEMA4ImagesEEG,001,100824,
AFNE01.JPG,AFNE01.JPG,AFNE01.JPG,AFNE01.JPG,AFNE01.JPG,AFNE01.JPG,,,,,,,,,1,6,16,9,,,,,,,,,,,,,,,AFSA12.jpg,AFSA06.jpg,AFNE13.jpg,AFNE10.jpg,AFNE13.jpg,FN,3,num_2,32,num_8,1.1332722645,,,2017_Jul_06_1835,60.0062357921,FEMA4ImagesEEG,001,100824,
AFNE01.JPG,AFNE01.JPG,AFNE01.JPG,AFNE01.JPG,AFNE01.JPG,AFNE01.JPG,,,,,,,,,1,7,17,5,,,,,,,,,,,,,,,AFNE13.jpg,AFSA15.jpg,AFNE19.jpg,AFSA19.jpg,AFSA19.jpg,FS,4,num_4,16,num_4,2.25000144332,,,2017_Jul_06_1835,60.0062357921,FEMA4ImagesEEG,001,100824,
AFNE01.JPG,AFNE01.JPG,AFNE01.JPG,AFNE01.JPG,AFNE01.JPG,AFNE01.JPG,,,,,,,,,1,8,18,7,,,,,,,,,,,,,,,AFNE11.jpg,AFNE20.jpg,AFSA04.jpg,AFSA11.jpg,AFSA11.jpg,FS,4,num_4,32,num_8,0.883450435242,,,2017_Jul_06_1835,60.0062357921,FEMA4ImagesEEG,001,100824,
AFNE01.JPG,AFNE01.JPG,AFNE01.JPG,AFNE01.JPG,AFNE01.JPG,AFNE01.JPG,,,,,,,,,1,9,19,3,,,,,,,,,,,,,,,AFNE19.jpg,AFSA13.jpg,AFSA05.jpg,AFNE17.jpg,AFSA13.jpg,FS,4,num_6,32,num_4,0.883485716535,,,2017_Jul_06_1835,60.0062357921,FEMA4ImagesEEG,001,100824,
AFNE01.JPG,AFNE01.JPG,AFNE01.JPG,AFNE01.JPG,AFNE01.JPG,AFNE01.JPG,,,,,,,,,2,0,20,1,,,,,,,,,,,,,,,AFSA09.jpg,AFNE20.jpg,AFNE02.jpg,AFSA12.jpg,AFNE02.jpg,FN,3,num_2,32,num_8,0.933426732547,,,2017_Jul_06_1835,60.0062357921,FEMA4ImagesEEG,001,100824,
AFNE01.JPG,AFNE01.JPG,AFNE01.JPG,AFNE01.JPG,AFNE01.JPG,AFNE01.JPG,,,,,,,,,2,1,21,2,,,,,,,,,,,,,,,AFSA18.jpg,AFSA16.jpg,AFNE03.jpg,AFNE18.jpg,AFNE03.jpg,FN,3,num_2,32,num_6,0.83315436088,,,2017_Jul_06_1835,60.0062357921,FEMA4ImagesEEG,001,100824,
AFNE01.JPG,AFNE01.JPG,AFNE01.JPG,AFNE01.JPG,AFNE01.JPG,AFNE01.JPG,,,,,,,,,2,2,22,8,,,,,,,,,,,,,,,AFSA09.jpg,AFSA17.jpg,AFNE19.jpg,AFNE11.jpg,AFSA09.jpg,FS,4,num_8,16,num_8,2.48317402217,,,2017_Jul_06_1835,60.0062357921,FEMA4ImagesEEG,001,100824,
AFNE01.JPG,AFNE01.JPG,AFNE01.JPG,AFNE01.JPG,AFNE01.JPG,AFNE01.JPG,,,,,,,,,2,3,23,3,,,,,,,,,,,,,,,AFNE20.jpg,AFSA02.jpg,AFNE15.jpg,AFSA08.jpg,AFSA08.jpg,FS,4,num_4,32,num_2,0.766800799873,,,2017_Jul_06_1835,60.0062357921,FEMA4ImagesEEG,001,100824,
AFNE01.JPG,AFNE01.JPG,AFNE01.JPG,AFNE01.JPG,AFNE01.JPG,AFNE01.JPG,,,,,,,,,2,4,24,5,,,,,,,,,,,,,,,AFNE10.jpg,AFNE15.jpg,AFSA09.jpg,AFSA01.jpg,AFNE15.jpg,FN,3,num_6,16,num_6,0.883455246221,,,2017_Jul_06_1835,60.0062357921,FEMA4ImagesEEG,001,100824,
AFNE01.JPG,AFNE01.JPG,AFNE01.JPG,AFNE01.JPG,AFNE01.JPG,AFNE01.JPG,,,,,,,,,2,5,25,4,,,,,,,,,,,,,,,AFNE07.jpg,AFSA14.jpg,AFSA12.jpg,AFNE10.jpg,AFSA12.jpg,FS,4,num_2,32,num_8,1.36619338393,,,2017_Jul_06_1835,60.0062357921,FEMA4ImagesEEG,001,100824,
AFNE01.JPG,AFNE01.JPG,AFNE01.JPG,AFNE01.JPG,AFNE01.JPG,AFNE01.JPG,,,,,,,,,2,6,26,7,,,,,,,,,,,,,,,AFNE02.jpg,AFSA09.jpg,AFSA11.jpg,AFNE14.jpg,AFNE02.jpg,FN,3,num_8,32,num_2,1.35011248325,,,2017_Jul_06_1835,60.0062357921,FEMA4ImagesEEG,001,100824,
AFNE01.JPG,AFNE01.JPG,AFNE01.JPG,AFNE01.JPG,AFNE01.JPG,AFNE01.JPG,,,,,,,,,2,7,27,9,,,,,,,,,,,,,,,AFNE02.jpg,AFSA09.jpg,AFSA17.jpg,AFNE08.jpg,AFSA17.jpg,FS,4,num_2,32,num_6,0.966783928801,,,2017_Jul_06_1835,60.0062357921,FEMA4ImagesEEG,001,100824,
AFNE01.JPG,AFNE01.JPG,AFNE01.JPG,AFNE01.JPG,AFNE01.JPG,AFNE01.JPG,,,,,,,,,2,8,28,6,,,,,,,,,,,,,,,AFNE06.jpg,AFSA02.jpg,AFSA03.jpg,AFNE11.jpg,AFSA02.jpg,FS,4,num_6,32,num_8,1.00013406901,,,2017_Jul_06_1835,60.0062357921,FEMA4ImagesEEG,001,100824,
AFNE01.JPG,AFNE01.JPG,AFNE01.JPG,AFNE01.JPG,AFNE01.JPG,AFNE01.JPG,,,,,,,,,2,9,29,0,,,,,,,,,,,,,,,AFSA12.jpg,AFNE19.jpg,AFSA14.jpg,AFNE09.jpg,AFNE19.jpg,FN,3,num_6,32,num_2,1.60011264356,,,2017_Jul_06_1835,60.0062357921,FEMA4ImagesEEG,001,100824,
AFNE01.JPG,AFNE01.JPG,AFNE01.JPG,AFNE01.JPG,AFNE01.JPG,AFNE01.JPG,,,,,,,,,3,0,30,6,,,,,,,,,,,,,,,AFNE09.jpg,AFSA16.jpg,AFNE20.jpg,AFSA15.jpg,AFSA15.jpg,FS,4,num_4,16,num_4,1.91665656341,,,2017_Jul_06_1835,60.0062357921,FEMA4ImagesEEG,001,100824,
AFNE01.JPG,AFNE01.JPG,AFNE01.JPG,AFNE01.JPG,AFNE01.JPG,AFNE01.JPG,,,,,,,,,3,1,31,7,,,,,,,,,,,,,,,AFSA09.jpg,AFSA13.jpg,AFNE15.jpg,AFNE02.jpg,AFNE02.jpg,FN,3,num_4,32,num_8,1.61657746905,,,2017_Jul_06_1835,60.0062357921,FEMA4ImagesEEG,001,100824,
AFNE01.JPG,AFNE01.JPG,AFNE01.JPG,AFNE01.JPG,AFNE01.JPG,AFNE01.JPG,,,,,,,,,3,2,32,3,,,,,,,,,,,,,,,AFNE17.jpg,AFNE11.jpg,AFSA17.jpg,AFSA11.jpg,AFNE17.jpg,FN,3,num_8,32,num_4,1.20011334924,,,2017_Jul_06_1835,60.0062357921,FEMA4ImagesEEG,001,100824,
AFNE01.JPG,AFNE01.JPG,AFNE01.JPG,AFNE01.JPG,AFNE01.JPG,AFNE01.JPG,,,,,,,,,3,3,33,1,,,,,,,,,,,,,,,AFNE10.jpg,AFSA02.jpg,AFSA06.jpg,AFNE02.jpg,AFSA02.jpg,FS,4,num_6,16,num_6,1.08345216722,,,2017_Jul_06_1835,60.0062357921,FEMA4ImagesEEG,001,100824,
AFNE01.JPG,AFNE01.JPG,AFNE01.JPG,AFNE01.JPG,AFNE01.JPG,AFNE01.JPG,,,,,,,,,3,4,34,5,,,,,,,,,,,,,,,AFNE13.jpg,AFSA11.jpg,AFSA08.jpg,AFNE17.jpg,AFSA11.jpg,FS,4,num_6,32,num_8,0.933437637636,,,2017_Jul_06_1835,60.0062357921,FEMA4ImagesEEG,001,100824,
AFNE01.JPG,AFNE01.JPG,AFNE01.JPG,AFNE01.JPG,AFNE01.JPG,AFNE01.JPG,,,,,,,,,3,5,35,2,,,,,,,,,,,,,,,AFSA19.jpg,AFSA20.jpg,AFNE15.jpg,AFNE05.jpg,AFNE05.jpg,FN,3,num_4,16,num_4,1.20009378414,,,2017_Jul_06_1835,60.0062357921,FEMA4ImagesEEG,001,100824,
AFNE01.JPG,AFNE01.JPG,AFNE01.JPG,AFNE01.JPG,AFNE01.JPG,AFNE01.JPG,,,,,,,,,3,6,36,9,,,,,,,,,,,,,,,AFNE15.jpg,AFNE02.jpg,AFSA15.jpg,AFSA19.jpg,AFSA19.jpg,FS,4,num_4,32,num_2,1.13343520008,,,2017_Jul_06_1835,60.0062357921,FEMA4ImagesEEG,001,100824,
AFNE01.JPG,AFNE01.JPG,AFNE01.JPG,AFNE01.JPG,AFNE01.JPG,AFNE01.JPG,,,,,,,,,3,7,37,0,,,,,,,,,,,,,,,AFSA13.jpg,AFNE08.jpg,AFSA10.jpg,AFNE14.jpg,AFNE14.jpg,FN,3,num_4,32,num_8,1.03343930549,,,2017_Jul_06_1835,60.0062357921,FEMA4ImagesEEG,001,100824,
AFNE01.JPG,AFNE01.JPG,AFNE01.JPG,AFNE01.JPG,AFNE01.JPG,AFNE01.JPG,,,,,,,,,3,8,38,8,,,,,,,,,,,,,,,AFNE15.jpg,AFSA09.jpg,AFSA16.jpg,AFNE16.jpg,AFNE15.jpg,FN,3,num_8,32,num_4,0.883427342051,,,2017_Jul_06_1835,60.0062357921,FEMA4ImagesEEG,001,100824,
AFNE01.JPG,AFNE01.JPG,AFNE01.JPG,AFNE01.JPG,AFNE01.JPG,AFNE01.JPG,,,,,,,,,3,9,39,4,,,,,,,,,,,,,,,AFNE08.jpg,AFSA12.jpg,AFSA13.jpg,AFNE10.jpg,AFSA12.jpg,FS,4,num_6,32,num_8,0.900121175218,,,2017_Jul_06_1835,60.0062357921,FEMA4ImagesEEG,001,100824,
AFNE01.JPG,AFNE01.JPG,AFNE01.JPG,AFNE01.JPG,AFNE01.JPG,AFNE01.JPG,,,,,,,,,4,0,40,2,,,,,,,,,,,,,,,AFSA14.jpg,AFNE13.jpg,AFNE09.jpg,AFSA04.jpg,AFNE09.jpg,FN,3,num_2,16,num_2,1.2835186884,,,2017_Jul_06_1835,60.0062357921,FEMA4ImagesEEG,001,100824,
AFNE01.JPG,AFNE01.JPG,AFNE01.JPG,AFNE01.JPG,AFNE01.JPG,AFNE01.JPG,,,,,,,,,4,1,41,4,,,,,,,,,,,,,,,AFNE07.jpg,AFNE11.jpg,AFSA04.jpg,AFSA07.jpg,AFNE07.jpg,FN,3,num_8,16,num_8,1.06673491991,,,2017_Jul_06_1835,60.0062357921,FEMA4ImagesEEG,001,100824,
AFNE01.JPG,AFNE01.JPG,AFNE01.JPG,AFNE01.JPG,AFNE01.JPG,AFNE01.JPG,,,,,,,,,4,2,42,0,,,,,,,,,,,,,,,AFNE09.jpg,AFNE11.jpg,AFSA08.jpg,AFSA01.jpg,AFSA08.jpg,FS,4,num_2,16,num_2,1.84969327715,,,2017_Jul_06_1835,60.0062357921,FEMA4ImagesEEG,001,100824,
AFNE01.JPG,AFNE01.JPG,AFNE01.JPG,AFNE01.JPG,AFNE01.JPG,AFNE01.JPG,,,,,,,,,4,3,43,9,,,,,,,,,,,,,,,AFNE14.jpg,AFSA20.jpg,AFNE03.jpg,AFSA19.jpg,AFNE03.jpg,FN,3,num_2,32,num_4,0.850134614157,,,2017_Jul_06_1835,60.0062357921,FEMA4ImagesEEG,001,100824,
AFNE01.JPG,AFNE01.JPG,AFNE01.JPG,AFNE01.JPG,AFNE01.JPG,AFNE01.JPG,,,,,,,,,4,4,44,3,,,,,,,,,,,,,,,AFSA06.jpg,AFSA10.jpg,AFNE18.jpg,AFNE17.jpg,AFSA10.jpg,FS,4,num_6,16,num_6,1.15008797881,,,2017_Jul_06_1835,60.0062357921,FEMA4ImagesEEG,001,100824,
AFNE01.JPG,AFNE01.JPG,AFNE01.JPG,AFNE01.JPG,AFNE01.JPG,AFNE01.JPG,,,,,,,,,4,5,45,8,,,,,,,,,,,,,,,AFNE07.jpg,AFNE03.jpg,AFSA05.jpg,AFSA12.jpg,AFNE07.jpg,FN,3,num_8,16,num_8,1.83332242828,,,2017_Jul_06_1835,60.0062357921,FEMA4ImagesEEG,001,100824,
AFNE01.JPG,AFNE01.JPG,AFNE01.JPG,AFNE01.JPG,AFNE01.JPG,AFNE01.JPG,,,,,,,,,4,6,46,1,,,,,,,,,,,,,,,AFSA18.jpg,AFSA02.jpg,AFNE11.jpg,AFNE14.jpg,AFNE11.jpg,FN,3,num_2,32,num_6,0.833481514826,,,2017_Jul_06_1835,60.0062357921,FEMA4ImagesEEG,001,100824,
AFNE01.JPG,AFNE01.JPG,AFNE01.JPG,AFNE01.JPG,AFNE01.JPG,AFNE01.JPG,,,,,,,,,4,7,47,6,,,,,,,,,,,,,,,AFSA15.jpg,AFNE11.jpg,AFSA04.jpg,AFNE01.jpg,AFSA04.jpg,FS,4,num_2,16,num_2,0.866755319061,,,2017_Jul_06_1835,60.0062357921,FEMA4ImagesEEG,001,100824,
AFNE01.JPG,AFNE01.JPG,AFNE01.JPG,AFNE01.JPG,AFNE01.JPG,AFNE01.JPG,,,,,,,,,4,8,48,7,,,,,,,,,,,,,,,AFNE13.jpg,AFSA16.jpg,AFSA09.jpg,AFNE15.jpg,AFNE13.jpg,FN,3,num_8,16,num_8,0.783319188748,,,2017_Jul_06_1835,60.0062357921,FEMA4ImagesEEG,001,100824,
AFNE01.JPG,AFNE01.JPG,AFNE01.JPG,AFNE01.JPG,AFNE01.JPG,AFNE01.JPG,,,,,,,,,4,9,49,5,,,,,,,,,,,,,,,AFSA12.jpg,AFSA18.jpg,AFNE06.jpg,AFNE07.jpg,AFNE07.jpg,FN,3,num_4,32,num_8,1.01674226497,,,2017_Jul_06_1835,60.0062357921,FEMA4ImagesEEG,001,100824,
AFNE01.JPG,AFNE01.JPG,AFNE01.JPG,AFNE01.JPG,AFNE01.JPG,AFNE01.JPG,,,,,,,,,5,0,50,5,,,,,,,,,,,,,,,AFSA20.jpg,AFNE20.jpg,AFNE12.jpg,AFSA08.jpg,AFSA08.jpg,FS,4,num_4,32,num_6,0.916773633217,,,2017_Jul_06_1835,60.0062357921,FEMA4ImagesEEG,001,100824,
AFNE01.JPG,AFNE01.JPG,AFNE01.JPG,AFNE01.JPG,AFNE01.JPG,AFNE01.JPG,,,,,,,,,5,1,51,9,,,,,,,,,,,,,,,AFNE12.jpg,AFSA11.jpg,AFSA10.jpg,AFNE14.jpg,AFSA11.jpg,FS,4,num_6,32,num_4,0.883077094797,,,2017_Jul_06_1835,60.0062357921,FEMA4ImagesEEG,001,100824,
AFNE01.JPG,AFNE01.JPG,AFNE01.JPG,AFNE01.JPG,AFNE01.JPG,AFNE01.JPG,,,,,,,,,5,2,52,8,,,,,,,,,,,,,,,AFNE11.jpg,AFSA13.jpg,AFSA11.jpg,AFNE02.jpg,AFSA11.jpg,FS,4,num_2,32,num_8,0.850100936717,,,2017_Jul_06_1835,60.0062357921,FEMA4ImagesEEG,001,100824,
AFNE01.JPG,AFNE01.JPG,AFNE01.JPG,AFNE01.JPG,AFNE01.JPG,AFNE01.JPG,,,,,,,,,5,3,53,7,,,,,,,,,,,,,,,AFNE19.jpg,AFNE09.jpg,AFSA02.jpg,AFSA16.jpg,AFSA02.jpg,FS,4,num_2,16,num_2,0.866430730908,,,2017_Jul_06_1835,60.0062357921,FEMA4ImagesEEG,001,100824,
AFNE01.JPG,AFNE01.JPG,AFNE01.JPG,AFNE01.JPG,AFNE01.JPG,AFNE01.JPG,,,,,,,,,5,4,54,3,,,,,,,,,,,,,,,AFSA03.jpg,AFNE07.jpg,AFSA20.jpg,AFNE10.jpg,AFSA03.jpg,FS,4,num_8,32,num_4,0.650153088733,,,2017_Jul_06_1835,60.0062357921,FEMA4ImagesEEG,001,100824,
AFNE01.JPG,AFNE01.JPG,AFNE01.JPG,AFNE01.JPG,AFNE01.JPG,AFNE01.JPG,,,,,,,,,5,5,55,0,,,,,,,,,,,,,,,AFSA14.jpg,AFSA03.jpg,AFNE03.jpg,AFNE13.jpg,AFSA14.jpg,FS,4,num_8,16,num_8,1.48337865376,,,2017_Jul_06_1835,60.0062357921,FEMA4ImagesEEG,001,100824,
AFNE01.JPG,AFNE01.JPG,AFNE01.JPG,AFNE01.JPG,AFNE01.JPG,AFNE01.JPG,,,,,,,,,5,6,56,6,,,,,,,,,,,,,,,AFSA17.jpg,AFNE11.jpg,AFSA06.jpg,AFNE16.jpg,AFSA17.jpg,FS,4,num_8,32,num_2,0.883468396612,,,2017_Jul_06_1835,60.0062357921,FEMA4ImagesEEG,001,100824,
AFNE01.JPG,AFNE01.JPG,AFNE01.JPG,AFNE01.JPG,AFNE01.JPG,AFNE01.JPG,,,,,,,,,5,7,57,4,,,,,,,,,,,,,,,AFNE12.jpg,AFSA05.jpg,AFNE11.jpg,AFSA08.jpg,AFSA05.jpg,FS,4,num_6,16,num_6,1.06677020132,,,2017_Jul_06_1835,60.0062357921,FEMA4ImagesEEG,001,100824,
AFNE01.JPG,AFNE01.JPG,AFNE01.JPG,AFNE01.JPG,AFNE01.JPG,AFNE01.JPG,,,,,,,,,5,8,58,1,,,,,,,,,,,,,,,AFSA04.jpg,AFNE16.jpg,AFSA15.jpg,AFNE14.jpg,AFSA15.jpg,FS,4,num_2,32,num_8,0.98345178226,,,2017_Jul_06_1835,60.0062357921,FEMA4ImagesEEG,001,100824,
AFNE01.JPG,AFNE01.JPG,AFNE01.JPG,AFNE01.JPG,AFNE01.JPG,AFNE01.JPG,,,,,,,,,5,9,59,2,,,,,,,,,,,,,,,AFNE03.jpg,AFNE08.jpg,AFSA18.jpg,AFSA11.jpg,AFNE03.jpg,FN,3,num_8,32,num_4,0.833346162806,,,2017_Jul_06_1835,60.0062357921,FEMA4ImagesEEG,001,100824,
,,,,,,,,,,,,,,,,,,,,,,,,,,,,,,,,,,,,,,,,,,,space,5.18312411511,2017_Jul_06_1835,60.0062357921,FEMA4ImagesEEG,001,100824,
AFNE01.JPG,AFNE01.JPG,AFNE01.JPG,AFNE01.JPG,AFNE01.JPG,AFNE01.JPG,,,,,,,,,,,,,0,0,0,6,,,,,,,,,,,AMNE09.jpg,AMSA14.jpg,AMNE08.jpg,AMSA09.jpg,AMSA09.jpg,MS,2,num_4,16,num_4,0.883460057434,,,2017_Jul_06_1835,60.0062357921,FEMA4ImagesEEG,001,100824,
AFNE01.JPG,AFNE01.JPG,AFNE01.JPG,AFNE01.JPG,AFNE01.JPG,AFNE01.JPG,,,,,,,,,,,,,0,1,1,5,,,,,,,,,,,AMNE18.jpg,AMSA12.jpg,AMSA01.jpg,AMNE19.jpg,AMNE19.jpg,MN,1,num_4,32,num_8,0.900068253279,,,2017_Jul_06_1835,60.0062357921,FEMA4ImagesEEG,001,100824,
AFNE01.JPG,AFNE01.JPG,AFNE01.JPG,AFNE01.JPG,AFNE01.JPG,AFNE01.JPG,,,,,,,,,,,,,0,2,2,9,,,,,,,,,,,AMSA17.jpg,AMNE11.jpg,AMNE07.jpg,AMSA11.jpg,AMSA17.jpg,MS,2,num_8,32,num_2,1.21673822356,,,2017_Jul_06_1835,60.0062357921,FEMA4ImagesEEG,001,100824,
AFNE01.JPG,AFNE01.JPG,AFNE01.JPG,AFNE01.JPG,AFNE01.JPG,AFNE01.JPG,,,,,,,,,,,,,0,3,3,7,,,,,,,,,,,AMSA11.jpg,AMNE08.jpg,AMSA03.jpg,AMNE13.jpg,AMSA11.jpg,MS,2,num_8,16,num_8,1.05011517741,,,2017_Jul_06_1835,60.0062357921,FEMA4ImagesEEG,001,100824,
AFNE01.JPG,AFNE01.JPG,AFNE01.JPG,AFNE01.JPG,AFNE01.JPG,AFNE01.JPG,,,,,,,,,,,,,0,4,4,0,,,,,,,,,,,AMSA04.jpg,AMNE14.jpg,AMSA05.jpg,AMNE19.jpg,AMNE14.jpg,MN,1,num_6,16,num_6,0.733422434656,,,2017_Jul_06_1835,60.0062357921,FEMA4ImagesEEG,001,100824,
AFNE01.JPG,AFNE01.JPG,AFNE01.JPG,AFNE01.JPG,AFNE01.JPG,AFNE01.JPG,,,,,,,,,,,,,0,5,5,8,,,,,,,,,,,AMSA12.jpg,AMNE19.jpg,AMNE10.jpg,AMSA07.jpg,AMNE19.jpg,MN,1,num_6,32,num_8,0.966806059936,,,2017_Jul_06_1835,60.0062357921,FEMA4ImagesEEG,001,100824,
AFNE01.JPG,AFNE01.JPG,AFNE01.JPG,AFNE01.JPG,AFNE01.JPG,AFNE01.JPG,,,,,,,,,,,,,0,6,6,4,,,,,,,,,,,AMSA06.jpg,AMSA11.jpg,AMNE13.jpg,AMNE05.jpg,AMSA11.jpg,MS,2,num_6,32,num_4,1.76667763595,,,2017_Jul_06_1835,60.0062357921,FEMA4ImagesEEG,001,100824,
AFNE01.JPG,AFNE01.JPG,AFNE01.JPG,AFNE01.JPG,AFNE01.JPG,AFNE01.JPG,,,,,,,,,,,,,0,7,7,3,,,,,,,,,,,AMSA10.jpg,AMNE06.jpg,AMNE14.jpg,AMSA08.jpg,AMSA10.jpg,MS,2,num_8,16,num_8,0.766747877817,,,2017_Jul_06_1835,60.0062357921,FEMA4ImagesEEG,001,100824,
AFNE01.JPG,AFNE01.JPG,AFNE01.JPG,AFNE01.JPG,AFNE01.JPG,AFNE01.JPG,,,,,,,,,,,,,0,8,8,2,,,,,,,,,,,AMNE20.jpg,AMSA10.jpg,AMSA19.jpg,AMNE11.jpg,AMSA10.jpg,MS,2,num_6,32,num_8,2.84998418752,,,2017_Jul_06_1835,60.0062357921,FEMA4ImagesEEG,001,100824,
AFNE01.JPG,AFNE01.JPG,AFNE01.JPG,AFNE01.JPG,AFNE01.JPG,AFNE01.JPG,,,,,,,,,,,,,0,9,9,1,,,,,,,,,,,AMNE19.jpg,AMSA11.jpg,AMSA17.jpg,AMNE12.jpg,AMNE12.jpg,MN,1,num_4,16,num_4,2.43325962755,,,2017_Jul_06_1835,60.0062357921,FEMA4ImagesEEG,001,100824,
AFNE01.JPG,AFNE01.JPG,AFNE01.JPG,AFNE01.JPG,AFNE01.JPG,AFNE01.JPG,,,,,,,,,,,,,1,0,10,5,,,,,,,,,,,AMSA20.jpg,AMSA06.jpg,AMNE18.jpg,AMNE15.jpg,AMNE15.jpg,MN,1,num_4,16,num_4,1.03344347514,,,2017_Jul_06_1835,60.0062357921,FEMA4ImagesEEG,001,100824,
AFNE01.JPG,AFNE01.JPG,AFNE01.JPG,AFNE01.JPG,AFNE01.JPG,AFNE01.JPG,,,,,,,,,,,,,1,1,11,1,,,,,,,,,,,AMNE16.jpg,AMSA20.jpg,AMNE09.jpg,AMSA03.jpg,AMNE09.jpg,MN,1,num_2,16,num_2,1.23343911313,,,2017_Jul_06_1835,60.0062357921,FEMA4ImagesEEG,001,100824,
AFNE01.JPG,AFNE01.JPG,AFNE01.JPG,AFNE01.JPG,AFNE01.JPG,AFNE01.JPG,,,,,,,,,,,,,1,2,12,6,,,,,,,,,,,AMNE15.jpg,AMSA08.jpg,AMSA16.jpg,AMNE08.jpg,AMNE08.jpg,MN,1,num_4,32,num_6,1.46670855512,,,2017_Jul_06_1835,60.0062357921,FEMA4ImagesEEG,001,100824,
AFNE01.JPG,AFNE01.JPG,AFNE01.JPG,AFNE01.JPG,AFNE01.JPG,AFNE01.JPG,,,,,,,,,,,,,1,3,13,3,,,,,,,,,,,AMNE06.jpg,AMSA16.jpg,AMNE01.jpg,AMSA01.jpg,AMNE01.jpg,MN,1,num_2,16,num_2,2.01640067773,,,2017_Jul_06_1835,60.0062357921,FEMA4ImagesEEG,001,100824,
AFNE01.JPG,AFNE01.JPG,AFNE01.JPG,AFNE01.JPG,AFNE01.JPG,AFNE01.JPG,,,,,,,,,,,,,1,4,14,2,,,,,,,,,,,AMNE05.jpg,AMNE09.jpg,AMSA17.jpg,AMSA09.jpg,AMNE09.jpg,MN,1,num_6,32,num_8,0.883418361307,,,2017_Jul_06_1835,60.0062357921,FEMA4ImagesEEG,001,100824,
AFNE01.JPG,AFNE01.JPG,AFNE01.JPG,AFNE01.JPG,AFNE01.JPG,AFNE01.JPG,,,,,,,,,,,,,1,5,15,4,,,,,,,,,,,AMSA19.jpg,AMSA18.jpg,AMNE08.jpg,AMNE01.jpg,AMSA18.jpg,MS,2,num_6,16,num_6,0.783449729555,,,2017_Jul_06_1835,60.0062357921,FEMA4ImagesEEG,001,100824,
AFNE01.JPG,AFNE01.JPG,AFNE01.JPG,AFNE01.JPG,AFNE01.JPG,AFNE01.JPG,,,,,,,,,,,,,1,6,16,8,,,,,,,,,,,AMNE07.jpg,AMSA09.jpg,AMNE15.jpg,AMSA05.jpg,AMSA09.jpg,MS,2,num_6,32,num_4,1.06697130483,,,2017_Jul_06_1835,60.0062357921,FEMA4ImagesEEG,001,100824,
AFNE01.JPG,AFNE01.JPG,AFNE01.JPG,AFNE01.JPG,AFNE01.JPG,AFNE01.JPG,,,,,,,,,,,,,1,7,17,7,,,,,,,,,,,AMSA06.jpg,AMNE18.jpg,AMNE08.jpg,AMSA19.jpg,AMSA06.jpg,MS,2,num_8,16,num_8,0.750106966589,,,2017_Jul_06_1835,60.0062357921,FEMA4ImagesEEG,001,100824,
AFNE01.JPG,AFNE01.JPG,AFNE01.JPG,AFNE01.JPG,AFNE01.JPG,AFNE01.JPG,,,,,,,,,,,,,1,8,18,0,,,,,,,,,,,AMNE04.jpg,AMSA13.jpg,AMSA04.jpg,AMNE16.jpg,AMSA04.jpg,MS,2,num_2,32,num_6,0.766812025686,,,2017_Jul_06_1835,60.0062357921,FEMA4ImagesEEG,001,100824,
AFNE01.JPG,AFNE01.JPG,AFNE01.JPG,AFNE01.JPG,AFNE01.JPG,AFNE01.JPG,,,,,,,,,,,,,1,9,19,9,,,,,,,,,,,AMNE15.jpg,AMNE16.jpg,AMSA02.jpg,AMSA20.jpg,AMNE15.jpg,MN,1,num_8,16,num_8,0.716805258067,,,2017_Jul_06_1835,60.0062357921,FEMA4ImagesEEG,001,100824,
AFNE01.JPG,AFNE01.JPG,AFNE01.JPG,AFNE01.JPG,AFNE01.JPG,AFNE01.JPG,,,,,,,,,,,,,2,0,20,8,,,,,,,,,,,AMNE02.jpg,AMSA12.jpg,AMSA14.jpg,AMNE08.jpg,AMSA14.jpg,MS,2,num_2,16,num_2,1.21676965605,,,2017_Jul_06_1835,60.0062357921,FEMA4ImagesEEG,001,100824,
AFNE01.JPG,AFNE01.JPG,AFNE01.JPG,AFNE01.JPG,AFNE01.JPG,AFNE01.JPG,,,,,,,,,,,,,2,1,21,5,,,,,,,,,,,AMSA20.jpg,AMSA10.jpg,AMNE04.jpg,AMNE08.jpg,AMSA10.jpg,MS,2,num_6,32,num_8,1.00009461807,,,2017_Jul_06_1835,60.0062357921,FEMA4ImagesEEG,001,100824,
AFNE01.JPG,AFNE01.JPG,AFNE01.JPG,AFNE01.JPG,AFNE01.JPG,AFNE01.JPG,,,,,,,,,,,,,2,2,22,2,,,,,,,,,,,AMNE02.jpg,AMNE01.jpg,AMSA07.jpg,AMSA17.jpg,AMNE02.jpg,MN,1,num_8,32,num_6,1.43350787961,,,2017_Jul_06_1835,60.0062357921,FEMA4ImagesEEG,001,100824,
AFNE01.JPG,AFNE01.JPG,AFNE01.JPG,AFNE01.JPG,AFNE01.JPG,AFNE01.JPG,,,,,,,,,,,,,2,3,23,9,,,,,,,,,,,AMSA05.jpg,AMNE18.jpg,AMSA20.jpg,AMNE02.jpg,AMNE02.jpg,MN,1,num_4,16,num_4,0.750086759916,,,2017_Jul_06_1835,60.0062357921,FEMA4ImagesEEG,001,100824,
AFNE01.JPG,AFNE01.JPG,AFNE01.JPG,AFNE01.JPG,AFNE01.JPG,AFNE01.JPG,,,,,,,,,,,,,2,4,24,3,,,,,,,,,,,AMSA18.jpg,AMSA11.jpg,AMNE14.jpg,AMNE07.jpg,AMNE07.jpg,MN,1,num_4,32,num_8,0.849767047097,,,2017_Jul_06_1835,60.0062357921,FEMA4ImagesEEG,001,100824,
AFNE01.JPG,AFNE01.JPG,AFNE01.JPG,AFNE01.JPG,AFNE01.JPG,AFNE01.JPG,,,,,,,,,,,,,2,5,25,4,,,,,,,,,,,AMNE12.jpg,AMSA11.jpg,AMSA14.jpg,AMNE19.jpg,AMNE12.jpg,MN,1,num_8,32,num_2,1.36673575395,,,2017_Jul_06_1835,60.0062357921,FEMA4ImagesEEG,001,100824,
AFNE01.JPG,AFNE01.JPG,AFNE01.JPG,AFNE01.JPG,AFNE01.JPG,AFNE01.JPG,,,,,,,,,,,,,2,6,26,6,,,,,,,,,,,AMNE09.jpg,AMNE19.jpg,AMSA05.jpg,AMSA20.jpg,AMSA20.jpg,MS,2,num_4,32,num_6,0.816779021639,,,2017_Jul_06_1835,60.0062357921,FEMA4ImagesEEG,001,100824,
AFNE01.JPG,AFNE01.JPG,AFNE01.JPG,AFNE01.JPG,AFNE01.JPG,AFNE01.JPG,,,,,,,,,,,,,2,7,27,0,,,,,,,,,,,AMSA06.jpg,AMNE09.jpg,AMSA10.jpg,AMNE14.jpg,AMNE09.jpg,MN,1,num_6,32,num_4,1.23370660958,,,2017_Jul_06_1835,60.0062357921,FEMA4ImagesEEG,001,100824,
AFNE01.JPG,AFNE01.JPG,AFNE01.JPG,AFNE01.JPG,AFNE01.JPG,AFNE01.JPG,,,,,,,,,,,,,2,8,28,7,,,,,,,,,,,AMNE15.jpg,AMNE07.jpg,AMSA20.jpg,AMSA16.jpg,AMSA16.jpg,MS,2,num_4,48,None,,,,2017_Jul_06_1835,60.0062357921,FEMA4ImagesEEG,001,100824,
AFNE01.JPG,AFNE01.JPG,AFNE01.JPG,AFNE01.JPG,AFNE01.JPG,AFNE01.JPG,,,,,,,,,,,,,2,9,29,1,,,,,,,,,,,AMNE07.jpg,AMSA09.jpg,AMNE06.jpg,AMSA18.jpg,AMSA09.jpg,MS,2,num_6,32,num_2,1.28340899572,,,2017_Jul_06_1835,60.0062357921,FEMA4ImagesEEG,001,100824,
AFNE01.JPG,AFNE01.JPG,AFNE01.JPG,AFNE01.JPG,AFNE01.JPG,AFNE01.JPG,,,,,,,,,,,,,3,0,30,9,,,,,,,,,,,AMNE10.jpg,AMNE08.jpg,AMSA03.jpg,AMSA18.jpg,AMSA03.jpg,MS,2,num_2,32,num_6,0.883485716535,,,2017_Jul_06_1835,60.0062357921,FEMA4ImagesEEG,001,100824,
AFNE01.JPG,AFNE01.JPG,AFNE01.JPG,AFNE01.JPG,AFNE01.JPG,AFNE01.JPG,,,,,,,,,,,,,3,1,31,3,,,,,,,,,,,AMSA07.jpg,AMNE01.jpg,AMNE07.jpg,AMSA19.jpg,AMSA19.jpg,MS,2,num_4,16,num_4,0.783071578131,,,2017_Jul_06_1835,60.0062357921,FEMA4ImagesEEG,001,100824,
AFNE01.JPG,AFNE01.JPG,AFNE01.JPG,AFNE01.JPG,AFNE01.JPG,AFNE01.JPG,,,,,,,,,,,,,3,2,32,7,,,,,,,,,,,AMNE06.jpg,AMSA07.jpg,AMNE08.jpg,AMSA02.jpg,AMNE08.jpg,MN,1,num_2,16,num_2,4.03317084676,,,2017_Jul_06_1835,60.0062357921,FEMA4ImagesEEG,001,100824,
AFNE01.JPG,AFNE01.JPG,AFNE01.JPG,AFNE01.JPG,AFNE01.JPG,AFNE01.JPG,,,,,,,,,,,,,3,3,33,4,,,,,,,,,,,AMSA07.jpg,AMNE14.jpg,AMNE06.jpg,AMSA03.jpg,AMSA03.jpg,MS,2,num_4,32,num_8,1.05011870549,,,2017_Jul_06_1835,60.0062357921,FEMA4ImagesEEG,001,100824,
AFNE01.JPG,AFNE01.JPG,AFNE01.JPG,AFNE01.JPG,AFNE01.JPG,AFNE01.JPG,,,,,,,,,,,,,3,4,34,1,,,,,,,,,,,AMNE20.jpg,AMSA13.jpg,AMNE07.jpg,AMSA03.jpg,AMSA03.jpg,MS,2,num_4,16,num_4,0.566827613628,,,2017_Jul_06_1835,60.0062357921,FEMA4ImagesEEG,001,100824,
AFNE01.JPG,AFNE01.JPG,AFNE01.JPG,AFNE01.JPG,AFNE01.JPG,AFNE01.JPG,,,,,,,,,,,,,3,5,35,6,,,,,,,,,,,AMSA02.jpg,AMSA11.jpg,AMNE14.jpg,AMNE19.jpg,AMNE14.jpg,MN,1,num_2,16,num_2,1.85008457885,,,2017_Jul_06_1835,60.0062357921,FEMA4ImagesEEG,001,100824,
AFNE01.JPG,AFNE01.JPG,AFNE01.JPG,AFNE01.JPG,AFNE01.JPG,AFNE01.JPG,,,,,,,,,,,,,3,6,36,5,,,,,,,,,,,AMNE16.jpg,AMSA15.jpg,AMNE18.jpg,AMSA02.jpg,AMSA02.jpg,MS,2,num_4,32,num_8,1.08343645104,,,2017_Jul_06_1835,60.0062357921,FEMA4ImagesEEG,001,100824,
AFNE01.JPG,AFNE01.JPG,AFNE01.JPG,AFNE01.JPG,AFNE01.JPG,AFNE01.JPG,,,,,,,,,,,,,3,7,37,8,,,,,,,,,,,AMNE05.jpg,AMSA11.jpg,AMSA09.jpg,AMNE14.jpg,AMNE05.jpg,MN,1,num_8,32,num_2,0.933495050063,,,2017_Jul_06_1835,60.0062357921,FEMA4ImagesEEG,001,100824,
AFNE01.JPG,AFNE01.JPG,AFNE01.JPG,AFNE01.JPG,AFNE01.JPG,AFNE01.JPG,,,,,,,,,,,,,3,8,38,2,,,,,,,,,,,AMNE06.jpg,AMSA19.jpg,AMNE01.jpg,AMSA16.jpg,AMSA16.jpg,MS,2,num_4,32,num_8,0.800170825794,,,2017_Jul_06_1835,60.0062357921,FEMA4ImagesEEG,001,100824,
AFNE01.JPG,AFNE01.JPG,AFNE01.JPG,AFNE01.JPG,AFNE01.JPG,AFNE01.JPG,,,,,,,,,,,,,3,9,39,0,,,,,,,,,,,AMNE16.jpg,AMNE17.jpg,AMSA12.jpg,AMSA06.jpg,AMSA06.jpg,MS,2,num_4,16,num_4,0.950096189626,,,2017_Jul_06_1835,60.0062357921,FEMA4ImagesEEG,001,100824,
AFNE01.JPG,AFNE01.JPG,AFNE01.JPG,AFNE01.JPG,AFNE01.JPG,AFNE01.JPG,,,,,,,,,,,,,4,0,40,8,,,,,,,,,,,AMNE18.jpg,AMSA05.jpg,AMSA20.jpg,AMNE04.jpg,AMSA05.jpg,MS,2,num_6,32,num_2,0.883425738313,,,2017_Jul_06_1835,60.0062357921,FEMA4ImagesEEG,001,100824,
AFNE01.JPG,AFNE01.JPG,AFNE01.JPG,AFNE01.JPG,AFNE01.JPG,AFNE01.JPG,,,,,,,,,,,,,4,1,41,1,,,,,,,,,,,AMSA03.jpg,AMNE17.jpg,AMNE03.jpg,AMSA15.jpg,AMNE17.jpg,MN,1,num_6,16,num_6,0.933482220396,,,2017_Jul_06_1835,60.0062357921,FEMA4ImagesEEG,001,100824,
AFNE01.JPG,AFNE01.JPG,AFNE01.JPG,AFNE01.JPG,AFNE01.JPG,AFNE01.JPG,,,,,,,,,,,,,4,2,42,3,,,,,,,,,,,AMNE16.jpg,AMSA03.jpg,AMNE06.jpg,AMSA14.jpg,AMSA03.jpg,MS,2,num_6,32,num_8,0.833422498778,,,2017_Jul_06_1835,60.0062357921,FEMA4ImagesEEG,001,100824,
AFNE01.JPG,AFNE01.JPG,AFNE01.JPG,AFNE01.JPG,AFNE01.JPG,AFNE01.JPG,,,,,,,,,,,,,4,3,43,4,,,,,,,,,,,AMSA14.jpg,AMSA12.jpg,AMNE17.jpg,AMNE02.jpg,AMSA14.jpg,MS,2,num_8,32,num_2,1.18338070647,,,2017_Jul_06_1835,60.0062357921,FEMA4ImagesEEG,001,100824,
AFNE01.JPG,AFNE01.JPG,AFNE01.JPG,AFNE01.JPG,AFNE01.JPG,AFNE01.JPG,,,,,,,,,,,,,4,4,44,5,,,,,,,,,,,AMSA14.jpg,AMNE16.jpg,AMSA04.jpg,AMNE18.jpg,AMSA14.jpg,MS,2,num_8,16,num_8,0.783473785035,,,2017_Jul_06_1835,60.0062357921,FEMA4ImagesEEG,001,100824,
AFNE01.JPG,AFNE01.JPG,AFNE01.JPG,AFNE01.JPG,AFNE01.JPG,AFNE01.JPG,,,,,,,,,,,,,4,5,45,2,,,,,,,,,,,AMNE02.jpg,AMNE20.jpg,AMSA15.jpg,AMSA12.jpg,AMNE20.jpg,MN,1,num_6,16,num_6,0.733485299512,,,2017_Jul_06_1835,60.0062357921,FEMA4ImagesEEG,001,100824,
AFNE01.JPG,AFNE01.JPG,AFNE01.JPG,AFNE01.JPG,AFNE01.JPG,AFNE01.JPG,,,,,,,,,,,,,4,6,46,6,,,,,,,,,,,AMSA19.jpg,AMNE20.jpg,AMNE15.jpg,AMSA07.jpg,AMSA07.jpg,MS,2,num_4,32,num_2,4.13321196567,,,2017_Jul_06_1835,60.0062357921,FEMA4ImagesEEG,001,100824,
AFNE01.JPG,AFNE01.JPG,AFNE01.JPG,AFNE01.JPG,AFNE01.JPG,AFNE01.JPG,,,,,,,,,,,,,4,7,47,0,,,,,,,,,,,AMNE19.jpg,AMSA18.jpg,AMNE03.jpg,AMSA11.jpg,AMNE03.jpg,MN,1,num_2,32,num_8,1.90034088166,,,2017_Jul_06_1835,60.0062357921,FEMA4ImagesEEG,001,100824,
AFNE01.JPG,AFNE01.JPG,AFNE01.JPG,AFNE01.JPG,AFNE01.JPG,AFNE01.JPG,,,,,,,,,,,,,4,8,48,9,,,,,,,,,,,AMSA11.jpg,AMNE09.jpg,AMNE10.jpg,AMSA17.jpg,AMNE10.jpg,MN,1,num_2,32,num_6,1.21673629922,,,2017_Jul_06_1835,60.0062357921,FEMA4ImagesEEG,001,100824,
AFNE01.JPG,AFNE01.JPG,AFNE01.JPG,AFNE01.JPG,AFNE01.JPG,AFNE01.JPG,,,,,,,,,,,,,4,9,49,7,,,,,,,,,,,AMNE15.jpg,AMNE18.jpg,AMSA13.jpg,AMSA03.jpg,AMNE18.jpg,MN,1,num_6,32,num_2,0.966760194278,,,2017_Jul_06_1835,60.0062357921,FEMA4ImagesEEG,001,100824,
AFNE01.JPG,AFNE01.JPG,AFNE01.JPG,AFNE01.JPG,AFNE01.JPG,AFNE01.JPG,,,,,,,,,,,,,5,0,50,6,,,,,,,,,,,AMNE19.jpg,AMSA07.jpg,AMNE11.jpg,AMSA02.jpg,AMSA02.jpg,MS,2,num_4,16,num_4,1.00010520243,,,2017_Jul_06_1835,60.0062357921,FEMA4ImagesEEG,001,100824,
AFNE01.JPG,AFNE01.JPG,AFNE01.JPG,AFNE01.JPG,AFNE01.JPG,AFNE01.JPG,,,,,,,,,,,,,5,1,51,4,,,,,,,,,,,AMSA13.jpg,AMSA02.jpg,AMNE16.jpg,AMNE10.jpg,AMSA02.jpg,MS,2,num_6,16,num_6,1.01713484956,,,2017_Jul_06_1835,60.0062357921,FEMA4ImagesEEG,001,100824,
AFNE01.JPG,AFNE01.JPG,AFNE01.JPG,AFNE01.JPG,AFNE01.JPG,AFNE01.JPG,,,,,,,,,,,,,5,2,52,0,,,,,,,,,,,AMSA08.jpg,AMSA12.jpg,AMNE07.jpg,AMNE08.jpg,AMSA08.jpg,MS,2,num_8,16,num_8,0.650120052625,,,2017_Jul_06_1835,60.0062357921,FEMA4ImagesEEG,001,100824,
AFNE01.JPG,AFNE01.JPG,AFNE01.JPG,AFNE01.JPG,AFNE01.JPG,AFNE01.JPG,,,,,,,,,,,,,5,3,53,8,,,,,,,,,,,AMSA13.jpg,AMNE20.jpg,AMSA10.jpg,AMNE09.jpg,AMSA13.jpg,MS,2,num_8,32,num_4,1.18347789056,,,2017_Jul_06_1835,60.0062357921,FEMA4ImagesEEG,001,100824,
AFNE01.JPG,AFNE01.JPG,AFNE01.JPG,AFNE01.JPG,AFNE01.JPG,AFNE01.JPG,,,,,,,,,,,,,5,4,54,5,,,,,,,,,,,AMNE02.jpg,AMSA15.jpg,AMSA06.jpg,AMNE12.jpg,AMSA15.jpg,MS,2,num_6,16,num_6,1.40008396946,,,2017_Jul_06_1835,60.0062357921,FEMA4ImagesEEG,001,100824,
AFNE01.JPG,AFNE01.JPG,AFNE01.JPG,AFNE01.JPG,AFNE01.JPG,AFNE01.JPG,,,,,,,,,,,,,5,5,55,7,,,,,,,,,,,AMNE18.jpg,AMSA13.jpg,AMSA17.jpg,AMNE06.jpg,AMSA17.jpg,MS,2,num_2,16,num_2,1.43342994002,,,2017_Jul_06_1835,60.0062357921,FEMA4ImagesEEG,001,100824,
AFNE01.JPG,AFNE01.JPG,AFNE01.JPG,AFNE01.JPG,AFNE01.JPG,AFNE01.JPG,,,,,,,,,,,,,5,6,56,3,,,,,,,,,,,AMSA01.jpg,AMNE20.jpg,AMNE06.jpg,AMSA15.jpg,AMSA01.jpg,MS,2,num_8,16,num_8,0.900211302913,,,2017_Jul_06_1835,60.0062357921,FEMA4ImagesEEG,001,100824,
AFNE01.JPG,AFNE01.JPG,AFNE01.JPG,AFNE01.JPG,AFNE01.JPG,AFNE01.JPG,,,,,,,,,,,,,5,7,57,1,,,,,,,,,,,AMNE17.jpg,AMSA04.jpg,AMNE18.jpg,AMSA14.jpg,AMNE17.jpg,MN,1,num_8,16,num_8,0.950436814688,,,2017_Jul_06_1835,60.0062357921,FEMA4ImagesEEG,001,100824,
AFNE01.JPG,AFNE01.JPG,AFNE01.JPG,AFNE01.JPG,AFNE01.JPG,AFNE01.JPG,,,,,,,,,,,,,5,8,58,9,,,,,,,,,,,AMNE10.jpg,AMNE12.jpg,AMSA08.jpg,AMSA06.jpg,AMNE10.jpg,MN,1,num_8,32,num_2,2.08337551053,,,2017_Jul_06_1835,60.0062357921,FEMA4ImagesEEG,001,100824,
AFNE01.JPG,AFNE01.JPG,AFNE01.JPG,AFNE01.JPG,AFNE01.JPG,AFNE01.JPG,,,,,,,,,,,,,5,9,59,2,,,,,,,,,,,AMSA18.jpg,AMNE19.jpg,AMSA07.jpg,AMNE02.jpg,AMNE19.jpg,MN,1,num_6,16,num_6,0.783493350144,,,2017_Jul_06_1835,60.0062357921,FEMA4ImagesEEG,001,100824,
,,,,,,,,,,,,,,,,,,,,,,,,,,,,,,,,,,,,,,,,,,,space,10.4660099853,2017_Jul_06_1835,60.0062357921,FEMA4ImagesEEG,001,100824,
AFNE01.JPG,AFNE01.JPG,AFNE01.JPG,AFNE01.JPG,AFNE01.JPG,AFNE01.JPG,,,,,,,,,,,,,,,,,0,0,0,6,,,,,,,AFNE12.jpg,AFSA09.jpg,AFNE19.jpg,AFSA07.jpg,AFSA09.jpg,FS,4,num_6,32,num_8,1.01674900041,,,2017_Jul_06_1835,60.0062357921,FEMA4ImagesEEG,001,100824,
AFNE01.JPG,AFNE01.JPG,AFNE01.JPG,AFNE01.JPG,AFNE01.JPG,AFNE01.JPG,,,,,,,,,,,,,,,,,0,1,1,2,,,,,,,AFSA09.jpg,AFNE04.jpg,AFSA02.jpg,AFNE15.jpg,AFSA09.jpg,FS,4,num_8,16,num_8,0.9000990442,,,2017_Jul_06_1835,60.0062357921,FEMA4ImagesEEG,001,100824,
AFNE01.JPG,AFNE01.JPG,AFNE01.JPG,AFNE01.JPG,AFNE01.JPG,AFNE01.JPG,,,,,,,,,,,,,,,,,0,2,2,0,,,,,,,AFSA03.jpg,AFNE16.jpg,AFSA13.jpg,AFNE17.jpg,AFNE16.jpg,FN,3,num_6,16,num_6,0.816761380876,,,2017_Jul_06_1835,60.0062357921,FEMA4ImagesEEG,001,100824,
AFNE01.JPG,AFNE01.JPG,AFNE01.JPG,AFNE01.JPG,AFNE01.JPG,AFNE01.JPG,,,,,,,,,,,,,,,,,0,3,3,1,,,,,,,AFSA15.jpg,AFSA09.jpg,AFNE05.jpg,AFNE19.jpg,AFSA15.jpg,FS,4,num_8,16,num_8,0.783154970268,,,2017_Jul_06_1835,60.0062357921,FEMA4ImagesEEG,001,100824,
AFNE01.JPG,AFNE01.JPG,AFNE01.JPG,AFNE01.JPG,AFNE01.JPG,AFNE01.JPG,,,,,,,,,,,,,,,,,0,4,4,9,,,,,,,AFNE17.jpg,AFSA03.jpg,AFNE03.jpg,AFSA18.jpg,AFNE03.jpg,FN,3,num_2,32,num_6,1.41674637038,,,2017_Jul_06_1835,60.0062357921,FEMA4ImagesEEG,001,100824,
AFNE01.JPG,AFNE01.JPG,AFNE01.JPG,AFNE01.JPG,AFNE01.JPG,AFNE01.JPG,,,,,,,,,,,,,,,,,0,5,5,4,,,,,,,AFSA10.jpg,AFNE06.jpg,AFNE05.jpg,AFSA11.jpg,AFSA11.jpg,FS,4,num_4,16,num_4,0.700138366898,,,2017_Jul_06_1835,60.0062357921,FEMA4ImagesEEG,001,100824,
AFNE01.JPG,AFNE01.JPG,AFNE01.JPG,AFNE01.JPG,AFNE01.JPG,AFNE01.JPG,,,,,,,,,,,,,,,,,0,6,6,5,,,,,,,AFSA01.jpg,AFNE07.jpg,AFNE01.jpg,AFSA10.jpg,AFSA01.jpg,FS,4,num_8,16,num_8,0.866879445035,,,2017_Jul_06_1835,60.0062357921,FEMA4ImagesEEG,001,100824,
AFNE01.JPG,AFNE01.JPG,AFNE01.JPG,AFNE01.JPG,AFNE01.JPG,AFNE01.JPG,,,,,,,,,,,,,,,,,0,7,7,3,,,,,,,AFSA02.jpg,AFNE04.jpg,AFSA07.jpg,AFNE19.jpg,AFNE19.jpg,FN,3,num_4,16,num_4,0.750122361933,,,2017_Jul_06_1835,60.0062357921,FEMA4ImagesEEG,001,100824,
AFNE01.JPG,AFNE01.JPG,AFNE01.JPG,AFNE01.JPG,AFNE01.JPG,AFNE01.JPG,,,,,,,,,,,,,,,,,0,8,8,8,,,,,,,AFNE19.jpg,AFSA12.jpg,AFSA03.jpg,AFNE17.jpg,AFSA12.jpg,FS,4,num_6,16,num_6,0.900115722674,,,2017_Jul_06_1835,60.0062357921,FEMA4ImagesEEG,001,100824,
AFNE01.JPG,AFNE01.JPG,AFNE01.JPG,AFNE01.JPG,AFNE01.JPG,AFNE01.JPG,,,,,,,,,,,,,,,,,0,9,9,7,,,,,,,AFSA05.jpg,AFNE11.jpg,AFNE12.jpg,AFSA19.jpg,AFNE11.jpg,FN,3,num_6,32,num_8,0.950111264479,,,2017_Jul_06_1835,60.0062357921,FEMA4ImagesEEG,001,100824,
AFNE01.JPG,AFNE01.JPG,AFNE01.JPG,AFNE01.JPG,AFNE01.JPG,AFNE01.JPG,,,,,,,,,,,,,,,,,1,0,10,0,,,,,,,AFNE14.jpg,AFSA19.jpg,AFNE20.jpg,AFSA07.jpg,AFNE20.jpg,FN,3,num_2,32,num_8,1.25005917635,,,2017_Jul_06_1835,60.0062357921,FEMA4ImagesEEG,001,100824,
AFNE01.JPG,AFNE01.JPG,AFNE01.JPG,AFNE01.JPG,AFNE01.JPG,AFNE01.JPG,,,,,,,,,,,,,,,,,1,1,11,9,,,,,,,AFNE06.jpg,AFSA03.jpg,AFSA07.jpg,AFNE15.jpg,AFNE06.jpg,FN,3,num_8,16,num_8,2.33335578511,,,2017_Jul_06_1835,60.0062357921,FEMA4ImagesEEG,001,100824,
AFNE01.JPG,AFNE01.JPG,AFNE01.JPG,AFNE01.JPG,AFNE01.JPG,AFNE01.JPG,,,,,,,,,,,,,,,,,1,2,12,6,,,,,,,AFNE13.jpg,AFNE14.jpg,AFSA10.jpg,AFSA08.jpg,AFSA08.jpg,FS,4,num_4,32,num_2,1.26672061498,,,2017_Jul_06_1835,60.0062357921,FEMA4ImagesEEG,001,100824,
AFNE01.JPG,AFNE01.JPG,AFNE01.JPG,AFNE01.JPG,AFNE01.JPG,AFNE01.JPG,,,,,,,,,,,,,,,,,1,3,13,4,,,,,,,AFSA15.jpg,AFNE14.jpg,AFSA10.jpg,AFNE02.jpg,AFSA10.jpg,FS,4,num_2,16,num_2,0.88344594487,,,2017_Jul_06_1835,60.0062357921,FEMA4ImagesEEG,001,100824,
AFNE01.JPG,AFNE01.JPG,AFNE01.JPG,AFNE01.JPG,AFNE01.JPG,AFNE01.JPG,,,,,,,,,,,,,,,,,1,4,14,7,,,,,,,AFNE06.jpg,AFSA09.jpg,AFSA04.jpg,AFNE03.jpg,AFNE03.jpg,FN,3,num_4,32,num_6,1.79999890947,,,2017_Jul_06_1835,60.0062357921,FEMA4ImagesEEG,001,100824,
AFNE01.JPG,AFNE01.JPG,AFNE01.JPG,AFNE01.JPG,AFNE01.JPG,AFNE01.JPG,,,,,,,,,,,,,,,,,1,5,15,8,,,,,,,AFNE10.jpg,AFSA03.jpg,AFSA04.jpg,AFNE01.jpg,AFNE10.jpg,FN,3,num_8,16,num_8,0.916825592867,,,2017_Jul_06_1835,60.0062357921,FEMA4ImagesEEG,001,100824,
AFNE01.JPG,AFNE01.JPG,AFNE01.JPG,AFNE01.JPG,AFNE01.JPG,AFNE01.JPG,,,,,,,,,,,,,,,,,1,6,16,1,,,,,,,AFSA19.jpg,AFSA11.jpg,AFNE01.jpg,AFNE11.jpg,AFSA11.jpg,FS,4,num_6,32,num_4,0.933452070924,,,2017_Jul_06_1835,60.0062357921,FEMA4ImagesEEG,001,100824,
AFNE01.JPG,AFNE01.JPG,AFNE01.JPG,AFNE01.JPG,AFNE01.JPG,AFNE01.JPG,,,,,,,,,,,,,,,,,1,7,17,5,,,,,,,AFSA07.jpg,AFNE10.jpg,AFSA04.jpg,AFNE12.jpg,AFSA07.jpg,FS,4,num_8,16,num_8,0.750107607921,,,2017_Jul_06_1835,60.0062357921,FEMA4ImagesEEG,001,100824,
AFNE01.JPG,AFNE01.JPG,AFNE01.JPG,AFNE01.JPG,AFNE01.JPG,AFNE01.JPG,,,,,,,,,,,,,,,,,1,8,18,2,,,,,,,AFNE12.jpg,AFSA07.jpg,AFNE10.jpg,AFSA17.jpg,AFNE12.jpg,FN,3,num_8,32,num_6,0.883523884462,,,2017_Jul_06_1835,60.0062357921,FEMA4ImagesEEG,001,100824,
AFNE01.JPG,AFNE01.JPG,AFNE01.JPG,AFNE01.JPG,AFNE01.JPG,AFNE01.JPG,,,,,,,,,,,,,,,,,1,9,19,3,,,,,,,AFNE04.jpg,AFSA19.jpg,AFSA20.jpg,AFNE10.jpg,AFNE10.jpg,FN,3,num_4,32,num_8,0.683495210367,,,2017_Jul_06_1835,60.0062357921,FEMA4ImagesEEG,001,100824,
AFNE01.JPG,AFNE01.JPG,AFNE01.JPG,AFNE01.JPG,AFNE01.JPG,AFNE01.JPG,,,,,,,,,,,,,,,,,2,0,20,4,,,,,,,AFNE12.jpg,AFNE03.jpg,AFSA04.jpg,AFSA17.jpg,AFNE03.jpg,FN,3,num_6,16,num_6,0.766628883663,,,2017_Jul_06_1835,60.0062357921,FEMA4ImagesEEG,001,100824,
AFNE01.JPG,AFNE01.JPG,AFNE01.JPG,AFNE01.JPG,AFNE01.JPG,AFNE01.JPG,,,,,,,,,,,,,,,,,2,1,21,5,,,,,,,AFNE06.jpg,AFSA15.jpg,AFNE20.jpg,AFSA16.jpg,AFSA15.jpg,FS,4,num_6,16,num_6,0.783538895077,,,2017_Jul_06_1835,60.0062357921,FEMA4ImagesEEG,001,100824,
AFNE01.JPG,AFNE01.JPG,AFNE01.JPG,AFNE01.JPG,AFNE01.JPG,AFNE01.JPG,,,,,,,,,,,,,,,,,2,2,22,1,,,,,,,AFNE19.jpg,AFNE03.jpg,AFSA13.jpg,AFSA19.jpg,AFNE19.jpg,FN,3,num_8,32,num_2,1.16658840631,,,2017_Jul_06_1835,60.0062357921,FEMA4ImagesEEG,001,100824,
AFNE01.JPG,AFNE01.JPG,AFNE01.JPG,AFNE01.JPG,AFNE01.JPG,AFNE01.JPG,,,,,,,,,,,,,,,,,2,3,23,8,,,,,,,AFNE17.jpg,AFNE15.jpg,AFSA17.jpg,AFSA02.jpg,AFNE17.jpg,FN,3,num_8,16,num_8,0.750214734813,,,2017_Jul_06_1835,60.0062357921,FEMA4ImagesEEG,001,100824,
AFNE01.JPG,AFNE01.JPG,AFNE01.JPG,AFNE01.JPG,AFNE01.JPG,AFNE01.JPG,,,,,,,,,,,,,,,,,2,4,24,2,,,,,,,AFNE15.jpg,AFSA12.jpg,AFNE05.jpg,AFSA18.jpg,AFSA18.jpg,FS,4,num_4,16,num_4,1.00015170954,,,2017_Jul_06_1835,60.0062357921,FEMA4ImagesEEG,001,100824,
AFNE01.JPG,AFNE01.JPG,AFNE01.JPG,AFNE01.JPG,AFNE01.JPG,AFNE01.JPG,,,,,,,,,,,,,,,,,2,5,25,6,,,,,,,AFSA16.jpg,AFSA05.jpg,AFNE01.jpg,AFNE20.jpg,AFSA16.jpg,FS,4,num_8,16,num_8,0.833150191233,,,2017_Jul_06_1835,60.0062357921,FEMA4ImagesEEG,001,100824,
AFNE01.JPG,AFNE01.JPG,AFNE01.JPG,AFNE01.JPG,AFNE01.JPG,AFNE01.JPG,,,,,,,,,,,,,,,,,2,6,26,9,,,,,,,AFNE07.jpg,AFSA14.jpg,AFSA05.jpg,AFNE10.jpg,AFSA14.jpg,FS,4,num_6,32,num_8,2.49997466162,,,2017_Jul_06_1835,60.0062357921,FEMA4ImagesEEG,001,100824,
AFNE01.JPG,AFNE01.JPG,AFNE01.JPG,AFNE01.JPG,AFNE01.JPG,AFNE01.JPG,,,,,,,,,,,,,,,,,2,7,27,3,,,,,,,AFSA02.jpg,AFNE17.jpg,AFSA12.jpg,AFNE01.jpg,AFNE17.jpg,FN,3,num_6,16,num_6,0.699994675699,,,2017_Jul_06_1835,60.0062357921,FEMA4ImagesEEG,001,100824,
AFNE01.JPG,AFNE01.JPG,AFNE01.JPG,AFNE01.JPG,AFNE01.JPG,AFNE01.JPG,,,,,,,,,,,,,,,,,2,8,28,7,,,,,,,AFSA08.jpg,AFSA10.jpg,AFNE04.jpg,AFNE08.jpg,AFNE04.jpg,FN,3,num_2,32,num_8,1.06687251711,,,2017_Jul_06_1835,60.0062357921,FEMA4ImagesEEG,001,100824,
AFNE01.JPG,AFNE01.JPG,AFNE01.JPG,AFNE01.JPG,AFNE01.JPG,AFNE01.JPG,,,,,,,,,,,,,,,,,2,9,29,0,,,,,,,AFSA14.jpg,AFSA12.jpg,AFNE15.jpg,AFNE13.jpg,AFSA12.jpg,FS,4,num_6,16,num_6,0.683519265847,,,2017_Jul_06_1835,60.0062357921,FEMA4ImagesEEG,001,100824,
AFNE01.JPG,AFNE01.JPG,AFNE01.JPG,AFNE01.JPG,AFNE01.JPG,AFNE01.JPG,,,,,,,,,,,,,,,,,3,0,30,4,,,,,,,AFSA18.jpg,AFNE10.jpg,AFNE18.jpg,AFSA02.jpg,AFSA02.jpg,FS,4,num_4,32,num_8,0.666772189899,,,2017_Jul_06_1835,60.0062357921,FEMA4ImagesEEG,001,100824,
AFNE01.JPG,AFNE01.JPG,AFNE01.JPG,AFNE01.JPG,AFNE01.JPG,AFNE01.JPG,,,,,,,,,,,,,,,,,3,1,31,2,,,,,,,AFNE15.jpg,AFSA03.jpg,AFSA11.jpg,AFNE02.jpg,AFSA03.jpg,FS,4,num_6,32,num_8,0.766776744393,,,2017_Jul_06_1835,60.0062357921,FEMA4ImagesEEG,001,100824,
AFNE01.JPG,AFNE01.JPG,AFNE01.JPG,AFNE01.JPG,AFNE01.JPG,AFNE01.JPG,,,,,,,,,,,,,,,,,3,2,32,6,,,,,,,AFNE18.jpg,AFNE20.jpg,AFSA10.jpg,AFSA15.jpg,AFNE18.jpg,FN,3,num_8,32,num_6,0.900156456511,,,2017_Jul_06_1835,60.0062357921,FEMA4ImagesEEG,001,100824,
AFNE01.JPG,AFNE01.JPG,AFNE01.JPG,AFNE01.JPG,AFNE01.JPG,AFNE01.JPG,,,,,,,,,,,,,,,,,3,3,33,0,,,,,,,AFSA18.jpg,AFNE04.jpg,AFSA03.jpg,AFNE02.jpg,AFNE02.jpg,FN,3,num_4,32,num_8,3.11657394096,,,2017_Jul_06_1835,60.0062357921,FEMA4ImagesEEG,001,100824,
AFNE01.JPG,AFNE01.JPG,AFNE01.JPG,AFNE01.JPG,AFNE01.JPG,AFNE01.JPG,,,,,,,,,,,,,,,,,3,4,34,1,,,,,,,AFSA04.jpg,AFNE02.jpg,AFNE03.jpg,AFSA12.jpg,AFSA04.jpg,FS,4,num_8,32,num_6,0.783502010047,,,2017_Jul_06_1835,60.0062357921,FEMA4ImagesEEG,001,100824,
AFNE01.JPG,AFNE01.JPG,AFNE01.JPG,AFNE01.JPG,AFNE01.JPG,AFNE01.JPG,,,,,,,,,,,,,,,,,3,5,35,5,,,,,,,AFSA16.jpg,AFSA12.jpg,AFNE14.jpg,AFNE09.jpg,AFSA12.jpg,FS,4,num_6,32,num_8,0.700189364376,,,2017_Jul_06_1835,60.0062357921,FEMA4ImagesEEG,001,100824,
AFNE01.JPG,AFNE01.JPG,AFNE01.JPG,AFNE01.JPG,AFNE01.JPG,AFNE01.JPG,,,,,,,,,,,,,,,,,3,6,36,3,,,,,,,AFNE19.jpg,AFSA10.jpg,AFNE13.jpg,AFSA18.jpg,AFSA10.jpg,FS,4,num_6,32,num_2,0.933428657008,,,2017_Jul_06_1835,60.0062357921,FEMA4ImagesEEG,001,100824,
AFNE01.JPG,AFNE01.JPG,AFNE01.JPG,AFNE01.JPG,AFNE01.JPG,AFNE01.JPG,,,,,,,,,,,,,,,,,3,7,37,7,,,,,,,AFSA20.jpg,AFNE04.jpg,AFNE12.jpg,AFSA09.jpg,AFNE12.jpg,FN,3,num_2,32,num_6,0.933481899672,,,2017_Jul_06_1835,60.0062357921,FEMA4ImagesEEG,001,100824,
AFNE01.JPG,AFNE01.JPG,AFNE01.JPG,AFNE01.JPG,AFNE01.JPG,AFNE01.JPG,,,,,,,,,,,,,,,,,3,8,38,9,,,,,,,AFNE08.jpg,AFSA14.jpg,AFNE10.jpg,AFSA03.jpg,AFNE08.jpg,FN,3,num_8,16,num_8,1.08345280867,,,2017_Jul_06_1835,60.0062357921,FEMA4ImagesEEG,001,100824,
AFNE01.JPG,AFNE01.JPG,AFNE01.JPG,AFNE01.JPG,AFNE01.JPG,AFNE01.JPG,,,,,,,,,,,,,,,,,3,9,39,8,,,,,,,AFNE12.jpg,AFSA16.jpg,AFSA05.jpg,AFNE02.jpg,AFNE02.jpg,FN,3,num_4,32,num_6,0.983446008991,,,2017_Jul_06_1835,60.0062357921,FEMA4ImagesEEG,001,100824,
AFNE01.JPG,AFNE01.JPG,AFNE01.JPG,AFNE01.JPG,AFNE01.JPG,AFNE01.JPG,,,,,,,,,,,,,,,,,4,0,40,8,,,,,,,AFSA08.jpg,AFSA05.jpg,AFNE07.jpg,AFNE04.jpg,AFSA08.jpg,FS,4,num_8,16,num_8,2.36665268242,,,2017_Jul_06_1835,60.0062357921,FEMA4ImagesEEG,001,100824,
AFNE01.JPG,AFNE01.JPG,AFNE01.JPG,AFNE01.JPG,AFNE01.JPG,AFNE01.JPG,,,,,,,,,,,,,,,,,4,1,41,3,,,,,,,AFNE11.jpg,AFNE16.jpg,AFSA07.jpg,AFSA03.jpg,AFSA07.jpg,FS,4,num_2,32,num_6,0.833494985942,,,2017_Jul_06_1835,60.0062357921,FEMA4ImagesEEG,001,100824,
AFNE01.JPG,AFNE01.JPG,AFNE01.JPG,AFNE01.JPG,AFNE01.JPG,AFNE01.JPG,,,,,,,,,,,,,,,,,4,2,42,1,,,,,,,AFNE17.jpg,AFSA18.jpg,AFNE07.jpg,AFSA14.jpg,AFSA18.jpg,FS,4,num_6,32,num_8,0.850131727639,,,2017_Jul_06_1835,60.0062357921,FEMA4ImagesEEG,001,100824,
AFNE01.JPG,AFNE01.JPG,AFNE01.JPG,AFNE01.JPG,AFNE01.JPG,AFNE01.JPG,,,,,,,,,,,,,,,,,4,3,43,6,,,,,,,AFSA20.jpg,AFNE04.jpg,AFSA10.jpg,AFNE06.jpg,AFSA10.jpg,FS,4,num_2,16,num_2,0.95010773628,,,2017_Jul_06_1835,60.0062357921,FEMA4ImagesEEG,001,100824,
AFNE01.JPG,AFNE01.JPG,AFNE01.JPG,AFNE01.JPG,AFNE01.JPG,AFNE01.JPG,,,,,,,,,,,,,,,,,4,4,44,0,,,,,,,AFNE14.jpg,AFSA19.jpg,AFSA17.jpg,AFNE07.jpg,AFNE14.jpg,FN,3,num_8,16,num_8,1.01675798104,,,2017_Jul_06_1835,60.0062357921,FEMA4ImagesEEG,001,100824,
AFNE01.JPG,AFNE01.JPG,AFNE01.JPG,AFNE01.JPG,AFNE01.JPG,AFNE01.JPG,,,,,,,,,,,,,,,,,4,5,45,7,,,,,,,AFNE03.jpg,AFSA14.jpg,AFSA09.jpg,AFNE20.jpg,AFSA14.jpg,FS,4,num_6,32,num_4,1.40008204512,,,2017_Jul_06_1835,60.0062357921,FEMA4ImagesEEG,001,100824,
AFNE01.JPG,AFNE01.JPG,AFNE01.JPG,AFNE01.JPG,AFNE01.JPG,AFNE01.JPG,,,,,,,,,,,,,,,,,4,6,46,9,,,,,,,AFSA06.jpg,AFNE19.jpg,AFSA16.jpg,AFNE07.jpg,AFNE07.jpg,FN,3,num_4,16,num_4,0.700093784137,,,2017_Jul_06_1835,60.0062357921,FEMA4ImagesEEG,001,100824,
AFNE01.JPG,AFNE01.JPG,AFNE01.JPG,AFNE01.JPG,AFNE01.JPG,AFNE01.JPG,,,,,,,,,,,,,,,,,4,7,47,5,,,,,,,AFNE17.jpg,AFSA12.jpg,AFSA09.jpg,AFNE03.jpg,AFNE17.jpg,FN,3,num_8,16,num_8,0.766629525111,,,2017_Jul_06_1835,60.0062357921,FEMA4ImagesEEG,001,100824,
AFNE01.JPG,AFNE01.JPG,AFNE01.JPG,AFNE01.JPG,AFNE01.JPG,AFNE01.JPG,,,,,,,,,,,,,,,,,4,8,48,2,,,,,,,AFSA07.jpg,AFNE19.jpg,AFSA13.jpg,AFNE11.jpg,AFSA13.jpg,FS,4,num_2,32,num_8,1.58341399918,,,2017_Jul_06_1835,60.0062357921,FEMA4ImagesEEG,001,100824,
AFNE01.JPG,AFNE01.JPG,AFNE01.JPG,AFNE01.JPG,AFNE01.JPG,AFNE01.JPG,,,,,,,,,,,,,,,,,4,9,49,4,,,,,,,AFSA07.jpg,AFNE05.jpg,AFSA09.jpg,AFNE08.jpg,AFSA09.jpg,FS,4,num_2,32,num_8,1.26677417848,,,2017_Jul_06_1835,60.0062357921,FEMA4ImagesEEG,001,100824,
AFNE01.JPG,AFNE01.JPG,AFNE01.JPG,AFNE01.JPG,AFNE01.JPG,AFNE01.JPG,,,,,,,,,,,,,,,,,5,0,50,3,,,,,,,AFSA03.jpg,AFSA09.jpg,AFNE18.jpg,AFNE13.jpg,AFSA09.jpg,FS,4,num_6,32,num_4,0.683461532812,,,2017_Jul_06_1835,60.0062357921,FEMA4ImagesEEG,001,100824,
AFNE01.JPG,AFNE01.JPG,AFNE01.JPG,AFNE01.JPG,AFNE01.JPG,AFNE01.JPG,,,,,,,,,,,,,,,,,5,1,51,1,,,,,,,AFSA10.jpg,AFNE18.jpg,AFSA19.jpg,AFNE05.jpg,AFSA19.jpg,FS,4,num_2,32,num_8,0.750112098292,,,2017_Jul_06_1835,60.0062357921,FEMA4ImagesEEG,001,100824,
AFNE01.JPG,AFNE01.JPG,AFNE01.JPG,AFNE01.JPG,AFNE01.JPG,AFNE01.JPG,,,,,,,,,,,,,,,,,5,2,52,6,,,,,,,AFSA19.jpg,AFNE17.jpg,AFNE03.jpg,AFSA01.jpg,AFSA01.jpg,FS,4,num_4,32,num_6,1.25012556941,,,2017_Jul_06_1835,60.0062357921,FEMA4ImagesEEG,001,100824,
AFNE01.JPG,AFNE01.JPG,AFNE01.JPG,AFNE01.JPG,AFNE01.JPG,AFNE01.JPG,,,,,,,,,,,,,,,,,5,3,53,9,,,,,,,AFNE09.jpg,AFSA14.jpg,AFNE10.jpg,AFSA17.jpg,AFNE10.jpg,FN,3,num_2,16,num_2,0.750114022754,,,2017_Jul_06_1835,60.0062357921,FEMA4ImagesEEG,001,100824,
AFNE01.JPG,AFNE01.JPG,AFNE01.JPG,AFNE01.JPG,AFNE01.JPG,AFNE01.JPG,,,,,,,,,,,,,,,,,5,4,54,0,,,,,,,AFNE02.jpg,AFSA16.jpg,AFNE13.jpg,AFSA01.jpg,AFSA01.jpg,FS,4,num_4,32,num_6,1.55008631083,,,2017_Jul_06_1835,60.0062357921,FEMA4ImagesEEG,001,100824,
AFNE01.JPG,AFNE01.JPG,AFNE01.JPG,AFNE01.JPG,AFNE01.JPG,AFNE01.JPG,,,,,,,,,,,,,,,,,5,5,55,5,,,,,,,AFSA15.jpg,AFSA11.jpg,AFNE03.jpg,AFNE11.jpg,AFSA15.jpg,FS,4,num_8,16,num_8,0.933452391764,,,2017_Jul_06_1835,60.0062357921,FEMA4ImagesEEG,001,100824,
AFNE01.JPG,AFNE01.JPG,AFNE01.JPG,AFNE01.JPG,AFNE01.JPG,AFNE01.JPG,,,,,,,,,,,,,,,,,5,6,56,7,,,,,,,AFSA05.jpg,AFNE01.jpg,AFNE14.jpg,AFSA04.jpg,AFNE01.jpg,FN,3,num_6,32,num_2,0.883513300098,,,2017_Jul_06_1835,60.0062357921,FEMA4ImagesEEG,001,100824,
AFNE01.JPG,AFNE01.JPG,AFNE01.JPG,AFNE01.JPG,AFNE01.JPG,AFNE01.JPG,,,,,,,,,,,,,,,,,5,7,57,8,,,,,,,AFSA04.jpg,AFNE14.jpg,AFSA10.jpg,AFNE02.jpg,AFSA04.jpg,FS,4,num_8,32,num_6,2.39970293129,,,2017_Jul_06_1835,60.0062357921,FEMA4ImagesEEG,001,100824,
AFNE01.JPG,AFNE01.JPG,AFNE01.JPG,AFNE01.JPG,AFNE01.JPG,AFNE01.JPG,,,,,,,,,,,,,,,,,5,8,58,4,,,,,,,AFNE14.jpg,AFNE03.jpg,AFSA05.jpg,AFSA20.jpg,AFSA20.jpg,FS,4,num_4,32,num_2,2.5166903052,,,2017_Jul_06_1835,60.0062357921,FEMA4ImagesEEG,001,100824,
AFNE01.JPG,AFNE01.JPG,AFNE01.JPG,AFNE01.JPG,AFNE01.JPG,AFNE01.JPG,,,,,,,,,,,,,,,,,5,9,59,2,,,,,,,AFSA16.jpg,AFSA07.jpg,AFNE06.jpg,AFNE05.jpg,AFNE06.jpg,FN,3,num_2,32,num_6,0.900105138309,,,2017_Jul_06_1835,60.0062357921,FEMA4ImagesEEG,001,100824,
,,,,,,,,,,,,,,,,,,,,,,,,,,,,,,,,,,,,,,,,,,,space,9.14976082486,2017_Jul_06_1835,60.0062357921,FEMA4ImagesEEG,001,100824,
AFNE01.JPG,AFNE01.JPG,AFNE01.JPG,AFNE01.JPG,AFNE01.JPG,AFNE01.JPG,,,,,,,,,,,,,,,,,,,,,0,0,0,6,,,AMSA05.jpg,AMSA12.jpg,AMNE20.jpg,AMNE01.jpg,AMNE20.jpg,MN,1,num_2,32,num_6,0.716771580395,,,2017_Jul_06_1835,60.0062357921,FEMA4ImagesEEG,001,100824,
AFNE01.JPG,AFNE01.JPG,AFNE01.JPG,AFNE01.JPG,AFNE01.JPG,AFNE01.JPG,,,,,,,,,,,,,,,,,,,,,0,1,1,3,,,AMNE15.jpg,AMSA17.jpg,AMNE11.jpg,AMSA09.jpg,AMNE15.jpg,MN,1,num_8,16,num_8,0.300160241313,,,2017_Jul_06_1835,60.0062357921,FEMA4ImagesEEG,001,100824,
AFNE01.JPG,AFNE01.JPG,AFNE01.JPG,AFNE01.JPG,AFNE01.JPG,AFNE01.JPG,,,,,,,,,,,,,,,,,,,,,0,2,2,7,,,AMSA04.jpg,AMNE16.jpg,AMNE14.jpg,AMSA05.jpg,AMSA05.jpg,MS,2,num_4,16,num_4,0.666697136825,,,2017_Jul_06_1835,60.0062357921,FEMA4ImagesEEG,001,100824,
AFNE01.JPG,AFNE01.JPG,AFNE01.JPG,AFNE01.JPG,AFNE01.JPG,AFNE01.JPG,,,,,,,,,,,,,,,,,,,,,0,3,3,4,,,AMNE08.jpg,AMSA14.jpg,AMSA06.jpg,AMNE18.jpg,AMNE18.jpg,MN,1,num_4,32,num_2,0.883327912772,,,2017_Jul_06_1835,60.0062357921,FEMA4ImagesEEG,001,100824,
AFNE01.JPG,AFNE01.JPG,AFNE01.JPG,AFNE01.JPG,AFNE01.JPG,AFNE01.JPG,,,,,,,,,,,,,,,,,,,,,0,4,4,8,,,AMNE01.jpg,AMSA11.jpg,AMNE16.jpg,AMSA15.jpg,AMNE01.jpg,MN,1,num_8,16,num_8,0.783471219125,,,2017_Jul_06_1835,60.0062357921,FEMA4ImagesEEG,001,100824,
AFNE01.JPG,AFNE01.JPG,AFNE01.JPG,AFNE01.JPG,AFNE01.JPG,AFNE01.JPG,,,,,,,,,,,,,,,,,,,,,0,5,5,0,,,AMSA03.jpg,AMNE15.jpg,AMNE09.jpg,AMSA13.jpg,AMSA03.jpg,MS,2,num_8,32,num_2,0.966744798701,,,2017_Jul_06_1835,60.0062357921,FEMA4ImagesEEG,001,100824,
AFNE01.JPG,AFNE01.JPG,AFNE01.JPG,AFNE01.JPG,AFNE01.JPG,AFNE01.JPG,,,,,,,,,,,,,,,,,,,,,0,6,6,5,,,AMSA06.jpg,AMNE11.jpg,AMNE20.jpg,AMSA20.jpg,AMSA20.jpg,MS,2,num_4,16,num_4,1.28313380154,,,2017_Jul_06_1835,60.0062357921,FEMA4ImagesEEG,001,100824,
AFNE01.JPG,AFNE01.JPG,AFNE01.JPG,AFNE01.JPG,AFNE01.JPG,AFNE01.JPG,,,,,,,,,,,,,,,,,,,,,0,7,7,1,,,AMNE05.jpg,AMSA14.jpg,AMSA01.jpg,AMNE13.jpg,AMSA01.jpg,MS,2,num_2,16,num_2,0.916748294723,,,2017_Jul_06_1835,60.0062357921,FEMA4ImagesEEG,001,100824,
AFNE01.JPG,AFNE01.JPG,AFNE01.JPG,AFNE01.JPG,AFNE01.JPG,AFNE01.JPG,,,,,,,,,,,,,,,,,,,,,0,8,8,9,,,AMNE16.jpg,AMSA09.jpg,AMNE19.jpg,AMSA04.jpg,AMSA09.jpg,MS,2,num_6,32,num_8,0.816837075399,,,2017_Jul_06_1835,60.0062357921,FEMA4ImagesEEG,001,100824,
AFNE01.JPG,AFNE01.JPG,AFNE01.JPG,AFNE01.JPG,AFNE01.JPG,AFNE01.JPG,,,,,,,,,,,,,,,,,,,,,0,9,9,2,,,AMSA18.jpg,AMNE10.jpg,AMNE06.jpg,AMSA05.jpg,AMSA05.jpg,MS,2,num_4,32,num_2,0.950093944557,,,2017_Jul_06_1835,60.0062357921,FEMA4ImagesEEG,001,100824,
AFNE01.JPG,AFNE01.JPG,AFNE01.JPG,AFNE01.JPG,AFNE01.JPG,AFNE01.JPG,,,,,,,,,,,,,,,,,,,,,1,0,10,2,,,AMNE03.jpg,AMSA18.jpg,AMNE15.jpg,AMSA10.jpg,AMSA10.jpg,MS,2,num_4,32,num_6,0.783489180496,,,2017_Jul_06_1835,60.0062357921,FEMA4ImagesEEG,001,100824,
AFNE01.JPG,AFNE01.JPG,AFNE01.JPG,AFNE01.JPG,AFNE01.JPG,AFNE01.JPG,,,,,,,,,,,,,,,,,,,,,1,1,11,7,,,AMSA02.jpg,AMSA11.jpg,AMNE02.jpg,AMNE07.jpg,AMNE07.jpg,MN,1,num_4,32,num_8,1.33342346107,,,2017_Jul_06_1835,60.0062357921,FEMA4ImagesEEG,001,100824,
AFNE01.JPG,AFNE01.JPG,AFNE01.JPG,AFNE01.JPG,AFNE01.JPG,AFNE01.JPG,,,,,,,,,,,,,,,,,,,,,1,2,12,6,,,AMSA20.jpg,AMNE12.jpg,AMSA17.jpg,AMNE03.jpg,AMNE12.jpg,MN,1,num_6,32,num_4,1.96666333091,,,2017_Jul_06_1835,60.0062357921,FEMA4ImagesEEG,001,100824,
AFNE01.JPG,AFNE01.JPG,AFNE01.JPG,AFNE01.JPG,AFNE01.JPG,AFNE01.JPG,,,,,,,,,,,,,,,,,,,,,1,3,13,0,,,AMNE19.jpg,AMNE07.jpg,AMSA07.jpg,AMSA08.jpg,AMSA08.jpg,MS,2,num_4,32,num_8,1.10007832455,,,2017_Jul_06_1835,60.0062357921,FEMA4ImagesEEG,001,100824,
AFNE01.JPG,AFNE01.JPG,AFNE01.JPG,AFNE01.JPG,AFNE01.JPG,AFNE01.JPG,,,,,,,,,,,,,,,,,,,,,1,4,14,9,,,AMSA18.jpg,AMSA08.jpg,AMNE03.jpg,AMNE20.jpg,AMNE20.jpg,MN,1,num_4,16,num_4,0.933426732663,,,2017_Jul_06_1835,60.0062357921,FEMA4ImagesEEG,001,100824,
AFNE01.JPG,AFNE01.JPG,AFNE01.JPG,AFNE01.JPG,AFNE01.JPG,AFNE01.JPG,,,,,,,,,,,,,,,,,,,,,1,5,15,1,,,AMSA15.jpg,AMSA13.jpg,AMNE09.jpg,AMNE15.jpg,AMSA15.jpg,MS,2,num_8,16,num_8,1.1834163086,,,2017_Jul_06_1835,60.0062357921,FEMA4ImagesEEG,001,100824,
AFNE01.JPG,AFNE01.JPG,AFNE01.JPG,AFNE01.JPG,AFNE01.JPG,AFNE01.JPG,,,,,,,,,,,,,,,,,,,,,1,6,16,8,,,AMSA06.jpg,AMNE01.jpg,AMSA02.jpg,AMNE19.jpg,AMSA02.jpg,MS,2,num_2,32,num_6,0.66678245354,,,2017_Jul_06_1835,60.0062357921,FEMA4ImagesEEG,001,100824,
AFNE01.JPG,AFNE01.JPG,AFNE01.JPG,AFNE01.JPG,AFNE01.JPG,AFNE01.JPG,,,,,,,,,,,,,,,,,,,,,1,7,17,5,,,AMSA02.jpg,AMNE07.jpg,AMNE05.jpg,AMSA13.jpg,AMNE05.jpg,MN,1,num_2,16,num_2,0.582992548007,,,2017_Jul_06_1835,60.0062357921,FEMA4ImagesEEG,001,100824,
AFNE01.JPG,AFNE01.JPG,AFNE01.JPG,AFNE01.JPG,AFNE01.JPG,AFNE01.JPG,,,,,,,,,,,,,,,,,,,,,1,8,18,3,,,AMNE08.jpg,AMSA09.jpg,AMNE16.jpg,AMSA11.jpg,AMSA09.jpg,MS,2,num_6,32,num_8,2.30001687084,,,2017_Jul_06_1835,60.0062357921,FEMA4ImagesEEG,001,100824,
AFNE01.JPG,AFNE01.JPG,AFNE01.JPG,AFNE01.JPG,AFNE01.JPG,AFNE01.JPG,,,,,,,,,,,,,,,,,,,,,1,9,19,4,,,AMNE09.jpg,AMSA01.jpg,AMNE06.jpg,AMSA16.jpg,AMNE09.jpg,MN,1,num_8,32,num_4,0.900103855296,,,2017_Jul_06_1835,60.0062357921,FEMA4ImagesEEG,001,100824,
AFNE01.JPG,AFNE01.JPG,AFNE01.JPG,AFNE01.JPG,AFNE01.JPG,AFNE01.JPG,,,,,,,,,,,,,,,,,,,,,2,0,20,8,,,AMNE01.jpg,AMSA15.jpg,AMSA10.jpg,AMNE09.jpg,AMNE01.jpg,MN,1,num_8,16,num_8,4.1998532298,,,2017_Jul_06_1835,60.0062357921,FEMA4ImagesEEG,001,100824,
AFNE01.JPG,AFNE01.JPG,AFNE01.JPG,AFNE01.JPG,AFNE01.JPG,AFNE01.JPG,,,,,,,,,,,,,,,,,,,,,2,1,21,2,,,AMSA03.jpg,AMNE11.jpg,AMNE06.jpg,AMSA19.jpg,AMSA19.jpg,MS,2,num_4,16,num_4,0.950125056203,,,2017_Jul_06_1835,60.0062357921,FEMA4ImagesEEG,001,100824,
AFNE01.JPG,AFNE01.JPG,AFNE01.JPG,AFNE01.JPG,AFNE01.JPG,AFNE01.JPG,,,,,,,,,,,,,,,,,,,,,2,2,22,7,,,AMNE02.jpg,AMSA15.jpg,AMSA14.jpg,AMNE05.jpg,AMNE05.jpg,MN,1,num_4,16,num_4,0.833440780872,,,2017_Jul_06_1835,60.0062357921,FEMA4ImagesEEG,001,100824,
AFNE01.JPG,AFNE01.JPG,AFNE01.JPG,AFNE01.JPG,AFNE01.JPG,AFNE01.JPG,,,,,,,,,,,,,,,,,,,,,2,3,23,9,,,AMSA01.jpg,AMNE17.jpg,AMNE16.jpg,AMSA06.jpg,AMSA01.jpg,MS,2,num_8,32,num_2,1.06674069329,,,2017_Jul_06_1835,60.0062357921,FEMA4ImagesEEG,001,100824,
AFNE01.JPG,AFNE01.JPG,AFNE01.JPG,AFNE01.JPG,AFNE01.JPG,AFNE01.JPG,,,,,,,,,,,,,,,,,,,,,2,4,24,5,,,AMNE04.jpg,AMNE01.jpg,AMSA06.jpg,AMSA11.jpg,AMNE04.jpg,MN,1,num_8,16,num_8,1.01674803824,,,2017_Jul_06_1835,60.0062357921,FEMA4ImagesEEG,001,100824,
AFNE01.JPG,AFNE01.JPG,AFNE01.JPG,AFNE01.JPG,AFNE01.JPG,AFNE01.JPG,,,,,,,,,,,,,,,,,,,,,2,5,25,6,,,AMNE15.jpg,AMSA15.jpg,AMSA05.jpg,AMNE06.jpg,AMNE06.jpg,MN,1,num_4,16,num_4,0.900113798212,,,2017_Jul_06_1835,60.0062357921,FEMA4ImagesEEG,001,100824,
AFNE01.JPG,AFNE01.JPG,AFNE01.JPG,AFNE01.JPG,AFNE01.JPG,AFNE01.JPG,,,,,,,,,,,,,,,,,,,,,2,6,26,4,,,AMNE06.jpg,AMSA06.jpg,AMSA20.jpg,AMNE03.jpg,AMNE06.jpg,MN,1,num_8,16,num_8,0.650135127362,,,2017_Jul_06_1835,60.0062357921,FEMA4ImagesEEG,001,100824,
AFNE01.JPG,AFNE01.JPG,AFNE01.JPG,AFNE01.JPG,AFNE01.JPG,AFNE01.JPG,,,,,,,,,,,,,,,,,,,,,2,7,27,0,,,AMNE13.jpg,AMNE16.jpg,AMSA19.jpg,AMSA10.jpg,AMSA19.jpg,MS,2,num_2,16,num_2,3.73360910488,,,2017_Jul_06_1835,60.0062357921,FEMA4ImagesEEG,001,100824,
AFNE01.JPG,AFNE01.JPG,AFNE01.JPG,AFNE01.JPG,AFNE01.JPG,AFNE01.JPG,,,,,,,,,,,,,,,,,,,,,2,8,28,3,,,AMNE09.jpg,AMNE12.jpg,AMSA18.jpg,AMSA17.jpg,AMSA18.jpg,MS,2,num_2,32,num_8,1.13342557789,,,2017_Jul_06_1835,60.0062357921,FEMA4ImagesEEG,001,100824,
AFNE01.JPG,AFNE01.JPG,AFNE01.JPG,AFNE01.JPG,AFNE01.JPG,AFNE01.JPG,,,,,,,,,,,,,,,,,,,,,2,9,29,1,,,AMNE19.jpg,AMSA05.jpg,AMNE03.jpg,AMSA02.jpg,AMNE03.jpg,MN,1,num_2,32,num_6,1.56672786374,,,2017_Jul_06_1835,60.0062357921,FEMA4ImagesEEG,001,100824,
AFNE01.JPG,AFNE01.JPG,AFNE01.JPG,AFNE01.JPG,AFNE01.JPG,AFNE01.JPG,,,,,,,,,,,,,,,,,,,,,3,0,30,8,,,AMNE03.jpg,AMSA19.jpg,AMSA15.jpg,AMNE08.jpg,AMSA15.jpg,MS,2,num_2,32,num_8,0.733331986237,,,2017_Jul_06_1835,60.0062357921,FEMA4ImagesEEG,001,100824,
AFNE01.JPG,AFNE01.JPG,AFNE01.JPG,AFNE01.JPG,AFNE01.JPG,AFNE01.JPG,,,,,,,,,,,,,,,,,,,,,3,1,31,0,,,AMSA05.jpg,AMNE09.jpg,AMSA11.jpg,AMNE11.jpg,AMSA11.jpg,MS,2,num_2,16,num_2,0.800120469532,,,2017_Jul_06_1835,60.0062357921,FEMA4ImagesEEG,001,100824,
AFNE01.JPG,AFNE01.JPG,AFNE01.JPG,AFNE01.JPG,AFNE01.JPG,AFNE01.JPG,,,,,,,,,,,,,,,,,,,,,3,2,32,9,,,AMNE11.jpg,AMNE15.jpg,AMSA10.jpg,AMSA16.jpg,AMSA16.jpg,MS,2,num_4,16,num_4,0.933466183487,,,2017_Jul_06_1835,60.0062357921,FEMA4ImagesEEG,001,100824,
AFNE01.JPG,AFNE01.JPG,AFNE01.JPG,AFNE01.JPG,AFNE01.JPG,AFNE01.JPG,,,,,,,,,,,,,,,,,,,,,3,3,33,3,,,AMNE19.jpg,AMNE04.jpg,AMSA08.jpg,AMSA05.jpg,AMSA08.jpg,MS,2,num_2,32,num_8,1.46674255352,,,2017_Jul_06_1835,60.0062357921,FEMA4ImagesEEG,001,100824,
AFNE01.JPG,AFNE01.JPG,AFNE01.JPG,AFNE01.JPG,AFNE01.JPG,AFNE01.JPG,,,,,,,,,,,,,,,,,,,,,3,4,34,1,,,AMNE14.jpg,AMSA15.jpg,AMSA08.jpg,AMNE18.jpg,AMNE18.jpg,MN,1,num_4,32,num_6,0.750112098409,,,2017_Jul_06_1835,60.0062357921,FEMA4ImagesEEG,001,100824,
AFNE01.JPG,AFNE01.JPG,AFNE01.JPG,AFNE01.JPG,AFNE01.JPG,AFNE01.JPG,,,,,,,,,,,,,,,,,,,,,3,5,35,6,,,AMNE19.jpg,AMSA14.jpg,AMSA09.jpg,AMNE12.jpg,AMSA14.jpg,MS,2,num_6,16,num_6,0.6334878013,,,2017_Jul_06_1835,60.0062357921,FEMA4ImagesEEG,001,100824,
AFNE01.JPG,AFNE01.JPG,AFNE01.JPG,AFNE01.JPG,AFNE01.JPG,AFNE01.JPG,,,,,,,,,,,,,,,,,,,,,3,6,36,4,,,AMSA15.jpg,AMNE20.jpg,AMSA20.jpg,AMNE04.jpg,AMSA15.jpg,MS,2,num_8,16,num_8,0.966788098565,,,2017_Jul_06_1835,60.0062357921,FEMA4ImagesEEG,001,100824,
AFNE01.JPG,AFNE01.JPG,AFNE01.JPG,AFNE01.JPG,AFNE01.JPG,AFNE01.JPG,,,,,,,,,,,,,,,,,,,,,3,7,37,2,,,AMSA14.jpg,AMNE09.jpg,AMNE01.jpg,AMSA20.jpg,AMSA20.jpg,MS,2,num_4,16,num_4,1.08339956601,,,2017_Jul_06_1835,60.0062357921,FEMA4ImagesEEG,001,100824,
AFNE01.JPG,AFNE01.JPG,AFNE01.JPG,AFNE01.JPG,AFNE01.JPG,AFNE01.JPG,,,,,,,,,,,,,,,,,,,,,3,8,38,7,,,AMSA20.jpg,AMSA04.jpg,AMNE06.jpg,AMNE07.jpg,AMNE06.jpg,MN,1,num_2,32,num_8,1.55007027404,,,2017_Jul_06_1835,60.0062357921,FEMA4ImagesEEG,001,100824,
AFNE01.JPG,AFNE01.JPG,AFNE01.JPG,AFNE01.JPG,AFNE01.JPG,AFNE01.JPG,,,,,,,,,,,,,,,,,,,,,3,9,39,5,,,AMNE08.jpg,AMSA16.jpg,AMNE07.jpg,AMSA04.jpg,AMNE08.jpg,MN,1,num_8,32,num_2,0.783449729555,,,2017_Jul_06_1835,60.0062357921,FEMA4ImagesEEG,001,100824,
