IPosition2,IPosition3,IPosition1,IPosition6,IPosition4,IPosition5,TrialsM1.thisRepN,TrialsM1.thisTrialN,TrialsM1.thisN,TrialsM1.thisIndex,TrialsF1.thisRepN,TrialsF1.thisTrialN,TrialsF1.thisN,TrialsF1.thisIndex,TrialsM2.thisRepN,TrialsM2.thisTrialN,TrialsM2.thisN,TrialsM2.thisIndex,TrialsF2.thisRepN,TrialsF2.thisTrialN,TrialsF2.thisN,TrialsF2.thisIndex,TrialsM3.thisRepN,TrialsM3.thisTrialN,TrialsM3.thisN,TrialsM3.thisIndex,TrialsF3.thisRepN,TrialsF3.thisTrialN,TrialsF3.thisN,TrialsF3.thisIndex,InstrKey_resp.keys,InstrKey_resp.rt,Image0 _Position,Image1 _Position,Image2 _Position,Image3 _Position,Center_image,condition,code,correct_answer,accuracy,Key_Resp.keys,Key_Resp.rt,BreakKey_resp.keys,BreakKey_resp.rt,date,frameRate,expName,session,participant,
,,,,,,,,,,,,,,,,,,,,,,,,,,,,,,space,13.4661420864,,,,,,,,,,,,,,2017_Jun_26_1135,59.997382879,MAFE4ImagesEEG,001,100844,
AFSA21.JPG,AFNE23.JPG,AFNE21.JPG,AFSA25.JPG,AFNE25.JPG,AFSA23.JPG,0,0,0,4,,,,,,,,,,,,,,,,,,,,,,,AMNE02.jpg,AMSA15.jpg,AMNE04.jpg,AMSA02.jpg,AMSA02.jpg,MS,2,num_4,32,num_6,2.24997835008,,,2017_Jun_26_1135,59.997382879,MAFE4ImagesEEG,001,100844,
AMSA21.JPG,AMNE23.JPG,AMNE21.JPG,AMSA25.JPG,AMNE25.JPG,AMSA23.JPG,0,1,1,5,,,,,,,,,,,,,,,,,,,,,,,AMSA12.jpg,AMNE11.jpg,AMNE07.jpg,AMSA13.jpg,AMSA12.jpg,MS,2,num_8,16,num_8,1.23329347609,,,2017_Jun_26_1135,59.997382879,MAFE4ImagesEEG,001,100844,
AMNE22.JPG,AMSA24.JPG,AMSA22.JPG,AMNE25.JPG,AMNE24.JPG,AMSA25.JPG,0,2,2,7,,,,,,,,,,,,,,,,,,,,,,,AMNE03.jpg,AMSA16.jpg,AMNE02.jpg,AMSA03.jpg,AMNE02.jpg,MN,1,num_2,16,num_2,1.00012540918,,,2017_Jun_26_1135,59.997382879,MAFE4ImagesEEG,001,100844,
AFSA25.JPG,AFNE24.JPG,AFSA24.JPG,AFNE21.JPG,AFSA21.JPG,AFNE25.JPG,0,3,3,2,,,,,,,,,,,,,,,,,,,,,,,AMSA16.jpg,AMSA19.jpg,AMNE06.jpg,AMNE19.jpg,AMSA16.jpg,MS,2,num_8,16,num_8,1.45007014575,,,2017_Jun_26_1135,59.997382879,MAFE4ImagesEEG,001,100844,
AFNE22.JPG,AFSA24.JPG,AFSA22.JPG,AFNE25.JPG,AFNE24.JPG,AFSA25.JPG,0,4,4,6,,,,,,,,,,,,,,,,,,,,,,,AMSA08.jpg,AMNE08.jpg,AMSA07.jpg,AMNE06.jpg,AMNE06.jpg,MN,1,num_4,16,num_4,1.16660305331,,,2017_Jun_26_1135,59.997382879,MAFE4ImagesEEG,001,100844,
AMSA25.JPG,AMNE24.JPG,AMSA24.JPG,AMNE26.JPG,AMSA21.JPG,AMNE25.JPG,0,5,5,3,,,,,,,,,,,,,,,,,,,,,,,AMNE02.jpg,AMNE18.jpg,AMSA13.jpg,AMSA18.jpg,AMSA13.jpg,MS,2,num_2,32,num_4,1.06672474192,,,2017_Jun_26_1135,59.997382879,MAFE4ImagesEEG,001,100844,
AMSA21.JPG,AMNE22.JPG,AMNE21.JPG,AMSA23.JPG,AMSA22.JPG,AMNE23.JPG,0,6,6,1,,,,,,,,,,,,,,,,,,,,,,,AMSA19.jpg,AMSA06.jpg,AMNE11.jpg,AMNE10.jpg,AMNE11.jpg,MN,1,num_2,32,num_8,1.23311674857,,,2017_Jun_26_1135,59.997382879,MAFE4ImagesEEG,001,100844,
AMNE23.JPG,AMNE24.JPG,AMNE22.JPG,AMSA24.JPG,AMSA22.JPG,AMSA23.JPG,0,7,7,9,,,,,,,,,,,,,,,,,,,,,,,AMNE05.jpg,AMNE08.jpg,AMSA20.jpg,AMSA15.jpg,AMSA20.jpg,MS,2,num_2,32,num_6,1.80001052026,,,2017_Jun_26_1135,59.997382879,MAFE4ImagesEEG,001,100844,
AFSA21.JPG,AFNE22.JPG,AFNE21.JPG,AFSA23.JPG,AFSA22.JPG,AFNE23.JPG,0,8,8,0,,,,,,,,,,,,,,,,,,,,,,,AMSA05.jpg,AMSA17.jpg,AMNE06.jpg,AMNE01.jpg,AMSA05.jpg,MS,2,num_8,16,num_8,0.9667514916,,,2017_Jun_26_1135,59.997382879,MAFE4ImagesEEG,001,100844,
AFNE23.JPG,AFNE24.JPG,AFNE22.JPG,AFSA24.JPG,AFSA22.JPG,AFSA23.JPG,0,9,9,8,,,,,,,,,,,,,,,,,,,,,,,AMSA03.jpg,AMNE16.jpg,AMSA07.jpg,AMNE10.jpg,AMSA07.jpg,MS,2,num_2,16,num_2,0.983406536801,,,2017_Jun_26_1135,59.997382879,MAFE4ImagesEEG,001,100844,
AMNE23.JPG,AMNE24.JPG,AMNE22.JPG,AMSA24.JPG,AMSA22.JPG,AMSA23.JPG,,,,,0,0,0,9,,,,,,,,,,,,,,,,,,,AFSA08.jpg,AFSA16.jpg,AFNE01.jpg,AFNE19.jpg,AFSA16.jpg,FS,4,num_6,16,num_6,1.16672653806,,,2017_Jun_26_1135,59.997382879,MAFE4ImagesEEG,001,100844,
AMSA21.JPG,AMNE23.JPG,AMNE21.JPG,AMSA25.JPG,AMNE25.JPG,AMSA23.JPG,,,,,0,1,1,5,,,,,,,,,,,,,,,,,,,AFNE15.jpg,AFSA18.jpg,AFSA19.jpg,AFNE20.jpg,AFSA18.jpg,FS,4,num_6,32,num_2,1.36672563999,,,2017_Jun_26_1135,59.997382879,MAFE4ImagesEEG,001,100844,
AMSA25.JPG,AMNE24.JPG,AMSA24.JPG,AMNE26.JPG,AMSA21.JPG,AMNE25.JPG,,,,,0,2,2,3,,,,,,,,,,,,,,,,,,,AFNE03.jpg,AFSA10.jpg,AFNE14.jpg,AFSA06.jpg,AFSA10.jpg,FS,4,num_6,16,num_6,1.08343335063,,,2017_Jun_26_1135,59.997382879,MAFE4ImagesEEG,001,100844,
AFSA21.JPG,AFNE22.JPG,AFNE21.JPG,AFSA23.JPG,AFSA22.JPG,AFNE23.JPG,,,,,0,3,3,0,,,,,,,,,,,,,,,,,,,AFNE02.jpg,AFSA11.jpg,AFNE15.jpg,AFSA10.jpg,AFSA11.jpg,FS,4,num_6,16,num_6,0.616792514194,,,2017_Jun_26_1135,59.997382879,MAFE4ImagesEEG,001,100844,
AFNE22.JPG,AFSA24.JPG,AFSA22.JPG,AFNE25.JPG,AFNE24.JPG,AFSA25.JPG,,,,,0,4,4,6,,,,,,,,,,,,,,,,,,,AFSA10.jpg,AFSA02.jpg,AFNE16.jpg,AFNE04.jpg,AFSA02.jpg,FS,4,num_6,16,num_6,0.81680220053,,,2017_Jun_26_1135,59.997382879,MAFE4ImagesEEG,001,100844,
AFSA25.JPG,AFNE24.JPG,AFSA24.JPG,AFNE21.JPG,AFSA21.JPG,AFNE25.JPG,,,,,0,5,5,2,,,,,,,,,,,,,,,,,,,AFSA18.jpg,AFNE17.jpg,AFSA01.jpg,AFNE07.jpg,AFNE07.jpg,FN,3,num_4,32,num_8,1.13327692593,,,2017_Jun_26_1135,59.997382879,MAFE4ImagesEEG,001,100844,
AMSA21.JPG,AMNE22.JPG,AMNE21.JPG,AMSA23.JPG,AMSA22.JPG,AMNE23.JPG,,,,,0,6,6,1,,,,,,,,,,,,,,,,,,,AFSA20.jpg,AFNE20.jpg,AFSA15.jpg,AFNE19.jpg,AFSA15.jpg,FS,4,num_2,16,num_2,0.900146706293,,,2017_Jun_26_1135,59.997382879,MAFE4ImagesEEG,001,100844,
AMNE22.JPG,AMSA24.JPG,AMSA22.JPG,AMNE25.JPG,AMNE24.JPG,AMSA25.JPG,,,,,0,7,7,7,,,,,,,,,,,,,,,,,,,AFSA06.jpg,AFSA04.jpg,AFNE07.jpg,AFNE02.jpg,AFNE07.jpg,FN,3,num_2,16,num_2,0.984204536926,,,2017_Jun_26_1135,59.997382879,MAFE4ImagesEEG,001,100844,
AFSA21.JPG,AFNE23.JPG,AFNE21.JPG,AFSA25.JPG,AFNE25.JPG,AFSA23.JPG,,,,,0,8,8,4,,,,,,,,,,,,,,,,,,,AFSA05.jpg,AFNE02.jpg,AFNE15.jpg,AFSA06.jpg,AFNE15.jpg,FN,3,num_2,16,num_2,1.21689919218,,,2017_Jun_26_1135,59.997382879,MAFE4ImagesEEG,001,100844,
AFNE23.JPG,AFNE24.JPG,AFNE22.JPG,AFSA24.JPG,AFSA22.JPG,AFSA23.JPG,,,,,0,9,9,8,,,,,,,,,,,,,,,,,,,AFSA05.jpg,AFNE06.jpg,AFSA07.jpg,AFNE08.jpg,AFSA07.jpg,FS,4,num_2,32,num_6,0.833525242527,,,2017_Jun_26_1135,59.997382879,MAFE4ImagesEEG,001,100844,
AFNE23.JPG,AFNE24.JPG,AFNE22.JPG,AFSA24.JPG,AFSA22.JPG,AFSA23.JPG,,,,,,,,,0,0,0,8,,,,,,,,,,,,,,,AMSA01.jpg,AMSA07.jpg,AMNE03.jpg,AMNE20.jpg,AMSA01.jpg,MS,2,num_8,16,num_8,1.25011530589,,,2017_Jun_26_1135,59.997382879,MAFE4ImagesEEG,001,100844,
AFSA25.JPG,AFNE24.JPG,AFSA24.JPG,AFNE21.JPG,AFSA21.JPG,AFNE25.JPG,,,,,,,,,0,1,1,2,,,,,,,,,,,,,,,AMSA06.jpg,AMNE17.jpg,AMSA10.jpg,AMNE05.jpg,AMSA06.jpg,MS,2,num_8,32,num_6,1.98332827634,,,2017_Jun_26_1135,59.997382879,MAFE4ImagesEEG,001,100844,
AMSA21.JPG,AMNE23.JPG,AMNE21.JPG,AMSA25.JPG,AMNE25.JPG,AMSA23.JPG,,,,,,,,,0,2,2,5,,,,,,,,,,,,,,,AMNE03.jpg,AMSA14.jpg,AMSA07.jpg,AMNE09.jpg,AMSA07.jpg,MS,2,num_2,32,num_4,1.16673359433,,,2017_Jun_26_1135,59.997382879,MAFE4ImagesEEG,001,100844,
AMNE22.JPG,AMSA24.JPG,AMSA22.JPG,AMNE25.JPG,AMNE24.JPG,AMSA25.JPG,,,,,,,,,0,3,3,7,,,,,,,,,,,,,,,AMSA09.jpg,AMNE08.jpg,AMNE06.jpg,AMSA16.jpg,AMSA16.jpg,MS,2,num_4,32,num_8,1.61671168782,,,2017_Jun_26_1135,59.997382879,MAFE4ImagesEEG,001,100844,
AFSA21.JPG,AFNE23.JPG,AFNE21.JPG,AFSA25.JPG,AFNE25.JPG,AFSA23.JPG,,,,,,,,,0,4,4,4,,,,,,,,,,,,,,,AMSA20.jpg,AMSA12.jpg,AMNE14.jpg,AMNE07.jpg,AMNE07.jpg,MN,1,num_4,32,num_8,1.30009327108,,,2017_Jun_26_1135,59.997382879,MAFE4ImagesEEG,001,100844,
AFSA21.JPG,AFNE22.JPG,AFNE21.JPG,AFSA23.JPG,AFSA22.JPG,AFNE23.JPG,,,,,,,,,0,5,5,0,,,,,,,,,,,,,,,AMNE08.jpg,AMNE13.jpg,AMSA04.jpg,AMSA08.jpg,AMNE08.jpg,MN,1,num_8,32,num_4,0.733466675476,,,2017_Jun_26_1135,59.997382879,MAFE4ImagesEEG,001,100844,
AMNE23.JPG,AMNE24.JPG,AMNE22.JPG,AMSA24.JPG,AMSA22.JPG,AMSA23.JPG,,,,,,,,,0,6,6,9,,,,,,,,,,,,,,,AMNE12.jpg,AMSA15.jpg,AMSA16.jpg,AMNE19.jpg,AMNE19.jpg,MN,1,num_4,32,num_8,1.08344682169,,,2017_Jun_26_1135,59.997382879,MAFE4ImagesEEG,001,100844,
AMSA21.JPG,AMNE22.JPG,AMNE21.JPG,AMSA23.JPG,AMSA22.JPG,AMNE23.JPG,,,,,,,,,0,7,7,1,,,,,,,,,,,,,,,AMSA11.jpg,AMSA02.jpg,AMNE12.jpg,AMNE15.jpg,AMSA11.jpg,MS,2,num_8,32,num_2,3.01633494708,,,2017_Jun_26_1135,59.997382879,MAFE4ImagesEEG,001,100844,
AFNE22.JPG,AFSA24.JPG,AFSA22.JPG,AFNE25.JPG,AFNE24.JPG,AFSA25.JPG,,,,,,,,,0,8,8,6,,,,,,,,,,,,,,,AMNE18.jpg,AMNE03.jpg,AMSA04.jpg,AMSA13.jpg,AMSA04.jpg,MS,2,num_2,16,num_2,0.966748284204,,,2017_Jun_26_1135,59.997382879,MAFE4ImagesEEG,001,100844,
AMSA25.JPG,AMNE24.JPG,AMSA24.JPG,AMNE26.JPG,AMSA21.JPG,AMNE25.JPG,,,,,,,,,0,9,9,3,,,,,,,,,,,,,,,AMSA07.jpg,AMSA11.jpg,AMNE12.jpg,AMNE01.jpg,AMSA07.jpg,MS,2,num_8,32,num_6,1.65010068016,,,2017_Jun_26_1135,59.997382879,MAFE4ImagesEEG,001,100844,
AFSA25.JPG,AFNE24.JPG,AFSA24.JPG,AFNE21.JPG,AFSA21.JPG,AFNE25.JPG,,,,,,,,,,,,,0,0,0,2,,,,,,,,,,,AFSA07.jpg,AFNE14.jpg,AFSA01.jpg,AFNE10.jpg,AFNE14.jpg,FN,3,num_6,32,num_4,0.75008034527,,,2017_Jun_26_1135,59.997382879,MAFE4ImagesEEG,001,100844,
AMSA21.JPG,AMNE22.JPG,AMNE21.JPG,AMSA23.JPG,AMSA22.JPG,AMNE23.JPG,,,,,,,,,,,,,0,1,1,1,,,,,,,,,,,AFNE09.jpg,AFSA02.jpg,AFNE15.jpg,AFSA09.jpg,AFSA09.jpg,FS,4,num_4,32,num_2,1.31678905021,,,2017_Jun_26_1135,59.997382879,MAFE4ImagesEEG,001,100844,
AFSA21.JPG,AFNE23.JPG,AFNE21.JPG,AFSA25.JPG,AFNE25.JPG,AFSA23.JPG,,,,,,,,,,,,,0,2,2,4,,,,,,,,,,,AFSA17.jpg,AFNE05.jpg,AFSA13.jpg,AFNE07.jpg,AFSA13.jpg,FS,4,num_2,32,num_4,1.21682895021,,,2017_Jun_26_1135,59.997382879,MAFE4ImagesEEG,001,100844,
AMNE23.JPG,AMNE24.JPG,AMNE22.JPG,AMSA24.JPG,AMSA22.JPG,AMSA23.JPG,,,,,,,,,,,,,0,3,3,9,,,,,,,,,,,AFSA12.jpg,AFNE19.jpg,AFSA01.jpg,AFNE12.jpg,AFSA01.jpg,FS,4,num_2,32,num_6,0.766797293214,,,2017_Jun_26_1135,59.997382879,MAFE4ImagesEEG,001,100844,
AFSA21.JPG,AFNE22.JPG,AFNE21.JPG,AFSA23.JPG,AFSA22.JPG,AFNE23.JPG,,,,,,,,,,,,,0,4,4,0,,,,,,,,,,,AFNE19.jpg,AFNE04.jpg,AFSA10.jpg,AFSA16.jpg,AFNE19.jpg,FN,3,num_8,16,num_8,1.53338674717,,,2017_Jun_26_1135,59.997382879,MAFE4ImagesEEG,001,100844,
AMSA21.JPG,AMNE23.JPG,AMNE21.JPG,AMSA25.JPG,AMNE25.JPG,AMSA23.JPG,,,,,,,,,,,,,0,5,5,5,,,,,,,,,,,AFNE16.jpg,AFSA11.jpg,AFNE17.jpg,AFSA02.jpg,AFNE17.jpg,FN,3,num_2,32,num_4,1.63340618399,,,2017_Jun_26_1135,59.997382879,MAFE4ImagesEEG,001,100844,
AMNE22.JPG,AMSA24.JPG,AMSA22.JPG,AMNE25.JPG,AMNE24.JPG,AMSA25.JPG,,,,,,,,,,,,,0,6,6,7,,,,,,,,,,,AFSA03.jpg,AFSA06.jpg,AFNE18.jpg,AFNE06.jpg,AFNE18.jpg,FN,3,num_2,32,num_4,1.28350686415,,,2017_Jun_26_1135,59.997382879,MAFE4ImagesEEG,001,100844,
AMSA25.JPG,AMNE24.JPG,AMSA24.JPG,AMNE26.JPG,AMSA21.JPG,AMNE25.JPG,,,,,,,,,,,,,0,7,7,3,,,,,,,,,,,AFNE17.jpg,AFSA19.jpg,AFNE06.jpg,AFSA15.jpg,AFSA15.jpg,FS,4,num_4,32,num_8,1.18340595947,,,2017_Jun_26_1135,59.997382879,MAFE4ImagesEEG,001,100844,
AFNE22.JPG,AFSA24.JPG,AFSA22.JPG,AFNE25.JPG,AFNE24.JPG,AFSA25.JPG,,,,,,,,,,,,,0,8,8,6,,,,,,,,,,,AFSA03.jpg,AFSA17.jpg,AFNE09.jpg,AFNE05.jpg,AFSA03.jpg,FS,4,num_8,16,num_8,1.73335441662,,,2017_Jun_26_1135,59.997382879,MAFE4ImagesEEG,001,100844,
AFNE23.JPG,AFNE24.JPG,AFNE22.JPG,AFSA24.JPG,AFSA22.JPG,AFSA23.JPG,,,,,,,,,,,,,0,9,9,8,,,,,,,,,,,AFSA17.jpg,AFSA01.jpg,AFNE15.jpg,AFNE14.jpg,AFSA01.jpg,FS,4,num_6,16,num_6,0.666811534053,,,2017_Jun_26_1135,59.997382879,MAFE4ImagesEEG,001,100844,
AFSA21.JPG,AFNE23.JPG,AFNE21.JPG,AFSA25.JPG,AFNE25.JPG,AFSA23.JPG,,,,,,,,,,,,,,,,,0,0,0,4,,,,,,,AMSA14.jpg,AMSA15.jpg,AMNE03.jpg,AMNE04.jpg,AMSA14.jpg,MS,2,num_8,32,num_2,1.05020087921,,,2017_Jun_26_1135,59.997382879,MAFE4ImagesEEG,001,100844,
AFNE22.JPG,AFSA24.JPG,AFSA22.JPG,AFNE25.JPG,AFNE24.JPG,AFSA25.JPG,,,,,,,,,,,,,,,,,0,1,1,6,,,,,,,AMNE02.jpg,AMSA08.jpg,AMSA03.jpg,AMNE16.jpg,AMSA03.jpg,MS,2,num_2,32,num_6,1.00009942928,,,2017_Jun_26_1135,59.997382879,MAFE4ImagesEEG,001,100844,
AMNE23.JPG,AMNE24.JPG,AMNE22.JPG,AMSA24.JPG,AMSA22.JPG,AMSA23.JPG,,,,,,,,,,,,,,,,,0,2,2,9,,,,,,,AMSA08.jpg,AMNE20.jpg,AMSA05.jpg,AMNE15.jpg,AMNE15.jpg,MN,1,num_4,32,num_2,0.916743376888,,,2017_Jun_26_1135,59.997382879,MAFE4ImagesEEG,001,100844,
AMSA21.JPG,AMNE22.JPG,AMNE21.JPG,AMSA23.JPG,AMSA22.JPG,AMNE23.JPG,,,,,,,,,,,,,,,,,0,3,3,1,,,,,,,AMNE01.jpg,AMSA02.jpg,AMNE02.jpg,AMSA10.jpg,AMNE02.jpg,MN,1,num_2,16,num_2,0.95007110797,,,2017_Jun_26_1135,59.997382879,MAFE4ImagesEEG,001,100844,
AMNE22.JPG,AMSA24.JPG,AMSA22.JPG,AMNE25.JPG,AMNE24.JPG,AMSA25.JPG,,,,,,,,,,,,,,,,,0,4,4,7,,,,,,,AMNE14.jpg,AMNE04.jpg,AMSA08.jpg,AMSA03.jpg,AMSA03.jpg,MS,2,num_4,16,num_4,0.700273334287,,,2017_Jun_26_1135,59.997382879,MAFE4ImagesEEG,001,100844,
AFSA21.JPG,AFNE22.JPG,AFNE21.JPG,AFSA23.JPG,AFSA22.JPG,AFNE23.JPG,,,,,,,,,,,,,,,,,0,5,5,0,,,,,,,AMSA10.jpg,AMNE10.jpg,AMNE18.jpg,AMSA14.jpg,AMNE10.jpg,MN,1,num_6,32,num_8,1.06660735122,,,2017_Jun_26_1135,59.997382879,MAFE4ImagesEEG,001,100844,
AFSA25.JPG,AFNE24.JPG,AFSA24.JPG,AFNE21.JPG,AFSA21.JPG,AFNE25.JPG,,,,,,,,,,,,,,,,,0,6,6,2,,,,,,,AMSA11.jpg,AMSA03.jpg,AMNE11.jpg,AMNE20.jpg,AMSA11.jpg,MS,2,num_8,32,num_6,0.833441850231,,,2017_Jun_26_1135,59.997382879,MAFE4ImagesEEG,001,100844,
AFNE23.JPG,AFNE24.JPG,AFNE22.JPG,AFSA24.JPG,AFSA22.JPG,AFSA23.JPG,,,,,,,,,,,,,,,,,0,7,7,8,,,,,,,AMSA08.jpg,AMNE08.jpg,AMNE16.jpg,AMSA17.jpg,AMNE08.jpg,MN,1,num_6,32,num_2,0.950088748647,,,2017_Jun_26_1135,59.997382879,MAFE4ImagesEEG,001,100844,
AMSA25.JPG,AMNE24.JPG,AMSA24.JPG,AMNE26.JPG,AMSA21.JPG,AMNE25.JPG,,,,,,,,,,,,,,,,,0,8,8,3,,,,,,,AMNE15.jpg,AMNE09.jpg,AMSA18.jpg,AMSA17.jpg,AMSA18.jpg,MS,2,num_2,16,num_2,0.849977580302,,,2017_Jun_26_1135,59.997382879,MAFE4ImagesEEG,001,100844,
AMSA21.JPG,AMNE23.JPG,AMNE21.JPG,AMSA25.JPG,AMNE25.JPG,AMSA23.JPG,,,,,,,,,,,,,,,,,0,9,9,5,,,,,,,AMSA03.jpg,AMNE18.jpg,AMSA19.jpg,AMNE17.jpg,AMSA19.jpg,MS,2,num_2,32,num_6,1.05011139286,,,2017_Jun_26_1135,59.997382879,MAFE4ImagesEEG,001,100844,
AMSA21.JPG,AMNE23.JPG,AMNE21.JPG,AMSA25.JPG,AMNE25.JPG,AMSA23.JPG,,,,,,,,,,,,,,,,,,,,,0,0,0,5,,,AFNE18.jpg,AFNE11.jpg,AFSA02.jpg,AFSA04.jpg,AFSA04.jpg,FS,4,num_4,16,num_4,0.883411796931,,,2017_Jun_26_1135,59.997382879,MAFE4ImagesEEG,001,100844,
AFSA21.JPG,AFNE22.JPG,AFNE21.JPG,AFSA23.JPG,AFSA22.JPG,AFNE23.JPG,,,,,,,,,,,,,,,,,,,,,0,1,1,0,,,AFSA18.jpg,AFNE09.jpg,AFNE07.jpg,AFSA20.jpg,AFNE09.jpg,FN,3,num_6,16,num_6,0.766764257035,,,2017_Jun_26_1135,59.997382879,MAFE4ImagesEEG,001,100844,
AMSA21.JPG,AMNE22.JPG,AMNE21.JPG,AMSA23.JPG,AMSA22.JPG,AMNE23.JPG,,,,,,,,,,,,,,,,,,,,,0,2,2,1,,,AFSA20.jpg,AFSA04.jpg,AFNE06.jpg,AFNE07.jpg,AFSA20.jpg,FS,4,num_8,32,num_2,3.78319670896,,,2017_Jun_26_1135,59.997382879,MAFE4ImagesEEG,001,100844,
AFSA21.JPG,AFNE23.JPG,AFNE21.JPG,AFSA25.JPG,AFNE25.JPG,AFSA23.JPG,,,,,,,,,,,,,,,,,,,,,0,3,3,4,,,AFSA08.jpg,AFSA10.jpg,AFNE05.jpg,AFNE19.jpg,AFNE05.jpg,FN,3,num_2,32,num_6,0.533455064703,,,2017_Jun_26_1135,59.997382879,MAFE4ImagesEEG,001,100844,
AMSA25.JPG,AMNE24.JPG,AMSA24.JPG,AMNE26.JPG,AMSA21.JPG,AMNE25.JPG,,,,,,,,,,,,,,,,,,,,,0,4,4,3,,,AFNE01.jpg,AFSA08.jpg,AFNE13.jpg,AFSA06.jpg,AFNE13.jpg,FN,3,num_2,16,num_2,1.01676954924,,,2017_Jun_26_1135,59.997382879,MAFE4ImagesEEG,001,100844,
AMNE22.JPG,AMSA24.JPG,AMSA22.JPG,AMNE25.JPG,AMNE24.JPG,AMSA25.JPG,,,,,,,,,,,,,,,,,,,,,0,5,5,7,,,AFSA02.jpg,AFNE03.jpg,AFNE15.jpg,AFSA03.jpg,AFNE15.jpg,FN,3,num_2,32,num_8,1.53338610569,,,2017_Jun_26_1135,59.997382879,MAFE4ImagesEEG,001,100844,
AFNE22.JPG,AFSA24.JPG,AFSA22.JPG,AFNE25.JPG,AFNE24.JPG,AFSA25.JPG,,,,,,,,,,,,,,,,,,,,,0,6,6,6,,,AFSA07.jpg,AFNE09.jpg,AFNE20.jpg,AFSA13.jpg,AFNE20.jpg,FN,3,num_2,32,num_8,2.03327577127,,,2017_Jun_26_1135,59.997382879,MAFE4ImagesEEG,001,100844,
AFSA25.JPG,AFNE24.JPG,AFSA24.JPG,AFNE21.JPG,AFSA21.JPG,AFNE25.JPG,,,,,,,,,,,,,,,,,,,,,0,7,7,2,,,AFSA02.jpg,AFNE03.jpg,AFNE18.jpg,AFSA17.jpg,AFNE18.jpg,FN,3,num_2,32,num_8,0.88330819804,,,2017_Jun_26_1135,59.997382879,MAFE4ImagesEEG,001,100844,
AFNE23.JPG,AFNE24.JPG,AFNE22.JPG,AFSA24.JPG,AFSA22.JPG,AFSA23.JPG,,,,,,,,,,,,,,,,,,,,,0,8,8,8,,,AFSA12.jpg,AFNE10.jpg,AFNE12.jpg,AFSA15.jpg,AFSA12.jpg,FS,4,num_8,32,num_4,2.00001250884,,,2017_Jun_26_1135,59.997382879,MAFE4ImagesEEG,001,100844,
AMNE23.JPG,AMNE24.JPG,AMNE22.JPG,AMSA24.JPG,AMSA22.JPG,AMSA23.JPG,,,,,,,,,,,,,,,,,,,,,0,9,9,9,,,AFSA18.jpg,AFSA14.jpg,AFNE10.jpg,AFNE11.jpg,AFNE11.jpg,FN,3,num_4,16,num_4,1.25007232678,,,2017_Jun_26_1135,59.997382879,MAFE4ImagesEEG,001,100844,
,,,,,,,,,,,,,,,,,,,,,,,,,,,,,,,,,,,,,,,,,,,space,49.5129347866,2017_Jun_26_1135,59.997382879,MAFE4ImagesEEG,001,100844,
AFNE01.JPG,AFNE01.JPG,AFNE01.JPG,AFNE01.JPG,AFNE01.JPG,AFNE01.JPG,0,0,0,2,,,,,,,,,,,,,,,,,,,,,,,AMNE03.jpg,AMNE11.jpg,AMSA10.jpg,AMSA20.jpg,AMNE03.jpg,MN,1,num_8,32,num_4,1.03348938384,,,2017_Jun_26_1135,59.997382879,MAFE4ImagesEEG,001,100844,
AFNE01.JPG,AFNE01.JPG,AFNE01.JPG,AFNE01.JPG,AFNE01.JPG,AFNE01.JPG,0,1,1,7,,,,,,,,,,,,,,,,,,,,,,,AMSA06.jpg,AMNE07.jpg,AMSA13.jpg,AMNE08.jpg,AMNE07.jpg,MN,1,num_6,32,num_4,0.716804894743,,,2017_Jun_26_1135,59.997382879,MAFE4ImagesEEG,001,100844,
AFNE01.JPG,AFNE01.JPG,AFNE01.JPG,AFNE01.JPG,AFNE01.JPG,AFNE01.JPG,0,2,2,8,,,,,,,,,,,,,,,,,,,,,,,AMNE19.jpg,AMSA18.jpg,AMNE10.jpg,AMSA12.jpg,AMNE10.jpg,MN,1,num_2,32,num_8,1.15008592614,,,2017_Jun_26_1135,59.997382879,MAFE4ImagesEEG,001,100844,
AFNE01.JPG,AFNE01.JPG,AFNE01.JPG,AFNE01.JPG,AFNE01.JPG,AFNE01.JPG,0,3,3,5,,,,,,,,,,,,,,,,,,,,,,,AMSA02.jpg,AMSA09.jpg,AMNE13.jpg,AMNE09.jpg,AMNE13.jpg,MN,1,num_2,32,num_4,0.783452338416,,,2017_Jun_26_1135,59.997382879,MAFE4ImagesEEG,001,100844,
AFNE01.JPG,AFNE01.JPG,AFNE01.JPG,AFNE01.JPG,AFNE01.JPG,AFNE01.JPG,0,4,4,6,,,,,,,,,,,,,,,,,,,,,,,AMSA04.jpg,AMNE11.jpg,AMSA16.jpg,AMNE05.jpg,AMNE11.jpg,MN,1,num_6,32,num_4,0.733480467279,,,2017_Jun_26_1135,59.997382879,MAFE4ImagesEEG,001,100844,
AFNE01.JPG,AFNE01.JPG,AFNE01.JPG,AFNE01.JPG,AFNE01.JPG,AFNE01.JPG,0,5,5,0,,,,,,,,,,,,,,,,,,,,,,,AMNE17.jpg,AMNE15.jpg,AMSA14.jpg,AMSA06.jpg,AMNE17.jpg,MN,1,num_8,32,num_6,0.916746584284,,,2017_Jun_26_1135,59.997382879,MAFE4ImagesEEG,001,100844,
AFNE01.JPG,AFNE01.JPG,AFNE01.JPG,AFNE01.JPG,AFNE01.JPG,AFNE01.JPG,0,6,6,4,,,,,,,,,,,,,,,,,,,,,,,AMSA14.jpg,AMNE15.jpg,AMNE05.jpg,AMSA02.jpg,AMSA14.jpg,MS,2,num_8,16,num_8,1.31670854457,,,2017_Jun_26_1135,59.997382879,MAFE4ImagesEEG,001,100844,
AFNE01.JPG,AFNE01.JPG,AFNE01.JPG,AFNE01.JPG,AFNE01.JPG,AFNE01.JPG,0,7,7,3,,,,,,,,,,,,,,,,,,,,,,,AMSA09.jpg,AMNE07.jpg,AMSA16.jpg,AMNE12.jpg,AMNE12.jpg,MN,1,num_4,32,num_6,1.15009169945,,,2017_Jun_26_1135,59.997382879,MAFE4ImagesEEG,001,100844,
AFNE01.JPG,AFNE01.JPG,AFNE01.JPG,AFNE01.JPG,AFNE01.JPG,AFNE01.JPG,0,8,8,9,,,,,,,,,,,,,,,,,,,,,,,AMSA08.jpg,AMNE11.jpg,AMSA02.jpg,AMNE08.jpg,AMSA08.jpg,MS,2,num_8,16,num_8,0.950248797708,,,2017_Jun_26_1135,59.997382879,MAFE4ImagesEEG,001,100844,
AFNE01.JPG,AFNE01.JPG,AFNE01.JPG,AFNE01.JPG,AFNE01.JPG,AFNE01.JPG,0,9,9,1,,,,,,,,,,,,,,,,,,,,,,,AMSA08.jpg,AMSA20.jpg,AMNE06.jpg,AMNE11.jpg,AMSA08.jpg,MS,2,num_8,16,num_8,0.783491147908,,,2017_Jun_26_1135,59.997382879,MAFE4ImagesEEG,001,100844,
AFNE01.JPG,AFNE01.JPG,AFNE01.JPG,AFNE01.JPG,AFNE01.JPG,AFNE01.JPG,1,0,10,4,,,,,,,,,,,,,,,,,,,,,,,AMNE06.jpg,AMNE20.jpg,AMSA09.jpg,AMSA10.jpg,AMNE06.jpg,MN,1,num_8,32,num_6,0.850090480641,,,2017_Jun_26_1135,59.997382879,MAFE4ImagesEEG,001,100844,
AFNE01.JPG,AFNE01.JPG,AFNE01.JPG,AFNE01.JPG,AFNE01.JPG,AFNE01.JPG,1,1,11,6,,,,,,,,,,,,,,,,,,,,,,,AMNE18.jpg,AMSA15.jpg,AMSA17.jpg,AMNE10.jpg,AMSA17.jpg,MS,2,num_2,32,num_8,2.70000487524,,,2017_Jun_26_1135,59.997382879,MAFE4ImagesEEG,001,100844,
AFNE01.JPG,AFNE01.JPG,AFNE01.JPG,AFNE01.JPG,AFNE01.JPG,AFNE01.JPG,1,2,12,9,,,,,,,,,,,,,,,,,,,,,,,AMSA03.jpg,AMNE20.jpg,AMNE06.jpg,AMSA08.jpg,AMNE06.jpg,MN,1,num_2,32,num_6,1.23345320441,,,2017_Jun_26_1135,59.997382879,MAFE4ImagesEEG,001,100844,
AFNE01.JPG,AFNE01.JPG,AFNE01.JPG,AFNE01.JPG,AFNE01.JPG,AFNE01.JPG,1,3,13,7,,,,,,,,,,,,,,,,,,,,,,,AMNE14.jpg,AMNE15.jpg,AMSA11.jpg,AMSA06.jpg,AMSA11.jpg,MS,2,num_2,32,num_8,1.00014369134,,,2017_Jun_26_1135,59.997382879,MAFE4ImagesEEG,001,100844,
AFNE01.JPG,AFNE01.JPG,AFNE01.JPG,AFNE01.JPG,AFNE01.JPG,AFNE01.JPG,1,4,14,3,,,,,,,,,,,,,,,,,,,,,,,AMNE01.jpg,AMSA15.jpg,AMNE16.jpg,AMSA20.jpg,AMSA15.jpg,MS,2,num_6,32,num_2,1.68340082764,,,2017_Jun_26_1135,59.997382879,MAFE4ImagesEEG,001,100844,
AFNE01.JPG,AFNE01.JPG,AFNE01.JPG,AFNE01.JPG,AFNE01.JPG,AFNE01.JPG,1,5,15,0,,,,,,,,,,,,,,,,,,,,,,,AMSA10.jpg,AMSA06.jpg,AMNE12.jpg,AMNE01.jpg,AMNE01.jpg,MN,1,num_4,16,num_4,0.533473988339,,,2017_Jun_26_1135,59.997382879,MAFE4ImagesEEG,001,100844,
AFNE01.JPG,AFNE01.JPG,AFNE01.JPG,AFNE01.JPG,AFNE01.JPG,AFNE01.JPG,1,6,16,5,,,,,,,,,,,,,,,,,,,,,,,AMNE20.jpg,AMSA17.jpg,AMNE19.jpg,AMSA10.jpg,AMSA17.jpg,MS,2,num_6,16,num_6,0.533453140265,,,2017_Jun_26_1135,59.997382879,MAFE4ImagesEEG,001,100844,
AFNE01.JPG,AFNE01.JPG,AFNE01.JPG,AFNE01.JPG,AFNE01.JPG,AFNE01.JPG,1,7,17,2,,,,,,,,,,,,,,,,,,,,,,,AMNE02.jpg,AMSA08.jpg,AMNE06.jpg,AMSA16.jpg,AMSA08.jpg,MS,2,num_6,32,num_4,0.749987651526,,,2017_Jun_26_1135,59.997382879,MAFE4ImagesEEG,001,100844,
AFNE01.JPG,AFNE01.JPG,AFNE01.JPG,AFNE01.JPG,AFNE01.JPG,AFNE01.JPG,1,8,18,8,,,,,,,,,,,,,,,,,,,,,,,AMNE10.jpg,AMNE04.jpg,AMSA04.jpg,AMSA13.jpg,AMNE10.jpg,MN,1,num_8,32,num_6,1.78338370014,,,2017_Jun_26_1135,59.997382879,MAFE4ImagesEEG,001,100844,
AFNE01.JPG,AFNE01.JPG,AFNE01.JPG,AFNE01.JPG,AFNE01.JPG,AFNE01.JPG,1,9,19,1,,,,,,,,,,,,,,,,,,,,,,,AMSA02.jpg,AMNE14.jpg,AMSA13.jpg,AMNE20.jpg,AMSA13.jpg,MS,2,num_2,32,num_4,1.18340820465,,,2017_Jun_26_1135,59.997382879,MAFE4ImagesEEG,001,100844,
AFNE01.JPG,AFNE01.JPG,AFNE01.JPG,AFNE01.JPG,AFNE01.JPG,AFNE01.JPG,2,0,20,8,,,,,,,,,,,,,,,,,,,,,,,AMSA09.jpg,AMSA10.jpg,AMNE20.jpg,AMNE08.jpg,AMSA10.jpg,MS,2,num_6,16,num_6,0.666778818614,,,2017_Jun_26_1135,59.997382879,MAFE4ImagesEEG,001,100844,
AFNE01.JPG,AFNE01.JPG,AFNE01.JPG,AFNE01.JPG,AFNE01.JPG,AFNE01.JPG,2,1,21,5,,,,,,,,,,,,,,,,,,,,,,,AMNE04.jpg,AMSA16.jpg,AMNE16.jpg,AMSA09.jpg,AMNE16.jpg,MN,1,num_2,32,num_4,0.96678292408,,,2017_Jun_26_1135,59.997382879,MAFE4ImagesEEG,001,100844,
AFNE01.JPG,AFNE01.JPG,AFNE01.JPG,AFNE01.JPG,AFNE01.JPG,AFNE01.JPG,2,2,22,4,,,,,,,,,,,,,,,,,,,,,,,AMNE15.jpg,AMSA08.jpg,AMNE19.jpg,AMSA20.jpg,AMNE15.jpg,MN,1,num_8,16,num_8,0.750120758459,,,2017_Jun_26_1135,59.997382879,MAFE4ImagesEEG,001,100844,
AFNE01.JPG,AFNE01.JPG,AFNE01.JPG,AFNE01.JPG,AFNE01.JPG,AFNE01.JPG,2,3,23,6,,,,,,,,,,,,,,,,,,,,,,,AMNE05.jpg,AMNE13.jpg,AMSA03.jpg,AMSA19.jpg,AMNE05.jpg,MN,1,num_8,16,num_8,1.26702084872,,,2017_Jun_26_1135,59.997382879,MAFE4ImagesEEG,001,100844,
AFNE01.JPG,AFNE01.JPG,AFNE01.JPG,AFNE01.JPG,AFNE01.JPG,AFNE01.JPG,2,4,24,0,,,,,,,,,,,,,,,,,,,,,,,AMSA07.jpg,AMSA19.jpg,AMNE17.jpg,AMNE06.jpg,AMNE17.jpg,MN,1,num_2,32,num_4,1.06685688663,,,2017_Jun_26_1135,59.997382879,MAFE4ImagesEEG,001,100844,
AFNE01.JPG,AFNE01.JPG,AFNE01.JPG,AFNE01.JPG,AFNE01.JPG,AFNE01.JPG,2,5,25,7,,,,,,,,,,,,,,,,,,,,,,,AMSA19.jpg,AMNE04.jpg,AMNE11.jpg,AMSA18.jpg,AMNE04.jpg,MN,1,num_6,16,num_6,0.866772467969,,,2017_Jun_26_1135,59.997382879,MAFE4ImagesEEG,001,100844,
AFNE01.JPG,AFNE01.JPG,AFNE01.JPG,AFNE01.JPG,AFNE01.JPG,AFNE01.JPG,2,6,26,2,,,,,,,,,,,,,,,,,,,,,,,AMNE06.jpg,AMSA20.jpg,AMNE15.jpg,AMSA12.jpg,AMNE06.jpg,MN,1,num_8,16,num_8,1.06676740028,,,2017_Jun_26_1135,59.997382879,MAFE4ImagesEEG,001,100844,
AFNE01.JPG,AFNE01.JPG,AFNE01.JPG,AFNE01.JPG,AFNE01.JPG,AFNE01.JPG,2,7,27,3,,,,,,,,,,,,,,,,,,,,,,,AMNE11.jpg,AMSA08.jpg,AMSA18.jpg,AMNE03.jpg,AMNE03.jpg,MN,1,num_4,32,num_8,0.633443389781,,,2017_Jun_26_1135,59.997382879,MAFE4ImagesEEG,001,100844,
AFNE01.JPG,AFNE01.JPG,AFNE01.JPG,AFNE01.JPG,AFNE01.JPG,AFNE01.JPG,2,8,28,9,,,,,,,,,,,,,,,,,,,,,,,AMSA10.jpg,AMSA05.jpg,AMNE08.jpg,AMNE05.jpg,AMNE05.jpg,MN,1,num_4,32,num_2,1.13342093801,,,2017_Jun_26_1135,59.997382879,MAFE4ImagesEEG,001,100844,
AFNE01.JPG,AFNE01.JPG,AFNE01.JPG,AFNE01.JPG,AFNE01.JPG,AFNE01.JPG,2,9,29,1,,,,,,,,,,,,,,,,,,,,,,,AMSA19.jpg,AMSA15.jpg,AMNE14.jpg,AMNE12.jpg,AMSA15.jpg,MS,2,num_6,32,num_8,0.950101898971,,,2017_Jun_26_1135,59.997382879,MAFE4ImagesEEG,001,100844,
AFNE01.JPG,AFNE01.JPG,AFNE01.JPG,AFNE01.JPG,AFNE01.JPG,AFNE01.JPG,3,0,30,0,,,,,,,,,,,,,,,,,,,,,,,AMNE08.jpg,AMNE14.jpg,AMSA18.jpg,AMSA02.jpg,AMNE14.jpg,MN,1,num_6,16,num_6,0.650176053966,,,2017_Jun_26_1135,59.997382879,MAFE4ImagesEEG,001,100844,
AFNE01.JPG,AFNE01.JPG,AFNE01.JPG,AFNE01.JPG,AFNE01.JPG,AFNE01.JPG,3,1,31,3,,,,,,,,,,,,,,,,,,,,,,,AMNE02.jpg,AMSA14.jpg,AMSA19.jpg,AMNE10.jpg,AMSA14.jpg,MS,2,num_6,16,num_6,0.450123067785,,,2017_Jun_26_1135,59.997382879,MAFE4ImagesEEG,001,100844,
AFNE01.JPG,AFNE01.JPG,AFNE01.JPG,AFNE01.JPG,AFNE01.JPG,AFNE01.JPG,3,2,32,2,,,,,,,,,,,,,,,,,,,,,,,AMNE06.jpg,AMSA08.jpg,AMSA03.jpg,AMNE09.jpg,AMSA08.jpg,MS,2,num_6,32,num_4,1.05012582615,,,2017_Jun_26_1135,59.997382879,MAFE4ImagesEEG,001,100844,
AFNE01.JPG,AFNE01.JPG,AFNE01.JPG,AFNE01.JPG,AFNE01.JPG,AFNE01.JPG,3,3,33,8,,,,,,,,,,,,,,,,,,,,,,,AMNE18.jpg,AMNE05.jpg,AMSA08.jpg,AMSA16.jpg,AMNE05.jpg,MN,1,num_6,16,num_6,0.983411989374,,,2017_Jun_26_1135,59.997382879,MAFE4ImagesEEG,001,100844,
AFNE01.JPG,AFNE01.JPG,AFNE01.JPG,AFNE01.JPG,AFNE01.JPG,AFNE01.JPG,3,4,34,1,,,,,,,,,,,,,,,,,,,,,,,AMSA01.jpg,AMSA03.jpg,AMNE20.jpg,AMNE13.jpg,AMSA01.jpg,MS,2,num_8,16,num_8,1.98342225304,,,2017_Jun_26_1135,59.997382879,MAFE4ImagesEEG,001,100844,
AFNE01.JPG,AFNE01.JPG,AFNE01.JPG,AFNE01.JPG,AFNE01.JPG,AFNE01.JPG,3,5,35,5,,,,,,,,,,,,,,,,,,,,,,,AMSA14.jpg,AMNE05.jpg,AMNE10.jpg,AMSA01.jpg,AMSA01.jpg,MS,2,num_4,16,num_4,0.600140676388,,,2017_Jun_26_1135,59.997382879,MAFE4ImagesEEG,001,100844,
AFNE01.JPG,AFNE01.JPG,AFNE01.JPG,AFNE01.JPG,AFNE01.JPG,AFNE01.JPG,3,6,36,4,,,,,,,,,,,,,,,,,,,,,,,AMSA05.jpg,AMNE04.jpg,AMSA12.jpg,AMNE17.jpg,AMNE17.jpg,MN,1,num_4,16,num_4,1.11702472966,,,2017_Jun_26_1135,59.997382879,MAFE4ImagesEEG,001,100844,
AFNE01.JPG,AFNE01.JPG,AFNE01.JPG,AFNE01.JPG,AFNE01.JPG,AFNE01.JPG,3,7,37,9,,,,,,,,,,,,,,,,,,,,,,,AMSA15.jpg,AMNE04.jpg,AMNE19.jpg,AMSA18.jpg,AMNE04.jpg,MN,1,num_6,16,num_6,1.46685733567,,,2017_Jun_26_1135,59.997382879,MAFE4ImagesEEG,001,100844,
AFNE01.JPG,AFNE01.JPG,AFNE01.JPG,AFNE01.JPG,AFNE01.JPG,AFNE01.JPG,3,8,38,6,,,,,,,,,,,,,,,,,,,,,,,AMSA15.jpg,AMNE14.jpg,AMNE13.jpg,AMSA10.jpg,AMSA10.jpg,MS,2,num_4,16,num_4,1.20008281496,,,2017_Jun_26_1135,59.997382879,MAFE4ImagesEEG,001,100844,
AFNE01.JPG,AFNE01.JPG,AFNE01.JPG,AFNE01.JPG,AFNE01.JPG,AFNE01.JPG,3,9,39,7,,,,,,,,,,,,,,,,,,,,,,,AMSA07.jpg,AMNE10.jpg,AMSA13.jpg,AMNE17.jpg,AMSA07.jpg,MS,2,num_8,32,num_2,2.1000338701,,,2017_Jun_26_1135,59.997382879,MAFE4ImagesEEG,001,100844,
AFNE01.JPG,AFNE01.JPG,AFNE01.JPG,AFNE01.JPG,AFNE01.JPG,AFNE01.JPG,4,0,40,9,,,,,,,,,,,,,,,,,,,,,,,AMSA18.jpg,AMSA13.jpg,AMNE07.jpg,AMNE15.jpg,AMSA18.jpg,MS,2,num_8,32,num_6,1.06690082796,,,2017_Jun_26_1135,59.997382879,MAFE4ImagesEEG,001,100844,
AFNE01.JPG,AFNE01.JPG,AFNE01.JPG,AFNE01.JPG,AFNE01.JPG,AFNE01.JPG,4,1,41,1,,,,,,,,,,,,,,,,,,,,,,,AMNE20.jpg,AMNE11.jpg,AMSA15.jpg,AMSA11.jpg,AMNE11.jpg,MN,1,num_6,32,num_8,1.93333395343,,,2017_Jun_26_1135,59.997382879,MAFE4ImagesEEG,001,100844,
AFNE01.JPG,AFNE01.JPG,AFNE01.JPG,AFNE01.JPG,AFNE01.JPG,AFNE01.JPG,4,2,42,0,,,,,,,,,,,,,,,,,,,,,,,AMSA12.jpg,AMNE08.jpg,AMNE16.jpg,AMSA09.jpg,AMNE08.jpg,MN,1,num_6,32,num_2,1.83307492413,,,2017_Jun_26_1135,59.997382879,MAFE4ImagesEEG,001,100844,
AFNE01.JPG,AFNE01.JPG,AFNE01.JPG,AFNE01.JPG,AFNE01.JPG,AFNE01.JPG,4,3,43,7,,,,,,,,,,,,,,,,,,,,,,,AMNE06.jpg,AMSA17.jpg,AMSA02.jpg,AMNE13.jpg,AMSA02.jpg,MS,2,num_2,16,num_2,1.7500546861,,,2017_Jun_26_1135,59.997382879,MAFE4ImagesEEG,001,100844,
AFNE01.JPG,AFNE01.JPG,AFNE01.JPG,AFNE01.JPG,AFNE01.JPG,AFNE01.JPG,4,4,44,4,,,,,,,,,,,,,,,,,,,,,,,AMNE06.jpg,AMSA20.jpg,AMSA11.jpg,AMNE18.jpg,AMNE06.jpg,MN,1,num_8,16,num_8,2.2835777476,,,2017_Jun_26_1135,59.997382879,MAFE4ImagesEEG,001,100844,
AFNE01.JPG,AFNE01.JPG,AFNE01.JPG,AFNE01.JPG,AFNE01.JPG,AFNE01.JPG,4,5,45,3,,,,,,,,,,,,,,,,,,,,,,,AMSA14.jpg,AMNE01.jpg,AMSA20.jpg,AMNE19.jpg,AMSA20.jpg,MS,2,num_2,32,num_4,1.53339765231,,,2017_Jun_26_1135,59.997382879,MAFE4ImagesEEG,001,100844,
AFNE01.JPG,AFNE01.JPG,AFNE01.JPG,AFNE01.JPG,AFNE01.JPG,AFNE01.JPG,4,6,46,6,,,,,,,,,,,,,,,,,,,,,,,AMSA08.jpg,AMNE04.jpg,AMNE15.jpg,AMSA11.jpg,AMNE15.jpg,MN,1,num_2,16,num_2,1.04997988963,,,2017_Jun_26_1135,59.997382879,MAFE4ImagesEEG,001,100844,
AFNE01.JPG,AFNE01.JPG,AFNE01.JPG,AFNE01.JPG,AFNE01.JPG,AFNE01.JPG,4,7,47,8,,,,,,,,,,,,,,,,,,,,,,,AMSA15.jpg,AMNE20.jpg,AMSA07.jpg,AMNE05.jpg,AMNE20.jpg,MN,1,num_6,32,num_8,0.700108794872,,,2017_Jun_26_1135,59.997382879,MAFE4ImagesEEG,001,100844,
AFNE01.JPG,AFNE01.JPG,AFNE01.JPG,AFNE01.JPG,AFNE01.JPG,AFNE01.JPG,4,8,48,5,,,,,,,,,,,,,,,,,,,,,,,AMSA17.jpg,AMNE03.jpg,AMSA11.jpg,AMNE11.jpg,AMSA17.jpg,MS,2,num_8,16,num_8,1.45006950427,,,2017_Jun_26_1135,59.997382879,MAFE4ImagesEEG,001,100844,
AFNE01.JPG,AFNE01.JPG,AFNE01.JPG,AFNE01.JPG,AFNE01.JPG,AFNE01.JPG,4,9,49,2,,,,,,,,,,,,,,,,,,,,,,,AMSA02.jpg,AMNE17.jpg,AMSA14.jpg,AMNE11.jpg,AMSA02.jpg,MS,2,num_8,16,num_8,0.900137404845,,,2017_Jun_26_1135,59.997382879,MAFE4ImagesEEG,001,100844,
AFNE01.JPG,AFNE01.JPG,AFNE01.JPG,AFNE01.JPG,AFNE01.JPG,AFNE01.JPG,5,0,50,7,,,,,,,,,,,,,,,,,,,,,,,AMNE01.jpg,AMSA06.jpg,AMSA19.jpg,AMNE10.jpg,AMSA19.jpg,MS,2,num_2,32,num_6,0.700130284426,,,2017_Jun_26_1135,59.997382879,MAFE4ImagesEEG,001,100844,
AFNE01.JPG,AFNE01.JPG,AFNE01.JPG,AFNE01.JPG,AFNE01.JPG,AFNE01.JPG,5,1,51,2,,,,,,,,,,,,,,,,,,,,,,,AMNE05.jpg,AMSA06.jpg,AMNE15.jpg,AMSA04.jpg,AMSA06.jpg,MS,2,num_6,16,num_6,0.966762717485,,,2017_Jun_26_1135,59.997382879,MAFE4ImagesEEG,001,100844,
AFNE01.JPG,AFNE01.JPG,AFNE01.JPG,AFNE01.JPG,AFNE01.JPG,AFNE01.JPG,5,2,52,3,,,,,,,,,,,,,,,,,,,,,,,AMSA14.jpg,AMNE03.jpg,AMNE11.jpg,AMSA10.jpg,AMNE03.jpg,MN,1,num_6,16,num_6,0.716770896345,,,2017_Jun_26_1135,59.997382879,MAFE4ImagesEEG,001,100844,
AFNE01.JPG,AFNE01.JPG,AFNE01.JPG,AFNE01.JPG,AFNE01.JPG,AFNE01.JPG,5,3,53,4,,,,,,,,,,,,,,,,,,,,,,,AMNE06.jpg,AMSA17.jpg,AMNE12.jpg,AMSA10.jpg,AMSA17.jpg,MS,2,num_6,16,num_6,1.13342767354,,,2017_Jun_26_1135,59.997382879,MAFE4ImagesEEG,001,100844,
AFNE01.JPG,AFNE01.JPG,AFNE01.JPG,AFNE01.JPG,AFNE01.JPG,AFNE01.JPG,5,4,54,9,,,,,,,,,,,,,,,,,,,,,,,AMSA11.jpg,AMNE18.jpg,AMSA19.jpg,AMNE17.jpg,AMSA11.jpg,MS,2,num_8,32,num_2,1.3500917636,,,2017_Jun_26_1135,59.997382879,MAFE4ImagesEEG,001,100844,
AFNE01.JPG,AFNE01.JPG,AFNE01.JPG,AFNE01.JPG,AFNE01.JPG,AFNE01.JPG,5,5,55,1,,,,,,,,,,,,,,,,,,,,,,,AMSA10.jpg,AMNE07.jpg,AMNE18.jpg,AMSA09.jpg,AMSA09.jpg,MS,2,num_4,16,num_4,1.61672066852,,,2017_Jun_26_1135,59.997382879,MAFE4ImagesEEG,001,100844,
AFNE01.JPG,AFNE01.JPG,AFNE01.JPG,AFNE01.JPG,AFNE01.JPG,AFNE01.JPG,5,6,56,8,,,,,,,,,,,,,,,,,,,,,,,AMSA20.jpg,AMNE20.jpg,AMSA16.jpg,AMNE01.jpg,AMSA20.jpg,MS,2,num_8,32,num_6,0.866757393209,,,2017_Jun_26_1135,59.997382879,MAFE4ImagesEEG,001,100844,
AFNE01.JPG,AFNE01.JPG,AFNE01.JPG,AFNE01.JPG,AFNE01.JPG,AFNE01.JPG,5,7,57,0,,,,,,,,,,,,,,,,,,,,,,,AMNE05.jpg,AMSA08.jpg,AMSA18.jpg,AMNE15.jpg,AMNE15.jpg,MN,1,num_4,32,num_8,1.71672406836,,,2017_Jun_26_1135,59.997382879,MAFE4ImagesEEG,001,100844,
AFNE01.JPG,AFNE01.JPG,AFNE01.JPG,AFNE01.JPG,AFNE01.JPG,AFNE01.JPG,5,8,58,6,,,,,,,,,,,,,,,,,,,,,,,AMNE01.jpg,AMSA17.jpg,AMNE14.jpg,AMSA02.jpg,AMSA02.jpg,MS,2,num_4,16,num_4,1.00002694213,,,2017_Jun_26_1135,59.997382879,MAFE4ImagesEEG,001,100844,
AFNE01.JPG,AFNE01.JPG,AFNE01.JPG,AFNE01.JPG,AFNE01.JPG,AFNE01.JPG,5,9,59,5,,,,,,,,,,,,,,,,,,,,,,,AMSA09.jpg,AMSA07.jpg,AMNE12.jpg,AMNE13.jpg,AMSA09.jpg,MS,2,num_8,32,num_2,2.01673009827,,,2017_Jun_26_1135,59.997382879,MAFE4ImagesEEG,001,100844,
,,,,,,,,,,,,,,,,,,,,,,,,,,,,,,,,,,,,,,,,,,,space,62.5452977329,2017_Jun_26_1135,59.997382879,MAFE4ImagesEEG,001,100844,
AFNE01.JPG,AFNE01.JPG,AFNE01.JPG,AFNE01.JPG,AFNE01.JPG,AFNE01.JPG,,,,,0,0,0,7,,,,,,,,,,,,,,,,,,,AFNE10.jpg,AFNE02.jpg,AFSA10.jpg,AFSA05.jpg,AFNE10.jpg,FN,3,num_8,32,num_2,0.68316572551,,,2017_Jun_26_1135,59.997382879,MAFE4ImagesEEG,001,100844,
AFNE01.JPG,AFNE01.JPG,AFNE01.JPG,AFNE01.JPG,AFNE01.JPG,AFNE01.JPG,,,,,0,1,1,9,,,,,,,,,,,,,,,,,,,AFSA15.jpg,AFSA12.jpg,AFNE14.jpg,AFNE08.jpg,AFSA12.jpg,FS,4,num_6,16,num_6,0.46664693049,,,2017_Jun_26_1135,59.997382879,MAFE4ImagesEEG,001,100844,
AFNE01.JPG,AFNE01.JPG,AFNE01.JPG,AFNE01.JPG,AFNE01.JPG,AFNE01.JPG,,,,,0,2,2,8,,,,,,,,,,,,,,,,,,,AFSA19.jpg,AFNE14.jpg,AFSA14.jpg,AFNE01.jpg,AFSA19.jpg,FS,4,num_8,32,num_6,0.650126339328,,,2017_Jun_26_1135,59.997382879,MAFE4ImagesEEG,001,100844,
AFNE01.JPG,AFNE01.JPG,AFNE01.JPG,AFNE01.JPG,AFNE01.JPG,AFNE01.JPG,,,,,0,3,3,3,,,,,,,,,,,,,,,,,,,AFNE13.jpg,AFNE15.jpg,AFSA14.jpg,AFSA18.jpg,AFNE13.jpg,FN,3,num_8,32,num_6,0.600158317066,,,2017_Jun_26_1135,59.997382879,MAFE4ImagesEEG,001,100844,
AFNE01.JPG,AFNE01.JPG,AFNE01.JPG,AFNE01.JPG,AFNE01.JPG,AFNE01.JPG,,,,,0,4,4,6,,,,,,,,,,,,,,,,,,,AFSA11.jpg,AFSA03.jpg,AFNE05.jpg,AFNE08.jpg,AFNE08.jpg,FN,3,num_4,16,num_4,1.08341218182,,,2017_Jun_26_1135,59.997382879,MAFE4ImagesEEG,001,100844,
AFNE01.JPG,AFNE01.JPG,AFNE01.JPG,AFNE01.JPG,AFNE01.JPG,AFNE01.JPG,,,,,0,5,5,2,,,,,,,,,,,,,,,,,,,AFSA11.jpg,AFSA07.jpg,AFNE20.jpg,AFNE06.jpg,AFNE20.jpg,FN,3,num_2,32,num_4,2.26662249013,,,2017_Jun_26_1135,59.997382879,MAFE4ImagesEEG,001,100844,
AFNE01.JPG,AFNE01.JPG,AFNE01.JPG,AFNE01.JPG,AFNE01.JPG,AFNE01.JPG,,,,,0,6,6,5,,,,,,,,,,,,,,,,,,,AFSA19.jpg,AFNE19.jpg,AFSA07.jpg,AFNE20.jpg,AFSA19.jpg,FS,4,num_8,32,num_6,0.983265090638,,,2017_Jun_26_1135,59.997382879,MAFE4ImagesEEG,001,100844,
AFNE01.JPG,AFNE01.JPG,AFNE01.JPG,AFNE01.JPG,AFNE01.JPG,AFNE01.JPG,,,,,0,7,7,4,,,,,,,,,,,,,,,,,,,AFSA10.jpg,AFSA02.jpg,AFNE03.jpg,AFNE18.jpg,AFNE18.jpg,FN,3,num_4,16,num_4,0.766768426651,,,2017_Jun_26_1135,59.997382879,MAFE4ImagesEEG,001,100844,
AFNE01.JPG,AFNE01.JPG,AFNE01.JPG,AFNE01.JPG,AFNE01.JPG,AFNE01.JPG,,,,,0,8,8,1,,,,,,,,,,,,,,,,,,,AFNE08.jpg,AFNE05.jpg,AFSA14.jpg,AFSA13.jpg,AFSA14.jpg,FS,4,num_2,32,num_6,0.916774488629,,,2017_Jun_26_1135,59.997382879,MAFE4ImagesEEG,001,100844,
AFNE01.JPG,AFNE01.JPG,AFNE01.JPG,AFNE01.JPG,AFNE01.JPG,AFNE01.JPG,,,,,0,9,9,0,,,,,,,,,,,,,,,,,,,AFSA20.jpg,AFSA17.jpg,AFNE17.jpg,AFNE05.jpg,AFNE17.jpg,FN,3,num_2,32,num_8,0.966735775359,,,2017_Jun_26_1135,59.997382879,MAFE4ImagesEEG,001,100844,
AFNE01.JPG,AFNE01.JPG,AFNE01.JPG,AFNE01.JPG,AFNE01.JPG,AFNE01.JPG,,,,,1,0,10,0,,,,,,,,,,,,,,,,,,,AFNE12.jpg,AFNE13.jpg,AFSA07.jpg,AFSA09.jpg,AFNE12.jpg,FN,3,num_8,16,num_8,0.716754538626,,,2017_Jun_26_1135,59.997382879,MAFE4ImagesEEG,001,100844,
AFNE01.JPG,AFNE01.JPG,AFNE01.JPG,AFNE01.JPG,AFNE01.JPG,AFNE01.JPG,,,,,1,1,11,7,,,,,,,,,,,,,,,,,,,AFNE09.jpg,AFSA02.jpg,AFSA20.jpg,AFNE05.jpg,AFSA02.jpg,FS,4,num_6,32,num_8,0.966740265713,,,2017_Jun_26_1135,59.997382879,MAFE4ImagesEEG,001,100844,
AFNE01.JPG,AFNE01.JPG,AFNE01.JPG,AFNE01.JPG,AFNE01.JPG,AFNE01.JPG,,,,,1,2,12,1,,,,,,,,,,,,,,,,,,,AFNE08.jpg,AFNE07.jpg,AFSA03.jpg,AFSA14.jpg,AFNE08.jpg,FN,3,num_8,16,num_8,0.750150587242,,,2017_Jun_26_1135,59.997382879,MAFE4ImagesEEG,001,100844,
AFNE01.JPG,AFNE01.JPG,AFNE01.JPG,AFNE01.JPG,AFNE01.JPG,AFNE01.JPG,,,,,1,3,13,3,,,,,,,,,,,,,,,,,,,AFNE20.jpg,AFSA07.jpg,AFNE05.jpg,AFSA02.jpg,AFNE20.jpg,FN,3,num_8,16,num_8,0.716789819981,,,2017_Jun_26_1135,59.997382879,MAFE4ImagesEEG,001,100844,
AFNE01.JPG,AFNE01.JPG,AFNE01.JPG,AFNE01.JPG,AFNE01.JPG,AFNE01.JPG,,,,,1,4,14,9,,,,,,,,,,,,,,,,,,,AFNE06.jpg,AFNE15.jpg,AFSA13.jpg,AFSA08.jpg,AFNE06.jpg,FN,3,num_8,16,num_8,1.18376390486,,,2017_Jun_26_1135,59.997382879,MAFE4ImagesEEG,001,100844,
AFNE01.JPG,AFNE01.JPG,AFNE01.JPG,AFNE01.JPG,AFNE01.JPG,AFNE01.JPG,,,,,1,5,15,5,,,,,,,,,,,,,,,,,,,AFNE17.jpg,AFSA12.jpg,AFSA08.jpg,AFNE09.jpg,AFSA12.jpg,FS,4,num_6,16,num_6,1.23342145119,,,2017_Jun_26_1135,59.997382879,MAFE4ImagesEEG,001,100844,
AFNE01.JPG,AFNE01.JPG,AFNE01.JPG,AFNE01.JPG,AFNE01.JPG,AFNE01.JPG,,,,,1,6,16,2,,,,,,,,,,,,,,,,,,,AFNE10.jpg,AFNE15.jpg,AFSA12.jpg,AFSA11.jpg,AFSA11.jpg,FS,4,num_4,16,num_4,0.650217750114,,,2017_Jun_26_1135,59.997382879,MAFE4ImagesEEG,001,100844,
AFNE01.JPG,AFNE01.JPG,AFNE01.JPG,AFNE01.JPG,AFNE01.JPG,AFNE01.JPG,,,,,1,7,17,8,,,,,,,,,,,,,,,,,,,AFSA08.jpg,AFNE03.jpg,AFNE17.jpg,AFSA02.jpg,AFSA02.jpg,FS,4,num_4,32,num_2,3.66655237646,,,2017_Jun_26_1135,59.997382879,MAFE4ImagesEEG,001,100844,
AFNE01.JPG,AFNE01.JPG,AFNE01.JPG,AFNE01.JPG,AFNE01.JPG,AFNE01.JPG,,,,,1,8,18,4,,,,,,,,,,,,,,,,,,,AFSA10.jpg,AFNE02.jpg,AFSA17.jpg,AFNE09.jpg,AFSA10.jpg,FS,4,num_8,16,num_8,1.05008926183,,,2017_Jun_26_1135,59.997382879,MAFE4ImagesEEG,001,100844,
AFNE01.JPG,AFNE01.JPG,AFNE01.JPG,AFNE01.JPG,AFNE01.JPG,AFNE01.JPG,,,,,1,9,19,6,,,,,,,,,,,,,,,,,,,AFSA05.jpg,AFSA15.jpg,AFNE08.jpg,AFNE13.jpg,AFSA05.jpg,FS,4,num_8,32,num_2,3.74992029621,,,2017_Jun_26_1135,59.997382879,MAFE4ImagesEEG,001,100844,
AFNE01.JPG,AFNE01.JPG,AFNE01.JPG,AFNE01.JPG,AFNE01.JPG,AFNE01.JPG,,,,,2,0,20,5,,,,,,,,,,,,,,,,,,,AFNE13.jpg,AFSA04.jpg,AFSA05.jpg,AFNE06.jpg,AFNE06.jpg,FN,3,num_4,32,num_6,0.700316313393,,,2017_Jun_26_1135,59.997382879,MAFE4ImagesEEG,001,100844,
AFNE01.JPG,AFNE01.JPG,AFNE01.JPG,AFNE01.JPG,AFNE01.JPG,AFNE01.JPG,,,,,2,1,21,8,,,,,,,,,,,,,,,,,,,AFSA16.jpg,AFNE03.jpg,AFSA02.jpg,AFNE20.jpg,AFNE03.jpg,FN,3,num_6,16,num_6,0.966895824419,,,2017_Jun_26_1135,59.997382879,MAFE4ImagesEEG,001,100844,
AFNE01.JPG,AFNE01.JPG,AFNE01.JPG,AFNE01.JPG,AFNE01.JPG,AFNE01.JPG,,,,,2,2,22,1,,,,,,,,,,,,,,,,,,,AFSA09.jpg,AFSA17.jpg,AFNE15.jpg,AFNE16.jpg,AFSA09.jpg,FS,4,num_8,32,num_6,1.01664734745,,,2017_Jun_26_1135,59.997382879,MAFE4ImagesEEG,001,100844,
AFNE01.JPG,AFNE01.JPG,AFNE01.JPG,AFNE01.JPG,AFNE01.JPG,AFNE01.JPG,,,,,2,3,23,2,,,,,,,,,,,,,,,,,,,AFSA17.jpg,AFSA10.jpg,AFNE20.jpg,AFNE10.jpg,AFSA17.jpg,FS,4,num_8,16,num_8,0.883480435205,,,2017_Jun_26_1135,59.997382879,MAFE4ImagesEEG,001,100844,
AFNE01.JPG,AFNE01.JPG,AFNE01.JPG,AFNE01.JPG,AFNE01.JPG,AFNE01.JPG,,,,,2,4,24,9,,,,,,,,,,,,,,,,,,,AFSA10.jpg,AFNE11.jpg,AFSA13.jpg,AFNE10.jpg,AFNE10.jpg,FN,3,num_4,16,num_4,0.700131567384,,,2017_Jun_26_1135,59.997382879,MAFE4ImagesEEG,001,100844,
AFNE01.JPG,AFNE01.JPG,AFNE01.JPG,AFNE01.JPG,AFNE01.JPG,AFNE01.JPG,,,,,2,5,25,7,,,,,,,,,,,,,,,,,,,AFSA18.jpg,AFNE03.jpg,AFSA03.jpg,AFNE06.jpg,AFSA03.jpg,FS,4,num_2,32,num_8,1.41680046854,,,2017_Jun_26_1135,59.997382879,MAFE4ImagesEEG,001,100844,
AFNE01.JPG,AFNE01.JPG,AFNE01.JPG,AFNE01.JPG,AFNE01.JPG,AFNE01.JPG,,,,,2,6,26,0,,,,,,,,,,,,,,,,,,,AFNE02.jpg,AFNE09.jpg,AFSA17.jpg,AFSA13.jpg,AFNE02.jpg,FN,3,num_8,32,num_6,1.25010279704,,,2017_Jun_26_1135,59.997382879,MAFE4ImagesEEG,001,100844,
AFNE01.JPG,AFNE01.JPG,AFNE01.JPG,AFNE01.JPG,AFNE01.JPG,AFNE01.JPG,,,,,2,7,27,4,,,,,,,,,,,,,,,,,,,AFNE10.jpg,AFSA19.jpg,AFNE04.jpg,AFSA01.jpg,AFSA19.jpg,FS,4,num_6,32,num_4,1.25004281874,,,2017_Jun_26_1135,59.997382879,MAFE4ImagesEEG,001,100844,
AFNE01.JPG,AFNE01.JPG,AFNE01.JPG,AFNE01.JPG,AFNE01.JPG,AFNE01.JPG,,,,,2,8,28,6,,,,,,,,,,,,,,,,,,,AFNE17.jpg,AFNE11.jpg,AFSA15.jpg,AFSA03.jpg,AFSA15.jpg,FS,4,num_2,16,num_2,0.850100423569,,,2017_Jun_26_1135,59.997382879,MAFE4ImagesEEG,001,100844,
AFNE01.JPG,AFNE01.JPG,AFNE01.JPG,AFNE01.JPG,AFNE01.JPG,AFNE01.JPG,,,,,2,9,29,3,,,,,,,,,,,,,,,,,,,AFNE13.jpg,AFNE06.jpg,AFSA19.jpg,AFSA11.jpg,AFNE13.jpg,FN,3,num_8,16,num_8,0.883432965744,,,2017_Jun_26_1135,59.997382879,MAFE4ImagesEEG,001,100844,
AFNE01.JPG,AFNE01.JPG,AFNE01.JPG,AFNE01.JPG,AFNE01.JPG,AFNE01.JPG,,,,,3,0,30,7,,,,,,,,,,,,,,,,,,,AFSA10.jpg,AFSA13.jpg,AFNE14.jpg,AFNE19.jpg,AFSA13.jpg,FS,4,num_6,16,num_6,0.800142664974,,,2017_Jun_26_1135,59.997382879,MAFE4ImagesEEG,001,100844,
AFNE01.JPG,AFNE01.JPG,AFNE01.JPG,AFNE01.JPG,AFNE01.JPG,AFNE01.JPG,,,,,3,1,31,6,,,,,,,,,,,,,,,,,,,AFSA10.jpg,AFNE06.jpg,AFNE02.jpg,AFSA12.jpg,AFSA12.jpg,FS,4,num_4,32,num_2,1.7833833794,,,2017_Jun_26_1135,59.997382879,MAFE4ImagesEEG,001,100844,
AFNE01.JPG,AFNE01.JPG,AFNE01.JPG,AFNE01.JPG,AFNE01.JPG,AFNE01.JPG,,,,,3,2,32,0,,,,,,,,,,,,,,,,,,,AFSA09.jpg,AFNE15.jpg,AFSA12.jpg,AFNE07.jpg,AFSA09.jpg,FS,4,num_8,16,num_8,1.54977814442,,,2017_Jun_26_1135,59.997382879,MAFE4ImagesEEG,001,100844,
AFNE01.JPG,AFNE01.JPG,AFNE01.JPG,AFNE01.JPG,AFNE01.JPG,AFNE01.JPG,,,,,3,3,33,3,,,,,,,,,,,,,,,,,,,AFSA03.jpg,AFSA05.jpg,AFNE05.jpg,AFNE02.jpg,AFNE02.jpg,FN,3,num_4,16,num_4,1.55004564125,,,2017_Jun_26_1135,59.997382879,MAFE4ImagesEEG,001,100844,
AFNE01.JPG,AFNE01.JPG,AFNE01.JPG,AFNE01.JPG,AFNE01.JPG,AFNE01.JPG,,,,,3,4,34,1,,,,,,,,,,,,,,,,,,,AFNE04.jpg,AFNE12.jpg,AFSA03.jpg,AFSA19.jpg,AFSA19.jpg,FS,4,num_4,16,num_4,0.550121335791,,,2017_Jun_26_1135,59.997382879,MAFE4ImagesEEG,001,100844,
AFNE01.JPG,AFNE01.JPG,AFNE01.JPG,AFNE01.JPG,AFNE01.JPG,AFNE01.JPG,,,,,3,5,35,2,,,,,,,,,,,,,,,,,,,AFNE20.jpg,AFNE08.jpg,AFSA08.jpg,AFSA11.jpg,AFNE08.jpg,FN,3,num_6,16,num_6,0.816785201331,,,2017_Jun_26_1135,59.997382879,MAFE4ImagesEEG,001,100844,
AFNE01.JPG,AFNE01.JPG,AFNE01.JPG,AFNE01.JPG,AFNE01.JPG,AFNE01.JPG,,,,,3,6,36,4,,,,,,,,,,,,,,,,,,,AFNE07.jpg,AFNE03.jpg,AFSA06.jpg,AFSA15.jpg,AFNE03.jpg,FN,3,num_6,16,num_6,1.18337613069,,,2017_Jun_26_1135,59.997382879,MAFE4ImagesEEG,001,100844,
AFNE01.JPG,AFNE01.JPG,AFNE01.JPG,AFNE01.JPG,AFNE01.JPG,AFNE01.JPG,,,,,3,7,37,8,,,,,,,,,,,,,,,,,,,AFNE15.jpg,AFNE11.jpg,AFSA07.jpg,AFSA01.jpg,AFNE15.jpg,FN,3,num_8,16,num_8,1.01673907898,,,2017_Jun_26_1135,59.997382879,MAFE4ImagesEEG,001,100844,
AFNE01.JPG,AFNE01.JPG,AFNE01.JPG,AFNE01.JPG,AFNE01.JPG,AFNE01.JPG,,,,,3,8,38,9,,,,,,,,,,,,,,,,,,,AFSA10.jpg,AFNE19.jpg,AFSA15.jpg,AFNE16.jpg,AFNE16.jpg,FN,3,num_4,16,num_4,1.41669783186,,,2017_Jun_26_1135,59.997382879,MAFE4ImagesEEG,001,100844,
AFNE01.JPG,AFNE01.JPG,AFNE01.JPG,AFNE01.JPG,AFNE01.JPG,AFNE01.JPG,,,,,3,9,39,5,,,,,,,,,,,,,,,,,,,AFSA13.jpg,AFNE08.jpg,AFSA14.jpg,AFNE06.jpg,AFSA14.jpg,FS,4,num_2,16,num_2,1.4000925013,,,2017_Jun_26_1135,59.997382879,MAFE4ImagesEEG,001,100844,
AFNE01.JPG,AFNE01.JPG,AFNE01.JPG,AFNE01.JPG,AFNE01.JPG,AFNE01.JPG,,,,,4,0,40,0,,,,,,,,,,,,,,,,,,,AFNE10.jpg,AFSA01.jpg,AFNE14.jpg,AFSA20.jpg,AFNE14.jpg,FN,3,num_2,32,num_8,0.883417249504,,,2017_Jun_26_1135,59.997382879,MAFE4ImagesEEG,001,100844,
AFNE01.JPG,AFNE01.JPG,AFNE01.JPG,AFNE01.JPG,AFNE01.JPG,AFNE01.JPG,,,,,4,1,41,4,,,,,,,,,,,,,,,,,,,AFNE10.jpg,AFSA05.jpg,AFNE12.jpg,AFSA13.jpg,AFNE10.jpg,FN,3,num_8,32,num_2,0.966629610552,,,2017_Jun_26_1135,59.997382879,MAFE4ImagesEEG,001,100844,
AFNE01.JPG,AFNE01.JPG,AFNE01.JPG,AFNE01.JPG,AFNE01.JPG,AFNE01.JPG,,,,,4,2,42,3,,,,,,,,,,,,,,,,,,,AFSA13.jpg,AFNE16.jpg,AFSA09.jpg,AFNE02.jpg,AFNE02.jpg,FN,3,num_4,32,num_2,0.966738982755,,,2017_Jun_26_1135,59.997382879,MAFE4ImagesEEG,001,100844,
AFNE01.JPG,AFNE01.JPG,AFNE01.JPG,AFNE01.JPG,AFNE01.JPG,AFNE01.JPG,,,,,4,3,43,5,,,,,,,,,,,,,,,,,,,AFSA07.jpg,AFNE02.jpg,AFNE19.jpg,AFSA11.jpg,AFSA07.jpg,FS,4,num_8,32,num_2,1.30009904439,,,2017_Jun_26_1135,59.997382879,MAFE4ImagesEEG,001,100844,
AFNE01.JPG,AFNE01.JPG,AFNE01.JPG,AFNE01.JPG,AFNE01.JPG,AFNE01.JPG,,,,,4,4,44,8,,,,,,,,,,,,,,,,,,,AFSA06.jpg,AFSA02.jpg,AFNE15.jpg,AFNE06.jpg,AFNE15.jpg,FN,3,num_2,32,num_4,1.08344778391,,,2017_Jun_26_1135,59.997382879,MAFE4ImagesEEG,001,100844,
AFNE01.JPG,AFNE01.JPG,AFNE01.JPG,AFNE01.JPG,AFNE01.JPG,AFNE01.JPG,,,,,4,5,45,7,,,,,,,,,,,,,,,,,,,AFSA05.jpg,AFNE17.jpg,AFNE07.jpg,AFSA07.jpg,AFSA05.jpg,FS,4,num_8,32,num_6,0.950091956043,,,2017_Jun_26_1135,59.997382879,MAFE4ImagesEEG,001,100844,
AFNE01.JPG,AFNE01.JPG,AFNE01.JPG,AFNE01.JPG,AFNE01.JPG,AFNE01.JPG,,,,,4,6,46,6,,,,,,,,,,,,,,,,,,,AFSA10.jpg,AFSA19.jpg,AFNE20.jpg,AFNE08.jpg,AFNE20.jpg,FN,3,num_2,16,num_2,1.21707784414,,,2017_Jun_26_1135,59.997382879,MAFE4ImagesEEG,001,100844,
AFNE01.JPG,AFNE01.JPG,AFNE01.JPG,AFNE01.JPG,AFNE01.JPG,AFNE01.JPG,,,,,4,7,47,1,,,,,,,,,,,,,,,,,,,AFNE12.jpg,AFSA17.jpg,AFNE18.jpg,AFSA20.jpg,AFSA17.jpg,FS,4,num_6,32,num_4,1.6334735393,,,2017_Jun_26_1135,59.997382879,MAFE4ImagesEEG,001,100844,
AFNE01.JPG,AFNE01.JPG,AFNE01.JPG,AFNE01.JPG,AFNE01.JPG,AFNE01.JPG,,,,,4,8,48,2,,,,,,,,,,,,,,,,,,,AFSA04.jpg,AFNE08.jpg,AFSA05.jpg,AFNE12.jpg,AFSA05.jpg,FS,4,num_2,16,num_2,1.23344999702,,,2017_Jun_26_1135,59.997382879,MAFE4ImagesEEG,001,100844,
AFNE01.JPG,AFNE01.JPG,AFNE01.JPG,AFNE01.JPG,AFNE01.JPG,AFNE01.JPG,,,,,4,9,49,9,,,,,,,,,,,,,,,,,,,AFNE11.jpg,AFNE06.jpg,AFSA11.jpg,AFSA03.jpg,AFNE06.jpg,FN,3,num_6,32,num_4,0.983388575383,,,2017_Jun_26_1135,59.997382879,MAFE4ImagesEEG,001,100844,
AFNE01.JPG,AFNE01.JPG,AFNE01.JPG,AFNE01.JPG,AFNE01.JPG,AFNE01.JPG,,,,,5,0,50,0,,,,,,,,,,,,,,,,,,,AFSA17.jpg,AFNE04.jpg,AFNE16.jpg,AFSA15.jpg,AFSA17.jpg,FS,4,num_8,16,num_8,2.1832093461,,,2017_Jun_26_1135,59.997382879,MAFE4ImagesEEG,001,100844,
AFNE01.JPG,AFNE01.JPG,AFNE01.JPG,AFNE01.JPG,AFNE01.JPG,AFNE01.JPG,,,,,5,1,51,9,,,,,,,,,,,,,,,,,,,AFSA13.jpg,AFSA10.jpg,AFNE13.jpg,AFNE11.jpg,AFNE13.jpg,FN,3,num_2,32,num_4,0.966814998041,,,2017_Jun_26_1135,59.997382879,MAFE4ImagesEEG,001,100844,
AFNE01.JPG,AFNE01.JPG,AFNE01.JPG,AFNE01.JPG,AFNE01.JPG,AFNE01.JPG,,,,,5,2,52,1,,,,,,,,,,,,,,,,,,,AFNE19.jpg,AFSA15.jpg,AFNE14.jpg,AFSA01.jpg,AFNE14.jpg,FN,3,num_2,32,num_8,0.950109596721,,,2017_Jun_26_1135,59.997382879,MAFE4ImagesEEG,001,100844,
AFNE01.JPG,AFNE01.JPG,AFNE01.JPG,AFNE01.JPG,AFNE01.JPG,AFNE01.JPG,,,,,5,3,53,6,,,,,,,,,,,,,,,,,,,AFSA05.jpg,AFSA20.jpg,AFNE20.jpg,AFNE13.jpg,AFSA20.jpg,FS,4,num_6,16,num_6,2.53302270772,,,2017_Jun_26_1135,59.997382879,MAFE4ImagesEEG,001,100844,
AFNE01.JPG,AFNE01.JPG,AFNE01.JPG,AFNE01.JPG,AFNE01.JPG,AFNE01.JPG,,,,,5,4,54,8,,,,,,,,,,,,,,,,,,,AFNE05.jpg,AFSA02.jpg,AFSA11.jpg,AFNE08.jpg,AFNE05.jpg,FN,3,num_8,16,num_8,1.71670322029,,,2017_Jun_26_1135,59.997382879,MAFE4ImagesEEG,001,100844,
AFNE01.JPG,AFNE01.JPG,AFNE01.JPG,AFNE01.JPG,AFNE01.JPG,AFNE01.JPG,,,,,5,5,55,7,,,,,,,,,,,,,,,,,,,AFSA05.jpg,AFNE17.jpg,AFNE07.jpg,AFSA04.jpg,AFSA04.jpg,FS,4,num_4,32,num_6,2.28332275962,,,2017_Jun_26_1135,59.997382879,MAFE4ImagesEEG,001,100844,
AFNE01.JPG,AFNE01.JPG,AFNE01.JPG,AFNE01.JPG,AFNE01.JPG,AFNE01.JPG,,,,,5,6,56,4,,,,,,,,,,,,,,,,,,,AFSA05.jpg,AFNE12.jpg,AFNE13.jpg,AFSA07.jpg,AFSA07.jpg,FS,4,num_4,16,num_4,0.550163352678,,,2017_Jun_26_1135,59.997382879,MAFE4ImagesEEG,001,100844,
AFNE01.JPG,AFNE01.JPG,AFNE01.JPG,AFNE01.JPG,AFNE01.JPG,AFNE01.JPG,,,,,5,7,57,2,,,,,,,,,,,,,,,,,,,AFSA03.jpg,AFSA02.jpg,AFNE04.jpg,AFNE07.jpg,AFNE07.jpg,FN,3,num_4,16,num_4,0.766745974878,,,2017_Jun_26_1135,59.997382879,MAFE4ImagesEEG,001,100844,
AFNE01.JPG,AFNE01.JPG,AFNE01.JPG,AFNE01.JPG,AFNE01.JPG,AFNE01.JPG,,,,,5,8,58,3,,,,,,,,,,,,,,,,,,,AFNE08.jpg,AFNE01.jpg,AFSA16.jpg,AFSA06.jpg,AFSA16.jpg,FS,4,num_2,32,num_6,1.33344986872,,,2017_Jun_26_1135,59.997382879,MAFE4ImagesEEG,001,100844,
AFNE01.JPG,AFNE01.JPG,AFNE01.JPG,AFNE01.JPG,AFNE01.JPG,AFNE01.JPG,,,,,5,9,59,5,,,,,,,,,,,,,,,,,,,AFNE11.jpg,AFNE17.jpg,AFSA14.jpg,AFSA05.jpg,AFNE17.jpg,FN,3,num_6,32,num_2,1.20005908023,,,2017_Jun_26_1135,59.997382879,MAFE4ImagesEEG,001,100844,
,,,,,,,,,,,,,,,,,,,,,,,,,,,,,,,,,,,,,,,,,,,space,95.8426948669,2017_Jun_26_1135,59.997382879,MAFE4ImagesEEG,001,100844,
AFNE01.JPG,AFNE01.JPG,AFNE01.JPG,AFNE01.JPG,AFNE01.JPG,AFNE01.JPG,,,,,,,,,0,0,0,0,,,,,,,,,,,,,,,AMSA12.jpg,AMNE12.jpg,AMSA15.jpg,AMNE13.jpg,AMSA12.jpg,MS,2,num_8,32,num_4,1.16675893276,,,2017_Jun_26_1135,59.997382879,MAFE4ImagesEEG,001,100844,
AFNE01.JPG,AFNE01.JPG,AFNE01.JPG,AFNE01.JPG,AFNE01.JPG,AFNE01.JPG,,,,,,,,,0,1,1,9,,,,,,,,,,,,,,,AMNE14.jpg,AMSA12.jpg,AMSA02.jpg,AMNE12.jpg,AMSA02.jpg,MS,2,num_2,16,num_2,0.683274776974,,,2017_Jun_26_1135,59.997382879,MAFE4ImagesEEG,001,100844,
AFNE01.JPG,AFNE01.JPG,AFNE01.JPG,AFNE01.JPG,AFNE01.JPG,AFNE01.JPG,,,,,,,,,0,2,2,6,,,,,,,,,,,,,,,AMNE12.jpg,AMSA14.jpg,AMNE03.jpg,AMSA11.jpg,AMNE03.jpg,MN,1,num_2,16,num_2,0.633503047346,,,2017_Jun_26_1135,59.997382879,MAFE4ImagesEEG,001,100844,
AFNE01.JPG,AFNE01.JPG,AFNE01.JPG,AFNE01.JPG,AFNE01.JPG,AFNE01.JPG,,,,,,,,,0,3,3,8,,,,,,,,,,,,,,,AMNE03.jpg,AMNE15.jpg,AMSA16.jpg,AMSA03.jpg,AMSA03.jpg,MS,2,num_4,16,num_4,0.600228238299,,,2017_Jun_26_1135,59.997382879,MAFE4ImagesEEG,001,100844,
AFNE01.JPG,AFNE01.JPG,AFNE01.JPG,AFNE01.JPG,AFNE01.JPG,AFNE01.JPG,,,,,,,,,0,4,4,3,,,,,,,,,,,,,,,AMSA04.jpg,AMNE05.jpg,AMNE14.jpg,AMSA17.jpg,AMSA04.jpg,MS,2,num_8,16,num_8,0.999969529738,,,2017_Jun_26_1135,59.997382879,MAFE4ImagesEEG,001,100844,
AFNE01.JPG,AFNE01.JPG,AFNE01.JPG,AFNE01.JPG,AFNE01.JPG,AFNE01.JPG,,,,,,,,,0,5,5,5,,,,,,,,,,,,,,,AMSA09.jpg,AMNE19.jpg,AMNE15.jpg,AMSA05.jpg,AMSA05.jpg,MS,2,num_4,32,num_2,2.03339797305,,,2017_Jun_26_1135,59.997382879,MAFE4ImagesEEG,001,100844,
AFNE01.JPG,AFNE01.JPG,AFNE01.JPG,AFNE01.JPG,AFNE01.JPG,AFNE01.JPG,,,,,,,,,0,6,6,1,,,,,,,,,,,,,,,AMSA10.jpg,AMNE13.jpg,AMSA12.jpg,AMNE20.jpg,AMSA12.jpg,MS,2,num_2,32,num_8,0.950080088678,,,2017_Jun_26_1135,59.997382879,MAFE4ImagesEEG,001,100844,
AFNE01.JPG,AFNE01.JPG,AFNE01.JPG,AFNE01.JPG,AFNE01.JPG,AFNE01.JPG,,,,,,,,,0,7,7,7,,,,,,,,,,,,,,,AMSA14.jpg,AMSA18.jpg,AMNE14.jpg,AMNE05.jpg,AMSA14.jpg,MS,2,num_8,16,num_8,0.733464430299,,,2017_Jun_26_1135,59.997382879,MAFE4ImagesEEG,001,100844,
AFNE01.JPG,AFNE01.JPG,AFNE01.JPG,AFNE01.JPG,AFNE01.JPG,AFNE01.JPG,,,,,,,,,0,8,8,2,,,,,,,,,,,,,,,AMSA01.jpg,AMSA19.jpg,AMNE16.jpg,AMNE09.jpg,AMNE16.jpg,MN,1,num_2,32,num_4,1.05014090091,,,2017_Jun_26_1135,59.997382879,MAFE4ImagesEEG,001,100844,
AFNE01.JPG,AFNE01.JPG,AFNE01.JPG,AFNE01.JPG,AFNE01.JPG,AFNE01.JPG,,,,,,,,,0,9,9,4,,,,,,,,,,,,,,,AMNE04.jpg,AMNE16.jpg,AMSA20.jpg,AMSA11.jpg,AMNE04.jpg,MN,1,num_8,16,num_8,1.06671800639,,,2017_Jun_26_1135,59.997382879,MAFE4ImagesEEG,001,100844,
AFNE01.JPG,AFNE01.JPG,AFNE01.JPG,AFNE01.JPG,AFNE01.JPG,AFNE01.JPG,,,,,,,,,1,0,10,5,,,,,,,,,,,,,,,AMSA07.jpg,AMNE16.jpg,AMSA13.jpg,AMNE15.jpg,AMSA13.jpg,MS,2,num_2,16,num_2,1.23341054605,,,2017_Jun_26_1135,59.997382879,MAFE4ImagesEEG,001,100844,
AFNE01.JPG,AFNE01.JPG,AFNE01.JPG,AFNE01.JPG,AFNE01.JPG,AFNE01.JPG,,,,,,,,,1,1,11,8,,,,,,,,,,,,,,,AMSA18.jpg,AMNE12.jpg,AMSA08.jpg,AMNE03.jpg,AMNE12.jpg,MN,1,num_6,16,num_6,1.45009067309,,,2017_Jun_26_1135,59.997382879,MAFE4ImagesEEG,001,100844,
AFNE01.JPG,AFNE01.JPG,AFNE01.JPG,AFNE01.JPG,AFNE01.JPG,AFNE01.JPG,,,,,,,,,1,2,12,4,,,,,,,,,,,,,,,AMSA01.jpg,AMNE18.jpg,AMNE17.jpg,AMSA18.jpg,AMSA18.jpg,MS,2,num_4,16,num_4,1.13342671132,,,2017_Jun_26_1135,59.997382879,MAFE4ImagesEEG,001,100844,
AFNE01.JPG,AFNE01.JPG,AFNE01.JPG,AFNE01.JPG,AFNE01.JPG,AFNE01.JPG,,,,,,,,,1,3,13,0,,,,,,,,,,,,,,,AMNE14.jpg,AMSA10.jpg,AMNE15.jpg,AMSA02.jpg,AMNE15.jpg,MN,1,num_2,16,num_2,1.20012611481,,,2017_Jun_26_1135,59.997382879,MAFE4ImagesEEG,001,100844,
AFNE01.JPG,AFNE01.JPG,AFNE01.JPG,AFNE01.JPG,AFNE01.JPG,AFNE01.JPG,,,,,,,,,1,4,14,9,,,,,,,,,,,,,,,AMNE04.jpg,AMNE16.jpg,AMSA08.jpg,AMSA11.jpg,AMSA08.jpg,MS,2,num_2,16,num_2,1.56681968084,,,2017_Jun_26_1135,59.997382879,MAFE4ImagesEEG,001,100844,
AFNE01.JPG,AFNE01.JPG,AFNE01.JPG,AFNE01.JPG,AFNE01.JPG,AFNE01.JPG,,,,,,,,,1,5,15,6,,,,,,,,,,,,,,,AMNE05.jpg,AMNE03.jpg,AMSA17.jpg,AMSA14.jpg,AMNE03.jpg,MN,1,num_6,16,num_6,2.63300878762,,,2017_Jun_26_1135,59.997382879,MAFE4ImagesEEG,001,100844,
AFNE01.JPG,AFNE01.JPG,AFNE01.JPG,AFNE01.JPG,AFNE01.JPG,AFNE01.JPG,,,,,,,,,1,6,16,7,,,,,,,,,,,,,,,AMNE09.jpg,AMSA05.jpg,AMNE16.jpg,AMSA08.jpg,AMNE16.jpg,MN,1,num_2,32,num_8,1.15018792133,,,2017_Jun_26_1135,59.997382879,MAFE4ImagesEEG,001,100844,
AFNE01.JPG,AFNE01.JPG,AFNE01.JPG,AFNE01.JPG,AFNE01.JPG,AFNE01.JPG,,,,,,,,,1,7,17,2,,,,,,,,,,,,,,,AMSA17.jpg,AMSA03.jpg,AMNE13.jpg,AMNE11.jpg,AMSA17.jpg,MS,2,num_8,16,num_8,0.950100295273,,,2017_Jun_26_1135,59.997382879,MAFE4ImagesEEG,001,100844,
AFNE01.JPG,AFNE01.JPG,AFNE01.JPG,AFNE01.JPG,AFNE01.JPG,AFNE01.JPG,,,,,,,,,1,8,18,1,,,,,,,,,,,,,,,AMSA03.jpg,AMSA18.jpg,AMNE05.jpg,AMNE06.jpg,AMNE06.jpg,MN,1,num_4,16,num_4,0.73343139412,,,2017_Jun_26_1135,59.997382879,MAFE4ImagesEEG,001,100844,
AFNE01.JPG,AFNE01.JPG,AFNE01.JPG,AFNE01.JPG,AFNE01.JPG,AFNE01.JPG,,,,,,,,,1,9,19,3,,,,,,,,,,,,,,,AMNE10.jpg,AMSA09.jpg,AMSA10.jpg,AMNE20.jpg,AMSA09.jpg,MS,2,num_6,16,num_6,0.750226602527,,,2017_Jun_26_1135,59.997382879,MAFE4ImagesEEG,001,100844,
AFNE01.JPG,AFNE01.JPG,AFNE01.JPG,AFNE01.JPG,AFNE01.JPG,AFNE01.JPG,,,,,,,,,2,0,20,5,,,,,,,,,,,,,,,AMNE15.jpg,AMSA12.jpg,AMNE13.jpg,AMSA16.jpg,AMSA16.jpg,MS,2,num_4,16,num_4,1.06674943887,,,2017_Jun_26_1135,59.997382879,MAFE4ImagesEEG,001,100844,
AFNE01.JPG,AFNE01.JPG,AFNE01.JPG,AFNE01.JPG,AFNE01.JPG,AFNE01.JPG,,,,,,,,,2,1,21,2,,,,,,,,,,,,,,,AMSA08.jpg,AMNE10.jpg,AMNE20.jpg,AMSA10.jpg,AMSA08.jpg,MS,2,num_8,32,num_2,1.06671736491,,,2017_Jun_26_1135,59.997382879,MAFE4ImagesEEG,001,100844,
AFNE01.JPG,AFNE01.JPG,AFNE01.JPG,AFNE01.JPG,AFNE01.JPG,AFNE01.JPG,,,,,,,,,2,2,22,7,,,,,,,,,,,,,,,AMSA02.jpg,AMNE05.jpg,AMSA19.jpg,AMNE08.jpg,AMSA19.jpg,MS,2,num_2,16,num_2,1.5167028354,,,2017_Jun_26_1135,59.997382879,MAFE4ImagesEEG,001,100844,
AFNE01.JPG,AFNE01.JPG,AFNE01.JPG,AFNE01.JPG,AFNE01.JPG,AFNE01.JPG,,,,,,,,,2,3,23,6,,,,,,,,,,,,,,,AMSA16.jpg,AMNE03.jpg,AMNE15.jpg,AMSA11.jpg,AMSA16.jpg,MS,2,num_8,32,num_2,1.9334349864,,,2017_Jun_26_1135,59.997382879,MAFE4ImagesEEG,001,100844,
AFNE01.JPG,AFNE01.JPG,AFNE01.JPG,AFNE01.JPG,AFNE01.JPG,AFNE01.JPG,,,,,,,,,2,4,24,0,,,,,,,,,,,,,,,AMSA05.jpg,AMNE03.jpg,AMNE08.jpg,AMSA08.jpg,AMSA05.jpg,MS,2,num_8,16,num_8,0.666781063791,,,2017_Jun_26_1135,59.997382879,MAFE4ImagesEEG,001,100844,
AFNE01.JPG,AFNE01.JPG,AFNE01.JPG,AFNE01.JPG,AFNE01.JPG,AFNE01.JPG,,,,,,,,,2,5,25,1,,,,,,,,,,,,,,,AMNE15.jpg,AMSA05.jpg,AMNE08.jpg,AMSA06.jpg,AMSA06.jpg,MS,2,num_4,32,num_6,4.56621893557,,,2017_Jun_26_1135,59.997382879,MAFE4ImagesEEG,001,100844,
AFNE01.JPG,AFNE01.JPG,AFNE01.JPG,AFNE01.JPG,AFNE01.JPG,AFNE01.JPG,,,,,,,,,2,6,26,3,,,,,,,,,,,,,,,AMSA05.jpg,AMNE17.jpg,AMNE01.jpg,AMSA11.jpg,AMNE01.jpg,MN,1,num_2,32,num_6,1.05015084383,,,2017_Jun_26_1135,59.997382879,MAFE4ImagesEEG,001,100844,
AFNE01.JPG,AFNE01.JPG,AFNE01.JPG,AFNE01.JPG,AFNE01.JPG,AFNE01.JPG,,,,,,,,,2,7,27,4,,,,,,,,,,,,,,,AMNE18.jpg,AMSA05.jpg,AMSA07.jpg,AMNE13.jpg,AMSA07.jpg,MS,2,num_2,32,num_4,1.15009394463,,,2017_Jun_26_1135,59.997382879,MAFE4ImagesEEG,001,100844,
AFNE01.JPG,AFNE01.JPG,AFNE01.JPG,AFNE01.JPG,AFNE01.JPG,AFNE01.JPG,,,,,,,,,2,8,28,8,,,,,,,,,,,,,,,AMSA11.jpg,AMNE18.jpg,AMNE14.jpg,AMSA10.jpg,AMSA11.jpg,MS,2,num_8,32,num_2,1.98338151911,,,2017_Jun_26_1135,59.997382879,MAFE4ImagesEEG,001,100844,
AFNE01.JPG,AFNE01.JPG,AFNE01.JPG,AFNE01.JPG,AFNE01.JPG,AFNE01.JPG,,,,,,,,,2,9,29,9,,,,,,,,,,,,,,,AMNE12.jpg,AMSA20.jpg,AMNE02.jpg,AMSA13.jpg,AMNE12.jpg,MN,1,num_8,16,num_8,1.00010616481,,,2017_Jun_26_1135,59.997382879,MAFE4ImagesEEG,001,100844,
AFNE01.JPG,AFNE01.JPG,AFNE01.JPG,AFNE01.JPG,AFNE01.JPG,AFNE01.JPG,,,,,,,,,3,0,30,5,,,,,,,,,,,,,,,AMNE01.jpg,AMSA05.jpg,AMSA20.jpg,AMNE16.jpg,AMSA20.jpg,MS,2,num_2,32,num_8,2.16665308869,,,2017_Jun_26_1135,59.997382879,MAFE4ImagesEEG,001,100844,
AFNE01.JPG,AFNE01.JPG,AFNE01.JPG,AFNE01.JPG,AFNE01.JPG,AFNE01.JPG,,,,,,,,,3,1,31,4,,,,,,,,,,,,,,,AMSA17.jpg,AMNE12.jpg,AMSA10.jpg,AMNE05.jpg,AMNE05.jpg,MN,1,num_4,32,num_6,1.0167384375,,,2017_Jun_26_1135,59.997382879,MAFE4ImagesEEG,001,100844,
AFNE01.JPG,AFNE01.JPG,AFNE01.JPG,AFNE01.JPG,AFNE01.JPG,AFNE01.JPG,,,,,,,,,3,2,32,9,,,,,,,,,,,,,,,AMNE20.jpg,AMSA04.jpg,AMNE10.jpg,AMSA18.jpg,AMSA18.jpg,MS,2,num_4,16,num_4,1.05012967502,,,2017_Jun_26_1135,59.997382879,MAFE4ImagesEEG,001,100844,
AFNE01.JPG,AFNE01.JPG,AFNE01.JPG,AFNE01.JPG,AFNE01.JPG,AFNE01.JPG,,,,,,,,,3,3,33,6,,,,,,,,,,,,,,,AMSA13.jpg,AMNE12.jpg,AMSA19.jpg,AMNE11.jpg,AMNE11.jpg,MN,1,num_4,32,num_6,0.733461864382,,,2017_Jun_26_1135,59.997382879,MAFE4ImagesEEG,001,100844,
AFNE01.JPG,AFNE01.JPG,AFNE01.JPG,AFNE01.JPG,AFNE01.JPG,AFNE01.JPG,,,,,,,,,3,4,34,0,,,,,,,,,,,,,,,AMSA07.jpg,AMNE18.jpg,AMSA08.jpg,AMNE01.jpg,AMSA08.jpg,MS,2,num_2,32,num_6,0.91676550792,,,2017_Jun_26_1135,59.997382879,MAFE4ImagesEEG,001,100844,
AFNE01.JPG,AFNE01.JPG,AFNE01.JPG,AFNE01.JPG,AFNE01.JPG,AFNE01.JPG,,,,,,,,,3,5,35,2,,,,,,,,,,,,,,,AMSA03.jpg,AMNE18.jpg,AMSA20.jpg,AMNE01.jpg,AMSA03.jpg,MS,2,num_8,32,num_4,0.650164186602,,,2017_Jun_26_1135,59.997382879,MAFE4ImagesEEG,001,100844,
AFNE01.JPG,AFNE01.JPG,AFNE01.JPG,AFNE01.JPG,AFNE01.JPG,AFNE01.JPG,,,,,,,,,3,6,36,1,,,,,,,,,,,,,,,AMSA05.jpg,AMNE13.jpg,AMNE05.jpg,AMSA07.jpg,AMSA07.jpg,MS,2,num_4,16,num_4,0.533563474687,,,2017_Jun_26_1135,59.997382879,MAFE4ImagesEEG,001,100844,
AFNE01.JPG,AFNE01.JPG,AFNE01.JPG,AFNE01.JPG,AFNE01.JPG,AFNE01.JPG,,,,,,,,,3,7,37,8,,,,,,,,,,,,,,,AMSA10.jpg,AMSA08.jpg,AMNE18.jpg,AMNE17.jpg,AMSA10.jpg,MS,2,num_8,16,num_8,1.36674456362,,,2017_Jun_26_1135,59.997382879,MAFE4ImagesEEG,001,100844,
AFNE01.JPG,AFNE01.JPG,AFNE01.JPG,AFNE01.JPG,AFNE01.JPG,AFNE01.JPG,,,,,,,,,3,8,38,3,,,,,,,,,,,,,,,AMNE15.jpg,AMSA20.jpg,AMSA10.jpg,AMNE18.jpg,AMNE18.jpg,MN,1,num_4,32,num_2,2.74998476487,,,2017_Jun_26_1135,59.997382879,MAFE4ImagesEEG,001,100844,
AFNE01.JPG,AFNE01.JPG,AFNE01.JPG,AFNE01.JPG,AFNE01.JPG,AFNE01.JPG,,,,,,,,,3,9,39,7,,,,,,,,,,,,,,,AMNE02.jpg,AMSA06.jpg,AMNE03.jpg,AMSA04.jpg,AMSA06.jpg,MS,2,num_6,16,num_6,0.983409744197,,,2017_Jun_26_1135,59.997382879,MAFE4ImagesEEG,001,100844,
AFNE01.JPG,AFNE01.JPG,AFNE01.JPG,AFNE01.JPG,AFNE01.JPG,AFNE01.JPG,,,,,,,,,4,0,40,9,,,,,,,,,,,,,,,AMSA11.jpg,AMSA06.jpg,AMNE17.jpg,AMNE01.jpg,AMSA11.jpg,MS,2,num_8,32,num_4,1.00011514552,,,2017_Jun_26_1135,59.997382879,MAFE4ImagesEEG,001,100844,
AFNE01.JPG,AFNE01.JPG,AFNE01.JPG,AFNE01.JPG,AFNE01.JPG,AFNE01.JPG,,,,,,,,,4,1,41,5,,,,,,,,,,,,,,,AMSA16.jpg,AMNE03.jpg,AMSA19.jpg,AMNE14.jpg,AMSA16.jpg,MS,2,num_8,32,num_2,3.89985387104,,,2017_Jun_26_1135,59.997382879,MAFE4ImagesEEG,001,100844,
AFNE01.JPG,AFNE01.JPG,AFNE01.JPG,AFNE01.JPG,AFNE01.JPG,AFNE01.JPG,,,,,,,,,4,2,42,8,,,,,,,,,,,,,,,AMSA15.jpg,AMNE12.jpg,AMNE03.jpg,AMSA12.jpg,AMSA15.jpg,MS,2,num_8,16,num_8,1.23344294075,,,2017_Jun_26_1135,59.997382879,MAFE4ImagesEEG,001,100844,
AFNE01.JPG,AFNE01.JPG,AFNE01.JPG,AFNE01.JPG,AFNE01.JPG,AFNE01.JPG,,,,,,,,,4,3,43,7,,,,,,,,,,,,,,,AMSA11.jpg,AMNE07.jpg,AMSA04.jpg,AMNE04.jpg,AMSA11.jpg,MS,2,num_8,16,num_8,1.36669388677,,,2017_Jun_26_1135,59.997382879,MAFE4ImagesEEG,001,100844,
AFNE01.JPG,AFNE01.JPG,AFNE01.JPG,AFNE01.JPG,AFNE01.JPG,AFNE01.JPG,,,,,,,,,4,4,44,1,,,,,,,,,,,,,,,AMNE20.jpg,AMSA13.jpg,AMNE03.jpg,AMSA10.jpg,AMNE03.jpg,MN,1,num_2,32,num_4,1.48349762685,,,2017_Jun_26_1135,59.997382879,MAFE4ImagesEEG,001,100844,
AFNE01.JPG,AFNE01.JPG,AFNE01.JPG,AFNE01.JPG,AFNE01.JPG,AFNE01.JPG,,,,,,,,,4,5,45,0,,,,,,,,,,,,,,,AMNE16.jpg,AMSA08.jpg,AMSA02.jpg,AMNE14.jpg,AMSA02.jpg,MS,2,num_2,16,num_2,1.28344431993,,,2017_Jun_26_1135,59.997382879,MAFE4ImagesEEG,001,100844,
AFNE01.JPG,AFNE01.JPG,AFNE01.JPG,AFNE01.JPG,AFNE01.JPG,AFNE01.JPG,,,,,,,,,4,6,46,2,,,,,,,,,,,,,,,AMNE12.jpg,AMSA05.jpg,AMSA20.jpg,AMNE18.jpg,AMSA05.jpg,MS,2,num_6,32,num_2,1.35017836329,,,2017_Jun_26_1135,59.997382879,MAFE4ImagesEEG,001,100844,
AFNE01.JPG,AFNE01.JPG,AFNE01.JPG,AFNE01.JPG,AFNE01.JPG,AFNE01.JPG,,,,,,,,,4,7,47,3,,,,,,,,,,,,,,,AMNE11.jpg,AMSA02.jpg,AMSA16.jpg,AMNE05.jpg,AMNE05.jpg,MN,1,num_4,32,num_8,2.06665289625,,,2017_Jun_26_1135,59.997382879,MAFE4ImagesEEG,001,100844,
AFNE01.JPG,AFNE01.JPG,AFNE01.JPG,AFNE01.JPG,AFNE01.JPG,AFNE01.JPG,,,,,,,,,4,8,48,4,,,,,,,,,,,,,,,AMSA09.jpg,AMSA13.jpg,AMNE09.jpg,AMNE17.jpg,AMNE09.jpg,MN,1,num_2,32,num_8,1.18345952298,,,2017_Jun_26_1135,59.997382879,MAFE4ImagesEEG,001,100844,
AFNE01.JPG,AFNE01.JPG,AFNE01.JPG,AFNE01.JPG,AFNE01.JPG,AFNE01.JPG,,,,,,,,,4,9,49,6,,,,,,,,,,,,,,,AMNE10.jpg,AMSA07.jpg,AMNE09.jpg,AMSA10.jpg,AMNE09.jpg,MN,1,num_2,16,num_2,1.31683491597,,,2017_Jun_26_1135,59.997382879,MAFE4ImagesEEG,001,100844,
AFNE01.JPG,AFNE01.JPG,AFNE01.JPG,AFNE01.JPG,AFNE01.JPG,AFNE01.JPG,,,,,,,,,5,0,50,8,,,,,,,,,,,,,,,AMNE07.jpg,AMNE11.jpg,AMSA01.jpg,AMSA13.jpg,AMNE11.jpg,MN,1,num_6,16,num_6,1.00012765436,,,2017_Jun_26_1135,59.997382879,MAFE4ImagesEEG,001,100844,
AFNE01.JPG,AFNE01.JPG,AFNE01.JPG,AFNE01.JPG,AFNE01.JPG,AFNE01.JPG,,,,,,,,,5,1,51,5,,,,,,,,,,,,,,,AMSA04.jpg,AMNE20.jpg,AMSA02.jpg,AMNE01.jpg,AMNE01.jpg,MN,1,num_4,16,num_4,0.549810218379,,,2017_Jun_26_1135,59.997382879,MAFE4ImagesEEG,001,100844,
AFNE01.JPG,AFNE01.JPG,AFNE01.JPG,AFNE01.JPG,AFNE01.JPG,AFNE01.JPG,,,,,,,,,5,2,52,2,,,,,,,,,,,,,,,AMSA11.jpg,AMNE09.jpg,AMSA20.jpg,AMNE07.jpg,AMNE09.jpg,MN,1,num_6,16,num_6,0.883435531661,,,2017_Jun_26_1135,59.997382879,MAFE4ImagesEEG,001,100844,
AFNE01.JPG,AFNE01.JPG,AFNE01.JPG,AFNE01.JPG,AFNE01.JPG,AFNE01.JPG,,,,,,,,,5,3,53,3,,,,,,,,,,,,,,,AMNE03.jpg,AMNE17.jpg,AMSA12.jpg,AMSA14.jpg,AMSA14.jpg,MS,2,num_4,16,num_4,0.933443004894,,,2017_Jun_26_1135,59.997382879,MAFE4ImagesEEG,001,100844,
AFNE01.JPG,AFNE01.JPG,AFNE01.JPG,AFNE01.JPG,AFNE01.JPG,AFNE01.JPG,,,,,,,,,5,4,54,9,,,,,,,,,,,,,,,AMNE02.jpg,AMSA12.jpg,AMNE13.jpg,AMSA06.jpg,AMSA06.jpg,MS,2,num_4,32,num_6,1.33338860746,,,2017_Jun_26_1135,59.997382879,MAFE4ImagesEEG,001,100844,
AFNE01.JPG,AFNE01.JPG,AFNE01.JPG,AFNE01.JPG,AFNE01.JPG,AFNE01.JPG,,,,,,,,,5,5,55,0,,,,,,,,,,,,,,,AMNE01.jpg,AMSA20.jpg,AMSA07.jpg,AMNE14.jpg,AMSA20.jpg,MS,2,num_6,32,num_8,0.966789980351,,,2017_Jun_26_1135,59.997382879,MAFE4ImagesEEG,001,100844,
AFNE01.JPG,AFNE01.JPG,AFNE01.JPG,AFNE01.JPG,AFNE01.JPG,AFNE01.JPG,,,,,,,,,5,6,56,1,,,,,,,,,,,,,,,AMNE16.jpg,AMSA19.jpg,AMNE17.jpg,AMSA11.jpg,AMNE16.jpg,MN,1,num_8,16,num_8,1.28312839142,,,2017_Jun_26_1135,59.997382879,MAFE4ImagesEEG,001,100844,
AFNE01.JPG,AFNE01.JPG,AFNE01.JPG,AFNE01.JPG,AFNE01.JPG,AFNE01.JPG,,,,,,,,,5,7,57,7,,,,,,,,,,,,,,,AMSA04.jpg,AMNE19.jpg,AMNE05.jpg,AMSA06.jpg,AMNE19.jpg,MN,1,num_6,16,num_6,0.883483321862,,,2017_Jun_26_1135,59.997382879,MAFE4ImagesEEG,001,100844,
AFNE01.JPG,AFNE01.JPG,AFNE01.JPG,AFNE01.JPG,AFNE01.JPG,AFNE01.JPG,,,,,,,,,5,8,58,6,,,,,,,,,,,,,,,AMSA15.jpg,AMNE12.jpg,AMSA19.jpg,AMNE15.jpg,AMNE15.jpg,MN,1,num_4,32,num_8,0.850249567482,,,2017_Jun_26_1135,59.997382879,MAFE4ImagesEEG,001,100844,
AFNE01.JPG,AFNE01.JPG,AFNE01.JPG,AFNE01.JPG,AFNE01.JPG,AFNE01.JPG,,,,,,,,,5,9,59,4,,,,,,,,,,,,,,,AMSA12.jpg,AMNE10.jpg,AMNE13.jpg,AMSA15.jpg,AMNE10.jpg,MN,1,num_6,16,num_6,0.966764962663,,,2017_Jun_26_1135,59.997382879,MAFE4ImagesEEG,001,100844,
,,,,,,,,,,,,,,,,,,,,,,,,,,,,,,,,,,,,,,,,,,,space,3.26684732859,2017_Jun_26_1135,59.997382879,MAFE4ImagesEEG,001,100844,
AFNE01.JPG,AFNE01.JPG,AFNE01.JPG,AFNE01.JPG,AFNE01.JPG,AFNE01.JPG,,,,,,,,,,,,,0,0,0,5,,,,,,,,,,,AFSA08.jpg,AFNE20.jpg,AFSA19.jpg,AFNE12.jpg,AFNE20.jpg,FN,3,num_6,16,num_6,1.15005128626,,,2017_Jun_26_1135,59.997382879,MAFE4ImagesEEG,001,100844,
AFNE01.JPG,AFNE01.JPG,AFNE01.JPG,AFNE01.JPG,AFNE01.JPG,AFNE01.JPG,,,,,,,,,,,,,0,1,1,9,,,,,,,,,,,AFNE11.jpg,AFSA10.jpg,AFSA11.jpg,AFNE04.jpg,AFNE11.jpg,FN,3,num_8,32,num_2,0.500294118213,,,2017_Jun_26_1135,59.997382879,MAFE4ImagesEEG,001,100844,
AFNE01.JPG,AFNE01.JPG,AFNE01.JPG,AFNE01.JPG,AFNE01.JPG,AFNE01.JPG,,,,,,,,,,,,,0,2,2,6,,,,,,,,,,,AFSA11.jpg,AFNE11.jpg,AFSA17.jpg,AFNE13.jpg,AFNE11.jpg,FN,3,num_6,16,num_6,0.883529508365,,,2017_Jun_26_1135,59.997382879,MAFE4ImagesEEG,001,100844,
AFNE01.JPG,AFNE01.JPG,AFNE01.JPG,AFNE01.JPG,AFNE01.JPG,AFNE01.JPG,,,,,,,,,,,,,0,3,3,4,,,,,,,,,,,AFSA12.jpg,AFNE13.jpg,AFSA01.jpg,AFNE10.jpg,AFSA12.jpg,FS,4,num_8,16,num_8,0.600132016419,,,2017_Jun_26_1135,59.997382879,MAFE4ImagesEEG,001,100844,
AFNE01.JPG,AFNE01.JPG,AFNE01.JPG,AFNE01.JPG,AFNE01.JPG,AFNE01.JPG,,,,,,,,,,,,,0,4,4,7,,,,,,,,,,,AFNE18.jpg,AFNE05.jpg,AFSA07.jpg,AFSA08.jpg,AFSA08.jpg,FS,4,num_4,16,num_4,1.23337494395,,,2017_Jun_26_1135,59.997382879,MAFE4ImagesEEG,001,100844,
AFNE01.JPG,AFNE01.JPG,AFNE01.JPG,AFNE01.JPG,AFNE01.JPG,AFNE01.JPG,,,,,,,,,,,,,0,5,5,1,,,,,,,,,,,AFNE05.jpg,AFNE09.jpg,AFSA11.jpg,AFSA16.jpg,AFNE05.jpg,FN,3,num_8,16,num_8,1.33330072481,,,2017_Jun_26_1135,59.997382879,MAFE4ImagesEEG,001,100844,
AFNE01.JPG,AFNE01.JPG,AFNE01.JPG,AFNE01.JPG,AFNE01.JPG,AFNE01.JPG,,,,,,,,,,,,,0,6,6,8,,,,,,,,,,,AFNE12.jpg,AFNE06.jpg,AFSA15.jpg,AFSA09.jpg,AFSA15.jpg,FS,4,num_2,16,num_2,1.75001651809,,,2017_Jun_26_1135,59.997382879,MAFE4ImagesEEG,001,100844,
AFNE01.JPG,AFNE01.JPG,AFNE01.JPG,AFNE01.JPG,AFNE01.JPG,AFNE01.JPG,,,,,,,,,,,,,0,7,7,2,,,,,,,,,,,AFNE13.jpg,AFSA18.jpg,AFSA08.jpg,AFNE05.jpg,AFSA08.jpg,FS,4,num_2,32,num_6,0.666773686779,,,2017_Jun_26_1135,59.997382879,MAFE4ImagesEEG,001,100844,
AFNE01.JPG,AFNE01.JPG,AFNE01.JPG,AFNE01.JPG,AFNE01.JPG,AFNE01.JPG,,,,,,,,,,,,,0,8,8,0,,,,,,,,,,,AFNE08.jpg,AFSA15.jpg,AFNE05.jpg,AFSA20.jpg,AFSA15.jpg,FS,4,num_6,16,num_6,2.99993456912,,,2017_Jun_26_1135,59.997382879,MAFE4ImagesEEG,001,100844,
AFNE01.JPG,AFNE01.JPG,AFNE01.JPG,AFNE01.JPG,AFNE01.JPG,AFNE01.JPG,,,,,,,,,,,,,0,9,9,3,,,,,,,,,,,AFSA13.jpg,AFNE03.jpg,AFSA09.jpg,AFNE11.jpg,AFNE11.jpg,FN,3,num_4,16,num_4,1.11676140245,,,2017_Jun_26_1135,59.997382879,MAFE4ImagesEEG,001,100844,
AFNE01.JPG,AFNE01.JPG,AFNE01.JPG,AFNE01.JPG,AFNE01.JPG,AFNE01.JPG,,,,,,,,,,,,,1,0,10,1,,,,,,,,,,,AFNE10.jpg,AFSA20.jpg,AFSA03.jpg,AFNE01.jpg,AFNE10.jpg,FN,3,num_8,16,num_8,0.550138976469,,,2017_Jun_26_1135,59.997382879,MAFE4ImagesEEG,001,100844,
AFNE01.JPG,AFNE01.JPG,AFNE01.JPG,AFNE01.JPG,AFNE01.JPG,AFNE01.JPG,,,,,,,,,,,,,1,1,11,6,,,,,,,,,,,AFSA01.jpg,AFNE11.jpg,AFSA17.jpg,AFNE01.jpg,AFNE11.jpg,FN,3,num_6,16,num_6,0.78340935931,,,2017_Jun_26_1135,59.997382879,MAFE4ImagesEEG,001,100844,
AFNE01.JPG,AFNE01.JPG,AFNE01.JPG,AFNE01.JPG,AFNE01.JPG,AFNE01.JPG,,,,,,,,,,,,,1,2,12,5,,,,,,,,,,,AFSA10.jpg,AFSA19.jpg,AFNE03.jpg,AFNE19.jpg,AFNE19.jpg,FN,3,num_4,32,num_6,1.66671755735,,,2017_Jun_26_1135,59.997382879,MAFE4ImagesEEG,001,100844,
AFNE01.JPG,AFNE01.JPG,AFNE01.JPG,AFNE01.JPG,AFNE01.JPG,AFNE01.JPG,,,,,,,,,,,,,1,3,13,7,,,,,,,,,,,AFNE15.jpg,AFNE12.jpg,AFSA19.jpg,AFSA10.jpg,AFSA19.jpg,FS,4,num_2,16,num_2,1.36674488436,,,2017_Jun_26_1135,59.997382879,MAFE4ImagesEEG,001,100844,
AFNE01.JPG,AFNE01.JPG,AFNE01.JPG,AFNE01.JPG,AFNE01.JPG,AFNE01.JPG,,,,,,,,,,,,,1,4,14,0,,,,,,,,,,,AFNE08.jpg,AFNE07.jpg,AFSA03.jpg,AFSA05.jpg,AFSA05.jpg,FS,4,num_4,16,num_4,0.90010885902,,,2017_Jun_26_1135,59.997382879,MAFE4ImagesEEG,001,100844,
AFNE01.JPG,AFNE01.JPG,AFNE01.JPG,AFNE01.JPG,AFNE01.JPG,AFNE01.JPG,,,,,,,,,,,,,1,5,15,9,,,,,,,,,,,AFNE11.jpg,AFSA20.jpg,AFNE02.jpg,AFSA13.jpg,AFNE11.jpg,FN,3,num_8,32,num_4,1.01684524378,,,2017_Jun_26_1135,59.997382879,MAFE4ImagesEEG,001,100844,
AFNE01.JPG,AFNE01.JPG,AFNE01.JPG,AFNE01.JPG,AFNE01.JPG,AFNE01.JPG,,,,,,,,,,,,,1,6,16,8,,,,,,,,,,,AFNE13.jpg,AFNE04.jpg,AFSA08.jpg,AFSA13.jpg,AFNE04.jpg,FN,3,num_6,16,num_6,1.38342751317,,,2017_Jun_26_1135,59.997382879,MAFE4ImagesEEG,001,100844,
AFNE01.JPG,AFNE01.JPG,AFNE01.JPG,AFNE01.JPG,AFNE01.JPG,AFNE01.JPG,,,,,,,,,,,,,1,7,17,4,,,,,,,,,,,AFSA03.jpg,AFSA01.jpg,AFNE13.jpg,AFNE11.jpg,AFSA03.jpg,FS,4,num_8,32,num_2,1.95008650347,,,2017_Jun_26_1135,59.997382879,MAFE4ImagesEEG,001,100844,
AFNE01.JPG,AFNE01.JPG,AFNE01.JPG,AFNE01.JPG,AFNE01.JPG,AFNE01.JPG,,,,,,,,,,,,,1,8,18,3,,,,,,,,,,,AFNE20.jpg,AFSA07.jpg,AFNE12.jpg,AFSA08.jpg,AFSA08.jpg,FS,4,num_4,32,num_6,0.916739848753,,,2017_Jun_26_1135,59.997382879,MAFE4ImagesEEG,001,100844,
AFNE01.JPG,AFNE01.JPG,AFNE01.JPG,AFNE01.JPG,AFNE01.JPG,AFNE01.JPG,,,,,,,,,,,,,1,9,19,2,,,,,,,,,,,AFSA18.jpg,AFSA10.jpg,AFNE13.jpg,AFNE05.jpg,AFSA10.jpg,FS,4,num_6,16,num_6,0.666833344345,,,2017_Jun_26_1135,59.997382879,MAFE4ImagesEEG,001,100844,
AFNE01.JPG,AFNE01.JPG,AFNE01.JPG,AFNE01.JPG,AFNE01.JPG,AFNE01.JPG,,,,,,,,,,,,,2,0,20,3,,,,,,,,,,,AFNE12.jpg,AFNE17.jpg,AFSA19.jpg,AFSA09.jpg,AFNE12.jpg,FN,3,num_8,16,num_8,0.750117871803,,,2017_Jun_26_1135,59.997382879,MAFE4ImagesEEG,001,100844,
AFNE01.JPG,AFNE01.JPG,AFNE01.JPG,AFNE01.JPG,AFNE01.JPG,AFNE01.JPG,,,,,,,,,,,,,2,1,21,4,,,,,,,,,,,AFNE13.jpg,AFSA18.jpg,AFSA02.jpg,AFNE09.jpg,AFNE13.jpg,FN,3,num_8,32,num_2,2.79995952266,,,2017_Jun_26_1135,59.997382879,MAFE4ImagesEEG,001,100844,
AFNE01.JPG,AFNE01.JPG,AFNE01.JPG,AFNE01.JPG,AFNE01.JPG,AFNE01.JPG,,,,,,,,,,,,,2,2,22,2,,,,,,,,,,,AFSA18.jpg,AFSA09.jpg,AFNE03.jpg,AFNE17.jpg,AFSA09.jpg,FS,4,num_6,16,num_6,1.00010391963,,,2017_Jun_26_1135,59.997382879,MAFE4ImagesEEG,001,100844,
AFNE01.JPG,AFNE01.JPG,AFNE01.JPG,AFNE01.JPG,AFNE01.JPG,AFNE01.JPG,,,,,,,,,,,,,2,3,23,5,,,,,,,,,,,AFSA13.jpg,AFNE19.jpg,AFNE18.jpg,AFSA20.jpg,AFNE18.jpg,FN,3,num_2,32,num_4,3.26656058739,,,2017_Jun_26_1135,59.997382879,MAFE4ImagesEEG,001,100844,
AFNE01.JPG,AFNE01.JPG,AFNE01.JPG,AFNE01.JPG,AFNE01.JPG,AFNE01.JPG,,,,,,,,,,,,,2,4,24,9,,,,,,,,,,,AFNE20.jpg,AFNE07.jpg,AFSA15.jpg,AFSA07.jpg,AFSA07.jpg,FS,4,num_4,32,num_6,1.13340008994,,,2017_Jun_26_1135,59.997382879,MAFE4ImagesEEG,001,100844,
AFNE01.JPG,AFNE01.JPG,AFNE01.JPG,AFNE01.JPG,AFNE01.JPG,AFNE01.JPG,,,,,,,,,,,,,2,5,25,7,,,,,,,,,,,AFSA11.jpg,AFNE19.jpg,AFNE13.jpg,AFSA12.jpg,AFSA11.jpg,FS,4,num_8,32,num_6,0.65010035942,,,2017_Jun_26_1135,59.997382879,MAFE4ImagesEEG,001,100844,
AFNE01.JPG,AFNE01.JPG,AFNE01.JPG,AFNE01.JPG,AFNE01.JPG,AFNE01.JPG,,,,,,,,,,,,,2,6,26,6,,,,,,,,,,,AFNE02.jpg,AFSA03.jpg,AFSA01.jpg,AFNE12.jpg,AFNE02.jpg,FN,3,num_8,16,num_8,2.9666251202,,,2017_Jun_26_1135,59.997382879,MAFE4ImagesEEG,001,100844,
AFNE01.JPG,AFNE01.JPG,AFNE01.JPG,AFNE01.JPG,AFNE01.JPG,AFNE01.JPG,,,,,,,,,,,,,2,7,27,0,,,,,,,,,,,AFSA17.jpg,AFNE09.jpg,AFNE10.jpg,AFSA14.jpg,AFNE09.jpg,FN,3,num_6,32,num_4,1.01694050345,,,2017_Jun_26_1135,59.997382879,MAFE4ImagesEEG,001,100844,
AFNE01.JPG,AFNE01.JPG,AFNE01.JPG,AFNE01.JPG,AFNE01.JPG,AFNE01.JPG,,,,,,,,,,,,,2,8,28,8,,,,,,,,,,,AFSA15.jpg,AFNE11.jpg,AFNE04.jpg,AFSA07.jpg,AFSA15.jpg,FS,4,num_8,32,num_6,1.23326493027,,,2017_Jun_26_1135,59.997382879,MAFE4ImagesEEG,001,100844,
AFNE01.JPG,AFNE01.JPG,AFNE01.JPG,AFNE01.JPG,AFNE01.JPG,AFNE01.JPG,,,,,,,,,,,,,2,9,29,1,,,,,,,,,,,AFNE03.jpg,AFNE05.jpg,AFSA18.jpg,AFSA06.jpg,AFSA06.jpg,FS,4,num_4,32,num_2,1.40010340645,,,2017_Jun_26_1135,59.997382879,MAFE4ImagesEEG,001,100844,
AFNE01.JPG,AFNE01.JPG,AFNE01.JPG,AFNE01.JPG,AFNE01.JPG,AFNE01.JPG,,,,,,,,,,,,,3,0,30,6,,,,,,,,,,,AFSA11.jpg,AFSA20.jpg,AFNE01.jpg,AFNE12.jpg,AFSA11.jpg,FS,4,num_8,16,num_8,0.816752165153,,,2017_Jun_26_1135,59.997382879,MAFE4ImagesEEG,001,100844,
AFNE01.JPG,AFNE01.JPG,AFNE01.JPG,AFNE01.JPG,AFNE01.JPG,AFNE01.JPG,,,,,,,,,,,,,3,1,31,3,,,,,,,,,,,AFNE19.jpg,AFNE04.jpg,AFSA04.jpg,AFSA11.jpg,AFNE19.jpg,FN,3,num_8,32,num_2,1.70001129003,,,2017_Jun_26_1135,59.997382879,MAFE4ImagesEEG,001,100844,
AFNE01.JPG,AFNE01.JPG,AFNE01.JPG,AFNE01.JPG,AFNE01.JPG,AFNE01.JPG,,,,,,,,,,,,,3,2,32,0,,,,,,,,,,,AFNE13.jpg,AFSA17.jpg,AFSA18.jpg,AFNE05.jpg,AFSA18.jpg,FS,4,num_2,32,num_4,1.31671816675,,,2017_Jun_26_1135,59.997382879,MAFE4ImagesEEG,001,100844,
AFNE01.JPG,AFNE01.JPG,AFNE01.JPG,AFNE01.JPG,AFNE01.JPG,AFNE01.JPG,,,,,,,,,,,,,3,3,33,5,,,,,,,,,,,AFNE13.jpg,AFNE16.jpg,AFSA03.jpg,AFSA06.jpg,AFNE16.jpg,FN,3,num_6,32,num_2,1.66669863371,,,2017_Jun_26_1135,59.997382879,MAFE4ImagesEEG,001,100844,
AFNE01.JPG,AFNE01.JPG,AFNE01.JPG,AFNE01.JPG,AFNE01.JPG,AFNE01.JPG,,,,,,,,,,,,,3,4,34,1,,,,,,,,,,,AFNE14.jpg,AFSA16.jpg,AFSA05.jpg,AFNE12.jpg,AFNE14.jpg,FN,3,num_8,32,num_4,0.783443357707,,,2017_Jun_26_1135,59.997382879,MAFE4ImagesEEG,001,100844,
AFNE01.JPG,AFNE01.JPG,AFNE01.JPG,AFNE01.JPG,AFNE01.JPG,AFNE01.JPG,,,,,,,,,,,,,3,5,35,2,,,,,,,,,,,AFNE16.jpg,AFSA14.jpg,AFSA09.jpg,AFNE12.jpg,AFSA14.jpg,FS,4,num_6,32,num_8,1.26676137038,,,2017_Jun_26_1135,59.997382879,MAFE4ImagesEEG,001,100844,
AFNE01.JPG,AFNE01.JPG,AFNE01.JPG,AFNE01.JPG,AFNE01.JPG,AFNE01.JPG,,,,,,,,,,,,,3,6,36,9,,,,,,,,,,,AFNE09.jpg,AFSA08.jpg,AFSA19.jpg,AFNE15.jpg,AFNE09.jpg,FN,3,num_8,32,num_4,0.683459202243,,,2017_Jun_26_1135,59.997382879,MAFE4ImagesEEG,001,100844,
AFNE01.JPG,AFNE01.JPG,AFNE01.JPG,AFNE01.JPG,AFNE01.JPG,AFNE01.JPG,,,,,,,,,,,,,3,7,37,8,,,,,,,,,,,AFNE20.jpg,AFNE09.jpg,AFSA17.jpg,AFSA04.jpg,AFSA04.jpg,FS,4,num_4,16,num_4,0.966490730305,,,2017_Jun_26_1135,59.997382879,MAFE4ImagesEEG,001,100844,
AFNE01.JPG,AFNE01.JPG,AFNE01.JPG,AFNE01.JPG,AFNE01.JPG,AFNE01.JPG,,,,,,,,,,,,,3,8,38,4,,,,,,,,,,,AFNE17.jpg,AFNE16.jpg,AFSA12.jpg,AFSA13.jpg,AFSA13.jpg,FS,4,num_4,16,num_4,0.766774520703,,,2017_Jun_26_1135,59.997382879,MAFE4ImagesEEG,001,100844,
AFNE01.JPG,AFNE01.JPG,AFNE01.JPG,AFNE01.JPG,AFNE01.JPG,AFNE01.JPG,,,,,,,,,,,,,3,9,39,7,,,,,,,,,,,AFSA02.jpg,AFSA08.jpg,AFNE08.jpg,AFNE15.jpg,AFSA08.jpg,FS,4,num_6,16,num_6,0.766817179069,,,2017_Jun_26_1135,59.997382879,MAFE4ImagesEEG,001,100844,
AFNE01.JPG,AFNE01.JPG,AFNE01.JPG,AFNE01.JPG,AFNE01.JPG,AFNE01.JPG,,,,,,,,,,,,,4,0,40,9,,,,,,,,,,,AFNE06.jpg,AFNE15.jpg,AFSA08.jpg,AFSA06.jpg,AFNE06.jpg,FN,3,num_8,16,num_8,1.43342568496,,,2017_Jun_26_1135,59.997382879,MAFE4ImagesEEG,001,100844,
AFNE01.JPG,AFNE01.JPG,AFNE01.JPG,AFNE01.JPG,AFNE01.JPG,AFNE01.JPG,,,,,,,,,,,,,4,1,41,1,,,,,,,,,,,AFSA08.jpg,AFNE08.jpg,AFNE16.jpg,AFSA16.jpg,AFSA08.jpg,FS,4,num_8,32,num_4,0.783452979896,,,2017_Jun_26_1135,59.997382879,MAFE4ImagesEEG,001,100844,
AFNE01.JPG,AFNE01.JPG,AFNE01.JPG,AFNE01.JPG,AFNE01.JPG,AFNE01.JPG,,,,,,,,,,,,,4,2,42,3,,,,,,,,,,,AFSA12.jpg,AFSA17.jpg,AFNE04.jpg,AFNE13.jpg,AFNE04.jpg,FN,3,num_2,32,num_8,0.63345204975,,,2017_Jun_26_1135,59.997382879,MAFE4ImagesEEG,001,100844,
AFNE01.JPG,AFNE01.JPG,AFNE01.JPG,AFNE01.JPG,AFNE01.JPG,AFNE01.JPG,,,,,,,,,,,,,4,3,43,0,,,,,,,,,,,AFSA16.jpg,AFSA12.jpg,AFNE17.jpg,AFNE08.jpg,AFSA16.jpg,FS,4,num_8,32,num_2,0.916728302127,,,2017_Jun_26_1135,59.997382879,MAFE4ImagesEEG,001,100844,
AFNE01.JPG,AFNE01.JPG,AFNE01.JPG,AFNE01.JPG,AFNE01.JPG,AFNE01.JPG,,,,,,,,,,,,,4,4,44,6,,,,,,,,,,,AFNE02.jpg,AFSA19.jpg,AFSA09.jpg,AFNE17.jpg,AFNE17.jpg,FN,3,num_4,16,num_4,0.666764064592,,,2017_Jun_26_1135,59.997382879,MAFE4ImagesEEG,001,100844,
AFNE01.JPG,AFNE01.JPG,AFNE01.JPG,AFNE01.JPG,AFNE01.JPG,AFNE01.JPG,,,,,,,,,,,,,4,5,45,4,,,,,,,,,,,AFSA17.jpg,AFNE13.jpg,AFNE16.jpg,AFSA19.jpg,AFSA19.jpg,FS,4,num_4,32,num_8,1.2000879468,,,2017_Jun_26_1135,59.997382879,MAFE4ImagesEEG,001,100844,
AFNE01.JPG,AFNE01.JPG,AFNE01.JPG,AFNE01.JPG,AFNE01.JPG,AFNE01.JPG,,,,,,,,,,,,,4,6,46,7,,,,,,,,,,,AFSA09.jpg,AFNE04.jpg,AFSA04.jpg,AFNE11.jpg,AFNE11.jpg,FN,3,num_4,32,num_2,1.4834267434,,,2017_Jun_26_1135,59.997382879,MAFE4ImagesEEG,001,100844,
AFNE01.JPG,AFNE01.JPG,AFNE01.JPG,AFNE01.JPG,AFNE01.JPG,AFNE01.JPG,,,,,,,,,,,,,4,7,47,8,,,,,,,,,,,AFSA03.jpg,AFSA14.jpg,AFNE06.jpg,AFNE01.jpg,AFNE06.jpg,FN,3,num_2,32,num_6,0.900103727186,,,2017_Jun_26_1135,59.997382879,MAFE4ImagesEEG,001,100844,
AFNE01.JPG,AFNE01.JPG,AFNE01.JPG,AFNE01.JPG,AFNE01.JPG,AFNE01.JPG,,,,,,,,,,,,,4,8,48,2,,,,,,,,,,,AFSA04.jpg,AFNE05.jpg,AFNE10.jpg,AFSA01.jpg,AFSA04.jpg,FS,4,num_8,32,num_2,0.983438610761,,,2017_Jun_26_1135,59.997382879,MAFE4ImagesEEG,001,100844,
AFNE01.JPG,AFNE01.JPG,AFNE01.JPG,AFNE01.JPG,AFNE01.JPG,AFNE01.JPG,,,,,,,,,,,,,4,9,49,5,,,,,,,,,,,AFSA06.jpg,AFSA04.jpg,AFNE17.jpg,AFNE03.jpg,AFNE17.jpg,FN,3,num_2,32,num_4,0.850079896234,,,2017_Jun_26_1135,59.997382879,MAFE4ImagesEEG,001,100844,
AFNE01.JPG,AFNE01.JPG,AFNE01.JPG,AFNE01.JPG,AFNE01.JPG,AFNE01.JPG,,,,,,,,,,,,,5,0,50,4,,,,,,,,,,,AFSA12.jpg,AFSA08.jpg,AFNE18.jpg,AFNE03.jpg,AFSA08.jpg,FS,4,num_6,16,num_6,0.800135608702,,,2017_Jun_26_1135,59.997382879,MAFE4ImagesEEG,001,100844,
AFNE01.JPG,AFNE01.JPG,AFNE01.JPG,AFNE01.JPG,AFNE01.JPG,AFNE01.JPG,,,,,,,,,,,,,5,1,51,1,,,,,,,,,,,AFSA18.jpg,AFNE06.jpg,AFSA03.jpg,AFNE03.jpg,AFSA03.jpg,FS,4,num_2,16,num_2,1.25021633886,,,2017_Jun_26_1135,59.997382879,MAFE4ImagesEEG,001,100844,
AFNE01.JPG,AFNE01.JPG,AFNE01.JPG,AFNE01.JPG,AFNE01.JPG,AFNE01.JPG,,,,,,,,,,,,,5,2,52,2,,,,,,,,,,,AFNE15.jpg,AFSA11.jpg,AFSA05.jpg,AFNE03.jpg,AFSA05.jpg,FS,4,num_2,32,num_4,1.41675396129,,,2017_Jun_26_1135,59.997382879,MAFE4ImagesEEG,001,100844,
AFNE01.JPG,AFNE01.JPG,AFNE01.JPG,AFNE01.JPG,AFNE01.JPG,AFNE01.JPG,,,,,,,,,,,,,5,3,53,0,,,,,,,,,,,AFNE15.jpg,AFSA15.jpg,AFNE04.jpg,AFSA01.jpg,AFSA15.jpg,FS,4,num_6,16,num_6,1.11672163074,,,2017_Jun_26_1135,59.997382879,MAFE4ImagesEEG,001,100844,
AFNE01.JPG,AFNE01.JPG,AFNE01.JPG,AFNE01.JPG,AFNE01.JPG,AFNE01.JPG,,,,,,,,,,,,,5,4,54,7,,,,,,,,,,,AFSA17.jpg,AFSA09.jpg,AFNE20.jpg,AFNE09.jpg,AFNE20.jpg,FN,3,num_2,32,num_4,0.966687985158,,,2017_Jun_26_1135,59.997382879,MAFE4ImagesEEG,001,100844,
AFNE01.JPG,AFNE01.JPG,AFNE01.JPG,AFNE01.JPG,AFNE01.JPG,AFNE01.JPG,,,,,,,,,,,,,5,5,55,3,,,,,,,,,,,AFSA16.jpg,AFNE08.jpg,AFSA09.jpg,AFNE19.jpg,AFNE19.jpg,FN,3,num_4,16,num_4,0.966744435328,,,2017_Jun_26_1135,59.997382879,MAFE4ImagesEEG,001,100844,
AFNE01.JPG,AFNE01.JPG,AFNE01.JPG,AFNE01.JPG,AFNE01.JPG,AFNE01.JPG,,,,,,,,,,,,,5,6,56,9,,,,,,,,,,,AFSA05.jpg,AFNE05.jpg,AFNE17.jpg,AFSA14.jpg,AFSA14.jpg,FS,4,num_4,32,num_6,1.20003791142,,,2017_Jun_26_1135,59.997382879,MAFE4ImagesEEG,001,100844,
AFNE01.JPG,AFNE01.JPG,AFNE01.JPG,AFNE01.JPG,AFNE01.JPG,AFNE01.JPG,,,,,,,,,,,,,5,7,57,8,,,,,,,,,,,AFSA20.jpg,AFNE03.jpg,AFNE17.jpg,AFSA18.jpg,AFSA18.jpg,FS,4,num_4,32,num_2,1.40007999246,,,2017_Jun_26_1135,59.997382879,MAFE4ImagesEEG,001,100844,
AFNE01.JPG,AFNE01.JPG,AFNE01.JPG,AFNE01.JPG,AFNE01.JPG,AFNE01.JPG,,,,,,,,,,,,,5,8,58,5,,,,,,,,,,,AFSA06.jpg,AFNE05.jpg,AFSA03.jpg,AFNE11.jpg,AFSA06.jpg,FS,4,num_8,32,num_2,1.30019237961,,,2017_Jun_26_1135,59.997382879,MAFE4ImagesEEG,001,100844,
AFNE01.JPG,AFNE01.JPG,AFNE01.JPG,AFNE01.JPG,AFNE01.JPG,AFNE01.JPG,,,,,,,,,,,,,5,9,59,6,,,,,,,,,,,AFSA16.jpg,AFSA14.jpg,AFNE11.jpg,AFNE15.jpg,AFNE11.jpg,FN,3,num_2,32,num_6,2.04978103108,,,2017_Jun_26_1135,59.997382879,MAFE4ImagesEEG,001,100844,
,,,,,,,,,,,,,,,,,,,,,,,,,,,,,,,,,,,,,,,,,,,space,24.3151779752,2017_Jun_26_1135,59.997382879,MAFE4ImagesEEG,001,100844,
AFNE01.JPG,AFNE01.JPG,AFNE01.JPG,AFNE01.JPG,AFNE01.JPG,AFNE01.JPG,,,,,,,,,,,,,,,,,0,0,0,0,,,,,,,AMSA02.jpg,AMNE01.jpg,AMNE08.jpg,AMSA18.jpg,AMSA18.jpg,MS,2,num_4,16,num_4,1.18345182523,,,2017_Jun_26_1135,59.997382879,MAFE4ImagesEEG,001,100844,
AFNE01.JPG,AFNE01.JPG,AFNE01.JPG,AFNE01.JPG,AFNE01.JPG,AFNE01.JPG,,,,,,,,,,,,,,,,,0,1,1,7,,,,,,,AMSA06.jpg,AMNE04.jpg,AMSA20.jpg,AMNE17.jpg,AMNE04.jpg,MN,1,num_6,16,num_6,0.683535859008,,,2017_Jun_26_1135,59.997382879,MAFE4ImagesEEG,001,100844,
AFNE01.JPG,AFNE01.JPG,AFNE01.JPG,AFNE01.JPG,AFNE01.JPG,AFNE01.JPG,,,,,,,,,,,,,,,,,0,2,2,9,,,,,,,AMNE05.jpg,AMSA16.jpg,AMSA11.jpg,AMNE18.jpg,AMSA11.jpg,MS,2,num_2,32,num_6,0.733442299266,,,2017_Jun_26_1135,59.997382879,MAFE4ImagesEEG,001,100844,
AFNE01.JPG,AFNE01.JPG,AFNE01.JPG,AFNE01.JPG,AFNE01.JPG,AFNE01.JPG,,,,,,,,,,,,,,,,,0,3,3,6,,,,,,,AMNE11.jpg,AMNE05.jpg,AMSA14.jpg,AMSA10.jpg,AMSA14.jpg,MS,2,num_2,16,num_2,1.11672547962,,,2017_Jun_26_1135,59.997382879,MAFE4ImagesEEG,001,100844,
AFNE01.JPG,AFNE01.JPG,AFNE01.JPG,AFNE01.JPG,AFNE01.JPG,AFNE01.JPG,,,,,,,,,,,,,,,,,0,4,4,2,,,,,,,AMSA19.jpg,AMSA15.jpg,AMNE16.jpg,AMNE08.jpg,AMSA15.jpg,MS,2,num_6,16,num_6,1.21672695502,,,2017_Jun_26_1135,59.997382879,MAFE4ImagesEEG,001,100844,
AFNE01.JPG,AFNE01.JPG,AFNE01.JPG,AFNE01.JPG,AFNE01.JPG,AFNE01.JPG,,,,,,,,,,,,,,,,,0,5,5,5,,,,,,,AMSA16.jpg,AMNE13.jpg,AMNE02.jpg,AMSA09.jpg,AMSA09.jpg,MS,2,num_4,32,num_6,0.966775867809,,,2017_Jun_26_1135,59.997382879,MAFE4ImagesEEG,001,100844,
AFNE01.JPG,AFNE01.JPG,AFNE01.JPG,AFNE01.JPG,AFNE01.JPG,AFNE01.JPG,,,,,,,,,,,,,,,,,0,6,6,1,,,,,,,AMSA18.jpg,AMNE05.jpg,AMSA07.jpg,AMNE18.jpg,AMSA18.jpg,MS,2,num_8,16,num_8,0.883410834712,,,2017_Jun_26_1135,59.997382879,MAFE4ImagesEEG,001,100844,
AFNE01.JPG,AFNE01.JPG,AFNE01.JPG,AFNE01.JPG,AFNE01.JPG,AFNE01.JPG,,,,,,,,,,,,,,,,,0,7,7,8,,,,,,,AMNE17.jpg,AMSA18.jpg,AMSA10.jpg,AMNE13.jpg,AMSA18.jpg,MS,2,num_6,16,num_6,0.533455064702,,,2017_Jun_26_1135,59.997382879,MAFE4ImagesEEG,001,100844,
AFNE01.JPG,AFNE01.JPG,AFNE01.JPG,AFNE01.JPG,AFNE01.JPG,AFNE01.JPG,,,,,,,,,,,,,,,,,0,8,8,4,,,,,,,AMSA13.jpg,AMSA11.jpg,AMNE18.jpg,AMNE17.jpg,AMNE17.jpg,MN,1,num_4,32,num_2,0.816799313874,,,2017_Jun_26_1135,59.997382879,MAFE4ImagesEEG,001,100844,
AFNE01.JPG,AFNE01.JPG,AFNE01.JPG,AFNE01.JPG,AFNE01.JPG,AFNE01.JPG,,,,,,,,,,,,,,,,,0,9,9,3,,,,,,,AMNE08.jpg,AMNE18.jpg,AMSA03.jpg,AMSA18.jpg,AMNE18.jpg,MN,1,num_6,32,num_2,0.93347026776,,,2017_Jun_26_1135,59.997382879,MAFE4ImagesEEG,001,100844,
AFNE01.JPG,AFNE01.JPG,AFNE01.JPG,AFNE01.JPG,AFNE01.JPG,AFNE01.JPG,,,,,,,,,,,,,,,,,1,0,10,6,,,,,,,AMSA03.jpg,AMNE02.jpg,AMSA01.jpg,AMNE13.jpg,AMSA01.jpg,MS,2,num_2,16,num_2,0.416817467735,,,2017_Jun_26_1135,59.997382879,MAFE4ImagesEEG,001,100844,
AFNE01.JPG,AFNE01.JPG,AFNE01.JPG,AFNE01.JPG,AFNE01.JPG,AFNE01.JPG,,,,,,,,,,,,,,,,,1,1,11,1,,,,,,,AMNE13.jpg,AMSA10.jpg,AMSA07.jpg,AMNE12.jpg,AMSA07.jpg,MS,2,num_2,32,num_8,1.31670501643,,,2017_Jun_26_1135,59.997382879,MAFE4ImagesEEG,001,100844,
AFNE01.JPG,AFNE01.JPG,AFNE01.JPG,AFNE01.JPG,AFNE01.JPG,AFNE01.JPG,,,,,,,,,,,,,,,,,1,2,12,3,,,,,,,AMNE01.jpg,AMSA01.jpg,AMNE18.jpg,AMSA19.jpg,AMNE01.jpg,MN,1,num_8,16,num_8,0.766756880025,,,2017_Jun_26_1135,59.997382879,MAFE4ImagesEEG,001,100844,
AFNE01.JPG,AFNE01.JPG,AFNE01.JPG,AFNE01.JPG,AFNE01.JPG,AFNE01.JPG,,,,,,,,,,,,,,,,,1,3,13,7,,,,,,,AMNE01.jpg,AMSA08.jpg,AMSA12.jpg,AMNE04.jpg,AMNE04.jpg,MN,1,num_4,16,num_4,0.866747450281,,,2017_Jun_26_1135,59.997382879,MAFE4ImagesEEG,001,100844,
AFNE01.JPG,AFNE01.JPG,AFNE01.JPG,AFNE01.JPG,AFNE01.JPG,AFNE01.JPG,,,,,,,,,,,,,,,,,1,4,14,9,,,,,,,AMSA12.jpg,AMNE14.jpg,AMSA18.jpg,AMNE13.jpg,AMSA12.jpg,MS,2,num_8,32,num_4,1.98337221766,,,2017_Jun_26_1135,59.997382879,MAFE4ImagesEEG,001,100844,
AFNE01.JPG,AFNE01.JPG,AFNE01.JPG,AFNE01.JPG,AFNE01.JPG,AFNE01.JPG,,,,,,,,,,,,,,,,,1,5,15,0,,,,,,,AMNE20.jpg,AMSA03.jpg,AMNE03.jpg,AMSA04.jpg,AMSA03.jpg,MS,2,num_6,32,num_4,1.25008226971,,,2017_Jun_26_1135,59.997382879,MAFE4ImagesEEG,001,100844,
AFNE01.JPG,AFNE01.JPG,AFNE01.JPG,AFNE01.JPG,AFNE01.JPG,AFNE01.JPG,,,,,,,,,,,,,,,,,1,6,16,4,,,,,,,AMNE14.jpg,AMSA18.jpg,AMSA15.jpg,AMNE03.jpg,AMNE14.jpg,MN,1,num_8,16,num_8,1.78339749194,,,2017_Jun_26_1135,59.997382879,MAFE4ImagesEEG,001,100844,
AFNE01.JPG,AFNE01.JPG,AFNE01.JPG,AFNE01.JPG,AFNE01.JPG,AFNE01.JPG,,,,,,,,,,,,,,,,,1,7,17,2,,,,,,,AMNE15.jpg,AMNE08.jpg,AMSA02.jpg,AMSA08.jpg,AMSA08.jpg,MS,2,num_4,16,num_4,1.21668686257,,,2017_Jun_26_1135,59.997382879,MAFE4ImagesEEG,001,100844,
AFNE01.JPG,AFNE01.JPG,AFNE01.JPG,AFNE01.JPG,AFNE01.JPG,AFNE01.JPG,,,,,,,,,,,,,,,,,1,8,18,5,,,,,,,AMSA07.jpg,AMSA11.jpg,AMNE10.jpg,AMNE16.jpg,AMSA07.jpg,MS,2,num_8,16,num_8,1.33338828672,,,2017_Jun_26_1135,59.997382879,MAFE4ImagesEEG,001,100844,
AFNE01.JPG,AFNE01.JPG,AFNE01.JPG,AFNE01.JPG,AFNE01.JPG,AFNE01.JPG,,,,,,,,,,,,,,,,,1,9,19,8,,,,,,,AMSA05.jpg,AMSA09.jpg,AMNE03.jpg,AMNE05.jpg,AMSA09.jpg,MS,2,num_6,16,num_6,1.26681589611,,,2017_Jun_26_1135,59.997382879,MAFE4ImagesEEG,001,100844,
AFNE01.JPG,AFNE01.JPG,AFNE01.JPG,AFNE01.JPG,AFNE01.JPG,AFNE01.JPG,,,,,,,,,,,,,,,,,2,0,20,6,,,,,,,AMNE06.jpg,AMNE05.jpg,AMSA15.jpg,AMSA02.jpg,AMNE06.jpg,MN,1,num_8,16,num_8,1.06674687295,,,2017_Jun_26_1135,59.997382879,MAFE4ImagesEEG,001,100844,
AFNE01.JPG,AFNE01.JPG,AFNE01.JPG,AFNE01.JPG,AFNE01.JPG,AFNE01.JPG,,,,,,,,,,,,,,,,,2,1,21,7,,,,,,,AMNE10.jpg,AMSA15.jpg,AMNE13.jpg,AMSA05.jpg,AMNE13.jpg,MN,1,num_2,32,num_8,0.933439156019,,,2017_Jun_26_1135,59.997382879,MAFE4ImagesEEG,001,100844,
AFNE01.JPG,AFNE01.JPG,AFNE01.JPG,AFNE01.JPG,AFNE01.JPG,AFNE01.JPG,,,,,,,,,,,,,,,,,2,2,22,3,,,,,,,AMSA01.jpg,AMSA16.jpg,AMNE10.jpg,AMNE05.jpg,AMSA16.jpg,MS,2,num_6,32,num_2,1.88336464821,,,2017_Jun_26_1135,59.997382879,MAFE4ImagesEEG,001,100844,
AFNE01.JPG,AFNE01.JPG,AFNE01.JPG,AFNE01.JPG,AFNE01.JPG,AFNE01.JPG,,,,,,,,,,,,,,,,,2,3,23,5,,,,,,,AMNE13.jpg,AMSA16.jpg,AMSA01.jpg,AMNE01.jpg,AMNE13.jpg,MN,1,num_8,32,num_6,1.15007822839,,,2017_Jun_26_1135,59.997382879,MAFE4ImagesEEG,001,100844,
AFNE01.JPG,AFNE01.JPG,AFNE01.JPG,AFNE01.JPG,AFNE01.JPG,AFNE01.JPG,,,,,,,,,,,,,,,,,2,4,24,2,,,,,,,AMNE05.jpg,AMSA14.jpg,AMSA08.jpg,AMNE16.jpg,AMSA14.jpg,MS,2,num_6,16,num_6,0.666763423113,,,2017_Jun_26_1135,59.997382879,MAFE4ImagesEEG,001,100844,
AFNE01.JPG,AFNE01.JPG,AFNE01.JPG,AFNE01.JPG,AFNE01.JPG,AFNE01.JPG,,,,,,,,,,,,,,,,,2,5,25,8,,,,,,,AMSA16.jpg,AMNE19.jpg,AMNE06.jpg,AMSA05.jpg,AMSA05.jpg,MS,2,num_4,16,num_4,0.883461190829,,,2017_Jun_26_1135,59.997382879,MAFE4ImagesEEG,001,100844,
AFNE01.JPG,AFNE01.JPG,AFNE01.JPG,AFNE01.JPG,AFNE01.JPG,AFNE01.JPG,,,,,,,,,,,,,,,,,2,6,26,0,,,,,,,AMNE03.jpg,AMNE04.jpg,AMSA04.jpg,AMSA20.jpg,AMNE03.jpg,MN,1,num_8,32,num_6,1.13287920883,,,2017_Jun_26_1135,59.997382879,MAFE4ImagesEEG,001,100844,
AFNE01.JPG,AFNE01.JPG,AFNE01.JPG,AFNE01.JPG,AFNE01.JPG,AFNE01.JPG,,,,,,,,,,,,,,,,,2,7,27,1,,,,,,,AMSA17.jpg,AMSA07.jpg,AMNE06.jpg,AMNE03.jpg,AMNE06.jpg,MN,1,num_2,32,num_4,1.01675607818,,,2017_Jun_26_1135,59.997382879,MAFE4ImagesEEG,001,100844,
AFNE01.JPG,AFNE01.JPG,AFNE01.JPG,AFNE01.JPG,AFNE01.JPG,AFNE01.JPG,,,,,,,,,,,,,,,,,2,8,28,9,,,,,,,AMSA05.jpg,AMSA14.jpg,AMNE13.jpg,AMNE16.jpg,AMSA14.jpg,MS,2,num_6,16,num_6,0.783440791791,,,2017_Jun_26_1135,59.997382879,MAFE4ImagesEEG,001,100844,
AFNE01.JPG,AFNE01.JPG,AFNE01.JPG,AFNE01.JPG,AFNE01.JPG,AFNE01.JPG,,,,,,,,,,,,,,,,,2,9,29,4,,,,,,,AMSA17.jpg,AMSA16.jpg,AMNE13.jpg,AMNE19.jpg,AMSA17.jpg,MS,2,num_8,32,num_4,1.35014725155,,,2017_Jun_26_1135,59.997382879,MAFE4ImagesEEG,001,100844,
AFNE01.JPG,AFNE01.JPG,AFNE01.JPG,AFNE01.JPG,AFNE01.JPG,AFNE01.JPG,,,,,,,,,,,,,,,,,3,0,30,5,,,,,,,AMSA15.jpg,AMSA04.jpg,AMNE11.jpg,AMNE01.jpg,AMNE11.jpg,MN,1,num_2,32,num_6,2.76658528434,,,2017_Jun_26_1135,59.997382879,MAFE4ImagesEEG,001,100844,
AFNE01.JPG,AFNE01.JPG,AFNE01.JPG,AFNE01.JPG,AFNE01.JPG,AFNE01.JPG,,,,,,,,,,,,,,,,,3,1,31,3,,,,,,,AMNE02.jpg,AMNE04.jpg,AMSA13.jpg,AMSA16.jpg,AMNE02.jpg,MN,1,num_8,32,num_6,1.10009384841,,,2017_Jun_26_1135,59.997382879,MAFE4ImagesEEG,001,100844,
AFNE01.JPG,AFNE01.JPG,AFNE01.JPG,AFNE01.JPG,AFNE01.JPG,AFNE01.JPG,,,,,,,,,,,,,,,,,3,2,32,1,,,,,,,AMNE03.jpg,AMSA11.jpg,AMSA19.jpg,AMNE09.jpg,AMNE09.jpg,MN,1,num_4,16,num_4,1.18343258086,,,2017_Jun_26_1135,59.997382879,MAFE4ImagesEEG,001,100844,
AFNE01.JPG,AFNE01.JPG,AFNE01.JPG,AFNE01.JPG,AFNE01.JPG,AFNE01.JPG,,,,,,,,,,,,,,,,,3,3,33,4,,,,,,,AMNE11.jpg,AMSA04.jpg,AMNE09.jpg,AMSA15.jpg,AMNE09.jpg,MN,1,num_2,16,num_2,1.06641394524,,,2017_Jun_26_1135,59.997382879,MAFE4ImagesEEG,001,100844,
AFNE01.JPG,AFNE01.JPG,AFNE01.JPG,AFNE01.JPG,AFNE01.JPG,AFNE01.JPG,,,,,,,,,,,,,,,,,3,4,34,9,,,,,,,AMSA20.jpg,AMNE10.jpg,AMNE12.jpg,AMSA12.jpg,AMSA12.jpg,MS,2,num_4,32,num_6,0.966866316377,,,2017_Jun_26_1135,59.997382879,MAFE4ImagesEEG,001,100844,
AFNE01.JPG,AFNE01.JPG,AFNE01.JPG,AFNE01.JPG,AFNE01.JPG,AFNE01.JPG,,,,,,,,,,,,,,,,,3,5,35,2,,,,,,,AMNE15.jpg,AMNE13.jpg,AMSA07.jpg,AMSA08.jpg,AMSA08.jpg,MS,2,num_4,32,num_6,2.78328042199,,,2017_Jun_26_1135,59.997382879,MAFE4ImagesEEG,001,100844,
AFNE01.JPG,AFNE01.JPG,AFNE01.JPG,AFNE01.JPG,AFNE01.JPG,AFNE01.JPG,,,,,,,,,,,,,,,,,3,6,36,6,,,,,,,AMNE05.jpg,AMSA11.jpg,AMNE04.jpg,AMSA18.jpg,AMSA11.jpg,MS,2,num_6,32,num_2,1.33314901498,,,2017_Jun_26_1135,59.997382879,MAFE4ImagesEEG,001,100844,
AFNE01.JPG,AFNE01.JPG,AFNE01.JPG,AFNE01.JPG,AFNE01.JPG,AFNE01.JPG,,,,,,,,,,,,,,,,,3,7,37,7,,,,,,,AMNE17.jpg,AMSA08.jpg,AMSA09.jpg,AMNE07.jpg,AMNE07.jpg,MN,1,num_4,32,num_8,2.75009477855,,,2017_Jun_26_1135,59.997382879,MAFE4ImagesEEG,001,100844,
AFNE01.JPG,AFNE01.JPG,AFNE01.JPG,AFNE01.JPG,AFNE01.JPG,AFNE01.JPG,,,,,,,,,,,,,,,,,3,8,38,0,,,,,,,AMNE14.jpg,AMNE13.jpg,AMSA19.jpg,AMSA02.jpg,AMSA19.jpg,MS,2,num_2,16,num_2,1.06674013742,,,2017_Jun_26_1135,59.997382879,MAFE4ImagesEEG,001,100844,
AFNE01.JPG,AFNE01.JPG,AFNE01.JPG,AFNE01.JPG,AFNE01.JPG,AFNE01.JPG,,,,,,,,,,,,,,,,,3,9,39,8,,,,,,,AMNE18.jpg,AMNE04.jpg,AMSA20.jpg,AMSA11.jpg,AMNE04.jpg,MN,1,num_6,32,num_4,1.30005927268,,,2017_Jun_26_1135,59.997382879,MAFE4ImagesEEG,001,100844,
AFNE01.JPG,AFNE01.JPG,AFNE01.JPG,AFNE01.JPG,AFNE01.JPG,AFNE01.JPG,,,,,,,,,,,,,,,,,4,0,40,5,,,,,,,AMNE18.jpg,AMSA17.jpg,AMSA04.jpg,AMNE06.jpg,AMNE06.jpg,MN,1,num_4,32,num_6,1.6166937264,,,2017_Jun_26_1135,59.997382879,MAFE4ImagesEEG,001,100844,
AFNE01.JPG,AFNE01.JPG,AFNE01.JPG,AFNE01.JPG,AFNE01.JPG,AFNE01.JPG,,,,,,,,,,,,,,,,,4,1,41,4,,,,,,,AMSA20.jpg,AMSA18.jpg,AMNE07.jpg,AMNE14.jpg,AMSA18.jpg,MS,2,num_6,32,num_2,1.35023641716,,,2017_Jun_26_1135,59.997382879,MAFE4ImagesEEG,001,100844,
AFNE01.JPG,AFNE01.JPG,AFNE01.JPG,AFNE01.JPG,AFNE01.JPG,AFNE01.JPG,,,,,,,,,,,,,,,,,4,2,42,1,,,,,,,AMNE02.jpg,AMNE05.jpg,AMSA10.jpg,AMSA13.jpg,AMSA13.jpg,MS,2,num_4,16,num_4,2.1500564181,,,2017_Jun_26_1135,59.997382879,MAFE4ImagesEEG,001,100844,
AFNE01.JPG,AFNE01.JPG,AFNE01.JPG,AFNE01.JPG,AFNE01.JPG,AFNE01.JPG,,,,,,,,,,,,,,,,,4,3,43,9,,,,,,,AMNE19.jpg,AMNE07.jpg,AMSA18.jpg,AMSA19.jpg,AMNE07.jpg,MN,1,num_6,16,num_6,1.68340660095,,,2017_Jun_26_1135,59.997382879,MAFE4ImagesEEG,001,100844,
AFNE01.JPG,AFNE01.JPG,AFNE01.JPG,AFNE01.JPG,AFNE01.JPG,AFNE01.JPG,,,,,,,,,,,,,,,,,4,4,44,8,,,,,,,AMSA06.jpg,AMSA18.jpg,AMNE11.jpg,AMNE04.jpg,AMNE04.jpg,MN,1,num_4,32,num_2,3.20001032782,,,2017_Jun_26_1135,59.997382879,MAFE4ImagesEEG,001,100844,
AFNE01.JPG,AFNE01.JPG,AFNE01.JPG,AFNE01.JPG,AFNE01.JPG,AFNE01.JPG,,,,,,,,,,,,,,,,,4,5,45,6,,,,,,,AMSA09.jpg,AMNE15.jpg,AMSA01.jpg,AMNE06.jpg,AMNE06.jpg,MN,1,num_4,32,num_8,1.98335842586,,,2017_Jun_26_1135,59.997382879,MAFE4ImagesEEG,001,100844,
AFNE01.JPG,AFNE01.JPG,AFNE01.JPG,AFNE01.JPG,AFNE01.JPG,AFNE01.JPG,,,,,,,,,,,,,,,,,4,6,46,0,,,,,,,AMSA17.jpg,AMSA11.jpg,AMNE13.jpg,AMNE11.jpg,AMSA17.jpg,MS,2,num_8,32,num_2,2.10002745531,,,2017_Jun_26_1135,59.997382879,MAFE4ImagesEEG,001,100844,
AFNE01.JPG,AFNE01.JPG,AFNE01.JPG,AFNE01.JPG,AFNE01.JPG,AFNE01.JPG,,,,,,,,,,,,,,,,,4,7,47,2,,,,,,,AMNE17.jpg,AMNE14.jpg,AMSA01.jpg,AMSA07.jpg,AMSA01.jpg,MS,2,num_2,16,num_2,1.45003743031,,,2017_Jun_26_1135,59.997382879,MAFE4ImagesEEG,001,100844,
AFNE01.JPG,AFNE01.JPG,AFNE01.JPG,AFNE01.JPG,AFNE01.JPG,AFNE01.JPG,,,,,,,,,,,,,,,,,4,8,48,7,,,,,,,AMSA20.jpg,AMNE20.jpg,AMSA09.jpg,AMNE16.jpg,AMNE16.jpg,MN,1,num_4,32,num_8,2.18359070548,,,2017_Jun_26_1135,59.997382879,MAFE4ImagesEEG,001,100844,
AFNE01.JPG,AFNE01.JPG,AFNE01.JPG,AFNE01.JPG,AFNE01.JPG,AFNE01.JPG,,,,,,,,,,,,,,,,,4,9,49,3,,,,,,,AMNE19.jpg,AMNE10.jpg,AMSA04.jpg,AMSA09.jpg,AMSA09.jpg,MS,2,num_4,32,num_6,1.83336358977,,,2017_Jun_26_1135,59.997382879,MAFE4ImagesEEG,001,100844,
AFNE01.JPG,AFNE01.JPG,AFNE01.JPG,AFNE01.JPG,AFNE01.JPG,AFNE01.JPG,,,,,,,,,,,,,,,,,5,0,50,7,,,,,,,AMNE04.jpg,AMSA05.jpg,AMSA14.jpg,AMNE16.jpg,AMNE04.jpg,MN,1,num_8,32,num_4,1.19974411395,,,2017_Jun_26_1135,59.997382879,MAFE4ImagesEEG,001,100844,
AFNE01.JPG,AFNE01.JPG,AFNE01.JPG,AFNE01.JPG,AFNE01.JPG,AFNE01.JPG,,,,,,,,,,,,,,,,,5,1,51,4,,,,,,,AMNE07.jpg,AMNE06.jpg,AMSA05.jpg,AMSA07.jpg,AMSA05.jpg,MS,2,num_2,32,num_6,1.0667545707,,,2017_Jun_26_1135,59.997382879,MAFE4ImagesEEG,001,100844,
AFNE01.JPG,AFNE01.JPG,AFNE01.JPG,AFNE01.JPG,AFNE01.JPG,AFNE01.JPG,,,,,,,,,,,,,,,,,5,2,52,1,,,,,,,AMSA13.jpg,AMNE15.jpg,AMNE09.jpg,AMSA17.jpg,AMNE15.jpg,MN,1,num_6,32,num_2,1.73338488688,,,2017_Jun_26_1135,59.997382879,MAFE4ImagesEEG,001,100844,
AFNE01.JPG,AFNE01.JPG,AFNE01.JPG,AFNE01.JPG,AFNE01.JPG,AFNE01.JPG,,,,,,,,,,,,,,,,,5,3,53,5,,,,,,,AMSA10.jpg,AMNE16.jpg,AMNE03.jpg,AMSA19.jpg,AMNE16.jpg,MN,1,num_6,32,num_2,1.86669067937,,,2017_Jun_26_1135,59.997382879,MAFE4ImagesEEG,001,100844,
AFNE01.JPG,AFNE01.JPG,AFNE01.JPG,AFNE01.JPG,AFNE01.JPG,AFNE01.JPG,,,,,,,,,,,,,,,,,5,4,54,8,,,,,,,AMSA12.jpg,AMSA07.jpg,AMNE20.jpg,AMNE01.jpg,AMNE20.jpg,MN,1,num_2,32,num_8,1.25012749399,,,2017_Jun_26_1135,59.997382879,MAFE4ImagesEEG,001,100844,
AFNE01.JPG,AFNE01.JPG,AFNE01.JPG,AFNE01.JPG,AFNE01.JPG,AFNE01.JPG,,,,,,,,,,,,,,,,,5,5,55,9,,,,,,,AMSA15.jpg,AMNE01.jpg,AMNE15.jpg,AMSA06.jpg,AMSA15.jpg,MS,2,num_8,16,num_8,1.34981175793,,,2017_Jun_26_1135,59.997382879,MAFE4ImagesEEG,001,100844,
AFNE01.JPG,AFNE01.JPG,AFNE01.JPG,AFNE01.JPG,AFNE01.JPG,AFNE01.JPG,,,,,,,,,,,,,,,,,5,6,56,3,,,,,,,AMSA06.jpg,AMNE08.jpg,AMNE15.jpg,AMSA15.jpg,AMNE08.jpg,MN,1,num_6,16,num_6,0.849991372104,,,2017_Jun_26_1135,59.997382879,MAFE4ImagesEEG,001,100844,
AFNE01.JPG,AFNE01.JPG,AFNE01.JPG,AFNE01.JPG,AFNE01.JPG,AFNE01.JPG,,,,,,,,,,,,,,,,,5,7,57,2,,,,,,,AMSA15.jpg,AMNE20.jpg,AMNE04.jpg,AMSA02.jpg,AMNE04.jpg,MN,1,num_2,16,num_2,0.650092020191,,,2017_Jun_26_1135,59.997382879,MAFE4ImagesEEG,001,100844,
AFNE01.JPG,AFNE01.JPG,AFNE01.JPG,AFNE01.JPG,AFNE01.JPG,AFNE01.JPG,,,,,,,,,,,,,,,,,5,8,58,0,,,,,,,AMNE15.jpg,AMSA08.jpg,AMSA14.jpg,AMNE05.jpg,AMSA08.jpg,MS,2,num_6,48,None,,,,2017_Jun_26_1135,59.997382879,MAFE4ImagesEEG,001,100844,
AFNE01.JPG,AFNE01.JPG,AFNE01.JPG,AFNE01.JPG,AFNE01.JPG,AFNE01.JPG,,,,,,,,,,,,,,,,,5,9,59,6,,,,,,,AMNE11.jpg,AMSA20.jpg,AMSA07.jpg,AMNE09.jpg,AMNE11.jpg,MN,1,num_8,48,None,,,,2017_Jun_26_1135,59.997382879,MAFE4ImagesEEG,001,100844,
,,,,,,,,,,,,,,,,,,,,,,,,,,,,,,,,,,,,,,,,,,,space,40.5303653801,2017_Jun_26_1135,59.997382879,MAFE4ImagesEEG,001,100844,
AFNE01.JPG,AFNE01.JPG,AFNE01.JPG,AFNE01.JPG,AFNE01.JPG,AFNE01.JPG,,,,,,,,,,,,,,,,,,,,,0,0,0,1,,,AFSA03.jpg,AFNE12.jpg,AFSA12.jpg,AFNE18.jpg,AFNE12.jpg,FN,3,num_6,32,num_2,1.2332992494,,,2017_Jun_26_1135,59.997382879,MAFE4ImagesEEG,001,100844,
AFNE01.JPG,AFNE01.JPG,AFNE01.JPG,AFNE01.JPG,AFNE01.JPG,AFNE01.JPG,,,,,,,,,,,,,,,,,,,,,0,1,1,6,,,AFNE12.jpg,AFSA07.jpg,AFNE13.jpg,AFSA05.jpg,AFNE12.jpg,FN,3,num_8,32,num_6,0.600130733461,,,2017_Jun_26_1135,59.997382879,MAFE4ImagesEEG,001,100844,
AFNE01.JPG,AFNE01.JPG,AFNE01.JPG,AFNE01.JPG,AFNE01.JPG,AFNE01.JPG,,,,,,,,,,,,,,,,,,,,,0,2,2,2,,,AFNE18.jpg,AFSA08.jpg,AFSA09.jpg,AFNE15.jpg,AFNE18.jpg,FN,3,num_8,32,num_2,1.05011267582,,,2017_Jun_26_1135,59.997382879,MAFE4ImagesEEG,001,100844,
AFNE01.JPG,AFNE01.JPG,AFNE01.JPG,AFNE01.JPG,AFNE01.JPG,AFNE01.JPG,,,,,,,,,,,,,,,,,,,,,0,3,3,5,,,AFNE15.jpg,AFNE19.jpg,AFSA17.jpg,AFSA04.jpg,AFNE15.jpg,FN,3,num_8,16,num_8,0.933426967914,,,2017_Jun_26_1135,59.997382879,MAFE4ImagesEEG,001,100844,
AFNE01.JPG,AFNE01.JPG,AFNE01.JPG,AFNE01.JPG,AFNE01.JPG,AFNE01.JPG,,,,,,,,,,,,,,,,,,,,,0,4,4,9,,,AFNE12.jpg,AFSA16.jpg,AFSA11.jpg,AFNE01.jpg,AFSA16.jpg,FS,4,num_6,16,num_6,0.716760632678,,,2017_Jun_26_1135,59.997382879,MAFE4ImagesEEG,001,100844,
AFNE01.JPG,AFNE01.JPG,AFNE01.JPG,AFNE01.JPG,AFNE01.JPG,AFNE01.JPG,,,,,,,,,,,,,,,,,,,,,0,5,5,7,,,AFSA10.jpg,AFNE04.jpg,AFNE20.jpg,AFSA06.jpg,AFNE04.jpg,FN,3,num_6,32,num_8,1.1667406506,,,2017_Jun_26_1135,59.997382879,MAFE4ImagesEEG,001,100844,
AFNE01.JPG,AFNE01.JPG,AFNE01.JPG,AFNE01.JPG,AFNE01.JPG,AFNE01.JPG,,,,,,,,,,,,,,,,,,,,,0,6,6,0,,,AFNE17.jpg,AFNE08.jpg,AFSA10.jpg,AFSA19.jpg,AFNE17.jpg,FN,3,num_8,32,num_4,0.733465071778,,,2017_Jun_26_1135,59.997382879,MAFE4ImagesEEG,001,100844,
AFNE01.JPG,AFNE01.JPG,AFNE01.JPG,AFNE01.JPG,AFNE01.JPG,AFNE01.JPG,,,,,,,,,,,,,,,,,,,,,0,7,7,4,,,AFNE08.jpg,AFSA15.jpg,AFNE20.jpg,AFSA13.jpg,AFSA13.jpg,FS,4,num_4,16,num_4,0.500146577998,,,2017_Jun_26_1135,59.997382879,MAFE4ImagesEEG,001,100844,
AFNE01.JPG,AFNE01.JPG,AFNE01.JPG,AFNE01.JPG,AFNE01.JPG,AFNE01.JPG,,,,,,,,,,,,,,,,,,,,,0,8,8,8,,,AFSA05.jpg,AFSA03.jpg,AFNE11.jpg,AFNE17.jpg,AFNE11.jpg,FN,3,num_2,32,num_8,1.15011543418,,,2017_Jun_26_1135,59.997382879,MAFE4ImagesEEG,001,100844,
AFNE01.JPG,AFNE01.JPG,AFNE01.JPG,AFNE01.JPG,AFNE01.JPG,AFNE01.JPG,,,,,,,,,,,,,,,,,,,,,0,9,9,3,,,AFSA16.jpg,AFSA18.jpg,AFNE02.jpg,AFNE04.jpg,AFNE04.jpg,FN,3,num_4,16,num_4,0.566841170392,,,2017_Jun_26_1135,59.997382879,MAFE4ImagesEEG,001,100844,
AFNE01.JPG,AFNE01.JPG,AFNE01.JPG,AFNE01.JPG,AFNE01.JPG,AFNE01.JPG,,,,,,,,,,,,,,,,,,,,,1,0,10,8,,,AFSA15.jpg,AFNE05.jpg,AFNE16.jpg,AFSA12.jpg,AFSA12.jpg,FS,4,num_4,16,num_4,0.650130829683,,,2017_Jun_26_1135,59.997382879,MAFE4ImagesEEG,001,100844,
AFNE01.JPG,AFNE01.JPG,AFNE01.JPG,AFNE01.JPG,AFNE01.JPG,AFNE01.JPG,,,,,,,,,,,,,,,,,,,,,1,1,11,4,,,AFSA09.jpg,AFNE17.jpg,AFSA18.jpg,AFNE08.jpg,AFSA18.jpg,FS,4,num_2,16,num_2,0.850106196882,,,2017_Jun_26_1135,59.997382879,MAFE4ImagesEEG,001,100844,
AFNE01.JPG,AFNE01.JPG,AFNE01.JPG,AFNE01.JPG,AFNE01.JPG,AFNE01.JPG,,,,,,,,,,,,,,,,,,,,,1,2,12,7,,,AFSA20.jpg,AFSA06.jpg,AFNE04.jpg,AFNE08.jpg,AFSA06.jpg,FS,4,num_6,32,num_4,0.933420553122,,,2017_Jun_26_1135,59.997382879,MAFE4ImagesEEG,001,100844,
AFNE01.JPG,AFNE01.JPG,AFNE01.JPG,AFNE01.JPG,AFNE01.JPG,AFNE01.JPG,,,,,,,,,,,,,,,,,,,,,1,3,13,6,,,AFNE10.jpg,AFSA03.jpg,AFSA20.jpg,AFNE13.jpg,AFSA03.jpg,FS,4,num_6,32,num_2,2.25000432999,,,2017_Jun_26_1135,59.997382879,MAFE4ImagesEEG,001,100844,
AFNE01.JPG,AFNE01.JPG,AFNE01.JPG,AFNE01.JPG,AFNE01.JPG,AFNE01.JPG,,,,,,,,,,,,,,,,,,,,,1,4,14,5,,,AFSA16.jpg,AFSA10.jpg,AFNE01.jpg,AFNE04.jpg,AFNE04.jpg,FN,3,num_4,16,num_4,1.38337010078,,,2017_Jun_26_1135,59.997382879,MAFE4ImagesEEG,001,100844,
AFNE01.JPG,AFNE01.JPG,AFNE01.JPG,AFNE01.JPG,AFNE01.JPG,AFNE01.JPG,,,,,,,,,,,,,,,,,,,,,1,5,15,0,,,AFSA12.jpg,AFSA20.jpg,AFNE01.jpg,AFNE12.jpg,AFNE01.jpg,FN,3,num_2,32,num_6,0.850149175988,,,2017_Jun_26_1135,59.997382879,MAFE4ImagesEEG,001,100844,
AFNE01.JPG,AFNE01.JPG,AFNE01.JPG,AFNE01.JPG,AFNE01.JPG,AFNE01.JPG,,,,,,,,,,,,,,,,,,,,,1,6,16,9,,,AFNE07.jpg,AFSA11.jpg,AFSA16.jpg,AFNE05.jpg,AFSA11.jpg,FS,4,num_6,16,num_6,0.700133171082,,,2017_Jun_26_1135,59.997382879,MAFE4ImagesEEG,001,100844,
AFNE01.JPG,AFNE01.JPG,AFNE01.JPG,AFNE01.JPG,AFNE01.JPG,AFNE01.JPG,,,,,,,,,,,,,,,,,,,,,1,7,17,3,,,AFSA14.jpg,AFSA13.jpg,AFNE07.jpg,AFNE11.jpg,AFNE11.jpg,FN,3,num_4,16,num_4,0.916748508721,,,2017_Jun_26_1135,59.997382879,MAFE4ImagesEEG,001,100844,
AFNE01.JPG,AFNE01.JPG,AFNE01.JPG,AFNE01.JPG,AFNE01.JPG,AFNE01.JPG,,,,,,,,,,,,,,,,,,,,,1,8,18,1,,,AFSA16.jpg,AFNE03.jpg,AFSA09.jpg,AFNE11.jpg,AFNE03.jpg,FN,3,num_6,32,num_8,1.20009404085,,,2017_Jun_26_1135,59.997382879,MAFE4ImagesEEG,001,100844,
AFNE01.JPG,AFNE01.JPG,AFNE01.JPG,AFNE01.JPG,AFNE01.JPG,AFNE01.JPG,,,,,,,,,,,,,,,,,,,,,1,9,19,2,,,AFSA14.jpg,AFNE04.jpg,AFSA09.jpg,AFNE02.jpg,AFSA09.jpg,FS,4,num_2,16,num_2,0.583469594207,,,2017_Jun_26_1135,59.997382879,MAFE4ImagesEEG,001,100844,
AFNE01.JPG,AFNE01.JPG,AFNE01.JPG,AFNE01.JPG,AFNE01.JPG,AFNE01.JPG,,,,,,,,,,,,,,,,,,,,,2,0,20,1,,,AFNE05.jpg,AFSA01.jpg,AFNE14.jpg,AFSA08.jpg,AFNE05.jpg,FN,3,num_8,32,num_6,1.33341843624,,,2017_Jun_26_1135,59.997382879,MAFE4ImagesEEG,001,100844,
AFNE01.JPG,AFNE01.JPG,AFNE01.JPG,AFNE01.JPG,AFNE01.JPG,AFNE01.JPG,,,,,,,,,,,,,,,,,,,,,2,1,21,7,,,AFSA16.jpg,AFNE04.jpg,AFSA19.jpg,AFNE11.jpg,AFSA16.jpg,FS,4,num_8,32,num_2,0.833448906503,,,2017_Jun_26_1135,59.997382879,MAFE4ImagesEEG,001,100844,
AFNE01.JPG,AFNE01.JPG,AFNE01.JPG,AFNE01.JPG,AFNE01.JPG,AFNE01.JPG,,,,,,,,,,,,,,,,,,,,,2,2,22,3,,,AFNE02.jpg,AFSA15.jpg,AFNE20.jpg,AFSA05.jpg,AFNE02.jpg,FN,3,num_8,16,num_8,0.766738918607,,,2017_Jun_26_1135,59.997382879,MAFE4ImagesEEG,001,100844,
AFNE01.JPG,AFNE01.JPG,AFNE01.JPG,AFNE01.JPG,AFNE01.JPG,AFNE01.JPG,,,,,,,,,,,,,,,,,,,,,2,3,23,4,,,AFSA05.jpg,AFNE13.jpg,AFSA06.jpg,AFNE11.jpg,AFSA06.jpg,FS,4,num_2,16,num_2,0.883472416715,,,2017_Jun_26_1135,59.997382879,MAFE4ImagesEEG,001,100844,
AFNE01.JPG,AFNE01.JPG,AFNE01.JPG,AFNE01.JPG,AFNE01.JPG,AFNE01.JPG,,,,,,,,,,,,,,,,,,,,,2,4,24,9,,,AFNE02.jpg,AFNE12.jpg,AFSA14.jpg,AFSA11.jpg,AFNE12.jpg,FN,3,num_6,16,num_6,0.83342677547,,,2017_Jun_26_1135,59.997382879,MAFE4ImagesEEG,001,100844,
AFNE01.JPG,AFNE01.JPG,AFNE01.JPG,AFNE01.JPG,AFNE01.JPG,AFNE01.JPG,,,,,,,,,,,,,,,,,,,,,2,5,25,2,,,AFNE15.jpg,AFNE09.jpg,AFSA04.jpg,AFSA05.jpg,AFSA05.jpg,FS,4,num_4,32,num_6,1.80003136833,,,2017_Jun_26_1135,59.997382879,MAFE4ImagesEEG,001,100844,
AFNE01.JPG,AFNE01.JPG,AFNE01.JPG,AFNE01.JPG,AFNE01.JPG,AFNE01.JPG,,,,,,,,,,,,,,,,,,,,,2,6,26,0,,,AFSA19.jpg,AFNE04.jpg,AFSA15.jpg,AFNE11.jpg,AFNE04.jpg,FN,3,num_6,16,num_6,0.700302521591,,,2017_Jun_26_1135,59.997382879,MAFE4ImagesEEG,001,100844,
AFNE01.JPG,AFNE01.JPG,AFNE01.JPG,AFNE01.JPG,AFNE01.JPG,AFNE01.JPG,,,,,,,,,,,,,,,,,,,,,2,7,27,5,,,AFNE07.jpg,AFSA02.jpg,AFSA20.jpg,AFNE02.jpg,AFNE02.jpg,FN,3,num_4,16,num_4,0.600083584739,,,2017_Jun_26_1135,59.997382879,MAFE4ImagesEEG,001,100844,
AFNE01.JPG,AFNE01.JPG,AFNE01.JPG,AFNE01.JPG,AFNE01.JPG,AFNE01.JPG,,,,,,,,,,,,,,,,,,,,,2,8,28,6,,,AFSA06.jpg,AFNE03.jpg,AFSA05.jpg,AFNE12.jpg,AFSA05.jpg,FS,4,num_2,32,num_6,0.750163096086,,,2017_Jun_26_1135,59.997382879,MAFE4ImagesEEG,001,100844,
AFNE01.JPG,AFNE01.JPG,AFNE01.JPG,AFNE01.JPG,AFNE01.JPG,AFNE01.JPG,,,,,,,,,,,,,,,,,,,,,2,9,29,8,,,AFNE19.jpg,AFSA08.jpg,AFSA04.jpg,AFNE12.jpg,AFNE12.jpg,FN,3,num_4,16,num_4,0.949983866799,,,2017_Jun_26_1135,59.997382879,MAFE4ImagesEEG,001,100844,
AFNE01.JPG,AFNE01.JPG,AFNE01.JPG,AFNE01.JPG,AFNE01.JPG,AFNE01.JPG,,,,,,,,,,,,,,,,,,,,,3,0,30,1,,,AFNE16.jpg,AFSA13.jpg,AFSA01.jpg,AFNE20.jpg,AFNE20.jpg,FN,3,num_4,16,num_4,0.650157771809,,,2017_Jun_26_1135,59.997382879,MAFE4ImagesEEG,001,100844,
AFNE01.JPG,AFNE01.JPG,AFNE01.JPG,AFNE01.JPG,AFNE01.JPG,AFNE01.JPG,,,,,,,,,,,,,,,,,,,,,3,1,31,6,,,AFSA15.jpg,AFNE07.jpg,AFSA18.jpg,AFNE05.jpg,AFSA18.jpg,FS,4,num_2,16,num_2,2.21668942849,,,2017_Jun_26_1135,59.997382879,MAFE4ImagesEEG,001,100844,
AFNE01.JPG,AFNE01.JPG,AFNE01.JPG,AFNE01.JPG,AFNE01.JPG,AFNE01.JPG,,,,,,,,,,,,,,,,,,,,,3,2,32,2,,,AFSA12.jpg,AFNE05.jpg,AFSA19.jpg,AFNE15.jpg,AFSA12.jpg,FS,4,num_8,16,num_8,1.00010295741,,,2017_Jun_26_1135,59.997382879,MAFE4ImagesEEG,001,100844,
AFNE01.JPG,AFNE01.JPG,AFNE01.JPG,AFNE01.JPG,AFNE01.JPG,AFNE01.JPG,,,,,,,,,,,,,,,,,,,,,3,3,33,9,,,AFNE19.jpg,AFNE01.jpg,AFSA17.jpg,AFSA04.jpg,AFNE01.jpg,FN,3,num_6,16,num_6,1.08344233134,,,2017_Jun_26_1135,59.997382879,MAFE4ImagesEEG,001,100844,
AFNE01.JPG,AFNE01.JPG,AFNE01.JPG,AFNE01.JPG,AFNE01.JPG,AFNE01.JPG,,,,,,,,,,,,,,,,,,,,,3,4,34,4,,,AFSA13.jpg,AFNE17.jpg,AFSA05.jpg,AFNE19.jpg,AFSA05.jpg,FS,4,num_2,16,num_2,0.900106934583,,,2017_Jun_26_1135,59.997382879,MAFE4ImagesEEG,001,100844,
AFNE01.JPG,AFNE01.JPG,AFNE01.JPG,AFNE01.JPG,AFNE01.JPG,AFNE01.JPG,,,,,,,,,,,,,,,,,,,,,3,5,35,8,,,AFNE07.jpg,AFSA17.jpg,AFSA12.jpg,AFNE15.jpg,AFSA17.jpg,FS,4,num_6,16,num_6,1.23352152195,,,2017_Jun_26_1135,59.997382879,MAFE4ImagesEEG,001,100844,
AFNE01.JPG,AFNE01.JPG,AFNE01.JPG,AFNE01.JPG,AFNE01.JPG,AFNE01.JPG,,,,,,,,,,,,,,,,,,,,,3,6,36,7,,,AFSA02.jpg,AFNE05.jpg,AFNE20.jpg,AFSA08.jpg,AFNE05.jpg,FN,3,num_6,32,num_8,1.50009461818,,,2017_Jun_26_1135,59.997382879,MAFE4ImagesEEG,001,100844,
AFNE01.JPG,AFNE01.JPG,AFNE01.JPG,AFNE01.JPG,AFNE01.JPG,AFNE01.JPG,,,,,,,,,,,,,,,,,,,,,3,7,37,3,,,AFNE03.jpg,AFSA17.jpg,AFNE14.jpg,AFSA02.jpg,AFNE03.jpg,FN,3,num_8,32,num_6,1.00015812462,,,2017_Jun_26_1135,59.997382879,MAFE4ImagesEEG,001,100844,
AFNE01.JPG,AFNE01.JPG,AFNE01.JPG,AFNE01.JPG,AFNE01.JPG,AFNE01.JPG,,,,,,,,,,,,,,,,,,,,,3,8,38,0,,,AFNE05.jpg,AFSA17.jpg,AFNE02.jpg,AFSA09.jpg,AFSA17.jpg,FS,4,num_6,16,num_6,0.700129001468,,,2017_Jun_26_1135,59.997382879,MAFE4ImagesEEG,001,100844,
AFNE01.JPG,AFNE01.JPG,AFNE01.JPG,AFNE01.JPG,AFNE01.JPG,AFNE01.JPG,,,,,,,,,,,,,,,,,,,,,3,9,39,5,,,AFSA02.jpg,AFSA07.jpg,AFNE02.jpg,AFNE18.jpg,AFNE18.jpg,FN,3,num_4,16,num_4,0.900119764166,,,2017_Jun_26_1135,59.997382879,MAFE4ImagesEEG,001,100844,
AFNE01.JPG,AFNE01.JPG,AFNE01.JPG,AFNE01.JPG,AFNE01.JPG,AFNE01.JPG,,,,,,,,,,,,,,,,,,,,,4,0,40,9,,,AFSA14.jpg,AFNE13.jpg,AFSA16.jpg,AFNE05.jpg,AFNE05.jpg,FN,3,num_4,16,num_4,0.716771858564,,,2017_Jun_26_1135,59.997382879,MAFE4ImagesEEG,001,100844,
