IPosition2,IPosition3,IPosition1,IPosition6,IPosition4,IPosition5,TrialsM1.thisRepN,TrialsM1.thisTrialN,TrialsM1.thisN,TrialsM1.thisIndex,TrialsF1.thisRepN,TrialsF1.thisTrialN,TrialsF1.thisN,TrialsF1.thisIndex,TrialsM2.thisRepN,TrialsM2.thisTrialN,TrialsM2.thisN,TrialsM2.thisIndex,TrialsF2.thisRepN,TrialsF2.thisTrialN,TrialsF2.thisN,TrialsF2.thisIndex,TrialsM3.thisRepN,TrialsM3.thisTrialN,TrialsM3.thisN,TrialsM3.thisIndex,TrialsF3.thisRepN,TrialsF3.thisTrialN,TrialsF3.thisN,TrialsF3.thisIndex,InstrKey_resp.keys,InstrKey_resp.rt,Image0 _Position,Image1 _Position,Image2 _Position,Image3 _Position,Center_image,condition,code,correct_answer,accuracy,Key_Resp.keys,Key_Resp.rt,BreakKey_resp.keys,BreakKey_resp.rt,date,frameRate,expName,session,participant,
,,,,,,,,,,,,,,,,,,,,,,,,,,,,,,space,14.0330842473,,,,,,,,,,,,,,2017_Jun_29_1657,59.9779540728,MAFE4ImagesEEG,001,100867,
AFNE23.JPG,AFNE24.JPG,AFNE22.JPG,AFSA24.JPG,AFSA22.JPG,AFSA23.JPG,0,0,0,8,,,,,,,,,,,,,,,,,,,,,,,AMSA04.jpg,AMNE11.jpg,AMSA03.jpg,AMNE13.jpg,AMSA03.jpg,MS,2,num_2,32,num_8,1.33374291728,,,2017_Jun_29_1657,59.9779540728,MAFE4ImagesEEG,001,100867,
AFSA21.JPG,AFNE23.JPG,AFNE21.JPG,AFSA25.JPG,AFNE25.JPG,AFSA23.JPG,0,1,1,4,,,,,,,,,,,,,,,,,,,,,,,AMNE04.jpg,AMSA19.jpg,AMSA04.jpg,AMNE10.jpg,AMNE04.jpg,MN,1,num_8,32,num_6,4.58359842427,,,2017_Jun_29_1657,59.9779540728,MAFE4ImagesEEG,001,100867,
AFSA21.JPG,AFNE22.JPG,AFNE21.JPG,AFSA23.JPG,AFSA22.JPG,AFNE23.JPG,0,2,2,0,,,,,,,,,,,,,,,,,,,,,,,AMNE20.jpg,AMSA19.jpg,AMSA01.jpg,AMNE05.jpg,AMNE20.jpg,MN,1,num_8,32,num_6,1.38378143805,,,2017_Jun_29_1657,59.9779540728,MAFE4ImagesEEG,001,100867,
AFNE22.JPG,AFSA24.JPG,AFSA22.JPG,AFNE25.JPG,AFNE24.JPG,AFSA25.JPG,0,3,3,6,,,,,,,,,,,,,,,,,,,,,,,AMSA08.jpg,AMNE10.jpg,AMSA17.jpg,AMNE12.jpg,AMNE12.jpg,MN,1,num_4,32,num_8,2.41706518512,,,2017_Jun_29_1657,59.9779540728,MAFE4ImagesEEG,001,100867,
AMSA21.JPG,AMNE22.JPG,AMNE21.JPG,AMSA23.JPG,AMSA22.JPG,AMNE23.JPG,0,4,4,1,,,,,,,,,,,,,,,,,,,,,,,AMNE04.jpg,AMNE14.jpg,AMSA01.jpg,AMSA19.jpg,AMNE14.jpg,MN,1,num_6,16,num_6,1.38310435764,,,2017_Jun_29_1657,59.9779540728,MAFE4ImagesEEG,001,100867,
AMSA21.JPG,AMNE23.JPG,AMNE21.JPG,AMSA25.JPG,AMNE25.JPG,AMSA23.JPG,0,5,5,5,,,,,,,,,,,,,,,,,,,,,,,AMSA04.jpg,AMSA03.jpg,AMNE13.jpg,AMNE09.jpg,AMSA04.jpg,MS,2,num_8,32,num_6,0.683967338467,,,2017_Jun_29_1657,59.9779540728,MAFE4ImagesEEG,001,100867,
AMSA25.JPG,AMNE24.JPG,AMSA24.JPG,AMNE26.JPG,AMSA21.JPG,AMNE25.JPG,0,6,6,3,,,,,,,,,,,,,,,,,,,,,,,AMNE11.jpg,AMSA18.jpg,AMSA16.jpg,AMNE05.jpg,AMSA18.jpg,MS,2,num_6,16,num_6,0.833486325922,,,2017_Jun_29_1657,59.9779540728,MAFE4ImagesEEG,001,100867,
AMNE22.JPG,AMSA24.JPG,AMSA22.JPG,AMNE25.JPG,AMNE24.JPG,AMSA25.JPG,0,7,7,7,,,,,,,,,,,,,,,,,,,,,,,AMSA13.jpg,AMSA08.jpg,AMNE15.jpg,AMNE06.jpg,AMNE15.jpg,MN,1,num_2,16,num_2,1.76670554027,,,2017_Jun_29_1657,59.9779540728,MAFE4ImagesEEG,001,100867,
AMNE23.JPG,AMNE24.JPG,AMNE22.JPG,AMSA24.JPG,AMSA22.JPG,AMSA23.JPG,0,8,8,9,,,,,,,,,,,,,,,,,,,,,,,AMSA07.jpg,AMNE06.jpg,AMNE20.jpg,AMSA14.jpg,AMNE06.jpg,MN,1,num_6,32,num_2,1.14969635621,,,2017_Jun_29_1657,59.9779540728,MAFE4ImagesEEG,001,100867,
AFSA25.JPG,AFNE24.JPG,AFSA24.JPG,AFNE21.JPG,AFSA21.JPG,AFNE25.JPG,0,9,9,2,,,,,,,,,,,,,,,,,,,,,,,AMSA11.jpg,AMNE17.jpg,AMNE15.jpg,AMSA07.jpg,AMSA11.jpg,MS,2,num_8,32,num_6,0.750564661343,,,2017_Jun_29_1657,59.9779540728,MAFE4ImagesEEG,001,100867,
AMNE22.JPG,AMSA24.JPG,AMSA22.JPG,AMNE25.JPG,AMNE24.JPG,AMSA25.JPG,,,,,0,0,0,7,,,,,,,,,,,,,,,,,,,AFSA11.jpg,AFNE06.jpg,AFSA07.jpg,AFNE07.jpg,AFSA07.jpg,FS,4,num_2,32,num_4,0.983491874707,,,2017_Jun_29_1657,59.9779540728,MAFE4ImagesEEG,001,100867,
AMSA25.JPG,AMNE24.JPG,AMSA24.JPG,AMNE26.JPG,AMSA21.JPG,AMNE25.JPG,,,,,0,1,1,3,,,,,,,,,,,,,,,,,,,AFSA14.jpg,AFSA17.jpg,AFNE14.jpg,AFNE13.jpg,AFNE13.jpg,FN,3,num_4,32,num_6,0.700238116755,,,2017_Jun_29_1657,59.9779540728,MAFE4ImagesEEG,001,100867,
AFSA21.JPG,AFNE22.JPG,AFNE21.JPG,AFSA23.JPG,AFSA22.JPG,AFNE23.JPG,,,,,0,2,2,0,,,,,,,,,,,,,,,,,,,AFNE14.jpg,AFSA12.jpg,AFSA09.jpg,AFNE07.jpg,AFSA09.jpg,FS,4,num_2,16,num_2,1.05048370679,,,2017_Jun_29_1657,59.9779540728,MAFE4ImagesEEG,001,100867,
AFSA25.JPG,AFNE24.JPG,AFSA24.JPG,AFNE21.JPG,AFSA21.JPG,AFNE25.JPG,,,,,0,3,3,2,,,,,,,,,,,,,,,,,,,AFSA02.jpg,AFNE05.jpg,AFSA07.jpg,AFNE14.jpg,AFNE05.jpg,FN,3,num_6,32,num_8,1.20056944035,,,2017_Jun_29_1657,59.9779540728,MAFE4ImagesEEG,001,100867,
AFNE22.JPG,AFSA24.JPG,AFSA22.JPG,AFNE25.JPG,AFNE24.JPG,AFSA25.JPG,,,,,0,4,4,6,,,,,,,,,,,,,,,,,,,AFSA18.jpg,AFNE01.jpg,AFSA20.jpg,AFNE08.jpg,AFNE08.jpg,FN,3,num_4,16,num_4,0.816627953434,,,2017_Jun_29_1657,59.9779540728,MAFE4ImagesEEG,001,100867,
AMSA21.JPG,AMNE22.JPG,AMNE21.JPG,AMSA23.JPG,AMSA22.JPG,AMNE23.JPG,,,,,0,5,5,1,,,,,,,,,,,,,,,,,,,AFSA17.jpg,AFNE09.jpg,AFNE14.jpg,AFSA01.jpg,AFSA17.jpg,FS,4,num_8,32,num_6,0.800489319692,,,2017_Jun_29_1657,59.9779540728,MAFE4ImagesEEG,001,100867,
AMSA21.JPG,AMNE23.JPG,AMNE21.JPG,AMSA25.JPG,AMNE25.JPG,AMSA23.JPG,,,,,0,6,6,5,,,,,,,,,,,,,,,,,,,AFSA06.jpg,AFNE17.jpg,AFSA11.jpg,AFNE12.jpg,AFNE17.jpg,FN,3,num_6,32,num_4,1.03114569961,,,2017_Jun_29_1657,59.9779540728,MAFE4ImagesEEG,001,100867,
AFSA21.JPG,AFNE23.JPG,AFNE21.JPG,AFSA25.JPG,AFNE25.JPG,AFSA23.JPG,,,,,0,7,7,4,,,,,,,,,,,,,,,,,,,AFSA10.jpg,AFNE03.jpg,AFNE13.jpg,AFSA07.jpg,AFSA10.jpg,FS,4,num_8,32,num_4,0.816784794937,,,2017_Jun_29_1657,59.9779540728,MAFE4ImagesEEG,001,100867,
AFNE23.JPG,AFNE24.JPG,AFNE22.JPG,AFSA24.JPG,AFSA22.JPG,AFSA23.JPG,,,,,0,8,8,8,,,,,,,,,,,,,,,,,,,AFNE02.jpg,AFSA14.jpg,AFSA02.jpg,AFNE05.jpg,AFSA14.jpg,FS,4,num_6,32,num_8,0.88384109555,,,2017_Jun_29_1657,59.9779540728,MAFE4ImagesEEG,001,100867,
AMNE23.JPG,AMNE24.JPG,AMNE22.JPG,AMSA24.JPG,AMSA22.JPG,AMSA23.JPG,,,,,0,9,9,9,,,,,,,,,,,,,,,,,,,AFNE20.jpg,AFSA13.jpg,AFSA11.jpg,AFNE02.jpg,AFSA13.jpg,FS,4,num_6,32,num_4,1.0504692735,,,2017_Jun_29_1657,59.9779540728,MAFE4ImagesEEG,001,100867,
AMSA21.JPG,AMNE23.JPG,AMNE21.JPG,AMSA25.JPG,AMNE25.JPG,AMSA23.JPG,,,,,,,,,0,0,0,5,,,,,,,,,,,,,,,AMSA17.jpg,AMNE02.jpg,AMNE18.jpg,AMSA04.jpg,AMNE02.jpg,MN,1,num_6,32,num_4,1.13387044318,,,2017_Jun_29_1657,59.9779540728,MAFE4ImagesEEG,001,100867,
AFNE22.JPG,AFSA24.JPG,AFSA22.JPG,AFNE25.JPG,AFNE24.JPG,AFSA25.JPG,,,,,,,,,0,1,1,6,,,,,,,,,,,,,,,AMNE13.jpg,AMNE11.jpg,AMSA01.jpg,AMSA17.jpg,AMSA17.jpg,MS,2,num_4,16,num_4,1.10010302142,,,2017_Jun_29_1657,59.9779540728,MAFE4ImagesEEG,001,100867,
AMSA21.JPG,AMNE22.JPG,AMNE21.JPG,AMSA23.JPG,AMSA22.JPG,AMNE23.JPG,,,,,,,,,0,2,2,1,,,,,,,,,,,,,,,AMNE12.jpg,AMNE06.jpg,AMSA16.jpg,AMSA18.jpg,AMNE12.jpg,MN,1,num_8,32,num_4,0.767154575122,,,2017_Jun_29_1657,59.9779540728,MAFE4ImagesEEG,001,100867,
AFSA21.JPG,AFNE23.JPG,AFNE21.JPG,AFSA25.JPG,AFNE25.JPG,AFSA23.JPG,,,,,,,,,0,3,3,4,,,,,,,,,,,,,,,AMSA14.jpg,AMSA04.jpg,AMNE18.jpg,AMNE01.jpg,AMNE01.jpg,MN,1,num_4,16,num_4,0.900151645503,,,2017_Jun_29_1657,59.9779540728,MAFE4ImagesEEG,001,100867,
AMNE23.JPG,AMNE24.JPG,AMNE22.JPG,AMSA24.JPG,AMSA22.JPG,AMSA23.JPG,,,,,,,,,0,4,4,9,,,,,,,,,,,,,,,AMNE05.jpg,AMSA07.jpg,AMSA09.jpg,AMNE09.jpg,AMSA07.jpg,MS,2,num_6,16,num_6,0.950105811877,,,2017_Jun_29_1657,59.9779540728,MAFE4ImagesEEG,001,100867,
AFNE23.JPG,AFNE24.JPG,AFNE22.JPG,AFSA24.JPG,AFSA22.JPG,AFSA23.JPG,,,,,,,,,0,5,5,8,,,,,,,,,,,,,,,AMSA17.jpg,AMNE05.jpg,AMNE11.jpg,AMSA11.jpg,AMNE05.jpg,MN,1,num_6,32,num_4,0.733731627261,,,2017_Jun_29_1657,59.9779540728,MAFE4ImagesEEG,001,100867,
AMNE22.JPG,AMSA24.JPG,AMSA22.JPG,AMNE25.JPG,AMNE24.JPG,AMSA25.JPG,,,,,,,,,0,6,6,7,,,,,,,,,,,,,,,AMSA08.jpg,AMNE01.jpg,AMNE15.jpg,AMSA15.jpg,AMNE15.jpg,MN,1,num_2,32,num_8,0.950450606499,,,2017_Jun_29_1657,59.9779540728,MAFE4ImagesEEG,001,100867,
AFSA21.JPG,AFNE22.JPG,AFNE21.JPG,AFSA23.JPG,AFSA22.JPG,AFNE23.JPG,,,,,,,,,0,7,7,0,,,,,,,,,,,,,,,AMSA19.jpg,AMNE01.jpg,AMSA17.jpg,AMNE02.jpg,AMNE02.jpg,MN,1,num_4,16,num_4,1.01707647514,,,2017_Jun_29_1657,59.9779540728,MAFE4ImagesEEG,001,100867,
AMSA25.JPG,AMNE24.JPG,AMSA24.JPG,AMNE26.JPG,AMSA21.JPG,AMNE25.JPG,,,,,,,,,0,8,8,3,,,,,,,,,,,,,,,AMSA05.jpg,AMNE05.jpg,AMSA17.jpg,AMNE16.jpg,AMSA05.jpg,MS,2,num_8,32,num_6,0.983703241829,,,2017_Jun_29_1657,59.9779540728,MAFE4ImagesEEG,001,100867,
AFSA25.JPG,AFNE24.JPG,AFSA24.JPG,AFNE21.JPG,AFSA21.JPG,AFNE25.JPG,,,,,,,,,0,9,9,2,,,,,,,,,,,,,,,AMSA20.jpg,AMSA16.jpg,AMNE03.jpg,AMNE02.jpg,AMSA16.jpg,MS,2,num_6,32,num_2,1.58367860905,,,2017_Jun_29_1657,59.9779540728,MAFE4ImagesEEG,001,100867,
AMNE22.JPG,AMSA24.JPG,AMSA22.JPG,AMNE25.JPG,AMNE24.JPG,AMSA25.JPG,,,,,,,,,,,,,0,0,0,7,,,,,,,,,,,AFNE08.jpg,AFNE09.jpg,AFSA09.jpg,AFSA01.jpg,AFSA09.jpg,FS,4,num_2,32,num_8,0.883795550559,,,2017_Jun_29_1657,59.9779540728,MAFE4ImagesEEG,001,100867,
AMSA21.JPG,AMNE22.JPG,AMNE21.JPG,AMSA23.JPG,AMSA22.JPG,AMNE23.JPG,,,,,,,,,,,,,0,1,1,1,,,,,,,,,,,AFNE11.jpg,AFSA17.jpg,AFNE09.jpg,AFSA12.jpg,AFSA12.jpg,FS,4,num_4,16,num_4,0.600457438239,,,2017_Jun_29_1657,59.9779540728,MAFE4ImagesEEG,001,100867,
AFNE23.JPG,AFNE24.JPG,AFNE22.JPG,AFSA24.JPG,AFSA22.JPG,AFSA23.JPG,,,,,,,,,,,,,0,2,2,8,,,,,,,,,,,AFNE12.jpg,AFNE07.jpg,AFSA19.jpg,AFSA07.jpg,AFNE07.jpg,FN,3,num_6,16,num_6,0.833907456486,,,2017_Jun_29_1657,59.9779540728,MAFE4ImagesEEG,001,100867,
AMSA21.JPG,AMNE23.JPG,AMNE21.JPG,AMSA25.JPG,AMNE25.JPG,AMSA23.JPG,,,,,,,,,,,,,0,3,3,5,,,,,,,,,,,AFNE20.jpg,AFSA08.jpg,AFNE03.jpg,AFSA19.jpg,AFSA08.jpg,FS,4,num_6,16,num_6,0.683539472404,,,2017_Jun_29_1657,59.9779540728,MAFE4ImagesEEG,001,100867,
AMSA25.JPG,AMNE24.JPG,AMSA24.JPG,AMNE26.JPG,AMSA21.JPG,AMNE25.JPG,,,,,,,,,,,,,0,4,4,3,,,,,,,,,,,AFNE14.jpg,AFSA12.jpg,AFNE16.jpg,AFSA14.jpg,AFNE14.jpg,FN,3,num_8,16,num_8,0.833848440467,,,2017_Jun_29_1657,59.9779540728,MAFE4ImagesEEG,001,100867,
AFSA25.JPG,AFNE24.JPG,AFSA24.JPG,AFNE21.JPG,AFSA21.JPG,AFNE25.JPG,,,,,,,,,,,,,0,5,5,2,,,,,,,,,,,AFSA18.jpg,AFSA14.jpg,AFNE19.jpg,AFNE09.jpg,AFSA14.jpg,FS,4,num_6,16,num_6,0.883446907072,,,2017_Jun_29_1657,59.9779540728,MAFE4ImagesEEG,001,100867,
AFSA21.JPG,AFNE22.JPG,AFNE21.JPG,AFSA23.JPG,AFSA22.JPG,AFNE23.JPG,,,,,,,,,,,,,0,6,6,0,,,,,,,,,,,AFNE19.jpg,AFNE11.jpg,AFSA02.jpg,AFSA15.jpg,AFNE11.jpg,FN,3,num_6,16,num_6,1.01714318889,,,2017_Jun_29_1657,59.9779540728,MAFE4ImagesEEG,001,100867,
AFSA21.JPG,AFNE23.JPG,AFNE21.JPG,AFSA25.JPG,AFNE25.JPG,AFSA23.JPG,,,,,,,,,,,,,0,7,7,4,,,,,,,,,,,AFSA04.jpg,AFNE02.jpg,AFSA06.jpg,AFNE07.jpg,AFSA04.jpg,FS,4,num_8,32,num_6,0.916951964173,,,2017_Jun_29_1657,59.9779540728,MAFE4ImagesEEG,001,100867,
AFNE22.JPG,AFSA24.JPG,AFSA22.JPG,AFNE25.JPG,AFNE24.JPG,AFSA25.JPG,,,,,,,,,,,,,0,8,8,6,,,,,,,,,,,AFSA06.jpg,AFNE20.jpg,AFSA12.jpg,AFNE14.jpg,AFSA12.jpg,FS,4,num_2,32,num_8,0.750459779636,,,2017_Jun_29_1657,59.9779540728,MAFE4ImagesEEG,001,100867,
AMNE23.JPG,AMNE24.JPG,AMNE22.JPG,AMSA24.JPG,AMSA22.JPG,AMSA23.JPG,,,,,,,,,,,,,0,9,9,9,,,,,,,,,,,AFSA14.jpg,AFNE07.jpg,AFNE08.jpg,AFSA12.jpg,AFNE08.jpg,FN,3,num_2,32,num_4,0.816839962034,,,2017_Jun_29_1657,59.9779540728,MAFE4ImagesEEG,001,100867,
AFSA21.JPG,AFNE22.JPG,AFNE21.JPG,AFSA23.JPG,AFSA22.JPG,AFNE23.JPG,,,,,,,,,,,,,,,,,0,0,0,0,,,,,,,AMNE07.jpg,AMSA19.jpg,AMSA03.jpg,AMNE10.jpg,AMNE10.jpg,MN,1,num_4,16,num_4,1.95006379503,,,2017_Jun_29_1657,59.9779540728,MAFE4ImagesEEG,001,100867,
AFSA21.JPG,AFNE23.JPG,AFNE21.JPG,AFSA25.JPG,AFNE25.JPG,AFSA23.JPG,,,,,,,,,,,,,,,,,0,1,1,4,,,,,,,AMNE12.jpg,AMSA08.jpg,AMNE10.jpg,AMSA17.jpg,AMNE12.jpg,MN,1,num_8,32,num_6,1.08377867969,,,2017_Jun_29_1657,59.9779540728,MAFE4ImagesEEG,001,100867,
AFNE23.JPG,AFNE24.JPG,AFNE22.JPG,AFSA24.JPG,AFSA22.JPG,AFSA23.JPG,,,,,,,,,,,,,,,,,0,2,2,8,,,,,,,AMNE12.jpg,AMSA07.jpg,AMNE01.jpg,AMSA09.jpg,AMSA07.jpg,MS,2,num_6,16,num_6,1.20009314266,,,2017_Jun_29_1657,59.9779540728,MAFE4ImagesEEG,001,100867,
AMSA25.JPG,AMNE24.JPG,AMSA24.JPG,AMNE26.JPG,AMSA21.JPG,AMNE25.JPG,,,,,,,,,,,,,,,,,0,3,3,3,,,,,,,AMNE16.jpg,AMSA19.jpg,AMNE03.jpg,AMSA09.jpg,AMNE16.jpg,MN,1,num_8,32,num_4,1.30074719401,,,2017_Jun_29_1657,59.9779540728,MAFE4ImagesEEG,001,100867,
AMNE22.JPG,AMSA24.JPG,AMSA22.JPG,AMNE25.JPG,AMNE24.JPG,AMSA25.JPG,,,,,,,,,,,,,,,,,0,4,4,7,,,,,,,AMSA05.jpg,AMNE05.jpg,AMNE04.jpg,AMSA09.jpg,AMSA09.jpg,MS,2,num_4,32,num_8,1.00007473223,,,2017_Jun_29_1657,59.9779540728,MAFE4ImagesEEG,001,100867,
AMSA21.JPG,AMNE23.JPG,AMNE21.JPG,AMSA25.JPG,AMNE25.JPG,AMSA23.JPG,,,,,,,,,,,,,,,,,0,5,5,5,,,,,,,AMSA08.jpg,AMNE07.jpg,AMNE03.jpg,AMSA01.jpg,AMSA01.jpg,MS,2,num_4,16,num_4,0.883423493098,,,2017_Jun_29_1657,59.9779540728,MAFE4ImagesEEG,001,100867,
AMSA21.JPG,AMNE22.JPG,AMNE21.JPG,AMSA23.JPG,AMSA22.JPG,AMNE23.JPG,,,,,,,,,,,,,,,,,0,6,6,1,,,,,,,AMNE08.jpg,AMSA16.jpg,AMSA03.jpg,AMNE06.jpg,AMSA03.jpg,MS,2,num_2,16,num_2,1.66702557381,,,2017_Jun_29_1657,59.9779540728,MAFE4ImagesEEG,001,100867,
AMNE23.JPG,AMNE24.JPG,AMNE22.JPG,AMSA24.JPG,AMSA22.JPG,AMSA23.JPG,,,,,,,,,,,,,,,,,0,7,7,9,,,,,,,AMNE07.jpg,AMSA14.jpg,AMSA13.jpg,AMNE09.jpg,AMNE07.jpg,MN,1,num_8,32,num_4,0.900112194562,,,2017_Jun_29_1657,59.9779540728,MAFE4ImagesEEG,001,100867,
AFNE22.JPG,AFSA24.JPG,AFSA22.JPG,AFNE25.JPG,AFNE24.JPG,AFSA25.JPG,,,,,,,,,,,,,,,,,0,8,8,6,,,,,,,AMSA06.jpg,AMNE10.jpg,AMNE15.jpg,AMSA04.jpg,AMSA04.jpg,MS,2,num_4,16,num_4,1.26671676614,,,2017_Jun_29_1657,59.9779540728,MAFE4ImagesEEG,001,100867,
AFSA25.JPG,AFNE24.JPG,AFSA24.JPG,AFNE21.JPG,AFSA21.JPG,AFNE25.JPG,,,,,,,,,,,,,,,,,0,9,9,2,,,,,,,AMSA10.jpg,AMNE18.jpg,AMSA02.jpg,AMNE11.jpg,AMSA02.jpg,MS,2,num_2,32,num_4,0.883764759608,,,2017_Jun_29_1657,59.9779540728,MAFE4ImagesEEG,001,100867,
AMSA21.JPG,AMNE23.JPG,AMNE21.JPG,AMSA25.JPG,AMNE25.JPG,AMSA23.JPG,,,,,,,,,,,,,,,,,,,,,0,0,0,5,,,AFNE08.jpg,AFSA19.jpg,AFNE09.jpg,AFSA10.jpg,AFNE09.jpg,FN,3,num_2,32,num_6,0.900106421264,,,2017_Jun_29_1657,59.9779540728,MAFE4ImagesEEG,001,100867,
AMNE22.JPG,AMSA24.JPG,AMSA22.JPG,AMNE25.JPG,AMNE24.JPG,AMSA25.JPG,,,,,,,,,,,,,,,,,,,,,0,1,1,7,,,AFSA04.jpg,AFNE17.jpg,AFNE01.jpg,AFSA18.jpg,AFSA18.jpg,FS,4,num_4,32,num_8,0.933864862309,,,2017_Jun_29_1657,59.9779540728,MAFE4ImagesEEG,001,100867,
AMSA21.JPG,AMNE22.JPG,AMNE21.JPG,AMSA23.JPG,AMSA22.JPG,AMNE23.JPG,,,,,,,,,,,,,,,,,,,,,0,2,2,1,,,AFNE12.jpg,AFNE09.jpg,AFSA03.jpg,AFSA19.jpg,AFSA03.jpg,FS,4,num_2,16,num_2,1.40049194978,,,2017_Jun_29_1657,59.9779540728,MAFE4ImagesEEG,001,100867,
AFSA25.JPG,AFNE24.JPG,AFSA24.JPG,AFNE21.JPG,AFSA21.JPG,AFNE25.JPG,,,,,,,,,,,,,,,,,,,,,0,3,3,2,,,AFSA20.jpg,AFNE02.jpg,AFSA01.jpg,AFNE08.jpg,AFSA01.jpg,FS,4,num_2,32,num_8,0.800490281923,,,2017_Jun_29_1657,59.9779540728,MAFE4ImagesEEG,001,100867,
AFSA21.JPG,AFNE23.JPG,AFNE21.JPG,AFSA25.JPG,AFNE25.JPG,AFSA23.JPG,,,,,,,,,,,,,,,,,,,,,0,4,4,4,,,AFNE08.jpg,AFNE15.jpg,AFSA17.jpg,AFSA01.jpg,AFSA17.jpg,FS,4,num_2,32,num_8,0.83097012699,,,2017_Jun_29_1657,59.9779540728,MAFE4ImagesEEG,001,100867,
AFNE22.JPG,AFSA24.JPG,AFSA22.JPG,AFNE25.JPG,AFNE24.JPG,AFSA25.JPG,,,,,,,,,,,,,,,,,,,,,0,5,5,6,,,AFSA01.jpg,AFNE05.jpg,AFSA10.jpg,AFNE02.jpg,AFNE02.jpg,FN,3,num_4,32,num_8,1.05015206244,,,2017_Jun_29_1657,59.9779540728,MAFE4ImagesEEG,001,100867,
AFSA21.JPG,AFNE22.JPG,AFNE21.JPG,AFSA23.JPG,AFSA22.JPG,AFNE23.JPG,,,,,,,,,,,,,,,,,,,,,0,6,6,0,,,AFSA06.jpg,AFSA07.jpg,AFNE18.jpg,AFNE05.jpg,AFNE18.jpg,FN,3,num_2,32,num_6,0.716730846558,,,2017_Jun_29_1657,59.9779540728,MAFE4ImagesEEG,001,100867,
AMSA25.JPG,AMNE24.JPG,AMSA24.JPG,AMNE26.JPG,AMSA21.JPG,AMNE25.JPG,,,,,,,,,,,,,,,,,,,,,0,7,7,3,,,AFNE09.jpg,AFSA01.jpg,AFSA02.jpg,AFNE19.jpg,AFSA02.jpg,FS,4,num_2,32,num_6,0.700440823915,,,2017_Jun_29_1657,59.9779540728,MAFE4ImagesEEG,001,100867,
AFNE23.JPG,AFNE24.JPG,AFNE22.JPG,AFSA24.JPG,AFSA22.JPG,AFSA23.JPG,,,,,,,,,,,,,,,,,,,,,0,8,8,8,,,AFSA17.jpg,AFNE01.jpg,AFSA13.jpg,AFNE14.jpg,AFSA13.jpg,FS,4,num_2,32,num_8,0.800487395289,,,2017_Jun_29_1657,59.9779540728,MAFE4ImagesEEG,001,100867,
AMNE23.JPG,AMNE24.JPG,AMNE22.JPG,AMSA24.JPG,AMSA22.JPG,AMSA23.JPG,,,,,,,,,,,,,,,,,,,,,0,9,9,9,,,AFNE11.jpg,AFNE04.jpg,AFSA13.jpg,AFSA11.jpg,AFNE11.jpg,FN,3,num_8,32,num_4,0.750060459337,,,2017_Jun_29_1657,59.9779540728,MAFE4ImagesEEG,001,100867,
,,,,,,,,,,,,,,,,,,,,,,,,,,,,,,,,,,,,,,,,,,,space,9.01583842185,2017_Jun_29_1657,59.9779540728,MAFE4ImagesEEG,001,100867,
AFNE01.JPG,AFNE01.JPG,AFNE01.JPG,AFNE01.JPG,AFNE01.JPG,AFNE01.JPG,0,0,0,9,,,,,,,,,,,,,,,,,,,,,,,AMSA18.jpg,AMNE06.jpg,AMNE07.jpg,AMSA08.jpg,AMNE06.jpg,MN,1,num_6,32,num_4,1.18346794759,,,2017_Jun_29_1657,59.9779540728,MAFE4ImagesEEG,001,100867,
AFNE01.JPG,AFNE01.JPG,AFNE01.JPG,AFNE01.JPG,AFNE01.JPG,AFNE01.JPG,0,1,1,7,,,,,,,,,,,,,,,,,,,,,,,AMNE15.jpg,AMSA01.jpg,AMNE11.jpg,AMSA20.jpg,AMSA20.jpg,MS,2,num_4,16,num_4,0.900131438917,,,2017_Jun_29_1657,59.9779540728,MAFE4ImagesEEG,001,100867,
AFNE01.JPG,AFNE01.JPG,AFNE01.JPG,AFNE01.JPG,AFNE01.JPG,AFNE01.JPG,0,2,2,3,,,,,,,,,,,,,,,,,,,,,,,AMNE01.jpg,AMSA11.jpg,AMSA06.jpg,AMNE20.jpg,AMSA06.jpg,MS,2,num_2,32,num_4,0.783359601861,,,2017_Jun_29_1657,59.9779540728,MAFE4ImagesEEG,001,100867,
AFNE01.JPG,AFNE01.JPG,AFNE01.JPG,AFNE01.JPG,AFNE01.JPG,AFNE01.JPG,0,3,3,4,,,,,,,,,,,,,,,,,,,,,,,AMSA06.jpg,AMNE12.jpg,AMSA19.jpg,AMNE05.jpg,AMSA06.jpg,MS,2,num_8,32,num_6,1.01667843779,,,2017_Jun_29_1657,59.9779540728,MAFE4ImagesEEG,001,100867,
AFNE01.JPG,AFNE01.JPG,AFNE01.JPG,AFNE01.JPG,AFNE01.JPG,AFNE01.JPG,0,4,4,0,,,,,,,,,,,,,,,,,,,,,,,AMNE04.jpg,AMSA17.jpg,AMNE08.jpg,AMSA01.jpg,AMNE04.jpg,MN,1,num_8,32,num_4,1.0170909084,,,2017_Jun_29_1657,59.9779540728,MAFE4ImagesEEG,001,100867,
AFNE01.JPG,AFNE01.JPG,AFNE01.JPG,AFNE01.JPG,AFNE01.JPG,AFNE01.JPG,0,5,5,2,,,,,,,,,,,,,,,,,,,,,,,AMSA17.jpg,AMNE19.jpg,AMNE12.jpg,AMSA18.jpg,AMSA18.jpg,MS,2,num_4,16,num_4,1.06665890478,,,2017_Jun_29_1657,59.9779540728,MAFE4ImagesEEG,001,100867,
AFNE01.JPG,AFNE01.JPG,AFNE01.JPG,AFNE01.JPG,AFNE01.JPG,AFNE01.JPG,0,6,6,8,,,,,,,,,,,,,,,,,,,,,,,AMNE10.jpg,AMSA04.jpg,AMSA15.jpg,AMNE18.jpg,AMNE10.jpg,MN,1,num_8,32,num_4,1.60037885714,,,2017_Jun_29_1657,59.9779540728,MAFE4ImagesEEG,001,100867,
AFNE01.JPG,AFNE01.JPG,AFNE01.JPG,AFNE01.JPG,AFNE01.JPG,AFNE01.JPG,0,7,7,6,,,,,,,,,,,,,,,,,,,,,,,AMNE11.jpg,AMNE12.jpg,AMSA14.jpg,AMSA11.jpg,AMNE11.jpg,MN,1,num_8,32,num_4,1.06660598281,,,2017_Jun_29_1657,59.9779540728,MAFE4ImagesEEG,001,100867,
AFNE01.JPG,AFNE01.JPG,AFNE01.JPG,AFNE01.JPG,AFNE01.JPG,AFNE01.JPG,0,8,8,5,,,,,,,,,,,,,,,,,,,,,,,AMNE17.jpg,AMNE18.jpg,AMSA20.jpg,AMSA17.jpg,AMNE18.jpg,MN,1,num_6,32,num_4,0.967092480016,,,2017_Jun_29_1657,59.9779540728,MAFE4ImagesEEG,001,100867,
AFNE01.JPG,AFNE01.JPG,AFNE01.JPG,AFNE01.JPG,AFNE01.JPG,AFNE01.JPG,0,9,9,1,,,,,,,,,,,,,,,,,,,,,,,AMNE13.jpg,AMSA08.jpg,AMSA13.jpg,AMNE14.jpg,AMSA13.jpg,MS,2,num_2,32,num_4,0.80007781132,,,2017_Jun_29_1657,59.9779540728,MAFE4ImagesEEG,001,100867,
AFNE01.JPG,AFNE01.JPG,AFNE01.JPG,AFNE01.JPG,AFNE01.JPG,AFNE01.JPG,1,0,10,7,,,,,,,,,,,,,,,,,,,,,,,AMSA17.jpg,AMNE10.jpg,AMSA10.jpg,AMNE03.jpg,AMNE10.jpg,MN,1,num_6,32,num_4,0.983774445922,,,2017_Jun_29_1657,59.9779540728,MAFE4ImagesEEG,001,100867,
AFNE01.JPG,AFNE01.JPG,AFNE01.JPG,AFNE01.JPG,AFNE01.JPG,AFNE01.JPG,1,1,11,0,,,,,,,,,,,,,,,,,,,,,,,AMSA15.jpg,AMSA08.jpg,AMNE09.jpg,AMNE03.jpg,AMNE09.jpg,MN,1,num_2,16,num_2,1.65041224609,,,2017_Jun_29_1657,59.9779540728,MAFE4ImagesEEG,001,100867,
AFNE01.JPG,AFNE01.JPG,AFNE01.JPG,AFNE01.JPG,AFNE01.JPG,AFNE01.JPG,1,2,12,3,,,,,,,,,,,,,,,,,,,,,,,AMNE10.jpg,AMSA17.jpg,AMSA20.jpg,AMNE09.jpg,AMSA17.jpg,MS,2,num_6,16,num_6,0.550092084217,,,2017_Jun_29_1657,59.9779540728,MAFE4ImagesEEG,001,100867,
AFNE01.JPG,AFNE01.JPG,AFNE01.JPG,AFNE01.JPG,AFNE01.JPG,AFNE01.JPG,1,3,13,6,,,,,,,,,,,,,,,,,,,,,,,AMNE10.jpg,AMNE18.jpg,AMSA06.jpg,AMSA10.jpg,AMSA10.jpg,MS,2,num_4,16,num_4,0.867559732869,,,2017_Jun_29_1657,59.9779540728,MAFE4ImagesEEG,001,100867,
AFNE01.JPG,AFNE01.JPG,AFNE01.JPG,AFNE01.JPG,AFNE01.JPG,AFNE01.JPG,1,4,14,8,,,,,,,,,,,,,,,,,,,,,,,AMNE11.jpg,AMNE14.jpg,AMSA18.jpg,AMSA16.jpg,AMSA16.jpg,MS,2,num_4,16,num_4,0.800612162828,,,2017_Jun_29_1657,59.9779540728,MAFE4ImagesEEG,001,100867,
AFNE01.JPG,AFNE01.JPG,AFNE01.JPG,AFNE01.JPG,AFNE01.JPG,AFNE01.JPG,1,5,15,9,,,,,,,,,,,,,,,,,,,,,,,AMNE13.jpg,AMSA17.jpg,AMSA13.jpg,AMNE10.jpg,AMSA13.jpg,MS,2,num_2,16,num_2,1.31671936411,,,2017_Jun_29_1657,59.9779540728,MAFE4ImagesEEG,001,100867,
AFNE01.JPG,AFNE01.JPG,AFNE01.JPG,AFNE01.JPG,AFNE01.JPG,AFNE01.JPG,1,6,16,1,,,,,,,,,,,,,,,,,,,,,,,AMNE19.jpg,AMSA16.jpg,AMNE18.jpg,AMSA13.jpg,AMSA16.jpg,MS,2,num_6,16,num_6,0.533785703883,,,2017_Jun_29_1657,59.9779540728,MAFE4ImagesEEG,001,100867,
AFNE01.JPG,AFNE01.JPG,AFNE01.JPG,AFNE01.JPG,AFNE01.JPG,AFNE01.JPG,1,7,17,4,,,,,,,,,,,,,,,,,,,,,,,AMSA05.jpg,AMNE01.jpg,AMNE05.jpg,AMSA11.jpg,AMNE01.jpg,MN,1,num_6,16,num_6,0.88372562945,,,2017_Jun_29_1657,59.9779540728,MAFE4ImagesEEG,001,100867,
AFNE01.JPG,AFNE01.JPG,AFNE01.JPG,AFNE01.JPG,AFNE01.JPG,AFNE01.JPG,1,8,18,2,,,,,,,,,,,,,,,,,,,,,,,AMSA08.jpg,AMSA10.jpg,AMNE19.jpg,AMNE13.jpg,AMSA10.jpg,MS,2,num_6,32,num_8,1.0001286164,,,2017_Jun_29_1657,59.9779540728,MAFE4ImagesEEG,001,100867,
AFNE01.JPG,AFNE01.JPG,AFNE01.JPG,AFNE01.JPG,AFNE01.JPG,AFNE01.JPG,1,9,19,5,,,,,,,,,,,,,,,,,,,,,,,AMNE07.jpg,AMSA14.jpg,AMNE11.jpg,AMSA12.jpg,AMNE11.jpg,MN,1,num_2,32,num_6,0.616752913455,,,2017_Jun_29_1657,59.9779540728,MAFE4ImagesEEG,001,100867,
AFNE01.JPG,AFNE01.JPG,AFNE01.JPG,AFNE01.JPG,AFNE01.JPG,AFNE01.JPG,2,0,20,6,,,,,,,,,,,,,,,,,,,,,,,AMSA12.jpg,AMSA02.jpg,AMNE10.jpg,AMNE20.jpg,AMNE20.jpg,MN,1,num_4,16,num_4,0.70048155784,,,2017_Jun_29_1657,59.9779540728,MAFE4ImagesEEG,001,100867,
AFNE01.JPG,AFNE01.JPG,AFNE01.JPG,AFNE01.JPG,AFNE01.JPG,AFNE01.JPG,2,1,21,8,,,,,,,,,,,,,,,,,,,,,,,AMSA16.jpg,AMNE03.jpg,AMNE20.jpg,AMSA19.jpg,AMNE20.jpg,MN,1,num_2,32,num_6,0.791403419978,,,2017_Jun_29_1657,59.9779540728,MAFE4ImagesEEG,001,100867,
AFNE01.JPG,AFNE01.JPG,AFNE01.JPG,AFNE01.JPG,AFNE01.JPG,AFNE01.JPG,2,2,22,5,,,,,,,,,,,,,,,,,,,,,,,AMNE09.jpg,AMNE14.jpg,AMSA01.jpg,AMSA19.jpg,AMSA01.jpg,MS,2,num_2,32,num_4,1.03346592691,,,2017_Jun_29_1657,59.9779540728,MAFE4ImagesEEG,001,100867,
AFNE01.JPG,AFNE01.JPG,AFNE01.JPG,AFNE01.JPG,AFNE01.JPG,AFNE01.JPG,2,3,23,2,,,,,,,,,,,,,,,,,,,,,,,AMNE15.jpg,AMSA17.jpg,AMSA10.jpg,AMNE16.jpg,AMNE15.jpg,MN,1,num_8,32,num_2,1.93337669727,,,2017_Jun_29_1657,59.9779540728,MAFE4ImagesEEG,001,100867,
AFNE01.JPG,AFNE01.JPG,AFNE01.JPG,AFNE01.JPG,AFNE01.JPG,AFNE01.JPG,2,4,24,9,,,,,,,,,,,,,,,,,,,,,,,AMNE02.jpg,AMSA12.jpg,AMNE16.jpg,AMSA02.jpg,AMNE16.jpg,MN,1,num_2,32,num_6,1.29994887416,,,2017_Jun_29_1657,59.9779540728,MAFE4ImagesEEG,001,100867,
AFNE01.JPG,AFNE01.JPG,AFNE01.JPG,AFNE01.JPG,AFNE01.JPG,AFNE01.JPG,2,5,25,7,,,,,,,,,,,,,,,,,,,,,,,AMSA20.jpg,AMNE11.jpg,AMSA08.jpg,AMNE12.jpg,AMNE11.jpg,MN,1,num_6,16,num_6,0.933855240146,,,2017_Jun_29_1657,59.9779540728,MAFE4ImagesEEG,001,100867,
AFNE01.JPG,AFNE01.JPG,AFNE01.JPG,AFNE01.JPG,AFNE01.JPG,AFNE01.JPG,2,6,26,4,,,,,,,,,,,,,,,,,,,,,,,AMSA17.jpg,AMNE12.jpg,AMNE16.jpg,AMSA11.jpg,AMNE16.jpg,MN,1,num_2,16,num_2,1.55038652278,,,2017_Jun_29_1657,59.9779540728,MAFE4ImagesEEG,001,100867,
AFNE01.JPG,AFNE01.JPG,AFNE01.JPG,AFNE01.JPG,AFNE01.JPG,AFNE01.JPG,2,7,27,3,,,,,,,,,,,,,,,,,,,,,,,AMNE08.jpg,AMSA03.jpg,AMSA07.jpg,AMNE03.jpg,AMSA03.jpg,MS,2,num_6,16,num_6,0.633816558984,,,2017_Jun_29_1657,59.9779540728,MAFE4ImagesEEG,001,100867,
AFNE01.JPG,AFNE01.JPG,AFNE01.JPG,AFNE01.JPG,AFNE01.JPG,AFNE01.JPG,2,8,28,0,,,,,,,,,,,,,,,,,,,,,,,AMNE12.jpg,AMSA20.jpg,AMNE13.jpg,AMSA16.jpg,AMSA16.jpg,MS,2,num_4,32,num_6,0.733911241201,,,2017_Jun_29_1657,59.9779540728,MAFE4ImagesEEG,001,100867,
AFNE01.JPG,AFNE01.JPG,AFNE01.JPG,AFNE01.JPG,AFNE01.JPG,AFNE01.JPG,2,9,29,1,,,,,,,,,,,,,,,,,,,,,,,AMSA04.jpg,AMNE02.jpg,AMSA01.jpg,AMNE15.jpg,AMNE02.jpg,MN,1,num_6,16,num_6,0.500450959313,,,2017_Jun_29_1657,59.9779540728,MAFE4ImagesEEG,001,100867,
AFNE01.JPG,AFNE01.JPG,AFNE01.JPG,AFNE01.JPG,AFNE01.JPG,AFNE01.JPG,3,0,30,8,,,,,,,,,,,,,,,,,,,,,,,AMSA13.jpg,AMNE03.jpg,AMNE08.jpg,AMSA10.jpg,AMNE03.jpg,MN,1,num_6,32,num_8,0.883436001954,,,2017_Jun_29_1657,59.9779540728,MAFE4ImagesEEG,001,100867,
AFNE01.JPG,AFNE01.JPG,AFNE01.JPG,AFNE01.JPG,AFNE01.JPG,AFNE01.JPG,3,1,31,1,,,,,,,,,,,,,,,,,,,,,,,AMNE09.jpg,AMSA07.jpg,AMSA06.jpg,AMNE15.jpg,AMSA06.jpg,MS,2,num_2,32,num_4,1.01718392276,,,2017_Jun_29_1657,59.9779540728,MAFE4ImagesEEG,001,100867,
AFNE01.JPG,AFNE01.JPG,AFNE01.JPG,AFNE01.JPG,AFNE01.JPG,AFNE01.JPG,3,2,32,3,,,,,,,,,,,,,,,,,,,,,,,AMNE11.jpg,AMSA17.jpg,AMNE17.jpg,AMSA09.jpg,AMNE11.jpg,MN,1,num_8,32,num_6,0.983842442627,,,2017_Jun_29_1657,59.9779540728,MAFE4ImagesEEG,001,100867,
AFNE01.JPG,AFNE01.JPG,AFNE01.JPG,AFNE01.JPG,AFNE01.JPG,AFNE01.JPG,3,3,33,9,,,,,,,,,,,,,,,,,,,,,,,AMSA14.jpg,AMSA13.jpg,AMNE17.jpg,AMNE13.jpg,AMNE17.jpg,MN,1,num_2,32,num_6,0.733857036277,,,2017_Jun_29_1657,59.9779540728,MAFE4ImagesEEG,001,100867,
AFNE01.JPG,AFNE01.JPG,AFNE01.JPG,AFNE01.JPG,AFNE01.JPG,AFNE01.JPG,3,4,34,4,,,,,,,,,,,,,,,,,,,,,,,AMNE13.jpg,AMNE19.jpg,AMSA16.jpg,AMSA05.jpg,AMNE13.jpg,MN,1,num_8,32,num_4,0.933385677956,,,2017_Jun_29_1657,59.9779540728,MAFE4ImagesEEG,001,100867,
AFNE01.JPG,AFNE01.JPG,AFNE01.JPG,AFNE01.JPG,AFNE01.JPG,AFNE01.JPG,3,5,35,0,,,,,,,,,,,,,,,,,,,,,,,AMNE04.jpg,AMSA20.jpg,AMSA11.jpg,AMNE05.jpg,AMNE05.jpg,MN,1,num_4,16,num_4,0.883541525138,,,2017_Jun_29_1657,59.9779540728,MAFE4ImagesEEG,001,100867,
AFNE01.JPG,AFNE01.JPG,AFNE01.JPG,AFNE01.JPG,AFNE01.JPG,AFNE01.JPG,3,6,36,6,,,,,,,,,,,,,,,,,,,,,,,AMNE20.jpg,AMSA13.jpg,AMNE18.jpg,AMSA11.jpg,AMSA13.jpg,MS,2,num_6,32,num_4,1.23381149131,,,2017_Jun_29_1657,59.9779540728,MAFE4ImagesEEG,001,100867,
AFNE01.JPG,AFNE01.JPG,AFNE01.JPG,AFNE01.JPG,AFNE01.JPG,AFNE01.JPG,3,7,37,7,,,,,,,,,,,,,,,,,,,,,,,AMSA01.jpg,AMNE08.jpg,AMNE03.jpg,AMSA19.jpg,AMNE03.jpg,MN,1,num_2,32,num_4,0.95013339541,,,2017_Jun_29_1657,59.9779540728,MAFE4ImagesEEG,001,100867,
AFNE01.JPG,AFNE01.JPG,AFNE01.JPG,AFNE01.JPG,AFNE01.JPG,AFNE01.JPG,3,8,38,5,,,,,,,,,,,,,,,,,,,,,,,AMNE19.jpg,AMNE13.jpg,AMSA19.jpg,AMSA20.jpg,AMSA20.jpg,MS,2,num_4,16,num_4,0.883405852481,,,2017_Jun_29_1657,59.9779540728,MAFE4ImagesEEG,001,100867,
AFNE01.JPG,AFNE01.JPG,AFNE01.JPG,AFNE01.JPG,AFNE01.JPG,AFNE01.JPG,3,9,39,2,,,,,,,,,,,,,,,,,,,,,,,AMSA14.jpg,AMSA09.jpg,AMNE10.jpg,AMNE11.jpg,AMSA14.jpg,MS,2,num_8,32,num_6,0.816712949309,,,2017_Jun_29_1657,59.9779540728,MAFE4ImagesEEG,001,100867,
AFNE01.JPG,AFNE01.JPG,AFNE01.JPG,AFNE01.JPG,AFNE01.JPG,AFNE01.JPG,4,0,40,1,,,,,,,,,,,,,,,,,,,,,,,AMNE03.jpg,AMNE08.jpg,AMSA02.jpg,AMSA09.jpg,AMSA09.jpg,MS,2,num_4,32,num_8,0.717130166886,,,2017_Jun_29_1657,59.9779540728,MAFE4ImagesEEG,001,100867,
AFNE01.JPG,AFNE01.JPG,AFNE01.JPG,AFNE01.JPG,AFNE01.JPG,AFNE01.JPG,4,1,41,4,,,,,,,,,,,,,,,,,,,,,,,AMNE03.jpg,AMSA17.jpg,AMSA02.jpg,AMNE06.jpg,AMSA17.jpg,MS,2,num_6,16,num_6,0.933894370304,,,2017_Jun_29_1657,59.9779540728,MAFE4ImagesEEG,001,100867,
AFNE01.JPG,AFNE01.JPG,AFNE01.JPG,AFNE01.JPG,AFNE01.JPG,AFNE01.JPG,4,2,42,3,,,,,,,,,,,,,,,,,,,,,,,AMNE19.jpg,AMSA16.jpg,AMNE06.jpg,AMSA03.jpg,AMNE19.jpg,MN,1,num_8,32,num_4,1.00008916549,,,2017_Jun_29_1657,59.9779540728,MAFE4ImagesEEG,001,100867,
AFNE01.JPG,AFNE01.JPG,AFNE01.JPG,AFNE01.JPG,AFNE01.JPG,AFNE01.JPG,4,3,43,8,,,,,,,,,,,,,,,,,,,,,,,AMNE06.jpg,AMSA07.jpg,AMNE02.jpg,AMSA12.jpg,AMNE06.jpg,MN,1,num_8,32,num_6,0.766791498347,,,2017_Jun_29_1657,59.9779540728,MAFE4ImagesEEG,001,100867,
AFNE01.JPG,AFNE01.JPG,AFNE01.JPG,AFNE01.JPG,AFNE01.JPG,AFNE01.JPG,4,4,44,2,,,,,,,,,,,,,,,,,,,,,,,AMNE20.jpg,AMSA04.jpg,AMNE10.jpg,AMSA16.jpg,AMNE20.jpg,MN,1,num_8,16,num_8,0.600151773804,,,2017_Jun_29_1657,59.9779540728,MAFE4ImagesEEG,001,100867,
AFNE01.JPG,AFNE01.JPG,AFNE01.JPG,AFNE01.JPG,AFNE01.JPG,AFNE01.JPG,4,5,45,5,,,,,,,,,,,,,,,,,,,,,,,AMSA19.jpg,AMNE07.jpg,AMSA12.jpg,AMNE15.jpg,AMNE07.jpg,MN,1,num_6,16,num_6,0.800552184577,,,2017_Jun_29_1657,59.9779540728,MAFE4ImagesEEG,001,100867,
AFNE01.JPG,AFNE01.JPG,AFNE01.JPG,AFNE01.JPG,AFNE01.JPG,AFNE01.JPG,4,6,46,0,,,,,,,,,,,,,,,,,,,,,,,AMSA19.jpg,AMSA02.jpg,AMNE01.jpg,AMNE02.jpg,AMNE02.jpg,MN,1,num_4,32,num_2,1.06694853227,,,2017_Jun_29_1657,59.9779540728,MAFE4ImagesEEG,001,100867,
AFNE01.JPG,AFNE01.JPG,AFNE01.JPG,AFNE01.JPG,AFNE01.JPG,AFNE01.JPG,4,7,47,7,,,,,,,,,,,,,,,,,,,,,,,AMSA08.jpg,AMNE16.jpg,AMSA17.jpg,AMNE09.jpg,AMNE16.jpg,MN,1,num_6,16,num_6,0.800136185833,,,2017_Jun_29_1657,59.9779540728,MAFE4ImagesEEG,001,100867,
AFNE01.JPG,AFNE01.JPG,AFNE01.JPG,AFNE01.JPG,AFNE01.JPG,AFNE01.JPG,4,8,48,9,,,,,,,,,,,,,,,,,,,,,,,AMNE02.jpg,AMNE08.jpg,AMSA14.jpg,AMSA19.jpg,AMSA19.jpg,MS,2,num_4,32,num_8,0.867043342761,,,2017_Jun_29_1657,59.9779540728,MAFE4ImagesEEG,001,100867,
AFNE01.JPG,AFNE01.JPG,AFNE01.JPG,AFNE01.JPG,AFNE01.JPG,AFNE01.JPG,4,9,49,6,,,,,,,,,,,,,,,,,,,,,,,AMNE13.jpg,AMNE03.jpg,AMSA15.jpg,AMSA10.jpg,AMSA15.jpg,MS,2,num_2,16,num_2,1.21670294227,,,2017_Jun_29_1657,59.9779540728,MAFE4ImagesEEG,001,100867,
AFNE01.JPG,AFNE01.JPG,AFNE01.JPG,AFNE01.JPG,AFNE01.JPG,AFNE01.JPG,5,0,50,6,,,,,,,,,,,,,,,,,,,,,,,AMNE08.jpg,AMSA06.jpg,AMSA15.jpg,AMNE02.jpg,AMNE08.jpg,MN,1,num_8,16,num_8,1.00006158193,,,2017_Jun_29_1657,59.9779540728,MAFE4ImagesEEG,001,100867,
AFNE01.JPG,AFNE01.JPG,AFNE01.JPG,AFNE01.JPG,AFNE01.JPG,AFNE01.JPG,5,1,51,4,,,,,,,,,,,,,,,,,,,,,,,AMSA19.jpg,AMNE10.jpg,AMNE08.jpg,AMSA02.jpg,AMNE10.jpg,MN,1,num_6,16,num_6,0.667131738504,,,2017_Jun_29_1657,59.9779540728,MAFE4ImagesEEG,001,100867,
AFNE01.JPG,AFNE01.JPG,AFNE01.JPG,AFNE01.JPG,AFNE01.JPG,AFNE01.JPG,5,2,52,3,,,,,,,,,,,,,,,,,,,,,,,AMNE08.jpg,AMNE17.jpg,AMSA15.jpg,AMSA06.jpg,AMSA15.jpg,MS,2,num_2,32,num_4,1.08378252856,,,2017_Jun_29_1657,59.9779540728,MAFE4ImagesEEG,001,100867,
AFNE01.JPG,AFNE01.JPG,AFNE01.JPG,AFNE01.JPG,AFNE01.JPG,AFNE01.JPG,5,3,53,7,,,,,,,,,,,,,,,,,,,,,,,AMSA03.jpg,AMSA07.jpg,AMNE13.jpg,AMNE19.jpg,AMSA03.jpg,MS,2,num_8,32,num_4,1.13384061444,,,2017_Jun_29_1657,59.9779540728,MAFE4ImagesEEG,001,100867,
AFNE01.JPG,AFNE01.JPG,AFNE01.JPG,AFNE01.JPG,AFNE01.JPG,AFNE01.JPG,5,4,54,8,,,,,,,,,,,,,,,,,,,,,,,AMNE19.jpg,AMSA15.jpg,AMNE11.jpg,AMSA20.jpg,AMSA15.jpg,MS,2,num_6,16,num_6,0.649975720036,,,2017_Jun_29_1657,59.9779540728,MAFE4ImagesEEG,001,100867,
AFNE01.JPG,AFNE01.JPG,AFNE01.JPG,AFNE01.JPG,AFNE01.JPG,AFNE01.JPG,5,5,55,5,,,,,,,,,,,,,,,,,,,,,,,AMSA17.jpg,AMNE10.jpg,AMNE09.jpg,AMSA06.jpg,AMSA17.jpg,MS,2,num_8,32,num_4,2.58329596723,,,2017_Jun_29_1657,59.9779540728,MAFE4ImagesEEG,001,100867,
AFNE01.JPG,AFNE01.JPG,AFNE01.JPG,AFNE01.JPG,AFNE01.JPG,AFNE01.JPG,5,6,56,9,,,,,,,,,,,,,,,,,,,,,,,AMSA16.jpg,AMNE07.jpg,AMNE09.jpg,AMSA12.jpg,AMNE09.jpg,MN,1,num_2,32,num_4,0.783789071633,,,2017_Jun_29_1657,59.9779540728,MAFE4ImagesEEG,001,100867,
AFNE01.JPG,AFNE01.JPG,AFNE01.JPG,AFNE01.JPG,AFNE01.JPG,AFNE01.JPG,5,7,57,0,,,,,,,,,,,,,,,,,,,,,,,AMNE04.jpg,AMSA07.jpg,AMSA06.jpg,AMNE10.jpg,AMSA06.jpg,MS,2,num_2,32,num_4,1.183804403,,,2017_Jun_29_1657,59.9779540728,MAFE4ImagesEEG,001,100867,
AFNE01.JPG,AFNE01.JPG,AFNE01.JPG,AFNE01.JPG,AFNE01.JPG,AFNE01.JPG,5,8,58,2,,,,,,,,,,,,,,,,,,,,,,,AMSA17.jpg,AMNE09.jpg,AMSA12.jpg,AMNE13.jpg,AMSA17.jpg,MS,2,num_8,32,num_4,0.900108024944,,,2017_Jun_29_1657,59.9779540728,MAFE4ImagesEEG,001,100867,
AFNE01.JPG,AFNE01.JPG,AFNE01.JPG,AFNE01.JPG,AFNE01.JPG,AFNE01.JPG,5,9,59,1,,,,,,,,,,,,,,,,,,,,,,,AMNE03.jpg,AMNE09.jpg,AMSA19.jpg,AMSA12.jpg,AMSA12.jpg,MS,2,num_4,16,num_4,0.533872944943,,,2017_Jun_29_1657,59.9779540728,MAFE4ImagesEEG,001,100867,
,,,,,,,,,,,,,,,,,,,,,,,,,,,,,,,,,,,,,,,,,,,space,11.0997027389,2017_Jun_29_1657,59.9779540728,MAFE4ImagesEEG,001,100867,
AFNE01.JPG,AFNE01.JPG,AFNE01.JPG,AFNE01.JPG,AFNE01.JPG,AFNE01.JPG,,,,,0,0,0,3,,,,,,,,,,,,,,,,,,,AFSA19.jpg,AFSA16.jpg,AFNE11.jpg,AFNE14.jpg,AFNE11.jpg,FN,3,num_2,32,num_6,0.750505645323,,,2017_Jun_29_1657,59.9779540728,MAFE4ImagesEEG,001,100867,
AFNE01.JPG,AFNE01.JPG,AFNE01.JPG,AFNE01.JPG,AFNE01.JPG,AFNE01.JPG,,,,,0,1,1,4,,,,,,,,,,,,,,,,,,,AFSA14.jpg,AFNE07.jpg,AFNE12.jpg,AFSA18.jpg,AFNE07.jpg,FN,3,num_6,16,num_6,0.633371372998,,,2017_Jun_29_1657,59.9779540728,MAFE4ImagesEEG,001,100867,
AFNE01.JPG,AFNE01.JPG,AFNE01.JPG,AFNE01.JPG,AFNE01.JPG,AFNE01.JPG,,,,,0,2,2,5,,,,,,,,,,,,,,,,,,,AFNE03.jpg,AFNE04.jpg,AFSA07.jpg,AFSA15.jpg,AFNE03.jpg,FN,3,num_8,16,num_8,0.733745419042,,,2017_Jun_29_1657,59.9779540728,MAFE4ImagesEEG,001,100867,
AFNE01.JPG,AFNE01.JPG,AFNE01.JPG,AFNE01.JPG,AFNE01.JPG,AFNE01.JPG,,,,,0,3,3,8,,,,,,,,,,,,,,,,,,,AFSA01.jpg,AFSA06.jpg,AFNE06.jpg,AFNE09.jpg,AFNE06.jpg,FN,3,num_2,32,num_6,0.783491746406,,,2017_Jun_29_1657,59.9779540728,MAFE4ImagesEEG,001,100867,
AFNE01.JPG,AFNE01.JPG,AFNE01.JPG,AFNE01.JPG,AFNE01.JPG,AFNE01.JPG,,,,,0,4,4,9,,,,,,,,,,,,,,,,,,,AFSA12.jpg,AFNE04.jpg,AFSA15.jpg,AFNE08.jpg,AFSA12.jpg,FS,4,num_8,32,num_4,0.933777300525,,,2017_Jun_29_1657,59.9779540728,MAFE4ImagesEEG,001,100867,
AFNE01.JPG,AFNE01.JPG,AFNE01.JPG,AFNE01.JPG,AFNE01.JPG,AFNE01.JPG,,,,,0,5,5,0,,,,,,,,,,,,,,,,,,,AFSA09.jpg,AFNE17.jpg,AFSA19.jpg,AFNE03.jpg,AFNE03.jpg,FN,3,num_4,32,num_6,0.783991458069,,,2017_Jun_29_1657,59.9779540728,MAFE4ImagesEEG,001,100867,
AFNE01.JPG,AFNE01.JPG,AFNE01.JPG,AFNE01.JPG,AFNE01.JPG,AFNE01.JPG,,,,,0,6,6,1,,,,,,,,,,,,,,,,,,,AFNE03.jpg,AFNE11.jpg,AFSA15.jpg,AFSA20.jpg,AFNE03.jpg,FN,3,num_8,16,num_8,0.800505035935,,,2017_Jun_29_1657,59.9779540728,MAFE4ImagesEEG,001,100867,
AFNE01.JPG,AFNE01.JPG,AFNE01.JPG,AFNE01.JPG,AFNE01.JPG,AFNE01.JPG,,,,,0,7,7,7,,,,,,,,,,,,,,,,,,,AFSA16.jpg,AFNE09.jpg,AFNE08.jpg,AFSA03.jpg,AFSA16.jpg,FS,4,num_8,32,num_4,0.700530310191,,,2017_Jun_29_1657,59.9779540728,MAFE4ImagesEEG,001,100867,
AFNE01.JPG,AFNE01.JPG,AFNE01.JPG,AFNE01.JPG,AFNE01.JPG,AFNE01.JPG,,,,,0,8,8,6,,,,,,,,,,,,,,,,,,,AFNE19.jpg,AFNE15.jpg,AFSA16.jpg,AFSA18.jpg,AFNE15.jpg,FN,3,num_6,16,num_6,0.700579383265,,,2017_Jun_29_1657,59.9779540728,MAFE4ImagesEEG,001,100867,
AFNE01.JPG,AFNE01.JPG,AFNE01.JPG,AFNE01.JPG,AFNE01.JPG,AFNE01.JPG,,,,,0,9,9,2,,,,,,,,,,,,,,,,,,,AFSA01.jpg,AFNE07.jpg,AFNE16.jpg,AFSA11.jpg,AFNE07.jpg,FN,3,num_6,16,num_6,0.616706726985,,,2017_Jun_29_1657,59.9779540728,MAFE4ImagesEEG,001,100867,
AFNE01.JPG,AFNE01.JPG,AFNE01.JPG,AFNE01.JPG,AFNE01.JPG,AFNE01.JPG,,,,,1,0,10,1,,,,,,,,,,,,,,,,,,,AFNE19.jpg,AFSA01.jpg,AFSA18.jpg,AFNE01.jpg,AFNE01.jpg,FN,3,num_4,16,num_4,0.700105330761,,,2017_Jun_29_1657,59.9779540728,MAFE4ImagesEEG,001,100867,
AFNE01.JPG,AFNE01.JPG,AFNE01.JPG,AFNE01.JPG,AFNE01.JPG,AFNE01.JPG,,,,,1,1,11,5,,,,,,,,,,,,,,,,,,,AFSA03.jpg,AFNE02.jpg,AFSA11.jpg,AFNE04.jpg,AFSA11.jpg,FS,4,num_2,32,num_6,0.683817874029,,,2017_Jun_29_1657,59.9779540728,MAFE4ImagesEEG,001,100867,
AFNE01.JPG,AFNE01.JPG,AFNE01.JPG,AFNE01.JPG,AFNE01.JPG,AFNE01.JPG,,,,,1,2,12,3,,,,,,,,,,,,,,,,,,,AFNE05.jpg,AFNE18.jpg,AFSA08.jpg,AFSA12.jpg,AFNE18.jpg,FN,3,num_6,32,num_4,0.933460730943,,,2017_Jun_29_1657,59.9779540728,MAFE4ImagesEEG,001,100867,
AFNE01.JPG,AFNE01.JPG,AFNE01.JPG,AFNE01.JPG,AFNE01.JPG,AFNE01.JPG,,,,,1,3,13,6,,,,,,,,,,,,,,,,,,,AFNE07.jpg,AFNE11.jpg,AFSA09.jpg,AFSA14.jpg,AFNE07.jpg,FN,3,num_8,32,num_6,0.650119090453,,,2017_Jun_29_1657,59.9779540728,MAFE4ImagesEEG,001,100867,
AFNE01.JPG,AFNE01.JPG,AFNE01.JPG,AFNE01.JPG,AFNE01.JPG,AFNE01.JPG,,,,,1,4,14,0,,,,,,,,,,,,,,,,,,,AFNE18.jpg,AFSA18.jpg,AFSA09.jpg,AFNE19.jpg,AFNE19.jpg,FN,3,num_4,16,num_4,0.833507173957,,,2017_Jun_29_1657,59.9779540728,MAFE4ImagesEEG,001,100867,
AFNE01.JPG,AFNE01.JPG,AFNE01.JPG,AFNE01.JPG,AFNE01.JPG,AFNE01.JPG,,,,,1,5,15,4,,,,,,,,,,,,,,,,,,,AFSA17.jpg,AFSA14.jpg,AFNE08.jpg,AFNE14.jpg,AFSA14.jpg,FS,4,num_6,16,num_6,0.866790279542,,,2017_Jun_29_1657,59.9779540728,MAFE4ImagesEEG,001,100867,
AFNE01.JPG,AFNE01.JPG,AFNE01.JPG,AFNE01.JPG,AFNE01.JPG,AFNE01.JPG,,,,,1,6,16,7,,,,,,,,,,,,,,,,,,,AFNE15.jpg,AFSA06.jpg,AFNE04.jpg,AFSA10.jpg,AFSA06.jpg,FS,4,num_6,32,num_8,0.633866915043,,,2017_Jun_29_1657,59.9779540728,MAFE4ImagesEEG,001,100867,
AFNE01.JPG,AFNE01.JPG,AFNE01.JPG,AFNE01.JPG,AFNE01.JPG,AFNE01.JPG,,,,,1,7,17,8,,,,,,,,,,,,,,,,,,,AFSA12.jpg,AFSA11.jpg,AFNE11.jpg,AFNE17.jpg,AFSA12.jpg,FS,4,num_8,16,num_8,0.400066649599,,,2017_Jun_29_1657,59.9779540728,MAFE4ImagesEEG,001,100867,
AFNE01.JPG,AFNE01.JPG,AFNE01.JPG,AFNE01.JPG,AFNE01.JPG,AFNE01.JPG,,,,,1,8,18,9,,,,,,,,,,,,,,,,,,,AFNE01.jpg,AFSA09.jpg,AFNE15.jpg,AFSA19.jpg,AFSA09.jpg,FS,4,num_6,16,num_6,0.600497851352,,,2017_Jun_29_1657,59.9779540728,MAFE4ImagesEEG,001,100867,
AFNE01.JPG,AFNE01.JPG,AFNE01.JPG,AFNE01.JPG,AFNE01.JPG,AFNE01.JPG,,,,,1,9,19,2,,,,,,,,,,,,,,,,,,,AFNE08.jpg,AFSA16.jpg,AFSA02.jpg,AFNE06.jpg,AFNE06.jpg,FN,3,num_4,32,num_6,0.8170971949,,,2017_Jun_29_1657,59.9779540728,MAFE4ImagesEEG,001,100867,
AFNE01.JPG,AFNE01.JPG,AFNE01.JPG,AFNE01.JPG,AFNE01.JPG,AFNE01.JPG,,,,,2,0,20,8,,,,,,,,,,,,,,,,,,,AFSA12.jpg,AFSA15.jpg,AFNE09.jpg,AFNE11.jpg,AFSA12.jpg,FS,4,num_8,32,num_6,0.633756901487,,,2017_Jun_29_1657,59.9779540728,MAFE4ImagesEEG,001,100867,
AFNE01.JPG,AFNE01.JPG,AFNE01.JPG,AFNE01.JPG,AFNE01.JPG,AFNE01.JPG,,,,,2,1,21,4,,,,,,,,,,,,,,,,,,,AFNE19.jpg,AFSA16.jpg,AFSA20.jpg,AFNE07.jpg,AFSA20.jpg,FS,4,num_2,32,num_6,0.650556899433,,,2017_Jun_29_1657,59.9779540728,MAFE4ImagesEEG,001,100867,
AFNE01.JPG,AFNE01.JPG,AFNE01.JPG,AFNE01.JPG,AFNE01.JPG,AFNE01.JPG,,,,,2,2,22,3,,,,,,,,,,,,,,,,,,,AFNE07.jpg,AFSA12.jpg,AFSA15.jpg,AFNE05.jpg,AFSA15.jpg,FS,4,num_2,32,num_6,0.833472534141,,,2017_Jun_29_1657,59.9779540728,MAFE4ImagesEEG,001,100867,
AFNE01.JPG,AFNE01.JPG,AFNE01.JPG,AFNE01.JPG,AFNE01.JPG,AFNE01.JPG,,,,,2,3,23,9,,,,,,,,,,,,,,,,,,,AFNE19.jpg,AFNE15.jpg,AFSA04.jpg,AFSA13.jpg,AFSA13.jpg,FS,4,num_4,32,num_6,0.667198772979,,,2017_Jun_29_1657,59.9779540728,MAFE4ImagesEEG,001,100867,
AFNE01.JPG,AFNE01.JPG,AFNE01.JPG,AFNE01.JPG,AFNE01.JPG,AFNE01.JPG,,,,,2,4,24,6,,,,,,,,,,,,,,,,,,,AFNE07.jpg,AFSA19.jpg,AFNE12.jpg,AFSA16.jpg,AFSA16.jpg,FS,4,num_4,16,num_4,1.53320484521,,,2017_Jun_29_1657,59.9779540728,MAFE4ImagesEEG,001,100867,
AFNE01.JPG,AFNE01.JPG,AFNE01.JPG,AFNE01.JPG,AFNE01.JPG,AFNE01.JPG,,,,,2,5,25,5,,,,,,,,,,,,,,,,,,,AFNE06.jpg,AFSA01.jpg,AFNE09.jpg,AFSA07.jpg,AFNE06.jpg,FN,3,num_8,32,num_4,0.699657258112,,,2017_Jun_29_1657,59.9779540728,MAFE4ImagesEEG,001,100867,
AFNE01.JPG,AFNE01.JPG,AFNE01.JPG,AFNE01.JPG,AFNE01.JPG,AFNE01.JPG,,,,,2,6,26,2,,,,,,,,,,,,,,,,,,,AFNE09.jpg,AFNE20.jpg,AFSA06.jpg,AFSA02.jpg,AFNE09.jpg,FN,3,num_8,16,num_8,0.76672767126,,,2017_Jun_29_1657,59.9779540728,MAFE4ImagesEEG,001,100867,
AFNE01.JPG,AFNE01.JPG,AFNE01.JPG,AFNE01.JPG,AFNE01.JPG,AFNE01.JPG,,,,,2,7,27,1,,,,,,,,,,,,,,,,,,,AFSA03.jpg,AFNE12.jpg,AFSA15.jpg,AFNE20.jpg,AFNE20.jpg,FN,3,num_4,16,num_4,0.700464237889,,,2017_Jun_29_1657,59.9779540728,MAFE4ImagesEEG,001,100867,
AFNE01.JPG,AFNE01.JPG,AFNE01.JPG,AFNE01.JPG,AFNE01.JPG,AFNE01.JPG,,,,,2,8,28,0,,,,,,,,,,,,,,,,,,,AFNE18.jpg,AFSA16.jpg,AFNE10.jpg,AFSA10.jpg,AFNE18.jpg,FN,3,num_8,32,num_4,1.76706829629,,,2017_Jun_29_1657,59.9779540728,MAFE4ImagesEEG,001,100867,
AFNE01.JPG,AFNE01.JPG,AFNE01.JPG,AFNE01.JPG,AFNE01.JPG,AFNE01.JPG,,,,,2,9,29,7,,,,,,,,,,,,,,,,,,,AFNE07.jpg,AFSA02.jpg,AFSA13.jpg,AFNE15.jpg,AFSA02.jpg,FS,4,num_6,32,num_8,0.867057455296,,,2017_Jun_29_1657,59.9779540728,MAFE4ImagesEEG,001,100867,
AFNE01.JPG,AFNE01.JPG,AFNE01.JPG,AFNE01.JPG,AFNE01.JPG,AFNE01.JPG,,,,,3,0,30,2,,,,,,,,,,,,,,,,,,,AFNE05.jpg,AFSA10.jpg,AFSA15.jpg,AFNE15.jpg,AFNE05.jpg,FN,3,num_8,16,num_8,1.56651008179,,,2017_Jun_29_1657,59.9779540728,MAFE4ImagesEEG,001,100867,
AFNE01.JPG,AFNE01.JPG,AFNE01.JPG,AFNE01.JPG,AFNE01.JPG,AFNE01.JPG,,,,,3,1,31,6,,,,,,,,,,,,,,,,,,,AFSA08.jpg,AFNE12.jpg,AFNE11.jpg,AFSA05.jpg,AFSA08.jpg,FS,4,num_8,32,num_4,3.59982526131,,,2017_Jun_29_1657,59.9779540728,MAFE4ImagesEEG,001,100867,
AFNE01.JPG,AFNE01.JPG,AFNE01.JPG,AFNE01.JPG,AFNE01.JPG,AFNE01.JPG,,,,,3,2,32,7,,,,,,,,,,,,,,,,,,,AFNE03.jpg,AFSA20.jpg,AFSA03.jpg,AFNE05.jpg,AFSA20.jpg,FS,4,num_6,16,num_6,0.667139756959,,,2017_Jun_29_1657,59.9779540728,MAFE4ImagesEEG,001,100867,
AFNE01.JPG,AFNE01.JPG,AFNE01.JPG,AFNE01.JPG,AFNE01.JPG,AFNE01.JPG,,,,,3,3,33,3,,,,,,,,,,,,,,,,,,,AFNE16.jpg,AFSA02.jpg,AFSA06.jpg,AFNE14.jpg,AFSA06.jpg,FS,4,num_2,32,num_6,0.783790996065,,,2017_Jun_29_1657,59.9779540728,MAFE4ImagesEEG,001,100867,
AFNE01.JPG,AFNE01.JPG,AFNE01.JPG,AFNE01.JPG,AFNE01.JPG,AFNE01.JPG,,,,,3,4,34,0,,,,,,,,,,,,,,,,,,,AFSA01.jpg,AFNE15.jpg,AFSA05.jpg,AFNE18.jpg,AFNE15.jpg,FN,3,num_6,16,num_6,0.800170504954,,,2017_Jun_29_1657,59.9779540728,MAFE4ImagesEEG,001,100867,
AFNE01.JPG,AFNE01.JPG,AFNE01.JPG,AFNE01.JPG,AFNE01.JPG,AFNE01.JPG,,,,,3,5,35,9,,,,,,,,,,,,,,,,,,,AFNE17.jpg,AFSA14.jpg,AFSA01.jpg,AFNE18.jpg,AFSA14.jpg,FS,4,num_6,16,num_6,1.06671407193,,,2017_Jun_29_1657,59.9779540728,MAFE4ImagesEEG,001,100867,
AFNE01.JPG,AFNE01.JPG,AFNE01.JPG,AFNE01.JPG,AFNE01.JPG,AFNE01.JPG,,,,,3,6,36,1,,,,,,,,,,,,,,,,,,,AFSA11.jpg,AFNE15.jpg,AFNE19.jpg,AFSA12.jpg,AFNE19.jpg,FN,3,num_2,32,num_8,1.08384635564,,,2017_Jun_29_1657,59.9779540728,MAFE4ImagesEEG,001,100867,
AFNE01.JPG,AFNE01.JPG,AFNE01.JPG,AFNE01.JPG,AFNE01.JPG,AFNE01.JPG,,,,,3,7,37,8,,,,,,,,,,,,,,,,,,,AFSA01.jpg,AFNE12.jpg,AFSA14.jpg,AFNE02.jpg,AFSA01.jpg,FS,4,num_8,16,num_8,0.767097483535,,,2017_Jun_29_1657,59.9779540728,MAFE4ImagesEEG,001,100867,
AFNE01.JPG,AFNE01.JPG,AFNE01.JPG,AFNE01.JPG,AFNE01.JPG,AFNE01.JPG,,,,,3,8,38,4,,,,,,,,,,,,,,,,,,,AFNE11.jpg,AFSA05.jpg,AFNE13.jpg,AFSA02.jpg,AFNE13.jpg,FN,3,num_2,32,num_4,0.633909252647,,,2017_Jun_29_1657,59.9779540728,MAFE4ImagesEEG,001,100867,
AFNE01.JPG,AFNE01.JPG,AFNE01.JPG,AFNE01.JPG,AFNE01.JPG,AFNE01.JPG,,,,,3,9,39,5,,,,,,,,,,,,,,,,,,,AFSA03.jpg,AFNE18.jpg,AFSA13.jpg,AFNE17.jpg,AFNE18.jpg,FN,3,num_6,16,num_6,1.36716009185,,,2017_Jun_29_1657,59.9779540728,MAFE4ImagesEEG,001,100867,
AFNE01.JPG,AFNE01.JPG,AFNE01.JPG,AFNE01.JPG,AFNE01.JPG,AFNE01.JPG,,,,,4,0,40,0,,,,,,,,,,,,,,,,,,,AFSA20.jpg,AFSA14.jpg,AFNE14.jpg,AFNE03.jpg,AFSA14.jpg,FS,4,num_6,16,num_6,0.783816013747,,,2017_Jun_29_1657,59.9779540728,MAFE4ImagesEEG,001,100867,
AFNE01.JPG,AFNE01.JPG,AFNE01.JPG,AFNE01.JPG,AFNE01.JPG,AFNE01.JPG,,,,,4,1,41,6,,,,,,,,,,,,,,,,,,,AFNE08.jpg,AFSA17.jpg,AFSA04.jpg,AFNE16.jpg,AFSA17.jpg,FS,4,num_6,16,num_6,0.866748583474,,,2017_Jun_29_1657,59.9779540728,MAFE4ImagesEEG,001,100867,
AFNE01.JPG,AFNE01.JPG,AFNE01.JPG,AFNE01.JPG,AFNE01.JPG,AFNE01.JPG,,,,,4,2,42,8,,,,,,,,,,,,,,,,,,,AFNE07.jpg,AFSA07.jpg,AFNE03.jpg,AFSA11.jpg,AFNE03.jpg,FN,3,num_2,32,num_6,0.800102187524,,,2017_Jun_29_1657,59.9779540728,MAFE4ImagesEEG,001,100867,
AFNE01.JPG,AFNE01.JPG,AFNE01.JPG,AFNE01.JPG,AFNE01.JPG,AFNE01.JPG,,,,,4,3,43,7,,,,,,,,,,,,,,,,,,,AFSA04.jpg,AFSA19.jpg,AFNE07.jpg,AFNE11.jpg,AFNE07.jpg,FN,3,num_2,32,num_4,1.15070604318,,,2017_Jun_29_1657,59.9779540728,MAFE4ImagesEEG,001,100867,
AFNE01.JPG,AFNE01.JPG,AFNE01.JPG,AFNE01.JPG,AFNE01.JPG,AFNE01.JPG,,,,,4,4,44,3,,,,,,,,,,,,,,,,,,,AFSA01.jpg,AFNE04.jpg,AFSA17.jpg,AFNE12.jpg,AFSA17.jpg,FS,4,num_2,32,num_4,0.800152864278,,,2017_Jun_29_1657,59.9779540728,MAFE4ImagesEEG,001,100867,
AFNE01.JPG,AFNE01.JPG,AFNE01.JPG,AFNE01.JPG,AFNE01.JPG,AFNE01.JPG,,,,,4,5,45,4,,,,,,,,,,,,,,,,,,,AFSA15.jpg,AFNE13.jpg,AFNE15.jpg,AFSA06.jpg,AFNE15.jpg,FN,3,num_2,32,num_8,1.00004650719,,,2017_Jun_29_1657,59.9779540728,MAFE4ImagesEEG,001,100867,
AFNE01.JPG,AFNE01.JPG,AFNE01.JPG,AFNE01.JPG,AFNE01.JPG,AFNE01.JPG,,,,,4,6,46,9,,,,,,,,,,,,,,,,,,,AFSA01.jpg,AFSA05.jpg,AFNE16.jpg,AFNE12.jpg,AFNE12.jpg,FN,3,num_4,16,num_4,0.633573759405,,,2017_Jun_29_1657,59.9779540728,MAFE4ImagesEEG,001,100867,
AFNE01.JPG,AFNE01.JPG,AFNE01.JPG,AFNE01.JPG,AFNE01.JPG,AFNE01.JPG,,,,,4,7,47,2,,,,,,,,,,,,,,,,,,,AFNE16.jpg,AFSA08.jpg,AFNE06.jpg,AFSA07.jpg,AFNE06.jpg,FN,3,num_2,32,num_8,0.950525980181,,,2017_Jun_29_1657,59.9779540728,MAFE4ImagesEEG,001,100867,
AFNE01.JPG,AFNE01.JPG,AFNE01.JPG,AFNE01.JPG,AFNE01.JPG,AFNE01.JPG,,,,,4,8,48,1,,,,,,,,,,,,,,,,,,,AFSA06.jpg,AFSA14.jpg,AFNE10.jpg,AFNE12.jpg,AFSA14.jpg,FS,4,num_6,16,num_6,0.817124136986,,,2017_Jun_29_1657,59.9779540728,MAFE4ImagesEEG,001,100867,
AFNE01.JPG,AFNE01.JPG,AFNE01.JPG,AFNE01.JPG,AFNE01.JPG,AFNE01.JPG,,,,,4,9,49,5,,,,,,,,,,,,,,,,,,,AFSA06.jpg,AFNE01.jpg,AFSA20.jpg,AFNE07.jpg,AFNE07.jpg,FN,3,num_4,16,num_4,1.25006142154,,,2017_Jun_29_1657,59.9779540728,MAFE4ImagesEEG,001,100867,
AFNE01.JPG,AFNE01.JPG,AFNE01.JPG,AFNE01.JPG,AFNE01.JPG,AFNE01.JPG,,,,,5,0,50,2,,,,,,,,,,,,,,,,,,,AFSA03.jpg,AFNE13.jpg,AFSA02.jpg,AFNE06.jpg,AFNE06.jpg,FN,3,num_4,16,num_4,1.01694721723,,,2017_Jun_29_1657,59.9779540728,MAFE4ImagesEEG,001,100867,
AFNE01.JPG,AFNE01.JPG,AFNE01.JPG,AFNE01.JPG,AFNE01.JPG,AFNE01.JPG,,,,,5,1,51,1,,,,,,,,,,,,,,,,,,,AFNE11.jpg,AFSA14.jpg,AFSA20.jpg,AFNE09.jpg,AFNE09.jpg,FN,3,num_4,32,num_6,0.900151645474,,,2017_Jun_29_1657,59.9779540728,MAFE4ImagesEEG,001,100867,
AFNE01.JPG,AFNE01.JPG,AFNE01.JPG,AFNE01.JPG,AFNE01.JPG,AFNE01.JPG,,,,,5,2,52,6,,,,,,,,,,,,,,,,,,,AFSA03.jpg,AFSA08.jpg,AFNE02.jpg,AFNE04.jpg,AFSA08.jpg,FS,4,num_6,16,num_6,3.71656053409,,,2017_Jun_29_1657,59.9779540728,MAFE4ImagesEEG,001,100867,
AFNE01.JPG,AFNE01.JPG,AFNE01.JPG,AFNE01.JPG,AFNE01.JPG,AFNE01.JPG,,,,,5,3,53,0,,,,,,,,,,,,,,,,,,,AFSA20.jpg,AFNE09.jpg,AFNE20.jpg,AFSA03.jpg,AFNE09.jpg,FN,3,num_6,32,num_4,1.10049849286,,,2017_Jun_29_1657,59.9779540728,MAFE4ImagesEEG,001,100867,
AFNE01.JPG,AFNE01.JPG,AFNE01.JPG,AFNE01.JPG,AFNE01.JPG,AFNE01.JPG,,,,,5,4,54,7,,,,,,,,,,,,,,,,,,,AFNE12.jpg,AFSA17.jpg,AFSA15.jpg,AFNE01.jpg,AFSA17.jpg,FS,4,num_6,32,num_4,1.13372835572,,,2017_Jun_29_1657,59.9779540728,MAFE4ImagesEEG,001,100867,
AFNE01.JPG,AFNE01.JPG,AFNE01.JPG,AFNE01.JPG,AFNE01.JPG,AFNE01.JPG,,,,,5,5,55,4,,,,,,,,,,,,,,,,,,,AFSA15.jpg,AFSA02.jpg,AFNE18.jpg,AFNE12.jpg,AFSA02.jpg,FS,4,num_6,32,num_8,0.833485363721,,,2017_Jun_29_1657,59.9779540728,MAFE4ImagesEEG,001,100867,
AFNE01.JPG,AFNE01.JPG,AFNE01.JPG,AFNE01.JPG,AFNE01.JPG,AFNE01.JPG,,,,,5,6,56,5,,,,,,,,,,,,,,,,,,,AFSA06.jpg,AFNE20.jpg,AFSA02.jpg,AFNE06.jpg,AFSA02.jpg,FS,4,num_2,32,num_8,0.883951750555,,,2017_Jun_29_1657,59.9779540728,MAFE4ImagesEEG,001,100867,
AFNE01.JPG,AFNE01.JPG,AFNE01.JPG,AFNE01.JPG,AFNE01.JPG,AFNE01.JPG,,,,,5,7,57,8,,,,,,,,,,,,,,,,,,,AFSA04.jpg,AFNE09.jpg,AFSA09.jpg,AFNE16.jpg,AFSA09.jpg,FS,4,num_2,16,num_2,1.31408641613,,,2017_Jun_29_1657,59.9779540728,MAFE4ImagesEEG,001,100867,
AFNE01.JPG,AFNE01.JPG,AFNE01.JPG,AFNE01.JPG,AFNE01.JPG,AFNE01.JPG,,,,,5,8,58,3,,,,,,,,,,,,,,,,,,,AFSA09.jpg,AFNE08.jpg,AFSA12.jpg,AFNE02.jpg,AFSA09.jpg,FS,4,num_8,32,num_2,1.38342317237,,,2017_Jun_29_1657,59.9779540728,MAFE4ImagesEEG,001,100867,
AFNE01.JPG,AFNE01.JPG,AFNE01.JPG,AFNE01.JPG,AFNE01.JPG,AFNE01.JPG,,,,,5,9,59,9,,,,,,,,,,,,,,,,,,,AFNE16.jpg,AFSA06.jpg,AFNE20.jpg,AFSA07.jpg,AFNE16.jpg,FN,3,num_8,32,num_6,0.816829698393,,,2017_Jun_29_1657,59.9779540728,MAFE4ImagesEEG,001,100867,
,,,,,,,,,,,,,,,,,,,,,,,,,,,,,,,,,,,,,,,,,,,space,13.4496263068,2017_Jun_29_1657,59.9779540728,MAFE4ImagesEEG,001,100867,
AFNE01.JPG,AFNE01.JPG,AFNE01.JPG,AFNE01.JPG,AFNE01.JPG,AFNE01.JPG,,,,,,,,,0,0,0,6,,,,,,,,,,,,,,,AMSA01.jpg,AMNE16.jpg,AMNE08.jpg,AMSA08.jpg,AMNE08.jpg,MN,1,num_2,32,num_6,0.533883850061,,,2017_Jun_29_1657,59.9779540728,MAFE4ImagesEEG,001,100867,
AFNE01.JPG,AFNE01.JPG,AFNE01.JPG,AFNE01.JPG,AFNE01.JPG,AFNE01.JPG,,,,,,,,,0,1,1,1,,,,,,,,,,,,,,,AMSA02.jpg,AMNE09.jpg,AMNE07.jpg,AMSA12.jpg,AMSA12.jpg,MS,2,num_4,16,num_4,0.883423172374,,,2017_Jun_29_1657,59.9779540728,MAFE4ImagesEEG,001,100867,
AFNE01.JPG,AFNE01.JPG,AFNE01.JPG,AFNE01.JPG,AFNE01.JPG,AFNE01.JPG,,,,,,,,,0,2,2,0,,,,,,,,,,,,,,,AMNE09.jpg,AMSA02.jpg,AMNE10.jpg,AMSA17.jpg,AMNE09.jpg,MN,1,num_8,16,num_8,2.39993835395,,,2017_Jun_29_1657,59.9779540728,MAFE4ImagesEEG,001,100867,
AFNE01.JPG,AFNE01.JPG,AFNE01.JPG,AFNE01.JPG,AFNE01.JPG,AFNE01.JPG,,,,,,,,,0,3,3,4,,,,,,,,,,,,,,,AMNE20.jpg,AMSA09.jpg,AMNE04.jpg,AMSA03.jpg,AMSA03.jpg,MS,2,num_4,16,num_4,0.533733744145,,,2017_Jun_29_1657,59.9779540728,MAFE4ImagesEEG,001,100867,
AFNE01.JPG,AFNE01.JPG,AFNE01.JPG,AFNE01.JPG,AFNE01.JPG,AFNE01.JPG,,,,,,,,,0,4,4,3,,,,,,,,,,,,,,,AMNE02.jpg,AMNE16.jpg,AMSA20.jpg,AMSA04.jpg,AMNE16.jpg,MN,1,num_6,16,num_6,0.650083488406,,,2017_Jun_29_1657,59.9779540728,MAFE4ImagesEEG,001,100867,
AFNE01.JPG,AFNE01.JPG,AFNE01.JPG,AFNE01.JPG,AFNE01.JPG,AFNE01.JPG,,,,,,,,,0,5,5,5,,,,,,,,,,,,,,,AMNE16.jpg,AMSA16.jpg,AMSA18.jpg,AMNE03.jpg,AMNE03.jpg,MN,1,num_4,16,num_4,0.833388500469,,,2017_Jun_29_1657,59.9779540728,MAFE4ImagesEEG,001,100867,
AFNE01.JPG,AFNE01.JPG,AFNE01.JPG,AFNE01.JPG,AFNE01.JPG,AFNE01.JPG,,,,,,,,,0,6,6,8,,,,,,,,,,,,,,,AMSA20.jpg,AMNE19.jpg,AMSA11.jpg,AMNE05.jpg,AMSA11.jpg,MS,2,num_2,32,num_6,0.700109179597,,,2017_Jun_29_1657,59.9779540728,MAFE4ImagesEEG,001,100867,
AFNE01.JPG,AFNE01.JPG,AFNE01.JPG,AFNE01.JPG,AFNE01.JPG,AFNE01.JPG,,,,,,,,,0,7,7,2,,,,,,,,,,,,,,,AMSA18.jpg,AMNE09.jpg,AMNE12.jpg,AMSA03.jpg,AMNE12.jpg,MN,1,num_2,32,num_8,0.950108698511,,,2017_Jun_29_1657,59.9779540728,MAFE4ImagesEEG,001,100867,
AFNE01.JPG,AFNE01.JPG,AFNE01.JPG,AFNE01.JPG,AFNE01.JPG,AFNE01.JPG,,,,,,,,,0,8,8,9,,,,,,,,,,,,,,,AMSA20.jpg,AMNE16.jpg,AMSA15.jpg,AMNE13.jpg,AMSA20.jpg,MS,2,num_8,16,num_8,1.15041449125,,,2017_Jun_29_1657,59.9779540728,MAFE4ImagesEEG,001,100867,
AFNE01.JPG,AFNE01.JPG,AFNE01.JPG,AFNE01.JPG,AFNE01.JPG,AFNE01.JPG,,,,,,,,,0,9,9,7,,,,,,,,,,,,,,,AMNE11.jpg,AMNE05.jpg,AMSA05.jpg,AMSA14.jpg,AMNE05.jpg,MN,1,num_6,32,num_2,1.51720990264,,,2017_Jun_29_1657,59.9779540728,MAFE4ImagesEEG,001,100867,
AFNE01.JPG,AFNE01.JPG,AFNE01.JPG,AFNE01.JPG,AFNE01.JPG,AFNE01.JPG,,,,,,,,,1,0,10,1,,,,,,,,,,,,,,,AMSA02.jpg,AMNE19.jpg,AMNE02.jpg,AMSA19.jpg,AMSA02.jpg,MS,2,num_8,32,num_6,1.03388801968,,,2017_Jun_29_1657,59.9779540728,MAFE4ImagesEEG,001,100867,
AFNE01.JPG,AFNE01.JPG,AFNE01.JPG,AFNE01.JPG,AFNE01.JPG,AFNE01.JPG,,,,,,,,,1,1,11,0,,,,,,,,,,,,,,,AMNE10.jpg,AMSA20.jpg,AMNE05.jpg,AMSA07.jpg,AMNE05.jpg,MN,1,num_2,32,num_6,0.633511215303,,,2017_Jun_29_1657,59.9779540728,MAFE4ImagesEEG,001,100867,
AFNE01.JPG,AFNE01.JPG,AFNE01.JPG,AFNE01.JPG,AFNE01.JPG,AFNE01.JPG,,,,,,,,,1,2,12,8,,,,,,,,,,,,,,,AMNE02.jpg,AMSA15.jpg,AMSA19.jpg,AMNE17.jpg,AMNE17.jpg,MN,1,num_4,32,num_6,0.617193929822,,,2017_Jun_29_1657,59.9779540728,MAFE4ImagesEEG,001,100867,
AFNE01.JPG,AFNE01.JPG,AFNE01.JPG,AFNE01.JPG,AFNE01.JPG,AFNE01.JPG,,,,,,,,,1,3,13,6,,,,,,,,,,,,,,,AMNE03.jpg,AMSA09.jpg,AMSA18.jpg,AMNE06.jpg,AMNE06.jpg,MN,1,num_4,16,num_4,0.750109532411,,,2017_Jun_29_1657,59.9779540728,MAFE4ImagesEEG,001,100867,
AFNE01.JPG,AFNE01.JPG,AFNE01.JPG,AFNE01.JPG,AFNE01.JPG,AFNE01.JPG,,,,,,,,,1,4,14,4,,,,,,,,,,,,,,,AMSA14.jpg,AMSA11.jpg,AMNE20.jpg,AMNE14.jpg,AMNE20.jpg,MN,1,num_2,32,num_8,1.03345662548,,,2017_Jun_29_1657,59.9779540728,MAFE4ImagesEEG,001,100867,
AFNE01.JPG,AFNE01.JPG,AFNE01.JPG,AFNE01.JPG,AFNE01.JPG,AFNE01.JPG,,,,,,,,,1,5,15,3,,,,,,,,,,,,,,,AMNE04.jpg,AMSA03.jpg,AMSA10.jpg,AMNE02.jpg,AMSA10.jpg,MS,2,num_2,16,num_2,1.11707814297,,,2017_Jun_29_1657,59.9779540728,MAFE4ImagesEEG,001,100867,
AFNE01.JPG,AFNE01.JPG,AFNE01.JPG,AFNE01.JPG,AFNE01.JPG,AFNE01.JPG,,,,,,,,,1,6,16,5,,,,,,,,,,,,,,,AMSA19.jpg,AMNE10.jpg,AMNE07.jpg,AMSA04.jpg,AMNE10.jpg,MN,1,num_6,16,num_6,0.600115530251,,,2017_Jun_29_1657,59.9779540728,MAFE4ImagesEEG,001,100867,
AFNE01.JPG,AFNE01.JPG,AFNE01.JPG,AFNE01.JPG,AFNE01.JPG,AFNE01.JPG,,,,,,,,,1,7,17,9,,,,,,,,,,,,,,,AMSA17.jpg,AMNE06.jpg,AMNE04.jpg,AMSA04.jpg,AMSA17.jpg,MS,2,num_8,32,num_6,1.08378060412,,,2017_Jun_29_1657,59.9779540728,MAFE4ImagesEEG,001,100867,
AFNE01.JPG,AFNE01.JPG,AFNE01.JPG,AFNE01.JPG,AFNE01.JPG,AFNE01.JPG,,,,,,,,,1,8,18,7,,,,,,,,,,,,,,,AMSA12.jpg,AMSA06.jpg,AMNE18.jpg,AMNE20.jpg,AMNE18.jpg,MN,1,num_2,32,num_4,1.30008133943,,,2017_Jun_29_1657,59.9779540728,MAFE4ImagesEEG,001,100867,
AFNE01.JPG,AFNE01.JPG,AFNE01.JPG,AFNE01.JPG,AFNE01.JPG,AFNE01.JPG,,,,,,,,,1,9,19,2,,,,,,,,,,,,,,,AMNE11.jpg,AMSA17.jpg,AMSA09.jpg,AMNE07.jpg,AMNE11.jpg,MN,1,num_8,32,num_4,0.766819402663,,,2017_Jun_29_1657,59.9779540728,MAFE4ImagesEEG,001,100867,
AFNE01.JPG,AFNE01.JPG,AFNE01.JPG,AFNE01.JPG,AFNE01.JPG,AFNE01.JPG,,,,,,,,,2,0,20,7,,,,,,,,,,,,,,,AMNE06.jpg,AMNE11.jpg,AMSA18.jpg,AMSA15.jpg,AMSA15.jpg,MS,2,num_4,32,num_8,0.800508243323,,,2017_Jun_29_1657,59.9779540728,MAFE4ImagesEEG,001,100867,
AFNE01.JPG,AFNE01.JPG,AFNE01.JPG,AFNE01.JPG,AFNE01.JPG,AFNE01.JPG,,,,,,,,,2,1,21,8,,,,,,,,,,,,,,,AMNE19.jpg,AMNE01.jpg,AMSA14.jpg,AMSA15.jpg,AMSA15.jpg,MS,2,num_4,32,num_6,0.666785340174,,,2017_Jun_29_1657,59.9779540728,MAFE4ImagesEEG,001,100867,
AFNE01.JPG,AFNE01.JPG,AFNE01.JPG,AFNE01.JPG,AFNE01.JPG,AFNE01.JPG,,,,,,,,,2,2,22,0,,,,,,,,,,,,,,,AMNE14.jpg,AMSA06.jpg,AMSA08.jpg,AMNE06.jpg,AMNE14.jpg,MN,1,num_8,32,num_4,0.716757147195,,,2017_Jun_29_1657,59.9779540728,MAFE4ImagesEEG,001,100867,
AFNE01.JPG,AFNE01.JPG,AFNE01.JPG,AFNE01.JPG,AFNE01.JPG,AFNE01.JPG,,,,,,,,,2,3,23,3,,,,,,,,,,,,,,,AMSA07.jpg,AMNE11.jpg,AMSA19.jpg,AMNE15.jpg,AMSA19.jpg,MS,2,num_2,32,num_8,0.683412459679,,,2017_Jun_29_1657,59.9779540728,MAFE4ImagesEEG,001,100867,
AFNE01.JPG,AFNE01.JPG,AFNE01.JPG,AFNE01.JPG,AFNE01.JPG,AFNE01.JPG,,,,,,,,,2,4,24,6,,,,,,,,,,,,,,,AMNE20.jpg,AMNE16.jpg,AMSA10.jpg,AMSA17.jpg,AMSA10.jpg,MS,2,num_2,32,num_6,0.700145743875,,,2017_Jun_29_1657,59.9779540728,MAFE4ImagesEEG,001,100867,
AFNE01.JPG,AFNE01.JPG,AFNE01.JPG,AFNE01.JPG,AFNE01.JPG,AFNE01.JPG,,,,,,,,,2,5,25,9,,,,,,,,,,,,,,,AMNE13.jpg,AMNE19.jpg,AMSA13.jpg,AMSA04.jpg,AMSA13.jpg,MS,2,num_2,16,num_2,1.15042411341,,,2017_Jun_29_1657,59.9779540728,MAFE4ImagesEEG,001,100867,
AFNE01.JPG,AFNE01.JPG,AFNE01.JPG,AFNE01.JPG,AFNE01.JPG,AFNE01.JPG,,,,,,,,,2,6,26,1,,,,,,,,,,,,,,,AMNE02.jpg,AMSA09.jpg,AMNE08.jpg,AMSA07.jpg,AMNE08.jpg,MN,1,num_2,32,num_4,0.650103374239,,,2017_Jun_29_1657,59.9779540728,MAFE4ImagesEEG,001,100867,
AFNE01.JPG,AFNE01.JPG,AFNE01.JPG,AFNE01.JPG,AFNE01.JPG,AFNE01.JPG,,,,,,,,,2,7,27,2,,,,,,,,,,,,,,,AMNE18.jpg,AMSA09.jpg,AMNE07.jpg,AMSA14.jpg,AMNE07.jpg,MN,1,num_2,32,num_4,1.00013150307,,,2017_Jun_29_1657,59.9779540728,MAFE4ImagesEEG,001,100867,
AFNE01.JPG,AFNE01.JPG,AFNE01.JPG,AFNE01.JPG,AFNE01.JPG,AFNE01.JPG,,,,,,,,,2,8,28,4,,,,,,,,,,,,,,,AMNE19.jpg,AMSA05.jpg,AMSA19.jpg,AMNE06.jpg,AMNE06.jpg,MN,1,num_4,32,num_8,1.03338285547,,,2017_Jun_29_1657,59.9779540728,MAFE4ImagesEEG,001,100867,
AFNE01.JPG,AFNE01.JPG,AFNE01.JPG,AFNE01.JPG,AFNE01.JPG,AFNE01.JPG,,,,,,,,,2,9,29,5,,,,,,,,,,,,,,,AMSA06.jpg,AMSA17.jpg,AMNE05.jpg,AMNE03.jpg,AMSA06.jpg,MS,2,num_8,32,num_4,0.949944800785,,,2017_Jun_29_1657,59.9779540728,MAFE4ImagesEEG,001,100867,
AFNE01.JPG,AFNE01.JPG,AFNE01.JPG,AFNE01.JPG,AFNE01.JPG,AFNE01.JPG,,,,,,,,,3,0,30,0,,,,,,,,,,,,,,,AMNE07.jpg,AMSA06.jpg,AMNE14.jpg,AMSA10.jpg,AMNE14.jpg,MN,1,num_2,32,num_4,1.06717721932,,,2017_Jun_29_1657,59.9779540728,MAFE4ImagesEEG,001,100867,
AFNE01.JPG,AFNE01.JPG,AFNE01.JPG,AFNE01.JPG,AFNE01.JPG,AFNE01.JPG,,,,,,,,,3,1,31,9,,,,,,,,,,,,,,,AMSA13.jpg,AMNE03.jpg,AMSA16.jpg,AMNE10.jpg,AMNE03.jpg,MN,1,num_6,32,num_8,1.18376334838,,,2017_Jun_29_1657,59.9779540728,MAFE4ImagesEEG,001,100867,
AFNE01.JPG,AFNE01.JPG,AFNE01.JPG,AFNE01.JPG,AFNE01.JPG,AFNE01.JPG,,,,,,,,,3,2,32,8,,,,,,,,,,,,,,,AMSA09.jpg,AMSA17.jpg,AMNE20.jpg,AMNE15.jpg,AMSA17.jpg,MS,2,num_6,32,num_4,0.683963810356,,,2017_Jun_29_1657,59.9779540728,MAFE4ImagesEEG,001,100867,
AFNE01.JPG,AFNE01.JPG,AFNE01.JPG,AFNE01.JPG,AFNE01.JPG,AFNE01.JPG,,,,,,,,,3,3,33,5,,,,,,,,,,,,,,,AMSA14.jpg,AMSA18.jpg,AMNE11.jpg,AMNE06.jpg,AMSA14.jpg,MS,2,num_8,32,num_4,1.11621375085,,,2017_Jun_29_1657,59.9779540728,MAFE4ImagesEEG,001,100867,
AFNE01.JPG,AFNE01.JPG,AFNE01.JPG,AFNE01.JPG,AFNE01.JPG,AFNE01.JPG,,,,,,,,,3,4,34,4,,,,,,,,,,,,,,,AMSA18.jpg,AMNE06.jpg,AMSA13.jpg,AMNE07.jpg,AMSA18.jpg,MS,2,num_8,16,num_8,0.800610559119,,,2017_Jun_29_1657,59.9779540728,MAFE4ImagesEEG,001,100867,
AFNE01.JPG,AFNE01.JPG,AFNE01.JPG,AFNE01.JPG,AFNE01.JPG,AFNE01.JPG,,,,,,,,,3,5,35,1,,,,,,,,,,,,,,,AMSA05.jpg,AMNE19.jpg,AMNE20.jpg,AMSA08.jpg,AMNE20.jpg,MN,1,num_2,32,num_6,0.800165373133,,,2017_Jun_29_1657,59.9779540728,MAFE4ImagesEEG,001,100867,
AFNE01.JPG,AFNE01.JPG,AFNE01.JPG,AFNE01.JPG,AFNE01.JPG,AFNE01.JPG,,,,,,,,,3,6,36,3,,,,,,,,,,,,,,,AMSA12.jpg,AMSA07.jpg,AMNE03.jpg,AMNE06.jpg,AMSA12.jpg,MS,2,num_8,32,num_6,1.00053210632,,,2017_Jun_29_1657,59.9779540728,MAFE4ImagesEEG,001,100867,
AFNE01.JPG,AFNE01.JPG,AFNE01.JPG,AFNE01.JPG,AFNE01.JPG,AFNE01.JPG,,,,,,,,,3,7,37,7,,,,,,,,,,,,,,,AMSA18.jpg,AMNE13.jpg,AMNE14.jpg,AMSA13.jpg,AMNE13.jpg,MN,1,num_6,32,num_8,0.850039675453,,,2017_Jun_29_1657,59.9779540728,MAFE4ImagesEEG,001,100867,
AFNE01.JPG,AFNE01.JPG,AFNE01.JPG,AFNE01.JPG,AFNE01.JPG,AFNE01.JPG,,,,,,,,,3,8,38,6,,,,,,,,,,,,,,,AMNE11.jpg,AMSA18.jpg,AMNE17.jpg,AMSA06.jpg,AMNE17.jpg,MN,1,num_2,32,num_4,0.783406429808,,,2017_Jun_29_1657,59.9779540728,MAFE4ImagesEEG,001,100867,
AFNE01.JPG,AFNE01.JPG,AFNE01.JPG,AFNE01.JPG,AFNE01.JPG,AFNE01.JPG,,,,,,,,,3,9,39,2,,,,,,,,,,,,,,,AMSA13.jpg,AMNE14.jpg,AMSA01.jpg,AMNE20.jpg,AMSA13.jpg,MS,2,num_8,16,num_8,1.33307577975,,,2017_Jun_29_1657,59.9779540728,MAFE4ImagesEEG,001,100867,
AFNE01.JPG,AFNE01.JPG,AFNE01.JPG,AFNE01.JPG,AFNE01.JPG,AFNE01.JPG,,,,,,,,,4,0,40,2,,,,,,,,,,,,,,,AMNE12.jpg,AMSA12.jpg,AMNE03.jpg,AMSA10.jpg,AMSA10.jpg,MS,2,num_4,32,num_6,0.667232450593,,,2017_Jun_29_1657,59.9779540728,MAFE4ImagesEEG,001,100867,
AFNE01.JPG,AFNE01.JPG,AFNE01.JPG,AFNE01.JPG,AFNE01.JPG,AFNE01.JPG,,,,,,,,,4,1,41,1,,,,,,,,,,,,,,,AMSA18.jpg,AMNE02.jpg,AMNE14.jpg,AMSA07.jpg,AMSA07.jpg,MS,2,num_4,16,num_4,0.833856138226,,,2017_Jun_29_1657,59.9779540728,MAFE4ImagesEEG,001,100867,
AFNE01.JPG,AFNE01.JPG,AFNE01.JPG,AFNE01.JPG,AFNE01.JPG,AFNE01.JPG,,,,,,,,,4,2,42,5,,,,,,,,,,,,,,,AMNE02.jpg,AMSA15.jpg,AMSA03.jpg,AMNE16.jpg,AMSA15.jpg,MS,2,num_6,32,num_8,1.06675993762,,,2017_Jun_29_1657,59.9779540728,MAFE4ImagesEEG,001,100867,
AFNE01.JPG,AFNE01.JPG,AFNE01.JPG,AFNE01.JPG,AFNE01.JPG,AFNE01.JPG,,,,,,,,,4,3,43,9,,,,,,,,,,,,,,,AMSA03.jpg,AMSA13.jpg,AMNE16.jpg,AMNE15.jpg,AMNE16.jpg,MN,1,num_2,32,num_4,1.03701105717,,,2017_Jun_29_1657,59.9779540728,MAFE4ImagesEEG,001,100867,
AFNE01.JPG,AFNE01.JPG,AFNE01.JPG,AFNE01.JPG,AFNE01.JPG,AFNE01.JPG,,,,,,,,,4,4,44,4,,,,,,,,,,,,,,,AMSA15.jpg,AMNE14.jpg,AMNE01.jpg,AMSA14.jpg,AMNE14.jpg,MN,1,num_6,16,num_6,1.0258525408,,,2017_Jun_29_1657,59.9779540728,MAFE4ImagesEEG,001,100867,
AFNE01.JPG,AFNE01.JPG,AFNE01.JPG,AFNE01.JPG,AFNE01.JPG,AFNE01.JPG,,,,,,,,,4,5,45,7,,,,,,,,,,,,,,,AMNE05.jpg,AMSA08.jpg,AMNE12.jpg,AMSA07.jpg,AMSA07.jpg,MS,2,num_4,16,num_4,1.08345056351,,,2017_Jun_29_1657,59.9779540728,MAFE4ImagesEEG,001,100867,
AFNE01.JPG,AFNE01.JPG,AFNE01.JPG,AFNE01.JPG,AFNE01.JPG,AFNE01.JPG,,,,,,,,,4,6,46,3,,,,,,,,,,,,,,,AMSA08.jpg,AMNE01.jpg,AMSA16.jpg,AMNE11.jpg,AMSA16.jpg,MS,2,num_2,32,num_6,1.00048624061,,,2017_Jun_29_1657,59.9779540728,MAFE4ImagesEEG,001,100867,
AFNE01.JPG,AFNE01.JPG,AFNE01.JPG,AFNE01.JPG,AFNE01.JPG,AFNE01.JPG,,,,,,,,,4,7,47,8,,,,,,,,,,,,,,,AMNE11.jpg,AMSA15.jpg,AMNE06.jpg,AMSA17.jpg,AMNE11.jpg,MN,1,num_8,32,num_4,0.966823059105,,,2017_Jun_29_1657,59.9779540728,MAFE4ImagesEEG,001,100867,
AFNE01.JPG,AFNE01.JPG,AFNE01.JPG,AFNE01.JPG,AFNE01.JPG,AFNE01.JPG,,,,,,,,,4,8,48,0,,,,,,,,,,,,,,,AMNE14.jpg,AMSA05.jpg,AMNE16.jpg,AMSA13.jpg,AMSA05.jpg,MS,2,num_6,32,num_4,0.866791883251,,,2017_Jun_29_1657,59.9779540728,MAFE4ImagesEEG,001,100867,
AFNE01.JPG,AFNE01.JPG,AFNE01.JPG,AFNE01.JPG,AFNE01.JPG,AFNE01.JPG,,,,,,,,,4,9,49,6,,,,,,,,,,,,,,,AMNE06.jpg,AMNE18.jpg,AMSA18.jpg,AMSA04.jpg,AMSA18.jpg,MS,2,num_2,32,num_8,1.06670188383,,,2017_Jun_29_1657,59.9779540728,MAFE4ImagesEEG,001,100867,
AFNE01.JPG,AFNE01.JPG,AFNE01.JPG,AFNE01.JPG,AFNE01.JPG,AFNE01.JPG,,,,,,,,,5,0,50,3,,,,,,,,,,,,,,,AMSA10.jpg,AMSA01.jpg,AMNE07.jpg,AMNE14.jpg,AMSA10.jpg,MS,2,num_8,32,num_4,1.03339696801,,,2017_Jun_29_1657,59.9779540728,MAFE4ImagesEEG,001,100867,
AFNE01.JPG,AFNE01.JPG,AFNE01.JPG,AFNE01.JPG,AFNE01.JPG,AFNE01.JPG,,,,,,,,,5,1,51,4,,,,,,,,,,,,,,,AMSA13.jpg,AMNE04.jpg,AMSA17.jpg,AMNE07.jpg,AMNE04.jpg,MN,1,num_6,32,num_8,1.31709527047,,,2017_Jun_29_1657,59.9779540728,MAFE4ImagesEEG,001,100867,
AFNE01.JPG,AFNE01.JPG,AFNE01.JPG,AFNE01.JPG,AFNE01.JPG,AFNE01.JPG,,,,,,,,,5,2,52,8,,,,,,,,,,,,,,,AMNE14.jpg,AMSA04.jpg,AMSA10.jpg,AMNE08.jpg,AMSA04.jpg,MS,2,num_6,32,num_4,1.26716034842,,,2017_Jun_29_1657,59.9779540728,MAFE4ImagesEEG,001,100867,
AFNE01.JPG,AFNE01.JPG,AFNE01.JPG,AFNE01.JPG,AFNE01.JPG,AFNE01.JPG,,,,,,,,,5,3,53,7,,,,,,,,,,,,,,,AMSA17.jpg,AMNE17.jpg,AMNE18.jpg,AMSA11.jpg,AMSA17.jpg,MS,2,num_8,32,num_4,1.78332432057,,,2017_Jun_29_1657,59.9779540728,MAFE4ImagesEEG,001,100867,
AFNE01.JPG,AFNE01.JPG,AFNE01.JPG,AFNE01.JPG,AFNE01.JPG,AFNE01.JPG,,,,,,,,,5,4,54,6,,,,,,,,,,,,,,,AMNE09.jpg,AMNE06.jpg,AMSA15.jpg,AMSA04.jpg,AMSA15.jpg,MS,2,num_2,32,num_4,0.833911946829,,,2017_Jun_29_1657,59.9779540728,MAFE4ImagesEEG,001,100867,
AFNE01.JPG,AFNE01.JPG,AFNE01.JPG,AFNE01.JPG,AFNE01.JPG,AFNE01.JPG,,,,,,,,,5,5,55,1,,,,,,,,,,,,,,,AMSA05.jpg,AMSA16.jpg,AMNE02.jpg,AMNE01.jpg,AMNE02.jpg,MN,1,num_2,32,num_6,0.750403329526,,,2017_Jun_29_1657,59.9779540728,MAFE4ImagesEEG,001,100867,
AFNE01.JPG,AFNE01.JPG,AFNE01.JPG,AFNE01.JPG,AFNE01.JPG,AFNE01.JPG,,,,,,,,,5,6,56,0,,,,,,,,,,,,,,,AMNE03.jpg,AMSA14.jpg,AMSA05.jpg,AMNE12.jpg,AMSA14.jpg,MS,2,num_6,32,num_8,1.11704767274,,,2017_Jun_29_1657,59.9779540728,MAFE4ImagesEEG,001,100867,
AFNE01.JPG,AFNE01.JPG,AFNE01.JPG,AFNE01.JPG,AFNE01.JPG,AFNE01.JPG,,,,,,,,,5,7,57,2,,,,,,,,,,,,,,,AMNE20.jpg,AMNE01.jpg,AMSA14.jpg,AMSA17.jpg,AMSA14.jpg,MS,2,num_2,32,num_8,0.733745739795,,,2017_Jun_29_1657,59.9779540728,MAFE4ImagesEEG,001,100867,
AFNE01.JPG,AFNE01.JPG,AFNE01.JPG,AFNE01.JPG,AFNE01.JPG,AFNE01.JPG,,,,,,,,,5,8,58,9,,,,,,,,,,,,,,,AMSA01.jpg,AMSA07.jpg,AMNE05.jpg,AMNE01.jpg,AMNE01.jpg,MN,1,num_4,32,num_6,0.833851968608,,,2017_Jun_29_1657,59.9779540728,MAFE4ImagesEEG,001,100867,
AFNE01.JPG,AFNE01.JPG,AFNE01.JPG,AFNE01.JPG,AFNE01.JPG,AFNE01.JPG,,,,,,,,,5,9,59,5,,,,,,,,,,,,,,,AMSA05.jpg,AMNE03.jpg,AMSA02.jpg,AMNE01.jpg,AMSA02.jpg,MS,2,num_2,32,num_8,0.900471422472,,,2017_Jun_29_1657,59.9779540728,MAFE4ImagesEEG,001,100867,
,,,,,,,,,,,,,,,,,,,,,,,,,,,,,,,,,,,,,,,,,,,space,7.98277085301,2017_Jun_29_1657,59.9779540728,MAFE4ImagesEEG,001,100867,
AFNE01.JPG,AFNE01.JPG,AFNE01.JPG,AFNE01.JPG,AFNE01.JPG,AFNE01.JPG,,,,,,,,,,,,,0,0,0,9,,,,,,,,,,,AFNE15.jpg,AFNE01.jpg,AFSA17.jpg,AFSA08.jpg,AFNE15.jpg,FN,3,num_8,16,num_8,0.616771195579,,,2017_Jun_29_1657,59.9779540728,MAFE4ImagesEEG,001,100867,
AFNE01.JPG,AFNE01.JPG,AFNE01.JPG,AFNE01.JPG,AFNE01.JPG,AFNE01.JPG,,,,,,,,,,,,,0,1,1,5,,,,,,,,,,,AFNE03.jpg,AFSA13.jpg,AFSA06.jpg,AFNE15.jpg,AFSA06.jpg,FS,4,num_2,32,num_6,1.92360922677,,,2017_Jun_29_1657,59.9779540728,MAFE4ImagesEEG,001,100867,
AFNE01.JPG,AFNE01.JPG,AFNE01.JPG,AFNE01.JPG,AFNE01.JPG,AFNE01.JPG,,,,,,,,,,,,,0,2,2,1,,,,,,,,,,,AFSA17.jpg,AFSA05.jpg,AFNE03.jpg,AFNE09.jpg,AFSA05.jpg,FS,4,num_6,32,num_8,0.983768672624,,,2017_Jun_29_1657,59.9779540728,MAFE4ImagesEEG,001,100867,
AFNE01.JPG,AFNE01.JPG,AFNE01.JPG,AFNE01.JPG,AFNE01.JPG,AFNE01.JPG,,,,,,,,,,,,,0,3,3,6,,,,,,,,,,,AFNE15.jpg,AFSA09.jpg,AFSA03.jpg,AFNE20.jpg,AFSA09.jpg,FS,4,num_6,32,num_8,0.950267785141,,,2017_Jun_29_1657,59.9779540728,MAFE4ImagesEEG,001,100867,
AFNE01.JPG,AFNE01.JPG,AFNE01.JPG,AFNE01.JPG,AFNE01.JPG,AFNE01.JPG,,,,,,,,,,,,,0,4,4,0,,,,,,,,,,,AFSA02.jpg,AFSA07.jpg,AFNE05.jpg,AFNE18.jpg,AFNE05.jpg,FN,3,num_2,32,num_8,1.6666881562,,,2017_Jun_29_1657,59.9779540728,MAFE4ImagesEEG,001,100867,
AFNE01.JPG,AFNE01.JPG,AFNE01.JPG,AFNE01.JPG,AFNE01.JPG,AFNE01.JPG,,,,,,,,,,,,,0,5,5,3,,,,,,,,,,,AFNE20.jpg,AFSA12.jpg,AFNE05.jpg,AFSA07.jpg,AFSA12.jpg,FS,4,num_6,16,num_6,0.567085487884,,,2017_Jun_29_1657,59.9779540728,MAFE4ImagesEEG,001,100867,
AFNE01.JPG,AFNE01.JPG,AFNE01.JPG,AFNE01.JPG,AFNE01.JPG,AFNE01.JPG,,,,,,,,,,,,,0,6,6,8,,,,,,,,,,,AFSA18.jpg,AFSA03.jpg,AFNE06.jpg,AFNE04.jpg,AFSA18.jpg,FS,4,num_8,32,num_6,0.816803397756,,,2017_Jun_29_1657,59.9779540728,MAFE4ImagesEEG,001,100867,
AFNE01.JPG,AFNE01.JPG,AFNE01.JPG,AFNE01.JPG,AFNE01.JPG,AFNE01.JPG,,,,,,,,,,,,,0,7,7,4,,,,,,,,,,,AFNE15.jpg,AFSA08.jpg,AFSA12.jpg,AFNE18.jpg,AFSA12.jpg,FS,4,num_2,32,num_6,1.28383589958,,,2017_Jun_29_1657,59.9779540728,MAFE4ImagesEEG,001,100867,
AFNE01.JPG,AFNE01.JPG,AFNE01.JPG,AFNE01.JPG,AFNE01.JPG,AFNE01.JPG,,,,,,,,,,,,,0,8,8,7,,,,,,,,,,,AFSA11.jpg,AFSA17.jpg,AFNE11.jpg,AFNE08.jpg,AFNE08.jpg,FN,3,num_4,16,num_4,1.01709154987,,,2017_Jun_29_1657,59.9779540728,MAFE4ImagesEEG,001,100867,
AFNE01.JPG,AFNE01.JPG,AFNE01.JPG,AFNE01.JPG,AFNE01.JPG,AFNE01.JPG,,,,,,,,,,,,,0,9,9,2,,,,,,,,,,,AFSA20.jpg,AFNE14.jpg,AFSA07.jpg,AFNE16.jpg,AFSA07.jpg,FS,4,num_2,32,num_4,0.683518303646,,,2017_Jun_29_1657,59.9779540728,MAFE4ImagesEEG,001,100867,
AFNE01.JPG,AFNE01.JPG,AFNE01.JPG,AFNE01.JPG,AFNE01.JPG,AFNE01.JPG,,,,,,,,,,,,,1,0,10,8,,,,,,,,,,,AFSA09.jpg,AFSA01.jpg,AFNE06.jpg,AFNE19.jpg,AFSA01.jpg,FS,4,num_6,16,num_6,1.31680243555,,,2017_Jun_29_1657,59.9779540728,MAFE4ImagesEEG,001,100867,
AFNE01.JPG,AFNE01.JPG,AFNE01.JPG,AFNE01.JPG,AFNE01.JPG,AFNE01.JPG,,,,,,,,,,,,,1,1,11,2,,,,,,,,,,,AFNE04.jpg,AFSA04.jpg,AFSA12.jpg,AFNE17.jpg,AFSA04.jpg,FS,4,num_6,16,num_6,0.70012746178,,,2017_Jun_29_1657,59.9779540728,MAFE4ImagesEEG,001,100867,
AFNE01.JPG,AFNE01.JPG,AFNE01.JPG,AFNE01.JPG,AFNE01.JPG,AFNE01.JPG,,,,,,,,,,,,,1,2,12,1,,,,,,,,,,,AFSA17.jpg,AFNE14.jpg,AFSA18.jpg,AFNE20.jpg,AFSA17.jpg,FS,4,num_8,32,num_6,0.983430292777,,,2017_Jun_29_1657,59.9779540728,MAFE4ImagesEEG,001,100867,
AFNE01.JPG,AFNE01.JPG,AFNE01.JPG,AFNE01.JPG,AFNE01.JPG,AFNE01.JPG,,,,,,,,,,,,,1,3,13,6,,,,,,,,,,,AFNE15.jpg,AFNE05.jpg,AFSA03.jpg,AFSA11.jpg,AFSA11.jpg,FS,4,num_4,16,num_4,0.69999403425,,,2017_Jun_29_1657,59.9779540728,MAFE4ImagesEEG,001,100867,
AFNE01.JPG,AFNE01.JPG,AFNE01.JPG,AFNE01.JPG,AFNE01.JPG,AFNE01.JPG,,,,,,,,,,,,,1,4,14,3,,,,,,,,,,,AFNE12.jpg,AFSA08.jpg,AFSA13.jpg,AFNE03.jpg,AFSA08.jpg,FS,4,num_6,32,num_2,1.28388080304,,,2017_Jun_29_1657,59.9779540728,MAFE4ImagesEEG,001,100867,
AFNE01.JPG,AFNE01.JPG,AFNE01.JPG,AFNE01.JPG,AFNE01.JPG,AFNE01.JPG,,,,,,,,,,,,,1,5,15,9,,,,,,,,,,,AFSA19.jpg,AFSA18.jpg,AFNE03.jpg,AFNE04.jpg,AFNE03.jpg,FN,3,num_2,32,num_6,0.816708458995,,,2017_Jun_29_1657,59.9779540728,MAFE4ImagesEEG,001,100867,
AFNE01.JPG,AFNE01.JPG,AFNE01.JPG,AFNE01.JPG,AFNE01.JPG,AFNE01.JPG,,,,,,,,,,,,,1,6,16,5,,,,,,,,,,,AFNE01.jpg,AFSA08.jpg,AFNE14.jpg,AFSA04.jpg,AFNE01.jpg,FN,3,num_8,32,num_4,0.767207497061,,,2017_Jun_29_1657,59.9779540728,MAFE4ImagesEEG,001,100867,
AFNE01.JPG,AFNE01.JPG,AFNE01.JPG,AFNE01.JPG,AFNE01.JPG,AFNE01.JPG,,,,,,,,,,,,,1,7,17,4,,,,,,,,,,,AFSA08.jpg,AFSA14.jpg,AFNE07.jpg,AFNE11.jpg,AFNE11.jpg,FN,3,num_4,32,num_8,0.750464269979,,,2017_Jun_29_1657,59.9779540728,MAFE4ImagesEEG,001,100867,
AFNE01.JPG,AFNE01.JPG,AFNE01.JPG,AFNE01.JPG,AFNE01.JPG,AFNE01.JPG,,,,,,,,,,,,,1,8,18,0,,,,,,,,,,,AFSA07.jpg,AFNE08.jpg,AFNE01.jpg,AFSA16.jpg,AFNE08.jpg,FN,3,num_6,32,num_4,1.16673338041,,,2017_Jun_29_1657,59.9779540728,MAFE4ImagesEEG,001,100867,
AFNE01.JPG,AFNE01.JPG,AFNE01.JPG,AFNE01.JPG,AFNE01.JPG,AFNE01.JPG,,,,,,,,,,,,,1,9,19,7,,,,,,,,,,,AFSA18.jpg,AFNE18.jpg,AFNE15.jpg,AFSA01.jpg,AFSA18.jpg,FS,4,num_8,32,num_4,0.650660818937,,,2017_Jun_29_1657,59.9779540728,MAFE4ImagesEEG,001,100867,
AFNE01.JPG,AFNE01.JPG,AFNE01.JPG,AFNE01.JPG,AFNE01.JPG,AFNE01.JPG,,,,,,,,,,,,,2,0,20,9,,,,,,,,,,,AFSA02.jpg,AFNE16.jpg,AFSA08.jpg,AFNE14.jpg,AFSA02.jpg,FS,4,num_8,32,num_4,0.650197671552,,,2017_Jun_29_1657,59.9779540728,MAFE4ImagesEEG,001,100867,
AFNE01.JPG,AFNE01.JPG,AFNE01.JPG,AFNE01.JPG,AFNE01.JPG,AFNE01.JPG,,,,,,,,,,,,,2,1,21,0,,,,,,,,,,,AFSA11.jpg,AFSA04.jpg,AFNE20.jpg,AFNE04.jpg,AFSA11.jpg,FS,4,num_8,32,num_6,0.683783554938,,,2017_Jun_29_1657,59.9779540728,MAFE4ImagesEEG,001,100867,
AFNE01.JPG,AFNE01.JPG,AFNE01.JPG,AFNE01.JPG,AFNE01.JPG,AFNE01.JPG,,,,,,,,,,,,,2,2,22,8,,,,,,,,,,,AFNE05.jpg,AFSA17.jpg,AFNE13.jpg,AFSA14.jpg,AFNE13.jpg,FN,3,num_2,32,num_4,1.08345794052,,,2017_Jun_29_1657,59.9779540728,MAFE4ImagesEEG,001,100867,
AFNE01.JPG,AFNE01.JPG,AFNE01.JPG,AFNE01.JPG,AFNE01.JPG,AFNE01.JPG,,,,,,,,,,,,,2,3,23,3,,,,,,,,,,,AFNE05.jpg,AFNE07.jpg,AFSA12.jpg,AFSA20.jpg,AFNE05.jpg,FN,3,num_8,32,num_4,0.767145915161,,,2017_Jun_29_1657,59.9779540728,MAFE4ImagesEEG,001,100867,
AFNE01.JPG,AFNE01.JPG,AFNE01.JPG,AFNE01.JPG,AFNE01.JPG,AFNE01.JPG,,,,,,,,,,,,,2,4,24,2,,,,,,,,,,,AFNE01.jpg,AFSA07.jpg,AFNE13.jpg,AFSA15.jpg,AFSA07.jpg,FS,4,num_6,32,num_8,0.9171091264,,,2017_Jun_29_1657,59.9779540728,MAFE4ImagesEEG,001,100867,
AFNE01.JPG,AFNE01.JPG,AFNE01.JPG,AFNE01.JPG,AFNE01.JPG,AFNE01.JPG,,,,,,,,,,,,,2,5,25,1,,,,,,,,,,,AFSA04.jpg,AFNE07.jpg,AFNE05.jpg,AFSA15.jpg,AFSA04.jpg,FS,4,num_8,16,num_8,0.73388718575,,,2017_Jun_29_1657,59.9779540728,MAFE4ImagesEEG,001,100867,
AFNE01.JPG,AFNE01.JPG,AFNE01.JPG,AFNE01.JPG,AFNE01.JPG,AFNE01.JPG,,,,,,,,,,,,,2,6,26,7,,,,,,,,,,,AFSA10.jpg,AFNE01.jpg,AFNE08.jpg,AFSA08.jpg,AFSA08.jpg,FS,4,num_4,32,num_6,1.35006148572,,,2017_Jun_29_1657,59.9779540728,MAFE4ImagesEEG,001,100867,
AFNE01.JPG,AFNE01.JPG,AFNE01.JPG,AFNE01.JPG,AFNE01.JPG,AFNE01.JPG,,,,,,,,,,,,,2,7,27,6,,,,,,,,,,,AFSA11.jpg,AFNE14.jpg,AFNE06.jpg,AFSA17.jpg,AFSA17.jpg,FS,4,num_4,32,num_8,0.70008031308,,,2017_Jun_29_1657,59.9779540728,MAFE4ImagesEEG,001,100867,
AFNE01.JPG,AFNE01.JPG,AFNE01.JPG,AFNE01.JPG,AFNE01.JPG,AFNE01.JPG,,,,,,,,,,,,,2,8,28,5,,,,,,,,,,,AFNE15.jpg,AFNE20.jpg,AFSA11.jpg,AFSA13.jpg,AFSA13.jpg,FS,4,num_4,16,num_4,0.833383368648,,,2017_Jun_29_1657,59.9779540728,MAFE4ImagesEEG,001,100867,
AFNE01.JPG,AFNE01.JPG,AFNE01.JPG,AFNE01.JPG,AFNE01.JPG,AFNE01.JPG,,,,,,,,,,,,,2,9,29,4,,,,,,,,,,,AFNE05.jpg,AFNE14.jpg,AFSA02.jpg,AFSA19.jpg,AFSA19.jpg,FS,4,num_4,16,num_4,0.683847382024,,,2017_Jun_29_1657,59.9779540728,MAFE4ImagesEEG,001,100867,
AFNE01.JPG,AFNE01.JPG,AFNE01.JPG,AFNE01.JPG,AFNE01.JPG,AFNE01.JPG,,,,,,,,,,,,,3,0,30,7,,,,,,,,,,,AFNE16.jpg,AFSA14.jpg,AFSA15.jpg,AFNE05.jpg,AFNE05.jpg,FN,3,num_4,32,num_6,0.667042572983,,,2017_Jun_29_1657,59.9779540728,MAFE4ImagesEEG,001,100867,
AFNE01.JPG,AFNE01.JPG,AFNE01.JPG,AFNE01.JPG,AFNE01.JPG,AFNE01.JPG,,,,,,,,,,,,,3,1,31,3,,,,,,,,,,,AFSA11.jpg,AFNE03.jpg,AFNE12.jpg,AFSA08.jpg,AFSA08.jpg,FS,4,num_4,16,num_4,1.51713613261,,,2017_Jun_29_1657,59.9779540728,MAFE4ImagesEEG,001,100867,
AFNE01.JPG,AFNE01.JPG,AFNE01.JPG,AFNE01.JPG,AFNE01.JPG,AFNE01.JPG,,,,,,,,,,,,,3,2,32,2,,,,,,,,,,,AFNE08.jpg,AFNE18.jpg,AFSA20.jpg,AFSA13.jpg,AFNE18.jpg,FN,3,num_6,32,num_4,1.38343119086,,,2017_Jun_29_1657,59.9779540728,MAFE4ImagesEEG,001,100867,
AFNE01.JPG,AFNE01.JPG,AFNE01.JPG,AFNE01.JPG,AFNE01.JPG,AFNE01.JPG,,,,,,,,,,,,,3,3,33,6,,,,,,,,,,,AFSA20.jpg,AFSA11.jpg,AFNE18.jpg,AFNE01.jpg,AFNE01.jpg,FN,3,num_4,32,num_2,1.41709244795,,,2017_Jun_29_1657,59.9779540728,MAFE4ImagesEEG,001,100867,
AFNE01.JPG,AFNE01.JPG,AFNE01.JPG,AFNE01.JPG,AFNE01.JPG,AFNE01.JPG,,,,,,,,,,,,,3,4,34,0,,,,,,,,,,,AFSA03.jpg,AFNE08.jpg,AFSA05.jpg,AFNE01.jpg,AFSA05.jpg,FS,4,num_2,32,num_4,0.983796256216,,,2017_Jun_29_1657,59.9779540728,MAFE4ImagesEEG,001,100867,
AFNE01.JPG,AFNE01.JPG,AFNE01.JPG,AFNE01.JPG,AFNE01.JPG,AFNE01.JPG,,,,,,,,,,,,,3,5,35,5,,,,,,,,,,,AFSA11.jpg,AFSA03.jpg,AFNE16.jpg,AFNE07.jpg,AFNE16.jpg,FN,3,num_2,32,num_6,0.666733380436,,,2017_Jun_29_1657,59.9779540728,MAFE4ImagesEEG,001,100867,
AFNE01.JPG,AFNE01.JPG,AFNE01.JPG,AFNE01.JPG,AFNE01.JPG,AFNE01.JPG,,,,,,,,,,,,,3,6,36,1,,,,,,,,,,,AFNE20.jpg,AFNE07.jpg,AFSA14.jpg,AFSA01.jpg,AFSA01.jpg,FS,4,num_4,16,num_4,1.0499676374,,,2017_Jun_29_1657,59.9779540728,MAFE4ImagesEEG,001,100867,
AFNE01.JPG,AFNE01.JPG,AFNE01.JPG,AFNE01.JPG,AFNE01.JPG,AFNE01.JPG,,,,,,,,,,,,,3,7,37,4,,,,,,,,,,,AFNE19.jpg,AFSA10.jpg,AFSA07.jpg,AFNE08.jpg,AFNE19.jpg,FN,3,num_8,32,num_4,1.20024870118,,,2017_Jun_29_1657,59.9779540728,MAFE4ImagesEEG,001,100867,
AFNE01.JPG,AFNE01.JPG,AFNE01.JPG,AFNE01.JPG,AFNE01.JPG,AFNE01.JPG,,,,,,,,,,,,,3,8,38,8,,,,,,,,,,,AFSA05.jpg,AFNE19.jpg,AFNE14.jpg,AFSA10.jpg,AFNE14.jpg,FN,3,num_2,32,num_4,3.13321645596,,,2017_Jun_29_1657,59.9779540728,MAFE4ImagesEEG,001,100867,
AFNE01.JPG,AFNE01.JPG,AFNE01.JPG,AFNE01.JPG,AFNE01.JPG,AFNE01.JPG,,,,,,,,,,,,,3,9,39,9,,,,,,,,,,,AFSA07.jpg,AFNE07.jpg,AFNE05.jpg,AFSA19.jpg,AFNE05.jpg,FN,3,num_2,32,num_6,1.00044646894,,,2017_Jun_29_1657,59.9779540728,MAFE4ImagesEEG,001,100867,
AFNE01.JPG,AFNE01.JPG,AFNE01.JPG,AFNE01.JPG,AFNE01.JPG,AFNE01.JPG,,,,,,,,,,,,,4,0,40,7,,,,,,,,,,,AFNE01.jpg,AFSA08.jpg,AFNE03.jpg,AFSA15.jpg,AFSA08.jpg,FS,4,num_6,16,num_6,0.766749802249,,,2017_Jun_29_1657,59.9779540728,MAFE4ImagesEEG,001,100867,
AFNE01.JPG,AFNE01.JPG,AFNE01.JPG,AFNE01.JPG,AFNE01.JPG,AFNE01.JPG,,,,,,,,,,,,,4,1,41,2,,,,,,,,,,,AFNE05.jpg,AFSA19.jpg,AFNE08.jpg,AFSA09.jpg,AFNE08.jpg,FN,3,num_2,32,num_6,0.689408999548,,,2017_Jun_29_1657,59.9779540728,MAFE4ImagesEEG,001,100867,
AFNE01.JPG,AFNE01.JPG,AFNE01.JPG,AFNE01.JPG,AFNE01.JPG,AFNE01.JPG,,,,,,,,,,,,,4,2,42,6,,,,,,,,,,,AFNE13.jpg,AFNE03.jpg,AFSA04.jpg,AFSA03.jpg,AFSA04.jpg,FS,4,num_2,32,num_6,0.683509322931,,,2017_Jun_29_1657,59.9779540728,MAFE4ImagesEEG,001,100867,
AFNE01.JPG,AFNE01.JPG,AFNE01.JPG,AFNE01.JPG,AFNE01.JPG,AFNE01.JPG,,,,,,,,,,,,,4,3,43,0,,,,,,,,,,,AFNE06.jpg,AFSA05.jpg,AFSA07.jpg,AFNE11.jpg,AFSA05.jpg,FS,4,num_6,16,num_6,0.866767507076,,,2017_Jun_29_1657,59.9779540728,MAFE4ImagesEEG,001,100867,
AFNE01.JPG,AFNE01.JPG,AFNE01.JPG,AFNE01.JPG,AFNE01.JPG,AFNE01.JPG,,,,,,,,,,,,,4,4,44,5,,,,,,,,,,,AFNE12.jpg,AFNE18.jpg,AFSA10.jpg,AFSA01.jpg,AFNE18.jpg,FN,3,num_6,16,num_6,0.68331848309,,,2017_Jun_29_1657,59.9779540728,MAFE4ImagesEEG,001,100867,
AFNE01.JPG,AFNE01.JPG,AFNE01.JPG,AFNE01.JPG,AFNE01.JPG,AFNE01.JPG,,,,,,,,,,,,,4,5,45,8,,,,,,,,,,,AFNE09.jpg,AFSA09.jpg,AFSA12.jpg,AFNE18.jpg,AFNE09.jpg,FN,3,num_8,32,num_6,0.788422790705,,,2017_Jun_29_1657,59.9779540728,MAFE4ImagesEEG,001,100867,
AFNE01.JPG,AFNE01.JPG,AFNE01.JPG,AFNE01.JPG,AFNE01.JPG,AFNE01.JPG,,,,,,,,,,,,,4,6,46,1,,,,,,,,,,,AFNE05.jpg,AFSA04.jpg,AFNE06.jpg,AFSA01.jpg,AFNE06.jpg,FN,3,num_2,32,num_6,0.800557316397,,,2017_Jun_29_1657,59.9779540728,MAFE4ImagesEEG,001,100867,
AFNE01.JPG,AFNE01.JPG,AFNE01.JPG,AFNE01.JPG,AFNE01.JPG,AFNE01.JPG,,,,,,,,,,,,,4,7,47,9,,,,,,,,,,,AFSA11.jpg,AFNE07.jpg,AFNE14.jpg,AFSA10.jpg,AFNE07.jpg,FN,3,num_6,16,num_6,1.06716952156,,,2017_Jun_29_1657,59.9779540728,MAFE4ImagesEEG,001,100867,
AFNE01.JPG,AFNE01.JPG,AFNE01.JPG,AFNE01.JPG,AFNE01.JPG,AFNE01.JPG,,,,,,,,,,,,,4,8,48,4,,,,,,,,,,,AFSA16.jpg,AFNE17.jpg,AFSA01.jpg,AFNE15.jpg,AFSA16.jpg,FS,4,num_8,32,num_6,0.850089710759,,,2017_Jun_29_1657,59.9779540728,MAFE4ImagesEEG,001,100867,
AFNE01.JPG,AFNE01.JPG,AFNE01.JPG,AFNE01.JPG,AFNE01.JPG,AFNE01.JPG,,,,,,,,,,,,,4,9,49,3,,,,,,,,,,,AFNE15.jpg,AFSA12.jpg,AFSA03.jpg,AFNE16.jpg,AFNE15.jpg,FN,3,num_8,32,num_6,0.916727446747,,,2017_Jun_29_1657,59.9779540728,MAFE4ImagesEEG,001,100867,
AFNE01.JPG,AFNE01.JPG,AFNE01.JPG,AFNE01.JPG,AFNE01.JPG,AFNE01.JPG,,,,,,,,,,,,,5,0,50,6,,,,,,,,,,,AFNE16.jpg,AFNE15.jpg,AFSA19.jpg,AFSA05.jpg,AFNE16.jpg,FN,3,num_8,16,num_8,0.600163961877,,,2017_Jun_29_1657,59.9779540728,MAFE4ImagesEEG,001,100867,
AFNE01.JPG,AFNE01.JPG,AFNE01.JPG,AFNE01.JPG,AFNE01.JPG,AFNE01.JPG,,,,,,,,,,,,,5,1,51,1,,,,,,,,,,,AFNE13.jpg,AFNE16.jpg,AFSA20.jpg,AFSA03.jpg,AFSA20.jpg,FS,4,num_2,32,num_4,0.700126178795,,,2017_Jun_29_1657,59.9779540728,MAFE4ImagesEEG,001,100867,
AFNE01.JPG,AFNE01.JPG,AFNE01.JPG,AFNE01.JPG,AFNE01.JPG,AFNE01.JPG,,,,,,,,,,,,,5,2,52,3,,,,,,,,,,,AFNE17.jpg,AFNE14.jpg,AFSA02.jpg,AFSA17.jpg,AFSA02.jpg,FS,4,num_2,32,num_4,0.800102508249,,,2017_Jun_29_1657,59.9779540728,MAFE4ImagesEEG,001,100867,
AFNE01.JPG,AFNE01.JPG,AFNE01.JPG,AFNE01.JPG,AFNE01.JPG,AFNE01.JPG,,,,,,,,,,,,,5,3,53,7,,,,,,,,,,,AFNE17.jpg,AFNE13.jpg,AFSA11.jpg,AFSA04.jpg,AFSA04.jpg,FS,4,num_4,32,num_6,0.81676362615,,,2017_Jun_29_1657,59.9779540728,MAFE4ImagesEEG,001,100867,
AFNE01.JPG,AFNE01.JPG,AFNE01.JPG,AFNE01.JPG,AFNE01.JPG,AFNE01.JPG,,,,,,,,,,,,,5,4,54,2,,,,,,,,,,,AFSA13.jpg,AFSA18.jpg,AFNE13.jpg,AFNE03.jpg,AFNE13.jpg,FN,3,num_2,32,num_4,1.05042116262,,,2017_Jun_29_1657,59.9779540728,MAFE4ImagesEEG,001,100867,
AFNE01.JPG,AFNE01.JPG,AFNE01.JPG,AFNE01.JPG,AFNE01.JPG,AFNE01.JPG,,,,,,,,,,,,,5,5,55,5,,,,,,,,,,,AFSA01.jpg,AFNE17.jpg,AFSA02.jpg,AFNE01.jpg,AFNE17.jpg,FN,3,num_6,32,num_4,1.03384696509,,,2017_Jun_29_1657,59.9779540728,MAFE4ImagesEEG,001,100867,
AFNE01.JPG,AFNE01.JPG,AFNE01.JPG,AFNE01.JPG,AFNE01.JPG,AFNE01.JPG,,,,,,,,,,,,,5,6,56,4,,,,,,,,,,,AFSA17.jpg,AFNE20.jpg,AFNE13.jpg,AFSA04.jpg,AFNE20.jpg,FN,3,num_6,16,num_6,0.567353305145,,,2017_Jun_29_1657,59.9779540728,MAFE4ImagesEEG,001,100867,
AFNE01.JPG,AFNE01.JPG,AFNE01.JPG,AFNE01.JPG,AFNE01.JPG,AFNE01.JPG,,,,,,,,,,,,,5,7,57,9,,,,,,,,,,,AFSA02.jpg,AFSA15.jpg,AFNE01.jpg,AFNE16.jpg,AFSA15.jpg,FS,4,num_6,16,num_6,0.633860500267,,,2017_Jun_29_1657,59.9779540728,MAFE4ImagesEEG,001,100867,
AFNE01.JPG,AFNE01.JPG,AFNE01.JPG,AFNE01.JPG,AFNE01.JPG,AFNE01.JPG,,,,,,,,,,,,,5,8,58,0,,,,,,,,,,,AFNE12.jpg,AFSA06.jpg,AFNE18.jpg,AFSA13.jpg,AFNE18.jpg,FN,3,num_2,32,num_8,0.883809663093,,,2017_Jun_29_1657,59.9779540728,MAFE4ImagesEEG,001,100867,
AFNE01.JPG,AFNE01.JPG,AFNE01.JPG,AFNE01.JPG,AFNE01.JPG,AFNE01.JPG,,,,,,,,,,,,,5,9,59,8,,,,,,,,,,,AFSA15.jpg,AFNE18.jpg,AFSA05.jpg,AFNE12.jpg,AFSA05.jpg,FS,4,num_2,32,num_6,0.850424562464,,,2017_Jun_29_1657,59.9779540728,MAFE4ImagesEEG,001,100867,
,,,,,,,,,,,,,,,,,,,,,,,,,,,,,,,,,,,,,,,,,,,space,12.1662529131,2017_Jun_29_1657,59.9779540728,MAFE4ImagesEEG,001,100867,
AFNE01.JPG,AFNE01.JPG,AFNE01.JPG,AFNE01.JPG,AFNE01.JPG,AFNE01.JPG,,,,,,,,,,,,,,,,,0,0,0,8,,,,,,,AMSA10.jpg,AMNE14.jpg,AMNE04.jpg,AMSA08.jpg,AMSA10.jpg,MS,2,num_8,32,num_4,1.9003646163,,,2017_Jun_29_1657,59.9779540728,MAFE4ImagesEEG,001,100867,
AFNE01.JPG,AFNE01.JPG,AFNE01.JPG,AFNE01.JPG,AFNE01.JPG,AFNE01.JPG,,,,,,,,,,,,,,,,,0,1,1,1,,,,,,,AMNE11.jpg,AMSA20.jpg,AMNE07.jpg,AMSA19.jpg,AMSA20.jpg,MS,2,num_6,16,num_6,1.36706803966,,,2017_Jun_29_1657,59.9779540728,MAFE4ImagesEEG,001,100867,
AFNE01.JPG,AFNE01.JPG,AFNE01.JPG,AFNE01.JPG,AFNE01.JPG,AFNE01.JPG,,,,,,,,,,,,,,,,,0,2,2,7,,,,,,,AMNE07.jpg,AMSA08.jpg,AMNE11.jpg,AMSA13.jpg,AMNE11.jpg,MN,1,num_2,32,num_4,0.833419612172,,,2017_Jun_29_1657,59.9779540728,MAFE4ImagesEEG,001,100867,
AFNE01.JPG,AFNE01.JPG,AFNE01.JPG,AFNE01.JPG,AFNE01.JPG,AFNE01.JPG,,,,,,,,,,,,,,,,,0,3,3,0,,,,,,,AMNE09.jpg,AMNE19.jpg,AMSA19.jpg,AMSA20.jpg,AMSA19.jpg,MS,2,num_2,32,num_6,0.783840389922,,,2017_Jun_29_1657,59.9779540728,MAFE4ImagesEEG,001,100867,
AFNE01.JPG,AFNE01.JPG,AFNE01.JPG,AFNE01.JPG,AFNE01.JPG,AFNE01.JPG,,,,,,,,,,,,,,,,,0,4,4,6,,,,,,,AMSA14.jpg,AMNE20.jpg,AMSA03.jpg,AMNE09.jpg,AMSA14.jpg,MS,2,num_8,16,num_8,1.40005542373,,,2017_Jun_29_1657,59.9779540728,MAFE4ImagesEEG,001,100867,
AFNE01.JPG,AFNE01.JPG,AFNE01.JPG,AFNE01.JPG,AFNE01.JPG,AFNE01.JPG,,,,,,,,,,,,,,,,,0,5,5,5,,,,,,,AMSA11.jpg,AMNE03.jpg,AMSA03.jpg,AMNE19.jpg,AMSA11.jpg,MS,2,num_8,32,num_2,1.06673459924,,,2017_Jun_29_1657,59.9779540728,MAFE4ImagesEEG,001,100867,
AFNE01.JPG,AFNE01.JPG,AFNE01.JPG,AFNE01.JPG,AFNE01.JPG,AFNE01.JPG,,,,,,,,,,,,,,,,,0,6,6,9,,,,,,,AMSA13.jpg,AMNE18.jpg,AMNE09.jpg,AMSA03.jpg,AMSA03.jpg,MS,2,num_4,32,num_6,0.583435168024,,,2017_Jun_29_1657,59.9779540728,MAFE4ImagesEEG,001,100867,
AFNE01.JPG,AFNE01.JPG,AFNE01.JPG,AFNE01.JPG,AFNE01.JPG,AFNE01.JPG,,,,,,,,,,,,,,,,,0,7,7,4,,,,,,,AMNE04.jpg,AMSA17.jpg,AMNE12.jpg,AMSA11.jpg,AMSA17.jpg,MS,2,num_6,32,num_8,1.15039364318,,,2017_Jun_29_1657,59.9779540728,MAFE4ImagesEEG,001,100867,
AFNE01.JPG,AFNE01.JPG,AFNE01.JPG,AFNE01.JPG,AFNE01.JPG,AFNE01.JPG,,,,,,,,,,,,,,,,,0,8,8,2,,,,,,,AMSA11.jpg,AMNE15.jpg,AMSA07.jpg,AMNE18.jpg,AMNE18.jpg,MN,1,num_4,32,num_8,1.11707782224,,,2017_Jun_29_1657,59.9779540728,MAFE4ImagesEEG,001,100867,
AFNE01.JPG,AFNE01.JPG,AFNE01.JPG,AFNE01.JPG,AFNE01.JPG,AFNE01.JPG,,,,,,,,,,,,,,,,,0,9,9,3,,,,,,,AMNE20.jpg,AMNE02.jpg,AMSA15.jpg,AMSA12.jpg,AMSA15.jpg,MS,2,num_2,32,num_4,0.983504383563,,,2017_Jun_29_1657,59.9779540728,MAFE4ImagesEEG,001,100867,
AFNE01.JPG,AFNE01.JPG,AFNE01.JPG,AFNE01.JPG,AFNE01.JPG,AFNE01.JPG,,,,,,,,,,,,,,,,,1,0,10,0,,,,,,,AMSA09.jpg,AMNE19.jpg,AMSA14.jpg,AMNE12.jpg,AMSA09.jpg,MS,2,num_8,16,num_8,0.750079703692,,,2017_Jun_29_1657,59.9779540728,MAFE4ImagesEEG,001,100867,
AFNE01.JPG,AFNE01.JPG,AFNE01.JPG,AFNE01.JPG,AFNE01.JPG,AFNE01.JPG,,,,,,,,,,,,,,,,,1,1,11,5,,,,,,,AMNE11.jpg,AMSA07.jpg,AMSA17.jpg,AMNE20.jpg,AMNE11.jpg,MN,1,num_8,16,num_8,1.00039290552,,,2017_Jun_29_1657,59.9779540728,MAFE4ImagesEEG,001,100867,
AFNE01.JPG,AFNE01.JPG,AFNE01.JPG,AFNE01.JPG,AFNE01.JPG,AFNE01.JPG,,,,,,,,,,,,,,,,,1,2,12,8,,,,,,,AMSA06.jpg,AMNE17.jpg,AMNE11.jpg,AMSA13.jpg,AMSA13.jpg,MS,2,num_4,32,num_8,1.10053377418,,,2017_Jun_29_1657,59.9779540728,MAFE4ImagesEEG,001,100867,
AFNE01.JPG,AFNE01.JPG,AFNE01.JPG,AFNE01.JPG,AFNE01.JPG,AFNE01.JPG,,,,,,,,,,,,,,,,,1,3,13,6,,,,,,,AMSA02.jpg,AMNE20.jpg,AMNE09.jpg,AMSA12.jpg,AMSA02.jpg,MS,2,num_8,32,num_4,0.81710906222,,,2017_Jun_29_1657,59.9779540728,MAFE4ImagesEEG,001,100867,
AFNE01.JPG,AFNE01.JPG,AFNE01.JPG,AFNE01.JPG,AFNE01.JPG,AFNE01.JPG,,,,,,,,,,,,,,,,,1,4,14,4,,,,,,,AMSA19.jpg,AMNE11.jpg,AMNE16.jpg,AMSA11.jpg,AMNE16.jpg,MN,1,num_2,16,num_2,1.11683951301,,,2017_Jun_29_1657,59.9779540728,MAFE4ImagesEEG,001,100867,
AFNE01.JPG,AFNE01.JPG,AFNE01.JPG,AFNE01.JPG,AFNE01.JPG,AFNE01.JPG,,,,,,,,,,,,,,,,,1,5,15,9,,,,,,,AMNE04.jpg,AMNE05.jpg,AMSA18.jpg,AMSA17.jpg,AMSA17.jpg,MS,2,num_4,16,num_4,0.817073780927,,,2017_Jun_29_1657,59.9779540728,MAFE4ImagesEEG,001,100867,
AFNE01.JPG,AFNE01.JPG,AFNE01.JPG,AFNE01.JPG,AFNE01.JPG,AFNE01.JPG,,,,,,,,,,,,,,,,,1,6,16,7,,,,,,,AMNE17.jpg,AMSA13.jpg,AMSA03.jpg,AMNE14.jpg,AMSA03.jpg,MS,2,num_2,16,num_2,2.93364996705,,,2017_Jun_29_1657,59.9779540728,MAFE4ImagesEEG,001,100867,
AFNE01.JPG,AFNE01.JPG,AFNE01.JPG,AFNE01.JPG,AFNE01.JPG,AFNE01.JPG,,,,,,,,,,,,,,,,,1,7,17,3,,,,,,,AMSA16.jpg,AMSA04.jpg,AMNE09.jpg,AMNE20.jpg,AMNE20.jpg,MN,1,num_4,32,num_8,2.05002184235,,,2017_Jun_29_1657,59.9779540728,MAFE4ImagesEEG,001,100867,
AFNE01.JPG,AFNE01.JPG,AFNE01.JPG,AFNE01.JPG,AFNE01.JPG,AFNE01.JPG,,,,,,,,,,,,,,,,,1,8,18,2,,,,,,,AMNE08.jpg,AMSA05.jpg,AMSA13.jpg,AMNE04.jpg,AMNE04.jpg,MN,1,num_4,16,num_4,1.08344863905,,,2017_Jun_29_1657,59.9779540728,MAFE4ImagesEEG,001,100867,
AFNE01.JPG,AFNE01.JPG,AFNE01.JPG,AFNE01.JPG,AFNE01.JPG,AFNE01.JPG,,,,,,,,,,,,,,,,,1,9,19,1,,,,,,,AMNE07.jpg,AMNE13.jpg,AMSA02.jpg,AMSA18.jpg,AMNE13.jpg,MN,1,num_6,32,num_2,2.5669847758,,,2017_Jun_29_1657,59.9779540728,MAFE4ImagesEEG,001,100867,
AFNE01.JPG,AFNE01.JPG,AFNE01.JPG,AFNE01.JPG,AFNE01.JPG,AFNE01.JPG,,,,,,,,,,,,,,,,,2,0,20,6,,,,,,,AMSA13.jpg,AMNE20.jpg,AMSA19.jpg,AMNE14.jpg,AMSA19.jpg,MS,2,num_2,32,num_4,1.01715698067,,,2017_Jun_29_1657,59.9779540728,MAFE4ImagesEEG,001,100867,
AFNE01.JPG,AFNE01.JPG,AFNE01.JPG,AFNE01.JPG,AFNE01.JPG,AFNE01.JPG,,,,,,,,,,,,,,,,,2,1,21,0,,,,,,,AMNE15.jpg,AMNE04.jpg,AMSA04.jpg,AMSA09.jpg,AMSA04.jpg,MS,2,num_2,32,num_4,0.950477869308,,,2017_Jun_29_1657,59.9779540728,MAFE4ImagesEEG,001,100867,
AFNE01.JPG,AFNE01.JPG,AFNE01.JPG,AFNE01.JPG,AFNE01.JPG,AFNE01.JPG,,,,,,,,,,,,,,,,,2,2,22,1,,,,,,,AMSA06.jpg,AMNE03.jpg,AMSA09.jpg,AMNE19.jpg,AMNE19.jpg,MN,1,num_4,16,num_4,2.69903919369,,,2017_Jun_29_1657,59.9779540728,MAFE4ImagesEEG,001,100867,
AFNE01.JPG,AFNE01.JPG,AFNE01.JPG,AFNE01.JPG,AFNE01.JPG,AFNE01.JPG,,,,,,,,,,,,,,,,,2,3,23,8,,,,,,,AMSA02.jpg,AMNE04.jpg,AMNE16.jpg,AMSA20.jpg,AMSA20.jpg,MS,2,num_4,16,num_4,0.899975880398,,,2017_Jun_29_1657,59.9779540728,MAFE4ImagesEEG,001,100867,
AFNE01.JPG,AFNE01.JPG,AFNE01.JPG,AFNE01.JPG,AFNE01.JPG,AFNE01.JPG,,,,,,,,,,,,,,,,,2,4,24,5,,,,,,,AMSA03.jpg,AMSA06.jpg,AMNE17.jpg,AMNE03.jpg,AMSA03.jpg,MS,2,num_8,32,num_4,2.49963852693,,,2017_Jun_29_1657,59.9779540728,MAFE4ImagesEEG,001,100867,
AFNE01.JPG,AFNE01.JPG,AFNE01.JPG,AFNE01.JPG,AFNE01.JPG,AFNE01.JPG,,,,,,,,,,,,,,,,,2,5,25,2,,,,,,,AMSA17.jpg,AMNE05.jpg,AMNE10.jpg,AMSA16.jpg,AMSA16.jpg,MS,2,num_4,32,num_6,0.767125708604,,,2017_Jun_29_1657,59.9779540728,MAFE4ImagesEEG,001,100867,
AFNE01.JPG,AFNE01.JPG,AFNE01.JPG,AFNE01.JPG,AFNE01.JPG,AFNE01.JPG,,,,,,,,,,,,,,,,,2,6,26,9,,,,,,,AMNE09.jpg,AMNE12.jpg,AMSA07.jpg,AMSA08.jpg,AMSA07.jpg,MS,2,num_2,32,num_6,1.15053476844,,,2017_Jun_29_1657,59.9779540728,MAFE4ImagesEEG,001,100867,
AFNE01.JPG,AFNE01.JPG,AFNE01.JPG,AFNE01.JPG,AFNE01.JPG,AFNE01.JPG,,,,,,,,,,,,,,,,,2,7,27,4,,,,,,,AMSA08.jpg,AMNE20.jpg,AMNE17.jpg,AMSA14.jpg,AMSA08.jpg,MS,2,num_8,16,num_8,1.30005984992,,,2017_Jun_29_1657,59.9779540728,MAFE4ImagesEEG,001,100867,
AFNE01.JPG,AFNE01.JPG,AFNE01.JPG,AFNE01.JPG,AFNE01.JPG,AFNE01.JPG,,,,,,,,,,,,,,,,,2,8,28,3,,,,,,,AMNE08.jpg,AMSA01.jpg,AMNE07.jpg,AMSA11.jpg,AMNE07.jpg,MN,1,num_2,32,num_8,1.38371568653,,,2017_Jun_29_1657,59.9779540728,MAFE4ImagesEEG,001,100867,
AFNE01.JPG,AFNE01.JPG,AFNE01.JPG,AFNE01.JPG,AFNE01.JPG,AFNE01.JPG,,,,,,,,,,,,,,,,,2,9,29,7,,,,,,,AMSA20.jpg,AMSA02.jpg,AMNE20.jpg,AMNE05.jpg,AMSA20.jpg,MS,2,num_8,32,num_2,1.73332621291,,,2017_Jun_29_1657,59.9779540728,MAFE4ImagesEEG,001,100867,
AFNE01.JPG,AFNE01.JPG,AFNE01.JPG,AFNE01.JPG,AFNE01.JPG,AFNE01.JPG,,,,,,,,,,,,,,,,,3,0,30,6,,,,,,,AMNE17.jpg,AMNE12.jpg,AMSA06.jpg,AMSA05.jpg,AMNE12.jpg,MN,1,num_6,16,num_6,1.01709988908,,,2017_Jun_29_1657,59.9779540728,MAFE4ImagesEEG,001,100867,
AFNE01.JPG,AFNE01.JPG,AFNE01.JPG,AFNE01.JPG,AFNE01.JPG,AFNE01.JPG,,,,,,,,,,,,,,,,,3,1,31,0,,,,,,,AMNE20.jpg,AMNE16.jpg,AMSA06.jpg,AMSA12.jpg,AMNE16.jpg,MN,1,num_6,32,num_4,0.717128563178,,,2017_Jun_29_1657,59.9779540728,MAFE4ImagesEEG,001,100867,
AFNE01.JPG,AFNE01.JPG,AFNE01.JPG,AFNE01.JPG,AFNE01.JPG,AFNE01.JPG,,,,,,,,,,,,,,,,,3,2,32,5,,,,,,,AMSA10.jpg,AMSA02.jpg,AMNE14.jpg,AMNE16.jpg,AMNE14.jpg,MN,1,num_2,32,num_8,1.98335652277,,,2017_Jun_29_1657,59.9779540728,MAFE4ImagesEEG,001,100867,
AFNE01.JPG,AFNE01.JPG,AFNE01.JPG,AFNE01.JPG,AFNE01.JPG,AFNE01.JPG,,,,,,,,,,,,,,,,,3,3,33,4,,,,,,,AMNE16.jpg,AMNE08.jpg,AMSA16.jpg,AMSA12.jpg,AMNE08.jpg,MN,1,num_6,16,num_6,1.53342519305,,,2017_Jun_29_1657,59.9779540728,MAFE4ImagesEEG,001,100867,
AFNE01.JPG,AFNE01.JPG,AFNE01.JPG,AFNE01.JPG,AFNE01.JPG,AFNE01.JPG,,,,,,,,,,,,,,,,,3,4,34,8,,,,,,,AMNE18.jpg,AMSA05.jpg,AMSA17.jpg,AMNE01.jpg,AMSA05.jpg,MS,2,num_6,16,num_6,0.699758932431,,,2017_Jun_29_1657,59.9779540728,MAFE4ImagesEEG,001,100867,
AFNE01.JPG,AFNE01.JPG,AFNE01.JPG,AFNE01.JPG,AFNE01.JPG,AFNE01.JPG,,,,,,,,,,,,,,,,,3,5,35,7,,,,,,,AMSA05.jpg,AMNE09.jpg,AMSA10.jpg,AMNE06.jpg,AMNE09.jpg,MN,1,num_6,16,num_6,1.21718084367,,,2017_Jun_29_1657,59.9779540728,MAFE4ImagesEEG,001,100867,
AFNE01.JPG,AFNE01.JPG,AFNE01.JPG,AFNE01.JPG,AFNE01.JPG,AFNE01.JPG,,,,,,,,,,,,,,,,,3,6,36,3,,,,,,,AMNE15.jpg,AMSA08.jpg,AMSA14.jpg,AMNE02.jpg,AMSA08.jpg,MS,2,num_6,16,num_6,0.617160572932,,,2017_Jun_29_1657,59.9779540728,MAFE4ImagesEEG,001,100867,
AFNE01.JPG,AFNE01.JPG,AFNE01.JPG,AFNE01.JPG,AFNE01.JPG,AFNE01.JPG,,,,,,,,,,,,,,,,,3,7,37,2,,,,,,,AMNE09.jpg,AMSA03.jpg,AMSA11.jpg,AMNE13.jpg,AMNE09.jpg,MN,1,num_8,32,num_6,1.00023766776,,,2017_Jun_29_1657,59.9779540728,MAFE4ImagesEEG,001,100867,
AFNE01.JPG,AFNE01.JPG,AFNE01.JPG,AFNE01.JPG,AFNE01.JPG,AFNE01.JPG,,,,,,,,,,,,,,,,,3,8,38,1,,,,,,,AMNE05.jpg,AMNE03.jpg,AMSA15.jpg,AMSA11.jpg,AMSA15.jpg,MS,2,num_2,32,num_6,0.850141349772,,,2017_Jun_29_1657,59.9779540728,MAFE4ImagesEEG,001,100867,
AFNE01.JPG,AFNE01.JPG,AFNE01.JPG,AFNE01.JPG,AFNE01.JPG,AFNE01.JPG,,,,,,,,,,,,,,,,,3,9,39,9,,,,,,,AMSA17.jpg,AMNE15.jpg,AMNE16.jpg,AMSA19.jpg,AMSA19.jpg,MS,2,num_4,32,num_6,0.683466664603,,,2017_Jun_29_1657,59.9779540728,MAFE4ImagesEEG,001,100867,
AFNE01.JPG,AFNE01.JPG,AFNE01.JPG,AFNE01.JPG,AFNE01.JPG,AFNE01.JPG,,,,,,,,,,,,,,,,,4,0,40,8,,,,,,,AMSA13.jpg,AMNE20.jpg,AMNE06.jpg,AMSA17.jpg,AMNE06.jpg,MN,1,num_2,32,num_6,1.16724912904,,,2017_Jun_29_1657,59.9779540728,MAFE4ImagesEEG,001,100867,
AFNE01.JPG,AFNE01.JPG,AFNE01.JPG,AFNE01.JPG,AFNE01.JPG,AFNE01.JPG,,,,,,,,,,,,,,,,,4,1,41,4,,,,,,,AMNE18.jpg,AMSA07.jpg,AMNE04.jpg,AMSA18.jpg,AMSA18.jpg,MS,2,num_4,32,num_6,0.850184649549,,,2017_Jun_29_1657,59.9779540728,MAFE4ImagesEEG,001,100867,
AFNE01.JPG,AFNE01.JPG,AFNE01.JPG,AFNE01.JPG,AFNE01.JPG,AFNE01.JPG,,,,,,,,,,,,,,,,,4,2,42,1,,,,,,,AMSA16.jpg,AMSA06.jpg,AMNE01.jpg,AMNE07.jpg,AMNE01.jpg,MN,1,num_2,32,num_4,1.10039842222,,,2017_Jun_29_1657,59.9779540728,MAFE4ImagesEEG,001,100867,
AFNE01.JPG,AFNE01.JPG,AFNE01.JPG,AFNE01.JPG,AFNE01.JPG,AFNE01.JPG,,,,,,,,,,,,,,,,,4,3,43,5,,,,,,,AMSA13.jpg,AMNE15.jpg,AMNE20.jpg,AMSA11.jpg,AMSA11.jpg,MS,2,num_4,16,num_4,0.950516999495,,,2017_Jun_29_1657,59.9779540728,MAFE4ImagesEEG,001,100867,
AFNE01.JPG,AFNE01.JPG,AFNE01.JPG,AFNE01.JPG,AFNE01.JPG,AFNE01.JPG,,,,,,,,,,,,,,,,,4,4,44,2,,,,,,,AMNE13.jpg,AMSA17.jpg,AMNE18.jpg,AMSA10.jpg,AMSA17.jpg,MS,2,num_6,32,num_4,0.949129481771,,,2017_Jun_29_1657,59.9779540728,MAFE4ImagesEEG,001,100867,
AFNE01.JPG,AFNE01.JPG,AFNE01.JPG,AFNE01.JPG,AFNE01.JPG,AFNE01.JPG,,,,,,,,,,,,,,,,,4,5,45,9,,,,,,,AMSA07.jpg,AMNE20.jpg,AMSA11.jpg,AMNE04.jpg,AMSA07.jpg,MS,2,num_8,32,num_6,0.866786430677,,,2017_Jun_29_1657,59.9779540728,MAFE4ImagesEEG,001,100867,
AFNE01.JPG,AFNE01.JPG,AFNE01.JPG,AFNE01.JPG,AFNE01.JPG,AFNE01.JPG,,,,,,,,,,,,,,,,,4,6,46,7,,,,,,,AMNE08.jpg,AMSA14.jpg,AMNE04.jpg,AMSA01.jpg,AMSA01.jpg,MS,2,num_4,32,num_6,0.700530630915,,,2017_Jun_29_1657,59.9779540728,MAFE4ImagesEEG,001,100867,
AFNE01.JPG,AFNE01.JPG,AFNE01.JPG,AFNE01.JPG,AFNE01.JPG,AFNE01.JPG,,,,,,,,,,,,,,,,,4,7,47,3,,,,,,,AMNE02.jpg,AMSA19.jpg,AMNE17.jpg,AMSA14.jpg,AMSA14.jpg,MS,2,num_4,16,num_4,0.850345660641,,,2017_Jun_29_1657,59.9779540728,MAFE4ImagesEEG,001,100867,
AFNE01.JPG,AFNE01.JPG,AFNE01.JPG,AFNE01.JPG,AFNE01.JPG,AFNE01.JPG,,,,,,,,,,,,,,,,,4,8,48,6,,,,,,,AMSA07.jpg,AMSA19.jpg,AMNE12.jpg,AMNE09.jpg,AMSA19.jpg,MS,2,num_6,16,num_6,0.866788996587,,,2017_Jun_29_1657,59.9779540728,MAFE4ImagesEEG,001,100867,
AFNE01.JPG,AFNE01.JPG,AFNE01.JPG,AFNE01.JPG,AFNE01.JPG,AFNE01.JPG,,,,,,,,,,,,,,,,,4,9,49,0,,,,,,,AMSA19.jpg,AMNE14.jpg,AMSA03.jpg,AMNE04.jpg,AMSA03.jpg,MS,2,num_2,32,num_4,0.749954936124,,,2017_Jun_29_1657,59.9779540728,MAFE4ImagesEEG,001,100867,
AFNE01.JPG,AFNE01.JPG,AFNE01.JPG,AFNE01.JPG,AFNE01.JPG,AFNE01.JPG,,,,,,,,,,,,,,,,,5,0,50,1,,,,,,,AMNE07.jpg,AMNE12.jpg,AMSA11.jpg,AMSA18.jpg,AMNE07.jpg,MN,1,num_8,16,num_8,0.767164518038,,,2017_Jun_29_1657,59.9779540728,MAFE4ImagesEEG,001,100867,
AFNE01.JPG,AFNE01.JPG,AFNE01.JPG,AFNE01.JPG,AFNE01.JPG,AFNE01.JPG,,,,,,,,,,,,,,,,,5,1,51,2,,,,,,,AMSA03.jpg,AMNE06.jpg,AMNE01.jpg,AMSA13.jpg,AMSA13.jpg,MS,2,num_4,16,num_4,0.950163224188,,,2017_Jun_29_1657,59.9779540728,MAFE4ImagesEEG,001,100867,
AFNE01.JPG,AFNE01.JPG,AFNE01.JPG,AFNE01.JPG,AFNE01.JPG,AFNE01.JPG,,,,,,,,,,,,,,,,,5,2,52,8,,,,,,,AMSA15.jpg,AMSA10.jpg,AMNE19.jpg,AMNE15.jpg,AMNE15.jpg,MN,1,num_4,16,num_4,0.900429726375,,,2017_Jun_29_1657,59.9779540728,MAFE4ImagesEEG,001,100867,
AFNE01.JPG,AFNE01.JPG,AFNE01.JPG,AFNE01.JPG,AFNE01.JPG,AFNE01.JPG,,,,,,,,,,,,,,,,,5,3,53,9,,,,,,,AMNE15.jpg,AMNE04.jpg,AMSA19.jpg,AMSA03.jpg,AMSA19.jpg,MS,2,num_2,32,num_8,0.717117337277,,,2017_Jun_29_1657,59.9779540728,MAFE4ImagesEEG,001,100867,
AFNE01.JPG,AFNE01.JPG,AFNE01.JPG,AFNE01.JPG,AFNE01.JPG,AFNE01.JPG,,,,,,,,,,,,,,,,,5,4,54,6,,,,,,,AMNE03.jpg,AMNE06.jpg,AMSA20.jpg,AMSA08.jpg,AMNE03.jpg,MN,1,num_8,32,num_4,0.567200633261,,,2017_Jun_29_1657,59.9779540728,MAFE4ImagesEEG,001,100867,
AFNE01.JPG,AFNE01.JPG,AFNE01.JPG,AFNE01.JPG,AFNE01.JPG,AFNE01.JPG,,,,,,,,,,,,,,,,,5,5,55,3,,,,,,,AMNE03.jpg,AMSA08.jpg,AMNE17.jpg,AMSA12.jpg,AMNE03.jpg,MN,1,num_8,32,num_4,0.98382223607,,,2017_Jun_29_1657,59.9779540728,MAFE4ImagesEEG,001,100867,
AFNE01.JPG,AFNE01.JPG,AFNE01.JPG,AFNE01.JPG,AFNE01.JPG,AFNE01.JPG,,,,,,,,,,,,,,,,,5,6,56,4,,,,,,,AMNE03.jpg,AMNE11.jpg,AMSA14.jpg,AMSA20.jpg,AMNE03.jpg,MN,1,num_8,16,num_8,0.883731081994,,,2017_Jun_29_1657,59.9779540728,MAFE4ImagesEEG,001,100867,
AFNE01.JPG,AFNE01.JPG,AFNE01.JPG,AFNE01.JPG,AFNE01.JPG,AFNE01.JPG,,,,,,,,,,,,,,,,,5,7,57,5,,,,,,,AMSA18.jpg,AMSA04.jpg,AMNE15.jpg,AMNE10.jpg,AMSA04.jpg,MS,2,num_6,32,num_2,1.23373387245,,,2017_Jun_29_1657,59.9779540728,MAFE4ImagesEEG,001,100867,
AFNE01.JPG,AFNE01.JPG,AFNE01.JPG,AFNE01.JPG,AFNE01.JPG,AFNE01.JPG,,,,,,,,,,,,,,,,,5,8,58,7,,,,,,,AMNE01.jpg,AMNE04.jpg,AMSA12.jpg,AMSA20.jpg,AMNE04.jpg,MN,1,num_6,16,num_6,0.917082825763,,,2017_Jun_29_1657,59.9779540728,MAFE4ImagesEEG,001,100867,
AFNE01.JPG,AFNE01.JPG,AFNE01.JPG,AFNE01.JPG,AFNE01.JPG,AFNE01.JPG,,,,,,,,,,,,,,,,,5,9,59,0,,,,,,,AMNE05.jpg,AMSA06.jpg,AMNE12.jpg,AMSA18.jpg,AMNE05.jpg,MN,1,num_8,16,num_8,1.30048450863,,,2017_Jun_29_1657,59.9779540728,MAFE4ImagesEEG,001,100867,
,,,,,,,,,,,,,,,,,,,,,,,,,,,,,,,,,,,,,,,,,,,space,4.06668712985,2017_Jun_29_1657,59.9779540728,MAFE4ImagesEEG,001,100867,
AFNE01.JPG,AFNE01.JPG,AFNE01.JPG,AFNE01.JPG,AFNE01.JPG,AFNE01.JPG,,,,,,,,,,,,,,,,,,,,,0,0,0,5,,,AFNE18.jpg,AFNE14.jpg,AFSA09.jpg,AFSA02.jpg,AFNE18.jpg,FN,3,num_8,32,num_4,0.867131866777,,,2017_Jun_29_1657,59.9779540728,MAFE4ImagesEEG,001,100867,
AFNE01.JPG,AFNE01.JPG,AFNE01.JPG,AFNE01.JPG,AFNE01.JPG,AFNE01.JPG,,,,,,,,,,,,,,,,,,,,,0,1,1,4,,,AFNE03.jpg,AFSA08.jpg,AFSA03.jpg,AFNE02.jpg,AFNE03.jpg,FN,3,num_8,32,num_4,0.983424198756,,,2017_Jun_29_1657,59.9779540728,MAFE4ImagesEEG,001,100867,
AFNE01.JPG,AFNE01.JPG,AFNE01.JPG,AFNE01.JPG,AFNE01.JPG,AFNE01.JPG,,,,,,,,,,,,,,,,,,,,,0,2,2,2,,,AFNE02.jpg,AFSA07.jpg,AFSA09.jpg,AFNE04.jpg,AFSA09.jpg,FS,4,num_2,32,num_4,0.883789777261,,,2017_Jun_29_1657,59.9779540728,MAFE4ImagesEEG,001,100867,
AFNE01.JPG,AFNE01.JPG,AFNE01.JPG,AFNE01.JPG,AFNE01.JPG,AFNE01.JPG,,,,,,,,,,,,,,,,,,,,,0,3,3,3,,,AFSA11.jpg,AFNE06.jpg,AFSA03.jpg,AFNE01.jpg,AFSA11.jpg,FS,4,num_8,32,num_6,0.883775985509,,,2017_Jun_29_1657,59.9779540728,MAFE4ImagesEEG,001,100867,
AFNE01.JPG,AFNE01.JPG,AFNE01.JPG,AFNE01.JPG,AFNE01.JPG,AFNE01.JPG,,,,,,,,,,,,,,,,,,,,,0,4,4,1,,,AFSA18.jpg,AFNE04.jpg,AFSA12.jpg,AFNE11.jpg,AFNE04.jpg,FN,3,num_6,32,num_8,0.850039033947,,,2017_Jun_29_1657,59.9779540728,MAFE4ImagesEEG,001,100867,
AFNE01.JPG,AFNE01.JPG,AFNE01.JPG,AFNE01.JPG,AFNE01.JPG,AFNE01.JPG,,,,,,,,,,,,,,,,,,,,,0,5,5,6,,,AFSA11.jpg,AFSA08.jpg,AFNE14.jpg,AFNE02.jpg,AFSA08.jpg,FS,4,num_6,32,num_8,0.700063313911,,,2017_Jun_29_1657,59.9779540728,MAFE4ImagesEEG,001,100867,
AFNE01.JPG,AFNE01.JPG,AFNE01.JPG,AFNE01.JPG,AFNE01.JPG,AFNE01.JPG,,,,,,,,,,,,,,,,,,,,,0,6,6,9,,,AFNE15.jpg,AFSA09.jpg,AFNE20.jpg,AFSA04.jpg,AFSA09.jpg,FS,4,num_6,32,num_8,0.933468749427,,,2017_Jun_29_1657,59.9779540728,MAFE4ImagesEEG,001,100867,
AFNE01.JPG,AFNE01.JPG,AFNE01.JPG,AFNE01.JPG,AFNE01.JPG,AFNE01.JPG,,,,,,,,,,,,,,,,,,,,,0,7,7,7,,,AFNE14.jpg,AFSA07.jpg,AFNE17.jpg,AFSA20.jpg,AFSA07.jpg,FS,4,num_6,16,num_6,0.566352278111,,,2017_Jun_29_1657,59.9779540728,MAFE4ImagesEEG,001,100867,
AFNE01.JPG,AFNE01.JPG,AFNE01.JPG,AFNE01.JPG,AFNE01.JPG,AFNE01.JPG,,,,,,,,,,,,,,,,,,,,,0,8,8,8,,,AFNE10.jpg,AFNE13.jpg,AFSA16.jpg,AFSA13.jpg,AFSA13.jpg,FS,4,num_4,32,num_6,0.633488442807,,,2017_Jun_29_1657,59.9779540728,MAFE4ImagesEEG,001,100867,
AFNE01.JPG,AFNE01.JPG,AFNE01.JPG,AFNE01.JPG,AFNE01.JPG,AFNE01.JPG,,,,,,,,,,,,,,,,,,,,,0,9,9,0,,,AFSA17.jpg,AFSA08.jpg,AFNE04.jpg,AFNE07.jpg,AFSA08.jpg,FS,4,num_6,16,num_6,1.45005641802,,,2017_Jun_29_1657,59.9779540728,MAFE4ImagesEEG,001,100867,
AFNE01.JPG,AFNE01.JPG,AFNE01.JPG,AFNE01.JPG,AFNE01.JPG,AFNE01.JPG,,,,,,,,,,,,,,,,,,,,,1,0,10,7,,,AFSA01.jpg,AFNE12.jpg,AFNE09.jpg,AFSA09.jpg,AFNE12.jpg,FN,3,num_6,16,num_6,0.73384709339,,,2017_Jun_29_1657,59.9779540728,MAFE4ImagesEEG,001,100867,
AFNE01.JPG,AFNE01.JPG,AFNE01.JPG,AFNE01.JPG,AFNE01.JPG,AFNE01.JPG,,,,,,,,,,,,,,,,,,,,,1,1,11,0,,,AFNE05.jpg,AFSA15.jpg,AFNE02.jpg,AFSA03.jpg,AFNE05.jpg,FN,3,num_8,32,num_4,0.750066553388,,,2017_Jun_29_1657,59.9779540728,MAFE4ImagesEEG,001,100867,
AFNE01.JPG,AFNE01.JPG,AFNE01.JPG,AFNE01.JPG,AFNE01.JPG,AFNE01.JPG,,,,,,,,,,,,,,,,,,,,,1,2,12,6,,,AFSA14.jpg,AFSA05.jpg,AFNE16.jpg,AFNE19.jpg,AFSA05.jpg,FS,4,num_6,16,num_6,0.533635597938,,,2017_Jun_29_1657,59.9779540728,MAFE4ImagesEEG,001,100867,
AFNE01.JPG,AFNE01.JPG,AFNE01.JPG,AFNE01.JPG,AFNE01.JPG,AFNE01.JPG,,,,,,,,,,,,,,,,,,,,,1,3,13,3,,,AFNE19.jpg,AFNE01.jpg,AFSA11.jpg,AFSA10.jpg,AFSA10.jpg,FS,4,num_4,16,num_4,0.733568691765,,,2017_Jun_29_1657,59.9779540728,MAFE4ImagesEEG,001,100867,
AFNE01.JPG,AFNE01.JPG,AFNE01.JPG,AFNE01.JPG,AFNE01.JPG,AFNE01.JPG,,,,,,,,,,,,,,,,,,,,,1,4,14,9,,,AFSA18.jpg,AFNE13.jpg,AFNE15.jpg,AFSA06.jpg,AFSA06.jpg,FS,4,num_4,32,num_8,0.703199822427,,,2017_Jun_29_1657,59.9779540728,MAFE4ImagesEEG,001,100867,
AFNE01.JPG,AFNE01.JPG,AFNE01.JPG,AFNE01.JPG,AFNE01.JPG,AFNE01.JPG,,,,,,,,,,,,,,,,,,,,,1,5,15,1,,,AFSA13.jpg,AFNE12.jpg,AFSA04.jpg,AFNE11.jpg,AFNE11.jpg,FN,3,num_4,16,num_4,0.800451472489,,,2017_Jun_29_1657,59.9779540728,MAFE4ImagesEEG,001,100867,
AFNE01.JPG,AFNE01.JPG,AFNE01.JPG,AFNE01.JPG,AFNE01.JPG,AFNE01.JPG,,,,,,,,,,,,,,,,,,,,,1,6,16,8,,,AFNE13.jpg,AFSA18.jpg,AFSA11.jpg,AFNE06.jpg,AFSA11.jpg,FS,4,num_2,32,num_6,0.567196784395,,,2017_Jun_29_1657,59.9779540728,MAFE4ImagesEEG,001,100867,
AFNE01.JPG,AFNE01.JPG,AFNE01.JPG,AFNE01.JPG,AFNE01.JPG,AFNE01.JPG,,,,,,,,,,,,,,,,,,,,,1,7,17,2,,,AFNE10.jpg,AFSA04.jpg,AFSA15.jpg,AFNE18.jpg,AFNE18.jpg,FN,3,num_4,32,num_6,0.833409348532,,,2017_Jun_29_1657,59.9779540728,MAFE4ImagesEEG,001,100867,
AFNE01.JPG,AFNE01.JPG,AFNE01.JPG,AFNE01.JPG,AFNE01.JPG,AFNE01.JPG,,,,,,,,,,,,,,,,,,,,,1,8,18,5,,,AFNE02.jpg,AFSA13.jpg,AFNE11.jpg,AFSA11.jpg,AFNE11.jpg,FN,3,num_2,32,num_4,0.783455502882,,,2017_Jun_29_1657,59.9779540728,MAFE4ImagesEEG,001,100867,
AFNE01.JPG,AFNE01.JPG,AFNE01.JPG,AFNE01.JPG,AFNE01.JPG,AFNE01.JPG,,,,,,,,,,,,,,,,,,,,,1,9,19,4,,,AFNE08.jpg,AFSA02.jpg,AFNE03.jpg,AFSA07.jpg,AFSA07.jpg,FS,4,num_4,16,num_4,0.900442876678,,,2017_Jun_29_1657,59.9779540728,MAFE4ImagesEEG,001,100867,
AFNE01.JPG,AFNE01.JPG,AFNE01.JPG,AFNE01.JPG,AFNE01.JPG,AFNE01.JPG,,,,,,,,,,,,,,,,,,,,,2,0,20,8,,,AFNE14.jpg,AFSA15.jpg,AFNE20.jpg,AFSA14.jpg,AFSA14.jpg,FS,4,num_4,16,num_4,0.666732418176,,,2017_Jun_29_1657,59.9779540728,MAFE4ImagesEEG,001,100867,
AFNE01.JPG,AFNE01.JPG,AFNE01.JPG,AFNE01.JPG,AFNE01.JPG,AFNE01.JPG,,,,,,,,,,,,,,,,,,,,,2,1,21,3,,,AFSA08.jpg,AFSA09.jpg,AFNE18.jpg,AFNE06.jpg,AFNE06.jpg,FN,3,num_4,16,num_4,0.900546796183,,,2017_Jun_29_1657,59.9779540728,MAFE4ImagesEEG,001,100867,
AFNE01.JPG,AFNE01.JPG,AFNE01.JPG,AFNE01.JPG,AFNE01.JPG,AFNE01.JPG,,,,,,,,,,,,,,,,,,,,,2,2,22,9,,,AFSA15.jpg,AFNE07.jpg,AFSA02.jpg,AFNE01.jpg,AFNE01.jpg,FN,3,num_4,16,num_4,0.56715188091,,,2017_Jun_29_1657,59.9779540728,MAFE4ImagesEEG,001,100867,
AFNE01.JPG,AFNE01.JPG,AFNE01.JPG,AFNE01.JPG,AFNE01.JPG,AFNE01.JPG,,,,,,,,,,,,,,,,,,,,,2,3,23,0,,,AFNE18.jpg,AFSA17.jpg,AFNE12.jpg,AFSA18.jpg,AFNE18.jpg,FN,3,num_8,32,num_4,0.850523029367,,,2017_Jun_29_1657,59.9779540728,MAFE4ImagesEEG,001,100867,
AFNE01.JPG,AFNE01.JPG,AFNE01.JPG,AFNE01.JPG,AFNE01.JPG,AFNE01.JPG,,,,,,,,,,,,,,,,,,,,,2,4,24,1,,,AFSA16.jpg,AFNE12.jpg,AFSA04.jpg,AFNE07.jpg,AFNE07.jpg,FN,3,num_4,16,num_4,0.916686071403,,,2017_Jun_29_1657,59.9779540728,MAFE4ImagesEEG,001,100867,
AFNE01.JPG,AFNE01.JPG,AFNE01.JPG,AFNE01.JPG,AFNE01.JPG,AFNE01.JPG,,,,,,,,,,,,,,,,,,,,,2,5,25,6,,,AFSA16.jpg,AFSA07.jpg,AFNE02.jpg,AFNE01.jpg,AFNE02.jpg,FN,3,num_2,32,num_4,0.90011379827,,,2017_Jun_29_1657,59.9779540728,MAFE4ImagesEEG,001,100867,
AFNE01.JPG,AFNE01.JPG,AFNE01.JPG,AFNE01.JPG,AFNE01.JPG,AFNE01.JPG,,,,,,,,,,,,,,,,,,,,,2,6,26,5,,,AFNE19.jpg,AFSA06.jpg,AFNE16.jpg,AFSA18.jpg,AFSA06.jpg,FS,4,num_6,32,num_4,1.35009323887,,,2017_Jun_29_1657,59.9779540728,MAFE4ImagesEEG,001,100867,
AFNE01.JPG,AFNE01.JPG,AFNE01.JPG,AFNE01.JPG,AFNE01.JPG,AFNE01.JPG,,,,,,,,,,,,,,,,,,,,,2,7,27,4,,,AFNE10.jpg,AFSA01.jpg,AFNE09.jpg,AFSA19.jpg,AFNE09.jpg,FN,3,num_2,16,num_2,1.35005507091,,,2017_Jun_29_1657,59.9779540728,MAFE4ImagesEEG,001,100867,
AFNE01.JPG,AFNE01.JPG,AFNE01.JPG,AFNE01.JPG,AFNE01.JPG,AFNE01.JPG,,,,,,,,,,,,,,,,,,,,,2,8,28,7,,,AFNE20.jpg,AFNE05.jpg,AFSA17.jpg,AFSA08.jpg,AFSA17.jpg,FS,4,num_2,32,num_4,1.21710097959,,,2017_Jun_29_1657,59.9779540728,MAFE4ImagesEEG,001,100867,
AFNE01.JPG,AFNE01.JPG,AFNE01.JPG,AFNE01.JPG,AFNE01.JPG,AFNE01.JPG,,,,,,,,,,,,,,,,,,,,,2,9,29,2,,,AFNE18.jpg,AFNE08.jpg,AFSA05.jpg,AFSA15.jpg,AFNE08.jpg,FN,3,num_6,16,num_6,0.899940278381,,,2017_Jun_29_1657,59.9779540728,MAFE4ImagesEEG,001,100867,
AFNE01.JPG,AFNE01.JPG,AFNE01.JPG,AFNE01.JPG,AFNE01.JPG,AFNE01.JPG,,,,,,,,,,,,,,,,,,,,,3,0,30,1,,,AFNE05.jpg,AFNE14.jpg,AFSA20.jpg,AFSA04.jpg,AFNE14.jpg,FN,3,num_6,16,num_6,1.01670794579,,,2017_Jun_29_1657,59.9779540728,MAFE4ImagesEEG,001,100867,
AFNE01.JPG,AFNE01.JPG,AFNE01.JPG,AFNE01.JPG,AFNE01.JPG,AFNE01.JPG,,,,,,,,,,,,,,,,,,,,,3,1,31,2,,,AFNE05.jpg,AFSA04.jpg,AFNE10.jpg,AFSA07.jpg,AFSA04.jpg,FS,4,num_6,32,num_4,1.33372110702,,,2017_Jun_29_1657,59.9779540728,MAFE4ImagesEEG,001,100867,
AFNE01.JPG,AFNE01.JPG,AFNE01.JPG,AFNE01.JPG,AFNE01.JPG,AFNE01.JPG,,,,,,,,,,,,,,,,,,,,,3,2,32,6,,,AFNE18.jpg,AFSA05.jpg,AFNE09.jpg,AFSA01.jpg,AFNE18.jpg,FN,3,num_8,32,num_6,0.783691566961,,,2017_Jun_29_1657,59.9779540728,MAFE4ImagesEEG,001,100867,
AFNE01.JPG,AFNE01.JPG,AFNE01.JPG,AFNE01.JPG,AFNE01.JPG,AFNE01.JPG,,,,,,,,,,,,,,,,,,,,,3,3,33,0,,,AFNE03.jpg,AFNE11.jpg,AFSA03.jpg,AFSA08.jpg,AFNE03.jpg,FN,3,num_8,32,num_6,0.95032583893,,,2017_Jun_29_1657,59.9779540728,MAFE4ImagesEEG,001,100867,
AFNE01.JPG,AFNE01.JPG,AFNE01.JPG,AFNE01.JPG,AFNE01.JPG,AFNE01.JPG,,,,,,,,,,,,,,,,,,,,,3,4,34,4,,,AFNE03.jpg,AFSA03.jpg,AFSA14.jpg,AFNE20.jpg,AFNE20.jpg,FN,3,num_4,16,num_4,1.13342269126,,,2017_Jun_29_1657,59.9779540728,MAFE4ImagesEEG,001,100867,
AFNE01.JPG,AFNE01.JPG,AFNE01.JPG,AFNE01.JPG,AFNE01.JPG,AFNE01.JPG,,,,,,,,,,,,,,,,,,,,,3,5,35,9,,,AFSA12.jpg,AFNE16.jpg,AFNE09.jpg,AFSA17.jpg,AFSA17.jpg,FS,4,num_4,32,num_6,0.64999913401,,,2017_Jun_29_1657,59.9779540728,MAFE4ImagesEEG,001,100867,
AFNE01.JPG,AFNE01.JPG,AFNE01.JPG,AFNE01.JPG,AFNE01.JPG,AFNE01.JPG,,,,,,,,,,,,,,,,,,,,,3,6,36,5,,,AFNE06.jpg,AFSA05.jpg,AFNE03.jpg,AFSA07.jpg,AFSA07.jpg,FS,4,num_4,32,num_6,0.866775846283,,,2017_Jun_29_1657,59.9779540728,MAFE4ImagesEEG,001,100867,
AFNE01.JPG,AFNE01.JPG,AFNE01.JPG,AFNE01.JPG,AFNE01.JPG,AFNE01.JPG,,,,,,,,,,,,,,,,,,,,,3,7,37,8,,,AFNE02.jpg,AFSA08.jpg,AFNE18.jpg,AFSA14.jpg,AFNE18.jpg,FN,3,num_2,32,num_6,0.800469113135,,,2017_Jun_29_1657,59.9779540728,MAFE4ImagesEEG,001,100867,
AFNE01.JPG,AFNE01.JPG,AFNE01.JPG,AFNE01.JPG,AFNE01.JPG,AFNE01.JPG,,,,,,,,,,,,,,,,,,,,,3,8,38,3,,,AFNE04.jpg,AFSA19.jpg,AFSA02.jpg,AFNE13.jpg,AFSA19.jpg,FS,4,num_6,32,num_8,1.36676975223,,,2017_Jun_29_1657,59.9779540728,MAFE4ImagesEEG,001,100867,
