IPosition2,IPosition3,IPosition1,IPosition6,IPosition4,IPosition5,TrialsF1.thisRepN,TrialsF1.thisTrialN,TrialsF1.thisN,TrialsF1.thisIndex,TrialsM1.thisRepN,TrialsM1.thisTrialN,TrialsM1.thisN,TrialsM1.thisIndex,TrialsF2.thisRepN,TrialsF2.thisTrialN,TrialsF2.thisN,TrialsF2.thisIndex,TrialsM2.thisRepN,TrialsM2.thisTrialN,TrialsM2.thisN,TrialsM2.thisIndex,TrialsF3.thisRepN,TrialsF3.thisTrialN,TrialsF3.thisN,TrialsF3.thisIndex,TrialsM3.thisRepN,TrialsM3.thisTrialN,TrialsM3.thisN,TrialsM3.thisIndex,InstrKey_resp.keys,InstrKey_resp.rt,Image0 _Position,Image1 _Position,Image2 _Position,Image3 _Position,Center_image,condition,code,correct_answer,accuracy,Key_Resp.keys,Key_Resp.rt,BreakKey_resp.keys,BreakKey_resp.rt,date,frameRate,expName,session,participant,
,,,,,,,,,,,,,,,,,,,,,,,,,,,,,,space,22.5321213882,,,,,,,,,,,,,,2017_Jun_30_1644,60.0013856165,FEMA4ImagesEEG,001,100853,
AMSA21.JPG,AMNE23.JPG,AMNE21.JPG,AMSA25.JPG,AMNE25.JPG,AMSA23.JPG,0,0,0,5,,,,,,,,,,,,,,,,,,,,,,,AFNE13.jpg,AFNE03.jpg,AFSA07.jpg,AFSA06.jpg,AFSA07.jpg,FS,4,num_2,48,None,,,,2017_Jun_30_1644,60.0013856165,FEMA4ImagesEEG,001,100853,
AFNE22.JPG,AFSA24.JPG,AFSA22.JPG,AFNE25.JPG,AFNE24.JPG,AFSA25.JPG,0,1,1,6,,,,,,,,,,,,,,,,,,,,,,,AFNE14.jpg,AFSA14.jpg,AFNE12.jpg,AFSA08.jpg,AFNE12.jpg,FN,3,num_2,48,None,,,,2017_Jun_30_1644,60.0013856165,FEMA4ImagesEEG,001,100853,
AFNE23.JPG,AFNE24.JPG,AFNE22.JPG,AFSA24.JPG,AFSA22.JPG,AFSA23.JPG,0,2,2,8,,,,,,,,,,,,,,,,,,,,,,,AFNE12.jpg,AFNE10.jpg,AFSA04.jpg,AFSA01.jpg,AFSA04.jpg,FS,4,num_2,48,None,,,,2017_Jun_30_1644,60.0013856165,FEMA4ImagesEEG,001,100853,
AMNE23.JPG,AMNE24.JPG,AMNE22.JPG,AMSA24.JPG,AMSA22.JPG,AMSA23.JPG,0,3,3,9,,,,,,,,,,,,,,,,,,,,,,,AFSA10.jpg,AFNE07.jpg,AFSA15.jpg,AFNE03.jpg,AFSA15.jpg,FS,4,num_2,48,None,,,,2017_Jun_30_1644,60.0013856165,FEMA4ImagesEEG,001,100853,
AMSA25.JPG,AMNE24.JPG,AMSA24.JPG,AMNE26.JPG,AMSA21.JPG,AMNE25.JPG,0,4,4,3,,,,,,,,,,,,,,,,,,,,,,,AFNE15.jpg,AFSA01.jpg,AFSA05.jpg,AFNE16.jpg,AFNE16.jpg,FN,3,num_4,48,None,,,,2017_Jun_30_1644,60.0013856165,FEMA4ImagesEEG,001,100853,
AFSA21.JPG,AFNE23.JPG,AFNE21.JPG,AFSA25.JPG,AFNE25.JPG,AFSA23.JPG,0,5,5,4,,,,,,,,,,,,,,,,,,,,,,,AFSA16.jpg,AFSA11.jpg,AFNE20.jpg,AFNE15.jpg,AFSA11.jpg,FS,4,num_6,48,None,,,,2017_Jun_30_1644,60.0013856165,FEMA4ImagesEEG,001,100853,
AMNE22.JPG,AMSA24.JPG,AMSA22.JPG,AMNE25.JPG,AMNE24.JPG,AMSA25.JPG,0,6,6,7,,,,,,,,,,,,,,,,,,,,,,,AFNE01.jpg,AFSA15.jpg,AFNE03.jpg,AFSA17.jpg,AFNE03.jpg,FN,3,num_2,48,None,,,,2017_Jun_30_1644,60.0013856165,FEMA4ImagesEEG,001,100853,
AMSA21.JPG,AMNE22.JPG,AMNE21.JPG,AMSA23.JPG,AMSA22.JPG,AMNE23.JPG,0,7,7,1,,,,,,,,,,,,,,,,,,,,,,,AFNE18.jpg,AFSA02.jpg,AFNE04.jpg,AFSA01.jpg,AFSA01.jpg,FS,4,num_4,48,None,,,,2017_Jun_30_1644,60.0013856165,FEMA4ImagesEEG,001,100853,
AFSA21.JPG,AFNE22.JPG,AFNE21.JPG,AFSA23.JPG,AFSA22.JPG,AFNE23.JPG,0,8,8,0,,,,,,,,,,,,,,,,,,,,,,,AFNE06.jpg,AFSA14.jpg,AFSA01.jpg,AFNE03.jpg,AFNE06.jpg,FN,3,num_8,48,None,,,,2017_Jun_30_1644,60.0013856165,FEMA4ImagesEEG,001,100853,
AFSA25.JPG,AFNE24.JPG,AFSA24.JPG,AFNE21.JPG,AFSA21.JPG,AFNE25.JPG,0,9,9,2,,,,,,,,,,,,,,,,,,,,,,,AFNE01.jpg,AFSA16.jpg,AFNE04.jpg,AFSA08.jpg,AFNE04.jpg,FN,3,num_2,48,None,,,,2017_Jun_30_1644,60.0013856165,FEMA4ImagesEEG,001,100853,
AFSA21.JPG,AFNE22.JPG,AFNE21.JPG,AFSA23.JPG,AFSA22.JPG,AFNE23.JPG,,,,,0,0,0,0,,,,,,,,,,,,,,,,,,,AMSA14.jpg,AMNE08.jpg,AMSA03.jpg,AMNE05.jpg,AMSA03.jpg,MS,2,num_2,16,num_2,1.23342820804,,,2017_Jun_30_1644,60.0013856165,FEMA4ImagesEEG,001,100853,
AMSA21.JPG,AMNE22.JPG,AMNE21.JPG,AMSA23.JPG,AMSA22.JPG,AMNE23.JPG,,,,,0,1,1,1,,,,,,,,,,,,,,,,,,,AMSA08.jpg,AMSA20.jpg,AMNE10.jpg,AMNE17.jpg,AMSA20.jpg,MS,2,num_6,16,num_6,1.23344199976,,,2017_Jun_30_1644,60.0013856165,FEMA4ImagesEEG,001,100853,
AFNE23.JPG,AFNE24.JPG,AFNE22.JPG,AFSA24.JPG,AFSA22.JPG,AFSA23.JPG,,,,,0,2,2,8,,,,,,,,,,,,,,,,,,,AMSA05.jpg,AMSA18.jpg,AMNE02.jpg,AMNE17.jpg,AMSA05.jpg,MS,2,num_8,16,num_8,1.21674495912,,,2017_Jun_30_1644,60.0013856165,FEMA4ImagesEEG,001,100853,
AFSA25.JPG,AFNE24.JPG,AFSA24.JPG,AFNE21.JPG,AFSA21.JPG,AFNE25.JPG,,,,,0,3,3,2,,,,,,,,,,,,,,,,,,,AMSA10.jpg,AMSA16.jpg,AMNE15.jpg,AMNE17.jpg,AMSA10.jpg,MS,2,num_8,32,num_6,0.850148085272,,,2017_Jun_30_1644,60.0013856165,FEMA4ImagesEEG,001,100853,
AMSA21.JPG,AMNE23.JPG,AMNE21.JPG,AMSA25.JPG,AMNE25.JPG,AMSA23.JPG,,,,,0,4,4,5,,,,,,,,,,,,,,,,,,,AMNE16.jpg,AMSA05.jpg,AMSA16.jpg,AMNE17.jpg,AMNE17.jpg,MN,1,num_4,16,num_4,1.71664809587,,,2017_Jun_30_1644,60.0013856165,FEMA4ImagesEEG,001,100853,
AMNE23.JPG,AMNE24.JPG,AMNE22.JPG,AMSA24.JPG,AMSA22.JPG,AMSA23.JPG,,,,,0,5,5,9,,,,,,,,,,,,,,,,,,,AMNE03.jpg,AMNE02.jpg,AMSA06.jpg,AMSA03.jpg,AMNE03.jpg,MN,1,num_8,32,num_4,3.39993033546,,,2017_Jun_30_1644,60.0013856165,FEMA4ImagesEEG,001,100853,
AMSA25.JPG,AMNE24.JPG,AMSA24.JPG,AMNE26.JPG,AMSA21.JPG,AMNE25.JPG,,,,,0,6,6,3,,,,,,,,,,,,,,,,,,,AMNE03.jpg,AMSA08.jpg,AMNE13.jpg,AMSA01.jpg,AMSA01.jpg,MS,2,num_4,16,num_4,0.966858019645,,,2017_Jun_30_1644,60.0013856165,FEMA4ImagesEEG,001,100853,
AFSA21.JPG,AFNE23.JPG,AFNE21.JPG,AFSA25.JPG,AFNE25.JPG,AFSA23.JPG,,,,,0,7,7,4,,,,,,,,,,,,,,,,,,,AMSA15.jpg,AMNE12.jpg,AMNE01.jpg,AMSA02.jpg,AMSA15.jpg,MS,2,num_8,32,num_6,1.35007976781,,,2017_Jun_30_1644,60.0013856165,FEMA4ImagesEEG,001,100853,
AMNE22.JPG,AMSA24.JPG,AMSA22.JPG,AMNE25.JPG,AMNE24.JPG,AMSA25.JPG,,,,,0,8,8,7,,,,,,,,,,,,,,,,,,,AMNE08.jpg,AMSA16.jpg,AMSA14.jpg,AMNE03.jpg,AMNE03.jpg,MN,1,num_4,16,num_4,1.08342041407,,,2017_Jun_30_1644,60.0013856165,FEMA4ImagesEEG,001,100853,
AFNE22.JPG,AFSA24.JPG,AFSA22.JPG,AFNE25.JPG,AFNE24.JPG,AFSA25.JPG,,,,,0,9,9,6,,,,,,,,,,,,,,,,,,,AMNE05.jpg,AMNE10.jpg,AMSA04.jpg,AMSA15.jpg,AMSA15.jpg,MS,2,num_4,16,num_4,1.35008778627,,,2017_Jun_30_1644,60.0013856165,FEMA4ImagesEEG,001,100853,
AMNE22.JPG,AMSA24.JPG,AMSA22.JPG,AMNE25.JPG,AMNE24.JPG,AMSA25.JPG,,,,,,,,,0,0,0,7,,,,,,,,,,,,,,,AFSA04.jpg,AFNE06.jpg,AFNE01.jpg,AFSA09.jpg,AFNE06.jpg,FN,3,num_6,32,num_2,0.916783576075,,,2017_Jun_30_1644,60.0013856165,FEMA4ImagesEEG,001,100853,
AFSA25.JPG,AFNE24.JPG,AFSA24.JPG,AFNE21.JPG,AFSA21.JPG,AFNE25.JPG,,,,,,,,,0,1,1,2,,,,,,,,,,,,,,,AFNE10.jpg,AFSA14.jpg,AFSA07.jpg,AFNE13.jpg,AFNE13.jpg,FN,3,num_4,32,num_6,1.21673148806,,,2017_Jun_30_1644,60.0013856165,FEMA4ImagesEEG,001,100853,
AFSA21.JPG,AFNE23.JPG,AFNE21.JPG,AFSA25.JPG,AFNE25.JPG,AFSA23.JPG,,,,,,,,,0,2,2,4,,,,,,,,,,,,,,,AFNE19.jpg,AFNE20.jpg,AFSA17.jpg,AFSA07.jpg,AFSA17.jpg,FS,4,num_2,32,num_4,0.916809555958,,,2017_Jun_30_1644,60.0013856165,FEMA4ImagesEEG,001,100853,
AMSA21.JPG,AMNE22.JPG,AMNE21.JPG,AMSA23.JPG,AMSA22.JPG,AMNE23.JPG,,,,,,,,,0,3,3,1,,,,,,,,,,,,,,,AFNE09.jpg,AFSA02.jpg,AFNE03.jpg,AFSA11.jpg,AFNE03.jpg,FN,3,num_2,16,num_2,1.08344799763,,,2017_Jun_30_1644,60.0013856165,FEMA4ImagesEEG,001,100853,
AFNE23.JPG,AFNE24.JPG,AFNE22.JPG,AFSA24.JPG,AFSA22.JPG,AFSA23.JPG,,,,,,,,,0,4,4,8,,,,,,,,,,,,,,,AFNE10.jpg,AFSA15.jpg,AFSA20.jpg,AFNE13.jpg,AFNE10.jpg,FN,3,num_8,32,num_6,0.933459447988,,,2017_Jun_30_1644,60.0013856165,FEMA4ImagesEEG,001,100853,
AFSA21.JPG,AFNE22.JPG,AFNE21.JPG,AFSA23.JPG,AFSA22.JPG,AFNE23.JPG,,,,,,,,,0,5,5,0,,,,,,,,,,,,,,,AFNE07.jpg,AFSA16.jpg,AFSA14.jpg,AFNE11.jpg,AFSA16.jpg,FS,4,num_6,32,num_2,1.31675111729,,,2017_Jun_30_1644,60.0013856165,FEMA4ImagesEEG,001,100853,
AFNE22.JPG,AFSA24.JPG,AFSA22.JPG,AFNE25.JPG,AFNE24.JPG,AFSA25.JPG,,,,,,,,,0,6,6,6,,,,,,,,,,,,,,,AFNE14.jpg,AFNE08.jpg,AFSA17.jpg,AFSA04.jpg,AFSA17.jpg,FS,4,num_2,16,num_2,0.683482701541,,,2017_Jun_30_1644,60.0013856165,FEMA4ImagesEEG,001,100853,
AMNE23.JPG,AMNE24.JPG,AMNE22.JPG,AMSA24.JPG,AMSA22.JPG,AMSA23.JPG,,,,,,,,,0,7,7,9,,,,,,,,,,,,,,,AFNE05.jpg,AFSA01.jpg,AFSA19.jpg,AFNE14.jpg,AFSA19.jpg,FS,4,num_2,32,num_4,1.00009878771,,,2017_Jun_30_1644,60.0013856165,FEMA4ImagesEEG,001,100853,
AMSA21.JPG,AMNE23.JPG,AMNE21.JPG,AMSA25.JPG,AMNE25.JPG,AMSA23.JPG,,,,,,,,,0,8,8,5,,,,,,,,,,,,,,,AFNE11.jpg,AFSA15.jpg,AFNE02.jpg,AFSA13.jpg,AFSA15.jpg,FS,4,num_6,16,num_6,1.53309066209,,,2017_Jun_30_1644,60.0013856165,FEMA4ImagesEEG,001,100853,
AMSA25.JPG,AMNE24.JPG,AMSA24.JPG,AMNE26.JPG,AMSA21.JPG,AMNE25.JPG,,,,,,,,,0,9,9,3,,,,,,,,,,,,,,,AFSA16.jpg,AFSA17.jpg,AFNE06.jpg,AFNE04.jpg,AFNE06.jpg,FN,3,num_2,32,num_4,0.833450403123,,,2017_Jun_30_1644,60.0013856165,FEMA4ImagesEEG,001,100853,
AFNE23.JPG,AFNE24.JPG,AFNE22.JPG,AFSA24.JPG,AFSA22.JPG,AFSA23.JPG,,,,,,,,,,,,,0,0,0,8,,,,,,,,,,,AMSA07.jpg,AMNE11.jpg,AMNE06.jpg,AMSA15.jpg,AMSA15.jpg,MS,2,num_4,16,num_4,0.800111809687,,,2017_Jun_30_1644,60.0013856165,FEMA4ImagesEEG,001,100853,
AFSA21.JPG,AFNE22.JPG,AFNE21.JPG,AFSA23.JPG,AFSA22.JPG,AFNE23.JPG,,,,,,,,,,,,,0,1,1,0,,,,,,,,,,,AMNE14.jpg,AMSA18.jpg,AMNE17.jpg,AMSA08.jpg,AMSA08.jpg,MS,2,num_4,32,num_8,0.866387431102,,,2017_Jun_30_1644,60.0013856165,FEMA4ImagesEEG,001,100853,
AFSA25.JPG,AFNE24.JPG,AFSA24.JPG,AFNE21.JPG,AFSA21.JPG,AFNE25.JPG,,,,,,,,,,,,,0,2,2,2,,,,,,,,,,,AMSA13.jpg,AMNE05.jpg,AMNE20.jpg,AMSA17.jpg,AMSA13.jpg,MS,2,num_8,32,num_4,0.900114118995,,,2017_Jun_30_1644,60.0013856165,FEMA4ImagesEEG,001,100853,
AMNE22.JPG,AMSA24.JPG,AMSA22.JPG,AMNE25.JPG,AMNE24.JPG,AMSA25.JPG,,,,,,,,,,,,,0,3,3,7,,,,,,,,,,,AMNE11.jpg,AMNE03.jpg,AMSA07.jpg,AMSA16.jpg,AMNE11.jpg,MN,1,num_8,16,num_8,1.15007771511,,,2017_Jun_30_1644,60.0013856165,FEMA4ImagesEEG,001,100853,
AMNE23.JPG,AMNE24.JPG,AMNE22.JPG,AMSA24.JPG,AMSA22.JPG,AMSA23.JPG,,,,,,,,,,,,,0,4,4,9,,,,,,,,,,,AMNE02.jpg,AMNE10.jpg,AMSA09.jpg,AMSA14.jpg,AMSA14.jpg,MS,2,num_4,16,num_4,0.750150907785,,,2017_Jun_30_1644,60.0013856165,FEMA4ImagesEEG,001,100853,
AFNE22.JPG,AFSA24.JPG,AFSA22.JPG,AFNE25.JPG,AFNE24.JPG,AFSA25.JPG,,,,,,,,,,,,,0,5,5,6,,,,,,,,,,,AMNE20.jpg,AMSA08.jpg,AMNE03.jpg,AMSA10.jpg,AMNE03.jpg,MN,1,num_2,32,num_6,1.16675839812,,,2017_Jun_30_1644,60.0013856165,FEMA4ImagesEEG,001,100853,
AMSA25.JPG,AMNE24.JPG,AMSA24.JPG,AMNE26.JPG,AMSA21.JPG,AMNE25.JPG,,,,,,,,,,,,,0,6,6,3,,,,,,,,,,,AMSA16.jpg,AMNE11.jpg,AMSA09.jpg,AMNE19.jpg,AMNE19.jpg,MN,1,num_4,32,num_2,0.866819146089,,,2017_Jun_30_1644,60.0013856165,FEMA4ImagesEEG,001,100853,
AMSA21.JPG,AMNE23.JPG,AMNE21.JPG,AMSA25.JPG,AMNE25.JPG,AMSA23.JPG,,,,,,,,,,,,,0,7,7,5,,,,,,,,,,,AMNE11.jpg,AMSA04.jpg,AMNE13.jpg,AMSA11.jpg,AMNE11.jpg,MN,1,num_8,32,num_2,1.10001995001,,,2017_Jun_30_1644,60.0013856165,FEMA4ImagesEEG,001,100853,
AFSA21.JPG,AFNE23.JPG,AFNE21.JPG,AFSA25.JPG,AFNE25.JPG,AFSA23.JPG,,,,,,,,,,,,,0,8,8,4,,,,,,,,,,,AMNE09.jpg,AMSA13.jpg,AMNE15.jpg,AMSA15.jpg,AMNE09.jpg,MN,1,num_8,16,num_8,1.31673892925,,,2017_Jun_30_1644,60.0013856165,FEMA4ImagesEEG,001,100853,
AMSA21.JPG,AMNE22.JPG,AMNE21.JPG,AMSA23.JPG,AMSA22.JPG,AMNE23.JPG,,,,,,,,,,,,,0,9,9,1,,,,,,,,,,,AMNE02.jpg,AMNE12.jpg,AMSA14.jpg,AMSA06.jpg,AMSA06.jpg,MS,2,num_4,32,num_6,1.19978298788,,,2017_Jun_30_1644,60.0013856165,FEMA4ImagesEEG,001,100853,
AMSA21.JPG,AMNE22.JPG,AMNE21.JPG,AMSA23.JPG,AMSA22.JPG,AMNE23.JPG,,,,,,,,,,,,,,,,,0,0,0,1,,,,,,,AFNE06.jpg,AFSA04.jpg,AFNE18.jpg,AFSA20.jpg,AFNE06.jpg,FN,3,num_8,32,num_6,1.53343000408,,,2017_Jun_30_1644,60.0013856165,FEMA4ImagesEEG,001,100853,
AFSA25.JPG,AFNE24.JPG,AFSA24.JPG,AFNE21.JPG,AFSA21.JPG,AFNE25.JPG,,,,,,,,,,,,,,,,,0,1,1,2,,,,,,,AFSA03.jpg,AFSA04.jpg,AFNE08.jpg,AFNE01.jpg,AFSA04.jpg,FS,4,num_6,16,num_6,0.833461628994,,,2017_Jun_30_1644,60.0013856165,FEMA4ImagesEEG,001,100853,
AMNE23.JPG,AMNE24.JPG,AMNE22.JPG,AMSA24.JPG,AMSA22.JPG,AMSA23.JPG,,,,,,,,,,,,,,,,,0,2,2,9,,,,,,,AFNE13.jpg,AFSA15.jpg,AFNE07.jpg,AFSA18.jpg,AFSA15.jpg,FS,4,num_6,32,num_8,0.933441807341,,,2017_Jun_30_1644,60.0013856165,FEMA4ImagesEEG,001,100853,
AMSA25.JPG,AMNE24.JPG,AMSA24.JPG,AMNE26.JPG,AMSA21.JPG,AMNE25.JPG,,,,,,,,,,,,,,,,,0,3,3,3,,,,,,,AFSA14.jpg,AFSA03.jpg,AFNE20.jpg,AFNE05.jpg,AFSA14.jpg,FS,4,num_8,16,num_8,0.866777129238,,,2017_Jun_30_1644,60.0013856165,FEMA4ImagesEEG,001,100853,
AFNE22.JPG,AFSA24.JPG,AFSA22.JPG,AFNE25.JPG,AFNE24.JPG,AFSA25.JPG,,,,,,,,,,,,,,,,,0,4,4,6,,,,,,,AFNE15.jpg,AFSA14.jpg,AFNE13.jpg,AFSA08.jpg,AFNE15.jpg,FN,3,num_8,32,num_6,0.90011027013,,,2017_Jun_30_1644,60.0013856165,FEMA4ImagesEEG,001,100853,
AFSA21.JPG,AFNE22.JPG,AFNE21.JPG,AFSA23.JPG,AFSA22.JPG,AFNE23.JPG,,,,,,,,,,,,,,,,,0,5,5,0,,,,,,,AFNE01.jpg,AFSA08.jpg,AFSA06.jpg,AFNE16.jpg,AFSA06.jpg,FS,4,num_2,16,num_2,1.01665053348,,,2017_Jun_30_1644,60.0013856165,FEMA4ImagesEEG,001,100853,
AFSA21.JPG,AFNE23.JPG,AFNE21.JPG,AFSA25.JPG,AFNE25.JPG,AFSA23.JPG,,,,,,,,,,,,,,,,,0,6,6,4,,,,,,,AFNE18.jpg,AFSA11.jpg,AFNE07.jpg,AFSA14.jpg,AFSA11.jpg,FS,4,num_6,16,num_6,0.750118192402,,,2017_Jun_30_1644,60.0013856165,FEMA4ImagesEEG,001,100853,
AFNE23.JPG,AFNE24.JPG,AFNE22.JPG,AFSA24.JPG,AFSA22.JPG,AFSA23.JPG,,,,,,,,,,,,,,,,,0,7,7,8,,,,,,,AFSA07.jpg,AFNE06.jpg,AFSA19.jpg,AFNE19.jpg,AFNE06.jpg,FN,3,num_6,32,num_8,0.950104528863,,,2017_Jun_30_1644,60.0013856165,FEMA4ImagesEEG,001,100853,
AMNE22.JPG,AMSA24.JPG,AMSA22.JPG,AMNE25.JPG,AMNE24.JPG,AMSA25.JPG,,,,,,,,,,,,,,,,,0,8,8,7,,,,,,,AFNE11.jpg,AFSA15.jpg,AFNE05.jpg,AFSA04.jpg,AFNE11.jpg,FN,3,num_8,32,num_2,1.13344193558,,,2017_Jun_30_1644,60.0013856165,FEMA4ImagesEEG,001,100853,
AMSA21.JPG,AMNE23.JPG,AMNE21.JPG,AMSA25.JPG,AMNE25.JPG,AMSA23.JPG,,,,,,,,,,,,,,,,,0,9,9,5,,,,,,,AFNE11.jpg,AFSA01.jpg,AFNE02.jpg,AFSA18.jpg,AFSA18.jpg,FS,4,num_4,32,num_6,1.11677985557,,,2017_Jun_30_1644,60.0013856165,FEMA4ImagesEEG,001,100853,
AFSA25.JPG,AFNE24.JPG,AFSA24.JPG,AFNE21.JPG,AFSA21.JPG,AFNE25.JPG,,,,,,,,,,,,,,,,,,,,,0,0,0,2,,,AMNE14.jpg,AMSA03.jpg,AMNE07.jpg,AMSA17.jpg,AMSA17.jpg,MS,2,num_4,32,num_6,0.899906279985,,,2017_Jun_30_1644,60.0013856165,FEMA4ImagesEEG,001,100853,
AMNE23.JPG,AMNE24.JPG,AMNE22.JPG,AMSA24.JPG,AMSA22.JPG,AMSA23.JPG,,,,,,,,,,,,,,,,,,,,,0,1,1,9,,,AMNE19.jpg,AMNE03.jpg,AMSA19.jpg,AMSA06.jpg,AMNE03.jpg,MN,1,num_6,16,num_6,0.733473432192,,,2017_Jun_30_1644,60.0013856165,FEMA4ImagesEEG,001,100853,
AMSA25.JPG,AMNE24.JPG,AMSA24.JPG,AMNE26.JPG,AMSA21.JPG,AMNE25.JPG,,,,,,,,,,,,,,,,,,,,,0,2,2,3,,,AMSA02.jpg,AMNE07.jpg,AMSA08.jpg,AMNE05.jpg,AMSA08.jpg,MS,2,num_2,32,num_4,0.800074603932,,,2017_Jun_30_1644,60.0013856165,FEMA4ImagesEEG,001,100853,
AFNE23.JPG,AFNE24.JPG,AFNE22.JPG,AFSA24.JPG,AFSA22.JPG,AFSA23.JPG,,,,,,,,,,,,,,,,,,,,,0,3,3,8,,,AMNE20.jpg,AMNE08.jpg,AMSA13.jpg,AMSA15.jpg,AMSA13.jpg,MS,2,num_2,32,num_6,0.416808273061,,,2017_Jun_30_1644,60.0013856165,FEMA4ImagesEEG,001,100853,
AMSA21.JPG,AMNE22.JPG,AMNE21.JPG,AMSA23.JPG,AMSA22.JPG,AMNE23.JPG,,,,,,,,,,,,,,,,,,,,,0,4,4,1,,,AMNE08.jpg,AMNE03.jpg,AMSA20.jpg,AMSA07.jpg,AMSA20.jpg,MS,2,num_2,32,num_6,0.733457716007,,,2017_Jun_30_1644,60.0013856165,FEMA4ImagesEEG,001,100853,
AFNE22.JPG,AFSA24.JPG,AFSA22.JPG,AFNE25.JPG,AFNE24.JPG,AFSA25.JPG,,,,,,,,,,,,,,,,,,,,,0,5,5,6,,,AMSA03.jpg,AMNE19.jpg,AMSA17.jpg,AMNE06.jpg,AMSA03.jpg,MS,2,num_8,32,num_4,0.616788836254,,,2017_Jun_30_1644,60.0013856165,FEMA4ImagesEEG,001,100853,
AFSA21.JPG,AFNE22.JPG,AFNE21.JPG,AFSA23.JPG,AFSA22.JPG,AFNE23.JPG,,,,,,,,,,,,,,,,,,,,,0,6,6,0,,,AMSA10.jpg,AMNE18.jpg,AMNE06.jpg,AMSA04.jpg,AMNE06.jpg,MN,1,num_2,32,num_6,0.700524216169,,,2017_Jun_30_1644,60.0013856165,FEMA4ImagesEEG,001,100853,
AMSA21.JPG,AMNE23.JPG,AMNE21.JPG,AMSA25.JPG,AMNE25.JPG,AMSA23.JPG,,,,,,,,,,,,,,,,,,,,,0,7,7,5,,,AMNE14.jpg,AMSA03.jpg,AMSA11.jpg,AMNE03.jpg,AMNE14.jpg,MN,1,num_8,16,num_8,0.683484946727,,,2017_Jun_30_1644,60.0013856165,FEMA4ImagesEEG,001,100853,
AFSA21.JPG,AFNE23.JPG,AFNE21.JPG,AFSA25.JPG,AFNE25.JPG,AFSA23.JPG,,,,,,,,,,,,,,,,,,,,,0,8,8,4,,,AMNE19.jpg,AMSA03.jpg,AMNE02.jpg,AMSA04.jpg,AMNE02.jpg,MN,1,num_2,32,num_8,0.733488506929,,,2017_Jun_30_1644,60.0013856165,FEMA4ImagesEEG,001,100853,
AMNE22.JPG,AMSA24.JPG,AMSA22.JPG,AMNE25.JPG,AMNE24.JPG,AMSA25.JPG,,,,,,,,,,,,,,,,,,,,,0,9,9,7,,,AMSA15.jpg,AMNE03.jpg,AMNE14.jpg,AMSA03.jpg,AMNE03.jpg,MN,1,num_6,32,num_4,1.21672731842,,,2017_Jun_30_1644,60.0013856165,FEMA4ImagesEEG,001,100853,
,,,,,,,,,,,,,,,,,,,,,,,,,,,,,,,,,,,,,,,,,,,space,5.38302064466,2017_Jun_30_1644,60.0013856165,FEMA4ImagesEEG,001,100853,
AFNE01.JPG,AFNE01.JPG,AFNE01.JPG,AFNE01.JPG,AFNE01.JPG,AFNE01.JPG,0,0,0,8,,,,,,,,,,,,,,,,,,,,,,,AFSA07.jpg,AFSA08.jpg,AFNE02.jpg,AFNE14.jpg,AFNE02.jpg,FN,3,num_2,32,num_8,0.883425417531,,,2017_Jun_30_1644,60.0013856165,FEMA4ImagesEEG,001,100853,
AFNE01.JPG,AFNE01.JPG,AFNE01.JPG,AFNE01.JPG,AFNE01.JPG,AFNE01.JPG,0,1,1,5,,,,,,,,,,,,,,,,,,,,,,,AFSA12.jpg,AFSA19.jpg,AFNE05.jpg,AFNE04.jpg,AFSA12.jpg,FS,4,num_8,16,num_8,0.883470321016,,,2017_Jun_30_1644,60.0013856165,FEMA4ImagesEEG,001,100853,
AFNE01.JPG,AFNE01.JPG,AFNE01.JPG,AFNE01.JPG,AFNE01.JPG,AFNE01.JPG,0,2,2,9,,,,,,,,,,,,,,,,,,,,,,,AFNE19.jpg,AFSA08.jpg,AFSA07.jpg,AFNE10.jpg,AFNE10.jpg,FN,3,num_4,32,num_8,0.933419034875,,,2017_Jun_30_1644,60.0013856165,FEMA4ImagesEEG,001,100853,
AFNE01.JPG,AFNE01.JPG,AFNE01.JPG,AFNE01.JPG,AFNE01.JPG,AFNE01.JPG,0,3,3,1,,,,,,,,,,,,,,,,,,,,,,,AFNE20.jpg,AFNE01.jpg,AFSA02.jpg,AFSA11.jpg,AFSA11.jpg,FS,4,num_4,16,num_4,1.01683271339,,,2017_Jun_30_1644,60.0013856165,FEMA4ImagesEEG,001,100853,
AFNE01.JPG,AFNE01.JPG,AFNE01.JPG,AFNE01.JPG,AFNE01.JPG,AFNE01.JPG,0,4,4,6,,,,,,,,,,,,,,,,,,,,,,,AFNE01.jpg,AFNE05.jpg,AFSA05.jpg,AFSA01.jpg,AFNE01.jpg,FN,3,num_8,32,num_2,1.15011171345,,,2017_Jun_30_1644,60.0013856165,FEMA4ImagesEEG,001,100853,
AFNE01.JPG,AFNE01.JPG,AFNE01.JPG,AFNE01.JPG,AFNE01.JPG,AFNE01.JPG,0,5,5,7,,,,,,,,,,,,,,,,,,,,,,,AFSA11.jpg,AFNE19.jpg,AFSA14.jpg,AFNE01.jpg,AFNE01.jpg,FN,3,num_4,32,num_8,0.966594692785,,,2017_Jun_30_1644,60.0013856165,FEMA4ImagesEEG,001,100853,
AFNE01.JPG,AFNE01.JPG,AFNE01.JPG,AFNE01.JPG,AFNE01.JPG,AFNE01.JPG,0,6,6,4,,,,,,,,,,,,,,,,,,,,,,,AFSA18.jpg,AFSA07.jpg,AFNE17.jpg,AFNE19.jpg,AFSA07.jpg,FS,4,num_6,32,num_4,1.00013503124,,,2017_Jun_30_1644,60.0013856165,FEMA4ImagesEEG,001,100853,
AFNE01.JPG,AFNE01.JPG,AFNE01.JPG,AFNE01.JPG,AFNE01.JPG,AFNE01.JPG,0,7,7,0,,,,,,,,,,,,,,,,,,,,,,,AFNE16.jpg,AFSA20.jpg,AFSA18.jpg,AFNE10.jpg,AFNE16.jpg,FN,3,num_8,16,num_8,0.733418585791,,,2017_Jun_30_1644,60.0013856165,FEMA4ImagesEEG,001,100853,
AFNE01.JPG,AFNE01.JPG,AFNE01.JPG,AFNE01.JPG,AFNE01.JPG,AFNE01.JPG,0,8,8,3,,,,,,,,,,,,,,,,,,,,,,,AFSA20.jpg,AFNE06.jpg,AFSA01.jpg,AFNE14.jpg,AFNE14.jpg,FN,3,num_4,32,num_8,0.683420478192,,,2017_Jun_30_1644,60.0013856165,FEMA4ImagesEEG,001,100853,
AFNE01.JPG,AFNE01.JPG,AFNE01.JPG,AFNE01.JPG,AFNE01.JPG,AFNE01.JPG,0,9,9,2,,,,,,,,,,,,,,,,,,,,,,,AFNE05.jpg,AFSA04.jpg,AFNE09.jpg,AFSA19.jpg,AFNE09.jpg,FN,3,num_2,32,num_8,1.73336309794,,,2017_Jun_30_1644,60.0013856165,FEMA4ImagesEEG,001,100853,
AFNE01.JPG,AFNE01.JPG,AFNE01.JPG,AFNE01.JPG,AFNE01.JPG,AFNE01.JPG,1,0,10,4,,,,,,,,,,,,,,,,,,,,,,,AFNE01.jpg,AFSA11.jpg,AFSA19.jpg,AFNE11.jpg,AFNE11.jpg,FN,3,num_4,16,num_4,1.03350120824,,,2017_Jun_30_1644,60.0013856165,FEMA4ImagesEEG,001,100853,
AFNE01.JPG,AFNE01.JPG,AFNE01.JPG,AFNE01.JPG,AFNE01.JPG,AFNE01.JPG,1,1,11,6,,,,,,,,,,,,,,,,,,,,,,,AFNE06.jpg,AFSA05.jpg,AFNE15.jpg,AFSA09.jpg,AFSA09.jpg,FS,4,num_4,32,num_8,1.533426476,,,2017_Jun_30_1644,60.0013856165,FEMA4ImagesEEG,001,100853,
AFNE01.JPG,AFNE01.JPG,AFNE01.JPG,AFNE01.JPG,AFNE01.JPG,AFNE01.JPG,1,2,12,0,,,,,,,,,,,,,,,,,,,,,,,AFNE05.jpg,AFNE03.jpg,AFSA10.jpg,AFSA18.jpg,AFSA18.jpg,FS,4,num_4,32,num_6,0.866767827771,,,2017_Jun_30_1644,60.0013856165,FEMA4ImagesEEG,001,100853,
AFNE01.JPG,AFNE01.JPG,AFNE01.JPG,AFNE01.JPG,AFNE01.JPG,AFNE01.JPG,1,3,13,9,,,,,,,,,,,,,,,,,,,,,,,AFNE06.jpg,AFNE19.jpg,AFSA15.jpg,AFSA07.jpg,AFSA15.jpg,FS,4,num_2,32,num_8,0.766788932437,,,2017_Jun_30_1644,60.0013856165,FEMA4ImagesEEG,001,100853,
AFNE01.JPG,AFNE01.JPG,AFNE01.JPG,AFNE01.JPG,AFNE01.JPG,AFNE01.JPG,1,4,14,5,,,,,,,,,,,,,,,,,,,,,,,AFNE10.jpg,AFSA08.jpg,AFNE03.jpg,AFSA04.jpg,AFSA08.jpg,FS,4,num_6,32,num_4,1.03343706043,,,2017_Jun_30_1644,60.0013856165,FEMA4ImagesEEG,001,100853,
AFNE01.JPG,AFNE01.JPG,AFNE01.JPG,AFNE01.JPG,AFNE01.JPG,AFNE01.JPG,1,5,15,1,,,,,,,,,,,,,,,,,,,,,,,AFSA19.jpg,AFNE04.jpg,AFNE12.jpg,AFSA08.jpg,AFSA19.jpg,FS,4,num_8,32,num_4,0.833450723905,,,2017_Jun_30_1644,60.0013856165,FEMA4ImagesEEG,001,100853,
AFNE01.JPG,AFNE01.JPG,AFNE01.JPG,AFNE01.JPG,AFNE01.JPG,AFNE01.JPG,1,6,16,7,,,,,,,,,,,,,,,,,,,,,,,AFNE12.jpg,AFSA20.jpg,AFNE07.jpg,AFSA05.jpg,AFSA20.jpg,FS,4,num_6,16,num_6,0.883437284851,,,2017_Jun_30_1644,60.0013856165,FEMA4ImagesEEG,001,100853,
AFNE01.JPG,AFNE01.JPG,AFNE01.JPG,AFNE01.JPG,AFNE01.JPG,AFNE01.JPG,1,7,17,8,,,,,,,,,,,,,,,,,,,,,,,AFSA05.jpg,AFNE18.jpg,AFSA11.jpg,AFNE09.jpg,AFNE09.jpg,FN,3,num_4,32,num_6,1.13354842103,,,2017_Jun_30_1644,60.0013856165,FEMA4ImagesEEG,001,100853,
AFNE01.JPG,AFNE01.JPG,AFNE01.JPG,AFNE01.JPG,AFNE01.JPG,AFNE01.JPG,1,8,18,2,,,,,,,,,,,,,,,,,,,,,,,AFSA16.jpg,AFNE18.jpg,AFSA13.jpg,AFNE06.jpg,AFSA13.jpg,FS,4,num_2,32,num_4,1.03352686734,,,2017_Jun_30_1644,60.0013856165,FEMA4ImagesEEG,001,100853,
AFNE01.JPG,AFNE01.JPG,AFNE01.JPG,AFNE01.JPG,AFNE01.JPG,AFNE01.JPG,1,9,19,3,,,,,,,,,,,,,,,,,,,,,,,AFSA10.jpg,AFNE12.jpg,AFSA19.jpg,AFNE11.jpg,AFSA10.jpg,FS,4,num_8,32,num_4,0.883430870133,,,2017_Jun_30_1644,60.0013856165,FEMA4ImagesEEG,001,100853,
AFNE01.JPG,AFNE01.JPG,AFNE01.JPG,AFNE01.JPG,AFNE01.JPG,AFNE01.JPG,2,0,20,4,,,,,,,,,,,,,,,,,,,,,,,AFNE08.jpg,AFNE03.jpg,AFSA12.jpg,AFSA20.jpg,AFSA20.jpg,FS,4,num_4,32,num_8,1.03344572033,,,2017_Jun_30_1644,60.0013856165,FEMA4ImagesEEG,001,100853,
AFNE01.JPG,AFNE01.JPG,AFNE01.JPG,AFNE01.JPG,AFNE01.JPG,AFNE01.JPG,2,1,21,2,,,,,,,,,,,,,,,,,,,,,,,AFSA20.jpg,AFNE15.jpg,AFSA09.jpg,AFNE12.jpg,AFSA20.jpg,FS,4,num_8,16,num_8,0.683459287626,,,2017_Jun_30_1644,60.0013856165,FEMA4ImagesEEG,001,100853,
AFNE01.JPG,AFNE01.JPG,AFNE01.JPG,AFNE01.JPG,AFNE01.JPG,AFNE01.JPG,2,2,22,7,,,,,,,,,,,,,,,,,,,,,,,AFNE17.jpg,AFSA15.jpg,AFSA06.jpg,AFNE02.jpg,AFSA06.jpg,FS,4,num_2,32,num_4,0.450181185559,,,2017_Jun_30_1644,60.0013856165,FEMA4ImagesEEG,001,100853,
AFNE01.JPG,AFNE01.JPG,AFNE01.JPG,AFNE01.JPG,AFNE01.JPG,AFNE01.JPG,2,3,23,1,,,,,,,,,,,,,,,,,,,,,,,AFNE16.jpg,AFNE13.jpg,AFSA07.jpg,AFSA08.jpg,AFNE16.jpg,FN,3,num_8,32,num_6,1.43341069564,,,2017_Jun_30_1644,60.0013856165,FEMA4ImagesEEG,001,100853,
AFNE01.JPG,AFNE01.JPG,AFNE01.JPG,AFNE01.JPG,AFNE01.JPG,AFNE01.JPG,2,4,24,5,,,,,,,,,,,,,,,,,,,,,,,AFSA01.jpg,AFSA19.jpg,AFNE19.jpg,AFNE03.jpg,AFSA01.jpg,FS,4,num_8,16,num_8,0.750159247022,,,2017_Jun_30_1644,60.0013856165,FEMA4ImagesEEG,001,100853,
AFNE01.JPG,AFNE01.JPG,AFNE01.JPG,AFNE01.JPG,AFNE01.JPG,AFNE01.JPG,2,5,25,9,,,,,,,,,,,,,,,,,,,,,,,AFSA07.jpg,AFNE02.jpg,AFSA17.jpg,AFNE05.jpg,AFSA17.jpg,FS,4,num_2,32,num_4,0.950114792562,,,2017_Jun_30_1644,60.0013856165,FEMA4ImagesEEG,001,100853,
AFNE01.JPG,AFNE01.JPG,AFNE01.JPG,AFNE01.JPG,AFNE01.JPG,AFNE01.JPG,2,6,26,0,,,,,,,,,,,,,,,,,,,,,,,AFSA04.jpg,AFNE05.jpg,AFSA10.jpg,AFNE14.jpg,AFSA10.jpg,FS,4,num_2,32,num_6,0.900100647996,,,2017_Jun_30_1644,60.0013856165,FEMA4ImagesEEG,001,100853,
AFNE01.JPG,AFNE01.JPG,AFNE01.JPG,AFNE01.JPG,AFNE01.JPG,AFNE01.JPG,2,7,27,6,,,,,,,,,,,,,,,,,,,,,,,AFNE11.jpg,AFNE16.jpg,AFSA11.jpg,AFSA09.jpg,AFNE16.jpg,FN,3,num_6,16,num_6,0.933411978534,,,2017_Jun_30_1644,60.0013856165,FEMA4ImagesEEG,001,100853,
AFNE01.JPG,AFNE01.JPG,AFNE01.JPG,AFNE01.JPG,AFNE01.JPG,AFNE01.JPG,2,8,28,8,,,,,,,,,,,,,,,,,,,,,,,AFNE05.jpg,AFSA16.jpg,AFNE16.jpg,AFSA12.jpg,AFNE16.jpg,FN,3,num_2,32,num_6,1.23342147248,,,2017_Jun_30_1644,60.0013856165,FEMA4ImagesEEG,001,100853,
AFNE01.JPG,AFNE01.JPG,AFNE01.JPG,AFNE01.JPG,AFNE01.JPG,AFNE01.JPG,2,9,29,3,,,,,,,,,,,,,,,,,,,,,,,AFNE08.jpg,AFSA10.jpg,AFSA02.jpg,AFNE05.jpg,AFNE05.jpg,FN,3,num_4,32,num_8,0.933428977733,,,2017_Jun_30_1644,60.0013856165,FEMA4ImagesEEG,001,100853,
AFNE01.JPG,AFNE01.JPG,AFNE01.JPG,AFNE01.JPG,AFNE01.JPG,AFNE01.JPG,3,0,30,9,,,,,,,,,,,,,,,,,,,,,,,AFSA11.jpg,AFNE13.jpg,AFSA02.jpg,AFNE08.jpg,AFSA11.jpg,FS,4,num_8,16,num_8,0.733451621956,,,2017_Jun_30_1644,60.0013856165,FEMA4ImagesEEG,001,100853,
AFNE01.JPG,AFNE01.JPG,AFNE01.JPG,AFNE01.JPG,AFNE01.JPG,AFNE01.JPG,3,1,31,7,,,,,,,,,,,,,,,,,,,,,,,AFSA17.jpg,AFNE12.jpg,AFNE01.jpg,AFSA15.jpg,AFNE01.jpg,FN,3,num_2,32,num_8,0.583455374581,,,2017_Jun_30_1644,60.0013856165,FEMA4ImagesEEG,001,100853,
AFNE01.JPG,AFNE01.JPG,AFNE01.JPG,AFNE01.JPG,AFNE01.JPG,AFNE01.JPG,3,2,32,4,,,,,,,,,,,,,,,,,,,,,,,AFNE13.jpg,AFSA14.jpg,AFNE02.jpg,AFSA02.jpg,AFSA02.jpg,FS,4,num_4,32,num_2,0.816824566573,,,2017_Jun_30_1644,60.0013856165,FEMA4ImagesEEG,001,100853,
AFNE01.JPG,AFNE01.JPG,AFNE01.JPG,AFNE01.JPG,AFNE01.JPG,AFNE01.JPG,3,3,33,8,,,,,,,,,,,,,,,,,,,,,,,AFNE17.jpg,AFSA04.jpg,AFSA14.jpg,AFNE13.jpg,AFSA04.jpg,FS,4,num_6,16,num_6,0.833438535803,,,2017_Jun_30_1644,60.0013856165,FEMA4ImagesEEG,001,100853,
AFNE01.JPG,AFNE01.JPG,AFNE01.JPG,AFNE01.JPG,AFNE01.JPG,AFNE01.JPG,3,4,34,5,,,,,,,,,,,,,,,,,,,,,,,AFNE08.jpg,AFNE04.jpg,AFSA01.jpg,AFSA04.jpg,AFNE04.jpg,FN,3,num_6,32,num_4,0.949610269803,,,2017_Jun_30_1644,60.0013856165,FEMA4ImagesEEG,001,100853,
AFNE01.JPG,AFNE01.JPG,AFNE01.JPG,AFNE01.JPG,AFNE01.JPG,AFNE01.JPG,3,5,35,1,,,,,,,,,,,,,,,,,,,,,,,AFNE16.jpg,AFNE04.jpg,AFSA06.jpg,AFSA20.jpg,AFSA06.jpg,FS,4,num_2,16,num_2,0.733474073699,,,2017_Jun_30_1644,60.0013856165,FEMA4ImagesEEG,001,100853,
AFNE01.JPG,AFNE01.JPG,AFNE01.JPG,AFNE01.JPG,AFNE01.JPG,AFNE01.JPG,3,6,36,2,,,,,,,,,,,,,,,,,,,,,,,AFNE09.jpg,AFNE11.jpg,AFSA01.jpg,AFSA11.jpg,AFSA01.jpg,FS,4,num_2,16,num_2,0.900087818387,,,2017_Jun_30_1644,60.0013856165,FEMA4ImagesEEG,001,100853,
AFNE01.JPG,AFNE01.JPG,AFNE01.JPG,AFNE01.JPG,AFNE01.JPG,AFNE01.JPG,3,7,37,6,,,,,,,,,,,,,,,,,,,,,,,AFSA11.jpg,AFNE01.jpg,AFSA04.jpg,AFNE10.jpg,AFNE10.jpg,FN,3,num_4,16,num_4,0.866794449161,,,2017_Jun_30_1644,60.0013856165,FEMA4ImagesEEG,001,100853,
AFNE01.JPG,AFNE01.JPG,AFNE01.JPG,AFNE01.JPG,AFNE01.JPG,AFNE01.JPG,3,8,38,0,,,,,,,,,,,,,,,,,,,,,,,AFNE17.jpg,AFSA17.jpg,AFNE13.jpg,AFSA14.jpg,AFSA17.jpg,FS,4,num_6,16,num_6,0.666815489647,,,2017_Jun_30_1644,60.0013856165,FEMA4ImagesEEG,001,100853,
AFNE01.JPG,AFNE01.JPG,AFNE01.JPG,AFNE01.JPG,AFNE01.JPG,AFNE01.JPG,3,9,39,3,,,,,,,,,,,,,,,,,,,,,,,AFSA04.jpg,AFNE15.jpg,AFNE03.jpg,AFSA06.jpg,AFNE15.jpg,FN,3,num_6,16,num_6,0.717235369317,,,2017_Jun_30_1644,60.0013856165,FEMA4ImagesEEG,001,100853,
AFNE01.JPG,AFNE01.JPG,AFNE01.JPG,AFNE01.JPG,AFNE01.JPG,AFNE01.JPG,4,0,40,8,,,,,,,,,,,,,,,,,,,,,,,AFSA14.jpg,AFNE01.jpg,AFNE17.jpg,AFSA01.jpg,AFNE01.jpg,FN,3,num_6,32,num_4,0.76676872588,,,2017_Jun_30_1644,60.0013856165,FEMA4ImagesEEG,001,100853,
AFNE01.JPG,AFNE01.JPG,AFNE01.JPG,AFNE01.JPG,AFNE01.JPG,AFNE01.JPG,4,1,41,9,,,,,,,,,,,,,,,,,,,,,,,AFSA09.jpg,AFNE02.jpg,AFNE19.jpg,AFSA07.jpg,AFSA09.jpg,FS,4,num_8,32,num_6,0.633465349558,,,2017_Jun_30_1644,60.0013856165,FEMA4ImagesEEG,001,100853,
AFNE01.JPG,AFNE01.JPG,AFNE01.JPG,AFNE01.JPG,AFNE01.JPG,AFNE01.JPG,4,2,42,3,,,,,,,,,,,,,,,,,,,,,,,AFNE17.jpg,AFSA03.jpg,AFSA04.jpg,AFNE06.jpg,AFNE06.jpg,FN,3,num_4,32,num_8,1.31673315592,,,2017_Jun_30_1644,60.0013856165,FEMA4ImagesEEG,001,100853,
AFNE01.JPG,AFNE01.JPG,AFNE01.JPG,AFNE01.JPG,AFNE01.JPG,AFNE01.JPG,4,3,43,2,,,,,,,,,,,,,,,,,,,,,,,AFNE05.jpg,AFNE17.jpg,AFSA13.jpg,AFSA10.jpg,AFNE05.jpg,FN,3,num_8,16,num_8,0.783566157916,,,2017_Jun_30_1644,60.0013856165,FEMA4ImagesEEG,001,100853,
AFNE01.JPG,AFNE01.JPG,AFNE01.JPG,AFNE01.JPG,AFNE01.JPG,AFNE01.JPG,4,4,44,6,,,,,,,,,,,,,,,,,,,,,,,AFNE10.jpg,AFSA03.jpg,AFNE03.jpg,AFSA18.jpg,AFSA03.jpg,FS,4,num_6,16,num_6,0.70014638541,,,2017_Jun_30_1644,60.0013856165,FEMA4ImagesEEG,001,100853,
AFNE01.JPG,AFNE01.JPG,AFNE01.JPG,AFNE01.JPG,AFNE01.JPG,AFNE01.JPG,4,5,45,7,,,,,,,,,,,,,,,,,,,,,,,AFNE03.jpg,AFNE20.jpg,AFSA10.jpg,AFSA05.jpg,AFSA05.jpg,FS,4,num_4,16,num_4,0.516767282563,,,2017_Jun_30_1644,60.0013856165,FEMA4ImagesEEG,001,100853,
AFNE01.JPG,AFNE01.JPG,AFNE01.JPG,AFNE01.JPG,AFNE01.JPG,AFNE01.JPG,4,6,46,1,,,,,,,,,,,,,,,,,,,,,,,AFSA01.jpg,AFNE10.jpg,AFNE17.jpg,AFSA17.jpg,AFNE17.jpg,FN,3,num_2,32,num_4,0.650209218205,,,2017_Jun_30_1644,60.0013856165,FEMA4ImagesEEG,001,100853,
AFNE01.JPG,AFNE01.JPG,AFNE01.JPG,AFNE01.JPG,AFNE01.JPG,AFNE01.JPG,4,7,47,4,,,,,,,,,,,,,,,,,,,,,,,AFNE02.jpg,AFNE01.jpg,AFSA06.jpg,AFSA02.jpg,AFNE02.jpg,FN,3,num_8,32,num_4,0.683453835081,,,2017_Jun_30_1644,60.0013856165,FEMA4ImagesEEG,001,100853,
AFNE01.JPG,AFNE01.JPG,AFNE01.JPG,AFNE01.JPG,AFNE01.JPG,AFNE01.JPG,4,8,48,5,,,,,,,,,,,,,,,,,,,,,,,AFSA06.jpg,AFNE20.jpg,AFSA04.jpg,AFNE14.jpg,AFNE14.jpg,FN,3,num_4,32,num_6,1.00012829568,,,2017_Jun_30_1644,60.0013856165,FEMA4ImagesEEG,001,100853,
AFNE01.JPG,AFNE01.JPG,AFNE01.JPG,AFNE01.JPG,AFNE01.JPG,AFNE01.JPG,4,9,49,0,,,,,,,,,,,,,,,,,,,,,,,AFSA15.jpg,AFSA07.jpg,AFNE16.jpg,AFNE04.jpg,AFNE16.jpg,FN,3,num_2,32,num_4,0.633444501553,,,2017_Jun_30_1644,60.0013856165,FEMA4ImagesEEG,001,100853,
AFNE01.JPG,AFNE01.JPG,AFNE01.JPG,AFNE01.JPG,AFNE01.JPG,AFNE01.JPG,5,0,50,1,,,,,,,,,,,,,,,,,,,,,,,AFNE16.jpg,AFNE08.jpg,AFSA04.jpg,AFSA15.jpg,AFSA15.jpg,FS,4,num_4,32,num_2,0.866830692685,,,2017_Jun_30_1644,60.0013856165,FEMA4ImagesEEG,001,100853,
AFNE01.JPG,AFNE01.JPG,AFNE01.JPG,AFNE01.JPG,AFNE01.JPG,AFNE01.JPG,5,1,51,2,,,,,,,,,,,,,,,,,,,,,,,AFNE19.jpg,AFNE10.jpg,AFSA01.jpg,AFSA06.jpg,AFSA01.jpg,FS,4,num_2,16,num_2,0.38346550992,,,2017_Jun_30_1644,60.0013856165,FEMA4ImagesEEG,001,100853,
AFNE01.JPG,AFNE01.JPG,AFNE01.JPG,AFNE01.JPG,AFNE01.JPG,AFNE01.JPG,5,2,52,6,,,,,,,,,,,,,,,,,,,,,,,AFNE15.jpg,AFSA07.jpg,AFNE05.jpg,AFSA14.jpg,AFNE15.jpg,FN,3,num_8,32,num_2,0.533410118311,,,2017_Jun_30_1644,60.0013856165,FEMA4ImagesEEG,001,100853,
AFNE01.JPG,AFNE01.JPG,AFNE01.JPG,AFNE01.JPG,AFNE01.JPG,AFNE01.JPG,5,3,53,8,,,,,,,,,,,,,,,,,,,,,,,AFSA17.jpg,AFSA06.jpg,AFNE14.jpg,AFNE06.jpg,AFSA17.jpg,FS,4,num_8,32,num_6,0.800121111155,,,2017_Jun_30_1644,60.0013856165,FEMA4ImagesEEG,001,100853,
AFNE01.JPG,AFNE01.JPG,AFNE01.JPG,AFNE01.JPG,AFNE01.JPG,AFNE01.JPG,5,4,54,5,,,,,,,,,,,,,,,,,,,,,,,AFSA04.jpg,AFNE05.jpg,AFSA02.jpg,AFNE20.jpg,AFSA02.jpg,FS,4,num_2,16,num_2,0.550142761029,,,2017_Jun_30_1644,60.0013856165,FEMA4ImagesEEG,001,100853,
AFNE01.JPG,AFNE01.JPG,AFNE01.JPG,AFNE01.JPG,AFNE01.JPG,AFNE01.JPG,5,5,55,7,,,,,,,,,,,,,,,,,,,,,,,AFSA12.jpg,AFNE03.jpg,AFSA01.jpg,AFNE12.jpg,AFNE12.jpg,FN,3,num_4,32,num_8,0.533472983167,,,2017_Jun_30_1644,60.0013856165,FEMA4ImagesEEG,001,100853,
AFNE01.JPG,AFNE01.JPG,AFNE01.JPG,AFNE01.JPG,AFNE01.JPG,AFNE01.JPG,5,6,56,9,,,,,,,,,,,,,,,,,,,,,,,AFSA18.jpg,AFSA12.jpg,AFNE01.jpg,AFNE07.jpg,AFSA18.jpg,FS,4,num_8,16,num_8,1.20007069089,,,2017_Jun_30_1644,60.0013856165,FEMA4ImagesEEG,001,100853,
AFNE01.JPG,AFNE01.JPG,AFNE01.JPG,AFNE01.JPG,AFNE01.JPG,AFNE01.JPG,5,7,57,3,,,,,,,,,,,,,,,,,,,,,,,AFSA10.jpg,AFNE19.jpg,AFNE01.jpg,AFSA09.jpg,AFSA09.jpg,FS,4,num_4,32,num_8,0.983445046819,,,2017_Jun_30_1644,60.0013856165,FEMA4ImagesEEG,001,100853,
AFNE01.JPG,AFNE01.JPG,AFNE01.JPG,AFNE01.JPG,AFNE01.JPG,AFNE01.JPG,5,8,58,0,,,,,,,,,,,,,,,,,,,,,,,AFSA19.jpg,AFNE16.jpg,AFSA04.jpg,AFNE17.jpg,AFNE16.jpg,FN,3,num_6,16,num_6,0.7334997328,,,2017_Jun_30_1644,60.0013856165,FEMA4ImagesEEG,001,100853,
AFNE01.JPG,AFNE01.JPG,AFNE01.JPG,AFNE01.JPG,AFNE01.JPG,AFNE01.JPG,5,9,59,4,,,,,,,,,,,,,,,,,,,,,,,AFNE18.jpg,AFSA12.jpg,AFSA20.jpg,AFNE10.jpg,AFSA12.jpg,FS,4,num_6,32,num_8,0.816788964497,,,2017_Jun_30_1644,60.0013856165,FEMA4ImagesEEG,001,100853,
,,,,,,,,,,,,,,,,,,,,,,,,,,,,,,,,,,,,,,,,,,,space,6.81665778218,2017_Jun_30_1644,60.0013856165,FEMA4ImagesEEG,001,100853,
AFNE01.JPG,AFNE01.JPG,AFNE01.JPG,AFNE01.JPG,AFNE01.JPG,AFNE01.JPG,,,,,0,0,0,5,,,,,,,,,,,,,,,,,,,AMSA03.jpg,AMNE14.jpg,AMSA18.jpg,AMNE10.jpg,AMNE10.jpg,MN,1,num_4,16,num_4,0.499974020116,,,2017_Jun_30_1644,60.0013856165,FEMA4ImagesEEG,001,100853,
AFNE01.JPG,AFNE01.JPG,AFNE01.JPG,AFNE01.JPG,AFNE01.JPG,AFNE01.JPG,,,,,0,1,1,4,,,,,,,,,,,,,,,,,,,AMSA07.jpg,AMNE19.jpg,AMNE07.jpg,AMSA09.jpg,AMNE07.jpg,MN,1,num_2,32,num_6,0.650172653899,,,2017_Jun_30_1644,60.0013856165,FEMA4ImagesEEG,001,100853,
AFNE01.JPG,AFNE01.JPG,AFNE01.JPG,AFNE01.JPG,AFNE01.JPG,AFNE01.JPG,,,,,0,2,2,6,,,,,,,,,,,,,,,,,,,AMNE08.jpg,AMSA02.jpg,AMNE10.jpg,AMSA15.jpg,AMNE08.jpg,MN,1,num_8,32,num_4,1.01673809532,,,2017_Jun_30_1644,60.0013856165,FEMA4ImagesEEG,001,100853,
AFNE01.JPG,AFNE01.JPG,AFNE01.JPG,AFNE01.JPG,AFNE01.JPG,AFNE01.JPG,,,,,0,3,3,1,,,,,,,,,,,,,,,,,,,AMSA09.jpg,AMSA02.jpg,AMNE01.jpg,AMNE13.jpg,AMSA02.jpg,MS,2,num_6,16,num_6,0.616764139268,,,2017_Jun_30_1644,60.0013856165,FEMA4ImagesEEG,001,100853,
AFNE01.JPG,AFNE01.JPG,AFNE01.JPG,AFNE01.JPG,AFNE01.JPG,AFNE01.JPG,,,,,0,4,4,9,,,,,,,,,,,,,,,,,,,AMSA15.jpg,AMSA12.jpg,AMNE06.jpg,AMNE17.jpg,AMNE17.jpg,MN,1,num_4,32,num_6,0.66678245354,,,2017_Jun_30_1644,60.0013856165,FEMA4ImagesEEG,001,100853,
AFNE01.JPG,AFNE01.JPG,AFNE01.JPG,AFNE01.JPG,AFNE01.JPG,AFNE01.JPG,,,,,0,5,5,7,,,,,,,,,,,,,,,,,,,AMNE10.jpg,AMSA03.jpg,AMNE03.jpg,AMSA06.jpg,AMNE03.jpg,MN,1,num_2,32,num_8,0.500176727306,,,2017_Jun_30_1644,60.0013856165,FEMA4ImagesEEG,001,100853,
AFNE01.JPG,AFNE01.JPG,AFNE01.JPG,AFNE01.JPG,AFNE01.JPG,AFNE01.JPG,,,,,0,6,6,0,,,,,,,,,,,,,,,,,,,AMSA20.jpg,AMSA09.jpg,AMNE01.jpg,AMNE09.jpg,AMNE09.jpg,MN,1,num_4,16,num_4,0.566763465758,,,2017_Jun_30_1644,60.0013856165,FEMA4ImagesEEG,001,100853,
AFNE01.JPG,AFNE01.JPG,AFNE01.JPG,AFNE01.JPG,AFNE01.JPG,AFNE01.JPG,,,,,0,7,7,3,,,,,,,,,,,,,,,,,,,AMSA09.jpg,AMNE20.jpg,AMNE02.jpg,AMSA16.jpg,AMNE02.jpg,MN,1,num_2,32,num_6,0.900117326411,,,2017_Jun_30_1644,60.0013856165,FEMA4ImagesEEG,001,100853,
AFNE01.JPG,AFNE01.JPG,AFNE01.JPG,AFNE01.JPG,AFNE01.JPG,AFNE01.JPG,,,,,0,8,8,2,,,,,,,,,,,,,,,,,,,AMNE20.jpg,AMSA19.jpg,AMSA02.jpg,AMNE04.jpg,AMNE04.jpg,MN,1,num_4,16,num_4,0.650130637048,,,2017_Jun_30_1644,60.0013856165,FEMA4ImagesEEG,001,100853,
AFNE01.JPG,AFNE01.JPG,AFNE01.JPG,AFNE01.JPG,AFNE01.JPG,AFNE01.JPG,,,,,0,9,9,8,,,,,,,,,,,,,,,,,,,AMNE11.jpg,AMSA13.jpg,AMNE12.jpg,AMSA05.jpg,AMNE11.jpg,MN,1,num_8,32,num_6,0.850143594958,,,2017_Jun_30_1644,60.0013856165,FEMA4ImagesEEG,001,100853,
AFNE01.JPG,AFNE01.JPG,AFNE01.JPG,AFNE01.JPG,AFNE01.JPG,AFNE01.JPG,,,,,1,0,10,8,,,,,,,,,,,,,,,,,,,AMNE19.jpg,AMSA11.jpg,AMNE20.jpg,AMSA04.jpg,AMSA11.jpg,MS,2,num_6,16,num_6,0.900127910776,,,2017_Jun_30_1644,60.0013856165,FEMA4ImagesEEG,001,100853,
AFNE01.JPG,AFNE01.JPG,AFNE01.JPG,AFNE01.JPG,AFNE01.JPG,AFNE01.JPG,,,,,1,1,11,3,,,,,,,,,,,,,,,,,,,AMNE16.jpg,AMSA08.jpg,AMNE05.jpg,AMSA13.jpg,AMNE16.jpg,MN,1,num_8,16,num_8,0.716796918889,,,2017_Jun_30_1644,60.0013856165,FEMA4ImagesEEG,001,100853,
AFNE01.JPG,AFNE01.JPG,AFNE01.JPG,AFNE01.JPG,AFNE01.JPG,AFNE01.JPG,,,,,1,2,12,2,,,,,,,,,,,,,,,,,,,AMNE08.jpg,AMSA13.jpg,AMNE02.jpg,AMSA07.jpg,AMSA13.jpg,MS,2,num_6,16,num_6,0.666615348426,,,2017_Jun_30_1644,60.0013856165,FEMA4ImagesEEG,001,100853,
AFNE01.JPG,AFNE01.JPG,AFNE01.JPG,AFNE01.JPG,AFNE01.JPG,AFNE01.JPG,,,,,1,3,13,1,,,,,,,,,,,,,,,,,,,AMSA10.jpg,AMSA05.jpg,AMNE16.jpg,AMNE06.jpg,AMNE06.jpg,MN,1,num_4,32,num_8,0.950082077179,,,2017_Jun_30_1644,60.0013856165,FEMA4ImagesEEG,001,100853,
AFNE01.JPG,AFNE01.JPG,AFNE01.JPG,AFNE01.JPG,AFNE01.JPG,AFNE01.JPG,,,,,1,4,14,9,,,,,,,,,,,,,,,,,,,AMSA01.jpg,AMNE18.jpg,AMSA02.jpg,AMNE11.jpg,AMNE18.jpg,MN,1,num_6,32,num_4,0.983412331378,,,2017_Jun_30_1644,60.0013856165,FEMA4ImagesEEG,001,100853,
AFNE01.JPG,AFNE01.JPG,AFNE01.JPG,AFNE01.JPG,AFNE01.JPG,AFNE01.JPG,,,,,1,5,15,5,,,,,,,,,,,,,,,,,,,AMNE14.jpg,AMSA15.jpg,AMNE11.jpg,AMSA20.jpg,AMSA20.jpg,MS,2,num_4,16,num_4,0.533488057903,,,2017_Jun_30_1644,60.0013856165,FEMA4ImagesEEG,001,100853,
AFNE01.JPG,AFNE01.JPG,AFNE01.JPG,AFNE01.JPG,AFNE01.JPG,AFNE01.JPG,,,,,1,6,16,4,,,,,,,,,,,,,,,,,,,AMNE12.jpg,AMSA13.jpg,AMNE06.jpg,AMSA16.jpg,AMNE12.jpg,MN,1,num_8,32,num_6,0.866761413054,,,2017_Jun_30_1644,60.0013856165,FEMA4ImagesEEG,001,100853,
AFNE01.JPG,AFNE01.JPG,AFNE01.JPG,AFNE01.JPG,AFNE01.JPG,AFNE01.JPG,,,,,1,7,17,0,,,,,,,,,,,,,,,,,,,AMSA05.jpg,AMSA04.jpg,AMNE15.jpg,AMNE09.jpg,AMNE15.jpg,MN,1,num_2,16,num_2,1.01674322708,,,2017_Jun_30_1644,60.0013856165,FEMA4ImagesEEG,001,100853,
AFNE01.JPG,AFNE01.JPG,AFNE01.JPG,AFNE01.JPG,AFNE01.JPG,AFNE01.JPG,,,,,1,8,18,7,,,,,,,,,,,,,,,,,,,AMSA17.jpg,AMNE11.jpg,AMNE07.jpg,AMSA09.jpg,AMNE07.jpg,MN,1,num_2,32,num_4,1.00015138893,,,2017_Jun_30_1644,60.0013856165,FEMA4ImagesEEG,001,100853,
AFNE01.JPG,AFNE01.JPG,AFNE01.JPG,AFNE01.JPG,AFNE01.JPG,AFNE01.JPG,,,,,1,9,19,6,,,,,,,,,,,,,,,,,,,AMNE17.jpg,AMSA05.jpg,AMSA14.jpg,AMNE19.jpg,AMNE17.jpg,MN,1,num_8,32,num_6,0.366806957987,,,2017_Jun_30_1644,60.0013856165,FEMA4ImagesEEG,001,100853,
AFNE01.JPG,AFNE01.JPG,AFNE01.JPG,AFNE01.JPG,AFNE01.JPG,AFNE01.JPG,,,,,2,0,20,2,,,,,,,,,,,,,,,,,,,AMNE04.jpg,AMSA04.jpg,AMSA14.jpg,AMNE01.jpg,AMSA14.jpg,MS,2,num_2,32,num_4,1.69990615168,,,2017_Jun_30_1644,60.0013856165,FEMA4ImagesEEG,001,100853,
AFNE01.JPG,AFNE01.JPG,AFNE01.JPG,AFNE01.JPG,AFNE01.JPG,AFNE01.JPG,,,,,2,1,21,0,,,,,,,,,,,,,,,,,,,AMSA17.jpg,AMSA19.jpg,AMNE20.jpg,AMNE11.jpg,AMSA19.jpg,MS,2,num_6,32,num_4,0.70011719811,,,2017_Jun_30_1644,60.0013856165,FEMA4ImagesEEG,001,100853,
AFNE01.JPG,AFNE01.JPG,AFNE01.JPG,AFNE01.JPG,AFNE01.JPG,AFNE01.JPG,,,,,2,2,22,3,,,,,,,,,,,,,,,,,,,AMNE09.jpg,AMSA01.jpg,AMSA05.jpg,AMNE08.jpg,AMNE08.jpg,MN,1,num_4,16,num_4,0.783718509017,,,2017_Jun_30_1644,60.0013856165,FEMA4ImagesEEG,001,100853,
AFNE01.JPG,AFNE01.JPG,AFNE01.JPG,AFNE01.JPG,AFNE01.JPG,AFNE01.JPG,,,,,2,3,23,7,,,,,,,,,,,,,,,,,,,AMSA11.jpg,AMNE19.jpg,AMNE20.jpg,AMSA07.jpg,AMSA07.jpg,MS,2,num_4,16,num_4,0.916579585988,,,2017_Jun_30_1644,60.0013856165,FEMA4ImagesEEG,001,100853,
AFNE01.JPG,AFNE01.JPG,AFNE01.JPG,AFNE01.JPG,AFNE01.JPG,AFNE01.JPG,,,,,2,4,24,9,,,,,,,,,,,,,,,,,,,AMSA04.jpg,AMNE19.jpg,AMSA18.jpg,AMNE20.jpg,AMNE20.jpg,MN,1,num_4,16,num_4,0.76675846224,,,2017_Jun_30_1644,60.0013856165,FEMA4ImagesEEG,001,100853,
AFNE01.JPG,AFNE01.JPG,AFNE01.JPG,AFNE01.JPG,AFNE01.JPG,AFNE01.JPG,,,,,2,5,25,5,,,,,,,,,,,,,,,,,,,AMSA16.jpg,AMSA05.jpg,AMNE18.jpg,AMNE04.jpg,AMSA05.jpg,MS,2,num_6,16,num_6,0.800122714776,,,2017_Jun_30_1644,60.0013856165,FEMA4ImagesEEG,001,100853,
AFNE01.JPG,AFNE01.JPG,AFNE01.JPG,AFNE01.JPG,AFNE01.JPG,AFNE01.JPG,,,,,2,6,26,4,,,,,,,,,,,,,,,,,,,AMSA14.jpg,AMNE17.jpg,AMSA06.jpg,AMNE18.jpg,AMNE17.jpg,MN,1,num_6,32,num_4,0.650092789845,,,2017_Jun_30_1644,60.0013856165,FEMA4ImagesEEG,001,100853,
AFNE01.JPG,AFNE01.JPG,AFNE01.JPG,AFNE01.JPG,AFNE01.JPG,AFNE01.JPG,,,,,2,7,27,1,,,,,,,,,,,,,,,,,,,AMSA18.jpg,AMSA12.jpg,AMNE11.jpg,AMNE19.jpg,AMSA18.jpg,MS,2,num_8,32,num_4,0.783459993254,,,2017_Jun_30_1644,60.0013856165,FEMA4ImagesEEG,001,100853,
AFNE01.JPG,AFNE01.JPG,AFNE01.JPG,AFNE01.JPG,AFNE01.JPG,AFNE01.JPG,,,,,2,8,28,6,,,,,,,,,,,,,,,,,,,AMNE11.jpg,AMSA12.jpg,AMSA20.jpg,AMNE19.jpg,AMSA12.jpg,MS,2,num_6,32,num_4,1.30014709098,,,2017_Jun_30_1644,60.0013856165,FEMA4ImagesEEG,001,100853,
AFNE01.JPG,AFNE01.JPG,AFNE01.JPG,AFNE01.JPG,AFNE01.JPG,AFNE01.JPG,,,,,2,9,29,8,,,,,,,,,,,,,,,,,,,AMNE17.jpg,AMSA15.jpg,AMSA01.jpg,AMNE07.jpg,AMSA15.jpg,MS,2,num_6,32,num_4,0.666774755751,,,2017_Jun_30_1644,60.0013856165,FEMA4ImagesEEG,001,100853,
AFNE01.JPG,AFNE01.JPG,AFNE01.JPG,AFNE01.JPG,AFNE01.JPG,AFNE01.JPG,,,,,3,0,30,0,,,,,,,,,,,,,,,,,,,AMSA20.jpg,AMNE16.jpg,AMNE05.jpg,AMSA12.jpg,AMSA20.jpg,MS,2,num_8,16,num_8,1.00009718398,,,2017_Jun_30_1644,60.0013856165,FEMA4ImagesEEG,001,100853,
AFNE01.JPG,AFNE01.JPG,AFNE01.JPG,AFNE01.JPG,AFNE01.JPG,AFNE01.JPG,,,,,3,1,31,1,,,,,,,,,,,,,,,,,,,AMNE09.jpg,AMSA11.jpg,AMNE10.jpg,AMSA19.jpg,AMSA19.jpg,MS,2,num_4,32,num_8,0.900109307957,,,2017_Jun_30_1644,60.0013856165,FEMA4ImagesEEG,001,100853,
AFNE01.JPG,AFNE01.JPG,AFNE01.JPG,AFNE01.JPG,AFNE01.JPG,AFNE01.JPG,,,,,3,2,32,6,,,,,,,,,,,,,,,,,,,AMNE20.jpg,AMSA05.jpg,AMNE16.jpg,AMSA18.jpg,AMNE16.jpg,MN,1,num_2,16,num_2,1.90006985702,,,2017_Jun_30_1644,60.0013856165,FEMA4ImagesEEG,001,100853,
AFNE01.JPG,AFNE01.JPG,AFNE01.JPG,AFNE01.JPG,AFNE01.JPG,AFNE01.JPG,,,,,3,3,33,2,,,,,,,,,,,,,,,,,,,AMNE03.jpg,AMSA13.jpg,AMSA01.jpg,AMNE13.jpg,AMNE03.jpg,MN,1,num_8,32,num_4,0.616765743005,,,2017_Jun_30_1644,60.0013856165,FEMA4ImagesEEG,001,100853,
AFNE01.JPG,AFNE01.JPG,AFNE01.JPG,AFNE01.JPG,AFNE01.JPG,AFNE01.JPG,,,,,3,4,34,9,,,,,,,,,,,,,,,,,,,AMNE17.jpg,AMNE11.jpg,AMSA10.jpg,AMSA13.jpg,AMNE17.jpg,MN,1,num_8,16,num_8,0.833423461067,,,2017_Jun_30_1644,60.0013856165,FEMA4ImagesEEG,001,100853,
AFNE01.JPG,AFNE01.JPG,AFNE01.JPG,AFNE01.JPG,AFNE01.JPG,AFNE01.JPG,,,,,3,5,35,4,,,,,,,,,,,,,,,,,,,AMSA07.jpg,AMNE05.jpg,AMSA08.jpg,AMNE01.jpg,AMNE01.jpg,MN,1,num_4,16,num_4,0.750132625632,,,2017_Jun_30_1644,60.0013856165,FEMA4ImagesEEG,001,100853,
AFNE01.JPG,AFNE01.JPG,AFNE01.JPG,AFNE01.JPG,AFNE01.JPG,AFNE01.JPG,,,,,3,6,36,7,,,,,,,,,,,,,,,,,,,AMSA06.jpg,AMNE03.jpg,AMNE18.jpg,AMSA20.jpg,AMNE03.jpg,MN,1,num_6,32,num_4,0.533486454224,,,2017_Jun_30_1644,60.0013856165,FEMA4ImagesEEG,001,100853,
AFNE01.JPG,AFNE01.JPG,AFNE01.JPG,AFNE01.JPG,AFNE01.JPG,AFNE01.JPG,,,,,3,7,37,5,,,,,,,,,,,,,,,,,,,AMSA06.jpg,AMNE11.jpg,AMNE10.jpg,AMSA01.jpg,AMSA06.jpg,MS,2,num_8,16,num_8,0.33345970459,,,2017_Jun_30_1644,60.0013856165,FEMA4ImagesEEG,001,100853,
AFNE01.JPG,AFNE01.JPG,AFNE01.JPG,AFNE01.JPG,AFNE01.JPG,AFNE01.JPG,,,,,3,8,38,8,,,,,,,,,,,,,,,,,,,AMSA06.jpg,AMNE09.jpg,AMSA05.jpg,AMNE06.jpg,AMNE09.jpg,MN,1,num_6,32,num_8,0.366794449161,,,2017_Jun_30_1644,60.0013856165,FEMA4ImagesEEG,001,100853,
AFNE01.JPG,AFNE01.JPG,AFNE01.JPG,AFNE01.JPG,AFNE01.JPG,AFNE01.JPG,,,,,3,9,39,3,,,,,,,,,,,,,,,,,,,AMNE03.jpg,AMSA17.jpg,AMNE20.jpg,AMSA05.jpg,AMNE03.jpg,MN,1,num_8,32,num_6,0.316891921801,,,2017_Jun_30_1644,60.0013856165,FEMA4ImagesEEG,001,100853,
AFNE01.JPG,AFNE01.JPG,AFNE01.JPG,AFNE01.JPG,AFNE01.JPG,AFNE01.JPG,,,,,4,0,40,2,,,,,,,,,,,,,,,,,,,AMSA19.jpg,AMSA10.jpg,AMNE15.jpg,AMNE14.jpg,AMSA19.jpg,MS,2,num_8,32,num_4,0.566907156899,,,2017_Jun_30_1644,60.0013856165,FEMA4ImagesEEG,001,100853,
AFNE01.JPG,AFNE01.JPG,AFNE01.JPG,AFNE01.JPG,AFNE01.JPG,AFNE01.JPG,,,,,4,1,41,3,,,,,,,,,,,,,,,,,,,AMNE09.jpg,AMSA04.jpg,AMNE19.jpg,AMSA14.jpg,AMSA14.jpg,MS,2,num_4,32,num_6,0.416917645081,,,2017_Jun_30_1644,60.0013856165,FEMA4ImagesEEG,001,100853,
AFNE01.JPG,AFNE01.JPG,AFNE01.JPG,AFNE01.JPG,AFNE01.JPG,AFNE01.JPG,,,,,4,2,42,0,,,,,,,,,,,,,,,,,,,AMNE18.jpg,AMNE16.jpg,AMSA01.jpg,AMSA08.jpg,AMNE16.jpg,MN,1,num_6,32,num_4,0.716503121716,,,2017_Jun_30_1644,60.0013856165,FEMA4ImagesEEG,001,100853,
AFNE01.JPG,AFNE01.JPG,AFNE01.JPG,AFNE01.JPG,AFNE01.JPG,AFNE01.JPG,,,,,4,3,43,9,,,,,,,,,,,,,,,,,,,AMSA07.jpg,AMNE11.jpg,AMSA14.jpg,AMNE18.jpg,AMNE11.jpg,MN,1,num_6,32,num_4,2.2333473817,,,2017_Jun_30_1644,60.0013856165,FEMA4ImagesEEG,001,100853,
AFNE01.JPG,AFNE01.JPG,AFNE01.JPG,AFNE01.JPG,AFNE01.JPG,AFNE01.JPG,,,,,4,4,44,6,,,,,,,,,,,,,,,,,,,AMNE19.jpg,AMSA04.jpg,AMNE10.jpg,AMSA01.jpg,AMNE10.jpg,MN,1,num_2,32,num_4,0.516777546203,,,2017_Jun_30_1644,60.0013856165,FEMA4ImagesEEG,001,100853,
AFNE01.JPG,AFNE01.JPG,AFNE01.JPG,AFNE01.JPG,AFNE01.JPG,AFNE01.JPG,,,,,4,5,45,8,,,,,,,,,,,,,,,,,,,AMSA15.jpg,AMNE10.jpg,AMNE03.jpg,AMSA19.jpg,AMSA19.jpg,MS,2,num_4,16,num_4,1.40036205039,,,2017_Jun_30_1644,60.0013856165,FEMA4ImagesEEG,001,100853,
AFNE01.JPG,AFNE01.JPG,AFNE01.JPG,AFNE01.JPG,AFNE01.JPG,AFNE01.JPG,,,,,4,6,46,7,,,,,,,,,,,,,,,,,,,AMSA07.jpg,AMSA02.jpg,AMNE11.jpg,AMNE07.jpg,AMNE11.jpg,MN,1,num_2,32,num_4,0.666763209156,,,2017_Jun_30_1644,60.0013856165,FEMA4ImagesEEG,001,100853,
AFNE01.JPG,AFNE01.JPG,AFNE01.JPG,AFNE01.JPG,AFNE01.JPG,AFNE01.JPG,,,,,4,7,47,5,,,,,,,,,,,,,,,,,,,AMNE16.jpg,AMSA17.jpg,AMSA14.jpg,AMNE19.jpg,AMSA17.jpg,MS,2,num_6,16,num_6,0.766630487284,,,2017_Jun_30_1644,60.0013856165,FEMA4ImagesEEG,001,100853,
AFNE01.JPG,AFNE01.JPG,AFNE01.JPG,AFNE01.JPG,AFNE01.JPG,AFNE01.JPG,,,,,4,8,48,4,,,,,,,,,,,,,,,,,,,AMSA08.jpg,AMNE14.jpg,AMSA05.jpg,AMNE11.jpg,AMSA05.jpg,MS,2,num_2,16,num_2,0.816765550524,,,2017_Jun_30_1644,60.0013856165,FEMA4ImagesEEG,001,100853,
AFNE01.JPG,AFNE01.JPG,AFNE01.JPG,AFNE01.JPG,AFNE01.JPG,AFNE01.JPG,,,,,4,9,49,1,,,,,,,,,,,,,,,,,,,AMSA04.jpg,AMNE16.jpg,AMNE12.jpg,AMSA20.jpg,AMNE16.jpg,MN,1,num_6,16,num_6,0.466778476373,,,2017_Jun_30_1644,60.0013856165,FEMA4ImagesEEG,001,100853,
AFNE01.JPG,AFNE01.JPG,AFNE01.JPG,AFNE01.JPG,AFNE01.JPG,AFNE01.JPG,,,,,5,0,50,2,,,,,,,,,,,,,,,,,,,AMSA11.jpg,AMSA17.jpg,AMNE06.jpg,AMNE15.jpg,AMSA17.jpg,MS,2,num_6,32,num_2,1.016739699,,,2017_Jun_30_1644,60.0013856165,FEMA4ImagesEEG,001,100853,
AFNE01.JPG,AFNE01.JPG,AFNE01.JPG,AFNE01.JPG,AFNE01.JPG,AFNE01.JPG,,,,,5,1,51,4,,,,,,,,,,,,,,,,,,,AMSA12.jpg,AMSA05.jpg,AMNE20.jpg,AMNE05.jpg,AMNE20.jpg,MN,1,num_2,32,num_4,0.733479526243,,,2017_Jun_30_1644,60.0013856165,FEMA4ImagesEEG,001,100853,
AFNE01.JPG,AFNE01.JPG,AFNE01.JPG,AFNE01.JPG,AFNE01.JPG,AFNE01.JPG,,,,,5,2,52,6,,,,,,,,,,,,,,,,,,,AMNE15.jpg,AMSA12.jpg,AMSA04.jpg,AMNE08.jpg,AMSA04.jpg,MS,2,num_2,32,num_4,0.450125697651,,,2017_Jun_30_1644,60.0013856165,FEMA4ImagesEEG,001,100853,
AFNE01.JPG,AFNE01.JPG,AFNE01.JPG,AFNE01.JPG,AFNE01.JPG,AFNE01.JPG,,,,,5,3,53,7,,,,,,,,,,,,,,,,,,,AMSA20.jpg,AMNE11.jpg,AMSA11.jpg,AMNE12.jpg,AMNE12.jpg,MN,1,num_4,32,num_8,0.716760354582,,,2017_Jun_30_1644,60.0013856165,FEMA4ImagesEEG,001,100853,
AFNE01.JPG,AFNE01.JPG,AFNE01.JPG,AFNE01.JPG,AFNE01.JPG,AFNE01.JPG,,,,,5,4,54,5,,,,,,,,,,,,,,,,,,,AMNE16.jpg,AMNE03.jpg,AMSA19.jpg,AMSA11.jpg,AMNE16.jpg,MN,1,num_8,32,num_2,0.66677828395,,,2017_Jun_30_1644,60.0013856165,FEMA4ImagesEEG,001,100853,
AFNE01.JPG,AFNE01.JPG,AFNE01.JPG,AFNE01.JPG,AFNE01.JPG,AFNE01.JPG,,,,,5,5,55,3,,,,,,,,,,,,,,,,,,,AMSA12.jpg,AMNE07.jpg,AMNE17.jpg,AMSA10.jpg,AMSA12.jpg,MS,2,num_8,32,num_4,1.06678880414,,,2017_Jun_30_1644,60.0013856165,FEMA4ImagesEEG,001,100853,
AFNE01.JPG,AFNE01.JPG,AFNE01.JPG,AFNE01.JPG,AFNE01.JPG,AFNE01.JPG,,,,,5,6,56,8,,,,,,,,,,,,,,,,,,,AMSA03.jpg,AMSA17.jpg,AMNE03.jpg,AMNE09.jpg,AMNE03.jpg,MN,1,num_2,16,num_2,0.70046520012,,,2017_Jun_30_1644,60.0013856165,FEMA4ImagesEEG,001,100853,
AFNE01.JPG,AFNE01.JPG,AFNE01.JPG,AFNE01.JPG,AFNE01.JPG,AFNE01.JPG,,,,,5,7,57,1,,,,,,,,,,,,,,,,,,,AMNE09.jpg,AMNE16.jpg,AMSA15.jpg,AMSA18.jpg,AMSA15.jpg,MS,2,num_2,16,num_2,0.733421151701,,,2017_Jun_30_1644,60.0013856165,FEMA4ImagesEEG,001,100853,
AFNE01.JPG,AFNE01.JPG,AFNE01.JPG,AFNE01.JPG,AFNE01.JPG,AFNE01.JPG,,,,,5,8,58,9,,,,,,,,,,,,,,,,,,,AMSA20.jpg,AMNE14.jpg,AMSA18.jpg,AMNE04.jpg,AMNE14.jpg,MN,1,num_6,16,num_6,0.566784313763,,,2017_Jun_30_1644,60.0013856165,FEMA4ImagesEEG,001,100853,
AFNE01.JPG,AFNE01.JPG,AFNE01.JPG,AFNE01.JPG,AFNE01.JPG,AFNE01.JPG,,,,,5,9,59,0,,,,,,,,,,,,,,,,,,,AMNE20.jpg,AMNE02.jpg,AMSA13.jpg,AMSA04.jpg,AMNE02.jpg,MN,1,num_6,32,num_4,0.666773793579,,,2017_Jun_30_1644,60.0013856165,FEMA4ImagesEEG,001,100853,
,,,,,,,,,,,,,,,,,,,,,,,,,,,,,,,,,,,,,,,,,,,space,5.78301063762,2017_Jun_30_1644,60.0013856165,FEMA4ImagesEEG,001,100853,
AFNE01.JPG,AFNE01.JPG,AFNE01.JPG,AFNE01.JPG,AFNE01.JPG,AFNE01.JPG,,,,,,,,,0,0,0,7,,,,,,,,,,,,,,,AFNE08.jpg,AFSA10.jpg,AFSA02.jpg,AFNE14.jpg,AFSA02.jpg,FS,4,num_2,32,num_4,0.433499219595,,,2017_Jun_30_1644,60.0013856165,FEMA4ImagesEEG,001,100853,
AFNE01.JPG,AFNE01.JPG,AFNE01.JPG,AFNE01.JPG,AFNE01.JPG,AFNE01.JPG,,,,,,,,,0,1,1,5,,,,,,,,,,,,,,,AFNE06.jpg,AFNE18.jpg,AFSA02.jpg,AFSA11.jpg,AFNE06.jpg,FN,3,num_8,16,num_8,0.633494216134,,,2017_Jun_30_1644,60.0013856165,FEMA4ImagesEEG,001,100853,
AFNE01.JPG,AFNE01.JPG,AFNE01.JPG,AFNE01.JPG,AFNE01.JPG,AFNE01.JPG,,,,,,,,,0,2,2,8,,,,,,,,,,,,,,,AFNE03.jpg,AFSA07.jpg,AFNE04.jpg,AFSA17.jpg,AFNE04.jpg,FN,3,num_2,16,num_2,0.900148117333,,,2017_Jun_30_1644,60.0013856165,FEMA4ImagesEEG,001,100853,
AFNE01.JPG,AFNE01.JPG,AFNE01.JPG,AFNE01.JPG,AFNE01.JPG,AFNE01.JPG,,,,,,,,,0,3,3,4,,,,,,,,,,,,,,,AFSA11.jpg,AFSA07.jpg,AFNE11.jpg,AFNE07.jpg,AFSA07.jpg,FS,4,num_6,16,num_6,0.63351602637,,,2017_Jun_30_1644,60.0013856165,FEMA4ImagesEEG,001,100853,
AFNE01.JPG,AFNE01.JPG,AFNE01.JPG,AFNE01.JPG,AFNE01.JPG,AFNE01.JPG,,,,,,,,,0,4,4,1,,,,,,,,,,,,,,,AFNE19.jpg,AFSA05.jpg,AFNE15.jpg,AFSA18.jpg,AFSA18.jpg,FS,4,num_4,32,num_6,0.733494280255,,,2017_Jun_30_1644,60.0013856165,FEMA4ImagesEEG,001,100853,
AFNE01.JPG,AFNE01.JPG,AFNE01.JPG,AFNE01.JPG,AFNE01.JPG,AFNE01.JPG,,,,,,,,,0,5,5,0,,,,,,,,,,,,,,,AFSA16.jpg,AFNE11.jpg,AFNE12.jpg,AFSA08.jpg,AFNE11.jpg,FN,3,num_6,32,num_2,1.18341566704,,,2017_Jun_30_1644,60.0013856165,FEMA4ImagesEEG,001,100853,
AFNE01.JPG,AFNE01.JPG,AFNE01.JPG,AFNE01.JPG,AFNE01.JPG,AFNE01.JPG,,,,,,,,,0,6,6,9,,,,,,,,,,,,,,,AFNE04.jpg,AFNE02.jpg,AFSA05.jpg,AFSA12.jpg,AFNE04.jpg,FN,3,num_8,32,num_4,0.800136506616,,,2017_Jun_30_1644,60.0013856165,FEMA4ImagesEEG,001,100853,
AFNE01.JPG,AFNE01.JPG,AFNE01.JPG,AFNE01.JPG,AFNE01.JPG,AFNE01.JPG,,,,,,,,,0,7,7,2,,,,,,,,,,,,,,,AFNE04.jpg,AFSA13.jpg,AFSA02.jpg,AFNE16.jpg,AFNE04.jpg,FN,3,num_8,32,num_2,0.750347520923,,,2017_Jun_30_1644,60.0013856165,FEMA4ImagesEEG,001,100853,
AFNE01.JPG,AFNE01.JPG,AFNE01.JPG,AFNE01.JPG,AFNE01.JPG,AFNE01.JPG,,,,,,,,,0,8,8,6,,,,,,,,,,,,,,,AFSA17.jpg,AFNE13.jpg,AFSA14.jpg,AFNE06.jpg,AFNE13.jpg,FN,3,num_6,32,num_8,0.350118256523,,,2017_Jun_30_1644,60.0013856165,FEMA4ImagesEEG,001,100853,
AFNE01.JPG,AFNE01.JPG,AFNE01.JPG,AFNE01.JPG,AFNE01.JPG,AFNE01.JPG,,,,,,,,,0,9,9,3,,,,,,,,,,,,,,,AFNE07.jpg,AFSA02.jpg,AFNE19.jpg,AFSA01.jpg,AFNE07.jpg,FN,3,num_8,32,num_4,0.733462847769,,,2017_Jun_30_1644,60.0013856165,FEMA4ImagesEEG,001,100853,
AFNE01.JPG,AFNE01.JPG,AFNE01.JPG,AFNE01.JPG,AFNE01.JPG,AFNE01.JPG,,,,,,,,,1,0,10,8,,,,,,,,,,,,,,,AFSA17.jpg,AFNE01.jpg,AFNE02.jpg,AFSA08.jpg,AFNE01.jpg,FN,3,num_6,32,num_4,0.533494472736,,,2017_Jun_30_1644,60.0013856165,FEMA4ImagesEEG,001,100853,
AFNE01.JPG,AFNE01.JPG,AFNE01.JPG,AFNE01.JPG,AFNE01.JPG,AFNE01.JPG,,,,,,,,,1,1,11,3,,,,,,,,,,,,,,,AFNE19.jpg,AFSA05.jpg,AFNE09.jpg,AFSA20.jpg,AFSA20.jpg,FS,4,num_4,16,num_4,0.566773408675,,,2017_Jun_30_1644,60.0013856165,FEMA4ImagesEEG,001,100853,
AFNE01.JPG,AFNE01.JPG,AFNE01.JPG,AFNE01.JPG,AFNE01.JPG,AFNE01.JPG,,,,,,,,,1,2,12,4,,,,,,,,,,,,,,,AFSA07.jpg,AFNE03.jpg,AFSA14.jpg,AFNE12.jpg,AFNE03.jpg,FN,3,num_6,16,num_6,0.350166688149,,,2017_Jun_30_1644,60.0013856165,FEMA4ImagesEEG,001,100853,
AFNE01.JPG,AFNE01.JPG,AFNE01.JPG,AFNE01.JPG,AFNE01.JPG,AFNE01.JPG,,,,,,,,,1,3,13,6,,,,,,,,,,,,,,,AFSA06.jpg,AFNE16.jpg,AFSA08.jpg,AFNE03.jpg,AFNE16.jpg,FN,3,num_6,32,num_4,0.383574561332,,,2017_Jun_30_1644,60.0013856165,FEMA4ImagesEEG,001,100853,
AFNE01.JPG,AFNE01.JPG,AFNE01.JPG,AFNE01.JPG,AFNE01.JPG,AFNE01.JPG,,,,,,,,,1,4,14,1,,,,,,,,,,,,,,,AFSA14.jpg,AFNE10.jpg,AFNE02.jpg,AFSA07.jpg,AFNE02.jpg,FN,3,num_2,32,num_6,2.65001709538,,,2017_Jun_30_1644,60.0013856165,FEMA4ImagesEEG,001,100853,
AFNE01.JPG,AFNE01.JPG,AFNE01.JPG,AFNE01.JPG,AFNE01.JPG,AFNE01.JPG,,,,,,,,,1,5,15,0,,,,,,,,,,,,,,,AFNE01.jpg,AFSA05.jpg,AFNE09.jpg,AFSA14.jpg,AFSA05.jpg,FS,4,num_6,16,num_6,0.500180576171,,,2017_Jun_30_1644,60.0013856165,FEMA4ImagesEEG,001,100853,
AFNE01.JPG,AFNE01.JPG,AFNE01.JPG,AFNE01.JPG,AFNE01.JPG,AFNE01.JPG,,,,,,,,,1,6,16,2,,,,,,,,,,,,,,,AFSA11.jpg,AFNE14.jpg,AFSA15.jpg,AFNE13.jpg,AFSA15.jpg,FS,4,num_2,16,num_2,0.816770040896,,,2017_Jun_30_1644,60.0013856165,FEMA4ImagesEEG,001,100853,
AFNE01.JPG,AFNE01.JPG,AFNE01.JPG,AFNE01.JPG,AFNE01.JPG,AFNE01.JPG,,,,,,,,,1,7,17,7,,,,,,,,,,,,,,,AFSA20.jpg,AFNE11.jpg,AFNE10.jpg,AFSA11.jpg,AFNE11.jpg,FN,3,num_6,32,num_2,0.633475613256,,,2017_Jun_30_1644,60.0013856165,FEMA4ImagesEEG,001,100853,
AFNE01.JPG,AFNE01.JPG,AFNE01.JPG,AFNE01.JPG,AFNE01.JPG,AFNE01.JPG,,,,,,,,,1,8,18,9,,,,,,,,,,,,,,,AFNE17.jpg,AFSA14.jpg,AFSA20.jpg,AFNE18.jpg,AFSA14.jpg,FS,4,num_6,32,num_4,0.816776135005,,,2017_Jun_30_1644,60.0013856165,FEMA4ImagesEEG,001,100853,
AFNE01.JPG,AFNE01.JPG,AFNE01.JPG,AFNE01.JPG,AFNE01.JPG,AFNE01.JPG,,,,,,,,,1,9,19,5,,,,,,,,,,,,,,,AFSA08.jpg,AFSA02.jpg,AFNE08.jpg,AFNE06.jpg,AFSA02.jpg,FS,4,num_6,16,num_6,0.400004105468,,,2017_Jun_30_1644,60.0013856165,FEMA4ImagesEEG,001,100853,
AFNE01.JPG,AFNE01.JPG,AFNE01.JPG,AFNE01.JPG,AFNE01.JPG,AFNE01.JPG,,,,,,,,,2,0,20,2,,,,,,,,,,,,,,,AFNE07.jpg,AFSA13.jpg,AFSA11.jpg,AFNE20.jpg,AFSA13.jpg,FS,4,num_6,16,num_6,1.18340476195,,,2017_Jun_30_1644,60.0013856165,FEMA4ImagesEEG,001,100853,
AFNE01.JPG,AFNE01.JPG,AFNE01.JPG,AFNE01.JPG,AFNE01.JPG,AFNE01.JPG,,,,,,,,,2,1,21,5,,,,,,,,,,,,,,,AFNE01.jpg,AFSA03.jpg,AFNE20.jpg,AFSA09.jpg,AFNE01.jpg,FN,3,num_8,32,num_6,0.483488346566,,,2017_Jun_30_1644,60.0013856165,FEMA4ImagesEEG,001,100853,
AFNE01.JPG,AFNE01.JPG,AFNE01.JPG,AFNE01.JPG,AFNE01.JPG,AFNE01.JPG,,,,,,,,,2,2,22,3,,,,,,,,,,,,,,,AFSA14.jpg,AFNE03.jpg,AFNE18.jpg,AFSA01.jpg,AFNE18.jpg,FN,3,num_2,32,num_6,0.466790022969,,,2017_Jun_30_1644,60.0013856165,FEMA4ImagesEEG,001,100853,
AFNE01.JPG,AFNE01.JPG,AFNE01.JPG,AFNE01.JPG,AFNE01.JPG,AFNE01.JPG,,,,,,,,,2,3,23,9,,,,,,,,,,,,,,,AFNE04.jpg,AFNE12.jpg,AFSA08.jpg,AFSA18.jpg,AFNE04.jpg,FN,3,num_8,16,num_8,0.916754388832,,,2017_Jun_30_1644,60.0013856165,FEMA4ImagesEEG,001,100853,
AFNE01.JPG,AFNE01.JPG,AFNE01.JPG,AFNE01.JPG,AFNE01.JPG,AFNE01.JPG,,,,,,,,,2,4,24,0,,,,,,,,,,,,,,,AFNE10.jpg,AFNE14.jpg,AFSA11.jpg,AFSA10.jpg,AFNE10.jpg,FN,3,num_8,16,num_8,0.783444597735,,,2017_Jun_30_1644,60.0013856165,FEMA4ImagesEEG,001,100853,
AFNE01.JPG,AFNE01.JPG,AFNE01.JPG,AFNE01.JPG,AFNE01.JPG,AFNE01.JPG,,,,,,,,,2,5,25,6,,,,,,,,,,,,,,,AFNE16.jpg,AFSA01.jpg,AFSA14.jpg,AFNE06.jpg,AFNE16.jpg,FN,3,num_8,16,num_8,0.833325314859,,,2017_Jun_30_1644,60.0013856165,FEMA4ImagesEEG,001,100853,
AFNE01.JPG,AFNE01.JPG,AFNE01.JPG,AFNE01.JPG,AFNE01.JPG,AFNE01.JPG,,,,,,,,,2,6,26,4,,,,,,,,,,,,,,,AFSA10.jpg,AFNE15.jpg,AFNE10.jpg,AFSA01.jpg,AFNE10.jpg,FN,3,num_2,32,num_4,0.516774018062,,,2017_Jun_30_1644,60.0013856165,FEMA4ImagesEEG,001,100853,
AFNE01.JPG,AFNE01.JPG,AFNE01.JPG,AFNE01.JPG,AFNE01.JPG,AFNE01.JPG,,,,,,,,,2,7,27,8,,,,,,,,,,,,,,,AFNE03.jpg,AFNE16.jpg,AFSA01.jpg,AFSA08.jpg,AFNE03.jpg,FN,3,num_8,32,num_4,0.516723982757,,,2017_Jun_30_1644,60.0013856165,FEMA4ImagesEEG,001,100853,
AFNE01.JPG,AFNE01.JPG,AFNE01.JPG,AFNE01.JPG,AFNE01.JPG,AFNE01.JPG,,,,,,,,,2,8,28,1,,,,,,,,,,,,,,,AFNE10.jpg,AFSA13.jpg,AFSA06.jpg,AFNE02.jpg,AFNE02.jpg,FN,3,num_4,32,num_6,0.866733829433,,,2017_Jun_30_1644,60.0013856165,FEMA4ImagesEEG,001,100853,
AFNE01.JPG,AFNE01.JPG,AFNE01.JPG,AFNE01.JPG,AFNE01.JPG,AFNE01.JPG,,,,,,,,,2,9,29,7,,,,,,,,,,,,,,,AFSA11.jpg,AFNE15.jpg,AFSA06.jpg,AFNE16.jpg,AFNE16.jpg,FN,3,num_4,32,num_8,0.50017191621,,,2017_Jun_30_1644,60.0013856165,FEMA4ImagesEEG,001,100853,
AFNE01.JPG,AFNE01.JPG,AFNE01.JPG,AFNE01.JPG,AFNE01.JPG,AFNE01.JPG,,,,,,,,,3,0,30,1,,,,,,,,,,,,,,,AFNE10.jpg,AFNE01.jpg,AFSA03.jpg,AFSA19.jpg,AFNE01.jpg,FN,3,num_6,32,num_4,0.416866326763,,,2017_Jun_30_1644,60.0013856165,FEMA4ImagesEEG,001,100853,
AFNE01.JPG,AFNE01.JPG,AFNE01.JPG,AFNE01.JPG,AFNE01.JPG,AFNE01.JPG,,,,,,,,,3,1,31,0,,,,,,,,,,,,,,,AFSA17.jpg,AFNE20.jpg,AFSA02.jpg,AFNE09.jpg,AFNE09.jpg,FN,3,num_4,32,num_8,1.31674341956,,,2017_Jun_30_1644,60.0013856165,FEMA4ImagesEEG,001,100853,
AFNE01.JPG,AFNE01.JPG,AFNE01.JPG,AFNE01.JPG,AFNE01.JPG,AFNE01.JPG,,,,,,,,,3,2,32,9,,,,,,,,,,,,,,,AFSA04.jpg,AFSA08.jpg,AFNE15.jpg,AFNE04.jpg,AFNE15.jpg,FN,3,num_2,32,num_8,0.350142632728,,,2017_Jun_30_1644,60.0013856165,FEMA4ImagesEEG,001,100853,
AFNE01.JPG,AFNE01.JPG,AFNE01.JPG,AFNE01.JPG,AFNE01.JPG,AFNE01.JPG,,,,,,,,,3,3,33,2,,,,,,,,,,,,,,,AFNE07.jpg,AFSA08.jpg,AFNE11.jpg,AFSA07.jpg,AFNE11.jpg,FN,3,num_2,32,num_6,0.466786815552,,,2017_Jun_30_1644,60.0013856165,FEMA4ImagesEEG,001,100853,
AFNE01.JPG,AFNE01.JPG,AFNE01.JPG,AFNE01.JPG,AFNE01.JPG,AFNE01.JPG,,,,,,,,,3,4,34,7,,,,,,,,,,,,,,,AFNE05.jpg,AFNE17.jpg,AFSA08.jpg,AFSA11.jpg,AFNE05.jpg,FN,3,num_8,32,num_6,0.866763978906,,,2017_Jun_30_1644,60.0013856165,FEMA4ImagesEEG,001,100853,
AFNE01.JPG,AFNE01.JPG,AFNE01.JPG,AFNE01.JPG,AFNE01.JPG,AFNE01.JPG,,,,,,,,,3,5,35,8,,,,,,,,,,,,,,,AFSA20.jpg,AFNE12.jpg,AFSA19.jpg,AFNE17.jpg,AFNE12.jpg,FN,3,num_6,32,num_8,0.616786911793,,,2017_Jun_30_1644,60.0013856165,FEMA4ImagesEEG,001,100853,
AFNE01.JPG,AFNE01.JPG,AFNE01.JPG,AFNE01.JPG,AFNE01.JPG,AFNE01.JPG,,,,,,,,,3,6,36,6,,,,,,,,,,,,,,,AFNE04.jpg,AFSA11.jpg,AFNE16.jpg,AFSA12.jpg,AFNE16.jpg,FN,3,num_2,16,num_2,1.5333668185,,,2017_Jun_30_1644,60.0013856165,FEMA4ImagesEEG,001,100853,
AFNE01.JPG,AFNE01.JPG,AFNE01.JPG,AFNE01.JPG,AFNE01.JPG,AFNE01.JPG,,,,,,,,,3,7,37,3,,,,,,,,,,,,,,,AFSA10.jpg,AFNE18.jpg,AFNE12.jpg,AFSA19.jpg,AFNE18.jpg,FN,3,num_6,16,num_6,1.01677145215,,,2017_Jun_30_1644,60.0013856165,FEMA4ImagesEEG,001,100853,
AFNE01.JPG,AFNE01.JPG,AFNE01.JPG,AFNE01.JPG,AFNE01.JPG,AFNE01.JPG,,,,,,,,,3,8,38,4,,,,,,,,,,,,,,,AFSA01.jpg,AFNE20.jpg,AFSA09.jpg,AFNE02.jpg,AFSA09.jpg,FS,4,num_2,32,num_6,0.816813019977,,,2017_Jun_30_1644,60.0013856165,FEMA4ImagesEEG,001,100853,
AFNE01.JPG,AFNE01.JPG,AFNE01.JPG,AFNE01.JPG,AFNE01.JPG,AFNE01.JPG,,,,,,,,,3,9,39,5,,,,,,,,,,,,,,,AFSA08.jpg,AFNE18.jpg,AFNE15.jpg,AFSA13.jpg,AFSA08.jpg,FS,4,num_8,32,num_4,0.783454540651,,,2017_Jun_30_1644,60.0013856165,FEMA4ImagesEEG,001,100853,
AFNE01.JPG,AFNE01.JPG,AFNE01.JPG,AFNE01.JPG,AFNE01.JPG,AFNE01.JPG,,,,,,,,,4,0,40,3,,,,,,,,,,,,,,,AFNE01.jpg,AFSA07.jpg,AFSA11.jpg,AFNE15.jpg,AFNE01.jpg,FN,3,num_8,16,num_8,0.666789830488,,,2017_Jun_30_1644,60.0013856165,FEMA4ImagesEEG,001,100853,
AFNE01.JPG,AFNE01.JPG,AFNE01.JPG,AFNE01.JPG,AFNE01.JPG,AFNE01.JPG,,,,,,,,,4,1,41,1,,,,,,,,,,,,,,,AFSA12.jpg,AFSA13.jpg,AFNE11.jpg,AFNE16.jpg,AFSA12.jpg,FS,4,num_8,16,num_8,0.716758750903,,,2017_Jun_30_1644,60.0013856165,FEMA4ImagesEEG,001,100853,
AFNE01.JPG,AFNE01.JPG,AFNE01.JPG,AFNE01.JPG,AFNE01.JPG,AFNE01.JPG,,,,,,,,,4,2,42,0,,,,,,,,,,,,,,,AFNE03.jpg,AFNE06.jpg,AFSA01.jpg,AFSA09.jpg,AFSA01.jpg,FS,4,num_2,32,num_4,1.06670637417,,,2017_Jun_30_1644,60.0013856165,FEMA4ImagesEEG,001,100853,
AFNE01.JPG,AFNE01.JPG,AFNE01.JPG,AFNE01.JPG,AFNE01.JPG,AFNE01.JPG,,,,,,,,,4,3,43,2,,,,,,,,,,,,,,,AFNE14.jpg,AFNE07.jpg,AFSA19.jpg,AFSA01.jpg,AFNE07.jpg,FN,3,num_6,16,num_6,1.03346496465,,,2017_Jun_30_1644,60.0013856165,FEMA4ImagesEEG,001,100853,
AFNE01.JPG,AFNE01.JPG,AFNE01.JPG,AFNE01.JPG,AFNE01.JPG,AFNE01.JPG,,,,,,,,,4,4,44,6,,,,,,,,,,,,,,,AFSA04.jpg,AFNE16.jpg,AFNE03.jpg,AFSA10.jpg,AFNE03.jpg,FN,3,num_2,32,num_6,0.866748583503,,,2017_Jun_30_1644,60.0013856165,FEMA4ImagesEEG,001,100853,
AFNE01.JPG,AFNE01.JPG,AFNE01.JPG,AFNE01.JPG,AFNE01.JPG,AFNE01.JPG,,,,,,,,,4,5,45,5,,,,,,,,,,,,,,,AFNE10.jpg,AFNE03.jpg,AFSA08.jpg,AFSA06.jpg,AFSA08.jpg,FS,4,num_2,32,num_4,0.75010857021,,,2017_Jun_30_1644,60.0013856165,FEMA4ImagesEEG,001,100853,
AFNE01.JPG,AFNE01.JPG,AFNE01.JPG,AFNE01.JPG,AFNE01.JPG,AFNE01.JPG,,,,,,,,,4,6,46,8,,,,,,,,,,,,,,,AFNE11.jpg,AFSA17.jpg,AFNE16.jpg,AFSA01.jpg,AFSA17.jpg,FS,4,num_6,16,num_6,0.86673286726,,,2017_Jun_30_1644,60.0013856165,FEMA4ImagesEEG,001,100853,
AFNE01.JPG,AFNE01.JPG,AFNE01.JPG,AFNE01.JPG,AFNE01.JPG,AFNE01.JPG,,,,,,,,,4,7,47,4,,,,,,,,,,,,,,,AFNE14.jpg,AFNE16.jpg,AFSA09.jpg,AFSA16.jpg,AFNE16.jpg,FN,3,num_6,32,num_4,0.733463810058,,,2017_Jun_30_1644,60.0013856165,FEMA4ImagesEEG,001,100853,
AFNE01.JPG,AFNE01.JPG,AFNE01.JPG,AFNE01.JPG,AFNE01.JPG,AFNE01.JPG,,,,,,,,,4,8,48,9,,,,,,,,,,,,,,,AFSA04.jpg,AFNE13.jpg,AFSA02.jpg,AFNE05.jpg,AFSA04.jpg,FS,4,num_8,16,num_8,0.750179453578,,,2017_Jun_30_1644,60.0013856165,FEMA4ImagesEEG,001,100853,
AFNE01.JPG,AFNE01.JPG,AFNE01.JPG,AFNE01.JPG,AFNE01.JPG,AFNE01.JPG,,,,,,,,,4,9,49,7,,,,,,,,,,,,,,,AFSA05.jpg,AFNE18.jpg,AFSA07.jpg,AFNE16.jpg,AFSA05.jpg,FS,4,num_8,32,num_4,0.333522248722,,,2017_Jun_30_1644,60.0013856165,FEMA4ImagesEEG,001,100853,
AFNE01.JPG,AFNE01.JPG,AFNE01.JPG,AFNE01.JPG,AFNE01.JPG,AFNE01.JPG,,,,,,,,,5,0,50,1,,,,,,,,,,,,,,,AFNE10.jpg,AFSA12.jpg,AFSA19.jpg,AFNE11.jpg,AFNE11.jpg,FN,3,num_4,32,num_8,0.500151388871,,,2017_Jun_30_1644,60.0013856165,FEMA4ImagesEEG,001,100853,
AFNE01.JPG,AFNE01.JPG,AFNE01.JPG,AFNE01.JPG,AFNE01.JPG,AFNE01.JPG,,,,,,,,,5,1,51,5,,,,,,,,,,,,,,,AFNE17.jpg,AFSA05.jpg,AFSA08.jpg,AFNE16.jpg,AFSA05.jpg,FS,4,num_6,16,num_6,0.616808722087,,,2017_Jun_30_1644,60.0013856165,FEMA4ImagesEEG,001,100853,
AFNE01.JPG,AFNE01.JPG,AFNE01.JPG,AFNE01.JPG,AFNE01.JPG,AFNE01.JPG,,,,,,,,,5,2,52,2,,,,,,,,,,,,,,,AFSA06.jpg,AFNE15.jpg,AFNE08.jpg,AFSA13.jpg,AFSA06.jpg,FS,4,num_8,16,num_8,0.516795828298,,,2017_Jun_30_1644,60.0013856165,FEMA4ImagesEEG,001,100853,
AFNE01.JPG,AFNE01.JPG,AFNE01.JPG,AFNE01.JPG,AFNE01.JPG,AFNE01.JPG,,,,,,,,,5,3,53,0,,,,,,,,,,,,,,,AFSA13.jpg,AFNE09.jpg,AFNE04.jpg,AFSA07.jpg,AFNE04.jpg,FN,3,num_2,16,num_2,1.2834471637,,,2017_Jun_30_1644,60.0013856165,FEMA4ImagesEEG,001,100853,
AFNE01.JPG,AFNE01.JPG,AFNE01.JPG,AFNE01.JPG,AFNE01.JPG,AFNE01.JPG,,,,,,,,,5,4,54,7,,,,,,,,,,,,,,,AFSA02.jpg,AFSA12.jpg,AFNE16.jpg,AFNE12.jpg,AFNE16.jpg,FN,3,num_2,16,num_2,0.750117230171,,,2017_Jun_30_1644,60.0013856165,FEMA4ImagesEEG,001,100853,
AFNE01.JPG,AFNE01.JPG,AFNE01.JPG,AFNE01.JPG,AFNE01.JPG,AFNE01.JPG,,,,,,,,,5,5,55,3,,,,,,,,,,,,,,,AFSA02.jpg,AFNE12.jpg,AFSA14.jpg,AFNE15.jpg,AFNE12.jpg,FN,3,num_6,16,num_6,0.8835187527,,,2017_Jun_30_1644,60.0013856165,FEMA4ImagesEEG,001,100853,
AFNE01.JPG,AFNE01.JPG,AFNE01.JPG,AFNE01.JPG,AFNE01.JPG,AFNE01.JPG,,,,,,,,,5,6,56,9,,,,,,,,,,,,,,,AFSA15.jpg,AFSA10.jpg,AFNE20.jpg,AFNE01.jpg,AFSA15.jpg,FS,4,num_8,16,num_8,0.783463521395,,,2017_Jun_30_1644,60.0013856165,FEMA4ImagesEEG,001,100853,
AFNE01.JPG,AFNE01.JPG,AFNE01.JPG,AFNE01.JPG,AFNE01.JPG,AFNE01.JPG,,,,,,,,,5,7,57,4,,,,,,,,,,,,,,,AFSA19.jpg,AFNE12.jpg,AFNE18.jpg,AFSA07.jpg,AFNE12.jpg,FN,3,num_6,32,num_8,0.65008380916,,,2017_Jun_30_1644,60.0013856165,FEMA4ImagesEEG,001,100853,
AFNE01.JPG,AFNE01.JPG,AFNE01.JPG,AFNE01.JPG,AFNE01.JPG,AFNE01.JPG,,,,,,,,,5,8,58,6,,,,,,,,,,,,,,,AFNE15.jpg,AFNE02.jpg,AFSA13.jpg,AFSA18.jpg,AFNE15.jpg,FN,3,num_8,32,num_2,1.11675259273,,,2017_Jun_30_1644,60.0013856165,FEMA4ImagesEEG,001,100853,
AFNE01.JPG,AFNE01.JPG,AFNE01.JPG,AFNE01.JPG,AFNE01.JPG,AFNE01.JPG,,,,,,,,,5,9,59,8,,,,,,,,,,,,,,,AFNE05.jpg,AFSA01.jpg,AFNE06.jpg,AFSA12.jpg,AFSA01.jpg,FS,4,num_6,32,num_8,0.700156649051,,,2017_Jun_30_1644,60.0013856165,FEMA4ImagesEEG,001,100853,
,,,,,,,,,,,,,,,,,,,,,,,,,,,,,,,,,,,,,,,,,,,space,12.64885185,2017_Jun_30_1644,60.0013856165,FEMA4ImagesEEG,001,100853,
AFNE01.JPG,AFNE01.JPG,AFNE01.JPG,AFNE01.JPG,AFNE01.JPG,AFNE01.JPG,,,,,,,,,,,,,0,0,0,4,,,,,,,,,,,AMSA18.jpg,AMNE17.jpg,AMNE04.jpg,AMSA11.jpg,AMSA11.jpg,MS,2,num_4,16,num_4,0.650251876505,,,2017_Jun_30_1644,60.0013856165,FEMA4ImagesEEG,001,100853,
AFNE01.JPG,AFNE01.JPG,AFNE01.JPG,AFNE01.JPG,AFNE01.JPG,AFNE01.JPG,,,,,,,,,,,,,0,1,1,8,,,,,,,,,,,AMSA12.jpg,AMNE08.jpg,AMNE18.jpg,AMSA06.jpg,AMSA06.jpg,MS,2,num_4,32,num_8,0.583533314173,,,2017_Jun_30_1644,60.0013856165,FEMA4ImagesEEG,001,100853,
AFNE01.JPG,AFNE01.JPG,AFNE01.JPG,AFNE01.JPG,AFNE01.JPG,AFNE01.JPG,,,,,,,,,,,,,0,2,2,9,,,,,,,,,,,AMNE11.jpg,AMSA14.jpg,AMSA15.jpg,AMNE06.jpg,AMNE06.jpg,MN,1,num_4,32,num_2,0.766802724218,,,2017_Jun_30_1644,60.0013856165,FEMA4ImagesEEG,001,100853,
AFNE01.JPG,AFNE01.JPG,AFNE01.JPG,AFNE01.JPG,AFNE01.JPG,AFNE01.JPG,,,,,,,,,,,,,0,3,3,0,,,,,,,,,,,AMNE20.jpg,AMNE19.jpg,AMSA09.jpg,AMSA08.jpg,AMSA09.jpg,MS,2,num_2,32,num_4,0.600126435398,,,2017_Jun_30_1644,60.0013856165,FEMA4ImagesEEG,001,100853,
AFNE01.JPG,AFNE01.JPG,AFNE01.JPG,AFNE01.JPG,AFNE01.JPG,AFNE01.JPG,,,,,,,,,,,,,0,4,4,1,,,,,,,,,,,AMSA12.jpg,AMNE16.jpg,AMSA08.jpg,AMNE01.jpg,AMSA12.jpg,MS,2,num_8,16,num_8,0.750215055654,,,2017_Jun_30_1644,60.0013856165,FEMA4ImagesEEG,001,100853,
AFNE01.JPG,AFNE01.JPG,AFNE01.JPG,AFNE01.JPG,AFNE01.JPG,AFNE01.JPG,,,,,,,,,,,,,0,5,5,2,,,,,,,,,,,AMSA14.jpg,AMSA03.jpg,AMNE01.jpg,AMNE03.jpg,AMNE01.jpg,MN,1,num_2,32,num_4,0.750105362851,,,2017_Jun_30_1644,60.0013856165,FEMA4ImagesEEG,001,100853,
AFNE01.JPG,AFNE01.JPG,AFNE01.JPG,AFNE01.JPG,AFNE01.JPG,AFNE01.JPG,,,,,,,,,,,,,0,6,6,6,,,,,,,,,,,AMNE03.jpg,AMNE11.jpg,AMSA11.jpg,AMSA04.jpg,AMSA04.jpg,MS,2,num_4,32,num_8,0.350148405996,,,2017_Jun_30_1644,60.0013856165,FEMA4ImagesEEG,001,100853,
AFNE01.JPG,AFNE01.JPG,AFNE01.JPG,AFNE01.JPG,AFNE01.JPG,AFNE01.JPG,,,,,,,,,,,,,0,7,7,3,,,,,,,,,,,AMSA09.jpg,AMSA01.jpg,AMNE16.jpg,AMNE15.jpg,AMNE16.jpg,MN,1,num_2,32,num_6,0.416818536643,,,2017_Jun_30_1644,60.0013856165,FEMA4ImagesEEG,001,100853,
AFNE01.JPG,AFNE01.JPG,AFNE01.JPG,AFNE01.JPG,AFNE01.JPG,AFNE01.JPG,,,,,,,,,,,,,0,8,8,5,,,,,,,,,,,AMNE06.jpg,AMNE08.jpg,AMSA04.jpg,AMSA11.jpg,AMNE08.jpg,MN,1,num_6,32,num_4,0.550138912164,,,2017_Jun_30_1644,60.0013856165,FEMA4ImagesEEG,001,100853,
AFNE01.JPG,AFNE01.JPG,AFNE01.JPG,AFNE01.JPG,AFNE01.JPG,AFNE01.JPG,,,,,,,,,,,,,0,9,9,7,,,,,,,,,,,AMNE19.jpg,AMNE02.jpg,AMSA18.jpg,AMSA14.jpg,AMSA18.jpg,MS,2,num_2,32,num_6,0.333590245398,,,2017_Jun_30_1644,60.0013856165,FEMA4ImagesEEG,001,100853,
AFNE01.JPG,AFNE01.JPG,AFNE01.JPG,AFNE01.JPG,AFNE01.JPG,AFNE01.JPG,,,,,,,,,,,,,1,0,10,0,,,,,,,,,,,AMSA03.jpg,AMSA09.jpg,AMNE17.jpg,AMNE14.jpg,AMSA03.jpg,MS,2,num_8,16,num_8,0.483493157662,,,2017_Jun_30_1644,60.0013856165,FEMA4ImagesEEG,001,100853,
AFNE01.JPG,AFNE01.JPG,AFNE01.JPG,AFNE01.JPG,AFNE01.JPG,AFNE01.JPG,,,,,,,,,,,,,1,1,11,1,,,,,,,,,,,AMSA09.jpg,AMNE14.jpg,AMNE20.jpg,AMSA12.jpg,AMSA12.jpg,MS,2,num_4,16,num_4,0.73345354636,,,2017_Jun_30_1644,60.0013856165,FEMA4ImagesEEG,001,100853,
AFNE01.JPG,AFNE01.JPG,AFNE01.JPG,AFNE01.JPG,AFNE01.JPG,AFNE01.JPG,,,,,,,,,,,,,1,2,12,6,,,,,,,,,,,AMNE02.jpg,AMSA15.jpg,AMNE12.jpg,AMSA03.jpg,AMSA15.jpg,MS,2,num_6,32,num_8,0.766828383319,,,2017_Jun_30_1644,60.0013856165,FEMA4ImagesEEG,001,100853,
AFNE01.JPG,AFNE01.JPG,AFNE01.JPG,AFNE01.JPG,AFNE01.JPG,AFNE01.JPG,,,,,,,,,,,,,1,3,13,7,,,,,,,,,,,AMSA17.jpg,AMNE10.jpg,AMSA16.jpg,AMNE07.jpg,AMSA17.jpg,MS,2,num_8,16,num_8,0.583492259553,,,2017_Jun_30_1644,60.0013856165,FEMA4ImagesEEG,001,100853,
AFNE01.JPG,AFNE01.JPG,AFNE01.JPG,AFNE01.JPG,AFNE01.JPG,AFNE01.JPG,,,,,,,,,,,,,1,4,14,9,,,,,,,,,,,AMSA18.jpg,AMNE02.jpg,AMSA13.jpg,AMNE11.jpg,AMSA13.jpg,MS,2,num_2,32,num_4,0.550168420188,,,2017_Jun_30_1644,60.0013856165,FEMA4ImagesEEG,001,100853,
AFNE01.JPG,AFNE01.JPG,AFNE01.JPG,AFNE01.JPG,AFNE01.JPG,AFNE01.JPG,,,,,,,,,,,,,1,5,15,8,,,,,,,,,,,AMNE13.jpg,AMSA11.jpg,AMNE04.jpg,AMSA20.jpg,AMSA11.jpg,MS,2,num_6,32,num_8,0.466806701384,,,2017_Jun_30_1644,60.0013856165,FEMA4ImagesEEG,001,100853,
AFNE01.JPG,AFNE01.JPG,AFNE01.JPG,AFNE01.JPG,AFNE01.JPG,AFNE01.JPG,,,,,,,,,,,,,1,6,16,4,,,,,,,,,,,AMNE19.jpg,AMSA11.jpg,AMNE09.jpg,AMSA16.jpg,AMNE19.jpg,MN,1,num_8,32,num_4,0.833426347701,,,2017_Jun_30_1644,60.0013856165,FEMA4ImagesEEG,001,100853,
AFNE01.JPG,AFNE01.JPG,AFNE01.JPG,AFNE01.JPG,AFNE01.JPG,AFNE01.JPG,,,,,,,,,,,,,1,7,17,3,,,,,,,,,,,AMNE14.jpg,AMNE07.jpg,AMSA18.jpg,AMSA13.jpg,AMSA13.jpg,MS,2,num_4,16,num_4,0.500011867378,,,2017_Jun_30_1644,60.0013856165,FEMA4ImagesEEG,001,100853,
AFNE01.JPG,AFNE01.JPG,AFNE01.JPG,AFNE01.JPG,AFNE01.JPG,AFNE01.JPG,,,,,,,,,,,,,1,8,18,5,,,,,,,,,,,AMSA10.jpg,AMNE01.jpg,AMSA05.jpg,AMNE13.jpg,AMNE13.jpg,MN,1,num_4,16,num_4,0.666642931988,,,2017_Jun_30_1644,60.0013856165,FEMA4ImagesEEG,001,100853,
AFNE01.JPG,AFNE01.JPG,AFNE01.JPG,AFNE01.JPG,AFNE01.JPG,AFNE01.JPG,,,,,,,,,,,,,1,9,19,2,,,,,,,,,,,AMNE13.jpg,AMSA13.jpg,AMNE15.jpg,AMSA05.jpg,AMNE13.jpg,MN,1,num_8,32,num_6,0.50011803204,,,2017_Jun_30_1644,60.0013856165,FEMA4ImagesEEG,001,100853,
AFNE01.JPG,AFNE01.JPG,AFNE01.JPG,AFNE01.JPG,AFNE01.JPG,AFNE01.JPG,,,,,,,,,,,,,2,0,20,5,,,,,,,,,,,AMNE11.jpg,AMSA01.jpg,AMNE03.jpg,AMSA10.jpg,AMSA01.jpg,MS,2,num_6,32,num_4,0.350140387542,,,2017_Jun_30_1644,60.0013856165,FEMA4ImagesEEG,001,100853,
AFNE01.JPG,AFNE01.JPG,AFNE01.JPG,AFNE01.JPG,AFNE01.JPG,AFNE01.JPG,,,,,,,,,,,,,2,1,21,4,,,,,,,,,,,AMNE19.jpg,AMNE17.jpg,AMSA04.jpg,AMSA03.jpg,AMNE19.jpg,MN,1,num_8,32,num_6,0.916750860692,,,2017_Jun_30_1644,60.0013856165,FEMA4ImagesEEG,001,100853,
AFNE01.JPG,AFNE01.JPG,AFNE01.JPG,AFNE01.JPG,AFNE01.JPG,AFNE01.JPG,,,,,,,,,,,,,2,2,22,0,,,,,,,,,,,AMNE04.jpg,AMSA03.jpg,AMSA11.jpg,AMNE18.jpg,AMSA11.jpg,MS,2,num_2,32,num_6,0.766743387445,,,2017_Jun_30_1644,60.0013856165,FEMA4ImagesEEG,001,100853,
AFNE01.JPG,AFNE01.JPG,AFNE01.JPG,AFNE01.JPG,AFNE01.JPG,AFNE01.JPG,,,,,,,,,,,,,2,3,23,1,,,,,,,,,,,AMNE06.jpg,AMNE14.jpg,AMSA20.jpg,AMSA05.jpg,AMNE06.jpg,MN,1,num_8,16,num_8,0.733507109864,,,2017_Jun_30_1644,60.0013856165,FEMA4ImagesEEG,001,100853,
AFNE01.JPG,AFNE01.JPG,AFNE01.JPG,AFNE01.JPG,AFNE01.JPG,AFNE01.JPG,,,,,,,,,,,,,2,4,24,9,,,,,,,,,,,AMSA06.jpg,AMSA11.jpg,AMNE17.jpg,AMNE16.jpg,AMSA06.jpg,MS,2,num_8,16,num_8,0.78355974314,,,2017_Jun_30_1644,60.0013856165,FEMA4ImagesEEG,001,100853,
AFNE01.JPG,AFNE01.JPG,AFNE01.JPG,AFNE01.JPG,AFNE01.JPG,AFNE01.JPG,,,,,,,,,,,,,2,5,25,7,,,,,,,,,,,AMNE02.jpg,AMSA05.jpg,AMSA15.jpg,AMNE13.jpg,AMNE13.jpg,MN,1,num_4,16,num_4,0.766777706624,,,2017_Jun_30_1644,60.0013856165,FEMA4ImagesEEG,001,100853,
AFNE01.JPG,AFNE01.JPG,AFNE01.JPG,AFNE01.JPG,AFNE01.JPG,AFNE01.JPG,,,,,,,,,,,,,2,6,26,3,,,,,,,,,,,AMNE09.jpg,AMSA11.jpg,AMSA05.jpg,AMNE18.jpg,AMSA11.jpg,MS,2,num_6,32,num_8,0.566751277656,,,2017_Jun_30_1644,60.0013856165,FEMA4ImagesEEG,001,100853,
AFNE01.JPG,AFNE01.JPG,AFNE01.JPG,AFNE01.JPG,AFNE01.JPG,AFNE01.JPG,,,,,,,,,,,,,2,7,27,6,,,,,,,,,,,AMSA20.jpg,AMSA16.jpg,AMNE01.jpg,AMNE07.jpg,AMSA16.jpg,MS,2,num_6,32,num_8,0.600153698178,,,2017_Jun_30_1644,60.0013856165,FEMA4ImagesEEG,001,100853,
AFNE01.JPG,AFNE01.JPG,AFNE01.JPG,AFNE01.JPG,AFNE01.JPG,AFNE01.JPG,,,,,,,,,,,,,2,8,28,8,,,,,,,,,,,AMNE06.jpg,AMSA19.jpg,AMSA13.jpg,AMNE11.jpg,AMNE11.jpg,MN,1,num_4,16,num_4,0.666749738099,,,2017_Jun_30_1644,60.0013856165,FEMA4ImagesEEG,001,100853,
AFNE01.JPG,AFNE01.JPG,AFNE01.JPG,AFNE01.JPG,AFNE01.JPG,AFNE01.JPG,,,,,,,,,,,,,2,9,29,2,,,,,,,,,,,AMSA05.jpg,AMNE05.jpg,AMSA14.jpg,AMNE07.jpg,AMNE07.jpg,MN,1,num_4,16,num_4,1.08340405632,,,2017_Jun_30_1644,60.0013856165,FEMA4ImagesEEG,001,100853,
AFNE01.JPG,AFNE01.JPG,AFNE01.JPG,AFNE01.JPG,AFNE01.JPG,AFNE01.JPG,,,,,,,,,,,,,3,0,30,0,,,,,,,,,,,AMSA07.jpg,AMNE09.jpg,AMSA01.jpg,AMNE18.jpg,AMNE18.jpg,MN,1,num_4,32,num_6,0.300225672079,,,2017_Jun_30_1644,60.0013856165,FEMA4ImagesEEG,001,100853,
AFNE01.JPG,AFNE01.JPG,AFNE01.JPG,AFNE01.JPG,AFNE01.JPG,AFNE01.JPG,,,,,,,,,,,,,3,1,31,9,,,,,,,,,,,AMSA09.jpg,AMSA19.jpg,AMNE15.jpg,AMNE06.jpg,AMNE15.jpg,MN,1,num_2,32,num_6,1.08344511094,,,2017_Jun_30_1644,60.0013856165,FEMA4ImagesEEG,001,100853,
AFNE01.JPG,AFNE01.JPG,AFNE01.JPG,AFNE01.JPG,AFNE01.JPG,AFNE01.JPG,,,,,,,,,,,,,3,2,32,4,,,,,,,,,,,AMNE11.jpg,AMNE15.jpg,AMSA01.jpg,AMSA18.jpg,AMSA01.jpg,MS,2,num_2,32,num_4,0.400203605241,,,2017_Jun_30_1644,60.0013856165,FEMA4ImagesEEG,001,100853,
AFNE01.JPG,AFNE01.JPG,AFNE01.JPG,AFNE01.JPG,AFNE01.JPG,AFNE01.JPG,,,,,,,,,,,,,3,3,33,5,,,,,,,,,,,AMNE02.jpg,AMSA13.jpg,AMSA01.jpg,AMNE09.jpg,AMSA13.jpg,MS,2,num_6,32,num_8,0.583514711354,,,2017_Jun_30_1644,60.0013856165,FEMA4ImagesEEG,001,100853,
AFNE01.JPG,AFNE01.JPG,AFNE01.JPG,AFNE01.JPG,AFNE01.JPG,AFNE01.JPG,,,,,,,,,,,,,3,4,34,1,,,,,,,,,,,AMNE19.jpg,AMSA07.jpg,AMSA08.jpg,AMNE11.jpg,AMNE11.jpg,MN,1,num_4,16,num_4,0.433546689048,,,2017_Jun_30_1644,60.0013856165,FEMA4ImagesEEG,001,100853,
AFNE01.JPG,AFNE01.JPG,AFNE01.JPG,AFNE01.JPG,AFNE01.JPG,AFNE01.JPG,,,,,,,,,,,,,3,5,35,7,,,,,,,,,,,AMSA04.jpg,AMNE14.jpg,AMNE12.jpg,AMSA11.jpg,AMNE14.jpg,MN,1,num_6,16,num_6,0.533464964712,,,2017_Jun_30_1644,60.0013856165,FEMA4ImagesEEG,001,100853,
AFNE01.JPG,AFNE01.JPG,AFNE01.JPG,AFNE01.JPG,AFNE01.JPG,AFNE01.JPG,,,,,,,,,,,,,3,6,36,3,,,,,,,,,,,AMNE08.jpg,AMSA18.jpg,AMSA03.jpg,AMNE12.jpg,AMSA18.jpg,MS,2,num_6,16,num_6,0.483471026702,,,2017_Jun_30_1644,60.0013856165,FEMA4ImagesEEG,001,100853,
AFNE01.JPG,AFNE01.JPG,AFNE01.JPG,AFNE01.JPG,AFNE01.JPG,AFNE01.JPG,,,,,,,,,,,,,3,7,37,2,,,,,,,,,,,AMSA20.jpg,AMSA11.jpg,AMNE02.jpg,AMNE17.jpg,AMNE02.jpg,MN,1,num_2,16,num_2,0.600255372585,,,2017_Jun_30_1644,60.0013856165,FEMA4ImagesEEG,001,100853,
AFNE01.JPG,AFNE01.JPG,AFNE01.JPG,AFNE01.JPG,AFNE01.JPG,AFNE01.JPG,,,,,,,,,,,,,3,8,38,6,,,,,,,,,,,AMNE06.jpg,AMSA19.jpg,AMSA17.jpg,AMNE07.jpg,AMNE06.jpg,MN,1,num_8,32,num_4,0.700210853945,,,2017_Jun_30_1644,60.0013856165,FEMA4ImagesEEG,001,100853,
AFNE01.JPG,AFNE01.JPG,AFNE01.JPG,AFNE01.JPG,AFNE01.JPG,AFNE01.JPG,,,,,,,,,,,,,3,9,39,8,,,,,,,,,,,AMSA04.jpg,AMSA06.jpg,AMNE04.jpg,AMNE06.jpg,AMSA04.jpg,MS,2,num_8,16,num_8,0.533472341718,,,2017_Jun_30_1644,60.0013856165,FEMA4ImagesEEG,001,100853,
AFNE01.JPG,AFNE01.JPG,AFNE01.JPG,AFNE01.JPG,AFNE01.JPG,AFNE01.JPG,,,,,,,,,,,,,4,0,40,0,,,,,,,,,,,AMSA12.jpg,AMSA16.jpg,AMNE20.jpg,AMNE03.jpg,AMNE20.jpg,MN,1,num_2,16,num_2,0.816772286082,,,2017_Jun_30_1644,60.0013856165,FEMA4ImagesEEG,001,100853,
AFNE01.JPG,AFNE01.JPG,AFNE01.JPG,AFNE01.JPG,AFNE01.JPG,AFNE01.JPG,,,,,,,,,,,,,4,1,41,4,,,,,,,,,,,AMNE12.jpg,AMSA04.jpg,AMSA16.jpg,AMNE18.jpg,AMNE18.jpg,MN,1,num_4,16,num_4,0.466778797039,,,2017_Jun_30_1644,60.0013856165,FEMA4ImagesEEG,001,100853,
AFNE01.JPG,AFNE01.JPG,AFNE01.JPG,AFNE01.JPG,AFNE01.JPG,AFNE01.JPG,,,,,,,,,,,,,4,2,42,6,,,,,,,,,,,AMNE02.jpg,AMSA11.jpg,AMSA06.jpg,AMNE10.jpg,AMNE10.jpg,MN,1,num_4,32,num_8,0.400182115729,,,2017_Jun_30_1644,60.0013856165,FEMA4ImagesEEG,001,100853,
AFNE01.JPG,AFNE01.JPG,AFNE01.JPG,AFNE01.JPG,AFNE01.JPG,AFNE01.JPG,,,,,,,,,,,,,4,3,43,2,,,,,,,,,,,AMSA10.jpg,AMNE10.jpg,AMSA17.jpg,AMNE06.jpg,AMNE06.jpg,MN,1,num_4,16,num_4,0.599993328622,,,2017_Jun_30_1644,60.0013856165,FEMA4ImagesEEG,001,100853,
AFNE01.JPG,AFNE01.JPG,AFNE01.JPG,AFNE01.JPG,AFNE01.JPG,AFNE01.JPG,,,,,,,,,,,,,4,4,44,8,,,,,,,,,,,AMSA10.jpg,AMSA17.jpg,AMNE05.jpg,AMNE17.jpg,AMNE05.jpg,MN,1,num_2,32,num_4,0.416818215977,,,2017_Jun_30_1644,60.0013856165,FEMA4ImagesEEG,001,100853,
AFNE01.JPG,AFNE01.JPG,AFNE01.JPG,AFNE01.JPG,AFNE01.JPG,AFNE01.JPG,,,,,,,,,,,,,4,5,45,9,,,,,,,,,,,AMSA17.jpg,AMNE19.jpg,AMSA16.jpg,AMNE05.jpg,AMSA16.jpg,MS,2,num_2,32,num_6,0.533494151954,,,2017_Jun_30_1644,60.0013856165,FEMA4ImagesEEG,001,100853,
AFNE01.JPG,AFNE01.JPG,AFNE01.JPG,AFNE01.JPG,AFNE01.JPG,AFNE01.JPG,,,,,,,,,,,,,4,6,46,7,,,,,,,,,,,AMSA06.jpg,AMNE03.jpg,AMNE14.jpg,AMSA14.jpg,AMNE14.jpg,MN,1,num_2,16,num_2,0.816754324653,,,2017_Jun_30_1644,60.0013856165,FEMA4ImagesEEG,001,100853,
AFNE01.JPG,AFNE01.JPG,AFNE01.JPG,AFNE01.JPG,AFNE01.JPG,AFNE01.JPG,,,,,,,,,,,,,4,7,47,3,,,,,,,,,,,AMSA12.jpg,AMSA13.jpg,AMNE14.jpg,AMNE18.jpg,AMNE14.jpg,MN,1,num_2,16,num_2,0.833443026117,,,2017_Jun_30_1644,60.0013856165,FEMA4ImagesEEG,001,100853,
AFNE01.JPG,AFNE01.JPG,AFNE01.JPG,AFNE01.JPG,AFNE01.JPG,AFNE01.JPG,,,,,,,,,,,,,4,8,48,1,,,,,,,,,,,AMNE08.jpg,AMSA09.jpg,AMNE02.jpg,AMSA06.jpg,AMNE08.jpg,MN,1,num_8,32,num_4,0.716777674505,,,2017_Jun_30_1644,60.0013856165,FEMA4ImagesEEG,001,100853,
AFNE01.JPG,AFNE01.JPG,AFNE01.JPG,AFNE01.JPG,AFNE01.JPG,AFNE01.JPG,,,,,,,,,,,,,4,9,49,5,,,,,,,,,,,AMSA09.jpg,AMSA16.jpg,AMNE06.jpg,AMNE14.jpg,AMNE06.jpg,MN,1,num_2,32,num_4,0.650116524543,,,2017_Jun_30_1644,60.0013856165,FEMA4ImagesEEG,001,100853,
AFNE01.JPG,AFNE01.JPG,AFNE01.JPG,AFNE01.JPG,AFNE01.JPG,AFNE01.JPG,,,,,,,,,,,,,5,0,50,6,,,,,,,,,,,AMNE10.jpg,AMSA19.jpg,AMNE06.jpg,AMSA06.jpg,AMSA19.jpg,MS,2,num_6,16,num_6,1.73340543552,,,2017_Jun_30_1644,60.0013856165,FEMA4ImagesEEG,001,100853,
AFNE01.JPG,AFNE01.JPG,AFNE01.JPG,AFNE01.JPG,AFNE01.JPG,AFNE01.JPG,,,,,,,,,,,,,5,1,51,7,,,,,,,,,,,AMSA02.jpg,AMSA20.jpg,AMNE09.jpg,AMNE20.jpg,AMNE09.jpg,MN,1,num_2,32,num_8,0.650171370944,,,2017_Jun_30_1644,60.0013856165,FEMA4ImagesEEG,001,100853,
AFNE01.JPG,AFNE01.JPG,AFNE01.JPG,AFNE01.JPG,AFNE01.JPG,AFNE01.JPG,,,,,,,,,,,,,5,2,52,3,,,,,,,,,,,AMNE09.jpg,AMSA11.jpg,AMSA16.jpg,AMNE07.jpg,AMNE07.jpg,MN,1,num_4,16,num_4,0.300186541921,,,2017_Jun_30_1644,60.0013856165,FEMA4ImagesEEG,001,100853,
AFNE01.JPG,AFNE01.JPG,AFNE01.JPG,AFNE01.JPG,AFNE01.JPG,AFNE01.JPG,,,,,,,,,,,,,5,3,53,5,,,,,,,,,,,AMNE10.jpg,AMNE05.jpg,AMSA01.jpg,AMSA03.jpg,AMSA01.jpg,MS,2,num_2,16,num_2,0.550130572927,,,2017_Jun_30_1644,60.0013856165,FEMA4ImagesEEG,001,100853,
AFNE01.JPG,AFNE01.JPG,AFNE01.JPG,AFNE01.JPG,AFNE01.JPG,AFNE01.JPG,,,,,,,,,,,,,5,4,54,0,,,,,,,,,,,AMSA04.jpg,AMSA11.jpg,AMNE03.jpg,AMNE20.jpg,AMNE03.jpg,MN,1,num_2,32,num_4,0.216729884385,,,2017_Jun_30_1644,60.0013856165,FEMA4ImagesEEG,001,100853,
AFNE01.JPG,AFNE01.JPG,AFNE01.JPG,AFNE01.JPG,AFNE01.JPG,AFNE01.JPG,,,,,,,,,,,,,5,5,55,4,,,,,,,,,,,AMNE16.jpg,AMSA17.jpg,AMSA18.jpg,AMNE17.jpg,AMSA17.jpg,MS,2,num_6,32,num_8,0.666737870779,,,2017_Jun_30_1644,60.0013856165,FEMA4ImagesEEG,001,100853,
AFNE01.JPG,AFNE01.JPG,AFNE01.JPG,AFNE01.JPG,AFNE01.JPG,AFNE01.JPG,,,,,,,,,,,,,5,6,56,1,,,,,,,,,,,AMSA12.jpg,AMSA08.jpg,AMNE16.jpg,AMNE15.jpg,AMSA12.jpg,MS,2,num_8,32,num_6,0.483446971222,,,2017_Jun_30_1644,60.0013856165,FEMA4ImagesEEG,001,100853,
AFNE01.JPG,AFNE01.JPG,AFNE01.JPG,AFNE01.JPG,AFNE01.JPG,AFNE01.JPG,,,,,,,,,,,,,5,7,57,9,,,,,,,,,,,AMSA10.jpg,AMNE12.jpg,AMSA02.jpg,AMNE05.jpg,AMSA10.jpg,MS,2,num_8,32,num_6,0.783496878226,,,2017_Jun_30_1644,60.0013856165,FEMA4ImagesEEG,001,100853,
AFNE01.JPG,AFNE01.JPG,AFNE01.JPG,AFNE01.JPG,AFNE01.JPG,AFNE01.JPG,,,,,,,,,,,,,5,8,58,8,,,,,,,,,,,AMNE06.jpg,AMSA18.jpg,AMNE11.jpg,AMSA06.jpg,AMNE06.jpg,MN,1,num_8,32,num_4,0.533528471016,,,2017_Jun_30_1644,60.0013856165,FEMA4ImagesEEG,001,100853,
AFNE01.JPG,AFNE01.JPG,AFNE01.JPG,AFNE01.JPG,AFNE01.JPG,AFNE01.JPG,,,,,,,,,,,,,5,9,59,2,,,,,,,,,,,AMNE11.jpg,AMSA20.jpg,AMSA15.jpg,AMNE04.jpg,AMNE11.jpg,MN,1,num_8,32,num_4,0.733487544698,,,2017_Jun_30_1644,60.0013856165,FEMA4ImagesEEG,001,100853,
,,,,,,,,,,,,,,,,,,,,,,,,,,,,,,,,,,,,,,,,,,,space,8.26584595919,2017_Jun_30_1644,60.0013856165,FEMA4ImagesEEG,001,100853,
AFNE01.JPG,AFNE01.JPG,AFNE01.JPG,AFNE01.JPG,AFNE01.JPG,AFNE01.JPG,,,,,,,,,,,,,,,,,0,0,0,3,,,,,,,AFNE20.jpg,AFSA12.jpg,AFSA16.jpg,AFNE16.jpg,AFNE20.jpg,FN,3,num_8,16,num_8,1.70006940799,,,2017_Jun_30_1644,60.0013856165,FEMA4ImagesEEG,001,100853,
AFNE01.JPG,AFNE01.JPG,AFNE01.JPG,AFNE01.JPG,AFNE01.JPG,AFNE01.JPG,,,,,,,,,,,,,,,,,0,1,1,4,,,,,,,AFNE19.jpg,AFNE12.jpg,AFSA05.jpg,AFSA15.jpg,AFSA15.jpg,FS,4,num_4,16,num_4,0.450128263619,,,2017_Jun_30_1644,60.0013856165,FEMA4ImagesEEG,001,100853,
AFNE01.JPG,AFNE01.JPG,AFNE01.JPG,AFNE01.JPG,AFNE01.JPG,AFNE01.JPG,,,,,,,,,,,,,,,,,0,2,2,6,,,,,,,AFSA10.jpg,AFNE18.jpg,AFSA08.jpg,AFNE20.jpg,AFNE20.jpg,FN,3,num_4,32,num_8,1.01673520869,,,2017_Jun_30_1644,60.0013856165,FEMA4ImagesEEG,001,100853,
AFNE01.JPG,AFNE01.JPG,AFNE01.JPG,AFNE01.JPG,AFNE01.JPG,AFNE01.JPG,,,,,,,,,,,,,,,,,0,3,3,8,,,,,,,AFNE13.jpg,AFNE07.jpg,AFSA16.jpg,AFSA10.jpg,AFNE13.jpg,FN,3,num_8,16,num_8,0.783446842921,,,2017_Jun_30_1644,60.0013856165,FEMA4ImagesEEG,001,100853,
AFNE01.JPG,AFNE01.JPG,AFNE01.JPG,AFNE01.JPG,AFNE01.JPG,AFNE01.JPG,,,,,,,,,,,,,,,,,0,4,4,2,,,,,,,AFNE14.jpg,AFSA06.jpg,AFSA02.jpg,AFNE05.jpg,AFSA02.jpg,FS,4,num_2,32,num_6,0.750159247022,,,2017_Jun_30_1644,60.0013856165,FEMA4ImagesEEG,001,100853,
AFNE01.JPG,AFNE01.JPG,AFNE01.JPG,AFNE01.JPG,AFNE01.JPG,AFNE01.JPG,,,,,,,,,,,,,,,,,0,5,5,9,,,,,,,AFSA10.jpg,AFNE04.jpg,AFSA16.jpg,AFNE20.jpg,AFSA16.jpg,FS,4,num_2,32,num_8,0.600181602524,,,2017_Jun_30_1644,60.0013856165,FEMA4ImagesEEG,001,100853,
AFNE01.JPG,AFNE01.JPG,AFNE01.JPG,AFNE01.JPG,AFNE01.JPG,AFNE01.JPG,,,,,,,,,,,,,,,,,0,6,6,1,,,,,,,AFSA06.jpg,AFNE05.jpg,AFNE15.jpg,AFSA14.jpg,AFNE05.jpg,FN,3,num_6,32,num_4,0.716618908569,,,2017_Jun_30_1644,60.0013856165,FEMA4ImagesEEG,001,100853,
AFNE01.JPG,AFNE01.JPG,AFNE01.JPG,AFNE01.JPG,AFNE01.JPG,AFNE01.JPG,,,,,,,,,,,,,,,,,0,7,7,5,,,,,,,AFNE10.jpg,AFSA08.jpg,AFSA16.jpg,AFNE11.jpg,AFSA08.jpg,FS,4,num_6,16,num_6,0.666761605418,,,2017_Jun_30_1644,60.0013856165,FEMA4ImagesEEG,001,100853,
AFNE01.JPG,AFNE01.JPG,AFNE01.JPG,AFNE01.JPG,AFNE01.JPG,AFNE01.JPG,,,,,,,,,,,,,,,,,0,8,8,0,,,,,,,AFSA08.jpg,AFNE11.jpg,AFSA15.jpg,AFNE15.jpg,AFSA15.jpg,FS,4,num_2,32,num_4,0.616712179559,,,2017_Jun_30_1644,60.0013856165,FEMA4ImagesEEG,001,100853,
AFNE01.JPG,AFNE01.JPG,AFNE01.JPG,AFNE01.JPG,AFNE01.JPG,AFNE01.JPG,,,,,,,,,,,,,,,,,0,9,9,7,,,,,,,AFNE03.jpg,AFSA02.jpg,AFNE12.jpg,AFSA05.jpg,AFSA02.jpg,FS,4,num_6,16,num_6,0.483457555645,,,2017_Jun_30_1644,60.0013856165,FEMA4ImagesEEG,001,100853,
AFNE01.JPG,AFNE01.JPG,AFNE01.JPG,AFNE01.JPG,AFNE01.JPG,AFNE01.JPG,,,,,,,,,,,,,,,,,1,0,10,4,,,,,,,AFSA16.jpg,AFSA04.jpg,AFNE20.jpg,AFNE02.jpg,AFSA16.jpg,FS,4,num_8,32,num_4,0.633478179108,,,2017_Jun_30_1644,60.0013856165,FEMA4ImagesEEG,001,100853,
AFNE01.JPG,AFNE01.JPG,AFNE01.JPG,AFNE01.JPG,AFNE01.JPG,AFNE01.JPG,,,,,,,,,,,,,,,,,1,1,11,1,,,,,,,AFNE03.jpg,AFSA02.jpg,AFSA04.jpg,AFNE04.jpg,AFNE03.jpg,FN,3,num_8,32,num_6,0.750126852363,,,2017_Jun_30_1644,60.0013856165,FEMA4ImagesEEG,001,100853,
AFNE01.JPG,AFNE01.JPG,AFNE01.JPG,AFNE01.JPG,AFNE01.JPG,AFNE01.JPG,,,,,,,,,,,,,,,,,1,2,12,0,,,,,,,AFNE11.jpg,AFSA01.jpg,AFSA06.jpg,AFNE05.jpg,AFSA06.jpg,FS,4,num_2,32,num_6,0.666877713054,,,2017_Jun_30_1644,60.0013856165,FEMA4ImagesEEG,001,100853,
AFNE01.JPG,AFNE01.JPG,AFNE01.JPG,AFNE01.JPG,AFNE01.JPG,AFNE01.JPG,,,,,,,,,,,,,,,,,1,3,13,8,,,,,,,AFNE11.jpg,AFNE03.jpg,AFSA05.jpg,AFSA08.jpg,AFSA05.jpg,FS,4,num_2,16,num_2,0.866737999022,,,2017_Jun_30_1644,60.0013856165,FEMA4ImagesEEG,001,100853,
AFNE01.JPG,AFNE01.JPG,AFNE01.JPG,AFNE01.JPG,AFNE01.JPG,AFNE01.JPG,,,,,,,,,,,,,,,,,1,4,14,2,,,,,,,AFSA12.jpg,AFSA15.jpg,AFNE10.jpg,AFNE15.jpg,AFNE15.jpg,FN,3,num_4,32,num_2,0.683449023985,,,2017_Jun_30_1644,60.0013856165,FEMA4ImagesEEG,001,100853,
AFNE01.JPG,AFNE01.JPG,AFNE01.JPG,AFNE01.JPG,AFNE01.JPG,AFNE01.JPG,,,,,,,,,,,,,,,,,1,5,15,9,,,,,,,AFSA14.jpg,AFSA18.jpg,AFNE10.jpg,AFNE03.jpg,AFSA18.jpg,FS,4,num_6,16,num_6,0.416807631496,,,2017_Jun_30_1644,60.0013856165,FEMA4ImagesEEG,001,100853,
AFNE01.JPG,AFNE01.JPG,AFNE01.JPG,AFNE01.JPG,AFNE01.JPG,AFNE01.JPG,,,,,,,,,,,,,,,,,1,6,16,7,,,,,,,AFSA12.jpg,AFSA14.jpg,AFNE01.jpg,AFNE02.jpg,AFSA14.jpg,FS,4,num_6,32,num_2,0.466783928918,,,2017_Jun_30_1644,60.0013856165,FEMA4ImagesEEG,001,100853,
AFNE01.JPG,AFNE01.JPG,AFNE01.JPG,AFNE01.JPG,AFNE01.JPG,AFNE01.JPG,,,,,,,,,,,,,,,,,1,7,17,5,,,,,,,AFSA11.jpg,AFSA19.jpg,AFNE02.jpg,AFNE16.jpg,AFSA11.jpg,FS,4,num_8,16,num_8,0.683492644457,,,2017_Jun_30_1644,60.0013856165,FEMA4ImagesEEG,001,100853,
AFNE01.JPG,AFNE01.JPG,AFNE01.JPG,AFNE01.JPG,AFNE01.JPG,AFNE01.JPG,,,,,,,,,,,,,,,,,1,8,18,6,,,,,,,AFNE03.jpg,AFSA18.jpg,AFNE06.jpg,AFSA11.jpg,AFNE06.jpg,FN,3,num_2,32,num_8,1.01676664106,,,2017_Jun_30_1644,60.0013856165,FEMA4ImagesEEG,001,100853,
AFNE01.JPG,AFNE01.JPG,AFNE01.JPG,AFNE01.JPG,AFNE01.JPG,AFNE01.JPG,,,,,,,,,,,,,,,,,1,9,19,3,,,,,,,AFNE03.jpg,AFSA06.jpg,AFSA16.jpg,AFNE01.jpg,AFNE01.jpg,FN,3,num_4,32,num_6,0.650134806696,,,2017_Jun_30_1644,60.0013856165,FEMA4ImagesEEG,001,100853,
AFNE01.JPG,AFNE01.JPG,AFNE01.JPG,AFNE01.JPG,AFNE01.JPG,AFNE01.JPG,,,,,,,,,,,,,,,,,2,0,20,2,,,,,,,AFSA16.jpg,AFSA14.jpg,AFNE11.jpg,AFNE05.jpg,AFSA16.jpg,FS,4,num_8,16,num_8,0.733459640411,,,2017_Jun_30_1644,60.0013856165,FEMA4ImagesEEG,001,100853,
AFNE01.JPG,AFNE01.JPG,AFNE01.JPG,AFNE01.JPG,AFNE01.JPG,AFNE01.JPG,,,,,,,,,,,,,,,,,2,1,21,7,,,,,,,AFSA08.jpg,AFNE01.jpg,AFNE16.jpg,AFSA11.jpg,AFNE01.jpg,FN,3,num_6,16,num_6,0.700148951262,,,2017_Jun_30_1644,60.0013856165,FEMA4ImagesEEG,001,100853,
AFNE01.JPG,AFNE01.JPG,AFNE01.JPG,AFNE01.JPG,AFNE01.JPG,AFNE01.JPG,,,,,,,,,,,,,,,,,2,2,22,0,,,,,,,AFNE16.jpg,AFNE11.jpg,AFSA10.jpg,AFSA01.jpg,AFNE11.jpg,FN,3,num_6,16,num_6,0.783494312316,,,2017_Jun_30_1644,60.0013856165,FEMA4ImagesEEG,001,100853,
AFNE01.JPG,AFNE01.JPG,AFNE01.JPG,AFNE01.JPG,AFNE01.JPG,AFNE01.JPG,,,,,,,,,,,,,,,,,2,3,23,9,,,,,,,AFNE11.jpg,AFSA02.jpg,AFNE04.jpg,AFSA14.jpg,AFNE04.jpg,FN,3,num_2,32,num_4,0.766523681174,,,2017_Jun_30_1644,60.0013856165,FEMA4ImagesEEG,001,100853,
AFNE01.JPG,AFNE01.JPG,AFNE01.JPG,AFNE01.JPG,AFNE01.JPG,AFNE01.JPG,,,,,,,,,,,,,,,,,2,4,24,8,,,,,,,AFNE05.jpg,AFSA11.jpg,AFNE12.jpg,AFSA17.jpg,AFNE12.jpg,FN,3,num_2,32,num_8,0.533460153558,,,2017_Jun_30_1644,60.0013856165,FEMA4ImagesEEG,001,100853,
AFNE01.JPG,AFNE01.JPG,AFNE01.JPG,AFNE01.JPG,AFNE01.JPG,AFNE01.JPG,,,,,,,,,,,,,,,,,2,5,25,1,,,,,,,AFSA02.jpg,AFNE08.jpg,AFSA14.jpg,AFNE07.jpg,AFNE08.jpg,FN,3,num_6,32,num_4,0.283496878226,,,2017_Jun_30_1644,60.0013856165,FEMA4ImagesEEG,001,100853,
AFNE01.JPG,AFNE01.JPG,AFNE01.JPG,AFNE01.JPG,AFNE01.JPG,AFNE01.JPG,,,,,,,,,,,,,,,,,2,6,26,3,,,,,,,AFNE12.jpg,AFSA18.jpg,AFNE18.jpg,AFSA04.jpg,AFNE12.jpg,FN,3,num_8,32,num_4,0.666770265438,,,2017_Jun_30_1644,60.0013856165,FEMA4ImagesEEG,001,100853,
AFNE01.JPG,AFNE01.JPG,AFNE01.JPG,AFNE01.JPG,AFNE01.JPG,AFNE01.JPG,,,,,,,,,,,,,,,,,2,7,27,5,,,,,,,AFSA15.jpg,AFNE02.jpg,AFSA06.jpg,AFNE13.jpg,AFSA15.jpg,FS,4,num_8,32,num_6,0.716807503253,,,2017_Jun_30_1644,60.0013856165,FEMA4ImagesEEG,001,100853,
AFNE01.JPG,AFNE01.JPG,AFNE01.JPG,AFNE01.JPG,AFNE01.JPG,AFNE01.JPG,,,,,,,,,,,,,,,,,2,8,28,4,,,,,,,AFNE13.jpg,AFSA07.jpg,AFSA13.jpg,AFNE15.jpg,AFNE13.jpg,FN,3,num_8,16,num_8,0.933448542841,,,2017_Jun_30_1644,60.0013856165,FEMA4ImagesEEG,001,100853,
AFNE01.JPG,AFNE01.JPG,AFNE01.JPG,AFNE01.JPG,AFNE01.JPG,AFNE01.JPG,,,,,,,,,,,,,,,,,2,9,29,6,,,,,,,AFNE06.jpg,AFNE17.jpg,AFSA08.jpg,AFSA17.jpg,AFSA17.jpg,FS,4,num_4,32,num_6,0.566780785681,,,2017_Jun_30_1644,60.0013856165,FEMA4ImagesEEG,001,100853,
AFNE01.JPG,AFNE01.JPG,AFNE01.JPG,AFNE01.JPG,AFNE01.JPG,AFNE01.JPG,,,,,,,,,,,,,,,,,3,0,30,5,,,,,,,AFNE03.jpg,AFNE06.jpg,AFSA16.jpg,AFSA01.jpg,AFSA01.jpg,FS,4,num_4,32,num_6,0.300168580492,,,2017_Jun_30_1644,60.0013856165,FEMA4ImagesEEG,001,100853,
AFNE01.JPG,AFNE01.JPG,AFNE01.JPG,AFNE01.JPG,AFNE01.JPG,AFNE01.JPG,,,,,,,,,,,,,,,,,3,1,31,7,,,,,,,AFNE02.jpg,AFSA03.jpg,AFNE16.jpg,AFSA16.jpg,AFSA16.jpg,FS,4,num_4,16,num_4,1.10007287189,,,2017_Jun_30_1644,60.0013856165,FEMA4ImagesEEG,001,100853,
AFNE01.JPG,AFNE01.JPG,AFNE01.JPG,AFNE01.JPG,AFNE01.JPG,AFNE01.JPG,,,,,,,,,,,,,,,,,3,2,32,3,,,,,,,AFNE10.jpg,AFNE11.jpg,AFSA08.jpg,AFSA13.jpg,AFSA13.jpg,FS,4,num_4,32,num_6,0.633447708911,,,2017_Jun_30_1644,60.0013856165,FEMA4ImagesEEG,001,100853,
AFNE01.JPG,AFNE01.JPG,AFNE01.JPG,AFNE01.JPG,AFNE01.JPG,AFNE01.JPG,,,,,,,,,,,,,,,,,3,3,33,6,,,,,,,AFNE17.jpg,AFSA19.jpg,AFNE05.jpg,AFSA14.jpg,AFSA14.jpg,FS,4,num_4,16,num_4,0.566792653,,,2017_Jun_30_1644,60.0013856165,FEMA4ImagesEEG,001,100853,
AFNE01.JPG,AFNE01.JPG,AFNE01.JPG,AFNE01.JPG,AFNE01.JPG,AFNE01.JPG,,,,,,,,,,,,,,,,,3,4,34,8,,,,,,,AFSA18.jpg,AFNE13.jpg,AFSA07.jpg,AFNE02.jpg,AFNE02.jpg,FN,3,num_4,16,num_4,0.616801665747,,,2017_Jun_30_1644,60.0013856165,FEMA4ImagesEEG,001,100853,
AFNE01.JPG,AFNE01.JPG,AFNE01.JPG,AFNE01.JPG,AFNE01.JPG,AFNE01.JPG,,,,,,,,,,,,,,,,,3,5,35,1,,,,,,,AFSA09.jpg,AFNE14.jpg,AFNE08.jpg,AFSA11.jpg,AFNE08.jpg,FN,3,num_2,32,num_4,0.766764877015,,,2017_Jun_30_1644,60.0013856165,FEMA4ImagesEEG,001,100853,
AFNE01.JPG,AFNE01.JPG,AFNE01.JPG,AFNE01.JPG,AFNE01.JPG,AFNE01.JPG,,,,,,,,,,,,,,,,,3,6,36,2,,,,,,,AFSA13.jpg,AFNE02.jpg,AFSA06.jpg,AFNE19.jpg,AFNE19.jpg,FN,3,num_4,16,num_4,0.583589443588,,,2017_Jun_30_1644,60.0013856165,FEMA4ImagesEEG,001,100853,
AFNE01.JPG,AFNE01.JPG,AFNE01.JPG,AFNE01.JPG,AFNE01.JPG,AFNE01.JPG,,,,,,,,,,,,,,,,,3,7,37,4,,,,,,,AFNE09.jpg,AFSA02.jpg,AFNE15.jpg,AFSA19.jpg,AFSA19.jpg,FS,4,num_4,16,num_4,0.716749128711,,,2017_Jun_30_1644,60.0013856165,FEMA4ImagesEEG,001,100853,
AFNE01.JPG,AFNE01.JPG,AFNE01.JPG,AFNE01.JPG,AFNE01.JPG,AFNE01.JPG,,,,,,,,,,,,,,,,,3,8,38,9,,,,,,,AFNE01.jpg,AFSA01.jpg,AFNE08.jpg,AFSA09.jpg,AFNE01.jpg,FN,3,num_8,32,num_4,0.633489084314,,,2017_Jun_30_1644,60.0013856165,FEMA4ImagesEEG,001,100853,
AFNE01.JPG,AFNE01.JPG,AFNE01.JPG,AFNE01.JPG,AFNE01.JPG,AFNE01.JPG,,,,,,,,,,,,,,,,,3,9,39,0,,,,,,,AFSA11.jpg,AFNE08.jpg,AFSA07.jpg,AFNE20.jpg,AFNE08.jpg,FN,3,num_6,32,num_4,1.00008659961,,,2017_Jun_30_1644,60.0013856165,FEMA4ImagesEEG,001,100853,
AFNE01.JPG,AFNE01.JPG,AFNE01.JPG,AFNE01.JPG,AFNE01.JPG,AFNE01.JPG,,,,,,,,,,,,,,,,,4,0,40,1,,,,,,,AFSA20.jpg,AFNE06.jpg,AFNE02.jpg,AFSA16.jpg,AFSA20.jpg,FS,4,num_8,32,num_6,0.33347413782,,,2017_Jun_30_1644,60.0013856165,FEMA4ImagesEEG,001,100853,
AFNE01.JPG,AFNE01.JPG,AFNE01.JPG,AFNE01.JPG,AFNE01.JPG,AFNE01.JPG,,,,,,,,,,,,,,,,,4,1,41,7,,,,,,,AFNE08.jpg,AFSA18.jpg,AFSA01.jpg,AFNE05.jpg,AFNE05.jpg,FN,3,num_4,16,num_4,0.600131246436,,,2017_Jun_30_1644,60.0013856165,FEMA4ImagesEEG,001,100853,
AFNE01.JPG,AFNE01.JPG,AFNE01.JPG,AFNE01.JPG,AFNE01.JPG,AFNE01.JPG,,,,,,,,,,,,,,,,,4,2,42,5,,,,,,,AFNE17.jpg,AFSA20.jpg,AFSA07.jpg,AFNE14.jpg,AFNE14.jpg,FN,3,num_4,16,num_4,0.366838069691,,,2017_Jun_30_1644,60.0013856165,FEMA4ImagesEEG,001,100853,
AFNE01.JPG,AFNE01.JPG,AFNE01.JPG,AFNE01.JPG,AFNE01.JPG,AFNE01.JPG,,,,,,,,,,,,,,,,,4,3,43,2,,,,,,,AFSA17.jpg,AFNE20.jpg,AFNE04.jpg,AFSA19.jpg,AFNE04.jpg,FN,3,num_2,32,num_4,0.883435360447,,,2017_Jun_30_1644,60.0013856165,FEMA4ImagesEEG,001,100853,
AFNE01.JPG,AFNE01.JPG,AFNE01.JPG,AFNE01.JPG,AFNE01.JPG,AFNE01.JPG,,,,,,,,,,,,,,,,,4,4,44,3,,,,,,,AFNE11.jpg,AFSA11.jpg,AFNE14.jpg,AFSA09.jpg,AFSA09.jpg,FS,4,num_4,16,num_4,0.666765133617,,,2017_Jun_30_1644,60.0013856165,FEMA4ImagesEEG,001,100853,
AFNE01.JPG,AFNE01.JPG,AFNE01.JPG,AFNE01.JPG,AFNE01.JPG,AFNE01.JPG,,,,,,,,,,,,,,,,,4,5,45,8,,,,,,,AFNE15.jpg,AFSA03.jpg,AFNE10.jpg,AFSA02.jpg,AFSA03.jpg,FS,4,num_6,16,num_6,0.883466151427,,,2017_Jun_30_1644,60.0013856165,FEMA4ImagesEEG,001,100853,
AFNE01.JPG,AFNE01.JPG,AFNE01.JPG,AFNE01.JPG,AFNE01.JPG,AFNE01.JPG,,,,,,,,,,,,,,,,,4,6,46,9,,,,,,,AFNE20.jpg,AFSA06.jpg,AFSA05.jpg,AFNE13.jpg,AFNE20.jpg,FN,3,num_8,32,num_6,0.783465445857,,,2017_Jun_30_1644,60.0013856165,FEMA4ImagesEEG,001,100853,
AFNE01.JPG,AFNE01.JPG,AFNE01.JPG,AFNE01.JPG,AFNE01.JPG,AFNE01.JPG,,,,,,,,,,,,,,,,,4,7,47,0,,,,,,,AFNE01.jpg,AFSA09.jpg,AFSA02.jpg,AFNE04.jpg,AFSA02.jpg,FS,4,num_2,16,num_2,0.66677796311,,,2017_Jun_30_1644,60.0013856165,FEMA4ImagesEEG,001,100853,
AFNE01.JPG,AFNE01.JPG,AFNE01.JPG,AFNE01.JPG,AFNE01.JPG,AFNE01.JPG,,,,,,,,,,,,,,,,,4,8,48,4,,,,,,,AFNE13.jpg,AFNE20.jpg,AFSA07.jpg,AFSA09.jpg,AFSA07.jpg,FS,4,num_2,32,num_4,0.750177849899,,,2017_Jun_30_1644,60.0013856165,FEMA4ImagesEEG,001,100853,
AFNE01.JPG,AFNE01.JPG,AFNE01.JPG,AFNE01.JPG,AFNE01.JPG,AFNE01.JPG,,,,,,,,,,,,,,,,,4,9,49,6,,,,,,,AFNE05.jpg,AFNE10.jpg,AFSA18.jpg,AFSA01.jpg,AFNE05.jpg,FN,3,num_8,32,num_6,0.966732610657,,,2017_Jun_30_1644,60.0013856165,FEMA4ImagesEEG,001,100853,
AFNE01.JPG,AFNE01.JPG,AFNE01.JPG,AFNE01.JPG,AFNE01.JPG,AFNE01.JPG,,,,,,,,,,,,,,,,,5,0,50,6,,,,,,,AFNE01.jpg,AFNE17.jpg,AFSA18.jpg,AFSA20.jpg,AFSA18.jpg,FS,4,num_2,16,num_2,0.566761862021,,,2017_Jun_30_1644,60.0013856165,FEMA4ImagesEEG,001,100853,
AFNE01.JPG,AFNE01.JPG,AFNE01.JPG,AFNE01.JPG,AFNE01.JPG,AFNE01.JPG,,,,,,,,,,,,,,,,,5,1,51,1,,,,,,,AFNE14.jpg,AFNE09.jpg,AFSA15.jpg,AFSA14.jpg,AFSA15.jpg,FS,4,num_2,32,num_4,0.300545449078,,,2017_Jun_30_1644,60.0013856165,FEMA4ImagesEEG,001,100853,
AFNE01.JPG,AFNE01.JPG,AFNE01.JPG,AFNE01.JPG,AFNE01.JPG,AFNE01.JPG,,,,,,,,,,,,,,,,,5,2,52,4,,,,,,,AFSA03.jpg,AFSA17.jpg,AFNE03.jpg,AFNE10.jpg,AFNE03.jpg,FN,3,num_2,32,num_8,0.350145198579,,,2017_Jun_30_1644,60.0013856165,FEMA4ImagesEEG,001,100853,
AFNE01.JPG,AFNE01.JPG,AFNE01.JPG,AFNE01.JPG,AFNE01.JPG,AFNE01.JPG,,,,,,,,,,,,,,,,,5,3,53,7,,,,,,,AFNE05.jpg,AFSA13.jpg,AFSA11.jpg,AFNE02.jpg,AFSA11.jpg,FS,4,num_2,32,num_6,0.600131567218,,,2017_Jun_30_1644,60.0013856165,FEMA4ImagesEEG,001,100853,
AFNE01.JPG,AFNE01.JPG,AFNE01.JPG,AFNE01.JPG,AFNE01.JPG,AFNE01.JPG,,,,,,,,,,,,,,,,,5,4,54,0,,,,,,,AFNE04.jpg,AFSA04.jpg,AFSA08.jpg,AFNE14.jpg,AFSA04.jpg,FS,4,num_6,32,num_8,0.316804039234,,,2017_Jun_30_1644,60.0013856165,FEMA4ImagesEEG,001,100853,
AFNE01.JPG,AFNE01.JPG,AFNE01.JPG,AFNE01.JPG,AFNE01.JPG,AFNE01.JPG,,,,,,,,,,,,,,,,,5,5,55,2,,,,,,,AFNE01.jpg,AFNE06.jpg,AFSA20.jpg,AFSA08.jpg,AFNE01.jpg,FN,3,num_8,32,num_6,0.366795090609,,,2017_Jun_30_1644,60.0013856165,FEMA4ImagesEEG,001,100853,
AFNE01.JPG,AFNE01.JPG,AFNE01.JPG,AFNE01.JPG,AFNE01.JPG,AFNE01.JPG,,,,,,,,,,,,,,,,,5,6,56,3,,,,,,,AFNE09.jpg,AFSA06.jpg,AFNE17.jpg,AFSA20.jpg,AFNE09.jpg,FN,3,num_8,32,num_4,0.483568531345,,,2017_Jun_30_1644,60.0013856165,FEMA4ImagesEEG,001,100853,
AFNE01.JPG,AFNE01.JPG,AFNE01.JPG,AFNE01.JPG,AFNE01.JPG,AFNE01.JPG,,,,,,,,,,,,,,,,,5,7,57,8,,,,,,,AFNE07.jpg,AFSA15.jpg,AFSA20.jpg,AFNE16.jpg,AFSA15.jpg,FS,4,num_6,16,num_6,0.633536232985,,,2017_Jun_30_1644,60.0013856165,FEMA4ImagesEEG,001,100853,
AFNE01.JPG,AFNE01.JPG,AFNE01.JPG,AFNE01.JPG,AFNE01.JPG,AFNE01.JPG,,,,,,,,,,,,,,,,,5,8,58,5,,,,,,,AFNE04.jpg,AFSA10.jpg,AFSA12.jpg,AFNE02.jpg,AFSA10.jpg,FS,4,num_6,32,num_8,0.666799131955,,,2017_Jun_30_1644,60.0013856165,FEMA4ImagesEEG,001,100853,
AFNE01.JPG,AFNE01.JPG,AFNE01.JPG,AFNE01.JPG,AFNE01.JPG,AFNE01.JPG,,,,,,,,,,,,,,,,,5,9,59,9,,,,,,,AFNE18.jpg,AFSA17.jpg,AFNE09.jpg,AFSA04.jpg,AFSA04.jpg,FS,4,num_4,16,num_4,0.61679781694,,,2017_Jun_30_1644,60.0013856165,FEMA4ImagesEEG,001,100853,
,,,,,,,,,,,,,,,,,,,,,,,,,,,,,,,,,,,,,,,,,,,space,5.68332233198,2017_Jun_30_1644,60.0013856165,FEMA4ImagesEEG,001,100853,
AFNE01.JPG,AFNE01.JPG,AFNE01.JPG,AFNE01.JPG,AFNE01.JPG,AFNE01.JPG,,,,,,,,,,,,,,,,,,,,,0,0,0,2,,,AMNE02.jpg,AMSA01.jpg,AMSA10.jpg,AMNE18.jpg,AMSA01.jpg,MS,2,num_6,32,num_4,0.31680468074,,,2017_Jun_30_1644,60.0013856165,FEMA4ImagesEEG,001,100853,
AFNE01.JPG,AFNE01.JPG,AFNE01.JPG,AFNE01.JPG,AFNE01.JPG,AFNE01.JPG,,,,,,,,,,,,,,,,,,,,,0,1,1,6,,,AMNE09.jpg,AMSA02.jpg,AMNE04.jpg,AMSA05.jpg,AMSA05.jpg,MS,2,num_4,32,num_8,0.416794160497,,,2017_Jun_30_1644,60.0013856165,FEMA4ImagesEEG,001,100853,
AFNE01.JPG,AFNE01.JPG,AFNE01.JPG,AFNE01.JPG,AFNE01.JPG,AFNE01.JPG,,,,,,,,,,,,,,,,,,,,,0,2,2,3,,,AMNE03.jpg,AMNE17.jpg,AMSA12.jpg,AMSA13.jpg,AMSA13.jpg,MS,2,num_4,32,num_6,0.300157033897,,,2017_Jun_30_1644,60.0013856165,FEMA4ImagesEEG,001,100853,
AFNE01.JPG,AFNE01.JPG,AFNE01.JPG,AFNE01.JPG,AFNE01.JPG,AFNE01.JPG,,,,,,,,,,,,,,,,,,,,,0,3,3,1,,,AMSA11.jpg,AMNE03.jpg,AMNE04.jpg,AMSA19.jpg,AMNE04.jpg,MN,1,num_2,32,num_6,0.883475452894,,,2017_Jun_30_1644,60.0013856165,FEMA4ImagesEEG,001,100853,
AFNE01.JPG,AFNE01.JPG,AFNE01.JPG,AFNE01.JPG,AFNE01.JPG,AFNE01.JPG,,,,,,,,,,,,,,,,,,,,,0,4,4,0,,,AMSA16.jpg,AMNE19.jpg,AMNE02.jpg,AMSA13.jpg,AMSA13.jpg,MS,2,num_4,16,num_4,0.41678742494,,,2017_Jun_30_1644,60.0013856165,FEMA4ImagesEEG,001,100853,
AFNE01.JPG,AFNE01.JPG,AFNE01.JPG,AFNE01.JPG,AFNE01.JPG,AFNE01.JPG,,,,,,,,,,,,,,,,,,,,,0,5,5,7,,,AMSA18.jpg,AMSA09.jpg,AMNE11.jpg,AMNE16.jpg,AMNE11.jpg,MN,1,num_2,16,num_2,0.600179998844,,,2017_Jun_30_1644,60.0013856165,FEMA4ImagesEEG,001,100853,
AFNE01.JPG,AFNE01.JPG,AFNE01.JPG,AFNE01.JPG,AFNE01.JPG,AFNE01.JPG,,,,,,,,,,,,,,,,,,,,,0,6,6,8,,,AMNE01.jpg,AMSA20.jpg,AMSA13.jpg,AMNE09.jpg,AMSA13.jpg,MS,2,num_2,16,num_2,0.550170023867,,,2017_Jun_30_1644,60.0013856165,FEMA4ImagesEEG,001,100853,
AFNE01.JPG,AFNE01.JPG,AFNE01.JPG,AFNE01.JPG,AFNE01.JPG,AFNE01.JPG,,,,,,,,,,,,,,,,,,,,,0,7,7,5,,,AMNE04.jpg,AMSA16.jpg,AMNE07.jpg,AMSA13.jpg,AMNE04.jpg,MN,1,num_8,16,num_8,0.783448125876,,,2017_Jun_30_1644,60.0013856165,FEMA4ImagesEEG,001,100853,
AFNE01.JPG,AFNE01.JPG,AFNE01.JPG,AFNE01.JPG,AFNE01.JPG,AFNE01.JPG,,,,,,,,,,,,,,,,,,,,,0,8,8,4,,,AMSA11.jpg,AMNE01.jpg,AMNE20.jpg,AMSA06.jpg,AMSA11.jpg,MS,2,num_8,32,num_4,0.60014792491,,,2017_Jun_30_1644,60.0013856165,FEMA4ImagesEEG,001,100853,
AFNE01.JPG,AFNE01.JPG,AFNE01.JPG,AFNE01.JPG,AFNE01.JPG,AFNE01.JPG,,,,,,,,,,,,,,,,,,,,,0,9,9,9,,,AMSA17.jpg,AMSA04.jpg,AMNE08.jpg,AMNE16.jpg,AMSA04.jpg,MS,2,num_6,16,num_6,0.916809555958,,,2017_Jun_30_1644,60.0013856165,FEMA4ImagesEEG,001,100853,
AFNE01.JPG,AFNE01.JPG,AFNE01.JPG,AFNE01.JPG,AFNE01.JPG,AFNE01.JPG,,,,,,,,,,,,,,,,,,,,,1,0,10,1,,,AMSA11.jpg,AMNE05.jpg,AMSA04.jpg,AMNE18.jpg,AMSA04.jpg,MS,2,num_2,16,num_2,0.883412267256,,,2017_Jun_30_1644,60.0013856165,FEMA4ImagesEEG,001,100853,
AFNE01.JPG,AFNE01.JPG,AFNE01.JPG,AFNE01.JPG,AFNE01.JPG,AFNE01.JPG,,,,,,,,,,,,,,,,,,,,,1,1,11,9,,,AMNE11.jpg,AMSA11.jpg,AMNE03.jpg,AMSA09.jpg,AMNE11.jpg,MN,1,num_8,32,num_6,0.883405210974,,,2017_Jun_30_1644,60.0013856165,FEMA4ImagesEEG,001,100853,
AFNE01.JPG,AFNE01.JPG,AFNE01.JPG,AFNE01.JPG,AFNE01.JPG,AFNE01.JPG,,,,,,,,,,,,,,,,,,,,,1,2,12,0,,,AMSA20.jpg,AMNE13.jpg,AMNE18.jpg,AMSA19.jpg,AMSA19.jpg,MS,2,num_4,16,num_4,0.850121143158,,,2017_Jun_30_1644,60.0013856165,FEMA4ImagesEEG,001,100853,
AFNE01.JPG,AFNE01.JPG,AFNE01.JPG,AFNE01.JPG,AFNE01.JPG,AFNE01.JPG,,,,,,,,,,,,,,,,,,,,,1,3,13,3,,,AMSA01.jpg,AMNE13.jpg,AMSA16.jpg,AMNE02.jpg,AMSA01.jpg,MS,2,num_8,32,num_6,0.683513813303,,,2017_Jun_30_1644,60.0013856165,FEMA4ImagesEEG,001,100853,
AFNE01.JPG,AFNE01.JPG,AFNE01.JPG,AFNE01.JPG,AFNE01.JPG,AFNE01.JPG,,,,,,,,,,,,,,,,,,,,,1,4,14,2,,,AMNE20.jpg,AMSA07.jpg,AMSA03.jpg,AMNE05.jpg,AMNE20.jpg,MN,1,num_8,16,num_8,0.900154211442,,,2017_Jun_30_1644,60.0013856165,FEMA4ImagesEEG,001,100853,
AFNE01.JPG,AFNE01.JPG,AFNE01.JPG,AFNE01.JPG,AFNE01.JPG,AFNE01.JPG,,,,,,,,,,,,,,,,,,,,,1,5,15,8,,,AMSA15.jpg,AMSA11.jpg,AMNE04.jpg,AMNE12.jpg,AMNE12.jpg,MN,1,num_4,32,num_6,0.516805450548,,,2017_Jun_30_1644,60.0013856165,FEMA4ImagesEEG,001,100853,
AFNE01.JPG,AFNE01.JPG,AFNE01.JPG,AFNE01.JPG,AFNE01.JPG,AFNE01.JPG,,,,,,,,,,,,,,,,,,,,,1,6,16,6,,,AMSA11.jpg,AMSA10.jpg,AMNE16.jpg,AMNE14.jpg,AMNE14.jpg,MN,1,num_4,16,num_4,0.433468107891,,,2017_Jun_30_1644,60.0013856165,FEMA4ImagesEEG,001,100853,
AFNE01.JPG,AFNE01.JPG,AFNE01.JPG,AFNE01.JPG,AFNE01.JPG,AFNE01.JPG,,,,,,,,,,,,,,,,,,,,,1,7,17,5,,,AMSA16.jpg,AMNE08.jpg,AMNE09.jpg,AMSA06.jpg,AMNE09.jpg,MN,1,num_2,32,num_8,0.633538478112,,,2017_Jun_30_1644,60.0013856165,FEMA4ImagesEEG,001,100853,
AFNE01.JPG,AFNE01.JPG,AFNE01.JPG,AFNE01.JPG,AFNE01.JPG,AFNE01.JPG,,,,,,,,,,,,,,,,,,,,,1,8,18,7,,,AMNE06.jpg,AMSA12.jpg,AMNE02.jpg,AMSA18.jpg,AMSA12.jpg,MS,2,num_6,32,num_8,0.566786879674,,,2017_Jun_30_1644,60.0013856165,FEMA4ImagesEEG,001,100853,
AFNE01.JPG,AFNE01.JPG,AFNE01.JPG,AFNE01.JPG,AFNE01.JPG,AFNE01.JPG,,,,,,,,,,,,,,,,,,,,,1,9,19,4,,,AMSA05.jpg,AMNE05.jpg,AMNE04.jpg,AMSA16.jpg,AMSA05.jpg,MS,2,num_8,32,num_6,0.766729916446,,,2017_Jun_30_1644,60.0013856165,FEMA4ImagesEEG,001,100853,
AFNE01.JPG,AFNE01.JPG,AFNE01.JPG,AFNE01.JPG,AFNE01.JPG,AFNE01.JPG,,,,,,,,,,,,,,,,,,,,,2,0,20,0,,,AMSA02.jpg,AMNE01.jpg,AMSA16.jpg,AMNE10.jpg,AMSA16.jpg,MS,2,num_2,32,num_8,0.283514198207,,,2017_Jun_30_1644,60.0013856165,FEMA4ImagesEEG,001,100853,
AFNE01.JPG,AFNE01.JPG,AFNE01.JPG,AFNE01.JPG,AFNE01.JPG,AFNE01.JPG,,,,,,,,,,,,,,,,,,,,,2,1,21,6,,,AMNE03.jpg,AMSA20.jpg,AMSA04.jpg,AMNE19.jpg,AMSA04.jpg,MS,2,num_2,32,num_4,0.333544700406,,,2017_Jun_30_1644,60.0013856165,FEMA4ImagesEEG,001,100853,
AFNE01.JPG,AFNE01.JPG,AFNE01.JPG,AFNE01.JPG,AFNE01.JPG,AFNE01.JPG,,,,,,,,,,,,,,,,,,,,,2,2,22,8,,,AMNE19.jpg,AMSA18.jpg,AMSA01.jpg,AMNE04.jpg,AMNE04.jpg,MN,1,num_4,32,num_8,0.866759488592,,,2017_Jun_30_1644,60.0013856165,FEMA4ImagesEEG,001,100853,
AFNE01.JPG,AFNE01.JPG,AFNE01.JPG,AFNE01.JPG,AFNE01.JPG,AFNE01.JPG,,,,,,,,,,,,,,,,,,,,,2,3,23,2,,,AMSA06.jpg,AMNE06.jpg,AMNE16.jpg,AMSA20.jpg,AMNE16.jpg,MN,1,num_2,32,num_8,0.766775782162,,,2017_Jun_30_1644,60.0013856165,FEMA4ImagesEEG,001,100853,
AFNE01.JPG,AFNE01.JPG,AFNE01.JPG,AFNE01.JPG,AFNE01.JPG,AFNE01.JPG,,,,,,,,,,,,,,,,,,,,,2,4,24,5,,,AMSA16.jpg,AMSA14.jpg,AMNE03.jpg,AMNE04.jpg,AMNE03.jpg,MN,1,num_2,32,num_8,0.766784442123,,,2017_Jun_30_1644,60.0013856165,FEMA4ImagesEEG,001,100853,
AFNE01.JPG,AFNE01.JPG,AFNE01.JPG,AFNE01.JPG,AFNE01.JPG,AFNE01.JPG,,,,,,,,,,,,,,,,,,,,,2,5,25,4,,,AMNE09.jpg,AMSA07.jpg,AMSA02.jpg,AMNE19.jpg,AMSA07.jpg,MS,2,num_6,32,num_2,0.783416693448,,,2017_Jun_30_1644,60.0013856165,FEMA4ImagesEEG,001,100853,
AFNE01.JPG,AFNE01.JPG,AFNE01.JPG,AFNE01.JPG,AFNE01.JPG,AFNE01.JPG,,,,,,,,,,,,,,,,,,,,,2,6,26,9,,,AMNE09.jpg,AMSA12.jpg,AMNE10.jpg,AMSA07.jpg,AMSA07.jpg,MS,2,num_4,16,num_4,0.783335225715,,,2017_Jun_30_1644,60.0013856165,FEMA4ImagesEEG,001,100853,
AFNE01.JPG,AFNE01.JPG,AFNE01.JPG,AFNE01.JPG,AFNE01.JPG,AFNE01.JPG,,,,,,,,,,,,,,,,,,,,,2,7,27,3,,,AMSA02.jpg,AMSA07.jpg,AMNE20.jpg,AMNE19.jpg,AMSA02.jpg,MS,2,num_8,32,num_6,0.566892402945,,,2017_Jun_30_1644,60.0013856165,FEMA4ImagesEEG,001,100853,
AFNE01.JPG,AFNE01.JPG,AFNE01.JPG,AFNE01.JPG,AFNE01.JPG,AFNE01.JPG,,,,,,,,,,,,,,,,,,,,,2,8,28,1,,,AMNE05.jpg,AMNE12.jpg,AMSA03.jpg,AMSA20.jpg,AMSA20.jpg,MS,2,num_4,16,num_4,0.516788130568,,,2017_Jun_30_1644,60.0013856165,FEMA4ImagesEEG,001,100853,
AFNE01.JPG,AFNE01.JPG,AFNE01.JPG,AFNE01.JPG,AFNE01.JPG,AFNE01.JPG,,,,,,,,,,,,,,,,,,,,,2,9,29,7,,,AMSA07.jpg,AMNE01.jpg,AMSA12.jpg,AMNE03.jpg,AMNE03.jpg,MN,1,num_4,32,num_8,0.600137981994,,,2017_Jun_30_1644,60.0013856165,FEMA4ImagesEEG,001,100853,
AFNE01.JPG,AFNE01.JPG,AFNE01.JPG,AFNE01.JPG,AFNE01.JPG,AFNE01.JPG,,,,,,,,,,,,,,,,,,,,,3,0,30,6,,,AMSA14.jpg,AMSA01.jpg,AMNE18.jpg,AMNE08.jpg,AMSA14.jpg,MS,2,num_8,32,num_2,0.450190166302,,,2017_Jun_30_1644,60.0013856165,FEMA4ImagesEEG,001,100853,
AFNE01.JPG,AFNE01.JPG,AFNE01.JPG,AFNE01.JPG,AFNE01.JPG,AFNE01.JPG,,,,,,,,,,,,,,,,,,,,,3,1,31,8,,,AMSA14.jpg,AMNE19.jpg,AMNE17.jpg,AMSA02.jpg,AMSA02.jpg,MS,2,num_4,16,num_4,0.84995724546,,,2017_Jun_30_1644,60.0013856165,FEMA4ImagesEEG,001,100853,
AFNE01.JPG,AFNE01.JPG,AFNE01.JPG,AFNE01.JPG,AFNE01.JPG,AFNE01.JPG,,,,,,,,,,,,,,,,,,,,,3,2,32,1,,,AMNE01.jpg,AMSA11.jpg,AMSA14.jpg,AMNE09.jpg,AMSA11.jpg,MS,2,num_6,16,num_6,0.583506372117,,,2017_Jun_30_1644,60.0013856165,FEMA4ImagesEEG,001,100853,
AFNE01.JPG,AFNE01.JPG,AFNE01.JPG,AFNE01.JPG,AFNE01.JPG,AFNE01.JPG,,,,,,,,,,,,,,,,,,,,,3,3,33,5,,,AMSA15.jpg,AMSA07.jpg,AMNE04.jpg,AMNE06.jpg,AMSA07.jpg,MS,2,num_6,32,num_4,0.483464291145,,,2017_Jun_30_1644,60.0013856165,FEMA4ImagesEEG,001,100853,
AFNE01.JPG,AFNE01.JPG,AFNE01.JPG,AFNE01.JPG,AFNE01.JPG,AFNE01.JPG,,,,,,,,,,,,,,,,,,,,,3,4,34,7,,,AMNE13.jpg,AMSA03.jpg,AMSA06.jpg,AMNE16.jpg,AMSA06.jpg,MS,2,num_2,32,num_4,0.300149015442,,,2017_Jun_30_1644,60.0013856165,FEMA4ImagesEEG,001,100853,
AFNE01.JPG,AFNE01.JPG,AFNE01.JPG,AFNE01.JPG,AFNE01.JPG,AFNE01.JPG,,,,,,,,,,,,,,,,,,,,,3,5,35,2,,,AMNE12.jpg,AMSA10.jpg,AMSA20.jpg,AMNE13.jpg,AMSA20.jpg,MS,2,num_2,32,num_8,0.33350236289,,,2017_Jun_30_1644,60.0013856165,FEMA4ImagesEEG,001,100853,
AFNE01.JPG,AFNE01.JPG,AFNE01.JPG,AFNE01.JPG,AFNE01.JPG,AFNE01.JPG,,,,,,,,,,,,,,,,,,,,,3,6,36,4,,,AMNE20.jpg,AMNE09.jpg,AMSA03.jpg,AMSA18.jpg,AMNE20.jpg,MN,1,num_8,16,num_8,0.533493189781,,,2017_Jun_30_1644,60.0013856165,FEMA4ImagesEEG,001,100853,
AFNE01.JPG,AFNE01.JPG,AFNE01.JPG,AFNE01.JPG,AFNE01.JPG,AFNE01.JPG,,,,,,,,,,,,,,,,,,,,,3,7,37,9,,,AMSA15.jpg,AMNE14.jpg,AMNE08.jpg,AMSA09.jpg,AMNE14.jpg,MN,1,num_6,16,num_6,0.66679528309,,,2017_Jun_30_1644,60.0013856165,FEMA4ImagesEEG,001,100853,
AFNE01.JPG,AFNE01.JPG,AFNE01.JPG,AFNE01.JPG,AFNE01.JPG,AFNE01.JPG,,,,,,,,,,,,,,,,,,,,,3,8,38,0,,,AMNE02.jpg,AMNE10.jpg,AMSA08.jpg,AMSA01.jpg,AMSA08.jpg,MS,2,num_2,16,num_2,1.11676606373,,,2017_Jun_30_1644,60.0013856165,FEMA4ImagesEEG,001,100853,
