IPosition2,IPosition3,IPosition1,IPosition6,IPosition4,IPosition5,TrialsF1.thisRepN,TrialsF1.thisTrialN,TrialsF1.thisN,TrialsF1.thisIndex,TrialsM1.thisRepN,TrialsM1.thisTrialN,TrialsM1.thisN,TrialsM1.thisIndex,TrialsF2.thisRepN,TrialsF2.thisTrialN,TrialsF2.thisN,TrialsF2.thisIndex,TrialsM2.thisRepN,TrialsM2.thisTrialN,TrialsM2.thisN,TrialsM2.thisIndex,TrialsF3.thisRepN,TrialsF3.thisTrialN,TrialsF3.thisN,TrialsF3.thisIndex,TrialsM3.thisRepN,TrialsM3.thisTrialN,TrialsM3.thisN,TrialsM3.thisIndex,InstrKey_resp.keys,InstrKey_resp.rt,Image0 _Position,Image1 _Position,Image2 _Position,Image3 _Position,Center_image,condition,code,correct_answer,accuracy,Key_Resp.keys,Key_Resp.rt,BreakKey_resp.keys,BreakKey_resp.rt,date,frameRate,expName,session,participant,
,,,,,,,,,,,,,,,,,,,,,,,,,,,,,,space,30.4647902141,,,,,,,,,,,,,,2017_Jul_05_1456,60.0017320166,FEMA4ImagesEEG,001,100886,
AFNE23.JPG,AFNE24.JPG,AFNE22.JPG,AFSA24.JPG,AFSA22.JPG,AFSA23.JPG,0,0,0,8,,,,,,,,,,,,,,,,,,,,,,,AFNE10.jpg,AFNE02.jpg,AFSA10.jpg,AFSA01.jpg,AFSA01.jpg,FS,4,num_4,32,num_8,4.38316209067,,,2017_Jul_05_1456,60.0017320166,FEMA4ImagesEEG,001,100886,
AFSA25.JPG,AFNE24.JPG,AFSA24.JPG,AFNE21.JPG,AFSA21.JPG,AFNE25.JPG,0,1,1,2,,,,,,,,,,,,,,,,,,,,,,,AFNE15.jpg,AFSA15.jpg,AFNE17.jpg,AFSA10.jpg,AFSA10.jpg,FS,4,num_4,16,num_4,1.16672055086,,,2017_Jul_05_1456,60.0017320166,FEMA4ImagesEEG,001,100886,
AMSA21.JPG,AMNE22.JPG,AMNE21.JPG,AMSA23.JPG,AMSA22.JPG,AMNE23.JPG,0,2,2,1,,,,,,,,,,,,,,,,,,,,,,,AFNE01.jpg,AFSA19.jpg,AFNE14.jpg,AFSA14.jpg,AFNE14.jpg,FN,3,num_2,32,num_8,2.84963810991,,,2017_Jul_05_1456,60.0017320166,FEMA4ImagesEEG,001,100886,
AFSA21.JPG,AFNE22.JPG,AFNE21.JPG,AFSA23.JPG,AFSA22.JPG,AFNE23.JPG,0,3,3,0,,,,,,,,,,,,,,,,,,,,,,,AFNE06.jpg,AFSA19.jpg,AFNE10.jpg,AFSA02.jpg,AFNE10.jpg,FN,3,num_2,16,num_2,2.05001222016,,,2017_Jul_05_1456,60.0017320166,FEMA4ImagesEEG,001,100886,
AFNE22.JPG,AFSA24.JPG,AFSA22.JPG,AFNE25.JPG,AFNE24.JPG,AFSA25.JPG,0,4,4,6,,,,,,,,,,,,,,,,,,,,,,,AFNE05.jpg,AFNE06.jpg,AFSA03.jpg,AFSA01.jpg,AFSA01.jpg,FS,4,num_4,16,num_4,1.45038325118,,,2017_Jul_05_1456,60.0017320166,FEMA4ImagesEEG,001,100886,
AMNE22.JPG,AMSA24.JPG,AMSA22.JPG,AMNE25.JPG,AMNE24.JPG,AMSA25.JPG,0,5,5,7,,,,,,,,,,,,,,,,,,,,,,,AFSA14.jpg,AFSA09.jpg,AFNE17.jpg,AFNE20.jpg,AFSA14.jpg,FS,4,num_8,16,num_8,1.36672581092,,,2017_Jul_05_1456,60.0017320166,FEMA4ImagesEEG,001,100886,
AMSA21.JPG,AMNE23.JPG,AMNE21.JPG,AMSA25.JPG,AMNE25.JPG,AMSA23.JPG,0,6,6,5,,,,,,,,,,,,,,,,,,,,,,,AFSA13.jpg,AFNE19.jpg,AFNE15.jpg,AFSA19.jpg,AFSA19.jpg,FS,4,num_4,32,num_6,1.51668870146,,,2017_Jul_05_1456,60.0017320166,FEMA4ImagesEEG,001,100886,
AMSA25.JPG,AMNE24.JPG,AMSA24.JPG,AMNE26.JPG,AMSA21.JPG,AMNE25.JPG,0,7,7,3,,,,,,,,,,,,,,,,,,,,,,,AFNE08.jpg,AFSA09.jpg,AFSA04.jpg,AFNE13.jpg,AFSA04.jpg,FS,4,num_2,16,num_2,1.46672876179,,,2017_Jul_05_1456,60.0017320166,FEMA4ImagesEEG,001,100886,
AMNE23.JPG,AMNE24.JPG,AMNE22.JPG,AMSA24.JPG,AMSA22.JPG,AMSA23.JPG,0,8,8,9,,,,,,,,,,,,,,,,,,,,,,,AFNE10.jpg,AFSA03.jpg,AFSA08.jpg,AFNE11.jpg,AFNE11.jpg,FN,3,num_4,32,num_6,1.48339886032,,,2017_Jul_05_1456,60.0017320166,FEMA4ImagesEEG,001,100886,
AFSA21.JPG,AFNE23.JPG,AFNE21.JPG,AFSA25.JPG,AFNE25.JPG,AFSA23.JPG,0,9,9,4,,,,,,,,,,,,,,,,,,,,,,,AFSA03.jpg,AFNE16.jpg,AFNE13.jpg,AFSA09.jpg,AFSA03.jpg,FS,4,num_8,16,num_8,1.18342496851,,,2017_Jul_05_1456,60.0017320166,FEMA4ImagesEEG,001,100886,
AMSA21.JPG,AMNE23.JPG,AMNE21.JPG,AMSA25.JPG,AMNE25.JPG,AMSA23.JPG,,,,,0,0,0,5,,,,,,,,,,,,,,,,,,,AMSA06.jpg,AMNE13.jpg,AMSA11.jpg,AMNE07.jpg,AMNE13.jpg,MN,1,num_6,32,num_4,1.71665900096,,,2017_Jul_05_1456,60.0017320166,FEMA4ImagesEEG,001,100886,
AFSA25.JPG,AFNE24.JPG,AFSA24.JPG,AFNE21.JPG,AFSA21.JPG,AFNE25.JPG,,,,,0,1,1,2,,,,,,,,,,,,,,,,,,,AMSA09.jpg,AMSA16.jpg,AMNE15.jpg,AMNE07.jpg,AMSA16.jpg,MS,2,num_6,32,num_2,1.56673844811,,,2017_Jul_05_1456,60.0017320166,FEMA4ImagesEEG,001,100886,
AMSA25.JPG,AMNE24.JPG,AMSA24.JPG,AMNE26.JPG,AMSA21.JPG,AMNE25.JPG,,,,,0,2,2,3,,,,,,,,,,,,,,,,,,,AMNE15.jpg,AMSA07.jpg,AMSA04.jpg,AMNE09.jpg,AMSA07.jpg,MS,2,num_6,16,num_6,1.01676182996,,,2017_Jul_05_1456,60.0017320166,FEMA4ImagesEEG,001,100886,
AMNE22.JPG,AMSA24.JPG,AMSA22.JPG,AMNE25.JPG,AMNE24.JPG,AMSA25.JPG,,,,,0,3,3,7,,,,,,,,,,,,,,,,,,,AMSA15.jpg,AMNE07.jpg,AMNE11.jpg,AMSA17.jpg,AMNE11.jpg,MN,1,num_2,16,num_2,2.78331309464,,,2017_Jul_05_1456,60.0017320166,FEMA4ImagesEEG,001,100886,
AFSA21.JPG,AFNE22.JPG,AFNE21.JPG,AFSA23.JPG,AFSA22.JPG,AFNE23.JPG,,,,,0,4,4,0,,,,,,,,,,,,,,,,,,,AMSA02.jpg,AMNE16.jpg,AMNE10.jpg,AMSA10.jpg,AMSA02.jpg,MS,2,num_8,32,num_4,1.20011142478,,,2017_Jul_05_1456,60.0017320166,FEMA4ImagesEEG,001,100886,
AMNE23.JPG,AMNE24.JPG,AMNE22.JPG,AMSA24.JPG,AMSA22.JPG,AMSA23.JPG,,,,,0,5,5,9,,,,,,,,,,,,,,,,,,,AMNE17.jpg,AMSA09.jpg,AMNE11.jpg,AMSA04.jpg,AMNE17.jpg,MN,1,num_8,32,num_6,1.36670945329,,,2017_Jul_05_1456,60.0017320166,FEMA4ImagesEEG,001,100886,
AFNE23.JPG,AFNE24.JPG,AFNE22.JPG,AFSA24.JPG,AFSA22.JPG,AFSA23.JPG,,,,,0,6,6,8,,,,,,,,,,,,,,,,,,,AMSA01.jpg,AMSA03.jpg,AMNE18.jpg,AMNE15.jpg,AMSA01.jpg,MS,2,num_8,16,num_8,0.900235358393,,,2017_Jul_05_1456,60.0017320166,FEMA4ImagesEEG,001,100886,
AMSA21.JPG,AMNE22.JPG,AMNE21.JPG,AMSA23.JPG,AMSA22.JPG,AMNE23.JPG,,,,,0,7,7,1,,,,,,,,,,,,,,,,,,,AMSA10.jpg,AMSA12.jpg,AMNE11.jpg,AMNE08.jpg,AMSA10.jpg,MS,2,num_8,16,num_8,1.06658449338,,,2017_Jul_05_1456,60.0017320166,FEMA4ImagesEEG,001,100886,
AFSA21.JPG,AFNE23.JPG,AFNE21.JPG,AFSA25.JPG,AFNE25.JPG,AFSA23.JPG,,,,,0,8,8,4,,,,,,,,,,,,,,,,,,,AMSA01.jpg,AMNE03.jpg,AMNE19.jpg,AMSA06.jpg,AMNE03.jpg,MN,1,num_6,16,num_6,0.883439209312,,,2017_Jul_05_1456,60.0017320166,FEMA4ImagesEEG,001,100886,
AFNE22.JPG,AFSA24.JPG,AFSA22.JPG,AFNE25.JPG,AFNE24.JPG,AFSA25.JPG,,,,,0,9,9,6,,,,,,,,,,,,,,,,,,,AMSA05.jpg,AMNE19.jpg,AMNE06.jpg,AMSA12.jpg,AMSA05.jpg,MS,2,num_8,16,num_8,0.733487544814,,,2017_Jul_05_1456,60.0017320166,FEMA4ImagesEEG,001,100886,
AFNE23.JPG,AFNE24.JPG,AFNE22.JPG,AFSA24.JPG,AFSA22.JPG,AFSA23.JPG,,,,,,,,,0,0,0,8,,,,,,,,,,,,,,,AFSA16.jpg,AFNE13.jpg,AFSA09.jpg,AFNE04.jpg,AFSA09.jpg,FS,4,num_2,32,num_8,1.36675339448,,,2017_Jul_05_1456,60.0017320166,FEMA4ImagesEEG,001,100886,
AFSA21.JPG,AFNE23.JPG,AFNE21.JPG,AFSA25.JPG,AFNE25.JPG,AFSA23.JPG,,,,,,,,,0,1,1,4,,,,,,,,,,,,,,,AFSA12.jpg,AFNE04.jpg,AFNE17.jpg,AFSA02.jpg,AFNE17.jpg,FN,3,num_2,32,num_6,1.16676641651,,,2017_Jul_05_1456,60.0017320166,FEMA4ImagesEEG,001,100886,
AMSA21.JPG,AMNE23.JPG,AMNE21.JPG,AMSA25.JPG,AMNE25.JPG,AMSA23.JPG,,,,,,,,,0,2,2,5,,,,,,,,,,,,,,,AFSA12.jpg,AFNE05.jpg,AFNE09.jpg,AFSA11.jpg,AFSA11.jpg,FS,4,num_4,32,num_8,1.58338962309,,,2017_Jul_05_1456,60.0017320166,FEMA4ImagesEEG,001,100886,
AMNE22.JPG,AMSA24.JPG,AMSA22.JPG,AMNE25.JPG,AMNE24.JPG,AMSA25.JPG,,,,,,,,,0,3,3,7,,,,,,,,,,,,,,,AFSA15.jpg,AFNE01.jpg,AFSA19.jpg,AFNE02.jpg,AFSA19.jpg,FS,4,num_2,16,num_2,1.41672712599,,,2017_Jul_05_1456,60.0017320166,FEMA4ImagesEEG,001,100886,
AMSA25.JPG,AMNE24.JPG,AMSA24.JPG,AMNE26.JPG,AMSA21.JPG,AMNE25.JPG,,,,,,,,,0,4,4,3,,,,,,,,,,,,,,,AFSA01.jpg,AFNE20.jpg,AFSA20.jpg,AFNE17.jpg,AFNE17.jpg,FN,3,num_4,32,num_6,1.39996689965,,,2017_Jul_05_1456,60.0017320166,FEMA4ImagesEEG,001,100886,
AMNE23.JPG,AMNE24.JPG,AMNE22.JPG,AMSA24.JPG,AMSA22.JPG,AMSA23.JPG,,,,,,,,,0,5,5,9,,,,,,,,,,,,,,,AFNE10.jpg,AFSA06.jpg,AFSA08.jpg,AFNE04.jpg,AFNE10.jpg,FN,3,num_8,16,num_8,1.10010430438,,,2017_Jul_05_1456,60.0017320166,FEMA4ImagesEEG,001,100886,
AMSA21.JPG,AMNE22.JPG,AMNE21.JPG,AMSA23.JPG,AMSA22.JPG,AMNE23.JPG,,,,,,,,,0,6,6,1,,,,,,,,,,,,,,,AFNE08.jpg,AFSA12.jpg,AFNE19.jpg,AFSA08.jpg,AFSA08.jpg,FS,4,num_4,16,num_4,1.61670319887,,,2017_Jul_05_1456,60.0017320166,FEMA4ImagesEEG,001,100886,
AFSA25.JPG,AFNE24.JPG,AFSA24.JPG,AFNE21.JPG,AFSA21.JPG,AFNE25.JPG,,,,,,,,,0,7,7,2,,,,,,,,,,,,,,,AFSA14.jpg,AFNE15.jpg,AFNE01.jpg,AFSA12.jpg,AFNE15.jpg,FN,3,num_6,32,num_2,2.28333265986,,,2017_Jul_05_1456,60.0017320166,FEMA4ImagesEEG,001,100886,
AFNE22.JPG,AFSA24.JPG,AFSA22.JPG,AFNE25.JPG,AFNE24.JPG,AFSA25.JPG,,,,,,,,,0,8,8,6,,,,,,,,,,,,,,,AFNE12.jpg,AFSA12.jpg,AFNE16.jpg,AFSA16.jpg,AFSA16.jpg,FS,4,num_4,16,num_4,1.08343997912,,,2017_Jul_05_1456,60.0017320166,FEMA4ImagesEEG,001,100886,
AFSA21.JPG,AFNE22.JPG,AFNE21.JPG,AFSA23.JPG,AFSA22.JPG,AFNE23.JPG,,,,,,,,,0,9,9,0,,,,,,,,,,,,,,,AFSA12.jpg,AFNE11.jpg,AFNE17.jpg,AFSA05.jpg,AFNE17.jpg,FN,3,num_2,32,num_4,1.08344543166,,,2017_Jul_05_1456,60.0017320166,FEMA4ImagesEEG,001,100886,
AFSA21.JPG,AFNE23.JPG,AFNE21.JPG,AFSA25.JPG,AFNE25.JPG,AFSA23.JPG,,,,,,,,,,,,,0,0,0,4,,,,,,,,,,,AMNE01.jpg,AMSA03.jpg,AMNE03.jpg,AMSA09.jpg,AMNE03.jpg,MN,1,num_2,16,num_2,2.18337653694,,,2017_Jul_05_1456,60.0017320166,FEMA4ImagesEEG,001,100886,
AMSA21.JPG,AMNE22.JPG,AMNE21.JPG,AMSA23.JPG,AMSA22.JPG,AMNE23.JPG,,,,,,,,,,,,,0,1,1,1,,,,,,,,,,,AMNE09.jpg,AMSA20.jpg,AMSA13.jpg,AMNE17.jpg,AMSA20.jpg,MS,2,num_6,16,num_6,0.766740180086,,,2017_Jul_05_1456,60.0017320166,FEMA4ImagesEEG,001,100886,
AFSA25.JPG,AFNE24.JPG,AFSA24.JPG,AFNE21.JPG,AFSA21.JPG,AFNE25.JPG,,,,,,,,,,,,,0,2,2,2,,,,,,,,,,,AMSA14.jpg,AMSA13.jpg,AMNE05.jpg,AMNE01.jpg,AMNE01.jpg,MN,1,num_4,16,num_4,0.683492965181,,,2017_Jul_05_1456,60.0017320166,FEMA4ImagesEEG,001,100886,
AFNE22.JPG,AFSA24.JPG,AFSA22.JPG,AFNE25.JPG,AFNE24.JPG,AFSA25.JPG,,,,,,,,,,,,,0,3,3,6,,,,,,,,,,,AMNE19.jpg,AMSA10.jpg,AMSA02.jpg,AMNE07.jpg,AMSA02.jpg,MS,2,num_2,16,num_2,1.81670011976,,,2017_Jul_05_1456,60.0017320166,FEMA4ImagesEEG,001,100886,
AFNE23.JPG,AFNE24.JPG,AFNE22.JPG,AFSA24.JPG,AFSA22.JPG,AFSA23.JPG,,,,,,,,,,,,,0,4,4,8,,,,,,,,,,,AMSA13.jpg,AMNE15.jpg,AMNE05.jpg,AMSA17.jpg,AMNE05.jpg,MN,1,num_2,32,num_4,1.06676539022,,,2017_Jul_05_1456,60.0017320166,FEMA4ImagesEEG,001,100886,
AMNE22.JPG,AMSA24.JPG,AMSA22.JPG,AMNE25.JPG,AMNE24.JPG,AMSA25.JPG,,,,,,,,,,,,,0,5,5,7,,,,,,,,,,,AMSA19.jpg,AMSA02.jpg,AMNE04.jpg,AMNE16.jpg,AMSA19.jpg,MS,2,num_8,16,num_8,0.750101193204,,,2017_Jul_05_1456,60.0017320166,FEMA4ImagesEEG,001,100886,
AMNE23.JPG,AMNE24.JPG,AMNE22.JPG,AMSA24.JPG,AMSA22.JPG,AMSA23.JPG,,,,,,,,,,,,,0,6,6,9,,,,,,,,,,,AMSA01.jpg,AMNE10.jpg,AMSA08.jpg,AMNE04.jpg,AMNE10.jpg,MN,1,num_6,32,num_4,1.25006013853,,,2017_Jul_05_1456,60.0017320166,FEMA4ImagesEEG,001,100886,
AMSA25.JPG,AMNE24.JPG,AMSA24.JPG,AMNE26.JPG,AMSA21.JPG,AMNE25.JPG,,,,,,,,,,,,,0,7,7,3,,,,,,,,,,,AMNE18.jpg,AMNE14.jpg,AMSA18.jpg,AMSA15.jpg,AMNE14.jpg,MN,1,num_6,16,num_6,0.800178523408,,,2017_Jul_05_1456,60.0017320166,FEMA4ImagesEEG,001,100886,
AFSA21.JPG,AFNE22.JPG,AFNE21.JPG,AFSA23.JPG,AFSA22.JPG,AFNE23.JPG,,,,,,,,,,,,,0,8,8,0,,,,,,,,,,,AMSA16.jpg,AMSA11.jpg,AMNE07.jpg,AMNE11.jpg,AMSA11.jpg,MS,2,num_6,16,num_6,0.883447869215,,,2017_Jul_05_1456,60.0017320166,FEMA4ImagesEEG,001,100886,
AMSA21.JPG,AMNE23.JPG,AMNE21.JPG,AMSA25.JPG,AMNE25.JPG,AMSA23.JPG,,,,,,,,,,,,,0,9,9,5,,,,,,,,,,,AMSA12.jpg,AMNE15.jpg,AMNE17.jpg,AMSA07.jpg,AMSA07.jpg,MS,2,num_4,16,num_4,1.68337653694,,,2017_Jul_05_1456,60.0017320166,FEMA4ImagesEEG,001,100886,
AMSA25.JPG,AMNE24.JPG,AMSA24.JPG,AMNE26.JPG,AMSA21.JPG,AMNE25.JPG,,,,,,,,,,,,,,,,,0,0,0,3,,,,,,,AFSA02.jpg,AFSA19.jpg,AFNE01.jpg,AFNE13.jpg,AFNE01.jpg,FN,3,num_2,16,num_2,1.1001081533,,,2017_Jul_05_1456,60.0017320166,FEMA4ImagesEEG,001,100886,
AMSA21.JPG,AMNE22.JPG,AMNE21.JPG,AMSA23.JPG,AMSA22.JPG,AMNE23.JPG,,,,,,,,,,,,,,,,,0,1,1,1,,,,,,,AFSA10.jpg,AFNE10.jpg,AFSA05.jpg,AFNE06.jpg,AFNE06.jpg,FN,3,num_4,32,num_2,1.81675143796,,,2017_Jul_05_1456,60.0017320166,FEMA4ImagesEEG,001,100886,
AFSA25.JPG,AFNE24.JPG,AFSA24.JPG,AFNE21.JPG,AFSA21.JPG,AFNE25.JPG,,,,,,,,,,,,,,,,,0,2,2,2,,,,,,,AFNE15.jpg,AFSA14.jpg,AFNE12.jpg,AFSA15.jpg,AFNE12.jpg,FN,3,num_2,16,num_2,0.80023369065,,,2017_Jul_05_1456,60.0017320166,FEMA4ImagesEEG,001,100886,
AMNE22.JPG,AMSA24.JPG,AMSA22.JPG,AMNE25.JPG,AMNE24.JPG,AMSA25.JPG,,,,,,,,,,,,,,,,,0,3,3,7,,,,,,,AFSA17.jpg,AFSA13.jpg,AFNE17.jpg,AFNE09.jpg,AFNE09.jpg,FN,3,num_4,16,num_4,1.16657750111,,,2017_Jul_05_1456,60.0017320166,FEMA4ImagesEEG,001,100886,
AFNE23.JPG,AFNE24.JPG,AFNE22.JPG,AFSA24.JPG,AFSA22.JPG,AFSA23.JPG,,,,,,,,,,,,,,,,,0,4,4,8,,,,,,,AFSA20.jpg,AFNE19.jpg,AFSA01.jpg,AFNE17.jpg,AFSA20.jpg,FS,4,num_8,32,num_2,1.93332473747,,,2017_Jul_05_1456,60.0017320166,FEMA4ImagesEEG,001,100886,
AMNE23.JPG,AMNE24.JPG,AMNE22.JPG,AMSA24.JPG,AMSA22.JPG,AMSA23.JPG,,,,,,,,,,,,,,,,,0,5,5,9,,,,,,,AFSA08.jpg,AFSA04.jpg,AFNE04.jpg,AFNE10.jpg,AFSA08.jpg,FS,4,num_8,16,num_8,1.46672202635,,,2017_Jul_05_1456,60.0017320166,FEMA4ImagesEEG,001,100886,
AFSA21.JPG,AFNE23.JPG,AFNE21.JPG,AFSA25.JPG,AFNE25.JPG,AFSA23.JPG,,,,,,,,,,,,,,,,,0,6,6,4,,,,,,,AFNE13.jpg,AFSA13.jpg,AFSA08.jpg,AFNE19.jpg,AFSA08.jpg,FS,4,num_2,16,num_2,1.2334461693,,,2017_Jul_05_1456,60.0017320166,FEMA4ImagesEEG,001,100886,
AFNE22.JPG,AFSA24.JPG,AFSA22.JPG,AFNE25.JPG,AFNE24.JPG,AFSA25.JPG,,,,,,,,,,,,,,,,,0,7,7,6,,,,,,,AFNE08.jpg,AFSA15.jpg,AFNE15.jpg,AFSA03.jpg,AFNE15.jpg,FN,3,num_2,16,num_2,1.68347307935,,,2017_Jul_05_1456,60.0017320166,FEMA4ImagesEEG,001,100886,
AMSA21.JPG,AMNE23.JPG,AMNE21.JPG,AMSA25.JPG,AMNE25.JPG,AMSA23.JPG,,,,,,,,,,,,,,,,,0,8,8,5,,,,,,,AFNE18.jpg,AFSA13.jpg,AFNE12.jpg,AFSA18.jpg,AFNE12.jpg,FN,3,num_2,16,num_2,1.4000647252,,,2017_Jul_05_1456,60.0017320166,FEMA4ImagesEEG,001,100886,
AFSA21.JPG,AFNE22.JPG,AFNE21.JPG,AFSA23.JPG,AFSA22.JPG,AFNE23.JPG,,,,,,,,,,,,,,,,,0,9,9,0,,,,,,,AFSA20.jpg,AFNE12.jpg,AFSA12.jpg,AFNE14.jpg,AFNE14.jpg,FN,3,num_4,16,num_4,1.61658195953,,,2017_Jul_05_1456,60.0017320166,FEMA4ImagesEEG,001,100886,
AFSA21.JPG,AFNE22.JPG,AFNE21.JPG,AFSA23.JPG,AFSA22.JPG,AFNE23.JPG,,,,,,,,,,,,,,,,,,,,,0,0,0,0,,,AMNE01.jpg,AMSA06.jpg,AMNE08.jpg,AMSA10.jpg,AMSA06.jpg,MS,2,num_6,16,num_6,1.28355878091,,,2017_Jul_05_1456,60.0017320166,FEMA4ImagesEEG,001,100886,
AMSA21.JPG,AMNE22.JPG,AMNE21.JPG,AMSA23.JPG,AMSA22.JPG,AMNE23.JPG,,,,,,,,,,,,,,,,,,,,,0,1,1,1,,,AMSA01.jpg,AMSA03.jpg,AMNE03.jpg,AMNE13.jpg,AMSA03.jpg,MS,2,num_6,16,num_6,0.983418425429,,,2017_Jul_05_1456,60.0017320166,FEMA4ImagesEEG,001,100886,
AFNE22.JPG,AFSA24.JPG,AFSA22.JPG,AFNE25.JPG,AFNE24.JPG,AFSA25.JPG,,,,,,,,,,,,,,,,,,,,,0,2,2,6,,,AMSA09.jpg,AMNE11.jpg,AMNE12.jpg,AMSA13.jpg,AMNE12.jpg,MN,1,num_2,16,num_2,2.96660174907,,,2017_Jul_05_1456,60.0017320166,FEMA4ImagesEEG,001,100886,
AMNE23.JPG,AMNE24.JPG,AMNE22.JPG,AMSA24.JPG,AMSA22.JPG,AMSA23.JPG,,,,,,,,,,,,,,,,,,,,,0,3,3,9,,,AMSA10.jpg,AMNE04.jpg,AMSA08.jpg,AMNE09.jpg,AMSA08.jpg,MS,2,num_2,16,num_2,1.13342397427,,,2017_Jul_05_1456,60.0017320166,FEMA4ImagesEEG,001,100886,
AFSA21.JPG,AFNE23.JPG,AFNE21.JPG,AFSA25.JPG,AFNE25.JPG,AFSA23.JPG,,,,,,,,,,,,,,,,,,,,,0,4,4,4,,,AMSA20.jpg,AMNE14.jpg,AMNE17.jpg,AMSA13.jpg,AMNE14.jpg,MN,1,num_6,32,num_8,1.00011514535,,,2017_Jul_05_1456,60.0017320166,FEMA4ImagesEEG,001,100886,
AFNE23.JPG,AFNE24.JPG,AFNE22.JPG,AFSA24.JPG,AFSA22.JPG,AFSA23.JPG,,,,,,,,,,,,,,,,,,,,,0,5,5,8,,,AMSA04.jpg,AMNE11.jpg,AMNE08.jpg,AMSA14.jpg,AMSA04.jpg,MS,2,num_8,32,num_6,1.38345268031,,,2017_Jul_05_1456,60.0017320166,FEMA4ImagesEEG,001,100886,
AFSA25.JPG,AFNE24.JPG,AFSA24.JPG,AFNE21.JPG,AFSA21.JPG,AFNE25.JPG,,,,,,,,,,,,,,,,,,,,,0,6,6,2,,,AMSA20.jpg,AMSA02.jpg,AMNE11.jpg,AMNE20.jpg,AMNE11.jpg,MN,1,num_2,32,num_4,0.950113188941,,,2017_Jul_05_1456,60.0017320166,FEMA4ImagesEEG,001,100886,
AMSA25.JPG,AMNE24.JPG,AMSA24.JPG,AMNE26.JPG,AMSA21.JPG,AMNE25.JPG,,,,,,,,,,,,,,,,,,,,,0,7,7,3,,,AMSA02.jpg,AMNE02.jpg,AMNE20.jpg,AMSA04.jpg,AMSA04.jpg,MS,2,num_4,32,num_6,1.00010776846,,,2017_Jul_05_1456,60.0017320166,FEMA4ImagesEEG,001,100886,
AMNE22.JPG,AMSA24.JPG,AMSA22.JPG,AMNE25.JPG,AMNE24.JPG,AMSA25.JPG,,,,,,,,,,,,,,,,,,,,,0,8,8,7,,,AMSA10.jpg,AMNE14.jpg,AMNE07.jpg,AMSA14.jpg,AMSA10.jpg,MS,2,num_8,32,num_2,1.68339449831,,,2017_Jul_05_1456,60.0017320166,FEMA4ImagesEEG,001,100886,
AMSA21.JPG,AMNE23.JPG,AMNE21.JPG,AMSA25.JPG,AMNE25.JPG,AMSA23.JPG,,,,,,,,,,,,,,,,,,,,,0,9,9,5,,,AMNE02.jpg,AMSA11.jpg,AMNE13.jpg,AMSA19.jpg,AMNE02.jpg,MN,1,num_8,32,num_6,0.900166720268,,,2017_Jul_05_1456,60.0017320166,FEMA4ImagesEEG,001,100886,
,,,,,,,,,,,,,,,,,,,,,,,,,,,,,,,,,,,,,,,,,,,space,7.88286925573,2017_Jul_05_1456,60.0017320166,FEMA4ImagesEEG,001,100886,
AFNE01.JPG,AFNE01.JPG,AFNE01.JPG,AFNE01.JPG,AFNE01.JPG,AFNE01.JPG,0,0,0,9,,,,,,,,,,,,,,,,,,,,,,,AFNE03.jpg,AFSA19.jpg,AFSA09.jpg,AFNE07.jpg,AFNE03.jpg,FN,3,num_8,16,num_8,0.950081435731,,,2017_Jul_05_1456,60.0017320166,FEMA4ImagesEEG,001,100886,
AFNE01.JPG,AFNE01.JPG,AFNE01.JPG,AFNE01.JPG,AFNE01.JPG,AFNE01.JPG,0,1,1,2,,,,,,,,,,,,,,,,,,,,,,,AFSA12.jpg,AFNE07.jpg,AFNE13.jpg,AFSA02.jpg,AFSA02.jpg,FS,4,num_4,16,num_4,0.816770040896,,,2017_Jul_05_1456,60.0017320166,FEMA4ImagesEEG,001,100886,
AFNE01.JPG,AFNE01.JPG,AFNE01.JPG,AFNE01.JPG,AFNE01.JPG,AFNE01.JPG,0,2,2,5,,,,,,,,,,,,,,,,,,,,,,,AFSA09.jpg,AFNE10.jpg,AFSA20.jpg,AFNE05.jpg,AFSA20.jpg,FS,4,num_2,16,num_2,1.31644866022,,,2017_Jul_05_1456,60.0017320166,FEMA4ImagesEEG,001,100886,
AFNE01.JPG,AFNE01.JPG,AFNE01.JPG,AFNE01.JPG,AFNE01.JPG,AFNE01.JPG,0,3,3,7,,,,,,,,,,,,,,,,,,,,,,,AFSA12.jpg,AFNE06.jpg,AFSA07.jpg,AFNE14.jpg,AFNE14.jpg,FN,3,num_4,16,num_4,1.50005452568,,,2017_Jul_05_1456,60.0017320166,FEMA4ImagesEEG,001,100886,
AFNE01.JPG,AFNE01.JPG,AFNE01.JPG,AFNE01.JPG,AFNE01.JPG,AFNE01.JPG,0,4,4,8,,,,,,,,,,,,,,,,,,,,,,,AFSA19.jpg,AFNE09.jpg,AFNE07.jpg,AFSA12.jpg,AFSA19.jpg,FS,4,num_8,16,num_8,0.666802660096,,,2017_Jul_05_1456,60.0017320166,FEMA4ImagesEEG,001,100886,
AFNE01.JPG,AFNE01.JPG,AFNE01.JPG,AFNE01.JPG,AFNE01.JPG,AFNE01.JPG,0,5,5,4,,,,,,,,,,,,,,,,,,,,,,,AFNE17.jpg,AFSA14.jpg,AFSA10.jpg,AFNE13.jpg,AFNE17.jpg,FN,3,num_8,32,num_4,0.750119475299,,,2017_Jul_05_1456,60.0017320166,FEMA4ImagesEEG,001,100886,
AFNE01.JPG,AFNE01.JPG,AFNE01.JPG,AFNE01.JPG,AFNE01.JPG,AFNE01.JPG,0,6,6,6,,,,,,,,,,,,,,,,,,,,,,,AFSA04.jpg,AFNE16.jpg,AFNE12.jpg,AFSA05.jpg,AFNE16.jpg,FN,3,num_6,32,num_4,1.1334207668,,,2017_Jul_05_1456,60.0017320166,FEMA4ImagesEEG,001,100886,
AFNE01.JPG,AFNE01.JPG,AFNE01.JPG,AFNE01.JPG,AFNE01.JPG,AFNE01.JPG,0,7,7,0,,,,,,,,,,,,,,,,,,,,,,,AFNE20.jpg,AFSA06.jpg,AFNE07.jpg,AFSA10.jpg,AFSA10.jpg,FS,4,num_4,16,num_4,0.73349203507,,,2017_Jul_05_1456,60.0017320166,FEMA4ImagesEEG,001,100886,
AFNE01.JPG,AFNE01.JPG,AFNE01.JPG,AFNE01.JPG,AFNE01.JPG,AFNE01.JPG,0,8,8,1,,,,,,,,,,,,,,,,,,,,,,,AFNE11.jpg,AFSA04.jpg,AFSA08.jpg,AFNE13.jpg,AFNE11.jpg,FN,3,num_8,32,num_4,1.11674970598,,,2017_Jul_05_1456,60.0017320166,FEMA4ImagesEEG,001,100886,
AFNE01.JPG,AFNE01.JPG,AFNE01.JPG,AFNE01.JPG,AFNE01.JPG,AFNE01.JPG,0,9,9,3,,,,,,,,,,,,,,,,,,,,,,,AFSA07.jpg,AFNE17.jpg,AFNE09.jpg,AFSA15.jpg,AFSA07.jpg,FS,4,num_8,32,num_4,1.11679557175,,,2017_Jul_05_1456,60.0017320166,FEMA4ImagesEEG,001,100886,
AFNE01.JPG,AFNE01.JPG,AFNE01.JPG,AFNE01.JPG,AFNE01.JPG,AFNE01.JPG,1,0,10,6,,,,,,,,,,,,,,,,,,,,,,,AFNE18.jpg,AFSA03.jpg,AFSA05.jpg,AFNE06.jpg,AFSA03.jpg,FS,4,num_6,16,num_6,1.13328766008,,,2017_Jul_05_1456,60.0017320166,FEMA4ImagesEEG,001,100886,
AFNE01.JPG,AFNE01.JPG,AFNE01.JPG,AFNE01.JPG,AFNE01.JPG,AFNE01.JPG,1,1,11,0,,,,,,,,,,,,,,,,,,,,,,,AFNE13.jpg,AFSA02.jpg,AFSA09.jpg,AFNE05.jpg,AFSA02.jpg,FS,4,num_6,16,num_6,0.633514743415,,,2017_Jul_05_1456,60.0017320166,FEMA4ImagesEEG,001,100886,
AFNE01.JPG,AFNE01.JPG,AFNE01.JPG,AFNE01.JPG,AFNE01.JPG,AFNE01.JPG,1,2,12,9,,,,,,,,,,,,,,,,,,,,,,,AFSA01.jpg,AFNE18.jpg,AFSA16.jpg,AFNE01.jpg,AFNE18.jpg,FN,3,num_6,32,num_4,0.966709517525,,,2017_Jul_05_1456,60.0017320166,FEMA4ImagesEEG,001,100886,
AFNE01.JPG,AFNE01.JPG,AFNE01.JPG,AFNE01.JPG,AFNE01.JPG,AFNE01.JPG,1,3,13,8,,,,,,,,,,,,,,,,,,,,,,,AFSA01.jpg,AFNE01.jpg,AFNE06.jpg,AFSA05.jpg,AFNE01.jpg,FN,3,num_6,16,num_6,1.01629483374,,,2017_Jul_05_1456,60.0017320166,FEMA4ImagesEEG,001,100886,
AFNE01.JPG,AFNE01.JPG,AFNE01.JPG,AFNE01.JPG,AFNE01.JPG,AFNE01.JPG,1,4,14,7,,,,,,,,,,,,,,,,,,,,,,,AFSA10.jpg,AFNE07.jpg,AFNE13.jpg,AFSA17.jpg,AFSA17.jpg,FS,4,num_4,16,num_4,1.31674341951,,,2017_Jul_05_1456,60.0017320166,FEMA4ImagesEEG,001,100886,
AFNE01.JPG,AFNE01.JPG,AFNE01.JPG,AFNE01.JPG,AFNE01.JPG,AFNE01.JPG,1,5,15,5,,,,,,,,,,,,,,,,,,,,,,,AFNE04.jpg,AFNE09.jpg,AFSA19.jpg,AFSA03.jpg,AFSA03.jpg,FS,4,num_4,16,num_4,1.10007607937,,,2017_Jul_05_1456,60.0017320166,FEMA4ImagesEEG,001,100886,
AFNE01.JPG,AFNE01.JPG,AFNE01.JPG,AFNE01.JPG,AFNE01.JPG,AFNE01.JPG,1,6,16,1,,,,,,,,,,,,,,,,,,,,,,,AFSA15.jpg,AFSA05.jpg,AFNE01.jpg,AFNE20.jpg,AFNE20.jpg,FN,3,num_4,16,num_4,1.20024036197,,,2017_Jul_05_1456,60.0017320166,FEMA4ImagesEEG,001,100886,
AFNE01.JPG,AFNE01.JPG,AFNE01.JPG,AFNE01.JPG,AFNE01.JPG,AFNE01.JPG,1,7,17,4,,,,,,,,,,,,,,,,,,,,,,,AFSA10.jpg,AFNE14.jpg,AFSA16.jpg,AFNE06.jpg,AFSA10.jpg,FS,4,num_8,16,num_8,1.33342089516,,,2017_Jul_05_1456,60.0017320166,FEMA4ImagesEEG,001,100886,
AFNE01.JPG,AFNE01.JPG,AFNE01.JPG,AFNE01.JPG,AFNE01.JPG,AFNE01.JPG,1,8,18,3,,,,,,,,,,,,,,,,,,,,,,,AFNE18.jpg,AFSA01.jpg,AFSA20.jpg,AFNE07.jpg,AFSA01.jpg,FS,4,num_6,16,num_6,0.950181827066,,,2017_Jul_05_1456,60.0017320166,FEMA4ImagesEEG,001,100886,
AFNE01.JPG,AFNE01.JPG,AFNE01.JPG,AFNE01.JPG,AFNE01.JPG,AFNE01.JPG,1,9,19,2,,,,,,,,,,,,,,,,,,,,,,,AFNE10.jpg,AFSA12.jpg,AFSA15.jpg,AFNE09.jpg,AFNE10.jpg,FN,3,num_8,32,num_4,0.850131727639,,,2017_Jul_05_1456,60.0017320166,FEMA4ImagesEEG,001,100886,
AFNE01.JPG,AFNE01.JPG,AFNE01.JPG,AFNE01.JPG,AFNE01.JPG,AFNE01.JPG,2,0,20,5,,,,,,,,,,,,,,,,,,,,,,,AFNE20.jpg,AFSA19.jpg,AFSA17.jpg,AFNE05.jpg,AFSA19.jpg,FS,4,num_6,16,num_6,0.483506628661,,,2017_Jul_05_1456,60.0017320166,FEMA4ImagesEEG,001,100886,
AFNE01.JPG,AFNE01.JPG,AFNE01.JPG,AFNE01.JPG,AFNE01.JPG,AFNE01.JPG,2,1,21,7,,,,,,,,,,,,,,,,,,,,,,,AFNE04.jpg,AFNE15.jpg,AFSA06.jpg,AFSA03.jpg,AFSA06.jpg,FS,4,num_2,16,num_2,2.79997966508,,,2017_Jul_05_1456,60.0017320166,FEMA4ImagesEEG,001,100886,
AFNE01.JPG,AFNE01.JPG,AFNE01.JPG,AFNE01.JPG,AFNE01.JPG,AFNE01.JPG,2,2,22,0,,,,,,,,,,,,,,,,,,,,,,,AFSA06.jpg,AFNE08.jpg,AFNE19.jpg,AFSA14.jpg,AFSA06.jpg,FS,4,num_8,32,num_4,1.0167207754,,,2017_Jul_05_1456,60.0017320166,FEMA4ImagesEEG,001,100886,
AFNE01.JPG,AFNE01.JPG,AFNE01.JPG,AFNE01.JPG,AFNE01.JPG,AFNE01.JPG,2,3,23,9,,,,,,,,,,,,,,,,,,,,,,,AFSA07.jpg,AFNE18.jpg,AFSA16.jpg,AFNE05.jpg,AFNE05.jpg,FN,3,num_4,32,num_2,1.28339199652,,,2017_Jul_05_1456,60.0017320166,FEMA4ImagesEEG,001,100886,
AFNE01.JPG,AFNE01.JPG,AFNE01.JPG,AFNE01.JPG,AFNE01.JPG,AFNE01.JPG,2,4,24,8,,,,,,,,,,,,,,,,,,,,,,,AFNE04.jpg,AFSA06.jpg,AFNE19.jpg,AFSA03.jpg,AFNE19.jpg,FN,3,num_2,32,num_6,1.0502223043,,,2017_Jul_05_1456,60.0017320166,FEMA4ImagesEEG,001,100886,
AFNE01.JPG,AFNE01.JPG,AFNE01.JPG,AFNE01.JPG,AFNE01.JPG,AFNE01.JPG,2,5,25,1,,,,,,,,,,,,,,,,,,,,,,,AFSA14.jpg,AFNE08.jpg,AFNE20.jpg,AFSA09.jpg,AFSA14.jpg,FS,4,num_8,32,num_2,1.21674720419,,,2017_Jul_05_1456,60.0017320166,FEMA4ImagesEEG,001,100886,
AFNE01.JPG,AFNE01.JPG,AFNE01.JPG,AFNE01.JPG,AFNE01.JPG,AFNE01.JPG,2,6,26,2,,,,,,,,,,,,,,,,,,,,,,,AFNE10.jpg,AFSA19.jpg,AFNE08.jpg,AFSA01.jpg,AFNE08.jpg,FN,3,num_2,32,num_6,1.1500770736,,,2017_Jul_05_1456,60.0017320166,FEMA4ImagesEEG,001,100886,
AFNE01.JPG,AFNE01.JPG,AFNE01.JPG,AFNE01.JPG,AFNE01.JPG,AFNE01.JPG,2,7,27,3,,,,,,,,,,,,,,,,,,,,,,,AFNE19.jpg,AFNE09.jpg,AFSA20.jpg,AFSA06.jpg,AFNE19.jpg,FN,3,num_8,16,num_8,0.833438215079,,,2017_Jul_05_1456,60.0017320166,FEMA4ImagesEEG,001,100886,
AFNE01.JPG,AFNE01.JPG,AFNE01.JPG,AFNE01.JPG,AFNE01.JPG,AFNE01.JPG,2,8,28,6,,,,,,,,,,,,,,,,,,,,,,,AFSA03.jpg,AFNE17.jpg,AFNE08.jpg,AFSA01.jpg,AFNE17.jpg,FN,3,num_6,32,num_4,0.983415538794,,,2017_Jul_05_1456,60.0017320166,FEMA4ImagesEEG,001,100886,
AFNE01.JPG,AFNE01.JPG,AFNE01.JPG,AFNE01.JPG,AFNE01.JPG,AFNE01.JPG,2,9,29,4,,,,,,,,,,,,,,,,,,,,,,,AFSA20.jpg,AFNE14.jpg,AFSA01.jpg,AFNE11.jpg,AFNE14.jpg,FN,3,num_6,32,num_4,1.18332650152,,,2017_Jul_05_1456,60.0017320166,FEMA4ImagesEEG,001,100886,
AFNE01.JPG,AFNE01.JPG,AFNE01.JPG,AFNE01.JPG,AFNE01.JPG,AFNE01.JPG,3,0,30,1,,,,,,,,,,,,,,,,,,,,,,,AFSA11.jpg,AFSA02.jpg,AFNE06.jpg,AFNE13.jpg,AFSA02.jpg,FS,4,num_6,16,num_6,0.683474041638,,,2017_Jul_05_1456,60.0017320166,FEMA4ImagesEEG,001,100886,
AFNE01.JPG,AFNE01.JPG,AFNE01.JPG,AFNE01.JPG,AFNE01.JPG,AFNE01.JPG,3,1,31,9,,,,,,,,,,,,,,,,,,,,,,,AFSA03.jpg,AFNE17.jpg,AFSA04.jpg,AFNE18.jpg,AFSA03.jpg,FS,4,num_8,32,num_6,0.966740949778,,,2017_Jul_05_1456,60.0017320166,FEMA4ImagesEEG,001,100886,
AFNE01.JPG,AFNE01.JPG,AFNE01.JPG,AFNE01.JPG,AFNE01.JPG,AFNE01.JPG,3,2,32,3,,,,,,,,,,,,,,,,,,,,,,,AFNE08.jpg,AFSA02.jpg,AFSA03.jpg,AFNE03.jpg,AFNE03.jpg,FN,3,num_4,16,num_4,0.650108185248,,,2017_Jul_05_1456,60.0017320166,FEMA4ImagesEEG,001,100886,
AFNE01.JPG,AFNE01.JPG,AFNE01.JPG,AFNE01.JPG,AFNE01.JPG,AFNE01.JPG,3,3,33,2,,,,,,,,,,,,,,,,,,,,,,,AFNE12.jpg,AFSA20.jpg,AFNE06.jpg,AFSA12.jpg,AFNE12.jpg,FN,3,num_8,16,num_8,1.50008082634,,,2017_Jul_05_1456,60.0017320166,FEMA4ImagesEEG,001,100886,
AFNE01.JPG,AFNE01.JPG,AFNE01.JPG,AFNE01.JPG,AFNE01.JPG,AFNE01.JPG,3,4,34,6,,,,,,,,,,,,,,,,,,,,,,,AFNE01.jpg,AFSA16.jpg,AFSA10.jpg,AFNE12.jpg,AFSA10.jpg,FS,4,num_2,16,num_2,1.08340020746,,,2017_Jul_05_1456,60.0017320166,FEMA4ImagesEEG,001,100886,
AFNE01.JPG,AFNE01.JPG,AFNE01.JPG,AFNE01.JPG,AFNE01.JPG,AFNE01.JPG,3,5,35,4,,,,,,,,,,,,,,,,,,,,,,,AFNE01.jpg,AFNE12.jpg,AFSA05.jpg,AFSA19.jpg,AFSA19.jpg,FS,4,num_4,16,num_4,1.08366128919,,,2017_Jul_05_1456,60.0017320166,FEMA4ImagesEEG,001,100886,
AFNE01.JPG,AFNE01.JPG,AFNE01.JPG,AFNE01.JPG,AFNE01.JPG,AFNE01.JPG,3,6,36,7,,,,,,,,,,,,,,,,,,,,,,,AFNE08.jpg,AFSA05.jpg,AFNE06.jpg,AFSA06.jpg,AFSA06.jpg,FS,4,num_4,32,num_2,1.13343327562,,,2017_Jul_05_1456,60.0017320166,FEMA4ImagesEEG,001,100886,
AFNE01.JPG,AFNE01.JPG,AFNE01.JPG,AFNE01.JPG,AFNE01.JPG,AFNE01.JPG,3,7,37,0,,,,,,,,,,,,,,,,,,,,,,,AFSA08.jpg,AFSA03.jpg,AFNE01.jpg,AFNE02.jpg,AFNE02.jpg,FN,3,num_4,16,num_4,1.08343292284,,,2017_Jul_05_1456,60.0017320166,FEMA4ImagesEEG,001,100886,
AFNE01.JPG,AFNE01.JPG,AFNE01.JPG,AFNE01.JPG,AFNE01.JPG,AFNE01.JPG,3,8,38,5,,,,,,,,,,,,,,,,,,,,,,,AFSA04.jpg,AFNE12.jpg,AFNE17.jpg,AFSA10.jpg,AFNE17.jpg,FN,3,num_2,32,num_6,1.86682107055,,,2017_Jul_05_1456,60.0017320166,FEMA4ImagesEEG,001,100886,
AFNE01.JPG,AFNE01.JPG,AFNE01.JPG,AFNE01.JPG,AFNE01.JPG,AFNE01.JPG,3,9,39,8,,,,,,,,,,,,,,,,,,,,,,,AFSA12.jpg,AFSA01.jpg,AFNE12.jpg,AFNE02.jpg,AFNE12.jpg,FN,3,num_2,32,num_6,1.85002684582,,,2017_Jul_05_1456,60.0017320166,FEMA4ImagesEEG,001,100886,
AFNE01.JPG,AFNE01.JPG,AFNE01.JPG,AFNE01.JPG,AFNE01.JPG,AFNE01.JPG,4,0,40,1,,,,,,,,,,,,,,,,,,,,,,,AFNE01.jpg,AFSA03.jpg,AFSA07.jpg,AFNE04.jpg,AFNE01.jpg,FN,3,num_8,32,num_6,1.20010212343,,,2017_Jul_05_1456,60.0017320166,FEMA4ImagesEEG,001,100886,
AFNE01.JPG,AFNE01.JPG,AFNE01.JPG,AFNE01.JPG,AFNE01.JPG,AFNE01.JPG,4,1,41,5,,,,,,,,,,,,,,,,,,,,,,,AFNE18.jpg,AFSA15.jpg,AFSA07.jpg,AFNE15.jpg,AFSA15.jpg,FS,4,num_6,32,num_2,1.11674264981,,,2017_Jul_05_1456,60.0017320166,FEMA4ImagesEEG,001,100886,
AFNE01.JPG,AFNE01.JPG,AFNE01.JPG,AFNE01.JPG,AFNE01.JPG,AFNE01.JPG,4,2,42,7,,,,,,,,,,,,,,,,,,,,,,,AFNE04.jpg,AFSA06.jpg,AFSA17.jpg,AFNE10.jpg,AFNE04.jpg,FN,3,num_8,32,num_4,1.31674149516,,,2017_Jul_05_1456,60.0017320166,FEMA4ImagesEEG,001,100886,
AFNE01.JPG,AFNE01.JPG,AFNE01.JPG,AFNE01.JPG,AFNE01.JPG,AFNE01.JPG,4,3,43,3,,,,,,,,,,,,,,,,,,,,,,,AFSA07.jpg,AFSA20.jpg,AFNE16.jpg,AFNE18.jpg,AFNE16.jpg,FN,3,num_2,32,num_6,1.18325914629,,,2017_Jul_05_1456,60.0017320166,FEMA4ImagesEEG,001,100886,
AFNE01.JPG,AFNE01.JPG,AFNE01.JPG,AFNE01.JPG,AFNE01.JPG,AFNE01.JPG,4,4,44,0,,,,,,,,,,,,,,,,,,,,,,,AFSA16.jpg,AFNE12.jpg,AFSA03.jpg,AFNE03.jpg,AFNE12.jpg,FN,3,num_6,16,num_6,1.81671102485,,,2017_Jul_05_1456,60.0017320166,FEMA4ImagesEEG,001,100886,
AFNE01.JPG,AFNE01.JPG,AFNE01.JPG,AFNE01.JPG,AFNE01.JPG,AFNE01.JPG,4,5,45,9,,,,,,,,,,,,,,,,,,,,,,,AFSA12.jpg,AFSA13.jpg,AFNE15.jpg,AFNE11.jpg,AFNE15.jpg,FN,3,num_2,16,num_2,0.650109789101,,,2017_Jul_05_1456,60.0017320166,FEMA4ImagesEEG,001,100886,
AFNE01.JPG,AFNE01.JPG,AFNE01.JPG,AFNE01.JPG,AFNE01.JPG,AFNE01.JPG,4,6,46,6,,,,,,,,,,,,,,,,,,,,,,,AFSA10.jpg,AFSA19.jpg,AFNE06.jpg,AFNE17.jpg,AFNE06.jpg,FN,3,num_2,16,num_2,1.96652862057,,,2017_Jul_05_1456,60.0017320166,FEMA4ImagesEEG,001,100886,
AFNE01.JPG,AFNE01.JPG,AFNE01.JPG,AFNE01.JPG,AFNE01.JPG,AFNE01.JPG,4,7,47,2,,,,,,,,,,,,,,,,,,,,,,,AFNE11.jpg,AFNE06.jpg,AFSA14.jpg,AFSA17.jpg,AFSA17.jpg,FS,4,num_4,32,num_8,1.00043460156,,,2017_Jul_05_1456,60.0017320166,FEMA4ImagesEEG,001,100886,
AFNE01.JPG,AFNE01.JPG,AFNE01.JPG,AFNE01.JPG,AFNE01.JPG,AFNE01.JPG,4,8,48,8,,,,,,,,,,,,,,,,,,,,,,,AFNE17.jpg,AFSA12.jpg,AFNE07.jpg,AFSA08.jpg,AFNE17.jpg,FN,3,num_8,32,num_6,1.61668299232,,,2017_Jul_05_1456,60.0017320166,FEMA4ImagesEEG,001,100886,
AFNE01.JPG,AFNE01.JPG,AFNE01.JPG,AFNE01.JPG,AFNE01.JPG,AFNE01.JPG,4,9,49,4,,,,,,,,,,,,,,,,,,,,,,,AFNE03.jpg,AFNE19.jpg,AFSA02.jpg,AFSA14.jpg,AFSA14.jpg,FS,4,num_4,32,num_6,1.36673447094,,,2017_Jul_05_1456,60.0017320166,FEMA4ImagesEEG,001,100886,
AFNE01.JPG,AFNE01.JPG,AFNE01.JPG,AFNE01.JPG,AFNE01.JPG,AFNE01.JPG,5,0,50,4,,,,,,,,,,,,,,,,,,,,,,,AFNE17.jpg,AFSA19.jpg,AFSA04.jpg,AFNE03.jpg,AFSA04.jpg,FS,4,num_2,32,num_4,1.95038004394,,,2017_Jul_05_1456,60.0017320166,FEMA4ImagesEEG,001,100886,
AFNE01.JPG,AFNE01.JPG,AFNE01.JPG,AFNE01.JPG,AFNE01.JPG,AFNE01.JPG,5,1,51,3,,,,,,,,,,,,,,,,,,,,,,,AFSA16.jpg,AFNE18.jpg,AFNE12.jpg,AFSA01.jpg,AFNE18.jpg,FN,3,num_6,16,num_6,1.2001300276,,,2017_Jul_05_1456,60.0017320166,FEMA4ImagesEEG,001,100886,
AFNE01.JPG,AFNE01.JPG,AFNE01.JPG,AFNE01.JPG,AFNE01.JPG,AFNE01.JPG,5,2,52,1,,,,,,,,,,,,,,,,,,,,,,,AFNE03.jpg,AFNE18.jpg,AFSA06.jpg,AFSA18.jpg,AFSA06.jpg,FS,4,num_2,32,num_4,0.766772254021,,,2017_Jul_05_1456,60.0017320166,FEMA4ImagesEEG,001,100886,
AFNE01.JPG,AFNE01.JPG,AFNE01.JPG,AFNE01.JPG,AFNE01.JPG,AFNE01.JPG,5,3,53,6,,,,,,,,,,,,,,,,,,,,,,,AFNE19.jpg,AFSA03.jpg,AFNE01.jpg,AFSA08.jpg,AFSA08.jpg,FS,4,num_4,16,num_4,1.48339148331,,,2017_Jul_05_1456,60.0017320166,FEMA4ImagesEEG,001,100886,
AFNE01.JPG,AFNE01.JPG,AFNE01.JPG,AFNE01.JPG,AFNE01.JPG,AFNE01.JPG,5,4,54,9,,,,,,,,,,,,,,,,,,,,,,,AFSA02.jpg,AFSA12.jpg,AFNE12.jpg,AFNE08.jpg,AFNE08.jpg,FN,3,num_4,16,num_4,0.566759296227,,,2017_Jul_05_1456,60.0017320166,FEMA4ImagesEEG,001,100886,
AFNE01.JPG,AFNE01.JPG,AFNE01.JPG,AFNE01.JPG,AFNE01.JPG,AFNE01.JPG,5,5,55,7,,,,,,,,,,,,,,,,,,,,,,,AFNE13.jpg,AFNE15.jpg,AFSA18.jpg,AFSA11.jpg,AFSA11.jpg,FS,4,num_4,32,num_2,1.26641879941,,,2017_Jul_05_1456,60.0017320166,FEMA4ImagesEEG,001,100886,
AFNE01.JPG,AFNE01.JPG,AFNE01.JPG,AFNE01.JPG,AFNE01.JPG,AFNE01.JPG,5,6,56,8,,,,,,,,,,,,,,,,,,,,,,,AFNE07.jpg,AFSA14.jpg,AFNE17.jpg,AFSA13.jpg,AFNE17.jpg,FN,3,num_2,32,num_8,1.61670448189,,,2017_Jul_05_1456,60.0017320166,FEMA4ImagesEEG,001,100886,
AFNE01.JPG,AFNE01.JPG,AFNE01.JPG,AFNE01.JPG,AFNE01.JPG,AFNE01.JPG,5,7,57,5,,,,,,,,,,,,,,,,,,,,,,,AFSA06.jpg,AFSA10.jpg,AFNE12.jpg,AFNE15.jpg,AFSA06.jpg,FS,4,num_8,32,num_6,0.950147187221,,,2017_Jul_05_1456,60.0017320166,FEMA4ImagesEEG,001,100886,
AFNE01.JPG,AFNE01.JPG,AFNE01.JPG,AFNE01.JPG,AFNE01.JPG,AFNE01.JPG,5,8,58,0,,,,,,,,,,,,,,,,,,,,,,,AFNE01.jpg,AFSA01.jpg,AFSA19.jpg,AFNE06.jpg,AFNE06.jpg,FN,3,num_4,32,num_6,1.05045259511,,,2017_Jul_05_1456,60.0017320166,FEMA4ImagesEEG,001,100886,
AFNE01.JPG,AFNE01.JPG,AFNE01.JPG,AFNE01.JPG,AFNE01.JPG,AFNE01.JPG,5,9,59,2,,,,,,,,,,,,,,,,,,,,,,,AFSA12.jpg,AFSA07.jpg,AFNE11.jpg,AFNE05.jpg,AFSA12.jpg,FS,4,num_8,16,num_8,1.1332927919,,,2017_Jul_05_1456,60.0017320166,FEMA4ImagesEEG,001,100886,
,,,,,,,,,,,,,,,,,,,,,,,,,,,,,,,,,,,,,,,,,,,space,5.28312514152,2017_Jul_05_1456,60.0017320166,FEMA4ImagesEEG,001,100886,
AFNE01.JPG,AFNE01.JPG,AFNE01.JPG,AFNE01.JPG,AFNE01.JPG,AFNE01.JPG,,,,,0,0,0,0,,,,,,,,,,,,,,,,,,,AMNE16.jpg,AMSA06.jpg,AMNE01.jpg,AMSA16.jpg,AMNE16.jpg,MN,1,num_8,32,num_4,1.15009182761,,,2017_Jul_05_1456,60.0017320166,FEMA4ImagesEEG,001,100886,
AFNE01.JPG,AFNE01.JPG,AFNE01.JPG,AFNE01.JPG,AFNE01.JPG,AFNE01.JPG,,,,,0,1,1,9,,,,,,,,,,,,,,,,,,,AMSA09.jpg,AMSA18.jpg,AMNE13.jpg,AMNE11.jpg,AMSA18.jpg,MS,2,num_6,16,num_6,0.700133555802,,,2017_Jul_05_1456,60.0017320166,FEMA4ImagesEEG,001,100886,
AFNE01.JPG,AFNE01.JPG,AFNE01.JPG,AFNE01.JPG,AFNE01.JPG,AFNE01.JPG,,,,,0,2,2,5,,,,,,,,,,,,,,,,,,,AMSA16.jpg,AMNE06.jpg,AMSA08.jpg,AMNE09.jpg,AMNE09.jpg,MN,1,num_4,32,num_6,1.30007011362,,,2017_Jul_05_1456,60.0017320166,FEMA4ImagesEEG,001,100886,
AFNE01.JPG,AFNE01.JPG,AFNE01.JPG,AFNE01.JPG,AFNE01.JPG,AFNE01.JPG,,,,,0,3,3,4,,,,,,,,,,,,,,,,,,,AMNE19.jpg,AMSA05.jpg,AMNE05.jpg,AMSA11.jpg,AMSA05.jpg,MS,2,num_6,16,num_6,0.883487961721,,,2017_Jul_05_1456,60.0017320166,FEMA4ImagesEEG,001,100886,
AFNE01.JPG,AFNE01.JPG,AFNE01.JPG,AFNE01.JPG,AFNE01.JPG,AFNE01.JPG,,,,,0,4,4,3,,,,,,,,,,,,,,,,,,,AMNE02.jpg,AMSA03.jpg,AMNE11.jpg,AMSA05.jpg,AMSA03.jpg,MS,2,num_6,32,num_4,1.23343718867,,,2017_Jul_05_1456,60.0017320166,FEMA4ImagesEEG,001,100886,
AFNE01.JPG,AFNE01.JPG,AFNE01.JPG,AFNE01.JPG,AFNE01.JPG,AFNE01.JPG,,,,,0,5,5,8,,,,,,,,,,,,,,,,,,,AMNE09.jpg,AMSA09.jpg,AMSA11.jpg,AMNE06.jpg,AMNE06.jpg,MN,1,num_4,32,num_8,0.966806701384,,,2017_Jul_05_1456,60.0017320166,FEMA4ImagesEEG,001,100886,
AFNE01.JPG,AFNE01.JPG,AFNE01.JPG,AFNE01.JPG,AFNE01.JPG,AFNE01.JPG,,,,,0,6,6,6,,,,,,,,,,,,,,,,,,,AMSA04.jpg,AMNE18.jpg,AMNE17.jpg,AMSA02.jpg,AMNE18.jpg,MN,1,num_6,16,num_6,1.10008762602,,,2017_Jul_05_1456,60.0017320166,FEMA4ImagesEEG,001,100886,
AFNE01.JPG,AFNE01.JPG,AFNE01.JPG,AFNE01.JPG,AFNE01.JPG,AFNE01.JPG,,,,,0,7,7,1,,,,,,,,,,,,,,,,,,,AMNE06.jpg,AMNE09.jpg,AMSA16.jpg,AMSA01.jpg,AMNE09.jpg,MN,1,num_6,16,num_6,0.750165982521,,,2017_Jul_05_1456,60.0017320166,FEMA4ImagesEEG,001,100886,
AFNE01.JPG,AFNE01.JPG,AFNE01.JPG,AFNE01.JPG,AFNE01.JPG,AFNE01.JPG,,,,,0,8,8,2,,,,,,,,,,,,,,,,,,,AMNE11.jpg,AMSA13.jpg,AMSA18.jpg,AMNE19.jpg,AMNE11.jpg,MN,1,num_8,32,num_6,0.966755383182,,,2017_Jul_05_1456,60.0017320166,FEMA4ImagesEEG,001,100886,
AFNE01.JPG,AFNE01.JPG,AFNE01.JPG,AFNE01.JPG,AFNE01.JPG,AFNE01.JPG,,,,,0,9,9,7,,,,,,,,,,,,,,,,,,,AMNE18.jpg,AMSA19.jpg,AMNE14.jpg,AMSA05.jpg,AMNE18.jpg,MN,1,num_8,32,num_6,1.46670791379,,,2017_Jul_05_1456,60.0017320166,FEMA4ImagesEEG,001,100886,
AFNE01.JPG,AFNE01.JPG,AFNE01.JPG,AFNE01.JPG,AFNE01.JPG,AFNE01.JPG,,,,,1,0,10,2,,,,,,,,,,,,,,,,,,,AMNE18.jpg,AMSA10.jpg,AMNE14.jpg,AMSA12.jpg,AMSA10.jpg,MS,2,num_6,16,num_6,0.850102540338,,,2017_Jul_05_1456,60.0017320166,FEMA4ImagesEEG,001,100886,
AFNE01.JPG,AFNE01.JPG,AFNE01.JPG,AFNE01.JPG,AFNE01.JPG,AFNE01.JPG,,,,,1,1,11,6,,,,,,,,,,,,,,,,,,,AMNE05.jpg,AMSA18.jpg,AMSA13.jpg,AMNE11.jpg,AMSA18.jpg,MS,2,num_6,16,num_6,0.800120790373,,,2017_Jul_05_1456,60.0017320166,FEMA4ImagesEEG,001,100886,
AFNE01.JPG,AFNE01.JPG,AFNE01.JPG,AFNE01.JPG,AFNE01.JPG,AFNE01.JPG,,,,,1,2,12,7,,,,,,,,,,,,,,,,,,,AMNE12.jpg,AMNE19.jpg,AMSA11.jpg,AMSA10.jpg,AMSA11.jpg,MS,2,num_2,32,num_8,1.4500532106,,,2017_Jul_05_1456,60.0017320166,FEMA4ImagesEEG,001,100886,
AFNE01.JPG,AFNE01.JPG,AFNE01.JPG,AFNE01.JPG,AFNE01.JPG,AFNE01.JPG,,,,,1,3,13,0,,,,,,,,,,,,,,,,,,,AMNE07.jpg,AMSA20.jpg,AMSA08.jpg,AMNE17.jpg,AMSA08.jpg,MS,2,num_2,16,num_2,1.20006331382,,,2017_Jul_05_1456,60.0017320166,FEMA4ImagesEEG,001,100886,
AFNE01.JPG,AFNE01.JPG,AFNE01.JPG,AFNE01.JPG,AFNE01.JPG,AFNE01.JPG,,,,,1,4,14,1,,,,,,,,,,,,,,,,,,,AMNE04.jpg,AMSA16.jpg,AMSA03.jpg,AMNE19.jpg,AMNE04.jpg,MN,1,num_8,16,num_8,0.616631994722,,,2017_Jul_05_1456,60.0017320166,FEMA4ImagesEEG,001,100886,
AFNE01.JPG,AFNE01.JPG,AFNE01.JPG,AFNE01.JPG,AFNE01.JPG,AFNE01.JPG,,,,,1,5,15,9,,,,,,,,,,,,,,,,,,,AMSA12.jpg,AMSA07.jpg,AMNE18.jpg,AMNE06.jpg,AMSA12.jpg,MS,2,num_8,32,num_6,1.16678373644,,,2017_Jul_05_1456,60.0017320166,FEMA4ImagesEEG,001,100886,
AFNE01.JPG,AFNE01.JPG,AFNE01.JPG,AFNE01.JPG,AFNE01.JPG,AFNE01.JPG,,,,,1,6,16,5,,,,,,,,,,,,,,,,,,,AMSA07.jpg,AMNE10.jpg,AMNE11.jpg,AMSA06.jpg,AMNE10.jpg,MN,1,num_6,32,num_2,1.20009153895,,,2017_Jul_05_1456,60.0017320166,FEMA4ImagesEEG,001,100886,
AFNE01.JPG,AFNE01.JPG,AFNE01.JPG,AFNE01.JPG,AFNE01.JPG,AFNE01.JPG,,,,,1,7,17,8,,,,,,,,,,,,,,,,,,,AMNE14.jpg,AMNE20.jpg,AMSA18.jpg,AMSA03.jpg,AMNE20.jpg,MN,1,num_6,32,num_8,1.10010077618,,,2017_Jul_05_1456,60.0017320166,FEMA4ImagesEEG,001,100886,
AFNE01.JPG,AFNE01.JPG,AFNE01.JPG,AFNE01.JPG,AFNE01.JPG,AFNE01.JPG,,,,,1,8,18,4,,,,,,,,,,,,,,,,,,,AMSA13.jpg,AMNE05.jpg,AMSA10.jpg,AMNE14.jpg,AMNE05.jpg,MN,1,num_6,16,num_6,0.800232728361,,,2017_Jul_05_1456,60.0017320166,FEMA4ImagesEEG,001,100886,
AFNE01.JPG,AFNE01.JPG,AFNE01.JPG,AFNE01.JPG,AFNE01.JPG,AFNE01.JPG,,,,,1,9,19,3,,,,,,,,,,,,,,,,,,,AMSA07.jpg,AMNE02.jpg,AMNE08.jpg,AMSA03.jpg,AMSA07.jpg,MS,2,num_8,32,num_4,1.06674678728,,,2017_Jul_05_1456,60.0017320166,FEMA4ImagesEEG,001,100886,
AFNE01.JPG,AFNE01.JPG,AFNE01.JPG,AFNE01.JPG,AFNE01.JPG,AFNE01.JPG,,,,,2,0,20,1,,,,,,,,,,,,,,,,,,,AMNE05.jpg,AMNE03.jpg,AMSA10.jpg,AMSA02.jpg,AMNE03.jpg,MN,1,num_6,16,num_6,0.883488603169,,,2017_Jul_05_1456,60.0017320166,FEMA4ImagesEEG,001,100886,
AFNE01.JPG,AFNE01.JPG,AFNE01.JPG,AFNE01.JPG,AFNE01.JPG,AFNE01.JPG,,,,,2,1,21,7,,,,,,,,,,,,,,,,,,,AMNE16.jpg,AMNE01.jpg,AMSA13.jpg,AMSA19.jpg,AMNE16.jpg,MN,1,num_8,32,num_6,0.816752720973,,,2017_Jul_05_1456,60.0017320166,FEMA4ImagesEEG,001,100886,
AFNE01.JPG,AFNE01.JPG,AFNE01.JPG,AFNE01.JPG,AFNE01.JPG,AFNE01.JPG,,,,,2,2,22,8,,,,,,,,,,,,,,,,,,,AMSA06.jpg,AMNE20.jpg,AMSA10.jpg,AMNE13.jpg,AMSA06.jpg,MS,2,num_8,32,num_6,0.933457202744,,,2017_Jul_05_1456,60.0017320166,FEMA4ImagesEEG,001,100886,
AFNE01.JPG,AFNE01.JPG,AFNE01.JPG,AFNE01.JPG,AFNE01.JPG,AFNE01.JPG,,,,,2,3,23,2,,,,,,,,,,,,,,,,,,,AMSA20.jpg,AMNE06.jpg,AMSA16.jpg,AMNE11.jpg,AMSA20.jpg,MS,2,num_8,16,num_8,1.26672478463,,,2017_Jul_05_1456,60.0017320166,FEMA4ImagesEEG,001,100886,
AFNE01.JPG,AFNE01.JPG,AFNE01.JPG,AFNE01.JPG,AFNE01.JPG,AFNE01.JPG,,,,,2,4,24,3,,,,,,,,,,,,,,,,,,,AMSA14.jpg,AMNE20.jpg,AMSA10.jpg,AMNE15.jpg,AMSA14.jpg,MS,2,num_8,32,num_4,0.950287029496,,,2017_Jul_05_1456,60.0017320166,FEMA4ImagesEEG,001,100886,
AFNE01.JPG,AFNE01.JPG,AFNE01.JPG,AFNE01.JPG,AFNE01.JPG,AFNE01.JPG,,,,,2,5,25,9,,,,,,,,,,,,,,,,,,,AMSA01.jpg,AMSA06.jpg,AMNE03.jpg,AMNE11.jpg,AMSA01.jpg,MS,2,num_8,16,num_8,0.950111264363,,,2017_Jul_05_1456,60.0017320166,FEMA4ImagesEEG,001,100886,
AFNE01.JPG,AFNE01.JPG,AFNE01.JPG,AFNE01.JPG,AFNE01.JPG,AFNE01.JPG,,,,,2,6,26,0,,,,,,,,,,,,,,,,,,,AMSA16.jpg,AMSA20.jpg,AMNE15.jpg,AMNE18.jpg,AMSA20.jpg,MS,2,num_6,32,num_2,1.30015061912,,,2017_Jul_05_1456,60.0017320166,FEMA4ImagesEEG,001,100886,
AFNE01.JPG,AFNE01.JPG,AFNE01.JPG,AFNE01.JPG,AFNE01.JPG,AFNE01.JPG,,,,,2,7,27,4,,,,,,,,,,,,,,,,,,,AMSA08.jpg,AMSA05.jpg,AMNE20.jpg,AMNE15.jpg,AMNE20.jpg,MN,1,num_2,32,num_4,1.21676773159,,,2017_Jul_05_1456,60.0017320166,FEMA4ImagesEEG,001,100886,
AFNE01.JPG,AFNE01.JPG,AFNE01.JPG,AFNE01.JPG,AFNE01.JPG,AFNE01.JPG,,,,,2,8,28,6,,,,,,,,,,,,,,,,,,,AMSA09.jpg,AMSA11.jpg,AMNE03.jpg,AMNE06.jpg,AMSA11.jpg,MS,2,num_6,32,num_2,0.850163480733,,,2017_Jul_05_1456,60.0017320166,FEMA4ImagesEEG,001,100886,
AFNE01.JPG,AFNE01.JPG,AFNE01.JPG,AFNE01.JPG,AFNE01.JPG,AFNE01.JPG,,,,,2,9,29,5,,,,,,,,,,,,,,,,,,,AMNE01.jpg,AMSA11.jpg,AMSA18.jpg,AMNE18.jpg,AMNE18.jpg,MN,1,num_4,16,num_4,1.23345258413,,,2017_Jul_05_1456,60.0017320166,FEMA4ImagesEEG,001,100886,
AFNE01.JPG,AFNE01.JPG,AFNE01.JPG,AFNE01.JPG,AFNE01.JPG,AFNE01.JPG,,,,,3,0,30,2,,,,,,,,,,,,,,,,,,,AMNE10.jpg,AMSA18.jpg,AMNE16.jpg,AMSA15.jpg,AMSA15.jpg,MS,2,num_4,16,num_4,0.550171627547,,,2017_Jul_05_1456,60.0017320166,FEMA4ImagesEEG,001,100886,
AFNE01.JPG,AFNE01.JPG,AFNE01.JPG,AFNE01.JPG,AFNE01.JPG,AFNE01.JPG,,,,,3,1,31,0,,,,,,,,,,,,,,,,,,,AMNE08.jpg,AMSA19.jpg,AMSA09.jpg,AMNE09.jpg,AMNE08.jpg,MN,1,num_8,16,num_8,0.616789477761,,,2017_Jul_05_1456,60.0017320166,FEMA4ImagesEEG,001,100886,
AFNE01.JPG,AFNE01.JPG,AFNE01.JPG,AFNE01.JPG,AFNE01.JPG,AFNE01.JPG,,,,,3,2,32,6,,,,,,,,,,,,,,,,,,,AMNE03.jpg,AMSA07.jpg,AMSA17.jpg,AMNE17.jpg,AMNE17.jpg,MN,1,num_4,16,num_4,1.11674072535,,,2017_Jul_05_1456,60.0017320166,FEMA4ImagesEEG,001,100886,
AFNE01.JPG,AFNE01.JPG,AFNE01.JPG,AFNE01.JPG,AFNE01.JPG,AFNE01.JPG,,,,,3,3,33,7,,,,,,,,,,,,,,,,,,,AMSA18.jpg,AMSA04.jpg,AMNE02.jpg,AMNE08.jpg,AMNE08.jpg,MN,1,num_4,16,num_4,0.850133010536,,,2017_Jul_05_1456,60.0017320166,FEMA4ImagesEEG,001,100886,
AFNE01.JPG,AFNE01.JPG,AFNE01.JPG,AFNE01.JPG,AFNE01.JPG,AFNE01.JPG,,,,,3,4,34,8,,,,,,,,,,,,,,,,,,,AMNE04.jpg,AMNE14.jpg,AMSA12.jpg,AMSA11.jpg,AMNE04.jpg,MN,1,num_8,32,num_2,1.78336729959,,,2017_Jul_05_1456,60.0017320166,FEMA4ImagesEEG,001,100886,
AFNE01.JPG,AFNE01.JPG,AFNE01.JPG,AFNE01.JPG,AFNE01.JPG,AFNE01.JPG,,,,,3,5,35,3,,,,,,,,,,,,,,,,,,,AMNE13.jpg,AMSA05.jpg,AMSA11.jpg,AMNE10.jpg,AMNE13.jpg,MN,1,num_8,32,num_2,1.18342464778,,,2017_Jul_05_1456,60.0017320166,FEMA4ImagesEEG,001,100886,
AFNE01.JPG,AFNE01.JPG,AFNE01.JPG,AFNE01.JPG,AFNE01.JPG,AFNE01.JPG,,,,,3,6,36,1,,,,,,,,,,,,,,,,,,,AMSA20.jpg,AMSA02.jpg,AMNE13.jpg,AMNE11.jpg,AMSA02.jpg,MS,2,num_6,16,num_6,1.05010427232,,,2017_Jul_05_1456,60.0017320166,FEMA4ImagesEEG,001,100886,
AFNE01.JPG,AFNE01.JPG,AFNE01.JPG,AFNE01.JPG,AFNE01.JPG,AFNE01.JPG,,,,,3,7,37,4,,,,,,,,,,,,,,,,,,,AMSA14.jpg,AMSA10.jpg,AMNE07.jpg,AMNE18.jpg,AMSA14.jpg,MS,2,num_8,16,num_8,0.916742521455,,,2017_Jul_05_1456,60.0017320166,FEMA4ImagesEEG,001,100886,
AFNE01.JPG,AFNE01.JPG,AFNE01.JPG,AFNE01.JPG,AFNE01.JPG,AFNE01.JPG,,,,,3,8,38,9,,,,,,,,,,,,,,,,,,,AMSA06.jpg,AMNE09.jpg,AMSA02.jpg,AMNE01.jpg,AMNE09.jpg,MN,1,num_6,32,num_8,1.73341217102,,,2017_Jul_05_1456,60.0017320166,FEMA4ImagesEEG,001,100886,
AFNE01.JPG,AFNE01.JPG,AFNE01.JPG,AFNE01.JPG,AFNE01.JPG,AFNE01.JPG,,,,,3,9,39,5,,,,,,,,,,,,,,,,,,,AMSA17.jpg,AMNE14.jpg,AMSA15.jpg,AMNE01.jpg,AMNE14.jpg,MN,1,num_6,32,num_8,0.916818857426,,,2017_Jul_05_1456,60.0017320166,FEMA4ImagesEEG,001,100886,
AFNE01.JPG,AFNE01.JPG,AFNE01.JPG,AFNE01.JPG,AFNE01.JPG,AFNE01.JPG,,,,,4,0,40,3,,,,,,,,,,,,,,,,,,,AMSA02.jpg,AMNE08.jpg,AMNE16.jpg,AMSA08.jpg,AMNE16.jpg,MN,1,num_2,32,num_6,0.967040199554,,,2017_Jul_05_1456,60.0017320166,FEMA4ImagesEEG,001,100886,
AFNE01.JPG,AFNE01.JPG,AFNE01.JPG,AFNE01.JPG,AFNE01.JPG,AFNE01.JPG,,,,,4,1,41,1,,,,,,,,,,,,,,,,,,,AMNE13.jpg,AMSA02.jpg,AMNE06.jpg,AMSA04.jpg,AMNE13.jpg,MN,1,num_8,32,num_2,0.983510798309,,,2017_Jul_05_1456,60.0017320166,FEMA4ImagesEEG,001,100886,
AFNE01.JPG,AFNE01.JPG,AFNE01.JPG,AFNE01.JPG,AFNE01.JPG,AFNE01.JPG,,,,,4,2,42,2,,,,,,,,,,,,,,,,,,,AMNE17.jpg,AMSA04.jpg,AMSA06.jpg,AMNE03.jpg,AMNE17.jpg,MN,1,num_8,32,num_4,0.716651944793,,,2017_Jul_05_1456,60.0017320166,FEMA4ImagesEEG,001,100886,
AFNE01.JPG,AFNE01.JPG,AFNE01.JPG,AFNE01.JPG,AFNE01.JPG,AFNE01.JPG,,,,,4,3,43,7,,,,,,,,,,,,,,,,,,,AMNE04.jpg,AMSA12.jpg,AMSA17.jpg,AMNE02.jpg,AMSA17.jpg,MS,2,num_2,32,num_6,0.883602144779,,,2017_Jul_05_1456,60.0017320166,FEMA4ImagesEEG,001,100886,
AFNE01.JPG,AFNE01.JPG,AFNE01.JPG,AFNE01.JPG,AFNE01.JPG,AFNE01.JPG,,,,,4,4,44,4,,,,,,,,,,,,,,,,,,,AMSA10.jpg,AMSA04.jpg,AMNE04.jpg,AMNE10.jpg,AMNE10.jpg,MN,1,num_4,32,num_8,0.766799516859,,,2017_Jul_05_1456,60.0017320166,FEMA4ImagesEEG,001,100886,
AFNE01.JPG,AFNE01.JPG,AFNE01.JPG,AFNE01.JPG,AFNE01.JPG,AFNE01.JPG,,,,,4,5,45,9,,,,,,,,,,,,,,,,,,,AMNE13.jpg,AMSA07.jpg,AMSA15.jpg,AMNE08.jpg,AMNE13.jpg,MN,1,num_8,16,num_8,0.800134261488,,,2017_Jul_05_1456,60.0017320166,FEMA4ImagesEEG,001,100886,
AFNE01.JPG,AFNE01.JPG,AFNE01.JPG,AFNE01.JPG,AFNE01.JPG,AFNE01.JPG,,,,,4,6,46,6,,,,,,,,,,,,,,,,,,,AMNE08.jpg,AMNE07.jpg,AMSA05.jpg,AMSA13.jpg,AMSA13.jpg,MS,2,num_4,16,num_4,1.28344331484,,,2017_Jul_05_1456,60.0017320166,FEMA4ImagesEEG,001,100886,
AFNE01.JPG,AFNE01.JPG,AFNE01.JPG,AFNE01.JPG,AFNE01.JPG,AFNE01.JPG,,,,,4,7,47,5,,,,,,,,,,,,,,,,,,,AMNE18.jpg,AMSA07.jpg,AMNE20.jpg,AMSA10.jpg,AMNE18.jpg,MN,1,num_8,32,num_2,0.916741238558,,,2017_Jul_05_1456,60.0017320166,FEMA4ImagesEEG,001,100886,
AFNE01.JPG,AFNE01.JPG,AFNE01.JPG,AFNE01.JPG,AFNE01.JPG,AFNE01.JPG,,,,,4,8,48,0,,,,,,,,,,,,,,,,,,,AMNE17.jpg,AMSA11.jpg,AMSA19.jpg,AMNE08.jpg,AMSA11.jpg,MS,2,num_6,16,num_6,0.733465413796,,,2017_Jul_05_1456,60.0017320166,FEMA4ImagesEEG,001,100886,
AFNE01.JPG,AFNE01.JPG,AFNE01.JPG,AFNE01.JPG,AFNE01.JPG,AFNE01.JPG,,,,,4,9,49,8,,,,,,,,,,,,,,,,,,,AMSA08.jpg,AMNE09.jpg,AMSA17.jpg,AMNE18.jpg,AMNE09.jpg,MN,1,num_6,32,num_2,1.26678027259,,,2017_Jul_05_1456,60.0017320166,FEMA4ImagesEEG,001,100886,
AFNE01.JPG,AFNE01.JPG,AFNE01.JPG,AFNE01.JPG,AFNE01.JPG,AFNE01.JPG,,,,,5,0,50,4,,,,,,,,,,,,,,,,,,,AMNE10.jpg,AMSA13.jpg,AMNE01.jpg,AMSA04.jpg,AMNE01.jpg,MN,1,num_2,16,num_2,0.766636260669,,,2017_Jul_05_1456,60.0017320166,FEMA4ImagesEEG,001,100886,
AFNE01.JPG,AFNE01.JPG,AFNE01.JPG,AFNE01.JPG,AFNE01.JPG,AFNE01.JPG,,,,,5,1,51,7,,,,,,,,,,,,,,,,,,,AMSA07.jpg,AMNE12.jpg,AMNE02.jpg,AMSA19.jpg,AMSA07.jpg,MS,2,num_8,16,num_8,0.750141606433,,,2017_Jul_05_1456,60.0017320166,FEMA4ImagesEEG,001,100886,
AFNE01.JPG,AFNE01.JPG,AFNE01.JPG,AFNE01.JPG,AFNE01.JPG,AFNE01.JPG,,,,,5,2,52,6,,,,,,,,,,,,,,,,,,,AMSA02.jpg,AMSA19.jpg,AMNE02.jpg,AMNE07.jpg,AMNE07.jpg,MN,1,num_4,16,num_4,1.35007880558,,,2017_Jul_05_1456,60.0017320166,FEMA4ImagesEEG,001,100886,
AFNE01.JPG,AFNE01.JPG,AFNE01.JPG,AFNE01.JPG,AFNE01.JPG,AFNE01.JPG,,,,,5,3,53,3,,,,,,,,,,,,,,,,,,,AMSA16.jpg,AMNE05.jpg,AMSA01.jpg,AMNE03.jpg,AMNE05.jpg,MN,1,num_6,32,num_2,0.950101642287,,,2017_Jul_05_1456,60.0017320166,FEMA4ImagesEEG,001,100886,
AFNE01.JPG,AFNE01.JPG,AFNE01.JPG,AFNE01.JPG,AFNE01.JPG,AFNE01.JPG,,,,,5,4,54,8,,,,,,,,,,,,,,,,,,,AMSA13.jpg,AMNE14.jpg,AMSA20.jpg,AMNE01.jpg,AMNE14.jpg,MN,1,num_6,16,num_6,0.800123997848,,,2017_Jul_05_1456,60.0017320166,FEMA4ImagesEEG,001,100886,
AFNE01.JPG,AFNE01.JPG,AFNE01.JPG,AFNE01.JPG,AFNE01.JPG,AFNE01.JPG,,,,,5,5,55,0,,,,,,,,,,,,,,,,,,,AMNE03.jpg,AMSA07.jpg,AMNE17.jpg,AMSA03.jpg,AMNE17.jpg,MN,1,num_2,16,num_2,0.716802371433,,,2017_Jul_05_1456,60.0017320166,FEMA4ImagesEEG,001,100886,
AFNE01.JPG,AFNE01.JPG,AFNE01.JPG,AFNE01.JPG,AFNE01.JPG,AFNE01.JPG,,,,,5,6,56,9,,,,,,,,,,,,,,,,,,,AMSA18.jpg,AMNE15.jpg,AMNE13.jpg,AMSA19.jpg,AMSA18.jpg,MS,2,num_8,16,num_8,0.650117486832,,,2017_Jul_05_1456,60.0017320166,FEMA4ImagesEEG,001,100886,
AFNE01.JPG,AFNE01.JPG,AFNE01.JPG,AFNE01.JPG,AFNE01.JPG,AFNE01.JPG,,,,,5,7,57,5,,,,,,,,,,,,,,,,,,,AMSA12.jpg,AMNE15.jpg,AMNE19.jpg,AMSA07.jpg,AMNE19.jpg,MN,1,num_2,32,num_6,1.21671897918,,,2017_Jul_05_1456,60.0017320166,FEMA4ImagesEEG,001,100886,
AFNE01.JPG,AFNE01.JPG,AFNE01.JPG,AFNE01.JPG,AFNE01.JPG,AFNE01.JPG,,,,,5,8,58,2,,,,,,,,,,,,,,,,,,,AMSA03.jpg,AMNE14.jpg,AMSA18.jpg,AMNE12.jpg,AMSA18.jpg,MS,2,num_2,16,num_2,0.900081082829,,,2017_Jul_05_1456,60.0017320166,FEMA4ImagesEEG,001,100886,
AFNE01.JPG,AFNE01.JPG,AFNE01.JPG,AFNE01.JPG,AFNE01.JPG,AFNE01.JPG,,,,,5,9,59,1,,,,,,,,,,,,,,,,,,,AMNE10.jpg,AMNE06.jpg,AMSA20.jpg,AMSA09.jpg,AMNE10.jpg,MN,1,num_8,32,num_6,1.13341403136,,,2017_Jul_05_1456,60.0017320166,FEMA4ImagesEEG,001,100886,
,,,,,,,,,,,,,,,,,,,,,,,,,,,,,,,,,,,,,,,,,,,space,2.21666573652,2017_Jul_05_1456,60.0017320166,FEMA4ImagesEEG,001,100886,
AFNE01.JPG,AFNE01.JPG,AFNE01.JPG,AFNE01.JPG,AFNE01.JPG,AFNE01.JPG,,,,,,,,,0,0,0,1,,,,,,,,,,,,,,,AFSA13.jpg,AFNE19.jpg,AFSA08.jpg,AFNE03.jpg,AFSA08.jpg,FS,4,num_2,16,num_2,1.18346858898,,,2017_Jul_05_1456,60.0017320166,FEMA4ImagesEEG,001,100886,
AFNE01.JPG,AFNE01.JPG,AFNE01.JPG,AFNE01.JPG,AFNE01.JPG,AFNE01.JPG,,,,,,,,,0,1,1,0,,,,,,,,,,,,,,,AFSA13.jpg,AFNE01.jpg,AFSA05.jpg,AFNE06.jpg,AFNE06.jpg,FN,3,num_4,16,num_4,1.41669537278,,,2017_Jul_05_1456,60.0017320166,FEMA4ImagesEEG,001,100886,
AFNE01.JPG,AFNE01.JPG,AFNE01.JPG,AFNE01.JPG,AFNE01.JPG,AFNE01.JPG,,,,,,,,,0,2,2,2,,,,,,,,,,,,,,,AFSA18.jpg,AFNE03.jpg,AFNE20.jpg,AFSA15.jpg,AFNE20.jpg,FN,3,num_2,16,num_2,0.916754709673,,,2017_Jul_05_1456,60.0017320166,FEMA4ImagesEEG,001,100886,
AFNE01.JPG,AFNE01.JPG,AFNE01.JPG,AFNE01.JPG,AFNE01.JPG,AFNE01.JPG,,,,,,,,,0,3,3,5,,,,,,,,,,,,,,,AFNE13.jpg,AFSA02.jpg,AFSA15.jpg,AFNE09.jpg,AFSA02.jpg,FS,4,num_6,16,num_6,0.666823187494,,,2017_Jul_05_1456,60.0017320166,FEMA4ImagesEEG,001,100886,
AFNE01.JPG,AFNE01.JPG,AFNE01.JPG,AFNE01.JPG,AFNE01.JPG,AFNE01.JPG,,,,,,,,,0,4,4,9,,,,,,,,,,,,,,,AFSA06.jpg,AFSA13.jpg,AFNE07.jpg,AFNE17.jpg,AFNE07.jpg,FN,3,num_2,32,num_4,1.13339157961,,,2017_Jul_05_1456,60.0017320166,FEMA4ImagesEEG,001,100886,
AFNE01.JPG,AFNE01.JPG,AFNE01.JPG,AFNE01.JPG,AFNE01.JPG,AFNE01.JPG,,,,,,,,,0,5,5,4,,,,,,,,,,,,,,,AFSA01.jpg,AFSA03.jpg,AFNE12.jpg,AFNE08.jpg,AFSA03.jpg,FS,4,num_6,16,num_6,0.883468396612,,,2017_Jul_05_1456,60.0017320166,FEMA4ImagesEEG,001,100886,
AFNE01.JPG,AFNE01.JPG,AFNE01.JPG,AFNE01.JPG,AFNE01.JPG,AFNE01.JPG,,,,,,,,,0,6,6,7,,,,,,,,,,,,,,,AFSA16.jpg,AFSA19.jpg,AFNE12.jpg,AFNE18.jpg,AFSA19.jpg,FS,4,num_6,16,num_6,0.933434751001,,,2017_Jul_05_1456,60.0017320166,FEMA4ImagesEEG,001,100886,
AFNE01.JPG,AFNE01.JPG,AFNE01.JPG,AFNE01.JPG,AFNE01.JPG,AFNE01.JPG,,,,,,,,,0,7,7,8,,,,,,,,,,,,,,,AFSA06.jpg,AFNE11.jpg,AFSA08.jpg,AFNE16.jpg,AFSA08.jpg,FS,4,num_2,32,num_8,1.0833909061,,,2017_Jul_05_1456,60.0017320166,FEMA4ImagesEEG,001,100886,
AFNE01.JPG,AFNE01.JPG,AFNE01.JPG,AFNE01.JPG,AFNE01.JPG,AFNE01.JPG,,,,,,,,,0,8,8,6,,,,,,,,,,,,,,,AFSA15.jpg,AFNE10.jpg,AFNE08.jpg,AFSA19.jpg,AFNE10.jpg,FN,3,num_6,16,num_6,0.816622180166,,,2017_Jul_05_1456,60.0017320166,FEMA4ImagesEEG,001,100886,
AFNE01.JPG,AFNE01.JPG,AFNE01.JPG,AFNE01.JPG,AFNE01.JPG,AFNE01.JPG,,,,,,,,,0,9,9,3,,,,,,,,,,,,,,,AFNE04.jpg,AFNE17.jpg,AFSA17.jpg,AFSA15.jpg,AFSA17.jpg,FS,4,num_2,32,num_6,1.18340315833,,,2017_Jul_05_1456,60.0017320166,FEMA4ImagesEEG,001,100886,
AFNE01.JPG,AFNE01.JPG,AFNE01.JPG,AFNE01.JPG,AFNE01.JPG,AFNE01.JPG,,,,,,,,,1,0,10,7,,,,,,,,,,,,,,,AFSA01.jpg,AFNE18.jpg,AFSA05.jpg,AFNE05.jpg,AFSA05.jpg,FS,4,num_2,16,num_2,0.600112964283,,,2017_Jul_05_1456,60.0017320166,FEMA4ImagesEEG,001,100886,
AFNE01.JPG,AFNE01.JPG,AFNE01.JPG,AFNE01.JPG,AFNE01.JPG,AFNE01.JPG,,,,,,,,,1,1,11,6,,,,,,,,,,,,,,,AFSA03.jpg,AFNE19.jpg,AFSA09.jpg,AFNE16.jpg,AFNE19.jpg,FN,3,num_6,16,num_6,0.966780400719,,,2017_Jul_05_1456,60.0017320166,FEMA4ImagesEEG,001,100886,
AFNE01.JPG,AFNE01.JPG,AFNE01.JPG,AFNE01.JPG,AFNE01.JPG,AFNE01.JPG,,,,,,,,,1,2,12,2,,,,,,,,,,,,,,,AFNE20.jpg,AFSA18.jpg,AFSA01.jpg,AFNE01.jpg,AFSA01.jpg,FS,4,num_2,16,num_2,1.50005420484,,,2017_Jul_05_1456,60.0017320166,FEMA4ImagesEEG,001,100886,
AFNE01.JPG,AFNE01.JPG,AFNE01.JPG,AFNE01.JPG,AFNE01.JPG,AFNE01.JPG,,,,,,,,,1,3,13,9,,,,,,,,,,,,,,,AFNE02.jpg,AFSA17.jpg,AFNE07.jpg,AFSA04.jpg,AFNE07.jpg,FN,3,num_2,16,num_2,1.61671121733,,,2017_Jul_05_1456,60.0017320166,FEMA4ImagesEEG,001,100886,
AFNE01.JPG,AFNE01.JPG,AFNE01.JPG,AFNE01.JPG,AFNE01.JPG,AFNE01.JPG,,,,,,,,,1,4,14,8,,,,,,,,,,,,,,,AFNE19.jpg,AFSA10.jpg,AFSA01.jpg,AFNE01.jpg,AFNE01.jpg,FN,3,num_4,32,num_2,0.933431864367,,,2017_Jul_05_1456,60.0017320166,FEMA4ImagesEEG,001,100886,
AFNE01.JPG,AFNE01.JPG,AFNE01.JPG,AFNE01.JPG,AFNE01.JPG,AFNE01.JPG,,,,,,,,,1,5,15,4,,,,,,,,,,,,,,,AFNE12.jpg,AFSA13.jpg,AFSA12.jpg,AFNE20.jpg,AFSA12.jpg,FS,4,num_2,16,num_2,0.91672937118,,,2017_Jul_05_1456,60.0017320166,FEMA4ImagesEEG,001,100886,
AFNE01.JPG,AFNE01.JPG,AFNE01.JPG,AFNE01.JPG,AFNE01.JPG,AFNE01.JPG,,,,,,,,,1,6,16,5,,,,,,,,,,,,,,,AFSA05.jpg,AFSA16.jpg,AFNE20.jpg,AFNE11.jpg,AFSA16.jpg,FS,4,num_6,32,num_8,1.23341024667,,,2017_Jul_05_1456,60.0017320166,FEMA4ImagesEEG,001,100886,
AFNE01.JPG,AFNE01.JPG,AFNE01.JPG,AFNE01.JPG,AFNE01.JPG,AFNE01.JPG,,,,,,,,,1,7,17,0,,,,,,,,,,,,,,,AFSA14.jpg,AFNE07.jpg,AFNE17.jpg,AFSA10.jpg,AFSA14.jpg,FS,4,num_8,32,num_6,1.00013406901,,,2017_Jul_05_1456,60.0017320166,FEMA4ImagesEEG,001,100886,
AFNE01.JPG,AFNE01.JPG,AFNE01.JPG,AFNE01.JPG,AFNE01.JPG,AFNE01.JPG,,,,,,,,,1,8,18,1,,,,,,,,,,,,,,,AFNE17.jpg,AFNE19.jpg,AFSA07.jpg,AFSA18.jpg,AFSA07.jpg,FS,4,num_2,16,num_2,1.85002492135,,,2017_Jul_05_1456,60.0017320166,FEMA4ImagesEEG,001,100886,
AFNE01.JPG,AFNE01.JPG,AFNE01.JPG,AFNE01.JPG,AFNE01.JPG,AFNE01.JPG,,,,,,,,,1,9,19,3,,,,,,,,,,,,,,,AFSA06.jpg,AFSA02.jpg,AFNE01.jpg,AFNE20.jpg,AFNE20.jpg,FN,3,num_4,32,num_2,0.950109660742,,,2017_Jul_05_1456,60.0017320166,FEMA4ImagesEEG,001,100886,
AFNE01.JPG,AFNE01.JPG,AFNE01.JPG,AFNE01.JPG,AFNE01.JPG,AFNE01.JPG,,,,,,,,,2,0,20,2,,,,,,,,,,,,,,,AFSA04.jpg,AFSA20.jpg,AFNE06.jpg,AFNE08.jpg,AFNE08.jpg,FN,3,num_4,16,num_4,1.00011065509,,,2017_Jul_05_1456,60.0017320166,FEMA4ImagesEEG,001,100886,
AFNE01.JPG,AFNE01.JPG,AFNE01.JPG,AFNE01.JPG,AFNE01.JPG,AFNE01.JPG,,,,,,,,,2,1,21,0,,,,,,,,,,,,,,,AFNE11.jpg,AFSA08.jpg,AFSA07.jpg,AFNE19.jpg,AFSA08.jpg,FS,4,num_6,16,num_6,0.766490965732,,,2017_Jul_05_1456,60.0017320166,FEMA4ImagesEEG,001,100886,
AFNE01.JPG,AFNE01.JPG,AFNE01.JPG,AFNE01.JPG,AFNE01.JPG,AFNE01.JPG,,,,,,,,,2,2,22,7,,,,,,,,,,,,,,,AFNE12.jpg,AFSA08.jpg,AFNE11.jpg,AFSA17.jpg,AFSA08.jpg,FS,4,num_6,32,num_2,0.533443154418,,,2017_Jul_05_1456,60.0017320166,FEMA4ImagesEEG,001,100886,
AFNE01.JPG,AFNE01.JPG,AFNE01.JPG,AFNE01.JPG,AFNE01.JPG,AFNE01.JPG,,,,,,,,,2,3,23,5,,,,,,,,,,,,,,,AFNE18.jpg,AFSA05.jpg,AFSA03.jpg,AFNE15.jpg,AFSA03.jpg,FS,4,num_2,32,num_6,0.966800928116,,,2017_Jul_05_1456,60.0017320166,FEMA4ImagesEEG,001,100886,
AFNE01.JPG,AFNE01.JPG,AFNE01.JPG,AFNE01.JPG,AFNE01.JPG,AFNE01.JPG,,,,,,,,,2,4,24,6,,,,,,,,,,,,,,,AFSA01.jpg,AFNE20.jpg,AFSA16.jpg,AFNE12.jpg,AFNE12.jpg,FN,3,num_4,16,num_4,0.783466087305,,,2017_Jul_05_1456,60.0017320166,FEMA4ImagesEEG,001,100886,
AFNE01.JPG,AFNE01.JPG,AFNE01.JPG,AFNE01.JPG,AFNE01.JPG,AFNE01.JPG,,,,,,,,,2,5,25,4,,,,,,,,,,,,,,,AFSA10.jpg,AFSA07.jpg,AFNE01.jpg,AFNE06.jpg,AFNE06.jpg,FN,3,num_4,32,num_6,1.03342070268,,,2017_Jul_05_1456,60.0017320166,FEMA4ImagesEEG,001,100886,
AFNE01.JPG,AFNE01.JPG,AFNE01.JPG,AFNE01.JPG,AFNE01.JPG,AFNE01.JPG,,,,,,,,,2,6,26,8,,,,,,,,,,,,,,,AFSA19.jpg,AFNE13.jpg,AFSA11.jpg,AFNE02.jpg,AFSA19.jpg,FS,4,num_8,16,num_8,0.51677818771,,,2017_Jul_05_1456,60.0017320166,FEMA4ImagesEEG,001,100886,
AFNE01.JPG,AFNE01.JPG,AFNE01.JPG,AFNE01.JPG,AFNE01.JPG,AFNE01.JPG,,,,,,,,,2,7,27,9,,,,,,,,,,,,,,,AFSA03.jpg,AFNE04.jpg,AFSA20.jpg,AFNE03.jpg,AFSA20.jpg,FS,4,num_2,16,num_2,0.833468043827,,,2017_Jul_05_1456,60.0017320166,FEMA4ImagesEEG,001,100886,
AFNE01.JPG,AFNE01.JPG,AFNE01.JPG,AFNE01.JPG,AFNE01.JPG,AFNE01.JPG,,,,,,,,,2,8,28,1,,,,,,,,,,,,,,,AFSA03.jpg,AFNE11.jpg,AFNE15.jpg,AFSA07.jpg,AFNE15.jpg,FN,3,num_2,16,num_2,0.950133074657,,,2017_Jul_05_1456,60.0017320166,FEMA4ImagesEEG,001,100886,
AFNE01.JPG,AFNE01.JPG,AFNE01.JPG,AFNE01.JPG,AFNE01.JPG,AFNE01.JPG,,,,,,,,,2,9,29,3,,,,,,,,,,,,,,,AFSA12.jpg,AFSA16.jpg,AFNE05.jpg,AFNE17.jpg,AFNE17.jpg,FN,3,num_4,16,num_4,0.666765133617,,,2017_Jul_05_1456,60.0017320166,FEMA4ImagesEEG,001,100886,
AFNE01.JPG,AFNE01.JPG,AFNE01.JPG,AFNE01.JPG,AFNE01.JPG,AFNE01.JPG,,,,,,,,,3,0,30,2,,,,,,,,,,,,,,,AFNE04.jpg,AFSA01.jpg,AFNE09.jpg,AFSA15.jpg,AFSA01.jpg,FS,4,num_6,16,num_6,0.483489308739,,,2017_Jul_05_1456,60.0017320166,FEMA4ImagesEEG,001,100886,
AFNE01.JPG,AFNE01.JPG,AFNE01.JPG,AFNE01.JPG,AFNE01.JPG,AFNE01.JPG,,,,,,,,,3,1,31,1,,,,,,,,,,,,,,,AFSA07.jpg,AFNE04.jpg,AFNE06.jpg,AFSA10.jpg,AFNE04.jpg,FN,3,num_6,16,num_6,0.866737678298,,,2017_Jul_05_1456,60.0017320166,FEMA4ImagesEEG,001,100886,
AFNE01.JPG,AFNE01.JPG,AFNE01.JPG,AFNE01.JPG,AFNE01.JPG,AFNE01.JPG,,,,,,,,,3,2,32,0,,,,,,,,,,,,,,,AFNE06.jpg,AFNE07.jpg,AFSA17.jpg,AFSA09.jpg,AFSA17.jpg,FS,4,num_2,16,num_2,1.28337884624,,,2017_Jul_05_1456,60.0017320166,FEMA4ImagesEEG,001,100886,
AFNE01.JPG,AFNE01.JPG,AFNE01.JPG,AFNE01.JPG,AFNE01.JPG,AFNE01.JPG,,,,,,,,,3,3,33,4,,,,,,,,,,,,,,,AFNE19.jpg,AFNE20.jpg,AFSA08.jpg,AFSA19.jpg,AFNE19.jpg,FN,3,num_8,16,num_8,0.883470962523,,,2017_Jul_05_1456,60.0017320166,FEMA4ImagesEEG,001,100886,
AFNE01.JPG,AFNE01.JPG,AFNE01.JPG,AFNE01.JPG,AFNE01.JPG,AFNE01.JPG,,,,,,,,,3,4,34,8,,,,,,,,,,,,,,,AFNE17.jpg,AFNE05.jpg,AFSA07.jpg,AFSA02.jpg,AFSA07.jpg,FS,4,num_2,32,num_4,0.950125697651,,,2017_Jul_05_1456,60.0017320166,FEMA4ImagesEEG,001,100886,
AFNE01.JPG,AFNE01.JPG,AFNE01.JPG,AFNE01.JPG,AFNE01.JPG,AFNE01.JPG,,,,,,,,,3,5,35,7,,,,,,,,,,,,,,,AFNE15.jpg,AFSA17.jpg,AFSA04.jpg,AFNE10.jpg,AFSA04.jpg,FS,4,num_2,16,num_2,1.03348452982,,,2017_Jul_05_1456,60.0017320166,FEMA4ImagesEEG,001,100886,
AFNE01.JPG,AFNE01.JPG,AFNE01.JPG,AFNE01.JPG,AFNE01.JPG,AFNE01.JPG,,,,,,,,,3,6,36,9,,,,,,,,,,,,,,,AFNE14.jpg,AFSA05.jpg,AFSA06.jpg,AFNE18.jpg,AFNE18.jpg,FN,3,num_4,16,num_4,1.00007633597,,,2017_Jul_05_1456,60.0017320166,FEMA4ImagesEEG,001,100886,
AFNE01.JPG,AFNE01.JPG,AFNE01.JPG,AFNE01.JPG,AFNE01.JPG,AFNE01.JPG,,,,,,,,,3,7,37,6,,,,,,,,,,,,,,,AFSA03.jpg,AFNE09.jpg,AFSA02.jpg,AFNE11.jpg,AFSA03.jpg,FS,4,num_8,16,num_8,0.866749224951,,,2017_Jul_05_1456,60.0017320166,FEMA4ImagesEEG,001,100886,
AFNE01.JPG,AFNE01.JPG,AFNE01.JPG,AFNE01.JPG,AFNE01.JPG,AFNE01.JPG,,,,,,,,,3,8,38,5,,,,,,,,,,,,,,,AFSA10.jpg,AFNE14.jpg,AFNE06.jpg,AFSA18.jpg,AFSA10.jpg,FS,4,num_8,16,num_8,0.850109917228,,,2017_Jul_05_1456,60.0017320166,FEMA4ImagesEEG,001,100886,
AFNE01.JPG,AFNE01.JPG,AFNE01.JPG,AFNE01.JPG,AFNE01.JPG,AFNE01.JPG,,,,,,,,,3,9,39,3,,,,,,,,,,,,,,,AFNE05.jpg,AFNE06.jpg,AFSA03.jpg,AFSA07.jpg,AFSA03.jpg,FS,4,num_2,16,num_2,1.0167586226,,,2017_Jul_05_1456,60.0017320166,FEMA4ImagesEEG,001,100886,
AFNE01.JPG,AFNE01.JPG,AFNE01.JPG,AFNE01.JPG,AFNE01.JPG,AFNE01.JPG,,,,,,,,,4,0,40,8,,,,,,,,,,,,,,,AFSA08.jpg,AFNE14.jpg,AFSA15.jpg,AFNE15.jpg,AFNE15.jpg,FN,3,num_4,16,num_4,0.950166752329,,,2017_Jul_05_1456,60.0017320166,FEMA4ImagesEEG,001,100886,
AFNE01.JPG,AFNE01.JPG,AFNE01.JPG,AFNE01.JPG,AFNE01.JPG,AFNE01.JPG,,,,,,,,,4,1,41,3,,,,,,,,,,,,,,,AFNE13.jpg,AFNE18.jpg,AFSA19.jpg,AFSA17.jpg,AFNE18.jpg,FN,3,num_6,32,num_4,1.00010488171,,,2017_Jul_05_1456,60.0017320166,FEMA4ImagesEEG,001,100886,
AFNE01.JPG,AFNE01.JPG,AFNE01.JPG,AFNE01.JPG,AFNE01.JPG,AFNE01.JPG,,,,,,,,,4,2,42,5,,,,,,,,,,,,,,,AFSA17.jpg,AFSA10.jpg,AFNE06.jpg,AFNE08.jpg,AFSA17.jpg,FS,4,num_8,16,num_8,1.41672135261,,,2017_Jul_05_1456,60.0017320166,FEMA4ImagesEEG,001,100886,
AFNE01.JPG,AFNE01.JPG,AFNE01.JPG,AFNE01.JPG,AFNE01.JPG,AFNE01.JPG,,,,,,,,,4,3,43,0,,,,,,,,,,,,,,,AFNE15.jpg,AFSA10.jpg,AFSA19.jpg,AFNE10.jpg,AFNE15.jpg,FN,3,num_8,16,num_8,0.733455150039,,,2017_Jul_05_1456,60.0017320166,FEMA4ImagesEEG,001,100886,
AFNE01.JPG,AFNE01.JPG,AFNE01.JPG,AFNE01.JPG,AFNE01.JPG,AFNE01.JPG,,,,,,,,,4,4,44,1,,,,,,,,,,,,,,,AFNE03.jpg,AFSA11.jpg,AFSA07.jpg,AFNE18.jpg,AFSA11.jpg,FS,4,num_6,16,num_6,0.633440331905,,,2017_Jul_05_1456,60.0017320166,FEMA4ImagesEEG,001,100886,
AFNE01.JPG,AFNE01.JPG,AFNE01.JPG,AFNE01.JPG,AFNE01.JPG,AFNE01.JPG,,,,,,,,,4,5,45,2,,,,,,,,,,,,,,,AFSA18.jpg,AFNE10.jpg,AFSA06.jpg,AFNE03.jpg,AFNE03.jpg,FN,3,num_4,16,num_4,0.733443924226,,,2017_Jul_05_1456,60.0017320166,FEMA4ImagesEEG,001,100886,
AFNE01.JPG,AFNE01.JPG,AFNE01.JPG,AFNE01.JPG,AFNE01.JPG,AFNE01.JPG,,,,,,,,,4,6,46,4,,,,,,,,,,,,,,,AFSA08.jpg,AFNE03.jpg,AFSA09.jpg,AFNE10.jpg,AFNE10.jpg,FN,3,num_4,32,num_2,1.11674746091,,,2017_Jul_05_1456,60.0017320166,FEMA4ImagesEEG,001,100886,
AFNE01.JPG,AFNE01.JPG,AFNE01.JPG,AFNE01.JPG,AFNE01.JPG,AFNE01.JPG,,,,,,,,,4,7,47,9,,,,,,,,,,,,,,,AFSA05.jpg,AFNE17.jpg,AFSA12.jpg,AFNE13.jpg,AFNE17.jpg,FN,3,num_6,32,num_8,1.06671856227,,,2017_Jul_05_1456,60.0017320166,FEMA4ImagesEEG,001,100886,
AFNE01.JPG,AFNE01.JPG,AFNE01.JPG,AFNE01.JPG,AFNE01.JPG,AFNE01.JPG,,,,,,,,,4,8,48,6,,,,,,,,,,,,,,,AFNE07.jpg,AFSA01.jpg,AFNE12.jpg,AFSA06.jpg,AFSA06.jpg,FS,4,num_4,32,num_6,0.633581457194,,,2017_Jul_05_1456,60.0017320166,FEMA4ImagesEEG,001,100886,
AFNE01.JPG,AFNE01.JPG,AFNE01.JPG,AFNE01.JPG,AFNE01.JPG,AFNE01.JPG,,,,,,,,,4,9,49,7,,,,,,,,,,,,,,,AFSA04.jpg,AFNE11.jpg,AFNE10.jpg,AFSA03.jpg,AFNE11.jpg,FN,3,num_6,16,num_6,0.46672683733,,,2017_Jul_05_1456,60.0017320166,FEMA4ImagesEEG,001,100886,
AFNE01.JPG,AFNE01.JPG,AFNE01.JPG,AFNE01.JPG,AFNE01.JPG,AFNE01.JPG,,,,,,,,,5,0,50,4,,,,,,,,,,,,,,,AFSA15.jpg,AFSA13.jpg,AFNE10.jpg,AFNE18.jpg,AFSA15.jpg,FS,4,num_8,32,num_4,0.983456593356,,,2017_Jul_05_1456,60.0017320166,FEMA4ImagesEEG,001,100886,
AFNE01.JPG,AFNE01.JPG,AFNE01.JPG,AFNE01.JPG,AFNE01.JPG,AFNE01.JPG,,,,,,,,,5,1,51,6,,,,,,,,,,,,,,,AFSA02.jpg,AFNE05.jpg,AFSA20.jpg,AFNE10.jpg,AFNE05.jpg,FN,3,num_6,32,num_8,1.25010440068,,,2017_Jul_05_1456,60.0017320166,FEMA4ImagesEEG,001,100886,
AFNE01.JPG,AFNE01.JPG,AFNE01.JPG,AFNE01.JPG,AFNE01.JPG,AFNE01.JPG,,,,,,,,,5,2,52,2,,,,,,,,,,,,,,,AFNE08.jpg,AFNE15.jpg,AFSA12.jpg,AFSA14.jpg,AFNE15.jpg,FN,3,num_6,32,num_8,1.00014401192,,,2017_Jul_05_1456,60.0017320166,FEMA4ImagesEEG,001,100886,
AFNE01.JPG,AFNE01.JPG,AFNE01.JPG,AFNE01.JPG,AFNE01.JPG,AFNE01.JPG,,,,,,,,,5,3,53,0,,,,,,,,,,,,,,,AFNE08.jpg,AFNE01.jpg,AFSA20.jpg,AFSA11.jpg,AFSA11.jpg,FS,4,num_4,16,num_4,0.916764973197,,,2017_Jul_05_1456,60.0017320166,FEMA4ImagesEEG,001,100886,
AFNE01.JPG,AFNE01.JPG,AFNE01.JPG,AFNE01.JPG,AFNE01.JPG,AFNE01.JPG,,,,,,,,,5,4,54,7,,,,,,,,,,,,,,,AFSA11.jpg,AFNE18.jpg,AFSA05.jpg,AFNE10.jpg,AFSA05.jpg,FS,4,num_2,16,num_2,0.616734631243,,,2017_Jul_05_1456,60.0017320166,FEMA4ImagesEEG,001,100886,
AFNE01.JPG,AFNE01.JPG,AFNE01.JPG,AFNE01.JPG,AFNE01.JPG,AFNE01.JPG,,,,,,,,,5,5,55,9,,,,,,,,,,,,,,,AFNE02.jpg,AFNE20.jpg,AFSA16.jpg,AFSA09.jpg,AFSA09.jpg,FS,4,num_4,16,num_4,0.566783672431,,,2017_Jul_05_1456,60.0017320166,FEMA4ImagesEEG,001,100886,
AFNE01.JPG,AFNE01.JPG,AFNE01.JPG,AFNE01.JPG,AFNE01.JPG,AFNE01.JPG,,,,,,,,,5,6,56,1,,,,,,,,,,,,,,,AFSA05.jpg,AFNE03.jpg,AFNE10.jpg,AFSA12.jpg,AFSA12.jpg,FS,4,num_4,16,num_4,0.833436290617,,,2017_Jul_05_1456,60.0017320166,FEMA4ImagesEEG,001,100886,
AFNE01.JPG,AFNE01.JPG,AFNE01.JPG,AFNE01.JPG,AFNE01.JPG,AFNE01.JPG,,,,,,,,,5,7,57,5,,,,,,,,,,,,,,,AFNE03.jpg,AFSA08.jpg,AFNE20.jpg,AFSA06.jpg,AFNE03.jpg,FN,3,num_8,16,num_8,0.800135223661,,,2017_Jul_05_1456,60.0017320166,FEMA4ImagesEEG,001,100886,
AFNE01.JPG,AFNE01.JPG,AFNE01.JPG,AFNE01.JPG,AFNE01.JPG,AFNE01.JPG,,,,,,,,,5,8,58,8,,,,,,,,,,,,,,,AFSA01.jpg,AFNE12.jpg,AFSA07.jpg,AFNE17.jpg,AFNE17.jpg,FN,3,num_4,16,num_4,0.433474843507,,,2017_Jul_05_1456,60.0017320166,FEMA4ImagesEEG,001,100886,
AFNE01.JPG,AFNE01.JPG,AFNE01.JPG,AFNE01.JPG,AFNE01.JPG,AFNE01.JPG,,,,,,,,,5,9,59,3,,,,,,,,,,,,,,,AFSA09.jpg,AFNE17.jpg,AFSA04.jpg,AFNE10.jpg,AFSA09.jpg,FS,4,num_8,32,num_2,1.05011325295,,,2017_Jul_05_1456,60.0017320166,FEMA4ImagesEEG,001,100886,
,,,,,,,,,,,,,,,,,,,,,,,,,,,,,,,,,,,,,,,,,,,space,2.18330052169,2017_Jul_05_1456,60.0017320166,FEMA4ImagesEEG,001,100886,
AFNE01.JPG,AFNE01.JPG,AFNE01.JPG,AFNE01.JPG,AFNE01.JPG,AFNE01.JPG,,,,,,,,,,,,,0,0,0,1,,,,,,,,,,,AMNE19.jpg,AMSA09.jpg,AMSA03.jpg,AMNE05.jpg,AMSA03.jpg,MS,2,num_2,16,num_2,1.00013663492,,,2017_Jul_05_1456,60.0017320166,FEMA4ImagesEEG,001,100886,
AFNE01.JPG,AFNE01.JPG,AFNE01.JPG,AFNE01.JPG,AFNE01.JPG,AFNE01.JPG,,,,,,,,,,,,,0,1,1,9,,,,,,,,,,,AMNE17.jpg,AMSA03.jpg,AMSA20.jpg,AMNE18.jpg,AMSA20.jpg,MS,2,num_2,32,num_4,1.11668940715,,,2017_Jul_05_1456,60.0017320166,FEMA4ImagesEEG,001,100886,
AFNE01.JPG,AFNE01.JPG,AFNE01.JPG,AFNE01.JPG,AFNE01.JPG,AFNE01.JPG,,,,,,,,,,,,,0,2,2,0,,,,,,,,,,,AMSA07.jpg,AMNE19.jpg,AMSA04.jpg,AMNE17.jpg,AMSA04.jpg,MS,2,num_2,32,num_4,0.901598820696,,,2017_Jul_05_1456,60.0017320166,FEMA4ImagesEEG,001,100886,
AFNE01.JPG,AFNE01.JPG,AFNE01.JPG,AFNE01.JPG,AFNE01.JPG,AFNE01.JPG,,,,,,,,,,,,,0,3,3,5,,,,,,,,,,,AMNE13.jpg,AMSA08.jpg,AMSA05.jpg,AMNE14.jpg,AMSA08.jpg,MS,2,num_6,16,num_6,0.816787681542,,,2017_Jul_05_1456,60.0017320166,FEMA4ImagesEEG,001,100886,
AFNE01.JPG,AFNE01.JPG,AFNE01.JPG,AFNE01.JPG,AFNE01.JPG,AFNE01.JPG,,,,,,,,,,,,,0,4,4,8,,,,,,,,,,,AMNE18.jpg,AMSA03.jpg,AMSA14.jpg,AMNE13.jpg,AMNE18.jpg,MN,1,num_8,32,num_2,1.51670281403,,,2017_Jul_05_1456,60.0017320166,FEMA4ImagesEEG,001,100886,
AFNE01.JPG,AFNE01.JPG,AFNE01.JPG,AFNE01.JPG,AFNE01.JPG,AFNE01.JPG,,,,,,,,,,,,,0,5,5,2,,,,,,,,,,,AMNE10.jpg,AMNE02.jpg,AMSA03.jpg,AMSA19.jpg,AMSA03.jpg,MS,2,num_2,16,num_2,0.583484882605,,,2017_Jul_05_1456,60.0017320166,FEMA4ImagesEEG,001,100886,
AFNE01.JPG,AFNE01.JPG,AFNE01.JPG,AFNE01.JPG,AFNE01.JPG,AFNE01.JPG,,,,,,,,,,,,,0,6,6,6,,,,,,,,,,,AMSA09.jpg,AMSA05.jpg,AMNE11.jpg,AMNE10.jpg,AMSA05.jpg,MS,2,num_6,32,num_2,0.833461949718,,,2017_Jul_05_1456,60.0017320166,FEMA4ImagesEEG,001,100886,
AFNE01.JPG,AFNE01.JPG,AFNE01.JPG,AFNE01.JPG,AFNE01.JPG,AFNE01.JPG,,,,,,,,,,,,,0,7,7,7,,,,,,,,,,,AMNE01.jpg,AMSA08.jpg,AMSA04.jpg,AMNE14.jpg,AMSA08.jpg,MS,2,num_6,16,num_6,0.800244916463,,,2017_Jul_05_1456,60.0017320166,FEMA4ImagesEEG,001,100886,
AFNE01.JPG,AFNE01.JPG,AFNE01.JPG,AFNE01.JPG,AFNE01.JPG,AFNE01.JPG,,,,,,,,,,,,,0,8,8,4,,,,,,,,,,,AMSA20.jpg,AMSA12.jpg,AMNE20.jpg,AMNE09.jpg,AMNE09.jpg,MN,1,num_4,16,num_4,0.483477441478,,,2017_Jul_05_1456,60.0017320166,FEMA4ImagesEEG,001,100886,
AFNE01.JPG,AFNE01.JPG,AFNE01.JPG,AFNE01.JPG,AFNE01.JPG,AFNE01.JPG,,,,,,,,,,,,,0,9,9,3,,,,,,,,,,,AMSA06.jpg,AMNE06.jpg,AMSA19.jpg,AMNE07.jpg,AMNE07.jpg,MN,1,num_4,16,num_4,0.500165501493,,,2017_Jul_05_1456,60.0017320166,FEMA4ImagesEEG,001,100886,
AFNE01.JPG,AFNE01.JPG,AFNE01.JPG,AFNE01.JPG,AFNE01.JPG,AFNE01.JPG,,,,,,,,,,,,,1,0,10,7,,,,,,,,,,,AMNE11.jpg,AMNE18.jpg,AMSA12.jpg,AMSA10.jpg,AMNE11.jpg,MN,1,num_8,32,num_4,0.883281405666,,,2017_Jul_05_1456,60.0017320166,FEMA4ImagesEEG,001,100886,
AFNE01.JPG,AFNE01.JPG,AFNE01.JPG,AFNE01.JPG,AFNE01.JPG,AFNE01.JPG,,,,,,,,,,,,,1,1,11,4,,,,,,,,,,,AMNE12.jpg,AMSA19.jpg,AMNE05.jpg,AMSA16.jpg,AMSA19.jpg,MS,2,num_6,16,num_6,0.833445912809,,,2017_Jul_05_1456,60.0017320166,FEMA4ImagesEEG,001,100886,
AFNE01.JPG,AFNE01.JPG,AFNE01.JPG,AFNE01.JPG,AFNE01.JPG,AFNE01.JPG,,,,,,,,,,,,,1,2,12,0,,,,,,,,,,,AMSA06.jpg,AMSA11.jpg,AMNE01.jpg,AMNE02.jpg,AMNE01.jpg,MN,1,num_2,16,num_2,0.533463360975,,,2017_Jul_05_1456,60.0017320166,FEMA4ImagesEEG,001,100886,
AFNE01.JPG,AFNE01.JPG,AFNE01.JPG,AFNE01.JPG,AFNE01.JPG,AFNE01.JPG,,,,,,,,,,,,,1,3,13,6,,,,,,,,,,,AMSA13.jpg,AMSA16.jpg,AMNE17.jpg,AMNE15.jpg,AMNE17.jpg,MN,1,num_2,32,num_6,0.983461083728,,,2017_Jul_05_1456,60.0017320166,FEMA4ImagesEEG,001,100886,
AFNE01.JPG,AFNE01.JPG,AFNE01.JPG,AFNE01.JPG,AFNE01.JPG,AFNE01.JPG,,,,,,,,,,,,,1,4,14,8,,,,,,,,,,,AMSA10.jpg,AMSA02.jpg,AMNE12.jpg,AMNE01.jpg,AMSA02.jpg,MS,2,num_6,16,num_6,1.03350634,,,2017_Jul_05_1456,60.0017320166,FEMA4ImagesEEG,001,100886,
AFNE01.JPG,AFNE01.JPG,AFNE01.JPG,AFNE01.JPG,AFNE01.JPG,AFNE01.JPG,,,,,,,,,,,,,1,5,15,2,,,,,,,,,,,AMSA07.jpg,AMNE11.jpg,AMSA12.jpg,AMNE15.jpg,AMNE15.jpg,MN,1,num_4,16,num_4,0.516788130626,,,2017_Jul_05_1456,60.0017320166,FEMA4ImagesEEG,001,100886,
AFNE01.JPG,AFNE01.JPG,AFNE01.JPG,AFNE01.JPG,AFNE01.JPG,AFNE01.JPG,,,,,,,,,,,,,1,6,16,9,,,,,,,,,,,AMNE02.jpg,AMNE10.jpg,AMSA01.jpg,AMSA06.jpg,AMSA06.jpg,MS,2,num_4,16,num_4,0.833460345981,,,2017_Jul_05_1456,60.0017320166,FEMA4ImagesEEG,001,100886,
AFNE01.JPG,AFNE01.JPG,AFNE01.JPG,AFNE01.JPG,AFNE01.JPG,AFNE01.JPG,,,,,,,,,,,,,1,7,17,5,,,,,,,,,,,AMNE12.jpg,AMSA17.jpg,AMNE17.jpg,AMSA13.jpg,AMSA13.jpg,MS,2,num_4,16,num_4,0.800190069946,,,2017_Jul_05_1456,60.0017320166,FEMA4ImagesEEG,001,100886,
AFNE01.JPG,AFNE01.JPG,AFNE01.JPG,AFNE01.JPG,AFNE01.JPG,AFNE01.JPG,,,,,,,,,,,,,1,8,18,3,,,,,,,,,,,AMSA17.jpg,AMNE02.jpg,AMNE15.jpg,AMSA02.jpg,AMNE15.jpg,MN,1,num_2,32,num_8,0.783400656539,,,2017_Jul_05_1456,60.0017320166,FEMA4ImagesEEG,001,100886,
AFNE01.JPG,AFNE01.JPG,AFNE01.JPG,AFNE01.JPG,AFNE01.JPG,AFNE01.JPG,,,,,,,,,,,,,1,9,19,1,,,,,,,,,,,AMNE02.jpg,AMSA03.jpg,AMSA18.jpg,AMNE04.jpg,AMNE02.jpg,MN,1,num_8,32,num_4,0.833477665903,,,2017_Jul_05_1456,60.0017320166,FEMA4ImagesEEG,001,100886,
AFNE01.JPG,AFNE01.JPG,AFNE01.JPG,AFNE01.JPG,AFNE01.JPG,AFNE01.JPG,,,,,,,,,,,,,2,0,20,0,,,,,,,,,,,AMNE10.jpg,AMSA02.jpg,AMSA20.jpg,AMNE13.jpg,AMNE13.jpg,MN,1,num_4,16,num_4,0.916741880006,,,2017_Jul_05_1456,60.0017320166,FEMA4ImagesEEG,001,100886,
AFNE01.JPG,AFNE01.JPG,AFNE01.JPG,AFNE01.JPG,AFNE01.JPG,AFNE01.JPG,,,,,,,,,,,,,2,1,21,3,,,,,,,,,,,AMSA20.jpg,AMNE03.jpg,AMSA19.jpg,AMNE13.jpg,AMSA19.jpg,MS,2,num_2,32,num_6,1.26671484171,,,2017_Jul_05_1456,60.0017320166,FEMA4ImagesEEG,001,100886,
AFNE01.JPG,AFNE01.JPG,AFNE01.JPG,AFNE01.JPG,AFNE01.JPG,AFNE01.JPG,,,,,,,,,,,,,2,2,22,6,,,,,,,,,,,AMNE15.jpg,AMSA03.jpg,AMSA09.jpg,AMNE06.jpg,AMSA03.jpg,MS,2,num_6,32,num_2,0.916705636424,,,2017_Jul_05_1456,60.0017320166,FEMA4ImagesEEG,001,100886,
AFNE01.JPG,AFNE01.JPG,AFNE01.JPG,AFNE01.JPG,AFNE01.JPG,AFNE01.JPG,,,,,,,,,,,,,2,3,23,7,,,,,,,,,,,AMNE13.jpg,AMNE06.jpg,AMSA06.jpg,AMSA19.jpg,AMNE06.jpg,MN,1,num_6,16,num_6,0.900126948603,,,2017_Jul_05_1456,60.0017320166,FEMA4ImagesEEG,001,100886,
AFNE01.JPG,AFNE01.JPG,AFNE01.JPG,AFNE01.JPG,AFNE01.JPG,AFNE01.JPG,,,,,,,,,,,,,2,4,24,9,,,,,,,,,,,AMNE01.jpg,AMSA03.jpg,AMSA08.jpg,AMNE16.jpg,AMSA03.jpg,MS,2,num_6,32,num_2,1.01676567888,,,2017_Jul_05_1456,60.0017320166,FEMA4ImagesEEG,001,100886,
AFNE01.JPG,AFNE01.JPG,AFNE01.JPG,AFNE01.JPG,AFNE01.JPG,AFNE01.JPG,,,,,,,,,,,,,2,5,25,1,,,,,,,,,,,AMNE09.jpg,AMSA17.jpg,AMSA12.jpg,AMNE05.jpg,AMNE05.jpg,MN,1,num_4,16,num_4,0.533444758155,,,2017_Jul_05_1456,60.0017320166,FEMA4ImagesEEG,001,100886,
AFNE01.JPG,AFNE01.JPG,AFNE01.JPG,AFNE01.JPG,AFNE01.JPG,AFNE01.JPG,,,,,,,,,,,,,2,6,26,4,,,,,,,,,,,AMNE05.jpg,AMSA05.jpg,AMNE17.jpg,AMSA19.jpg,AMSA19.jpg,MS,2,num_4,16,num_4,0.633452840731,,,2017_Jul_05_1456,60.0017320166,FEMA4ImagesEEG,001,100886,
AFNE01.JPG,AFNE01.JPG,AFNE01.JPG,AFNE01.JPG,AFNE01.JPG,AFNE01.JPG,,,,,,,,,,,,,2,7,27,2,,,,,,,,,,,AMNE11.jpg,AMNE04.jpg,AMSA15.jpg,AMSA06.jpg,AMSA06.jpg,MS,2,num_4,32,num_2,1.08348776924,,,2017_Jul_05_1456,60.0017320166,FEMA4ImagesEEG,001,100886,
AFNE01.JPG,AFNE01.JPG,AFNE01.JPG,AFNE01.JPG,AFNE01.JPG,AFNE01.JPG,,,,,,,,,,,,,2,8,28,8,,,,,,,,,,,AMSA19.jpg,AMNE19.jpg,AMSA17.jpg,AMNE05.jpg,AMSA17.jpg,MS,2,num_2,32,num_6,0.833479911089,,,2017_Jul_05_1456,60.0017320166,FEMA4ImagesEEG,001,100886,
AFNE01.JPG,AFNE01.JPG,AFNE01.JPG,AFNE01.JPG,AFNE01.JPG,AFNE01.JPG,,,,,,,,,,,,,2,9,29,5,,,,,,,,,,,AMNE18.jpg,AMSA06.jpg,AMSA09.jpg,AMNE15.jpg,AMNE18.jpg,MN,1,num_8,32,num_2,1.13311766833,,,2017_Jul_05_1456,60.0017320166,FEMA4ImagesEEG,001,100886,
AFNE01.JPG,AFNE01.JPG,AFNE01.JPG,AFNE01.JPG,AFNE01.JPG,AFNE01.JPG,,,,,,,,,,,,,3,0,30,6,,,,,,,,,,,AMNE13.jpg,AMNE01.jpg,AMSA15.jpg,AMSA02.jpg,AMNE01.jpg,MN,1,num_6,16,num_6,0.866908311611,,,2017_Jul_05_1456,60.0017320166,FEMA4ImagesEEG,001,100886,
AFNE01.JPG,AFNE01.JPG,AFNE01.JPG,AFNE01.JPG,AFNE01.JPG,AFNE01.JPG,,,,,,,,,,,,,3,1,31,8,,,,,,,,,,,AMNE12.jpg,AMNE05.jpg,AMSA15.jpg,AMSA06.jpg,AMSA06.jpg,MS,2,num_4,32,num_2,1.03342615522,,,2017_Jul_05_1456,60.0017320166,FEMA4ImagesEEG,001,100886,
AFNE01.JPG,AFNE01.JPG,AFNE01.JPG,AFNE01.JPG,AFNE01.JPG,AFNE01.JPG,,,,,,,,,,,,,3,2,32,7,,,,,,,,,,,AMNE12.jpg,AMSA05.jpg,AMNE06.jpg,AMSA18.jpg,AMSA18.jpg,MS,2,num_4,32,num_6,0.88342221023,,,2017_Jul_05_1456,60.0017320166,FEMA4ImagesEEG,001,100886,
AFNE01.JPG,AFNE01.JPG,AFNE01.JPG,AFNE01.JPG,AFNE01.JPG,AFNE01.JPG,,,,,,,,,,,,,3,3,33,5,,,,,,,,,,,AMSA07.jpg,AMNE12.jpg,AMNE16.jpg,AMSA04.jpg,AMNE16.jpg,MN,1,num_2,16,num_2,0.51676952769,,,2017_Jul_05_1456,60.0017320166,FEMA4ImagesEEG,001,100886,
AFNE01.JPG,AFNE01.JPG,AFNE01.JPG,AFNE01.JPG,AFNE01.JPG,AFNE01.JPG,,,,,,,,,,,,,3,4,34,0,,,,,,,,,,,AMSA02.jpg,AMSA03.jpg,AMNE04.jpg,AMNE08.jpg,AMSA03.jpg,MS,2,num_6,32,num_8,0.866747621214,,,2017_Jul_05_1456,60.0017320166,FEMA4ImagesEEG,001,100886,
AFNE01.JPG,AFNE01.JPG,AFNE01.JPG,AFNE01.JPG,AFNE01.JPG,AFNE01.JPG,,,,,,,,,,,,,3,5,35,1,,,,,,,,,,,AMSA10.jpg,AMSA05.jpg,AMNE02.jpg,AMNE04.jpg,AMNE02.jpg,MN,1,num_2,16,num_2,1.13329920673,,,2017_Jul_05_1456,60.0017320166,FEMA4ImagesEEG,001,100886,
AFNE01.JPG,AFNE01.JPG,AFNE01.JPG,AFNE01.JPG,AFNE01.JPG,AFNE01.JPG,,,,,,,,,,,,,3,6,36,9,,,,,,,,,,,AMNE15.jpg,AMSA03.jpg,AMNE18.jpg,AMSA01.jpg,AMSA03.jpg,MS,2,num_6,16,num_6,0.900277054519,,,2017_Jul_05_1456,60.0017320166,FEMA4ImagesEEG,001,100886,
AFNE01.JPG,AFNE01.JPG,AFNE01.JPG,AFNE01.JPG,AFNE01.JPG,AFNE01.JPG,,,,,,,,,,,,,3,7,37,3,,,,,,,,,,,AMSA01.jpg,AMNE17.jpg,AMNE13.jpg,AMSA14.jpg,AMNE13.jpg,MN,1,num_2,16,num_2,0.866756281233,,,2017_Jul_05_1456,60.0017320166,FEMA4ImagesEEG,001,100886,
AFNE01.JPG,AFNE01.JPG,AFNE01.JPG,AFNE01.JPG,AFNE01.JPG,AFNE01.JPG,,,,,,,,,,,,,3,8,38,2,,,,,,,,,,,AMNE09.jpg,AMSA12.jpg,AMSA02.jpg,AMNE11.jpg,AMNE09.jpg,MN,1,num_8,32,num_6,0.666813244461,,,2017_Jul_05_1456,60.0017320166,FEMA4ImagesEEG,001,100886,
AFNE01.JPG,AFNE01.JPG,AFNE01.JPG,AFNE01.JPG,AFNE01.JPG,AFNE01.JPG,,,,,,,,,,,,,3,9,39,4,,,,,,,,,,,AMSA06.jpg,AMNE13.jpg,AMSA02.jpg,AMNE04.jpg,AMNE04.jpg,MN,1,num_4,16,num_4,0.766736651887,,,2017_Jul_05_1456,60.0017320166,FEMA4ImagesEEG,001,100886,
AFNE01.JPG,AFNE01.JPG,AFNE01.JPG,AFNE01.JPG,AFNE01.JPG,AFNE01.JPG,,,,,,,,,,,,,4,0,40,2,,,,,,,,,,,AMSA19.jpg,AMNE01.jpg,AMNE11.jpg,AMSA05.jpg,AMNE01.jpg,MN,1,num_6,16,num_6,0.683454155806,,,2017_Jul_05_1456,60.0017320166,FEMA4ImagesEEG,001,100886,
AFNE01.JPG,AFNE01.JPG,AFNE01.JPG,AFNE01.JPG,AFNE01.JPG,AFNE01.JPG,,,,,,,,,,,,,4,1,41,5,,,,,,,,,,,AMSA11.jpg,AMNE02.jpg,AMSA08.jpg,AMNE05.jpg,AMNE02.jpg,MN,1,num_6,32,num_2,0.966610088246,,,2017_Jul_05_1456,60.0017320166,FEMA4ImagesEEG,001,100886,
AFNE01.JPG,AFNE01.JPG,AFNE01.JPG,AFNE01.JPG,AFNE01.JPG,AFNE01.JPG,,,,,,,,,,,,,4,2,42,8,,,,,,,,,,,AMSA05.jpg,AMNE01.jpg,AMNE06.jpg,AMSA02.jpg,AMSA05.jpg,MS,2,num_8,32,num_4,1.58339058526,,,2017_Jul_05_1456,60.0017320166,FEMA4ImagesEEG,001,100886,
AFNE01.JPG,AFNE01.JPG,AFNE01.JPG,AFNE01.JPG,AFNE01.JPG,AFNE01.JPG,,,,,,,,,,,,,4,3,43,4,,,,,,,,,,,AMNE14.jpg,AMSA04.jpg,AMSA19.jpg,AMNE10.jpg,AMNE14.jpg,MN,1,num_8,32,num_4,0.716797881061,,,2017_Jul_05_1456,60.0017320166,FEMA4ImagesEEG,001,100886,
AFNE01.JPG,AFNE01.JPG,AFNE01.JPG,AFNE01.JPG,AFNE01.JPG,AFNE01.JPG,,,,,,,,,,,,,4,4,44,9,,,,,,,,,,,AMNE09.jpg,AMSA09.jpg,AMSA15.jpg,AMNE07.jpg,AMSA09.jpg,MS,2,num_6,16,num_6,0.766796950949,,,2017_Jul_05_1456,60.0017320166,FEMA4ImagesEEG,001,100886,
AFNE01.JPG,AFNE01.JPG,AFNE01.JPG,AFNE01.JPG,AFNE01.JPG,AFNE01.JPG,,,,,,,,,,,,,4,5,45,1,,,,,,,,,,,AMNE13.jpg,AMSA10.jpg,AMNE06.jpg,AMSA07.jpg,AMSA07.jpg,MS,2,num_4,16,num_4,0.550178363104,,,2017_Jul_05_1456,60.0017320166,FEMA4ImagesEEG,001,100886,
AFNE01.JPG,AFNE01.JPG,AFNE01.JPG,AFNE01.JPG,AFNE01.JPG,AFNE01.JPG,,,,,,,,,,,,,4,6,46,7,,,,,,,,,,,AMNE10.jpg,AMSA14.jpg,AMSA19.jpg,AMNE08.jpg,AMSA19.jpg,MS,2,num_2,16,num_2,0.900100968662,,,2017_Jul_05_1456,60.0017320166,FEMA4ImagesEEG,001,100886,
AFNE01.JPG,AFNE01.JPG,AFNE01.JPG,AFNE01.JPG,AFNE01.JPG,AFNE01.JPG,,,,,,,,,,,,,4,7,47,3,,,,,,,,,,,AMNE18.jpg,AMSA01.jpg,AMNE03.jpg,AMSA11.jpg,AMNE18.jpg,MN,1,num_8,32,num_2,1.0334158917,,,2017_Jul_05_1456,60.0017320166,FEMA4ImagesEEG,001,100886,
AFNE01.JPG,AFNE01.JPG,AFNE01.JPG,AFNE01.JPG,AFNE01.JPG,AFNE01.JPG,,,,,,,,,,,,,4,8,48,6,,,,,,,,,,,AMNE12.jpg,AMSA18.jpg,AMNE15.jpg,AMSA06.jpg,AMSA18.jpg,MS,2,num_6,16,num_6,0.650103374268,,,2017_Jul_05_1456,60.0017320166,FEMA4ImagesEEG,001,100886,
AFNE01.JPG,AFNE01.JPG,AFNE01.JPG,AFNE01.JPG,AFNE01.JPG,AFNE01.JPG,,,,,,,,,,,,,4,9,49,0,,,,,,,,,,,AMSA03.jpg,AMNE16.jpg,AMSA13.jpg,AMNE08.jpg,AMSA13.jpg,MS,2,num_2,32,num_4,0.966719460324,,,2017_Jul_05_1456,60.0017320166,FEMA4ImagesEEG,001,100886,
AFNE01.JPG,AFNE01.JPG,AFNE01.JPG,AFNE01.JPG,AFNE01.JPG,AFNE01.JPG,,,,,,,,,,,,,5,0,50,3,,,,,,,,,,,AMSA07.jpg,AMSA15.jpg,AMNE20.jpg,AMNE06.jpg,AMNE20.jpg,MN,1,num_2,16,num_2,0.700110141886,,,2017_Jul_05_1456,60.0017320166,FEMA4ImagesEEG,001,100886,
AFNE01.JPG,AFNE01.JPG,AFNE01.JPG,AFNE01.JPG,AFNE01.JPG,AFNE01.JPG,,,,,,,,,,,,,5,1,51,7,,,,,,,,,,,AMSA13.jpg,AMSA18.jpg,AMNE13.jpg,AMNE18.jpg,AMSA13.jpg,MS,2,num_8,32,num_4,0.833482156275,,,2017_Jul_05_1456,60.0017320166,FEMA4ImagesEEG,001,100886,
AFNE01.JPG,AFNE01.JPG,AFNE01.JPG,AFNE01.JPG,AFNE01.JPG,AFNE01.JPG,,,,,,,,,,,,,5,2,52,6,,,,,,,,,,,AMNE08.jpg,AMNE05.jpg,AMSA16.jpg,AMSA05.jpg,AMNE05.jpg,MN,1,num_6,32,num_2,0.766864626901,,,2017_Jul_05_1456,60.0017320166,FEMA4ImagesEEG,001,100886,
AFNE01.JPG,AFNE01.JPG,AFNE01.JPG,AFNE01.JPG,AFNE01.JPG,AFNE01.JPG,,,,,,,,,,,,,5,3,53,4,,,,,,,,,,,AMSA08.jpg,AMSA06.jpg,AMNE09.jpg,AMNE01.jpg,AMNE09.jpg,MN,1,num_2,32,num_6,0.900132080307,,,2017_Jul_05_1456,60.0017320166,FEMA4ImagesEEG,001,100886,
AFNE01.JPG,AFNE01.JPG,AFNE01.JPG,AFNE01.JPG,AFNE01.JPG,AFNE01.JPG,,,,,,,,,,,,,5,4,54,1,,,,,,,,,,,AMSA04.jpg,AMNE18.jpg,AMNE09.jpg,AMSA17.jpg,AMSA17.jpg,MS,2,num_4,16,num_4,0.60015754716,,,2017_Jul_05_1456,60.0017320166,FEMA4ImagesEEG,001,100886,
AFNE01.JPG,AFNE01.JPG,AFNE01.JPG,AFNE01.JPG,AFNE01.JPG,AFNE01.JPG,,,,,,,,,,,,,5,5,55,0,,,,,,,,,,,AMNE04.jpg,AMSA07.jpg,AMSA12.jpg,AMNE06.jpg,AMNE04.jpg,MN,1,num_8,32,num_4,1.01672302058,,,2017_Jul_05_1456,60.0017320166,FEMA4ImagesEEG,001,100886,
AFNE01.JPG,AFNE01.JPG,AFNE01.JPG,AFNE01.JPG,AFNE01.JPG,AFNE01.JPG,,,,,,,,,,,,,5,6,56,8,,,,,,,,,,,AMNE09.jpg,AMSA18.jpg,AMNE08.jpg,AMSA16.jpg,AMSA16.jpg,MS,2,num_4,16,num_4,0.733434622758,,,2017_Jul_05_1456,60.0017320166,FEMA4ImagesEEG,001,100886,
AFNE01.JPG,AFNE01.JPG,AFNE01.JPG,AFNE01.JPG,AFNE01.JPG,AFNE01.JPG,,,,,,,,,,,,,5,7,57,9,,,,,,,,,,,AMSA06.jpg,AMNE07.jpg,AMNE02.jpg,AMSA19.jpg,AMSA06.jpg,MS,2,num_8,32,num_4,0.700146385352,,,2017_Jul_05_1456,60.0017320166,FEMA4ImagesEEG,001,100886,
AFNE01.JPG,AFNE01.JPG,AFNE01.JPG,AFNE01.JPG,AFNE01.JPG,AFNE01.JPG,,,,,,,,,,,,,5,8,58,2,,,,,,,,,,,AMSA18.jpg,AMNE07.jpg,AMSA09.jpg,AMNE03.jpg,AMNE07.jpg,MN,1,num_6,16,num_6,0.483479686547,,,2017_Jul_05_1456,60.0017320166,FEMA4ImagesEEG,001,100886,
AFNE01.JPG,AFNE01.JPG,AFNE01.JPG,AFNE01.JPG,AFNE01.JPG,AFNE01.JPG,,,,,,,,,,,,,5,9,59,5,,,,,,,,,,,AMSA07.jpg,AMNE20.jpg,AMNE14.jpg,AMSA04.jpg,AMNE20.jpg,MN,1,num_6,16,num_6,0.816756569897,,,2017_Jul_05_1456,60.0017320166,FEMA4ImagesEEG,001,100886,
,,,,,,,,,,,,,,,,,,,,,,,,,,,,,,,,,,,,,,,,,,,space,1.71668305644,2017_Jul_05_1456,60.0017320166,FEMA4ImagesEEG,001,100886,
AFNE01.JPG,AFNE01.JPG,AFNE01.JPG,AFNE01.JPG,AFNE01.JPG,AFNE01.JPG,,,,,,,,,,,,,,,,,0,0,0,1,,,,,,,AFSA02.jpg,AFNE07.jpg,AFSA04.jpg,AFNE02.jpg,AFNE02.jpg,FN,3,num_4,16,num_4,1.10011617176,,,2017_Jul_05_1456,60.0017320166,FEMA4ImagesEEG,001,100886,
AFNE01.JPG,AFNE01.JPG,AFNE01.JPG,AFNE01.JPG,AFNE01.JPG,AFNE01.JPG,,,,,,,,,,,,,,,,,0,1,1,8,,,,,,,AFNE03.jpg,AFNE12.jpg,AFSA05.jpg,AFSA15.jpg,AFSA15.jpg,FS,4,num_4,32,num_6,0.933475164231,,,2017_Jul_05_1456,60.0017320166,FEMA4ImagesEEG,001,100886,
AFNE01.JPG,AFNE01.JPG,AFNE01.JPG,AFNE01.JPG,AFNE01.JPG,AFNE01.JPG,,,,,,,,,,,,,,,,,0,2,2,0,,,,,,,AFSA05.jpg,AFSA01.jpg,AFNE20.jpg,AFNE18.jpg,AFSA05.jpg,FS,4,num_8,32,num_6,0.950090416358,,,2017_Jul_05_1456,60.0017320166,FEMA4ImagesEEG,001,100886,
AFNE01.JPG,AFNE01.JPG,AFNE01.JPG,AFNE01.JPG,AFNE01.JPG,AFNE01.JPG,,,,,,,,,,,,,,,,,0,3,3,5,,,,,,,AFSA16.jpg,AFNE15.jpg,AFSA02.jpg,AFNE16.jpg,AFNE16.jpg,FN,3,num_4,16,num_4,1.08342843247,,,2017_Jul_05_1456,60.0017320166,FEMA4ImagesEEG,001,100886,
AFNE01.JPG,AFNE01.JPG,AFNE01.JPG,AFNE01.JPG,AFNE01.JPG,AFNE01.JPG,,,,,,,,,,,,,,,,,0,4,4,6,,,,,,,AFSA17.jpg,AFNE07.jpg,AFNE17.jpg,AFSA02.jpg,AFNE07.jpg,FN,3,num_6,16,num_6,0.80032574269,,,2017_Jul_05_1456,60.0017320166,FEMA4ImagesEEG,001,100886,
AFNE01.JPG,AFNE01.JPG,AFNE01.JPG,AFNE01.JPG,AFNE01.JPG,AFNE01.JPG,,,,,,,,,,,,,,,,,0,5,5,7,,,,,,,AFNE06.jpg,AFSA16.jpg,AFNE09.jpg,AFSA01.jpg,AFSA01.jpg,FS,4,num_4,16,num_4,0.666781170527,,,2017_Jul_05_1456,60.0017320166,FEMA4ImagesEEG,001,100886,
AFNE01.JPG,AFNE01.JPG,AFNE01.JPG,AFNE01.JPG,AFNE01.JPG,AFNE01.JPG,,,,,,,,,,,,,,,,,0,6,6,3,,,,,,,AFNE02.jpg,AFSA14.jpg,AFSA08.jpg,AFNE09.jpg,AFNE09.jpg,FN,3,num_4,16,num_4,0.88347513217,,,2017_Jul_05_1456,60.0017320166,FEMA4ImagesEEG,001,100886,
AFNE01.JPG,AFNE01.JPG,AFNE01.JPG,AFNE01.JPG,AFNE01.JPG,AFNE01.JPG,,,,,,,,,,,,,,,,,0,7,7,2,,,,,,,AFNE10.jpg,AFSA14.jpg,AFNE20.jpg,AFSA10.jpg,AFSA10.jpg,FS,4,num_4,32,num_8,1.08348167513,,,2017_Jul_05_1456,60.0017320166,FEMA4ImagesEEG,001,100886,
AFNE01.JPG,AFNE01.JPG,AFNE01.JPG,AFNE01.JPG,AFNE01.JPG,AFNE01.JPG,,,,,,,,,,,,,,,,,0,8,8,9,,,,,,,AFNE04.jpg,AFNE08.jpg,AFSA07.jpg,AFSA18.jpg,AFNE08.jpg,FN,3,num_6,16,num_6,1.23347888479,,,2017_Jul_05_1456,60.0017320166,FEMA4ImagesEEG,001,100886,
AFNE01.JPG,AFNE01.JPG,AFNE01.JPG,AFNE01.JPG,AFNE01.JPG,AFNE01.JPG,,,,,,,,,,,,,,,,,0,9,9,4,,,,,,,AFSA10.jpg,AFNE05.jpg,AFNE09.jpg,AFSA20.jpg,AFSA20.jpg,FS,4,num_4,16,num_4,0.633460859186,,,2017_Jul_05_1456,60.0017320166,FEMA4ImagesEEG,001,100886,
AFNE01.JPG,AFNE01.JPG,AFNE01.JPG,AFNE01.JPG,AFNE01.JPG,AFNE01.JPG,,,,,,,,,,,,,,,,,1,0,10,2,,,,,,,AFSA04.jpg,AFNE06.jpg,AFSA06.jpg,AFNE10.jpg,AFSA06.jpg,FS,4,num_2,16,num_2,0.716751694679,,,2017_Jul_05_1456,60.0017320166,FEMA4ImagesEEG,001,100886,
AFNE01.JPG,AFNE01.JPG,AFNE01.JPG,AFNE01.JPG,AFNE01.JPG,AFNE01.JPG,,,,,,,,,,,,,,,,,1,1,11,4,,,,,,,AFNE01.jpg,AFSA12.jpg,AFNE09.jpg,AFSA01.jpg,AFSA01.jpg,FS,4,num_4,16,num_4,0.666768020252,,,2017_Jul_05_1456,60.0017320166,FEMA4ImagesEEG,001,100886,
AFNE01.JPG,AFNE01.JPG,AFNE01.JPG,AFNE01.JPG,AFNE01.JPG,AFNE01.JPG,,,,,,,,,,,,,,,,,1,2,12,3,,,,,,,AFNE10.jpg,AFSA02.jpg,AFNE17.jpg,AFSA16.jpg,AFNE10.jpg,FN,3,num_8,16,num_8,1.01677369734,,,2017_Jul_05_1456,60.0017320166,FEMA4ImagesEEG,001,100886,
AFNE01.JPG,AFNE01.JPG,AFNE01.JPG,AFNE01.JPG,AFNE01.JPG,AFNE01.JPG,,,,,,,,,,,,,,,,,1,3,13,8,,,,,,,AFSA19.jpg,AFNE09.jpg,AFSA10.jpg,AFNE17.jpg,AFNE17.jpg,FN,3,num_4,32,num_6,1.65000266221,,,2017_Jul_05_1456,60.0017320166,FEMA4ImagesEEG,001,100886,
AFNE01.JPG,AFNE01.JPG,AFNE01.JPG,AFNE01.JPG,AFNE01.JPG,AFNE01.JPG,,,,,,,,,,,,,,,,,1,4,14,7,,,,,,,AFSA06.jpg,AFNE15.jpg,AFSA05.jpg,AFNE10.jpg,AFNE10.jpg,FN,3,num_4,16,num_4,1.26675333036,,,2017_Jul_05_1456,60.0017320166,FEMA4ImagesEEG,001,100886,
AFNE01.JPG,AFNE01.JPG,AFNE01.JPG,AFNE01.JPG,AFNE01.JPG,AFNE01.JPG,,,,,,,,,,,,,,,,,1,5,15,1,,,,,,,AFSA18.jpg,AFNE05.jpg,AFNE02.jpg,AFSA02.jpg,AFNE02.jpg,FN,3,num_2,16,num_2,0.800148373935,,,2017_Jul_05_1456,60.0017320166,FEMA4ImagesEEG,001,100886,
AFNE01.JPG,AFNE01.JPG,AFNE01.JPG,AFNE01.JPG,AFNE01.JPG,AFNE01.JPG,,,,,,,,,,,,,,,,,1,6,16,0,,,,,,,AFSA05.jpg,AFNE07.jpg,AFNE05.jpg,AFSA01.jpg,AFSA05.jpg,FS,4,num_8,16,num_8,0.616902057198,,,2017_Jul_05_1456,60.0017320166,FEMA4ImagesEEG,001,100886,
AFNE01.JPG,AFNE01.JPG,AFNE01.JPG,AFNE01.JPG,AFNE01.JPG,AFNE01.JPG,,,,,,,,,,,,,,,,,1,7,17,9,,,,,,,AFNE12.jpg,AFNE13.jpg,AFSA05.jpg,AFSA01.jpg,AFNE12.jpg,FN,3,num_8,16,num_8,0.716833483195,,,2017_Jul_05_1456,60.0017320166,FEMA4ImagesEEG,001,100886,
AFNE01.JPG,AFNE01.JPG,AFNE01.JPG,AFNE01.JPG,AFNE01.JPG,AFNE01.JPG,,,,,,,,,,,,,,,,,1,8,18,5,,,,,,,AFNE19.jpg,AFNE17.jpg,AFSA02.jpg,AFSA14.jpg,AFNE17.jpg,FN,3,num_6,32,num_8,1.21674656274,,,2017_Jul_05_1456,60.0017320166,FEMA4ImagesEEG,001,100886,
AFNE01.JPG,AFNE01.JPG,AFNE01.JPG,AFNE01.JPG,AFNE01.JPG,AFNE01.JPG,,,,,,,,,,,,,,,,,1,9,19,6,,,,,,,AFNE03.jpg,AFNE01.jpg,AFSA13.jpg,AFSA20.jpg,AFSA20.jpg,FS,4,num_4,16,num_4,0.91676850128,,,2017_Jul_05_1456,60.0017320166,FEMA4ImagesEEG,001,100886,
AFNE01.JPG,AFNE01.JPG,AFNE01.JPG,AFNE01.JPG,AFNE01.JPG,AFNE01.JPG,,,,,,,,,,,,,,,,,2,0,20,9,,,,,,,AFNE02.jpg,AFSA09.jpg,AFNE10.jpg,AFSA13.jpg,AFSA13.jpg,FS,4,num_4,32,num_2,0.833512305864,,,2017_Jul_05_1456,60.0017320166,FEMA4ImagesEEG,001,100886,
AFNE01.JPG,AFNE01.JPG,AFNE01.JPG,AFNE01.JPG,AFNE01.JPG,AFNE01.JPG,,,,,,,,,,,,,,,,,2,1,21,3,,,,,,,AFNE19.jpg,AFNE20.jpg,AFSA17.jpg,AFSA05.jpg,AFNE19.jpg,FN,3,num_8,32,num_4,0.766753009637,,,2017_Jul_05_1456,60.0017320166,FEMA4ImagesEEG,001,100886,
AFNE01.JPG,AFNE01.JPG,AFNE01.JPG,AFNE01.JPG,AFNE01.JPG,AFNE01.JPG,,,,,,,,,,,,,,,,,2,2,22,6,,,,,,,AFSA03.jpg,AFSA14.jpg,AFNE18.jpg,AFNE15.jpg,AFNE15.jpg,FN,3,num_4,16,num_4,0.700116235879,,,2017_Jul_05_1456,60.0017320166,FEMA4ImagesEEG,001,100886,
AFNE01.JPG,AFNE01.JPG,AFNE01.JPG,AFNE01.JPG,AFNE01.JPG,AFNE01.JPG,,,,,,,,,,,,,,,,,2,3,23,7,,,,,,,AFSA15.jpg,AFNE10.jpg,AFSA16.jpg,AFNE16.jpg,AFSA16.jpg,FS,4,num_2,32,num_4,0.866826202255,,,2017_Jul_05_1456,60.0017320166,FEMA4ImagesEEG,001,100886,
AFNE01.JPG,AFNE01.JPG,AFNE01.JPG,AFNE01.JPG,AFNE01.JPG,AFNE01.JPG,,,,,,,,,,,,,,,,,2,4,24,2,,,,,,,AFNE15.jpg,AFSA17.jpg,AFSA13.jpg,AFNE09.jpg,AFNE15.jpg,FN,3,num_8,16,num_8,1.28343754145,,,2017_Jul_05_1456,60.0017320166,FEMA4ImagesEEG,001,100886,
AFNE01.JPG,AFNE01.JPG,AFNE01.JPG,AFNE01.JPG,AFNE01.JPG,AFNE01.JPG,,,,,,,,,,,,,,,,,2,5,25,5,,,,,,,AFNE17.jpg,AFNE03.jpg,AFSA15.jpg,AFSA03.jpg,AFNE17.jpg,FN,3,num_8,32,num_6,0.766727991984,,,2017_Jul_05_1456,60.0017320166,FEMA4ImagesEEG,001,100886,
AFNE01.JPG,AFNE01.JPG,AFNE01.JPG,AFNE01.JPG,AFNE01.JPG,AFNE01.JPG,,,,,,,,,,,,,,,,,2,6,26,0,,,,,,,AFSA14.jpg,AFNE17.jpg,AFSA13.jpg,AFNE08.jpg,AFNE08.jpg,FN,3,num_4,16,num_4,0.800118545187,,,2017_Jul_05_1456,60.0017320166,FEMA4ImagesEEG,001,100886,
AFNE01.JPG,AFNE01.JPG,AFNE01.JPG,AFNE01.JPG,AFNE01.JPG,AFNE01.JPG,,,,,,,,,,,,,,,,,2,7,27,4,,,,,,,AFNE08.jpg,AFNE15.jpg,AFSA06.jpg,AFSA20.jpg,AFSA20.jpg,FS,4,num_4,16,num_4,1.26673857635,,,2017_Jul_05_1456,60.0017320166,FEMA4ImagesEEG,001,100886,
AFNE01.JPG,AFNE01.JPG,AFNE01.JPG,AFNE01.JPG,AFNE01.JPG,AFNE01.JPG,,,,,,,,,,,,,,,,,2,8,28,8,,,,,,,AFNE04.jpg,AFSA06.jpg,AFSA04.jpg,AFNE20.jpg,AFNE04.jpg,FN,3,num_8,16,num_8,0.933505955269,,,2017_Jul_05_1456,60.0017320166,FEMA4ImagesEEG,001,100886,
AFNE01.JPG,AFNE01.JPG,AFNE01.JPG,AFNE01.JPG,AFNE01.JPG,AFNE01.JPG,,,,,,,,,,,,,,,,,2,9,29,1,,,,,,,AFSA14.jpg,AFNE13.jpg,AFNE15.jpg,AFSA13.jpg,AFNE13.jpg,FN,3,num_6,32,num_8,0.850142632728,,,2017_Jul_05_1456,60.0017320166,FEMA4ImagesEEG,001,100886,
AFNE01.JPG,AFNE01.JPG,AFNE01.JPG,AFNE01.JPG,AFNE01.JPG,AFNE01.JPG,,,,,,,,,,,,,,,,,3,0,30,7,,,,,,,AFSA10.jpg,AFSA19.jpg,AFNE06.jpg,AFNE19.jpg,AFNE06.jpg,FN,3,num_2,32,num_4,0.73343398131,,,2017_Jul_05_1456,60.0017320166,FEMA4ImagesEEG,001,100886,
AFNE01.JPG,AFNE01.JPG,AFNE01.JPG,AFNE01.JPG,AFNE01.JPG,AFNE01.JPG,,,,,,,,,,,,,,,,,3,1,31,3,,,,,,,AFSA02.jpg,AFNE14.jpg,AFSA11.jpg,AFNE01.jpg,AFSA11.jpg,FS,4,num_2,32,num_4,1.2667036159,,,2017_Jul_05_1456,60.0017320166,FEMA4ImagesEEG,001,100886,
AFNE01.JPG,AFNE01.JPG,AFNE01.JPG,AFNE01.JPG,AFNE01.JPG,AFNE01.JPG,,,,,,,,,,,,,,,,,3,2,32,5,,,,,,,AFSA09.jpg,AFSA03.jpg,AFNE10.jpg,AFNE13.jpg,AFSA03.jpg,FS,4,num_6,32,num_4,0.816779342364,,,2017_Jul_05_1456,60.0017320166,FEMA4ImagesEEG,001,100886,
AFNE01.JPG,AFNE01.JPG,AFNE01.JPG,AFNE01.JPG,AFNE01.JPG,AFNE01.JPG,,,,,,,,,,,,,,,,,3,3,33,1,,,,,,,AFSA11.jpg,AFNE20.jpg,AFSA04.jpg,AFNE16.jpg,AFNE16.jpg,FN,3,num_4,16,num_4,0.983508232399,,,2017_Jul_05_1456,60.0017320166,FEMA4ImagesEEG,001,100886,
AFNE01.JPG,AFNE01.JPG,AFNE01.JPG,AFNE01.JPG,AFNE01.JPG,AFNE01.JPG,,,,,,,,,,,,,,,,,3,4,34,6,,,,,,,AFNE13.jpg,AFNE18.jpg,AFSA07.jpg,AFSA20.jpg,AFSA07.jpg,FS,4,num_2,32,num_6,0.733401586651,,,2017_Jul_05_1456,60.0017320166,FEMA4ImagesEEG,001,100886,
AFNE01.JPG,AFNE01.JPG,AFNE01.JPG,AFNE01.JPG,AFNE01.JPG,AFNE01.JPG,,,,,,,,,,,,,,,,,3,5,35,2,,,,,,,AFSA17.jpg,AFNE06.jpg,AFNE03.jpg,AFSA05.jpg,AFSA05.jpg,FS,4,num_4,16,num_4,0.533458870603,,,2017_Jul_05_1456,60.0017320166,FEMA4ImagesEEG,001,100886,
AFNE01.JPG,AFNE01.JPG,AFNE01.JPG,AFNE01.JPG,AFNE01.JPG,AFNE01.JPG,,,,,,,,,,,,,,,,,3,6,36,0,,,,,,,AFNE19.jpg,AFNE06.jpg,AFSA17.jpg,AFSA20.jpg,AFSA20.jpg,FS,4,num_4,32,num_2,1.03343706031,,,2017_Jul_05_1456,60.0017320166,FEMA4ImagesEEG,001,100886,
AFNE01.JPG,AFNE01.JPG,AFNE01.JPG,AFNE01.JPG,AFNE01.JPG,AFNE01.JPG,,,,,,,,,,,,,,,,,3,7,37,4,,,,,,,AFNE09.jpg,AFNE01.jpg,AFSA08.jpg,AFSA12.jpg,AFNE09.jpg,FN,3,num_8,16,num_8,0.550121592125,,,2017_Jul_05_1456,60.0017320166,FEMA4ImagesEEG,001,100886,
AFNE01.JPG,AFNE01.JPG,AFNE01.JPG,AFNE01.JPG,AFNE01.JPG,AFNE01.JPG,,,,,,,,,,,,,,,,,3,8,38,9,,,,,,,AFNE06.jpg,AFSA14.jpg,AFNE12.jpg,AFSA19.jpg,AFNE12.jpg,FN,3,num_2,16,num_2,0.616767988191,,,2017_Jul_05_1456,60.0017320166,FEMA4ImagesEEG,001,100886,
AFNE01.JPG,AFNE01.JPG,AFNE01.JPG,AFNE01.JPG,AFNE01.JPG,AFNE01.JPG,,,,,,,,,,,,,,,,,3,9,39,8,,,,,,,AFNE19.jpg,AFSA18.jpg,AFNE01.jpg,AFSA08.jpg,AFSA08.jpg,FS,4,num_4,32,num_2,1.00011001353,,,2017_Jul_05_1456,60.0017320166,FEMA4ImagesEEG,001,100886,
AFNE01.JPG,AFNE01.JPG,AFNE01.JPG,AFNE01.JPG,AFNE01.JPG,AFNE01.JPG,,,,,,,,,,,,,,,,,4,0,40,9,,,,,,,AFSA09.jpg,AFSA18.jpg,AFNE14.jpg,AFNE18.jpg,AFNE18.jpg,FN,3,num_4,16,num_4,0.48352362786,,,2017_Jul_05_1456,60.0017320166,FEMA4ImagesEEG,001,100886,
AFNE01.JPG,AFNE01.JPG,AFNE01.JPG,AFNE01.JPG,AFNE01.JPG,AFNE01.JPG,,,,,,,,,,,,,,,,,4,1,41,0,,,,,,,AFSA04.jpg,AFSA06.jpg,AFNE04.jpg,AFNE05.jpg,AFSA04.jpg,FS,4,num_8,16,num_8,0.683470513439,,,2017_Jul_05_1456,60.0017320166,FEMA4ImagesEEG,001,100886,
AFNE01.JPG,AFNE01.JPG,AFNE01.JPG,AFNE01.JPG,AFNE01.JPG,AFNE01.JPG,,,,,,,,,,,,,,,,,4,2,42,7,,,,,,,AFSA03.jpg,AFNE19.jpg,AFSA02.jpg,AFNE12.jpg,AFNE19.jpg,FN,3,num_6,32,num_4,0.88347481133,,,2017_Jul_05_1456,60.0017320166,FEMA4ImagesEEG,001,100886,
AFNE01.JPG,AFNE01.JPG,AFNE01.JPG,AFNE01.JPG,AFNE01.JPG,AFNE01.JPG,,,,,,,,,,,,,,,,,4,3,43,3,,,,,,,AFNE15.jpg,AFSA08.jpg,AFSA12.jpg,AFNE16.jpg,AFSA08.jpg,FS,4,num_6,16,num_6,0.950084643089,,,2017_Jul_05_1456,60.0017320166,FEMA4ImagesEEG,001,100886,
AFNE01.JPG,AFNE01.JPG,AFNE01.JPG,AFNE01.JPG,AFNE01.JPG,AFNE01.JPG,,,,,,,,,,,,,,,,,4,4,44,5,,,,,,,AFSA08.jpg,AFNE12.jpg,AFSA01.jpg,AFNE01.jpg,AFSA08.jpg,FS,4,num_8,16,num_8,1.66672728641,,,2017_Jul_05_1456,60.0017320166,FEMA4ImagesEEG,001,100886,
AFNE01.JPG,AFNE01.JPG,AFNE01.JPG,AFNE01.JPG,AFNE01.JPG,AFNE01.JPG,,,,,,,,,,,,,,,,,4,5,45,4,,,,,,,AFNE01.jpg,AFSA11.jpg,AFNE17.jpg,AFSA09.jpg,AFSA11.jpg,FS,4,num_6,32,num_4,0.999948040349,,,2017_Jul_05_1456,60.0017320166,FEMA4ImagesEEG,001,100886,
AFNE01.JPG,AFNE01.JPG,AFNE01.JPG,AFNE01.JPG,AFNE01.JPG,AFNE01.JPG,,,,,,,,,,,,,,,,,4,6,46,6,,,,,,,AFSA07.jpg,AFNE07.jpg,AFSA13.jpg,AFNE14.jpg,AFSA13.jpg,FS,4,num_2,16,num_2,0.60013092577,,,2017_Jul_05_1456,60.0017320166,FEMA4ImagesEEG,001,100886,
AFNE01.JPG,AFNE01.JPG,AFNE01.JPG,AFNE01.JPG,AFNE01.JPG,AFNE01.JPG,,,,,,,,,,,,,,,,,4,7,47,1,,,,,,,AFNE13.jpg,AFSA18.jpg,AFNE20.jpg,AFSA12.jpg,AFNE13.jpg,FN,3,num_8,32,num_2,1.14998085191,,,2017_Jul_05_1456,60.0017320166,FEMA4ImagesEEG,001,100886,
AFNE01.JPG,AFNE01.JPG,AFNE01.JPG,AFNE01.JPG,AFNE01.JPG,AFNE01.JPG,,,,,,,,,,,,,,,,,4,8,48,8,,,,,,,AFSA10.jpg,AFNE18.jpg,AFSA14.jpg,AFNE14.jpg,AFNE18.jpg,FN,3,num_6,16,num_6,0.650335910148,,,2017_Jul_05_1456,60.0017320166,FEMA4ImagesEEG,001,100886,
AFNE01.JPG,AFNE01.JPG,AFNE01.JPG,AFNE01.JPG,AFNE01.JPG,AFNE01.JPG,,,,,,,,,,,,,,,,,4,9,49,2,,,,,,,AFSA04.jpg,AFSA15.jpg,AFNE07.jpg,AFNE04.jpg,AFNE04.jpg,FN,3,num_4,16,num_4,0.816813982208,,,2017_Jul_05_1456,60.0017320166,FEMA4ImagesEEG,001,100886,
AFNE01.JPG,AFNE01.JPG,AFNE01.JPG,AFNE01.JPG,AFNE01.JPG,AFNE01.JPG,,,,,,,,,,,,,,,,,5,0,50,5,,,,,,,AFNE07.jpg,AFNE08.jpg,AFSA06.jpg,AFSA13.jpg,AFNE07.jpg,FN,3,num_8,16,num_8,0.833451044629,,,2017_Jul_05_1456,60.0017320166,FEMA4ImagesEEG,001,100886,
AFNE01.JPG,AFNE01.JPG,AFNE01.JPG,AFNE01.JPG,AFNE01.JPG,AFNE01.JPG,,,,,,,,,,,,,,,,,5,1,51,2,,,,,,,AFSA13.jpg,AFNE14.jpg,AFSA05.jpg,AFNE16.jpg,AFSA13.jpg,FS,4,num_8,32,num_2,0.883432473755,,,2017_Jul_05_1456,60.0017320166,FEMA4ImagesEEG,001,100886,
AFNE01.JPG,AFNE01.JPG,AFNE01.JPG,AFNE01.JPG,AFNE01.JPG,AFNE01.JPG,,,,,,,,,,,,,,,,,5,2,52,3,,,,,,,AFSA12.jpg,AFNE11.jpg,AFSA16.jpg,AFNE20.jpg,AFSA12.jpg,FS,4,num_8,32,num_4,0.783481162041,,,2017_Jul_05_1456,60.0017320166,FEMA4ImagesEEG,001,100886,
AFNE01.JPG,AFNE01.JPG,AFNE01.JPG,AFNE01.JPG,AFNE01.JPG,AFNE01.JPG,,,,,,,,,,,,,,,,,5,3,53,8,,,,,,,AFNE14.jpg,AFSA09.jpg,AFNE06.jpg,AFSA19.jpg,AFNE06.jpg,FN,3,num_2,16,num_2,1.25013904041,,,2017_Jul_05_1456,60.0017320166,FEMA4ImagesEEG,001,100886,
AFNE01.JPG,AFNE01.JPG,AFNE01.JPG,AFNE01.JPG,AFNE01.JPG,AFNE01.JPG,,,,,,,,,,,,,,,,,5,4,54,1,,,,,,,AFNE08.jpg,AFSA03.jpg,AFSA07.jpg,AFNE05.jpg,AFSA03.jpg,FS,4,num_6,32,num_2,0.933470673859,,,2017_Jul_05_1456,60.0017320166,FEMA4ImagesEEG,001,100886,
AFNE01.JPG,AFNE01.JPG,AFNE01.JPG,AFNE01.JPG,AFNE01.JPG,AFNE01.JPG,,,,,,,,,,,,,,,,,5,5,55,9,,,,,,,AFNE05.jpg,AFNE11.jpg,AFSA18.jpg,AFSA16.jpg,AFNE11.jpg,FN,3,num_6,16,num_6,1.38337441999,,,2017_Jul_05_1456,60.0017320166,FEMA4ImagesEEG,001,100886,
AFNE01.JPG,AFNE01.JPG,AFNE01.JPG,AFNE01.JPG,AFNE01.JPG,AFNE01.JPG,,,,,,,,,,,,,,,,,5,6,56,6,,,,,,,AFSA05.jpg,AFNE04.jpg,AFSA17.jpg,AFNE11.jpg,AFNE11.jpg,FN,3,num_4,16,num_4,0.66684595996,,,2017_Jul_05_1456,60.0017320166,FEMA4ImagesEEG,001,100886,
AFNE01.JPG,AFNE01.JPG,AFNE01.JPG,AFNE01.JPG,AFNE01.JPG,AFNE01.JPG,,,,,,,,,,,,,,,,,5,7,57,4,,,,,,,AFNE10.jpg,AFSA18.jpg,AFSA04.jpg,AFNE20.jpg,AFNE20.jpg,FN,3,num_4,32,num_2,1.61665957829,,,2017_Jul_05_1456,60.0017320166,FEMA4ImagesEEG,001,100886,
AFNE01.JPG,AFNE01.JPG,AFNE01.JPG,AFNE01.JPG,AFNE01.JPG,AFNE01.JPG,,,,,,,,,,,,,,,,,5,8,58,0,,,,,,,AFSA16.jpg,AFNE16.jpg,AFNE17.jpg,AFSA05.jpg,AFNE16.jpg,FN,3,num_6,32,num_4,1.01675541524,,,2017_Jul_05_1456,60.0017320166,FEMA4ImagesEEG,001,100886,
AFNE01.JPG,AFNE01.JPG,AFNE01.JPG,AFNE01.JPG,AFNE01.JPG,AFNE01.JPG,,,,,,,,,,,,,,,,,5,9,59,7,,,,,,,AFSA04.jpg,AFSA02.jpg,AFNE13.jpg,AFNE06.jpg,AFSA02.jpg,FS,4,num_6,16,num_6,1.16673530487,,,2017_Jul_05_1456,60.0017320166,FEMA4ImagesEEG,001,100886,
,,,,,,,,,,,,,,,,,,,,,,,,,,,,,,,,,,,,,,,,,,,space,1.68332297343,2017_Jul_05_1456,60.0017320166,FEMA4ImagesEEG,001,100886,
AFNE01.JPG,AFNE01.JPG,AFNE01.JPG,AFNE01.JPG,AFNE01.JPG,AFNE01.JPG,,,,,,,,,,,,,,,,,,,,,0,0,0,5,,,AMSA12.jpg,AMNE02.jpg,AMNE14.jpg,AMSA13.jpg,AMNE02.jpg,MN,1,num_6,16,num_6,1.03342423076,,,2017_Jul_05_1456,60.0017320166,FEMA4ImagesEEG,001,100886,
AFNE01.JPG,AFNE01.JPG,AFNE01.JPG,AFNE01.JPG,AFNE01.JPG,AFNE01.JPG,,,,,,,,,,,,,,,,,,,,,0,1,1,3,,,AMSA16.jpg,AMNE17.jpg,AMSA04.jpg,AMNE13.jpg,AMNE13.jpg,MN,1,num_4,32,num_6,1.28341765562,,,2017_Jul_05_1456,60.0017320166,FEMA4ImagesEEG,001,100886,
AFNE01.JPG,AFNE01.JPG,AFNE01.JPG,AFNE01.JPG,AFNE01.JPG,AFNE01.JPG,,,,,,,,,,,,,,,,,,,,,0,2,2,0,,,AMSA08.jpg,AMNE03.jpg,AMNE04.jpg,AMSA20.jpg,AMSA20.jpg,MS,2,num_4,16,num_4,0.933418393368,,,2017_Jul_05_1456,60.0017320166,FEMA4ImagesEEG,001,100886,
AFNE01.JPG,AFNE01.JPG,AFNE01.JPG,AFNE01.JPG,AFNE01.JPG,AFNE01.JPG,,,,,,,,,,,,,,,,,,,,,0,3,3,9,,,AMSA20.jpg,AMNE01.jpg,AMNE03.jpg,AMSA14.jpg,AMSA14.jpg,MS,2,num_4,16,num_4,0.800197126344,,,2017_Jul_05_1456,60.0017320166,FEMA4ImagesEEG,001,100886,
AFNE01.JPG,AFNE01.JPG,AFNE01.JPG,AFNE01.JPG,AFNE01.JPG,AFNE01.JPG,,,,,,,,,,,,,,,,,,,,,0,4,4,2,,,AMSA12.jpg,AMNE06.jpg,AMSA01.jpg,AMNE03.jpg,AMSA12.jpg,MS,2,num_8,32,num_6,0.933264438529,,,2017_Jul_05_1456,60.0017320166,FEMA4ImagesEEG,001,100886,
AFNE01.JPG,AFNE01.JPG,AFNE01.JPG,AFNE01.JPG,AFNE01.JPG,AFNE01.JPG,,,,,,,,,,,,,,,,,,,,,0,5,5,4,,,AMSA15.jpg,AMNE20.jpg,AMSA02.jpg,AMNE08.jpg,AMSA15.jpg,MS,2,num_8,16,num_8,0.86677135597,,,2017_Jul_05_1456,60.0017320166,FEMA4ImagesEEG,001,100886,
AFNE01.JPG,AFNE01.JPG,AFNE01.JPG,AFNE01.JPG,AFNE01.JPG,AFNE01.JPG,,,,,,,,,,,,,,,,,,,,,0,6,6,1,,,AMSA08.jpg,AMNE14.jpg,AMSA13.jpg,AMNE16.jpg,AMNE16.jpg,MN,1,num_4,16,num_4,0.850193309481,,,2017_Jul_05_1456,60.0017320166,FEMA4ImagesEEG,001,100886,
AFNE01.JPG,AFNE01.JPG,AFNE01.JPG,AFNE01.JPG,AFNE01.JPG,AFNE01.JPG,,,,,,,,,,,,,,,,,,,,,0,7,7,6,,,AMNE10.jpg,AMNE18.jpg,AMSA05.jpg,AMSA17.jpg,AMNE18.jpg,MN,1,num_6,32,num_2,0.883453001152,,,2017_Jul_05_1456,60.0017320166,FEMA4ImagesEEG,001,100886,
AFNE01.JPG,AFNE01.JPG,AFNE01.JPG,AFNE01.JPG,AFNE01.JPG,AFNE01.JPG,,,,,,,,,,,,,,,,,,,,,0,8,8,7,,,AMNE15.jpg,AMSA12.jpg,AMNE14.jpg,AMSA15.jpg,AMSA15.jpg,MS,2,num_4,32,num_6,0.766770650283,,,2017_Jul_05_1456,60.0017320166,FEMA4ImagesEEG,001,100886,
AFNE01.JPG,AFNE01.JPG,AFNE01.JPG,AFNE01.JPG,AFNE01.JPG,AFNE01.JPG,,,,,,,,,,,,,,,,,,,,,0,9,9,8,,,AMNE12.jpg,AMNE20.jpg,AMSA17.jpg,AMSA05.jpg,AMNE20.jpg,MN,1,num_6,16,num_6,0.816760418704,,,2017_Jul_05_1456,60.0017320166,FEMA4ImagesEEG,001,100886,
AFNE01.JPG,AFNE01.JPG,AFNE01.JPG,AFNE01.JPG,AFNE01.JPG,AFNE01.JPG,,,,,,,,,,,,,,,,,,,,,1,0,10,3,,,AMNE16.jpg,AMNE20.jpg,AMSA08.jpg,AMSA17.jpg,AMSA08.jpg,MS,2,num_2,32,num_8,1.30011213047,,,2017_Jul_05_1456,60.0017320166,FEMA4ImagesEEG,001,100886,
AFNE01.JPG,AFNE01.JPG,AFNE01.JPG,AFNE01.JPG,AFNE01.JPG,AFNE01.JPG,,,,,,,,,,,,,,,,,,,,,1,1,11,4,,,AMNE15.jpg,AMSA11.jpg,AMNE14.jpg,AMSA10.jpg,AMSA10.jpg,MS,2,num_4,16,num_4,1.23350518546,,,2017_Jul_05_1456,60.0017320166,FEMA4ImagesEEG,001,100886,
AFNE01.JPG,AFNE01.JPG,AFNE01.JPG,AFNE01.JPG,AFNE01.JPG,AFNE01.JPG,,,,,,,,,,,,,,,,,,,,,1,2,12,7,,,AMSA02.jpg,AMNE13.jpg,AMSA20.jpg,AMNE02.jpg,AMNE13.jpg,MN,1,num_6,16,num_6,0.800481621991,,,2017_Jul_05_1456,60.0017320166,FEMA4ImagesEEG,001,100886,
AFNE01.JPG,AFNE01.JPG,AFNE01.JPG,AFNE01.JPG,AFNE01.JPG,AFNE01.JPG,,,,,,,,,,,,,,,,,,,,,1,3,13,8,,,AMSA17.jpg,AMSA19.jpg,AMNE16.jpg,AMNE02.jpg,AMSA17.jpg,MS,2,num_8,32,num_6,0.750185868354,,,2017_Jul_05_1456,60.0017320166,FEMA4ImagesEEG,001,100886,
AFNE01.JPG,AFNE01.JPG,AFNE01.JPG,AFNE01.JPG,AFNE01.JPG,AFNE01.JPG,,,,,,,,,,,,,,,,,,,,,1,4,14,5,,,AMNE05.jpg,AMSA05.jpg,AMSA11.jpg,AMNE14.jpg,AMNE14.jpg,MN,1,num_4,16,num_4,0.883537997026,,,2017_Jul_05_1456,60.0017320166,FEMA4ImagesEEG,001,100886,
AFNE01.JPG,AFNE01.JPG,AFNE01.JPG,AFNE01.JPG,AFNE01.JPG,AFNE01.JPG,,,,,,,,,,,,,,,,,,,,,1,5,15,1,,,AMSA14.jpg,AMNE04.jpg,AMSA04.jpg,AMNE13.jpg,AMNE13.jpg,MN,1,num_4,32,num_6,1.06675512658,,,2017_Jul_05_1456,60.0017320166,FEMA4ImagesEEG,001,100886,
AFNE01.JPG,AFNE01.JPG,AFNE01.JPG,AFNE01.JPG,AFNE01.JPG,AFNE01.JPG,,,,,,,,,,,,,,,,,,,,,1,6,16,9,,,AMNE17.jpg,AMSA11.jpg,AMSA12.jpg,AMNE05.jpg,AMNE05.jpg,MN,1,num_4,16,num_4,0.833437894238,,,2017_Jul_05_1456,60.0017320166,FEMA4ImagesEEG,001,100886,
AFNE01.JPG,AFNE01.JPG,AFNE01.JPG,AFNE01.JPG,AFNE01.JPG,AFNE01.JPG,,,,,,,,,,,,,,,,,,,,,1,7,17,2,,,AMSA12.jpg,AMNE14.jpg,AMNE04.jpg,AMSA10.jpg,AMNE14.jpg,MN,1,num_6,16,num_6,0.716897630948,,,2017_Jul_05_1456,60.0017320166,FEMA4ImagesEEG,001,100886,
AFNE01.JPG,AFNE01.JPG,AFNE01.JPG,AFNE01.JPG,AFNE01.JPG,AFNE01.JPG,,,,,,,,,,,,,,,,,,,,,1,8,18,0,,,AMSA01.jpg,AMSA06.jpg,AMNE07.jpg,AMNE13.jpg,AMNE13.jpg,MN,1,num_4,32,num_2,1.00013214455,,,2017_Jul_05_1456,60.0017320166,FEMA4ImagesEEG,001,100886,
AFNE01.JPG,AFNE01.JPG,AFNE01.JPG,AFNE01.JPG,AFNE01.JPG,AFNE01.JPG,,,,,,,,,,,,,,,,,,,,,1,9,19,6,,,AMSA03.jpg,AMSA02.jpg,AMNE08.jpg,AMNE11.jpg,AMNE08.jpg,MN,1,num_2,16,num_2,0.533493831172,,,2017_Jul_05_1456,60.0017320166,FEMA4ImagesEEG,001,100886,
AFNE01.JPG,AFNE01.JPG,AFNE01.JPG,AFNE01.JPG,AFNE01.JPG,AFNE01.JPG,,,,,,,,,,,,,,,,,,,,,2,0,20,6,,,AMSA07.jpg,AMSA12.jpg,AMNE19.jpg,AMNE02.jpg,AMNE02.jpg,MN,1,num_4,16,num_4,1.21670807409,,,2017_Jul_05_1456,60.0017320166,FEMA4ImagesEEG,001,100886,
AFNE01.JPG,AFNE01.JPG,AFNE01.JPG,AFNE01.JPG,AFNE01.JPG,AFNE01.JPG,,,,,,,,,,,,,,,,,,,,,2,1,21,2,,,AMNE02.jpg,AMSA06.jpg,AMNE06.jpg,AMSA08.jpg,AMNE06.jpg,MN,1,num_2,16,num_2,0.566751919105,,,2017_Jul_05_1456,60.0017320166,FEMA4ImagesEEG,001,100886,
AFNE01.JPG,AFNE01.JPG,AFNE01.JPG,AFNE01.JPG,AFNE01.JPG,AFNE01.JPG,,,,,,,,,,,,,,,,,,,,,2,2,22,9,,,AMSA16.jpg,AMNE01.jpg,AMSA14.jpg,AMNE15.jpg,AMSA14.jpg,MS,2,num_2,16,num_2,1.03343160788,,,2017_Jul_05_1456,60.0017320166,FEMA4ImagesEEG,001,100886,
AFNE01.JPG,AFNE01.JPG,AFNE01.JPG,AFNE01.JPG,AFNE01.JPG,AFNE01.JPG,,,,,,,,,,,,,,,,,,,,,2,3,23,0,,,AMNE13.jpg,AMSA08.jpg,AMNE01.jpg,AMSA14.jpg,AMNE01.jpg,MN,1,num_2,16,num_2,0.633482027915,,,2017_Jul_05_1456,60.0017320166,FEMA4ImagesEEG,001,100886,
AFNE01.JPG,AFNE01.JPG,AFNE01.JPG,AFNE01.JPG,AFNE01.JPG,AFNE01.JPG,,,,,,,,,,,,,,,,,,,,,2,4,24,8,,,AMSA18.jpg,AMNE11.jpg,AMNE02.jpg,AMSA04.jpg,AMNE02.jpg,MN,1,num_2,16,num_2,1.05038427759,,,2017_Jul_05_1456,60.0017320166,FEMA4ImagesEEG,001,100886,
AFNE01.JPG,AFNE01.JPG,AFNE01.JPG,AFNE01.JPG,AFNE01.JPG,AFNE01.JPG,,,,,,,,,,,,,,,,,,,,,2,5,25,5,,,AMSA03.jpg,AMNE07.jpg,AMNE11.jpg,AMSA19.jpg,AMNE11.jpg,MN,1,num_2,16,num_2,0.616769271088,,,2017_Jul_05_1456,60.0017320166,FEMA4ImagesEEG,001,100886,
AFNE01.JPG,AFNE01.JPG,AFNE01.JPG,AFNE01.JPG,AFNE01.JPG,AFNE01.JPG,,,,,,,,,,,,,,,,,,,,,2,6,26,7,,,AMSA19.jpg,AMNE09.jpg,AMNE11.jpg,AMSA06.jpg,AMSA19.jpg,MS,2,num_8,32,num_2,0.950093944557,,,2017_Jul_05_1456,60.0017320166,FEMA4ImagesEEG,001,100886,
AFNE01.JPG,AFNE01.JPG,AFNE01.JPG,AFNE01.JPG,AFNE01.JPG,AFNE01.JPG,,,,,,,,,,,,,,,,,,,,,2,7,27,3,,,AMSA20.jpg,AMNE11.jpg,AMNE02.jpg,AMSA18.jpg,AMNE11.jpg,MN,1,num_6,16,num_6,0.800098980078,,,2017_Jul_05_1456,60.0017320166,FEMA4ImagesEEG,001,100886,
AFNE01.JPG,AFNE01.JPG,AFNE01.JPG,AFNE01.JPG,AFNE01.JPG,AFNE01.JPG,,,,,,,,,,,,,,,,,,,,,2,8,28,1,,,AMSA03.jpg,AMNE15.jpg,AMSA08.jpg,AMNE02.jpg,AMSA03.jpg,MS,2,num_8,32,num_2,0.816629236448,,,2017_Jul_05_1456,60.0017320166,FEMA4ImagesEEG,001,100886,
AFNE01.JPG,AFNE01.JPG,AFNE01.JPG,AFNE01.JPG,AFNE01.JPG,AFNE01.JPG,,,,,,,,,,,,,,,,,,,,,2,9,29,4,,,AMNE19.jpg,AMSA07.jpg,AMSA20.jpg,AMNE01.jpg,AMSA20.jpg,MS,2,num_2,16,num_2,0.716742072487,,,2017_Jul_05_1456,60.0017320166,FEMA4ImagesEEG,001,100886,
AFNE01.JPG,AFNE01.JPG,AFNE01.JPG,AFNE01.JPG,AFNE01.JPG,AFNE01.JPG,,,,,,,,,,,,,,,,,,,,,3,0,30,6,,,AMSA14.jpg,AMSA12.jpg,AMNE09.jpg,AMNE14.jpg,AMNE14.jpg,MN,1,num_4,16,num_4,0.983436066075,,,2017_Jul_05_1456,60.0017320166,FEMA4ImagesEEG,001,100886,
AFNE01.JPG,AFNE01.JPG,AFNE01.JPG,AFNE01.JPG,AFNE01.JPG,AFNE01.JPG,,,,,,,,,,,,,,,,,,,,,3,1,31,3,,,AMNE09.jpg,AMSA18.jpg,AMSA07.jpg,AMNE14.jpg,AMNE14.jpg,MN,1,num_4,16,num_4,0.750233658473,,,2017_Jul_05_1456,60.0017320166,FEMA4ImagesEEG,001,100886,
AFNE01.JPG,AFNE01.JPG,AFNE01.JPG,AFNE01.JPG,AFNE01.JPG,AFNE01.JPG,,,,,,,,,,,,,,,,,,,,,3,2,32,5,,,AMNE18.jpg,AMSA15.jpg,AMNE10.jpg,AMSA17.jpg,AMNE10.jpg,MN,1,num_2,16,num_2,0.66675326624,,,2017_Jul_05_1456,60.0017320166,FEMA4ImagesEEG,001,100886,
AFNE01.JPG,AFNE01.JPG,AFNE01.JPG,AFNE01.JPG,AFNE01.JPG,AFNE01.JPG,,,,,,,,,,,,,,,,,,,,,3,3,33,9,,,AMSA16.jpg,AMNE16.jpg,AMSA04.jpg,AMNE09.jpg,AMSA16.jpg,MS,2,num_8,16,num_8,0.483507590834,,,2017_Jul_05_1456,60.0017320166,FEMA4ImagesEEG,001,100886,
AFNE01.JPG,AFNE01.JPG,AFNE01.JPG,AFNE01.JPG,AFNE01.JPG,AFNE01.JPG,,,,,,,,,,,,,,,,,,,,,3,4,34,7,,,AMNE06.jpg,AMNE13.jpg,AMSA11.jpg,AMSA02.jpg,AMNE06.jpg,MN,1,num_8,16,num_8,1.21674688358,,,2017_Jul_05_1456,60.0017320166,FEMA4ImagesEEG,001,100886,
AFNE01.JPG,AFNE01.JPG,AFNE01.JPG,AFNE01.JPG,AFNE01.JPG,AFNE01.JPG,,,,,,,,,,,,,,,,,,,,,3,5,35,2,,,AMNE01.jpg,AMNE07.jpg,AMSA05.jpg,AMSA07.jpg,AMSA07.jpg,MS,2,num_4,32,num_6,0.867134432774,,,2017_Jul_05_1456,60.0017320166,FEMA4ImagesEEG,001,100886,
AFNE01.JPG,AFNE01.JPG,AFNE01.JPG,AFNE01.JPG,AFNE01.JPG,AFNE01.JPG,,,,,,,,,,,,,,,,,,,,,3,6,36,1,,,AMNE04.jpg,AMSA06.jpg,AMSA18.jpg,AMNE12.jpg,AMNE12.jpg,MN,1,num_4,16,num_4,0.733517694287,,,2017_Jul_05_1456,60.0017320166,FEMA4ImagesEEG,001,100886,
AFNE01.JPG,AFNE01.JPG,AFNE01.JPG,AFNE01.JPG,AFNE01.JPG,AFNE01.JPG,,,,,,,,,,,,,,,,,,,,,3,7,37,0,,,AMSA01.jpg,AMSA10.jpg,AMNE03.jpg,AMNE02.jpg,AMSA01.jpg,MS,2,num_8,16,num_8,0.666812923737,,,2017_Jul_05_1456,60.0017320166,FEMA4ImagesEEG,001,100886,
AFNE01.JPG,AFNE01.JPG,AFNE01.JPG,AFNE01.JPG,AFNE01.JPG,AFNE01.JPG,,,,,,,,,,,,,,,,,,,,,3,8,38,4,,,AMNE16.jpg,AMNE05.jpg,AMSA19.jpg,AMSA10.jpg,AMSA19.jpg,MS,2,num_2,16,num_2,0.750115305767,,,2017_Jul_05_1456,60.0017320166,FEMA4ImagesEEG,001,100886,
