IPosition2,IPosition3,IPosition1,IPosition6,IPosition4,IPosition5,TrialsM1.thisRepN,TrialsM1.thisTrialN,TrialsM1.thisN,TrialsM1.thisIndex,TrialsF1.thisRepN,TrialsF1.thisTrialN,TrialsF1.thisN,TrialsF1.thisIndex,TrialsM2.thisRepN,TrialsM2.thisTrialN,TrialsM2.thisN,TrialsM2.thisIndex,TrialsF2.thisRepN,TrialsF2.thisTrialN,TrialsF2.thisN,TrialsF2.thisIndex,TrialsM3.thisRepN,TrialsM3.thisTrialN,TrialsM3.thisN,TrialsM3.thisIndex,TrialsF3.thisRepN,TrialsF3.thisTrialN,TrialsF3.thisN,TrialsF3.thisIndex,InstrKey_resp.keys,InstrKey_resp.rt,Image0 _Position,Image1 _Position,Image2 _Position,Image3 _Position,Center_image,condition,code,correct_answer,accuracy,Key_Resp.keys,Key_Resp.rt,BreakKey_resp.keys,BreakKey_resp.rt,date,frameRate,expName,session,participant,
,,,,,,,,,,,,,,,,,,,,,,,,,,,,,,space,14.6660761859,,,,,,,,,,,,,,2017_Jul_12_1557,59.9929574017,MAFE4ImagesEEG,001,200911,
AFSA25.JPG,AFNE24.JPG,AFSA24.JPG,AFNE21.JPG,AFSA21.JPG,AFNE25.JPG,0,0,0,2,,,,,,,,,,,,,,,,,,,,,,,AMNE11.jpg,AMSA16.jpg,AMNE17.jpg,AMSA09.jpg,AMNE17.jpg,MN,1,num_2,32,num_8,1.91668318468,,,2017_Jul_12_1557,59.9929574017,MAFE4ImagesEEG,001,200911,
AMSA25.JPG,AMNE24.JPG,AMSA24.JPG,AMNE26.JPG,AMSA21.JPG,AMNE25.JPG,0,1,1,3,,,,,,,,,,,,,,,,,,,,,,,AMNE12.jpg,AMSA07.jpg,AMNE04.jpg,AMSA13.jpg,AMNE04.jpg,MN,1,num_2,32,num_6,1.25007745856,,,2017_Jul_12_1557,59.9929574017,MAFE4ImagesEEG,001,200911,
AMNE22.JPG,AMSA24.JPG,AMSA22.JPG,AMNE25.JPG,AMNE24.JPG,AMSA25.JPG,0,2,2,7,,,,,,,,,,,,,,,,,,,,,,,AMNE05.jpg,AMSA17.jpg,AMSA02.jpg,AMNE02.jpg,AMNE02.jpg,MN,1,num_4,16,num_4,1.30018012715,,,2017_Jul_12_1557,59.9929574017,MAFE4ImagesEEG,001,200911,
AMNE23.JPG,AMNE24.JPG,AMNE22.JPG,AMSA24.JPG,AMSA22.JPG,AMSA23.JPG,0,3,3,9,,,,,,,,,,,,,,,,,,,,,,,AMNE20.jpg,AMSA05.jpg,AMNE04.jpg,AMSA09.jpg,AMSA09.jpg,MS,2,num_4,32,num_8,1.78335896041,,,2017_Jul_12_1557,59.9929574017,MAFE4ImagesEEG,001,200911,
AMSA21.JPG,AMNE23.JPG,AMNE21.JPG,AMSA25.JPG,AMNE25.JPG,AMSA23.JPG,0,4,4,5,,,,,,,,,,,,,,,,,,,,,,,AMNE01.jpg,AMSA14.jpg,AMSA13.jpg,AMNE17.jpg,AMNE01.jpg,MN,1,num_8,32,num_4,3.14993723133,,,2017_Jul_12_1557,59.9929574017,MAFE4ImagesEEG,001,200911,
AFNE23.JPG,AFNE24.JPG,AFNE22.JPG,AFSA24.JPG,AFSA22.JPG,AFSA23.JPG,0,5,5,8,,,,,,,,,,,,,,,,,,,,,,,AMNE03.jpg,AMSA15.jpg,AMNE15.jpg,AMSA09.jpg,AMSA15.jpg,MS,2,num_6,16,num_6,1.48340270924,,,2017_Jul_12_1557,59.9929574017,MAFE4ImagesEEG,001,200911,
AFSA21.JPG,AFNE23.JPG,AFNE21.JPG,AFSA25.JPG,AFNE25.JPG,AFSA23.JPG,0,6,6,4,,,,,,,,,,,,,,,,,,,,,,,AMSA03.jpg,AMNE11.jpg,AMNE01.jpg,AMSA19.jpg,AMNE01.jpg,MN,1,num_2,16,num_2,1.60006870236,,,2017_Jul_12_1557,59.9929574017,MAFE4ImagesEEG,001,200911,
AFSA21.JPG,AFNE22.JPG,AFNE21.JPG,AFSA23.JPG,AFSA22.JPG,AFNE23.JPG,0,7,7,0,,,,,,,,,,,,,,,,,,,,,,,AMNE19.jpg,AMSA12.jpg,AMSA10.jpg,AMNE17.jpg,AMSA12.jpg,MS,2,num_6,16,num_6,2.41663892264,,,2017_Jul_12_1557,59.9929574017,MAFE4ImagesEEG,001,200911,
AMSA21.JPG,AMNE22.JPG,AMNE21.JPG,AMSA23.JPG,AMSA22.JPG,AMNE23.JPG,0,8,8,1,,,,,,,,,,,,,,,,,,,,,,,AMSA20.jpg,AMNE03.jpg,AMNE02.jpg,AMSA12.jpg,AMSA20.jpg,MS,2,num_8,32,num_4,1.93362302496,,,2017_Jul_12_1557,59.9929574017,MAFE4ImagesEEG,001,200911,
AFNE22.JPG,AFSA24.JPG,AFSA22.JPG,AFNE25.JPG,AFNE24.JPG,AFSA25.JPG,0,9,9,6,,,,,,,,,,,,,,,,,,,,,,,AMNE14.jpg,AMSA17.jpg,AMNE07.jpg,AMSA03.jpg,AMSA17.jpg,MS,2,num_6,32,num_8,3.08327127039,,,2017_Jul_12_1557,59.9929574017,MAFE4ImagesEEG,001,200911,
AFSA21.JPG,AFNE23.JPG,AFNE21.JPG,AFSA25.JPG,AFNE25.JPG,AFSA23.JPG,,,,,0,0,0,4,,,,,,,,,,,,,,,,,,,AFSA09.jpg,AFNE04.jpg,AFSA19.jpg,AFNE01.jpg,AFNE04.jpg,FN,3,num_6,32,num_4,0.900096478406,,,2017_Jul_12_1557,59.9929574017,MAFE4ImagesEEG,001,200911,
AMSA25.JPG,AMNE24.JPG,AMSA24.JPG,AMNE26.JPG,AMSA21.JPG,AMNE25.JPG,,,,,0,1,1,3,,,,,,,,,,,,,,,,,,,AFNE17.jpg,AFNE03.jpg,AFSA15.jpg,AFSA19.jpg,AFNE03.jpg,FN,3,num_6,32,num_8,1.86672388669,,,2017_Jul_12_1557,59.9929574017,MAFE4ImagesEEG,001,200911,
AMNE23.JPG,AMNE24.JPG,AMNE22.JPG,AMSA24.JPG,AMSA22.JPG,AMSA23.JPG,,,,,0,2,2,9,,,,,,,,,,,,,,,,,,,AFSA11.jpg,AFSA15.jpg,AFNE06.jpg,AFNE19.jpg,AFSA11.jpg,FS,4,num_8,16,num_8,2.36662509898,,,2017_Jul_12_1557,59.9929574017,MAFE4ImagesEEG,001,200911,
AFNE22.JPG,AFSA24.JPG,AFSA22.JPG,AFNE25.JPG,AFNE24.JPG,AFSA25.JPG,,,,,0,3,3,6,,,,,,,,,,,,,,,,,,,AFNE16.jpg,AFSA15.jpg,AFNE06.jpg,AFSA11.jpg,AFNE16.jpg,FN,3,num_8,32,num_2,1.73331402475,,,2017_Jul_12_1557,59.9929574017,MAFE4ImagesEEG,001,200911,
AFSA21.JPG,AFNE22.JPG,AFNE21.JPG,AFSA23.JPG,AFSA22.JPG,AFNE23.JPG,,,,,0,4,4,0,,,,,,,,,,,,,,,,,,,AFNE06.jpg,AFSA15.jpg,AFSA06.jpg,AFNE09.jpg,AFNE09.jpg,FN,3,num_4,32,num_8,1.60003534541,,,2017_Jul_12_1557,59.9929574017,MAFE4ImagesEEG,001,200911,
AMSA21.JPG,AMNE22.JPG,AMNE21.JPG,AMSA23.JPG,AMSA22.JPG,AMNE23.JPG,,,,,0,5,5,1,,,,,,,,,,,,,,,,,,,AFSA11.jpg,AFNE03.jpg,AFSA08.jpg,AFNE13.jpg,AFNE13.jpg,FN,3,num_4,16,num_4,2.13341210689,,,2017_Jul_12_1557,59.9929574017,MAFE4ImagesEEG,001,200911,
AFNE23.JPG,AFNE24.JPG,AFNE22.JPG,AFSA24.JPG,AFSA22.JPG,AFSA23.JPG,,,,,0,6,6,8,,,,,,,,,,,,,,,,,,,AFNE13.jpg,AFNE07.jpg,AFSA02.jpg,AFSA15.jpg,AFNE13.jpg,FN,3,num_8,16,num_8,2.00000096229,,,2017_Jul_12_1557,59.9929574017,MAFE4ImagesEEG,001,200911,
AFSA25.JPG,AFNE24.JPG,AFSA24.JPG,AFNE21.JPG,AFSA21.JPG,AFNE25.JPG,,,,,0,7,7,2,,,,,,,,,,,,,,,,,,,AFNE17.jpg,AFSA16.jpg,AFSA10.jpg,AFNE09.jpg,AFNE09.jpg,FN,3,num_4,32,num_8,1.6666647424,,,2017_Jul_12_1557,59.9929574017,MAFE4ImagesEEG,001,200911,
AMSA21.JPG,AMNE23.JPG,AMNE21.JPG,AMSA25.JPG,AMNE25.JPG,AMSA23.JPG,,,,,0,8,8,5,,,,,,,,,,,,,,,,,,,AFNE04.jpg,AFNE15.jpg,AFSA02.jpg,AFSA18.jpg,AFNE04.jpg,FN,3,num_8,32,num_6,1.88335645851,,,2017_Jul_12_1557,59.9929574017,MAFE4ImagesEEG,001,200911,
AMNE22.JPG,AMSA24.JPG,AMSA22.JPG,AMNE25.JPG,AMNE24.JPG,AMSA25.JPG,,,,,0,9,9,7,,,,,,,,,,,,,,,,,,,AFSA07.jpg,AFSA08.jpg,AFNE11.jpg,AFNE07.jpg,AFNE11.jpg,FN,3,num_2,32,num_8,1.15011139261,,,2017_Jul_12_1557,59.9929574017,MAFE4ImagesEEG,001,200911,
AFNE22.JPG,AFSA24.JPG,AFSA22.JPG,AFNE25.JPG,AFNE24.JPG,AFSA25.JPG,,,,,,,,,0,0,0,6,,,,,,,,,,,,,,,AMNE03.jpg,AMNE12.jpg,AMSA05.jpg,AMSA15.jpg,AMSA15.jpg,MS,2,num_4,32,num_2,2.39995310805,,,2017_Jul_12_1557,59.9929574017,MAFE4ImagesEEG,001,200911,
AFNE23.JPG,AFNE24.JPG,AFNE22.JPG,AFSA24.JPG,AFSA22.JPG,AFSA23.JPG,,,,,,,,,0,1,1,8,,,,,,,,,,,,,,,AMNE10.jpg,AMSA05.jpg,AMNE12.jpg,AMSA02.jpg,AMSA02.jpg,MS,2,num_4,16,num_4,0.983504383592,,,2017_Jul_12_1557,59.9929574017,MAFE4ImagesEEG,001,200911,
AMNE23.JPG,AMNE24.JPG,AMNE22.JPG,AMSA24.JPG,AMSA22.JPG,AMSA23.JPG,,,,,,,,,0,2,2,9,,,,,,,,,,,,,,,AMSA12.jpg,AMNE14.jpg,AMSA06.jpg,AMNE12.jpg,AMSA12.jpg,MS,2,num_8,32,num_2,1.91667901515,,,2017_Jul_12_1557,59.9929574017,MAFE4ImagesEEG,001,200911,
AMSA21.JPG,AMNE22.JPG,AMNE21.JPG,AMSA23.JPG,AMSA22.JPG,AMNE23.JPG,,,,,,,,,0,3,3,1,,,,,,,,,,,,,,,AMNE04.jpg,AMSA03.jpg,AMNE13.jpg,AMSA02.jpg,AMSA03.jpg,MS,2,num_6,16,num_6,1.16679592454,,,2017_Jul_12_1557,59.9929574017,MAFE4ImagesEEG,001,200911,
AMNE22.JPG,AMSA24.JPG,AMSA22.JPG,AMNE25.JPG,AMNE24.JPG,AMSA25.JPG,,,,,,,,,0,4,4,7,,,,,,,,,,,,,,,AMSA04.jpg,AMNE13.jpg,AMSA18.jpg,AMNE08.jpg,AMSA18.jpg,MS,2,num_2,16,num_2,1.53340819385,,,2017_Jul_12_1557,59.9929574017,MAFE4ImagesEEG,001,200911,
AMSA21.JPG,AMNE23.JPG,AMNE21.JPG,AMSA25.JPG,AMNE25.JPG,AMSA23.JPG,,,,,,,,,0,5,5,5,,,,,,,,,,,,,,,AMSA18.jpg,AMNE07.jpg,AMNE10.jpg,AMSA06.jpg,AMSA18.jpg,MS,2,num_8,16,num_8,0.683520228136,,,2017_Jul_12_1557,59.9929574017,MAFE4ImagesEEG,001,200911,
AFSA25.JPG,AFNE24.JPG,AFSA24.JPG,AFNE21.JPG,AFSA21.JPG,AFNE25.JPG,,,,,,,,,0,6,6,2,,,,,,,,,,,,,,,AMSA18.jpg,AMSA16.jpg,AMNE13.jpg,AMNE11.jpg,AMSA18.jpg,MS,2,num_8,16,num_8,0.93339016824,,,2017_Jul_12_1557,59.9929574017,MAFE4ImagesEEG,001,200911,
AFSA21.JPG,AFNE22.JPG,AFNE21.JPG,AFSA23.JPG,AFSA22.JPG,AFNE23.JPG,,,,,,,,,0,7,7,0,,,,,,,,,,,,,,,AMNE09.jpg,AMSA04.jpg,AMSA20.jpg,AMNE03.jpg,AMSA04.jpg,MS,2,num_6,32,num_2,1.51672719023,,,2017_Jul_12_1557,59.9929574017,MAFE4ImagesEEG,001,200911,
AFSA21.JPG,AFNE23.JPG,AFNE21.JPG,AFSA25.JPG,AFNE25.JPG,AFSA23.JPG,,,,,,,,,0,8,8,4,,,,,,,,,,,,,,,AMSA18.jpg,AMNE19.jpg,AMSA12.jpg,AMNE11.jpg,AMSA18.jpg,MS,2,num_8,16,num_8,0.833491778467,,,2017_Jul_12_1557,59.9929574017,MAFE4ImagesEEG,001,200911,
AMSA25.JPG,AMNE24.JPG,AMSA24.JPG,AMNE26.JPG,AMSA21.JPG,AMNE25.JPG,,,,,,,,,0,9,9,3,,,,,,,,,,,,,,,AMNE05.jpg,AMSA03.jpg,AMNE03.jpg,AMSA09.jpg,AMSA09.jpg,MS,2,num_4,32,num_8,1.56666980986,,,2017_Jul_12_1557,59.9929574017,MAFE4ImagesEEG,001,200911,
AFSA25.JPG,AFNE24.JPG,AFSA24.JPG,AFNE21.JPG,AFSA21.JPG,AFNE25.JPG,,,,,,,,,,,,,0,0,0,2,,,,,,,,,,,AFSA03.jpg,AFSA20.jpg,AFNE19.jpg,AFNE18.jpg,AFSA03.jpg,FS,4,num_8,16,num_8,1.75000946177,,,2017_Jul_12_1557,59.9929574017,MAFE4ImagesEEG,001,200911,
AMNE23.JPG,AMNE24.JPG,AMNE22.JPG,AMSA24.JPG,AMSA22.JPG,AMSA23.JPG,,,,,,,,,,,,,0,1,1,9,,,,,,,,,,,AFSA01.jpg,AFNE11.jpg,AFSA09.jpg,AFNE17.jpg,AFSA01.jpg,FS,4,num_8,32,num_4,2.10002989299,,,2017_Jul_12_1557,59.9929574017,MAFE4ImagesEEG,001,200911,
AFNE22.JPG,AFSA24.JPG,AFSA22.JPG,AFNE25.JPG,AFNE24.JPG,AFSA25.JPG,,,,,,,,,,,,,0,2,2,6,,,,,,,,,,,AFSA04.jpg,AFNE08.jpg,AFSA12.jpg,AFNE03.jpg,AFSA12.jpg,FS,4,num_2,16,num_2,1.216724111,,,2017_Jul_12_1557,59.9929574017,MAFE4ImagesEEG,001,200911,
AMSA21.JPG,AMNE22.JPG,AMNE21.JPG,AMSA23.JPG,AMSA22.JPG,AMNE23.JPG,,,,,,,,,,,,,0,3,3,1,,,,,,,,,,,AFNE06.jpg,AFNE04.jpg,AFSA14.jpg,AFSA06.jpg,AFNE06.jpg,FN,3,num_8,16,num_8,1.23345033894,,,2017_Jul_12_1557,59.9929574017,MAFE4ImagesEEG,001,200911,
AFNE23.JPG,AFNE24.JPG,AFNE22.JPG,AFSA24.JPG,AFSA22.JPG,AFSA23.JPG,,,,,,,,,,,,,0,4,4,8,,,,,,,,,,,AFNE07.jpg,AFSA17.jpg,AFNE01.jpg,AFSA01.jpg,AFSA17.jpg,FS,4,num_6,32,num_4,1.96670470643,,,2017_Jul_12_1557,59.9929574017,MAFE4ImagesEEG,001,200911,
AFSA21.JPG,AFNE23.JPG,AFNE21.JPG,AFSA25.JPG,AFNE25.JPG,AFSA23.JPG,,,,,,,,,,,,,0,5,5,4,,,,,,,,,,,AFNE19.jpg,AFSA10.jpg,AFSA05.jpg,AFNE12.jpg,AFSA05.jpg,FS,4,num_2,16,num_2,0.80022438895,,,2017_Jul_12_1557,59.9929574017,MAFE4ImagesEEG,001,200911,
AMSA21.JPG,AMNE23.JPG,AMNE21.JPG,AMSA25.JPG,AMNE25.JPG,AMSA23.JPG,,,,,,,,,,,,,0,6,6,5,,,,,,,,,,,AFSA14.jpg,AFNE19.jpg,AFNE08.jpg,AFSA01.jpg,AFNE19.jpg,FN,3,num_6,32,num_4,2.15003537759,,,2017_Jul_12_1557,59.9929574017,MAFE4ImagesEEG,001,200911,
AMNE22.JPG,AMSA24.JPG,AMSA22.JPG,AMNE25.JPG,AMNE24.JPG,AMSA25.JPG,,,,,,,,,,,,,0,7,7,7,,,,,,,,,,,AFSA17.jpg,AFNE09.jpg,AFSA07.jpg,AFNE17.jpg,AFNE09.jpg,FN,3,num_6,16,num_6,2.01677658386,,,2017_Jul_12_1557,59.9929574017,MAFE4ImagesEEG,001,200911,
AFSA21.JPG,AFNE22.JPG,AFNE21.JPG,AFSA23.JPG,AFSA22.JPG,AFNE23.JPG,,,,,,,,,,,,,0,8,8,0,,,,,,,,,,,AFSA02.jpg,AFNE01.jpg,AFSA12.jpg,AFNE03.jpg,AFSA02.jpg,FS,4,num_8,32,num_6,1.63340601278,,,2017_Jul_12_1557,59.9929574017,MAFE4ImagesEEG,001,200911,
AMSA25.JPG,AMNE24.JPG,AMSA24.JPG,AMNE26.JPG,AMSA21.JPG,AMNE25.JPG,,,,,,,,,,,,,0,9,9,3,,,,,,,,,,,AFNE16.jpg,AFNE17.jpg,AFSA16.jpg,AFSA20.jpg,AFNE17.jpg,FN,3,num_6,32,num_4,1.83337053913,,,2017_Jul_12_1557,59.9929574017,MAFE4ImagesEEG,001,200911,
AMNE23.JPG,AMNE24.JPG,AMNE22.JPG,AMSA24.JPG,AMSA22.JPG,AMSA23.JPG,,,,,,,,,,,,,,,,,0,0,0,9,,,,,,,AMSA01.jpg,AMSA12.jpg,AMNE02.jpg,AMNE03.jpg,AMNE02.jpg,MN,1,num_2,16,num_2,2.96658218396,,,2017_Jul_12_1557,59.9929574017,MAFE4ImagesEEG,001,200911,
AFNE23.JPG,AFNE24.JPG,AFNE22.JPG,AFSA24.JPG,AFSA22.JPG,AFSA23.JPG,,,,,,,,,,,,,,,,,0,1,1,8,,,,,,,AMSA04.jpg,AMSA03.jpg,AMNE03.jpg,AMNE12.jpg,AMSA04.jpg,MS,2,num_8,32,num_4,1.20007999241,,,2017_Jul_12_1557,59.9929574017,MAFE4ImagesEEG,001,200911,
AFNE22.JPG,AFSA24.JPG,AFSA22.JPG,AFNE25.JPG,AFNE24.JPG,AFSA25.JPG,,,,,,,,,,,,,,,,,0,2,2,6,,,,,,,AMSA10.jpg,AMNE07.jpg,AMNE06.jpg,AMSA02.jpg,AMSA02.jpg,MS,2,num_4,16,num_4,0.883438567864,,,2017_Jul_12_1557,59.9929574017,MAFE4ImagesEEG,001,200911,
AFSA21.JPG,AFNE23.JPG,AFNE21.JPG,AFSA25.JPG,AFNE25.JPG,AFSA23.JPG,,,,,,,,,,,,,,,,,0,3,3,4,,,,,,,AMSA20.jpg,AMSA13.jpg,AMNE02.jpg,AMNE07.jpg,AMSA13.jpg,MS,2,num_6,16,num_6,1.73340319027,,,2017_Jul_12_1557,59.9929574017,MAFE4ImagesEEG,001,200911,
AMSA21.JPG,AMNE22.JPG,AMNE21.JPG,AMSA23.JPG,AMSA22.JPG,AMNE23.JPG,,,,,,,,,,,,,,,,,0,4,4,1,,,,,,,AMNE01.jpg,AMSA09.jpg,AMNE10.jpg,AMSA04.jpg,AMSA09.jpg,MS,2,num_6,32,num_8,1.31647688546,,,2017_Jul_12_1557,59.9929574017,MAFE4ImagesEEG,001,200911,
AFSA21.JPG,AFNE22.JPG,AFNE21.JPG,AFSA23.JPG,AFSA22.JPG,AFNE23.JPG,,,,,,,,,,,,,,,,,0,5,5,0,,,,,,,AMSA04.jpg,AMNE17.jpg,AMNE18.jpg,AMSA13.jpg,AMNE17.jpg,MN,1,num_6,16,num_6,1.31675689039,,,2017_Jul_12_1557,59.9929574017,MAFE4ImagesEEG,001,200911,
AMNE22.JPG,AMSA24.JPG,AMSA22.JPG,AMNE25.JPG,AMNE24.JPG,AMSA25.JPG,,,,,,,,,,,,,,,,,0,6,6,7,,,,,,,AMSA14.jpg,AMSA17.jpg,AMNE14.jpg,AMNE10.jpg,AMNE14.jpg,MN,1,num_2,32,num_6,1.00011161738,,,2017_Jul_12_1557,59.9929574017,MAFE4ImagesEEG,001,200911,
AMSA25.JPG,AMNE24.JPG,AMSA24.JPG,AMNE26.JPG,AMSA21.JPG,AMNE25.JPG,,,,,,,,,,,,,,,,,0,7,7,3,,,,,,,AMSA19.jpg,AMNE13.jpg,AMNE11.jpg,AMSA16.jpg,AMNE11.jpg,MN,1,num_2,32,num_4,1.28373005567,,,2017_Jul_12_1557,59.9929574017,MAFE4ImagesEEG,001,200911,
AFSA25.JPG,AFNE24.JPG,AFSA24.JPG,AFNE21.JPG,AFSA21.JPG,AFNE25.JPG,,,,,,,,,,,,,,,,,0,8,8,2,,,,,,,AMSA07.jpg,AMNE17.jpg,AMNE11.jpg,AMSA17.jpg,AMNE17.jpg,MN,1,num_6,32,num_4,1.18346121209,,,2017_Jul_12_1557,59.9929574017,MAFE4ImagesEEG,001,200911,
AMSA21.JPG,AMNE23.JPG,AMNE21.JPG,AMSA25.JPG,AMNE25.JPG,AMSA23.JPG,,,,,,,,,,,,,,,,,0,9,9,5,,,,,,,AMNE04.jpg,AMSA11.jpg,AMSA04.jpg,AMNE15.jpg,AMSA04.jpg,MS,2,num_2,32,num_6,1.03344507888,,,2017_Jul_12_1557,59.9929574017,MAFE4ImagesEEG,001,200911,
AMNE22.JPG,AMSA24.JPG,AMSA22.JPG,AMNE25.JPG,AMNE24.JPG,AMSA25.JPG,,,,,,,,,,,,,,,,,,,,,0,0,0,7,,,AFNE17.jpg,AFSA14.jpg,AFNE05.jpg,AFSA01.jpg,AFNE05.jpg,FN,3,num_2,32,num_8,0.933471956989,,,2017_Jul_12_1557,59.9929574017,MAFE4ImagesEEG,001,200911,
AFSA21.JPG,AFNE23.JPG,AFNE21.JPG,AFSA25.JPG,AFNE25.JPG,AFSA23.JPG,,,,,,,,,,,,,,,,,,,,,0,1,1,4,,,AFNE15.jpg,AFNE05.jpg,AFSA14.jpg,AFSA03.jpg,AFNE15.jpg,FN,3,num_8,16,num_8,0.783480520593,,,2017_Jul_12_1557,59.9929574017,MAFE4ImagesEEG,001,200911,
AMNE23.JPG,AMNE24.JPG,AMNE22.JPG,AMSA24.JPG,AMSA22.JPG,AMSA23.JPG,,,,,,,,,,,,,,,,,,,,,0,2,2,9,,,AFNE04.jpg,AFSA05.jpg,AFSA10.jpg,AFNE13.jpg,AFSA05.jpg,FS,4,num_6,32,num_4,2.15007643215,,,2017_Jul_12_1557,59.9929574017,MAFE4ImagesEEG,001,200911,
AFSA21.JPG,AFNE22.JPG,AFNE21.JPG,AFSA23.JPG,AFSA22.JPG,AFNE23.JPG,,,,,,,,,,,,,,,,,,,,,0,3,3,0,,,AFSA01.jpg,AFNE18.jpg,AFNE06.jpg,AFSA05.jpg,AFNE18.jpg,FN,3,num_6,32,num_8,1.26660033781,,,2017_Jul_12_1557,59.9929574017,MAFE4ImagesEEG,001,200911,
AMSA21.JPG,AMNE23.JPG,AMNE21.JPG,AMSA25.JPG,AMNE25.JPG,AMSA23.JPG,,,,,,,,,,,,,,,,,,,,,0,4,4,5,,,AFSA19.jpg,AFNE19.jpg,AFSA04.jpg,AFNE07.jpg,AFSA04.jpg,FS,4,num_2,32,num_8,1.61668555811,,,2017_Jul_12_1557,59.9929574017,MAFE4ImagesEEG,001,200911,
AFSA25.JPG,AFNE24.JPG,AFSA24.JPG,AFNE21.JPG,AFSA21.JPG,AFNE25.JPG,,,,,,,,,,,,,,,,,,,,,0,5,5,2,,,AFNE12.jpg,AFNE15.jpg,AFSA02.jpg,AFSA06.jpg,AFNE15.jpg,FN,3,num_6,16,num_6,0.549908300629,,,2017_Jul_12_1557,59.9929574017,MAFE4ImagesEEG,001,200911,
AFNE23.JPG,AFNE24.JPG,AFNE22.JPG,AFSA24.JPG,AFSA22.JPG,AFSA23.JPG,,,,,,,,,,,,,,,,,,,,,0,6,6,8,,,AFNE04.jpg,AFSA07.jpg,AFSA16.jpg,AFNE10.jpg,AFSA07.jpg,FS,4,num_6,32,num_8,1.99999711337,,,2017_Jul_12_1557,59.9929574017,MAFE4ImagesEEG,001,200911,
AMSA21.JPG,AMNE22.JPG,AMNE21.JPG,AMSA23.JPG,AMSA22.JPG,AMNE23.JPG,,,,,,,,,,,,,,,,,,,,,0,7,7,1,,,AFNE01.jpg,AFSA18.jpg,AFSA10.jpg,AFNE18.jpg,AFNE01.jpg,FN,3,num_8,32,num_6,1.83342795144,,,2017_Jul_12_1557,59.9929574017,MAFE4ImagesEEG,001,200911,
AMSA25.JPG,AMNE24.JPG,AMSA24.JPG,AMNE26.JPG,AMSA21.JPG,AMNE25.JPG,,,,,,,,,,,,,,,,,,,,,0,8,8,3,,,AFSA20.jpg,AFSA09.jpg,AFNE16.jpg,AFNE09.jpg,AFNE16.jpg,FN,3,num_2,32,num_6,2.20003027772,,,2017_Jul_12_1557,59.9929574017,MAFE4ImagesEEG,001,200911,
AFNE22.JPG,AFSA24.JPG,AFSA22.JPG,AFNE25.JPG,AFNE24.JPG,AFSA25.JPG,,,,,,,,,,,,,,,,,,,,,0,9,9,6,,,AFNE09.jpg,AFSA16.jpg,AFNE04.jpg,AFSA15.jpg,AFNE09.jpg,FN,3,num_8,16,num_8,0.866596232401,,,2017_Jul_12_1557,59.9929574017,MAFE4ImagesEEG,001,200911,
,,,,,,,,,,,,,,,,,,,,,,,,,,,,,,,,,,,,,,,,,,,space,10.2994356914,2017_Jul_12_1557,59.9929574017,MAFE4ImagesEEG,001,200911,
AFNE01.JPG,AFNE01.JPG,AFNE01.JPG,AFNE01.JPG,AFNE01.JPG,AFNE01.JPG,0,0,0,1,,,,,,,,,,,,,,,,,,,,,,,AMSA12.jpg,AMNE08.jpg,AMSA17.jpg,AMNE17.jpg,AMSA12.jpg,MS,2,num_8,16,num_8,1.100171339,,,2017_Jul_12_1557,59.9929574017,MAFE4ImagesEEG,001,200911,
AFNE01.JPG,AFNE01.JPG,AFNE01.JPG,AFNE01.JPG,AFNE01.JPG,AFNE01.JPG,0,1,1,7,,,,,,,,,,,,,,,,,,,,,,,AMSA15.jpg,AMNE10.jpg,AMSA05.jpg,AMNE03.jpg,AMNE03.jpg,MN,1,num_4,32,num_6,1.3332739966,,,2017_Jul_12_1557,59.9929574017,MAFE4ImagesEEG,001,200911,
AFNE01.JPG,AFNE01.JPG,AFNE01.JPG,AFNE01.JPG,AFNE01.JPG,AFNE01.JPG,0,2,2,4,,,,,,,,,,,,,,,,,,,,,,,AMNE09.jpg,AMSA12.jpg,AMNE08.jpg,AMSA09.jpg,AMSA12.jpg,MS,2,num_6,32,num_8,2.53337772354,,,2017_Jul_12_1557,59.9929574017,MAFE4ImagesEEG,001,200911,
AFNE01.JPG,AFNE01.JPG,AFNE01.JPG,AFNE01.JPG,AFNE01.JPG,AFNE01.JPG,0,3,3,6,,,,,,,,,,,,,,,,,,,,,,,AMNE15.jpg,AMSA18.jpg,AMNE07.jpg,AMSA01.jpg,AMNE15.jpg,MN,1,num_8,32,num_4,1.1334111446,,,2017_Jul_12_1557,59.9929574017,MAFE4ImagesEEG,001,200911,
AFNE01.JPG,AFNE01.JPG,AFNE01.JPG,AFNE01.JPG,AFNE01.JPG,AFNE01.JPG,0,4,4,5,,,,,,,,,,,,,,,,,,,,,,,AMSA20.jpg,AMNE18.jpg,AMNE12.jpg,AMSA14.jpg,AMSA14.jpg,MS,2,num_4,16,num_4,0.650126146851,,,2017_Jul_12_1557,59.9929574017,MAFE4ImagesEEG,001,200911,
AFNE01.JPG,AFNE01.JPG,AFNE01.JPG,AFNE01.JPG,AFNE01.JPG,AFNE01.JPG,0,5,5,9,,,,,,,,,,,,,,,,,,,,,,,AMNE10.jpg,AMNE13.jpg,AMSA16.jpg,AMSA03.jpg,AMSA16.jpg,MS,2,num_2,32,num_6,1.18344677892,,,2017_Jul_12_1557,59.9929574017,MAFE4ImagesEEG,001,200911,
AFNE01.JPG,AFNE01.JPG,AFNE01.JPG,AFNE01.JPG,AFNE01.JPG,AFNE01.JPG,0,6,6,3,,,,,,,,,,,,,,,,,,,,,,,AMSA03.jpg,AMNE17.jpg,AMSA05.jpg,AMNE18.jpg,AMNE18.jpg,MN,1,num_4,32,num_8,1.35005442938,,,2017_Jul_12_1557,59.9929574017,MAFE4ImagesEEG,001,200911,
AFNE01.JPG,AFNE01.JPG,AFNE01.JPG,AFNE01.JPG,AFNE01.JPG,AFNE01.JPG,0,7,7,0,,,,,,,,,,,,,,,,,,,,,,,AMNE18.jpg,AMNE05.jpg,AMSA11.jpg,AMSA12.jpg,AMSA12.jpg,MS,2,num_4,32,num_8,1.68351541692,,,2017_Jul_12_1557,59.9929574017,MAFE4ImagesEEG,001,200911,
AFNE01.JPG,AFNE01.JPG,AFNE01.JPG,AFNE01.JPG,AFNE01.JPG,AFNE01.JPG,0,8,8,8,,,,,,,,,,,,,,,,,,,,,,,AMSA04.jpg,AMNE04.jpg,AMSA16.jpg,AMNE07.jpg,AMSA16.jpg,MS,2,num_2,32,num_4,1.13341659727,,,2017_Jul_12_1557,59.9929574017,MAFE4ImagesEEG,001,200911,
AFNE01.JPG,AFNE01.JPG,AFNE01.JPG,AFNE01.JPG,AFNE01.JPG,AFNE01.JPG,0,9,9,2,,,,,,,,,,,,,,,,,,,,,,,AMSA08.jpg,AMNE18.jpg,AMSA18.jpg,AMNE20.jpg,AMNE20.jpg,MN,1,num_4,16,num_4,1.7833454893,,,2017_Jul_12_1557,59.9929574017,MAFE4ImagesEEG,001,200911,
AFNE01.JPG,AFNE01.JPG,AFNE01.JPG,AFNE01.JPG,AFNE01.JPG,AFNE01.JPG,1,0,10,9,,,,,,,,,,,,,,,,,,,,,,,AMNE10.jpg,AMSA17.jpg,AMNE16.jpg,AMSA10.jpg,AMSA17.jpg,MS,2,num_6,16,num_6,0.566802916583,,,2017_Jul_12_1557,59.9929574017,MAFE4ImagesEEG,001,200911,
AFNE01.JPG,AFNE01.JPG,AFNE01.JPG,AFNE01.JPG,AFNE01.JPG,AFNE01.JPG,1,1,11,5,,,,,,,,,,,,,,,,,,,,,,,AMNE13.jpg,AMSA08.jpg,AMSA03.jpg,AMNE20.jpg,AMNE13.jpg,MN,1,num_8,16,num_8,1.03344700346,,,2017_Jul_12_1557,59.9929574017,MAFE4ImagesEEG,001,200911,
AFNE01.JPG,AFNE01.JPG,AFNE01.JPG,AFNE01.JPG,AFNE01.JPG,AFNE01.JPG,1,2,12,1,,,,,,,,,,,,,,,,,,,,,,,AMSA18.jpg,AMSA14.jpg,AMNE09.jpg,AMNE07.jpg,AMNE09.jpg,MN,1,num_2,32,num_8,2.00003848854,,,2017_Jul_12_1557,59.9929574017,MAFE4ImagesEEG,001,200911,
AFNE01.JPG,AFNE01.JPG,AFNE01.JPG,AFNE01.JPG,AFNE01.JPG,AFNE01.JPG,1,3,13,4,,,,,,,,,,,,,,,,,,,,,,,AMSA01.jpg,AMNE07.jpg,AMSA16.jpg,AMNE06.jpg,AMSA16.jpg,MS,2,num_2,16,num_2,0.516844580648,,,2017_Jul_12_1557,59.9929574017,MAFE4ImagesEEG,001,200911,
AFNE01.JPG,AFNE01.JPG,AFNE01.JPG,AFNE01.JPG,AFNE01.JPG,AFNE01.JPG,1,4,14,8,,,,,,,,,,,,,,,,,,,,,,,AMNE04.jpg,AMSA07.jpg,AMNE16.jpg,AMSA17.jpg,AMSA07.jpg,MS,2,num_6,16,num_6,1.50005612941,,,2017_Jul_12_1557,59.9929574017,MAFE4ImagesEEG,001,200911,
AFNE01.JPG,AFNE01.JPG,AFNE01.JPG,AFNE01.JPG,AFNE01.JPG,AFNE01.JPG,1,5,15,6,,,,,,,,,,,,,,,,,,,,,,,AMSA07.jpg,AMNE16.jpg,AMSA18.jpg,AMNE01.jpg,AMNE16.jpg,MN,1,num_6,32,num_8,0.916894231224,,,2017_Jul_12_1557,59.9929574017,MAFE4ImagesEEG,001,200911,
AFNE01.JPG,AFNE01.JPG,AFNE01.JPG,AFNE01.JPG,AFNE01.JPG,AFNE01.JPG,1,6,16,2,,,,,,,,,,,,,,,,,,,,,,,AMNE12.jpg,AMNE06.jpg,AMSA03.jpg,AMSA19.jpg,AMSA19.jpg,MS,2,num_4,16,num_4,2.6166098637,,,2017_Jul_12_1557,59.9929574017,MAFE4ImagesEEG,001,200911,
AFNE01.JPG,AFNE01.JPG,AFNE01.JPG,AFNE01.JPG,AFNE01.JPG,AFNE01.JPG,1,7,17,0,,,,,,,,,,,,,,,,,,,,,,,AMNE20.jpg,AMNE19.jpg,AMSA19.jpg,AMSA10.jpg,AMNE19.jpg,MN,1,num_6,16,num_6,1.53344988986,,,2017_Jul_12_1557,59.9929574017,MAFE4ImagesEEG,001,200911,
AFNE01.JPG,AFNE01.JPG,AFNE01.JPG,AFNE01.JPG,AFNE01.JPG,AFNE01.JPG,1,8,18,3,,,,,,,,,,,,,,,,,,,,,,,AMSA05.jpg,AMSA03.jpg,AMNE08.jpg,AMNE04.jpg,AMSA05.jpg,MS,2,num_8,16,num_8,0.950116396416,,,2017_Jul_12_1557,59.9929574017,MAFE4ImagesEEG,001,200911,
AFNE01.JPG,AFNE01.JPG,AFNE01.JPG,AFNE01.JPG,AFNE01.JPG,AFNE01.JPG,1,9,19,7,,,,,,,,,,,,,,,,,,,,,,,AMSA15.jpg,AMSA10.jpg,AMNE11.jpg,AMNE04.jpg,AMSA10.jpg,MS,2,num_6,32,num_4,1.10008794675,,,2017_Jul_12_1557,59.9929574017,MAFE4ImagesEEG,001,200911,
AFNE01.JPG,AFNE01.JPG,AFNE01.JPG,AFNE01.JPG,AFNE01.JPG,AFNE01.JPG,2,0,20,3,,,,,,,,,,,,,,,,,,,,,,,AMSA01.jpg,AMNE20.jpg,AMSA14.jpg,AMNE03.jpg,AMNE03.jpg,MN,1,num_4,32,num_2,2.31666676281,,,2017_Jul_12_1557,59.9929574017,MAFE4ImagesEEG,001,200911,
AFNE01.JPG,AFNE01.JPG,AFNE01.JPG,AFNE01.JPG,AFNE01.JPG,AFNE01.JPG,2,1,21,4,,,,,,,,,,,,,,,,,,,,,,,AMNE04.jpg,AMNE15.jpg,AMSA04.jpg,AMSA20.jpg,AMSA04.jpg,MS,2,num_2,16,num_2,1.10008121119,,,2017_Jul_12_1557,59.9929574017,MAFE4ImagesEEG,001,200911,
AFNE01.JPG,AFNE01.JPG,AFNE01.JPG,AFNE01.JPG,AFNE01.JPG,AFNE01.JPG,2,2,22,8,,,,,,,,,,,,,,,,,,,,,,,AMNE11.jpg,AMSA14.jpg,AMNE04.jpg,AMSA02.jpg,AMNE11.jpg,MN,1,num_8,32,num_4,1.61677215784,,,2017_Jul_12_1557,59.9929574017,MAFE4ImagesEEG,001,200911,
AFNE01.JPG,AFNE01.JPG,AFNE01.JPG,AFNE01.JPG,AFNE01.JPG,AFNE01.JPG,2,3,23,5,,,,,,,,,,,,,,,,,,,,,,,AMNE09.jpg,AMSA18.jpg,AMSA17.jpg,AMNE03.jpg,AMNE03.jpg,MN,1,num_4,16,num_4,0.883512337925,,,2017_Jul_12_1557,59.9929574017,MAFE4ImagesEEG,001,200911,
AFNE01.JPG,AFNE01.JPG,AFNE01.JPG,AFNE01.JPG,AFNE01.JPG,AFNE01.JPG,2,4,24,7,,,,,,,,,,,,,,,,,,,,,,,AMSA08.jpg,AMSA13.jpg,AMNE03.jpg,AMNE07.jpg,AMNE03.jpg,MN,1,num_2,32,num_6,2.51663417579,,,2017_Jul_12_1557,59.9929574017,MAFE4ImagesEEG,001,200911,
AFNE01.JPG,AFNE01.JPG,AFNE01.JPG,AFNE01.JPG,AFNE01.JPG,AFNE01.JPG,2,5,25,9,,,,,,,,,,,,,,,,,,,,,,,AMSA20.jpg,AMNE09.jpg,AMSA10.jpg,AMNE04.jpg,AMNE09.jpg,MN,1,num_6,32,num_8,1.10013188794,,,2017_Jul_12_1557,59.9929574017,MAFE4ImagesEEG,001,200911,
AFNE01.JPG,AFNE01.JPG,AFNE01.JPG,AFNE01.JPG,AFNE01.JPG,AFNE01.JPG,2,6,26,2,,,,,,,,,,,,,,,,,,,,,,,AMNE18.jpg,AMSA10.jpg,AMNE01.jpg,AMSA19.jpg,AMSA19.jpg,MS,2,num_4,16,num_4,2.38334106305,,,2017_Jul_12_1557,59.9929574017,MAFE4ImagesEEG,001,200911,
AFNE01.JPG,AFNE01.JPG,AFNE01.JPG,AFNE01.JPG,AFNE01.JPG,AFNE01.JPG,2,7,27,0,,,,,,,,,,,,,,,,,,,,,,,AMNE01.jpg,AMNE03.jpg,AMSA06.jpg,AMSA09.jpg,AMSA06.jpg,MS,2,num_2,16,num_2,2.15003890567,,,2017_Jul_12_1557,59.9929574017,MAFE4ImagesEEG,001,200911,
AFNE01.JPG,AFNE01.JPG,AFNE01.JPG,AFNE01.JPG,AFNE01.JPG,AFNE01.JPG,2,8,28,1,,,,,,,,,,,,,,,,,,,,,,,AMSA16.jpg,AMNE11.jpg,AMSA02.jpg,AMNE03.jpg,AMNE03.jpg,MN,1,num_4,32,num_8,1.60002379888,,,2017_Jul_12_1557,59.9929574017,MAFE4ImagesEEG,001,200911,
AFNE01.JPG,AFNE01.JPG,AFNE01.JPG,AFNE01.JPG,AFNE01.JPG,AFNE01.JPG,2,9,29,6,,,,,,,,,,,,,,,,,,,,,,,AMNE01.jpg,AMSA06.jpg,AMNE14.jpg,AMSA17.jpg,AMSA06.jpg,MS,2,num_6,32,num_2,1.3167629845,,,2017_Jul_12_1557,59.9929574017,MAFE4ImagesEEG,001,200911,
AFNE01.JPG,AFNE01.JPG,AFNE01.JPG,AFNE01.JPG,AFNE01.JPG,AFNE01.JPG,3,0,30,4,,,,,,,,,,,,,,,,,,,,,,,AMNE06.jpg,AMNE09.jpg,AMSA07.jpg,AMSA13.jpg,AMNE06.jpg,MN,1,num_8,16,num_8,1.56674197619,,,2017_Jul_12_1557,59.9929574017,MAFE4ImagesEEG,001,200911,
AFNE01.JPG,AFNE01.JPG,AFNE01.JPG,AFNE01.JPG,AFNE01.JPG,AFNE01.JPG,3,1,31,5,,,,,,,,,,,,,,,,,,,,,,,AMSA07.jpg,AMNE17.jpg,AMSA18.jpg,AMNE05.jpg,AMSA07.jpg,MS,2,num_8,32,num_2,1.43346490059,,,2017_Jul_12_1557,59.9929574017,MAFE4ImagesEEG,001,200911,
AFNE01.JPG,AFNE01.JPG,AFNE01.JPG,AFNE01.JPG,AFNE01.JPG,AFNE01.JPG,3,2,32,2,,,,,,,,,,,,,,,,,,,,,,,AMSA18.jpg,AMNE07.jpg,AMNE08.jpg,AMSA05.jpg,AMSA05.jpg,MS,2,num_4,32,num_6,1.45004839962,,,2017_Jul_12_1557,59.9929574017,MAFE4ImagesEEG,001,200911,
AFNE01.JPG,AFNE01.JPG,AFNE01.JPG,AFNE01.JPG,AFNE01.JPG,AFNE01.JPG,3,3,33,0,,,,,,,,,,,,,,,,,,,,,,,AMNE16.jpg,AMNE12.jpg,AMSA07.jpg,AMSA17.jpg,AMSA17.jpg,MS,2,num_4,16,num_4,3.76650219155,,,2017_Jul_12_1557,59.9929574017,MAFE4ImagesEEG,001,200911,
AFNE01.JPG,AFNE01.JPG,AFNE01.JPG,AFNE01.JPG,AFNE01.JPG,AFNE01.JPG,3,4,34,9,,,,,,,,,,,,,,,,,,,,,,,AMNE19.jpg,AMSA07.jpg,AMNE13.jpg,AMSA19.jpg,AMSA07.jpg,MS,2,num_6,32,num_2,1.03349896311,,,2017_Jul_12_1557,59.9929574017,MAFE4ImagesEEG,001,200911,
AFNE01.JPG,AFNE01.JPG,AFNE01.JPG,AFNE01.JPG,AFNE01.JPG,AFNE01.JPG,3,5,35,8,,,,,,,,,,,,,,,,,,,,,,,AMNE12.jpg,AMSA03.jpg,AMNE01.jpg,AMSA06.jpg,AMSA03.jpg,MS,2,num_6,16,num_6,0.883704781299,,,2017_Jul_12_1557,59.9929574017,MAFE4ImagesEEG,001,200911,
AFNE01.JPG,AFNE01.JPG,AFNE01.JPG,AFNE01.JPG,AFNE01.JPG,AFNE01.JPG,3,6,36,6,,,,,,,,,,,,,,,,,,,,,,,AMNE02.jpg,AMSA16.jpg,AMNE05.jpg,AMSA08.jpg,AMNE05.jpg,MN,1,num_2,32,num_8,0.783451333176,,,2017_Jul_12_1557,59.9929574017,MAFE4ImagesEEG,001,200911,
AFNE01.JPG,AFNE01.JPG,AFNE01.JPG,AFNE01.JPG,AFNE01.JPG,AFNE01.JPG,3,7,37,3,,,,,,,,,,,,,,,,,,,,,,,AMNE03.jpg,AMSA13.jpg,AMNE15.jpg,AMSA17.jpg,AMSA17.jpg,MS,2,num_4,16,num_4,0.583515673643,,,2017_Jul_12_1557,59.9929574017,MAFE4ImagesEEG,001,200911,
AFNE01.JPG,AFNE01.JPG,AFNE01.JPG,AFNE01.JPG,AFNE01.JPG,AFNE01.JPG,3,8,38,1,,,,,,,,,,,,,,,,,,,,,,,AMSA06.jpg,AMSA01.jpg,AMNE06.jpg,AMNE03.jpg,AMSA01.jpg,MS,2,num_6,16,num_6,0.783478916856,,,2017_Jul_12_1557,59.9929574017,MAFE4ImagesEEG,001,200911,
AFNE01.JPG,AFNE01.JPG,AFNE01.JPG,AFNE01.JPG,AFNE01.JPG,AFNE01.JPG,3,9,39,7,,,,,,,,,,,,,,,,,,,,,,,AMNE11.jpg,AMSA17.jpg,AMSA14.jpg,AMNE13.jpg,AMSA14.jpg,MS,2,num_2,16,num_2,0.633485556347,,,2017_Jul_12_1557,59.9929574017,MAFE4ImagesEEG,001,200911,
AFNE01.JPG,AFNE01.JPG,AFNE01.JPG,AFNE01.JPG,AFNE01.JPG,AFNE01.JPG,4,0,40,7,,,,,,,,,,,,,,,,,,,,,,,AMNE14.jpg,AMSA12.jpg,AMNE08.jpg,AMSA14.jpg,AMNE08.jpg,MN,1,num_2,32,num_6,1.01678684773,,,2017_Jul_12_1557,59.9929574017,MAFE4ImagesEEG,001,200911,
AFNE01.JPG,AFNE01.JPG,AFNE01.JPG,AFNE01.JPG,AFNE01.JPG,AFNE01.JPG,4,1,41,6,,,,,,,,,,,,,,,,,,,,,,,AMSA10.jpg,AMNE03.jpg,AMNE11.jpg,AMSA18.jpg,AMSA18.jpg,MS,2,num_4,16,num_4,0.600159150781,,,2017_Jul_12_1557,59.9929574017,MAFE4ImagesEEG,001,200911,
AFNE01.JPG,AFNE01.JPG,AFNE01.JPG,AFNE01.JPG,AFNE01.JPG,AFNE01.JPG,4,2,42,8,,,,,,,,,,,,,,,,,,,,,,,AMNE15.jpg,AMSA10.jpg,AMNE16.jpg,AMSA12.jpg,AMNE16.jpg,MN,1,num_2,32,num_8,0.833501400659,,,2017_Jul_12_1557,59.9929574017,MAFE4ImagesEEG,001,200911,
AFNE01.JPG,AFNE01.JPG,AFNE01.JPG,AFNE01.JPG,AFNE01.JPG,AFNE01.JPG,4,3,43,3,,,,,,,,,,,,,,,,,,,,,,,AMSA17.jpg,AMNE16.jpg,AMNE09.jpg,AMSA04.jpg,AMNE16.jpg,MN,1,num_6,16,num_6,0.850105426973,,,2017_Jul_12_1557,59.9929574017,MAFE4ImagesEEG,001,200911,
AFNE01.JPG,AFNE01.JPG,AFNE01.JPG,AFNE01.JPG,AFNE01.JPG,AFNE01.JPG,4,4,44,5,,,,,,,,,,,,,,,,,,,,,,,AMSA20.jpg,AMSA15.jpg,AMNE11.jpg,AMNE15.jpg,AMSA15.jpg,MS,2,num_6,16,num_6,0.450099396985,,,2017_Jul_12_1557,59.9929574017,MAFE4ImagesEEG,001,200911,
AFNE01.JPG,AFNE01.JPG,AFNE01.JPG,AFNE01.JPG,AFNE01.JPG,AFNE01.JPG,4,5,45,9,,,,,,,,,,,,,,,,,,,,,,,AMNE12.jpg,AMSA11.jpg,AMNE05.jpg,AMSA10.jpg,AMNE12.jpg,MN,1,num_8,16,num_8,1.11660601478,,,2017_Jul_12_1557,59.9929574017,MAFE4ImagesEEG,001,200911,
AFNE01.JPG,AFNE01.JPG,AFNE01.JPG,AFNE01.JPG,AFNE01.JPG,AFNE01.JPG,4,6,46,1,,,,,,,,,,,,,,,,,,,,,,,AMSA10.jpg,AMSA12.jpg,AMNE04.jpg,AMNE17.jpg,AMNE17.jpg,MN,1,num_4,32,num_6,1.7335667673,,,2017_Jul_12_1557,59.9929574017,MAFE4ImagesEEG,001,200911,
AFNE01.JPG,AFNE01.JPG,AFNE01.JPG,AFNE01.JPG,AFNE01.JPG,AFNE01.JPG,4,7,47,4,,,,,,,,,,,,,,,,,,,,,,,AMSA20.jpg,AMNE04.jpg,AMNE17.jpg,AMSA07.jpg,AMSA07.jpg,MS,2,num_4,32,num_2,0.80010956456,,,2017_Jul_12_1557,59.9929574017,MAFE4ImagesEEG,001,200911,
AFNE01.JPG,AFNE01.JPG,AFNE01.JPG,AFNE01.JPG,AFNE01.JPG,AFNE01.JPG,4,8,48,2,,,,,,,,,,,,,,,,,,,,,,,AMNE08.jpg,AMSA05.jpg,AMNE19.jpg,AMSA18.jpg,AMSA18.jpg,MS,2,num_4,16,num_4,0.516744830878,,,2017_Jul_12_1557,59.9929574017,MAFE4ImagesEEG,001,200911,
AFNE01.JPG,AFNE01.JPG,AFNE01.JPG,AFNE01.JPG,AFNE01.JPG,AFNE01.JPG,4,9,49,0,,,,,,,,,,,,,,,,,,,,,,,AMSA07.jpg,AMSA09.jpg,AMNE10.jpg,AMNE11.jpg,AMSA09.jpg,MS,2,num_6,16,num_6,0.750145775964,,,2017_Jul_12_1557,59.9929574017,MAFE4ImagesEEG,001,200911,
AFNE01.JPG,AFNE01.JPG,AFNE01.JPG,AFNE01.JPG,AFNE01.JPG,AFNE01.JPG,5,0,50,9,,,,,,,,,,,,,,,,,,,,,,,AMNE15.jpg,AMSA03.jpg,AMNE09.jpg,AMSA09.jpg,AMSA03.jpg,MS,2,num_6,16,num_6,0.916776199127,,,2017_Jul_12_1557,59.9929574017,MAFE4ImagesEEG,001,200911,
AFNE01.JPG,AFNE01.JPG,AFNE01.JPG,AFNE01.JPG,AFNE01.JPG,AFNE01.JPG,5,1,51,3,,,,,,,,,,,,,,,,,,,,,,,AMSA15.jpg,AMNE05.jpg,AMSA04.jpg,AMNE12.jpg,AMSA15.jpg,MS,2,num_8,32,num_4,1.86667417199,,,2017_Jul_12_1557,59.9929574017,MAFE4ImagesEEG,001,200911,
AFNE01.JPG,AFNE01.JPG,AFNE01.JPG,AFNE01.JPG,AFNE01.JPG,AFNE01.JPG,5,2,52,0,,,,,,,,,,,,,,,,,,,,,,,AMSA04.jpg,AMNE19.jpg,AMNE05.jpg,AMSA05.jpg,AMNE05.jpg,MN,1,num_2,32,num_8,0.950159696164,,,2017_Jul_12_1557,59.9929574017,MAFE4ImagesEEG,001,200911,
AFNE01.JPG,AFNE01.JPG,AFNE01.JPG,AFNE01.JPG,AFNE01.JPG,AFNE01.JPG,5,3,53,1,,,,,,,,,,,,,,,,,,,,,,,AMNE02.jpg,AMSA16.jpg,AMNE09.jpg,AMSA09.jpg,AMNE02.jpg,MN,1,num_8,16,num_8,0.566757051041,,,2017_Jul_12_1557,59.9929574017,MAFE4ImagesEEG,001,200911,
AFNE01.JPG,AFNE01.JPG,AFNE01.JPG,AFNE01.JPG,AFNE01.JPG,AFNE01.JPG,5,4,54,2,,,,,,,,,,,,,,,,,,,,,,,AMNE10.jpg,AMNE16.jpg,AMSA08.jpg,AMSA14.jpg,AMSA08.jpg,MS,2,num_2,16,num_2,0.866372356424,,,2017_Jul_12_1557,59.9929574017,MAFE4ImagesEEG,001,200911,
AFNE01.JPG,AFNE01.JPG,AFNE01.JPG,AFNE01.JPG,AFNE01.JPG,AFNE01.JPG,5,5,55,7,,,,,,,,,,,,,,,,,,,,,,,AMSA07.jpg,AMSA08.jpg,AMNE14.jpg,AMNE04.jpg,AMNE14.jpg,MN,1,num_2,32,num_4,1.11672949954,,,2017_Jul_12_1557,59.9929574017,MAFE4ImagesEEG,001,200911,
AFNE01.JPG,AFNE01.JPG,AFNE01.JPG,AFNE01.JPG,AFNE01.JPG,AFNE01.JPG,5,6,56,4,,,,,,,,,,,,,,,,,,,,,,,AMSA13.jpg,AMNE07.jpg,AMNE04.jpg,AMSA17.jpg,AMNE04.jpg,MN,1,num_2,16,num_2,0.633458293276,,,2017_Jul_12_1557,59.9929574017,MAFE4ImagesEEG,001,200911,
AFNE01.JPG,AFNE01.JPG,AFNE01.JPG,AFNE01.JPG,AFNE01.JPG,AFNE01.JPG,5,7,57,6,,,,,,,,,,,,,,,,,,,,,,,AMNE15.jpg,AMNE06.jpg,AMSA03.jpg,AMSA02.jpg,AMSA03.jpg,MS,2,num_2,16,num_2,0.633450274821,,,2017_Jul_12_1557,59.9929574017,MAFE4ImagesEEG,001,200911,
AFNE01.JPG,AFNE01.JPG,AFNE01.JPG,AFNE01.JPG,AFNE01.JPG,AFNE01.JPG,5,8,58,8,,,,,,,,,,,,,,,,,,,,,,,AMNE16.jpg,AMSA11.jpg,AMNE13.jpg,AMSA02.jpg,AMNE16.jpg,MN,1,num_8,16,num_8,0.650116845267,,,2017_Jul_12_1557,59.9929574017,MAFE4ImagesEEG,001,200911,
AFNE01.JPG,AFNE01.JPG,AFNE01.JPG,AFNE01.JPG,AFNE01.JPG,AFNE01.JPG,5,9,59,5,,,,,,,,,,,,,,,,,,,,,,,AMNE12.jpg,AMNE16.jpg,AMSA11.jpg,AMSA04.jpg,AMSA11.jpg,MS,2,num_2,16,num_2,0.933440844994,,,2017_Jul_12_1557,59.9929574017,MAFE4ImagesEEG,001,200911,
,,,,,,,,,,,,,,,,,,,,,,,,,,,,,,,,,,,,,,,,,,,space,10.0993909803,2017_Jul_12_1557,59.9929574017,MAFE4ImagesEEG,001,200911,
AFNE01.JPG,AFNE01.JPG,AFNE01.JPG,AFNE01.JPG,AFNE01.JPG,AFNE01.JPG,,,,,0,0,0,6,,,,,,,,,,,,,,,,,,,AFNE18.jpg,AFSA03.jpg,AFNE16.jpg,AFSA17.jpg,AFNE16.jpg,FN,3,num_2,32,num_8,0.733459319687,,,2017_Jul_12_1557,59.9929574017,MAFE4ImagesEEG,001,200911,
AFNE01.JPG,AFNE01.JPG,AFNE01.JPG,AFNE01.JPG,AFNE01.JPG,AFNE01.JPG,,,,,0,1,1,8,,,,,,,,,,,,,,,,,,,AFSA17.jpg,AFNE07.jpg,AFNE13.jpg,AFSA12.jpg,AFSA12.jpg,FS,4,num_4,32,num_2,0.866769431625,,,2017_Jul_12_1557,59.9929574017,MAFE4ImagesEEG,001,200911,
AFNE01.JPG,AFNE01.JPG,AFNE01.JPG,AFNE01.JPG,AFNE01.JPG,AFNE01.JPG,,,,,0,2,2,2,,,,,,,,,,,,,,,,,,,AFNE16.jpg,AFSA10.jpg,AFSA05.jpg,AFNE07.jpg,AFNE16.jpg,FN,3,num_8,16,num_8,0.733462847769,,,2017_Jul_12_1557,59.9929574017,MAFE4ImagesEEG,001,200911,
AFNE01.JPG,AFNE01.JPG,AFNE01.JPG,AFNE01.JPG,AFNE01.JPG,AFNE01.JPG,,,,,0,3,3,5,,,,,,,,,,,,,,,,,,,AFNE07.jpg,AFNE05.jpg,AFSA15.jpg,AFSA04.jpg,AFSA04.jpg,FS,4,num_4,16,num_4,0.633458934724,,,2017_Jul_12_1557,59.9929574017,MAFE4ImagesEEG,001,200911,
AFNE01.JPG,AFNE01.JPG,AFNE01.JPG,AFNE01.JPG,AFNE01.JPG,AFNE01.JPG,,,,,0,4,4,3,,,,,,,,,,,,,,,,,,,AFNE14.jpg,AFSA13.jpg,AFNE04.jpg,AFSA10.jpg,AFSA13.jpg,FS,4,num_6,16,num_6,0.733462206321,,,2017_Jul_12_1557,59.9929574017,MAFE4ImagesEEG,001,200911,
AFNE01.JPG,AFNE01.JPG,AFNE01.JPG,AFNE01.JPG,AFNE01.JPG,AFNE01.JPG,,,,,0,5,5,1,,,,,,,,,,,,,,,,,,,AFSA12.jpg,AFSA20.jpg,AFNE13.jpg,AFNE09.jpg,AFSA20.jpg,FS,4,num_6,32,num_4,1.03347651125,,,2017_Jul_12_1557,59.9929574017,MAFE4ImagesEEG,001,200911,
AFNE01.JPG,AFNE01.JPG,AFNE01.JPG,AFNE01.JPG,AFNE01.JPG,AFNE01.JPG,,,,,0,6,6,9,,,,,,,,,,,,,,,,,,,AFSA16.jpg,AFNE15.jpg,AFSA14.jpg,AFNE07.jpg,AFNE15.jpg,FN,3,num_6,16,num_6,0.700125537347,,,2017_Jul_12_1557,59.9929574017,MAFE4ImagesEEG,001,200911,
AFNE01.JPG,AFNE01.JPG,AFNE01.JPG,AFNE01.JPG,AFNE01.JPG,AFNE01.JPG,,,,,0,7,7,7,,,,,,,,,,,,,,,,,,,AFNE07.jpg,AFSA19.jpg,AFSA03.jpg,AFNE13.jpg,AFSA19.jpg,FS,4,num_6,32,num_2,0.833577415906,,,2017_Jul_12_1557,59.9929574017,MAFE4ImagesEEG,001,200911,
AFNE01.JPG,AFNE01.JPG,AFNE01.JPG,AFNE01.JPG,AFNE01.JPG,AFNE01.JPG,,,,,0,8,8,4,,,,,,,,,,,,,,,,,,,AFSA18.jpg,AFNE03.jpg,AFNE01.jpg,AFSA08.jpg,AFNE01.jpg,FN,3,num_2,32,num_4,0.933479333762,,,2017_Jul_12_1557,59.9929574017,MAFE4ImagesEEG,001,200911,
AFNE01.JPG,AFNE01.JPG,AFNE01.JPG,AFNE01.JPG,AFNE01.JPG,AFNE01.JPG,,,,,0,9,9,0,,,,,,,,,,,,,,,,,,,AFNE16.jpg,AFSA16.jpg,AFSA06.jpg,AFNE07.jpg,AFSA06.jpg,FS,4,num_2,32,num_6,1.13342750235,,,2017_Jul_12_1557,59.9929574017,MAFE4ImagesEEG,001,200911,
AFNE01.JPG,AFNE01.JPG,AFNE01.JPG,AFNE01.JPG,AFNE01.JPG,AFNE01.JPG,,,,,1,0,10,2,,,,,,,,,,,,,,,,,,,AFNE03.jpg,AFSA08.jpg,AFNE07.jpg,AFSA18.jpg,AFNE07.jpg,FN,3,num_2,16,num_2,0.85009548394,,,2017_Jul_12_1557,59.9929574017,MAFE4ImagesEEG,001,200911,
AFNE01.JPG,AFNE01.JPG,AFNE01.JPG,AFNE01.JPG,AFNE01.JPG,AFNE01.JPG,,,,,1,1,11,0,,,,,,,,,,,,,,,,,,,AFNE15.jpg,AFNE01.jpg,AFSA20.jpg,AFSA05.jpg,AFNE01.jpg,FN,3,num_6,32,num_2,1.40007883776,,,2017_Jul_12_1557,59.9929574017,MAFE4ImagesEEG,001,200911,
AFNE01.JPG,AFNE01.JPG,AFNE01.JPG,AFNE01.JPG,AFNE01.JPG,AFNE01.JPG,,,,,1,2,12,7,,,,,,,,,,,,,,,,,,,AFNE18.jpg,AFSA10.jpg,AFNE17.jpg,AFSA14.jpg,AFSA10.jpg,FS,4,num_6,16,num_6,0.816802435555,,,2017_Jul_12_1557,59.9929574017,MAFE4ImagesEEG,001,200911,
AFNE01.JPG,AFNE01.JPG,AFNE01.JPG,AFNE01.JPG,AFNE01.JPG,AFNE01.JPG,,,,,1,3,13,8,,,,,,,,,,,,,,,,,,,AFSA03.jpg,AFNE20.jpg,AFNE04.jpg,AFSA06.jpg,AFSA03.jpg,FS,4,num_8,32,num_4,1.033465927,,,2017_Jul_12_1557,59.9929574017,MAFE4ImagesEEG,001,200911,
AFNE01.JPG,AFNE01.JPG,AFNE01.JPG,AFNE01.JPG,AFNE01.JPG,AFNE01.JPG,,,,,1,4,14,9,,,,,,,,,,,,,,,,,,,AFSA09.jpg,AFNE09.jpg,AFNE12.jpg,AFSA15.jpg,AFNE12.jpg,FN,3,num_2,16,num_2,1.09993559564,,,2017_Jul_12_1557,59.9929574017,MAFE4ImagesEEG,001,200911,
AFNE01.JPG,AFNE01.JPG,AFNE01.JPG,AFNE01.JPG,AFNE01.JPG,AFNE01.JPG,,,,,1,5,15,6,,,,,,,,,,,,,,,,,,,AFSA09.jpg,AFNE15.jpg,AFSA01.jpg,AFNE16.jpg,AFSA01.jpg,FS,4,num_2,32,num_4,1.00020976341,,,2017_Jul_12_1557,59.9929574017,MAFE4ImagesEEG,001,200911,
AFNE01.JPG,AFNE01.JPG,AFNE01.JPG,AFNE01.JPG,AFNE01.JPG,AFNE01.JPG,,,,,1,6,16,4,,,,,,,,,,,,,,,,,,,AFNE03.jpg,AFSA01.jpg,AFSA06.jpg,AFNE05.jpg,AFSA06.jpg,FS,4,num_2,16,num_2,0.966807663674,,,2017_Jul_12_1557,59.9929574017,MAFE4ImagesEEG,001,200911,
AFNE01.JPG,AFNE01.JPG,AFNE01.JPG,AFNE01.JPG,AFNE01.JPG,AFNE01.JPG,,,,,1,7,17,1,,,,,,,,,,,,,,,,,,,AFSA12.jpg,AFNE19.jpg,AFNE15.jpg,AFSA05.jpg,AFNE15.jpg,FN,3,num_2,16,num_2,1.46675634524,,,2017_Jul_12_1557,59.9929574017,MAFE4ImagesEEG,001,200911,
AFNE01.JPG,AFNE01.JPG,AFNE01.JPG,AFNE01.JPG,AFNE01.JPG,AFNE01.JPG,,,,,1,8,18,3,,,,,,,,,,,,,,,,,,,AFSA15.jpg,AFSA10.jpg,AFNE16.jpg,AFNE12.jpg,AFNE16.jpg,FN,3,num_2,32,num_4,1.38338275906,,,2017_Jul_12_1557,59.9929574017,MAFE4ImagesEEG,001,200911,
AFNE01.JPG,AFNE01.JPG,AFNE01.JPG,AFNE01.JPG,AFNE01.JPG,AFNE01.JPG,,,,,1,9,19,5,,,,,,,,,,,,,,,,,,,AFNE13.jpg,AFSA09.jpg,AFSA08.jpg,AFNE04.jpg,AFNE13.jpg,FN,3,num_8,16,num_8,1.08350348566,,,2017_Jul_12_1557,59.9929574017,MAFE4ImagesEEG,001,200911,
AFNE01.JPG,AFNE01.JPG,AFNE01.JPG,AFNE01.JPG,AFNE01.JPG,AFNE01.JPG,,,,,2,0,20,8,,,,,,,,,,,,,,,,,,,AFNE11.jpg,AFSA06.jpg,AFSA19.jpg,AFNE06.jpg,AFNE11.jpg,FN,3,num_8,32,num_2,1.11674425332,,,2017_Jul_12_1557,59.9929574017,MAFE4ImagesEEG,001,200911,
AFNE01.JPG,AFNE01.JPG,AFNE01.JPG,AFNE01.JPG,AFNE01.JPG,AFNE01.JPG,,,,,2,1,21,6,,,,,,,,,,,,,,,,,,,AFNE09.jpg,AFSA04.jpg,AFNE11.jpg,AFSA09.jpg,AFSA04.jpg,FS,4,num_6,16,num_6,1.66675486974,,,2017_Jul_12_1557,59.9929574017,MAFE4ImagesEEG,001,200911,
AFNE01.JPG,AFNE01.JPG,AFNE01.JPG,AFNE01.JPG,AFNE01.JPG,AFNE01.JPG,,,,,2,2,22,4,,,,,,,,,,,,,,,,,,,AFSA11.jpg,AFNE07.jpg,AFNE10.jpg,AFSA17.jpg,AFSA11.jpg,FS,4,num_8,16,num_8,0.666747813812,,,2017_Jul_12_1557,59.9929574017,MAFE4ImagesEEG,001,200911,
AFNE01.JPG,AFNE01.JPG,AFNE01.JPG,AFNE01.JPG,AFNE01.JPG,AFNE01.JPG,,,,,2,3,23,0,,,,,,,,,,,,,,,,,,,AFNE01.jpg,AFSA10.jpg,AFSA06.jpg,AFNE19.jpg,AFNE01.jpg,FN,3,num_8,16,num_8,1.56670958153,,,2017_Jul_12_1557,59.9929574017,MAFE4ImagesEEG,001,200911,
AFNE01.JPG,AFNE01.JPG,AFNE01.JPG,AFNE01.JPG,AFNE01.JPG,AFNE01.JPG,,,,,2,4,24,1,,,,,,,,,,,,,,,,,,,AFSA07.jpg,AFSA04.jpg,AFNE12.jpg,AFNE20.jpg,AFNE12.jpg,FN,3,num_2,32,num_8,1.05007412285,,,2017_Jul_12_1557,59.9929574017,MAFE4ImagesEEG,001,200911,
AFNE01.JPG,AFNE01.JPG,AFNE01.JPG,AFNE01.JPG,AFNE01.JPG,AFNE01.JPG,,,,,2,5,25,7,,,,,,,,,,,,,,,,,,,AFNE03.jpg,AFNE05.jpg,AFSA07.jpg,AFSA02.jpg,AFSA02.jpg,FS,4,num_4,32,num_6,1.26676391461,,,2017_Jul_12_1557,59.9929574017,MAFE4ImagesEEG,001,200911,
AFNE01.JPG,AFNE01.JPG,AFNE01.JPG,AFNE01.JPG,AFNE01.JPG,AFNE01.JPG,,,,,2,6,26,9,,,,,,,,,,,,,,,,,,,AFSA18.jpg,AFSA13.jpg,AFNE13.jpg,AFNE03.jpg,AFNE03.jpg,FN,3,num_4,16,num_4,0.650127750589,,,2017_Jul_12_1557,59.9929574017,MAFE4ImagesEEG,001,200911,
AFNE01.JPG,AFNE01.JPG,AFNE01.JPG,AFNE01.JPG,AFNE01.JPG,AFNE01.JPG,,,,,2,7,27,5,,,,,,,,,,,,,,,,,,,AFSA10.jpg,AFNE19.jpg,AFNE10.jpg,AFSA06.jpg,AFNE19.jpg,FN,3,num_6,32,num_8,1.09993495396,,,2017_Jul_12_1557,59.9929574017,MAFE4ImagesEEG,001,200911,
AFNE01.JPG,AFNE01.JPG,AFNE01.JPG,AFNE01.JPG,AFNE01.JPG,AFNE01.JPG,,,,,2,8,28,2,,,,,,,,,,,,,,,,,,,AFSA16.jpg,AFNE10.jpg,AFSA14.jpg,AFNE07.jpg,AFSA14.jpg,FS,4,num_2,16,num_2,0.967040520161,,,2017_Jul_12_1557,59.9929574017,MAFE4ImagesEEG,001,200911,
AFNE01.JPG,AFNE01.JPG,AFNE01.JPG,AFNE01.JPG,AFNE01.JPG,AFNE01.JPG,,,,,2,9,29,3,,,,,,,,,,,,,,,,,,,AFNE13.jpg,AFSA19.jpg,AFNE02.jpg,AFSA02.jpg,AFSA02.jpg,FS,4,num_4,32,num_6,0.783503613668,,,2017_Jul_12_1557,59.9929574017,MAFE4ImagesEEG,001,200911,
AFNE01.JPG,AFNE01.JPG,AFNE01.JPG,AFNE01.JPG,AFNE01.JPG,AFNE01.JPG,,,,,3,0,30,7,,,,,,,,,,,,,,,,,,,AFNE03.jpg,AFSA07.jpg,AFNE01.jpg,AFSA02.jpg,AFSA02.jpg,FS,4,num_4,16,num_4,0.98342034989,,,2017_Jul_12_1557,59.9929574017,MAFE4ImagesEEG,001,200911,
AFNE01.JPG,AFNE01.JPG,AFNE01.JPG,AFNE01.JPG,AFNE01.JPG,AFNE01.JPG,,,,,3,1,31,1,,,,,,,,,,,,,,,,,,,AFSA10.jpg,AFSA14.jpg,AFNE10.jpg,AFNE18.jpg,AFSA10.jpg,FS,4,num_8,32,num_4,0.983450499363,,,2017_Jul_12_1557,59.9929574017,MAFE4ImagesEEG,001,200911,
AFNE01.JPG,AFNE01.JPG,AFNE01.JPG,AFNE01.JPG,AFNE01.JPG,AFNE01.JPG,,,,,3,2,32,9,,,,,,,,,,,,,,,,,,,AFSA14.jpg,AFNE07.jpg,AFNE18.jpg,AFSA08.jpg,AFNE07.jpg,FN,3,num_6,16,num_6,0.716770939063,,,2017_Jul_12_1557,59.9929574017,MAFE4ImagesEEG,001,200911,
AFNE01.JPG,AFNE01.JPG,AFNE01.JPG,AFNE01.JPG,AFNE01.JPG,AFNE01.JPG,,,,,3,3,33,0,,,,,,,,,,,,,,,,,,,AFSA08.jpg,AFNE16.jpg,AFNE13.jpg,AFSA20.jpg,AFNE13.jpg,FN,3,num_2,32,num_4,0.750108570093,,,2017_Jul_12_1557,59.9929574017,MAFE4ImagesEEG,001,200911,
AFNE01.JPG,AFNE01.JPG,AFNE01.JPG,AFNE01.JPG,AFNE01.JPG,AFNE01.JPG,,,,,3,4,34,3,,,,,,,,,,,,,,,,,,,AFSA16.jpg,AFSA14.jpg,AFNE08.jpg,AFNE16.jpg,AFSA14.jpg,FS,4,num_6,32,num_8,0.933515256736,,,2017_Jul_12_1557,59.9929574017,MAFE4ImagesEEG,001,200911,
AFNE01.JPG,AFNE01.JPG,AFNE01.JPG,AFNE01.JPG,AFNE01.JPG,AFNE01.JPG,,,,,3,5,35,5,,,,,,,,,,,,,,,,,,,AFSA16.jpg,AFNE18.jpg,AFNE09.jpg,AFSA20.jpg,AFSA16.jpg,FS,4,num_8,32,num_4,0.933449504897,,,2017_Jul_12_1557,59.9929574017,MAFE4ImagesEEG,001,200911,
AFNE01.JPG,AFNE01.JPG,AFNE01.JPG,AFNE01.JPG,AFNE01.JPG,AFNE01.JPG,,,,,3,6,36,4,,,,,,,,,,,,,,,,,,,AFSA18.jpg,AFNE01.jpg,AFSA10.jpg,AFNE08.jpg,AFSA10.jpg,FS,4,num_2,16,num_2,0.883473207708,,,2017_Jul_12_1557,59.9929574017,MAFE4ImagesEEG,001,200911,
AFNE01.JPG,AFNE01.JPG,AFNE01.JPG,AFNE01.JPG,AFNE01.JPG,AFNE01.JPG,,,,,3,7,37,6,,,,,,,,,,,,,,,,,,,AFNE12.jpg,AFNE20.jpg,AFSA18.jpg,AFSA09.jpg,AFSA18.jpg,FS,4,num_2,32,num_4,1.03343673982,,,2017_Jul_12_1557,59.9929574017,MAFE4ImagesEEG,001,200911,
AFNE01.JPG,AFNE01.JPG,AFNE01.JPG,AFNE01.JPG,AFNE01.JPG,AFNE01.JPG,,,,,3,8,38,2,,,,,,,,,,,,,,,,,,,AFNE16.jpg,AFSA08.jpg,AFNE09.jpg,AFSA01.jpg,AFSA08.jpg,FS,4,num_6,16,num_6,0.817017651629,,,2017_Jul_12_1557,59.9929574017,MAFE4ImagesEEG,001,200911,
AFNE01.JPG,AFNE01.JPG,AFNE01.JPG,AFNE01.JPG,AFNE01.JPG,AFNE01.JPG,,,,,3,9,39,8,,,,,,,,,,,,,,,,,,,AFNE03.jpg,AFNE11.jpg,AFSA06.jpg,AFSA09.jpg,AFNE11.jpg,FN,3,num_6,16,num_6,0.600207261741,,,2017_Jul_12_1557,59.9929574017,MAFE4ImagesEEG,001,200911,
AFNE01.JPG,AFNE01.JPG,AFNE01.JPG,AFNE01.JPG,AFNE01.JPG,AFNE01.JPG,,,,,4,0,40,2,,,,,,,,,,,,,,,,,,,AFSA10.jpg,AFSA17.jpg,AFNE17.jpg,AFNE07.jpg,AFNE17.jpg,FN,3,num_2,16,num_2,0.86705039884,,,2017_Jul_12_1557,59.9929574017,MAFE4ImagesEEG,001,200911,
AFNE01.JPG,AFNE01.JPG,AFNE01.JPG,AFNE01.JPG,AFNE01.JPG,AFNE01.JPG,,,,,4,1,41,9,,,,,,,,,,,,,,,,,,,AFNE02.jpg,AFSA14.jpg,AFNE17.jpg,AFSA17.jpg,AFNE17.jpg,FN,3,num_2,32,num_8,1.96667840565,,,2017_Jul_12_1557,59.9929574017,MAFE4ImagesEEG,001,200911,
AFNE01.JPG,AFNE01.JPG,AFNE01.JPG,AFNE01.JPG,AFNE01.JPG,AFNE01.JPG,,,,,4,2,42,0,,,,,,,,,,,,,,,,,,,AFNE07.jpg,AFSA03.jpg,AFSA09.jpg,AFNE14.jpg,AFNE07.jpg,FN,3,num_8,16,num_8,0.750130059663,,,2017_Jul_12_1557,59.9929574017,MAFE4ImagesEEG,001,200911,
AFNE01.JPG,AFNE01.JPG,AFNE01.JPG,AFNE01.JPG,AFNE01.JPG,AFNE01.JPG,,,,,4,3,43,8,,,,,,,,,,,,,,,,,,,AFNE17.jpg,AFNE09.jpg,AFSA19.jpg,AFSA12.jpg,AFSA19.jpg,FS,4,num_2,16,num_2,0.966740950011,,,2017_Jul_12_1557,59.9929574017,MAFE4ImagesEEG,001,200911,
AFNE01.JPG,AFNE01.JPG,AFNE01.JPG,AFNE01.JPG,AFNE01.JPG,AFNE01.JPG,,,,,4,4,44,6,,,,,,,,,,,,,,,,,,,AFSA12.jpg,AFNE16.jpg,AFSA08.jpg,AFNE13.jpg,AFNE16.jpg,FN,3,num_6,16,num_6,1.11679525115,,,2017_Jul_12_1557,59.9929574017,MAFE4ImagesEEG,001,200911,
AFNE01.JPG,AFNE01.JPG,AFNE01.JPG,AFNE01.JPG,AFNE01.JPG,AFNE01.JPG,,,,,4,5,45,3,,,,,,,,,,,,,,,,,,,AFNE19.jpg,AFSA14.jpg,AFNE03.jpg,AFSA20.jpg,AFSA20.jpg,FS,4,num_4,32,num_2,0.783452295465,,,2017_Jul_12_1557,59.9929574017,MAFE4ImagesEEG,001,200911,
AFNE01.JPG,AFNE01.JPG,AFNE01.JPG,AFNE01.JPG,AFNE01.JPG,AFNE01.JPG,,,,,4,6,46,7,,,,,,,,,,,,,,,,,,,AFNE13.jpg,AFNE18.jpg,AFSA18.jpg,AFSA05.jpg,AFNE18.jpg,FN,3,num_6,16,num_6,1.6500257554,,,2017_Jul_12_1557,59.9929574017,MAFE4ImagesEEG,001,200911,
AFNE01.JPG,AFNE01.JPG,AFNE01.JPG,AFNE01.JPG,AFNE01.JPG,AFNE01.JPG,,,,,4,7,47,1,,,,,,,,,,,,,,,,,,,AFNE11.jpg,AFSA05.jpg,AFNE16.jpg,AFSA07.jpg,AFSA05.jpg,FS,4,num_6,16,num_6,1.63338067452,,,2017_Jul_12_1557,59.9929574017,MAFE4ImagesEEG,001,200911,
AFNE01.JPG,AFNE01.JPG,AFNE01.JPG,AFNE01.JPG,AFNE01.JPG,AFNE01.JPG,,,,,4,8,48,4,,,,,,,,,,,,,,,,,,,AFSA15.jpg,AFNE03.jpg,AFSA18.jpg,AFNE19.jpg,AFSA15.jpg,FS,4,num_8,16,num_8,0.933414223837,,,2017_Jul_12_1557,59.9929574017,MAFE4ImagesEEG,001,200911,
AFNE01.JPG,AFNE01.JPG,AFNE01.JPG,AFNE01.JPG,AFNE01.JPG,AFNE01.JPG,,,,,4,9,49,5,,,,,,,,,,,,,,,,,,,AFNE07.jpg,AFSA06.jpg,AFNE12.jpg,AFSA03.jpg,AFSA06.jpg,FS,4,num_6,32,num_2,0.866720678983,,,2017_Jul_12_1557,59.9929574017,MAFE4ImagesEEG,001,200911,
AFNE01.JPG,AFNE01.JPG,AFNE01.JPG,AFNE01.JPG,AFNE01.JPG,AFNE01.JPG,,,,,5,0,50,2,,,,,,,,,,,,,,,,,,,AFSA03.jpg,AFNE17.jpg,AFNE12.jpg,AFSA18.jpg,AFNE12.jpg,FN,3,num_2,32,num_4,0.83384555392,,,2017_Jul_12_1557,59.9929574017,MAFE4ImagesEEG,001,200911,
AFNE01.JPG,AFNE01.JPG,AFNE01.JPG,AFNE01.JPG,AFNE01.JPG,AFNE01.JPG,,,,,5,1,51,5,,,,,,,,,,,,,,,,,,,AFSA06.jpg,AFNE05.jpg,AFNE12.jpg,AFSA09.jpg,AFNE05.jpg,FN,3,num_6,32,num_8,0.716823540162,,,2017_Jul_12_1557,59.9929574017,MAFE4ImagesEEG,001,200911,
AFNE01.JPG,AFNE01.JPG,AFNE01.JPG,AFNE01.JPG,AFNE01.JPG,AFNE01.JPG,,,,,5,2,52,4,,,,,,,,,,,,,,,,,,,AFSA06.jpg,AFNE09.jpg,AFNE16.jpg,AFSA02.jpg,AFNE16.jpg,FN,3,num_2,32,num_6,0.633451878559,,,2017_Jul_12_1557,59.9929574017,MAFE4ImagesEEG,001,200911,
AFNE01.JPG,AFNE01.JPG,AFNE01.JPG,AFNE01.JPG,AFNE01.JPG,AFNE01.JPG,,,,,5,3,53,6,,,,,,,,,,,,,,,,,,,AFSA18.jpg,AFNE19.jpg,AFNE10.jpg,AFSA12.jpg,AFNE19.jpg,FN,3,num_6,16,num_6,0.933452712605,,,2017_Jul_12_1557,59.9929574017,MAFE4ImagesEEG,001,200911,
AFNE01.JPG,AFNE01.JPG,AFNE01.JPG,AFNE01.JPG,AFNE01.JPG,AFNE01.JPG,,,,,5,4,54,3,,,,,,,,,,,,,,,,,,,AFNE13.jpg,AFSA05.jpg,AFSA07.jpg,AFNE18.jpg,AFSA05.jpg,FS,4,num_6,32,num_8,0.95012409403,,,2017_Jul_12_1557,59.9929574017,MAFE4ImagesEEG,001,200911,
AFNE01.JPG,AFNE01.JPG,AFNE01.JPG,AFNE01.JPG,AFNE01.JPG,AFNE01.JPG,,,,,5,5,55,7,,,,,,,,,,,,,,,,,,,AFNE06.jpg,AFSA04.jpg,AFNE18.jpg,AFSA07.jpg,AFSA04.jpg,FS,4,num_6,16,num_6,0.700092821848,,,2017_Jul_12_1557,59.9929574017,MAFE4ImagesEEG,001,200911,
AFNE01.JPG,AFNE01.JPG,AFNE01.JPG,AFNE01.JPG,AFNE01.JPG,AFNE01.JPG,,,,,5,6,56,9,,,,,,,,,,,,,,,,,,,AFSA06.jpg,AFNE17.jpg,AFNE14.jpg,AFSA14.jpg,AFNE17.jpg,FN,3,num_6,16,num_6,1.48346717795,,,2017_Jul_12_1557,59.9929574017,MAFE4ImagesEEG,001,200911,
AFNE01.JPG,AFNE01.JPG,AFNE01.JPG,AFNE01.JPG,AFNE01.JPG,AFNE01.JPG,,,,,5,7,57,0,,,,,,,,,,,,,,,,,,,AFSA20.jpg,AFNE15.jpg,AFSA08.jpg,AFNE04.jpg,AFNE04.jpg,FN,3,num_4,16,num_4,0.650129995542,,,2017_Jul_12_1557,59.9929574017,MAFE4ImagesEEG,001,200911,
AFNE01.JPG,AFNE01.JPG,AFNE01.JPG,AFNE01.JPG,AFNE01.JPG,AFNE01.JPG,,,,,5,8,58,8,,,,,,,,,,,,,,,,,,,AFSA12.jpg,AFSA19.jpg,AFNE20.jpg,AFNE19.jpg,AFNE20.jpg,FN,3,num_2,32,num_8,0.883454284165,,,2017_Jul_12_1557,59.9929574017,MAFE4ImagesEEG,001,200911,
AFNE01.JPG,AFNE01.JPG,AFNE01.JPG,AFNE01.JPG,AFNE01.JPG,AFNE01.JPG,,,,,5,9,59,1,,,,,,,,,,,,,,,,,,,AFNE18.jpg,AFNE15.jpg,AFSA02.jpg,AFSA10.jpg,AFSA02.jpg,FS,4,num_2,32,num_6,1.05008759373,,,2017_Jul_12_1557,59.9929574017,MAFE4ImagesEEG,001,200911,
,,,,,,,,,,,,,,,,,,,,,,,,,,,,,,,,,,,,,,,,,,,space,15.3659098505,2017_Jul_12_1557,59.9929574017,MAFE4ImagesEEG,001,200911,
AFNE01.JPG,AFNE01.JPG,AFNE01.JPG,AFNE01.JPG,AFNE01.JPG,AFNE01.JPG,,,,,,,,,0,0,0,5,,,,,,,,,,,,,,,AMSA12.jpg,AMNE20.jpg,AMNE12.jpg,AMSA01.jpg,AMSA01.jpg,MS,2,num_4,16,num_4,1.03350666096,,,2017_Jul_12_1557,59.9929574017,MAFE4ImagesEEG,001,200911,
AFNE01.JPG,AFNE01.JPG,AFNE01.JPG,AFNE01.JPG,AFNE01.JPG,AFNE01.JPG,,,,,,,,,0,1,1,1,,,,,,,,,,,,,,,AMSA14.jpg,AMNE13.jpg,AMSA08.jpg,AMNE06.jpg,AMSA14.jpg,MS,2,num_8,16,num_8,0.416786462767,,,2017_Jul_12_1557,59.9929574017,MAFE4ImagesEEG,001,200911,
AFNE01.JPG,AFNE01.JPG,AFNE01.JPG,AFNE01.JPG,AFNE01.JPG,AFNE01.JPG,,,,,,,,,0,2,2,3,,,,,,,,,,,,,,,AMSA17.jpg,AMNE03.jpg,AMNE19.jpg,AMSA03.jpg,AMNE03.jpg,MN,1,num_6,32,num_2,1.25006751553,,,2017_Jul_12_1557,59.9929574017,MAFE4ImagesEEG,001,200911,
AFNE01.JPG,AFNE01.JPG,AFNE01.JPG,AFNE01.JPG,AFNE01.JPG,AFNE01.JPG,,,,,,,,,0,3,3,9,,,,,,,,,,,,,,,AMSA09.jpg,AMNE07.jpg,AMNE12.jpg,AMSA07.jpg,AMSA07.jpg,MS,2,num_4,32,num_8,0.983472630382,,,2017_Jul_12_1557,59.9929574017,MAFE4ImagesEEG,001,200911,
AFNE01.JPG,AFNE01.JPG,AFNE01.JPG,AFNE01.JPG,AFNE01.JPG,AFNE01.JPG,,,,,,,,,0,4,4,6,,,,,,,,,,,,,,,AMNE02.jpg,AMSA01.jpg,AMNE01.jpg,AMSA15.jpg,AMNE02.jpg,MN,1,num_8,32,num_2,1.51669832342,,,2017_Jul_12_1557,59.9929574017,MAFE4ImagesEEG,001,200911,
AFNE01.JPG,AFNE01.JPG,AFNE01.JPG,AFNE01.JPG,AFNE01.JPG,AFNE01.JPG,,,,,,,,,0,5,5,7,,,,,,,,,,,,,,,AMNE13.jpg,AMNE09.jpg,AMSA14.jpg,AMSA07.jpg,AMSA07.jpg,MS,2,num_4,16,num_4,0.800145487301,,,2017_Jul_12_1557,59.9929574017,MAFE4ImagesEEG,001,200911,
AFNE01.JPG,AFNE01.JPG,AFNE01.JPG,AFNE01.JPG,AFNE01.JPG,AFNE01.JPG,,,,,,,,,0,6,6,0,,,,,,,,,,,,,,,AMNE20.jpg,AMSA12.jpg,AMSA19.jpg,AMNE19.jpg,AMNE20.jpg,MN,1,num_8,16,num_8,1.90002784017,,,2017_Jul_12_1557,59.9929574017,MAFE4ImagesEEG,001,200911,
AFNE01.JPG,AFNE01.JPG,AFNE01.JPG,AFNE01.JPG,AFNE01.JPG,AFNE01.JPG,,,,,,,,,0,7,7,4,,,,,,,,,,,,,,,AMSA13.jpg,AMNE18.jpg,AMSA04.jpg,AMNE06.jpg,AMNE18.jpg,MN,1,num_6,32,num_8,0.73344167904,,,2017_Jul_12_1557,59.9929574017,MAFE4ImagesEEG,001,200911,
AFNE01.JPG,AFNE01.JPG,AFNE01.JPG,AFNE01.JPG,AFNE01.JPG,AFNE01.JPG,,,,,,,,,0,8,8,8,,,,,,,,,,,,,,,AMNE02.jpg,AMNE01.jpg,AMSA12.jpg,AMSA07.jpg,AMNE02.jpg,MN,1,num_8,16,num_8,3.16658648173,,,2017_Jul_12_1557,59.9929574017,MAFE4ImagesEEG,001,200911,
AFNE01.JPG,AFNE01.JPG,AFNE01.JPG,AFNE01.JPG,AFNE01.JPG,AFNE01.JPG,,,,,,,,,0,9,9,2,,,,,,,,,,,,,,,AMNE04.jpg,AMSA20.jpg,AMNE03.jpg,AMSA12.jpg,AMSA20.jpg,MS,2,num_6,32,num_4,1.16670194804,,,2017_Jul_12_1557,59.9929574017,MAFE4ImagesEEG,001,200911,
AFNE01.JPG,AFNE01.JPG,AFNE01.JPG,AFNE01.JPG,AFNE01.JPG,AFNE01.JPG,,,,,,,,,1,0,10,2,,,,,,,,,,,,,,,AMNE05.jpg,AMSA13.jpg,AMSA05.jpg,AMNE06.jpg,AMSA13.jpg,MS,2,num_6,32,num_2,0.66683184728,,,2017_Jul_12_1557,59.9929574017,MAFE4ImagesEEG,001,200911,
AFNE01.JPG,AFNE01.JPG,AFNE01.JPG,AFNE01.JPG,AFNE01.JPG,AFNE01.JPG,,,,,,,,,1,1,11,6,,,,,,,,,,,,,,,AMNE07.jpg,AMSA20.jpg,AMNE02.jpg,AMSA01.jpg,AMSA01.jpg,MS,2,num_4,16,num_4,0.75022884761,,,2017_Jul_12_1557,59.9929574017,MAFE4ImagesEEG,001,200911,
AFNE01.JPG,AFNE01.JPG,AFNE01.JPG,AFNE01.JPG,AFNE01.JPG,AFNE01.JPG,,,,,,,,,1,2,12,8,,,,,,,,,,,,,,,AMSA20.jpg,AMNE15.jpg,AMSA16.jpg,AMNE17.jpg,AMNE15.jpg,MN,1,num_6,16,num_6,1.53344604117,,,2017_Jul_12_1557,59.9929574017,MAFE4ImagesEEG,001,200911,
AFNE01.JPG,AFNE01.JPG,AFNE01.JPG,AFNE01.JPG,AFNE01.JPG,AFNE01.JPG,,,,,,,,,1,3,13,5,,,,,,,,,,,,,,,AMNE10.jpg,AMNE04.jpg,AMSA10.jpg,AMSA19.jpg,AMNE10.jpg,MN,1,num_8,16,num_8,1.08341015037,,,2017_Jul_12_1557,59.9929574017,MAFE4ImagesEEG,001,200911,
AFNE01.JPG,AFNE01.JPG,AFNE01.JPG,AFNE01.JPG,AFNE01.JPG,AFNE01.JPG,,,,,,,,,1,4,14,0,,,,,,,,,,,,,,,AMNE07.jpg,AMNE08.jpg,AMSA02.jpg,AMSA19.jpg,AMSA02.jpg,MS,2,num_2,32,num_6,1.25007328903,,,2017_Jul_12_1557,59.9929574017,MAFE4ImagesEEG,001,200911,
AFNE01.JPG,AFNE01.JPG,AFNE01.JPG,AFNE01.JPG,AFNE01.JPG,AFNE01.JPG,,,,,,,,,1,5,15,1,,,,,,,,,,,,,,,AMSA19.jpg,AMNE05.jpg,AMNE13.jpg,AMSA18.jpg,AMSA19.jpg,MS,2,num_8,32,num_4,0.600129322149,,,2017_Jul_12_1557,59.9929574017,MAFE4ImagesEEG,001,200911,
AFNE01.JPG,AFNE01.JPG,AFNE01.JPG,AFNE01.JPG,AFNE01.JPG,AFNE01.JPG,,,,,,,,,1,6,16,9,,,,,,,,,,,,,,,AMNE02.jpg,AMSA03.jpg,AMNE17.jpg,AMSA10.jpg,AMSA10.jpg,MS,2,num_4,32,num_6,1.00018025562,,,2017_Jul_12_1557,59.9929574017,MAFE4ImagesEEG,001,200911,
AFNE01.JPG,AFNE01.JPG,AFNE01.JPG,AFNE01.JPG,AFNE01.JPG,AFNE01.JPG,,,,,,,,,1,7,17,3,,,,,,,,,,,,,,,AMSA19.jpg,AMNE18.jpg,AMSA06.jpg,AMNE07.jpg,AMNE18.jpg,MN,1,num_6,16,num_6,1.25007809978,,,2017_Jul_12_1557,59.9929574017,MAFE4ImagesEEG,001,200911,
AFNE01.JPG,AFNE01.JPG,AFNE01.JPG,AFNE01.JPG,AFNE01.JPG,AFNE01.JPG,,,,,,,,,1,8,18,4,,,,,,,,,,,,,,,AMSA09.jpg,AMNE04.jpg,AMSA04.jpg,AMNE17.jpg,AMSA04.jpg,MS,2,num_2,16,num_2,0.900144268526,,,2017_Jul_12_1557,59.9929574017,MAFE4ImagesEEG,001,200911,
AFNE01.JPG,AFNE01.JPG,AFNE01.JPG,AFNE01.JPG,AFNE01.JPG,AFNE01.JPG,,,,,,,,,1,9,19,7,,,,,,,,,,,,,,,AMNE02.jpg,AMSA07.jpg,AMNE16.jpg,AMSA14.jpg,AMNE16.jpg,MN,1,num_2,32,num_8,1.30030713975,,,2017_Jul_12_1557,59.9929574017,MAFE4ImagesEEG,001,200911,
AFNE01.JPG,AFNE01.JPG,AFNE01.JPG,AFNE01.JPG,AFNE01.JPG,AFNE01.JPG,,,,,,,,,2,0,20,4,,,,,,,,,,,,,,,AMSA17.jpg,AMNE07.jpg,AMSA10.jpg,AMNE20.jpg,AMNE20.jpg,MN,1,num_4,16,num_4,0.733517694287,,,2017_Jul_12_1557,59.9929574017,MAFE4ImagesEEG,001,200911,
AFNE01.JPG,AFNE01.JPG,AFNE01.JPG,AFNE01.JPG,AFNE01.JPG,AFNE01.JPG,,,,,,,,,2,1,21,9,,,,,,,,,,,,,,,AMSA15.jpg,AMNE03.jpg,AMSA03.jpg,AMNE14.jpg,AMNE03.jpg,MN,1,num_6,16,num_6,0.950131791644,,,2017_Jul_12_1557,59.9929574017,MAFE4ImagesEEG,001,200911,
AFNE01.JPG,AFNE01.JPG,AFNE01.JPG,AFNE01.JPG,AFNE01.JPG,AFNE01.JPG,,,,,,,,,2,2,22,1,,,,,,,,,,,,,,,AMSA14.jpg,AMNE07.jpg,AMSA01.jpg,AMNE10.jpg,AMSA14.jpg,MS,2,num_8,32,num_2,0.850173423532,,,2017_Jul_12_1557,59.9929574017,MAFE4ImagesEEG,001,200911,
AFNE01.JPG,AFNE01.JPG,AFNE01.JPG,AFNE01.JPG,AFNE01.JPG,AFNE01.JPG,,,,,,,,,2,3,23,5,,,,,,,,,,,,,,,AMNE11.jpg,AMNE05.jpg,AMSA05.jpg,AMSA01.jpg,AMNE11.jpg,MN,1,num_8,16,num_8,1.56677565398,,,2017_Jul_12_1557,59.9929574017,MAFE4ImagesEEG,001,200911,
AFNE01.JPG,AFNE01.JPG,AFNE01.JPG,AFNE01.JPG,AFNE01.JPG,AFNE01.JPG,,,,,,,,,2,4,24,6,,,,,,,,,,,,,,,AMSA13.jpg,AMNE03.jpg,AMSA19.jpg,AMNE10.jpg,AMSA13.jpg,MS,2,num_8,16,num_8,2.31661993498,,,2017_Jul_12_1557,59.9929574017,MAFE4ImagesEEG,001,200911,
AFNE01.JPG,AFNE01.JPG,AFNE01.JPG,AFNE01.JPG,AFNE01.JPG,AFNE01.JPG,,,,,,,,,2,5,25,2,,,,,,,,,,,,,,,AMSA18.jpg,AMSA20.jpg,AMNE20.jpg,AMNE02.jpg,AMNE20.jpg,MN,1,num_2,16,num_2,1.45006668172,,,2017_Jul_12_1557,59.9929574017,MAFE4ImagesEEG,001,200911,
AFNE01.JPG,AFNE01.JPG,AFNE01.JPG,AFNE01.JPG,AFNE01.JPG,AFNE01.JPG,,,,,,,,,2,6,26,7,,,,,,,,,,,,,,,AMNE05.jpg,AMSA06.jpg,AMNE09.jpg,AMSA01.jpg,AMNE05.jpg,MN,1,num_8,32,num_6,0.833466119366,,,2017_Jul_12_1557,59.9929574017,MAFE4ImagesEEG,001,200911,
AFNE01.JPG,AFNE01.JPG,AFNE01.JPG,AFNE01.JPG,AFNE01.JPG,AFNE01.JPG,,,,,,,,,2,7,27,0,,,,,,,,,,,,,,,AMSA06.jpg,AMSA10.jpg,AMNE14.jpg,AMNE01.jpg,AMNE01.jpg,MN,1,num_4,32,num_8,1.75008547702,,,2017_Jul_12_1557,59.9929574017,MAFE4ImagesEEG,001,200911,
AFNE01.JPG,AFNE01.JPG,AFNE01.JPG,AFNE01.JPG,AFNE01.JPG,AFNE01.JPG,,,,,,,,,2,8,28,3,,,,,,,,,,,,,,,AMSA02.jpg,AMNE16.jpg,AMNE11.jpg,AMSA05.jpg,AMNE11.jpg,MN,1,num_2,32,num_6,0.933423846029,,,2017_Jul_12_1557,59.9929574017,MAFE4ImagesEEG,001,200911,
AFNE01.JPG,AFNE01.JPG,AFNE01.JPG,AFNE01.JPG,AFNE01.JPG,AFNE01.JPG,,,,,,,,,2,9,29,8,,,,,,,,,,,,,,,AMNE01.jpg,AMSA20.jpg,AMSA01.jpg,AMNE16.jpg,AMNE16.jpg,MN,1,num_4,16,num_4,0.916783896973,,,2017_Jul_12_1557,59.9929574017,MAFE4ImagesEEG,001,200911,
AFNE01.JPG,AFNE01.JPG,AFNE01.JPG,AFNE01.JPG,AFNE01.JPG,AFNE01.JPG,,,,,,,,,3,0,30,1,,,,,,,,,,,,,,,AMNE19.jpg,AMSA15.jpg,AMNE15.jpg,AMSA19.jpg,AMSA19.jpg,MS,2,num_4,32,num_6,0.700123613002,,,2017_Jul_12_1557,59.9929574017,MAFE4ImagesEEG,001,200911,
AFNE01.JPG,AFNE01.JPG,AFNE01.JPG,AFNE01.JPG,AFNE01.JPG,AFNE01.JPG,,,,,,,,,3,1,31,7,,,,,,,,,,,,,,,AMNE05.jpg,AMNE04.jpg,AMSA19.jpg,AMSA04.jpg,AMSA19.jpg,MS,2,num_2,16,num_2,1.01662744023,,,2017_Jul_12_1557,59.9929574017,MAFE4ImagesEEG,001,200911,
AFNE01.JPG,AFNE01.JPG,AFNE01.JPG,AFNE01.JPG,AFNE01.JPG,AFNE01.JPG,,,,,,,,,3,2,32,3,,,,,,,,,,,,,,,AMSA06.jpg,AMNE13.jpg,AMNE17.jpg,AMSA17.jpg,AMSA17.jpg,MS,2,num_4,16,num_4,0.866768148495,,,2017_Jul_12_1557,59.9929574017,MAFE4ImagesEEG,001,200911,
AFNE01.JPG,AFNE01.JPG,AFNE01.JPG,AFNE01.JPG,AFNE01.JPG,AFNE01.JPG,,,,,,,,,3,3,33,4,,,,,,,,,,,,,,,AMSA01.jpg,AMNE16.jpg,AMSA02.jpg,AMNE18.jpg,AMSA02.jpg,MS,2,num_2,16,num_2,3.11655694176,,,2017_Jul_12_1557,59.9929574017,MAFE4ImagesEEG,001,200911,
AFNE01.JPG,AFNE01.JPG,AFNE01.JPG,AFNE01.JPG,AFNE01.JPG,AFNE01.JPG,,,,,,,,,3,4,34,5,,,,,,,,,,,,,,,AMNE18.jpg,AMNE13.jpg,AMSA06.jpg,AMSA12.jpg,AMNE18.jpg,MN,1,num_8,16,num_8,1.73340222798,,,2017_Jul_12_1557,59.9929574017,MAFE4ImagesEEG,001,200911,
AFNE01.JPG,AFNE01.JPG,AFNE01.JPG,AFNE01.JPG,AFNE01.JPG,AFNE01.JPG,,,,,,,,,3,5,35,9,,,,,,,,,,,,,,,AMNE20.jpg,AMSA19.jpg,AMSA06.jpg,AMNE09.jpg,AMNE09.jpg,MN,1,num_4,16,num_4,1.18342657224,,,2017_Jul_12_1557,59.9929574017,MAFE4ImagesEEG,001,200911,
AFNE01.JPG,AFNE01.JPG,AFNE01.JPG,AFNE01.JPG,AFNE01.JPG,AFNE01.JPG,,,,,,,,,3,6,36,8,,,,,,,,,,,,,,,AMSA12.jpg,AMSA06.jpg,AMNE17.jpg,AMNE10.jpg,AMSA06.jpg,MS,2,num_6,32,num_2,1.38338981546,,,2017_Jul_12_1557,59.9929574017,MAFE4ImagesEEG,001,200911,
AFNE01.JPG,AFNE01.JPG,AFNE01.JPG,AFNE01.JPG,AFNE01.JPG,AFNE01.JPG,,,,,,,,,3,7,37,0,,,,,,,,,,,,,,,AMNE05.jpg,AMSA03.jpg,AMNE08.jpg,AMSA04.jpg,AMNE05.jpg,MN,1,num_8,16,num_8,0.783282624558,,,2017_Jul_12_1557,59.9929574017,MAFE4ImagesEEG,001,200911,
AFNE01.JPG,AFNE01.JPG,AFNE01.JPG,AFNE01.JPG,AFNE01.JPG,AFNE01.JPG,,,,,,,,,3,8,38,2,,,,,,,,,,,,,,,AMNE20.jpg,AMNE16.jpg,AMSA10.jpg,AMSA20.jpg,AMSA10.jpg,MS,2,num_2,16,num_2,0.716781844152,,,2017_Jul_12_1557,59.9929574017,MAFE4ImagesEEG,001,200911,
AFNE01.JPG,AFNE01.JPG,AFNE01.JPG,AFNE01.JPG,AFNE01.JPG,AFNE01.JPG,,,,,,,,,3,9,39,6,,,,,,,,,,,,,,,AMNE18.jpg,AMSA18.jpg,AMSA05.jpg,AMNE19.jpg,AMNE18.jpg,MN,1,num_8,32,num_4,1.11675708299,,,2017_Jul_12_1557,59.9929574017,MAFE4ImagesEEG,001,200911,
AFNE01.JPG,AFNE01.JPG,AFNE01.JPG,AFNE01.JPG,AFNE01.JPG,AFNE01.JPG,,,,,,,,,4,0,40,9,,,,,,,,,,,,,,,AMNE16.jpg,AMSA12.jpg,AMSA02.jpg,AMNE07.jpg,AMNE07.jpg,MN,1,num_4,32,num_8,0.816771002952,,,2017_Jul_12_1557,59.9929574017,MAFE4ImagesEEG,001,200911,
AFNE01.JPG,AFNE01.JPG,AFNE01.JPG,AFNE01.JPG,AFNE01.JPG,AFNE01.JPG,,,,,,,,,4,1,41,3,,,,,,,,,,,,,,,AMSA16.jpg,AMNE15.jpg,AMNE12.jpg,AMSA11.jpg,AMNE15.jpg,MN,1,num_6,16,num_6,0.966756345471,,,2017_Jul_12_1557,59.9929574017,MAFE4ImagesEEG,001,200911,
AFNE01.JPG,AFNE01.JPG,AFNE01.JPG,AFNE01.JPG,AFNE01.JPG,AFNE01.JPG,,,,,,,,,4,2,42,1,,,,,,,,,,,,,,,AMSA05.jpg,AMNE08.jpg,AMNE16.jpg,AMSA03.jpg,AMSA03.jpg,MS,2,num_4,16,num_4,0.916740917834,,,2017_Jul_12_1557,59.9929574017,MAFE4ImagesEEG,001,200911,
AFNE01.JPG,AFNE01.JPG,AFNE01.JPG,AFNE01.JPG,AFNE01.JPG,AFNE01.JPG,,,,,,,,,4,3,43,4,,,,,,,,,,,,,,,AMNE03.jpg,AMSA11.jpg,AMNE17.jpg,AMSA01.jpg,AMNE17.jpg,MN,1,num_2,16,num_2,1.20011206623,,,2017_Jul_12_1557,59.9929574017,MAFE4ImagesEEG,001,200911,
AFNE01.JPG,AFNE01.JPG,AFNE01.JPG,AFNE01.JPG,AFNE01.JPG,AFNE01.JPG,,,,,,,,,4,4,44,0,,,,,,,,,,,,,,,AMNE02.jpg,AMSA06.jpg,AMSA07.jpg,AMNE05.jpg,AMNE02.jpg,MN,1,num_8,16,num_8,1.11680423189,,,2017_Jul_12_1557,59.9929574017,MAFE4ImagesEEG,001,200911,
AFNE01.JPG,AFNE01.JPG,AFNE01.JPG,AFNE01.JPG,AFNE01.JPG,AFNE01.JPG,,,,,,,,,4,5,45,7,,,,,,,,,,,,,,,AMSA08.jpg,AMSA14.jpg,AMNE13.jpg,AMNE01.jpg,AMNE01.jpg,MN,1,num_4,16,num_4,1.10008570156,,,2017_Jul_12_1557,59.9929574017,MAFE4ImagesEEG,001,200911,
AFNE01.JPG,AFNE01.JPG,AFNE01.JPG,AFNE01.JPG,AFNE01.JPG,AFNE01.JPG,,,,,,,,,4,6,46,5,,,,,,,,,,,,,,,AMNE01.jpg,AMNE20.jpg,AMSA12.jpg,AMSA17.jpg,AMNE01.jpg,MN,1,num_8,16,num_8,0.766762952553,,,2017_Jul_12_1557,59.9929574017,MAFE4ImagesEEG,001,200911,
AFNE01.JPG,AFNE01.JPG,AFNE01.JPG,AFNE01.JPG,AFNE01.JPG,AFNE01.JPG,,,,,,,,,4,7,47,2,,,,,,,,,,,,,,,AMNE02.jpg,AMSA05.jpg,AMNE06.jpg,AMSA03.jpg,AMSA05.jpg,MS,2,num_6,32,num_2,0.783530876739,,,2017_Jul_12_1557,59.9929574017,MAFE4ImagesEEG,001,200911,
AFNE01.JPG,AFNE01.JPG,AFNE01.JPG,AFNE01.JPG,AFNE01.JPG,AFNE01.JPG,,,,,,,,,4,8,48,6,,,,,,,,,,,,,,,AMNE15.jpg,AMSA19.jpg,AMSA14.jpg,AMNE09.jpg,AMSA14.jpg,MS,2,num_2,32,num_8,1.61669774633,,,2017_Jul_12_1557,59.9929574017,MAFE4ImagesEEG,001,200911,
AFNE01.JPG,AFNE01.JPG,AFNE01.JPG,AFNE01.JPG,AFNE01.JPG,AFNE01.JPG,,,,,,,,,4,9,49,8,,,,,,,,,,,,,,,AMNE02.jpg,AMSA11.jpg,AMNE16.jpg,AMSA18.jpg,AMNE16.jpg,MN,1,num_2,32,num_8,0.950109981466,,,2017_Jul_12_1557,59.9929574017,MAFE4ImagesEEG,001,200911,
AFNE01.JPG,AFNE01.JPG,AFNE01.JPG,AFNE01.JPG,AFNE01.JPG,AFNE01.JPG,,,,,,,,,5,0,50,2,,,,,,,,,,,,,,,AMSA09.jpg,AMNE14.jpg,AMNE04.jpg,AMSA02.jpg,AMNE14.jpg,MN,1,num_6,32,num_4,1.89998870995,,,2017_Jul_12_1557,59.9929574017,MAFE4ImagesEEG,001,200911,
AFNE01.JPG,AFNE01.JPG,AFNE01.JPG,AFNE01.JPG,AFNE01.JPG,AFNE01.JPG,,,,,,,,,5,1,51,4,,,,,,,,,,,,,,,AMSA01.jpg,AMNE01.jpg,AMSA13.jpg,AMNE04.jpg,AMSA01.jpg,MS,2,num_8,32,num_2,0.566803558031,,,2017_Jul_12_1557,59.9929574017,MAFE4ImagesEEG,001,200911,
AFNE01.JPG,AFNE01.JPG,AFNE01.JPG,AFNE01.JPG,AFNE01.JPG,AFNE01.JPG,,,,,,,,,5,2,52,8,,,,,,,,,,,,,,,AMNE19.jpg,AMSA07.jpg,AMSA06.jpg,AMNE02.jpg,AMSA07.jpg,MS,2,num_6,32,num_4,2.5666871299,,,2017_Jul_12_1557,59.9929574017,MAFE4ImagesEEG,001,200911,
AFNE01.JPG,AFNE01.JPG,AFNE01.JPG,AFNE01.JPG,AFNE01.JPG,AFNE01.JPG,,,,,,,,,5,3,53,0,,,,,,,,,,,,,,,AMNE10.jpg,AMSA17.jpg,AMNE18.jpg,AMSA19.jpg,AMNE10.jpg,MN,1,num_8,16,num_8,0.833430838073,,,2017_Jul_12_1557,59.9929574017,MAFE4ImagesEEG,001,200911,
AFNE01.JPG,AFNE01.JPG,AFNE01.JPG,AFNE01.JPG,AFNE01.JPG,AFNE01.JPG,,,,,,,,,5,4,54,1,,,,,,,,,,,,,,,AMSA08.jpg,AMNE12.jpg,AMNE05.jpg,AMSA04.jpg,AMNE12.jpg,MN,1,num_6,32,num_8,1.06673716498,,,2017_Jul_12_1557,59.9929574017,MAFE4ImagesEEG,001,200911,
AFNE01.JPG,AFNE01.JPG,AFNE01.JPG,AFNE01.JPG,AFNE01.JPG,AFNE01.JPG,,,,,,,,,5,5,55,7,,,,,,,,,,,,,,,AMSA08.jpg,AMNE02.jpg,AMSA19.jpg,AMNE04.jpg,AMNE04.jpg,MN,1,num_4,32,num_8,0.650150843663,,,2017_Jul_12_1557,59.9929574017,MAFE4ImagesEEG,001,200911,
AFNE01.JPG,AFNE01.JPG,AFNE01.JPG,AFNE01.JPG,AFNE01.JPG,AFNE01.JPG,,,,,,,,,5,6,56,6,,,,,,,,,,,,,,,AMSA11.jpg,AMNE19.jpg,AMSA10.jpg,AMNE12.jpg,AMSA10.jpg,MS,2,num_2,16,num_2,0.733455791604,,,2017_Jul_12_1557,59.9929574017,MAFE4ImagesEEG,001,200911,
AFNE01.JPG,AFNE01.JPG,AFNE01.JPG,AFNE01.JPG,AFNE01.JPG,AFNE01.JPG,,,,,,,,,5,7,57,9,,,,,,,,,,,,,,,AMSA18.jpg,AMSA05.jpg,AMNE17.jpg,AMNE04.jpg,AMNE17.jpg,MN,1,num_2,32,num_4,0.833452006802,,,2017_Jul_12_1557,59.9929574017,MAFE4ImagesEEG,001,200911,
AFNE01.JPG,AFNE01.JPG,AFNE01.JPG,AFNE01.JPG,AFNE01.JPG,AFNE01.JPG,,,,,,,,,5,8,58,3,,,,,,,,,,,,,,,AMNE13.jpg,AMNE03.jpg,AMSA03.jpg,AMSA07.jpg,AMNE03.jpg,MN,1,num_6,32,num_4,1.46672459226,,,2017_Jul_12_1557,59.9929574017,MAFE4ImagesEEG,001,200911,
AFNE01.JPG,AFNE01.JPG,AFNE01.JPG,AFNE01.JPG,AFNE01.JPG,AFNE01.JPG,,,,,,,,,5,9,59,5,,,,,,,,,,,,,,,AMNE05.jpg,AMSA20.jpg,AMSA19.jpg,AMNE02.jpg,AMSA20.jpg,MS,2,num_6,16,num_6,0.633474330418,,,2017_Jul_12_1557,59.9929574017,MAFE4ImagesEEG,001,200911,
,,,,,,,,,,,,,,,,,,,,,,,,,,,,,,,,,,,,,,,,,,,space,18.4820090975,2017_Jul_12_1557,59.9929574017,MAFE4ImagesEEG,001,200911,
AFNE01.JPG,AFNE01.JPG,AFNE01.JPG,AFNE01.JPG,AFNE01.JPG,AFNE01.JPG,,,,,,,,,,,,,0,0,0,2,,,,,,,,,,,AFSA07.jpg,AFNE01.jpg,AFNE20.jpg,AFSA13.jpg,AFNE20.jpg,FN,3,num_2,16,num_2,0.866853144486,,,2017_Jul_12_1557,59.9929574017,MAFE4ImagesEEG,001,200911,
AFNE01.JPG,AFNE01.JPG,AFNE01.JPG,AFNE01.JPG,AFNE01.JPG,AFNE01.JPG,,,,,,,,,,,,,0,1,1,6,,,,,,,,,,,AFNE04.jpg,AFNE09.jpg,AFSA10.jpg,AFSA17.jpg,AFSA10.jpg,FS,4,num_2,32,num_8,0.616763497703,,,2017_Jul_12_1557,59.9929574017,MAFE4ImagesEEG,001,200911,
AFNE01.JPG,AFNE01.JPG,AFNE01.JPG,AFNE01.JPG,AFNE01.JPG,AFNE01.JPG,,,,,,,,,,,,,0,2,2,0,,,,,,,,,,,AFSA02.jpg,AFNE08.jpg,AFNE14.jpg,AFSA06.jpg,AFSA06.jpg,FS,4,num_4,16,num_4,0.46676083561,,,2017_Jul_12_1557,59.9929574017,MAFE4ImagesEEG,001,200911,
AFNE01.JPG,AFNE01.JPG,AFNE01.JPG,AFNE01.JPG,AFNE01.JPG,AFNE01.JPG,,,,,,,,,,,,,0,3,3,1,,,,,,,,,,,AFSA14.jpg,AFSA13.jpg,AFNE11.jpg,AFNE02.jpg,AFSA14.jpg,FS,4,num_8,32,num_6,1.63337201439,,,2017_Jul_12_1557,59.9929574017,MAFE4ImagesEEG,001,200911,
AFNE01.JPG,AFNE01.JPG,AFNE01.JPG,AFNE01.JPG,AFNE01.JPG,AFNE01.JPG,,,,,,,,,,,,,0,4,4,3,,,,,,,,,,,AFNE07.jpg,AFSA09.jpg,AFNE04.jpg,AFSA07.jpg,AFSA07.jpg,FS,4,num_4,32,num_6,0.866788996616,,,2017_Jul_12_1557,59.9929574017,MAFE4ImagesEEG,001,200911,
AFNE01.JPG,AFNE01.JPG,AFNE01.JPG,AFNE01.JPG,AFNE01.JPG,AFNE01.JPG,,,,,,,,,,,,,0,5,5,7,,,,,,,,,,,AFSA13.jpg,AFNE18.jpg,AFNE07.jpg,AFSA08.jpg,AFNE07.jpg,FN,3,num_2,16,num_2,0.883437605575,,,2017_Jul_12_1557,59.9929574017,MAFE4ImagesEEG,001,200911,
AFNE01.JPG,AFNE01.JPG,AFNE01.JPG,AFNE01.JPG,AFNE01.JPG,AFNE01.JPG,,,,,,,,,,,,,0,6,6,9,,,,,,,,,,,AFSA01.jpg,AFSA19.jpg,AFNE20.jpg,AFNE01.jpg,AFSA19.jpg,FS,4,num_6,32,num_8,1.90008204523,,,2017_Jul_12_1557,59.9929574017,MAFE4ImagesEEG,001,200911,
AFNE01.JPG,AFNE01.JPG,AFNE01.JPG,AFNE01.JPG,AFNE01.JPG,AFNE01.JPG,,,,,,,,,,,,,0,7,7,8,,,,,,,,,,,AFSA03.jpg,AFNE20.jpg,AFNE19.jpg,AFSA07.jpg,AFSA07.jpg,FS,4,num_4,16,num_4,1.15012069419,,,2017_Jul_12_1557,59.9929574017,MAFE4ImagesEEG,001,200911,
AFNE01.JPG,AFNE01.JPG,AFNE01.JPG,AFNE01.JPG,AFNE01.JPG,AFNE01.JPG,,,,,,,,,,,,,0,8,8,5,,,,,,,,,,,AFNE14.jpg,AFNE20.jpg,AFSA04.jpg,AFSA16.jpg,AFNE20.jpg,FN,3,num_6,16,num_6,1.06680227537,,,2017_Jul_12_1557,59.9929574017,MAFE4ImagesEEG,001,200911,
AFNE01.JPG,AFNE01.JPG,AFNE01.JPG,AFNE01.JPG,AFNE01.JPG,AFNE01.JPG,,,,,,,,,,,,,0,9,9,4,,,,,,,,,,,AFNE06.jpg,AFSA13.jpg,AFSA18.jpg,AFNE09.jpg,AFNE06.jpg,FN,3,num_8,16,num_8,1.10013092589,,,2017_Jul_12_1557,59.9929574017,MAFE4ImagesEEG,001,200911,
AFNE01.JPG,AFNE01.JPG,AFNE01.JPG,AFNE01.JPG,AFNE01.JPG,AFNE01.JPG,,,,,,,,,,,,,1,0,10,7,,,,,,,,,,,AFSA13.jpg,AFNE09.jpg,AFSA14.jpg,AFNE10.jpg,AFNE10.jpg,FN,3,num_4,16,num_4,0.966790022794,,,2017_Jul_12_1557,59.9929574017,MAFE4ImagesEEG,001,200911,
AFNE01.JPG,AFNE01.JPG,AFNE01.JPG,AFNE01.JPG,AFNE01.JPG,AFNE01.JPG,,,,,,,,,,,,,1,1,11,1,,,,,,,,,,,AFSA10.jpg,AFSA01.jpg,AFNE05.jpg,AFNE17.jpg,AFSA01.jpg,FS,4,num_6,32,num_2,0.633522441145,,,2017_Jul_12_1557,59.9929574017,MAFE4ImagesEEG,001,200911,
AFNE01.JPG,AFNE01.JPG,AFNE01.JPG,AFNE01.JPG,AFNE01.JPG,AFNE01.JPG,,,,,,,,,,,,,1,2,12,3,,,,,,,,,,,AFSA07.jpg,AFNE16.jpg,AFNE15.jpg,AFSA10.jpg,AFNE16.jpg,FN,3,num_6,32,num_4,0.633480744902,,,2017_Jul_12_1557,59.9929574017,MAFE4ImagesEEG,001,200911,
AFNE01.JPG,AFNE01.JPG,AFNE01.JPG,AFNE01.JPG,AFNE01.JPG,AFNE01.JPG,,,,,,,,,,,,,1,3,13,8,,,,,,,,,,,AFNE08.jpg,AFSA09.jpg,AFNE01.jpg,AFSA03.jpg,AFNE01.jpg,FN,3,num_2,32,num_8,0.933459127089,,,2017_Jul_12_1557,59.9929574017,MAFE4ImagesEEG,001,200911,
AFNE01.JPG,AFNE01.JPG,AFNE01.JPG,AFNE01.JPG,AFNE01.JPG,AFNE01.JPG,,,,,,,,,,,,,1,4,14,2,,,,,,,,,,,AFSA12.jpg,AFSA08.jpg,AFNE17.jpg,AFNE11.jpg,AFSA12.jpg,FS,4,num_8,16,num_8,1.06679329439,,,2017_Jul_12_1557,59.9929574017,MAFE4ImagesEEG,001,200911,
AFNE01.JPG,AFNE01.JPG,AFNE01.JPG,AFNE01.JPG,AFNE01.JPG,AFNE01.JPG,,,,,,,,,,,,,1,5,15,5,,,,,,,,,,,AFNE18.jpg,AFSA01.jpg,AFSA13.jpg,AFNE07.jpg,AFNE18.jpg,FN,3,num_8,32,num_4,0.650145391002,,,2017_Jul_12_1557,59.9929574017,MAFE4ImagesEEG,001,200911,
AFNE01.JPG,AFNE01.JPG,AFNE01.JPG,AFNE01.JPG,AFNE01.JPG,AFNE01.JPG,,,,,,,,,,,,,1,6,16,4,,,,,,,,,,,AFNE09.jpg,AFNE19.jpg,AFSA19.jpg,AFSA15.jpg,AFSA19.jpg,FS,4,num_2,32,num_6,0.583470770158,,,2017_Jul_12_1557,59.9929574017,MAFE4ImagesEEG,001,200911,
AFNE01.JPG,AFNE01.JPG,AFNE01.JPG,AFNE01.JPG,AFNE01.JPG,AFNE01.JPG,,,,,,,,,,,,,1,7,17,9,,,,,,,,,,,AFSA03.jpg,AFSA18.jpg,AFNE06.jpg,AFNE17.jpg,AFSA18.jpg,FS,4,num_6,16,num_6,0.616756120929,,,2017_Jul_12_1557,59.9929574017,MAFE4ImagesEEG,001,200911,
AFNE01.JPG,AFNE01.JPG,AFNE01.JPG,AFNE01.JPG,AFNE01.JPG,AFNE01.JPG,,,,,,,,,,,,,1,8,18,6,,,,,,,,,,,AFSA17.jpg,AFNE10.jpg,AFSA15.jpg,AFNE18.jpg,AFSA15.jpg,FS,4,num_2,16,num_2,0.633456368931,,,2017_Jul_12_1557,59.9929574017,MAFE4ImagesEEG,001,200911,
AFNE01.JPG,AFNE01.JPG,AFNE01.JPG,AFNE01.JPG,AFNE01.JPG,AFNE01.JPG,,,,,,,,,,,,,1,9,19,0,,,,,,,,,,,AFNE06.jpg,AFSA13.jpg,AFNE12.jpg,AFSA02.jpg,AFNE06.jpg,FN,3,num_8,32,num_2,0.950159695931,,,2017_Jul_12_1557,59.9929574017,MAFE4ImagesEEG,001,200911,
AFNE01.JPG,AFNE01.JPG,AFNE01.JPG,AFNE01.JPG,AFNE01.JPG,AFNE01.JPG,,,,,,,,,,,,,2,0,20,3,,,,,,,,,,,AFNE15.jpg,AFSA02.jpg,AFNE06.jpg,AFSA01.jpg,AFSA02.jpg,FS,4,num_6,16,num_6,0.850156103726,,,2017_Jul_12_1557,59.9929574017,MAFE4ImagesEEG,001,200911,
AFNE01.JPG,AFNE01.JPG,AFNE01.JPG,AFNE01.JPG,AFNE01.JPG,AFNE01.JPG,,,,,,,,,,,,,2,1,21,8,,,,,,,,,,,AFSA08.jpg,AFSA04.jpg,AFNE01.jpg,AFNE06.jpg,AFSA04.jpg,FS,4,num_6,16,num_6,0.600409968756,,,2017_Jul_12_1557,59.9929574017,MAFE4ImagesEEG,001,200911,
AFNE01.JPG,AFNE01.JPG,AFNE01.JPG,AFNE01.JPG,AFNE01.JPG,AFNE01.JPG,,,,,,,,,,,,,2,2,22,5,,,,,,,,,,,AFSA18.jpg,AFNE07.jpg,AFNE13.jpg,AFSA14.jpg,AFNE13.jpg,FN,3,num_2,32,num_4,0.950105491094,,,2017_Jul_12_1557,59.9929574017,MAFE4ImagesEEG,001,200911,
AFNE01.JPG,AFNE01.JPG,AFNE01.JPG,AFNE01.JPG,AFNE01.JPG,AFNE01.JPG,,,,,,,,,,,,,2,3,23,2,,,,,,,,,,,AFNE15.jpg,AFSA12.jpg,AFNE13.jpg,AFSA19.jpg,AFSA19.jpg,FS,4,num_4,16,num_4,0.733448093757,,,2017_Jul_12_1557,59.9929574017,MAFE4ImagesEEG,001,200911,
AFNE01.JPG,AFNE01.JPG,AFNE01.JPG,AFNE01.JPG,AFNE01.JPG,AFNE01.JPG,,,,,,,,,,,,,2,4,24,1,,,,,,,,,,,AFSA14.jpg,AFNE06.jpg,AFSA04.jpg,AFNE20.jpg,AFNE06.jpg,FN,3,num_6,32,num_4,0.866787072271,,,2017_Jul_12_1557,59.9929574017,MAFE4ImagesEEG,001,200911,
AFNE01.JPG,AFNE01.JPG,AFNE01.JPG,AFNE01.JPG,AFNE01.JPG,AFNE01.JPG,,,,,,,,,,,,,2,5,25,7,,,,,,,,,,,AFNE03.jpg,AFSA04.jpg,AFSA11.jpg,AFNE14.jpg,AFNE03.jpg,FN,3,num_8,16,num_8,0.650123580825,,,2017_Jul_12_1557,59.9929574017,MAFE4ImagesEEG,001,200911,
AFNE01.JPG,AFNE01.JPG,AFNE01.JPG,AFNE01.JPG,AFNE01.JPG,AFNE01.JPG,,,,,,,,,,,,,2,6,26,9,,,,,,,,,,,AFNE20.jpg,AFNE11.jpg,AFSA18.jpg,AFSA15.jpg,AFSA18.jpg,FS,4,num_2,16,num_2,0.600130605046,,,2017_Jul_12_1557,59.9929574017,MAFE4ImagesEEG,001,200911,
AFNE01.JPG,AFNE01.JPG,AFNE01.JPG,AFNE01.JPG,AFNE01.JPG,AFNE01.JPG,,,,,,,,,,,,,2,7,27,0,,,,,,,,,,,AFSA12.jpg,AFSA02.jpg,AFNE13.jpg,AFNE11.jpg,AFNE13.jpg,FN,3,num_2,16,num_2,1.38343503978,,,2017_Jul_12_1557,59.9929574017,MAFE4ImagesEEG,001,200911,
AFNE01.JPG,AFNE01.JPG,AFNE01.JPG,AFNE01.JPG,AFNE01.JPG,AFNE01.JPG,,,,,,,,,,,,,2,8,28,4,,,,,,,,,,,AFSA18.jpg,AFNE07.jpg,AFNE02.jpg,AFSA13.jpg,AFNE02.jpg,FN,3,num_2,32,num_6,0.700151517289,,,2017_Jul_12_1557,59.9929574017,MAFE4ImagesEEG,001,200911,
AFNE01.JPG,AFNE01.JPG,AFNE01.JPG,AFNE01.JPG,AFNE01.JPG,AFNE01.JPG,,,,,,,,,,,,,2,9,29,6,,,,,,,,,,,AFNE01.jpg,AFSA08.jpg,AFNE03.jpg,AFSA11.jpg,AFNE01.jpg,FN,3,num_8,16,num_8,0.91677876492,,,2017_Jul_12_1557,59.9929574017,MAFE4ImagesEEG,001,200911,
AFNE01.JPG,AFNE01.JPG,AFNE01.JPG,AFNE01.JPG,AFNE01.JPG,AFNE01.JPG,,,,,,,,,,,,,3,0,30,7,,,,,,,,,,,AFSA07.jpg,AFNE14.jpg,AFNE08.jpg,AFSA01.jpg,AFNE14.jpg,FN,3,num_6,16,num_6,0.516803526087,,,2017_Jul_12_1557,59.9929574017,MAFE4ImagesEEG,001,200911,
AFNE01.JPG,AFNE01.JPG,AFNE01.JPG,AFNE01.JPG,AFNE01.JPG,AFNE01.JPG,,,,,,,,,,,,,3,1,31,6,,,,,,,,,,,AFNE04.jpg,AFNE11.jpg,AFSA17.jpg,AFSA10.jpg,AFSA10.jpg,FS,4,num_4,16,num_4,2.7832576069,,,2017_Jul_12_1557,59.9929574017,MAFE4ImagesEEG,001,200911,
AFNE01.JPG,AFNE01.JPG,AFNE01.JPG,AFNE01.JPG,AFNE01.JPG,AFNE01.JPG,,,,,,,,,,,,,3,2,32,2,,,,,,,,,,,AFNE06.jpg,AFSA06.jpg,AFSA01.jpg,AFNE19.jpg,AFSA06.jpg,FS,4,num_6,32,num_2,1.48370933603,,,2017_Jul_12_1557,59.9929574017,MAFE4ImagesEEG,001,200911,
AFNE01.JPG,AFNE01.JPG,AFNE01.JPG,AFNE01.JPG,AFNE01.JPG,AFNE01.JPG,,,,,,,,,,,,,3,3,33,5,,,,,,,,,,,AFSA12.jpg,AFNE05.jpg,AFNE07.jpg,AFSA11.jpg,AFNE07.jpg,FN,3,num_2,16,num_2,0.71677222196,,,2017_Jul_12_1557,59.9929574017,MAFE4ImagesEEG,001,200911,
AFNE01.JPG,AFNE01.JPG,AFNE01.JPG,AFNE01.JPG,AFNE01.JPG,AFNE01.JPG,,,,,,,,,,,,,3,4,34,3,,,,,,,,,,,AFSA15.jpg,AFNE07.jpg,AFSA10.jpg,AFNE01.jpg,AFSA15.jpg,FS,4,num_8,32,num_6,2.50004073395,,,2017_Jul_12_1557,59.9929574017,MAFE4ImagesEEG,001,200911,
AFNE01.JPG,AFNE01.JPG,AFNE01.JPG,AFNE01.JPG,AFNE01.JPG,AFNE01.JPG,,,,,,,,,,,,,3,5,35,1,,,,,,,,,,,AFNE14.jpg,AFSA01.jpg,AFSA03.jpg,AFNE06.jpg,AFNE06.jpg,FN,3,num_4,16,num_4,0.750160209136,,,2017_Jul_12_1557,59.9929574017,MAFE4ImagesEEG,001,200911,
AFNE01.JPG,AFNE01.JPG,AFNE01.JPG,AFNE01.JPG,AFNE01.JPG,AFNE01.JPG,,,,,,,,,,,,,3,6,36,4,,,,,,,,,,,AFSA07.jpg,AFNE10.jpg,AFSA17.jpg,AFNE08.jpg,AFNE10.jpg,FN,3,num_6,16,num_6,0.616821231088,,,2017_Jul_12_1557,59.9929574017,MAFE4ImagesEEG,001,200911,
AFNE01.JPG,AFNE01.JPG,AFNE01.JPG,AFNE01.JPG,AFNE01.JPG,AFNE01.JPG,,,,,,,,,,,,,3,7,37,8,,,,,,,,,,,AFSA12.jpg,AFNE09.jpg,AFSA13.jpg,AFNE10.jpg,AFNE09.jpg,FN,3,num_6,32,num_4,0.633449953981,,,2017_Jul_12_1557,59.9929574017,MAFE4ImagesEEG,001,200911,
AFNE01.JPG,AFNE01.JPG,AFNE01.JPG,AFNE01.JPG,AFNE01.JPG,AFNE01.JPG,,,,,,,,,,,,,3,8,38,0,,,,,,,,,,,AFSA16.jpg,AFSA15.jpg,AFNE15.jpg,AFNE08.jpg,AFNE08.jpg,FN,3,num_4,16,num_4,0.699967733584,,,2017_Jul_12_1557,59.9929574017,MAFE4ImagesEEG,001,200911,
AFNE01.JPG,AFNE01.JPG,AFNE01.JPG,AFNE01.JPG,AFNE01.JPG,AFNE01.JPG,,,,,,,,,,,,,3,9,39,9,,,,,,,,,,,AFSA13.jpg,AFNE09.jpg,AFSA09.jpg,AFNE14.jpg,AFSA13.jpg,FS,4,num_8,16,num_8,0.683487191796,,,2017_Jul_12_1557,59.9929574017,MAFE4ImagesEEG,001,200911,
AFNE01.JPG,AFNE01.JPG,AFNE01.JPG,AFNE01.JPG,AFNE01.JPG,AFNE01.JPG,,,,,,,,,,,,,4,0,40,5,,,,,,,,,,,AFNE15.jpg,AFNE04.jpg,AFSA17.jpg,AFSA03.jpg,AFSA03.jpg,FS,4,num_4,16,num_4,0.816522109555,,,2017_Jul_12_1557,59.9929574017,MAFE4ImagesEEG,001,200911,
AFNE01.JPG,AFNE01.JPG,AFNE01.JPG,AFNE01.JPG,AFNE01.JPG,AFNE01.JPG,,,,,,,,,,,,,4,1,41,3,,,,,,,,,,,AFSA13.jpg,AFSA14.jpg,AFNE13.jpg,AFNE17.jpg,AFSA14.jpg,FS,4,num_6,32,num_8,0.549968599575,,,2017_Jul_12_1557,59.9929574017,MAFE4ImagesEEG,001,200911,
AFNE01.JPG,AFNE01.JPG,AFNE01.JPG,AFNE01.JPG,AFNE01.JPG,AFNE01.JPG,,,,,,,,,,,,,4,2,42,0,,,,,,,,,,,AFNE10.jpg,AFNE17.jpg,AFSA03.jpg,AFSA13.jpg,AFSA03.jpg,FS,4,num_2,32,num_4,0.833497230895,,,2017_Jul_12_1557,59.9929574017,MAFE4ImagesEEG,001,200911,
AFNE01.JPG,AFNE01.JPG,AFNE01.JPG,AFNE01.JPG,AFNE01.JPG,AFNE01.JPG,,,,,,,,,,,,,4,3,43,7,,,,,,,,,,,AFNE01.jpg,AFSA11.jpg,AFNE03.jpg,AFSA04.jpg,AFNE03.jpg,FN,3,num_2,32,num_6,1.00010007061,,,2017_Jul_12_1557,59.9929574017,MAFE4ImagesEEG,001,200911,
AFNE01.JPG,AFNE01.JPG,AFNE01.JPG,AFNE01.JPG,AFNE01.JPG,AFNE01.JPG,,,,,,,,,,,,,4,4,44,2,,,,,,,,,,,AFNE04.jpg,AFSA09.jpg,AFNE16.jpg,AFSA02.jpg,AFSA02.jpg,FS,4,num_4,16,num_4,1.51667041914,,,2017_Jul_12_1557,59.9929574017,MAFE4ImagesEEG,001,200911,
AFNE01.JPG,AFNE01.JPG,AFNE01.JPG,AFNE01.JPG,AFNE01.JPG,AFNE01.JPG,,,,,,,,,,,,,4,5,45,8,,,,,,,,,,,AFNE06.jpg,AFNE16.jpg,AFSA10.jpg,AFSA05.jpg,AFSA05.jpg,FS,4,num_4,16,num_4,1.20006587985,,,2017_Jul_12_1557,59.9929574017,MAFE4ImagesEEG,001,200911,
AFNE01.JPG,AFNE01.JPG,AFNE01.JPG,AFNE01.JPG,AFNE01.JPG,AFNE01.JPG,,,,,,,,,,,,,4,6,46,1,,,,,,,,,,,AFNE17.jpg,AFNE11.jpg,AFSA14.jpg,AFSA08.jpg,AFNE11.jpg,FN,3,num_6,16,num_6,0.800174033269,,,2017_Jul_12_1557,59.9929574017,MAFE4ImagesEEG,001,200911,
AFNE01.JPG,AFNE01.JPG,AFNE01.JPG,AFNE01.JPG,AFNE01.JPG,AFNE01.JPG,,,,,,,,,,,,,4,7,47,6,,,,,,,,,,,AFNE16.jpg,AFSA06.jpg,AFSA03.jpg,AFNE01.jpg,AFSA06.jpg,FS,4,num_6,32,num_2,0.766767442925,,,2017_Jul_12_1557,59.9929574017,MAFE4ImagesEEG,001,200911,
AFNE01.JPG,AFNE01.JPG,AFNE01.JPG,AFNE01.JPG,AFNE01.JPG,AFNE01.JPG,,,,,,,,,,,,,4,8,48,9,,,,,,,,,,,AFSA16.jpg,AFSA14.jpg,AFNE13.jpg,AFNE09.jpg,AFSA16.jpg,FS,4,num_8,16,num_8,0.733421793208,,,2017_Jul_12_1557,59.9929574017,MAFE4ImagesEEG,001,200911,
AFNE01.JPG,AFNE01.JPG,AFNE01.JPG,AFNE01.JPG,AFNE01.JPG,AFNE01.JPG,,,,,,,,,,,,,4,9,49,4,,,,,,,,,,,AFNE03.jpg,AFNE01.jpg,AFSA15.jpg,AFSA19.jpg,AFSA19.jpg,FS,4,num_4,16,num_4,1.10008313553,,,2017_Jul_12_1557,59.9929574017,MAFE4ImagesEEG,001,200911,
AFNE01.JPG,AFNE01.JPG,AFNE01.JPG,AFNE01.JPG,AFNE01.JPG,AFNE01.JPG,,,,,,,,,,,,,5,0,50,0,,,,,,,,,,,AFNE05.jpg,AFSA19.jpg,AFSA09.jpg,AFNE11.jpg,AFNE05.jpg,FN,3,num_8,32,num_4,0.800135544501,,,2017_Jul_12_1557,59.9929574017,MAFE4ImagesEEG,001,200911,
AFNE01.JPG,AFNE01.JPG,AFNE01.JPG,AFNE01.JPG,AFNE01.JPG,AFNE01.JPG,,,,,,,,,,,,,5,1,51,5,,,,,,,,,,,AFSA08.jpg,AFNE08.jpg,AFSA11.jpg,AFNE09.jpg,AFNE09.jpg,FN,3,num_4,32,num_6,0.983500534669,,,2017_Jul_12_1557,59.9929574017,MAFE4ImagesEEG,001,200911,
AFNE01.JPG,AFNE01.JPG,AFNE01.JPG,AFNE01.JPG,AFNE01.JPG,AFNE01.JPG,,,,,,,,,,,,,5,2,52,1,,,,,,,,,,,AFNE20.jpg,AFSA07.jpg,AFNE11.jpg,AFSA05.jpg,AFNE20.jpg,FN,3,num_8,32,num_4,0.816787681542,,,2017_Jul_12_1557,59.9929574017,MAFE4ImagesEEG,001,200911,
AFNE01.JPG,AFNE01.JPG,AFNE01.JPG,AFNE01.JPG,AFNE01.JPG,AFNE01.JPG,,,,,,,,,,,,,5,3,53,4,,,,,,,,,,,AFSA20.jpg,AFNE14.jpg,AFNE15.jpg,AFSA09.jpg,AFSA20.jpg,FS,4,num_8,32,num_4,0.750002084766,,,2017_Jul_12_1557,59.9929574017,MAFE4ImagesEEG,001,200911,
AFNE01.JPG,AFNE01.JPG,AFNE01.JPG,AFNE01.JPG,AFNE01.JPG,AFNE01.JPG,,,,,,,,,,,,,5,4,54,2,,,,,,,,,,,AFSA01.jpg,AFNE10.jpg,AFSA16.jpg,AFNE14.jpg,AFSA16.jpg,FS,4,num_2,32,num_8,0.783423108282,,,2017_Jul_12_1557,59.9929574017,MAFE4ImagesEEG,001,200911,
AFNE01.JPG,AFNE01.JPG,AFNE01.JPG,AFNE01.JPG,AFNE01.JPG,AFNE01.JPG,,,,,,,,,,,,,5,5,55,9,,,,,,,,,,,AFNE13.jpg,AFSA20.jpg,AFNE08.jpg,AFSA14.jpg,AFNE08.jpg,FN,3,num_2,32,num_4,0.533490623813,,,2017_Jul_12_1557,59.9929574017,MAFE4ImagesEEG,001,200911,
AFNE01.JPG,AFNE01.JPG,AFNE01.JPG,AFNE01.JPG,AFNE01.JPG,AFNE01.JPG,,,,,,,,,,,,,5,6,56,8,,,,,,,,,,,AFSA18.jpg,AFNE10.jpg,AFSA08.jpg,AFNE13.jpg,AFSA18.jpg,FS,4,num_8,16,num_8,0.650156616932,,,2017_Jul_12_1557,59.9929574017,MAFE4ImagesEEG,001,200911,
AFNE01.JPG,AFNE01.JPG,AFNE01.JPG,AFNE01.JPG,AFNE01.JPG,AFNE01.JPG,,,,,,,,,,,,,5,7,57,3,,,,,,,,,,,AFSA16.jpg,AFSA18.jpg,AFNE09.jpg,AFNE06.jpg,AFSA16.jpg,FS,4,num_8,16,num_8,0.533498000819,,,2017_Jul_12_1557,59.9929574017,MAFE4ImagesEEG,001,200911,
AFNE01.JPG,AFNE01.JPG,AFNE01.JPG,AFNE01.JPG,AFNE01.JPG,AFNE01.JPG,,,,,,,,,,,,,5,8,58,7,,,,,,,,,,,AFSA12.jpg,AFSA20.jpg,AFNE06.jpg,AFNE18.jpg,AFNE06.jpg,FN,3,num_2,32,num_6,0.700142536545,,,2017_Jul_12_1557,59.9929574017,MAFE4ImagesEEG,001,200911,
AFNE01.JPG,AFNE01.JPG,AFNE01.JPG,AFNE01.JPG,AFNE01.JPG,AFNE01.JPG,,,,,,,,,,,,,5,9,59,6,,,,,,,,,,,AFSA05.jpg,AFSA02.jpg,AFNE19.jpg,AFNE04.jpg,AFSA02.jpg,FS,4,num_6,16,num_6,1.06675063632,,,2017_Jul_12_1557,59.9929574017,MAFE4ImagesEEG,001,200911,
,,,,,,,,,,,,,,,,,,,,,,,,,,,,,,,,,,,,,,,,,,,space,7.04960937169,2017_Jul_12_1557,59.9929574017,MAFE4ImagesEEG,001,200911,
AFNE01.JPG,AFNE01.JPG,AFNE01.JPG,AFNE01.JPG,AFNE01.JPG,AFNE01.JPG,,,,,,,,,,,,,,,,,0,0,0,9,,,,,,,AMSA15.jpg,AMSA10.jpg,AMNE13.jpg,AMNE10.jpg,AMNE10.jpg,MN,1,num_4,16,num_4,0.750132305082,,,2017_Jul_12_1557,59.9929574017,MAFE4ImagesEEG,001,200911,
AFNE01.JPG,AFNE01.JPG,AFNE01.JPG,AFNE01.JPG,AFNE01.JPG,AFNE01.JPG,,,,,,,,,,,,,,,,,0,1,1,7,,,,,,,AMSA05.jpg,AMNE07.jpg,AMNE05.jpg,AMSA11.jpg,AMNE07.jpg,MN,1,num_6,16,num_6,0.766797913006,,,2017_Jul_12_1557,59.9929574017,MAFE4ImagesEEG,001,200911,
AFNE01.JPG,AFNE01.JPG,AFNE01.JPG,AFNE01.JPG,AFNE01.JPG,AFNE01.JPG,,,,,,,,,,,,,,,,,0,2,2,6,,,,,,,AMNE02.jpg,AMSA12.jpg,AMSA13.jpg,AMNE09.jpg,AMSA13.jpg,MS,2,num_2,16,num_2,1.0167528491,,,2017_Jul_12_1557,59.9929574017,MAFE4ImagesEEG,001,200911,
AFNE01.JPG,AFNE01.JPG,AFNE01.JPG,AFNE01.JPG,AFNE01.JPG,AFNE01.JPG,,,,,,,,,,,,,,,,,0,3,3,3,,,,,,,AMSA18.jpg,AMNE15.jpg,AMNE17.jpg,AMSA02.jpg,AMSA02.jpg,MS,2,num_4,16,num_4,0.900113156764,,,2017_Jul_12_1557,59.9929574017,MAFE4ImagesEEG,001,200911,
AFNE01.JPG,AFNE01.JPG,AFNE01.JPG,AFNE01.JPG,AFNE01.JPG,AFNE01.JPG,,,,,,,,,,,,,,,,,0,4,4,4,,,,,,,AMSA09.jpg,AMSA18.jpg,AMNE04.jpg,AMNE09.jpg,AMSA18.jpg,MS,2,num_6,32,num_2,0.866749545792,,,2017_Jul_12_1557,59.9929574017,MAFE4ImagesEEG,001,200911,
AFNE01.JPG,AFNE01.JPG,AFNE01.JPG,AFNE01.JPG,AFNE01.JPG,AFNE01.JPG,,,,,,,,,,,,,,,,,0,5,5,1,,,,,,,AMSA06.jpg,AMSA09.jpg,AMNE05.jpg,AMNE08.jpg,AMSA06.jpg,MS,2,num_8,32,num_4,1.03348260536,,,2017_Jul_12_1557,59.9929574017,MAFE4ImagesEEG,001,200911,
AFNE01.JPG,AFNE01.JPG,AFNE01.JPG,AFNE01.JPG,AFNE01.JPG,AFNE01.JPG,,,,,,,,,,,,,,,,,0,6,6,2,,,,,,,AMSA03.jpg,AMNE13.jpg,AMSA05.jpg,AMNE03.jpg,AMNE03.jpg,MN,1,num_4,32,num_6,0.816757532069,,,2017_Jul_12_1557,59.9929574017,MAFE4ImagesEEG,001,200911,
AFNE01.JPG,AFNE01.JPG,AFNE01.JPG,AFNE01.JPG,AFNE01.JPG,AFNE01.JPG,,,,,,,,,,,,,,,,,0,7,7,8,,,,,,,AMNE13.jpg,AMNE01.jpg,AMSA15.jpg,AMSA06.jpg,AMNE13.jpg,MN,1,num_8,32,num_4,0.716727959923,,,2017_Jul_12_1557,59.9929574017,MAFE4ImagesEEG,001,200911,
AFNE01.JPG,AFNE01.JPG,AFNE01.JPG,AFNE01.JPG,AFNE01.JPG,AFNE01.JPG,,,,,,,,,,,,,,,,,0,8,8,0,,,,,,,AMSA14.jpg,AMNE18.jpg,AMSA15.jpg,AMNE05.jpg,AMSA14.jpg,MS,2,num_8,32,num_4,1.03342775884,,,2017_Jul_12_1557,59.9929574017,MAFE4ImagesEEG,001,200911,
AFNE01.JPG,AFNE01.JPG,AFNE01.JPG,AFNE01.JPG,AFNE01.JPG,AFNE01.JPG,,,,,,,,,,,,,,,,,0,9,9,5,,,,,,,AMSA20.jpg,AMNE05.jpg,AMSA19.jpg,AMNE12.jpg,AMNE12.jpg,MN,1,num_4,16,num_4,0.783457748126,,,2017_Jul_12_1557,59.9929574017,MAFE4ImagesEEG,001,200911,
AFNE01.JPG,AFNE01.JPG,AFNE01.JPG,AFNE01.JPG,AFNE01.JPG,AFNE01.JPG,,,,,,,,,,,,,,,,,1,0,10,1,,,,,,,AMSA03.jpg,AMSA18.jpg,AMNE09.jpg,AMNE16.jpg,AMSA18.jpg,MS,2,num_6,16,num_6,0.516841373174,,,2017_Jul_12_1557,59.9929574017,MAFE4ImagesEEG,001,200911,
AFNE01.JPG,AFNE01.JPG,AFNE01.JPG,AFNE01.JPG,AFNE01.JPG,AFNE01.JPG,,,,,,,,,,,,,,,,,1,1,11,3,,,,,,,AMSA19.jpg,AMSA08.jpg,AMNE11.jpg,AMNE09.jpg,AMSA08.jpg,MS,2,num_6,32,num_8,0.850113124819,,,2017_Jul_12_1557,59.9929574017,MAFE4ImagesEEG,001,200911,
AFNE01.JPG,AFNE01.JPG,AFNE01.JPG,AFNE01.JPG,AFNE01.JPG,AFNE01.JPG,,,,,,,,,,,,,,,,,1,2,12,9,,,,,,,AMSA08.jpg,AMNE17.jpg,AMSA14.jpg,AMNE03.jpg,AMSA14.jpg,MS,2,num_2,16,num_2,0.650151485112,,,2017_Jul_12_1557,59.9929574017,MAFE4ImagesEEG,001,200911,
AFNE01.JPG,AFNE01.JPG,AFNE01.JPG,AFNE01.JPG,AFNE01.JPG,AFNE01.JPG,,,,,,,,,,,,,,,,,1,3,13,7,,,,,,,AMNE06.jpg,AMSA15.jpg,AMNE10.jpg,AMSA18.jpg,AMNE10.jpg,MN,1,num_2,16,num_2,0.733462206321,,,2017_Jul_12_1557,59.9929574017,MAFE4ImagesEEG,001,200911,
AFNE01.JPG,AFNE01.JPG,AFNE01.JPG,AFNE01.JPG,AFNE01.JPG,AFNE01.JPG,,,,,,,,,,,,,,,,,1,4,14,8,,,,,,,AMNE14.jpg,AMNE04.jpg,AMSA09.jpg,AMSA02.jpg,AMSA02.jpg,MS,2,num_4,16,num_4,1.93333211448,,,2017_Jul_12_1557,59.9929574017,MAFE4ImagesEEG,001,200911,
AFNE01.JPG,AFNE01.JPG,AFNE01.JPG,AFNE01.JPG,AFNE01.JPG,AFNE01.JPG,,,,,,,,,,,,,,,,,1,5,15,5,,,,,,,AMNE06.jpg,AMNE01.jpg,AMSA08.jpg,AMSA05.jpg,AMSA08.jpg,MS,2,num_2,16,num_2,0.850148406113,,,2017_Jul_12_1557,59.9929574017,MAFE4ImagesEEG,001,200911,
AFNE01.JPG,AFNE01.JPG,AFNE01.JPG,AFNE01.JPG,AFNE01.JPG,AFNE01.JPG,,,,,,,,,,,,,,,,,1,6,16,4,,,,,,,AMNE02.jpg,AMSA04.jpg,AMNE15.jpg,AMSA03.jpg,AMSA03.jpg,MS,2,num_4,16,num_4,0.600131567102,,,2017_Jul_12_1557,59.9929574017,MAFE4ImagesEEG,001,200911,
AFNE01.JPG,AFNE01.JPG,AFNE01.JPG,AFNE01.JPG,AFNE01.JPG,AFNE01.JPG,,,,,,,,,,,,,,,,,1,7,17,0,,,,,,,AMSA15.jpg,AMNE14.jpg,AMSA07.jpg,AMNE10.jpg,AMNE14.jpg,MN,1,num_6,32,num_2,0.733465413796,,,2017_Jul_12_1557,59.9929574017,MAFE4ImagesEEG,001,200911,
AFNE01.JPG,AFNE01.JPG,AFNE01.JPG,AFNE01.JPG,AFNE01.JPG,AFNE01.JPG,,,,,,,,,,,,,,,,,1,8,18,6,,,,,,,AMSA19.jpg,AMNE07.jpg,AMNE18.jpg,AMSA10.jpg,AMSA19.jpg,MS,2,num_8,16,num_8,0.73345162184,,,2017_Jul_12_1557,59.9929574017,MAFE4ImagesEEG,001,200911,
AFNE01.JPG,AFNE01.JPG,AFNE01.JPG,AFNE01.JPG,AFNE01.JPG,AFNE01.JPG,,,,,,,,,,,,,,,,,1,9,19,2,,,,,,,AMNE06.jpg,AMNE14.jpg,AMSA01.jpg,AMSA08.jpg,AMNE14.jpg,MN,1,num_6,32,num_4,1.11682540039,,,2017_Jul_12_1557,59.9929574017,MAFE4ImagesEEG,001,200911,
AFNE01.JPG,AFNE01.JPG,AFNE01.JPG,AFNE01.JPG,AFNE01.JPG,AFNE01.JPG,,,,,,,,,,,,,,,,,2,0,20,3,,,,,,,AMNE15.jpg,AMSA14.jpg,AMSA18.jpg,AMNE03.jpg,AMNE03.jpg,MN,1,num_4,16,num_4,0.983517854707,,,2017_Jul_12_1557,59.9929574017,MAFE4ImagesEEG,001,200911,
AFNE01.JPG,AFNE01.JPG,AFNE01.JPG,AFNE01.JPG,AFNE01.JPG,AFNE01.JPG,,,,,,,,,,,,,,,,,2,1,21,1,,,,,,,AMSA03.jpg,AMNE18.jpg,AMNE06.jpg,AMSA09.jpg,AMNE18.jpg,MN,1,num_6,32,num_8,0.65011556237,,,2017_Jul_12_1557,59.9929574017,MAFE4ImagesEEG,001,200911,
AFNE01.JPG,AFNE01.JPG,AFNE01.JPG,AFNE01.JPG,AFNE01.JPG,AFNE01.JPG,,,,,,,,,,,,,,,,,2,2,22,2,,,,,,,AMSA18.jpg,AMSA17.jpg,AMNE15.jpg,AMNE12.jpg,AMNE12.jpg,MN,1,num_4,16,num_4,0.783457427286,,,2017_Jul_12_1557,59.9929574017,MAFE4ImagesEEG,001,200911,
AFNE01.JPG,AFNE01.JPG,AFNE01.JPG,AFNE01.JPG,AFNE01.JPG,AFNE01.JPG,,,,,,,,,,,,,,,,,2,3,23,8,,,,,,,AMSA01.jpg,AMSA15.jpg,AMNE09.jpg,AMNE03.jpg,AMNE03.jpg,MN,1,num_4,16,num_4,0.700271152891,,,2017_Jul_12_1557,59.9929574017,MAFE4ImagesEEG,001,200911,
AFNE01.JPG,AFNE01.JPG,AFNE01.JPG,AFNE01.JPG,AFNE01.JPG,AFNE01.JPG,,,,,,,,,,,,,,,,,2,4,24,7,,,,,,,AMNE06.jpg,AMSA18.jpg,AMNE13.jpg,AMSA20.jpg,AMNE06.jpg,MN,1,num_8,32,num_2,1.06642572745,,,2017_Jul_12_1557,59.9929574017,MAFE4ImagesEEG,001,200911,
AFNE01.JPG,AFNE01.JPG,AFNE01.JPG,AFNE01.JPG,AFNE01.JPG,AFNE01.JPG,,,,,,,,,,,,,,,,,2,5,25,0,,,,,,,AMNE03.jpg,AMNE11.jpg,AMSA08.jpg,AMSA03.jpg,AMSA03.jpg,MS,2,num_4,16,num_4,0.38351426227,,,2017_Jul_12_1557,59.9929574017,MAFE4ImagesEEG,001,200911,
AFNE01.JPG,AFNE01.JPG,AFNE01.JPG,AFNE01.JPG,AFNE01.JPG,AFNE01.JPG,,,,,,,,,,,,,,,,,2,6,26,4,,,,,,,AMSA13.jpg,AMNE02.jpg,AMNE11.jpg,AMSA12.jpg,AMSA12.jpg,MS,2,num_4,16,num_4,0.483531967038,,,2017_Jul_12_1557,59.9929574017,MAFE4ImagesEEG,001,200911,
AFNE01.JPG,AFNE01.JPG,AFNE01.JPG,AFNE01.JPG,AFNE01.JPG,AFNE01.JPG,,,,,,,,,,,,,,,,,2,7,27,5,,,,,,,AMNE05.jpg,AMSA05.jpg,AMNE03.jpg,AMSA12.jpg,AMSA05.jpg,MS,2,num_6,16,num_6,0.533510509646,,,2017_Jul_12_1557,59.9929574017,MAFE4ImagesEEG,001,200911,
AFNE01.JPG,AFNE01.JPG,AFNE01.JPG,AFNE01.JPG,AFNE01.JPG,AFNE01.JPG,,,,,,,,,,,,,,,,,2,8,28,6,,,,,,,AMNE02.jpg,AMSA17.jpg,AMNE10.jpg,AMSA06.jpg,AMNE10.jpg,MN,1,num_2,16,num_2,1.06675256067,,,2017_Jul_12_1557,59.9929574017,MAFE4ImagesEEG,001,200911,
AFNE01.JPG,AFNE01.JPG,AFNE01.JPG,AFNE01.JPG,AFNE01.JPG,AFNE01.JPG,,,,,,,,,,,,,,,,,2,9,29,9,,,,,,,AMSA19.jpg,AMNE07.jpg,AMSA09.jpg,AMNE05.jpg,AMNE05.jpg,MN,1,num_4,16,num_4,1.1667173435,,,2017_Jul_12_1557,59.9929574017,MAFE4ImagesEEG,001,200911,
AFNE01.JPG,AFNE01.JPG,AFNE01.JPG,AFNE01.JPG,AFNE01.JPG,AFNE01.JPG,,,,,,,,,,,,,,,,,3,0,30,6,,,,,,,AMNE15.jpg,AMNE02.jpg,AMSA01.jpg,AMSA03.jpg,AMSA03.jpg,MS,2,num_4,16,num_4,0.700108538149,,,2017_Jul_12_1557,59.9929574017,MAFE4ImagesEEG,001,200911,
AFNE01.JPG,AFNE01.JPG,AFNE01.JPG,AFNE01.JPG,AFNE01.JPG,AFNE01.JPG,,,,,,,,,,,,,,,,,3,1,31,5,,,,,,,AMNE08.jpg,AMSA01.jpg,AMSA04.jpg,AMNE14.jpg,AMSA01.jpg,MS,2,num_6,32,num_2,1.96664697328,,,2017_Jul_12_1557,59.9929574017,MAFE4ImagesEEG,001,200911,
AFNE01.JPG,AFNE01.JPG,AFNE01.JPG,AFNE01.JPG,AFNE01.JPG,AFNE01.JPG,,,,,,,,,,,,,,,,,3,2,32,3,,,,,,,AMSA02.jpg,AMSA16.jpg,AMNE01.jpg,AMNE14.jpg,AMNE01.jpg,MN,1,num_2,32,num_4,0.650208897423,,,2017_Jul_12_1557,59.9929574017,MAFE4ImagesEEG,001,200911,
AFNE01.JPG,AFNE01.JPG,AFNE01.JPG,AFNE01.JPG,AFNE01.JPG,AFNE01.JPG,,,,,,,,,,,,,,,,,3,3,33,0,,,,,,,AMSA11.jpg,AMNE08.jpg,AMNE18.jpg,AMSA02.jpg,AMSA02.jpg,MS,2,num_4,16,num_4,0.583467883524,,,2017_Jul_12_1557,59.9929574017,MAFE4ImagesEEG,001,200911,
AFNE01.JPG,AFNE01.JPG,AFNE01.JPG,AFNE01.JPG,AFNE01.JPG,AFNE01.JPG,,,,,,,,,,,,,,,,,3,4,34,1,,,,,,,AMNE19.jpg,AMSA05.jpg,AMNE02.jpg,AMSA07.jpg,AMNE19.jpg,MN,1,num_8,16,num_8,0.98342002905,,,2017_Jul_12_1557,59.9929574017,MAFE4ImagesEEG,001,200911,
AFNE01.JPG,AFNE01.JPG,AFNE01.JPG,AFNE01.JPG,AFNE01.JPG,AFNE01.JPG,,,,,,,,,,,,,,,,,3,5,35,9,,,,,,,AMNE03.jpg,AMSA16.jpg,AMSA04.jpg,AMNE13.jpg,AMNE13.jpg,MN,1,num_4,16,num_4,0.866774563212,,,2017_Jul_12_1557,59.9929574017,MAFE4ImagesEEG,001,200911,
AFNE01.JPG,AFNE01.JPG,AFNE01.JPG,AFNE01.JPG,AFNE01.JPG,AFNE01.JPG,,,,,,,,,,,,,,,,,3,6,36,4,,,,,,,AMSA07.jpg,AMNE10.jpg,AMNE17.jpg,AMSA19.jpg,AMSA07.jpg,MS,2,num_8,16,num_8,1.18373736856,,,2017_Jul_12_1557,59.9929574017,MAFE4ImagesEEG,001,200911,
AFNE01.JPG,AFNE01.JPG,AFNE01.JPG,AFNE01.JPG,AFNE01.JPG,AFNE01.JPG,,,,,,,,,,,,,,,,,3,7,37,7,,,,,,,AMSA15.jpg,AMSA14.jpg,AMNE05.jpg,AMNE06.jpg,AMNE06.jpg,MN,1,num_4,16,num_4,0.766775461379,,,2017_Jul_12_1557,59.9929574017,MAFE4ImagesEEG,001,200911,
AFNE01.JPG,AFNE01.JPG,AFNE01.JPG,AFNE01.JPG,AFNE01.JPG,AFNE01.JPG,,,,,,,,,,,,,,,,,3,8,38,2,,,,,,,AMSA14.jpg,AMNE06.jpg,AMSA12.jpg,AMNE19.jpg,AMNE06.jpg,MN,1,num_6,32,num_4,0.63355098688,,,2017_Jul_12_1557,59.9929574017,MAFE4ImagesEEG,001,200911,
AFNE01.JPG,AFNE01.JPG,AFNE01.JPG,AFNE01.JPG,AFNE01.JPG,AFNE01.JPG,,,,,,,,,,,,,,,,,3,9,39,8,,,,,,,AMSA11.jpg,AMNE15.jpg,AMNE11.jpg,AMSA10.jpg,AMSA10.jpg,MS,2,num_4,32,num_8,0.73345675366,,,2017_Jul_12_1557,59.9929574017,MAFE4ImagesEEG,001,200911,
AFNE01.JPG,AFNE01.JPG,AFNE01.JPG,AFNE01.JPG,AFNE01.JPG,AFNE01.JPG,,,,,,,,,,,,,,,,,4,0,40,9,,,,,,,AMSA14.jpg,AMNE11.jpg,AMNE15.jpg,AMSA06.jpg,AMSA14.jpg,MS,2,num_8,16,num_8,0.516857089475,,,2017_Jul_12_1557,59.9929574017,MAFE4ImagesEEG,001,200911,
AFNE01.JPG,AFNE01.JPG,AFNE01.JPG,AFNE01.JPG,AFNE01.JPG,AFNE01.JPG,,,,,,,,,,,,,,,,,4,1,41,8,,,,,,,AMSA07.jpg,AMNE16.jpg,AMSA03.jpg,AMNE09.jpg,AMSA07.jpg,MS,2,num_8,32,num_6,1.23338907771,,,2017_Jul_12_1557,59.9929574017,MAFE4ImagesEEG,001,200911,
AFNE01.JPG,AFNE01.JPG,AFNE01.JPG,AFNE01.JPG,AFNE01.JPG,AFNE01.JPG,,,,,,,,,,,,,,,,,4,2,42,2,,,,,,,AMNE14.jpg,AMNE11.jpg,AMSA20.jpg,AMSA08.jpg,AMSA20.jpg,MS,2,num_2,16,num_2,0.533483888255,,,2017_Jul_12_1557,59.9929574017,MAFE4ImagesEEG,001,200911,
AFNE01.JPG,AFNE01.JPG,AFNE01.JPG,AFNE01.JPG,AFNE01.JPG,AFNE01.JPG,,,,,,,,,,,,,,,,,4,3,43,0,,,,,,,AMNE14.jpg,AMNE06.jpg,AMSA14.jpg,AMSA12.jpg,AMSA14.jpg,MS,2,num_2,16,num_2,0.683509643655,,,2017_Jul_12_1557,59.9929574017,MAFE4ImagesEEG,001,200911,
AFNE01.JPG,AFNE01.JPG,AFNE01.JPG,AFNE01.JPG,AFNE01.JPG,AFNE01.JPG,,,,,,,,,,,,,,,,,4,4,44,1,,,,,,,AMSA07.jpg,AMSA04.jpg,AMNE13.jpg,AMNE12.jpg,AMNE13.jpg,MN,1,num_2,32,num_4,0.950154884951,,,2017_Jul_12_1557,59.9929574017,MAFE4ImagesEEG,001,200911,
AFNE01.JPG,AFNE01.JPG,AFNE01.JPG,AFNE01.JPG,AFNE01.JPG,AFNE01.JPG,,,,,,,,,,,,,,,,,4,5,45,7,,,,,,,AMSA12.jpg,AMNE09.jpg,AMSA11.jpg,AMNE01.jpg,AMSA12.jpg,MS,2,num_8,32,num_2,0.583483599592,,,2017_Jul_12_1557,59.9929574017,MAFE4ImagesEEG,001,200911,
AFNE01.JPG,AFNE01.JPG,AFNE01.JPG,AFNE01.JPG,AFNE01.JPG,AFNE01.JPG,,,,,,,,,,,,,,,,,4,6,46,4,,,,,,,AMNE19.jpg,AMSA14.jpg,AMSA11.jpg,AMNE06.jpg,AMSA11.jpg,MS,2,num_2,16,num_2,0.966727478663,,,2017_Jul_12_1557,59.9929574017,MAFE4ImagesEEG,001,200911,
AFNE01.JPG,AFNE01.JPG,AFNE01.JPG,AFNE01.JPG,AFNE01.JPG,AFNE01.JPG,,,,,,,,,,,,,,,,,4,7,47,6,,,,,,,AMSA12.jpg,AMNE19.jpg,AMSA02.jpg,AMNE20.jpg,AMNE19.jpg,MN,1,num_6,32,num_4,0.916749898577,,,2017_Jul_12_1557,59.9929574017,MAFE4ImagesEEG,001,200911,
AFNE01.JPG,AFNE01.JPG,AFNE01.JPG,AFNE01.JPG,AFNE01.JPG,AFNE01.JPG,,,,,,,,,,,,,,,,,4,8,48,5,,,,,,,AMSA02.jpg,AMSA12.jpg,AMNE13.jpg,AMNE14.jpg,AMSA02.jpg,MS,2,num_8,16,num_8,0.733429170214,,,2017_Jul_12_1557,59.9929574017,MAFE4ImagesEEG,001,200911,
AFNE01.JPG,AFNE01.JPG,AFNE01.JPG,AFNE01.JPG,AFNE01.JPG,AFNE01.JPG,,,,,,,,,,,,,,,,,4,9,49,3,,,,,,,AMNE11.jpg,AMSA12.jpg,AMSA15.jpg,AMNE04.jpg,AMSA12.jpg,MS,2,num_6,32,num_2,0.61674970598,,,2017_Jul_12_1557,59.9929574017,MAFE4ImagesEEG,001,200911,
AFNE01.JPG,AFNE01.JPG,AFNE01.JPG,AFNE01.JPG,AFNE01.JPG,AFNE01.JPG,,,,,,,,,,,,,,,,,5,0,50,0,,,,,,,AMSA06.jpg,AMNE05.jpg,AMNE09.jpg,AMSA11.jpg,AMSA06.jpg,MS,2,num_8,32,num_6,1.06673748605,,,2017_Jul_12_1557,59.9929574017,MAFE4ImagesEEG,001,200911,
AFNE01.JPG,AFNE01.JPG,AFNE01.JPG,AFNE01.JPG,AFNE01.JPG,AFNE01.JPG,,,,,,,,,,,,,,,,,5,1,51,2,,,,,,,AMNE05.jpg,AMSA08.jpg,AMNE10.jpg,AMSA12.jpg,AMSA08.jpg,MS,2,num_6,32,num_4,0.566775653977,,,2017_Jul_12_1557,59.9929574017,MAFE4ImagesEEG,001,200911,
AFNE01.JPG,AFNE01.JPG,AFNE01.JPG,AFNE01.JPG,AFNE01.JPG,AFNE01.JPG,,,,,,,,,,,,,,,,,5,2,52,4,,,,,,,AMSA02.jpg,AMNE07.jpg,AMSA16.jpg,AMNE14.jpg,AMSA02.jpg,MS,2,num_8,16,num_8,0.516866711667,,,2017_Jul_12_1557,59.9929574017,MAFE4ImagesEEG,001,200911,
AFNE01.JPG,AFNE01.JPG,AFNE01.JPG,AFNE01.JPG,AFNE01.JPG,AFNE01.JPG,,,,,,,,,,,,,,,,,5,3,53,5,,,,,,,AMNE16.jpg,AMSA19.jpg,AMNE11.jpg,AMSA08.jpg,AMSA08.jpg,MS,2,num_4,32,num_6,0.416774595389,,,2017_Jul_12_1557,59.9929574017,MAFE4ImagesEEG,001,200911,
AFNE01.JPG,AFNE01.JPG,AFNE01.JPG,AFNE01.JPG,AFNE01.JPG,AFNE01.JPG,,,,,,,,,,,,,,,,,5,4,54,9,,,,,,,AMSA11.jpg,AMNE02.jpg,AMSA12.jpg,AMNE11.jpg,AMNE11.jpg,MN,1,num_4,32,num_6,0.716774146305,,,2017_Jul_12_1557,59.9929574017,MAFE4ImagesEEG,001,200911,
AFNE01.JPG,AFNE01.JPG,AFNE01.JPG,AFNE01.JPG,AFNE01.JPG,AFNE01.JPG,,,,,,,,,,,,,,,,,5,5,55,6,,,,,,,AMNE01.jpg,AMSA15.jpg,AMSA17.jpg,AMNE14.jpg,AMNE14.jpg,MN,1,num_4,16,num_4,0.516851637047,,,2017_Jul_12_1557,59.9929574017,MAFE4ImagesEEG,001,200911,
AFNE01.JPG,AFNE01.JPG,AFNE01.JPG,AFNE01.JPG,AFNE01.JPG,AFNE01.JPG,,,,,,,,,,,,,,,,,5,6,56,7,,,,,,,AMNE20.jpg,AMSA01.jpg,AMSA09.jpg,AMNE14.jpg,AMSA01.jpg,MS,2,num_6,16,num_6,0.833426668542,,,2017_Jul_12_1557,59.9929574017,MAFE4ImagesEEG,001,200911,
AFNE01.JPG,AFNE01.JPG,AFNE01.JPG,AFNE01.JPG,AFNE01.JPG,AFNE01.JPG,,,,,,,,,,,,,,,,,5,7,57,1,,,,,,,AMNE16.jpg,AMSA06.jpg,AMNE08.jpg,AMSA12.jpg,AMSA06.jpg,MS,2,num_6,32,num_4,0.716762599768,,,2017_Jul_12_1557,59.9929574017,MAFE4ImagesEEG,001,200911,
AFNE01.JPG,AFNE01.JPG,AFNE01.JPG,AFNE01.JPG,AFNE01.JPG,AFNE01.JPG,,,,,,,,,,,,,,,,,5,8,58,3,,,,,,,AMNE02.jpg,AMSA04.jpg,AMSA10.jpg,AMNE20.jpg,AMNE20.jpg,MN,1,num_4,32,num_8,0.766744991066,,,2017_Jul_12_1557,59.9929574017,MAFE4ImagesEEG,001,200911,
AFNE01.JPG,AFNE01.JPG,AFNE01.JPG,AFNE01.JPG,AFNE01.JPG,AFNE01.JPG,,,,,,,,,,,,,,,,,5,9,59,8,,,,,,,AMNE11.jpg,AMNE13.jpg,AMSA04.jpg,AMSA09.jpg,AMSA04.jpg,MS,2,num_2,32,num_4,0.700114311418,,,2017_Jul_12_1557,59.9929574017,MAFE4ImagesEEG,001,200911,
,,,,,,,,,,,,,,,,,,,,,,,,,,,,,,,,,,,,,,,,,,,space,2.03334949864,2017_Jul_12_1557,59.9929574017,MAFE4ImagesEEG,001,200911,
AFNE01.JPG,AFNE01.JPG,AFNE01.JPG,AFNE01.JPG,AFNE01.JPG,AFNE01.JPG,,,,,,,,,,,,,,,,,,,,,0,0,0,7,,,AFNE16.jpg,AFSA17.jpg,AFSA11.jpg,AFNE06.jpg,AFNE06.jpg,FN,3,num_4,32,num_8,0.666797207668,,,2017_Jul_12_1557,59.9929574017,MAFE4ImagesEEG,001,200911,
AFNE01.JPG,AFNE01.JPG,AFNE01.JPG,AFNE01.JPG,AFNE01.JPG,AFNE01.JPG,,,,,,,,,,,,,,,,,,,,,0,1,1,4,,,AFNE06.jpg,AFSA05.jpg,AFSA01.jpg,AFNE16.jpg,AFNE16.jpg,FN,3,num_4,16,num_4,0.783516443335,,,2017_Jul_12_1557,59.9929574017,MAFE4ImagesEEG,001,200911,
AFNE01.JPG,AFNE01.JPG,AFNE01.JPG,AFNE01.JPG,AFNE01.JPG,AFNE01.JPG,,,,,,,,,,,,,,,,,,,,,0,2,2,9,,,AFSA16.jpg,AFNE13.jpg,AFNE16.jpg,AFSA11.jpg,AFNE13.jpg,FN,3,num_6,32,num_8,0.766773216194,,,2017_Jul_12_1557,59.9929574017,MAFE4ImagesEEG,001,200911,
AFNE01.JPG,AFNE01.JPG,AFNE01.JPG,AFNE01.JPG,AFNE01.JPG,AFNE01.JPG,,,,,,,,,,,,,,,,,,,,,0,3,3,2,,,AFNE05.jpg,AFNE17.jpg,AFSA02.jpg,AFSA03.jpg,AFNE17.jpg,FN,3,num_6,32,num_8,0.766799837584,,,2017_Jul_12_1557,59.9929574017,MAFE4ImagesEEG,001,200911,
AFNE01.JPG,AFNE01.JPG,AFNE01.JPG,AFNE01.JPG,AFNE01.JPG,AFNE01.JPG,,,,,,,,,,,,,,,,,,,,,0,4,4,6,,,AFNE01.jpg,AFSA20.jpg,AFNE18.jpg,AFSA03.jpg,AFNE18.jpg,FN,3,num_2,32,num_8,0.816834188532,,,2017_Jul_12_1557,59.9929574017,MAFE4ImagesEEG,001,200911,
AFNE01.JPG,AFNE01.JPG,AFNE01.JPG,AFNE01.JPG,AFNE01.JPG,AFNE01.JPG,,,,,,,,,,,,,,,,,,,,,0,5,5,8,,,AFSA12.jpg,AFNE01.jpg,AFNE14.jpg,AFSA17.jpg,AFNE01.jpg,FN,3,num_6,16,num_6,1.26669495576,,,2017_Jul_12_1557,59.9929574017,MAFE4ImagesEEG,001,200911,
AFNE01.JPG,AFNE01.JPG,AFNE01.JPG,AFNE01.JPG,AFNE01.JPG,AFNE01.JPG,,,,,,,,,,,,,,,,,,,,,0,6,6,3,,,AFNE10.jpg,AFSA15.jpg,AFNE09.jpg,AFSA13.jpg,AFSA15.jpg,FS,4,num_6,32,num_8,0.866776167182,,,2017_Jul_12_1557,59.9929574017,MAFE4ImagesEEG,001,200911,
AFNE01.JPG,AFNE01.JPG,AFNE01.JPG,AFNE01.JPG,AFNE01.JPG,AFNE01.JPG,,,,,,,,,,,,,,,,,,,,,0,7,7,0,,,AFNE02.jpg,AFNE18.jpg,AFSA20.jpg,AFSA09.jpg,AFSA20.jpg,FS,4,num_2,32,num_4,0.999979151879,,,2017_Jul_12_1557,59.9929574017,MAFE4ImagesEEG,001,200911,
AFNE01.JPG,AFNE01.JPG,AFNE01.JPG,AFNE01.JPG,AFNE01.JPG,AFNE01.JPG,,,,,,,,,,,,,,,,,,,,,0,8,8,1,,,AFSA17.jpg,AFSA02.jpg,AFNE19.jpg,AFNE01.jpg,AFSA17.jpg,FS,4,num_8,32,num_6,0.983442480909,,,2017_Jul_12_1557,59.9929574017,MAFE4ImagesEEG,001,200911,
AFNE01.JPG,AFNE01.JPG,AFNE01.JPG,AFNE01.JPG,AFNE01.JPG,AFNE01.JPG,,,,,,,,,,,,,,,,,,,,,0,9,9,5,,,AFSA03.jpg,AFNE16.jpg,AFNE05.jpg,AFSA10.jpg,AFNE05.jpg,FN,3,num_2,16,num_2,0.983424519422,,,2017_Jul_12_1557,59.9929574017,MAFE4ImagesEEG,001,200911,
AFNE01.JPG,AFNE01.JPG,AFNE01.JPG,AFNE01.JPG,AFNE01.JPG,AFNE01.JPG,,,,,,,,,,,,,,,,,,,,,1,0,10,9,,,AFNE02.jpg,AFSA12.jpg,AFSA02.jpg,AFNE20.jpg,AFNE02.jpg,FN,3,num_8,32,num_4,0.650090223877,,,2017_Jul_12_1557,59.9929574017,MAFE4ImagesEEG,001,200911,
AFNE01.JPG,AFNE01.JPG,AFNE01.JPG,AFNE01.JPG,AFNE01.JPG,AFNE01.JPG,,,,,,,,,,,,,,,,,,,,,1,1,11,0,,,AFSA03.jpg,AFNE01.jpg,AFSA04.jpg,AFNE04.jpg,AFNE04.jpg,FN,3,num_4,32,num_2,2.96660591871,,,2017_Jul_12_1557,59.9929574017,MAFE4ImagesEEG,001,200911,
AFNE01.JPG,AFNE01.JPG,AFNE01.JPG,AFNE01.JPG,AFNE01.JPG,AFNE01.JPG,,,,,,,,,,,,,,,,,,,,,1,2,12,7,,,AFNE05.jpg,AFSA08.jpg,AFNE18.jpg,AFSA20.jpg,AFNE05.jpg,FN,3,num_8,32,num_4,1.00012059789,,,2017_Jul_12_1557,59.9929574017,MAFE4ImagesEEG,001,200911,
AFNE01.JPG,AFNE01.JPG,AFNE01.JPG,AFNE01.JPG,AFNE01.JPG,AFNE01.JPG,,,,,,,,,,,,,,,,,,,,,1,3,13,8,,,AFNE02.jpg,AFSA16.jpg,AFSA13.jpg,AFNE20.jpg,AFNE20.jpg,FN,3,num_4,16,num_4,1.66656242637,,,2017_Jul_12_1557,59.9929574017,MAFE4ImagesEEG,001,200911,
AFNE01.JPG,AFNE01.JPG,AFNE01.JPG,AFNE01.JPG,AFNE01.JPG,AFNE01.JPG,,,,,,,,,,,,,,,,,,,,,1,4,14,5,,,AFNE01.jpg,AFSA12.jpg,AFSA05.jpg,AFNE06.jpg,AFSA05.jpg,FS,4,num_2,16,num_2,1.56670605345,,,2017_Jul_12_1557,59.9929574017,MAFE4ImagesEEG,001,200911,
AFNE01.JPG,AFNE01.JPG,AFNE01.JPG,AFNE01.JPG,AFNE01.JPG,AFNE01.JPG,,,,,,,,,,,,,,,,,,,,,1,5,15,1,,,AFNE05.jpg,AFNE02.jpg,AFSA03.jpg,AFSA17.jpg,AFNE05.jpg,FN,3,num_8,32,num_4,2.29999506054,,,2017_Jul_12_1557,59.9929574017,MAFE4ImagesEEG,001,200911,
AFNE01.JPG,AFNE01.JPG,AFNE01.JPG,AFNE01.JPG,AFNE01.JPG,AFNE01.JPG,,,,,,,,,,,,,,,,,,,,,1,6,16,2,,,AFSA11.jpg,AFNE13.jpg,AFSA02.jpg,AFNE04.jpg,AFSA11.jpg,FS,4,num_8,32,num_2,1.01670088945,,,2017_Jul_12_1557,59.9929574017,MAFE4ImagesEEG,001,200911,
AFNE01.JPG,AFNE01.JPG,AFNE01.JPG,AFNE01.JPG,AFNE01.JPG,AFNE01.JPG,,,,,,,,,,,,,,,,,,,,,1,7,17,6,,,AFSA19.jpg,AFSA08.jpg,AFNE06.jpg,AFNE13.jpg,AFNE13.jpg,FN,3,num_4,16,num_4,0.700112707913,,,2017_Jul_12_1557,59.9929574017,MAFE4ImagesEEG,001,200911,
AFNE01.JPG,AFNE01.JPG,AFNE01.JPG,AFNE01.JPG,AFNE01.JPG,AFNE01.JPG,,,,,,,,,,,,,,,,,,,,,1,8,18,3,,,AFSA14.jpg,AFNE01.jpg,AFSA12.jpg,AFNE13.jpg,AFNE01.jpg,FN,3,num_6,32,num_8,1.00009461795,,,2017_Jul_12_1557,59.9929574017,MAFE4ImagesEEG,001,200911,
AFNE01.JPG,AFNE01.JPG,AFNE01.JPG,AFNE01.JPG,AFNE01.JPG,AFNE01.JPG,,,,,,,,,,,,,,,,,,,,,1,9,19,4,,,AFSA02.jpg,AFNE06.jpg,AFNE16.jpg,AFSA03.jpg,AFNE16.jpg,FN,3,num_2,32,num_6,1.1667343427,,,2017_Jul_12_1557,59.9929574017,MAFE4ImagesEEG,001,200911,
AFNE01.JPG,AFNE01.JPG,AFNE01.JPG,AFNE01.JPG,AFNE01.JPG,AFNE01.JPG,,,,,,,,,,,,,,,,,,,,,2,0,20,3,,,AFNE01.jpg,AFNE12.jpg,AFSA01.jpg,AFSA15.jpg,AFNE01.jpg,FN,3,num_8,16,num_8,0.783460955368,,,2017_Jul_12_1557,59.9929574017,MAFE4ImagesEEG,001,200911,
AFNE01.JPG,AFNE01.JPG,AFNE01.JPG,AFNE01.JPG,AFNE01.JPG,AFNE01.JPG,,,,,,,,,,,,,,,,,,,,,2,1,21,1,,,AFNE05.jpg,AFNE08.jpg,AFSA19.jpg,AFSA01.jpg,AFNE08.jpg,FN,3,num_6,32,num_8,0.750147379469,,,2017_Jul_12_1557,59.9929574017,MAFE4ImagesEEG,001,200911,
AFNE01.JPG,AFNE01.JPG,AFNE01.JPG,AFNE01.JPG,AFNE01.JPG,AFNE01.JPG,,,,,,,,,,,,,,,,,,,,,2,2,22,2,,,AFNE12.jpg,AFSA07.jpg,AFSA17.jpg,AFNE03.jpg,AFSA17.jpg,FS,4,num_2,16,num_2,0.633507045684,,,2017_Jul_12_1557,59.9929574017,MAFE4ImagesEEG,001,200911,
AFNE01.JPG,AFNE01.JPG,AFNE01.JPG,AFNE01.JPG,AFNE01.JPG,AFNE01.JPG,,,,,,,,,,,,,,,,,,,,,2,3,23,8,,,AFSA17.jpg,AFNE02.jpg,AFNE06.jpg,AFSA04.jpg,AFSA17.jpg,FS,4,num_8,32,num_4,1.88377341954,,,2017_Jul_12_1557,59.9929574017,MAFE4ImagesEEG,001,200911,
AFNE01.JPG,AFNE01.JPG,AFNE01.JPG,AFNE01.JPG,AFNE01.JPG,AFNE01.JPG,,,,,,,,,,,,,,,,,,,,,2,4,24,5,,,AFNE11.jpg,AFSA19.jpg,AFSA11.jpg,AFNE15.jpg,AFSA11.jpg,FS,4,num_2,32,num_8,0.600154339569,,,2017_Jul_12_1557,59.9929574017,MAFE4ImagesEEG,001,200911,
AFNE01.JPG,AFNE01.JPG,AFNE01.JPG,AFNE01.JPG,AFNE01.JPG,AFNE01.JPG,,,,,,,,,,,,,,,,,,,,,2,5,25,0,,,AFSA03.jpg,AFSA15.jpg,AFNE11.jpg,AFNE03.jpg,AFSA03.jpg,FS,4,num_8,16,num_8,0.816754645435,,,2017_Jul_12_1557,59.9929574017,MAFE4ImagesEEG,001,200911,
AFNE01.JPG,AFNE01.JPG,AFNE01.JPG,AFNE01.JPG,AFNE01.JPG,AFNE01.JPG,,,,,,,,,,,,,,,,,,,,,2,6,26,9,,,AFNE01.jpg,AFSA20.jpg,AFNE06.jpg,AFSA18.jpg,AFNE06.jpg,FN,3,num_2,16,num_2,0.666822545929,,,2017_Jul_12_1557,59.9929574017,MAFE4ImagesEEG,001,200911,
AFNE01.JPG,AFNE01.JPG,AFNE01.JPG,AFNE01.JPG,AFNE01.JPG,AFNE01.JPG,,,,,,,,,,,,,,,,,,,,,2,7,27,7,,,AFNE04.jpg,AFSA16.jpg,AFSA15.jpg,AFNE05.jpg,AFNE04.jpg,FN,3,num_8,16,num_8,0.900097119622,,,2017_Jul_12_1557,59.9929574017,MAFE4ImagesEEG,001,200911,
AFNE01.JPG,AFNE01.JPG,AFNE01.JPG,AFNE01.JPG,AFNE01.JPG,AFNE01.JPG,,,,,,,,,,,,,,,,,,,,,2,8,28,4,,,AFSA12.jpg,AFNE04.jpg,AFSA15.jpg,AFNE19.jpg,AFNE19.jpg,FN,3,num_4,16,num_4,1.08343580947,,,2017_Jul_12_1557,59.9929574017,MAFE4ImagesEEG,001,200911,
AFNE01.JPG,AFNE01.JPG,AFNE01.JPG,AFNE01.JPG,AFNE01.JPG,AFNE01.JPG,,,,,,,,,,,,,,,,,,,,,2,9,29,6,,,AFSA16.jpg,AFNE02.jpg,AFSA20.jpg,AFNE11.jpg,AFNE02.jpg,FN,3,num_6,32,num_4,0.666777963284,,,2017_Jul_12_1557,59.9929574017,MAFE4ImagesEEG,001,200911,
AFNE01.JPG,AFNE01.JPG,AFNE01.JPG,AFNE01.JPG,AFNE01.JPG,AFNE01.JPG,,,,,,,,,,,,,,,,,,,,,3,0,30,6,,,AFSA18.jpg,AFNE06.jpg,AFNE20.jpg,AFSA19.jpg,AFSA18.jpg,FS,4,num_8,16,num_8,0.600145679666,,,2017_Jul_12_1557,59.9929574017,MAFE4ImagesEEG,001,200911,
AFNE01.JPG,AFNE01.JPG,AFNE01.JPG,AFNE01.JPG,AFNE01.JPG,AFNE01.JPG,,,,,,,,,,,,,,,,,,,,,3,1,31,2,,,AFNE10.jpg,AFNE06.jpg,AFSA09.jpg,AFSA15.jpg,AFSA09.jpg,FS,4,num_2,32,num_4,0.883464547805,,,2017_Jul_12_1557,59.9929574017,MAFE4ImagesEEG,001,200911,
AFNE01.JPG,AFNE01.JPG,AFNE01.JPG,AFNE01.JPG,AFNE01.JPG,AFNE01.JPG,,,,,,,,,,,,,,,,,,,,,3,2,32,1,,,AFNE02.jpg,AFSA10.jpg,AFNE17.jpg,AFSA03.jpg,AFSA10.jpg,FS,4,num_6,16,num_6,1.65003537759,,,2017_Jul_12_1557,59.9929574017,MAFE4ImagesEEG,001,200911,
AFNE01.JPG,AFNE01.JPG,AFNE01.JPG,AFNE01.JPG,AFNE01.JPG,AFNE01.JPG,,,,,,,,,,,,,,,,,,,,,3,3,33,3,,,AFNE11.jpg,AFSA04.jpg,AFSA15.jpg,AFNE16.jpg,AFSA15.jpg,FS,4,num_2,32,num_6,2.04990445171,,,2017_Jul_12_1557,59.9929574017,MAFE4ImagesEEG,001,200911,
AFNE01.JPG,AFNE01.JPG,AFNE01.JPG,AFNE01.JPG,AFNE01.JPG,AFNE01.JPG,,,,,,,,,,,,,,,,,,,,,3,4,34,7,,,AFSA07.jpg,AFNE16.jpg,AFNE10.jpg,AFSA13.jpg,AFSA07.jpg,FS,4,num_8,16,num_8,0.616762535647,,,2017_Jul_12_1557,59.9929574017,MAFE4ImagesEEG,001,200911,
AFNE01.JPG,AFNE01.JPG,AFNE01.JPG,AFNE01.JPG,AFNE01.JPG,AFNE01.JPG,,,,,,,,,,,,,,,,,,,,,3,5,35,0,,,AFSA05.jpg,AFNE06.jpg,AFSA20.jpg,AFNE17.jpg,AFNE06.jpg,FN,3,num_6,32,num_8,0.816819113912,,,2017_Jul_12_1557,59.9929574017,MAFE4ImagesEEG,001,200911,
AFNE01.JPG,AFNE01.JPG,AFNE01.JPG,AFNE01.JPG,AFNE01.JPG,AFNE01.JPG,,,,,,,,,,,,,,,,,,,,,3,6,36,8,,,AFSA06.jpg,AFNE15.jpg,AFSA05.jpg,AFNE06.jpg,AFSA06.jpg,FS,4,num_8,16,num_8,0.783531838795,,,2017_Jul_12_1557,59.9929574017,MAFE4ImagesEEG,001,200911,
AFNE01.JPG,AFNE01.JPG,AFNE01.JPG,AFNE01.JPG,AFNE01.JPG,AFNE01.JPG,,,,,,,,,,,,,,,,,,,,,3,7,37,5,,,AFNE01.jpg,AFSA03.jpg,AFNE03.jpg,AFSA17.jpg,AFNE01.jpg,FN,3,num_8,16,num_8,0.600136378314,,,2017_Jul_12_1557,59.9929574017,MAFE4ImagesEEG,001,200911,
AFNE01.JPG,AFNE01.JPG,AFNE01.JPG,AFNE01.JPG,AFNE01.JPG,AFNE01.JPG,,,,,,,,,,,,,,,,,,,,,3,8,38,9,,,AFSA18.jpg,AFNE02.jpg,AFSA06.jpg,AFNE10.jpg,AFSA18.jpg,FS,4,num_8,16,num_8,1.43341261987,,,2017_Jul_12_1557,59.9929574017,MAFE4ImagesEEG,001,200911,
