IPosition2,IPosition3,IPosition1,IPosition6,IPosition4,IPosition5,TrialsF1.thisRepN,TrialsF1.thisTrialN,TrialsF1.thisN,TrialsF1.thisIndex,TrialsM1.thisRepN,TrialsM1.thisTrialN,TrialsM1.thisN,TrialsM1.thisIndex,TrialsF2.thisRepN,TrialsF2.thisTrialN,TrialsF2.thisN,TrialsF2.thisIndex,TrialsM2.thisRepN,TrialsM2.thisTrialN,TrialsM2.thisN,TrialsM2.thisIndex,TrialsF3.thisRepN,TrialsF3.thisTrialN,TrialsF3.thisN,TrialsF3.thisIndex,TrialsM3.thisRepN,TrialsM3.thisTrialN,TrialsM3.thisN,TrialsM3.thisIndex,InstrKey_resp.keys,InstrKey_resp.rt,Image0 _Position,Image1 _Position,Image2 _Position,Image3 _Position,Center_image,condition,code,correct_answer,accuracy,Key_Resp.keys,Key_Resp.rt,BreakKey_resp.keys,BreakKey_resp.rt,date,frameRate,expName,session,participant,
,,,,,,,,,,,,,,,,,,,,,,,,,,,,,,space,10.2495139199,,,,,,,,,,,,,,2017_Jul_10_1038,60.0081992642,FEMA4ImagesEEG,001,100905,
AMSA25.JPG,AMNE24.JPG,AMSA24.JPG,AMNE26.JPG,AMSA21.JPG,AMNE25.JPG,0,0,0,3,,,,,,,,,,,,,,,,,,,,,,,AFNE01.jpg,AFSA05.jpg,AFSA11.jpg,AFNE07.jpg,AFSA11.jpg,FS,4,num_2,48,None,,,,2017_Jul_10_1038,60.0081992642,FEMA4ImagesEEG,001,100905,
AMNE22.JPG,AMSA24.JPG,AMSA22.JPG,AMNE25.JPG,AMNE24.JPG,AMSA25.JPG,0,1,1,7,,,,,,,,,,,,,,,,,,,,,,,AFSA18.jpg,AFSA20.jpg,AFNE06.jpg,AFNE07.jpg,AFNE07.jpg,FN,3,num_4,48,None,,,,2017_Jul_10_1038,60.0081992642,FEMA4ImagesEEG,001,100905,
AMSA21.JPG,AMNE22.JPG,AMNE21.JPG,AMSA23.JPG,AMSA22.JPG,AMNE23.JPG,0,2,2,1,,,,,,,,,,,,,,,,,,,,,,,AFNE01.jpg,AFNE02.jpg,AFSA08.jpg,AFSA06.jpg,AFNE02.jpg,FN,3,num_6,48,None,,,,2017_Jul_10_1038,60.0081992642,FEMA4ImagesEEG,001,100905,
AFSA25.JPG,AFNE24.JPG,AFSA24.JPG,AFNE21.JPG,AFSA21.JPG,AFNE25.JPG,0,3,3,2,,,,,,,,,,,,,,,,,,,,,,,AFSA06.jpg,AFNE08.jpg,AFNE11.jpg,AFSA18.jpg,AFNE08.jpg,FN,3,num_6,48,None,,,,2017_Jul_10_1038,60.0081992642,FEMA4ImagesEEG,001,100905,
AMNE23.JPG,AMNE24.JPG,AMNE22.JPG,AMSA24.JPG,AMSA22.JPG,AMSA23.JPG,0,4,4,9,,,,,,,,,,,,,,,,,,,,,,,AFNE07.jpg,AFSA10.jpg,AFSA12.jpg,AFNE05.jpg,AFSA12.jpg,FS,4,num_2,48,None,,,,2017_Jul_10_1038,60.0081992642,FEMA4ImagesEEG,001,100905,
AFSA21.JPG,AFNE22.JPG,AFNE21.JPG,AFSA23.JPG,AFSA22.JPG,AFNE23.JPG,0,5,5,0,,,,,,,,,,,,,,,,,,,,,,,AFSA10.jpg,AFNE11.jpg,AFSA02.jpg,AFNE04.jpg,AFSA10.jpg,FS,4,num_8,48,None,,,,2017_Jul_10_1038,60.0081992642,FEMA4ImagesEEG,001,100905,
AFSA21.JPG,AFNE23.JPG,AFNE21.JPG,AFSA25.JPG,AFNE25.JPG,AFSA23.JPG,0,6,6,4,,,,,,,,,,,,,,,,,,,,,,,AFNE10.jpg,AFSA02.jpg,AFNE18.jpg,AFSA05.jpg,AFNE18.jpg,FN,3,num_2,48,None,,,,2017_Jul_10_1038,60.0081992642,FEMA4ImagesEEG,001,100905,
AFNE22.JPG,AFSA24.JPG,AFSA22.JPG,AFNE25.JPG,AFNE24.JPG,AFSA25.JPG,0,7,7,6,,,,,,,,,,,,,,,,,,,,,,,AFNE08.jpg,AFSA18.jpg,AFNE10.jpg,AFSA17.jpg,AFNE10.jpg,FN,3,num_2,48,None,,,,2017_Jul_10_1038,60.0081992642,FEMA4ImagesEEG,001,100905,
AFNE23.JPG,AFNE24.JPG,AFNE22.JPG,AFSA24.JPG,AFSA22.JPG,AFSA23.JPG,0,8,8,8,,,,,,,,,,,,,,,,,,,,,,,AFNE12.jpg,AFNE18.jpg,AFSA02.jpg,AFSA17.jpg,AFSA17.jpg,FS,4,num_4,48,None,,,,2017_Jul_10_1038,60.0081992642,FEMA4ImagesEEG,001,100905,
AMSA21.JPG,AMNE23.JPG,AMNE21.JPG,AMSA25.JPG,AMNE25.JPG,AMSA23.JPG,0,9,9,5,,,,,,,,,,,,,,,,,,,,,,,AFSA08.jpg,AFNE01.jpg,AFNE05.jpg,AFSA13.jpg,AFNE01.jpg,FN,3,num_6,48,None,,,,2017_Jul_10_1038,60.0081992642,FEMA4ImagesEEG,001,100905,
AMSA21.JPG,AMNE22.JPG,AMNE21.JPG,AMSA23.JPG,AMSA22.JPG,AMNE23.JPG,,,,,0,0,0,1,,,,,,,,,,,,,,,,,,,AMSA17.jpg,AMNE10.jpg,AMSA10.jpg,AMNE15.jpg,AMSA10.jpg,MS,2,num_2,48,None,,,,2017_Jul_10_1038,60.0081992642,FEMA4ImagesEEG,001,100905,
AFSA21.JPG,AFNE23.JPG,AFNE21.JPG,AFSA25.JPG,AFNE25.JPG,AFSA23.JPG,,,,,0,1,1,4,,,,,,,,,,,,,,,,,,,AMSA08.jpg,AMSA09.jpg,AMNE08.jpg,AMNE17.jpg,AMNE17.jpg,MN,1,num_4,48,None,,,,2017_Jul_10_1038,60.0081992642,FEMA4ImagesEEG,001,100905,
AMNE22.JPG,AMSA24.JPG,AMSA22.JPG,AMNE25.JPG,AMNE24.JPG,AMSA25.JPG,,,,,0,2,2,7,,,,,,,,,,,,,,,,,,,AMNE10.jpg,AMSA08.jpg,AMSA17.jpg,AMNE03.jpg,AMNE10.jpg,MN,1,num_8,32,num_6,2.40012117522,,,2017_Jul_10_1038,60.0081992642,FEMA4ImagesEEG,001,100905,
AFNE23.JPG,AFNE24.JPG,AFNE22.JPG,AFSA24.JPG,AFSA22.JPG,AFSA23.JPG,,,,,0,3,3,8,,,,,,,,,,,,,,,,,,,AMSA09.jpg,AMNE02.jpg,AMSA01.jpg,AMNE09.jpg,AMSA09.jpg,MS,2,num_8,32,num_4,1.40012855222,,,2017_Jul_10_1038,60.0081992642,FEMA4ImagesEEG,001,100905,
AFSA25.JPG,AFNE24.JPG,AFSA24.JPG,AFNE21.JPG,AFSA21.JPG,AFNE25.JPG,,,,,0,4,4,2,,,,,,,,,,,,,,,,,,,AMSA03.jpg,AMSA08.jpg,AMNE01.jpg,AMNE13.jpg,AMSA08.jpg,MS,2,num_6,32,num_2,1.3334449504,,,2017_Jul_10_1038,60.0081992642,FEMA4ImagesEEG,001,100905,
AMSA21.JPG,AMNE23.JPG,AMNE21.JPG,AMSA25.JPG,AMNE25.JPG,AMSA23.JPG,,,,,0,5,5,5,,,,,,,,,,,,,,,,,,,AMNE08.jpg,AMSA12.jpg,AMSA16.jpg,AMNE20.jpg,AMSA16.jpg,MS,2,num_2,32,num_8,2.06668809196,,,2017_Jul_10_1038,60.0081992642,FEMA4ImagesEEG,001,100905,
AFSA21.JPG,AFNE22.JPG,AFNE21.JPG,AFSA23.JPG,AFSA22.JPG,AFNE23.JPG,,,,,0,6,6,0,,,,,,,,,,,,,,,,,,,AMNE15.jpg,AMSA20.jpg,AMNE08.jpg,AMSA09.jpg,AMNE08.jpg,MN,1,num_2,32,num_8,1.01674034051,,,2017_Jul_10_1038,60.0081992642,FEMA4ImagesEEG,001,100905,
AFNE22.JPG,AFSA24.JPG,AFSA22.JPG,AFNE25.JPG,AFNE24.JPG,AFSA25.JPG,,,,,0,7,7,6,,,,,,,,,,,,,,,,,,,AMNE13.jpg,AMSA02.jpg,AMNE20.jpg,AMSA06.jpg,AMNE13.jpg,MN,1,num_8,32,num_2,0.766857891344,,,2017_Jul_10_1038,60.0081992642,FEMA4ImagesEEG,001,100905,
AMNE23.JPG,AMNE24.JPG,AMNE22.JPG,AMSA24.JPG,AMSA22.JPG,AMSA23.JPG,,,,,0,8,8,9,,,,,,,,,,,,,,,,,,,AMSA13.jpg,AMSA12.jpg,AMNE06.jpg,AMNE10.jpg,AMNE06.jpg,MN,1,num_2,32,num_8,1.99970812746,,,2017_Jul_10_1038,60.0081992642,FEMA4ImagesEEG,001,100905,
AMSA25.JPG,AMNE24.JPG,AMSA24.JPG,AMNE26.JPG,AMSA21.JPG,AMNE25.JPG,,,,,0,9,9,3,,,,,,,,,,,,,,,,,,,AMNE13.jpg,AMNE01.jpg,AMSA09.jpg,AMSA10.jpg,AMNE13.jpg,MN,1,num_8,16,num_8,0.750350407558,,,2017_Jul_10_1038,60.0081992642,FEMA4ImagesEEG,001,100905,
AFNE22.JPG,AFSA24.JPG,AFSA22.JPG,AFNE25.JPG,AFNE24.JPG,AFSA25.JPG,,,,,,,,,0,0,0,6,,,,,,,,,,,,,,,AFNE14.jpg,AFNE02.jpg,AFSA13.jpg,AFSA18.jpg,AFNE02.jpg,FN,3,num_6,32,num_8,1.45011671702,,,2017_Jul_10_1038,60.0081992642,FEMA4ImagesEEG,001,100905,
AMSA21.JPG,AMNE23.JPG,AMNE21.JPG,AMSA25.JPG,AMNE25.JPG,AMSA23.JPG,,,,,,,,,0,1,1,5,,,,,,,,,,,,,,,AFSA14.jpg,AFNE20.jpg,AFNE17.jpg,AFSA15.jpg,AFSA14.jpg,FS,4,num_8,32,num_2,1.81696729548,,,2017_Jul_10_1038,60.0081992642,FEMA4ImagesEEG,001,100905,
AFNE23.JPG,AFNE24.JPG,AFNE22.JPG,AFSA24.JPG,AFSA22.JPG,AFSA23.JPG,,,,,,,,,0,2,2,8,,,,,,,,,,,,,,,AFSA19.jpg,AFNE12.jpg,AFNE08.jpg,AFSA06.jpg,AFSA19.jpg,FS,4,num_8,32,num_4,2.51668260735,,,2017_Jul_10_1038,60.0081992642,FEMA4ImagesEEG,001,100905,
AMNE22.JPG,AMSA24.JPG,AMSA22.JPG,AMNE25.JPG,AMNE24.JPG,AMSA25.JPG,,,,,,,,,0,3,3,7,,,,,,,,,,,,,,,AFNE07.jpg,AFSA09.jpg,AFNE15.jpg,AFSA05.jpg,AFNE15.jpg,FN,3,num_2,32,num_8,1.05011196993,,,2017_Jul_10_1038,60.0081992642,FEMA4ImagesEEG,001,100905,
AFSA25.JPG,AFNE24.JPG,AFSA24.JPG,AFNE21.JPG,AFSA21.JPG,AFNE25.JPG,,,,,,,,,0,4,4,2,,,,,,,,,,,,,,,AFNE05.jpg,AFNE01.jpg,AFSA07.jpg,AFSA13.jpg,AFNE01.jpg,FN,3,num_6,32,num_2,0.916772671044,,,2017_Jul_10_1038,60.0081992642,FEMA4ImagesEEG,001,100905,
AFSA21.JPG,AFNE22.JPG,AFNE21.JPG,AFSA23.JPG,AFSA22.JPG,AFNE23.JPG,,,,,,,,,0,5,5,0,,,,,,,,,,,,,,,AFNE01.jpg,AFSA20.jpg,AFSA09.jpg,AFNE16.jpg,AFSA09.jpg,FS,4,num_2,32,num_6,1.8167091005,,,2017_Jul_10_1038,60.0081992642,FEMA4ImagesEEG,001,100905,
AMSA21.JPG,AMNE22.JPG,AMNE21.JPG,AMSA23.JPG,AMSA22.JPG,AMNE23.JPG,,,,,,,,,0,6,6,1,,,,,,,,,,,,,,,AFSA09.jpg,AFNE04.jpg,AFNE10.jpg,AFSA04.jpg,AFNE04.jpg,FN,3,num_6,32,num_2,1.05445606145,,,2017_Jul_10_1038,60.0081992642,FEMA4ImagesEEG,001,100905,
AMSA25.JPG,AMNE24.JPG,AMSA24.JPG,AMNE26.JPG,AMSA21.JPG,AMNE25.JPG,,,,,,,,,0,7,7,3,,,,,,,,,,,,,,,AFSA10.jpg,AFNE13.jpg,AFNE05.jpg,AFSA03.jpg,AFSA03.jpg,FS,4,num_4,16,num_4,0.916825913591,,,2017_Jul_10_1038,60.0081992642,FEMA4ImagesEEG,001,100905,
AFSA21.JPG,AFNE23.JPG,AFNE21.JPG,AFSA25.JPG,AFNE25.JPG,AFSA23.JPG,,,,,,,,,0,8,8,4,,,,,,,,,,,,,,,AFNE18.jpg,AFNE16.jpg,AFSA01.jpg,AFSA08.jpg,AFSA08.jpg,FS,4,num_4,32,num_8,1.93339850754,,,2017_Jul_10_1038,60.0081992642,FEMA4ImagesEEG,001,100905,
AMNE23.JPG,AMNE24.JPG,AMNE22.JPG,AMSA24.JPG,AMSA22.JPG,AMSA23.JPG,,,,,,,,,0,9,9,9,,,,,,,,,,,,,,,AFSA03.jpg,AFSA07.jpg,AFNE06.jpg,AFNE04.jpg,AFNE04.jpg,FN,3,num_4,32,num_6,1.78339809063,,,2017_Jul_10_1038,60.0081992642,FEMA4ImagesEEG,001,100905,
AMSA25.JPG,AMNE24.JPG,AMSA24.JPG,AMNE26.JPG,AMSA21.JPG,AMNE25.JPG,,,,,,,,,,,,,0,0,0,3,,,,,,,,,,,AMNE19.jpg,AMSA07.jpg,AMSA20.jpg,AMNE05.jpg,AMSA20.jpg,MS,2,num_2,16,num_2,0.733443282777,,,2017_Jul_10_1038,60.0081992642,FEMA4ImagesEEG,001,100905,
AFSA21.JPG,AFNE23.JPG,AFNE21.JPG,AFSA25.JPG,AFNE25.JPG,AFSA23.JPG,,,,,,,,,,,,,0,1,1,4,,,,,,,,,,,AMNE01.jpg,AMNE12.jpg,AMSA05.jpg,AMSA07.jpg,AMNE12.jpg,MN,1,num_6,32,num_2,1.48343317932,,,2017_Jul_10_1038,60.0081992642,FEMA4ImagesEEG,001,100905,
AFSA25.JPG,AFNE24.JPG,AFSA24.JPG,AFNE21.JPG,AFSA21.JPG,AFNE25.JPG,,,,,,,,,,,,,0,2,2,2,,,,,,,,,,,AMNE06.jpg,AMSA11.jpg,AMNE03.jpg,AMSA05.jpg,AMNE06.jpg,MN,1,num_8,16,num_8,1.06673492002,,,2017_Jul_10_1038,60.0081992642,FEMA4ImagesEEG,001,100905,
AFNE23.JPG,AFNE24.JPG,AFNE22.JPG,AFSA24.JPG,AFSA22.JPG,AFSA23.JPG,,,,,,,,,,,,,0,3,3,8,,,,,,,,,,,AMNE03.jpg,AMNE04.jpg,AMSA13.jpg,AMSA16.jpg,AMNE03.jpg,MN,1,num_8,16,num_8,0.900106742047,,,2017_Jul_10_1038,60.0081992642,FEMA4ImagesEEG,001,100905,
AFNE22.JPG,AFSA24.JPG,AFSA22.JPG,AFNE25.JPG,AFNE24.JPG,AFSA25.JPG,,,,,,,,,,,,,0,4,4,6,,,,,,,,,,,AMNE01.jpg,AMSA02.jpg,AMSA16.jpg,AMNE20.jpg,AMSA02.jpg,MS,2,num_6,32,num_8,1.13342204993,,,2017_Jul_10_1038,60.0081992642,FEMA4ImagesEEG,001,100905,
AMNE23.JPG,AMNE24.JPG,AMNE22.JPG,AMSA24.JPG,AMSA22.JPG,AMSA23.JPG,,,,,,,,,,,,,0,5,5,9,,,,,,,,,,,AMNE19.jpg,AMSA06.jpg,AMSA01.jpg,AMNE06.jpg,AMNE06.jpg,MN,1,num_4,16,num_4,1.45006860606,,,2017_Jul_10_1038,60.0081992642,FEMA4ImagesEEG,001,100905,
AMSA21.JPG,AMNE22.JPG,AMNE21.JPG,AMSA23.JPG,AMSA22.JPG,AMNE23.JPG,,,,,,,,,,,,,0,6,6,1,,,,,,,,,,,AMSA02.jpg,AMNE07.jpg,AMSA12.jpg,AMNE03.jpg,AMSA12.jpg,MS,2,num_2,16,num_2,1.16678758524,,,2017_Jul_10_1038,60.0081992642,FEMA4ImagesEEG,001,100905,
AFSA21.JPG,AFNE22.JPG,AFNE21.JPG,AFSA23.JPG,AFSA22.JPG,AFNE23.JPG,,,,,,,,,,,,,0,7,7,0,,,,,,,,,,,AMNE04.jpg,AMSA10.jpg,AMSA18.jpg,AMNE19.jpg,AMNE19.jpg,MN,1,num_4,32,num_6,1.05014083651,,,2017_Jul_10_1038,60.0081992642,FEMA4ImagesEEG,001,100905,
AMNE22.JPG,AMSA24.JPG,AMSA22.JPG,AMNE25.JPG,AMNE24.JPG,AMSA25.JPG,,,,,,,,,,,,,0,8,8,7,,,,,,,,,,,AMSA17.jpg,AMNE07.jpg,AMSA10.jpg,AMNE05.jpg,AMSA17.jpg,MS,2,num_8,32,num_4,1.10009307857,,,2017_Jul_10_1038,60.0081992642,FEMA4ImagesEEG,001,100905,
AMSA21.JPG,AMNE23.JPG,AMNE21.JPG,AMSA25.JPG,AMNE25.JPG,AMSA23.JPG,,,,,,,,,,,,,0,9,9,5,,,,,,,,,,,AMSA07.jpg,AMNE15.jpg,AMNE02.jpg,AMSA02.jpg,AMNE15.jpg,MN,1,num_6,16,num_6,1.25008066604,,,2017_Jul_10_1038,60.0081992642,FEMA4ImagesEEG,001,100905,
AFNE22.JPG,AFSA24.JPG,AFSA22.JPG,AFNE25.JPG,AFNE24.JPG,AFSA25.JPG,,,,,,,,,,,,,,,,,0,0,0,6,,,,,,,AFNE05.jpg,AFSA06.jpg,AFSA12.jpg,AFNE18.jpg,AFNE18.jpg,FN,3,num_4,32,num_8,0.900066328933,,,2017_Jul_10_1038,60.0081992642,FEMA4ImagesEEG,001,100905,
AFSA21.JPG,AFNE22.JPG,AFNE21.JPG,AFSA23.JPG,AFSA22.JPG,AFNE23.JPG,,,,,,,,,,,,,,,,,0,1,1,0,,,,,,,AFSA19.jpg,AFSA04.jpg,AFNE04.jpg,AFNE10.jpg,AFSA04.jpg,FS,4,num_6,32,num_4,0.933502747677,,,2017_Jul_10_1038,60.0081992642,FEMA4ImagesEEG,001,100905,
AMSA21.JPG,AMNE22.JPG,AMNE21.JPG,AMSA23.JPG,AMSA22.JPG,AMNE23.JPG,,,,,,,,,,,,,,,,,0,2,2,1,,,,,,,AFSA17.jpg,AFSA13.jpg,AFNE06.jpg,AFNE16.jpg,AFSA13.jpg,FS,4,num_6,32,num_8,1.98372858018,,,2017_Jul_10_1038,60.0081992642,FEMA4ImagesEEG,001,100905,
AMSA21.JPG,AMNE23.JPG,AMNE21.JPG,AMSA25.JPG,AMNE25.JPG,AMSA23.JPG,,,,,,,,,,,,,,,,,0,3,3,5,,,,,,,AFNE20.jpg,AFSA20.jpg,AFNE19.jpg,AFSA19.jpg,AFNE20.jpg,FN,3,num_8,32,num_2,1.95001728786,,,2017_Jul_10_1038,60.0081992642,FEMA4ImagesEEG,001,100905,
AFSA25.JPG,AFNE24.JPG,AFSA24.JPG,AFNE21.JPG,AFSA21.JPG,AFNE25.JPG,,,,,,,,,,,,,,,,,0,4,4,2,,,,,,,AFSA06.jpg,AFNE07.jpg,AFSA16.jpg,AFNE03.jpg,AFSA16.jpg,FS,4,num_2,32,num_4,2.05008374504,,,2017_Jul_10_1038,60.0081992642,FEMA4ImagesEEG,001,100905,
AMSA25.JPG,AMNE24.JPG,AMSA24.JPG,AMNE26.JPG,AMSA21.JPG,AMNE25.JPG,,,,,,,,,,,,,,,,,0,5,5,3,,,,,,,AFNE02.jpg,AFSA01.jpg,AFNE01.jpg,AFSA05.jpg,AFNE01.jpg,FN,3,num_2,32,num_8,2.18337749923,,,2017_Jul_10_1038,60.0081992642,FEMA4ImagesEEG,001,100905,
AFNE23.JPG,AFNE24.JPG,AFNE22.JPG,AFSA24.JPG,AFSA22.JPG,AFSA23.JPG,,,,,,,,,,,,,,,,,0,6,6,8,,,,,,,AFSA06.jpg,AFNE06.jpg,AFSA08.jpg,AFNE16.jpg,AFNE06.jpg,FN,3,num_6,32,num_8,1.26673280308,,,2017_Jul_10_1038,60.0081992642,FEMA4ImagesEEG,001,100905,
AMNE23.JPG,AMNE24.JPG,AMNE22.JPG,AMSA24.JPG,AMSA22.JPG,AMSA23.JPG,,,,,,,,,,,,,,,,,0,7,7,9,,,,,,,AFNE03.jpg,AFSA08.jpg,AFNE19.jpg,AFSA06.jpg,AFSA06.jpg,FS,4,num_4,32,num_8,1.03343802248,,,2017_Jul_10_1038,60.0081992642,FEMA4ImagesEEG,001,100905,
AMNE22.JPG,AMSA24.JPG,AMSA22.JPG,AMNE25.JPG,AMNE24.JPG,AMSA25.JPG,,,,,,,,,,,,,,,,,0,8,8,7,,,,,,,AFNE10.jpg,AFNE20.jpg,AFSA14.jpg,AFSA05.jpg,AFNE20.jpg,FN,3,num_6,16,num_6,0.866867256816,,,2017_Jul_10_1038,60.0081992642,FEMA4ImagesEEG,001,100905,
AFSA21.JPG,AFNE23.JPG,AFNE21.JPG,AFSA25.JPG,AFNE25.JPG,AFSA23.JPG,,,,,,,,,,,,,,,,,0,9,9,4,,,,,,,AFSA06.jpg,AFNE14.jpg,AFSA14.jpg,AFNE05.jpg,AFNE05.jpg,FN,3,num_4,32,num_8,1.10014824569,,,2017_Jul_10_1038,60.0081992642,FEMA4ImagesEEG,001,100905,
AFNE22.JPG,AFSA24.JPG,AFSA22.JPG,AFNE25.JPG,AFNE24.JPG,AFSA25.JPG,,,,,,,,,,,,,,,,,,,,,0,0,0,6,,,AMSA08.jpg,AMNE19.jpg,AMSA13.jpg,AMNE18.jpg,AMSA13.jpg,MS,2,num_2,16,num_2,1.10009500291,,,2017_Jul_10_1038,60.0081992642,FEMA4ImagesEEG,001,100905,
AFSA21.JPG,AFNE23.JPG,AFNE21.JPG,AFSA25.JPG,AFNE25.JPG,AFSA23.JPG,,,,,,,,,,,,,,,,,,,,,0,1,1,4,,,AMNE11.jpg,AMNE05.jpg,AMSA07.jpg,AMSA05.jpg,AMSA05.jpg,MS,2,num_4,32,num_2,1.45008015283,,,2017_Jul_10_1038,60.0081992642,FEMA4ImagesEEG,001,100905,
AFSA21.JPG,AFNE22.JPG,AFNE21.JPG,AFSA23.JPG,AFSA22.JPG,AFNE23.JPG,,,,,,,,,,,,,,,,,,,,,0,2,2,0,,,AMSA15.jpg,AMSA10.jpg,AMNE07.jpg,AMNE06.jpg,AMSA15.jpg,MS,2,num_8,16,num_8,0.700170440832,,,2017_Jul_10_1038,60.0081992642,FEMA4ImagesEEG,001,100905,
AFSA25.JPG,AFNE24.JPG,AFSA24.JPG,AFNE21.JPG,AFSA21.JPG,AFNE25.JPG,,,,,,,,,,,,,,,,,,,,,0,3,3,2,,,AMSA07.jpg,AMSA06.jpg,AMNE14.jpg,AMNE20.jpg,AMSA06.jpg,MS,2,num_6,16,num_6,1.04972932814,,,2017_Jul_10_1038,60.0081992642,FEMA4ImagesEEG,001,100905,
AMSA21.JPG,AMNE23.JPG,AMNE21.JPG,AMSA25.JPG,AMNE25.JPG,AMSA23.JPG,,,,,,,,,,,,,,,,,,,,,0,4,4,5,,,AMSA16.jpg,AMNE05.jpg,AMNE16.jpg,AMSA14.jpg,AMNE16.jpg,MN,1,num_2,16,num_2,1.18341213884,,,2017_Jul_10_1038,60.0081992642,FEMA4ImagesEEG,001,100905,
AMSA25.JPG,AMNE24.JPG,AMSA24.JPG,AMNE26.JPG,AMSA21.JPG,AMNE25.JPG,,,,,,,,,,,,,,,,,,,,,0,5,5,3,,,AMNE12.jpg,AMSA03.jpg,AMNE15.jpg,AMSA06.jpg,AMNE12.jpg,MN,1,num_8,32,num_6,1.01663353434,,,2017_Jul_10_1038,60.0081992642,FEMA4ImagesEEG,001,100905,
AMNE23.JPG,AMNE24.JPG,AMNE22.JPG,AMSA24.JPG,AMSA22.JPG,AMSA23.JPG,,,,,,,,,,,,,,,,,,,,,0,6,6,9,,,AMSA17.jpg,AMNE09.jpg,AMNE07.jpg,AMSA11.jpg,AMNE07.jpg,MN,1,num_2,16,num_2,1.31675272086,,,2017_Jul_10_1038,60.0081992642,FEMA4ImagesEEG,001,100905,
AMSA21.JPG,AMNE22.JPG,AMNE21.JPG,AMSA23.JPG,AMSA22.JPG,AMNE23.JPG,,,,,,,,,,,,,,,,,,,,,0,7,7,1,,,AMSA05.jpg,AMNE19.jpg,AMSA19.jpg,AMNE20.jpg,AMSA05.jpg,MS,2,num_8,16,num_8,0.883472245419,,,2017_Jul_10_1038,60.0081992642,FEMA4ImagesEEG,001,100905,
AFNE23.JPG,AFNE24.JPG,AFNE22.JPG,AFSA24.JPG,AFSA22.JPG,AFSA23.JPG,,,,,,,,,,,,,,,,,,,,,0,8,8,8,,,AMNE03.jpg,AMNE17.jpg,AMSA08.jpg,AMSA10.jpg,AMSA08.jpg,MS,2,num_2,32,num_6,2.28337435587,,,2017_Jul_10_1038,60.0081992642,FEMA4ImagesEEG,001,100905,
AMNE22.JPG,AMSA24.JPG,AMSA22.JPG,AMNE25.JPG,AMNE24.JPG,AMSA25.JPG,,,,,,,,,,,,,,,,,,,,,0,9,9,7,,,AMNE03.jpg,AMSA08.jpg,AMNE04.jpg,AMSA15.jpg,AMNE03.jpg,MN,1,num_8,32,num_4,2.41666714777,,,2017_Jul_10_1038,60.0081992642,FEMA4ImagesEEG,001,100905,
,,,,,,,,,,,,,,,,,,,,,,,,,,,,,,,,,,,,,,,,,,,space,5.49944095151,2017_Jul_10_1038,60.0081992642,FEMA4ImagesEEG,001,100905,
AFNE01.JPG,AFNE01.JPG,AFNE01.JPG,AFNE01.JPG,AFNE01.JPG,AFNE01.JPG,0,0,0,5,,,,,,,,,,,,,,,,,,,,,,,AFSA09.jpg,AFSA10.jpg,AFNE18.jpg,AFNE15.jpg,AFSA09.jpg,FS,4,num_8,32,num_6,0.85009163525,,,2017_Jul_10_1038,60.0081992642,FEMA4ImagesEEG,001,100905,
AFNE01.JPG,AFNE01.JPG,AFNE01.JPG,AFNE01.JPG,AFNE01.JPG,AFNE01.JPG,0,1,1,3,,,,,,,,,,,,,,,,,,,,,,,AFSA10.jpg,AFNE09.jpg,AFNE19.jpg,AFSA15.jpg,AFSA15.jpg,FS,4,num_4,32,num_2,2.40025813086,,,2017_Jul_10_1038,60.0081992642,FEMA4ImagesEEG,001,100905,
AFNE01.JPG,AFNE01.JPG,AFNE01.JPG,AFNE01.JPG,AFNE01.JPG,AFNE01.JPG,0,2,2,2,,,,,,,,,,,,,,,,,,,,,,,AFSA14.jpg,AFNE09.jpg,AFNE08.jpg,AFSA06.jpg,AFSA14.jpg,FS,4,num_8,16,num_8,2.23332557152,,,2017_Jul_10_1038,60.0081992642,FEMA4ImagesEEG,001,100905,
AFNE01.JPG,AFNE01.JPG,AFNE01.JPG,AFNE01.JPG,AFNE01.JPG,AFNE01.JPG,0,3,3,0,,,,,,,,,,,,,,,,,,,,,,,AFNE14.jpg,AFSA12.jpg,AFSA09.jpg,AFNE18.jpg,AFNE14.jpg,FN,3,num_8,16,num_8,1.16671349457,,,2017_Jul_10_1038,60.0081992642,FEMA4ImagesEEG,001,100905,
AFNE01.JPG,AFNE01.JPG,AFNE01.JPG,AFNE01.JPG,AFNE01.JPG,AFNE01.JPG,0,4,4,7,,,,,,,,,,,,,,,,,,,,,,,AFSA15.jpg,AFSA02.jpg,AFNE09.jpg,AFNE07.jpg,AFSA15.jpg,FS,4,num_8,32,num_2,1.03338606283,,,2017_Jul_10_1038,60.0081992642,FEMA4ImagesEEG,001,100905,
AFNE01.JPG,AFNE01.JPG,AFNE01.JPG,AFNE01.JPG,AFNE01.JPG,AFNE01.JPG,0,5,5,6,,,,,,,,,,,,,,,,,,,,,,,AFNE13.jpg,AFSA07.jpg,AFSA14.jpg,AFNE14.jpg,AFNE14.jpg,FN,3,num_4,32,num_8,0.950150073972,,,2017_Jul_10_1038,60.0081992642,FEMA4ImagesEEG,001,100905,
AFNE01.JPG,AFNE01.JPG,AFNE01.JPG,AFNE01.JPG,AFNE01.JPG,AFNE01.JPG,0,6,6,8,,,,,,,,,,,,,,,,,,,,,,,AFNE10.jpg,AFSA17.jpg,AFSA11.jpg,AFNE20.jpg,AFSA11.jpg,FS,4,num_2,32,num_4,0.98341489723,,,2017_Jul_10_1038,60.0081992642,FEMA4ImagesEEG,001,100905,
AFNE01.JPG,AFNE01.JPG,AFNE01.JPG,AFNE01.JPG,AFNE01.JPG,AFNE01.JPG,0,7,7,4,,,,,,,,,,,,,,,,,,,,,,,AFSA02.jpg,AFNE17.jpg,AFNE05.jpg,AFSA04.jpg,AFNE17.jpg,FN,3,num_6,16,num_6,0.900116043398,,,2017_Jul_10_1038,60.0081992642,FEMA4ImagesEEG,001,100905,
AFNE01.JPG,AFNE01.JPG,AFNE01.JPG,AFNE01.JPG,AFNE01.JPG,AFNE01.JPG,0,8,8,9,,,,,,,,,,,,,,,,,,,,,,,AFNE19.jpg,AFSA14.jpg,AFSA08.jpg,AFNE12.jpg,AFNE19.jpg,FN,3,num_8,16,num_8,0.966752817389,,,2017_Jul_10_1038,60.0081992642,FEMA4ImagesEEG,001,100905,
AFNE01.JPG,AFNE01.JPG,AFNE01.JPG,AFNE01.JPG,AFNE01.JPG,AFNE01.JPG,0,9,9,1,,,,,,,,,,,,,,,,,,,,,,,AFSA05.jpg,AFNE05.jpg,AFNE15.jpg,AFSA19.jpg,AFSA19.jpg,FS,4,num_4,32,num_8,1.48342227447,,,2017_Jul_10_1038,60.0081992642,FEMA4ImagesEEG,001,100905,
AFNE01.JPG,AFNE01.JPG,AFNE01.JPG,AFNE01.JPG,AFNE01.JPG,AFNE01.JPG,1,0,10,5,,,,,,,,,,,,,,,,,,,,,,,AFSA19.jpg,AFNE02.jpg,AFNE14.jpg,AFSA18.jpg,AFNE14.jpg,FN,3,num_2,32,num_6,2.35004576948,,,2017_Jul_10_1038,60.0081992642,FEMA4ImagesEEG,001,100905,
AFNE01.JPG,AFNE01.JPG,AFNE01.JPG,AFNE01.JPG,AFNE01.JPG,AFNE01.JPG,1,1,11,3,,,,,,,,,,,,,,,,,,,,,,,AFNE11.jpg,AFSA17.jpg,AFNE14.jpg,AFSA13.jpg,AFNE11.jpg,FN,3,num_8,32,num_6,1.10001962911,,,2017_Jul_10_1038,60.0081992642,FEMA4ImagesEEG,001,100905,
AFNE01.JPG,AFNE01.JPG,AFNE01.JPG,AFNE01.JPG,AFNE01.JPG,AFNE01.JPG,1,2,12,8,,,,,,,,,,,,,,,,,,,,,,,AFSA12.jpg,AFNE05.jpg,AFNE15.jpg,AFSA14.jpg,AFNE05.jpg,FN,3,num_6,32,num_2,0.95026072883,,,2017_Jul_10_1038,60.0081992642,FEMA4ImagesEEG,001,100905,
AFNE01.JPG,AFNE01.JPG,AFNE01.JPG,AFNE01.JPG,AFNE01.JPG,AFNE01.JPG,1,3,13,6,,,,,,,,,,,,,,,,,,,,,,,AFSA16.jpg,AFSA12.jpg,AFNE14.jpg,AFNE01.jpg,AFSA16.jpg,FS,4,num_8,16,num_8,0.916497476632,,,2017_Jul_10_1038,60.0081992642,FEMA4ImagesEEG,001,100905,
AFNE01.JPG,AFNE01.JPG,AFNE01.JPG,AFNE01.JPG,AFNE01.JPG,AFNE01.JPG,1,4,14,0,,,,,,,,,,,,,,,,,,,,,,,AFNE02.jpg,AFSA16.jpg,AFNE16.jpg,AFSA08.jpg,AFNE16.jpg,FN,3,num_2,16,num_2,1.16658648197,,,2017_Jul_10_1038,60.0081992642,FEMA4ImagesEEG,001,100905,
AFNE01.JPG,AFNE01.JPG,AFNE01.JPG,AFNE01.JPG,AFNE01.JPG,AFNE01.JPG,1,5,15,7,,,,,,,,,,,,,,,,,,,,,,,AFSA18.jpg,AFNE15.jpg,AFSA10.jpg,AFNE05.jpg,AFSA18.jpg,FS,4,num_8,16,num_8,0.933471956989,,,2017_Jul_10_1038,60.0081992642,FEMA4ImagesEEG,001,100905,
AFNE01.JPG,AFNE01.JPG,AFNE01.JPG,AFNE01.JPG,AFNE01.JPG,AFNE01.JPG,1,6,16,9,,,,,,,,,,,,,,,,,,,,,,,AFNE17.jpg,AFNE15.jpg,AFSA02.jpg,AFSA10.jpg,AFSA02.jpg,FS,4,num_2,32,num_4,0.983419708442,,,2017_Jul_10_1038,60.0081992642,FEMA4ImagesEEG,001,100905,
AFNE01.JPG,AFNE01.JPG,AFNE01.JPG,AFNE01.JPG,AFNE01.JPG,AFNE01.JPG,1,7,17,2,,,,,,,,,,,,,,,,,,,,,,,AFNE10.jpg,AFSA08.jpg,AFSA19.jpg,AFNE04.jpg,AFNE04.jpg,FN,3,num_4,16,num_4,0.850230515236,,,2017_Jul_10_1038,60.0081992642,FEMA4ImagesEEG,001,100905,
AFNE01.JPG,AFNE01.JPG,AFNE01.JPG,AFNE01.JPG,AFNE01.JPG,AFNE01.JPG,1,8,18,1,,,,,,,,,,,,,,,,,,,,,,,AFNE02.jpg,AFSA14.jpg,AFNE07.jpg,AFSA03.jpg,AFSA14.jpg,FS,4,num_6,32,num_4,1.35010446468,,,2017_Jul_10_1038,60.0081992642,FEMA4ImagesEEG,001,100905,
AFNE01.JPG,AFNE01.JPG,AFNE01.JPG,AFNE01.JPG,AFNE01.JPG,AFNE01.JPG,1,9,19,4,,,,,,,,,,,,,,,,,,,,,,,AFNE13.jpg,AFSA05.jpg,AFSA15.jpg,AFNE14.jpg,AFSA05.jpg,FS,4,num_6,32,num_8,1.03310798202,,,2017_Jul_10_1038,60.0081992642,FEMA4ImagesEEG,001,100905,
AFNE01.JPG,AFNE01.JPG,AFNE01.JPG,AFNE01.JPG,AFNE01.JPG,AFNE01.JPG,2,0,20,7,,,,,,,,,,,,,,,,,,,,,,,AFNE17.jpg,AFSA01.jpg,AFSA15.jpg,AFNE11.jpg,AFSA01.jpg,FS,4,num_6,16,num_6,0.716663812054,,,2017_Jul_10_1038,60.0081992642,FEMA4ImagesEEG,001,100905,
AFNE01.JPG,AFNE01.JPG,AFNE01.JPG,AFNE01.JPG,AFNE01.JPG,AFNE01.JPG,2,1,21,8,,,,,,,,,,,,,,,,,,,,,,,AFNE04.jpg,AFNE17.jpg,AFSA20.jpg,AFSA14.jpg,AFNE17.jpg,FN,3,num_6,16,num_6,0.833443346899,,,2017_Jul_10_1038,60.0081992642,FEMA4ImagesEEG,001,100905,
AFNE01.JPG,AFNE01.JPG,AFNE01.JPG,AFNE01.JPG,AFNE01.JPG,AFNE01.JPG,2,2,22,4,,,,,,,,,,,,,,,,,,,,,,,AFNE20.jpg,AFNE12.jpg,AFSA19.jpg,AFSA06.jpg,AFSA06.jpg,FS,4,num_4,32,num_2,0.683467947412,,,2017_Jul_10_1038,60.0081992642,FEMA4ImagesEEG,001,100905,
AFNE01.JPG,AFNE01.JPG,AFNE01.JPG,AFNE01.JPG,AFNE01.JPG,AFNE01.JPG,2,3,23,3,,,,,,,,,,,,,,,,,,,,,,,AFSA10.jpg,AFNE09.jpg,AFSA14.jpg,AFNE08.jpg,AFSA10.jpg,FS,4,num_8,16,num_8,0.783496236661,,,2017_Jul_10_1038,60.0081992642,FEMA4ImagesEEG,001,100905,
AFNE01.JPG,AFNE01.JPG,AFNE01.JPG,AFNE01.JPG,AFNE01.JPG,AFNE01.JPG,2,4,24,6,,,,,,,,,,,,,,,,,,,,,,,AFSA06.jpg,AFSA09.jpg,AFNE07.jpg,AFNE11.jpg,AFSA06.jpg,FS,4,num_8,16,num_8,1.70004791836,,,2017_Jul_10_1038,60.0081992642,FEMA4ImagesEEG,001,100905,
AFNE01.JPG,AFNE01.JPG,AFNE01.JPG,AFNE01.JPG,AFNE01.JPG,AFNE01.JPG,2,5,25,1,,,,,,,,,,,,,,,,,,,,,,,AFSA09.jpg,AFSA17.jpg,AFNE17.jpg,AFNE05.jpg,AFNE17.jpg,FN,3,num_2,32,num_6,1.35001722351,,,2017_Jul_10_1038,60.0081992642,FEMA4ImagesEEG,001,100905,
AFNE01.JPG,AFNE01.JPG,AFNE01.JPG,AFNE01.JPG,AFNE01.JPG,AFNE01.JPG,2,6,26,5,,,,,,,,,,,,,,,,,,,,,,,AFNE14.jpg,AFSA17.jpg,AFNE13.jpg,AFSA08.jpg,AFNE13.jpg,FN,3,num_2,32,num_8,1.10013317107,,,2017_Jul_10_1038,60.0081992642,FEMA4ImagesEEG,001,100905,
AFNE01.JPG,AFNE01.JPG,AFNE01.JPG,AFNE01.JPG,AFNE01.JPG,AFNE01.JPG,2,7,27,9,,,,,,,,,,,,,,,,,,,,,,,AFNE19.jpg,AFSA06.jpg,AFNE03.jpg,AFSA19.jpg,AFSA19.jpg,FS,4,num_4,16,num_4,1.23341601994,,,2017_Jul_10_1038,60.0081992642,FEMA4ImagesEEG,001,100905,
AFNE01.JPG,AFNE01.JPG,AFNE01.JPG,AFNE01.JPG,AFNE01.JPG,AFNE01.JPG,2,8,28,0,,,,,,,,,,,,,,,,,,,,,,,AFNE09.jpg,AFNE15.jpg,AFSA08.jpg,AFSA12.jpg,AFSA12.jpg,FS,4,num_4,32,num_2,1.40007210197,,,2017_Jul_10_1038,60.0081992642,FEMA4ImagesEEG,001,100905,
AFNE01.JPG,AFNE01.JPG,AFNE01.JPG,AFNE01.JPG,AFNE01.JPG,AFNE01.JPG,2,9,29,2,,,,,,,,,,,,,,,,,,,,,,,AFSA14.jpg,AFNE11.jpg,AFNE12.jpg,AFSA12.jpg,AFNE12.jpg,FN,3,num_2,16,num_2,1.46667904733,,,2017_Jul_10_1038,60.0081992642,FEMA4ImagesEEG,001,100905,
AFNE01.JPG,AFNE01.JPG,AFNE01.JPG,AFNE01.JPG,AFNE01.JPG,AFNE01.JPG,3,0,30,9,,,,,,,,,,,,,,,,,,,,,,,AFSA02.jpg,AFNE01.jpg,AFSA19.jpg,AFNE18.jpg,AFNE18.jpg,FN,3,num_4,16,num_4,0.8667498664,,,2017_Jul_10_1038,60.0081992642,FEMA4ImagesEEG,001,100905,
AFNE01.JPG,AFNE01.JPG,AFNE01.JPG,AFNE01.JPG,AFNE01.JPG,AFNE01.JPG,3,1,31,5,,,,,,,,,,,,,,,,,,,,,,,AFSA03.jpg,AFNE06.jpg,AFNE09.jpg,AFSA19.jpg,AFNE06.jpg,FN,3,num_6,16,num_6,1.25007393048,,,2017_Jul_10_1038,60.0081992642,FEMA4ImagesEEG,001,100905,
AFNE01.JPG,AFNE01.JPG,AFNE01.JPG,AFNE01.JPG,AFNE01.JPG,AFNE01.JPG,3,2,32,4,,,,,,,,,,,,,,,,,,,,,,,AFNE08.jpg,AFSA07.jpg,AFSA04.jpg,AFNE11.jpg,AFNE08.jpg,FN,3,num_8,16,num_8,1.71671930002,,,2017_Jul_10_1038,60.0081992642,FEMA4ImagesEEG,001,100905,
AFNE01.JPG,AFNE01.JPG,AFNE01.JPG,AFNE01.JPG,AFNE01.JPG,AFNE01.JPG,3,3,33,2,,,,,,,,,,,,,,,,,,,,,,,AFSA01.jpg,AFNE04.jpg,AFSA02.jpg,AFNE12.jpg,AFNE12.jpg,FN,3,num_4,16,num_4,0.566687450744,,,2017_Jul_10_1038,60.0081992642,FEMA4ImagesEEG,001,100905,
AFNE01.JPG,AFNE01.JPG,AFNE01.JPG,AFNE01.JPG,AFNE01.JPG,AFNE01.JPG,3,4,34,0,,,,,,,,,,,,,,,,,,,,,,,AFNE11.jpg,AFSA19.jpg,AFNE17.jpg,AFSA13.jpg,AFNE17.jpg,FN,3,num_2,16,num_2,1.11675227201,,,2017_Jul_10_1038,60.0081992642,FEMA4ImagesEEG,001,100905,
AFNE01.JPG,AFNE01.JPG,AFNE01.JPG,AFNE01.JPG,AFNE01.JPG,AFNE01.JPG,3,5,35,8,,,,,,,,,,,,,,,,,,,,,,,AFNE06.jpg,AFNE01.jpg,AFSA20.jpg,AFSA08.jpg,AFSA08.jpg,FS,4,num_4,32,num_6,1.26679470576,,,2017_Jul_10_1038,60.0081992642,FEMA4ImagesEEG,001,100905,
AFNE01.JPG,AFNE01.JPG,AFNE01.JPG,AFNE01.JPG,AFNE01.JPG,AFNE01.JPG,3,6,36,7,,,,,,,,,,,,,,,,,,,,,,,AFSA13.jpg,AFSA17.jpg,AFNE13.jpg,AFNE01.jpg,AFNE13.jpg,FN,3,num_2,32,num_8,0.950157130137,,,2017_Jul_10_1038,60.0081992642,FEMA4ImagesEEG,001,100905,
AFNE01.JPG,AFNE01.JPG,AFNE01.JPG,AFNE01.JPG,AFNE01.JPG,AFNE01.JPG,3,7,37,1,,,,,,,,,,,,,,,,,,,,,,,AFNE10.jpg,AFSA16.jpg,AFSA10.jpg,AFNE05.jpg,AFNE05.jpg,FN,3,num_4,32,num_6,1.4167380312,,,2017_Jul_10_1038,60.0081992642,FEMA4ImagesEEG,001,100905,
AFNE01.JPG,AFNE01.JPG,AFNE01.JPG,AFNE01.JPG,AFNE01.JPG,AFNE01.JPG,3,8,38,6,,,,,,,,,,,,,,,,,,,,,,,AFNE16.jpg,AFSA16.jpg,AFSA01.jpg,AFNE12.jpg,AFNE12.jpg,FN,3,num_4,16,num_4,0.633488442749,,,2017_Jul_10_1038,60.0081992642,FEMA4ImagesEEG,001,100905,
AFNE01.JPG,AFNE01.JPG,AFNE01.JPG,AFNE01.JPG,AFNE01.JPG,AFNE01.JPG,3,9,39,3,,,,,,,,,,,,,,,,,,,,,,,AFSA17.jpg,AFNE16.jpg,AFSA12.jpg,AFNE07.jpg,AFNE16.jpg,FN,3,num_6,32,num_8,1.45011671702,,,2017_Jul_10_1038,60.0081992642,FEMA4ImagesEEG,001,100905,
AFNE01.JPG,AFNE01.JPG,AFNE01.JPG,AFNE01.JPG,AFNE01.JPG,AFNE01.JPG,4,0,40,5,,,,,,,,,,,,,,,,,,,,,,,AFSA01.jpg,AFNE01.jpg,AFSA11.jpg,AFNE14.jpg,AFSA11.jpg,FS,4,num_2,16,num_2,0.699983770726,,,2017_Jul_10_1038,60.0081992642,FEMA4ImagesEEG,001,100905,
AFNE01.JPG,AFNE01.JPG,AFNE01.JPG,AFNE01.JPG,AFNE01.JPG,AFNE01.JPG,4,1,41,8,,,,,,,,,,,,,,,,,,,,,,,AFNE18.jpg,AFNE08.jpg,AFSA05.jpg,AFSA14.jpg,AFSA05.jpg,FS,4,num_2,32,num_4,1.91665688413,,,2017_Jul_10_1038,60.0081992642,FEMA4ImagesEEG,001,100905,
AFNE01.JPG,AFNE01.JPG,AFNE01.JPG,AFNE01.JPG,AFNE01.JPG,AFNE01.JPG,4,2,42,3,,,,,,,,,,,,,,,,,,,,,,,AFNE13.jpg,AFNE18.jpg,AFSA03.jpg,AFSA08.jpg,AFNE18.jpg,FN,3,num_6,32,num_8,0.700166912517,,,2017_Jul_10_1038,60.0081992642,FEMA4ImagesEEG,001,100905,
AFNE01.JPG,AFNE01.JPG,AFNE01.JPG,AFNE01.JPG,AFNE01.JPG,AFNE01.JPG,4,3,43,2,,,,,,,,,,,,,,,,,,,,,,,AFNE13.jpg,AFSA03.jpg,AFSA18.jpg,AFNE14.jpg,AFSA18.jpg,FS,4,num_2,16,num_2,1.18375532981,,,2017_Jul_10_1038,60.0081992642,FEMA4ImagesEEG,001,100905,
AFNE01.JPG,AFNE01.JPG,AFNE01.JPG,AFNE01.JPG,AFNE01.JPG,AFNE01.JPG,4,4,44,7,,,,,,,,,,,,,,,,,,,,,,,AFNE13.jpg,AFSA12.jpg,AFSA08.jpg,AFNE02.jpg,AFSA08.jpg,FS,4,num_2,16,num_2,0.816753362538,,,2017_Jul_10_1038,60.0081992642,FEMA4ImagesEEG,001,100905,
AFNE01.JPG,AFNE01.JPG,AFNE01.JPG,AFNE01.JPG,AFNE01.JPG,AFNE01.JPG,4,5,45,1,,,,,,,,,,,,,,,,,,,,,,,AFSA17.jpg,AFNE07.jpg,AFNE09.jpg,AFSA07.jpg,AFSA07.jpg,FS,4,num_4,32,num_2,1.783368262,,,2017_Jul_10_1038,60.0081992642,FEMA4ImagesEEG,001,100905,
AFNE01.JPG,AFNE01.JPG,AFNE01.JPG,AFNE01.JPG,AFNE01.JPG,AFNE01.JPG,4,6,46,4,,,,,,,,,,,,,,,,,,,,,,,AFSA20.jpg,AFSA06.jpg,AFNE06.jpg,AFNE02.jpg,AFNE06.jpg,FN,3,num_2,32,num_4,0.883495659567,,,2017_Jul_10_1038,60.0081992642,FEMA4ImagesEEG,001,100905,
AFNE01.JPG,AFNE01.JPG,AFNE01.JPG,AFNE01.JPG,AFNE01.JPG,AFNE01.JPG,4,7,47,6,,,,,,,,,,,,,,,,,,,,,,,AFSA07.jpg,AFNE18.jpg,AFNE15.jpg,AFSA20.jpg,AFSA20.jpg,FS,4,num_4,16,num_4,0.883462623227,,,2017_Jul_10_1038,60.0081992642,FEMA4ImagesEEG,001,100905,
AFNE01.JPG,AFNE01.JPG,AFNE01.JPG,AFNE01.JPG,AFNE01.JPG,AFNE01.JPG,4,8,48,0,,,,,,,,,,,,,,,,,,,,,,,AFNE04.jpg,AFSA06.jpg,AFNE05.jpg,AFSA08.jpg,AFSA06.jpg,FS,4,num_6,32,num_4,0.60016524489,,,2017_Jul_10_1038,60.0081992642,FEMA4ImagesEEG,001,100905,
AFNE01.JPG,AFNE01.JPG,AFNE01.JPG,AFNE01.JPG,AFNE01.JPG,AFNE01.JPG,4,9,49,9,,,,,,,,,,,,,,,,,,,,,,,AFNE16.jpg,AFSA16.jpg,AFNE08.jpg,AFSA15.jpg,AFSA16.jpg,FS,4,num_6,32,num_8,1.41675182292,,,2017_Jul_10_1038,60.0081992642,FEMA4ImagesEEG,001,100905,
AFNE01.JPG,AFNE01.JPG,AFNE01.JPG,AFNE01.JPG,AFNE01.JPG,AFNE01.JPG,5,0,50,2,,,,,,,,,,,,,,,,,,,,,,,AFSA04.jpg,AFNE18.jpg,AFSA10.jpg,AFNE03.jpg,AFNE03.jpg,FN,3,num_4,32,num_8,1.03341396712,,,2017_Jul_10_1038,60.0081992642,FEMA4ImagesEEG,001,100905,
AFNE01.JPG,AFNE01.JPG,AFNE01.JPG,AFNE01.JPG,AFNE01.JPG,AFNE01.JPG,5,1,51,3,,,,,,,,,,,,,,,,,,,,,,,AFNE08.jpg,AFSA06.jpg,AFSA19.jpg,AFNE03.jpg,AFSA19.jpg,FS,4,num_2,16,num_2,1.58340084902,,,2017_Jul_10_1038,60.0081992642,FEMA4ImagesEEG,001,100905,
AFNE01.JPG,AFNE01.JPG,AFNE01.JPG,AFNE01.JPG,AFNE01.JPG,AFNE01.JPG,5,2,52,8,,,,,,,,,,,,,,,,,,,,,,,AFSA18.jpg,AFNE12.jpg,AFNE03.jpg,AFSA02.jpg,AFSA18.jpg,FS,4,num_8,32,num_4,0.933476447128,,,2017_Jul_10_1038,60.0081992642,FEMA4ImagesEEG,001,100905,
AFNE01.JPG,AFNE01.JPG,AFNE01.JPG,AFNE01.JPG,AFNE01.JPG,AFNE01.JPG,5,3,53,0,,,,,,,,,,,,,,,,,,,,,,,AFSA19.jpg,AFNE01.jpg,AFNE12.jpg,AFSA02.jpg,AFNE01.jpg,FN,3,num_6,32,num_8,0.933499861276,,,2017_Jul_10_1038,60.0081992642,FEMA4ImagesEEG,001,100905,
AFNE01.JPG,AFNE01.JPG,AFNE01.JPG,AFNE01.JPG,AFNE01.JPG,AFNE01.JPG,5,4,54,1,,,,,,,,,,,,,,,,,,,,,,,AFNE18.jpg,AFNE11.jpg,AFSA05.jpg,AFSA09.jpg,AFNE11.jpg,FN,3,num_6,16,num_6,1.81666451786,,,2017_Jul_10_1038,60.0081992642,FEMA4ImagesEEG,001,100905,
AFNE01.JPG,AFNE01.JPG,AFNE01.JPG,AFNE01.JPG,AFNE01.JPG,AFNE01.JPG,5,5,55,9,,,,,,,,,,,,,,,,,,,,,,,AFNE17.jpg,AFNE14.jpg,AFSA19.jpg,AFSA02.jpg,AFSA02.jpg,FS,4,num_4,32,num_8,1.06694019306,,,2017_Jul_10_1038,60.0081992642,FEMA4ImagesEEG,001,100905,
AFNE01.JPG,AFNE01.JPG,AFNE01.JPG,AFNE01.JPG,AFNE01.JPG,AFNE01.JPG,5,6,56,5,,,,,,,,,,,,,,,,,,,,,,,AFNE19.jpg,AFNE03.jpg,AFSA10.jpg,AFSA07.jpg,AFNE19.jpg,FN,3,num_8,32,num_4,1.46677558962,,,2017_Jul_10_1038,60.0081992642,FEMA4ImagesEEG,001,100905,
AFNE01.JPG,AFNE01.JPG,AFNE01.JPG,AFNE01.JPG,AFNE01.JPG,AFNE01.JPG,5,7,57,4,,,,,,,,,,,,,,,,,,,,,,,AFNE18.jpg,AFNE06.jpg,AFSA01.jpg,AFSA15.jpg,AFSA01.jpg,FS,4,num_2,32,num_8,1.05006225547,,,2017_Jul_10_1038,60.0081992642,FEMA4ImagesEEG,001,100905,
AFNE01.JPG,AFNE01.JPG,AFNE01.JPG,AFNE01.JPG,AFNE01.JPG,AFNE01.JPG,5,8,58,6,,,,,,,,,,,,,,,,,,,,,,,AFNE10.jpg,AFSA18.jpg,AFNE13.jpg,AFSA06.jpg,AFSA06.jpg,FS,4,num_4,32,num_6,0.783445559908,,,2017_Jul_10_1038,60.0081992642,FEMA4ImagesEEG,001,100905,
AFNE01.JPG,AFNE01.JPG,AFNE01.JPG,AFNE01.JPG,AFNE01.JPG,AFNE01.JPG,5,9,59,7,,,,,,,,,,,,,,,,,,,,,,,AFSA10.jpg,AFNE13.jpg,AFSA07.jpg,AFNE18.jpg,AFNE13.jpg,FN,3,num_6,32,num_8,0.866788675776,,,2017_Jul_10_1038,60.0081992642,FEMA4ImagesEEG,001,100905,
,,,,,,,,,,,,,,,,,,,,,,,,,,,,,,,,,,,,,,,,,,,space,4.29981705034,2017_Jul_10_1038,60.0081992642,FEMA4ImagesEEG,001,100905,
AFNE01.JPG,AFNE01.JPG,AFNE01.JPG,AFNE01.JPG,AFNE01.JPG,AFNE01.JPG,,,,,0,0,0,5,,,,,,,,,,,,,,,,,,,AMNE05.jpg,AMSA17.jpg,AMSA02.jpg,AMNE02.jpg,AMNE02.jpg,MN,1,num_4,32,num_8,1.3001538266,,,2017_Jul_10_1038,60.0081992642,FEMA4ImagesEEG,001,100905,
AFNE01.JPG,AFNE01.JPG,AFNE01.JPG,AFNE01.JPG,AFNE01.JPG,AFNE01.JPG,,,,,0,1,1,4,,,,,,,,,,,,,,,,,,,AMSA17.jpg,AMNE14.jpg,AMSA08.jpg,AMNE13.jpg,AMSA17.jpg,MS,2,num_8,32,num_2,2.36638678983,,,2017_Jul_10_1038,60.0081992642,FEMA4ImagesEEG,001,100905,
AFNE01.JPG,AFNE01.JPG,AFNE01.JPG,AFNE01.JPG,AFNE01.JPG,AFNE01.JPG,,,,,0,2,2,6,,,,,,,,,,,,,,,,,,,AMNE14.jpg,AMNE16.jpg,AMSA05.jpg,AMSA06.jpg,AMNE16.jpg,MN,1,num_6,32,num_8,1.01675798115,,,2017_Jul_10_1038,60.0081992642,FEMA4ImagesEEG,001,100905,
AFNE01.JPG,AFNE01.JPG,AFNE01.JPG,AFNE01.JPG,AFNE01.JPG,AFNE01.JPG,,,,,0,3,3,8,,,,,,,,,,,,,,,,,,,AMNE05.jpg,AMSA14.jpg,AMNE11.jpg,AMSA08.jpg,AMNE05.jpg,MN,1,num_8,16,num_8,1.01675028354,,,2017_Jul_10_1038,60.0081992642,FEMA4ImagesEEG,001,100905,
AFNE01.JPG,AFNE01.JPG,AFNE01.JPG,AFNE01.JPG,AFNE01.JPG,AFNE01.JPG,,,,,0,4,4,9,,,,,,,,,,,,,,,,,,,AMNE16.jpg,AMSA02.jpg,AMNE09.jpg,AMSA17.jpg,AMSA17.jpg,MS,2,num_4,16,num_4,0.666771548335,,,2017_Jul_10_1038,60.0081992642,FEMA4ImagesEEG,001,100905,
AFNE01.JPG,AFNE01.JPG,AFNE01.JPG,AFNE01.JPG,AFNE01.JPG,AFNE01.JPG,,,,,0,5,5,1,,,,,,,,,,,,,,,,,,,AMNE19.jpg,AMSA03.jpg,AMNE09.jpg,AMSA19.jpg,AMSA19.jpg,MS,2,num_4,32,num_2,1.9500445507,,,2017_Jul_10_1038,60.0081992642,FEMA4ImagesEEG,001,100905,
AFNE01.JPG,AFNE01.JPG,AFNE01.JPG,AFNE01.JPG,AFNE01.JPG,AFNE01.JPG,,,,,0,6,6,3,,,,,,,,,,,,,,,,,,,AMNE18.jpg,AMSA06.jpg,AMSA13.jpg,AMNE08.jpg,AMSA06.jpg,MS,2,num_6,16,num_6,1.10017550853,,,2017_Jul_10_1038,60.0081992642,FEMA4ImagesEEG,001,100905,
AFNE01.JPG,AFNE01.JPG,AFNE01.JPG,AFNE01.JPG,AFNE01.JPG,AFNE01.JPG,,,,,0,7,7,7,,,,,,,,,,,,,,,,,,,AMSA12.jpg,AMNE17.jpg,AMNE10.jpg,AMSA16.jpg,AMSA12.jpg,MS,2,num_8,16,num_8,1.20007999218,,,2017_Jul_10_1038,60.0081992642,FEMA4ImagesEEG,001,100905,
AFNE01.JPG,AFNE01.JPG,AFNE01.JPG,AFNE01.JPG,AFNE01.JPG,AFNE01.JPG,,,,,0,8,8,2,,,,,,,,,,,,,,,,,,,AMNE07.jpg,AMNE04.jpg,AMSA07.jpg,AMSA03.jpg,AMSA03.jpg,MS,2,num_4,32,num_2,1.0669504567,,,2017_Jul_10_1038,60.0081992642,FEMA4ImagesEEG,001,100905,
AFNE01.JPG,AFNE01.JPG,AFNE01.JPG,AFNE01.JPG,AFNE01.JPG,AFNE01.JPG,,,,,0,9,9,0,,,,,,,,,,,,,,,,,,,AMNE19.jpg,AMNE20.jpg,AMSA19.jpg,AMSA05.jpg,AMNE19.jpg,MN,1,num_8,16,num_8,2.05000131507,,,2017_Jul_10_1038,60.0081992642,FEMA4ImagesEEG,001,100905,
AFNE01.JPG,AFNE01.JPG,AFNE01.JPG,AFNE01.JPG,AFNE01.JPG,AFNE01.JPG,,,,,1,0,10,1,,,,,,,,,,,,,,,,,,,AMNE20.jpg,AMSA06.jpg,AMNE04.jpg,AMSA16.jpg,AMSA06.jpg,MS,2,num_6,32,num_8,0.70012425445,,,2017_Jul_10_1038,60.0081992642,FEMA4ImagesEEG,001,100905,
AFNE01.JPG,AFNE01.JPG,AFNE01.JPG,AFNE01.JPG,AFNE01.JPG,AFNE01.JPG,,,,,1,1,11,7,,,,,,,,,,,,,,,,,,,AMSA05.jpg,AMNE11.jpg,AMNE10.jpg,AMSA04.jpg,AMSA04.jpg,MS,2,num_4,16,num_4,1.01672141673,,,2017_Jul_10_1038,60.0081992642,FEMA4ImagesEEG,001,100905,
AFNE01.JPG,AFNE01.JPG,AFNE01.JPG,AFNE01.JPG,AFNE01.JPG,AFNE01.JPG,,,,,1,2,12,3,,,,,,,,,,,,,,,,,,,AMSA02.jpg,AMNE04.jpg,AMNE09.jpg,AMSA17.jpg,AMSA02.jpg,MS,2,num_8,32,num_6,1.23340928438,,,2017_Jul_10_1038,60.0081992642,FEMA4ImagesEEG,001,100905,
AFNE01.JPG,AFNE01.JPG,AFNE01.JPG,AFNE01.JPG,AFNE01.JPG,AFNE01.JPG,,,,,1,3,13,4,,,,,,,,,,,,,,,,,,,AMSA11.jpg,AMNE07.jpg,AMSA04.jpg,AMNE02.jpg,AMNE02.jpg,MN,1,num_4,32,num_2,0.766802724218,,,2017_Jul_10_1038,60.0081992642,FEMA4ImagesEEG,001,100905,
AFNE01.JPG,AFNE01.JPG,AFNE01.JPG,AFNE01.JPG,AFNE01.JPG,AFNE01.JPG,,,,,1,4,14,2,,,,,,,,,,,,,,,,,,,AMSA03.jpg,AMNE09.jpg,AMSA13.jpg,AMNE07.jpg,AMNE07.jpg,MN,1,num_4,32,num_6,0.783521895763,,,2017_Jul_10_1038,60.0081992642,FEMA4ImagesEEG,001,100905,
AFNE01.JPG,AFNE01.JPG,AFNE01.JPG,AFNE01.JPG,AFNE01.JPG,AFNE01.JPG,,,,,1,5,15,0,,,,,,,,,,,,,,,,,,,AMSA15.jpg,AMNE08.jpg,AMSA14.jpg,AMNE07.jpg,AMSA15.jpg,MS,2,num_8,16,num_8,1.3167078176,,,2017_Jul_10_1038,60.0081992642,FEMA4ImagesEEG,001,100905,
AFNE01.JPG,AFNE01.JPG,AFNE01.JPG,AFNE01.JPG,AFNE01.JPG,AFNE01.JPG,,,,,1,6,16,6,,,,,,,,,,,,,,,,,,,AMSA07.jpg,AMNE10.jpg,AMNE03.jpg,AMSA10.jpg,AMNE03.jpg,MN,1,num_2,32,num_6,1.49998684973,,,2017_Jul_10_1038,60.0081992642,FEMA4ImagesEEG,001,100905,
AFNE01.JPG,AFNE01.JPG,AFNE01.JPG,AFNE01.JPG,AFNE01.JPG,AFNE01.JPG,,,,,1,7,17,5,,,,,,,,,,,,,,,,,,,AMNE08.jpg,AMNE20.jpg,AMSA19.jpg,AMSA17.jpg,AMSA17.jpg,MS,2,num_4,32,num_8,1.01676439587,,,2017_Jul_10_1038,60.0081992642,FEMA4ImagesEEG,001,100905,
AFNE01.JPG,AFNE01.JPG,AFNE01.JPG,AFNE01.JPG,AFNE01.JPG,AFNE01.JPG,,,,,1,8,18,9,,,,,,,,,,,,,,,,,,,AMNE05.jpg,AMSA11.jpg,AMSA16.jpg,AMNE16.jpg,AMSA11.jpg,MS,2,num_6,16,num_6,1.13328220765,,,2017_Jul_10_1038,60.0081992642,FEMA4ImagesEEG,001,100905,
AFNE01.JPG,AFNE01.JPG,AFNE01.JPG,AFNE01.JPG,AFNE01.JPG,AFNE01.JPG,,,,,1,9,19,8,,,,,,,,,,,,,,,,,,,AMSA17.jpg,AMSA06.jpg,AMNE18.jpg,AMNE11.jpg,AMNE11.jpg,MN,1,num_4,32,num_6,1.30011180951,,,2017_Jul_10_1038,60.0081992642,FEMA4ImagesEEG,001,100905,
AFNE01.JPG,AFNE01.JPG,AFNE01.JPG,AFNE01.JPG,AFNE01.JPG,AFNE01.JPG,,,,,2,0,20,6,,,,,,,,,,,,,,,,,,,AMNE12.jpg,AMSA07.jpg,AMSA08.jpg,AMNE17.jpg,AMNE17.jpg,MN,1,num_4,16,num_4,0.833449761616,,,2017_Jul_10_1038,60.0081992642,FEMA4ImagesEEG,001,100905,
AFNE01.JPG,AFNE01.JPG,AFNE01.JPG,AFNE01.JPG,AFNE01.JPG,AFNE01.JPG,,,,,2,1,21,9,,,,,,,,,,,,,,,,,,,AMSA07.jpg,AMNE07.jpg,AMNE12.jpg,AMSA20.jpg,AMNE12.jpg,MN,1,num_2,32,num_8,1.69990679319,,,2017_Jul_10_1038,60.0081992642,FEMA4ImagesEEG,001,100905,
AFNE01.JPG,AFNE01.JPG,AFNE01.JPG,AFNE01.JPG,AFNE01.JPG,AFNE01.JPG,,,,,2,2,22,7,,,,,,,,,,,,,,,,,,,AMNE08.jpg,AMNE20.jpg,AMSA09.jpg,AMSA20.jpg,AMNE20.jpg,MN,1,num_6,16,num_6,1.04977070354,,,2017_Jul_10_1038,60.0081992642,FEMA4ImagesEEG,001,100905,
AFNE01.JPG,AFNE01.JPG,AFNE01.JPG,AFNE01.JPG,AFNE01.JPG,AFNE01.JPG,,,,,2,3,23,8,,,,,,,,,,,,,,,,,,,AMNE18.jpg,AMSA18.jpg,AMNE10.jpg,AMSA12.jpg,AMNE10.jpg,MN,1,num_2,32,num_8,0.766793422867,,,2017_Jul_10_1038,60.0081992642,FEMA4ImagesEEG,001,100905,
AFNE01.JPG,AFNE01.JPG,AFNE01.JPG,AFNE01.JPG,AFNE01.JPG,AFNE01.JPG,,,,,2,4,24,2,,,,,,,,,,,,,,,,,,,AMNE05.jpg,AMSA13.jpg,AMSA02.jpg,AMNE02.jpg,AMSA13.jpg,MS,2,num_6,32,num_8,1.01678171591,,,2017_Jul_10_1038,60.0081992642,FEMA4ImagesEEG,001,100905,
AFNE01.JPG,AFNE01.JPG,AFNE01.JPG,AFNE01.JPG,AFNE01.JPG,AFNE01.JPG,,,,,2,5,25,1,,,,,,,,,,,,,,,,,,,AMSA14.jpg,AMSA07.jpg,AMNE05.jpg,AMNE19.jpg,AMSA07.jpg,MS,2,num_6,32,num_2,1.18340540351,,,2017_Jul_10_1038,60.0081992642,FEMA4ImagesEEG,001,100905,
AFNE01.JPG,AFNE01.JPG,AFNE01.JPG,AFNE01.JPG,AFNE01.JPG,AFNE01.JPG,,,,,2,6,26,4,,,,,,,,,,,,,,,,,,,AMNE10.jpg,AMSA12.jpg,AMNE20.jpg,AMSA05.jpg,AMNE20.jpg,MN,1,num_2,32,num_6,0.950009590015,,,2017_Jul_10_1038,60.0081992642,FEMA4ImagesEEG,001,100905,
AFNE01.JPG,AFNE01.JPG,AFNE01.JPG,AFNE01.JPG,AFNE01.JPG,AFNE01.JPG,,,,,2,7,27,5,,,,,,,,,,,,,,,,,,,AMSA14.jpg,AMNE02.jpg,AMSA10.jpg,AMNE04.jpg,AMNE02.jpg,MN,1,num_6,32,num_8,0.866819787538,,,2017_Jul_10_1038,60.0081992642,FEMA4ImagesEEG,001,100905,
AFNE01.JPG,AFNE01.JPG,AFNE01.JPG,AFNE01.JPG,AFNE01.JPG,AFNE01.JPG,,,,,2,8,28,3,,,,,,,,,,,,,,,,,,,AMSA01.jpg,AMNE13.jpg,AMSA12.jpg,AMNE05.jpg,AMNE05.jpg,MN,1,num_4,16,num_4,2.06670060102,,,2017_Jul_10_1038,60.0081992642,FEMA4ImagesEEG,001,100905,
AFNE01.JPG,AFNE01.JPG,AFNE01.JPG,AFNE01.JPG,AFNE01.JPG,AFNE01.JPG,,,,,2,9,29,0,,,,,,,,,,,,,,,,,,,AMSA20.jpg,AMNE16.jpg,AMSA08.jpg,AMNE20.jpg,AMSA20.jpg,MS,2,num_8,16,num_8,0.850150651298,,,2017_Jul_10_1038,60.0081992642,FEMA4ImagesEEG,001,100905,
AFNE01.JPG,AFNE01.JPG,AFNE01.JPG,AFNE01.JPG,AFNE01.JPG,AFNE01.JPG,,,,,3,0,30,5,,,,,,,,,,,,,,,,,,,AMNE13.jpg,AMSA17.jpg,AMNE01.jpg,AMSA18.jpg,AMNE01.jpg,MN,1,num_2,16,num_2,1.55008534878,,,2017_Jul_10_1038,60.0081992642,FEMA4ImagesEEG,001,100905,
AFNE01.JPG,AFNE01.JPG,AFNE01.JPG,AFNE01.JPG,AFNE01.JPG,AFNE01.JPG,,,,,3,1,31,3,,,,,,,,,,,,,,,,,,,AMSA02.jpg,AMSA20.jpg,AMNE12.jpg,AMNE13.jpg,AMSA02.jpg,MS,2,num_8,16,num_8,1.08348712791,,,2017_Jul_10_1038,60.0081992642,FEMA4ImagesEEG,001,100905,
AFNE01.JPG,AFNE01.JPG,AFNE01.JPG,AFNE01.JPG,AFNE01.JPG,AFNE01.JPG,,,,,3,2,32,6,,,,,,,,,,,,,,,,,,,AMNE10.jpg,AMNE08.jpg,AMSA03.jpg,AMSA07.jpg,AMSA03.jpg,MS,2,num_2,16,num_2,0.833518720698,,,2017_Jul_10_1038,60.0081992642,FEMA4ImagesEEG,001,100905,
AFNE01.JPG,AFNE01.JPG,AFNE01.JPG,AFNE01.JPG,AFNE01.JPG,AFNE01.JPG,,,,,3,3,33,4,,,,,,,,,,,,,,,,,,,AMNE09.jpg,AMNE13.jpg,AMSA09.jpg,AMSA20.jpg,AMSA20.jpg,MS,2,num_4,16,num_4,1.10011585103,,,2017_Jul_10_1038,60.0081992642,FEMA4ImagesEEG,001,100905,
AFNE01.JPG,AFNE01.JPG,AFNE01.JPG,AFNE01.JPG,AFNE01.JPG,AFNE01.JPG,,,,,3,4,34,7,,,,,,,,,,,,,,,,,,,AMSA09.jpg,AMSA11.jpg,AMNE10.jpg,AMNE02.jpg,AMNE02.jpg,MN,1,num_4,16,num_4,0.583509258693,,,2017_Jul_10_1038,60.0081992642,FEMA4ImagesEEG,001,100905,
AFNE01.JPG,AFNE01.JPG,AFNE01.JPG,AFNE01.JPG,AFNE01.JPG,AFNE01.JPG,,,,,3,5,35,9,,,,,,,,,,,,,,,,,,,AMNE20.jpg,AMNE18.jpg,AMSA05.jpg,AMSA11.jpg,AMSA11.jpg,MS,2,num_4,32,num_8,1.10008858796,,,2017_Jul_10_1038,60.0081992642,FEMA4ImagesEEG,001,100905,
AFNE01.JPG,AFNE01.JPG,AFNE01.JPG,AFNE01.JPG,AFNE01.JPG,AFNE01.JPG,,,,,3,6,36,2,,,,,,,,,,,,,,,,,,,AMNE17.jpg,AMNE16.jpg,AMSA02.jpg,AMSA16.jpg,AMNE17.jpg,MN,1,num_8,32,num_2,1.38366821711,,,2017_Jul_10_1038,60.0081992642,FEMA4ImagesEEG,001,100905,
AFNE01.JPG,AFNE01.JPG,AFNE01.JPG,AFNE01.JPG,AFNE01.JPG,AFNE01.JPG,,,,,3,7,37,1,,,,,,,,,,,,,,,,,,,AMNE18.jpg,AMNE14.jpg,AMSA10.jpg,AMSA17.jpg,AMSA10.jpg,MS,2,num_2,32,num_8,1.36676654476,,,2017_Jul_10_1038,60.0081992642,FEMA4ImagesEEG,001,100905,
AFNE01.JPG,AFNE01.JPG,AFNE01.JPG,AFNE01.JPG,AFNE01.JPG,AFNE01.JPG,,,,,3,8,38,0,,,,,,,,,,,,,,,,,,,AMSA08.jpg,AMSA18.jpg,AMNE04.jpg,AMNE18.jpg,AMSA08.jpg,MS,2,num_8,32,num_2,0.633513460401,,,2017_Jul_10_1038,60.0081992642,FEMA4ImagesEEG,001,100905,
AFNE01.JPG,AFNE01.JPG,AFNE01.JPG,AFNE01.JPG,AFNE01.JPG,AFNE01.JPG,,,,,3,9,39,8,,,,,,,,,,,,,,,,,,,AMSA05.jpg,AMNE05.jpg,AMSA04.jpg,AMNE12.jpg,AMSA04.jpg,MS,2,num_2,16,num_2,0.533503132639,,,2017_Jul_10_1038,60.0081992642,FEMA4ImagesEEG,001,100905,
AFNE01.JPG,AFNE01.JPG,AFNE01.JPG,AFNE01.JPG,AFNE01.JPG,AFNE01.JPG,,,,,4,0,40,3,,,,,,,,,,,,,,,,,,,AMNE12.jpg,AMSA11.jpg,AMSA05.jpg,AMNE20.jpg,AMSA05.jpg,MS,2,num_2,32,num_8,1.11659927922,,,2017_Jul_10_1038,60.0081992642,FEMA4ImagesEEG,001,100905,
AFNE01.JPG,AFNE01.JPG,AFNE01.JPG,AFNE01.JPG,AFNE01.JPG,AFNE01.JPG,,,,,4,1,41,7,,,,,,,,,,,,,,,,,,,AMNE01.jpg,AMSA03.jpg,AMNE13.jpg,AMSA08.jpg,AMSA03.jpg,MS,2,num_6,16,num_6,1.13342589862,,,2017_Jul_10_1038,60.0081992642,FEMA4ImagesEEG,001,100905,
AFNE01.JPG,AFNE01.JPG,AFNE01.JPG,AFNE01.JPG,AFNE01.JPG,AFNE01.JPG,,,,,4,2,42,2,,,,,,,,,,,,,,,,,,,AMSA11.jpg,AMNE15.jpg,AMNE13.jpg,AMSA08.jpg,AMSA11.jpg,MS,2,num_8,16,num_8,1.33345393115,,,2017_Jul_10_1038,60.0081992642,FEMA4ImagesEEG,001,100905,
AFNE01.JPG,AFNE01.JPG,AFNE01.JPG,AFNE01.JPG,AFNE01.JPG,AFNE01.JPG,,,,,4,3,43,4,,,,,,,,,,,,,,,,,,,AMSA13.jpg,AMSA07.jpg,AMNE05.jpg,AMNE09.jpg,AMNE09.jpg,MN,1,num_4,32,num_2,3.08324785647,,,2017_Jul_10_1038,60.0081992642,FEMA4ImagesEEG,001,100905,
AFNE01.JPG,AFNE01.JPG,AFNE01.JPG,AFNE01.JPG,AFNE01.JPG,AFNE01.JPG,,,,,4,4,44,5,,,,,,,,,,,,,,,,,,,AMNE19.jpg,AMSA01.jpg,AMSA18.jpg,AMNE12.jpg,AMSA01.jpg,MS,2,num_6,16,num_6,1.26675782073,,,2017_Jul_10_1038,60.0081992642,FEMA4ImagesEEG,001,100905,
AFNE01.JPG,AFNE01.JPG,AFNE01.JPG,AFNE01.JPG,AFNE01.JPG,AFNE01.JPG,,,,,4,5,45,6,,,,,,,,,,,,,,,,,,,AMSA18.jpg,AMNE09.jpg,AMSA07.jpg,AMNE14.jpg,AMSA07.jpg,MS,2,num_2,32,num_8,0.73337336164,,,2017_Jul_10_1038,60.0081992642,FEMA4ImagesEEG,001,100905,
AFNE01.JPG,AFNE01.JPG,AFNE01.JPG,AFNE01.JPG,AFNE01.JPG,AFNE01.JPG,,,,,4,6,46,1,,,,,,,,,,,,,,,,,,,AMSA03.jpg,AMSA10.jpg,AMNE01.jpg,AMNE15.jpg,AMNE01.jpg,MN,1,num_2,32,num_8,1.06673075049,,,2017_Jul_10_1038,60.0081992642,FEMA4ImagesEEG,001,100905,
AFNE01.JPG,AFNE01.JPG,AFNE01.JPG,AFNE01.JPG,AFNE01.JPG,AFNE01.JPG,,,,,4,7,47,8,,,,,,,,,,,,,,,,,,,AMNE20.jpg,AMNE16.jpg,AMSA12.jpg,AMSA09.jpg,AMNE16.jpg,MN,1,num_6,32,num_8,0.800139072584,,,2017_Jul_10_1038,60.0081992642,FEMA4ImagesEEG,001,100905,
AFNE01.JPG,AFNE01.JPG,AFNE01.JPG,AFNE01.JPG,AFNE01.JPG,AFNE01.JPG,,,,,4,8,48,0,,,,,,,,,,,,,,,,,,,AMNE10.jpg,AMSA02.jpg,AMNE02.jpg,AMSA16.jpg,AMSA16.jpg,MS,2,num_4,16,num_4,1.10014183098,,,2017_Jul_10_1038,60.0081992642,FEMA4ImagesEEG,001,100905,
AFNE01.JPG,AFNE01.JPG,AFNE01.JPG,AFNE01.JPG,AFNE01.JPG,AFNE01.JPG,,,,,4,9,49,9,,,,,,,,,,,,,,,,,,,AMSA18.jpg,AMNE17.jpg,AMNE14.jpg,AMSA07.jpg,AMNE14.jpg,MN,1,num_2,16,num_2,0.733498770511,,,2017_Jul_10_1038,60.0081992642,FEMA4ImagesEEG,001,100905,
AFNE01.JPG,AFNE01.JPG,AFNE01.JPG,AFNE01.JPG,AFNE01.JPG,AFNE01.JPG,,,,,5,0,50,8,,,,,,,,,,,,,,,,,,,AMNE01.jpg,AMNE17.jpg,AMSA09.jpg,AMSA19.jpg,AMNE17.jpg,MN,1,num_6,32,num_4,1.15006296104,,,2017_Jul_10_1038,60.0081992642,FEMA4ImagesEEG,001,100905,
AFNE01.JPG,AFNE01.JPG,AFNE01.JPG,AFNE01.JPG,AFNE01.JPG,AFNE01.JPG,,,,,5,1,51,3,,,,,,,,,,,,,,,,,,,AMNE05.jpg,AMNE03.jpg,AMSA03.jpg,AMSA18.jpg,AMNE03.jpg,MN,1,num_6,32,num_8,0.833469006,,,2017_Jul_10_1038,60.0081992642,FEMA4ImagesEEG,001,100905,
AFNE01.JPG,AFNE01.JPG,AFNE01.JPG,AFNE01.JPG,AFNE01.JPG,AFNE01.JPG,,,,,5,2,52,4,,,,,,,,,,,,,,,,,,,AMNE20.jpg,AMNE05.jpg,AMSA15.jpg,AMSA09.jpg,AMNE05.jpg,MN,1,num_6,32,num_8,0.983518816764,,,2017_Jul_10_1038,60.0081992642,FEMA4ImagesEEG,001,100905,
AFNE01.JPG,AFNE01.JPG,AFNE01.JPG,AFNE01.JPG,AFNE01.JPG,AFNE01.JPG,,,,,5,3,53,7,,,,,,,,,,,,,,,,,,,AMNE14.jpg,AMSA02.jpg,AMSA06.jpg,AMNE16.jpg,AMNE14.jpg,MN,1,num_8,32,num_2,0.716791786952,,,2017_Jul_10_1038,60.0081992642,FEMA4ImagesEEG,001,100905,
AFNE01.JPG,AFNE01.JPG,AFNE01.JPG,AFNE01.JPG,AFNE01.JPG,AFNE01.JPG,,,,,5,4,54,1,,,,,,,,,,,,,,,,,,,AMSA10.jpg,AMSA17.jpg,AMNE03.jpg,AMNE17.jpg,AMSA17.jpg,MS,2,num_6,32,num_2,0.966794192558,,,2017_Jul_10_1038,60.0081992642,FEMA4ImagesEEG,001,100905,
AFNE01.JPG,AFNE01.JPG,AFNE01.JPG,AFNE01.JPG,AFNE01.JPG,AFNE01.JPG,,,,,5,5,55,2,,,,,,,,,,,,,,,,,,,AMNE07.jpg,AMSA02.jpg,AMSA19.jpg,AMNE08.jpg,AMNE07.jpg,MN,1,num_8,16,num_8,1.13344867108,,,2017_Jul_10_1038,60.0081992642,FEMA4ImagesEEG,001,100905,
AFNE01.JPG,AFNE01.JPG,AFNE01.JPG,AFNE01.JPG,AFNE01.JPG,AFNE01.JPG,,,,,5,6,56,9,,,,,,,,,,,,,,,,,,,AMSA05.jpg,AMSA08.jpg,AMNE16.jpg,AMNE18.jpg,AMNE18.jpg,MN,1,num_4,16,num_4,1.3167273826,,,2017_Jul_10_1038,60.0081992642,FEMA4ImagesEEG,001,100905,
AFNE01.JPG,AFNE01.JPG,AFNE01.JPG,AFNE01.JPG,AFNE01.JPG,AFNE01.JPG,,,,,5,7,57,5,,,,,,,,,,,,,,,,,,,AMSA18.jpg,AMSA12.jpg,AMNE04.jpg,AMNE17.jpg,AMSA12.jpg,MS,2,num_6,16,num_6,1.71672731848,,,2017_Jul_10_1038,60.0081992642,FEMA4ImagesEEG,001,100905,
AFNE01.JPG,AFNE01.JPG,AFNE01.JPG,AFNE01.JPG,AFNE01.JPG,AFNE01.JPG,,,,,5,8,58,6,,,,,,,,,,,,,,,,,,,AMSA08.jpg,AMNE11.jpg,AMNE15.jpg,AMSA20.jpg,AMSA08.jpg,MS,2,num_8,32,num_6,3.41657605791,,,2017_Jul_10_1038,60.0081992642,FEMA4ImagesEEG,001,100905,
AFNE01.JPG,AFNE01.JPG,AFNE01.JPG,AFNE01.JPG,AFNE01.JPG,AFNE01.JPG,,,,,5,9,59,0,,,,,,,,,,,,,,,,,,,AMSA09.jpg,AMNE06.jpg,AMSA03.jpg,AMNE07.jpg,AMSA03.jpg,MS,2,num_2,16,num_2,0.800159920473,,,2017_Jul_10_1038,60.0081992642,FEMA4ImagesEEG,001,100905,
,,,,,,,,,,,,,,,,,,,,,,,,,,,,,,,,,,,,,,,,,,,space,12.132538734,2017_Jul_10_1038,60.0081992642,FEMA4ImagesEEG,001,100905,
AFNE01.JPG,AFNE01.JPG,AFNE01.JPG,AFNE01.JPG,AFNE01.JPG,AFNE01.JPG,,,,,,,,,0,0,0,7,,,,,,,,,,,,,,,AFNE19.jpg,AFSA10.jpg,AFSA12.jpg,AFNE03.jpg,AFNE19.jpg,FN,3,num_8,16,num_8,0.816753683146,,,2017_Jul_10_1038,60.0081992642,FEMA4ImagesEEG,001,100905,
AFNE01.JPG,AFNE01.JPG,AFNE01.JPG,AFNE01.JPG,AFNE01.JPG,AFNE01.JPG,,,,,,,,,0,1,1,0,,,,,,,,,,,,,,,AFSA08.jpg,AFSA14.jpg,AFNE16.jpg,AFNE17.jpg,AFSA08.jpg,FS,4,num_8,16,num_8,1.10012675612,,,2017_Jul_10_1038,60.0081992642,FEMA4ImagesEEG,001,100905,
AFNE01.JPG,AFNE01.JPG,AFNE01.JPG,AFNE01.JPG,AFNE01.JPG,AFNE01.JPG,,,,,,,,,0,2,2,5,,,,,,,,,,,,,,,AFNE01.jpg,AFSA02.jpg,AFNE16.jpg,AFSA04.jpg,AFNE16.jpg,FN,3,num_2,32,num_8,1.1498336324,,,2017_Jul_10_1038,60.0081992642,FEMA4ImagesEEG,001,100905,
AFNE01.JPG,AFNE01.JPG,AFNE01.JPG,AFNE01.JPG,AFNE01.JPG,AFNE01.JPG,,,,,,,,,0,3,3,6,,,,,,,,,,,,,,,AFNE07.jpg,AFSA14.jpg,AFNE19.jpg,AFSA11.jpg,AFSA14.jpg,FS,4,num_6,16,num_6,1.31678126659,,,2017_Jul_10_1038,60.0081992642,FEMA4ImagesEEG,001,100905,
AFNE01.JPG,AFNE01.JPG,AFNE01.JPG,AFNE01.JPG,AFNE01.JPG,AFNE01.JPG,,,,,,,,,0,4,4,2,,,,,,,,,,,,,,,AFNE14.jpg,AFSA08.jpg,AFNE17.jpg,AFSA15.jpg,AFNE17.jpg,FN,3,num_2,16,num_2,0.933460089611,,,2017_Jul_10_1038,60.0081992642,FEMA4ImagesEEG,001,100905,
AFNE01.JPG,AFNE01.JPG,AFNE01.JPG,AFNE01.JPG,AFNE01.JPG,AFNE01.JPG,,,,,,,,,0,5,5,1,,,,,,,,,,,,,,,AFSA06.jpg,AFSA01.jpg,AFNE16.jpg,AFNE05.jpg,AFSA06.jpg,FS,4,num_8,16,num_8,1.38301807875,,,2017_Jul_10_1038,60.0081992642,FEMA4ImagesEEG,001,100905,
AFNE01.JPG,AFNE01.JPG,AFNE01.JPG,AFNE01.JPG,AFNE01.JPG,AFNE01.JPG,,,,,,,,,0,6,6,3,,,,,,,,,,,,,,,AFNE12.jpg,AFSA07.jpg,AFNE10.jpg,AFSA06.jpg,AFNE10.jpg,FN,3,num_2,32,num_8,1.08350829664,,,2017_Jul_10_1038,60.0081992642,FEMA4ImagesEEG,001,100905,
AFNE01.JPG,AFNE01.JPG,AFNE01.JPG,AFNE01.JPG,AFNE01.JPG,AFNE01.JPG,,,,,,,,,0,7,7,8,,,,,,,,,,,,,,,AFNE11.jpg,AFSA08.jpg,AFSA12.jpg,AFNE20.jpg,AFSA08.jpg,FS,4,num_6,32,num_2,1.0834483183,,,2017_Jul_10_1038,60.0081992642,FEMA4ImagesEEG,001,100905,
AFNE01.JPG,AFNE01.JPG,AFNE01.JPG,AFNE01.JPG,AFNE01.JPG,AFNE01.JPG,,,,,,,,,0,8,8,4,,,,,,,,,,,,,,,AFNE15.jpg,AFSA08.jpg,AFSA12.jpg,AFNE10.jpg,AFNE15.jpg,FN,3,num_8,32,num_4,1.78337980853,,,2017_Jul_10_1038,60.0081992642,FEMA4ImagesEEG,001,100905,
AFNE01.JPG,AFNE01.JPG,AFNE01.JPG,AFNE01.JPG,AFNE01.JPG,AFNE01.JPG,,,,,,,,,0,9,9,9,,,,,,,,,,,,,,,AFNE04.jpg,AFSA18.jpg,AFSA14.jpg,AFNE03.jpg,AFSA18.jpg,FS,4,num_6,16,num_6,0.616751630325,,,2017_Jul_10_1038,60.0081992642,FEMA4ImagesEEG,001,100905,
AFNE01.JPG,AFNE01.JPG,AFNE01.JPG,AFNE01.JPG,AFNE01.JPG,AFNE01.JPG,,,,,,,,,1,0,10,6,,,,,,,,,,,,,,,AFSA07.jpg,AFNE02.jpg,AFNE16.jpg,AFSA17.jpg,AFNE02.jpg,FN,3,num_6,32,num_8,1.28343144758,,,2017_Jul_10_1038,60.0081992642,FEMA4ImagesEEG,001,100905,
AFNE01.JPG,AFNE01.JPG,AFNE01.JPG,AFNE01.JPG,AFNE01.JPG,AFNE01.JPG,,,,,,,,,1,1,11,1,,,,,,,,,,,,,,,AFSA20.jpg,AFSA07.jpg,AFNE19.jpg,AFNE20.jpg,AFSA07.jpg,FS,4,num_6,32,num_8,1.11678659124,,,2017_Jul_10_1038,60.0081992642,FEMA4ImagesEEG,001,100905,
AFNE01.JPG,AFNE01.JPG,AFNE01.JPG,AFNE01.JPG,AFNE01.JPG,AFNE01.JPG,,,,,,,,,1,2,12,0,,,,,,,,,,,,,,,AFSA09.jpg,AFNE14.jpg,AFNE18.jpg,AFSA10.jpg,AFNE14.jpg,FN,3,num_6,32,num_4,0.750122361816,,,2017_Jul_10_1038,60.0081992642,FEMA4ImagesEEG,001,100905,
AFNE01.JPG,AFNE01.JPG,AFNE01.JPG,AFNE01.JPG,AFNE01.JPG,AFNE01.JPG,,,,,,,,,1,3,13,7,,,,,,,,,,,,,,,AFNE08.jpg,AFSA10.jpg,AFSA01.jpg,AFNE07.jpg,AFSA01.jpg,FS,4,num_2,16,num_2,0.683467306197,,,2017_Jul_10_1038,60.0081992642,FEMA4ImagesEEG,001,100905,
AFNE01.JPG,AFNE01.JPG,AFNE01.JPG,AFNE01.JPG,AFNE01.JPG,AFNE01.JPG,,,,,,,,,1,4,14,5,,,,,,,,,,,,,,,AFNE14.jpg,AFSA17.jpg,AFSA18.jpg,AFNE11.jpg,AFSA17.jpg,FS,4,num_6,16,num_6,0.683440043358,,,2017_Jul_10_1038,60.0081992642,FEMA4ImagesEEG,001,100905,
AFNE01.JPG,AFNE01.JPG,AFNE01.JPG,AFNE01.JPG,AFNE01.JPG,AFNE01.JPG,,,,,,,,,1,5,15,3,,,,,,,,,,,,,,,AFNE19.jpg,AFSA20.jpg,AFNE18.jpg,AFSA19.jpg,AFSA19.jpg,FS,4,num_4,16,num_4,2.44990631216,,,2017_Jul_10_1038,60.0081992642,FEMA4ImagesEEG,001,100905,
AFNE01.JPG,AFNE01.JPG,AFNE01.JPG,AFNE01.JPG,AFNE01.JPG,AFNE01.JPG,,,,,,,,,1,6,16,8,,,,,,,,,,,,,,,AFSA15.jpg,AFSA04.jpg,AFNE20.jpg,AFNE02.jpg,AFNE20.jpg,FN,3,num_2,32,num_6,1.13343295502,,,2017_Jul_10_1038,60.0081992642,FEMA4ImagesEEG,001,100905,
AFNE01.JPG,AFNE01.JPG,AFNE01.JPG,AFNE01.JPG,AFNE01.JPG,AFNE01.JPG,,,,,,,,,1,7,17,2,,,,,,,,,,,,,,,AFNE19.jpg,AFSA19.jpg,AFNE09.jpg,AFSA20.jpg,AFNE19.jpg,FN,3,num_8,16,num_8,0.63347240584,,,2017_Jul_10_1038,60.0081992642,FEMA4ImagesEEG,001,100905,
AFNE01.JPG,AFNE01.JPG,AFNE01.JPG,AFNE01.JPG,AFNE01.JPG,AFNE01.JPG,,,,,,,,,1,8,18,9,,,,,,,,,,,,,,,AFSA08.jpg,AFSA17.jpg,AFNE14.jpg,AFNE04.jpg,AFNE04.jpg,FN,3,num_4,32,num_2,1.15014571161,,,2017_Jul_10_1038,60.0081992642,FEMA4ImagesEEG,001,100905,
AFNE01.JPG,AFNE01.JPG,AFNE01.JPG,AFNE01.JPG,AFNE01.JPG,AFNE01.JPG,,,,,,,,,1,9,19,4,,,,,,,,,,,,,,,AFNE12.jpg,AFSA05.jpg,AFNE10.jpg,AFSA04.jpg,AFSA04.jpg,FS,4,num_4,16,num_4,1.00009718398,,,2017_Jul_10_1038,60.0081992642,FEMA4ImagesEEG,001,100905,
AFNE01.JPG,AFNE01.JPG,AFNE01.JPG,AFNE01.JPG,AFNE01.JPG,AFNE01.JPG,,,,,,,,,2,0,20,7,,,,,,,,,,,,,,,AFNE13.jpg,AFSA08.jpg,AFNE01.jpg,AFSA14.jpg,AFSA08.jpg,FS,4,num_6,16,num_6,0.900150683243,,,2017_Jul_10_1038,60.0081992642,FEMA4ImagesEEG,001,100905,
AFNE01.JPG,AFNE01.JPG,AFNE01.JPG,AFNE01.JPG,AFNE01.JPG,AFNE01.JPG,,,,,,,,,2,1,21,5,,,,,,,,,,,,,,,AFSA04.jpg,AFNE17.jpg,AFSA09.jpg,AFNE03.jpg,AFNE03.jpg,FN,3,num_4,16,num_4,0.650074828416,,,2017_Jul_10_1038,60.0081992642,FEMA4ImagesEEG,001,100905,
AFNE01.JPG,AFNE01.JPG,AFNE01.JPG,AFNE01.JPG,AFNE01.JPG,AFNE01.JPG,,,,,,,,,2,2,22,2,,,,,,,,,,,,,,,AFNE04.jpg,AFNE11.jpg,AFSA07.jpg,AFSA17.jpg,AFNE04.jpg,FN,3,num_8,16,num_8,0.850058278302,,,2017_Jul_10_1038,60.0081992642,FEMA4ImagesEEG,001,100905,
AFNE01.JPG,AFNE01.JPG,AFNE01.JPG,AFNE01.JPG,AFNE01.JPG,AFNE01.JPG,,,,,,,,,2,3,23,6,,,,,,,,,,,,,,,AFSA17.jpg,AFNE01.jpg,AFNE06.jpg,AFSA15.jpg,AFSA15.jpg,FS,4,num_4,16,num_4,0.966765967663,,,2017_Jul_10_1038,60.0081992642,FEMA4ImagesEEG,001,100905,
AFNE01.JPG,AFNE01.JPG,AFNE01.JPG,AFNE01.JPG,AFNE01.JPG,AFNE01.JPG,,,,,,,,,2,4,24,1,,,,,,,,,,,,,,,AFNE18.jpg,AFSA03.jpg,AFNE14.jpg,AFSA18.jpg,AFSA03.jpg,FS,4,num_6,32,num_8,0.800152222859,,,2017_Jul_10_1038,60.0081992642,FEMA4ImagesEEG,001,100905,
AFNE01.JPG,AFNE01.JPG,AFNE01.JPG,AFNE01.JPG,AFNE01.JPG,AFNE01.JPG,,,,,,,,,2,5,25,3,,,,,,,,,,,,,,,AFNE08.jpg,AFSA14.jpg,AFSA09.jpg,AFNE18.jpg,AFNE18.jpg,FN,3,num_4,32,num_8,1.31671262858,,,2017_Jul_10_1038,60.0081992642,FEMA4ImagesEEG,001,100905,
AFNE01.JPG,AFNE01.JPG,AFNE01.JPG,AFNE01.JPG,AFNE01.JPG,AFNE01.JPG,,,,,,,,,2,6,26,9,,,,,,,,,,,,,,,AFNE15.jpg,AFSA07.jpg,AFNE09.jpg,AFSA02.jpg,AFNE15.jpg,FN,3,num_8,16,num_8,0.883240351221,,,2017_Jul_10_1038,60.0081992642,FEMA4ImagesEEG,001,100905,
AFNE01.JPG,AFNE01.JPG,AFNE01.JPG,AFNE01.JPG,AFNE01.JPG,AFNE01.JPG,,,,,,,,,2,7,27,0,,,,,,,,,,,,,,,AFSA10.jpg,AFSA18.jpg,AFNE07.jpg,AFNE13.jpg,AFSA10.jpg,FS,4,num_8,16,num_8,1.10012322804,,,2017_Jul_10_1038,60.0081992642,FEMA4ImagesEEG,001,100905,
AFNE01.JPG,AFNE01.JPG,AFNE01.JPG,AFNE01.JPG,AFNE01.JPG,AFNE01.JPG,,,,,,,,,2,8,28,8,,,,,,,,,,,,,,,AFSA10.jpg,AFNE14.jpg,AFSA15.jpg,AFNE02.jpg,AFNE14.jpg,FN,3,num_6,32,num_2,1.55006738752,,,2017_Jul_10_1038,60.0081992642,FEMA4ImagesEEG,001,100905,
AFNE01.JPG,AFNE01.JPG,AFNE01.JPG,AFNE01.JPG,AFNE01.JPG,AFNE01.JPG,,,,,,,,,2,9,29,4,,,,,,,,,,,,,,,AFNE08.jpg,AFSA16.jpg,AFSA01.jpg,AFNE12.jpg,AFSA01.jpg,FS,4,num_2,16,num_2,1.26673312392,,,2017_Jul_10_1038,60.0081992642,FEMA4ImagesEEG,001,100905,
AFNE01.JPG,AFNE01.JPG,AFNE01.JPG,AFNE01.JPG,AFNE01.JPG,AFNE01.JPG,,,,,,,,,3,0,30,6,,,,,,,,,,,,,,,AFNE02.jpg,AFSA05.jpg,AFSA09.jpg,AFNE13.jpg,AFNE02.jpg,FN,3,num_8,16,num_8,0.750151228625,,,2017_Jul_10_1038,60.0081992642,FEMA4ImagesEEG,001,100905,
AFNE01.JPG,AFNE01.JPG,AFNE01.JPG,AFNE01.JPG,AFNE01.JPG,AFNE01.JPG,,,,,,,,,3,1,31,0,,,,,,,,,,,,,,,AFNE17.jpg,AFNE18.jpg,AFSA04.jpg,AFSA15.jpg,AFSA04.jpg,FS,4,num_2,16,num_2,1.08345120493,,,2017_Jul_10_1038,60.0081992642,FEMA4ImagesEEG,001,100905,
AFNE01.JPG,AFNE01.JPG,AFNE01.JPG,AFNE01.JPG,AFNE01.JPG,AFNE01.JPG,,,,,,,,,3,2,32,7,,,,,,,,,,,,,,,AFSA07.jpg,AFSA01.jpg,AFNE19.jpg,AFNE01.jpg,AFSA01.jpg,FS,4,num_6,16,num_6,1.53342840029,,,2017_Jul_10_1038,60.0081992642,FEMA4ImagesEEG,001,100905,
AFNE01.JPG,AFNE01.JPG,AFNE01.JPG,AFNE01.JPG,AFNE01.JPG,AFNE01.JPG,,,,,,,,,3,3,33,3,,,,,,,,,,,,,,,AFNE02.jpg,AFSA14.jpg,AFSA11.jpg,AFNE13.jpg,AFSA14.jpg,FS,4,num_6,32,num_8,1.33336540731,,,2017_Jul_10_1038,60.0081992642,FEMA4ImagesEEG,001,100905,
AFNE01.JPG,AFNE01.JPG,AFNE01.JPG,AFNE01.JPG,AFNE01.JPG,AFNE01.JPG,,,,,,,,,3,4,34,1,,,,,,,,,,,,,,,AFSA20.jpg,AFNE05.jpg,AFSA19.jpg,AFNE02.jpg,AFNE05.jpg,FN,3,num_6,16,num_6,1.70001744828,,,2017_Jul_10_1038,60.0081992642,FEMA4ImagesEEG,001,100905,
AFNE01.JPG,AFNE01.JPG,AFNE01.JPG,AFNE01.JPG,AFNE01.JPG,AFNE01.JPG,,,,,,,,,3,5,35,5,,,,,,,,,,,,,,,AFNE06.jpg,AFSA19.jpg,AFNE07.jpg,AFSA07.jpg,AFNE07.jpg,FN,3,num_2,32,num_4,0.566793615231,,,2017_Jul_10_1038,60.0081992642,FEMA4ImagesEEG,001,100905,
AFNE01.JPG,AFNE01.JPG,AFNE01.JPG,AFNE01.JPG,AFNE01.JPG,AFNE01.JPG,,,,,,,,,3,6,36,8,,,,,,,,,,,,,,,AFSA08.jpg,AFNE12.jpg,AFSA02.jpg,AFNE09.jpg,AFSA08.jpg,FS,4,num_8,16,num_8,0.900100647938,,,2017_Jul_10_1038,60.0081992642,FEMA4ImagesEEG,001,100905,
AFNE01.JPG,AFNE01.JPG,AFNE01.JPG,AFNE01.JPG,AFNE01.JPG,AFNE01.JPG,,,,,,,,,3,7,37,4,,,,,,,,,,,,,,,AFSA18.jpg,AFNE09.jpg,AFSA20.jpg,AFNE17.jpg,AFSA20.jpg,FS,4,num_2,16,num_2,1.73344232049,,,2017_Jul_10_1038,60.0081992642,FEMA4ImagesEEG,001,100905,
AFNE01.JPG,AFNE01.JPG,AFNE01.JPG,AFNE01.JPG,AFNE01.JPG,AFNE01.JPG,,,,,,,,,3,8,38,9,,,,,,,,,,,,,,,AFSA13.jpg,AFSA03.jpg,AFNE17.jpg,AFNE08.jpg,AFSA03.jpg,FS,4,num_6,32,num_2,1.1334210874,,,2017_Jul_10_1038,60.0081992642,FEMA4ImagesEEG,001,100905,
AFNE01.JPG,AFNE01.JPG,AFNE01.JPG,AFNE01.JPG,AFNE01.JPG,AFNE01.JPG,,,,,,,,,3,9,39,2,,,,,,,,,,,,,,,AFNE14.jpg,AFSA08.jpg,AFNE13.jpg,AFSA01.jpg,AFNE13.jpg,FN,3,num_2,32,num_8,1.68342496851,,,2017_Jul_10_1038,60.0081992642,FEMA4ImagesEEG,001,100905,
AFNE01.JPG,AFNE01.JPG,AFNE01.JPG,AFNE01.JPG,AFNE01.JPG,AFNE01.JPG,,,,,,,,,4,0,40,5,,,,,,,,,,,,,,,AFNE17.jpg,AFSA08.jpg,AFNE19.jpg,AFSA11.jpg,AFSA11.jpg,FS,4,num_4,32,num_2,0.783484048676,,,2017_Jul_10_1038,60.0081992642,FEMA4ImagesEEG,001,100905,
AFNE01.JPG,AFNE01.JPG,AFNE01.JPG,AFNE01.JPG,AFNE01.JPG,AFNE01.JPG,,,,,,,,,4,1,41,7,,,,,,,,,,,,,,,AFNE16.jpg,AFSA18.jpg,AFNE09.jpg,AFSA03.jpg,AFSA03.jpg,FS,4,num_4,32,num_8,1.71673533693,,,2017_Jul_10_1038,60.0081992642,FEMA4ImagesEEG,001,100905,
AFNE01.JPG,AFNE01.JPG,AFNE01.JPG,AFNE01.JPG,AFNE01.JPG,AFNE01.JPG,,,,,,,,,4,2,42,0,,,,,,,,,,,,,,,AFNE07.jpg,AFNE10.jpg,AFSA14.jpg,AFSA07.jpg,AFNE07.jpg,FN,3,num_8,16,num_8,0.716652906965,,,2017_Jul_10_1038,60.0081992642,FEMA4ImagesEEG,001,100905,
AFNE01.JPG,AFNE01.JPG,AFNE01.JPG,AFNE01.JPG,AFNE01.JPG,AFNE01.JPG,,,,,,,,,4,3,43,3,,,,,,,,,,,,,,,AFNE17.jpg,AFSA11.jpg,AFNE12.jpg,AFSA08.jpg,AFNE17.jpg,FN,3,num_8,32,num_6,0.883473528549,,,2017_Jul_10_1038,60.0081992642,FEMA4ImagesEEG,001,100905,
AFNE01.JPG,AFNE01.JPG,AFNE01.JPG,AFNE01.JPG,AFNE01.JPG,AFNE01.JPG,,,,,,,,,4,4,44,6,,,,,,,,,,,,,,,AFNE10.jpg,AFSA13.jpg,AFNE09.jpg,AFSA01.jpg,AFNE10.jpg,FN,3,num_8,16,num_8,0.766765518347,,,2017_Jul_10_1038,60.0081992642,FEMA4ImagesEEG,001,100905,
AFNE01.JPG,AFNE01.JPG,AFNE01.JPG,AFNE01.JPG,AFNE01.JPG,AFNE01.JPG,,,,,,,,,4,5,45,8,,,,,,,,,,,,,,,AFNE20.jpg,AFSA13.jpg,AFSA05.jpg,AFNE16.jpg,AFSA13.jpg,FS,4,num_6,32,num_4,1.31641049217,,,2017_Jul_10_1038,60.0081992642,FEMA4ImagesEEG,001,100905,
AFNE01.JPG,AFNE01.JPG,AFNE01.JPG,AFNE01.JPG,AFNE01.JPG,AFNE01.JPG,,,,,,,,,4,6,46,2,,,,,,,,,,,,,,,AFNE04.jpg,AFNE06.jpg,AFSA02.jpg,AFSA15.jpg,AFNE06.jpg,FN,3,num_6,32,num_8,0.850136538735,,,2017_Jul_10_1038,60.0081992642,FEMA4ImagesEEG,001,100905,
AFNE01.JPG,AFNE01.JPG,AFNE01.JPG,AFNE01.JPG,AFNE01.JPG,AFNE01.JPG,,,,,,,,,4,7,47,4,,,,,,,,,,,,,,,AFSA07.jpg,AFSA08.jpg,AFNE07.jpg,AFNE19.jpg,AFSA07.jpg,FS,4,num_8,16,num_8,0.800122393994,,,2017_Jul_10_1038,60.0081992642,FEMA4ImagesEEG,001,100905,
AFNE01.JPG,AFNE01.JPG,AFNE01.JPG,AFNE01.JPG,AFNE01.JPG,AFNE01.JPG,,,,,,,,,4,8,48,1,,,,,,,,,,,,,,,AFNE06.jpg,AFNE20.jpg,AFSA09.jpg,AFSA11.jpg,AFNE20.jpg,FN,3,num_6,32,num_2,1.31674309867,,,2017_Jul_10_1038,60.0081992642,FEMA4ImagesEEG,001,100905,
AFNE01.JPG,AFNE01.JPG,AFNE01.JPG,AFNE01.JPG,AFNE01.JPG,AFNE01.JPG,,,,,,,,,4,9,49,9,,,,,,,,,,,,,,,AFSA14.jpg,AFNE20.jpg,AFNE14.jpg,AFSA05.jpg,AFNE20.jpg,FN,3,num_6,16,num_6,0.800122073386,,,2017_Jul_10_1038,60.0081992642,FEMA4ImagesEEG,001,100905,
AFNE01.JPG,AFNE01.JPG,AFNE01.JPG,AFNE01.JPG,AFNE01.JPG,AFNE01.JPG,,,,,,,,,5,0,50,3,,,,,,,,,,,,,,,AFNE16.jpg,AFSA16.jpg,AFSA15.jpg,AFNE06.jpg,AFSA15.jpg,FS,4,num_2,16,num_2,0.783528631553,,,2017_Jul_10_1038,60.0081992642,FEMA4ImagesEEG,001,100905,
AFNE01.JPG,AFNE01.JPG,AFNE01.JPG,AFNE01.JPG,AFNE01.JPG,AFNE01.JPG,,,,,,,,,5,1,51,8,,,,,,,,,,,,,,,AFNE15.jpg,AFSA09.jpg,AFSA18.jpg,AFNE20.jpg,AFNE15.jpg,FN,3,num_8,16,num_8,0.633495178306,,,2017_Jul_10_1038,60.0081992642,FEMA4ImagesEEG,001,100905,
AFNE01.JPG,AFNE01.JPG,AFNE01.JPG,AFNE01.JPG,AFNE01.JPG,AFNE01.JPG,,,,,,,,,5,2,52,2,,,,,,,,,,,,,,,AFNE13.jpg,AFSA06.jpg,AFSA08.jpg,AFNE10.jpg,AFSA08.jpg,FS,4,num_2,32,num_6,1.46672523371,,,2017_Jul_10_1038,60.0081992642,FEMA4ImagesEEG,001,100905,
AFNE01.JPG,AFNE01.JPG,AFNE01.JPG,AFNE01.JPG,AFNE01.JPG,AFNE01.JPG,,,,,,,,,5,3,53,7,,,,,,,,,,,,,,,AFSA06.jpg,AFNE02.jpg,AFSA02.jpg,AFNE05.jpg,AFNE05.jpg,FN,3,num_4,32,num_8,1.88336640154,,,2017_Jul_10_1038,60.0081992642,FEMA4ImagesEEG,001,100905,
AFNE01.JPG,AFNE01.JPG,AFNE01.JPG,AFNE01.JPG,AFNE01.JPG,AFNE01.JPG,,,,,,,,,5,4,54,6,,,,,,,,,,,,,,,AFSA03.jpg,AFNE08.jpg,AFSA13.jpg,AFNE10.jpg,AFSA03.jpg,FS,4,num_8,32,num_2,1.16681677266,,,2017_Jul_10_1038,60.0081992642,FEMA4ImagesEEG,001,100905,
AFNE01.JPG,AFNE01.JPG,AFNE01.JPG,AFNE01.JPG,AFNE01.JPG,AFNE01.JPG,,,,,,,,,5,5,55,1,,,,,,,,,,,,,,,AFSA16.jpg,AFNE16.jpg,AFNE14.jpg,AFSA07.jpg,AFSA07.jpg,FS,4,num_4,32,num_8,0.683509002207,,,2017_Jul_10_1038,60.0081992642,FEMA4ImagesEEG,001,100905,
AFNE01.JPG,AFNE01.JPG,AFNE01.JPG,AFNE01.JPG,AFNE01.JPG,AFNE01.JPG,,,,,,,,,5,6,56,9,,,,,,,,,,,,,,,AFSA17.jpg,AFNE01.jpg,AFNE18.jpg,AFSA05.jpg,AFSA17.jpg,FS,4,num_8,32,num_4,1.06658000289,,,2017_Jul_10_1038,60.0081992642,FEMA4ImagesEEG,001,100905,
AFNE01.JPG,AFNE01.JPG,AFNE01.JPG,AFNE01.JPG,AFNE01.JPG,AFNE01.JPG,,,,,,,,,5,7,57,0,,,,,,,,,,,,,,,AFNE18.jpg,AFSA17.jpg,AFSA01.jpg,AFNE08.jpg,AFNE18.jpg,FN,3,num_8,16,num_8,1.08342907391,,,2017_Jul_10_1038,60.0081992642,FEMA4ImagesEEG,001,100905,
AFNE01.JPG,AFNE01.JPG,AFNE01.JPG,AFNE01.JPG,AFNE01.JPG,AFNE01.JPG,,,,,,,,,5,8,58,4,,,,,,,,,,,,,,,AFSA18.jpg,AFSA12.jpg,AFNE19.jpg,AFNE07.jpg,AFNE07.jpg,FN,3,num_4,16,num_4,0.88351041358,,,2017_Jul_10_1038,60.0081992642,FEMA4ImagesEEG,001,100905,
AFNE01.JPG,AFNE01.JPG,AFNE01.JPG,AFNE01.JPG,AFNE01.JPG,AFNE01.JPG,,,,,,,,,5,9,59,5,,,,,,,,,,,,,,,AFSA07.jpg,AFNE10.jpg,AFNE20.jpg,AFSA15.jpg,AFNE20.jpg,FN,3,num_2,16,num_2,0.916766576935,,,2017_Jul_10_1038,60.0081992642,FEMA4ImagesEEG,001,100905,
,,,,,,,,,,,,,,,,,,,,,,,,,,,,,,,,,,,,,,,,,,,space,21.2987608563,2017_Jul_10_1038,60.0081992642,FEMA4ImagesEEG,001,100905,
AFNE01.JPG,AFNE01.JPG,AFNE01.JPG,AFNE01.JPG,AFNE01.JPG,AFNE01.JPG,,,,,,,,,,,,,0,0,0,1,,,,,,,,,,,AMNE16.jpg,AMNE17.jpg,AMSA09.jpg,AMSA08.jpg,AMNE17.jpg,MN,1,num_6,16,num_6,0.833542776061,,,2017_Jul_10_1038,60.0081992642,FEMA4ImagesEEG,001,100905,
AFNE01.JPG,AFNE01.JPG,AFNE01.JPG,AFNE01.JPG,AFNE01.JPG,AFNE01.JPG,,,,,,,,,,,,,0,1,1,0,,,,,,,,,,,AMNE08.jpg,AMNE04.jpg,AMSA13.jpg,AMSA18.jpg,AMNE08.jpg,MN,1,num_8,16,num_8,2.34998899885,,,2017_Jul_10_1038,60.0081992642,FEMA4ImagesEEG,001,100905,
AFNE01.JPG,AFNE01.JPG,AFNE01.JPG,AFNE01.JPG,AFNE01.JPG,AFNE01.JPG,,,,,,,,,,,,,0,2,2,9,,,,,,,,,,,AMSA06.jpg,AMNE15.jpg,AMNE09.jpg,AMSA10.jpg,AMSA10.jpg,MS,2,num_4,16,num_4,0.866822032724,,,2017_Jul_10_1038,60.0081992642,FEMA4ImagesEEG,001,100905,
AFNE01.JPG,AFNE01.JPG,AFNE01.JPG,AFNE01.JPG,AFNE01.JPG,AFNE01.JPG,,,,,,,,,,,,,0,3,3,5,,,,,,,,,,,AMNE16.jpg,AMSA06.jpg,AMNE18.jpg,AMSA17.jpg,AMSA06.jpg,MS,2,num_6,32,num_8,0.96677206154,,,2017_Jul_10_1038,60.0081992642,FEMA4ImagesEEG,001,100905,
AFNE01.JPG,AFNE01.JPG,AFNE01.JPG,AFNE01.JPG,AFNE01.JPG,AFNE01.JPG,,,,,,,,,,,,,0,4,4,7,,,,,,,,,,,AMNE05.jpg,AMSA20.jpg,AMSA03.jpg,AMNE06.jpg,AMSA03.jpg,MS,2,num_2,32,num_6,1.23341537826,,,2017_Jul_10_1038,60.0081992642,FEMA4ImagesEEG,001,100905,
AFNE01.JPG,AFNE01.JPG,AFNE01.JPG,AFNE01.JPG,AFNE01.JPG,AFNE01.JPG,,,,,,,,,,,,,0,5,5,3,,,,,,,,,,,AMNE19.jpg,AMNE14.jpg,AMSA17.jpg,AMSA13.jpg,AMSA13.jpg,MS,2,num_4,32,num_8,0.850108313607,,,2017_Jul_10_1038,60.0081992642,FEMA4ImagesEEG,001,100905,
AFNE01.JPG,AFNE01.JPG,AFNE01.JPG,AFNE01.JPG,AFNE01.JPG,AFNE01.JPG,,,,,,,,,,,,,0,6,6,6,,,,,,,,,,,AMSA19.jpg,AMNE14.jpg,AMSA09.jpg,AMNE12.jpg,AMSA09.jpg,MS,2,num_2,16,num_2,1.40010642121,,,2017_Jul_10_1038,60.0081992642,FEMA4ImagesEEG,001,100905,
AFNE01.JPG,AFNE01.JPG,AFNE01.JPG,AFNE01.JPG,AFNE01.JPG,AFNE01.JPG,,,,,,,,,,,,,0,7,7,8,,,,,,,,,,,AMSA12.jpg,AMNE20.jpg,AMSA09.jpg,AMNE19.jpg,AMSA12.jpg,MS,2,num_8,32,num_2,0.816848621937,,,2017_Jul_10_1038,60.0081992642,FEMA4ImagesEEG,001,100905,
AFNE01.JPG,AFNE01.JPG,AFNE01.JPG,AFNE01.JPG,AFNE01.JPG,AFNE01.JPG,,,,,,,,,,,,,0,8,8,4,,,,,,,,,,,AMSA12.jpg,AMNE13.jpg,AMNE12.jpg,AMSA10.jpg,AMNE12.jpg,MN,1,num_2,16,num_2,1.7333817007,,,2017_Jul_10_1038,60.0081992642,FEMA4ImagesEEG,001,100905,
AFNE01.JPG,AFNE01.JPG,AFNE01.JPG,AFNE01.JPG,AFNE01.JPG,AFNE01.JPG,,,,,,,,,,,,,0,9,9,2,,,,,,,,,,,AMSA20.jpg,AMSA15.jpg,AMNE13.jpg,AMNE06.jpg,AMSA20.jpg,MS,2,num_8,32,num_4,0.983472630382,,,2017_Jul_10_1038,60.0081992642,FEMA4ImagesEEG,001,100905,
AFNE01.JPG,AFNE01.JPG,AFNE01.JPG,AFNE01.JPG,AFNE01.JPG,AFNE01.JPG,,,,,,,,,,,,,1,0,10,7,,,,,,,,,,,AMSA11.jpg,AMNE20.jpg,AMSA14.jpg,AMNE09.jpg,AMNE20.jpg,MN,1,num_6,32,num_4,0.966774306726,,,2017_Jul_10_1038,60.0081992642,FEMA4ImagesEEG,001,100905,
AFNE01.JPG,AFNE01.JPG,AFNE01.JPG,AFNE01.JPG,AFNE01.JPG,AFNE01.JPG,,,,,,,,,,,,,1,1,11,5,,,,,,,,,,,AMSA18.jpg,AMNE11.jpg,AMSA06.jpg,AMNE02.jpg,AMNE11.jpg,MN,1,num_6,32,num_8,1.61671538698,,,2017_Jul_10_1038,60.0081992642,FEMA4ImagesEEG,001,100905,
AFNE01.JPG,AFNE01.JPG,AFNE01.JPG,AFNE01.JPG,AFNE01.JPG,AFNE01.JPG,,,,,,,,,,,,,1,2,12,1,,,,,,,,,,,AMNE17.jpg,AMNE02.jpg,AMSA11.jpg,AMSA02.jpg,AMNE02.jpg,MN,1,num_6,16,num_6,1.50004137517,,,2017_Jul_10_1038,60.0081992642,FEMA4ImagesEEG,001,100905,
AFNE01.JPG,AFNE01.JPG,AFNE01.JPG,AFNE01.JPG,AFNE01.JPG,AFNE01.JPG,,,,,,,,,,,,,1,3,13,0,,,,,,,,,,,AMSA07.jpg,AMNE13.jpg,AMNE11.jpg,AMSA11.jpg,AMNE13.jpg,MN,1,num_6,32,num_8,1.1001386235,,,2017_Jul_10_1038,60.0081992642,FEMA4ImagesEEG,001,100905,
AFNE01.JPG,AFNE01.JPG,AFNE01.JPG,AFNE01.JPG,AFNE01.JPG,AFNE01.JPG,,,,,,,,,,,,,1,4,14,6,,,,,,,,,,,AMNE19.jpg,AMSA10.jpg,AMNE15.jpg,AMSA20.jpg,AMNE19.jpg,MN,1,num_8,32,num_2,2.33334327629,,,2017_Jul_10_1038,60.0081992642,FEMA4ImagesEEG,001,100905,
AFNE01.JPG,AFNE01.JPG,AFNE01.JPG,AFNE01.JPG,AFNE01.JPG,AFNE01.JPG,,,,,,,,,,,,,1,5,15,3,,,,,,,,,,,AMSA09.jpg,AMNE12.jpg,AMNE14.jpg,AMSA11.jpg,AMSA11.jpg,MS,2,num_4,16,num_4,0.800210276619,,,2017_Jul_10_1038,60.0081992642,FEMA4ImagesEEG,001,100905,
AFNE01.JPG,AFNE01.JPG,AFNE01.JPG,AFNE01.JPG,AFNE01.JPG,AFNE01.JPG,,,,,,,,,,,,,1,6,16,4,,,,,,,,,,,AMSA11.jpg,AMNE16.jpg,AMSA08.jpg,AMNE17.jpg,AMNE17.jpg,MN,1,num_4,32,num_6,1.05011389451,,,2017_Jul_10_1038,60.0081992642,FEMA4ImagesEEG,001,100905,
AFNE01.JPG,AFNE01.JPG,AFNE01.JPG,AFNE01.JPG,AFNE01.JPG,AFNE01.JPG,,,,,,,,,,,,,1,7,17,9,,,,,,,,,,,AMSA20.jpg,AMNE04.jpg,AMSA03.jpg,AMNE08.jpg,AMNE04.jpg,MN,1,num_6,32,num_8,1.15011652466,,,2017_Jul_10_1038,60.0081992642,FEMA4ImagesEEG,001,100905,
AFNE01.JPG,AFNE01.JPG,AFNE01.JPG,AFNE01.JPG,AFNE01.JPG,AFNE01.JPG,,,,,,,,,,,,,1,8,18,2,,,,,,,,,,,AMNE09.jpg,AMSA13.jpg,AMNE10.jpg,AMSA07.jpg,AMNE09.jpg,MN,1,num_8,16,num_8,0.766755254939,,,2017_Jul_10_1038,60.0081992642,FEMA4ImagesEEG,001,100905,
AFNE01.JPG,AFNE01.JPG,AFNE01.JPG,AFNE01.JPG,AFNE01.JPG,AFNE01.JPG,,,,,,,,,,,,,1,9,19,8,,,,,,,,,,,AMSA18.jpg,AMSA19.jpg,AMNE10.jpg,AMNE03.jpg,AMNE10.jpg,MN,1,num_2,16,num_2,1.31671551522,,,2017_Jul_10_1038,60.0081992642,FEMA4ImagesEEG,001,100905,
AFNE01.JPG,AFNE01.JPG,AFNE01.JPG,AFNE01.JPG,AFNE01.JPG,AFNE01.JPG,,,,,,,,,,,,,2,0,20,1,,,,,,,,,,,AMNE04.jpg,AMSA07.jpg,AMNE18.jpg,AMSA20.jpg,AMSA07.jpg,MS,2,num_6,16,num_6,0.766810742673,,,2017_Jul_10_1038,60.0081992642,FEMA4ImagesEEG,001,100905,
AFNE01.JPG,AFNE01.JPG,AFNE01.JPG,AFNE01.JPG,AFNE01.JPG,AFNE01.JPG,,,,,,,,,,,,,2,1,21,9,,,,,,,,,,,AMNE14.jpg,AMNE10.jpg,AMSA19.jpg,AMSA20.jpg,AMSA19.jpg,MS,2,num_2,32,num_4,0.766871041618,,,2017_Jul_10_1038,60.0081992642,FEMA4ImagesEEG,001,100905,
AFNE01.JPG,AFNE01.JPG,AFNE01.JPG,AFNE01.JPG,AFNE01.JPG,AFNE01.JPG,,,,,,,,,,,,,2,2,22,0,,,,,,,,,,,AMSA18.jpg,AMNE01.jpg,AMNE05.jpg,AMSA02.jpg,AMNE01.jpg,MN,1,num_6,16,num_6,1.26662535546,,,2017_Jul_10_1038,60.0081992642,FEMA4ImagesEEG,001,100905,
AFNE01.JPG,AFNE01.JPG,AFNE01.JPG,AFNE01.JPG,AFNE01.JPG,AFNE01.JPG,,,,,,,,,,,,,2,3,23,8,,,,,,,,,,,AMSA07.jpg,AMNE11.jpg,AMNE03.jpg,AMSA02.jpg,AMNE03.jpg,MN,1,num_2,16,num_2,1.30010603624,,,2017_Jul_10_1038,60.0081992642,FEMA4ImagesEEG,001,100905,
AFNE01.JPG,AFNE01.JPG,AFNE01.JPG,AFNE01.JPG,AFNE01.JPG,AFNE01.JPG,,,,,,,,,,,,,2,4,24,3,,,,,,,,,,,AMSA05.jpg,AMSA18.jpg,AMNE03.jpg,AMNE11.jpg,AMNE03.jpg,MN,1,num_2,32,num_4,1.38337570312,,,2017_Jul_10_1038,60.0081992642,FEMA4ImagesEEG,001,100905,
AFNE01.JPG,AFNE01.JPG,AFNE01.JPG,AFNE01.JPG,AFNE01.JPG,AFNE01.JPG,,,,,,,,,,,,,2,5,25,7,,,,,,,,,,,AMSA17.jpg,AMNE12.jpg,AMSA19.jpg,AMNE08.jpg,AMSA19.jpg,MS,2,num_2,16,num_2,0.666812923737,,,2017_Jul_10_1038,60.0081992642,FEMA4ImagesEEG,001,100905,
AFNE01.JPG,AFNE01.JPG,AFNE01.JPG,AFNE01.JPG,AFNE01.JPG,AFNE01.JPG,,,,,,,,,,,,,2,6,26,5,,,,,,,,,,,AMNE17.jpg,AMSA05.jpg,AMNE10.jpg,AMSA14.jpg,AMNE10.jpg,MN,1,num_2,32,num_8,0.96680894657,,,2017_Jul_10_1038,60.0081992642,FEMA4ImagesEEG,001,100905,
AFNE01.JPG,AFNE01.JPG,AFNE01.JPG,AFNE01.JPG,AFNE01.JPG,AFNE01.JPG,,,,,,,,,,,,,2,7,27,2,,,,,,,,,,,AMNE11.jpg,AMSA08.jpg,AMSA05.jpg,AMNE06.jpg,AMSA08.jpg,MS,2,num_6,32,num_2,2.21665964229,,,2017_Jul_10_1038,60.0081992642,FEMA4ImagesEEG,001,100905,
AFNE01.JPG,AFNE01.JPG,AFNE01.JPG,AFNE01.JPG,AFNE01.JPG,AFNE01.JPG,,,,,,,,,,,,,2,8,28,4,,,,,,,,,,,AMNE08.jpg,AMSA06.jpg,AMNE03.jpg,AMSA07.jpg,AMSA07.jpg,MS,2,num_4,16,num_4,0.900119892322,,,2017_Jul_10_1038,60.0081992642,FEMA4ImagesEEG,001,100905,
AFNE01.JPG,AFNE01.JPG,AFNE01.JPG,AFNE01.JPG,AFNE01.JPG,AFNE01.JPG,,,,,,,,,,,,,2,9,29,6,,,,,,,,,,,AMNE04.jpg,AMNE17.jpg,AMSA04.jpg,AMSA06.jpg,AMNE04.jpg,MN,1,num_8,32,num_2,1.35006790049,,,2017_Jul_10_1038,60.0081992642,FEMA4ImagesEEG,001,100905,
AFNE01.JPG,AFNE01.JPG,AFNE01.JPG,AFNE01.JPG,AFNE01.JPG,AFNE01.JPG,,,,,,,,,,,,,3,0,30,0,,,,,,,,,,,AMSA10.jpg,AMSA09.jpg,AMNE13.jpg,AMNE16.jpg,AMNE16.jpg,MN,1,num_4,32,num_8,2.11667304928,,,2017_Jul_10_1038,60.0081992642,FEMA4ImagesEEG,001,100905,
AFNE01.JPG,AFNE01.JPG,AFNE01.JPG,AFNE01.JPG,AFNE01.JPG,AFNE01.JPG,,,,,,,,,,,,,3,1,31,3,,,,,,,,,,,AMNE14.jpg,AMSA08.jpg,AMSA11.jpg,AMNE06.jpg,AMSA11.jpg,MS,2,num_2,16,num_2,0.783448125934,,,2017_Jul_10_1038,60.0081992642,FEMA4ImagesEEG,001,100905,
AFNE01.JPG,AFNE01.JPG,AFNE01.JPG,AFNE01.JPG,AFNE01.JPG,AFNE01.JPG,,,,,,,,,,,,,3,2,32,2,,,,,,,,,,,AMSA15.jpg,AMNE04.jpg,AMSA05.jpg,AMNE20.jpg,AMSA15.jpg,MS,2,num_8,32,num_2,1.21677639172,,,2017_Jul_10_1038,60.0081992642,FEMA4ImagesEEG,001,100905,
AFNE01.JPG,AFNE01.JPG,AFNE01.JPG,AFNE01.JPG,AFNE01.JPG,AFNE01.JPG,,,,,,,,,,,,,3,3,33,9,,,,,,,,,,,AMNE11.jpg,AMSA02.jpg,AMNE01.jpg,AMSA10.jpg,AMNE11.jpg,MN,1,num_8,16,num_8,1.11676029046,,,2017_Jul_10_1038,60.0081992642,FEMA4ImagesEEG,001,100905,
AFNE01.JPG,AFNE01.JPG,AFNE01.JPG,AFNE01.JPG,AFNE01.JPG,AFNE01.JPG,,,,,,,,,,,,,3,4,34,4,,,,,,,,,,,AMSA15.jpg,AMSA12.jpg,AMNE14.jpg,AMNE03.jpg,AMSA15.jpg,MS,2,num_8,32,num_6,0.966765005374,,,2017_Jul_10_1038,60.0081992642,FEMA4ImagesEEG,001,100905,
AFNE01.JPG,AFNE01.JPG,AFNE01.JPG,AFNE01.JPG,AFNE01.JPG,AFNE01.JPG,,,,,,,,,,,,,3,5,35,8,,,,,,,,,,,AMSA17.jpg,AMSA06.jpg,AMNE16.jpg,AMNE05.jpg,AMNE05.jpg,MN,1,num_4,32,num_8,0.783459031023,,,2017_Jul_10_1038,60.0081992642,FEMA4ImagesEEG,001,100905,
AFNE01.JPG,AFNE01.JPG,AFNE01.JPG,AFNE01.JPG,AFNE01.JPG,AFNE01.JPG,,,,,,,,,,,,,3,6,36,7,,,,,,,,,,,AMNE04.jpg,AMSA18.jpg,AMSA17.jpg,AMNE09.jpg,AMSA18.jpg,MS,2,num_6,32,num_2,0.650140259182,,,2017_Jul_10_1038,60.0081992642,FEMA4ImagesEEG,001,100905,
AFNE01.JPG,AFNE01.JPG,AFNE01.JPG,AFNE01.JPG,AFNE01.JPG,AFNE01.JPG,,,,,,,,,,,,,3,7,37,6,,,,,,,,,,,AMNE08.jpg,AMNE19.jpg,AMSA03.jpg,AMSA17.jpg,AMSA03.jpg,MS,2,num_2,32,num_4,1.00010520243,,,2017_Jul_10_1038,60.0081992642,FEMA4ImagesEEG,001,100905,
AFNE01.JPG,AFNE01.JPG,AFNE01.JPG,AFNE01.JPG,AFNE01.JPG,AFNE01.JPG,,,,,,,,,,,,,3,8,38,5,,,,,,,,,,,AMSA19.jpg,AMNE10.jpg,AMNE04.jpg,AMSA09.jpg,AMNE04.jpg,MN,1,num_2,16,num_2,0.966787457,,,2017_Jul_10_1038,60.0081992642,FEMA4ImagesEEG,001,100905,
AFNE01.JPG,AFNE01.JPG,AFNE01.JPG,AFNE01.JPG,AFNE01.JPG,AFNE01.JPG,,,,,,,,,,,,,3,9,39,1,,,,,,,,,,,AMSA06.jpg,AMNE01.jpg,AMNE12.jpg,AMSA08.jpg,AMSA08.jpg,MS,2,num_4,16,num_4,0.883561410941,,,2017_Jul_10_1038,60.0081992642,FEMA4ImagesEEG,001,100905,
AFNE01.JPG,AFNE01.JPG,AFNE01.JPG,AFNE01.JPG,AFNE01.JPG,AFNE01.JPG,,,,,,,,,,,,,4,0,40,1,,,,,,,,,,,AMSA02.jpg,AMSA16.jpg,AMNE06.jpg,AMNE17.jpg,AMNE06.jpg,MN,1,num_2,32,num_8,1.61672276398,,,2017_Jul_10_1038,60.0081992642,FEMA4ImagesEEG,001,100905,
AFNE01.JPG,AFNE01.JPG,AFNE01.JPG,AFNE01.JPG,AFNE01.JPG,AFNE01.JPG,,,,,,,,,,,,,4,1,41,8,,,,,,,,,,,AMNE03.jpg,AMNE09.jpg,AMSA07.jpg,AMSA13.jpg,AMSA07.jpg,MS,2,num_2,16,num_2,1.16669200524,,,2017_Jul_10_1038,60.0081992642,FEMA4ImagesEEG,001,100905,
AFNE01.JPG,AFNE01.JPG,AFNE01.JPG,AFNE01.JPG,AFNE01.JPG,AFNE01.JPG,,,,,,,,,,,,,4,2,42,4,,,,,,,,,,,AMSA06.jpg,AMSA07.jpg,AMNE07.jpg,AMNE09.jpg,AMSA06.jpg,MS,2,num_8,16,num_8,1.18344613747,,,2017_Jul_10_1038,60.0081992642,FEMA4ImagesEEG,001,100905,
AFNE01.JPG,AFNE01.JPG,AFNE01.JPG,AFNE01.JPG,AFNE01.JPG,AFNE01.JPG,,,,,,,,,,,,,4,3,43,5,,,,,,,,,,,AMNE05.jpg,AMNE10.jpg,AMSA04.jpg,AMSA12.jpg,AMSA12.jpg,MS,2,num_4,32,num_6,1.23346445151,,,2017_Jul_10_1038,60.0081992642,FEMA4ImagesEEG,001,100905,
AFNE01.JPG,AFNE01.JPG,AFNE01.JPG,AFNE01.JPG,AFNE01.JPG,AFNE01.JPG,,,,,,,,,,,,,4,4,44,7,,,,,,,,,,,AMSA18.jpg,AMSA01.jpg,AMNE16.jpg,AMNE19.jpg,AMSA01.jpg,MS,2,num_6,16,num_6,1.18350483268,,,2017_Jul_10_1038,60.0081992642,FEMA4ImagesEEG,001,100905,
AFNE01.JPG,AFNE01.JPG,AFNE01.JPG,AFNE01.JPG,AFNE01.JPG,AFNE01.JPG,,,,,,,,,,,,,4,5,45,0,,,,,,,,,,,AMSA16.jpg,AMNE19.jpg,AMNE11.jpg,AMSA10.jpg,AMNE19.jpg,MN,1,num_6,16,num_6,0.816751758801,,,2017_Jul_10_1038,60.0081992642,FEMA4ImagesEEG,001,100905,
AFNE01.JPG,AFNE01.JPG,AFNE01.JPG,AFNE01.JPG,AFNE01.JPG,AFNE01.JPG,,,,,,,,,,,,,4,6,46,2,,,,,,,,,,,AMNE03.jpg,AMSA02.jpg,AMSA16.jpg,AMNE17.jpg,AMNE03.jpg,MN,1,num_8,16,num_8,0.966752175707,,,2017_Jul_10_1038,60.0081992642,FEMA4ImagesEEG,001,100905,
AFNE01.JPG,AFNE01.JPG,AFNE01.JPG,AFNE01.JPG,AFNE01.JPG,AFNE01.JPG,,,,,,,,,,,,,4,7,47,9,,,,,,,,,,,AMNE20.jpg,AMSA13.jpg,AMSA04.jpg,AMNE07.jpg,AMNE07.jpg,MN,1,num_4,16,num_4,1.01672173757,,,2017_Jul_10_1038,60.0081992642,FEMA4ImagesEEG,001,100905,
AFNE01.JPG,AFNE01.JPG,AFNE01.JPG,AFNE01.JPG,AFNE01.JPG,AFNE01.JPG,,,,,,,,,,,,,4,8,48,6,,,,,,,,,,,AMNE02.jpg,AMSA18.jpg,AMNE20.jpg,AMSA01.jpg,AMSA18.jpg,MS,2,num_6,16,num_6,2.11694279104,,,2017_Jul_10_1038,60.0081992642,FEMA4ImagesEEG,001,100905,
AFNE01.JPG,AFNE01.JPG,AFNE01.JPG,AFNE01.JPG,AFNE01.JPG,AFNE01.JPG,,,,,,,,,,,,,4,9,49,3,,,,,,,,,,,AMSA20.jpg,AMNE18.jpg,AMSA08.jpg,AMNE01.jpg,AMNE18.jpg,MN,1,num_6,16,num_6,0.800105715636,,,2017_Jul_10_1038,60.0081992642,FEMA4ImagesEEG,001,100905,
AFNE01.JPG,AFNE01.JPG,AFNE01.JPG,AFNE01.JPG,AFNE01.JPG,AFNE01.JPG,,,,,,,,,,,,,5,0,50,9,,,,,,,,,,,AMSA06.jpg,AMNE04.jpg,AMNE14.jpg,AMSA04.jpg,AMSA06.jpg,MS,2,num_8,32,num_6,1.33342153672,,,2017_Jul_10_1038,60.0081992642,FEMA4ImagesEEG,001,100905,
AFNE01.JPG,AFNE01.JPG,AFNE01.JPG,AFNE01.JPG,AFNE01.JPG,AFNE01.JPG,,,,,,,,,,,,,5,1,51,2,,,,,,,,,,,AMNE15.jpg,AMSA15.jpg,AMNE04.jpg,AMSA07.jpg,AMNE04.jpg,MN,1,num_2,16,num_2,0.850141349714,,,2017_Jul_10_1038,60.0081992642,FEMA4ImagesEEG,001,100905,
AFNE01.JPG,AFNE01.JPG,AFNE01.JPG,AFNE01.JPG,AFNE01.JPG,AFNE01.JPG,,,,,,,,,,,,,5,2,52,1,,,,,,,,,,,AMSA20.jpg,AMSA07.jpg,AMNE16.jpg,AMNE13.jpg,AMSA07.jpg,MS,2,num_6,32,num_4,1.08349674987,,,2017_Jul_10_1038,60.0081992642,FEMA4ImagesEEG,001,100905,
AFNE01.JPG,AFNE01.JPG,AFNE01.JPG,AFNE01.JPG,AFNE01.JPG,AFNE01.JPG,,,,,,,,,,,,,5,3,53,4,,,,,,,,,,,AMSA20.jpg,AMNE01.jpg,AMNE07.jpg,AMSA04.jpg,AMSA20.jpg,MS,2,num_8,16,num_8,1.3500823339,,,2017_Jul_10_1038,60.0081992642,FEMA4ImagesEEG,001,100905,
AFNE01.JPG,AFNE01.JPG,AFNE01.JPG,AFNE01.JPG,AFNE01.JPG,AFNE01.JPG,,,,,,,,,,,,,5,4,54,3,,,,,,,,,,,AMNE18.jpg,AMSA18.jpg,AMSA19.jpg,AMNE04.jpg,AMSA19.jpg,MS,2,num_2,16,num_2,0.83333750302,,,2017_Jul_10_1038,60.0081992642,FEMA4ImagesEEG,001,100905,
AFNE01.JPG,AFNE01.JPG,AFNE01.JPG,AFNE01.JPG,AFNE01.JPG,AFNE01.JPG,,,,,,,,,,,,,5,5,55,5,,,,,,,,,,,AMSA07.jpg,AMNE01.jpg,AMSA08.jpg,AMNE18.jpg,AMSA07.jpg,MS,2,num_8,16,num_8,2.68315009517,,,2017_Jul_10_1038,60.0081992642,FEMA4ImagesEEG,001,100905,
AFNE01.JPG,AFNE01.JPG,AFNE01.JPG,AFNE01.JPG,AFNE01.JPG,AFNE01.JPG,,,,,,,,,,,,,5,6,56,7,,,,,,,,,,,AMNE02.jpg,AMSA13.jpg,AMSA14.jpg,AMNE14.jpg,AMSA13.jpg,MS,2,num_6,16,num_6,0.700106292963,,,2017_Jul_10_1038,60.0081992642,FEMA4ImagesEEG,001,100905,
AFNE01.JPG,AFNE01.JPG,AFNE01.JPG,AFNE01.JPG,AFNE01.JPG,AFNE01.JPG,,,,,,,,,,,,,5,7,57,8,,,,,,,,,,,AMSA16.jpg,AMSA08.jpg,AMNE16.jpg,AMNE08.jpg,AMSA08.jpg,MS,2,num_6,32,num_8,1.33342666831,,,2017_Jul_10_1038,60.0081992642,FEMA4ImagesEEG,001,100905,
AFNE01.JPG,AFNE01.JPG,AFNE01.JPG,AFNE01.JPG,AFNE01.JPG,AFNE01.JPG,,,,,,,,,,,,,5,8,58,0,,,,,,,,,,,AMNE01.jpg,AMSA16.jpg,AMNE07.jpg,AMSA02.jpg,AMSA02.jpg,MS,2,num_4,16,num_4,0.516782998806,,,2017_Jul_10_1038,60.0081992642,FEMA4ImagesEEG,001,100905,
AFNE01.JPG,AFNE01.JPG,AFNE01.JPG,AFNE01.JPG,AFNE01.JPG,AFNE01.JPG,,,,,,,,,,,,,5,9,59,6,,,,,,,,,,,AMSA20.jpg,AMNE16.jpg,AMNE03.jpg,AMSA07.jpg,AMNE16.jpg,MN,1,num_6,32,num_8,0.966800928116,,,2017_Jul_10_1038,60.0081992642,FEMA4ImagesEEG,001,100905,
,,,,,,,,,,,,,,,,,,,,,,,,,,,,,,,,,,,,,,,,,,,space,39.763330081,2017_Jul_10_1038,60.0081992642,FEMA4ImagesEEG,001,100905,
AFNE01.JPG,AFNE01.JPG,AFNE01.JPG,AFNE01.JPG,AFNE01.JPG,AFNE01.JPG,,,,,,,,,,,,,,,,,0,0,0,8,,,,,,,AFSA02.jpg,AFSA15.jpg,AFNE02.jpg,AFNE19.jpg,AFNE02.jpg,FN,3,num_2,32,num_6,1.35018144222,,,2017_Jul_10_1038,60.0081992642,FEMA4ImagesEEG,001,100905,
AFNE01.JPG,AFNE01.JPG,AFNE01.JPG,AFNE01.JPG,AFNE01.JPG,AFNE01.JPG,,,,,,,,,,,,,,,,,0,1,1,6,,,,,,,AFSA07.jpg,AFSA01.jpg,AFNE11.jpg,AFNE13.jpg,AFSA07.jpg,FS,4,num_8,16,num_8,0.633511215216,,,2017_Jul_10_1038,60.0081992642,FEMA4ImagesEEG,001,100905,
AFNE01.JPG,AFNE01.JPG,AFNE01.JPG,AFNE01.JPG,AFNE01.JPG,AFNE01.JPG,,,,,,,,,,,,,,,,,0,2,2,0,,,,,,,AFNE05.jpg,AFSA14.jpg,AFSA08.jpg,AFNE20.jpg,AFNE20.jpg,FN,3,num_4,32,num_8,1.08349450468,,,2017_Jul_10_1038,60.0081992642,FEMA4ImagesEEG,001,100905,
AFNE01.JPG,AFNE01.JPG,AFNE01.JPG,AFNE01.JPG,AFNE01.JPG,AFNE01.JPG,,,,,,,,,,,,,,,,,0,3,3,3,,,,,,,AFSA10.jpg,AFSA08.jpg,AFNE08.jpg,AFNE01.jpg,AFNE08.jpg,FN,3,num_2,32,num_8,1.00013086153,,,2017_Jul_10_1038,60.0081992642,FEMA4ImagesEEG,001,100905,
AFNE01.JPG,AFNE01.JPG,AFNE01.JPG,AFNE01.JPG,AFNE01.JPG,AFNE01.JPG,,,,,,,,,,,,,,,,,0,4,4,2,,,,,,,AFNE08.jpg,AFSA17.jpg,AFSA16.jpg,AFNE06.jpg,AFSA17.jpg,FS,4,num_6,16,num_6,0.616772478446,,,2017_Jul_10_1038,60.0081992642,FEMA4ImagesEEG,001,100905,
AFNE01.JPG,AFNE01.JPG,AFNE01.JPG,AFNE01.JPG,AFNE01.JPG,AFNE01.JPG,,,,,,,,,,,,,,,,,0,5,5,1,,,,,,,AFSA08.jpg,AFNE03.jpg,AFNE11.jpg,AFSA17.jpg,AFNE03.jpg,FN,3,num_6,32,num_8,0.700115594314,,,2017_Jul_10_1038,60.0081992642,FEMA4ImagesEEG,001,100905,
AFNE01.JPG,AFNE01.JPG,AFNE01.JPG,AFNE01.JPG,AFNE01.JPG,AFNE01.JPG,,,,,,,,,,,,,,,,,0,6,6,7,,,,,,,AFSA12.jpg,AFNE19.jpg,AFNE07.jpg,AFSA11.jpg,AFNE07.jpg,FN,3,num_2,32,num_8,0.833486967487,,,2017_Jul_10_1038,60.0081992642,FEMA4ImagesEEG,001,100905,
AFNE01.JPG,AFNE01.JPG,AFNE01.JPG,AFNE01.JPG,AFNE01.JPG,AFNE01.JPG,,,,,,,,,,,,,,,,,0,7,7,4,,,,,,,AFSA10.jpg,AFNE14.jpg,AFNE09.jpg,AFSA20.jpg,AFSA10.jpg,FS,4,num_8,32,num_2,1.45008175634,,,2017_Jul_10_1038,60.0081992642,FEMA4ImagesEEG,001,100905,
AFNE01.JPG,AFNE01.JPG,AFNE01.JPG,AFNE01.JPG,AFNE01.JPG,AFNE01.JPG,,,,,,,,,,,,,,,,,0,8,8,5,,,,,,,AFNE07.jpg,AFSA20.jpg,AFSA12.jpg,AFNE01.jpg,AFNE01.jpg,FN,3,num_4,16,num_4,1.78338654409,,,2017_Jul_10_1038,60.0081992642,FEMA4ImagesEEG,001,100905,
AFNE01.JPG,AFNE01.JPG,AFNE01.JPG,AFNE01.JPG,AFNE01.JPG,AFNE01.JPG,,,,,,,,,,,,,,,,,0,9,9,9,,,,,,,AFSA11.jpg,AFSA15.jpg,AFNE18.jpg,AFNE20.jpg,AFSA11.jpg,FS,4,num_8,16,num_8,0.466836850857,,,2017_Jul_10_1038,60.0081992642,FEMA4ImagesEEG,001,100905,
AFNE01.JPG,AFNE01.JPG,AFNE01.JPG,AFNE01.JPG,AFNE01.JPG,AFNE01.JPG,,,,,,,,,,,,,,,,,1,0,10,2,,,,,,,AFSA13.jpg,AFNE14.jpg,AFNE15.jpg,AFSA18.jpg,AFNE15.jpg,FN,3,num_2,32,num_6,1.50003656419,,,2017_Jul_10_1038,60.0081992642,FEMA4ImagesEEG,001,100905,
AFNE01.JPG,AFNE01.JPG,AFNE01.JPG,AFNE01.JPG,AFNE01.JPG,AFNE01.JPG,,,,,,,,,,,,,,,,,1,1,11,9,,,,,,,AFNE11.jpg,AFNE02.jpg,AFSA15.jpg,AFSA03.jpg,AFNE02.jpg,FN,3,num_6,32,num_4,0.800434152596,,,2017_Jul_10_1038,60.0081992642,FEMA4ImagesEEG,001,100905,
AFNE01.JPG,AFNE01.JPG,AFNE01.JPG,AFNE01.JPG,AFNE01.JPG,AFNE01.JPG,,,,,,,,,,,,,,,,,1,2,12,5,,,,,,,AFSA07.jpg,AFSA17.jpg,AFNE14.jpg,AFNE12.jpg,AFNE12.jpg,FN,3,num_4,32,num_8,3.21656021313,,,2017_Jul_10_1038,60.0081992642,FEMA4ImagesEEG,001,100905,
AFNE01.JPG,AFNE01.JPG,AFNE01.JPG,AFNE01.JPG,AFNE01.JPG,AFNE01.JPG,,,,,,,,,,,,,,,,,1,3,13,1,,,,,,,AFSA18.jpg,AFNE07.jpg,AFNE15.jpg,AFSA02.jpg,AFSA18.jpg,FS,4,num_8,32,num_4,0.816756570013,,,2017_Jul_10_1038,60.0081992642,FEMA4ImagesEEG,001,100905,
AFNE01.JPG,AFNE01.JPG,AFNE01.JPG,AFNE01.JPG,AFNE01.JPG,AFNE01.JPG,,,,,,,,,,,,,,,,,1,4,14,3,,,,,,,AFSA01.jpg,AFNE08.jpg,AFSA18.jpg,AFNE12.jpg,AFNE12.jpg,FN,3,num_4,32,num_8,1.21673501609,,,2017_Jul_10_1038,60.0081992642,FEMA4ImagesEEG,001,100905,
AFNE01.JPG,AFNE01.JPG,AFNE01.JPG,AFNE01.JPG,AFNE01.JPG,AFNE01.JPG,,,,,,,,,,,,,,,,,1,5,15,7,,,,,,,AFNE05.jpg,AFSA20.jpg,AFNE06.jpg,AFSA16.jpg,AFSA20.jpg,FS,4,num_6,32,num_4,1.51675381139,,,2017_Jul_10_1038,60.0081992642,FEMA4ImagesEEG,001,100905,
AFNE01.JPG,AFNE01.JPG,AFNE01.JPG,AFNE01.JPG,AFNE01.JPG,AFNE01.JPG,,,,,,,,,,,,,,,,,1,6,16,6,,,,,,,AFSA20.jpg,AFNE05.jpg,AFSA08.jpg,AFNE03.jpg,AFSA08.jpg,FS,4,num_2,32,num_8,0.683492003009,,,2017_Jul_10_1038,60.0081992642,FEMA4ImagesEEG,001,100905,
AFNE01.JPG,AFNE01.JPG,AFNE01.JPG,AFNE01.JPG,AFNE01.JPG,AFNE01.JPG,,,,,,,,,,,,,,,,,1,7,17,4,,,,,,,AFNE07.jpg,AFSA11.jpg,AFSA16.jpg,AFNE10.jpg,AFSA16.jpg,FS,4,num_2,32,num_4,0.749987009913,,,2017_Jul_10_1038,60.0081992642,FEMA4ImagesEEG,001,100905,
AFNE01.JPG,AFNE01.JPG,AFNE01.JPG,AFNE01.JPG,AFNE01.JPG,AFNE01.JPG,,,,,,,,,,,,,,,,,1,8,18,8,,,,,,,AFSA15.jpg,AFNE04.jpg,AFNE02.jpg,AFSA03.jpg,AFNE04.jpg,FN,3,num_6,16,num_6,0.983424840262,,,2017_Jul_10_1038,60.0081992642,FEMA4ImagesEEG,001,100905,
AFNE01.JPG,AFNE01.JPG,AFNE01.JPG,AFNE01.JPG,AFNE01.JPG,AFNE01.JPG,,,,,,,,,,,,,,,,,1,9,19,0,,,,,,,AFSA19.jpg,AFNE16.jpg,AFNE11.jpg,AFSA06.jpg,AFNE11.jpg,FN,3,num_2,32,num_4,1.58293224918,,,2017_Jul_10_1038,60.0081992642,FEMA4ImagesEEG,001,100905,
AFNE01.JPG,AFNE01.JPG,AFNE01.JPG,AFNE01.JPG,AFNE01.JPG,AFNE01.JPG,,,,,,,,,,,,,,,,,2,0,20,6,,,,,,,AFSA04.jpg,AFNE07.jpg,AFNE03.jpg,AFSA11.jpg,AFSA11.jpg,FS,4,num_4,16,num_4,0.483373842901,,,2017_Jul_10_1038,60.0081992642,FEMA4ImagesEEG,001,100905,
AFNE01.JPG,AFNE01.JPG,AFNE01.JPG,AFNE01.JPG,AFNE01.JPG,AFNE01.JPG,,,,,,,,,,,,,,,,,2,1,21,8,,,,,,,AFNE09.jpg,AFSA15.jpg,AFNE17.jpg,AFSA01.jpg,AFSA01.jpg,FS,4,num_4,16,num_4,0.816780304769,,,2017_Jul_10_1038,60.0081992642,FEMA4ImagesEEG,001,100905,
AFNE01.JPG,AFNE01.JPG,AFNE01.JPG,AFNE01.JPG,AFNE01.JPG,AFNE01.JPG,,,,,,,,,,,,,,,,,2,2,22,0,,,,,,,AFNE12.jpg,AFSA10.jpg,AFNE08.jpg,AFSA11.jpg,AFSA11.jpg,FS,4,num_4,16,num_4,0.866808561608,,,2017_Jul_10_1038,60.0081992642,FEMA4ImagesEEG,001,100905,
AFNE01.JPG,AFNE01.JPG,AFNE01.JPG,AFNE01.JPG,AFNE01.JPG,AFNE01.JPG,,,,,,,,,,,,,,,,,2,3,23,2,,,,,,,AFSA05.jpg,AFSA11.jpg,AFNE14.jpg,AFNE18.jpg,AFSA11.jpg,FS,4,num_6,16,num_6,2.2333403253,,,2017_Jul_10_1038,60.0081992642,FEMA4ImagesEEG,001,100905,
AFNE01.JPG,AFNE01.JPG,AFNE01.JPG,AFNE01.JPG,AFNE01.JPG,AFNE01.JPG,,,,,,,,,,,,,,,,,2,4,24,4,,,,,,,AFNE06.jpg,AFSA04.jpg,AFSA10.jpg,AFNE08.jpg,AFSA10.jpg,FS,4,num_2,16,num_2,0.583357228432,,,2017_Jul_10_1038,60.0081992642,FEMA4ImagesEEG,001,100905,
AFNE01.JPG,AFNE01.JPG,AFNE01.JPG,AFNE01.JPG,AFNE01.JPG,AFNE01.JPG,,,,,,,,,,,,,,,,,2,5,25,1,,,,,,,AFNE15.jpg,AFSA01.jpg,AFNE06.jpg,AFSA19.jpg,AFSA01.jpg,FS,4,num_6,16,num_6,0.633530138759,,,2017_Jul_10_1038,60.0081992642,FEMA4ImagesEEG,001,100905,
AFNE01.JPG,AFNE01.JPG,AFNE01.JPG,AFNE01.JPG,AFNE01.JPG,AFNE01.JPG,,,,,,,,,,,,,,,,,2,6,26,9,,,,,,,AFNE13.jpg,AFSA11.jpg,AFSA03.jpg,AFNE20.jpg,AFNE20.jpg,FN,3,num_4,16,num_4,1.2999844763,,,2017_Jul_10_1038,60.0081992642,FEMA4ImagesEEG,001,100905,
AFNE01.JPG,AFNE01.JPG,AFNE01.JPG,AFNE01.JPG,AFNE01.JPG,AFNE01.JPG,,,,,,,,,,,,,,,,,2,7,27,5,,,,,,,AFNE18.jpg,AFSA06.jpg,AFNE17.jpg,AFSA01.jpg,AFSA01.jpg,FS,4,num_4,16,num_4,1.51671788888,,,2017_Jul_10_1038,60.0081992642,FEMA4ImagesEEG,001,100905,
AFNE01.JPG,AFNE01.JPG,AFNE01.JPG,AFNE01.JPG,AFNE01.JPG,AFNE01.JPG,,,,,,,,,,,,,,,,,2,8,28,7,,,,,,,AFNE13.jpg,AFSA17.jpg,AFSA10.jpg,AFNE17.jpg,AFNE17.jpg,FN,3,num_4,16,num_4,2.21665322757,,,2017_Jul_10_1038,60.0081992642,FEMA4ImagesEEG,001,100905,
AFNE01.JPG,AFNE01.JPG,AFNE01.JPG,AFNE01.JPG,AFNE01.JPG,AFNE01.JPG,,,,,,,,,,,,,,,,,2,9,29,3,,,,,,,AFSA13.jpg,AFSA10.jpg,AFNE13.jpg,AFNE02.jpg,AFSA10.jpg,FS,4,num_6,16,num_6,0.600130605046,,,2017_Jul_10_1038,60.0081992642,FEMA4ImagesEEG,001,100905,
AFNE01.JPG,AFNE01.JPG,AFNE01.JPG,AFNE01.JPG,AFNE01.JPG,AFNE01.JPG,,,,,,,,,,,,,,,,,3,0,30,0,,,,,,,AFSA16.jpg,AFSA01.jpg,AFNE10.jpg,AFNE11.jpg,AFNE10.jpg,FN,3,num_2,16,num_2,2.5833216263,,,2017_Jul_10_1038,60.0081992642,FEMA4ImagesEEG,001,100905,
AFNE01.JPG,AFNE01.JPG,AFNE01.JPG,AFNE01.JPG,AFNE01.JPG,AFNE01.JPG,,,,,,,,,,,,,,,,,3,1,31,4,,,,,,,AFSA13.jpg,AFNE15.jpg,AFSA02.jpg,AFNE19.jpg,AFSA13.jpg,FS,4,num_8,32,num_4,1.28346127621,,,2017_Jul_10_1038,60.0081992642,FEMA4ImagesEEG,001,100905,
AFNE01.JPG,AFNE01.JPG,AFNE01.JPG,AFNE01.JPG,AFNE01.JPG,AFNE01.JPG,,,,,,,,,,,,,,,,,3,2,32,8,,,,,,,AFNE10.jpg,AFNE02.jpg,AFSA08.jpg,AFSA07.jpg,AFNE02.jpg,FN,3,num_6,32,num_4,1.11673174473,,,2017_Jul_10_1038,60.0081992642,FEMA4ImagesEEG,001,100905,
AFNE01.JPG,AFNE01.JPG,AFNE01.JPG,AFNE01.JPG,AFNE01.JPG,AFNE01.JPG,,,,,,,,,,,,,,,,,3,3,33,2,,,,,,,AFNE12.jpg,AFSA01.jpg,AFSA11.jpg,AFNE01.jpg,AFNE12.jpg,FN,3,num_8,32,num_4,1.7833968075,,,2017_Jul_10_1038,60.0081992642,FEMA4ImagesEEG,001,100905,
AFNE01.JPG,AFNE01.JPG,AFNE01.JPG,AFNE01.JPG,AFNE01.JPG,AFNE01.JPG,,,,,,,,,,,,,,,,,3,4,34,6,,,,,,,AFSA07.jpg,AFNE11.jpg,AFSA17.jpg,AFNE09.jpg,AFNE09.jpg,FN,3,num_4,16,num_4,1.08344094129,,,2017_Jul_10_1038,60.0081992642,FEMA4ImagesEEG,001,100905,
AFNE01.JPG,AFNE01.JPG,AFNE01.JPG,AFNE01.JPG,AFNE01.JPG,AFNE01.JPG,,,,,,,,,,,,,,,,,3,5,35,1,,,,,,,AFSA02.jpg,AFNE06.jpg,AFSA15.jpg,AFNE18.jpg,AFNE06.jpg,FN,3,num_6,16,num_6,0.750118192285,,,2017_Jul_10_1038,60.0081992642,FEMA4ImagesEEG,001,100905,
AFNE01.JPG,AFNE01.JPG,AFNE01.JPG,AFNE01.JPG,AFNE01.JPG,AFNE01.JPG,,,,,,,,,,,,,,,,,3,6,36,9,,,,,,,AFNE16.jpg,AFSA15.jpg,AFSA07.jpg,AFNE17.jpg,AFSA07.jpg,FS,4,num_2,16,num_2,2.26664010948,,,2017_Jul_10_1038,60.0081992642,FEMA4ImagesEEG,001,100905,
AFNE01.JPG,AFNE01.JPG,AFNE01.JPG,AFNE01.JPG,AFNE01.JPG,AFNE01.JPG,,,,,,,,,,,,,,,,,3,7,37,3,,,,,,,AFSA03.jpg,AFSA11.jpg,AFNE09.jpg,AFNE05.jpg,AFSA11.jpg,FS,4,num_6,32,num_4,3.88322463492,,,2017_Jul_10_1038,60.0081992642,FEMA4ImagesEEG,001,100905,
AFNE01.JPG,AFNE01.JPG,AFNE01.JPG,AFNE01.JPG,AFNE01.JPG,AFNE01.JPG,,,,,,,,,,,,,,,,,3,8,38,5,,,,,,,AFNE20.jpg,AFSA19.jpg,AFSA11.jpg,AFNE18.jpg,AFNE20.jpg,FN,3,num_8,16,num_8,1.51672975626,,,2017_Jul_10_1038,60.0081992642,FEMA4ImagesEEG,001,100905,
AFNE01.JPG,AFNE01.JPG,AFNE01.JPG,AFNE01.JPG,AFNE01.JPG,AFNE01.JPG,,,,,,,,,,,,,,,,,3,9,39,7,,,,,,,AFSA19.jpg,AFNE01.jpg,AFNE07.jpg,AFSA07.jpg,AFSA07.jpg,FS,4,num_4,16,num_4,1.36644644709,,,2017_Jul_10_1038,60.0081992642,FEMA4ImagesEEG,001,100905,
AFNE01.JPG,AFNE01.JPG,AFNE01.JPG,AFNE01.JPG,AFNE01.JPG,AFNE01.JPG,,,,,,,,,,,,,,,,,4,0,40,4,,,,,,,AFNE05.jpg,AFSA20.jpg,AFNE13.jpg,AFSA17.jpg,AFNE05.jpg,FN,3,num_8,16,num_8,0.833480552537,,,2017_Jul_10_1038,60.0081992642,FEMA4ImagesEEG,001,100905,
AFNE01.JPG,AFNE01.JPG,AFNE01.JPG,AFNE01.JPG,AFNE01.JPG,AFNE01.JPG,,,,,,,,,,,,,,,,,4,1,41,0,,,,,,,AFSA08.jpg,AFNE02.jpg,AFSA13.jpg,AFNE01.jpg,AFSA13.jpg,FS,4,num_2,32,num_4,1.31676234305,,,2017_Jul_10_1038,60.0081992642,FEMA4ImagesEEG,001,100905,
AFNE01.JPG,AFNE01.JPG,AFNE01.JPG,AFNE01.JPG,AFNE01.JPG,AFNE01.JPG,,,,,,,,,,,,,,,,,4,2,42,5,,,,,,,AFSA04.jpg,AFNE16.jpg,AFSA02.jpg,AFNE14.jpg,AFNE16.jpg,FN,3,num_6,32,num_8,1.10027846578,,,2017_Jul_10_1038,60.0081992642,FEMA4ImagesEEG,001,100905,
AFNE01.JPG,AFNE01.JPG,AFNE01.JPG,AFNE01.JPG,AFNE01.JPG,AFNE01.JPG,,,,,,,,,,,,,,,,,4,3,43,9,,,,,,,AFNE03.jpg,AFNE18.jpg,AFSA03.jpg,AFSA08.jpg,AFNE18.jpg,FN,3,num_6,16,num_6,0.783471219009,,,2017_Jul_10_1038,60.0081992642,FEMA4ImagesEEG,001,100905,
AFNE01.JPG,AFNE01.JPG,AFNE01.JPG,AFNE01.JPG,AFNE01.JPG,AFNE01.JPG,,,,,,,,,,,,,,,,,4,4,44,3,,,,,,,AFNE13.jpg,AFNE06.jpg,AFSA15.jpg,AFSA03.jpg,AFNE13.jpg,FN,3,num_8,16,num_8,0.933438600041,,,2017_Jul_10_1038,60.0081992642,FEMA4ImagesEEG,001,100905,
AFNE01.JPG,AFNE01.JPG,AFNE01.JPG,AFNE01.JPG,AFNE01.JPG,AFNE01.JPG,,,,,,,,,,,,,,,,,4,5,45,2,,,,,,,AFSA11.jpg,AFSA20.jpg,AFNE09.jpg,AFNE13.jpg,AFNE09.jpg,FN,3,num_2,16,num_2,1.90004387707,,,2017_Jul_10_1038,60.0081992642,FEMA4ImagesEEG,001,100905,
AFNE01.JPG,AFNE01.JPG,AFNE01.JPG,AFNE01.JPG,AFNE01.JPG,AFNE01.JPG,,,,,,,,,,,,,,,,,4,6,46,8,,,,,,,AFSA14.jpg,AFSA19.jpg,AFNE02.jpg,AFNE07.jpg,AFSA14.jpg,FS,4,num_8,16,num_8,1.28339552484,,,2017_Jul_10_1038,60.0081992642,FEMA4ImagesEEG,001,100905,
AFNE01.JPG,AFNE01.JPG,AFNE01.JPG,AFNE01.JPG,AFNE01.JPG,AFNE01.JPG,,,,,,,,,,,,,,,,,4,7,47,1,,,,,,,AFSA08.jpg,AFNE11.jpg,AFSA01.jpg,AFNE04.jpg,AFNE11.jpg,FN,3,num_6,16,num_6,2.59998178203,,,2017_Jul_10_1038,60.0081992642,FEMA4ImagesEEG,001,100905,
AFNE01.JPG,AFNE01.JPG,AFNE01.JPG,AFNE01.JPG,AFNE01.JPG,AFNE01.JPG,,,,,,,,,,,,,,,,,4,8,48,7,,,,,,,AFSA18.jpg,AFNE09.jpg,AFNE06.jpg,AFSA04.jpg,AFNE06.jpg,FN,3,num_2,16,num_2,2.61663199472,,,2017_Jul_10_1038,60.0081992642,FEMA4ImagesEEG,001,100905,
AFNE01.JPG,AFNE01.JPG,AFNE01.JPG,AFNE01.JPG,AFNE01.JPG,AFNE01.JPG,,,,,,,,,,,,,,,,,4,9,49,6,,,,,,,AFSA03.jpg,AFNE13.jpg,AFSA20.jpg,AFNE04.jpg,AFNE04.jpg,FN,3,num_4,16,num_4,0.78345550294,,,2017_Jul_10_1038,60.0081992642,FEMA4ImagesEEG,001,100905,
AFNE01.JPG,AFNE01.JPG,AFNE01.JPG,AFNE01.JPG,AFNE01.JPG,AFNE01.JPG,,,,,,,,,,,,,,,,,5,0,50,1,,,,,,,AFSA19.jpg,AFSA11.jpg,AFNE05.jpg,AFNE11.jpg,AFSA19.jpg,FS,4,num_8,32,num_6,2.15004692413,,,2017_Jul_10_1038,60.0081992642,FEMA4ImagesEEG,001,100905,
AFNE01.JPG,AFNE01.JPG,AFNE01.JPG,AFNE01.JPG,AFNE01.JPG,AFNE01.JPG,,,,,,,,,,,,,,,,,5,1,51,8,,,,,,,AFNE07.jpg,AFSA19.jpg,AFNE14.jpg,AFSA06.jpg,AFSA19.jpg,FS,4,num_6,16,num_6,1.30009801802,,,2017_Jul_10_1038,60.0081992642,FEMA4ImagesEEG,001,100905,
AFNE01.JPG,AFNE01.JPG,AFNE01.JPG,AFNE01.JPG,AFNE01.JPG,AFNE01.JPG,,,,,,,,,,,,,,,,,5,2,52,5,,,,,,,AFNE11.jpg,AFSA01.jpg,AFSA06.jpg,AFNE07.jpg,AFNE07.jpg,FN,3,num_4,32,num_8,0.950101000722,,,2017_Jul_10_1038,60.0081992642,FEMA4ImagesEEG,001,100905,
AFNE01.JPG,AFNE01.JPG,AFNE01.JPG,AFNE01.JPG,AFNE01.JPG,AFNE01.JPG,,,,,,,,,,,,,,,,,5,3,53,9,,,,,,,AFSA05.jpg,AFNE02.jpg,AFSA06.jpg,AFNE06.jpg,AFSA05.jpg,FS,4,num_8,32,num_2,1.66670643841,,,2017_Jul_10_1038,60.0081992642,FEMA4ImagesEEG,001,100905,
AFNE01.JPG,AFNE01.JPG,AFNE01.JPG,AFNE01.JPG,AFNE01.JPG,AFNE01.JPG,,,,,,,,,,,,,,,,,5,4,54,6,,,,,,,AFNE07.jpg,AFSA02.jpg,AFNE11.jpg,AFSA07.jpg,AFNE11.jpg,FN,3,num_2,16,num_2,0.800127846655,,,2017_Jul_10_1038,60.0081992642,FEMA4ImagesEEG,001,100905,
AFNE01.JPG,AFNE01.JPG,AFNE01.JPG,AFNE01.JPG,AFNE01.JPG,AFNE01.JPG,,,,,,,,,,,,,,,,,5,5,55,0,,,,,,,AFNE08.jpg,AFNE03.jpg,AFSA18.jpg,AFSA17.jpg,AFNE08.jpg,FN,3,num_8,16,num_8,0.933453033213,,,2017_Jul_10_1038,60.0081992642,FEMA4ImagesEEG,001,100905,
AFNE01.JPG,AFNE01.JPG,AFNE01.JPG,AFNE01.JPG,AFNE01.JPG,AFNE01.JPG,,,,,,,,,,,,,,,,,5,6,56,7,,,,,,,AFSA10.jpg,AFNE17.jpg,AFNE01.jpg,AFSA03.jpg,AFNE01.jpg,FN,3,num_2,16,num_2,0.683432666119,,,2017_Jul_10_1038,60.0081992642,FEMA4ImagesEEG,001,100905,
AFNE01.JPG,AFNE01.JPG,AFNE01.JPG,AFNE01.JPG,AFNE01.JPG,AFNE01.JPG,,,,,,,,,,,,,,,,,5,7,57,3,,,,,,,AFSA12.jpg,AFNE14.jpg,AFSA20.jpg,AFNE12.jpg,AFNE12.jpg,FN,3,num_4,32,num_2,1.00014465349,,,2017_Jul_10_1038,60.0081992642,FEMA4ImagesEEG,001,100905,
AFNE01.JPG,AFNE01.JPG,AFNE01.JPG,AFNE01.JPG,AFNE01.JPG,AFNE01.JPG,,,,,,,,,,,,,,,,,5,8,58,2,,,,,,,AFSA17.jpg,AFNE17.jpg,AFNE06.jpg,AFSA02.jpg,AFSA17.jpg,FS,4,num_8,16,num_8,2.05004012445,,,2017_Jul_10_1038,60.0081992642,FEMA4ImagesEEG,001,100905,
AFNE01.JPG,AFNE01.JPG,AFNE01.JPG,AFNE01.JPG,AFNE01.JPG,AFNE01.JPG,,,,,,,,,,,,,,,,,5,9,59,4,,,,,,,AFNE05.jpg,AFNE06.jpg,AFSA15.jpg,AFSA12.jpg,AFNE06.jpg,FN,3,num_6,32,num_8,1.30007652822,,,2017_Jul_10_1038,60.0081992642,FEMA4ImagesEEG,001,100905,
,,,,,,,,,,,,,,,,,,,,,,,,,,,,,,,,,,,,,,,,,,,space,47.5630425704,2017_Jul_10_1038,60.0081992642,FEMA4ImagesEEG,001,100905,
AFNE01.JPG,AFNE01.JPG,AFNE01.JPG,AFNE01.JPG,AFNE01.JPG,AFNE01.JPG,,,,,,,,,,,,,,,,,,,,,0,0,0,1,,,AMSA01.jpg,AMSA18.jpg,AMNE14.jpg,AMNE03.jpg,AMSA01.jpg,MS,2,num_8,16,num_8,1.43305627885,,,2017_Jul_10_1038,60.0081992642,FEMA4ImagesEEG,001,100905,
AFNE01.JPG,AFNE01.JPG,AFNE01.JPG,AFNE01.JPG,AFNE01.JPG,AFNE01.JPG,,,,,,,,,,,,,,,,,,,,,0,1,1,2,,,AMNE05.jpg,AMNE07.jpg,AMSA16.jpg,AMSA03.jpg,AMSA03.jpg,MS,2,num_4,16,num_4,0.583489372861,,,2017_Jul_10_1038,60.0081992642,FEMA4ImagesEEG,001,100905,
AFNE01.JPG,AFNE01.JPG,AFNE01.JPG,AFNE01.JPG,AFNE01.JPG,AFNE01.JPG,,,,,,,,,,,,,,,,,,,,,0,2,2,3,,,AMNE08.jpg,AMSA19.jpg,AMSA15.jpg,AMNE15.jpg,AMSA15.jpg,MS,2,num_2,32,num_8,0.633483310929,,,2017_Jul_10_1038,60.0081992642,FEMA4ImagesEEG,001,100905,
AFNE01.JPG,AFNE01.JPG,AFNE01.JPG,AFNE01.JPG,AFNE01.JPG,AFNE01.JPG,,,,,,,,,,,,,,,,,,,,,0,3,3,4,,,AMNE08.jpg,AMSA12.jpg,AMNE12.jpg,AMSA02.jpg,AMSA02.jpg,MS,2,num_4,16,num_4,0.700138687622,,,2017_Jul_10_1038,60.0081992642,FEMA4ImagesEEG,001,100905,
AFNE01.JPG,AFNE01.JPG,AFNE01.JPG,AFNE01.JPG,AFNE01.JPG,AFNE01.JPG,,,,,,,,,,,,,,,,,,,,,0,4,4,8,,,AMSA08.jpg,AMNE18.jpg,AMSA02.jpg,AMNE14.jpg,AMSA02.jpg,MS,2,num_2,32,num_6,0.900129514514,,,2017_Jul_10_1038,60.0081992642,FEMA4ImagesEEG,001,100905,
AFNE01.JPG,AFNE01.JPG,AFNE01.JPG,AFNE01.JPG,AFNE01.JPG,AFNE01.JPG,,,,,,,,,,,,,,,,,,,,,0,5,5,0,,,AMSA06.jpg,AMNE06.jpg,AMSA18.jpg,AMNE07.jpg,AMSA06.jpg,MS,2,num_8,16,num_8,1.50008467515,,,2017_Jul_10_1038,60.0081992642,FEMA4ImagesEEG,001,100905,
AFNE01.JPG,AFNE01.JPG,AFNE01.JPG,AFNE01.JPG,AFNE01.JPG,AFNE01.JPG,,,,,,,,,,,,,,,,,,,,,0,6,6,6,,,AMNE20.jpg,AMNE05.jpg,AMSA07.jpg,AMSA01.jpg,AMNE05.jpg,MN,1,num_6,32,num_8,1.33344046026,,,2017_Jul_10_1038,60.0081992642,FEMA4ImagesEEG,001,100905,
AFNE01.JPG,AFNE01.JPG,AFNE01.JPG,AFNE01.JPG,AFNE01.JPG,AFNE01.JPG,,,,,,,,,,,,,,,,,,,,,0,7,7,9,,,AMSA18.jpg,AMSA20.jpg,AMNE04.jpg,AMNE19.jpg,AMNE04.jpg,MN,1,num_2,16,num_2,1.05010940414,,,2017_Jul_10_1038,60.0081992642,FEMA4ImagesEEG,001,100905,
AFNE01.JPG,AFNE01.JPG,AFNE01.JPG,AFNE01.JPG,AFNE01.JPG,AFNE01.JPG,,,,,,,,,,,,,,,,,,,,,0,8,8,5,,,AMNE08.jpg,AMSA17.jpg,AMSA09.jpg,AMNE10.jpg,AMNE08.jpg,MN,1,num_8,16,num_8,0.733427566476,,,2017_Jul_10_1038,60.0081992642,FEMA4ImagesEEG,001,100905,
AFNE01.JPG,AFNE01.JPG,AFNE01.JPG,AFNE01.JPG,AFNE01.JPG,AFNE01.JPG,,,,,,,,,,,,,,,,,,,,,0,9,9,7,,,AMSA03.jpg,AMNE08.jpg,AMNE05.jpg,AMSA06.jpg,AMNE08.jpg,MN,1,num_6,16,num_6,1.03341781604,,,2017_Jul_10_1038,60.0081992642,FEMA4ImagesEEG,001,100905,
AFNE01.JPG,AFNE01.JPG,AFNE01.JPG,AFNE01.JPG,AFNE01.JPG,AFNE01.JPG,,,,,,,,,,,,,,,,,,,,,1,0,10,4,,,AMSA12.jpg,AMNE15.jpg,AMNE05.jpg,AMSA15.jpg,AMSA12.jpg,MS,2,num_8,32,num_2,0.800146770198,,,2017_Jul_10_1038,60.0081992642,FEMA4ImagesEEG,001,100905,
AFNE01.JPG,AFNE01.JPG,AFNE01.JPG,AFNE01.JPG,AFNE01.JPG,AFNE01.JPG,,,,,,,,,,,,,,,,,,,,,1,1,11,8,,,AMSA06.jpg,AMNE09.jpg,AMSA08.jpg,AMNE04.jpg,AMNE04.jpg,MN,1,num_4,16,num_4,0.683431704063,,,2017_Jul_10_1038,60.0081992642,FEMA4ImagesEEG,001,100905,
AFNE01.JPG,AFNE01.JPG,AFNE01.JPG,AFNE01.JPG,AFNE01.JPG,AFNE01.JPG,,,,,,,,,,,,,,,,,,,,,1,2,12,7,,,AMNE09.jpg,AMSA04.jpg,AMNE13.jpg,AMSA06.jpg,AMNE13.jpg,MN,1,num_2,32,num_8,1.35013718018,,,2017_Jul_10_1038,60.0081992642,FEMA4ImagesEEG,001,100905,
AFNE01.JPG,AFNE01.JPG,AFNE01.JPG,AFNE01.JPG,AFNE01.JPG,AFNE01.JPG,,,,,,,,,,,,,,,,,,,,,1,3,13,5,,,AMNE12.jpg,AMSA18.jpg,AMSA01.jpg,AMNE19.jpg,AMNE12.jpg,MN,1,num_8,32,num_4,1.41675470956,,,2017_Jul_10_1038,60.0081992642,FEMA4ImagesEEG,001,100905,
AFNE01.JPG,AFNE01.JPG,AFNE01.JPG,AFNE01.JPG,AFNE01.JPG,AFNE01.JPG,,,,,,,,,,,,,,,,,,,,,1,4,14,2,,,AMSA17.jpg,AMSA06.jpg,AMNE13.jpg,AMNE16.jpg,AMNE16.jpg,MN,1,num_4,16,num_4,0.866907349322,,,2017_Jul_10_1038,60.0081992642,FEMA4ImagesEEG,001,100905,
AFNE01.JPG,AFNE01.JPG,AFNE01.JPG,AFNE01.JPG,AFNE01.JPG,AFNE01.JPG,,,,,,,,,,,,,,,,,,,,,1,5,15,1,,,AMNE20.jpg,AMSA19.jpg,AMNE07.jpg,AMSA03.jpg,AMNE20.jpg,MN,1,num_8,16,num_8,0.866617721971,,,2017_Jul_10_1038,60.0081992642,FEMA4ImagesEEG,001,100905,
AFNE01.JPG,AFNE01.JPG,AFNE01.JPG,AFNE01.JPG,AFNE01.JPG,AFNE01.JPG,,,,,,,,,,,,,,,,,,,,,1,6,16,6,,,AMSA14.jpg,AMNE15.jpg,AMNE18.jpg,AMSA19.jpg,AMNE15.jpg,MN,1,num_6,32,num_2,2.01665181643,,,2017_Jul_10_1038,60.0081992642,FEMA4ImagesEEG,001,100905,
AFNE01.JPG,AFNE01.JPG,AFNE01.JPG,AFNE01.JPG,AFNE01.JPG,AFNE01.JPG,,,,,,,,,,,,,,,,,,,,,1,7,17,9,,,AMNE14.jpg,AMSA02.jpg,AMSA15.jpg,AMNE13.jpg,AMNE13.jpg,MN,1,num_4,16,num_4,0.750136795221,,,2017_Jul_10_1038,60.0081992642,FEMA4ImagesEEG,001,100905,
AFNE01.JPG,AFNE01.JPG,AFNE01.JPG,AFNE01.JPG,AFNE01.JPG,AFNE01.JPG,,,,,,,,,,,,,,,,,,,,,1,8,18,3,,,AMSA02.jpg,AMSA12.jpg,AMNE04.jpg,AMNE12.jpg,AMSA02.jpg,MS,2,num_8,32,num_2,1.61683823029,,,2017_Jul_10_1038,60.0081992642,FEMA4ImagesEEG,001,100905,
AFNE01.JPG,AFNE01.JPG,AFNE01.JPG,AFNE01.JPG,AFNE01.JPG,AFNE01.JPG,,,,,,,,,,,,,,,,,,,,,1,9,19,0,,,AMNE11.jpg,AMSA07.jpg,AMSA05.jpg,AMNE05.jpg,AMSA07.jpg,MS,2,num_6,32,num_8,1.35007367376,,,2017_Jul_10_1038,60.0081992642,FEMA4ImagesEEG,001,100905,
AFNE01.JPG,AFNE01.JPG,AFNE01.JPG,AFNE01.JPG,AFNE01.JPG,AFNE01.JPG,,,,,,,,,,,,,,,,,,,,,2,0,20,7,,,AMSA08.jpg,AMNE19.jpg,AMSA16.jpg,AMNE05.jpg,AMSA08.jpg,MS,2,num_8,32,num_2,1.08343035681,,,2017_Jul_10_1038,60.0081992642,FEMA4ImagesEEG,001,100905,
AFNE01.JPG,AFNE01.JPG,AFNE01.JPG,AFNE01.JPG,AFNE01.JPG,AFNE01.JPG,,,,,,,,,,,,,,,,,,,,,2,1,21,5,,,AMNE10.jpg,AMSA06.jpg,AMSA18.jpg,AMNE17.jpg,AMSA06.jpg,MS,2,num_6,32,num_8,0.849965264089,,,2017_Jul_10_1038,60.0081992642,FEMA4ImagesEEG,001,100905,
AFNE01.JPG,AFNE01.JPG,AFNE01.JPG,AFNE01.JPG,AFNE01.JPG,AFNE01.JPG,,,,,,,,,,,,,,,,,,,,,2,2,22,3,,,AMSA01.jpg,AMNE11.jpg,AMSA03.jpg,AMNE04.jpg,AMNE04.jpg,MN,1,num_4,16,num_4,0.783477313118,,,2017_Jul_10_1038,60.0081992642,FEMA4ImagesEEG,001,100905,
AFNE01.JPG,AFNE01.JPG,AFNE01.JPG,AFNE01.JPG,AFNE01.JPG,AFNE01.JPG,,,,,,,,,,,,,,,,,,,,,2,3,23,4,,,AMSA03.jpg,AMNE05.jpg,AMSA08.jpg,AMNE18.jpg,AMNE05.jpg,MN,1,num_6,32,num_8,0.633495819755,,,2017_Jul_10_1038,60.0081992642,FEMA4ImagesEEG,001,100905,
AFNE01.JPG,AFNE01.JPG,AFNE01.JPG,AFNE01.JPG,AFNE01.JPG,AFNE01.JPG,,,,,,,,,,,,,,,,,,,,,2,4,24,0,,,AMNE15.jpg,AMSA04.jpg,AMSA08.jpg,AMNE01.jpg,AMSA08.jpg,MS,2,num_2,16,num_2,0.750140002463,,,2017_Jul_10_1038,60.0081992642,FEMA4ImagesEEG,001,100905,
AFNE01.JPG,AFNE01.JPG,AFNE01.JPG,AFNE01.JPG,AFNE01.JPG,AFNE01.JPG,,,,,,,,,,,,,,,,,,,,,2,5,25,2,,,AMNE20.jpg,AMNE01.jpg,AMSA15.jpg,AMSA16.jpg,AMNE01.jpg,MN,1,num_6,16,num_6,0.866806316422,,,2017_Jul_10_1038,60.0081992642,FEMA4ImagesEEG,001,100905,
AFNE01.JPG,AFNE01.JPG,AFNE01.JPG,AFNE01.JPG,AFNE01.JPG,AFNE01.JPG,,,,,,,,,,,,,,,,,,,,,2,6,26,1,,,AMSA04.jpg,AMNE12.jpg,AMNE08.jpg,AMSA17.jpg,AMNE08.jpg,MN,1,num_2,32,num_8,0.916749898577,,,2017_Jul_10_1038,60.0081992642,FEMA4ImagesEEG,001,100905,
AFNE01.JPG,AFNE01.JPG,AFNE01.JPG,AFNE01.JPG,AFNE01.JPG,AFNE01.JPG,,,,,,,,,,,,,,,,,,,,,2,7,27,9,,,AMNE19.jpg,AMSA19.jpg,AMNE18.jpg,AMSA11.jpg,AMSA11.jpg,MS,2,num_4,32,num_2,0.899956956739,,,2017_Jul_10_1038,60.0081992642,FEMA4ImagesEEG,001,100905,
AFNE01.JPG,AFNE01.JPG,AFNE01.JPG,AFNE01.JPG,AFNE01.JPG,AFNE01.JPG,,,,,,,,,,,,,,,,,,,,,2,8,28,6,,,AMSA04.jpg,AMNE09.jpg,AMNE02.jpg,AMSA01.jpg,AMNE02.jpg,MN,1,num_2,32,num_8,0.866630551638,,,2017_Jul_10_1038,60.0081992642,FEMA4ImagesEEG,001,100905,
AFNE01.JPG,AFNE01.JPG,AFNE01.JPG,AFNE01.JPG,AFNE01.JPG,AFNE01.JPG,,,,,,,,,,,,,,,,,,,,,2,9,29,8,,,AMNE06.jpg,AMSA05.jpg,AMNE16.jpg,AMSA06.jpg,AMNE16.jpg,MN,1,num_2,32,num_6,2.46662035189,,,2017_Jul_10_1038,60.0081992642,FEMA4ImagesEEG,001,100905,
AFNE01.JPG,AFNE01.JPG,AFNE01.JPG,AFNE01.JPG,AFNE01.JPG,AFNE01.JPG,,,,,,,,,,,,,,,,,,,,,3,0,30,1,,,AMSA03.jpg,AMNE10.jpg,AMSA19.jpg,AMNE02.jpg,AMSA19.jpg,MS,2,num_2,32,num_8,1.41668671276,,,2017_Jul_10_1038,60.0081992642,FEMA4ImagesEEG,001,100905,
AFNE01.JPG,AFNE01.JPG,AFNE01.JPG,AFNE01.JPG,AFNE01.JPG,AFNE01.JPG,,,,,,,,,,,,,,,,,,,,,3,1,31,3,,,AMSA10.jpg,AMNE10.jpg,AMNE03.jpg,AMSA19.jpg,AMNE03.jpg,MN,1,num_2,16,num_2,0.650111713447,,,2017_Jul_10_1038,60.0081992642,FEMA4ImagesEEG,001,100905,
AFNE01.JPG,AFNE01.JPG,AFNE01.JPG,AFNE01.JPG,AFNE01.JPG,AFNE01.JPG,,,,,,,,,,,,,,,,,,,,,3,2,32,6,,,AMSA05.jpg,AMNE16.jpg,AMSA06.jpg,AMNE17.jpg,AMSA05.jpg,MS,2,num_8,16,num_8,0.816732514417,,,2017_Jul_10_1038,60.0081992642,FEMA4ImagesEEG,001,100905,
AFNE01.JPG,AFNE01.JPG,AFNE01.JPG,AFNE01.JPG,AFNE01.JPG,AFNE01.JPG,,,,,,,,,,,,,,,,,,,,,3,3,33,2,,,AMNE06.jpg,AMSA15.jpg,AMSA05.jpg,AMNE17.jpg,AMSA05.jpg,MS,2,num_2,16,num_2,0.85009676707,,,2017_Jul_10_1038,60.0081992642,FEMA4ImagesEEG,001,100905,
AFNE01.JPG,AFNE01.JPG,AFNE01.JPG,AFNE01.JPG,AFNE01.JPG,AFNE01.JPG,,,,,,,,,,,,,,,,,,,,,3,4,34,7,,,AMSA01.jpg,AMNE05.jpg,AMNE11.jpg,AMSA14.jpg,AMSA01.jpg,MS,2,num_8,32,num_2,1.36674569687,,,2017_Jul_10_1038,60.0081992642,FEMA4ImagesEEG,001,100905,
AFNE01.JPG,AFNE01.JPG,AFNE01.JPG,AFNE01.JPG,AFNE01.JPG,AFNE01.JPG,,,,,,,,,,,,,,,,,,,,,3,5,35,5,,,AMSA19.jpg,AMNE04.jpg,AMSA10.jpg,AMNE09.jpg,AMNE09.jpg,MN,1,num_4,32,num_8,0.733578314073,,,2017_Jul_10_1038,60.0081992642,FEMA4ImagesEEG,001,100905,
AFNE01.JPG,AFNE01.JPG,AFNE01.JPG,AFNE01.JPG,AFNE01.JPG,AFNE01.JPG,,,,,,,,,,,,,,,,,,,,,3,6,36,9,,,AMSA10.jpg,AMNE03.jpg,AMSA04.jpg,AMNE16.jpg,AMNE03.jpg,MN,1,num_6,16,num_6,0.716929384274,,,2017_Jul_10_1038,60.0081992642,FEMA4ImagesEEG,001,100905,
AFNE01.JPG,AFNE01.JPG,AFNE01.JPG,AFNE01.JPG,AFNE01.JPG,AFNE01.JPG,,,,,,,,,,,,,,,,,,,,,3,7,37,0,,,AMNE09.jpg,AMSA13.jpg,AMNE10.jpg,AMSA07.jpg,AMNE10.jpg,MN,1,num_2,32,num_8,1.68342913804,,,2017_Jul_10_1038,60.0081992642,FEMA4ImagesEEG,001,100905,
AFNE01.JPG,AFNE01.JPG,AFNE01.JPG,AFNE01.JPG,AFNE01.JPG,AFNE01.JPG,,,,,,,,,,,,,,,,,,,,,3,8,38,4,,,AMSA10.jpg,AMSA15.jpg,AMNE04.jpg,AMNE11.jpg,AMSA15.jpg,MS,2,num_6,16,num_6,0.733430132503,,,2017_Jul_10_1038,60.0081992642,FEMA4ImagesEEG,001,100905,
AFNE01.JPG,AFNE01.JPG,AFNE01.JPG,AFNE01.JPG,AFNE01.JPG,AFNE01.JPG,,,,,,,,,,,,,,,,,,,,,3,9,39,8,,,AMSA16.jpg,AMSA14.jpg,AMNE01.jpg,AMNE19.jpg,AMNE19.jpg,MN,1,num_4,16,num_4,0.800125922076,,,2017_Jul_10_1038,60.0081992642,FEMA4ImagesEEG,001,100905,
