IPosition2,IPosition3,IPosition1,IPosition6,IPosition4,IPosition5,TrialsF1.thisRepN,TrialsF1.thisTrialN,TrialsF1.thisN,TrialsF1.thisIndex,TrialsM1.thisRepN,TrialsM1.thisTrialN,TrialsM1.thisN,TrialsM1.thisIndex,TrialsF2.thisRepN,TrialsF2.thisTrialN,TrialsF2.thisN,TrialsF2.thisIndex,TrialsM2.thisRepN,TrialsM2.thisTrialN,TrialsM2.thisN,TrialsM2.thisIndex,TrialsF3.thisRepN,TrialsF3.thisTrialN,TrialsF3.thisN,TrialsF3.thisIndex,TrialsM3.thisRepN,TrialsM3.thisTrialN,TrialsM3.thisN,TrialsM3.thisIndex,InstrKey_resp.keys,InstrKey_resp.rt,Image0 _Position,Image1 _Position,Image2 _Position,Image3 _Position,Center_image,condition,code,correct_answer,accuracy,Key_Resp.keys,Key_Resp.rt,BreakKey_resp.keys,BreakKey_resp.rt,date,frameRate,expName,session,participant,
,,,,,,,,,,,,,,,,,,,,,,,,,,,,,,space,13.9656865811,,,,,,,,,,,,,,2017_Jul_17_1639,59.9799732593,FEMA4ImagesEEG,001,100989,
AMSA21.JPG,AMNE22.JPG,AMNE21.JPG,AMSA23.JPG,AMSA22.JPG,AMNE23.JPG,0,0,0,1,,,,,,,,,,,,,,,,,,,,,,,AFSA19.jpg,AFSA01.jpg,AFNE04.jpg,AFNE07.jpg,AFNE07.jpg,FN,3,num_4,16,num_4,0.734162254084,,,2017_Jul_17_1639,59.9799732593,FEMA4ImagesEEG,001,100989,
AFNE23.JPG,AFNE24.JPG,AFNE22.JPG,AFSA24.JPG,AFSA22.JPG,AFSA23.JPG,0,1,1,8,,,,,,,,,,,,,,,,,,,,,,,AFNE04.jpg,AFNE14.jpg,AFSA18.jpg,AFSA04.jpg,AFSA18.jpg,FS,4,num_2,16,num_2,0.565635775863,,,2017_Jul_17_1639,59.9799732593,FEMA4ImagesEEG,001,100989,
AMNE22.JPG,AMSA24.JPG,AMSA22.JPG,AMNE25.JPG,AMNE24.JPG,AMSA25.JPG,0,2,2,7,,,,,,,,,,,,,,,,,,,,,,,AFSA17.jpg,AFSA08.jpg,AFNE11.jpg,AFNE16.jpg,AFNE16.jpg,FN,3,num_4,16,num_4,0.698666907861,,,2017_Jul_17_1639,59.9799732593,FEMA4ImagesEEG,001,100989,
AMSA25.JPG,AMNE24.JPG,AMSA24.JPG,AMNE26.JPG,AMSA21.JPG,AMNE25.JPG,0,3,3,3,,,,,,,,,,,,,,,,,,,,,,,AFNE01.jpg,AFSA15.jpg,AFSA11.jpg,AFNE04.jpg,AFSA11.jpg,FS,4,num_2,16,num_2,1.00081435915,,,2017_Jul_17_1639,59.9799732593,FEMA4ImagesEEG,001,100989,
AMNE23.JPG,AMNE24.JPG,AMNE22.JPG,AMSA24.JPG,AMSA22.JPG,AMSA23.JPG,0,4,4,9,,,,,,,,,,,,,,,,,,,,,,,AFNE18.jpg,AFNE13.jpg,AFSA15.jpg,AFSA08.jpg,AFNE13.jpg,FN,3,num_6,32,num_4,0.83352048519,,,2017_Jul_17_1639,59.9799732593,FEMA4ImagesEEG,001,100989,
AFNE22.JPG,AFSA24.JPG,AFSA22.JPG,AFNE25.JPG,AFNE24.JPG,AFSA25.JPG,0,5,5,6,,,,,,,,,,,,,,,,,,,,,,,AFSA13.jpg,AFNE12.jpg,AFNE14.jpg,AFSA19.jpg,AFSA19.jpg,FS,4,num_4,32,num_2,0.683564538842,,,2017_Jul_17_1639,59.9799732593,FEMA4ImagesEEG,001,100989,
AFSA21.JPG,AFNE22.JPG,AFNE21.JPG,AFSA23.JPG,AFSA22.JPG,AFNE23.JPG,0,6,6,0,,,,,,,,,,,,,,,,,,,,,,,AFNE07.jpg,AFSA12.jpg,AFNE08.jpg,AFSA09.jpg,AFSA09.jpg,FS,4,num_4,32,num_2,0.733438664385,,,2017_Jul_17_1639,59.9799732593,FEMA4ImagesEEG,001,100989,
AFSA25.JPG,AFNE24.JPG,AFSA24.JPG,AFNE21.JPG,AFSA21.JPG,AFNE25.JPG,0,7,7,2,,,,,,,,,,,,,,,,,,,,,,,AFSA01.jpg,AFSA15.jpg,AFNE06.jpg,AFNE05.jpg,AFNE05.jpg,FN,3,num_4,16,num_4,0.632857130484,,,2017_Jul_17_1639,59.9799732593,FEMA4ImagesEEG,001,100989,
AFSA21.JPG,AFNE23.JPG,AFNE21.JPG,AFSA25.JPG,AFNE25.JPG,AFSA23.JPG,0,8,8,4,,,,,,,,,,,,,,,,,,,,,,,AFNE02.jpg,AFSA13.jpg,AFNE03.jpg,AFSA06.jpg,AFSA13.jpg,FS,4,num_6,16,num_6,0.684436631214,,,2017_Jul_17_1639,59.9799732593,FEMA4ImagesEEG,001,100989,
AMSA21.JPG,AMNE23.JPG,AMNE21.JPG,AMSA25.JPG,AMNE25.JPG,AMSA23.JPG,0,9,9,5,,,,,,,,,,,,,,,,,,,,,,,AFSA19.jpg,AFNE03.jpg,AFSA02.jpg,AFNE01.jpg,AFNE03.jpg,FN,3,num_6,32,num_4,1.20027141029,,,2017_Jul_17_1639,59.9799732593,FEMA4ImagesEEG,001,100989,
AFNE23.JPG,AFNE24.JPG,AFNE22.JPG,AFSA24.JPG,AFSA22.JPG,AFSA23.JPG,,,,,0,0,0,8,,,,,,,,,,,,,,,,,,,AMNE17.jpg,AMNE08.jpg,AMSA05.jpg,AMSA14.jpg,AMNE17.jpg,MN,1,num_8,32,num_6,0.685450490717,,,2017_Jul_17_1639,59.9799732593,FEMA4ImagesEEG,001,100989,
AMSA21.JPG,AMNE22.JPG,AMNE21.JPG,AMSA23.JPG,AMSA22.JPG,AMNE23.JPG,,,,,0,1,1,1,,,,,,,,,,,,,,,,,,,AMSA14.jpg,AMSA13.jpg,AMNE14.jpg,AMNE17.jpg,AMSA14.jpg,MS,2,num_8,16,num_8,1.28430788613,,,2017_Jul_17_1639,59.9799732593,FEMA4ImagesEEG,001,100989,
AFNE22.JPG,AFSA24.JPG,AFSA22.JPG,AFNE25.JPG,AFNE24.JPG,AFSA25.JPG,,,,,0,2,2,6,,,,,,,,,,,,,,,,,,,AMNE15.jpg,AMNE14.jpg,AMSA14.jpg,AMSA09.jpg,AMNE14.jpg,MN,1,num_6,16,num_6,1.00088524271,,,2017_Jul_17_1639,59.9799732593,FEMA4ImagesEEG,001,100989,
AFSA25.JPG,AFNE24.JPG,AFSA24.JPG,AFNE21.JPG,AFSA21.JPG,AFNE25.JPG,,,,,0,3,3,2,,,,,,,,,,,,,,,,,,,AMNE16.jpg,AMNE15.jpg,AMSA12.jpg,AMSA20.jpg,AMSA12.jpg,MS,2,num_2,32,num_8,1.16558336693,,,2017_Jul_17_1639,59.9799732593,FEMA4ImagesEEG,001,100989,
AFSA21.JPG,AFNE22.JPG,AFNE21.JPG,AFSA23.JPG,AFSA22.JPG,AFNE23.JPG,,,,,0,4,4,0,,,,,,,,,,,,,,,,,,,AMNE04.jpg,AMSA03.jpg,AMSA07.jpg,AMNE10.jpg,AMNE10.jpg,MN,1,num_4,16,num_4,1.20015915125,,,2017_Jul_17_1639,59.9799732593,FEMA4ImagesEEG,001,100989,
AFSA21.JPG,AFNE23.JPG,AFNE21.JPG,AFSA25.JPG,AFNE25.JPG,AFSA23.JPG,,,,,0,5,5,4,,,,,,,,,,,,,,,,,,,AMNE15.jpg,AMSA03.jpg,AMNE06.jpg,AMSA14.jpg,AMSA03.jpg,MS,2,num_6,16,num_6,0.566823476507,,,2017_Jul_17_1639,59.9799732593,FEMA4ImagesEEG,001,100989,
AMSA25.JPG,AMNE24.JPG,AMSA24.JPG,AMNE26.JPG,AMSA21.JPG,AMNE25.JPG,,,,,0,6,6,3,,,,,,,,,,,,,,,,,,,AMSA05.jpg,AMSA19.jpg,AMNE01.jpg,AMNE07.jpg,AMNE07.jpg,MN,1,num_4,16,num_4,0.517028894516,,,2017_Jul_17_1639,59.9799732593,FEMA4ImagesEEG,001,100989,
AMNE22.JPG,AMSA24.JPG,AMSA22.JPG,AMNE25.JPG,AMNE24.JPG,AMSA25.JPG,,,,,0,7,7,7,,,,,,,,,,,,,,,,,,,AMNE03.jpg,AMNE04.jpg,AMSA08.jpg,AMSA18.jpg,AMNE03.jpg,MN,1,num_8,32,num_6,0.701016008461,,,2017_Jul_17_1639,59.9799732593,FEMA4ImagesEEG,001,100989,
AMNE23.JPG,AMNE24.JPG,AMNE22.JPG,AMSA24.JPG,AMSA22.JPG,AMSA23.JPG,,,,,0,8,8,9,,,,,,,,,,,,,,,,,,,AMNE14.jpg,AMSA11.jpg,AMNE03.jpg,AMSA02.jpg,AMNE14.jpg,MN,1,num_8,16,num_8,0.784487340228,,,2017_Jul_17_1639,59.9799732593,FEMA4ImagesEEG,001,100989,
AMSA21.JPG,AMNE23.JPG,AMNE21.JPG,AMSA25.JPG,AMNE25.JPG,AMSA23.JPG,,,,,0,9,9,5,,,,,,,,,,,,,,,,,,,AMNE05.jpg,AMNE12.jpg,AMSA16.jpg,AMSA03.jpg,AMSA16.jpg,MS,2,num_2,16,num_2,0.75011939551,,,2017_Jul_17_1639,59.9799732593,FEMA4ImagesEEG,001,100989,
AMNE22.JPG,AMSA24.JPG,AMSA22.JPG,AMNE25.JPG,AMNE24.JPG,AMSA25.JPG,,,,,,,,,0,0,0,7,,,,,,,,,,,,,,,AFSA05.jpg,AFNE11.jpg,AFNE12.jpg,AFSA06.jpg,AFNE12.jpg,FN,3,num_2,16,num_2,0.866212242072,,,2017_Jul_17_1639,59.9799732593,FEMA4ImagesEEG,001,100989,
AFSA25.JPG,AFNE24.JPG,AFSA24.JPG,AFNE21.JPG,AFSA21.JPG,AFNE25.JPG,,,,,,,,,0,1,1,2,,,,,,,,,,,,,,,AFSA11.jpg,AFSA04.jpg,AFNE01.jpg,AFNE06.jpg,AFSA04.jpg,FS,4,num_6,32,num_4,0.667043215562,,,2017_Jul_17_1639,59.9799732593,FEMA4ImagesEEG,001,100989,
AMSA25.JPG,AMNE24.JPG,AMSA24.JPG,AMNE26.JPG,AMSA21.JPG,AMNE25.JPG,,,,,,,,,0,2,2,3,,,,,,,,,,,,,,,AFSA19.jpg,AFNE15.jpg,AFSA04.jpg,AFNE16.jpg,AFNE16.jpg,FN,3,num_4,32,num_6,0.733432891066,,,2017_Jul_17_1639,59.9799732593,FEMA4ImagesEEG,001,100989,
AMNE23.JPG,AMNE24.JPG,AMNE22.JPG,AMSA24.JPG,AMSA22.JPG,AMSA23.JPG,,,,,,,,,0,3,3,9,,,,,,,,,,,,,,,AFSA16.jpg,AFNE15.jpg,AFSA07.jpg,AFNE16.jpg,AFSA07.jpg,FS,4,num_2,32,num_4,0.64996669114,,,2017_Jul_17_1639,59.9799732593,FEMA4ImagesEEG,001,100989,
AFSA21.JPG,AFNE22.JPG,AFNE21.JPG,AFSA23.JPG,AFSA22.JPG,AFNE23.JPG,,,,,,,,,0,4,4,0,,,,,,,,,,,,,,,AFSA09.jpg,AFNE07.jpg,AFSA07.jpg,AFNE14.jpg,AFSA07.jpg,FS,4,num_2,32,num_6,0.44859161412,,,2017_Jul_17_1639,59.9799732593,FEMA4ImagesEEG,001,100989,
AMSA21.JPG,AMNE23.JPG,AMNE21.JPG,AMSA25.JPG,AMNE25.JPG,AMSA23.JPG,,,,,,,,,0,5,5,5,,,,,,,,,,,,,,,AFSA08.jpg,AFNE19.jpg,AFNE17.jpg,AFSA09.jpg,AFSA08.jpg,FS,4,num_8,16,num_8,0.784619485155,,,2017_Jul_17_1639,59.9799732593,FEMA4ImagesEEG,001,100989,
AFNE22.JPG,AFSA24.JPG,AFSA22.JPG,AFNE25.JPG,AFNE24.JPG,AFSA25.JPG,,,,,,,,,0,6,6,6,,,,,,,,,,,,,,,AFSA03.jpg,AFNE08.jpg,AFNE10.jpg,AFSA13.jpg,AFNE10.jpg,FN,3,num_2,32,num_6,0.699319934738,,,2017_Jul_17_1639,59.9799732593,FEMA4ImagesEEG,001,100989,
AFSA21.JPG,AFNE23.JPG,AFNE21.JPG,AFSA25.JPG,AFNE25.JPG,AFSA23.JPG,,,,,,,,,0,7,7,4,,,,,,,,,,,,,,,AFSA12.jpg,AFSA09.jpg,AFNE04.jpg,AFNE02.jpg,AFNE02.jpg,FN,3,num_4,16,num_4,0.984097384397,,,2017_Jul_17_1639,59.9799732593,FEMA4ImagesEEG,001,100989,
AMSA21.JPG,AMNE22.JPG,AMNE21.JPG,AMSA23.JPG,AMSA22.JPG,AMNE23.JPG,,,,,,,,,0,8,8,1,,,,,,,,,,,,,,,AFSA09.jpg,AFSA19.jpg,AFNE12.jpg,AFNE18.jpg,AFSA19.jpg,FS,4,num_6,16,num_6,0.583822381821,,,2017_Jul_17_1639,59.9799732593,FEMA4ImagesEEG,001,100989,
AFNE23.JPG,AFNE24.JPG,AFNE22.JPG,AFSA24.JPG,AFSA22.JPG,AFSA23.JPG,,,,,,,,,0,9,9,8,,,,,,,,,,,,,,,AFSA06.jpg,AFSA13.jpg,AFNE17.jpg,AFNE14.jpg,AFNE17.jpg,FN,3,num_2,16,num_2,1.01613579367,,,2017_Jul_17_1639,59.9799732593,FEMA4ImagesEEG,001,100989,
AMNE23.JPG,AMNE24.JPG,AMNE22.JPG,AMSA24.JPG,AMSA22.JPG,AMSA23.JPG,,,,,,,,,,,,,0,0,0,9,,,,,,,,,,,AMNE18.jpg,AMNE06.jpg,AMSA10.jpg,AMSA14.jpg,AMNE06.jpg,MN,1,num_6,16,num_6,1.14996973817,,,2017_Jul_17_1639,59.9799732593,FEMA4ImagesEEG,001,100989,
AFSA25.JPG,AFNE24.JPG,AFSA24.JPG,AFNE21.JPG,AFSA21.JPG,AFNE25.JPG,,,,,,,,,,,,,0,1,1,2,,,,,,,,,,,AMNE02.jpg,AMSA16.jpg,AMNE13.jpg,AMSA18.jpg,AMNE13.jpg,MN,1,num_2,32,num_6,0.467103129817,,,2017_Jul_17_1639,59.9799732593,FEMA4ImagesEEG,001,100989,
AFSA21.JPG,AFNE22.JPG,AFNE21.JPG,AFSA23.JPG,AFSA22.JPG,AFNE23.JPG,,,,,,,,,,,,,0,2,2,0,,,,,,,,,,,AMNE08.jpg,AMNE09.jpg,AMSA07.jpg,AMSA16.jpg,AMSA16.jpg,MS,2,num_4,32,num_2,1.26721532471,,,2017_Jul_17_1639,59.9799732593,FEMA4ImagesEEG,001,100989,
AFNE22.JPG,AFSA24.JPG,AFSA22.JPG,AFNE25.JPG,AFNE24.JPG,AFSA25.JPG,,,,,,,,,,,,,0,3,3,6,,,,,,,,,,,AMSA20.jpg,AMNE07.jpg,AMSA10.jpg,AMNE17.jpg,AMNE17.jpg,MN,1,num_4,32,num_8,1.18314003931,,,2017_Jul_17_1639,59.9799732593,FEMA4ImagesEEG,001,100989,
AFNE23.JPG,AFNE24.JPG,AFNE22.JPG,AFSA24.JPG,AFSA22.JPG,AFSA23.JPG,,,,,,,,,,,,,0,4,4,8,,,,,,,,,,,AMNE20.jpg,AMSA12.jpg,AMNE14.jpg,AMSA14.jpg,AMSA14.jpg,MS,2,num_4,16,num_4,1.01694790764,,,2017_Jul_17_1639,59.9799732593,FEMA4ImagesEEG,001,100989,
AMNE22.JPG,AMSA24.JPG,AMSA22.JPG,AMNE25.JPG,AMNE24.JPG,AMSA25.JPG,,,,,,,,,,,,,0,5,5,7,,,,,,,,,,,AMNE02.jpg,AMSA11.jpg,AMSA19.jpg,AMNE15.jpg,AMNE15.jpg,MN,1,num_4,16,num_4,1.08451854824,,,2017_Jul_17_1639,59.9799732593,FEMA4ImagesEEG,001,100989,
AFSA21.JPG,AFNE23.JPG,AFNE21.JPG,AFSA25.JPG,AFNE25.JPG,AFSA23.JPG,,,,,,,,,,,,,0,6,6,4,,,,,,,,,,,AMSA13.jpg,AMNE06.jpg,AMSA11.jpg,AMNE03.jpg,AMNE06.jpg,MN,1,num_6,16,num_6,0.916484726837,,,2017_Jul_17_1639,59.9799732593,FEMA4ImagesEEG,001,100989,
AMSA21.JPG,AMNE22.JPG,AMNE21.JPG,AMSA23.JPG,AMSA22.JPG,AMNE23.JPG,,,,,,,,,,,,,0,7,7,1,,,,,,,,,,,AMNE18.jpg,AMSA11.jpg,AMNE04.jpg,AMSA08.jpg,AMNE18.jpg,MN,1,num_8,32,num_4,0.93182027392,,,2017_Jul_17_1639,59.9799732593,FEMA4ImagesEEG,001,100989,
AMSA21.JPG,AMNE23.JPG,AMNE21.JPG,AMSA25.JPG,AMNE25.JPG,AMSA23.JPG,,,,,,,,,,,,,0,8,8,5,,,,,,,,,,,AMNE13.jpg,AMNE07.jpg,AMSA16.jpg,AMSA08.jpg,AMSA08.jpg,MS,2,num_4,32,num_6,0.985274500617,,,2017_Jul_17_1639,59.9799732593,FEMA4ImagesEEG,001,100989,
AMSA25.JPG,AMNE24.JPG,AMSA24.JPG,AMNE26.JPG,AMSA21.JPG,AMNE25.JPG,,,,,,,,,,,,,0,9,9,3,,,,,,,,,,,AMNE19.jpg,AMSA14.jpg,AMSA12.jpg,AMNE15.jpg,AMSA12.jpg,MS,2,num_2,32,num_4,0.766804296247,,,2017_Jul_17_1639,59.9799732593,FEMA4ImagesEEG,001,100989,
AFNE22.JPG,AFSA24.JPG,AFSA22.JPG,AFNE25.JPG,AFNE24.JPG,AFSA25.JPG,,,,,,,,,,,,,,,,,0,0,0,6,,,,,,,AFNE15.jpg,AFNE19.jpg,AFSA16.jpg,AFSA18.jpg,AFNE19.jpg,FN,3,num_6,32,num_8,0.850182934122,,,2017_Jul_17_1639,59.9799732593,FEMA4ImagesEEG,001,100989,
AFSA21.JPG,AFNE23.JPG,AFNE21.JPG,AFSA25.JPG,AFNE25.JPG,AFSA23.JPG,,,,,,,,,,,,,,,,,0,1,1,4,,,,,,,AFSA15.jpg,AFSA03.jpg,AFNE14.jpg,AFNE15.jpg,AFSA03.jpg,FS,4,num_6,32,num_2,1.65048500716,,,2017_Jul_17_1639,59.9799732593,FEMA4ImagesEEG,001,100989,
AFNE23.JPG,AFNE24.JPG,AFNE22.JPG,AFSA24.JPG,AFSA22.JPG,AFSA23.JPG,,,,,,,,,,,,,,,,,0,2,2,8,,,,,,,AFNE01.jpg,AFSA10.jpg,AFNE06.jpg,AFSA08.jpg,AFNE01.jpg,FN,3,num_8,32,num_6,1.33213376531,,,2017_Jul_17_1639,59.9799732593,FEMA4ImagesEEG,001,100989,
AMSA25.JPG,AMNE24.JPG,AMSA24.JPG,AMNE26.JPG,AMSA21.JPG,AMNE25.JPG,,,,,,,,,,,,,,,,,0,3,3,3,,,,,,,AFSA10.jpg,AFNE04.jpg,AFSA07.jpg,AFNE05.jpg,AFSA07.jpg,FS,4,num_2,16,num_2,0.614791764292,,,2017_Jul_17_1639,59.9799732593,FEMA4ImagesEEG,001,100989,
AMNE22.JPG,AMSA24.JPG,AMSA22.JPG,AMNE25.JPG,AMNE24.JPG,AMSA25.JPG,,,,,,,,,,,,,,,,,0,4,4,7,,,,,,,AFNE05.jpg,AFNE09.jpg,AFSA05.jpg,AFSA10.jpg,AFNE05.jpg,FN,3,num_8,32,num_6,2.20112040937,,,2017_Jul_17_1639,59.9799732593,FEMA4ImagesEEG,001,100989,
AFSA25.JPG,AFNE24.JPG,AFSA24.JPG,AFNE21.JPG,AFSA21.JPG,AFNE25.JPG,,,,,,,,,,,,,,,,,0,5,5,2,,,,,,,AFNE06.jpg,AFSA12.jpg,AFSA15.jpg,AFNE05.jpg,AFSA12.jpg,FS,4,num_6,16,num_6,0.550632836283,,,2017_Jul_17_1639,59.9799732593,FEMA4ImagesEEG,001,100989,
AMSA21.JPG,AMNE23.JPG,AMNE21.JPG,AMSA25.JPG,AMNE25.JPG,AMSA23.JPG,,,,,,,,,,,,,,,,,0,6,6,5,,,,,,,AFSA17.jpg,AFNE08.jpg,AFSA02.jpg,AFNE10.jpg,AFSA02.jpg,FS,4,num_2,16,num_2,0.70105225209,,,2017_Jul_17_1639,59.9799732593,FEMA4ImagesEEG,001,100989,
AMSA21.JPG,AMNE22.JPG,AMNE21.JPG,AMSA23.JPG,AMSA22.JPG,AMNE23.JPG,,,,,,,,,,,,,,,,,0,7,7,1,,,,,,,AFSA06.jpg,AFNE14.jpg,AFNE07.jpg,AFSA12.jpg,AFSA06.jpg,FS,4,num_8,32,num_6,0.433537035377,,,2017_Jul_17_1639,59.9799732593,FEMA4ImagesEEG,001,100989,
AFSA21.JPG,AFNE22.JPG,AFNE21.JPG,AFSA23.JPG,AFSA22.JPG,AFNE23.JPG,,,,,,,,,,,,,,,,,0,8,8,0,,,,,,,AFSA05.jpg,AFNE05.jpg,AFNE13.jpg,AFSA19.jpg,AFSA05.jpg,FS,4,num_8,16,num_8,0.685004982697,,,2017_Jul_17_1639,59.9799732593,FEMA4ImagesEEG,001,100989,
AMNE23.JPG,AMNE24.JPG,AMNE22.JPG,AMSA24.JPG,AMSA22.JPG,AMSA23.JPG,,,,,,,,,,,,,,,,,0,9,9,9,,,,,,,AFNE02.jpg,AFNE03.jpg,AFSA16.jpg,AFSA06.jpg,AFSA16.jpg,FS,4,num_2,16,num_2,0.981408940759,,,2017_Jul_17_1639,59.9799732593,FEMA4ImagesEEG,001,100989,
AMSA21.JPG,AMNE23.JPG,AMNE21.JPG,AMSA25.JPG,AMNE25.JPG,AMSA23.JPG,,,,,,,,,,,,,,,,,,,,,0,0,0,5,,,AMNE17.jpg,AMSA09.jpg,AMNE10.jpg,AMSA16.jpg,AMSA16.jpg,MS,2,num_4,32,num_6,0.83163902368,,,2017_Jul_17_1639,59.9799732593,FEMA4ImagesEEG,001,100989,
AMSA21.JPG,AMNE22.JPG,AMNE21.JPG,AMSA23.JPG,AMSA22.JPG,AMNE23.JPG,,,,,,,,,,,,,,,,,,,,,0,1,1,1,,,AMSA10.jpg,AMNE18.jpg,AMNE08.jpg,AMSA03.jpg,AMSA03.jpg,MS,2,num_4,16,num_4,0.4328079931,,,2017_Jul_17_1639,59.9799732593,FEMA4ImagesEEG,001,100989,
AFSA21.JPG,AFNE23.JPG,AFNE21.JPG,AFSA25.JPG,AFNE25.JPG,AFSA23.JPG,,,,,,,,,,,,,,,,,,,,,0,2,2,4,,,AMSA07.jpg,AMNE15.jpg,AMSA05.jpg,AMNE11.jpg,AMSA07.jpg,MS,2,num_8,32,num_6,0.767345705561,,,2017_Jul_17_1639,59.9799732593,FEMA4ImagesEEG,001,100989,
AMSA25.JPG,AMNE24.JPG,AMSA24.JPG,AMNE26.JPG,AMSA21.JPG,AMNE25.JPG,,,,,,,,,,,,,,,,,,,,,0,3,3,3,,,AMSA19.jpg,AMSA05.jpg,AMNE19.jpg,AMNE03.jpg,AMSA05.jpg,MS,2,num_6,16,num_6,0.815217129832,,,2017_Jul_17_1639,59.9799732593,FEMA4ImagesEEG,001,100989,
AFNE23.JPG,AFNE24.JPG,AFNE22.JPG,AFSA24.JPG,AFSA22.JPG,AFSA23.JPG,,,,,,,,,,,,,,,,,,,,,0,4,4,8,,,AMNE06.jpg,AMSA18.jpg,AMSA04.jpg,AMNE18.jpg,AMNE18.jpg,MN,1,num_4,32,num_2,0.885043535662,,,2017_Jul_17_1639,59.9799732593,FEMA4ImagesEEG,001,100989,
AMNE22.JPG,AMSA24.JPG,AMSA22.JPG,AMNE25.JPG,AMNE24.JPG,AMSA25.JPG,,,,,,,,,,,,,,,,,,,,,0,5,5,7,,,AMSA10.jpg,AMNE20.jpg,AMNE17.jpg,AMSA06.jpg,AMSA10.jpg,MS,2,num_8,32,num_4,0.598437225868,,,2017_Jul_17_1639,59.9799732593,FEMA4ImagesEEG,001,100989,
AMNE23.JPG,AMNE24.JPG,AMNE22.JPG,AMSA24.JPG,AMSA22.JPG,AMSA23.JPG,,,,,,,,,,,,,,,,,,,,,0,6,6,9,,,AMSA07.jpg,AMNE02.jpg,AMNE17.jpg,AMSA15.jpg,AMNE02.jpg,MN,1,num_6,16,num_6,0.785463031654,,,2017_Jul_17_1639,59.9799732593,FEMA4ImagesEEG,001,100989,
AFSA21.JPG,AFNE22.JPG,AFNE21.JPG,AFSA23.JPG,AFSA22.JPG,AFNE23.JPG,,,,,,,,,,,,,,,,,,,,,0,7,7,0,,,AMSA18.jpg,AMNE08.jpg,AMSA16.jpg,AMNE19.jpg,AMNE19.jpg,MN,1,num_4,32,num_2,1.05019646936,,,2017_Jul_17_1639,59.9799732593,FEMA4ImagesEEG,001,100989,
AFNE22.JPG,AFSA24.JPG,AFSA22.JPG,AFNE25.JPG,AFNE24.JPG,AFSA25.JPG,,,,,,,,,,,,,,,,,,,,,0,8,8,6,,,AMSA15.jpg,AMNE16.jpg,AMSA03.jpg,AMNE09.jpg,AMSA15.jpg,MS,2,num_8,32,num_4,0.715358864891,,,2017_Jul_17_1639,59.9799732593,FEMA4ImagesEEG,001,100989,
AFSA25.JPG,AFNE24.JPG,AFSA24.JPG,AFNE21.JPG,AFSA21.JPG,AFNE25.JPG,,,,,,,,,,,,,,,,,,,,,0,9,9,2,,,AMSA03.jpg,AMSA18.jpg,AMNE09.jpg,AMNE19.jpg,AMSA18.jpg,MS,2,num_6,16,num_6,0.684541513234,,,2017_Jul_17_1639,59.9799732593,FEMA4ImagesEEG,001,100989,
,,,,,,,,,,,,,,,,,,,,,,,,,,,,,,,,,,,,,,,,,,,space,16.9989970457,2017_Jul_17_1639,59.9799732593,FEMA4ImagesEEG,001,100989,
AFNE01.JPG,AFNE01.JPG,AFNE01.JPG,AFNE01.JPG,AFNE01.JPG,AFNE01.JPG,0,0,0,9,,,,,,,,,,,,,,,,,,,,,,,AFSA07.jpg,AFNE09.jpg,AFNE15.jpg,AFSA13.jpg,AFNE09.jpg,FN,3,num_6,32,num_4,0.731581579126,,,2017_Jul_17_1639,59.9799732593,FEMA4ImagesEEG,001,100989,
AFNE01.JPG,AFNE01.JPG,AFNE01.JPG,AFNE01.JPG,AFNE01.JPG,AFNE01.JPG,0,1,1,8,,,,,,,,,,,,,,,,,,,,,,,AFNE15.jpg,AFNE13.jpg,AFSA02.jpg,AFSA08.jpg,AFSA02.jpg,FS,4,num_2,16,num_2,0.500234300656,,,2017_Jul_17_1639,59.9799732593,FEMA4ImagesEEG,001,100989,
AFNE01.JPG,AFNE01.JPG,AFNE01.JPG,AFNE01.JPG,AFNE01.JPG,AFNE01.JPG,0,2,2,7,,,,,,,,,,,,,,,,,,,,,,,AFSA02.jpg,AFNE19.jpg,AFSA11.jpg,AFNE09.jpg,AFNE09.jpg,FN,3,num_4,32,num_6,0.617371156291,,,2017_Jul_17_1639,59.9799732593,FEMA4ImagesEEG,001,100989,
AFNE01.JPG,AFNE01.JPG,AFNE01.JPG,AFNE01.JPG,AFNE01.JPG,AFNE01.JPG,0,3,3,1,,,,,,,,,,,,,,,,,,,,,,,AFNE05.jpg,AFNE20.jpg,AFSA07.jpg,AFSA06.jpg,AFSA07.jpg,FS,4,num_2,16,num_2,0.834078252246,,,2017_Jul_17_1639,59.9799732593,FEMA4ImagesEEG,001,100989,
AFNE01.JPG,AFNE01.JPG,AFNE01.JPG,AFNE01.JPG,AFNE01.JPG,AFNE01.JPG,0,4,4,4,,,,,,,,,,,,,,,,,,,,,,,AFSA13.jpg,AFNE18.jpg,AFNE12.jpg,AFSA19.jpg,AFSA19.jpg,FS,4,num_4,32,num_8,0.432289035594,,,2017_Jul_17_1639,59.9799732593,FEMA4ImagesEEG,001,100989,
AFNE01.JPG,AFNE01.JPG,AFNE01.JPG,AFNE01.JPG,AFNE01.JPG,AFNE01.JPG,0,5,5,0,,,,,,,,,,,,,,,,,,,,,,,AFSA01.jpg,AFNE10.jpg,AFSA18.jpg,AFNE07.jpg,AFSA18.jpg,FS,4,num_2,16,num_2,0.366665287485,,,2017_Jul_17_1639,59.9799732593,FEMA4ImagesEEG,001,100989,
AFNE01.JPG,AFNE01.JPG,AFNE01.JPG,AFNE01.JPG,AFNE01.JPG,AFNE01.JPG,0,6,6,6,,,,,,,,,,,,,,,,,,,,,,,AFNE20.jpg,AFSA17.jpg,AFNE12.jpg,AFSA19.jpg,AFSA17.jpg,FS,4,num_6,16,num_6,0.55011676544,,,2017_Jul_17_1639,59.9799732593,FEMA4ImagesEEG,001,100989,
AFNE01.JPG,AFNE01.JPG,AFNE01.JPG,AFNE01.JPG,AFNE01.JPG,AFNE01.JPG,0,7,7,5,,,,,,,,,,,,,,,,,,,,,,,AFNE14.jpg,AFNE12.jpg,AFSA02.jpg,AFSA13.jpg,AFSA13.jpg,FS,4,num_4,32,num_2,0.702012547998,,,2017_Jul_17_1639,59.9799732593,FEMA4ImagesEEG,001,100989,
AFNE01.JPG,AFNE01.JPG,AFNE01.JPG,AFNE01.JPG,AFNE01.JPG,AFNE01.JPG,0,8,8,2,,,,,,,,,,,,,,,,,,,,,,,AFNE19.jpg,AFSA20.jpg,AFSA02.jpg,AFNE07.jpg,AFSA02.jpg,FS,4,num_2,32,num_8,1.05214592777,,,2017_Jul_17_1639,59.9799732593,FEMA4ImagesEEG,001,100989,
AFNE01.JPG,AFNE01.JPG,AFNE01.JPG,AFNE01.JPG,AFNE01.JPG,AFNE01.JPG,0,9,9,3,,,,,,,,,,,,,,,,,,,,,,,AFSA03.jpg,AFSA14.jpg,AFNE16.jpg,AFNE13.jpg,AFSA03.jpg,FS,4,num_8,32,num_2,0.384408309863,,,2017_Jul_17_1639,59.9799732593,FEMA4ImagesEEG,001,100989,
AFNE01.JPG,AFNE01.JPG,AFNE01.JPG,AFNE01.JPG,AFNE01.JPG,AFNE01.JPG,1,0,10,8,,,,,,,,,,,,,,,,,,,,,,,AFNE01.jpg,AFNE11.jpg,AFSA03.jpg,AFSA17.jpg,AFNE01.jpg,FN,3,num_8,32,num_6,0.499498843572,,,2017_Jul_17_1639,59.9799732593,FEMA4ImagesEEG,001,100989,
AFNE01.JPG,AFNE01.JPG,AFNE01.JPG,AFNE01.JPG,AFNE01.JPG,AFNE01.JPG,1,1,11,4,,,,,,,,,,,,,,,,,,,,,,,AFNE12.jpg,AFSA17.jpg,AFSA11.jpg,AFNE13.jpg,AFNE12.jpg,FN,3,num_8,32,num_2,0.433023851198,,,2017_Jul_17_1639,59.9799732593,FEMA4ImagesEEG,001,100989,
AFNE01.JPG,AFNE01.JPG,AFNE01.JPG,AFNE01.JPG,AFNE01.JPG,AFNE01.JPG,1,2,12,6,,,,,,,,,,,,,,,,,,,,,,,AFNE16.jpg,AFSA01.jpg,AFSA16.jpg,AFNE07.jpg,AFNE07.jpg,FN,3,num_4,32,num_6,0.28381779524,,,2017_Jul_17_1639,59.9799732593,FEMA4ImagesEEG,001,100989,
AFNE01.JPG,AFNE01.JPG,AFNE01.JPG,AFNE01.JPG,AFNE01.JPG,AFNE01.JPG,1,3,13,1,,,,,,,,,,,,,,,,,,,,,,,AFSA03.jpg,AFNE12.jpg,AFSA10.jpg,AFNE11.jpg,AFSA10.jpg,FS,4,num_2,32,num_8,0.333770502108,,,2017_Jul_17_1639,59.9799732593,FEMA4ImagesEEG,001,100989,
AFNE01.JPG,AFNE01.JPG,AFNE01.JPG,AFNE01.JPG,AFNE01.JPG,AFNE01.JPG,1,4,14,7,,,,,,,,,,,,,,,,,,,,,,,AFSA09.jpg,AFNE01.jpg,AFNE07.jpg,AFSA05.jpg,AFSA09.jpg,FS,4,num_8,32,num_6,0.549965696846,,,2017_Jul_17_1639,59.9799732593,FEMA4ImagesEEG,001,100989,
AFNE01.JPG,AFNE01.JPG,AFNE01.JPG,AFNE01.JPG,AFNE01.JPG,AFNE01.JPG,1,5,15,3,,,,,,,,,,,,,,,,,,,,,,,AFSA11.jpg,AFNE15.jpg,AFNE19.jpg,AFSA19.jpg,AFSA19.jpg,FS,4,num_4,32,num_2,0.300555618098,,,2017_Jul_17_1639,59.9799732593,FEMA4ImagesEEG,001,100989,
AFNE01.JPG,AFNE01.JPG,AFNE01.JPG,AFNE01.JPG,AFNE01.JPG,AFNE01.JPG,1,6,16,0,,,,,,,,,,,,,,,,,,,,,,,AFSA08.jpg,AFNE20.jpg,AFNE19.jpg,AFSA07.jpg,AFSA07.jpg,FS,4,num_4,32,num_6,0.284203324856,,,2017_Jul_17_1639,59.9799732593,FEMA4ImagesEEG,001,100989,
AFNE01.JPG,AFNE01.JPG,AFNE01.JPG,AFNE01.JPG,AFNE01.JPG,AFNE01.JPG,1,7,17,2,,,,,,,,,,,,,,,,,,,,,,,AFSA15.jpg,AFSA02.jpg,AFNE10.jpg,AFNE19.jpg,AFNE10.jpg,FN,3,num_2,32,num_4,0.385569389076,,,2017_Jul_17_1639,59.9799732593,FEMA4ImagesEEG,001,100989,
AFNE01.JPG,AFNE01.JPG,AFNE01.JPG,AFNE01.JPG,AFNE01.JPG,AFNE01.JPG,1,8,18,5,,,,,,,,,,,,,,,,,,,,,,,AFNE20.jpg,AFSA11.jpg,AFNE17.jpg,AFSA15.jpg,AFNE20.jpg,FN,3,num_8,32,num_2,0.850026733689,,,2017_Jul_17_1639,59.9799732593,FEMA4ImagesEEG,001,100989,
AFNE01.JPG,AFNE01.JPG,AFNE01.JPG,AFNE01.JPG,AFNE01.JPG,AFNE01.JPG,1,9,19,9,,,,,,,,,,,,,,,,,,,,,,,AFSA07.jpg,AFNE15.jpg,AFSA14.jpg,AFNE13.jpg,AFSA07.jpg,FS,4,num_8,32,num_6,0.750485359978,,,2017_Jul_17_1639,59.9799732593,FEMA4ImagesEEG,001,100989,
AFNE01.JPG,AFNE01.JPG,AFNE01.JPG,AFNE01.JPG,AFNE01.JPG,AFNE01.JPG,2,0,20,0,,,,,,,,,,,,,,,,,,,,,,,AFNE14.jpg,AFNE11.jpg,AFSA13.jpg,AFSA09.jpg,AFSA13.jpg,FS,4,num_2,16,num_2,0.916179061507,,,2017_Jul_17_1639,59.9799732593,FEMA4ImagesEEG,001,100989,
AFNE01.JPG,AFNE01.JPG,AFNE01.JPG,AFNE01.JPG,AFNE01.JPG,AFNE01.JPG,2,1,21,7,,,,,,,,,,,,,,,,,,,,,,,AFNE07.jpg,AFSA20.jpg,AFNE11.jpg,AFSA19.jpg,AFNE11.jpg,FN,3,num_2,32,num_8,0.750069360049,,,2017_Jul_17_1639,59.9799732593,FEMA4ImagesEEG,001,100989,
AFNE01.JPG,AFNE01.JPG,AFNE01.JPG,AFNE01.JPG,AFNE01.JPG,AFNE01.JPG,2,2,22,8,,,,,,,,,,,,,,,,,,,,,,,AFNE09.jpg,AFSA09.jpg,AFNE06.jpg,AFSA19.jpg,AFNE09.jpg,FN,3,num_8,32,num_6,0.417136951859,,,2017_Jul_17_1639,59.9799732593,FEMA4ImagesEEG,001,100989,
AFNE01.JPG,AFNE01.JPG,AFNE01.JPG,AFNE01.JPG,AFNE01.JPG,AFNE01.JPG,2,3,23,1,,,,,,,,,,,,,,,,,,,,,,,AFSA16.jpg,AFNE13.jpg,AFNE01.jpg,AFSA19.jpg,AFNE13.jpg,FN,3,num_6,16,num_6,0.401610564411,,,2017_Jul_17_1639,59.9799732593,FEMA4ImagesEEG,001,100989,
AFNE01.JPG,AFNE01.JPG,AFNE01.JPG,AFNE01.JPG,AFNE01.JPG,AFNE01.JPG,2,4,24,5,,,,,,,,,,,,,,,,,,,,,,,AFNE17.jpg,AFSA04.jpg,AFSA07.jpg,AFNE19.jpg,AFSA04.jpg,FS,4,num_6,32,num_4,0.731874414851,,,2017_Jul_17_1639,59.9799732593,FEMA4ImagesEEG,001,100989,
AFNE01.JPG,AFNE01.JPG,AFNE01.JPG,AFNE01.JPG,AFNE01.JPG,AFNE01.JPG,2,5,25,9,,,,,,,,,,,,,,,,,,,,,,,AFNE08.jpg,AFSA15.jpg,AFSA05.jpg,AFNE07.jpg,AFNE08.jpg,FN,3,num_8,32,num_2,0.618038937209,,,2017_Jul_17_1639,59.9799732593,FEMA4ImagesEEG,001,100989,
AFNE01.JPG,AFNE01.JPG,AFNE01.JPG,AFNE01.JPG,AFNE01.JPG,AFNE01.JPG,2,6,26,4,,,,,,,,,,,,,,,,,,,,,,,AFSA07.jpg,AFSA06.jpg,AFNE16.jpg,AFNE09.jpg,AFSA06.jpg,FS,4,num_6,16,num_6,0.334032867522,,,2017_Jul_17_1639,59.9799732593,FEMA4ImagesEEG,001,100989,
AFNE01.JPG,AFNE01.JPG,AFNE01.JPG,AFNE01.JPG,AFNE01.JPG,AFNE01.JPG,2,7,27,6,,,,,,,,,,,,,,,,,,,,,,,AFSA18.jpg,AFNE12.jpg,AFNE16.jpg,AFSA13.jpg,AFSA18.jpg,FS,4,num_8,16,num_8,0.582690489959,,,2017_Jul_17_1639,59.9799732593,FEMA4ImagesEEG,001,100989,
AFNE01.JPG,AFNE01.JPG,AFNE01.JPG,AFNE01.JPG,AFNE01.JPG,AFNE01.JPG,2,8,28,2,,,,,,,,,,,,,,,,,,,,,,,AFNE01.jpg,AFSA19.jpg,AFNE20.jpg,AFSA12.jpg,AFNE01.jpg,FN,3,num_8,32,num_2,0.683546256656,,,2017_Jul_17_1639,59.9799732593,FEMA4ImagesEEG,001,100989,
AFNE01.JPG,AFNE01.JPG,AFNE01.JPG,AFNE01.JPG,AFNE01.JPG,AFNE01.JPG,2,9,29,3,,,,,,,,,,,,,,,,,,,,,,,AFSA12.jpg,AFNE01.jpg,AFSA03.jpg,AFNE18.jpg,AFNE18.jpg,FN,3,num_4,32,num_6,0.635271020587,,,2017_Jul_17_1639,59.9799732593,FEMA4ImagesEEG,001,100989,
AFNE01.JPG,AFNE01.JPG,AFNE01.JPG,AFNE01.JPG,AFNE01.JPG,AFNE01.JPG,3,0,30,7,,,,,,,,,,,,,,,,,,,,,,,AFNE06.jpg,AFNE10.jpg,AFSA18.jpg,AFSA02.jpg,AFSA02.jpg,FS,4,num_4,32,num_2,0.732072311501,,,2017_Jul_17_1639,59.9799732593,FEMA4ImagesEEG,001,100989,
AFNE01.JPG,AFNE01.JPG,AFNE01.JPG,AFNE01.JPG,AFNE01.JPG,AFNE01.JPG,3,1,31,6,,,,,,,,,,,,,,,,,,,,,,,AFNE09.jpg,AFSA08.jpg,AFSA07.jpg,AFNE12.jpg,AFSA07.jpg,FS,4,num_2,16,num_2,0.583698255399,,,2017_Jul_17_1639,59.9799732593,FEMA4ImagesEEG,001,100989,
AFNE01.JPG,AFNE01.JPG,AFNE01.JPG,AFNE01.JPG,AFNE01.JPG,AFNE01.JPG,3,2,32,4,,,,,,,,,,,,,,,,,,,,,,,AFSA15.jpg,AFNE09.jpg,AFSA10.jpg,AFNE13.jpg,AFNE13.jpg,FN,3,num_4,32,num_6,0.483489742252,,,2017_Jul_17_1639,59.9799732593,FEMA4ImagesEEG,001,100989,
AFNE01.JPG,AFNE01.JPG,AFNE01.JPG,AFNE01.JPG,AFNE01.JPG,AFNE01.JPG,3,3,33,9,,,,,,,,,,,,,,,,,,,,,,,AFSA19.jpg,AFNE09.jpg,AFSA05.jpg,AFNE04.jpg,AFNE09.jpg,FN,3,num_6,32,num_4,0.535028829727,,,2017_Jul_17_1639,59.9799732593,FEMA4ImagesEEG,001,100989,
AFNE01.JPG,AFNE01.JPG,AFNE01.JPG,AFNE01.JPG,AFNE01.JPG,AFNE01.JPG,3,4,34,8,,,,,,,,,,,,,,,,,,,,,,,AFSA13.jpg,AFNE04.jpg,AFSA10.jpg,AFNE10.jpg,AFSA13.jpg,FS,4,num_8,16,num_8,0.583363081976,,,2017_Jul_17_1639,59.9799732593,FEMA4ImagesEEG,001,100989,
AFNE01.JPG,AFNE01.JPG,AFNE01.JPG,AFNE01.JPG,AFNE01.JPG,AFNE01.JPG,3,5,35,1,,,,,,,,,,,,,,,,,,,,,,,AFSA03.jpg,AFSA10.jpg,AFNE07.jpg,AFNE02.jpg,AFSA03.jpg,FS,4,num_8,32,num_2,0.349920087599,,,2017_Jul_17_1639,59.9799732593,FEMA4ImagesEEG,001,100989,
AFNE01.JPG,AFNE01.JPG,AFNE01.JPG,AFNE01.JPG,AFNE01.JPG,AFNE01.JPG,3,6,36,0,,,,,,,,,,,,,,,,,,,,,,,AFSA19.jpg,AFNE02.jpg,AFNE13.jpg,AFSA01.jpg,AFSA01.jpg,FS,4,num_4,16,num_4,0.45016484438,,,2017_Jul_17_1639,59.9799732593,FEMA4ImagesEEG,001,100989,
AFNE01.JPG,AFNE01.JPG,AFNE01.JPG,AFNE01.JPG,AFNE01.JPG,AFNE01.JPG,3,7,37,5,,,,,,,,,,,,,,,,,,,,,,,AFSA09.jpg,AFSA17.jpg,AFNE10.jpg,AFNE20.jpg,AFSA17.jpg,FS,4,num_6,16,num_6,0.483996832372,,,2017_Jul_17_1639,59.9799732593,FEMA4ImagesEEG,001,100989,
AFNE01.JPG,AFNE01.JPG,AFNE01.JPG,AFNE01.JPG,AFNE01.JPG,AFNE01.JPG,3,8,38,2,,,,,,,,,,,,,,,,,,,,,,,AFNE05.jpg,AFSA07.jpg,AFNE18.jpg,AFSA04.jpg,AFSA04.jpg,FS,4,num_4,32,num_8,0.516482032621,,,2017_Jul_17_1639,59.9799732593,FEMA4ImagesEEG,001,100989,
AFNE01.JPG,AFNE01.JPG,AFNE01.JPG,AFNE01.JPG,AFNE01.JPG,AFNE01.JPG,3,9,39,3,,,,,,,,,,,,,,,,,,,,,,,AFNE18.jpg,AFSA06.jpg,AFNE16.jpg,AFSA08.jpg,AFNE16.jpg,FN,3,num_2,32,num_6,0.335625662927,,,2017_Jul_17_1639,59.9799732593,FEMA4ImagesEEG,001,100989,
AFNE01.JPG,AFNE01.JPG,AFNE01.JPG,AFNE01.JPG,AFNE01.JPG,AFNE01.JPG,4,0,40,1,,,,,,,,,,,,,,,,,,,,,,,AFSA06.jpg,AFNE03.jpg,AFSA12.jpg,AFNE10.jpg,AFSA12.jpg,FS,4,num_2,16,num_2,0.400012957904,,,2017_Jul_17_1639,59.9799732593,FEMA4ImagesEEG,001,100989,
AFNE01.JPG,AFNE01.JPG,AFNE01.JPG,AFNE01.JPG,AFNE01.JPG,AFNE01.JPG,4,1,41,0,,,,,,,,,,,,,,,,,,,,,,,AFSA20.jpg,AFNE16.jpg,AFSA03.jpg,AFNE09.jpg,AFSA20.jpg,FS,4,num_8,32,num_2,0.948293165446,,,2017_Jul_17_1639,59.9799732593,FEMA4ImagesEEG,001,100989,
AFNE01.JPG,AFNE01.JPG,AFNE01.JPG,AFNE01.JPG,AFNE01.JPG,AFNE01.JPG,4,2,42,4,,,,,,,,,,,,,,,,,,,,,,,AFNE17.jpg,AFSA19.jpg,AFSA13.jpg,AFNE03.jpg,AFNE17.jpg,FN,3,num_8,32,num_6,0.849056494844,,,2017_Jul_17_1639,59.9799732593,FEMA4ImagesEEG,001,100989,
AFNE01.JPG,AFNE01.JPG,AFNE01.JPG,AFNE01.JPG,AFNE01.JPG,AFNE01.JPG,4,3,43,6,,,,,,,,,,,,,,,,,,,,,,,AFNE01.jpg,AFNE12.jpg,AFSA18.jpg,AFSA10.jpg,AFNE01.jpg,FN,3,num_8,32,num_4,0.583414400397,,,2017_Jul_17_1639,59.9799732593,FEMA4ImagesEEG,001,100989,
AFNE01.JPG,AFNE01.JPG,AFNE01.JPG,AFNE01.JPG,AFNE01.JPG,AFNE01.JPG,4,4,44,7,,,,,,,,,,,,,,,,,,,,,,,AFSA18.jpg,AFNE18.jpg,AFNE16.jpg,AFSA15.jpg,AFNE18.jpg,FN,3,num_6,16,num_6,0.401568547455,,,2017_Jul_17_1639,59.9799732593,FEMA4ImagesEEG,001,100989,
AFNE01.JPG,AFNE01.JPG,AFNE01.JPG,AFNE01.JPG,AFNE01.JPG,AFNE01.JPG,4,5,45,2,,,,,,,,,,,,,,,,,,,,,,,AFNE10.jpg,AFSA04.jpg,AFNE08.jpg,AFSA08.jpg,AFSA08.jpg,FS,4,num_4,32,num_8,0.517294788067,,,2017_Jul_17_1639,59.9799732593,FEMA4ImagesEEG,001,100989,
AFNE01.JPG,AFNE01.JPG,AFNE01.JPG,AFNE01.JPG,AFNE01.JPG,AFNE01.JPG,4,6,46,3,,,,,,,,,,,,,,,,,,,,,,,AFNE06.jpg,AFSA14.jpg,AFNE19.jpg,AFSA18.jpg,AFSA18.jpg,FS,4,num_4,16,num_4,0.58247302816,,,2017_Jul_17_1639,59.9799732593,FEMA4ImagesEEG,001,100989,
AFNE01.JPG,AFNE01.JPG,AFNE01.JPG,AFNE01.JPG,AFNE01.JPG,AFNE01.JPG,4,7,47,8,,,,,,,,,,,,,,,,,,,,,,,AFSA12.jpg,AFSA08.jpg,AFNE14.jpg,AFNE19.jpg,AFNE14.jpg,FN,3,num_2,16,num_2,0.500766087764,,,2017_Jul_17_1639,59.9799732593,FEMA4ImagesEEG,001,100989,
AFNE01.JPG,AFNE01.JPG,AFNE01.JPG,AFNE01.JPG,AFNE01.JPG,AFNE01.JPG,4,8,48,5,,,,,,,,,,,,,,,,,,,,,,,AFNE06.jpg,AFNE08.jpg,AFSA03.jpg,AFSA08.jpg,AFNE06.jpg,FN,3,num_8,32,num_6,0.534811688667,,,2017_Jul_17_1639,59.9799732593,FEMA4ImagesEEG,001,100989,
AFNE01.JPG,AFNE01.JPG,AFNE01.JPG,AFNE01.JPG,AFNE01.JPG,AFNE01.JPG,4,9,49,9,,,,,,,,,,,,,,,,,,,,,,,AFNE11.jpg,AFNE01.jpg,AFSA18.jpg,AFSA02.jpg,AFSA02.jpg,FS,4,num_4,16,num_4,0.533004318124,,,2017_Jul_17_1639,59.9799732593,FEMA4ImagesEEG,001,100989,
AFNE01.JPG,AFNE01.JPG,AFNE01.JPG,AFNE01.JPG,AFNE01.JPG,AFNE01.JPG,5,0,50,9,,,,,,,,,,,,,,,,,,,,,,,AFSA02.jpg,AFSA06.jpg,AFNE12.jpg,AFNE04.jpg,AFSA06.jpg,FS,4,num_6,32,num_8,0.833529465915,,,2017_Jul_17_1639,59.9799732593,FEMA4ImagesEEG,001,100989,
AFNE01.JPG,AFNE01.JPG,AFNE01.JPG,AFNE01.JPG,AFNE01.JPG,AFNE01.JPG,5,1,51,4,,,,,,,,,,,,,,,,,,,,,,,AFNE04.jpg,AFSA03.jpg,AFSA09.jpg,AFNE17.jpg,AFSA03.jpg,FS,4,num_6,32,num_2,0.650778805109,,,2017_Jul_17_1639,59.9799732593,FEMA4ImagesEEG,001,100989,
AFNE01.JPG,AFNE01.JPG,AFNE01.JPG,AFNE01.JPG,AFNE01.JPG,AFNE01.JPG,5,2,52,0,,,,,,,,,,,,,,,,,,,,,,,AFSA11.jpg,AFNE11.jpg,AFNE05.jpg,AFSA18.jpg,AFNE05.jpg,FN,3,num_2,32,num_6,0.616846425466,,,2017_Jul_17_1639,59.9799732593,FEMA4ImagesEEG,001,100989,
AFNE01.JPG,AFNE01.JPG,AFNE01.JPG,AFNE01.JPG,AFNE01.JPG,AFNE01.JPG,5,3,53,1,,,,,,,,,,,,,,,,,,,,,,,AFNE20.jpg,AFNE07.jpg,AFSA18.jpg,AFSA11.jpg,AFNE20.jpg,FN,3,num_8,32,num_4,0.517048138921,,,2017_Jul_17_1639,59.9799732593,FEMA4ImagesEEG,001,100989,
AFNE01.JPG,AFNE01.JPG,AFNE01.JPG,AFNE01.JPG,AFNE01.JPG,AFNE01.JPG,5,4,54,3,,,,,,,,,,,,,,,,,,,,,,,AFNE03.jpg,AFSA01.jpg,AFSA11.jpg,AFNE07.jpg,AFSA11.jpg,FS,4,num_2,32,num_8,0.683652742377,,,2017_Jul_17_1639,59.9799732593,FEMA4ImagesEEG,001,100989,
AFNE01.JPG,AFNE01.JPG,AFNE01.JPG,AFNE01.JPG,AFNE01.JPG,AFNE01.JPG,5,5,55,6,,,,,,,,,,,,,,,,,,,,,,,AFSA15.jpg,AFSA01.jpg,AFNE06.jpg,AFNE12.jpg,AFNE06.jpg,FN,3,num_2,16,num_2,0.399738083623,,,2017_Jul_17_1639,59.9799732593,FEMA4ImagesEEG,001,100989,
AFNE01.JPG,AFNE01.JPG,AFNE01.JPG,AFNE01.JPG,AFNE01.JPG,AFNE01.JPG,5,6,56,2,,,,,,,,,,,,,,,,,,,,,,,AFSA04.jpg,AFNE01.jpg,AFNE09.jpg,AFSA12.jpg,AFNE01.jpg,FN,3,num_6,16,num_6,0.43494091486,,,2017_Jul_17_1639,59.9799732593,FEMA4ImagesEEG,001,100989,
AFNE01.JPG,AFNE01.JPG,AFNE01.JPG,AFNE01.JPG,AFNE01.JPG,AFNE01.JPG,5,7,57,5,,,,,,,,,,,,,,,,,,,,,,,AFNE20.jpg,AFSA13.jpg,AFNE03.jpg,AFSA02.jpg,AFNE03.jpg,FN,3,num_2,32,num_8,0.902083495708,,,2017_Jul_17_1639,59.9799732593,FEMA4ImagesEEG,001,100989,
AFNE01.JPG,AFNE01.JPG,AFNE01.JPG,AFNE01.JPG,AFNE01.JPG,AFNE01.JPG,5,8,58,8,,,,,,,,,,,,,,,,,,,,,,,AFNE01.jpg,AFNE16.jpg,AFSA07.jpg,AFSA04.jpg,AFSA07.jpg,FS,4,num_2,16,num_2,0.817227849609,,,2017_Jul_17_1639,59.9799732593,FEMA4ImagesEEG,001,100989,
AFNE01.JPG,AFNE01.JPG,AFNE01.JPG,AFNE01.JPG,AFNE01.JPG,AFNE01.JPG,5,9,59,7,,,,,,,,,,,,,,,,,,,,,,,AFSA04.jpg,AFNE01.jpg,AFSA20.jpg,AFNE15.jpg,AFNE01.jpg,FN,3,num_6,16,num_6,0.665071946816,,,2017_Jul_17_1639,59.9799732593,FEMA4ImagesEEG,001,100989,
,,,,,,,,,,,,,,,,,,,,,,,,,,,,,,,,,,,,,,,,,,,space,18.666088693,2017_Jul_17_1639,59.9799732593,FEMA4ImagesEEG,001,100989,
AFNE01.JPG,AFNE01.JPG,AFNE01.JPG,AFNE01.JPG,AFNE01.JPG,AFNE01.JPG,,,,,0,0,0,4,,,,,,,,,,,,,,,,,,,AMNE06.jpg,AMSA20.jpg,AMNE11.jpg,AMSA04.jpg,AMSA20.jpg,MS,2,num_6,16,num_6,0.600939960979,,,2017_Jul_17_1639,59.9799732593,FEMA4ImagesEEG,001,100989,
AFNE01.JPG,AFNE01.JPG,AFNE01.JPG,AFNE01.JPG,AFNE01.JPG,AFNE01.JPG,,,,,0,1,1,1,,,,,,,,,,,,,,,,,,,AMNE08.jpg,AMSA17.jpg,AMSA02.jpg,AMNE01.jpg,AMSA17.jpg,MS,2,num_6,32,num_2,0.667042253339,,,2017_Jul_17_1639,59.9799732593,FEMA4ImagesEEG,001,100989,
AFNE01.JPG,AFNE01.JPG,AFNE01.JPG,AFNE01.JPG,AFNE01.JPG,AFNE01.JPG,,,,,0,2,2,2,,,,,,,,,,,,,,,,,,,AMSA01.jpg,AMNE02.jpg,AMNE13.jpg,AMSA04.jpg,AMNE13.jpg,MN,1,num_2,16,num_2,0.864926074217,,,2017_Jul_17_1639,59.9799732593,FEMA4ImagesEEG,001,100989,
AFNE01.JPG,AFNE01.JPG,AFNE01.JPG,AFNE01.JPG,AFNE01.JPG,AFNE01.JPG,,,,,0,3,3,9,,,,,,,,,,,,,,,,,,,AMNE04.jpg,AMNE01.jpg,AMSA17.jpg,AMSA04.jpg,AMNE04.jpg,MN,1,num_8,32,num_6,0.532587355978,,,2017_Jul_17_1639,59.9799732593,FEMA4ImagesEEG,001,100989,
AFNE01.JPG,AFNE01.JPG,AFNE01.JPG,AFNE01.JPG,AFNE01.JPG,AFNE01.JPG,,,,,0,4,4,6,,,,,,,,,,,,,,,,,,,AMSA05.jpg,AMNE10.jpg,AMNE06.jpg,AMSA09.jpg,AMNE10.jpg,MN,1,num_6,16,num_6,0.502045199341,,,2017_Jul_17_1639,59.9799732593,FEMA4ImagesEEG,001,100989,
AFNE01.JPG,AFNE01.JPG,AFNE01.JPG,AFNE01.JPG,AFNE01.JPG,AFNE01.JPG,,,,,0,5,5,7,,,,,,,,,,,,,,,,,,,AMSA04.jpg,AMNE13.jpg,AMSA19.jpg,AMNE04.jpg,AMSA19.jpg,MS,2,num_2,32,num_6,0.368154483836,,,2017_Jul_17_1639,59.9799732593,FEMA4ImagesEEG,001,100989,
AFNE01.JPG,AFNE01.JPG,AFNE01.JPG,AFNE01.JPG,AFNE01.JPG,AFNE01.JPG,,,,,0,6,6,0,,,,,,,,,,,,,,,,,,,AMNE18.jpg,AMSA02.jpg,AMSA11.jpg,AMNE06.jpg,AMNE18.jpg,MN,1,num_8,32,num_4,0.768454824876,,,2017_Jul_17_1639,59.9799732593,FEMA4ImagesEEG,001,100989,
AFNE01.JPG,AFNE01.JPG,AFNE01.JPG,AFNE01.JPG,AFNE01.JPG,AFNE01.JPG,,,,,0,7,7,8,,,,,,,,,,,,,,,,,,,AMNE15.jpg,AMSA09.jpg,AMNE09.jpg,AMSA17.jpg,AMSA17.jpg,MS,2,num_4,32,num_2,1.44841681076,,,2017_Jul_17_1639,59.9799732593,FEMA4ImagesEEG,001,100989,
AFNE01.JPG,AFNE01.JPG,AFNE01.JPG,AFNE01.JPG,AFNE01.JPG,AFNE01.JPG,,,,,0,8,8,3,,,,,,,,,,,,,,,,,,,AMSA20.jpg,AMNE03.jpg,AMSA12.jpg,AMNE17.jpg,AMNE17.jpg,MN,1,num_4,32,num_8,0.565603060375,,,2017_Jul_17_1639,59.9799732593,FEMA4ImagesEEG,001,100989,
AFNE01.JPG,AFNE01.JPG,AFNE01.JPG,AFNE01.JPG,AFNE01.JPG,AFNE01.JPG,,,,,0,9,9,5,,,,,,,,,,,,,,,,,,,AMSA12.jpg,AMNE19.jpg,AMNE20.jpg,AMSA19.jpg,AMSA12.jpg,MS,2,num_8,32,num_6,0.650851933853,,,2017_Jul_17_1639,59.9799732593,FEMA4ImagesEEG,001,100989,
AFNE01.JPG,AFNE01.JPG,AFNE01.JPG,AFNE01.JPG,AFNE01.JPG,AFNE01.JPG,,,,,1,0,10,3,,,,,,,,,,,,,,,,,,,AMSA07.jpg,AMNE04.jpg,AMNE11.jpg,AMSA04.jpg,AMNE04.jpg,MN,1,num_6,16,num_6,0.51521927879,,,2017_Jul_17_1639,59.9799732593,FEMA4ImagesEEG,001,100989,
AFNE01.JPG,AFNE01.JPG,AFNE01.JPG,AFNE01.JPG,AFNE01.JPG,AFNE01.JPG,,,,,1,1,11,8,,,,,,,,,,,,,,,,,,,AMNE06.jpg,AMNE16.jpg,AMSA02.jpg,AMSA04.jpg,AMNE06.jpg,MN,1,num_8,32,num_4,0.548803655412,,,2017_Jul_17_1639,59.9799732593,FEMA4ImagesEEG,001,100989,
AFNE01.JPG,AFNE01.JPG,AFNE01.JPG,AFNE01.JPG,AFNE01.JPG,AFNE01.JPG,,,,,1,2,12,1,,,,,,,,,,,,,,,,,,,AMSA04.jpg,AMNE06.jpg,AMNE03.jpg,AMSA18.jpg,AMNE06.jpg,MN,1,num_6,32,num_8,0.683977652112,,,2017_Jul_17_1639,59.9799732593,FEMA4ImagesEEG,001,100989,
AFNE01.JPG,AFNE01.JPG,AFNE01.JPG,AFNE01.JPG,AFNE01.JPG,AFNE01.JPG,,,,,1,3,13,2,,,,,,,,,,,,,,,,,,,AMSA15.jpg,AMNE12.jpg,AMNE14.jpg,AMSA07.jpg,AMNE14.jpg,MN,1,num_2,32,num_6,0.850610480698,,,2017_Jul_17_1639,59.9799732593,FEMA4ImagesEEG,001,100989,
AFNE01.JPG,AFNE01.JPG,AFNE01.JPG,AFNE01.JPG,AFNE01.JPG,AFNE01.JPG,,,,,1,4,14,7,,,,,,,,,,,,,,,,,,,AMNE10.jpg,AMNE12.jpg,AMSA12.jpg,AMSA18.jpg,AMSA12.jpg,MS,2,num_2,32,num_6,0.450696631491,,,2017_Jul_17_1639,59.9799732593,FEMA4ImagesEEG,001,100989,
AFNE01.JPG,AFNE01.JPG,AFNE01.JPG,AFNE01.JPG,AFNE01.JPG,AFNE01.JPG,,,,,1,5,15,5,,,,,,,,,,,,,,,,,,,AMNE20.jpg,AMSA11.jpg,AMSA01.jpg,AMNE04.jpg,AMSA11.jpg,MS,2,num_6,16,num_6,0.635185703715,,,2017_Jul_17_1639,59.9799732593,FEMA4ImagesEEG,001,100989,
AFNE01.JPG,AFNE01.JPG,AFNE01.JPG,AFNE01.JPG,AFNE01.JPG,AFNE01.JPG,,,,,1,6,16,4,,,,,,,,,,,,,,,,,,,AMNE01.jpg,AMSA10.jpg,AMSA17.jpg,AMNE20.jpg,AMNE01.jpg,MN,1,num_8,16,num_8,0.766168589344,,,2017_Jul_17_1639,59.9799732593,FEMA4ImagesEEG,001,100989,
AFNE01.JPG,AFNE01.JPG,AFNE01.JPG,AFNE01.JPG,AFNE01.JPG,AFNE01.JPG,,,,,1,7,17,9,,,,,,,,,,,,,,,,,,,AMNE17.jpg,AMSA12.jpg,AMNE18.jpg,AMSA09.jpg,AMSA09.jpg,MS,2,num_4,32,num_6,0.550531482408,,,2017_Jul_17_1639,59.9799732593,FEMA4ImagesEEG,001,100989,
AFNE01.JPG,AFNE01.JPG,AFNE01.JPG,AFNE01.JPG,AFNE01.JPG,AFNE01.JPG,,,,,1,8,18,0,,,,,,,,,,,,,,,,,,,AMNE02.jpg,AMNE16.jpg,AMSA20.jpg,AMSA15.jpg,AMNE02.jpg,MN,1,num_8,32,num_2,1.20086445875,,,2017_Jul_17_1639,59.9799732593,FEMA4ImagesEEG,001,100989,
AFNE01.JPG,AFNE01.JPG,AFNE01.JPG,AFNE01.JPG,AFNE01.JPG,AFNE01.JPG,,,,,1,9,19,6,,,,,,,,,,,,,,,,,,,AMSA15.jpg,AMNE19.jpg,AMSA08.jpg,AMNE01.jpg,AMSA08.jpg,MS,2,num_2,32,num_4,0.799227272917,,,2017_Jul_17_1639,59.9799732593,FEMA4ImagesEEG,001,100989,
AFNE01.JPG,AFNE01.JPG,AFNE01.JPG,AFNE01.JPG,AFNE01.JPG,AFNE01.JPG,,,,,2,0,20,2,,,,,,,,,,,,,,,,,,,AMSA14.jpg,AMSA18.jpg,AMNE03.jpg,AMNE06.jpg,AMSA18.jpg,MS,2,num_6,16,num_6,0.399631597906,,,2017_Jul_17_1639,59.9799732593,FEMA4ImagesEEG,001,100989,
AFNE01.JPG,AFNE01.JPG,AFNE01.JPG,AFNE01.JPG,AFNE01.JPG,AFNE01.JPG,,,,,2,1,21,0,,,,,,,,,,,,,,,,,,,AMSA13.jpg,AMSA10.jpg,AMNE19.jpg,AMNE09.jpg,AMSA13.jpg,MS,2,num_8,32,num_4,0.700039034073,,,2017_Jul_17_1639,59.9799732593,FEMA4ImagesEEG,001,100989,
AFNE01.JPG,AFNE01.JPG,AFNE01.JPG,AFNE01.JPG,AFNE01.JPG,AFNE01.JPG,,,,,2,2,22,1,,,,,,,,,,,,,,,,,,,AMSA15.jpg,AMNE02.jpg,AMNE01.jpg,AMSA18.jpg,AMNE02.jpg,MN,1,num_6,32,num_2,0.849622601145,,,2017_Jul_17_1639,59.9799732593,FEMA4ImagesEEG,001,100989,
AFNE01.JPG,AFNE01.JPG,AFNE01.JPG,AFNE01.JPG,AFNE01.JPG,AFNE01.JPG,,,,,2,3,23,6,,,,,,,,,,,,,,,,,,,AMNE06.jpg,AMSA14.jpg,AMSA10.jpg,AMNE17.jpg,AMSA14.jpg,MS,2,num_6,16,num_6,0.43364929442,,,2017_Jul_17_1639,59.9799732593,FEMA4ImagesEEG,001,100989,
AFNE01.JPG,AFNE01.JPG,AFNE01.JPG,AFNE01.JPG,AFNE01.JPG,AFNE01.JPG,,,,,2,4,24,9,,,,,,,,,,,,,,,,,,,AMSA19.jpg,AMSA05.jpg,AMNE20.jpg,AMNE03.jpg,AMSA05.jpg,MS,2,num_6,16,num_6,0.717200233881,,,2017_Jul_17_1639,59.9799732593,FEMA4ImagesEEG,001,100989,
AFNE01.JPG,AFNE01.JPG,AFNE01.JPG,AFNE01.JPG,AFNE01.JPG,AFNE01.JPG,,,,,2,5,25,4,,,,,,,,,,,,,,,,,,,AMSA16.jpg,AMNE10.jpg,AMNE16.jpg,AMSA02.jpg,AMSA02.jpg,MS,2,num_4,32,num_6,1.15079820989,,,2017_Jul_17_1639,59.9799732593,FEMA4ImagesEEG,001,100989,
AFNE01.JPG,AFNE01.JPG,AFNE01.JPG,AFNE01.JPG,AFNE01.JPG,AFNE01.JPG,,,,,2,6,26,7,,,,,,,,,,,,,,,,,,,AMSA14.jpg,AMSA20.jpg,AMNE16.jpg,AMNE17.jpg,AMSA20.jpg,MS,2,num_6,16,num_6,0.599051763926,,,2017_Jul_17_1639,59.9799732593,FEMA4ImagesEEG,001,100989,
AFNE01.JPG,AFNE01.JPG,AFNE01.JPG,AFNE01.JPG,AFNE01.JPG,AFNE01.JPG,,,,,2,7,27,5,,,,,,,,,,,,,,,,,,,AMNE14.jpg,AMSA15.jpg,AMSA17.jpg,AMNE12.jpg,AMSA17.jpg,MS,2,num_2,16,num_2,0.416864964242,,,2017_Jul_17_1639,59.9799732593,FEMA4ImagesEEG,001,100989,
AFNE01.JPG,AFNE01.JPG,AFNE01.JPG,AFNE01.JPG,AFNE01.JPG,AFNE01.JPG,,,,,2,8,28,3,,,,,,,,,,,,,,,,,,,AMSA08.jpg,AMSA03.jpg,AMNE10.jpg,AMNE20.jpg,AMNE20.jpg,MN,1,num_4,16,num_4,0.46562612159,,,2017_Jul_17_1639,59.9799732593,FEMA4ImagesEEG,001,100989,
AFNE01.JPG,AFNE01.JPG,AFNE01.JPG,AFNE01.JPG,AFNE01.JPG,AFNE01.JPG,,,,,2,9,29,8,,,,,,,,,,,,,,,,,,,AMNE20.jpg,AMNE10.jpg,AMSA06.jpg,AMSA12.jpg,AMSA06.jpg,MS,2,num_2,32,num_4,0.868289355054,,,2017_Jul_17_1639,59.9799732593,FEMA4ImagesEEG,001,100989,
AFNE01.JPG,AFNE01.JPG,AFNE01.JPG,AFNE01.JPG,AFNE01.JPG,AFNE01.JPG,,,,,3,0,30,3,,,,,,,,,,,,,,,,,,,AMSA20.jpg,AMNE14.jpg,AMNE11.jpg,AMSA03.jpg,AMSA20.jpg,MS,2,num_8,16,num_8,1.18249567241,,,2017_Jul_17_1639,59.9799732593,FEMA4ImagesEEG,001,100989,
AFNE01.JPG,AFNE01.JPG,AFNE01.JPG,AFNE01.JPG,AFNE01.JPG,AFNE01.JPG,,,,,3,1,31,5,,,,,,,,,,,,,,,,,,,AMNE05.jpg,AMSA19.jpg,AMSA06.jpg,AMNE18.jpg,AMNE18.jpg,MN,1,num_4,32,num_6,0.949810586924,,,2017_Jul_17_1639,59.9799732593,FEMA4ImagesEEG,001,100989,
AFNE01.JPG,AFNE01.JPG,AFNE01.JPG,AFNE01.JPG,AFNE01.JPG,AFNE01.JPG,,,,,3,2,32,4,,,,,,,,,,,,,,,,,,,AMSA19.jpg,AMNE17.jpg,AMSA06.jpg,AMNE07.jpg,AMSA19.jpg,MS,2,num_8,32,num_2,0.568723220204,,,2017_Jul_17_1639,59.9799732593,FEMA4ImagesEEG,001,100989,
AFNE01.JPG,AFNE01.JPG,AFNE01.JPG,AFNE01.JPG,AFNE01.JPG,AFNE01.JPG,,,,,3,3,33,6,,,,,,,,,,,,,,,,,,,AMNE11.jpg,AMSA05.jpg,AMNE02.jpg,AMSA07.jpg,AMSA05.jpg,MS,2,num_6,32,num_2,0.668864057188,,,2017_Jul_17_1639,59.9799732593,FEMA4ImagesEEG,001,100989,
AFNE01.JPG,AFNE01.JPG,AFNE01.JPG,AFNE01.JPG,AFNE01.JPG,AFNE01.JPG,,,,,3,4,34,9,,,,,,,,,,,,,,,,,,,AMNE16.jpg,AMSA20.jpg,AMNE02.jpg,AMSA14.jpg,AMSA14.jpg,MS,2,num_4,16,num_4,0.417016674313,,,2017_Jul_17_1639,59.9799732593,FEMA4ImagesEEG,001,100989,
AFNE01.JPG,AFNE01.JPG,AFNE01.JPG,AFNE01.JPG,AFNE01.JPG,AFNE01.JPG,,,,,3,5,35,2,,,,,,,,,,,,,,,,,,,AMNE20.jpg,AMNE13.jpg,AMSA19.jpg,AMSA20.jpg,AMNE20.jpg,MN,1,num_8,32,num_6,0.482879694551,,,2017_Jul_17_1639,59.9799732593,FEMA4ImagesEEG,001,100989,
AFNE01.JPG,AFNE01.JPG,AFNE01.JPG,AFNE01.JPG,AFNE01.JPG,AFNE01.JPG,,,,,3,6,36,1,,,,,,,,,,,,,,,,,,,AMSA15.jpg,AMNE10.jpg,AMSA08.jpg,AMNE20.jpg,AMNE20.jpg,MN,1,num_4,16,num_4,0.950334034791,,,2017_Jul_17_1639,59.9799732593,FEMA4ImagesEEG,001,100989,
AFNE01.JPG,AFNE01.JPG,AFNE01.JPG,AFNE01.JPG,AFNE01.JPG,AFNE01.JPG,,,,,3,7,37,7,,,,,,,,,,,,,,,,,,,AMNE11.jpg,AMNE14.jpg,AMSA10.jpg,AMSA07.jpg,AMNE11.jpg,MN,1,num_8,32,num_6,0.716811176124,,,2017_Jul_17_1639,59.9799732593,FEMA4ImagesEEG,001,100989,
AFNE01.JPG,AFNE01.JPG,AFNE01.JPG,AFNE01.JPG,AFNE01.JPG,AFNE01.JPG,,,,,3,8,38,8,,,,,,,,,,,,,,,,,,,AMNE20.jpg,AMSA10.jpg,AMSA09.jpg,AMNE16.jpg,AMSA09.jpg,MS,2,num_2,32,num_8,1.44910383608,,,2017_Jul_17_1639,59.9799732593,FEMA4ImagesEEG,001,100989,
AFNE01.JPG,AFNE01.JPG,AFNE01.JPG,AFNE01.JPG,AFNE01.JPG,AFNE01.JPG,,,,,3,9,39,0,,,,,,,,,,,,,,,,,,,AMNE14.jpg,AMNE12.jpg,AMSA16.jpg,AMSA11.jpg,AMSA11.jpg,MS,2,num_4,16,num_4,0.567698134801,,,2017_Jul_17_1639,59.9799732593,FEMA4ImagesEEG,001,100989,
AFNE01.JPG,AFNE01.JPG,AFNE01.JPG,AFNE01.JPG,AFNE01.JPG,AFNE01.JPG,,,,,4,0,40,9,,,,,,,,,,,,,,,,,,,AMSA16.jpg,AMNE01.jpg,AMSA13.jpg,AMNE20.jpg,AMNE20.jpg,MN,1,num_4,16,num_4,0.350601018861,,,2017_Jul_17_1639,59.9799732593,FEMA4ImagesEEG,001,100989,
AFNE01.JPG,AFNE01.JPG,AFNE01.JPG,AFNE01.JPG,AFNE01.JPG,AFNE01.JPG,,,,,4,1,41,3,,,,,,,,,,,,,,,,,,,AMSA01.jpg,AMNE04.jpg,AMNE12.jpg,AMSA10.jpg,AMSA10.jpg,MS,2,num_4,32,num_2,0.883799705498,,,2017_Jul_17_1639,59.9799732593,FEMA4ImagesEEG,001,100989,
AFNE01.JPG,AFNE01.JPG,AFNE01.JPG,AFNE01.JPG,AFNE01.JPG,AFNE01.JPG,,,,,4,2,42,6,,,,,,,,,,,,,,,,,,,AMSA07.jpg,AMNE19.jpg,AMSA12.jpg,AMNE11.jpg,AMNE11.jpg,MN,1,num_4,16,num_4,0.667196850078,,,2017_Jul_17_1639,59.9799732593,FEMA4ImagesEEG,001,100989,
AFNE01.JPG,AFNE01.JPG,AFNE01.JPG,AFNE01.JPG,AFNE01.JPG,AFNE01.JPG,,,,,4,3,43,8,,,,,,,,,,,,,,,,,,,AMNE09.jpg,AMSA11.jpg,AMSA01.jpg,AMNE10.jpg,AMNE09.jpg,MN,1,num_8,32,num_4,0.649339002739,,,2017_Jul_17_1639,59.9799732593,FEMA4ImagesEEG,001,100989,
AFNE01.JPG,AFNE01.JPG,AFNE01.JPG,AFNE01.JPG,AFNE01.JPG,AFNE01.JPG,,,,,4,4,44,1,,,,,,,,,,,,,,,,,,,AMNE02.jpg,AMNE09.jpg,AMSA04.jpg,AMSA12.jpg,AMSA04.jpg,MS,2,num_2,32,num_4,0.849717860958,,,2017_Jul_17_1639,59.9799732593,FEMA4ImagesEEG,001,100989,
AFNE01.JPG,AFNE01.JPG,AFNE01.JPG,AFNE01.JPG,AFNE01.JPG,AFNE01.JPG,,,,,4,5,45,4,,,,,,,,,,,,,,,,,,,AMNE08.jpg,AMSA06.jpg,AMNE16.jpg,AMSA14.jpg,AMNE16.jpg,MN,1,num_2,32,num_6,0.61641599223,,,2017_Jul_17_1639,59.9799732593,FEMA4ImagesEEG,001,100989,
AFNE01.JPG,AFNE01.JPG,AFNE01.JPG,AFNE01.JPG,AFNE01.JPG,AFNE01.JPG,,,,,4,6,46,7,,,,,,,,,,,,,,,,,,,AMSA15.jpg,AMNE13.jpg,AMNE04.jpg,AMSA16.jpg,AMNE04.jpg,MN,1,num_2,32,num_6,0.518857754643,,,2017_Jul_17_1639,59.9799732593,FEMA4ImagesEEG,001,100989,
AFNE01.JPG,AFNE01.JPG,AFNE01.JPG,AFNE01.JPG,AFNE01.JPG,AFNE01.JPG,,,,,4,7,47,2,,,,,,,,,,,,,,,,,,,AMSA03.jpg,AMNE16.jpg,AMSA20.jpg,AMNE07.jpg,AMSA03.jpg,MS,2,num_8,16,num_8,0.966621859272,,,2017_Jul_17_1639,59.9799732593,FEMA4ImagesEEG,001,100989,
AFNE01.JPG,AFNE01.JPG,AFNE01.JPG,AFNE01.JPG,AFNE01.JPG,AFNE01.JPG,,,,,4,8,48,0,,,,,,,,,,,,,,,,,,,AMSA14.jpg,AMNE03.jpg,AMSA15.jpg,AMNE06.jpg,AMSA14.jpg,MS,2,num_8,32,num_2,0.9508578034,,,2017_Jul_17_1639,59.9799732593,FEMA4ImagesEEG,001,100989,
AFNE01.JPG,AFNE01.JPG,AFNE01.JPG,AFNE01.JPG,AFNE01.JPG,AFNE01.JPG,,,,,4,9,49,5,,,,,,,,,,,,,,,,,,,AMNE03.jpg,AMSA14.jpg,AMSA07.jpg,AMNE17.jpg,AMSA14.jpg,MS,2,num_6,16,num_6,1.68260680886,,,2017_Jul_17_1639,59.9799732593,FEMA4ImagesEEG,001,100989,
AFNE01.JPG,AFNE01.JPG,AFNE01.JPG,AFNE01.JPG,AFNE01.JPG,AFNE01.JPG,,,,,5,0,50,6,,,,,,,,,,,,,,,,,,,AMSA15.jpg,AMNE05.jpg,AMSA04.jpg,AMNE04.jpg,AMSA15.jpg,MS,2,num_8,32,num_4,0.917663126016,,,2017_Jul_17_1639,59.9799732593,FEMA4ImagesEEG,001,100989,
AFNE01.JPG,AFNE01.JPG,AFNE01.JPG,AFNE01.JPG,AFNE01.JPG,AFNE01.JPG,,,,,5,1,51,9,,,,,,,,,,,,,,,,,,,AMNE08.jpg,AMSA07.jpg,AMNE16.jpg,AMSA02.jpg,AMNE16.jpg,MN,1,num_2,16,num_2,1.75073297135,,,2017_Jul_17_1639,59.9799732593,FEMA4ImagesEEG,001,100989,
AFNE01.JPG,AFNE01.JPG,AFNE01.JPG,AFNE01.JPG,AFNE01.JPG,AFNE01.JPG,,,,,5,2,52,7,,,,,,,,,,,,,,,,,,,AMNE02.jpg,AMSA05.jpg,AMNE11.jpg,AMSA12.jpg,AMSA12.jpg,MS,2,num_4,32,num_6,0.800180512535,,,2017_Jul_17_1639,59.9799732593,FEMA4ImagesEEG,001,100989,
AFNE01.JPG,AFNE01.JPG,AFNE01.JPG,AFNE01.JPG,AFNE01.JPG,AFNE01.JPG,,,,,5,3,53,1,,,,,,,,,,,,,,,,,,,AMSA04.jpg,AMNE03.jpg,AMNE08.jpg,AMSA19.jpg,AMSA19.jpg,MS,2,num_4,16,num_4,0.583189240835,,,2017_Jul_17_1639,59.9799732593,FEMA4ImagesEEG,001,100989,
AFNE01.JPG,AFNE01.JPG,AFNE01.JPG,AFNE01.JPG,AFNE01.JPG,AFNE01.JPG,,,,,5,4,54,5,,,,,,,,,,,,,,,,,,,AMNE20.jpg,AMSA06.jpg,AMNE05.jpg,AMSA01.jpg,AMNE05.jpg,MN,1,num_2,32,num_6,0.500336616751,,,2017_Jul_17_1639,59.9799732593,FEMA4ImagesEEG,001,100989,
AFNE01.JPG,AFNE01.JPG,AFNE01.JPG,AFNE01.JPG,AFNE01.JPG,AFNE01.JPG,,,,,5,5,55,2,,,,,,,,,,,,,,,,,,,AMNE16.jpg,AMNE20.jpg,AMSA16.jpg,AMSA12.jpg,AMNE16.jpg,MN,1,num_8,16,num_8,0.785514991552,,,2017_Jul_17_1639,59.9799732593,FEMA4ImagesEEG,001,100989,
AFNE01.JPG,AFNE01.JPG,AFNE01.JPG,AFNE01.JPG,AFNE01.JPG,AFNE01.JPG,,,,,5,6,56,3,,,,,,,,,,,,,,,,,,,AMSA13.jpg,AMSA09.jpg,AMNE09.jpg,AMNE14.jpg,AMNE14.jpg,MN,1,num_4,32,num_2,0.748875886085,,,2017_Jul_17_1639,59.9799732593,FEMA4ImagesEEG,001,100989,
AFNE01.JPG,AFNE01.JPG,AFNE01.JPG,AFNE01.JPG,AFNE01.JPG,AFNE01.JPG,,,,,5,7,57,4,,,,,,,,,,,,,,,,,,,AMSA12.jpg,AMSA02.jpg,AMNE02.jpg,AMNE15.jpg,AMSA02.jpg,MS,2,num_6,16,num_6,0.467320270873,,,2017_Jul_17_1639,59.9799732593,FEMA4ImagesEEG,001,100989,
AFNE01.JPG,AFNE01.JPG,AFNE01.JPG,AFNE01.JPG,AFNE01.JPG,AFNE01.JPG,,,,,5,8,58,0,,,,,,,,,,,,,,,,,,,AMSA13.jpg,AMSA06.jpg,AMNE07.jpg,AMNE13.jpg,AMSA13.jpg,MS,2,num_8,32,num_2,0.850071316563,,,2017_Jul_17_1639,59.9799732593,FEMA4ImagesEEG,001,100989,
AFNE01.JPG,AFNE01.JPG,AFNE01.JPG,AFNE01.JPG,AFNE01.JPG,AFNE01.JPG,,,,,5,9,59,8,,,,,,,,,,,,,,,,,,,AMNE12.jpg,AMSA02.jpg,AMSA14.jpg,AMNE15.jpg,AMSA02.jpg,MS,2,num_6,32,num_4,0.852205200543,,,2017_Jul_17_1639,59.9799732593,FEMA4ImagesEEG,001,100989,
,,,,,,,,,,,,,,,,,,,,,,,,,,,,,,,,,,,,,,,,,,,space,16.9485385316,2017_Jul_17_1639,59.9799732593,FEMA4ImagesEEG,001,100989,
AFNE01.JPG,AFNE01.JPG,AFNE01.JPG,AFNE01.JPG,AFNE01.JPG,AFNE01.JPG,,,,,,,,,0,0,0,0,,,,,,,,,,,,,,,AFNE09.jpg,AFNE13.jpg,AFSA19.jpg,AFSA02.jpg,AFNE13.jpg,FN,3,num_6,16,num_6,0.466399746743,,,2017_Jul_17_1639,59.9799732593,FEMA4ImagesEEG,001,100989,
AFNE01.JPG,AFNE01.JPG,AFNE01.JPG,AFNE01.JPG,AFNE01.JPG,AFNE01.JPG,,,,,,,,,0,1,1,7,,,,,,,,,,,,,,,AFSA14.jpg,AFNE17.jpg,AFSA18.jpg,AFNE05.jpg,AFSA14.jpg,FS,4,num_8,32,num_4,0.307582392521,,,2017_Jul_17_1639,59.9799732593,FEMA4ImagesEEG,001,100989,
AFNE01.JPG,AFNE01.JPG,AFNE01.JPG,AFNE01.JPG,AFNE01.JPG,AFNE01.JPG,,,,,,,,,0,2,2,9,,,,,,,,,,,,,,,AFNE11.jpg,AFSA09.jpg,AFSA11.jpg,AFNE12.jpg,AFSA11.jpg,FS,4,num_2,32,num_6,0.632050469099,,,2017_Jul_17_1639,59.9799732593,FEMA4ImagesEEG,001,100989,
AFNE01.JPG,AFNE01.JPG,AFNE01.JPG,AFNE01.JPG,AFNE01.JPG,AFNE01.JPG,,,,,,,,,0,3,3,6,,,,,,,,,,,,,,,AFSA05.jpg,AFNE14.jpg,AFNE01.jpg,AFSA10.jpg,AFSA05.jpg,FS,4,num_8,16,num_8,0.467578787404,,,2017_Jul_17_1639,59.9799732593,FEMA4ImagesEEG,001,100989,
AFNE01.JPG,AFNE01.JPG,AFNE01.JPG,AFNE01.JPG,AFNE01.JPG,AFNE01.JPG,,,,,,,,,0,4,4,1,,,,,,,,,,,,,,,AFNE14.jpg,AFNE16.jpg,AFSA18.jpg,AFSA11.jpg,AFNE16.jpg,FN,3,num_6,32,num_2,1.06545311437,,,2017_Jul_17_1639,59.9799732593,FEMA4ImagesEEG,001,100989,
AFNE01.JPG,AFNE01.JPG,AFNE01.JPG,AFNE01.JPG,AFNE01.JPG,AFNE01.JPG,,,,,,,,,0,5,5,5,,,,,,,,,,,,,,,AFSA11.jpg,AFNE07.jpg,AFNE05.jpg,AFSA15.jpg,AFNE05.jpg,FN,3,num_2,32,num_6,0.398630568008,,,2017_Jul_17_1639,59.9799732593,FEMA4ImagesEEG,001,100989,
AFNE01.JPG,AFNE01.JPG,AFNE01.JPG,AFNE01.JPG,AFNE01.JPG,AFNE01.JPG,,,,,,,,,0,6,6,3,,,,,,,,,,,,,,,AFNE08.jpg,AFSA01.jpg,AFSA09.jpg,AFNE09.jpg,AFSA09.jpg,FS,4,num_2,32,num_8,0.351508071908,,,2017_Jul_17_1639,59.9799732593,FEMA4ImagesEEG,001,100989,
AFNE01.JPG,AFNE01.JPG,AFNE01.JPG,AFNE01.JPG,AFNE01.JPG,AFNE01.JPG,,,,,,,,,0,7,7,2,,,,,,,,,,,,,,,AFSA06.jpg,AFNE13.jpg,AFSA19.jpg,AFNE16.jpg,AFSA19.jpg,FS,4,num_2,32,num_6,1.01730874026,,,2017_Jul_17_1639,59.9799732593,FEMA4ImagesEEG,001,100989,
AFNE01.JPG,AFNE01.JPG,AFNE01.JPG,AFNE01.JPG,AFNE01.JPG,AFNE01.JPG,,,,,,,,,0,8,8,4,,,,,,,,,,,,,,,AFSA09.jpg,AFNE14.jpg,AFNE04.jpg,AFSA08.jpg,AFNE04.jpg,FN,3,num_2,32,num_8,0.584242872112,,,2017_Jul_17_1639,59.9799732593,FEMA4ImagesEEG,001,100989,
AFNE01.JPG,AFNE01.JPG,AFNE01.JPG,AFNE01.JPG,AFNE01.JPG,AFNE01.JPG,,,,,,,,,0,9,9,8,,,,,,,,,,,,,,,AFSA11.jpg,AFSA12.jpg,AFNE20.jpg,AFNE01.jpg,AFSA12.jpg,FS,4,num_6,32,num_8,0.648393781619,,,2017_Jul_17_1639,59.9799732593,FEMA4ImagesEEG,001,100989,
AFNE01.JPG,AFNE01.JPG,AFNE01.JPG,AFNE01.JPG,AFNE01.JPG,AFNE01.JPG,,,,,,,,,1,0,10,6,,,,,,,,,,,,,,,AFNE03.jpg,AFSA20.jpg,AFSA08.jpg,AFNE01.jpg,AFNE03.jpg,FN,3,num_8,32,num_4,0.63329686518,,,2017_Jul_17_1639,59.9799732593,FEMA4ImagesEEG,001,100989,
AFNE01.JPG,AFNE01.JPG,AFNE01.JPG,AFNE01.JPG,AFNE01.JPG,AFNE01.JPG,,,,,,,,,1,1,11,1,,,,,,,,,,,,,,,AFNE08.jpg,AFSA03.jpg,AFNE01.jpg,AFSA17.jpg,AFSA17.jpg,FS,4,num_4,32,num_2,0.715630211027,,,2017_Jul_17_1639,59.9799732593,FEMA4ImagesEEG,001,100989,
AFNE01.JPG,AFNE01.JPG,AFNE01.JPG,AFNE01.JPG,AFNE01.JPG,AFNE01.JPG,,,,,,,,,1,2,12,7,,,,,,,,,,,,,,,AFSA04.jpg,AFNE01.jpg,AFNE16.jpg,AFSA07.jpg,AFNE01.jpg,FN,3,num_6,16,num_6,0.432396483535,,,2017_Jul_17_1639,59.9799732593,FEMA4ImagesEEG,001,100989,
AFNE01.JPG,AFNE01.JPG,AFNE01.JPG,AFNE01.JPG,AFNE01.JPG,AFNE01.JPG,,,,,,,,,1,3,13,8,,,,,,,,,,,,,,,AFNE04.jpg,AFNE13.jpg,AFSA19.jpg,AFSA13.jpg,AFNE04.jpg,FN,3,num_8,32,num_6,0.733389270408,,,2017_Jul_17_1639,59.9799732593,FEMA4ImagesEEG,001,100989,
AFNE01.JPG,AFNE01.JPG,AFNE01.JPG,AFNE01.JPG,AFNE01.JPG,AFNE01.JPG,,,,,,,,,1,4,14,3,,,,,,,,,,,,,,,AFSA08.jpg,AFSA09.jpg,AFNE19.jpg,AFNE03.jpg,AFSA09.jpg,FS,4,num_6,16,num_6,0.965221828676,,,2017_Jul_17_1639,59.9799732593,FEMA4ImagesEEG,001,100989,
AFNE01.JPG,AFNE01.JPG,AFNE01.JPG,AFNE01.JPG,AFNE01.JPG,AFNE01.JPG,,,,,,,,,1,5,15,0,,,,,,,,,,,,,,,AFSA11.jpg,AFSA16.jpg,AFNE20.jpg,AFNE11.jpg,AFSA11.jpg,FS,4,num_8,32,num_6,0.399013531707,,,2017_Jul_17_1639,59.9799732593,FEMA4ImagesEEG,001,100989,
AFNE01.JPG,AFNE01.JPG,AFNE01.JPG,AFNE01.JPG,AFNE01.JPG,AFNE01.JPG,,,,,,,,,1,6,16,9,,,,,,,,,,,,,,,AFNE10.jpg,AFSA13.jpg,AFSA17.jpg,AFNE15.jpg,AFSA17.jpg,FS,4,num_2,32,num_4,0.516715852165,,,2017_Jul_17_1639,59.9799732593,FEMA4ImagesEEG,001,100989,
AFNE01.JPG,AFNE01.JPG,AFNE01.JPG,AFNE01.JPG,AFNE01.JPG,AFNE01.JPG,,,,,,,,,1,7,17,4,,,,,,,,,,,,,,,AFNE08.jpg,AFNE09.jpg,AFSA19.jpg,AFSA08.jpg,AFNE08.jpg,FN,3,num_8,32,num_6,0.534402103545,,,2017_Jul_17_1639,59.9799732593,FEMA4ImagesEEG,001,100989,
AFNE01.JPG,AFNE01.JPG,AFNE01.JPG,AFNE01.JPG,AFNE01.JPG,AFNE01.JPG,,,,,,,,,1,8,18,5,,,,,,,,,,,,,,,AFSA06.jpg,AFSA19.jpg,AFNE10.jpg,AFNE07.jpg,AFSA19.jpg,FS,4,num_6,16,num_6,0.633867782584,,,2017_Jul_17_1639,59.9799732593,FEMA4ImagesEEG,001,100989,
AFNE01.JPG,AFNE01.JPG,AFNE01.JPG,AFNE01.JPG,AFNE01.JPG,AFNE01.JPG,,,,,,,,,1,9,19,2,,,,,,,,,,,,,,,AFSA17.jpg,AFNE17.jpg,AFNE19.jpg,AFSA03.jpg,AFSA17.jpg,FS,4,num_8,16,num_8,0.916641248012,,,2017_Jul_17_1639,59.9799732593,FEMA4ImagesEEG,001,100989,
AFNE01.JPG,AFNE01.JPG,AFNE01.JPG,AFNE01.JPG,AFNE01.JPG,AFNE01.JPG,,,,,,,,,2,0,20,1,,,,,,,,,,,,,,,AFSA15.jpg,AFNE07.jpg,AFSA09.jpg,AFNE10.jpg,AFSA09.jpg,FS,4,num_2,16,num_2,0.950178475836,,,2017_Jul_17_1639,59.9799732593,FEMA4ImagesEEG,001,100989,
AFNE01.JPG,AFNE01.JPG,AFNE01.JPG,AFNE01.JPG,AFNE01.JPG,AFNE01.JPG,,,,,,,,,2,1,21,2,,,,,,,,,,,,,,,AFSA11.jpg,AFNE18.jpg,AFNE08.jpg,AFSA19.jpg,AFNE18.jpg,FN,3,num_6,16,num_6,0.735070590086,,,2017_Jul_17_1639,59.9799732593,FEMA4ImagesEEG,001,100989,
AFNE01.JPG,AFNE01.JPG,AFNE01.JPG,AFNE01.JPG,AFNE01.JPG,AFNE01.JPG,,,,,,,,,2,2,22,3,,,,,,,,,,,,,,,AFNE03.jpg,AFSA08.jpg,AFNE05.jpg,AFSA06.jpg,AFSA06.jpg,FS,4,num_4,32,num_6,0.650248942442,,,2017_Jul_17_1639,59.9799732593,FEMA4ImagesEEG,001,100989,
AFNE01.JPG,AFNE01.JPG,AFNE01.JPG,AFNE01.JPG,AFNE01.JPG,AFNE01.JPG,,,,,,,,,2,3,23,0,,,,,,,,,,,,,,,AFSA07.jpg,AFNE19.jpg,AFNE04.jpg,AFSA18.jpg,AFNE04.jpg,FN,3,num_2,32,num_8,1.01680036718,,,2017_Jul_17_1639,59.9799732593,FEMA4ImagesEEG,001,100989,
AFNE01.JPG,AFNE01.JPG,AFNE01.JPG,AFNE01.JPG,AFNE01.JPG,AFNE01.JPG,,,,,,,,,2,4,24,6,,,,,,,,,,,,,,,AFSA19.jpg,AFSA02.jpg,AFNE07.jpg,AFNE14.jpg,AFSA02.jpg,FS,4,num_6,16,num_6,0.71612222636,,,2017_Jul_17_1639,59.9799732593,FEMA4ImagesEEG,001,100989,
AFNE01.JPG,AFNE01.JPG,AFNE01.JPG,AFNE01.JPG,AFNE01.JPG,AFNE01.JPG,,,,,,,,,2,5,25,9,,,,,,,,,,,,,,,AFNE09.jpg,AFSA07.jpg,AFNE16.jpg,AFSA13.jpg,AFNE09.jpg,FN,3,num_8,32,num_2,0.950198040984,,,2017_Jul_17_1639,59.9799732593,FEMA4ImagesEEG,001,100989,
AFNE01.JPG,AFNE01.JPG,AFNE01.JPG,AFNE01.JPG,AFNE01.JPG,AFNE01.JPG,,,,,,,,,2,6,26,8,,,,,,,,,,,,,,,AFNE03.jpg,AFSA16.jpg,AFNE15.jpg,AFSA19.jpg,AFNE03.jpg,FN,3,num_8,32,num_6,0.582883254767,,,2017_Jul_17_1639,59.9799732593,FEMA4ImagesEEG,001,100989,
AFNE01.JPG,AFNE01.JPG,AFNE01.JPG,AFNE01.JPG,AFNE01.JPG,AFNE01.JPG,,,,,,,,,2,7,27,7,,,,,,,,,,,,,,,AFNE14.jpg,AFSA08.jpg,AFNE10.jpg,AFSA20.jpg,AFSA20.jpg,FS,4,num_4,16,num_4,0.549142677712,,,2017_Jul_17_1639,59.9799732593,FEMA4ImagesEEG,001,100989,
AFNE01.JPG,AFNE01.JPG,AFNE01.JPG,AFNE01.JPG,AFNE01.JPG,AFNE01.JPG,,,,,,,,,2,8,28,5,,,,,,,,,,,,,,,AFSA20.jpg,AFNE13.jpg,AFSA03.jpg,AFNE16.jpg,AFNE16.jpg,FN,3,num_4,32,num_8,3.39944332345,,,2017_Jul_17_1639,59.9799732593,FEMA4ImagesEEG,001,100989,
AFNE01.JPG,AFNE01.JPG,AFNE01.JPG,AFNE01.JPG,AFNE01.JPG,AFNE01.JPG,,,,,,,,,2,9,29,4,,,,,,,,,,,,,,,AFSA09.jpg,AFNE03.jpg,AFSA02.jpg,AFNE19.jpg,AFSA09.jpg,FS,4,num_8,16,num_8,0.367811933393,,,2017_Jul_17_1639,59.9799732593,FEMA4ImagesEEG,001,100989,
AFNE01.JPG,AFNE01.JPG,AFNE01.JPG,AFNE01.JPG,AFNE01.JPG,AFNE01.JPG,,,,,,,,,3,0,30,6,,,,,,,,,,,,,,,AFNE19.jpg,AFNE18.jpg,AFSA17.jpg,AFSA16.jpg,AFNE18.jpg,FN,3,num_6,16,num_6,0.568367519416,,,2017_Jul_17_1639,59.9799732593,FEMA4ImagesEEG,001,100989,
AFNE01.JPG,AFNE01.JPG,AFNE01.JPG,AFNE01.JPG,AFNE01.JPG,AFNE01.JPG,,,,,,,,,3,1,31,1,,,,,,,,,,,,,,,AFSA12.jpg,AFNE13.jpg,AFSA11.jpg,AFNE14.jpg,AFSA11.jpg,FS,4,num_2,32,num_6,0.684150210294,,,2017_Jul_17_1639,59.9799732593,FEMA4ImagesEEG,001,100989,
AFNE01.JPG,AFNE01.JPG,AFNE01.JPG,AFNE01.JPG,AFNE01.JPG,AFNE01.JPG,,,,,,,,,3,2,32,4,,,,,,,,,,,,,,,AFNE11.jpg,AFSA10.jpg,AFNE15.jpg,AFSA07.jpg,AFNE11.jpg,FN,3,num_8,32,num_4,0.334031905302,,,2017_Jul_17_1639,59.9799732593,FEMA4ImagesEEG,001,100989,
AFNE01.JPG,AFNE01.JPG,AFNE01.JPG,AFNE01.JPG,AFNE01.JPG,AFNE01.JPG,,,,,,,,,3,3,33,2,,,,,,,,,,,,,,,AFSA18.jpg,AFSA19.jpg,AFNE02.jpg,AFNE03.jpg,AFSA19.jpg,FS,4,num_6,16,num_6,0.500183944456,,,2017_Jul_17_1639,59.9799732593,FEMA4ImagesEEG,001,100989,
AFNE01.JPG,AFNE01.JPG,AFNE01.JPG,AFNE01.JPG,AFNE01.JPG,AFNE01.JPG,,,,,,,,,3,4,34,9,,,,,,,,,,,,,,,AFNE04.jpg,AFSA12.jpg,AFSA01.jpg,AFNE02.jpg,AFSA12.jpg,FS,4,num_6,32,num_8,0.599426388377,,,2017_Jul_17_1639,59.9799732593,FEMA4ImagesEEG,001,100989,
AFNE01.JPG,AFNE01.JPG,AFNE01.JPG,AFNE01.JPG,AFNE01.JPG,AFNE01.JPG,,,,,,,,,3,5,35,3,,,,,,,,,,,,,,,AFSA05.jpg,AFSA15.jpg,AFNE16.jpg,AFNE20.jpg,AFNE20.jpg,FN,3,num_4,32,num_2,1.58396446969,,,2017_Jul_17_1639,59.9799732593,FEMA4ImagesEEG,001,100989,
AFNE01.JPG,AFNE01.JPG,AFNE01.JPG,AFNE01.JPG,AFNE01.JPG,AFNE01.JPG,,,,,,,,,3,6,36,5,,,,,,,,,,,,,,,AFNE11.jpg,AFSA03.jpg,AFSA01.jpg,AFNE08.jpg,AFSA01.jpg,FS,4,num_2,32,num_6,1.43348379252,,,2017_Jul_17_1639,59.9799732593,FEMA4ImagesEEG,001,100989,
AFNE01.JPG,AFNE01.JPG,AFNE01.JPG,AFNE01.JPG,AFNE01.JPG,AFNE01.JPG,,,,,,,,,3,7,37,0,,,,,,,,,,,,,,,AFSA17.jpg,AFSA11.jpg,AFNE13.jpg,AFNE14.jpg,AFSA11.jpg,FS,4,num_6,32,num_8,1.21797145349,,,2017_Jul_17_1639,59.9799732593,FEMA4ImagesEEG,001,100989,
AFNE01.JPG,AFNE01.JPG,AFNE01.JPG,AFNE01.JPG,AFNE01.JPG,AFNE01.JPG,,,,,,,,,3,8,38,7,,,,,,,,,,,,,,,AFNE13.jpg,AFSA07.jpg,AFSA14.jpg,AFNE01.jpg,AFNE01.jpg,FN,3,num_4,16,num_4,1.0339583596,,,2017_Jul_17_1639,59.9799732593,FEMA4ImagesEEG,001,100989,
AFNE01.JPG,AFNE01.JPG,AFNE01.JPG,AFNE01.JPG,AFNE01.JPG,AFNE01.JPG,,,,,,,,,3,9,39,8,,,,,,,,,,,,,,,AFSA19.jpg,AFNE08.jpg,AFSA07.jpg,AFNE05.jpg,AFSA07.jpg,FS,4,num_2,32,num_6,0.598981201099,,,2017_Jul_17_1639,59.9799732593,FEMA4ImagesEEG,001,100989,
AFNE01.JPG,AFNE01.JPG,AFNE01.JPG,AFNE01.JPG,AFNE01.JPG,AFNE01.JPG,,,,,,,,,4,0,40,2,,,,,,,,,,,,,,,AFNE07.jpg,AFNE11.jpg,AFSA02.jpg,AFSA06.jpg,AFNE11.jpg,FN,3,num_6,32,num_2,0.718788859671,,,2017_Jul_17_1639,59.9799732593,FEMA4ImagesEEG,001,100989,
AFNE01.JPG,AFNE01.JPG,AFNE01.JPG,AFNE01.JPG,AFNE01.JPG,AFNE01.JPG,,,,,,,,,4,1,41,9,,,,,,,,,,,,,,,AFNE06.jpg,AFNE02.jpg,AFSA08.jpg,AFSA19.jpg,AFNE02.jpg,FN,3,num_6,16,num_6,0.466806445209,,,2017_Jul_17_1639,59.9799732593,FEMA4ImagesEEG,001,100989,
AFNE01.JPG,AFNE01.JPG,AFNE01.JPG,AFNE01.JPG,AFNE01.JPG,AFNE01.JPG,,,,,,,,,4,2,42,5,,,,,,,,,,,,,,,AFNE08.jpg,AFSA19.jpg,AFSA18.jpg,AFNE14.jpg,AFSA18.jpg,FS,4,num_2,16,num_2,0.666383132404,,,2017_Jul_17_1639,59.9799732593,FEMA4ImagesEEG,001,100989,
AFNE01.JPG,AFNE01.JPG,AFNE01.JPG,AFNE01.JPG,AFNE01.JPG,AFNE01.JPG,,,,,,,,,4,3,43,1,,,,,,,,,,,,,,,AFSA08.jpg,AFNE09.jpg,AFNE10.jpg,AFSA20.jpg,AFSA20.jpg,FS,4,num_4,32,num_6,0.700645553628,,,2017_Jul_17_1639,59.9799732593,FEMA4ImagesEEG,001,100989,
AFNE01.JPG,AFNE01.JPG,AFNE01.JPG,AFNE01.JPG,AFNE01.JPG,AFNE01.JPG,,,,,,,,,4,4,44,6,,,,,,,,,,,,,,,AFSA01.jpg,AFNE11.jpg,AFNE08.jpg,AFSA11.jpg,AFNE08.jpg,FN,3,num_2,16,num_2,0.599499196385,,,2017_Jul_17_1639,59.9799732593,FEMA4ImagesEEG,001,100989,
AFNE01.JPG,AFNE01.JPG,AFNE01.JPG,AFNE01.JPG,AFNE01.JPG,AFNE01.JPG,,,,,,,,,4,5,45,0,,,,,,,,,,,,,,,AFNE10.jpg,AFSA20.jpg,AFSA05.jpg,AFNE14.jpg,AFSA20.jpg,FS,4,num_6,16,num_6,0.614066570892,,,2017_Jul_17_1639,59.9799732593,FEMA4ImagesEEG,001,100989,
AFNE01.JPG,AFNE01.JPG,AFNE01.JPG,AFNE01.JPG,AFNE01.JPG,AFNE01.JPG,,,,,,,,,4,6,46,8,,,,,,,,,,,,,,,AFNE02.jpg,AFSA20.jpg,AFNE14.jpg,AFSA15.jpg,AFNE14.jpg,FN,3,num_2,32,num_6,0.483733183999,,,2017_Jul_17_1639,59.9799732593,FEMA4ImagesEEG,001,100989,
AFNE01.JPG,AFNE01.JPG,AFNE01.JPG,AFNE01.JPG,AFNE01.JPG,AFNE01.JPG,,,,,,,,,4,7,47,7,,,,,,,,,,,,,,,AFSA11.jpg,AFNE14.jpg,AFSA08.jpg,AFNE07.jpg,AFSA08.jpg,FS,4,num_2,16,num_2,0.849556849422,,,2017_Jul_17_1639,59.9799732593,FEMA4ImagesEEG,001,100989,
AFNE01.JPG,AFNE01.JPG,AFNE01.JPG,AFNE01.JPG,AFNE01.JPG,AFNE01.JPG,,,,,,,,,4,8,48,3,,,,,,,,,,,,,,,AFNE06.jpg,AFSA09.jpg,AFNE02.jpg,AFSA01.jpg,AFSA01.jpg,FS,4,num_4,16,num_4,0.399579317269,,,2017_Jul_17_1639,59.9799732593,FEMA4ImagesEEG,001,100989,
AFNE01.JPG,AFNE01.JPG,AFNE01.JPG,AFNE01.JPG,AFNE01.JPG,AFNE01.JPG,,,,,,,,,4,9,49,4,,,,,,,,,,,,,,,AFSA20.jpg,AFSA01.jpg,AFNE05.jpg,AFNE20.jpg,AFSA01.jpg,FS,4,num_6,16,num_6,0.517458686267,,,2017_Jul_17_1639,59.9799732593,FEMA4ImagesEEG,001,100989,
AFNE01.JPG,AFNE01.JPG,AFNE01.JPG,AFNE01.JPG,AFNE01.JPG,AFNE01.JPG,,,,,,,,,5,0,50,8,,,,,,,,,,,,,,,AFNE19.jpg,AFSA01.jpg,AFNE12.jpg,AFSA11.jpg,AFSA01.jpg,FS,4,num_6,32,num_2,1.26775192292,,,2017_Jul_17_1639,59.9799732593,FEMA4ImagesEEG,001,100989,
AFNE01.JPG,AFNE01.JPG,AFNE01.JPG,AFNE01.JPG,AFNE01.JPG,AFNE01.JPG,,,,,,,,,5,1,51,5,,,,,,,,,,,,,,,AFSA04.jpg,AFNE06.jpg,AFNE12.jpg,AFSA11.jpg,AFSA11.jpg,FS,4,num_4,16,num_4,1.23511822,,,2017_Jul_17_1639,59.9799732593,FEMA4ImagesEEG,001,100989,
AFNE01.JPG,AFNE01.JPG,AFNE01.JPG,AFNE01.JPG,AFNE01.JPG,AFNE01.JPG,,,,,,,,,5,2,52,4,,,,,,,,,,,,,,,AFSA04.jpg,AFSA01.jpg,AFNE06.jpg,AFNE20.jpg,AFSA04.jpg,FS,4,num_8,32,num_6,1.58343556925,,,2017_Jul_17_1639,59.9799732593,FEMA4ImagesEEG,001,100989,
AFNE01.JPG,AFNE01.JPG,AFNE01.JPG,AFNE01.JPG,AFNE01.JPG,AFNE01.JPG,,,,,,,,,5,3,53,1,,,,,,,,,,,,,,,AFSA12.jpg,AFNE10.jpg,AFNE15.jpg,AFSA04.jpg,AFNE10.jpg,FN,3,num_6,32,num_2,0.700447977717,,,2017_Jul_17_1639,59.9799732593,FEMA4ImagesEEG,001,100989,
AFNE01.JPG,AFNE01.JPG,AFNE01.JPG,AFNE01.JPG,AFNE01.JPG,AFNE01.JPG,,,,,,,,,5,4,54,6,,,,,,,,,,,,,,,AFNE09.jpg,AFNE06.jpg,AFSA15.jpg,AFSA19.jpg,AFSA19.jpg,FS,4,num_4,32,num_6,0.849541133157,,,2017_Jul_17_1639,59.9799732593,FEMA4ImagesEEG,001,100989,
AFNE01.JPG,AFNE01.JPG,AFNE01.JPG,AFNE01.JPG,AFNE01.JPG,AFNE01.JPG,,,,,,,,,5,5,55,3,,,,,,,,,,,,,,,AFSA12.jpg,AFNE12.jpg,AFNE05.jpg,AFSA03.jpg,AFNE05.jpg,FN,3,num_2,32,num_8,1.16763097182,,,2017_Jul_17_1639,59.9799732593,FEMA4ImagesEEG,001,100989,
AFNE01.JPG,AFNE01.JPG,AFNE01.JPG,AFNE01.JPG,AFNE01.JPG,AFNE01.JPG,,,,,,,,,5,6,56,7,,,,,,,,,,,,,,,AFNE06.jpg,AFSA14.jpg,AFNE18.jpg,AFSA18.jpg,AFSA18.jpg,FS,4,num_4,16,num_4,0.884925503298,,,2017_Jul_17_1639,59.9799732593,FEMA4ImagesEEG,001,100989,
AFNE01.JPG,AFNE01.JPG,AFNE01.JPG,AFNE01.JPG,AFNE01.JPG,AFNE01.JPG,,,,,,,,,5,7,57,2,,,,,,,,,,,,,,,AFSA20.jpg,AFNE17.jpg,AFNE15.jpg,AFSA03.jpg,AFNE15.jpg,FN,3,num_2,16,num_2,0.867130841762,,,2017_Jul_17_1639,59.9799732593,FEMA4ImagesEEG,001,100989,
AFNE01.JPG,AFNE01.JPG,AFNE01.JPG,AFNE01.JPG,AFNE01.JPG,AFNE01.JPG,,,,,,,,,5,8,58,9,,,,,,,,,,,,,,,AFNE02.jpg,AFSA08.jpg,AFNE15.jpg,AFSA14.jpg,AFSA08.jpg,FS,4,num_6,16,num_6,0.534082325648,,,2017_Jul_17_1639,59.9799732593,FEMA4ImagesEEG,001,100989,
AFNE01.JPG,AFNE01.JPG,AFNE01.JPG,AFNE01.JPG,AFNE01.JPG,AFNE01.JPG,,,,,,,,,5,9,59,0,,,,,,,,,,,,,,,AFNE08.jpg,AFSA06.jpg,AFNE04.jpg,AFSA16.jpg,AFSA16.jpg,FS,4,num_4,16,num_4,0.699462022607,,,2017_Jul_17_1639,59.9799732593,FEMA4ImagesEEG,001,100989,
,,,,,,,,,,,,,,,,,,,,,,,,,,,,,,,,,,,,,,,,,,,space,24.6143135408,2017_Jul_17_1639,59.9799732593,FEMA4ImagesEEG,001,100989,
AFNE01.JPG,AFNE01.JPG,AFNE01.JPG,AFNE01.JPG,AFNE01.JPG,AFNE01.JPG,,,,,,,,,,,,,0,0,0,7,,,,,,,,,,,AMSA09.jpg,AMNE20.jpg,AMSA16.jpg,AMNE13.jpg,AMSA09.jpg,MS,2,num_8,32,num_6,0.617888510096,,,2017_Jul_17_1639,59.9799732593,FEMA4ImagesEEG,001,100989,
AFNE01.JPG,AFNE01.JPG,AFNE01.JPG,AFNE01.JPG,AFNE01.JPG,AFNE01.JPG,,,,,,,,,,,,,0,1,1,1,,,,,,,,,,,AMNE01.jpg,AMSA09.jpg,AMNE05.jpg,AMSA19.jpg,AMNE05.jpg,MN,1,num_2,32,num_4,0.315572670246,,,2017_Jul_17_1639,59.9799732593,FEMA4ImagesEEG,001,100989,
AFNE01.JPG,AFNE01.JPG,AFNE01.JPG,AFNE01.JPG,AFNE01.JPG,AFNE01.JPG,,,,,,,,,,,,,0,2,2,2,,,,,,,,,,,AMSA05.jpg,AMNE01.jpg,AMNE04.jpg,AMSA19.jpg,AMSA05.jpg,MS,2,num_8,32,num_4,0.298433280765,,,2017_Jul_17_1639,59.9799732593,FEMA4ImagesEEG,001,100989,
AFNE01.JPG,AFNE01.JPG,AFNE01.JPG,AFNE01.JPG,AFNE01.JPG,AFNE01.JPG,,,,,,,,,,,,,0,3,3,9,,,,,,,,,,,AMNE19.jpg,AMSA02.jpg,AMNE13.jpg,AMSA03.jpg,AMNE13.jpg,MN,1,num_2,16,num_2,1.50055247484,,,2017_Jul_17_1639,59.9799732593,FEMA4ImagesEEG,001,100989,
AFNE01.JPG,AFNE01.JPG,AFNE01.JPG,AFNE01.JPG,AFNE01.JPG,AFNE01.JPG,,,,,,,,,,,,,0,4,4,8,,,,,,,,,,,AMSA20.jpg,AMSA06.jpg,AMNE05.jpg,AMNE10.jpg,AMNE10.jpg,MN,1,num_4,32,num_8,1.58395709267,,,2017_Jul_17_1639,59.9799732593,FEMA4ImagesEEG,001,100989,
AFNE01.JPG,AFNE01.JPG,AFNE01.JPG,AFNE01.JPG,AFNE01.JPG,AFNE01.JPG,,,,,,,,,,,,,0,5,5,5,,,,,,,,,,,AMSA11.jpg,AMNE05.jpg,AMNE15.jpg,AMSA12.jpg,AMNE05.jpg,MN,1,num_6,32,num_2,0.882364714224,,,2017_Jul_17_1639,59.9799732593,FEMA4ImagesEEG,001,100989,
AFNE01.JPG,AFNE01.JPG,AFNE01.JPG,AFNE01.JPG,AFNE01.JPG,AFNE01.JPG,,,,,,,,,,,,,0,6,6,3,,,,,,,,,,,AMSA08.jpg,AMSA09.jpg,AMNE15.jpg,AMNE12.jpg,AMSA09.jpg,MS,2,num_6,32,num_4,0.752124341961,,,2017_Jul_17_1639,59.9799732593,FEMA4ImagesEEG,001,100989,
AFNE01.JPG,AFNE01.JPG,AFNE01.JPG,AFNE01.JPG,AFNE01.JPG,AFNE01.JPG,,,,,,,,,,,,,0,7,7,6,,,,,,,,,,,AMNE08.jpg,AMSA10.jpg,AMNE02.jpg,AMSA14.jpg,AMSA14.jpg,MS,2,num_4,32,num_6,0.432983758681,,,2017_Jul_17_1639,59.9799732593,FEMA4ImagesEEG,001,100989,
AFNE01.JPG,AFNE01.JPG,AFNE01.JPG,AFNE01.JPG,AFNE01.JPG,AFNE01.JPG,,,,,,,,,,,,,0,8,8,4,,,,,,,,,,,AMSA01.jpg,AMNE01.jpg,AMSA13.jpg,AMNE02.jpg,AMSA01.jpg,MS,2,num_8,32,num_2,0.482421998408,,,2017_Jul_17_1639,59.9799732593,FEMA4ImagesEEG,001,100989,
AFNE01.JPG,AFNE01.JPG,AFNE01.JPG,AFNE01.JPG,AFNE01.JPG,AFNE01.JPG,,,,,,,,,,,,,0,9,9,0,,,,,,,,,,,AMSA18.jpg,AMSA20.jpg,AMNE15.jpg,AMNE03.jpg,AMSA18.jpg,MS,2,num_8,32,num_6,0.584314717897,,,2017_Jul_17_1639,59.9799732593,FEMA4ImagesEEG,001,100989,
AFNE01.JPG,AFNE01.JPG,AFNE01.JPG,AFNE01.JPG,AFNE01.JPG,AFNE01.JPG,,,,,,,,,,,,,1,0,10,2,,,,,,,,,,,AMNE20.jpg,AMSA13.jpg,AMNE01.jpg,AMSA09.jpg,AMSA09.jpg,MS,2,num_4,32,num_6,0.516187593195,,,2017_Jul_17_1639,59.9799732593,FEMA4ImagesEEG,001,100989,
AFNE01.JPG,AFNE01.JPG,AFNE01.JPG,AFNE01.JPG,AFNE01.JPG,AFNE01.JPG,,,,,,,,,,,,,1,1,11,8,,,,,,,,,,,AMSA18.jpg,AMSA11.jpg,AMNE15.jpg,AMNE06.jpg,AMNE15.jpg,MN,1,num_2,32,num_4,0.650440424288,,,2017_Jul_17_1639,59.9799732593,FEMA4ImagesEEG,001,100989,
AFNE01.JPG,AFNE01.JPG,AFNE01.JPG,AFNE01.JPG,AFNE01.JPG,AFNE01.JPG,,,,,,,,,,,,,1,2,12,3,,,,,,,,,,,AMSA09.jpg,AMNE02.jpg,AMSA17.jpg,AMNE20.jpg,AMSA17.jpg,MS,2,num_2,16,num_2,0.432826275286,,,2017_Jul_17_1639,59.9799732593,FEMA4ImagesEEG,001,100989,
AFNE01.JPG,AFNE01.JPG,AFNE01.JPG,AFNE01.JPG,AFNE01.JPG,AFNE01.JPG,,,,,,,,,,,,,1,3,13,5,,,,,,,,,,,AMSA03.jpg,AMNE14.jpg,AMNE19.jpg,AMSA16.jpg,AMNE19.jpg,MN,1,num_2,32,num_8,1.21805773258,,,2017_Jul_17_1639,59.9799732593,FEMA4ImagesEEG,001,100989,
AFNE01.JPG,AFNE01.JPG,AFNE01.JPG,AFNE01.JPG,AFNE01.JPG,AFNE01.JPG,,,,,,,,,,,,,1,4,14,4,,,,,,,,,,,AMSA12.jpg,AMNE08.jpg,AMSA09.jpg,AMNE18.jpg,AMSA12.jpg,MS,2,num_8,32,num_4,0.933676396962,,,2017_Jul_17_1639,59.9799732593,FEMA4ImagesEEG,001,100989,
AFNE01.JPG,AFNE01.JPG,AFNE01.JPG,AFNE01.JPG,AFNE01.JPG,AFNE01.JPG,,,,,,,,,,,,,1,5,15,7,,,,,,,,,,,AMSA15.jpg,AMNE12.jpg,AMNE01.jpg,AMSA18.jpg,AMNE01.jpg,MN,1,num_2,32,num_6,0.565801919245,,,2017_Jul_17_1639,59.9799732593,FEMA4ImagesEEG,001,100989,
AFNE01.JPG,AFNE01.JPG,AFNE01.JPG,AFNE01.JPG,AFNE01.JPG,AFNE01.JPG,,,,,,,,,,,,,1,6,16,1,,,,,,,,,,,AMSA15.jpg,AMNE19.jpg,AMNE02.jpg,AMSA08.jpg,AMNE02.jpg,MN,1,num_2,32,num_8,0.667522722033,,,2017_Jul_17_1639,59.9799732593,FEMA4ImagesEEG,001,100989,
AFNE01.JPG,AFNE01.JPG,AFNE01.JPG,AFNE01.JPG,AFNE01.JPG,AFNE01.JPG,,,,,,,,,,,,,1,7,17,6,,,,,,,,,,,AMNE05.jpg,AMSA09.jpg,AMSA08.jpg,AMNE06.jpg,AMNE06.jpg,MN,1,num_4,32,num_2,0.531653681501,,,2017_Jul_17_1639,59.9799732593,FEMA4ImagesEEG,001,100989,
AFNE01.JPG,AFNE01.JPG,AFNE01.JPG,AFNE01.JPG,AFNE01.JPG,AFNE01.JPG,,,,,,,,,,,,,1,8,18,9,,,,,,,,,,,AMSA04.jpg,AMNE12.jpg,AMSA14.jpg,AMNE17.jpg,AMSA14.jpg,MS,2,num_2,32,num_6,0.584515180471,,,2017_Jul_17_1639,59.9799732593,FEMA4ImagesEEG,001,100989,
AFNE01.JPG,AFNE01.JPG,AFNE01.JPG,AFNE01.JPG,AFNE01.JPG,AFNE01.JPG,,,,,,,,,,,,,1,9,19,0,,,,,,,,,,,AMSA16.jpg,AMNE12.jpg,AMNE20.jpg,AMSA15.jpg,AMNE20.jpg,MN,1,num_2,32,num_4,0.668240859148,,,2017_Jul_17_1639,59.9799732593,FEMA4ImagesEEG,001,100989,
AFNE01.JPG,AFNE01.JPG,AFNE01.JPG,AFNE01.JPG,AFNE01.JPG,AFNE01.JPG,,,,,,,,,,,,,2,0,20,3,,,,,,,,,,,AMNE04.jpg,AMSA16.jpg,AMNE08.jpg,AMSA13.jpg,AMSA16.jpg,MS,2,num_6,16,num_6,0.651355495833,,,2017_Jul_17_1639,59.9799732593,FEMA4ImagesEEG,001,100989,
AFNE01.JPG,AFNE01.JPG,AFNE01.JPG,AFNE01.JPG,AFNE01.JPG,AFNE01.JPG,,,,,,,,,,,,,2,1,21,7,,,,,,,,,,,AMNE09.jpg,AMSA18.jpg,AMNE02.jpg,AMSA11.jpg,AMNE02.jpg,MN,1,num_2,32,num_6,0.501651009738,,,2017_Jul_17_1639,59.9799732593,FEMA4ImagesEEG,001,100989,
AFNE01.JPG,AFNE01.JPG,AFNE01.JPG,AFNE01.JPG,AFNE01.JPG,AFNE01.JPG,,,,,,,,,,,,,2,2,22,1,,,,,,,,,,,AMSA13.jpg,AMNE01.jpg,AMSA09.jpg,AMNE05.jpg,AMSA13.jpg,MS,2,num_8,32,num_4,0.668232199165,,,2017_Jul_17_1639,59.9799732593,FEMA4ImagesEEG,001,100989,
AFNE01.JPG,AFNE01.JPG,AFNE01.JPG,AFNE01.JPG,AFNE01.JPG,AFNE01.JPG,,,,,,,,,,,,,2,3,23,4,,,,,,,,,,,AMSA09.jpg,AMSA17.jpg,AMNE16.jpg,AMNE06.jpg,AMNE06.jpg,MN,1,num_4,32,num_8,0.783556231676,,,2017_Jul_17_1639,59.9799732593,FEMA4ImagesEEG,001,100989,
AFNE01.JPG,AFNE01.JPG,AFNE01.JPG,AFNE01.JPG,AFNE01.JPG,AFNE01.JPG,,,,,,,,,,,,,2,4,24,5,,,,,,,,,,,AMNE06.jpg,AMNE02.jpg,AMSA04.jpg,AMSA14.jpg,AMNE06.jpg,MN,1,num_8,32,num_2,0.568724823905,,,2017_Jul_17_1639,59.9799732593,FEMA4ImagesEEG,001,100989,
AFNE01.JPG,AFNE01.JPG,AFNE01.JPG,AFNE01.JPG,AFNE01.JPG,AFNE01.JPG,,,,,,,,,,,,,2,5,25,9,,,,,,,,,,,AMSA03.jpg,AMSA18.jpg,AMNE04.jpg,AMNE07.jpg,AMNE04.jpg,MN,1,num_2,32,num_6,1.68313057747,,,2017_Jul_17_1639,59.9799732593,FEMA4ImagesEEG,001,100989,
AFNE01.JPG,AFNE01.JPG,AFNE01.JPG,AFNE01.JPG,AFNE01.JPG,AFNE01.JPG,,,,,,,,,,,,,2,6,26,0,,,,,,,,,,,AMNE04.jpg,AMSA07.jpg,AMNE19.jpg,AMSA03.jpg,AMNE04.jpg,MN,1,num_8,32,num_2,0.700990028512,,,2017_Jul_17_1639,59.9799732593,FEMA4ImagesEEG,001,100989,
AFNE01.JPG,AFNE01.JPG,AFNE01.JPG,AFNE01.JPG,AFNE01.JPG,AFNE01.JPG,,,,,,,,,,,,,2,7,27,6,,,,,,,,,,,AMNE07.jpg,AMSA04.jpg,AMNE13.jpg,AMSA08.jpg,AMNE07.jpg,MN,1,num_8,16,num_8,1.25011987662,,,2017_Jul_17_1639,59.9799732593,FEMA4ImagesEEG,001,100989,
AFNE01.JPG,AFNE01.JPG,AFNE01.JPG,AFNE01.JPG,AFNE01.JPG,AFNE01.JPG,,,,,,,,,,,,,2,8,28,2,,,,,,,,,,,AMSA06.jpg,AMSA05.jpg,AMNE01.jpg,AMNE14.jpg,AMSA05.jpg,MS,2,num_6,32,num_4,0.516419167558,,,2017_Jul_17_1639,59.9799732593,FEMA4ImagesEEG,001,100989,
AFNE01.JPG,AFNE01.JPG,AFNE01.JPG,AFNE01.JPG,AFNE01.JPG,AFNE01.JPG,,,,,,,,,,,,,2,9,29,8,,,,,,,,,,,AMNE10.jpg,AMNE15.jpg,AMSA09.jpg,AMSA03.jpg,AMNE10.jpg,MN,1,num_8,32,num_6,0.649141747563,,,2017_Jul_17_1639,59.9799732593,FEMA4ImagesEEG,001,100989,
AFNE01.JPG,AFNE01.JPG,AFNE01.JPG,AFNE01.JPG,AFNE01.JPG,AFNE01.JPG,,,,,,,,,,,,,3,0,30,6,,,,,,,,,,,AMSA17.jpg,AMNE15.jpg,AMNE20.jpg,AMSA10.jpg,AMNE20.jpg,MN,1,num_2,16,num_2,0.50205193488,,,2017_Jul_17_1639,59.9799732593,FEMA4ImagesEEG,001,100989,
AFNE01.JPG,AFNE01.JPG,AFNE01.JPG,AFNE01.JPG,AFNE01.JPG,AFNE01.JPG,,,,,,,,,,,,,3,1,31,9,,,,,,,,,,,AMSA14.jpg,AMNE19.jpg,AMNE07.jpg,AMSA15.jpg,AMSA14.jpg,MS,2,num_8,16,num_8,0.616315279833,,,2017_Jul_17_1639,59.9799732593,FEMA4ImagesEEG,001,100989,
AFNE01.JPG,AFNE01.JPG,AFNE01.JPG,AFNE01.JPG,AFNE01.JPG,AFNE01.JPG,,,,,,,,,,,,,3,2,32,4,,,,,,,,,,,AMSA02.jpg,AMNE01.jpg,AMNE03.jpg,AMSA06.jpg,AMSA02.jpg,MS,2,num_8,32,num_6,0.449687262353,,,2017_Jul_17_1639,59.9799732593,FEMA4ImagesEEG,001,100989,
AFNE01.JPG,AFNE01.JPG,AFNE01.JPG,AFNE01.JPG,AFNE01.JPG,AFNE01.JPG,,,,,,,,,,,,,3,3,33,2,,,,,,,,,,,AMNE17.jpg,AMSA20.jpg,AMSA16.jpg,AMNE04.jpg,AMSA20.jpg,MS,2,num_6,32,num_8,0.617373080731,,,2017_Jul_17_1639,59.9799732593,FEMA4ImagesEEG,001,100989,
AFNE01.JPG,AFNE01.JPG,AFNE01.JPG,AFNE01.JPG,AFNE01.JPG,AFNE01.JPG,,,,,,,,,,,,,3,4,34,5,,,,,,,,,,,AMSA04.jpg,AMNE11.jpg,AMSA01.jpg,AMNE14.jpg,AMNE11.jpg,MN,1,num_6,16,num_6,0.818138751532,,,2017_Jul_17_1639,59.9799732593,FEMA4ImagesEEG,001,100989,
AFNE01.JPG,AFNE01.JPG,AFNE01.JPG,AFNE01.JPG,AFNE01.JPG,AFNE01.JPG,,,,,,,,,,,,,3,5,35,7,,,,,,,,,,,AMSA02.jpg,AMNE15.jpg,AMSA14.jpg,AMNE18.jpg,AMSA02.jpg,MS,2,num_8,32,num_2,0.450754364712,,,2017_Jul_17_1639,59.9799732593,FEMA4ImagesEEG,001,100989,
AFNE01.JPG,AFNE01.JPG,AFNE01.JPG,AFNE01.JPG,AFNE01.JPG,AFNE01.JPG,,,,,,,,,,,,,3,6,36,8,,,,,,,,,,,AMSA14.jpg,AMNE17.jpg,AMSA04.jpg,AMNE16.jpg,AMSA14.jpg,MS,2,num_8,16,num_8,0.485342016411,,,2017_Jul_17_1639,59.9799732593,FEMA4ImagesEEG,001,100989,
AFNE01.JPG,AFNE01.JPG,AFNE01.JPG,AFNE01.JPG,AFNE01.JPG,AFNE01.JPG,,,,,,,,,,,,,3,7,37,1,,,,,,,,,,,AMNE05.jpg,AMNE12.jpg,AMSA09.jpg,AMSA16.jpg,AMNE05.jpg,MN,1,num_8,32,num_2,0.717186121317,,,2017_Jul_17_1639,59.9799732593,FEMA4ImagesEEG,001,100989,
AFNE01.JPG,AFNE01.JPG,AFNE01.JPG,AFNE01.JPG,AFNE01.JPG,AFNE01.JPG,,,,,,,,,,,,,3,8,38,3,,,,,,,,,,,AMSA09.jpg,AMNE10.jpg,AMNE04.jpg,AMSA12.jpg,AMNE10.jpg,MN,1,num_6,16,num_6,0.281696740862,,,2017_Jul_17_1639,59.9799732593,FEMA4ImagesEEG,001,100989,
AFNE01.JPG,AFNE01.JPG,AFNE01.JPG,AFNE01.JPG,AFNE01.JPG,AFNE01.JPG,,,,,,,,,,,,,3,9,39,0,,,,,,,,,,,AMSA04.jpg,AMNE19.jpg,AMNE06.jpg,AMSA13.jpg,AMSA13.jpg,MS,2,num_4,32,num_2,0.633639736367,,,2017_Jul_17_1639,59.9799732593,FEMA4ImagesEEG,001,100989,
AFNE01.JPG,AFNE01.JPG,AFNE01.JPG,AFNE01.JPG,AFNE01.JPG,AFNE01.JPG,,,,,,,,,,,,,4,0,40,3,,,,,,,,,,,AMNE09.jpg,AMSA09.jpg,AMNE15.jpg,AMSA17.jpg,AMNE09.jpg,MN,1,num_8,32,num_4,0.267830183508,,,2017_Jul_17_1639,59.9799732593,FEMA4ImagesEEG,001,100989,
AFNE01.JPG,AFNE01.JPG,AFNE01.JPG,AFNE01.JPG,AFNE01.JPG,AFNE01.JPG,,,,,,,,,,,,,4,1,41,0,,,,,,,,,,,AMSA11.jpg,AMNE19.jpg,AMNE17.jpg,AMSA10.jpg,AMSA11.jpg,MS,2,num_8,32,num_4,0.349206440846,,,2017_Jul_17_1639,59.9799732593,FEMA4ImagesEEG,001,100989,
AFNE01.JPG,AFNE01.JPG,AFNE01.JPG,AFNE01.JPG,AFNE01.JPG,AFNE01.JPG,,,,,,,,,,,,,4,2,42,4,,,,,,,,,,,AMNE13.jpg,AMSA15.jpg,AMNE12.jpg,AMSA07.jpg,AMNE12.jpg,MN,1,num_2,32,num_6,0.366945935086,,,2017_Jul_17_1639,59.9799732593,FEMA4ImagesEEG,001,100989,
AFNE01.JPG,AFNE01.JPG,AFNE01.JPG,AFNE01.JPG,AFNE01.JPG,AFNE01.JPG,,,,,,,,,,,,,4,3,43,8,,,,,,,,,,,AMNE16.jpg,AMSA16.jpg,AMNE11.jpg,AMSA04.jpg,AMSA04.jpg,MS,2,num_4,16,num_4,0.584464503532,,,2017_Jul_17_1639,59.9799732593,FEMA4ImagesEEG,001,100989,
AFNE01.JPG,AFNE01.JPG,AFNE01.JPG,AFNE01.JPG,AFNE01.JPG,AFNE01.JPG,,,,,,,,,,,,,4,4,44,6,,,,,,,,,,,AMNE01.jpg,AMNE07.jpg,AMSA12.jpg,AMSA02.jpg,AMSA12.jpg,MS,2,num_2,32,num_4,0.666801056774,,,2017_Jul_17_1639,59.9799732593,FEMA4ImagesEEG,001,100989,
AFNE01.JPG,AFNE01.JPG,AFNE01.JPG,AFNE01.JPG,AFNE01.JPG,AFNE01.JPG,,,,,,,,,,,,,4,5,45,9,,,,,,,,,,,AMNE14.jpg,AMSA17.jpg,AMNE16.jpg,AMSA18.jpg,AMNE16.jpg,MN,1,num_2,32,num_6,0.400915199843,,,2017_Jul_17_1639,59.9799732593,FEMA4ImagesEEG,001,100989,
AFNE01.JPG,AFNE01.JPG,AFNE01.JPG,AFNE01.JPG,AFNE01.JPG,AFNE01.JPG,,,,,,,,,,,,,4,6,46,2,,,,,,,,,,,AMNE06.jpg,AMSA17.jpg,AMNE20.jpg,AMSA01.jpg,AMSA17.jpg,MS,2,num_6,16,num_6,0.382918151296,,,2017_Jul_17_1639,59.9799732593,FEMA4ImagesEEG,001,100989,
AFNE01.JPG,AFNE01.JPG,AFNE01.JPG,AFNE01.JPG,AFNE01.JPG,AFNE01.JPG,,,,,,,,,,,,,4,7,47,1,,,,,,,,,,,AMNE16.jpg,AMSA20.jpg,AMNE09.jpg,AMSA06.jpg,AMNE16.jpg,MN,1,num_8,16,num_8,0.501599370578,,,2017_Jul_17_1639,59.9799732593,FEMA4ImagesEEG,001,100989,
AFNE01.JPG,AFNE01.JPG,AFNE01.JPG,AFNE01.JPG,AFNE01.JPG,AFNE01.JPG,,,,,,,,,,,,,4,8,48,5,,,,,,,,,,,AMSA05.jpg,AMSA20.jpg,AMNE20.jpg,AMNE05.jpg,AMSA20.jpg,MS,2,num_6,16,num_6,0.450061566065,,,2017_Jul_17_1639,59.9799732593,FEMA4ImagesEEG,001,100989,
AFNE01.JPG,AFNE01.JPG,AFNE01.JPG,AFNE01.JPG,AFNE01.JPG,AFNE01.JPG,,,,,,,,,,,,,4,9,49,7,,,,,,,,,,,AMNE06.jpg,AMSA05.jpg,AMSA06.jpg,AMNE09.jpg,AMNE09.jpg,MN,1,num_4,16,num_4,0.368227933322,,,2017_Jul_17_1639,59.9799732593,FEMA4ImagesEEG,001,100989,
AFNE01.JPG,AFNE01.JPG,AFNE01.JPG,AFNE01.JPG,AFNE01.JPG,AFNE01.JPG,,,,,,,,,,,,,5,0,50,6,,,,,,,,,,,AMSA18.jpg,AMSA02.jpg,AMNE08.jpg,AMNE07.jpg,AMNE07.jpg,MN,1,num_4,32,num_6,0.550486578788,,,2017_Jul_17_1639,59.9799732593,FEMA4ImagesEEG,001,100989,
AFNE01.JPG,AFNE01.JPG,AFNE01.JPG,AFNE01.JPG,AFNE01.JPG,AFNE01.JPG,,,,,,,,,,,,,5,1,51,8,,,,,,,,,,,AMSA10.jpg,AMNE20.jpg,AMSA06.jpg,AMNE06.jpg,AMSA10.jpg,MS,2,num_8,32,num_4,0.40199930143,,,2017_Jul_17_1639,59.9799732593,FEMA4ImagesEEG,001,100989,
AFNE01.JPG,AFNE01.JPG,AFNE01.JPG,AFNE01.JPG,AFNE01.JPG,AFNE01.JPG,,,,,,,,,,,,,5,2,52,0,,,,,,,,,,,AMSA04.jpg,AMNE07.jpg,AMSA01.jpg,AMNE11.jpg,AMNE07.jpg,MN,1,num_6,32,num_2,0.483050328294,,,2017_Jul_17_1639,59.9799732593,FEMA4ImagesEEG,001,100989,
AFNE01.JPG,AFNE01.JPG,AFNE01.JPG,AFNE01.JPG,AFNE01.JPG,AFNE01.JPG,,,,,,,,,,,,,5,3,53,2,,,,,,,,,,,AMNE10.jpg,AMSA11.jpg,AMNE08.jpg,AMSA04.jpg,AMSA04.jpg,MS,2,num_4,16,num_4,0.400208288629,,,2017_Jul_17_1639,59.9799732593,FEMA4ImagesEEG,001,100989,
AFNE01.JPG,AFNE01.JPG,AFNE01.JPG,AFNE01.JPG,AFNE01.JPG,AFNE01.JPG,,,,,,,,,,,,,5,4,54,5,,,,,,,,,,,AMNE08.jpg,AMSA04.jpg,AMNE06.jpg,AMSA03.jpg,AMSA03.jpg,MS,2,num_4,32,num_6,0.3678831377,,,2017_Jul_17_1639,59.9799732593,FEMA4ImagesEEG,001,100989,
AFNE01.JPG,AFNE01.JPG,AFNE01.JPG,AFNE01.JPG,AFNE01.JPG,AFNE01.JPG,,,,,,,,,,,,,5,5,55,3,,,,,,,,,,,AMSA04.jpg,AMNE01.jpg,AMSA17.jpg,AMNE15.jpg,AMNE01.jpg,MN,1,num_6,32,num_4,0.583490095065,,,2017_Jul_17_1639,59.9799732593,FEMA4ImagesEEG,001,100989,
AFNE01.JPG,AFNE01.JPG,AFNE01.JPG,AFNE01.JPG,AFNE01.JPG,AFNE01.JPG,,,,,,,,,,,,,5,6,56,1,,,,,,,,,,,AMNE01.jpg,AMNE09.jpg,AMSA14.jpg,AMSA05.jpg,AMSA05.jpg,MS,2,num_4,32,num_6,0.550259815529,,,2017_Jul_17_1639,59.9799732593,FEMA4ImagesEEG,001,100989,
AFNE01.JPG,AFNE01.JPG,AFNE01.JPG,AFNE01.JPG,AFNE01.JPG,AFNE01.JPG,,,,,,,,,,,,,5,7,57,7,,,,,,,,,,,AMNE01.jpg,AMNE20.jpg,AMSA09.jpg,AMSA17.jpg,AMSA17.jpg,MS,2,num_4,16,num_4,0.466654735133,,,2017_Jul_17_1639,59.9799732593,FEMA4ImagesEEG,001,100989,
AFNE01.JPG,AFNE01.JPG,AFNE01.JPG,AFNE01.JPG,AFNE01.JPG,AFNE01.JPG,,,,,,,,,,,,,5,8,58,9,,,,,,,,,,,AMNE10.jpg,AMSA07.jpg,AMSA09.jpg,AMNE03.jpg,AMNE03.jpg,MN,1,num_4,32,num_6,0.450028850573,,,2017_Jul_17_1639,59.9799732593,FEMA4ImagesEEG,001,100989,
AFNE01.JPG,AFNE01.JPG,AFNE01.JPG,AFNE01.JPG,AFNE01.JPG,AFNE01.JPG,,,,,,,,,,,,,5,9,59,4,,,,,,,,,,,AMNE19.jpg,AMSA02.jpg,AMNE15.jpg,AMSA16.jpg,AMNE15.jpg,MN,1,num_2,16,num_2,0.35087268574,,,2017_Jul_17_1639,59.9799732593,FEMA4ImagesEEG,001,100989,
,,,,,,,,,,,,,,,,,,,,,,,,,,,,,,,,,,,,,,,,,,,space,17.997973564,2017_Jul_17_1639,59.9799732593,FEMA4ImagesEEG,001,100989,
AFNE01.JPG,AFNE01.JPG,AFNE01.JPG,AFNE01.JPG,AFNE01.JPG,AFNE01.JPG,,,,,,,,,,,,,,,,,0,0,0,7,,,,,,,AFSA15.jpg,AFNE09.jpg,AFSA16.jpg,AFNE06.jpg,AFNE09.jpg,FN,3,num_6,16,num_6,0.750054606004,,,2017_Jul_17_1639,59.9799732593,FEMA4ImagesEEG,001,100989,
AFNE01.JPG,AFNE01.JPG,AFNE01.JPG,AFNE01.JPG,AFNE01.JPG,AFNE01.JPG,,,,,,,,,,,,,,,,,0,1,1,5,,,,,,,AFNE08.jpg,AFSA12.jpg,AFNE14.jpg,AFSA01.jpg,AFNE08.jpg,FN,3,num_8,32,num_4,0.365070888376,,,2017_Jul_17_1639,59.9799732593,FEMA4ImagesEEG,001,100989,
AFNE01.JPG,AFNE01.JPG,AFNE01.JPG,AFNE01.JPG,AFNE01.JPG,AFNE01.JPG,,,,,,,,,,,,,,,,,0,2,2,3,,,,,,,AFSA20.jpg,AFNE05.jpg,AFNE10.jpg,AFSA01.jpg,AFNE05.jpg,FN,3,num_6,16,num_6,0.53357940515,,,2017_Jul_17_1639,59.9799732593,FEMA4ImagesEEG,001,100989,
AFNE01.JPG,AFNE01.JPG,AFNE01.JPG,AFNE01.JPG,AFNE01.JPG,AFNE01.JPG,,,,,,,,,,,,,,,,,0,3,3,9,,,,,,,AFSA17.jpg,AFSA02.jpg,AFNE01.jpg,AFNE15.jpg,AFSA02.jpg,FS,4,num_6,32,num_8,0.417089803061,,,2017_Jul_17_1639,59.9799732593,FEMA4ImagesEEG,001,100989,
AFNE01.JPG,AFNE01.JPG,AFNE01.JPG,AFNE01.JPG,AFNE01.JPG,AFNE01.JPG,,,,,,,,,,,,,,,,,0,4,4,0,,,,,,,AFSA07.jpg,AFNE20.jpg,AFNE04.jpg,AFSA01.jpg,AFSA01.jpg,FS,4,num_4,32,num_2,0.515380611068,,,2017_Jul_17_1639,59.9799732593,FEMA4ImagesEEG,001,100989,
AFNE01.JPG,AFNE01.JPG,AFNE01.JPG,AFNE01.JPG,AFNE01.JPG,AFNE01.JPG,,,,,,,,,,,,,,,,,0,5,5,4,,,,,,,AFNE11.jpg,AFSA16.jpg,AFSA09.jpg,AFNE12.jpg,AFNE11.jpg,FN,3,num_8,32,num_6,0.449354334112,,,2017_Jul_17_1639,59.9799732593,FEMA4ImagesEEG,001,100989,
AFNE01.JPG,AFNE01.JPG,AFNE01.JPG,AFNE01.JPG,AFNE01.JPG,AFNE01.JPG,,,,,,,,,,,,,,,,,0,6,6,2,,,,,,,AFSA20.jpg,AFNE15.jpg,AFNE16.jpg,AFSA04.jpg,AFSA20.jpg,FS,4,num_8,32,num_2,0.699086115193,,,2017_Jul_17_1639,59.9799732593,FEMA4ImagesEEG,001,100989,
AFNE01.JPG,AFNE01.JPG,AFNE01.JPG,AFNE01.JPG,AFNE01.JPG,AFNE01.JPG,,,,,,,,,,,,,,,,,0,7,7,1,,,,,,,AFSA19.jpg,AFSA07.jpg,AFNE08.jpg,AFNE06.jpg,AFSA19.jpg,FS,4,num_8,16,num_8,0.600409136092,,,2017_Jul_17_1639,59.9799732593,FEMA4ImagesEEG,001,100989,
AFNE01.JPG,AFNE01.JPG,AFNE01.JPG,AFNE01.JPG,AFNE01.JPG,AFNE01.JPG,,,,,,,,,,,,,,,,,0,8,8,8,,,,,,,AFNE14.jpg,AFNE20.jpg,AFSA11.jpg,AFSA01.jpg,AFNE20.jpg,FN,3,num_6,32,num_4,0.600258708979,,,2017_Jul_17_1639,59.9799732593,FEMA4ImagesEEG,001,100989,
AFNE01.JPG,AFNE01.JPG,AFNE01.JPG,AFNE01.JPG,AFNE01.JPG,AFNE01.JPG,,,,,,,,,,,,,,,,,0,9,9,6,,,,,,,AFSA09.jpg,AFNE02.jpg,AFSA16.jpg,AFNE12.jpg,AFNE12.jpg,FN,3,num_4,32,num_6,0.833709721857,,,2017_Jul_17_1639,59.9799732593,FEMA4ImagesEEG,001,100989,
AFNE01.JPG,AFNE01.JPG,AFNE01.JPG,AFNE01.JPG,AFNE01.JPG,AFNE01.JPG,,,,,,,,,,,,,,,,,1,0,10,7,,,,,,,AFNE01.jpg,AFSA16.jpg,AFSA05.jpg,AFNE09.jpg,AFSA05.jpg,FS,4,num_2,32,num_4,0.316268676295,,,2017_Jul_17_1639,59.9799732593,FEMA4ImagesEEG,001,100989,
AFNE01.JPG,AFNE01.JPG,AFNE01.JPG,AFNE01.JPG,AFNE01.JPG,AFNE01.JPG,,,,,,,,,,,,,,,,,1,1,11,6,,,,,,,AFNE20.jpg,AFNE02.jpg,AFSA14.jpg,AFSA18.jpg,AFSA14.jpg,FS,4,num_2,32,num_4,0.350771973346,,,2017_Jul_17_1639,59.9799732593,FEMA4ImagesEEG,001,100989,
AFNE01.JPG,AFNE01.JPG,AFNE01.JPG,AFNE01.JPG,AFNE01.JPG,AFNE01.JPG,,,,,,,,,,,,,,,,,1,2,12,3,,,,,,,AFSA08.jpg,AFNE18.jpg,AFSA03.jpg,AFNE10.jpg,AFSA03.jpg,FS,4,num_2,32,num_6,0.8020959725,,,2017_Jul_17_1639,59.9799732593,FEMA4ImagesEEG,001,100989,
AFNE01.JPG,AFNE01.JPG,AFNE01.JPG,AFNE01.JPG,AFNE01.JPG,AFNE01.JPG,,,,,,,,,,,,,,,,,1,3,13,2,,,,,,,AFSA10.jpg,AFNE02.jpg,AFNE13.jpg,AFSA15.jpg,AFSA10.jpg,FS,4,num_8,32,num_4,0.916155647483,,,2017_Jul_17_1639,59.9799732593,FEMA4ImagesEEG,001,100989,
AFNE01.JPG,AFNE01.JPG,AFNE01.JPG,AFNE01.JPG,AFNE01.JPG,AFNE01.JPG,,,,,,,,,,,,,,,,,1,4,14,5,,,,,,,AFSA11.jpg,AFNE09.jpg,AFSA14.jpg,AFNE02.jpg,AFNE09.jpg,FN,3,num_6,32,num_8,0.43359412712,,,2017_Jul_17_1639,59.9799732593,FEMA4ImagesEEG,001,100989,
AFNE01.JPG,AFNE01.JPG,AFNE01.JPG,AFNE01.JPG,AFNE01.JPG,AFNE01.JPG,,,,,,,,,,,,,,,,,1,5,15,0,,,,,,,AFNE01.jpg,AFSA20.jpg,AFSA01.jpg,AFNE19.jpg,AFNE19.jpg,FN,3,num_4,32,num_6,0.38370396457,,,2017_Jul_17_1639,59.9799732593,FEMA4ImagesEEG,001,100989,
AFNE01.JPG,AFNE01.JPG,AFNE01.JPG,AFNE01.JPG,AFNE01.JPG,AFNE01.JPG,,,,,,,,,,,,,,,,,1,6,16,8,,,,,,,AFNE11.jpg,AFSA07.jpg,AFSA16.jpg,AFNE01.jpg,AFSA16.jpg,FS,4,num_2,16,num_2,0.634937130126,,,2017_Jul_17_1639,59.9799732593,FEMA4ImagesEEG,001,100989,
AFNE01.JPG,AFNE01.JPG,AFNE01.JPG,AFNE01.JPG,AFNE01.JPG,AFNE01.JPG,,,,,,,,,,,,,,,,,1,7,17,9,,,,,,,AFNE13.jpg,AFSA02.jpg,AFSA01.jpg,AFNE19.jpg,AFSA02.jpg,FS,4,num_6,16,num_6,0.564821416716,,,2017_Jul_17_1639,59.9799732593,FEMA4ImagesEEG,001,100989,
AFNE01.JPG,AFNE01.JPG,AFNE01.JPG,AFNE01.JPG,AFNE01.JPG,AFNE01.JPG,,,,,,,,,,,,,,,,,1,8,18,1,,,,,,,AFSA16.jpg,AFSA19.jpg,AFNE05.jpg,AFNE08.jpg,AFSA16.jpg,FS,4,num_8,16,num_8,0.416424267325,,,2017_Jul_17_1639,59.9799732593,FEMA4ImagesEEG,001,100989,
AFNE01.JPG,AFNE01.JPG,AFNE01.JPG,AFNE01.JPG,AFNE01.JPG,AFNE01.JPG,,,,,,,,,,,,,,,,,1,9,19,4,,,,,,,AFSA04.jpg,AFSA19.jpg,AFNE03.jpg,AFNE19.jpg,AFNE03.jpg,FN,3,num_2,32,num_4,0.400495030291,,,2017_Jul_17_1639,59.9799732593,FEMA4ImagesEEG,001,100989,
AFNE01.JPG,AFNE01.JPG,AFNE01.JPG,AFNE01.JPG,AFNE01.JPG,AFNE01.JPG,,,,,,,,,,,,,,,,,2,0,20,0,,,,,,,AFSA18.jpg,AFNE16.jpg,AFSA08.jpg,AFNE09.jpg,AFNE09.jpg,FN,3,num_4,32,num_2,0.267359978498,,,2017_Jul_17_1639,59.9799732593,FEMA4ImagesEEG,001,100989,
AFNE01.JPG,AFNE01.JPG,AFNE01.JPG,AFNE01.JPG,AFNE01.JPG,AFNE01.JPG,,,,,,,,,,,,,,,,,2,1,21,6,,,,,,,AFSA05.jpg,AFNE01.jpg,AFNE14.jpg,AFSA09.jpg,AFSA05.jpg,FS,4,num_8,32,num_6,0.317505450177,,,2017_Jul_17_1639,59.9799732593,FEMA4ImagesEEG,001,100989,
AFNE01.JPG,AFNE01.JPG,AFNE01.JPG,AFNE01.JPG,AFNE01.JPG,AFNE01.JPG,,,,,,,,,,,,,,,,,2,2,22,5,,,,,,,AFSA14.jpg,AFSA08.jpg,AFNE01.jpg,AFNE07.jpg,AFNE07.jpg,FN,3,num_4,32,num_8,0.34975041608,,,2017_Jul_17_1639,59.9799732593,FEMA4ImagesEEG,001,100989,
AFNE01.JPG,AFNE01.JPG,AFNE01.JPG,AFNE01.JPG,AFNE01.JPG,AFNE01.JPG,,,,,,,,,,,,,,,,,2,3,23,9,,,,,,,AFNE02.jpg,AFSA03.jpg,AFNE06.jpg,AFSA16.jpg,AFNE06.jpg,FN,3,num_2,32,num_4,0.48348813855,,,2017_Jul_17_1639,59.9799732593,FEMA4ImagesEEG,001,100989,
AFNE01.JPG,AFNE01.JPG,AFNE01.JPG,AFNE01.JPG,AFNE01.JPG,AFNE01.JPG,,,,,,,,,,,,,,,,,2,4,24,1,,,,,,,AFNE01.jpg,AFNE20.jpg,AFSA09.jpg,AFSA07.jpg,AFSA07.jpg,FS,4,num_4,16,num_4,0.583541413482,,,2017_Jul_17_1639,59.9799732593,FEMA4ImagesEEG,001,100989,
AFNE01.JPG,AFNE01.JPG,AFNE01.JPG,AFNE01.JPG,AFNE01.JPG,AFNE01.JPG,,,,,,,,,,,,,,,,,2,5,25,4,,,,,,,AFNE06.jpg,AFNE08.jpg,AFSA12.jpg,AFSA20.jpg,AFNE08.jpg,FN,3,num_6,16,num_6,0.633727939898,,,2017_Jul_17_1639,59.9799732593,FEMA4ImagesEEG,001,100989,
AFNE01.JPG,AFNE01.JPG,AFNE01.JPG,AFNE01.JPG,AFNE01.JPG,AFNE01.JPG,,,,,,,,,,,,,,,,,2,6,26,7,,,,,,,AFSA08.jpg,AFNE09.jpg,AFSA15.jpg,AFNE04.jpg,AFSA08.jpg,FS,4,num_8,32,num_4,1.48346921488,,,2017_Jul_17_1639,59.9799732593,FEMA4ImagesEEG,001,100989,
AFNE01.JPG,AFNE01.JPG,AFNE01.JPG,AFNE01.JPG,AFNE01.JPG,AFNE01.JPG,,,,,,,,,,,,,,,,,2,7,27,3,,,,,,,AFNE04.jpg,AFSA14.jpg,AFSA19.jpg,AFNE18.jpg,AFSA14.jpg,FS,4,num_6,32,num_2,0.362366086993,,,2017_Jul_17_1639,59.9799732593,FEMA4ImagesEEG,001,100989,
AFNE01.JPG,AFNE01.JPG,AFNE01.JPG,AFNE01.JPG,AFNE01.JPG,AFNE01.JPG,,,,,,,,,,,,,,,,,2,8,28,2,,,,,,,AFSA02.jpg,AFNE08.jpg,AFSA17.jpg,AFNE15.jpg,AFSA17.jpg,FS,4,num_2,32,num_6,0.335464009913,,,2017_Jul_17_1639,59.9799732593,FEMA4ImagesEEG,001,100989,
AFNE01.JPG,AFNE01.JPG,AFNE01.JPG,AFNE01.JPG,AFNE01.JPG,AFNE01.JPG,,,,,,,,,,,,,,,,,2,9,29,8,,,,,,,AFNE12.jpg,AFNE11.jpg,AFSA20.jpg,AFSA01.jpg,AFSA01.jpg,FS,4,num_4,16,num_4,0.351562597727,,,2017_Jul_17_1639,59.9799732593,FEMA4ImagesEEG,001,100989,
AFNE01.JPG,AFNE01.JPG,AFNE01.JPG,AFNE01.JPG,AFNE01.JPG,AFNE01.JPG,,,,,,,,,,,,,,,,,3,0,30,7,,,,,,,AFSA09.jpg,AFSA06.jpg,AFNE10.jpg,AFNE18.jpg,AFSA09.jpg,FS,4,num_8,16,num_8,0.317746326004,,,2017_Jul_17_1639,59.9799732593,FEMA4ImagesEEG,001,100989,
AFNE01.JPG,AFNE01.JPG,AFNE01.JPG,AFNE01.JPG,AFNE01.JPG,AFNE01.JPG,,,,,,,,,,,,,,,,,3,1,31,6,,,,,,,AFSA09.jpg,AFSA20.jpg,AFNE04.jpg,AFNE02.jpg,AFSA20.jpg,FS,4,num_6,16,num_6,0.750507170305,,,2017_Jul_17_1639,59.9799732593,FEMA4ImagesEEG,001,100989,
AFNE01.JPG,AFNE01.JPG,AFNE01.JPG,AFNE01.JPG,AFNE01.JPG,AFNE01.JPG,,,,,,,,,,,,,,,,,3,2,32,0,,,,,,,AFSA13.jpg,AFNE07.jpg,AFNE08.jpg,AFSA03.jpg,AFSA13.jpg,FS,4,num_8,32,num_4,0.467372872252,,,2017_Jul_17_1639,59.9799732593,FEMA4ImagesEEG,001,100989,
AFNE01.JPG,AFNE01.JPG,AFNE01.JPG,AFNE01.JPG,AFNE01.JPG,AFNE01.JPG,,,,,,,,,,,,,,,,,3,3,33,2,,,,,,,AFSA11.jpg,AFNE16.jpg,AFSA08.jpg,AFNE04.jpg,AFNE16.jpg,FN,3,num_6,16,num_6,0.534285354141,,,2017_Jul_17_1639,59.9799732593,FEMA4ImagesEEG,001,100989,
AFNE01.JPG,AFNE01.JPG,AFNE01.JPG,AFNE01.JPG,AFNE01.JPG,AFNE01.JPG,,,,,,,,,,,,,,,,,3,4,34,1,,,,,,,AFNE19.jpg,AFSA20.jpg,AFSA01.jpg,AFNE01.jpg,AFNE19.jpg,FN,3,num_8,32,num_2,0.466327900958,,,2017_Jul_17_1639,59.9799732593,FEMA4ImagesEEG,001,100989,
AFNE01.JPG,AFNE01.JPG,AFNE01.JPG,AFNE01.JPG,AFNE01.JPG,AFNE01.JPG,,,,,,,,,,,,,,,,,3,5,35,8,,,,,,,AFNE14.jpg,AFSA13.jpg,AFNE04.jpg,AFSA02.jpg,AFNE04.jpg,FN,3,num_2,32,num_8,0.632729155179,,,2017_Jul_17_1639,59.9799732593,FEMA4ImagesEEG,001,100989,
AFNE01.JPG,AFNE01.JPG,AFNE01.JPG,AFNE01.JPG,AFNE01.JPG,AFNE01.JPG,,,,,,,,,,,,,,,,,3,6,36,3,,,,,,,AFSA15.jpg,AFSA11.jpg,AFNE02.jpg,AFNE19.jpg,AFNE02.jpg,FN,3,num_2,32,num_6,0.631787782946,,,2017_Jul_17_1639,59.9799732593,FEMA4ImagesEEG,001,100989,
AFNE01.JPG,AFNE01.JPG,AFNE01.JPG,AFNE01.JPG,AFNE01.JPG,AFNE01.JPG,,,,,,,,,,,,,,,,,3,7,37,4,,,,,,,AFSA04.jpg,AFNE01.jpg,AFNE13.jpg,AFSA10.jpg,AFSA04.jpg,FS,4,num_8,32,num_2,0.617554940378,,,2017_Jul_17_1639,59.9799732593,FEMA4ImagesEEG,001,100989,
AFNE01.JPG,AFNE01.JPG,AFNE01.JPG,AFNE01.JPG,AFNE01.JPG,AFNE01.JPG,,,,,,,,,,,,,,,,,3,8,38,5,,,,,,,AFSA04.jpg,AFNE06.jpg,AFSA02.jpg,AFNE01.jpg,AFSA04.jpg,FS,4,num_8,32,num_4,0.382753290873,,,2017_Jul_17_1639,59.9799732593,FEMA4ImagesEEG,001,100989,
AFNE01.JPG,AFNE01.JPG,AFNE01.JPG,AFNE01.JPG,AFNE01.JPG,AFNE01.JPG,,,,,,,,,,,,,,,,,3,9,39,9,,,,,,,AFSA10.jpg,AFSA09.jpg,AFNE05.jpg,AFNE13.jpg,AFSA10.jpg,FS,4,num_8,32,num_6,0.485136421998,,,2017_Jul_17_1639,59.9799732593,FEMA4ImagesEEG,001,100989,
AFNE01.JPG,AFNE01.JPG,AFNE01.JPG,AFNE01.JPG,AFNE01.JPG,AFNE01.JPG,,,,,,,,,,,,,,,,,4,0,40,1,,,,,,,AFSA13.jpg,AFNE19.jpg,AFSA06.jpg,AFNE07.jpg,AFSA06.jpg,FS,4,num_2,32,num_6,0.599925459996,,,2017_Jul_17_1639,59.9799732593,FEMA4ImagesEEG,001,100989,
AFNE01.JPG,AFNE01.JPG,AFNE01.JPG,AFNE01.JPG,AFNE01.JPG,AFNE01.JPG,,,,,,,,,,,,,,,,,4,1,41,5,,,,,,,AFNE10.jpg,AFSA08.jpg,AFSA03.jpg,AFNE06.jpg,AFNE10.jpg,FN,3,num_8,16,num_8,0.283834152982,,,2017_Jul_17_1639,59.9799732593,FEMA4ImagesEEG,001,100989,
AFNE01.JPG,AFNE01.JPG,AFNE01.JPG,AFNE01.JPG,AFNE01.JPG,AFNE01.JPG,,,,,,,,,,,,,,,,,4,2,42,0,,,,,,,AFNE15.jpg,AFNE04.jpg,AFSA09.jpg,AFSA13.jpg,AFSA09.jpg,FS,4,num_2,32,num_8,0.817059781788,,,2017_Jul_17_1639,59.9799732593,FEMA4ImagesEEG,001,100989,
AFNE01.JPG,AFNE01.JPG,AFNE01.JPG,AFNE01.JPG,AFNE01.JPG,AFNE01.JPG,,,,,,,,,,,,,,,,,4,3,43,6,,,,,,,AFNE04.jpg,AFNE19.jpg,AFSA06.jpg,AFSA07.jpg,AFSA07.jpg,FS,4,num_4,16,num_4,0.681704246181,,,2017_Jul_17_1639,59.9799732593,FEMA4ImagesEEG,001,100989,
AFNE01.JPG,AFNE01.JPG,AFNE01.JPG,AFNE01.JPG,AFNE01.JPG,AFNE01.JPG,,,,,,,,,,,,,,,,,4,4,44,7,,,,,,,AFNE05.jpg,AFNE11.jpg,AFSA14.jpg,AFSA13.jpg,AFSA13.jpg,FS,4,num_4,32,num_2,0.833006338788,,,2017_Jul_17_1639,59.9799732593,FEMA4ImagesEEG,001,100989,
AFNE01.JPG,AFNE01.JPG,AFNE01.JPG,AFNE01.JPG,AFNE01.JPG,AFNE01.JPG,,,,,,,,,,,,,,,,,4,5,45,9,,,,,,,AFSA15.jpg,AFNE08.jpg,AFNE14.jpg,AFSA10.jpg,AFNE08.jpg,FN,3,num_6,16,num_6,0.800188851779,,,2017_Jul_17_1639,59.9799732593,FEMA4ImagesEEG,001,100989,
AFNE01.JPG,AFNE01.JPG,AFNE01.JPG,AFNE01.JPG,AFNE01.JPG,AFNE01.JPG,,,,,,,,,,,,,,,,,4,6,46,4,,,,,,,AFNE11.jpg,AFSA09.jpg,AFNE08.jpg,AFSA17.jpg,AFSA17.jpg,FS,4,num_4,16,num_4,0.649976634082,,,2017_Jul_17_1639,59.9799732593,FEMA4ImagesEEG,001,100989,
AFNE01.JPG,AFNE01.JPG,AFNE01.JPG,AFNE01.JPG,AFNE01.JPG,AFNE01.JPG,,,,,,,,,,,,,,,,,4,7,47,8,,,,,,,AFSA03.jpg,AFNE18.jpg,AFSA02.jpg,AFNE19.jpg,AFSA02.jpg,FS,4,num_2,32,num_8,0.566861003099,,,2017_Jul_17_1639,59.9799732593,FEMA4ImagesEEG,001,100989,
AFNE01.JPG,AFNE01.JPG,AFNE01.JPG,AFNE01.JPG,AFNE01.JPG,AFNE01.JPG,,,,,,,,,,,,,,,,,4,8,48,2,,,,,,,AFSA12.jpg,AFSA09.jpg,AFNE06.jpg,AFNE17.jpg,AFSA12.jpg,FS,4,num_8,16,num_8,0.617760214049,,,2017_Jul_17_1639,59.9799732593,FEMA4ImagesEEG,001,100989,
AFNE01.JPG,AFNE01.JPG,AFNE01.JPG,AFNE01.JPG,AFNE01.JPG,AFNE01.JPG,,,,,,,,,,,,,,,,,4,9,49,3,,,,,,,AFSA01.jpg,AFNE12.jpg,AFNE06.jpg,AFSA18.jpg,AFSA18.jpg,FS,4,num_4,16,num_4,0.465795793109,,,2017_Jul_17_1639,59.9799732593,FEMA4ImagesEEG,001,100989,
AFNE01.JPG,AFNE01.JPG,AFNE01.JPG,AFNE01.JPG,AFNE01.JPG,AFNE01.JPG,,,,,,,,,,,,,,,,,5,0,50,4,,,,,,,AFNE18.jpg,AFSA07.jpg,AFSA13.jpg,AFNE14.jpg,AFNE18.jpg,FN,3,num_8,32,num_6,0.65007638426,,,2017_Jul_17_1639,59.9799732593,FEMA4ImagesEEG,001,100989,
AFNE01.JPG,AFNE01.JPG,AFNE01.JPG,AFNE01.JPG,AFNE01.JPG,AFNE01.JPG,,,,,,,,,,,,,,,,,5,1,51,5,,,,,,,AFSA02.jpg,AFNE17.jpg,AFNE16.jpg,AFSA08.jpg,AFSA02.jpg,FS,4,num_8,32,num_2,0.717098880006,,,2017_Jul_17_1639,59.9799732593,FEMA4ImagesEEG,001,100989,
AFNE01.JPG,AFNE01.JPG,AFNE01.JPG,AFNE01.JPG,AFNE01.JPG,AFNE01.JPG,,,,,,,,,,,,,,,,,5,2,52,0,,,,,,,AFSA14.jpg,AFNE01.jpg,AFSA09.jpg,AFNE06.jpg,AFSA09.jpg,FS,4,num_2,16,num_2,0.567537444,,,2017_Jul_17_1639,59.9799732593,FEMA4ImagesEEG,001,100989,
AFNE01.JPG,AFNE01.JPG,AFNE01.JPG,AFNE01.JPG,AFNE01.JPG,AFNE01.JPG,,,,,,,,,,,,,,,,,5,3,53,3,,,,,,,AFNE08.jpg,AFSA08.jpg,AFSA01.jpg,AFNE16.jpg,AFSA08.jpg,FS,4,num_6,16,num_6,0.450612276843,,,2017_Jul_17_1639,59.9799732593,FEMA4ImagesEEG,001,100989,
AFNE01.JPG,AFNE01.JPG,AFNE01.JPG,AFNE01.JPG,AFNE01.JPG,AFNE01.JPG,,,,,,,,,,,,,,,,,5,4,54,1,,,,,,,AFNE16.jpg,AFSA12.jpg,AFNE13.jpg,AFSA14.jpg,AFNE16.jpg,FN,3,num_8,32,num_4,0.532955244886,,,2017_Jul_17_1639,59.9799732593,FEMA4ImagesEEG,001,100989,
AFNE01.JPG,AFNE01.JPG,AFNE01.JPG,AFNE01.JPG,AFNE01.JPG,AFNE01.JPG,,,,,,,,,,,,,,,,,5,5,55,6,,,,,,,AFNE15.jpg,AFNE12.jpg,AFSA05.jpg,AFSA06.jpg,AFSA05.jpg,FS,4,num_2,16,num_2,0.988457525509,,,2017_Jul_17_1639,59.9799732593,FEMA4ImagesEEG,001,100989,
AFNE01.JPG,AFNE01.JPG,AFNE01.JPG,AFNE01.JPG,AFNE01.JPG,AFNE01.JPG,,,,,,,,,,,,,,,,,5,6,56,2,,,,,,,AFSA13.jpg,AFNE07.jpg,AFNE08.jpg,AFSA14.jpg,AFSA14.jpg,FS,4,num_4,32,num_6,0.735176755064,,,2017_Jul_17_1639,59.9799732593,FEMA4ImagesEEG,001,100989,
AFNE01.JPG,AFNE01.JPG,AFNE01.JPG,AFNE01.JPG,AFNE01.JPG,AFNE01.JPG,,,,,,,,,,,,,,,,,5,7,57,9,,,,,,,AFSA13.jpg,AFSA06.jpg,AFNE12.jpg,AFNE13.jpg,AFSA06.jpg,FS,4,num_6,32,num_4,0.28526144649,,,2017_Jul_17_1639,59.9799732593,FEMA4ImagesEEG,001,100989,
AFNE01.JPG,AFNE01.JPG,AFNE01.JPG,AFNE01.JPG,AFNE01.JPG,AFNE01.JPG,,,,,,,,,,,,,,,,,5,8,58,8,,,,,,,AFSA17.jpg,AFSA12.jpg,AFNE16.jpg,AFNE05.jpg,AFNE16.jpg,FN,3,num_2,32,num_6,0.36588845493,,,2017_Jul_17_1639,59.9799732593,FEMA4ImagesEEG,001,100989,
AFNE01.JPG,AFNE01.JPG,AFNE01.JPG,AFNE01.JPG,AFNE01.JPG,AFNE01.JPG,,,,,,,,,,,,,,,,,5,9,59,7,,,,,,,AFNE17.jpg,AFNE05.jpg,AFSA02.jpg,AFSA07.jpg,AFNE17.jpg,FN,3,num_8,16,num_8,0.299025687753,,,2017_Jul_17_1639,59.9799732593,FEMA4ImagesEEG,001,100989,
,,,,,,,,,,,,,,,,,,,,,,,,,,,,,,,,,,,,,,,,,,,space,17.8829744412,2017_Jul_17_1639,59.9799732593,FEMA4ImagesEEG,001,100989,
AFNE01.JPG,AFNE01.JPG,AFNE01.JPG,AFNE01.JPG,AFNE01.JPG,AFNE01.JPG,,,,,,,,,,,,,,,,,,,,,0,0,0,8,,,AMNE09.jpg,AMSA20.jpg,AMSA03.jpg,AMNE16.jpg,AMNE16.jpg,MN,1,num_4,32,num_6,0.316501212881,,,2017_Jul_17_1639,59.9799732593,FEMA4ImagesEEG,001,100989,
AFNE01.JPG,AFNE01.JPG,AFNE01.JPG,AFNE01.JPG,AFNE01.JPG,AFNE01.JPG,,,,,,,,,,,,,,,,,,,,,0,1,1,9,,,AMSA10.jpg,AMNE02.jpg,AMNE06.jpg,AMSA01.jpg,AMNE02.jpg,MN,1,num_6,32,num_8,0.267217890629,,,2017_Jul_17_1639,59.9799732593,FEMA4ImagesEEG,001,100989,
AFNE01.JPG,AFNE01.JPG,AFNE01.JPG,AFNE01.JPG,AFNE01.JPG,AFNE01.JPG,,,,,,,,,,,,,,,,,,,,,0,2,2,4,,,AMNE20.jpg,AMNE16.jpg,AMSA03.jpg,AMSA12.jpg,AMNE16.jpg,MN,1,num_6,32,num_4,0.700163481233,,,2017_Jul_17_1639,59.9799732593,FEMA4ImagesEEG,001,100989,
AFNE01.JPG,AFNE01.JPG,AFNE01.JPG,AFNE01.JPG,AFNE01.JPG,AFNE01.JPG,,,,,,,,,,,,,,,,,,,,,0,3,3,7,,,AMNE07.jpg,AMSA16.jpg,AMNE15.jpg,AMSA19.jpg,AMSA16.jpg,MS,2,num_6,32,num_8,0.282093175643,,,2017_Jul_17_1639,59.9799732593,FEMA4ImagesEEG,001,100989,
AFNE01.JPG,AFNE01.JPG,AFNE01.JPG,AFNE01.JPG,AFNE01.JPG,AFNE01.JPG,,,,,,,,,,,,,,,,,,,,,0,4,4,5,,,AMSA03.jpg,AMNE13.jpg,AMNE02.jpg,AMSA11.jpg,AMNE13.jpg,MN,1,num_6,16,num_6,0.834344787283,,,2017_Jul_17_1639,59.9799732593,FEMA4ImagesEEG,001,100989,
AFNE01.JPG,AFNE01.JPG,AFNE01.JPG,AFNE01.JPG,AFNE01.JPG,AFNE01.JPG,,,,,,,,,,,,,,,,,,,,,0,5,5,3,,,AMNE08.jpg,AMSA06.jpg,AMSA09.jpg,AMNE11.jpg,AMNE08.jpg,MN,1,num_8,32,num_4,0.382758101976,,,2017_Jul_17_1639,59.9799732593,FEMA4ImagesEEG,001,100989,
AFNE01.JPG,AFNE01.JPG,AFNE01.JPG,AFNE01.JPG,AFNE01.JPG,AFNE01.JPG,,,,,,,,,,,,,,,,,,,,,0,6,6,1,,,AMNE17.jpg,AMSA07.jpg,AMNE12.jpg,AMSA20.jpg,AMNE12.jpg,MN,1,num_2,16,num_2,1.53350884232,,,2017_Jul_17_1639,59.9799732593,FEMA4ImagesEEG,001,100989,
AFNE01.JPG,AFNE01.JPG,AFNE01.JPG,AFNE01.JPG,AFNE01.JPG,AFNE01.JPG,,,,,,,,,,,,,,,,,,,,,0,7,7,2,,,AMSA01.jpg,AMNE05.jpg,AMSA08.jpg,AMNE07.jpg,AMSA01.jpg,MS,2,num_8,16,num_8,0.53287890874,,,2017_Jul_17_1639,59.9799732593,FEMA4ImagesEEG,001,100989,
AFNE01.JPG,AFNE01.JPG,AFNE01.JPG,AFNE01.JPG,AFNE01.JPG,AFNE01.JPG,,,,,,,,,,,,,,,,,,,,,0,8,8,6,,,AMSA09.jpg,AMSA18.jpg,AMNE10.jpg,AMNE01.jpg,AMSA18.jpg,MS,2,num_6,16,num_6,0.634417531142,,,2017_Jul_17_1639,59.9799732593,FEMA4ImagesEEG,001,100989,
AFNE01.JPG,AFNE01.JPG,AFNE01.JPG,AFNE01.JPG,AFNE01.JPG,AFNE01.JPG,,,,,,,,,,,,,,,,,,,,,0,9,9,0,,,AMNE19.jpg,AMSA12.jpg,AMSA05.jpg,AMNE03.jpg,AMSA12.jpg,MS,2,num_6,32,num_8,0.966399265631,,,2017_Jul_17_1639,59.9799732593,FEMA4ImagesEEG,001,100989,
AFNE01.JPG,AFNE01.JPG,AFNE01.JPG,AFNE01.JPG,AFNE01.JPG,AFNE01.JPG,,,,,,,,,,,,,,,,,,,,,1,0,10,8,,,AMSA03.jpg,AMNE12.jpg,AMSA02.jpg,AMNE11.jpg,AMSA02.jpg,MS,2,num_2,32,num_6,0.567851127835,,,2017_Jul_17_1639,59.9799732593,FEMA4ImagesEEG,001,100989,
AFNE01.JPG,AFNE01.JPG,AFNE01.JPG,AFNE01.JPG,AFNE01.JPG,AFNE01.JPG,,,,,,,,,,,,,,,,,,,,,1,1,11,0,,,AMSA13.jpg,AMNE13.jpg,AMNE20.jpg,AMSA18.jpg,AMNE13.jpg,MN,1,num_6,32,num_2,1.03432849368,,,2017_Jul_17_1639,59.9799732593,FEMA4ImagesEEG,001,100989,
AFNE01.JPG,AFNE01.JPG,AFNE01.JPG,AFNE01.JPG,AFNE01.JPG,AFNE01.JPG,,,,,,,,,,,,,,,,,,,,,1,2,12,5,,,AMSA06.jpg,AMNE05.jpg,AMSA04.jpg,AMNE16.jpg,AMNE05.jpg,MN,1,num_6,32,num_4,0.267128404135,,,2017_Jul_17_1639,59.9799732593,FEMA4ImagesEEG,001,100989,
AFNE01.JPG,AFNE01.JPG,AFNE01.JPG,AFNE01.JPG,AFNE01.JPG,AFNE01.JPG,,,,,,,,,,,,,,,,,,,,,1,3,13,6,,,AMNE04.jpg,AMNE05.jpg,AMSA09.jpg,AMSA19.jpg,AMNE05.jpg,MN,1,num_6,32,num_8,0.55133108751,,,2017_Jul_17_1639,59.9799732593,FEMA4ImagesEEG,001,100989,
AFNE01.JPG,AFNE01.JPG,AFNE01.JPG,AFNE01.JPG,AFNE01.JPG,AFNE01.JPG,,,,,,,,,,,,,,,,,,,,,1,4,14,9,,,AMSA16.jpg,AMNE06.jpg,AMNE13.jpg,AMSA12.jpg,AMSA12.jpg,MS,2,num_4,32,num_6,0.482895090077,,,2017_Jul_17_1639,59.9799732593,FEMA4ImagesEEG,001,100989,
AFNE01.JPG,AFNE01.JPG,AFNE01.JPG,AFNE01.JPG,AFNE01.JPG,AFNE01.JPG,,,,,,,,,,,,,,,,,,,,,1,5,15,1,,,AMSA20.jpg,AMSA12.jpg,AMNE07.jpg,AMNE20.jpg,AMSA20.jpg,MS,2,num_8,32,num_6,0.6346426907,,,2017_Jul_17_1639,59.9799732593,FEMA4ImagesEEG,001,100989,
AFNE01.JPG,AFNE01.JPG,AFNE01.JPG,AFNE01.JPG,AFNE01.JPG,AFNE01.JPG,,,,,,,,,,,,,,,,,,,,,1,6,16,3,,,AMNE05.jpg,AMSA04.jpg,AMNE11.jpg,AMSA13.jpg,AMSA13.jpg,MS,2,num_4,32,num_2,1.18391430594,,,2017_Jul_17_1639,59.9799732593,FEMA4ImagesEEG,001,100989,
AFNE01.JPG,AFNE01.JPG,AFNE01.JPG,AFNE01.JPG,AFNE01.JPG,AFNE01.JPG,,,,,,,,,,,,,,,,,,,,,1,7,17,7,,,AMNE04.jpg,AMNE16.jpg,AMSA04.jpg,AMSA06.jpg,AMSA06.jpg,MS,2,num_4,32,num_6,0.652000504204,,,2017_Jul_17_1639,59.9799732593,FEMA4ImagesEEG,001,100989,
AFNE01.JPG,AFNE01.JPG,AFNE01.JPG,AFNE01.JPG,AFNE01.JPG,AFNE01.JPG,,,,,,,,,,,,,,,,,,,,,1,8,18,4,,,AMSA18.jpg,AMNE04.jpg,AMSA03.jpg,AMNE07.jpg,AMNE07.jpg,MN,1,num_4,16,num_4,0.718816443317,,,2017_Jul_17_1639,59.9799732593,FEMA4ImagesEEG,001,100989,
AFNE01.JPG,AFNE01.JPG,AFNE01.JPG,AFNE01.JPG,AFNE01.JPG,AFNE01.JPG,,,,,,,,,,,,,,,,,,,,,1,9,19,2,,,AMSA11.jpg,AMNE03.jpg,AMSA04.jpg,AMNE02.jpg,AMSA11.jpg,MS,2,num_8,32,num_2,0.418222977885,,,2017_Jul_17_1639,59.9799732593,FEMA4ImagesEEG,001,100989,
AFNE01.JPG,AFNE01.JPG,AFNE01.JPG,AFNE01.JPG,AFNE01.JPG,AFNE01.JPG,,,,,,,,,,,,,,,,,,,,,2,0,20,4,,,AMNE04.jpg,AMNE07.jpg,AMSA12.jpg,AMSA17.jpg,AMSA12.jpg,MS,2,num_2,32,num_8,0.28271861887,,,2017_Jul_17_1639,59.9799732593,FEMA4ImagesEEG,001,100989,
AFNE01.JPG,AFNE01.JPG,AFNE01.JPG,AFNE01.JPG,AFNE01.JPG,AFNE01.JPG,,,,,,,,,,,,,,,,,,,,,2,1,21,5,,,AMSA14.jpg,AMSA07.jpg,AMNE09.jpg,AMNE16.jpg,AMSA07.jpg,MS,2,num_6,16,num_6,0.301024219407,,,2017_Jul_17_1639,59.9799732593,FEMA4ImagesEEG,001,100989,
AFNE01.JPG,AFNE01.JPG,AFNE01.JPG,AFNE01.JPG,AFNE01.JPG,AFNE01.JPG,,,,,,,,,,,,,,,,,,,,,2,2,22,1,,,AMNE16.jpg,AMSA19.jpg,AMSA13.jpg,AMNE18.jpg,AMNE18.jpg,MN,1,num_4,32,num_2,0.649585331143,,,2017_Jul_17_1639,59.9799732593,FEMA4ImagesEEG,001,100989,
AFNE01.JPG,AFNE01.JPG,AFNE01.JPG,AFNE01.JPG,AFNE01.JPG,AFNE01.JPG,,,,,,,,,,,,,,,,,,,,,2,3,23,6,,,AMNE04.jpg,AMSA17.jpg,AMSA12.jpg,AMNE08.jpg,AMNE04.jpg,MN,1,num_8,32,num_6,0.733905982735,,,2017_Jul_17_1639,59.9799732593,FEMA4ImagesEEG,001,100989,
AFNE01.JPG,AFNE01.JPG,AFNE01.JPG,AFNE01.JPG,AFNE01.JPG,AFNE01.JPG,,,,,,,,,,,,,,,,,,,,,2,4,24,9,,,AMNE16.jpg,AMSA13.jpg,AMNE11.jpg,AMSA01.jpg,AMSA01.jpg,MS,2,num_4,32,num_6,0.600318045897,,,2017_Jul_17_1639,59.9799732593,FEMA4ImagesEEG,001,100989,
AFNE01.JPG,AFNE01.JPG,AFNE01.JPG,AFNE01.JPG,AFNE01.JPG,AFNE01.JPG,,,,,,,,,,,,,,,,,,,,,2,5,25,8,,,AMSA09.jpg,AMNE16.jpg,AMSA19.jpg,AMNE09.jpg,AMSA09.jpg,MS,2,num_8,32,num_6,0.533170782241,,,2017_Jul_17_1639,59.9799732593,FEMA4ImagesEEG,001,100989,
AFNE01.JPG,AFNE01.JPG,AFNE01.JPG,AFNE01.JPG,AFNE01.JPG,AFNE01.JPG,,,,,,,,,,,,,,,,,,,,,2,6,26,0,,,AMNE11.jpg,AMSA04.jpg,AMSA18.jpg,AMNE16.jpg,AMSA04.jpg,MS,2,num_6,32,num_2,1.06677488438,,,2017_Jul_17_1639,59.9799732593,FEMA4ImagesEEG,001,100989,
AFNE01.JPG,AFNE01.JPG,AFNE01.JPG,AFNE01.JPG,AFNE01.JPG,AFNE01.JPG,,,,,,,,,,,,,,,,,,,,,2,7,27,2,,,AMSA01.jpg,AMNE01.jpg,AMNE18.jpg,AMSA15.jpg,AMNE18.jpg,MN,1,num_2,32,num_6,0.299393255926,,,2017_Jul_17_1639,59.9799732593,FEMA4ImagesEEG,001,100989,
AFNE01.JPG,AFNE01.JPG,AFNE01.JPG,AFNE01.JPG,AFNE01.JPG,AFNE01.JPG,,,,,,,,,,,,,,,,,,,,,2,8,28,7,,,AMNE06.jpg,AMSA18.jpg,AMNE02.jpg,AMSA05.jpg,AMSA05.jpg,MS,2,num_4,32,num_8,0.0668059961718,,,2017_Jul_17_1639,59.9799732593,FEMA4ImagesEEG,001,100989,
AFNE01.JPG,AFNE01.JPG,AFNE01.JPG,AFNE01.JPG,AFNE01.JPG,AFNE01.JPG,,,,,,,,,,,,,,,,,,,,,2,9,29,3,,,AMSA03.jpg,AMNE19.jpg,AMNE17.jpg,AMSA10.jpg,AMSA03.jpg,MS,2,num_8,32,num_4,0.517528286873,,,2017_Jul_17_1639,59.9799732593,FEMA4ImagesEEG,001,100989,
AFNE01.JPG,AFNE01.JPG,AFNE01.JPG,AFNE01.JPG,AFNE01.JPG,AFNE01.JPG,,,,,,,,,,,,,,,,,,,,,3,0,30,3,,,AMNE17.jpg,AMSA09.jpg,AMNE10.jpg,AMSA13.jpg,AMSA13.jpg,MS,2,num_4,32,num_2,0.60069234961,,,2017_Jul_17_1639,59.9799732593,FEMA4ImagesEEG,001,100989,
AFNE01.JPG,AFNE01.JPG,AFNE01.JPG,AFNE01.JPG,AFNE01.JPG,AFNE01.JPG,,,,,,,,,,,,,,,,,,,,,3,1,31,2,,,AMNE13.jpg,AMSA15.jpg,AMSA06.jpg,AMNE09.jpg,AMSA15.jpg,MS,2,num_6,16,num_6,0.667766805258,,,2017_Jul_17_1639,59.9799732593,FEMA4ImagesEEG,001,100989,
AFNE01.JPG,AFNE01.JPG,AFNE01.JPG,AFNE01.JPG,AFNE01.JPG,AFNE01.JPG,,,,,,,,,,,,,,,,,,,,,3,2,32,6,,,AMSA15.jpg,AMNE07.jpg,AMNE12.jpg,AMSA19.jpg,AMNE07.jpg,MN,1,num_6,16,num_6,0.449771296262,,,2017_Jul_17_1639,59.9799732593,FEMA4ImagesEEG,001,100989,
AFNE01.JPG,AFNE01.JPG,AFNE01.JPG,AFNE01.JPG,AFNE01.JPG,AFNE01.JPG,,,,,,,,,,,,,,,,,,,,,3,3,33,0,,,AMSA06.jpg,AMSA01.jpg,AMNE02.jpg,AMNE11.jpg,AMNE02.jpg,MN,1,num_2,16,num_2,0.548257434995,,,2017_Jul_17_1639,59.9799732593,FEMA4ImagesEEG,001,100989,
AFNE01.JPG,AFNE01.JPG,AFNE01.JPG,AFNE01.JPG,AFNE01.JPG,AFNE01.JPG,,,,,,,,,,,,,,,,,,,,,3,4,34,9,,,AMNE03.jpg,AMSA01.jpg,AMNE17.jpg,AMSA16.jpg,AMSA16.jpg,MS,2,num_4,32,num_6,0.46686225399,,,2017_Jul_17_1639,59.9799732593,FEMA4ImagesEEG,001,100989,
AFNE01.JPG,AFNE01.JPG,AFNE01.JPG,AFNE01.JPG,AFNE01.JPG,AFNE01.JPG,,,,,,,,,,,,,,,,,,,,,3,5,35,8,,,AMNE04.jpg,AMSA11.jpg,AMSA07.jpg,AMNE15.jpg,AMSA11.jpg,MS,2,num_6,32,num_8,0.517158473518,,,2017_Jul_17_1639,59.9799732593,FEMA4ImagesEEG,001,100989,
AFNE01.JPG,AFNE01.JPG,AFNE01.JPG,AFNE01.JPG,AFNE01.JPG,AFNE01.JPG,,,,,,,,,,,,,,,,,,,,,3,6,36,1,,,AMNE03.jpg,AMSA10.jpg,AMNE01.jpg,AMSA20.jpg,AMSA10.jpg,MS,2,num_6,32,num_4,0.467735308579,,,2017_Jul_17_1639,59.9799732593,FEMA4ImagesEEG,001,100989,
AFNE01.JPG,AFNE01.JPG,AFNE01.JPG,AFNE01.JPG,AFNE01.JPG,AFNE01.JPG,,,,,,,,,,,,,,,,,,,,,3,7,37,4,,,AMSA06.jpg,AMNE10.jpg,AMNE07.jpg,AMSA04.jpg,AMNE10.jpg,MN,1,num_6,16,num_6,0.367547964277,,,2017_Jul_17_1639,59.9799732593,FEMA4ImagesEEG,001,100989,
AFNE01.JPG,AFNE01.JPG,AFNE01.JPG,AFNE01.JPG,AFNE01.JPG,AFNE01.JPG,,,,,,,,,,,,,,,,,,,,,3,8,38,7,,,AMNE20.jpg,AMSA15.jpg,AMSA04.jpg,AMNE10.jpg,AMNE10.jpg,MN,1,num_4,32,num_8,0.300257971274,,,2017_Jul_17_1639,59.9799732593,FEMA4ImagesEEG,001,100989,
