IPosition2,IPosition3,IPosition1,IPosition6,IPosition4,IPosition5,TrialsF1.thisRepN,TrialsF1.thisTrialN,TrialsF1.thisN,TrialsF1.thisIndex,TrialsM1.thisRepN,TrialsM1.thisTrialN,TrialsM1.thisN,TrialsM1.thisIndex,TrialsF2.thisRepN,TrialsF2.thisTrialN,TrialsF2.thisN,TrialsF2.thisIndex,TrialsM2.thisRepN,TrialsM2.thisTrialN,TrialsM2.thisN,TrialsM2.thisIndex,TrialsF3.thisRepN,TrialsF3.thisTrialN,TrialsF3.thisN,TrialsF3.thisIndex,TrialsM3.thisRepN,TrialsM3.thisTrialN,TrialsM3.thisN,TrialsM3.thisIndex,InstrKey_resp.keys,InstrKey_resp.rt,Image0 _Position,Image1 _Position,Image2 _Position,Image3 _Position,Center_image,condition,code,correct_answer,accuracy,Key_Resp.keys,Key_Resp.rt,BreakKey_resp.keys,BreakKey_resp.rt,date,frameRate,expName,session,participant,
,,,,,,,,,,,,,,,,,,,,,,,,,,,,,,space,14.7994286353,,,,,,,,,,,,,,2017_Jul_11_1133,60.0013856165,FEMA4ImagesEEG,001,100900,
AFNE23.JPG,AFNE24.JPG,AFNE22.JPG,AFSA24.JPG,AFSA22.JPG,AFSA23.JPG,0,0,0,8,,,,,,,,,,,,,,,,,,,,,,,AFNE19.jpg,AFSA04.jpg,AFSA05.jpg,AFNE04.jpg,AFSA05.jpg,FS,4,num_2,32,num_4,2.06676089973,,,2017_Jul_11_1133,60.0013856165,FEMA4ImagesEEG,001,100900,
AFNE22.JPG,AFSA24.JPG,AFSA22.JPG,AFNE25.JPG,AFNE24.JPG,AFSA25.JPG,0,1,1,6,,,,,,,,,,,,,,,,,,,,,,,AFSA03.jpg,AFNE01.jpg,AFSA01.jpg,AFNE03.jpg,AFSA03.jpg,FS,4,num_8,32,num_2,1.23346990393,,,2017_Jul_11_1133,60.0013856165,FEMA4ImagesEEG,001,100900,
AFSA21.JPG,AFNE22.JPG,AFNE21.JPG,AFSA23.JPG,AFSA22.JPG,AFNE23.JPG,0,2,2,0,,,,,,,,,,,,,,,,,,,,,,,AFNE01.jpg,AFNE02.jpg,AFSA18.jpg,AFSA20.jpg,AFNE02.jpg,FN,3,num_6,32,num_2,2.36665685195,,,2017_Jul_11_1133,60.0013856165,FEMA4ImagesEEG,001,100900,
AMSA21.JPG,AMNE22.JPG,AMNE21.JPG,AMSA23.JPG,AMSA22.JPG,AMNE23.JPG,0,3,3,1,,,,,,,,,,,,,,,,,,,,,,,AFNE18.jpg,AFSA05.jpg,AFSA20.jpg,AFNE14.jpg,AFNE18.jpg,FN,3,num_8,32,num_4,0.816803397844,,,2017_Jul_11_1133,60.0013856165,FEMA4ImagesEEG,001,100900,
AFSA25.JPG,AFNE24.JPG,AFSA24.JPG,AFNE21.JPG,AFSA21.JPG,AFNE25.JPG,0,4,4,2,,,,,,,,,,,,,,,,,,,,,,,AFNE16.jpg,AFNE04.jpg,AFSA13.jpg,AFSA14.jpg,AFSA14.jpg,FS,4,num_4,32,num_6,2.46667006658,,,2017_Jul_11_1133,60.0013856165,FEMA4ImagesEEG,001,100900,
AFSA21.JPG,AFNE23.JPG,AFNE21.JPG,AFSA25.JPG,AFNE25.JPG,AFSA23.JPG,0,5,5,4,,,,,,,,,,,,,,,,,,,,,,,AFSA09.jpg,AFSA03.jpg,AFNE17.jpg,AFNE04.jpg,AFNE04.jpg,FN,3,num_4,16,num_4,2.61634461256,,,2017_Jul_11_1133,60.0013856165,FEMA4ImagesEEG,001,100900,
AMSA25.JPG,AMNE24.JPG,AMSA24.JPG,AMNE26.JPG,AMSA21.JPG,AMNE25.JPG,0,6,6,3,,,,,,,,,,,,,,,,,,,,,,,AFNE20.jpg,AFNE13.jpg,AFSA15.jpg,AFSA10.jpg,AFNE20.jpg,FN,3,num_8,32,num_2,2.64985544281,,,2017_Jul_11_1133,60.0013856165,FEMA4ImagesEEG,001,100900,
AMNE23.JPG,AMNE24.JPG,AMNE22.JPG,AMSA24.JPG,AMSA22.JPG,AMSA23.JPG,0,7,7,9,,,,,,,,,,,,,,,,,,,,,,,AFNE04.jpg,AFSA16.jpg,AFNE06.jpg,AFSA14.jpg,AFNE06.jpg,FN,3,num_2,16,num_2,2.08324529044,,,2017_Jul_11_1133,60.0013856165,FEMA4ImagesEEG,001,100900,
AMNE22.JPG,AMSA24.JPG,AMSA22.JPG,AMNE25.JPG,AMNE24.JPG,AMSA25.JPG,0,8,8,7,,,,,,,,,,,,,,,,,,,,,,,AFNE16.jpg,AFSA12.jpg,AFSA20.jpg,AFNE06.jpg,AFSA12.jpg,FS,4,num_6,32,num_8,2.6333954283,,,2017_Jul_11_1133,60.0013856165,FEMA4ImagesEEG,001,100900,
AMSA21.JPG,AMNE23.JPG,AMNE21.JPG,AMSA25.JPG,AMNE25.JPG,AMSA23.JPG,0,9,9,5,,,,,,,,,,,,,,,,,,,,,,,AFSA14.jpg,AFNE15.jpg,AFNE11.jpg,AFSA20.jpg,AFNE15.jpg,FN,3,num_6,16,num_6,0.650146674132,,,2017_Jul_11_1133,60.0013856165,FEMA4ImagesEEG,001,100900,
AFNE23.JPG,AFNE24.JPG,AFNE22.JPG,AFSA24.JPG,AFSA22.JPG,AFSA23.JPG,,,,,0,0,0,8,,,,,,,,,,,,,,,,,,,AMNE14.jpg,AMNE19.jpg,AMSA17.jpg,AMSA11.jpg,AMNE19.jpg,MN,1,num_6,32,num_8,1.30003419076,,,2017_Jul_11_1133,60.0013856165,FEMA4ImagesEEG,001,100900,
AFSA21.JPG,AFNE23.JPG,AFNE21.JPG,AFSA25.JPG,AFNE25.JPG,AFSA23.JPG,,,,,0,1,1,4,,,,,,,,,,,,,,,,,,,AMNE17.jpg,AMSA01.jpg,AMNE09.jpg,AMSA08.jpg,AMNE09.jpg,MN,1,num_2,32,num_4,0.81677421066,,,2017_Jul_11_1133,60.0013856165,FEMA4ImagesEEG,001,100900,
AMSA21.JPG,AMNE23.JPG,AMNE21.JPG,AMSA25.JPG,AMNE25.JPG,AMSA23.JPG,,,,,0,2,2,5,,,,,,,,,,,,,,,,,,,AMNE03.jpg,AMSA19.jpg,AMNE07.jpg,AMSA03.jpg,AMSA03.jpg,MS,2,num_4,32,num_2,2.0666698101,,,2017_Jul_11_1133,60.0013856165,FEMA4ImagesEEG,001,100900,
AFNE22.JPG,AFSA24.JPG,AFSA22.JPG,AFNE25.JPG,AFNE24.JPG,AFSA25.JPG,,,,,0,3,3,6,,,,,,,,,,,,,,,,,,,AMSA10.jpg,AMSA19.jpg,AMNE08.jpg,AMNE12.jpg,AMNE08.jpg,MN,1,num_2,32,num_4,0.850118577247,,,2017_Jul_11_1133,60.0013856165,FEMA4ImagesEEG,001,100900,
AMNE22.JPG,AMSA24.JPG,AMSA22.JPG,AMNE25.JPG,AMNE24.JPG,AMSA25.JPG,,,,,0,4,4,7,,,,,,,,,,,,,,,,,,,AMSA07.jpg,AMSA08.jpg,AMNE08.jpg,AMNE04.jpg,AMSA07.jpg,MS,2,num_8,16,num_8,0.866746979766,,,2017_Jul_11_1133,60.0013856165,FEMA4ImagesEEG,001,100900,
AMNE23.JPG,AMNE24.JPG,AMNE22.JPG,AMSA24.JPG,AMSA22.JPG,AMSA23.JPG,,,,,0,5,5,9,,,,,,,,,,,,,,,,,,,AMNE12.jpg,AMSA04.jpg,AMSA01.jpg,AMNE06.jpg,AMNE06.jpg,MN,1,num_4,32,num_6,1.7497259283,,,2017_Jul_11_1133,60.0013856165,FEMA4ImagesEEG,001,100900,
AMSA21.JPG,AMNE22.JPG,AMNE21.JPG,AMSA23.JPG,AMSA22.JPG,AMNE23.JPG,,,,,0,6,6,1,,,,,,,,,,,,,,,,,,,AMNE12.jpg,AMNE06.jpg,AMSA17.jpg,AMSA14.jpg,AMNE06.jpg,MN,1,num_6,16,num_6,0.550170344533,,,2017_Jul_11_1133,60.0013856165,FEMA4ImagesEEG,001,100900,
AFSA25.JPG,AFNE24.JPG,AFSA24.JPG,AFNE21.JPG,AFSA21.JPG,AFNE25.JPG,,,,,0,7,7,2,,,,,,,,,,,,,,,,,,,AMSA07.jpg,AMSA03.jpg,AMNE08.jpg,AMNE01.jpg,AMSA07.jpg,MS,2,num_8,32,num_6,1.40014330624,,,2017_Jul_11_1133,60.0013856165,FEMA4ImagesEEG,001,100900,
AMSA25.JPG,AMNE24.JPG,AMSA24.JPG,AMNE26.JPG,AMSA21.JPG,AMNE25.JPG,,,,,0,8,8,3,,,,,,,,,,,,,,,,,,,AMSA12.jpg,AMSA15.jpg,AMNE17.jpg,AMNE02.jpg,AMSA12.jpg,MS,2,num_8,16,num_8,2.76659937575,,,2017_Jul_11_1133,60.0013856165,FEMA4ImagesEEG,001,100900,
AFSA21.JPG,AFNE22.JPG,AFNE21.JPG,AFSA23.JPG,AFSA22.JPG,AFNE23.JPG,,,,,0,9,9,0,,,,,,,,,,,,,,,,,,,AMSA19.jpg,AMNE10.jpg,AMNE17.jpg,AMSA02.jpg,AMNE17.jpg,MN,1,num_2,32,num_4,2.35005282587,,,2017_Jul_11_1133,60.0013856165,FEMA4ImagesEEG,001,100900,
AMSA21.JPG,AMNE23.JPG,AMNE21.JPG,AMSA25.JPG,AMNE25.JPG,AMSA23.JPG,,,,,,,,,0,0,0,5,,,,,,,,,,,,,,,AFNE01.jpg,AFSA14.jpg,AFNE15.jpg,AFSA18.jpg,AFSA18.jpg,FS,4,num_4,32,num_8,2.2166217952,,,2017_Jul_11_1133,60.0013856165,FEMA4ImagesEEG,001,100900,
AFSA21.JPG,AFNE22.JPG,AFNE21.JPG,AFSA23.JPG,AFSA22.JPG,AFNE23.JPG,,,,,,,,,0,1,1,0,,,,,,,,,,,,,,,AFSA20.jpg,AFSA08.jpg,AFNE12.jpg,AFNE15.jpg,AFNE15.jpg,FN,3,num_4,16,num_4,0.900087497663,,,2017_Jul_11_1133,60.0013856165,FEMA4ImagesEEG,001,100900,
AFSA25.JPG,AFNE24.JPG,AFSA24.JPG,AFNE21.JPG,AFSA21.JPG,AFNE25.JPG,,,,,,,,,0,2,2,2,,,,,,,,,,,,,,,AFSA15.jpg,AFNE04.jpg,AFNE13.jpg,AFSA19.jpg,AFSA15.jpg,FS,4,num_8,16,num_8,0.866731584305,,,2017_Jul_11_1133,60.0013856165,FEMA4ImagesEEG,001,100900,
AFNE22.JPG,AFSA24.JPG,AFSA22.JPG,AFNE25.JPG,AFNE24.JPG,AFSA25.JPG,,,,,,,,,0,3,3,6,,,,,,,,,,,,,,,AFNE13.jpg,AFSA10.jpg,AFNE01.jpg,AFSA14.jpg,AFNE13.jpg,FN,3,num_8,32,num_4,0.933448542841,,,2017_Jul_11_1133,60.0013856165,FEMA4ImagesEEG,001,100900,
AMSA21.JPG,AMNE22.JPG,AMNE21.JPG,AMSA23.JPG,AMSA22.JPG,AMNE23.JPG,,,,,,,,,0,4,4,1,,,,,,,,,,,,,,,AFNE16.jpg,AFSA12.jpg,AFNE07.jpg,AFSA10.jpg,AFSA10.jpg,FS,4,num_4,16,num_4,1.36669694423,,,2017_Jul_11_1133,60.0013856165,FEMA4ImagesEEG,001,100900,
AMSA25.JPG,AMNE24.JPG,AMSA24.JPG,AMNE26.JPG,AMSA21.JPG,AMNE25.JPG,,,,,,,,,0,5,5,3,,,,,,,,,,,,,,,AFNE02.jpg,AFSA11.jpg,AFNE15.jpg,AFSA17.jpg,AFNE15.jpg,FN,3,num_2,16,num_2,0.783456464997,,,2017_Jul_11_1133,60.0013856165,FEMA4ImagesEEG,001,100900,
AFNE23.JPG,AFNE24.JPG,AFNE22.JPG,AFSA24.JPG,AFSA22.JPG,AFSA23.JPG,,,,,,,,,0,6,6,8,,,,,,,,,,,,,,,AFSA09.jpg,AFNE08.jpg,AFSA14.jpg,AFNE15.jpg,AFSA14.jpg,FS,4,num_2,32,num_6,0.983444726095,,,2017_Jul_11_1133,60.0013856165,FEMA4ImagesEEG,001,100900,
AMNE22.JPG,AMSA24.JPG,AMSA22.JPG,AMNE25.JPG,AMNE24.JPG,AMSA25.JPG,,,,,,,,,0,7,7,7,,,,,,,,,,,,,,,AFNE05.jpg,AFSA13.jpg,AFSA18.jpg,AFNE03.jpg,AFNE05.jpg,FN,3,num_8,32,num_4,0.983473913278,,,2017_Jul_11_1133,60.0013856165,FEMA4ImagesEEG,001,100900,
AFSA21.JPG,AFNE23.JPG,AFNE21.JPG,AFSA25.JPG,AFNE25.JPG,AFSA23.JPG,,,,,,,,,0,8,8,4,,,,,,,,,,,,,,,AFSA04.jpg,AFNE05.jpg,AFNE01.jpg,AFSA08.jpg,AFNE05.jpg,FN,3,num_6,16,num_6,0.533468171954,,,2017_Jul_11_1133,60.0013856165,FEMA4ImagesEEG,001,100900,
AMNE23.JPG,AMNE24.JPG,AMNE22.JPG,AMSA24.JPG,AMSA22.JPG,AMSA23.JPG,,,,,,,,,0,9,9,9,,,,,,,,,,,,,,,AFNE09.jpg,AFSA13.jpg,AFNE20.jpg,AFSA12.jpg,AFNE20.jpg,FN,3,num_2,32,num_8,1.41681436705,,,2017_Jul_11_1133,60.0013856165,FEMA4ImagesEEG,001,100900,
AFNE23.JPG,AFNE24.JPG,AFNE22.JPG,AFSA24.JPG,AFSA22.JPG,AFSA23.JPG,,,,,,,,,,,,,0,0,0,8,,,,,,,,,,,AMSA13.jpg,AMSA02.jpg,AMNE12.jpg,AMNE15.jpg,AMNE15.jpg,MN,1,num_4,16,num_4,0.750111777568,,,2017_Jul_11_1133,60.0013856165,FEMA4ImagesEEG,001,100900,
AFSA21.JPG,AFNE22.JPG,AFNE21.JPG,AFSA23.JPG,AFSA22.JPG,AFNE23.JPG,,,,,,,,,,,,,0,1,1,0,,,,,,,,,,,AMSA04.jpg,AMNE03.jpg,AMSA02.jpg,AMNE20.jpg,AMSA04.jpg,MS,2,num_8,32,num_6,0.833477986511,,,2017_Jul_11_1133,60.0013856165,FEMA4ImagesEEG,001,100900,
AMSA21.JPG,AMNE23.JPG,AMNE21.JPG,AMSA25.JPG,AMNE25.JPG,AMSA23.JPG,,,,,,,,,,,,,0,2,2,5,,,,,,,,,,,AMNE20.jpg,AMSA13.jpg,AMSA06.jpg,AMNE05.jpg,AMSA06.jpg,MS,2,num_2,32,num_6,2.18335312302,,,2017_Jul_11_1133,60.0013856165,FEMA4ImagesEEG,001,100900,
AFNE22.JPG,AFSA24.JPG,AFSA22.JPG,AFNE25.JPG,AFNE24.JPG,AFSA25.JPG,,,,,,,,,,,,,0,3,3,6,,,,,,,,,,,AMNE03.jpg,AMNE14.jpg,AMSA09.jpg,AMSA13.jpg,AMSA09.jpg,MS,2,num_2,16,num_2,3.36653400888,,,2017_Jul_11_1133,60.0013856165,FEMA4ImagesEEG,001,100900,
AFSA25.JPG,AFNE24.JPG,AFSA24.JPG,AFNE21.JPG,AFSA21.JPG,AFNE25.JPG,,,,,,,,,,,,,0,4,4,2,,,,,,,,,,,AMSA06.jpg,AMNE02.jpg,AMNE18.jpg,AMSA10.jpg,AMSA06.jpg,MS,2,num_8,32,num_4,0.933448863681,,,2017_Jul_11_1133,60.0013856165,FEMA4ImagesEEG,001,100900,
AMNE22.JPG,AMSA24.JPG,AMSA22.JPG,AMNE25.JPG,AMNE24.JPG,AMSA25.JPG,,,,,,,,,,,,,0,5,5,7,,,,,,,,,,,AMSA04.jpg,AMSA03.jpg,AMNE05.jpg,AMNE13.jpg,AMNE13.jpg,MN,1,num_4,32,num_6,1.81639253092,,,2017_Jul_11_1133,60.0013856165,FEMA4ImagesEEG,001,100900,
AMSA21.JPG,AMNE22.JPG,AMNE21.JPG,AMSA23.JPG,AMSA22.JPG,AMNE23.JPG,,,,,,,,,,,,,0,6,6,1,,,,,,,,,,,AMNE18.jpg,AMSA16.jpg,AMSA11.jpg,AMNE13.jpg,AMSA11.jpg,MS,2,num_2,32,num_6,0.783443635562,,,2017_Jul_11_1133,60.0013856165,FEMA4ImagesEEG,001,100900,
AMNE23.JPG,AMNE24.JPG,AMNE22.JPG,AMSA24.JPG,AMSA22.JPG,AMSA23.JPG,,,,,,,,,,,,,0,7,7,9,,,,,,,,,,,AMNE11.jpg,AMNE17.jpg,AMSA17.jpg,AMSA07.jpg,AMSA17.jpg,MS,2,num_2,32,num_6,3.09993944457,,,2017_Jul_11_1133,60.0013856165,FEMA4ImagesEEG,001,100900,
AMSA25.JPG,AMNE24.JPG,AMSA24.JPG,AMNE26.JPG,AMSA21.JPG,AMNE25.JPG,,,,,,,,,,,,,0,8,8,3,,,,,,,,,,,AMNE06.jpg,AMSA19.jpg,AMNE09.jpg,AMSA10.jpg,AMSA10.jpg,MS,2,num_4,16,num_4,2.06695462624,,,2017_Jul_11_1133,60.0013856165,FEMA4ImagesEEG,001,100900,
AFSA21.JPG,AFNE23.JPG,AFNE21.JPG,AFSA25.JPG,AFNE25.JPG,AFSA23.JPG,,,,,,,,,,,,,0,9,9,4,,,,,,,,,,,AMSA01.jpg,AMNE05.jpg,AMSA18.jpg,AMNE01.jpg,AMNE01.jpg,MN,1,num_4,16,num_4,0.833459704649,,,2017_Jul_11_1133,60.0013856165,FEMA4ImagesEEG,001,100900,
AMSA21.JPG,AMNE22.JPG,AMNE21.JPG,AMSA23.JPG,AMSA22.JPG,AMNE23.JPG,,,,,,,,,,,,,,,,,0,0,0,1,,,,,,,AFNE02.jpg,AFSA01.jpg,AFSA03.jpg,AFNE07.jpg,AFSA03.jpg,FS,4,num_2,32,num_6,0.700136121828,,,2017_Jul_11_1133,60.0013856165,FEMA4ImagesEEG,001,100900,
AFSA21.JPG,AFNE22.JPG,AFNE21.JPG,AFSA23.JPG,AFSA22.JPG,AFNE23.JPG,,,,,,,,,,,,,,,,,0,1,1,0,,,,,,,AFSA20.jpg,AFNE06.jpg,AFSA01.jpg,AFNE19.jpg,AFNE06.jpg,FN,3,num_6,32,num_8,2.03334629117,,,2017_Jul_11_1133,60.0013856165,FEMA4ImagesEEG,001,100900,
AFNE22.JPG,AFSA24.JPG,AFSA22.JPG,AFNE25.JPG,AFNE24.JPG,AFSA25.JPG,,,,,,,,,,,,,,,,,0,2,2,6,,,,,,,AFSA11.jpg,AFNE12.jpg,AFNE19.jpg,AFSA09.jpg,AFNE19.jpg,FN,3,num_2,16,num_2,1.01676343358,,,2017_Jul_11_1133,60.0013856165,FEMA4ImagesEEG,001,100900,
AFSA21.JPG,AFNE23.JPG,AFNE21.JPG,AFSA25.JPG,AFNE25.JPG,AFSA23.JPG,,,,,,,,,,,,,,,,,0,3,3,4,,,,,,,AFSA04.jpg,AFNE13.jpg,AFNE11.jpg,AFSA15.jpg,AFNE11.jpg,FN,3,num_2,32,num_8,2.28334516869,,,2017_Jul_11_1133,60.0013856165,FEMA4ImagesEEG,001,100900,
AFSA25.JPG,AFNE24.JPG,AFSA24.JPG,AFNE21.JPG,AFSA21.JPG,AFNE25.JPG,,,,,,,,,,,,,,,,,0,4,4,2,,,,,,,AFNE05.jpg,AFNE01.jpg,AFSA17.jpg,AFSA07.jpg,AFNE01.jpg,FN,3,num_6,32,num_8,1.40010610037,,,2017_Jul_11_1133,60.0013856165,FEMA4ImagesEEG,001,100900,
AMSA21.JPG,AMNE23.JPG,AMNE21.JPG,AMSA25.JPG,AMNE25.JPG,AMSA23.JPG,,,,,,,,,,,,,,,,,0,5,5,5,,,,,,,AFSA20.jpg,AFSA12.jpg,AFNE10.jpg,AFNE13.jpg,AFNE10.jpg,FN,3,num_2,32,num_8,1.99970684433,,,2017_Jul_11_1133,60.0013856165,FEMA4ImagesEEG,001,100900,
AFNE23.JPG,AFNE24.JPG,AFNE22.JPG,AFSA24.JPG,AFSA22.JPG,AFSA23.JPG,,,,,,,,,,,,,,,,,0,6,6,8,,,,,,,AFNE02.jpg,AFSA17.jpg,AFSA12.jpg,AFNE03.jpg,AFSA12.jpg,FS,4,num_2,16,num_2,1.08343356452,,,2017_Jul_11_1133,60.0013856165,FEMA4ImagesEEG,001,100900,
AMSA25.JPG,AMNE24.JPG,AMSA24.JPG,AMNE26.JPG,AMSA21.JPG,AMNE25.JPG,,,,,,,,,,,,,,,,,0,7,7,3,,,,,,,AFNE20.jpg,AFNE19.jpg,AFSA20.jpg,AFSA15.jpg,AFNE20.jpg,FN,3,num_8,32,num_4,1.61676574312,,,2017_Jul_11_1133,60.0013856165,FEMA4ImagesEEG,001,100900,
AMNE23.JPG,AMNE24.JPG,AMNE22.JPG,AMSA24.JPG,AMSA22.JPG,AMSA23.JPG,,,,,,,,,,,,,,,,,0,8,8,9,,,,,,,AFNE07.jpg,AFSA18.jpg,AFNE13.jpg,AFSA11.jpg,AFNE13.jpg,FN,3,num_2,16,num_2,0.70013419725,,,2017_Jul_11_1133,60.0013856165,FEMA4ImagesEEG,001,100900,
AMNE22.JPG,AMSA24.JPG,AMSA22.JPG,AMNE25.JPG,AMNE24.JPG,AMSA25.JPG,,,,,,,,,,,,,,,,,0,9,9,7,,,,,,,AFSA11.jpg,AFSA17.jpg,AFNE07.jpg,AFNE08.jpg,AFNE08.jpg,FN,3,num_4,16,num_4,1.18342111981,,,2017_Jul_11_1133,60.0013856165,FEMA4ImagesEEG,001,100900,
AFNE22.JPG,AFSA24.JPG,AFSA22.JPG,AFNE25.JPG,AFNE24.JPG,AFSA25.JPG,,,,,,,,,,,,,,,,,,,,,0,0,0,6,,,AMNE18.jpg,AMSA09.jpg,AMSA15.jpg,AMNE01.jpg,AMNE01.jpg,MN,1,num_4,16,num_4,0.933490239084,,,2017_Jul_11_1133,60.0013856165,FEMA4ImagesEEG,001,100900,
AMSA21.JPG,AMNE23.JPG,AMNE21.JPG,AMSA25.JPG,AMNE25.JPG,AMSA23.JPG,,,,,,,,,,,,,,,,,,,,,0,1,1,5,,,AMNE20.jpg,AMSA13.jpg,AMSA17.jpg,AMNE05.jpg,AMNE05.jpg,MN,1,num_4,32,num_8,2.01667523035,,,2017_Jul_11_1133,60.0013856165,FEMA4ImagesEEG,001,100900,
AFSA21.JPG,AFNE22.JPG,AFNE21.JPG,AFSA23.JPG,AFSA22.JPG,AFNE23.JPG,,,,,,,,,,,,,,,,,,,,,0,2,2,0,,,AMSA10.jpg,AMSA02.jpg,AMNE14.jpg,AMNE19.jpg,AMNE14.jpg,MN,1,num_2,32,num_6,1.4167649732,,,2017_Jul_11_1133,60.0013856165,FEMA4ImagesEEG,001,100900,
AMNE22.JPG,AMSA24.JPG,AMSA22.JPG,AMNE25.JPG,AMNE24.JPG,AMSA25.JPG,,,,,,,,,,,,,,,,,,,,,0,3,3,7,,,AMSA01.jpg,AMNE18.jpg,AMSA16.jpg,AMNE01.jpg,AMSA16.jpg,MS,2,num_2,16,num_2,1.10008281493,,,2017_Jul_11_1133,60.0013856165,FEMA4ImagesEEG,001,100900,
AFNE23.JPG,AFNE24.JPG,AFNE22.JPG,AFSA24.JPG,AFSA22.JPG,AFSA23.JPG,,,,,,,,,,,,,,,,,,,,,0,4,4,8,,,AMNE16.jpg,AMSA06.jpg,AMNE20.jpg,AMSA11.jpg,AMSA06.jpg,MS,2,num_6,32,num_4,1.08340630145,,,2017_Jul_11_1133,60.0013856165,FEMA4ImagesEEG,001,100900,
AMNE23.JPG,AMNE24.JPG,AMNE22.JPG,AMSA24.JPG,AMSA22.JPG,AMSA23.JPG,,,,,,,,,,,,,,,,,,,,,0,5,5,9,,,AMNE01.jpg,AMSA04.jpg,AMSA03.jpg,AMNE07.jpg,AMNE07.jpg,MN,1,num_4,16,num_4,0.666618876392,,,2017_Jul_11_1133,60.0013856165,FEMA4ImagesEEG,001,100900,
AMSA21.JPG,AMNE22.JPG,AMNE21.JPG,AMSA23.JPG,AMSA22.JPG,AMNE23.JPG,,,,,,,,,,,,,,,,,,,,,0,6,6,1,,,AMSA14.jpg,AMSA06.jpg,AMNE14.jpg,AMNE03.jpg,AMNE14.jpg,MN,1,num_2,16,num_2,0.866787713487,,,2017_Jul_11_1133,60.0013856165,FEMA4ImagesEEG,001,100900,
AFSA25.JPG,AFNE24.JPG,AFSA24.JPG,AFNE21.JPG,AFSA21.JPG,AFNE25.JPG,,,,,,,,,,,,,,,,,,,,,0,7,7,2,,,AMSA17.jpg,AMSA08.jpg,AMNE10.jpg,AMNE16.jpg,AMNE10.jpg,MN,1,num_2,16,num_2,0.65003088722,,,2017_Jul_11_1133,60.0013856165,FEMA4ImagesEEG,001,100900,
AFSA21.JPG,AFNE23.JPG,AFNE21.JPG,AFSA25.JPG,AFNE25.JPG,AFSA23.JPG,,,,,,,,,,,,,,,,,,,,,0,8,8,4,,,AMNE01.jpg,AMSA13.jpg,AMSA14.jpg,AMNE13.jpg,AMNE01.jpg,MN,1,num_8,32,num_6,0.800159279257,,,2017_Jul_11_1133,60.0013856165,FEMA4ImagesEEG,001,100900,
AMSA25.JPG,AMNE24.JPG,AMSA24.JPG,AMNE26.JPG,AMSA21.JPG,AMNE25.JPG,,,,,,,,,,,,,,,,,,,,,0,9,9,3,,,AMNE18.jpg,AMNE20.jpg,AMSA05.jpg,AMSA10.jpg,AMNE20.jpg,MN,1,num_6,16,num_6,0.483478724491,,,2017_Jul_11_1133,60.0013856165,FEMA4ImagesEEG,001,100900,
,,,,,,,,,,,,,,,,,,,,,,,,,,,,,,,,,,,,,,,,,,,space,17.1154513536,2017_Jul_11_1133,60.0013856165,FEMA4ImagesEEG,001,100900,
AFNE01.JPG,AFNE01.JPG,AFNE01.JPG,AFNE01.JPG,AFNE01.JPG,AFNE01.JPG,0,0,0,0,,,,,,,,,,,,,,,,,,,,,,,AFSA07.jpg,AFNE04.jpg,AFNE15.jpg,AFSA20.jpg,AFNE15.jpg,FN,3,num_2,16,num_2,1.00014337036,,,2017_Jul_11_1133,60.0013856165,FEMA4ImagesEEG,001,100900,
AFNE01.JPG,AFNE01.JPG,AFNE01.JPG,AFNE01.JPG,AFNE01.JPG,AFNE01.JPG,0,1,1,1,,,,,,,,,,,,,,,,,,,,,,,AFSA14.jpg,AFSA04.jpg,AFNE16.jpg,AFNE04.jpg,AFSA14.jpg,FS,4,num_8,32,num_4,0.966776872752,,,2017_Jul_11_1133,60.0013856165,FEMA4ImagesEEG,001,100900,
AFNE01.JPG,AFNE01.JPG,AFNE01.JPG,AFNE01.JPG,AFNE01.JPG,AFNE01.JPG,0,2,2,4,,,,,,,,,,,,,,,,,,,,,,,AFSA17.jpg,AFNE17.jpg,AFNE14.jpg,AFSA06.jpg,AFNE14.jpg,FN,3,num_2,32,num_4,0.733476318885,,,2017_Jul_11_1133,60.0013856165,FEMA4ImagesEEG,001,100900,
AFNE01.JPG,AFNE01.JPG,AFNE01.JPG,AFNE01.JPG,AFNE01.JPG,AFNE01.JPG,0,3,3,5,,,,,,,,,,,,,,,,,,,,,,,AFNE14.jpg,AFNE15.jpg,AFSA14.jpg,AFSA10.jpg,AFSA10.jpg,FS,4,num_4,16,num_4,0.799821540713,,,2017_Jul_11_1133,60.0013856165,FEMA4ImagesEEG,001,100900,
AFNE01.JPG,AFNE01.JPG,AFNE01.JPG,AFNE01.JPG,AFNE01.JPG,AFNE01.JPG,0,4,4,2,,,,,,,,,,,,,,,,,,,,,,,AFNE09.jpg,AFNE20.jpg,AFSA09.jpg,AFSA08.jpg,AFSA09.jpg,FS,4,num_2,32,num_4,1.36677231826,,,2017_Jul_11_1133,60.0013856165,FEMA4ImagesEEG,001,100900,
AFNE01.JPG,AFNE01.JPG,AFNE01.JPG,AFNE01.JPG,AFNE01.JPG,AFNE01.JPG,0,5,5,6,,,,,,,,,,,,,,,,,,,,,,,AFNE08.jpg,AFSA19.jpg,AFSA15.jpg,AFNE11.jpg,AFSA19.jpg,FS,4,num_6,16,num_6,0.516852278495,,,2017_Jul_11_1133,60.0013856165,FEMA4ImagesEEG,001,100900,
AFNE01.JPG,AFNE01.JPG,AFNE01.JPG,AFNE01.JPG,AFNE01.JPG,AFNE01.JPG,0,6,6,3,,,,,,,,,,,,,,,,,,,,,,,AFSA13.jpg,AFSA11.jpg,AFNE14.jpg,AFNE08.jpg,AFNE14.jpg,FN,3,num_2,16,num_2,0.633453161689,,,2017_Jul_11_1133,60.0013856165,FEMA4ImagesEEG,001,100900,
AFNE01.JPG,AFNE01.JPG,AFNE01.JPG,AFNE01.JPG,AFNE01.JPG,AFNE01.JPG,0,7,7,7,,,,,,,,,,,,,,,,,,,,,,,AFNE20.jpg,AFNE15.jpg,AFSA10.jpg,AFSA20.jpg,AFNE20.jpg,FN,3,num_8,32,num_2,1.00019116071,,,2017_Jul_11_1133,60.0013856165,FEMA4ImagesEEG,001,100900,
AFNE01.JPG,AFNE01.JPG,AFNE01.JPG,AFNE01.JPG,AFNE01.JPG,AFNE01.JPG,0,8,8,9,,,,,,,,,,,,,,,,,,,,,,,AFNE04.jpg,AFNE19.jpg,AFSA16.jpg,AFSA12.jpg,AFNE04.jpg,FN,3,num_8,32,num_4,1.81667029089,,,2017_Jul_11_1133,60.0013856165,FEMA4ImagesEEG,001,100900,
AFNE01.JPG,AFNE01.JPG,AFNE01.JPG,AFNE01.JPG,AFNE01.JPG,AFNE01.JPG,0,9,9,8,,,,,,,,,,,,,,,,,,,,,,,AFNE10.jpg,AFSA20.jpg,AFSA02.jpg,AFNE15.jpg,AFSA02.jpg,FS,4,num_2,32,num_6,0.966757949209,,,2017_Jul_11_1133,60.0013856165,FEMA4ImagesEEG,001,100900,
AFNE01.JPG,AFNE01.JPG,AFNE01.JPG,AFNE01.JPG,AFNE01.JPG,AFNE01.JPG,1,0,10,7,,,,,,,,,,,,,,,,,,,,,,,AFSA14.jpg,AFSA08.jpg,AFNE02.jpg,AFNE12.jpg,AFSA14.jpg,FS,4,num_8,32,num_4,0.616819947958,,,2017_Jul_11_1133,60.0013856165,FEMA4ImagesEEG,001,100900,
AFNE01.JPG,AFNE01.JPG,AFNE01.JPG,AFNE01.JPG,AFNE01.JPG,AFNE01.JPG,1,1,11,5,,,,,,,,,,,,,,,,,,,,,,,AFNE12.jpg,AFNE19.jpg,AFSA05.jpg,AFSA13.jpg,AFSA13.jpg,FS,4,num_4,32,num_2,1.88339783391,,,2017_Jul_11_1133,60.0013856165,FEMA4ImagesEEG,001,100900,
AFNE01.JPG,AFNE01.JPG,AFNE01.JPG,AFNE01.JPG,AFNE01.JPG,AFNE01.JPG,1,2,12,6,,,,,,,,,,,,,,,,,,,,,,,AFNE13.jpg,AFSA15.jpg,AFSA03.jpg,AFNE18.jpg,AFSA03.jpg,FS,4,num_2,16,num_2,1.41658600071,,,2017_Jul_11_1133,60.0013856165,FEMA4ImagesEEG,001,100900,
AFNE01.JPG,AFNE01.JPG,AFNE01.JPG,AFNE01.JPG,AFNE01.JPG,AFNE01.JPG,1,3,13,8,,,,,,,,,,,,,,,,,,,,,,,AFNE06.jpg,AFSA03.jpg,AFNE13.jpg,AFSA04.jpg,AFSA04.jpg,FS,4,num_4,32,num_8,1.41671814537,,,2017_Jul_11_1133,60.0013856165,FEMA4ImagesEEG,001,100900,
AFNE01.JPG,AFNE01.JPG,AFNE01.JPG,AFNE01.JPG,AFNE01.JPG,AFNE01.JPG,1,4,14,3,,,,,,,,,,,,,,,,,,,,,,,AFNE02.jpg,AFSA15.jpg,AFNE07.jpg,AFSA14.jpg,AFSA14.jpg,FS,4,num_4,16,num_4,0.766788932495,,,2017_Jul_11_1133,60.0013856165,FEMA4ImagesEEG,001,100900,
AFNE01.JPG,AFNE01.JPG,AFNE01.JPG,AFNE01.JPG,AFNE01.JPG,AFNE01.JPG,1,5,15,1,,,,,,,,,,,,,,,,,,,,,,,AFSA20.jpg,AFNE16.jpg,AFNE05.jpg,AFSA06.jpg,AFSA20.jpg,FS,4,num_8,32,num_2,1.06676025852,,,2017_Jul_11_1133,60.0013856165,FEMA4ImagesEEG,001,100900,
AFNE01.JPG,AFNE01.JPG,AFNE01.JPG,AFNE01.JPG,AFNE01.JPG,AFNE01.JPG,1,6,16,4,,,,,,,,,,,,,,,,,,,,,,,AFNE11.jpg,AFSA09.jpg,AFSA14.jpg,AFNE03.jpg,AFNE03.jpg,FN,3,num_4,32,num_8,1.78337275214,,,2017_Jul_11_1133,60.0013856165,FEMA4ImagesEEG,001,100900,
AFNE01.JPG,AFNE01.JPG,AFNE01.JPG,AFNE01.JPG,AFNE01.JPG,AFNE01.JPG,1,7,17,0,,,,,,,,,,,,,,,,,,,,,,,AFNE17.jpg,AFNE11.jpg,AFSA17.jpg,AFSA10.jpg,AFSA10.jpg,FS,4,num_4,32,num_6,0.816780625377,,,2017_Jul_11_1133,60.0013856165,FEMA4ImagesEEG,001,100900,
AFNE01.JPG,AFNE01.JPG,AFNE01.JPG,AFNE01.JPG,AFNE01.JPG,AFNE01.JPG,1,8,18,2,,,,,,,,,,,,,,,,,,,,,,,AFSA07.jpg,AFSA03.jpg,AFNE18.jpg,AFNE02.jpg,AFSA03.jpg,FS,4,num_6,32,num_4,1.66669072211,,,2017_Jul_11_1133,60.0013856165,FEMA4ImagesEEG,001,100900,
AFNE01.JPG,AFNE01.JPG,AFNE01.JPG,AFNE01.JPG,AFNE01.JPG,AFNE01.JPG,1,9,19,9,,,,,,,,,,,,,,,,,,,,,,,AFSA02.jpg,AFSA15.jpg,AFNE20.jpg,AFNE11.jpg,AFNE20.jpg,FN,3,num_2,32,num_6,3.41657317104,,,2017_Jul_11_1133,60.0013856165,FEMA4ImagesEEG,001,100900,
AFNE01.JPG,AFNE01.JPG,AFNE01.JPG,AFNE01.JPG,AFNE01.JPG,AFNE01.JPG,2,0,20,4,,,,,,,,,,,,,,,,,,,,,,,AFNE06.jpg,AFSA17.jpg,AFSA16.jpg,AFNE11.jpg,AFNE06.jpg,FN,3,num_8,32,num_6,0.883293914609,,,2017_Jul_11_1133,60.0013856165,FEMA4ImagesEEG,001,100900,
AFNE01.JPG,AFNE01.JPG,AFNE01.JPG,AFNE01.JPG,AFNE01.JPG,AFNE01.JPG,2,1,21,2,,,,,,,,,,,,,,,,,,,,,,,AFNE12.jpg,AFNE06.jpg,AFSA18.jpg,AFSA06.jpg,AFSA18.jpg,FS,4,num_2,16,num_2,0.666670836275,,,2017_Jul_11_1133,60.0013856165,FEMA4ImagesEEG,001,100900,
AFNE01.JPG,AFNE01.JPG,AFNE01.JPG,AFNE01.JPG,AFNE01.JPG,AFNE01.JPG,2,2,22,9,,,,,,,,,,,,,,,,,,,,,,,AFSA10.jpg,AFNE06.jpg,AFSA05.jpg,AFNE07.jpg,AFSA05.jpg,FS,4,num_2,16,num_2,0.683504832443,,,2017_Jul_11_1133,60.0013856165,FEMA4ImagesEEG,001,100900,
AFNE01.JPG,AFNE01.JPG,AFNE01.JPG,AFNE01.JPG,AFNE01.JPG,AFNE01.JPG,2,3,23,7,,,,,,,,,,,,,,,,,,,,,,,AFSA08.jpg,AFSA03.jpg,AFNE09.jpg,AFNE03.jpg,AFSA08.jpg,FS,4,num_8,32,num_2,1.0667480703,,,2017_Jul_11_1133,60.0013856165,FEMA4ImagesEEG,001,100900,
AFNE01.JPG,AFNE01.JPG,AFNE01.JPG,AFNE01.JPG,AFNE01.JPG,AFNE01.JPG,2,4,24,3,,,,,,,,,,,,,,,,,,,,,,,AFNE17.jpg,AFNE18.jpg,AFSA08.jpg,AFSA10.jpg,AFSA10.jpg,FS,4,num_4,32,num_8,1.28309852025,,,2017_Jul_11_1133,60.0013856165,FEMA4ImagesEEG,001,100900,
AFNE01.JPG,AFNE01.JPG,AFNE01.JPG,AFNE01.JPG,AFNE01.JPG,AFNE01.JPG,2,5,25,6,,,,,,,,,,,,,,,,,,,,,,,AFNE18.jpg,AFSA19.jpg,AFSA20.jpg,AFNE19.jpg,AFSA19.jpg,FS,4,num_6,32,num_4,1.33343629073,,,2017_Jul_11_1133,60.0013856165,FEMA4ImagesEEG,001,100900,
AFNE01.JPG,AFNE01.JPG,AFNE01.JPG,AFNE01.JPG,AFNE01.JPG,AFNE01.JPG,2,6,26,5,,,,,,,,,,,,,,,,,,,,,,,AFNE04.jpg,AFSA12.jpg,AFNE20.jpg,AFSA03.jpg,AFNE04.jpg,FN,3,num_8,32,num_4,1.00013952167,,,2017_Jul_11_1133,60.0013856165,FEMA4ImagesEEG,001,100900,
AFNE01.JPG,AFNE01.JPG,AFNE01.JPG,AFNE01.JPG,AFNE01.JPG,AFNE01.JPG,2,7,27,1,,,,,,,,,,,,,,,,,,,,,,,AFNE16.jpg,AFSA13.jpg,AFSA03.jpg,AFNE19.jpg,AFSA03.jpg,FS,4,num_2,32,num_6,1.96669797087,,,2017_Jul_11_1133,60.0013856165,FEMA4ImagesEEG,001,100900,
AFNE01.JPG,AFNE01.JPG,AFNE01.JPG,AFNE01.JPG,AFNE01.JPG,AFNE01.JPG,2,8,28,0,,,,,,,,,,,,,,,,,,,,,,,AFSA17.jpg,AFNE14.jpg,AFSA04.jpg,AFNE13.jpg,AFSA17.jpg,FS,4,num_8,32,num_6,0.816781266825,,,2017_Jul_11_1133,60.0013856165,FEMA4ImagesEEG,001,100900,
AFNE01.JPG,AFNE01.JPG,AFNE01.JPG,AFNE01.JPG,AFNE01.JPG,AFNE01.JPG,2,9,29,8,,,,,,,,,,,,,,,,,,,,,,,AFNE10.jpg,AFSA17.jpg,AFSA08.jpg,AFNE19.jpg,AFNE19.jpg,FN,3,num_4,32,num_2,0.816820076201,,,2017_Jul_11_1133,60.0013856165,FEMA4ImagesEEG,001,100900,
AFNE01.JPG,AFNE01.JPG,AFNE01.JPG,AFNE01.JPG,AFNE01.JPG,AFNE01.JPG,3,0,30,3,,,,,,,,,,,,,,,,,,,,,,,AFSA12.jpg,AFSA10.jpg,AFNE12.jpg,AFNE04.jpg,AFSA12.jpg,FS,4,num_8,16,num_8,0.666770265438,,,2017_Jul_11_1133,60.0013856165,FEMA4ImagesEEG,001,100900,
AFNE01.JPG,AFNE01.JPG,AFNE01.JPG,AFNE01.JPG,AFNE01.JPG,AFNE01.JPG,3,1,31,7,,,,,,,,,,,,,,,,,,,,,,,AFNE10.jpg,AFSA06.jpg,AFSA04.jpg,AFNE02.jpg,AFSA06.jpg,FS,4,num_6,32,num_4,0.65018387977,,,2017_Jul_11_1133,60.0013856165,FEMA4ImagesEEG,001,100900,
AFNE01.JPG,AFNE01.JPG,AFNE01.JPG,AFNE01.JPG,AFNE01.JPG,AFNE01.JPG,3,2,32,6,,,,,,,,,,,,,,,,,,,,,,,AFSA19.jpg,AFNE12.jpg,AFNE10.jpg,AFSA20.jpg,AFSA20.jpg,FS,4,num_4,16,num_4,0.483538381988,,,2017_Jul_11_1133,60.0013856165,FEMA4ImagesEEG,001,100900,
AFNE01.JPG,AFNE01.JPG,AFNE01.JPG,AFNE01.JPG,AFNE01.JPG,AFNE01.JPG,3,3,33,8,,,,,,,,,,,,,,,,,,,,,,,AFNE18.jpg,AFSA15.jpg,AFNE14.jpg,AFSA08.jpg,AFSA15.jpg,FS,4,num_6,32,num_2,0.900074988836,,,2017_Jul_11_1133,60.0013856165,FEMA4ImagesEEG,001,100900,
AFNE01.JPG,AFNE01.JPG,AFNE01.JPG,AFNE01.JPG,AFNE01.JPG,AFNE01.JPG,3,4,34,2,,,,,,,,,,,,,,,,,,,,,,,AFNE01.jpg,AFSA05.jpg,AFNE16.jpg,AFSA09.jpg,AFSA05.jpg,FS,4,num_6,32,num_4,0.633498385781,,,2017_Jul_11_1133,60.0013856165,FEMA4ImagesEEG,001,100900,
AFNE01.JPG,AFNE01.JPG,AFNE01.JPG,AFNE01.JPG,AFNE01.JPG,AFNE01.JPG,3,5,35,5,,,,,,,,,,,,,,,,,,,,,,,AFSA07.jpg,AFSA03.jpg,AFNE12.jpg,AFNE05.jpg,AFSA03.jpg,FS,4,num_6,16,num_6,0.783490463626,,,2017_Jul_11_1133,60.0013856165,FEMA4ImagesEEG,001,100900,
AFNE01.JPG,AFNE01.JPG,AFNE01.JPG,AFNE01.JPG,AFNE01.JPG,AFNE01.JPG,3,6,36,0,,,,,,,,,,,,,,,,,,,,,,,AFSA15.jpg,AFSA11.jpg,AFNE11.jpg,AFNE20.jpg,AFSA15.jpg,FS,4,num_8,16,num_8,0.450207165442,,,2017_Jul_11_1133,60.0013856165,FEMA4ImagesEEG,001,100900,
AFNE01.JPG,AFNE01.JPG,AFNE01.JPG,AFNE01.JPG,AFNE01.JPG,AFNE01.JPG,3,7,37,4,,,,,,,,,,,,,,,,,,,,,,,AFNE09.jpg,AFSA15.jpg,AFNE10.jpg,AFSA08.jpg,AFSA15.jpg,FS,4,num_6,16,num_6,0.550232247449,,,2017_Jul_11_1133,60.0013856165,FEMA4ImagesEEG,001,100900,
AFNE01.JPG,AFNE01.JPG,AFNE01.JPG,AFNE01.JPG,AFNE01.JPG,AFNE01.JPG,3,8,38,9,,,,,,,,,,,,,,,,,,,,,,,AFSA09.jpg,AFSA10.jpg,AFNE04.jpg,AFNE17.jpg,AFNE04.jpg,FN,3,num_2,32,num_8,2.61656111153,,,2017_Jul_11_1133,60.0013856165,FEMA4ImagesEEG,001,100900,
AFNE01.JPG,AFNE01.JPG,AFNE01.JPG,AFNE01.JPG,AFNE01.JPG,AFNE01.JPG,3,9,39,1,,,,,,,,,,,,,,,,,,,,,,,AFSA06.jpg,AFSA03.jpg,AFNE09.jpg,AFNE13.jpg,AFSA03.jpg,FS,4,num_6,16,num_6,0.483492195373,,,2017_Jul_11_1133,60.0013856165,FEMA4ImagesEEG,001,100900,
AFNE01.JPG,AFNE01.JPG,AFNE01.JPG,AFNE01.JPG,AFNE01.JPG,AFNE01.JPG,4,0,40,6,,,,,,,,,,,,,,,,,,,,,,,AFNE04.jpg,AFSA12.jpg,AFSA16.jpg,AFNE06.jpg,AFNE04.jpg,FN,3,num_8,32,num_2,1.33340261318,,,2017_Jul_11_1133,60.0013856165,FEMA4ImagesEEG,001,100900,
AFNE01.JPG,AFNE01.JPG,AFNE01.JPG,AFNE01.JPG,AFNE01.JPG,AFNE01.JPG,4,1,41,7,,,,,,,,,,,,,,,,,,,,,,,AFSA18.jpg,AFSA20.jpg,AFNE12.jpg,AFNE14.jpg,AFNE14.jpg,FN,3,num_4,32,num_6,0.849741387879,,,2017_Jul_11_1133,60.0013856165,FEMA4ImagesEEG,001,100900,
AFNE01.JPG,AFNE01.JPG,AFNE01.JPG,AFNE01.JPG,AFNE01.JPG,AFNE01.JPG,4,2,42,3,,,,,,,,,,,,,,,,,,,,,,,AFSA08.jpg,AFNE03.jpg,AFSA02.jpg,AFNE16.jpg,AFNE16.jpg,FN,3,num_4,16,num_4,1.45004615444,,,2017_Jul_11_1133,60.0013856165,FEMA4ImagesEEG,001,100900,
AFNE01.JPG,AFNE01.JPG,AFNE01.JPG,AFNE01.JPG,AFNE01.JPG,AFNE01.JPG,4,3,43,8,,,,,,,,,,,,,,,,,,,,,,,AFSA06.jpg,AFSA04.jpg,AFNE14.jpg,AFNE11.jpg,AFSA04.jpg,FS,4,num_6,16,num_6,0.750163416611,,,2017_Jul_11_1133,60.0013856165,FEMA4ImagesEEG,001,100900,
AFNE01.JPG,AFNE01.JPG,AFNE01.JPG,AFNE01.JPG,AFNE01.JPG,AFNE01.JPG,4,4,44,4,,,,,,,,,,,,,,,,,,,,,,,AFSA04.jpg,AFNE13.jpg,AFNE19.jpg,AFSA03.jpg,AFSA03.jpg,FS,4,num_4,16,num_4,0.466765326215,,,2017_Jul_11_1133,60.0013856165,FEMA4ImagesEEG,001,100900,
AFNE01.JPG,AFNE01.JPG,AFNE01.JPG,AFNE01.JPG,AFNE01.JPG,AFNE01.JPG,4,5,45,0,,,,,,,,,,,,,,,,,,,,,,,AFSA18.jpg,AFSA12.jpg,AFNE17.jpg,AFNE04.jpg,AFNE04.jpg,FN,3,num_4,32,num_6,1.2833698655,,,2017_Jul_11_1133,60.0013856165,FEMA4ImagesEEG,001,100900,
AFNE01.JPG,AFNE01.JPG,AFNE01.JPG,AFNE01.JPG,AFNE01.JPG,AFNE01.JPG,4,6,46,5,,,,,,,,,,,,,,,,,,,,,,,AFNE02.jpg,AFSA13.jpg,AFSA09.jpg,AFNE13.jpg,AFSA09.jpg,FS,4,num_2,32,num_6,0.683481418528,,,2017_Jul_11_1133,60.0013856165,FEMA4ImagesEEG,001,100900,
AFNE01.JPG,AFNE01.JPG,AFNE01.JPG,AFNE01.JPG,AFNE01.JPG,AFNE01.JPG,4,7,47,9,,,,,,,,,,,,,,,,,,,,,,,AFSA01.jpg,AFSA05.jpg,AFNE06.jpg,AFNE04.jpg,AFSA01.jpg,FS,4,num_8,32,num_4,1.00011097593,,,2017_Jul_11_1133,60.0013856165,FEMA4ImagesEEG,001,100900,
AFNE01.JPG,AFNE01.JPG,AFNE01.JPG,AFNE01.JPG,AFNE01.JPG,AFNE01.JPG,4,8,48,2,,,,,,,,,,,,,,,,,,,,,,,AFSA09.jpg,AFNE05.jpg,AFNE06.jpg,AFSA01.jpg,AFNE06.jpg,FN,3,num_2,16,num_2,1.18344100541,,,2017_Jul_11_1133,60.0013856165,FEMA4ImagesEEG,001,100900,
AFNE01.JPG,AFNE01.JPG,AFNE01.JPG,AFNE01.JPG,AFNE01.JPG,AFNE01.JPG,4,9,49,1,,,,,,,,,,,,,,,,,,,,,,,AFSA13.jpg,AFNE13.jpg,AFSA10.jpg,AFNE15.jpg,AFNE15.jpg,FN,3,num_4,32,num_6,1.48373852321,,,2017_Jul_11_1133,60.0013856165,FEMA4ImagesEEG,001,100900,
AFNE01.JPG,AFNE01.JPG,AFNE01.JPG,AFNE01.JPG,AFNE01.JPG,AFNE01.JPG,5,0,50,8,,,,,,,,,,,,,,,,,,,,,,,AFNE13.jpg,AFSA18.jpg,AFNE17.jpg,AFSA13.jpg,AFNE13.jpg,FN,3,num_8,32,num_2,0.766779310303,,,2017_Jul_11_1133,60.0013856165,FEMA4ImagesEEG,001,100900,
AFNE01.JPG,AFNE01.JPG,AFNE01.JPG,AFNE01.JPG,AFNE01.JPG,AFNE01.JPG,5,1,51,3,,,,,,,,,,,,,,,,,,,,,,,AFNE09.jpg,AFSA02.jpg,AFNE06.jpg,AFSA17.jpg,AFNE09.jpg,FN,3,num_8,16,num_8,1.05012223381,,,2017_Jul_11_1133,60.0013856165,FEMA4ImagesEEG,001,100900,
AFNE01.JPG,AFNE01.JPG,AFNE01.JPG,AFNE01.JPG,AFNE01.JPG,AFNE01.JPG,5,2,52,2,,,,,,,,,,,,,,,,,,,,,,,AFSA15.jpg,AFNE06.jpg,AFSA08.jpg,AFNE17.jpg,AFSA08.jpg,FS,4,num_2,32,num_8,0.533467851346,,,2017_Jul_11_1133,60.0013856165,FEMA4ImagesEEG,001,100900,
AFNE01.JPG,AFNE01.JPG,AFNE01.JPG,AFNE01.JPG,AFNE01.JPG,AFNE01.JPG,5,3,53,0,,,,,,,,,,,,,,,,,,,,,,,AFSA02.jpg,AFSA10.jpg,AFNE16.jpg,AFNE15.jpg,AFNE15.jpg,FN,3,num_4,32,num_8,1.93337733881,,,2017_Jul_11_1133,60.0013856165,FEMA4ImagesEEG,001,100900,
AFNE01.JPG,AFNE01.JPG,AFNE01.JPG,AFNE01.JPG,AFNE01.JPG,AFNE01.JPG,5,4,54,7,,,,,,,,,,,,,,,,,,,,,,,AFSA05.jpg,AFNE20.jpg,AFSA18.jpg,AFNE12.jpg,AFSA05.jpg,FS,4,num_8,32,num_2,0.83343212097,,,2017_Jul_11_1133,60.0013856165,FEMA4ImagesEEG,001,100900,
AFNE01.JPG,AFNE01.JPG,AFNE01.JPG,AFNE01.JPG,AFNE01.JPG,AFNE01.JPG,5,5,55,5,,,,,,,,,,,,,,,,,,,,,,,AFNE18.jpg,AFNE10.jpg,AFSA09.jpg,AFSA16.jpg,AFNE18.jpg,FN,3,num_8,16,num_8,0.76678091404,,,2017_Jul_11_1133,60.0013856165,FEMA4ImagesEEG,001,100900,
AFNE01.JPG,AFNE01.JPG,AFNE01.JPG,AFNE01.JPG,AFNE01.JPG,AFNE01.JPG,5,6,56,1,,,,,,,,,,,,,,,,,,,,,,,AFNE09.jpg,AFSA11.jpg,AFNE14.jpg,AFSA10.jpg,AFNE09.jpg,FN,3,num_8,16,num_8,1.13340152241,,,2017_Jul_11_1133,60.0013856165,FEMA4ImagesEEG,001,100900,
AFNE01.JPG,AFNE01.JPG,AFNE01.JPG,AFNE01.JPG,AFNE01.JPG,AFNE01.JPG,5,7,57,9,,,,,,,,,,,,,,,,,,,,,,,AFSA05.jpg,AFNE12.jpg,AFNE09.jpg,AFSA03.jpg,AFSA05.jpg,FS,4,num_8,16,num_8,0.633351807715,,,2017_Jul_11_1133,60.0013856165,FEMA4ImagesEEG,001,100900,
AFNE01.JPG,AFNE01.JPG,AFNE01.JPG,AFNE01.JPG,AFNE01.JPG,AFNE01.JPG,5,8,58,4,,,,,,,,,,,,,,,,,,,,,,,AFSA12.jpg,AFNE01.jpg,AFNE02.jpg,AFSA07.jpg,AFNE02.jpg,FN,3,num_2,16,num_2,1.11700437288,,,2017_Jul_11_1133,60.0013856165,FEMA4ImagesEEG,001,100900,
AFNE01.JPG,AFNE01.JPG,AFNE01.JPG,AFNE01.JPG,AFNE01.JPG,AFNE01.JPG,5,9,59,6,,,,,,,,,,,,,,,,,,,,,,,AFSA04.jpg,AFNE02.jpg,AFSA02.jpg,AFNE05.jpg,AFNE02.jpg,FN,3,num_6,32,num_2,1.116744895,,,2017_Jul_11_1133,60.0013856165,FEMA4ImagesEEG,001,100900,
,,,,,,,,,,,,,,,,,,,,,,,,,,,,,,,,,,,,,,,,,,,space,17.9490476931,2017_Jul_11_1133,60.0013856165,FEMA4ImagesEEG,001,100900,
AFNE01.JPG,AFNE01.JPG,AFNE01.JPG,AFNE01.JPG,AFNE01.JPG,AFNE01.JPG,,,,,0,0,0,3,,,,,,,,,,,,,,,,,,,AMNE02.jpg,AMSA05.jpg,AMSA16.jpg,AMNE09.jpg,AMSA05.jpg,MS,2,num_6,32,num_2,0.766773857642,,,2017_Jul_11_1133,60.0013856165,FEMA4ImagesEEG,001,100900,
AFNE01.JPG,AFNE01.JPG,AFNE01.JPG,AFNE01.JPG,AFNE01.JPG,AFNE01.JPG,,,,,0,1,1,5,,,,,,,,,,,,,,,,,,,AMSA12.jpg,AMNE04.jpg,AMSA20.jpg,AMNE03.jpg,AMSA20.jpg,MS,2,num_2,16,num_2,0.783487255918,,,2017_Jul_11_1133,60.0013856165,FEMA4ImagesEEG,001,100900,
AFNE01.JPG,AFNE01.JPG,AFNE01.JPG,AFNE01.JPG,AFNE01.JPG,AFNE01.JPG,,,,,0,2,2,1,,,,,,,,,,,,,,,,,,,AMSA19.jpg,AMNE07.jpg,AMNE02.jpg,AMSA14.jpg,AMSA14.jpg,MS,2,num_4,16,num_4,0.833446874982,,,2017_Jul_11_1133,60.0013856165,FEMA4ImagesEEG,001,100900,
AFNE01.JPG,AFNE01.JPG,AFNE01.JPG,AFNE01.JPG,AFNE01.JPG,AFNE01.JPG,,,,,0,3,3,8,,,,,,,,,,,,,,,,,,,AMNE15.jpg,AMSA16.jpg,AMSA20.jpg,AMNE02.jpg,AMSA16.jpg,MS,2,num_6,16,num_6,0.566773729399,,,2017_Jul_11_1133,60.0013856165,FEMA4ImagesEEG,001,100900,
AFNE01.JPG,AFNE01.JPG,AFNE01.JPG,AFNE01.JPG,AFNE01.JPG,AFNE01.JPG,,,,,0,4,4,0,,,,,,,,,,,,,,,,,,,AMNE10.jpg,AMSA12.jpg,AMNE15.jpg,AMSA05.jpg,AMNE10.jpg,MN,1,num_8,16,num_8,0.966787457,,,2017_Jul_11_1133,60.0013856165,FEMA4ImagesEEG,001,100900,
AFNE01.JPG,AFNE01.JPG,AFNE01.JPG,AFNE01.JPG,AFNE01.JPG,AFNE01.JPG,,,,,0,5,5,6,,,,,,,,,,,,,,,,,,,AMSA03.jpg,AMNE20.jpg,AMNE02.jpg,AMSA16.jpg,AMNE20.jpg,MN,1,num_6,16,num_6,1.31662699138,,,2017_Jul_11_1133,60.0013856165,FEMA4ImagesEEG,001,100900,
AFNE01.JPG,AFNE01.JPG,AFNE01.JPG,AFNE01.JPG,AFNE01.JPG,AFNE01.JPG,,,,,0,6,6,7,,,,,,,,,,,,,,,,,,,AMSA01.jpg,AMNE04.jpg,AMNE08.jpg,AMSA05.jpg,AMSA01.jpg,MS,2,num_8,32,num_2,1.23344488628,,,2017_Jul_11_1133,60.0013856165,FEMA4ImagesEEG,001,100900,
AFNE01.JPG,AFNE01.JPG,AFNE01.JPG,AFNE01.JPG,AFNE01.JPG,AFNE01.JPG,,,,,0,7,7,4,,,,,,,,,,,,,,,,,,,AMSA04.jpg,AMNE17.jpg,AMSA18.jpg,AMNE13.jpg,AMSA18.jpg,MS,2,num_2,16,num_2,0.700402976712,,,2017_Jul_11_1133,60.0013856165,FEMA4ImagesEEG,001,100900,
AFNE01.JPG,AFNE01.JPG,AFNE01.JPG,AFNE01.JPG,AFNE01.JPG,AFNE01.JPG,,,,,0,8,8,9,,,,,,,,,,,,,,,,,,,AMSA07.jpg,AMNE04.jpg,AMSA16.jpg,AMNE13.jpg,AMSA16.jpg,MS,2,num_2,16,num_2,0.683309181593,,,2017_Jul_11_1133,60.0013856165,FEMA4ImagesEEG,001,100900,
AFNE01.JPG,AFNE01.JPG,AFNE01.JPG,AFNE01.JPG,AFNE01.JPG,AFNE01.JPG,,,,,0,9,9,2,,,,,,,,,,,,,,,,,,,AMSA15.jpg,AMNE05.jpg,AMNE14.jpg,AMSA14.jpg,AMNE14.jpg,MN,1,num_2,32,num_8,1.46668963158,,,2017_Jul_11_1133,60.0013856165,FEMA4ImagesEEG,001,100900,
AFNE01.JPG,AFNE01.JPG,AFNE01.JPG,AFNE01.JPG,AFNE01.JPG,AFNE01.JPG,,,,,1,0,10,5,,,,,,,,,,,,,,,,,,,AMSA07.jpg,AMNE10.jpg,AMSA03.jpg,AMNE02.jpg,AMNE02.jpg,MN,1,num_4,32,num_8,1.20008833171,,,2017_Jul_11_1133,60.0013856165,FEMA4ImagesEEG,001,100900,
AFNE01.JPG,AFNE01.JPG,AFNE01.JPG,AFNE01.JPG,AFNE01.JPG,AFNE01.JPG,,,,,1,1,11,7,,,,,,,,,,,,,,,,,,,AMSA05.jpg,AMNE08.jpg,AMNE03.jpg,AMSA14.jpg,AMNE03.jpg,MN,1,num_2,32,num_4,1.01675830176,,,2017_Jul_11_1133,60.0013856165,FEMA4ImagesEEG,001,100900,
AFNE01.JPG,AFNE01.JPG,AFNE01.JPG,AFNE01.JPG,AFNE01.JPG,AFNE01.JPG,,,,,1,2,12,8,,,,,,,,,,,,,,,,,,,AMNE15.jpg,AMSA02.jpg,AMNE01.jpg,AMSA12.jpg,AMNE15.jpg,MN,1,num_8,32,num_6,0.900114760501,,,2017_Jul_11_1133,60.0013856165,FEMA4ImagesEEG,001,100900,
AFNE01.JPG,AFNE01.JPG,AFNE01.JPG,AFNE01.JPG,AFNE01.JPG,AFNE01.JPG,,,,,1,3,13,2,,,,,,,,,,,,,,,,,,,AMNE03.jpg,AMSA03.jpg,AMNE04.jpg,AMSA05.jpg,AMNE04.jpg,MN,1,num_2,32,num_8,0.933473560493,,,2017_Jul_11_1133,60.0013856165,FEMA4ImagesEEG,001,100900,
AFNE01.JPG,AFNE01.JPG,AFNE01.JPG,AFNE01.JPG,AFNE01.JPG,AFNE01.JPG,,,,,1,4,14,4,,,,,,,,,,,,,,,,,,,AMSA07.jpg,AMSA13.jpg,AMNE04.jpg,AMNE05.jpg,AMNE04.jpg,MN,1,num_2,16,num_2,1.05011132872,,,2017_Jul_11_1133,60.0013856165,FEMA4ImagesEEG,001,100900,
AFNE01.JPG,AFNE01.JPG,AFNE01.JPG,AFNE01.JPG,AFNE01.JPG,AFNE01.JPG,,,,,1,5,15,1,,,,,,,,,,,,,,,,,,,AMNE16.jpg,AMSA02.jpg,AMSA20.jpg,AMNE11.jpg,AMSA20.jpg,MS,2,num_2,16,num_2,0.566765069496,,,2017_Jul_11_1133,60.0013856165,FEMA4ImagesEEG,001,100900,
AFNE01.JPG,AFNE01.JPG,AFNE01.JPG,AFNE01.JPG,AFNE01.JPG,AFNE01.JPG,,,,,1,6,16,3,,,,,,,,,,,,,,,,,,,AMNE05.jpg,AMSA20.jpg,AMNE02.jpg,AMSA06.jpg,AMNE05.jpg,MN,1,num_8,16,num_8,1.20016723336,,,2017_Jul_11_1133,60.0013856165,FEMA4ImagesEEG,001,100900,
AFNE01.JPG,AFNE01.JPG,AFNE01.JPG,AFNE01.JPG,AFNE01.JPG,AFNE01.JPG,,,,,1,7,17,0,,,,,,,,,,,,,,,,,,,AMSA15.jpg,AMSA09.jpg,AMNE20.jpg,AMNE11.jpg,AMSA09.jpg,MS,2,num_6,32,num_8,0.633449954214,,,2017_Jul_11_1133,60.0013856165,FEMA4ImagesEEG,001,100900,
AFNE01.JPG,AFNE01.JPG,AFNE01.JPG,AFNE01.JPG,AFNE01.JPG,AFNE01.JPG,,,,,1,8,18,6,,,,,,,,,,,,,,,,,,,AMSA20.jpg,AMNE13.jpg,AMNE02.jpg,AMSA19.jpg,AMNE13.jpg,MN,1,num_6,16,num_6,1.23342852853,,,2017_Jul_11_1133,60.0013856165,FEMA4ImagesEEG,001,100900,
AFNE01.JPG,AFNE01.JPG,AFNE01.JPG,AFNE01.JPG,AFNE01.JPG,AFNE01.JPG,,,,,1,9,19,9,,,,,,,,,,,,,,,,,,,AMSA01.jpg,AMNE14.jpg,AMNE19.jpg,AMSA10.jpg,AMSA10.jpg,MS,2,num_4,16,num_4,0.783511311514,,,2017_Jul_11_1133,60.0013856165,FEMA4ImagesEEG,001,100900,
AFNE01.JPG,AFNE01.JPG,AFNE01.JPG,AFNE01.JPG,AFNE01.JPG,AFNE01.JPG,,,,,2,0,20,9,,,,,,,,,,,,,,,,,,,AMSA20.jpg,AMNE03.jpg,AMSA01.jpg,AMNE11.jpg,AMNE03.jpg,MN,1,num_6,16,num_6,0.850143915508,,,2017_Jul_11_1133,60.0013856165,FEMA4ImagesEEG,001,100900,
AFNE01.JPG,AFNE01.JPG,AFNE01.JPG,AFNE01.JPG,AFNE01.JPG,AFNE01.JPG,,,,,2,1,21,3,,,,,,,,,,,,,,,,,,,AMNE11.jpg,AMSA14.jpg,AMSA06.jpg,AMNE03.jpg,AMSA06.jpg,MS,2,num_2,32,num_6,0.733429170214,,,2017_Jul_11_1133,60.0013856165,FEMA4ImagesEEG,001,100900,
AFNE01.JPG,AFNE01.JPG,AFNE01.JPG,AFNE01.JPG,AFNE01.JPG,AFNE01.JPG,,,,,2,2,22,4,,,,,,,,,,,,,,,,,,,AMSA12.jpg,AMNE03.jpg,AMSA11.jpg,AMNE18.jpg,AMNE18.jpg,MN,1,num_4,16,num_4,0.916747653391,,,2017_Jul_11_1133,60.0013856165,FEMA4ImagesEEG,001,100900,
AFNE01.JPG,AFNE01.JPG,AFNE01.JPG,AFNE01.JPG,AFNE01.JPG,AFNE01.JPG,,,,,2,3,23,8,,,,,,,,,,,,,,,,,,,AMSA12.jpg,AMNE18.jpg,AMSA02.jpg,AMNE09.jpg,AMNE18.jpg,MN,1,num_6,16,num_6,0.983458196977,,,2017_Jul_11_1133,60.0013856165,FEMA4ImagesEEG,001,100900,
AFNE01.JPG,AFNE01.JPG,AFNE01.JPG,AFNE01.JPG,AFNE01.JPG,AFNE01.JPG,,,,,2,4,24,2,,,,,,,,,,,,,,,,,,,AMSA04.jpg,AMNE10.jpg,AMSA15.jpg,AMNE14.jpg,AMSA15.jpg,MS,2,num_2,32,num_4,0.833469968289,,,2017_Jul_11_1133,60.0013856165,FEMA4ImagesEEG,001,100900,
AFNE01.JPG,AFNE01.JPG,AFNE01.JPG,AFNE01.JPG,AFNE01.JPG,AFNE01.JPG,,,,,2,5,25,7,,,,,,,,,,,,,,,,,,,AMSA09.jpg,AMSA01.jpg,AMNE02.jpg,AMNE05.jpg,AMSA01.jpg,MS,2,num_6,16,num_6,0.633474009577,,,2017_Jul_11_1133,60.0013856165,FEMA4ImagesEEG,001,100900,
AFNE01.JPG,AFNE01.JPG,AFNE01.JPG,AFNE01.JPG,AFNE01.JPG,AFNE01.JPG,,,,,2,6,26,5,,,,,,,,,,,,,,,,,,,AMNE20.jpg,AMNE12.jpg,AMSA08.jpg,AMSA15.jpg,AMSA08.jpg,MS,2,num_2,32,num_6,1.50008788262,,,2017_Jul_11_1133,60.0013856165,FEMA4ImagesEEG,001,100900,
AFNE01.JPG,AFNE01.JPG,AFNE01.JPG,AFNE01.JPG,AFNE01.JPG,AFNE01.JPG,,,,,2,7,27,6,,,,,,,,,,,,,,,,,,,AMSA02.jpg,AMNE07.jpg,AMSA05.jpg,AMNE05.jpg,AMNE07.jpg,MN,1,num_6,32,num_4,0.983460121555,,,2017_Jul_11_1133,60.0013856165,FEMA4ImagesEEG,001,100900,
AFNE01.JPG,AFNE01.JPG,AFNE01.JPG,AFNE01.JPG,AFNE01.JPG,AFNE01.JPG,,,,,2,8,28,0,,,,,,,,,,,,,,,,,,,AMNE01.jpg,AMNE08.jpg,AMSA01.jpg,AMSA03.jpg,AMNE08.jpg,MN,1,num_6,16,num_6,1.05006353837,,,2017_Jul_11_1133,60.0013856165,FEMA4ImagesEEG,001,100900,
AFNE01.JPG,AFNE01.JPG,AFNE01.JPG,AFNE01.JPG,AFNE01.JPG,AFNE01.JPG,,,,,2,9,29,1,,,,,,,,,,,,,,,,,,,AMNE04.jpg,AMNE02.jpg,AMSA20.jpg,AMSA13.jpg,AMSA13.jpg,MS,2,num_4,16,num_4,1.28342182515,,,2017_Jul_11_1133,60.0013856165,FEMA4ImagesEEG,001,100900,
AFNE01.JPG,AFNE01.JPG,AFNE01.JPG,AFNE01.JPG,AFNE01.JPG,AFNE01.JPG,,,,,3,0,30,3,,,,,,,,,,,,,,,,,,,AMSA15.jpg,AMNE12.jpg,AMNE07.jpg,AMSA14.jpg,AMNE12.jpg,MN,1,num_6,32,num_8,0.966756345239,,,2017_Jul_11_1133,60.0013856165,FEMA4ImagesEEG,001,100900,
AFNE01.JPG,AFNE01.JPG,AFNE01.JPG,AFNE01.JPG,AFNE01.JPG,AFNE01.JPG,,,,,3,1,31,5,,,,,,,,,,,,,,,,,,,AMNE03.jpg,AMSA12.jpg,AMSA10.jpg,AMNE13.jpg,AMSA12.jpg,MS,2,num_6,32,num_2,0.916832649149,,,2017_Jul_11_1133,60.0013856165,FEMA4ImagesEEG,001,100900,
AFNE01.JPG,AFNE01.JPG,AFNE01.JPG,AFNE01.JPG,AFNE01.JPG,AFNE01.JPG,,,,,3,2,32,9,,,,,,,,,,,,,,,,,,,AMNE01.jpg,AMSA06.jpg,AMSA07.jpg,AMNE14.jpg,AMSA07.jpg,MS,2,num_2,32,num_6,0.766775461379,,,2017_Jul_11_1133,60.0013856165,FEMA4ImagesEEG,001,100900,
AFNE01.JPG,AFNE01.JPG,AFNE01.JPG,AFNE01.JPG,AFNE01.JPG,AFNE01.JPG,,,,,3,3,33,7,,,,,,,,,,,,,,,,,,,AMSA06.jpg,AMNE20.jpg,AMNE08.jpg,AMSA10.jpg,AMNE08.jpg,MN,1,num_2,16,num_2,1.68336980138,,,2017_Jul_11_1133,60.0013856165,FEMA4ImagesEEG,001,100900,
AFNE01.JPG,AFNE01.JPG,AFNE01.JPG,AFNE01.JPG,AFNE01.JPG,AFNE01.JPG,,,,,3,4,34,6,,,,,,,,,,,,,,,,,,,AMNE08.jpg,AMSA07.jpg,AMNE19.jpg,AMSA09.jpg,AMNE19.jpg,MN,1,num_2,32,num_8,1.15012005274,,,2017_Jul_11_1133,60.0013856165,FEMA4ImagesEEG,001,100900,
AFNE01.JPG,AFNE01.JPG,AFNE01.JPG,AFNE01.JPG,AFNE01.JPG,AFNE01.JPG,,,,,3,5,35,0,,,,,,,,,,,,,,,,,,,AMNE03.jpg,AMNE09.jpg,AMSA13.jpg,AMSA10.jpg,AMSA10.jpg,MS,2,num_4,16,num_4,0.600109115476,,,2017_Jul_11_1133,60.0013856165,FEMA4ImagesEEG,001,100900,
AFNE01.JPG,AFNE01.JPG,AFNE01.JPG,AFNE01.JPG,AFNE01.JPG,AFNE01.JPG,,,,,3,6,36,2,,,,,,,,,,,,,,,,,,,AMSA05.jpg,AMNE17.jpg,AMNE06.jpg,AMSA07.jpg,AMNE17.jpg,MN,1,num_6,16,num_6,1.63345252001,,,2017_Jul_11_1133,60.0013856165,FEMA4ImagesEEG,001,100900,
AFNE01.JPG,AFNE01.JPG,AFNE01.JPG,AFNE01.JPG,AFNE01.JPG,AFNE01.JPG,,,,,3,7,37,1,,,,,,,,,,,,,,,,,,,AMSA02.jpg,AMSA14.jpg,AMNE20.jpg,AMNE01.jpg,AMNE20.jpg,MN,1,num_2,32,num_6,0.816737325396,,,2017_Jul_11_1133,60.0013856165,FEMA4ImagesEEG,001,100900,
AFNE01.JPG,AFNE01.JPG,AFNE01.JPG,AFNE01.JPG,AFNE01.JPG,AFNE01.JPG,,,,,3,8,38,4,,,,,,,,,,,,,,,,,,,AMSA14.jpg,AMNE16.jpg,AMNE02.jpg,AMSA16.jpg,AMNE16.jpg,MN,1,num_6,16,num_6,1.1834602498,,,2017_Jul_11_1133,60.0013856165,FEMA4ImagesEEG,001,100900,
AFNE01.JPG,AFNE01.JPG,AFNE01.JPG,AFNE01.JPG,AFNE01.JPG,AFNE01.JPG,,,,,3,9,39,8,,,,,,,,,,,,,,,,,,,AMNE07.jpg,AMSA16.jpg,AMSA13.jpg,AMNE04.jpg,AMSA13.jpg,MS,2,num_2,16,num_2,0.600146641955,,,2017_Jul_11_1133,60.0013856165,FEMA4ImagesEEG,001,100900,
AFNE01.JPG,AFNE01.JPG,AFNE01.JPG,AFNE01.JPG,AFNE01.JPG,AFNE01.JPG,,,,,4,0,40,3,,,,,,,,,,,,,,,,,,,AMSA17.jpg,AMSA08.jpg,AMNE13.jpg,AMNE17.jpg,AMSA08.jpg,MS,2,num_6,16,num_6,0.950115433894,,,2017_Jul_11_1133,60.0013856165,FEMA4ImagesEEG,001,100900,
AFNE01.JPG,AFNE01.JPG,AFNE01.JPG,AFNE01.JPG,AFNE01.JPG,AFNE01.JPG,,,,,4,1,41,4,,,,,,,,,,,,,,,,,,,AMNE11.jpg,AMNE01.jpg,AMSA05.jpg,AMSA13.jpg,AMSA05.jpg,MS,2,num_2,16,num_2,1.25013583316,,,2017_Jul_11_1133,60.0013856165,FEMA4ImagesEEG,001,100900,
AFNE01.JPG,AFNE01.JPG,AFNE01.JPG,AFNE01.JPG,AFNE01.JPG,AFNE01.JPG,,,,,4,2,42,9,,,,,,,,,,,,,,,,,,,AMNE05.jpg,AMNE15.jpg,AMSA12.jpg,AMSA10.jpg,AMNE05.jpg,MN,1,num_8,16,num_8,0.800131374737,,,2017_Jul_11_1133,60.0013856165,FEMA4ImagesEEG,001,100900,
AFNE01.JPG,AFNE01.JPG,AFNE01.JPG,AFNE01.JPG,AFNE01.JPG,AFNE01.JPG,,,,,4,3,43,5,,,,,,,,,,,,,,,,,,,AMSA10.jpg,AMNE03.jpg,AMNE14.jpg,AMSA13.jpg,AMSA10.jpg,MS,2,num_8,32,num_4,0.766818440519,,,2017_Jul_11_1133,60.0013856165,FEMA4ImagesEEG,001,100900,
AFNE01.JPG,AFNE01.JPG,AFNE01.JPG,AFNE01.JPG,AFNE01.JPG,AFNE01.JPG,,,,,4,4,44,1,,,,,,,,,,,,,,,,,,,AMSA09.jpg,AMSA04.jpg,AMNE11.jpg,AMNE10.jpg,AMNE10.jpg,MN,1,num_4,32,num_2,1.21673565777,,,2017_Jul_11_1133,60.0013856165,FEMA4ImagesEEG,001,100900,
AFNE01.JPG,AFNE01.JPG,AFNE01.JPG,AFNE01.JPG,AFNE01.JPG,AFNE01.JPG,,,,,4,5,45,2,,,,,,,,,,,,,,,,,,,AMSA14.jpg,AMNE05.jpg,AMNE03.jpg,AMSA10.jpg,AMSA10.jpg,MS,2,num_4,32,num_2,0.733341608429,,,2017_Jul_11_1133,60.0013856165,FEMA4ImagesEEG,001,100900,
AFNE01.JPG,AFNE01.JPG,AFNE01.JPG,AFNE01.JPG,AFNE01.JPG,AFNE01.JPG,,,,,4,6,46,7,,,,,,,,,,,,,,,,,,,AMNE17.jpg,AMSA20.jpg,AMNE08.jpg,AMSA09.jpg,AMSA20.jpg,MS,2,num_6,32,num_4,1.08344799746,,,2017_Jul_11_1133,60.0013856165,FEMA4ImagesEEG,001,100900,
AFNE01.JPG,AFNE01.JPG,AFNE01.JPG,AFNE01.JPG,AFNE01.JPG,AFNE01.JPG,,,,,4,7,47,0,,,,,,,,,,,,,,,,,,,AMNE20.jpg,AMNE15.jpg,AMSA16.jpg,AMSA07.jpg,AMSA07.jpg,MS,2,num_4,16,num_4,0.533472341718,,,2017_Jul_11_1133,60.0013856165,FEMA4ImagesEEG,001,100900,
AFNE01.JPG,AFNE01.JPG,AFNE01.JPG,AFNE01.JPG,AFNE01.JPG,AFNE01.JPG,,,,,4,8,48,6,,,,,,,,,,,,,,,,,,,AMNE10.jpg,AMSA19.jpg,AMNE13.jpg,AMSA06.jpg,AMSA19.jpg,MS,2,num_6,16,num_6,0.700156649109,,,2017_Jul_11_1133,60.0013856165,FEMA4ImagesEEG,001,100900,
AFNE01.JPG,AFNE01.JPG,AFNE01.JPG,AFNE01.JPG,AFNE01.JPG,AFNE01.JPG,,,,,4,9,49,8,,,,,,,,,,,,,,,,,,,AMSA19.jpg,AMSA02.jpg,AMNE18.jpg,AMNE15.jpg,AMNE18.jpg,MN,1,num_2,16,num_2,1.56649244111,,,2017_Jul_11_1133,60.0013856165,FEMA4ImagesEEG,001,100900,
AFNE01.JPG,AFNE01.JPG,AFNE01.JPG,AFNE01.JPG,AFNE01.JPG,AFNE01.JPG,,,,,5,0,50,9,,,,,,,,,,,,,,,,,,,AMNE09.jpg,AMSA12.jpg,AMSA16.jpg,AMNE05.jpg,AMSA16.jpg,MS,2,num_2,32,num_4,0.816834188765,,,2017_Jul_11_1133,60.0013856165,FEMA4ImagesEEG,001,100900,
AFNE01.JPG,AFNE01.JPG,AFNE01.JPG,AFNE01.JPG,AFNE01.JPG,AFNE01.JPG,,,,,5,1,51,8,,,,,,,,,,,,,,,,,,,AMSA04.jpg,AMSA01.jpg,AMNE08.jpg,AMNE15.jpg,AMSA01.jpg,MS,2,num_6,16,num_6,1.08350797603,,,2017_Jul_11_1133,60.0013856165,FEMA4ImagesEEG,001,100900,
AFNE01.JPG,AFNE01.JPG,AFNE01.JPG,AFNE01.JPG,AFNE01.JPG,AFNE01.JPG,,,,,5,2,52,2,,,,,,,,,,,,,,,,,,,AMSA03.jpg,AMNE15.jpg,AMSA20.jpg,AMNE18.jpg,AMNE18.jpg,MN,1,num_4,16,num_4,1.58343773382,,,2017_Jul_11_1133,60.0013856165,FEMA4ImagesEEG,001,100900,
AFNE01.JPG,AFNE01.JPG,AFNE01.JPG,AFNE01.JPG,AFNE01.JPG,AFNE01.JPG,,,,,5,3,53,4,,,,,,,,,,,,,,,,,,,AMSA15.jpg,AMSA18.jpg,AMNE12.jpg,AMNE04.jpg,AMNE12.jpg,MN,1,num_2,32,num_8,2.15013159928,,,2017_Jul_11_1133,60.0013856165,FEMA4ImagesEEG,001,100900,
AFNE01.JPG,AFNE01.JPG,AFNE01.JPG,AFNE01.JPG,AFNE01.JPG,AFNE01.JPG,,,,,5,4,54,3,,,,,,,,,,,,,,,,,,,AMSA17.jpg,AMNE15.jpg,AMNE02.jpg,AMSA07.jpg,AMNE02.jpg,MN,1,num_2,16,num_2,1.68342785514,,,2017_Jul_11_1133,60.0013856165,FEMA4ImagesEEG,001,100900,
AFNE01.JPG,AFNE01.JPG,AFNE01.JPG,AFNE01.JPG,AFNE01.JPG,AFNE01.JPG,,,,,5,5,55,6,,,,,,,,,,,,,,,,,,,AMNE12.jpg,AMNE19.jpg,AMSA02.jpg,AMSA06.jpg,AMNE12.jpg,MN,1,num_8,32,num_2,1.06673844811,,,2017_Jul_11_1133,60.0013856165,FEMA4ImagesEEG,001,100900,
AFNE01.JPG,AFNE01.JPG,AFNE01.JPG,AFNE01.JPG,AFNE01.JPG,AFNE01.JPG,,,,,5,6,56,7,,,,,,,,,,,,,,,,,,,AMNE06.jpg,AMNE15.jpg,AMSA14.jpg,AMSA17.jpg,AMSA14.jpg,MS,2,num_2,16,num_2,0.66676352988,,,2017_Jul_11_1133,60.0013856165,FEMA4ImagesEEG,001,100900,
AFNE01.JPG,AFNE01.JPG,AFNE01.JPG,AFNE01.JPG,AFNE01.JPG,AFNE01.JPG,,,,,5,7,57,5,,,,,,,,,,,,,,,,,,,AMNE01.jpg,AMNE11.jpg,AMSA10.jpg,AMSA07.jpg,AMSA10.jpg,MS,2,num_2,32,num_6,3.54989098059,,,2017_Jul_11_1133,60.0013856165,FEMA4ImagesEEG,001,100900,
AFNE01.JPG,AFNE01.JPG,AFNE01.JPG,AFNE01.JPG,AFNE01.JPG,AFNE01.JPG,,,,,5,8,58,0,,,,,,,,,,,,,,,,,,,AMNE19.jpg,AMSA02.jpg,AMSA20.jpg,AMNE05.jpg,AMSA20.jpg,MS,2,num_2,16,num_2,0.600188979646,,,2017_Jul_11_1133,60.0013856165,FEMA4ImagesEEG,001,100900,
AFNE01.JPG,AFNE01.JPG,AFNE01.JPG,AFNE01.JPG,AFNE01.JPG,AFNE01.JPG,,,,,5,9,59,1,,,,,,,,,,,,,,,,,,,AMNE20.jpg,AMSA18.jpg,AMSA12.jpg,AMNE07.jpg,AMNE20.jpg,MN,1,num_8,16,num_8,1.11681674048,,,2017_Jul_11_1133,60.0013856165,FEMA4ImagesEEG,001,100900,
,,,,,,,,,,,,,,,,,,,,,,,,,,,,,,,,,,,,,,,,,,,space,29.531455213,2017_Jul_11_1133,60.0013856165,FEMA4ImagesEEG,001,100900,
AFNE01.JPG,AFNE01.JPG,AFNE01.JPG,AFNE01.JPG,AFNE01.JPG,AFNE01.JPG,,,,,,,,,0,0,0,8,,,,,,,,,,,,,,,AFNE20.jpg,AFNE05.jpg,AFSA13.jpg,AFSA16.jpg,AFNE20.jpg,FN,3,num_8,16,num_8,0.650003624381,,,2017_Jul_11_1133,60.0013856165,FEMA4ImagesEEG,001,100900,
AFNE01.JPG,AFNE01.JPG,AFNE01.JPG,AFNE01.JPG,AFNE01.JPG,AFNE01.JPG,,,,,,,,,0,1,1,6,,,,,,,,,,,,,,,AFSA03.jpg,AFSA05.jpg,AFNE15.jpg,AFNE12.jpg,AFNE15.jpg,FN,3,num_2,32,num_4,0.933553424664,,,2017_Jul_11_1133,60.0013856165,FEMA4ImagesEEG,001,100900,
AFNE01.JPG,AFNE01.JPG,AFNE01.JPG,AFNE01.JPG,AFNE01.JPG,AFNE01.JPG,,,,,,,,,0,2,2,2,,,,,,,,,,,,,,,AFSA03.jpg,AFSA13.jpg,AFNE19.jpg,AFNE13.jpg,AFSA03.jpg,FS,4,num_8,16,num_8,0.666751983343,,,2017_Jul_11_1133,60.0013856165,FEMA4ImagesEEG,001,100900,
AFNE01.JPG,AFNE01.JPG,AFNE01.JPG,AFNE01.JPG,AFNE01.JPG,AFNE01.JPG,,,,,,,,,0,3,3,5,,,,,,,,,,,,,,,AFNE05.jpg,AFSA16.jpg,AFSA06.jpg,AFNE03.jpg,AFSA06.jpg,FS,4,num_2,16,num_2,0.528356551658,,,2017_Jul_11_1133,60.0013856165,FEMA4ImagesEEG,001,100900,
AFNE01.JPG,AFNE01.JPG,AFNE01.JPG,AFNE01.JPG,AFNE01.JPG,AFNE01.JPG,,,,,,,,,0,4,4,7,,,,,,,,,,,,,,,AFNE01.jpg,AFNE12.jpg,AFSA06.jpg,AFSA08.jpg,AFSA06.jpg,FS,4,num_2,32,num_4,0.583613819676,,,2017_Jul_11_1133,60.0013856165,FEMA4ImagesEEG,001,100900,
AFNE01.JPG,AFNE01.JPG,AFNE01.JPG,AFNE01.JPG,AFNE01.JPG,AFNE01.JPG,,,,,,,,,0,5,5,9,,,,,,,,,,,,,,,AFNE06.jpg,AFSA12.jpg,AFNE14.jpg,AFSA17.jpg,AFSA12.jpg,FS,4,num_6,16,num_6,0.483469423139,,,2017_Jul_11_1133,60.0013856165,FEMA4ImagesEEG,001,100900,
AFNE01.JPG,AFNE01.JPG,AFNE01.JPG,AFNE01.JPG,AFNE01.JPG,AFNE01.JPG,,,,,,,,,0,6,6,1,,,,,,,,,,,,,,,AFSA10.jpg,AFNE07.jpg,AFNE19.jpg,AFSA16.jpg,AFNE07.jpg,FN,3,num_6,16,num_6,2.30002360628,,,2017_Jul_11_1133,60.0013856165,FEMA4ImagesEEG,001,100900,
AFNE01.JPG,AFNE01.JPG,AFNE01.JPG,AFNE01.JPG,AFNE01.JPG,AFNE01.JPG,,,,,,,,,0,7,7,0,,,,,,,,,,,,,,,AFSA07.jpg,AFSA03.jpg,AFNE20.jpg,AFNE08.jpg,AFNE08.jpg,FN,3,num_4,32,num_6,1.01677048998,,,2017_Jul_11_1133,60.0013856165,FEMA4ImagesEEG,001,100900,
AFNE01.JPG,AFNE01.JPG,AFNE01.JPG,AFNE01.JPG,AFNE01.JPG,AFNE01.JPG,,,,,,,,,0,8,8,4,,,,,,,,,,,,,,,AFSA18.jpg,AFNE20.jpg,AFSA09.jpg,AFNE07.jpg,AFNE07.jpg,FN,3,num_4,16,num_4,1.06675288128,,,2017_Jul_11_1133,60.0013856165,FEMA4ImagesEEG,001,100900,
AFNE01.JPG,AFNE01.JPG,AFNE01.JPG,AFNE01.JPG,AFNE01.JPG,AFNE01.JPG,,,,,,,,,0,9,9,3,,,,,,,,,,,,,,,AFNE08.jpg,AFSA02.jpg,AFSA16.jpg,AFNE19.jpg,AFSA02.jpg,FS,4,num_6,16,num_6,0.600131246494,,,2017_Jul_11_1133,60.0013856165,FEMA4ImagesEEG,001,100900,
AFNE01.JPG,AFNE01.JPG,AFNE01.JPG,AFNE01.JPG,AFNE01.JPG,AFNE01.JPG,,,,,,,,,1,0,10,8,,,,,,,,,,,,,,,AFSA11.jpg,AFNE09.jpg,AFSA16.jpg,AFNE07.jpg,AFSA11.jpg,FS,4,num_8,16,num_8,0.550145968562,,,2017_Jul_11_1133,60.0013856165,FEMA4ImagesEEG,001,100900,
AFNE01.JPG,AFNE01.JPG,AFNE01.JPG,AFNE01.JPG,AFNE01.JPG,AFNE01.JPG,,,,,,,,,1,1,11,4,,,,,,,,,,,,,,,AFNE01.jpg,AFNE20.jpg,AFSA20.jpg,AFSA17.jpg,AFSA20.jpg,FS,4,num_2,32,num_4,2.13342621946,,,2017_Jul_11_1133,60.0013856165,FEMA4ImagesEEG,001,100900,
AFNE01.JPG,AFNE01.JPG,AFNE01.JPG,AFNE01.JPG,AFNE01.JPG,AFNE01.JPG,,,,,,,,,1,2,12,2,,,,,,,,,,,,,,,AFNE14.jpg,AFSA12.jpg,AFSA15.jpg,AFNE20.jpg,AFNE20.jpg,FN,3,num_4,32,num_8,0.85010670987,,,2017_Jul_11_1133,60.0013856165,FEMA4ImagesEEG,001,100900,
AFNE01.JPG,AFNE01.JPG,AFNE01.JPG,AFNE01.JPG,AFNE01.JPG,AFNE01.JPG,,,,,,,,,1,3,13,7,,,,,,,,,,,,,,,AFSA16.jpg,AFNE16.jpg,AFNE05.jpg,AFSA20.jpg,AFSA20.jpg,FS,4,num_4,16,num_4,0.516890125815,,,2017_Jul_11_1133,60.0013856165,FEMA4ImagesEEG,001,100900,
AFNE01.JPG,AFNE01.JPG,AFNE01.JPG,AFNE01.JPG,AFNE01.JPG,AFNE01.JPG,,,,,,,,,1,4,14,6,,,,,,,,,,,,,,,AFNE01.jpg,AFSA14.jpg,AFSA19.jpg,AFNE12.jpg,AFSA14.jpg,FS,4,num_6,16,num_6,0.66682190448,,,2017_Jul_11_1133,60.0013856165,FEMA4ImagesEEG,001,100900,
AFNE01.JPG,AFNE01.JPG,AFNE01.JPG,AFNE01.JPG,AFNE01.JPG,AFNE01.JPG,,,,,,,,,1,5,15,9,,,,,,,,,,,,,,,AFNE07.jpg,AFNE15.jpg,AFSA19.jpg,AFSA07.jpg,AFNE15.jpg,FN,3,num_6,32,num_8,1.13346182159,,,2017_Jul_11_1133,60.0013856165,FEMA4ImagesEEG,001,100900,
AFNE01.JPG,AFNE01.JPG,AFNE01.JPG,AFNE01.JPG,AFNE01.JPG,AFNE01.JPG,,,,,,,,,1,6,16,1,,,,,,,,,,,,,,,AFNE02.jpg,AFSA18.jpg,AFSA20.jpg,AFNE20.jpg,AFNE02.jpg,FN,3,num_8,32,num_4,1.18343908107,,,2017_Jul_11_1133,60.0013856165,FEMA4ImagesEEG,001,100900,
AFNE01.JPG,AFNE01.JPG,AFNE01.JPG,AFNE01.JPG,AFNE01.JPG,AFNE01.JPG,,,,,,,,,1,7,17,3,,,,,,,,,,,,,,,AFSA02.jpg,AFNE11.jpg,AFSA04.jpg,AFNE13.jpg,AFSA04.jpg,FS,4,num_2,16,num_2,2.30009032018,,,2017_Jul_11_1133,60.0013856165,FEMA4ImagesEEG,001,100900,
AFNE01.JPG,AFNE01.JPG,AFNE01.JPG,AFNE01.JPG,AFNE01.JPG,AFNE01.JPG,,,,,,,,,1,8,18,0,,,,,,,,,,,,,,,AFNE06.jpg,AFSA01.jpg,AFSA15.jpg,AFNE11.jpg,AFSA15.jpg,FS,4,num_2,32,num_8,0.900107704103,,,2017_Jul_11_1133,60.0013856165,FEMA4ImagesEEG,001,100900,
AFNE01.JPG,AFNE01.JPG,AFNE01.JPG,AFNE01.JPG,AFNE01.JPG,AFNE01.JPG,,,,,,,,,1,9,19,5,,,,,,,,,,,,,,,AFNE04.jpg,AFSA05.jpg,AFNE10.jpg,AFSA17.jpg,AFNE04.jpg,FN,3,num_8,16,num_8,0.916758879088,,,2017_Jul_11_1133,60.0013856165,FEMA4ImagesEEG,001,100900,
AFNE01.JPG,AFNE01.JPG,AFNE01.JPG,AFNE01.JPG,AFNE01.JPG,AFNE01.JPG,,,,,,,,,2,0,20,6,,,,,,,,,,,,,,,AFSA12.jpg,AFSA15.jpg,AFNE03.jpg,AFNE09.jpg,AFNE03.jpg,FN,3,num_2,32,num_8,0.86672837683,,,2017_Jul_11_1133,60.0013856165,FEMA4ImagesEEG,001,100900,
AFNE01.JPG,AFNE01.JPG,AFNE01.JPG,AFNE01.JPG,AFNE01.JPG,AFNE01.JPG,,,,,,,,,2,1,21,4,,,,,,,,,,,,,,,AFNE07.jpg,AFSA15.jpg,AFSA14.jpg,AFNE15.jpg,AFSA15.jpg,FS,4,num_6,16,num_6,0.716768693877,,,2017_Jul_11_1133,60.0013856165,FEMA4ImagesEEG,001,100900,
AFNE01.JPG,AFNE01.JPG,AFNE01.JPG,AFNE01.JPG,AFNE01.JPG,AFNE01.JPG,,,,,,,,,2,2,22,1,,,,,,,,,,,,,,,AFSA08.jpg,AFSA13.jpg,AFNE06.jpg,AFNE11.jpg,AFNE06.jpg,FN,3,num_2,32,num_4,1.06670861947,,,2017_Jul_11_1133,60.0013856165,FEMA4ImagesEEG,001,100900,
AFNE01.JPG,AFNE01.JPG,AFNE01.JPG,AFNE01.JPG,AFNE01.JPG,AFNE01.JPG,,,,,,,,,2,3,23,9,,,,,,,,,,,,,,,AFNE06.jpg,AFSA20.jpg,AFSA08.jpg,AFNE04.jpg,AFNE06.jpg,FN,3,num_8,32,num_4,1.61664289981,,,2017_Jul_11_1133,60.0013856165,FEMA4ImagesEEG,001,100900,
AFNE01.JPG,AFNE01.JPG,AFNE01.JPG,AFNE01.JPG,AFNE01.JPG,AFNE01.JPG,,,,,,,,,2,4,24,2,,,,,,,,,,,,,,,AFSA06.jpg,AFSA14.jpg,AFNE11.jpg,AFNE18.jpg,AFSA06.jpg,FS,4,num_8,32,num_6,0.78348565218,,,2017_Jul_11_1133,60.0013856165,FEMA4ImagesEEG,001,100900,
AFNE01.JPG,AFNE01.JPG,AFNE01.JPG,AFNE01.JPG,AFNE01.JPG,AFNE01.JPG,,,,,,,,,2,5,25,8,,,,,,,,,,,,,,,AFSA11.jpg,AFNE07.jpg,AFSA04.jpg,AFNE05.jpg,AFSA04.jpg,FS,4,num_2,16,num_2,0.700186798349,,,2017_Jul_11_1133,60.0013856165,FEMA4ImagesEEG,001,100900,
AFNE01.JPG,AFNE01.JPG,AFNE01.JPG,AFNE01.JPG,AFNE01.JPG,AFNE01.JPG,,,,,,,,,2,6,26,7,,,,,,,,,,,,,,,AFNE09.jpg,AFSA17.jpg,AFSA06.jpg,AFNE20.jpg,AFSA17.jpg,FS,4,num_6,16,num_6,0.616768950364,,,2017_Jul_11_1133,60.0013856165,FEMA4ImagesEEG,001,100900,
AFNE01.JPG,AFNE01.JPG,AFNE01.JPG,AFNE01.JPG,AFNE01.JPG,AFNE01.JPG,,,,,,,,,2,7,27,3,,,,,,,,,,,,,,,AFNE14.jpg,AFSA11.jpg,AFSA17.jpg,AFNE18.jpg,AFNE14.jpg,FN,3,num_8,32,num_4,1.08342330065,,,2017_Jul_11_1133,60.0013856165,FEMA4ImagesEEG,001,100900,
AFNE01.JPG,AFNE01.JPG,AFNE01.JPG,AFNE01.JPG,AFNE01.JPG,AFNE01.JPG,,,,,,,,,2,8,28,5,,,,,,,,,,,,,,,AFSA01.jpg,AFNE05.jpg,AFSA05.jpg,AFNE02.jpg,AFNE05.jpg,FN,3,num_6,32,num_4,1.03342423076,,,2017_Jul_11_1133,60.0013856165,FEMA4ImagesEEG,001,100900,
AFNE01.JPG,AFNE01.JPG,AFNE01.JPG,AFNE01.JPG,AFNE01.JPG,AFNE01.JPG,,,,,,,,,2,9,29,0,,,,,,,,,,,,,,,AFSA16.jpg,AFNE05.jpg,AFNE04.jpg,AFSA15.jpg,AFNE04.jpg,FN,3,num_2,32,num_6,1.03341460857,,,2017_Jul_11_1133,60.0013856165,FEMA4ImagesEEG,001,100900,
AFNE01.JPG,AFNE01.JPG,AFNE01.JPG,AFNE01.JPG,AFNE01.JPG,AFNE01.JPG,,,,,,,,,3,0,30,7,,,,,,,,,,,,,,,AFSA19.jpg,AFNE08.jpg,AFSA06.jpg,AFNE02.jpg,AFNE08.jpg,FN,3,num_6,16,num_6,0.850143915508,,,2017_Jul_11_1133,60.0013856165,FEMA4ImagesEEG,001,100900,
AFNE01.JPG,AFNE01.JPG,AFNE01.JPG,AFNE01.JPG,AFNE01.JPG,AFNE01.JPG,,,,,,,,,3,1,31,2,,,,,,,,,,,,,,,AFNE12.jpg,AFSA13.jpg,AFSA14.jpg,AFNE07.jpg,AFSA13.jpg,FS,4,num_6,16,num_6,0.616790439934,,,2017_Jul_11_1133,60.0013856165,FEMA4ImagesEEG,001,100900,
AFNE01.JPG,AFNE01.JPG,AFNE01.JPG,AFNE01.JPG,AFNE01.JPG,AFNE01.JPG,,,,,,,,,3,2,32,8,,,,,,,,,,,,,,,AFSA07.jpg,AFNE04.jpg,AFNE20.jpg,AFSA20.jpg,AFNE20.jpg,FN,3,num_2,32,num_6,1.53337740293,,,2017_Jul_11_1133,60.0013856165,FEMA4ImagesEEG,001,100900,
AFNE01.JPG,AFNE01.JPG,AFNE01.JPG,AFNE01.JPG,AFNE01.JPG,AFNE01.JPG,,,,,,,,,3,3,33,0,,,,,,,,,,,,,,,AFSA17.jpg,AFNE20.jpg,AFNE13.jpg,AFSA06.jpg,AFNE20.jpg,FN,3,num_6,16,num_6,0.966735176509,,,2017_Jul_11_1133,60.0013856165,FEMA4ImagesEEG,001,100900,
AFNE01.JPG,AFNE01.JPG,AFNE01.JPG,AFNE01.JPG,AFNE01.JPG,AFNE01.JPG,,,,,,,,,3,4,34,3,,,,,,,,,,,,,,,AFNE19.jpg,AFSA09.jpg,AFNE07.jpg,AFSA07.jpg,AFNE19.jpg,FN,3,num_8,32,num_2,3.0999278978,,,2017_Jul_11_1133,60.0013856165,FEMA4ImagesEEG,001,100900,
AFNE01.JPG,AFNE01.JPG,AFNE01.JPG,AFNE01.JPG,AFNE01.JPG,AFNE01.JPG,,,,,,,,,3,5,35,4,,,,,,,,,,,,,,,AFNE20.jpg,AFNE10.jpg,AFSA12.jpg,AFSA05.jpg,AFSA05.jpg,FS,4,num_4,16,num_4,0.516613327665,,,2017_Jul_11_1133,60.0013856165,FEMA4ImagesEEG,001,100900,
AFNE01.JPG,AFNE01.JPG,AFNE01.JPG,AFNE01.JPG,AFNE01.JPG,AFNE01.JPG,,,,,,,,,3,6,36,1,,,,,,,,,,,,,,,AFSA16.jpg,AFSA01.jpg,AFNE06.jpg,AFNE07.jpg,AFNE06.jpg,FN,3,num_2,32,num_4,2.11640074174,,,2017_Jul_11_1133,60.0013856165,FEMA4ImagesEEG,001,100900,
AFNE01.JPG,AFNE01.JPG,AFNE01.JPG,AFNE01.JPG,AFNE01.JPG,AFNE01.JPG,,,,,,,,,3,7,37,6,,,,,,,,,,,,,,,AFSA02.jpg,AFNE06.jpg,AFNE19.jpg,AFSA01.jpg,AFNE19.jpg,FN,3,num_2,32,num_6,1.01674611378,,,2017_Jul_11_1133,60.0013856165,FEMA4ImagesEEG,001,100900,
AFNE01.JPG,AFNE01.JPG,AFNE01.JPG,AFNE01.JPG,AFNE01.JPG,AFNE01.JPG,,,,,,,,,3,8,38,5,,,,,,,,,,,,,,,AFSA09.jpg,AFNE02.jpg,AFNE03.jpg,AFSA06.jpg,AFSA06.jpg,FS,4,num_4,32,num_8,0.550148534356,,,2017_Jul_11_1133,60.0013856165,FEMA4ImagesEEG,001,100900,
AFNE01.JPG,AFNE01.JPG,AFNE01.JPG,AFNE01.JPG,AFNE01.JPG,AFNE01.JPG,,,,,,,,,3,9,39,9,,,,,,,,,,,,,,,AFNE07.jpg,AFSA05.jpg,AFSA09.jpg,AFNE01.jpg,AFNE01.jpg,FN,3,num_4,16,num_4,1.31671968475,,,2017_Jul_11_1133,60.0013856165,FEMA4ImagesEEG,001,100900,
AFNE01.JPG,AFNE01.JPG,AFNE01.JPG,AFNE01.JPG,AFNE01.JPG,AFNE01.JPG,,,,,,,,,4,0,40,1,,,,,,,,,,,,,,,AFNE05.jpg,AFNE02.jpg,AFSA16.jpg,AFSA08.jpg,AFSA16.jpg,FS,4,num_2,32,num_4,0.966778476257,,,2017_Jul_11_1133,60.0013856165,FEMA4ImagesEEG,001,100900,
AFNE01.JPG,AFNE01.JPG,AFNE01.JPG,AFNE01.JPG,AFNE01.JPG,AFNE01.JPG,,,,,,,,,4,1,41,6,,,,,,,,,,,,,,,AFSA04.jpg,AFNE15.jpg,AFNE18.jpg,AFSA09.jpg,AFNE18.jpg,FN,3,num_2,16,num_2,1.58339315117,,,2017_Jul_11_1133,60.0013856165,FEMA4ImagesEEG,001,100900,
AFNE01.JPG,AFNE01.JPG,AFNE01.JPG,AFNE01.JPG,AFNE01.JPG,AFNE01.JPG,,,,,,,,,4,2,42,4,,,,,,,,,,,,,,,AFSA01.jpg,AFNE05.jpg,AFNE15.jpg,AFSA06.jpg,AFNE15.jpg,FN,3,num_2,16,num_2,3.03323274944,,,2017_Jul_11_1133,60.0013856165,FEMA4ImagesEEG,001,100900,
AFNE01.JPG,AFNE01.JPG,AFNE01.JPG,AFNE01.JPG,AFNE01.JPG,AFNE01.JPG,,,,,,,,,4,3,43,3,,,,,,,,,,,,,,,AFSA07.jpg,AFNE14.jpg,AFSA05.jpg,AFNE15.jpg,AFSA05.jpg,FS,4,num_2,16,num_2,0.650133844465,,,2017_Jul_11_1133,60.0013856165,FEMA4ImagesEEG,001,100900,
AFNE01.JPG,AFNE01.JPG,AFNE01.JPG,AFNE01.JPG,AFNE01.JPG,AFNE01.JPG,,,,,,,,,4,4,44,0,,,,,,,,,,,,,,,AFNE19.jpg,AFSA19.jpg,AFSA01.jpg,AFNE02.jpg,AFNE19.jpg,FN,3,num_8,32,num_4,1.06672369409,,,2017_Jul_11_1133,60.0013856165,FEMA4ImagesEEG,001,100900,
AFNE01.JPG,AFNE01.JPG,AFNE01.JPG,AFNE01.JPG,AFNE01.JPG,AFNE01.JPG,,,,,,,,,4,5,45,7,,,,,,,,,,,,,,,AFNE17.jpg,AFNE08.jpg,AFSA11.jpg,AFSA08.jpg,AFNE08.jpg,FN,3,num_6,32,num_8,1.05009497073,,,2017_Jul_11_1133,60.0013856165,FEMA4ImagesEEG,001,100900,
AFNE01.JPG,AFNE01.JPG,AFNE01.JPG,AFNE01.JPG,AFNE01.JPG,AFNE01.JPG,,,,,,,,,4,6,46,2,,,,,,,,,,,,,,,AFSA10.jpg,AFNE05.jpg,AFNE06.jpg,AFSA06.jpg,AFSA10.jpg,FS,4,num_8,32,num_4,1.38340649405,,,2017_Jul_11_1133,60.0013856165,FEMA4ImagesEEG,001,100900,
AFNE01.JPG,AFNE01.JPG,AFNE01.JPG,AFNE01.JPG,AFNE01.JPG,AFNE01.JPG,,,,,,,,,4,7,47,9,,,,,,,,,,,,,,,AFSA01.jpg,AFNE13.jpg,AFNE15.jpg,AFSA09.jpg,AFSA01.jpg,FS,4,num_8,32,num_4,0.833494023653,,,2017_Jul_11_1133,60.0013856165,FEMA4ImagesEEG,001,100900,
AFNE01.JPG,AFNE01.JPG,AFNE01.JPG,AFNE01.JPG,AFNE01.JPG,AFNE01.JPG,,,,,,,,,4,8,48,5,,,,,,,,,,,,,,,AFNE09.jpg,AFSA01.jpg,AFNE08.jpg,AFSA06.jpg,AFNE08.jpg,FN,3,num_2,32,num_8,0.983446008991,,,2017_Jul_11_1133,60.0013856165,FEMA4ImagesEEG,001,100900,
AFNE01.JPG,AFNE01.JPG,AFNE01.JPG,AFNE01.JPG,AFNE01.JPG,AFNE01.JPG,,,,,,,,,4,9,49,8,,,,,,,,,,,,,,,AFNE20.jpg,AFSA15.jpg,AFNE05.jpg,AFSA20.jpg,AFSA15.jpg,FS,4,num_6,32,num_2,1.65004243376,,,2017_Jul_11_1133,60.0013856165,FEMA4ImagesEEG,001,100900,
AFNE01.JPG,AFNE01.JPG,AFNE01.JPG,AFNE01.JPG,AFNE01.JPG,AFNE01.JPG,,,,,,,,,5,0,50,1,,,,,,,,,,,,,,,AFNE02.jpg,AFSA18.jpg,AFSA12.jpg,AFNE12.jpg,AFNE12.jpg,FN,3,num_4,16,num_4,1.21674239333,,,2017_Jul_11_1133,60.0013856165,FEMA4ImagesEEG,001,100900,
AFNE01.JPG,AFNE01.JPG,AFNE01.JPG,AFNE01.JPG,AFNE01.JPG,AFNE01.JPG,,,,,,,,,5,1,51,6,,,,,,,,,,,,,,,AFNE09.jpg,AFSA02.jpg,AFNE01.jpg,AFSA15.jpg,AFSA15.jpg,FS,4,num_4,16,num_4,0.600047854241,,,2017_Jul_11_1133,60.0013856165,FEMA4ImagesEEG,001,100900,
AFNE01.JPG,AFNE01.JPG,AFNE01.JPG,AFNE01.JPG,AFNE01.JPG,AFNE01.JPG,,,,,,,,,5,2,52,0,,,,,,,,,,,,,,,AFSA18.jpg,AFSA12.jpg,AFNE13.jpg,AFNE15.jpg,AFNE13.jpg,FN,3,num_2,32,num_4,1.25006751576,,,2017_Jul_11_1133,60.0013856165,FEMA4ImagesEEG,001,100900,
AFNE01.JPG,AFNE01.JPG,AFNE01.JPG,AFNE01.JPG,AFNE01.JPG,AFNE01.JPG,,,,,,,,,5,3,53,8,,,,,,,,,,,,,,,AFNE19.jpg,AFSA17.jpg,AFNE06.jpg,AFSA18.jpg,AFSA17.jpg,FS,4,num_6,32,num_4,0.750176566886,,,2017_Jul_11_1133,60.0013856165,FEMA4ImagesEEG,001,100900,
AFNE01.JPG,AFNE01.JPG,AFNE01.JPG,AFNE01.JPG,AFNE01.JPG,AFNE01.JPG,,,,,,,,,5,4,54,7,,,,,,,,,,,,,,,AFNE13.jpg,AFSA02.jpg,AFSA10.jpg,AFNE14.jpg,AFNE14.jpg,FN,3,num_4,16,num_4,1.48342291592,,,2017_Jul_11_1133,60.0013856165,FEMA4ImagesEEG,001,100900,
AFNE01.JPG,AFNE01.JPG,AFNE01.JPG,AFNE01.JPG,AFNE01.JPG,AFNE01.JPG,,,,,,,,,5,5,55,2,,,,,,,,,,,,,,,AFNE13.jpg,AFSA10.jpg,AFNE09.jpg,AFSA19.jpg,AFNE13.jpg,FN,3,num_8,16,num_8,0.950105170486,,,2017_Jul_11_1133,60.0013856165,FEMA4ImagesEEG,001,100900,
AFNE01.JPG,AFNE01.JPG,AFNE01.JPG,AFNE01.JPG,AFNE01.JPG,AFNE01.JPG,,,,,,,,,5,6,56,4,,,,,,,,,,,,,,,AFNE10.jpg,AFSA07.jpg,AFNE15.jpg,AFSA06.jpg,AFNE10.jpg,FN,3,num_8,32,num_2,1.50004362059,,,2017_Jul_11_1133,60.0013856165,FEMA4ImagesEEG,001,100900,
AFNE01.JPG,AFNE01.JPG,AFNE01.JPG,AFNE01.JPG,AFNE01.JPG,AFNE01.JPG,,,,,,,,,5,7,57,5,,,,,,,,,,,,,,,AFNE19.jpg,AFSA19.jpg,AFSA11.jpg,AFNE14.jpg,AFSA19.jpg,FS,4,num_6,16,num_6,0.683439722518,,,2017_Jul_11_1133,60.0013856165,FEMA4ImagesEEG,001,100900,
AFNE01.JPG,AFNE01.JPG,AFNE01.JPG,AFNE01.JPG,AFNE01.JPG,AFNE01.JPG,,,,,,,,,5,8,58,3,,,,,,,,,,,,,,,AFSA05.jpg,AFNE14.jpg,AFSA01.jpg,AFNE06.jpg,AFSA05.jpg,FS,4,num_8,16,num_8,1.01677530119,,,2017_Jul_11_1133,60.0013856165,FEMA4ImagesEEG,001,100900,
AFNE01.JPG,AFNE01.JPG,AFNE01.JPG,AFNE01.JPG,AFNE01.JPG,AFNE01.JPG,,,,,,,,,5,9,59,9,,,,,,,,,,,,,,,AFSA14.jpg,AFNE01.jpg,AFNE08.jpg,AFSA17.jpg,AFSA14.jpg,FS,4,num_8,16,num_8,0.700227211695,,,2017_Jul_11_1133,60.0013856165,FEMA4ImagesEEG,001,100900,
,,,,,,,,,,,,,,,,,,,,,,,,,,,,,,,,,,,,,,,,,,,space,27.8483009483,2017_Jul_11_1133,60.0013856165,FEMA4ImagesEEG,001,100900,
AFNE01.JPG,AFNE01.JPG,AFNE01.JPG,AFNE01.JPG,AFNE01.JPG,AFNE01.JPG,,,,,,,,,,,,,0,0,0,1,,,,,,,,,,,AMSA05.jpg,AMSA02.jpg,AMNE04.jpg,AMNE06.jpg,AMSA02.jpg,MS,2,num_6,16,num_6,0.700164988404,,,2017_Jul_11_1133,60.0013856165,FEMA4ImagesEEG,001,100900,
AFNE01.JPG,AFNE01.JPG,AFNE01.JPG,AFNE01.JPG,AFNE01.JPG,AFNE01.JPG,,,,,,,,,,,,,0,1,1,8,,,,,,,,,,,AMSA20.jpg,AMNE19.jpg,AMNE07.jpg,AMSA06.jpg,AMNE07.jpg,MN,1,num_2,16,num_2,1.51677850843,,,2017_Jul_11_1133,60.0013856165,FEMA4ImagesEEG,001,100900,
AFNE01.JPG,AFNE01.JPG,AFNE01.JPG,AFNE01.JPG,AFNE01.JPG,AFNE01.JPG,,,,,,,,,,,,,0,2,2,7,,,,,,,,,,,AMNE05.jpg,AMSA20.jpg,AMSA06.jpg,AMNE15.jpg,AMNE15.jpg,MN,1,num_4,16,num_4,1.1667372291,,,2017_Jul_11_1133,60.0013856165,FEMA4ImagesEEG,001,100900,
AFNE01.JPG,AFNE01.JPG,AFNE01.JPG,AFNE01.JPG,AFNE01.JPG,AFNE01.JPG,,,,,,,,,,,,,0,3,3,6,,,,,,,,,,,AMSA19.jpg,AMSA11.jpg,AMNE17.jpg,AMNE15.jpg,AMNE17.jpg,MN,1,num_2,32,num_8,0.916785500478,,,2017_Jul_11_1133,60.0013856165,FEMA4ImagesEEG,001,100900,
AFNE01.JPG,AFNE01.JPG,AFNE01.JPG,AFNE01.JPG,AFNE01.JPG,AFNE01.JPG,,,,,,,,,,,,,0,4,4,9,,,,,,,,,,,AMNE01.jpg,AMNE05.jpg,AMSA03.jpg,AMSA20.jpg,AMSA20.jpg,MS,2,num_4,16,num_4,0.566823764704,,,2017_Jul_11_1133,60.0013856165,FEMA4ImagesEEG,001,100900,
AFNE01.JPG,AFNE01.JPG,AFNE01.JPG,AFNE01.JPG,AFNE01.JPG,AFNE01.JPG,,,,,,,,,,,,,0,5,5,0,,,,,,,,,,,AMNE06.jpg,AMSA19.jpg,AMNE18.jpg,AMSA15.jpg,AMNE18.jpg,MN,1,num_2,16,num_2,1.10010783235,,,2017_Jul_11_1133,60.0013856165,FEMA4ImagesEEG,001,100900,
AFNE01.JPG,AFNE01.JPG,AFNE01.JPG,AFNE01.JPG,AFNE01.JPG,AFNE01.JPG,,,,,,,,,,,,,0,6,6,5,,,,,,,,,,,AMNE14.jpg,AMNE17.jpg,AMSA04.jpg,AMSA08.jpg,AMSA08.jpg,MS,2,num_4,16,num_4,0.716763241217,,,2017_Jul_11_1133,60.0013856165,FEMA4ImagesEEG,001,100900,
AFNE01.JPG,AFNE01.JPG,AFNE01.JPG,AFNE01.JPG,AFNE01.JPG,AFNE01.JPG,,,,,,,,,,,,,0,7,7,3,,,,,,,,,,,AMSA07.jpg,AMNE06.jpg,AMSA14.jpg,AMNE14.jpg,AMSA14.jpg,MS,2,num_2,16,num_2,0.65015340969,,,2017_Jul_11_1133,60.0013856165,FEMA4ImagesEEG,001,100900,
AFNE01.JPG,AFNE01.JPG,AFNE01.JPG,AFNE01.JPG,AFNE01.JPG,AFNE01.JPG,,,,,,,,,,,,,0,8,8,2,,,,,,,,,,,AMSA03.jpg,AMSA16.jpg,AMNE18.jpg,AMNE20.jpg,AMSA16.jpg,MS,2,num_6,32,num_8,0.883511375636,,,2017_Jul_11_1133,60.0013856165,FEMA4ImagesEEG,001,100900,
AFNE01.JPG,AFNE01.JPG,AFNE01.JPG,AFNE01.JPG,AFNE01.JPG,AFNE01.JPG,,,,,,,,,,,,,0,9,9,4,,,,,,,,,,,AMSA06.jpg,AMNE08.jpg,AMSA15.jpg,AMNE06.jpg,AMNE06.jpg,MN,1,num_4,32,num_6,1.35011953954,,,2017_Jul_11_1133,60.0013856165,FEMA4ImagesEEG,001,100900,
AFNE01.JPG,AFNE01.JPG,AFNE01.JPG,AFNE01.JPG,AFNE01.JPG,AFNE01.JPG,,,,,,,,,,,,,1,0,10,8,,,,,,,,,,,AMNE16.jpg,AMNE20.jpg,AMSA19.jpg,AMSA08.jpg,AMSA19.jpg,MS,2,num_2,32,num_8,0.800194239477,,,2017_Jul_11_1133,60.0013856165,FEMA4ImagesEEG,001,100900,
AFNE01.JPG,AFNE01.JPG,AFNE01.JPG,AFNE01.JPG,AFNE01.JPG,AFNE01.JPG,,,,,,,,,,,,,1,1,11,4,,,,,,,,,,,AMNE04.jpg,AMNE13.jpg,AMSA03.jpg,AMSA06.jpg,AMNE13.jpg,MN,1,num_6,16,num_6,0.866773601156,,,2017_Jul_11_1133,60.0013856165,FEMA4ImagesEEG,001,100900,
AFNE01.JPG,AFNE01.JPG,AFNE01.JPG,AFNE01.JPG,AFNE01.JPG,AFNE01.JPG,,,,,,,,,,,,,1,2,12,2,,,,,,,,,,,AMNE14.jpg,AMSA10.jpg,AMSA19.jpg,AMNE13.jpg,AMSA10.jpg,MS,2,num_6,16,num_6,0.583464675816,,,2017_Jul_11_1133,60.0013856165,FEMA4ImagesEEG,001,100900,
AFNE01.JPG,AFNE01.JPG,AFNE01.JPG,AFNE01.JPG,AFNE01.JPG,AFNE01.JPG,,,,,,,,,,,,,1,3,13,3,,,,,,,,,,,AMSA11.jpg,AMNE14.jpg,AMSA18.jpg,AMNE03.jpg,AMSA11.jpg,MS,2,num_8,32,num_2,0.933452712372,,,2017_Jul_11_1133,60.0013856165,FEMA4ImagesEEG,001,100900,
AFNE01.JPG,AFNE01.JPG,AFNE01.JPG,AFNE01.JPG,AFNE01.JPG,AFNE01.JPG,,,,,,,,,,,,,1,4,14,7,,,,,,,,,,,AMSA11.jpg,AMSA03.jpg,AMNE08.jpg,AMNE05.jpg,AMSA11.jpg,MS,2,num_8,16,num_8,0.949911123142,,,2017_Jul_11_1133,60.0013856165,FEMA4ImagesEEG,001,100900,
AFNE01.JPG,AFNE01.JPG,AFNE01.JPG,AFNE01.JPG,AFNE01.JPG,AFNE01.JPG,,,,,,,,,,,,,1,5,15,1,,,,,,,,,,,AMNE14.jpg,AMSA19.jpg,AMNE18.jpg,AMSA11.jpg,AMSA11.jpg,MS,2,num_4,16,num_4,0.900111873867,,,2017_Jul_11_1133,60.0013856165,FEMA4ImagesEEG,001,100900,
AFNE01.JPG,AFNE01.JPG,AFNE01.JPG,AFNE01.JPG,AFNE01.JPG,AFNE01.JPG,,,,,,,,,,,,,1,6,16,6,,,,,,,,,,,AMNE11.jpg,AMSA04.jpg,AMSA15.jpg,AMNE03.jpg,AMNE11.jpg,MN,1,num_8,16,num_8,1.0834470354,,,2017_Jul_11_1133,60.0013856165,FEMA4ImagesEEG,001,100900,
AFNE01.JPG,AFNE01.JPG,AFNE01.JPG,AFNE01.JPG,AFNE01.JPG,AFNE01.JPG,,,,,,,,,,,,,1,7,17,9,,,,,,,,,,,AMNE17.jpg,AMSA13.jpg,AMNE11.jpg,AMSA05.jpg,AMNE17.jpg,MN,1,num_8,32,num_4,0.683483663946,,,2017_Jul_11_1133,60.0013856165,FEMA4ImagesEEG,001,100900,
AFNE01.JPG,AFNE01.JPG,AFNE01.JPG,AFNE01.JPG,AFNE01.JPG,AFNE01.JPG,,,,,,,,,,,,,1,8,18,5,,,,,,,,,,,AMSA17.jpg,AMSA09.jpg,AMNE10.jpg,AMNE05.jpg,AMNE10.jpg,MN,1,num_2,32,num_6,0.733491072897,,,2017_Jul_11_1133,60.0013856165,FEMA4ImagesEEG,001,100900,
AFNE01.JPG,AFNE01.JPG,AFNE01.JPG,AFNE01.JPG,AFNE01.JPG,AFNE01.JPG,,,,,,,,,,,,,1,9,19,0,,,,,,,,,,,AMSA08.jpg,AMNE16.jpg,AMSA14.jpg,AMNE17.jpg,AMNE17.jpg,MN,1,num_4,32,num_6,0.783447484253,,,2017_Jul_11_1133,60.0013856165,FEMA4ImagesEEG,001,100900,
AFNE01.JPG,AFNE01.JPG,AFNE01.JPG,AFNE01.JPG,AFNE01.JPG,AFNE01.JPG,,,,,,,,,,,,,2,0,20,8,,,,,,,,,,,AMSA13.jpg,AMSA11.jpg,AMNE15.jpg,AMNE05.jpg,AMSA11.jpg,MS,2,num_6,16,num_6,0.650139297126,,,2017_Jul_11_1133,60.0013856165,FEMA4ImagesEEG,001,100900,
AFNE01.JPG,AFNE01.JPG,AFNE01.JPG,AFNE01.JPG,AFNE01.JPG,AFNE01.JPG,,,,,,,,,,,,,2,1,21,3,,,,,,,,,,,AMNE07.jpg,AMSA02.jpg,AMSA01.jpg,AMNE15.jpg,AMNE15.jpg,MN,1,num_4,16,num_4,0.550183815649,,,2017_Jul_11_1133,60.0013856165,FEMA4ImagesEEG,001,100900,
AFNE01.JPG,AFNE01.JPG,AFNE01.JPG,AFNE01.JPG,AFNE01.JPG,AFNE01.JPG,,,,,,,,,,,,,2,2,22,7,,,,,,,,,,,AMSA15.jpg,AMNE08.jpg,AMNE07.jpg,AMSA16.jpg,AMNE08.jpg,MN,1,num_6,16,num_6,0.93344437331,,,2017_Jul_11_1133,60.0013856165,FEMA4ImagesEEG,001,100900,
AFNE01.JPG,AFNE01.JPG,AFNE01.JPG,AFNE01.JPG,AFNE01.JPG,AFNE01.JPG,,,,,,,,,,,,,2,3,23,0,,,,,,,,,,,AMSA12.jpg,AMNE19.jpg,AMNE09.jpg,AMSA04.jpg,AMSA12.jpg,MS,2,num_8,32,num_4,1.03330748179,,,2017_Jul_11_1133,60.0013856165,FEMA4ImagesEEG,001,100900,
AFNE01.JPG,AFNE01.JPG,AFNE01.JPG,AFNE01.JPG,AFNE01.JPG,AFNE01.JPG,,,,,,,,,,,,,2,4,24,4,,,,,,,,,,,AMSA20.jpg,AMSA19.jpg,AMNE01.jpg,AMNE07.jpg,AMSA20.jpg,MS,2,num_8,16,num_8,0.833477345062,,,2017_Jul_11_1133,60.0013856165,FEMA4ImagesEEG,001,100900,
AFNE01.JPG,AFNE01.JPG,AFNE01.JPG,AFNE01.JPG,AFNE01.JPG,AFNE01.JPG,,,,,,,,,,,,,2,5,25,2,,,,,,,,,,,AMSA14.jpg,AMNE02.jpg,AMSA16.jpg,AMNE18.jpg,AMSA16.jpg,MS,2,num_2,16,num_2,0.666481279302,,,2017_Jul_11_1133,60.0013856165,FEMA4ImagesEEG,001,100900,
AFNE01.JPG,AFNE01.JPG,AFNE01.JPG,AFNE01.JPG,AFNE01.JPG,AFNE01.JPG,,,,,,,,,,,,,2,6,26,1,,,,,,,,,,,AMSA16.jpg,AMNE16.jpg,AMNE11.jpg,AMSA12.jpg,AMNE11.jpg,MN,1,num_2,16,num_2,1.86669309554,,,2017_Jul_11_1133,60.0013856165,FEMA4ImagesEEG,001,100900,
AFNE01.JPG,AFNE01.JPG,AFNE01.JPG,AFNE01.JPG,AFNE01.JPG,AFNE01.JPG,,,,,,,,,,,,,2,7,27,9,,,,,,,,,,,AMSA01.jpg,AMNE15.jpg,AMNE03.jpg,AMSA09.jpg,AMSA09.jpg,MS,2,num_4,16,num_4,0.533538093325,,,2017_Jul_11_1133,60.0013856165,FEMA4ImagesEEG,001,100900,
AFNE01.JPG,AFNE01.JPG,AFNE01.JPG,AFNE01.JPG,AFNE01.JPG,AFNE01.JPG,,,,,,,,,,,,,2,8,28,5,,,,,,,,,,,AMSA07.jpg,AMNE04.jpg,AMSA14.jpg,AMNE02.jpg,AMSA14.jpg,MS,2,num_2,16,num_2,0.700046956073,,,2017_Jul_11_1133,60.0013856165,FEMA4ImagesEEG,001,100900,
AFNE01.JPG,AFNE01.JPG,AFNE01.JPG,AFNE01.JPG,AFNE01.JPG,AFNE01.JPG,,,,,,,,,,,,,2,9,29,6,,,,,,,,,,,AMNE09.jpg,AMSA11.jpg,AMSA19.jpg,AMNE07.jpg,AMNE09.jpg,MN,1,num_8,32,num_4,0.983441518852,,,2017_Jul_11_1133,60.0013856165,FEMA4ImagesEEG,001,100900,
AFNE01.JPG,AFNE01.JPG,AFNE01.JPG,AFNE01.JPG,AFNE01.JPG,AFNE01.JPG,,,,,,,,,,,,,3,0,30,7,,,,,,,,,,,AMSA04.jpg,AMNE14.jpg,AMNE16.jpg,AMSA18.jpg,AMNE16.jpg,MN,1,num_2,32,num_6,1.10011585103,,,2017_Jul_11_1133,60.0013856165,FEMA4ImagesEEG,001,100900,
AFNE01.JPG,AFNE01.JPG,AFNE01.JPG,AFNE01.JPG,AFNE01.JPG,AFNE01.JPG,,,,,,,,,,,,,3,1,31,8,,,,,,,,,,,AMSA09.jpg,AMNE02.jpg,AMSA01.jpg,AMNE04.jpg,AMNE02.jpg,MN,1,num_6,16,num_6,1.55010812101,,,2017_Jul_11_1133,60.0013856165,FEMA4ImagesEEG,001,100900,
AFNE01.JPG,AFNE01.JPG,AFNE01.JPG,AFNE01.JPG,AFNE01.JPG,AFNE01.JPG,,,,,,,,,,,,,3,2,32,3,,,,,,,,,,,AMSA03.jpg,AMSA01.jpg,AMNE16.jpg,AMNE19.jpg,AMNE16.jpg,MN,1,num_2,32,num_4,1.06671118527,,,2017_Jul_11_1133,60.0013856165,FEMA4ImagesEEG,001,100900,
AFNE01.JPG,AFNE01.JPG,AFNE01.JPG,AFNE01.JPG,AFNE01.JPG,AFNE01.JPG,,,,,,,,,,,,,3,3,33,0,,,,,,,,,,,AMSA12.jpg,AMSA01.jpg,AMNE09.jpg,AMNE05.jpg,AMSA01.jpg,MS,2,num_6,16,num_6,0.566787200514,,,2017_Jul_11_1133,60.0013856165,FEMA4ImagesEEG,001,100900,
AFNE01.JPG,AFNE01.JPG,AFNE01.JPG,AFNE01.JPG,AFNE01.JPG,AFNE01.JPG,,,,,,,,,,,,,3,4,34,5,,,,,,,,,,,AMSA20.jpg,AMNE19.jpg,AMSA04.jpg,AMNE09.jpg,AMNE19.jpg,MN,1,num_6,16,num_6,1.36673447094,,,2017_Jul_11_1133,60.0013856165,FEMA4ImagesEEG,001,100900,
AFNE01.JPG,AFNE01.JPG,AFNE01.JPG,AFNE01.JPG,AFNE01.JPG,AFNE01.JPG,,,,,,,,,,,,,3,5,35,4,,,,,,,,,,,AMNE16.jpg,AMSA03.jpg,AMSA05.jpg,AMNE05.jpg,AMSA03.jpg,MS,2,num_6,16,num_6,0.516782357125,,,2017_Jul_11_1133,60.0013856165,FEMA4ImagesEEG,001,100900,
AFNE01.JPG,AFNE01.JPG,AFNE01.JPG,AFNE01.JPG,AFNE01.JPG,AFNE01.JPG,,,,,,,,,,,,,3,6,36,1,,,,,,,,,,,AMSA16.jpg,AMSA08.jpg,AMNE15.jpg,AMNE04.jpg,AMNE04.jpg,MN,1,num_4,16,num_4,0.966432719491,,,2017_Jul_11_1133,60.0013856165,FEMA4ImagesEEG,001,100900,
AFNE01.JPG,AFNE01.JPG,AFNE01.JPG,AFNE01.JPG,AFNE01.JPG,AFNE01.JPG,,,,,,,,,,,,,3,7,37,2,,,,,,,,,,,AMSA01.jpg,AMNE01.jpg,AMSA05.jpg,AMNE06.jpg,AMNE01.jpg,MN,1,num_6,16,num_6,2.05003146431,,,2017_Jul_11_1133,60.0013856165,FEMA4ImagesEEG,001,100900,
AFNE01.JPG,AFNE01.JPG,AFNE01.JPG,AFNE01.JPG,AFNE01.JPG,AFNE01.JPG,,,,,,,,,,,,,3,8,38,6,,,,,,,,,,,AMNE01.jpg,AMSA07.jpg,AMSA18.jpg,AMNE06.jpg,AMSA07.jpg,MS,2,num_6,16,num_6,0.650146353291,,,2017_Jul_11_1133,60.0013856165,FEMA4ImagesEEG,001,100900,
AFNE01.JPG,AFNE01.JPG,AFNE01.JPG,AFNE01.JPG,AFNE01.JPG,AFNE01.JPG,,,,,,,,,,,,,3,9,39,9,,,,,,,,,,,AMNE16.jpg,AMSA06.jpg,AMNE11.jpg,AMSA11.jpg,AMSA06.jpg,MS,2,num_6,32,num_4,0.850128199439,,,2017_Jul_11_1133,60.0013856165,FEMA4ImagesEEG,001,100900,
AFNE01.JPG,AFNE01.JPG,AFNE01.JPG,AFNE01.JPG,AFNE01.JPG,AFNE01.JPG,,,,,,,,,,,,,4,0,40,6,,,,,,,,,,,AMSA10.jpg,AMSA09.jpg,AMNE18.jpg,AMNE14.jpg,AMNE14.jpg,MN,1,num_4,16,num_4,0.833451365354,,,2017_Jul_11_1133,60.0013856165,FEMA4ImagesEEG,001,100900,
AFNE01.JPG,AFNE01.JPG,AFNE01.JPG,AFNE01.JPG,AFNE01.JPG,AFNE01.JPG,,,,,,,,,,,,,4,1,41,0,,,,,,,,,,,AMNE13.jpg,AMNE11.jpg,AMSA15.jpg,AMSA20.jpg,AMNE11.jpg,MN,1,num_6,32,num_8,1.0667310711,,,2017_Jul_11_1133,60.0013856165,FEMA4ImagesEEG,001,100900,
AFNE01.JPG,AFNE01.JPG,AFNE01.JPG,AFNE01.JPG,AFNE01.JPG,AFNE01.JPG,,,,,,,,,,,,,4,2,42,1,,,,,,,,,,,AMNE04.jpg,AMSA03.jpg,AMNE15.jpg,AMSA02.jpg,AMNE15.jpg,MN,1,num_2,16,num_2,1.26673280308,,,2017_Jul_11_1133,60.0013856165,FEMA4ImagesEEG,001,100900,
AFNE01.JPG,AFNE01.JPG,AFNE01.JPG,AFNE01.JPG,AFNE01.JPG,AFNE01.JPG,,,,,,,,,,,,,4,3,43,9,,,,,,,,,,,AMSA07.jpg,AMNE10.jpg,AMNE18.jpg,AMSA15.jpg,AMSA15.jpg,MS,2,num_4,16,num_4,0.73341634078,,,2017_Jul_11_1133,60.0013856165,FEMA4ImagesEEG,001,100900,
AFNE01.JPG,AFNE01.JPG,AFNE01.JPG,AFNE01.JPG,AFNE01.JPG,AFNE01.JPG,,,,,,,,,,,,,4,4,44,5,,,,,,,,,,,AMNE01.jpg,AMSA13.jpg,AMNE10.jpg,AMSA17.jpg,AMSA17.jpg,MS,2,num_4,32,num_8,2.11668267148,,,2017_Jul_11_1133,60.0013856165,FEMA4ImagesEEG,001,100900,
AFNE01.JPG,AFNE01.JPG,AFNE01.JPG,AFNE01.JPG,AFNE01.JPG,AFNE01.JPG,,,,,,,,,,,,,4,5,45,2,,,,,,,,,,,AMNE19.jpg,AMSA11.jpg,AMNE15.jpg,AMSA18.jpg,AMNE15.jpg,MN,1,num_2,32,num_8,0.933430902194,,,2017_Jul_11_1133,60.0013856165,FEMA4ImagesEEG,001,100900,
AFNE01.JPG,AFNE01.JPG,AFNE01.JPG,AFNE01.JPG,AFNE01.JPG,AFNE01.JPG,,,,,,,,,,,,,4,6,46,3,,,,,,,,,,,AMNE20.jpg,AMNE13.jpg,AMSA04.jpg,AMSA01.jpg,AMSA04.jpg,MS,2,num_2,32,num_4,1.38348315051,,,2017_Jul_11_1133,60.0013856165,FEMA4ImagesEEG,001,100900,
AFNE01.JPG,AFNE01.JPG,AFNE01.JPG,AFNE01.JPG,AFNE01.JPG,AFNE01.JPG,,,,,,,,,,,,,4,7,47,8,,,,,,,,,,,AMNE09.jpg,AMNE08.jpg,AMSA07.jpg,AMSA11.jpg,AMNE08.jpg,MN,1,num_6,32,num_8,0.850124992197,,,2017_Jul_11_1133,60.0013856165,FEMA4ImagesEEG,001,100900,
AFNE01.JPG,AFNE01.JPG,AFNE01.JPG,AFNE01.JPG,AFNE01.JPG,AFNE01.JPG,,,,,,,,,,,,,4,8,48,7,,,,,,,,,,,AMSA09.jpg,AMNE06.jpg,AMNE14.jpg,AMSA04.jpg,AMNE14.jpg,MN,1,num_2,32,num_6,0.833443026291,,,2017_Jul_11_1133,60.0013856165,FEMA4ImagesEEG,001,100900,
AFNE01.JPG,AFNE01.JPG,AFNE01.JPG,AFNE01.JPG,AFNE01.JPG,AFNE01.JPG,,,,,,,,,,,,,4,9,49,4,,,,,,,,,,,AMSA20.jpg,AMNE20.jpg,AMSA13.jpg,AMNE19.jpg,AMSA20.jpg,MS,2,num_8,16,num_8,0.666789509822,,,2017_Jul_11_1133,60.0013856165,FEMA4ImagesEEG,001,100900,
AFNE01.JPG,AFNE01.JPG,AFNE01.JPG,AFNE01.JPG,AFNE01.JPG,AFNE01.JPG,,,,,,,,,,,,,5,0,50,1,,,,,,,,,,,AMNE10.jpg,AMSA01.jpg,AMNE11.jpg,AMSA05.jpg,AMNE10.jpg,MN,1,num_8,16,num_8,0.850390243344,,,2017_Jul_11_1133,60.0013856165,FEMA4ImagesEEG,001,100900,
AFNE01.JPG,AFNE01.JPG,AFNE01.JPG,AFNE01.JPG,AFNE01.JPG,AFNE01.JPG,,,,,,,,,,,,,5,1,51,0,,,,,,,,,,,AMSA02.jpg,AMNE01.jpg,AMNE04.jpg,AMSA17.jpg,AMSA02.jpg,MS,2,num_8,32,num_2,1.41675182292,,,2017_Jul_11_1133,60.0013856165,FEMA4ImagesEEG,001,100900,
AFNE01.JPG,AFNE01.JPG,AFNE01.JPG,AFNE01.JPG,AFNE01.JPG,AFNE01.JPG,,,,,,,,,,,,,5,2,52,2,,,,,,,,,,,AMNE10.jpg,AMSA17.jpg,AMSA19.jpg,AMNE03.jpg,AMNE03.jpg,MN,1,num_4,16,num_4,0.900140419602,,,2017_Jul_11_1133,60.0013856165,FEMA4ImagesEEG,001,100900,
AFNE01.JPG,AFNE01.JPG,AFNE01.JPG,AFNE01.JPG,AFNE01.JPG,AFNE01.JPG,,,,,,,,,,,,,5,3,53,3,,,,,,,,,,,AMNE03.jpg,AMSA12.jpg,AMNE18.jpg,AMSA16.jpg,AMSA16.jpg,MS,2,num_4,16,num_4,0.616814174689,,,2017_Jul_11_1133,60.0013856165,FEMA4ImagesEEG,001,100900,
AFNE01.JPG,AFNE01.JPG,AFNE01.JPG,AFNE01.JPG,AFNE01.JPG,AFNE01.JPG,,,,,,,,,,,,,5,4,54,7,,,,,,,,,,,AMNE07.jpg,AMNE04.jpg,AMSA11.jpg,AMSA20.jpg,AMSA20.jpg,MS,2,num_4,16,num_4,0.750187792815,,,2017_Jul_11_1133,60.0013856165,FEMA4ImagesEEG,001,100900,
AFNE01.JPG,AFNE01.JPG,AFNE01.JPG,AFNE01.JPG,AFNE01.JPG,AFNE01.JPG,,,,,,,,,,,,,5,5,55,4,,,,,,,,,,,AMSA12.jpg,AMNE18.jpg,AMNE11.jpg,AMSA01.jpg,AMSA12.jpg,MS,2,num_8,32,num_6,0.716651624069,,,2017_Jul_11_1133,60.0013856165,FEMA4ImagesEEG,001,100900,
AFNE01.JPG,AFNE01.JPG,AFNE01.JPG,AFNE01.JPG,AFNE01.JPG,AFNE01.JPG,,,,,,,,,,,,,5,6,56,5,,,,,,,,,,,AMNE10.jpg,AMSA11.jpg,AMSA15.jpg,AMNE04.jpg,AMSA15.jpg,MS,2,num_2,16,num_2,0.950110622915,,,2017_Jul_11_1133,60.0013856165,FEMA4ImagesEEG,001,100900,
AFNE01.JPG,AFNE01.JPG,AFNE01.JPG,AFNE01.JPG,AFNE01.JPG,AFNE01.JPG,,,,,,,,,,,,,5,7,57,6,,,,,,,,,,,AMNE19.jpg,AMNE06.jpg,AMSA19.jpg,AMSA07.jpg,AMNE19.jpg,MN,1,num_8,32,num_2,1.3000784528,,,2017_Jul_11_1133,60.0013856165,FEMA4ImagesEEG,001,100900,
AFNE01.JPG,AFNE01.JPG,AFNE01.JPG,AFNE01.JPG,AFNE01.JPG,AFNE01.JPG,,,,,,,,,,,,,5,8,58,8,,,,,,,,,,,AMSA20.jpg,AMNE03.jpg,AMNE18.jpg,AMSA19.jpg,AMNE03.jpg,MN,1,num_6,16,num_6,0.866466332925,,,2017_Jul_11_1133,60.0013856165,FEMA4ImagesEEG,001,100900,
AFNE01.JPG,AFNE01.JPG,AFNE01.JPG,AFNE01.JPG,AFNE01.JPG,AFNE01.JPG,,,,,,,,,,,,,5,9,59,9,,,,,,,,,,,AMSA16.jpg,AMNE16.jpg,AMSA01.jpg,AMNE13.jpg,AMNE13.jpg,MN,1,num_4,32,num_8,0.700179421343,,,2017_Jul_11_1133,60.0013856165,FEMA4ImagesEEG,001,100900,
,,,,,,,,,,,,,,,,,,,,,,,,,,,,,,,,,,,,,,,,,,,space,49.3129474712,2017_Jul_11_1133,60.0013856165,FEMA4ImagesEEG,001,100900,
AFNE01.JPG,AFNE01.JPG,AFNE01.JPG,AFNE01.JPG,AFNE01.JPG,AFNE01.JPG,,,,,,,,,,,,,,,,,0,0,0,7,,,,,,,AFSA12.jpg,AFNE01.jpg,AFSA20.jpg,AFNE17.jpg,AFSA12.jpg,FS,4,num_8,16,num_8,0.600121303461,,,2017_Jul_11_1133,60.0013856165,FEMA4ImagesEEG,001,100900,
AFNE01.JPG,AFNE01.JPG,AFNE01.JPG,AFNE01.JPG,AFNE01.JPG,AFNE01.JPG,,,,,,,,,,,,,,,,,0,1,1,5,,,,,,,AFNE19.jpg,AFNE15.jpg,AFSA12.jpg,AFSA08.jpg,AFSA08.jpg,FS,4,num_4,16,num_4,0.766796950717,,,2017_Jul_11_1133,60.0013856165,FEMA4ImagesEEG,001,100900,
AFNE01.JPG,AFNE01.JPG,AFNE01.JPG,AFNE01.JPG,AFNE01.JPG,AFNE01.JPG,,,,,,,,,,,,,,,,,0,2,2,0,,,,,,,AFNE01.jpg,AFSA10.jpg,AFNE08.jpg,AFSA07.jpg,AFSA07.jpg,FS,4,num_4,16,num_4,0.61685490841,,,2017_Jul_11_1133,60.0013856165,FEMA4ImagesEEG,001,100900,
AFNE01.JPG,AFNE01.JPG,AFNE01.JPG,AFNE01.JPG,AFNE01.JPG,AFNE01.JPG,,,,,,,,,,,,,,,,,0,3,3,9,,,,,,,AFSA05.jpg,AFNE18.jpg,AFSA11.jpg,AFNE12.jpg,AFNE12.jpg,FN,3,num_4,32,num_6,1.48351240205,,,2017_Jul_11_1133,60.0013856165,FEMA4ImagesEEG,001,100900,
AFNE01.JPG,AFNE01.JPG,AFNE01.JPG,AFNE01.JPG,AFNE01.JPG,AFNE01.JPG,,,,,,,,,,,,,,,,,0,4,4,8,,,,,,,AFNE08.jpg,AFSA14.jpg,AFNE02.jpg,AFSA15.jpg,AFSA15.jpg,FS,4,num_4,16,num_4,0.616747140186,,,2017_Jul_11_1133,60.0013856165,FEMA4ImagesEEG,001,100900,
AFNE01.JPG,AFNE01.JPG,AFNE01.JPG,AFNE01.JPG,AFNE01.JPG,AFNE01.JPG,,,,,,,,,,,,,,,,,0,5,5,2,,,,,,,AFNE11.jpg,AFNE10.jpg,AFSA14.jpg,AFSA07.jpg,AFSA07.jpg,FS,4,num_4,16,num_4,0.566809972981,,,2017_Jul_11_1133,60.0013856165,FEMA4ImagesEEG,001,100900,
AFNE01.JPG,AFNE01.JPG,AFNE01.JPG,AFNE01.JPG,AFNE01.JPG,AFNE01.JPG,,,,,,,,,,,,,,,,,0,6,6,4,,,,,,,AFNE13.jpg,AFSA01.jpg,AFSA13.jpg,AFNE17.jpg,AFNE13.jpg,FN,3,num_8,32,num_6,0.91662096139,,,2017_Jul_11_1133,60.0013856165,FEMA4ImagesEEG,001,100900,
AFNE01.JPG,AFNE01.JPG,AFNE01.JPG,AFNE01.JPG,AFNE01.JPG,AFNE01.JPG,,,,,,,,,,,,,,,,,0,7,7,6,,,,,,,AFNE17.jpg,AFNE05.jpg,AFSA15.jpg,AFSA11.jpg,AFSA15.jpg,FS,4,num_2,16,num_2,0.716794352978,,,2017_Jul_11_1133,60.0013856165,FEMA4ImagesEEG,001,100900,
AFNE01.JPG,AFNE01.JPG,AFNE01.JPG,AFNE01.JPG,AFNE01.JPG,AFNE01.JPG,,,,,,,,,,,,,,,,,0,8,8,1,,,,,,,AFNE14.jpg,AFSA20.jpg,AFSA03.jpg,AFNE15.jpg,AFNE14.jpg,FN,3,num_8,32,num_6,1.18341823295,,,2017_Jul_11_1133,60.0013856165,FEMA4ImagesEEG,001,100900,
AFNE01.JPG,AFNE01.JPG,AFNE01.JPG,AFNE01.JPG,AFNE01.JPG,AFNE01.JPG,,,,,,,,,,,,,,,,,0,9,9,3,,,,,,,AFNE09.jpg,AFSA06.jpg,AFSA17.jpg,AFNE19.jpg,AFNE19.jpg,FN,3,num_4,16,num_4,0.616768629523,,,2017_Jul_11_1133,60.0013856165,FEMA4ImagesEEG,001,100900,
AFNE01.JPG,AFNE01.JPG,AFNE01.JPG,AFNE01.JPG,AFNE01.JPG,AFNE01.JPG,,,,,,,,,,,,,,,,,1,0,10,3,,,,,,,AFNE11.jpg,AFNE19.jpg,AFSA03.jpg,AFSA15.jpg,AFSA15.jpg,FS,4,num_4,16,num_4,0.583471411606,,,2017_Jul_11_1133,60.0013856165,FEMA4ImagesEEG,001,100900,
AFNE01.JPG,AFNE01.JPG,AFNE01.JPG,AFNE01.JPG,AFNE01.JPG,AFNE01.JPG,,,,,,,,,,,,,,,,,1,1,11,8,,,,,,,AFNE13.jpg,AFNE19.jpg,AFSA12.jpg,AFSA09.jpg,AFSA09.jpg,FS,4,num_4,16,num_4,1.70017717639,,,2017_Jul_11_1133,60.0013856165,FEMA4ImagesEEG,001,100900,
AFNE01.JPG,AFNE01.JPG,AFNE01.JPG,AFNE01.JPG,AFNE01.JPG,AFNE01.JPG,,,,,,,,,,,,,,,,,1,2,12,2,,,,,,,AFNE04.jpg,AFSA03.jpg,AFSA17.jpg,AFNE06.jpg,AFSA03.jpg,FS,4,num_6,16,num_6,1.35037292354,,,2017_Jul_11_1133,60.0013856165,FEMA4ImagesEEG,001,100900,
AFNE01.JPG,AFNE01.JPG,AFNE01.JPG,AFNE01.JPG,AFNE01.JPG,AFNE01.JPG,,,,,,,,,,,,,,,,,1,3,13,1,,,,,,,AFSA14.jpg,AFSA17.jpg,AFNE01.jpg,AFNE20.jpg,AFSA17.jpg,FS,4,num_6,16,num_6,0.73345835763,,,2017_Jul_11_1133,60.0013856165,FEMA4ImagesEEG,001,100900,
AFNE01.JPG,AFNE01.JPG,AFNE01.JPG,AFNE01.JPG,AFNE01.JPG,AFNE01.JPG,,,,,,,,,,,,,,,,,1,4,14,0,,,,,,,AFNE11.jpg,AFSA15.jpg,AFNE07.jpg,AFSA16.jpg,AFNE11.jpg,FN,3,num_8,32,num_2,1.2000992368,,,2017_Jul_11_1133,60.0013856165,FEMA4ImagesEEG,001,100900,
AFNE01.JPG,AFNE01.JPG,AFNE01.JPG,AFNE01.JPG,AFNE01.JPG,AFNE01.JPG,,,,,,,,,,,,,,,,,1,5,15,9,,,,,,,AFNE09.jpg,AFSA10.jpg,AFNE01.jpg,AFSA04.jpg,AFSA10.jpg,FS,4,num_6,32,num_4,0.883472245652,,,2017_Jul_11_1133,60.0013856165,FEMA4ImagesEEG,001,100900,
AFNE01.JPG,AFNE01.JPG,AFNE01.JPG,AFNE01.JPG,AFNE01.JPG,AFNE01.JPG,,,,,,,,,,,,,,,,,1,6,16,6,,,,,,,AFSA04.jpg,AFNE17.jpg,AFSA11.jpg,AFNE06.jpg,AFSA11.jpg,FS,4,num_2,16,num_2,0.650165277068,,,2017_Jul_11_1133,60.0013856165,FEMA4ImagesEEG,001,100900,
AFNE01.JPG,AFNE01.JPG,AFNE01.JPG,AFNE01.JPG,AFNE01.JPG,AFNE01.JPG,,,,,,,,,,,,,,,,,1,7,17,4,,,,,,,AFNE17.jpg,AFNE10.jpg,AFSA06.jpg,AFSA11.jpg,AFNE17.jpg,FN,3,num_8,32,num_6,1.05011485657,,,2017_Jul_11_1133,60.0013856165,FEMA4ImagesEEG,001,100900,
AFNE01.JPG,AFNE01.JPG,AFNE01.JPG,AFNE01.JPG,AFNE01.JPG,AFNE01.JPG,,,,,,,,,,,,,,,,,1,8,18,7,,,,,,,AFNE04.jpg,AFSA09.jpg,AFNE09.jpg,AFSA12.jpg,AFSA12.jpg,FS,4,num_4,16,num_4,0.816754645435,,,2017_Jul_11_1133,60.0013856165,FEMA4ImagesEEG,001,100900,
AFNE01.JPG,AFNE01.JPG,AFNE01.JPG,AFNE01.JPG,AFNE01.JPG,AFNE01.JPG,,,,,,,,,,,,,,,,,1,9,19,5,,,,,,,AFNE19.jpg,AFSA18.jpg,AFSA14.jpg,AFNE05.jpg,AFSA18.jpg,FS,4,num_6,16,num_6,0.483529080637,,,2017_Jul_11_1133,60.0013856165,FEMA4ImagesEEG,001,100900,
AFNE01.JPG,AFNE01.JPG,AFNE01.JPG,AFNE01.JPG,AFNE01.JPG,AFNE01.JPG,,,,,,,,,,,,,,,,,2,0,20,3,,,,,,,AFNE01.jpg,AFSA09.jpg,AFNE03.jpg,AFSA16.jpg,AFSA09.jpg,FS,4,num_6,16,num_6,0.700116556603,,,2017_Jul_11_1133,60.0013856165,FEMA4ImagesEEG,001,100900,
AFNE01.JPG,AFNE01.JPG,AFNE01.JPG,AFNE01.JPG,AFNE01.JPG,AFNE01.JPG,,,,,,,,,,,,,,,,,2,1,21,6,,,,,,,AFNE08.jpg,AFNE14.jpg,AFSA15.jpg,AFSA05.jpg,AFNE14.jpg,FN,3,num_6,32,num_8,1.30015575094,,,2017_Jul_11_1133,60.0013856165,FEMA4ImagesEEG,001,100900,
AFNE01.JPG,AFNE01.JPG,AFNE01.JPG,AFNE01.JPG,AFNE01.JPG,AFNE01.JPG,,,,,,,,,,,,,,,,,2,2,22,7,,,,,,,AFNE14.jpg,AFNE04.jpg,AFSA10.jpg,AFSA11.jpg,AFSA11.jpg,FS,4,num_4,16,num_4,0.666766095674,,,2017_Jul_11_1133,60.0013856165,FEMA4ImagesEEG,001,100900,
AFNE01.JPG,AFNE01.JPG,AFNE01.JPG,AFNE01.JPG,AFNE01.JPG,AFNE01.JPG,,,,,,,,,,,,,,,,,2,3,23,4,,,,,,,AFNE04.jpg,AFSA03.jpg,AFNE06.jpg,AFSA06.jpg,AFNE04.jpg,FN,3,num_8,16,num_8,3.84997584834,,,2017_Jul_11_1133,60.0013856165,FEMA4ImagesEEG,001,100900,
AFNE01.JPG,AFNE01.JPG,AFNE01.JPG,AFNE01.JPG,AFNE01.JPG,AFNE01.JPG,,,,,,,,,,,,,,,,,2,4,24,0,,,,,,,AFNE01.jpg,AFSA19.jpg,AFNE15.jpg,AFSA17.jpg,AFNE15.jpg,FN,3,num_2,16,num_2,0.933450467419,,,2017_Jul_11_1133,60.0013856165,FEMA4ImagesEEG,001,100900,
AFNE01.JPG,AFNE01.JPG,AFNE01.JPG,AFNE01.JPG,AFNE01.JPG,AFNE01.JPG,,,,,,,,,,,,,,,,,2,5,25,1,,,,,,,AFNE13.jpg,AFNE09.jpg,AFSA11.jpg,AFSA17.jpg,AFSA11.jpg,FS,4,num_2,16,num_2,0.550124799833,,,2017_Jul_11_1133,60.0013856165,FEMA4ImagesEEG,001,100900,
AFNE01.JPG,AFNE01.JPG,AFNE01.JPG,AFNE01.JPG,AFNE01.JPG,AFNE01.JPG,,,,,,,,,,,,,,,,,2,6,26,5,,,,,,,AFNE16.jpg,AFSA02.jpg,AFSA08.jpg,AFNE14.jpg,AFNE14.jpg,FN,3,num_4,32,num_8,0.933470353018,,,2017_Jul_11_1133,60.0013856165,FEMA4ImagesEEG,001,100900,
AFNE01.JPG,AFNE01.JPG,AFNE01.JPG,AFNE01.JPG,AFNE01.JPG,AFNE01.JPG,,,,,,,,,,,,,,,,,2,7,27,9,,,,,,,AFNE03.jpg,AFSA09.jpg,AFNE19.jpg,AFSA20.jpg,AFNE19.jpg,FN,3,num_2,32,num_8,1.0001167492,,,2017_Jul_11_1133,60.0013856165,FEMA4ImagesEEG,001,100900,
AFNE01.JPG,AFNE01.JPG,AFNE01.JPG,AFNE01.JPG,AFNE01.JPG,AFNE01.JPG,,,,,,,,,,,,,,,,,2,8,28,2,,,,,,,AFSA10.jpg,AFSA20.jpg,AFNE20.jpg,AFNE13.jpg,AFNE13.jpg,FN,3,num_4,32,num_2,1.10006068391,,,2017_Jul_11_1133,60.0013856165,FEMA4ImagesEEG,001,100900,
AFNE01.JPG,AFNE01.JPG,AFNE01.JPG,AFNE01.JPG,AFNE01.JPG,AFNE01.JPG,,,,,,,,,,,,,,,,,2,9,29,8,,,,,,,AFSA03.jpg,AFSA14.jpg,AFNE09.jpg,AFNE07.jpg,AFNE09.jpg,FN,3,num_2,32,num_4,1.06675993768,,,2017_Jul_11_1133,60.0013856165,FEMA4ImagesEEG,001,100900,
AFNE01.JPG,AFNE01.JPG,AFNE01.JPG,AFNE01.JPG,AFNE01.JPG,AFNE01.JPG,,,,,,,,,,,,,,,,,3,0,30,1,,,,,,,AFSA13.jpg,AFSA18.jpg,AFNE17.jpg,AFNE14.jpg,AFSA13.jpg,FS,4,num_8,16,num_8,0.583450563485,,,2017_Jul_11_1133,60.0013856165,FEMA4ImagesEEG,001,100900,
AFNE01.JPG,AFNE01.JPG,AFNE01.JPG,AFNE01.JPG,AFNE01.JPG,AFNE01.JPG,,,,,,,,,,,,,,,,,3,1,31,7,,,,,,,AFNE11.jpg,AFSA04.jpg,AFNE14.jpg,AFSA14.jpg,AFNE11.jpg,FN,3,num_8,16,num_8,0.916722956346,,,2017_Jul_11_1133,60.0013856165,FEMA4ImagesEEG,001,100900,
AFNE01.JPG,AFNE01.JPG,AFNE01.JPG,AFNE01.JPG,AFNE01.JPG,AFNE01.JPG,,,,,,,,,,,,,,,,,3,2,32,9,,,,,,,AFSA09.jpg,AFSA18.jpg,AFNE02.jpg,AFNE05.jpg,AFSA09.jpg,FS,4,num_8,16,num_8,0.900180832716,,,2017_Jul_11_1133,60.0013856165,FEMA4ImagesEEG,001,100900,
AFNE01.JPG,AFNE01.JPG,AFNE01.JPG,AFNE01.JPG,AFNE01.JPG,AFNE01.JPG,,,,,,,,,,,,,,,,,3,3,33,0,,,,,,,AFNE05.jpg,AFSA05.jpg,AFNE17.jpg,AFSA20.jpg,AFSA20.jpg,FS,4,num_4,16,num_4,0.683481418528,,,2017_Jul_11_1133,60.0013856165,FEMA4ImagesEEG,001,100900,
AFNE01.JPG,AFNE01.JPG,AFNE01.JPG,AFNE01.JPG,AFNE01.JPG,AFNE01.JPG,,,,,,,,,,,,,,,,,3,4,34,8,,,,,,,AFNE03.jpg,AFSA17.jpg,AFNE13.jpg,AFSA15.jpg,AFNE13.jpg,FN,3,num_2,16,num_2,1.10014856653,,,2017_Jul_11_1133,60.0013856165,FEMA4ImagesEEG,001,100900,
AFNE01.JPG,AFNE01.JPG,AFNE01.JPG,AFNE01.JPG,AFNE01.JPG,AFNE01.JPG,,,,,,,,,,,,,,,,,3,5,35,4,,,,,,,AFNE17.jpg,AFNE16.jpg,AFSA09.jpg,AFSA12.jpg,AFNE16.jpg,FN,3,num_6,16,num_6,1.43342897785,,,2017_Jul_11_1133,60.0013856165,FEMA4ImagesEEG,001,100900,
AFNE01.JPG,AFNE01.JPG,AFNE01.JPG,AFNE01.JPG,AFNE01.JPG,AFNE01.JPG,,,,,,,,,,,,,,,,,3,6,36,5,,,,,,,AFSA17.jpg,AFNE18.jpg,AFNE12.jpg,AFSA12.jpg,AFSA17.jpg,FS,4,num_8,16,num_8,0.733472790569,,,2017_Jul_11_1133,60.0013856165,FEMA4ImagesEEG,001,100900,
AFNE01.JPG,AFNE01.JPG,AFNE01.JPG,AFNE01.JPG,AFNE01.JPG,AFNE01.JPG,,,,,,,,,,,,,,,,,3,7,37,3,,,,,,,AFNE10.jpg,AFSA04.jpg,AFNE01.jpg,AFSA13.jpg,AFSA13.jpg,FS,4,num_4,16,num_4,0.783478596015,,,2017_Jul_11_1133,60.0013856165,FEMA4ImagesEEG,001,100900,
AFNE01.JPG,AFNE01.JPG,AFNE01.JPG,AFNE01.JPG,AFNE01.JPG,AFNE01.JPG,,,,,,,,,,,,,,,,,3,8,38,2,,,,,,,AFSA14.jpg,AFNE19.jpg,AFNE01.jpg,AFSA06.jpg,AFSA06.jpg,FS,4,num_4,16,num_4,1.01662615733,,,2017_Jul_11_1133,60.0013856165,FEMA4ImagesEEG,001,100900,
AFNE01.JPG,AFNE01.JPG,AFNE01.JPG,AFNE01.JPG,AFNE01.JPG,AFNE01.JPG,,,,,,,,,,,,,,,,,3,9,39,6,,,,,,,AFNE06.jpg,AFSA07.jpg,AFNE18.jpg,AFSA19.jpg,AFNE06.jpg,FN,3,num_8,32,num_2,1.21671994147,,,2017_Jul_11_1133,60.0013856165,FEMA4ImagesEEG,001,100900,
AFNE01.JPG,AFNE01.JPG,AFNE01.JPG,AFNE01.JPG,AFNE01.JPG,AFNE01.JPG,,,,,,,,,,,,,,,,,4,0,40,1,,,,,,,AFNE13.jpg,AFNE20.jpg,AFSA07.jpg,AFSA18.jpg,AFSA07.jpg,FS,4,num_2,32,num_4,1.11675163056,,,2017_Jul_11_1133,60.0013856165,FEMA4ImagesEEG,001,100900,
AFNE01.JPG,AFNE01.JPG,AFNE01.JPG,AFNE01.JPG,AFNE01.JPG,AFNE01.JPG,,,,,,,,,,,,,,,,,4,1,41,0,,,,,,,AFSA15.jpg,AFNE02.jpg,AFSA20.jpg,AFNE10.jpg,AFNE02.jpg,FN,3,num_6,16,num_6,1.50009558024,,,2017_Jul_11_1133,60.0013856165,FEMA4ImagesEEG,001,100900,
AFNE01.JPG,AFNE01.JPG,AFNE01.JPG,AFNE01.JPG,AFNE01.JPG,AFNE01.JPG,,,,,,,,,,,,,,,,,4,2,42,7,,,,,,,AFSA08.jpg,AFNE10.jpg,AFNE01.jpg,AFSA19.jpg,AFNE01.jpg,FN,3,num_2,32,num_6,1.70004567341,,,2017_Jul_11_1133,60.0013856165,FEMA4ImagesEEG,001,100900,
AFNE01.JPG,AFNE01.JPG,AFNE01.JPG,AFNE01.JPG,AFNE01.JPG,AFNE01.JPG,,,,,,,,,,,,,,,,,4,3,43,9,,,,,,,AFNE05.jpg,AFSA11.jpg,AFNE16.jpg,AFSA01.jpg,AFSA01.jpg,FS,4,num_4,16,num_4,0.666765775066,,,2017_Jul_11_1133,60.0013856165,FEMA4ImagesEEG,001,100900,
AFNE01.JPG,AFNE01.JPG,AFNE01.JPG,AFNE01.JPG,AFNE01.JPG,AFNE01.JPG,,,,,,,,,,,,,,,,,4,4,44,2,,,,,,,AFSA20.jpg,AFSA05.jpg,AFNE06.jpg,AFNE15.jpg,AFNE06.jpg,FN,3,num_2,16,num_2,2.31666355534,,,2017_Jul_11_1133,60.0013856165,FEMA4ImagesEEG,001,100900,
AFNE01.JPG,AFNE01.JPG,AFNE01.JPG,AFNE01.JPG,AFNE01.JPG,AFNE01.JPG,,,,,,,,,,,,,,,,,4,5,45,3,,,,,,,AFSA01.jpg,AFNE02.jpg,AFSA20.jpg,AFNE01.jpg,AFSA20.jpg,FS,4,num_2,16,num_2,0.75012621074,,,2017_Jul_11_1133,60.0013856165,FEMA4ImagesEEG,001,100900,
AFNE01.JPG,AFNE01.JPG,AFNE01.JPG,AFNE01.JPG,AFNE01.JPG,AFNE01.JPG,,,,,,,,,,,,,,,,,4,6,46,4,,,,,,,AFNE03.jpg,AFSA08.jpg,AFSA19.jpg,AFNE13.jpg,AFSA19.jpg,FS,4,num_2,16,num_2,0.533491586102,,,2017_Jul_11_1133,60.0013856165,FEMA4ImagesEEG,001,100900,
AFNE01.JPG,AFNE01.JPG,AFNE01.JPG,AFNE01.JPG,AFNE01.JPG,AFNE01.JPG,,,,,,,,,,,,,,,,,4,7,47,8,,,,,,,AFNE02.jpg,AFSA09.jpg,AFSA03.jpg,AFNE06.jpg,AFNE06.jpg,FN,3,num_4,32,num_2,1.01672462421,,,2017_Jul_11_1133,60.0013856165,FEMA4ImagesEEG,001,100900,
AFNE01.JPG,AFNE01.JPG,AFNE01.JPG,AFNE01.JPG,AFNE01.JPG,AFNE01.JPG,,,,,,,,,,,,,,,,,4,8,48,6,,,,,,,AFSA09.jpg,AFNE18.jpg,AFNE19.jpg,AFSA05.jpg,AFSA09.jpg,FS,4,num_8,32,num_4,0.900112515083,,,2017_Jul_11_1133,60.0013856165,FEMA4ImagesEEG,001,100900,
AFNE01.JPG,AFNE01.JPG,AFNE01.JPG,AFNE01.JPG,AFNE01.JPG,AFNE01.JPG,,,,,,,,,,,,,,,,,4,9,49,5,,,,,,,AFSA16.jpg,AFSA09.jpg,AFNE01.jpg,AFNE10.jpg,AFSA16.jpg,FS,4,num_8,16,num_8,0.450159375323,,,2017_Jul_11_1133,60.0013856165,FEMA4ImagesEEG,001,100900,
AFNE01.JPG,AFNE01.JPG,AFNE01.JPG,AFNE01.JPG,AFNE01.JPG,AFNE01.JPG,,,,,,,,,,,,,,,,,5,0,50,8,,,,,,,AFNE18.jpg,AFSA14.jpg,AFNE01.jpg,AFSA17.jpg,AFNE18.jpg,FN,3,num_8,32,num_2,0.833435007604,,,2017_Jul_11_1133,60.0013856165,FEMA4ImagesEEG,001,100900,
AFNE01.JPG,AFNE01.JPG,AFNE01.JPG,AFNE01.JPG,AFNE01.JPG,AFNE01.JPG,,,,,,,,,,,,,,,,,5,1,51,9,,,,,,,AFNE03.jpg,AFSA09.jpg,AFNE15.jpg,AFSA14.jpg,AFSA09.jpg,FS,4,num_6,32,num_4,0.933486710768,,,2017_Jul_11_1133,60.0013856165,FEMA4ImagesEEG,001,100900,
AFNE01.JPG,AFNE01.JPG,AFNE01.JPG,AFNE01.JPG,AFNE01.JPG,AFNE01.JPG,,,,,,,,,,,,,,,,,5,2,52,1,,,,,,,AFSA04.jpg,AFSA16.jpg,AFNE17.jpg,AFNE10.jpg,AFSA16.jpg,FS,4,num_6,16,num_6,0.866751790978,,,2017_Jul_11_1133,60.0013856165,FEMA4ImagesEEG,001,100900,
AFNE01.JPG,AFNE01.JPG,AFNE01.JPG,AFNE01.JPG,AFNE01.JPG,AFNE01.JPG,,,,,,,,,,,,,,,,,5,3,53,4,,,,,,,AFNE18.jpg,AFNE14.jpg,AFSA07.jpg,AFSA17.jpg,AFNE14.jpg,FN,3,num_6,16,num_6,0.966782645788,,,2017_Jul_11_1133,60.0013856165,FEMA4ImagesEEG,001,100900,
AFNE01.JPG,AFNE01.JPG,AFNE01.JPG,AFNE01.JPG,AFNE01.JPG,AFNE01.JPG,,,,,,,,,,,,,,,,,5,4,54,5,,,,,,,AFNE02.jpg,AFSA14.jpg,AFNE05.jpg,AFSA03.jpg,AFNE02.jpg,FN,3,num_8,16,num_8,1.90010289336,,,2017_Jul_11_1133,60.0013856165,FEMA4ImagesEEG,001,100900,
AFNE01.JPG,AFNE01.JPG,AFNE01.JPG,AFNE01.JPG,AFNE01.JPG,AFNE01.JPG,,,,,,,,,,,,,,,,,5,5,55,6,,,,,,,AFSA06.jpg,AFSA15.jpg,AFNE04.jpg,AFNE01.jpg,AFSA06.jpg,FS,4,num_8,16,num_8,1.25014096475,,,2017_Jul_11_1133,60.0013856165,FEMA4ImagesEEG,001,100900,
AFNE01.JPG,AFNE01.JPG,AFNE01.JPG,AFNE01.JPG,AFNE01.JPG,AFNE01.JPG,,,,,,,,,,,,,,,,,5,6,56,0,,,,,,,AFNE04.jpg,AFSA15.jpg,AFSA11.jpg,AFNE16.jpg,AFNE04.jpg,FN,3,num_8,32,num_4,1.15015565488,,,2017_Jul_11_1133,60.0013856165,FEMA4ImagesEEG,001,100900,
AFNE01.JPG,AFNE01.JPG,AFNE01.JPG,AFNE01.JPG,AFNE01.JPG,AFNE01.JPG,,,,,,,,,,,,,,,,,5,7,57,2,,,,,,,AFNE14.jpg,AFNE03.jpg,AFSA12.jpg,AFSA11.jpg,AFSA12.jpg,FS,4,num_2,16,num_2,1.85001978977,,,2017_Jul_11_1133,60.0013856165,FEMA4ImagesEEG,001,100900,
AFNE01.JPG,AFNE01.JPG,AFNE01.JPG,AFNE01.JPG,AFNE01.JPG,AFNE01.JPG,,,,,,,,,,,,,,,,,5,8,58,7,,,,,,,AFSA08.jpg,AFNE07.jpg,AFNE16.jpg,AFSA19.jpg,AFNE07.jpg,FN,3,num_6,16,num_6,1.43342737411,,,2017_Jul_11_1133,60.0013856165,FEMA4ImagesEEG,001,100900,
AFNE01.JPG,AFNE01.JPG,AFNE01.JPG,AFNE01.JPG,AFNE01.JPG,AFNE01.JPG,,,,,,,,,,,,,,,,,5,9,59,3,,,,,,,AFNE04.jpg,AFSA11.jpg,AFSA08.jpg,AFNE09.jpg,AFNE09.jpg,FN,3,num_4,16,num_4,1.31672706176,,,2017_Jul_11_1133,60.0013856165,FEMA4ImagesEEG,001,100900,
,,,,,,,,,,,,,,,,,,,,,,,,,,,,,,,,,,,,,,,,,,,space,29.7807965751,2017_Jul_11_1133,60.0013856165,FEMA4ImagesEEG,001,100900,
AFNE01.JPG,AFNE01.JPG,AFNE01.JPG,AFNE01.JPG,AFNE01.JPG,AFNE01.JPG,,,,,,,,,,,,,,,,,,,,,0,0,0,6,,,AMSA08.jpg,AMNE17.jpg,AMNE05.jpg,AMSA03.jpg,AMNE05.jpg,MN,1,num_2,16,num_2,3.80013233703,,,2017_Jul_11_1133,60.0013856165,FEMA4ImagesEEG,001,100900,
AFNE01.JPG,AFNE01.JPG,AFNE01.JPG,AFNE01.JPG,AFNE01.JPG,AFNE01.JPG,,,,,,,,,,,,,,,,,,,,,0,1,1,9,,,AMSA01.jpg,AMNE03.jpg,AMNE15.jpg,AMSA20.jpg,AMSA20.jpg,MS,2,num_4,16,num_4,0.783437541453,,,2017_Jul_11_1133,60.0013856165,FEMA4ImagesEEG,001,100900,
AFNE01.JPG,AFNE01.JPG,AFNE01.JPG,AFNE01.JPG,AFNE01.JPG,AFNE01.JPG,,,,,,,,,,,,,,,,,,,,,0,2,2,3,,,AMSA19.jpg,AMSA05.jpg,AMNE09.jpg,AMNE13.jpg,AMSA19.jpg,MS,2,num_8,16,num_8,0.516767282505,,,2017_Jul_11_1133,60.0013856165,FEMA4ImagesEEG,001,100900,
AFNE01.JPG,AFNE01.JPG,AFNE01.JPG,AFNE01.JPG,AFNE01.JPG,AFNE01.JPG,,,,,,,,,,,,,,,,,,,,,0,3,3,7,,,AMSA19.jpg,AMNE18.jpg,AMSA10.jpg,AMNE19.jpg,AMNE19.jpg,MN,1,num_4,16,num_4,2.09995933017,,,2017_Jul_11_1133,60.0013856165,FEMA4ImagesEEG,001,100900,
AFNE01.JPG,AFNE01.JPG,AFNE01.JPG,AFNE01.JPG,AFNE01.JPG,AFNE01.JPG,,,,,,,,,,,,,,,,,,,,,0,4,4,5,,,AMNE13.jpg,AMSA08.jpg,AMSA04.jpg,AMNE02.jpg,AMNE13.jpg,MN,1,num_8,32,num_6,0.91671173065,,,2017_Jul_11_1133,60.0013856165,FEMA4ImagesEEG,001,100900,
AFNE01.JPG,AFNE01.JPG,AFNE01.JPG,AFNE01.JPG,AFNE01.JPG,AFNE01.JPG,,,,,,,,,,,,,,,,,,,,,0,5,5,0,,,AMNE15.jpg,AMSA10.jpg,AMNE18.jpg,AMSA04.jpg,AMNE18.jpg,MN,1,num_2,16,num_2,1.28339648689,,,2017_Jul_11_1133,60.0013856165,FEMA4ImagesEEG,001,100900,
AFNE01.JPG,AFNE01.JPG,AFNE01.JPG,AFNE01.JPG,AFNE01.JPG,AFNE01.JPG,,,,,,,,,,,,,,,,,,,,,0,6,6,4,,,AMNE20.jpg,AMSA01.jpg,AMNE03.jpg,AMSA16.jpg,AMSA01.jpg,MS,2,num_6,16,num_6,0.566817991436,,,2017_Jul_11_1133,60.0013856165,FEMA4ImagesEEG,001,100900,
AFNE01.JPG,AFNE01.JPG,AFNE01.JPG,AFNE01.JPG,AFNE01.JPG,AFNE01.JPG,,,,,,,,,,,,,,,,,,,,,0,7,7,1,,,AMNE19.jpg,AMSA07.jpg,AMNE13.jpg,AMSA14.jpg,AMSA07.jpg,MS,2,num_6,16,num_6,0.633448991925,,,2017_Jul_11_1133,60.0013856165,FEMA4ImagesEEG,001,100900,
AFNE01.JPG,AFNE01.JPG,AFNE01.JPG,AFNE01.JPG,AFNE01.JPG,AFNE01.JPG,,,,,,,,,,,,,,,,,,,,,0,8,8,2,,,AMSA17.jpg,AMNE17.jpg,AMSA16.jpg,AMNE20.jpg,AMSA16.jpg,MS,2,num_2,16,num_2,0.966774306726,,,2017_Jul_11_1133,60.0013856165,FEMA4ImagesEEG,001,100900,
AFNE01.JPG,AFNE01.JPG,AFNE01.JPG,AFNE01.JPG,AFNE01.JPG,AFNE01.JPG,,,,,,,,,,,,,,,,,,,,,0,9,9,8,,,AMSA12.jpg,AMSA15.jpg,AMNE12.jpg,AMNE18.jpg,AMSA12.jpg,MS,2,num_8,32,num_6,0.766644920688,,,2017_Jul_11_1133,60.0013856165,FEMA4ImagesEEG,001,100900,
AFNE01.JPG,AFNE01.JPG,AFNE01.JPG,AFNE01.JPG,AFNE01.JPG,AFNE01.JPG,,,,,,,,,,,,,,,,,,,,,1,0,10,4,,,AMNE03.jpg,AMNE04.jpg,AMSA07.jpg,AMSA09.jpg,AMSA09.jpg,MS,2,num_4,16,num_4,0.8501435949,,,2017_Jul_11_1133,60.0013856165,FEMA4ImagesEEG,001,100900,
AFNE01.JPG,AFNE01.JPG,AFNE01.JPG,AFNE01.JPG,AFNE01.JPG,AFNE01.JPG,,,,,,,,,,,,,,,,,,,,,1,1,11,7,,,AMSA04.jpg,AMNE10.jpg,AMNE05.jpg,AMSA02.jpg,AMNE10.jpg,MN,1,num_6,16,num_6,1.48340559588,,,2017_Jul_11_1133,60.0013856165,FEMA4ImagesEEG,001,100900,
AFNE01.JPG,AFNE01.JPG,AFNE01.JPG,AFNE01.JPG,AFNE01.JPG,AFNE01.JPG,,,,,,,,,,,,,,,,,,,,,1,2,12,9,,,AMSA08.jpg,AMSA12.jpg,AMNE09.jpg,AMNE19.jpg,AMSA08.jpg,MS,2,num_8,16,num_8,0.683566093678,,,2017_Jul_11_1133,60.0013856165,FEMA4ImagesEEG,001,100900,
AFNE01.JPG,AFNE01.JPG,AFNE01.JPG,AFNE01.JPG,AFNE01.JPG,AFNE01.JPG,,,,,,,,,,,,,,,,,,,,,1,3,13,6,,,AMNE02.jpg,AMSA13.jpg,AMNE17.jpg,AMSA17.jpg,AMNE02.jpg,MN,1,num_8,32,num_2,0.966768854298,,,2017_Jul_11_1133,60.0013856165,FEMA4ImagesEEG,001,100900,
AFNE01.JPG,AFNE01.JPG,AFNE01.JPG,AFNE01.JPG,AFNE01.JPG,AFNE01.JPG,,,,,,,,,,,,,,,,,,,,,1,4,14,8,,,AMNE11.jpg,AMSA15.jpg,AMSA01.jpg,AMNE05.jpg,AMSA01.jpg,MS,2,num_2,16,num_2,0.700119443238,,,2017_Jul_11_1133,60.0013856165,FEMA4ImagesEEG,001,100900,
AFNE01.JPG,AFNE01.JPG,AFNE01.JPG,AFNE01.JPG,AFNE01.JPG,AFNE01.JPG,,,,,,,,,,,,,,,,,,,,,1,5,15,3,,,AMNE10.jpg,AMSA18.jpg,AMSA06.jpg,AMNE19.jpg,AMNE10.jpg,MN,1,num_8,32,num_4,0.966778797098,,,2017_Jul_11_1133,60.0013856165,FEMA4ImagesEEG,001,100900,
AFNE01.JPG,AFNE01.JPG,AFNE01.JPG,AFNE01.JPG,AFNE01.JPG,AFNE01.JPG,,,,,,,,,,,,,,,,,,,,,1,6,16,1,,,AMNE17.jpg,AMSA16.jpg,AMSA17.jpg,AMNE19.jpg,AMNE19.jpg,MN,1,num_4,32,num_8,1.50006671366,,,2017_Jul_11_1133,60.0013856165,FEMA4ImagesEEG,001,100900,
AFNE01.JPG,AFNE01.JPG,AFNE01.JPG,AFNE01.JPG,AFNE01.JPG,AFNE01.JPG,,,,,,,,,,,,,,,,,,,,,1,7,17,5,,,AMSA14.jpg,AMSA02.jpg,AMNE07.jpg,AMNE11.jpg,AMSA02.jpg,MS,2,num_6,32,num_8,1.03346239892,,,2017_Jul_11_1133,60.0013856165,FEMA4ImagesEEG,001,100900,
AFNE01.JPG,AFNE01.JPG,AFNE01.JPG,AFNE01.JPG,AFNE01.JPG,AFNE01.JPG,,,,,,,,,,,,,,,,,,,,,1,8,18,0,,,AMSA08.jpg,AMNE20.jpg,AMNE18.jpg,AMSA10.jpg,AMSA08.jpg,MS,2,num_8,32,num_2,1.2500989479,,,2017_Jul_11_1133,60.0013856165,FEMA4ImagesEEG,001,100900,
AFNE01.JPG,AFNE01.JPG,AFNE01.JPG,AFNE01.JPG,AFNE01.JPG,AFNE01.JPG,,,,,,,,,,,,,,,,,,,,,1,9,19,2,,,AMNE12.jpg,AMNE13.jpg,AMSA05.jpg,AMSA17.jpg,AMSA05.jpg,MS,2,num_2,16,num_2,0.716394070303,,,2017_Jul_11_1133,60.0013856165,FEMA4ImagesEEG,001,100900,
AFNE01.JPG,AFNE01.JPG,AFNE01.JPG,AFNE01.JPG,AFNE01.JPG,AFNE01.JPG,,,,,,,,,,,,,,,,,,,,,2,0,20,8,,,AMNE20.jpg,AMNE14.jpg,AMSA16.jpg,AMSA19.jpg,AMSA19.jpg,MS,2,num_4,32,num_2,1.75004506391,,,2017_Jul_11_1133,60.0013856165,FEMA4ImagesEEG,001,100900,
AFNE01.JPG,AFNE01.JPG,AFNE01.JPG,AFNE01.JPG,AFNE01.JPG,AFNE01.JPG,,,,,,,,,,,,,,,,,,,,,2,1,21,3,,,AMNE07.jpg,AMSA02.jpg,AMNE08.jpg,AMSA04.jpg,AMNE07.jpg,MN,1,num_8,16,num_8,0.833452969091,,,2017_Jul_11_1133,60.0013856165,FEMA4ImagesEEG,001,100900,
AFNE01.JPG,AFNE01.JPG,AFNE01.JPG,AFNE01.JPG,AFNE01.JPG,AFNE01.JPG,,,,,,,,,,,,,,,,,,,,,2,2,22,6,,,AMSA12.jpg,AMNE20.jpg,AMSA14.jpg,AMNE19.jpg,AMNE19.jpg,MN,1,num_4,32,num_6,1.44996019616,,,2017_Jul_11_1133,60.0013856165,FEMA4ImagesEEG,001,100900,
AFNE01.JPG,AFNE01.JPG,AFNE01.JPG,AFNE01.JPG,AFNE01.JPG,AFNE01.JPG,,,,,,,,,,,,,,,,,,,,,2,3,23,0,,,AMSA02.jpg,AMNE03.jpg,AMSA11.jpg,AMNE17.jpg,AMSA11.jpg,MS,2,num_2,32,num_8,0.683455117978,,,2017_Jul_11_1133,60.0013856165,FEMA4ImagesEEG,001,100900,
AFNE01.JPG,AFNE01.JPG,AFNE01.JPG,AFNE01.JPG,AFNE01.JPG,AFNE01.JPG,,,,,,,,,,,,,,,,,,,,,2,4,24,1,,,AMNE15.jpg,AMNE05.jpg,AMSA18.jpg,AMSA02.jpg,AMSA18.jpg,MS,2,num_2,32,num_4,0.600196997868,,,2017_Jul_11_1133,60.0013856165,FEMA4ImagesEEG,001,100900,
AFNE01.JPG,AFNE01.JPG,AFNE01.JPG,AFNE01.JPG,AFNE01.JPG,AFNE01.JPG,,,,,,,,,,,,,,,,,,,,,2,5,25,9,,,AMNE07.jpg,AMSA20.jpg,AMSA04.jpg,AMNE03.jpg,AMSA04.jpg,MS,2,num_2,16,num_2,1.3834658307,,,2017_Jul_11_1133,60.0013856165,FEMA4ImagesEEG,001,100900,
AFNE01.JPG,AFNE01.JPG,AFNE01.JPG,AFNE01.JPG,AFNE01.JPG,AFNE01.JPG,,,,,,,,,,,,,,,,,,,,,2,6,26,2,,,AMSA12.jpg,AMSA13.jpg,AMNE19.jpg,AMNE07.jpg,AMNE19.jpg,MN,1,num_2,16,num_2,0.533424230758,,,2017_Jul_11_1133,60.0013856165,FEMA4ImagesEEG,001,100900,
AFNE01.JPG,AFNE01.JPG,AFNE01.JPG,AFNE01.JPG,AFNE01.JPG,AFNE01.JPG,,,,,,,,,,,,,,,,,,,,,2,7,27,4,,,AMNE13.jpg,AMSA04.jpg,AMSA07.jpg,AMNE01.jpg,AMSA07.jpg,MS,2,num_2,16,num_2,0.550179966725,,,2017_Jul_11_1133,60.0013856165,FEMA4ImagesEEG,001,100900,
AFNE01.JPG,AFNE01.JPG,AFNE01.JPG,AFNE01.JPG,AFNE01.JPG,AFNE01.JPG,,,,,,,,,,,,,,,,,,,,,2,8,28,5,,,AMSA01.jpg,AMSA02.jpg,AMNE14.jpg,AMNE07.jpg,AMSA01.jpg,MS,2,num_8,16,num_8,0.683495851932,,,2017_Jul_11_1133,60.0013856165,FEMA4ImagesEEG,001,100900,
AFNE01.JPG,AFNE01.JPG,AFNE01.JPG,AFNE01.JPG,AFNE01.JPG,AFNE01.JPG,,,,,,,,,,,,,,,,,,,,,2,9,29,7,,,AMNE18.jpg,AMNE19.jpg,AMSA17.jpg,AMSA13.jpg,AMNE19.jpg,MN,1,num_6,16,num_6,0.850150009617,,,2017_Jul_11_1133,60.0013856165,FEMA4ImagesEEG,001,100900,
AFNE01.JPG,AFNE01.JPG,AFNE01.JPG,AFNE01.JPG,AFNE01.JPG,AFNE01.JPG,,,,,,,,,,,,,,,,,,,,,3,0,30,5,,,AMNE11.jpg,AMSA08.jpg,AMSA19.jpg,AMNE16.jpg,AMSA19.jpg,MS,2,num_2,16,num_2,0.749790076166,,,2017_Jul_11_1133,60.0013856165,FEMA4ImagesEEG,001,100900,
AFNE01.JPG,AFNE01.JPG,AFNE01.JPG,AFNE01.JPG,AFNE01.JPG,AFNE01.JPG,,,,,,,,,,,,,,,,,,,,,3,1,31,2,,,AMSA14.jpg,AMSA11.jpg,AMNE06.jpg,AMNE16.jpg,AMSA14.jpg,MS,2,num_8,16,num_8,0.983459159499,,,2017_Jul_11_1133,60.0013856165,FEMA4ImagesEEG,001,100900,
AFNE01.JPG,AFNE01.JPG,AFNE01.JPG,AFNE01.JPG,AFNE01.JPG,AFNE01.JPG,,,,,,,,,,,,,,,,,,,,,3,2,32,3,,,AMSA07.jpg,AMNE07.jpg,AMSA12.jpg,AMNE08.jpg,AMSA07.jpg,MS,2,num_8,32,num_2,0.716623398941,,,2017_Jul_11_1133,60.0013856165,FEMA4ImagesEEG,001,100900,
AFNE01.JPG,AFNE01.JPG,AFNE01.JPG,AFNE01.JPG,AFNE01.JPG,AFNE01.JPG,,,,,,,,,,,,,,,,,,,,,3,3,33,6,,,AMNE14.jpg,AMSA07.jpg,AMNE17.jpg,AMSA15.jpg,AMNE14.jpg,MN,1,num_8,16,num_8,2.08364942181,,,2017_Jul_11_1133,60.0013856165,FEMA4ImagesEEG,001,100900,
AFNE01.JPG,AFNE01.JPG,AFNE01.JPG,AFNE01.JPG,AFNE01.JPG,AFNE01.JPG,,,,,,,,,,,,,,,,,,,,,3,4,34,4,,,AMSA19.jpg,AMSA18.jpg,AMNE19.jpg,AMNE18.jpg,AMNE18.jpg,MN,1,num_4,32,num_8,1.08335017227,,,2017_Jul_11_1133,60.0013856165,FEMA4ImagesEEG,001,100900,
AFNE01.JPG,AFNE01.JPG,AFNE01.JPG,AFNE01.JPG,AFNE01.JPG,AFNE01.JPG,,,,,,,,,,,,,,,,,,,,,3,5,35,7,,,AMSA05.jpg,AMSA02.jpg,AMNE03.jpg,AMNE12.jpg,AMSA02.jpg,MS,2,num_6,16,num_6,1.93336515082,,,2017_Jul_11_1133,60.0013856165,FEMA4ImagesEEG,001,100900,
AFNE01.JPG,AFNE01.JPG,AFNE01.JPG,AFNE01.JPG,AFNE01.JPG,AFNE01.JPG,,,,,,,,,,,,,,,,,,,,,3,6,36,0,,,AMSA01.jpg,AMNE18.jpg,AMSA08.jpg,AMNE05.jpg,AMNE05.jpg,MN,1,num_4,32,num_2,0.83346387418,,,2017_Jul_11_1133,60.0013856165,FEMA4ImagesEEG,001,100900,
AFNE01.JPG,AFNE01.JPG,AFNE01.JPG,AFNE01.JPG,AFNE01.JPG,AFNE01.JPG,,,,,,,,,,,,,,,,,,,,,3,7,37,8,,,AMNE11.jpg,AMSA02.jpg,AMNE13.jpg,AMSA06.jpg,AMNE13.jpg,MN,1,num_2,32,num_8,1.05012127128,,,2017_Jul_11_1133,60.0013856165,FEMA4ImagesEEG,001,100900,
AFNE01.JPG,AFNE01.JPG,AFNE01.JPG,AFNE01.JPG,AFNE01.JPG,AFNE01.JPG,,,,,,,,,,,,,,,,,,,,,3,8,38,1,,,AMNE14.jpg,AMNE19.jpg,AMSA09.jpg,AMSA15.jpg,AMSA09.jpg,MS,2,num_2,16,num_2,0.516796149081,,,2017_Jul_11_1133,60.0013856165,FEMA4ImagesEEG,001,100900,
