IPosition2,IPosition3,IPosition1,IPosition6,IPosition4,IPosition5,TrialsF1.thisRepN,TrialsF1.thisTrialN,TrialsF1.thisN,TrialsF1.thisIndex,TrialsM1.thisRepN,TrialsM1.thisTrialN,TrialsM1.thisN,TrialsM1.thisIndex,TrialsF2.thisRepN,TrialsF2.thisTrialN,TrialsF2.thisN,TrialsF2.thisIndex,TrialsM2.thisRepN,TrialsM2.thisTrialN,TrialsM2.thisN,TrialsM2.thisIndex,TrialsF3.thisRepN,TrialsF3.thisTrialN,TrialsF3.thisN,TrialsF3.thisIndex,TrialsM3.thisRepN,TrialsM3.thisTrialN,TrialsM3.thisN,TrialsM3.thisIndex,InstrKey_resp.keys,InstrKey_resp.rt,Image0 _Position,Image1 _Position,Image2 _Position,Image3 _Position,Center_image,condition,code,correct_answer,accuracy,Key_Resp.keys,Key_Resp.rt,BreakKey_resp.keys,BreakKey_resp.rt,date,frameRate,expName,session,participant,
,,,,,,,,,,,,,,,,,,,,,,,,,,,,,,space,1899.97144387,,,,,,,,,,,,,,2017_Jul_17_1639,824.877371213,FEMA4ImagesEEG,001,100989,
AMNE22.JPG,AMSA24.JPG,AMSA22.JPG,AMNE25.JPG,AMNE24.JPG,AMSA25.JPG,0,0,0,7,,,,,,,,,,,,,,,,,,,,,,,AFSA06.jpg,AFNE05.jpg,AFSA19.jpg,AFNE20.jpg,AFNE05.jpg,FN,3,num_6,16,num_6,1.03342464805,,,2017_Jul_17_1639,824.877371213,FEMA4ImagesEEG,001,100989,
AFNE23.JPG,AFNE24.JPG,AFNE22.JPG,AFSA24.JPG,AFSA22.JPG,AFSA23.JPG,0,1,1,8,,,,,,,,,,,,,,,,,,,,,,,AFSA06.jpg,AFNE04.jpg,AFNE11.jpg,AFSA14.jpg,AFSA14.jpg,FS,4,num_4,16,num_4,0.316813293008,,,2017_Jul_17_1639,824.877371213,FEMA4ImagesEEG,001,100989,
AMSA21.JPG,AMNE22.JPG,AMNE21.JPG,AMSA23.JPG,AMSA22.JPG,AMNE23.JPG,0,2,2,1,,,,,,,,,,,,,,,,,,,,,,,AFSA01.jpg,AFSA16.jpg,AFNE19.jpg,AFNE14.jpg,AFSA16.jpg,FS,4,num_6,32,num_8,0.350157435285,,,2017_Jul_17_1639,824.877371213,FEMA4ImagesEEG,001,100989,
AMNE23.JPG,AMNE24.JPG,AMNE22.JPG,AMSA24.JPG,AMSA22.JPG,AMSA23.JPG,0,3,3,9,,,,,,,,,,,,,,,,,,,,,,,AFNE03.jpg,AFSA06.jpg,AFSA01.jpg,AFNE08.jpg,AFNE08.jpg,FN,3,num_4,16,num_4,0.566787553616,,,2017_Jul_17_1639,824.877371213,FEMA4ImagesEEG,001,100989,
AFSA25.JPG,AFNE24.JPG,AFSA24.JPG,AFNE21.JPG,AFSA21.JPG,AFNE25.JPG,0,4,4,2,,,,,,,,,,,,,,,,,,,,,,,AFSA12.jpg,AFNE18.jpg,AFNE15.jpg,AFSA10.jpg,AFNE15.jpg,FN,3,num_2,16,num_2,1.23343176847,,,2017_Jul_17_1639,824.877371213,FEMA4ImagesEEG,001,100989,
AFSA21.JPG,AFNE23.JPG,AFNE21.JPG,AFSA25.JPG,AFNE25.JPG,AFSA23.JPG,0,5,5,4,,,,,,,,,,,,,,,,,,,,,,,AFSA09.jpg,AFSA05.jpg,AFNE15.jpg,AFNE10.jpg,AFSA09.jpg,FS,4,num_8,32,num_6,0.500125569757,,,2017_Jul_17_1639,824.877371213,FEMA4ImagesEEG,001,100989,
AFNE22.JPG,AFSA24.JPG,AFSA22.JPG,AFNE25.JPG,AFNE24.JPG,AFSA25.JPG,0,6,6,6,,,,,,,,,,,,,,,,,,,,,,,AFNE15.jpg,AFSA06.jpg,AFSA14.jpg,AFNE05.jpg,AFNE15.jpg,FN,3,num_8,32,num_2,0.40017942202,,,2017_Jul_17_1639,824.877371213,FEMA4ImagesEEG,001,100989,
AMSA21.JPG,AMNE23.JPG,AMNE21.JPG,AMSA25.JPG,AMNE25.JPG,AMSA23.JPG,0,7,7,5,,,,,,,,,,,,,,,,,,,,,,,AFNE15.jpg,AFSA07.jpg,AFNE08.jpg,AFSA16.jpg,AFNE08.jpg,FN,3,num_2,16,num_2,0.633497969233,,,2017_Jul_17_1639,824.877371213,FEMA4ImagesEEG,001,100989,
AMSA25.JPG,AMNE24.JPG,AMSA24.JPG,AMNE26.JPG,AMSA21.JPG,AMNE25.JPG,0,8,8,3,,,,,,,,,,,,,,,,,,,,,,,AFNE12.jpg,AFSA04.jpg,AFNE02.jpg,AFSA10.jpg,AFSA04.jpg,FS,4,num_6,32,num_4,0.333502042635,,,2017_Jul_17_1639,824.877371213,FEMA4ImagesEEG,001,100989,
AFSA21.JPG,AFNE22.JPG,AFNE21.JPG,AFSA23.JPG,AFSA22.JPG,AFNE23.JPG,0,9,9,0,,,,,,,,,,,,,,,,,,,,,,,AFSA13.jpg,AFSA06.jpg,AFNE01.jpg,AFNE16.jpg,AFSA13.jpg,FS,4,num_8,16,num_8,0.283517582495,,,2017_Jul_17_1639,824.877371213,FEMA4ImagesEEG,001,100989,
AMSA25.JPG,AMNE24.JPG,AMSA24.JPG,AMNE26.JPG,AMSA21.JPG,AMNE25.JPG,,,,,0,0,0,3,,,,,,,,,,,,,,,,,,,AMNE18.jpg,AMSA04.jpg,AMNE02.jpg,AMSA17.jpg,AMNE18.jpg,MN,1,num_8,32,num_2,0.783461934083,,,2017_Jul_17_1639,824.877371213,FEMA4ImagesEEG,001,100989,
AFSA21.JPG,AFNE22.JPG,AFNE21.JPG,AFSA23.JPG,AFSA22.JPG,AFNE23.JPG,,,,,0,1,1,0,,,,,,,,,,,,,,,,,,,AMSA13.jpg,AMNE06.jpg,AMSA08.jpg,AMNE15.jpg,AMSA08.jpg,MS,2,num_2,32,num_6,0.499870581363,,,2017_Jul_17_1639,824.877371213,FEMA4ImagesEEG,001,100989,
AMNE22.JPG,AMSA24.JPG,AMSA22.JPG,AMNE25.JPG,AMNE24.JPG,AMSA25.JPG,,,,,0,2,2,7,,,,,,,,,,,,,,,,,,,AMSA02.jpg,AMNE07.jpg,AMSA13.jpg,AMNE03.jpg,AMNE07.jpg,MN,1,num_6,16,num_6,0.500132946778,,,2017_Jul_17_1639,824.877371213,FEMA4ImagesEEG,001,100989,
AFSA25.JPG,AFNE24.JPG,AFSA24.JPG,AFNE21.JPG,AFSA21.JPG,AFNE25.JPG,,,,,0,3,3,2,,,,,,,,,,,,,,,,,,,AMNE14.jpg,AMSA16.jpg,AMNE17.jpg,AMSA18.jpg,AMSA16.jpg,MS,2,num_6,32,num_2,0.533498899378,,,2017_Jul_17_1639,824.877371213,FEMA4ImagesEEG,001,100989,
AFSA21.JPG,AFNE23.JPG,AFNE21.JPG,AFSA25.JPG,AFNE25.JPG,AFSA23.JPG,,,,,0,4,4,4,,,,,,,,,,,,,,,,,,,AMSA20.jpg,AMNE17.jpg,AMSA01.jpg,AMNE10.jpg,AMNE10.jpg,MN,1,num_4,32,num_6,1.11675709934,,,2017_Jul_17_1639,824.877371213,FEMA4ImagesEEG,001,100989,
AFNE22.JPG,AFSA24.JPG,AFSA22.JPG,AFNE25.JPG,AFNE24.JPG,AFSA25.JPG,,,,,0,5,5,6,,,,,,,,,,,,,,,,,,,AMSA02.jpg,AMNE20.jpg,AMSA20.jpg,AMNE11.jpg,AMSA20.jpg,MS,2,num_2,16,num_2,0.566811288383,,,2017_Jul_17_1639,824.877371213,FEMA4ImagesEEG,001,100989,
AMNE23.JPG,AMNE24.JPG,AMNE22.JPG,AMSA24.JPG,AMSA22.JPG,AMSA23.JPG,,,,,0,6,6,9,,,,,,,,,,,,,,,,,,,AMNE19.jpg,AMNE06.jpg,AMSA03.jpg,AMSA01.jpg,AMNE19.jpg,MN,1,num_8,32,num_4,0.38353717971,,,2017_Jul_17_1639,824.877371213,FEMA4ImagesEEG,001,100989,
AFNE23.JPG,AFNE24.JPG,AFNE22.JPG,AFSA24.JPG,AFSA22.JPG,AFSA23.JPG,,,,,0,7,7,8,,,,,,,,,,,,,,,,,,,AMNE07.jpg,AMSA01.jpg,AMSA09.jpg,AMNE04.jpg,AMNE04.jpg,MN,1,num_4,16,num_4,0.43354184648,,,2017_Jul_17_1639,824.877371213,FEMA4ImagesEEG,001,100989,
AMSA21.JPG,AMNE23.JPG,AMNE21.JPG,AMSA25.JPG,AMNE25.JPG,AMSA23.JPG,,,,,0,8,8,5,,,,,,,,,,,,,,,,,,,AMNE07.jpg,AMSA07.jpg,AMSA18.jpg,AMNE04.jpg,AMSA07.jpg,MS,2,num_6,16,num_6,1.08343861628,,,2017_Jul_17_1639,824.877371213,FEMA4ImagesEEG,001,100989,
AMSA21.JPG,AMNE22.JPG,AMNE21.JPG,AMSA23.JPG,AMSA22.JPG,AMNE23.JPG,,,,,0,9,9,1,,,,,,,,,,,,,,,,,,,AMSA02.jpg,AMSA11.jpg,AMNE02.jpg,AMNE10.jpg,AMNE02.jpg,MN,1,num_2,16,num_2,0.366773056161,,,2017_Jul_17_1639,824.877371213,FEMA4ImagesEEG,001,100989,
AFNE23.JPG,AFNE24.JPG,AFNE22.JPG,AFSA24.JPG,AFSA22.JPG,AFSA23.JPG,,,,,,,,,0,0,0,8,,,,,,,,,,,,,,,AFSA16.jpg,AFNE08.jpg,AFNE14.jpg,AFSA02.jpg,AFSA16.jpg,FS,4,num_8,32,num_6,0.816758286081,,,2017_Jul_17_1639,824.877371213,FEMA4ImagesEEG,001,100989,
AMNE23.JPG,AMNE24.JPG,AMNE22.JPG,AMSA24.JPG,AMSA22.JPG,AMSA23.JPG,,,,,,,,,0,1,1,9,,,,,,,,,,,,,,,AFNE15.jpg,AFSA03.jpg,AFSA19.jpg,AFNE03.jpg,AFSA03.jpg,FS,4,num_6,32,num_4,0.45012795927,,,2017_Jul_17_1639,824.877371213,FEMA4ImagesEEG,001,100989,
AMNE22.JPG,AMSA24.JPG,AMSA22.JPG,AMNE25.JPG,AMNE24.JPG,AMSA25.JPG,,,,,,,,,0,2,2,7,,,,,,,,,,,,,,,AFSA01.jpg,AFSA08.jpg,AFNE06.jpg,AFNE18.jpg,AFSA01.jpg,FS,4,num_8,16,num_8,0.283523035072,,,2017_Jul_17_1639,824.877371213,FEMA4ImagesEEG,001,100989,
AMSA25.JPG,AMNE24.JPG,AMSA24.JPG,AMNE26.JPG,AMSA21.JPG,AMNE25.JPG,,,,,,,,,0,3,3,3,,,,,,,,,,,,,,,AFNE01.jpg,AFSA20.jpg,AFNE15.jpg,AFSA16.jpg,AFSA20.jpg,FS,4,num_6,16,num_6,0.316766144213,,,2017_Jul_17_1639,824.877371213,FEMA4ImagesEEG,001,100989,
AFSA25.JPG,AFNE24.JPG,AFSA24.JPG,AFNE21.JPG,AFSA21.JPG,AFNE25.JPG,,,,,,,,,0,4,4,2,,,,,,,,,,,,,,,AFSA19.jpg,AFSA03.jpg,AFNE16.jpg,AFNE18.jpg,AFSA19.jpg,FS,4,num_8,32,num_2,0.350122795353,,,2017_Jul_17_1639,824.877371213,FEMA4ImagesEEG,001,100989,
AFNE22.JPG,AFSA24.JPG,AFSA22.JPG,AFNE25.JPG,AFNE24.JPG,AFSA25.JPG,,,,,,,,,0,5,5,6,,,,,,,,,,,,,,,AFNE06.jpg,AFSA13.jpg,AFSA06.jpg,AFNE01.jpg,AFSA06.jpg,FS,4,num_2,32,num_6,0.266850963937,,,2017_Jul_17_1639,824.877371213,FEMA4ImagesEEG,001,100989,
AFSA21.JPG,AFNE22.JPG,AFNE21.JPG,AFSA23.JPG,AFSA22.JPG,AFNE23.JPG,,,,,,,,,0,6,6,0,,,,,,,,,,,,,,,AFNE13.jpg,AFSA11.jpg,AFSA03.jpg,AFNE19.jpg,AFSA03.jpg,FS,4,num_2,16,num_2,0.500128135674,,,2017_Jul_17_1639,824.877371213,FEMA4ImagesEEG,001,100989,
AMSA21.JPG,AMNE23.JPG,AMNE21.JPG,AMSA25.JPG,AMNE25.JPG,AMSA23.JPG,,,,,,,,,0,7,7,5,,,,,,,,,,,,,,,AFSA01.jpg,AFSA19.jpg,AFNE02.jpg,AFNE17.jpg,AFNE02.jpg,FN,3,num_2,32,num_4,0.583478548418,,,2017_Jul_17_1639,824.877371213,FEMA4ImagesEEG,001,100989,
AFSA21.JPG,AFNE23.JPG,AFNE21.JPG,AFSA25.JPG,AFNE25.JPG,AFSA23.JPG,,,,,,,,,0,8,8,4,,,,,,,,,,,,,,,AFNE16.jpg,AFSA04.jpg,AFNE14.jpg,AFSA17.jpg,AFNE16.jpg,FN,3,num_8,16,num_8,0.833456657907,,,2017_Jul_17_1639,824.877371213,FEMA4ImagesEEG,001,100989,
AMSA21.JPG,AMNE22.JPG,AMNE21.JPG,AMSA23.JPG,AMSA22.JPG,AMNE23.JPG,,,,,,,,,0,9,9,1,,,,,,,,,,,,,,,AFNE20.jpg,AFNE08.jpg,AFSA16.jpg,AFSA19.jpg,AFSA16.jpg,FS,4,num_2,32,num_6,0.616778107818,,,2017_Jul_17_1639,824.877371213,FEMA4ImagesEEG,001,100989,
AFNE22.JPG,AFSA24.JPG,AFSA22.JPG,AFNE25.JPG,AFNE24.JPG,AFSA25.JPG,,,,,,,,,,,,,0,0,0,6,,,,,,,,,,,AMSA16.jpg,AMNE02.jpg,AMNE20.jpg,AMSA19.jpg,AMSA19.jpg,MS,2,num_4,32,num_6,0.583781327088,,,2017_Jul_17_1639,824.877371213,FEMA4ImagesEEG,001,100989,
AFSA25.JPG,AFNE24.JPG,AFSA24.JPG,AFNE21.JPG,AFSA21.JPG,AFNE25.JPG,,,,,,,,,,,,,0,1,1,2,,,,,,,,,,,AMNE13.jpg,AMSA11.jpg,AMSA01.jpg,AMNE06.jpg,AMNE13.jpg,MN,1,num_8,32,num_2,0.950101818948,,,2017_Jul_17_1639,824.877371213,FEMA4ImagesEEG,001,100989,
AFSA21.JPG,AFNE22.JPG,AFNE21.JPG,AFSA23.JPG,AFSA22.JPG,AFNE23.JPG,,,,,,,,,,,,,0,2,2,0,,,,,,,,,,,AMNE11.jpg,AMNE17.jpg,AMSA07.jpg,AMSA16.jpg,AMSA07.jpg,MS,2,num_2,32,num_6,0.533475164611,,,2017_Jul_17_1639,824.877371213,FEMA4ImagesEEG,001,100989,
AMNE22.JPG,AMSA24.JPG,AMSA22.JPG,AMNE25.JPG,AMNE24.JPG,AMSA25.JPG,,,,,,,,,,,,,0,3,3,7,,,,,,,,,,,AMNE08.jpg,AMSA03.jpg,AMSA07.jpg,AMNE02.jpg,AMNE02.jpg,MN,1,num_4,32,num_6,0.633459480421,,,2017_Jul_17_1639,824.877371213,FEMA4ImagesEEG,001,100989,
AMSA21.JPG,AMNE22.JPG,AMNE21.JPG,AMSA23.JPG,AMSA22.JPG,AMNE23.JPG,,,,,,,,,,,,,0,4,4,1,,,,,,,,,,,AMNE18.jpg,AMSA02.jpg,AMSA12.jpg,AMNE05.jpg,AMNE18.jpg,MN,1,num_8,32,num_4,1.20018192379,,,2017_Jul_17_1639,824.877371213,FEMA4ImagesEEG,001,100989,
AMNE23.JPG,AMNE24.JPG,AMNE22.JPG,AMSA24.JPG,AMSA22.JPG,AMSA23.JPG,,,,,,,,,,,,,0,5,5,9,,,,,,,,,,,AMNE20.jpg,AMSA14.jpg,AMSA13.jpg,AMNE03.jpg,AMSA13.jpg,MS,2,num_2,32,num_8,0.550139537987,,,2017_Jul_17_1639,824.877371213,FEMA4ImagesEEG,001,100989,
AMSA25.JPG,AMNE24.JPG,AMSA24.JPG,AMNE26.JPG,AMSA21.JPG,AMNE25.JPG,,,,,,,,,,,,,0,6,6,3,,,,,,,,,,,AMNE02.jpg,AMNE20.jpg,AMSA13.jpg,AMSA05.jpg,AMSA13.jpg,MS,2,num_2,16,num_2,0.383502860521,,,2017_Jul_17_1639,824.877371213,FEMA4ImagesEEG,001,100989,
AFSA21.JPG,AFNE23.JPG,AFNE21.JPG,AFSA25.JPG,AFNE25.JPG,AFSA23.JPG,,,,,,,,,,,,,0,7,7,4,,,,,,,,,,,AMNE03.jpg,AMSA08.jpg,AMNE17.jpg,AMSA02.jpg,AMSA02.jpg,MS,2,num_4,32,num_6,0.616793824083,,,2017_Jul_17_1639,824.877371213,FEMA4ImagesEEG,001,100989,
AFNE23.JPG,AFNE24.JPG,AFNE22.JPG,AFSA24.JPG,AFSA22.JPG,AFSA23.JPG,,,,,,,,,,,,,0,8,8,8,,,,,,,,,,,AMNE03.jpg,AMSA15.jpg,AMNE08.jpg,AMSA10.jpg,AMSA15.jpg,MS,2,num_6,32,num_8,0.366946576563,,,2017_Jul_17_1639,824.877371213,FEMA4ImagesEEG,001,100989,
AMSA21.JPG,AMNE23.JPG,AMNE21.JPG,AMSA25.JPG,AMNE25.JPG,AMSA23.JPG,,,,,,,,,,,,,0,9,9,5,,,,,,,,,,,AMSA01.jpg,AMNE09.jpg,AMNE13.jpg,AMSA18.jpg,AMNE13.jpg,MN,1,num_2,32,num_4,0.500147059342,,,2017_Jul_17_1639,824.877371213,FEMA4ImagesEEG,001,100989,
AMSA21.JPG,AMNE22.JPG,AMNE21.JPG,AMSA23.JPG,AMSA22.JPG,AMNE23.JPG,,,,,,,,,,,,,,,,,0,0,0,1,,,,,,,AFSA20.jpg,AFSA06.jpg,AFNE02.jpg,AFNE17.jpg,AFNE17.jpg,FN,3,num_4,32,num_6,0.416828079127,,,2017_Jul_17_1639,824.877371213,FEMA4ImagesEEG,001,100989,
AMNE23.JPG,AMNE24.JPG,AMNE22.JPG,AMSA24.JPG,AMSA22.JPG,AMSA23.JPG,,,,,,,,,,,,,,,,,0,1,1,9,,,,,,,AFSA02.jpg,AFNE15.jpg,AFNE12.jpg,AFSA13.jpg,AFSA02.jpg,FS,4,num_8,32,num_2,0.666838583365,,,2017_Jul_17_1639,824.877371213,FEMA4ImagesEEG,001,100989,
AFSA21.JPG,AFNE23.JPG,AFNE21.JPG,AFSA25.JPG,AFNE25.JPG,AFSA23.JPG,,,,,,,,,,,,,,,,,0,2,2,4,,,,,,,AFSA11.jpg,AFNE08.jpg,AFNE02.jpg,AFSA06.jpg,AFNE02.jpg,FN,3,num_2,32,num_6,0.716773649532,,,2017_Jul_17_1639,824.877371213,FEMA4ImagesEEG,001,100989,
AFSA25.JPG,AFNE24.JPG,AFSA24.JPG,AFNE21.JPG,AFSA21.JPG,AFNE25.JPG,,,,,,,,,,,,,,,,,0,3,3,2,,,,,,,AFSA09.jpg,AFSA06.jpg,AFNE09.jpg,AFNE19.jpg,AFSA06.jpg,FS,4,num_6,16,num_6,0.733468493218,,,2017_Jul_17_1639,824.877371213,FEMA4ImagesEEG,001,100989,
AMNE22.JPG,AMSA24.JPG,AMSA22.JPG,AMNE25.JPG,AMNE24.JPG,AMSA25.JPG,,,,,,,,,,,,,,,,,0,4,4,7,,,,,,,AFSA17.jpg,AFNE08.jpg,AFSA07.jpg,AFNE02.jpg,AFSA07.jpg,FS,4,num_2,16,num_2,0.600188466891,,,2017_Jul_17_1639,824.877371213,FEMA4ImagesEEG,001,100989,
AFNE22.JPG,AFSA24.JPG,AFSA22.JPG,AFNE25.JPG,AFNE24.JPG,AFSA25.JPG,,,,,,,,,,,,,,,,,0,5,5,6,,,,,,,AFSA16.jpg,AFNE08.jpg,AFSA12.jpg,AFNE19.jpg,AFSA16.jpg,FS,4,num_8,32,num_4,0.450150090339,,,2017_Jul_17_1639,824.877371213,FEMA4ImagesEEG,001,100989,
AMSA21.JPG,AMNE23.JPG,AMNE21.JPG,AMSA25.JPG,AMNE25.JPG,AMSA23.JPG,,,,,,,,,,,,,,,,,0,6,6,5,,,,,,,AFNE17.jpg,AFNE08.jpg,AFSA18.jpg,AFSA11.jpg,AFSA18.jpg,FS,4,num_2,32,num_8,0.416817173966,,,2017_Jul_17_1639,824.877371213,FEMA4ImagesEEG,001,100989,
AFNE23.JPG,AFNE24.JPG,AFNE22.JPG,AFSA24.JPG,AFSA22.JPG,AFSA23.JPG,,,,,,,,,,,,,,,,,0,7,7,8,,,,,,,AFNE10.jpg,AFNE01.jpg,AFSA15.jpg,AFSA01.jpg,AFSA01.jpg,FS,4,num_4,32,num_6,0.250171515774,,,2017_Jul_17_1639,824.877371213,FEMA4ImagesEEG,001,100989,
AFSA21.JPG,AFNE22.JPG,AFNE21.JPG,AFSA23.JPG,AFSA22.JPG,AFNE23.JPG,,,,,,,,,,,,,,,,,0,8,8,0,,,,,,,AFSA05.jpg,AFNE18.jpg,AFSA01.jpg,AFNE11.jpg,AFSA01.jpg,FS,4,num_2,16,num_2,0.400232023399,,,2017_Jul_17_1639,824.877371213,FEMA4ImagesEEG,001,100989,
AMSA25.JPG,AMNE24.JPG,AMSA24.JPG,AMNE26.JPG,AMSA21.JPG,AMNE25.JPG,,,,,,,,,,,,,,,,,0,9,9,3,,,,,,,AFNE13.jpg,AFNE04.jpg,AFSA20.jpg,AFSA13.jpg,AFNE04.jpg,FN,3,num_6,32,num_8,0.900087850718,,,2017_Jul_17_1639,824.877371213,FEMA4ImagesEEG,001,100989,
AMNE23.JPG,AMNE24.JPG,AMNE22.JPG,AMSA24.JPG,AMSA22.JPG,AMSA23.JPG,,,,,,,,,,,,,,,,,,,,,0,0,0,9,,,AMNE03.jpg,AMNE09.jpg,AMSA17.jpg,AMSA05.jpg,AMNE09.jpg,MN,1,num_6,32,num_2,0.833444469783,,,2017_Jul_17_1639,824.877371213,FEMA4ImagesEEG,001,100989,
AMSA21.JPG,AMNE22.JPG,AMNE21.JPG,AMSA23.JPG,AMSA22.JPG,AMNE23.JPG,,,,,,,,,,,,,,,,,,,,,0,1,1,1,,,AMNE01.jpg,AMNE08.jpg,AMSA14.jpg,AMSA04.jpg,AMSA14.jpg,MS,2,num_2,32,num_6,0.683339700023,,,2017_Jul_17_1639,824.877371213,FEMA4ImagesEEG,001,100989,
AMSA25.JPG,AMNE24.JPG,AMSA24.JPG,AMNE26.JPG,AMSA21.JPG,AMNE25.JPG,,,,,,,,,,,,,,,,,,,,,0,2,2,3,,,AMNE16.jpg,AMNE06.jpg,AMSA05.jpg,AMSA11.jpg,AMSA11.jpg,MS,2,num_4,16,num_4,0.366814110897,,,2017_Jul_17_1639,824.877371213,FEMA4ImagesEEG,001,100989,
AFSA21.JPG,AFNE23.JPG,AFNE21.JPG,AFSA25.JPG,AFNE25.JPG,AFSA23.JPG,,,,,,,,,,,,,,,,,,,,,0,3,3,4,,,AMSA01.jpg,AMNE01.jpg,AMSA09.jpg,AMNE05.jpg,AMSA01.jpg,MS,2,num_8,32,num_6,0.333808349442,,,2017_Jul_17_1639,824.877371213,FEMA4ImagesEEG,001,100989,
AFNE22.JPG,AFSA24.JPG,AFSA22.JPG,AFNE25.JPG,AFNE24.JPG,AFSA25.JPG,,,,,,,,,,,,,,,,,,,,,0,4,4,6,,,AMSA15.jpg,AMSA10.jpg,AMNE18.jpg,AMNE09.jpg,AMNE09.jpg,MN,1,num_4,32,num_2,0.533333397481,,,2017_Jul_17_1639,824.877371213,FEMA4ImagesEEG,001,100989,
AFNE23.JPG,AFNE24.JPG,AFNE22.JPG,AFSA24.JPG,AFSA22.JPG,AFSA23.JPG,,,,,,,,,,,,,,,,,,,,,0,5,5,8,,,AMSA18.jpg,AMNE16.jpg,AMSA08.jpg,AMNE02.jpg,AMSA08.jpg,MS,2,num_2,32,num_6,0.300168484784,,,2017_Jul_17_1639,824.877371213,FEMA4ImagesEEG,001,100989,
AFSA25.JPG,AFNE24.JPG,AFSA24.JPG,AFNE21.JPG,AFSA21.JPG,AFNE25.JPG,,,,,,,,,,,,,,,,,,,,,0,6,6,2,,,AMSA14.jpg,AMNE07.jpg,AMSA05.jpg,AMNE06.jpg,AMSA05.jpg,MS,2,num_2,16,num_2,0.4334780192,,,2017_Jul_17_1639,824.877371213,FEMA4ImagesEEG,001,100989,
AMSA21.JPG,AMNE23.JPG,AMNE21.JPG,AMSA25.JPG,AMNE25.JPG,AMSA23.JPG,,,,,,,,,,,,,,,,,,,,,0,7,7,5,,,AMSA02.jpg,AMSA06.jpg,AMNE11.jpg,AMNE09.jpg,AMNE11.jpg,MN,1,num_2,32,num_6,0.850105315018,,,2017_Jul_17_1639,824.877371213,FEMA4ImagesEEG,001,100989,
AMNE22.JPG,AMSA24.JPG,AMSA22.JPG,AMNE25.JPG,AMNE24.JPG,AMSA25.JPG,,,,,,,,,,,,,,,,,,,,,0,8,8,7,,,AMSA05.jpg,AMSA10.jpg,AMNE20.jpg,AMNE12.jpg,AMSA05.jpg,MS,2,num_8,16,num_8,0.266811192163,,,2017_Jul_17_1639,824.877371213,FEMA4ImagesEEG,001,100989,
AFSA21.JPG,AFNE22.JPG,AFNE21.JPG,AFSA23.JPG,AFSA22.JPG,AFNE23.JPG,,,,,,,,,,,,,,,,,,,,,0,9,9,0,,,AMNE08.jpg,AMSA14.jpg,AMNE15.jpg,AMSA06.jpg,AMNE08.jpg,MN,1,num_8,32,num_6,0.466705412073,,,2017_Jul_17_1639,824.877371213,FEMA4ImagesEEG,001,100989,
,,,,,,,,,,,,,,,,,,,,,,,,,,,,,,,,,,,,,,,,,,,space,11.5656213426,2017_Jul_17_1639,824.877371213,FEMA4ImagesEEG,001,100989,
AFNE01.JPG,AFNE01.JPG,AFNE01.JPG,AFNE01.JPG,AFNE01.JPG,AFNE01.JPG,0,0,0,1,,,,,,,,,,,,,,,,,,,,,,,AFNE11.jpg,AFNE04.jpg,AFSA15.jpg,AFSA10.jpg,AFNE11.jpg,FN,3,num_8,32,num_4,0.300167522564,,,2017_Jul_17_1639,824.877371213,FEMA4ImagesEEG,001,100989,
AFNE01.JPG,AFNE01.JPG,AFNE01.JPG,AFNE01.JPG,AFNE01.JPG,AFNE01.JPG,0,1,1,7,,,,,,,,,,,,,,,,,,,,,,,AFSA18.jpg,AFNE07.jpg,AFNE05.jpg,AFSA20.jpg,AFSA18.jpg,FS,4,num_8,16,num_8,0.250173760956,,,2017_Jul_17_1639,824.877371213,FEMA4ImagesEEG,001,100989,
AFNE01.JPG,AFNE01.JPG,AFNE01.JPG,AFNE01.JPG,AFNE01.JPG,AFNE01.JPG,0,2,2,0,,,,,,,,,,,,,,,,,,,,,,,AFSA19.jpg,AFSA03.jpg,AFNE16.jpg,AFNE05.jpg,AFSA03.jpg,FS,4,num_6,16,num_6,0.28351790323,,,2017_Jul_17_1639,824.877371213,FEMA4ImagesEEG,001,100989,
AFNE01.JPG,AFNE01.JPG,AFNE01.JPG,AFNE01.JPG,AFNE01.JPG,AFNE01.JPG,0,3,3,4,,,,,,,,,,,,,,,,,,,,,,,AFSA16.jpg,AFSA02.jpg,AFNE14.jpg,AFNE03.jpg,AFSA02.jpg,FS,4,num_6,32,num_4,0.650260489085,,,2017_Jul_17_1639,824.877371213,FEMA4ImagesEEG,001,100989,
AFNE01.JPG,AFNE01.JPG,AFNE01.JPG,AFNE01.JPG,AFNE01.JPG,AFNE01.JPG,0,4,4,6,,,,,,,,,,,,,,,,,,,,,,,AFSA07.jpg,AFNE12.jpg,AFSA01.jpg,AFNE18.jpg,AFNE18.jpg,FN,3,num_4,16,num_4,0.550136972066,,,2017_Jul_17_1639,824.877371213,FEMA4ImagesEEG,001,100989,
AFNE01.JPG,AFNE01.JPG,AFNE01.JPG,AFNE01.JPG,AFNE01.JPG,AFNE01.JPG,0,5,5,2,,,,,,,,,,,,,,,,,,,,,,,AFNE13.jpg,AFSA01.jpg,AFSA13.jpg,AFNE12.jpg,AFNE13.jpg,FN,3,num_8,16,num_8,0.400103406613,,,2017_Jul_17_1639,824.877371213,FEMA4ImagesEEG,001,100989,
AFNE01.JPG,AFNE01.JPG,AFNE01.JPG,AFNE01.JPG,AFNE01.JPG,AFNE01.JPG,0,6,6,5,,,,,,,,,,,,,,,,,,,,,,,AFSA14.jpg,AFSA02.jpg,AFNE03.jpg,AFNE07.jpg,AFSA02.jpg,FS,4,num_6,16,num_6,0.700253288469,,,2017_Jul_17_1639,824.877371213,FEMA4ImagesEEG,001,100989,
AFNE01.JPG,AFNE01.JPG,AFNE01.JPG,AFNE01.JPG,AFNE01.JPG,AFNE01.JPG,0,7,7,8,,,,,,,,,,,,,,,,,,,,,,,AFSA15.jpg,AFNE17.jpg,AFNE19.jpg,AFSA07.jpg,AFSA15.jpg,FS,4,num_8,32,num_4,0.600144204756,,,2017_Jul_17_1639,824.877371213,FEMA4ImagesEEG,001,100989,
AFNE01.JPG,AFNE01.JPG,AFNE01.JPG,AFNE01.JPG,AFNE01.JPG,AFNE01.JPG,0,8,8,9,,,,,,,,,,,,,,,,,,,,,,,AFSA10.jpg,AFSA01.jpg,AFNE20.jpg,AFNE09.jpg,AFNE20.jpg,FN,3,num_2,32,num_8,0.600295594089,,,2017_Jul_17_1639,824.877371213,FEMA4ImagesEEG,001,100989,
AFNE01.JPG,AFNE01.JPG,AFNE01.JPG,AFNE01.JPG,AFNE01.JPG,AFNE01.JPG,0,9,9,3,,,,,,,,,,,,,,,,,,,,,,,AFSA06.jpg,AFSA10.jpg,AFNE14.jpg,AFNE02.jpg,AFSA10.jpg,FS,4,num_6,32,num_2,0.633511761062,,,2017_Jul_17_1639,824.877371213,FEMA4ImagesEEG,001,100989,
AFNE01.JPG,AFNE01.JPG,AFNE01.JPG,AFNE01.JPG,AFNE01.JPG,AFNE01.JPG,1,0,10,5,,,,,,,,,,,,,,,,,,,,,,,AFNE12.jpg,AFSA08.jpg,AFNE19.jpg,AFSA18.jpg,AFSA08.jpg,FS,4,num_6,16,num_6,0.550142745386,,,2017_Jul_17_1639,824.877371213,FEMA4ImagesEEG,001,100989,
AFNE01.JPG,AFNE01.JPG,AFNE01.JPG,AFNE01.JPG,AFNE01.JPG,AFNE01.JPG,1,1,11,9,,,,,,,,,,,,,,,,,,,,,,,AFSA11.jpg,AFNE12.jpg,AFSA12.jpg,AFNE14.jpg,AFNE12.jpg,FN,3,num_6,32,num_8,1.63343414195,,,2017_Jul_17_1639,824.877371213,FEMA4ImagesEEG,001,100989,
AFNE01.JPG,AFNE01.JPG,AFNE01.JPG,AFNE01.JPG,AFNE01.JPG,AFNE01.JPG,1,2,12,4,,,,,,,,,,,,,,,,,,,,,,,AFNE10.jpg,AFNE15.jpg,AFSA14.jpg,AFSA16.jpg,AFNE15.jpg,FN,3,num_6,16,num_6,0.900039098222,,,2017_Jul_17_1639,824.877371213,FEMA4ImagesEEG,001,100989,
AFNE01.JPG,AFNE01.JPG,AFNE01.JPG,AFNE01.JPG,AFNE01.JPG,AFNE01.JPG,1,3,13,1,,,,,,,,,,,,,,,,,,,,,,,AFNE04.jpg,AFSA11.jpg,AFNE17.jpg,AFSA19.jpg,AFNE04.jpg,FN,3,num_8,32,num_4,0.400238117461,,,2017_Jul_17_1639,824.877371213,FEMA4ImagesEEG,001,100989,
AFNE01.JPG,AFNE01.JPG,AFNE01.JPG,AFNE01.JPG,AFNE01.JPG,AFNE01.JPG,1,4,14,3,,,,,,,,,,,,,,,,,,,,,,,AFSA12.jpg,AFNE18.jpg,AFSA19.jpg,AFNE12.jpg,AFSA12.jpg,FS,4,num_8,32,num_2,0.783470914805,,,2017_Jul_17_1639,824.877371213,FEMA4ImagesEEG,001,100989,
AFNE01.JPG,AFNE01.JPG,AFNE01.JPG,AFNE01.JPG,AFNE01.JPG,AFNE01.JPG,1,5,15,2,,,,,,,,,,,,,,,,,,,,,,,AFSA11.jpg,AFNE11.jpg,AFSA10.jpg,AFNE07.jpg,AFNE07.jpg,FN,3,num_4,32,num_6,0.600168260265,,,2017_Jul_17_1639,824.877371213,FEMA4ImagesEEG,001,100989,
AFNE01.JPG,AFNE01.JPG,AFNE01.JPG,AFNE01.JPG,AFNE01.JPG,AFNE01.JPG,1,6,16,7,,,,,,,,,,,,,,,,,,,,,,,AFNE17.jpg,AFNE15.jpg,AFSA16.jpg,AFSA12.jpg,AFSA12.jpg,FS,4,num_4,32,num_8,0.350175396732,,,2017_Jul_17_1639,824.877371213,FEMA4ImagesEEG,001,100989,
AFNE01.JPG,AFNE01.JPG,AFNE01.JPG,AFNE01.JPG,AFNE01.JPG,AFNE01.JPG,1,7,17,6,,,,,,,,,,,,,,,,,,,,,,,AFSA02.jpg,AFNE15.jpg,AFSA07.jpg,AFNE04.jpg,AFSA07.jpg,FS,4,num_2,32,num_4,0.433505602847,,,2017_Jul_17_1639,824.877371213,FEMA4ImagesEEG,001,100989,
AFNE01.JPG,AFNE01.JPG,AFNE01.JPG,AFNE01.JPG,AFNE01.JPG,AFNE01.JPG,1,8,18,0,,,,,,,,,,,,,,,,,,,,,,,AFNE15.jpg,AFNE05.jpg,AFSA08.jpg,AFSA07.jpg,AFNE15.jpg,FN,3,num_8,32,num_2,0.333562662516,,,2017_Jul_17_1639,824.877371213,FEMA4ImagesEEG,001,100989,
AFNE01.JPG,AFNE01.JPG,AFNE01.JPG,AFNE01.JPG,AFNE01.JPG,AFNE01.JPG,1,9,19,8,,,,,,,,,,,,,,,,,,,,,,,AFSA10.jpg,AFNE08.jpg,AFNE20.jpg,AFSA19.jpg,AFNE08.jpg,FN,3,num_6,16,num_6,0.383510879023,,,2017_Jul_17_1639,824.877371213,FEMA4ImagesEEG,001,100989,
AFNE01.JPG,AFNE01.JPG,AFNE01.JPG,AFNE01.JPG,AFNE01.JPG,AFNE01.JPG,2,0,20,7,,,,,,,,,,,,,,,,,,,,,,,AFSA07.jpg,AFNE20.jpg,AFSA03.jpg,AFNE19.jpg,AFNE19.jpg,FN,3,num_4,32,num_8,0.383504784961,,,2017_Jul_17_1639,824.877371213,FEMA4ImagesEEG,001,100989,
AFNE01.JPG,AFNE01.JPG,AFNE01.JPG,AFNE01.JPG,AFNE01.JPG,AFNE01.JPG,2,1,21,1,,,,,,,,,,,,,,,,,,,,,,,AFNE19.jpg,AFSA14.jpg,AFNE03.jpg,AFSA05.jpg,AFNE03.jpg,FN,3,num_2,16,num_2,0.283493847721,,,2017_Jul_17_1639,824.877371213,FEMA4ImagesEEG,001,100989,
AFNE01.JPG,AFNE01.JPG,AFNE01.JPG,AFNE01.JPG,AFNE01.JPG,AFNE01.JPG,2,2,22,2,,,,,,,,,,,,,,,,,,,,,,,AFSA16.jpg,AFSA12.jpg,AFNE02.jpg,AFNE08.jpg,AFSA16.jpg,FS,4,num_8,32,num_6,0.833461789749,,,2017_Jul_17_1639,824.877371213,FEMA4ImagesEEG,001,100989,
AFNE01.JPG,AFNE01.JPG,AFNE01.JPG,AFNE01.JPG,AFNE01.JPG,AFNE01.JPG,2,3,23,8,,,,,,,,,,,,,,,,,,,,,,,AFNE17.jpg,AFSA20.jpg,AFSA17.jpg,AFNE19.jpg,AFSA20.jpg,FS,4,num_6,16,num_6,0.833488731918,,,2017_Jul_17_1639,824.877371213,FEMA4ImagesEEG,001,100989,
AFNE01.JPG,AFNE01.JPG,AFNE01.JPG,AFNE01.JPG,AFNE01.JPG,AFNE01.JPG,2,4,24,6,,,,,,,,,,,,,,,,,,,,,,,AFNE02.jpg,AFSA12.jpg,AFNE03.jpg,AFSA08.jpg,AFNE03.jpg,FN,3,num_2,32,num_8,0.283510526209,,,2017_Jul_17_1639,824.877371213,FEMA4ImagesEEG,001,100989,
AFNE01.JPG,AFNE01.JPG,AFNE01.JPG,AFNE01.JPG,AFNE01.JPG,AFNE01.JPG,2,5,25,9,,,,,,,,,,,,,,,,,,,,,,,AFSA02.jpg,AFNE01.jpg,AFSA01.jpg,AFNE05.jpg,AFNE05.jpg,FN,3,num_4,16,num_4,0.516770377984,,,2017_Jul_17_1639,824.877371213,FEMA4ImagesEEG,001,100989,
AFNE01.JPG,AFNE01.JPG,AFNE01.JPG,AFNE01.JPG,AFNE01.JPG,AFNE01.JPG,2,6,26,0,,,,,,,,,,,,,,,,,,,,,,,AFSA09.jpg,AFNE17.jpg,AFNE11.jpg,AFSA04.jpg,AFSA04.jpg,FS,4,num_4,16,num_4,0.466769560095,,,2017_Jul_17_1639,824.877371213,FEMA4ImagesEEG,001,100989,
AFNE01.JPG,AFNE01.JPG,AFNE01.JPG,AFNE01.JPG,AFNE01.JPG,AFNE01.JPG,2,7,27,3,,,,,,,,,,,,,,,,,,,,,,,AFSA11.jpg,AFSA09.jpg,AFNE13.jpg,AFNE14.jpg,AFNE14.jpg,FN,3,num_4,32,num_6,0.616825577355,,,2017_Jul_17_1639,824.877371213,FEMA4ImagesEEG,001,100989,
AFNE01.JPG,AFNE01.JPG,AFNE01.JPG,AFNE01.JPG,AFNE01.JPG,AFNE01.JPG,2,8,28,5,,,,,,,,,,,,,,,,,,,,,,,AFNE02.jpg,AFSA13.jpg,AFNE03.jpg,AFSA18.jpg,AFNE02.jpg,FN,3,num_8,16,num_8,0.36687537226,,,2017_Jul_17_1639,824.877371213,FEMA4ImagesEEG,001,100989,
AFNE01.JPG,AFNE01.JPG,AFNE01.JPG,AFNE01.JPG,AFNE01.JPG,AFNE01.JPG,2,9,29,4,,,,,,,,,,,,,,,,,,,,,,,AFSA19.jpg,AFNE07.jpg,AFSA06.jpg,AFNE13.jpg,AFNE13.jpg,FN,3,num_4,32,num_2,0.516826828243,,,2017_Jul_17_1639,824.877371213,FEMA4ImagesEEG,001,100989,
AFNE01.JPG,AFNE01.JPG,AFNE01.JPG,AFNE01.JPG,AFNE01.JPG,AFNE01.JPG,3,0,30,8,,,,,,,,,,,,,,,,,,,,,,,AFNE06.jpg,AFSA08.jpg,AFSA05.jpg,AFNE16.jpg,AFSA08.jpg,FS,4,num_6,16,num_6,0.949973522904,,,2017_Jul_17_1639,824.877371213,FEMA4ImagesEEG,001,100989,
AFNE01.JPG,AFNE01.JPG,AFNE01.JPG,AFNE01.JPG,AFNE01.JPG,AFNE01.JPG,3,1,31,3,,,,,,,,,,,,,,,,,,,,,,,AFNE11.jpg,AFNE09.jpg,AFSA04.jpg,AFSA18.jpg,AFNE11.jpg,FN,3,num_8,16,num_8,0.816782020847,,,2017_Jul_17_1639,824.877371213,FEMA4ImagesEEG,001,100989,
AFNE01.JPG,AFNE01.JPG,AFNE01.JPG,AFNE01.JPG,AFNE01.JPG,AFNE01.JPG,3,2,32,2,,,,,,,,,,,,,,,,,,,,,,,AFNE10.jpg,AFSA07.jpg,AFSA10.jpg,AFNE07.jpg,AFSA10.jpg,FS,4,num_2,16,num_2,1.00011001386,,,2017_Jul_17_1639,824.877371213,FEMA4ImagesEEG,001,100989,
AFNE01.JPG,AFNE01.JPG,AFNE01.JPG,AFNE01.JPG,AFNE01.JPG,AFNE01.JPG,3,3,33,4,,,,,,,,,,,,,,,,,,,,,,,AFSA16.jpg,AFNE01.jpg,AFSA10.jpg,AFNE17.jpg,AFNE17.jpg,FN,3,num_4,32,num_6,0.316790841203,,,2017_Jul_17_1639,824.877371213,FEMA4ImagesEEG,001,100989,
AFNE01.JPG,AFNE01.JPG,AFNE01.JPG,AFNE01.JPG,AFNE01.JPG,AFNE01.JPG,3,4,34,5,,,,,,,,,,,,,,,,,,,,,,,AFSA04.jpg,AFSA01.jpg,AFNE14.jpg,AFNE13.jpg,AFNE14.jpg,FN,3,num_2,32,num_8,0.683515465607,,,2017_Jul_17_1639,824.877371213,FEMA4ImagesEEG,001,100989,
AFNE01.JPG,AFNE01.JPG,AFNE01.JPG,AFNE01.JPG,AFNE01.JPG,AFNE01.JPG,3,5,35,7,,,,,,,,,,,,,,,,,,,,,,,AFSA04.jpg,AFNE17.jpg,AFNE13.jpg,AFSA03.jpg,AFNE13.jpg,FN,3,num_2,16,num_2,0.666817414523,,,2017_Jul_17_1639,824.877371213,FEMA4ImagesEEG,001,100989,
AFNE01.JPG,AFNE01.JPG,AFNE01.JPG,AFNE01.JPG,AFNE01.JPG,AFNE01.JPG,3,6,36,1,,,,,,,,,,,,,,,,,,,,,,,AFSA08.jpg,AFNE16.jpg,AFNE19.jpg,AFSA13.jpg,AFSA13.jpg,FS,4,num_4,32,num_6,0.383502539782,,,2017_Jul_17_1639,824.877371213,FEMA4ImagesEEG,001,100989,
AFNE01.JPG,AFNE01.JPG,AFNE01.JPG,AFNE01.JPG,AFNE01.JPG,AFNE01.JPG,3,7,37,6,,,,,,,,,,,,,,,,,,,,,,,AFSA02.jpg,AFSA05.jpg,AFNE04.jpg,AFNE20.jpg,AFSA02.jpg,FS,4,num_8,16,num_8,0.633769315369,,,2017_Jul_17_1639,824.877371213,FEMA4ImagesEEG,001,100989,
AFNE01.JPG,AFNE01.JPG,AFNE01.JPG,AFNE01.JPG,AFNE01.JPG,AFNE01.JPG,3,8,38,0,,,,,,,,,,,,,,,,,,,,,,,AFSA12.jpg,AFNE19.jpg,AFNE05.jpg,AFSA06.jpg,AFNE05.jpg,FN,3,num_2,32,num_6,0.0668124109761,,,2017_Jul_17_1639,824.877371213,FEMA4ImagesEEG,001,100989,
AFNE01.JPG,AFNE01.JPG,AFNE01.JPG,AFNE01.JPG,AFNE01.JPG,AFNE01.JPG,3,9,39,9,,,,,,,,,,,,,,,,,,,,,,,AFSA14.jpg,AFNE16.jpg,AFSA07.jpg,AFNE08.jpg,AFSA07.jpg,FS,4,num_2,16,num_2,0.600116300368,,,2017_Jul_17_1639,824.877371213,FEMA4ImagesEEG,001,100989,
AFNE01.JPG,AFNE01.JPG,AFNE01.JPG,AFNE01.JPG,AFNE01.JPG,AFNE01.JPG,4,0,40,6,,,,,,,,,,,,,,,,,,,,,,,AFNE12.jpg,AFSA20.jpg,AFSA18.jpg,AFNE18.jpg,AFNE18.jpg,FN,3,num_4,32,num_8,0.800113477853,,,2017_Jul_17_1639,824.877371213,FEMA4ImagesEEG,001,100989,
AFNE01.JPG,AFNE01.JPG,AFNE01.JPG,AFNE01.JPG,AFNE01.JPG,AFNE01.JPG,4,1,41,9,,,,,,,,,,,,,,,,,,,,,,,AFSA10.jpg,AFSA19.jpg,AFNE13.jpg,AFNE03.jpg,AFSA10.jpg,FS,4,num_8,16,num_8,0.566889548969,,,2017_Jul_17_1639,824.877371213,FEMA4ImagesEEG,001,100989,
AFNE01.JPG,AFNE01.JPG,AFNE01.JPG,AFNE01.JPG,AFNE01.JPG,AFNE01.JPG,4,2,42,5,,,,,,,,,,,,,,,,,,,,,,,AFNE13.jpg,AFSA02.jpg,AFNE15.jpg,AFSA16.jpg,AFSA02.jpg,FS,4,num_6,32,num_2,0.750159808762,,,2017_Jul_17_1639,824.877371213,FEMA4ImagesEEG,001,100989,
AFNE01.JPG,AFNE01.JPG,AFNE01.JPG,AFNE01.JPG,AFNE01.JPG,AFNE01.JPG,4,3,43,4,,,,,,,,,,,,,,,,,,,,,,,AFSA20.jpg,AFSA05.jpg,AFNE10.jpg,AFNE07.jpg,AFSA05.jpg,FS,4,num_6,32,num_4,0.300155013698,,,2017_Jul_17_1639,824.877371213,FEMA4ImagesEEG,001,100989,
AFNE01.JPG,AFNE01.JPG,AFNE01.JPG,AFNE01.JPG,AFNE01.JPG,AFNE01.JPG,4,4,44,3,,,,,,,,,,,,,,,,,,,,,,,AFNE10.jpg,AFSA12.jpg,AFSA02.jpg,AFNE05.jpg,AFSA02.jpg,FS,4,num_2,32,num_4,0.283499621044,,,2017_Jul_17_1639,824.877371213,FEMA4ImagesEEG,001,100989,
AFNE01.JPG,AFNE01.JPG,AFNE01.JPG,AFNE01.JPG,AFNE01.JPG,AFNE01.JPG,4,5,45,7,,,,,,,,,,,,,,,,,,,,,,,AFSA15.jpg,AFSA07.jpg,AFNE20.jpg,AFNE13.jpg,AFNE20.jpg,FN,3,num_2,32,num_6,0.266791306276,,,2017_Jul_17_1639,824.877371213,FEMA4ImagesEEG,001,100989,
AFNE01.JPG,AFNE01.JPG,AFNE01.JPG,AFNE01.JPG,AFNE01.JPG,AFNE01.JPG,4,6,46,0,,,,,,,,,,,,,,,,,,,,,,,AFSA12.jpg,AFNE10.jpg,AFSA09.jpg,AFNE13.jpg,AFSA12.jpg,FS,4,num_8,16,num_8,0.683196649934,,,2017_Jul_17_1639,824.877371213,FEMA4ImagesEEG,001,100989,
AFNE01.JPG,AFNE01.JPG,AFNE01.JPG,AFNE01.JPG,AFNE01.JPG,AFNE01.JPG,4,7,47,8,,,,,,,,,,,,,,,,,,,,,,,AFNE19.jpg,AFSA05.jpg,AFSA06.jpg,AFNE06.jpg,AFSA05.jpg,FS,4,num_6,16,num_6,0.733451814729,,,2017_Jul_17_1639,824.877371213,FEMA4ImagesEEG,001,100989,
AFNE01.JPG,AFNE01.JPG,AFNE01.JPG,AFNE01.JPG,AFNE01.JPG,AFNE01.JPG,4,8,48,1,,,,,,,,,,,,,,,,,,,,,,,AFNE09.jpg,AFNE11.jpg,AFSA05.jpg,AFSA11.jpg,AFSA05.jpg,FS,4,num_2,16,num_2,0.517026328595,,,2017_Jul_17_1639,824.877371213,FEMA4ImagesEEG,001,100989,
AFNE01.JPG,AFNE01.JPG,AFNE01.JPG,AFNE01.JPG,AFNE01.JPG,AFNE01.JPG,4,9,49,2,,,,,,,,,,,,,,,,,,,,,,,AFSA14.jpg,AFSA16.jpg,AFNE07.jpg,AFNE06.jpg,AFNE06.jpg,FN,3,num_4,32,num_6,0.383544556738,,,2017_Jul_17_1639,824.877371213,FEMA4ImagesEEG,001,100989,
AFNE01.JPG,AFNE01.JPG,AFNE01.JPG,AFNE01.JPG,AFNE01.JPG,AFNE01.JPG,5,0,50,2,,,,,,,,,,,,,,,,,,,,,,,AFNE19.jpg,AFNE03.jpg,AFSA08.jpg,AFSA18.jpg,AFNE03.jpg,FN,3,num_6,16,num_6,0.433453963691,,,2017_Jul_17_1639,824.877371213,FEMA4ImagesEEG,001,100989,
AFNE01.JPG,AFNE01.JPG,AFNE01.JPG,AFNE01.JPG,AFNE01.JPG,AFNE01.JPG,5,1,51,3,,,,,,,,,,,,,,,,,,,,,,,AFSA07.jpg,AFNE19.jpg,AFNE02.jpg,AFSA16.jpg,AFNE02.jpg,FN,3,num_2,32,num_4,0.600130092193,,,2017_Jul_17_1639,824.877371213,FEMA4ImagesEEG,001,100989,
AFNE01.JPG,AFNE01.JPG,AFNE01.JPG,AFNE01.JPG,AFNE01.JPG,AFNE01.JPG,5,2,52,7,,,,,,,,,,,,,,,,,,,,,,,AFSA01.jpg,AFNE11.jpg,AFSA07.jpg,AFNE03.jpg,AFNE03.jpg,FN,3,num_4,32,num_8,0.300164956643,,,2017_Jul_17_1639,824.877371213,FEMA4ImagesEEG,001,100989,
AFNE01.JPG,AFNE01.JPG,AFNE01.JPG,AFNE01.JPG,AFNE01.JPG,AFNE01.JPG,5,3,53,4,,,,,,,,,,,,,,,,,,,,,,,AFNE20.jpg,AFNE02.jpg,AFSA08.jpg,AFSA10.jpg,AFSA10.jpg,FS,4,num_4,32,num_2,1.36676503766,,,2017_Jul_17_1639,824.877371213,FEMA4ImagesEEG,001,100989,
AFNE01.JPG,AFNE01.JPG,AFNE01.JPG,AFNE01.JPG,AFNE01.JPG,AFNE01.JPG,5,4,54,6,,,,,,,,,,,,,,,,,,,,,,,AFNE17.jpg,AFNE15.jpg,AFSA04.jpg,AFSA07.jpg,AFSA04.jpg,FS,4,num_2,32,num_6,1.13349556368,,,2017_Jul_17_1639,824.877371213,FEMA4ImagesEEG,001,100989,
AFNE01.JPG,AFNE01.JPG,AFNE01.JPG,AFNE01.JPG,AFNE01.JPG,AFNE01.JPG,5,5,55,9,,,,,,,,,,,,,,,,,,,,,,,AFSA18.jpg,AFNE14.jpg,AFNE20.jpg,AFSA03.jpg,AFNE20.jpg,FN,3,num_2,32,num_4,0.466819916295,,,2017_Jul_17_1639,824.877371213,FEMA4ImagesEEG,001,100989,
AFNE01.JPG,AFNE01.JPG,AFNE01.JPG,AFNE01.JPG,AFNE01.JPG,AFNE01.JPG,5,6,56,1,,,,,,,,,,,,,,,,,,,,,,,AFNE15.jpg,AFNE03.jpg,AFSA18.jpg,AFSA13.jpg,AFNE15.jpg,FN,3,num_8,16,num_8,0.383510558284,,,2017_Jul_17_1639,824.877371213,FEMA4ImagesEEG,001,100989,
AFNE01.JPG,AFNE01.JPG,AFNE01.JPG,AFNE01.JPG,AFNE01.JPG,AFNE01.JPG,5,7,57,8,,,,,,,,,,,,,,,,,,,,,,,AFNE08.jpg,AFNE15.jpg,AFSA11.jpg,AFSA03.jpg,AFSA03.jpg,FS,4,num_4,32,num_2,0.683479542713,,,2017_Jul_17_1639,824.877371213,FEMA4ImagesEEG,001,100989,
AFNE01.JPG,AFNE01.JPG,AFNE01.JPG,AFNE01.JPG,AFNE01.JPG,AFNE01.JPG,5,8,58,0,,,,,,,,,,,,,,,,,,,,,,,AFNE07.jpg,AFSA19.jpg,AFSA10.jpg,AFNE02.jpg,AFSA10.jpg,FS,4,num_2,32,num_6,0.483484931148,,,2017_Jul_17_1639,824.877371213,FEMA4ImagesEEG,001,100989,
AFNE01.JPG,AFNE01.JPG,AFNE01.JPG,AFNE01.JPG,AFNE01.JPG,AFNE01.JPG,5,9,59,5,,,,,,,,,,,,,,,,,,,,,,,AFSA12.jpg,AFSA18.jpg,AFNE17.jpg,AFNE16.jpg,AFSA18.jpg,FS,4,num_6,32,num_8,0.283463377411,,,2017_Jul_17_1639,824.877371213,FEMA4ImagesEEG,001,100989,
,,,,,,,,,,,,,,,,,,,,,,,,,,,,,,,,,,,,,,,,,,,space,49.1797273645,2017_Jul_17_1639,824.877371213,FEMA4ImagesEEG,001,100989,
AFNE01.JPG,AFNE01.JPG,AFNE01.JPG,AFNE01.JPG,AFNE01.JPG,AFNE01.JPG,,,,,0,0,0,2,,,,,,,,,,,,,,,,,,,AMNE08.jpg,AMSA17.jpg,AMNE02.jpg,AMSA14.jpg,AMNE08.jpg,MN,1,num_8,16,num_8,0.450145279236,,,2017_Jul_17_1639,824.877371213,FEMA4ImagesEEG,001,100989,
AFNE01.JPG,AFNE01.JPG,AFNE01.JPG,AFNE01.JPG,AFNE01.JPG,AFNE01.JPG,,,,,0,1,1,7,,,,,,,,,,,,,,,,,,,AMNE19.jpg,AMSA20.jpg,AMNE14.jpg,AMSA06.jpg,AMNE14.jpg,MN,1,num_2,16,num_2,0.333486647109,,,2017_Jul_17_1639,824.877371213,FEMA4ImagesEEG,001,100989,
AFNE01.JPG,AFNE01.JPG,AFNE01.JPG,AFNE01.JPG,AFNE01.JPG,AFNE01.JPG,,,,,0,2,2,0,,,,,,,,,,,,,,,,,,,AMNE06.jpg,AMSA01.jpg,AMNE10.jpg,AMSA17.jpg,AMNE06.jpg,MN,1,num_8,32,num_4,0.96675657012,,,2017_Jul_17_1639,824.877371213,FEMA4ImagesEEG,001,100989,
AFNE01.JPG,AFNE01.JPG,AFNE01.JPG,AFNE01.JPG,AFNE01.JPG,AFNE01.JPG,,,,,0,3,3,3,,,,,,,,,,,,,,,,,,,AMNE09.jpg,AMSA03.jpg,AMSA08.jpg,AMNE19.jpg,AMNE09.jpg,MN,1,num_8,16,num_8,0.516773906125,,,2017_Jul_17_1639,824.877371213,FEMA4ImagesEEG,001,100989,
AFNE01.JPG,AFNE01.JPG,AFNE01.JPG,AFNE01.JPG,AFNE01.JPG,AFNE01.JPG,,,,,0,4,4,5,,,,,,,,,,,,,,,,,,,AMSA19.jpg,AMNE05.jpg,AMNE20.jpg,AMSA05.jpg,AMNE05.jpg,MN,1,num_6,16,num_6,0.750154356181,,,2017_Jul_17_1639,824.877371213,FEMA4ImagesEEG,001,100989,
AFNE01.JPG,AFNE01.JPG,AFNE01.JPG,AFNE01.JPG,AFNE01.JPG,AFNE01.JPG,,,,,0,5,5,6,,,,,,,,,,,,,,,,,,,AMNE06.jpg,AMSA16.jpg,AMSA08.jpg,AMNE04.jpg,AMSA16.jpg,MS,2,num_6,32,num_8,1.78342536971,,,2017_Jul_17_1639,824.877371213,FEMA4ImagesEEG,001,100989,
AFNE01.JPG,AFNE01.JPG,AFNE01.JPG,AFNE01.JPG,AFNE01.JPG,AFNE01.JPG,,,,,0,6,6,4,,,,,,,,,,,,,,,,,,,AMNE02.jpg,AMSA01.jpg,AMSA02.jpg,AMNE03.jpg,AMSA01.jpg,MS,2,num_6,16,num_6,0.766757468191,,,2017_Jul_17_1639,824.877371213,FEMA4ImagesEEG,001,100989,
AFNE01.JPG,AFNE01.JPG,AFNE01.JPG,AFNE01.JPG,AFNE01.JPG,AFNE01.JPG,,,,,0,7,7,8,,,,,,,,,,,,,,,,,,,AMSA01.jpg,AMNE05.jpg,AMSA03.jpg,AMNE01.jpg,AMNE05.jpg,MN,1,num_6,32,num_8,0.500139682321,,,2017_Jul_17_1639,824.877371213,FEMA4ImagesEEG,001,100989,
AFNE01.JPG,AFNE01.JPG,AFNE01.JPG,AFNE01.JPG,AFNE01.JPG,AFNE01.JPG,,,,,0,8,8,1,,,,,,,,,,,,,,,,,,,AMNE01.jpg,AMSA03.jpg,AMSA07.jpg,AMNE08.jpg,AMSA03.jpg,MS,2,num_6,16,num_6,0.483486214107,,,2017_Jul_17_1639,824.877371213,FEMA4ImagesEEG,001,100989,
AFNE01.JPG,AFNE01.JPG,AFNE01.JPG,AFNE01.JPG,AFNE01.JPG,AFNE01.JPG,,,,,0,9,9,9,,,,,,,,,,,,,,,,,,,AMNE16.jpg,AMSA06.jpg,AMSA13.jpg,AMNE11.jpg,AMSA06.jpg,MS,2,num_6,16,num_6,4.09986371753,,,2017_Jul_17_1639,824.877371213,FEMA4ImagesEEG,001,100989,
AFNE01.JPG,AFNE01.JPG,AFNE01.JPG,AFNE01.JPG,AFNE01.JPG,AFNE01.JPG,,,,,1,0,10,6,,,,,,,,,,,,,,,,,,,AMNE16.jpg,AMSA14.jpg,AMNE01.jpg,AMSA10.jpg,AMNE16.jpg,MN,1,num_8,32,num_2,1.2000924373,,,2017_Jul_17_1639,824.877371213,FEMA4ImagesEEG,001,100989,
AFNE01.JPG,AFNE01.JPG,AFNE01.JPG,AFNE01.JPG,AFNE01.JPG,AFNE01.JPG,,,,,1,1,11,3,,,,,,,,,,,,,,,,,,,AMNE16.jpg,AMSA20.jpg,AMNE01.jpg,AMSA06.jpg,AMNE16.jpg,MN,1,num_8,32,num_4,0.483444197151,,,2017_Jul_17_1639,824.877371213,FEMA4ImagesEEG,001,100989,
AFNE01.JPG,AFNE01.JPG,AFNE01.JPG,AFNE01.JPG,AFNE01.JPG,AFNE01.JPG,,,,,1,2,12,2,,,,,,,,,,,,,,,,,,,AMNE20.jpg,AMNE01.jpg,AMSA07.jpg,AMSA01.jpg,AMNE01.jpg,MN,1,num_6,32,num_8,0.600141959574,,,2017_Jul_17_1639,824.877371213,FEMA4ImagesEEG,001,100989,
AFNE01.JPG,AFNE01.JPG,AFNE01.JPG,AFNE01.JPG,AFNE01.JPG,AFNE01.JPG,,,,,1,3,13,4,,,,,,,,,,,,,,,,,,,AMNE15.jpg,AMSA12.jpg,AMSA07.jpg,AMNE07.jpg,AMSA12.jpg,MS,2,num_6,32,num_2,1.38342427919,,,2017_Jul_17_1639,824.877371213,FEMA4ImagesEEG,001,100989,
AFNE01.JPG,AFNE01.JPG,AFNE01.JPG,AFNE01.JPG,AFNE01.JPG,AFNE01.JPG,,,,,1,4,14,9,,,,,,,,,,,,,,,,,,,AMSA08.jpg,AMNE11.jpg,AMNE15.jpg,AMSA03.jpg,AMSA03.jpg,MS,2,num_4,16,num_4,0.599872858616,,,2017_Jul_17_1639,824.877371213,FEMA4ImagesEEG,001,100989,
AFNE01.JPG,AFNE01.JPG,AFNE01.JPG,AFNE01.JPG,AFNE01.JPG,AFNE01.JPG,,,,,1,5,15,0,,,,,,,,,,,,,,,,,,,AMNE19.jpg,AMSA11.jpg,AMSA14.jpg,AMNE08.jpg,AMNE19.jpg,MN,1,num_8,16,num_8,0.566782101032,,,2017_Jul_17_1639,824.877371213,FEMA4ImagesEEG,001,100989,
AFNE01.JPG,AFNE01.JPG,AFNE01.JPG,AFNE01.JPG,AFNE01.JPG,AFNE01.JPG,,,,,1,6,16,8,,,,,,,,,,,,,,,,,,,AMSA01.jpg,AMNE05.jpg,AMSA11.jpg,AMNE03.jpg,AMNE03.jpg,MN,1,num_4,32,num_6,0.550152046853,,,2017_Jul_17_1639,824.877371213,FEMA4ImagesEEG,001,100989,
AFNE01.JPG,AFNE01.JPG,AFNE01.JPG,AFNE01.JPG,AFNE01.JPG,AFNE01.JPG,,,,,1,7,17,5,,,,,,,,,,,,,,,,,,,AMNE02.jpg,AMSA05.jpg,AMSA04.jpg,AMNE01.jpg,AMSA04.jpg,MS,2,num_2,16,num_2,0.95013261,,,2017_Jul_17_1639,824.877371213,FEMA4ImagesEEG,001,100989,
AFNE01.JPG,AFNE01.JPG,AFNE01.JPG,AFNE01.JPG,AFNE01.JPG,AFNE01.JPG,,,,,1,8,18,1,,,,,,,,,,,,,,,,,,,AMSA08.jpg,AMSA19.jpg,AMNE20.jpg,AMNE13.jpg,AMNE13.jpg,MN,1,num_4,16,num_4,0.483500326674,,,2017_Jul_17_1639,824.877371213,FEMA4ImagesEEG,001,100989,
AFNE01.JPG,AFNE01.JPG,AFNE01.JPG,AFNE01.JPG,AFNE01.JPG,AFNE01.JPG,,,,,1,9,19,7,,,,,,,,,,,,,,,,,,,AMNE02.jpg,AMSA19.jpg,AMSA06.jpg,AMNE17.jpg,AMNE17.jpg,MN,1,num_4,16,num_4,0.850126163121,,,2017_Jul_17_1639,824.877371213,FEMA4ImagesEEG,001,100989,
AFNE01.JPG,AFNE01.JPG,AFNE01.JPG,AFNE01.JPG,AFNE01.JPG,AFNE01.JPG,,,,,2,0,20,7,,,,,,,,,,,,,,,,,,,AMSA15.jpg,AMNE03.jpg,AMSA08.jpg,AMNE11.jpg,AMSA08.jpg,MS,2,num_2,32,num_8,1.1333085722,,,2017_Jul_17_1639,824.877371213,FEMA4ImagesEEG,001,100989,
AFNE01.JPG,AFNE01.JPG,AFNE01.JPG,AFNE01.JPG,AFNE01.JPG,AFNE01.JPG,,,,,2,1,21,4,,,,,,,,,,,,,,,,,,,AMSA17.jpg,AMSA16.jpg,AMNE14.jpg,AMNE20.jpg,AMSA16.jpg,MS,2,num_6,32,num_2,0.350145247157,,,2017_Jul_17_1639,824.877371213,FEMA4ImagesEEG,001,100989,
AFNE01.JPG,AFNE01.JPG,AFNE01.JPG,AFNE01.JPG,AFNE01.JPG,AFNE01.JPG,,,,,2,2,22,6,,,,,,,,,,,,,,,,,,,AMNE19.jpg,AMSA12.jpg,AMSA20.jpg,AMNE16.jpg,AMSA12.jpg,MS,2,num_6,16,num_6,0.466817029635,,,2017_Jul_17_1639,824.877371213,FEMA4ImagesEEG,001,100989,
AFNE01.JPG,AFNE01.JPG,AFNE01.JPG,AFNE01.JPG,AFNE01.JPG,AFNE01.JPG,,,,,2,3,23,1,,,,,,,,,,,,,,,,,,,AMSA14.jpg,AMNE04.jpg,AMNE09.jpg,AMSA19.jpg,AMSA14.jpg,MS,2,num_8,32,num_4,0.53349280532,,,2017_Jul_17_1639,824.877371213,FEMA4ImagesEEG,001,100989,
AFNE01.JPG,AFNE01.JPG,AFNE01.JPG,AFNE01.JPG,AFNE01.JPG,AFNE01.JPG,,,,,2,4,24,5,,,,,,,,,,,,,,,,,,,AMSA05.jpg,AMNE19.jpg,AMSA14.jpg,AMNE04.jpg,AMNE04.jpg,MN,1,num_4,32,num_8,1.46670028023,,,2017_Jul_17_1639,824.877371213,FEMA4ImagesEEG,001,100989,
AFNE01.JPG,AFNE01.JPG,AFNE01.JPG,AFNE01.JPG,AFNE01.JPG,AFNE01.JPG,,,,,2,5,25,3,,,,,,,,,,,,,,,,,,,AMNE19.jpg,AMSA18.jpg,AMSA19.jpg,AMNE09.jpg,AMNE19.jpg,MN,1,num_8,32,num_2,0.73350024649,,,2017_Jul_17_1639,824.877371213,FEMA4ImagesEEG,001,100989,
AFNE01.JPG,AFNE01.JPG,AFNE01.JPG,AFNE01.JPG,AFNE01.JPG,AFNE01.JPG,,,,,2,6,26,9,,,,,,,,,,,,,,,,,,,AMSA17.jpg,AMNE07.jpg,AMNE13.jpg,AMSA02.jpg,AMNE13.jpg,MN,1,num_2,32,num_8,0.583519923894,,,2017_Jul_17_1639,824.877371213,FEMA4ImagesEEG,001,100989,
AFNE01.JPG,AFNE01.JPG,AFNE01.JPG,AFNE01.JPG,AFNE01.JPG,AFNE01.JPG,,,,,2,7,27,2,,,,,,,,,,,,,,,,,,,AMSA02.jpg,AMNE15.jpg,AMNE10.jpg,AMSA09.jpg,AMSA02.jpg,MS,2,num_8,32,num_6,0.383532368611,,,2017_Jul_17_1639,824.877371213,FEMA4ImagesEEG,001,100989,
AFNE01.JPG,AFNE01.JPG,AFNE01.JPG,AFNE01.JPG,AFNE01.JPG,AFNE01.JPG,,,,,2,8,28,0,,,,,,,,,,,,,,,,,,,AMNE03.jpg,AMSA15.jpg,AMSA03.jpg,AMNE01.jpg,AMSA03.jpg,MS,2,num_2,32,num_6,0.666805867877,,,2017_Jul_17_1639,824.877371213,FEMA4ImagesEEG,001,100989,
AFNE01.JPG,AFNE01.JPG,AFNE01.JPG,AFNE01.JPG,AFNE01.JPG,AFNE01.JPG,,,,,2,9,29,8,,,,,,,,,,,,,,,,,,,AMSA18.jpg,AMNE20.jpg,AMNE13.jpg,AMSA13.jpg,AMNE13.jpg,MN,1,num_2,32,num_4,0.616810823314,,,2017_Jul_17_1639,824.877371213,FEMA4ImagesEEG,001,100989,
AFNE01.JPG,AFNE01.JPG,AFNE01.JPG,AFNE01.JPG,AFNE01.JPG,AFNE01.JPG,,,,,3,0,30,4,,,,,,,,,,,,,,,,,,,AMSA13.jpg,AMSA16.jpg,AMNE17.jpg,AMNE02.jpg,AMSA13.jpg,MS,2,num_8,32,num_6,0.583463473635,,,2017_Jul_17_1639,824.877371213,FEMA4ImagesEEG,001,100989,
AFNE01.JPG,AFNE01.JPG,AFNE01.JPG,AFNE01.JPG,AFNE01.JPG,AFNE01.JPG,,,,,3,1,31,8,,,,,,,,,,,,,,,,,,,AMNE07.jpg,AMNE15.jpg,AMSA17.jpg,AMSA03.jpg,AMNE07.jpg,MN,1,num_8,32,num_2,0.633387634636,,,2017_Jul_17_1639,824.877371213,FEMA4ImagesEEG,001,100989,
AFNE01.JPG,AFNE01.JPG,AFNE01.JPG,AFNE01.JPG,AFNE01.JPG,AFNE01.JPG,,,,,3,2,32,5,,,,,,,,,,,,,,,,,,,AMSA08.jpg,AMSA19.jpg,AMNE11.jpg,AMNE09.jpg,AMNE09.jpg,MN,1,num_4,32,num_6,0.633521704003,,,2017_Jul_17_1639,824.877371213,FEMA4ImagesEEG,001,100989,
AFNE01.JPG,AFNE01.JPG,AFNE01.JPG,AFNE01.JPG,AFNE01.JPG,AFNE01.JPG,,,,,3,3,33,0,,,,,,,,,,,,,,,,,,,AMNE01.jpg,AMSA03.jpg,AMSA01.jpg,AMNE15.jpg,AMSA03.jpg,MS,2,num_6,16,num_6,0.433487641403,,,2017_Jul_17_1639,824.877371213,FEMA4ImagesEEG,001,100989,
AFNE01.JPG,AFNE01.JPG,AFNE01.JPG,AFNE01.JPG,AFNE01.JPG,AFNE01.JPG,,,,,3,4,34,7,,,,,,,,,,,,,,,,,,,AMNE18.jpg,AMNE15.jpg,AMSA18.jpg,AMSA03.jpg,AMSA03.jpg,MS,2,num_4,16,num_4,0.783459688901,,,2017_Jul_17_1639,824.877371213,FEMA4ImagesEEG,001,100989,
AFNE01.JPG,AFNE01.JPG,AFNE01.JPG,AFNE01.JPG,AFNE01.JPG,AFNE01.JPG,,,,,3,5,35,3,,,,,,,,,,,,,,,,,,,AMNE05.jpg,AMSA06.jpg,AMNE18.jpg,AMSA18.jpg,AMSA06.jpg,MS,2,num_6,32,num_8,0.916777241822,,,2017_Jul_17_1639,824.877371213,FEMA4ImagesEEG,001,100989,
AFNE01.JPG,AFNE01.JPG,AFNE01.JPG,AFNE01.JPG,AFNE01.JPG,AFNE01.JPG,,,,,3,6,36,9,,,,,,,,,,,,,,,,,,,AMNE06.jpg,AMSA16.jpg,AMSA06.jpg,AMNE02.jpg,AMNE06.jpg,MN,1,num_8,32,num_4,0.500146417864,,,2017_Jul_17_1639,824.877371213,FEMA4ImagesEEG,001,100989,
AFNE01.JPG,AFNE01.JPG,AFNE01.JPG,AFNE01.JPG,AFNE01.JPG,AFNE01.JPG,,,,,3,7,37,2,,,,,,,,,,,,,,,,,,,AMNE16.jpg,AMSA16.jpg,AMSA19.jpg,AMNE19.jpg,AMSA16.jpg,MS,2,num_6,32,num_4,0.633435104173,,,2017_Jul_17_1639,824.877371213,FEMA4ImagesEEG,001,100989,
AFNE01.JPG,AFNE01.JPG,AFNE01.JPG,AFNE01.JPG,AFNE01.JPG,AFNE01.JPG,,,,,3,8,38,6,,,,,,,,,,,,,,,,,,,AMSA10.jpg,AMNE15.jpg,AMSA20.jpg,AMNE18.jpg,AMSA10.jpg,MS,2,num_8,32,num_6,0.750136073992,,,2017_Jul_17_1639,824.877371213,FEMA4ImagesEEG,001,100989,
AFNE01.JPG,AFNE01.JPG,AFNE01.JPG,AFNE01.JPG,AFNE01.JPG,AFNE01.JPG,,,,,3,9,39,1,,,,,,,,,,,,,,,,,,,AMSA20.jpg,AMNE15.jpg,AMNE06.jpg,AMSA03.jpg,AMSA20.jpg,MS,2,num_8,32,num_4,0.383658740215,,,2017_Jul_17_1639,824.877371213,FEMA4ImagesEEG,001,100989,
AFNE01.JPG,AFNE01.JPG,AFNE01.JPG,AFNE01.JPG,AFNE01.JPG,AFNE01.JPG,,,,,4,0,40,7,,,,,,,,,,,,,,,,,,,AMSA19.jpg,AMNE13.jpg,AMSA07.jpg,AMNE12.jpg,AMNE12.jpg,MN,1,num_4,32,num_6,0.466782710439,,,2017_Jul_17_1639,824.877371213,FEMA4ImagesEEG,001,100989,
AFNE01.JPG,AFNE01.JPG,AFNE01.JPG,AFNE01.JPG,AFNE01.JPG,AFNE01.JPG,,,,,4,1,41,8,,,,,,,,,,,,,,,,,,,AMSA02.jpg,AMSA03.jpg,AMNE19.jpg,AMNE04.jpg,AMNE19.jpg,MN,1,num_2,32,num_8,0.73348292652,,,2017_Jul_17_1639,824.877371213,FEMA4ImagesEEG,001,100989,
AFNE01.JPG,AFNE01.JPG,AFNE01.JPG,AFNE01.JPG,AFNE01.JPG,AFNE01.JPG,,,,,4,2,42,0,,,,,,,,,,,,,,,,,,,AMSA11.jpg,AMNE13.jpg,AMSA18.jpg,AMNE16.jpg,AMNE16.jpg,MN,1,num_4,32,num_6,0.633471347803,,,2017_Jul_17_1639,824.877371213,FEMA4ImagesEEG,001,100989,
AFNE01.JPG,AFNE01.JPG,AFNE01.JPG,AFNE01.JPG,AFNE01.JPG,AFNE01.JPG,,,,,4,3,43,9,,,,,,,,,,,,,,,,,,,AMSA19.jpg,AMNE15.jpg,AMNE06.jpg,AMSA13.jpg,AMSA19.jpg,MS,2,num_8,32,num_6,0.816763417923,,,2017_Jul_17_1639,824.877371213,FEMA4ImagesEEG,001,100989,
AFNE01.JPG,AFNE01.JPG,AFNE01.JPG,AFNE01.JPG,AFNE01.JPG,AFNE01.JPG,,,,,4,4,44,4,,,,,,,,,,,,,,,,,,,AMSA13.jpg,AMNE02.jpg,AMNE19.jpg,AMSA14.jpg,AMNE02.jpg,MN,1,num_6,16,num_6,0.700003111182,,,2017_Jul_17_1639,824.877371213,FEMA4ImagesEEG,001,100989,
AFNE01.JPG,AFNE01.JPG,AFNE01.JPG,AFNE01.JPG,AFNE01.JPG,AFNE01.JPG,,,,,4,5,45,1,,,,,,,,,,,,,,,,,,,AMNE03.jpg,AMNE02.jpg,AMSA03.jpg,AMSA13.jpg,AMSA03.jpg,MS,2,num_2,32,num_8,0.533461372786,,,2017_Jul_17_1639,824.877371213,FEMA4ImagesEEG,001,100989,
AFNE01.JPG,AFNE01.JPG,AFNE01.JPG,AFNE01.JPG,AFNE01.JPG,AFNE01.JPG,,,,,4,6,46,3,,,,,,,,,,,,,,,,,,,AMNE10.jpg,AMSA16.jpg,AMSA11.jpg,AMNE15.jpg,AMNE15.jpg,MN,1,num_4,16,num_4,0.81662229227,,,2017_Jul_17_1639,824.877371213,FEMA4ImagesEEG,001,100989,
AFNE01.JPG,AFNE01.JPG,AFNE01.JPG,AFNE01.JPG,AFNE01.JPG,AFNE01.JPG,,,,,4,7,47,2,,,,,,,,,,,,,,,,,,,AMNE17.jpg,AMNE19.jpg,AMSA14.jpg,AMSA09.jpg,AMNE17.jpg,MN,1,num_8,32,num_6,0.516892900709,,,2017_Jul_17_1639,824.877371213,FEMA4ImagesEEG,001,100989,
AFNE01.JPG,AFNE01.JPG,AFNE01.JPG,AFNE01.JPG,AFNE01.JPG,AFNE01.JPG,,,,,4,8,48,6,,,,,,,,,,,,,,,,,,,AMNE12.jpg,AMSA20.jpg,AMSA07.jpg,AMNE02.jpg,AMNE02.jpg,MN,1,num_4,32,num_8,0.616667452479,,,2017_Jul_17_1639,824.877371213,FEMA4ImagesEEG,001,100989,
AFNE01.JPG,AFNE01.JPG,AFNE01.JPG,AFNE01.JPG,AFNE01.JPG,AFNE01.JPG,,,,,4,9,49,5,,,,,,,,,,,,,,,,,,,AMSA05.jpg,AMNE17.jpg,AMNE02.jpg,AMSA18.jpg,AMNE17.jpg,MN,1,num_6,16,num_6,1.16674957799,,,2017_Jul_17_1639,824.877371213,FEMA4ImagesEEG,001,100989,
AFNE01.JPG,AFNE01.JPG,AFNE01.JPG,AFNE01.JPG,AFNE01.JPG,AFNE01.JPG,,,,,5,0,50,8,,,,,,,,,,,,,,,,,,,AMNE17.jpg,AMSA10.jpg,AMNE19.jpg,AMSA07.jpg,AMSA07.jpg,MS,2,num_4,32,num_6,0.833486807478,,,2017_Jul_17_1639,824.877371213,FEMA4ImagesEEG,001,100989,
AFNE01.JPG,AFNE01.JPG,AFNE01.JPG,AFNE01.JPG,AFNE01.JPG,AFNE01.JPG,,,,,5,1,51,3,,,,,,,,,,,,,,,,,,,AMSA02.jpg,AMNE18.jpg,AMSA10.jpg,AMNE17.jpg,AMSA10.jpg,MS,2,num_2,32,num_8,0.350156793807,,,2017_Jul_17_1639,824.877371213,FEMA4ImagesEEG,001,100989,
AFNE01.JPG,AFNE01.JPG,AFNE01.JPG,AFNE01.JPG,AFNE01.JPG,AFNE01.JPG,,,,,5,2,52,2,,,,,,,,,,,,,,,,,,,AMNE13.jpg,AMSA13.jpg,AMNE07.jpg,AMSA06.jpg,AMNE13.jpg,MN,1,num_8,32,num_4,3.36643178868,,,2017_Jul_17_1639,824.877371213,FEMA4ImagesEEG,001,100989,
AFNE01.JPG,AFNE01.JPG,AFNE01.JPG,AFNE01.JPG,AFNE01.JPG,AFNE01.JPG,,,,,5,3,53,6,,,,,,,,,,,,,,,,,,,AMSA03.jpg,AMNE11.jpg,AMNE09.jpg,AMSA12.jpg,AMSA12.jpg,MS,2,num_4,32,num_6,0.566778252152,,,2017_Jul_17_1639,824.877371213,FEMA4ImagesEEG,001,100989,
AFNE01.JPG,AFNE01.JPG,AFNE01.JPG,AFNE01.JPG,AFNE01.JPG,AFNE01.JPG,,,,,5,4,54,7,,,,,,,,,,,,,,,,,,,AMSA16.jpg,AMSA11.jpg,AMNE13.jpg,AMNE19.jpg,AMSA11.jpg,MS,2,num_6,32,num_2,0.466824727395,,,2017_Jul_17_1639,824.877371213,FEMA4ImagesEEG,001,100989,
AFNE01.JPG,AFNE01.JPG,AFNE01.JPG,AFNE01.JPG,AFNE01.JPG,AFNE01.JPG,,,,,5,5,55,4,,,,,,,,,,,,,,,,,,,AMNE08.jpg,AMSA12.jpg,AMNE10.jpg,AMSA15.jpg,AMSA12.jpg,MS,2,num_6,16,num_6,0.383373922992,,,2017_Jul_17_1639,824.877371213,FEMA4ImagesEEG,001,100989,
AFNE01.JPG,AFNE01.JPG,AFNE01.JPG,AFNE01.JPG,AFNE01.JPG,AFNE01.JPG,,,,,5,6,56,0,,,,,,,,,,,,,,,,,,,AMNE15.jpg,AMNE19.jpg,AMSA09.jpg,AMSA17.jpg,AMSA17.jpg,MS,2,num_4,32,num_8,0.5501748194,,,2017_Jul_17_1639,824.877371213,FEMA4ImagesEEG,001,100989,
AFNE01.JPG,AFNE01.JPG,AFNE01.JPG,AFNE01.JPG,AFNE01.JPG,AFNE01.JPG,,,,,5,7,57,9,,,,,,,,,,,,,,,,,,,AMSA06.jpg,AMSA02.jpg,AMNE07.jpg,AMNE13.jpg,AMNE07.jpg,MN,1,num_2,32,num_8,0.71687885229,,,2017_Jul_17_1639,824.877371213,FEMA4ImagesEEG,001,100989,
AFNE01.JPG,AFNE01.JPG,AFNE01.JPG,AFNE01.JPG,AFNE01.JPG,AFNE01.JPG,,,,,5,8,58,1,,,,,,,,,,,,,,,,,,,AMSA12.jpg,AMNE07.jpg,AMSA04.jpg,AMNE12.jpg,AMNE07.jpg,MN,1,num_6,16,num_6,0.366824053843,,,2017_Jul_17_1639,824.877371213,FEMA4ImagesEEG,001,100989,
AFNE01.JPG,AFNE01.JPG,AFNE01.JPG,AFNE01.JPG,AFNE01.JPG,AFNE01.JPG,,,,,5,9,59,5,,,,,,,,,,,,,,,,,,,AMNE06.jpg,AMSA02.jpg,AMSA11.jpg,AMNE09.jpg,AMSA11.jpg,MS,2,num_2,32,num_6,0.350118625731,,,2017_Jul_17_1639,824.877371213,FEMA4ImagesEEG,001,100989,
,,,,,,,,,,,,,,,,,,,,,,,,,,,,,,,,,,,,,,,,,,,space,5.00004811101,2017_Jul_17_1639,824.877371213,FEMA4ImagesEEG,001,100989,
AFNE01.JPG,AFNE01.JPG,AFNE01.JPG,AFNE01.JPG,AFNE01.JPG,AFNE01.JPG,,,,,,,,,0,0,0,2,,,,,,,,,,,,,,,AFNE03.jpg,AFNE16.jpg,AFSA10.jpg,AFSA06.jpg,AFNE03.jpg,FN,3,num_8,32,num_2,0.550138575763,,,2017_Jul_17_1639,824.877371213,FEMA4ImagesEEG,001,100989,
AFNE01.JPG,AFNE01.JPG,AFNE01.JPG,AFNE01.JPG,AFNE01.JPG,AFNE01.JPG,,,,,,,,,0,1,1,7,,,,,,,,,,,,,,,AFSA20.jpg,AFNE11.jpg,AFSA08.jpg,AFNE17.jpg,AFNE17.jpg,FN,3,num_4,32,num_6,0.483501930375,,,2017_Jul_17_1639,824.877371213,FEMA4ImagesEEG,001,100989,
AFNE01.JPG,AFNE01.JPG,AFNE01.JPG,AFNE01.JPG,AFNE01.JPG,AFNE01.JPG,,,,,,,,,0,2,2,9,,,,,,,,,,,,,,,AFNE10.jpg,AFNE04.jpg,AFSA12.jpg,AFSA15.jpg,AFSA12.jpg,FS,4,num_2,32,num_4,0.716747669583,,,2017_Jul_17_1639,824.877371213,FEMA4ImagesEEG,001,100989,
AFNE01.JPG,AFNE01.JPG,AFNE01.JPG,AFNE01.JPG,AFNE01.JPG,AFNE01.JPG,,,,,,,,,0,3,3,3,,,,,,,,,,,,,,,AFNE12.jpg,AFNE18.jpg,AFSA04.jpg,AFSA13.jpg,AFNE18.jpg,FN,3,num_6,16,num_6,0.283550939464,,,2017_Jul_17_1639,824.877371213,FEMA4ImagesEEG,001,100989,
AFNE01.JPG,AFNE01.JPG,AFNE01.JPG,AFNE01.JPG,AFNE01.JPG,AFNE01.JPG,,,,,,,,,0,4,4,0,,,,,,,,,,,,,,,AFNE11.jpg,AFNE07.jpg,AFSA05.jpg,AFSA07.jpg,AFNE11.jpg,FN,3,num_8,16,num_8,0.283457604091,,,2017_Jul_17_1639,824.877371213,FEMA4ImagesEEG,001,100989,
AFNE01.JPG,AFNE01.JPG,AFNE01.JPG,AFNE01.JPG,AFNE01.JPG,AFNE01.JPG,,,,,,,,,0,5,5,4,,,,,,,,,,,,,,,AFNE12.jpg,AFSA02.jpg,AFSA14.jpg,AFNE01.jpg,AFNE12.jpg,FN,3,num_8,32,num_6,0.38352306715,,,2017_Jul_17_1639,824.877371213,FEMA4ImagesEEG,001,100989,
AFNE01.JPG,AFNE01.JPG,AFNE01.JPG,AFNE01.JPG,AFNE01.JPG,AFNE01.JPG,,,,,,,,,0,6,6,6,,,,,,,,,,,,,,,AFSA11.jpg,AFNE02.jpg,AFSA01.jpg,AFNE11.jpg,AFNE11.jpg,FN,3,num_4,32,num_8,0.316628546705,,,2017_Jul_17_1639,824.877371213,FEMA4ImagesEEG,001,100989,
AFNE01.JPG,AFNE01.JPG,AFNE01.JPG,AFNE01.JPG,AFNE01.JPG,AFNE01.JPG,,,,,,,,,0,7,7,1,,,,,,,,,,,,,,,AFSA08.jpg,AFNE20.jpg,AFNE15.jpg,AFSA14.jpg,AFNE20.jpg,FN,3,num_6,16,num_6,0.383496445716,,,2017_Jul_17_1639,824.877371213,FEMA4ImagesEEG,001,100989,
AFNE01.JPG,AFNE01.JPG,AFNE01.JPG,AFNE01.JPG,AFNE01.JPG,AFNE01.JPG,,,,,,,,,0,8,8,8,,,,,,,,,,,,,,,AFNE02.jpg,AFSA16.jpg,AFSA13.jpg,AFNE05.jpg,AFSA13.jpg,FS,4,num_2,16,num_2,1.7167277837,,,2017_Jul_17_1639,824.877371213,FEMA4ImagesEEG,001,100989,
AFNE01.JPG,AFNE01.JPG,AFNE01.JPG,AFNE01.JPG,AFNE01.JPG,AFNE01.JPG,,,,,,,,,0,9,9,5,,,,,,,,,,,,,,,AFSA06.jpg,AFNE18.jpg,AFSA07.jpg,AFNE05.jpg,AFSA06.jpg,FS,4,num_8,32,num_4,0.283512450649,,,2017_Jul_17_1639,824.877371213,FEMA4ImagesEEG,001,100989,
AFNE01.JPG,AFNE01.JPG,AFNE01.JPG,AFNE01.JPG,AFNE01.JPG,AFNE01.JPG,,,,,,,,,1,0,10,9,,,,,,,,,,,,,,,AFSA18.jpg,AFSA02.jpg,AFNE10.jpg,AFNE16.jpg,AFNE16.jpg,FN,3,num_4,32,num_6,0.383505426442,,,2017_Jul_17_1639,824.877371213,FEMA4ImagesEEG,001,100989,
AFNE01.JPG,AFNE01.JPG,AFNE01.JPG,AFNE01.JPG,AFNE01.JPG,AFNE01.JPG,,,,,,,,,1,1,11,1,,,,,,,,,,,,,,,AFSA03.jpg,AFNE01.jpg,AFNE10.jpg,AFSA16.jpg,AFNE10.jpg,FN,3,num_2,32,num_8,0.300189332887,,,2017_Jul_17_1639,824.877371213,FEMA4ImagesEEG,001,100989,
AFNE01.JPG,AFNE01.JPG,AFNE01.JPG,AFNE01.JPG,AFNE01.JPG,AFNE01.JPG,,,,,,,,,1,2,12,4,,,,,,,,,,,,,,,AFNE11.jpg,AFNE16.jpg,AFSA06.jpg,AFSA20.jpg,AFSA20.jpg,FS,4,num_4,32,num_6,1.16672776766,,,2017_Jul_17_1639,824.877371213,FEMA4ImagesEEG,001,100989,
AFNE01.JPG,AFNE01.JPG,AFNE01.JPG,AFNE01.JPG,AFNE01.JPG,AFNE01.JPG,,,,,,,,,1,3,13,2,,,,,,,,,,,,,,,AFSA04.jpg,AFNE03.jpg,AFSA02.jpg,AFNE01.jpg,AFSA02.jpg,FS,4,num_2,32,num_4,0.300105619721,,,2017_Jul_17_1639,824.877371213,FEMA4ImagesEEG,001,100989,
AFNE01.JPG,AFNE01.JPG,AFNE01.JPG,AFNE01.JPG,AFNE01.JPG,AFNE01.JPG,,,,,,,,,1,4,14,3,,,,,,,,,,,,,,,AFSA05.jpg,AFSA03.jpg,AFNE14.jpg,AFNE02.jpg,AFNE02.jpg,FN,3,num_4,32,num_8,0.283542920963,,,2017_Jul_17_1639,824.877371213,FEMA4ImagesEEG,001,100989,
AFNE01.JPG,AFNE01.JPG,AFNE01.JPG,AFNE01.JPG,AFNE01.JPG,AFNE01.JPG,,,,,,,,,1,5,15,7,,,,,,,,,,,,,,,AFNE07.jpg,AFSA10.jpg,AFNE01.jpg,AFSA09.jpg,AFSA09.jpg,FS,4,num_4,32,num_2,0.41680081622,,,2017_Jul_17_1639,824.877371213,FEMA4ImagesEEG,001,100989,
AFNE01.JPG,AFNE01.JPG,AFNE01.JPG,AFNE01.JPG,AFNE01.JPG,AFNE01.JPG,,,,,,,,,1,6,16,5,,,,,,,,,,,,,,,AFSA06.jpg,AFNE09.jpg,AFSA14.jpg,AFNE18.jpg,AFNE18.jpg,FN,3,num_4,16,num_4,0.566788195098,,,2017_Jul_17_1639,824.877371213,FEMA4ImagesEEG,001,100989,
AFNE01.JPG,AFNE01.JPG,AFNE01.JPG,AFNE01.JPG,AFNE01.JPG,AFNE01.JPG,,,,,,,,,1,7,17,8,,,,,,,,,,,,,,,AFNE15.jpg,AFSA16.jpg,AFSA10.jpg,AFNE02.jpg,AFNE15.jpg,FN,3,num_8,32,num_4,0.566794930637,,,2017_Jul_17_1639,824.877371213,FEMA4ImagesEEG,001,100989,
AFNE01.JPG,AFNE01.JPG,AFNE01.JPG,AFNE01.JPG,AFNE01.JPG,AFNE01.JPG,,,,,,,,,1,8,18,6,,,,,,,,,,,,,,,AFNE15.jpg,AFSA14.jpg,AFSA17.jpg,AFNE17.jpg,AFSA17.jpg,FS,4,num_2,32,num_6,0.733318066104,,,2017_Jul_17_1639,824.877371213,FEMA4ImagesEEG,001,100989,
AFNE01.JPG,AFNE01.JPG,AFNE01.JPG,AFNE01.JPG,AFNE01.JPG,AFNE01.JPG,,,,,,,,,1,9,19,0,,,,,,,,,,,,,,,AFNE01.jpg,AFNE20.jpg,AFSA05.jpg,AFSA04.jpg,AFNE01.jpg,FN,3,num_8,16,num_8,0.350162246388,,,2017_Jul_17_1639,824.877371213,FEMA4ImagesEEG,001,100989,
AFNE01.JPG,AFNE01.JPG,AFNE01.JPG,AFNE01.JPG,AFNE01.JPG,AFNE01.JPG,,,,,,,,,2,0,20,8,,,,,,,,,,,,,,,AFSA02.jpg,AFSA15.jpg,AFNE12.jpg,AFNE07.jpg,AFSA15.jpg,FS,4,num_6,32,num_2,0.350193678918,,,2017_Jul_17_1639,824.877371213,FEMA4ImagesEEG,001,100989,
AFNE01.JPG,AFNE01.JPG,AFNE01.JPG,AFNE01.JPG,AFNE01.JPG,AFNE01.JPG,,,,,,,,,2,1,21,9,,,,,,,,,,,,,,,AFNE09.jpg,AFNE14.jpg,AFSA14.jpg,AFSA12.jpg,AFNE14.jpg,FN,3,num_6,16,num_6,0.56684945646,,,2017_Jul_17_1639,824.877371213,FEMA4ImagesEEG,001,100989,
AFNE01.JPG,AFNE01.JPG,AFNE01.JPG,AFNE01.JPG,AFNE01.JPG,AFNE01.JPG,,,,,,,,,2,2,22,2,,,,,,,,,,,,,,,AFSA15.jpg,AFNE16.jpg,AFSA13.jpg,AFNE05.jpg,AFSA13.jpg,FS,4,num_2,16,num_2,0.600133299591,,,2017_Jul_17_1639,824.877371213,FEMA4ImagesEEG,001,100989,
AFNE01.JPG,AFNE01.JPG,AFNE01.JPG,AFNE01.JPG,AFNE01.JPG,AFNE01.JPG,,,,,,,,,2,3,23,0,,,,,,,,,,,,,,,AFSA01.jpg,AFSA17.jpg,AFNE13.jpg,AFNE07.jpg,AFNE13.jpg,FN,3,num_2,32,num_4,0.500031913642,,,2017_Jul_17_1639,824.877371213,FEMA4ImagesEEG,001,100989,
AFNE01.JPG,AFNE01.JPG,AFNE01.JPG,AFNE01.JPG,AFNE01.JPG,AFNE01.JPG,,,,,,,,,2,4,24,4,,,,,,,,,,,,,,,AFSA10.jpg,AFNE17.jpg,AFNE20.jpg,AFSA15.jpg,AFSA15.jpg,FS,4,num_4,32,num_6,0.48352245774,,,2017_Jul_17_1639,824.877371213,FEMA4ImagesEEG,001,100989,
AFNE01.JPG,AFNE01.JPG,AFNE01.JPG,AFNE01.JPG,AFNE01.JPG,AFNE01.JPG,,,,,,,,,2,5,25,3,,,,,,,,,,,,,,,AFSA11.jpg,AFSA04.jpg,AFNE20.jpg,AFNE10.jpg,AFSA11.jpg,FS,4,num_8,16,num_8,0.366793583529,,,2017_Jul_17_1639,824.877371213,FEMA4ImagesEEG,001,100989,
AFNE01.JPG,AFNE01.JPG,AFNE01.JPG,AFNE01.JPG,AFNE01.JPG,AFNE01.JPG,,,,,,,,,2,6,26,7,,,,,,,,,,,,,,,AFSA08.jpg,AFNE11.jpg,AFSA18.jpg,AFNE16.jpg,AFSA18.jpg,FS,4,num_2,16,num_2,0.316815217448,,,2017_Jul_17_1639,824.877371213,FEMA4ImagesEEG,001,100989,
AFNE01.JPG,AFNE01.JPG,AFNE01.JPG,AFNE01.JPG,AFNE01.JPG,AFNE01.JPG,,,,,,,,,2,7,27,6,,,,,,,,,,,,,,,AFNE20.jpg,AFNE03.jpg,AFSA13.jpg,AFSA17.jpg,AFSA17.jpg,FS,4,num_4,32,num_6,0.316844725541,,,2017_Jul_17_1639,824.877371213,FEMA4ImagesEEG,001,100989,
AFNE01.JPG,AFNE01.JPG,AFNE01.JPG,AFNE01.JPG,AFNE01.JPG,AFNE01.JPG,,,,,,,,,2,8,28,5,,,,,,,,,,,,,,,AFNE13.jpg,AFNE14.jpg,AFSA03.jpg,AFSA11.jpg,AFNE13.jpg,FN,3,num_8,32,num_4,0.566765422551,,,2017_Jul_17_1639,824.877371213,FEMA4ImagesEEG,001,100989,
AFNE01.JPG,AFNE01.JPG,AFNE01.JPG,AFNE01.JPG,AFNE01.JPG,AFNE01.JPG,,,,,,,,,2,9,29,1,,,,,,,,,,,,,,,AFSA10.jpg,AFNE01.jpg,AFSA14.jpg,AFNE05.jpg,AFSA10.jpg,FS,4,num_8,32,num_6,0.383468541328,,,2017_Jul_17_1639,824.877371213,FEMA4ImagesEEG,001,100989,
AFNE01.JPG,AFNE01.JPG,AFNE01.JPG,AFNE01.JPG,AFNE01.JPG,AFNE01.JPG,,,,,,,,,3,0,30,8,,,,,,,,,,,,,,,AFNE13.jpg,AFSA07.jpg,AFSA14.jpg,AFNE11.jpg,AFSA14.jpg,FS,4,num_2,32,num_8,0.500185868896,,,2017_Jul_17_1639,824.877371213,FEMA4ImagesEEG,001,100989,
AFNE01.JPG,AFNE01.JPG,AFNE01.JPG,AFNE01.JPG,AFNE01.JPG,AFNE01.JPG,,,,,,,,,3,1,31,2,,,,,,,,,,,,,,,AFSA11.jpg,AFSA06.jpg,AFNE16.jpg,AFNE11.jpg,AFNE16.jpg,FN,3,num_2,16,num_2,0.400176535361,,,2017_Jul_17_1639,824.877371213,FEMA4ImagesEEG,001,100989,
AFNE01.JPG,AFNE01.JPG,AFNE01.JPG,AFNE01.JPG,AFNE01.JPG,AFNE01.JPG,,,,,,,,,3,2,32,6,,,,,,,,,,,,,,,AFSA04.jpg,AFSA09.jpg,AFNE14.jpg,AFNE16.jpg,AFSA04.jpg,FS,4,num_8,16,num_8,0.416829041351,,,2017_Jul_17_1639,824.877371213,FEMA4ImagesEEG,001,100989,
AFNE01.JPG,AFNE01.JPG,AFNE01.JPG,AFNE01.JPG,AFNE01.JPG,AFNE01.JPG,,,,,,,,,3,3,33,3,,,,,,,,,,,,,,,AFNE08.jpg,AFSA17.jpg,AFSA15.jpg,AFNE18.jpg,AFNE18.jpg,FN,3,num_4,32,num_6,0.450189862109,,,2017_Jul_17_1639,824.877371213,FEMA4ImagesEEG,001,100989,
AFNE01.JPG,AFNE01.JPG,AFNE01.JPG,AFNE01.JPG,AFNE01.JPG,AFNE01.JPG,,,,,,,,,3,4,34,9,,,,,,,,,,,,,,,AFNE11.jpg,AFNE10.jpg,AFSA17.jpg,AFSA02.jpg,AFNE11.jpg,FN,3,num_8,32,num_4,0.700132369446,,,2017_Jul_17_1639,824.877371213,FEMA4ImagesEEG,001,100989,
AFNE01.JPG,AFNE01.JPG,AFNE01.JPG,AFNE01.JPG,AFNE01.JPG,AFNE01.JPG,,,,,,,,,3,5,35,4,,,,,,,,,,,,,,,AFSA08.jpg,AFNE20.jpg,AFNE03.jpg,AFSA17.jpg,AFSA17.jpg,FS,4,num_4,32,num_6,0.333526418883,,,2017_Jul_17_1639,824.877371213,FEMA4ImagesEEG,001,100989,
AFNE01.JPG,AFNE01.JPG,AFNE01.JPG,AFNE01.JPG,AFNE01.JPG,AFNE01.JPG,,,,,,,,,3,6,36,5,,,,,,,,,,,,,,,AFSA06.jpg,AFSA04.jpg,AFNE03.jpg,AFNE20.jpg,AFSA06.jpg,FS,4,num_8,32,num_4,0.75012131995,,,2017_Jul_17_1639,824.877371213,FEMA4ImagesEEG,001,100989,
AFNE01.JPG,AFNE01.JPG,AFNE01.JPG,AFNE01.JPG,AFNE01.JPG,AFNE01.JPG,,,,,,,,,3,7,37,1,,,,,,,,,,,,,,,AFNE07.jpg,AFSA08.jpg,AFSA04.jpg,AFNE13.jpg,AFSA04.jpg,FS,4,num_2,32,num_8,0.40015568725,,,2017_Jul_17_1639,824.877371213,FEMA4ImagesEEG,001,100989,
AFNE01.JPG,AFNE01.JPG,AFNE01.JPG,AFNE01.JPG,AFNE01.JPG,AFNE01.JPG,,,,,,,,,3,8,38,7,,,,,,,,,,,,,,,AFSA12.jpg,AFNE12.jpg,AFNE17.jpg,AFSA03.jpg,AFSA03.jpg,FS,4,num_4,32,num_6,0.733321273503,,,2017_Jul_17_1639,824.877371213,FEMA4ImagesEEG,001,100989,
AFNE01.JPG,AFNE01.JPG,AFNE01.JPG,AFNE01.JPG,AFNE01.JPG,AFNE01.JPG,,,,,,,,,3,9,39,0,,,,,,,,,,,,,,,AFNE17.jpg,AFSA19.jpg,AFSA18.jpg,AFNE18.jpg,AFNE18.jpg,FN,3,num_4,32,num_8,0.333524173704,,,2017_Jul_17_1639,824.877371213,FEMA4ImagesEEG,001,100989,
AFNE01.JPG,AFNE01.JPG,AFNE01.JPG,AFNE01.JPG,AFNE01.JPG,AFNE01.JPG,,,,,,,,,4,0,40,3,,,,,,,,,,,,,,,AFNE11.jpg,AFSA20.jpg,AFNE16.jpg,AFSA07.jpg,AFSA20.jpg,FS,4,num_6,32,num_2,0.800145231125,,,2017_Jul_17_1639,824.877371213,FEMA4ImagesEEG,001,100989,
AFNE01.JPG,AFNE01.JPG,AFNE01.JPG,AFNE01.JPG,AFNE01.JPG,AFNE01.JPG,,,,,,,,,4,1,41,7,,,,,,,,,,,,,,,AFSA11.jpg,AFNE15.jpg,AFSA19.jpg,AFNE10.jpg,AFNE15.jpg,FN,3,num_6,16,num_6,0.500167265971,,,2017_Jul_17_1639,824.877371213,FEMA4ImagesEEG,001,100989,
AFNE01.JPG,AFNE01.JPG,AFNE01.JPG,AFNE01.JPG,AFNE01.JPG,AFNE01.JPG,,,,,,,,,4,2,42,5,,,,,,,,,,,,,,,AFSA16.jpg,AFSA06.jpg,AFNE11.jpg,AFNE14.jpg,AFSA16.jpg,FS,4,num_8,16,num_8,0.750152110999,,,2017_Jul_17_1639,824.877371213,FEMA4ImagesEEG,001,100989,
AFNE01.JPG,AFNE01.JPG,AFNE01.JPG,AFNE01.JPG,AFNE01.JPG,AFNE01.JPG,,,,,,,,,4,3,43,0,,,,,,,,,,,,,,,AFSA05.jpg,AFNE17.jpg,AFSA14.jpg,AFNE11.jpg,AFNE17.jpg,FN,3,num_6,32,num_4,0.333508457436,,,2017_Jul_17_1639,824.877371213,FEMA4ImagesEEG,001,100989,
AFNE01.JPG,AFNE01.JPG,AFNE01.JPG,AFNE01.JPG,AFNE01.JPG,AFNE01.JPG,,,,,,,,,4,4,44,9,,,,,,,,,,,,,,,AFSA17.jpg,AFNE07.jpg,AFSA18.jpg,AFNE14.jpg,AFSA18.jpg,FS,4,num_2,16,num_2,0.466786559322,,,2017_Jul_17_1639,824.877371213,FEMA4ImagesEEG,001,100989,
AFNE01.JPG,AFNE01.JPG,AFNE01.JPG,AFNE01.JPG,AFNE01.JPG,AFNE01.JPG,,,,,,,,,4,5,45,4,,,,,,,,,,,,,,,AFSA05.jpg,AFSA16.jpg,AFNE04.jpg,AFNE07.jpg,AFNE07.jpg,FN,3,num_4,32,num_8,0.6501447019,,,2017_Jul_17_1639,824.877371213,FEMA4ImagesEEG,001,100989,
AFNE01.JPG,AFNE01.JPG,AFNE01.JPG,AFNE01.JPG,AFNE01.JPG,AFNE01.JPG,,,,,,,,,4,6,46,6,,,,,,,,,,,,,,,AFSA08.jpg,AFNE17.jpg,AFSA12.jpg,AFNE10.jpg,AFNE17.jpg,FN,3,num_6,16,num_6,0.500187151858,,,2017_Jul_17_1639,824.877371213,FEMA4ImagesEEG,001,100989,
AFNE01.JPG,AFNE01.JPG,AFNE01.JPG,AFNE01.JPG,AFNE01.JPG,AFNE01.JPG,,,,,,,,,4,7,47,1,,,,,,,,,,,,,,,AFNE09.jpg,AFSA12.jpg,AFNE14.jpg,AFSA14.jpg,AFNE09.jpg,FN,3,num_8,16,num_8,0.383525953806,,,2017_Jul_17_1639,824.877371213,FEMA4ImagesEEG,001,100989,
AFNE01.JPG,AFNE01.JPG,AFNE01.JPG,AFNE01.JPG,AFNE01.JPG,AFNE01.JPG,,,,,,,,,4,8,48,8,,,,,,,,,,,,,,,AFNE13.jpg,AFSA09.jpg,AFSA03.jpg,AFNE10.jpg,AFNE13.jpg,FN,3,num_8,32,num_6,0.916815409895,,,2017_Jul_17_1639,824.877371213,FEMA4ImagesEEG,001,100989,
AFNE01.JPG,AFNE01.JPG,AFNE01.JPG,AFNE01.JPG,AFNE01.JPG,AFNE01.JPG,,,,,,,,,4,9,49,2,,,,,,,,,,,,,,,AFNE01.jpg,AFSA11.jpg,AFNE03.jpg,AFSA13.jpg,AFNE03.jpg,FN,3,num_2,32,num_8,0.433497263606,,,2017_Jul_17_1639,824.877371213,FEMA4ImagesEEG,001,100989,
AFNE01.JPG,AFNE01.JPG,AFNE01.JPG,AFNE01.JPG,AFNE01.JPG,AFNE01.JPG,,,,,,,,,5,0,50,2,,,,,,,,,,,,,,,AFSA10.jpg,AFNE01.jpg,AFNE13.jpg,AFSA06.jpg,AFSA06.jpg,FS,4,num_4,16,num_4,0.850150860111,,,2017_Jul_17_1639,824.877371213,FEMA4ImagesEEG,001,100989,
AFNE01.JPG,AFNE01.JPG,AFNE01.JPG,AFNE01.JPG,AFNE01.JPG,AFNE01.JPG,,,,,,,,,5,1,51,9,,,,,,,,,,,,,,,AFSA02.jpg,AFNE19.jpg,AFSA15.jpg,AFNE11.jpg,AFNE19.jpg,FN,3,num_6,32,num_2,0.466839160701,,,2017_Jul_17_1639,824.877371213,FEMA4ImagesEEG,001,100989,
AFNE01.JPG,AFNE01.JPG,AFNE01.JPG,AFNE01.JPG,AFNE01.JPG,AFNE01.JPG,,,,,,,,,5,2,52,3,,,,,,,,,,,,,,,AFSA19.jpg,AFNE06.jpg,AFNE02.jpg,AFSA09.jpg,AFNE06.jpg,FN,3,num_6,32,num_8,0.300140259649,,,2017_Jul_17_1639,824.877371213,FEMA4ImagesEEG,001,100989,
AFNE01.JPG,AFNE01.JPG,AFNE01.JPG,AFNE01.JPG,AFNE01.JPG,AFNE01.JPG,,,,,,,,,5,3,53,7,,,,,,,,,,,,,,,AFSA08.jpg,AFNE14.jpg,AFSA05.jpg,AFNE20.jpg,AFNE14.jpg,FN,3,num_6,32,num_2,0.350178924873,,,2017_Jul_17_1639,824.877371213,FEMA4ImagesEEG,001,100989,
AFNE01.JPG,AFNE01.JPG,AFNE01.JPG,AFNE01.JPG,AFNE01.JPG,AFNE01.JPG,,,,,,,,,5,4,54,6,,,,,,,,,,,,,,,AFNE06.jpg,AFNE02.jpg,AFSA05.jpg,AFSA03.jpg,AFSA05.jpg,FS,4,num_2,32,num_6,0.250200382387,,,2017_Jul_17_1639,824.877371213,FEMA4ImagesEEG,001,100989,
AFNE01.JPG,AFNE01.JPG,AFNE01.JPG,AFNE01.JPG,AFNE01.JPG,AFNE01.JPG,,,,,,,,,5,5,55,5,,,,,,,,,,,,,,,AFNE05.jpg,AFSA03.jpg,AFNE03.jpg,AFSA14.jpg,AFNE05.jpg,FN,3,num_8,16,num_8,0.333500118195,,,2017_Jul_17_1639,824.877371213,FEMA4ImagesEEG,001,100989,
AFNE01.JPG,AFNE01.JPG,AFNE01.JPG,AFNE01.JPG,AFNE01.JPG,AFNE01.JPG,,,,,,,,,5,6,56,4,,,,,,,,,,,,,,,AFNE06.jpg,AFNE02.jpg,AFSA08.jpg,AFSA12.jpg,AFNE06.jpg,FN,3,num_8,32,num_2,0.433461661454,,,2017_Jul_17_1639,824.877371213,FEMA4ImagesEEG,001,100989,
AFNE01.JPG,AFNE01.JPG,AFNE01.JPG,AFNE01.JPG,AFNE01.JPG,AFNE01.JPG,,,,,,,,,5,7,57,1,,,,,,,,,,,,,,,AFSA03.jpg,AFNE07.jpg,AFNE15.jpg,AFSA15.jpg,AFNE07.jpg,FN,3,num_6,32,num_4,0.683506164147,,,2017_Jul_17_1639,824.877371213,FEMA4ImagesEEG,001,100989,
AFNE01.JPG,AFNE01.JPG,AFNE01.JPG,AFNE01.JPG,AFNE01.JPG,AFNE01.JPG,,,,,,,,,5,8,58,8,,,,,,,,,,,,,,,AFSA15.jpg,AFSA20.jpg,AFNE19.jpg,AFNE01.jpg,AFSA20.jpg,FS,4,num_6,16,num_6,0.566674973834,,,2017_Jul_17_1639,824.877371213,FEMA4ImagesEEG,001,100989,
AFNE01.JPG,AFNE01.JPG,AFNE01.JPG,AFNE01.JPG,AFNE01.JPG,AFNE01.JPG,,,,,,,,,5,9,59,0,,,,,,,,,,,,,,,AFSA04.jpg,AFSA18.jpg,AFNE04.jpg,AFNE14.jpg,AFSA04.jpg,FS,4,num_8,16,num_8,0.450207182079,,,2017_Jul_17_1639,824.877371213,FEMA4ImagesEEG,001,100989,
,,,,,,,,,,,,,,,,,,,,,,,,,,,,,,,,,,,,,,,,,,,space,10.7328982173,2017_Jul_17_1639,824.877371213,FEMA4ImagesEEG,001,100989,
AFNE01.JPG,AFNE01.JPG,AFNE01.JPG,AFNE01.JPG,AFNE01.JPG,AFNE01.JPG,,,,,,,,,,,,,0,0,0,2,,,,,,,,,,,AMNE20.jpg,AMNE14.jpg,AMSA02.jpg,AMSA01.jpg,AMNE14.jpg,MN,1,num_6,32,num_4,0.45012795927,,,2017_Jul_17_1639,824.877371213,FEMA4ImagesEEG,001,100989,
AFNE01.JPG,AFNE01.JPG,AFNE01.JPG,AFNE01.JPG,AFNE01.JPG,AFNE01.JPG,,,,,,,,,,,,,0,1,1,6,,,,,,,,,,,AMSA14.jpg,AMSA15.jpg,AMNE12.jpg,AMNE06.jpg,AMNE06.jpg,MN,1,num_4,32,num_6,0.533467466848,,,2017_Jul_17_1639,824.877371213,FEMA4ImagesEEG,001,100989,
AFNE01.JPG,AFNE01.JPG,AFNE01.JPG,AFNE01.JPG,AFNE01.JPG,AFNE01.JPG,,,,,,,,,,,,,0,2,2,4,,,,,,,,,,,AMNE18.jpg,AMSA04.jpg,AMNE14.jpg,AMSA14.jpg,AMSA14.jpg,MS,2,num_4,32,num_8,0.333517117419,,,2017_Jul_17_1639,824.877371213,FEMA4ImagesEEG,001,100989,
AFNE01.JPG,AFNE01.JPG,AFNE01.JPG,AFNE01.JPG,AFNE01.JPG,AFNE01.JPG,,,,,,,,,,,,,0,3,3,8,,,,,,,,,,,AMNE20.jpg,AMNE03.jpg,AMSA08.jpg,AMSA05.jpg,AMNE20.jpg,MN,1,num_8,32,num_2,0.366784923546,,,2017_Jul_17_1639,824.877371213,FEMA4ImagesEEG,001,100989,
AFNE01.JPG,AFNE01.JPG,AFNE01.JPG,AFNE01.JPG,AFNE01.JPG,AFNE01.JPG,,,,,,,,,,,,,0,4,4,1,,,,,,,,,,,AMSA06.jpg,AMNE13.jpg,AMSA13.jpg,AMNE09.jpg,AMSA13.jpg,MS,2,num_2,32,num_8,0.483527268843,,,2017_Jul_17_1639,824.877371213,FEMA4ImagesEEG,001,100989,
AFNE01.JPG,AFNE01.JPG,AFNE01.JPG,AFNE01.JPG,AFNE01.JPG,AFNE01.JPG,,,,,,,,,,,,,0,5,5,5,,,,,,,,,,,AMSA04.jpg,AMNE06.jpg,AMSA18.jpg,AMNE14.jpg,AMSA04.jpg,MS,2,num_8,32,num_4,0.366824374578,,,2017_Jul_17_1639,824.877371213,FEMA4ImagesEEG,001,100989,
AFNE01.JPG,AFNE01.JPG,AFNE01.JPG,AFNE01.JPG,AFNE01.JPG,AFNE01.JPG,,,,,,,,,,,,,0,6,6,3,,,,,,,,,,,AMNE08.jpg,AMSA09.jpg,AMSA04.jpg,AMNE18.jpg,AMNE18.jpg,MN,1,num_4,32,num_6,0.66678983087,,,2017_Jul_17_1639,824.877371213,FEMA4ImagesEEG,001,100989,
AFNE01.JPG,AFNE01.JPG,AFNE01.JPG,AFNE01.JPG,AFNE01.JPG,AFNE01.JPG,,,,,,,,,,,,,0,7,7,0,,,,,,,,,,,AMNE02.jpg,AMSA06.jpg,AMNE01.jpg,AMSA04.jpg,AMSA04.jpg,MS,2,num_4,32,num_2,0.300156938138,,,2017_Jul_17_1639,824.877371213,FEMA4ImagesEEG,001,100989,
AFNE01.JPG,AFNE01.JPG,AFNE01.JPG,AFNE01.JPG,AFNE01.JPG,AFNE01.JPG,,,,,,,,,,,,,0,8,8,9,,,,,,,,,,,AMNE18.jpg,AMSA10.jpg,AMSA19.jpg,AMNE13.jpg,AMNE13.jpg,MN,1,num_4,32,num_8,1.11674394899,,,2017_Jul_17_1639,824.877371213,FEMA4ImagesEEG,001,100989,
AFNE01.JPG,AFNE01.JPG,AFNE01.JPG,AFNE01.JPG,AFNE01.JPG,AFNE01.JPG,,,,,,,,,,,,,0,9,9,7,,,,,,,,,,,AMSA14.jpg,AMSA12.jpg,AMNE15.jpg,AMNE03.jpg,AMSA14.jpg,MS,2,num_8,32,num_6,1.75034680025,,,2017_Jul_17_1639,824.877371213,FEMA4ImagesEEG,001,100989,
AFNE01.JPG,AFNE01.JPG,AFNE01.JPG,AFNE01.JPG,AFNE01.JPG,AFNE01.JPG,,,,,,,,,,,,,1,0,10,4,,,,,,,,,,,AMNE05.jpg,AMSA15.jpg,AMSA03.jpg,AMNE07.jpg,AMNE05.jpg,MN,1,num_8,32,num_6,0.933288942902,,,2017_Jul_17_1639,824.877371213,FEMA4ImagesEEG,001,100989,
AFNE01.JPG,AFNE01.JPG,AFNE01.JPG,AFNE01.JPG,AFNE01.JPG,AFNE01.JPG,,,,,,,,,,,,,1,1,11,1,,,,,,,,,,,AMSA14.jpg,AMNE20.jpg,AMNE07.jpg,AMSA20.jpg,AMSA20.jpg,MS,2,num_4,16,num_4,0.666631064516,,,2017_Jul_17_1639,824.877371213,FEMA4ImagesEEG,001,100989,
AFNE01.JPG,AFNE01.JPG,AFNE01.JPG,AFNE01.JPG,AFNE01.JPG,AFNE01.JPG,,,,,,,,,,,,,1,2,12,6,,,,,,,,,,,AMNE05.jpg,AMSA17.jpg,AMSA09.jpg,AMNE16.jpg,AMSA17.jpg,MS,2,num_6,32,num_2,0.383538141934,,,2017_Jul_17_1639,824.877371213,FEMA4ImagesEEG,001,100989,
AFNE01.JPG,AFNE01.JPG,AFNE01.JPG,AFNE01.JPG,AFNE01.JPG,AFNE01.JPG,,,,,,,,,,,,,1,3,13,5,,,,,,,,,,,AMSA04.jpg,AMNE20.jpg,AMNE11.jpg,AMSA11.jpg,AMNE11.jpg,MN,1,num_2,32,num_8,0.716777498412,,,2017_Jul_17_1639,824.877371213,FEMA4ImagesEEG,001,100989,
AFNE01.JPG,AFNE01.JPG,AFNE01.JPG,AFNE01.JPG,AFNE01.JPG,AFNE01.JPG,,,,,,,,,,,,,1,4,14,3,,,,,,,,,,,AMNE09.jpg,AMNE06.jpg,AMSA16.jpg,AMSA07.jpg,AMNE06.jpg,MN,1,num_6,32,num_4,1.15011856159,,,2017_Jul_17_1639,824.877371213,FEMA4ImagesEEG,001,100989,
AFNE01.JPG,AFNE01.JPG,AFNE01.JPG,AFNE01.JPG,AFNE01.JPG,AFNE01.JPG,,,,,,,,,,,,,1,5,15,7,,,,,,,,,,,AMSA20.jpg,AMSA11.jpg,AMNE08.jpg,AMNE05.jpg,AMSA20.jpg,MS,2,num_8,32,num_6,1.01671216365,,,2017_Jul_17_1639,824.877371213,FEMA4ImagesEEG,001,100989,
AFNE01.JPG,AFNE01.JPG,AFNE01.JPG,AFNE01.JPG,AFNE01.JPG,AFNE01.JPG,,,,,,,,,,,,,1,6,16,8,,,,,,,,,,,AMSA20.jpg,AMSA11.jpg,AMNE06.jpg,AMNE18.jpg,AMNE06.jpg,MN,1,num_2,32,num_8,0.583522489815,,,2017_Jul_17_1639,824.877371213,FEMA4ImagesEEG,001,100989,
AFNE01.JPG,AFNE01.JPG,AFNE01.JPG,AFNE01.JPG,AFNE01.JPG,AFNE01.JPG,,,,,,,,,,,,,1,7,17,2,,,,,,,,,,,AMSA10.jpg,AMNE17.jpg,AMNE11.jpg,AMSA03.jpg,AMSA03.jpg,MS,2,num_4,16,num_4,0.450137581473,,,2017_Jul_17_1639,824.877371213,FEMA4ImagesEEG,001,100989,
AFNE01.JPG,AFNE01.JPG,AFNE01.JPG,AFNE01.JPG,AFNE01.JPG,AFNE01.JPG,,,,,,,,,,,,,1,8,18,0,,,,,,,,,,,AMSA14.jpg,AMNE09.jpg,AMSA16.jpg,AMNE16.jpg,AMSA16.jpg,MS,2,num_2,32,num_6,0.616794144826,,,2017_Jul_17_1639,824.877371213,FEMA4ImagesEEG,001,100989,
AFNE01.JPG,AFNE01.JPG,AFNE01.JPG,AFNE01.JPG,AFNE01.JPG,AFNE01.JPG,,,,,,,,,,,,,1,9,19,9,,,,,,,,,,,AMNE16.jpg,AMSA07.jpg,AMSA16.jpg,AMNE18.jpg,AMSA07.jpg,MS,2,num_6,16,num_6,0.550138575767,,,2017_Jul_17_1639,824.877371213,FEMA4ImagesEEG,001,100989,
AFNE01.JPG,AFNE01.JPG,AFNE01.JPG,AFNE01.JPG,AFNE01.JPG,AFNE01.JPG,,,,,,,,,,,,,2,0,20,4,,,,,,,,,,,AMNE01.jpg,AMSA11.jpg,AMSA08.jpg,AMNE16.jpg,AMNE01.jpg,MN,1,num_8,16,num_8,0.73349928427,,,2017_Jul_17_1639,824.877371213,FEMA4ImagesEEG,001,100989,
AFNE01.JPG,AFNE01.JPG,AFNE01.JPG,AFNE01.JPG,AFNE01.JPG,AFNE01.JPG,,,,,,,,,,,,,2,1,21,2,,,,,,,,,,,AMNE19.jpg,AMSA11.jpg,AMSA01.jpg,AMNE03.jpg,AMSA01.jpg,MS,2,num_2,32,num_4,0.716779102113,,,2017_Jul_17_1639,824.877371213,FEMA4ImagesEEG,001,100989,
AFNE01.JPG,AFNE01.JPG,AFNE01.JPG,AFNE01.JPG,AFNE01.JPG,AFNE01.JPG,,,,,,,,,,,,,2,2,22,3,,,,,,,,,,,AMSA04.jpg,AMNE02.jpg,AMNE12.jpg,AMSA10.jpg,AMSA10.jpg,MS,2,num_4,32,num_6,0.350249808438,,,2017_Jul_17_1639,824.877371213,FEMA4ImagesEEG,001,100989,
AFNE01.JPG,AFNE01.JPG,AFNE01.JPG,AFNE01.JPG,AFNE01.JPG,AFNE01.JPG,,,,,,,,,,,,,2,3,23,5,,,,,,,,,,,AMSA03.jpg,AMSA11.jpg,AMNE04.jpg,AMNE10.jpg,AMSA03.jpg,MS,2,num_8,16,num_8,0.333494665614,,,2017_Jul_17_1639,824.877371213,FEMA4ImagesEEG,001,100989,
AFNE01.JPG,AFNE01.JPG,AFNE01.JPG,AFNE01.JPG,AFNE01.JPG,AFNE01.JPG,,,,,,,,,,,,,2,4,24,1,,,,,,,,,,,AMSA16.jpg,AMSA11.jpg,AMNE15.jpg,AMNE03.jpg,AMSA16.jpg,MS,2,num_8,32,num_2,0.316842801101,,,2017_Jul_17_1639,824.877371213,FEMA4ImagesEEG,001,100989,
AFNE01.JPG,AFNE01.JPG,AFNE01.JPG,AFNE01.JPG,AFNE01.JPG,AFNE01.JPG,,,,,,,,,,,,,2,5,25,6,,,,,,,,,,,AMNE01.jpg,AMNE20.jpg,AMSA17.jpg,AMSA16.jpg,AMSA16.jpg,MS,2,num_4,32,num_6,0.41680081622,,,2017_Jul_17_1639,824.877371213,FEMA4ImagesEEG,001,100989,
AFNE01.JPG,AFNE01.JPG,AFNE01.JPG,AFNE01.JPG,AFNE01.JPG,AFNE01.JPG,,,,,,,,,,,,,2,6,26,7,,,,,,,,,,,AMNE13.jpg,AMSA12.jpg,AMNE07.jpg,AMSA17.jpg,AMSA12.jpg,MS,2,num_6,32,num_8,0.366806092392,,,2017_Jul_17_1639,824.877371213,FEMA4ImagesEEG,001,100989,
AFNE01.JPG,AFNE01.JPG,AFNE01.JPG,AFNE01.JPG,AFNE01.JPG,AFNE01.JPG,,,,,,,,,,,,,2,7,27,0,,,,,,,,,,,AMNE19.jpg,AMSA10.jpg,AMNE16.jpg,AMSA01.jpg,AMNE16.jpg,MN,1,num_2,32,num_4,0.350152303443,,,2017_Jul_17_1639,824.877371213,FEMA4ImagesEEG,001,100989,
AFNE01.JPG,AFNE01.JPG,AFNE01.JPG,AFNE01.JPG,AFNE01.JPG,AFNE01.JPG,,,,,,,,,,,,,2,8,28,8,,,,,,,,,,,AMSA05.jpg,AMNE13.jpg,AMNE15.jpg,AMSA09.jpg,AMSA09.jpg,MS,2,num_4,32,num_6,0.750154035442,,,2017_Jul_17_1639,824.877371213,FEMA4ImagesEEG,001,100989,
AFNE01.JPG,AFNE01.JPG,AFNE01.JPG,AFNE01.JPG,AFNE01.JPG,AFNE01.JPG,,,,,,,,,,,,,2,9,29,9,,,,,,,,,,,AMNE13.jpg,AMNE01.jpg,AMSA20.jpg,AMSA18.jpg,AMNE13.jpg,MN,1,num_8,16,num_8,0.416808513983,,,2017_Jul_17_1639,824.877371213,FEMA4ImagesEEG,001,100989,
AFNE01.JPG,AFNE01.JPG,AFNE01.JPG,AFNE01.JPG,AFNE01.JPG,AFNE01.JPG,,,,,,,,,,,,,3,0,30,4,,,,,,,,,,,AMNE04.jpg,AMSA04.jpg,AMNE09.jpg,AMSA14.jpg,AMNE04.jpg,MN,1,num_8,32,num_6,0.61677490042,,,2017_Jul_17_1639,824.877371213,FEMA4ImagesEEG,001,100989,
AFNE01.JPG,AFNE01.JPG,AFNE01.JPG,AFNE01.JPG,AFNE01.JPG,AFNE01.JPG,,,,,,,,,,,,,3,1,31,8,,,,,,,,,,,AMNE01.jpg,AMSA12.jpg,AMSA16.jpg,AMNE13.jpg,AMSA12.jpg,MS,2,num_6,32,num_8,0.550147556489,,,2017_Jul_17_1639,824.877371213,FEMA4ImagesEEG,001,100989,
AFNE01.JPG,AFNE01.JPG,AFNE01.JPG,AFNE01.JPG,AFNE01.JPG,AFNE01.JPG,,,,,,,,,,,,,3,2,32,7,,,,,,,,,,,AMNE18.jpg,AMSA11.jpg,AMSA20.jpg,AMNE15.jpg,AMNE18.jpg,MN,1,num_8,32,num_2,0.383533651569,,,2017_Jul_17_1639,824.877371213,FEMA4ImagesEEG,001,100989,
AFNE01.JPG,AFNE01.JPG,AFNE01.JPG,AFNE01.JPG,AFNE01.JPG,AFNE01.JPG,,,,,,,,,,,,,3,3,33,6,,,,,,,,,,,AMSA15.jpg,AMNE12.jpg,AMNE20.jpg,AMSA08.jpg,AMNE20.jpg,MN,1,num_2,32,num_4,0.400108859198,,,2017_Jul_17_1639,824.877371213,FEMA4ImagesEEG,001,100989,
AFNE01.JPG,AFNE01.JPG,AFNE01.JPG,AFNE01.JPG,AFNE01.JPG,AFNE01.JPG,,,,,,,,,,,,,3,4,34,1,,,,,,,,,,,AMNE07.jpg,AMNE18.jpg,AMSA18.jpg,AMSA20.jpg,AMNE07.jpg,MN,1,num_8,32,num_6,0.466753523091,,,2017_Jul_17_1639,824.877371213,FEMA4ImagesEEG,001,100989,
AFNE01.JPG,AFNE01.JPG,AFNE01.JPG,AFNE01.JPG,AFNE01.JPG,AFNE01.JPG,,,,,,,,,,,,,3,5,35,3,,,,,,,,,,,AMNE01.jpg,AMSA03.jpg,AMNE19.jpg,AMSA17.jpg,AMSA03.jpg,MS,2,num_6,32,num_8,0.549991997537,,,2017_Jul_17_1639,824.877371213,FEMA4ImagesEEG,001,100989,
AFNE01.JPG,AFNE01.JPG,AFNE01.JPG,AFNE01.JPG,AFNE01.JPG,AFNE01.JPG,,,,,,,,,,,,,3,6,36,2,,,,,,,,,,,AMSA04.jpg,AMNE17.jpg,AMSA03.jpg,AMNE04.jpg,AMSA03.jpg,MS,2,num_2,32,num_6,0.966820718142,,,2017_Jul_17_1639,824.877371213,FEMA4ImagesEEG,001,100989,
AFNE01.JPG,AFNE01.JPG,AFNE01.JPG,AFNE01.JPG,AFNE01.JPG,AFNE01.JPG,,,,,,,,,,,,,3,7,37,5,,,,,,,,,,,AMNE16.jpg,AMSA09.jpg,AMNE19.jpg,AMSA20.jpg,AMNE19.jpg,MN,1,num_2,32,num_6,0.566796855081,,,2017_Jul_17_1639,824.877371213,FEMA4ImagesEEG,001,100989,
AFNE01.JPG,AFNE01.JPG,AFNE01.JPG,AFNE01.JPG,AFNE01.JPG,AFNE01.JPG,,,,,,,,,,,,,3,8,38,0,,,,,,,,,,,AMNE10.jpg,AMNE13.jpg,AMSA10.jpg,AMSA06.jpg,AMSA10.jpg,MS,2,num_2,16,num_2,0.750159167281,,,2017_Jul_17_1639,824.877371213,FEMA4ImagesEEG,001,100989,
AFNE01.JPG,AFNE01.JPG,AFNE01.JPG,AFNE01.JPG,AFNE01.JPG,AFNE01.JPG,,,,,,,,,,,,,3,9,39,9,,,,,,,,,,,AMSA20.jpg,AMNE20.jpg,AMSA12.jpg,AMNE11.jpg,AMSA12.jpg,MS,2,num_2,32,num_4,0.650151116704,,,2017_Jul_17_1639,824.877371213,FEMA4ImagesEEG,001,100989,
AFNE01.JPG,AFNE01.JPG,AFNE01.JPG,AFNE01.JPG,AFNE01.JPG,AFNE01.JPG,,,,,,,,,,,,,4,0,40,8,,,,,,,,,,,AMNE11.jpg,AMSA09.jpg,AMSA18.jpg,AMNE20.jpg,AMSA18.jpg,MS,2,num_2,32,num_6,0.800137533362,,,2017_Jul_17_1639,824.877371213,FEMA4ImagesEEG,001,100989,
AFNE01.JPG,AFNE01.JPG,AFNE01.JPG,AFNE01.JPG,AFNE01.JPG,AFNE01.JPG,,,,,,,,,,,,,4,1,41,4,,,,,,,,,,,AMSA07.jpg,AMNE04.jpg,AMSA12.jpg,AMNE02.jpg,AMNE02.jpg,MN,1,num_4,32,num_8,0.333468685662,,,2017_Jul_17_1639,824.877371213,FEMA4ImagesEEG,001,100989,
AFNE01.JPG,AFNE01.JPG,AFNE01.JPG,AFNE01.JPG,AFNE01.JPG,AFNE01.JPG,,,,,,,,,,,,,4,2,42,0,,,,,,,,,,,AMNE09.jpg,AMSA03.jpg,AMNE07.jpg,AMSA19.jpg,AMNE07.jpg,MN,1,num_2,32,num_4,0.566800383222,,,2017_Jul_17_1639,824.877371213,FEMA4ImagesEEG,001,100989,
AFNE01.JPG,AFNE01.JPG,AFNE01.JPG,AFNE01.JPG,AFNE01.JPG,AFNE01.JPG,,,,,,,,,,,,,4,3,43,2,,,,,,,,,,,AMNE06.jpg,AMSA07.jpg,AMSA03.jpg,AMNE17.jpg,AMNE17.jpg,MN,1,num_4,32,num_6,0.383556103381,,,2017_Jul_17_1639,824.877371213,FEMA4ImagesEEG,001,100989,
AFNE01.JPG,AFNE01.JPG,AFNE01.JPG,AFNE01.JPG,AFNE01.JPG,AFNE01.JPG,,,,,,,,,,,,,4,4,44,6,,,,,,,,,,,AMSA04.jpg,AMNE16.jpg,AMNE15.jpg,AMSA02.jpg,AMNE16.jpg,MN,1,num_6,32,num_8,0.733461757674,,,2017_Jul_17_1639,824.877371213,FEMA4ImagesEEG,001,100989,
AFNE01.JPG,AFNE01.JPG,AFNE01.JPG,AFNE01.JPG,AFNE01.JPG,AFNE01.JPG,,,,,,,,,,,,,4,5,45,5,,,,,,,,,,,AMNE18.jpg,AMSA03.jpg,AMNE06.jpg,AMSA16.jpg,AMSA16.jpg,MS,2,num_4,32,num_2,0.716790007275,,,2017_Jul_17_1639,824.877371213,FEMA4ImagesEEG,001,100989,
AFNE01.JPG,AFNE01.JPG,AFNE01.JPG,AFNE01.JPG,AFNE01.JPG,AFNE01.JPG,,,,,,,,,,,,,4,6,46,3,,,,,,,,,,,AMNE10.jpg,AMSA05.jpg,AMSA13.jpg,AMNE05.jpg,AMNE05.jpg,MN,1,num_4,16,num_4,0.650406105095,,,2017_Jul_17_1639,824.877371213,FEMA4ImagesEEG,001,100989,
AFNE01.JPG,AFNE01.JPG,AFNE01.JPG,AFNE01.JPG,AFNE01.JPG,AFNE01.JPG,,,,,,,,,,,,,4,7,47,9,,,,,,,,,,,AMNE05.jpg,AMSA18.jpg,AMNE06.jpg,AMSA07.jpg,AMNE06.jpg,MN,1,num_2,32,num_6,0.616792861863,,,2017_Jul_17_1639,824.877371213,FEMA4ImagesEEG,001,100989,
AFNE01.JPG,AFNE01.JPG,AFNE01.JPG,AFNE01.JPG,AFNE01.JPG,AFNE01.JPG,,,,,,,,,,,,,4,8,48,7,,,,,,,,,,,AMSA16.jpg,AMSA03.jpg,AMNE08.jpg,AMNE14.jpg,AMSA16.jpg,MS,2,num_8,16,num_8,0.366859014513,,,2017_Jul_17_1639,824.877371213,FEMA4ImagesEEG,001,100989,
AFNE01.JPG,AFNE01.JPG,AFNE01.JPG,AFNE01.JPG,AFNE01.JPG,AFNE01.JPG,,,,,,,,,,,,,4,9,49,1,,,,,,,,,,,AMSA18.jpg,AMNE18.jpg,AMSA04.jpg,AMNE13.jpg,AMSA04.jpg,MS,2,num_2,32,num_4,0.783467707406,,,2017_Jul_17_1639,824.877371213,FEMA4ImagesEEG,001,100989,
AFNE01.JPG,AFNE01.JPG,AFNE01.JPG,AFNE01.JPG,AFNE01.JPG,AFNE01.JPG,,,,,,,,,,,,,5,0,50,8,,,,,,,,,,,AMNE19.jpg,AMSA13.jpg,AMNE08.jpg,AMSA06.jpg,AMSA13.jpg,MS,2,num_6,16,num_6,0.383507030143,,,2017_Jul_17_1639,824.877371213,FEMA4ImagesEEG,001,100989,
AFNE01.JPG,AFNE01.JPG,AFNE01.JPG,AFNE01.JPG,AFNE01.JPG,AFNE01.JPG,,,,,,,,,,,,,5,1,51,4,,,,,,,,,,,AMNE07.jpg,AMSA19.jpg,AMSA12.jpg,AMNE02.jpg,AMSA12.jpg,MS,2,num_2,16,num_2,0.450253047915,,,2017_Jul_17_1639,824.877371213,FEMA4ImagesEEG,001,100989,
AFNE01.JPG,AFNE01.JPG,AFNE01.JPG,AFNE01.JPG,AFNE01.JPG,AFNE01.JPG,,,,,,,,,,,,,5,2,52,6,,,,,,,,,,,AMSA12.jpg,AMNE04.jpg,AMSA17.jpg,AMNE02.jpg,AMSA17.jpg,MS,2,num_2,32,num_4,0.616937515653,,,2017_Jul_17_1639,824.877371213,FEMA4ImagesEEG,001,100989,
AFNE01.JPG,AFNE01.JPG,AFNE01.JPG,AFNE01.JPG,AFNE01.JPG,AFNE01.JPG,,,,,,,,,,,,,5,3,53,5,,,,,,,,,,,AMSA03.jpg,AMNE14.jpg,AMNE11.jpg,AMSA01.jpg,AMSA01.jpg,MS,2,num_4,32,num_6,0.283474603319,,,2017_Jul_17_1639,824.877371213,FEMA4ImagesEEG,001,100989,
AFNE01.JPG,AFNE01.JPG,AFNE01.JPG,AFNE01.JPG,AFNE01.JPG,AFNE01.JPG,,,,,,,,,,,,,5,4,54,7,,,,,,,,,,,AMSA11.jpg,AMNE15.jpg,AMNE09.jpg,AMSA06.jpg,AMSA11.jpg,MS,2,num_8,16,num_8,0.266776231492,,,2017_Jul_17_1639,824.877371213,FEMA4ImagesEEG,001,100989,
AFNE01.JPG,AFNE01.JPG,AFNE01.JPG,AFNE01.JPG,AFNE01.JPG,AFNE01.JPG,,,,,,,,,,,,,5,5,55,1,,,,,,,,,,,AMNE11.jpg,AMSA04.jpg,AMNE10.jpg,AMSA08.jpg,AMNE10.jpg,MN,1,num_2,32,num_4,0.449868801257,,,2017_Jul_17_1639,824.877371213,FEMA4ImagesEEG,001,100989,
AFNE01.JPG,AFNE01.JPG,AFNE01.JPG,AFNE01.JPG,AFNE01.JPG,AFNE01.JPG,,,,,,,,,,,,,5,6,56,2,,,,,,,,,,,AMSA14.jpg,AMNE05.jpg,AMNE11.jpg,AMSA02.jpg,AMNE11.jpg,MN,1,num_2,16,num_2,0.866858212663,,,2017_Jul_17_1639,824.877371213,FEMA4ImagesEEG,001,100989,
AFNE01.JPG,AFNE01.JPG,AFNE01.JPG,AFNE01.JPG,AFNE01.JPG,AFNE01.JPG,,,,,,,,,,,,,5,7,57,3,,,,,,,,,,,AMSA07.jpg,AMSA08.jpg,AMNE12.jpg,AMNE17.jpg,AMSA07.jpg,MS,2,num_8,32,num_6,0.400173007216,,,2017_Jul_17_1639,824.877371213,FEMA4ImagesEEG,001,100989,
AFNE01.JPG,AFNE01.JPG,AFNE01.JPG,AFNE01.JPG,AFNE01.JPG,AFNE01.JPG,,,,,,,,,,,,,5,8,58,0,,,,,,,,,,,AMNE05.jpg,AMSA10.jpg,AMNE11.jpg,AMSA07.jpg,AMSA10.jpg,MS,2,num_6,16,num_6,0.600172429884,,,2017_Jul_17_1639,824.877371213,FEMA4ImagesEEG,001,100989,
AFNE01.JPG,AFNE01.JPG,AFNE01.JPG,AFNE01.JPG,AFNE01.JPG,AFNE01.JPG,,,,,,,,,,,,,5,9,59,9,,,,,,,,,,,AMNE04.jpg,AMSA04.jpg,AMSA08.jpg,AMNE01.jpg,AMSA08.jpg,MS,2,num_2,32,num_8,0.450136619253,,,2017_Jul_17_1639,824.877371213,FEMA4ImagesEEG,001,100989,
,,,,,,,,,,,,,,,,,,,,,,,,,,,,,,,,,,,,,,,,,,,space,1.55004395743,2017_Jul_17_1639,824.877371213,FEMA4ImagesEEG,001,100989,
AFNE01.JPG,AFNE01.JPG,AFNE01.JPG,AFNE01.JPG,AFNE01.JPG,AFNE01.JPG,,,,,,,,,,,,,,,,,0,0,0,2,,,,,,,AFNE13.jpg,AFSA09.jpg,AFSA12.jpg,AFNE06.jpg,AFSA12.jpg,FS,4,num_2,32,num_4,0.43345524665,,,2017_Jul_17_1639,824.877371213,FEMA4ImagesEEG,001,100989,
AFNE01.JPG,AFNE01.JPG,AFNE01.JPG,AFNE01.JPG,AFNE01.JPG,AFNE01.JPG,,,,,,,,,,,,,,,,,0,1,1,9,,,,,,,AFNE18.jpg,AFSA13.jpg,AFSA18.jpg,AFNE10.jpg,AFSA13.jpg,FS,4,num_6,16,num_6,0.383541349333,,,2017_Jul_17_1639,824.877371213,FEMA4ImagesEEG,001,100989,
AFNE01.JPG,AFNE01.JPG,AFNE01.JPG,AFNE01.JPG,AFNE01.JPG,AFNE01.JPG,,,,,,,,,,,,,,,,,0,2,2,0,,,,,,,AFSA12.jpg,AFSA18.jpg,AFNE07.jpg,AFNE09.jpg,AFSA12.jpg,FS,4,num_8,16,num_8,0.533470032769,,,2017_Jul_17_1639,824.877371213,FEMA4ImagesEEG,001,100989,
AFNE01.JPG,AFNE01.JPG,AFNE01.JPG,AFNE01.JPG,AFNE01.JPG,AFNE01.JPG,,,,,,,,,,,,,,,,,0,3,3,3,,,,,,,AFNE14.jpg,AFSA05.jpg,AFNE18.jpg,AFSA06.jpg,AFNE18.jpg,FN,3,num_2,16,num_2,0.466833387378,,,2017_Jul_17_1639,824.877371213,FEMA4ImagesEEG,001,100989,
AFNE01.JPG,AFNE01.JPG,AFNE01.JPG,AFNE01.JPG,AFNE01.JPG,AFNE01.JPG,,,,,,,,,,,,,,,,,0,4,4,7,,,,,,,AFNE09.jpg,AFNE16.jpg,AFSA07.jpg,AFSA05.jpg,AFNE09.jpg,FN,3,num_8,32,num_4,0.416804023622,,,2017_Jul_17_1639,824.877371213,FEMA4ImagesEEG,001,100989,
AFNE01.JPG,AFNE01.JPG,AFNE01.JPG,AFNE01.JPG,AFNE01.JPG,AFNE01.JPG,,,,,,,,,,,,,,,,,0,5,5,1,,,,,,,AFSA20.jpg,AFNE07.jpg,AFSA13.jpg,AFNE08.jpg,AFNE08.jpg,FN,3,num_4,32,num_8,0.366793904268,,,2017_Jul_17_1639,824.877371213,FEMA4ImagesEEG,001,100989,
AFNE01.JPG,AFNE01.JPG,AFNE01.JPG,AFNE01.JPG,AFNE01.JPG,AFNE01.JPG,,,,,,,,,,,,,,,,,0,6,6,8,,,,,,,AFNE06.jpg,AFSA18.jpg,AFNE17.jpg,AFSA17.jpg,AFSA17.jpg,FS,4,num_4,32,num_2,0.416793439195,,,2017_Jul_17_1639,824.877371213,FEMA4ImagesEEG,001,100989,
AFNE01.JPG,AFNE01.JPG,AFNE01.JPG,AFNE01.JPG,AFNE01.JPG,AFNE01.JPG,,,,,,,,,,,,,,,,,0,7,7,6,,,,,,,AFNE14.jpg,AFSA08.jpg,AFNE02.jpg,AFSA15.jpg,AFSA08.jpg,FS,4,num_6,16,num_6,0.316829330015,,,2017_Jul_17_1639,824.877371213,FEMA4ImagesEEG,001,100989,
AFNE01.JPG,AFNE01.JPG,AFNE01.JPG,AFNE01.JPG,AFNE01.JPG,AFNE01.JPG,,,,,,,,,,,,,,,,,0,8,8,4,,,,,,,AFNE17.jpg,AFSA14.jpg,AFNE02.jpg,AFSA08.jpg,AFSA14.jpg,FS,4,num_6,32,num_8,0.666766096103,,,2017_Jul_17_1639,824.877371213,FEMA4ImagesEEG,001,100989,
AFNE01.JPG,AFNE01.JPG,AFNE01.JPG,AFNE01.JPG,AFNE01.JPG,AFNE01.JPG,,,,,,,,,,,,,,,,,0,9,9,5,,,,,,,AFSA20.jpg,AFNE19.jpg,AFSA13.jpg,AFNE03.jpg,AFNE03.jpg,FN,3,num_4,32,num_2,0.750143451016,,,2017_Jul_17_1639,824.877371213,FEMA4ImagesEEG,001,100989,
AFNE01.JPG,AFNE01.JPG,AFNE01.JPG,AFNE01.JPG,AFNE01.JPG,AFNE01.JPG,,,,,,,,,,,,,,,,,1,0,10,2,,,,,,,AFNE05.jpg,AFNE20.jpg,AFSA13.jpg,AFSA04.jpg,AFNE05.jpg,FN,3,num_8,32,num_6,0.366800319072,,,2017_Jul_17_1639,824.877371213,FEMA4ImagesEEG,001,100989,
AFNE01.JPG,AFNE01.JPG,AFNE01.JPG,AFNE01.JPG,AFNE01.JPG,AFNE01.JPG,,,,,,,,,,,,,,,,,1,1,11,1,,,,,,,AFNE03.jpg,AFSA12.jpg,AFNE04.jpg,AFSA04.jpg,AFNE03.jpg,FN,3,num_8,32,num_6,1.63338891759,,,2017_Jul_17_1639,824.877371213,FEMA4ImagesEEG,001,100989,
AFNE01.JPG,AFNE01.JPG,AFNE01.JPG,AFNE01.JPG,AFNE01.JPG,AFNE01.JPG,,,,,,,,,,,,,,,,,1,2,12,0,,,,,,,AFSA18.jpg,AFSA05.jpg,AFNE06.jpg,AFNE18.jpg,AFSA05.jpg,FS,4,num_6,16,num_6,0.616785484843,,,2017_Jul_17_1639,824.877371213,FEMA4ImagesEEG,001,100989,
AFNE01.JPG,AFNE01.JPG,AFNE01.JPG,AFNE01.JPG,AFNE01.JPG,AFNE01.JPG,,,,,,,,,,,,,,,,,1,3,13,3,,,,,,,AFNE16.jpg,AFSA08.jpg,AFNE20.jpg,AFSA05.jpg,AFSA08.jpg,FS,4,num_6,32,num_2,1.00011257978,,,2017_Jul_17_1639,824.877371213,FEMA4ImagesEEG,001,100989,
AFNE01.JPG,AFNE01.JPG,AFNE01.JPG,AFNE01.JPG,AFNE01.JPG,AFNE01.JPG,,,,,,,,,,,,,,,,,1,4,14,6,,,,,,,AFNE18.jpg,AFSA18.jpg,AFSA06.jpg,AFNE11.jpg,AFSA18.jpg,FS,4,num_6,32,num_8,0.350165774529,,,2017_Jul_17_1639,824.877371213,FEMA4ImagesEEG,001,100989,
AFNE01.JPG,AFNE01.JPG,AFNE01.JPG,AFNE01.JPG,AFNE01.JPG,AFNE01.JPG,,,,,,,,,,,,,,,,,1,5,15,9,,,,,,,AFNE02.jpg,AFNE18.jpg,AFSA02.jpg,AFSA10.jpg,AFNE02.jpg,FN,3,num_8,32,num_6,0.666842432249,,,2017_Jul_17_1639,824.877371213,FEMA4ImagesEEG,001,100989,
AFNE01.JPG,AFNE01.JPG,AFNE01.JPG,AFNE01.JPG,AFNE01.JPG,AFNE01.JPG,,,,,,,,,,,,,,,,,1,6,16,4,,,,,,,AFNE14.jpg,AFSA06.jpg,AFNE08.jpg,AFSA09.jpg,AFNE08.jpg,FN,3,num_2,32,num_4,0.633461404861,,,2017_Jul_17_1639,824.877371213,FEMA4ImagesEEG,001,100989,
AFNE01.JPG,AFNE01.JPG,AFNE01.JPG,AFNE01.JPG,AFNE01.JPG,AFNE01.JPG,,,,,,,,,,,,,,,,,1,7,17,5,,,,,,,AFSA20.jpg,AFNE16.jpg,AFNE14.jpg,AFSA03.jpg,AFSA03.jpg,FS,4,num_4,32,num_8,0.500010424053,,,2017_Jul_17_1639,824.877371213,FEMA4ImagesEEG,001,100989,
AFNE01.JPG,AFNE01.JPG,AFNE01.JPG,AFNE01.JPG,AFNE01.JPG,AFNE01.JPG,,,,,,,,,,,,,,,,,1,8,18,8,,,,,,,AFNE16.jpg,AFSA01.jpg,AFNE12.jpg,AFSA05.jpg,AFSA05.jpg,FS,4,num_4,32,num_6,0.450135657033,,,2017_Jul_17_1639,824.877371213,FEMA4ImagesEEG,001,100989,
AFNE01.JPG,AFNE01.JPG,AFNE01.JPG,AFNE01.JPG,AFNE01.JPG,AFNE01.JPG,,,,,,,,,,,,,,,,,1,9,19,7,,,,,,,AFNE04.jpg,AFSA12.jpg,AFNE08.jpg,AFSA09.jpg,AFSA12.jpg,FS,4,num_6,32,num_4,0.716354442204,,,2017_Jul_17_1639,824.877371213,FEMA4ImagesEEG,001,100989,
AFNE01.JPG,AFNE01.JPG,AFNE01.JPG,AFNE01.JPG,AFNE01.JPG,AFNE01.JPG,,,,,,,,,,,,,,,,,2,0,20,0,,,,,,,AFSA07.jpg,AFSA01.jpg,AFNE18.jpg,AFNE01.jpg,AFNE18.jpg,FN,3,num_2,32,num_8,0.733459191753,,,2017_Jul_17_1639,824.877371213,FEMA4ImagesEEG,001,100989,
AFNE01.JPG,AFNE01.JPG,AFNE01.JPG,AFNE01.JPG,AFNE01.JPG,AFNE01.JPG,,,,,,,,,,,,,,,,,2,1,21,6,,,,,,,AFSA02.jpg,AFNE05.jpg,AFNE14.jpg,AFSA20.jpg,AFSA20.jpg,FS,4,num_4,16,num_4,0.366845543427,,,2017_Jul_17_1639,824.877371213,FEMA4ImagesEEG,001,100989,
AFNE01.JPG,AFNE01.JPG,AFNE01.JPG,AFNE01.JPG,AFNE01.JPG,AFNE01.JPG,,,,,,,,,,,,,,,,,2,2,22,5,,,,,,,AFNE17.jpg,AFSA04.jpg,AFNE18.jpg,AFSA12.jpg,AFSA12.jpg,FS,4,num_4,32,num_6,0.53344597726,,,2017_Jul_17_1639,824.877371213,FEMA4ImagesEEG,001,100989,
AFNE01.JPG,AFNE01.JPG,AFNE01.JPG,AFNE01.JPG,AFNE01.JPG,AFNE01.JPG,,,,,,,,,,,,,,,,,2,3,23,3,,,,,,,AFSA07.jpg,AFSA12.jpg,AFNE18.jpg,AFNE16.jpg,AFNE16.jpg,FN,3,num_4,32,num_8,0.91674356411,,,2017_Jul_17_1639,824.877371213,FEMA4ImagesEEG,001,100989,
AFNE01.JPG,AFNE01.JPG,AFNE01.JPG,AFNE01.JPG,AFNE01.JPG,AFNE01.JPG,,,,,,,,,,,,,,,,,2,4,24,1,,,,,,,AFNE17.jpg,AFSA14.jpg,AFNE05.jpg,AFSA04.jpg,AFSA04.jpg,FS,4,num_4,16,num_4,0.550132160963,,,2017_Jul_17_1639,824.877371213,FEMA4ImagesEEG,001,100989,
AFNE01.JPG,AFNE01.JPG,AFNE01.JPG,AFNE01.JPG,AFNE01.JPG,AFNE01.JPG,,,,,,,,,,,,,,,,,2,5,25,2,,,,,,,AFNE04.jpg,AFSA03.jpg,AFNE17.jpg,AFSA08.jpg,AFSA03.jpg,FS,4,num_6,16,num_6,0.783454877801,,,2017_Jul_17_1639,824.877371213,FEMA4ImagesEEG,001,100989,
AFNE01.JPG,AFNE01.JPG,AFNE01.JPG,AFNE01.JPG,AFNE01.JPG,AFNE01.JPG,,,,,,,,,,,,,,,,,2,6,26,4,,,,,,,AFNE10.jpg,AFSA19.jpg,AFSA05.jpg,AFNE17.jpg,AFSA05.jpg,FS,4,num_2,32,num_8,0.600133941072,,,2017_Jul_17_1639,824.877371213,FEMA4ImagesEEG,001,100989,
AFNE01.JPG,AFNE01.JPG,AFNE01.JPG,AFNE01.JPG,AFNE01.JPG,AFNE01.JPG,,,,,,,,,,,,,,,,,2,7,27,7,,,,,,,AFSA03.jpg,AFNE07.jpg,AFNE08.jpg,AFSA07.jpg,AFSA07.jpg,FS,4,num_4,48,None,,,,2017_Jul_17_1639,824.877371213,FEMA4ImagesEEG,001,100989,
AFNE01.JPG,AFNE01.JPG,AFNE01.JPG,AFNE01.JPG,AFNE01.JPG,AFNE01.JPG,,,,,,,,,,,,,,,,,2,8,28,9,,,,,,,AFNE15.jpg,AFSA17.jpg,AFNE03.jpg,AFSA11.jpg,AFSA11.jpg,FS,4,num_4,16,num_4,0.666759681302,,,2017_Jul_17_1639,824.877371213,FEMA4ImagesEEG,001,100989,
AFNE01.JPG,AFNE01.JPG,AFNE01.JPG,AFNE01.JPG,AFNE01.JPG,AFNE01.JPG,,,,,,,,,,,,,,,,,2,9,29,8,,,,,,,AFSA02.jpg,AFNE14.jpg,AFNE16.jpg,AFSA17.jpg,AFNE14.jpg,FN,3,num_6,16,num_6,0.450185692487,,,2017_Jul_17_1639,824.877371213,FEMA4ImagesEEG,001,100989,
AFNE01.JPG,AFNE01.JPG,AFNE01.JPG,AFNE01.JPG,AFNE01.JPG,AFNE01.JPG,,,,,,,,,,,,,,,,,3,0,30,3,,,,,,,AFSA14.jpg,AFNE06.jpg,AFNE11.jpg,AFSA18.jpg,AFNE06.jpg,FN,3,num_6,32,num_8,0.733141017561,,,2017_Jul_17_1639,824.877371213,FEMA4ImagesEEG,001,100989,
AFNE01.JPG,AFNE01.JPG,AFNE01.JPG,AFNE01.JPG,AFNE01.JPG,AFNE01.JPG,,,,,,,,,,,,,,,,,3,1,31,4,,,,,,,AFSA14.jpg,AFNE04.jpg,AFSA15.jpg,AFNE15.jpg,AFSA15.jpg,FS,4,num_2,32,num_4,0.31684504628,,,2017_Jul_17_1639,824.877371213,FEMA4ImagesEEG,001,100989,
AFNE01.JPG,AFNE01.JPG,AFNE01.JPG,AFNE01.JPG,AFNE01.JPG,AFNE01.JPG,,,,,,,,,,,,,,,,,3,2,32,0,,,,,,,AFSA07.jpg,AFNE01.jpg,AFSA03.jpg,AFNE06.jpg,AFSA07.jpg,FS,4,num_8,16,num_8,0.366812507196,,,2017_Jul_17_1639,824.877371213,FEMA4ImagesEEG,001,100989,
AFNE01.JPG,AFNE01.JPG,AFNE01.JPG,AFNE01.JPG,AFNE01.JPG,AFNE01.JPG,,,,,,,,,,,,,,,,,3,3,33,1,,,,,,,AFSA06.jpg,AFNE13.jpg,AFSA16.jpg,AFNE04.jpg,AFNE13.jpg,FN,3,num_6,32,num_2,0.50013615418,,,2017_Jul_17_1639,824.877371213,FEMA4ImagesEEG,001,100989,
AFNE01.JPG,AFNE01.JPG,AFNE01.JPG,AFNE01.JPG,AFNE01.JPG,AFNE01.JPG,,,,,,,,,,,,,,,,,3,4,34,9,,,,,,,AFSA13.jpg,AFNE08.jpg,AFSA14.jpg,AFNE18.jpg,AFSA13.jpg,FS,4,num_8,32,num_6,0.416694651241,,,2017_Jul_17_1639,824.877371213,FEMA4ImagesEEG,001,100989,
AFNE01.JPG,AFNE01.JPG,AFNE01.JPG,AFNE01.JPG,AFNE01.JPG,AFNE01.JPG,,,,,,,,,,,,,,,,,3,5,35,7,,,,,,,AFNE13.jpg,AFSA04.jpg,AFSA17.jpg,AFNE17.jpg,AFSA17.jpg,FS,4,num_2,32,num_4,0.650117438992,,,2017_Jul_17_1639,824.877371213,FEMA4ImagesEEG,001,100989,
AFNE01.JPG,AFNE01.JPG,AFNE01.JPG,AFNE01.JPG,AFNE01.JPG,AFNE01.JPG,,,,,,,,,,,,,,,,,3,6,36,5,,,,,,,AFSA14.jpg,AFNE20.jpg,AFNE19.jpg,AFSA05.jpg,AFSA14.jpg,FS,4,num_8,32,num_6,0.433466793296,,,2017_Jul_17_1639,824.877371213,FEMA4ImagesEEG,001,100989,
AFNE01.JPG,AFNE01.JPG,AFNE01.JPG,AFNE01.JPG,AFNE01.JPG,AFNE01.JPG,,,,,,,,,,,,,,,,,3,7,37,6,,,,,,,AFNE14.jpg,AFNE15.jpg,AFSA19.jpg,AFSA05.jpg,AFNE14.jpg,FN,3,num_8,16,num_8,0.516818488999,,,2017_Jul_17_1639,824.877371213,FEMA4ImagesEEG,001,100989,
AFNE01.JPG,AFNE01.JPG,AFNE01.JPG,AFNE01.JPG,AFNE01.JPG,AFNE01.JPG,,,,,,,,,,,,,,,,,3,8,38,8,,,,,,,AFSA13.jpg,AFSA10.jpg,AFNE12.jpg,AFNE17.jpg,AFNE12.jpg,FN,3,num_2,16,num_2,0.66679079309,,,2017_Jul_17_1639,824.877371213,FEMA4ImagesEEG,001,100989,
AFNE01.JPG,AFNE01.JPG,AFNE01.JPG,AFNE01.JPG,AFNE01.JPG,AFNE01.JPG,,,,,,,,,,,,,,,,,3,9,39,2,,,,,,,AFSA12.jpg,AFSA02.jpg,AFNE08.jpg,AFNE16.jpg,AFNE08.jpg,FN,3,num_2,32,num_6,0.350332880127,,,2017_Jul_17_1639,824.877371213,FEMA4ImagesEEG,001,100989,
AFNE01.JPG,AFNE01.JPG,AFNE01.JPG,AFNE01.JPG,AFNE01.JPG,AFNE01.JPG,,,,,,,,,,,,,,,,,4,0,40,7,,,,,,,AFSA11.jpg,AFSA02.jpg,AFNE05.jpg,AFNE16.jpg,AFNE05.jpg,FN,3,num_2,32,num_4,0.333492099689,,,2017_Jul_17_1639,824.877371213,FEMA4ImagesEEG,001,100989,
AFNE01.JPG,AFNE01.JPG,AFNE01.JPG,AFNE01.JPG,AFNE01.JPG,AFNE01.JPG,,,,,,,,,,,,,,,,,4,1,41,6,,,,,,,AFSA08.jpg,AFSA02.jpg,AFNE02.jpg,AFNE12.jpg,AFNE12.jpg,FN,3,num_4,32,num_8,0.500157323026,,,2017_Jul_17_1639,824.877371213,FEMA4ImagesEEG,001,100989,
AFNE01.JPG,AFNE01.JPG,AFNE01.JPG,AFNE01.JPG,AFNE01.JPG,AFNE01.JPG,,,,,,,,,,,,,,,,,4,2,42,4,,,,,,,AFNE17.jpg,AFSA11.jpg,AFNE11.jpg,AFSA08.jpg,AFNE11.jpg,FN,3,num_2,16,num_2,0.566809684686,,,2017_Jul_17_1639,824.877371213,FEMA4ImagesEEG,001,100989,
AFNE01.JPG,AFNE01.JPG,AFNE01.JPG,AFNE01.JPG,AFNE01.JPG,AFNE01.JPG,,,,,,,,,,,,,,,,,4,3,43,2,,,,,,,AFNE05.jpg,AFSA07.jpg,AFSA04.jpg,AFNE12.jpg,AFNE12.jpg,FN,3,num_4,32,num_6,0.500156040063,,,2017_Jul_17_1639,824.877371213,FEMA4ImagesEEG,001,100989,
AFNE01.JPG,AFNE01.JPG,AFNE01.JPG,AFNE01.JPG,AFNE01.JPG,AFNE01.JPG,,,,,,,,,,,,,,,,,4,4,44,1,,,,,,,AFSA17.jpg,AFNE14.jpg,AFNE04.jpg,AFSA08.jpg,AFNE04.jpg,FN,3,num_2,32,num_4,0.283506998068,,,2017_Jul_17_1639,824.877371213,FEMA4ImagesEEG,001,100989,
AFNE01.JPG,AFNE01.JPG,AFNE01.JPG,AFNE01.JPG,AFNE01.JPG,AFNE01.JPG,,,,,,,,,,,,,,,,,4,5,45,0,,,,,,,AFNE04.jpg,AFSA04.jpg,AFSA01.jpg,AFNE05.jpg,AFNE04.jpg,FN,3,num_8,16,num_8,0.583463794374,,,2017_Jul_17_1639,824.877371213,FEMA4ImagesEEG,001,100989,
AFNE01.JPG,AFNE01.JPG,AFNE01.JPG,AFNE01.JPG,AFNE01.JPG,AFNE01.JPG,,,,,,,,,,,,,,,,,4,6,46,5,,,,,,,AFNE13.jpg,AFSA15.jpg,AFSA13.jpg,AFNE14.jpg,AFSA15.jpg,FS,4,num_6,32,num_2,0.600154147698,,,2017_Jul_17_1639,824.877371213,FEMA4ImagesEEG,001,100989,
AFNE01.JPG,AFNE01.JPG,AFNE01.JPG,AFNE01.JPG,AFNE01.JPG,AFNE01.JPG,,,,,,,,,,,,,,,,,4,7,47,3,,,,,,,AFSA05.jpg,AFNE19.jpg,AFNE17.jpg,AFSA02.jpg,AFNE19.jpg,FN,3,num_6,16,num_6,0.316773841976,,,2017_Jul_17_1639,824.877371213,FEMA4ImagesEEG,001,100989,
AFNE01.JPG,AFNE01.JPG,AFNE01.JPG,AFNE01.JPG,AFNE01.JPG,AFNE01.JPG,,,,,,,,,,,,,,,,,4,8,48,8,,,,,,,AFNE08.jpg,AFNE05.jpg,AFSA01.jpg,AFSA02.jpg,AFNE08.jpg,FN,3,num_8,16,num_8,0.383516010865,,,2017_Jul_17_1639,824.877371213,FEMA4ImagesEEG,001,100989,
AFNE01.JPG,AFNE01.JPG,AFNE01.JPG,AFNE01.JPG,AFNE01.JPG,AFNE01.JPG,,,,,,,,,,,,,,,,,4,9,49,9,,,,,,,AFNE05.jpg,AFSA20.jpg,AFNE12.jpg,AFSA07.jpg,AFSA07.jpg,FS,4,num_4,16,num_4,0.466802596326,,,2017_Jul_17_1639,824.877371213,FEMA4ImagesEEG,001,100989,
AFNE01.JPG,AFNE01.JPG,AFNE01.JPG,AFNE01.JPG,AFNE01.JPG,AFNE01.JPG,,,,,,,,,,,,,,,,,5,0,50,0,,,,,,,AFNE06.jpg,AFSA04.jpg,AFNE02.jpg,AFSA06.jpg,AFNE06.jpg,FN,3,num_8,32,num_2,0.750129659191,,,2017_Jul_17_1639,824.877371213,FEMA4ImagesEEG,001,100989,
AFNE01.JPG,AFNE01.JPG,AFNE01.JPG,AFNE01.JPG,AFNE01.JPG,AFNE01.JPG,,,,,,,,,,,,,,,,,5,1,51,8,,,,,,,AFNE16.jpg,AFNE11.jpg,AFSA14.jpg,AFSA11.jpg,AFSA11.jpg,FS,4,num_4,16,num_4,0.583466681037,,,2017_Jul_17_1639,824.877371213,FEMA4ImagesEEG,001,100989,
AFNE01.JPG,AFNE01.JPG,AFNE01.JPG,AFNE01.JPG,AFNE01.JPG,AFNE01.JPG,,,,,,,,,,,,,,,,,5,2,52,3,,,,,,,AFNE10.jpg,AFSA02.jpg,AFSA12.jpg,AFNE16.jpg,AFSA12.jpg,FS,4,num_2,32,num_8,0.783129326581,,,2017_Jul_17_1639,824.877371213,FEMA4ImagesEEG,001,100989,
AFNE01.JPG,AFNE01.JPG,AFNE01.JPG,AFNE01.JPG,AFNE01.JPG,AFNE01.JPG,,,,,,,,,,,,,,,,,5,3,53,7,,,,,,,AFNE14.jpg,AFNE11.jpg,AFSA11.jpg,AFSA18.jpg,AFSA11.jpg,FS,4,num_2,16,num_2,0.866766160249,,,2017_Jul_17_1639,824.877371213,FEMA4ImagesEEG,001,100989,
AFNE01.JPG,AFNE01.JPG,AFNE01.JPG,AFNE01.JPG,AFNE01.JPG,AFNE01.JPG,,,,,,,,,,,,,,,,,5,4,54,4,,,,,,,AFSA12.jpg,AFNE11.jpg,AFNE03.jpg,AFSA05.jpg,AFNE03.jpg,FN,3,num_2,32,num_6,0.650093062744,,,2017_Jul_17_1639,824.877371213,FEMA4ImagesEEG,001,100989,
AFNE01.JPG,AFNE01.JPG,AFNE01.JPG,AFNE01.JPG,AFNE01.JPG,AFNE01.JPG,,,,,,,,,,,,,,,,,5,5,55,6,,,,,,,AFNE07.jpg,AFSA15.jpg,AFNE01.jpg,AFSA02.jpg,AFNE07.jpg,FN,3,num_8,32,num_4,0.350117022033,,,2017_Jul_17_1639,824.877371213,FEMA4ImagesEEG,001,100989,
AFNE01.JPG,AFNE01.JPG,AFNE01.JPG,AFNE01.JPG,AFNE01.JPG,AFNE01.JPG,,,,,,,,,,,,,,,,,5,6,56,5,,,,,,,AFNE05.jpg,AFSA13.jpg,AFSA02.jpg,AFNE11.jpg,AFNE05.jpg,FN,3,num_8,16,num_8,0.367015535689,,,2017_Jul_17_1639,824.877371213,FEMA4ImagesEEG,001,100989,
AFNE01.JPG,AFNE01.JPG,AFNE01.JPG,AFNE01.JPG,AFNE01.JPG,AFNE01.JPG,,,,,,,,,,,,,,,,,5,7,57,2,,,,,,,AFNE18.jpg,AFSA04.jpg,AFSA01.jpg,AFNE04.jpg,AFSA04.jpg,FS,4,num_6,16,num_6,0.350153265663,,,2017_Jul_17_1639,824.877371213,FEMA4ImagesEEG,001,100989,
AFNE01.JPG,AFNE01.JPG,AFNE01.JPG,AFNE01.JPG,AFNE01.JPG,AFNE01.JPG,,,,,,,,,,,,,,,,,5,8,58,9,,,,,,,AFSA15.jpg,AFNE14.jpg,AFNE10.jpg,AFSA01.jpg,AFSA01.jpg,FS,4,num_4,32,num_8,0.416816853223,,,2017_Jul_17_1639,824.877371213,FEMA4ImagesEEG,001,100989,
AFNE01.JPG,AFNE01.JPG,AFNE01.JPG,AFNE01.JPG,AFNE01.JPG,AFNE01.JPG,,,,,,,,,,,,,,,,,5,9,59,1,,,,,,,AFSA14.jpg,AFNE05.jpg,AFSA13.jpg,AFNE07.jpg,AFNE07.jpg,FN,3,num_4,16,num_4,0.416788948834,,,2017_Jul_17_1639,824.877371213,FEMA4ImagesEEG,001,100989,
,,,,,,,,,,,,,,,,,,,,,,,,,,,,,,,,,,,,,,,,,,,space,2.03331912454,2017_Jul_17_1639,824.877371213,FEMA4ImagesEEG,001,100989,
AFNE01.JPG,AFNE01.JPG,AFNE01.JPG,AFNE01.JPG,AFNE01.JPG,AFNE01.JPG,,,,,,,,,,,,,,,,,,,,,0,0,0,6,,,AMNE17.jpg,AMSA07.jpg,AMSA16.jpg,AMNE13.jpg,AMSA16.jpg,MS,2,num_2,32,num_4,0.43347609476,,,2017_Jul_17_1639,824.877371213,FEMA4ImagesEEG,001,100989,
AFNE01.JPG,AFNE01.JPG,AFNE01.JPG,AFNE01.JPG,AFNE01.JPG,AFNE01.JPG,,,,,,,,,,,,,,,,,,,,,0,1,1,2,,,AMNE06.jpg,AMSA06.jpg,AMSA19.jpg,AMNE04.jpg,AMNE06.jpg,MN,1,num_8,32,num_6,0.316860121064,,,2017_Jul_17_1639,824.877371213,FEMA4ImagesEEG,001,100989,
AFNE01.JPG,AFNE01.JPG,AFNE01.JPG,AFNE01.JPG,AFNE01.JPG,AFNE01.JPG,,,,,,,,,,,,,,,,,,,,,0,2,2,9,,,AMSA02.jpg,AMNE15.jpg,AMSA12.jpg,AMNE07.jpg,AMSA12.jpg,MS,2,num_2,32,num_6,0.583500038007,,,2017_Jul_17_1639,824.877371213,FEMA4ImagesEEG,001,100989,
AFNE01.JPG,AFNE01.JPG,AFNE01.JPG,AFNE01.JPG,AFNE01.JPG,AFNE01.JPG,,,,,,,,,,,,,,,,,,,,,0,3,3,7,,,AMNE18.jpg,AMSA19.jpg,AMSA04.jpg,AMNE01.jpg,AMNE01.jpg,MN,1,num_4,32,num_2,0.316800784145,,,2017_Jul_17_1639,824.877371213,FEMA4ImagesEEG,001,100989,
AFNE01.JPG,AFNE01.JPG,AFNE01.JPG,AFNE01.JPG,AFNE01.JPG,AFNE01.JPG,,,,,,,,,,,,,,,,,,,,,0,4,4,4,,,AMNE03.jpg,AMSA06.jpg,AMNE01.jpg,AMSA03.jpg,AMSA06.jpg,MS,2,num_6,32,num_8,0.266856416518,,,2017_Jul_17_1639,824.877371213,FEMA4ImagesEEG,001,100989,
AFNE01.JPG,AFNE01.JPG,AFNE01.JPG,AFNE01.JPG,AFNE01.JPG,AFNE01.JPG,,,,,,,,,,,,,,,,,,,,,0,5,5,5,,,AMSA10.jpg,AMSA06.jpg,AMNE20.jpg,AMNE09.jpg,AMSA06.jpg,MS,2,num_6,32,num_4,0.36681443164,,,2017_Jul_17_1639,824.877371213,FEMA4ImagesEEG,001,100989,
AFNE01.JPG,AFNE01.JPG,AFNE01.JPG,AFNE01.JPG,AFNE01.JPG,AFNE01.JPG,,,,,,,,,,,,,,,,,,,,,0,6,6,1,,,AMSA07.jpg,AMNE20.jpg,AMNE19.jpg,AMSA03.jpg,AMNE20.jpg,MN,1,num_6,16,num_6,0.783434350433,,,2017_Jul_17_1639,824.877371213,FEMA4ImagesEEG,001,100989,
AFNE01.JPG,AFNE01.JPG,AFNE01.JPG,AFNE01.JPG,AFNE01.JPG,AFNE01.JPG,,,,,,,,,,,,,,,,,,,,,0,7,7,3,,,AMNE14.jpg,AMNE19.jpg,AMSA08.jpg,AMSA02.jpg,AMSA08.jpg,MS,2,num_2,32,num_6,1.33341736724,,,2017_Jul_17_1639,824.877371213,FEMA4ImagesEEG,001,100989,
AFNE01.JPG,AFNE01.JPG,AFNE01.JPG,AFNE01.JPG,AFNE01.JPG,AFNE01.JPG,,,,,,,,,,,,,,,,,,,,,0,8,8,0,,,AMSA15.jpg,AMNE01.jpg,AMNE18.jpg,AMSA20.jpg,AMSA15.jpg,MS,2,num_8,32,num_6,0.6834946175,,,2017_Jul_17_1639,824.877371213,FEMA4ImagesEEG,001,100989,
AFNE01.JPG,AFNE01.JPG,AFNE01.JPG,AFNE01.JPG,AFNE01.JPG,AFNE01.JPG,,,,,,,,,,,,,,,,,,,,,0,9,9,8,,,AMSA03.jpg,AMNE10.jpg,AMSA07.jpg,AMNE04.jpg,AMSA07.jpg,MS,2,num_2,32,num_8,0.533508842327,,,2017_Jul_17_1639,824.877371213,FEMA4ImagesEEG,001,100989,
AFNE01.JPG,AFNE01.JPG,AFNE01.JPG,AFNE01.JPG,AFNE01.JPG,AFNE01.JPG,,,,,,,,,,,,,,,,,,,,,1,0,10,1,,,AMSA20.jpg,AMSA03.jpg,AMNE19.jpg,AMNE11.jpg,AMSA20.jpg,MS,2,num_8,32,num_4,0.916649266517,,,2017_Jul_17_1639,824.877371213,FEMA4ImagesEEG,001,100989,
AFNE01.JPG,AFNE01.JPG,AFNE01.JPG,AFNE01.JPG,AFNE01.JPG,AFNE01.JPG,,,,,,,,,,,,,,,,,,,,,1,1,11,4,,,AMNE03.jpg,AMSA20.jpg,AMNE06.jpg,AMSA04.jpg,AMSA04.jpg,MS,2,num_4,16,num_4,0.483477233385,,,2017_Jul_17_1639,824.877371213,FEMA4ImagesEEG,001,100989,
AFNE01.JPG,AFNE01.JPG,AFNE01.JPG,AFNE01.JPG,AFNE01.JPG,AFNE01.JPG,,,,,,,,,,,,,,,,,,,,,1,2,12,6,,,AMNE15.jpg,AMSA05.jpg,AMSA06.jpg,AMNE11.jpg,AMSA06.jpg,MS,2,num_2,16,num_2,0.866300445607,,,2017_Jul_17_1639,824.877371213,FEMA4ImagesEEG,001,100989,
AFNE01.JPG,AFNE01.JPG,AFNE01.JPG,AFNE01.JPG,AFNE01.JPG,AFNE01.JPG,,,,,,,,,,,,,,,,,,,,,1,3,13,8,,,AMNE07.jpg,AMNE19.jpg,AMSA07.jpg,AMSA10.jpg,AMNE19.jpg,MN,1,num_6,32,num_4,0.416798571037,,,2017_Jul_17_1639,824.877371213,FEMA4ImagesEEG,001,100989,
AFNE01.JPG,AFNE01.JPG,AFNE01.JPG,AFNE01.JPG,AFNE01.JPG,AFNE01.JPG,,,,,,,,,,,,,,,,,,,,,1,4,14,3,,,AMSA11.jpg,AMSA03.jpg,AMNE07.jpg,AMNE06.jpg,AMNE07.jpg,MN,1,num_2,16,num_2,0.550171932737,,,2017_Jul_17_1639,824.877371213,FEMA4ImagesEEG,001,100989,
AFNE01.JPG,AFNE01.JPG,AFNE01.JPG,AFNE01.JPG,AFNE01.JPG,AFNE01.JPG,,,,,,,,,,,,,,,,,,,,,1,5,15,0,,,AMNE12.jpg,AMSA02.jpg,AMSA03.jpg,AMNE15.jpg,AMSA02.jpg,MS,2,num_6,16,num_6,0.583472133618,,,2017_Jul_17_1639,824.877371213,FEMA4ImagesEEG,001,100989,
AFNE01.JPG,AFNE01.JPG,AFNE01.JPG,AFNE01.JPG,AFNE01.JPG,AFNE01.JPG,,,,,,,,,,,,,,,,,,,,,1,6,16,9,,,AMNE12.jpg,AMNE15.jpg,AMSA20.jpg,AMSA02.jpg,AMNE12.jpg,MN,1,num_8,32,num_6,0.966749834577,,,2017_Jul_17_1639,824.877371213,FEMA4ImagesEEG,001,100989,
AFNE01.JPG,AFNE01.JPG,AFNE01.JPG,AFNE01.JPG,AFNE01.JPG,AFNE01.JPG,,,,,,,,,,,,,,,,,,,,,1,7,17,5,,,AMSA02.jpg,AMNE18.jpg,AMSA03.jpg,AMNE19.jpg,AMNE19.jpg,MN,1,num_4,16,num_4,1.03340668659,,,2017_Jul_17_1639,824.877371213,FEMA4ImagesEEG,001,100989,
AFNE01.JPG,AFNE01.JPG,AFNE01.JPG,AFNE01.JPG,AFNE01.JPG,AFNE01.JPG,,,,,,,,,,,,,,,,,,,,,1,8,18,7,,,AMNE18.jpg,AMSA09.jpg,AMNE10.jpg,AMSA19.jpg,AMSA09.jpg,MS,2,num_6,16,num_6,0.3834954835,,,2017_Jul_17_1639,824.877371213,FEMA4ImagesEEG,001,100989,
AFNE01.JPG,AFNE01.JPG,AFNE01.JPG,AFNE01.JPG,AFNE01.JPG,AFNE01.JPG,,,,,,,,,,,,,,,,,,,,,1,9,19,2,,,AMNE07.jpg,AMNE08.jpg,AMSA03.jpg,AMSA14.jpg,AMNE07.jpg,MN,1,num_8,32,num_4,0.483445159374,,,2017_Jul_17_1639,824.877371213,FEMA4ImagesEEG,001,100989,
AFNE01.JPG,AFNE01.JPG,AFNE01.JPG,AFNE01.JPG,AFNE01.JPG,AFNE01.JPG,,,,,,,,,,,,,,,,,,,,,2,0,20,9,,,AMSA05.jpg,AMNE16.jpg,AMNE20.jpg,AMSA19.jpg,AMSA05.jpg,MS,2,num_8,16,num_8,0.566805835802,,,2017_Jul_17_1639,824.877371213,FEMA4ImagesEEG,001,100989,
AFNE01.JPG,AFNE01.JPG,AFNE01.JPG,AFNE01.JPG,AFNE01.JPG,AFNE01.JPG,,,,,,,,,,,,,,,,,,,,,2,1,21,5,,,AMSA17.jpg,AMNE08.jpg,AMSA14.jpg,AMNE06.jpg,AMNE06.jpg,MN,1,num_4,32,num_6,0.666788547907,,,2017_Jul_17_1639,824.877371213,FEMA4ImagesEEG,001,100989,
AFNE01.JPG,AFNE01.JPG,AFNE01.JPG,AFNE01.JPG,AFNE01.JPG,AFNE01.JPG,,,,,,,,,,,,,,,,,,,,,2,2,22,6,,,AMNE01.jpg,AMSA12.jpg,AMNE07.jpg,AMSA13.jpg,AMSA12.jpg,MS,2,num_6,32,num_4,0.666789189392,,,2017_Jul_17_1639,824.877371213,FEMA4ImagesEEG,001,100989,
AFNE01.JPG,AFNE01.JPG,AFNE01.JPG,AFNE01.JPG,AFNE01.JPG,AFNE01.JPG,,,,,,,,,,,,,,,,,,,,,2,3,23,3,,,AMSA13.jpg,AMNE12.jpg,AMNE16.jpg,AMSA06.jpg,AMNE16.jpg,MN,1,num_2,32,num_6,0.316787633801,,,2017_Jul_17_1639,824.877371213,FEMA4ImagesEEG,001,100989,
AFNE01.JPG,AFNE01.JPG,AFNE01.JPG,AFNE01.JPG,AFNE01.JPG,AFNE01.JPG,,,,,,,,,,,,,,,,,,,,,2,4,24,2,,,AMSA02.jpg,AMNE01.jpg,AMSA13.jpg,AMNE07.jpg,AMNE01.jpg,MN,1,num_6,32,num_2,0.883515850495,,,2017_Jul_17_1639,824.877371213,FEMA4ImagesEEG,001,100989,
AFNE01.JPG,AFNE01.JPG,AFNE01.JPG,AFNE01.JPG,AFNE01.JPG,AFNE01.JPG,,,,,,,,,,,,,,,,,,,,,2,5,25,0,,,AMSA16.jpg,AMSA11.jpg,AMNE13.jpg,AMNE12.jpg,AMSA11.jpg,MS,2,num_6,32,num_4,1.23348244541,,,2017_Jul_17_1639,824.877371213,FEMA4ImagesEEG,001,100989,
AFNE01.JPG,AFNE01.JPG,AFNE01.JPG,AFNE01.JPG,AFNE01.JPG,AFNE01.JPG,,,,,,,,,,,,,,,,,,,,,2,6,26,8,,,AMNE12.jpg,AMSA17.jpg,AMNE07.jpg,AMSA08.jpg,AMSA08.jpg,MS,2,num_4,32,num_2,0.316821952991,,,2017_Jul_17_1639,824.877371213,FEMA4ImagesEEG,001,100989,
AFNE01.JPG,AFNE01.JPG,AFNE01.JPG,AFNE01.JPG,AFNE01.JPG,AFNE01.JPG,,,,,,,,,,,,,,,,,,,,,2,7,27,7,,,AMSA06.jpg,AMSA04.jpg,AMNE20.jpg,AMNE01.jpg,AMSA06.jpg,MS,2,num_8,16,num_8,0.866763273589,,,2017_Jul_17_1639,824.877371213,FEMA4ImagesEEG,001,100989,
AFNE01.JPG,AFNE01.JPG,AFNE01.JPG,AFNE01.JPG,AFNE01.JPG,AFNE01.JPG,,,,,,,,,,,,,,,,,,,,,2,8,28,1,,,AMNE11.jpg,AMNE15.jpg,AMSA02.jpg,AMSA16.jpg,AMSA02.jpg,MS,2,num_2,32,num_6,0.666794962715,,,2017_Jul_17_1639,824.877371213,FEMA4ImagesEEG,001,100989,
AFNE01.JPG,AFNE01.JPG,AFNE01.JPG,AFNE01.JPG,AFNE01.JPG,AFNE01.JPG,,,,,,,,,,,,,,,,,,,,,2,9,29,4,,,AMSA19.jpg,AMNE09.jpg,AMSA07.jpg,AMNE02.jpg,AMNE09.jpg,MN,1,num_6,16,num_6,0.483332900334,,,2017_Jul_17_1639,824.877371213,FEMA4ImagesEEG,001,100989,
AFNE01.JPG,AFNE01.JPG,AFNE01.JPG,AFNE01.JPG,AFNE01.JPG,AFNE01.JPG,,,,,,,,,,,,,,,,,,,,,3,0,30,9,,,AMSA01.jpg,AMNE02.jpg,AMSA11.jpg,AMNE09.jpg,AMNE02.jpg,MN,1,num_6,16,num_6,0.633474555209,,,2017_Jul_17_1639,824.877371213,FEMA4ImagesEEG,001,100989,
AFNE01.JPG,AFNE01.JPG,AFNE01.JPG,AFNE01.JPG,AFNE01.JPG,AFNE01.JPG,,,,,,,,,,,,,,,,,,,,,3,1,31,3,,,AMSA16.jpg,AMSA05.jpg,AMNE18.jpg,AMNE06.jpg,AMNE06.jpg,MN,1,num_4,32,num_8,0.416797929556,,,2017_Jul_17_1639,824.877371213,FEMA4ImagesEEG,001,100989,
AFNE01.JPG,AFNE01.JPG,AFNE01.JPG,AFNE01.JPG,AFNE01.JPG,AFNE01.JPG,,,,,,,,,,,,,,,,,,,,,3,2,32,1,,,AMSA03.jpg,AMNE20.jpg,AMSA10.jpg,AMNE11.jpg,AMSA10.jpg,MS,2,num_2,32,num_4,0.416905377497,,,2017_Jul_17_1639,824.877371213,FEMA4ImagesEEG,001,100989,
AFNE01.JPG,AFNE01.JPG,AFNE01.JPG,AFNE01.JPG,AFNE01.JPG,AFNE01.JPG,,,,,,,,,,,,,,,,,,,,,3,3,33,0,,,AMSA02.jpg,AMSA03.jpg,AMNE14.jpg,AMNE08.jpg,AMSA02.jpg,MS,2,num_8,16,num_8,0.733500567228,,,2017_Jul_17_1639,824.877371213,FEMA4ImagesEEG,001,100989,
AFNE01.JPG,AFNE01.JPG,AFNE01.JPG,AFNE01.JPG,AFNE01.JPG,AFNE01.JPG,,,,,,,,,,,,,,,,,,,,,3,4,34,6,,,AMNE17.jpg,AMSA04.jpg,AMNE05.jpg,AMSA05.jpg,AMSA05.jpg,MS,2,num_4,32,num_6,1.36670762518,,,2017_Jul_17_1639,824.877371213,FEMA4ImagesEEG,001,100989,
AFNE01.JPG,AFNE01.JPG,AFNE01.JPG,AFNE01.JPG,AFNE01.JPG,AFNE01.JPG,,,,,,,,,,,,,,,,,,,,,3,5,35,8,,,AMSA09.jpg,AMNE01.jpg,AMNE15.jpg,AMSA20.jpg,AMSA20.jpg,MS,2,num_4,16,num_4,0.600147412155,,,2017_Jul_17_1639,824.877371213,FEMA4ImagesEEG,001,100989,
AFNE01.JPG,AFNE01.JPG,AFNE01.JPG,AFNE01.JPG,AFNE01.JPG,AFNE01.JPG,,,,,,,,,,,,,,,,,,,,,3,6,36,2,,,AMSA01.jpg,AMNE20.jpg,AMNE14.jpg,AMSA08.jpg,AMSA01.jpg,MS,2,num_8,16,num_8,0.666801056774,,,2017_Jul_17_1639,824.877371213,FEMA4ImagesEEG,001,100989,
AFNE01.JPG,AFNE01.JPG,AFNE01.JPG,AFNE01.JPG,AFNE01.JPG,AFNE01.JPG,,,,,,,,,,,,,,,,,,,,,3,7,37,4,,,AMSA15.jpg,AMSA08.jpg,AMNE16.jpg,AMNE17.jpg,AMNE17.jpg,MN,1,num_4,32,num_8,0.750010343869,,,2017_Jul_17_1639,824.877371213,FEMA4ImagesEEG,001,100989,
AFNE01.JPG,AFNE01.JPG,AFNE01.JPG,AFNE01.JPG,AFNE01.JPG,AFNE01.JPG,,,,,,,,,,,,,,,,,,,,,3,8,38,5,,,AMSA02.jpg,AMNE14.jpg,AMSA06.jpg,AMNE15.jpg,AMSA02.jpg,MS,2,num_8,32,num_6,0.316798538963,,,2017_Jul_17_1639,824.877371213,FEMA4ImagesEEG,001,100989,
