IPosition2,IPosition3,IPosition1,IPosition6,IPosition4,IPosition5,TrialsF1.thisRepN,TrialsF1.thisTrialN,TrialsF1.thisN,TrialsF1.thisIndex,TrialsM1.thisRepN,TrialsM1.thisTrialN,TrialsM1.thisN,TrialsM1.thisIndex,TrialsF2.thisRepN,TrialsF2.thisTrialN,TrialsF2.thisN,TrialsF2.thisIndex,TrialsM2.thisRepN,TrialsM2.thisTrialN,TrialsM2.thisN,TrialsM2.thisIndex,TrialsF3.thisRepN,TrialsF3.thisTrialN,TrialsF3.thisN,TrialsF3.thisIndex,TrialsM3.thisRepN,TrialsM3.thisTrialN,TrialsM3.thisN,TrialsM3.thisIndex,InstrKey_resp.keys,InstrKey_resp.rt,Image0 _Position,Image1 _Position,Image2 _Position,Image3 _Position,Center_image,condition,code,correct_answer,accuracy,Key_Resp.keys,Key_Resp.rt,BreakKey_resp.keys,BreakKey_resp.rt,date,frameRate,expName,session,participant,
,,,,,,,,,,,,,,,,,,,,,,,,,,,,,,space,7.04971048431,,,,,,,,,,,,,,2017_Aug_15_1129,60.0210414883,FEMA4ImagesEEG,001,100915,
AFNE23.JPG,AFNE24.JPG,AFNE22.JPG,AFSA24.JPG,AFSA22.JPG,AFSA23.JPG,0,0,0,8,,,,,,,,,,,,,,,,,,,,,,,AFSA11.jpg,AFNE04.jpg,AFNE18.jpg,AFSA17.jpg,AFNE18.jpg,FN,3,num_2,32,num_6,0.900378248334,,,2017_Aug_15_1129,60.0210414883,FEMA4ImagesEEG,001,100915,
AFSA21.JPG,AFNE22.JPG,AFNE21.JPG,AFSA23.JPG,AFSA22.JPG,AFNE23.JPG,0,1,1,0,,,,,,,,,,,,,,,,,,,,,,,AFSA10.jpg,AFSA17.jpg,AFNE01.jpg,AFNE14.jpg,AFNE14.jpg,FN,3,num_4,32,num_2,1.31673430532,,,2017_Aug_15_1129,60.0210414883,FEMA4ImagesEEG,001,100915,
AFNE22.JPG,AFSA24.JPG,AFSA22.JPG,AFNE25.JPG,AFNE24.JPG,AFSA25.JPG,0,2,2,6,,,,,,,,,,,,,,,,,,,,,,,AFSA01.jpg,AFSA04.jpg,AFNE03.jpg,AFNE20.jpg,AFSA01.jpg,FS,4,num_8,32,num_4,1.01682664629,,,2017_Aug_15_1129,60.0210414883,FEMA4ImagesEEG,001,100915,
AMNE22.JPG,AMSA24.JPG,AMSA22.JPG,AMNE25.JPG,AMNE24.JPG,AMSA25.JPG,0,3,3,7,,,,,,,,,,,,,,,,,,,,,,,AFSA10.jpg,AFNE16.jpg,AFSA05.jpg,AFNE17.jpg,AFNE16.jpg,FN,3,num_6,32,num_8,1.70007085141,,,2017_Aug_15_1129,60.0210414883,FEMA4ImagesEEG,001,100915,
AMSA21.JPG,AMNE22.JPG,AMNE21.JPG,AMSA23.JPG,AMSA22.JPG,AMNE23.JPG,0,4,4,1,,,,,,,,,,,,,,,,,,,,,,,AFSA20.jpg,AFNE20.jpg,AFNE16.jpg,AFSA15.jpg,AFNE16.jpg,FN,3,num_2,32,num_4,0.833423193908,,,2017_Aug_15_1129,60.0210414883,FEMA4ImagesEEG,001,100915,
AMNE23.JPG,AMNE24.JPG,AMNE22.JPG,AMSA24.JPG,AMSA22.JPG,AMSA23.JPG,0,5,5,9,,,,,,,,,,,,,,,,,,,,,,,AFSA09.jpg,AFNE16.jpg,AFSA18.jpg,AFNE14.jpg,AFNE14.jpg,FN,3,num_4,32,num_8,1.50009670302,,,2017_Aug_15_1129,60.0210414883,FEMA4ImagesEEG,001,100915,
AMSA21.JPG,AMNE23.JPG,AMNE21.JPG,AMSA25.JPG,AMNE25.JPG,AMSA23.JPG,0,6,6,5,,,,,,,,,,,,,,,,,,,,,,,AFSA15.jpg,AFNE15.jpg,AFSA13.jpg,AFNE20.jpg,AFSA15.jpg,FS,4,num_8,16,num_8,2.05002063961,,,2017_Aug_15_1129,60.0210414883,FEMA4ImagesEEG,001,100915,
AFSA25.JPG,AFNE24.JPG,AFSA24.JPG,AFNE21.JPG,AFSA21.JPG,AFNE25.JPG,0,7,7,2,,,,,,,,,,,,,,,,,,,,,,,AFNE19.jpg,AFSA09.jpg,AFNE11.jpg,AFSA18.jpg,AFSA18.jpg,FS,4,num_4,32,num_6,1.31681449026,,,2017_Aug_15_1129,60.0210414883,FEMA4ImagesEEG,001,100915,
AFSA21.JPG,AFNE23.JPG,AFNE21.JPG,AFSA25.JPG,AFNE25.JPG,AFSA23.JPG,0,8,8,4,,,,,,,,,,,,,,,,,,,,,,,AFNE13.jpg,AFSA18.jpg,AFSA04.jpg,AFNE11.jpg,AFNE11.jpg,FN,3,num_4,32,num_8,1.45008761005,,,2017_Aug_15_1129,60.0210414883,FEMA4ImagesEEG,001,100915,
AMSA25.JPG,AMNE24.JPG,AMSA24.JPG,AMNE26.JPG,AMSA21.JPG,AMNE25.JPG,0,9,9,3,,,,,,,,,,,,,,,,,,,,,,,AFSA20.jpg,AFNE08.jpg,AFSA11.jpg,AFNE19.jpg,AFSA20.jpg,FS,4,num_8,32,num_2,1.21675589112,,,2017_Aug_15_1129,60.0210414883,FEMA4ImagesEEG,001,100915,
AFSA25.JPG,AFNE24.JPG,AFSA24.JPG,AFNE21.JPG,AFSA21.JPG,AFNE25.JPG,,,,,0,0,0,2,,,,,,,,,,,,,,,,,,,AMNE10.jpg,AMNE09.jpg,AMSA03.jpg,AMSA09.jpg,AMNE09.jpg,MN,1,num_6,32,num_8,1.08342471742,,,2017_Aug_15_1129,60.0210414883,FEMA4ImagesEEG,001,100915,
AFNE22.JPG,AFSA24.JPG,AFSA22.JPG,AFNE25.JPG,AFNE24.JPG,AFSA25.JPG,,,,,0,1,1,6,,,,,,,,,,,,,,,,,,,AMSA18.jpg,AMNE10.jpg,AMNE07.jpg,AMSA03.jpg,AMNE07.jpg,MN,1,num_2,16,num_2,1.25016061041,,,2017_Aug_15_1129,60.0210414883,FEMA4ImagesEEG,001,100915,
AMSA25.JPG,AMNE24.JPG,AMSA24.JPG,AMNE26.JPG,AMSA21.JPG,AMNE25.JPG,,,,,0,2,2,3,,,,,,,,,,,,,,,,,,,AMSA14.jpg,AMNE10.jpg,AMSA09.jpg,AMNE09.jpg,AMNE09.jpg,MN,1,num_4,32,num_2,1.25006246405,,,2017_Aug_15_1129,60.0210414883,FEMA4ImagesEEG,001,100915,
AFSA21.JPG,AFNE23.JPG,AFNE21.JPG,AFSA25.JPG,AFNE25.JPG,AFSA23.JPG,,,,,0,3,3,4,,,,,,,,,,,,,,,,,,,AMNE09.jpg,AMNE06.jpg,AMSA07.jpg,AMSA09.jpg,AMSA09.jpg,MS,2,num_4,32,num_8,1.08349880829,,,2017_Aug_15_1129,60.0210414883,FEMA4ImagesEEG,001,100915,
AFSA21.JPG,AFNE22.JPG,AFNE21.JPG,AFSA23.JPG,AFSA22.JPG,AFNE23.JPG,,,,,0,4,4,0,,,,,,,,,,,,,,,,,,,AMSA08.jpg,AMSA13.jpg,AMNE07.jpg,AMNE18.jpg,AMSA13.jpg,MS,2,num_6,16,num_6,1.40009230889,,,2017_Aug_15_1129,60.0210414883,FEMA4ImagesEEG,001,100915,
AMNE22.JPG,AMSA24.JPG,AMSA22.JPG,AMNE25.JPG,AMNE24.JPG,AMSA25.JPG,,,,,0,5,5,7,,,,,,,,,,,,,,,,,,,AMNE11.jpg,AMSA19.jpg,AMSA13.jpg,AMNE19.jpg,AMNE19.jpg,MN,1,num_4,32,num_8,0.90011331733,,,2017_Aug_15_1129,60.0210414883,FEMA4ImagesEEG,001,100915,
AFNE23.JPG,AFNE24.JPG,AFNE22.JPG,AFSA24.JPG,AFSA22.JPG,AFSA23.JPG,,,,,0,6,6,8,,,,,,,,,,,,,,,,,,,AMNE07.jpg,AMSA07.jpg,AMNE02.jpg,AMSA01.jpg,AMNE02.jpg,MN,1,num_2,32,num_6,1.34979326722,,,2017_Aug_15_1129,60.0210414883,FEMA4ImagesEEG,001,100915,
AMSA21.JPG,AMNE22.JPG,AMNE21.JPG,AMSA23.JPG,AMSA22.JPG,AMNE23.JPG,,,,,0,7,7,1,,,,,,,,,,,,,,,,,,,AMSA13.jpg,AMNE14.jpg,AMSA02.jpg,AMNE17.jpg,AMNE14.jpg,MN,1,num_6,16,num_6,0.600132529653,,,2017_Aug_15_1129,60.0210414883,FEMA4ImagesEEG,001,100915,
AMNE23.JPG,AMNE24.JPG,AMNE22.JPG,AMSA24.JPG,AMSA22.JPG,AMSA23.JPG,,,,,0,8,8,9,,,,,,,,,,,,,,,,,,,AMNE19.jpg,AMNE09.jpg,AMSA06.jpg,AMSA02.jpg,AMNE09.jpg,MN,1,num_6,16,num_6,0.616503084064,,,2017_Aug_15_1129,60.0210414883,FEMA4ImagesEEG,001,100915,
AMSA21.JPG,AMNE23.JPG,AMNE21.JPG,AMSA25.JPG,AMNE25.JPG,AMSA23.JPG,,,,,0,9,9,5,,,,,,,,,,,,,,,,,,,AMNE06.jpg,AMNE11.jpg,AMSA11.jpg,AMSA02.jpg,AMNE11.jpg,MN,1,num_6,32,num_8,0.96672133141,,,2017_Aug_15_1129,60.0210414883,FEMA4ImagesEEG,001,100915,
AFNE22.JPG,AFSA24.JPG,AFSA22.JPG,AFNE25.JPG,AFNE24.JPG,AFSA25.JPG,,,,,,,,,0,0,0,6,,,,,,,,,,,,,,,AFNE04.jpg,AFSA18.jpg,AFNE10.jpg,AFSA20.jpg,AFSA18.jpg,FS,4,num_6,16,num_6,0.966815308144,,,2017_Aug_15_1129,60.0210414883,FEMA4ImagesEEG,001,100915,
AMNE22.JPG,AMSA24.JPG,AMSA22.JPG,AMNE25.JPG,AMNE24.JPG,AMSA25.JPG,,,,,,,,,0,1,1,7,,,,,,,,,,,,,,,AFSA03.jpg,AFNE16.jpg,AFNE11.jpg,AFSA09.jpg,AFSA03.jpg,FS,4,num_8,32,num_4,0.783440401588,,,2017_Aug_15_1129,60.0210414883,FEMA4ImagesEEG,001,100915,
AFNE23.JPG,AFNE24.JPG,AFNE22.JPG,AFSA24.JPG,AFSA22.JPG,AFSA23.JPG,,,,,,,,,0,2,2,8,,,,,,,,,,,,,,,AFSA19.jpg,AFSA03.jpg,AFNE09.jpg,AFNE05.jpg,AFSA03.jpg,FS,4,num_6,32,num_4,1.3167711904,,,2017_Aug_15_1129,60.0210414883,FEMA4ImagesEEG,001,100915,
AFSA21.JPG,AFNE22.JPG,AFNE21.JPG,AFSA23.JPG,AFSA22.JPG,AFNE23.JPG,,,,,,,,,0,3,3,0,,,,,,,,,,,,,,,AFNE12.jpg,AFSA12.jpg,AFSA04.jpg,AFNE06.jpg,AFSA12.jpg,FS,4,num_6,16,num_6,1.31671730612,,,2017_Aug_15_1129,60.0210414883,FEMA4ImagesEEG,001,100915,
AMNE23.JPG,AMNE24.JPG,AMNE22.JPG,AMSA24.JPG,AMSA22.JPG,AMSA23.JPG,,,,,,,,,0,4,4,9,,,,,,,,,,,,,,,AFNE15.jpg,AFSA17.jpg,AFSA14.jpg,AFNE19.jpg,AFNE15.jpg,FN,3,num_8,16,num_8,0.816755313776,,,2017_Aug_15_1129,60.0210414883,FEMA4ImagesEEG,001,100915,
AFSA25.JPG,AFNE24.JPG,AFSA24.JPG,AFNE21.JPG,AFSA21.JPG,AFNE25.JPG,,,,,,,,,0,5,5,2,,,,,,,,,,,,,,,AFNE01.jpg,AFSA04.jpg,AFSA18.jpg,AFNE18.jpg,AFSA18.jpg,FS,4,num_2,32,num_6,1.10015257588,,,2017_Aug_15_1129,60.0210414883,FEMA4ImagesEEG,001,100915,
AMSA25.JPG,AMNE24.JPG,AMSA24.JPG,AMNE26.JPG,AMSA21.JPG,AMNE25.JPG,,,,,,,,,0,6,6,3,,,,,,,,,,,,,,,AFSA08.jpg,AFSA13.jpg,AFNE17.jpg,AFNE09.jpg,AFSA08.jpg,FS,4,num_8,32,num_6,0.666779032472,,,2017_Aug_15_1129,60.0210414883,FEMA4ImagesEEG,001,100915,
AFSA21.JPG,AFNE23.JPG,AFNE21.JPG,AFSA25.JPG,AFNE25.JPG,AFSA23.JPG,,,,,,,,,0,7,7,4,,,,,,,,,,,,,,,AFSA10.jpg,AFNE11.jpg,AFSA08.jpg,AFNE17.jpg,AFSA08.jpg,FS,4,num_2,32,num_8,1.11672840371,,,2017_Aug_15_1129,60.0210414883,FEMA4ImagesEEG,001,100915,
AMSA21.JPG,AMNE22.JPG,AMNE21.JPG,AMSA23.JPG,AMSA22.JPG,AMNE23.JPG,,,,,,,,,0,8,8,1,,,,,,,,,,,,,,,AFSA11.jpg,AFSA07.jpg,AFNE08.jpg,AFNE20.jpg,AFSA11.jpg,FS,4,num_8,32,num_4,1.13341809415,,,2017_Aug_15_1129,60.0210414883,FEMA4ImagesEEG,001,100915,
AMSA21.JPG,AMNE23.JPG,AMNE21.JPG,AMSA25.JPG,AMNE25.JPG,AMSA23.JPG,,,,,,,,,0,9,9,5,,,,,,,,,,,,,,,AFSA13.jpg,AFSA01.jpg,AFNE18.jpg,AFNE10.jpg,AFNE10.jpg,FN,3,num_4,16,num_4,1.23314344474,,,2017_Aug_15_1129,60.0210414883,FEMA4ImagesEEG,001,100915,
AMSA21.JPG,AMNE23.JPG,AMNE21.JPG,AMSA25.JPG,AMNE25.JPG,AMSA23.JPG,,,,,,,,,,,,,0,0,0,5,,,,,,,,,,,AMNE05.jpg,AMSA04.jpg,AMSA07.jpg,AMNE20.jpg,AMSA07.jpg,MS,2,num_2,32,num_8,0.950135239895,,,2017_Aug_15_1129,60.0210414883,FEMA4ImagesEEG,001,100915,
AMNE22.JPG,AMSA24.JPG,AMSA22.JPG,AMNE25.JPG,AMNE24.JPG,AMSA25.JPG,,,,,,,,,,,,,0,1,1,7,,,,,,,,,,,AMSA03.jpg,AMNE11.jpg,AMSA10.jpg,AMNE14.jpg,AMSA03.jpg,MS,2,num_8,16,num_8,1.16676155216,,,2017_Aug_15_1129,60.0210414883,FEMA4ImagesEEG,001,100915,
AFNE23.JPG,AFNE24.JPG,AFNE22.JPG,AFSA24.JPG,AFSA22.JPG,AFSA23.JPG,,,,,,,,,,,,,0,2,2,8,,,,,,,,,,,AMSA02.jpg,AMNE13.jpg,AMSA07.jpg,AMNE03.jpg,AMSA07.jpg,MS,2,num_2,16,num_2,0.800145808273,,,2017_Aug_15_1129,60.0210414883,FEMA4ImagesEEG,001,100915,
AFSA25.JPG,AFNE24.JPG,AFSA24.JPG,AFNE21.JPG,AFSA21.JPG,AFNE25.JPG,,,,,,,,,,,,,0,3,3,2,,,,,,,,,,,AMNE04.jpg,AMSA18.jpg,AMSA06.jpg,AMNE13.jpg,AMNE13.jpg,MN,1,num_4,16,num_4,1.01705501294,,,2017_Aug_15_1129,60.0210414883,FEMA4ImagesEEG,001,100915,
AMSA25.JPG,AMNE24.JPG,AMSA24.JPG,AMNE26.JPG,AMSA21.JPG,AMNE25.JPG,,,,,,,,,,,,,0,4,4,3,,,,,,,,,,,AMNE03.jpg,AMNE17.jpg,AMSA05.jpg,AMSA07.jpg,AMNE03.jpg,MN,1,num_8,16,num_8,0.816780010733,,,2017_Aug_15_1129,60.0210414883,FEMA4ImagesEEG,001,100915,
AFSA21.JPG,AFNE23.JPG,AFNE21.JPG,AFSA25.JPG,AFNE25.JPG,AFSA23.JPG,,,,,,,,,,,,,0,5,5,4,,,,,,,,,,,AMSA18.jpg,AMNE19.jpg,AMSA19.jpg,AMNE14.jpg,AMSA18.jpg,MS,2,num_8,32,num_2,0.866762482299,,,2017_Aug_15_1129,60.0210414883,FEMA4ImagesEEG,001,100915,
AFNE22.JPG,AFSA24.JPG,AFSA22.JPG,AFNE25.JPG,AFNE24.JPG,AFSA25.JPG,,,,,,,,,,,,,0,6,6,6,,,,,,,,,,,AMNE12.jpg,AMSA14.jpg,AMSA15.jpg,AMNE15.jpg,AMNE12.jpg,MN,1,num_8,16,num_8,1.75005075707,,,2017_Aug_15_1129,60.0210414883,FEMA4ImagesEEG,001,100915,
AMNE23.JPG,AMNE24.JPG,AMNE22.JPG,AMSA24.JPG,AMSA22.JPG,AMSA23.JPG,,,,,,,,,,,,,0,7,7,9,,,,,,,,,,,AMNE15.jpg,AMSA13.jpg,AMNE20.jpg,AMSA02.jpg,AMNE15.jpg,MN,1,num_8,32,num_6,0.950099958529,,,2017_Aug_15_1129,60.0210414883,FEMA4ImagesEEG,001,100915,
AMSA21.JPG,AMNE22.JPG,AMNE21.JPG,AMSA23.JPG,AMSA22.JPG,AMNE23.JPG,,,,,,,,,,,,,0,8,8,1,,,,,,,,,,,AMSA19.jpg,AMNE09.jpg,AMNE15.jpg,AMSA17.jpg,AMNE15.jpg,MN,1,num_2,32,num_6,0.566825635949,,,2017_Aug_15_1129,60.0210414883,FEMA4ImagesEEG,001,100915,
AFSA21.JPG,AFNE22.JPG,AFNE21.JPG,AFSA23.JPG,AFSA22.JPG,AFNE23.JPG,,,,,,,,,,,,,0,9,9,0,,,,,,,,,,,AMSA13.jpg,AMNE05.jpg,AMNE06.jpg,AMSA12.jpg,AMNE05.jpg,MN,1,num_6,16,num_6,0.650133604126,,,2017_Aug_15_1129,60.0210414883,FEMA4ImagesEEG,001,100915,
AFNE23.JPG,AFNE24.JPG,AFNE22.JPG,AFSA24.JPG,AFSA22.JPG,AFSA23.JPG,,,,,,,,,,,,,,,,,0,0,0,8,,,,,,,AFSA04.jpg,AFNE02.jpg,AFSA11.jpg,AFNE15.jpg,AFNE02.jpg,FN,3,num_6,32,num_8,0.800099942484,,,2017_Aug_15_1129,60.0210414883,FEMA4ImagesEEG,001,100915,
AFSA21.JPG,AFNE23.JPG,AFNE21.JPG,AFSA25.JPG,AFNE25.JPG,AFSA23.JPG,,,,,,,,,,,,,,,,,0,1,1,4,,,,,,,AFSA20.jpg,AFSA07.jpg,AFNE14.jpg,AFNE09.jpg,AFSA07.jpg,FS,4,num_6,16,num_6,0.683443063739,,,2017_Aug_15_1129,60.0210414883,FEMA4ImagesEEG,001,100915,
AFNE22.JPG,AFSA24.JPG,AFSA22.JPG,AFNE25.JPG,AFNE24.JPG,AFSA25.JPG,,,,,,,,,,,,,,,,,0,2,2,6,,,,,,,AFNE11.jpg,AFSA04.jpg,AFSA12.jpg,AFNE16.jpg,AFSA04.jpg,FS,4,num_6,32,num_8,1.03344192512,,,2017_Aug_15_1129,60.0210414883,FEMA4ImagesEEG,001,100915,
AMNE23.JPG,AMNE24.JPG,AMNE22.JPG,AMSA24.JPG,AMSA22.JPG,AMSA23.JPG,,,,,,,,,,,,,,,,,0,3,3,9,,,,,,,AFSA06.jpg,AFNE02.jpg,AFSA18.jpg,AFNE19.jpg,AFSA06.jpg,FS,4,num_8,32,num_4,0.933227446469,,,2017_Aug_15_1129,60.0210414883,FEMA4ImagesEEG,001,100915,
AMNE22.JPG,AMSA24.JPG,AMSA22.JPG,AMNE25.JPG,AMNE24.JPG,AMSA25.JPG,,,,,,,,,,,,,,,,,0,4,4,7,,,,,,,AFNE04.jpg,AFSA11.jpg,AFNE17.jpg,AFSA13.jpg,AFSA11.jpg,FS,4,num_6,32,num_2,1.21675043854,,,2017_Aug_15_1129,60.0210414883,FEMA4ImagesEEG,001,100915,
AMSA21.JPG,AMNE22.JPG,AMNE21.JPG,AMSA23.JPG,AMSA22.JPG,AMNE23.JPG,,,,,,,,,,,,,,,,,0,5,5,1,,,,,,,AFNE18.jpg,AFNE08.jpg,AFSA13.jpg,AFSA09.jpg,AFNE18.jpg,FN,3,num_8,16,num_8,0.950118561421,,,2017_Aug_15_1129,60.0210414883,FEMA4ImagesEEG,001,100915,
AMSA21.JPG,AMNE23.JPG,AMNE21.JPG,AMSA25.JPG,AMNE25.JPG,AMSA23.JPG,,,,,,,,,,,,,,,,,0,6,6,5,,,,,,,AFNE14.jpg,AFNE19.jpg,AFSA06.jpg,AFSA12.jpg,AFNE14.jpg,FN,3,num_8,32,num_6,1.05012391778,,,2017_Aug_15_1129,60.0210414883,FEMA4ImagesEEG,001,100915,
AFSA25.JPG,AFNE24.JPG,AFSA24.JPG,AFNE21.JPG,AFSA21.JPG,AFNE25.JPG,,,,,,,,,,,,,,,,,0,7,7,2,,,,,,,AFNE05.jpg,AFSA04.jpg,AFSA16.jpg,AFNE18.jpg,AFNE18.jpg,FN,3,num_4,32,num_8,0.850109356208,,,2017_Aug_15_1129,60.0210414883,FEMA4ImagesEEG,001,100915,
AMSA25.JPG,AMNE24.JPG,AMSA24.JPG,AMNE26.JPG,AMSA21.JPG,AMNE25.JPG,,,,,,,,,,,,,,,,,0,8,8,3,,,,,,,AFNE08.jpg,AFNE11.jpg,AFSA03.jpg,AFSA10.jpg,AFNE11.jpg,FN,3,num_6,32,num_2,1.01676217761,,,2017_Aug_15_1129,60.0210414883,FEMA4ImagesEEG,001,100915,
AFSA21.JPG,AFNE22.JPG,AFNE21.JPG,AFSA23.JPG,AFSA22.JPG,AFNE23.JPG,,,,,,,,,,,,,,,,,0,9,9,0,,,,,,,AFSA02.jpg,AFNE01.jpg,AFNE05.jpg,AFSA10.jpg,AFSA10.jpg,FS,4,num_4,16,num_4,0.783476645171,,,2017_Aug_15_1129,60.0210414883,FEMA4ImagesEEG,001,100915,
AFSA21.JPG,AFNE23.JPG,AFNE21.JPG,AFSA25.JPG,AFNE25.JPG,AFSA23.JPG,,,,,,,,,,,,,,,,,,,,,0,0,0,4,,,AMSA15.jpg,AMNE07.jpg,AMSA18.jpg,AMNE05.jpg,AMSA18.jpg,MS,2,num_2,16,num_2,0.78345387266,,,2017_Aug_15_1129,60.0210414883,FEMA4ImagesEEG,001,100915,
AFSA25.JPG,AFNE24.JPG,AFSA24.JPG,AFNE21.JPG,AFSA21.JPG,AFNE25.JPG,,,,,,,,,,,,,,,,,,,,,0,1,1,2,,,AMSA16.jpg,AMNE15.jpg,AMNE07.jpg,AMSA12.jpg,AMNE15.jpg,MN,1,num_6,32,num_8,2.84979888017,,,2017_Aug_15_1129,60.0210414883,FEMA4ImagesEEG,001,100915,
AMSA21.JPG,AMNE22.JPG,AMNE21.JPG,AMSA23.JPG,AMSA22.JPG,AMNE23.JPG,,,,,,,,,,,,,,,,,,,,,0,2,2,1,,,AMNE20.jpg,AMSA06.jpg,AMNE01.jpg,AMSA19.jpg,AMNE01.jpg,MN,1,num_2,32,num_8,1.4166970033,,,2017_Aug_15_1129,60.0210414883,FEMA4ImagesEEG,001,100915,
AFSA21.JPG,AFNE22.JPG,AFNE21.JPG,AFSA23.JPG,AFSA22.JPG,AFNE23.JPG,,,,,,,,,,,,,,,,,,,,,0,3,3,0,,,AMNE02.jpg,AMSA02.jpg,AMSA01.jpg,AMNE04.jpg,AMNE04.jpg,MN,1,num_4,32,num_8,0.76675488078,,,2017_Aug_15_1129,60.0210414883,FEMA4ImagesEEG,001,100915,
AMNE23.JPG,AMNE24.JPG,AMNE22.JPG,AMSA24.JPG,AMSA22.JPG,AMSA23.JPG,,,,,,,,,,,,,,,,,,,,,0,4,4,9,,,AMNE08.jpg,AMSA07.jpg,AMNE06.jpg,AMSA06.jpg,AMSA07.jpg,MS,2,num_6,16,num_6,0.583443801443,,,2017_Aug_15_1129,60.0210414883,FEMA4ImagesEEG,001,100915,
AMSA25.JPG,AMNE24.JPG,AMSA24.JPG,AMNE26.JPG,AMSA21.JPG,AMNE25.JPG,,,,,,,,,,,,,,,,,,,,,0,5,5,3,,,AMNE04.jpg,AMSA14.jpg,AMSA07.jpg,AMNE06.jpg,AMSA14.jpg,MS,2,num_6,16,num_6,0.53348955496,,,2017_Aug_15_1129,60.0210414883,FEMA4ImagesEEG,001,100915,
AMNE22.JPG,AMSA24.JPG,AMSA22.JPG,AMNE25.JPG,AMNE24.JPG,AMSA25.JPG,,,,,,,,,,,,,,,,,,,,,0,6,6,7,,,AMSA04.jpg,AMSA05.jpg,AMNE17.jpg,AMNE01.jpg,AMNE17.jpg,MN,1,num_2,32,num_8,1.16676251437,,,2017_Aug_15_1129,60.0210414883,FEMA4ImagesEEG,001,100915,
AFNE23.JPG,AFNE24.JPG,AFNE22.JPG,AFSA24.JPG,AFSA22.JPG,AFSA23.JPG,,,,,,,,,,,,,,,,,,,,,0,7,7,8,,,AMNE15.jpg,AMNE16.jpg,AMSA02.jpg,AMSA15.jpg,AMNE15.jpg,MN,1,num_8,32,num_4,1.39507144959,,,2017_Aug_15_1129,60.0210414883,FEMA4ImagesEEG,001,100915,
AFNE22.JPG,AFSA24.JPG,AFSA22.JPG,AFNE25.JPG,AFNE24.JPG,AFSA25.JPG,,,,,,,,,,,,,,,,,,,,,0,8,8,6,,,AMSA05.jpg,AMNE10.jpg,AMSA09.jpg,AMNE12.jpg,AMNE12.jpg,MN,1,num_4,32,num_8,1.11672295113,,,2017_Aug_15_1129,60.0210414883,FEMA4ImagesEEG,001,100915,
AMSA21.JPG,AMNE23.JPG,AMNE21.JPG,AMSA25.JPG,AMNE25.JPG,AMSA23.JPG,,,,,,,,,,,,,,,,,,,,,0,9,9,5,,,AMSA09.jpg,AMSA06.jpg,AMNE17.jpg,AMNE18.jpg,AMNE18.jpg,MN,1,num_4,32,num_2,0.800138431252,,,2017_Aug_15_1129,60.0210414883,FEMA4ImagesEEG,001,100915,
,,,,,,,,,,,,,,,,,,,,,,,,,,,,,,,,,,,,,,,,,,,space,14.9820908572,2017_Aug_15_1129,60.0210414883,FEMA4ImagesEEG,001,100915,
AFNE01.JPG,AFNE01.JPG,AFNE01.JPG,AFNE01.JPG,AFNE01.JPG,AFNE01.JPG,0,0,0,2,,,,,,,,,,,,,,,,,,,,,,,AFNE03.jpg,AFSA17.jpg,AFNE08.jpg,AFSA12.jpg,AFSA12.jpg,FS,4,num_4,32,num_2,1.56669445342,,,2017_Aug_15_1129,60.0210414883,FEMA4ImagesEEG,001,100915,
AFNE01.JPG,AFNE01.JPG,AFNE01.JPG,AFNE01.JPG,AFNE01.JPG,AFNE01.JPG,0,1,1,5,,,,,,,,,,,,,,,,,,,,,,,AFNE20.jpg,AFSA13.jpg,AFNE11.jpg,AFSA11.jpg,AFSA13.jpg,FS,4,num_6,32,num_2,0.700128263794,,,2017_Aug_15_1129,60.0210414883,FEMA4ImagesEEG,001,100915,
AFNE01.JPG,AFNE01.JPG,AFNE01.JPG,AFNE01.JPG,AFNE01.JPG,AFNE01.JPG,0,2,2,7,,,,,,,,,,,,,,,,,,,,,,,AFSA09.jpg,AFSA10.jpg,AFNE15.jpg,AFNE04.jpg,AFSA10.jpg,FS,4,num_6,32,num_8,1.2670132366,,,2017_Aug_15_1129,60.0210414883,FEMA4ImagesEEG,001,100915,
AFNE01.JPG,AFNE01.JPG,AFNE01.JPG,AFNE01.JPG,AFNE01.JPG,AFNE01.JPG,0,3,3,6,,,,,,,,,,,,,,,,,,,,,,,AFSA04.jpg,AFSA10.jpg,AFNE05.jpg,AFNE15.jpg,AFNE05.jpg,FN,3,num_2,16,num_2,0.98343283213,,,2017_Aug_15_1129,60.0210414883,FEMA4ImagesEEG,001,100915,
AFNE01.JPG,AFNE01.JPG,AFNE01.JPG,AFNE01.JPG,AFNE01.JPG,AFNE01.JPG,0,4,4,0,,,,,,,,,,,,,,,,,,,,,,,AFSA15.jpg,AFSA03.jpg,AFNE20.jpg,AFNE12.jpg,AFSA03.jpg,FS,4,num_6,16,num_6,0.816749219724,,,2017_Aug_15_1129,60.0210414883,FEMA4ImagesEEG,001,100915,
AFNE01.JPG,AFNE01.JPG,AFNE01.JPG,AFNE01.JPG,AFNE01.JPG,AFNE01.JPG,0,5,5,1,,,,,,,,,,,,,,,,,,,,,,,AFNE19.jpg,AFSA10.jpg,AFNE18.jpg,AFSA13.jpg,AFNE19.jpg,FN,3,num_8,16,num_8,1.38338305333,,,2017_Aug_15_1129,60.0210414883,FEMA4ImagesEEG,001,100915,
AFNE01.JPG,AFNE01.JPG,AFNE01.JPG,AFNE01.JPG,AFNE01.JPG,AFNE01.JPG,0,6,6,9,,,,,,,,,,,,,,,,,,,,,,,AFNE08.jpg,AFSA18.jpg,AFSA20.jpg,AFNE04.jpg,AFSA20.jpg,FS,4,num_2,16,num_2,0.983500508213,,,2017_Aug_15_1129,60.0210414883,FEMA4ImagesEEG,001,100915,
AFNE01.JPG,AFNE01.JPG,AFNE01.JPG,AFNE01.JPG,AFNE01.JPG,AFNE01.JPG,0,7,7,4,,,,,,,,,,,,,,,,,,,,,,,AFSA16.jpg,AFSA06.jpg,AFNE18.jpg,AFNE01.jpg,AFSA06.jpg,FS,4,num_6,16,num_6,0.566775600571,,,2017_Aug_15_1129,60.0210414883,FEMA4ImagesEEG,001,100915,
AFNE01.JPG,AFNE01.JPG,AFNE01.JPG,AFNE01.JPG,AFNE01.JPG,AFNE01.JPG,0,8,8,3,,,,,,,,,,,,,,,,,,,,,,,AFSA11.jpg,AFSA05.jpg,AFNE06.jpg,AFNE18.jpg,AFSA05.jpg,FS,4,num_6,16,num_6,0.550117021878,,,2017_Aug_15_1129,60.0210414883,FEMA4ImagesEEG,001,100915,
AFNE01.JPG,AFNE01.JPG,AFNE01.JPG,AFNE01.JPG,AFNE01.JPG,AFNE01.JPG,0,9,9,8,,,,,,,,,,,,,,,,,,,,,,,AFSA15.jpg,AFNE03.jpg,AFNE02.jpg,AFSA12.jpg,AFSA15.jpg,FS,4,num_8,16,num_8,1.00009558044,,,2017_Aug_15_1129,60.0210414883,FEMA4ImagesEEG,001,100915,
AFNE01.JPG,AFNE01.JPG,AFNE01.JPG,AFNE01.JPG,AFNE01.JPG,AFNE01.JPG,1,0,10,4,,,,,,,,,,,,,,,,,,,,,,,AFSA20.jpg,AFNE20.jpg,AFSA02.jpg,AFNE05.jpg,AFNE20.jpg,FN,3,num_6,16,num_6,0.56682916409,,,2017_Aug_15_1129,60.0210414883,FEMA4ImagesEEG,001,100915,
AFNE01.JPG,AFNE01.JPG,AFNE01.JPG,AFNE01.JPG,AFNE01.JPG,AFNE01.JPG,1,1,11,3,,,,,,,,,,,,,,,,,,,,,,,AFNE12.jpg,AFSA09.jpg,AFNE09.jpg,AFSA06.jpg,AFNE12.jpg,FN,3,num_8,16,num_8,0.866742917191,,,2017_Aug_15_1129,60.0210414883,FEMA4ImagesEEG,001,100915,
AFNE01.JPG,AFNE01.JPG,AFNE01.JPG,AFNE01.JPG,AFNE01.JPG,AFNE01.JPG,1,2,12,9,,,,,,,,,,,,,,,,,,,,,,,AFSA04.jpg,AFNE12.jpg,AFSA08.jpg,AFNE18.jpg,AFNE12.jpg,FN,3,num_6,16,num_6,0.633522174176,,,2017_Aug_15_1129,60.0210414883,FEMA4ImagesEEG,001,100915,
AFNE01.JPG,AFNE01.JPG,AFNE01.JPG,AFNE01.JPG,AFNE01.JPG,AFNE01.JPG,1,3,13,2,,,,,,,,,,,,,,,,,,,,,,,AFSA08.jpg,AFSA15.jpg,AFNE15.jpg,AFNE10.jpg,AFSA15.jpg,FS,4,num_6,32,num_2,0.833524868402,,,2017_Aug_15_1129,60.0210414883,FEMA4ImagesEEG,001,100915,
AFNE01.JPG,AFNE01.JPG,AFNE01.JPG,AFNE01.JPG,AFNE01.JPG,AFNE01.JPG,1,4,14,0,,,,,,,,,,,,,,,,,,,,,,,AFNE03.jpg,AFSA18.jpg,AFSA20.jpg,AFNE19.jpg,AFNE03.jpg,FN,3,num_8,16,num_8,1.06663463546,,,2017_Aug_15_1129,60.0210414883,FEMA4ImagesEEG,001,100915,
AFNE01.JPG,AFNE01.JPG,AFNE01.JPG,AFNE01.JPG,AFNE01.JPG,AFNE01.JPG,1,5,15,5,,,,,,,,,,,,,,,,,,,,,,,AFSA20.jpg,AFSA15.jpg,AFNE12.jpg,AFNE19.jpg,AFSA20.jpg,FS,4,num_8,16,num_8,0.700105170545,,,2017_Aug_15_1129,60.0210414883,FEMA4ImagesEEG,001,100915,
AFNE01.JPG,AFNE01.JPG,AFNE01.JPG,AFNE01.JPG,AFNE01.JPG,AFNE01.JPG,1,6,16,7,,,,,,,,,,,,,,,,,,,,,,,AFNE18.jpg,AFNE07.jpg,AFSA10.jpg,AFSA15.jpg,AFSA10.jpg,FS,4,num_2,16,num_2,1.15007667283,,,2017_Aug_15_1129,60.0210414883,FEMA4ImagesEEG,001,100915,
AFNE01.JPG,AFNE01.JPG,AFNE01.JPG,AFNE01.JPG,AFNE01.JPG,AFNE01.JPG,1,7,17,8,,,,,,,,,,,,,,,,,,,,,,,AFNE02.jpg,AFNE14.jpg,AFSA04.jpg,AFSA09.jpg,AFNE14.jpg,FN,3,num_6,32,num_8,1.00010969298,,,2017_Aug_15_1129,60.0210414883,FEMA4ImagesEEG,001,100915,
AFNE01.JPG,AFNE01.JPG,AFNE01.JPG,AFNE01.JPG,AFNE01.JPG,AFNE01.JPG,1,8,18,1,,,,,,,,,,,,,,,,,,,,,,,AFSA18.jpg,AFSA02.jpg,AFNE20.jpg,AFNE03.jpg,AFSA18.jpg,FS,4,num_8,32,num_4,1.05016978357,,,2017_Aug_15_1129,60.0210414883,FEMA4ImagesEEG,001,100915,
AFNE01.JPG,AFNE01.JPG,AFNE01.JPG,AFNE01.JPG,AFNE01.JPG,AFNE01.JPG,1,9,19,6,,,,,,,,,,,,,,,,,,,,,,,AFNE03.jpg,AFSA14.jpg,AFNE07.jpg,AFSA09.jpg,AFNE07.jpg,FN,3,num_2,32,num_8,1.71667971542,,,2017_Aug_15_1129,60.0210414883,FEMA4ImagesEEG,001,100915,
AFNE01.JPG,AFNE01.JPG,AFNE01.JPG,AFNE01.JPG,AFNE01.JPG,AFNE01.JPG,2,0,20,1,,,,,,,,,,,,,,,,,,,,,,,AFNE11.jpg,AFSA11.jpg,AFSA20.jpg,AFNE08.jpg,AFSA11.jpg,FS,4,num_6,16,num_6,0.483459293158,,,2017_Aug_15_1129,60.0210414883,FEMA4ImagesEEG,001,100915,
AFNE01.JPG,AFNE01.JPG,AFNE01.JPG,AFNE01.JPG,AFNE01.JPG,AFNE01.JPG,2,1,21,2,,,,,,,,,,,,,,,,,,,,,,,AFNE17.jpg,AFSA03.jpg,AFNE14.jpg,AFSA19.jpg,AFSA03.jpg,FS,4,num_6,32,num_4,1.36644960073,,,2017_Aug_15_1129,60.0210414883,FEMA4ImagesEEG,001,100915,
AFNE01.JPG,AFNE01.JPG,AFNE01.JPG,AFNE01.JPG,AFNE01.JPG,AFNE01.JPG,2,2,22,3,,,,,,,,,,,,,,,,,,,,,,,AFSA01.jpg,AFNE15.jpg,AFNE05.jpg,AFSA15.jpg,AFNE15.jpg,FN,3,num_6,16,num_6,0.68346936439,,,2017_Aug_15_1129,60.0210414883,FEMA4ImagesEEG,001,100915,
AFNE01.JPG,AFNE01.JPG,AFNE01.JPG,AFNE01.JPG,AFNE01.JPG,AFNE01.JPG,2,3,23,9,,,,,,,,,,,,,,,,,,,,,,,AFNE10.jpg,AFSA03.jpg,AFNE08.jpg,AFSA04.jpg,AFNE08.jpg,FN,3,num_2,32,num_6,0.816825876507,,,2017_Aug_15_1129,60.0210414883,FEMA4ImagesEEG,001,100915,
AFNE01.JPG,AFNE01.JPG,AFNE01.JPG,AFNE01.JPG,AFNE01.JPG,AFNE01.JPG,2,4,24,0,,,,,,,,,,,,,,,,,,,,,,,AFNE02.jpg,AFSA10.jpg,AFSA14.jpg,AFNE18.jpg,AFSA10.jpg,FS,4,num_6,32,num_2,0.883462757149,,,2017_Aug_15_1129,60.0210414883,FEMA4ImagesEEG,001,100915,
AFNE01.JPG,AFNE01.JPG,AFNE01.JPG,AFNE01.JPG,AFNE01.JPG,AFNE01.JPG,2,5,25,8,,,,,,,,,,,,,,,,,,,,,,,AFNE02.jpg,AFSA17.jpg,AFSA15.jpg,AFNE17.jpg,AFNE17.jpg,FN,3,num_4,32,num_8,1.28352459575,,,2017_Aug_15_1129,60.0210414883,FEMA4ImagesEEG,001,100915,
AFNE01.JPG,AFNE01.JPG,AFNE01.JPG,AFNE01.JPG,AFNE01.JPG,AFNE01.JPG,2,6,26,4,,,,,,,,,,,,,,,,,,,,,,,AFNE14.jpg,AFNE11.jpg,AFSA17.jpg,AFSA18.jpg,AFSA18.jpg,FS,4,num_4,16,num_4,0.549972368288,,,2017_Aug_15_1129,60.0210414883,FEMA4ImagesEEG,001,100915,
AFNE01.JPG,AFNE01.JPG,AFNE01.JPG,AFNE01.JPG,AFNE01.JPG,AFNE01.JPG,2,7,27,5,,,,,,,,,,,,,,,,,,,,,,,AFSA10.jpg,AFNE15.jpg,AFNE05.jpg,AFSA18.jpg,AFNE05.jpg,FN,3,num_2,32,num_8,1.45009979815,,,2017_Aug_15_1129,60.0210414883,FEMA4ImagesEEG,001,100915,
AFNE01.JPG,AFNE01.JPG,AFNE01.JPG,AFNE01.JPG,AFNE01.JPG,AFNE01.JPG,2,8,28,6,,,,,,,,,,,,,,,,,,,,,,,AFSA20.jpg,AFSA16.jpg,AFNE20.jpg,AFNE08.jpg,AFNE20.jpg,FN,3,num_2,16,num_2,0.6834315171,,,2017_Aug_15_1129,60.0210414883,FEMA4ImagesEEG,001,100915,
AFNE01.JPG,AFNE01.JPG,AFNE01.JPG,AFNE01.JPG,AFNE01.JPG,AFNE01.JPG,2,9,29,7,,,,,,,,,,,,,,,,,,,,,,,AFNE14.jpg,AFSA18.jpg,AFSA11.jpg,AFNE17.jpg,AFSA11.jpg,FS,4,num_2,32,num_4,1.28335877335,,,2017_Aug_15_1129,60.0210414883,FEMA4ImagesEEG,001,100915,
AFNE01.JPG,AFNE01.JPG,AFNE01.JPG,AFNE01.JPG,AFNE01.JPG,AFNE01.JPG,3,0,30,7,,,,,,,,,,,,,,,,,,,,,,,AFNE03.jpg,AFSA08.jpg,AFSA04.jpg,AFNE13.jpg,AFSA08.jpg,FS,4,num_6,16,num_6,0.916726350988,,,2017_Aug_15_1129,60.0210414883,FEMA4ImagesEEG,001,100915,
AFNE01.JPG,AFNE01.JPG,AFNE01.JPG,AFNE01.JPG,AFNE01.JPG,AFNE01.JPG,3,1,31,4,,,,,,,,,,,,,,,,,,,,,,,AFSA10.jpg,AFNE10.jpg,AFSA11.jpg,AFNE09.jpg,AFSA10.jpg,FS,4,num_8,32,num_6,1.08343113221,,,2017_Aug_15_1129,60.0210414883,FEMA4ImagesEEG,001,100915,
AFNE01.JPG,AFNE01.JPG,AFNE01.JPG,AFNE01.JPG,AFNE01.JPG,AFNE01.JPG,3,2,32,9,,,,,,,,,,,,,,,,,,,,,,,AFNE19.jpg,AFSA11.jpg,AFSA19.jpg,AFNE15.jpg,AFNE19.jpg,FN,3,num_8,32,num_2,1.3831412156,,,2017_Aug_15_1129,60.0210414883,FEMA4ImagesEEG,001,100915,
AFNE01.JPG,AFNE01.JPG,AFNE01.JPG,AFNE01.JPG,AFNE01.JPG,AFNE01.JPG,3,3,33,3,,,,,,,,,,,,,,,,,,,,,,,AFNE15.jpg,AFSA11.jpg,AFSA12.jpg,AFNE11.jpg,AFNE15.jpg,FN,3,num_8,16,num_8,0.750136394563,,,2017_Aug_15_1129,60.0210414883,FEMA4ImagesEEG,001,100915,
AFNE01.JPG,AFNE01.JPG,AFNE01.JPG,AFNE01.JPG,AFNE01.JPG,AFNE01.JPG,3,4,34,2,,,,,,,,,,,,,,,,,,,,,,,AFNE15.jpg,AFSA20.jpg,AFNE04.jpg,AFSA08.jpg,AFNE04.jpg,FN,3,num_2,16,num_2,0.950191690092,,,2017_Aug_15_1129,60.0210414883,FEMA4ImagesEEG,001,100915,
AFNE01.JPG,AFNE01.JPG,AFNE01.JPG,AFNE01.JPG,AFNE01.JPG,AFNE01.JPG,3,5,35,1,,,,,,,,,,,,,,,,,,,,,,,AFNE04.jpg,AFNE12.jpg,AFSA08.jpg,AFSA12.jpg,AFSA08.jpg,FS,4,num_2,16,num_2,1.28341169539,,,2017_Aug_15_1129,60.0210414883,FEMA4ImagesEEG,001,100915,
AFNE01.JPG,AFNE01.JPG,AFNE01.JPG,AFNE01.JPG,AFNE01.JPG,AFNE01.JPG,3,6,36,6,,,,,,,,,,,,,,,,,,,,,,,AFNE18.jpg,AFNE14.jpg,AFSA03.jpg,AFSA16.jpg,AFSA16.jpg,FS,4,num_4,16,num_4,0.816741201241,,,2017_Aug_15_1129,60.0210414883,FEMA4ImagesEEG,001,100915,
AFNE01.JPG,AFNE01.JPG,AFNE01.JPG,AFNE01.JPG,AFNE01.JPG,AFNE01.JPG,3,7,37,8,,,,,,,,,,,,,,,,,,,,,,,AFNE12.jpg,AFSA03.jpg,AFNE13.jpg,AFSA16.jpg,AFNE12.jpg,FN,3,num_8,16,num_8,0.900094393699,,,2017_Aug_15_1129,60.0210414883,FEMA4ImagesEEG,001,100915,
AFNE01.JPG,AFNE01.JPG,AFNE01.JPG,AFNE01.JPG,AFNE01.JPG,AFNE01.JPG,3,8,38,5,,,,,,,,,,,,,,,,,,,,,,,AFSA19.jpg,AFNE03.jpg,AFSA10.jpg,AFNE11.jpg,AFNE11.jpg,FN,3,num_4,16,num_4,0.933433361351,,,2017_Aug_15_1129,60.0210414883,FEMA4ImagesEEG,001,100915,
AFNE01.JPG,AFNE01.JPG,AFNE01.JPG,AFNE01.JPG,AFNE01.JPG,AFNE01.JPG,3,9,39,0,,,,,,,,,,,,,,,,,,,,,,,AFSA20.jpg,AFNE05.jpg,AFNE13.jpg,AFSA02.jpg,AFSA02.jpg,FS,4,num_4,32,num_2,1.6000683817,,,2017_Aug_15_1129,60.0210414883,FEMA4ImagesEEG,001,100915,
AFNE01.JPG,AFNE01.JPG,AFNE01.JPG,AFNE01.JPG,AFNE01.JPG,AFNE01.JPG,4,0,40,3,,,,,,,,,,,,,,,,,,,,,,,AFNE03.jpg,AFSA04.jpg,AFSA02.jpg,AFNE10.jpg,AFSA04.jpg,FS,4,num_6,16,num_6,0.466767999038,,,2017_Aug_15_1129,60.0210414883,FEMA4ImagesEEG,001,100915,
AFNE01.JPG,AFNE01.JPG,AFNE01.JPG,AFNE01.JPG,AFNE01.JPG,AFNE01.JPG,4,1,41,2,,,,,,,,,,,,,,,,,,,,,,,AFSA16.jpg,AFSA03.jpg,AFNE16.jpg,AFNE09.jpg,AFNE16.jpg,FN,3,num_2,16,num_2,1.05013161554,,,2017_Aug_15_1129,60.0210414883,FEMA4ImagesEEG,001,100915,
AFNE01.JPG,AFNE01.JPG,AFNE01.JPG,AFNE01.JPG,AFNE01.JPG,AFNE01.JPG,4,2,42,8,,,,,,,,,,,,,,,,,,,,,,,AFSA20.jpg,AFNE14.jpg,AFSA14.jpg,AFNE07.jpg,AFNE07.jpg,FN,3,num_4,16,num_4,0.533528685191,,,2017_Aug_15_1129,60.0210414883,FEMA4ImagesEEG,001,100915,
AFNE01.JPG,AFNE01.JPG,AFNE01.JPG,AFNE01.JPG,AFNE01.JPG,AFNE01.JPG,4,3,43,1,,,,,,,,,,,,,,,,,,,,,,,AFSA11.jpg,AFNE08.jpg,AFSA20.jpg,AFNE05.jpg,AFNE05.jpg,FN,3,num_4,32,num_2,1.21672606231,,,2017_Aug_15_1129,60.0210414883,FEMA4ImagesEEG,001,100915,
AFNE01.JPG,AFNE01.JPG,AFNE01.JPG,AFNE01.JPG,AFNE01.JPG,AFNE01.JPG,4,4,44,5,,,,,,,,,,,,,,,,,,,,,,,AFNE08.jpg,AFSA13.jpg,AFSA01.jpg,AFNE19.jpg,AFSA13.jpg,FS,4,num_6,32,num_2,2.26652282559,,,2017_Aug_15_1129,60.0210414883,FEMA4ImagesEEG,001,100915,
AFNE01.JPG,AFNE01.JPG,AFNE01.JPG,AFNE01.JPG,AFNE01.JPG,AFNE01.JPG,4,5,45,9,,,,,,,,,,,,,,,,,,,,,,,AFNE06.jpg,AFNE05.jpg,AFSA16.jpg,AFSA18.jpg,AFSA16.jpg,FS,4,num_2,32,num_4,0.800129129813,,,2017_Aug_15_1129,60.0210414883,FEMA4ImagesEEG,001,100915,
AFNE01.JPG,AFNE01.JPG,AFNE01.JPG,AFNE01.JPG,AFNE01.JPG,AFNE01.JPG,4,6,46,6,,,,,,,,,,,,,,,,,,,,,,,AFNE11.jpg,AFNE10.jpg,AFSA09.jpg,AFSA08.jpg,AFSA08.jpg,FS,4,num_4,32,num_6,0.51684669251,,,2017_Aug_15_1129,60.0210414883,FEMA4ImagesEEG,001,100915,
AFNE01.JPG,AFNE01.JPG,AFNE01.JPG,AFNE01.JPG,AFNE01.JPG,AFNE01.JPG,4,7,47,7,,,,,,,,,,,,,,,,,,,,,,,AFSA18.jpg,AFNE10.jpg,AFNE14.jpg,AFSA08.jpg,AFNE10.jpg,FN,3,num_6,16,num_6,0.566831730001,,,2017_Aug_15_1129,60.0210414883,FEMA4ImagesEEG,001,100915,
AFNE01.JPG,AFNE01.JPG,AFNE01.JPG,AFNE01.JPG,AFNE01.JPG,AFNE01.JPG,4,8,48,0,,,,,,,,,,,,,,,,,,,,,,,AFSA07.jpg,AFNE05.jpg,AFSA17.jpg,AFNE06.jpg,AFNE06.jpg,FN,3,num_4,16,num_4,1.21675460815,,,2017_Aug_15_1129,60.0210414883,FEMA4ImagesEEG,001,100915,
AFNE01.JPG,AFNE01.JPG,AFNE01.JPG,AFNE01.JPG,AFNE01.JPG,AFNE01.JPG,4,9,49,4,,,,,,,,,,,,,,,,,,,,,,,AFNE07.jpg,AFNE16.jpg,AFSA07.jpg,AFSA10.jpg,AFNE07.jpg,FN,3,num_8,16,num_8,0.783456759324,,,2017_Aug_15_1129,60.0210414883,FEMA4ImagesEEG,001,100915,
AFNE01.JPG,AFNE01.JPG,AFNE01.JPG,AFNE01.JPG,AFNE01.JPG,AFNE01.JPG,5,0,50,1,,,,,,,,,,,,,,,,,,,,,,,AFSA10.jpg,AFSA06.jpg,AFNE04.jpg,AFNE19.jpg,AFSA10.jpg,FS,4,num_8,32,num_2,0.966706577383,,,2017_Aug_15_1129,60.0210414883,FEMA4ImagesEEG,001,100915,
AFNE01.JPG,AFNE01.JPG,AFNE01.JPG,AFNE01.JPG,AFNE01.JPG,AFNE01.JPG,5,1,51,4,,,,,,,,,,,,,,,,,,,,,,,AFSA09.jpg,AFNE09.jpg,AFSA17.jpg,AFNE19.jpg,AFNE09.jpg,FN,3,num_6,32,num_8,0.950111184429,,,2017_Aug_15_1129,60.0210414883,FEMA4ImagesEEG,001,100915,
AFNE01.JPG,AFNE01.JPG,AFNE01.JPG,AFNE01.JPG,AFNE01.JPG,AFNE01.JPG,5,2,52,0,,,,,,,,,,,,,,,,,,,,,,,AFNE04.jpg,AFSA13.jpg,AFSA17.jpg,AFNE01.jpg,AFSA13.jpg,FS,4,num_6,32,num_2,1.21671451569,,,2017_Aug_15_1129,60.0210414883,FEMA4ImagesEEG,001,100915,
AFNE01.JPG,AFNE01.JPG,AFNE01.JPG,AFNE01.JPG,AFNE01.JPG,AFNE01.JPG,5,3,53,3,,,,,,,,,,,,,,,,,,,,,,,AFNE04.jpg,AFSA17.jpg,AFSA03.jpg,AFNE03.jpg,AFNE03.jpg,FN,3,num_4,32,num_6,0.683478665844,,,2017_Aug_15_1129,60.0210414883,FEMA4ImagesEEG,001,100915,
AFNE01.JPG,AFNE01.JPG,AFNE01.JPG,AFNE01.JPG,AFNE01.JPG,AFNE01.JPG,5,4,54,2,,,,,,,,,,,,,,,,,,,,,,,AFSA01.jpg,AFNE11.jpg,AFSA17.jpg,AFNE09.jpg,AFSA17.jpg,FS,4,num_2,32,num_6,0.650115963435,,,2017_Aug_15_1129,60.0210414883,FEMA4ImagesEEG,001,100915,
AFNE01.JPG,AFNE01.JPG,AFNE01.JPG,AFNE01.JPG,AFNE01.JPG,AFNE01.JPG,5,5,55,6,,,,,,,,,,,,,,,,,,,,,,,AFSA01.jpg,AFNE18.jpg,AFNE15.jpg,AFSA06.jpg,AFSA06.jpg,FS,4,num_4,32,num_8,1.11674893106,,,2017_Aug_15_1129,60.0210414883,FEMA4ImagesEEG,001,100915,
AFNE01.JPG,AFNE01.JPG,AFNE01.JPG,AFNE01.JPG,AFNE01.JPG,AFNE01.JPG,5,6,56,9,,,,,,,,,,,,,,,,,,,,,,,AFSA02.jpg,AFSA08.jpg,AFNE16.jpg,AFNE01.jpg,AFSA02.jpg,FS,4,num_8,32,num_2,0.766783426618,,,2017_Aug_15_1129,60.0210414883,FEMA4ImagesEEG,001,100915,
AFNE01.JPG,AFNE01.JPG,AFNE01.JPG,AFNE01.JPG,AFNE01.JPG,AFNE01.JPG,5,7,57,7,,,,,,,,,,,,,,,,,,,,,,,AFSA08.jpg,AFNE14.jpg,AFNE09.jpg,AFSA01.jpg,AFNE14.jpg,FN,3,num_6,16,num_6,1.10014167071,,,2017_Aug_15_1129,60.0210414883,FEMA4ImagesEEG,001,100915,
AFNE01.JPG,AFNE01.JPG,AFNE01.JPG,AFNE01.JPG,AFNE01.JPG,AFNE01.JPG,5,8,58,5,,,,,,,,,,,,,,,,,,,,,,,AFSA10.jpg,AFSA11.jpg,AFNE15.jpg,AFNE09.jpg,AFSA10.jpg,FS,4,num_8,32,num_4,1.03344866064,,,2017_Aug_15_1129,60.0210414883,FEMA4ImagesEEG,001,100915,
AFNE01.JPG,AFNE01.JPG,AFNE01.JPG,AFNE01.JPG,AFNE01.JPG,AFNE01.JPG,5,9,59,8,,,,,,,,,,,,,,,,,,,,,,,AFSA08.jpg,AFNE01.jpg,AFNE11.jpg,AFSA16.jpg,AFSA16.jpg,FS,4,num_4,32,num_6,0.800150619369,,,2017_Aug_15_1129,60.0210414883,FEMA4ImagesEEG,001,100915,
,,,,,,,,,,,,,,,,,,,,,,,,,,,,,,,,,,,,,,,,,,,space,23.231694022,2017_Aug_15_1129,60.0210414883,FEMA4ImagesEEG,001,100915,
AFNE01.JPG,AFNE01.JPG,AFNE01.JPG,AFNE01.JPG,AFNE01.JPG,AFNE01.JPG,,,,,0,0,0,3,,,,,,,,,,,,,,,,,,,AMSA13.jpg,AMSA17.jpg,AMNE07.jpg,AMNE03.jpg,AMSA13.jpg,MS,2,num_8,16,num_8,0.850123789482,,,2017_Aug_15_1129,60.0210414883,FEMA4ImagesEEG,001,100915,
AFNE01.JPG,AFNE01.JPG,AFNE01.JPG,AFNE01.JPG,AFNE01.JPG,AFNE01.JPG,,,,,0,1,1,2,,,,,,,,,,,,,,,,,,,AMSA07.jpg,AMSA01.jpg,AMNE11.jpg,AMNE04.jpg,AMSA01.jpg,MS,2,num_6,16,num_6,0.900207294078,,,2017_Aug_15_1129,60.0210414883,FEMA4ImagesEEG,001,100915,
AFNE01.JPG,AFNE01.JPG,AFNE01.JPG,AFNE01.JPG,AFNE01.JPG,AFNE01.JPG,,,,,0,2,2,4,,,,,,,,,,,,,,,,,,,AMSA09.jpg,AMSA11.jpg,AMNE06.jpg,AMNE07.jpg,AMSA09.jpg,MS,2,num_8,16,num_8,0.866771783767,,,2017_Aug_15_1129,60.0210414883,FEMA4ImagesEEG,001,100915,
AFNE01.JPG,AFNE01.JPG,AFNE01.JPG,AFNE01.JPG,AFNE01.JPG,AFNE01.JPG,,,,,0,3,3,8,,,,,,,,,,,,,,,,,,,AMNE16.jpg,AMSA13.jpg,AMNE09.jpg,AMSA05.jpg,AMSA13.jpg,MS,2,num_6,16,num_6,0.81689355259,,,2017_Aug_15_1129,60.0210414883,FEMA4ImagesEEG,001,100915,
AFNE01.JPG,AFNE01.JPG,AFNE01.JPG,AFNE01.JPG,AFNE01.JPG,AFNE01.JPG,,,,,0,4,4,6,,,,,,,,,,,,,,,,,,,AMNE14.jpg,AMNE09.jpg,AMSA04.jpg,AMSA03.jpg,AMNE09.jpg,MN,1,num_6,16,num_6,0.58344700883,,,2017_Aug_15_1129,60.0210414883,FEMA4ImagesEEG,001,100915,
AFNE01.JPG,AFNE01.JPG,AFNE01.JPG,AFNE01.JPG,AFNE01.JPG,AFNE01.JPG,,,,,0,5,5,0,,,,,,,,,,,,,,,,,,,AMNE18.jpg,AMSA18.jpg,AMNE14.jpg,AMSA12.jpg,AMNE14.jpg,MN,1,num_2,32,num_8,1.30010138583,,,2017_Aug_15_1129,60.0210414883,FEMA4ImagesEEG,001,100915,
AFNE01.JPG,AFNE01.JPG,AFNE01.JPG,AFNE01.JPG,AFNE01.JPG,AFNE01.JPG,,,,,0,6,6,1,,,,,,,,,,,,,,,,,,,AMSA15.jpg,AMNE02.jpg,AMSA12.jpg,AMNE16.jpg,AMNE02.jpg,MN,1,num_6,16,num_6,1.23340773425,,,2017_Aug_15_1129,60.0210414883,FEMA4ImagesEEG,001,100915,
AFNE01.JPG,AFNE01.JPG,AFNE01.JPG,AFNE01.JPG,AFNE01.JPG,AFNE01.JPG,,,,,0,7,7,9,,,,,,,,,,,,,,,,,,,AMNE19.jpg,AMSA13.jpg,AMSA17.jpg,AMNE07.jpg,AMSA13.jpg,MS,2,num_6,32,num_8,1.23342890307,,,2017_Aug_15_1129,60.0210414883,FEMA4ImagesEEG,001,100915,
AFNE01.JPG,AFNE01.JPG,AFNE01.JPG,AFNE01.JPG,AFNE01.JPG,AFNE01.JPG,,,,,0,8,8,7,,,,,,,,,,,,,,,,,,,AMSA05.jpg,AMNE13.jpg,AMNE11.jpg,AMSA18.jpg,AMNE11.jpg,MN,1,num_2,32,num_8,1.48339803188,,,2017_Aug_15_1129,60.0210414883,FEMA4ImagesEEG,001,100915,
AFNE01.JPG,AFNE01.JPG,AFNE01.JPG,AFNE01.JPG,AFNE01.JPG,AFNE01.JPG,,,,,0,9,9,5,,,,,,,,,,,,,,,,,,,AMNE09.jpg,AMNE14.jpg,AMSA01.jpg,AMSA17.jpg,AMSA01.jpg,MS,2,num_2,16,num_2,1.21676551329,,,2017_Aug_15_1129,60.0210414883,FEMA4ImagesEEG,001,100915,
AFNE01.JPG,AFNE01.JPG,AFNE01.JPG,AFNE01.JPG,AFNE01.JPG,AFNE01.JPG,,,,,1,0,10,0,,,,,,,,,,,,,,,,,,,AMNE08.jpg,AMNE16.jpg,AMSA16.jpg,AMSA06.jpg,AMNE16.jpg,MN,1,num_6,16,num_6,0.53347576315,,,2017_Aug_15_1129,60.0210414883,FEMA4ImagesEEG,001,100915,
AFNE01.JPG,AFNE01.JPG,AFNE01.JPG,AFNE01.JPG,AFNE01.JPG,AFNE01.JPG,,,,,1,1,11,5,,,,,,,,,,,,,,,,,,,AMSA07.jpg,AMSA08.jpg,AMNE20.jpg,AMNE13.jpg,AMSA07.jpg,MS,2,num_8,16,num_8,1.84974082628,,,2017_Aug_15_1129,60.0210414883,FEMA4ImagesEEG,001,100915,
AFNE01.JPG,AFNE01.JPG,AFNE01.JPG,AFNE01.JPG,AFNE01.JPG,AFNE01.JPG,,,,,1,2,12,6,,,,,,,,,,,,,,,,,,,AMSA05.jpg,AMSA20.jpg,AMNE03.jpg,AMNE07.jpg,AMSA20.jpg,MS,2,num_6,16,num_6,0.583471705788,,,2017_Aug_15_1129,60.0210414883,FEMA4ImagesEEG,001,100915,
AFNE01.JPG,AFNE01.JPG,AFNE01.JPG,AFNE01.JPG,AFNE01.JPG,AFNE01.JPG,,,,,1,3,13,2,,,,,,,,,,,,,,,,,,,AMNE14.jpg,AMSA05.jpg,AMSA17.jpg,AMNE13.jpg,AMSA17.jpg,MS,2,num_2,32,num_4,0.766765785927,,,2017_Aug_15_1129,60.0210414883,FEMA4ImagesEEG,001,100915,
AFNE01.JPG,AFNE01.JPG,AFNE01.JPG,AFNE01.JPG,AFNE01.JPG,AFNE01.JPG,,,,,1,4,14,7,,,,,,,,,,,,,,,,,,,AMNE15.jpg,AMNE20.jpg,AMSA11.jpg,AMSA09.jpg,AMNE15.jpg,MN,1,num_8,16,num_8,0.800144846056,,,2017_Aug_15_1129,60.0210414883,FEMA4ImagesEEG,001,100915,
AFNE01.JPG,AFNE01.JPG,AFNE01.JPG,AFNE01.JPG,AFNE01.JPG,AFNE01.JPG,,,,,1,5,15,9,,,,,,,,,,,,,,,,,,,AMSA20.jpg,AMNE13.jpg,AMNE02.jpg,AMSA03.jpg,AMSA20.jpg,MS,2,num_8,16,num_8,1.00009654264,,,2017_Aug_15_1129,60.0210414883,FEMA4ImagesEEG,001,100915,
AFNE01.JPG,AFNE01.JPG,AFNE01.JPG,AFNE01.JPG,AFNE01.JPG,AFNE01.JPG,,,,,1,6,16,4,,,,,,,,,,,,,,,,,,,AMSA15.jpg,AMNE10.jpg,AMSA02.jpg,AMNE14.jpg,AMSA15.jpg,MS,2,num_8,16,num_8,0.700137244508,,,2017_Aug_15_1129,60.0210414883,FEMA4ImagesEEG,001,100915,
AFNE01.JPG,AFNE01.JPG,AFNE01.JPG,AFNE01.JPG,AFNE01.JPG,AFNE01.JPG,,,,,1,7,17,1,,,,,,,,,,,,,,,,,,,AMNE16.jpg,AMSA12.jpg,AMSA06.jpg,AMNE13.jpg,AMNE13.jpg,MN,1,num_4,32,num_6,1.28339213027,,,2017_Aug_15_1129,60.0210414883,FEMA4ImagesEEG,001,100915,
AFNE01.JPG,AFNE01.JPG,AFNE01.JPG,AFNE01.JPG,AFNE01.JPG,AFNE01.JPG,,,,,1,8,18,8,,,,,,,,,,,,,,,,,,,AMNE20.jpg,AMSA02.jpg,AMNE04.jpg,AMSA13.jpg,AMNE20.jpg,MN,1,num_8,16,num_8,1.15007538987,,,2017_Aug_15_1129,60.0210414883,FEMA4ImagesEEG,001,100915,
AFNE01.JPG,AFNE01.JPG,AFNE01.JPG,AFNE01.JPG,AFNE01.JPG,AFNE01.JPG,,,,,1,9,19,3,,,,,,,,,,,,,,,,,,,AMNE04.jpg,AMNE18.jpg,AMSA18.jpg,AMSA02.jpg,AMNE18.jpg,MN,1,num_6,16,num_6,0.666777749517,,,2017_Aug_15_1129,60.0210414883,FEMA4ImagesEEG,001,100915,
AFNE01.JPG,AFNE01.JPG,AFNE01.JPG,AFNE01.JPG,AFNE01.JPG,AFNE01.JPG,,,,,2,0,20,4,,,,,,,,,,,,,,,,,,,AMNE08.jpg,AMSA03.jpg,AMNE07.jpg,AMSA12.jpg,AMSA12.jpg,MS,2,num_4,32,num_2,1.18341916862,,,2017_Aug_15_1129,60.0210414883,FEMA4ImagesEEG,001,100915,
AFNE01.JPG,AFNE01.JPG,AFNE01.JPG,AFNE01.JPG,AFNE01.JPG,AFNE01.JPG,,,,,2,1,21,2,,,,,,,,,,,,,,,,,,,AMSA14.jpg,AMSA20.jpg,AMNE16.jpg,AMNE08.jpg,AMNE08.jpg,MN,1,num_4,32,num_8,1.1167460444,,,2017_Aug_15_1129,60.0210414883,FEMA4ImagesEEG,001,100915,
AFNE01.JPG,AFNE01.JPG,AFNE01.JPG,AFNE01.JPG,AFNE01.JPG,AFNE01.JPG,,,,,2,2,22,8,,,,,,,,,,,,,,,,,,,AMSA09.jpg,AMNE14.jpg,AMNE01.jpg,AMSA01.jpg,AMSA09.jpg,MS,2,num_8,16,num_8,1.00006927978,,,2017_Aug_15_1129,60.0210414883,FEMA4ImagesEEG,001,100915,
AFNE01.JPG,AFNE01.JPG,AFNE01.JPG,AFNE01.JPG,AFNE01.JPG,AFNE01.JPG,,,,,2,3,23,5,,,,,,,,,,,,,,,,,,,AMSA13.jpg,AMNE07.jpg,AMSA03.jpg,AMNE10.jpg,AMNE10.jpg,MN,1,num_4,16,num_4,0.616782448356,,,2017_Aug_15_1129,60.0210414883,FEMA4ImagesEEG,001,100915,
AFNE01.JPG,AFNE01.JPG,AFNE01.JPG,AFNE01.JPG,AFNE01.JPG,AFNE01.JPG,,,,,2,4,24,6,,,,,,,,,,,,,,,,,,,AMNE16.jpg,AMSA01.jpg,AMNE17.jpg,AMSA19.jpg,AMNE16.jpg,MN,1,num_8,32,num_2,0.733687258908,,,2017_Aug_15_1129,60.0210414883,FEMA4ImagesEEG,001,100915,
AFNE01.JPG,AFNE01.JPG,AFNE01.JPG,AFNE01.JPG,AFNE01.JPG,AFNE01.JPG,,,,,2,5,25,1,,,,,,,,,,,,,,,,,,,AMNE02.jpg,AMSA17.jpg,AMNE19.jpg,AMSA01.jpg,AMNE19.jpg,MN,1,num_2,16,num_2,1.35014255276,,,2017_Aug_15_1129,60.0210414883,FEMA4ImagesEEG,001,100915,
AFNE01.JPG,AFNE01.JPG,AFNE01.JPG,AFNE01.JPG,AFNE01.JPG,AFNE01.JPG,,,,,2,6,26,3,,,,,,,,,,,,,,,,,,,AMNE08.jpg,AMNE07.jpg,AMSA03.jpg,AMSA16.jpg,AMNE08.jpg,MN,1,num_8,16,num_8,0.966740255055,,,2017_Aug_15_1129,60.0210414883,FEMA4ImagesEEG,001,100915,
AFNE01.JPG,AFNE01.JPG,AFNE01.JPG,AFNE01.JPG,AFNE01.JPG,AFNE01.JPG,,,,,2,7,27,7,,,,,,,,,,,,,,,,,,,AMSA20.jpg,AMSA09.jpg,AMNE05.jpg,AMNE18.jpg,AMNE05.jpg,MN,1,num_2,32,num_8,1.5167148685,,,2017_Aug_15_1129,60.0210414883,FEMA4ImagesEEG,001,100915,
AFNE01.JPG,AFNE01.JPG,AFNE01.JPG,AFNE01.JPG,AFNE01.JPG,AFNE01.JPG,,,,,2,8,28,0,,,,,,,,,,,,,,,,,,,AMNE02.jpg,AMSA18.jpg,AMNE20.jpg,AMSA08.jpg,AMNE20.jpg,MN,1,num_2,16,num_2,0.68348347694,,,2017_Aug_15_1129,60.0210414883,FEMA4ImagesEEG,001,100915,
AFNE01.JPG,AFNE01.JPG,AFNE01.JPG,AFNE01.JPG,AFNE01.JPG,AFNE01.JPG,,,,,2,9,29,9,,,,,,,,,,,,,,,,,,,AMSA05.jpg,AMNE03.jpg,AMNE10.jpg,AMSA13.jpg,AMSA05.jpg,MS,2,num_8,16,num_8,1.03334057136,,,2017_Aug_15_1129,60.0210414883,FEMA4ImagesEEG,001,100915,
AFNE01.JPG,AFNE01.JPG,AFNE01.JPG,AFNE01.JPG,AFNE01.JPG,AFNE01.JPG,,,,,3,0,30,1,,,,,,,,,,,,,,,,,,,AMSA08.jpg,AMNE03.jpg,AMSA14.jpg,AMNE16.jpg,AMSA14.jpg,MS,2,num_2,32,num_6,1.033429737,,,2017_Aug_15_1129,60.0210414883,FEMA4ImagesEEG,001,100915,
AFNE01.JPG,AFNE01.JPG,AFNE01.JPG,AFNE01.JPG,AFNE01.JPG,AFNE01.JPG,,,,,3,1,31,5,,,,,,,,,,,,,,,,,,,AMNE17.jpg,AMSA19.jpg,AMNE18.jpg,AMSA13.jpg,AMNE18.jpg,MN,1,num_2,16,num_2,0.850109997686,,,2017_Aug_15_1129,60.0210414883,FEMA4ImagesEEG,001,100915,
AFNE01.JPG,AFNE01.JPG,AFNE01.JPG,AFNE01.JPG,AFNE01.JPG,AFNE01.JPG,,,,,3,2,32,0,,,,,,,,,,,,,,,,,,,AMSA17.jpg,AMSA01.jpg,AMNE04.jpg,AMNE08.jpg,AMSA17.jpg,MS,2,num_8,32,num_4,1.28343703382,,,2017_Aug_15_1129,60.0210414883,FEMA4ImagesEEG,001,100915,
AFNE01.JPG,AFNE01.JPG,AFNE01.JPG,AFNE01.JPG,AFNE01.JPG,AFNE01.JPG,,,,,3,3,33,8,,,,,,,,,,,,,,,,,,,AMSA17.jpg,AMNE07.jpg,AMNE06.jpg,AMSA02.jpg,AMNE06.jpg,MN,1,num_2,16,num_2,0.91662211057,,,2017_Aug_15_1129,60.0210414883,FEMA4ImagesEEG,001,100915,
AFNE01.JPG,AFNE01.JPG,AFNE01.JPG,AFNE01.JPG,AFNE01.JPG,AFNE01.JPG,,,,,3,4,34,7,,,,,,,,,,,,,,,,,,,AMNE11.jpg,AMSA11.jpg,AMSA07.jpg,AMNE14.jpg,AMSA11.jpg,MS,2,num_6,32,num_4,0.633479195065,,,2017_Aug_15_1129,60.0210414883,FEMA4ImagesEEG,001,100915,
AFNE01.JPG,AFNE01.JPG,AFNE01.JPG,AFNE01.JPG,AFNE01.JPG,AFNE01.JPG,,,,,3,5,35,3,,,,,,,,,,,,,,,,,,,AMSA02.jpg,AMNE08.jpg,AMSA05.jpg,AMNE18.jpg,AMSA02.jpg,MS,2,num_8,32,num_6,0.81675306859,,,2017_Aug_15_1129,60.0210414883,FEMA4ImagesEEG,001,100915,
AFNE01.JPG,AFNE01.JPG,AFNE01.JPG,AFNE01.JPG,AFNE01.JPG,AFNE01.JPG,,,,,3,6,36,4,,,,,,,,,,,,,,,,,,,AMSA01.jpg,AMNE18.jpg,AMNE01.jpg,AMSA18.jpg,AMSA01.jpg,MS,2,num_8,32,num_6,1.0167685924,,,2017_Aug_15_1129,60.0210414883,FEMA4ImagesEEG,001,100915,
AFNE01.JPG,AFNE01.JPG,AFNE01.JPG,AFNE01.JPG,AFNE01.JPG,AFNE01.JPG,,,,,3,7,37,2,,,,,,,,,,,,,,,,,,,AMSA18.jpg,AMSA10.jpg,AMNE16.jpg,AMNE03.jpg,AMSA18.jpg,MS,2,num_8,32,num_4,1.13341488675,,,2017_Aug_15_1129,60.0210414883,FEMA4ImagesEEG,001,100915,
AFNE01.JPG,AFNE01.JPG,AFNE01.JPG,AFNE01.JPG,AFNE01.JPG,AFNE01.JPG,,,,,3,8,38,6,,,,,,,,,,,,,,,,,,,AMSA02.jpg,AMSA10.jpg,AMNE11.jpg,AMNE01.jpg,AMNE01.jpg,MN,1,num_4,32,num_8,1.26674766414,,,2017_Aug_15_1129,60.0210414883,FEMA4ImagesEEG,001,100915,
AFNE01.JPG,AFNE01.JPG,AFNE01.JPG,AFNE01.JPG,AFNE01.JPG,AFNE01.JPG,,,,,3,9,39,9,,,,,,,,,,,,,,,,,,,AMNE10.jpg,AMNE06.jpg,AMSA02.jpg,AMSA16.jpg,AMNE10.jpg,MN,1,num_8,32,num_6,1.20011142497,,,2017_Aug_15_1129,60.0210414883,FEMA4ImagesEEG,001,100915,
AFNE01.JPG,AFNE01.JPG,AFNE01.JPG,AFNE01.JPG,AFNE01.JPG,AFNE01.JPG,,,,,4,0,40,9,,,,,,,,,,,,,,,,,,,AMNE01.jpg,AMSA01.jpg,AMSA04.jpg,AMNE11.jpg,AMSA04.jpg,MS,2,num_2,16,num_2,0.783438477156,,,2017_Aug_15_1129,60.0210414883,FEMA4ImagesEEG,001,100915,
AFNE01.JPG,AFNE01.JPG,AFNE01.JPG,AFNE01.JPG,AFNE01.JPG,AFNE01.JPG,,,,,4,1,41,2,,,,,,,,,,,,,,,,,,,AMSA03.jpg,AMNE20.jpg,AMNE07.jpg,AMSA02.jpg,AMNE07.jpg,MN,1,num_2,16,num_2,0.700169318501,,,2017_Aug_15_1129,60.0210414883,FEMA4ImagesEEG,001,100915,
AFNE01.JPG,AFNE01.JPG,AFNE01.JPG,AFNE01.JPG,AFNE01.JPG,AFNE01.JPG,,,,,4,2,42,0,,,,,,,,,,,,,,,,,,,AMNE16.jpg,AMSA11.jpg,AMSA03.jpg,AMNE17.jpg,AMNE16.jpg,MN,1,num_8,16,num_8,0.9834430958,,,2017_Aug_15_1129,60.0210414883,FEMA4ImagesEEG,001,100915,
AFNE01.JPG,AFNE01.JPG,AFNE01.JPG,AFNE01.JPG,AFNE01.JPG,AFNE01.JPG,,,,,4,3,43,4,,,,,,,,,,,,,,,,,,,AMSA01.jpg,AMSA03.jpg,AMNE08.jpg,AMNE06.jpg,AMNE06.jpg,MN,1,num_4,16,num_4,0.866745483101,,,2017_Aug_15_1129,60.0210414883,FEMA4ImagesEEG,001,100915,
AFNE01.JPG,AFNE01.JPG,AFNE01.JPG,AFNE01.JPG,AFNE01.JPG,AFNE01.JPG,,,,,4,4,44,6,,,,,,,,,,,,,,,,,,,AMSA18.jpg,AMSA11.jpg,AMNE17.jpg,AMNE20.jpg,AMSA11.jpg,MS,2,num_6,16,num_6,0.700096510584,,,2017_Aug_15_1129,60.0210414883,FEMA4ImagesEEG,001,100915,
AFNE01.JPG,AFNE01.JPG,AFNE01.JPG,AFNE01.JPG,AFNE01.JPG,AFNE01.JPG,,,,,4,5,45,8,,,,,,,,,,,,,,,,,,,AMNE01.jpg,AMNE19.jpg,AMSA20.jpg,AMSA08.jpg,AMNE01.jpg,MN,1,num_8,16,num_8,0.933456775354,,,2017_Aug_15_1129,60.0210414883,FEMA4ImagesEEG,001,100915,
AFNE01.JPG,AFNE01.JPG,AFNE01.JPG,AFNE01.JPG,AFNE01.JPG,AFNE01.JPG,,,,,4,6,46,5,,,,,,,,,,,,,,,,,,,AMNE05.jpg,AMSA20.jpg,AMSA05.jpg,AMNE12.jpg,AMNE05.jpg,MN,1,num_8,16,num_8,1.13343348965,,,2017_Aug_15_1129,60.0210414883,FEMA4ImagesEEG,001,100915,
AFNE01.JPG,AFNE01.JPG,AFNE01.JPG,AFNE01.JPG,AFNE01.JPG,AFNE01.JPG,,,,,4,7,47,7,,,,,,,,,,,,,,,,,,,AMNE18.jpg,AMSA17.jpg,AMSA06.jpg,AMNE15.jpg,AMSA06.jpg,MS,2,num_2,16,num_2,0.683446591866,,,2017_Aug_15_1129,60.0210414883,FEMA4ImagesEEG,001,100915,
AFNE01.JPG,AFNE01.JPG,AFNE01.JPG,AFNE01.JPG,AFNE01.JPG,AFNE01.JPG,,,,,4,8,48,3,,,,,,,,,,,,,,,,,,,AMNE08.jpg,AMNE15.jpg,AMSA10.jpg,AMSA02.jpg,AMNE15.jpg,MN,1,num_6,16,num_6,0.800117903913,,,2017_Aug_15_1129,60.0210414883,FEMA4ImagesEEG,001,100915,
AFNE01.JPG,AFNE01.JPG,AFNE01.JPG,AFNE01.JPG,AFNE01.JPG,AFNE01.JPG,,,,,4,9,49,1,,,,,,,,,,,,,,,,,,,AMSA14.jpg,AMNE14.jpg,AMNE06.jpg,AMSA18.jpg,AMNE06.jpg,MN,1,num_2,32,num_8,1.31672532461,,,2017_Aug_15_1129,60.0210414883,FEMA4ImagesEEG,001,100915,
AFNE01.JPG,AFNE01.JPG,AFNE01.JPG,AFNE01.JPG,AFNE01.JPG,AFNE01.JPG,,,,,5,0,50,1,,,,,,,,,,,,,,,,,,,AMSA18.jpg,AMNE13.jpg,AMNE05.jpg,AMSA20.jpg,AMSA18.jpg,MS,2,num_8,16,num_8,1.73338415989,,,2017_Aug_15_1129,60.0210414883,FEMA4ImagesEEG,001,100915,
AFNE01.JPG,AFNE01.JPG,AFNE01.JPG,AFNE01.JPG,AFNE01.JPG,AFNE01.JPG,,,,,5,1,51,6,,,,,,,,,,,,,,,,,,,AMNE11.jpg,AMSA10.jpg,AMNE09.jpg,AMSA01.jpg,AMNE11.jpg,MN,1,num_8,32,num_2,1.10011953968,,,2017_Aug_15_1129,60.0210414883,FEMA4ImagesEEG,001,100915,
AFNE01.JPG,AFNE01.JPG,AFNE01.JPG,AFNE01.JPG,AFNE01.JPG,AFNE01.JPG,,,,,5,2,52,2,,,,,,,,,,,,,,,,,,,AMNE19.jpg,AMSA20.jpg,AMNE20.jpg,AMSA05.jpg,AMSA20.jpg,MS,2,num_6,16,num_6,0.916814233657,,,2017_Aug_15_1129,60.0210414883,FEMA4ImagesEEG,001,100915,
AFNE01.JPG,AFNE01.JPG,AFNE01.JPG,AFNE01.JPG,AFNE01.JPG,AFNE01.JPG,,,,,5,3,53,9,,,,,,,,,,,,,,,,,,,AMNE19.jpg,AMSA04.jpg,AMNE05.jpg,AMSA07.jpg,AMSA07.jpg,MS,2,num_4,32,num_8,0.950077506743,,,2017_Aug_15_1129,60.0210414883,FEMA4ImagesEEG,001,100915,
AFNE01.JPG,AFNE01.JPG,AFNE01.JPG,AFNE01.JPG,AFNE01.JPG,AFNE01.JPG,,,,,5,4,54,0,,,,,,,,,,,,,,,,,,,AMNE05.jpg,AMSA06.jpg,AMSA05.jpg,AMNE02.jpg,AMSA05.jpg,MS,2,num_2,32,num_8,1.25006535072,,,2017_Aug_15_1129,60.0210414883,FEMA4ImagesEEG,001,100915,
AFNE01.JPG,AFNE01.JPG,AFNE01.JPG,AFNE01.JPG,AFNE01.JPG,AFNE01.JPG,,,,,5,5,55,5,,,,,,,,,,,,,,,,,,,AMNE08.jpg,AMSA15.jpg,AMSA18.jpg,AMNE11.jpg,AMNE08.jpg,MN,1,num_8,32,num_6,0.833495360333,,,2017_Aug_15_1129,60.0210414883,FEMA4ImagesEEG,001,100915,
AFNE01.JPG,AFNE01.JPG,AFNE01.JPG,AFNE01.JPG,AFNE01.JPG,AFNE01.JPG,,,,,5,6,56,4,,,,,,,,,,,,,,,,,,,AMSA01.jpg,AMSA10.jpg,AMNE08.jpg,AMNE19.jpg,AMSA10.jpg,MS,2,num_6,32,num_8,0.816759483394,,,2017_Aug_15_1129,60.0210414883,FEMA4ImagesEEG,001,100915,
AFNE01.JPG,AFNE01.JPG,AFNE01.JPG,AFNE01.JPG,AFNE01.JPG,AFNE01.JPG,,,,,5,7,57,3,,,,,,,,,,,,,,,,,,,AMNE01.jpg,AMSA17.jpg,AMNE04.jpg,AMSA20.jpg,AMNE01.jpg,MN,1,num_8,32,num_2,1.11674989328,,,2017_Aug_15_1129,60.0210414883,FEMA4ImagesEEG,001,100915,
AFNE01.JPG,AFNE01.JPG,AFNE01.JPG,AFNE01.JPG,AFNE01.JPG,AFNE01.JPG,,,,,5,8,58,8,,,,,,,,,,,,,,,,,,,AMNE12.jpg,AMNE05.jpg,AMSA09.jpg,AMSA11.jpg,AMNE12.jpg,MN,1,num_8,32,num_6,0.616630738485,,,2017_Aug_15_1129,60.0210414883,FEMA4ImagesEEG,001,100915,
AFNE01.JPG,AFNE01.JPG,AFNE01.JPG,AFNE01.JPG,AFNE01.JPG,AFNE01.JPG,,,,,5,9,59,7,,,,,,,,,,,,,,,,,,,AMNE16.jpg,AMSA02.jpg,AMSA09.jpg,AMNE14.jpg,AMSA02.jpg,MS,2,num_6,16,num_6,0.616737865537,,,2017_Aug_15_1129,60.0210414883,FEMA4ImagesEEG,001,100915,
,,,,,,,,,,,,,,,,,,,,,,,,,,,,,,,,,,,,,,,,,,,space,30.8810511153,2017_Aug_15_1129,60.0210414883,FEMA4ImagesEEG,001,100915,
AFNE01.JPG,AFNE01.JPG,AFNE01.JPG,AFNE01.JPG,AFNE01.JPG,AFNE01.JPG,,,,,,,,,0,0,0,6,,,,,,,,,,,,,,,AFSA04.jpg,AFNE12.jpg,AFNE14.jpg,AFSA19.jpg,AFSA19.jpg,FS,4,num_4,16,num_4,0.616811635657,,,2017_Aug_15_1129,60.0210414883,FEMA4ImagesEEG,001,100915,
AFNE01.JPG,AFNE01.JPG,AFNE01.JPG,AFNE01.JPG,AFNE01.JPG,AFNE01.JPG,,,,,,,,,0,1,1,2,,,,,,,,,,,,,,,AFSA04.jpg,AFSA11.jpg,AFNE03.jpg,AFNE08.jpg,AFSA11.jpg,FS,4,num_6,16,num_6,0.533473517964,,,2017_Aug_15_1129,60.0210414883,FEMA4ImagesEEG,001,100915,
AFNE01.JPG,AFNE01.JPG,AFNE01.JPG,AFNE01.JPG,AFNE01.JPG,AFNE01.JPG,,,,,,,,,0,2,2,5,,,,,,,,,,,,,,,AFNE06.jpg,AFSA07.jpg,AFNE19.jpg,AFSA06.jpg,AFSA06.jpg,FS,4,num_4,32,num_6,0.650116604913,,,2017_Aug_15_1129,60.0210414883,FEMA4ImagesEEG,001,100915,
AFNE01.JPG,AFNE01.JPG,AFNE01.JPG,AFNE01.JPG,AFNE01.JPG,AFNE01.JPG,,,,,,,,,0,3,3,7,,,,,,,,,,,,,,,AFSA11.jpg,AFNE12.jpg,AFSA16.jpg,AFNE17.jpg,AFNE12.jpg,FN,3,num_6,16,num_6,0.466767678285,,,2017_Aug_15_1129,60.0210414883,FEMA4ImagesEEG,001,100915,
AFNE01.JPG,AFNE01.JPG,AFNE01.JPG,AFNE01.JPG,AFNE01.JPG,AFNE01.JPG,,,,,,,,,0,4,4,0,,,,,,,,,,,,,,,AFNE20.jpg,AFSA03.jpg,AFNE09.jpg,AFSA07.jpg,AFSA03.jpg,FS,4,num_6,16,num_6,0.633461875113,,,2017_Aug_15_1129,60.0210414883,FEMA4ImagesEEG,001,100915,
AFNE01.JPG,AFNE01.JPG,AFNE01.JPG,AFNE01.JPG,AFNE01.JPG,AFNE01.JPG,,,,,,,,,0,5,5,3,,,,,,,,,,,,,,,AFNE06.jpg,AFSA09.jpg,AFNE10.jpg,AFSA05.jpg,AFSA05.jpg,FS,4,num_4,32,num_8,0.966885550137,,,2017_Aug_15_1129,60.0210414883,FEMA4ImagesEEG,001,100915,
AFNE01.JPG,AFNE01.JPG,AFNE01.JPG,AFNE01.JPG,AFNE01.JPG,AFNE01.JPG,,,,,,,,,0,6,6,8,,,,,,,,,,,,,,,AFSA16.jpg,AFNE15.jpg,AFSA20.jpg,AFNE20.jpg,AFNE20.jpg,FN,3,num_4,32,num_6,0.533441123247,,,2017_Aug_15_1129,60.0210414883,FEMA4ImagesEEG,001,100915,
AFNE01.JPG,AFNE01.JPG,AFNE01.JPG,AFNE01.JPG,AFNE01.JPG,AFNE01.JPG,,,,,,,,,0,7,7,9,,,,,,,,,,,,,,,AFNE05.jpg,AFSA19.jpg,AFNE09.jpg,AFSA07.jpg,AFSA07.jpg,FS,4,num_4,16,num_4,0.650135207834,,,2017_Aug_15_1129,60.0210414883,FEMA4ImagesEEG,001,100915,
AFNE01.JPG,AFNE01.JPG,AFNE01.JPG,AFNE01.JPG,AFNE01.JPG,AFNE01.JPG,,,,,,,,,0,8,8,1,,,,,,,,,,,,,,,AFNE08.jpg,AFSA01.jpg,AFNE14.jpg,AFSA10.jpg,AFNE14.jpg,FN,3,num_2,32,num_8,1.81698239747,,,2017_Aug_15_1129,60.0210414883,FEMA4ImagesEEG,001,100915,
AFNE01.JPG,AFNE01.JPG,AFNE01.JPG,AFNE01.JPG,AFNE01.JPG,AFNE01.JPG,,,,,,,,,0,9,9,4,,,,,,,,,,,,,,,AFNE03.jpg,AFSA01.jpg,AFSA04.jpg,AFNE20.jpg,AFSA01.jpg,FS,4,num_6,16,num_6,1.36673345536,,,2017_Aug_15_1129,60.0210414883,FEMA4ImagesEEG,001,100915,
AFNE01.JPG,AFNE01.JPG,AFNE01.JPG,AFNE01.JPG,AFNE01.JPG,AFNE01.JPG,,,,,,,,,1,0,10,5,,,,,,,,,,,,,,,AFNE07.jpg,AFSA09.jpg,AFNE04.jpg,AFSA18.jpg,AFSA09.jpg,FS,4,num_6,32,num_2,0.700126339376,,,2017_Aug_15_1129,60.0210414883,FEMA4ImagesEEG,001,100915,
AFNE01.JPG,AFNE01.JPG,AFNE01.JPG,AFNE01.JPG,AFNE01.JPG,AFNE01.JPG,,,,,,,,,1,1,11,7,,,,,,,,,,,,,,,AFSA13.jpg,AFNE15.jpg,AFSA18.jpg,AFNE11.jpg,AFNE15.jpg,FN,3,num_6,16,num_6,0.533599889401,,,2017_Aug_15_1129,60.0210414883,FEMA4ImagesEEG,001,100915,
AFNE01.JPG,AFNE01.JPG,AFNE01.JPG,AFNE01.JPG,AFNE01.JPG,AFNE01.JPG,,,,,,,,,1,2,12,0,,,,,,,,,,,,,,,AFSA07.jpg,AFNE10.jpg,AFSA05.jpg,AFNE14.jpg,AFSA05.jpg,FS,4,num_2,16,num_2,0.833458154535,,,2017_Aug_15_1129,60.0210414883,FEMA4ImagesEEG,001,100915,
AFNE01.JPG,AFNE01.JPG,AFNE01.JPG,AFNE01.JPG,AFNE01.JPG,AFNE01.JPG,,,,,,,,,1,3,13,2,,,,,,,,,,,,,,,AFNE10.jpg,AFSA03.jpg,AFSA08.jpg,AFNE08.jpg,AFNE08.jpg,FN,3,num_4,32,num_8,2.00006446868,,,2017_Aug_15_1129,60.0210414883,FEMA4ImagesEEG,001,100915,
AFNE01.JPG,AFNE01.JPG,AFNE01.JPG,AFNE01.JPG,AFNE01.JPG,AFNE01.JPG,,,,,,,,,1,4,14,9,,,,,,,,,,,,,,,AFSA06.jpg,AFNE06.jpg,AFSA07.jpg,AFNE11.jpg,AFSA07.jpg,FS,4,num_2,16,num_2,1.00020880155,,,2017_Aug_15_1129,60.0210414883,FEMA4ImagesEEG,001,100915,
AFNE01.JPG,AFNE01.JPG,AFNE01.JPG,AFNE01.JPG,AFNE01.JPG,AFNE01.JPG,,,,,,,,,1,5,15,1,,,,,,,,,,,,,,,AFNE12.jpg,AFNE13.jpg,AFSA01.jpg,AFSA19.jpg,AFNE13.jpg,FN,3,num_6,16,num_6,1.9666963137,,,2017_Aug_15_1129,60.0210414883,FEMA4ImagesEEG,001,100915,
AFNE01.JPG,AFNE01.JPG,AFNE01.JPG,AFNE01.JPG,AFNE01.JPG,AFNE01.JPG,,,,,,,,,1,6,16,3,,,,,,,,,,,,,,,AFNE13.jpg,AFSA20.jpg,AFNE19.jpg,AFSA07.jpg,AFNE19.jpg,FN,3,num_2,16,num_2,1.10005378805,,,2017_Aug_15_1129,60.0210414883,FEMA4ImagesEEG,001,100915,
AFNE01.JPG,AFNE01.JPG,AFNE01.JPG,AFNE01.JPG,AFNE01.JPG,AFNE01.JPG,,,,,,,,,1,7,17,6,,,,,,,,,,,,,,,AFSA17.jpg,AFSA14.jpg,AFNE14.jpg,AFNE01.jpg,AFSA14.jpg,FS,4,num_6,16,num_6,0.833481247799,,,2017_Aug_15_1129,60.0210414883,FEMA4ImagesEEG,001,100915,
AFNE01.JPG,AFNE01.JPG,AFNE01.JPG,AFNE01.JPG,AFNE01.JPG,AFNE01.JPG,,,,,,,,,1,8,18,4,,,,,,,,,,,,,,,AFSA07.jpg,AFSA18.jpg,AFNE04.jpg,AFNE10.jpg,AFSA18.jpg,FS,4,num_6,16,num_6,0.88341432545,,,2017_Aug_15_1129,60.0210414883,FEMA4ImagesEEG,001,100915,
AFNE01.JPG,AFNE01.JPG,AFNE01.JPG,AFNE01.JPG,AFNE01.JPG,AFNE01.JPG,,,,,,,,,1,9,19,8,,,,,,,,,,,,,,,AFNE14.jpg,AFSA12.jpg,AFSA15.jpg,AFNE10.jpg,AFNE14.jpg,FN,3,num_8,32,num_2,0.883453455695,,,2017_Aug_15_1129,60.0210414883,FEMA4ImagesEEG,001,100915,
AFNE01.JPG,AFNE01.JPG,AFNE01.JPG,AFNE01.JPG,AFNE01.JPG,AFNE01.JPG,,,,,,,,,2,0,20,1,,,,,,,,,,,,,,,AFSA12.jpg,AFSA18.jpg,AFNE06.jpg,AFNE15.jpg,AFNE15.jpg,FN,3,num_4,16,num_4,1.45009242115,,,2017_Aug_15_1129,60.0210414883,FEMA4ImagesEEG,001,100915,
AFNE01.JPG,AFNE01.JPG,AFNE01.JPG,AFNE01.JPG,AFNE01.JPG,AFNE01.JPG,,,,,,,,,2,1,21,3,,,,,,,,,,,,,,,AFNE15.jpg,AFSA08.jpg,AFNE02.jpg,AFSA01.jpg,AFNE15.jpg,FN,3,num_8,32,num_6,0.900076753009,,,2017_Aug_15_1129,60.0210414883,FEMA4ImagesEEG,001,100915,
AFNE01.JPG,AFNE01.JPG,AFNE01.JPG,AFNE01.JPG,AFNE01.JPG,AFNE01.JPG,,,,,,,,,2,2,22,4,,,,,,,,,,,,,,,AFSA19.jpg,AFNE18.jpg,AFSA06.jpg,AFNE13.jpg,AFNE18.jpg,FN,3,num_6,16,num_6,0.483455444293,,,2017_Aug_15_1129,60.0210414883,FEMA4ImagesEEG,001,100915,
AFNE01.JPG,AFNE01.JPG,AFNE01.JPG,AFNE01.JPG,AFNE01.JPG,AFNE01.JPG,,,,,,,,,2,3,23,0,,,,,,,,,,,,,,,AFNE14.jpg,AFSA10.jpg,AFNE20.jpg,AFSA12.jpg,AFNE20.jpg,FN,3,num_2,32,num_8,1.18338324578,,,2017_Aug_15_1129,60.0210414883,FEMA4ImagesEEG,001,100915,
AFNE01.JPG,AFNE01.JPG,AFNE01.JPG,AFNE01.JPG,AFNE01.JPG,AFNE01.JPG,,,,,,,,,2,4,24,7,,,,,,,,,,,,,,,AFSA08.jpg,AFNE07.jpg,AFNE20.jpg,AFSA04.jpg,AFSA08.jpg,FS,4,num_8,32,num_4,2.08329161044,,,2017_Aug_15_1129,60.0210414883,FEMA4ImagesEEG,001,100915,
AFNE01.JPG,AFNE01.JPG,AFNE01.JPG,AFNE01.JPG,AFNE01.JPG,AFNE01.JPG,,,,,,,,,2,5,25,2,,,,,,,,,,,,,,,AFSA07.jpg,AFNE03.jpg,AFSA08.jpg,AFNE10.jpg,AFSA08.jpg,FS,4,num_2,16,num_2,0.550126323331,,,2017_Aug_15_1129,60.0210414883,FEMA4ImagesEEG,001,100915,
AFNE01.JPG,AFNE01.JPG,AFNE01.JPG,AFNE01.JPG,AFNE01.JPG,AFNE01.JPG,,,,,,,,,2,6,26,8,,,,,,,,,,,,,,,AFNE08.jpg,AFSA17.jpg,AFSA16.jpg,AFNE03.jpg,AFSA16.jpg,FS,4,num_2,32,num_6,1.10009965384,,,2017_Aug_15_1129,60.0210414883,FEMA4ImagesEEG,001,100915,
AFNE01.JPG,AFNE01.JPG,AFNE01.JPG,AFNE01.JPG,AFNE01.JPG,AFNE01.JPG,,,,,,,,,2,7,27,5,,,,,,,,,,,,,,,AFNE12.jpg,AFSA12.jpg,AFNE03.jpg,AFSA03.jpg,AFSA03.jpg,FS,4,num_4,32,num_2,0.933486924885,,,2017_Aug_15_1129,60.0210414883,FEMA4ImagesEEG,001,100915,
AFNE01.JPG,AFNE01.JPG,AFNE01.JPG,AFNE01.JPG,AFNE01.JPG,AFNE01.JPG,,,,,,,,,2,8,28,9,,,,,,,,,,,,,,,AFNE10.jpg,AFNE14.jpg,AFSA16.jpg,AFSA10.jpg,AFSA10.jpg,FS,4,num_4,32,num_8,0.983442454337,,,2017_Aug_15_1129,60.0210414883,FEMA4ImagesEEG,001,100915,
AFNE01.JPG,AFNE01.JPG,AFNE01.JPG,AFNE01.JPG,AFNE01.JPG,AFNE01.JPG,,,,,,,,,2,9,29,6,,,,,,,,,,,,,,,AFSA04.jpg,AFNE09.jpg,AFSA15.jpg,AFNE07.jpg,AFSA04.jpg,FS,4,num_8,32,num_4,2.05002705439,,,2017_Aug_15_1129,60.0210414883,FEMA4ImagesEEG,001,100915,
AFNE01.JPG,AFNE01.JPG,AFNE01.JPG,AFNE01.JPG,AFNE01.JPG,AFNE01.JPG,,,,,,,,,3,0,30,1,,,,,,,,,,,,,,,AFNE15.jpg,AFSA10.jpg,AFNE08.jpg,AFSA05.jpg,AFNE15.jpg,FN,3,num_8,16,num_8,0.883410476585,,,2017_Aug_15_1129,60.0210414883,FEMA4ImagesEEG,001,100915,
AFNE01.JPG,AFNE01.JPG,AFNE01.JPG,AFNE01.JPG,AFNE01.JPG,AFNE01.JPG,,,,,,,,,3,1,31,5,,,,,,,,,,,,,,,AFNE09.jpg,AFSA03.jpg,AFSA02.jpg,AFNE06.jpg,AFNE09.jpg,FN,3,num_8,16,num_8,0.950132032493,,,2017_Aug_15_1129,60.0210414883,FEMA4ImagesEEG,001,100915,
AFNE01.JPG,AFNE01.JPG,AFNE01.JPG,AFNE01.JPG,AFNE01.JPG,AFNE01.JPG,,,,,,,,,3,2,32,4,,,,,,,,,,,,,,,AFNE01.jpg,AFNE04.jpg,AFSA12.jpg,AFSA10.jpg,AFNE01.jpg,FN,3,num_8,16,num_8,0.883444795734,,,2017_Aug_15_1129,60.0210414883,FEMA4ImagesEEG,001,100915,
AFNE01.JPG,AFNE01.JPG,AFNE01.JPG,AFNE01.JPG,AFNE01.JPG,AFNE01.JPG,,,,,,,,,3,3,33,2,,,,,,,,,,,,,,,AFNE13.jpg,AFSA17.jpg,AFNE05.jpg,AFSA07.jpg,AFNE13.jpg,FN,3,num_8,16,num_8,1.01671631183,,,2017_Aug_15_1129,60.0210414883,FEMA4ImagesEEG,001,100915,
AFNE01.JPG,AFNE01.JPG,AFNE01.JPG,AFNE01.JPG,AFNE01.JPG,AFNE01.JPG,,,,,,,,,3,4,34,6,,,,,,,,,,,,,,,AFSA16.jpg,AFNE11.jpg,AFNE16.jpg,AFSA19.jpg,AFSA19.jpg,FS,4,num_4,16,num_4,0.916771254531,,,2017_Aug_15_1129,60.0210414883,FEMA4ImagesEEG,001,100915,
AFNE01.JPG,AFNE01.JPG,AFNE01.JPG,AFNE01.JPG,AFNE01.JPG,AFNE01.JPG,,,,,,,,,3,5,35,7,,,,,,,,,,,,,,,AFSA07.jpg,AFSA20.jpg,AFNE02.jpg,AFNE20.jpg,AFSA07.jpg,FS,4,num_8,16,num_8,0.583482610935,,,2017_Aug_15_1129,60.0210414883,FEMA4ImagesEEG,001,100915,
AFNE01.JPG,AFNE01.JPG,AFNE01.JPG,AFNE01.JPG,AFNE01.JPG,AFNE01.JPG,,,,,,,,,3,6,36,8,,,,,,,,,,,,,,,AFSA12.jpg,AFNE14.jpg,AFSA05.jpg,AFNE06.jpg,AFSA05.jpg,FS,4,num_2,16,num_2,0.833353272654,,,2017_Aug_15_1129,60.0210414883,FEMA4ImagesEEG,001,100915,
AFNE01.JPG,AFNE01.JPG,AFNE01.JPG,AFNE01.JPG,AFNE01.JPG,AFNE01.JPG,,,,,,,,,3,7,37,9,,,,,,,,,,,,,,,AFSA09.jpg,AFNE07.jpg,AFNE02.jpg,AFSA05.jpg,AFNE02.jpg,FN,3,num_2,32,num_6,0.98341904032,,,2017_Aug_15_1129,60.0210414883,FEMA4ImagesEEG,001,100915,
AFNE01.JPG,AFNE01.JPG,AFNE01.JPG,AFNE01.JPG,AFNE01.JPG,AFNE01.JPG,,,,,,,,,3,8,38,3,,,,,,,,,,,,,,,AFNE13.jpg,AFSA03.jpg,AFSA09.jpg,AFNE05.jpg,AFSA03.jpg,FS,4,num_6,32,num_4,1.03354327886,,,2017_Aug_15_1129,60.0210414883,FEMA4ImagesEEG,001,100915,
AFNE01.JPG,AFNE01.JPG,AFNE01.JPG,AFNE01.JPG,AFNE01.JPG,AFNE01.JPG,,,,,,,,,3,9,39,0,,,,,,,,,,,,,,,AFNE17.jpg,AFSA07.jpg,AFNE13.jpg,AFSA19.jpg,AFNE13.jpg,FN,3,num_2,32,num_8,1.13341071713,,,2017_Aug_15_1129,60.0210414883,FEMA4ImagesEEG,001,100915,
AFNE01.JPG,AFNE01.JPG,AFNE01.JPG,AFNE01.JPG,AFNE01.JPG,AFNE01.JPG,,,,,,,,,4,0,40,1,,,,,,,,,,,,,,,AFSA16.jpg,AFNE12.jpg,AFSA12.jpg,AFNE11.jpg,AFNE11.jpg,FN,3,num_4,32,num_8,1.25010832984,,,2017_Aug_15_1129,60.0210414883,FEMA4ImagesEEG,001,100915,
AFNE01.JPG,AFNE01.JPG,AFNE01.JPG,AFNE01.JPG,AFNE01.JPG,AFNE01.JPG,,,,,,,,,4,1,41,8,,,,,,,,,,,,,,,AFSA11.jpg,AFNE18.jpg,AFNE12.jpg,AFSA16.jpg,AFSA11.jpg,FS,4,num_8,32,num_4,0.850112563596,,,2017_Aug_15_1129,60.0210414883,FEMA4ImagesEEG,001,100915,
AFNE01.JPG,AFNE01.JPG,AFNE01.JPG,AFNE01.JPG,AFNE01.JPG,AFNE01.JPG,,,,,,,,,4,2,42,5,,,,,,,,,,,,,,,AFNE07.jpg,AFSA06.jpg,AFNE13.jpg,AFSA17.jpg,AFSA17.jpg,FS,4,num_4,32,num_2,1.65003834442,,,2017_Aug_15_1129,60.0210414883,FEMA4ImagesEEG,001,100915,
AFNE01.JPG,AFNE01.JPG,AFNE01.JPG,AFNE01.JPG,AFNE01.JPG,AFNE01.JPG,,,,,,,,,4,3,43,0,,,,,,,,,,,,,,,AFNE19.jpg,AFSA15.jpg,AFSA08.jpg,AFNE07.jpg,AFNE19.jpg,FN,3,num_8,32,num_4,0.766759371123,,,2017_Aug_15_1129,60.0210414883,FEMA4ImagesEEG,001,100915,
AFNE01.JPG,AFNE01.JPG,AFNE01.JPG,AFNE01.JPG,AFNE01.JPG,AFNE01.JPG,,,,,,,,,4,4,44,9,,,,,,,,,,,,,,,AFSA13.jpg,AFNE20.jpg,AFSA05.jpg,AFNE17.jpg,AFSA05.jpg,FS,4,num_2,16,num_2,0.616860388109,,,2017_Aug_15_1129,60.0210414883,FEMA4ImagesEEG,001,100915,
AFNE01.JPG,AFNE01.JPG,AFNE01.JPG,AFNE01.JPG,AFNE01.JPG,AFNE01.JPG,,,,,,,,,4,5,45,7,,,,,,,,,,,,,,,AFNE02.jpg,AFSA05.jpg,AFSA06.jpg,AFNE01.jpg,AFSA05.jpg,FS,4,num_6,16,num_6,0.466846580253,,,2017_Aug_15_1129,60.0210414883,FEMA4ImagesEEG,001,100915,
AFNE01.JPG,AFNE01.JPG,AFNE01.JPG,AFNE01.JPG,AFNE01.JPG,AFNE01.JPG,,,,,,,,,4,6,46,3,,,,,,,,,,,,,,,AFNE02.jpg,AFSA08.jpg,AFSA05.jpg,AFNE01.jpg,AFNE01.jpg,FN,3,num_4,16,num_4,1.60002668554,,,2017_Aug_15_1129,60.0210414883,FEMA4ImagesEEG,001,100915,
AFNE01.JPG,AFNE01.JPG,AFNE01.JPG,AFNE01.JPG,AFNE01.JPG,AFNE01.JPG,,,,,,,,,4,7,47,4,,,,,,,,,,,,,,,AFSA18.jpg,AFNE02.jpg,AFNE19.jpg,AFSA15.jpg,AFSA15.jpg,FS,4,num_4,16,num_4,0.766873554472,,,2017_Aug_15_1129,60.0210414883,FEMA4ImagesEEG,001,100915,
AFNE01.JPG,AFNE01.JPG,AFNE01.JPG,AFNE01.JPG,AFNE01.JPG,AFNE01.JPG,,,,,,,,,4,8,48,6,,,,,,,,,,,,,,,AFNE03.jpg,AFNE04.jpg,AFSA02.jpg,AFSA15.jpg,AFNE03.jpg,FN,3,num_8,16,num_8,0.833448853082,,,2017_Aug_15_1129,60.0210414883,FEMA4ImagesEEG,001,100915,
AFNE01.JPG,AFNE01.JPG,AFNE01.JPG,AFNE01.JPG,AFNE01.JPG,AFNE01.JPG,,,,,,,,,4,9,49,2,,,,,,,,,,,,,,,AFSA18.jpg,AFNE13.jpg,AFNE16.jpg,AFSA09.jpg,AFNE13.jpg,FN,3,num_6,32,num_8,1.43338220337,,,2017_Aug_15_1129,60.0210414883,FEMA4ImagesEEG,001,100915,
AFNE01.JPG,AFNE01.JPG,AFNE01.JPG,AFNE01.JPG,AFNE01.JPG,AFNE01.JPG,,,,,,,,,5,0,50,5,,,,,,,,,,,,,,,AFSA09.jpg,AFNE03.jpg,AFNE16.jpg,AFSA18.jpg,AFSA09.jpg,FS,4,num_8,32,num_6,0.566751545091,,,2017_Aug_15_1129,60.0210414883,FEMA4ImagesEEG,001,100915,
AFNE01.JPG,AFNE01.JPG,AFNE01.JPG,AFNE01.JPG,AFNE01.JPG,AFNE01.JPG,,,,,,,,,5,1,51,9,,,,,,,,,,,,,,,AFSA11.jpg,AFNE10.jpg,AFNE11.jpg,AFSA10.jpg,AFNE11.jpg,FN,3,num_2,32,num_8,1.0334015119,,,2017_Aug_15_1129,60.0210414883,FEMA4ImagesEEG,001,100915,
AFNE01.JPG,AFNE01.JPG,AFNE01.JPG,AFNE01.JPG,AFNE01.JPG,AFNE01.JPG,,,,,,,,,5,2,52,6,,,,,,,,,,,,,,,AFSA15.jpg,AFNE19.jpg,AFNE03.jpg,AFSA08.jpg,AFNE19.jpg,FN,3,num_6,32,num_2,1.26670404353,,,2017_Aug_15_1129,60.0210414883,FEMA4ImagesEEG,001,100915,
AFNE01.JPG,AFNE01.JPG,AFNE01.JPG,AFNE01.JPG,AFNE01.JPG,AFNE01.JPG,,,,,,,,,5,3,53,3,,,,,,,,,,,,,,,AFNE12.jpg,AFSA18.jpg,AFSA10.jpg,AFNE02.jpg,AFSA10.jpg,FS,4,num_2,16,num_2,0.750171675914,,,2017_Aug_15_1129,60.0210414883,FEMA4ImagesEEG,001,100915,
AFNE01.JPG,AFNE01.JPG,AFNE01.JPG,AFNE01.JPG,AFNE01.JPG,AFNE01.JPG,,,,,,,,,5,4,54,7,,,,,,,,,,,,,,,AFNE12.jpg,AFSA03.jpg,AFNE16.jpg,AFSA10.jpg,AFSA10.jpg,FS,4,num_4,16,num_4,1.0001122589,,,2017_Aug_15_1129,60.0210414883,FEMA4ImagesEEG,001,100915,
AFNE01.JPG,AFNE01.JPG,AFNE01.JPG,AFNE01.JPG,AFNE01.JPG,AFNE01.JPG,,,,,,,,,5,5,55,1,,,,,,,,,,,,,,,AFNE06.jpg,AFNE16.jpg,AFSA08.jpg,AFSA18.jpg,AFSA18.jpg,FS,4,num_4,16,num_4,1.39975168332,,,2017_Aug_15_1129,60.0210414883,FEMA4ImagesEEG,001,100915,
AFNE01.JPG,AFNE01.JPG,AFNE01.JPG,AFNE01.JPG,AFNE01.JPG,AFNE01.JPG,,,,,,,,,5,6,56,8,,,,,,,,,,,,,,,AFNE16.jpg,AFSA09.jpg,AFNE06.jpg,AFSA17.jpg,AFSA17.jpg,FS,4,num_4,32,num_2,1.23342826161,,,2017_Aug_15_1129,60.0210414883,FEMA4ImagesEEG,001,100915,
AFNE01.JPG,AFNE01.JPG,AFNE01.JPG,AFNE01.JPG,AFNE01.JPG,AFNE01.JPG,,,,,,,,,5,7,57,4,,,,,,,,,,,,,,,AFNE20.jpg,AFNE07.jpg,AFSA04.jpg,AFSA05.jpg,AFSA05.jpg,FS,4,num_4,16,num_4,1.01675447985,,,2017_Aug_15_1129,60.0210414883,FEMA4ImagesEEG,001,100915,
AFNE01.JPG,AFNE01.JPG,AFNE01.JPG,AFNE01.JPG,AFNE01.JPG,AFNE01.JPG,,,,,,,,,5,8,58,0,,,,,,,,,,,,,,,AFNE16.jpg,AFSA10.jpg,AFSA04.jpg,AFNE06.jpg,AFSA04.jpg,FS,4,num_2,32,num_4,1.20025383339,,,2017_Aug_15_1129,60.0210414883,FEMA4ImagesEEG,001,100915,
AFNE01.JPG,AFNE01.JPG,AFNE01.JPG,AFNE01.JPG,AFNE01.JPG,AFNE01.JPG,,,,,,,,,5,9,59,2,,,,,,,,,,,,,,,AFSA19.jpg,AFSA13.jpg,AFNE10.jpg,AFNE20.jpg,AFSA19.jpg,FS,4,num_8,16,num_8,1.6833862928,,,2017_Aug_15_1129,60.0210414883,FEMA4ImagesEEG,001,100915,
,,,,,,,,,,,,,,,,,,,,,,,,,,,,,,,,,,,,,,,,,,,space,25.4148360715,2017_Aug_15_1129,60.0210414883,FEMA4ImagesEEG,001,100915,
AFNE01.JPG,AFNE01.JPG,AFNE01.JPG,AFNE01.JPG,AFNE01.JPG,AFNE01.JPG,,,,,,,,,,,,,0,0,0,7,,,,,,,,,,,AMNE20.jpg,AMNE09.jpg,AMSA08.jpg,AMSA04.jpg,AMNE09.jpg,MN,1,num_6,32,num_8,0.966462494471,,,2017_Aug_15_1129,60.0210414883,FEMA4ImagesEEG,001,100915,
AFNE01.JPG,AFNE01.JPG,AFNE01.JPG,AFNE01.JPG,AFNE01.JPG,AFNE01.JPG,,,,,,,,,,,,,0,1,1,1,,,,,,,,,,,AMNE09.jpg,AMNE15.jpg,AMSA02.jpg,AMSA18.jpg,AMNE15.jpg,MN,1,num_6,32,num_8,0.86678621704,,,2017_Aug_15_1129,60.0210414883,FEMA4ImagesEEG,001,100915,
AFNE01.JPG,AFNE01.JPG,AFNE01.JPG,AFNE01.JPG,AFNE01.JPG,AFNE01.JPG,,,,,,,,,,,,,0,2,2,3,,,,,,,,,,,AMSA12.jpg,AMSA01.jpg,AMNE04.jpg,AMNE09.jpg,AMSA12.jpg,MS,2,num_8,16,num_8,1.46665670235,,,2017_Aug_15_1129,60.0210414883,FEMA4ImagesEEG,001,100915,
AFNE01.JPG,AFNE01.JPG,AFNE01.JPG,AFNE01.JPG,AFNE01.JPG,AFNE01.JPG,,,,,,,,,,,,,0,3,3,6,,,,,,,,,,,AMSA10.jpg,AMSA07.jpg,AMNE18.jpg,AMNE15.jpg,AMSA10.jpg,MS,2,num_8,32,num_6,1.10009323903,,,2017_Aug_15_1129,60.0210414883,FEMA4ImagesEEG,001,100915,
AFNE01.JPG,AFNE01.JPG,AFNE01.JPG,AFNE01.JPG,AFNE01.JPG,AFNE01.JPG,,,,,,,,,,,,,0,4,4,2,,,,,,,,,,,AMNE10.jpg,AMNE02.jpg,AMSA13.jpg,AMSA17.jpg,AMSA13.jpg,MS,2,num_2,16,num_2,0.766736919351,,,2017_Aug_15_1129,60.0210414883,FEMA4ImagesEEG,001,100915,
AFNE01.JPG,AFNE01.JPG,AFNE01.JPG,AFNE01.JPG,AFNE01.JPG,AFNE01.JPG,,,,,,,,,,,,,0,5,5,9,,,,,,,,,,,AMNE09.jpg,AMNE15.jpg,AMSA10.jpg,AMSA06.jpg,AMNE09.jpg,MN,1,num_8,32,num_6,0.500129097738,,,2017_Aug_15_1129,60.0210414883,FEMA4ImagesEEG,001,100915,
AFNE01.JPG,AFNE01.JPG,AFNE01.JPG,AFNE01.JPG,AFNE01.JPG,AFNE01.JPG,,,,,,,,,,,,,0,6,6,0,,,,,,,,,,,AMNE04.jpg,AMSA01.jpg,AMNE09.jpg,AMSA15.jpg,AMSA01.jpg,MS,2,num_6,16,num_6,0.450169719421,,,2017_Aug_15_1129,60.0210414883,FEMA4ImagesEEG,001,100915,
AFNE01.JPG,AFNE01.JPG,AFNE01.JPG,AFNE01.JPG,AFNE01.JPG,AFNE01.JPG,,,,,,,,,,,,,0,7,7,4,,,,,,,,,,,AMNE16.jpg,AMSA13.jpg,AMNE08.jpg,AMSA18.jpg,AMSA18.jpg,MS,2,num_4,16,num_4,0.883508622923,,,2017_Aug_15_1129,60.0210414883,FEMA4ImagesEEG,001,100915,
AFNE01.JPG,AFNE01.JPG,AFNE01.JPG,AFNE01.JPG,AFNE01.JPG,AFNE01.JPG,,,,,,,,,,,,,0,8,8,5,,,,,,,,,,,AMNE07.jpg,AMNE03.jpg,AMSA04.jpg,AMSA02.jpg,AMSA02.jpg,MS,2,num_4,32,num_6,0.683519399783,,,2017_Aug_15_1129,60.0210414883,FEMA4ImagesEEG,001,100915,
AFNE01.JPG,AFNE01.JPG,AFNE01.JPG,AFNE01.JPG,AFNE01.JPG,AFNE01.JPG,,,,,,,,,,,,,0,9,9,8,,,,,,,,,,,AMSA03.jpg,AMNE04.jpg,AMSA07.jpg,AMNE01.jpg,AMSA03.jpg,MS,2,num_8,32,num_4,1.26671366573,,,2017_Aug_15_1129,60.0210414883,FEMA4ImagesEEG,001,100915,
AFNE01.JPG,AFNE01.JPG,AFNE01.JPG,AFNE01.JPG,AFNE01.JPG,AFNE01.JPG,,,,,,,,,,,,,1,0,10,9,,,,,,,,,,,AMNE06.jpg,AMNE19.jpg,AMSA14.jpg,AMSA04.jpg,AMNE06.jpg,MN,1,num_8,16,num_8,0.98341005962,,,2017_Aug_15_1129,60.0210414883,FEMA4ImagesEEG,001,100915,
AFNE01.JPG,AFNE01.JPG,AFNE01.JPG,AFNE01.JPG,AFNE01.JPG,AFNE01.JPG,,,,,,,,,,,,,1,1,11,4,,,,,,,,,,,AMNE01.jpg,AMSA10.jpg,AMSA01.jpg,AMNE12.jpg,AMSA01.jpg,MS,2,num_2,16,num_2,0.666743430367,,,2017_Aug_15_1129,60.0210414883,FEMA4ImagesEEG,001,100915,
AFNE01.JPG,AFNE01.JPG,AFNE01.JPG,AFNE01.JPG,AFNE01.JPG,AFNE01.JPG,,,,,,,,,,,,,1,2,12,2,,,,,,,,,,,AMNE05.jpg,AMSA18.jpg,AMSA10.jpg,AMNE06.jpg,AMNE05.jpg,MN,1,num_8,32,num_2,0.850102299926,,,2017_Aug_15_1129,60.0210414883,FEMA4ImagesEEG,001,100915,
AFNE01.JPG,AFNE01.JPG,AFNE01.JPG,AFNE01.JPG,AFNE01.JPG,AFNE01.JPG,,,,,,,,,,,,,1,3,13,1,,,,,,,,,,,AMSA03.jpg,AMNE03.jpg,AMSA15.jpg,AMNE09.jpg,AMSA03.jpg,MS,2,num_8,32,num_6,0.816787067,,,2017_Aug_15_1129,60.0210414883,FEMA4ImagesEEG,001,100915,
AFNE01.JPG,AFNE01.JPG,AFNE01.JPG,AFNE01.JPG,AFNE01.JPG,AFNE01.JPG,,,,,,,,,,,,,1,4,14,7,,,,,,,,,,,AMNE04.jpg,AMSA17.jpg,AMNE18.jpg,AMSA19.jpg,AMSA19.jpg,MS,2,num_4,32,num_8,1.13347294064,,,2017_Aug_15_1129,60.0210414883,FEMA4ImagesEEG,001,100915,
AFNE01.JPG,AFNE01.JPG,AFNE01.JPG,AFNE01.JPG,AFNE01.JPG,AFNE01.JPG,,,,,,,,,,,,,1,5,15,8,,,,,,,,,,,AMNE11.jpg,AMSA17.jpg,AMSA15.jpg,AMNE04.jpg,AMNE11.jpg,MN,1,num_8,32,num_4,0.950100600006,,,2017_Aug_15_1129,60.0210414883,FEMA4ImagesEEG,001,100915,
AFNE01.JPG,AFNE01.JPG,AFNE01.JPG,AFNE01.JPG,AFNE01.JPG,AFNE01.JPG,,,,,,,,,,,,,1,6,16,6,,,,,,,,,,,AMSA08.jpg,AMNE11.jpg,AMNE01.jpg,AMSA10.jpg,AMSA08.jpg,MS,2,num_8,32,num_4,0.766760654093,,,2017_Aug_15_1129,60.0210414883,FEMA4ImagesEEG,001,100915,
AFNE01.JPG,AFNE01.JPG,AFNE01.JPG,AFNE01.JPG,AFNE01.JPG,AFNE01.JPG,,,,,,,,,,,,,1,7,17,0,,,,,,,,,,,AMSA16.jpg,AMNE16.jpg,AMSA01.jpg,AMNE08.jpg,AMSA16.jpg,MS,2,num_8,32,num_4,1.13345369625,,,2017_Aug_15_1129,60.0210414883,FEMA4ImagesEEG,001,100915,
AFNE01.JPG,AFNE01.JPG,AFNE01.JPG,AFNE01.JPG,AFNE01.JPG,AFNE01.JPG,,,,,,,,,,,,,1,8,18,5,,,,,,,,,,,AMSA02.jpg,AMNE08.jpg,AMNE11.jpg,AMSA11.jpg,AMSA02.jpg,MS,2,num_8,32,num_4,0.683671109669,,,2017_Aug_15_1129,60.0210414883,FEMA4ImagesEEG,001,100915,
AFNE01.JPG,AFNE01.JPG,AFNE01.JPG,AFNE01.JPG,AFNE01.JPG,AFNE01.JPG,,,,,,,,,,,,,1,9,19,3,,,,,,,,,,,AMSA01.jpg,AMSA15.jpg,AMNE17.jpg,AMNE12.jpg,AMNE17.jpg,MN,1,num_2,32,num_4,0.966749235755,,,2017_Aug_15_1129,60.0210414883,FEMA4ImagesEEG,001,100915,
AFNE01.JPG,AFNE01.JPG,AFNE01.JPG,AFNE01.JPG,AFNE01.JPG,AFNE01.JPG,,,,,,,,,,,,,2,0,20,9,,,,,,,,,,,AMSA10.jpg,AMSA17.jpg,AMNE09.jpg,AMNE02.jpg,AMSA17.jpg,MS,2,num_6,16,num_6,0.533496611228,,,2017_Aug_15_1129,60.0210414883,FEMA4ImagesEEG,001,100915,
AFNE01.JPG,AFNE01.JPG,AFNE01.JPG,AFNE01.JPG,AFNE01.JPG,AFNE01.JPG,,,,,,,,,,,,,2,1,21,0,,,,,,,,,,,AMSA05.jpg,AMNE06.jpg,AMSA08.jpg,AMNE18.jpg,AMSA05.jpg,MS,2,num_8,32,num_4,1.21673953338,,,2017_Aug_15_1129,60.0210414883,FEMA4ImagesEEG,001,100915,
AFNE01.JPG,AFNE01.JPG,AFNE01.JPG,AFNE01.JPG,AFNE01.JPG,AFNE01.JPG,,,,,,,,,,,,,2,2,22,7,,,,,,,,,,,AMSA16.jpg,AMNE12.jpg,AMNE18.jpg,AMSA14.jpg,AMSA14.jpg,MS,2,num_4,16,num_4,0.566897481651,,,2017_Aug_15_1129,60.0210414883,FEMA4ImagesEEG,001,100915,
AFNE01.JPG,AFNE01.JPG,AFNE01.JPG,AFNE01.JPG,AFNE01.JPG,AFNE01.JPG,,,,,,,,,,,,,2,3,23,6,,,,,,,,,,,AMSA12.jpg,AMNE14.jpg,AMSA03.jpg,AMNE04.jpg,AMNE14.jpg,MN,1,num_6,16,num_6,0.600195073886,,,2017_Aug_15_1129,60.0210414883,FEMA4ImagesEEG,001,100915,
AFNE01.JPG,AFNE01.JPG,AFNE01.JPG,AFNE01.JPG,AFNE01.JPG,AFNE01.JPG,,,,,,,,,,,,,2,4,24,1,,,,,,,,,,,AMSA15.jpg,AMNE12.jpg,AMSA16.jpg,AMNE10.jpg,AMSA16.jpg,MS,2,num_2,32,num_6,0.700086567638,,,2017_Aug_15_1129,60.0210414883,FEMA4ImagesEEG,001,100915,
AFNE01.JPG,AFNE01.JPG,AFNE01.JPG,AFNE01.JPG,AFNE01.JPG,AFNE01.JPG,,,,,,,,,,,,,2,5,25,8,,,,,,,,,,,AMNE07.jpg,AMSA18.jpg,AMSA15.jpg,AMNE03.jpg,AMSA15.jpg,MS,2,num_2,16,num_2,0.583465932476,,,2017_Aug_15_1129,60.0210414883,FEMA4ImagesEEG,001,100915,
AFNE01.JPG,AFNE01.JPG,AFNE01.JPG,AFNE01.JPG,AFNE01.JPG,AFNE01.JPG,,,,,,,,,,,,,2,6,26,2,,,,,,,,,,,AMNE15.jpg,AMSA12.jpg,AMSA09.jpg,AMNE01.jpg,AMNE15.jpg,MN,1,num_8,16,num_8,0.616793032765,,,2017_Aug_15_1129,60.0210414883,FEMA4ImagesEEG,001,100915,
AFNE01.JPG,AFNE01.JPG,AFNE01.JPG,AFNE01.JPG,AFNE01.JPG,AFNE01.JPG,,,,,,,,,,,,,2,7,27,4,,,,,,,,,,,AMNE14.jpg,AMSA04.jpg,AMNE13.jpg,AMSA07.jpg,AMNE13.jpg,MN,1,num_2,32,num_4,1.33359013892,,,2017_Aug_15_1129,60.0210414883,FEMA4ImagesEEG,001,100915,
AFNE01.JPG,AFNE01.JPG,AFNE01.JPG,AFNE01.JPG,AFNE01.JPG,AFNE01.JPG,,,,,,,,,,,,,2,8,28,3,,,,,,,,,,,AMSA12.jpg,AMNE19.jpg,AMSA08.jpg,AMNE08.jpg,AMSA08.jpg,MS,2,num_2,16,num_2,0.700268747809,,,2017_Aug_15_1129,60.0210414883,FEMA4ImagesEEG,001,100915,
AFNE01.JPG,AFNE01.JPG,AFNE01.JPG,AFNE01.JPG,AFNE01.JPG,AFNE01.JPG,,,,,,,,,,,,,2,9,29,5,,,,,,,,,,,AMNE15.jpg,AMNE19.jpg,AMSA02.jpg,AMSA12.jpg,AMSA02.jpg,MS,2,num_2,16,num_2,1.25005412483,,,2017_Aug_15_1129,60.0210414883,FEMA4ImagesEEG,001,100915,
AFNE01.JPG,AFNE01.JPG,AFNE01.JPG,AFNE01.JPG,AFNE01.JPG,AFNE01.JPG,,,,,,,,,,,,,3,0,30,5,,,,,,,,,,,AMNE12.jpg,AMNE02.jpg,AMSA15.jpg,AMSA12.jpg,AMSA15.jpg,MS,2,num_2,16,num_2,0.550141077358,,,2017_Aug_15_1129,60.0210414883,FEMA4ImagesEEG,001,100915,
AFNE01.JPG,AFNE01.JPG,AFNE01.JPG,AFNE01.JPG,AFNE01.JPG,AFNE01.JPG,,,,,,,,,,,,,3,1,31,2,,,,,,,,,,,AMNE14.jpg,AMNE19.jpg,AMSA03.jpg,AMSA16.jpg,AMSA16.jpg,MS,2,num_4,32,num_6,0.80008454698,,,2017_Aug_15_1129,60.0210414883,FEMA4ImagesEEG,001,100915,
AFNE01.JPG,AFNE01.JPG,AFNE01.JPG,AFNE01.JPG,AFNE01.JPG,AFNE01.JPG,,,,,,,,,,,,,3,2,32,0,,,,,,,,,,,AMSA04.jpg,AMNE20.jpg,AMNE16.jpg,AMSA12.jpg,AMSA12.jpg,MS,2,num_4,16,num_4,0.800212842878,,,2017_Aug_15_1129,60.0210414883,FEMA4ImagesEEG,001,100915,
AFNE01.JPG,AFNE01.JPG,AFNE01.JPG,AFNE01.JPG,AFNE01.JPG,AFNE01.JPG,,,,,,,,,,,,,3,3,33,1,,,,,,,,,,,AMSA07.jpg,AMNE11.jpg,AMSA10.jpg,AMNE08.jpg,AMNE08.jpg,MN,1,num_4,16,num_4,1.23343531786,,,2017_Aug_15_1129,60.0210414883,FEMA4ImagesEEG,001,100915,
AFNE01.JPG,AFNE01.JPG,AFNE01.JPG,AFNE01.JPG,AFNE01.JPG,AFNE01.JPG,,,,,,,,,,,,,3,4,34,6,,,,,,,,,,,AMSA04.jpg,AMSA12.jpg,AMNE17.jpg,AMNE12.jpg,AMNE17.jpg,MN,1,num_2,16,num_2,0.633330051103,,,2017_Aug_15_1129,60.0210414883,FEMA4ImagesEEG,001,100915,
AFNE01.JPG,AFNE01.JPG,AFNE01.JPG,AFNE01.JPG,AFNE01.JPG,AFNE01.JPG,,,,,,,,,,,,,3,5,35,4,,,,,,,,,,,AMSA04.jpg,AMSA05.jpg,AMNE05.jpg,AMNE10.jpg,AMNE10.jpg,MN,1,num_4,32,num_2,0.850077923707,,,2017_Aug_15_1129,60.0210414883,FEMA4ImagesEEG,001,100915,
AFNE01.JPG,AFNE01.JPG,AFNE01.JPG,AFNE01.JPG,AFNE01.JPG,AFNE01.JPG,,,,,,,,,,,,,3,6,36,3,,,,,,,,,,,AMSA10.jpg,AMSA11.jpg,AMNE07.jpg,AMNE02.jpg,AMSA10.jpg,MS,2,num_8,16,num_8,0.916768047144,,,2017_Aug_15_1129,60.0210414883,FEMA4ImagesEEG,001,100915,
AFNE01.JPG,AFNE01.JPG,AFNE01.JPG,AFNE01.JPG,AFNE01.JPG,AFNE01.JPG,,,,,,,,,,,,,3,7,37,7,,,,,,,,,,,AMSA07.jpg,AMSA11.jpg,AMNE19.jpg,AMNE16.jpg,AMSA07.jpg,MS,2,num_8,16,num_8,0.700115754968,,,2017_Aug_15_1129,60.0210414883,FEMA4ImagesEEG,001,100915,
AFNE01.JPG,AFNE01.JPG,AFNE01.JPG,AFNE01.JPG,AFNE01.JPG,AFNE01.JPG,,,,,,,,,,,,,3,8,38,8,,,,,,,,,,,AMNE15.jpg,AMNE12.jpg,AMSA16.jpg,AMSA09.jpg,AMSA16.jpg,MS,2,num_2,32,num_4,0.566849049952,,,2017_Aug_15_1129,60.0210414883,FEMA4ImagesEEG,001,100915,
AFNE01.JPG,AFNE01.JPG,AFNE01.JPG,AFNE01.JPG,AFNE01.JPG,AFNE01.JPG,,,,,,,,,,,,,3,9,39,9,,,,,,,,,,,AMNE07.jpg,AMSA01.jpg,AMSA16.jpg,AMNE19.jpg,AMNE07.jpg,MN,1,num_8,16,num_8,1.00011065521,,,2017_Aug_15_1129,60.0210414883,FEMA4ImagesEEG,001,100915,
AFNE01.JPG,AFNE01.JPG,AFNE01.JPG,AFNE01.JPG,AFNE01.JPG,AFNE01.JPG,,,,,,,,,,,,,4,0,40,3,,,,,,,,,,,AMNE20.jpg,AMSA18.jpg,AMNE04.jpg,AMSA05.jpg,AMNE20.jpg,MN,1,num_8,32,num_4,0.950094826694,,,2017_Aug_15_1129,60.0210414883,FEMA4ImagesEEG,001,100915,
AFNE01.JPG,AFNE01.JPG,AFNE01.JPG,AFNE01.JPG,AFNE01.JPG,AFNE01.JPG,,,,,,,,,,,,,4,1,41,7,,,,,,,,,,,AMSA13.jpg,AMNE12.jpg,AMNE19.jpg,AMSA18.jpg,AMNE12.jpg,MN,1,num_6,32,num_8,1.03343198218,,,2017_Aug_15_1129,60.0210414883,FEMA4ImagesEEG,001,100915,
AFNE01.JPG,AFNE01.JPG,AFNE01.JPG,AFNE01.JPG,AFNE01.JPG,AFNE01.JPG,,,,,,,,,,,,,4,2,42,4,,,,,,,,,,,AMNE13.jpg,AMSA03.jpg,AMSA11.jpg,AMNE05.jpg,AMSA03.jpg,MS,2,num_6,16,num_6,0.816780652225,,,2017_Aug_15_1129,60.0210414883,FEMA4ImagesEEG,001,100915,
AFNE01.JPG,AFNE01.JPG,AFNE01.JPG,AFNE01.JPG,AFNE01.JPG,AFNE01.JPG,,,,,,,,,,,,,4,3,43,1,,,,,,,,,,,AMNE09.jpg,AMNE12.jpg,AMSA13.jpg,AMSA12.jpg,AMSA12.jpg,MS,2,num_4,32,num_8,1.04999305599,,,2017_Aug_15_1129,60.0210414883,FEMA4ImagesEEG,001,100915,
AFNE01.JPG,AFNE01.JPG,AFNE01.JPG,AFNE01.JPG,AFNE01.JPG,AFNE01.JPG,,,,,,,,,,,,,4,4,44,6,,,,,,,,,,,AMSA17.jpg,AMNE19.jpg,AMNE10.jpg,AMSA08.jpg,AMSA08.jpg,MS,2,num_4,16,num_4,1.06661827773,,,2017_Aug_15_1129,60.0210414883,FEMA4ImagesEEG,001,100915,
AFNE01.JPG,AFNE01.JPG,AFNE01.JPG,AFNE01.JPG,AFNE01.JPG,AFNE01.JPG,,,,,,,,,,,,,4,5,45,0,,,,,,,,,,,AMSA04.jpg,AMSA11.jpg,AMNE06.jpg,AMNE13.jpg,AMNE06.jpg,MN,1,num_2,32,num_4,0.883424909858,,,2017_Aug_15_1129,60.0210414883,FEMA4ImagesEEG,001,100915,
AFNE01.JPG,AFNE01.JPG,AFNE01.JPG,AFNE01.JPG,AFNE01.JPG,AFNE01.JPG,,,,,,,,,,,,,4,6,46,2,,,,,,,,,,,AMNE02.jpg,AMNE10.jpg,AMSA15.jpg,AMSA18.jpg,AMNE10.jpg,MN,1,num_6,32,num_2,1.00009622192,,,2017_Aug_15_1129,60.0210414883,FEMA4ImagesEEG,001,100915,
AFNE01.JPG,AFNE01.JPG,AFNE01.JPG,AFNE01.JPG,AFNE01.JPG,AFNE01.JPG,,,,,,,,,,,,,4,7,47,8,,,,,,,,,,,AMNE02.jpg,AMNE06.jpg,AMSA04.jpg,AMSA12.jpg,AMSA04.jpg,MS,2,num_2,16,num_2,0.683486363589,,,2017_Aug_15_1129,60.0210414883,FEMA4ImagesEEG,001,100915,
AFNE01.JPG,AFNE01.JPG,AFNE01.JPG,AFNE01.JPG,AFNE01.JPG,AFNE01.JPG,,,,,,,,,,,,,4,8,48,9,,,,,,,,,,,AMNE02.jpg,AMSA01.jpg,AMNE04.jpg,AMSA09.jpg,AMSA09.jpg,MS,2,num_4,16,num_4,0.883422023209,,,2017_Aug_15_1129,60.0210414883,FEMA4ImagesEEG,001,100915,
AFNE01.JPG,AFNE01.JPG,AFNE01.JPG,AFNE01.JPG,AFNE01.JPG,AFNE01.JPG,,,,,,,,,,,,,4,9,49,5,,,,,,,,,,,AMSA15.jpg,AMNE08.jpg,AMSA05.jpg,AMNE13.jpg,AMSA05.jpg,MS,2,num_2,16,num_2,0.73345472262,,,2017_Aug_15_1129,60.0210414883,FEMA4ImagesEEG,001,100915,
AFNE01.JPG,AFNE01.JPG,AFNE01.JPG,AFNE01.JPG,AFNE01.JPG,AFNE01.JPG,,,,,,,,,,,,,5,0,50,0,,,,,,,,,,,AMSA12.jpg,AMSA17.jpg,AMNE07.jpg,AMNE06.jpg,AMNE07.jpg,MN,1,num_2,32,num_8,0.983428341773,,,2017_Aug_15_1129,60.0210414883,FEMA4ImagesEEG,001,100915,
AFNE01.JPG,AFNE01.JPG,AFNE01.JPG,AFNE01.JPG,AFNE01.JPG,AFNE01.JPG,,,,,,,,,,,,,5,1,51,4,,,,,,,,,,,AMSA02.jpg,AMNE04.jpg,AMNE12.jpg,AMSA18.jpg,AMNE04.jpg,MN,1,num_6,16,num_6,0.583459838424,,,2017_Aug_15_1129,60.0210414883,FEMA4ImagesEEG,001,100915,
AFNE01.JPG,AFNE01.JPG,AFNE01.JPG,AFNE01.JPG,AFNE01.JPG,AFNE01.JPG,,,,,,,,,,,,,5,2,52,9,,,,,,,,,,,AMSA16.jpg,AMNE03.jpg,AMNE14.jpg,AMSA12.jpg,AMSA12.jpg,MS,2,num_4,16,num_4,0.783459645972,,,2017_Aug_15_1129,60.0210414883,FEMA4ImagesEEG,001,100915,
AFNE01.JPG,AFNE01.JPG,AFNE01.JPG,AFNE01.JPG,AFNE01.JPG,AFNE01.JPG,,,,,,,,,,,,,5,3,53,3,,,,,,,,,,,AMNE02.jpg,AMNE13.jpg,AMSA09.jpg,AMSA17.jpg,AMSA09.jpg,MS,2,num_2,16,num_2,0.566773034632,,,2017_Aug_15_1129,60.0210414883,FEMA4ImagesEEG,001,100915,
AFNE01.JPG,AFNE01.JPG,AFNE01.JPG,AFNE01.JPG,AFNE01.JPG,AFNE01.JPG,,,,,,,,,,,,,5,4,54,7,,,,,,,,,,,AMSA03.jpg,AMNE04.jpg,AMNE03.jpg,AMSA02.jpg,AMSA03.jpg,MS,2,num_8,32,num_2,0.833454947133,,,2017_Aug_15_1129,60.0210414883,FEMA4ImagesEEG,001,100915,
AFNE01.JPG,AFNE01.JPG,AFNE01.JPG,AFNE01.JPG,AFNE01.JPG,AFNE01.JPG,,,,,,,,,,,,,5,5,55,6,,,,,,,,,,,AMNE17.jpg,AMNE12.jpg,AMSA14.jpg,AMSA10.jpg,AMNE12.jpg,MN,1,num_6,32,num_8,1.23345199632,,,2017_Aug_15_1129,60.0210414883,FEMA4ImagesEEG,001,100915,
AFNE01.JPG,AFNE01.JPG,AFNE01.JPG,AFNE01.JPG,AFNE01.JPG,AFNE01.JPG,,,,,,,,,,,,,5,6,56,8,,,,,,,,,,,AMSA11.jpg,AMSA13.jpg,AMNE01.jpg,AMNE05.jpg,AMNE05.jpg,MN,1,num_4,16,num_4,0.850083055557,,,2017_Aug_15_1129,60.0210414883,FEMA4ImagesEEG,001,100915,
AFNE01.JPG,AFNE01.JPG,AFNE01.JPG,AFNE01.JPG,AFNE01.JPG,AFNE01.JPG,,,,,,,,,,,,,5,7,57,2,,,,,,,,,,,AMNE11.jpg,AMNE02.jpg,AMSA09.jpg,AMSA01.jpg,AMNE11.jpg,MN,1,num_8,32,num_6,0.749854785099,,,2017_Aug_15_1129,60.0210414883,FEMA4ImagesEEG,001,100915,
AFNE01.JPG,AFNE01.JPG,AFNE01.JPG,AFNE01.JPG,AFNE01.JPG,AFNE01.JPG,,,,,,,,,,,,,5,8,58,1,,,,,,,,,,,AMSA15.jpg,AMNE15.jpg,AMSA20.jpg,AMNE06.jpg,AMSA15.jpg,MS,2,num_8,32,num_4,0.733521436472,,,2017_Aug_15_1129,60.0210414883,FEMA4ImagesEEG,001,100915,
AFNE01.JPG,AFNE01.JPG,AFNE01.JPG,AFNE01.JPG,AFNE01.JPG,AFNE01.JPG,,,,,,,,,,,,,5,9,59,5,,,,,,,,,,,AMSA17.jpg,AMSA02.jpg,AMNE16.jpg,AMNE03.jpg,AMSA02.jpg,MS,2,num_6,16,num_6,0.983502111907,,,2017_Aug_15_1129,60.0210414883,FEMA4ImagesEEG,001,100915,
,,,,,,,,,,,,,,,,,,,,,,,,,,,,,,,,,,,,,,,,,,,space,24.4818790086,2017_Aug_15_1129,60.0210414883,FEMA4ImagesEEG,001,100915,
AFNE01.JPG,AFNE01.JPG,AFNE01.JPG,AFNE01.JPG,AFNE01.JPG,AFNE01.JPG,,,,,,,,,,,,,,,,,0,0,0,7,,,,,,,AFSA15.jpg,AFSA01.jpg,AFNE13.jpg,AFNE10.jpg,AFSA15.jpg,FS,4,num_8,16,num_8,0.800134582372,,,2017_Aug_15_1129,60.0210414883,FEMA4ImagesEEG,001,100915,
AFNE01.JPG,AFNE01.JPG,AFNE01.JPG,AFNE01.JPG,AFNE01.JPG,AFNE01.JPG,,,,,,,,,,,,,,,,,0,1,1,5,,,,,,,AFNE05.jpg,AFSA06.jpg,AFSA07.jpg,AFNE03.jpg,AFNE03.jpg,FN,3,num_4,16,num_4,0.683504004264,,,2017_Aug_15_1129,60.0210414883,FEMA4ImagesEEG,001,100915,
AFNE01.JPG,AFNE01.JPG,AFNE01.JPG,AFNE01.JPG,AFNE01.JPG,AFNE01.JPG,,,,,,,,,,,,,,,,,0,2,2,1,,,,,,,AFNE19.jpg,AFSA15.jpg,AFSA12.jpg,AFNE09.jpg,AFSA15.jpg,FS,4,num_6,16,num_6,0.683452365178,,,2017_Aug_15_1129,60.0210414883,FEMA4ImagesEEG,001,100915,
AFNE01.JPG,AFNE01.JPG,AFNE01.JPG,AFNE01.JPG,AFNE01.JPG,AFNE01.JPG,,,,,,,,,,,,,,,,,0,3,3,9,,,,,,,AFSA20.jpg,AFSA01.jpg,AFNE09.jpg,AFNE02.jpg,AFSA01.jpg,FS,4,num_6,32,num_4,0.799836615202,,,2017_Aug_15_1129,60.0210414883,FEMA4ImagesEEG,001,100915,
AFNE01.JPG,AFNE01.JPG,AFNE01.JPG,AFNE01.JPG,AFNE01.JPG,AFNE01.JPG,,,,,,,,,,,,,,,,,0,4,4,8,,,,,,,AFNE08.jpg,AFSA03.jpg,AFNE15.jpg,AFSA11.jpg,AFNE08.jpg,FN,3,num_8,16,num_8,0.999965039373,,,2017_Aug_15_1129,60.0210414883,FEMA4ImagesEEG,001,100915,
AFNE01.JPG,AFNE01.JPG,AFNE01.JPG,AFNE01.JPG,AFNE01.JPG,AFNE01.JPG,,,,,,,,,,,,,,,,,0,5,5,2,,,,,,,AFNE08.jpg,AFSA13.jpg,AFNE04.jpg,AFSA18.jpg,AFSA13.jpg,FS,4,num_6,16,num_6,0.516777412748,,,2017_Aug_15_1129,60.0210414883,FEMA4ImagesEEG,001,100915,
AFNE01.JPG,AFNE01.JPG,AFNE01.JPG,AFNE01.JPG,AFNE01.JPG,AFNE01.JPG,,,,,,,,,,,,,,,,,0,6,6,6,,,,,,,AFSA03.jpg,AFSA20.jpg,AFNE07.jpg,AFNE01.jpg,AFNE07.jpg,FN,3,num_2,16,num_2,0.833500492183,,,2017_Aug_15_1129,60.0210414883,FEMA4ImagesEEG,001,100915,
AFNE01.JPG,AFNE01.JPG,AFNE01.JPG,AFNE01.JPG,AFNE01.JPG,AFNE01.JPG,,,,,,,,,,,,,,,,,0,7,7,3,,,,,,,AFSA01.jpg,AFNE12.jpg,AFSA12.jpg,AFNE05.jpg,AFNE12.jpg,FN,3,num_6,16,num_6,0.48345640651,,,2017_Aug_15_1129,60.0210414883,FEMA4ImagesEEG,001,100915,
AFNE01.JPG,AFNE01.JPG,AFNE01.JPG,AFNE01.JPG,AFNE01.JPG,AFNE01.JPG,,,,,,,,,,,,,,,,,0,8,8,4,,,,,,,AFNE02.jpg,AFNE06.jpg,AFSA05.jpg,AFSA19.jpg,AFNE02.jpg,FN,3,num_8,16,num_8,0.666765561415,,,2017_Aug_15_1129,60.0210414883,FEMA4ImagesEEG,001,100915,
AFNE01.JPG,AFNE01.JPG,AFNE01.JPG,AFNE01.JPG,AFNE01.JPG,AFNE01.JPG,,,,,,,,,,,,,,,,,0,9,9,0,,,,,,,AFNE20.jpg,AFSA02.jpg,AFSA08.jpg,AFNE09.jpg,AFSA08.jpg,FS,4,num_2,16,num_2,0.616769939516,,,2017_Aug_15_1129,60.0210414883,FEMA4ImagesEEG,001,100915,
AFNE01.JPG,AFNE01.JPG,AFNE01.JPG,AFNE01.JPG,AFNE01.JPG,AFNE01.JPG,,,,,,,,,,,,,,,,,1,0,10,0,,,,,,,AFSA11.jpg,AFNE01.jpg,AFSA06.jpg,AFNE15.jpg,AFSA11.jpg,FS,4,num_8,16,num_8,1.53324547205,,,2017_Aug_15_1129,60.0210414883,FEMA4ImagesEEG,001,100915,
AFNE01.JPG,AFNE01.JPG,AFNE01.JPG,AFNE01.JPG,AFNE01.JPG,AFNE01.JPG,,,,,,,,,,,,,,,,,1,1,11,6,,,,,,,AFNE03.jpg,AFSA19.jpg,AFNE08.jpg,AFSA07.jpg,AFNE08.jpg,FN,3,num_2,16,num_2,0.750134470116,,,2017_Aug_15_1129,60.0210414883,FEMA4ImagesEEG,001,100915,
AFNE01.JPG,AFNE01.JPG,AFNE01.JPG,AFNE01.JPG,AFNE01.JPG,AFNE01.JPG,,,,,,,,,,,,,,,,,1,2,12,8,,,,,,,AFSA05.jpg,AFSA09.jpg,AFNE01.jpg,AFNE07.jpg,AFSA05.jpg,FS,4,num_8,16,num_8,0.566773355386,,,2017_Aug_15_1129,60.0210414883,FEMA4ImagesEEG,001,100915,
AFNE01.JPG,AFNE01.JPG,AFNE01.JPG,AFNE01.JPG,AFNE01.JPG,AFNE01.JPG,,,,,,,,,,,,,,,,,1,3,13,5,,,,,,,AFNE14.jpg,AFSA07.jpg,AFNE13.jpg,AFSA08.jpg,AFNE14.jpg,FN,3,num_8,32,num_6,0.650133604126,,,2017_Aug_15_1129,60.0210414883,FEMA4ImagesEEG,001,100915,
AFNE01.JPG,AFNE01.JPG,AFNE01.JPG,AFNE01.JPG,AFNE01.JPG,AFNE01.JPG,,,,,,,,,,,,,,,,,1,4,14,9,,,,,,,AFSA06.jpg,AFNE18.jpg,AFSA08.jpg,AFNE05.jpg,AFSA06.jpg,FS,4,num_8,16,num_8,1.05010435266,,,2017_Aug_15_1129,60.0210414883,FEMA4ImagesEEG,001,100915,
AFNE01.JPG,AFNE01.JPG,AFNE01.JPG,AFNE01.JPG,AFNE01.JPG,AFNE01.JPG,,,,,,,,,,,,,,,,,1,5,15,4,,,,,,,AFNE07.jpg,AFNE01.jpg,AFSA16.jpg,AFSA04.jpg,AFSA04.jpg,FS,4,num_4,16,num_4,1.18349133506,,,2017_Aug_15_1129,60.0210414883,FEMA4ImagesEEG,001,100915,
AFNE01.JPG,AFNE01.JPG,AFNE01.JPG,AFNE01.JPG,AFNE01.JPG,AFNE01.JPG,,,,,,,,,,,,,,,,,1,6,16,7,,,,,,,AFNE10.jpg,AFNE05.jpg,AFSA05.jpg,AFSA17.jpg,AFNE10.jpg,FN,3,num_8,16,num_8,1.00021457486,,,2017_Aug_15_1129,60.0210414883,FEMA4ImagesEEG,001,100915,
AFNE01.JPG,AFNE01.JPG,AFNE01.JPG,AFNE01.JPG,AFNE01.JPG,AFNE01.JPG,,,,,,,,,,,,,,,,,1,7,17,3,,,,,,,AFNE14.jpg,AFNE05.jpg,AFSA18.jpg,AFSA19.jpg,AFSA19.jpg,FS,4,num_4,16,num_4,0.900106261062,,,2017_Aug_15_1129,60.0210414883,FEMA4ImagesEEG,001,100915,
AFNE01.JPG,AFNE01.JPG,AFNE01.JPG,AFNE01.JPG,AFNE01.JPG,AFNE01.JPG,,,,,,,,,,,,,,,,,1,8,18,2,,,,,,,AFNE09.jpg,AFNE16.jpg,AFSA20.jpg,AFSA08.jpg,AFSA08.jpg,FS,4,num_4,16,num_4,0.983473886823,,,2017_Aug_15_1129,60.0210414883,FEMA4ImagesEEG,001,100915,
AFNE01.JPG,AFNE01.JPG,AFNE01.JPG,AFNE01.JPG,AFNE01.JPG,AFNE01.JPG,,,,,,,,,,,,,,,,,1,9,19,1,,,,,,,AFNE07.jpg,AFSA18.jpg,AFNE08.jpg,AFSA04.jpg,AFNE08.jpg,FN,3,num_2,32,num_8,0.816761087088,,,2017_Aug_15_1129,60.0210414883,FEMA4ImagesEEG,001,100915,
AFNE01.JPG,AFNE01.JPG,AFNE01.JPG,AFNE01.JPG,AFNE01.JPG,AFNE01.JPG,,,,,,,,,,,,,,,,,2,0,20,4,,,,,,,AFSA07.jpg,AFNE12.jpg,AFSA04.jpg,AFNE08.jpg,AFNE08.jpg,FN,3,num_4,32,num_8,1.23338816914,,,2017_Aug_15_1129,60.0210414883,FEMA4ImagesEEG,001,100915,
AFNE01.JPG,AFNE01.JPG,AFNE01.JPG,AFNE01.JPG,AFNE01.JPG,AFNE01.JPG,,,,,,,,,,,,,,,,,2,1,21,2,,,,,,,AFSA12.jpg,AFNE06.jpg,AFNE08.jpg,AFSA09.jpg,AFNE06.jpg,FN,3,num_6,32,num_2,1.0333813053,,,2017_Aug_15_1129,60.0210414883,FEMA4ImagesEEG,001,100915,
AFNE01.JPG,AFNE01.JPG,AFNE01.JPG,AFNE01.JPG,AFNE01.JPG,AFNE01.JPG,,,,,,,,,,,,,,,,,2,2,22,6,,,,,,,AFSA10.jpg,AFNE16.jpg,AFNE11.jpg,AFSA06.jpg,AFNE11.jpg,FN,3,num_2,16,num_2,0.616838257061,,,2017_Aug_15_1129,60.0210414883,FEMA4ImagesEEG,001,100915,
AFNE01.JPG,AFNE01.JPG,AFNE01.JPG,AFNE01.JPG,AFNE01.JPG,AFNE01.JPG,,,,,,,,,,,,,,,,,2,3,23,8,,,,,,,AFNE16.jpg,AFSA06.jpg,AFNE05.jpg,AFSA03.jpg,AFNE16.jpg,FN,3,num_8,32,num_6,0.933440738372,,,2017_Aug_15_1129,60.0210414883,FEMA4ImagesEEG,001,100915,
AFNE01.JPG,AFNE01.JPG,AFNE01.JPG,AFNE01.JPG,AFNE01.JPG,AFNE01.JPG,,,,,,,,,,,,,,,,,2,4,24,3,,,,,,,AFNE04.jpg,AFSA16.jpg,AFNE10.jpg,AFSA19.jpg,AFNE10.jpg,FN,3,num_2,16,num_2,0.500163737626,,,2017_Aug_15_1129,60.0210414883,FEMA4ImagesEEG,001,100915,
AFNE01.JPG,AFNE01.JPG,AFNE01.JPG,AFNE01.JPG,AFNE01.JPG,AFNE01.JPG,,,,,,,,,,,,,,,,,2,5,25,1,,,,,,,AFSA02.jpg,AFSA19.jpg,AFNE07.jpg,AFNE02.jpg,AFSA02.jpg,FS,4,num_8,16,num_8,1.00008852416,,,2017_Aug_15_1129,60.0210414883,FEMA4ImagesEEG,001,100915,
AFNE01.JPG,AFNE01.JPG,AFNE01.JPG,AFNE01.JPG,AFNE01.JPG,AFNE01.JPG,,,,,,,,,,,,,,,,,2,6,26,7,,,,,,,AFNE07.jpg,AFNE18.jpg,AFSA20.jpg,AFSA12.jpg,AFSA20.jpg,FS,4,num_2,32,num_4,0.93352990401,,,2017_Aug_15_1129,60.0210414883,FEMA4ImagesEEG,001,100915,
AFNE01.JPG,AFNE01.JPG,AFNE01.JPG,AFNE01.JPG,AFNE01.JPG,AFNE01.JPG,,,,,,,,,,,,,,,,,2,7,27,5,,,,,,,AFNE15.jpg,AFSA16.jpg,AFSA06.jpg,AFNE17.jpg,AFNE17.jpg,FN,3,num_4,32,num_8,0.750220107613,,,2017_Aug_15_1129,60.0210414883,FEMA4ImagesEEG,001,100915,
AFNE01.JPG,AFNE01.JPG,AFNE01.JPG,AFNE01.JPG,AFNE01.JPG,AFNE01.JPG,,,,,,,,,,,,,,,,,2,8,28,0,,,,,,,AFNE01.jpg,AFSA14.jpg,AFNE13.jpg,AFSA02.jpg,AFNE13.jpg,FN,3,num_2,16,num_2,0.84999613509,,,2017_Aug_15_1129,60.0210414883,FEMA4ImagesEEG,001,100915,
AFNE01.JPG,AFNE01.JPG,AFNE01.JPG,AFNE01.JPG,AFNE01.JPG,AFNE01.JPG,,,,,,,,,,,,,,,,,2,9,29,9,,,,,,,AFNE03.jpg,AFSA14.jpg,AFNE10.jpg,AFSA16.jpg,AFNE10.jpg,FN,3,num_2,32,num_6,0.733493211388,,,2017_Aug_15_1129,60.0210414883,FEMA4ImagesEEG,001,100915,
AFNE01.JPG,AFNE01.JPG,AFNE01.JPG,AFNE01.JPG,AFNE01.JPG,AFNE01.JPG,,,,,,,,,,,,,,,,,3,0,30,3,,,,,,,AFSA13.jpg,AFSA16.jpg,AFNE16.jpg,AFNE10.jpg,AFSA16.jpg,FS,4,num_6,16,num_6,0.799955609618,,,2017_Aug_15_1129,60.0210414883,FEMA4ImagesEEG,001,100915,
AFNE01.JPG,AFNE01.JPG,AFNE01.JPG,AFNE01.JPG,AFNE01.JPG,AFNE01.JPG,,,,,,,,,,,,,,,,,3,1,31,2,,,,,,,AFSA12.jpg,AFSA04.jpg,AFNE11.jpg,AFNE05.jpg,AFNE11.jpg,FN,3,num_2,16,num_2,1.08328006382,,,2017_Aug_15_1129,60.0210414883,FEMA4ImagesEEG,001,100915,
AFNE01.JPG,AFNE01.JPG,AFNE01.JPG,AFNE01.JPG,AFNE01.JPG,AFNE01.JPG,,,,,,,,,,,,,,,,,3,2,32,4,,,,,,,AFSA15.jpg,AFNE06.jpg,AFNE14.jpg,AFSA20.jpg,AFNE06.jpg,FN,3,num_6,16,num_6,1.01673715991,,,2017_Aug_15_1129,60.0210414883,FEMA4ImagesEEG,001,100915,
AFNE01.JPG,AFNE01.JPG,AFNE01.JPG,AFNE01.JPG,AFNE01.JPG,AFNE01.JPG,,,,,,,,,,,,,,,,,3,3,33,0,,,,,,,AFNE01.jpg,AFSA14.jpg,AFSA03.jpg,AFNE14.jpg,AFSA14.jpg,FS,4,num_6,16,num_6,0.533489234207,,,2017_Aug_15_1129,60.0210414883,FEMA4ImagesEEG,001,100915,
AFNE01.JPG,AFNE01.JPG,AFNE01.JPG,AFNE01.JPG,AFNE01.JPG,AFNE01.JPG,,,,,,,,,,,,,,,,,3,4,34,1,,,,,,,AFSA11.jpg,AFNE01.jpg,AFNE19.jpg,AFSA12.jpg,AFNE19.jpg,FN,3,num_2,16,num_2,0.483457047972,,,2017_Aug_15_1129,60.0210414883,FEMA4ImagesEEG,001,100915,
AFNE01.JPG,AFNE01.JPG,AFNE01.JPG,AFNE01.JPG,AFNE01.JPG,AFNE01.JPG,,,,,,,,,,,,,,,,,3,5,35,6,,,,,,,AFNE08.jpg,AFSA03.jpg,AFSA17.jpg,AFNE07.jpg,AFNE07.jpg,FN,3,num_4,16,num_4,1.06676164838,,,2017_Aug_15_1129,60.0210414883,FEMA4ImagesEEG,001,100915,
AFNE01.JPG,AFNE01.JPG,AFNE01.JPG,AFNE01.JPG,AFNE01.JPG,AFNE01.JPG,,,,,,,,,,,,,,,,,3,6,36,9,,,,,,,AFSA07.jpg,AFSA14.jpg,AFNE07.jpg,AFNE18.jpg,AFNE07.jpg,FN,3,num_2,16,num_2,0.650118850099,,,2017_Aug_15_1129,60.0210414883,FEMA4ImagesEEG,001,100915,
AFNE01.JPG,AFNE01.JPG,AFNE01.JPG,AFNE01.JPG,AFNE01.JPG,AFNE01.JPG,,,,,,,,,,,,,,,,,3,7,37,7,,,,,,,AFNE08.jpg,AFSA16.jpg,AFSA20.jpg,AFNE04.jpg,AFNE08.jpg,FN,3,num_8,32,num_4,0.516797298595,,,2017_Aug_15_1129,60.0210414883,FEMA4ImagesEEG,001,100915,
AFNE01.JPG,AFNE01.JPG,AFNE01.JPG,AFNE01.JPG,AFNE01.JPG,AFNE01.JPG,,,,,,,,,,,,,,,,,3,8,38,5,,,,,,,AFSA06.jpg,AFNE16.jpg,AFNE10.jpg,AFSA10.jpg,AFNE10.jpg,FN,3,num_2,32,num_4,0.900101449981,,,2017_Aug_15_1129,60.0210414883,FEMA4ImagesEEG,001,100915,
AFNE01.JPG,AFNE01.JPG,AFNE01.JPG,AFNE01.JPG,AFNE01.JPG,AFNE01.JPG,,,,,,,,,,,,,,,,,3,9,39,8,,,,,,,AFNE19.jpg,AFNE08.jpg,AFSA07.jpg,AFSA17.jpg,AFSA07.jpg,FS,4,num_2,16,num_2,1.06678570386,,,2017_Aug_15_1129,60.0210414883,FEMA4ImagesEEG,001,100915,
AFNE01.JPG,AFNE01.JPG,AFNE01.JPG,AFNE01.JPG,AFNE01.JPG,AFNE01.JPG,,,,,,,,,,,,,,,,,4,0,40,0,,,,,,,AFSA16.jpg,AFSA01.jpg,AFNE10.jpg,AFNE01.jpg,AFSA01.jpg,FS,4,num_6,16,num_6,0.533600210154,,,2017_Aug_15_1129,60.0210414883,FEMA4ImagesEEG,001,100915,
AFNE01.JPG,AFNE01.JPG,AFNE01.JPG,AFNE01.JPG,AFNE01.JPG,AFNE01.JPG,,,,,,,,,,,,,,,,,4,1,41,3,,,,,,,AFNE20.jpg,AFNE18.jpg,AFSA04.jpg,AFSA09.jpg,AFNE20.jpg,FN,3,num_8,16,num_8,0.883449927554,,,2017_Aug_15_1129,60.0210414883,FEMA4ImagesEEG,001,100915,
AFNE01.JPG,AFNE01.JPG,AFNE01.JPG,AFNE01.JPG,AFNE01.JPG,AFNE01.JPG,,,,,,,,,,,,,,,,,4,2,42,5,,,,,,,AFSA09.jpg,AFNE14.jpg,AFNE01.jpg,AFSA13.jpg,AFNE14.jpg,FN,3,num_6,32,num_4,0.500118192591,,,2017_Aug_15_1129,60.0210414883,FEMA4ImagesEEG,001,100915,
AFNE01.JPG,AFNE01.JPG,AFNE01.JPG,AFNE01.JPG,AFNE01.JPG,AFNE01.JPG,,,,,,,,,,,,,,,,,4,3,43,1,,,,,,,AFSA02.jpg,AFSA08.jpg,AFNE13.jpg,AFNE05.jpg,AFNE13.jpg,FN,3,num_2,16,num_2,0.916758104213,,,2017_Aug_15_1129,60.0210414883,FEMA4ImagesEEG,001,100915,
AFNE01.JPG,AFNE01.JPG,AFNE01.JPG,AFNE01.JPG,AFNE01.JPG,AFNE01.JPG,,,,,,,,,,,,,,,,,4,4,44,7,,,,,,,AFNE06.jpg,AFNE16.jpg,AFSA12.jpg,AFSA16.jpg,AFSA12.jpg,FS,4,num_2,16,num_2,0.466792695981,,,2017_Aug_15_1129,60.0210414883,FEMA4ImagesEEG,001,100915,
AFNE01.JPG,AFNE01.JPG,AFNE01.JPG,AFNE01.JPG,AFNE01.JPG,AFNE01.JPG,,,,,,,,,,,,,,,,,4,5,45,9,,,,,,,AFNE18.jpg,AFSA20.jpg,AFNE11.jpg,AFSA06.jpg,AFSA20.jpg,FS,4,num_6,32,num_4,0.983403324077,,,2017_Aug_15_1129,60.0210414883,FEMA4ImagesEEG,001,100915,
AFNE01.JPG,AFNE01.JPG,AFNE01.JPG,AFNE01.JPG,AFNE01.JPG,AFNE01.JPG,,,,,,,,,,,,,,,,,4,6,46,6,,,,,,,AFSA14.jpg,AFSA11.jpg,AFNE14.jpg,AFNE09.jpg,AFSA14.jpg,FS,4,num_8,32,num_4,0.850119619863,,,2017_Aug_15_1129,60.0210414883,FEMA4ImagesEEG,001,100915,
AFNE01.JPG,AFNE01.JPG,AFNE01.JPG,AFNE01.JPG,AFNE01.JPG,AFNE01.JPG,,,,,,,,,,,,,,,,,4,7,47,2,,,,,,,AFSA08.jpg,AFNE11.jpg,AFSA06.jpg,AFNE12.jpg,AFNE11.jpg,FN,3,num_6,16,num_6,0.766751352639,,,2017_Aug_15_1129,60.0210414883,FEMA4ImagesEEG,001,100915,
AFNE01.JPG,AFNE01.JPG,AFNE01.JPG,AFNE01.JPG,AFNE01.JPG,AFNE01.JPG,,,,,,,,,,,,,,,,,4,8,48,4,,,,,,,AFSA04.jpg,AFNE05.jpg,AFNE18.jpg,AFSA01.jpg,AFSA01.jpg,FS,4,num_4,32,num_6,1.08342407594,,,2017_Aug_15_1129,60.0210414883,FEMA4ImagesEEG,001,100915,
AFNE01.JPG,AFNE01.JPG,AFNE01.JPG,AFNE01.JPG,AFNE01.JPG,AFNE01.JPG,,,,,,,,,,,,,,,,,4,9,49,8,,,,,,,AFSA11.jpg,AFNE18.jpg,AFNE10.jpg,AFSA16.jpg,AFNE10.jpg,FN,3,num_2,16,num_2,0.683446591866,,,2017_Aug_15_1129,60.0210414883,FEMA4ImagesEEG,001,100915,
AFNE01.JPG,AFNE01.JPG,AFNE01.JPG,AFNE01.JPG,AFNE01.JPG,AFNE01.JPG,,,,,,,,,,,,,,,,,5,0,50,3,,,,,,,AFNE12.jpg,AFSA02.jpg,AFSA08.jpg,AFNE05.jpg,AFNE05.jpg,FN,3,num_4,32,num_2,1.00009590118,,,2017_Aug_15_1129,60.0210414883,FEMA4ImagesEEG,001,100915,
AFNE01.JPG,AFNE01.JPG,AFNE01.JPG,AFNE01.JPG,AFNE01.JPG,AFNE01.JPG,,,,,,,,,,,,,,,,,5,1,51,6,,,,,,,AFSA01.jpg,AFNE01.jpg,AFNE07.jpg,AFSA15.jpg,AFSA01.jpg,FS,4,num_8,32,num_6,1.03342235998,,,2017_Aug_15_1129,60.0210414883,FEMA4ImagesEEG,001,100915,
AFNE01.JPG,AFNE01.JPG,AFNE01.JPG,AFNE01.JPG,AFNE01.JPG,AFNE01.JPG,,,,,,,,,,,,,,,,,5,2,52,4,,,,,,,AFSA08.jpg,AFNE15.jpg,AFSA13.jpg,AFNE04.jpg,AFNE15.jpg,FN,3,num_6,16,num_6,0.516770356466,,,2017_Aug_15_1129,60.0210414883,FEMA4ImagesEEG,001,100915,
AFNE01.JPG,AFNE01.JPG,AFNE01.JPG,AFNE01.JPG,AFNE01.JPG,AFNE01.JPG,,,,,,,,,,,,,,,,,5,3,53,9,,,,,,,AFNE07.jpg,AFNE11.jpg,AFSA19.jpg,AFSA07.jpg,AFNE11.jpg,FN,3,num_6,32,num_8,1.38337471409,,,2017_Aug_15_1129,60.0210414883,FEMA4ImagesEEG,001,100915,
AFNE01.JPG,AFNE01.JPG,AFNE01.JPG,AFNE01.JPG,AFNE01.JPG,AFNE01.JPG,,,,,,,,,,,,,,,,,5,4,54,1,,,,,,,AFNE19.jpg,AFSA15.jpg,AFNE08.jpg,AFSA20.jpg,AFSA20.jpg,FS,4,num_4,16,num_4,0.916834760996,,,2017_Aug_15_1129,60.0210414883,FEMA4ImagesEEG,001,100915,
AFNE01.JPG,AFNE01.JPG,AFNE01.JPG,AFNE01.JPG,AFNE01.JPG,AFNE01.JPG,,,,,,,,,,,,,,,,,5,5,55,8,,,,,,,AFSA04.jpg,AFNE12.jpg,AFSA08.jpg,AFNE01.jpg,AFNE01.jpg,FN,3,num_4,32,num_8,0.800109243952,,,2017_Aug_15_1129,60.0210414883,FEMA4ImagesEEG,001,100915,
AFNE01.JPG,AFNE01.JPG,AFNE01.JPG,AFNE01.JPG,AFNE01.JPG,AFNE01.JPG,,,,,,,,,,,,,,,,,5,6,56,2,,,,,,,AFNE20.jpg,AFSA08.jpg,AFSA03.jpg,AFNE13.jpg,AFNE20.jpg,FN,3,num_8,32,num_2,0.733438685638,,,2017_Aug_15_1129,60.0210414883,FEMA4ImagesEEG,001,100915,
AFNE01.JPG,AFNE01.JPG,AFNE01.JPG,AFNE01.JPG,AFNE01.JPG,AFNE01.JPG,,,,,,,,,,,,,,,,,5,7,57,5,,,,,,,AFSA05.jpg,AFNE10.jpg,AFSA11.jpg,AFNE20.jpg,AFNE10.jpg,FN,3,num_6,16,num_6,1.03344128362,,,2017_Aug_15_1129,60.0210414883,FEMA4ImagesEEG,001,100915,
AFNE01.JPG,AFNE01.JPG,AFNE01.JPG,AFNE01.JPG,AFNE01.JPG,AFNE01.JPG,,,,,,,,,,,,,,,,,5,8,58,7,,,,,,,AFNE02.jpg,AFNE15.jpg,AFSA19.jpg,AFSA07.jpg,AFNE02.jpg,FN,3,num_8,32,num_4,0.816754993022,,,2017_Aug_15_1129,60.0210414883,FEMA4ImagesEEG,001,100915,
AFNE01.JPG,AFNE01.JPG,AFNE01.JPG,AFNE01.JPG,AFNE01.JPG,AFNE01.JPG,,,,,,,,,,,,,,,,,5,9,59,0,,,,,,,AFNE02.jpg,AFSA07.jpg,AFNE08.jpg,AFSA14.jpg,AFNE02.jpg,FN,3,num_8,32,num_6,1.11672006448,,,2017_Aug_15_1129,60.0210414883,FEMA4ImagesEEG,001,100915,
,,,,,,,,,,,,,,,,,,,,,,,,,,,,,,,,,,,,,,,,,,,space,3.44987720481,2017_Aug_15_1129,60.0210414883,FEMA4ImagesEEG,001,100915,
AFNE01.JPG,AFNE01.JPG,AFNE01.JPG,AFNE01.JPG,AFNE01.JPG,AFNE01.JPG,,,,,,,,,,,,,,,,,,,,,0,0,0,6,,,AMSA10.jpg,AMSA14.jpg,AMNE20.jpg,AMNE12.jpg,AMSA10.jpg,MS,2,num_8,32,num_2,1.00011674924,,,2017_Aug_15_1129,60.0210414883,FEMA4ImagesEEG,001,100915,
AFNE01.JPG,AFNE01.JPG,AFNE01.JPG,AFNE01.JPG,AFNE01.JPG,AFNE01.JPG,,,,,,,,,,,,,,,,,,,,,0,1,1,4,,,AMSA10.jpg,AMNE03.jpg,AMNE10.jpg,AMSA17.jpg,AMSA10.jpg,MS,2,num_8,32,num_2,0.400137533172,,,2017_Aug_15_1129,60.0210414883,FEMA4ImagesEEG,001,100915,
AFNE01.JPG,AFNE01.JPG,AFNE01.JPG,AFNE01.JPG,AFNE01.JPG,AFNE01.JPG,,,,,,,,,,,,,,,,,,,,,0,2,2,1,,,AMSA01.jpg,AMNE09.jpg,AMSA12.jpg,AMNE15.jpg,AMSA01.jpg,MS,2,num_8,16,num_8,0.916843420971,,,2017_Aug_15_1129,60.0210414883,FEMA4ImagesEEG,001,100915,
AFNE01.JPG,AFNE01.JPG,AFNE01.JPG,AFNE01.JPG,AFNE01.JPG,AFNE01.JPG,,,,,,,,,,,,,,,,,,,,,0,3,3,7,,,AMSA15.jpg,AMNE19.jpg,AMSA19.jpg,AMNE08.jpg,AMSA19.jpg,MS,2,num_2,16,num_2,0.516797940072,,,2017_Aug_15_1129,60.0210414883,FEMA4ImagesEEG,001,100915,
AFNE01.JPG,AFNE01.JPG,AFNE01.JPG,AFNE01.JPG,AFNE01.JPG,AFNE01.JPG,,,,,,,,,,,,,,,,,,,,,0,4,4,8,,,AMNE04.jpg,AMSA18.jpg,AMNE16.jpg,AMSA15.jpg,AMSA18.jpg,MS,2,num_6,32,num_4,0.650119170838,,,2017_Aug_15_1129,60.0210414883,FEMA4ImagesEEG,001,100915,
AFNE01.JPG,AFNE01.JPG,AFNE01.JPG,AFNE01.JPG,AFNE01.JPG,AFNE01.JPG,,,,,,,,,,,,,,,,,,,,,0,5,5,2,,,AMNE04.jpg,AMSA19.jpg,AMSA16.jpg,AMNE20.jpg,AMSA16.jpg,MS,2,num_2,32,num_8,1.1167938346,,,2017_Aug_15_1129,60.0210414883,FEMA4ImagesEEG,001,100915,
AFNE01.JPG,AFNE01.JPG,AFNE01.JPG,AFNE01.JPG,AFNE01.JPG,AFNE01.JPG,,,,,,,,,,,,,,,,,,,,,0,6,6,0,,,AMNE07.jpg,AMNE18.jpg,AMSA09.jpg,AMSA05.jpg,AMSA09.jpg,MS,2,num_2,16,num_2,0.666750807388,,,2017_Aug_15_1129,60.0210414883,FEMA4ImagesEEG,001,100915,
AFNE01.JPG,AFNE01.JPG,AFNE01.JPG,AFNE01.JPG,AFNE01.JPG,AFNE01.JPG,,,,,,,,,,,,,,,,,,,,,0,7,7,5,,,AMNE01.jpg,AMNE17.jpg,AMSA14.jpg,AMSA08.jpg,AMSA08.jpg,MS,2,num_4,32,num_8,1.03343069922,,,2017_Aug_15_1129,60.0210414883,FEMA4ImagesEEG,001,100915,
AFNE01.JPG,AFNE01.JPG,AFNE01.JPG,AFNE01.JPG,AFNE01.JPG,AFNE01.JPG,,,,,,,,,,,,,,,,,,,,,0,8,8,9,,,AMNE18.jpg,AMSA08.jpg,AMSA01.jpg,AMNE15.jpg,AMSA08.jpg,MS,2,num_6,32,num_8,0.716764390701,,,2017_Aug_15_1129,60.0210414883,FEMA4ImagesEEG,001,100915,
AFNE01.JPG,AFNE01.JPG,AFNE01.JPG,AFNE01.JPG,AFNE01.JPG,AFNE01.JPG,,,,,,,,,,,,,,,,,,,,,0,9,9,3,,,AMNE14.jpg,AMSA16.jpg,AMSA03.jpg,AMNE06.jpg,AMNE14.jpg,MN,1,num_8,16,num_8,0.566784581286,,,2017_Aug_15_1129,60.0210414883,FEMA4ImagesEEG,001,100915,
AFNE01.JPG,AFNE01.JPG,AFNE01.JPG,AFNE01.JPG,AFNE01.JPG,AFNE01.JPG,,,,,,,,,,,,,,,,,,,,,1,0,10,4,,,AMNE15.jpg,AMSA10.jpg,AMSA17.jpg,AMNE17.jpg,AMNE15.jpg,MN,1,num_8,16,num_8,1.15008052169,,,2017_Aug_15_1129,60.0210414883,FEMA4ImagesEEG,001,100915,
AFNE01.JPG,AFNE01.JPG,AFNE01.JPG,AFNE01.JPG,AFNE01.JPG,AFNE01.JPG,,,,,,,,,,,,,,,,,,,,,1,1,11,8,,,AMNE08.jpg,AMNE19.jpg,AMSA18.jpg,AMSA16.jpg,AMNE19.jpg,MN,1,num_6,32,num_8,1.00009012785,,,2017_Aug_15_1129,60.0210414883,FEMA4ImagesEEG,001,100915,
AFNE01.JPG,AFNE01.JPG,AFNE01.JPG,AFNE01.JPG,AFNE01.JPG,AFNE01.JPG,,,,,,,,,,,,,,,,,,,,,1,2,12,1,,,AMNE11.jpg,AMNE02.jpg,AMSA05.jpg,AMSA11.jpg,AMNE02.jpg,MN,1,num_6,32,num_8,0.883522093995,,,2017_Aug_15_1129,60.0210414883,FEMA4ImagesEEG,001,100915,
AFNE01.JPG,AFNE01.JPG,AFNE01.JPG,AFNE01.JPG,AFNE01.JPG,AFNE01.JPG,,,,,,,,,,,,,,,,,,,,,1,3,13,3,,,AMNE13.jpg,AMNE09.jpg,AMSA08.jpg,AMSA13.jpg,AMNE13.jpg,MN,1,num_8,32,num_6,0.516797619333,,,2017_Aug_15_1129,60.0210414883,FEMA4ImagesEEG,001,100915,
AFNE01.JPG,AFNE01.JPG,AFNE01.JPG,AFNE01.JPG,AFNE01.JPG,AFNE01.JPG,,,,,,,,,,,,,,,,,,,,,1,4,14,0,,,AMSA08.jpg,AMSA17.jpg,AMNE15.jpg,AMNE06.jpg,AMNE06.jpg,MN,1,num_4,32,num_2,0.78331338866,,,2017_Aug_15_1129,60.0210414883,FEMA4ImagesEEG,001,100915,
AFNE01.JPG,AFNE01.JPG,AFNE01.JPG,AFNE01.JPG,AFNE01.JPG,AFNE01.JPG,,,,,,,,,,,,,,,,,,,,,1,5,15,6,,,AMSA15.jpg,AMSA13.jpg,AMNE13.jpg,AMNE05.jpg,AMSA15.jpg,MS,2,num_8,16,num_8,0.616773467642,,,2017_Aug_15_1129,60.0210414883,FEMA4ImagesEEG,001,100915,
AFNE01.JPG,AFNE01.JPG,AFNE01.JPG,AFNE01.JPG,AFNE01.JPG,AFNE01.JPG,,,,,,,,,,,,,,,,,,,,,1,6,16,2,,,AMNE03.jpg,AMSA13.jpg,AMNE02.jpg,AMSA16.jpg,AMNE02.jpg,MN,1,num_2,16,num_2,0.633457064017,,,2017_Aug_15_1129,60.0210414883,FEMA4ImagesEEG,001,100915,
AFNE01.JPG,AFNE01.JPG,AFNE01.JPG,AFNE01.JPG,AFNE01.JPG,AFNE01.JPG,,,,,,,,,,,,,,,,,,,,,1,7,17,7,,,AMNE11.jpg,AMNE10.jpg,AMSA09.jpg,AMSA17.jpg,AMNE10.jpg,MN,1,num_6,32,num_8,0.933408022931,,,2017_Aug_15_1129,60.0210414883,FEMA4ImagesEEG,001,100915,
AFNE01.JPG,AFNE01.JPG,AFNE01.JPG,AFNE01.JPG,AFNE01.JPG,AFNE01.JPG,,,,,,,,,,,,,,,,,,,,,1,8,18,9,,,AMNE11.jpg,AMSA12.jpg,AMSA03.jpg,AMNE10.jpg,AMSA03.jpg,MS,2,num_2,16,num_2,0.966767517923,,,2017_Aug_15_1129,60.0210414883,FEMA4ImagesEEG,001,100915,
AFNE01.JPG,AFNE01.JPG,AFNE01.JPG,AFNE01.JPG,AFNE01.JPG,AFNE01.JPG,,,,,,,,,,,,,,,,,,,,,1,9,19,5,,,AMNE17.jpg,AMSA03.jpg,AMSA18.jpg,AMNE01.jpg,AMNE01.jpg,MN,1,num_4,32,num_2,1.11667612314,,,2017_Aug_15_1129,60.0210414883,FEMA4ImagesEEG,001,100915,
AFNE01.JPG,AFNE01.JPG,AFNE01.JPG,AFNE01.JPG,AFNE01.JPG,AFNE01.JPG,,,,,,,,,,,,,,,,,,,,,2,0,20,9,,,AMNE13.jpg,AMSA09.jpg,AMNE20.jpg,AMSA06.jpg,AMNE20.jpg,MN,1,num_2,16,num_2,0.933399683694,,,2017_Aug_15_1129,60.0210414883,FEMA4ImagesEEG,001,100915,
AFNE01.JPG,AFNE01.JPG,AFNE01.JPG,AFNE01.JPG,AFNE01.JPG,AFNE01.JPG,,,,,,,,,,,,,,,,,,,,,2,1,21,6,,,AMSA09.jpg,AMSA13.jpg,AMNE08.jpg,AMNE17.jpg,AMSA13.jpg,MS,2,num_6,32,num_4,1.08343818849,,,2017_Aug_15_1129,60.0210414883,FEMA4ImagesEEG,001,100915,
AFNE01.JPG,AFNE01.JPG,AFNE01.JPG,AFNE01.JPG,AFNE01.JPG,AFNE01.JPG,,,,,,,,,,,,,,,,,,,,,2,2,22,4,,,AMSA07.jpg,AMNE01.jpg,AMNE06.jpg,AMSA15.jpg,AMNE06.jpg,MN,1,num_2,32,num_8,0.983446623941,,,2017_Aug_15_1129,60.0210414883,FEMA4ImagesEEG,001,100915,
AFNE01.JPG,AFNE01.JPG,AFNE01.JPG,AFNE01.JPG,AFNE01.JPG,AFNE01.JPG,,,,,,,,,,,,,,,,,,,,,2,3,23,8,,,AMSA20.jpg,AMSA01.jpg,AMNE11.jpg,AMNE19.jpg,AMNE11.jpg,MN,1,num_2,16,num_2,0.866769538581,,,2017_Aug_15_1129,60.0210414883,FEMA4ImagesEEG,001,100915,
AFNE01.JPG,AFNE01.JPG,AFNE01.JPG,AFNE01.JPG,AFNE01.JPG,AFNE01.JPG,,,,,,,,,,,,,,,,,,,,,2,4,24,0,,,AMNE15.jpg,AMSA03.jpg,AMNE05.jpg,AMSA11.jpg,AMSA11.jpg,MS,2,num_4,32,num_6,0.71679646468,,,2017_Aug_15_1129,60.0210414883,FEMA4ImagesEEG,001,100915,
AFNE01.JPG,AFNE01.JPG,AFNE01.JPG,AFNE01.JPG,AFNE01.JPG,AFNE01.JPG,,,,,,,,,,,,,,,,,,,,,2,5,25,7,,,AMSA11.jpg,AMSA01.jpg,AMNE04.jpg,AMNE08.jpg,AMSA01.jpg,MS,2,num_6,32,num_2,0.567060417423,,,2017_Aug_15_1129,60.0210414883,FEMA4ImagesEEG,001,100915,
AFNE01.JPG,AFNE01.JPG,AFNE01.JPG,AFNE01.JPG,AFNE01.JPG,AFNE01.JPG,,,,,,,,,,,,,,,,,,,,,2,6,26,1,,,AMSA02.jpg,AMSA16.jpg,AMNE01.jpg,AMNE10.jpg,AMSA02.jpg,MS,2,num_8,16,num_8,1.18341692345,,,2017_Aug_15_1129,60.0210414883,FEMA4ImagesEEG,001,100915,
AFNE01.JPG,AFNE01.JPG,AFNE01.JPG,AFNE01.JPG,AFNE01.JPG,AFNE01.JPG,,,,,,,,,,,,,,,,,,,,,2,7,27,3,,,AMNE08.jpg,AMSA01.jpg,AMNE01.jpg,AMSA20.jpg,AMNE08.jpg,MN,1,num_8,16,num_8,1.03343422736,,,2017_Aug_15_1129,60.0210414883,FEMA4ImagesEEG,001,100915,
AFNE01.JPG,AFNE01.JPG,AFNE01.JPG,AFNE01.JPG,AFNE01.JPG,AFNE01.JPG,,,,,,,,,,,,,,,,,,,,,2,8,28,5,,,AMNE08.jpg,AMSA02.jpg,AMNE06.jpg,AMSA07.jpg,AMNE06.jpg,MN,1,num_2,16,num_2,0.783473117044,,,2017_Aug_15_1129,60.0210414883,FEMA4ImagesEEG,001,100915,
AFNE01.JPG,AFNE01.JPG,AFNE01.JPG,AFNE01.JPG,AFNE01.JPG,AFNE01.JPG,,,,,,,,,,,,,,,,,,,,,2,9,29,2,,,AMSA13.jpg,AMNE19.jpg,AMSA04.jpg,AMNE03.jpg,AMSA04.jpg,MS,2,num_2,16,num_2,0.783407686133,,,2017_Aug_15_1129,60.0210414883,FEMA4ImagesEEG,001,100915,
AFNE01.JPG,AFNE01.JPG,AFNE01.JPG,AFNE01.JPG,AFNE01.JPG,AFNE01.JPG,,,,,,,,,,,,,,,,,,,,,3,0,30,5,,,AMSA14.jpg,AMNE13.jpg,AMNE01.jpg,AMSA06.jpg,AMSA14.jpg,MS,2,num_8,16,num_8,0.933575449031,,,2017_Aug_15_1129,60.0210414883,FEMA4ImagesEEG,001,100915,
AFNE01.JPG,AFNE01.JPG,AFNE01.JPG,AFNE01.JPG,AFNE01.JPG,AFNE01.JPG,,,,,,,,,,,,,,,,,,,,,3,1,31,3,,,AMNE06.jpg,AMNE17.jpg,AMSA18.jpg,AMSA08.jpg,AMNE17.jpg,MN,1,num_6,16,num_6,1.23346258074,,,2017_Aug_15_1129,60.0210414883,FEMA4ImagesEEG,001,100915,
AFNE01.JPG,AFNE01.JPG,AFNE01.JPG,AFNE01.JPG,AFNE01.JPG,AFNE01.JPG,,,,,,,,,,,,,,,,,,,,,3,2,32,6,,,AMNE06.jpg,AMSA12.jpg,AMNE18.jpg,AMSA01.jpg,AMNE18.jpg,MN,1,num_2,16,num_2,0.733470118124,,,2017_Aug_15_1129,60.0210414883,FEMA4ImagesEEG,001,100915,
AFNE01.JPG,AFNE01.JPG,AFNE01.JPG,AFNE01.JPG,AFNE01.JPG,AFNE01.JPG,,,,,,,,,,,,,,,,,,,,,3,3,33,1,,,AMSA05.jpg,AMNE11.jpg,AMNE20.jpg,AMSA15.jpg,AMSA05.jpg,MS,2,num_8,32,num_2,1.28345018416,,,2017_Aug_15_1129,60.0210414883,FEMA4ImagesEEG,001,100915,
AFNE01.JPG,AFNE01.JPG,AFNE01.JPG,AFNE01.JPG,AFNE01.JPG,AFNE01.JPG,,,,,,,,,,,,,,,,,,,,,3,4,34,0,,,AMSA16.jpg,AMNE12.jpg,AMSA11.jpg,AMNE10.jpg,AMNE10.jpg,MN,1,num_4,16,num_4,0.566806712319,,,2017_Aug_15_1129,60.0210414883,FEMA4ImagesEEG,001,100915,
AFNE01.JPG,AFNE01.JPG,AFNE01.JPG,AFNE01.JPG,AFNE01.JPG,AFNE01.JPG,,,,,,,,,,,,,,,,,,,,,3,5,35,8,,,AMSA16.jpg,AMSA15.jpg,AMNE20.jpg,AMNE04.jpg,AMNE20.jpg,MN,1,num_2,32,num_8,0.85012282728,,,2017_Aug_15_1129,60.0210414883,FEMA4ImagesEEG,001,100915,
AFNE01.JPG,AFNE01.JPG,AFNE01.JPG,AFNE01.JPG,AFNE01.JPG,AFNE01.JPG,,,,,,,,,,,,,,,,,,,,,3,6,36,9,,,AMSA20.jpg,AMNE10.jpg,AMSA12.jpg,AMNE20.jpg,AMNE20.jpg,MN,1,num_4,16,num_4,0.716793898755,,,2017_Aug_15_1129,60.0210414883,FEMA4ImagesEEG,001,100915,
AFNE01.JPG,AFNE01.JPG,AFNE01.JPG,AFNE01.JPG,AFNE01.JPG,AFNE01.JPG,,,,,,,,,,,,,,,,,,,,,3,7,37,7,,,AMSA16.jpg,AMNE13.jpg,AMSA19.jpg,AMNE20.jpg,AMNE13.jpg,MN,1,num_6,32,num_8,0.850091074026,,,2017_Aug_15_1129,60.0210414883,FEMA4ImagesEEG,001,100915,
AFNE01.JPG,AFNE01.JPG,AFNE01.JPG,AFNE01.JPG,AFNE01.JPG,AFNE01.JPG,,,,,,,,,,,,,,,,,,,,,3,8,38,4,,,AMNE03.jpg,AMSA08.jpg,AMNE12.jpg,AMSA19.jpg,AMNE03.jpg,MN,1,num_8,16,num_8,0.833333386792,,,2017_Aug_15_1129,60.0210414883,FEMA4ImagesEEG,001,100915,
