IPosition2,IPosition3,IPosition1,IPosition6,IPosition4,IPosition5,TrialsM1.thisRepN,TrialsM1.thisTrialN,TrialsM1.thisN,TrialsM1.thisIndex,TrialsF1.thisRepN,TrialsF1.thisTrialN,TrialsF1.thisN,TrialsF1.thisIndex,TrialsM2.thisRepN,TrialsM2.thisTrialN,TrialsM2.thisN,TrialsM2.thisIndex,TrialsF2.thisRepN,TrialsF2.thisTrialN,TrialsF2.thisN,TrialsF2.thisIndex,TrialsM3.thisRepN,TrialsM3.thisTrialN,TrialsM3.thisN,TrialsM3.thisIndex,TrialsF3.thisRepN,TrialsF3.thisTrialN,TrialsF3.thisN,TrialsF3.thisIndex,InstrKey_resp.keys,InstrKey_resp.rt,Image0 _Position,Image1 _Position,Image2 _Position,Image3 _Position,Center_image,condition,code,correct_answer,accuracy,Key_Resp.keys,Key_Resp.rt,BreakKey_resp.keys,BreakKey_resp.rt,date,frameRate,expName,session,participant,
,,,,,,,,,,,,,,,,,,,,,,,,,,,,,,space,90.8266767124,,,,,,,,,,,,,,2017_Jul_13_1146,60.0094697481,MAFE4ImagesEEG,001,100916,
AFSA21.JPG,AFNE22.JPG,AFNE21.JPG,AFSA23.JPG,AFSA22.JPG,AFNE23.JPG,0,0,0,0,,,,,,,,,,,,,,,,,,,,,,,AMNE11.jpg,AMSA19.jpg,AMNE12.jpg,AMSA15.jpg,AMSA15.jpg,MS,2,num_4,32,num_8,1.91667035501,,,2017_Jul_13_1146,60.0094697481,MAFE4ImagesEEG,001,100916,
AFSA25.JPG,AFNE24.JPG,AFSA24.JPG,AFNE21.JPG,AFSA21.JPG,AFNE25.JPG,0,1,1,2,,,,,,,,,,,,,,,,,,,,,,,AMSA11.jpg,AMNE18.jpg,AMNE19.jpg,AMSA05.jpg,AMSA05.jpg,MS,2,num_4,32,num_8,1.36675147014,,,2017_Jul_13_1146,60.0094697481,MAFE4ImagesEEG,001,100916,
AFSA21.JPG,AFNE23.JPG,AFNE21.JPG,AFSA25.JPG,AFNE25.JPG,AFSA23.JPG,0,2,2,4,,,,,,,,,,,,,,,,,,,,,,,AMSA08.jpg,AMSA18.jpg,AMNE16.jpg,AMNE02.jpg,AMNE16.jpg,MN,1,num_2,32,num_4,0.950179902604,,,2017_Jul_13_1146,60.0094697481,MAFE4ImagesEEG,001,100916,
AMNE22.JPG,AMSA24.JPG,AMSA22.JPG,AMNE25.JPG,AMNE24.JPG,AMSA25.JPG,0,3,3,7,,,,,,,,,,,,,,,,,,,,,,,AMSA16.jpg,AMSA11.jpg,AMNE19.jpg,AMNE18.jpg,AMNE18.jpg,MN,1,num_4,16,num_4,0.750182660995,,,2017_Jul_13_1146,60.0094697481,MAFE4ImagesEEG,001,100916,
AFNE23.JPG,AFNE24.JPG,AFNE22.JPG,AFSA24.JPG,AFSA22.JPG,AFSA23.JPG,0,4,4,8,,,,,,,,,,,,,,,,,,,,,,,AMSA18.jpg,AMNE08.jpg,AMSA02.jpg,AMNE16.jpg,AMNE16.jpg,MN,1,num_4,32,num_6,1.51668709773,,,2017_Jul_13_1146,60.0094697481,MAFE4ImagesEEG,001,100916,
AFNE22.JPG,AFSA24.JPG,AFSA22.JPG,AFNE25.JPG,AFNE24.JPG,AFSA25.JPG,0,5,5,6,,,,,,,,,,,,,,,,,,,,,,,AMNE04.jpg,AMSA03.jpg,AMNE11.jpg,AMSA11.jpg,AMNE11.jpg,MN,1,num_2,32,num_4,1.33343115868,,,2017_Jul_13_1146,60.0094697481,MAFE4ImagesEEG,001,100916,
AMSA25.JPG,AMNE24.JPG,AMSA24.JPG,AMNE26.JPG,AMSA21.JPG,AMNE25.JPG,0,6,6,3,,,,,,,,,,,,,,,,,,,,,,,AMSA09.jpg,AMNE14.jpg,AMNE06.jpg,AMSA01.jpg,AMNE14.jpg,MN,1,num_6,16,num_6,1.28343048529,,,2017_Jul_13_1146,60.0094697481,MAFE4ImagesEEG,001,100916,
AMSA21.JPG,AMNE22.JPG,AMNE21.JPG,AMSA23.JPG,AMSA22.JPG,AMNE23.JPG,0,7,7,1,,,,,,,,,,,,,,,,,,,,,,,AMNE08.jpg,AMSA03.jpg,AMSA15.jpg,AMNE07.jpg,AMNE08.jpg,MN,1,num_8,32,num_2,2.31672192994,,,2017_Jul_13_1146,60.0094697481,MAFE4ImagesEEG,001,100916,
AMSA21.JPG,AMNE23.JPG,AMNE21.JPG,AMSA25.JPG,AMNE25.JPG,AMSA23.JPG,0,8,8,5,,,,,,,,,,,,,,,,,,,,,,,AMNE08.jpg,AMSA05.jpg,AMSA15.jpg,AMNE19.jpg,AMSA05.jpg,MS,2,num_6,32,num_2,1.11673751776,,,2017_Jul_13_1146,60.0094697481,MAFE4ImagesEEG,001,100916,
AMNE23.JPG,AMNE24.JPG,AMNE22.JPG,AMSA24.JPG,AMSA22.JPG,AMSA23.JPG,0,9,9,9,,,,,,,,,,,,,,,,,,,,,,,AMSA05.jpg,AMNE04.jpg,AMSA08.jpg,AMNE11.jpg,AMSA05.jpg,MS,2,num_8,16,num_8,0.583460827125,,,2017_Jul_13_1146,60.0094697481,MAFE4ImagesEEG,001,100916,
AMSA25.JPG,AMNE24.JPG,AMSA24.JPG,AMNE26.JPG,AMSA21.JPG,AMNE25.JPG,,,,,0,0,0,3,,,,,,,,,,,,,,,,,,,AFNE05.jpg,AFNE09.jpg,AFSA07.jpg,AFSA02.jpg,AFNE05.jpg,FN,3,num_8,32,num_6,0.900139136473,,,2017_Jul_13_1146,60.0094697481,MAFE4ImagesEEG,001,100916,
AFSA21.JPG,AFNE22.JPG,AFNE21.JPG,AFSA23.JPG,AFSA22.JPG,AFNE23.JPG,,,,,0,1,1,0,,,,,,,,,,,,,,,,,,,AFSA02.jpg,AFSA08.jpg,AFNE15.jpg,AFNE20.jpg,AFSA08.jpg,FS,4,num_6,16,num_6,0.850111200241,,,2017_Jul_13_1146,60.0094697481,MAFE4ImagesEEG,001,100916,
AFNE23.JPG,AFNE24.JPG,AFNE22.JPG,AFSA24.JPG,AFSA22.JPG,AFSA23.JPG,,,,,0,2,2,8,,,,,,,,,,,,,,,,,,,AFSA03.jpg,AFNE19.jpg,AFSA06.jpg,AFNE12.jpg,AFNE19.jpg,FN,3,num_6,32,num_2,0.533506019274,,,2017_Jul_13_1146,60.0094697481,MAFE4ImagesEEG,001,100916,
AFSA25.JPG,AFNE24.JPG,AFSA24.JPG,AFNE21.JPG,AFSA21.JPG,AFNE25.JPG,,,,,0,3,3,2,,,,,,,,,,,,,,,,,,,AFSA07.jpg,AFNE10.jpg,AFNE09.jpg,AFSA16.jpg,AFNE09.jpg,FN,3,num_2,32,num_4,1.03349094465,,,2017_Jul_13_1146,60.0094697481,MAFE4ImagesEEG,001,100916,
AMNE22.JPG,AMSA24.JPG,AMSA22.JPG,AMNE25.JPG,AMNE24.JPG,AMSA25.JPG,,,,,0,4,4,7,,,,,,,,,,,,,,,,,,,AFSA11.jpg,AFNE20.jpg,AFSA09.jpg,AFNE10.jpg,AFNE20.jpg,FN,3,num_6,16,num_6,2.74997193529,,,2017_Jul_13_1146,60.0094697481,MAFE4ImagesEEG,001,100916,
AFNE22.JPG,AFSA24.JPG,AFSA22.JPG,AFNE25.JPG,AFNE24.JPG,AFSA25.JPG,,,,,0,5,5,6,,,,,,,,,,,,,,,,,,,AFSA07.jpg,AFNE14.jpg,AFSA16.jpg,AFNE09.jpg,AFSA16.jpg,FS,4,num_2,32,num_4,0.933475484839,,,2017_Jul_13_1146,60.0094697481,MAFE4ImagesEEG,001,100916,
AMSA21.JPG,AMNE22.JPG,AMNE21.JPG,AMSA23.JPG,AMSA22.JPG,AMNE23.JPG,,,,,0,6,6,1,,,,,,,,,,,,,,,,,,,AFNE15.jpg,AFSA11.jpg,AFNE19.jpg,AFSA17.jpg,AFSA11.jpg,FS,4,num_6,32,num_4,1.08345922362,,,2017_Jul_13_1146,60.0094697481,MAFE4ImagesEEG,001,100916,
AFSA21.JPG,AFNE23.JPG,AFNE21.JPG,AFSA25.JPG,AFNE25.JPG,AFSA23.JPG,,,,,0,7,7,4,,,,,,,,,,,,,,,,,,,AFSA06.jpg,AFNE08.jpg,AFSA16.jpg,AFNE03.jpg,AFNE08.jpg,FN,3,num_6,32,num_4,0.716777674388,,,2017_Jul_13_1146,60.0094697481,MAFE4ImagesEEG,001,100916,
AMNE23.JPG,AMNE24.JPG,AMNE22.JPG,AMSA24.JPG,AMSA22.JPG,AMSA23.JPG,,,,,0,8,8,9,,,,,,,,,,,,,,,,,,,AFNE09.jpg,AFSA19.jpg,AFNE01.jpg,AFSA14.jpg,AFSA19.jpg,FS,4,num_6,16,num_6,0.566798105603,,,2017_Jul_13_1146,60.0094697481,MAFE4ImagesEEG,001,100916,
AMSA21.JPG,AMNE23.JPG,AMNE21.JPG,AMSA25.JPG,AMNE25.JPG,AMSA23.JPG,,,,,0,9,9,5,,,,,,,,,,,,,,,,,,,AFSA06.jpg,AFSA04.jpg,AFNE13.jpg,AFNE18.jpg,AFSA04.jpg,FS,4,num_6,32,num_8,1.28338846844,,,2017_Jul_13_1146,60.0094697481,MAFE4ImagesEEG,001,100916,
AFSA21.JPG,AFNE22.JPG,AFNE21.JPG,AFSA23.JPG,AFSA22.JPG,AFNE23.JPG,,,,,,,,,0,0,0,0,,,,,,,,,,,,,,,AMSA15.jpg,AMSA14.jpg,AMNE19.jpg,AMNE01.jpg,AMSA15.jpg,MS,2,num_8,16,num_8,1.00010391953,,,2017_Jul_13_1146,60.0094697481,MAFE4ImagesEEG,001,100916,
AMNE23.JPG,AMNE24.JPG,AMNE22.JPG,AMSA24.JPG,AMSA22.JPG,AMSA23.JPG,,,,,,,,,0,1,1,9,,,,,,,,,,,,,,,AMSA17.jpg,AMNE09.jpg,AMNE13.jpg,AMSA10.jpg,AMNE13.jpg,MN,1,num_2,32,num_6,0.783501689322,,,2017_Jul_13_1146,60.0094697481,MAFE4ImagesEEG,001,100916,
AMSA21.JPG,AMNE23.JPG,AMNE21.JPG,AMSA25.JPG,AMNE25.JPG,AMSA23.JPG,,,,,,,,,0,2,2,5,,,,,,,,,,,,,,,AMNE17.jpg,AMSA08.jpg,AMNE01.jpg,AMSA20.jpg,AMNE17.jpg,MN,1,num_8,16,num_8,0.850118898088,,,2017_Jul_13_1146,60.0094697481,MAFE4ImagesEEG,001,100916,
AFNE22.JPG,AFSA24.JPG,AFSA22.JPG,AFNE25.JPG,AFNE24.JPG,AFSA25.JPG,,,,,,,,,0,3,3,6,,,,,,,,,,,,,,,AMSA10.jpg,AMNE14.jpg,AMSA07.jpg,AMNE08.jpg,AMSA07.jpg,MS,2,num_2,16,num_2,1.74991676817,,,2017_Jul_13_1146,60.0094697481,MAFE4ImagesEEG,001,100916,
AFNE23.JPG,AFNE24.JPG,AFNE22.JPG,AFSA24.JPG,AFSA22.JPG,AFSA23.JPG,,,,,,,,,0,4,4,8,,,,,,,,,,,,,,,AMSA15.jpg,AMSA17.jpg,AMNE08.jpg,AMNE07.jpg,AMNE08.jpg,MN,1,num_2,32,num_4,2.00008371286,,,2017_Jul_13_1146,60.0094697481,MAFE4ImagesEEG,001,100916,
AMSA25.JPG,AMNE24.JPG,AMSA24.JPG,AMNE26.JPG,AMSA21.JPG,AMNE25.JPG,,,,,,,,,0,5,5,3,,,,,,,,,,,,,,,AMSA07.jpg,AMNE14.jpg,AMSA02.jpg,AMNE02.jpg,AMSA07.jpg,MS,2,num_8,16,num_8,1.2334570745,,,2017_Jul_13_1146,60.0094697481,MAFE4ImagesEEG,001,100916,
AFSA25.JPG,AFNE24.JPG,AFSA24.JPG,AFNE21.JPG,AFSA21.JPG,AFNE25.JPG,,,,,,,,,0,6,6,2,,,,,,,,,,,,,,,AMNE09.jpg,AMSA20.jpg,AMNE20.jpg,AMSA07.jpg,AMNE09.jpg,MN,1,num_8,16,num_8,1.50011418294,,,2017_Jul_13_1146,60.0094697481,MAFE4ImagesEEG,001,100916,
AMSA21.JPG,AMNE22.JPG,AMNE21.JPG,AMSA23.JPG,AMSA22.JPG,AMNE23.JPG,,,,,,,,,0,7,7,1,,,,,,,,,,,,,,,AMNE12.jpg,AMSA07.jpg,AMNE18.jpg,AMSA18.jpg,AMSA18.jpg,MS,2,num_4,16,num_4,1.26674467046,,,2017_Jul_13_1146,60.0094697481,MAFE4ImagesEEG,001,100916,
AFSA21.JPG,AFNE23.JPG,AFNE21.JPG,AFSA25.JPG,AFNE25.JPG,AFSA23.JPG,,,,,,,,,0,8,8,4,,,,,,,,,,,,,,,AMNE01.jpg,AMSA19.jpg,AMSA10.jpg,AMNE03.jpg,AMSA10.jpg,MS,2,num_2,16,num_2,0.950227692723,,,2017_Jul_13_1146,60.0094697481,MAFE4ImagesEEG,001,100916,
AMNE22.JPG,AMSA24.JPG,AMSA22.JPG,AMNE25.JPG,AMNE24.JPG,AMSA25.JPG,,,,,,,,,0,9,9,7,,,,,,,,,,,,,,,AMSA02.jpg,AMSA09.jpg,AMNE07.jpg,AMNE14.jpg,AMSA02.jpg,MS,2,num_8,16,num_8,1.00008563744,,,2017_Jul_13_1146,60.0094697481,MAFE4ImagesEEG,001,100916,
AFSA25.JPG,AFNE24.JPG,AFSA24.JPG,AFNE21.JPG,AFSA21.JPG,AFNE25.JPG,,,,,,,,,,,,,0,0,0,2,,,,,,,,,,,AFNE06.jpg,AFSA20.jpg,AFNE15.jpg,AFSA18.jpg,AFSA18.jpg,FS,4,num_4,16,num_4,1.15014763642,,,2017_Jul_13_1146,60.0094697481,MAFE4ImagesEEG,001,100916,
AFSA21.JPG,AFNE23.JPG,AFNE21.JPG,AFSA25.JPG,AFNE25.JPG,AFSA23.JPG,,,,,,,,,,,,,0,1,1,4,,,,,,,,,,,AFNE16.jpg,AFSA15.jpg,AFSA12.jpg,AFNE07.jpg,AFSA12.jpg,FS,4,num_2,16,num_2,1.58336749207,,,2017_Jul_13_1146,60.0094697481,MAFE4ImagesEEG,001,100916,
AFNE23.JPG,AFNE24.JPG,AFNE22.JPG,AFSA24.JPG,AFSA22.JPG,AFSA23.JPG,,,,,,,,,,,,,0,2,2,8,,,,,,,,,,,AFSA20.jpg,AFSA18.jpg,AFNE05.jpg,AFNE16.jpg,AFSA20.jpg,FS,4,num_8,32,num_6,0.700147026917,,,2017_Jul_13_1146,60.0094697481,MAFE4ImagesEEG,001,100916,
AMNE23.JPG,AMNE24.JPG,AMNE22.JPG,AMSA24.JPG,AMSA22.JPG,AMSA23.JPG,,,,,,,,,,,,,0,3,3,9,,,,,,,,,,,AFSA18.jpg,AFNE09.jpg,AFNE08.jpg,AFSA02.jpg,AFNE09.jpg,FN,3,num_6,32,num_4,0.966636068188,,,2017_Jul_13_1146,60.0094697481,MAFE4ImagesEEG,001,100916,
AMNE22.JPG,AMSA24.JPG,AMSA22.JPG,AMNE25.JPG,AMNE24.JPG,AMSA25.JPG,,,,,,,,,,,,,0,4,4,7,,,,,,,,,,,AFNE08.jpg,AFSA16.jpg,AFNE19.jpg,AFSA02.jpg,AFSA02.jpg,FS,4,num_4,16,num_4,1.35008522053,,,2017_Jul_13_1146,60.0094697481,MAFE4ImagesEEG,001,100916,
AMSA25.JPG,AMNE24.JPG,AMSA24.JPG,AMNE26.JPG,AMSA21.JPG,AMNE25.JPG,,,,,,,,,,,,,0,5,5,3,,,,,,,,,,,AFNE09.jpg,AFNE01.jpg,AFSA04.jpg,AFSA09.jpg,AFNE09.jpg,FN,3,num_8,32,num_4,1.6837152373,,,2017_Jul_13_1146,60.0094697481,MAFE4ImagesEEG,001,100916,
AMSA21.JPG,AMNE22.JPG,AMNE21.JPG,AMSA23.JPG,AMSA22.JPG,AMNE23.JPG,,,,,,,,,,,,,0,6,6,1,,,,,,,,,,,AFSA09.jpg,AFSA20.jpg,AFNE12.jpg,AFNE18.jpg,AFNE18.jpg,FN,3,num_4,16,num_4,0.883453001035,,,2017_Jul_13_1146,60.0094697481,MAFE4ImagesEEG,001,100916,
AFSA21.JPG,AFNE22.JPG,AFNE21.JPG,AFSA23.JPG,AFSA22.JPG,AFNE23.JPG,,,,,,,,,,,,,0,7,7,0,,,,,,,,,,,AFNE06.jpg,AFNE17.jpg,AFSA03.jpg,AFSA18.jpg,AFNE06.jpg,FN,3,num_8,16,num_8,1.18340796931,,,2017_Jul_13_1146,60.0094697481,MAFE4ImagesEEG,001,100916,
AFNE22.JPG,AFSA24.JPG,AFSA22.JPG,AFNE25.JPG,AFNE24.JPG,AFSA25.JPG,,,,,,,,,,,,,0,8,8,6,,,,,,,,,,,AFSA13.jpg,AFSA10.jpg,AFNE04.jpg,AFNE20.jpg,AFNE04.jpg,FN,3,num_2,16,num_2,0.716756505659,,,2017_Jul_13_1146,60.0094697481,MAFE4ImagesEEG,001,100916,
AMSA21.JPG,AMNE23.JPG,AMNE21.JPG,AMSA25.JPG,AMNE25.JPG,AMSA23.JPG,,,,,,,,,,,,,0,9,9,5,,,,,,,,,,,AFSA04.jpg,AFSA14.jpg,AFNE02.jpg,AFNE20.jpg,AFNE02.jpg,FN,3,num_2,16,num_2,0.916755671846,,,2017_Jul_13_1146,60.0094697481,MAFE4ImagesEEG,001,100916,
AMSA21.JPG,AMNE22.JPG,AMNE21.JPG,AMSA23.JPG,AMSA22.JPG,AMNE23.JPG,,,,,,,,,,,,,,,,,0,0,0,1,,,,,,,AMSA15.jpg,AMNE15.jpg,AMSA04.jpg,AMNE20.jpg,AMNE15.jpg,MN,1,num_6,16,num_6,0.883435681229,,,2017_Jul_13_1146,60.0094697481,MAFE4ImagesEEG,001,100916,
AFSA21.JPG,AFNE23.JPG,AFNE21.JPG,AFSA25.JPG,AFNE25.JPG,AFSA23.JPG,,,,,,,,,,,,,,,,,0,1,1,4,,,,,,,AMNE02.jpg,AMSA02.jpg,AMSA07.jpg,AMNE20.jpg,AMNE20.jpg,MN,1,num_4,16,num_4,0.950143017573,,,2017_Jul_13_1146,60.0094697481,MAFE4ImagesEEG,001,100916,
AMSA25.JPG,AMNE24.JPG,AMSA24.JPG,AMNE26.JPG,AMSA21.JPG,AMNE25.JPG,,,,,,,,,,,,,,,,,0,2,2,3,,,,,,,AMSA03.jpg,AMSA09.jpg,AMNE07.jpg,AMNE01.jpg,AMNE07.jpg,MN,1,num_2,32,num_8,1.43339658319,,,2017_Jul_13_1146,60.0094697481,MAFE4ImagesEEG,001,100916,
AFNE22.JPG,AFSA24.JPG,AFSA22.JPG,AFNE25.JPG,AFNE24.JPG,AFSA25.JPG,,,,,,,,,,,,,,,,,0,3,3,6,,,,,,,AMNE15.jpg,AMSA14.jpg,AMSA11.jpg,AMNE08.jpg,AMNE15.jpg,MN,1,num_8,32,num_4,0.566472876118,,,2017_Jul_13_1146,60.0094697481,MAFE4ImagesEEG,001,100916,
AMSA21.JPG,AMNE23.JPG,AMNE21.JPG,AMSA25.JPG,AMNE25.JPG,AMSA23.JPG,,,,,,,,,,,,,,,,,0,4,4,5,,,,,,,AMNE09.jpg,AMNE05.jpg,AMSA04.jpg,AMSA08.jpg,AMSA04.jpg,MS,2,num_2,16,num_2,0.900092950324,,,2017_Jul_13_1146,60.0094697481,MAFE4ImagesEEG,001,100916,
AFSA25.JPG,AFNE24.JPG,AFSA24.JPG,AFNE21.JPG,AFSA21.JPG,AFNE25.JPG,,,,,,,,,,,,,,,,,0,5,5,2,,,,,,,AMNE13.jpg,AMSA18.jpg,AMNE06.jpg,AMSA09.jpg,AMNE13.jpg,MN,1,num_8,32,num_6,0.933454316109,,,2017_Jul_13_1146,60.0094697481,MAFE4ImagesEEG,001,100916,
AFSA21.JPG,AFNE22.JPG,AFNE21.JPG,AFSA23.JPG,AFSA22.JPG,AFNE23.JPG,,,,,,,,,,,,,,,,,0,6,6,0,,,,,,,AMNE10.jpg,AMSA17.jpg,AMNE17.jpg,AMSA02.jpg,AMSA17.jpg,MS,2,num_6,16,num_6,0.900176984025,,,2017_Jul_13_1146,60.0094697481,MAFE4ImagesEEG,001,100916,
AMNE23.JPG,AMNE24.JPG,AMNE22.JPG,AMSA24.JPG,AMSA22.JPG,AMSA23.JPG,,,,,,,,,,,,,,,,,0,7,7,9,,,,,,,AMSA13.jpg,AMNE19.jpg,AMSA12.jpg,AMNE17.jpg,AMNE19.jpg,MN,1,num_6,32,num_2,1.15007996024,,,2017_Jul_13_1146,60.0094697481,MAFE4ImagesEEG,001,100916,
AFNE23.JPG,AFNE24.JPG,AFNE22.JPG,AFSA24.JPG,AFSA22.JPG,AFSA23.JPG,,,,,,,,,,,,,,,,,0,8,8,8,,,,,,,AMSA20.jpg,AMNE06.jpg,AMNE07.jpg,AMSA17.jpg,AMNE07.jpg,MN,1,num_2,16,num_2,1.45007277559,,,2017_Jul_13_1146,60.0094697481,MAFE4ImagesEEG,001,100916,
AMNE22.JPG,AMSA24.JPG,AMSA22.JPG,AMNE25.JPG,AMNE24.JPG,AMSA25.JPG,,,,,,,,,,,,,,,,,0,9,9,7,,,,,,,AMNE15.jpg,AMSA18.jpg,AMNE14.jpg,AMSA17.jpg,AMSA17.jpg,MS,2,num_4,16,num_4,1.08345216722,,,2017_Jul_13_1146,60.0094697481,MAFE4ImagesEEG,001,100916,
AMSA25.JPG,AMNE24.JPG,AMSA24.JPG,AMNE26.JPG,AMSA21.JPG,AMNE25.JPG,,,,,,,,,,,,,,,,,,,,,0,0,0,3,,,AFNE05.jpg,AFNE01.jpg,AFSA05.jpg,AFSA09.jpg,AFSA09.jpg,FS,4,num_4,32,num_2,0.566767635522,,,2017_Jul_13_1146,60.0094697481,MAFE4ImagesEEG,001,100916,
AMSA21.JPG,AMNE23.JPG,AMNE21.JPG,AMSA25.JPG,AMNE25.JPG,AMSA23.JPG,,,,,,,,,,,,,,,,,,,,,0,1,1,5,,,AFNE04.jpg,AFNE10.jpg,AFSA09.jpg,AFSA08.jpg,AFSA09.jpg,FS,4,num_2,16,num_2,1.38340521092,,,2017_Jul_13_1146,60.0094697481,MAFE4ImagesEEG,001,100916,
AMNE22.JPG,AMSA24.JPG,AMSA22.JPG,AMNE25.JPG,AMNE24.JPG,AMSA25.JPG,,,,,,,,,,,,,,,,,,,,,0,2,2,7,,,AFNE01.jpg,AFNE07.jpg,AFSA10.jpg,AFSA17.jpg,AFNE07.jpg,FN,3,num_6,32,num_8,1.0833273998,,,2017_Jul_13_1146,60.0094697481,MAFE4ImagesEEG,001,100916,
AFNE22.JPG,AFSA24.JPG,AFSA22.JPG,AFNE25.JPG,AFNE24.JPG,AFSA25.JPG,,,,,,,,,,,,,,,,,,,,,0,3,3,6,,,AFNE11.jpg,AFSA18.jpg,AFNE18.jpg,AFSA11.jpg,AFSA11.jpg,FS,4,num_4,16,num_4,1.0501148568,,,2017_Jul_13_1146,60.0094697481,MAFE4ImagesEEG,001,100916,
AFSA21.JPG,AFNE23.JPG,AFNE21.JPG,AFSA25.JPG,AFNE25.JPG,AFSA23.JPG,,,,,,,,,,,,,,,,,,,,,0,4,4,4,,,AFNE02.jpg,AFSA04.jpg,AFSA08.jpg,AFNE16.jpg,AFNE02.jpg,FN,3,num_8,32,num_2,3.29961915431,,,2017_Jul_13_1146,60.0094697481,MAFE4ImagesEEG,001,100916,
AFNE23.JPG,AFNE24.JPG,AFNE22.JPG,AFSA24.JPG,AFSA22.JPG,AFSA23.JPG,,,,,,,,,,,,,,,,,,,,,0,5,5,8,,,AFNE14.jpg,AFSA17.jpg,AFSA18.jpg,AFNE20.jpg,AFSA17.jpg,FS,4,num_6,32,num_2,1.16675070021,,,2017_Jul_13_1146,60.0094697481,MAFE4ImagesEEG,001,100916,
AFSA21.JPG,AFNE22.JPG,AFNE21.JPG,AFSA23.JPG,AFSA22.JPG,AFNE23.JPG,,,,,,,,,,,,,,,,,,,,,0,6,6,0,,,AFNE20.jpg,AFNE07.jpg,AFSA14.jpg,AFSA01.jpg,AFNE07.jpg,FN,3,num_6,16,num_6,1.11702329665,,,2017_Jul_13_1146,60.0094697481,MAFE4ImagesEEG,001,100916,
AFSA25.JPG,AFNE24.JPG,AFSA24.JPG,AFNE21.JPG,AFSA21.JPG,AFNE25.JPG,,,,,,,,,,,,,,,,,,,,,0,7,7,2,,,AFSA05.jpg,AFSA02.jpg,AFNE09.jpg,AFNE19.jpg,AFNE19.jpg,FN,3,num_4,16,num_4,0.983429651242,,,2017_Jul_13_1146,60.0094697481,MAFE4ImagesEEG,001,100916,
AMSA21.JPG,AMNE22.JPG,AMNE21.JPG,AMSA23.JPG,AMSA22.JPG,AMNE23.JPG,,,,,,,,,,,,,,,,,,,,,0,8,8,1,,,AFSA07.jpg,AFSA11.jpg,AFNE08.jpg,AFNE17.jpg,AFNE08.jpg,FN,3,num_2,32,num_4,1.35007720208,,,2017_Jul_13_1146,60.0094697481,MAFE4ImagesEEG,001,100916,
AMNE23.JPG,AMNE24.JPG,AMNE22.JPG,AMSA24.JPG,AMSA22.JPG,AMSA23.JPG,,,,,,,,,,,,,,,,,,,,,0,9,9,9,,,AFNE01.jpg,AFNE11.jpg,AFSA05.jpg,AFSA14.jpg,AFSA14.jpg,FS,4,num_4,32,num_2,1.03347362461,,,2017_Jul_13_1146,60.0094697481,MAFE4ImagesEEG,001,100916,
,,,,,,,,,,,,,,,,,,,,,,,,,,,,,,,,,,,,,,,,,,,space,12.1158394483,2017_Jul_13_1146,60.0094697481,MAFE4ImagesEEG,001,100916,
AFNE01.JPG,AFNE01.JPG,AFNE01.JPG,AFNE01.JPG,AFNE01.JPG,AFNE01.JPG,0,0,0,3,,,,,,,,,,,,,,,,,,,,,,,AMSA09.jpg,AMSA20.jpg,AMNE08.jpg,AMNE11.jpg,AMNE08.jpg,MN,1,num_2,16,num_2,4.24988244893,,,2017_Jul_13_1146,60.0094697481,MAFE4ImagesEEG,001,100916,
AFNE01.JPG,AFNE01.JPG,AFNE01.JPG,AFNE01.JPG,AFNE01.JPG,AFNE01.JPG,0,1,1,0,,,,,,,,,,,,,,,,,,,,,,,AMNE12.jpg,AMSA05.jpg,AMNE19.jpg,AMSA04.jpg,AMNE19.jpg,MN,1,num_2,32,num_6,2.0164029228,,,2017_Jul_13_1146,60.0094697481,MAFE4ImagesEEG,001,100916,
AFNE01.JPG,AFNE01.JPG,AFNE01.JPG,AFNE01.JPG,AFNE01.JPG,AFNE01.JPG,0,2,2,8,,,,,,,,,,,,,,,,,,,,,,,AMSA01.jpg,AMNE18.jpg,AMNE06.jpg,AMSA08.jpg,AMSA08.jpg,MS,2,num_4,32,num_2,0.916495231446,,,2017_Jul_13_1146,60.0094697481,MAFE4ImagesEEG,001,100916,
AFNE01.JPG,AFNE01.JPG,AFNE01.JPG,AFNE01.JPG,AFNE01.JPG,AFNE01.JPG,0,3,3,5,,,,,,,,,,,,,,,,,,,,,,,AMNE06.jpg,AMSA07.jpg,AMSA03.jpg,AMNE18.jpg,AMSA03.jpg,MS,2,num_2,16,num_2,1.18342528911,,,2017_Jul_13_1146,60.0094697481,MAFE4ImagesEEG,001,100916,
AFNE01.JPG,AFNE01.JPG,AFNE01.JPG,AFNE01.JPG,AFNE01.JPG,AFNE01.JPG,0,4,4,9,,,,,,,,,,,,,,,,,,,,,,,AMNE02.jpg,AMSA01.jpg,AMSA10.jpg,AMNE08.jpg,AMSA01.jpg,MS,2,num_6,32,num_8,1.03343930561,,,2017_Jul_13_1146,60.0094697481,MAFE4ImagesEEG,001,100916,
AFNE01.JPG,AFNE01.JPG,AFNE01.JPG,AFNE01.JPG,AFNE01.JPG,AFNE01.JPG,0,5,5,1,,,,,,,,,,,,,,,,,,,,,,,AMNE13.jpg,AMSA19.jpg,AMSA12.jpg,AMNE16.jpg,AMNE13.jpg,MN,1,num_8,32,num_4,0.833565548528,,,2017_Jul_13_1146,60.0094697481,MAFE4ImagesEEG,001,100916,
AFNE01.JPG,AFNE01.JPG,AFNE01.JPG,AFNE01.JPG,AFNE01.JPG,AFNE01.JPG,0,6,6,6,,,,,,,,,,,,,,,,,,,,,,,AMNE10.jpg,AMSA06.jpg,AMNE09.jpg,AMSA20.jpg,AMNE10.jpg,MN,1,num_8,16,num_8,0.600177112268,,,2017_Jul_13_1146,60.0094697481,MAFE4ImagesEEG,001,100916,
AFNE01.JPG,AFNE01.JPG,AFNE01.JPG,AFNE01.JPG,AFNE01.JPG,AFNE01.JPG,0,7,7,4,,,,,,,,,,,,,,,,,,,,,,,AMNE20.jpg,AMNE04.jpg,AMSA07.jpg,AMSA15.jpg,AMSA15.jpg,MS,2,num_4,16,num_4,0.566783993039,,,2017_Jul_13_1146,60.0094697481,MAFE4ImagesEEG,001,100916,
AFNE01.JPG,AFNE01.JPG,AFNE01.JPG,AFNE01.JPG,AFNE01.JPG,AFNE01.JPG,0,8,8,2,,,,,,,,,,,,,,,,,,,,,,,AMNE10.jpg,AMSA10.jpg,AMSA11.jpg,AMNE01.jpg,AMNE01.jpg,MN,1,num_4,16,num_4,1.00011642836,,,2017_Jul_13_1146,60.0094697481,MAFE4ImagesEEG,001,100916,
AFNE01.JPG,AFNE01.JPG,AFNE01.JPG,AFNE01.JPG,AFNE01.JPG,AFNE01.JPG,0,9,9,7,,,,,,,,,,,,,,,,,,,,,,,AMNE04.jpg,AMSA07.jpg,AMNE16.jpg,AMSA13.jpg,AMNE04.jpg,MN,1,num_8,16,num_8,1.01675958489,,,2017_Jul_13_1146,60.0094697481,MAFE4ImagesEEG,001,100916,
AFNE01.JPG,AFNE01.JPG,AFNE01.JPG,AFNE01.JPG,AFNE01.JPG,AFNE01.JPG,1,0,10,7,,,,,,,,,,,,,,,,,,,,,,,AMSA14.jpg,AMNE04.jpg,AMSA15.jpg,AMNE15.jpg,AMNE04.jpg,MN,1,num_6,32,num_4,0.950154564343,,,2017_Jul_13_1146,60.0094697481,MAFE4ImagesEEG,001,100916,
AFNE01.JPG,AFNE01.JPG,AFNE01.JPG,AFNE01.JPG,AFNE01.JPG,AFNE01.JPG,1,1,11,0,,,,,,,,,,,,,,,,,,,,,,,AMNE16.jpg,AMSA19.jpg,AMNE06.jpg,AMSA20.jpg,AMNE16.jpg,MN,1,num_8,32,num_6,0.616785949562,,,2017_Jul_13_1146,60.0094697481,MAFE4ImagesEEG,001,100916,
AFNE01.JPG,AFNE01.JPG,AFNE01.JPG,AFNE01.JPG,AFNE01.JPG,AFNE01.JPG,1,2,12,1,,,,,,,,,,,,,,,,,,,,,,,AMNE04.jpg,AMSA10.jpg,AMSA08.jpg,AMNE16.jpg,AMSA08.jpg,MS,2,num_2,16,num_2,1.08315997384,,,2017_Jul_13_1146,60.0094697481,MAFE4ImagesEEG,001,100916,
AFNE01.JPG,AFNE01.JPG,AFNE01.JPG,AFNE01.JPG,AFNE01.JPG,AFNE01.JPG,1,3,13,4,,,,,,,,,,,,,,,,,,,,,,,AMSA15.jpg,AMNE02.jpg,AMNE09.jpg,AMSA20.jpg,AMSA20.jpg,MS,2,num_4,16,num_4,0.900073385099,,,2017_Jul_13_1146,60.0094697481,MAFE4ImagesEEG,001,100916,
AFNE01.JPG,AFNE01.JPG,AFNE01.JPG,AFNE01.JPG,AFNE01.JPG,AFNE01.JPG,1,4,14,2,,,,,,,,,,,,,,,,,,,,,,,AMNE11.jpg,AMNE12.jpg,AMSA13.jpg,AMSA03.jpg,AMSA03.jpg,MS,2,num_4,16,num_4,1.26674691564,,,2017_Jul_13_1146,60.0094697481,MAFE4ImagesEEG,001,100916,
AFNE01.JPG,AFNE01.JPG,AFNE01.JPG,AFNE01.JPG,AFNE01.JPG,AFNE01.JPG,1,5,15,6,,,,,,,,,,,,,,,,,,,,,,,AMSA07.jpg,AMSA14.jpg,AMNE11.jpg,AMNE20.jpg,AMSA07.jpg,MS,2,num_8,32,num_4,0.733733551577,,,2017_Jul_13_1146,60.0094697481,MAFE4ImagesEEG,001,100916,
AFNE01.JPG,AFNE01.JPG,AFNE01.JPG,AFNE01.JPG,AFNE01.JPG,AFNE01.JPG,1,6,16,8,,,,,,,,,,,,,,,,,,,,,,,AMSA20.jpg,AMNE19.jpg,AMSA16.jpg,AMNE11.jpg,AMNE11.jpg,MN,1,num_4,32,num_6,1.24997193529,,,2017_Jul_13_1146,60.0094697481,MAFE4ImagesEEG,001,100916,
AFNE01.JPG,AFNE01.JPG,AFNE01.JPG,AFNE01.JPG,AFNE01.JPG,AFNE01.JPG,1,7,17,3,,,,,,,,,,,,,,,,,,,,,,,AMSA10.jpg,AMSA17.jpg,AMNE01.jpg,AMNE05.jpg,AMNE05.jpg,MN,1,num_4,16,num_4,1.25008387328,,,2017_Jul_13_1146,60.0094697481,MAFE4ImagesEEG,001,100916,
AFNE01.JPG,AFNE01.JPG,AFNE01.JPG,AFNE01.JPG,AFNE01.JPG,AFNE01.JPG,1,8,18,9,,,,,,,,,,,,,,,,,,,,,,,AMNE07.jpg,AMSA06.jpg,AMSA03.jpg,AMNE13.jpg,AMNE13.jpg,MN,1,num_4,16,num_4,1.05018862663,,,2017_Jul_13_1146,60.0094697481,MAFE4ImagesEEG,001,100916,
AFNE01.JPG,AFNE01.JPG,AFNE01.JPG,AFNE01.JPG,AFNE01.JPG,AFNE01.JPG,1,9,19,5,,,,,,,,,,,,,,,,,,,,,,,AMSA03.jpg,AMNE03.jpg,AMSA14.jpg,AMNE01.jpg,AMSA14.jpg,MS,2,num_2,16,num_2,2.08331585326,,,2017_Jul_13_1146,60.0094697481,MAFE4ImagesEEG,001,100916,
AFNE01.JPG,AFNE01.JPG,AFNE01.JPG,AFNE01.JPG,AFNE01.JPG,AFNE01.JPG,2,0,20,0,,,,,,,,,,,,,,,,,,,,,,,AMNE06.jpg,AMSA09.jpg,AMSA15.jpg,AMNE01.jpg,AMNE01.jpg,MN,1,num_4,16,num_4,1.16711089038,,,2017_Jul_13_1146,60.0094697481,MAFE4ImagesEEG,001,100916,
AFNE01.JPG,AFNE01.JPG,AFNE01.JPG,AFNE01.JPG,AFNE01.JPG,AFNE01.JPG,2,1,21,6,,,,,,,,,,,,,,,,,,,,,,,AMSA09.jpg,AMNE04.jpg,AMSA19.jpg,AMNE06.jpg,AMSA19.jpg,MS,2,num_2,16,num_2,1.31658914406,,,2017_Jul_13_1146,60.0094697481,MAFE4ImagesEEG,001,100916,
AFNE01.JPG,AFNE01.JPG,AFNE01.JPG,AFNE01.JPG,AFNE01.JPG,AFNE01.JPG,2,2,22,5,,,,,,,,,,,,,,,,,,,,,,,AMSA16.jpg,AMSA18.jpg,AMNE11.jpg,AMNE14.jpg,AMNE11.jpg,MN,1,num_2,32,num_4,1.06676314492,,,2017_Jul_13_1146,60.0094697481,MAFE4ImagesEEG,001,100916,
AFNE01.JPG,AFNE01.JPG,AFNE01.JPG,AFNE01.JPG,AFNE01.JPG,AFNE01.JPG,2,3,23,9,,,,,,,,,,,,,,,,,,,,,,,AMNE12.jpg,AMSA09.jpg,AMNE03.jpg,AMSA07.jpg,AMNE03.jpg,MN,1,num_2,32,num_4,2.31670428952,,,2017_Jul_13_1146,60.0094697481,MAFE4ImagesEEG,001,100916,
AFNE01.JPG,AFNE01.JPG,AFNE01.JPG,AFNE01.JPG,AFNE01.JPG,AFNE01.JPG,2,4,24,3,,,,,,,,,,,,,,,,,,,,,,,AMNE07.jpg,AMNE17.jpg,AMSA14.jpg,AMSA05.jpg,AMSA14.jpg,MS,2,num_2,16,num_2,1.65015886212,,,2017_Jul_13_1146,60.0094697481,MAFE4ImagesEEG,001,100916,
AFNE01.JPG,AFNE01.JPG,AFNE01.JPG,AFNE01.JPG,AFNE01.JPG,AFNE01.JPG,2,5,25,8,,,,,,,,,,,,,,,,,,,,,,,AMNE16.jpg,AMNE04.jpg,AMSA16.jpg,AMSA06.jpg,AMNE04.jpg,MN,1,num_6,16,num_6,0.900108666392,,,2017_Jul_13_1146,60.0094697481,MAFE4ImagesEEG,001,100916,
AFNE01.JPG,AFNE01.JPG,AFNE01.JPG,AFNE01.JPG,AFNE01.JPG,AFNE01.JPG,2,6,26,7,,,,,,,,,,,,,,,,,,,,,,,AMSA04.jpg,AMNE05.jpg,AMNE02.jpg,AMSA18.jpg,AMSA18.jpg,MS,2,num_4,16,num_4,1.00011450402,,,2017_Jul_13_1146,60.0094697481,MAFE4ImagesEEG,001,100916,
AFNE01.JPG,AFNE01.JPG,AFNE01.JPG,AFNE01.JPG,AFNE01.JPG,AFNE01.JPG,2,7,27,4,,,,,,,,,,,,,,,,,,,,,,,AMSA18.jpg,AMNE16.jpg,AMSA01.jpg,AMNE09.jpg,AMNE16.jpg,MN,1,num_6,16,num_6,1.83337823674,,,2017_Jul_13_1146,60.0094697481,MAFE4ImagesEEG,001,100916,
AFNE01.JPG,AFNE01.JPG,AFNE01.JPG,AFNE01.JPG,AFNE01.JPG,AFNE01.JPG,2,8,28,1,,,,,,,,,,,,,,,,,,,,,,,AMNE14.jpg,AMSA16.jpg,AMSA19.jpg,AMNE02.jpg,AMSA16.jpg,MS,2,num_6,16,num_6,0.000216178363189,,,2017_Jul_13_1146,60.0094697481,MAFE4ImagesEEG,001,100916,
AFNE01.JPG,AFNE01.JPG,AFNE01.JPG,AFNE01.JPG,AFNE01.JPG,AFNE01.JPG,2,9,29,2,,,,,,,,,,,,,,,,,,,,,,,AMNE03.jpg,AMNE20.jpg,AMSA08.jpg,AMSA18.jpg,AMSA18.jpg,MS,2,num_4,16,num_4,1.11671602842,,,2017_Jul_13_1146,60.0094697481,MAFE4ImagesEEG,001,100916,
AFNE01.JPG,AFNE01.JPG,AFNE01.JPG,AFNE01.JPG,AFNE01.JPG,AFNE01.JPG,3,0,30,9,,,,,,,,,,,,,,,,,,,,,,,AMSA07.jpg,AMNE12.jpg,AMNE16.jpg,AMSA16.jpg,AMNE12.jpg,MN,1,num_6,32,num_2,0.450157130137,,,2017_Jul_13_1146,60.0094697481,MAFE4ImagesEEG,001,100916,
AFNE01.JPG,AFNE01.JPG,AFNE01.JPG,AFNE01.JPG,AFNE01.JPG,AFNE01.JPG,3,1,31,0,,,,,,,,,,,,,,,,,,,,,,,AMNE08.jpg,AMNE02.jpg,AMSA02.jpg,AMSA14.jpg,AMSA14.jpg,MS,2,num_4,16,num_4,0.550167457899,,,2017_Jul_13_1146,60.0094697481,MAFE4ImagesEEG,001,100916,
AFNE01.JPG,AFNE01.JPG,AFNE01.JPG,AFNE01.JPG,AFNE01.JPG,AFNE01.JPG,3,2,32,8,,,,,,,,,,,,,,,,,,,,,,,AMSA05.jpg,AMSA11.jpg,AMNE04.jpg,AMNE17.jpg,AMSA11.jpg,MS,2,num_6,16,num_6,0.74997867085,,,2017_Jul_13_1146,60.0094697481,MAFE4ImagesEEG,001,100916,
AFNE01.JPG,AFNE01.JPG,AFNE01.JPG,AFNE01.JPG,AFNE01.JPG,AFNE01.JPG,3,3,33,3,,,,,,,,,,,,,,,,,,,,,,,AMNE06.jpg,AMSA19.jpg,AMNE17.jpg,AMSA05.jpg,AMSA19.jpg,MS,2,num_6,16,num_6,0.883484754246,,,2017_Jul_13_1146,60.0094697481,MAFE4ImagesEEG,001,100916,
AFNE01.JPG,AFNE01.JPG,AFNE01.JPG,AFNE01.JPG,AFNE01.JPG,AFNE01.JPG,3,4,34,6,,,,,,,,,,,,,,,,,,,,,,,AMSA08.jpg,AMNE02.jpg,AMSA15.jpg,AMNE03.jpg,AMSA08.jpg,MS,2,num_8,32,num_2,1.03346881364,,,2017_Jul_13_1146,60.0094697481,MAFE4ImagesEEG,001,100916,
AFNE01.JPG,AFNE01.JPG,AFNE01.JPG,AFNE01.JPG,AFNE01.JPG,AFNE01.JPG,3,5,35,1,,,,,,,,,,,,,,,,,,,,,,,AMSA20.jpg,AMNE01.jpg,AMNE11.jpg,AMSA13.jpg,AMNE11.jpg,MN,1,num_2,16,num_2,1.66671381542,,,2017_Jul_13_1146,60.0094697481,MAFE4ImagesEEG,001,100916,
AFNE01.JPG,AFNE01.JPG,AFNE01.JPG,AFNE01.JPG,AFNE01.JPG,AFNE01.JPG,3,6,36,4,,,,,,,,,,,,,,,,,,,,,,,AMNE04.jpg,AMNE19.jpg,AMSA14.jpg,AMSA10.jpg,AMSA14.jpg,MS,2,num_2,16,num_2,0.400145551423,,,2017_Jul_13_1146,60.0094697481,MAFE4ImagesEEG,001,100916,
AFNE01.JPG,AFNE01.JPG,AFNE01.JPG,AFNE01.JPG,AFNE01.JPG,AFNE01.JPG,3,7,37,5,,,,,,,,,,,,,,,,,,,,,,,AMNE01.jpg,AMSA04.jpg,AMSA07.jpg,AMNE10.jpg,AMNE10.jpg,MN,1,num_4,16,num_4,0.883616578067,,,2017_Jul_13_1146,60.0094697481,MAFE4ImagesEEG,001,100916,
AFNE01.JPG,AFNE01.JPG,AFNE01.JPG,AFNE01.JPG,AFNE01.JPG,AFNE01.JPG,3,8,38,7,,,,,,,,,,,,,,,,,,,,,,,AMSA18.jpg,AMNE03.jpg,AMNE14.jpg,AMSA06.jpg,AMSA06.jpg,MS,2,num_4,32,num_2,1.03344122996,,,2017_Jul_13_1146,60.0094697481,MAFE4ImagesEEG,001,100916,
AFNE01.JPG,AFNE01.JPG,AFNE01.JPG,AFNE01.JPG,AFNE01.JPG,AFNE01.JPG,3,9,39,2,,,,,,,,,,,,,,,,,,,,,,,AMNE16.jpg,AMNE20.jpg,AMSA17.jpg,AMSA11.jpg,AMNE20.jpg,MN,1,num_6,16,num_6,1.16675968119,,,2017_Jul_13_1146,60.0094697481,MAFE4ImagesEEG,001,100916,
AFNE01.JPG,AFNE01.JPG,AFNE01.JPG,AFNE01.JPG,AFNE01.JPG,AFNE01.JPG,4,0,40,9,,,,,,,,,,,,,,,,,,,,,,,AMSA18.jpg,AMSA14.jpg,AMNE12.jpg,AMNE15.jpg,AMNE15.jpg,MN,1,num_4,16,num_4,0.933444052469,,,2017_Jul_13_1146,60.0094697481,MAFE4ImagesEEG,001,100916,
AFNE01.JPG,AFNE01.JPG,AFNE01.JPG,AFNE01.JPG,AFNE01.JPG,AFNE01.JPG,4,1,41,5,,,,,,,,,,,,,,,,,,,,,,,AMSA06.jpg,AMNE13.jpg,AMSA12.jpg,AMNE03.jpg,AMNE13.jpg,MN,1,num_6,32,num_2,0.699776252266,,,2017_Jul_13_1146,60.0094697481,MAFE4ImagesEEG,001,100916,
AFNE01.JPG,AFNE01.JPG,AFNE01.JPG,AFNE01.JPG,AFNE01.JPG,AFNE01.JPG,4,2,42,3,,,,,,,,,,,,,,,,,,,,,,,AMSA11.jpg,AMSA05.jpg,AMNE19.jpg,AMNE10.jpg,AMSA05.jpg,MS,2,num_6,16,num_6,0.683509322815,,,2017_Jul_13_1146,60.0094697481,MAFE4ImagesEEG,001,100916,
AFNE01.JPG,AFNE01.JPG,AFNE01.JPG,AFNE01.JPG,AFNE01.JPG,AFNE01.JPG,4,3,43,0,,,,,,,,,,,,,,,,,,,,,,,AMSA08.jpg,AMNE12.jpg,AMSA01.jpg,AMNE06.jpg,AMNE12.jpg,MN,1,num_6,32,num_4,0.733471187064,,,2017_Jul_13_1146,60.0094697481,MAFE4ImagesEEG,001,100916,
AFNE01.JPG,AFNE01.JPG,AFNE01.JPG,AFNE01.JPG,AFNE01.JPG,AFNE01.JPG,4,4,44,8,,,,,,,,,,,,,,,,,,,,,,,AMNE04.jpg,AMSA19.jpg,AMSA17.jpg,AMNE18.jpg,AMSA19.jpg,MS,2,num_6,16,num_6,0.816766833654,,,2017_Jul_13_1146,60.0094697481,MAFE4ImagesEEG,001,100916,
AFNE01.JPG,AFNE01.JPG,AFNE01.JPG,AFNE01.JPG,AFNE01.JPG,AFNE01.JPG,4,5,45,4,,,,,,,,,,,,,,,,,,,,,,,AMSA20.jpg,AMNE05.jpg,AMNE17.jpg,AMSA10.jpg,AMNE17.jpg,MN,1,num_2,16,num_2,2.36664209818,,,2017_Jul_13_1146,60.0094697481,MAFE4ImagesEEG,001,100916,
AFNE01.JPG,AFNE01.JPG,AFNE01.JPG,AFNE01.JPG,AFNE01.JPG,AFNE01.JPG,4,6,46,1,,,,,,,,,,,,,,,,,,,,,,,AMNE11.jpg,AMNE06.jpg,AMSA18.jpg,AMSA05.jpg,AMSA05.jpg,MS,2,num_4,16,num_4,0.433463617694,,,2017_Jul_13_1146,60.0094697481,MAFE4ImagesEEG,001,100916,
AFNE01.JPG,AFNE01.JPG,AFNE01.JPG,AFNE01.JPG,AFNE01.JPG,AFNE01.JPG,4,7,47,2,,,,,,,,,,,,,,,,,,,,,,,AMNE11.jpg,AMNE03.jpg,AMSA09.jpg,AMSA02.jpg,AMNE03.jpg,MN,1,num_6,16,num_6,0.666767699644,,,2017_Jul_13_1146,60.0094697481,MAFE4ImagesEEG,001,100916,
AFNE01.JPG,AFNE01.JPG,AFNE01.JPG,AFNE01.JPG,AFNE01.JPG,AFNE01.JPG,4,8,48,7,,,,,,,,,,,,,,,,,,,,,,,AMNE10.jpg,AMSA16.jpg,AMNE18.jpg,AMSA13.jpg,AMNE10.jpg,MN,1,num_8,32,num_6,0.733514807653,,,2017_Jul_13_1146,60.0094697481,MAFE4ImagesEEG,001,100916,
AFNE01.JPG,AFNE01.JPG,AFNE01.JPG,AFNE01.JPG,AFNE01.JPG,AFNE01.JPG,4,9,49,6,,,,,,,,,,,,,,,,,,,,,,,AMSA01.jpg,AMNE16.jpg,AMNE12.jpg,AMSA16.jpg,AMNE12.jpg,MN,1,num_2,16,num_2,1.48345114081,,,2017_Jul_13_1146,60.0094697481,MAFE4ImagesEEG,001,100916,
AFNE01.JPG,AFNE01.JPG,AFNE01.JPG,AFNE01.JPG,AFNE01.JPG,AFNE01.JPG,5,0,50,0,,,,,,,,,,,,,,,,,,,,,,,AMNE18.jpg,AMNE10.jpg,AMSA15.jpg,AMSA20.jpg,AMNE10.jpg,MN,1,num_6,16,num_6,0.60011328524,,,2017_Jul_13_1146,60.0094697481,MAFE4ImagesEEG,001,100916,
AFNE01.JPG,AFNE01.JPG,AFNE01.JPG,AFNE01.JPG,AFNE01.JPG,AFNE01.JPG,5,1,51,5,,,,,,,,,,,,,,,,,,,,,,,AMSA12.jpg,AMNE19.jpg,AMSA18.jpg,AMNE15.jpg,AMNE15.jpg,MN,1,num_4,16,num_4,0.833449761616,,,2017_Jul_13_1146,60.0094697481,MAFE4ImagesEEG,001,100916,
AFNE01.JPG,AFNE01.JPG,AFNE01.JPG,AFNE01.JPG,AFNE01.JPG,AFNE01.JPG,5,2,52,1,,,,,,,,,,,,,,,,,,,,,,,AMSA07.jpg,AMNE18.jpg,AMNE02.jpg,AMSA02.jpg,AMSA07.jpg,MS,2,num_8,16,num_8,0.783490142785,,,2017_Jul_13_1146,60.0094697481,MAFE4ImagesEEG,001,100916,
AFNE01.JPG,AFNE01.JPG,AFNE01.JPG,AFNE01.JPG,AFNE01.JPG,AFNE01.JPG,5,3,53,2,,,,,,,,,,,,,,,,,,,,,,,AMNE20.jpg,AMSA19.jpg,AMNE02.jpg,AMSA07.jpg,AMSA19.jpg,MS,2,num_6,16,num_6,1.01679326245,,,2017_Jul_13_1146,60.0094697481,MAFE4ImagesEEG,001,100916,
AFNE01.JPG,AFNE01.JPG,AFNE01.JPG,AFNE01.JPG,AFNE01.JPG,AFNE01.JPG,5,4,54,4,,,,,,,,,,,,,,,,,,,,,,,AMSA12.jpg,AMNE13.jpg,AMSA18.jpg,AMNE20.jpg,AMNE13.jpg,MN,1,num_6,16,num_6,2.1833678768,,,2017_Jul_13_1146,60.0094697481,MAFE4ImagesEEG,001,100916,
AFNE01.JPG,AFNE01.JPG,AFNE01.JPG,AFNE01.JPG,AFNE01.JPG,AFNE01.JPG,5,5,55,7,,,,,,,,,,,,,,,,,,,,,,,AMNE14.jpg,AMSA19.jpg,AMNE13.jpg,AMSA06.jpg,AMSA19.jpg,MS,2,num_6,32,num_2,1.4500458336,,,2017_Jul_13_1146,60.0094697481,MAFE4ImagesEEG,001,100916,
AFNE01.JPG,AFNE01.JPG,AFNE01.JPG,AFNE01.JPG,AFNE01.JPG,AFNE01.JPG,5,6,56,9,,,,,,,,,,,,,,,,,,,,,,,AMNE15.jpg,AMSA08.jpg,AMNE03.jpg,AMSA15.jpg,AMSA15.jpg,MS,2,num_4,16,num_4,0.466767892009,,,2017_Jul_13_1146,60.0094697481,MAFE4ImagesEEG,001,100916,
AFNE01.JPG,AFNE01.JPG,AFNE01.JPG,AFNE01.JPG,AFNE01.JPG,AFNE01.JPG,5,7,57,6,,,,,,,,,,,,,,,,,,,,,,,AMNE14.jpg,AMSA17.jpg,AMNE09.jpg,AMSA05.jpg,AMSA05.jpg,MS,2,num_4,16,num_4,0.583410150371,,,2017_Jul_13_1146,60.0094697481,MAFE4ImagesEEG,001,100916,
AFNE01.JPG,AFNE01.JPG,AFNE01.JPG,AFNE01.JPG,AFNE01.JPG,AFNE01.JPG,5,8,58,3,,,,,,,,,,,,,,,,,,,,,,,AMNE10.jpg,AMNE15.jpg,AMSA10.jpg,AMSA12.jpg,AMSA10.jpg,MS,2,num_2,16,num_2,0.883457170799,,,2017_Jul_13_1146,60.0094697481,MAFE4ImagesEEG,001,100916,
AFNE01.JPG,AFNE01.JPG,AFNE01.JPG,AFNE01.JPG,AFNE01.JPG,AFNE01.JPG,5,9,59,8,,,,,,,,,,,,,,,,,,,,,,,AMSA11.jpg,AMNE12.jpg,AMNE09.jpg,AMSA04.jpg,AMSA11.jpg,MS,2,num_8,32,num_4,0.850146160927,,,2017_Jul_13_1146,60.0094697481,MAFE4ImagesEEG,001,100916,
,,,,,,,,,,,,,,,,,,,,,,,,,,,,,,,,,,,,,,,,,,,space,4.44980078889,2017_Jul_13_1146,60.0094697481,MAFE4ImagesEEG,001,100916,
AFNE01.JPG,AFNE01.JPG,AFNE01.JPG,AFNE01.JPG,AFNE01.JPG,AFNE01.JPG,,,,,0,0,0,8,,,,,,,,,,,,,,,,,,,AFSA11.jpg,AFNE10.jpg,AFSA09.jpg,AFNE20.jpg,AFSA09.jpg,FS,4,num_2,32,num_6,1.18343266612,,,2017_Jul_13_1146,60.0094697481,MAFE4ImagesEEG,001,100916,
AFNE01.JPG,AFNE01.JPG,AFNE01.JPG,AFNE01.JPG,AFNE01.JPG,AFNE01.JPG,,,,,0,1,1,4,,,,,,,,,,,,,,,,,,,AFNE04.jpg,AFSA05.jpg,AFSA12.jpg,AFNE17.jpg,AFNE17.jpg,FN,3,num_4,16,num_4,1.20007774723,,,2017_Jul_13_1146,60.0094697481,MAFE4ImagesEEG,001,100916,
AFNE01.JPG,AFNE01.JPG,AFNE01.JPG,AFNE01.JPG,AFNE01.JPG,AFNE01.JPG,,,,,0,2,2,3,,,,,,,,,,,,,,,,,,,AFNE16.jpg,AFSA12.jpg,AFSA02.jpg,AFNE06.jpg,AFSA12.jpg,FS,4,num_6,16,num_6,0.650179068558,,,2017_Jul_13_1146,60.0094697481,MAFE4ImagesEEG,001,100916,
AFNE01.JPG,AFNE01.JPG,AFNE01.JPG,AFNE01.JPG,AFNE01.JPG,AFNE01.JPG,,,,,0,3,3,1,,,,,,,,,,,,,,,,,,,AFNE06.jpg,AFNE08.jpg,AFSA14.jpg,AFSA17.jpg,AFSA14.jpg,FS,4,num_2,32,num_4,0.666777963284,,,2017_Jul_13_1146,60.0094697481,MAFE4ImagesEEG,001,100916,
AFNE01.JPG,AFNE01.JPG,AFNE01.JPG,AFNE01.JPG,AFNE01.JPG,AFNE01.JPG,,,,,0,4,4,9,,,,,,,,,,,,,,,,,,,AFNE10.jpg,AFNE17.jpg,AFSA15.jpg,AFSA14.jpg,AFNE17.jpg,FN,3,num_6,32,num_4,0.916704674251,,,2017_Jul_13_1146,60.0094697481,MAFE4ImagesEEG,001,100916,
AFNE01.JPG,AFNE01.JPG,AFNE01.JPG,AFNE01.JPG,AFNE01.JPG,AFNE01.JPG,,,,,0,5,5,6,,,,,,,,,,,,,,,,,,,AFNE03.jpg,AFSA17.jpg,AFNE08.jpg,AFSA04.jpg,AFNE08.jpg,FN,3,num_2,32,num_8,0.866776166949,,,2017_Jul_13_1146,60.0094697481,MAFE4ImagesEEG,001,100916,
AFNE01.JPG,AFNE01.JPG,AFNE01.JPG,AFNE01.JPG,AFNE01.JPG,AFNE01.JPG,,,,,0,6,6,5,,,,,,,,,,,,,,,,,,,AFNE08.jpg,AFSA13.jpg,AFSA16.jpg,AFNE04.jpg,AFNE08.jpg,FN,3,num_8,32,num_4,0.633467274019,,,2017_Jul_13_1146,60.0094697481,MAFE4ImagesEEG,001,100916,
AFNE01.JPG,AFNE01.JPG,AFNE01.JPG,AFNE01.JPG,AFNE01.JPG,AFNE01.JPG,,,,,0,7,7,2,,,,,,,,,,,,,,,,,,,AFNE12.jpg,AFSA03.jpg,AFSA15.jpg,AFNE04.jpg,AFNE04.jpg,FN,3,num_4,32,num_6,0.750101513928,,,2017_Jul_13_1146,60.0094697481,MAFE4ImagesEEG,001,100916,
AFNE01.JPG,AFNE01.JPG,AFNE01.JPG,AFNE01.JPG,AFNE01.JPG,AFNE01.JPG,,,,,0,8,8,7,,,,,,,,,,,,,,,,,,,AFSA18.jpg,AFSA19.jpg,AFNE12.jpg,AFNE18.jpg,AFNE12.jpg,FN,3,num_2,32,num_4,0.783448767383,,,2017_Jul_13_1146,60.0094697481,MAFE4ImagesEEG,001,100916,
AFNE01.JPG,AFNE01.JPG,AFNE01.JPG,AFNE01.JPG,AFNE01.JPG,AFNE01.JPG,,,,,0,9,9,0,,,,,,,,,,,,,,,,,,,AFSA11.jpg,AFNE14.jpg,AFNE09.jpg,AFSA06.jpg,AFSA06.jpg,FS,4,num_4,32,num_8,1.38339687185,,,2017_Jul_13_1146,60.0094697481,MAFE4ImagesEEG,001,100916,
AFNE01.JPG,AFNE01.JPG,AFNE01.JPG,AFNE01.JPG,AFNE01.JPG,AFNE01.JPG,,,,,1,0,10,5,,,,,,,,,,,,,,,,,,,AFNE14.jpg,AFSA15.jpg,AFSA01.jpg,AFNE20.jpg,AFNE14.jpg,FN,3,num_8,32,num_4,0.783502330771,,,2017_Jul_13_1146,60.0094697481,MAFE4ImagesEEG,001,100916,
AFNE01.JPG,AFNE01.JPG,AFNE01.JPG,AFNE01.JPG,AFNE01.JPG,AFNE01.JPG,,,,,1,1,11,1,,,,,,,,,,,,,,,,,,,AFNE14.jpg,AFSA08.jpg,AFNE19.jpg,AFSA03.jpg,AFNE14.jpg,FN,3,num_8,32,num_6,0.616769912653,,,2017_Jul_13_1146,60.0094697481,MAFE4ImagesEEG,001,100916,
AFNE01.JPG,AFNE01.JPG,AFNE01.JPG,AFNE01.JPG,AFNE01.JPG,AFNE01.JPG,,,,,1,2,12,4,,,,,,,,,,,,,,,,,,,AFSA01.jpg,AFNE01.jpg,AFSA18.jpg,AFNE10.jpg,AFNE10.jpg,FN,3,num_4,16,num_4,1.633379712,,,2017_Jul_13_1146,60.0094697481,MAFE4ImagesEEG,001,100916,
AFNE01.JPG,AFNE01.JPG,AFNE01.JPG,AFNE01.JPG,AFNE01.JPG,AFNE01.JPG,,,,,1,3,13,7,,,,,,,,,,,,,,,,,,,AFNE11.jpg,AFSA04.jpg,AFSA13.jpg,AFNE18.jpg,AFNE18.jpg,FN,3,num_4,16,num_4,0.683456080267,,,2017_Jul_13_1146,60.0094697481,MAFE4ImagesEEG,001,100916,
AFNE01.JPG,AFNE01.JPG,AFNE01.JPG,AFNE01.JPG,AFNE01.JPG,AFNE01.JPG,,,,,1,4,14,8,,,,,,,,,,,,,,,,,,,AFNE09.jpg,AFNE13.jpg,AFSA05.jpg,AFSA16.jpg,AFNE09.jpg,FN,3,num_8,32,num_6,0.916767539224,,,2017_Jul_13_1146,60.0094697481,MAFE4ImagesEEG,001,100916,
AFNE01.JPG,AFNE01.JPG,AFNE01.JPG,AFNE01.JPG,AFNE01.JPG,AFNE01.JPG,,,,,1,5,15,3,,,,,,,,,,,,,,,,,,,AFNE20.jpg,AFNE12.jpg,AFSA12.jpg,AFSA04.jpg,AFSA04.jpg,FS,4,num_4,32,num_2,1.70007133228,,,2017_Jul_13_1146,60.0094697481,MAFE4ImagesEEG,001,100916,
AFNE01.JPG,AFNE01.JPG,AFNE01.JPG,AFNE01.JPG,AFNE01.JPG,AFNE01.JPG,,,,,1,6,16,6,,,,,,,,,,,,,,,,,,,AFSA19.jpg,AFNE09.jpg,AFSA13.jpg,AFNE06.jpg,AFNE06.jpg,FN,3,num_4,16,num_4,0.733460923191,,,2017_Jul_13_1146,60.0094697481,MAFE4ImagesEEG,001,100916,
AFNE01.JPG,AFNE01.JPG,AFNE01.JPG,AFNE01.JPG,AFNE01.JPG,AFNE01.JPG,,,,,1,7,17,0,,,,,,,,,,,,,,,,,,,AFSA18.jpg,AFSA14.jpg,AFNE10.jpg,AFNE09.jpg,AFSA18.jpg,FS,4,num_8,32,num_4,0.78316330933,,,2017_Jul_13_1146,60.0094697481,MAFE4ImagesEEG,001,100916,
AFNE01.JPG,AFNE01.JPG,AFNE01.JPG,AFNE01.JPG,AFNE01.JPG,AFNE01.JPG,,,,,1,8,18,9,,,,,,,,,,,,,,,,,,,AFSA12.jpg,AFNE06.jpg,AFSA02.jpg,AFNE16.jpg,AFNE16.jpg,FN,3,num_4,32,num_2,0.700138046173,,,2017_Jul_13_1146,60.0094697481,MAFE4ImagesEEG,001,100916,
AFNE01.JPG,AFNE01.JPG,AFNE01.JPG,AFNE01.JPG,AFNE01.JPG,AFNE01.JPG,,,,,1,9,19,2,,,,,,,,,,,,,,,,,,,AFSA03.jpg,AFSA06.jpg,AFNE13.jpg,AFNE09.jpg,AFSA06.jpg,FS,4,num_6,32,num_2,0.883476735791,,,2017_Jul_13_1146,60.0094697481,MAFE4ImagesEEG,001,100916,
AFNE01.JPG,AFNE01.JPG,AFNE01.JPG,AFNE01.JPG,AFNE01.JPG,AFNE01.JPG,,,,,2,0,20,2,,,,,,,,,,,,,,,,,,,AFSA16.jpg,AFSA02.jpg,AFNE01.jpg,AFNE17.jpg,AFNE17.jpg,FN,3,num_4,32,num_6,0.733225821517,,,2017_Jul_13_1146,60.0094697481,MAFE4ImagesEEG,001,100916,
AFNE01.JPG,AFNE01.JPG,AFNE01.JPG,AFNE01.JPG,AFNE01.JPG,AFNE01.JPG,,,,,2,1,21,0,,,,,,,,,,,,,,,,,,,AFNE03.jpg,AFSA14.jpg,AFNE02.jpg,AFSA02.jpg,AFNE02.jpg,FN,3,num_2,32,num_4,0.733456112444,,,2017_Jul_13_1146,60.0094697481,MAFE4ImagesEEG,001,100916,
AFNE01.JPG,AFNE01.JPG,AFNE01.JPG,AFNE01.JPG,AFNE01.JPG,AFNE01.JPG,,,,,2,2,22,7,,,,,,,,,,,,,,,,,,,AFSA17.jpg,AFSA04.jpg,AFNE01.jpg,AFNE19.jpg,AFNE01.jpg,FN,3,num_2,16,num_2,1.0333905532,,,2017_Jul_13_1146,60.0094697481,MAFE4ImagesEEG,001,100916,
AFNE01.JPG,AFNE01.JPG,AFNE01.JPG,AFNE01.JPG,AFNE01.JPG,AFNE01.JPG,,,,,2,3,23,6,,,,,,,,,,,,,,,,,,,AFNE15.jpg,AFSA10.jpg,AFNE11.jpg,AFSA12.jpg,AFSA12.jpg,FS,4,num_4,16,num_4,0.583482316695,,,2017_Jul_13_1146,60.0094697481,MAFE4ImagesEEG,001,100916,
AFNE01.JPG,AFNE01.JPG,AFNE01.JPG,AFNE01.JPG,AFNE01.JPG,AFNE01.JPG,,,,,2,4,24,9,,,,,,,,,,,,,,,,,,,AFNE16.jpg,AFSA07.jpg,AFSA19.jpg,AFNE07.jpg,AFNE07.jpg,FN,3,num_4,16,num_4,0.966786494944,,,2017_Jul_13_1146,60.0094697481,MAFE4ImagesEEG,001,100916,
AFNE01.JPG,AFNE01.JPG,AFNE01.JPG,AFNE01.JPG,AFNE01.JPG,AFNE01.JPG,,,,,2,5,25,4,,,,,,,,,,,,,,,,,,,AFNE09.jpg,AFSA08.jpg,AFSA20.jpg,AFNE04.jpg,AFNE09.jpg,FN,3,num_8,16,num_8,0.950137244305,,,2017_Jul_13_1146,60.0094697481,MAFE4ImagesEEG,001,100916,
AFNE01.JPG,AFNE01.JPG,AFNE01.JPG,AFNE01.JPG,AFNE01.JPG,AFNE01.JPG,,,,,2,6,26,1,,,,,,,,,,,,,,,,,,,AFNE08.jpg,AFNE09.jpg,AFSA13.jpg,AFSA14.jpg,AFSA14.jpg,FS,4,num_4,16,num_4,0.633485235274,,,2017_Jul_13_1146,60.0094697481,MAFE4ImagesEEG,001,100916,
AFNE01.JPG,AFNE01.JPG,AFNE01.JPG,AFNE01.JPG,AFNE01.JPG,AFNE01.JPG,,,,,2,7,27,8,,,,,,,,,,,,,,,,,,,AFNE01.jpg,AFSA09.jpg,AFNE02.jpg,AFSA15.jpg,AFSA09.jpg,FS,4,num_6,16,num_6,0.666767057963,,,2017_Jul_13_1146,60.0094697481,MAFE4ImagesEEG,001,100916,
AFNE01.JPG,AFNE01.JPG,AFNE01.JPG,AFNE01.JPG,AFNE01.JPG,AFNE01.JPG,,,,,2,8,28,3,,,,,,,,,,,,,,,,,,,AFSA12.jpg,AFNE07.jpg,AFSA18.jpg,AFNE13.jpg,AFNE13.jpg,FN,3,num_4,16,num_4,1.01680801646,,,2017_Jul_13_1146,60.0094697481,MAFE4ImagesEEG,001,100916,
AFNE01.JPG,AFNE01.JPG,AFNE01.JPG,AFNE01.JPG,AFNE01.JPG,AFNE01.JPG,,,,,2,9,29,5,,,,,,,,,,,,,,,,,,,AFNE12.jpg,AFSA08.jpg,AFNE17.jpg,AFSA18.jpg,AFNE12.jpg,FN,3,num_8,16,num_8,1.1000690232,,,2017_Jul_13_1146,60.0094697481,MAFE4ImagesEEG,001,100916,
AFNE01.JPG,AFNE01.JPG,AFNE01.JPG,AFNE01.JPG,AFNE01.JPG,AFNE01.JPG,,,,,3,0,30,2,,,,,,,,,,,,,,,,,,,AFSA08.jpg,AFSA13.jpg,AFNE07.jpg,AFNE14.jpg,AFSA08.jpg,FS,4,num_8,32,num_6,0.750131342793,,,2017_Jul_13_1146,60.0094697481,MAFE4ImagesEEG,001,100916,
AFNE01.JPG,AFNE01.JPG,AFNE01.JPG,AFNE01.JPG,AFNE01.JPG,AFNE01.JPG,,,,,3,1,31,5,,,,,,,,,,,,,,,,,,,AFSA04.jpg,AFNE19.jpg,AFSA15.jpg,AFNE08.jpg,AFNE08.jpg,FN,3,num_4,32,num_2,1.60038174363,,,2017_Jul_13_1146,60.0094697481,MAFE4ImagesEEG,001,100916,
AFNE01.JPG,AFNE01.JPG,AFNE01.JPG,AFNE01.JPG,AFNE01.JPG,AFNE01.JPG,,,,,3,2,32,3,,,,,,,,,,,,,,,,,,,AFNE17.jpg,AFNE08.jpg,AFSA20.jpg,AFSA19.jpg,AFNE08.jpg,FN,3,num_6,16,num_6,0.883617860964,,,2017_Jul_13_1146,60.0094697481,MAFE4ImagesEEG,001,100916,
AFNE01.JPG,AFNE01.JPG,AFNE01.JPG,AFNE01.JPG,AFNE01.JPG,AFNE01.JPG,,,,,3,3,33,6,,,,,,,,,,,,,,,,,,,AFSA18.jpg,AFNE03.jpg,AFSA12.jpg,AFNE01.jpg,AFNE03.jpg,FN,3,num_6,16,num_6,0.650208576582,,,2017_Jul_13_1146,60.0094697481,MAFE4ImagesEEG,001,100916,
AFNE01.JPG,AFNE01.JPG,AFNE01.JPG,AFNE01.JPG,AFNE01.JPG,AFNE01.JPG,,,,,3,4,34,7,,,,,,,,,,,,,,,,,,,AFNE11.jpg,AFSA02.jpg,AFSA04.jpg,AFNE13.jpg,AFSA02.jpg,FS,4,num_6,32,num_4,0.766625676304,,,2017_Jul_13_1146,60.0094697481,MAFE4ImagesEEG,001,100916,
AFNE01.JPG,AFNE01.JPG,AFNE01.JPG,AFNE01.JPG,AFNE01.JPG,AFNE01.JPG,,,,,3,5,35,8,,,,,,,,,,,,,,,,,,,AFNE18.jpg,AFSA01.jpg,AFSA17.jpg,AFNE05.jpg,AFSA17.jpg,FS,4,num_2,32,num_6,1.16681067855,,,2017_Jul_13_1146,60.0094697481,MAFE4ImagesEEG,001,100916,
AFNE01.JPG,AFNE01.JPG,AFNE01.JPG,AFNE01.JPG,AFNE01.JPG,AFNE01.JPG,,,,,3,6,36,9,,,,,,,,,,,,,,,,,,,AFSA02.jpg,AFSA03.jpg,AFNE06.jpg,AFNE09.jpg,AFNE09.jpg,FN,3,num_4,16,num_4,1.38340104138,,,2017_Jul_13_1146,60.0094697481,MAFE4ImagesEEG,001,100916,
AFNE01.JPG,AFNE01.JPG,AFNE01.JPG,AFNE01.JPG,AFNE01.JPG,AFNE01.JPG,,,,,3,7,37,0,,,,,,,,,,,,,,,,,,,AFSA13.jpg,AFSA03.jpg,AFNE17.jpg,AFNE02.jpg,AFSA03.jpg,FS,4,num_6,32,num_4,0.750108570326,,,2017_Jul_13_1146,60.0094697481,MAFE4ImagesEEG,001,100916,
AFNE01.JPG,AFNE01.JPG,AFNE01.JPG,AFNE01.JPG,AFNE01.JPG,AFNE01.JPG,,,,,3,8,38,4,,,,,,,,,,,,,,,,,,,AFSA18.jpg,AFNE13.jpg,AFNE06.jpg,AFSA04.jpg,AFSA04.jpg,FS,4,num_4,32,num_2,1.01686510793,,,2017_Jul_13_1146,60.0094697481,MAFE4ImagesEEG,001,100916,
AFNE01.JPG,AFNE01.JPG,AFNE01.JPG,AFNE01.JPG,AFNE01.JPG,AFNE01.JPG,,,,,3,9,39,1,,,,,,,,,,,,,,,,,,,AFSA09.jpg,AFNE01.jpg,AFSA08.jpg,AFNE07.jpg,AFNE07.jpg,FN,3,num_4,16,num_4,0.716800446855,,,2017_Jul_13_1146,60.0094697481,MAFE4ImagesEEG,001,100916,
AFNE01.JPG,AFNE01.JPG,AFNE01.JPG,AFNE01.JPG,AFNE01.JPG,AFNE01.JPG,,,,,4,0,40,9,,,,,,,,,,,,,,,,,,,AFSA10.jpg,AFNE09.jpg,AFNE13.jpg,AFSA17.jpg,AFNE09.jpg,FN,3,num_6,32,num_4,1.16672953148,,,2017_Jul_13_1146,60.0094697481,MAFE4ImagesEEG,001,100916,
AFNE01.JPG,AFNE01.JPG,AFNE01.JPG,AFNE01.JPG,AFNE01.JPG,AFNE01.JPG,,,,,4,1,41,4,,,,,,,,,,,,,,,,,,,AFNE14.jpg,AFNE09.jpg,AFSA15.jpg,AFSA09.jpg,AFSA09.jpg,FS,4,num_4,16,num_4,0.950095869135,,,2017_Jul_13_1146,60.0094697481,MAFE4ImagesEEG,001,100916,
AFNE01.JPG,AFNE01.JPG,AFNE01.JPG,AFNE01.JPG,AFNE01.JPG,AFNE01.JPG,,,,,4,2,42,3,,,,,,,,,,,,,,,,,,,AFNE10.jpg,AFSA04.jpg,AFNE01.jpg,AFSA06.jpg,AFSA06.jpg,FS,4,num_4,32,num_2,1.04999040999,,,2017_Jul_13_1146,60.0094697481,MAFE4ImagesEEG,001,100916,
AFNE01.JPG,AFNE01.JPG,AFNE01.JPG,AFNE01.JPG,AFNE01.JPG,AFNE01.JPG,,,,,4,3,43,8,,,,,,,,,,,,,,,,,,,AFNE05.jpg,AFSA11.jpg,AFNE15.jpg,AFSA01.jpg,AFNE05.jpg,FN,3,num_8,16,num_8,1.06660790718,,,2017_Jul_13_1146,60.0094697481,MAFE4ImagesEEG,001,100916,
AFNE01.JPG,AFNE01.JPG,AFNE01.JPG,AFNE01.JPG,AFNE01.JPG,AFNE01.JPG,,,,,4,4,44,6,,,,,,,,,,,,,,,,,,,AFNE14.jpg,AFSA12.jpg,AFSA11.jpg,AFNE12.jpg,AFNE14.jpg,FN,3,num_8,32,num_6,1.08328217547,,,2017_Jul_13_1146,60.0094697481,MAFE4ImagesEEG,001,100916,
AFNE01.JPG,AFNE01.JPG,AFNE01.JPG,AFNE01.JPG,AFNE01.JPG,AFNE01.JPG,,,,,4,5,45,7,,,,,,,,,,,,,,,,,,,AFNE13.jpg,AFNE01.jpg,AFSA10.jpg,AFSA18.jpg,AFSA18.jpg,FS,4,num_4,16,num_4,0.917175198672,,,2017_Jul_13_1146,60.0094697481,MAFE4ImagesEEG,001,100916,
AFNE01.JPG,AFNE01.JPG,AFNE01.JPG,AFNE01.JPG,AFNE01.JPG,AFNE01.JPG,,,,,4,6,46,1,,,,,,,,,,,,,,,,,,,AFSA18.jpg,AFSA01.jpg,AFNE19.jpg,AFNE17.jpg,AFNE17.jpg,FN,3,num_4,16,num_4,0.766819402575,,,2017_Jul_13_1146,60.0094697481,MAFE4ImagesEEG,001,100916,
AFNE01.JPG,AFNE01.JPG,AFNE01.JPG,AFNE01.JPG,AFNE01.JPG,AFNE01.JPG,,,,,4,7,47,0,,,,,,,,,,,,,,,,,,,AFNE18.jpg,AFNE13.jpg,AFSA03.jpg,AFSA11.jpg,AFSA03.jpg,FS,4,num_2,32,num_4,1.05028260336,,,2017_Jul_13_1146,60.0094697481,MAFE4ImagesEEG,001,100916,
AFNE01.JPG,AFNE01.JPG,AFNE01.JPG,AFNE01.JPG,AFNE01.JPG,AFNE01.JPG,,,,,4,8,48,2,,,,,,,,,,,,,,,,,,,AFNE08.jpg,AFSA10.jpg,AFSA07.jpg,AFNE14.jpg,AFNE08.jpg,FN,3,num_8,16,num_8,1.08482589317,,,2017_Jul_13_1146,60.0094697481,MAFE4ImagesEEG,001,100916,
AFNE01.JPG,AFNE01.JPG,AFNE01.JPG,AFNE01.JPG,AFNE01.JPG,AFNE01.JPG,,,,,4,9,49,5,,,,,,,,,,,,,,,,,,,AFSA10.jpg,AFNE04.jpg,AFNE07.jpg,AFSA04.jpg,AFSA10.jpg,FS,4,num_8,32,num_6,1.15013801423,,,2017_Jul_13_1146,60.0094697481,MAFE4ImagesEEG,001,100916,
AFNE01.JPG,AFNE01.JPG,AFNE01.JPG,AFNE01.JPG,AFNE01.JPG,AFNE01.JPG,,,,,5,0,50,2,,,,,,,,,,,,,,,,,,,AFSA13.jpg,AFNE20.jpg,AFNE01.jpg,AFSA08.jpg,AFNE01.jpg,FN,3,num_2,32,num_4,1.08327864716,,,2017_Jul_13_1146,60.0094697481,MAFE4ImagesEEG,001,100916,
AFNE01.JPG,AFNE01.JPG,AFNE01.JPG,AFNE01.JPG,AFNE01.JPG,AFNE01.JPG,,,,,5,1,51,6,,,,,,,,,,,,,,,,,,,AFNE04.jpg,AFSA15.jpg,AFNE16.jpg,AFSA06.jpg,AFSA06.jpg,FS,4,num_4,32,num_6,0.733460602816,,,2017_Jul_13_1146,60.0094697481,MAFE4ImagesEEG,001,100916,
AFNE01.JPG,AFNE01.JPG,AFNE01.JPG,AFNE01.JPG,AFNE01.JPG,AFNE01.JPG,,,,,5,2,52,8,,,,,,,,,,,,,,,,,,,AFSA16.jpg,AFNE14.jpg,AFSA08.jpg,AFNE03.jpg,AFNE03.jpg,FN,3,num_4,16,num_4,0.683461532695,,,2017_Jul_13_1146,60.0094697481,MAFE4ImagesEEG,001,100916,
AFNE01.JPG,AFNE01.JPG,AFNE01.JPG,AFNE01.JPG,AFNE01.JPG,AFNE01.JPG,,,,,5,3,53,5,,,,,,,,,,,,,,,,,,,AFSA09.jpg,AFNE05.jpg,AFSA03.jpg,AFNE20.jpg,AFNE05.jpg,FN,3,num_6,16,num_6,0.533443795983,,,2017_Jul_13_1146,60.0094697481,MAFE4ImagesEEG,001,100916,
AFNE01.JPG,AFNE01.JPG,AFNE01.JPG,AFNE01.JPG,AFNE01.JPG,AFNE01.JPG,,,,,5,4,54,3,,,,,,,,,,,,,,,,,,,AFNE02.jpg,AFNE15.jpg,AFSA13.jpg,AFSA11.jpg,AFSA11.jpg,FS,4,num_4,16,num_4,0.950123452581,,,2017_Jul_13_1146,60.0094697481,MAFE4ImagesEEG,001,100916,
AFNE01.JPG,AFNE01.JPG,AFNE01.JPG,AFNE01.JPG,AFNE01.JPG,AFNE01.JPG,,,,,5,5,55,1,,,,,,,,,,,,,,,,,,,AFNE15.jpg,AFSA09.jpg,AFSA01.jpg,AFNE05.jpg,AFNE05.jpg,FN,3,num_4,16,num_4,0.700115273707,,,2017_Jul_13_1146,60.0094697481,MAFE4ImagesEEG,001,100916,
AFNE01.JPG,AFNE01.JPG,AFNE01.JPG,AFNE01.JPG,AFNE01.JPG,AFNE01.JPG,,,,,5,6,56,0,,,,,,,,,,,,,,,,,,,AFNE01.jpg,AFSA13.jpg,AFSA07.jpg,AFNE20.jpg,AFNE20.jpg,FN,3,num_4,16,num_4,0.816768116318,,,2017_Jul_13_1146,60.0094697481,MAFE4ImagesEEG,001,100916,
AFNE01.JPG,AFNE01.JPG,AFNE01.JPG,AFNE01.JPG,AFNE01.JPG,AFNE01.JPG,,,,,5,7,57,9,,,,,,,,,,,,,,,,,,,AFSA11.jpg,AFNE02.jpg,AFSA01.jpg,AFNE11.jpg,AFNE02.jpg,FN,3,num_6,16,num_6,0.683473400306,,,2017_Jul_13_1146,60.0094697481,MAFE4ImagesEEG,001,100916,
AFNE01.JPG,AFNE01.JPG,AFNE01.JPG,AFNE01.JPG,AFNE01.JPG,AFNE01.JPG,,,,,5,8,58,4,,,,,,,,,,,,,,,,,,,AFNE09.jpg,AFSA04.jpg,AFNE12.jpg,AFSA02.jpg,AFNE09.jpg,FN,3,num_8,16,num_8,0.833474458661,,,2017_Jul_13_1146,60.0094697481,MAFE4ImagesEEG,001,100916,
AFNE01.JPG,AFNE01.JPG,AFNE01.JPG,AFNE01.JPG,AFNE01.JPG,AFNE01.JPG,,,,,5,9,59,7,,,,,,,,,,,,,,,,,,,AFSA14.jpg,AFNE16.jpg,AFNE19.jpg,AFSA06.jpg,AFSA14.jpg,FS,4,num_8,32,num_6,1.08340181131,,,2017_Jul_13_1146,60.0094697481,MAFE4ImagesEEG,001,100916,
,,,,,,,,,,,,,,,,,,,,,,,,,,,,,,,,,,,,,,,,,,,space,3.48322117096,2017_Jul_13_1146,60.0094697481,MAFE4ImagesEEG,001,100916,
AFNE01.JPG,AFNE01.JPG,AFNE01.JPG,AFNE01.JPG,AFNE01.JPG,AFNE01.JPG,,,,,,,,,0,0,0,8,,,,,,,,,,,,,,,AMNE18.jpg,AMNE06.jpg,AMSA07.jpg,AMSA09.jpg,AMNE06.jpg,MN,1,num_6,32,num_4,0.833330446854,,,2017_Jul_13_1146,60.0094697481,MAFE4ImagesEEG,001,100916,
AFNE01.JPG,AFNE01.JPG,AFNE01.JPG,AFNE01.JPG,AFNE01.JPG,AFNE01.JPG,,,,,,,,,0,1,1,4,,,,,,,,,,,,,,,AMNE16.jpg,AMSA06.jpg,AMNE15.jpg,AMSA18.jpg,AMNE16.jpg,MN,1,num_8,16,num_8,0.750103117665,,,2017_Jul_13_1146,60.0094697481,MAFE4ImagesEEG,001,100916,
AFNE01.JPG,AFNE01.JPG,AFNE01.JPG,AFNE01.JPG,AFNE01.JPG,AFNE01.JPG,,,,,,,,,0,2,2,3,,,,,,,,,,,,,,,AMSA09.jpg,AMNE11.jpg,AMNE18.jpg,AMSA05.jpg,AMSA09.jpg,MS,2,num_8,16,num_8,0.850098049967,,,2017_Jul_13_1146,60.0094697481,MAFE4ImagesEEG,001,100916,
AFNE01.JPG,AFNE01.JPG,AFNE01.JPG,AFNE01.JPG,AFNE01.JPG,AFNE01.JPG,,,,,,,,,0,3,3,6,,,,,,,,,,,,,,,AMSA20.jpg,AMNE05.jpg,AMSA14.jpg,AMNE14.jpg,AMNE05.jpg,MN,1,num_6,16,num_6,0.983413293492,,,2017_Jul_13_1146,60.0094697481,MAFE4ImagesEEG,001,100916,
AFNE01.JPG,AFNE01.JPG,AFNE01.JPG,AFNE01.JPG,AFNE01.JPG,AFNE01.JPG,,,,,,,,,0,4,4,9,,,,,,,,,,,,,,,AMNE16.jpg,AMSA17.jpg,AMNE01.jpg,AMSA13.jpg,AMNE16.jpg,MN,1,num_8,32,num_4,0.783535687486,,,2017_Jul_13_1146,60.0094697481,MAFE4ImagesEEG,001,100916,
AFNE01.JPG,AFNE01.JPG,AFNE01.JPG,AFNE01.JPG,AFNE01.JPG,AFNE01.JPG,,,,,,,,,0,5,5,0,,,,,,,,,,,,,,,AMSA12.jpg,AMNE14.jpg,AMSA17.jpg,AMNE02.jpg,AMSA17.jpg,MS,2,num_2,16,num_2,3.18324439228,,,2017_Jul_13_1146,60.0094697481,MAFE4ImagesEEG,001,100916,
AFNE01.JPG,AFNE01.JPG,AFNE01.JPG,AFNE01.JPG,AFNE01.JPG,AFNE01.JPG,,,,,,,,,0,6,6,2,,,,,,,,,,,,,,,AMSA14.jpg,AMNE16.jpg,AMSA16.jpg,AMNE05.jpg,AMSA16.jpg,MS,2,num_2,16,num_2,1.68336146208,,,2017_Jul_13_1146,60.0094697481,MAFE4ImagesEEG,001,100916,
AFNE01.JPG,AFNE01.JPG,AFNE01.JPG,AFNE01.JPG,AFNE01.JPG,AFNE01.JPG,,,,,,,,,0,7,7,7,,,,,,,,,,,,,,,AMNE14.jpg,AMNE04.jpg,AMSA11.jpg,AMSA16.jpg,AMNE14.jpg,MN,1,num_8,16,num_8,0.716770297382,,,2017_Jul_13_1146,60.0094697481,MAFE4ImagesEEG,001,100916,
AFNE01.JPG,AFNE01.JPG,AFNE01.JPG,AFNE01.JPG,AFNE01.JPG,AFNE01.JPG,,,,,,,,,0,8,8,5,,,,,,,,,,,,,,,AMNE09.jpg,AMSA04.jpg,AMNE20.jpg,AMSA16.jpg,AMNE20.jpg,MN,1,num_2,32,num_6,1.23343173601,,,2017_Jul_13_1146,60.0094697481,MAFE4ImagesEEG,001,100916,
AFNE01.JPG,AFNE01.JPG,AFNE01.JPG,AFNE01.JPG,AFNE01.JPG,AFNE01.JPG,,,,,,,,,0,9,9,1,,,,,,,,,,,,,,,AMSA14.jpg,AMNE06.jpg,AMNE07.jpg,AMSA05.jpg,AMNE07.jpg,MN,1,num_2,32,num_6,0.950137565145,,,2017_Jul_13_1146,60.0094697481,MAFE4ImagesEEG,001,100916,
AFNE01.JPG,AFNE01.JPG,AFNE01.JPG,AFNE01.JPG,AFNE01.JPG,AFNE01.JPG,,,,,,,,,1,0,10,0,,,,,,,,,,,,,,,AMNE08.jpg,AMSA06.jpg,AMSA18.jpg,AMNE19.jpg,AMNE19.jpg,MN,1,num_4,16,num_4,0.716758109396,,,2017_Jul_13_1146,60.0094697481,MAFE4ImagesEEG,001,100916,
AFNE01.JPG,AFNE01.JPG,AFNE01.JPG,AFNE01.JPG,AFNE01.JPG,AFNE01.JPG,,,,,,,,,1,1,11,9,,,,,,,,,,,,,,,AMNE01.jpg,AMSA06.jpg,AMSA17.jpg,AMNE09.jpg,AMSA06.jpg,MS,2,num_6,16,num_6,0.850156745175,,,2017_Jul_13_1146,60.0094697481,MAFE4ImagesEEG,001,100916,
AFNE01.JPG,AFNE01.JPG,AFNE01.JPG,AFNE01.JPG,AFNE01.JPG,AFNE01.JPG,,,,,,,,,1,2,12,2,,,,,,,,,,,,,,,AMNE18.jpg,AMSA12.jpg,AMNE19.jpg,AMSA06.jpg,AMSA12.jpg,MS,2,num_6,16,num_6,0.866453824099,,,2017_Jul_13_1146,60.0094697481,MAFE4ImagesEEG,001,100916,
AFNE01.JPG,AFNE01.JPG,AFNE01.JPG,AFNE01.JPG,AFNE01.JPG,AFNE01.JPG,,,,,,,,,1,3,13,1,,,,,,,,,,,,,,,AMNE18.jpg,AMSA15.jpg,AMNE15.jpg,AMSA20.jpg,AMNE18.jpg,MN,1,num_8,16,num_8,0.833324031904,,,2017_Jul_13_1146,60.0094697481,MAFE4ImagesEEG,001,100916,
AFNE01.JPG,AFNE01.JPG,AFNE01.JPG,AFNE01.JPG,AFNE01.JPG,AFNE01.JPG,,,,,,,,,1,4,14,3,,,,,,,,,,,,,,,AMNE15.jpg,AMSA08.jpg,AMNE14.jpg,AMSA19.jpg,AMNE14.jpg,MN,1,num_2,32,num_6,0.600121303694,,,2017_Jul_13_1146,60.0094697481,MAFE4ImagesEEG,001,100916,
AFNE01.JPG,AFNE01.JPG,AFNE01.JPG,AFNE01.JPG,AFNE01.JPG,AFNE01.JPG,,,,,,,,,1,5,15,5,,,,,,,,,,,,,,,AMNE11.jpg,AMNE01.jpg,AMSA11.jpg,AMSA06.jpg,AMSA06.jpg,MS,2,num_4,32,num_6,0.916791915428,,,2017_Jul_13_1146,60.0094697481,MAFE4ImagesEEG,001,100916,
AFNE01.JPG,AFNE01.JPG,AFNE01.JPG,AFNE01.JPG,AFNE01.JPG,AFNE01.JPG,,,,,,,,,1,6,16,6,,,,,,,,,,,,,,,AMSA10.jpg,AMNE02.jpg,AMSA18.jpg,AMNE14.jpg,AMSA18.jpg,MS,2,num_2,16,num_2,1.78343561711,,,2017_Jul_13_1146,60.0094697481,MAFE4ImagesEEG,001,100916,
AFNE01.JPG,AFNE01.JPG,AFNE01.JPG,AFNE01.JPG,AFNE01.JPG,AFNE01.JPG,,,,,,,,,1,7,17,7,,,,,,,,,,,,,,,AMSA14.jpg,AMSA13.jpg,AMNE11.jpg,AMNE12.jpg,AMSA13.jpg,MS,2,num_6,16,num_6,1.61669614259,,,2017_Jul_13_1146,60.0094697481,MAFE4ImagesEEG,001,100916,
AFNE01.JPG,AFNE01.JPG,AFNE01.JPG,AFNE01.JPG,AFNE01.JPG,AFNE01.JPG,,,,,,,,,1,8,18,8,,,,,,,,,,,,,,,AMSA07.jpg,AMSA06.jpg,AMNE13.jpg,AMNE12.jpg,AMSA06.jpg,MS,2,num_6,32,num_4,0.916739955777,,,2017_Jul_13_1146,60.0094697481,MAFE4ImagesEEG,001,100916,
AFNE01.JPG,AFNE01.JPG,AFNE01.JPG,AFNE01.JPG,AFNE01.JPG,AFNE01.JPG,,,,,,,,,1,9,19,4,,,,,,,,,,,,,,,AMNE14.jpg,AMSA07.jpg,AMSA18.jpg,AMNE12.jpg,AMSA18.jpg,MS,2,num_2,32,num_8,0.766817799071,,,2017_Jul_13_1146,60.0094697481,MAFE4ImagesEEG,001,100916,
AFNE01.JPG,AFNE01.JPG,AFNE01.JPG,AFNE01.JPG,AFNE01.JPG,AFNE01.JPG,,,,,,,,,2,0,20,0,,,,,,,,,,,,,,,AMNE17.jpg,AMNE20.jpg,AMSA14.jpg,AMSA17.jpg,AMSA14.jpg,MS,2,num_2,16,num_2,1.20004631463,,,2017_Jul_13_1146,60.0094697481,MAFE4ImagesEEG,001,100916,
AFNE01.JPG,AFNE01.JPG,AFNE01.JPG,AFNE01.JPG,AFNE01.JPG,AFNE01.JPG,,,,,,,,,2,1,21,8,,,,,,,,,,,,,,,AMSA19.jpg,AMSA06.jpg,AMNE14.jpg,AMNE12.jpg,AMNE14.jpg,MN,1,num_2,32,num_4,1.55006065196,,,2017_Jul_13_1146,60.0094697481,MAFE4ImagesEEG,001,100916,
AFNE01.JPG,AFNE01.JPG,AFNE01.JPG,AFNE01.JPG,AFNE01.JPG,AFNE01.JPG,,,,,,,,,2,2,22,6,,,,,,,,,,,,,,,AMNE19.jpg,AMSA03.jpg,AMSA10.jpg,AMNE04.jpg,AMSA10.jpg,MS,2,num_2,16,num_2,1.5666970727,,,2017_Jul_13_1146,60.0094697481,MAFE4ImagesEEG,001,100916,
AFNE01.JPG,AFNE01.JPG,AFNE01.JPG,AFNE01.JPG,AFNE01.JPG,AFNE01.JPG,,,,,,,,,2,3,23,4,,,,,,,,,,,,,,,AMNE10.jpg,AMSA08.jpg,AMNE18.jpg,AMSA11.jpg,AMNE10.jpg,MN,1,num_8,16,num_8,1.6167365557,,,2017_Jul_13_1146,60.0094697481,MAFE4ImagesEEG,001,100916,
AFNE01.JPG,AFNE01.JPG,AFNE01.JPG,AFNE01.JPG,AFNE01.JPG,AFNE01.JPG,,,,,,,,,2,4,24,9,,,,,,,,,,,,,,,AMNE15.jpg,AMSA14.jpg,AMNE01.jpg,AMSA20.jpg,AMNE01.jpg,MN,1,num_2,16,num_2,1.26675910386,,,2017_Jul_13_1146,60.0094697481,MAFE4ImagesEEG,001,100916,
AFNE01.JPG,AFNE01.JPG,AFNE01.JPG,AFNE01.JPG,AFNE01.JPG,AFNE01.JPG,,,,,,,,,2,5,25,2,,,,,,,,,,,,,,,AMNE20.jpg,AMNE06.jpg,AMSA19.jpg,AMSA16.jpg,AMSA16.jpg,MS,2,num_4,16,num_4,0.633525648387,,,2017_Jul_13_1146,60.0094697481,MAFE4ImagesEEG,001,100916,
AFNE01.JPG,AFNE01.JPG,AFNE01.JPG,AFNE01.JPG,AFNE01.JPG,AFNE01.JPG,,,,,,,,,2,6,26,7,,,,,,,,,,,,,,,AMSA04.jpg,AMNE17.jpg,AMNE04.jpg,AMSA02.jpg,AMSA04.jpg,MS,2,num_8,16,num_8,0.583483278751,,,2017_Jul_13_1146,60.0094697481,MAFE4ImagesEEG,001,100916,
AFNE01.JPG,AFNE01.JPG,AFNE01.JPG,AFNE01.JPG,AFNE01.JPG,AFNE01.JPG,,,,,,,,,2,7,27,1,,,,,,,,,,,,,,,AMSA18.jpg,AMNE03.jpg,AMNE14.jpg,AMSA05.jpg,AMSA05.jpg,MS,2,num_4,16,num_4,0.766787328757,,,2017_Jul_13_1146,60.0094697481,MAFE4ImagesEEG,001,100916,
AFNE01.JPG,AFNE01.JPG,AFNE01.JPG,AFNE01.JPG,AFNE01.JPG,AFNE01.JPG,,,,,,,,,2,8,28,3,,,,,,,,,,,,,,,AMSA18.jpg,AMSA14.jpg,AMNE01.jpg,AMNE12.jpg,AMNE01.jpg,MN,1,num_2,16,num_2,2.40000763349,,,2017_Jul_13_1146,60.0094697481,MAFE4ImagesEEG,001,100916,
AFNE01.JPG,AFNE01.JPG,AFNE01.JPG,AFNE01.JPG,AFNE01.JPG,AFNE01.JPG,,,,,,,,,2,9,29,5,,,,,,,,,,,,,,,AMSA18.jpg,AMSA10.jpg,AMNE01.jpg,AMNE13.jpg,AMSA10.jpg,MS,2,num_6,16,num_6,0.916766576935,,,2017_Jul_13_1146,60.0094697481,MAFE4ImagesEEG,001,100916,
AFNE01.JPG,AFNE01.JPG,AFNE01.JPG,AFNE01.JPG,AFNE01.JPG,AFNE01.JPG,,,,,,,,,3,0,30,9,,,,,,,,,,,,,,,AMSA03.jpg,AMNE03.jpg,AMSA11.jpg,AMNE09.jpg,AMSA11.jpg,MS,2,num_2,16,num_2,1.70001584431,,,2017_Jul_13_1146,60.0094697481,MAFE4ImagesEEG,001,100916,
AFNE01.JPG,AFNE01.JPG,AFNE01.JPG,AFNE01.JPG,AFNE01.JPG,AFNE01.JPG,,,,,,,,,3,1,31,6,,,,,,,,,,,,,,,AMSA07.jpg,AMNE01.jpg,AMNE07.jpg,AMSA08.jpg,AMNE01.jpg,MN,1,num_6,32,num_4,0.899708063342,,,2017_Jul_13_1146,60.0094697481,MAFE4ImagesEEG,001,100916,
AFNE01.JPG,AFNE01.JPG,AFNE01.JPG,AFNE01.JPG,AFNE01.JPG,AFNE01.JPG,,,,,,,,,3,2,32,0,,,,,,,,,,,,,,,AMNE13.jpg,AMNE04.jpg,AMSA10.jpg,AMSA12.jpg,AMSA12.jpg,MS,2,num_4,16,num_4,0.483486742945,,,2017_Jul_13_1146,60.0094697481,MAFE4ImagesEEG,001,100916,
AFNE01.JPG,AFNE01.JPG,AFNE01.JPG,AFNE01.JPG,AFNE01.JPG,AFNE01.JPG,,,,,,,,,3,3,33,7,,,,,,,,,,,,,,,AMNE15.jpg,AMSA07.jpg,AMNE16.jpg,AMSA18.jpg,AMSA18.jpg,MS,2,num_4,16,num_4,1.13344033179,,,2017_Jul_13_1146,60.0094697481,MAFE4ImagesEEG,001,100916,
AFNE01.JPG,AFNE01.JPG,AFNE01.JPG,AFNE01.JPG,AFNE01.JPG,AFNE01.JPG,,,,,,,,,3,4,34,5,,,,,,,,,,,,,,,AMSA09.jpg,AMNE08.jpg,AMNE18.jpg,AMSA05.jpg,AMNE08.jpg,MN,1,num_6,32,num_2,1.4000833279,,,2017_Jul_13_1146,60.0094697481,MAFE4ImagesEEG,001,100916,
AFNE01.JPG,AFNE01.JPG,AFNE01.JPG,AFNE01.JPG,AFNE01.JPG,AFNE01.JPG,,,,,,,,,3,5,35,8,,,,,,,,,,,,,,,AMNE11.jpg,AMSA09.jpg,AMNE09.jpg,AMSA06.jpg,AMSA06.jpg,MS,2,num_4,16,num_4,0.733292535413,,,2017_Jul_13_1146,60.0094697481,MAFE4ImagesEEG,001,100916,
AFNE01.JPG,AFNE01.JPG,AFNE01.JPG,AFNE01.JPG,AFNE01.JPG,AFNE01.JPG,,,,,,,,,3,6,36,2,,,,,,,,,,,,,,,AMSA01.jpg,AMSA18.jpg,AMNE19.jpg,AMNE10.jpg,AMNE10.jpg,MN,1,num_4,32,num_2,1.6500927899,,,2017_Jul_13_1146,60.0094697481,MAFE4ImagesEEG,001,100916,
AFNE01.JPG,AFNE01.JPG,AFNE01.JPG,AFNE01.JPG,AFNE01.JPG,AFNE01.JPG,,,,,,,,,3,7,37,3,,,,,,,,,,,,,,,AMNE01.jpg,AMSA15.jpg,AMNE05.jpg,AMSA11.jpg,AMSA11.jpg,MS,2,num_4,16,num_4,0.466806701384,,,2017_Jul_13_1146,60.0094697481,MAFE4ImagesEEG,001,100916,
AFNE01.JPG,AFNE01.JPG,AFNE01.JPG,AFNE01.JPG,AFNE01.JPG,AFNE01.JPG,,,,,,,,,3,8,38,4,,,,,,,,,,,,,,,AMSA07.jpg,AMSA18.jpg,AMNE17.jpg,AMNE20.jpg,AMSA18.jpg,MS,2,num_6,16,num_6,1.13343584142,,,2017_Jul_13_1146,60.0094697481,MAFE4ImagesEEG,001,100916,
AFNE01.JPG,AFNE01.JPG,AFNE01.JPG,AFNE01.JPG,AFNE01.JPG,AFNE01.JPG,,,,,,,,,3,9,39,1,,,,,,,,,,,,,,,AMSA19.jpg,AMSA09.jpg,AMNE06.jpg,AMNE20.jpg,AMNE06.jpg,MN,1,num_2,16,num_2,0.850130765233,,,2017_Jul_13_1146,60.0094697481,MAFE4ImagesEEG,001,100916,
AFNE01.JPG,AFNE01.JPG,AFNE01.JPG,AFNE01.JPG,AFNE01.JPG,AFNE01.JPG,,,,,,,,,4,0,40,4,,,,,,,,,,,,,,,AMNE20.jpg,AMSA18.jpg,AMNE01.jpg,AMSA14.jpg,AMNE20.jpg,MN,1,num_8,16,num_8,1.38340136199,,,2017_Jul_13_1146,60.0094697481,MAFE4ImagesEEG,001,100916,
AFNE01.JPG,AFNE01.JPG,AFNE01.JPG,AFNE01.JPG,AFNE01.JPG,AFNE01.JPG,,,,,,,,,4,1,41,1,,,,,,,,,,,,,,,AMNE20.jpg,AMNE07.jpg,AMSA11.jpg,AMSA01.jpg,AMSA01.jpg,MS,2,num_4,16,num_4,0.566808369244,,,2017_Jul_13_1146,60.0094697481,MAFE4ImagesEEG,001,100916,
AFNE01.JPG,AFNE01.JPG,AFNE01.JPG,AFNE01.JPG,AFNE01.JPG,AFNE01.JPG,,,,,,,,,4,2,42,3,,,,,,,,,,,,,,,AMSA14.jpg,AMSA07.jpg,AMNE11.jpg,AMNE12.jpg,AMNE12.jpg,MN,1,num_4,16,num_4,0.666787906084,,,2017_Jul_13_1146,60.0094697481,MAFE4ImagesEEG,001,100916,
AFNE01.JPG,AFNE01.JPG,AFNE01.JPG,AFNE01.JPG,AFNE01.JPG,AFNE01.JPG,,,,,,,,,4,3,43,9,,,,,,,,,,,,,,,AMNE19.jpg,AMSA18.jpg,AMSA13.jpg,AMNE09.jpg,AMSA18.jpg,MS,2,num_6,16,num_6,0.683430100325,,,2017_Jul_13_1146,60.0094697481,MAFE4ImagesEEG,001,100916,
AFNE01.JPG,AFNE01.JPG,AFNE01.JPG,AFNE01.JPG,AFNE01.JPG,AFNE01.JPG,,,,,,,,,4,4,44,7,,,,,,,,,,,,,,,AMSA10.jpg,AMSA05.jpg,AMNE09.jpg,AMNE03.jpg,AMNE09.jpg,MN,1,num_2,32,num_8,0.700128423981,,,2017_Jul_13_1146,60.0094697481,MAFE4ImagesEEG,001,100916,
AFNE01.JPG,AFNE01.JPG,AFNE01.JPG,AFNE01.JPG,AFNE01.JPG,AFNE01.JPG,,,,,,,,,4,5,45,5,,,,,,,,,,,,,,,AMNE17.jpg,AMNE01.jpg,AMSA09.jpg,AMSA05.jpg,AMSA05.jpg,MS,2,num_4,16,num_4,0.600135416025,,,2017_Jul_13_1146,60.0094697481,MAFE4ImagesEEG,001,100916,
AFNE01.JPG,AFNE01.JPG,AFNE01.JPG,AFNE01.JPG,AFNE01.JPG,AFNE01.JPG,,,,,,,,,4,6,46,0,,,,,,,,,,,,,,,AMNE15.jpg,AMNE06.jpg,AMSA03.jpg,AMSA05.jpg,AMNE15.jpg,MN,1,num_8,16,num_8,0.616823476041,,,2017_Jul_13_1146,60.0094697481,MAFE4ImagesEEG,001,100916,
AFNE01.JPG,AFNE01.JPG,AFNE01.JPG,AFNE01.JPG,AFNE01.JPG,AFNE01.JPG,,,,,,,,,4,7,47,2,,,,,,,,,,,,,,,AMSA10.jpg,AMNE03.jpg,AMNE09.jpg,AMSA20.jpg,AMNE09.jpg,MN,1,num_2,32,num_6,0.816809812561,,,2017_Jul_13_1146,60.0094697481,MAFE4ImagesEEG,001,100916,
AFNE01.JPG,AFNE01.JPG,AFNE01.JPG,AFNE01.JPG,AFNE01.JPG,AFNE01.JPG,,,,,,,,,4,8,48,6,,,,,,,,,,,,,,,AMNE13.jpg,AMSA17.jpg,AMSA03.jpg,AMNE01.jpg,AMSA17.jpg,MS,2,num_6,16,num_6,0.616792364279,,,2017_Jul_13_1146,60.0094697481,MAFE4ImagesEEG,001,100916,
AFNE01.JPG,AFNE01.JPG,AFNE01.JPG,AFNE01.JPG,AFNE01.JPG,AFNE01.JPG,,,,,,,,,4,9,49,8,,,,,,,,,,,,,,,AMNE02.jpg,AMNE01.jpg,AMSA20.jpg,AMSA15.jpg,AMSA15.jpg,MS,2,num_4,16,num_4,0.616831173887,,,2017_Jul_13_1146,60.0094697481,MAFE4ImagesEEG,001,100916,
AFNE01.JPG,AFNE01.JPG,AFNE01.JPG,AFNE01.JPG,AFNE01.JPG,AFNE01.JPG,,,,,,,,,5,0,50,1,,,,,,,,,,,,,,,AMSA12.jpg,AMNE04.jpg,AMSA08.jpg,AMNE12.jpg,AMSA08.jpg,MS,2,num_2,16,num_2,1.88335036463,,,2017_Jul_13_1146,60.0094697481,MAFE4ImagesEEG,001,100916,
AFNE01.JPG,AFNE01.JPG,AFNE01.JPG,AFNE01.JPG,AFNE01.JPG,AFNE01.JPG,,,,,,,,,5,1,51,5,,,,,,,,,,,,,,,AMSA03.jpg,AMNE05.jpg,AMSA10.jpg,AMNE14.jpg,AMNE14.jpg,MN,1,num_4,16,num_4,0.466814719839,,,2017_Jul_13_1146,60.0094697481,MAFE4ImagesEEG,001,100916,
AFNE01.JPG,AFNE01.JPG,AFNE01.JPG,AFNE01.JPG,AFNE01.JPG,AFNE01.JPG,,,,,,,,,5,2,52,6,,,,,,,,,,,,,,,AMSA08.jpg,AMNE01.jpg,AMSA19.jpg,AMNE05.jpg,AMNE01.jpg,MN,1,num_6,32,num_4,0.950131150195,,,2017_Jul_13_1146,60.0094697481,MAFE4ImagesEEG,001,100916,
AFNE01.JPG,AFNE01.JPG,AFNE01.JPG,AFNE01.JPG,AFNE01.JPG,AFNE01.JPG,,,,,,,,,5,3,53,0,,,,,,,,,,,,,,,AMSA19.jpg,AMNE02.jpg,AMSA10.jpg,AMNE20.jpg,AMNE20.jpg,MN,1,num_4,16,num_4,0.866279983427,,,2017_Jul_13_1146,60.0094697481,MAFE4ImagesEEG,001,100916,
AFNE01.JPG,AFNE01.JPG,AFNE01.JPG,AFNE01.JPG,AFNE01.JPG,AFNE01.JPG,,,,,,,,,5,4,54,8,,,,,,,,,,,,,,,AMNE16.jpg,AMSA11.jpg,AMSA08.jpg,AMNE07.jpg,AMNE16.jpg,MN,1,num_8,16,num_8,0.700104368385,,,2017_Jul_13_1146,60.0094697481,MAFE4ImagesEEG,001,100916,
AFNE01.JPG,AFNE01.JPG,AFNE01.JPG,AFNE01.JPG,AFNE01.JPG,AFNE01.JPG,,,,,,,,,5,5,55,4,,,,,,,,,,,,,,,AMNE08.jpg,AMNE17.jpg,AMSA10.jpg,AMSA03.jpg,AMSA10.jpg,MS,2,num_2,16,num_2,1.15011909045,,,2017_Jul_13_1146,60.0094697481,MAFE4ImagesEEG,001,100916,
AFNE01.JPG,AFNE01.JPG,AFNE01.JPG,AFNE01.JPG,AFNE01.JPG,AFNE01.JPG,,,,,,,,,5,6,56,7,,,,,,,,,,,,,,,AMNE07.jpg,AMNE17.jpg,AMSA11.jpg,AMSA20.jpg,AMSA11.jpg,MS,2,num_2,16,num_2,3.26621833746,,,2017_Jul_13_1146,60.0094697481,MAFE4ImagesEEG,001,100916,
AFNE01.JPG,AFNE01.JPG,AFNE01.JPG,AFNE01.JPG,AFNE01.JPG,AFNE01.JPG,,,,,,,,,5,7,57,2,,,,,,,,,,,,,,,AMSA15.jpg,AMNE19.jpg,AMNE07.jpg,AMSA13.jpg,AMNE19.jpg,MN,1,num_6,16,num_6,0.600003592204,,,2017_Jul_13_1146,60.0094697481,MAFE4ImagesEEG,001,100916,
AFNE01.JPG,AFNE01.JPG,AFNE01.JPG,AFNE01.JPG,AFNE01.JPG,AFNE01.JPG,,,,,,,,,5,8,58,9,,,,,,,,,,,,,,,AMNE06.jpg,AMSA04.jpg,AMNE07.jpg,AMSA09.jpg,AMNE07.jpg,MN,1,num_2,32,num_4,0.650118128397,,,2017_Jul_13_1146,60.0094697481,MAFE4ImagesEEG,001,100916,
AFNE01.JPG,AFNE01.JPG,AFNE01.JPG,AFNE01.JPG,AFNE01.JPG,AFNE01.JPG,,,,,,,,,5,9,59,3,,,,,,,,,,,,,,,AMSA10.jpg,AMSA08.jpg,AMNE01.jpg,AMNE10.jpg,AMNE01.jpg,MN,1,num_2,16,num_2,1.46670759306,,,2017_Jul_13_1146,60.0094697481,MAFE4ImagesEEG,001,100916,
,,,,,,,,,,,,,,,,,,,,,,,,,,,,,,,,,,,,,,,,,,,space,1.88341643685,2017_Jul_13_1146,60.0094697481,MAFE4ImagesEEG,001,100916,
AFNE01.JPG,AFNE01.JPG,AFNE01.JPG,AFNE01.JPG,AFNE01.JPG,AFNE01.JPG,,,,,,,,,,,,,0,0,0,7,,,,,,,,,,,AFNE12.jpg,AFSA04.jpg,AFSA13.jpg,AFNE09.jpg,AFNE12.jpg,FN,3,num_8,16,num_8,1.75007072301,,,2017_Jul_13_1146,60.0094697481,MAFE4ImagesEEG,001,100916,
AFNE01.JPG,AFNE01.JPG,AFNE01.JPG,AFNE01.JPG,AFNE01.JPG,AFNE01.JPG,,,,,,,,,,,,,0,1,1,6,,,,,,,,,,,AFNE02.jpg,AFNE09.jpg,AFSA15.jpg,AFSA01.jpg,AFNE02.jpg,FN,3,num_8,32,num_6,0.80013618595,,,2017_Jul_13_1146,60.0094697481,MAFE4ImagesEEG,001,100916,
AFNE01.JPG,AFNE01.JPG,AFNE01.JPG,AFNE01.JPG,AFNE01.JPG,AFNE01.JPG,,,,,,,,,,,,,0,2,2,5,,,,,,,,,,,AFNE06.jpg,AFNE03.jpg,AFSA10.jpg,AFSA01.jpg,AFSA10.jpg,FS,4,num_2,32,num_8,0.750147058861,,,2017_Jul_13_1146,60.0094697481,MAFE4ImagesEEG,001,100916,
AFNE01.JPG,AFNE01.JPG,AFNE01.JPG,AFNE01.JPG,AFNE01.JPG,AFNE01.JPG,,,,,,,,,,,,,0,3,3,4,,,,,,,,,,,AFSA16.jpg,AFNE01.jpg,AFSA02.jpg,AFNE12.jpg,AFNE12.jpg,FN,3,num_4,32,num_6,0.633448350476,,,2017_Jul_13_1146,60.0094697481,MAFE4ImagesEEG,001,100916,
AFNE01.JPG,AFNE01.JPG,AFNE01.JPG,AFNE01.JPG,AFNE01.JPG,AFNE01.JPG,,,,,,,,,,,,,0,4,4,8,,,,,,,,,,,AFNE03.jpg,AFSA10.jpg,AFNE20.jpg,AFSA06.jpg,AFSA10.jpg,FS,4,num_6,16,num_6,0.633476896212,,,2017_Jul_13_1146,60.0094697481,MAFE4ImagesEEG,001,100916,
AFNE01.JPG,AFNE01.JPG,AFNE01.JPG,AFNE01.JPG,AFNE01.JPG,AFNE01.JPG,,,,,,,,,,,,,0,5,5,1,,,,,,,,,,,AFSA09.jpg,AFNE04.jpg,AFNE18.jpg,AFSA15.jpg,AFNE18.jpg,FN,3,num_2,16,num_2,0.966726516606,,,2017_Jul_13_1146,60.0094697481,MAFE4ImagesEEG,001,100916,
AFNE01.JPG,AFNE01.JPG,AFNE01.JPG,AFNE01.JPG,AFNE01.JPG,AFNE01.JPG,,,,,,,,,,,,,0,6,6,2,,,,,,,,,,,AFSA16.jpg,AFNE01.jpg,AFSA07.jpg,AFNE07.jpg,AFSA07.jpg,FS,4,num_2,16,num_2,0.683449986158,,,2017_Jul_13_1146,60.0094697481,MAFE4ImagesEEG,001,100916,
AFNE01.JPG,AFNE01.JPG,AFNE01.JPG,AFNE01.JPG,AFNE01.JPG,AFNE01.JPG,,,,,,,,,,,,,0,7,7,3,,,,,,,,,,,AFSA13.jpg,AFNE20.jpg,AFSA01.jpg,AFNE16.jpg,AFSA13.jpg,FS,4,num_8,32,num_2,1.25007360964,,,2017_Jul_13_1146,60.0094697481,MAFE4ImagesEEG,001,100916,
AFNE01.JPG,AFNE01.JPG,AFNE01.JPG,AFNE01.JPG,AFNE01.JPG,AFNE01.JPG,,,,,,,,,,,,,0,8,8,0,,,,,,,,,,,AFSA11.jpg,AFSA20.jpg,AFNE04.jpg,AFNE17.jpg,AFNE17.jpg,FN,3,num_4,16,num_4,0.866806957871,,,2017_Jul_13_1146,60.0094697481,MAFE4ImagesEEG,001,100916,
AFNE01.JPG,AFNE01.JPG,AFNE01.JPG,AFNE01.JPG,AFNE01.JPG,AFNE01.JPG,,,,,,,,,,,,,0,9,9,9,,,,,,,,,,,AFNE04.jpg,AFSA08.jpg,AFSA05.jpg,AFNE05.jpg,AFNE05.jpg,FN,3,num_4,32,num_2,0.916747653391,,,2017_Jul_13_1146,60.0094697481,MAFE4ImagesEEG,001,100916,
AFNE01.JPG,AFNE01.JPG,AFNE01.JPG,AFNE01.JPG,AFNE01.JPG,AFNE01.JPG,,,,,,,,,,,,,1,0,10,2,,,,,,,,,,,AFSA15.jpg,AFSA07.jpg,AFNE13.jpg,AFNE04.jpg,AFSA15.jpg,FS,4,num_8,16,num_8,0.966360553168,,,2017_Jul_13_1146,60.0094697481,MAFE4ImagesEEG,001,100916,
AFNE01.JPG,AFNE01.JPG,AFNE01.JPG,AFNE01.JPG,AFNE01.JPG,AFNE01.JPG,,,,,,,,,,,,,1,1,11,0,,,,,,,,,,,AFSA17.jpg,AFSA15.jpg,AFNE08.jpg,AFNE01.jpg,AFSA15.jpg,FS,4,num_6,16,num_6,0.71677222196,,,2017_Jul_13_1146,60.0094697481,MAFE4ImagesEEG,001,100916,
AFNE01.JPG,AFNE01.JPG,AFNE01.JPG,AFNE01.JPG,AFNE01.JPG,AFNE01.JPG,,,,,,,,,,,,,1,2,12,6,,,,,,,,,,,AFSA01.jpg,AFNE17.jpg,AFSA18.jpg,AFNE06.jpg,AFNE06.jpg,FN,3,num_4,32,num_6,0.583472694503,,,2017_Jul_13_1146,60.0094697481,MAFE4ImagesEEG,001,100916,
AFNE01.JPG,AFNE01.JPG,AFNE01.JPG,AFNE01.JPG,AFNE01.JPG,AFNE01.JPG,,,,,,,,,,,,,1,3,13,9,,,,,,,,,,,AFSA17.jpg,AFSA10.jpg,AFNE18.jpg,AFNE01.jpg,AFSA17.jpg,FS,4,num_8,32,num_4,0.683642108925,,,2017_Jul_13_1146,60.0094697481,MAFE4ImagesEEG,001,100916,
AFNE01.JPG,AFNE01.JPG,AFNE01.JPG,AFNE01.JPG,AFNE01.JPG,AFNE01.JPG,,,,,,,,,,,,,1,4,14,4,,,,,,,,,,,AFNE18.jpg,AFSA15.jpg,AFSA12.jpg,AFNE05.jpg,AFNE18.jpg,FN,3,num_8,32,num_6,0.683463777881,,,2017_Jul_13_1146,60.0094697481,MAFE4ImagesEEG,001,100916,
AFNE01.JPG,AFNE01.JPG,AFNE01.JPG,AFNE01.JPG,AFNE01.JPG,AFNE01.JPG,,,,,,,,,,,,,1,5,15,7,,,,,,,,,,,AFSA13.jpg,AFNE04.jpg,AFNE01.jpg,AFSA14.jpg,AFNE04.jpg,FN,3,num_6,16,num_6,0.58348552417,,,2017_Jul_13_1146,60.0094697481,MAFE4ImagesEEG,001,100916,
AFNE01.JPG,AFNE01.JPG,AFNE01.JPG,AFNE01.JPG,AFNE01.JPG,AFNE01.JPG,,,,,,,,,,,,,1,6,16,1,,,,,,,,,,,AFNE19.jpg,AFNE03.jpg,AFSA05.jpg,AFSA08.jpg,AFSA05.jpg,FS,4,num_2,16,num_2,1.25010696659,,,2017_Jul_13_1146,60.0094697481,MAFE4ImagesEEG,001,100916,
AFNE01.JPG,AFNE01.JPG,AFNE01.JPG,AFNE01.JPG,AFNE01.JPG,AFNE01.JPG,,,,,,,,,,,,,1,7,17,3,,,,,,,,,,,AFSA12.jpg,AFSA04.jpg,AFNE19.jpg,AFNE02.jpg,AFNE19.jpg,FN,3,num_2,32,num_4,0.983398218872,,,2017_Jul_13_1146,60.0094697481,MAFE4ImagesEEG,001,100916,
AFNE01.JPG,AFNE01.JPG,AFNE01.JPG,AFNE01.JPG,AFNE01.JPG,AFNE01.JPG,,,,,,,,,,,,,1,8,18,8,,,,,,,,,,,AFSA05.jpg,AFNE05.jpg,AFNE16.jpg,AFSA16.jpg,AFSA16.jpg,FS,4,num_4,32,num_8,1.43342544977,,,2017_Jul_13_1146,60.0094697481,MAFE4ImagesEEG,001,100916,
AFNE01.JPG,AFNE01.JPG,AFNE01.JPG,AFNE01.JPG,AFNE01.JPG,AFNE01.JPG,,,,,,,,,,,,,1,9,19,5,,,,,,,,,,,AFNE08.jpg,AFSA19.jpg,AFSA12.jpg,AFNE06.jpg,AFSA12.jpg,FS,4,num_2,16,num_2,2.15000554873,,,2017_Jul_13_1146,60.0094697481,MAFE4ImagesEEG,001,100916,
AFNE01.JPG,AFNE01.JPG,AFNE01.JPG,AFNE01.JPG,AFNE01.JPG,AFNE01.JPG,,,,,,,,,,,,,2,0,20,3,,,,,,,,,,,AFNE01.jpg,AFNE11.jpg,AFSA06.jpg,AFSA07.jpg,AFNE01.jpg,FN,3,num_8,32,num_4,0.766829666449,,,2017_Jul_13_1146,60.0094697481,MAFE4ImagesEEG,001,100916,
AFNE01.JPG,AFNE01.JPG,AFNE01.JPG,AFNE01.JPG,AFNE01.JPG,AFNE01.JPG,,,,,,,,,,,,,2,1,21,9,,,,,,,,,,,AFSA12.jpg,AFNE05.jpg,AFSA17.jpg,AFNE08.jpg,AFSA17.jpg,FS,4,num_2,32,num_4,0.966792909661,,,2017_Jul_13_1146,60.0094697481,MAFE4ImagesEEG,001,100916,
AFNE01.JPG,AFNE01.JPG,AFNE01.JPG,AFNE01.JPG,AFNE01.JPG,AFNE01.JPG,,,,,,,,,,,,,2,2,22,0,,,,,,,,,,,AFNE09.jpg,AFNE13.jpg,AFSA09.jpg,AFSA04.jpg,AFSA09.jpg,FS,4,num_2,16,num_2,0.966773023829,,,2017_Jul_13_1146,60.0094697481,MAFE4ImagesEEG,001,100916,
AFNE01.JPG,AFNE01.JPG,AFNE01.JPG,AFNE01.JPG,AFNE01.JPG,AFNE01.JPG,,,,,,,,,,,,,2,3,23,8,,,,,,,,,,,AFSA16.jpg,AFNE18.jpg,AFNE10.jpg,AFSA08.jpg,AFNE10.jpg,FN,3,num_2,32,num_6,0.700133235194,,,2017_Jul_13_1146,60.0094697481,MAFE4ImagesEEG,001,100916,
AFNE01.JPG,AFNE01.JPG,AFNE01.JPG,AFNE01.JPG,AFNE01.JPG,AFNE01.JPG,,,,,,,,,,,,,2,4,24,6,,,,,,,,,,,AFNE16.jpg,AFSA19.jpg,AFSA11.jpg,AFNE04.jpg,AFNE04.jpg,FN,3,num_4,32,num_6,1.3334532897,,,2017_Jul_13_1146,60.0094697481,MAFE4ImagesEEG,001,100916,
AFNE01.JPG,AFNE01.JPG,AFNE01.JPG,AFNE01.JPG,AFNE01.JPG,AFNE01.JPG,,,,,,,,,,,,,2,5,25,7,,,,,,,,,,,AFNE06.jpg,AFSA01.jpg,AFSA20.jpg,AFNE12.jpg,AFSA01.jpg,FS,4,num_6,16,num_6,0.833440780872,,,2017_Jul_13_1146,60.0094697481,MAFE4ImagesEEG,001,100916,
AFNE01.JPG,AFNE01.JPG,AFNE01.JPG,AFNE01.JPG,AFNE01.JPG,AFNE01.JPG,,,,,,,,,,,,,2,6,26,5,,,,,,,,,,,AFNE20.jpg,AFSA18.jpg,AFNE06.jpg,AFSA16.jpg,AFSA18.jpg,FS,4,num_6,16,num_6,0.583482316695,,,2017_Jul_13_1146,60.0094697481,MAFE4ImagesEEG,001,100916,
AFNE01.JPG,AFNE01.JPG,AFNE01.JPG,AFNE01.JPG,AFNE01.JPG,AFNE01.JPG,,,,,,,,,,,,,2,7,27,1,,,,,,,,,,,AFSA09.jpg,AFNE03.jpg,AFNE11.jpg,AFSA07.jpg,AFNE11.jpg,FN,3,num_2,16,num_2,0.900111232186,,,2017_Jul_13_1146,60.0094697481,MAFE4ImagesEEG,001,100916,
AFNE01.JPG,AFNE01.JPG,AFNE01.JPG,AFNE01.JPG,AFNE01.JPG,AFNE01.JPG,,,,,,,,,,,,,2,8,28,4,,,,,,,,,,,AFSA11.jpg,AFNE03.jpg,AFNE14.jpg,AFSA08.jpg,AFNE03.jpg,FN,3,num_6,16,num_6,0.700132272905,,,2017_Jul_13_1146,60.0094697481,MAFE4ImagesEEG,001,100916,
AFNE01.JPG,AFNE01.JPG,AFNE01.JPG,AFNE01.JPG,AFNE01.JPG,AFNE01.JPG,,,,,,,,,,,,,2,9,29,2,,,,,,,,,,,AFSA09.jpg,AFNE06.jpg,AFNE18.jpg,AFSA10.jpg,AFSA09.jpg,FS,4,num_8,16,num_8,0.950124414871,,,2017_Jul_13_1146,60.0094697481,MAFE4ImagesEEG,001,100916,
AFNE01.JPG,AFNE01.JPG,AFNE01.JPG,AFNE01.JPG,AFNE01.JPG,AFNE01.JPG,,,,,,,,,,,,,3,0,30,2,,,,,,,,,,,AFSA17.jpg,AFSA16.jpg,AFNE02.jpg,AFNE05.jpg,AFNE02.jpg,FN,3,num_2,16,num_2,1.4167781237,,,2017_Jul_13_1146,60.0094697481,MAFE4ImagesEEG,001,100916,
AFNE01.JPG,AFNE01.JPG,AFNE01.JPG,AFNE01.JPG,AFNE01.JPG,AFNE01.JPG,,,,,,,,,,,,,3,1,31,1,,,,,,,,,,,AFNE05.jpg,AFNE01.jpg,AFSA05.jpg,AFSA16.jpg,AFNE01.jpg,FN,3,num_6,16,num_6,0.817087572766,,,2017_Jul_13_1146,60.0094697481,MAFE4ImagesEEG,001,100916,
AFNE01.JPG,AFNE01.JPG,AFNE01.JPG,AFNE01.JPG,AFNE01.JPG,AFNE01.JPG,,,,,,,,,,,,,3,2,32,6,,,,,,,,,,,AFNE18.jpg,AFNE02.jpg,AFSA17.jpg,AFSA05.jpg,AFNE02.jpg,FN,3,num_6,32,num_2,0.850195233943,,,2017_Jul_13_1146,60.0094697481,MAFE4ImagesEEG,001,100916,
AFNE01.JPG,AFNE01.JPG,AFNE01.JPG,AFNE01.JPG,AFNE01.JPG,AFNE01.JPG,,,,,,,,,,,,,3,3,33,3,,,,,,,,,,,AFNE07.jpg,AFNE05.jpg,AFSA05.jpg,AFSA16.jpg,AFNE05.jpg,FN,3,num_6,16,num_6,0.683403799776,,,2017_Jul_13_1146,60.0094697481,MAFE4ImagesEEG,001,100916,
AFNE01.JPG,AFNE01.JPG,AFNE01.JPG,AFNE01.JPG,AFNE01.JPG,AFNE01.JPG,,,,,,,,,,,,,3,4,34,8,,,,,,,,,,,AFSA07.jpg,AFNE12.jpg,AFSA08.jpg,AFNE07.jpg,AFNE07.jpg,FN,3,num_4,32,num_6,1.5667310711,,,2017_Jul_13_1146,60.0094697481,MAFE4ImagesEEG,001,100916,
AFNE01.JPG,AFNE01.JPG,AFNE01.JPG,AFNE01.JPG,AFNE01.JPG,AFNE01.JPG,,,,,,,,,,,,,3,5,35,7,,,,,,,,,,,AFSA03.jpg,AFNE05.jpg,AFNE10.jpg,AFSA01.jpg,AFNE05.jpg,FN,3,num_6,16,num_6,0.916749577736,,,2017_Jul_13_1146,60.0094697481,MAFE4ImagesEEG,001,100916,
AFNE01.JPG,AFNE01.JPG,AFNE01.JPG,AFNE01.JPG,AFNE01.JPG,AFNE01.JPG,,,,,,,,,,,,,3,6,36,4,,,,,,,,,,,AFSA15.jpg,AFSA16.jpg,AFNE11.jpg,AFNE19.jpg,AFSA15.jpg,FS,4,num_8,16,num_8,0.550106838346,,,2017_Jul_13_1146,60.0094697481,MAFE4ImagesEEG,001,100916,
AFNE01.JPG,AFNE01.JPG,AFNE01.JPG,AFNE01.JPG,AFNE01.JPG,AFNE01.JPG,,,,,,,,,,,,,3,7,37,5,,,,,,,,,,,AFSA10.jpg,AFNE01.jpg,AFSA07.jpg,AFNE12.jpg,AFNE01.jpg,FN,3,num_6,16,num_6,0.633479141397,,,2017_Jul_13_1146,60.0094697481,MAFE4ImagesEEG,001,100916,
AFNE01.JPG,AFNE01.JPG,AFNE01.JPG,AFNE01.JPG,AFNE01.JPG,AFNE01.JPG,,,,,,,,,,,,,3,8,38,0,,,,,,,,,,,AFNE14.jpg,AFSA16.jpg,AFSA10.jpg,AFNE18.jpg,AFSA16.jpg,FS,4,num_6,16,num_6,0.816729627782,,,2017_Jul_13_1146,60.0094697481,MAFE4ImagesEEG,001,100916,
AFNE01.JPG,AFNE01.JPG,AFNE01.JPG,AFNE01.JPG,AFNE01.JPG,AFNE01.JPG,,,,,,,,,,,,,3,9,39,9,,,,,,,,,,,AFNE14.jpg,AFSA09.jpg,AFSA18.jpg,AFNE03.jpg,AFSA18.jpg,FS,4,num_2,16,num_2,1.20010501007,,,2017_Jul_13_1146,60.0094697481,MAFE4ImagesEEG,001,100916,
AFNE01.JPG,AFNE01.JPG,AFNE01.JPG,AFNE01.JPG,AFNE01.JPG,AFNE01.JPG,,,,,,,,,,,,,4,0,40,5,,,,,,,,,,,AFNE04.jpg,AFSA13.jpg,AFSA11.jpg,AFNE10.jpg,AFNE04.jpg,FN,3,num_8,32,num_4,0.983343372354,,,2017_Jul_13_1146,60.0094697481,MAFE4ImagesEEG,001,100916,
AFNE01.JPG,AFNE01.JPG,AFNE01.JPG,AFNE01.JPG,AFNE01.JPG,AFNE01.JPG,,,,,,,,,,,,,4,1,41,4,,,,,,,,,,,AFNE19.jpg,AFSA08.jpg,AFSA09.jpg,AFNE06.jpg,AFNE19.jpg,FN,3,num_8,16,num_8,1.10007319273,,,2017_Jul_13_1146,60.0094697481,MAFE4ImagesEEG,001,100916,
AFNE01.JPG,AFNE01.JPG,AFNE01.JPG,AFNE01.JPG,AFNE01.JPG,AFNE01.JPG,,,,,,,,,,,,,4,2,42,7,,,,,,,,,,,AFNE07.jpg,AFNE14.jpg,AFSA06.jpg,AFSA16.jpg,AFSA06.jpg,FS,4,num_2,16,num_2,0.91682046093,,,2017_Jul_13_1146,60.0094697481,MAFE4ImagesEEG,001,100916,
AFNE01.JPG,AFNE01.JPG,AFNE01.JPG,AFNE01.JPG,AFNE01.JPG,AFNE01.JPG,,,,,,,,,,,,,4,3,43,8,,,,,,,,,,,AFNE17.jpg,AFNE01.jpg,AFSA18.jpg,AFSA02.jpg,AFSA02.jpg,FS,4,num_4,32,num_2,0.667049949989,,,2017_Jul_13_1146,60.0094697481,MAFE4ImagesEEG,001,100916,
AFNE01.JPG,AFNE01.JPG,AFNE01.JPG,AFNE01.JPG,AFNE01.JPG,AFNE01.JPG,,,,,,,,,,,,,4,4,44,6,,,,,,,,,,,AFNE20.jpg,AFSA01.jpg,AFNE17.jpg,AFSA03.jpg,AFNE20.jpg,FN,3,num_8,32,num_6,0.566802916816,,,2017_Jul_13_1146,60.0094697481,MAFE4ImagesEEG,001,100916,
AFNE01.JPG,AFNE01.JPG,AFNE01.JPG,AFNE01.JPG,AFNE01.JPG,AFNE01.JPG,,,,,,,,,,,,,4,5,45,0,,,,,,,,,,,AFSA10.jpg,AFSA14.jpg,AFNE14.jpg,AFNE13.jpg,AFSA14.jpg,FS,4,num_6,16,num_6,1.35006276867,,,2017_Jul_13_1146,60.0094697481,MAFE4ImagesEEG,001,100916,
AFNE01.JPG,AFNE01.JPG,AFNE01.JPG,AFNE01.JPG,AFNE01.JPG,AFNE01.JPG,,,,,,,,,,,,,4,6,46,1,,,,,,,,,,,AFSA15.jpg,AFNE12.jpg,AFNE11.jpg,AFSA10.jpg,AFSA10.jpg,FS,4,num_4,32,num_2,1.0499711656,,,2017_Jul_13_1146,60.0094697481,MAFE4ImagesEEG,001,100916,
AFNE01.JPG,AFNE01.JPG,AFNE01.JPG,AFNE01.JPG,AFNE01.JPG,AFNE01.JPG,,,,,,,,,,,,,4,7,47,9,,,,,,,,,,,AFSA03.jpg,AFSA04.jpg,AFNE05.jpg,AFNE07.jpg,AFNE05.jpg,FN,3,num_2,16,num_2,0.950148149393,,,2017_Jul_13_1146,60.0094697481,MAFE4ImagesEEG,001,100916,
AFNE01.JPG,AFNE01.JPG,AFNE01.JPG,AFNE01.JPG,AFNE01.JPG,AFNE01.JPG,,,,,,,,,,,,,4,8,48,2,,,,,,,,,,,AFNE09.jpg,AFSA13.jpg,AFNE10.jpg,AFSA11.jpg,AFNE10.jpg,FN,3,num_2,32,num_8,1.05009978195,,,2017_Jul_13_1146,60.0094697481,MAFE4ImagesEEG,001,100916,
AFNE01.JPG,AFNE01.JPG,AFNE01.JPG,AFNE01.JPG,AFNE01.JPG,AFNE01.JPG,,,,,,,,,,,,,4,9,49,3,,,,,,,,,,,AFSA07.jpg,AFNE04.jpg,AFNE12.jpg,AFSA08.jpg,AFSA07.jpg,FS,4,num_8,32,num_4,1.01658734796,,,2017_Jul_13_1146,60.0094697481,MAFE4ImagesEEG,001,100916,
AFNE01.JPG,AFNE01.JPG,AFNE01.JPG,AFNE01.JPG,AFNE01.JPG,AFNE01.JPG,,,,,,,,,,,,,5,0,50,7,,,,,,,,,,,AFNE10.jpg,AFSA08.jpg,AFNE04.jpg,AFSA13.jpg,AFNE10.jpg,FN,3,num_8,16,num_8,1.4834206705,,,2017_Jul_13_1146,60.0094697481,MAFE4ImagesEEG,001,100916,
AFNE01.JPG,AFNE01.JPG,AFNE01.JPG,AFNE01.JPG,AFNE01.JPG,AFNE01.JPG,,,,,,,,,,,,,5,1,51,1,,,,,,,,,,,AFNE16.jpg,AFSA12.jpg,AFSA06.jpg,AFNE11.jpg,AFSA06.jpg,FS,4,num_2,16,num_2,1.25012172037,,,2017_Jul_13_1146,60.0094697481,MAFE4ImagesEEG,001,100916,
AFNE01.JPG,AFNE01.JPG,AFNE01.JPG,AFNE01.JPG,AFNE01.JPG,AFNE01.JPG,,,,,,,,,,,,,5,2,52,3,,,,,,,,,,,AFNE18.jpg,AFSA09.jpg,AFNE19.jpg,AFSA02.jpg,AFNE19.jpg,FN,3,num_2,16,num_2,0.900145551423,,,2017_Jul_13_1146,60.0094697481,MAFE4ImagesEEG,001,100916,
AFNE01.JPG,AFNE01.JPG,AFNE01.JPG,AFNE01.JPG,AFNE01.JPG,AFNE01.JPG,,,,,,,,,,,,,5,3,53,2,,,,,,,,,,,AFNE04.jpg,AFSA03.jpg,AFSA13.jpg,AFNE17.jpg,AFNE04.jpg,FN,3,num_8,16,num_8,0.883455567062,,,2017_Jul_13_1146,60.0094697481,MAFE4ImagesEEG,001,100916,
AFNE01.JPG,AFNE01.JPG,AFNE01.JPG,AFNE01.JPG,AFNE01.JPG,AFNE01.JPG,,,,,,,,,,,,,5,4,54,8,,,,,,,,,,,AFSA13.jpg,AFNE09.jpg,AFNE17.jpg,AFSA15.jpg,AFNE09.jpg,FN,3,num_6,16,num_6,0.983395973686,,,2017_Jul_13_1146,60.0094697481,MAFE4ImagesEEG,001,100916,
AFNE01.JPG,AFNE01.JPG,AFNE01.JPG,AFNE01.JPG,AFNE01.JPG,AFNE01.JPG,,,,,,,,,,,,,5,5,55,5,,,,,,,,,,,AFNE17.jpg,AFSA12.jpg,AFNE15.jpg,AFSA02.jpg,AFNE17.jpg,FN,3,num_8,32,num_6,0.533484529704,,,2017_Jul_13_1146,60.0094697481,MAFE4ImagesEEG,001,100916,
AFNE01.JPG,AFNE01.JPG,AFNE01.JPG,AFNE01.JPG,AFNE01.JPG,AFNE01.JPG,,,,,,,,,,,,,5,6,56,0,,,,,,,,,,,AFNE06.jpg,AFSA19.jpg,AFSA06.jpg,AFNE18.jpg,AFNE18.jpg,FN,3,num_4,32,num_2,0.800127846655,,,2017_Jul_13_1146,60.0094697481,MAFE4ImagesEEG,001,100916,
AFNE01.JPG,AFNE01.JPG,AFNE01.JPG,AFNE01.JPG,AFNE01.JPG,AFNE01.JPG,,,,,,,,,,,,,5,7,57,6,,,,,,,,,,,AFSA09.jpg,AFSA04.jpg,AFNE16.jpg,AFNE03.jpg,AFNE16.jpg,FN,3,num_2,32,num_4,0.783453257754,,,2017_Jul_13_1146,60.0094697481,MAFE4ImagesEEG,001,100916,
AFNE01.JPG,AFNE01.JPG,AFNE01.JPG,AFNE01.JPG,AFNE01.JPG,AFNE01.JPG,,,,,,,,,,,,,5,8,58,4,,,,,,,,,,,AFSA20.jpg,AFNE10.jpg,AFNE12.jpg,AFSA12.jpg,AFSA20.jpg,FS,4,num_8,16,num_8,0.866646267707,,,2017_Jul_13_1146,60.0094697481,MAFE4ImagesEEG,001,100916,
AFNE01.JPG,AFNE01.JPG,AFNE01.JPG,AFNE01.JPG,AFNE01.JPG,AFNE01.JPG,,,,,,,,,,,,,5,9,59,9,,,,,,,,,,,AFNE18.jpg,AFSA08.jpg,AFSA15.jpg,AFNE11.jpg,AFNE11.jpg,FN,3,num_4,16,num_4,0.85012723715,,,2017_Jul_13_1146,60.0094697481,MAFE4ImagesEEG,001,100916,
,,,,,,,,,,,,,,,,,,,,,,,,,,,,,,,,,,,,,,,,,,,space,2.20002129697,2017_Jul_13_1146,60.0094697481,MAFE4ImagesEEG,001,100916,
AFNE01.JPG,AFNE01.JPG,AFNE01.JPG,AFNE01.JPG,AFNE01.JPG,AFNE01.JPG,,,,,,,,,,,,,,,,,0,0,0,8,,,,,,,AMSA04.jpg,AMSA09.jpg,AMNE15.jpg,AMNE13.jpg,AMNE15.jpg,MN,1,num_2,32,num_6,0.816745343851,,,2017_Jul_13_1146,60.0094697481,MAFE4ImagesEEG,001,100916,
AFNE01.JPG,AFNE01.JPG,AFNE01.JPG,AFNE01.JPG,AFNE01.JPG,AFNE01.JPG,,,,,,,,,,,,,,,,,0,1,1,9,,,,,,,AMSA10.jpg,AMSA07.jpg,AMNE13.jpg,AMNE09.jpg,AMNE13.jpg,MN,1,num_2,32,num_4,1.08343292284,,,2017_Jul_13_1146,60.0094697481,MAFE4ImagesEEG,001,100916,
AFNE01.JPG,AFNE01.JPG,AFNE01.JPG,AFNE01.JPG,AFNE01.JPG,AFNE01.JPG,,,,,,,,,,,,,,,,,0,2,2,4,,,,,,,AMSA09.jpg,AMNE14.jpg,AMNE16.jpg,AMSA07.jpg,AMNE14.jpg,MN,1,num_6,16,num_6,0.883455567062,,,2017_Jul_13_1146,60.0094697481,MAFE4ImagesEEG,001,100916,
AFNE01.JPG,AFNE01.JPG,AFNE01.JPG,AFNE01.JPG,AFNE01.JPG,AFNE01.JPG,,,,,,,,,,,,,,,,,0,3,3,3,,,,,,,AMSA19.jpg,AMNE09.jpg,AMSA01.jpg,AMNE04.jpg,AMSA01.jpg,MS,2,num_2,32,num_6,0.783436900005,,,2017_Jul_13_1146,60.0094697481,MAFE4ImagesEEG,001,100916,
AFNE01.JPG,AFNE01.JPG,AFNE01.JPG,AFNE01.JPG,AFNE01.JPG,AFNE01.JPG,,,,,,,,,,,,,,,,,0,4,4,1,,,,,,,AMNE10.jpg,AMNE12.jpg,AMSA17.jpg,AMSA13.jpg,AMNE12.jpg,MN,1,num_6,16,num_6,1.11667016265,,,2017_Jul_13_1146,60.0094697481,MAFE4ImagesEEG,001,100916,
AFNE01.JPG,AFNE01.JPG,AFNE01.JPG,AFNE01.JPG,AFNE01.JPG,AFNE01.JPG,,,,,,,,,,,,,,,,,0,5,5,6,,,,,,,AMSA05.jpg,AMSA03.jpg,AMNE07.jpg,AMNE02.jpg,AMSA03.jpg,MS,2,num_6,16,num_6,0.450147187337,,,2017_Jul_13_1146,60.0094697481,MAFE4ImagesEEG,001,100916,
AFNE01.JPG,AFNE01.JPG,AFNE01.JPG,AFNE01.JPG,AFNE01.JPG,AFNE01.JPG,,,,,,,,,,,,,,,,,0,6,6,7,,,,,,,AMNE09.jpg,AMSA02.jpg,AMNE20.jpg,AMSA01.jpg,AMNE20.jpg,MN,1,num_2,32,num_8,0.933487673057,,,2017_Jul_13_1146,60.0094697481,MAFE4ImagesEEG,001,100916,
AFNE01.JPG,AFNE01.JPG,AFNE01.JPG,AFNE01.JPG,AFNE01.JPG,AFNE01.JPG,,,,,,,,,,,,,,,,,0,7,7,5,,,,,,,AMNE03.jpg,AMNE16.jpg,AMSA16.jpg,AMSA02.jpg,AMNE03.jpg,MN,1,num_8,32,num_4,0.733471507905,,,2017_Jul_13_1146,60.0094697481,MAFE4ImagesEEG,001,100916,
AFNE01.JPG,AFNE01.JPG,AFNE01.JPG,AFNE01.JPG,AFNE01.JPG,AFNE01.JPG,,,,,,,,,,,,,,,,,0,8,8,2,,,,,,,AMNE20.jpg,AMSA08.jpg,AMSA07.jpg,AMNE02.jpg,AMSA08.jpg,MS,2,num_6,16,num_6,1.70004054136,,,2017_Jul_13_1146,60.0094697481,MAFE4ImagesEEG,001,100916,
AFNE01.JPG,AFNE01.JPG,AFNE01.JPG,AFNE01.JPG,AFNE01.JPG,AFNE01.JPG,,,,,,,,,,,,,,,,,0,9,9,0,,,,,,,AMNE04.jpg,AMSA14.jpg,AMNE08.jpg,AMSA09.jpg,AMSA14.jpg,MS,2,num_6,16,num_6,0.550115818856,,,2017_Jul_13_1146,60.0094697481,MAFE4ImagesEEG,001,100916,
AFNE01.JPG,AFNE01.JPG,AFNE01.JPG,AFNE01.JPG,AFNE01.JPG,AFNE01.JPG,,,,,,,,,,,,,,,,,1,0,10,1,,,,,,,AMSA15.jpg,AMSA20.jpg,AMNE11.jpg,AMNE02.jpg,AMNE02.jpg,MN,1,num_4,16,num_4,0.833448799327,,,2017_Jul_13_1146,60.0094697481,MAFE4ImagesEEG,001,100916,
AFNE01.JPG,AFNE01.JPG,AFNE01.JPG,AFNE01.JPG,AFNE01.JPG,AFNE01.JPG,,,,,,,,,,,,,,,,,1,1,11,9,,,,,,,AMNE15.jpg,AMSA15.jpg,AMNE02.jpg,AMSA01.jpg,AMNE02.jpg,MN,1,num_2,16,num_2,1.3500669382,,,2017_Jul_13_1146,60.0094697481,MAFE4ImagesEEG,001,100916,
AFNE01.JPG,AFNE01.JPG,AFNE01.JPG,AFNE01.JPG,AFNE01.JPG,AFNE01.JPG,,,,,,,,,,,,,,,,,1,2,12,8,,,,,,,AMSA06.jpg,AMNE19.jpg,AMSA07.jpg,AMNE09.jpg,AMSA07.jpg,MS,2,num_2,32,num_6,1.16672856919,,,2017_Jul_13_1146,60.0094697481,MAFE4ImagesEEG,001,100916,
AFNE01.JPG,AFNE01.JPG,AFNE01.JPG,AFNE01.JPG,AFNE01.JPG,AFNE01.JPG,,,,,,,,,,,,,,,,,1,3,13,6,,,,,,,AMSA14.jpg,AMNE15.jpg,AMSA13.jpg,AMNE02.jpg,AMSA14.jpg,MS,2,num_8,16,num_8,0.683544924948,,,2017_Jul_13_1146,60.0094697481,MAFE4ImagesEEG,001,100916,
AFNE01.JPG,AFNE01.JPG,AFNE01.JPG,AFNE01.JPG,AFNE01.JPG,AFNE01.JPG,,,,,,,,,,,,,,,,,1,4,14,5,,,,,,,AMNE20.jpg,AMSA09.jpg,AMSA14.jpg,AMNE09.jpg,AMSA09.jpg,MS,2,num_6,16,num_6,0.550143081928,,,2017_Jul_13_1146,60.0094697481,MAFE4ImagesEEG,001,100916,
AFNE01.JPG,AFNE01.JPG,AFNE01.JPG,AFNE01.JPG,AFNE01.JPG,AFNE01.JPG,,,,,,,,,,,,,,,,,1,5,15,0,,,,,,,AMNE06.jpg,AMNE10.jpg,AMSA11.jpg,AMSA02.jpg,AMNE06.jpg,MN,1,num_8,32,num_6,1.30010571564,,,2017_Jul_13_1146,60.0094697481,MAFE4ImagesEEG,001,100916,
AFNE01.JPG,AFNE01.JPG,AFNE01.JPG,AFNE01.JPG,AFNE01.JPG,AFNE01.JPG,,,,,,,,,,,,,,,,,1,6,16,2,,,,,,,AMNE04.jpg,AMNE06.jpg,AMSA03.jpg,AMSA14.jpg,AMNE04.jpg,MN,1,num_8,16,num_8,0.81670974195,,,2017_Jul_13_1146,60.0094697481,MAFE4ImagesEEG,001,100916,
AFNE01.JPG,AFNE01.JPG,AFNE01.JPG,AFNE01.JPG,AFNE01.JPG,AFNE01.JPG,,,,,,,,,,,,,,,,,1,7,17,3,,,,,,,AMNE17.jpg,AMNE06.jpg,AMSA08.jpg,AMSA06.jpg,AMSA08.jpg,MS,2,num_2,32,num_6,0.766768725822,,,2017_Jul_13_1146,60.0094697481,MAFE4ImagesEEG,001,100916,
AFNE01.JPG,AFNE01.JPG,AFNE01.JPG,AFNE01.JPG,AFNE01.JPG,AFNE01.JPG,,,,,,,,,,,,,,,,,1,8,18,4,,,,,,,AMNE07.jpg,AMSA05.jpg,AMNE01.jpg,AMSA19.jpg,AMNE07.jpg,MN,1,num_8,32,num_2,1.83332339046,,,2017_Jul_13_1146,60.0094697481,MAFE4ImagesEEG,001,100916,
AFNE01.JPG,AFNE01.JPG,AFNE01.JPG,AFNE01.JPG,AFNE01.JPG,AFNE01.JPG,,,,,,,,,,,,,,,,,1,9,19,7,,,,,,,AMSA07.jpg,AMNE19.jpg,AMNE13.jpg,AMSA03.jpg,AMNE13.jpg,MN,1,num_2,32,num_6,0.78353376314,,,2017_Jul_13_1146,60.0094697481,MAFE4ImagesEEG,001,100916,
AFNE01.JPG,AFNE01.JPG,AFNE01.JPG,AFNE01.JPG,AFNE01.JPG,AFNE01.JPG,,,,,,,,,,,,,,,,,2,0,20,4,,,,,,,AMNE04.jpg,AMNE16.jpg,AMSA10.jpg,AMSA03.jpg,AMSA10.jpg,MS,2,num_2,16,num_2,1.11672308482,,,2017_Jul_13_1146,60.0094697481,MAFE4ImagesEEG,001,100916,
AFNE01.JPG,AFNE01.JPG,AFNE01.JPG,AFNE01.JPG,AFNE01.JPG,AFNE01.JPG,,,,,,,,,,,,,,,,,2,1,21,3,,,,,,,AMNE17.jpg,AMNE15.jpg,AMSA01.jpg,AMSA09.jpg,AMSA09.jpg,MS,2,num_4,16,num_4,1.5667140719,,,2017_Jul_13_1146,60.0094697481,MAFE4ImagesEEG,001,100916,
AFNE01.JPG,AFNE01.JPG,AFNE01.JPG,AFNE01.JPG,AFNE01.JPG,AFNE01.JPG,,,,,,,,,,,,,,,,,2,2,22,9,,,,,,,AMSA03.jpg,AMNE09.jpg,AMNE03.jpg,AMSA06.jpg,AMSA03.jpg,MS,2,num_8,16,num_8,2.71647361387,,,2017_Jul_13_1146,60.0094697481,MAFE4ImagesEEG,001,100916,
AFNE01.JPG,AFNE01.JPG,AFNE01.JPG,AFNE01.JPG,AFNE01.JPG,AFNE01.JPG,,,,,,,,,,,,,,,,,2,3,23,2,,,,,,,AMSA11.jpg,AMSA14.jpg,AMNE17.jpg,AMNE20.jpg,AMNE20.jpg,MN,1,num_4,16,num_4,0.616791723063,,,2017_Jul_13_1146,60.0094697481,MAFE4ImagesEEG,001,100916,
AFNE01.JPG,AFNE01.JPG,AFNE01.JPG,AFNE01.JPG,AFNE01.JPG,AFNE01.JPG,,,,,,,,,,,,,,,,,2,4,24,1,,,,,,,AMSA20.jpg,AMSA04.jpg,AMNE11.jpg,AMNE13.jpg,AMSA04.jpg,MS,2,num_6,16,num_6,0.583461789414,,,2017_Jul_13_1146,60.0094697481,MAFE4ImagesEEG,001,100916,
AFNE01.JPG,AFNE01.JPG,AFNE01.JPG,AFNE01.JPG,AFNE01.JPG,AFNE01.JPG,,,,,,,,,,,,,,,,,2,5,25,0,,,,,,,AMNE12.jpg,AMSA15.jpg,AMSA11.jpg,AMNE08.jpg,AMNE12.jpg,MN,1,num_8,16,num_8,1.61671891506,,,2017_Jul_13_1146,60.0094697481,MAFE4ImagesEEG,001,100916,
AFNE01.JPG,AFNE01.JPG,AFNE01.JPG,AFNE01.JPG,AFNE01.JPG,AFNE01.JPG,,,,,,,,,,,,,,,,,2,6,26,8,,,,,,,AMSA18.jpg,AMNE13.jpg,AMSA06.jpg,AMNE19.jpg,AMNE19.jpg,MN,1,num_4,32,num_6,0.750076175435,,,2017_Jul_13_1146,60.0094697481,MAFE4ImagesEEG,001,100916,
AFNE01.JPG,AFNE01.JPG,AFNE01.JPG,AFNE01.JPG,AFNE01.JPG,AFNE01.JPG,,,,,,,,,,,,,,,,,2,7,27,5,,,,,,,AMSA06.jpg,AMNE15.jpg,AMNE07.jpg,AMSA14.jpg,AMNE07.jpg,MN,1,num_2,32,num_8,0.966754100285,,,2017_Jul_13_1146,60.0094697481,MAFE4ImagesEEG,001,100916,
AFNE01.JPG,AFNE01.JPG,AFNE01.JPG,AFNE01.JPG,AFNE01.JPG,AFNE01.JPG,,,,,,,,,,,,,,,,,2,8,28,7,,,,,,,AMSA09.jpg,AMSA03.jpg,AMNE04.jpg,AMNE06.jpg,AMSA03.jpg,MS,2,num_6,16,num_6,0.716625964735,,,2017_Jul_13_1146,60.0094697481,MAFE4ImagesEEG,001,100916,
AFNE01.JPG,AFNE01.JPG,AFNE01.JPG,AFNE01.JPG,AFNE01.JPG,AFNE01.JPG,,,,,,,,,,,,,,,,,2,9,29,6,,,,,,,AMSA17.jpg,AMNE04.jpg,AMNE15.jpg,AMSA02.jpg,AMNE15.jpg,MN,1,num_2,16,num_2,1.30006530252,,,2017_Jul_13_1146,60.0094697481,MAFE4ImagesEEG,001,100916,
AFNE01.JPG,AFNE01.JPG,AFNE01.JPG,AFNE01.JPG,AFNE01.JPG,AFNE01.JPG,,,,,,,,,,,,,,,,,3,0,30,3,,,,,,,AMNE04.jpg,AMSA16.jpg,AMNE14.jpg,AMSA09.jpg,AMNE04.jpg,MN,1,num_8,32,num_2,1.0500978576,,,2017_Jul_13_1146,60.0094697481,MAFE4ImagesEEG,001,100916,
AFNE01.JPG,AFNE01.JPG,AFNE01.JPG,AFNE01.JPG,AFNE01.JPG,AFNE01.JPG,,,,,,,,,,,,,,,,,3,1,31,9,,,,,,,AMSA03.jpg,AMSA05.jpg,AMNE15.jpg,AMNE04.jpg,AMSA05.jpg,MS,2,num_6,16,num_6,0.983476800146,,,2017_Jul_13_1146,60.0094697481,MAFE4ImagesEEG,001,100916,
AFNE01.JPG,AFNE01.JPG,AFNE01.JPG,AFNE01.JPG,AFNE01.JPG,AFNE01.JPG,,,,,,,,,,,,,,,,,3,2,32,5,,,,,,,AMSA15.jpg,AMNE11.jpg,AMSA08.jpg,AMNE18.jpg,AMSA15.jpg,MS,2,num_8,16,num_8,0.600150490878,,,2017_Jul_13_1146,60.0094697481,MAFE4ImagesEEG,001,100916,
AFNE01.JPG,AFNE01.JPG,AFNE01.JPG,AFNE01.JPG,AFNE01.JPG,AFNE01.JPG,,,,,,,,,,,,,,,,,3,3,33,4,,,,,,,AMSA09.jpg,AMNE12.jpg,AMNE04.jpg,AMSA11.jpg,AMSA09.jpg,MS,2,num_8,32,num_4,0.816749513615,,,2017_Jul_13_1146,60.0094697481,MAFE4ImagesEEG,001,100916,
AFNE01.JPG,AFNE01.JPG,AFNE01.JPG,AFNE01.JPG,AFNE01.JPG,AFNE01.JPG,,,,,,,,,,,,,,,,,3,4,34,2,,,,,,,AMSA03.jpg,AMNE18.jpg,AMSA18.jpg,AMNE08.jpg,AMNE08.jpg,MN,1,num_4,32,num_2,1.11675066827,,,2017_Jul_13_1146,60.0094697481,MAFE4ImagesEEG,001,100916,
AFNE01.JPG,AFNE01.JPG,AFNE01.JPG,AFNE01.JPG,AFNE01.JPG,AFNE01.JPG,,,,,,,,,,,,,,,,,3,5,35,1,,,,,,,AMSA18.jpg,AMSA11.jpg,AMNE11.jpg,AMNE12.jpg,AMSA18.jpg,MS,2,num_8,16,num_8,1.68337236717,,,2017_Jul_13_1146,60.0094697481,MAFE4ImagesEEG,001,100916,
AFNE01.JPG,AFNE01.JPG,AFNE01.JPG,AFNE01.JPG,AFNE01.JPG,AFNE01.JPG,,,,,,,,,,,,,,,,,3,6,36,7,,,,,,,AMSA05.jpg,AMNE04.jpg,AMNE15.jpg,AMSA19.jpg,AMSA19.jpg,MS,2,num_4,16,num_4,0.783454220043,,,2017_Jul_13_1146,60.0094697481,MAFE4ImagesEEG,001,100916,
AFNE01.JPG,AFNE01.JPG,AFNE01.JPG,AFNE01.JPG,AFNE01.JPG,AFNE01.JPG,,,,,,,,,,,,,,,,,3,7,37,6,,,,,,,AMNE03.jpg,AMSA09.jpg,AMSA02.jpg,AMNE06.jpg,AMNE03.jpg,MN,1,num_8,16,num_8,1.15042603784,,,2017_Jul_13_1146,60.0094697481,MAFE4ImagesEEG,001,100916,
AFNE01.JPG,AFNE01.JPG,AFNE01.JPG,AFNE01.JPG,AFNE01.JPG,AFNE01.JPG,,,,,,,,,,,,,,,,,3,8,38,0,,,,,,,AMSA13.jpg,AMNE01.jpg,AMNE16.jpg,AMSA09.jpg,AMSA09.jpg,MS,2,num_4,16,num_4,0.650166239124,,,2017_Jul_13_1146,60.0094697481,MAFE4ImagesEEG,001,100916,
AFNE01.JPG,AFNE01.JPG,AFNE01.JPG,AFNE01.JPG,AFNE01.JPG,AFNE01.JPG,,,,,,,,,,,,,,,,,3,9,39,8,,,,,,,AMSA17.jpg,AMNE11.jpg,AMNE09.jpg,AMSA18.jpg,AMSA17.jpg,MS,2,num_8,16,num_8,0.683452552184,,,2017_Jul_13_1146,60.0094697481,MAFE4ImagesEEG,001,100916,
AFNE01.JPG,AFNE01.JPG,AFNE01.JPG,AFNE01.JPG,AFNE01.JPG,AFNE01.JPG,,,,,,,,,,,,,,,,,4,0,40,9,,,,,,,AMNE05.jpg,AMNE06.jpg,AMSA09.jpg,AMSA20.jpg,AMNE05.jpg,MN,1,num_8,32,num_6,0.95010901941,,,2017_Jul_13_1146,60.0094697481,MAFE4ImagesEEG,001,100916,
AFNE01.JPG,AFNE01.JPG,AFNE01.JPG,AFNE01.JPG,AFNE01.JPG,AFNE01.JPG,,,,,,,,,,,,,,,,,4,1,41,1,,,,,,,AMNE16.jpg,AMSA12.jpg,AMNE06.jpg,AMSA08.jpg,AMNE16.jpg,MN,1,num_8,16,num_8,0.96673421422,,,2017_Jul_13_1146,60.0094697481,MAFE4ImagesEEG,001,100916,
AFNE01.JPG,AFNE01.JPG,AFNE01.JPG,AFNE01.JPG,AFNE01.JPG,AFNE01.JPG,,,,,,,,,,,,,,,,,4,2,42,2,,,,,,,AMNE04.jpg,AMSA04.jpg,AMNE07.jpg,AMSA19.jpg,AMSA19.jpg,MS,2,num_4,32,num_2,1.13345733099,,,2017_Jul_13_1146,60.0094697481,MAFE4ImagesEEG,001,100916,
AFNE01.JPG,AFNE01.JPG,AFNE01.JPG,AFNE01.JPG,AFNE01.JPG,AFNE01.JPG,,,,,,,,,,,,,,,,,4,3,43,0,,,,,,,AMSA02.jpg,AMSA12.jpg,AMNE06.jpg,AMNE08.jpg,AMSA12.jpg,MS,2,num_6,32,num_4,0.816763305571,,,2017_Jul_13_1146,60.0094697481,MAFE4ImagesEEG,001,100916,
AFNE01.JPG,AFNE01.JPG,AFNE01.JPG,AFNE01.JPG,AFNE01.JPG,AFNE01.JPG,,,,,,,,,,,,,,,,,4,4,44,5,,,,,,,AMSA06.jpg,AMNE06.jpg,AMNE18.jpg,AMSA20.jpg,AMNE06.jpg,MN,1,num_6,16,num_6,1.03346432326,,,2017_Jul_13_1146,60.0094697481,MAFE4ImagesEEG,001,100916,
AFNE01.JPG,AFNE01.JPG,AFNE01.JPG,AFNE01.JPG,AFNE01.JPG,AFNE01.JPG,,,,,,,,,,,,,,,,,4,5,45,8,,,,,,,AMSA16.jpg,AMNE12.jpg,AMNE18.jpg,AMSA14.jpg,AMNE12.jpg,MN,1,num_6,32,num_2,0.950092661427,,,2017_Jul_13_1146,60.0094697481,MAFE4ImagesEEG,001,100916,
AFNE01.JPG,AFNE01.JPG,AFNE01.JPG,AFNE01.JPG,AFNE01.JPG,AFNE01.JPG,,,,,,,,,,,,,,,,,4,6,46,3,,,,,,,AMNE12.jpg,AMSA02.jpg,AMSA06.jpg,AMNE04.jpg,AMSA02.jpg,MS,2,num_6,16,num_6,0.700388864148,,,2017_Jul_13_1146,60.0094697481,MAFE4ImagesEEG,001,100916,
AFNE01.JPG,AFNE01.JPG,AFNE01.JPG,AFNE01.JPG,AFNE01.JPG,AFNE01.JPG,,,,,,,,,,,,,,,,,4,7,47,4,,,,,,,AMSA12.jpg,AMNE11.jpg,AMNE05.jpg,AMSA04.jpg,AMNE11.jpg,MN,1,num_6,16,num_6,1.03344058851,,,2017_Jul_13_1146,60.0094697481,MAFE4ImagesEEG,001,100916,
AFNE01.JPG,AFNE01.JPG,AFNE01.JPG,AFNE01.JPG,AFNE01.JPG,AFNE01.JPG,,,,,,,,,,,,,,,,,4,8,48,6,,,,,,,AMNE19.jpg,AMSA20.jpg,AMNE10.jpg,AMSA09.jpg,AMSA20.jpg,MS,2,num_6,16,num_6,0.883464226965,,,2017_Jul_13_1146,60.0094697481,MAFE4ImagesEEG,001,100916,
AFNE01.JPG,AFNE01.JPG,AFNE01.JPG,AFNE01.JPG,AFNE01.JPG,AFNE01.JPG,,,,,,,,,,,,,,,,,4,9,49,7,,,,,,,AMSA18.jpg,AMSA06.jpg,AMNE14.jpg,AMNE05.jpg,AMNE14.jpg,MN,1,num_2,16,num_2,1.11677985545,,,2017_Jul_13_1146,60.0094697481,MAFE4ImagesEEG,001,100916,
AFNE01.JPG,AFNE01.JPG,AFNE01.JPG,AFNE01.JPG,AFNE01.JPG,AFNE01.JPG,,,,,,,,,,,,,,,,,5,0,50,7,,,,,,,AMSA06.jpg,AMSA17.jpg,AMNE04.jpg,AMNE17.jpg,AMNE04.jpg,MN,1,num_2,32,num_4,1.04993075249,,,2017_Jul_13_1146,60.0094697481,MAFE4ImagesEEG,001,100916,
AFNE01.JPG,AFNE01.JPG,AFNE01.JPG,AFNE01.JPG,AFNE01.JPG,AFNE01.JPG,,,,,,,,,,,,,,,,,5,1,51,0,,,,,,,AMSA08.jpg,AMNE09.jpg,AMSA07.jpg,AMNE08.jpg,AMSA07.jpg,MS,2,num_2,32,num_4,0.783481162041,,,2017_Jul_13_1146,60.0094697481,MAFE4ImagesEEG,001,100916,
AFNE01.JPG,AFNE01.JPG,AFNE01.JPG,AFNE01.JPG,AFNE01.JPG,AFNE01.JPG,,,,,,,,,,,,,,,,,5,2,52,1,,,,,,,AMNE14.jpg,AMNE02.jpg,AMSA03.jpg,AMSA07.jpg,AMSA03.jpg,MS,2,num_2,16,num_2,1.233416982,,,2017_Jul_13_1146,60.0094697481,MAFE4ImagesEEG,001,100916,
AFNE01.JPG,AFNE01.JPG,AFNE01.JPG,AFNE01.JPG,AFNE01.JPG,AFNE01.JPG,,,,,,,,,,,,,,,,,5,3,53,8,,,,,,,AMSA09.jpg,AMSA03.jpg,AMNE02.jpg,AMNE10.jpg,AMSA09.jpg,MS,2,num_8,16,num_8,1.25008194894,,,2017_Jul_13_1146,60.0094697481,MAFE4ImagesEEG,001,100916,
AFNE01.JPG,AFNE01.JPG,AFNE01.JPG,AFNE01.JPG,AFNE01.JPG,AFNE01.JPG,,,,,,,,,,,,,,,,,5,4,54,5,,,,,,,AMSA14.jpg,AMNE12.jpg,AMSA20.jpg,AMNE04.jpg,AMSA14.jpg,MS,2,num_8,16,num_8,1.08341913112,,,2017_Jul_13_1146,60.0094697481,MAFE4ImagesEEG,001,100916,
AFNE01.JPG,AFNE01.JPG,AFNE01.JPG,AFNE01.JPG,AFNE01.JPG,AFNE01.JPG,,,,,,,,,,,,,,,,,5,5,55,2,,,,,,,AMSA03.jpg,AMNE12.jpg,AMNE03.jpg,AMSA19.jpg,AMNE03.jpg,MN,1,num_2,32,num_6,1.03349447274,,,2017_Jul_13_1146,60.0094697481,MAFE4ImagesEEG,001,100916,
AFNE01.JPG,AFNE01.JPG,AFNE01.JPG,AFNE01.JPG,AFNE01.JPG,AFNE01.JPG,,,,,,,,,,,,,,,,,5,6,56,6,,,,,,,AMSA10.jpg,AMNE01.jpg,AMSA18.jpg,AMNE17.jpg,AMNE01.jpg,MN,1,num_6,16,num_6,1.21674046875,,,2017_Jul_13_1146,60.0094697481,MAFE4ImagesEEG,001,100916,
AFNE01.JPG,AFNE01.JPG,AFNE01.JPG,AFNE01.JPG,AFNE01.JPG,AFNE01.JPG,,,,,,,,,,,,,,,,,5,7,57,3,,,,,,,AMNE14.jpg,AMNE17.jpg,AMSA18.jpg,AMSA01.jpg,AMSA18.jpg,MS,2,num_2,16,num_2,1.20008416194,,,2017_Jul_13_1146,60.0094697481,MAFE4ImagesEEG,001,100916,
AFNE01.JPG,AFNE01.JPG,AFNE01.JPG,AFNE01.JPG,AFNE01.JPG,AFNE01.JPG,,,,,,,,,,,,,,,,,5,8,58,9,,,,,,,AMNE07.jpg,AMNE15.jpg,AMSA16.jpg,AMSA08.jpg,AMNE07.jpg,MN,1,num_8,32,num_4,1.06678335159,,,2017_Jul_13_1146,60.0094697481,MAFE4ImagesEEG,001,100916,
AFNE01.JPG,AFNE01.JPG,AFNE01.JPG,AFNE01.JPG,AFNE01.JPG,AFNE01.JPG,,,,,,,,,,,,,,,,,5,9,59,4,,,,,,,AMNE01.jpg,AMSA08.jpg,AMNE20.jpg,AMSA01.jpg,AMSA01.jpg,MS,2,num_4,16,num_4,1.21708462178,,,2017_Jul_13_1146,60.0094697481,MAFE4ImagesEEG,001,100916,
,,,,,,,,,,,,,,,,,,,,,,,,,,,,,,,,,,,,,,,,,,,space,5.79972499819,2017_Jul_13_1146,60.0094697481,MAFE4ImagesEEG,001,100916,
AFNE01.JPG,AFNE01.JPG,AFNE01.JPG,AFNE01.JPG,AFNE01.JPG,AFNE01.JPG,,,,,,,,,,,,,,,,,,,,,0,0,0,1,,,AFNE20.jpg,AFSA18.jpg,AFNE03.jpg,AFSA05.jpg,AFNE03.jpg,FN,3,num_2,16,num_2,1.0500821413,,,2017_Jul_13_1146,60.0094697481,MAFE4ImagesEEG,001,100916,
AFNE01.JPG,AFNE01.JPG,AFNE01.JPG,AFNE01.JPG,AFNE01.JPG,AFNE01.JPG,,,,,,,,,,,,,,,,,,,,,0,1,1,6,,,AFSA03.jpg,AFNE06.jpg,AFNE13.jpg,AFSA06.jpg,AFNE13.jpg,FN,3,num_2,32,num_6,0.416888137115,,,2017_Jul_13_1146,60.0094697481,MAFE4ImagesEEG,001,100916,
AFNE01.JPG,AFNE01.JPG,AFNE01.JPG,AFNE01.JPG,AFNE01.JPG,AFNE01.JPG,,,,,,,,,,,,,,,,,,,,,0,2,2,7,,,AFNE13.jpg,AFSA20.jpg,AFNE06.jpg,AFSA07.jpg,AFSA07.jpg,FS,4,num_4,16,num_4,0.733465413796,,,2017_Jul_13_1146,60.0094697481,MAFE4ImagesEEG,001,100916,
AFNE01.JPG,AFNE01.JPG,AFNE01.JPG,AFNE01.JPG,AFNE01.JPG,AFNE01.JPG,,,,,,,,,,,,,,,,,,,,,0,3,3,8,,,AFNE03.jpg,AFNE04.jpg,AFSA13.jpg,AFSA10.jpg,AFSA10.jpg,FS,4,num_4,32,num_8,2.86656672438,,,2017_Jul_13_1146,60.0094697481,MAFE4ImagesEEG,001,100916,
AFNE01.JPG,AFNE01.JPG,AFNE01.JPG,AFNE01.JPG,AFNE01.JPG,AFNE01.JPG,,,,,,,,,,,,,,,,,,,,,0,4,4,4,,,AFNE20.jpg,AFSA07.jpg,AFNE02.jpg,AFSA16.jpg,AFNE20.jpg,FN,3,num_8,32,num_4,0.616810325766,,,2017_Jul_13_1146,60.0094697481,MAFE4ImagesEEG,001,100916,
AFNE01.JPG,AFNE01.JPG,AFNE01.JPG,AFNE01.JPG,AFNE01.JPG,AFNE01.JPG,,,,,,,,,,,,,,,,,,,,,0,5,5,9,,,AFSA01.jpg,AFSA11.jpg,AFNE18.jpg,AFNE08.jpg,AFSA11.jpg,FS,4,num_6,16,num_6,0.750150907785,,,2017_Jul_13_1146,60.0094697481,MAFE4ImagesEEG,001,100916,
AFNE01.JPG,AFNE01.JPG,AFNE01.JPG,AFNE01.JPG,AFNE01.JPG,AFNE01.JPG,,,,,,,,,,,,,,,,,,,,,0,6,6,5,,,AFSA07.jpg,AFNE19.jpg,AFNE15.jpg,AFSA17.jpg,AFSA07.jpg,FS,4,num_8,32,num_2,1.36641212809,,,2017_Jul_13_1146,60.0094697481,MAFE4ImagesEEG,001,100916,
AFNE01.JPG,AFNE01.JPG,AFNE01.JPG,AFNE01.JPG,AFNE01.JPG,AFNE01.JPG,,,,,,,,,,,,,,,,,,,,,0,7,7,3,,,AFSA17.jpg,AFNE16.jpg,AFSA20.jpg,AFNE20.jpg,AFNE16.jpg,FN,3,num_6,32,num_4,1.43342512893,,,2017_Jul_13_1146,60.0094697481,MAFE4ImagesEEG,001,100916,
AFNE01.JPG,AFNE01.JPG,AFNE01.JPG,AFNE01.JPG,AFNE01.JPG,AFNE01.JPG,,,,,,,,,,,,,,,,,,,,,0,8,8,0,,,AFSA14.jpg,AFNE20.jpg,AFSA04.jpg,AFNE05.jpg,AFSA14.jpg,FS,4,num_8,16,num_8,2.44988129428,,,2017_Jul_13_1146,60.0094697481,MAFE4ImagesEEG,001,100916,
AFNE01.JPG,AFNE01.JPG,AFNE01.JPG,AFNE01.JPG,AFNE01.JPG,AFNE01.JPG,,,,,,,,,,,,,,,,,,,,,0,9,9,2,,,AFNE08.jpg,AFSA11.jpg,AFSA19.jpg,AFNE19.jpg,AFSA19.jpg,FS,4,num_2,16,num_2,0.800144845853,,,2017_Jul_13_1146,60.0094697481,MAFE4ImagesEEG,001,100916,
AFNE01.JPG,AFNE01.JPG,AFNE01.JPG,AFNE01.JPG,AFNE01.JPG,AFNE01.JPG,,,,,,,,,,,,,,,,,,,,,1,0,10,9,,,AFSA15.jpg,AFSA14.jpg,AFNE11.jpg,AFNE10.jpg,AFSA15.jpg,FS,4,num_8,16,num_8,0.683520548744,,,2017_Jul_13_1146,60.0094697481,MAFE4ImagesEEG,001,100916,
AFNE01.JPG,AFNE01.JPG,AFNE01.JPG,AFNE01.JPG,AFNE01.JPG,AFNE01.JPG,,,,,,,,,,,,,,,,,,,,,1,1,11,5,,,AFSA09.jpg,AFSA14.jpg,AFNE10.jpg,AFNE18.jpg,AFNE18.jpg,FN,3,num_4,32,num_2,0.883463585749,,,2017_Jul_13_1146,60.0094697481,MAFE4ImagesEEG,001,100916,
AFNE01.JPG,AFNE01.JPG,AFNE01.JPG,AFNE01.JPG,AFNE01.JPG,AFNE01.JPG,,,,,,,,,,,,,,,,,,,,,1,2,12,6,,,AFNE19.jpg,AFNE18.jpg,AFSA15.jpg,AFSA07.jpg,AFSA15.jpg,FS,4,num_2,32,num_8,1.1334207668,,,2017_Jul_13_1146,60.0094697481,MAFE4ImagesEEG,001,100916,
AFNE01.JPG,AFNE01.JPG,AFNE01.JPG,AFNE01.JPG,AFNE01.JPG,AFNE01.JPG,,,,,,,,,,,,,,,,,,,,,1,3,13,2,,,AFSA17.jpg,AFSA07.jpg,AFNE20.jpg,AFNE07.jpg,AFSA17.jpg,FS,4,num_8,32,num_6,0.633461821591,,,2017_Jul_13_1146,60.0094697481,MAFE4ImagesEEG,001,100916,
AFNE01.JPG,AFNE01.JPG,AFNE01.JPG,AFNE01.JPG,AFNE01.JPG,AFNE01.JPG,,,,,,,,,,,,,,,,,,,,,1,4,14,4,,,AFNE15.jpg,AFSA01.jpg,AFSA16.jpg,AFNE17.jpg,AFNE17.jpg,FN,3,num_4,32,num_2,0.733518014895,,,2017_Jul_13_1146,60.0094697481,MAFE4ImagesEEG,001,100916,
AFNE01.JPG,AFNE01.JPG,AFNE01.JPG,AFNE01.JPG,AFNE01.JPG,AFNE01.JPG,,,,,,,,,,,,,,,,,,,,,1,5,15,8,,,AFSA09.jpg,AFSA07.jpg,AFNE18.jpg,AFNE04.jpg,AFNE04.jpg,FN,3,num_4,16,num_4,1.13345284085,,,2017_Jul_13_1146,60.0094697481,MAFE4ImagesEEG,001,100916,
AFNE01.JPG,AFNE01.JPG,AFNE01.JPG,AFNE01.JPG,AFNE01.JPG,AFNE01.JPG,,,,,,,,,,,,,,,,,,,,,1,6,16,7,,,AFNE06.jpg,AFSA09.jpg,AFSA02.jpg,AFNE07.jpg,AFSA09.jpg,FS,4,num_6,16,num_6,1.28343016445,,,2017_Jul_13_1146,60.0094697481,MAFE4ImagesEEG,001,100916,
AFNE01.JPG,AFNE01.JPG,AFNE01.JPG,AFNE01.JPG,AFNE01.JPG,AFNE01.JPG,,,,,,,,,,,,,,,,,,,,,1,7,17,3,,,AFNE18.jpg,AFSA11.jpg,AFSA02.jpg,AFNE01.jpg,AFNE18.jpg,FN,3,num_8,16,num_8,1.16672311677,,,2017_Jul_13_1146,60.0094697481,MAFE4ImagesEEG,001,100916,
AFNE01.JPG,AFNE01.JPG,AFNE01.JPG,AFNE01.JPG,AFNE01.JPG,AFNE01.JPG,,,,,,,,,,,,,,,,,,,,,1,8,18,1,,,AFNE08.jpg,AFSA12.jpg,AFSA05.jpg,AFNE15.jpg,AFSA05.jpg,FS,4,num_2,32,num_6,2.29986099177,,,2017_Jul_13_1146,60.0094697481,MAFE4ImagesEEG,001,100916,
AFNE01.JPG,AFNE01.JPG,AFNE01.JPG,AFNE01.JPG,AFNE01.JPG,AFNE01.JPG,,,,,,,,,,,,,,,,,,,,,1,9,19,0,,,AFSA09.jpg,AFSA02.jpg,AFNE14.jpg,AFNE18.jpg,AFNE18.jpg,FN,3,num_4,16,num_4,0.717098734574,,,2017_Jul_13_1146,60.0094697481,MAFE4ImagesEEG,001,100916,
AFNE01.JPG,AFNE01.JPG,AFNE01.JPG,AFNE01.JPG,AFNE01.JPG,AFNE01.JPG,,,,,,,,,,,,,,,,,,,,,2,0,20,8,,,AFSA01.jpg,AFSA07.jpg,AFNE12.jpg,AFNE03.jpg,AFNE12.jpg,FN,3,num_2,16,num_2,0.90015228698,,,2017_Jul_13_1146,60.0094697481,MAFE4ImagesEEG,001,100916,
AFNE01.JPG,AFNE01.JPG,AFNE01.JPG,AFNE01.JPG,AFNE01.JPG,AFNE01.JPG,,,,,,,,,,,,,,,,,,,,,2,1,21,4,,,AFNE20.jpg,AFSA07.jpg,AFNE15.jpg,AFSA02.jpg,AFSA02.jpg,FS,4,num_4,32,num_8,1.28346897406,,,2017_Jul_13_1146,60.0094697481,MAFE4ImagesEEG,001,100916,
AFNE01.JPG,AFNE01.JPG,AFNE01.JPG,AFNE01.JPG,AFNE01.JPG,AFNE01.JPG,,,,,,,,,,,,,,,,,,,,,2,2,22,9,,,AFSA10.jpg,AFSA17.jpg,AFNE01.jpg,AFNE13.jpg,AFSA10.jpg,FS,4,num_8,16,num_8,0.816427491372,,,2017_Jul_13_1146,60.0094697481,MAFE4ImagesEEG,001,100916,
AFNE01.JPG,AFNE01.JPG,AFNE01.JPG,AFNE01.JPG,AFNE01.JPG,AFNE01.JPG,,,,,,,,,,,,,,,,,,,,,2,3,23,6,,,AFNE11.jpg,AFSA11.jpg,AFSA10.jpg,AFNE13.jpg,AFSA10.jpg,FS,4,num_2,32,num_4,0.91677523707,,,2017_Jul_13_1146,60.0094697481,MAFE4ImagesEEG,001,100916,
AFNE01.JPG,AFNE01.JPG,AFNE01.JPG,AFNE01.JPG,AFNE01.JPG,AFNE01.JPG,,,,,,,,,,,,,,,,,,,,,2,4,24,1,,,AFSA10.jpg,AFNE19.jpg,AFSA15.jpg,AFNE11.jpg,AFSA15.jpg,FS,4,num_2,32,num_6,0.416640205542,,,2017_Jul_13_1146,60.0094697481,MAFE4ImagesEEG,001,100916,
AFNE01.JPG,AFNE01.JPG,AFNE01.JPG,AFNE01.JPG,AFNE01.JPG,AFNE01.JPG,,,,,,,,,,,,,,,,,,,,,2,5,25,7,,,AFSA15.jpg,AFNE18.jpg,AFNE16.jpg,AFSA20.jpg,AFSA20.jpg,FS,4,num_4,32,num_6,0.883454605006,,,2017_Jul_13_1146,60.0094697481,MAFE4ImagesEEG,001,100916,
AFNE01.JPG,AFNE01.JPG,AFNE01.JPG,AFNE01.JPG,AFNE01.JPG,AFNE01.JPG,,,,,,,,,,,,,,,,,,,,,2,6,26,3,,,AFNE15.jpg,AFNE08.jpg,AFSA11.jpg,AFSA05.jpg,AFSA05.jpg,FS,4,num_4,16,num_4,0.750129739055,,,2017_Jul_13_1146,60.0094697481,MAFE4ImagesEEG,001,100916,
AFNE01.JPG,AFNE01.JPG,AFNE01.JPG,AFNE01.JPG,AFNE01.JPG,AFNE01.JPG,,,,,,,,,,,,,,,,,,,,,2,7,27,5,,,AFSA04.jpg,AFNE03.jpg,AFNE04.jpg,AFSA05.jpg,AFSA05.jpg,FS,4,num_4,32,num_6,0.666785340291,,,2017_Jul_13_1146,60.0094697481,MAFE4ImagesEEG,001,100916,
AFNE01.JPG,AFNE01.JPG,AFNE01.JPG,AFNE01.JPG,AFNE01.JPG,AFNE01.JPG,,,,,,,,,,,,,,,,,,,,,2,8,28,0,,,AFSA07.jpg,AFNE13.jpg,AFSA10.jpg,AFNE10.jpg,AFSA10.jpg,FS,4,num_2,32,num_6,0.949829014018,,,2017_Jul_13_1146,60.0094697481,MAFE4ImagesEEG,001,100916,
AFNE01.JPG,AFNE01.JPG,AFNE01.JPG,AFNE01.JPG,AFNE01.JPG,AFNE01.JPG,,,,,,,,,,,,,,,,,,,,,2,9,29,2,,,AFSA13.jpg,AFNE07.jpg,AFNE16.jpg,AFSA14.jpg,AFSA13.jpg,FS,4,num_8,16,num_8,0.750120758312,,,2017_Jul_13_1146,60.0094697481,MAFE4ImagesEEG,001,100916,
AFNE01.JPG,AFNE01.JPG,AFNE01.JPG,AFNE01.JPG,AFNE01.JPG,AFNE01.JPG,,,,,,,,,,,,,,,,,,,,,3,0,30,6,,,AFNE16.jpg,AFNE06.jpg,AFSA10.jpg,AFSA18.jpg,AFNE16.jpg,FN,3,num_8,32,num_6,0.683468909701,,,2017_Jul_13_1146,60.0094697481,MAFE4ImagesEEG,001,100916,
AFNE01.JPG,AFNE01.JPG,AFNE01.JPG,AFNE01.JPG,AFNE01.JPG,AFNE01.JPG,,,,,,,,,,,,,,,,,,,,,3,1,31,0,,,AFNE11.jpg,AFNE05.jpg,AFSA19.jpg,AFSA13.jpg,AFSA13.jpg,FS,4,num_4,16,num_4,0.816779663088,,,2017_Jul_13_1146,60.0094697481,MAFE4ImagesEEG,001,100916,
AFNE01.JPG,AFNE01.JPG,AFNE01.JPG,AFNE01.JPG,AFNE01.JPG,AFNE01.JPG,,,,,,,,,,,,,,,,,,,,,3,2,32,8,,,AFNE04.jpg,AFNE14.jpg,AFSA12.jpg,AFSA06.jpg,AFNE14.jpg,FN,3,num_6,16,num_6,0.833441743162,,,2017_Jul_13_1146,60.0094697481,MAFE4ImagesEEG,001,100916,
AFNE01.JPG,AFNE01.JPG,AFNE01.JPG,AFNE01.JPG,AFNE01.JPG,AFNE01.JPG,,,,,,,,,,,,,,,,,,,,,3,3,33,5,,,AFSA15.jpg,AFSA18.jpg,AFNE17.jpg,AFNE12.jpg,AFNE17.jpg,FN,3,num_2,32,num_6,1.15011299658,,,2017_Jul_13_1146,60.0094697481,MAFE4ImagesEEG,001,100916,
AFNE01.JPG,AFNE01.JPG,AFNE01.JPG,AFNE01.JPG,AFNE01.JPG,AFNE01.JPG,,,,,,,,,,,,,,,,,,,,,3,4,34,1,,,AFNE03.jpg,AFSA17.jpg,AFSA03.jpg,AFNE19.jpg,AFSA03.jpg,FS,4,num_2,16,num_2,2.06666018767,,,2017_Jul_13_1146,60.0094697481,MAFE4ImagesEEG,001,100916,
AFNE01.JPG,AFNE01.JPG,AFNE01.JPG,AFNE01.JPG,AFNE01.JPG,AFNE01.JPG,,,,,,,,,,,,,,,,,,,,,3,5,35,2,,,AFNE08.jpg,AFSA19.jpg,AFNE05.jpg,AFSA11.jpg,AFSA11.jpg,FS,4,num_4,16,num_4,1.21671994147,,,2017_Jul_13_1146,60.0094697481,MAFE4ImagesEEG,001,100916,
AFNE01.JPG,AFNE01.JPG,AFNE01.JPG,AFNE01.JPG,AFNE01.JPG,AFNE01.JPG,,,,,,,,,,,,,,,,,,,,,3,6,36,7,,,AFSA07.jpg,AFNE14.jpg,AFNE12.jpg,AFSA13.jpg,AFSA07.jpg,FS,4,num_8,16,num_8,1.28344491846,,,2017_Jul_13_1146,60.0094697481,MAFE4ImagesEEG,001,100916,
AFNE01.JPG,AFNE01.JPG,AFNE01.JPG,AFNE01.JPG,AFNE01.JPG,AFNE01.JPG,,,,,,,,,,,,,,,,,,,,,3,7,37,9,,,AFSA07.jpg,AFSA05.jpg,AFNE17.jpg,AFNE07.jpg,AFSA07.jpg,FS,4,num_8,16,num_8,0.616764139151,,,2017_Jul_13_1146,60.0094697481,MAFE4ImagesEEG,001,100916,
AFNE01.JPG,AFNE01.JPG,AFNE01.JPG,AFNE01.JPG,AFNE01.JPG,AFNE01.JPG,,,,,,,,,,,,,,,,,,,,,3,8,38,3,,,AFNE19.jpg,AFSA20.jpg,AFSA01.jpg,AFNE10.jpg,AFSA01.jpg,FS,4,num_2,32,num_4,1.18343683588,,,2017_Jul_13_1146,60.0094697481,MAFE4ImagesEEG,001,100916,
