IPosition2,IPosition3,IPosition1,IPosition6,IPosition4,IPosition5,TrialsF1.thisRepN,TrialsF1.thisTrialN,TrialsF1.thisN,TrialsF1.thisIndex,TrialsM1.thisRepN,TrialsM1.thisTrialN,TrialsM1.thisN,TrialsM1.thisIndex,TrialsF2.thisRepN,TrialsF2.thisTrialN,TrialsF2.thisN,TrialsF2.thisIndex,TrialsM2.thisRepN,TrialsM2.thisTrialN,TrialsM2.thisN,TrialsM2.thisIndex,TrialsF3.thisRepN,TrialsF3.thisTrialN,TrialsF3.thisN,TrialsF3.thisIndex,TrialsM3.thisRepN,TrialsM3.thisTrialN,TrialsM3.thisN,TrialsM3.thisIndex,InstrKey_resp.keys,InstrKey_resp.rt,Image0 _Position,Image1 _Position,Image2 _Position,Image3 _Position,Center_image,condition,code,correct_answer,accuracy,Key_Resp.keys,Key_Resp.rt,BreakKey_resp.keys,BreakKey_resp.rt,date,frameRate,expName,session,participant,
,,,,,,,,,,,,,,,,,,,,,,,,,,,,,,space,23.0488567379,,,,,,,,,,,,,,2017_Jul_24_1506,60.0202712009,FEMA4ImagesEEG,001,101038,
AFNE22.JPG,AFSA24.JPG,AFSA22.JPG,AFNE25.JPG,AFNE24.JPG,AFSA25.JPG,0,0,0,6,,,,,,,,,,,,,,,,,,,,,,,AFNE03.jpg,AFNE15.jpg,AFSA19.jpg,AFSA09.jpg,AFSA19.jpg,FS,4,num_2,32,num_8,1.08344599337,,,2017_Jul_24_1506,60.0202712009,FEMA4ImagesEEG,001,101038,
AMSA21.JPG,AMNE23.JPG,AMNE21.JPG,AMSA25.JPG,AMNE25.JPG,AMSA23.JPG,0,1,1,5,,,,,,,,,,,,,,,,,,,,,,,AFNE12.jpg,AFSA04.jpg,AFNE03.jpg,AFSA14.jpg,AFSA14.jpg,FS,4,num_4,32,num_8,2.33330927789,,,2017_Jul_24_1506,60.0202712009,FEMA4ImagesEEG,001,101038,
AFSA21.JPG,AFNE23.JPG,AFNE21.JPG,AFSA25.JPG,AFNE25.JPG,AFSA23.JPG,0,2,2,4,,,,,,,,,,,,,,,,,,,,,,,AFSA11.jpg,AFNE18.jpg,AFSA18.jpg,AFNE05.jpg,AFNE18.jpg,FN,3,num_6,16,num_6,0.783463216969,,,2017_Jul_24_1506,60.0202712009,FEMA4ImagesEEG,001,101038,
AMNE22.JPG,AMSA24.JPG,AMSA22.JPG,AMNE25.JPG,AMNE24.JPG,AMSA25.JPG,0,3,3,7,,,,,,,,,,,,,,,,,,,,,,,AFSA19.jpg,AFSA16.jpg,AFNE11.jpg,AFNE02.jpg,AFSA19.jpg,FS,4,num_8,32,num_2,1.01674231316,,,2017_Jul_24_1506,60.0202712009,FEMA4ImagesEEG,001,101038,
AFSA25.JPG,AFNE24.JPG,AFSA24.JPG,AFNE21.JPG,AFSA21.JPG,AFNE25.JPG,0,4,4,2,,,,,,,,,,,,,,,,,,,,,,,AFNE17.jpg,AFSA05.jpg,AFSA07.jpg,AFNE04.jpg,AFNE04.jpg,FN,3,num_4,16,num_4,1.15006275277,,,2017_Jul_24_1506,60.0202712009,FEMA4ImagesEEG,001,101038,
AMSA21.JPG,AMNE22.JPG,AMNE21.JPG,AMSA23.JPG,AMSA22.JPG,AMNE23.JPG,0,5,5,1,,,,,,,,,,,,,,,,,,,,,,,AFNE16.jpg,AFSA03.jpg,AFSA20.jpg,AFNE17.jpg,AFSA20.jpg,FS,4,num_2,16,num_2,0.633494441048,,,2017_Jul_24_1506,60.0202712009,FEMA4ImagesEEG,001,101038,
AFNE23.JPG,AFNE24.JPG,AFNE22.JPG,AFSA24.JPG,AFSA22.JPG,AFSA23.JPG,0,6,6,8,,,,,,,,,,,,,,,,,,,,,,,AFSA16.jpg,AFSA01.jpg,AFNE08.jpg,AFNE06.jpg,AFSA01.jpg,FS,4,num_6,32,num_8,1.13345098076,,,2017_Jul_24_1506,60.0202712009,FEMA4ImagesEEG,001,101038,
AMSA25.JPG,AMNE24.JPG,AMSA24.JPG,AMNE26.JPG,AMSA21.JPG,AMNE25.JPG,0,7,7,3,,,,,,,,,,,,,,,,,,,,,,,AFSA13.jpg,AFSA03.jpg,AFNE17.jpg,AFNE10.jpg,AFNE10.jpg,FN,3,num_4,16,num_4,0.550114520243,,,2017_Jul_24_1506,60.0202712009,FEMA4ImagesEEG,001,101038,
AFSA21.JPG,AFNE22.JPG,AFNE21.JPG,AFSA23.JPG,AFSA22.JPG,AFNE23.JPG,0,8,8,0,,,,,,,,,,,,,,,,,,,,,,,AFSA15.jpg,AFNE19.jpg,AFSA03.jpg,AFNE03.jpg,AFNE19.jpg,FN,3,num_6,16,num_6,1.06673318823,,,2017_Jul_24_1506,60.0202712009,FEMA4ImagesEEG,001,101038,
AMNE23.JPG,AMNE24.JPG,AMNE22.JPG,AMSA24.JPG,AMSA22.JPG,AMSA23.JPG,0,9,9,9,,,,,,,,,,,,,,,,,,,,,,,AFNE13.jpg,AFSA15.jpg,AFSA20.jpg,AFNE01.jpg,AFNE01.jpg,FN,3,num_4,32,num_8,0.933584023849,,,2017_Jul_24_1506,60.0202712009,FEMA4ImagesEEG,001,101038,
AFSA25.JPG,AFNE24.JPG,AFSA24.JPG,AFNE21.JPG,AFSA21.JPG,AFNE25.JPG,,,,,0,0,0,2,,,,,,,,,,,,,,,,,,,AMSA08.jpg,AMNE10.jpg,AMSA10.jpg,AMNE08.jpg,AMNE10.jpg,MN,1,num_6,32,num_4,1.21674494329,,,2017_Jul_24_1506,60.0202712009,FEMA4ImagesEEG,001,101038,
AMSA25.JPG,AMNE24.JPG,AMSA24.JPG,AMNE26.JPG,AMSA21.JPG,AMNE25.JPG,,,,,0,1,1,3,,,,,,,,,,,,,,,,,,,AMSA16.jpg,AMSA01.jpg,AMNE05.jpg,AMNE11.jpg,AMSA01.jpg,MS,2,num_6,16,num_6,1.10009593342,,,2017_Jul_24_1506,60.0202712009,FEMA4ImagesEEG,001,101038,
AFSA21.JPG,AFNE23.JPG,AFNE21.JPG,AFSA25.JPG,AFNE25.JPG,AFSA23.JPG,,,,,0,2,2,4,,,,,,,,,,,,,,,,,,,AMNE01.jpg,AMNE09.jpg,AMSA02.jpg,AMSA03.jpg,AMNE01.jpg,MN,1,num_8,32,num_6,1.28342841682,,,2017_Jul_24_1506,60.0202712009,FEMA4ImagesEEG,001,101038,
AMNE23.JPG,AMNE24.JPG,AMNE22.JPG,AMSA24.JPG,AMSA22.JPG,AMSA23.JPG,,,,,0,3,3,9,,,,,,,,,,,,,,,,,,,AMSA17.jpg,AMSA19.jpg,AMNE17.jpg,AMNE10.jpg,AMNE10.jpg,MN,1,num_4,16,num_4,0.616757580545,,,2017_Jul_24_1506,60.0202712009,FEMA4ImagesEEG,001,101038,
AFNE22.JPG,AFSA24.JPG,AFSA22.JPG,AFNE25.JPG,AFNE24.JPG,AFSA25.JPG,,,,,0,4,4,6,,,,,,,,,,,,,,,,,,,AMSA01.jpg,AMSA09.jpg,AMNE18.jpg,AMNE09.jpg,AMSA09.jpg,MS,2,num_6,16,num_6,1.70001048828,,,2017_Jul_24_1506,60.0202712009,FEMA4ImagesEEG,001,101038,
AFNE23.JPG,AFNE24.JPG,AFNE22.JPG,AFSA24.JPG,AFSA22.JPG,AFSA23.JPG,,,,,0,5,5,8,,,,,,,,,,,,,,,,,,,AMSA06.jpg,AMNE02.jpg,AMSA14.jpg,AMNE16.jpg,AMNE16.jpg,MN,1,num_4,16,num_4,1.40008287923,,,2017_Jul_24_1506,60.0202712009,FEMA4ImagesEEG,001,101038,
AMNE22.JPG,AMSA24.JPG,AMSA22.JPG,AMNE25.JPG,AMNE24.JPG,AMSA25.JPG,,,,,0,6,6,7,,,,,,,,,,,,,,,,,,,AMSA15.jpg,AMNE18.jpg,AMNE08.jpg,AMSA04.jpg,AMSA15.jpg,MS,2,num_8,16,num_8,0.783430501586,,,2017_Jul_24_1506,60.0202712009,FEMA4ImagesEEG,001,101038,
AFSA21.JPG,AFNE22.JPG,AFNE21.JPG,AFSA23.JPG,AFSA22.JPG,AFNE23.JPG,,,,,0,7,7,0,,,,,,,,,,,,,,,,,,,AMSA06.jpg,AMNE17.jpg,AMNE05.jpg,AMSA20.jpg,AMSA06.jpg,MS,2,num_8,32,num_2,1.25021000463,,,2017_Jul_24_1506,60.0202712009,FEMA4ImagesEEG,001,101038,
AMSA21.JPG,AMNE22.JPG,AMNE21.JPG,AMSA23.JPG,AMSA22.JPG,AMNE23.JPG,,,,,0,8,8,1,,,,,,,,,,,,,,,,,,,AMSA15.jpg,AMSA02.jpg,AMNE17.jpg,AMNE03.jpg,AMSA15.jpg,MS,2,num_8,16,num_8,0.58363891847,,,2017_Jul_24_1506,60.0202712009,FEMA4ImagesEEG,001,101038,
AMSA21.JPG,AMNE23.JPG,AMNE21.JPG,AMSA25.JPG,AMNE25.JPG,AMSA23.JPG,,,,,0,9,9,5,,,,,,,,,,,,,,,,,,,AMNE04.jpg,AMNE12.jpg,AMSA14.jpg,AMSA13.jpg,AMSA13.jpg,MS,2,num_4,32,num_6,1.21673692483,,,2017_Jul_24_1506,60.0202712009,FEMA4ImagesEEG,001,101038,
AFNE23.JPG,AFNE24.JPG,AFNE22.JPG,AFSA24.JPG,AFSA22.JPG,AFSA23.JPG,,,,,,,,,0,0,0,8,,,,,,,,,,,,,,,AFSA15.jpg,AFNE13.jpg,AFNE05.jpg,AFSA16.jpg,AFSA16.jpg,FS,4,num_4,16,num_4,0.983442753786,,,2017_Jul_24_1506,60.0202712009,FEMA4ImagesEEG,001,101038,
AFNE22.JPG,AFSA24.JPG,AFSA22.JPG,AFNE25.JPG,AFNE24.JPG,AFSA25.JPG,,,,,,,,,0,1,1,6,,,,,,,,,,,,,,,AFNE14.jpg,AFSA13.jpg,AFNE15.jpg,AFSA03.jpg,AFNE15.jpg,FN,3,num_2,16,num_2,0.700208384893,,,2017_Jul_24_1506,60.0202712009,FEMA4ImagesEEG,001,101038,
AFSA21.JPG,AFNE22.JPG,AFNE21.JPG,AFSA23.JPG,AFSA22.JPG,AFNE23.JPG,,,,,,,,,0,2,2,0,,,,,,,,,,,,,,,AFNE19.jpg,AFSA11.jpg,AFSA04.jpg,AFNE20.jpg,AFSA04.jpg,FS,4,num_2,32,num_8,1.15008039353,,,2017_Jul_24_1506,60.0202712009,FEMA4ImagesEEG,001,101038,
AMSA21.JPG,AMNE22.JPG,AMNE21.JPG,AMSA23.JPG,AMSA22.JPG,AMNE23.JPG,,,,,,,,,0,3,3,1,,,,,,,,,,,,,,,AFSA01.jpg,AFNE14.jpg,AFNE18.jpg,AFSA11.jpg,AFNE14.jpg,FN,3,num_6,16,num_6,0.966615765239,,,2017_Jul_24_1506,60.0202712009,FEMA4ImagesEEG,001,101038,
AMSA25.JPG,AMNE24.JPG,AMSA24.JPG,AMNE26.JPG,AMSA21.JPG,AMNE25.JPG,,,,,,,,,0,4,4,3,,,,,,,,,,,,,,,AFSA18.jpg,AFSA06.jpg,AFNE13.jpg,AFNE16.jpg,AFNE16.jpg,FN,3,num_4,32,num_8,1.01680100872,,,2017_Jul_24_1506,60.0202712009,FEMA4ImagesEEG,001,101038,
AFSA25.JPG,AFNE24.JPG,AFSA24.JPG,AFNE21.JPG,AFSA21.JPG,AFNE25.JPG,,,,,,,,,0,5,5,2,,,,,,,,,,,,,,,AFNE14.jpg,AFSA12.jpg,AFSA19.jpg,AFNE01.jpg,AFSA12.jpg,FS,4,num_6,32,num_4,1.73337291274,,,2017_Jul_24_1506,60.0202712009,FEMA4ImagesEEG,001,101038,
AMSA21.JPG,AMNE23.JPG,AMNE21.JPG,AMSA25.JPG,AMNE25.JPG,AMSA23.JPG,,,,,,,,,0,6,6,5,,,,,,,,,,,,,,,AFNE02.jpg,AFSA08.jpg,AFSA07.jpg,AFNE17.jpg,AFNE17.jpg,FN,3,num_4,16,num_4,0.683312757872,,,2017_Jul_24_1506,60.0202712009,FEMA4ImagesEEG,001,101038,
AMNE23.JPG,AMNE24.JPG,AMNE22.JPG,AMSA24.JPG,AMSA22.JPG,AMSA23.JPG,,,,,,,,,0,7,7,9,,,,,,,,,,,,,,,AFNE11.jpg,AFSA18.jpg,AFSA06.jpg,AFNE07.jpg,AFNE11.jpg,FN,3,num_8,16,num_8,1.33342506504,,,2017_Jul_24_1506,60.0202712009,FEMA4ImagesEEG,001,101038,
AMNE22.JPG,AMSA24.JPG,AMSA22.JPG,AMNE25.JPG,AMNE24.JPG,AMSA25.JPG,,,,,,,,,0,8,8,7,,,,,,,,,,,,,,,AFNE09.jpg,AFNE15.jpg,AFSA14.jpg,AFSA08.jpg,AFSA14.jpg,FS,4,num_2,16,num_2,0.916792316595,,,2017_Jul_24_1506,60.0202712009,FEMA4ImagesEEG,001,101038,
AFSA21.JPG,AFNE23.JPG,AFNE21.JPG,AFSA25.JPG,AFNE25.JPG,AFSA23.JPG,,,,,,,,,0,9,9,4,,,,,,,,,,,,,,,AFNE07.jpg,AFNE08.jpg,AFSA19.jpg,AFSA14.jpg,AFNE08.jpg,FN,3,num_6,32,num_8,1.7500728881,,,2017_Jul_24_1506,60.0202712009,FEMA4ImagesEEG,001,101038,
AMNE23.JPG,AMNE24.JPG,AMNE22.JPG,AMSA24.JPG,AMSA22.JPG,AMSA23.JPG,,,,,,,,,,,,,0,0,0,9,,,,,,,,,,,AMNE01.jpg,AMSA05.jpg,AMNE10.jpg,AMSA18.jpg,AMSA18.jpg,MS,2,num_4,16,num_4,1.01680068788,,,2017_Jul_24_1506,60.0202712009,FEMA4ImagesEEG,001,101038,
AFSA21.JPG,AFNE22.JPG,AFNE21.JPG,AFSA23.JPG,AFSA22.JPG,AFNE23.JPG,,,,,,,,,,,,,0,1,1,0,,,,,,,,,,,AMSA10.jpg,AMNE03.jpg,AMSA15.jpg,AMNE14.jpg,AMNE14.jpg,MN,1,num_4,32,num_6,1.10013410146,,,2017_Jul_24_1506,60.0202712009,FEMA4ImagesEEG,001,101038,
AMSA21.JPG,AMNE23.JPG,AMNE21.JPG,AMSA25.JPG,AMNE25.JPG,AMSA23.JPG,,,,,,,,,,,,,0,2,2,5,,,,,,,,,,,AMSA01.jpg,AMNE03.jpg,AMNE04.jpg,AMSA06.jpg,AMNE03.jpg,MN,1,num_6,32,num_2,1.80002302921,,,2017_Jul_24_1506,60.0202712009,FEMA4ImagesEEG,001,101038,
AFSA21.JPG,AFNE23.JPG,AFNE21.JPG,AFSA25.JPG,AFNE25.JPG,AFSA23.JPG,,,,,,,,,,,,,0,3,3,4,,,,,,,,,,,AMNE12.jpg,AMSA13.jpg,AMNE19.jpg,AMSA20.jpg,AMSA20.jpg,MS,2,num_4,32,num_2,0.766763241496,,,2017_Jul_24_1506,60.0202712009,FEMA4ImagesEEG,001,101038,
AFNE22.JPG,AFSA24.JPG,AFSA22.JPG,AFNE25.JPG,AFNE24.JPG,AFSA25.JPG,,,,,,,,,,,,,0,4,4,6,,,,,,,,,,,AMSA10.jpg,AMSA14.jpg,AMNE17.jpg,AMNE04.jpg,AMNE17.jpg,MN,1,num_2,16,num_2,1.2667172153,,,2017_Jul_24_1506,60.0202712009,FEMA4ImagesEEG,001,101038,
AMSA25.JPG,AMNE24.JPG,AMSA24.JPG,AMNE26.JPG,AMSA21.JPG,AMNE25.JPG,,,,,,,,,,,,,0,5,5,3,,,,,,,,,,,AMNE02.jpg,AMNE18.jpg,AMSA07.jpg,AMSA20.jpg,AMSA20.jpg,MS,2,num_4,16,num_4,0.80012694886,,,2017_Jul_24_1506,60.0202712009,FEMA4ImagesEEG,001,101038,
AFNE23.JPG,AFNE24.JPG,AFNE22.JPG,AFSA24.JPG,AFSA22.JPG,AFSA23.JPG,,,,,,,,,,,,,0,6,6,8,,,,,,,,,,,AMNE07.jpg,AMNE13.jpg,AMSA01.jpg,AMSA12.jpg,AMNE07.jpg,MN,1,num_8,32,num_6,1.26669315971,,,2017_Jul_24_1506,60.0202712009,FEMA4ImagesEEG,001,101038,
AFSA25.JPG,AFNE24.JPG,AFSA24.JPG,AFNE21.JPG,AFSA21.JPG,AFNE25.JPG,,,,,,,,,,,,,0,7,7,2,,,,,,,,,,,AMNE09.jpg,AMSA09.jpg,AMNE19.jpg,AMSA04.jpg,AMSA04.jpg,MS,2,num_4,32,num_2,1.89974626247,,,2017_Jul_24_1506,60.0202712009,FEMA4ImagesEEG,001,101038,
AMSA21.JPG,AMNE22.JPG,AMNE21.JPG,AMSA23.JPG,AMSA22.JPG,AMNE23.JPG,,,,,,,,,,,,,0,8,8,1,,,,,,,,,,,AMSA20.jpg,AMNE10.jpg,AMNE15.jpg,AMSA12.jpg,AMSA12.jpg,MS,2,num_4,32,num_2,1.03353273752,,,2017_Jul_24_1506,60.0202712009,FEMA4ImagesEEG,001,101038,
AMNE22.JPG,AMSA24.JPG,AMSA22.JPG,AMNE25.JPG,AMNE24.JPG,AMSA25.JPG,,,,,,,,,,,,,0,9,9,7,,,,,,,,,,,AMNE03.jpg,AMSA10.jpg,AMSA06.jpg,AMNE09.jpg,AMNE03.jpg,MN,1,num_8,32,num_4,0.84996290633,,,2017_Jul_24_1506,60.0202712009,FEMA4ImagesEEG,001,101038,
AFSA21.JPG,AFNE23.JPG,AFNE21.JPG,AFSA25.JPG,AFNE25.JPG,AFSA23.JPG,,,,,,,,,,,,,,,,,0,0,0,4,,,,,,,AFNE05.jpg,AFSA13.jpg,AFSA11.jpg,AFNE04.jpg,AFNE04.jpg,FN,3,num_4,16,num_4,0.967047481332,,,2017_Jul_24_1506,60.0202712009,FEMA4ImagesEEG,001,101038,
AFSA21.JPG,AFNE22.JPG,AFNE21.JPG,AFSA23.JPG,AFSA22.JPG,AFNE23.JPG,,,,,,,,,,,,,,,,,0,1,1,0,,,,,,,AFNE10.jpg,AFSA19.jpg,AFNE19.jpg,AFSA02.jpg,AFSA19.jpg,FS,4,num_6,32,num_4,0.766775429714,,,2017_Jul_24_1506,60.0202712009,FEMA4ImagesEEG,001,101038,
AMSA21.JPG,AMNE23.JPG,AMNE21.JPG,AMSA25.JPG,AMNE25.JPG,AMSA23.JPG,,,,,,,,,,,,,,,,,0,2,2,5,,,,,,,AFSA06.jpg,AFSA02.jpg,AFNE13.jpg,AFNE09.jpg,AFNE09.jpg,FN,3,num_4,32,num_8,1.116736572,,,2017_Jul_24_1506,60.0202712009,FEMA4ImagesEEG,001,101038,
AMSA21.JPG,AMNE22.JPG,AMNE21.JPG,AMSA23.JPG,AMSA22.JPG,AMNE23.JPG,,,,,,,,,,,,,,,,,0,3,3,1,,,,,,,AFNE20.jpg,AFSA12.jpg,AFSA09.jpg,AFNE05.jpg,AFSA09.jpg,FS,4,num_2,16,num_2,0.683419243665,,,2017_Jul_24_1506,60.0202712009,FEMA4ImagesEEG,001,101038,
AMNE22.JPG,AMSA24.JPG,AMSA22.JPG,AMNE25.JPG,AMNE24.JPG,AMSA25.JPG,,,,,,,,,,,,,,,,,0,4,4,7,,,,,,,AFSA02.jpg,AFNE17.jpg,AFNE12.jpg,AFSA19.jpg,AFSA02.jpg,FS,4,num_8,32,num_4,1.53341550694,,,2017_Jul_24_1506,60.0202712009,FEMA4ImagesEEG,001,101038,
AMNE23.JPG,AMNE24.JPG,AMNE22.JPG,AMSA24.JPG,AMSA22.JPG,AMSA23.JPG,,,,,,,,,,,,,,,,,0,5,5,9,,,,,,,AFNE04.jpg,AFNE08.jpg,AFSA13.jpg,AFSA05.jpg,AFNE08.jpg,FN,3,num_6,16,num_6,0.86674050102,,,2017_Jul_24_1506,60.0202712009,FEMA4ImagesEEG,001,101038,
AFNE22.JPG,AFSA24.JPG,AFSA22.JPG,AFNE25.JPG,AFNE24.JPG,AFSA25.JPG,,,,,,,,,,,,,,,,,0,6,6,6,,,,,,,AFSA05.jpg,AFNE19.jpg,AFNE06.jpg,AFSA02.jpg,AFNE06.jpg,FN,3,num_2,32,num_8,1.36671692657,,,2017_Jul_24_1506,60.0202712009,FEMA4ImagesEEG,001,101038,
AFSA25.JPG,AFNE24.JPG,AFSA24.JPG,AFNE21.JPG,AFSA21.JPG,AFNE25.JPG,,,,,,,,,,,,,,,,,0,7,7,2,,,,,,,AFNE16.jpg,AFSA03.jpg,AFSA02.jpg,AFNE06.jpg,AFNE06.jpg,FN,3,num_4,16,num_4,0.600153826992,,,2017_Jul_24_1506,60.0202712009,FEMA4ImagesEEG,001,101038,
AMSA25.JPG,AMNE24.JPG,AMSA24.JPG,AMNE26.JPG,AMSA21.JPG,AMNE25.JPG,,,,,,,,,,,,,,,,,0,8,8,3,,,,,,,AFNE10.jpg,AFSA15.jpg,AFSA02.jpg,AFNE08.jpg,AFSA15.jpg,FS,4,num_6,16,num_6,0.966736042756,,,2017_Jul_24_1506,60.0202712009,FEMA4ImagesEEG,001,101038,
AFNE23.JPG,AFNE24.JPG,AFNE22.JPG,AFSA24.JPG,AFSA22.JPG,AFSA23.JPG,,,,,,,,,,,,,,,,,0,9,9,8,,,,,,,AFSA13.jpg,AFNE02.jpg,AFNE13.jpg,AFSA02.jpg,AFSA13.jpg,FS,4,num_8,32,num_6,1.76691302715,,,2017_Jul_24_1506,60.0202712009,FEMA4ImagesEEG,001,101038,
AFSA21.JPG,AFNE22.JPG,AFNE21.JPG,AFSA23.JPG,AFSA22.JPG,AFNE23.JPG,,,,,,,,,,,,,,,,,,,,,0,0,0,0,,,AMSA18.jpg,AMNE04.jpg,AMSA09.jpg,AMNE08.jpg,AMSA18.jpg,MS,2,num_8,16,num_8,1.71707642812,,,2017_Jul_24_1506,60.0202712009,FEMA4ImagesEEG,001,101038,
AMSA25.JPG,AMNE24.JPG,AMSA24.JPG,AMNE26.JPG,AMSA21.JPG,AMNE25.JPG,,,,,,,,,,,,,,,,,,,,,0,1,1,3,,,AMNE05.jpg,AMSA04.jpg,AMSA13.jpg,AMNE12.jpg,AMSA13.jpg,MS,2,num_2,16,num_2,0.783587664249,,,2017_Jul_24_1506,60.0202712009,FEMA4ImagesEEG,001,101038,
AMNE22.JPG,AMSA24.JPG,AMSA22.JPG,AMNE25.JPG,AMNE24.JPG,AMSA25.JPG,,,,,,,,,,,,,,,,,,,,,0,2,2,7,,,AMSA09.jpg,AMNE19.jpg,AMNE18.jpg,AMSA16.jpg,AMNE19.jpg,MN,1,num_6,32,num_4,0.983458470087,,,2017_Jul_24_1506,60.0202712009,FEMA4ImagesEEG,001,101038,
AFSA25.JPG,AFNE24.JPG,AFSA24.JPG,AFNE21.JPG,AFSA21.JPG,AFNE25.JPG,,,,,,,,,,,,,,,,,,,,,0,3,3,2,,,AMNE19.jpg,AMSA20.jpg,AMSA09.jpg,AMNE06.jpg,AMNE06.jpg,MN,1,num_4,32,num_2,1.36675252882,,,2017_Jul_24_1506,60.0202712009,FEMA4ImagesEEG,001,101038,
AMSA21.JPG,AMNE23.JPG,AMNE21.JPG,AMSA25.JPG,AMNE25.JPG,AMSA23.JPG,,,,,,,,,,,,,,,,,,,,,0,4,4,5,,,AMNE03.jpg,AMSA18.jpg,AMSA02.jpg,AMNE15.jpg,AMNE03.jpg,MN,1,num_8,32,num_4,0.733569847071,,,2017_Jul_24_1506,60.0202712009,FEMA4ImagesEEG,001,101038,
AFNE23.JPG,AFNE24.JPG,AFNE22.JPG,AFSA24.JPG,AFSA22.JPG,AFSA23.JPG,,,,,,,,,,,,,,,,,,,,,0,5,5,8,,,AMSA10.jpg,AMNE12.jpg,AMSA04.jpg,AMNE01.jpg,AMSA10.jpg,MS,2,num_8,16,num_8,0.733405307401,,,2017_Jul_24_1506,60.0202712009,FEMA4ImagesEEG,001,101038,
AFSA21.JPG,AFNE23.JPG,AFNE21.JPG,AFSA25.JPG,AFNE25.JPG,AFSA23.JPG,,,,,,,,,,,,,,,,,,,,,0,6,6,4,,,AMSA02.jpg,AMNE08.jpg,AMNE11.jpg,AMSA13.jpg,AMNE11.jpg,MN,1,num_2,32,num_6,1.0667267734,,,2017_Jul_24_1506,60.0202712009,FEMA4ImagesEEG,001,101038,
AFNE22.JPG,AFSA24.JPG,AFSA22.JPG,AFNE25.JPG,AFNE24.JPG,AFSA25.JPG,,,,,,,,,,,,,,,,,,,,,0,7,7,6,,,AMSA04.jpg,AMSA07.jpg,AMNE07.jpg,AMNE03.jpg,AMNE03.jpg,MN,1,num_4,32,num_2,1.05012141622,,,2017_Jul_24_1506,60.0202712009,FEMA4ImagesEEG,001,101038,
AMNE23.JPG,AMNE24.JPG,AMNE22.JPG,AMSA24.JPG,AMSA22.JPG,AMSA23.JPG,,,,,,,,,,,,,,,,,,,,,0,8,8,9,,,AMNE18.jpg,AMSA01.jpg,AMSA10.jpg,AMNE20.jpg,AMNE18.jpg,MN,1,num_8,32,num_4,0.950006879866,,,2017_Jul_24_1506,60.0202712009,FEMA4ImagesEEG,001,101038,
AMSA21.JPG,AMNE22.JPG,AMNE21.JPG,AMSA23.JPG,AMSA22.JPG,AMNE23.JPG,,,,,,,,,,,,,,,,,,,,,0,9,9,1,,,AMNE15.jpg,AMSA02.jpg,AMSA19.jpg,AMNE06.jpg,AMNE06.jpg,MN,1,num_4,32,num_2,1.28357948526,,,2017_Jul_24_1506,60.0202712009,FEMA4ImagesEEG,001,101038,
,,,,,,,,,,,,,,,,,,,,,,,,,,,,,,,,,,,,,,,,,,,space,8.9661641632,2017_Jul_24_1506,60.0202712009,FEMA4ImagesEEG,001,101038,
AFNE01.JPG,AFNE01.JPG,AFNE01.JPG,AFNE01.JPG,AFNE01.JPG,AFNE01.JPG,0,0,0,2,,,,,,,,,,,,,,,,,,,,,,,AFSA04.jpg,AFNE07.jpg,AFNE19.jpg,AFSA01.jpg,AFNE19.jpg,FN,3,num_2,32,num_6,0.883426043321,,,2017_Jul_24_1506,60.0202712009,FEMA4ImagesEEG,001,101038,
AFNE01.JPG,AFNE01.JPG,AFNE01.JPG,AFNE01.JPG,AFNE01.JPG,AFNE01.JPG,0,1,1,8,,,,,,,,,,,,,,,,,,,,,,,AFNE04.jpg,AFNE06.jpg,AFSA04.jpg,AFSA10.jpg,AFSA04.jpg,FS,4,num_2,32,num_8,0.666747813928,,,2017_Jul_24_1506,60.0202712009,FEMA4ImagesEEG,001,101038,
AFNE01.JPG,AFNE01.JPG,AFNE01.JPG,AFNE01.JPG,AFNE01.JPG,AFNE01.JPG,0,2,2,5,,,,,,,,,,,,,,,,,,,,,,,AFSA02.jpg,AFNE16.jpg,AFSA05.jpg,AFNE04.jpg,AFNE16.jpg,FN,3,num_6,16,num_6,0.550126708345,,,2017_Jul_24_1506,60.0202712009,FEMA4ImagesEEG,001,101038,
AFNE01.JPG,AFNE01.JPG,AFNE01.JPG,AFNE01.JPG,AFNE01.JPG,AFNE01.JPG,0,3,3,0,,,,,,,,,,,,,,,,,,,,,,,AFSA08.jpg,AFSA04.jpg,AFNE02.jpg,AFNE12.jpg,AFNE12.jpg,FN,3,num_4,32,num_2,2.31669558142,,,2017_Jul_24_1506,60.0202712009,FEMA4ImagesEEG,001,101038,
AFNE01.JPG,AFNE01.JPG,AFNE01.JPG,AFNE01.JPG,AFNE01.JPG,AFNE01.JPG,0,4,4,3,,,,,,,,,,,,,,,,,,,,,,,AFSA19.jpg,AFNE19.jpg,AFNE04.jpg,AFSA14.jpg,AFNE19.jpg,FN,3,num_6,16,num_6,1.38344031619,,,2017_Jul_24_1506,60.0202712009,FEMA4ImagesEEG,001,101038,
AFNE01.JPG,AFNE01.JPG,AFNE01.JPG,AFNE01.JPG,AFNE01.JPG,AFNE01.JPG,0,5,5,7,,,,,,,,,,,,,,,,,,,,,,,AFNE19.jpg,AFNE11.jpg,AFSA09.jpg,AFSA20.jpg,AFSA20.jpg,FS,4,num_4,16,num_4,0.750167827238,,,2017_Jul_24_1506,60.0202712009,FEMA4ImagesEEG,001,101038,
AFNE01.JPG,AFNE01.JPG,AFNE01.JPG,AFNE01.JPG,AFNE01.JPG,AFNE01.JPG,0,6,6,9,,,,,,,,,,,,,,,,,,,,,,,AFNE05.jpg,AFSA03.jpg,AFNE04.jpg,AFSA17.jpg,AFNE05.jpg,FN,3,num_8,32,num_6,0.850055921008,,,2017_Jul_24_1506,60.0202712009,FEMA4ImagesEEG,001,101038,
AFNE01.JPG,AFNE01.JPG,AFNE01.JPG,AFNE01.JPG,AFNE01.JPG,AFNE01.JPG,0,7,7,4,,,,,,,,,,,,,,,,,,,,,,,AFNE13.jpg,AFSA12.jpg,AFSA06.jpg,AFNE04.jpg,AFNE13.jpg,FN,3,num_8,16,num_8,1.00011610787,,,2017_Jul_24_1506,60.0202712009,FEMA4ImagesEEG,001,101038,
AFNE01.JPG,AFNE01.JPG,AFNE01.JPG,AFNE01.JPG,AFNE01.JPG,AFNE01.JPG,0,8,8,6,,,,,,,,,,,,,,,,,,,,,,,AFNE14.jpg,AFSA14.jpg,AFNE08.jpg,AFSA17.jpg,AFNE14.jpg,FN,3,num_8,32,num_4,1.36676984874,,,2017_Jul_24_1506,60.0202712009,FEMA4ImagesEEG,001,101038,
AFNE01.JPG,AFNE01.JPG,AFNE01.JPG,AFNE01.JPG,AFNE01.JPG,AFNE01.JPG,0,9,9,1,,,,,,,,,,,,,,,,,,,,,,,AFNE16.jpg,AFSA15.jpg,AFNE02.jpg,AFSA17.jpg,AFNE16.jpg,FN,3,num_8,32,num_6,2.49999663222,,,2017_Jul_24_1506,60.0202712009,FEMA4ImagesEEG,001,101038,
AFNE01.JPG,AFNE01.JPG,AFNE01.JPG,AFNE01.JPG,AFNE01.JPG,AFNE01.JPG,1,0,10,1,,,,,,,,,,,,,,,,,,,,,,,AFNE07.jpg,AFSA03.jpg,AFSA12.jpg,AFNE09.jpg,AFSA03.jpg,FS,4,num_6,32,num_2,1.06685539009,,,2017_Jul_24_1506,60.0202712009,FEMA4ImagesEEG,001,101038,
AFNE01.JPG,AFNE01.JPG,AFNE01.JPG,AFNE01.JPG,AFNE01.JPG,AFNE01.JPG,1,1,11,9,,,,,,,,,,,,,,,,,,,,,,,AFNE08.jpg,AFNE14.jpg,AFSA08.jpg,AFSA14.jpg,AFNE08.jpg,FN,3,num_8,32,num_6,1.08344471036,,,2017_Jul_24_1506,60.0202712009,FEMA4ImagesEEG,001,101038,
AFNE01.JPG,AFNE01.JPG,AFNE01.JPG,AFNE01.JPG,AFNE01.JPG,AFNE01.JPG,1,2,12,2,,,,,,,,,,,,,,,,,,,,,,,AFNE13.jpg,AFSA13.jpg,AFNE05.jpg,AFSA05.jpg,AFNE05.jpg,FN,3,num_2,32,num_6,1.26671849831,,,2017_Jul_24_1506,60.0202712009,FEMA4ImagesEEG,001,101038,
AFNE01.JPG,AFNE01.JPG,AFNE01.JPG,AFNE01.JPG,AFNE01.JPG,AFNE01.JPG,1,3,13,4,,,,,,,,,,,,,,,,,,,,,,,AFNE02.jpg,AFSA06.jpg,AFNE09.jpg,AFSA07.jpg,AFNE02.jpg,FN,3,num_8,16,num_8,0.616960929707,,,2017_Jul_24_1506,60.0202712009,FEMA4ImagesEEG,001,101038,
AFNE01.JPG,AFNE01.JPG,AFNE01.JPG,AFNE01.JPG,AFNE01.JPG,AFNE01.JPG,1,4,14,8,,,,,,,,,,,,,,,,,,,,,,,AFSA16.jpg,AFSA12.jpg,AFNE12.jpg,AFNE08.jpg,AFNE08.jpg,FN,3,num_4,32,num_8,1.16673514456,,,2017_Jul_24_1506,60.0202712009,FEMA4ImagesEEG,001,101038,
AFNE01.JPG,AFNE01.JPG,AFNE01.JPG,AFNE01.JPG,AFNE01.JPG,AFNE01.JPG,1,5,15,3,,,,,,,,,,,,,,,,,,,,,,,AFNE10.jpg,AFSA16.jpg,AFNE11.jpg,AFSA07.jpg,AFSA07.jpg,FS,4,num_4,16,num_4,0.766731488169,,,2017_Jul_24_1506,60.0202712009,FEMA4ImagesEEG,001,101038,
AFNE01.JPG,AFNE01.JPG,AFNE01.JPG,AFNE01.JPG,AFNE01.JPG,AFNE01.JPG,1,6,16,7,,,,,,,,,,,,,,,,,,,,,,,AFNE11.jpg,AFNE14.jpg,AFSA08.jpg,AFSA12.jpg,AFNE14.jpg,FN,3,num_6,16,num_6,0.933444501832,,,2017_Jul_24_1506,60.0202712009,FEMA4ImagesEEG,001,101038,
AFNE01.JPG,AFNE01.JPG,AFNE01.JPG,AFNE01.JPG,AFNE01.JPG,AFNE01.JPG,1,7,17,6,,,,,,,,,,,,,,,,,,,,,,,AFSA17.jpg,AFSA20.jpg,AFNE03.jpg,AFNE18.jpg,AFNE03.jpg,FN,3,num_2,16,num_2,0.783424407477,,,2017_Jul_24_1506,60.0202712009,FEMA4ImagesEEG,001,101038,
AFNE01.JPG,AFNE01.JPG,AFNE01.JPG,AFNE01.JPG,AFNE01.JPG,AFNE01.JPG,1,8,18,5,,,,,,,,,,,,,,,,,,,,,,,AFSA19.jpg,AFSA13.jpg,AFNE19.jpg,AFNE10.jpg,AFNE19.jpg,FN,3,num_2,32,num_8,1.06672035856,,,2017_Jul_24_1506,60.0202712009,FEMA4ImagesEEG,001,101038,
AFNE01.JPG,AFNE01.JPG,AFNE01.JPG,AFNE01.JPG,AFNE01.JPG,AFNE01.JPG,1,9,19,0,,,,,,,,,,,,,,,,,,,,,,,AFSA14.jpg,AFNE05.jpg,AFNE11.jpg,AFSA18.jpg,AFSA14.jpg,FS,4,num_8,32,num_6,1.18340400839,,,2017_Jul_24_1506,60.0202712009,FEMA4ImagesEEG,001,101038,
AFNE01.JPG,AFNE01.JPG,AFNE01.JPG,AFNE01.JPG,AFNE01.JPG,AFNE01.JPG,2,0,20,6,,,,,,,,,,,,,,,,,,,,,,,AFNE19.jpg,AFNE01.jpg,AFSA05.jpg,AFSA07.jpg,AFNE01.jpg,FN,3,num_6,16,num_6,1.81680062378,,,2017_Jul_24_1506,60.0202712009,FEMA4ImagesEEG,001,101038,
AFNE01.JPG,AFNE01.JPG,AFNE01.JPG,AFNE01.JPG,AFNE01.JPG,AFNE01.JPG,2,1,21,5,,,,,,,,,,,,,,,,,,,,,,,AFSA16.jpg,AFNE10.jpg,AFNE12.jpg,AFSA07.jpg,AFNE10.jpg,FN,3,num_6,32,num_2,1.11706821725,,,2017_Jul_24_1506,60.0202712009,FEMA4ImagesEEG,001,101038,
AFNE01.JPG,AFNE01.JPG,AFNE01.JPG,AFNE01.JPG,AFNE01.JPG,AFNE01.JPG,2,2,22,4,,,,,,,,,,,,,,,,,,,,,,,AFNE03.jpg,AFSA03.jpg,AFSA07.jpg,AFNE01.jpg,AFNE03.jpg,FN,3,num_8,16,num_8,1.21659483691,,,2017_Jul_24_1506,60.0202712009,FEMA4ImagesEEG,001,101038,
AFNE01.JPG,AFNE01.JPG,AFNE01.JPG,AFNE01.JPG,AFNE01.JPG,AFNE01.JPG,2,3,23,1,,,,,,,,,,,,,,,,,,,,,,,AFSA10.jpg,AFNE08.jpg,AFNE20.jpg,AFSA05.jpg,AFNE20.jpg,FN,3,num_2,32,num_8,1.30009407306,,,2017_Jul_24_1506,60.0202712009,FEMA4ImagesEEG,001,101038,
AFNE01.JPG,AFNE01.JPG,AFNE01.JPG,AFNE01.JPG,AFNE01.JPG,AFNE01.JPG,2,4,24,0,,,,,,,,,,,,,,,,,,,,,,,AFNE07.jpg,AFNE04.jpg,AFSA13.jpg,AFSA08.jpg,AFNE07.jpg,FN,3,num_8,16,num_8,1.71666748461,,,2017_Jul_24_1506,60.0202712009,FEMA4ImagesEEG,001,101038,
AFNE01.JPG,AFNE01.JPG,AFNE01.JPG,AFNE01.JPG,AFNE01.JPG,AFNE01.JPG,2,5,25,8,,,,,,,,,,,,,,,,,,,,,,,AFNE05.jpg,AFSA09.jpg,AFSA05.jpg,AFNE16.jpg,AFSA09.jpg,FS,4,num_6,32,num_4,2.46662779304,,,2017_Jul_24_1506,60.0202712009,FEMA4ImagesEEG,001,101038,
AFNE01.JPG,AFNE01.JPG,AFNE01.JPG,AFNE01.JPG,AFNE01.JPG,AFNE01.JPG,2,6,26,3,,,,,,,,,,,,,,,,,,,,,,,AFSA14.jpg,AFNE15.jpg,AFSA03.jpg,AFNE03.jpg,AFNE15.jpg,FN,3,num_6,32,num_4,1.63325324445,,,2017_Jul_24_1506,60.0202712009,FEMA4ImagesEEG,001,101038,
AFNE01.JPG,AFNE01.JPG,AFNE01.JPG,AFNE01.JPG,AFNE01.JPG,AFNE01.JPG,2,7,27,9,,,,,,,,,,,,,,,,,,,,,,,AFNE10.jpg,AFNE20.jpg,AFSA02.jpg,AFSA14.jpg,AFSA02.jpg,FS,4,num_2,16,num_2,0.883459400153,,,2017_Jul_24_1506,60.0202712009,FEMA4ImagesEEG,001,101038,
AFNE01.JPG,AFNE01.JPG,AFNE01.JPG,AFNE01.JPG,AFNE01.JPG,AFNE01.JPG,2,8,28,7,,,,,,,,,,,,,,,,,,,,,,,AFNE16.jpg,AFSA08.jpg,AFNE13.jpg,AFSA13.jpg,AFNE16.jpg,FN,3,num_8,32,num_6,1.05009287037,,,2017_Jul_24_1506,60.0202712009,FEMA4ImagesEEG,001,101038,
AFNE01.JPG,AFNE01.JPG,AFNE01.JPG,AFNE01.JPG,AFNE01.JPG,AFNE01.JPG,2,9,29,2,,,,,,,,,,,,,,,,,,,,,,,AFNE05.jpg,AFSA06.jpg,AFSA04.jpg,AFNE14.jpg,AFNE14.jpg,FN,3,num_4,32,num_8,1.93345957657,,,2017_Jul_24_1506,60.0202712009,FEMA4ImagesEEG,001,101038,
AFNE01.JPG,AFNE01.JPG,AFNE01.JPG,AFNE01.JPG,AFNE01.JPG,AFNE01.JPG,3,0,30,1,,,,,,,,,,,,,,,,,,,,,,,AFNE04.jpg,AFSA07.jpg,AFNE18.jpg,AFSA12.jpg,AFNE04.jpg,FN,3,num_8,32,num_6,0.983420622768,,,2017_Jul_24_1506,60.0202712009,FEMA4ImagesEEG,001,101038,
AFNE01.JPG,AFNE01.JPG,AFNE01.JPG,AFNE01.JPG,AFNE01.JPG,AFNE01.JPG,3,1,31,2,,,,,,,,,,,,,,,,,,,,,,,AFSA11.jpg,AFNE06.jpg,AFSA04.jpg,AFNE01.jpg,AFNE01.jpg,FN,3,num_4,32,num_6,0.95010727155,,,2017_Jul_24_1506,60.0202712009,FEMA4ImagesEEG,001,101038,
AFNE01.JPG,AFNE01.JPG,AFNE01.JPG,AFNE01.JPG,AFNE01.JPG,AFNE01.JPG,3,2,32,7,,,,,,,,,,,,,,,,,,,,,,,AFSA05.jpg,AFSA15.jpg,AFNE14.jpg,AFNE06.jpg,AFNE14.jpg,FN,3,num_2,32,num_4,1.10005680309,,,2017_Jul_24_1506,60.0202712009,FEMA4ImagesEEG,001,101038,
AFNE01.JPG,AFNE01.JPG,AFNE01.JPG,AFNE01.JPG,AFNE01.JPG,AFNE01.JPG,3,3,33,3,,,,,,,,,,,,,,,,,,,,,,,AFSA01.jpg,AFNE05.jpg,AFSA08.jpg,AFNE01.jpg,AFNE05.jpg,FN,3,num_6,16,num_6,1.50008451508,,,2017_Jul_24_1506,60.0202712009,FEMA4ImagesEEG,001,101038,
AFNE01.JPG,AFNE01.JPG,AFNE01.JPG,AFNE01.JPG,AFNE01.JPG,AFNE01.JPG,3,4,34,9,,,,,,,,,,,,,,,,,,,,,,,AFSA05.jpg,AFSA12.jpg,AFNE12.jpg,AFNE04.jpg,AFNE04.jpg,FN,3,num_4,16,num_4,0.750151469489,,,2017_Jul_24_1506,60.0202712009,FEMA4ImagesEEG,001,101038,
AFNE01.JPG,AFNE01.JPG,AFNE01.JPG,AFNE01.JPG,AFNE01.JPG,AFNE01.JPG,3,5,35,0,,,,,,,,,,,,,,,,,,,,,,,AFSA06.jpg,AFSA12.jpg,AFNE04.jpg,AFNE20.jpg,AFNE04.jpg,FN,3,num_2,16,num_2,0.68348916492,,,2017_Jul_24_1506,60.0202712009,FEMA4ImagesEEG,001,101038,
AFNE01.JPG,AFNE01.JPG,AFNE01.JPG,AFNE01.JPG,AFNE01.JPG,AFNE01.JPG,3,6,36,6,,,,,,,,,,,,,,,,,,,,,,,AFNE10.jpg,AFSA10.jpg,AFNE08.jpg,AFSA11.jpg,AFNE10.jpg,FN,3,num_8,32,num_2,1.76670935715,,,2017_Jul_24_1506,60.0202712009,FEMA4ImagesEEG,001,101038,
AFNE01.JPG,AFNE01.JPG,AFNE01.JPG,AFNE01.JPG,AFNE01.JPG,AFNE01.JPG,3,7,37,4,,,,,,,,,,,,,,,,,,,,,,,AFNE03.jpg,AFNE06.jpg,AFSA12.jpg,AFSA07.jpg,AFSA12.jpg,FS,4,num_2,16,num_2,1.01673846436,,,2017_Jul_24_1506,60.0202712009,FEMA4ImagesEEG,001,101038,
AFNE01.JPG,AFNE01.JPG,AFNE01.JPG,AFNE01.JPG,AFNE01.JPG,AFNE01.JPG,3,8,38,8,,,,,,,,,,,,,,,,,,,,,,,AFSA15.jpg,AFNE05.jpg,AFNE01.jpg,AFSA13.jpg,AFNE01.jpg,FN,3,num_2,16,num_2,0.783418634092,,,2017_Jul_24_1506,60.0202712009,FEMA4ImagesEEG,001,101038,
AFNE01.JPG,AFNE01.JPG,AFNE01.JPG,AFNE01.JPG,AFNE01.JPG,AFNE01.JPG,3,9,39,5,,,,,,,,,,,,,,,,,,,,,,,AFNE04.jpg,AFSA18.jpg,AFSA06.jpg,AFNE16.jpg,AFNE04.jpg,FN,3,num_8,16,num_8,1.66638666054,,,2017_Jul_24_1506,60.0202712009,FEMA4ImagesEEG,001,101038,
AFNE01.JPG,AFNE01.JPG,AFNE01.JPG,AFNE01.JPG,AFNE01.JPG,AFNE01.JPG,4,0,40,4,,,,,,,,,,,,,,,,,,,,,,,AFSA09.jpg,AFSA08.jpg,AFNE16.jpg,AFNE01.jpg,AFSA09.jpg,FS,4,num_8,32,num_2,2.25008331228,,,2017_Jul_24_1506,60.0202712009,FEMA4ImagesEEG,001,101038,
AFNE01.JPG,AFNE01.JPG,AFNE01.JPG,AFNE01.JPG,AFNE01.JPG,AFNE01.JPG,4,1,41,6,,,,,,,,,,,,,,,,,,,,,,,AFNE14.jpg,AFSA08.jpg,AFNE01.jpg,AFSA16.jpg,AFNE14.jpg,FN,3,num_8,16,num_8,1.13343141566,,,2017_Jul_24_1506,60.0202712009,FEMA4ImagesEEG,001,101038,
AFNE01.JPG,AFNE01.JPG,AFNE01.JPG,AFNE01.JPG,AFNE01.JPG,AFNE01.JPG,4,2,42,8,,,,,,,,,,,,,,,,,,,,,,,AFNE04.jpg,AFSA14.jpg,AFSA13.jpg,AFNE20.jpg,AFNE04.jpg,FN,3,num_8,16,num_8,1.34995280311,,,2017_Jul_24_1506,60.0202712009,FEMA4ImagesEEG,001,101038,
AFNE01.JPG,AFNE01.JPG,AFNE01.JPG,AFNE01.JPG,AFNE01.JPG,AFNE01.JPG,4,3,43,5,,,,,,,,,,,,,,,,,,,,,,,AFNE08.jpg,AFSA02.jpg,AFNE15.jpg,AFSA13.jpg,AFSA13.jpg,FS,4,num_4,32,num_6,0.966773890075,,,2017_Jul_24_1506,60.0202712009,FEMA4ImagesEEG,001,101038,
AFNE01.JPG,AFNE01.JPG,AFNE01.JPG,AFNE01.JPG,AFNE01.JPG,AFNE01.JPG,4,4,44,0,,,,,,,,,,,,,,,,,,,,,,,AFNE01.jpg,AFSA18.jpg,AFSA10.jpg,AFNE12.jpg,AFNE01.jpg,FN,3,num_8,32,num_4,0.60011116846,,,2017_Jul_24_1506,60.0202712009,FEMA4ImagesEEG,001,101038,
AFNE01.JPG,AFNE01.JPG,AFNE01.JPG,AFNE01.JPG,AFNE01.JPG,AFNE01.JPG,4,5,45,3,,,,,,,,,,,,,,,,,,,,,,,AFNE13.jpg,AFSA01.jpg,AFNE11.jpg,AFSA05.jpg,AFSA05.jpg,FS,4,num_4,32,num_6,1.33341736719,,,2017_Jul_24_1506,60.0202712009,FEMA4ImagesEEG,001,101038,
AFNE01.JPG,AFNE01.JPG,AFNE01.JPG,AFNE01.JPG,AFNE01.JPG,AFNE01.JPG,4,6,46,9,,,,,,,,,,,,,,,,,,,,,,,AFSA17.jpg,AFNE05.jpg,AFNE13.jpg,AFSA05.jpg,AFSA05.jpg,FS,4,num_4,16,num_4,0.56676413957,,,2017_Jul_24_1506,60.0202712009,FEMA4ImagesEEG,001,101038,
AFNE01.JPG,AFNE01.JPG,AFNE01.JPG,AFNE01.JPG,AFNE01.JPG,AFNE01.JPG,4,7,47,1,,,,,,,,,,,,,,,,,,,,,,,AFSA08.jpg,AFNE18.jpg,AFNE10.jpg,AFSA10.jpg,AFNE18.jpg,FN,3,num_6,16,num_6,0.733433853253,,,2017_Jul_24_1506,60.0202712009,FEMA4ImagesEEG,001,101038,
AFNE01.JPG,AFNE01.JPG,AFNE01.JPG,AFNE01.JPG,AFNE01.JPG,AFNE01.JPG,4,8,48,2,,,,,,,,,,,,,,,,,,,,,,,AFSA12.jpg,AFNE19.jpg,AFNE04.jpg,AFSA20.jpg,AFSA20.jpg,FS,4,num_4,16,num_4,0.833407584694,,,2017_Jul_24_1506,60.0202712009,FEMA4ImagesEEG,001,101038,
AFNE01.JPG,AFNE01.JPG,AFNE01.JPG,AFNE01.JPG,AFNE01.JPG,AFNE01.JPG,4,9,49,7,,,,,,,,,,,,,,,,,,,,,,,AFNE02.jpg,AFSA04.jpg,AFNE14.jpg,AFSA08.jpg,AFNE02.jpg,FN,3,num_8,16,num_8,1.48339640687,,,2017_Jul_24_1506,60.0202712009,FEMA4ImagesEEG,001,101038,
AFNE01.JPG,AFNE01.JPG,AFNE01.JPG,AFNE01.JPG,AFNE01.JPG,AFNE01.JPG,5,0,50,8,,,,,,,,,,,,,,,,,,,,,,,AFSA12.jpg,AFNE19.jpg,AFNE15.jpg,AFSA20.jpg,AFNE19.jpg,FN,3,num_6,32,num_4,0.800200077705,,,2017_Jul_24_1506,60.0202712009,FEMA4ImagesEEG,001,101038,
AFNE01.JPG,AFNE01.JPG,AFNE01.JPG,AFNE01.JPG,AFNE01.JPG,AFNE01.JPG,5,1,51,5,,,,,,,,,,,,,,,,,,,,,,,AFNE14.jpg,AFNE07.jpg,AFSA15.jpg,AFSA01.jpg,AFNE14.jpg,FN,3,num_8,32,num_6,0.783300922601,,,2017_Jul_24_1506,60.0202712009,FEMA4ImagesEEG,001,101038,
AFNE01.JPG,AFNE01.JPG,AFNE01.JPG,AFNE01.JPG,AFNE01.JPG,AFNE01.JPG,5,2,52,0,,,,,,,,,,,,,,,,,,,,,,,AFSA05.jpg,AFNE10.jpg,AFNE06.jpg,AFSA20.jpg,AFSA05.jpg,FS,4,num_8,32,num_4,1.50008515653,,,2017_Jul_24_1506,60.0202712009,FEMA4ImagesEEG,001,101038,
AFNE01.JPG,AFNE01.JPG,AFNE01.JPG,AFNE01.JPG,AFNE01.JPG,AFNE01.JPG,5,3,53,6,,,,,,,,,,,,,,,,,,,,,,,AFSA12.jpg,AFNE20.jpg,AFNE16.jpg,AFSA16.jpg,AFNE20.jpg,FN,3,num_6,32,num_8,2.2834040405,,,2017_Jul_24_1506,60.0202712009,FEMA4ImagesEEG,001,101038,
AFNE01.JPG,AFNE01.JPG,AFNE01.JPG,AFNE01.JPG,AFNE01.JPG,AFNE01.JPG,5,4,54,2,,,,,,,,,,,,,,,,,,,,,,,AFNE09.jpg,AFNE01.jpg,AFSA05.jpg,AFSA10.jpg,AFNE01.jpg,FN,3,num_6,16,num_6,1.5000242159,,,2017_Jul_24_1506,60.0202712009,FEMA4ImagesEEG,001,101038,
AFNE01.JPG,AFNE01.JPG,AFNE01.JPG,AFNE01.JPG,AFNE01.JPG,AFNE01.JPG,5,5,55,4,,,,,,,,,,,,,,,,,,,,,,,AFSA02.jpg,AFNE19.jpg,AFNE18.jpg,AFSA10.jpg,AFSA10.jpg,FS,4,num_4,16,num_4,1.30008413014,,,2017_Jul_24_1506,60.0202712009,FEMA4ImagesEEG,001,101038,
AFNE01.JPG,AFNE01.JPG,AFNE01.JPG,AFNE01.JPG,AFNE01.JPG,AFNE01.JPG,5,6,56,3,,,,,,,,,,,,,,,,,,,,,,,AFSA06.jpg,AFSA15.jpg,AFNE02.jpg,AFNE13.jpg,AFSA15.jpg,FS,4,num_6,16,num_6,1.13345418824,,,2017_Jul_24_1506,60.0202712009,FEMA4ImagesEEG,001,101038,
AFNE01.JPG,AFNE01.JPG,AFNE01.JPG,AFNE01.JPG,AFNE01.JPG,AFNE01.JPG,5,7,57,7,,,,,,,,,,,,,,,,,,,,,,,AFSA10.jpg,AFNE02.jpg,AFSA14.jpg,AFNE15.jpg,AFSA14.jpg,FS,4,num_2,32,num_8,0.78347380145,,,2017_Jul_24_1506,60.0202712009,FEMA4ImagesEEG,001,101038,
AFNE01.JPG,AFNE01.JPG,AFNE01.JPG,AFNE01.JPG,AFNE01.JPG,AFNE01.JPG,5,8,58,9,,,,,,,,,,,,,,,,,,,,,,,AFNE03.jpg,AFSA04.jpg,AFSA17.jpg,AFNE14.jpg,AFSA04.jpg,FS,4,num_6,16,num_6,0.950086102705,,,2017_Jul_24_1506,60.0202712009,FEMA4ImagesEEG,001,101038,
AFNE01.JPG,AFNE01.JPG,AFNE01.JPG,AFNE01.JPG,AFNE01.JPG,AFNE01.JPG,5,9,59,1,,,,,,,,,,,,,,,,,,,,,,,AFSA15.jpg,AFSA07.jpg,AFNE02.jpg,AFNE18.jpg,AFSA15.jpg,FS,4,num_8,32,num_4,0.733442192548,,,2017_Jul_24_1506,60.0202712009,FEMA4ImagesEEG,001,101038,
,,,,,,,,,,,,,,,,,,,,,,,,,,,,,,,,,,,,,,,,,,,space,15.6319779818,2017_Jul_24_1506,60.0202712009,FEMA4ImagesEEG,001,101038,
AFNE01.JPG,AFNE01.JPG,AFNE01.JPG,AFNE01.JPG,AFNE01.JPG,AFNE01.JPG,,,,,0,0,0,5,,,,,,,,,,,,,,,,,,,AMSA09.jpg,AMNE16.jpg,AMSA08.jpg,AMNE19.jpg,AMNE19.jpg,MN,1,num_4,16,num_4,0.883700917475,,,2017_Jul_24_1506,60.0202712009,FEMA4ImagesEEG,001,101038,
AFNE01.JPG,AFNE01.JPG,AFNE01.JPG,AFNE01.JPG,AFNE01.JPG,AFNE01.JPG,,,,,0,1,1,3,,,,,,,,,,,,,,,,,,,AMNE02.jpg,AMSA17.jpg,AMNE19.jpg,AMSA14.jpg,AMSA17.jpg,MS,2,num_6,16,num_6,0.816828848911,,,2017_Jul_24_1506,60.0202712009,FEMA4ImagesEEG,001,101038,
AFNE01.JPG,AFNE01.JPG,AFNE01.JPG,AFNE01.JPG,AFNE01.JPG,AFNE01.JPG,,,,,0,2,2,7,,,,,,,,,,,,,,,,,,,AMNE02.jpg,AMSA14.jpg,AMNE18.jpg,AMSA03.jpg,AMNE02.jpg,MN,1,num_8,16,num_8,1.11661372846,,,2017_Jul_24_1506,60.0202712009,FEMA4ImagesEEG,001,101038,
AFNE01.JPG,AFNE01.JPG,AFNE01.JPG,AFNE01.JPG,AFNE01.JPG,AFNE01.JPG,,,,,0,3,3,8,,,,,,,,,,,,,,,,,,,AMSA11.jpg,AMSA07.jpg,AMNE19.jpg,AMNE04.jpg,AMNE04.jpg,MN,1,num_4,16,num_4,0.766738544451,,,2017_Jul_24_1506,60.0202712009,FEMA4ImagesEEG,001,101038,
AFNE01.JPG,AFNE01.JPG,AFNE01.JPG,AFNE01.JPG,AFNE01.JPG,AFNE01.JPG,,,,,0,4,4,0,,,,,,,,,,,,,,,,,,,AMSA12.jpg,AMNE04.jpg,AMSA09.jpg,AMNE17.jpg,AMNE04.jpg,MN,1,num_6,16,num_6,1.00011482497,,,2017_Jul_24_1506,60.0202712009,FEMA4ImagesEEG,001,101038,
AFNE01.JPG,AFNE01.JPG,AFNE01.JPG,AFNE01.JPG,AFNE01.JPG,AFNE01.JPG,,,,,0,5,5,6,,,,,,,,,,,,,,,,,,,AMSA02.jpg,AMNE05.jpg,AMSA13.jpg,AMNE07.jpg,AMSA02.jpg,MS,2,num_8,32,num_4,1.200198923,,,2017_Jul_24_1506,60.0202712009,FEMA4ImagesEEG,001,101038,
AFNE01.JPG,AFNE01.JPG,AFNE01.JPG,AFNE01.JPG,AFNE01.JPG,AFNE01.JPG,,,,,0,6,6,1,,,,,,,,,,,,,,,,,,,AMSA01.jpg,AMSA15.jpg,AMNE02.jpg,AMNE12.jpg,AMNE02.jpg,MN,1,num_2,32,num_8,1.26675859082,,,2017_Jul_24_1506,60.0202712009,FEMA4ImagesEEG,001,101038,
AFNE01.JPG,AFNE01.JPG,AFNE01.JPG,AFNE01.JPG,AFNE01.JPG,AFNE01.JPG,,,,,0,7,7,2,,,,,,,,,,,,,,,,,,,AMNE20.jpg,AMSA11.jpg,AMNE05.jpg,AMSA08.jpg,AMSA08.jpg,MS,2,num_4,32,num_6,1.03344966588,,,2017_Jul_24_1506,60.0202712009,FEMA4ImagesEEG,001,101038,
AFNE01.JPG,AFNE01.JPG,AFNE01.JPG,AFNE01.JPG,AFNE01.JPG,AFNE01.JPG,,,,,0,8,8,9,,,,,,,,,,,,,,,,,,,AMNE10.jpg,AMNE18.jpg,AMSA06.jpg,AMSA14.jpg,AMNE10.jpg,MN,1,num_8,32,num_6,0.916787184775,,,2017_Jul_24_1506,60.0202712009,FEMA4ImagesEEG,001,101038,
AFNE01.JPG,AFNE01.JPG,AFNE01.JPG,AFNE01.JPG,AFNE01.JPG,AFNE01.JPG,,,,,0,9,9,4,,,,,,,,,,,,,,,,,,,AMNE09.jpg,AMSA13.jpg,AMNE12.jpg,AMSA07.jpg,AMNE12.jpg,MN,1,num_2,16,num_2,0.716842608643,,,2017_Jul_24_1506,60.0202712009,FEMA4ImagesEEG,001,101038,
AFNE01.JPG,AFNE01.JPG,AFNE01.JPG,AFNE01.JPG,AFNE01.JPG,AFNE01.JPG,,,,,1,0,10,6,,,,,,,,,,,,,,,,,,,AMSA17.jpg,AMNE10.jpg,AMSA13.jpg,AMNE11.jpg,AMNE11.jpg,MN,1,num_4,32,num_8,1.35007692955,,,2017_Jul_24_1506,60.0202712009,FEMA4ImagesEEG,001,101038,
AFNE01.JPG,AFNE01.JPG,AFNE01.JPG,AFNE01.JPG,AFNE01.JPG,AFNE01.JPG,,,,,1,1,11,0,,,,,,,,,,,,,,,,,,,AMSA18.jpg,AMNE20.jpg,AMSA02.jpg,AMNE14.jpg,AMSA18.jpg,MS,2,num_8,32,num_6,1.33343981905,,,2017_Jul_24_1506,60.0202712009,FEMA4ImagesEEG,001,101038,
AFNE01.JPG,AFNE01.JPG,AFNE01.JPG,AFNE01.JPG,AFNE01.JPG,AFNE01.JPG,,,,,1,2,12,4,,,,,,,,,,,,,,,,,,,AMSA06.jpg,AMNE10.jpg,AMNE03.jpg,AMSA09.jpg,AMSA09.jpg,MS,2,num_4,16,num_4,0.700147444266,,,2017_Jul_24_1506,60.0202712009,FEMA4ImagesEEG,001,101038,
AFNE01.JPG,AFNE01.JPG,AFNE01.JPG,AFNE01.JPG,AFNE01.JPG,AFNE01.JPG,,,,,1,3,13,7,,,,,,,,,,,,,,,,,,,AMSA04.jpg,AMSA03.jpg,AMNE18.jpg,AMNE13.jpg,AMSA04.jpg,MS,2,num_8,32,num_4,1.41670972609,,,2017_Jul_24_1506,60.0202712009,FEMA4ImagesEEG,001,101038,
AFNE01.JPG,AFNE01.JPG,AFNE01.JPG,AFNE01.JPG,AFNE01.JPG,AFNE01.JPG,,,,,1,4,14,1,,,,,,,,,,,,,,,,,,,AMNE08.jpg,AMSA01.jpg,AMNE10.jpg,AMSA15.jpg,AMNE08.jpg,MN,1,num_8,16,num_8,1.63347776269,,,2017_Jul_24_1506,60.0202712009,FEMA4ImagesEEG,001,101038,
AFNE01.JPG,AFNE01.JPG,AFNE01.JPG,AFNE01.JPG,AFNE01.JPG,AFNE01.JPG,,,,,1,5,15,3,,,,,,,,,,,,,,,,,,,AMSA11.jpg,AMSA14.jpg,AMNE10.jpg,AMNE01.jpg,AMNE01.jpg,MN,1,num_4,32,num_2,0.900111264782,,,2017_Jul_24_1506,60.0202712009,FEMA4ImagesEEG,001,101038,
AFNE01.JPG,AFNE01.JPG,AFNE01.JPG,AFNE01.JPG,AFNE01.JPG,AFNE01.JPG,,,,,1,6,16,5,,,,,,,,,,,,,,,,,,,AMNE07.jpg,AMNE12.jpg,AMSA08.jpg,AMSA05.jpg,AMNE07.jpg,MN,1,num_8,16,num_8,0.650165870669,,,2017_Jul_24_1506,60.0202712009,FEMA4ImagesEEG,001,101038,
AFNE01.JPG,AFNE01.JPG,AFNE01.JPG,AFNE01.JPG,AFNE01.JPG,AFNE01.JPG,,,,,1,7,17,8,,,,,,,,,,,,,,,,,,,AMNE15.jpg,AMSA12.jpg,AMSA15.jpg,AMNE07.jpg,AMSA15.jpg,MS,2,num_2,16,num_2,0.500168548897,,,2017_Jul_24_1506,60.0202712009,FEMA4ImagesEEG,001,101038,
AFNE01.JPG,AFNE01.JPG,AFNE01.JPG,AFNE01.JPG,AFNE01.JPG,AFNE01.JPG,,,,,1,8,18,2,,,,,,,,,,,,,,,,,,,AMNE04.jpg,AMSA06.jpg,AMSA09.jpg,AMNE01.jpg,AMSA06.jpg,MS,2,num_6,32,num_4,1.73336713936,,,2017_Jul_24_1506,60.0202712009,FEMA4ImagesEEG,001,101038,
AFNE01.JPG,AFNE01.JPG,AFNE01.JPG,AFNE01.JPG,AFNE01.JPG,AFNE01.JPG,,,,,1,9,19,9,,,,,,,,,,,,,,,,,,,AMNE09.jpg,AMNE11.jpg,AMSA08.jpg,AMSA15.jpg,AMSA08.jpg,MS,2,num_2,32,num_4,3.98305882781,,,2017_Jul_24_1506,60.0202712009,FEMA4ImagesEEG,001,101038,
AFNE01.JPG,AFNE01.JPG,AFNE01.JPG,AFNE01.JPG,AFNE01.JPG,AFNE01.JPG,,,,,2,0,20,3,,,,,,,,,,,,,,,,,,,AMNE08.jpg,AMNE20.jpg,AMSA04.jpg,AMSA19.jpg,AMSA04.jpg,MS,2,num_2,32,num_8,1.63341874641,,,2017_Jul_24_1506,60.0202712009,FEMA4ImagesEEG,001,101038,
AFNE01.JPG,AFNE01.JPG,AFNE01.JPG,AFNE01.JPG,AFNE01.JPG,AFNE01.JPG,,,,,2,1,21,6,,,,,,,,,,,,,,,,,,,AMSA07.jpg,AMSA05.jpg,AMNE16.jpg,AMNE01.jpg,AMSA05.jpg,MS,2,num_6,32,num_8,0.617048491724,,,2017_Jul_24_1506,60.0202712009,FEMA4ImagesEEG,001,101038,
AFNE01.JPG,AFNE01.JPG,AFNE01.JPG,AFNE01.JPG,AFNE01.JPG,AFNE01.JPG,,,,,2,2,22,5,,,,,,,,,,,,,,,,,,,AMNE08.jpg,AMSA15.jpg,AMSA05.jpg,AMNE10.jpg,AMNE08.jpg,MN,1,num_8,16,num_8,0.733430966618,,,2017_Jul_24_1506,60.0202712009,FEMA4ImagesEEG,001,101038,
AFNE01.JPG,AFNE01.JPG,AFNE01.JPG,AFNE01.JPG,AFNE01.JPG,AFNE01.JPG,,,,,2,3,23,4,,,,,,,,,,,,,,,,,,,AMNE08.jpg,AMSA04.jpg,AMNE01.jpg,AMSA05.jpg,AMNE08.jpg,MN,1,num_8,16,num_8,1.15010573191,,,2017_Jul_24_1506,60.0202712009,FEMA4ImagesEEG,001,101038,
AFNE01.JPG,AFNE01.JPG,AFNE01.JPG,AFNE01.JPG,AFNE01.JPG,AFNE01.JPG,,,,,2,4,24,0,,,,,,,,,,,,,,,,,,,AMNE15.jpg,AMSA18.jpg,AMNE12.jpg,AMSA04.jpg,AMNE12.jpg,MN,1,num_2,16,num_2,0.850103069912,,,2017_Jul_24_1506,60.0202712009,FEMA4ImagesEEG,001,101038,
AFNE01.JPG,AFNE01.JPG,AFNE01.JPG,AFNE01.JPG,AFNE01.JPG,AFNE01.JPG,,,,,2,5,25,9,,,,,,,,,,,,,,,,,,,AMSA13.jpg,AMNE13.jpg,AMNE02.jpg,AMSA03.jpg,AMNE13.jpg,MN,1,num_6,16,num_6,0.483493270469,,,2017_Jul_24_1506,60.0202712009,FEMA4ImagesEEG,001,101038,
AFNE01.JPG,AFNE01.JPG,AFNE01.JPG,AFNE01.JPG,AFNE01.JPG,AFNE01.JPG,,,,,2,6,26,8,,,,,,,,,,,,,,,,,,,AMSA16.jpg,AMNE04.jpg,AMSA04.jpg,AMNE19.jpg,AMNE19.jpg,MN,1,num_4,32,num_8,0.950104064075,,,2017_Jul_24_1506,60.0202712009,FEMA4ImagesEEG,001,101038,
AFNE01.JPG,AFNE01.JPG,AFNE01.JPG,AFNE01.JPG,AFNE01.JPG,AFNE01.JPG,,,,,2,7,27,7,,,,,,,,,,,,,,,,,,,AMNE15.jpg,AMSA16.jpg,AMNE18.jpg,AMSA03.jpg,AMSA03.jpg,MS,2,num_4,16,num_4,1.36668806011,,,2017_Jul_24_1506,60.0202712009,FEMA4ImagesEEG,001,101038,
AFNE01.JPG,AFNE01.JPG,AFNE01.JPG,AFNE01.JPG,AFNE01.JPG,AFNE01.JPG,,,,,2,8,28,1,,,,,,,,,,,,,,,,,,,AMSA07.jpg,AMNE17.jpg,AMNE10.jpg,AMSA10.jpg,AMSA07.jpg,MS,2,num_8,32,num_6,1.65007445973,,,2017_Jul_24_1506,60.0202712009,FEMA4ImagesEEG,001,101038,
AFNE01.JPG,AFNE01.JPG,AFNE01.JPG,AFNE01.JPG,AFNE01.JPG,AFNE01.JPG,,,,,2,9,29,2,,,,,,,,,,,,,,,,,,,AMNE08.jpg,AMNE11.jpg,AMSA09.jpg,AMSA01.jpg,AMNE08.jpg,MN,1,num_8,16,num_8,0.883451702422,,,2017_Jul_24_1506,60.0202712009,FEMA4ImagesEEG,001,101038,
AFNE01.JPG,AFNE01.JPG,AFNE01.JPG,AFNE01.JPG,AFNE01.JPG,AFNE01.JPG,,,,,3,0,30,5,,,,,,,,,,,,,,,,,,,AMSA15.jpg,AMNE15.jpg,AMSA10.jpg,AMNE03.jpg,AMSA15.jpg,MS,2,num_8,16,num_8,1.45011063921,,,2017_Jul_24_1506,60.0202712009,FEMA4ImagesEEG,001,101038,
AFNE01.JPG,AFNE01.JPG,AFNE01.JPG,AFNE01.JPG,AFNE01.JPG,AFNE01.JPG,,,,,3,1,31,9,,,,,,,,,,,,,,,,,,,AMSA15.jpg,AMNE13.jpg,AMNE17.jpg,AMSA17.jpg,AMSA17.jpg,MS,2,num_4,32,num_6,0.933629248175,,,2017_Jul_24_1506,60.0202712009,FEMA4ImagesEEG,001,101038,
AFNE01.JPG,AFNE01.JPG,AFNE01.JPG,AFNE01.JPG,AFNE01.JPG,AFNE01.JPG,,,,,3,2,32,2,,,,,,,,,,,,,,,,,,,AMSA19.jpg,AMNE08.jpg,AMNE10.jpg,AMSA18.jpg,AMNE10.jpg,MN,1,num_2,32,num_4,2.01664352533,,,2017_Jul_24_1506,60.0202712009,FEMA4ImagesEEG,001,101038,
AFNE01.JPG,AFNE01.JPG,AFNE01.JPG,AFNE01.JPG,AFNE01.JPG,AFNE01.JPG,,,,,3,3,33,4,,,,,,,,,,,,,,,,,,,AMSA17.jpg,AMNE03.jpg,AMNE11.jpg,AMSA04.jpg,AMNE11.jpg,MN,1,num_2,32,num_6,1.13332268479,,,2017_Jul_24_1506,60.0202712009,FEMA4ImagesEEG,001,101038,
AFNE01.JPG,AFNE01.JPG,AFNE01.JPG,AFNE01.JPG,AFNE01.JPG,AFNE01.JPG,,,,,3,4,34,7,,,,,,,,,,,,,,,,,,,AMSA03.jpg,AMSA05.jpg,AMNE09.jpg,AMNE16.jpg,AMSA03.jpg,MS,2,num_8,32,num_2,2.0833725438,,,2017_Jul_24_1506,60.0202712009,FEMA4ImagesEEG,001,101038,
AFNE01.JPG,AFNE01.JPG,AFNE01.JPG,AFNE01.JPG,AFNE01.JPG,AFNE01.JPG,,,,,3,5,35,3,,,,,,,,,,,,,,,,,,,AMNE09.jpg,AMNE17.jpg,AMSA13.jpg,AMSA03.jpg,AMNE17.jpg,MN,1,num_6,32,num_8,1.55002952414,,,2017_Jul_24_1506,60.0202712009,FEMA4ImagesEEG,001,101038,
AFNE01.JPG,AFNE01.JPG,AFNE01.JPG,AFNE01.JPG,AFNE01.JPG,AFNE01.JPG,,,,,3,6,36,8,,,,,,,,,,,,,,,,,,,AMSA17.jpg,AMSA13.jpg,AMNE10.jpg,AMNE16.jpg,AMSA13.jpg,MS,2,num_6,16,num_6,2.94995107106,,,2017_Jul_24_1506,60.0202712009,FEMA4ImagesEEG,001,101038,
AFNE01.JPG,AFNE01.JPG,AFNE01.JPG,AFNE01.JPG,AFNE01.JPG,AFNE01.JPG,,,,,3,7,37,0,,,,,,,,,,,,,,,,,,,AMNE14.jpg,AMNE08.jpg,AMSA06.jpg,AMSA04.jpg,AMNE08.jpg,MN,1,num_6,16,num_6,1.40012617921,,,2017_Jul_24_1506,60.0202712009,FEMA4ImagesEEG,001,101038,
AFNE01.JPG,AFNE01.JPG,AFNE01.JPG,AFNE01.JPG,AFNE01.JPG,AFNE01.JPG,,,,,3,8,38,1,,,,,,,,,,,,,,,,,,,AMSA14.jpg,AMSA18.jpg,AMNE09.jpg,AMNE20.jpg,AMSA14.jpg,MS,2,num_8,16,num_8,0.716764668818,,,2017_Jul_24_1506,60.0202712009,FEMA4ImagesEEG,001,101038,
AFNE01.JPG,AFNE01.JPG,AFNE01.JPG,AFNE01.JPG,AFNE01.JPG,AFNE01.JPG,,,,,3,9,39,6,,,,,,,,,,,,,,,,,,,AMSA20.jpg,AMSA10.jpg,AMNE02.jpg,AMNE08.jpg,AMNE08.jpg,MN,1,num_4,32,num_6,1.14994504116,,,2017_Jul_24_1506,60.0202712009,FEMA4ImagesEEG,001,101038,
AFNE01.JPG,AFNE01.JPG,AFNE01.JPG,AFNE01.JPG,AFNE01.JPG,AFNE01.JPG,,,,,4,0,40,7,,,,,,,,,,,,,,,,,,,AMNE04.jpg,AMNE18.jpg,AMSA01.jpg,AMSA10.jpg,AMNE04.jpg,MN,1,num_8,16,num_8,1.20010526699,,,2017_Jul_24_1506,60.0202712009,FEMA4ImagesEEG,001,101038,
AFNE01.JPG,AFNE01.JPG,AFNE01.JPG,AFNE01.JPG,AFNE01.JPG,AFNE01.JPG,,,,,4,1,41,3,,,,,,,,,,,,,,,,,,,AMSA15.jpg,AMNE08.jpg,AMSA05.jpg,AMNE12.jpg,AMSA15.jpg,MS,2,num_8,16,num_8,1.46677148447,,,2017_Jul_24_1506,60.0202712009,FEMA4ImagesEEG,001,101038,
AFNE01.JPG,AFNE01.JPG,AFNE01.JPG,AFNE01.JPG,AFNE01.JPG,AFNE01.JPG,,,,,4,2,42,6,,,,,,,,,,,,,,,,,,,AMNE15.jpg,AMSA09.jpg,AMSA06.jpg,AMNE08.jpg,AMSA09.jpg,MS,2,num_6,16,num_6,0.600184617913,,,2017_Jul_24_1506,60.0202712009,FEMA4ImagesEEG,001,101038,
AFNE01.JPG,AFNE01.JPG,AFNE01.JPG,AFNE01.JPG,AFNE01.JPG,AFNE01.JPG,,,,,4,3,43,5,,,,,,,,,,,,,,,,,,,AMNE17.jpg,AMNE18.jpg,AMSA18.jpg,AMSA04.jpg,AMNE17.jpg,MN,1,num_8,32,num_4,1.35008366511,,,2017_Jul_24_1506,60.0202712009,FEMA4ImagesEEG,001,101038,
AFNE01.JPG,AFNE01.JPG,AFNE01.JPG,AFNE01.JPG,AFNE01.JPG,AFNE01.JPG,,,,,4,4,44,8,,,,,,,,,,,,,,,,,,,AMSA07.jpg,AMNE19.jpg,AMNE17.jpg,AMSA15.jpg,AMSA15.jpg,MS,2,num_4,32,num_8,1.28332449694,,,2017_Jul_24_1506,60.0202712009,FEMA4ImagesEEG,001,101038,
AFNE01.JPG,AFNE01.JPG,AFNE01.JPG,AFNE01.JPG,AFNE01.JPG,AFNE01.JPG,,,,,4,5,45,4,,,,,,,,,,,,,,,,,,,AMSA09.jpg,AMSA04.jpg,AMNE10.jpg,AMNE01.jpg,AMSA04.jpg,MS,2,num_6,16,num_6,0.950173664722,,,2017_Jul_24_1506,60.0202712009,FEMA4ImagesEEG,001,101038,
AFNE01.JPG,AFNE01.JPG,AFNE01.JPG,AFNE01.JPG,AFNE01.JPG,AFNE01.JPG,,,,,4,6,46,0,,,,,,,,,,,,,,,,,,,AMNE10.jpg,AMSA05.jpg,AMNE08.jpg,AMSA10.jpg,AMSA05.jpg,MS,2,num_6,16,num_6,0.833594255382,,,2017_Jul_24_1506,60.0202712009,FEMA4ImagesEEG,001,101038,
AFNE01.JPG,AFNE01.JPG,AFNE01.JPG,AFNE01.JPG,AFNE01.JPG,AFNE01.JPG,,,,,4,7,47,1,,,,,,,,,,,,,,,,,,,AMNE04.jpg,AMSA16.jpg,AMNE07.jpg,AMSA17.jpg,AMSA17.jpg,MS,2,num_4,16,num_4,1.20011168171,,,2017_Jul_24_1506,60.0202712009,FEMA4ImagesEEG,001,101038,
AFNE01.JPG,AFNE01.JPG,AFNE01.JPG,AFNE01.JPG,AFNE01.JPG,AFNE01.JPG,,,,,4,8,48,9,,,,,,,,,,,,,,,,,,,AMSA14.jpg,AMNE13.jpg,AMSA05.jpg,AMNE18.jpg,AMNE18.jpg,MN,1,num_4,32,num_6,0.799966258113,,,2017_Jul_24_1506,60.0202712009,FEMA4ImagesEEG,001,101038,
AFNE01.JPG,AFNE01.JPG,AFNE01.JPG,AFNE01.JPG,AFNE01.JPG,AFNE01.JPG,,,,,4,9,49,2,,,,,,,,,,,,,,,,,,,AMNE14.jpg,AMSA09.jpg,AMSA19.jpg,AMNE16.jpg,AMNE16.jpg,MN,1,num_4,16,num_4,0.85010884318,,,2017_Jul_24_1506,60.0202712009,FEMA4ImagesEEG,001,101038,
AFNE01.JPG,AFNE01.JPG,AFNE01.JPG,AFNE01.JPG,AFNE01.JPG,AFNE01.JPG,,,,,5,0,50,6,,,,,,,,,,,,,,,,,,,AMNE18.jpg,AMSA19.jpg,AMNE09.jpg,AMSA02.jpg,AMNE09.jpg,MN,1,num_2,32,num_8,0.850155029795,,,2017_Jul_24_1506,60.0202712009,FEMA4ImagesEEG,001,101038,
AFNE01.JPG,AFNE01.JPG,AFNE01.JPG,AFNE01.JPG,AFNE01.JPG,AFNE01.JPG,,,,,5,1,51,3,,,,,,,,,,,,,,,,,,,AMSA06.jpg,AMSA03.jpg,AMNE20.jpg,AMNE03.jpg,AMNE20.jpg,MN,1,num_2,32,num_8,2.94993407186,,,2017_Jul_24_1506,60.0202712009,FEMA4ImagesEEG,001,101038,
AFNE01.JPG,AFNE01.JPG,AFNE01.JPG,AFNE01.JPG,AFNE01.JPG,AFNE01.JPG,,,,,5,2,52,5,,,,,,,,,,,,,,,,,,,AMSA10.jpg,AMNE02.jpg,AMNE13.jpg,AMSA01.jpg,AMSA01.jpg,MS,2,num_4,32,num_8,1.66669328813,,,2017_Jul_24_1506,60.0202712009,FEMA4ImagesEEG,001,101038,
AFNE01.JPG,AFNE01.JPG,AFNE01.JPG,AFNE01.JPG,AFNE01.JPG,AFNE01.JPG,,,,,5,3,53,8,,,,,,,,,,,,,,,,,,,AMNE09.jpg,AMSA20.jpg,AMSA11.jpg,AMNE14.jpg,AMNE09.jpg,MN,1,num_8,32,num_6,3.51657280209,,,2017_Jul_24_1506,60.0202712009,FEMA4ImagesEEG,001,101038,
AFNE01.JPG,AFNE01.JPG,AFNE01.JPG,AFNE01.JPG,AFNE01.JPG,AFNE01.JPG,,,,,5,4,54,7,,,,,,,,,,,,,,,,,,,AMNE01.jpg,AMNE11.jpg,AMSA16.jpg,AMSA15.jpg,AMSA15.jpg,MS,2,num_4,16,num_4,0.450096205925,,,2017_Jul_24_1506,60.0202712009,FEMA4ImagesEEG,001,101038,
AFNE01.JPG,AFNE01.JPG,AFNE01.JPG,AFNE01.JPG,AFNE01.JPG,AFNE01.JPG,,,,,5,5,55,9,,,,,,,,,,,,,,,,,,,AMNE01.jpg,AMSA02.jpg,AMNE08.jpg,AMSA10.jpg,AMSA02.jpg,MS,2,num_6,32,num_8,1.00011225906,,,2017_Jul_24_1506,60.0202712009,FEMA4ImagesEEG,001,101038,
AFNE01.JPG,AFNE01.JPG,AFNE01.JPG,AFNE01.JPG,AFNE01.JPG,AFNE01.JPG,,,,,5,6,56,1,,,,,,,,,,,,,,,,,,,AMNE16.jpg,AMNE08.jpg,AMSA14.jpg,AMSA03.jpg,AMNE16.jpg,MN,1,num_8,32,num_6,0.850093447603,,,2017_Jul_24_1506,60.0202712009,FEMA4ImagesEEG,001,101038,
AFNE01.JPG,AFNE01.JPG,AFNE01.JPG,AFNE01.JPG,AFNE01.JPG,AFNE01.JPG,,,,,5,7,57,4,,,,,,,,,,,,,,,,,,,AMSA09.jpg,AMSA05.jpg,AMNE01.jpg,AMNE20.jpg,AMSA05.jpg,MS,2,num_6,32,num_4,1.71681791171,,,2017_Jul_24_1506,60.0202712009,FEMA4ImagesEEG,001,101038,
AFNE01.JPG,AFNE01.JPG,AFNE01.JPG,AFNE01.JPG,AFNE01.JPG,AFNE01.JPG,,,,,5,8,58,0,,,,,,,,,,,,,,,,,,,AMNE05.jpg,AMSA18.jpg,AMSA03.jpg,AMNE12.jpg,AMNE12.jpg,MN,1,num_4,32,num_8,1.38348008797,,,2017_Jul_24_1506,60.0202712009,FEMA4ImagesEEG,001,101038,
AFNE01.JPG,AFNE01.JPG,AFNE01.JPG,AFNE01.JPG,AFNE01.JPG,AFNE01.JPG,,,,,5,9,59,2,,,,,,,,,,,,,,,,,,,AMSA02.jpg,AMNE12.jpg,AMSA08.jpg,AMNE07.jpg,AMSA02.jpg,MS,2,num_8,16,num_8,1.1001491762,,,2017_Jul_24_1506,60.0202712009,FEMA4ImagesEEG,001,101038,
,,,,,,,,,,,,,,,,,,,,,,,,,,,,,,,,,,,,,,,,,,,space,15.1324271784,2017_Jul_24_1506,60.0202712009,FEMA4ImagesEEG,001,101038,
AFNE01.JPG,AFNE01.JPG,AFNE01.JPG,AFNE01.JPG,AFNE01.JPG,AFNE01.JPG,,,,,,,,,0,0,0,8,,,,,,,,,,,,,,,AFNE16.jpg,AFSA16.jpg,AFNE09.jpg,AFSA20.jpg,AFNE16.jpg,FN,3,num_8,16,num_8,0.883580639958,,,2017_Jul_24_1506,60.0202712009,FEMA4ImagesEEG,001,101038,
AFNE01.JPG,AFNE01.JPG,AFNE01.JPG,AFNE01.JPG,AFNE01.JPG,AFNE01.JPG,,,,,,,,,0,1,1,1,,,,,,,,,,,,,,,AFSA04.jpg,AFSA16.jpg,AFNE06.jpg,AFNE18.jpg,AFNE06.jpg,FN,3,num_2,16,num_2,0.883449136512,,,2017_Jul_24_1506,60.0202712009,FEMA4ImagesEEG,001,101038,
AFNE01.JPG,AFNE01.JPG,AFNE01.JPG,AFNE01.JPG,AFNE01.JPG,AFNE01.JPG,,,,,,,,,0,2,2,6,,,,,,,,,,,,,,,AFSA18.jpg,AFNE08.jpg,AFNE10.jpg,AFSA17.jpg,AFSA18.jpg,FS,4,num_8,32,num_6,0.683503918932,,,2017_Jul_24_1506,60.0202712009,FEMA4ImagesEEG,001,101038,
AFNE01.JPG,AFNE01.JPG,AFNE01.JPG,AFNE01.JPG,AFNE01.JPG,AFNE01.JPG,,,,,,,,,0,3,3,4,,,,,,,,,,,,,,,AFSA01.jpg,AFNE15.jpg,AFNE08.jpg,AFSA20.jpg,AFNE15.jpg,FN,3,num_6,32,num_4,0.816803189693,,,2017_Jul_24_1506,60.0202712009,FEMA4ImagesEEG,001,101038,
AFNE01.JPG,AFNE01.JPG,AFNE01.JPG,AFNE01.JPG,AFNE01.JPG,AFNE01.JPG,,,,,,,,,0,4,4,9,,,,,,,,,,,,,,,AFNE04.jpg,AFSA16.jpg,AFNE16.jpg,AFSA01.jpg,AFSA01.jpg,FS,4,num_4,32,num_2,0.783496894757,,,2017_Jul_24_1506,60.0202712009,FEMA4ImagesEEG,001,101038,
AFNE01.JPG,AFNE01.JPG,AFNE01.JPG,AFNE01.JPG,AFNE01.JPG,AFNE01.JPG,,,,,,,,,0,5,5,5,,,,,,,,,,,,,,,AFNE05.jpg,AFNE11.jpg,AFSA08.jpg,AFSA09.jpg,AFSA09.jpg,FS,4,num_4,32,num_8,0.866736652097,,,2017_Jul_24_1506,60.0202712009,FEMA4ImagesEEG,001,101038,
AFNE01.JPG,AFNE01.JPG,AFNE01.JPG,AFNE01.JPG,AFNE01.JPG,AFNE01.JPG,,,,,,,,,0,6,6,0,,,,,,,,,,,,,,,AFNE04.jpg,AFSA14.jpg,AFSA09.jpg,AFNE09.jpg,AFSA14.jpg,FS,4,num_6,32,num_2,0.833530107397,,,2017_Jul_24_1506,60.0202712009,FEMA4ImagesEEG,001,101038,
AFNE01.JPG,AFNE01.JPG,AFNE01.JPG,AFNE01.JPG,AFNE01.JPG,AFNE01.JPG,,,,,,,,,0,7,7,3,,,,,,,,,,,,,,,AFSA01.jpg,AFNE14.jpg,AFSA11.jpg,AFNE03.jpg,AFNE03.jpg,FN,3,num_4,16,num_4,1.83347975113,,,2017_Jul_24_1506,60.0202712009,FEMA4ImagesEEG,001,101038,
AFNE01.JPG,AFNE01.JPG,AFNE01.JPG,AFNE01.JPG,AFNE01.JPG,AFNE01.JPG,,,,,,,,,0,8,8,2,,,,,,,,,,,,,,,AFNE14.jpg,AFSA11.jpg,AFSA06.jpg,AFNE11.jpg,AFSA11.jpg,FS,4,num_6,32,num_4,1.08342290006,,,2017_Jul_24_1506,60.0202712009,FEMA4ImagesEEG,001,101038,
AFNE01.JPG,AFNE01.JPG,AFNE01.JPG,AFNE01.JPG,AFNE01.JPG,AFNE01.JPG,,,,,,,,,0,9,9,7,,,,,,,,,,,,,,,AFNE09.jpg,AFNE01.jpg,AFSA15.jpg,AFSA08.jpg,AFNE09.jpg,FN,3,num_8,16,num_8,1.21675841429,,,2017_Jul_24_1506,60.0202712009,FEMA4ImagesEEG,001,101038,
AFNE01.JPG,AFNE01.JPG,AFNE01.JPG,AFNE01.JPG,AFNE01.JPG,AFNE01.JPG,,,,,,,,,1,0,10,7,,,,,,,,,,,,,,,AFSA12.jpg,AFSA15.jpg,AFNE18.jpg,AFNE11.jpg,AFSA15.jpg,FS,4,num_6,32,num_4,1.31684632925,,,2017_Jul_24_1506,60.0202712009,FEMA4ImagesEEG,001,101038,
AFNE01.JPG,AFNE01.JPG,AFNE01.JPG,AFNE01.JPG,AFNE01.JPG,AFNE01.JPG,,,,,,,,,1,1,11,2,,,,,,,,,,,,,,,AFSA05.jpg,AFNE15.jpg,AFNE18.jpg,AFSA18.jpg,AFNE15.jpg,FN,3,num_6,32,num_2,0.78362711519,,,2017_Jul_24_1506,60.0202712009,FEMA4ImagesEEG,001,101038,
AFNE01.JPG,AFNE01.JPG,AFNE01.JPG,AFNE01.JPG,AFNE01.JPG,AFNE01.JPG,,,,,,,,,1,2,12,3,,,,,,,,,,,,,,,AFNE11.jpg,AFSA06.jpg,AFSA02.jpg,AFNE10.jpg,AFNE11.jpg,FN,3,num_8,32,num_2,1.85009440978,,,2017_Jul_24_1506,60.0202712009,FEMA4ImagesEEG,001,101038,
AFNE01.JPG,AFNE01.JPG,AFNE01.JPG,AFNE01.JPG,AFNE01.JPG,AFNE01.JPG,,,,,,,,,1,3,13,8,,,,,,,,,,,,,,,AFSA04.jpg,AFNE15.jpg,AFNE19.jpg,AFSA20.jpg,AFSA20.jpg,FS,4,num_4,32,num_8,0.850095692906,,,2017_Jul_24_1506,60.0202712009,FEMA4ImagesEEG,001,101038,
AFNE01.JPG,AFNE01.JPG,AFNE01.JPG,AFNE01.JPG,AFNE01.JPG,AFNE01.JPG,,,,,,,,,1,4,14,0,,,,,,,,,,,,,,,AFNE19.jpg,AFNE06.jpg,AFSA07.jpg,AFSA10.jpg,AFNE19.jpg,FN,3,num_8,32,num_4,1.01686515659,,,2017_Jul_24_1506,60.0202712009,FEMA4ImagesEEG,001,101038,
AFNE01.JPG,AFNE01.JPG,AFNE01.JPG,AFNE01.JPG,AFNE01.JPG,AFNE01.JPG,,,,,,,,,1,5,15,5,,,,,,,,,,,,,,,AFNE17.jpg,AFSA18.jpg,AFNE14.jpg,AFSA11.jpg,AFSA11.jpg,FS,4,num_4,16,num_4,0.650127061293,,,2017_Jul_24_1506,60.0202712009,FEMA4ImagesEEG,001,101038,
AFNE01.JPG,AFNE01.JPG,AFNE01.JPG,AFNE01.JPG,AFNE01.JPG,AFNE01.JPG,,,,,,,,,1,6,16,9,,,,,,,,,,,,,,,AFNE17.jpg,AFSA20.jpg,AFSA10.jpg,AFNE20.jpg,AFNE17.jpg,FN,3,num_8,16,num_8,1.70007174951,,,2017_Jul_24_1506,60.0202712009,FEMA4ImagesEEG,001,101038,
AFNE01.JPG,AFNE01.JPG,AFNE01.JPG,AFNE01.JPG,AFNE01.JPG,AFNE01.JPG,,,,,,,,,1,7,17,6,,,,,,,,,,,,,,,AFNE02.jpg,AFSA19.jpg,AFSA08.jpg,AFNE06.jpg,AFSA19.jpg,FS,4,num_6,16,num_6,1.90000830719,,,2017_Jul_24_1506,60.0202712009,FEMA4ImagesEEG,001,101038,
AFNE01.JPG,AFNE01.JPG,AFNE01.JPG,AFNE01.JPG,AFNE01.JPG,AFNE01.JPG,,,,,,,,,1,8,18,4,,,,,,,,,,,,,,,AFSA03.jpg,AFNE08.jpg,AFNE14.jpg,AFSA19.jpg,AFSA03.jpg,FS,4,num_8,32,num_6,0.783488876303,,,2017_Jul_24_1506,60.0202712009,FEMA4ImagesEEG,001,101038,
AFNE01.JPG,AFNE01.JPG,AFNE01.JPG,AFNE01.JPG,AFNE01.JPG,AFNE01.JPG,,,,,,,,,1,9,19,1,,,,,,,,,,,,,,,AFNE13.jpg,AFNE20.jpg,AFSA06.jpg,AFSA12.jpg,AFNE20.jpg,FN,3,num_6,16,num_6,0.966760098236,,,2017_Jul_24_1506,60.0202712009,FEMA4ImagesEEG,001,101038,
AFNE01.JPG,AFNE01.JPG,AFNE01.JPG,AFNE01.JPG,AFNE01.JPG,AFNE01.JPG,,,,,,,,,2,0,20,3,,,,,,,,,,,,,,,AFSA10.jpg,AFNE06.jpg,AFSA01.jpg,AFNE17.jpg,AFSA01.jpg,FS,4,num_2,16,num_2,1.1500983549,,,2017_Jul_24_1506,60.0202712009,FEMA4ImagesEEG,001,101038,
AFNE01.JPG,AFNE01.JPG,AFNE01.JPG,AFNE01.JPG,AFNE01.JPG,AFNE01.JPG,,,,,,,,,2,1,21,4,,,,,,,,,,,,,,,AFNE20.jpg,AFSA11.jpg,AFSA06.jpg,AFNE01.jpg,AFNE01.jpg,FN,3,num_4,32,num_8,0.900143659441,,,2017_Jul_24_1506,60.0202712009,FEMA4ImagesEEG,001,101038,
AFNE01.JPG,AFNE01.JPG,AFNE01.JPG,AFNE01.JPG,AFNE01.JPG,AFNE01.JPG,,,,,,,,,2,2,22,6,,,,,,,,,,,,,,,AFNE11.jpg,AFSA18.jpg,AFSA12.jpg,AFNE15.jpg,AFSA18.jpg,FS,4,num_6,16,num_6,1.25013142324,,,2017_Jul_24_1506,60.0202712009,FEMA4ImagesEEG,001,101038,
AFNE01.JPG,AFNE01.JPG,AFNE01.JPG,AFNE01.JPG,AFNE01.JPG,AFNE01.JPG,,,,,,,,,2,3,23,1,,,,,,,,,,,,,,,AFNE12.jpg,AFNE05.jpg,AFSA12.jpg,AFSA07.jpg,AFSA07.jpg,FS,4,num_4,16,num_4,0.583342233789,,,2017_Jul_24_1506,60.0202712009,FEMA4ImagesEEG,001,101038,
AFNE01.JPG,AFNE01.JPG,AFNE01.JPG,AFNE01.JPG,AFNE01.JPG,AFNE01.JPG,,,,,,,,,2,4,24,9,,,,,,,,,,,,,,,AFSA09.jpg,AFSA03.jpg,AFNE15.jpg,AFNE09.jpg,AFSA09.jpg,FS,4,num_8,32,num_2,1.4665607583,,,2017_Jul_24_1506,60.0202712009,FEMA4ImagesEEG,001,101038,
AFNE01.JPG,AFNE01.JPG,AFNE01.JPG,AFNE01.JPG,AFNE01.JPG,AFNE01.JPG,,,,,,,,,2,5,25,0,,,,,,,,,,,,,,,AFSA14.jpg,AFSA04.jpg,AFNE04.jpg,AFNE01.jpg,AFSA14.jpg,FS,4,num_8,32,num_6,1.21674718847,,,2017_Jul_24_1506,60.0202712009,FEMA4ImagesEEG,001,101038,
AFNE01.JPG,AFNE01.JPG,AFNE01.JPG,AFNE01.JPG,AFNE01.JPG,AFNE01.JPG,,,,,,,,,2,6,26,8,,,,,,,,,,,,,,,AFSA11.jpg,AFNE08.jpg,AFSA08.jpg,AFNE14.jpg,AFNE08.jpg,FN,3,num_6,16,num_6,1.03346474061,,,2017_Jul_24_1506,60.0202712009,FEMA4ImagesEEG,001,101038,
AFNE01.JPG,AFNE01.JPG,AFNE01.JPG,AFNE01.JPG,AFNE01.JPG,AFNE01.JPG,,,,,,,,,2,7,27,5,,,,,,,,,,,,,,,AFSA08.jpg,AFNE04.jpg,AFNE16.jpg,AFSA17.jpg,AFSA08.jpg,FS,4,num_8,16,num_8,1.06670817046,,,2017_Jul_24_1506,60.0202712009,FEMA4ImagesEEG,001,101038,
AFNE01.JPG,AFNE01.JPG,AFNE01.JPG,AFNE01.JPG,AFNE01.JPG,AFNE01.JPG,,,,,,,,,2,8,28,2,,,,,,,,,,,,,,,AFNE09.jpg,AFSA13.jpg,AFNE14.jpg,AFSA09.jpg,AFNE09.jpg,FN,3,num_8,32,num_2,1.2166904175,,,2017_Jul_24_1506,60.0202712009,FEMA4ImagesEEG,001,101038,
AFNE01.JPG,AFNE01.JPG,AFNE01.JPG,AFNE01.JPG,AFNE01.JPG,AFNE01.JPG,,,,,,,,,2,9,29,7,,,,,,,,,,,,,,,AFSA16.jpg,AFSA12.jpg,AFNE15.jpg,AFNE05.jpg,AFNE15.jpg,FN,3,num_2,32,num_4,1.11673721345,,,2017_Jul_24_1506,60.0202712009,FEMA4ImagesEEG,001,101038,
AFNE01.JPG,AFNE01.JPG,AFNE01.JPG,AFNE01.JPG,AFNE01.JPG,AFNE01.JPG,,,,,,,,,3,0,30,6,,,,,,,,,,,,,,,AFNE15.jpg,AFSA12.jpg,AFSA04.jpg,AFNE19.jpg,AFNE15.jpg,FN,3,num_8,16,num_8,0.766805899912,,,2017_Jul_24_1506,60.0202712009,FEMA4ImagesEEG,001,101038,
AFNE01.JPG,AFNE01.JPG,AFNE01.JPG,AFNE01.JPG,AFNE01.JPG,AFNE01.JPG,,,,,,,,,3,1,31,0,,,,,,,,,,,,,,,AFNE12.jpg,AFNE02.jpg,AFSA09.jpg,AFSA01.jpg,AFSA01.jpg,FS,4,num_4,16,num_4,1.61682910554,,,2017_Jul_24_1506,60.0202712009,FEMA4ImagesEEG,001,101038,
AFNE01.JPG,AFNE01.JPG,AFNE01.JPG,AFNE01.JPG,AFNE01.JPG,AFNE01.JPG,,,,,,,,,3,2,32,7,,,,,,,,,,,,,,,AFSA16.jpg,AFNE11.jpg,AFNE07.jpg,AFSA19.jpg,AFNE07.jpg,FN,3,num_2,16,num_2,0.850112371263,,,2017_Jul_24_1506,60.0202712009,FEMA4ImagesEEG,001,101038,
AFNE01.JPG,AFNE01.JPG,AFNE01.JPG,AFNE01.JPG,AFNE01.JPG,AFNE01.JPG,,,,,,,,,3,3,33,3,,,,,,,,,,,,,,,AFNE11.jpg,AFSA12.jpg,AFNE06.jpg,AFSA13.jpg,AFSA13.jpg,FS,4,num_4,32,num_6,1.06674697995,,,2017_Jul_24_1506,60.0202712009,FEMA4ImagesEEG,001,101038,
AFNE01.JPG,AFNE01.JPG,AFNE01.JPG,AFNE01.JPG,AFNE01.JPG,AFNE01.JPG,,,,,,,,,3,4,34,1,,,,,,,,,,,,,,,AFSA08.jpg,AFSA14.jpg,AFNE02.jpg,AFNE18.jpg,AFSA08.jpg,FS,4,num_8,32,num_6,1.00012797536,,,2017_Jul_24_1506,60.0202712009,FEMA4ImagesEEG,001,101038,
AFNE01.JPG,AFNE01.JPG,AFNE01.JPG,AFNE01.JPG,AFNE01.JPG,AFNE01.JPG,,,,,,,,,3,5,35,9,,,,,,,,,,,,,,,AFNE08.jpg,AFNE17.jpg,AFSA06.jpg,AFSA02.jpg,AFNE08.jpg,FN,3,num_8,32,num_6,1.01688536326,,,2017_Jul_24_1506,60.0202712009,FEMA4ImagesEEG,001,101038,
AFNE01.JPG,AFNE01.JPG,AFNE01.JPG,AFNE01.JPG,AFNE01.JPG,AFNE01.JPG,,,,,,,,,3,6,36,4,,,,,,,,,,,,,,,AFSA14.jpg,AFNE08.jpg,AFNE17.jpg,AFSA09.jpg,AFNE08.jpg,FN,3,num_6,32,num_8,1.18341010239,,,2017_Jul_24_1506,60.0202712009,FEMA4ImagesEEG,001,101038,
AFNE01.JPG,AFNE01.JPG,AFNE01.JPG,AFNE01.JPG,AFNE01.JPG,AFNE01.JPG,,,,,,,,,3,7,37,5,,,,,,,,,,,,,,,AFSA09.jpg,AFNE12.jpg,AFNE05.jpg,AFSA02.jpg,AFSA02.jpg,FS,4,num_4,32,num_2,0.816795491846,,,2017_Jul_24_1506,60.0202712009,FEMA4ImagesEEG,001,101038,
AFNE01.JPG,AFNE01.JPG,AFNE01.JPG,AFNE01.JPG,AFNE01.JPG,AFNE01.JPG,,,,,,,,,3,8,38,2,,,,,,,,,,,,,,,AFSA15.jpg,AFNE16.jpg,AFSA13.jpg,AFNE10.jpg,AFSA15.jpg,FS,4,num_8,16,num_8,1.10012063046,,,2017_Jul_24_1506,60.0202712009,FEMA4ImagesEEG,001,101038,
AFNE01.JPG,AFNE01.JPG,AFNE01.JPG,AFNE01.JPG,AFNE01.JPG,AFNE01.JPG,,,,,,,,,3,9,39,8,,,,,,,,,,,,,,,AFSA01.jpg,AFNE10.jpg,AFNE12.jpg,AFSA14.jpg,AFNE10.jpg,FN,3,num_6,16,num_6,1.18341523432,,,2017_Jul_24_1506,60.0202712009,FEMA4ImagesEEG,001,101038,
AFNE01.JPG,AFNE01.JPG,AFNE01.JPG,AFNE01.JPG,AFNE01.JPG,AFNE01.JPG,,,,,,,,,4,0,40,2,,,,,,,,,,,,,,,AFNE15.jpg,AFSA06.jpg,AFNE09.jpg,AFSA19.jpg,AFSA19.jpg,FS,4,num_4,32,num_6,0.766615059692,,,2017_Jul_24_1506,60.0202712009,FEMA4ImagesEEG,001,101038,
AFNE01.JPG,AFNE01.JPG,AFNE01.JPG,AFNE01.JPG,AFNE01.JPG,AFNE01.JPG,,,,,,,,,4,1,41,3,,,,,,,,,,,,,,,AFSA14.jpg,AFNE19.jpg,AFSA20.jpg,AFNE03.jpg,AFSA20.jpg,FS,4,num_2,32,num_6,0.783474443015,,,2017_Jul_24_1506,60.0202712009,FEMA4ImagesEEG,001,101038,
AFNE01.JPG,AFNE01.JPG,AFNE01.JPG,AFNE01.JPG,AFNE01.JPG,AFNE01.JPG,,,,,,,,,4,2,42,0,,,,,,,,,,,,,,,AFSA01.jpg,AFNE10.jpg,AFNE17.jpg,AFSA03.jpg,AFNE10.jpg,FN,3,num_6,16,num_6,1.03345928795,,,2017_Jul_24_1506,60.0202712009,FEMA4ImagesEEG,001,101038,
AFNE01.JPG,AFNE01.JPG,AFNE01.JPG,AFNE01.JPG,AFNE01.JPG,AFNE01.JPG,,,,,,,,,4,3,43,6,,,,,,,,,,,,,,,AFSA01.jpg,AFNE08.jpg,AFNE09.jpg,AFSA14.jpg,AFNE08.jpg,FN,3,num_6,16,num_6,4.54991149181,,,2017_Jul_24_1506,60.0202712009,FEMA4ImagesEEG,001,101038,
AFNE01.JPG,AFNE01.JPG,AFNE01.JPG,AFNE01.JPG,AFNE01.JPG,AFNE01.JPG,,,,,,,,,4,4,44,4,,,,,,,,,,,,,,,AFNE07.jpg,AFSA05.jpg,AFSA13.jpg,AFNE03.jpg,AFSA13.jpg,FS,4,num_2,32,num_8,1.2501006322,,,2017_Jul_24_1506,60.0202712009,FEMA4ImagesEEG,001,101038,
AFNE01.JPG,AFNE01.JPG,AFNE01.JPG,AFNE01.JPG,AFNE01.JPG,AFNE01.JPG,,,,,,,,,4,5,45,9,,,,,,,,,,,,,,,AFSA10.jpg,AFNE19.jpg,AFSA04.jpg,AFNE15.jpg,AFNE15.jpg,FN,3,num_4,16,num_4,3.11659320106,,,2017_Jul_24_1506,60.0202712009,FEMA4ImagesEEG,001,101038,
AFNE01.JPG,AFNE01.JPG,AFNE01.JPG,AFNE01.JPG,AFNE01.JPG,AFNE01.JPG,,,,,,,,,4,6,46,7,,,,,,,,,,,,,,,AFNE18.jpg,AFNE16.jpg,AFSA14.jpg,AFSA17.jpg,AFNE18.jpg,FN,3,num_8,16,num_8,0.933407296077,,,2017_Jul_24_1506,60.0202712009,FEMA4ImagesEEG,001,101038,
AFNE01.JPG,AFNE01.JPG,AFNE01.JPG,AFNE01.JPG,AFNE01.JPG,AFNE01.JPG,,,,,,,,,4,7,47,1,,,,,,,,,,,,,,,AFSA09.jpg,AFSA03.jpg,AFNE20.jpg,AFNE09.jpg,AFSA09.jpg,FS,4,num_8,32,num_2,0.850121672731,,,2017_Jul_24_1506,60.0202712009,FEMA4ImagesEEG,001,101038,
AFNE01.JPG,AFNE01.JPG,AFNE01.JPG,AFNE01.JPG,AFNE01.JPG,AFNE01.JPG,,,,,,,,,4,8,48,5,,,,,,,,,,,,,,,AFSA16.jpg,AFNE19.jpg,AFNE03.jpg,AFSA18.jpg,AFSA16.jpg,FS,4,num_8,16,num_8,2.0333823103,,,2017_Jul_24_1506,60.0202712009,FEMA4ImagesEEG,001,101038,
AFNE01.JPG,AFNE01.JPG,AFNE01.JPG,AFNE01.JPG,AFNE01.JPG,AFNE01.JPG,,,,,,,,,4,9,49,8,,,,,,,,,,,,,,,AFSA12.jpg,AFSA08.jpg,AFNE09.jpg,AFNE08.jpg,AFSA12.jpg,FS,4,num_8,32,num_6,0.783563287929,,,2017_Jul_24_1506,60.0202712009,FEMA4ImagesEEG,001,101038,
AFNE01.JPG,AFNE01.JPG,AFNE01.JPG,AFNE01.JPG,AFNE01.JPG,AFNE01.JPG,,,,,,,,,5,0,50,4,,,,,,,,,,,,,,,AFSA13.jpg,AFSA04.jpg,AFNE20.jpg,AFNE09.jpg,AFSA13.jpg,FS,4,num_8,32,num_4,1.21677284769,,,2017_Jul_24_1506,60.0202712009,FEMA4ImagesEEG,001,101038,
AFNE01.JPG,AFNE01.JPG,AFNE01.JPG,AFNE01.JPG,AFNE01.JPG,AFNE01.JPG,,,,,,,,,5,1,51,0,,,,,,,,,,,,,,,AFNE15.jpg,AFNE03.jpg,AFSA11.jpg,AFSA19.jpg,AFSA19.jpg,FS,4,num_4,32,num_6,1.71676370653,,,2017_Jul_24_1506,60.0202712009,FEMA4ImagesEEG,001,101038,
AFNE01.JPG,AFNE01.JPG,AFNE01.JPG,AFNE01.JPG,AFNE01.JPG,AFNE01.JPG,,,,,,,,,5,2,52,6,,,,,,,,,,,,,,,AFNE09.jpg,AFNE15.jpg,AFSA19.jpg,AFSA15.jpg,AFNE15.jpg,FN,3,num_6,32,num_4,0.516886165133,,,2017_Jul_24_1506,60.0202712009,FEMA4ImagesEEG,001,101038,
AFNE01.JPG,AFNE01.JPG,AFNE01.JPG,AFNE01.JPG,AFNE01.JPG,AFNE01.JPG,,,,,,,,,5,3,53,3,,,,,,,,,,,,,,,AFSA10.jpg,AFSA05.jpg,AFNE16.jpg,AFNE01.jpg,AFSA05.jpg,FS,4,num_6,16,num_6,0.733465285855,,,2017_Jul_24_1506,60.0202712009,FEMA4ImagesEEG,001,101038,
AFNE01.JPG,AFNE01.JPG,AFNE01.JPG,AFNE01.JPG,AFNE01.JPG,AFNE01.JPG,,,,,,,,,5,4,54,9,,,,,,,,,,,,,,,AFSA03.jpg,AFNE20.jpg,AFNE19.jpg,AFSA19.jpg,AFSA19.jpg,FS,4,num_4,16,num_4,1.23345293733,,,2017_Jul_24_1506,60.0202712009,FEMA4ImagesEEG,001,101038,
AFNE01.JPG,AFNE01.JPG,AFNE01.JPG,AFNE01.JPG,AFNE01.JPG,AFNE01.JPG,,,,,,,,,5,5,55,1,,,,,,,,,,,,,,,AFNE08.jpg,AFNE11.jpg,AFSA08.jpg,AFSA18.jpg,AFSA18.jpg,FS,4,num_4,32,num_8,1.06671201927,,,2017_Jul_24_1506,60.0202712009,FEMA4ImagesEEG,001,101038,
AFNE01.JPG,AFNE01.JPG,AFNE01.JPG,AFNE01.JPG,AFNE01.JPG,AFNE01.JPG,,,,,,,,,5,6,56,2,,,,,,,,,,,,,,,AFNE19.jpg,AFSA04.jpg,AFSA05.jpg,AFNE15.jpg,AFSA05.jpg,FS,4,num_2,16,num_2,0.583478548331,,,2017_Jul_24_1506,60.0202712009,FEMA4ImagesEEG,001,101038,
AFNE01.JPG,AFNE01.JPG,AFNE01.JPG,AFNE01.JPG,AFNE01.JPG,AFNE01.JPG,,,,,,,,,5,7,57,7,,,,,,,,,,,,,,,AFNE10.jpg,AFSA08.jpg,AFNE09.jpg,AFSA13.jpg,AFNE10.jpg,FN,3,num_8,16,num_8,0.650152078946,,,2017_Jul_24_1506,60.0202712009,FEMA4ImagesEEG,001,101038,
AFNE01.JPG,AFNE01.JPG,AFNE01.JPG,AFNE01.JPG,AFNE01.JPG,AFNE01.JPG,,,,,,,,,5,8,58,8,,,,,,,,,,,,,,,AFNE13.jpg,AFSA18.jpg,AFNE17.jpg,AFSA20.jpg,AFNE13.jpg,FN,3,num_8,16,num_8,0.983522618073,,,2017_Jul_24_1506,60.0202712009,FEMA4ImagesEEG,001,101038,
AFNE01.JPG,AFNE01.JPG,AFNE01.JPG,AFNE01.JPG,AFNE01.JPG,AFNE01.JPG,,,,,,,,,5,9,59,5,,,,,,,,,,,,,,,AFNE17.jpg,AFSA11.jpg,AFNE20.jpg,AFSA07.jpg,AFSA11.jpg,FS,4,num_6,32,num_8,1.45005932089,,,2017_Jul_24_1506,60.0202712009,FEMA4ImagesEEG,001,101038,
,,,,,,,,,,,,,,,,,,,,,,,,,,,,,,,,,,,,,,,,,,,space,13.5488084665,2017_Jul_24_1506,60.0202712009,FEMA4ImagesEEG,001,101038,
AFNE01.JPG,AFNE01.JPG,AFNE01.JPG,AFNE01.JPG,AFNE01.JPG,AFNE01.JPG,,,,,,,,,,,,,0,0,0,2,,,,,,,,,,,AMSA18.jpg,AMNE17.jpg,AMNE04.jpg,AMSA02.jpg,AMNE17.jpg,MN,1,num_6,32,num_8,0.883490832872,,,2017_Jul_24_1506,60.0202712009,FEMA4ImagesEEG,001,101038,
AFNE01.JPG,AFNE01.JPG,AFNE01.JPG,AFNE01.JPG,AFNE01.JPG,AFNE01.JPG,,,,,,,,,,,,,0,1,1,3,,,,,,,,,,,AMSA05.jpg,AMSA16.jpg,AMNE10.jpg,AMNE08.jpg,AMSA05.jpg,MS,2,num_8,32,num_2,0.766743676388,,,2017_Jul_24_1506,60.0202712009,FEMA4ImagesEEG,001,101038,
AFNE01.JPG,AFNE01.JPG,AFNE01.JPG,AFNE01.JPG,AFNE01.JPG,AFNE01.JPG,,,,,,,,,,,,,0,2,2,5,,,,,,,,,,,AMSA02.jpg,AMNE04.jpg,AMNE07.jpg,AMSA11.jpg,AMNE07.jpg,MN,1,num_2,32,num_6,0.650180304074,,,2017_Jul_24_1506,60.0202712009,FEMA4ImagesEEG,001,101038,
AFNE01.JPG,AFNE01.JPG,AFNE01.JPG,AFNE01.JPG,AFNE01.JPG,AFNE01.JPG,,,,,,,,,,,,,0,3,3,9,,,,,,,,,,,AMSA07.jpg,AMNE10.jpg,AMSA04.jpg,AMNE14.jpg,AMSA07.jpg,MS,2,num_8,16,num_8,1.10009593342,,,2017_Jul_24_1506,60.0202712009,FEMA4ImagesEEG,001,101038,
AFNE01.JPG,AFNE01.JPG,AFNE01.JPG,AFNE01.JPG,AFNE01.JPG,AFNE01.JPG,,,,,,,,,,,,,0,4,4,7,,,,,,,,,,,AMNE20.jpg,AMSA01.jpg,AMNE10.jpg,AMSA16.jpg,AMNE20.jpg,MN,1,num_8,16,num_8,1.033549416,,,2017_Jul_24_1506,60.0202712009,FEMA4ImagesEEG,001,101038,
AFNE01.JPG,AFNE01.JPG,AFNE01.JPG,AFNE01.JPG,AFNE01.JPG,AFNE01.JPG,,,,,,,,,,,,,0,5,5,8,,,,,,,,,,,AMNE07.jpg,AMSA06.jpg,AMSA01.jpg,AMNE16.jpg,AMNE07.jpg,MN,1,num_8,32,num_4,1.81670953357,,,2017_Jul_24_1506,60.0202712009,FEMA4ImagesEEG,001,101038,
AFNE01.JPG,AFNE01.JPG,AFNE01.JPG,AFNE01.JPG,AFNE01.JPG,AFNE01.JPG,,,,,,,,,,,,,0,6,6,0,,,,,,,,,,,AMSA03.jpg,AMNE17.jpg,AMNE20.jpg,AMSA12.jpg,AMSA12.jpg,MS,2,num_4,32,num_6,1.36671724741,,,2017_Jul_24_1506,60.0202712009,FEMA4ImagesEEG,001,101038,
AFNE01.JPG,AFNE01.JPG,AFNE01.JPG,AFNE01.JPG,AFNE01.JPG,AFNE01.JPG,,,,,,,,,,,,,0,7,7,6,,,,,,,,,,,AMNE16.jpg,AMNE06.jpg,AMSA02.jpg,AMSA14.jpg,AMSA02.jpg,MS,2,num_2,32,num_4,0.900142376544,,,2017_Jul_24_1506,60.0202712009,FEMA4ImagesEEG,001,101038,
AFNE01.JPG,AFNE01.JPG,AFNE01.JPG,AFNE01.JPG,AFNE01.JPG,AFNE01.JPG,,,,,,,,,,,,,0,8,8,1,,,,,,,,,,,AMNE13.jpg,AMSA03.jpg,AMSA07.jpg,AMNE03.jpg,AMNE13.jpg,MN,1,num_8,32,num_6,0.933532705298,,,2017_Jul_24_1506,60.0202712009,FEMA4ImagesEEG,001,101038,
AFNE01.JPG,AFNE01.JPG,AFNE01.JPG,AFNE01.JPG,AFNE01.JPG,AFNE01.JPG,,,,,,,,,,,,,0,9,9,4,,,,,,,,,,,AMNE18.jpg,AMSA15.jpg,AMNE14.jpg,AMSA05.jpg,AMSA05.jpg,MS,2,num_4,32,num_8,0.700165405637,,,2017_Jul_24_1506,60.0202712009,FEMA4ImagesEEG,001,101038,
AFNE01.JPG,AFNE01.JPG,AFNE01.JPG,AFNE01.JPG,AFNE01.JPG,AFNE01.JPG,,,,,,,,,,,,,1,0,10,1,,,,,,,,,,,AMNE08.jpg,AMSA09.jpg,AMNE04.jpg,AMSA19.jpg,AMSA09.jpg,MS,2,num_6,16,num_6,1.20010270097,,,2017_Jul_24_1506,60.0202712009,FEMA4ImagesEEG,001,101038,
AFNE01.JPG,AFNE01.JPG,AFNE01.JPG,AFNE01.JPG,AFNE01.JPG,AFNE01.JPG,,,,,,,,,,,,,1,1,11,0,,,,,,,,,,,AMSA12.jpg,AMNE08.jpg,AMNE17.jpg,AMSA15.jpg,AMNE08.jpg,MN,1,num_6,16,num_6,0.700037751114,,,2017_Jul_24_1506,60.0202712009,FEMA4ImagesEEG,001,101038,
AFNE01.JPG,AFNE01.JPG,AFNE01.JPG,AFNE01.JPG,AFNE01.JPG,AFNE01.JPG,,,,,,,,,,,,,1,2,12,3,,,,,,,,,,,AMNE13.jpg,AMSA20.jpg,AMNE17.jpg,AMSA07.jpg,AMNE17.jpg,MN,1,num_2,32,num_8,0.983531919657,,,2017_Jul_24_1506,60.0202712009,FEMA4ImagesEEG,001,101038,
AFNE01.JPG,AFNE01.JPG,AFNE01.JPG,AFNE01.JPG,AFNE01.JPG,AFNE01.JPG,,,,,,,,,,,,,1,3,13,7,,,,,,,,,,,AMNE05.jpg,AMSA03.jpg,AMNE06.jpg,AMSA13.jpg,AMSA03.jpg,MS,2,num_6,32,num_4,1.11673208163,,,2017_Jul_24_1506,60.0202712009,FEMA4ImagesEEG,001,101038,
AFNE01.JPG,AFNE01.JPG,AFNE01.JPG,AFNE01.JPG,AFNE01.JPG,AFNE01.JPG,,,,,,,,,,,,,1,4,14,8,,,,,,,,,,,AMSA18.jpg,AMSA07.jpg,AMNE07.jpg,AMNE02.jpg,AMSA07.jpg,MS,2,num_6,32,num_8,0.783429218573,,,2017_Jul_24_1506,60.0202712009,FEMA4ImagesEEG,001,101038,
AFNE01.JPG,AFNE01.JPG,AFNE01.JPG,AFNE01.JPG,AFNE01.JPG,AFNE01.JPG,,,,,,,,,,,,,1,5,15,4,,,,,,,,,,,AMNE10.jpg,AMSA14.jpg,AMNE07.jpg,AMSA07.jpg,AMNE07.jpg,MN,1,num_2,32,num_6,0.766757147503,,,2017_Jul_24_1506,60.0202712009,FEMA4ImagesEEG,001,101038,
AFNE01.JPG,AFNE01.JPG,AFNE01.JPG,AFNE01.JPG,AFNE01.JPG,AFNE01.JPG,,,,,,,,,,,,,1,6,16,2,,,,,,,,,,,AMNE17.jpg,AMSA14.jpg,AMSA20.jpg,AMNE20.jpg,AMSA20.jpg,MS,2,num_2,16,num_2,0.733498963527,,,2017_Jul_24_1506,60.0202712009,FEMA4ImagesEEG,001,101038,
AFNE01.JPG,AFNE01.JPG,AFNE01.JPG,AFNE01.JPG,AFNE01.JPG,AFNE01.JPG,,,,,,,,,,,,,1,7,17,5,,,,,,,,,,,AMNE06.jpg,AMSA13.jpg,AMSA20.jpg,AMNE11.jpg,AMSA20.jpg,MS,2,num_2,16,num_2,0.650124495267,,,2017_Jul_24_1506,60.0202712009,FEMA4ImagesEEG,001,101038,
AFNE01.JPG,AFNE01.JPG,AFNE01.JPG,AFNE01.JPG,AFNE01.JPG,AFNE01.JPG,,,,,,,,,,,,,1,8,18,6,,,,,,,,,,,AMSA18.jpg,AMSA19.jpg,AMNE06.jpg,AMNE19.jpg,AMNE06.jpg,MN,1,num_2,32,num_6,0.883506549057,,,2017_Jul_24_1506,60.0202712009,FEMA4ImagesEEG,001,101038,
AFNE01.JPG,AFNE01.JPG,AFNE01.JPG,AFNE01.JPG,AFNE01.JPG,AFNE01.JPG,,,,,,,,,,,,,1,9,19,9,,,,,,,,,,,AMNE16.jpg,AMSA14.jpg,AMSA05.jpg,AMNE19.jpg,AMNE19.jpg,MN,1,num_4,16,num_4,0.666739474633,,,2017_Jul_24_1506,60.0202712009,FEMA4ImagesEEG,001,101038,
AFNE01.JPG,AFNE01.JPG,AFNE01.JPG,AFNE01.JPG,AFNE01.JPG,AFNE01.JPG,,,,,,,,,,,,,2,0,20,3,,,,,,,,,,,AMSA05.jpg,AMNE07.jpg,AMNE15.jpg,AMSA15.jpg,AMNE15.jpg,MN,1,num_2,16,num_2,0.83345280902,,,2017_Jul_24_1506,60.0202712009,FEMA4ImagesEEG,001,101038,
AFNE01.JPG,AFNE01.JPG,AFNE01.JPG,AFNE01.JPG,AFNE01.JPG,AFNE01.JPG,,,,,,,,,,,,,2,1,21,6,,,,,,,,,,,AMNE03.jpg,AMNE17.jpg,AMSA15.jpg,AMSA01.jpg,AMNE17.jpg,MN,1,num_6,16,num_6,0.716726821498,,,2017_Jul_24_1506,60.0202712009,FEMA4ImagesEEG,001,101038,
AFNE01.JPG,AFNE01.JPG,AFNE01.JPG,AFNE01.JPG,AFNE01.JPG,AFNE01.JPG,,,,,,,,,,,,,2,2,22,0,,,,,,,,,,,AMNE15.jpg,AMNE05.jpg,AMSA03.jpg,AMSA16.jpg,AMNE15.jpg,MN,1,num_8,16,num_8,1.03343747766,,,2017_Jul_24_1506,60.0202712009,FEMA4ImagesEEG,001,101038,
AFNE01.JPG,AFNE01.JPG,AFNE01.JPG,AFNE01.JPG,AFNE01.JPG,AFNE01.JPG,,,,,,,,,,,,,2,3,23,7,,,,,,,,,,,AMSA08.jpg,AMNE05.jpg,AMNE18.jpg,AMSA20.jpg,AMSA08.jpg,MS,2,num_8,32,num_4,0.650153682567,,,2017_Jul_24_1506,60.0202712009,FEMA4ImagesEEG,001,101038,
AFNE01.JPG,AFNE01.JPG,AFNE01.JPG,AFNE01.JPG,AFNE01.JPG,AFNE01.JPG,,,,,,,,,,,,,2,4,24,1,,,,,,,,,,,AMSA16.jpg,AMNE12.jpg,AMNE04.jpg,AMSA15.jpg,AMNE12.jpg,MN,1,num_6,16,num_6,0.700231478084,,,2017_Jul_24_1506,60.0202712009,FEMA4ImagesEEG,001,101038,
AFNE01.JPG,AFNE01.JPG,AFNE01.JPG,AFNE01.JPG,AFNE01.JPG,AFNE01.JPG,,,,,,,,,,,,,2,5,25,5,,,,,,,,,,,AMSA09.jpg,AMSA08.jpg,AMNE04.jpg,AMNE07.jpg,AMNE04.jpg,MN,1,num_2,32,num_8,0.816801585956,,,2017_Jul_24_1506,60.0202712009,FEMA4ImagesEEG,001,101038,
AFNE01.JPG,AFNE01.JPG,AFNE01.JPG,AFNE01.JPG,AFNE01.JPG,AFNE01.JPG,,,,,,,,,,,,,2,6,26,2,,,,,,,,,,,AMSA10.jpg,AMNE05.jpg,AMNE14.jpg,AMSA19.jpg,AMNE14.jpg,MN,1,num_2,32,num_4,1.01677631168,,,2017_Jul_24_1506,60.0202712009,FEMA4ImagesEEG,001,101038,
AFNE01.JPG,AFNE01.JPG,AFNE01.JPG,AFNE01.JPG,AFNE01.JPG,AFNE01.JPG,,,,,,,,,,,,,2,7,27,4,,,,,,,,,,,AMNE19.jpg,AMSA19.jpg,AMSA04.jpg,AMNE17.jpg,AMSA04.jpg,MS,2,num_2,32,num_4,0.916633871035,,,2017_Jul_24_1506,60.0202712009,FEMA4ImagesEEG,001,101038,
AFNE01.JPG,AFNE01.JPG,AFNE01.JPG,AFNE01.JPG,AFNE01.JPG,AFNE01.JPG,,,,,,,,,,,,,2,8,28,8,,,,,,,,,,,AMNE15.jpg,AMNE05.jpg,AMSA14.jpg,AMSA09.jpg,AMNE05.jpg,MN,1,num_6,16,num_6,0.700121464208,,,2017_Jul_24_1506,60.0202712009,FEMA4ImagesEEG,001,101038,
AFNE01.JPG,AFNE01.JPG,AFNE01.JPG,AFNE01.JPG,AFNE01.JPG,AFNE01.JPG,,,,,,,,,,,,,2,9,29,9,,,,,,,,,,,AMSA01.jpg,AMSA18.jpg,AMNE20.jpg,AMNE01.jpg,AMNE01.jpg,MN,1,num_4,32,num_6,0.950136779691,,,2017_Jul_24_1506,60.0202712009,FEMA4ImagesEEG,001,101038,
AFNE01.JPG,AFNE01.JPG,AFNE01.JPG,AFNE01.JPG,AFNE01.JPG,AFNE01.JPG,,,,,,,,,,,,,3,0,30,6,,,,,,,,,,,AMNE12.jpg,AMNE09.jpg,AMSA09.jpg,AMSA07.jpg,AMSA09.jpg,MS,2,num_2,16,num_2,0.616798955947,,,2017_Jul_24_1506,60.0202712009,FEMA4ImagesEEG,001,101038,
AFNE01.JPG,AFNE01.JPG,AFNE01.JPG,AFNE01.JPG,AFNE01.JPG,AFNE01.JPG,,,,,,,,,,,,,3,1,31,1,,,,,,,,,,,AMNE13.jpg,AMSA09.jpg,AMNE02.jpg,AMSA20.jpg,AMSA20.jpg,MS,2,num_4,32,num_2,2.06638646813,,,2017_Jul_24_1506,60.0202712009,FEMA4ImagesEEG,001,101038,
AFNE01.JPG,AFNE01.JPG,AFNE01.JPG,AFNE01.JPG,AFNE01.JPG,AFNE01.JPG,,,,,,,,,,,,,3,2,32,7,,,,,,,,,,,AMNE19.jpg,AMSA05.jpg,AMNE11.jpg,AMSA12.jpg,AMNE19.jpg,MN,1,num_8,32,num_6,0.716752480716,,,2017_Jul_24_1506,60.0202712009,FEMA4ImagesEEG,001,101038,
AFNE01.JPG,AFNE01.JPG,AFNE01.JPG,AFNE01.JPG,AFNE01.JPG,AFNE01.JPG,,,,,,,,,,,,,3,3,33,2,,,,,,,,,,,AMSA08.jpg,AMNE09.jpg,AMSA01.jpg,AMNE14.jpg,AMSA08.jpg,MS,2,num_8,16,num_8,0.983499845606,,,2017_Jul_24_1506,60.0202712009,FEMA4ImagesEEG,001,101038,
AFNE01.JPG,AFNE01.JPG,AFNE01.JPG,AFNE01.JPG,AFNE01.JPG,AFNE01.JPG,,,,,,,,,,,,,3,4,34,0,,,,,,,,,,,AMSA06.jpg,AMNE03.jpg,AMSA19.jpg,AMNE11.jpg,AMSA06.jpg,MS,2,num_8,32,num_4,0.750087321503,,,2017_Jul_24_1506,60.0202712009,FEMA4ImagesEEG,001,101038,
AFNE01.JPG,AFNE01.JPG,AFNE01.JPG,AFNE01.JPG,AFNE01.JPG,AFNE01.JPG,,,,,,,,,,,,,3,5,35,8,,,,,,,,,,,AMNE07.jpg,AMSA04.jpg,AMNE15.jpg,AMSA18.jpg,AMSA18.jpg,MS,2,num_4,32,num_8,0.816688364721,,,2017_Jul_24_1506,60.0202712009,FEMA4ImagesEEG,001,101038,
AFNE01.JPG,AFNE01.JPG,AFNE01.JPG,AFNE01.JPG,AFNE01.JPG,AFNE01.JPG,,,,,,,,,,,,,3,6,36,5,,,,,,,,,,,AMSA17.jpg,AMNE12.jpg,AMSA07.jpg,AMNE07.jpg,AMNE12.jpg,MN,1,num_6,16,num_6,0.95010470564,,,2017_Jul_24_1506,60.0202712009,FEMA4ImagesEEG,001,101038,
AFNE01.JPG,AFNE01.JPG,AFNE01.JPG,AFNE01.JPG,AFNE01.JPG,AFNE01.JPG,,,,,,,,,,,,,3,7,37,4,,,,,,,,,,,AMNE09.jpg,AMNE16.jpg,AMSA10.jpg,AMSA14.jpg,AMSA14.jpg,MS,2,num_4,16,num_4,0.91675767675,,,2017_Jul_24_1506,60.0202712009,FEMA4ImagesEEG,001,101038,
AFNE01.JPG,AFNE01.JPG,AFNE01.JPG,AFNE01.JPG,AFNE01.JPG,AFNE01.JPG,,,,,,,,,,,,,3,8,38,3,,,,,,,,,,,AMNE02.jpg,AMSA01.jpg,AMSA06.jpg,AMNE08.jpg,AMSA06.jpg,MS,2,num_2,32,num_8,1.65001865104,,,2017_Jul_24_1506,60.0202712009,FEMA4ImagesEEG,001,101038,
AFNE01.JPG,AFNE01.JPG,AFNE01.JPG,AFNE01.JPG,AFNE01.JPG,AFNE01.JPG,,,,,,,,,,,,,3,9,39,9,,,,,,,,,,,AMSA16.jpg,AMNE19.jpg,AMNE12.jpg,AMSA09.jpg,AMSA16.jpg,MS,2,num_8,32,num_4,1.75006519048,,,2017_Jul_24_1506,60.0202712009,FEMA4ImagesEEG,001,101038,
AFNE01.JPG,AFNE01.JPG,AFNE01.JPG,AFNE01.JPG,AFNE01.JPG,AFNE01.JPG,,,,,,,,,,,,,4,0,40,4,,,,,,,,,,,AMNE06.jpg,AMSA18.jpg,AMNE15.jpg,AMSA09.jpg,AMSA09.jpg,MS,2,num_4,32,num_6,0.416928791557,,,2017_Jul_24_1506,60.0202712009,FEMA4ImagesEEG,001,101038,
AFNE01.JPG,AFNE01.JPG,AFNE01.JPG,AFNE01.JPG,AFNE01.JPG,AFNE01.JPG,,,,,,,,,,,,,4,1,41,0,,,,,,,,,,,AMSA11.jpg,AMNE15.jpg,AMNE16.jpg,AMSA09.jpg,AMNE16.jpg,MN,1,num_2,32,num_4,1.50004570547,,,2017_Jul_24_1506,60.0202712009,FEMA4ImagesEEG,001,101038,
AFNE01.JPG,AFNE01.JPG,AFNE01.JPG,AFNE01.JPG,AFNE01.JPG,AFNE01.JPG,,,,,,,,,,,,,4,2,42,3,,,,,,,,,,,AMNE15.jpg,AMSA16.jpg,AMSA09.jpg,AMNE18.jpg,AMNE18.jpg,MN,1,num_4,32,num_6,0.900102283922,,,2017_Jul_24_1506,60.0202712009,FEMA4ImagesEEG,001,101038,
AFNE01.JPG,AFNE01.JPG,AFNE01.JPG,AFNE01.JPG,AFNE01.JPG,AFNE01.JPG,,,,,,,,,,,,,4,3,43,7,,,,,,,,,,,AMNE02.jpg,AMSA05.jpg,AMNE05.jpg,AMSA20.jpg,AMNE02.jpg,MN,1,num_8,16,num_8,1.06690446346,,,2017_Jul_24_1506,60.0202712009,FEMA4ImagesEEG,001,101038,
AFNE01.JPG,AFNE01.JPG,AFNE01.JPG,AFNE01.JPG,AFNE01.JPG,AFNE01.JPG,,,,,,,,,,,,,4,4,44,9,,,,,,,,,,,AMNE15.jpg,AMSA04.jpg,AMNE10.jpg,AMSA09.jpg,AMSA09.jpg,MS,2,num_4,32,num_6,0.650110061863,,,2017_Jul_24_1506,60.0202712009,FEMA4ImagesEEG,001,101038,
AFNE01.JPG,AFNE01.JPG,AFNE01.JPG,AFNE01.JPG,AFNE01.JPG,AFNE01.JPG,,,,,,,,,,,,,4,5,45,2,,,,,,,,,,,AMNE05.jpg,AMSA16.jpg,AMNE02.jpg,AMSA12.jpg,AMSA12.jpg,MS,2,num_4,16,num_4,0.750184505712,,,2017_Jul_24_1506,60.0202712009,FEMA4ImagesEEG,001,101038,
AFNE01.JPG,AFNE01.JPG,AFNE01.JPG,AFNE01.JPG,AFNE01.JPG,AFNE01.JPG,,,,,,,,,,,,,4,6,46,6,,,,,,,,,,,AMSA15.jpg,AMSA16.jpg,AMNE14.jpg,AMNE03.jpg,AMSA15.jpg,MS,2,num_8,32,num_6,0.866795668262,,,2017_Jul_24_1506,60.0202712009,FEMA4ImagesEEG,001,101038,
AFNE01.JPG,AFNE01.JPG,AFNE01.JPG,AFNE01.JPG,AFNE01.JPG,AFNE01.JPG,,,,,,,,,,,,,4,7,47,1,,,,,,,,,,,AMSA03.jpg,AMNE20.jpg,AMNE06.jpg,AMSA02.jpg,AMSA03.jpg,MS,2,num_8,16,num_8,0.550156857935,,,2017_Jul_24_1506,60.0202712009,FEMA4ImagesEEG,001,101038,
AFNE01.JPG,AFNE01.JPG,AFNE01.JPG,AFNE01.JPG,AFNE01.JPG,AFNE01.JPG,,,,,,,,,,,,,4,8,48,8,,,,,,,,,,,AMSA05.jpg,AMNE20.jpg,AMNE02.jpg,AMSA08.jpg,AMSA08.jpg,MS,2,num_4,16,num_4,0.983562389854,,,2017_Jul_24_1506,60.0202712009,FEMA4ImagesEEG,001,101038,
AFNE01.JPG,AFNE01.JPG,AFNE01.JPG,AFNE01.JPG,AFNE01.JPG,AFNE01.JPG,,,,,,,,,,,,,4,9,49,5,,,,,,,,,,,AMSA07.jpg,AMSA11.jpg,AMNE19.jpg,AMNE11.jpg,AMNE11.jpg,MN,1,num_4,32,num_6,0.716743820696,,,2017_Jul_24_1506,60.0202712009,FEMA4ImagesEEG,001,101038,
AFNE01.JPG,AFNE01.JPG,AFNE01.JPG,AFNE01.JPG,AFNE01.JPG,AFNE01.JPG,,,,,,,,,,,,,5,0,50,9,,,,,,,,,,,AMNE10.jpg,AMNE03.jpg,AMSA01.jpg,AMSA04.jpg,AMNE10.jpg,MN,1,num_8,16,num_8,0.733533603488,,,2017_Jul_24_1506,60.0202712009,FEMA4ImagesEEG,001,101038,
AFNE01.JPG,AFNE01.JPG,AFNE01.JPG,AFNE01.JPG,AFNE01.JPG,AFNE01.JPG,,,,,,,,,,,,,5,1,51,0,,,,,,,,,,,AMSA09.jpg,AMNE17.jpg,AMNE12.jpg,AMSA16.jpg,AMSA09.jpg,MS,2,num_8,32,num_6,0.666740436922,,,2017_Jul_24_1506,60.0202712009,FEMA4ImagesEEG,001,101038,
AFNE01.JPG,AFNE01.JPG,AFNE01.JPG,AFNE01.JPG,AFNE01.JPG,AFNE01.JPG,,,,,,,,,,,,,5,2,52,2,,,,,,,,,,,AMSA01.jpg,AMNE10.jpg,AMNE18.jpg,AMSA18.jpg,AMSA18.jpg,MS,2,num_4,16,num_4,0.600255822297,,,2017_Jul_24_1506,60.0202712009,FEMA4ImagesEEG,001,101038,
AFNE01.JPG,AFNE01.JPG,AFNE01.JPG,AFNE01.JPG,AFNE01.JPG,AFNE01.JPG,,,,,,,,,,,,,5,3,53,4,,,,,,,,,,,AMNE08.jpg,AMNE03.jpg,AMSA13.jpg,AMSA01.jpg,AMSA13.jpg,MS,2,num_2,32,num_6,1.66669874068,,,2017_Jul_24_1506,60.0202712009,FEMA4ImagesEEG,001,101038,
AFNE01.JPG,AFNE01.JPG,AFNE01.JPG,AFNE01.JPG,AFNE01.JPG,AFNE01.JPG,,,,,,,,,,,,,5,4,54,5,,,,,,,,,,,AMNE10.jpg,AMSA03.jpg,AMNE12.jpg,AMSA20.jpg,AMNE12.jpg,MN,1,num_2,32,num_8,0.716827854631,,,2017_Jul_24_1506,60.0202712009,FEMA4ImagesEEG,001,101038,
AFNE01.JPG,AFNE01.JPG,AFNE01.JPG,AFNE01.JPG,AFNE01.JPG,AFNE01.JPG,,,,,,,,,,,,,5,5,55,8,,,,,,,,,,,AMNE12.jpg,AMSA20.jpg,AMSA01.jpg,AMNE15.jpg,AMSA01.jpg,MS,2,num_2,16,num_2,0.716776536196,,,2017_Jul_24_1506,60.0202712009,FEMA4ImagesEEG,001,101038,
AFNE01.JPG,AFNE01.JPG,AFNE01.JPG,AFNE01.JPG,AFNE01.JPG,AFNE01.JPG,,,,,,,,,,,,,5,6,56,1,,,,,,,,,,,AMNE15.jpg,AMNE07.jpg,AMSA04.jpg,AMSA07.jpg,AMNE07.jpg,MN,1,num_6,32,num_8,0.950391768012,,,2017_Jul_24_1506,60.0202712009,FEMA4ImagesEEG,001,101038,
AFNE01.JPG,AFNE01.JPG,AFNE01.JPG,AFNE01.JPG,AFNE01.JPG,AFNE01.JPG,,,,,,,,,,,,,5,7,57,7,,,,,,,,,,,AMSA10.jpg,AMNE11.jpg,AMSA15.jpg,AMNE16.jpg,AMSA10.jpg,MS,2,num_8,32,num_2,0.716764989542,,,2017_Jul_24_1506,60.0202712009,FEMA4ImagesEEG,001,101038,
AFNE01.JPG,AFNE01.JPG,AFNE01.JPG,AFNE01.JPG,AFNE01.JPG,AFNE01.JPG,,,,,,,,,,,,,5,8,58,3,,,,,,,,,,,AMSA14.jpg,AMNE14.jpg,AMNE11.jpg,AMSA06.jpg,AMNE11.jpg,MN,1,num_2,16,num_2,0.816893638461,,,2017_Jul_24_1506,60.0202712009,FEMA4ImagesEEG,001,101038,
AFNE01.JPG,AFNE01.JPG,AFNE01.JPG,AFNE01.JPG,AFNE01.JPG,AFNE01.JPG,,,,,,,,,,,,,5,9,59,6,,,,,,,,,,,AMSA03.jpg,AMNE07.jpg,AMNE08.jpg,AMSA09.jpg,AMNE08.jpg,MN,1,num_2,16,num_2,1.1001212718,,,2017_Jul_24_1506,60.0202712009,FEMA4ImagesEEG,001,101038,
,,,,,,,,,,,,,,,,,,,,,,,,,,,,,,,,,,,,,,,,,,,space,16.5489412529,2017_Jul_24_1506,60.0202712009,FEMA4ImagesEEG,001,101038,
AFNE01.JPG,AFNE01.JPG,AFNE01.JPG,AFNE01.JPG,AFNE01.JPG,AFNE01.JPG,,,,,,,,,,,,,,,,,0,0,0,1,,,,,,,AFNE09.jpg,AFSA05.jpg,AFSA17.jpg,AFNE08.jpg,AFSA05.jpg,FS,4,num_6,32,num_2,0.900069247815,,,2017_Jul_24_1506,60.0202712009,FEMA4ImagesEEG,001,101038,
AFNE01.JPG,AFNE01.JPG,AFNE01.JPG,AFNE01.JPG,AFNE01.JPG,AFNE01.JPG,,,,,,,,,,,,,,,,,0,1,1,4,,,,,,,AFSA05.jpg,AFNE11.jpg,AFNE19.jpg,AFSA01.jpg,AFNE19.jpg,FN,3,num_2,32,num_6,0.933445784845,,,2017_Jul_24_1506,60.0202712009,FEMA4ImagesEEG,001,101038,
AFNE01.JPG,AFNE01.JPG,AFNE01.JPG,AFNE01.JPG,AFNE01.JPG,AFNE01.JPG,,,,,,,,,,,,,,,,,0,2,2,8,,,,,,,AFNE18.jpg,AFSA09.jpg,AFSA03.jpg,AFNE10.jpg,AFSA09.jpg,FS,4,num_6,32,num_2,0.983436339069,,,2017_Jul_24_1506,60.0202712009,FEMA4ImagesEEG,001,101038,
AFNE01.JPG,AFNE01.JPG,AFNE01.JPG,AFNE01.JPG,AFNE01.JPG,AFNE01.JPG,,,,,,,,,,,,,,,,,0,3,3,7,,,,,,,AFSA10.jpg,AFNE16.jpg,AFSA06.jpg,AFNE12.jpg,AFSA06.jpg,FS,4,num_2,32,num_8,0.916818617261,,,2017_Jul_24_1506,60.0202712009,FEMA4ImagesEEG,001,101038,
AFNE01.JPG,AFNE01.JPG,AFNE01.JPG,AFNE01.JPG,AFNE01.JPG,AFNE01.JPG,,,,,,,,,,,,,,,,,0,4,4,5,,,,,,,AFSA18.jpg,AFSA20.jpg,AFNE13.jpg,AFNE10.jpg,AFNE13.jpg,FN,3,num_2,32,num_8,0.800141061423,,,2017_Jul_24_1506,60.0202712009,FEMA4ImagesEEG,001,101038,
AFNE01.JPG,AFNE01.JPG,AFNE01.JPG,AFNE01.JPG,AFNE01.JPG,AFNE01.JPG,,,,,,,,,,,,,,,,,0,5,5,9,,,,,,,AFSA08.jpg,AFSA06.jpg,AFNE15.jpg,AFNE12.jpg,AFNE15.jpg,FN,3,num_2,16,num_2,0.483504496282,,,2017_Jul_24_1506,60.0202712009,FEMA4ImagesEEG,001,101038,
AFNE01.JPG,AFNE01.JPG,AFNE01.JPG,AFNE01.JPG,AFNE01.JPG,AFNE01.JPG,,,,,,,,,,,,,,,,,0,6,6,2,,,,,,,AFSA03.jpg,AFSA06.jpg,AFNE11.jpg,AFNE19.jpg,AFNE19.jpg,FN,3,num_4,32,num_2,0.716781668016,,,2017_Jul_24_1506,60.0202712009,FEMA4ImagesEEG,001,101038,
AFNE01.JPG,AFNE01.JPG,AFNE01.JPG,AFNE01.JPG,AFNE01.JPG,AFNE01.JPG,,,,,,,,,,,,,,,,,0,7,7,3,,,,,,,AFNE07.jpg,AFSA13.jpg,AFNE20.jpg,AFSA20.jpg,AFNE07.jpg,FN,3,num_8,32,num_2,0.58357188385,,,2017_Jul_24_1506,60.0202712009,FEMA4ImagesEEG,001,101038,
AFNE01.JPG,AFNE01.JPG,AFNE01.JPG,AFNE01.JPG,AFNE01.JPG,AFNE01.JPG,,,,,,,,,,,,,,,,,0,8,8,0,,,,,,,AFSA09.jpg,AFNE04.jpg,AFSA06.jpg,AFNE06.jpg,AFNE06.jpg,FN,3,num_4,32,num_2,0.850137709756,,,2017_Jul_24_1506,60.0202712009,FEMA4ImagesEEG,001,101038,
AFNE01.JPG,AFNE01.JPG,AFNE01.JPG,AFNE01.JPG,AFNE01.JPG,AFNE01.JPG,,,,,,,,,,,,,,,,,0,9,9,6,,,,,,,AFSA20.jpg,AFNE12.jpg,AFNE17.jpg,AFSA15.jpg,AFSA15.jpg,FS,4,num_4,32,num_6,0.767032663221,,,2017_Jul_24_1506,60.0202712009,FEMA4ImagesEEG,001,101038,
AFNE01.JPG,AFNE01.JPG,AFNE01.JPG,AFNE01.JPG,AFNE01.JPG,AFNE01.JPG,,,,,,,,,,,,,,,,,1,0,10,6,,,,,,,AFNE14.jpg,AFNE01.jpg,AFSA19.jpg,AFSA01.jpg,AFNE01.jpg,FN,3,num_6,32,num_2,0.766746242298,,,2017_Jul_24_1506,60.0202712009,FEMA4ImagesEEG,001,101038,
AFNE01.JPG,AFNE01.JPG,AFNE01.JPG,AFNE01.JPG,AFNE01.JPG,AFNE01.JPG,,,,,,,,,,,,,,,,,1,1,11,8,,,,,,,AFNE03.jpg,AFNE11.jpg,AFSA14.jpg,AFSA08.jpg,AFSA14.jpg,FS,4,num_2,16,num_2,0.700116973952,,,2017_Jul_24_1506,60.0202712009,FEMA4ImagesEEG,001,101038,
AFNE01.JPG,AFNE01.JPG,AFNE01.JPG,AFNE01.JPG,AFNE01.JPG,AFNE01.JPG,,,,,,,,,,,,,,,,,1,2,12,0,,,,,,,AFNE04.jpg,AFNE11.jpg,AFSA19.jpg,AFSA17.jpg,AFNE04.jpg,FN,3,num_8,32,num_4,0.916764412308,,,2017_Jul_24_1506,60.0202712009,FEMA4ImagesEEG,001,101038,
AFNE01.JPG,AFNE01.JPG,AFNE01.JPG,AFNE01.JPG,AFNE01.JPG,AFNE01.JPG,,,,,,,,,,,,,,,,,1,3,13,1,,,,,,,AFSA07.jpg,AFNE15.jpg,AFNE20.jpg,AFSA04.jpg,AFNE15.jpg,FN,3,num_6,16,num_6,0.650094666402,,,2017_Jul_24_1506,60.0202712009,FEMA4ImagesEEG,001,101038,
AFNE01.JPG,AFNE01.JPG,AFNE01.JPG,AFNE01.JPG,AFNE01.JPG,AFNE01.JPG,,,,,,,,,,,,,,,,,1,4,14,7,,,,,,,AFNE01.jpg,AFNE04.jpg,AFSA12.jpg,AFSA03.jpg,AFNE04.jpg,FN,3,num_6,32,num_4,1.13342564239,,,2017_Jul_24_1506,60.0202712009,FEMA4ImagesEEG,001,101038,
AFNE01.JPG,AFNE01.JPG,AFNE01.JPG,AFNE01.JPG,AFNE01.JPG,AFNE01.JPG,,,,,,,,,,,,,,,,,1,5,15,5,,,,,,,AFNE06.jpg,AFSA15.jpg,AFSA10.jpg,AFNE02.jpg,AFNE02.jpg,FN,3,num_4,32,num_8,1.20010879496,,,2017_Jul_24_1506,60.0202712009,FEMA4ImagesEEG,001,101038,
AFNE01.JPG,AFNE01.JPG,AFNE01.JPG,AFNE01.JPG,AFNE01.JPG,AFNE01.JPG,,,,,,,,,,,,,,,,,1,6,16,4,,,,,,,AFNE05.jpg,AFSA11.jpg,AFSA14.jpg,AFNE18.jpg,AFNE05.jpg,FN,3,num_8,32,num_4,0.733483247226,,,2017_Jul_24_1506,60.0202712009,FEMA4ImagesEEG,001,101038,
AFNE01.JPG,AFNE01.JPG,AFNE01.JPG,AFNE01.JPG,AFNE01.JPG,AFNE01.JPG,,,,,,,,,,,,,,,,,1,7,17,3,,,,,,,AFNE09.jpg,AFNE19.jpg,AFSA01.jpg,AFSA18.jpg,AFNE09.jpg,FN,3,num_8,16,num_8,1.26673036569,,,2017_Jul_24_1506,60.0202712009,FEMA4ImagesEEG,001,101038,
AFNE01.JPG,AFNE01.JPG,AFNE01.JPG,AFNE01.JPG,AFNE01.JPG,AFNE01.JPG,,,,,,,,,,,,,,,,,1,8,18,9,,,,,,,AFNE19.jpg,AFSA15.jpg,AFSA18.jpg,AFNE06.jpg,AFNE06.jpg,FN,3,num_4,32,num_6,1.01669323992,,,2017_Jul_24_1506,60.0202712009,FEMA4ImagesEEG,001,101038,
AFNE01.JPG,AFNE01.JPG,AFNE01.JPG,AFNE01.JPG,AFNE01.JPG,AFNE01.JPG,,,,,,,,,,,,,,,,,1,9,19,2,,,,,,,AFNE15.jpg,AFSA10.jpg,AFNE07.jpg,AFSA12.jpg,AFSA12.jpg,FS,4,num_4,32,num_8,1.26682594628,,,2017_Jul_24_1506,60.0202712009,FEMA4ImagesEEG,001,101038,
AFNE01.JPG,AFNE01.JPG,AFNE01.JPG,AFNE01.JPG,AFNE01.JPG,AFNE01.JPG,,,,,,,,,,,,,,,,,2,0,20,3,,,,,,,AFSA14.jpg,AFNE11.jpg,AFSA20.jpg,AFNE20.jpg,AFNE20.jpg,FN,3,num_4,32,num_8,0.81674256979,,,2017_Jul_24_1506,60.0202712009,FEMA4ImagesEEG,001,101038,
AFNE01.JPG,AFNE01.JPG,AFNE01.JPG,AFNE01.JPG,AFNE01.JPG,AFNE01.JPG,,,,,,,,,,,,,,,,,2,1,21,7,,,,,,,AFSA06.jpg,AFNE11.jpg,AFNE14.jpg,AFSA20.jpg,AFSA20.jpg,FS,4,num_4,32,num_2,0.650161059573,,,2017_Jul_24_1506,60.0202712009,FEMA4ImagesEEG,001,101038,
AFNE01.JPG,AFNE01.JPG,AFNE01.JPG,AFNE01.JPG,AFNE01.JPG,AFNE01.JPG,,,,,,,,,,,,,,,,,2,2,22,0,,,,,,,AFNE14.jpg,AFSA02.jpg,AFSA13.jpg,AFNE16.jpg,AFNE14.jpg,FN,3,num_8,32,num_6,0.700123388786,,,2017_Jul_24_1506,60.0202712009,FEMA4ImagesEEG,001,101038,
AFNE01.JPG,AFNE01.JPG,AFNE01.JPG,AFNE01.JPG,AFNE01.JPG,AFNE01.JPG,,,,,,,,,,,,,,,,,2,3,23,5,,,,,,,AFNE02.jpg,AFSA12.jpg,AFNE09.jpg,AFSA08.jpg,AFSA08.jpg,FS,4,num_4,16,num_4,0.850104352809,,,2017_Jul_24_1506,60.0202712009,FEMA4ImagesEEG,001,101038,
AFNE01.JPG,AFNE01.JPG,AFNE01.JPG,AFNE01.JPG,AFNE01.JPG,AFNE01.JPG,,,,,,,,,,,,,,,,,2,4,24,6,,,,,,,AFSA14.jpg,AFSA18.jpg,AFNE04.jpg,AFNE19.jpg,AFSA18.jpg,FS,4,num_6,16,num_6,0.850166576332,,,2017_Jul_24_1506,60.0202712009,FEMA4ImagesEEG,001,101038,
AFNE01.JPG,AFNE01.JPG,AFNE01.JPG,AFNE01.JPG,AFNE01.JPG,AFNE01.JPG,,,,,,,,,,,,,,,,,2,5,25,2,,,,,,,AFNE02.jpg,AFSA09.jpg,AFSA03.jpg,AFNE05.jpg,AFNE02.jpg,FN,3,num_8,32,num_4,0.700105106574,,,2017_Jul_24_1506,60.0202712009,FEMA4ImagesEEG,001,101038,
AFNE01.JPG,AFNE01.JPG,AFNE01.JPG,AFNE01.JPG,AFNE01.JPG,AFNE01.JPG,,,,,,,,,,,,,,,,,2,6,26,1,,,,,,,AFNE05.jpg,AFNE10.jpg,AFSA08.jpg,AFSA19.jpg,AFNE10.jpg,FN,3,num_6,16,num_6,0.650119042723,,,2017_Jul_24_1506,60.0202712009,FEMA4ImagesEEG,001,101038,
AFNE01.JPG,AFNE01.JPG,AFNE01.JPG,AFNE01.JPG,AFNE01.JPG,AFNE01.JPG,,,,,,,,,,,,,,,,,2,7,27,4,,,,,,,AFSA03.jpg,AFNE17.jpg,AFSA08.jpg,AFNE05.jpg,AFNE17.jpg,FN,3,num_6,16,num_6,0.966728665633,,,2017_Jul_24_1506,60.0202712009,FEMA4ImagesEEG,001,101038,
AFNE01.JPG,AFNE01.JPG,AFNE01.JPG,AFNE01.JPG,AFNE01.JPG,AFNE01.JPG,,,,,,,,,,,,,,,,,2,8,28,9,,,,,,,AFSA17.jpg,AFNE15.jpg,AFSA09.jpg,AFNE04.jpg,AFSA09.jpg,FS,4,num_2,32,num_8,0.833458903129,,,2017_Jul_24_1506,60.0202712009,FEMA4ImagesEEG,001,101038,
AFNE01.JPG,AFNE01.JPG,AFNE01.JPG,AFNE01.JPG,AFNE01.JPG,AFNE01.JPG,,,,,,,,,,,,,,,,,2,9,29,8,,,,,,,AFSA03.jpg,AFSA08.jpg,AFNE04.jpg,AFNE08.jpg,AFNE08.jpg,FN,3,num_4,16,num_4,0.916816692916,,,2017_Jul_24_1506,60.0202712009,FEMA4ImagesEEG,001,101038,
AFNE01.JPG,AFNE01.JPG,AFNE01.JPG,AFNE01.JPG,AFNE01.JPG,AFNE01.JPG,,,,,,,,,,,,,,,,,3,0,30,8,,,,,,,AFSA14.jpg,AFNE09.jpg,AFSA15.jpg,AFNE17.jpg,AFSA14.jpg,FS,4,num_8,32,num_2,0.916803863249,,,2017_Jul_24_1506,60.0202712009,FEMA4ImagesEEG,001,101038,
AFNE01.JPG,AFNE01.JPG,AFNE01.JPG,AFNE01.JPG,AFNE01.JPG,AFNE01.JPG,,,,,,,,,,,,,,,,,3,1,31,2,,,,,,,AFNE20.jpg,AFSA17.jpg,AFSA06.jpg,AFNE17.jpg,AFNE17.jpg,FN,3,num_4,32,num_2,1.63335299469,,,2017_Jul_24_1506,60.0202712009,FEMA4ImagesEEG,001,101038,
AFNE01.JPG,AFNE01.JPG,AFNE01.JPG,AFNE01.JPG,AFNE01.JPG,AFNE01.JPG,,,,,,,,,,,,,,,,,3,2,32,3,,,,,,,AFSA07.jpg,AFNE07.jpg,AFSA17.jpg,AFNE15.jpg,AFNE07.jpg,FN,3,num_6,32,num_8,4.36648823891,,,2017_Jul_24_1506,60.0202712009,FEMA4ImagesEEG,001,101038,
AFNE01.JPG,AFNE01.JPG,AFNE01.JPG,AFNE01.JPG,AFNE01.JPG,AFNE01.JPG,,,,,,,,,,,,,,,,,3,3,33,5,,,,,,,AFNE11.jpg,AFNE12.jpg,AFSA11.jpg,AFSA19.jpg,AFSA11.jpg,FS,4,num_2,32,num_8,0.633460763376,,,2017_Jul_24_1506,60.0202712009,FEMA4ImagesEEG,001,101038,
AFNE01.JPG,AFNE01.JPG,AFNE01.JPG,AFNE01.JPG,AFNE01.JPG,AFNE01.JPG,,,,,,,,,,,,,,,,,3,4,34,0,,,,,,,AFSA08.jpg,AFSA16.jpg,AFNE06.jpg,AFNE02.jpg,AFNE06.jpg,FN,3,num_2,32,num_8,0.833458582405,,,2017_Jul_24_1506,60.0202712009,FEMA4ImagesEEG,001,101038,
AFNE01.JPG,AFNE01.JPG,AFNE01.JPG,AFNE01.JPG,AFNE01.JPG,AFNE01.JPG,,,,,,,,,,,,,,,,,3,5,35,6,,,,,,,AFNE18.jpg,AFSA18.jpg,AFNE14.jpg,AFSA15.jpg,AFSA15.jpg,FS,4,num_4,32,num_2,0.483461196302,,,2017_Jul_24_1506,60.0202712009,FEMA4ImagesEEG,001,101038,
AFNE01.JPG,AFNE01.JPG,AFNE01.JPG,AFNE01.JPG,AFNE01.JPG,AFNE01.JPG,,,,,,,,,,,,,,,,,3,6,36,1,,,,,,,AFNE18.jpg,AFSA11.jpg,AFNE02.jpg,AFSA15.jpg,AFNE18.jpg,FN,3,num_8,32,num_6,1.03345094877,,,2017_Jul_24_1506,60.0202712009,FEMA4ImagesEEG,001,101038,
AFNE01.JPG,AFNE01.JPG,AFNE01.JPG,AFNE01.JPG,AFNE01.JPG,AFNE01.JPG,,,,,,,,,,,,,,,,,3,7,37,4,,,,,,,AFNE16.jpg,AFSA04.jpg,AFNE09.jpg,AFSA05.jpg,AFNE09.jpg,FN,3,num_2,32,num_8,0.700321285403,,,2017_Jul_24_1506,60.0202712009,FEMA4ImagesEEG,001,101038,
AFNE01.JPG,AFNE01.JPG,AFNE01.JPG,AFNE01.JPG,AFNE01.JPG,AFNE01.JPG,,,,,,,,,,,,,,,,,3,8,38,7,,,,,,,AFSA07.jpg,AFNE04.jpg,AFSA11.jpg,AFNE10.jpg,AFNE10.jpg,FN,3,num_4,32,num_8,0.883460683282,,,2017_Jul_24_1506,60.0202712009,FEMA4ImagesEEG,001,101038,
AFNE01.JPG,AFNE01.JPG,AFNE01.JPG,AFNE01.JPG,AFNE01.JPG,AFNE01.JPG,,,,,,,,,,,,,,,,,3,9,39,9,,,,,,,AFSA01.jpg,AFSA16.jpg,AFNE09.jpg,AFNE15.jpg,AFNE15.jpg,FN,3,num_4,16,num_4,0.700123067945,,,2017_Jul_24_1506,60.0202712009,FEMA4ImagesEEG,001,101038,
AFNE01.JPG,AFNE01.JPG,AFNE01.JPG,AFNE01.JPG,AFNE01.JPG,AFNE01.JPG,,,,,,,,,,,,,,,,,4,0,40,2,,,,,,,AFSA13.jpg,AFSA01.jpg,AFNE18.jpg,AFNE13.jpg,AFSA01.jpg,FS,4,num_6,32,num_8,1.23343144776,,,2017_Jul_24_1506,60.0202712009,FEMA4ImagesEEG,001,101038,
AFNE01.JPG,AFNE01.JPG,AFNE01.JPG,AFNE01.JPG,AFNE01.JPG,AFNE01.JPG,,,,,,,,,,,,,,,,,4,1,41,9,,,,,,,AFSA11.jpg,AFNE18.jpg,AFSA09.jpg,AFNE10.jpg,AFSA11.jpg,FS,4,num_8,16,num_8,0.866713558906,,,2017_Jul_24_1506,60.0202712009,FEMA4ImagesEEG,001,101038,
AFNE01.JPG,AFNE01.JPG,AFNE01.JPG,AFNE01.JPG,AFNE01.JPG,AFNE01.JPG,,,,,,,,,,,,,,,,,4,2,42,7,,,,,,,AFNE08.jpg,AFSA09.jpg,AFNE02.jpg,AFSA19.jpg,AFNE08.jpg,FN,3,num_8,32,num_4,1.60001302208,,,2017_Jul_24_1506,60.0202712009,FEMA4ImagesEEG,001,101038,
AFNE01.JPG,AFNE01.JPG,AFNE01.JPG,AFNE01.JPG,AFNE01.JPG,AFNE01.JPG,,,,,,,,,,,,,,,,,4,3,43,1,,,,,,,AFNE06.jpg,AFSA03.jpg,AFNE03.jpg,AFSA13.jpg,AFNE03.jpg,FN,3,num_2,32,num_6,0.700112162856,,,2017_Jul_24_1506,60.0202712009,FEMA4ImagesEEG,001,101038,
AFNE01.JPG,AFNE01.JPG,AFNE01.JPG,AFNE01.JPG,AFNE01.JPG,AFNE01.JPG,,,,,,,,,,,,,,,,,4,4,44,0,,,,,,,AFNE12.jpg,AFSA14.jpg,AFNE18.jpg,AFSA12.jpg,AFSA14.jpg,FS,4,num_6,32,num_8,1.05014033988,,,2017_Jul_24_1506,60.0202712009,FEMA4ImagesEEG,001,101038,
AFNE01.JPG,AFNE01.JPG,AFNE01.JPG,AFNE01.JPG,AFNE01.JPG,AFNE01.JPG,,,,,,,,,,,,,,,,,4,5,45,6,,,,,,,AFNE19.jpg,AFSA14.jpg,AFNE16.jpg,AFSA17.jpg,AFSA14.jpg,FS,4,num_6,16,num_6,0.583646936924,,,2017_Jul_24_1506,60.0202712009,FEMA4ImagesEEG,001,101038,
AFNE01.JPG,AFNE01.JPG,AFNE01.JPG,AFNE01.JPG,AFNE01.JPG,AFNE01.JPG,,,,,,,,,,,,,,,,,4,6,46,4,,,,,,,AFSA14.jpg,AFNE18.jpg,AFSA03.jpg,AFNE06.jpg,AFSA14.jpg,FS,4,num_8,16,num_8,0.700139746536,,,2017_Jul_24_1506,60.0202712009,FEMA4ImagesEEG,001,101038,
AFNE01.JPG,AFNE01.JPG,AFNE01.JPG,AFNE01.JPG,AFNE01.JPG,AFNE01.JPG,,,,,,,,,,,,,,,,,4,7,47,3,,,,,,,AFNE17.jpg,AFNE04.jpg,AFSA10.jpg,AFSA19.jpg,AFSA10.jpg,FS,4,num_2,32,num_6,0.683316606795,,,2017_Jul_24_1506,60.0202712009,FEMA4ImagesEEG,001,101038,
AFNE01.JPG,AFNE01.JPG,AFNE01.JPG,AFNE01.JPG,AFNE01.JPG,AFNE01.JPG,,,,,,,,,,,,,,,,,4,8,48,8,,,,,,,AFNE19.jpg,AFNE04.jpg,AFSA05.jpg,AFSA03.jpg,AFSA05.jpg,FS,4,num_2,16,num_2,0.716827533906,,,2017_Jul_24_1506,60.0202712009,FEMA4ImagesEEG,001,101038,
AFNE01.JPG,AFNE01.JPG,AFNE01.JPG,AFNE01.JPG,AFNE01.JPG,AFNE01.JPG,,,,,,,,,,,,,,,,,4,9,49,5,,,,,,,AFNE03.jpg,AFNE13.jpg,AFSA04.jpg,AFSA11.jpg,AFSA11.jpg,FS,4,num_4,16,num_4,0.500185868819,,,2017_Jul_24_1506,60.0202712009,FEMA4ImagesEEG,001,101038,
AFNE01.JPG,AFNE01.JPG,AFNE01.JPG,AFNE01.JPG,AFNE01.JPG,AFNE01.JPG,,,,,,,,,,,,,,,,,5,0,50,7,,,,,,,AFSA09.jpg,AFSA11.jpg,AFNE04.jpg,AFNE05.jpg,AFNE05.jpg,FN,3,num_4,32,num_6,0.700104465126,,,2017_Jul_24_1506,60.0202712009,FEMA4ImagesEEG,001,101038,
AFNE01.JPG,AFNE01.JPG,AFNE01.JPG,AFNE01.JPG,AFNE01.JPG,AFNE01.JPG,,,,,,,,,,,,,,,,,5,1,51,8,,,,,,,AFSA01.jpg,AFSA19.jpg,AFNE09.jpg,AFNE17.jpg,AFSA19.jpg,FS,4,num_6,16,num_6,1.01678753761,,,2017_Jul_24_1506,60.0202712009,FEMA4ImagesEEG,001,101038,
AFNE01.JPG,AFNE01.JPG,AFNE01.JPG,AFNE01.JPG,AFNE01.JPG,AFNE01.JPG,,,,,,,,,,,,,,,,,5,2,52,5,,,,,,,AFSA09.jpg,AFNE03.jpg,AFNE05.jpg,AFSA05.jpg,AFSA05.jpg,FS,4,num_4,16,num_4,0.466790408245,,,2017_Jul_24_1506,60.0202712009,FEMA4ImagesEEG,001,101038,
AFNE01.JPG,AFNE01.JPG,AFNE01.JPG,AFNE01.JPG,AFNE01.JPG,AFNE01.JPG,,,,,,,,,,,,,,,,,5,3,53,4,,,,,,,AFSA17.jpg,AFSA01.jpg,AFNE14.jpg,AFNE03.jpg,AFNE14.jpg,FN,3,num_2,32,num_8,0.633332146564,,,2017_Jul_24_1506,60.0202712009,FEMA4ImagesEEG,001,101038,
AFNE01.JPG,AFNE01.JPG,AFNE01.JPG,AFNE01.JPG,AFNE01.JPG,AFNE01.JPG,,,,,,,,,,,,,,,,,5,4,54,2,,,,,,,AFSA17.jpg,AFNE09.jpg,AFSA06.jpg,AFNE08.jpg,AFSA06.jpg,FS,4,num_2,32,num_6,0.666615348309,,,2017_Jul_24_1506,60.0202712009,FEMA4ImagesEEG,001,101038,
AFNE01.JPG,AFNE01.JPG,AFNE01.JPG,AFNE01.JPG,AFNE01.JPG,AFNE01.JPG,,,,,,,,,,,,,,,,,5,5,55,0,,,,,,,AFSA09.jpg,AFNE16.jpg,AFNE18.jpg,AFSA03.jpg,AFSA09.jpg,FS,4,num_8,32,num_2,0.950139345601,,,2017_Jul_24_1506,60.0202712009,FEMA4ImagesEEG,001,101038,
AFNE01.JPG,AFNE01.JPG,AFNE01.JPG,AFNE01.JPG,AFNE01.JPG,AFNE01.JPG,,,,,,,,,,,,,,,,,5,6,56,6,,,,,,,AFSA12.jpg,AFNE18.jpg,AFNE07.jpg,AFSA15.jpg,AFSA15.jpg,FS,4,num_4,32,num_6,0.683441053843,,,2017_Jul_24_1506,60.0202712009,FEMA4ImagesEEG,001,101038,
AFNE01.JPG,AFNE01.JPG,AFNE01.JPG,AFNE01.JPG,AFNE01.JPG,AFNE01.JPG,,,,,,,,,,,,,,,,,5,7,57,1,,,,,,,AFSA02.jpg,AFSA18.jpg,AFNE12.jpg,AFNE08.jpg,AFSA18.jpg,FS,4,num_6,32,num_2,0.733460795484,,,2017_Jul_24_1506,60.0202712009,FEMA4ImagesEEG,001,101038,
AFNE01.JPG,AFNE01.JPG,AFNE01.JPG,AFNE01.JPG,AFNE01.JPG,AFNE01.JPG,,,,,,,,,,,,,,,,,5,8,58,9,,,,,,,AFSA14.jpg,AFSA06.jpg,AFNE06.jpg,AFNE19.jpg,AFSA14.jpg,FS,4,num_8,32,num_4,0.95016949519,,,2017_Jul_24_1506,60.0202712009,FEMA4ImagesEEG,001,101038,
AFNE01.JPG,AFNE01.JPG,AFNE01.JPG,AFNE01.JPG,AFNE01.JPG,AFNE01.JPG,,,,,,,,,,,,,,,,,5,9,59,3,,,,,,,AFSA20.jpg,AFNE08.jpg,AFSA17.jpg,AFNE14.jpg,AFSA20.jpg,FS,4,num_8,32,num_6,0.933467915864,,,2017_Jul_24_1506,60.0202712009,FEMA4ImagesEEG,001,101038,
,,,,,,,,,,,,,,,,,,,,,,,,,,,,,,,,,,,,,,,,,,,space,18.6656726931,2017_Jul_24_1506,60.0202712009,FEMA4ImagesEEG,001,101038,
AFNE01.JPG,AFNE01.JPG,AFNE01.JPG,AFNE01.JPG,AFNE01.JPG,AFNE01.JPG,,,,,,,,,,,,,,,,,,,,,0,0,0,0,,,AMSA19.jpg,AMNE16.jpg,AMSA01.jpg,AMNE08.jpg,AMSA19.jpg,MS,2,num_8,16,num_8,0.833614462055,,,2017_Jul_24_1506,60.0202712009,FEMA4ImagesEEG,001,101038,
AFNE01.JPG,AFNE01.JPG,AFNE01.JPG,AFNE01.JPG,AFNE01.JPG,AFNE01.JPG,,,,,,,,,,,,,,,,,,,,,0,1,1,6,,,AMSA16.jpg,AMNE07.jpg,AMNE18.jpg,AMSA07.jpg,AMNE07.jpg,MN,1,num_6,32,num_4,0.566768950666,,,2017_Jul_24_1506,60.0202712009,FEMA4ImagesEEG,001,101038,
AFNE01.JPG,AFNE01.JPG,AFNE01.JPG,AFNE01.JPG,AFNE01.JPG,AFNE01.JPG,,,,,,,,,,,,,,,,,,,,,0,2,2,1,,,AMNE04.jpg,AMSA05.jpg,AMSA03.jpg,AMNE13.jpg,AMSA05.jpg,MS,2,num_6,16,num_6,0.53350563487,,,2017_Jul_24_1506,60.0202712009,FEMA4ImagesEEG,001,101038,
AFNE01.JPG,AFNE01.JPG,AFNE01.JPG,AFNE01.JPG,AFNE01.JPG,AFNE01.JPG,,,,,,,,,,,,,,,,,,,,,0,3,3,7,,,AMSA05.jpg,AMNE12.jpg,AMNE04.jpg,AMSA07.jpg,AMNE04.jpg,MN,1,num_2,16,num_2,0.533484786749,,,2017_Jul_24_1506,60.0202712009,FEMA4ImagesEEG,001,101038,
AFNE01.JPG,AFNE01.JPG,AFNE01.JPG,AFNE01.JPG,AFNE01.JPG,AFNE01.JPG,,,,,,,,,,,,,,,,,,,,,0,4,4,9,,,AMNE19.jpg,AMSA08.jpg,AMSA06.jpg,AMNE05.jpg,AMSA06.jpg,MS,2,num_2,32,num_8,0.733611543314,,,2017_Jul_24_1506,60.0202712009,FEMA4ImagesEEG,001,101038,
AFNE01.JPG,AFNE01.JPG,AFNE01.JPG,AFNE01.JPG,AFNE01.JPG,AFNE01.JPG,,,,,,,,,,,,,,,,,,,,,0,5,5,5,,,AMNE07.jpg,AMSA09.jpg,AMSA18.jpg,AMNE10.jpg,AMSA09.jpg,MS,2,num_6,32,num_8,0.81676662527,,,2017_Jul_24_1506,60.0202712009,FEMA4ImagesEEG,001,101038,
AFNE01.JPG,AFNE01.JPG,AFNE01.JPG,AFNE01.JPG,AFNE01.JPG,AFNE01.JPG,,,,,,,,,,,,,,,,,,,,,0,6,6,8,,,AMNE06.jpg,AMSA14.jpg,AMSA02.jpg,AMNE09.jpg,AMSA02.jpg,MS,2,num_2,32,num_4,1.11677987198,,,2017_Jul_24_1506,60.0202712009,FEMA4ImagesEEG,001,101038,
AFNE01.JPG,AFNE01.JPG,AFNE01.JPG,AFNE01.JPG,AFNE01.JPG,AFNE01.JPG,,,,,,,,,,,,,,,,,,,,,0,7,7,3,,,AMSA08.jpg,AMNE17.jpg,AMNE04.jpg,AMSA17.jpg,AMNE04.jpg,MN,1,num_2,16,num_2,0.616766561172,,,2017_Jul_24_1506,60.0202712009,FEMA4ImagesEEG,001,101038,
AFNE01.JPG,AFNE01.JPG,AFNE01.JPG,AFNE01.JPG,AFNE01.JPG,AFNE01.JPG,,,,,,,,,,,,,,,,,,,,,0,8,8,4,,,AMNE20.jpg,AMSA07.jpg,AMSA18.jpg,AMNE06.jpg,AMNE06.jpg,MN,1,num_4,32,num_8,0.950196437305,,,2017_Jul_24_1506,60.0202712009,FEMA4ImagesEEG,001,101038,
AFNE01.JPG,AFNE01.JPG,AFNE01.JPG,AFNE01.JPG,AFNE01.JPG,AFNE01.JPG,,,,,,,,,,,,,,,,,,,,,0,9,9,2,,,AMSA14.jpg,AMNE14.jpg,AMNE03.jpg,AMSA06.jpg,AMNE14.jpg,MN,1,num_6,32,num_2,0.700127237593,,,2017_Jul_24_1506,60.0202712009,FEMA4ImagesEEG,001,101038,
AFNE01.JPG,AFNE01.JPG,AFNE01.JPG,AFNE01.JPG,AFNE01.JPG,AFNE01.JPG,,,,,,,,,,,,,,,,,,,,,1,0,10,0,,,AMSA20.jpg,AMSA08.jpg,AMNE11.jpg,AMNE20.jpg,AMNE20.jpg,MN,1,num_4,16,num_4,0.53344469436,,,2017_Jul_24_1506,60.0202712009,FEMA4ImagesEEG,001,101038,
AFNE01.JPG,AFNE01.JPG,AFNE01.JPG,AFNE01.JPG,AFNE01.JPG,AFNE01.JPG,,,,,,,,,,,,,,,,,,,,,1,1,11,3,,,AMSA02.jpg,AMSA14.jpg,AMNE19.jpg,AMNE14.jpg,AMNE19.jpg,MN,1,num_2,32,num_8,0.716753442888,,,2017_Jul_24_1506,60.0202712009,FEMA4ImagesEEG,001,101038,
AFNE01.JPG,AFNE01.JPG,AFNE01.JPG,AFNE01.JPG,AFNE01.JPG,AFNE01.JPG,,,,,,,,,,,,,,,,,,,,,1,2,12,9,,,AMNE05.jpg,AMNE09.jpg,AMSA19.jpg,AMSA03.jpg,AMNE09.jpg,MN,1,num_6,16,num_6,1.00011257979,,,2017_Jul_24_1506,60.0202712009,FEMA4ImagesEEG,001,101038,
AFNE01.JPG,AFNE01.JPG,AFNE01.JPG,AFNE01.JPG,AFNE01.JPG,AFNE01.JPG,,,,,,,,,,,,,,,,,,,,,1,3,13,6,,,AMSA08.jpg,AMNE20.jpg,AMSA07.jpg,AMNE06.jpg,AMSA07.jpg,MS,2,num_2,16,num_2,0.650113269454,,,2017_Jul_24_1506,60.0202712009,FEMA4ImagesEEG,001,101038,
AFNE01.JPG,AFNE01.JPG,AFNE01.JPG,AFNE01.JPG,AFNE01.JPG,AFNE01.JPG,,,,,,,,,,,,,,,,,,,,,1,4,14,1,,,AMNE03.jpg,AMSA12.jpg,AMNE15.jpg,AMSA14.jpg,AMSA14.jpg,MS,2,num_4,32,num_8,0.73345694656,,,2017_Jul_24_1506,60.0202712009,FEMA4ImagesEEG,001,101038,
AFNE01.JPG,AFNE01.JPG,AFNE01.JPG,AFNE01.JPG,AFNE01.JPG,AFNE01.JPG,,,,,,,,,,,,,,,,,,,,,1,5,15,7,,,AMSA18.jpg,AMNE14.jpg,AMSA20.jpg,AMNE18.jpg,AMNE18.jpg,MN,1,num_4,32,num_8,0.716907398077,,,2017_Jul_24_1506,60.0202712009,FEMA4ImagesEEG,001,101038,
AFNE01.JPG,AFNE01.JPG,AFNE01.JPG,AFNE01.JPG,AFNE01.JPG,AFNE01.JPG,,,,,,,,,,,,,,,,,,,,,1,6,16,5,,,AMSA05.jpg,AMSA16.jpg,AMNE14.jpg,AMNE01.jpg,AMNE14.jpg,MN,1,num_2,32,num_6,0.733141338336,,,2017_Jul_24_1506,60.0202712009,FEMA4ImagesEEG,001,101038,
AFNE01.JPG,AFNE01.JPG,AFNE01.JPG,AFNE01.JPG,AFNE01.JPG,AFNE01.JPG,,,,,,,,,,,,,,,,,,,,,1,7,17,2,,,AMNE04.jpg,AMSA04.jpg,AMSA15.jpg,AMNE19.jpg,AMSA15.jpg,MS,2,num_2,16,num_2,0.466928326408,,,2017_Jul_24_1506,60.0202712009,FEMA4ImagesEEG,001,101038,
AFNE01.JPG,AFNE01.JPG,AFNE01.JPG,AFNE01.JPG,AFNE01.JPG,AFNE01.JPG,,,,,,,,,,,,,,,,,,,,,1,8,18,8,,,AMSA04.jpg,AMNE09.jpg,AMNE14.jpg,AMSA13.jpg,AMSA13.jpg,MS,2,num_4,16,num_4,1.03345960868,,,2017_Jul_24_1506,60.0202712009,FEMA4ImagesEEG,001,101038,
AFNE01.JPG,AFNE01.JPG,AFNE01.JPG,AFNE01.JPG,AFNE01.JPG,AFNE01.JPG,,,,,,,,,,,,,,,,,,,,,1,9,19,4,,,AMNE04.jpg,AMNE01.jpg,AMSA06.jpg,AMSA11.jpg,AMNE04.jpg,MN,1,num_8,32,num_6,0.433488924406,,,2017_Jul_24_1506,60.0202712009,FEMA4ImagesEEG,001,101038,
AFNE01.JPG,AFNE01.JPG,AFNE01.JPG,AFNE01.JPG,AFNE01.JPG,AFNE01.JPG,,,,,,,,,,,,,,,,,,,,,2,0,20,5,,,AMNE13.jpg,AMNE02.jpg,AMSA09.jpg,AMSA19.jpg,AMNE13.jpg,MN,1,num_8,16,num_8,0.93348042469,,,2017_Jul_24_1506,60.0202712009,FEMA4ImagesEEG,001,101038,
AFNE01.JPG,AFNE01.JPG,AFNE01.JPG,AFNE01.JPG,AFNE01.JPG,AFNE01.JPG,,,,,,,,,,,,,,,,,,,,,2,1,21,6,,,AMNE12.jpg,AMSA08.jpg,AMSA20.jpg,AMNE09.jpg,AMSA20.jpg,MS,2,num_2,32,num_6,0.733542263391,,,2017_Jul_24_1506,60.0202712009,FEMA4ImagesEEG,001,101038,
AFNE01.JPG,AFNE01.JPG,AFNE01.JPG,AFNE01.JPG,AFNE01.JPG,AFNE01.JPG,,,,,,,,,,,,,,,,,,,,,2,2,22,8,,,AMNE01.jpg,AMNE03.jpg,AMSA08.jpg,AMSA19.jpg,AMNE01.jpg,MN,1,num_8,32,num_6,1.00010231615,,,2017_Jul_24_1506,60.0202712009,FEMA4ImagesEEG,001,101038,
AFNE01.JPG,AFNE01.JPG,AFNE01.JPG,AFNE01.JPG,AFNE01.JPG,AFNE01.JPG,,,,,,,,,,,,,,,,,,,,,2,3,23,2,,,AMSA02.jpg,AMSA19.jpg,AMNE11.jpg,AMNE20.jpg,AMSA19.jpg,MS,2,num_6,32,num_8,0.799973635119,,,2017_Jul_24_1506,60.0202712009,FEMA4ImagesEEG,001,101038,
AFNE01.JPG,AFNE01.JPG,AFNE01.JPG,AFNE01.JPG,AFNE01.JPG,AFNE01.JPG,,,,,,,,,,,,,,,,,,,,,2,4,24,1,,,AMSA07.jpg,AMNE16.jpg,AMSA09.jpg,AMNE09.jpg,AMNE16.jpg,MN,1,num_6,32,num_4,0.833419772796,,,2017_Jul_24_1506,60.0202712009,FEMA4ImagesEEG,001,101038,
AFNE01.JPG,AFNE01.JPG,AFNE01.JPG,AFNE01.JPG,AFNE01.JPG,AFNE01.JPG,,,,,,,,,,,,,,,,,,,,,2,5,25,9,,,AMSA06.jpg,AMNE13.jpg,AMNE07.jpg,AMSA07.jpg,AMNE07.jpg,MN,1,num_2,32,num_6,0.75009630213,,,2017_Jul_24_1506,60.0202712009,FEMA4ImagesEEG,001,101038,
AFNE01.JPG,AFNE01.JPG,AFNE01.JPG,AFNE01.JPG,AFNE01.JPG,AFNE01.JPG,,,,,,,,,,,,,,,,,,,,,2,6,26,0,,,AMSA04.jpg,AMNE15.jpg,AMSA11.jpg,AMNE05.jpg,AMSA11.jpg,MS,2,num_2,32,num_8,0.63349123369,,,2017_Jul_24_1506,60.0202712009,FEMA4ImagesEEG,001,101038,
AFNE01.JPG,AFNE01.JPG,AFNE01.JPG,AFNE01.JPG,AFNE01.JPG,AFNE01.JPG,,,,,,,,,,,,,,,,,,,,,2,7,27,7,,,AMSA14.jpg,AMSA04.jpg,AMNE09.jpg,AMNE20.jpg,AMNE20.jpg,MN,1,num_4,32,num_6,1.06673030148,,,2017_Jul_24_1506,60.0202712009,FEMA4ImagesEEG,001,101038,
AFNE01.JPG,AFNE01.JPG,AFNE01.JPG,AFNE01.JPG,AFNE01.JPG,AFNE01.JPG,,,,,,,,,,,,,,,,,,,,,2,8,28,4,,,AMNE10.jpg,AMNE16.jpg,AMSA20.jpg,AMSA16.jpg,AMSA16.jpg,MS,2,num_4,32,num_2,1.05009864364,,,2017_Jul_24_1506,60.0202712009,FEMA4ImagesEEG,001,101038,
AFNE01.JPG,AFNE01.JPG,AFNE01.JPG,AFNE01.JPG,AFNE01.JPG,AFNE01.JPG,,,,,,,,,,,,,,,,,,,,,2,9,29,3,,,AMNE17.jpg,AMSA08.jpg,AMNE04.jpg,AMSA02.jpg,AMNE04.jpg,MN,1,num_2,32,num_6,0.816807359341,,,2017_Jul_24_1506,60.0202712009,FEMA4ImagesEEG,001,101038,
AFNE01.JPG,AFNE01.JPG,AFNE01.JPG,AFNE01.JPG,AFNE01.JPG,AFNE01.JPG,,,,,,,,,,,,,,,,,,,,,3,0,30,5,,,AMNE18.jpg,AMSA04.jpg,AMSA03.jpg,AMNE01.jpg,AMSA03.jpg,MS,2,num_2,32,num_6,0.850323418272,,,2017_Jul_24_1506,60.0202712009,FEMA4ImagesEEG,001,101038,
AFNE01.JPG,AFNE01.JPG,AFNE01.JPG,AFNE01.JPG,AFNE01.JPG,AFNE01.JPG,,,,,,,,,,,,,,,,,,,,,3,1,31,1,,,AMNE01.jpg,AMSA04.jpg,AMSA17.jpg,AMNE06.jpg,AMSA17.jpg,MS,2,num_2,16,num_2,1.13368480036,,,2017_Jul_24_1506,60.0202712009,FEMA4ImagesEEG,001,101038,
AFNE01.JPG,AFNE01.JPG,AFNE01.JPG,AFNE01.JPG,AFNE01.JPG,AFNE01.JPG,,,,,,,,,,,,,,,,,,,,,3,2,32,4,,,AMSA10.jpg,AMSA11.jpg,AMNE10.jpg,AMNE07.jpg,AMNE10.jpg,MN,1,num_2,32,num_4,1.26672266796,,,2017_Jul_24_1506,60.0202712009,FEMA4ImagesEEG,001,101038,
AFNE01.JPG,AFNE01.JPG,AFNE01.JPG,AFNE01.JPG,AFNE01.JPG,AFNE01.JPG,,,,,,,,,,,,,,,,,,,,,3,3,33,8,,,AMNE03.jpg,AMSA15.jpg,AMNE16.jpg,AMSA07.jpg,AMNE16.jpg,MN,1,num_2,16,num_2,1.26677398628,,,2017_Jul_24_1506,60.0202712009,FEMA4ImagesEEG,001,101038,
AFNE01.JPG,AFNE01.JPG,AFNE01.JPG,AFNE01.JPG,AFNE01.JPG,AFNE01.JPG,,,,,,,,,,,,,,,,,,,,,3,4,34,9,,,AMNE13.jpg,AMSA06.jpg,AMSA15.jpg,AMNE11.jpg,AMSA06.jpg,MS,2,num_6,16,num_6,1.58337013831,,,2017_Jul_24_1506,60.0202712009,FEMA4ImagesEEG,001,101038,
AFNE01.JPG,AFNE01.JPG,AFNE01.JPG,AFNE01.JPG,AFNE01.JPG,AFNE01.JPG,,,,,,,,,,,,,,,,,,,,,3,5,35,3,,,AMSA14.jpg,AMSA10.jpg,AMNE06.jpg,AMNE19.jpg,AMSA14.jpg,MS,2,num_8,16,num_8,0.983473544824,,,2017_Jul_24_1506,60.0202712009,FEMA4ImagesEEG,001,101038,
AFNE01.JPG,AFNE01.JPG,AFNE01.JPG,AFNE01.JPG,AFNE01.JPG,AFNE01.JPG,,,,,,,,,,,,,,,,,,,,,3,6,36,7,,,AMSA09.jpg,AMNE07.jpg,AMSA11.jpg,AMNE06.jpg,AMNE06.jpg,MN,1,num_4,32,num_6,0.666785340407,,,2017_Jul_24_1506,60.0202712009,FEMA4ImagesEEG,001,101038,
AFNE01.JPG,AFNE01.JPG,AFNE01.JPG,AFNE01.JPG,AFNE01.JPG,AFNE01.JPG,,,,,,,,,,,,,,,,,,,,,3,7,37,0,,,AMSA17.jpg,AMSA03.jpg,AMNE20.jpg,AMNE01.jpg,AMNE01.jpg,MN,1,num_4,32,num_2,0.733476832509,,,2017_Jul_24_1506,60.0202712009,FEMA4ImagesEEG,001,101038,
AFNE01.JPG,AFNE01.JPG,AFNE01.JPG,AFNE01.JPG,AFNE01.JPG,AFNE01.JPG,,,,,,,,,,,,,,,,,,,,,3,8,38,2,,,AMSA02.jpg,AMSA01.jpg,AMNE16.jpg,AMNE09.jpg,AMSA02.jpg,MS,2,num_8,32,num_4,0.716786799952,,,2017_Jul_24_1506,60.0202712009,FEMA4ImagesEEG,001,101038,
